ax,ay,az,dpitch,droll,dyaw,heart,time_1,time_2,time_3,time_4,time_5,time_6,w,x,y,z
-0.006,-0.042,0.022,-20.4,15.7,-0.5,0,2018,4,24,21,48,59.588,0.4743,-0.3741,0.0631,0.7943
-0.039,-0.07,0.02,-21.2,21.5,-2.1,0,2018,4,24,21,48,59.609,0.4755,-0.3754,0.067,0.7926
-0.05,-0.063,0.027,-21.7,25.3,-3.2,0,2018,4,24,21,48,59.611,0.4769,-0.3762,0.0716,0.791
-0.063,-0.038,0.026,-21.6,21.5,-4.3,0,2018,4,24,21,48,59.648,0.4783,-0.3768,0.0764,0.7895
-0.051,-0.052,0.021,-22,18.6,-3.8,0,2018,4,24,21,48,59.671,0.4794,-0.3777,0.0807,0.7879
-0.071,-0.034,-0.01,-21.5,15.7,-4.3,0,2018,4,24,21,48,59.675,0.4801,-0.379,0.0845,0.7865
-0.049,-0.01,-0.045,-19.4,11.9,-5,0,2018,4,24,21,48,59.711,0.4806,-0.3805,0.0882,0.785
-0.02,0.005,-0.069,-17,10.6,-5.3,0,2018,4,24,21,48,59.736,0.4804,-0.3823,0.0915,0.7839
0,0.032,-0.066,-14.7,10.7,-5.3,0,2018,4,24,21,48,59.74,0.4804,-0.3837,0.0951,0.7828
0.024,0.039,-0.047,-12.5,11.9,-4.4,0,2018,4,24,21,48,59.751,0.4801,-0.3848,0.0985,0.7821
0.058,0.055,-0.034,-11.7,14,-3.9,0,2018,4,24,21,48,59.786,0.4799,-0.3855,0.1022,0.7813
0.085,0.056,-0.041,-11.1,14.9,-3.5,0,2018,4,24,21,48,59.809,0.4799,-0.3861,0.1063,0.7805
0.109,0.066,-0.049,-10.6,16.9,-3,0,2018,4,24,21,48,59.811,0.4803,-0.3864,0.1103,0.7795
0.12,0.069,-0.048,-9.1,16.2,-3.5,0,2018,4,24,21,48,59.831,0.4811,-0.3862,0.1137,0.7786
0.108,0.066,-0.047,-8.4,11.3,-4.6,0,2018,4,24,21,48,59.855,0.4816,-0.3861,0.1166,0.778
0.095,0.062,-0.05,-8,6.7,-6,0,2018,4,24,21,48,59.875,0.4811,-0.3868,0.1198,0.7774
0.069,0.037,-0.061,-7.5,2.4,-7.4,0,2018,4,24,21,48,59.892,0.4799,-0.3879,0.1223,0.7772
0.045,0.033,-0.079,-5.9,0,-8.6,0,2018,4,24,21,48,59.914,0.4783,-0.3892,0.1243,0.7772
0.027,0.017,-0.053,-3.4,-2.5,-9.1,0,2018,4,24,21,48,59.951,0.4766,-0.3904,0.1256,0.7775
0.008,0.007,-0.024,-1.9,-2.8,-8.6,0,2018,4,24,21,48,59.951,0.475,-0.3911,0.1263,0.778
0.005,0.009,-0.016,-0.6,-0.9,-8.2,0,2018,4,24,21,48,59.974,0.4736,-0.3913,0.1269,0.7787
0.009,0.002,-0.008,0.5,0.8,-7.4,0,2018,4,24,21,48,59.992,0.4724,-0.3913,0.1275,0.7793
0.025,0,0.002,1.6,3.5,-6.5,0,2018,4,24,21,49,0.015,0.4716,-0.3909,0.1284,0.7798
0.025,0.007,0.016,2.1,5.1,-6,1023,2018,4,24,21,49,0.032,0.471,-0.3902,0.1293,0.7804
0.022,0.005,0.031,2.2,4.3,-5.9,1023,2018,4,24,21,49,0.054,0.4706,-0.3893,0.1303,0.7809
0.016,-0.009,0.022,1.5,5.1,-6.6,1023,2018,4,24,21,49,0.072,0.4701,-0.3885,0.1312,0.7815
0.011,-0.002,0.035,0.5,4.8,-7.8,1023,2018,4,24,21,49,0.096,0.4695,-0.3877,0.1323,0.782
0.002,-0.013,0.038,-0.9,2.9,-9.4,1023,2018,4,24,21,49,0.113,0.4686,-0.3871,0.1334,0.7827
-0.011,-0.026,0.028,-3,2.7,-11.2,1023,2018,4,24,21,49,0.138,0.4674,-0.3867,0.1344,0.7834
-0.027,-0.021,0.022,-3.7,1.8,-12.5,1023,2018,4,24,21,49,0.154,0.466,-0.3866,0.1355,0.7841
-0.049,-0.024,0.018,-4.1,0.8,-13.5,1023,2018,4,24,21,49,0.176,0.4644,-0.3865,0.1365,0.7849
-0.049,-0.014,0.029,-4.1,-1.9,-14,1023,2018,4,24,21,49,0.212,0.4625,-0.3865,0.1373,0.7859
-0.052,-0.006,0.028,-4.9,-5.8,-14.3,1023,2018,4,24,21,49,0.236,0.4604,-0.3867,0.1378,0.787
-0.044,-0.014,0.023,-5.5,-9.7,-14.7,0,2018,4,24,21,49,0.241,0.4579,-0.3873,0.1378,0.7881
-0.022,-0.018,0.005,-6.2,-8.9,-14.4,0,2018,4,24,21,49,0.257,0.4552,-0.3884,0.1377,0.7892
0.003,0.013,0.007,-5.5,-10.5,-14.6,0,2018,4,24,21,49,0.275,0.4525,-0.3895,0.1378,0.7902
0.031,0.049,0.023,-4.1,-18.6,-14.8,0,2018,4,24,21,49,0.293,0.4493,-0.3908,0.1375,0.7914
0.067,0.046,0.034,-3.2,-32.4,-15.8,0,2018,4,24,21,49,0.317,0.445,-0.3929,0.1357,0.7931
0.097,0.044,0.029,-3.8,-40.5,-17.9,0,2018,4,24,21,49,0.333,0.4399,-0.3958,0.1326,0.795
0.142,0.057,-0.004,-3.3,-53.3,-20.8,0,2018,4,24,21,49,0.355,0.4334,-0.3999,0.1284,0.7973
0.181,0.068,-0.037,-0.9,-65.4,-23,0,2018,4,24,21,49,0.394,0.4258,-0.4044,0.1223,0.8
0.182,0.04,-0.059,1.6,-69.2,-24.3,0,2018,4,24,21,49,0.417,0.4176,-0.4089,0.1143,0.8032
0.188,0.023,-0.105,5,-64.1,-25.2,0,2018,4,24,21,49,0.422,0.4094,-0.4128,0.1065,0.8065
0.166,0.004,-0.167,9.9,-50.1,-24.2,0,2018,4,24,21,49,0.436,0.4019,-0.4154,0.0996,0.8099
0.146,0.038,-0.218,17.1,-35,-22.7,0,2018,4,24,21,49,0.453,0.3957,-0.416,0.0945,0.8132
0.105,0.117,-0.304,27.9,-32.9,-18.9,0,2018,4,24,21,49,0.476,0.3907,-0.4147,0.0898,0.8168
0.027,0.034,-0.355,41.8,-31.8,-14.9,0,2018,4,24,21,49,0.495,0.3864,-0.4117,0.0838,0.821
-0.044,-0.024,-0.355,56.6,-16.3,-12.5,0,2018,4,24,21,49,0.518,0.3834,-0.406,0.078,0.8258
-0.121,-0.029,-0.332,70.7,1.5,-9.8,0,2018,4,24,21,49,0.553,0.3822,-0.397,0.0735,0.8311
-0.186,-0.028,-0.265,82.9,4.5,-10.8,0,2018,4,24,21,49,0.577,0.3821,-0.3853,0.0698,0.837
-0.272,-0.011,-0.125,90.3,-8.1,-13.8,0,2018,4,24,21,49,0.581,0.3813,-0.3725,0.0643,0.8436
-0.357,-0.067,0.021,90.5,-18.4,-16,0,2018,4,24,21,49,0.6,0.3791,-0.3598,0.057,0.8505
-0.434,-0.036,0.269,81.8,-22.5,-16.1,0,2018,4,24,21,49,0.635,0.3762,-0.348,0.0494,0.8572
-1.027,0.269,1.697,26.9,-75.8,15,0,2018,4,24,21,49,0.658,0.3729,-0.3425,0.0382,0.8614
-0.038,0.062,0.357,-27.2,2.7,-3.5,0,2018,4,24,21,49,0.663,0.3712,-0.3452,0.0342,0.8613
-0.222,-0.028,0.224,-50.5,16.6,9.9,0,2018,4,24,21,49,0.677,0.372,-0.3505,0.0382,0.8585
-0.123,0.304,0.194,-62.4,-5.9,17.8,0,2018,4,24,21,49,0.711,0.3741,-0.3584,0.0427,0.8541
-0.183,-0.019,0.023,-68.7,-33.2,19.2,0,2018,4,24,21,49,0.736,0.3753,-0.3699,0.0425,0.8487
-0.093,-0.215,-0.178,-69.2,-2.8,18,0,2018,4,24,21,49,0.74,0.3761,-0.3816,0.0426,0.8432
0.101,-0.253,-0.22,-65,15.7,8.1,0,2018,4,24,21,49,0.756,0.3781,-0.3911,0.0475,0.8376
0.21,0.123,-0.212,-50.8,10.5,9.4,0,2018,4,24,21,49,0.78,0.3798,-0.3986,0.0532,0.833
0.224,-0.018,-0.231,-40.7,8.8,9.1,0,2018,4,24,21,49,0.816,0.3812,-0.4048,0.0565,0.8291
0.227,-0.018,-0.215,-30.5,18.3,7.1,1023,2018,4,24,21,49,0.839,0.3831,-0.409,0.0605,0.8259
0.23,-0.062,-0.312,-14.3,17.8,5.5,1023,2018,4,24,21,49,0.843,0.385,-0.4111,0.064,0.8237
0.236,-0.015,-0.348,3.3,19.9,3.4,1023,2018,4,24,21,49,0.862,0.387,-0.4106,0.0668,0.8228
0.189,0.038,-0.357,22.9,8.8,-0.2,1023,2018,4,24,21,49,0.88,0.3885,-0.4076,0.068,0.8235
0.124,0.015,-0.348,41.9,-4.4,-5,1023,2018,4,24,21,49,0.905,0.3885,-0.4027,0.0661,0.826
0.059,-0.04,-0.312,58.6,-8.4,-9.3,1023,2018,4,24,21,49,0.919,0.3875,-0.3958,0.0622,0.8301
-0.015,-0.059,-0.233,72.2,-8.6,-12.8,1023,2018,4,24,21,49,0.938,0.386,-0.3866,0.0573,0.8355
-0.101,-0.065,-0.141,81.8,-9.1,-14.9,1023,2018,4,24,21,49,0.961,0.3841,-0.3758,0.0516,0.8417
-0.168,-0.084,-0.037,86.3,-11.6,-17.4,1023,2018,4,24,21,49,0.981,0.3819,-0.364,0.045,0.8482
-0.237,-0.046,0.062,84.6,1.1,-18.3,1023,2018,4,24,21,49,0.999,0.3794,-0.3515,0.0395,0.8549
-0.412,0.695,0.814,61.7,-38.8,-10.9,0,2018,4,24,21,49,1.022,0.3771,-0.3403,0.0344,0.8606
-0.144,-0.014,1.068,-0.6,-3.3,3,0,2018,4,24,21,49,1.039,0.3723,-0.3397,0.0226,0.8633
-0.205,0.334,0.713,-50.2,8.8,11.9,0,2018,4,24,21,49,1.062,0.3748,-0.3434,0.0267,0.8607
-0.283,-0.022,0.388,-76.1,-21.4,19.4,0,2018,4,24,21,49,1.081,0.3763,-0.354,0.0277,0.8557
-0.23,-0.316,-0.106,-86.6,10.5,19.4,0,2018,4,24,21,49,1.104,0.3782,-0.3672,0.0306,0.8491
0.02,-0.197,-0.212,-84.4,36.3,16,0,2018,4,24,21,49,1.122,0.3823,-0.3779,0.0398,0.8422
0.139,0.161,-0.267,-68.2,-3.9,15.5,0,2018,4,24,21,49,1.143,0.3853,-0.388,0.0466,0.8359
0.171,0.043,-0.347,-53.7,-32.1,9.6,0,2018,4,24,21,49,1.16,0.3851,-0.3984,0.0465,0.8311
0.186,-0.029,-0.344,-39.1,-28.2,5.8,0,2018,4,24,21,49,1.199,0.3836,-0.4072,0.0446,0.8275
0.259,-0.05,-0.421,-19.9,-9.4,7,0,2018,4,24,21,49,1.199,0.3828,-0.4129,0.0433,0.8252
0.269,-0.038,-0.504,3.2,9.6,8.1,0,2018,4,24,21,49,1.22,0.384,-0.414,0.0434,0.8241
0.225,0.009,-0.441,27.7,11.9,4,0,2018,4,24,21,49,1.258,0.3859,-0.4108,0.0437,0.8247
0.137,0.014,-0.334,47.3,1.4,-0.3,0,2018,4,24,21,49,1.281,0.3869,-0.4049,0.0419,0.8273
0.072,-0.03,-0.299,62.9,-3.1,-4.9,0,2018,4,24,21,49,1.286,0.3868,-0.3969,0.0382,0.8314
-0.022,-0.044,-0.223,76.4,-6.4,-9.3,0,2018,4,24,21,49,1.305,0.3858,-0.3869,0.0332,0.8368
-0.102,-0.039,-0.115,84.3,-8.3,-12.1,0,2018,4,24,21,49,1.322,0.3842,-0.3757,0.0271,0.8428
-0.162,-0.085,0.011,86.6,-5.9,-14.4,0,2018,4,24,21,49,1.345,0.3822,-0.3635,0.0206,0.8492
-0.249,0.072,0.248,80.5,3.2,-14.7,0,2018,4,24,21,49,1.361,0.3803,-0.3508,0.016,0.8555
-0.898,0.352,1.375,39.4,-151.7,-8.8,0,2018,4,24,21,49,1.379,0.3754,-0.3455,0.0033,0.8599
-0.308,0.016,0.631,-21.2,20,9.2,0,2018,4,24,21,49,1.403,0.3716,-0.3482,-0.0065,0.8605
-0.137,-0.192,0.398,-52,73.2,5.3,0,2018,4,24,21,49,1.439,0.3749,-0.351,0.0028,0.858
-0.108,0.356,0.189,-62.8,53.4,21.9,0,2018,4,24,21,49,1.462,0.3816,-0.3553,0.0163,0.8531
-0.153,0.079,0.069,-69.5,33.1,27.1,0,2018,4,24,21,49,1.467,0.3875,-0.3627,0.0248,0.8471
-0.115,0.017,-0.017,-78.7,34.1,25.5,0,2018,4,24,21,49,1.485,0.3932,-0.3709,0.0328,0.8406
0.015,-0.108,-0.203,-72.7,36.6,20.3,0,2018,4,24,21,49,1.503,0.3988,-0.3796,0.042,0.8336
0.101,0.019,-0.31,-57.1,23.5,21.1,0,2018,4,24,21,49,1.525,0.4032,-0.3872,0.0494,0.8276
0.089,0.058,-0.285,-44.3,12.2,20.1,0,2018,4,24,21,49,1.544,0.4069,-0.3934,0.054,0.8225
0.072,0.039,-0.231,-33.9,7.7,18.8,0,2018,4,24,21,49,1.566,0.41,-0.3985,0.0568,0.8184
0.069,-0.024,-0.172,-26.6,16.7,17.7,0,2018,4,24,21,49,1.583,0.4131,-0.402,0.0593,0.8149
0.084,0.02,-0.125,-20,18.8,15,0,2018,4,24,21,49,1.601,0.4164,-0.4048,0.0628,0.8116
0.105,0.036,-0.125,-13.6,8.8,10.8,1023,2018,4,24,21,49,1.624,0.419,-0.4063,0.0651,0.8093
0.083,0.002,-0.1,-8.6,2,7.7,1023,2018,4,24,21,49,1.641,0.4203,-0.4082,0.0662,0.8076
0.073,-0.023,-0.074,-4.8,1.6,5.3,1023,2018,4,24,21,49,1.664,0.4211,-0.4101,0.0668,0.8062
0.06,-0.026,-0.046,-0.9,2.3,2.7,1023,2018,4,24,21,49,1.682,0.4215,-0.4112,0.0671,0.8053
0.048,-0.033,-0.033,2.4,5.7,0.9,1023,2018,4,24,21,49,1.705,0.422,-0.4115,0.0674,0.8049
0.029,-0.026,0.001,4.9,8.7,-0.5,1023,2018,4,24,21,49,1.723,0.4226,-0.4108,0.0681,0.8049
0.007,-0.024,0.007,6.2,8.1,-1.5,1023,2018,4,24,21,49,1.744,0.4231,-0.4094,0.0689,0.8052
-0.012,-0.023,0.033,7.2,6.9,-2.5,1023,2018,4,24,21,49,1.782,0.4236,-0.4078,0.0694,0.8058
-0.032,-0.02,0.038,7.6,3.8,-3,1023,2018,4,24,21,49,1.805,0.4238,-0.406,0.0695,0.8066
-0.05,-0.039,0.042,7.7,5.1,-2.8,0,2018,4,24,21,49,1.81,0.424,-0.4042,0.0692,0.8074
-0.071,-0.036,0.049,7.2,7.5,-1.6,0,2018,4,24,21,49,1.828,0.4246,-0.4021,0.0692,0.8081
-0.074,-0.032,0.047,6.6,8,-0.7,0,2018,4,24,21,49,1.845,0.4254,-0.4,0.0693,0.8088
-0.065,-0.045,0.053,5.2,9.2,0.4,0,2018,4,24,21,49,1.882,0.4264,-0.3979,0.0694,0.8092
-0.068,-0.042,0.051,2.6,9.2,0.8,0,2018,4,24,21,49,1.882,0.4275,-0.3961,0.0697,0.8095
-0.047,-0.034,0.029,0.6,9.4,0.9,0,2018,4,24,21,49,1.905,0.4286,-0.3948,0.0702,0.8095
-0.023,-0.03,0.014,-1.9,12.3,1.1,0,2018,4,24,21,49,1.942,0.4297,-0.3939,0.0713,0.8093
-0.002,0,0.005,-3.6,14,0.3,0,2018,4,24,21,49,1.963,0.4308,-0.3932,0.0732,0.8089
0.017,0.029,0,-4.3,12.2,-1.1,0,2018,4,24,21,49,1.966,0.4315,-0.3928,0.0756,0.8085
0.036,0.039,0.002,-4.9,10.7,-2.4,0,2018,4,24,21,49,2.001,0.4317,-0.3926,0.0781,0.8082
0.056,0.04,-0.002,-5.8,11.5,-4.1,0,2018,4,24,21,49,2.025,0.4317,-0.3926,0.0808,0.8079
0.072,0.057,-0.022,-6.4,11.9,-4.9,0,2018,4,24,21,49,2.03,0.4315,-0.3928,0.0839,0.8077
0.075,0.073,-0.027,-6.7,11.9,-5.5,0,2018,4,24,21,49,2.066,0.4311,-0.3931,0.0873,0.8074
0.08,0.079,-0.039,-6.7,9.1,-6.3,0,2018,4,24,21,49,2.066,0.4304,-0.3935,0.0907,0.8072
0.072,0.074,-0.052,-6.7,5.7,-7.1,0,2018,4,24,21,49,2.089,0.4295,-0.394,0.0934,0.8071
0.054,0.047,-0.036,-6.6,3.1,-7.7,0,2018,4,24,21,49,2.105,0.4283,-0.395,0.0958,0.807
0.041,0.024,-0.025,-6.6,1.7,-8.5,0,2018,4,24,21,49,2.126,0.4269,-0.3959,0.0977,0.807
0.018,-0.001,-0.003,-6.3,0.7,-8.6,0,2018,4,24,21,49,2.162,0.4255,-0.3968,0.0992,0.8071
-0.008,-0.008,0.026,-6.8,2.9,-9.1,0,2018,4,24,21,49,2.185,0.4243,-0.3975,0.1005,0.8073
-0.006,-0.023,0.038,-7.3,5.2,-10,0,2018,4,24,21,49,2.186,0.4232,-0.3978,0.102,0.8075
-0.011,-0.045,0.045,-6.9,4.2,-11,0,2018,4,24,21,49,2.223,0.4222,-0.3981,0.1036,0.8077
-0.035,-0.053,0.085,-7.5,3.1,-11.8,0,2018,4,24,21,49,2.244,0.421,-0.3982,0.1048,0.8081
-0.051,-0.042,0.105,-9.7,1.6,-12.1,0,2018,4,24,21,49,2.248,0.4197,-0.3983,0.106,0.8086
-0.076,-0.025,0.085,-12.3,-3.7,-12.7,0,2018,4,24,21,49,2.284,0.4181,-0.3989,0.1069,0.809
-0.099,0.006,0.075,-15.1,-11.6,-12.4,0,2018,4,24,21,49,2.304,0.4158,-0.4002,0.1072,0.8095
-0.114,0.04,0.037,-17.7,-19.2,-11,0,2018,4,24,21,49,2.307,0.4129,-0.4024,0.1068,0.81
-0.072,0.014,-0.051,-17.2,-28,-8.5,0,2018,4,24,21,49,2.342,0.4096,-0.4058,0.1053,0.8101
-0.029,-0.019,-0.147,-12.6,-28.6,-5.7,0,2018,4,24,21,49,2.362,0.4062,-0.4104,0.1028,0.8098
0.009,0.016,-0.171,-6.4,-25.5,-3.4,0,2018,4,24,21,49,2.368,0.4032,-0.4148,0.1002,0.8094
0.082,0.041,-0.155,-1.5,-19.7,-3,0,2018,4,24,21,49,2.406,0.4008,-0.4175,0.0978,0.8095
0.158,0.094,-0.121,2.6,-20.2,-4.1,0,2018,4,24,21,49,2.429,0.3989,-0.4187,0.0953,0.8101
0.214,0.12,-0.118,7.4,-28.4,-3.8,1023,2018,4,24,21,49,2.433,0.3966,-0.4196,0.0918,0.8112
0.264,0.098,-0.156,13.4,-36.7,-4.6,1023,2018,4,24,21,49,2.452,0.3938,-0.4202,0.0867,0.8128
0.268,0.099,-0.167,20.7,-40.9,-5.3,1023,2018,4,24,21,49,2.47,0.3904,-0.4204,0.0803,0.815
0.243,0.067,-0.168,29.3,-39.7,-5.2,1023,2018,4,24,21,49,2.494,0.387,-0.4195,0.0732,0.8177
0.182,0.032,-0.148,36.7,-36.9,-6.5,1023,2018,4,24,21,49,2.512,0.3838,-0.4173,0.0658,0.821
0.131,-0.023,-0.167,44.9,-31.8,-7.7,1023,2018,4,24,21,49,2.531,0.3807,-0.4136,0.0587,0.8248
0.066,-0.023,-0.191,54.1,-26.9,-5.4,1023,2018,4,24,21,49,2.548,0.3781,-0.4084,0.0517,0.8291
-0.011,-0.044,-0.215,62.7,-22.8,-5.8,1023,2018,4,24,21,49,2.572,0.3761,-0.4014,0.0447,0.8338
-0.101,-0.052,-0.172,71.7,-27.5,-8.4,1023,2018,4,24,21,49,2.589,0.3738,-0.3931,0.0372,0.8392
-0.198,-0.074,-0.05,78.3,-35.6,-9.9,0,2018,4,24,21,49,2.609,0.3709,-0.3841,0.0279,0.845
-0.3,-0.163,0.08,77.9,-40.5,-10,0,2018,4,24,21,49,2.633,0.3671,-0.3749,0.0177,0.851
-0.413,-0.157,0.239,70.7,-30,-11,0,2018,4,24,21,49,2.651,0.3633,-0.366,0.0082,0.8566
-0.623,0.423,0.879,36.1,-64.1,-1.3,0,2018,4,24,21,49,2.669,0.3597,-0.3599,-0.0003,0.8607
-0.376,-0.31,0.654,-7.2,-14.7,5.3,0,2018,4,24,21,49,2.692,0.356,-0.3621,-0.0125,0.8613
-0.437,-0.256,0.195,-44.4,72.6,0.5,0,2018,4,24,21,49,2.71,0.3594,-0.3637,-0.0046,0.8593
-0.297,0.17,0.224,-65.8,117.5,10.2,0,2018,4,24,21,49,2.731,0.3667,-0.3658,0.0143,0.8552
-0.212,0.4,0.227,-71.1,49.3,21,0,2018,4,24,21,49,2.749,0.374,-0.3707,0.0298,0.8495
-0.292,0.336,0.279,-84.1,11.6,28,0,2018,4,24,21,49,2.768,0.3793,-0.3806,0.0374,0.8424
-0.036,0.04,-0.107,-93.5,-5,25,0,2018,4,24,21,49,2.791,0.3826,-0.3939,0.0419,0.8346
0.21,-0.052,-0.362,-83.2,-4.9,23.5,0,2018,4,24,21,49,2.809,0.3851,-0.4077,0.0454,0.8266
0.4,-0.11,-0.435,-67,-9.4,20.2,0,2018,4,24,21,49,2.832,0.387,-0.4192,0.0477,0.8198
0.459,-0.002,-0.379,-49.1,-1.4,18.9,0,2018,4,24,21,49,2.85,0.389,-0.4279,0.0494,0.8142
0.446,0.05,-0.212,-36.3,5.5,16,0,2018,4,24,21,49,2.872,0.3913,-0.4339,0.0513,0.8098
0.435,0.067,-0.192,-23.3,2.7,11.3,0,2018,4,24,21,49,2.909,0.3933,-0.4378,0.053,0.8066
0.361,0.035,-0.31,-5.6,-8.5,10.3,0,2018,4,24,21,49,2.932,0.3945,-0.4402,0.0529,0.8048
0.307,-0.017,-0.401,16.6,-20.6,9.7,0,2018,4,24,21,49,2.937,0.3948,-0.4405,0.0496,0.8046
0.225,-0.037,-0.403,38.8,-29.4,7.6,0,2018,4,24,21,49,2.954,0.3943,-0.4383,0.0434,0.8064
0.12,-0.075,-0.316,59.4,-38.1,4.7,0,2018,4,24,21,49,2.975,0.3929,-0.4337,0.0346,0.81
0.017,-0.124,-0.263,74.9,-34,2.7,0,2018,4,24,21,49,2.992,0.391,-0.4266,0.0245,0.8151
-0.079,-0.157,-0.247,86.5,-21.2,0.5,0,2018,4,24,21,49,3.011,0.3894,-0.4169,0.0148,0.8211
-0.158,-0.152,-0.19,95.7,-9.5,-3.3,0,2018,4,24,21,49,3.034,0.3883,-0.4047,0.0065,0.8278
-0.275,-0.19,-0.08,99.4,9.4,-8.6,0,2018,4,24,21,49,3.052,0.3875,-0.3905,0.0002,0.835
-0.371,-0.14,0.03,98,16.1,-14.7,0,2018,4,24,21,49,3.072,0.3867,-0.375,-0.0034,0.8424
-0.579,0.209,0.635,84.9,-7.8,-18.9,0,2018,4,24,21,49,3.11,0.3846,-0.3606,-0.0072,0.8496
-0.654,0.877,1.451,33.7,-130.3,20.2,0,2018,4,24,21,49,3.132,0.3794,-0.3567,-0.0222,0.8533
-0.568,-0.68,0.257,-23.8,-24.5,-3.8,0,2018,4,24,21,49,3.137,0.3758,-0.3618,-0.0362,0.8523
-0.351,-0.501,-0.057,-47,119,-11,0,2018,4,24,21,49,3.154,0.3778,-0.3637,-0.0248,0.851
-0.234,-0.049,0.117,-63,153.3,1,0,2018,4,24,21,49,3.177,0.3869,-0.3623,0.0009,0.8479
-0.131,0.398,0.152,-58.3,75.1,13.5,1023,2018,4,24,21,49,3.19,0.395,-0.3633,0.0215,0.8434
-0.028,0.545,0.162,-63.6,22.7,22.7,1023,2018,4,24,21,49,3.211,0.4004,-0.3692,0.0314,0.838
-0.081,0.3,0.241,-71.9,-21.9,25.4,1023,2018,4,24,21,49,3.246,0.4034,-0.3794,0.0338,0.8319
0.064,0.062,0.012,-78.8,-11.5,27.6,1023,2018,4,24,21,49,3.27,0.4055,-0.3918,0.0352,0.825
0.224,-0.131,-0.213,-79.4,-5.5,28.1,1023,2018,4,24,21,49,3.275,0.4082,-0.4045,0.0378,0.8174
0.34,-0.073,-0.345,-70.1,8.8,28.7,1023,2018,4,24,21,49,3.292,0.4119,-0.4152,0.0412,0.81
0.424,0.063,-0.379,-54.6,25.5,31.8,1023,2018,4,24,21,49,3.315,0.417,-0.4228,0.0462,0.8031
0.419,0.165,-0.291,-37.8,11.9,29.2,1023,2018,4,24,21,49,3.353,0.4226,-0.4279,0.0502,0.7973
0.372,0.18,-0.218,-22.6,-13,25.9,1023,2018,4,24,21,49,3.353,0.426,-0.4324,0.0502,0.793
0.3,0.108,-0.219,-10.5,-38,21.5,0,2018,4,24,21,49,3.374,0.4271,-0.4368,0.046,0.7902
0.248,0.022,-0.274,2.7,-55.9,19.9,0,2018,4,24,21,49,3.412,0.4263,-0.4411,0.038,0.7888
0.218,-0.056,-0.317,17.7,-63.5,14.7,0,2018,4,24,21,49,3.436,0.424,-0.4442,0.0275,0.7886
0.194,-0.061,-0.36,34.5,-68.9,8.4,0,2018,4,24,21,49,3.44,0.4206,-0.4455,0.0156,0.7901
0.109,-0.023,-0.333,52.5,-84,5.8,0,2018,4,24,21,49,3.456,0.4156,-0.4451,0.0013,0.7931
0.024,-0.062,-0.288,67.6,-90.1,4.8,0,2018,4,24,21,49,3.474,0.4094,-0.443,-0.0157,0.7973
-0.027,-0.063,-0.267,79.3,-82.8,4.7,0,2018,4,24,21,49,3.496,0.403,-0.4388,-0.0335,0.8023
-0.081,-0.107,-0.22,88.1,-67.5,5.4,0,2018,4,24,21,49,3.513,0.3974,-0.4322,-0.0504,0.8078
-0.149,-0.089,-0.116,93.1,-56.3,3.2,0,2018,4,24,21,49,3.536,0.3926,-0.4234,-0.0657,0.8137
-0.233,-0.163,0.057,92.1,-51.7,-2.1,0,2018,4,24,21,49,3.555,0.388,-0.4137,-0.0797,0.8196
-0.329,-0.164,0.28,80.4,-38.2,-5.8,0,2018,4,24,21,49,3.578,0.3829,-0.4043,-0.0917,0.8254
-0.383,-0.143,0.409,60.1,-26.2,-8.3,0,2018,4,24,21,49,3.596,0.3785,-0.3964,-0.1004,0.8303
-0.452,0.104,0.664,33.5,-32.7,-3.3,0,2018,4,24,21,49,3.62,0.3748,-0.3914,-0.1069,0.8335
-0.462,0.234,0.692,1.6,-57.5,17.7,0,2018,4,24,21,49,3.639,0.3722,-0.392,-0.1157,0.8332
-0.352,-0.46,-0.039,-32.3,9.4,-0.2,0,2018,4,24,21,49,3.676,0.3713,-0.3969,-0.1195,0.8308
-0.251,-0.143,0.173,-57.2,88.6,3.6,0,2018,4,24,21,49,3.676,0.376,-0.4002,-0.1087,0.8285
-0.169,0.182,0.146,-61.2,83.5,10.8,0,2018,4,24,21,49,3.698,0.3842,-0.4027,-0.0923,0.8255
-0.106,0.407,0.12,-58.2,43.6,28.8,0,2018,4,24,21,49,3.717,0.3926,-0.4066,-0.0803,0.8209
0.002,0.375,0.07,-59.1,8.3,39.7,0,2018,4,24,21,49,3.735,0.4001,-0.4128,-0.0751,0.8147
0.044,0.184,-0.068,-59.6,-22.2,46.3,0,2018,4,24,21,49,3.758,0.4065,-0.4212,-0.0753,0.8072
0.079,-0.136,-0.256,-55.9,-36.4,41.2,0,2018,4,24,21,49,3.776,0.411,-0.431,-0.079,0.7993
0.083,-0.457,-0.42,-48.4,-13.3,25.6,0,2018,4,24,21,49,3.799,0.414,-0.4399,-0.0818,0.7926
0.243,-0.266,-0.406,-35.2,32.5,15.2,0,2018,4,24,21,49,3.817,0.4178,-0.4445,-0.0788,0.7884
0.359,0.037,-0.23,-24.1,46.7,13.2,0,2018,4,24,21,49,3.841,0.4235,-0.4451,-0.0716,0.7856
0.302,0.216,-0.099,-12,16.4,10.4,0,2018,4,24,21,49,3.859,0.4278,-0.445,-0.0667,0.7838
0.25,0.1,-0.151,1,-22.5,7.1,0,2018,4,24,21,49,3.878,0.4287,-0.446,-0.0677,0.7827
0.215,-0.067,-0.293,15.8,-39.4,6.5,0,2018,4,24,21,49,3.896,0.4266,-0.4472,-0.0736,0.7826
0.183,-0.106,-0.301,32.9,-34.2,5.5,0,2018,4,24,21,49,3.919,0.4241,-0.4466,-0.0811,0.7836
0.143,-0.052,-0.256,46.7,-23.6,3.9,0,2018,4,24,21,49,3.937,0.4216,-0.4431,-0.0884,0.7861
0.093,0.014,-0.177,58.7,-22.5,4.8,0,2018,4,24,21,49,3.96,0.4196,-0.4373,-0.0956,0.7896
0.033,0,-0.092,67.2,-31.1,5.1,1023,2018,4,24,21,49,3.976,0.4165,-0.4308,-0.1045,0.7936
-0.027,0.021,-0.01,71,-36.7,4.7,1023,2018,4,24,21,49,4,0.413,-0.4239,-0.1147,0.7977
-0.113,-0.046,0.087,71.5,-41.3,2.4,1023,2018,4,24,21,49,4.018,0.4092,-0.4162,-0.126,0.802
-0.212,-0.145,0.253,62.6,-35.2,-3.2,1023,2018,4,24,21,49,4.041,0.4048,-0.4095,-0.1363,0.806
-0.296,-0.2,0.395,43.7,-26.8,-9.3,1023,2018,4,24,21,49,4.061,0.4004,-0.4043,-0.144,0.8095
-0.45,-0.345,0.444,15.3,-4.7,-22.7,1023,2018,4,24,21,49,4.098,0.3959,-0.402,-0.1478,0.8122
-0.221,-0.327,0.268,-16,62.9,-29.6,1023,2018,4,24,21,49,4.121,0.3939,-0.4009,-0.1419,0.8147
-0.188,0.279,0.269,-34,75.7,-20.1,1023,2018,4,24,21,49,4.125,0.3964,-0.4,-0.1271,0.8164
-0.199,0.245,0.07,-36.7,37.3,-8.2,1023,2018,4,24,21,49,4.143,0.3991,-0.4016,-0.1159,0.816
-0.109,0.102,-0.055,-35.8,25,-2.7,0,2018,4,24,21,49,4.159,0.4012,-0.4045,-0.1087,0.8145
-0.05,0.06,-0.124,-32.7,24.4,2.4,0,2018,4,24,21,49,4.177,0.4034,-0.4077,-0.1028,0.8126
0.015,0.098,-0.212,-29.3,32.8,6.3,0,2018,4,24,21,49,4.199,0.4063,-0.4103,-0.0968,0.8105
0.043,0.151,-0.198,-19.1,23.5,10.9,0,2018,4,24,21,49,4.219,0.41,-0.4115,-0.0916,0.8087
0.064,0.119,-0.132,-9.6,8.1,14.9,0,2018,4,24,21,49,4.258,0.4128,-0.4121,-0.0895,0.8072
-0.017,0.057,-0.029,-3.9,-14.1,17.5,0,2018,4,24,21,49,4.281,0.4149,-0.4131,-0.0903,0.8055
-0.101,-0.024,0.091,-5.8,-27.8,16.5,0,2018,4,24,21,49,4.285,0.416,-0.4145,-0.0941,0.8038
-0.046,-0.086,0.064,-13,-16,13.9,0,2018,4,24,21,49,4.303,0.4172,-0.4165,-0.098,0.8017
-0.071,-0.07,0.056,-19.2,-5,8.5,0,2018,4,24,21,49,4.321,0.4183,-0.4192,-0.0997,0.7995
-0.03,-0.075,-0.028,-22.3,6.3,7.2,0,2018,4,24,21,49,4.344,0.4202,-0.4217,-0.0994,0.7972
0.007,0.119,-0.027,-22.7,31.9,14,0,2018,4,24,21,49,4.36,0.4231,-0.4233,-0.0959,0.7952
0.055,0.202,-0.053,-15.4,19.2,16.4,0,2018,4,24,21,49,4.378,0.4275,-0.4236,-0.0919,0.7932
0.006,0.143,0.088,-18.1,14.1,21,0,2018,4,24,21,49,4.4,0.4316,-0.4243,-0.0899,0.7908
-0.041,0.052,0.131,-29.1,15.8,22.1,0,2018,4,24,21,49,4.418,0.4357,-0.4262,-0.0879,0.7878
-0.008,-0.018,0.103,-44.2,39,23.8,0,2018,4,24,21,49,4.44,0.4416,-0.4281,-0.0831,0.784
0.046,-0.035,0.081,-56.6,64.4,24.6,0,2018,4,24,21,49,4.479,0.4497,-0.4301,-0.0737,0.7792
0.08,-0.048,0.036,-64.5,88.5,24.8,0,2018,4,24,21,49,4.502,0.4598,-0.432,-0.0602,0.7734
0.055,-0.096,-0.023,-67.8,106.9,22.8,0,2018,4,24,21,49,4.506,0.471,-0.4332,-0.0436,0.7671
0.05,-0.14,-0.058,-70.3,126,17.7,0,2018,4,24,21,49,4.522,0.4829,-0.4331,-0.0242,0.7606
0.12,0.016,-0.102,-64.7,126.8,11.4,0,2018,4,24,21,49,4.543,0.4945,-0.431,-0.0022,0.7547
0.128,0.134,-0.076,-57.6,81.5,1.4,0,2018,4,24,21,49,4.562,0.5032,-0.4298,0.0166,0.7494
0.144,0.073,-0.097,-48.5,23.4,-12.4,0,2018,4,24,21,49,4.585,0.5058,-0.4322,0.0283,0.7459
0.15,-0.016,-0.188,-39.9,-19.1,-28.6,0,2018,4,24,21,49,4.626,0.5026,-0.4381,0.0335,0.7444
0.154,-0.192,-0.313,-29.3,-35,-43.3,0,2018,4,24,21,49,4.628,0.4955,-0.4448,0.0356,0.7451
0.171,-0.252,-0.405,-13.4,-25,-55.3,0,2018,4,24,21,49,4.643,0.4867,-0.4498,0.0374,0.7478
0.131,-0.162,-0.315,0.8,-10.9,-60.8,0,2018,4,24,21,49,4.68,0.4781,-0.4516,0.0403,0.7521
0.111,-0.032,-0.221,15.3,-12.6,-66.6,0,2018,4,24,21,49,4.68,0.469,-0.4508,0.0433,0.7582
0.124,-0.014,-0.279,31,-27.5,-68.1,0,2018,4,24,21,49,4.701,0.4585,-0.4488,0.0439,0.7657
0.101,-0.071,-0.415,49.8,-30.6,-65.8,0,2018,4,24,21,49,4.74,0.4475,-0.4452,0.0419,0.7743
0.038,-0.07,-0.44,70,-23.1,-64.7,0,2018,4,24,21,49,4.763,0.4369,-0.4387,0.0385,0.7842
-0.032,0.022,-0.327,87.7,-7.2,-59.4,1023,2018,4,24,21,49,4.767,0.4277,-0.4285,0.0352,0.795
-0.06,0.067,-0.278,105.1,-5.1,-57.1,1023,2018,4,24,21,49,4.801,0.4198,-0.4149,0.0317,0.8065
-0.089,0.033,-0.243,121.4,-18.9,-54.9,1023,2018,4,24,21,49,4.824,0.4116,-0.3993,0.0257,0.8187
-0.16,0.057,-0.097,131.5,-31.8,-51,1023,2018,4,24,21,49,4.829,0.4028,-0.383,0.0164,0.831
-0.223,0.077,0.162,131.6,-39.5,-45.8,1023,2018,4,24,21,49,4.845,0.3937,-0.3657,0.0049,0.8433
-0.345,0.166,0.592,115.1,-35.3,-37.4,1023,2018,4,24,21,49,4.86,0.3853,-0.3496,-0.0063,0.8539
-0.899,-0.079,2.024,34.3,-147.9,-1,1023,2018,4,24,21,49,4.882,0.376,-0.3455,-0.0271,0.8593
-0.258,0.091,0.63,-37.2,1.6,-4.6,1023,2018,4,24,21,49,4.921,0.3732,-0.3488,-0.0338,0.8589
-0.259,-0.373,0.15,-64.5,39,-7.5,1023,2018,4,24,21,49,4.944,0.3734,-0.3555,-0.0272,0.8563
-0.024,-0.153,-0.186,-64.1,33.5,-17.4,1023,2018,4,24,21,49,4.946,0.3743,-0.3628,-0.0159,0.8532
0.093,0.039,-0.224,-53.6,11.6,-14.6,0,2018,4,24,21,49,4.964,0.3735,-0.3702,-0.0076,0.8505
0.097,-0.003,-0.224,-42.1,-7.3,-12.5,0,2018,4,24,21,49,4.987,0.3717,-0.3773,-0.0039,0.8482
0.099,-0.077,-0.278,-32,16.6,-19.9,0,2018,4,24,21,49,5.022,0.3694,-0.3826,0,0.8468
0.156,-0.007,-0.423,-13.6,41.9,-19.1,0,2018,4,24,21,49,5.045,0.3685,-0.384,0.0074,0.8465
0.177,0.051,-0.484,12.2,44.8,-13.2,0,2018,4,24,21,49,5.049,0.3692,-0.381,0.0153,0.8474
0.1,0.038,-0.363,39.3,28,-9.6,0,2018,4,24,21,49,5.07,0.3701,-0.3746,0.0197,0.8498
0.018,0.043,-0.18,57.8,6.5,-9.6,0,2018,4,24,21,49,5.086,0.3698,-0.3662,0.0195,0.8536
-0.051,0.013,-0.002,66.6,4.3,-8.5,0,2018,4,24,21,49,5.122,0.3689,-0.3568,0.0169,0.858
-0.078,-0.019,0.118,67.6,-2.5,-7.1,0,2018,4,24,21,49,5.143,0.3681,-0.3457,0.013,0.8629
-0.312,0.708,1.721,13.2,-35.5,-5,0,2018,4,24,21,49,5.148,0.3679,-0.3396,0.0098,0.8655
-0.189,-0.06,0.719,-39.4,-55.9,14.1,0,2018,4,24,21,49,5.163,0.3662,-0.3452,0.0012,0.8641
-0.3,-0.318,0.322,-79.9,-3.7,5.5,0,2018,4,24,21,49,5.186,0.3659,-0.3565,0.0009,0.8596
-0.16,-0.434,-0.124,-85,44.8,3,0,2018,4,24,21,49,5.224,0.3673,-0.3677,0.0086,0.8542
-0.163,-0.255,-0.275,-87.9,123.1,11.1,0,2018,4,24,21,49,5.249,0.3742,-0.375,0.0267,0.8476
0.087,0.361,-0.187,-74.8,71.6,6.9,0,2018,4,24,21,49,5.253,0.3817,-0.3798,0.0473,0.8412
0.025,-0.112,-0.342,-60.6,-1.2,-12.1,0,2018,4,24,21,49,5.268,0.3825,-0.3879,0.0559,0.8366
0.08,-0.246,-0.395,-46.7,3,-24.8,0,2018,4,24,21,49,5.285,0.379,-0.3956,0.0605,0.8343
0.096,-0.245,-0.335,-34.9,32.1,-33.5,0,2018,4,24,21,49,5.304,0.3755,-0.3999,0.0677,0.8333
0.144,-0.093,-0.323,-21.4,58,-40,0,2018,4,24,21,49,5.327,0.373,-0.4004,0.0791,0.8331
0.207,0.045,-0.441,-1.6,57.3,-42.7,0,2018,4,24,21,49,5.345,0.3709,-0.3977,0.0915,0.8341
0.207,0.108,-0.481,22.4,48.1,-40.9,0,2018,4,24,21,49,5.368,0.3685,-0.392,0.1013,0.8367
0.153,0.076,-0.531,47.1,54.1,-36.1,0,2018,4,24,21,49,5.386,0.3669,-0.3829,0.1088,0.8407
0.096,0.19,-0.477,71.5,64.8,-30,0,2018,4,24,21,49,5.409,0.3674,-0.3694,0.1165,0.8455
0.048,0.229,-0.441,98,46.2,-24.4,0,2018,4,24,21,49,5.446,0.3687,-0.3526,0.121,0.8514
-0.067,0.18,-0.226,119.4,31.8,-18.8,0,2018,4,24,21,49,5.446,0.3701,-0.3332,0.121,0.8586
-0.15,0.191,-0.024,121.3,26.5,-10.4,0,2018,4,24,21,49,5.469,0.3721,-0.3121,0.1185,0.866
-0.624,0.221,1.164,-29.3,13.4,21.9,0,2018,4,24,21,49,5.487,0.3704,-0.298,0.1015,0.8738
-0.223,-0.483,0.564,-74.9,68.1,18.3,0,2018,4,24,21,49,5.504,0.3746,-0.3041,0.1106,0.8688
-0.172,-0.38,-0.024,-87.1,101.7,19.2,0,2018,4,24,21,49,5.527,0.3804,-0.3113,0.1283,0.8613
-0.022,-0.522,-0.298,-81.6,140.3,15.4,1023,2018,4,24,21,49,5.545,0.3877,-0.3162,0.1511,0.8525
-0.022,-0.276,-0.023,-85.2,153.1,-3,1023,2018,4,24,21,49,5.568,0.3947,-0.3183,0.1789,0.8431
-0.007,-0.321,0.13,-94.4,121.2,-29.8,1023,2018,4,24,21,49,5.605,0.3968,-0.3214,0.2061,0.8346
0.049,-0.426,-0.037,-100.9,111,-52.5,1023,2018,4,24,21,49,5.628,0.3932,-0.3263,0.2315,0.8278
0.143,-0.445,-0.281,-100.5,149.1,-67.2,1023,2018,4,24,21,49,5.633,0.3874,-0.3295,0.2604,0.8206
0.203,-0.282,-0.415,-90.7,195,-74,1023,2018,4,24,21,49,5.65,0.3826,-0.3281,0.2956,0.8114
0.217,-0.221,-0.482,-73.1,234.2,-76.4,1023,2018,4,24,21,49,5.668,0.3798,-0.321,0.3359,0.7998
0.207,-0.155,-0.522,-54.7,253.4,-79.2,1023,2018,4,24,21,49,5.691,0.3786,-0.3086,0.3784,0.7862
0.17,-0.115,-0.509,-37.6,254.4,-83.6,1023,2018,4,24,21,49,5.709,0.3777,-0.2923,0.4203,0.7714
0.117,-0.079,-0.529,-23.1,245.9,-89.3,1023,2018,4,24,21,49,5.732,0.3762,-0.2731,0.46,0.7563
0.068,-0.043,-0.567,-5.6,223.5,-96.6,0,2018,4,24,21,49,5.769,0.3737,-0.2518,0.496,0.7422
-0.009,-0.007,-0.534,13.8,188.1,-105,0,2018,4,24,21,49,5.792,0.3697,-0.2288,0.5264,0.7305
-0.123,-0.049,-0.441,31.8,149.2,-114.7,0,2018,4,24,21,49,5.797,0.3643,-0.2048,0.5502,0.7228
-0.189,-0.018,-0.366,48.3,125.2,-121.3,0,2018,4,24,21,49,5.81,0.358,-0.1794,0.5688,0.7183
-0.224,-0.026,-0.39,61.8,98.5,-125.1,0,2018,4,24,21,49,5.828,0.3514,-0.1531,0.5828,0.7164
-0.239,-0.076,-0.402,75.3,95.2,-124.8,0,2018,4,24,21,49,5.851,0.3451,-0.1258,0.5936,0.7159
-0.291,0.084,-0.351,84.6,77.6,-126.9,0,2018,4,24,21,49,5.87,0.3395,-0.0974,0.6022,0.7158
-0.49,0.381,0.113,82.2,38.2,-126.6,0,2018,4,24,21,49,5.894,0.3335,-0.0697,0.6067,0.7181
-0.58,0.324,1.039,-34.3,110.2,-80.5,0,2018,4,24,21,49,5.911,0.3229,-0.0519,0.6106,0.7211
-0.288,0.016,0.009,-22.4,230.9,-79.2,0,2018,4,24,21,49,5.934,0.3101,-0.035,0.6364,0.7053
-0.123,0.189,-0.239,-20.5,184.6,-77.2,0,2018,4,24,21,49,5.952,0.2989,-0.0178,0.6635,0.6855
-0.117,0.186,-0.133,-4.9,149.9,-61.3,0,2018,4,24,21,49,5.974,0.2896,-0.0026,0.6843,0.6691
-0.121,0.358,0.009,-0.3,11.8,-54.5,0,2018,4,24,21,49,5.991,0.2829,0.0083,0.6938,0.6621
0.01,0.138,-0.094,8.2,-70.7,-50.9,0,2018,4,24,21,49,6.009,0.2763,0.0137,0.6895,0.6693
-0.074,0.29,0.073,18.7,-118.1,-45.1,0,2018,4,24,21,49,6.032,0.2721,0.0171,0.6776,0.6829
-0.113,0.554,0.234,19.8,-191.1,-39.8,0,2018,4,24,21,49,6.048,0.2698,0.0174,0.6577,0.703
-0.151,0.542,0.321,6.2,-256.5,-19.2,0,2018,4,24,21,49,6.071,0.2681,0.0119,0.6286,0.7299
-0.115,0.547,0.238,-14.6,-308.2,9.7,0,2018,4,24,21,49,6.11,0.2674,-0.0017,0.5916,0.7605
-0.111,0.289,0.114,-37.6,-314.3,33.8,0,2018,4,24,21,49,6.13,0.2672,-0.0223,0.5497,0.791
-0.155,0.317,0.029,-54.4,-249.9,54.2,0,2018,4,24,21,49,6.136,0.2675,-0.0461,0.5118,0.815
-0.051,0.345,0.051,-75.6,-203.9,75.5,0,2018,4,24,21,49,6.153,0.2691,-0.0717,0.4827,0.8302
0.015,0.148,0.001,-93.1,-166.3,86,0,2018,4,24,21,49,6.175,0.2711,-0.0994,0.4585,0.8404
0.106,0.107,-0.028,-105.8,-107.9,90.2,0,2018,4,24,21,49,6.21,0.2735,-0.1278,0.4423,0.8445
0.182,0.104,-0.083,-108.4,-63.1,89.4,0,2018,4,24,21,49,6.21,0.2765,-0.1547,0.4333,0.8436
0.213,0.092,-0.245,-100.5,-33.6,84.9,0,2018,4,24,21,49,6.232,0.2801,-0.179,0.429,0.8398
0.236,0.134,-0.268,-86.6,-13.4,78.1,0,2018,4,24,21,49,6.269,0.2842,-0.1998,0.4277,0.8344
0.198,0.139,-0.296,-70.3,-1.9,73.6,0,2018,4,24,21,49,6.292,0.2891,-0.2172,0.4278,0.8283
0.172,-0.103,-0.461,-50,12.1,72.2,0,2018,4,24,21,49,6.296,0.2952,-0.2311,0.4287,0.8219
0.181,-0.221,-0.53,-24.2,37.2,67.3,0,2018,4,24,21,49,6.312,0.3035,-0.2403,0.4314,0.8148
0.113,-0.225,-0.523,3.5,46.8,58.8,1023,2018,4,24,21,49,6.335,0.3136,-0.244,0.4355,0.8077
0.024,-0.194,-0.467,29.6,30.2,47.9,1023,2018,4,24,21,49,6.353,0.3241,-0.2435,0.4379,0.8023
-0.095,-0.19,-0.328,50.6,2.1,35.1,1023,2018,4,24,21,49,6.375,0.3336,-0.24,0.4359,0.8006
-0.201,-0.231,-0.262,62.6,-9,24.7,1023,2018,4,24,21,49,6.412,0.3419,-0.2346,0.4305,0.8016
-0.256,-0.269,-0.221,70.8,-0.8,18.4,1023,2018,4,24,21,49,6.435,0.3499,-0.2278,0.4246,0.8032
-0.287,-0.169,-0.232,78,12.4,15.2,1023,2018,4,24,21,49,6.44,0.3581,-0.2182,0.4201,0.8047
-0.304,0.009,-0.209,83.7,-3.4,12.6,1023,2018,4,24,21,49,6.458,0.3661,-0.2072,0.4156,0.8063
-0.189,0.196,-0.021,85.4,-87.8,-13.2,1023,2018,4,24,21,49,6.472,0.3718,-0.1976,0.4046,0.8117
-0.675,-0.3,0.79,34.5,-111.9,5.3,1023,2018,4,24,21,49,6.511,0.3703,-0.1958,0.3838,0.8228
-0.379,-0.023,0.653,-9,1.3,17.4,0,2018,4,24,21,49,6.511,0.372,-0.1976,0.3769,0.8249
-0.171,-0.21,0.142,-30.5,10.2,20.9,0,2018,4,24,21,49,6.534,0.3732,-0.2019,0.3786,0.8225
-0.129,0.076,-0.089,-24.2,-3,33.3,0,2018,4,24,21,49,6.57,0.3756,-0.2071,0.3805,0.8192
-0.051,0.043,-0.204,-10.1,-65,32.8,0,2018,4,24,21,49,6.591,0.378,-0.214,0.3754,0.8187
0.026,-0.096,-0.177,1.8,-88.6,29.2,0,2018,4,24,21,49,6.595,0.379,-0.2224,0.3629,0.8216
-0.009,-0.105,-0.076,1.6,-68.1,33.1,0,2018,4,24,21,49,6.628,0.3806,-0.2302,0.3499,0.8244
0.015,-0.02,0.046,-1.2,-30.4,36.9,0,2018,4,24,21,49,6.651,0.384,-0.2358,0.3413,0.8248
0.007,0.046,0.23,-7.5,-21.2,38.3,0,2018,4,24,21,49,6.657,0.3884,-0.2397,0.336,0.8238
0.039,0.158,0.383,-16.8,-45,38.7,0,2018,4,24,21,49,6.694,0.3919,-0.2458,0.3307,0.8224
0.152,0.019,0.335,-26.3,-61,39.7,0,2018,4,24,21,49,6.694,0.3939,-0.2546,0.3219,0.8223
0.27,-0.11,0.236,-35.6,-41.1,38.4,0,2018,4,24,21,49,6.718,0.3956,-0.2649,0.3145,0.8211
0.376,-0.046,0.242,-45.8,-13.1,31.2,0,2018,4,24,21,49,6.733,0.3972,-0.2744,0.3121,0.8181
0.355,0.024,0.243,-55.8,-8,18,0,2018,4,24,21,49,6.757,0.3977,-0.2843,0.313,0.8142
0.311,-0.035,0.215,-65.7,-2.5,2.9,0,2018,4,24,21,49,6.775,0.3958,-0.2946,0.3153,0.8105
0.278,-0.008,0.049,-71.1,2.2,-12.1,0,2018,4,24,21,49,6.798,0.3916,-0.3049,0.3202,0.8068
0.241,-0.026,-0.071,-70.2,4.5,-24.7,0,2018,4,24,21,49,6.816,0.3851,-0.3137,0.3265,0.804
0.187,-0.015,-0.228,-61.2,13.8,-31.7,0,2018,4,24,21,49,6.839,0.3777,-0.3207,0.3338,0.8018
0.131,-0.009,-0.37,-45.5,22.6,-31.9,0,2018,4,24,21,49,6.856,0.3712,-0.325,0.3419,0.7997
0.066,0.03,-0.485,-23.6,16.6,-30.9,0,2018,4,24,21,49,6.88,0.3659,-0.3266,0.3488,0.7985
-0.017,0.088,-0.51,1.8,1.7,-25.7,0,2018,4,24,21,49,6.895,0.3618,-0.3257,0.3524,0.7991
-0.111,0.061,-0.469,25.3,-15.1,-20.1,0,2018,4,24,21,49,6.912,0.3591,-0.3228,0.3517,0.8019
-0.202,0.076,-0.394,45.8,-28.5,-11.4,0,2018,4,24,21,49,6.937,0.3578,-0.318,0.3472,0.8063
-0.266,0.071,-0.366,61.6,-36.5,-1.1,0,2018,4,24,21,49,6.974,0.3584,-0.3121,0.3394,0.8117
-0.291,0.145,-0.34,76,-48.3,10,0,2018,4,24,21,49,6.994,0.3609,-0.3051,0.3289,0.8175
-0.403,0.302,-0.251,89.3,-90.5,13.6,0,2018,4,24,21,49,6.999,0.3643,-0.2978,0.3138,0.8246
-0.455,-0.143,0.205,67.1,-120.8,23.7,0,2018,4,24,21,49,7.017,0.3642,-0.2948,0.2898,0.8345
-0.448,0.266,0.629,30.9,-53.9,41.3,0,2018,4,24,21,49,7.04,0.3677,-0.2943,0.2736,0.8385
-0.292,-0.077,0.48,2.9,-57.6,50,0,2018,4,24,21,49,7.056,0.372,-0.2978,0.2618,0.8392
-0.165,0.122,0.347,-12.8,-37.1,68.4,0,2018,4,24,21,49,7.093,0.3782,-0.3043,0.2526,0.8369
-0.062,0.176,0.249,-17.6,-55,81.3,0,2018,4,24,21,49,7.116,0.3861,-0.3129,0.2429,0.8329
0.143,0.114,0.034,-11.4,-77,83.7,0,2018,4,24,21,49,7.121,0.3937,-0.323,0.2298,0.8292
0.231,-0.186,-0.005,-7.5,-60.1,83.3,1023,2018,4,24,21,49,7.135,0.401,-0.3332,0.2153,0.8256
0.3,-0.204,0.174,-9.1,-9.8,79,1023,2018,4,24,21,49,7.157,0.4105,-0.3396,0.2064,0.8206
0.3,-0.167,0.299,-13.6,16.3,73.8,1023,2018,4,24,21,49,7.194,0.4215,-0.3436,0.2033,0.8141
0.311,-0.087,0.314,-21.4,18.5,64.7,1023,2018,4,24,21,49,7.215,0.4322,-0.3474,0.2023,0.8071
0.312,-0.101,0.233,-28.3,11,53.6,1023,2018,4,24,21,49,7.218,0.4408,-0.3523,0.2022,0.8003
0.33,-0.099,0.099,-29.7,-8.4,39,1023,2018,4,24,21,49,7.255,0.4464,-0.3585,0.2017,0.7946
0.305,-0.129,0.056,-28.8,-36.2,23.7,1023,2018,4,24,21,49,7.278,0.4483,-0.3654,0.1988,0.7911
0.279,-0.129,0.072,-28.6,-63.6,6.3,1023,2018,4,24,21,49,7.282,0.4461,-0.3738,0.1932,0.7898
0.227,-0.091,0.008,-27.8,-101.9,-12.5,1023,2018,4,24,21,49,7.299,0.4392,-0.3842,0.1841,0.7908
0.164,-0.202,-0.118,-25.9,-128.9,-31.4,1023,2018,4,24,21,49,7.322,0.4271,-0.3963,0.1712,0.7944
0.101,-0.285,-0.23,-23.3,-121.9,-49.2,0,2018,4,24,21,49,7.34,0.4116,-0.408,0.1581,0.7994
0.066,-0.228,-0.234,-19.2,-90.2,-58.9,0,2018,4,24,21,49,7.363,0.3957,-0.417,0.1487,0.8045
0,-0.081,-0.352,-10,-64.1,-61.8,0,2018,4,24,21,49,7.4,0.3813,-0.4226,0.1437,0.8094
-0.069,0.017,-0.437,5.5,-59.5,-61.4,0,2018,4,24,21,49,7.4,0.3679,-0.4254,0.1398,0.8148
-0.117,-0.003,-0.502,25.3,-44.8,-55.7,0,2018,4,24,21,49,7.423,0.3559,-0.4251,0.1355,0.821
-0.148,-0.003,-0.575,46.1,-24.1,-47.5,0,2018,4,24,21,49,7.44,0.3468,-0.4208,0.1323,0.8276
-0.256,0.017,-0.486,65.8,-2.3,-39,0,2018,4,24,21,49,7.458,0.341,-0.4122,0.1302,0.8347
-0.332,0.157,-0.385,80.8,1.3,-31.8,0,2018,4,24,21,49,7.481,0.3377,-0.4005,0.1287,0.8419
-0.384,0.178,-0.339,96.2,-15.5,-23.1,0,2018,4,24,21,49,7.499,0.3351,-0.3872,0.1243,0.8498
-0.438,0.201,-0.172,105.5,-26.4,-13.1,0,2018,4,24,21,49,7.523,0.3332,-0.3728,0.1163,0.8581
-0.468,0.287,0.112,101.5,-41.7,-0.5,0,2018,4,24,21,49,7.541,0.332,-0.3589,0.1055,0.8658
-0.543,0.712,1.372,65.8,-88.1,27.8,0,2018,4,24,21,49,7.565,0.3315,-0.3489,0.0909,0.8718
-0.438,-0.1,1.097,-14.2,-69.2,24.3,0,2018,4,24,21,49,7.582,0.3316,-0.3519,0.0723,0.8722
-0.177,0.424,0.141,-48.1,-70.4,52.4,0,2018,4,24,21,49,7.604,0.3326,-0.3625,0.0615,0.8684
-0.172,0.063,0.237,-64.5,-59.7,53.1,0,2018,4,24,21,49,7.62,0.3355,-0.3757,0.0512,0.8623
-0.143,0.04,0.141,-70.9,-53.1,69.1,0,2018,4,24,21,49,7.638,0.3407,-0.3898,0.0426,0.8544
-0.11,-0.517,-0.034,-73.9,-19.5,61.3,0,2018,4,24,21,49,7.659,0.3472,-0.4036,0.036,0.8456
0.034,-0.281,-0.32,-76.3,41.5,65.4,0,2018,4,24,21,49,7.698,0.3568,-0.4144,0.0382,0.8363
0.212,-0.05,-0.308,-60,46.3,53.6,0,2018,4,24,21,49,7.722,0.3685,-0.4215,0.0458,0.8272
0.263,0.086,-0.213,-41.7,-0.8,48.8,0,2018,4,24,21,49,7.725,0.3772,-0.4275,0.0482,0.82
0.175,-0.23,-0.091,-35.5,-29.2,29.3,0,2018,4,24,21,49,7.744,0.3811,-0.4345,0.0451,0.8147
0.177,-0.293,-0.221,-29.3,-21.2,17.2,0,2018,4,24,21,49,7.762,0.382,-0.4411,0.0419,0.811
0.235,-0.228,-0.332,-15.2,-19.4,8.6,0,2018,4,24,21,49,7.785,0.3821,-0.4456,0.0396,0.8085
0.235,-0.209,-0.454,2,-8.8,-3.4,0,2018,4,24,21,49,7.803,0.3813,-0.4475,0.0378,0.8079
0.227,-0.091,-0.474,24.7,-4.8,-14,0,2018,4,24,21,49,7.827,0.3795,-0.4459,0.0368,0.8097
0.148,-0.056,-0.484,47.1,0,-21.2,0,2018,4,24,21,49,7.84,0.377,-0.4408,0.0354,0.8137
0.084,-0.041,-0.467,70.7,0.4,-26.8,0,2018,4,24,21,49,7.86,0.374,-0.4321,0.0336,0.8198
0.003,-0.057,-0.408,93.3,2.2,-30.8,0,2018,4,24,21,49,7.883,0.3703,-0.4199,0.0305,0.8279
-0.096,0.014,-0.248,110.2,2,-31.7,0,2018,4,24,21,49,7.901,0.3664,-0.4047,0.0265,0.8373
-0.189,0.03,-0.104,119.3,-1.4,-31.3,0,2018,4,24,21,49,7.923,0.3622,-0.3877,0.021,0.8472
-0.276,-0.007,0.103,118.8,6.4,-29.6,0,2018,4,24,21,49,7.961,0.3583,-0.3693,0.0156,0.8572
-0.678,0.214,0.824,98.3,-13.8,-30.6,1023,2018,4,24,21,49,7.984,0.3553,-0.3522,0.0118,0.8657
-0.46,-0.152,1.693,18.2,-17.5,-1.6,1023,2018,4,24,21,49,7.989,0.3498,-0.3477,-0.0023,0.8698
-0.493,-0.374,0.354,-42.1,93.3,3.2,1023,2018,4,24,21,49,8.004,0.3536,-0.3474,0.0059,0.8684
-0.428,-0.695,0.074,-72.6,225.4,2.7,1023,2018,4,24,21,49,8.023,0.3637,-0.3462,0.0342,0.864
-0.205,-0.15,-0.065,-83.4,246.6,0.6,1023,2018,4,24,21,49,8.046,0.378,-0.3421,0.0765,0.8568
-0.104,0.092,0.036,-83.2,184.6,0.5,1023,2018,4,24,21,49,8.067,0.3897,-0.3393,0.1144,0.8483
-0.011,0.243,0.088,-83.7,80.1,-9.6,1023,2018,4,24,21,49,8.084,0.3951,-0.3426,0.1398,0.8407
0.043,0.056,0.031,-83.3,-13,-28.4,1023,2018,4,24,21,49,8.102,0.3917,-0.3524,0.1508,0.8363
0.159,0.006,-0.041,-77.7,-66.8,-49.1,1023,2018,4,24,21,49,8.125,0.3809,-0.3668,0.1527,0.8348
0.234,0.193,-0.042,-67.7,-107.5,-57.2,1023,2018,4,24,21,49,8.161,0.365,-0.382,0.148,0.8359
0.343,0.369,-0.189,-53.7,-126.6,-49.2,0,2018,4,24,21,49,8.184,0.3476,-0.3968,0.1384,0.8381
0.379,0.42,-0.37,-33,-154.3,-32,0,2018,4,24,21,49,8.189,0.3306,-0.4106,0.1229,0.8407
0.288,0.346,-0.32,-14.5,-135.8,-9,0,2018,4,24,21,49,8.205,0.3162,-0.422,0.1037,0.8432
0.182,0.314,-0.192,-4.1,-73.3,25,0,2018,4,24,21,49,8.242,0.3094,-0.4291,0.0881,0.8439
0.083,0.176,-0.221,0.7,7.1,60.6,0,2018,4,24,21,49,8.266,0.3135,-0.4316,0.08,0.8419
-0.009,0.087,-0.216,2.4,97.3,89.9,0,2018,4,24,21,49,8.269,0.3289,-0.4293,0.0822,0.837
0,0.027,-0.137,4,187.8,112.5,0,2018,4,24,21,49,8.287,0.3545,-0.4221,0.0958,0.8288
0.005,0.09,-0.075,8.2,234.5,122.3,0,2018,4,24,21,49,8.305,0.387,-0.4098,0.1177,0.8174
-0.067,0.248,0.135,4.6,229.8,123.5,0,2018,4,24,21,49,8.342,0.4216,-0.3946,0.1424,0.8038
-0.057,0.451,0.119,12.6,130.5,107.2,0,2018,4,24,21,49,8.364,0.4505,-0.3826,0.1598,0.7905
-0.051,0.31,-0.022,27.7,-15.9,87.8,0,2018,4,24,21,49,8.369,0.4679,-0.3782,0.1588,0.7827
-0.163,-0.031,0.081,26.8,-118,58.2,0,2018,4,24,21,49,8.385,0.4739,-0.3822,0.1418,0.7804
-0.156,-0.341,0.074,16.6,-191,16.1,0,2018,4,24,21,49,8.407,0.4687,-0.3931,0.116,0.7824
-0.093,-0.395,-0.044,5.9,-230.9,-23.9,0,2018,4,24,21,49,8.443,0.4528,-0.409,0.0858,0.7875
0.051,-0.303,-0.179,2.5,-213,-45.6,0,2018,4,24,21,49,8.467,0.4313,-0.4255,0.0571,0.7934
0.112,-0.309,-0.248,6.2,-162,-47.1,0,2018,4,24,21,49,8.472,0.4105,-0.4384,0.0343,0.7987
0.045,-0.336,-0.2,16,-108.3,-39.9,0,2018,4,24,21,49,8.49,0.3941,-0.446,0.0181,0.8033
-0.001,-0.563,-0.144,20.1,-28,-33.3,0,2018,4,24,21,49,8.507,0.3835,-0.4482,0.0096,0.8074
-0.065,-0.499,-0.019,11.5,106,-24.1,0,2018,4,24,21,49,8.53,0.3827,-0.443,0.0168,0.8105
-0.03,-0.148,0.179,-0.8,193.3,-17.2,0,2018,4,24,21,49,8.548,0.3921,-0.4314,0.0409,0.8113
0.097,0.575,0.09,-2.5,124.9,-14.8,0,2018,4,24,21,49,8.565,0.4019,-0.4204,0.0653,0.8108
0.168,0.726,-0.01,9.2,19,-3.9,0,2018,4,24,21,49,8.587,0.4058,-0.4148,0.076,0.8108
-0.019,0.282,0.12,12.8,-55.7,1.3,0,2018,4,24,21,49,8.605,0.404,-0.4149,0.0712,0.812
-0.042,-0.013,0.122,4.2,-66.4,-2.1,0,2018,4,24,21,49,8.627,0.3995,-0.4179,0.0615,0.8135
-0.069,-0.125,0.073,-5.4,-57.1,-9.9,0,2018,4,24,21,49,8.646,0.3941,-0.422,0.0526,0.8147
-0.064,-0.089,-0.073,-10.4,-32.4,-17.1,0,2018,4,24,21,49,8.67,0.3889,-0.4262,0.0477,0.8153
0.024,0.004,-0.239,-3.1,-33.3,-19.6,0,2018,4,24,21,49,8.706,0.3838,-0.4298,0.0451,0.816
0.051,-0.039,-0.305,13.1,-52.1,-21.9,0,2018,4,24,21,49,8.728,0.3777,-0.4317,0.0402,0.818
0.038,-0.136,-0.288,29.6,-59.5,-26.7,0,2018,4,24,21,49,8.733,0.37,-0.4322,0.0323,0.8217
0.039,-0.176,-0.33,41.9,-35.9,-29.9,1023,2018,4,24,21,49,8.746,0.3623,-0.43,0.025,0.8265
0.038,-0.101,-0.361,54.1,2.3,-29.7,1023,2018,4,24,21,49,8.764,0.3569,-0.4238,0.022,0.832
0.007,-0.044,-0.307,68.7,23.8,-30,1023,2018,4,24,21,49,8.788,0.3539,-0.4138,0.0225,0.8384
-0.068,0.052,-0.17,81,19.9,-31.5,1023,2018,4,24,21,49,8.806,0.3514,-0.4014,0.0238,0.8454
-0.146,0.064,0.079,86.2,5,-30,1023,2018,4,24,21,49,8.829,0.3479,-0.3877,0.0227,0.8532
-0.195,0.084,0.325,79.7,-11.2,-24.1,1023,2018,4,24,21,49,8.865,0.3439,-0.3754,0.0189,0.8604
-0.181,-0.016,0.309,63.5,-13.8,-19.4,1023,2018,4,24,21,49,8.889,0.34,-0.3653,0.0138,0.8664
0.157,0.826,0.791,42.2,-111.6,-9,1023,2018,4,24,21,49,8.893,0.3338,-0.3608,0.0037,0.8708
-0.23,0.026,1.05,-26.7,-15.1,3.5,1023,2018,4,24,21,49,8.911,0.3301,-0.364,-0.0084,0.8708
-0.151,-0.19,0.175,-46.3,9.1,3.9,1023,2018,4,24,21,49,8.929,0.3314,-0.3697,-0.0051,0.868
-0.233,-0.072,-0.048,-60.7,81.4,18.9,0,2018,4,24,21,49,8.952,0.3363,-0.3754,0.0041,0.8636
-0.105,-0.025,0.085,-72.7,116.2,20.4,0,2018,4,24,21,49,8.986,0.3464,-0.3786,0.0222,0.8579
0.031,0.274,-0.093,-63.1,40.3,16.1,0,2018,4,24,21,49,9.009,0.3539,-0.3839,0.0374,0.8519
0.107,0.022,-0.326,-43.6,-43.6,7.8,0,2018,4,24,21,49,9.012,0.3549,-0.3923,0.0388,0.8476
0.074,-0.282,-0.388,-28.1,-39.9,2.8,0,2018,4,24,21,49,9.029,0.3519,-0.4005,0.0334,0.8453
0.089,-0.21,-0.369,-11.9,-6.8,-0.7,0,2018,4,24,21,49,9.066,0.3505,-0.4048,0.0315,0.8439
0.115,-0.008,-0.383,8.5,-5.1,-3.2,0,2018,4,24,21,49,9.089,0.3499,-0.4052,0.0311,0.844
0.11,0.025,-0.424,29,-11.7,-5.3,0,2018,4,24,21,49,9.091,0.3487,-0.4029,0.029,0.8456
0.09,0.013,-0.407,49.7,-15.9,-7.3,0,2018,4,24,21,49,9.127,0.347,-0.3978,0.0248,0.8489
0.046,-0.048,-0.361,68.8,-13.9,-10.2,0,2018,4,24,21,49,9.151,0.3448,-0.3898,0.0195,0.8536
-0.026,0.007,-0.212,82.8,-10.8,-10.7,0,2018,4,24,21,49,9.156,0.3427,-0.379,0.014,0.8594
-0.087,0.029,-0.016,91.2,-18.6,-9.1,0,2018,4,24,21,49,9.173,0.3402,-0.3671,0.0073,0.8656
-0.173,0.149,0.374,84.9,-15.7,-3.2,0,2018,4,24,21,49,9.21,0.3384,-0.354,0,0.8718
-0.925,-0.119,1.727,36.2,-146.8,4.7,0,2018,4,24,21,49,9.231,0.3341,-0.3496,-0.0169,0.875
-0.281,0.004,0.572,-26.6,-8,19.5,0,2018,4,24,21,49,9.235,0.333,-0.3526,-0.0264,0.874
-0.045,-0.58,0.277,-59.4,73.1,8,0,2018,4,24,21,49,9.251,0.3361,-0.3577,-0.0204,0.8709
-0.056,-0.095,0.182,-72,95.4,11.3,0,2018,4,24,21,49,9.271,0.3441,-0.3622,-0.0023,0.8662
-0.152,0.064,0.171,-84.5,72.7,13.6,0,2018,4,24,21,49,9.309,0.3508,-0.3689,0.0136,0.8605
-0.117,-0.068,0.106,-96.3,68.5,0,0,2018,4,24,21,49,9.331,0.3571,-0.3782,0.0304,0.8535
0.085,0.059,-0.164,-90.8,29.8,-7.5,0,2018,4,24,21,49,9.336,0.3587,-0.3895,0.0436,0.8471
0.143,0.019,-0.414,-77,11.3,-13,0,2018,4,24,21,49,9.352,0.3578,-0.4006,0.0524,0.8418
0.174,-0.061,-0.476,-57.2,10.1,-16.1,0,2018,4,24,21,49,9.39,0.3556,-0.4097,0.059,0.8379
0.135,0.087,-0.345,-39.4,11.3,-16.2,0,2018,4,24,21,49,9.413,0.3536,-0.4157,0.0649,0.8353
0.126,0.113,-0.286,-24.8,3.2,-17.4,0,2018,4,24,21,49,9.418,0.3513,-0.4198,0.069,0.834
0.135,0.123,-0.395,-6.9,-4,-14,0,2018,4,24,21,49,9.432,0.3488,-0.4219,0.0711,0.8338
0.115,0.05,-0.45,15.7,-13.9,-10.8,0,2018,4,24,21,49,9.45,0.3464,-0.4216,0.0703,0.835
0.095,0.047,-0.395,39.1,-23.7,-11.1,0,2018,4,24,21,49,9.469,0.3437,-0.4185,0.0666,0.8379
0.059,0.041,-0.372,58.7,-20.3,-5,0,2018,4,24,21,49,9.492,0.3413,-0.4125,0.0608,0.8423
0.014,0.003,-0.34,75.2,-5.5,-3,0,2018,4,24,21,49,9.512,0.3406,-0.4033,0.0551,0.8475
-0.043,0.027,-0.279,91.3,-6.8,-4.6,1023,2018,4,24,21,49,9.549,0.3405,-0.391,0.0498,0.8535
-0.101,0.004,-0.151,105.2,-19.1,-4.4,1023,2018,4,24,21,49,9.572,0.3396,-0.3776,0.0422,0.8603
-0.135,-0.017,0.061,109.1,-24.3,-4.5,1023,2018,4,24,21,49,9.576,0.3384,-0.3621,0.0321,0.8679
-0.265,0.368,0.682,91.3,-38.4,-0.6,1023,2018,4,24,21,49,9.595,0.3368,-0.3478,0.0222,0.8746
-0.796,-0.618,1.75,29.9,-161.8,10.3,1023,2018,4,24,21,49,9.614,0.3309,-0.3465,-0.003,0.8777
-0.182,-0.214,0.376,-34.7,23.2,9.5,1023,2018,4,24,21,49,9.657,0.3304,-0.35,-0.0094,0.8764
-0.022,-0.144,0.157,-55.8,77.7,20.8,1023,2018,4,24,21,49,9.659,0.3359,-0.3542,0.001,0.8727
-0.159,0.22,0.194,-62.1,34.6,29.1,1023,2018,4,24,21,49,9.694,0.3436,-0.3595,0.0123,0.8674
-0.23,0,0.146,-71.1,23,33,1023,2018,4,24,21,49,9.715,0.3499,-0.368,0.0179,0.8612
-0.137,-0.387,-0.015,-82.5,49,20.7,1023,2018,4,24,21,49,9.717,0.356,-0.3779,0.026,0.8542
0.049,0.129,-0.192,-71.2,28.3,17.5,0,2018,4,24,21,49,9.733,0.3612,-0.3868,0.0365,0.8476
0.074,-0.129,-0.285,-58,-9.8,11,0,2018,4,24,21,49,9.77,0.3632,-0.396,0.0403,0.8423
0.041,-0.33,-0.198,-49.2,-3.5,-3.6,0,2018,4,24,21,49,9.791,0.3628,-0.4044,0.042,0.8384
0.063,-0.287,-0.164,-44.2,13.2,-15.7,0,2018,4,24,21,49,9.793,0.3612,-0.4108,0.0465,0.8357
0.097,-0.238,-0.198,-36.2,29.9,-26.1,0,2018,4,24,21,49,9.83,0.3595,-0.415,0.0539,0.834
0.123,-0.167,-0.288,-25.2,27.9,-37,0,2018,4,24,21,49,9.852,0.3567,-0.4172,0.0625,0.8334
0.139,-0.107,-0.328,-11.2,25.4,-45.7,0,2018,4,24,21,49,9.856,0.3523,-0.4177,0.0705,0.8344
0.129,-0.077,-0.343,2.7,28.9,-51.8,0,2018,4,24,21,49,9.893,0.3471,-0.416,0.0782,0.8368
0.109,-0.046,-0.397,18,46.2,-53.1,0,2018,4,24,21,49,9.915,0.3421,-0.4115,0.0867,0.8402
0.07,0.058,-0.401,35.4,68.8,-51.3,0,2018,4,24,21,49,9.92,0.3392,-0.4031,0.0978,0.8442
0.085,0.169,-0.465,59.6,58.4,-47.1,0,2018,4,24,21,49,9.934,0.3373,-0.3913,0.108,0.8493
0.028,0.197,-0.478,85.8,43.3,-39.9,0,2018,4,24,21,49,9.952,0.3356,-0.3766,0.114,0.8558
-0.021,0.175,-0.453,109.1,42.7,-31.9,0,2018,4,24,21,49,9.976,0.3348,-0.3587,0.1168,0.8634
-0.109,-0.02,-0.348,126.5,79,-24.4,0,2018,4,24,21,49,9.995,0.3365,-0.3367,0.1202,0.8711
-0.365,0.093,0.42,121.5,123.7,-19.4,0,2018,4,24,21,49,10.014,0.3425,-0.3099,0.1309,0.8771
-0.218,0.428,2.421,23.2,-21.6,-18.5,0,2018,4,24,21,49,10.053,0.3429,-0.2975,0.1306,0.8813
-0.287,0.309,0.504,-29.9,-9.4,16.2,0,2018,4,24,21,49,10.075,0.3423,-0.2998,0.128,0.8811
-0.185,-0.159,0.356,-60.5,73,20.3,0,2018,4,24,21,49,10.079,0.3463,-0.3051,0.1357,0.8766
-0.035,0.013,0.003,-64.5,53.7,22.8,0,2018,4,24,21,49,10.096,0.3517,-0.3109,0.149,0.8702
-0.105,-0.413,-0.218,-61.5,33.3,15.6,0,2018,4,24,21,49,10.118,0.3552,-0.3188,0.1571,0.8645
-0.014,-0.261,-0.019,-66.2,49.6,-2.8,0,2018,4,24,21,49,10.139,0.3567,-0.3257,0.1675,0.8593
0.021,-0.09,0.062,-72.3,27.1,-17.1,0,2018,4,24,21,49,10.156,0.3556,-0.3334,0.1777,0.8548
0.089,-0.172,-0.113,-74.1,27.9,-31,0,2018,4,24,21,49,10.193,0.3511,-0.3422,0.1871,0.8511
0.167,-0.13,-0.31,-66.1,50.4,-37.5,0,2018,4,24,21,49,10.193,0.3459,-0.3491,0.1994,0.8477
0.212,-0.068,-0.456,-48.7,72.2,-37,0,2018,4,24,21,49,10.217,0.3421,-0.3525,0.2144,0.8441
0.214,0.037,-0.49,-24.4,74,-35.3,0,2018,4,24,21,49,10.255,0.34,-0.352,0.2299,0.8411
0.154,0.105,-0.514,1.5,55.9,-34.1,0,2018,4,24,21,49,10.279,0.3384,-0.3483,0.2421,0.8398
0.153,0.143,-0.567,29.4,46.2,-31,0,2018,4,24,21,49,10.282,0.3373,-0.3416,0.2506,0.8405
0.104,0.17,-0.605,61.1,29.1,-26.6,0,2018,4,24,21,49,10.3,0.3374,-0.3313,0.2553,0.8432
0.032,0.208,-0.567,94.4,-4.4,-21.6,0,2018,4,24,21,49,10.32,0.338,-0.3179,0.2538,0.8486
-0.083,0.16,-0.421,123.2,-27.5,-13.7,0,2018,4,24,21,49,10.338,0.3392,-0.3017,0.2454,0.8564
-0.134,0.072,-0.241,141.8,-36.4,-7.7,1023,2018,4,24,21,49,10.361,0.3415,-0.2831,0.233,0.8653
-0.733,0.032,0.766,135.4,-90.6,-26.3,1023,2018,4,24,21,49,10.377,0.3436,-0.2637,0.218,0.8745
-0.422,-0.28,2.208,27.7,-21.4,-5,1023,2018,4,24,21,49,10.395,0.3413,-0.2589,0.2018,0.8807
-0.376,0.081,0.742,-44.1,9,10.1,1023,2018,4,24,21,49,10.418,0.3415,-0.2617,0.2031,0.8795
-0.154,-0.313,0.09,-61.7,-4,-9.3,1023,2018,4,24,21,49,10.436,0.3398,-0.2703,0.2064,0.8768
-0.01,-0.191,-0.263,-57.8,25,-2.1,1023,2018,4,24,21,49,10.46,0.3367,-0.2786,0.2121,0.874
-0.061,-0.091,-0.247,-52.2,7.1,0.5,1023,2018,4,24,21,49,10.477,0.3359,-0.2858,0.2182,0.8705
-0.1,0.057,-0.066,-49.5,-22.8,-13.9,1023,2018,4,24,21,49,10.5,0.3326,-0.2937,0.2204,0.8686
-0.018,0.108,-0.132,-48.8,-51.2,-28.1,1023,2018,4,24,21,49,10.521,0.325,-0.3024,0.2187,0.8688
0.11,-0.048,-0.24,-45,-49.1,-32.5,0,2018,4,24,21,49,10.539,0.3158,-0.3116,0.215,0.87
0.294,-0.083,-0.463,-26.4,-25.1,-28,0,2018,4,24,21,49,10.562,0.3075,-0.3179,0.2128,0.8712
0.33,0.098,-0.413,-5.6,32.3,-13,0,2018,4,24,21,49,10.58,0.304,-0.3192,0.2153,0.8713
0.198,0.307,-0.057,4.1,69,2.8,0,2018,4,24,21,49,10.603,0.3066,-0.316,0.2242,0.8693
0.155,0.412,0,8.2,55.4,10.3,0,2018,4,24,21,49,10.622,0.3114,-0.3117,0.2335,0.8667
0.132,0.34,-0.098,18.7,10.8,19.9,0,2018,4,24,21,49,10.644,0.316,-0.3086,0.2369,0.8652
0.087,0.163,-0.207,34.2,-24.9,27.1,0,2018,4,24,21,49,10.662,0.3202,-0.306,0.2327,0.8657
-0.009,0.008,-0.18,49,-42.2,29.1,0,2018,4,24,21,49,10.679,0.3244,-0.3028,0.2236,0.8677
-0.097,-0.016,-0.042,57.7,-51.4,30.3,0,2018,4,24,21,49,10.702,0.3283,-0.2988,0.2121,0.8705
-0.182,-0.073,0.103,56.6,-56.5,28.1,0,2018,4,24,21,49,10.72,0.3321,-0.2936,0.1987,0.874
-0.246,-0.139,0.088,46,-64.4,18.5,0,2018,4,24,21,49,10.743,0.3346,-0.2898,0.1851,0.8773
-0.228,-0.439,0.433,16.4,-34.2,11.3,0,2018,4,24,21,49,10.759,0.3347,-0.2881,0.1741,0.8801
-0.284,-0.165,0.89,-30,61.4,17.8,0,2018,4,24,21,49,10.782,0.3375,-0.289,0.1765,0.8782
-0.17,0.174,0.711,-63.6,44.6,20.5,0,2018,4,24,21,49,10.82,0.342,-0.2935,0.1876,0.8727
-0.061,-0.077,0.349,-81.7,23.2,23.8,0,2018,4,24,21,49,10.84,0.3445,-0.3037,0.1954,0.8664
0.086,-0.254,-0.047,-84.1,33,17.8,0,2018,4,24,21,49,10.845,0.3461,-0.3156,0.2033,0.8597
0.193,-0.256,-0.316,-74.5,53.7,8.8,0,2018,4,24,21,49,10.86,0.3476,-0.3253,0.214,0.8529
0.214,-0.276,-0.174,-65,83.3,0.5,0,2018,4,24,21,49,10.879,0.3496,-0.3316,0.228,0.846
0.165,-0.13,-0.009,-61.7,92.4,-13.5,0,2018,4,24,21,49,10.902,0.3513,-0.335,0.2456,0.839
0.137,-0.187,0.014,-61.4,93.6,-27.7,0,2018,4,24,21,49,10.938,0.3509,-0.3374,0.2639,0.8326
0.177,-0.258,-0.16,-57.5,109.6,-40.1,0,2018,4,24,21,49,10.962,0.3489,-0.3382,0.2842,0.8264
0.227,-0.249,-0.366,-44.3,139.6,-44.9,0,2018,4,24,21,49,10.966,0.3474,-0.3358,0.3078,0.8195
0.207,-0.154,-0.474,-24.2,167.4,-45.1,0,2018,4,24,21,49,10.982,0.3481,-0.3287,0.3345,0.8116
0.127,-0.107,-0.468,-3.1,191.5,-44.5,0,2018,4,24,21,49,11.005,0.3511,-0.3168,0.3632,0.8026
0.058,-0.173,-0.497,15.2,218.7,-43.8,0,2018,4,24,21,49,11.024,0.3565,-0.3004,0.3937,0.7921
0.018,-0.122,-0.544,35.5,242,-46,0,2018,4,24,21,49,11.042,0.3639,-0.279,0.4263,0.7796
-0.093,-0.119,-0.504,55.4,241.4,-49.9,0,2018,4,24,21,49,11.065,0.3724,-0.2535,0.4583,0.7661
-0.175,-0.122,-0.451,74.1,225.6,-62.1,0,2018,4,24,21,49,11.082,0.3802,-0.2248,0.4875,0.753
-0.2,-0.019,-0.362,91.7,176.9,-80.8,0,2018,4,24,21,49,11.099,0.3856,-0.1941,0.5109,0.7433
-0.247,-0.063,-0.267,105.1,116.4,-98.5,0,2018,4,24,21,49,11.122,0.3874,-0.1633,0.5257,0.7394
-0.244,0.006,-0.19,112.9,53.5,-113.1,0,2018,4,24,21,49,11.14,0.386,-0.1335,0.532,0.7416
-0.498,1.408,1.064,90.7,-106.4,-119.9,1023,2018,4,24,21,49,11.163,0.3805,-0.1085,0.5259,0.7528
-0.729,-0.973,0.797,9.4,64.3,-58.3,1023,2018,4,24,21,49,11.181,0.3725,-0.102,0.5167,0.764
-0.039,0.369,-0.093,-33.3,266.5,-46.1,1023,2018,4,24,21,49,11.204,0.3676,-0.0873,0.5475,0.7466
-0.042,-0.427,-0.413,-21.3,222.1,-64.7,1023,2018,4,24,21,49,11.223,0.3609,-0.0701,0.5807,0.7262
0,0.029,-0.323,-4.4,190.6,-66.9,1023,2018,4,24,21,49,11.246,0.3533,-0.0513,0.6087,0.7084
-0.062,0.272,0.015,-6.8,84.8,-61.9,1023,2018,4,24,21,49,11.264,0.3462,-0.0365,0.6262,0.6975
-0.067,0.097,-0.026,-6.2,6.6,-68.3,1023,2018,4,24,21,49,11.287,0.3371,-0.027,0.632,0.6972
-0.102,-0.064,-0.092,-4.1,-27,-78.5,1023,2018,4,24,21,49,11.305,0.3268,-0.0198,0.6311,0.7031
-0.103,-0.008,0.03,-3.4,-11.9,-80.3,1023,2018,4,24,21,49,11.327,0.3159,-0.012,0.6292,0.7099
-0.105,0.058,0.13,-4.4,-5.7,-75.5,0,2018,4,24,21,49,11.344,0.3057,-0.004,0.6288,0.7148
-0.13,0.153,0.156,-8.4,-43,-71.1,0,2018,4,24,21,49,11.363,0.2958,0.0019,0.6264,0.7211
-0.068,0.411,0.173,-9.1,-102.3,-60.2,0,2018,4,24,21,49,11.384,0.2865,0.0043,0.6177,0.7322
-0.075,0.562,0.168,-12.7,-178,-44.3,0,2018,4,24,21,49,11.422,0.2787,0.0014,0.5996,0.7501
-0.061,0.641,0.154,-19.4,-230.8,-26.9,0,2018,4,24,21,49,11.442,0.2722,-0.007,0.5728,0.773
-0.112,0.599,0.117,-30.2,-265.9,-7.7,0,2018,4,24,21,49,11.445,0.2669,-0.0205,0.5396,0.7982
-0.111,0.488,0.068,-48.2,-267.2,16.6,0,2018,4,24,21,49,11.482,0.2626,-0.039,0.5031,0.8223
-0.053,0.512,0.059,-61.6,-245.9,39.2,0,2018,4,24,21,49,11.506,0.2598,-0.0612,0.468,0.8423
-0.105,0.587,0.093,-81.7,-221.9,61.7,0,2018,4,24,21,49,11.509,0.2588,-0.0864,0.4361,0.8574
-0.048,0.566,0.098,-101.6,-197.2,79.4,0,2018,4,24,21,49,11.526,0.2591,-0.115,0.4074,0.868
-0.008,0.51,0.082,-116.4,-167,95.3,0,2018,4,24,21,49,11.549,0.2607,-0.1461,0.3828,0.8741
0.043,0.494,0.041,-122.9,-141.7,109.1,0,2018,4,24,21,49,11.565,0.2643,-0.1781,0.3622,0.8758
0.024,0.366,-0.033,-123.9,-132.6,117.9,0,2018,4,24,21,49,11.583,0.2695,-0.2103,0.3433,0.8747
0.002,0.221,-0.142,-119.6,-124.5,123,0,2018,4,24,21,49,11.606,0.2757,-0.2421,0.3247,0.8716
0.03,0.117,-0.248,-110.9,-118.6,123.7,0,2018,4,24,21,49,11.624,0.2827,-0.2724,0.3063,0.8671
0.008,-0.03,-0.321,-99.1,-105.1,121.6,0,2018,4,24,21,49,11.646,0.2901,-0.3002,0.2885,0.8616
-0.015,-0.132,-0.325,-86.2,-78.3,119.6,0,2018,4,24,21,49,11.682,0.2986,-0.3247,0.2728,0.8549
0.003,-0.178,-0.355,-73.6,-55.3,114.3,0,2018,4,24,21,49,11.705,0.3085,-0.3455,0.2605,0.847
0.001,-0.191,-0.471,-57.3,-47.3,105.1,0,2018,4,24,21,49,11.709,0.3187,-0.3627,0.25,0.8392
0.031,-0.222,-0.586,-37.8,-45.4,92.5,0,2018,4,24,21,49,11.728,0.328,-0.3764,0.2395,0.8326
0.016,-0.234,-0.606,-15.3,-50.4,79.8,0,2018,4,24,21,49,11.751,0.3362,-0.3865,0.2285,0.8278
-0.025,-0.261,-0.588,6.2,-48.9,65.3,0,2018,4,24,21,49,11.765,0.343,-0.3928,0.2165,0.8252
-0.046,-0.25,-0.652,28.6,-37.2,51.6,0,2018,4,24,21,49,11.783,0.349,-0.395,0.2051,0.8246
-0.096,-0.243,-0.702,55,-16.2,39.7,0,2018,4,24,21,49,11.806,0.3552,-0.3921,0.1958,0.8256
-0.148,-0.142,-0.595,85.8,-27.8,28.4,0,2018,4,24,21,49,11.824,0.3611,-0.3842,0.1862,0.8289
-0.215,-0.218,-0.422,113.5,-36.9,21.7,0,2018,4,24,21,49,11.848,0.3655,-0.3725,0.1731,0.8352
-0.259,-0.206,-0.175,129.9,-26.1,19.5,0,2018,4,24,21,49,11.865,0.37,-0.3571,0.1592,0.8427
-0.194,-0.102,0.174,136.2,-29.1,21.4,0,2018,4,24,21,49,11.888,0.3749,-0.3395,0.1455,0.8502
-0.189,0.052,0.69,125.3,-43.3,33.8,0,2018,4,24,21,49,11.907,0.38,-0.3228,0.1297,0.857
-1.649,0.141,2.786,34.7,-195,72.3,1023,2018,4,24,21,49,11.93,0.3853,-0.3193,0.1039,0.8594
-0.264,-0.257,0.441,-43.5,-9.4,35.3,1023,2018,4,24,21,49,11.948,0.3861,-0.3264,0.0912,0.8579
-0.094,-0.517,0.059,-61.9,32.9,14.2,1023,2018,4,24,21,49,11.972,0.3892,-0.3337,0.0959,0.8531
-0.134,-0.398,-0.025,-69.4,55.9,9.5,1023,2018,4,24,21,49,11.986,0.3925,-0.3406,0.1067,0.8475
0.036,-0.169,-0.183,-63.6,29.4,0.4,1023,2018,4,24,21,49,12.004,0.3947,-0.3474,0.1178,0.8423
0.1,-0.136,-0.193,-57.8,-1.1,-14.3,1023,2018,4,24,21,49,12.026,0.3931,-0.3553,0.124,0.8388
0.107,-0.069,-0.187,-54.4,-6.4,-30.3,1023,2018,4,24,21,49,12.062,0.3881,-0.3634,0.1285,0.837
0.1,0.028,-0.193,-49.2,2.9,-39.1,1023,2018,4,24,21,49,12.086,0.3817,-0.3703,0.1341,0.8361
0.068,0.075,-0.301,-38.9,-3.4,-38.4,1023,2018,4,24,21,49,12.091,0.3749,-0.3758,0.1396,0.8358
0.083,0.073,-0.465,-19.8,-11.1,-33.6,0,2018,4,24,21,49,12.109,0.3683,-0.3797,0.1428,0.8364
0.085,0.109,-0.507,2.7,-9.4,-27.7,0,2018,4,24,21,49,12.132,0.3629,-0.3809,0.1437,0.8381
0.051,0.201,-0.476,25.1,1.7,-19.7,0,2018,4,24,21,49,12.151,0.3595,-0.3784,0.1438,0.8407
-0.021,0.309,-0.464,48,1,-9.6,0,2018,4,24,21,49,12.188,0.3585,-0.3724,0.1429,0.8439
-0.093,0.315,-0.446,72.9,-16.4,4.1,0,2018,4,24,21,49,12.188,0.3591,-0.3637,0.1382,0.8482
-0.181,0.248,-0.283,93.4,-29.2,20.2,0,2018,4,24,21,49,12.212,0.3615,-0.353,0.1285,0.8533
-0.201,0.224,-0.091,103.7,-37.3,39.1,0,2018,4,24,21,49,12.231,0.366,-0.3409,0.1153,0.8581
-0.252,0.712,1.101,83.7,-72.6,74.1,0,2018,4,24,21,49,12.252,0.373,-0.3299,0.0987,0.8615
-0.348,-0.728,1.481,12.2,-104.1,64,0,2018,4,24,21,49,12.272,0.3809,-0.3343,0.0708,0.8591
-0.379,-0.132,0.051,-36.1,-20.5,63.5,0,2018,4,24,21,49,12.288,0.3875,-0.3419,0.0612,0.8538
-0.293,-0.479,0.108,-56.2,42.2,71.3,0,2018,4,24,21,49,12.311,0.3974,-0.3486,0.0621,0.8465
0.033,0.149,0.217,-56.5,38,69.3,0,2018,4,24,21,49,12.329,0.4102,-0.3541,0.0689,0.8375
-0.032,0.261,0.255,-65.2,32.4,78.9,0,2018,4,24,21,49,12.351,0.4225,-0.3612,0.0737,0.8279
-0.117,0.177,0.136,-82.4,24.5,80.3,0,2018,4,24,21,49,12.369,0.4349,-0.3711,0.0782,0.8166
-0.059,-0.183,-0.369,-79.1,-4.1,67.8,0,2018,4,24,21,49,12.391,0.4448,-0.3829,0.0809,0.8055
0.133,-0.177,-0.545,-58.1,-8.7,64.9,0,2018,4,24,21,49,12.41,0.4525,-0.3941,0.0808,0.7958
0.263,-0.088,-0.443,-39.7,-10.1,56.2,0,2018,4,24,21,49,12.433,0.4597,-0.4023,0.0792,0.7877
0.278,-0.04,-0.247,-27.2,-26.1,43.1,0,2018,4,24,21,49,12.45,0.4649,-0.4088,0.076,0.7816
0.23,-0.075,-0.273,-15.7,-62.1,26.7,0,2018,4,24,21,49,12.485,0.466,-0.4158,0.0692,0.7778
0.178,-0.22,-0.403,1.2,-85.1,14.4,0,2018,4,24,21,49,12.508,0.4631,-0.4232,0.0581,0.7764
0.203,-0.245,-0.491,21.4,-89.7,5.3,0,2018,4,24,21,49,12.513,0.4579,-0.4288,0.0444,0.7773
0.173,-0.175,-0.439,42.1,-88.4,-3.9,0,2018,4,24,21,49,12.528,0.4514,-0.4316,0.0296,0.7804
0.103,-0.135,-0.383,61.5,-81.5,-10.8,0,2018,4,24,21,49,12.552,0.4441,-0.431,0.0146,0.7852
0.005,-0.136,-0.29,80,-75,-12.8,0,2018,4,24,21,49,12.588,0.4369,-0.4271,-0.0006,0.7915
-0.038,-0.033,-0.219,94.6,-81.2,-10.7,0,2018,4,24,21,49,12.612,0.4293,-0.4208,-0.0171,0.7988
-0.075,-0.025,-0.045,103,-87.4,-8.2,0,2018,4,24,21,49,12.616,0.4215,-0.4134,-0.036,0.8062
-0.092,-0.073,0.059,104,-87.5,-6,0,2018,4,24,21,49,12.634,0.4139,-0.4051,-0.0561,0.8132
-0.153,-0.056,0.148,99.5,-84.7,-0.7,0,2018,4,24,21,49,12.669,0.4063,-0.3967,-0.0754,0.8196
-0.238,-0.151,0.283,88.2,-74.5,1.8,0,2018,4,24,21,49,12.669,0.3996,-0.3888,-0.0935,0.8248
-0.292,-0.165,0.357,70.5,-55.8,3,1023,2018,4,24,21,49,12.692,0.3942,-0.3818,-0.1086,0.8288
-0.306,-0.152,0.552,54.2,-49.3,16.3,1023,2018,4,24,21,49,12.709,0.3901,-0.3762,-0.12,0.8317
-0.556,-0.237,0.749,-2.8,2.7,1.3,1023,2018,4,24,21,49,12.732,0.3893,-0.3742,-0.1276,0.8318
-0.174,0.289,0.568,-47,47.8,2.5,1023,2018,4,24,21,49,12.751,0.3921,-0.3759,-0.1194,0.831
-0.162,0.173,0.116,-57,18,5.6,1023,2018,4,24,21,49,12.774,0.3957,-0.3815,-0.1116,0.8278
-0.103,0.115,-0.128,-56.6,20.4,9.4,1023,2018,4,24,21,49,12.792,0.3989,-0.388,-0.1056,0.824
-0.044,0.165,-0.169,-46,7.3,16.2,1023,2018,4,24,21,49,12.815,0.4023,-0.3943,-0.1002,0.8201
-0.078,0.073,-0.14,-36.2,1.7,22.4,1023,2018,4,24,21,49,12.834,0.4053,-0.4002,-0.098,0.816
-0.017,0.311,-0.067,-32.2,-1.7,35.2,1023,2018,4,24,21,49,12.852,0.4101,-0.4043,-0.097,0.8117
-0.096,-0.022,-0.003,-29.1,-31.6,30.5,0,2018,4,24,21,49,12.874,0.4137,-0.4089,-0.1001,0.8071
-0.068,-0.158,-0.018,-28.3,-34.9,23.1,0,2018,4,24,21,49,12.909,0.4151,-0.4148,-0.1053,0.8027
-0.084,-0.041,0.072,-33.6,-28.5,25.1,0,2018,4,24,21,49,12.931,0.4166,-0.4207,-0.1095,0.7983
-0.057,-0.015,-0.001,-36.4,-30.2,27.8,0,2018,4,24,21,49,12.936,0.4192,-0.4266,-0.1133,0.7933
-0.024,0.077,0.026,-41,-20.4,33.6,0,2018,4,24,21,49,12.955,0.4225,-0.4329,-0.1161,0.7877
-0.035,0.031,0.06,-46.9,-17,39.3,0,2018,4,24,21,49,12.972,0.4272,-0.4389,-0.1179,0.7816
0.012,-0.036,0.058,-58.6,4.7,42.1,0,2018,4,24,21,49,12.993,0.4335,-0.4453,-0.118,0.7744
0.07,-0.006,-0.033,-66.1,18.5,46.6,0,2018,4,24,21,49,13.012,0.4417,-0.452,-0.1148,0.7663
0.139,0.003,-0.176,-64.9,28.6,47.2,0,2018,4,24,21,49,13.035,0.451,-0.4583,-0.1102,0.7578
0.205,-0.003,-0.251,-56.9,31.1,44.7,0,2018,4,24,21,49,13.053,0.4608,-0.463,-0.105,0.7498
0.249,-0.104,-0.365,-41.5,26,36.7,0,2018,4,24,21,49,13.076,0.4693,-0.4664,-0.1006,0.7429
0.283,-0.156,-0.43,-22.1,20.8,25.9,0,2018,4,24,21,49,13.113,0.4759,-0.468,-0.0974,0.7382
0.32,-0.144,-0.423,-0.8,22.8,17.7,0,2018,4,24,21,49,13.137,0.4805,-0.4672,-0.0955,0.7359
0.315,-0.06,-0.414,19.3,17.6,15.2,0,2018,4,24,21,49,13.141,0.4841,-0.4639,-0.0949,0.7357
0.245,-0.11,-0.385,39,3.4,13.2,0,2018,4,24,21,49,13.155,0.4863,-0.4591,-0.0974,0.7369
0.146,-0.17,-0.3,55.1,-1,6.6,0,2018,4,24,21,49,13.172,0.4869,-0.4527,-0.1022,0.7399
0.079,-0.147,-0.24,68,4.2,-0.8,0,2018,4,24,21,49,13.195,0.4861,-0.4445,-0.1075,0.7446
0.063,-0.047,-0.221,80.2,9.8,-2.3,0,2018,4,24,21,49,13.213,0.4849,-0.4341,-0.1126,0.7507
-0.006,0.122,-0.136,90.1,8.7,-1.6,0,2018,4,24,21,49,13.234,0.4836,-0.4222,-0.1182,0.7574
-0.05,0.096,-0.009,95.4,-15.4,-0.8,0,2018,4,24,21,49,13.273,0.481,-0.4102,-0.1257,0.7645
-0.078,0.091,0.102,93.6,-30.6,1,0,2018,4,24,21,49,13.297,0.4773,-0.3989,-0.1366,0.7709
-0.148,0,0.174,87.9,-47,1.1,0,2018,4,24,21,49,13.3,0.4724,-0.3899,-0.1496,0.776
-0.201,-0.112,0.244,76.6,-45,-2,0,2018,4,24,21,49,13.318,0.4669,-0.3825,-0.1629,0.7803
-0.234,-0.161,0.28,60,-27.3,-7.3,0,2018,4,24,21,49,13.337,0.4619,-0.3762,-0.1731,0.7842
-0.258,-0.163,0.288,42.2,-14.1,-14.6,0,2018,4,24,21,49,13.36,0.4576,-0.3712,-0.1791,0.7878
-0.29,-0.105,0.351,22.2,-8.1,-20.9,0,2018,4,24,21,49,13.375,0.4534,-0.3682,-0.1819,0.7909
-0.283,-0.041,0.357,1.1,-14.6,-28.1,0,2018,4,24,21,49,13.394,0.449,-0.3681,-0.1826,0.7933
-0.222,-0.16,0.241,-19.2,7.8,-31.8,0,2018,4,24,21,49,13.414,0.4444,-0.3709,-0.181,0.795
-0.174,-0.031,0.097,-34.6,37.1,-28,0,2018,4,24,21,49,13.452,0.4429,-0.3737,-0.1732,0.7962
-0.055,0.183,-0.055,-35.5,32.1,-18.5,1023,2018,4,24,21,49,13.475,0.4432,-0.3761,-0.1633,0.797
0.001,0.247,-0.239,-25.3,10.5,-6.9,1023,2018,4,24,21,49,13.479,0.4436,-0.3791,-0.1571,0.7966
0.049,0.127,-0.254,-14.8,4.4,3.6,1023,2018,4,24,21,49,13.498,0.4444,-0.3814,-0.1547,0.7956
0.056,0.177,-0.076,-9.1,3.2,9.5,1023,2018,4,24,21,49,13.516,0.4461,-0.3824,-0.1534,0.7944
0.016,0.1,0.103,-9.4,-27.8,12.6,1023,2018,4,24,21,49,13.54,0.447,-0.3843,-0.1554,0.7926
-0.061,-0.105,0.027,-13.2,-31.4,7.9,1023,2018,4,24,21,49,13.557,0.4469,-0.3875,-0.1597,0.7902
-0.057,-0.233,0.044,-22.3,-11.5,-0.3,1023,2018,4,24,21,49,13.581,0.4464,-0.3916,-0.1615,0.7881
-0.055,-0.154,0,-27.7,10.8,-5.7,1023,2018,4,24,21,49,13.599,0.4466,-0.3952,-0.1591,0.7867
-0.019,0,-0.024,-25.2,6.3,-7.8,1023,2018,4,24,21,49,13.622,0.4472,-0.3984,-0.1557,0.7854
-0.003,-0.027,-0.069,-23,4.9,-7.4,1023,2018,4,24,21,49,13.642,0.4472,-0.4018,-0.153,0.7842
0,-0.026,-0.098,-17.7,0.9,-8.5,0,2018,4,24,21,49,13.658,0.4467,-0.4053,-0.151,0.7831
-0.005,-0.014,-0.069,-12.2,-4.7,-7.8,0,2018,4,24,21,49,13.677,0.4457,-0.4083,-0.1496,0.7824
0.018,-0.034,-0.087,-9.8,-0.5,-8.7,0,2018,4,24,21,49,13.7,0.4445,-0.4108,-0.1488,0.7818
0.02,-0.063,-0.079,-8.5,12.6,-7.7,0,2018,4,24,21,49,13.719,0.4438,-0.4128,-0.1474,0.7815
0.118,0.187,-0.012,1.3,19,2.4,0,2018,4,24,21,49,13.742,0.4471,-0.4109,-0.136,0.7827
0.139,0.196,0.03,3.8,0.2,5.6,0,2018,4,24,21,49,13.761,0.4483,-0.4097,-0.1352,0.7827
0.096,0.157,0.091,3.2,-7.3,9.4,0,2018,4,24,21,49,13.778,0.449,-0.4094,-0.1366,0.7823
0.057,0.131,0.13,-0.8,-16.2,12.1,0,2018,4,24,21,49,13.801,0.4496,-0.4098,-0.1391,0.7813
-0.007,-0.106,0.107,-9.5,-7,6.8,0,2018,4,24,21,49,13.838,0.4502,-0.411,-0.1415,0.7799
0.04,0.068,0.238,-26.4,29.8,10.1,0,2018,4,24,21,49,13.861,0.4528,-0.4118,-0.1389,0.7784
0.014,0.27,0.446,-43.8,18.9,18.4,0,2018,4,24,21,49,13.865,0.4576,-0.414,-0.1334,0.7754
0.023,0.157,0.457,-67.5,6.5,25.1,0,2018,4,24,21,49,13.878,0.4625,-0.4202,-0.1291,0.7698
-0.046,0.059,0.209,-87.5,14.6,28.1,0,2018,4,24,21,49,13.916,0.4685,-0.4294,-0.1235,0.762
-0.108,0.023,0.026,-98.3,29.4,32.4,0,2018,4,24,21,49,13.94,0.4762,-0.4393,-0.1152,0.7528
-0.11,-0.067,-0.181,-98.9,43.7,33.4,0,2018,4,24,21,49,13.944,0.4855,-0.4485,-0.1051,0.7429
-0.07,0.038,-0.185,-89.7,46.9,28.8,0,2018,4,24,21,49,13.96,0.4949,-0.4561,-0.0932,0.7336
-0.08,0.025,-0.234,-78.4,28.1,22.2,0,2018,4,24,21,49,13.979,0.5025,-0.4633,-0.0832,0.725
-0.136,-0.107,-0.314,-65,5,8.5,0,2018,4,24,21,49,14.002,0.5067,-0.4708,-0.0763,0.7181
-0.075,-0.21,-0.398,-49,3.5,-5.6,0,2018,4,24,21,49,14.019,0.5078,-0.4775,-0.0709,0.7134
-0.031,-0.293,-0.462,-31.1,12.1,-19.5,0,2018,4,24,21,49,14.044,0.5072,-0.4821,-0.0655,0.7113
-0.022,-0.224,-0.388,-12.5,23,-33.4,0,2018,4,24,21,49,14.061,0.5058,-0.4833,-0.0588,0.712
0.004,-0.333,-0.321,2.8,19.6,-51.3,0,2018,4,24,21,49,14.085,0.5021,-0.4824,-0.0523,0.7157
0.027,-0.295,-0.314,13.3,26.4,-66.8,0,2018,4,24,21,49,14.1,0.4964,-0.4799,-0.0453,0.7218
0.053,-0.137,-0.269,22.9,34.2,-77.7,0,2018,4,24,21,49,14.138,0.4895,-0.4754,-0.0367,0.73
0.088,-0.047,-0.261,36.7,23.8,-85.5,0,2018,4,24,21,49,14.159,0.4811,-0.4695,-0.0287,0.7397
0.079,-0.119,-0.366,50.9,21.8,-87.7,0,2018,4,24,21,49,14.163,0.4711,-0.4625,-0.0226,0.7506
0.065,-0.097,-0.337,68.7,36.3,-89.9,0,2018,4,24,21,49,14.181,0.4615,-0.4523,-0.0163,0.7629
0.083,0.129,-0.314,87.8,17.2,-87.9,0,2018,4,24,21,49,14.204,0.4518,-0.4397,-0.0117,0.7761
0.007,0.174,-0.191,122.7,-24.2,-68.2,0,2018,4,24,21,49,14.222,0.4285,-0.4117,-0.0188,0.8039
-0.107,0.094,-0.032,129.4,-19.7,-58.1,1023,2018,4,24,21,49,14.245,0.4178,-0.3955,-0.0267,0.8174
-0.207,0.057,0.044,128.5,-10.1,-52.1,1023,2018,4,24,21,49,14.263,0.4083,-0.3779,-0.0344,0.8301
-0.342,-0.033,0.167,120.3,6.3,-46,1023,2018,4,24,21,49,14.287,0.4004,-0.3601,-0.0403,0.8416
-0.663,0.835,1.434,80.8,-18.9,-36.6,1023,2018,4,24,21,49,14.305,0.3942,-0.3442,-0.0438,0.8509
-0.228,-0.428,1.195,8.6,-29.4,-4.6,1023,2018,4,24,21,49,14.322,0.388,-0.3432,-0.0589,0.8532
-0.601,-0.394,0.368,-45.2,46.9,-20.1,1023,2018,4,24,21,49,14.339,0.3884,-0.3458,-0.0535,0.8524
-0.476,-0.391,0.187,-71.9,128.7,-19,1023,2018,4,24,21,49,14.362,0.3914,-0.3487,-0.0344,0.8508
-0.321,-0.159,0.026,-89.7,134.9,-16.6,1023,2018,4,24,21,49,14.38,0.3979,-0.3514,-0.0071,0.8474
-0.203,0.19,0.038,-96.8,86.4,-16.5,1023,2018,4,24,21,49,14.402,0.4029,-0.3572,0.0173,0.8424
-0.081,0.104,0.018,-99.8,14.1,-29.5,0,2018,4,24,21,49,14.439,0.4022,-0.3682,0.0327,0.8375
0.08,0.142,-0.024,-97.9,-29.2,-46.1,0,2018,4,24,21,49,14.461,0.3951,-0.3829,0.0413,0.834
0.303,0.235,-0.115,-86.4,-70.4,-57.1,0,2018,4,24,21,49,14.466,0.3832,-0.3994,0.0438,0.8316
0.498,0.337,-0.436,-58,-139.1,-54.3,0,2018,4,24,21,49,14.502,0.367,-0.4164,0.0375,0.8309
0.562,0.269,-0.521,-24.5,-184.4,-42.5,0,2018,4,24,21,49,14.526,0.3473,-0.4326,0.0192,0.8317
0.491,0.2,-0.301,-0.4,-159.5,-21.9,0,2018,4,24,21,49,14.53,0.3288,-0.4446,-0.0035,0.8331
0.366,0.138,0,3.5,-80.5,8.7,0,2018,4,24,21,49,14.546,0.3186,-0.4509,-0.0206,0.8335
0.162,-0.026,0.079,-8.9,1.7,34.7,0,2018,4,24,21,49,14.565,0.3188,-0.4533,-0.0277,0.8318
0.085,-0.002,0.222,-28,91.8,56.4,0,2018,4,24,21,49,14.582,0.3296,-0.4525,-0.0226,0.8282
0.134,0.025,0.013,-38.5,158.5,80.2,0,2018,4,24,21,49,14.605,0.3498,-0.4492,-0.007,0.8219
-0.083,-0.142,0.149,-40.5,188.5,88.5,0,2018,4,24,21,49,14.623,0.376,-0.4441,0.0139,0.8131
-0.093,0.126,0.129,-48.8,184.2,74.4,0,2018,4,24,21,49,14.647,0.4011,-0.4382,0.0369,0.8035
-0.031,0.081,0.013,-53.4,178.3,84.2,0,2018,4,24,21,49,14.689,0.4255,-0.4328,0.0601,0.7923
-0.086,0.24,0.011,-39.3,112.4,78.8,0,2018,4,24,21,49,14.691,0.4479,-0.4285,0.0787,0.7807
-0.072,0.251,-0.094,-25,14,65.8,0,2018,4,24,21,49,14.705,0.4615,-0.4289,0.0839,0.7719
-0.122,0.172,-0.056,-18.7,-52.8,46,0,2018,4,24,21,49,14.727,0.4668,-0.4346,0.078,0.7661
-0.164,-0.134,-0.252,-8.4,-144.2,4.2,0,2018,4,24,21,49,14.763,0.4622,-0.4453,0.0629,0.7642
-0.028,-0.226,-0.325,-2.3,-177.5,-28,0,2018,4,24,21,49,14.763,0.4468,-0.4594,0.0418,0.7664
0.02,-0.189,-0.451,8.7,-163.6,-41.9,0,2018,4,24,21,49,14.786,0.4278,-0.472,0.0213,0.7704
0.149,-0.12,-0.48,25.8,-135,-41,0,2018,4,24,21,49,14.803,0.4098,-0.4804,0.0037,0.7753
0.145,-0.026,-0.465,46.4,-105.6,-23.3,0,2018,4,24,21,49,14.826,0.3951,-0.4839,-0.0124,0.7806
0.01,-0.278,-0.262,59.1,-56.4,-4.7,0,2018,4,24,21,49,14.844,0.3863,-0.4821,-0.0264,0.7858
-0.072,-0.578,-0.169,57.6,55,9.7,0,2018,4,24,21,49,14.864,0.386,-0.4743,-0.0314,0.7905
-0.093,-0.412,0.038,43.2,198.8,16.7,0,2018,4,24,21,49,14.9,0.3986,-0.4581,-0.0173,0.7942
-0.012,0.27,0.127,34.3,206.6,17.1,0,2018,4,24,21,49,14.923,0.4177,-0.4375,0.008,0.7962
0.007,0.742,0.123,33.7,136,17.7,0,2018,4,24,21,49,14.928,0.4337,-0.42,0.029,0.7965
-0.029,0.321,0.143,39.8,38.2,18.5,0,2018,4,24,21,49,14.947,0.4418,-0.409,0.0355,0.7976
-0.11,0.331,0.356,31.8,-9.1,21.6,0,2018,4,24,21,49,14.969,0.4465,-0.4027,0.0333,0.7982
-0.147,-0.03,0.466,10.8,-71.6,4,1023,2018,4,24,21,49,14.985,0.4453,-0.4032,0.0245,0.799
-0.175,-0.357,0.329,-16.2,-81.7,-16.3,1023,2018,4,24,21,49,15.003,0.4388,-0.4099,0.0139,0.7994
-0.097,-0.359,0.015,-32.3,-57.1,-33.2,1023,2018,4,24,21,49,15.024,0.4301,-0.4188,0.008,0.7996
-0.024,-0.184,-0.183,-32.7,-34.6,-39.7,1023,2018,4,24,21,49,15.062,0.4215,-0.4268,0.0072,0.8
0.08,-0.096,-0.343,-21.7,-24.1,-40.6,1023,2018,4,24,21,49,15.085,0.4138,-0.4327,0.0083,0.8008
0.101,-0.065,-0.375,-3.5,-18.3,-42.7,1023,2018,4,24,21,49,15.089,0.4062,-0.4359,0.0093,0.8029
0.05,-0.125,-0.424,16.2,-4.6,-40.3,1023,2018,4,24,21,49,15.125,0.3996,-0.4357,0.0104,0.8064
0.058,-0.042,-0.551,42.4,1.3,-37.1,1023,2018,4,24,21,49,15.125,0.394,-0.4315,0.0113,0.8113
0.048,0.072,-0.568,73.9,-12.5,-34.1,0,2018,4,24,21,49,15.148,0.3887,-0.4235,0.0092,0.8181
0.018,0.015,-0.498,103.1,-18.4,-30.3,0,2018,4,24,21,49,15.186,0.3829,-0.4117,0.003,0.8268
-0.041,-0.039,-0.293,125.5,-12.9,-28.8,0,2018,4,24,21,49,15.206,0.3775,-0.3959,-0.0048,0.837
-0.168,-0.114,0.147,127.6,1.9,-27.2,0,2018,4,24,21,49,15.212,0.3728,-0.3775,-0.0125,0.8475
-0.524,1.293,2.057,74,-85.8,-14.3,0,2018,4,24,21,49,15.23,0.3683,-0.3628,-0.0195,0.8557
-0.583,0.412,1.205,-28.4,3.6,11.6,0,2018,4,24,21,49,15.252,0.3657,-0.3631,-0.0285,0.8564
-0.061,-0.147,0.474,-76.7,50.4,-1.3,0,2018,4,24,21,49,15.268,0.3676,-0.3699,-0.0208,0.8529
-0.276,-0.108,0.21,-94.3,24.3,8.6,0,2018,4,24,21,49,15.286,0.3708,-0.3802,-0.0095,0.8472
-0.17,-0.23,-0.124,-96.8,41.9,2.1,0,2018,4,24,21,49,15.31,0.3744,-0.392,0.0013,0.8403
-0.044,-0.424,-0.21,-91.3,23.4,-14.1,0,2018,4,24,21,49,15.328,0.3753,-0.4037,0.0125,0.8341
0.087,-0.093,-0.286,-80.8,25.2,-19.3,0,2018,4,24,21,49,15.347,0.3743,-0.4146,0.0229,0.829
0.131,-0.1,-0.373,-67.4,36.7,-23.3,0,2018,4,24,21,49,15.37,0.373,-0.4233,0.0336,0.8249
0.152,-0.021,-0.403,-50,47.3,-26.7,0,2018,4,24,21,49,15.389,0.3722,-0.4287,0.0455,0.8219
0.25,0.068,-0.463,-29.7,52.4,-24.7,0,2018,4,24,21,49,15.411,0.3718,-0.4309,0.0573,0.8201
0.278,0.093,-0.533,-4.5,45.8,-18.9,0,2018,4,24,21,49,15.448,0.3723,-0.4298,0.0672,0.8197
0.251,0.087,-0.54,23.6,42,-16.4,0,2018,4,24,21,49,15.47,0.3731,-0.4254,0.074,0.8211
0.189,0.183,-0.511,51,29.7,-11.8,0,2018,4,24,21,49,15.475,0.3743,-0.4173,0.0778,0.8243
0.106,0.124,-0.498,76.1,22.5,-6.4,0,2018,4,24,21,49,15.488,0.3756,-0.4063,0.0778,0.8292
0.008,0.059,-0.478,99.8,24.6,-2.9,0,2018,4,24,21,49,15.506,0.3778,-0.3918,0.0756,0.8354
-0.109,-0.036,-0.268,117.6,41.5,0.8,0,2018,4,24,21,49,15.529,0.3813,-0.3735,0.0732,0.8424
-0.239,-0.006,-0.019,123.8,44.2,-1.8,0,2018,4,24,21,49,15.547,0.3857,-0.3524,0.0711,0.8496
-0.657,0.351,0.743,116.5,-50.1,-26.9,0,2018,4,24,21,49,15.57,0.3871,-0.333,0.0663,0.8571
-0.516,-0.627,1.764,36.1,-99.4,10.3,0,2018,4,24,21,49,15.588,0.379,-0.3304,0.0417,0.8633
-0.302,-0.266,0.673,-37.8,45.3,-2.7,0,2018,4,24,21,49,15.611,0.3794,-0.3321,0.0401,0.8625
-0.246,-0.45,0.295,-74.6,111.6,-12,0,2018,4,24,21,49,15.63,0.3826,-0.3353,0.0574,0.8589
-0.005,-0.099,-0.182,-80,97.8,-16,0,2018,4,24,21,49,15.653,0.386,-0.3397,0.08,0.8539
0.02,-0.322,-0.153,-73.5,60.4,-36.5,0,2018,4,24,21,49,15.669,0.3858,-0.3455,0.0981,0.8497
0.104,-0.18,-0.011,-71.2,2.8,-61.1,0,2018,4,24,21,49,15.687,0.3786,-0.3533,0.1105,0.8482
0.147,-0.15,-0.189,-67.5,-3.3,-73.9,0,2018,4,24,21,49,15.71,0.3666,-0.3627,0.1182,0.8485
0.24,0,-0.493,-53.2,46.1,-71.6,0,2018,4,24,21,49,15.728,0.3556,-0.3689,0.1299,0.8488
0.26,0.063,-0.626,-26.7,107.4,-54.5,1023,2018,4,24,21,49,15.752,0.3504,-0.3684,0.1482,0.8481
0.211,0.338,-0.617,4.8,127.1,-35.5,1023,2018,4,24,21,49,15.769,0.3514,-0.3612,0.17,0.8468
0.165,0.358,-0.565,39.4,99.3,-18.8,1023,2018,4,24,21,49,15.789,0.3553,-0.3499,0.1871,0.8463
0.038,0.313,-0.462,69.6,65.1,-5.8,1023,2018,4,24,21,49,15.828,0.3602,-0.3362,0.1962,0.8477
-0.095,0.222,-0.309,89.9,52.1,5.8,1023,2018,4,24,21,49,15.851,0.3664,-0.3206,0.1994,0.8503
-0.189,0.233,-0.18,100.1,38.7,13.9,1023,2018,4,24,21,49,15.856,0.3737,-0.3037,0.1994,0.8533
-0.484,0.269,0.176,104.6,-20.5,-0.2,1023,2018,4,24,21,49,15.872,0.3808,-0.2877,0.196,0.8565
-0.422,-0.202,1.458,27,-102.4,31.5,1023,2018,4,24,21,49,15.896,0.3782,-0.2828,0.1753,0.8637
-0.663,0.191,0.94,-31.7,4.8,31.2,1023,2018,4,24,21,49,15.913,0.3808,-0.2852,0.1683,0.8632
-0.271,-0.085,0.341,-57,-14.8,27.5,0,2018,4,24,21,49,15.935,0.3835,-0.2933,0.1692,0.8591
-0.159,0.03,0.045,-60.9,-2.6,41.8,0,2018,4,24,21,49,15.952,0.3862,-0.304,0.1699,0.8541
-0.019,-0.09,-0.182,-60.3,7.9,47.4,0,2018,4,24,21,49,15.97,0.3915,-0.314,0.1718,0.8476
0.157,-0.363,-0.303,-56.6,37.4,38.3,0,2018,4,24,21,49,15.994,0.3972,-0.3226,0.1766,0.8407
0.38,-0.303,-0.399,-43.5,59.3,21.3,0,2018,4,24,21,49,16.012,0.403,-0.3272,0.1861,0.8341
0.45,-0.134,-0.302,-24.8,34.8,2.7,0,2018,4,24,21,49,16.034,0.4063,-0.329,0.1949,0.8298
0.414,0.028,-0.114,-9.3,2.7,-13.5,0,2018,4,24,21,49,16.054,0.406,-0.3298,0.1991,0.8286
0.283,-0.024,-0.074,0.4,-16.8,-25.5,0,2018,4,24,21,49,16.072,0.4022,-0.3305,0.1989,0.8302
0.207,0.003,-0.163,8.3,1.6,-28,0,2018,4,24,21,49,16.093,0.3979,-0.3295,0.199,0.8327
0.088,0.046,-0.209,20.1,22.4,-22.5,0,2018,4,24,21,49,16.131,0.3953,-0.3255,0.2015,0.8349
-0.009,0.142,-0.183,33.3,12.8,-16.1,0,2018,4,24,21,49,16.154,0.3948,-0.3194,0.2037,0.8369
-0.11,0.222,-0.209,44,-24.2,-9.5,0,2018,4,24,21,49,16.159,0.3939,-0.3137,0.2009,0.8401
0.018,0.342,-0.171,47.5,-64.8,-6.8,0,2018,4,24,21,49,16.174,0.3912,-0.3094,0.1909,0.8453
-0.46,0.247,0.477,17,-23.9,22.2,0,2018,4,24,21,49,16.192,0.3908,-0.3088,0.1807,0.848
-0.373,0.053,0.271,-0.9,-12.2,31.2,0,2018,4,24,21,49,16.214,0.3943,-0.3092,0.1768,0.847
-0.248,0.083,0.061,-8.1,6.6,41.4,0,2018,4,24,21,49,16.25,0.3994,-0.3113,0.1751,0.8442
-0.159,0.131,-0.105,-0.8,-13.8,54.8,0,2018,4,24,21,49,16.272,0.4064,-0.3137,0.1726,0.8405
-0.075,0.009,-0.11,8.1,-46,59,0,2018,4,24,21,49,16.276,0.4131,-0.3168,0.1651,0.8376
-0.014,-0.232,0.039,10.6,-51.4,55.8,0,2018,4,24,21,49,16.295,0.4191,-0.3207,0.1534,0.8354
-0.039,-0.301,0.211,0.1,-20.7,51.6,0,2018,4,24,21,49,16.318,0.4249,-0.324,0.1444,0.8327
0.028,-0.333,0.193,-14.9,22.4,44.7,0,2018,4,24,21,49,16.337,0.432,-0.3261,0.1426,0.8286
0.143,-0.31,0.078,-23.1,48.2,33.3,0,2018,4,24,21,49,16.355,0.4391,-0.3272,0.1472,0.8235
0.235,-0.328,0.099,-28.9,77.6,18.5,0,2018,4,24,21,49,16.378,0.4459,-0.3267,0.1571,0.8183
0.27,-0.236,0.251,-33.6,72.1,1.7,0,2018,4,24,21,49,16.393,0.4508,-0.3253,0.1701,0.8135
0.251,-0.306,0.243,-42.1,56.8,-17.4,0,2018,4,24,21,49,16.412,0.452,-0.3255,0.1824,0.8101
0.268,-0.368,0.16,-51.3,63.8,-38.4,0,2018,4,24,21,49,16.434,0.4499,-0.3266,0.1961,0.8077
0.258,-0.417,0.064,-57.7,83.9,-60.7,0,2018,4,24,21,49,16.472,0.445,-0.3268,0.2135,0.8059
0.251,-0.359,-0.019,-59.7,113,-80.6,0,2018,4,24,21,49,16.495,0.4383,-0.3246,0.2362,0.8041
0.207,-0.257,0.013,-59.4,131.3,-96.8,1023,2018,4,24,21,49,16.499,0.4301,-0.3197,0.263,0.8021
0.159,-0.183,-0.025,-60.6,145.4,-108.1,1023,2018,4,24,21,49,16.516,0.4205,-0.3127,0.2925,0.7998
0.159,-0.204,-0.231,-57.4,168,-116.6,1023,2018,4,24,21,49,16.535,0.41,-0.3035,0.3248,0.7963
0.136,-0.26,-0.415,-48.3,201.2,-120,1023,2018,4,24,21,49,16.558,0.3999,-0.2907,0.3603,0.7909
0.061,-0.151,-0.446,-38.3,224.9,-117.1,1023,2018,4,24,21,49,16.576,0.3913,-0.2738,0.3988,0.7827
-0.05,-0.135,-0.459,-26.1,226.8,-112.4,1023,2018,4,24,21,49,16.599,0.3838,-0.2544,0.4371,0.7725
-0.155,-0.134,-0.524,-13.4,220.2,-108.8,1023,2018,4,24,21,49,16.618,0.377,-0.2334,0.4731,0.7612
-0.26,-0.016,-0.466,2.4,196.8,-109.1,1023,2018,4,24,21,49,16.641,0.3704,-0.2111,0.5054,0.7501
-0.284,-0.04,-0.466,23.6,160.8,-110.8,1023,2018,4,24,21,49,16.658,0.3635,-0.188,0.5315,0.7415
-0.258,-0.031,-0.566,47.2,125,-113,0,2018,4,24,21,49,16.675,0.3567,-0.1638,0.551,0.7363
-0.258,0.052,-0.577,75.1,88.2,-114.1,0,2018,4,24,21,49,16.697,0.351,-0.1383,0.5638,0.7346
-0.268,0.136,-0.594,104.4,52.6,-113.5,0,2018,4,24,21,49,16.735,0.3468,-0.1111,0.5697,0.7366
-0.611,0.024,-0.003,111.8,32.9,-107.9,0,2018,4,24,21,49,16.758,0.3445,-0.0829,0.5701,0.7411
0.009,0.177,1.097,-26.2,252.3,-95,0,2018,4,24,21,49,16.763,0.3363,-0.0636,0.5856,0.7347
-0.422,0.468,0.129,-5.8,158.5,-64.3,0,2018,4,24,21,49,16.778,0.3281,-0.0417,0.6144,0.7162
-0.083,-0.148,-0.29,8.8,90.5,-66.6,0,2018,4,24,21,49,16.801,0.3202,-0.0283,0.6284,0.7082
-0.078,0.163,-0.279,24.4,80.6,-57.7,0,2018,4,24,21,49,16.819,0.3149,-0.0138,0.6388,0.7017
-0.136,0.186,-0.074,18.7,38.2,-34.2,0,2018,4,24,21,49,16.842,0.312,-0.0029,0.6442,0.6982
-0.034,0.237,0.028,12.2,26.7,-25,0,2018,4,24,21,49,16.859,0.3096,0.0042,0.6476,0.6961
-0.069,0.21,0.083,9.5,0.5,-18.2,0,2018,4,24,21,49,16.875,0.3076,0.0096,0.6485,0.6962
-0.102,0.136,0.167,6.9,-25.9,-12.3,0,2018,4,24,21,49,16.898,0.3067,0.0115,0.6463,0.6985
-0.08,0.061,0.171,2.1,-31.5,-1.8,0,2018,4,24,21,49,16.916,0.3063,0.0113,0.6424,0.7022
-0.104,0.159,0.144,1,-38.4,14,0,2018,4,24,21,49,16.939,0.3074,0.0091,0.638,0.7058
-0.098,0.296,0.112,-6.4,-42.9,35.3,0,2018,4,24,21,49,16.957,0.3102,0.0037,0.6332,0.709
-0.038,0.331,-0.005,-9.7,-53.7,51.4,0,2018,4,24,21,49,16.98,0.3141,-0.0041,0.628,0.7119
-0.024,0.396,-0.099,-5.8,-87.3,64.8,0,2018,4,24,21,49,16.999,0.3204,-0.0152,0.6198,0.7161
-0.01,0.187,-0.167,-11.1,-108.3,85.5,0,2018,4,24,21,49,17.022,0.3285,-0.0302,0.607,0.7229
0.14,0.058,-0.189,-16.4,-82.5,100.1,0,2018,4,24,21,49,17.039,0.3383,-0.0473,0.595,0.7274
0.186,-0.067,-0.111,-23.6,-56.9,99.6,0,2018,4,24,21,49,17.062,0.3484,-0.0645,0.5865,0.7282
0.198,-0.128,-0.016,-29.6,-33.9,85.6,0,2018,4,24,21,49,17.078,0.3568,-0.0804,0.5812,0.7269
0.231,-0.252,-0.07,-31.7,26.6,73.5,0,2018,4,24,21,49,17.097,0.3635,-0.0925,0.5818,0.7216
0.252,-0.39,-0.19,-20.6,39.7,55.3,0,2018,4,24,21,49,17.119,0.3695,-0.1002,0.5869,0.7133
0.184,-0.41,-0.372,3.4,51.5,30.5,0,2018,4,24,21,49,17.137,0.3746,-0.1025,0.5924,0.7057
0.101,-0.22,-0.347,21.3,57.7,11.7,0,2018,4,24,21,49,17.16,0.3794,-0.0995,0.5981,0.6988
-0.04,-0.17,-0.243,33.6,51.5,-5.8,0,2018,4,24,21,49,17.179,0.3837,-0.0928,0.6029,0.6932
0.026,-0.246,-0.3,49.8,51.9,-28.9,0,2018,4,24,21,49,17.2,0.3867,-0.0823,0.6067,0.6895
-0.095,-0.103,-0.105,62.4,33.6,-40,0,2018,4,24,21,49,17.238,0.3891,-0.0686,0.6086,0.688
-0.069,-0.053,0.171,61.3,0.1,-52.4,0,2018,4,24,21,49,17.261,0.3904,-0.0546,0.6066,0.6903
-0.238,0.636,0.948,9.6,-2.5,-25.7,1023,2018,4,24,21,49,17.265,0.3894,-0.0466,0.6055,0.6923
-0.186,0.15,0.708,-7.3,-102.6,-32.1,1023,2018,4,24,21,49,17.284,0.3858,-0.0466,0.5984,0.7005
-0.028,0.322,0.414,-21.7,-143.4,-20.7,1023,2018,4,24,21,49,17.299,0.3797,-0.0539,0.585,0.7145
-0.029,0.456,0.18,-34.9,-211.7,-5,1023,2018,4,24,21,49,17.318,0.3733,-0.0685,0.5638,0.7334
0.005,0.535,-0.2,-35.2,-226.7,16.7,1023,2018,4,24,21,49,17.34,0.3676,-0.088,0.5372,0.7539
0.054,0.275,-0.374,-40.8,-204.6,31.4,1023,2018,4,24,21,49,17.358,0.3637,-0.1094,0.5101,0.7716
0.074,0.233,-0.183,-48.1,-167.6,45.6,1023,2018,4,24,21,49,17.381,0.3612,-0.1304,0.4871,0.7843
0.098,0.344,-0.053,-53.2,-173.6,58.3,1023,2018,4,24,21,49,17.399,0.3603,-0.1523,0.4663,0.7933
0.089,0.167,-0.044,-54.9,-192.2,61.3,1023,2018,4,24,21,49,17.422,0.3591,-0.1763,0.442,0.8028
0.063,-0.023,-0.08,-53.4,-166.2,63.9,1023,2018,4,24,21,49,17.46,0.3576,-0.2004,0.4185,0.8103
0.11,0.081,-0.108,-49.1,-108.3,69.2,0,2018,4,24,21,49,17.479,0.3582,-0.2212,0.3999,0.814
0.068,0.043,-0.258,-39.3,-53.9,82,0,2018,4,24,21,49,17.483,0.3629,-0.2376,0.3885,0.8129
0.063,-0.092,-0.501,-18.5,-29.1,84.3,0,2018,4,24,21,49,17.52,0.3712,-0.2499,0.3815,0.8087
0.035,-0.077,-0.621,13,-44.4,76,0,2018,4,24,21,49,17.539,0.3808,-0.2578,0.3732,0.8056
-0.067,-0.157,-0.578,41.3,-68.1,68.8,0,2018,4,24,21,49,17.543,0.3902,-0.2623,0.3598,0.8058
-0.133,-0.273,-0.454,62.2,-72.1,59.4,0,2018,4,24,21,49,17.559,0.3993,-0.2637,0.3433,0.8081
-0.156,-0.188,-0.3,78.5,-98.5,43.6,0,2018,4,24,21,49,17.581,0.4068,-0.2625,0.324,0.8127
-0.222,-0.079,-0.043,83.5,-118.4,39.1,0,2018,4,24,21,49,17.618,0.4121,-0.2609,0.3004,0.8195
-0.057,0.325,-0.054,90,-184.8,21.3,0,2018,4,24,21,49,17.641,0.4145,-0.2602,0.2716,0.8286
-0.52,-0.249,0.735,41.4,-154.2,36.9,0,2018,4,24,21,49,17.645,0.4131,-0.2658,0.2384,0.8377
-0.18,-0.133,0.775,-8.7,-107.6,30,0,2018,4,24,21,49,17.665,0.4132,-0.2739,0.2185,0.8404
0.047,-0.179,0.062,-27,-109.5,30.8,0,2018,4,24,21,49,17.684,0.411,-0.2863,0.2018,0.8415
0.185,-0.199,-0.091,-33.6,-52.3,33.1,0,2018,4,24,21,49,17.702,0.4108,-0.2978,0.1905,0.8403
0.188,-0.045,0.044,-35.6,-22.3,28.8,0,2018,4,24,21,49,17.725,0.4124,-0.3065,0.1866,0.8373
0.168,-0.005,0.105,-38.4,-20.8,25,0,2018,4,24,21,49,17.743,0.4141,-0.315,0.1849,0.8337
0.101,-0.094,0.009,-40.6,-12.7,16.7,0,2018,4,24,21,49,17.764,0.4149,-0.3231,0.1837,0.8304
0.124,-0.134,-0.186,-35.5,18.6,12.1,0,2018,4,24,21,49,17.782,0.4158,-0.3289,0.1863,0.827
0.102,-0.069,-0.353,-18,28.8,15.1,0,2018,4,24,21,49,17.8,0.4185,-0.3314,0.1914,0.8236
0.065,-0.054,-0.436,6.2,8.6,13.3,0,2018,4,24,21,49,17.823,0.4216,-0.3312,0.1938,0.8215
0.014,-0.084,-0.395,31.2,-18.6,8.2,0,2018,4,24,21,49,17.841,0.4234,-0.3292,0.1909,0.822
-0.082,-0.034,-0.274,49.9,-32.5,7.7,0,2018,4,24,21,49,17.864,0.4244,-0.3254,0.1834,0.8247
-0.116,-0.018,-0.119,59.4,-32.2,10.2,0,2018,4,24,21,49,17.882,0.4255,-0.3206,0.1739,0.8281
-0.135,0.203,-0.064,68.5,-34.1,15.7,0,2018,4,24,21,49,17.906,0.4274,-0.3141,0.1639,0.8316
-0.128,0.239,0.387,49.4,-83.4,23.8,0,2018,4,24,21,49,17.923,0.4273,-0.3107,0.1478,0.836
-0.275,0.267,0.806,8.2,-12.6,38.5,0,2018,4,24,21,49,17.946,0.4308,-0.3105,0.1381,0.8359
-0.116,-0.076,0.435,-17.1,-61.2,36.2,0,2018,4,24,21,49,17.965,0.4339,-0.3151,0.131,0.8337
0.048,-0.177,0.127,-30.5,-35.6,39.4,0,2018,4,24,21,49,17.989,0.436,-0.3237,0.1231,0.8306
0.231,-0.072,-0.055,-32.8,3.2,42,0,2018,4,24,21,49,18.003,0.4407,-0.3307,0.121,0.8256
0.227,-0.141,0.038,-35.2,14,34.4,0,2018,4,24,21,49,18.021,0.4463,-0.3356,0.1231,0.8203
0.203,-0.105,0.149,-38.1,2.4,21.1,1023,2018,4,24,21,49,18.044,0.45,-0.3412,0.1254,0.8156
0.201,-0.102,0.13,-41.8,-11.1,10.2,1023,2018,4,24,21,49,18.062,0.451,-0.3482,0.1265,0.8119
0.193,-0.091,0.052,-44.1,-7,2.2,1023,2018,4,24,21,49,18.085,0.4503,-0.3559,0.1278,0.8087
0.157,0,0.001,-43.4,-14.2,-3,1023,2018,4,24,21,49,18.103,0.4486,-0.3636,0.1304,0.8058
0.175,-0.034,-0.064,-36.8,-35.9,-14.1,1023,2018,4,24,21,49,18.126,0.4445,-0.3722,0.131,0.804
0.16,-0.051,-0.104,-27.7,-53.4,-21.4,1023,2018,4,24,21,49,18.164,0.438,-0.3808,0.1287,0.804
0.112,-0.113,-0.262,-15.6,-66,-24.7,1023,2018,4,24,21,49,18.187,0.4303,-0.3879,0.1233,0.8056
0.115,-0.115,-0.338,0.6,-77.6,-30.3,1023,2018,4,24,21,49,18.191,0.4213,-0.3937,0.1156,0.8087
0.036,-0.172,-0.38,16.5,-75.5,-33.4,1023,2018,4,24,21,49,18.21,0.4115,-0.3975,0.106,0.8132
0.034,-0.159,-0.465,33.5,-57.1,-35.9,1023,2018,4,24,21,49,18.228,0.4023,-0.398,0.0972,0.8186
-0.018,-0.09,-0.477,52.6,-44.5,-37.8,0,2018,4,24,21,49,18.251,0.3943,-0.3946,0.0896,0.825
-0.077,-0.069,-0.417,69.7,-30,-39.3,0,2018,4,24,21,49,18.267,0.3871,-0.3875,0.0827,0.8325
-0.112,-0.086,-0.357,84.1,-7.2,-37.5,0,2018,4,24,21,49,18.285,0.3812,-0.3769,0.0774,0.8405
-0.165,-0.023,-0.283,97.1,5.5,-35.6,0,2018,4,24,21,49,18.309,0.3771,-0.363,0.0739,0.8488
-0.249,0.03,-0.129,105.7,4.1,-30.8,0,2018,4,24,21,49,18.327,0.374,-0.3468,0.0697,0.8572
-0.278,0.133,0.27,104.7,-12.2,-23,0,2018,4,24,21,49,18.365,0.3708,-0.3305,0.0635,0.8655
-0.845,0.844,2.433,17.4,-20.9,-6.4,0,2018,4,24,21,49,18.387,0.3699,-0.3209,0.0581,0.8699
-0.295,0.451,0.704,-42.5,-73.8,19.6,0,2018,4,24,21,49,18.392,0.3665,-0.3266,0.0494,0.8697
-0.102,-0.01,0.163,-71.7,-48.7,12.4,0,2018,4,24,21,49,18.411,0.3642,-0.3397,0.0433,0.866
-0.196,0.112,0.056,-83.4,-44.6,34.1,0,2018,4,24,21,49,18.429,0.3647,-0.3548,0.0398,0.8599
-0.302,-0.091,-0.069,-95.7,-31.4,36.7,0,2018,4,24,21,49,18.466,0.3665,-0.3705,0.037,0.8526
-0.097,-0.271,-0.237,-88.9,0.7,23,0,2018,4,24,21,49,18.489,0.37,-0.3846,0.0405,0.8446
0.118,-0.092,-0.552,-65.1,-1.2,29.4,0,2018,4,24,21,49,18.492,0.3731,-0.3961,0.0433,0.8378
0.151,-0.228,-0.583,-45.8,18.6,21.4,0,2018,4,24,21,49,18.507,0.377,-0.4039,0.0463,0.8321
0.149,-0.111,-0.434,-26.4,34.5,15.6,0,2018,4,24,21,49,18.545,0.3815,-0.4072,0.0517,0.8281
0.151,0.041,-0.325,-7.5,18.1,10.1,0,2018,4,24,21,49,18.569,0.3852,-0.4079,0.0558,0.8258
0.11,0.116,-0.2,4.8,-13.6,6.7,0,2018,4,24,21,49,18.574,0.3864,-0.4079,0.0554,0.8253
0.074,-0.075,-0.201,12.2,-20.1,1.9,0,2018,4,24,21,49,18.587,0.3857,-0.408,0.0517,0.8258
0.069,-0.117,-0.273,21.6,-17.3,-3.1,0,2018,4,24,21,49,18.61,0.3844,-0.4068,0.048,0.8272
0.069,-0.031,-0.304,35.5,-12.3,-6.7,0,2018,4,24,21,49,18.629,0.3828,-0.4036,0.0443,0.8297
0.076,0.059,-0.326,51.4,-2.6,-2.2,0,2018,4,24,21,49,18.652,0.3819,-0.3977,0.0406,0.8332
0.033,0.004,-0.361,70.6,2.5,-2.5,0,2018,4,24,21,49,18.689,0.3821,-0.3887,0.0368,0.8375
-0.008,-0.003,-0.232,89.5,-3.1,-4.7,0,2018,4,24,21,49,18.689,0.382,-0.3768,0.0317,0.8432
-0.076,0.053,0.025,99.7,-15.8,-2.5,0,2018,4,24,21,49,18.712,0.3812,-0.3635,0.0244,0.8496
-0.101,0.123,0.259,96.8,-22.8,1.4,0,2018,4,24,21,49,18.728,0.3802,-0.3498,0.0149,0.856
-0.896,0.77,2.1,41.1,-166.2,12.1,0,2018,4,24,21,49,18.748,0.3771,-0.3432,-0.0016,0.8601
-0.282,0.338,0.813,-28.5,-56.7,28.4,0,2018,4,24,21,49,18.767,0.3739,-0.3486,-0.0181,0.8592
-0.106,-0.209,0.232,-60.7,-23.2,17.8,0,2018,4,24,21,49,18.79,0.3742,-0.3584,-0.0222,0.8549
-0.128,-0.104,0.117,-73.4,-1,22.2,1023,2018,4,24,21,49,18.808,0.3769,-0.3693,-0.0207,0.8491
-0.28,-0.223,-0.003,-88,16.2,30.6,1023,2018,4,24,21,49,18.831,0.3818,-0.3811,-0.0161,0.8417
0.098,-0.114,-0.313,-77.2,0.2,24.7,1023,2018,4,24,21,49,18.849,0.3864,-0.3924,-0.0108,0.8346
0.075,-0.222,-0.4,-61.8,0.7,17.1,1023,2018,4,24,21,49,18.873,0.3894,-0.4025,-0.0081,0.8283
0.078,-0.021,-0.199,-51,13.7,13.6,1023,2018,4,24,21,49,18.89,0.3922,-0.4099,-0.0039,0.8234
0.036,0.054,-0.1,-45.4,6.9,12.1,1023,2018,4,24,21,49,18.913,0.3947,-0.4165,0.0003,0.8189
0.011,-0.094,-0.15,-39.5,3.2,5.1,1023,2018,4,24,21,49,18.95,0.396,-0.4229,0.0033,0.8149
0.032,-0.184,-0.255,-32.3,12.3,0,1023,2018,4,24,21,49,18.973,0.3969,-0.4275,0.0066,0.8121
0.067,-0.173,-0.333,-20.4,12.9,-6.3,1023,2018,4,24,21,49,18.977,0.3974,-0.4304,0.0106,0.8103
0.062,-0.127,-0.37,-3,4.8,-14.1,0,2018,4,24,21,49,18.992,0.3966,-0.4313,0.0135,0.8101
0.044,-0.082,-0.376,15.7,-1.7,-22.7,0,2018,4,24,21,49,19.009,0.394,-0.4303,0.0146,0.8119
0.057,-0.08,-0.428,36.3,4,-25.1,0,2018,4,24,21,49,19.032,0.3906,-0.4264,0.0145,0.8156
0.063,-0.113,-0.453,56.3,24.4,-26.5,0,2018,4,24,21,49,19.05,0.3882,-0.4187,0.0154,0.8207
0.045,-0.016,-0.399,76.9,25.8,-29.9,0,2018,4,24,21,49,19.074,0.3862,-0.4071,0.0168,0.8274
0.001,0.049,-0.293,96.9,9.5,-31.8,0,2018,4,24,21,49,19.091,0.3833,-0.393,0.0158,0.8356
-0.057,0.011,-0.083,111.9,-8.7,-30.2,0,2018,4,24,21,49,19.115,0.3788,-0.3779,0.0107,0.8447
-0.132,0.109,0.332,111.3,-18.1,-23.6,0,2018,4,24,21,49,19.132,0.374,-0.3617,0.0028,0.8539
-0.83,1.075,2.016,57.8,-99.4,10.7,0,2018,4,24,21,49,19.156,0.3698,-0.3504,-0.0089,0.8604
-0.131,0.763,0.894,-22.7,-59.1,30.4,0,2018,4,24,21,49,19.172,0.3663,-0.3542,-0.0231,0.86
-0.124,-0.501,0.371,-60.8,-37.3,9.4,0,2018,4,24,21,49,19.189,0.366,-0.3643,-0.0301,0.8557
-0.141,-0.393,0.176,-85.9,29.7,18.9,0,2018,4,24,21,49,19.21,0.3686,-0.3754,-0.0263,0.8499
-0.145,-0.058,0.17,-94.2,60.9,21.9,0,2018,4,24,21,49,19.248,0.3751,-0.3854,-0.0142,0.8428
-0.153,-0.078,-0.028,-99.4,48,18.7,0,2018,4,24,21,49,19.272,0.3828,-0.3963,-0.0003,0.8344
0.019,-0.061,-0.265,-93.3,17,12.5,0,2018,4,24,21,49,19.276,0.3871,-0.4087,0.009,0.8264
0.075,-0.035,-0.303,-84.2,22.3,5.1,0,2018,4,24,21,49,19.296,0.3892,-0.4202,0.0169,0.8194
0.096,0.02,-0.305,-73.6,25.6,4.1,0,2018,4,24,21,49,19.313,0.3914,-0.4298,0.0255,0.8132
0.095,-0.02,-0.307,-60.7,24.8,1.1,0,2018,4,24,21,49,19.334,0.3933,-0.4376,0.0334,0.8078
0.08,0.03,-0.339,-46.4,20.3,-0.3,0,2018,4,24,21,49,19.353,0.3948,-0.4435,0.0404,0.8035
0.116,0,-0.424,-27.7,14.5,-0.8,0,2018,4,24,21,49,19.374,0.3958,-0.4475,0.0453,0.8005
0.119,-0.009,-0.487,-5.3,5.6,-2.8,0,2018,4,24,21,49,19.391,0.3962,-0.4491,0.048,0.7993
0.11,-0.013,-0.441,18,-4.8,-5.3,0,2018,4,24,21,49,19.412,0.3957,-0.448,0.0479,0.8001
0.084,-0.026,-0.461,40,-13.5,-8.7,0,2018,4,24,21,49,19.45,0.3941,-0.4445,0.045,0.803
0.035,-0.04,-0.461,60.9,-5.6,-10.5,0,2018,4,24,21,49,19.472,0.3924,-0.438,0.0408,0.8077
0.012,-0.082,-0.402,81.8,3.2,-13.8,0,2018,4,24,21,49,19.476,0.3911,-0.4278,0.0367,0.8139
-0.028,-0.097,-0.307,99.7,7.8,-18.3,0,2018,4,24,21,49,19.493,0.3898,-0.4142,0.0326,0.8217
-0.059,-0.05,-0.176,114,0,-21.8,0,2018,4,24,21,49,19.515,0.3878,-0.3982,0.0274,0.8307
-0.088,-0.019,0.053,120.8,-12.5,-23.7,0,2018,4,24,21,49,19.552,0.3847,-0.3813,0.0195,0.8403
-0.139,0.089,0.426,115.1,-30,-18.2,0,2018,4,24,21,49,19.575,0.3805,-0.3649,0.0096,0.8496
-0.45,1.777,1.726,77.9,-196.9,-2.4,1023,2018,4,24,21,49,19.58,0.3744,-0.3549,-0.0065,0.8565
-0.329,0.613,1.265,-18,-88.7,19.2,1023,2018,4,24,21,49,19.598,0.3653,-0.3613,-0.0327,0.8572
-0.161,-0.493,0.379,-60.8,-51.9,-6.1,1023,2018,4,24,21,49,19.615,0.3616,-0.3724,-0.0414,0.8536
-0.11,-0.598,0.073,-85.7,24.8,-5.8,1023,2018,4,24,21,49,19.649,0.3605,-0.3844,-0.038,0.8489
-0.086,-0.241,0.077,-91.8,91.3,-3,1023,2018,4,24,21,49,19.672,0.3643,-0.3935,-0.0225,0.8437
-0.137,-0.015,0.071,-102,91.2,4.3,1023,2018,4,24,21,49,19.676,0.3726,-0.402,-0.0012,0.8363
0.081,0.001,-0.263,-89.1,34.9,0,1023,2018,4,24,21,49,19.717,0.3772,-0.4119,0.0135,0.8293
0.071,-0.117,-0.254,-81.5,27.5,-12.8,1023,2018,4,24,21,49,19.72,0.3778,-0.4225,0.0233,0.8234
0.086,-0.225,-0.283,-70.9,44.2,-17.7,1023,2018,4,24,21,49,19.736,0.3779,-0.4309,0.0348,0.8186
0.084,-0.295,-0.289,-57.8,56.6,-24.7,0,2018,4,24,21,49,19.756,0.3783,-0.4366,0.0479,0.8147
0.054,-0.206,-0.249,-45.9,52,-35.7,0,2018,4,24,21,49,19.791,0.3776,-0.44,0.0614,0.8123
0.046,-0.227,-0.31,-33.9,54,-45.8,0,2018,4,24,21,49,19.814,0.3754,-0.4417,0.0747,0.8113
0.075,-0.186,-0.402,-16.6,54.8,-53,0,2018,4,24,21,49,19.819,0.3721,-0.441,0.0879,0.8119
0.063,-0.242,-0.522,2.3,73,-57.7,0,2018,4,24,21,49,19.836,0.3688,-0.4371,0.1014,0.8139
0.038,-0.231,-0.548,20.2,120.8,-59.6,0,2018,4,24,21,49,19.86,0.3679,-0.4281,0.1188,0.8168
0,-0.116,-0.467,36.1,158.6,-62.2,0,2018,4,24,21,49,19.877,0.3707,-0.4131,0.1423,0.8194
0.001,0,-0.458,54.3,159.8,-62.8,0,2018,4,24,21,49,19.896,0.3741,-0.3945,0.1667,0.8224
-0.075,-0.015,-0.415,72.3,164.4,-61.4,0,2018,4,24,21,49,19.914,0.378,-0.3727,0.1899,0.8258
-0.162,-0.114,-0.354,86.8,180.8,-64.8,0,2018,4,24,21,49,19.937,0.3826,-0.3475,0.2136,0.8289
-0.139,-0.06,-0.285,99.6,180.6,-71.3,0,2018,4,24,21,49,19.955,0.387,-0.319,0.2379,0.8317
-0.175,0.036,-0.005,108.4,143.3,-77.4,0,2018,4,24,21,49,19.978,0.389,-0.2895,0.2588,0.8353
-0.432,0.122,0.458,88.4,114.7,-81.4,0,2018,4,24,21,49,19.996,0.3883,-0.2622,0.2745,0.8396
-0.261,0.709,1.751,-1.9,177.6,-13.8,0,2018,4,24,21,49,20.02,0.3863,-0.2443,0.2903,0.8406
-0.303,0.408,0.079,-38.3,251.8,-12.4,0,2018,4,24,21,49,20.056,0.3924,-0.2305,0.3255,0.8287
0.057,-0.062,-0.28,-43,233.9,-29.3,0,2018,4,24,21,49,20.079,0.3964,-0.2182,0.3644,0.8138
0.026,-0.015,-0.224,-38.3,223.2,-25.9,0,2018,4,24,21,49,20.083,0.398,-0.2066,0.3999,0.7992
0.059,0.152,-0.009,-41.4,220.6,-19.6,0,2018,4,24,21,49,20.097,0.3999,-0.1947,0.4346,0.783
-0.002,0.027,-0.015,-42.8,161.7,-24,0,2018,4,24,21,49,20.116,0.3997,-0.1849,0.465,0.7678
0.085,-0.277,-0.331,-30.5,104.9,-40.5,0,2018,4,24,21,49,20.14,0.3963,-0.1786,0.4858,0.7582
0.122,-0.251,-0.473,-5.3,86.1,-54.9,0,2018,4,24,21,49,20.157,0.3912,-0.1703,0.5008,0.753
0.037,-0.216,-0.441,17.7,70.4,-65.4,0,2018,4,24,21,49,20.18,0.3863,-0.1587,0.5124,0.7502
0,-0.265,-0.426,34.5,52.6,-80.3,0,2018,4,24,21,49,20.198,0.3808,-0.1445,0.5203,0.7505
-0.027,-0.258,-0.448,50.8,44.6,-99,0,2018,4,24,21,49,20.221,0.374,-0.1275,0.526,0.753
-0.118,-0.118,-0.41,69.5,38.3,-113.9,0,2018,4,24,21,49,20.238,0.3663,-0.1069,0.5296,0.7574
-0.612,-0.035,1.214,-41.6,230.3,-75.6,0,2018,4,24,21,49,20.258,0.3568,-0.0869,0.5445,0.754
-0.232,0.645,0.374,-26.8,186.2,-101.1,0,2018,4,24,21,49,20.296,0.3444,-0.0669,0.5797,0.7353
-0.081,0.058,-0.088,-20.8,16.2,-107.5,0,2018,4,24,21,49,20.296,0.3288,-0.0546,0.5935,0.7325
-0.082,0.04,-0.054,-3.5,-27.4,-101.9,0,2018,4,24,21,49,20.32,0.3137,-0.0452,0.5944,0.739
-0.079,-0.005,-0.064,-4.6,-47,-94,0,2018,4,24,21,49,20.337,0.2997,-0.0371,0.5905,0.7483
-0.117,0.171,-0.008,-2.7,-61,-91.3,0,2018,4,24,21,49,20.36,0.2863,-0.0305,0.5844,0.7586
-0.064,0.502,0.117,2.9,-102.6,-83.3,1023,2018,4,24,21,49,20.378,0.2742,-0.0253,0.5743,0.7708
-0.035,0.795,0.196,6.2,-186.7,-66.3,1023,2018,4,24,21,49,20.401,0.2639,-0.024,0.5548,0.7886
-0.052,0.773,0.197,3.7,-268.7,-41.6,1023,2018,4,24,21,49,20.419,0.2558,-0.0287,0.5221,0.813
-0.137,0.532,0.2,-13.2,-288.6,-12.2,1023,2018,4,24,21,49,20.442,0.25,-0.0396,0.4811,0.8392
-0.125,0.396,0.155,-35.2,-253.6,12.7,1023,2018,4,24,21,49,20.462,0.2459,-0.055,0.4419,0.8608
-0.197,0.167,0.151,-61.2,-211.5,34.9,1023,2018,4,24,21,49,20.48,0.2435,-0.0741,0.4082,0.8766
-0.125,0.308,0.141,-83.9,-164.8,54.4,1023,2018,4,24,21,49,20.502,0.2427,-0.0965,0.3821,0.8864
-0.095,0.246,0.195,-105,-136.6,66.7,1023,2018,4,24,21,49,20.52,0.2432,-0.1215,0.3616,0.8917
-0.025,0.224,0.173,-121.7,-99.2,78,1023,2018,4,24,21,49,20.543,0.2447,-0.1488,0.3465,0.8932
-0.019,0.329,0.079,-131.1,-76.9,88,1023,2018,4,24,21,49,20.561,0.2477,-0.1772,0.3363,0.891
0.011,0.321,-0.021,-130.8,-77.2,97.1,0,2018,4,24,21,49,20.584,0.2519,-0.2064,0.3271,0.887
0.024,0.277,-0.11,-124.5,-88.9,102.7,0,2018,4,24,21,49,20.6,0.257,-0.2355,0.3162,0.8822
0.04,0.229,-0.18,-113.5,-107.2,105.5,0,2018,4,24,21,49,20.618,0.2622,-0.2639,0.3018,0.8777
0.014,0.12,-0.22,-102.7,-104.2,108.7,0,2018,4,24,21,49,20.641,0.2679,-0.2908,0.2851,0.8731
-0.005,0.041,-0.261,-92.9,-81.2,113.2,0,2018,4,24,21,49,20.66,0.275,-0.3155,0.2696,0.8672
0.011,-0.004,-0.41,-78.9,-61.1,117.9,0,2018,4,24,21,49,20.683,0.2845,-0.3372,0.2566,0.8598
0.01,-0.055,-0.492,-58.7,-43.7,120.2,0,2018,4,24,21,49,20.701,0.2962,-0.3553,0.2451,0.8519
-0.034,-0.114,-0.55,-38.1,-23.7,120,0,2018,4,24,21,49,20.724,0.3097,-0.3693,0.235,0.844
-0.046,-0.144,-0.574,-16.6,-1.1,116.8,0,2018,4,24,21,49,20.742,0.3253,-0.3787,0.227,0.8361
-0.043,-0.17,-0.57,8,13.5,112.8,0,2018,4,24,21,49,20.764,0.3423,-0.3833,0.2207,0.8289
