ax,ay,az,dpitch,droll,dyaw,heart,time_1,time_2,time_3,time_4,time_5,time_6,w,x,y,z
-0.073,0.83,0.514,117.4,-128.5,58.3,0,2018,5,17,22,33,41.684,0.1981,-0.3686,-0.1693,0.8922
0.008,0.385,0.662,38.8,-29.1,119.2,0,2018,5,17,22,33,41.689,0.2047,-0.3566,-0.1909,0.8913
0.268,0.52,0.51,-25.8,70,161.6,0,2018,5,17,22,33,41.706,0.2285,-0.3504,-0.195,0.887
0.346,0.499,0.138,-45.8,121.8,195.3,0,2018,5,17,22,33,41.729,0.2635,-0.3462,-0.189,0.8802
0.294,0.375,0.069,-55.7,176.3,227.4,0,2018,5,17,22,33,41.747,0.3064,-0.34,-0.1764,0.8713
0.205,0.313,0.051,-66.1,224.7,254.9,0,2018,5,17,22,33,41.77,0.3569,-0.3306,-0.1559,0.8596
0.111,0.107,0.066,-62.1,236.3,261.4,0,2018,5,17,22,33,41.787,0.4105,-0.3183,-0.1314,0.8442
0.036,0.144,0.214,-55.1,238,246.7,0,2018,5,17,22,33,41.805,0.4618,-0.3029,-0.106,0.8268
-0.115,-0.135,0.385,-47.1,201.3,230.1,0,2018,5,17,22,33,41.828,0.5082,-0.2875,-0.0821,0.8076
-0.532,-0.273,0.561,-47.2,78.9,183.2,0,2018,5,17,22,33,41.865,0.5447,-0.2782,-0.0678,0.7881
-0.939,-0.905,0.584,-68.9,-73.1,106.8,0,2018,5,17,22,33,41.887,0.5654,-0.2848,-0.0693,0.7709
-0.806,-1.33,0.244,-74.9,-155.2,14.3,0,2018,5,17,22,33,41.892,0.5674,-0.3068,-0.0814,0.7597
-0.563,-1.311,0.012,-70.8,-128,-62.7,0,2018,5,17,22,33,41.926,0.5569,-0.3313,-0.0917,0.756
-0.395,-0.91,-0.168,-54.2,-72.1,-125.5,0,2018,5,17,22,33,41.949,0.5394,-0.3509,-0.0925,0.7598
-0.38,-0.564,-0.271,-31.2,-76.6,-183.3,1023,2018,5,17,22,33,41.954,0.5147,-0.3657,-0.0876,0.7704
-0.348,-0.353,-0.412,9.3,-103.3,-214.9,1023,2018,5,17,22,33,41.972,0.4814,-0.3781,-0.0858,0.786
-0.351,-0.249,-0.283,43.9,-119.3,-225,1023,2018,5,17,22,33,41.986,0.4425,-0.3871,-0.089,0.8039
-0.41,0.014,-0.171,78.9,-110,-232,1023,2018,5,17,22,33,42.005,0.4012,-0.3903,-0.0941,0.8232
-0.301,0.292,-0.195,100.6,-94.6,-225.4,1023,2018,5,17,22,33,42.026,0.3591,-0.3879,-0.0993,0.843
-0.246,0.426,-0.197,104.3,-60.5,-206.7,1023,2018,5,17,22,33,42.064,0.3199,-0.3808,-0.1023,0.8614
-0.237,0.53,-0.054,88.5,-20.1,-167.1,1023,2018,5,17,22,33,42.087,0.2874,-0.3716,-0.1007,0.8769
-0.186,0.457,-0.056,97.5,-12.2,-147,1023,2018,5,17,22,33,42.091,0.2613,-0.3612,-0.0965,0.8898
-0.064,0.43,0.049,97.8,-72,-136.2,1023,2018,5,17,22,33,42.107,0.2333,-0.3495,-0.0988,0.9019
0.104,0.775,0.241,71.7,-37.8,-53.8,1023,2018,5,17,22,33,42.13,0.2141,-0.3399,-0.1064,0.9095
0.079,0.725,0.384,26.4,0.9,-14.4,1023,2018,5,17,22,33,42.15,0.2074,-0.3333,-0.1081,0.9133
0.084,0.842,0.381,-30,5.5,37,1023,2018,5,17,22,33,42.168,0.2096,-0.3337,-0.1073,0.9127
0.241,0.849,0.314,-66.3,-8.9,89.4,1023,2018,5,17,22,33,42.191,0.221,-0.3406,-0.1091,0.9073
0.346,0.596,0.154,-87.4,-33.9,128.6,1023,2018,5,17,22,33,42.21,0.2388,-0.3517,-0.116,0.8976
0.427,0.392,-0.004,-89.7,-44.6,159.3,1023,2018,5,17,22,33,42.235,0.2607,-0.3646,-0.1274,0.8847
0.43,0.229,-0.074,-78,-13.8,180,1023,2018,5,17,22,33,42.254,0.2869,-0.375,-0.1388,0.8704
0.352,0.18,-0.042,-51.6,1.7,185.4,1023,2018,5,17,22,33,42.272,0.3162,-0.3804,-0.1477,0.8564
0.397,0.09,-0.043,-11.6,-24.5,185.5,1023,2018,5,17,22,33,42.295,0.3439,-0.3808,-0.1597,0.8432
0.277,0.013,0.042,20.1,-18.8,193.3,1023,2018,5,17,22,33,42.312,0.3692,-0.3762,-0.1767,0.8311
-0.068,-0.608,-0.204,35.5,82.4,197.5,1023,2018,5,17,22,33,42.33,0.3989,-0.3636,-0.1865,0.8208
-0.175,-0.512,-0.146,33.4,184.7,175.6,0,2018,5,17,22,33,42.353,0.4327,-0.343,-0.181,0.8138
-0.153,-0.219,0.54,44.2,131,131.1,0,2018,5,17,22,33,42.372,0.4632,-0.3194,-0.1678,0.8094
-0.304,-0.472,1.267,14,-0.8,110.8,0,2018,5,17,22,33,42.389,0.4822,-0.3069,-0.1689,0.8029
-0.494,-1.051,0.691,-38.6,55.7,60.2,0,2018,5,17,22,33,42.412,0.4959,-0.3051,-0.1692,0.7951
-0.494,-0.675,0.44,-75.8,51,-5.2,0,2018,5,17,22,33,42.449,0.5041,-0.3073,-0.1558,0.7919
-0.447,-1.019,0.342,-95.5,18.5,-60.1,0,2018,5,17,22,33,42.472,0.5039,-0.3179,-0.1418,0.7904
-0.336,-0.79,0.163,-92.1,20.5,-120.3,0,2018,5,17,22,33,42.477,0.4942,-0.3313,-0.1259,0.7937
-0.291,-0.619,0.047,-100.5,43.5,-157.4,0,2018,5,17,22,33,42.493,0.4782,-0.3451,-0.1049,0.8007
-0.249,-0.286,-0.018,-109.9,71.4,-177.7,0,2018,5,17,22,33,42.515,0.4598,-0.3578,-0.0772,0.8089
-0.36,-0.131,-0.041,-117.1,73.6,-188.8,0,2018,5,17,22,33,42.532,0.4397,-0.3701,-0.0459,0.817
-0.433,-0.09,-0.139,-115.8,57.2,-191.7,0,2018,5,17,22,33,42.55,0.4172,-0.383,-0.0147,0.8239
-0.491,0.05,-0.159,-113.3,48.3,-186.6,0,2018,5,17,22,33,42.572,0.3935,-0.396,0.0135,0.8295
-0.567,0.048,-0.094,-111.2,49.9,-185.8,0,2018,5,17,22,33,42.591,0.3692,-0.408,0.0412,0.8339
-0.649,0.047,-0.146,-113,48,-186.5,0,2018,5,17,22,33,42.614,0.3449,-0.4194,0.0692,0.8368
-0.638,0.178,-0.177,-113.2,16.6,-184.9,0,2018,5,17,22,33,42.632,0.3185,-0.4312,0.0944,0.8388
-0.606,0.232,-0.229,-108.1,-37.2,-191.8,0,2018,5,17,22,33,42.654,0.2881,-0.4446,0.1134,0.8404
-0.504,0.218,-0.329,-101.4,-69.6,-183.5,0,2018,5,17,22,33,42.672,0.2534,-0.4588,0.124,0.8425
-0.552,0.099,-0.277,-95.9,-66.1,-176.7,0,2018,5,17,22,33,42.695,0.2186,-0.4722,0.1324,0.8435
-0.684,0.031,-0.339,-88.3,-36.9,-169.3,0,2018,5,17,22,33,42.713,0.187,-0.4835,0.1428,0.843
-0.626,0.129,-0.214,-74.1,-34,-164.7,0,2018,5,17,22,33,42.736,0.1579,-0.4919,0.1548,0.842
-0.564,0.198,-0.256,-55,-89.1,-169.9,0,2018,5,17,22,33,42.752,0.1255,-0.4981,0.1611,0.8426
-0.521,-0.086,-0.201,-47.3,-97.1,-168.8,1023,2018,5,17,22,33,42.775,0.0902,-0.5022,0.1623,0.8445
-0.454,0.193,-0.162,-24.8,-95.3,-170.9,1023,2018,5,17,22,33,42.794,0.056,-0.5039,0.1642,0.8461
-0.376,0.238,-0.148,-0.2,-129.1,-161,1023,2018,5,17,22,33,42.812,0.0215,-0.5014,0.1625,0.8495
-0.324,0.248,-0.076,20,-153.6,-135.1,1023,2018,5,17,22,33,42.835,-0.0128,-0.4953,0.1535,0.8549
-0.181,0.125,-0.268,26.7,-152.7,-105.3,1023,2018,5,17,22,33,42.853,-0.0435,-0.4879,0.1405,0.8603
-0.076,0.428,-0.144,21.1,-147,-66.4,1023,2018,5,17,22,33,42.876,-0.0687,-0.4808,0.1256,0.865
-0.108,0.419,-0.18,17.7,-141.1,-30,1023,2018,5,17,22,33,42.912,-0.0875,-0.4748,0.1079,0.869
-0.019,0.325,-0.426,13.6,-129.1,1.7,1023,2018,5,17,22,33,42.935,-0.1004,-0.47,0.0883,0.8724
-0.028,0.08,-0.255,-5.1,-95.1,35.1,1023,2018,5,17,22,33,42.94,-0.1061,-0.4677,0.0705,0.8745
-0.101,0.149,-0.154,-21.9,-86.4,63.3,1023,2018,5,17,22,33,42.956,-0.1059,-0.4685,0.0527,0.8754
-0.166,-0.069,0.102,-55.7,-63.2,86.7,1023,2018,5,17,22,33,42.98,-0.1009,-0.4734,0.0345,0.8743
-0.19,0.224,0.317,-89.3,-87.1,103.2,1023,2018,5,17,22,33,42.997,-0.0925,-0.4838,0.0148,0.87
-0.17,0.095,-0.267,-117.6,-90.3,129.7,1023,2018,5,17,22,33,43.02,-0.0836,-0.4979,-0.0119,0.863
-0.229,0.471,0.223,-174.1,-101.9,161.8,1023,2018,5,17,22,33,43.039,-0.0695,-0.5187,-0.0392,0.8512
-0.399,0.359,-0.01,-225.2,-149.2,202.4,1023,2018,5,17,22,33,43.077,-0.0518,-0.545,-0.0776,0.8332
-0.349,0.131,-0.529,-251.3,-184.1,241.4,1023,2018,5,17,22,33,43.077,-0.0322,-0.5744,-0.1251,0.8082
-0.142,-0.219,-0.836,-235.2,-165,256.4,1023,2018,5,17,22,33,43.1,-0.0095,-0.6011,-0.1766,0.7793
0.005,-0.2,-0.714,-215.2,-98.1,262.9,1023,2018,5,17,22,33,43.118,0.0186,-0.6215,-0.2208,0.7514
0.099,-0.116,-0.531,-211.4,-60.6,285.2,1023,2018,5,17,22,33,43.137,0.0547,-0.6377,-0.2598,0.723
0.242,-0.062,-0.378,-218,-31.2,301.3,1023,2018,5,17,22,33,43.161,0.0966,-0.6506,-0.2953,0.6928
0.289,0.007,-0.215,-211.4,-4.3,305.1,1023,2018,5,17,22,33,43.177,0.1422,-0.6599,-0.3274,0.661
0.201,-0.067,-0.074,-204.9,31.9,309.9,0,2018,5,17,22,33,43.201,0.1904,-0.6646,-0.3554,0.6289
0.095,-0.256,-0.096,-213,103.6,310.4,0,2018,5,17,22,33,43.218,0.2449,-0.6645,-0.3765,0.5971
0.243,-0.183,-0.083,-186.9,146.4,285.4,0,2018,5,17,22,33,43.241,0.3636,-0.6501,-0.3975,0.5357
0.229,-0.221,-0.289,-154.1,168.9,252.5,0,2018,5,17,22,33,43.259,0.4171,-0.6365,-0.4016,0.5093
0.35,-0.46,-0.528,-113.7,204.6,216.6,0,2018,5,17,22,33,43.282,0.4671,-0.6178,-0.4002,0.4898
0.635,-0.183,-0.654,-48.2,216.9,189.1,0,2018,5,17,22,33,43.299,0.5129,-0.5919,-0.3962,0.479
0.808,0.328,-0.344,47,97.5,150.8,0,2018,5,17,22,33,43.322,0.5435,-0.5652,-0.3992,0.4749
0.522,0.298,-0.241,153.9,-201.4,111.8,0,2018,5,17,22,33,43.338,0.5425,-0.5517,-0.426,0.4688
-0.047,-1.427,-0.389,217.4,-425.6,20.7,0,2018,5,17,22,33,43.357,0.4981,-0.5632,-0.4778,0.4541
-0.353,-1.944,0.271,188.5,-263.2,58,0,2018,5,17,22,33,43.38,0.446,-0.5727,-0.528,0.4406
-0.05,-0.464,0.29,167.2,-33.5,26.9,0,2018,5,17,22,33,43.399,0.4206,-0.5643,-0.5561,0.4418
0.202,-0.769,-0.177,188,102.2,-57.3,0,2018,5,17,22,33,43.437,0.4062,-0.5494,-0.5636,0.464
0.342,-0.466,-0.389,208.3,192.8,-92.4,0,2018,5,17,22,33,43.437,0.3947,-0.5288,-0.5569,0.5043
0.497,-0.174,-0.19,189.9,144.9,-111.4,0,2018,5,17,22,33,43.459,0.382,-0.5086,-0.5452,0.5459
0.527,-0.124,0.165,173.9,88.6,-126.3,0,2018,5,17,22,33,43.498,0.3629,-0.4939,-0.5362,0.5802
0.352,-0.246,0.114,152.9,112.5,-142.2,0,2018,5,17,22,33,43.521,0.3416,-0.4836,-0.5255,0.6108
0.406,-0.181,-0.058,121.2,179.7,-144.6,0,2018,5,17,22,33,43.526,0.326,-0.4726,-0.5053,0.6441
0.371,-0.136,0.064,94.4,192.7,-143.8,0,2018,5,17,22,33,43.54,0.3158,-0.4622,-0.4775,0.6771
0.111,-0.098,0.147,66.3,183.5,-142,0,2018,5,17,22,33,43.576,0.3071,-0.4542,-0.4468,0.7068
0.182,-0.108,0.034,39.7,178.7,-132.4,1023,2018,5,17,22,33,43.599,0.2998,-0.4482,-0.416,0.7321
0.206,-0.293,-0.241,16.9,244.2,-100.5,1023,2018,5,17,22,33,43.604,0.2983,-0.4425,-0.3819,0.7545
0.068,-0.042,-0.409,-6.3,380.4,-40.5,1023,2018,5,17,22,33,43.619,0.3128,-0.4296,-0.3353,0.7778
0.101,0.138,-0.33,-0.6,416.8,-22.4,1023,2018,5,17,22,33,43.643,0.3409,-0.4079,-0.275,0.801
-0.167,0.098,-0.099,47.1,183.3,-47.5,1023,2018,5,17,22,33,43.677,0.3562,-0.3875,-0.2311,0.8181
-0.487,-0.153,-0.184,82.4,-3,-40.3,1023,2018,5,17,22,33,43.699,0.3516,-0.375,-0.2222,0.8284
-0.593,-0.561,-0.329,77.6,56.3,-24.3,1023,2018,5,17,22,33,43.704,0.3444,-0.3639,-0.2235,0.8359
-0.434,-0.35,-0.452,76.3,200,-15.7,1023,2018,5,17,22,33,43.741,0.3474,-0.3453,-0.2065,0.8469
-0.572,0.266,-0.486,98.4,166.7,-24.2,1023,2018,5,17,22,33,43.764,0.3535,-0.3207,-0.1811,0.8598
-1.016,-0.04,-0.224,120.3,9.1,-65.5,1023,2018,5,17,22,33,43.768,0.3486,-0.2997,-0.1722,0.8711
-1.349,-0.179,0.162,106.3,-145.6,-91.6,1023,2018,5,17,22,33,43.782,0.328,-0.2896,-0.1868,0.8795
-1.31,-0.272,-0.008,99.6,-231.3,-135.8,1023,2018,5,17,22,33,43.805,0.2977,-0.2888,-0.217,0.8836
-0.998,-0.493,-0.15,84.2,-187.1,-173.4,1023,2018,5,17,22,33,43.826,0.2581,-0.2916,-0.2474,0.8871
-0.641,-0.156,-0.277,100.1,-177.1,-224.2,1023,2018,5,17,22,33,43.842,0.2139,-0.2939,-0.2674,0.8923
-0.481,0.118,-0.118,106.7,-215.8,-222.8,1023,2018,5,17,22,33,43.86,0.166,-0.2959,-0.2872,0.8957
-0.484,0.238,-0.475,144.9,-329.7,-222.1,1023,2018,5,17,22,33,43.883,0.107,-0.2947,-0.3241,0.8925
-0.329,-0.234,-0.458,175.8,-319.5,-209.2,1023,2018,5,17,22,33,43.902,0.0471,-0.2872,-0.3669,0.8835
-0.155,-0.099,-0.266,192.5,-224.2,-196,1023,2018,5,17,22,33,43.925,-0.0096,-0.273,-0.3991,0.8752
-0.24,0.062,0.026,188.2,-180.1,-178.9,1023,2018,5,17,22,33,43.962,-0.0609,-0.2564,-0.4188,0.8689
-0.303,0.407,-0.019,190.4,-198,-164.9,0,2018,5,17,22,33,43.985,-0.1085,-0.2381,-0.436,0.861
-0.383,0.117,-0.032,201.7,-232.6,-142.5,0,2018,5,17,22,33,43.99,-0.1556,-0.2155,-0.458,0.8482
-0.266,-0.35,0.36,175,-162.6,-121.6,0,2018,5,17,22,33,44.006,-0.1975,-0.1921,-0.4773,0.8343
-0.281,0.141,0.601,137.3,-117.7,-115.7,0,2018,5,17,22,33,44.026,-0.2318,-0.1749,-0.486,0.8242
-0.35,0.312,0.566,100.6,-185.8,-99.6,0,2018,5,17,22,33,44.063,-0.2617,-0.1607,-0.4993,0.8101
-0.345,-0.08,0.58,55.8,-221.2,-80.6,0,2018,5,17,22,33,44.086,-0.2871,-0.1475,-0.523,0.7888
-0.07,-0.255,0.638,2.4,-169.6,-73.5,0,2018,5,17,22,33,44.09,-0.3048,-0.1407,-0.5462,0.7673
0.012,-0.028,0.555,-38.5,-148,-76.7,0,2018,5,17,22,33,44.104,-0.3165,-0.1424,-0.5655,0.748
0.013,-0.071,0.152,-59.1,-137.6,-74.1,0,2018,5,17,22,33,44.126,-0.3253,-0.1484,-0.5853,0.7276
0.034,-0.251,0.193,-79.5,-61.1,-73,0,2018,5,17,22,33,44.144,-0.3294,-0.1591,-0.5996,0.7117
0.229,-0.033,0.169,-87.3,-47.4,-81.9,0,2018,5,17,22,33,44.166,-0.3316,-0.1747,-0.6086,0.6992
0.181,-0.046,0.193,-85.6,-59.6,-103,0,2018,5,17,22,33,44.203,-0.3352,-0.1918,-0.6174,0.6852
-0.004,-0.117,0.31,-95.9,-11.8,-119.9,0,2018,5,17,22,33,44.226,-0.3406,-0.2122,-0.6238,0.6706
0.017,-0.186,0.378,-120.1,92.3,-118.6,0,2018,5,17,22,33,44.232,-0.3413,-0.2403,-0.6209,0.6634
0.031,0.04,0.505,-148.3,158.9,-105.6,0,2018,5,17,22,33,44.25,-0.3342,-0.2758,-0.6089,0.6643
-0.038,0.152,0.627,-190.8,221.8,-76.5,0,2018,5,17,22,33,44.267,-0.3171,-0.316,-0.5918,0.6702
0.118,0.304,0.318,-224.6,281.4,-43.7,0,2018,5,17,22,33,44.291,-0.2877,-0.3604,-0.5698,0.68
0.399,0.507,0.048,-228.7,325,8.5,0,2018,5,17,22,33,44.306,-0.2472,-0.4039,-0.543,0.6934
0.41,0.571,0.168,-233.3,368.5,64.8,0,2018,5,17,22,33,44.324,-0.1955,-0.442,-0.5123,0.7098
0.275,0.593,0,-233,388.5,100.6,0,2018,5,17,22,33,44.347,-0.1338,-0.475,-0.478,0.7265
0.38,0.769,-0.009,-219.4,328.4,126.6,0,2018,5,17,22,33,44.365,-0.0698,-0.5016,-0.4449,0.7385
0.306,0.523,0.18,-196.6,195.2,153.6,0,2018,5,17,22,33,44.388,-0.0125,-0.5197,-0.4256,0.7406
0.036,0.049,0.174,-186.1,144.1,164.6,0,2018,5,17,22,33,44.424,0.0364,-0.532,-0.4199,0.7343
0.027,-0.062,-0.114,-171.6,144.6,160.9,1023,2018,5,17,22,33,44.447,0.0855,-0.5413,-0.4138,0.7268
-0.194,0.171,-0.249,-127.7,-46.1,142.1,1023,2018,5,17,22,33,44.451,0.1201,-0.5488,-0.4175,0.7141
-0.327,-0.283,-0.064,-106.4,-200.3,135.8,1023,2018,5,17,22,33,44.47,0.1313,-0.5556,-0.4461,0.6892
-0.308,-0.598,0.273,-124.9,-57.6,136.7,1023,2018,5,17,22,33,44.488,0.1423,-0.5615,-0.4735,0.6634
-0.252,-0.405,0.163,-148.3,129.4,139.2,1023,2018,5,17,22,33,44.511,0.1752,-0.5643,-0.4774,0.6502
-0.317,0.157,0.146,-121,65.8,139.8,1023,2018,5,17,22,33,44.548,0.2131,-0.5646,-0.4732,0.6416
-0.494,-0.096,0.201,-90.5,-22.6,156.5,1023,2018,5,17,22,33,44.548,0.2395,-0.5631,-0.4828,0.6263
-0.339,-0.273,0.313,-86.4,53.7,155.6,1023,2018,5,17,22,33,44.573,0.2643,-0.5588,-0.4939,0.6114
-0.214,-0.269,0.218,-82.1,156.1,149.5,1023,2018,5,17,22,33,44.59,0.2994,-0.5488,-0.4925,0.6054
-0.311,-0.097,0.01,-56.9,99.3,130.7,1023,2018,5,17,22,33,44.608,0.3328,-0.5368,-0.4875,0.6028
-0.162,-0.284,0.146,-47.7,38.5,116.7,1023,2018,5,17,22,33,44.645,0.3555,-0.5275,-0.4899,0.5959
-0.087,-0.336,0.16,-53.8,89.7,112.1,1023,2018,5,17,22,33,44.645,0.378,-0.519,-0.4911,0.5886
-0.023,-0.229,0.176,-91.9,202.3,107.1,1023,2018,5,17,22,33,44.668,0.4085,-0.5076,-0.4805,0.5869
-0.136,-0.234,0.208,-114.7,322.1,119.2,1023,2018,5,17,22,33,44.707,0.4522,-0.4887,-0.4549,0.5912
-0.098,0.065,0.222,-122.1,354.3,129.7,1023,2018,5,17,22,33,44.731,0.5028,-0.4629,-0.4189,0.5977
-0.392,0.531,0.313,-113.8,273.4,113.9,1023,2018,5,17,22,33,44.735,0.5495,-0.4371,-0.3847,0.599
-0.305,0.319,0.199,-101.8,216.6,133.8,1023,2018,5,17,22,33,44.753,0.5877,-0.4162,-0.3587,0.5937
-0.31,-0.012,0.142,-111.3,209.9,143.9,1023,2018,5,17,22,33,44.789,0.6232,-0.3965,-0.3358,0.5843
-0.203,0.159,0.14,-120.4,238.9,144.7,1023,2018,5,17,22,33,44.81,0.6598,-0.3749,-0.3095,0.5728
-0.543,0.279,0.067,-123,191.9,155.8,0,2018,5,17,22,33,44.817,0.6956,-0.353,-0.2831,0.5578
-0.273,0.292,0.022,-106.4,101,141.7,0,2018,5,17,22,33,44.833,0.7241,-0.3391,-0.2642,0.5392
-0.353,0.122,0.004,-110.8,34.6,134.9,0,2018,5,17,22,33,44.856,0.7453,-0.3352,-0.2521,0.5181
-0.304,0.092,-0.023,-112.9,-3.3,143.2,0,2018,5,17,22,33,44.872,0.7634,-0.3373,-0.244,0.4936
-0.194,0.157,-0.199,-103.8,-52.3,152.2,0,2018,5,17,22,33,44.891,0.7783,-0.3443,-0.2408,0.4664
-0.314,0.044,-0.235,-104.6,-42.2,160.2,0,2018,5,17,22,33,44.927,0.7919,-0.353,-0.2402,0.4363
-0.376,0.039,-0.31,-94.3,-19.1,169.3,0,2018,5,17,22,33,44.951,0.8065,-0.3578,-0.2383,0.4057
-0.221,0.048,-0.241,-80.5,-41.4,157.8,0,2018,5,17,22,33,44.955,0.8198,-0.3607,-0.2379,0.3756
-0.104,-0.167,-0.212,-59.9,-119.2,120,0,2018,5,17,22,33,44.974,0.8264,-0.3712,-0.2412,0.3476
-0.109,-0.159,-0.204,-48.9,-173,73.5,0,2018,5,17,22,33,44.992,0.8239,-0.3933,-0.2483,0.3235
-0.185,-0.083,-0.21,-47.2,-133.2,55.7,0,2018,5,17,22,33,45.015,0.8183,-0.4158,-0.2548,0.304
-0.078,-0.054,-0.19,-50.2,-90.4,49.7,0,2018,5,17,22,33,45.033,0.8153,-0.4315,-0.2566,0.2883
-0.046,0.064,-0.067,-49.7,-118,41.9,0,2018,5,17,22,33,45.056,0.8121,-0.4462,-0.2581,0.2731
-0.001,0.016,-0.054,-37.4,-196.7,27.2,0,2018,5,17,22,33,45.077,0.8034,-0.4684,-0.262,0.2576
-0.029,-0.02,-0.083,-33,-294,-0.5,0,2018,5,17,22,33,45.092,0.7844,-0.504,-0.2694,0.2409
-0.08,-0.156,-0.152,-28.2,-380.9,-43.5,0,2018,5,17,22,33,45.109,0.753,-0.5526,-0.2774,0.2246
-0.149,-0.414,-0.231,-26.4,-389.6,-93.6,0,2018,5,17,22,33,45.133,0.7116,-0.6079,-0.2815,0.2113
-0.246,-0.329,-0.369,-8.3,-274.2,-124.7,0,2018,5,17,22,33,45.151,0.6708,-0.6552,-0.2792,0.2063
-0.315,-0.249,-0.47,8.2,-105.8,-144.9,0,2018,5,17,22,33,45.174,0.6446,-0.6827,-0.2699,0.2131
-0.377,-0.159,-0.667,37.3,-43.8,-171.6,0,2018,5,17,22,33,45.192,0.63,-0.6961,-0.2556,0.2304
-0.459,-0.088,-0.852,91,-52.8,-196.6,1023,2018,5,17,22,33,45.215,0.6136,-0.7065,-0.2418,0.2564
-0.499,-0.197,-0.951,152.4,-48.8,-212.4,1023,2018,5,17,22,33,45.234,0.592,-0.7147,-0.2318,0.2911
-0.711,-0.203,-0.982,218.9,-34.7,-231.6,1023,2018,5,17,22,33,45.257,0.5673,-0.7175,-0.2252,0.3354
-0.874,-0.228,-0.796,267.4,6,-240,1023,2018,5,17,22,33,45.275,0.5406,-0.7127,-0.2205,0.3886
-0.879,-0.175,-0.516,286.7,41.9,-249.3,1023,2018,5,17,22,33,45.296,0.5159,-0.6989,-0.214,0.4467
-0.575,-0.068,-0.331,295.3,26,-252.5,1023,2018,5,17,22,33,45.315,0.4883,-0.6807,-0.2063,0.5054
-0.344,0.056,-0.206,295.2,16.4,-248.9,1023,2018,5,17,22,33,45.338,0.4569,-0.6603,-0.1991,0.5617
-0.269,0.069,0.007,279.9,2.1,-224.8,1023,2018,5,17,22,33,45.355,0.4239,-0.6382,-0.1939,0.6126
-0.366,-0.084,0.368,254.4,2.4,-225.5,1023,2018,5,17,22,33,45.373,0.39,-0.6157,-0.1884,0.6581
-0.498,-0.189,0.386,212.8,26.8,-230.3,1023,2018,5,17,22,33,45.396,0.3566,-0.5948,-0.1776,0.6981
-0.451,0.035,0.148,176.9,49.9,-238.7,1023,2018,5,17,22,33,45.415,0.3258,-0.5752,-0.1593,0.7331
-0.372,0.199,0.507,162.4,43.4,-230.2,1023,2018,5,17,22,33,45.436,0.2952,-0.5565,-0.1389,0.764
-0.456,0.137,0.78,135.6,22.1,-232.4,1023,2018,5,17,22,33,45.453,0.2641,-0.5399,-0.1191,0.7902
-0.396,0.614,0.526,126.9,-84.1,-238.7,1023,2018,5,17,22,33,45.476,0.226,-0.5274,-0.1056,0.8121
-0.398,0.613,0.269,123.6,-226.8,-201.2,1023,2018,5,17,22,33,45.513,0.1769,-0.5193,-0.1129,0.8283
-0.556,-0.036,0.483,120.3,-237.5,-151.4,1023,2018,5,17,22,33,45.536,0.1268,-0.5117,-0.136,0.8387
-0.563,0.217,0.772,94.3,-222.7,-137.1,1023,2018,5,17,22,33,45.54,0.083,-0.5036,-0.158,0.8452
-0.471,0.612,0.563,59.6,-281.9,-96,1023,2018,5,17,22,33,45.575,0.0413,-0.4988,-0.1849,0.8457
-0.443,0.697,0.034,29.3,-360.8,-15.7,1023,2018,5,17,22,33,45.597,0.0037,-0.4956,-0.2277,0.8381
-0.544,0.432,-0.425,-9.5,-379.6,52.4,1023,2018,5,17,22,33,45.602,-0.0252,-0.4923,-0.2834,0.8225
-0.309,0.476,-0.407,-55.2,-371.3,91.7,1023,2018,5,17,22,33,45.62,-0.0453,-0.4906,-0.3433,0.7995
-0.157,0.532,-0.457,-100.5,-364.4,118.6,1023,2018,5,17,22,33,45.638,-0.0569,-0.4912,-0.4033,0.7698
-0.129,0.559,-0.422,-141.3,-329,138,0,2018,5,17,22,33,45.661,-0.0604,-0.494,-0.4609,0.7347
-0.142,0.551,-0.433,-176.1,-289.6,155.5,0,2018,5,17,22,33,45.677,-0.0547,-0.4983,-0.5141,0.6959
0.065,0.234,-0.41,-181.8,-250,174.8,0,2018,5,17,22,33,45.715,-0.0422,-0.5015,-0.5626,0.6557
0.077,-0.404,-0.129,-187.7,-133.5,187.7,0,2018,5,17,22,33,45.715,-0.02,-0.5019,-0.6018,0.6208
0.124,-0.791,0.308,-222.4,28.8,183.2,0,2018,5,17,22,33,45.738,0.0178,-0.5036,-0.6236,0.5976
0.051,-0.286,0.446,-255.9,92.7,182.7,0,2018,5,17,22,33,45.777,0.0697,-0.508,-0.6299,0.5832
-0.015,-0.067,0.345,-258.3,51.8,203.6,0,2018,5,17,22,33,45.8,0.124,-0.5115,-0.6355,0.5647
-0.127,-0.78,-0.062,-235.8,79.1,213.8,0,2018,5,17,22,33,45.805,0.1772,-0.5104,-0.6428,0.5429
-0.069,-1.276,-0.201,-192.4,215.3,205.3,0,2018,5,17,22,33,45.821,0.2334,-0.5015,-0.6406,0.5324
0.098,-0.754,0.018,-149.1,367.4,200,0,2018,5,17,22,33,45.856,0.2974,-0.4808,-0.622,0.5416
0.136,0.276,0.011,-77.7,351.8,191.7,0,2018,5,17,22,33,45.879,0.3591,-0.4487,-0.5957,0.5609
0.135,0.494,-0.031,3.7,169.4,197.6,0,2018,5,17,22,33,45.883,0.4007,-0.4153,-0.5827,0.572
-0.001,-0.122,-0.172,48,143.4,216.2,0,2018,5,17,22,33,45.899,0.4279,-0.3811,-0.5864,0.5723
-0.27,-0.633,-0.135,61.2,231.5,185.8,0,2018,5,17,22,33,45.937,0.4547,-0.3397,-0.5845,0.5797
-0.357,-0.587,0.192,55.5,271.1,135.2,1023,2018,5,17,22,33,45.937,0.4792,-0.2959,-0.5724,0.5958
-0.11,-0.501,0.402,25.5,334.3,98.6,1023,2018,5,17,22,33,45.958,0.5021,-0.2541,-0.5494,0.6175
-0.017,-0.052,0.289,-8.6,391.8,85.5,1023,2018,5,17,22,33,45.998,0.5262,-0.2114,-0.5132,0.6441
-0.085,0.061,0.404,-45.2,366.8,69.5,1023,2018,5,17,22,33,46.019,0.5503,-0.1719,-0.4684,0.6693
-0.284,-0.029,0.76,-83.3,284.8,67,1023,2018,5,17,22,33,46.024,0.5719,-0.1431,-0.425,0.6867
0.013,0.444,0.789,-87.2,90.3,65.2,1023,2018,5,17,22,33,46.04,0.5913,-0.1288,-0.3933,0.692
0.034,0.289,0.254,-66.2,-195.1,46.4,1023,2018,5,17,22,33,46.062,0.602,-0.1407,-0.394,0.6799
0.141,0.074,-0.209,-29.4,-406,8.9,1023,2018,5,17,22,33,46.082,0.5997,-0.1775,-0.4262,0.6535
0.179,-0.086,-0.437,0.2,-521.5,-21,1023,2018,5,17,22,33,46.105,0.583,-0.2295,-0.477,0.6163
0.344,-0.592,-1.137,72.5,-432.3,-58.2,1023,2018,5,17,22,33,46.123,0.5532,-0.278,-0.5305,0.5789
0.527,-0.667,-0.901,119.7,-179.4,-56.6,1023,2018,5,17,22,33,46.146,0.522,-0.303,-0.5667,0.5607
0.303,-0.017,-0.525,151.6,20.5,-35.7,1023,2018,5,17,22,33,46.166,0.5001,-0.2995,-0.5829,0.5659
0.174,0.19,-0.423,161.8,116.5,-3.9,1023,2018,5,17,22,33,46.183,0.4857,-0.2794,-0.588,0.5832
0.045,0.021,-0.278,151.7,247.1,23.3,1023,2018,5,17,22,33,46.198,0.4791,-0.2468,-0.5831,0.6078
0.124,0.949,0.1,127.9,324.7,30.8,1023,2018,5,17,22,33,46.222,0.4803,-0.2026,-0.5623,0.6417
-0.025,1.267,0.653,98.9,106.1,36.9,1023,2018,5,17,22,33,46.24,0.4798,-0.1683,-0.5481,0.664
-0.188,-0.393,0.773,42.4,38.5,48.2,1023,2018,5,17,22,33,46.263,0.4801,-0.1522,-0.5496,0.6665
0.05,-0.429,0.215,7.4,129.9,39.7,1023,2018,5,17,22,33,46.281,0.4845,-0.1387,-0.5428,0.6717
0.15,0.094,-0.133,-4.9,211.3,41.1,1023,2018,5,17,22,33,46.304,0.4936,-0.1199,-0.5223,0.6848
0.094,0.424,-0.058,11.6,175.5,38.6,1023,2018,5,17,22,33,46.325,0.5018,-0.0984,-0.4988,0.6996
0.094,0.145,-0.077,38.1,90.8,39.2,0,2018,5,17,22,33,46.343,0.5067,-0.0799,-0.4859,0.7075
-0.003,-0.142,0.083,55.7,-5,26.9,0,2018,5,17,22,33,46.365,0.5073,-0.0678,-0.4858,0.7084
-0.012,-0.387,-0.016,58,16,13.9,0,2018,5,17,22,33,46.384,0.5048,-0.0589,-0.4918,0.7069
-0.03,-0.418,0.16,44.1,67.7,-4.5,0,2018,5,17,22,33,46.406,0.5012,-0.0486,-0.491,0.7107
-0.041,-0.345,0.137,19.7,137.7,-9.8,0,2018,5,17,22,33,46.425,0.4981,-0.0366,-0.4809,0.7205
-0.045,0.159,0.032,-0.2,146.4,-3.2,0,2018,5,17,22,33,46.447,0.4974,-0.0229,-0.4626,0.7334
-0.08,0.097,-0.067,-7.8,108.1,-2.1,0,2018,5,17,22,33,46.464,0.4978,-0.0129,-0.4463,0.7434
-0.008,0.112,-0.183,0.6,78.6,-5.9,0,2018,5,17,22,33,46.5,0.4985,-0.0052,-0.4337,0.7505
-0.025,0.219,-0.07,12.8,15.2,-5.8,0,2018,5,17,22,33,46.522,0.4968,-0.0006,-0.4282,0.7548
-0.129,0.132,-0.097,26,-52.9,0,0,2018,5,17,22,33,46.527,0.4952,0.0002,-0.4328,0.7532
-0.083,0.123,-0.126,37,-113.6,-1.9,0,2018,5,17,22,33,46.563,0.4927,-0.0031,-0.4465,0.7468
-0.011,-0.05,-0.169,44.2,-135.7,-0.7,0,2018,5,17,22,33,46.586,0.4886,-0.0092,-0.4677,0.7364
0.073,-0.226,-0.135,34.7,-84.6,0.2,0,2018,5,17,22,33,46.59,0.4851,-0.0138,-0.4861,0.7266
0.117,-0.027,-0.106,29.4,-39.6,1.8,0,2018,5,17,22,33,46.607,0.4826,-0.0144,-0.4956,0.7219
0.109,0.074,-0.173,39,-47,1.9,0,2018,5,17,22,33,46.644,0.4795,-0.0139,-0.5041,0.7181
0.096,0.091,-0.127,43,-13.3,8.8,0,2018,5,17,22,33,46.667,0.4763,-0.0109,-0.5117,0.7149
0.081,0.245,-0.079,42.2,24.1,23.8,0,2018,5,17,22,33,46.672,0.4745,-0.0029,-0.5148,0.7139
0.09,0.206,0.113,40,12.2,31,0,2018,5,17,22,33,46.693,0.4743,0.0068,-0.5156,0.7134
0.004,0.063,0.31,16.3,30,46.4,0,2018,5,17,22,33,46.72,0.4766,0.0156,-0.5157,0.7117
0.057,-0.126,0.173,-17.5,84.1,51,0,2018,5,17,22,33,46.726,0.4826,0.0246,-0.5088,0.7124
0.135,-0.128,0.302,-69,180.3,62.3,1023,2018,5,17,22,33,46.764,0.4929,0.0352,-0.4879,0.7194
0.221,0.297,0.118,-82.4,186.1,60.9,1023,2018,5,17,22,33,46.787,0.5059,0.0474,-0.4554,0.7309
-0.015,-0.204,-0.295,-72.2,111.6,58.5,1023,2018,5,17,22,33,46.792,0.5183,0.0548,-0.4299,0.7372
-0.015,-0.463,-0.249,-65.5,144.2,53.3,1023,2018,5,17,22,33,46.805,0.5295,0.0614,-0.4071,0.7416
0.059,-0.501,-0.527,-39.1,188.5,31.1,1023,2018,5,17,22,33,46.826,0.5364,0.073,-0.3796,0.7501
0.023,-0.094,-0.631,1.9,179.4,10.1,1023,2018,5,17,22,33,46.866,0.5377,0.0897,-0.3526,0.7605
-0.248,-0.298,-0.481,28.2,159.8,2.5,1023,2018,5,17,22,33,46.889,0.5345,0.1075,-0.3329,0.7693
-0.256,-0.358,-0.454,40.7,257.1,-10.3,1023,2018,5,17,22,33,46.894,0.5276,0.1312,-0.308,0.7807
-0.174,0.547,-0.149,68.2,204.8,-24.5,1023,2018,5,17,22,33,46.909,0.5153,0.161,-0.2784,0.7942
-0.388,0.205,0.15,66,60.3,-12.1,1023,2018,5,17,22,33,46.933,0.506,0.1807,-0.268,0.7996
-0.418,0.214,0.602,37.7,20.1,12.7,1023,2018,5,17,22,33,46.948,0.5023,0.191,-0.2684,0.7994
-0.388,0.35,0.971,-10.4,-33.8,46.4,1023,2018,5,17,22,33,46.969,0.5061,0.194,-0.269,0.796
-0.353,-0.282,0.557,-48.5,-74.4,42.2,1023,2018,5,17,22,33,46.986,0.5164,0.1861,-0.2729,0.79
-0.071,0.093,0.175,-52.7,-105.5,38.7,1023,2018,5,17,22,33,47.008,0.5267,0.1727,-0.2789,0.784
-0.084,0.46,-0.215,-38,-148.4,61.6,1023,2018,5,17,22,33,47.044,0.5392,0.1553,-0.292,0.7744
-0.035,0.563,-0.14,4.6,-250.4,55.2,1023,2018,5,17,22,33,47.066,0.5535,0.1392,-0.3133,0.7589
-0.131,0.254,-0.159,20,-392.1,38.3,1023,2018,5,17,22,33,47.071,0.566,0.1115,-0.3571,0.7345
0.05,-0.248,-0.293,15.4,-381.9,27.4,1023,2018,5,17,22,33,47.089,0.5745,0.0754,-0.41,0.7042
0.185,-0.071,0,-4,-228.5,42.1,1023,2018,5,17,22,33,47.111,0.5821,0.0485,-0.4463,0.6778
0.182,-0.052,0.254,-21.6,-158.7,25.3,1023,2018,5,17,22,33,47.13,0.5883,0.0307,-0.466,0.6599
0.289,-0.237,-0.157,-17.2,-121.7,22.2,0,2018,5,17,22,33,47.153,0.5929,0.0153,-0.4805,0.6458
0.284,-0.073,0.24,-29.3,47.6,11.3,0,2018,5,17,22,33,47.19,0.6031,0.0155,-0.4731,0.6419
-0.035,-1.197,0.393,-73.6,128.8,-15.5,0,2018,5,17,22,33,47.212,0.6071,0.0189,-0.4586,0.6486
0.117,-0.97,0.13,-124.1,328.6,-47.3,0,2018,5,17,22,33,47.217,0.6097,0.0283,-0.4216,0.6704
0.2,-0.065,-0.343,-159.6,470.3,-18.8,0,2018,5,17,22,33,47.231,0.6117,0.0535,-0.3571,0.7038
0.441,1.122,0.148,-189.3,424.7,21.5,0,2018,5,17,22,33,47.249,0.6161,0.0821,-0.2787,0.732
0.394,1.053,0.658,-195.3,163.5,47.5,0,2018,5,17,22,33,47.272,0.6247,0.0905,-0.2191,0.7439
0.21,0.09,0.711,-213.2,-35.6,55.9,0,2018,5,17,22,33,47.308,0.638,0.071,-0.19,0.7427
0.173,-0.052,0.531,-243.8,-89.9,46.1,0,2018,5,17,22,33,47.331,0.6527,0.0352,-0.1729,0.7367
-0.124,-0.522,0.245,-271.1,-125.6,22.7,0,2018,5,17,22,33,47.336,0.665,-0.0095,-0.1575,0.7299
-0.105,-0.41,-0.032,-280.2,-157.3,-12.5,0,2018,5,17,22,33,47.352,0.6717,-0.0607,-0.1434,0.7241
-0.155,-0.331,-0.157,-279.7,-201.4,-50.8,0,2018,5,17,22,33,47.375,0.6714,-0.1177,-0.1329,0.7194
-0.152,-0.271,-0.247,-266.9,-245.5,-86.4,0,2018,5,17,22,33,47.392,0.6627,-0.1796,-0.1278,0.7156
-0.159,-0.176,-0.213,-251.8,-257.4,-111.2,0,2018,5,17,22,33,47.412,0.6463,-0.243,-0.1266,0.7121
-0.211,0.161,-0.112,-239.6,-265.7,-118.3,0,2018,5,17,22,33,47.435,0.6248,-0.3048,-0.1262,0.7076
-0.219,0.285,-0.346,-210.7,-282.4,-130.2,0,2018,5,17,22,33,47.451,0.5984,-0.3643,-0.1289,0.7017
-0.111,0.295,-0.5,-169.6,-285.2,-128,0,2018,5,17,22,33,47.469,0.5673,-0.4197,-0.1355,0.6953
-0.077,0.401,-0.525,-115.6,-289,-113.2,0,2018,5,17,22,33,47.492,0.5336,-0.4674,-0.1472,0.6892
0.005,0.386,-0.458,-59,-285.8,-83.9,0,2018,5,17,22,33,47.51,0.4997,-0.5065,-0.1656,0.6827
0.11,0.196,-0.309,-10,-265.3,-45.3,1023,2018,5,17,22,33,47.533,0.4676,-0.5358,-0.1896,0.6768
0.052,-0.073,-0.255,34.9,-191.5,1.3,1023,2018,5,17,22,33,47.553,0.4426,-0.5534,-0.2156,0.6717
-0.222,-0.087,-0.16,70.9,-95.6,32.8,1023,2018,5,17,22,33,47.576,0.4292,-0.557,-0.2376,0.67
-0.32,0.092,-0.056,101.2,-34.2,45.7,1023,2018,5,17,22,33,47.594,0.4244,-0.5495,-0.2547,0.673
-0.341,0.175,0.146,110.5,-18.6,56.2,1023,2018,5,17,22,33,47.612,0.4231,-0.5365,-0.27,0.6783
-0.393,-0.14,0.194,101.2,21,65.1,1023,2018,5,17,22,33,47.635,0.4247,-0.5211,-0.2838,0.6837
-0.264,-0.119,0.085,86.2,136.6,79.7,1023,2018,5,17,22,33,47.654,0.4357,-0.5006,-0.2879,0.6903
-0.094,0.065,0.026,81.2,213,68.3,1023,2018,5,17,22,33,47.676,0.4567,-0.4724,-0.2775,0.7007
-0.22,0.275,0.286,101.2,92.3,40.8,1023,2018,5,17,22,33,47.714,0.473,-0.4445,-0.2684,0.7116
-0.465,-0.207,0.302,97.6,-96.6,18.5,1023,2018,5,17,22,33,47.737,0.4701,-0.4321,-0.2811,0.7164
-0.356,-0.932,0.176,74.1,-57.5,2.4,1023,2018,5,17,22,33,47.741,0.46,-0.4289,-0.3005,0.7169
-0.163,-0.649,0.117,61.4,43.6,-39.1,1023,2018,5,17,22,33,47.755,0.4544,-0.4213,-0.3035,0.7237
-0.18,-0.209,0.21,50,14.9,-62.5,1023,2018,5,17,22,33,47.792,0.4471,-0.4141,-0.2998,0.7338
-0.056,-0.09,0.2,37.1,-1.6,-71.3,1023,2018,5,17,22,33,47.815,0.4364,-0.4119,-0.2978,0.7423
0.033,0.101,0.071,32.2,-5.4,-71.1,1023,2018,5,17,22,33,47.82,0.4253,-0.4108,-0.2949,0.7505
0.026,0.079,-0.119,41,-26.4,-67.4,1023,2018,5,17,22,33,47.836,0.4131,-0.411,-0.2941,0.7575
0.016,0.337,0.019,43.1,-34.6,-46,1023,2018,5,17,22,33,47.873,0.4004,-0.4109,-0.2975,0.763
0.092,0.49,0.07,36.1,-12.6,-19.7,1023,2018,5,17,22,33,47.873,0.3926,-0.4088,-0.301,0.7668
0.07,0.418,-0.089,32,-0.5,2.8,0,2018,5,17,22,33,47.896,0.3889,-0.4051,-0.3037,0.7695
0.082,0.519,0.006,15.2,39.6,40.8,0,2018,5,17,22,33,47.935,0.3922,-0.3995,-0.3042,0.7706
0.036,0.605,-0.05,6.8,60,77.9,0,2018,5,17,22,33,47.958,0.4033,-0.3912,-0.3021,0.77
0.127,0.644,-0.134,1.6,65.6,123.8,0,2018,5,17,22,33,47.962,0.421,-0.381,-0.3008,0.7661
0.241,0.538,-0.205,15.8,50,156.9,0,2018,5,17,22,33,47.981,0.4431,-0.3681,-0.3028,0.7592
0.209,0.6,-0.23,34.2,50,200.5,0,2018,5,17,22,33,47.996,0.4687,-0.351,-0.3097,0.749
0.048,0.224,-0.326,85.3,-60,245.4,0,2018,5,17,22,33,48.014,0.5204,-0.3116,-0.3457,0.7158
0.084,-0.089,-0.327,116.3,-39.7,254.6,0,2018,5,17,22,33,48.037,0.5415,-0.2886,-0.3756,0.6944
-0.11,-0.104,-0.329,132.4,28.9,261.6,0,2018,5,17,22,33,48.074,0.5637,-0.2562,-0.4002,0.6754
-0.487,-0.427,-0.404,130.3,123.8,256.6,0,2018,5,17,22,33,48.096,0.5876,-0.2145,-0.416,0.6599
-0.585,-0.773,-0.212,120.2,275.2,208.2,0,2018,5,17,22,33,48.101,0.6116,-0.1621,-0.4144,0.654
-0.582,-0.549,0.135,91.7,401.8,146.8,0,2018,5,17,22,33,48.117,0.6318,-0.0995,-0.3902,0.6622
-0.369,0.119,0.242,60.2,384.6,119.2,0,2018,5,17,22,33,48.141,0.6468,-0.0367,-0.3527,0.6751
-0.399,0.536,0.397,46.7,215.4,109.9,0,2018,5,17,22,33,48.156,0.6578,0.0111,-0.3233,0.68
-0.356,0.416,0.429,32.2,5.7,78.5,0,2018,5,17,22,33,48.179,0.6667,0.0332,-0.3153,0.6744
-0.369,-0.037,0.237,22.6,-130.8,32.7,0,2018,5,17,22,33,48.218,0.6721,0.0308,-0.3271,0.6635
-0.377,-0.305,0.245,1.4,-138.5,-8.2,0,2018,5,17,22,33,48.218,0.6728,0.016,-0.3458,0.6536
-0.328,-0.265,0.284,-16.9,-66.9,-37.5,0,2018,5,17,22,33,48.241,0.6705,0.0022,-0.3577,0.6498
-0.222,-0.107,0.317,-29.3,-40.6,-62.2,0,2018,5,17,22,33,48.257,0.666,-0.0084,-0.3608,0.6527
-0.139,-0.079,0.24,-36.1,-50.4,-67.1,0,2018,5,17,22,33,48.279,0.6607,-0.0205,-0.3618,0.6573
-0.045,-0.028,0.106,-37.5,-70.4,-70.7,0,2018,5,17,22,33,48.299,0.6549,-0.0355,-0.3643,0.661
0.023,-0.013,-0.069,-32.2,-65.3,-74.7,1023,2018,5,17,22,33,48.316,0.648,-0.0519,-0.3686,0.6644
-0.089,-0.25,0.041,-45.3,-22.2,-83.6,1023,2018,5,17,22,33,48.339,0.6405,-0.0666,-0.3692,0.67
-0.067,-0.04,0.063,-50.4,7.1,-81.1,1023,2018,5,17,22,33,48.376,0.6337,-0.0777,-0.3637,0.6782
-0.063,0.09,-0.02,-44.4,-27.2,-79.2,1023,2018,5,17,22,33,48.399,0.6271,-0.088,-0.3587,0.6857
-0.113,-0.113,-0.077,-46.1,-52,-82.2,1023,2018,5,17,22,33,48.404,0.6197,-0.1021,-0.3581,0.6907
-0.139,-0.212,-0.119,-50.5,-35.2,-85.7,1023,2018,5,17,22,33,48.42,0.6116,-0.1179,-0.3575,0.6958
-0.175,-0.175,0.025,-62.2,-17.5,-92.8,1023,2018,5,17,22,33,48.443,0.6035,-0.1329,-0.3525,0.7026
-0.144,-0.063,0,-62.6,-30.7,-98.7,1023,2018,5,17,22,33,48.479,0.5952,-0.1482,-0.3466,0.7095
-0.13,0.016,-0.127,-52.1,-76.3,-109.2,1023,2018,5,17,22,33,48.479,0.5842,-0.1672,-0.3445,0.7154
-0.244,-0.204,-0.097,-48.3,-103.6,-127.5,1023,2018,5,17,22,33,48.501,0.5692,-0.19,-0.348,0.7201
-0.201,-0.257,-0.116,-45.5,-66.9,-141.5,1023,2018,5,17,22,33,48.52,0.5521,-0.2124,-0.3498,0.7263
-0.099,-0.071,-0.115,-40.8,-61.3,-147.7,1023,2018,5,17,22,33,48.558,0.5337,-0.2323,-0.3479,0.7348
-0.079,0.086,0.005,-33.1,-98.5,-148.9,1023,2018,5,17,22,33,48.558,0.5138,-0.2527,-0.3487,0.7419
-0.082,0.275,0.069,-24.1,-174.5,-151.9,1023,2018,5,17,22,33,48.581,0.4896,-0.2777,-0.3569,0.7454
-0.04,0.258,-0.09,-14.8,-221.5,-151.4,1023,2018,5,17,22,33,48.601,0.4606,-0.3066,-0.3739,0.7442
-0.018,0.288,-0.06,-15.8,-208.6,-129.2,1023,2018,5,17,22,33,48.623,0.4313,-0.3346,-0.3928,0.74
0.01,0.473,-0.15,-6.3,-198.6,-112.5,1023,2018,5,17,22,33,48.641,0.4047,-0.3592,-0.4098,0.7342
0.034,0.605,-0.187,14.4,-213.6,-87.1,1023,2018,5,17,22,33,48.664,0.378,-0.38,-0.4303,0.7262
0.016,0.454,-0.093,33.1,-195.6,-59.2,1023,2018,5,17,22,33,48.682,0.3528,-0.396,-0.453,0.7164
0.138,0.526,0.057,35.8,-155.7,-23.6,0,2018,5,17,22,33,48.705,0.3326,-0.4053,-0.4738,0.7075
0.273,0.601,0.163,27.8,-111.3,24.8,0,2018,5,17,22,33,48.723,0.3208,-0.4084,-0.4923,0.6984
0.362,0.394,0.183,13.9,-35.7,69.7,0,2018,5,17,22,33,48.746,0.3195,-0.4058,-0.5057,0.6909
0.274,0.288,0.085,-5.5,72.6,112.3,0,2018,5,17,22,33,48.766,0.3317,-0.3959,-0.5101,0.6876
0.237,0.271,0.018,-24.5,179.7,150,0,2018,5,17,22,33,48.783,0.3578,-0.3782,-0.5026,0.6901
0.248,0.321,-0.029,-32.9,239.9,179.4,0,2018,5,17,22,33,48.82,0.3943,-0.3532,-0.4854,0.6956
0.31,0.196,-0.041,-35,268.7,194.3,0,2018,5,17,22,33,48.843,0.4352,-0.3233,-0.4629,0.7012
0.071,0.125,0.154,-28.2,283,209.8,0,2018,5,17,22,33,48.848,0.519,-0.2525,-0.4084,0.7071
-0.315,-0.153,0.235,-17.4,215.9,180.8,0,2018,5,17,22,33,48.863,0.5556,-0.2177,-0.3831,0.705
-0.519,-0.492,0.31,-16.6,116.3,123.5,0,2018,5,17,22,33,48.886,0.5809,-0.1937,-0.367,0.7001
-0.37,-0.717,0.356,-22.7,61.1,76.4,0,2018,5,17,22,33,48.922,0.5966,-0.1815,-0.3582,0.6947
-0.425,-0.767,0.399,-41.3,42.3,37.9,0,2018,5,17,22,33,48.945,0.6069,-0.1761,-0.3507,0.691
-0.519,-0.698,0.428,-62.9,4.3,-6.1,0,2018,5,17,22,33,48.95,0.6127,-0.1788,-0.3428,0.6892
-0.444,-0.576,0.255,-71.9,-44.8,-54.5,0,2018,5,17,22,33,48.984,0.6121,-0.1912,-0.3372,0.6891
-0.318,-0.453,0.069,-72.4,-57.2,-87.9,0,2018,5,17,22,33,48.984,0.6056,-0.21,-0.3338,0.6911
-0.317,-0.379,0.041,-74,-48.8,-112.7,0,2018,5,17,22,33,49.006,0.5955,-0.2301,-0.3286,0.6959
-0.328,-0.27,-0.066,-67.2,-33.6,-132.7,0,2018,5,17,22,33,49.022,0.5827,-0.2501,-0.3211,0.7033
-0.297,-0.003,-0.236,-48.1,-50.2,-150.7,0,2018,5,17,22,33,49.045,0.5665,-0.2692,-0.3136,0.7128
-0.204,0.207,-0.417,-18.5,-88.1,-155,0,2018,5,17,22,33,49.063,0.5456,-0.2884,-0.3114,0.7224
-0.13,0.33,-0.473,14.9,-119.9,-152.6,0,2018,5,17,22,33,49.087,0.5205,-0.3069,-0.3167,0.731
-0.192,0.418,-0.259,32.6,-137.4,-141.9,1023,2018,5,17,22,33,49.104,0.4928,-0.3237,-0.3278,0.7381
-0.143,0.613,-0.053,43,-136.1,-120.5,1023,2018,5,17,22,33,49.127,0.4656,-0.3378,-0.3409,0.7434
-0.109,0.726,-0.102,40.8,-151.9,-92.4,1023,2018,5,17,22,33,49.164,0.4406,-0.3503,-0.3563,0.7457
0.007,0.691,-0.264,52.2,-184,-58.3,1023,2018,5,17,22,33,49.187,0.417,-0.362,-0.377,0.7435
0.085,0.692,-0.155,48.9,-159.8,-7.5,1023,2018,5,17,22,33,49.191,0.3983,-0.3701,-0.4012,0.737
0.124,0.439,0.082,35.4,-87.8,25.9,1023,2018,5,17,22,33,49.207,0.3884,-0.3724,-0.421,0.7301
0.228,0.332,0.217,12.2,3.6,58.4,1023,2018,5,17,22,33,49.246,0.3898,-0.3687,-0.4301,0.7259
0.338,0.552,0.218,-4.2,37.6,97.6,1023,2018,5,17,22,33,49.246,0.4009,-0.3607,-0.4318,0.7228
0.435,0.552,0.205,-21.5,42.3,147,1023,2018,5,17,22,33,49.269,0.4203,-0.35,-0.4334,0.7161
0.542,0.455,0.261,-29.6,30.9,183.6,1023,2018,5,17,22,33,49.287,0.4453,-0.3377,-0.4366,0.7049
0.181,-0.252,-0.027,-23.6,-51.7,211.6,1023,2018,5,17,22,33,49.305,0.4945,-0.3166,-0.4631,0.6638
0.184,-0.695,-0.161,-30.5,82.2,216.4,1023,2018,5,17,22,33,49.328,0.5216,-0.3011,-0.4714,0.6441
0.215,-0.417,-0.13,-17.5,216.6,217.5,1023,2018,5,17,22,33,49.364,0.5562,-0.2709,-0.4618,0.6355
0.035,0.172,0.073,20.3,155.8,191.8,1023,2018,5,17,22,33,49.387,0.5879,-0.2342,-0.4482,0.6312
-0.023,-0.235,-0.22,54.2,20.7,164.8,1023,2018,5,17,22,33,49.392,0.6069,-0.2082,-0.451,0.6202
-0.064,-0.85,-0.157,57.5,104.6,167.2,1023,2018,5,17,22,33,49.424,0.6215,-0.1841,-0.4578,0.6083
-0.131,-0.68,-0.228,55.3,307.3,165.1,1023,2018,5,17,22,33,49.448,0.6409,-0.1412,-0.4465,0.608
-0.379,-0.314,0.035,46.9,384.9,145.2,1023,2018,5,17,22,33,49.452,0.6604,-0.0826,-0.4169,0.6189
-0.878,0.103,0.544,28,310.9,116.5,1023,2018,5,17,22,33,49.47,0.6756,-0.0279,-0.3835,0.629
-0.949,0.291,0.964,-9.8,120.7,63.9,1023,2018,5,17,22,33,49.506,0.6854,0.005,-0.361,0.6322
-0.89,-0.082,0.94,-45.9,-49.7,-13.3,0,2018,5,17,22,33,49.529,0.6896,0.006,-0.3555,0.6308
-0.802,-0.417,1.063,-94,-76.3,-98.4,0,2018,5,17,22,33,49.534,0.6877,-0.0135,-0.3552,0.6329
-0.632,-0.37,0.976,-133.9,-24.1,-166.6,0,2018,5,17,22,33,49.55,0.6795,-0.0396,-0.3467,0.6453
-0.625,-0.079,0.751,-165.8,-5.4,-190.8,0,2018,5,17,22,33,49.568,0.6673,-0.068,-0.3283,0.6649
-0.601,-0.043,0.473,-187.7,-55.8,-212,0,2018,5,17,22,33,49.591,0.6531,-0.1036,-0.3083,0.6838
-0.425,-0.316,0.371,-194.6,-69.4,-225,0,2018,5,17,22,33,49.609,0.6348,-0.146,-0.2906,0.7008
-0.399,-0.355,0.21,-190,-51,-236.9,0,2018,5,17,22,33,49.628,0.6139,-0.1873,-0.2705,0.7175
-0.369,-0.348,0.011,-188,-23.5,-248.9,0,2018,5,17,22,33,49.649,0.59,-0.2262,-0.2466,0.7347
-0.328,-0.214,-0.169,-180.3,-0.6,-248.9,0,2018,5,17,22,33,49.687,0.5646,-0.261,-0.2191,0.7516
-0.341,-0.363,-0.223,-176.7,21.4,-248.5,0,2018,5,17,22,33,49.71,0.5385,-0.2925,-0.1884,0.7674
-0.327,-0.254,-0.225,-169.8,22.7,-249.8,0,2018,5,17,22,33,49.714,0.5113,-0.3211,-0.1558,0.7817
-0.326,-0.212,-0.318,-158.7,7.8,-253.7,0,2018,5,17,22,33,49.749,0.4816,-0.3486,-0.1245,0.7943
-0.324,-0.08,-0.399,-140.5,-10.2,-253.8,0,2018,5,17,22,33,49.772,0.4488,-0.3747,-0.0965,0.8054
-0.336,-0.136,-0.417,-121,-15.3,-253.5,0,2018,5,17,22,33,49.776,0.4136,-0.3981,-0.0711,0.8156
-0.413,0.001,-0.352,-107.2,-7.8,-243.8,0,2018,5,17,22,33,49.79,0.3785,-0.4177,-0.0472,0.8245
-0.48,0.084,-0.322,-100,-10,-235.8,0,2018,5,17,22,33,49.808,0.3439,-0.4346,-0.024,0.832
-0.423,0.118,-0.357,-82.8,-21.3,-226.8,0,2018,5,17,22,33,49.831,0.3092,-0.4493,-0.0031,0.838
-0.401,0.276,-0.343,-66.3,-55.5,-217.7,0,2018,5,17,22,33,49.849,0.2737,-0.4619,0.0128,0.8435
-0.372,0.18,-0.41,-50.8,-99.1,-210.2,0,2018,5,17,22,33,49.872,0.2352,-0.4734,0.0212,0.8485
-0.52,-0.152,-0.376,-44,-81.6,-203.9,0,2018,5,17,22,33,49.891,0.1965,-0.4831,0.0258,0.8528
-0.637,0.029,-0.4,-42.9,-14.9,-199.6,1023,2018,5,17,22,33,49.914,0.1622,-0.4899,0.0374,0.8557
-0.749,-0.014,-0.225,-47.7,2.4,-206,1023,2018,5,17,22,33,49.95,0.1317,-0.495,0.0559,0.857
-0.89,-0.221,-0.153,-52.3,0.5,-214.5,1023,2018,5,17,22,33,49.974,0.0993,-0.5,0.0749,0.8569
-0.874,-0.06,-0.219,-55.7,25.4,-217.5,1023,2018,5,17,22,33,49.977,0.0676,-0.5047,0.097,0.8551
-0.736,0.221,-0.278,-40.6,5,-213.5,1023,2018,5,17,22,33,49.993,0.0364,-0.5077,0.1193,0.8524
-0.701,0.317,-0.205,-19.8,-43.2,-208,1023,2018,5,17,22,33,50.016,0.0024,-0.5076,0.1351,0.8509
-0.598,-0.072,-0.26,-2.1,-48.9,-196.6,1023,2018,5,17,22,33,50.033,-0.0321,-0.504,0.1456,0.8507
-0.466,0.006,-0.148,-0.4,29.4,-155.5,1023,2018,5,17,22,33,50.051,-0.0599,-0.4988,0.1585,0.8499
-0.425,0.496,-0.179,-0.9,67.5,-127.8,1023,2018,5,17,22,33,50.075,-0.0754,-0.4957,0.1797,0.8463
-0.2,0.506,-0.284,18,21.3,-91.8,1023,2018,5,17,22,33,50.092,-0.0875,-0.4917,0.196,0.8438
-0.163,0.086,-0.233,29,22.6,-44.4,1023,2018,5,17,22,33,50.115,-0.0947,-0.4856,0.2045,0.8445
-0.161,0.307,-0.086,22,29.1,-13.3,1023,2018,5,17,22,33,50.133,-0.0955,-0.4813,0.2115,0.8452
-0.01,0.367,-0.145,23,-17.1,10.4,1023,2018,5,17,22,33,50.172,-0.0942,-0.4782,0.2131,0.8467
0.104,0.371,-0.374,33.1,-59.5,41.2,1023,2018,5,17,22,33,50.172,-0.0929,-0.4743,0.205,0.851
0.033,0.102,-0.109,25.8,-45.2,73,1023,2018,5,17,22,33,50.195,-0.0875,-0.4705,0.1924,0.8566
-0.205,0.177,0.248,-8.4,-36.7,97.6,1023,2018,5,17,22,33,50.23,-0.0778,-0.4712,0.1799,0.8599
-0.204,0.336,0.224,-47.8,-102.3,110.2,1023,2018,5,17,22,33,50.253,-0.068,-0.4779,0.1613,0.8607
-0.162,0.097,0.179,-78.8,-194.5,136.3,1023,2018,5,17,22,33,50.258,-0.0649,-0.4888,0.1265,0.8606
0.04,-0.238,-0.339,-92.4,-119.4,139.9,1023,2018,5,17,22,33,50.292,-0.06,-0.5027,0.0873,0.8578
-0.046,0.391,0.243,-118.1,-98.3,133.5,0,2018,5,17,22,33,50.316,-0.0491,-0.5196,0.0615,0.8507
-0.349,0.198,0.101,-145.2,-197.8,157.5,0,2018,5,17,22,33,50.32,-0.0424,-0.5388,0.0238,0.8409
-0.249,-0.431,-0.112,-184.4,-168.1,166.5,0,2018,5,17,22,33,50.337,-0.0372,-0.5614,-0.0216,0.8264
0.1,-0.809,-0.433,-214.3,-29.6,138.9,0,2018,5,17,22,33,50.355,-0.0238,-0.5887,-0.0519,0.8063
0.31,0.035,-0.588,-216.5,63.6,109.2,0,2018,5,17,22,33,50.374,-0.0013,-0.6176,-0.0609,0.784
0.159,0.562,-0.197,-206.9,-25,98.2,0,2018,5,17,22,33,50.393,0.0176,-0.6449,-0.0682,0.7609
0.059,0.324,-0.232,-204.7,-136,80.3,0,2018,5,17,22,33,50.417,0.0219,-0.6709,-0.0888,0.7357
0.233,-0.387,-0.274,-190.2,-125.5,33.8,0,2018,5,17,22,33,50.434,0.0156,-0.6953,-0.113,0.7095
0.414,-0.18,-0.322,-179.1,-33.2,-16.6,0,2018,5,17,22,33,50.457,0.01,-0.7178,-0.1218,0.6853
0.32,0.259,-0.044,-173.5,12.8,-26.7,0,2018,5,17,22,33,50.476,0.0101,-0.7388,-0.1187,0.6631
0.378,0.799,-0.031,-169.7,0.4,-7.8,0,2018,5,17,22,33,50.499,0.0128,-0.759,-0.1143,0.6407
0.689,1.132,-0.033,-121.1,-65.3,36.3,0,2018,5,17,22,33,50.52,0.0131,-0.7751,-0.1189,0.6203
0.666,0.799,-0.024,-67.2,-131.6,79.8,0,2018,5,17,22,33,50.538,0.0073,-0.7837,-0.1376,0.6056
0.464,0.157,-0.189,-45.3,-110.2,117.8,0,2018,5,17,22,33,50.555,0.0012,-0.7868,-0.1644,0.5948
0.369,-0.141,-0.355,-24.7,-16.4,143.9,0,2018,5,17,22,33,50.578,0.0068,-0.7869,-0.1887,0.5874
0.295,-0.171,-0.365,5.5,84.1,160.5,0,2018,5,17,22,33,50.598,0.0277,-0.7824,-0.2055,0.5871
0.193,-0.03,-0.413,34.9,159.6,165.2,0,2018,5,17,22,33,50.615,0.061,-0.7732,-0.2147,0.5935
-0.02,-0.068,-0.561,74,158.2,150.5,0,2018,5,17,22,33,50.638,0.0978,-0.7593,-0.2189,0.6049
-0.177,-0.029,-0.391,118.8,85.4,112.6,0,2018,5,17,22,33,50.675,0.1237,-0.7414,-0.2243,0.6201
-0.284,-0.541,-0.367,138.8,41.8,70.3,0,2018,5,17,22,33,50.698,0.1359,-0.7219,-0.2325,0.6373
-0.336,-0.303,0.011,131,45.4,33.5,1023,2018,5,17,22,33,50.703,0.1413,-0.7037,-0.2363,0.6549
-0.419,0.549,0.118,136.9,-117.1,3.9,1023,2018,5,17,22,33,50.719,0.1354,-0.6884,-0.2428,0.6698
-0.59,0.198,-0.063,148.3,-338.8,28.3,1023,2018,5,17,22,33,50.74,0.1015,-0.676,-0.2759,0.6756
-0.605,-0.257,-0.116,135.4,-373.1,56.9,1023,2018,5,17,22,33,50.759,0.0554,-0.6618,-0.3268,0.6723
-0.525,-0.097,0.049,98.8,-299.3,75.3,1023,2018,5,17,22,33,50.782,0.0177,-0.6462,-0.3736,0.6651
-0.515,0.162,0.135,53,-263.8,114,1023,2018,5,17,22,33,50.798,-0.0075,-0.6313,-0.4159,0.6544
-0.848,-0.288,0.078,-7.8,-222.1,151.4,1023,2018,5,17,22,33,50.817,-0.0209,-0.6177,-0.4583,0.6386
-0.768,-0.422,0.127,-75.5,-141.6,157.8,1023,2018,5,17,22,33,50.84,-0.0192,-0.6089,-0.4951,0.6194
-0.612,-0.234,0.202,-126,-66,160.5,1023,2018,5,17,22,33,50.858,-0.0036,-0.6056,-0.5225,0.6001
-0.419,0.038,0.265,-161.2,-44.4,179.2,1023,2018,5,17,22,33,50.88,0.0219,-0.6049,-0.5453,0.5797
-0.402,0.017,0.153,-193.8,-64.2,199.9,1023,2018,5,17,22,33,50.899,0.0524,-0.6041,-0.5699,0.5544
-0.262,-0.3,-0.163,-217.1,-38.1,201.7,1023,2018,5,17,22,33,50.922,0.0865,-0.6038,-0.5942,0.5241
-0.088,-0.443,-0.358,-222.8,63.8,201.2,1023,2018,5,17,22,33,50.938,0.1287,-0.6021,-0.6104,0.4982
0.093,-0.28,-0.33,-223.9,188.3,216.8,1023,2018,5,17,22,33,50.961,0.1842,-0.5953,-0.6153,0.4826
0.215,0.042,-0.373,-212.1,280.5,238.3,1023,2018,5,17,22,33,50.998,0.2512,-0.58,-0.6105,0.477
0.229,0.022,-0.486,-184.9,330.9,245.6,1023,2018,5,17,22,33,51.019,0.3228,-0.5554,-0.5991,0.4777
0.345,-0.041,-0.408,-147.5,367.2,252.7,1023,2018,5,17,22,33,51.023,0.3937,-0.5216,-0.5828,0.4828
0.399,-0.334,-0.396,-111,425.1,243.2,1023,2018,5,17,22,33,51.041,0.4624,-0.478,-0.5615,0.4921
0.298,-0.847,-0.647,-75.6,553.3,203.9,1023,2018,5,17,22,33,51.064,0.5289,-0.4224,-0.5295,0.5112
0.304,-1.079,-0.94,-55.9,765.8,142.1,1023,2018,5,17,22,33,51.083,0.5946,-0.348,-0.4736,0.5485
0.415,-0.206,-0.667,-65.7,931.3,97.1,1023,2018,5,17,22,33,51.105,0.6545,-0.2518,-0.3882,0.5978
0.535,1.573,0.281,-78.2,857.6,77.4,1023,2018,5,17,22,33,51.12,0.6995,-0.1459,-0.2832,0.6396
0.613,2.512,1.4,-44.8,321.8,76.1,1023,2018,5,17,22,33,51.143,0.7231,-0.0722,-0.2061,0.6552
0.273,-0.144,0.733,-31.3,-256.4,58.5,0,2018,5,17,22,33,51.161,0.7323,-0.075,-0.2056,0.6448
0.314,-1.689,0.368,-71.6,-245,12.2,0,2018,5,17,22,33,51.184,0.7329,-0.1165,-0.2321,0.6286
0.52,-0.779,0.473,-118.5,-5.8,-41.9,0,2018,5,17,22,33,51.203,0.732,-0.1419,-0.2321,0.6244
0.349,-0.093,0.29,-133.8,-24,-68.8,0,2018,5,17,22,33,51.221,0.731,-0.1576,-0.2136,0.6285
0.31,-0.038,-0.061,-117.8,-138.4,-82.5,0,2018,5,17,22,33,51.244,0.7244,-0.1852,-0.2051,0.6314
0.248,-0.345,-0.116,-105,-160.8,-105.6,0,2018,5,17,22,33,51.262,0.7123,-0.2203,-0.2059,0.6336
0.202,-0.222,-0.184,-79.6,-149.2,-130.8,0,2018,5,17,22,33,51.283,0.6961,-0.2534,-0.2068,0.6391
0.128,-0.016,-0.258,-42.8,-165.9,-144.4,0,2018,5,17,22,33,51.322,0.6753,-0.2838,-0.2106,0.6472
0.159,0.082,-0.286,-3.8,-198.3,-145.2,0,2018,5,17,22,33,51.345,0.65,-0.3128,-0.2215,0.6561
0.023,-0.011,-0.243,25,-194.2,-126.2,0,2018,5,17,22,33,51.35,0.622,-0.3393,-0.2386,0.664
-0.299,-0.341,0.046,34.9,-136.7,-117.9,0,2018,5,17,22,33,51.362,0.5967,-0.3584,-0.2542,0.6713
-0.571,-0.365,0.149,38.8,-109.4,-124.6,0,2018,5,17,22,33,51.4,0.5733,-0.3714,-0.2643,0.6807
-0.56,-0.276,0.224,44.1,-141.5,-137.8,0,2018,5,17,22,33,51.423,0.5478,-0.3846,-0.2738,0.6905
-0.494,-0.321,0.04,70.2,-228,-155.9,0,2018,5,17,22,33,51.428,0.5148,-0.4018,-0.2908,0.6991
-0.259,-0.119,-0.156,105.5,-345.7,-172.4,0,2018,5,17,22,33,51.444,0.4686,-0.425,-0.3224,0.7041
-0.148,-0.235,-0.261,131.2,-374.7,-168.6,0,2018,5,17,22,33,51.467,0.4118,-0.4491,-0.3641,0.7043
-0.143,-0.47,-0.415,138.5,-247,-147.4,0,2018,5,17,22,33,51.483,0.3573,-0.465,-0.4001,0.7042
-0.091,-0.301,-0.377,127.9,-25.6,-139.7,0,2018,5,17,22,33,51.504,0.3195,-0.4661,-0.4124,0.7145
0.058,0.189,-0.084,107.2,114.3,-127.5,1023,2018,5,17,22,33,51.541,0.2987,-0.4578,-0.4008,0.7351
0.033,0.411,0.07,83.2,178.8,-116.2,1023,2018,5,17,22,33,51.563,0.2883,-0.4458,-0.3762,0.7592
0.13,0.686,0.102,55.8,207.8,-85.4,1023,2018,5,17,22,33,51.568,0.2854,-0.4331,-0.3454,0.782
0.584,0.752,0.151,32.8,181.9,-50.5,1023,2018,5,17,22,33,51.585,0.2884,-0.4211,-0.3151,0.8
0.953,0.628,0.014,23.6,142.1,-6.1,1023,2018,5,17,22,33,51.621,0.2948,-0.4108,-0.2921,0.8117
0.511,0.511,-0.015,28,128.3,36.2,1023,2018,5,17,22,33,51.644,0.3051,-0.3993,-0.2755,0.8194
0.325,0.338,-0.087,26.7,167.1,77.3,1023,2018,5,17,22,33,51.649,0.322,-0.3848,-0.2605,0.8247
0.244,0.264,-0.139,33.3,207.8,111.6,1023,2018,5,17,22,33,51.683,0.3475,-0.3647,-0.2404,0.8297
0.1,0.606,-0.106,66.9,103.2,159.1,1023,2018,5,17,22,33,51.706,0.3753,-0.3419,-0.2284,0.8306
-0.339,0.166,0.004,103.6,-42.4,164.6,1023,2018,5,17,22,33,51.71,0.3963,-0.3214,-0.2412,0.8254
-1.216,-0.789,0.229,79.2,-17.8,148.1,1023,2018,5,17,22,33,51.755,0.4133,-0.3035,-0.2621,0.8174
-1.238,-0.483,0.184,87.2,-25,63.8,1023,2018,5,17,22,33,51.757,0.4254,-0.2873,-0.2735,0.8133
-1.523,-0.614,-0.053,89.1,-240,-37.1,1023,2018,5,17,22,33,51.768,0.415,-0.2844,-0.3002,0.8103
-1.244,-1.642,-0.21,50,-127.8,-136.9,1023,2018,5,17,22,33,51.804,0.3874,-0.2952,-0.3312,0.808
-0.765,-0.968,-0.373,67.8,88.8,-213.8,1023,2018,5,17,22,33,51.826,0.359,-0.2973,-0.3244,0.823
-0.607,0.111,-0.175,76.9,20.8,-250.6,1023,2018,5,17,22,33,51.831,0.3244,-0.2951,-0.3059,0.845
-0.496,0.237,-0.112,105.4,-128.9,-258.8,1023,2018,5,17,22,33,51.867,0.2785,-0.298,-0.3066,0.8599
-0.434,0.029,-0.101,135.5,-212.1,-263.8,1023,2018,5,17,22,33,51.892,0.2224,-0.3024,-0.3254,0.8678
-0.394,-0.053,-0.171,157.9,-191.9,-257.7,1023,2018,5,17,22,33,51.895,0.1631,-0.3021,-0.3481,0.8723
-0.492,-0.155,0.082,160,-160.6,-259.7,0,2018,5,17,22,33,51.91,0.1044,-0.2982,-0.3641,0.8761
-0.602,0.282,0.291,159.6,-167.4,-241.5,0,2018,5,17,22,33,51.927,0.0475,-0.2917,-0.378,0.8773
-0.59,0.165,0.356,141.7,-174.1,-224.7,0,2018,5,17,22,33,51.951,-0.0069,-0.2852,-0.3932,0.874
-0.535,0.034,0.344,115,-138.8,-214.6,0,2018,5,17,22,33,51.968,-0.0565,-0.28,-0.4052,0.8683
-0.573,0.348,0.46,86,-142.8,-193.3,0,2018,5,17,22,33,51.991,-0.1013,-0.2777,-0.4143,0.8607
-0.549,0.102,0.316,53.1,-143.1,-163.3,0,2018,5,17,22,33,52.009,-0.14,-0.2773,-0.4261,0.8496
-0.369,0.268,0.378,14.7,-114.1,-141.7,0,2018,5,17,22,33,52.028,-0.1709,-0.2805,-0.4362,0.8376
-0.321,0.291,0.246,-19.6,-106.9,-111.1,0,2018,5,17,22,33,52.051,-0.1943,-0.2872,-0.4459,0.8251
-0.269,0.276,0.109,-55.5,-96.2,-78.3,0,2018,5,17,22,33,52.069,-0.21,-0.2965,-0.4571,0.8117
-0.12,0.131,-0.023,-93.2,-67.8,-56.6,0,2018,5,17,22,33,52.092,-0.2175,-0.3091,-0.4679,0.7988
0.174,0.041,-0.206,-119.9,-24.9,-50.8,0,2018,5,17,22,33,52.108,-0.2182,-0.3267,-0.4755,0.787
0.322,0.141,-0.366,-123.3,11.4,-59.1,0,2018,5,17,22,33,52.126,-0.2155,-0.3481,-0.4776,0.7773
0.541,0.466,-0.333,-105.3,17.1,-67.5,0,2018,5,17,22,33,52.149,-0.2135,-0.3695,-0.4756,0.7691
0.84,0.685,-0.296,-74.9,0.5,-74.3,0,2018,5,17,22,33,52.168,-0.215,-0.3878,-0.4734,0.761
0.731,0.71,0.023,-35.5,-11.7,-71.2,0,2018,5,17,22,33,52.191,-0.2208,-0.4006,-0.4717,0.7537
0.527,0.704,0.399,-10.2,6,-53.5,0,2018,5,17,22,33,52.209,-0.2278,-0.4082,-0.4691,0.7492
0.339,0.529,0.618,-15.6,48.9,-23,0,2018,5,17,22,33,52.231,-0.23,-0.4138,-0.4634,0.749
0.184,0.421,0.586,-41.8,101,12.3,0,2018,5,17,22,33,52.269,-0.2227,-0.4209,-0.4545,0.7527
0.047,0.317,0.547,-80.5,153.6,41.6,0,2018,5,17,22,33,52.292,-0.2047,-0.4317,-0.4422,0.759
-0.053,0.432,0.413,-118.7,189.1,69.6,0,2018,5,17,22,33,52.296,-0.1761,-0.4468,-0.4268,0.7662
-0.051,0.601,0.3,-139.9,163.7,108.7,0,2018,5,17,22,33,52.33,-0.1399,-0.463,-0.4133,0.7714
-0.068,0.434,0.277,-146.1,94.5,140.5,0,2018,5,17,22,33,52.33,-0.1021,-0.476,-0.4098,0.7713
-0.074,0.106,0.303,-157.1,76.1,166.4,0,2018,5,17,22,33,52.353,-0.0641,-0.4864,-0.4145,0.7664
-0.133,-0.012,0.161,-168.8,133.6,187.9,0,2018,5,17,22,33,52.371,-0.0192,-0.496,-0.4169,0.7613
-0.08,0.404,-0.136,-165.5,110.2,184.8,0,2018,5,17,22,33,52.408,0.0292,-0.5045,-0.4156,0.7562
0.207,0.139,-0.448,-135.9,21.8,188.3,1023,2018,5,17,22,33,52.431,0.0703,-0.5103,-0.4222,0.7458
0.144,-0.396,-0.229,-103.9,40.2,192,1023,2018,5,17,22,33,52.436,0.105,-0.5109,-0.4353,0.7337
0.068,-0.359,0.007,-106.9,213.8,209.1,1023,2018,5,17,22,33,52.452,0.1497,-0.5059,-0.4351,0.7295
-0.037,0.267,-0.042,-76.9,257.8,203.1,1023,2018,5,17,22,33,52.475,0.2073,-0.4943,-0.417,0.734
-0.338,0.5,0.258,-24.4,45.5,196.4,1023,2018,5,17,22,33,52.491,0.2482,-0.48,-0.4127,0.7331
-0.418,-0.23,0.538,-43.5,9.2,216.1,1023,2018,5,17,22,33,52.514,0.2766,-0.4689,-0.4289,0.7208
-0.347,-0.339,0.29,-69.4,193.3,217.4,1023,2018,5,17,22,33,52.533,0.3164,-0.4543,-0.4304,0.7128
-0.415,0.162,0.055,-49.6,214.8,201.4,1023,2018,5,17,22,33,52.557,0.3651,-0.4329,-0.4146,0.7122
-0.521,0.394,0.409,-32.5,27.9,192.4,1023,2018,5,17,22,33,52.573,0.4005,-0.4157,-0.4124,0.7047
-0.356,-0.117,0.497,-50.8,23.3,181.3,1023,2018,5,17,22,33,52.595,0.4263,-0.4068,-0.4224,0.6886
-0.202,-0.198,0.333,-68.9,128,170.1,1023,2018,5,17,22,33,52.612,0.4579,-0.3945,-0.4199,0.6769
-0.191,0.175,0.229,-56.1,88.5,165.7,1023,2018,5,17,22,33,52.63,0.49,-0.3802,-0.412,0.6674
-0.3,-0.136,0.327,-52.2,28.3,158.3,1023,2018,5,17,22,33,52.652,0.5157,-0.3703,-0.4123,0.6532
-0.207,-0.207,0.348,-68.2,94.7,158.2,1023,2018,5,17,22,33,52.671,0.5412,-0.3606,-0.4108,0.6389
-0.114,-0.134,0.309,-87.6,170.5,160.7,1023,2018,5,17,22,33,52.694,0.5731,-0.3443,-0.3976,0.6282
-0.275,0.093,0.346,-90.2,175.8,167.8,1023,2018,5,17,22,33,52.712,0.6075,-0.3244,-0.3786,0.6182
-0.326,0.077,0.372,-97.7,160.7,180.8,1023,2018,5,17,22,33,52.735,0.641,-0.3051,-0.3603,0.605
-0.406,0.055,0.359,-104.3,173,205.5,0,2018,5,17,22,33,52.771,0.6761,-0.2844,-0.3414,0.5876
-0.41,0.168,0.337,-105.1,155.1,217.3,0,2018,5,17,22,33,52.794,0.7116,-0.2623,-0.3221,0.5665
-0.604,0.204,0.249,-115.4,122.3,224.6,0,2018,5,17,22,33,52.799,0.7449,-0.2434,-0.3048,0.541
-0.756,0.06,-0.187,-122.5,112.2,212.4,0,2018,5,17,22,33,52.815,0.7761,-0.2274,-0.2874,0.513
-0.111,0.277,-0.108,-104.4,48.5,205.2,0,2018,5,17,22,33,52.838,0.8031,-0.2155,-0.2723,0.4839
-0.336,0.247,0.215,-78.3,4.5,187.7,0,2018,5,17,22,33,52.874,0.8242,-0.2107,-0.265,0.4537
-0.332,0.13,0.01,-76.4,-28.5,170.2,0,2018,5,17,22,33,52.874,0.841,-0.2099,-0.2612,0.4247
-0.346,-0.016,-0.188,-90.3,-72.8,153.2,0,2018,5,17,22,33,52.896,0.8543,-0.2161,-0.2591,0.3952
-0.286,-0.11,-0.21,-91.4,-97.8,136.3,0,2018,5,17,22,33,52.914,0.8647,-0.2286,-0.2563,0.3663
-0.269,-0.135,-0.289,-78.7,-138.6,108.3,0,2018,5,17,22,33,52.935,0.8711,-0.2465,-0.2558,0.3388
-0.269,-0.155,-0.393,-64.7,-150.4,78.2,0,2018,5,17,22,33,52.971,0.8729,-0.2692,-0.2575,0.3149
-0.265,-0.02,-0.281,-59.8,-129.6,57,0,2018,5,17,22,33,52.994,0.872,-0.2915,-0.2588,0.2958
-0.21,-0.127,-0.331,-57.8,-92.4,48.9,0,2018,5,17,22,33,52.997,0.8719,-0.3083,-0.2574,0.2798
-0.143,-0.025,-0.256,-41,-157.5,41.1,0,2018,5,17,22,33,53.032,0.8697,-0.3269,-0.2581,0.2646
-0.091,0.051,-0.33,-27.7,-286.5,15.4,0,2018,5,17,22,33,53.055,0.8592,-0.3609,-0.2639,0.2482
-0.098,-0.087,-0.346,-24.4,-416.3,-16.1,0,2018,5,17,22,33,53.059,0.8358,-0.4157,-0.2751,0.2296
-0.061,-0.171,-0.375,-29,-410.5,-35.9,0,2018,5,17,22,33,53.077,0.8028,-0.4792,-0.2854,0.2105
-0.053,-0.144,-0.38,-18,-349.2,-63.2,0,2018,5,17,22,33,53.1,0.769,-0.5342,-0.2909,0.1961
-0.169,-0.149,-0.498,-2.2,-334.5,-104.7,0,2018,5,17,22,33,53.117,0.7335,-0.5835,-0.2925,0.1889
-0.121,-0.223,-0.537,24.3,-284.5,-135.3,0,2018,5,17,22,33,53.135,0.695,-0.6294,-0.2912,0.1892
-0.243,-0.311,-0.505,46.3,-107.5,-145.7,0,2018,5,17,22,33,53.158,0.6665,-0.6584,-0.2864,0.2002
-0.404,-0.242,-0.625,82.4,-14.6,-173.2,0,2018,5,17,22,33,53.176,0.6523,-0.6691,-0.2769,0.2234
-0.694,-0.186,-0.699,149.6,-38.5,-218.1,1023,2018,5,17,22,33,53.199,0.6358,-0.6763,-0.2678,0.2579
-0.732,-0.205,-0.666,213.6,-20.2,-241.7,1023,2018,5,17,22,33,53.216,0.6115,-0.6819,-0.2622,0.3036
-0.756,-0.113,-0.555,247.7,62.1,-240.2,1023,2018,5,17,22,33,53.239,0.5895,-0.6771,-0.2566,0.3577
-0.776,0.035,-0.504,266,112.3,-236.3,1023,2018,5,17,22,33,53.257,0.573,-0.6606,-0.2485,0.4163
-0.724,0.217,-0.241,273.7,76.8,-234.9,1023,2018,5,17,22,33,53.28,0.5545,-0.6396,-0.2408,0.4746
-0.355,0.25,-0.165,274.4,33.3,-215,1023,2018,5,17,22,33,53.298,0.5288,-0.6203,-0.2376,0.5282
-0.09,0.345,-0.088,258.1,34.6,-179.7,1023,2018,5,17,22,33,53.321,0.5019,-0.5997,-0.2373,0.5762
-0.01,0.395,-0.231,255.7,21,-150.2,1023,2018,5,17,22,33,53.34,0.4773,-0.5775,-0.2391,0.6175
-0.262,0.24,0.057,248.7,-15.5,-132.6,1023,2018,5,17,22,33,53.363,0.4518,-0.5543,-0.2457,0.6543
-0.267,0.114,0.391,216.7,-29.8,-116.9,1023,2018,5,17,22,33,53.38,0.424,-0.5348,-0.2548,0.685
0.004,0.151,0.378,176.2,3.6,-109.2,1023,2018,5,17,22,33,53.398,0.4002,-0.5171,-0.2604,0.7102
0.034,0.19,-0.005,151.8,27.9,-97.8,1023,2018,5,17,22,33,53.421,0.382,-0.4999,-0.2595,0.7325
-0.24,0.153,0.382,122.7,-19.9,-112.4,1023,2018,5,17,22,33,53.439,0.3622,-0.4866,-0.2582,0.7518
0.056,0.09,0.402,103.8,-34.7,-89.2,1023,2018,5,17,22,33,53.458,0.341,-0.4784,-0.2605,0.766
0.206,0.128,0.407,78.3,-52.4,-85.7,1023,2018,5,17,22,33,53.48,0.3217,-0.4729,-0.2639,0.7765
0.066,0.043,0.608,61.7,-110.3,-81.9,1023,2018,5,17,22,33,53.499,0.3007,-0.4716,-0.2714,0.7832
0.111,-0.403,0.868,41.9,-116.9,-101.9,1023,2018,5,17,22,33,53.522,0.2752,-0.4757,-0.2832,0.7858
0.181,-0.524,0.715,17.7,-65.3,-125.7,1023,2018,5,17,22,33,53.539,0.2508,-0.4813,-0.2871,0.7892
0.262,-0.345,0.635,-12.2,-51.2,-149,1023,2018,5,17,22,33,53.562,0.2267,-0.4905,-0.2826,0.7924
0.332,-0.157,0.58,-26,-62.7,-156.5,1023,2018,5,17,22,33,53.58,0.2017,-0.503,-0.2761,0.7937
0.355,-0.095,0.447,-28.9,-84.4,-157.4,0,2018,5,17,22,33,53.603,0.1747,-0.517,-0.2709,0.7929
0.298,-0.008,0.228,-23.6,-117.9,-159.2,0,2018,5,17,22,33,53.621,0.1447,-0.531,-0.2694,0.7901
0.264,-0.036,-0.139,-4.1,-148,-164.4,0,2018,5,17,22,33,53.644,0.1102,-0.5439,-0.2719,0.7861
0.163,-0.071,-0.231,21.3,-173.5,-165.8,0,2018,5,17,22,33,53.661,0.0715,-0.5532,-0.2781,0.7819
0.078,-0.061,-0.286,47.1,-183.5,-157.1,0,2018,5,17,22,33,53.682,0.0301,-0.5581,-0.2869,0.7779
-0.101,-0.085,-0.33,74.5,-178.3,-143.8,0,2018,5,17,22,33,53.699,-0.0111,-0.5576,-0.2968,0.775
-0.343,-0.123,-0.162,89.2,-138.5,-125.2,0,2018,5,17,22,33,53.722,-0.0492,-0.5529,-0.3047,0.7739
-0.705,-0.208,-0.089,76.4,-31.1,-104.8,0,2018,5,17,22,33,53.758,-0.0778,-0.5464,-0.3047,0.7761
-0.531,-0.107,-0.378,81.3,63.9,-112.2,0,2018,5,17,22,33,53.781,-0.094,-0.5421,-0.2893,0.7832
-0.489,0.119,-0.409,102,40.4,-108.4,0,2018,5,17,22,33,53.786,-0.1081,-0.536,-0.2685,0.793
-0.604,0.165,-0.233,107,-16.7,-88.6,0,2018,5,17,22,33,53.801,-0.1261,-0.5258,-0.256,0.8012
-0.711,0.078,-0.061,98.8,-17.2,-67.4,0,2018,5,17,22,33,53.825,-0.1432,-0.5141,-0.2495,0.808
-0.718,0.147,0.079,78.9,5.4,-55.7,0,2018,5,17,22,33,53.861,-0.1561,-0.504,-0.2421,0.8142
-0.613,0.174,0.051,57.5,-3.2,-39.4,0,2018,5,17,22,33,53.861,-0.1652,-0.4965,-0.2351,0.819
-0.603,-0.001,0.066,31.2,-32.6,-24,0,2018,5,17,22,33,53.884,-0.1732,-0.4908,-0.2335,0.8212
-0.598,-0.018,0.026,2.5,-47.7,-10.7,0,2018,5,17,22,33,53.902,-0.1804,-0.4879,-0.2372,0.8203
-0.384,0.155,-0.49,-6.4,-11.5,25.5,0,2018,5,17,22,33,53.938,-0.1817,-0.4874,-0.2421,0.8189
-0.433,0.068,-0.48,-20.7,17.4,73,0,2018,5,17,22,33,53.961,-0.1733,-0.4872,-0.2455,0.8198
-0.534,0.354,-0.214,-43.9,40.3,137,0,2018,5,17,22,33,53.966,-0.1546,-0.488,-0.2507,0.8215
-0.526,0.323,-0.202,-84.4,82.7,200.7,0,2018,5,17,22,33,54.002,-0.1218,-0.4913,-0.258,0.8229
-0.33,0.493,-0.417,-104.3,103.2,263,1023,2018,5,17,22,33,54.025,-0.0754,-0.4963,-0.2649,0.8232
-0.278,0.611,-0.405,-106.6,67.9,342.1,1023,2018,5,17,22,33,54.03,-0.0192,-0.498,-0.2795,0.8206
-0.392,0.681,-0.316,-101.1,11.4,401.3,1023,2018,5,17,22,33,54.047,0.0432,-0.4936,-0.3056,0.8129
-0.381,0.685,-0.435,-84.1,-141.9,440.7,1023,2018,5,17,22,33,54.065,0.1029,-0.4837,-0.349,0.7959
-0.419,-0.429,-0.944,-53.5,-272.4,448.4,1023,2018,5,17,22,33,54.088,0.1498,-0.4683,-0.4149,0.7655
-0.214,-1.157,-0.643,-24.3,-179.6,435.3,1023,2018,5,17,22,33,54.106,0.1907,-0.4454,-0.4811,0.7305
-0.068,-1.173,-0.084,-7.7,-3.1,403,1023,2018,5,17,22,33,54.129,0.2383,-0.4136,-0.5224,0.7065
0.117,-0.726,0.143,27.2,31.8,352.8,1023,2018,5,17,22,33,54.145,0.2859,-0.3753,-0.5457,0.6924
0.02,-0.565,0.179,57.5,-20.6,308.4,1023,2018,5,17,22,33,54.164,0.3213,-0.3376,-0.568,0.6783
-0.101,-0.884,-0.018,77.1,-13.8,276.1,1023,2018,5,17,22,33,54.187,0.3477,-0.3008,-0.5912,0.6625
-0.151,-1.252,-0.033,92,65.8,224.1,1023,2018,5,17,22,33,54.223,0.3682,-0.2636,-0.6076,0.6523
0.01,-0.936,0.088,104.5,148.6,163.3,1023,2018,5,17,22,33,54.246,0.384,-0.2249,-0.6098,0.6557
0.143,-0.226,0.218,116.6,158,113.3,1023,2018,5,17,22,33,54.251,0.3936,-0.1869,-0.6031,0.668
0.23,0.05,0.836,78.8,51.9,83,1023,2018,5,17,22,33,54.284,0.3973,-0.1574,-0.6005,0.6757
0.117,-0.659,1.034,19.2,52.7,29.9,1023,2018,5,17,22,33,54.307,0.4002,-0.1435,-0.6009,0.6768
0.131,-0.366,0.548,-14.1,122,-0.3,1023,2018,5,17,22,33,54.312,0.4046,-0.1352,-0.5902,0.6853
0.213,0.155,0.243,-16.6,101.4,-24.3,1023,2018,5,17,22,33,54.326,0.4074,-0.1302,-0.5741,0.6981
0.202,0.279,0.066,-10.1,66.9,-20.9,1023,2018,5,17,22,33,54.35,0.408,-0.1281,-0.5624,0.7076
0.111,0.299,0.11,-8.6,50.3,-18.2,1023,2018,5,17,22,33,54.367,0.4076,-0.1269,-0.5544,0.7143
0.07,0.156,0.263,-23.8,46.9,-15.9,1023,2018,5,17,22,33,54.391,0.408,-0.1269,-0.5468,0.7199
0.078,0.124,0.237,-47.4,19.4,-7,1023,2018,5,17,22,33,54.409,0.4106,-0.1303,-0.5398,0.7231
0.076,0.16,0.007,-67.3,-3.3,9.9,1023,2018,5,17,22,33,54.431,0.4164,-0.1371,-0.5347,0.7223
0.009,0.017,-0.073,-87.8,11.9,27,1023,2018,5,17,22,33,54.467,0.4261,-0.145,-0.5297,0.7188
-0.041,0.208,0.102,-103.2,11.7,38.8,1023,2018,5,17,22,33,54.467,0.4396,-0.1526,-0.5214,0.7151
-0.272,-0.033,0.068,-108.1,-20.2,30.1,1023,2018,5,17,22,33,54.49,0.4539,-0.1628,-0.514,0.7093
-0.308,-0.277,-0.277,-85.3,-54.2,19.7,1023,2018,5,17,22,33,54.507,0.4644,-0.176,-0.512,0.7007
-0.217,-0.349,-0.336,-53.6,-48.8,9.1,1023,2018,5,17,22,33,54.531,0.4706,-0.1875,-0.5135,0.6925
-0.317,-0.262,-0.012,-43.5,26.8,21.9,1023,2018,5,17,22,33,54.548,0.4756,-0.1924,-0.512,0.6888
-0.322,-0.026,0.138,-28.4,13,23.8,1023,2018,5,17,22,33,54.57,0.4832,-0.1926,-0.5063,0.6877
-0.246,0.002,-0.29,0.6,-35.4,11.3,0,2018,5,17,22,33,54.588,0.4854,-0.1942,-0.5071,0.6851
-0.185,0.032,-0.269,39.9,-67.4,29.5,0,2018,5,17,22,33,54.611,0.4841,-0.1944,-0.5164,0.679
-0.183,-0.427,-0.24,54.9,-2.3,37.9,0,2018,5,17,22,33,54.63,0.4823,-0.189,-0.5266,0.6739
-0.105,-0.227,-0.268,64.9,78.6,23.3,0,2018,5,17,22,33,54.653,0.4818,-0.1752,-0.5274,0.6773
-0.02,0.034,-0.272,76.6,93.5,16.6,0,2018,5,17,22,33,54.672,0.4802,-0.1573,-0.5231,0.6862
0.03,0.225,-0.277,94.8,66.8,19.7,0,2018,5,17,22,33,54.695,0.4766,-0.1385,-0.5209,0.6944
-0.007,0.43,-0.078,107.2,18.8,32,0,2018,5,17,22,33,54.709,0.4713,-0.12,-0.5248,0.6985
0.128,0.318,0.336,76.3,-48,50.5,0,2018,5,17,22,33,54.728,0.4675,-0.1061,-0.5353,0.6953
0.066,0.013,0.536,24.3,-62.4,59.8,0,2018,5,17,22,33,54.748,0.4683,-0.0998,-0.5478,0.6859
0.021,0.084,0.235,-13.2,-35.6,71.3,0,2018,5,17,22,33,54.769,0.475,-0.0971,-0.5548,0.676
0.039,0.396,-0.027,-24.1,-35.6,87.9,0,2018,5,17,22,33,54.791,0.4859,-0.0946,-0.5582,0.6657
0.097,0.559,-0.172,-15.2,-72.4,103.6,0,2018,5,17,22,33,54.81,0.4981,-0.0919,-0.5638,0.6522
-0.081,0.012,-0.494,0.9,-82.2,119.6,1023,2018,5,17,22,33,54.833,0.51,-0.0893,-0.5749,0.6334
-0.05,-0.785,-0.365,-0.8,46.6,118.5,1023,2018,5,17,22,33,54.852,0.5223,-0.0797,-0.5803,0.6196
0.052,-0.382,-0.186,-14.1,245.5,111.8,1023,2018,5,17,22,33,54.875,0.5378,-0.054,-0.5635,0.6246
0.09,0.762,0.141,10,173.9,91,1023,2018,5,17,22,33,54.893,0.5508,-0.0221,-0.5376,0.6379
0.046,0.604,0.11,55.1,-121.7,66.9,1023,2018,5,17,22,33,54.916,0.5568,-0.0086,-0.5384,0.6323
0.111,-0.203,-0.296,83.9,-293.8,34.2,1023,2018,5,17,22,33,54.932,0.5545,-0.0184,-0.5705,0.6055
0.083,-0.72,-0.424,80.9,-246.9,21.6,1023,2018,5,17,22,33,54.955,0.5472,-0.0345,-0.6083,0.5737
-0.023,-0.895,-0.044,38.5,-4.6,25.3,1023,2018,5,17,22,33,54.992,0.5417,-0.0388,-0.6273,0.558
0.094,0.136,0.235,-1.1,174.1,29.1,1023,2018,5,17,22,33,54.992,0.5437,-0.0233,-0.618,0.5672
0.237,0.55,0.342,-9.7,118.2,20.2,1023,2018,5,17,22,33,55.014,0.547,-0.007,-0.6016,0.5819
0.138,0.419,0.224,-7,26.6,33.7,1023,2018,5,17,22,33,55.032,0.5509,0.0014,-0.5939,0.5862
0.237,0.274,-0.094,-4.1,23.5,58.5,1023,2018,5,17,22,33,55.052,0.556,0.0078,-0.5917,0.5835
0.079,0.453,0.096,7.7,-30.8,53.3,1023,2018,5,17,22,33,55.075,0.5617,0.0149,-0.592,0.5776
0.07,-0.19,0.137,13.3,-67.7,42.5,1023,2018,5,17,22,33,55.111,0.565,0.0144,-0.5987,0.5674
0.131,-0.082,0.157,11.9,-23.9,58.2,1023,2018,5,17,22,33,55.134,0.5687,0.0167,-0.6052,0.5567
0.165,-0.131,0.16,-14.5,39.2,48.6,1023,2018,5,17,22,33,55.139,0.5738,0.023,-0.6041,0.5524
0.286,0.237,0.214,-53.2,68.5,67.8,1023,2018,5,17,22,33,55.153,0.5825,0.0313,-0.5947,0.5531
0.254,0.558,-0.033,-76.8,32.8,99.7,0,2018,5,17,22,33,55.176,0.5972,0.0392,-0.5818,0.5505
0.049,0.217,0.138,-104.6,32.8,137.1,0,2018,5,17,22,33,55.194,0.6176,0.0451,-0.5691,0.5409
-0.033,-0.08,-0.135,-113.2,112.5,135.3,0,2018,5,17,22,33,55.218,0.6403,0.0556,-0.5487,0.5344
0.064,0.186,-0.302,-87.7,57.7,128.1,0,2018,5,17,22,33,55.237,0.6611,0.07,-0.5263,0.5299
0.341,0.128,-0.499,-66.6,-38.9,154,0,2018,5,17,22,33,55.26,0.6796,0.0746,-0.5176,0.5143
0.358,0.716,0.293,-93.8,-125.4,188.4,0,2018,5,17,22,33,55.276,0.7058,0.0759,-0.5104,0.4852
-0.321,-0.065,-0.03,-111.1,-163.5,195.6,0,2018,5,17,22,33,55.312,0.7315,0.0654,-0.5082,0.4496
-0.328,-0.081,-0.321,-123.8,-161.5,205.6,0,2018,5,17,22,33,55.336,0.7585,0.0521,-0.5034,0.4104
-0.715,-0.946,-0.193,-162.4,-80.1,181.9,0,2018,5,17,22,33,55.34,0.7856,0.0439,-0.4904,0.3745
-0.81,-0.639,0.066,-173.1,-83.5,135.8,0,2018,5,17,22,33,55.354,0.8105,0.0362,-0.4701,0.3474
-0.968,-0.679,0.009,-156.4,-194.9,56,0,2018,5,17,22,33,55.377,0.83,0.0149,-0.4536,0.324
-0.976,-0.734,0.018,-119.6,-331.2,-45.7,0,2018,5,17,22,33,55.413,0.8407,-0.0318,-0.4481,0.3019
-0.902,-0.773,0.13,-81.8,-378.5,-132,0,2018,5,17,22,33,55.434,0.8395,-0.0982,-0.4512,0.2862
-0.703,-0.875,-0.047,-37,-304.7,-192.4,0,2018,5,17,22,33,55.441,0.828,-0.1647,-0.456,0.2814
-0.605,-0.458,0.147,-2.7,-225.8,-248,0,2018,5,17,22,33,55.458,0.8099,-0.2198,-0.4585,0.2922
-0.487,-0.198,0.116,35.3,-235.8,-276.9,0,2018,5,17,22,33,55.481,0.7846,-0.2723,-0.4615,0.3117
-0.196,-0.001,-0.027,78.4,-236.9,-281.6,0,2018,5,17,22,33,55.498,0.7514,-0.3239,-0.4682,0.3332
0.014,0.262,0.046,109.8,-214.6,-264.4,0,2018,5,17,22,33,55.515,0.7139,-0.3688,-0.4777,0.355
0.14,0.733,0.185,132.8,-228.9,-235.6,0,2018,5,17,22,33,55.538,0.6723,-0.4087,-0.4898,0.3753
0.183,0.871,0.257,138,-253.3,-191.9,0,2018,5,17,22,33,55.555,0.6281,-0.4457,-0.5056,0.3886
0.215,0.83,0.349,124.8,-246.1,-145,0,2018,5,17,22,33,55.578,0.5846,-0.478,-0.5231,0.3949
0.392,0.938,0.362,111.4,-219.2,-88,1023,2018,5,17,22,33,55.613,0.5451,-0.5041,-0.5411,0.3947
0.467,0.906,0.372,91.6,-165,-23.5,1023,2018,5,17,22,33,55.637,0.5143,-0.52,-0.5593,0.3899
0.389,0.553,0.387,58.4,-68.5,22.7,1023,2018,5,17,22,33,55.641,0.4964,-0.5247,-0.5743,0.3849
0.388,-0.103,0.252,16.3,95,70.5,1023,2018,5,17,22,33,55.659,0.4966,-0.5166,-0.5819,0.3843
0.439,-0.169,-0.068,-23.6,354.6,102.8,1023,2018,5,17,22,33,55.697,0.5231,-0.4875,-0.5741,0.3987
0.254,-0.396,-0.533,-48,598.2,98,1023,2018,5,17,22,33,55.72,0.5733,-0.4331,-0.5439,0.4332
-0.087,-1.046,-0.68,-84.3,862.2,46.1,1023,2018,5,17,22,33,55.724,0.6357,-0.3532,-0.4832,0.4872
0.135,-0.162,-0.225,-90.4,998.4,8,1023,2018,5,17,22,33,55.736,0.6941,-0.2488,-0.3865,0.5539
-0.04,1.707,1.362,-78.6,628.2,-33.2,1023,2018,5,17,22,33,55.776,0.729,-0.1486,-0.287,0.6033
-0.331,0.895,1.206,-65.9,-90,-58.2,1023,2018,5,17,22,33,55.776,0.7327,-0.1281,-0.2519,0.6189
0.107,-0.528,0.089,-58.8,-373.5,-86.4,1023,2018,5,17,22,33,55.799,0.7201,-0.1739,-0.2726,0.6137
0.27,-0.99,-0.077,-54.4,-283.9,-124.2,1023,2018,5,17,22,33,55.818,0.6994,-0.2276,-0.2989,0.6078
0.205,-0.509,-0.075,-51.8,-138.3,-152.5,1023,2018,5,17,22,33,55.839,0.6787,-0.2648,-0.308,0.6117
0.173,-0.089,-0.113,-44.1,-98,-167.2,1023,2018,5,17,22,33,55.877,0.6585,-0.2912,-0.3067,0.6223
0.123,-0.012,-0.221,-33.6,-87.5,-166.7,1023,2018,5,17,22,33,55.9,0.6372,-0.3147,-0.3039,0.6343
0.053,0.016,-0.237,-8.9,-81,-164.8,1023,2018,5,17,22,33,55.905,0.6151,-0.3345,-0.3019,0.6468
-0.073,-0.044,-0.091,9.8,-100.2,-169.8,1023,2018,5,17,22,33,55.921,0.5907,-0.3522,-0.3025,0.6599
-0.148,-0.171,0.102,21.7,-97.4,-158.2,1023,2018,5,17,22,33,55.944,0.5649,-0.3686,-0.3068,0.6714
-0.201,-0.177,0.068,32.1,-76.9,-153,0,2018,5,17,22,33,55.96,0.539,-0.3821,-0.3091,0.6839
-0.319,-0.142,-0.058,52.5,-97.5,-160.5,0,2018,5,17,22,33,55.983,0.5124,-0.393,-0.3129,0.6964
-0.272,-0.036,-0.005,68.7,-137.7,-159.9,0,2018,5,17,22,33,56.019,0.4807,-0.4048,-0.3217,0.7081
-0.336,-0.054,-0.01,74.4,-123.3,-157.8,0,2018,5,17,22,33,56.042,0.4469,-0.4157,-0.3339,0.7181
-0.374,-0.134,0.065,52.6,-11.3,-144.9,0,2018,5,17,22,33,56.047,0.4187,-0.422,-0.3366,0.7301
-0.405,0.246,0.101,35.8,61.9,-134.1,0,2018,5,17,22,33,56.06,0.4012,-0.4219,-0.3241,0.7455
-0.338,0.489,0.026,34.6,25.9,-101.5,0,2018,5,17,22,33,56.083,0.3873,-0.4207,-0.3114,0.7589
-0.319,0.424,0.019,39.2,-11.5,-63.3,0,2018,5,17,22,33,56.101,0.3748,-0.4199,-0.3074,0.7672
-0.359,0.297,0.095,32.9,-17.5,-31.2,0,2018,5,17,22,33,56.12,0.3652,-0.4185,-0.3088,0.7719
-0.174,0.425,0.085,20.7,12.8,5.7,0,2018,5,17,22,33,56.142,0.3617,-0.416,-0.3099,0.7745
-0.03,0.566,-0.084,17.1,37.7,52.2,0,2018,5,17,22,33,56.161,0.367,-0.4102,-0.3092,0.7755
0.049,0.508,-0.314,27.5,38.3,102.2,0,2018,5,17,22,33,56.184,0.3791,-0.4006,-0.311,0.7739
-0.035,-0.013,-0.339,43.8,65.7,137.6,0,2018,5,17,22,33,56.203,0.397,-0.3853,-0.3154,0.7709
0.078,-0.168,0.491,-5.8,172.4,133.8,0,2018,5,17,22,33,56.226,0.4496,-0.3442,-0.3009,0.7672
-0.191,-0.373,0.289,-31.2,124.7,102.6,0,2018,5,17,22,33,56.242,0.4751,-0.3287,-0.2864,0.7642
-0.581,-1.028,0.248,-62.8,73.1,46.8,0,2018,5,17,22,33,56.26,0.493,-0.3232,-0.2737,0.7598
-0.621,-0.97,0.254,-82.5,22.5,-22.1,0,2018,5,17,22,33,56.283,0.5004,-0.3285,-0.2615,0.757
-0.301,-0.584,0.209,-91.9,-42.2,-74.2,0,2018,5,17,22,33,56.302,0.4972,-0.343,-0.2524,0.7558
-0.275,-0.431,-0.038,-81.1,-104.7,-119.2,0,2018,5,17,22,33,56.34,0.4831,-0.3658,-0.2492,0.7553
-0.194,-0.273,-0.277,-54.6,-118.7,-152.2,0,2018,5,17,22,33,56.363,0.4603,-0.3903,-0.2496,0.7572
-0.136,-0.06,-0.394,-19.4,-107,-165.7,0,2018,5,17,22,33,56.367,0.4325,-0.411,-0.2506,0.7623
-0.093,0.106,-0.444,10.3,-76.4,-157.1,1023,2018,5,17,22,33,56.383,0.4041,-0.4252,-0.2507,0.77
-0.046,0.269,-0.36,37.2,-58.4,-141.2,1023,2018,5,17,22,33,56.406,0.3774,-0.4332,-0.2503,0.7791
-0.077,0.382,-0.317,65.1,-38.1,-119.9,1023,2018,5,17,22,33,56.425,0.3543,-0.4345,-0.2497,0.7894
-0.118,0.467,-0.126,84.5,-48.2,-98.2,1023,2018,5,17,22,33,56.462,0.3325,-0.4313,-0.2516,0.7999
-0.03,0.562,0.024,89.9,-48.7,-62.7,1023,2018,5,17,22,33,56.483,0.3136,-0.4255,-0.2575,0.8088
0.053,0.529,-0.047,88.3,-26,-28.8,1023,2018,5,17,22,33,56.487,0.3005,-0.4168,-0.2639,0.8162
0.045,0.481,0.063,72.7,7.1,9.2,1023,2018,5,17,22,33,56.503,0.2947,-0.4062,-0.2688,0.822
0.006,0.481,0.245,52,42.8,46.4,1023,2018,5,17,22,33,56.522,0.2978,-0.3946,-0.27,0.8262
0.03,0.515,0.298,25.6,77.8,80.1,1023,2018,5,17,22,33,56.544,0.3096,-0.3829,-0.267,0.8283
0.068,0.536,0.257,5.5,67.5,103.1,1023,2018,5,17,22,33,56.562,0.3276,-0.3724,-0.2622,0.8277
0.195,0.398,0.258,-3,-1.9,125.2,1023,2018,5,17,22,33,56.586,0.3461,-0.3653,-0.2648,0.8225
0.126,0.13,0.247,-18.1,-38,138.1,1023,2018,5,17,22,33,56.604,0.364,-0.3621,-0.2764,0.8123
-0.035,-0.206,0.096,-30.9,-15.2,133.3,1023,2018,5,17,22,33,56.627,0.3828,-0.3605,-0.2875,0.8004
-0.062,-0.493,0.155,-31.4,-11.7,105,1023,2018,5,17,22,33,56.663,0.4006,-0.3597,-0.2935,0.7898
0.125,-0.25,0.261,-17.5,-83.3,73.2,1023,2018,5,17,22,33,56.687,0.4119,-0.3611,-0.303,0.7797
0.197,-0.175,0.082,-3,-213.8,42.5,1023,2018,5,17,22,33,56.691,0.4095,-0.3708,-0.3264,0.7668
0.055,-0.858,-0.065,-11.8,-169.2,29.6,1023,2018,5,17,22,33,56.71,0.4008,-0.3845,-0.356,0.7514
-0.023,-1.035,-0.132,-24,-4.9,-10.9,1023,2018,5,17,22,33,56.727,0.3976,-0.3921,-0.3665,0.7441
-0.087,-0.972,0.047,-39.6,110.2,-44.9,1023,2018,5,17,22,33,56.75,0.4,-0.3939,-0.354,0.7479
0.044,-0.477,0.144,-47.5,129.4,-81.2,1023,2018,5,17,22,33,56.795,0.4035,-0.3942,-0.3297,0.7569
0.082,-0.271,0.116,-52.4,84.1,-103.6,1023,2018,5,17,22,33,56.796,0.4011,-0.3984,-0.3063,0.7657
0.098,-0.197,0.048,-52.2,73.7,-109.8,0,2018,5,17,22,33,56.811,0.3947,-0.406,-0.2854,0.7731
0.017,-0.261,0.057,-52.4,96.8,-106.4,0,2018,5,17,22,33,56.827,0.3884,-0.4126,-0.2636,0.7806
-0.042,-0.064,0.097,-59.4,133.5,-97.7,0,2018,5,17,22,33,56.863,0.386,-0.4161,-0.2373,0.7883
-0.102,0.085,0.063,-62.4,132.1,-93.2,0,2018,5,17,22,33,56.884,0.3854,-0.4184,-0.2074,0.7957
-0.137,0.149,0.044,-58.8,96.1,-85.2,0,2018,5,17,22,33,56.889,0.3835,-0.4222,-0.181,0.8011
-0.196,0.057,0.034,-51.4,52.7,-85.2,0,2018,5,17,22,33,56.925,0.3787,-0.4276,-0.1607,0.8049
-0.271,-0.06,0.031,-49.5,34.1,-88.2,0,2018,5,17,22,33,56.947,0.3708,-0.4344,-0.145,0.8078
-0.262,-0.081,-0.076,-52.4,41.1,-90.8,0,2018,5,17,22,33,56.952,0.3622,-0.4415,-0.1296,0.8105
-0.197,-0.079,-0.13,-54.4,53.7,-91.8,0,2018,5,17,22,33,56.968,0.3541,-0.448,-0.1123,0.8131
-0.22,-0.184,-0.142,-52.7,62.8,-99.1,0,2018,5,17,22,33,56.991,0.3463,-0.4538,-0.0928,0.8157
-0.331,-0.19,-0.084,-58.8,68,-104.6,0,2018,5,17,22,33,57.01,0.3377,-0.4593,-0.0721,0.8183
-0.317,-0.155,-0.07,-61.6,47.2,-121,0,2018,5,17,22,33,57.033,0.3271,-0.4657,-0.0509,0.8206
-0.244,-0.168,-0.068,-59.7,16.3,-137.7,0,2018,5,17,22,33,57.05,0.3114,-0.4737,-0.0324,0.8231
-0.371,-0.193,-0.088,-57.9,-1.3,-157.7,0,2018,5,17,22,33,57.067,0.2907,-0.4824,-0.0162,0.8261
-0.629,-0.425,0.053,-81.5,21.3,-177.4,0,2018,5,17,22,33,57.09,0.2671,-0.4922,0.0023,0.8284
-0.551,-0.257,0.061,-104.7,65.8,-194.2,0,2018,5,17,22,33,57.108,0.2439,-0.5033,0.0293,0.8284
-0.53,-0.074,0.013,-112.4,71.7,-210.7,0,2018,5,17,22,33,57.131,0.2202,-0.5145,0.0625,0.8263
-0.573,-0.032,-0.039,-102.4,31.1,-224.9,1023,2018,5,17,22,33,57.149,0.1922,-0.5251,0.0939,0.8236
-0.627,0.049,-0.058,-83.5,-44,-230,1023,2018,5,17,22,33,57.172,0.1567,-0.5344,0.1169,0.8222
-0.593,-0.034,-0.247,-57.6,-84.7,-234,1023,2018,5,17,22,33,57.19,0.1153,-0.5409,0.1301,0.8228
-0.536,-0.17,-0.251,-42.3,-66,-230.5,1023,2018,5,17,22,33,57.213,0.0732,-0.5438,0.1416,0.8239
-0.474,0.022,-0.265,-23.9,-39.9,-229.1,1023,2018,5,17,22,33,57.232,0.0348,-0.5432,0.1566,0.824
-0.593,0.092,-0.272,-4.9,-32.8,-208.6,1023,2018,5,17,22,33,57.255,-0.001,-0.5388,0.1719,0.8247
-0.471,0.133,-0.175,-0.8,-6.2,-178.8,1023,2018,5,17,22,33,57.271,-0.0306,-0.5331,0.1878,0.8243
-0.248,0.569,-0.207,9.8,-24.4,-139.1,1023,2018,5,17,22,33,57.294,-0.0544,-0.527,0.201,0.8239
-0.222,0.714,-0.33,36.5,-105.2,-86.1,1023,2018,5,17,22,33,57.31,-0.0757,-0.5188,0.2023,0.827
-0.305,0.26,-0.294,48.7,-155.9,-28.8,1023,2018,5,17,22,33,57.348,-0.0942,-0.5086,0.1879,0.8349
-0.311,0.041,-0.043,36.7,-167.8,19.3,1023,2018,5,17,22,33,57.371,-0.1085,-0.4985,0.1651,0.844
-0.294,0.423,0.067,6.7,-180.1,77.1,1023,2018,5,17,22,33,57.376,-0.1156,-0.4932,0.1355,0.8514
-0.251,0.375,0.174,-34.4,-209.7,131.2,1023,2018,5,17,22,33,57.391,-0.1169,-0.4934,0.0967,0.8564
-0.174,0.394,-0.073,-78,-208.5,193.2,1023,2018,5,17,22,33,57.415,-0.1115,-0.4998,0.0498,0.8574
-0.301,0.253,-0.366,-117.7,-209,237.1,1023,2018,5,17,22,33,57.431,-0.0977,-0.5116,-0.002,0.8536
-0.424,0.282,-0.478,-146.6,-236.7,277.5,1023,2018,5,17,22,33,57.454,-0.0789,-0.5266,-0.0603,0.8442
-0.461,-0.289,-0.516,-166.6,-204.6,295.5,1023,2018,5,17,22,33,57.49,-0.0555,-0.5417,-0.1232,0.8296
-0.452,-0.38,-0.271,-193.2,-140.3,306.1,1023,2018,5,17,22,33,57.513,-0.024,-0.5582,-0.177,0.8102
-0.252,-0.334,-0.378,-221.5,-118.8,318.2,1023,2018,5,17,22,33,57.518,0.0145,-0.5761,-0.2257,0.7854
-0.193,-0.385,-0.568,-237.3,-107.6,311.1,1023,2018,5,17,22,33,57.536,0.0553,-0.594,-0.2717,0.755
-0.097,-0.321,-0.524,-241.6,-94.7,302.1,0,2018,5,17,22,33,57.554,0.0963,-0.6105,-0.3137,0.7208
-0.16,-0.134,-0.448,-250.4,-101.7,298.3,0,2018,5,17,22,33,57.576,0.137,-0.6251,-0.3524,0.6827
-0.066,-0.207,-0.439,-264.3,-113.6,299.7,0,2018,5,17,22,33,57.593,0.1759,-0.6384,-0.3908,0.6392
-0.035,-0.424,-0.286,-278.8,-91.4,293.5,0,2018,5,17,22,33,57.629,0.2153,-0.6501,-0.4262,0.5909
0.151,-0.461,-0.226,-288.7,-11.9,279.1,0,2018,5,17,22,33,57.652,0.2593,-0.6584,-0.4525,0.5425
0.486,-0.642,-0.306,-265.9,104.6,265.7,0,2018,5,17,22,33,57.657,0.3114,-0.6598,-0.4658,0.5004
0.736,-0.578,-0.287,-228,248,252.3,0,2018,5,17,22,33,57.673,0.3738,-0.6489,-0.4654,0.4716
0.857,-0.13,-0.173,-180,344.9,244.4,0,2018,5,17,22,33,57.696,0.4443,-0.6234,-0.4537,0.456
0.688,-0.042,-0.143,-135.4,349.9,231.1,0,2018,5,17,22,33,57.714,0.5126,-0.5877,-0.4379,0.4471
0.561,-0.449,0.019,-90.6,326.4,187.9,0,2018,5,17,22,33,57.737,0.5703,-0.5491,-0.4224,0.4412
0.492,-0.302,0.038,-43.7,309.1,132.2,0,2018,5,17,22,33,57.755,0.6164,-0.5098,-0.406,0.4418
0.321,-0.222,0.001,6.7,274,80.8,0,2018,5,17,22,33,57.778,0.651,-0.4711,-0.3904,0.4491
0.131,-0.504,0.319,22.2,237.8,16.6,0,2018,5,17,22,33,57.814,0.6731,-0.4378,-0.3763,0.462
0.098,-0.108,0.512,15.8,211.8,-10,0,2018,5,17,22,33,57.814,0.6887,-0.4087,-0.3599,0.4785
0.09,-0.089,0.307,5,152.1,-31.3,0,2018,5,17,22,33,57.837,0.6987,-0.3871,-0.3442,0.4932
-0.078,-0.42,0.07,-9.9,158.9,-46.6,0,2018,5,17,22,33,57.854,0.7053,-0.3713,-0.3289,0.5063
-0.115,-0.436,0.098,-32.1,200,-67.7,0,2018,5,17,22,33,57.877,0.7123,-0.3543,-0.3067,0.5223
-0.075,-0.096,0.26,-55.5,223.1,-72.1,0,2018,5,17,22,33,57.913,0.7214,-0.3341,-0.2769,0.5395
-0.011,0.16,0.215,-62.5,158.3,-69.2,0,2018,5,17,22,33,57.936,0.7287,-0.3181,-0.2466,0.5539
0.012,0.157,-0.064,-54.9,67.2,-65,1023,2018,5,17,22,33,57.941,0.7308,-0.3126,-0.2244,0.5637
0.03,0.069,-0.171,-42.7,14.9,-62.4,1023,2018,5,17,22,33,57.956,0.7283,-0.3151,-0.2109,0.5706
-0.051,-0.049,-0.161,-36.5,13.4,-61.3,1023,2018,5,17,22,33,57.98,0.7239,-0.3204,-0.2021,0.5765
-0.088,0.033,-0.204,-24.8,22.6,-53.8,1023,2018,5,17,22,33,57.996,0.7203,-0.3227,-0.1933,0.5826
-0.142,0.023,-0.31,-4.4,1.3,-54.8,1023,2018,5,17,22,33,58.019,0.7162,-0.3241,-0.1871,0.5889
-0.201,-0.212,-0.337,23.7,-38.8,-75,1023,2018,5,17,22,33,58.055,0.7081,-0.3273,-0.1868,0.597
-0.296,-0.439,-0.032,37.8,-60.6,-97.7,1023,2018,5,17,22,33,58.079,0.6948,-0.3332,-0.1917,0.6077
-0.36,-0.493,0.155,45.2,-79.4,-126.9,1023,2018,5,17,22,33,58.083,0.6773,-0.3405,-0.1973,0.6214
-0.309,-0.437,0.093,70.1,-171.1,-167.1,1023,2018,5,17,22,33,58.096,0.6517,-0.3534,-0.2085,0.6377
-0.238,-0.374,-0.117,105.8,-285.6,-197.4,1023,2018,5,17,22,33,58.134,0.6124,-0.3767,-0.2333,0.6546
-0.365,-0.675,-0.095,124.9,-281.3,-220.7,1023,2018,5,17,22,33,58.156,0.5628,-0.4024,-0.2649,0.6715
-0.289,-0.365,0.065,142.7,-212.3,-230.6,1023,2018,5,17,22,33,58.161,0.5121,-0.4204,-0.2899,0.6905
-0.218,0.065,0.245,157.7,-261,-244.1,1023,2018,5,17,22,33,58.176,0.4581,-0.4334,-0.3127,0.7101
-0.207,0.024,0.291,166.2,-390.1,-239.9,1023,2018,5,17,22,33,58.199,0.3926,-0.4516,-0.3471,0.7219
-0.097,-0.083,-0.053,198.9,-431.2,-237.3,1023,2018,5,17,22,33,58.217,0.3168,-0.4697,-0.3933,0.724
-0.032,-0.221,0.108,206.4,-363.5,-220.1,1023,2018,5,17,22,33,58.24,0.2403,-0.4796,-0.4354,0.7228
-0.019,-0.318,0.191,213.2,-281.1,-220.5,1023,2018,5,17,22,33,58.277,0.1695,-0.4816,-0.4649,0.7232
-0.02,-0.291,0.14,212.5,-215.5,-225.9,1023,2018,5,17,22,33,58.3,0.1027,-0.4791,-0.4829,0.7256
-0.059,-0.144,0.114,208.8,-146.4,-211.1,1023,2018,5,17,22,33,58.305,0.0425,-0.4731,-0.4904,0.7306
-0.116,-0.01,-0.011,214.9,-117.7,-194.1,0,2018,5,17,22,33,58.321,-0.0112,-0.4631,-0.491,0.7377
-0.034,0.155,-0.059,212.2,-111.5,-170.4,0,2018,5,17,22,33,58.344,-0.0626,-0.4502,-0.4907,0.7433
-0.016,0.202,-0.187,208,-65.8,-139.7,0,2018,5,17,22,33,58.38,-0.1075,-0.4348,-0.4874,0.7495
-0.258,0.254,-0.102,200.5,-19.2,-122.2,0,2018,5,17,22,33,58.38,-0.1451,-0.4181,-0.4788,0.7581
-0.167,0.269,-0.021,179.3,37.7,-88.3,0,2018,5,17,22,33,58.403,-0.1742,-0.4018,-0.4646,0.7695
-0.015,0.535,-0.019,155.3,90.6,-56.6,0,2018,5,17,22,33,58.421,-0.1926,-0.3871,-0.4453,0.7839
-0.151,0.716,0.068,138.1,98.8,-25.2,0,2018,5,17,22,33,58.44,-0.2027,-0.3735,-0.424,0.7996
-0.319,0.637,0.412,113.8,99.4,17.1,0,2018,5,17,22,33,58.462,-0.2064,-0.3592,-0.4064,0.8143
-0.204,0.52,0.392,60.4,201.5,52,0,2018,5,17,22,33,58.48,-0.1985,-0.3496,-0.3847,0.8308
0.06,0.742,0.234,28.7,256.4,99.7,0,2018,5,17,22,33,58.503,-0.1752,-0.3463,-0.3533,0.8511
0.005,0.806,0.089,22.4,278.5,161.8,0,2018,5,17,22,33,58.54,-0.1409,-0.3422,-0.3211,0.8716
-0.194,0.649,0.213,8,327.4,203,0,2018,5,17,22,33,58.563,-0.0953,-0.3363,-0.2853,0.8923
-0.162,0.689,0.254,3.1,357.4,245,0,2018,5,17,22,33,58.568,-0.0402,-0.3296,-0.2441,0.911
-0.068,0.879,0.194,27.2,329.9,281.6,0,2018,5,17,22,33,58.582,0.0214,-0.3178,-0.2036,0.9257
-0.357,0.795,0.332,59.3,236.8,294.2,0,2018,5,17,22,33,58.599,0.0828,-0.2984,-0.1735,0.9348
-0.643,0.371,0.509,69.9,118,288,0,2018,5,17,22,33,58.621,0.137,-0.2758,-0.1616,0.9375
-0.66,0.006,0.253,48.9,114.4,303.5,0,2018,5,17,22,33,58.657,0.188,-0.2547,-0.1602,0.9348
-0.379,0.088,0.071,57.5,158.6,300,0,2018,5,17,22,33,58.68,0.2425,-0.2329,-0.1512,0.9295
-0.484,0.326,0.158,86.3,43.8,275.3,0,2018,5,17,22,33,58.685,0.2909,-0.2088,-0.1474,0.9219
-0.805,-0.206,0.175,70.1,8.8,273.3,0,2018,5,17,22,33,58.701,0.3332,-0.1879,-0.16,0.9099
-0.923,-0.489,0.352,43.3,74.7,255.6,0,2018,5,17,22,33,58.724,0.3755,-0.1681,-0.1635,0.8965
-0.355,0.012,0.029,29.4,156.1,260,0,2018,5,17,22,33,58.742,0.417,-0.1487,-0.1556,0.883
-0.428,0.07,-0.142,58.8,118.2,237,1023,2018,5,17,22,33,58.765,0.4567,-0.1244,-0.1421,0.8693
-0.641,0.137,-0.059,87.1,29.4,226.4,1023,2018,5,17,22,33,58.783,0.4917,-0.1011,-0.1415,0.8531
-0.884,-0.205,-0.01,80,-110.6,181.5,1023,2018,5,17,22,33,58.806,0.5187,-0.0871,-0.1594,0.8353
-0.765,-0.586,-0.12,39.4,-163.1,117,1023,2018,5,17,22,33,58.823,0.5359,-0.0875,-0.1888,0.8181
-0.578,-0.741,-0.151,-0.2,-128.3,49.8,1023,2018,5,17,22,33,58.841,0.5443,-0.0959,-0.2127,0.8057
-0.412,-0.695,-0.101,-14.4,-89.9,-3.8,1023,2018,5,17,22,33,58.864,0.5458,-0.1066,-0.2274,0.7993
-0.426,-0.711,-0.1,-19.9,-71.2,-62.9,1023,2018,5,17,22,33,58.883,0.5402,-0.1178,-0.2359,0.7991
-0.365,-0.45,0.026,-30.5,-81.5,-109.8,1023,2018,5,17,22,33,58.903,0.5269,-0.1321,-0.2426,0.8037
-0.218,-0.314,0.058,-47.3,-67.1,-133.7,1023,2018,5,17,22,33,58.922,0.509,-0.1498,-0.2468,0.8108
-0.168,-0.048,0.151,-57.3,-50.6,-136,1023,2018,5,17,22,33,58.945,0.4904,-0.168,-0.2466,0.8187
-0.178,0.202,0.25,-68.4,-56.4,-134.4,1023,2018,5,17,22,33,58.979,0.472,-0.1873,-0.2448,0.8259
-0.123,0.43,0.2,-78,-53.8,-125.6,1023,2018,5,17,22,33,59.001,0.4542,-0.2082,-0.2428,0.8314
0.235,0.461,0.149,-83.9,-16.5,-93.7,1023,2018,5,17,22,33,59.006,0.4399,-0.2276,-0.2377,0.8355
0.418,0.404,0.148,-84.1,46.2,-39.2,1023,2018,5,17,22,33,59.043,0.4344,-0.2413,-0.2263,0.8377
0.402,0.412,0.055,-77.3,77.2,8.7,1023,2018,5,17,22,33,59.067,0.4385,-0.2487,-0.2096,0.8377
0.397,0.514,0.036,-62.2,39.3,48.2,1023,2018,5,17,22,33,59.071,0.4482,-0.253,-0.1962,0.8345
0.423,0.426,-0.104,-38,-48.3,77.4,1023,2018,5,17,22,33,59.087,0.4589,-0.2586,-0.1957,0.8271
0.489,0.406,-0.137,-11.1,-146,100.7,1023,2018,5,17,22,33,59.11,0.4681,-0.2669,-0.2123,0.8151
0.332,0.38,-0.075,5.6,-230.8,120.3,0,2018,5,17,22,33,59.129,0.4747,-0.2785,-0.2442,0.7983
0.126,0.341,-0.087,3.7,-303,135.8,0,2018,5,17,22,33,59.147,0.4787,-0.2945,-0.2876,0.7754
0.008,0.285,-0.319,2.4,-346.4,143.2,0,2018,5,17,22,33,59.165,0.4792,-0.3147,-0.3395,0.7456
-0.152,-0.212,-0.336,-13,-251.3,167.8,0,2018,5,17,22,33,59.187,0.482,-0.3311,-0.3874,0.7126
-0.199,-0.338,-0.079,-30.6,-43.6,178,0,2018,5,17,22,33,59.205,0.4963,-0.3343,-0.4136,0.6861
-0.302,-0.055,0.113,-39.8,128.6,184.6,0,2018,5,17,22,33,59.228,0.5236,-0.3202,-0.414,0.6721
-0.371,0.167,0.097,-32.4,156.8,185.5,0,2018,5,17,22,33,59.246,0.5563,-0.2967,-0.4024,0.6636
-0.45,0.233,0.001,-26.1,83.2,180.2,0,2018,5,17,22,33,59.267,0.5853,-0.2749,-0.3946,0.6526
-0.419,0.133,-0.148,-26.5,-0.8,175.6,0,2018,5,17,22,33,59.306,0.6088,-0.2617,-0.3964,0.6353
-0.272,0.015,-0.034,-33.5,-12.3,176.9,0,2018,5,17,22,33,59.329,0.6295,-0.2536,-0.4029,0.6139
-0.35,-0.058,0.021,-41.5,13.2,169.2,0,2018,5,17,22,33,59.334,0.6506,-0.2447,-0.4063,0.5929
-0.689,0.129,-0.038,-34.7,-32.4,114.6,0,2018,5,17,22,33,59.348,0.668,-0.2385,-0.408,0.5747
-0.348,0.042,-0.18,-23.9,-123.1,77.3,0,2018,5,17,22,33,59.366,0.6752,-0.244,-0.4176,0.5567
-0.091,-0.227,-0.228,-27.8,-128.8,51.6,0,2018,5,17,22,33,59.405,0.6773,-0.258,-0.4304,0.5378
-0.178,-0.221,-0.183,-20.6,-74.4,33,0,2018,5,17,22,33,59.428,0.6786,-0.2682,-0.4386,0.5244
-0.077,-0.088,-0.24,-12.7,-88.5,10.2,0,2018,5,17,22,33,59.433,0.6781,-0.2773,-0.4449,0.515
0.006,-0.183,-0.088,-8,-84.4,-5.4,0,2018,5,17,22,33,59.45,0.6744,-0.2883,-0.4522,0.5073
-0.093,-0.151,0.007,-6.8,-46.5,-13.6,0,2018,5,17,22,33,59.468,0.6706,-0.2975,-0.457,0.5027
-0.162,0.025,-0.071,-10.7,-46.6,-21.6,0,2018,5,17,22,33,59.491,0.6675,-0.3044,-0.4591,0.5009
-0.179,-0.028,-0.09,-15.8,-82.8,-15.4,1023,2018,5,17,22,33,59.511,0.6634,-0.3146,-0.4624,0.497
0.033,-0.106,-0.066,-9.9,-85.4,-14.6,1023,2018,5,17,22,33,59.528,0.6581,-0.3269,-0.468,0.4907
0.109,-0.17,-0.068,-14.6,-96.7,-25.7,1023,2018,5,17,22,33,59.551,0.6522,-0.3398,-0.4732,0.4848
0.076,-0.032,-0.025,-2.3,-110.8,-39.2,1023,2018,5,17,22,33,59.573,0.6436,-0.3552,-0.4792,0.4794
0.076,0.045,-0.059,-2.9,-132.2,-43.2,1023,2018,5,17,22,33,59.59,0.632,-0.3729,-0.4867,0.4736
-0.012,-0.173,-0.108,-11,-104.7,-43.2,1023,2018,5,17,22,33,59.613,0.6202,-0.3913,-0.4934,0.4676
0.581,-0.197,-0.075,-42.5,-29.4,-26.4,1023,2018,5,17,22,33,59.628,0.6143,-0.4033,-0.4937,0.4648
-0.222,0.182,-0.078,-7.5,5,-43.6,1023,2018,5,17,22,33,59.666,0.6137,-0.4088,-0.489,0.4657
-0.036,0.219,-0.062,-12.5,-58.3,-34.6,1023,2018,5,17,22,33,59.689,0.6098,-0.4152,-0.4872,0.4672
-0.182,-0.128,-0.156,7.7,-87.5,-55.4,1023,2018,5,17,22,33,59.694,0.6001,-0.4279,-0.491,0.4642
-0.042,0.083,0.003,-9.9,-52.4,-57.9,1023,2018,5,17,22,33,59.709,0.5902,-0.4385,-0.4924,0.4655
-0.325,0.387,-0.185,18.5,-124.2,-52.9,1023,2018,5,17,22,33,59.733,0.5795,-0.4525,-0.4942,0.4636
0.111,0.196,0.029,16.2,-188.3,-49.8,1023,2018,5,17,22,33,59.769,0.5612,-0.4704,-0.5043,0.4575
0.009,-0.132,-0.071,37,-216.9,-62.5,1023,2018,5,17,22,33,59.792,0.5369,-0.4933,-0.5183,0.4467
-0.12,-0.228,-0.122,39.2,-170.9,-80.7,1023,2018,5,17,22,33,59.797,0.5098,-0.5152,-0.5317,0.4379
0.051,-0.133,-0.079,20.8,-48,-76.8,1023,2018,5,17,22,33,59.81,0.4914,-0.53,-0.5347,0.4376
-0.966,0.154,-0.021,53.2,-38.3,-84.3,1023,2018,5,17,22,33,59.833,0.4783,-0.537,-0.534,0.4444
-0.249,0.084,-0.011,45,-105.9,-111.6,1023,2018,5,17,22,33,59.869,0.4595,-0.5481,-0.5336,0.4511
-0.088,-0.079,0.008,85.2,-126.6,-120.5,1023,2018,5,17,22,33,59.893,0.4318,-0.5634,-0.5375,0.4549
-0.506,-0.016,0.108,87.2,-75.2,-116.4,1023,2018,5,17,22,33,59.897,0.4036,-0.5748,-0.541,0.4624
-0.313,0.038,0.144,71.9,2.3,-113.6,1023,2018,5,17,22,33,59.912,0.3834,-0.5816,-0.5374,0.4751
-0.186,0.099,0.307,58.5,44.6,-101,1023,2018,5,17,22,33,59.935,0.3712,-0.5843,-0.5281,0.4916
-0.078,0.139,0.208,48.4,21.4,-77.1,0,2018,5,17,22,33,59.953,0.3623,-0.5854,-0.5193,0.5061
-0.001,-0.055,0.311,32.5,-6.9,-52.2,0,2018,5,17,22,33,59.971,0.3532,-0.5875,-0.5148,0.5147
0.15,0.078,0.243,19,8.8,-35,0,2018,5,17,22,33,59.994,0.3468,-0.5891,-0.5123,0.5196
0.248,-0.074,0.374,-1.4,57.3,-22.1,0,2018,5,17,22,34,0.014,0.347,-0.5886,-0.507,0.5253
0.48,-0.047,0.156,-28.2,119.2,-6.4,0,2018,5,17,22,34,0.051,0.3558,-0.5863,-0.4961,0.5323
0.604,-0.109,0.204,-63.1,181.8,18.5,0,2018,5,17,22,34,0.074,0.3759,-0.5801,-0.4796,0.5403
0.639,0.049,0.32,-110.9,230.8,39.8,0,2018,5,17,22,34,0.078,0.4068,-0.5721,-0.4565,0.5465
0.658,0.37,0.198,-141.2,239.2,70.4,0,2018,5,17,22,34,0.094,0.4461,-0.5621,-0.4291,0.5483
0.456,0.602,0.014,-126.6,98.3,79.5,0,2018,5,17,22,34,0.117,0.4808,-0.5554,-0.4084,0.5416
0.158,0.181,-0.175,-97.7,-98.9,73.1,0,2018,5,17,22,34,0.135,0.4948,-0.5613,-0.407,0.5237
-0.141,-0.809,-0.578,-75.7,-127.5,50,0,2018,5,17,22,34,0.159,0.4932,-0.5761,-0.4175,0.5002
-0.628,-1.189,-0.185,-75.4,-42.7,5.7,0,2018,5,17,22,34,0.175,0.4921,-0.5878,-0.4214,0.4842
-0.891,-0.896,-0.271,-67.9,6.6,-90.2,0,2018,5,17,22,34,0.192,0.4938,-0.5977,-0.4109,0.4795
-0.427,-0.646,-0.645,-26.3,-75.1,-205.2,0,2018,5,17,22,34,0.215,0.4801,-0.6155,-0.3929,0.4859
-0.012,-0.522,-0.836,27.2,-115,-231.9,0,2018,5,17,22,34,0.234,0.4497,-0.6389,-0.3771,0.4971
-0.076,-0.593,-0.469,81.7,-89.5,-246.2,0,2018,5,17,22,34,0.257,0.4124,-0.6575,-0.3636,0.515
-0.27,-0.54,-0.159,103,-11.1,-260.8,0,2018,5,17,22,34,0.276,0.3778,-0.6678,-0.3451,0.5403
-0.302,-0.153,-0.155,129.3,-25.7,-290.5,0,2018,5,17,22,34,0.294,0.3431,-0.6734,-0.3206,0.5708
-0.208,0.14,-0.152,164.7,-96.9,-289.5,1023,2018,5,17,22,34,0.317,0.297,-0.6778,-0.3006,0.6015
-0.187,0.029,-0.159,188.2,-103.1,-263,1023,2018,5,17,22,34,0.335,0.2457,-0.6779,-0.2878,0.6302
-0.494,-0.07,-0.05,203.2,-76.3,-257,1023,2018,5,17,22,34,0.358,0.1957,-0.672,-0.2745,0.6592
-0.624,0.218,0.126,198,-61.9,-247.1,1023,2018,5,17,22,34,0.377,0.1489,-0.6622,-0.2587,0.6872
-0.557,0.37,0.119,200,-75.9,-231.9,1023,2018,5,17,22,34,0.4,0.1033,-0.6499,-0.2436,0.7124
-0.532,0.394,-0.043,201.7,-107.7,-197.5,1023,2018,5,17,22,34,0.417,0.0571,-0.6348,-0.2335,0.7342
-0.627,0.525,-0.005,193.6,-131.8,-152.2,1023,2018,5,17,22,34,0.434,0.0131,-0.6168,-0.2312,0.7522
-0.64,0.611,0.05,169.3,-149.5,-97.4,1023,2018,5,17,22,34,0.457,-0.0257,-0.5976,-0.2362,0.7657
-0.581,0.678,0.059,131.5,-154.2,-35.5,1023,2018,5,17,22,34,0.474,-0.0566,-0.5791,-0.2486,0.7743
-0.483,0.71,0.029,89.9,-146.5,30.9,1023,2018,5,17,22,34,0.497,-0.0768,-0.5624,-0.2674,0.7785
-0.523,0.676,-0.02,44,-147.2,97.8,1023,2018,5,17,22,34,0.533,-0.0852,-0.5481,-0.2925,0.7788
-0.604,0.615,-0.129,-0.5,-138.8,159.1,1023,2018,5,17,22,34,0.556,-0.0823,-0.5363,-0.3238,0.775
-0.602,0.452,-0.149,-30.3,-120.9,224.2,1023,2018,5,17,22,34,0.561,-0.0673,-0.5254,-0.3594,0.7682
-0.6,0.299,-0.107,-58.2,-74.8,279.4,1023,2018,5,17,22,34,0.577,-0.0395,-0.5134,-0.3958,0.7603
-0.584,0.278,-0.109,-84.9,-29.8,325.7,1023,2018,5,17,22,34,0.599,0.0014,-0.5008,-0.4293,0.7515
-0.573,0.331,-0.064,-101.1,-13.6,371.1,1023,2018,5,17,22,34,0.637,0.0527,-0.486,-0.4615,0.7402
-0.573,0.241,0.101,-82.4,-39.1,412.7,1023,2018,5,17,22,34,0.66,0.1091,-0.4653,-0.4959,0.7249
-0.551,-0.23,0.217,-59.8,-44.6,432.2,1023,2018,5,17,22,34,0.665,0.1643,-0.4369,-0.5338,0.705
-0.546,-0.779,0.201,-51.8,66.1,431,1023,2018,5,17,22,34,0.68,0.2223,-0.4017,-0.5631,0.687
-0.599,-1.505,0.053,-34.9,216.9,394.4,0,2018,5,17,22,34,0.704,0.2862,-0.3589,-0.5711,0.6804
-0.356,-1.45,0.363,9.1,311.1,320,0,2018,5,17,22,34,0.72,0.3465,-0.3094,-0.5588,0.6868
-0.103,-0.821,0.554,47.4,283.8,234.3,0,2018,5,17,22,34,0.737,0.392,-0.259,-0.5374,0.7002
0.037,-0.237,0.51,67.2,210.9,183.9,0,2018,5,17,22,34,0.76,0.4224,-0.2151,-0.5189,0.7113
-0.152,-0.19,0.447,79,78.4,150.4,0,2018,5,17,22,34,0.778,0.4417,-0.1799,-0.5126,0.7138
-0.166,-0.576,0.247,82,1.1,112.7,0,2018,5,17,22,34,0.802,0.4519,-0.1553,-0.5187,0.7088
-0.01,-0.686,0.084,78.9,-10.8,74.2,0,2018,5,17,22,34,0.837,0.4552,-0.1383,-0.5294,0.7023
0.223,-0.451,0.13,61.4,17.6,46.8,0,2018,5,17,22,34,0.86,0.4562,-0.124,-0.5355,0.6997
0.378,-0.233,-0.065,48.6,33.7,31.4,0,2018,5,17,22,34,0.865,0.4563,-0.1115,-0.5375,0.7002
0.24,0.002,-0.246,56.3,80.3,20.3,0,2018,5,17,22,34,0.899,0.4557,-0.0977,-0.5336,0.7056
0.137,-0.293,-0.485,76.6,135.7,7.6,0,2018,5,17,22,34,0.921,0.4525,-0.0801,-0.527,0.7148
0.14,0.116,-0.139,72.5,185.3,1.4,0,2018,5,17,22,34,0.925,0.4483,-0.0565,-0.5111,0.7311
0.094,0.448,0.267,58.3,106.8,-9.4,0,2018,5,17,22,34,0.941,0.443,-0.0366,-0.4964,0.7455
0.206,0.496,0.284,43.7,-5.4,-7.4,0,2018,5,17,22,34,0.96,0.4376,-0.0273,-0.4946,0.7504
0.209,0.278,0.146,18.9,-32.5,7.4,0,2018,5,17,22,34,0.996,0.435,-0.0255,-0.5005,0.7479
0.14,-0.003,0.007,-4.2,31.4,22.6,0,2018,5,17,22,34,1.019,0.4364,-0.023,-0.5014,0.7466
0.168,0.097,0.058,-27.8,90.2,32.7,0,2018,5,17,22,34,1.024,0.4415,-0.0184,-0.4919,0.7501
0.243,0.37,0.001,-38.8,116.1,54.1,0,2018,5,17,22,34,1.04,0.4504,-0.011,-0.475,0.7558
0.108,0.318,-0.222,-36.9,114.5,80.2,1023,2018,5,17,22,34,1.062,0.4628,-0.0014,-0.457,0.7594
0.098,0.038,-0.239,-32.1,134.4,89.6,1023,2018,5,17,22,34,1.08,0.4768,0.0108,-0.4381,0.7618
-0.003,-0.03,-0.18,-23.3,153.6,92.7,1023,2018,5,17,22,34,1.103,0.4902,0.0261,-0.4168,0.7649
-0.318,-0.27,-0.103,-13.8,138.8,66.4,1023,2018,5,17,22,34,1.122,0.5016,0.0427,-0.3942,0.7688
-0.316,-0.315,-0.062,6.9,56.8,40,1023,2018,5,17,22,34,1.145,0.5081,0.055,-0.3802,0.7708
-0.355,-0.901,-0.062,8.9,5.7,1.1,1023,2018,5,17,22,34,1.162,0.5098,0.0591,-0.3786,0.7701
-0.186,-0.695,0.026,-0.6,107.6,-21,1023,2018,5,17,22,34,1.185,0.507,0.0638,-0.3723,0.7747
-0.386,0.031,0.247,-9.4,134.3,-38.6,1023,2018,5,17,22,34,1.202,0.5018,0.0741,-0.3531,0.786
-0.31,-0.033,0.327,-19.3,47,-31,1023,2018,5,17,22,34,1.238,0.4969,0.0775,-0.3402,0.7945
-0.132,-0.004,0.076,-19.2,11.7,-48.7,1023,2018,5,17,22,34,1.261,0.492,0.0752,-0.336,0.7995
-0.151,0.139,0.131,-25.1,25.6,-39.7,1023,2018,5,17,22,34,1.266,0.4867,0.0713,-0.332,0.8048
-0.166,0.445,0.306,-36.7,16.9,-13,1023,2018,5,17,22,34,1.282,0.4843,0.0677,-0.3261,0.8089
-0.024,0.508,0.111,-45.2,-42.2,7.7,1023,2018,5,17,22,34,1.305,0.4866,0.0606,-0.3244,0.8088
-0.023,0.459,-0.002,-40.2,-102.5,21.9,1023,2018,5,17,22,34,1.322,0.492,0.049,-0.331,0.8037
-0.161,0.35,-0.042,-35.8,-132.2,43.5,1023,2018,5,17,22,34,1.344,0.4995,0.0355,-0.3447,0.7939
-0.153,0.379,-0.059,-31.5,-171.4,53.4,1023,2018,5,17,22,34,1.383,0.5089,0.0212,-0.3624,0.7805
-0.064,0.038,-0.391,-9.7,-202.8,53.6,1023,2018,5,17,22,34,1.406,0.5174,0.0046,-0.3871,0.763
0.024,0.067,-0.396,4.2,-144.4,64.4,1023,2018,5,17,22,34,1.41,0.5251,-0.0071,-0.4102,0.7455
0.037,0.179,-0.27,15.4,-84.4,84.1,0,2018,5,17,22,34,1.426,0.5334,-0.0101,-0.4258,0.7307
-0.168,0.126,0.054,22.7,-90.7,103.3,0,2018,5,17,22,34,1.449,0.544,-0.0076,-0.4382,0.7154
-0.192,-0.268,-0.091,24.7,-92.2,104.7,0,2018,5,17,22,34,1.468,0.555,-0.0053,-0.4526,0.6978
-0.172,-0.206,-0.107,19.7,-56.7,98.8,0,2018,5,17,22,34,1.484,0.565,-0.0014,-0.4643,0.6819
-0.163,0.041,-0.009,20,-48.8,94.9,0,2018,5,17,22,34,1.521,0.5746,0.0042,-0.4722,0.6683
-0.102,0.386,-0.025,30.2,-123.8,84.1,0,2018,5,17,22,34,1.543,0.583,0.0066,-0.484,0.6524
0.033,0.293,-0.251,52.8,-224.6,74.9,0,2018,5,17,22,34,1.548,0.5884,0,-0.5083,0.6287
0.069,0.2,-0.453,76.6,-263.3,74.1,0,2018,5,17,22,34,1.564,0.5897,-0.0119,-0.5423,0.5982
0.109,0.251,-0.329,84.5,-259.6,84.2,0,2018,5,17,22,34,1.588,0.5889,-0.0221,-0.5777,0.5646
0.074,0.089,-0.25,77.3,-252.2,101.3,0,2018,5,17,22,34,1.608,0.5881,-0.0306,-0.6112,0.5286
-0.012,-0.512,-0.255,68.5,-216.7,96.3,0,2018,5,17,22,34,1.625,0.5876,-0.0372,-0.6407,0.4926
-0.015,-0.761,-0.271,54.6,-98.1,79.9,0,2018,5,17,22,34,1.648,0.5868,-0.0378,-0.661,0.466
0.125,-0.303,-0.317,57.5,-24.1,61.2,0,2018,5,17,22,34,1.685,0.5857,-0.0303,-0.6711,0.4534
0.21,-0.107,-0.173,61.4,-6.5,42.1,0,2018,5,17,22,34,1.685,0.5826,-0.0203,-0.6782,0.4472
0.103,-0.003,-0.09,68,-70.5,26.4,0,2018,5,17,22,34,1.707,0.5772,-0.0147,-0.6878,0.4398
0.101,-0.336,0.058,61.1,-97.4,18.8,0,2018,5,17,22,34,1.727,0.5706,-0.017,-0.7015,0.4264
0.062,-0.362,-0.072,48.2,-23.3,4.4,0,2018,5,17,22,34,1.764,0.5645,-0.0176,-0.7117,0.4175
0.178,-0.036,-0.026,32.4,31.9,-4.9,0,2018,5,17,22,34,1.788,0.5594,-0.0144,-0.7149,0.4191
0.04,0.474,0.22,6.1,40.7,6.9,0,2018,5,17,22,34,1.791,0.5573,-0.0086,-0.7132,0.425
-0.183,0.396,0.35,-10.1,-0.1,19.4,1023,2018,5,17,22,34,1.836,0.5587,-0.0054,-0.7116,0.4258
-0.213,0.219,0.211,-16.8,-18.3,29.4,1023,2018,5,17,22,34,1.838,0.5625,-0.0043,-0.7111,0.4216
-0.044,0.074,0.001,-15.2,-34.5,23,1023,2018,5,17,22,34,1.849,0.5666,-0.005,-0.7113,0.4157
-0.009,-0.128,-0.066,-8.5,-22.2,24,1023,2018,5,17,22,34,1.886,0.5693,-0.0059,-0.7127,0.4095
0.097,0.115,0.13,-5.4,-10.5,36,1023,2018,5,17,22,34,1.906,0.5723,-0.0042,-0.713,0.4049
0.137,0.398,0.244,1.9,-55.5,49.7,1023,2018,5,17,22,34,1.909,0.5755,-0.0018,-0.7149,0.3968
0.002,0.134,0.395,-9.6,-97.9,58.2,1023,2018,5,17,22,34,1.947,0.5793,-0.0036,-0.7204,0.3811
0.117,-0.109,0.178,-19.6,-63.7,60,1023,2018,5,17,22,34,1.97,0.5851,-0.0055,-0.7246,0.3639
0.005,-0.037,0.201,-27.5,-62.2,41.4,1023,2018,5,17,22,34,1.975,0.5914,-0.0063,-0.7254,0.3519
0.027,-0.132,-0.049,-12.5,-107.7,33.1,1023,2018,5,17,22,34,1.987,0.5961,-0.012,-0.7287,0.3367
-0.001,-0.627,0.035,-7,-40.2,25.5,1023,2018,5,17,22,34,2.025,0.5987,-0.017,-0.7325,0.3234
-0.009,-0.211,0.198,-6.2,9.5,5.7,1023,2018,5,17,22,34,2.049,0.6004,-0.0159,-0.7321,0.3212
-0.033,-0.046,0.113,-10.8,-12.5,6,1023,2018,5,17,22,34,2.053,0.6018,-0.0156,-0.7313,0.3204
-0.136,-0.301,0.007,-13.8,2.2,10.5,1023,2018,5,17,22,34,2.069,0.6041,-0.0165,-0.7301,0.3187
-0.102,-0.28,-0.014,-16.8,96.9,0.8,1023,2018,5,17,22,34,2.093,0.6065,-0.0111,-0.7255,0.3248
-0.065,-0.062,0.099,-16.4,81.4,-27.9,1023,2018,5,17,22,34,2.112,0.6081,-0.0035,-0.7175,0.3395
-0.06,-0.383,0.237,-23,33.7,-43.9,1023,2018,5,17,22,34,2.148,0.6085,-0.0036,-0.7121,0.3499
-0.012,-0.612,0.201,-42.7,63.2,-66.3,1023,2018,5,17,22,34,2.171,0.6091,-0.0078,-0.7059,0.361
-0.134,-0.589,0.285,-81.3,135.5,-95.7,1023,2018,5,17,22,34,2.176,0.6116,-0.0111,-0.6927,0.3818
-0.128,-0.338,0.315,-125.3,190.5,-123.2,0,2018,5,17,22,34,2.192,0.6166,-0.0137,-0.6698,0.4134
-0.108,-0.299,0.169,-169.3,227.2,-129.1,0,2018,5,17,22,34,2.214,0.6245,-0.0168,-0.6374,0.4509
-0.158,-0.521,0.031,-210.5,263.8,-142.1,0,2018,5,17,22,34,2.232,0.6347,-0.02,-0.5957,0.4916
-0.101,-0.381,-0.105,-241.6,301.4,-158.8,0,2018,5,17,22,34,2.255,0.6447,-0.0237,-0.544,0.5363
-0.025,-0.035,-0.177,-259.3,289.6,-156.9,0,2018,5,17,22,34,2.272,0.6531,-0.0282,-0.4858,0.5801
0.05,0.191,-0.194,-266.4,223.7,-149.6,0,2018,5,17,22,34,2.29,0.6594,-0.038,-0.4277,0.6169
0.083,0.249,-0.202,-258.6,104,-142,0,2018,5,17,22,34,2.313,0.6631,-0.0579,-0.3783,0.6432
0.074,0.148,-0.26,-245.3,-14.6,-140.2,0,2018,5,17,22,34,2.331,0.6633,-0.0902,-0.3433,0.6587
-0.015,0.018,-0.323,-231.4,-91.4,-140.7,0,2018,5,17,22,34,2.354,0.6594,-0.1324,-0.3204,0.6669
-0.002,0.13,-0.37,-216.9,-143.7,-141.2,0,2018,5,17,22,34,2.39,0.6518,-0.1797,-0.305,0.6705
-0.036,0.206,-0.453,-197.8,-198.5,-140.1,0,2018,5,17,22,34,2.413,0.64,-0.2304,-0.2968,0.6701
-0.054,0.198,-0.441,-176.2,-267.9,-135.5,0,2018,5,17,22,34,2.418,0.6229,-0.2851,-0.2973,0.6649
-0.125,0.043,-0.359,-154.9,-336.9,-132.7,0,2018,5,17,22,34,2.434,0.5993,-0.3438,-0.3076,0.6541
-0.159,-0.237,-0.382,-122.4,-359,-131.7,0,2018,5,17,22,34,2.453,0.5688,-0.4028,-0.3249,0.6391
-0.109,-0.395,-0.302,-89.9,-298.3,-117.7,0,2018,5,17,22,34,2.475,0.5359,-0.454,-0.342,0.6241
-0.137,-0.407,-0.014,-68,-218.1,-97.8,0,2018,5,17,22,34,2.492,0.5081,-0.4922,-0.3533,0.612
-0.238,-0.302,0.059,-49.7,-179,-87.5,0,2018,5,17,22,34,2.528,0.4849,-0.5211,-0.3606,0.6027
-0.421,-0.825,-0.001,-32.5,-124.1,-90.8,0,2018,5,17,22,34,2.55,0.4637,-0.544,-0.365,0.5963
-0.345,-0.551,0.075,-7,-12.2,-98,0,2018,5,17,22,34,2.555,0.4486,-0.5574,-0.3611,0.5979
-0.277,-0.152,0.26,10.4,30.2,-106,0,2018,5,17,22,34,2.572,0.4396,-0.5621,-0.349,0.6072
-0.351,0.057,0.209,44.4,-24.2,-109.1,0,2018,5,17,22,34,2.593,0.4269,-0.5654,-0.3395,0.6185
-0.357,-0.032,0.082,81,-80,-109.2,1023,2018,5,17,22,34,2.631,0.4057,-0.5691,-0.3392,0.6295
-0.347,-0.13,0.075,110,-104.2,-115.4,1023,2018,5,17,22,34,2.654,0.3776,-0.5718,-0.345,0.6412
-0.286,-0.028,0.241,131.1,-102.3,-117.2,1023,2018,5,17,22,34,2.659,0.3467,-0.5718,-0.3526,0.6545
-0.228,0.281,0.411,136.7,-119.6,-112.5,1023,2018,5,17,22,34,2.676,0.314,-0.5698,-0.361,0.668
-0.143,0.304,0.255,124.2,-174.2,-96.9,1023,2018,5,17,22,34,2.714,0.2783,-0.5688,-0.3746,0.6771
0.044,0.13,0.018,119.2,-178.9,-67.8,1023,2018,5,17,22,34,2.714,0.2421,-0.5686,-0.3934,0.6805
0.082,0.043,-0.172,125.8,-116.1,-40.9,1023,2018,5,17,22,34,2.736,0.2121,-0.5639,-0.41,0.6846
0.016,0.082,-0.112,121.9,-78.5,-29.3,1023,2018,5,17,22,34,2.753,0.1898,-0.5549,-0.4219,0.6913
0.016,0.222,0.023,106.9,-53.3,3.9,1023,2018,5,17,22,34,2.774,0.1726,-0.5445,-0.4318,0.6979
-0.079,0.17,0.04,95.2,-19.4,19.7,1023,2018,5,17,22,34,2.81,0.163,-0.5321,-0.4399,0.7047
