ax,ay,az,dpitch,droll,dyaw,heart,time_1,time_2,time_3,time_4,time_5,time_6,w,x,y,z
-0.037,-0.132,-0.265,74.6,-293.8,-31.8,1023,2018,5,17,22,39,10.048,0.4009,-0.3306,-0.4883,0.7009
0.031,-0.307,-0.308,69.3,-287.1,-33.3,1023,2018,5,17,22,39,10.072,0.3735,-0.3448,-0.5264,0.6814
0.101,-0.523,-0.387,63.5,-203.8,-26.4,1023,2018,5,17,22,39,10.081,0.348,-0.3562,-0.5581,0.6636
0.157,-0.51,-0.249,60.5,-8.5,-10.1,1023,2018,5,17,22,39,10.119,0.3332,-0.3574,-0.5727,0.658
0.106,0.027,0.377,39,160.3,4.2,0,2018,5,17,22,39,10.142,0.3327,-0.347,-0.5652,0.6703
0.086,0.192,0.225,25.8,198.9,-11.9,0,2018,5,17,22,39,10.144,0.342,-0.332,-0.5431,0.6912
0.106,0.331,-0.058,45.5,94.5,-26.9,0,2018,5,17,22,39,10.162,0.3441,-0.3211,-0.5256,0.7085
0.04,0.151,-0.039,57.7,20.8,-13.1,0,2018,5,17,22,39,10.186,0.339,-0.314,-0.5214,0.7172
-0.428,-0.019,0.77,24.9,74.3,1.1,0,2018,5,17,22,39,10.204,0.3359,-0.3053,-0.5184,0.7245
-0.122,-0.019,0.44,-56,-7.3,-9.9,0,2018,5,17,22,39,10.226,0.3483,-0.3059,-0.5031,0.7292
-0.132,0.127,0.233,-52.9,-73.5,-2,0,2018,5,17,22,39,10.245,0.3489,-0.3168,-0.5052,0.7228
-0.124,-0.244,-0.037,-49.2,-39.7,5.8,0,2018,5,17,22,39,10.267,0.3505,-0.3267,-0.5104,0.7139
0.018,0.036,0.077,-44.7,12.8,-6.1,0,2018,5,17,22,39,10.282,0.3545,-0.3327,-0.5082,0.7108
-0.121,0.209,0.375,-58.2,-30.1,-2.3,0,2018,5,17,22,39,10.32,0.3578,-0.3404,-0.5053,0.7076
-0.05,0.132,0.147,-68,-50.6,8.9,0,2018,5,17,22,39,10.343,0.3612,-0.3506,-0.507,0.6995
-0.042,0.106,0.083,-79.2,-55.4,17.4,0,2018,5,17,22,39,10.348,0.3666,-0.3611,-0.5088,0.69
-0.032,0.036,0.021,-89.3,-42.9,24.7,0,2018,5,17,22,39,10.363,0.3738,-0.3723,-0.5105,0.6789
-0.027,0.055,0.015,-96.3,-19.4,26.9,0,2018,5,17,22,39,10.387,0.3835,-0.3826,-0.5094,0.6685
-0.058,-0.006,-0.124,-97.1,-0.6,31.4,0,2018,5,17,22,39,10.405,0.395,-0.3918,-0.5064,0.6587
-0.053,-0.01,-0.215,-94.7,14.8,33.8,0,2018,5,17,22,39,10.443,0.4078,-0.3994,-0.501,0.6504
-0.054,0.132,-0.1,-95.3,11.6,34.7,0,2018,5,17,22,39,10.465,0.4211,-0.4061,-0.4951,0.6422
-0.092,0.091,-0.196,-90.8,-7.6,33.6,0,2018,5,17,22,39,10.47,0.4332,-0.4135,-0.4908,0.6327
-0.133,-0.1,-0.386,-77.7,-15.5,29.4,0,2018,5,17,22,39,10.488,0.4426,-0.4214,-0.488,0.623
-0.182,-0.167,-0.191,-75.5,-1.9,23.8,0,2018,5,17,22,39,10.505,0.451,-0.4284,-0.4847,0.6147
-0.168,-0.003,-0.166,-74.3,-3.7,14.7,1023,2018,5,17,22,39,10.523,0.4597,-0.4347,-0.48,0.6076
-0.089,-0.109,-0.41,-62.7,-28.1,6,1023,2018,5,17,22,39,10.545,0.4649,-0.4428,-0.4771,0.5999
0,-0.157,-0.408,-44.3,-5.8,1.5,1023,2018,5,17,22,39,10.563,0.4683,-0.4496,-0.4751,0.5938
0.039,-0.11,-0.363,-22,8,-8.6,1023,2018,5,17,22,39,10.585,0.471,-0.4529,-0.4716,0.5919
0.092,-0.037,-0.387,3.9,4.3,-10.9,1023,2018,5,17,22,39,10.605,0.4711,-0.4542,-0.4695,0.5926
0.096,-0.057,-0.381,31.4,7.5,-10.3,1023,2018,5,17,22,39,10.627,0.4689,-0.4527,-0.4696,0.5953
0.031,-0.067,-0.282,53.2,20.3,-12.4,1023,2018,5,17,22,39,10.645,0.4652,-0.4479,-0.4709,0.6008
-0.029,-0.098,-0.176,63.9,27.8,-17.1,1023,2018,5,17,22,39,10.668,0.4608,-0.4407,-0.4718,0.6088
-0.085,-0.069,-0.072,65.8,5.1,-25.4,1023,2018,5,17,22,39,10.686,0.4544,-0.4343,-0.4741,0.6163
-0.071,-0.007,-0.1,67.7,-32.6,-28.8,1023,2018,5,17,22,39,10.709,0.445,-0.4304,-0.4799,0.6215
-0.055,0.059,-0.081,71.2,-60.6,-27.2,1023,2018,5,17,22,39,10.728,0.4325,-0.429,-0.4893,0.624
-0.077,0.011,-0.003,69.9,-80.3,-32.2,1023,2018,5,17,22,39,10.751,0.4181,-0.4289,-0.5005,0.6249
-0.013,0.014,-0.024,66.9,-95.4,-35.7,1023,2018,5,17,22,39,10.769,0.402,-0.4307,-0.5126,0.6245
-0.015,0.103,0.026,64.6,-130.8,-32.3,1023,2018,5,17,22,39,10.792,0.3837,-0.4344,-0.5268,0.6216
-0.041,0.133,0.049,62.6,-168.9,-24.8,1023,2018,5,17,22,39,10.808,0.3636,-0.4396,-0.545,0.6142
-0.007,0.062,-0.034,66.3,-186.7,-26.5,1023,2018,5,17,22,39,10.828,0.3408,-0.4463,-0.5663,0.6031
0.018,-0.074,-0.1,69.7,-148.1,-16.3,1023,2018,5,17,22,39,10.845,0.3177,-0.4517,-0.5869,0.592
-0.026,-0.16,0.008,67.5,-69.6,-5.7,1023,2018,5,17,22,39,10.869,0.3012,-0.4515,-0.6012,0.5864
-0.054,-0.043,0.139,60.8,-9,-2.2,1023,2018,5,17,22,39,10.906,0.2916,-0.4469,-0.6076,0.5882
0.019,-0.082,0.265,46.7,42.7,-0.3,1023,2018,5,17,22,39,10.929,0.287,-0.4404,-0.6083,0.5945
0.087,-0.102,0.387,18.3,111.8,-2.1,1023,2018,5,17,22,39,10.933,0.2893,-0.4335,-0.6013,0.6055
0.148,0.001,0.327,-6.9,162.4,1.1,0,2018,5,17,22,39,10.965,0.2995,-0.426,-0.586,0.6207
0.168,0.25,0.324,-13.8,126.6,4.1,0,2018,5,17,22,39,10.988,0.3121,-0.4191,-0.5687,0.6351
0.169,0.333,0.303,-11.5,27.8,11,0,2018,5,17,22,39,10.993,0.3197,-0.4158,-0.5598,0.6413
0.18,0.028,0.235,-9.1,-12.1,17.5,0,2018,5,17,22,39,11.009,0.3221,-0.416,-0.56,0.6398
0.188,-0.134,0.044,-4.7,38.3,21.4,0,2018,5,17,22,39,11.032,0.3256,-0.4146,-0.5595,0.6395
0.131,-0.107,-0.017,0,103.5,25.2,0,2018,5,17,22,39,11.05,0.3328,-0.4093,-0.5521,0.6455
0.059,-0.01,-0.056,6,135.7,31.4,0,2018,5,17,22,39,11.073,0.344,-0.3997,-0.54,0.6558
0.033,0.319,0.019,11.1,96.1,37.8,0,2018,5,17,22,39,11.091,0.3553,-0.3884,-0.5284,0.6659
-0.023,0.274,-0.067,21.1,13.2,42.2,0,2018,5,17,22,39,11.109,0.3618,-0.3798,-0.5256,0.6696
-0.123,-0.103,-0.033,22.1,6.6,46,0,2018,5,17,22,39,11.128,0.365,-0.3732,-0.5308,0.6676
-0.362,-0.457,0.27,1.6,82.6,38.6,0,2018,5,17,22,39,11.151,0.3721,-0.3644,-0.5293,0.6696
-0.303,-0.148,-0.038,0,116.7,21,0,2018,5,17,22,39,11.187,0.3822,-0.3552,-0.5181,0.6776
-0.241,0.134,-0.193,14.4,68.7,10.8,0,2018,5,17,22,39,11.211,0.3895,-0.3465,-0.5078,0.6857
-0.277,0.119,-0.333,38.1,4,-3.9,0,2018,5,17,22,39,11.216,0.3892,-0.341,-0.506,0.6899
-0.392,-0.153,-0.114,38.6,-50.8,-25.4,0,2018,5,17,22,39,11.232,0.3822,-0.3396,-0.5106,0.6911
-0.254,0.168,0.041,34,-103.3,-34.6,0,2018,5,17,22,39,11.254,0.3709,-0.3431,-0.5198,0.6887
-0.131,0.359,-0.001,29.2,-221.8,-36.2,0,2018,5,17,22,39,11.274,0.3538,-0.353,-0.5388,0.678
0.002,0.165,-0.166,32,-307.9,-39,0,2018,5,17,22,39,11.29,0.3295,-0.3694,-0.5705,0.6552
0.081,-0.176,-0.274,31.6,-293.2,-37.7,0,2018,5,17,22,39,11.328,0.3014,-0.3867,-0.604,0.6282
0.237,-0.262,-0.118,23.2,-175.4,-31,0,2018,5,17,22,39,11.351,0.2788,-0.4004,-0.6281,0.606
0.143,-0.132,0.045,8.8,-100.6,-41.3,0,2018,5,17,22,39,11.356,0.2645,-0.4094,-0.6389,0.595
0.159,-0.036,0.026,2.1,-70.5,-28.8,1023,2018,5,17,22,39,11.371,0.254,-0.4168,-0.6457,0.5871
0.169,-0.216,-0.089,0.2,-6.9,-25.7,1023,2018,5,17,22,39,11.395,0.2473,-0.4224,-0.647,0.5845
0.154,-0.177,0.029,-9.1,70.9,-14.4,1023,2018,5,17,22,39,11.412,0.2477,-0.424,-0.6414,0.5893
0.191,0.049,0.056,-14.8,130.5,-4.9,1023,2018,5,17,22,39,11.435,0.2559,-0.422,-0.6289,0.6006
0.128,0.243,0.011,-7.2,127.6,-0.3,1023,2018,5,17,22,39,11.453,0.2668,-0.4174,-0.6138,0.6145
0.028,0.303,0.039,2.3,72.7,5.9,1023,2018,5,17,22,39,11.475,0.2742,-0.4129,-0.6029,0.625
-0.046,0.242,0.24,-3.3,9.9,16.3,1023,2018,5,17,22,39,11.493,0.2783,-0.4098,-0.5993,0.6287
-0.091,-0.098,0.042,-7.2,-19.9,13.4,1023,2018,5,17,22,39,11.516,0.2801,-0.4092,-0.6012,0.6264
-0.028,-0.053,-0.082,-6.1,0.7,8.8,1023,2018,5,17,22,39,11.533,0.2815,-0.4093,-0.6035,0.6237
-0.006,0.067,-0.041,-3.8,19.8,11,1023,2018,5,17,22,39,11.556,0.284,-0.4083,-0.6028,0.6238
0.005,0.15,-0.046,1.6,5.5,13.7,1023,2018,5,17,22,39,11.572,0.2864,-0.4068,-0.6022,0.6243
-0.032,0.01,-0.111,7.1,-14.4,15.2,1023,2018,5,17,22,39,11.61,0.2869,-0.4053,-0.6048,0.6224
-0.059,-0.231,-0.088,8.4,5,15.3,1023,2018,5,17,22,39,11.632,0.2872,-0.4033,-0.608,0.6204
-0.01,-0.063,-0.014,2.1,77.8,22.1,1023,2018,5,17,22,39,11.637,0.2919,-0.3984,-0.6054,0.6239
0.007,0.216,0.078,-2.2,105,21.1,1023,2018,5,17,22,39,11.655,0.3016,-0.391,-0.5955,0.6335
-0.06,0.3,0.105,0,44,21.7,1023,2018,5,17,22,39,11.69,0.3094,-0.3847,-0.5875,0.641
-0.117,0.034,0.05,-0.8,2.7,27.1,1023,2018,5,17,22,39,11.712,0.3141,-0.3806,-0.587,0.6417
-0.119,-0.116,-0.081,4.8,17.7,21.3,1023,2018,5,17,22,39,11.716,0.3181,-0.3768,-0.5883,0.6408
-0.129,-0.091,-0.062,9.9,26.5,7.2,1023,2018,5,17,22,39,11.754,0.3209,-0.3729,-0.587,0.6428
-0.116,-0.038,0.008,13.8,3.3,-1.3,0,2018,5,17,22,39,11.776,0.3216,-0.3698,-0.5866,0.6446
-0.062,-0.075,0.003,13.3,-14.2,-2.5,0,2018,5,17,22,39,11.781,0.3201,-0.3683,-0.5885,0.6445
-0.003,-0.086,0.001,9.7,-10.5,-5.8,0,2018,5,17,22,39,11.798,0.3179,-0.3682,-0.5903,0.644
0.044,-0.016,0.021,6.1,-0.5,-7.6,0,2018,5,17,22,39,11.834,0.3159,-0.3684,-0.5908,0.6444
0.066,0.059,0.036,4.4,-1.3,-5.6,0,2018,5,17,22,39,11.857,0.3145,-0.3688,-0.5902,0.6454
0.038,0.03,0.05,2.2,-13.3,-6.4,0,2018,5,17,22,39,11.862,0.3128,-0.3697,-0.5903,0.6456
0.019,-0.059,0.048,-0.3,-17.2,-9.4,0,2018,5,17,22,39,11.876,0.3107,-0.3714,-0.5913,0.6448
0.028,-0.051,0.041,-3,-7.6,-9.7,0,2018,5,17,22,39,11.911,0.3091,-0.3733,-0.5915,0.6442
0.027,-0.002,0.016,-1.8,-1.6,-9.7,0,2018,5,17,22,39,11.932,0.308,-0.3749,-0.591,0.6443
0.042,0.048,0.008,0.4,2.3,-8.3,0,2018,5,17,22,39,11.937,0.307,-0.3761,-0.59,0.6449
0.016,-0.01,0.015,3,16.7,-4,0,2018,5,17,22,39,11.975,0.3066,-0.3763,-0.5885,0.6464
0.011,-0.003,-0.008,4.1,43.7,0.4,0,2018,5,17,22,39,11.998,0.3081,-0.3744,-0.5851,0.6499
-0.012,0.019,0.009,4.6,59.7,2.4,0,2018,5,17,22,39,12.003,0.3113,-0.371,-0.5795,0.6554
-0.032,0.065,-0.027,6.9,63.9,4.5,0,2018,5,17,22,39,12.037,0.3156,-0.3663,-0.5727,0.6618
-0.059,0.09,-0.032,12.4,44.6,0.2,0,2018,5,17,22,39,12.037,0.3186,-0.3616,-0.5675,0.6674
-0.079,0.009,-0.011,15,17.1,-3.5,0,2018,5,17,22,39,12.059,0.3191,-0.3584,-0.5652,0.6709
-0.098,-0.192,-0.082,11.9,17.8,-9.7,0,2018,5,17,22,39,12.077,0.3187,-0.3562,-0.5641,0.6731
-0.058,-0.162,-0.145,15.6,24.1,-19.1,0,2018,5,17,22,39,12.114,0.3171,-0.3549,-0.5613,0.677
-0.04,-0.04,-0.074,17.9,13.4,-27.6,0,2018,5,17,22,39,12.135,0.3137,-0.3545,-0.5592,0.6805
-0.022,-0.08,0.022,14.6,-0.9,-41.2,0,2018,5,17,22,39,12.138,0.3087,-0.3554,-0.5573,0.6838
-0.033,-0.105,0.131,5.8,-18.9,-50.7,1023,2018,5,17,22,39,12.172,0.3019,-0.3588,-0.556,0.6862
0.033,-0.121,0.091,-1.6,-28.8,-56.3,1023,2018,5,17,22,39,12.194,0.2941,-0.3648,-0.5549,0.6872
0.141,0.065,0.185,-13,-12.2,-53.1,1023,2018,5,17,22,39,12.199,0.2783,-0.3804,-0.5516,0.6881
0.122,0.138,0.206,-17.7,-9.4,-44.8,1023,2018,5,17,22,39,12.236,0.2731,-0.3877,-0.5487,0.6884
0.078,0.106,0.114,-18.5,4.3,-34.5,1023,2018,5,17,22,39,12.26,0.2699,-0.394,-0.5452,0.6888
0.035,0.12,0.107,-19.7,27.8,-22.9,1023,2018,5,17,22,39,12.264,0.2694,-0.3984,-0.5402,0.6905
0.004,0.234,0.092,-20.2,44.5,-12.6,1023,2018,5,17,22,39,12.28,0.2718,-0.4008,-0.5331,0.6936
0.018,0.377,0.058,-21.1,44.1,1.1,1023,2018,5,17,22,39,12.303,0.2761,-0.4019,-0.5259,0.6968
0.01,0.382,-0.027,-20.4,31.1,18,1023,2018,5,17,22,39,12.323,0.2819,-0.4019,-0.5205,0.6985
0,0.269,-0.163,-14.4,16.1,34.1,1023,2018,5,17,22,39,12.339,0.288,-0.4008,-0.5186,0.698
-0.042,0.206,-0.177,-9.3,17.4,49.1,1023,2018,5,17,22,39,12.361,0.2953,-0.3977,-0.5188,0.6966
-0.111,0.062,-0.193,-5.9,21.8,56.2,1023,2018,5,17,22,39,12.377,0.3039,-0.3929,-0.5194,0.6952
-0.185,-0.064,-0.19,0.2,10.8,50.5,1023,2018,5,17,22,39,12.401,0.3118,-0.3875,-0.5208,0.6937
-0.226,-0.157,-0.127,2.3,3.8,41,1023,2018,5,17,22,39,12.438,0.3175,-0.3829,-0.523,0.692
-0.209,-0.204,-0.114,2.1,2.4,30.5,1023,2018,5,17,22,39,12.46,0.3218,-0.3794,-0.5248,0.6906
-0.181,-0.149,-0.104,5.6,-11.1,21.8,1023,2018,5,17,22,39,12.465,0.3243,-0.3769,-0.527,0.6891
-0.111,-0.067,-0.077,15.6,-35.2,13.3,1023,2018,5,17,22,39,12.482,0.3239,-0.3754,-0.5314,0.6867
-0.088,-0.093,0.013,22.3,-55.5,-0.5,1023,2018,5,17,22,39,12.501,0.3204,-0.3746,-0.5393,0.6826
0.006,-0.129,0.029,24.3,-59.7,-12.5,0,2018,5,17,22,39,12.524,0.3138,-0.3755,-0.5473,0.6788
0.082,-0.02,0.131,22.4,-56.4,-13.9,0,2018,5,17,22,39,12.541,0.3062,-0.3771,-0.554,0.676
0.161,-0.065,0.127,16,-77.1,-19,0,2018,5,17,22,39,12.564,0.2983,-0.38,-0.5614,0.6717
0.175,-0.108,0.061,13,-70.6,-12.6,0,2018,5,17,22,39,12.582,0.2892,-0.3842,-0.5701,0.666
0.17,-0.172,0.272,1.6,-19.1,-17.4,0,2018,5,17,22,39,12.606,0.2839,-0.3875,-0.5741,0.6629
0.233,-0.086,-0.016,-4.6,48,-8.3,0,2018,5,17,22,39,12.621,0.2844,-0.3881,-0.5706,0.6654
0.249,0.064,-0.076,10.4,59.5,-11.4,0,2018,5,17,22,39,12.641,0.2864,-0.3863,-0.5634,0.6716
0.116,0.102,-0.118,21.3,64.6,-2.8,0,2018,5,17,22,39,12.664,0.2881,-0.3821,-0.5563,0.6793
-0.407,0.384,0.607,-6.4,61.4,14.7,0,2018,5,17,22,39,12.681,0.2914,-0.3772,-0.5497,0.6859
-0.265,0.183,0.26,-31.1,-12.7,11.1,0,2018,5,17,22,39,12.704,0.2973,-0.3774,-0.5474,0.685
-0.001,-0.008,-0.033,-32,-72.4,2.8,0,2018,5,17,22,39,12.723,0.2973,-0.3837,-0.5522,0.6777
-0.087,-0.185,-0.128,-26.4,-66.7,-2.5,0,2018,5,17,22,39,12.747,0.2958,-0.3907,-0.5592,0.6686
-0.013,-0.049,-0.021,-25.7,-38,-6.5,0,2018,5,17,22,39,12.764,0.2942,-0.3968,-0.5642,0.6615
-0.007,0.041,-0.019,-28.9,-20.7,-9,0,2018,5,17,22,39,12.786,0.2942,-0.4022,-0.5654,0.6571
0.011,0.051,-0.073,-29.4,-9.5,-3.2,0,2018,5,17,22,39,12.803,0.2953,-0.4073,-0.5655,0.6534
0.048,0.131,-0.132,-21.9,0.7,5.2,0,2018,5,17,22,39,12.826,0.2975,-0.4107,-0.5646,0.651
0.008,0.245,0.023,-15.8,-15.6,10.5,0,2018,5,17,22,39,12.843,0.2997,-0.4124,-0.5647,0.6489
-0.002,0.168,0.229,-25.2,-48.8,10.7,0,2018,5,17,22,39,12.864,0.3003,-0.4155,-0.5677,0.644
-0.121,0.06,0.252,-44.1,-62,15.3,0,2018,5,17,22,39,12.9,0.301,-0.4212,-0.5734,0.6348
-0.146,-0.024,0.217,-68.9,-51,18.8,0,2018,5,17,22,39,12.923,0.3042,-0.4293,-0.5775,0.624
-0.088,-0.085,0.118,-83.6,-31.6,18.4,0,2018,5,17,22,39,12.929,0.311,-0.4382,-0.5791,0.613
-0.137,-0.158,0.159,-94.9,0.1,11.7,1023,2018,5,17,22,39,12.947,0.3205,-0.447,-0.5765,0.6041
-0.157,-0.184,0.143,-111.3,25.4,0.7,1023,2018,5,17,22,39,12.964,0.3325,-0.4567,-0.5692,0.5972
-0.113,-0.172,-0.072,-118.3,59.6,-0.7,1023,2018,5,17,22,39,12.987,0.3477,-0.4661,-0.5581,0.5918
-0.075,-0.073,-0.161,-117.5,92.8,0,1023,2018,5,17,22,39,13.005,0.3655,-0.4737,-0.5429,0.5892
-0.051,0.129,-0.019,-113.9,74.2,-6.1,1023,2018,5,17,22,39,13.029,0.3838,-0.4798,-0.5259,0.588
-0.107,0.144,0.289,-118.2,-25.5,-13.3,1023,2018,5,17,22,39,13.064,0.3951,-0.4911,-0.5145,0.5812
-0.066,-0.232,-0.326,-106.8,-44.6,-14.1,1023,2018,5,17,22,39,13.088,0.4002,-0.5072,-0.5099,0.5679
0.111,-0.205,-0.534,-77.7,6.1,-19.9,1023,2018,5,17,22,39,13.092,0.4048,-0.5192,-0.5036,0.5593
0.162,-0.057,-0.412,-49.8,51.3,-21.2,1023,2018,5,17,22,39,13.105,0.4112,-0.5249,-0.4941,0.5577
0.119,0.099,-0.379,-20.9,58.7,-18.6,1023,2018,5,17,22,39,13.123,0.4173,-0.526,-0.4838,0.5611
0.073,0.077,-0.373,1.4,41.9,-15.8,1023,2018,5,17,22,39,13.147,0.421,-0.5247,-0.4765,0.5659
0.054,0.04,-0.304,19.9,29.1,-15,1023,2018,5,17,22,39,13.182,0.4215,-0.5224,-0.4724,0.571
0.075,0.051,-0.26,31.7,30,-12.5,1023,2018,5,17,22,39,13.206,0.4204,-0.5191,-0.47,0.5768
0.011,-0.022,-0.195,38.3,40.7,-10.8,1023,2018,5,17,22,39,13.209,0.4194,-0.514,-0.4677,0.5839
-0.022,0.01,-0.115,41.3,48.3,-12.2,1023,2018,5,17,22,39,13.226,0.4189,-0.5081,-0.4656,0.5912
-0.049,0.072,-0.057,47.3,22.8,-17.3,1023,2018,5,17,22,39,13.249,0.417,-0.5023,-0.4642,0.5985
-0.04,-0.001,0.012,47.1,-5.5,-20.2,1023,2018,5,17,22,39,13.267,0.4118,-0.4985,-0.4656,0.6041
-0.016,-0.065,0.012,46.6,3,-20.9,1023,2018,5,17,22,39,13.291,0.4059,-0.4953,-0.4676,0.6092
-0.019,-0.034,-0.008,47.2,15.3,-23.6,1023,2018,5,17,22,39,13.309,0.4011,-0.491,-0.4682,0.6154
-0.001,0.022,-0.056,57,-3.9,-28,1023,2018,5,17,22,39,13.331,0.395,-0.487,-0.4689,0.6219
-0.035,0.008,-0.001,68.5,-42.5,-32.5,1023,2018,5,17,22,39,13.349,0.3843,-0.4843,-0.4739,0.6268
-0.02,-0.08,0.102,65.3,-39.1,-30.5,0,2018,5,17,22,39,13.388,0.372,-0.4819,-0.4809,0.6308
0.039,-0.043,0.07,58.3,1.2,-31.6,0,2018,5,17,22,39,13.411,0.3623,-0.4785,-0.4837,0.6369
0.07,0.087,-0.027,57.5,18.9,-29.2,0,2018,5,17,22,39,13.416,0.3549,-0.4742,-0.4827,0.645
0.08,0.154,-0.048,63.7,11.7,-22.2,0,2018,5,17,22,39,13.43,0.3478,-0.4689,-0.4823,0.6529
-0.001,0.151,0.221,55.2,-3.4,-14.6,0,2018,5,17,22,39,13.448,0.3407,-0.4634,-0.4839,0.6594
-0.002,0.149,0.3,31.1,2.7,-6.1,0,2018,5,17,22,39,13.47,0.3356,-0.4596,-0.4858,0.6633
-0.038,0.143,0.27,5.2,19.8,2.3,0,2018,5,17,22,39,13.488,0.3349,-0.457,-0.4851,0.6659
-0.062,0.135,0.218,-10.3,16,9.5,0,2018,5,17,22,39,13.512,0.3376,-0.4559,-0.4827,0.6671
-0.05,0.229,0.143,-14,-23,15.7,0,2018,5,17,22,39,13.546,0.3399,-0.4566,-0.4833,0.665
-0.044,0.255,0.059,-12.2,-49.7,28,0,2018,5,17,22,39,13.569,0.3406,-0.4585,-0.4885,0.6596
-0.053,0.075,-0.108,-9.8,-40.5,39.7,0,2018,5,17,22,39,13.574,0.3419,-0.4596,-0.4962,0.6523
-0.08,-0.009,-0.197,-4.4,-36.8,38.7,0,2018,5,17,22,39,13.591,0.3439,-0.4594,-0.5029,0.6462
-0.046,0.023,-0.273,-0.3,-58.8,36.5,0,2018,5,17,22,39,13.615,0.3447,-0.4592,-0.5108,0.6397
0.019,0.12,-0.345,13.9,-103.2,33.5,0,2018,5,17,22,39,13.629,0.3415,-0.4603,-0.5229,0.6308
-0.062,0.049,-0.187,28,-126.2,35.7,0,2018,5,17,22,39,13.666,0.3333,-0.4619,-0.5397,0.6197
-0.15,-0.263,-0.133,34.1,-76.3,37.6,0,2018,5,17,22,39,13.689,0.3258,-0.4613,-0.5559,0.6097
0.006,0.024,-0.07,62.9,54.1,27.6,0,2018,5,17,22,39,13.694,0.3227,-0.4448,-0.5653,0.615
-0.104,0.138,0.283,58.8,45.8,36.2,0,2018,5,17,22,39,13.71,0.3242,-0.4318,-0.5654,0.6234
-0.106,-0.041,0.2,43.6,27.4,39.7,0,2018,5,17,22,39,13.729,0.3262,-0.4207,-0.567,0.6285
-0.074,-0.133,0.046,43.8,3.9,22.5,0,2018,5,17,22,39,13.752,0.3268,-0.4116,-0.5701,0.6313
-0.074,-0.2,0.032,44.1,22.4,12.1,0,2018,5,17,22,39,13.788,0.3258,-0.4039,-0.5729,0.6343
-0.039,-0.2,0.217,31,38.6,-12.5,0,2018,5,17,22,39,13.811,0.3247,-0.3972,-0.5713,0.6405
0.136,-0.124,0.306,14.5,16.6,-27.2,1023,2018,5,17,22,39,13.815,0.3221,-0.3953,-0.5676,0.6462
0.225,-0.023,0.328,2.1,-13.9,-29.3,1023,2018,5,17,22,39,13.831,0.3181,-0.3973,-0.5659,0.6485
0.249,0.04,0.291,-9.8,-31.3,-28.4,1023,2018,5,17,22,39,13.849,0.3135,-0.402,-0.5663,0.6474
0.287,0.126,0.258,-23.2,-24.3,-19.4,1023,2018,5,17,22,39,13.872,0.3103,-0.4081,-0.5669,0.6447
0.28,0.201,0.191,-33.8,1.2,1.5,1023,2018,5,17,22,39,13.889,0.3112,-0.4129,-0.566,0.642
0.112,0.092,0.209,-47.3,28.8,20.6,1023,2018,5,17,22,39,13.913,0.3176,-0.4156,-0.563,0.6398
0.107,0.159,0.001,-53.5,93.7,44.9,1023,2018,5,17,22,39,13.931,0.3306,-0.4149,-0.5556,0.6401
0.139,0.237,-0.18,-44.2,160.2,68.6,1023,2018,5,17,22,39,13.951,0.351,-0.4073,-0.5421,0.6456
-0.053,0.23,-0.177,-17.5,178.6,86.1,1023,2018,5,17,22,39,13.971,0.3753,-0.3926,-0.5254,0.6549
-0.3,0.018,-0.264,14.8,147.5,86.6,1023,2018,5,17,22,39,13.995,0.3963,-0.3738,-0.5123,0.6637
-0.39,-0.161,-0.265,41.6,114.6,57.5,1023,2018,5,17,22,39,14.012,0.4105,-0.3547,-0.5038,0.672
-0.376,-0.254,-0.271,49.6,94.7,27.8,1023,2018,5,17,22,39,14.036,0.4173,-0.3385,-0.4973,0.681
-0.321,-0.201,-0.222,48.3,71,5.3,1023,2018,5,17,22,39,14.052,0.4198,-0.3252,-0.4914,0.6902
-0.171,-0.143,-0.117,43.1,10.3,-18.3,1023,2018,5,17,22,39,14.076,0.4173,-0.3174,-0.489,0.697
0.02,-0.063,-0.051,36.8,-48.9,-36.3,1023,2018,5,17,22,39,14.095,0.4091,-0.3169,-0.4936,0.6988
0.107,0.017,0.027,28.8,-69.4,-43.5,1023,2018,5,17,22,39,14.118,0.3977,-0.3211,-0.5012,0.6981
0.154,0.034,0.074,20.5,-80.1,-44.8,1023,2018,5,17,22,39,14.138,0.3857,-0.3275,-0.5094,0.696
0.106,-0.015,0.197,7.5,-48.6,-29.1,1023,2018,5,17,22,39,14.174,0.3755,-0.3337,-0.5163,0.6934
0.036,0.429,0.391,-6.8,4.9,0.8,1023,2018,5,17,22,39,14.174,0.3726,-0.3365,-0.5177,0.6926
0.049,0.35,0.348,-16.1,19.3,15.5,1023,2018,5,17,22,39,14.198,0.3766,-0.3352,-0.5154,0.6928
-0.053,0.067,0.222,-14.3,-39.9,2.3,1023,2018,5,17,22,39,14.215,0.3784,-0.3371,-0.5159,0.6905
-0.242,-0.042,0.315,-21.1,-112.8,-3.4,0,2018,5,17,22,39,14.25,0.3749,-0.3446,-0.5241,0.6825
-0.24,-0.339,0.336,-45,-89.6,7.4,0,2018,5,17,22,39,14.273,0.3713,-0.3556,-0.5354,0.6699
-0.081,-0.193,0.284,-66.4,-3.2,-2.5,0,2018,5,17,22,39,14.279,0.3745,-0.3647,-0.5366,0.6622
-0.098,0.096,0.191,-79.2,23.5,-8.2,0,2018,5,17,22,39,14.295,0.3816,-0.3726,-0.5294,0.6596
-0.093,0.141,0.186,-92.4,7.8,-0.8,0,2018,5,17,22,39,14.319,0.39,-0.3821,-0.5211,0.6558
-0.027,0.173,0.169,-100.2,-20,9.7,0,2018,5,17,22,39,14.334,0.399,-0.3931,-0.5153,0.6484
-0.043,0.099,0.118,-104,-40.3,12.4,0,2018,5,17,22,39,14.357,0.4074,-0.4055,-0.5125,0.6378
-0.073,-0.07,0.022,-120.3,-19.8,8.1,0,2018,5,17,22,39,14.396,0.417,-0.4185,-0.5088,0.626
-0.041,-0.047,0.106,-140,10.7,13,0,2018,5,17,22,39,14.396,0.4302,-0.4312,-0.5001,0.6154
-0.033,0.031,-0.026,-144.4,13.2,17.5,0,2018,5,17,22,39,14.418,0.4461,-0.4435,-0.4888,0.6044
-0.035,0.027,-0.238,-128.7,-21.9,12.4,0,2018,5,17,22,39,14.436,0.459,-0.457,-0.4799,0.5916
0.023,-0.174,-0.43,-101.9,-13.9,7.7,0,2018,5,17,22,39,14.453,0.4677,-0.4699,-0.4737,0.5794
0.028,-0.105,-0.421,-71.6,11.3,-3.2,0,2018,5,17,22,39,14.476,0.475,-0.4785,-0.4666,0.5723
0,-0.071,-0.414,-46,16.5,-5.2,0,2018,5,17,22,39,14.514,0.4803,-0.4836,-0.4597,0.5692
0.035,-0.052,-0.401,-25.8,31.4,-6.7,0,2018,5,17,22,39,14.538,0.4845,-0.4857,-0.4537,0.5686
0.057,0.035,-0.303,-11.3,35.1,-10.2,0,2018,5,17,22,39,14.542,0.4877,-0.4857,-0.4476,0.5707
0.062,0.077,-0.254,-0.5,23.8,-7.2,0,2018,5,17,22,39,14.558,0.4899,-0.4845,-0.443,0.5735
0.002,0.023,-0.164,8.2,0.1,-6.7,0,2018,5,17,22,39,14.582,0.4895,-0.4841,-0.4414,0.5753
0.007,-0.025,-0.108,10,-2.9,-9.4,0,2018,5,17,22,39,14.615,0.4874,-0.4846,-0.4427,0.5757
0.013,-0.012,-0.069,11.7,1.6,-11.9,0,2018,5,17,22,39,14.615,0.4851,-0.485,-0.4432,0.5769
-0.004,-0.033,-0.08,18.9,1,-15.3,0,2018,5,17,22,39,14.638,0.4827,-0.4847,-0.4436,0.5789
0.012,-0.003,-0.039,28.8,-6.7,-18.8,0,2018,5,17,22,39,14.656,0.4787,-0.4841,-0.4448,0.5818
0.023,-0.023,-0.072,39.9,-3.6,-18.3,0,2018,5,17,22,39,14.68,0.4735,-0.4828,-0.4471,0.5853
-0.018,-0.049,-0.013,48,4.6,-21.6,0,2018,5,17,22,39,14.696,0.468,-0.48,-0.4492,0.5904
-0.011,-0.032,-0.041,52.2,17.4,-22.2,1023,2018,5,17,22,39,14.72,0.4629,-0.4756,-0.4505,0.597
0.001,0.014,-0.099,57.6,13.2,-22.1,1023,2018,5,17,22,39,14.755,0.4577,-0.4704,-0.4519,0.604
-0.001,0.03,-0.031,63.8,-3,-22.6,1023,2018,5,17,22,39,14.778,0.4506,-0.4659,-0.4548,0.6107
0.026,0.01,0.061,59.3,-0.8,-23.9,1023,2018,5,17,22,39,14.783,0.443,-0.4614,-0.4578,0.6173
0.061,0.071,0.032,51.6,11.5,-23.2,1023,2018,5,17,22,39,14.798,0.4365,-0.4569,-0.4588,0.6245
0.084,0.152,-0.006,47.4,8,-16.7,1023,2018,5,17,22,39,14.82,0.431,-0.4526,-0.4591,0.6312
0.054,0.16,-0.029,49.5,-10,-8.2,1023,2018,5,17,22,39,14.839,0.4254,-0.4489,-0.4613,0.6361
-0.013,0.101,0.039,51.1,-17.1,-2.4,1023,2018,5,17,22,39,14.862,0.4194,-0.4449,-0.4662,0.6392
-0.037,-0.009,0.06,46.1,2.8,2.4,1023,2018,5,17,22,39,14.885,0.4154,-0.4394,-0.4706,0.6424
-0.038,-0.05,-0.03,43.5,17,0.3,1023,2018,5,17,22,39,14.898,0.4133,-0.4332,-0.4727,0.6464
-0.045,0.052,-0.03,46.1,6.1,0.8,1023,2018,5,17,22,39,14.936,0.4109,-0.4271,-0.4749,0.6504
-0.071,0.009,0.048,48.8,-11.9,-1,1023,2018,5,17,22,39,14.959,0.4071,-0.4216,-0.4789,0.6534
-0.093,-0.118,0.03,48.2,-19.7,-8.4,1023,2018,5,17,22,39,14.965,0.4021,-0.417,-0.4841,0.6556
-0.049,-0.166,0.018,48.4,-14.1,-14.9,1023,2018,5,17,22,39,14.983,0.3956,-0.4135,-0.4894,0.6579
0,-0.02,0.084,42.5,2.5,-19.6,1023,2018,5,17,22,39,15.002,0.3899,-0.4096,-0.4918,0.662
0.036,0.025,0.125,32.5,-0.7,-23,1023,2018,5,17,22,39,15.02,0.3847,-0.4065,-0.492,0.6667
0.087,0.046,0.109,24.8,-6.9,-20.5,1023,2018,5,17,22,39,15.043,0.3795,-0.4054,-0.4922,0.6702
0.072,0.006,0.116,18.3,-11.7,-16.7,1023,2018,5,17,22,39,15.062,0.3748,-0.4051,-0.4927,0.6726
0.07,0.029,0.132,13.5,-9.6,-16.6,1023,2018,5,17,22,39,15.104,0.3708,-0.4055,-0.4933,0.6742
0.054,0.062,0.12,9.7,-1.1,-14.3,0,2018,5,17,22,39,15.107,0.3676,-0.4058,-0.4934,0.6757
0.038,0.076,0.128,6.2,3,-11.8,0,2018,5,17,22,39,15.124,0.3655,-0.406,-0.4926,0.6773
0.013,0.084,0.089,3.6,0.2,-6.3,0,2018,5,17,22,39,15.144,0.3643,-0.4058,-0.4913,0.679
0.023,0.18,0.115,-0.7,-3.3,4.5,0,2018,5,17,22,39,15.164,0.3641,-0.4056,-0.4912,0.6793
0.038,0.209,0.02,0.3,-4.5,15,0,2018,5,17,22,39,15.185,0.3653,-0.4049,-0.492,0.6785
-0.016,0.242,0.014,2.1,-10.7,21.8,0,2018,5,17,22,39,15.201,0.3666,-0.4037,-0.494,0.6771
-0.161,0.043,0.02,-4.4,-7.8,27.2,0,2018,5,17,22,39,15.239,0.3695,-0.4018,-0.4969,0.6745
-0.204,0.017,0,-12.8,6,28.1,0,2018,5,17,22,39,15.259,0.3734,-0.4007,-0.4982,0.6721
-0.163,0.061,-0.059,-18.8,4.4,28.3,0,2018,5,17,22,39,15.262,0.3786,-0.3997,-0.4981,0.6698
-0.146,0.168,-0.067,-21.8,-13,34.4,0,2018,5,17,22,39,15.299,0.3837,-0.3999,-0.4991,0.666
-0.113,0.178,0.048,-25.4,-46.4,38.2,0,2018,5,17,22,39,15.318,0.3882,-0.4014,-0.5033,0.6593
-0.04,0.239,-0.027,-19.9,-95.6,40.3,0,2018,5,17,22,39,15.324,0.3901,-0.405,-0.5126,0.6487
0.002,0.02,-0.187,-10.5,-114.5,45.1,0,2018,5,17,22,39,15.359,0.3882,-0.4107,-0.5275,0.6341
0.006,-0.071,-0.089,-0.2,-79.8,50.9,0,2018,5,17,22,39,15.379,0.3867,-0.4138,-0.5419,0.6207
0.012,-0.057,-0.056,13.6,-55.9,50.7,0,2018,5,17,22,39,15.382,0.3868,-0.4128,-0.5535,0.6111
0.032,-0.109,-0.194,28.1,-54.1,43,0,2018,5,17,22,39,15.4,0.3855,-0.4102,-0.5648,0.6033
0.057,-0.096,-0.286,48.9,-40,38.2,0,2018,5,17,22,39,15.42,0.3823,-0.4053,-0.5754,0.5986
-0.036,-0.206,-0.147,54,-12.1,29.2,0,2018,5,17,22,39,15.457,0.3785,-0.3983,-0.5845,0.5969
-0.011,-0.192,-0.024,47.1,22.2,22.4,0,2018,5,17,22,39,15.48,0.3766,-0.3898,-0.5894,0.5988
0.035,-0.101,-0.066,46.9,17.4,8.8,0,2018,5,17,22,39,15.482,0.375,-0.3819,-0.5915,0.6029
0.049,-0.054,0.024,45.3,-19.2,2.1,0,2018,5,17,22,39,15.517,0.3703,-0.3768,-0.5954,0.6051
0.045,-0.08,0.038,41.5,-27.9,-0.7,0,2018,5,17,22,39,15.541,0.3641,-0.3738,-0.601,0.6053
0.008,-0.142,0.112,29.4,-0.5,-4.7,1023,2018,5,17,22,39,15.546,0.3593,-0.3709,-0.6044,0.6065
0.006,-0.01,0.153,16.5,23.7,-6.2,1023,2018,5,17,22,39,15.582,0.3579,-0.3676,-0.6032,0.6105
0.033,0.104,0.182,8.2,14.1,-6.9,1023,2018,5,17,22,39,15.604,0.3576,-0.3655,-0.601,0.6142
0.011,0.1,0.183,4.6,-2.4,-4.4,1023,2018,5,17,22,39,15.609,0.3566,-0.365,-0.6005,0.6154
-0.038,0.024,0.132,-0.7,-10,-3,1023,2018,5,17,22,39,15.625,0.3561,-0.3651,-0.601,0.6152
-0.04,-0.123,-0.06,-2.8,9.3,0,1023,2018,5,17,22,39,15.644,0.3565,-0.3651,-0.6014,0.6146
-0.084,-0.204,-0.051,-6.1,63,-0.6,1023,2018,5,17,22,39,15.664,0.3594,-0.363,-0.5983,0.6172
-0.064,-0.078,-0.032,-9.7,122.9,-1,1023,2018,5,17,22,39,15.702,0.3667,-0.3575,-0.5879,0.6261
-0.031,0.118,-0.162,7.3,123,-12.2,1023,2018,5,17,22,39,15.726,0.3746,-0.3498,-0.5737,0.6387
-0.084,0.169,-0.124,27.2,53.8,-16.4,1023,2018,5,17,22,39,15.73,0.3762,-0.3433,-0.5642,0.6497
-0.169,-0.179,-0.022,29.5,29.5,-18.3,1023,2018,5,17,22,39,15.746,0.374,-0.3391,-0.5619,0.6552
-0.09,-0.029,-0.055,33.1,31.6,-30.7,1023,2018,5,17,22,39,15.768,0.3702,-0.335,-0.5599,0.6611
-0.109,-0.053,-0.041,28.1,29.1,-36.5,1023,2018,5,17,22,39,15.789,0.3656,-0.3322,-0.5573,0.6672
-0.146,-0.074,0.281,12.4,2.8,-49.7,1023,2018,5,17,22,39,15.808,0.36,-0.3324,-0.5542,0.6727
-0.096,-0.049,0.362,0.2,-60.6,-62.7,1023,2018,5,17,22,39,15.828,0.3511,-0.3391,-0.5543,0.674
0.072,0.004,0.189,-4.9,-129.9,-74.7,1023,2018,5,17,22,39,15.846,0.3374,-0.3522,-0.5612,0.6685
0.172,-0.043,0.08,-2.1,-166.4,-77.3,1023,2018,5,17,22,39,15.87,0.3191,-0.3692,-0.5738,0.6576
0.219,-0.069,0.125,-5.6,-149.6,-74.7,1023,2018,5,17,22,39,15.887,0.3003,-0.3861,-0.5867,0.6453
0.213,-0.036,0.203,-11.9,-112.8,-70.5,1023,2018,5,17,22,39,15.911,0.284,-0.4013,-0.5958,0.6349
0.178,0.051,0.132,-13.8,-74.7,-62.6,1023,2018,5,17,22,39,15.929,0.2715,-0.4143,-0.6005,0.6276
0.111,0.133,0.094,-16.4,-53.3,-52.8,1023,2018,5,17,22,39,15.952,0.2623,-0.425,-0.6023,0.6226
0.087,0.169,0.072,-17.4,-28.1,-39.3,0,2018,5,17,22,39,15.967,0.2559,-0.4337,-0.6024,0.6191
0.078,0.172,-0.019,-18.9,18.1,-24.5,0,2018,5,17,22,39,15.988,0.2535,-0.4398,-0.5993,0.6188
0.055,0.32,-0.122,-19.6,61.1,-4.9,0,2018,5,17,22,39,16.025,0.257,-0.4417,-0.5925,0.6225
0.025,0.431,-0.168,-19.1,72.1,17.8,0,2018,5,17,22,39,16.048,0.2652,-0.4401,-0.5844,0.628
-0.026,0.515,-0.132,-16.4,52.8,42.3,0,2018,5,17,22,39,16.053,0.2751,-0.4361,-0.5786,0.6318
-0.06,0.493,-0.089,-11.1,16.1,63.2,0,2018,5,17,22,39,16.071,0.2851,-0.4306,-0.5781,0.6317
-0.141,0.246,-0.087,-5.1,-15.6,76.1,0,2018,5,17,22,39,16.09,0.2933,-0.4247,-0.583,0.6273
-0.168,0.14,-0.008,-8.3,2.1,88.8,0,2018,5,17,22,39,16.11,0.3021,-0.4177,-0.5894,0.6218
-0.174,0.116,0.031,-12.2,25.7,99,0,2018,5,17,22,39,16.149,0.315,-0.408,-0.594,0.6175
-0.195,0.058,-0.15,-6.2,30,100.3,0,2018,5,17,22,39,16.172,0.3289,-0.3972,-0.5971,0.6143
-0.235,-0.022,-0.187,6.4,15.1,94.2,0,2018,5,17,22,39,16.176,0.3409,-0.3856,-0.6012,0.6111
-0.331,-0.36,-0.2,19,15.8,76.7,0,2018,5,17,22,39,16.188,0.3495,-0.3746,-0.6059,0.6084
-0.305,-0.33,-0.248,28.3,33.7,54.4,0,2018,5,17,22,39,16.225,0.3552,-0.3639,-0.609,0.6086
-0.172,-0.148,-0.139,33.5,20.8,26.7,0,2018,5,17,22,39,16.246,0.358,-0.3545,-0.61,0.6114
-0.059,-0.207,-0.064,34.9,-9.6,6.3,0,2018,5,17,22,39,16.251,0.3566,-0.3486,-0.6132,0.6124
-0.055,-0.306,0.001,32.7,-33.3,-13.5,0,2018,5,17,22,39,16.288,0.3512,-0.3466,-0.6182,0.6117
0.007,-0.267,0.051,27.4,-30,-24.6,0,2018,5,17,22,39,16.311,0.3441,-0.3472,-0.6226,0.6109
0.067,-0.269,0.09,24.4,-7.7,-31.1,0,2018,5,17,22,39,16.316,0.3374,-0.3486,-0.6243,0.6121
0.208,-0.067,0.167,17.8,-1,-37.6,0,2018,5,17,22,39,16.334,0.3312,-0.3504,-0.6238,0.615
0.207,-0.019,0.203,14.9,-5.6,-40.1,0,2018,5,17,22,39,16.351,0.3251,-0.3529,-0.6225,0.6181
0.165,0.035,0.236,8.3,-16.4,-35.4,1023,2018,5,17,22,39,16.374,0.3189,-0.3564,-0.6222,0.6197
0.138,-0.02,0.223,-0.2,-8.1,-27.7,1023,2018,5,17,22,39,16.391,0.3143,-0.3601,-0.622,0.62
0.108,-0.042,0.206,-9.3,21.5,-23.8,1023,2018,5,17,22,39,16.409,0.3124,-0.3631,-0.6195,0.6218
0.076,-0.01,0.179,-16.6,40,-21.6,1023,2018,5,17,22,39,16.432,0.3135,-0.3653,-0.6136,0.6258
0.029,0.117,0.159,-17.4,24.3,-17.2,1023,2018,5,17,22,39,16.468,0.3155,-0.3672,-0.6076,0.6294
0.016,0.068,0.055,-15.8,-6.4,-12.7,1023,2018,5,17,22,39,16.491,0.3165,-0.3698,-0.6046,0.6303
0,-0.098,-0.033,-15.3,3.2,-9.4,1023,2018,5,17,22,39,16.496,0.3165,-0.3728,-0.604,0.6291
-0.027,-0.091,-0.069,-17.5,45.7,-9.4,1023,2018,5,17,22,39,16.513,0.3189,-0.3742,-0.6004,0.6306
-0.026,0.064,-0.061,-17,62.5,-11.1,1023,2018,5,17,22,39,16.55,0.3235,-0.3739,-0.5931,0.6353
-0.051,0.154,-0.044,-12.1,34.7,-12.4,1023,2018,5,17,22,39,16.573,0.3272,-0.3738,-0.5863,0.6397
-0.059,0.079,-0.072,-8.3,-4.2,-13.3,1023,2018,5,17,22,39,16.577,0.3278,-0.3755,-0.5841,0.6405
-0.026,0.032,-0.019,-7.7,-9.4,-10.8,1023,2018,5,17,22,39,16.596,0.3268,-0.3781,-0.5845,0.6391
-0.015,0.078,0.025,-11.1,8,-7.5,1023,2018,5,17,22,39,16.631,0.327,-0.3799,-0.5835,0.6388
-0.019,0.113,0.048,-19.6,10.9,-5.9,1023,2018,5,17,22,39,16.655,0.3289,-0.3814,-0.5807,0.6395
-0.013,0.159,0.061,-25.4,-10.5,-5.3,1023,2018,5,17,22,39,16.658,0.331,-0.3842,-0.5786,0.6387
0.011,0.044,-0.023,-23.5,-31.5,-2.8,1023,2018,5,17,22,39,16.678,0.3317,-0.3886,-0.5793,0.6349
0.017,-0.046,-0.046,-19.2,-25.6,-1.3,1023,2018,5,17,22,39,16.714,0.3313,-0.3932,-0.5816,0.6302
0.006,-0.052,-0.076,-13.5,-0.3,-0.3,1023,2018,5,17,22,39,16.738,0.332,-0.396,-0.5824,0.6274
0.014,0.03,-0.067,-6.4,11.6,0,1023,2018,5,17,22,39,16.741,0.3333,-0.3971,-0.5813,0.6269
0.037,0.053,-0.024,-1,12.2,2.2,1023,2018,5,17,22,39,16.755,0.3344,-0.397,-0.58,0.6276
0.057,0.06,0.005,3,14,6.1,1023,2018,5,17,22,39,16.792,0.3352,-0.3961,-0.579,0.6287
0.047,-0.063,-0.023,5.2,28.3,9.8,1023,2018,5,17,22,39,16.815,0.337,-0.3939,-0.5775,0.6305
0.029,-0.144,-0.041,10.8,50.2,5.7,0,2018,5,17,22,39,16.819,0.3396,-0.3901,-0.5743,0.6344
0.056,-0.034,-0.025,12.1,68.4,5.7,0,2018,5,17,22,39,16.835,0.3428,-0.3851,-0.5687,0.6408
0.126,0.171,-0.009,10.7,74,12.4,0,2018,5,17,22,39,16.859,0.3471,-0.3792,-0.5613,0.6484
0.103,0.259,-0.093,14.9,71.9,22.8,0,2018,5,17,22,39,16.877,0.3525,-0.3716,-0.5549,0.6554
-0.052,-0.03,0.038,10.5,59.2,16.8,0,2018,5,17,22,39,16.9,0.3577,-0.3642,-0.5497,0.6611
-0.183,-0.183,0.197,-1.1,81.4,21.1,0,2018,5,17,22,39,16.918,0.364,-0.3573,-0.5431,0.6668
-0.208,-0.131,0.12,-12,96.2,12.6,0,2018,5,17,22,39,16.955,0.3727,-0.3505,-0.5329,0.6739
-0.102,0.064,-0.016,-4.7,47.5,-3.5,0,2018,5,17,22,39,16.978,0.3792,-0.3459,-0.5237,0.6799
-0.139,0.028,-0.062,5.3,-18.2,-15.6,0,2018,5,17,22,39,16.982,0.3788,-0.3458,-0.5223,0.6811
-0.135,-0.099,-0.096,8.7,-21.8,-25.5,0,2018,5,17,22,39,16.996,0.3745,-0.3482,-0.524,0.681
-0.06,-0.106,-0.006,2.5,-37.7,-39.9,0,2018,5,17,22,39,17.014,0.3683,-0.3524,-0.5261,0.6806
0.02,-0.004,0.025,-2.8,-59.7,-44.9,0,2018,5,17,22,39,17.038,0.3606,-0.3591,-0.5294,0.6786
0.1,0.065,-0.004,-3,-86.7,-50,0,2018,5,17,22,39,17.073,0.3503,-0.369,-0.5347,0.6746
0.15,0.041,-0.049,0.8,-107.2,-51.6,0,2018,5,17,22,39,17.096,0.3376,-0.3802,-0.5426,0.6684
0.202,-0.073,-0.109,8.4,-98,-48.4,0,2018,5,17,22,39,17.101,0.3241,-0.3908,-0.5517,0.6615
0.165,-0.153,-0.034,11.1,-34.4,-37.5,0,2018,5,17,22,39,17.119,0.3132,-0.3979,-0.5571,0.6581
0.163,0.077,0.107,6.2,44.9,-21.4,0,2018,5,17,22,39,17.138,0.3093,-0.3997,-0.554,0.6614
0.178,0.222,0.016,6.2,70.7,-12.9,0,2018,5,17,22,39,17.16,0.3111,-0.3976,-0.5456,0.6688
0.032,0.321,0.151,2.2,71,5.7,0,2018,5,17,22,39,17.176,0.3151,-0.3933,-0.537,0.6764
-0.006,0.322,0.207,-4.1,49.6,20.8,0,2018,5,17,22,39,17.213,0.3214,-0.3887,-0.5301,0.6815
-0.098,0.25,0.209,-4.8,-11.9,25.3,0,2018,5,17,22,39,17.237,0.3258,-0.3862,-0.5292,0.6815
-0.161,0.06,0.171,-12.5,-34.1,29.7,0,2018,5,17,22,39,17.24,0.328,-0.3864,-0.5337,0.6768
-0.236,-0.149,0.081,-23.6,-37.2,15,1023,2018,5,17,22,39,17.257,0.3301,-0.3885,-0.5384,0.6709
-0.216,-0.216,0.1,-41.9,-18.8,11.6,1023,2018,5,17,22,39,17.28,0.3322,-0.3933,-0.541,0.6649
-0.056,0.104,0.074,-52.4,13.4,12.2,1023,2018,5,17,22,39,17.298,0.3388,-0.3973,-0.5383,0.6613
-0.056,0.098,0.037,-51.7,-16.3,6.4,1023,2018,5,17,22,39,17.322,0.3455,-0.4018,-0.5355,0.6574
-0.037,0.008,-0.006,-47.4,-41.4,2.9,1023,2018,5,17,22,39,17.339,0.3488,-0.4087,-0.5366,0.6506
-0.002,-0.177,-0.02,-47.5,-31.5,1.9,1023,2018,5,17,22,39,17.363,0.3508,-0.4163,-0.5386,0.643
0.063,-0.132,-0.073,-44.7,-3.7,-1.7,1023,2018,5,17,22,39,17.379,0.3541,-0.4225,-0.5378,0.6377
0.093,0.015,-0.156,-34.6,-14.2,-9.4,1023,2018,5,17,22,39,17.401,0.3565,-0.4282,-0.5355,0.6345
0.116,-0.012,-0.209,-23.6,-38.1,-13.3,1023,2018,5,17,22,39,17.422,0.3557,-0.4345,-0.5357,0.6305
0.085,-0.112,-0.176,-16.3,-24.5,-12.7,1023,2018,5,17,22,39,17.46,0.3534,-0.4401,-0.5372,0.6266
0.085,-0.055,-0.201,-7.5,10.2,-16,1023,2018,5,17,22,39,17.46,0.3526,-0.4431,-0.5357,0.6262
0.066,0.072,-0.198,3.9,11.9,-18.5,1023,2018,5,17,22,39,17.484,0.3518,-0.4443,-0.5325,0.6286
0.051,0.087,-0.167,14.4,1.8,-13.6,1023,2018,5,17,22,39,17.499,0.3495,-0.4446,-0.5308,0.631
0.029,0.088,-0.095,20.3,-0.6,-8.6,1023,2018,5,17,22,39,17.522,0.3463,-0.4442,-0.531,0.6329
-0.006,0.064,-0.071,23.3,23.3,3.4,1023,2018,5,17,22,39,17.539,0.3419,-0.44,-0.5325,0.637
0.027,0.136,-0.082,28.6,51,12.8,1023,2018,5,17,22,39,17.561,0.343,-0.4346,-0.5308,0.6415
-0.011,0.188,-0.013,37.2,51.8,18.2,1023,2018,5,17,22,39,17.599,0.3455,-0.4268,-0.5277,0.6479
-0.072,0.13,0.005,46.2,22.5,25.7,1023,2018,5,17,22,39,17.62,0.3472,-0.4176,-0.5276,0.6531
-0.088,-0.028,-0.009,52.6,20.6,32.8,1023,2018,5,17,22,39,17.625,0.3477,-0.4077,-0.5312,0.6561
-0.081,-0.086,-0.07,53.8,76,39.1,1023,2018,5,17,22,39,17.641,0.3508,-0.3949,-0.5324,0.6613
-0.079,0.068,-0.035,54.8,106.6,31.9,1023,2018,5,17,22,39,17.665,0.3568,-0.3792,-0.5275,0.6712
-0.135,0.106,0.028,55,84.7,28.6,1023,2018,5,17,22,39,17.681,0.3625,-0.3631,-0.5214,0.6817
-0.152,-0.025,-0.015,50.2,46.8,17.6,0,2018,5,17,22,39,17.704,0.3642,-0.3509,-0.519,0.689
-0.142,0.204,0.627,21.9,-12.1,6.4,0,2018,5,17,22,39,17.741,0.3638,-0.3437,-0.5195,0.6924
-0.047,-0.184,0.462,-8.2,-2.6,1.9,0,2018,5,17,22,39,17.765,0.3636,-0.3434,-0.521,0.6916
0.126,0.212,0.215,-20,-10.8,0.9,0,2018,5,17,22,39,17.769,0.3651,-0.3455,-0.52,0.6905
0.131,0.048,0.061,-10.4,-42.2,2.7,0,2018,5,17,22,39,17.781,0.3648,-0.3494,-0.5227,0.6866
0.11,0.007,0.093,-6.7,-24.6,2.1,0,2018,5,17,22,39,17.819,0.3636,-0.3526,-0.5266,0.6826
-0.007,-0.173,0.075,-13.2,4,-8,0,2018,5,17,22,39,17.841,0.3637,-0.3543,-0.5265,0.6818
0.039,-0.144,0.045,-23.3,27.6,-6.3,0,2018,5,17,22,39,17.844,0.3655,-0.3565,-0.5226,0.6827
0.128,-0.067,-0.104,-16.9,49.3,-6.2,0,2018,5,17,22,39,17.863,0.3696,-0.3569,-0.5158,0.6855
0.006,-0.095,-0.188,-5.4,41.9,-10.9,0,2018,5,17,22,39,17.886,0.3719,-0.3562,-0.5091,0.6895
0.043,0.046,-0.188,-0.8,74.6,-7.1,0,2018,5,17,22,39,17.904,0.3744,-0.3541,-0.5016,0.6947
-0.151,0.462,0.686,-44.3,88.6,5.7,0,2018,5,17,22,39,17.927,0.3816,-0.351,-0.4892,0.7012
-0.215,0.405,0.71,-81.4,-16.5,8,0,2018,5,17,22,39,17.945,0.3893,-0.3561,-0.4805,0.7004
-0.089,0.14,0.23,-103,-69.2,26.8,0,2018,5,17,22,39,17.968,0.3962,-0.3696,-0.4815,0.6887
-0.078,-0.161,0.095,-111,-56.5,23.1,0,2018,5,17,22,39,17.983,0.4041,-0.385,-0.4833,0.6743
-0.057,-0.111,0.089,-112,3.7,23.1,0,2018,5,17,22,39,18.004,0.4153,-0.397,-0.4802,0.6626
-0.011,0.005,0.104,-110,9.7,11.2,0,2018,5,17,22,39,18.023,0.428,-0.4068,-0.4714,0.6549
-0.056,-0.015,-0.078,-104.6,-26.1,10.4,0,2018,5,17,22,39,18.047,0.4377,-0.4186,-0.4651,0.6455
-0.051,-0.121,-0.153,-96.2,-24.1,9.3,0,2018,5,17,22,39,18.064,0.4447,-0.4314,-0.4613,0.6349
0.016,-0.123,-0.288,-84.8,6.3,1.4,0,2018,5,17,22,39,18.086,0.452,-0.4417,-0.4554,0.6269
0.032,-0.042,-0.346,-66.1,8.5,-5.8,0,2018,5,17,22,39,18.122,0.4582,-0.4496,-0.4477,0.6223
0.06,-0.021,-0.317,-47.8,-1.6,-6.9,0,2018,5,17,22,39,18.144,0.4621,-0.4562,-0.4423,0.6186
0.079,0.006,-0.316,-31.8,-6.4,-9.8,0,2018,5,17,22,39,18.149,0.4637,-0.4617,-0.4386,0.6159
0.059,0.021,-0.281,-19.4,-1.6,-8.9,1023,2018,5,17,22,39,18.167,0.4642,-0.4655,-0.4362,0.6142
0.043,0.028,-0.259,-2.8,1.8,-7.2,1023,2018,5,17,22,39,18.185,0.4642,-0.4675,-0.4344,0.6141
0.021,0.002,-0.182,12.1,5.5,-7.4,1023,2018,5,17,22,39,18.209,0.4633,-0.4672,-0.4338,0.6154
0.023,0.011,-0.123,24,8,-9.9,1023,2018,5,17,22,39,18.224,0.4611,-0.4661,-0.4342,0.6176
0.003,0.037,-0.055,31.3,5.5,-9.4,1023,2018,5,17,22,39,18.242,0.4582,-0.4638,-0.4353,0.6207
0.011,0.069,0.027,30.8,5.4,-8.5,1023,2018,5,17,22,39,18.265,0.4553,-0.4607,-0.4364,0.6243
-0.011,0.028,0.055,26.1,8.3,-7.2,1023,2018,5,17,22,39,18.303,0.4531,-0.4574,-0.4369,0.628
-0.013,0.046,0.041,21.6,8.5,-4.7,1023,2018,5,17,22,39,18.326,0.4517,-0.4542,-0.4372,0.6311
0.003,0.084,0.055,17.1,-2.4,-3,1023,2018,5,17,22,39,18.33,0.4506,-0.4517,-0.4376,0.6335
0.004,0.093,0.029,17.2,-27.2,-1.8,1023,2018,5,17,22,39,18.349,0.4482,-0.4508,-0.4401,0.6341
0.029,0.011,-0.04,21.9,-36.9,-0.6,1023,2018,5,17,22,39,18.368,0.4438,-0.4514,-0.4455,0.633
0.004,-0.065,0.006,27.8,-16.4,-0.7,1023,2018,5,17,22,39,18.387,0.4395,-0.4511,-0.4507,0.6325
-0.006,-0.019,0.091,25.2,5.3,-4,1023,2018,5,17,22,39,18.41,0.4372,-0.4482,-0.4529,0.6346
-0.001,0.049,0.044,23.1,6.6,-5,1023,2018,5,17,22,39,18.428,0.4358,-0.4449,-0.453,0.6377
0.036,0.067,-0.013,25.5,-3.9,-2.6,1023,2018,5,17,22,39,18.45,0.4335,-0.4426,-0.4541,0.6401
0.029,0.056,-0.028,30,-12.5,0.2,1023,2018,5,17,22,39,18.469,0.4303,-0.4406,-0.457,0.6416
0.01,0.073,-0.02,34.1,-16,3,1023,2018,5,17,22,39,18.493,0.4267,-0.4382,-0.4611,0.6427
0,0.013,-0.029,33.7,-11.1,4.8,1023,2018,5,17,22,39,18.528,0.4233,-0.4354,-0.4656,0.6437
-0.003,0.033,-0.033,32.2,0.7,7.4,1023,2018,5,17,22,39,18.551,0.421,-0.4316,-0.4692,0.6451
-0.013,0.066,-0.032,32.4,2.2,10.3,1023,2018,5,17,22,39,18.555,0.4195,-0.4273,-0.4721,0.6468
-0.024,0.048,0.006,33.6,-11.1,11.5,1023,2018,5,17,22,39,18.567,0.4181,-0.4228,-0.4758,0.648
-0.026,0.034,-0.029,37,-31.3,10.5,0,2018,5,17,22,39,18.605,0.415,-0.4194,-0.4817,0.6478
-0.012,-0.07,-0.064,40.5,-37.5,9.7,0,2018,5,17,22,39,18.627,0.4101,-0.417,-0.4899,0.6463
0.029,-0.057,-0.016,41.9,-16.1,8.8,0,2018,5,17,22,39,18.631,0.4055,-0.4138,-0.497,0.6459
0.069,-0.037,0.027,39.9,5.7,5.7,0,2018,5,17,22,39,18.65,0.4022,-0.4092,-0.5008,0.6479
0.055,-0.009,0.042,36.6,10,2,0,2018,5,17,22,39,18.674,0.4,-0.404,-0.5021,0.6515
0.05,-0.021,0.023,36.5,5.5,1.4,0,2018,5,17,22,39,18.691,0.3974,-0.3992,-0.5038,0.6547
0.038,-0.019,0.105,30.4,10,-1,0,2018,5,17,22,39,18.715,0.3951,-0.3947,-0.5048,0.6581
0.034,0.052,0.135,17.9,14.1,-4.5,0,2018,5,17,22,39,18.748,0.3939,-0.3909,-0.5037,0.6619
0.035,0.05,0.094,5.6,9.7,-4.6,0,2018,5,17,22,39,18.771,0.3936,-0.3887,-0.5018,0.6648
0.059,-0.009,0.102,-2.5,-1.6,-5.3,0,2018,5,17,22,39,18.775,0.3932,-0.3887,-0.5004,0.6661
0.045,0.001,0.158,-11.3,-12,-2.5,0,2018,5,17,22,39,18.791,0.3932,-0.3899,-0.4996,0.666
0.055,0.026,0.137,-17,-17.5,2.1,0,2018,5,17,22,39,18.827,0.3933,-0.3929,-0.5003,0.6637
0.048,-0.011,0.049,-13.6,-3.5,6,0,2018,5,17,22,39,18.85,0.3945,-0.3951,-0.5002,0.6617
0.027,0.031,-0.041,-2.4,27.7,11.3,0,2018,5,17,22,39,18.854,0.397,-0.3947,-0.4986,0.6617
-0.074,0.033,-0.036,8.6,43.8,13.5,0,2018,5,17,22,39,18.872,0.401,-0.3904,-0.4958,0.6639
-0.114,-0.041,-0.122,26.1,41.8,10.3,0,2018,5,17,22,39,18.89,0.4041,-0.384,-0.493,0.6678
-0.112,-0.031,-0.183,41.6,44.9,9.9,0,2018,5,17,22,39,18.914,0.405,-0.3764,-0.491,0.6731
-0.149,0.004,-0.123,49.1,53.9,8.9,0,2018,5,17,22,39,18.932,0.4053,-0.3667,-0.4888,0.6798
-0.205,-0.047,-0.01,46.9,53.5,3.8,0,2018,5,17,22,39,18.955,0.4056,-0.3565,-0.4859,0.6871
-0.135,-0.009,-0.068,49.2,22.9,-11.9,0,2018,5,17,22,39,18.972,0.4035,-0.3485,-0.484,0.6938
-0.068,0.017,-0.08,51.6,-11.6,-18.5,1023,2018,5,17,22,39,18.991,0.3976,-0.3435,-0.4865,0.6979
-0.062,-0.031,0.034,44.9,-34,-27.2,1023,2018,5,17,22,39,19.024,0.3895,-0.3408,-0.492,0.6999
0.005,-0.024,0.108,35.2,-60.3,-36.7,1023,2018,5,17,22,39,19.048,0.3798,-0.3413,-0.4983,0.7005
0.098,0.02,0.105,25.8,-92.5,-41.4,1023,2018,5,17,22,39,19.052,0.3678,-0.346,-0.5067,0.6986
0.154,0.025,0.088,18.3,-114.1,-43.3,1023,2018,5,17,22,39,19.072,0.3542,-0.3538,-0.5183,0.6932
0.163,0.007,0.087,11.6,-119.3,-43.9,1023,2018,5,17,22,39,19.095,0.3403,-0.3632,-0.5306,0.686
0.147,-0.015,0.088,6.3,-113.2,-43,1023,2018,5,17,22,39,19.112,0.3267,-0.3731,-0.5421,0.6782
0.147,-0.061,0.128,-3.7,-86.6,-39.1,1023,2018,5,17,22,39,19.135,0.315,-0.3827,-0.5514,0.6709
0.119,-0.078,0.14,-14.8,-44,-35.9,1023,2018,5,17,22,39,19.152,0.3071,-0.3912,-0.5557,0.6661
0.116,0.027,0.055,-22.9,8.7,-27.1,1023,2018,5,17,22,39,19.175,0.304,-0.3976,-0.5539,0.6653
0.118,0.188,-0.014,-25.7,47.4,-12.2,1023,2018,5,17,22,39,19.211,0.3054,-0.4015,-0.5471,0.6678
0.092,0.274,0.039,-29.2,60.8,7.8,1023,2018,5,17,22,39,19.235,0.3115,-0.4022,-0.5386,0.6716
0.046,0.209,-0.023,-25.2,59.3,25.4,1023,2018,5,17,22,39,19.239,0.3204,-0.4007,-0.5306,0.6746
-0.035,0.223,-0.135,-12.9,38.5,33.5,1023,2018,5,17,22,39,19.254,0.3288,-0.398,-0.5262,0.6756
-0.089,0.172,-0.081,-1.6,16.3,34.9,1023,2018,5,17,22,39,19.277,0.3353,-0.3942,-0.526,0.6748
-0.123,-0.045,-0.109,5.9,10.8,35.2,1023,2018,5,17,22,39,19.298,0.3404,-0.3899,-0.5279,0.6732
-0.165,-0.104,-0.119,10.4,24.6,28.3,1023,2018,5,17,22,39,19.314,0.3445,-0.3851,-0.5284,0.6736
-0.171,-0.04,-0.108,13.7,32.8,20.7,1023,2018,5,17,22,39,19.336,0.3483,-0.3796,-0.5269,0.6759
-0.132,-0.002,-0.085,15.9,17.7,16,1023,2018,5,17,22,39,19.353,0.3507,-0.3747,-0.5257,0.6782
-0.087,0.012,-0.058,17.7,-0.3,16.4,1023,2018,5,17,22,39,19.377,0.3519,-0.3704,-0.5276,0.6786
-0.081,-0.008,0.072,10.8,-10.3,15,0,2018,5,17,22,39,19.414,0.3527,-0.3669,-0.5308,0.6776
-0.031,0.088,0.116,0.5,-14.9,13.6,0,2018,5,17,22,39,19.436,0.3536,-0.3649,-0.5332,0.6763
0,0.102,0.025,-5,-25.2,12.6,0,2018,5,17,22,39,19.441,0.3547,-0.3648,-0.5356,0.6738
0.002,-0.029,0.018,-6.4,-34.4,10.3,0,2018,5,17,22,39,19.456,0.3547,-0.3662,-0.5397,0.6698
0.034,0.022,0.108,-11.5,-32.3,14.4,0,2018,5,17,22,39,19.479,0.3549,-0.3681,-0.5435,0.6656
0.016,0.042,0.217,-22.8,-30.3,20.3,0,2018,5,17,22,39,19.497,0.3567,-0.37,-0.5466,0.661
0.081,0.137,0.138,-30,-47.7,24,0,2018,5,17,22,39,19.521,0.3595,-0.3735,-0.5507,0.6541
0.04,0.001,0.153,-31.4,-62.5,28.4,0,2018,5,17,22,39,19.539,0.3616,-0.3782,-0.5567,0.6451
-0.003,-0.262,-0.017,-26.4,-20.6,28.8,0,2018,5,17,22,39,19.557,0.3652,-0.3812,-0.5616,0.637
0.025,-0.143,-0.174,-7.4,17.4,18,0,2018,5,17,22,39,19.575,0.3695,-0.3809,-0.5625,0.6339
0.023,-0.005,-0.151,8.1,17,16.2,0,2018,5,17,22,39,19.597,0.3719,-0.3786,-0.5625,0.6338
0.01,-0.102,-0.231,27.2,12.4,12.6,0,2018,5,17,22,39,19.615,0.3727,-0.3741,-0.5635,0.6351
-0.013,-0.176,-0.271,42.2,13.2,-3.7,0,2018,5,17,22,39,19.638,0.3705,-0.3688,-0.5647,0.6385
-0.023,-0.119,-0.221,47.4,20.6,-11.2,0,2018,5,17,22,39,19.674,0.366,-0.3638,-0.5651,0.6435
0.006,-0.008,-0.161,49.5,33.3,-14.4,0,2018,5,17,22,39,19.698,0.3613,-0.358,-0.5648,0.6496
0.046,0.129,-0.072,49.1,41,-14.7,0,2018,5,17,22,39,19.702,0.3566,-0.352,-0.5636,0.6566
0.011,0.333,0.244,29.4,32.1,-8.9,0,2018,5,17,22,39,19.737,0.3535,-0.3462,-0.5609,0.6636
-0.035,0.2,0.473,5.2,18,-6.1,0,2018,5,17,22,39,19.76,0.3529,-0.3431,-0.5582,0.6678
-0.083,0.079,0.314,-10,23.1,9.2,0,2018,5,17,22,39,19.764,0.3547,-0.3422,-0.5559,0.6692
-0.172,-0.029,0.276,-23.7,29.6,5.7,0,2018,5,17,22,39,19.779,0.3585,-0.3417,-0.5523,0.6704
-0.258,0.103,0.39,-37.6,7.1,1.7,0,2018,5,17,22,39,19.812,0.3634,-0.3435,-0.5482,0.6702
-0.247,-0.069,0.483,-62.2,-10.9,1.9,1023,2018,5,17,22,39,19.835,0.3682,-0.3494,-0.5457,0.6666
-0.235,-0.052,0.383,-86.8,15.3,4.5,1023,2018,5,17,22,39,19.839,0.376,-0.3577,-0.5407,0.6619
-0.189,0.043,0.265,-101.5,18.2,-4.3,1023,2018,5,17,22,39,19.875,0.3861,-0.3674,-0.532,0.6578
-0.076,0.129,0.174,-110.2,2.1,4.1,1023,2018,5,17,22,39,19.899,0.3964,-0.3789,-0.5237,0.6518
-0.002,0.128,0.111,-115,-10.5,14.1,1023,2018,5,17,22,39,19.902,0.4077,-0.3907,-0.5165,0.6435
-0.063,0.088,0.106,-128.3,-30.3,16.4,1023,2018,5,17,22,39,19.921,0.419,-0.4042,-0.511,0.6323
-0.051,0.012,-0.031,-136.7,-38.1,13.2,1023,2018,5,17,22,39,19.956,0.4305,-0.4194,-0.5062,0.6183
-0.011,-0.075,-0.033,-144.3,-32.4,12.2,1023,2018,5,17,22,39,19.98,0.4415,-0.4363,-0.5006,0.6032
0.033,-0.099,-0.135,-143,-10.3,13.6,1023,2018,5,17,22,39,19.984,0.4536,-0.4523,-0.4928,0.5887
0.026,-0.03,-0.258,-129.7,-12.6,8.2,1023,2018,5,17,22,39,20.002,0.4654,-0.4663,-0.4837,0.576
0.009,-0.033,-0.247,-114.1,-27.1,2.7,1023,2018,5,17,22,39,20.024,0.4742,-0.48,-0.4759,0.5639
0.011,-0.12,-0.326,-95.1,-10.5,0.5,1023,2018,5,17,22,39,20.042,0.4811,-0.4922,-0.469,0.5532
0.003,-0.155,-0.389,-70.3,19.2,-4.6,1023,2018,5,17,22,39,20.066,0.4881,-0.5,-0.4611,0.5468
0.063,-0.01,-0.457,-39.3,27.4,-11.6,1023,2018,5,17,22,39,20.081,0.4938,-0.504,-0.4528,0.5449
0.086,0.043,-0.405,-9.7,22.3,-10.4,1023,2018,5,17,22,39,20.118,0.4965,-0.5053,-0.4472,0.5459
0.054,0.044,-0.342,12.1,18.8,-9.7,1023,2018,5,17,22,39,20.159,0.4971,-0.5042,-0.4444,0.5487
0.027,0.03,-0.274,25.7,17.5,-7.5,1023,2018,5,17,22,39,20.161,0.4961,-0.5018,-0.4432,0.5526
0.008,0.049,-0.209,34.2,18,-5,1023,2018,5,17,22,39,20.163,0.4947,-0.4979,-0.4434,0.5573
0,0.059,-0.145,38.9,10.8,-6.6,1023,2018,5,17,22,39,20.181,0.4921,-0.4943,-0.4449,0.5616
-0.023,0.016,-0.117,40.9,2.5,-9.4,1023,2018,5,17,22,39,20.203,0.4883,-0.4912,-0.4476,0.5655
-0.036,0.029,-0.107,43.1,-10.6,-11.3,1023,2018,5,17,22,39,20.238,0.4834,-0.4888,-0.4512,0.5689
-0.037,-0.003,-0.109,48,-21.2,-11.3,0,2018,5,17,22,39,20.259,0.477,-0.4871,-0.4564,0.5716
-0.037,-0.03,-0.098,58.5,-25.5,-13.3,0,2018,5,17,22,39,20.261,0.4693,-0.4852,-0.4627,0.5744
-0.018,-0.058,-0.13,71.8,-23.3,-16.1,0,2018,5,17,22,39,20.3,0.4601,-0.4825,-0.4699,0.5784
-0.008,-0.032,-0.188,87,-15.8,-17.2,0,2018,5,17,22,39,20.323,0.4497,-0.4781,-0.4775,0.5839
-0.071,-0.049,-0.004,93.8,-7.8,-19.8,0,2018,5,17,22,39,20.327,0.4392,-0.4713,-0.4847,0.5916
-0.002,-0.013,0.067,89.7,5.7,-23.2,0,2018,5,17,22,39,20.344,0.4296,-0.4631,-0.4899,0.6006
0.036,0.031,0.013,85.1,2.6,-25.2,0,2018,5,17,22,39,20.361,0.4203,-0.4555,-0.4933,0.6103
0.04,-0.012,0.003,84.1,-16.2,-25.9,0,2018,5,17,22,39,20.384,0.4095,-0.4494,-0.4981,0.6181
0.037,-0.004,0.069,80.6,-17.6,-23.5,0,2018,5,17,22,39,20.402,0.3981,-0.4439,-0.5038,0.6248
0.035,-0.024,0.146,69.9,-4.6,-23.5,0,2018,5,17,22,39,20.426,0.3885,-0.438,-0.5077,0.6319
0.06,0.053,0.081,61.6,2.4,-22.4,0,2018,5,17,22,39,20.461,0.3804,-0.4325,-0.5094,0.6392
0.03,0.027,0.1,55.5,-7.5,-21.5,0,2018,5,17,22,39,20.483,0.3727,-0.428,-0.511,0.6454
0.011,0.036,0.166,50.6,-13.2,-18.6,0,2018,5,17,22,39,20.488,0.3651,-0.4242,-0.5135,0.6503
0,0.068,0.201,41.3,-3.7,-12.5,0,2018,5,17,22,39,20.522,0.3585,-0.4209,-0.5162,0.6539
0.014,0.13,0.173,30.1,0.2,-5.9,0,2018,5,17,22,39,20.545,0.3543,-0.4177,-0.5178,0.657
0.024,0.164,0.145,23.7,-10.2,1.6,0,2018,5,17,22,39,20.55,0.3514,-0.4152,-0.5197,0.6587
-0.016,0.193,0.136,20.4,-29.7,11.8,0,2018,5,17,22,39,20.563,0.3486,-0.4133,-0.5238,0.6581
-0.042,0.085,0.082,16.1,-29.4,22.9,0,2018,5,17,22,39,20.598,0.3473,-0.4108,-0.5295,0.6558
-0.039,0.078,0.062,13.7,-9.1,30.3,0,2018,5,17,22,39,20.621,0.3483,-0.4071,-0.5342,0.6537
-0.094,0.198,0.104,13.9,-14.2,34.5,0,2018,5,17,22,39,20.625,0.3506,-0.4025,-0.5382,0.6522
-0.138,0.075,0.035,12.7,-33.3,35.1,1023,2018,5,17,22,39,20.644,0.3515,-0.3993,-0.5445,0.6484
-0.159,-0.172,0.031,10.6,-2.1,33.2,1023,2018,5,17,22,39,20.666,0.3538,-0.395,-0.5507,0.6444
-0.193,-0.14,0.073,7.8,40.5,27.2,1023,2018,5,17,22,39,20.686,0.358,-0.3896,-0.5509,0.6453
-0.188,-0.037,0.023,8.1,38.4,18.6,1023,2018,5,17,22,39,20.708,0.3627,-0.384,-0.5479,0.6485
-0.18,-0.04,-0.051,13.6,21,10.9,1023,2018,5,17,22,39,20.729,0.3655,-0.3794,-0.5464,0.651
-0.141,-0.109,-0.073,17.2,9.5,0,1023,2018,5,17,22,39,20.747,0.3655,-0.3762,-0.546,0.6531
-0.127,-0.12,0.074,7.2,12.1,-1.2,1023,2018,5,17,22,39,20.77,0.3653,-0.3736,-0.5461,0.6546
-0.06,-0.166,-0.001,3.6,23.2,-8.2,1023,2018,5,17,22,39,20.791,0.3664,-0.3716,-0.5446,0.6565
0.001,-0.058,-0.046,3.9,26,-19.2,1023,2018,5,17,22,39,20.827,0.3661,-0.3708,-0.5413,0.6598
0.052,0.062,-0.062,4.6,11.9,-22,1023,2018,5,17,22,39,20.827,0.3642,-0.3716,-0.5383,0.6628
0.059,0.049,0.001,2.8,0.9,-24.4,1023,2018,5,17,22,39,20.849,0.3613,-0.3732,-0.5365,0.665
0.075,0.042,0.127,-5.2,-26,-28.3,1023,2018,5,17,22,39,20.866,0.3574,-0.3766,-0.5356,0.6659
0.109,0.023,0.186,-13.5,-56.3,-31.5,1023,2018,5,17,22,39,20.885,0.352,-0.3832,-0.538,0.6631
0.133,-0.001,0.101,-17.1,-69.9,-31.6,1023,2018,5,17,22,39,20.907,0.3454,-0.392,-0.5424,0.6578
0.118,-0.299,0.012,-24.1,-26.1,-24.4,1023,2018,5,17,22,39,20.946,0.34,-0.4007,-0.5452,0.653
0.161,0.367,0.062,-14.7,47.9,-15.7,1023,2018,5,17,22,39,20.968,0.3412,-0.4034,-0.5397,0.6552
0.085,0.193,0.127,-10.5,-46,-20.9,1023,2018,5,17,22,39,20.973,0.3406,-0.4064,-0.5372,0.6558
-0.012,-0.003,0.083,-7.9,-101.1,-14.5,1023,2018,5,17,22,39,20.988,0.3329,-0.4142,-0.5451,0.6483
0.017,-0.205,-0.023,-12.7,-62.4,-17,1023,2018,5,17,22,39,21.012,0.3262,-0.4214,-0.5532,0.6401
0.036,-0.087,-0.023,-16.1,4.6,-15.9,1023,2018,5,17,22,39,21.029,0.3239,-0.4262,-0.5545,0.6371
0.082,0.131,-0.09,-15.6,42.3,-11.1,1023,2018,5,17,22,39,21.052,0.3258,-0.4281,-0.5494,0.6392
0.069,0.264,-0.016,-13,18.3,-0.8,1023,2018,5,17,22,39,21.07,0.3287,-0.4286,-0.5443,0.6417
0.04,0.144,-0.051,-13.2,-1.9,10.2,1023,2018,5,17,22,39,21.094,0.3303,-0.4299,-0.5433,0.6409
0.017,0.117,-0.013,-14.7,2.5,17.9,0,2018,5,17,22,39,21.111,0.3328,-0.4305,-0.5438,0.6388
-0.003,0.094,-0.027,-16.5,4.7,22.3,0,2018,5,17,22,39,21.134,0.3368,-0.4303,-0.5439,0.6367
-0.031,0.081,0.008,-17.8,-3.8,26.8,0,2018,5,17,22,39,21.149,0.3412,-0.4299,-0.5448,0.6338
-0.007,0.145,-0.016,-18.5,-6,34.1,0,2018,5,17,22,39,21.167,0.3462,-0.4291,-0.5467,0.63
-0.043,0.1,0.002,-18.2,-8.1,40.1,0,2018,5,17,22,39,21.19,0.3517,-0.428,-0.5493,0.6255
-0.157,-0.008,0.069,-18.9,-0.2,43.2,0,2018,5,17,22,39,21.228,0.3582,-0.4259,-0.5517,0.6211
-0.142,-0.005,0.066,-18.3,20.7,41.6,0,2018,5,17,22,39,21.249,0.3652,-0.4234,-0.5525,0.618
-0.085,-0.074,-0.026,-12.5,56.4,43.3,0,2018,5,17,22,39,21.253,0.375,-0.4179,-0.5506,0.6176
-0.123,-0.017,-0.176,9.4,66,36.9,0,2018,5,17,22,39,21.29,0.3843,-0.41,-0.5467,0.6206
-0.205,-0.008,-0.155,26.7,49.6,34.4,0,2018,5,17,22,39,21.314,0.3904,-0.4007,-0.544,0.6252
-0.223,-0.205,-0.205,41.7,37.5,18.4,0,2018,5,17,22,39,21.317,0.393,-0.3916,-0.5435,0.6298
-0.185,-0.179,-0.289,56.2,48.6,2.4,0,2018,5,17,22,39,21.333,0.3921,-0.3824,-0.5427,0.6366
-0.081,-0.065,-0.211,63.3,43,-13.9,0,2018,5,17,22,39,21.356,0.3887,-0.3732,-0.5408,0.6458
-0.022,0.002,-0.033,60,18.9,-19.2,0,2018,5,17,22,39,21.371,0.3828,-0.3657,-0.541,0.6533
0.022,0.008,0.047,51.3,3.8,-22.2,0,2018,5,17,22,39,21.408,0.376,-0.3602,-0.5424,0.6591
0.066,0.031,0.091,38.4,-6.6,-24.5,0,2018,5,17,22,39,21.43,0.369,-0.3573,-0.5436,0.6637
0.12,0.011,0.133,23.3,-15.7,-24.4,0,2018,5,17,22,39,21.433,0.3625,-0.3568,-0.5451,0.6663
0.185,0.06,0.155,9.7,-21.3,-19,0,2018,5,17,22,39,21.453,0.3572,-0.3582,-0.547,0.6669
0.201,0.095,0.199,-1.7,-25.6,-11.4,0,2018,5,17,22,39,21.472,0.3536,-0.3607,-0.549,0.6657
0.191,0.069,0.173,-6.6,-24.4,-4.9,0,2018,5,17,22,39,21.495,0.3516,-0.3636,-0.5512,0.6634
0.171,-0.035,0.098,-6.9,-6.7,3.1,0,2018,5,17,22,39,21.512,0.3511,-0.3657,-0.5525,0.6615
0.111,-0.091,0.007,-2.7,24.3,8.3,1023,2018,5,17,22,39,21.535,0.3526,-0.3654,-0.5512,0.6619
0.035,-0.002,-0.01,4.7,37.1,8.9,1023,2018,5,17,22,39,21.554,0.3553,-0.3627,-0.5481,0.6646
-0.04,-0.006,0.017,10.2,21.3,4.7,1023,2018,5,17,22,39,21.592,0.3574,-0.3591,-0.5457,0.6673
-0.118,-0.097,0.039,10.5,9.5,-0.7,1023,2018,5,17,22,39,21.592,0.3582,-0.3559,-0.5453,0.6689
-0.086,-0.116,-0.034,14.7,11.1,-11.6,1023,2018,5,17,22,39,21.615,0.3575,-0.3539,-0.5451,0.6706
-0.124,-0.009,0.094,12.7,14.7,-18.3,1023,2018,5,17,22,39,21.632,0.3556,-0.3522,-0.5439,0.6734
-0.08,0.048,0.159,2.8,17.4,-15.7,1023,2018,5,17,22,39,21.655,0.3537,-0.3521,-0.5415,0.6764
-0.105,0.124,0.227,-12.7,14.9,-13.7,1023,2018,5,17,22,39,21.675,0.3536,-0.353,-0.5381,0.6787
-0.099,0.076,0.199,-26.1,2,-11.4,1023,2018,5,17,22,39,21.693,0.3545,-0.356,-0.5353,0.6789
-0.12,0.025,0.186,-35.7,0.8,-12.9,1023,2018,5,17,22,39,21.716,0.356,-0.3609,-0.5324,0.6778
-0.111,0.065,0.236,-48,1,-9.1,1023,2018,5,17,22,39,21.75,0.3586,-0.3669,-0.5289,0.676
-0.124,0.072,0.263,-64.7,3.5,-7.4,1023,2018,5,17,22,39,21.771,0.3629,-0.3741,-0.5245,0.6731
-0.076,0.159,0.163,-79.2,-9.6,-3.3,1023,2018,5,17,22,39,21.774,0.3688,-0.3832,-0.5198,0.6684
-0.061,0.104,0.09,-87.7,-27.7,2.5,1023,2018,5,17,22,39,21.808,0.3753,-0.394,-0.5165,0.661
-0.037,-0.015,0.053,-92.1,-18.8,4.9,1023,2018,5,17,22,39,21.829,0.3829,-0.4048,-0.5136,0.6523
0.002,0.012,-0.059,-88.5,-6.3,1.2,1023,2018,5,17,22,39,21.836,0.3908,-0.4156,-0.509,0.6445
0.032,0.083,-0.162,-79.2,-16.1,2.7,1023,2018,5,17,22,39,21.873,0.3973,-0.426,-0.5048,0.6369
0.062,0.017,-0.273,-65.7,-24.8,8.1,1023,2018,5,17,22,39,21.894,0.4025,-0.4352,-0.5026,0.6291
0.062,-0.154,-0.341,-46.8,0,7.2,1023,2018,5,17,22,39,21.897,0.4073,-0.4417,-0.5007,0.623
0.056,-0.13,-0.315,-29.4,29.7,-1.9,1023,2018,5,17,22,39,21.932,0.412,-0.4446,-0.4962,0.6215
0.057,-0.011,-0.34,-10,29.1,-9,0,2018,5,17,22,39,21.953,0.4155,-0.4449,-0.4906,0.6233
0.06,0.005,-0.359,8.7,10.2,-9.9,0,2018,5,17,22,39,21.956,0.4159,-0.4447,-0.4875,0.6257
0.021,-0.021,-0.305,25.5,8.3,-11.3,0,2018,5,17,22,39,21.993,0.4138,-0.4432,-0.4869,0.6286
-0.018,-0.012,-0.183,34.7,11.3,-15.3,0,2018,5,17,22,39,22.014,0.4104,-0.4404,-0.4868,0.6329
-0.014,0.032,-0.073,35.1,11.4,-15.4,0,2018,5,17,22,39,22.016,0.4063,-0.4374,-0.4874,0.6371
0.001,0.074,-0.005,31,2.6,-15.3,0,2018,5,17,22,39,22.051,0.4024,-0.4346,-0.4877,0.6412
0.022,0.088,0.01,29.6,-10,-13.6,0,2018,5,17,22,39,22.072,0.3978,-0.433,-0.4888,0.6443
0.013,0.076,0.075,29.1,-17.8,-9.4,0,2018,5,17,22,39,22.078,0.393,-0.4317,-0.491,0.6464
-0.012,0.032,0.082,28.8,-10.8,-4.3,0,2018,5,17,22,39,22.114,0.3889,-0.4296,-0.4939,0.6481
-0.021,-0.001,0.094,27.7,2.2,0,0,2018,5,17,22,39,22.139,0.3865,-0.4263,-0.4956,0.6505
-0.031,-0.034,0.058,29.5,14.9,0.1,0,2018,5,17,22,39,22.143,0.3852,-0.4219,-0.4962,0.6536
-0.044,-0.01,0.057,30.7,25.5,-0.6,0,2018,5,17,22,39,22.156,0.3846,-0.4166,-0.4957,0.6577
-0.035,0.019,0.031,31.3,32.5,-0.3,0,2018,5,17,22,39,22.175,0.3845,-0.4106,-0.4942,0.6626
-0.05,0.055,0.029,33.4,22.8,0.5,0,2018,5,17,22,39,22.198,0.3842,-0.4044,-0.493,0.6675
-0.026,0.019,-0.03,35.8,1.3,-0.7,0,2018,5,17,22,39,22.236,0.3824,-0.3994,-0.4941,0.6708
-0.012,-0.044,-0.075,40.9,-6.4,-3.2,0,2018,5,17,22,39,22.259,0.3785,-0.3957,-0.4974,0.6727
0.014,-0.065,-0.036,40.6,9.7,-6,0,2018,5,17,22,39,22.263,0.3743,-0.3916,-0.5002,0.6754
0.033,0.039,0.01,36.4,23.3,-8,0,2018,5,17,22,39,22.281,0.3713,-0.3866,-0.5001,0.68
0.044,0.079,0.024,34.6,21.2,-5.8,0,2018,5,17,22,39,22.316,0.3689,-0.3816,-0.4987,0.6851
0.069,0.077,-0.02,37.6,11.3,-2.3,0,2018,5,17,22,39,22.339,0.3661,-0.377,-0.4984,0.6894
0.03,0.024,-0.02,41.6,7.1,-2.8,0,2018,5,17,22,39,22.344,0.3626,-0.3721,-0.4997,0.6929
0.016,-0.005,0.062,38.1,14.2,-2.8,0,2018,5,17,22,39,22.36,0.3593,-0.367,-0.5007,0.6966
0.009,0.023,0.102,28.1,35.6,0.7,0,2018,5,17,22,39,22.379,0.358,-0.3613,-0.4989,0.7015
-0.106,0.175,0.262,5.6,43.8,10,0,2018,5,17,22,39,22.397,0.3598,-0.3562,-0.495,0.706
-0.131,0.15,0.415,-20.2,37.7,9.2,0,2018,5,17,22,39,22.419,0.3648,-0.3534,-0.4896,0.7086
-0.172,0.072,0.325,-40.8,-12.5,8.1,1023,2018,5,17,22,39,22.439,0.3692,-0.3558,-0.4865,0.7073
-0.114,0.114,0.284,-57.3,-49.1,14.8,1023,2018,5,17,22,39,22.462,0.3725,-0.3635,-0.488,0.7006
-0.1,-0.02,0.25,-72.2,-44.1,15.7,1023,2018,5,17,22,39,22.478,0.377,-0.3732,-0.4906,0.6912
-0.129,0.027,0.356,-86.7,-19.5,17.3,1023,2018,5,17,22,39,22.501,0.3836,-0.3836,-0.4901,0.6822
-0.158,0.098,0.357,-106.9,-1.3,22.8,1023,2018,5,17,22,39,22.519,0.3936,-0.3941,-0.4859,0.6734
-0.115,0.12,0.153,-117.3,2.8,33.9,1023,2018,5,17,22,39,22.543,0.4065,-0.4048,-0.4796,0.6638
-0.049,0.143,0.009,-121.2,-6.9,46.6,1023,2018,5,17,22,39,22.58,0.4214,-0.4151,-0.4738,0.6522
-0.082,0.1,0.06,-119.7,-23.1,49.5,1023,2018,5,17,22,39,22.603,0.436,-0.4254,-0.4703,0.6384
-0.133,0.014,0.081,-133.7,-39,43.4,1023,2018,5,17,22,39,22.607,0.4491,-0.4381,-0.4675,0.6227
-0.082,-0.008,-0.126,-140.5,-49.2,38.6,1023,2018,5,17,22,39,22.62,0.4615,-0.453,-0.4647,0.6047
-0.093,-0.113,-0.14,-136.7,-40.2,38,1023,2018,5,17,22,39,22.658,0.4728,-0.4684,-0.461,0.5867
-0.058,-0.277,-0.348,-116.2,-11.1,27.2,1023,2018,5,17,22,39,22.69,0.4844,-0.481,-0.4554,0.5714
0.046,-0.138,-0.457,-83.6,2.8,7,1023,2018,5,17,22,39,22.693,0.4935,-0.4899,-0.4481,0.5616
0.028,-0.136,-0.411,-53.2,-4.5,-1,1023,2018,5,17,22,39,22.703,0.4987,-0.4967,-0.4423,0.5556
0.045,-0.135,-0.44,-26.8,4.1,-4.2,1023,2018,5,17,22,39,22.72,0.5013,-0.5009,-0.4386,0.5524
0.085,-0.086,-0.436,-4.3,14,-11.3,1023,2018,5,17,22,39,22.743,0.5024,-0.5024,-0.4354,0.5526
0.067,-0.036,-0.381,16.6,15.3,-14.3,1023,2018,5,17,22,39,22.76,0.5018,-0.5017,-0.433,0.5557
0.074,0.011,-0.306,31.5,13,-14.1,1023,2018,5,17,22,39,22.784,0.4997,-0.4994,-0.4323,0.5603
0.057,0.04,-0.232,41,11.6,-14.5,1023,2018,5,17,22,39,22.803,0.4964,-0.496,-0.4328,0.5657
0.023,0.031,-0.144,44.1,9.6,-14.9,1023,2018,5,17,22,39,22.826,0.4924,-0.4924,-0.4339,0.5716
-0.002,0.031,-0.101,46.6,0.7,-15.5,1023,2018,5,17,22,39,22.842,0.4874,-0.4894,-0.4362,0.5766
-0.049,0.03,-0.057,51.9,-18,-18.1,0,2018,5,17,22,39,22.865,0.4811,-0.4869,-0.4402,0.581
-0.043,-0.016,-0.018,58.1,-24.8,-21,0,2018,5,17,22,39,22.903,0.473,-0.4847,-0.446,0.585
-0.037,-0.04,-0.001,60.8,-9.2,-22.1,0,2018,5,17,22,39,22.926,0.4649,-0.4817,-0.4511,0.5901
-0.034,0.017,-0.029,64.1,4.8,-21.3,0,2018,5,17,22,39,22.932,0.4579,-0.4769,-0.4547,0.5967
-0.031,0.027,-0.068,72.2,0.7,-19.7,0,2018,5,17,22,39,22.945,0.4507,-0.4712,-0.4584,0.6037
-0.057,0.036,0.033,79.8,-9.6,-20,0,2018,5,17,22,39,22.98,0.4422,-0.4651,-0.4636,0.6108
-0.024,-0.025,0.067,75.4,-6.4,-22.5,0,2018,5,17,22,39,23.002,0.4333,-0.4586,-0.4688,0.618
0.03,0.027,0.015,68.1,8.2,-20.8,0,2018,5,17,22,39,23.007,0.4254,-0.4524,-0.4721,0.6256
0.035,0.063,-0.014,65.2,11.7,-14.9,0,2018,5,17,22,39,23.023,0.4187,-0.446,-0.4741,0.6331
0.005,0.061,-0.005,69.3,3.5,-12.7,0,2018,5,17,22,39,23.046,0.4123,-0.4393,-0.4768,0.6399
-0.031,0.004,0.092,69.7,-5.6,-15.8,0,2018,5,17,22,39,23.083,0.4049,-0.4324,-0.4808,0.6463
-0.015,-0.061,0.102,61.7,1.8,-16.1,0,2018,5,17,22,39,23.106,0.3979,-0.4259,-0.4843,0.6524
0.031,0,0.029,55.6,16,-13.7,0,2018,5,17,22,39,23.111,0.3922,-0.4195,-0.4858,0.6587
0.019,0.085,0.111,51.1,13.2,-12.5,0,2018,5,17,22,39,23.126,0.3875,-0.4132,-0.4862,0.6653
0.018,0.043,0.139,44.7,8.9,-11.9,0,2018,5,17,22,39,23.143,0.3831,-0.4075,-0.4867,0.6709
0.009,0.038,0.122,38.4,10.2,-11,0,2018,5,17,22,39,23.167,0.3793,-0.4025,-0.4865,0.6762
0.025,0.137,0.11,32.5,9.3,-6.1,0,2018,5,17,22,39,23.183,0.3762,-0.3978,-0.4867,0.6805
0.054,0.193,0.106,24.2,4.6,0.6,0,2018,5,17,22,39,23.206,0.374,-0.3942,-0.4874,0.6833
0.05,0.198,0.029,19.1,-2.1,9.7,0,2018,5,17,22,39,23.244,0.3728,-0.3913,-0.4889,0.6846
0.02,0.169,0.018,15.3,1,23.5,0,2018,5,17,22,39,23.267,0.3731,-0.3882,-0.4907,0.685
0.037,0.217,0.015,13.7,11.4,37.8,0,2018,5,17,22,39,23.271,0.376,-0.3834,-0.4922,0.685
-0.051,0.167,0.019,13.2,12.7,46.9,0,2018,5,17,22,39,23.288,0.381,-0.377,-0.494,0.6844
-0.1,0.077,-0.029,12.5,17.5,52.6,0,2018,5,17,22,39,23.307,0.3875,-0.3694,-0.4966,0.683
-0.167,-0.026,-0.02,13.3,15,50.5,0,2018,5,17,22,39,23.331,0.3942,-0.3616,-0.4994,0.6814
-0.204,-0.078,-0.011,11.1,4.6,45.8,1023,2018,5,17,22,39,23.346,0.3995,-0.3554,-0.5019,0.6797
-0.19,-0.07,-0.031,9.7,-2.1,35.5,1023,2018,5,17,22,39,23.363,0.4034,-0.3505,-0.505,0.6776
-0.161,-0.079,-0.043,8.6,-7.6,24.1,1023,2018,5,17,22,39,23.386,0.4058,-0.3473,-0.508,0.6757
-0.096,-0.063,-0.016,7.8,-11.9,16.2,1023,2018,5,17,22,39,23.421,0.4071,-0.3448,-0.5114,0.6735
-0.046,-0.062,0.014,4.6,-14.2,14.4,1023,2018,5,17,22,39,23.444,0.4079,-0.3432,-0.5151,0.6711
0.015,-0.044,0.027,0.9,-9.3,13.1,1023,2018,5,17,22,39,23.449,0.4088,-0.3423,-0.5176,0.6691
0.082,-0.011,0.044,-2.6,-11.3,9.6,1023,2018,5,17,22,39,23.468,0.4096,-0.3421,-0.5192,0.6674
0.105,-0.052,0.082,-5.8,-16.2,6.5,1023,2018,5,17,22,39,23.491,0.4098,-0.343,-0.5206,0.6657
0.107,-0.093,0.069,-9.4,-13.4,4.3,1023,2018,5,17,22,39,23.507,0.41,-0.3446,-0.5218,0.6638
0.098,-0.063,0.014,-10.6,-7,2.6,1023,2018,5,17,22,39,23.53,0.4104,-0.3466,-0.5221,0.6623
0.084,-0.089,0.012,-11.3,-7.7,-3.8,1023,2018,5,17,22,39,23.566,0.4106,-0.3488,-0.5221,0.6611
0.081,-0.076,0.022,-12.7,-10.9,-10.3,1023,2018,5,17,22,39,23.589,0.41,-0.3518,-0.5218,0.6601
0.059,-0.032,-0.008,-12.3,-11.6,-13.3,1023,2018,5,17,22,39,23.593,0.4086,-0.3556,-0.5214,0.6592
0.011,-0.007,0.017,-17.4,-13.8,-13.6,1023,2018,5,17,22,39,23.61,0.4076,-0.3593,-0.5211,0.658
0.017,0.001,0.033,-22.7,-29.2,-15.7,1023,2018,5,17,22,39,23.633,0.4066,-0.3644,-0.5211,0.6559
0.018,0.021,0.043,-25.3,-34.4,-11.6,1023,2018,5,17,22,39,23.652,0.4051,-0.3706,-0.5224,0.6523
0.028,0.115,-0.035,-21.1,-18.6,-0.5,1023,2018,5,17,22,39,23.688,0.4048,-0.3757,-0.5234,0.6487
0.03,0.094,-0.138,-12.4,-0.7,3.2,1023,2018,5,17,22,39,23.688,0.4057,-0.3784,-0.524,0.6461
0.017,0.112,-0.182,-0.3,17.8,9.4,1023,2018,5,17,22,39,23.711,0.4075,-0.3778,-0.523,0.6461
-0.034,0.006,-0.197,9.7,35.2,20.7,1023,2018,5,17,22,39,23.729,0.4103,-0.3743,-0.5224,0.6469
0.009,-0.104,-0.367,32.4,52.3,15.6,1023,2018,5,17,22,39,23.753,0.4138,-0.3668,-0.5199,0.651
-0.009,-0.014,-0.377,59.1,47.5,9.6,1023,2018,5,17,22,39,23.771,0.4139,-0.3569,-0.5183,0.6576
-0.101,-0.095,-0.18,69.7,47.1,8.2,0,2018,5,17,22,39,23.789,0.4118,-0.345,-0.5182,0.6653
-0.133,-0.204,-0.011,59.7,67.7,4.1,0,2018,5,17,22,39,23.813,0.4102,-0.3327,-0.517,0.6735
-0.057,-0.027,-0.147,63.5,90.6,-3.5,0,2018,5,17,22,39,23.832,0.4093,-0.3197,-0.5129,0.6834
-0.156,0.102,-0.146,66.6,94.7,-18.8,0,2018,5,17,22,39,23.853,0.4076,-0.3057,-0.5053,0.6964
-0.198,0.083,0.117,60.3,47,-33.8,0,2018,5,17,22,39,23.89,0.4022,-0.295,-0.4997,0.708
-0.209,0.007,0.475,32.6,5.5,-33.5,0,2018,5,17,22,39,23.914,0.3949,-0.2905,-0.4987,0.7147
-0.211,0.308,0.624,-7.1,7.5,-13.2,0,2018,5,17,22,39,23.918,0.3909,-0.2908,-0.4974,0.7177
-0.019,0.357,0.405,-39.6,7.1,0.8,0,2018,5,17,22,39,23.932,0.3935,-0.2936,-0.4944,0.7172
0,0.242,0.226,-43.2,-48.5,-6.7,0,2018,5,17,22,39,23.948,0.396,-0.3004,-0.4934,0.7137
0.035,0.096,0.141,-37.1,-132.4,-12.1,0,2018,5,17,22,39,23.971,0.3931,-0.3126,-0.5019,0.704
0.031,-0.326,0.087,-35.8,-145.8,-13.2,0,2018,5,17,22,39,24.009,0.3867,-0.3281,-0.5161,0.6902
0.102,-0.435,-0.025,-38.2,-58.1,-14.4,0,2018,5,17,22,39,24.032,0.3822,-0.3411,-0.5256,0.6791
0.186,-0.094,-0.115,-36.2,23.2,-20.1,0,2018,5,17,22,39,24.036,0.3827,-0.3481,-0.5236,0.6768
0.195,0.153,-0.146,-28,34.6,-17.7,0,2018,5,17,22,39,24.053,0.3854,-0.3512,-0.5163,0.6792
0.139,0.108,-0.165,-17.5,11,-11.6,0,2018,5,17,22,39,24.072,0.387,-0.3536,-0.5114,0.6808
0.085,0.045,-0.185,-14.9,12.1,-2.8,0,2018,5,17,22,39,24.094,0.3882,-0.3554,-0.5089,0.6811
0.075,0.118,-0.185,-16.1,33.6,8.8,0,2018,5,17,22,39,24.113,0.3914,-0.3552,-0.5053,0.682
0.054,0.253,-0.082,-16.9,39.7,19,0,2018,5,17,22,39,24.136,0.3968,-0.3533,-0.5005,0.6833
-0.021,0.203,0.047,-17.8,23.2,29.3,0,2018,5,17,22,39,24.152,0.4034,-0.3508,-0.4964,0.6838
-0.064,-0.056,-0.003,-18.7,46.1,41.6,0,2018,5,17,22,39,24.17,0.4115,-0.3472,-0.4938,0.6827
0.002,-0.009,-0.198,-7.4,111,50,0,2018,5,17,22,39,24.193,0.4231,-0.3392,-0.4867,0.6848
-0.116,0.119,-0.219,12.7,121.4,45.8,0,2018,5,17,22,39,24.23,0.4357,-0.3257,-0.4749,0.6916
-0.227,0.006,-0.099,30,92.2,34.2,1023,2018,5,17,22,39,24.253,0.4448,-0.3115,-0.4658,0.6986
-0.269,-0.095,-0.004,34,66.3,22.3,1023,2018,5,17,22,39,24.257,0.4496,-0.2993,-0.4602,0.7045
-0.272,-0.083,0.005,29.2,41.4,6.2,1023,2018,5,17,22,39,24.272,0.4516,-0.2899,-0.4567,0.7094
-0.169,0.037,0.009,22.8,2.5,-5.8,1023,2018,5,17,22,39,24.295,0.4503,-0.2852,-0.456,0.7126
-0.129,-0.022,0.01,14.4,-27.8,-9.1,1023,2018,5,17,22,39,24.334,0.4475,-0.2844,-0.459,0.7128
-0.009,0.028,0,8.3,-46.4,-16.1,1023,2018,5,17,22,39,24.334,0.443,-0.2868,-0.4644,0.711
0.051,0.126,0.054,0.6,-64.2,-17.4,1023,2018,5,17,22,39,24.356,0.4381,-0.2917,-0.4699,0.7085
0.102,0.088,0.046,-4.6,-96,-18.3,1023,2018,5,17,22,39,24.394,0.4318,-0.2997,-0.4782,0.7035
0.122,0.048,0.059,-9.6,-118.8,-14.1,1023,2018,5,17,22,39,24.418,0.4247,-0.31,-0.4902,0.695
0.118,0.047,0.047,-14.4,-127.8,-6.4,1023,2018,5,17,22,39,24.421,0.4175,-0.3215,-0.5039,0.6843
0.126,-0.023,0.027,-15.3,-114.6,-5,1023,2018,5,17,22,39,24.434,0.411,-0.3332,-0.5162,0.6734
0.083,-0.079,0.028,-16.6,-84,0.8,1023,2018,5,17,22,39,24.472,0.4057,-0.3429,-0.5263,0.6638
0.066,-0.12,-0.018,-14.9,0.3,11.9,1023,2018,5,17,22,39,24.494,0.4055,-0.3473,-0.5303,0.6585
0.086,0.128,0.001,-14.3,56.2,24.6,1023,2018,5,17,22,39,24.498,0.4108,-0.3451,-0.5261,0.6597
0.033,0.292,0.011,-8.5,46.9,33.9,1023,2018,5,17,22,39,24.516,0.4184,-0.34,-0.5199,0.6625
-0.136,0.019,0.004,-6.1,26,32.2,1023,2018,5,17,22,39,24.555,0.4255,-0.3343,-0.5175,0.6627
-0.157,0.013,0.088,-13.8,28.2,31.4,1023,2018,5,17,22,39,24.555,0.4316,-0.3304,-0.5161,0.6619
-0.173,0.006,0.179,-35.7,41.4,32.6,1023,2018,5,17,22,39,24.578,0.4399,-0.3273,-0.5118,0.6612
-0.15,0.048,0.204,-53.5,20.8,26.4,1023,2018,5,17,22,39,24.613,0.4492,-0.3274,-0.506,0.6594
-0.147,0.067,0.178,-63.6,-26.1,24.7,1023,2018,5,17,22,39,24.636,0.4572,-0.3321,-0.5032,0.6536
-0.136,-0.023,0.094,-66.4,-60.8,17.2,1023,2018,5,17,22,39,24.64,0.4627,-0.3412,-0.5048,0.6438
-0.131,-0.187,0.03,-67.2,-56.6,6.7,1023,2018,5,17,22,39,24.658,0.4667,-0.3519,-0.5074,0.633
-0.056,-0.147,-0.045,-66.3,-25.9,-1.2,0,2018,5,17,22,39,24.682,0.4706,-0.3621,-0.5072,0.6245
0.021,-0.019,-0.078,-61.9,-14.9,-6.7,0,2018,5,17,22,39,24.701,0.4745,-0.3712,-0.504,0.6188
0.011,-0.037,-0.052,-57.8,-24.9,-9.9,0,2018,5,17,22,39,24.718,0.4772,-0.3803,-0.501,0.6136
0.003,-0.097,-0.047,-58.4,-29,-12.4,0,2018,5,17,22,39,24.737,0.4789,-0.3902,-0.4988,0.6078
0.012,-0.139,-0.117,-52.7,-6.3,-15.6,0,2018,5,17,22,39,24.774,0.4806,-0.3993,-0.4958,0.6029
0.08,-0.099,-0.19,-42.9,15,-21.9,0,2018,5,17,22,39,24.797,0.4828,-0.406,-0.4904,0.6012
0.072,-0.02,-0.199,-30.7,20.7,-27.1,0,2018,5,17,22,39,24.802,0.4847,-0.4102,-0.4834,0.6024
0.026,0.004,-0.125,-23,12.7,-26.1,0,2018,5,17,22,39,24.819,0.4851,-0.4143,-0.4776,0.604
0.02,0.025,-0.145,-13.8,5.5,-25.5,0,2018,5,17,22,39,24.84,0.4838,-0.4185,-0.4738,0.605
0.021,0.064,-0.083,-8.7,8.5,-23.7,0,2018,5,17,22,39,24.86,0.482,-0.4221,-0.4707,0.6065
-0.011,0.106,-0.001,-16.7,22.7,-16.8,0,2018,5,17,22,39,24.882,0.4819,-0.424,-0.4664,0.6085
-0.03,0.14,0.162,-29.9,14,-11.3,0,2018,5,17,22,39,24.901,0.484,-0.4256,-0.4608,0.6099
-0.035,0.171,0.181,-39.4,-7.8,-2.8,0,2018,5,17,22,39,24.939,0.4864,-0.4298,-0.4567,0.6082
-0.033,0.084,0.051,-38.2,-30.3,1.4,0,2018,5,17,22,39,24.939,0.4884,-0.4355,-0.4551,0.6038
-0.026,0.018,0.015,-35.3,-29.9,1.9,0,2018,5,17,22,39,24.961,0.4893,-0.4416,-0.4554,0.5983
-0.022,0.01,0.01,-33.8,-11,1.3,0,2018,5,17,22,39,24.978,0.4908,-0.4466,-0.4547,0.5939
-0.037,0.054,0.009,-34.7,-1.7,4.5,0,2018,5,17,22,39,25,0.4937,-0.4501,-0.4524,0.5905
-0.058,0.008,-0.023,-33.5,-4.1,6.3,0,2018,5,17,22,39,25.037,0.497,-0.4534,-0.4502,0.5869
-0.043,-0.009,-0.057,-27.6,-0.1,4.9,0,2018,5,17,22,39,25.06,0.5,-0.4562,-0.4487,0.5834
-0.025,-0.031,-0.092,-19.9,1.9,1,0,2018,5,17,22,39,25.065,0.5021,-0.4587,-0.4471,0.5808
-0.018,0.005,-0.105,-12.7,0.9,0.5,0,2018,5,17,22,39,25.084,0.5031,-0.4608,-0.4461,0.5791
-0.026,-0.021,-0.111,-9.5,1.8,1.1,1023,2018,5,17,22,39,25.101,0.5038,-0.4624,-0.4455,0.5776
-0.022,-0.055,-0.162,-4,6.3,0,1023,2018,5,17,22,39,25.124,0.5044,-0.4634,-0.4453,0.5765
0.014,-0.036,-0.193,6.5,3.6,-4.1,1023,2018,5,17,22,39,25.142,0.5043,-0.4632,-0.445,0.577
0.031,-0.036,-0.191,19.7,2.3,-7.6,1023,2018,5,17,22,39,25.184,0.5028,-0.4622,-0.4453,0.5788
0.028,0.007,-0.169,30.5,4.1,-9.1,1023,2018,5,17,22,39,25.186,0.5002,-0.4601,-0.4464,0.582
0.008,-0.031,-0.192,40,5.5,-11.6,1023,2018,5,17,22,39,25.2,0.4968,-0.457,-0.4479,0.5861
0.01,-0.015,-0.204,51.8,3.2,-14.6,1023,2018,5,17,22,39,25.234,0.4921,-0.4531,-0.4502,0.5914
-0.005,-0.025,-0.156,64.6,0.8,-17.7,1023,2018,5,17,22,39,25.255,0.4857,-0.4484,-0.4538,0.5974
-0.019,0.011,-0.004,65.6,6.3,-18.5,1023,2018,5,17,22,39,25.263,0.4786,-0.4431,-0.4579,0.6039
0.025,0.043,-0.015,62.2,11.3,-18.5,1023,2018,5,17,22,39,25.299,0.4723,-0.4371,-0.4605,0.6112
0.041,0.037,-0.132,65.2,5.9,-16.3,1023,2018,5,17,22,39,25.32,0.4656,-0.4317,-0.4634,0.618
-0.018,-0.078,-0.171,75.3,-2.2,-18.6,1023,2018,5,17,22,39,25.323,0.4577,-0.426,-0.4682,0.6242
-0.095,-0.053,0.116,75.9,-5.5,-22.8,1023,2018,5,17,22,39,25.341,0.4489,-0.4196,-0.4736,0.6308
-0.07,-0.065,0.243,59.4,3.2,-27.3,1023,2018,5,17,22,39,25.363,0.4403,-0.4146,-0.477,0.6376
-0.001,-0.008,0.118,47.1,6.9,-31.9,1023,2018,5,17,22,39,25.401,0.4333,-0.4104,-0.4779,0.6444
0.015,-0.02,0,49.1,-6.1,-35.7,1023,2018,5,17,22,39,25.424,0.4256,-0.4079,-0.4784,0.6506
-0.021,-0.049,0.104,50.8,-7.5,-34,1023,2018,5,17,22,39,25.427,0.417,-0.4054,-0.4807,0.6561
-0.056,-0.02,0.288,36.8,5.8,-33.6,1023,2018,5,17,22,39,25.444,0.4095,-0.4029,-0.4815,0.6618
-0.015,-0.028,0.217,22.5,14.1,-37.5,1023,2018,5,17,22,39,25.467,0.4038,-0.4017,-0.4798,0.6672
0.034,0.048,0.151,15.1,15.2,-38.1,1023,2018,5,17,22,39,25.503,0.3989,-0.4016,-0.4765,0.6726
0.01,0.108,0.157,11.3,13,-31.5,1023,2018,5,17,22,39,25.526,0.3947,-0.4019,-0.4733,0.6772
-0.01,0.116,0.235,0,6.1,-26.1,0,2018,5,17,22,39,25.531,0.3914,-0.403,-0.4704,0.6803
0.008,0.148,0.183,-12.6,1.6,-18.4,0,2018,5,17,22,39,25.546,0.3896,-0.4055,-0.4679,0.6817
0.01,0.179,0.088,-20.2,-4.4,-9.4,0,2018,5,17,22,39,25.564,0.3892,-0.4089,-0.4657,0.6814
0.001,0.187,0.012,-22.9,-9.1,1.8,0,2018,5,17,22,39,25.588,0.3901,-0.4121,-0.4641,0.68
-0.005,0.168,-0.068,-20.3,-12.5,11.7,0,2018,5,17,22,39,25.606,0.3919,-0.415,-0.4641,0.6772
-0.042,0.101,-0.055,-12.6,-16,19.4,0,2018,5,17,22,39,25.624,0.3939,-0.4169,-0.4663,0.6734
-0.086,0.042,-0.205,16.6,12,29.1,0,2018,5,17,22,39,25.648,0.4038,-0.4107,-0.4737,0.6661
-0.116,0.046,-0.191,30.8,10.2,29,0,2018,5,17,22,39,25.667,0.4059,-0.4048,-0.4758,0.6669
-0.173,-0.057,-0.126,37.8,9.6,29.4,0,2018,5,17,22,39,25.69,0.407,-0.3979,-0.4791,0.6681
-0.105,0.032,-0.081,39.8,21.1,27.9,0,2018,5,17,22,39,25.706,0.4081,-0.39,-0.4819,0.67
-0.031,0.063,-0.037,36.7,19.4,23.2,0,2018,5,17,22,39,25.73,0.4096,-0.3816,-0.4843,0.6722
-0.017,0.066,0.004,33.8,7.1,22.8,0,2018,5,17,22,39,25.744,0.4103,-0.3745,-0.4868,0.674
-0.033,0.036,0.03,31.3,-5.8,24.6,0,2018,5,17,22,39,25.767,0.4106,-0.3684,-0.4906,0.6744
-0.024,0.016,0,29.7,1.6,27.9,0,2018,5,17,22,39,25.785,0.4112,-0.3624,-0.495,0.6741
-0.019,-0.05,-0.003,27.9,13,21.4,0,2018,5,17,22,39,25.808,0.4123,-0.3562,-0.4978,0.6746
-0.032,-0.035,0.037,27.1,16.3,18.4,0,2018,5,17,22,39,25.826,0.4133,-0.3502,-0.4991,0.6762
-0.097,-0.068,0.131,24.7,6.8,17.1,0,2018,5,17,22,39,25.85,0.4144,-0.3441,-0.5006,0.6776
-0.147,-0.204,0.114,21.8,4.7,9.8,0,2018,5,17,22,39,25.867,0.4144,-0.3399,-0.5023,0.6784
-0.068,-0.153,0.032,24.4,20.5,-2.2,0,2018,5,17,22,39,25.89,0.4141,-0.3352,-0.5032,0.6803
-0.036,-0.079,0.015,27.2,29.7,-13.6,0,2018,5,17,22,39,25.927,0.4125,-0.3306,-0.5017,0.6846
-0.06,-0.067,0.165,16.7,17.7,-17.2,0,2018,5,17,22,39,25.95,0.4106,-0.3269,-0.4994,0.6892
-0.032,-0.165,0.077,8.2,6.8,-23.2,0,2018,5,17,22,39,25.954,0.4082,-0.3257,-0.4977,0.6924
-0.046,-0.12,0.094,-0.5,11.5,-32.2,0,2018,5,17,22,39,25.968,0.4053,-0.3266,-0.4954,0.6953
0.021,-0.029,0.114,-8.8,14.6,-39.4,1023,2018,5,17,22,39,26.004,0.4026,-0.3286,-0.491,0.699
0.054,0.007,0.184,-16.8,0,-43.5,1023,2018,5,17,22,39,26.026,0.3991,-0.333,-0.4861,0.7023
0.028,0.02,0.185,-24.6,-15.8,-42.8,1023,2018,5,17,22,39,26.031,0.3951,-0.34,-0.483,0.7034
0.062,0.024,0.075,-30,-25.7,-47.4,1023,2018,5,17,22,39,26.047,0.3908,-0.3485,-0.4801,0.7037
0.083,0.053,-0.061,-29.4,-27.4,-47.9,1023,2018,5,17,22,39,26.07,0.3856,-0.3583,-0.478,0.703
0.099,0.169,0.035,-31.6,-41.3,-43.2,1023,2018,5,17,22,39,26.089,0.3799,-0.3688,-0.4768,0.7015
0.113,0.033,-0.009,-29.7,-70.5,-49.3,1023,2018,5,17,22,39,26.112,0.3732,-0.3802,-0.4784,0.6979
0.126,-0.042,-0.075,-25.3,-73,-46.6,1023,2018,5,17,22,39,26.147,0.3642,-0.3929,-0.4824,0.6929
0.156,-0.088,-0.092,-20.3,-38.9,-43.6,1023,2018,5,17,22,39,26.17,0.3567,-0.4031,-0.4846,0.6893
0.122,0,0.11,-19.7,5.4,-35,1023,2018,5,17,22,39,26.175,0.3525,-0.4098,-0.4819,0.6895
0.165,0.02,0.125,-23.3,4.9,-38.8,1023,2018,5,17,22,39,26.192,0.3504,-0.4152,-0.4768,0.6909
0.164,-0.055,0.05,-22.7,19.9,-38.3,1023,2018,5,17,22,39,26.229,0.3481,-0.4208,-0.4709,0.6927
0.214,-0.1,-0.025,-24.6,65.8,-33.5,1023,2018,5,17,22,39,26.253,0.3483,-0.4246,-0.461,0.6969
0.187,0.06,-0.074,-22.7,96,-25,1023,2018,5,17,22,39,26.256,0.3529,-0.4248,-0.4468,0.7037
0.061,0.176,-0.025,-17.2,75.4,-15.1,1023,2018,5,17,22,39,26.269,0.3584,-0.4235,-0.4328,0.7104
0.089,0.178,-0.052,-9.3,42,-9.1,1023,2018,5,17,22,39,26.287,0.3615,-0.4233,-0.4232,0.7148
0.094,0.159,-0.169,2.5,52.1,4.7,1023,2018,5,17,22,39,26.31,0.3646,-0.4212,-0.417,0.718
0.014,0.224,-0.235,12.9,94.9,29.7,1023,2018,5,17,22,39,26.329,0.3715,-0.4145,-0.4093,0.7229
-0.052,0.317,-0.264,25.3,135.8,58.6,1023,2018,5,17,22,39,26.353,0.3842,-0.4013,-0.3985,0.7296
-0.15,0.435,-0.209,41,137.4,80.1,1023,2018,5,17,22,39,26.389,0.4006,-0.3828,-0.3879,0.7364
-0.27,0.454,-0.215,62.6,95,86.2,1023,2018,5,17,22,39,26.413,0.416,-0.3618,-0.382,0.7416
-0.439,0.106,-0.187,77.9,40.5,74.9,0,2018,5,17,22,39,26.417,0.4254,-0.3424,-0.3841,0.7444
-0.565,-0.239,-0.085,70.8,60.4,66.9,0,2018,5,17,22,39,26.434,0.4322,-0.3244,-0.388,0.7465
-0.592,-0.249,-0.068,58.9,105.8,45.8,0,2018,5,17,22,39,26.47,0.4401,-0.3057,-0.3846,0.7515
-0.566,-0.028,-0.033,50.5,82.1,13.6,0,2018,5,17,22,39,26.493,0.4456,-0.2889,-0.3767,0.7588
-0.519,-0.098,-0.032,46.1,3.8,-16.5,0,2018,5,17,22,39,26.496,0.4442,-0.2796,-0.3743,0.7643
-0.363,-0.115,-0.072,43.3,-52.7,-33.6,0,2018,5,17,22,39,26.513,0.4363,-0.2779,-0.3802,0.7666
-0.156,-0.103,-0.046,37.5,-66.9,-39.2,0,2018,5,17,22,39,26.53,0.4255,-0.2798,-0.3897,0.7672
-0.053,-0.039,0.015,29.6,-70.1,-41.6,0,2018,5,17,22,39,26.553,0.4148,-0.2829,-0.3994,0.7669
-0.069,-0.015,0.067,22.7,-99.7,-48.4,0,2018,5,17,22,39,26.571,0.4031,-0.2879,-0.4103,0.7655
-0.023,-0.02,0.084,13.6,-133.6,-46.3,0,2018,5,17,22,39,26.594,0.3896,-0.2966,-0.4249,0.7612
0.123,-0.119,0.059,4.7,-132.4,-45.4,0,2018,5,17,22,39,26.612,0.3759,-0.308,-0.4409,0.7545
0.249,-0.096,0.079,0.3,-111.9,-44.2,0,2018,5,17,22,39,26.635,0.363,-0.3194,-0.4542,0.7481
0.275,-0.035,0.152,-2.8,-105.9,-42.2,0,2018,5,17,22,39,26.652,0.3513,-0.3298,-0.4657,0.7421
0.161,-0.138,0.257,-13.7,-90.5,-35.3,0,2018,5,17,22,39,26.675,0.3407,-0.34,-0.4763,0.7357
0.197,0.099,0.201,-19.7,-41.7,-23.6,0,2018,5,17,22,39,26.713,0.3359,-0.3473,-0.4813,0.7313
0.257,0.104,0.114,-19.8,-67.8,-26.4,0,2018,5,17,22,39,26.735,0.3301,-0.356,-0.4858,0.7267
0.235,0.066,0.066,-17.5,-56.9,-13.6,0,2018,5,17,22,39,26.74,0.3255,-0.3634,-0.4916,0.7212
0.154,0.041,0.103,-16.8,-39.1,-6.6,0,2018,5,17,22,39,26.755,0.3225,-0.3693,-0.4959,0.7166
0.075,-0.031,0.082,-18.6,-12.8,4.2,0,2018,5,17,22,39,26.79,0.3221,-0.3731,-0.4978,0.7135
0.062,0.038,0.076,-19.8,20.5,10,0,2018,5,17,22,39,26.814,0.325,-0.3744,-0.4962,0.7126
0.024,0.145,0.01,-16.2,25.5,16,1023,2018,5,17,22,39,26.818,0.3298,-0.3741,-0.4922,0.7133
-0.02,0.176,-0.066,-7.6,13.4,24.4,1023,2018,5,17,22,39,26.836,0.3346,-0.3727,-0.4904,0.7131
-0.082,0.099,-0.049,1,3.5,26.7,1023,2018,5,17,22,39,26.854,0.3388,-0.3702,-0.4916,0.7115
-0.131,-0.175,-0.054,7.5,1.4,13.8,1023,2018,5,17,22,39,26.878,0.3413,-0.3675,-0.4935,0.7105
-0.141,-0.152,-0.01,9,3.2,3,1023,2018,5,17,22,39,26.895,0.3417,-0.3653,-0.4943,0.7108
-0.112,-0.171,0.086,-0.3,-5.2,-4.7,1023,2018,5,17,22,39,26.919,0.3416,-0.3643,-0.4953,0.7107
-0.072,0.009,0.129,-13.2,11.3,-2.8,1023,2018,5,17,22,39,26.937,0.3424,-0.3649,-0.4943,0.7107
-0.062,0.137,0.056,-19.1,-2.4,-5.9,1023,2018,5,17,22,39,26.955,0.3439,-0.3667,-0.4921,0.7106
-0.043,0.124,-0.06,-16.5,-20,-0.9,1023,2018,5,17,22,39,26.978,0.3445,-0.3696,-0.4925,0.7085
-0.052,0.067,-0.092,-8.9,-10.3,7.1,1023,2018,5,17,22,39,26.996,0.345,-0.372,-0.4946,0.7055
-0.061,0.056,-0.066,-5.6,8.6,10.2,1023,2018,5,17,22,39,27.02,0.347,-0.3719,-0.4955,0.7039
-0.097,0.066,0.031,-8.1,10,9.7,1023,2018,5,17,22,39,27.037,0.3499,-0.3707,-0.4949,0.7036
-0.065,0.087,0.044,-14.7,2.1,10.3,1023,2018,5,17,22,39,27.073,0.3533,-0.37,-0.4939,0.7029
-0.015,0.067,-0.024,-16.2,-9.3,13.8,1023,2018,5,17,22,39,27.096,0.3562,-0.3708,-0.4942,0.7009
0.01,0.052,-0.076,-13.6,-13.9,14.2,1023,2018,5,17,22,39,27.1,0.3582,-0.3726,-0.496,0.6976
0.014,0.019,-0.079,-13.6,-14.2,15,1023,2018,5,17,22,39,27.116,0.3601,-0.3742,-0.4982,0.6942
0.025,-0.009,-0.037,-15,-12.1,14.7,1023,2018,5,17,22,39,27.139,0.3621,-0.3758,-0.5002,0.6909
0.034,0.01,-0.024,-17.4,-18.6,11.7,1023,2018,5,17,22,39,27.159,0.3639,-0.3779,-0.5018,0.6876
0.061,0.008,-0.061,-18.4,-24,12.3,1023,2018,5,17,22,39,27.196,0.3651,-0.3809,-0.5042,0.6835
0.075,-0.048,-0.085,-16.3,-15.6,13.8,1023,2018,5,17,22,39,27.218,0.3663,-0.3841,-0.5065,0.6794
0.07,-0.039,-0.104,-9.4,1.8,14.6,1023,2018,5,17,22,39,27.223,0.3682,-0.3855,-0.5078,0.6766
0.051,0.006,-0.093,0.5,5.8,14.5,0,2018,5,17,22,39,27.257,0.3701,-0.3851,-0.5083,0.6754
0.014,0.023,-0.114,10.8,-1.4,15.2,0,2018,5,17,22,39,27.279,0.371,-0.3836,-0.5098,0.6746
-0.01,-0.015,-0.115,18.9,-1.8,15,0,2018,5,17,22,39,27.284,0.3709,-0.3811,-0.5129,0.6737
-0.052,-0.091,-0.069,24.1,7.4,11.3,0,2018,5,17,22,39,27.298,0.3707,-0.3772,-0.516,0.6737
-0.077,-0.054,-0.024,26.8,19.1,6.8,0,2018,5,17,22,39,27.317,0.3707,-0.3722,-0.5173,0.6755
-0.073,0,-0.016,29.3,13.9,2.6,0,2018,5,17,22,39,27.339,0.3702,-0.3669,-0.5178,0.6782
-0.079,-0.071,-0.025,29.4,8.6,-0.3,0,2018,5,17,22,39,27.359,0.3687,-0.3622,-0.5192,0.6805
-0.025,-0.035,-0.09,30.8,19,-2.7,0,2018,5,17,22,39,27.397,0.3669,-0.3578,-0.5201,0.6832
-0.094,0.243,0.28,25.8,-1.9,-2.5,0,2018,5,17,22,39,27.42,0.3647,-0.3531,-0.5206,0.6864
-0.1,0.075,0.456,-1,-26.4,8.5,0,2018,5,17,22,39,27.422,0.3632,-0.3522,-0.5239,0.6851
-0.034,-0.065,0.283,-16.4,-18.3,0.5,0,2018,5,17,22,39,27.442,0.363,-0.3546,-0.5265,0.682
0.004,0.02,0.106,-21.6,0.1,6.3,0,2018,5,17,22,39,27.46,0.3647,-0.3572,-0.5261,0.68
0.049,-0.053,-0.076,-11.2,43.4,13.8,0,2018,5,17,22,39,27.483,0.369,-0.3569,-0.523,0.6803
0.023,0.112,-0.018,1.6,41.8,9.5,0,2018,5,17,22,39,27.501,0.3732,-0.3537,-0.5181,0.6833
-0.01,0.057,-0.032,7.2,25.7,10.6,0,2018,5,17,22,39,27.524,0.3761,-0.35,-0.5153,0.6858
-0.004,-0.21,-0.124,12.6,17.2,-4.1,0,2018,5,17,22,39,27.539,0.3767,-0.3474,-0.5144,0.6875
0.01,-0.083,-0.209,22.9,18.2,-8.5,0,2018,5,17,22,39,27.557,0.3749,-0.3451,-0.5139,0.69
0,-0.064,-0.206,27.6,20.8,-14.3,0,2018,5,17,22,39,27.581,0.3725,-0.3418,-0.5122,0.6942
-0.052,-0.073,0.066,20.5,2.5,-28.3,0,2018,5,17,22,39,27.617,0.3685,-0.3398,-0.5117,0.6977
-0.05,-0.186,0.094,9.4,-21.9,-38.8,0,2018,5,17,22,39,27.639,0.363,-0.3411,-0.5118,0.6999
-0.03,-0.042,0.1,-3.3,-4.4,-30.5,1023,2018,5,17,22,39,27.644,0.3573,-0.3449,-0.5118,0.7009
0.006,0.037,0.047,-7.1,7.4,-40.6,1023,2018,5,17,22,39,27.661,0.3552,-0.3472,-0.5076,0.7038
-0.011,0.124,0.207,-11,-55.8,-41.4,1023,2018,5,17,22,39,27.684,0.3484,-0.3541,-0.5075,0.7039
0.033,0.03,0.239,-21.6,-76,-37.7,1023,2018,5,17,22,39,27.702,0.3408,-0.3637,-0.5127,0.6989
0.045,0.006,0.161,-28.1,-60.9,-30.7,1023,2018,5,17,22,39,27.726,0.3344,-0.3741,-0.5175,0.693
0.056,0.05,0.138,-31.7,-33.8,-26.3,1023,2018,5,17,22,39,27.743,0.3307,-0.383,-0.5195,0.6884
0.031,0.054,0.118,-33.9,-1.9,-20.3,1023,2018,5,17,22,39,27.766,0.3298,-0.3899,-0.5177,0.6863
0.016,0.163,0.12,-36.3,18.9,-11.6,1023,2018,5,17,22,39,27.782,0.3319,-0.3947,-0.5127,0.6863
0.012,0.248,0.079,-36.4,16.2,-3.1,1023,2018,5,17,22,39,27.799,0.3357,-0.3987,-0.5076,0.6859
0.021,0.201,-0.038,-32.1,5.3,5.7,1023,2018,5,17,22,39,27.822,0.3393,-0.4023,-0.5041,0.6846
0.025,0.121,-0.185,-24.6,20.4,20.7,1023,2018,5,17,22,39,27.858,0.344,-0.4041,-0.5022,0.6827
-0.001,0.094,-0.259,-15.6,34.5,27.1,1023,2018,5,17,22,39,27.882,0.3507,-0.4028,-0.4989,0.6824
-0.021,0.147,-0.162,-9.8,24.9,30.4,1023,2018,5,17,22,39,27.886,0.3573,-0.3998,-0.4964,0.6825
-0.079,0.108,-0.008,-9.8,6,35.4,1023,2018,5,17,22,39,27.904,0.3633,-0.3972,-0.4964,0.6809
-0.095,-0.055,-0.127,-6.8,-3,32.4,1023,2018,5,17,22,39,27.941,0.3685,-0.3952,-0.4985,0.6777
-0.122,-0.166,-0.244,4.2,-1.8,26.1,1023,2018,5,17,22,39,27.965,0.3718,-0.3931,-0.5006,0.6756
-0.125,-0.173,-0.236,18,4,16.4,1023,2018,5,17,22,39,27.968,0.3736,-0.3898,-0.5024,0.6752
-0.098,-0.184,-0.102,27.7,-3.2,1.5,1023,2018,5,17,22,39,27.986,0.3724,-0.3863,-0.5044,0.6763
0.011,-0.031,0.01,28.1,10.2,-0.2,1023,2018,5,17,22,39,28.023,0.3702,-0.3829,-0.5063,0.6781
0.028,0.05,-0.023,28.7,17.2,-2,1023,2018,5,17,22,39,28.046,0.3685,-0.3787,-0.5061,0.6815
-0.05,-0.05,0.131,21.7,-8.6,-10.1,1023,2018,5,17,22,39,28.05,0.3661,-0.3756,-0.5064,0.6843
-0.017,-0.139,0.295,9.1,-15.6,-12.8,0,2018,5,17,22,39,28.071,0.3624,-0.3757,-0.5084,0.6848
0.056,-0.003,0.364,-11.1,14,-11.9,0,2018,5,17,22,39,28.085,0.3607,-0.3773,-0.5076,0.6854
0.091,0.104,0.269,-27.4,33.2,-6.3,0,2018,5,17,22,39,28.103,0.3632,-0.3788,-0.5026,0.6869
0.101,0.121,0.072,-30.2,31.5,1.2,0,2018,5,17,22,39,28.127,0.3677,-0.3805,-0.4966,0.6879
0.021,-0.043,0.177,-21.6,31.6,8.6,0,2018,5,17,22,39,28.163,0.3723,-0.3812,-0.4912,0.6889
0.086,-0.321,-0.019,-6.9,93.6,13.9,0,2018,5,17,22,39,28.186,0.3795,-0.3777,-0.4834,0.6924
0.146,-0.154,-0.324,23.7,164.1,9.8,0,2018,5,17,22,39,28.191,0.3886,-0.3668,-0.4688,0.7031
-0.07,-0.036,-0.151,38.6,197.1,10.2,0,2018,5,17,22,39,28.206,0.3988,-0.3488,-0.4485,0.7197
-0.263,-0.123,0.098,34.1,160.8,-0.8,0,2018,5,17,22,39,28.23,0.4079,-0.3307,-0.428,0.7355
-0.135,-0.026,-0.043,34,62.4,-33.2,0,2018,5,17,22,39,28.248,0.4092,-0.3197,-0.4148,0.7471
-0.17,0.073,-0.089,27.9,-23.2,-43.5,0,2018,5,17,22,39,28.266,0.4028,-0.3174,-0.4128,0.7526
-0.157,0.111,-0.047,23.1,-89.6,-57,0,2018,5,17,22,39,28.289,0.3909,-0.3219,-0.4193,0.7534
0.012,0.221,0.086,13.4,-152.2,-64.6,0,2018,5,17,22,39,28.305,0.3747,-0.3324,-0.4325,0.7496
0.105,0.169,0.033,5.6,-218.6,-71.1,0,2018,5,17,22,39,28.342,0.354,-0.3487,-0.4534,0.7399
0.18,0.069,-0.021,2.7,-246.1,-68.8,0,2018,5,17,22,39,28.365,0.3296,-0.3685,-0.4795,0.7249
0.257,0.051,-0.009,3.3,-239.1,-71.3,0,2018,5,17,22,39,28.369,0.3044,-0.388,-0.5052,0.7081
0.271,0.088,-0.039,9.6,-222,-64.2,0,2018,5,17,22,39,28.388,0.2794,-0.4053,-0.5287,0.6913
0.258,0.092,-0.039,13.4,-188.3,-49.1,0,2018,5,17,22,39,28.425,0.2566,-0.419,-0.5497,0.6754
0.216,-0.05,-0.028,12,-122.8,-30.9,0,2018,5,17,22,39,28.425,0.239,-0.4282,-0.5656,0.6629
0.155,-0.13,0.013,4.9,-28.6,-12.9,0,2018,5,17,22,39,28.449,0.2291,-0.4332,-0.5724,0.6573
0.101,-0.053,0.023,-6.4,69.9,5.7,0,2018,5,17,22,39,28.485,0.2302,-0.4331,-0.5689,0.66
0.1,0.078,-0.009,-17,170.7,33.6,0,2018,5,17,22,39,28.506,0.2424,-0.428,-0.5554,0.6704
0.109,0.25,-0.009,-20.7,266.6,65.2,0,2018,5,17,22,39,28.508,0.266,-0.4163,-0.5314,0.688
-0.026,0.395,-0.017,-15.2,306.1,87.3,1023,2018,5,17,22,39,28.525,0.2983,-0.397,-0.4999,0.7094
-0.196,0.61,-0.109,4.6,258,107.8,1023,2018,5,17,22,39,28.547,0.3303,-0.3738,-0.4697,0.7283
-0.332,0.527,-0.08,29.4,173.5,112.2,1023,2018,5,17,22,39,28.584,0.3568,-0.3498,-0.4503,0.7399
-0.464,0.159,0.052,38.3,117.5,105,1023,2018,5,17,22,39,28.604,0.3765,-0.3279,-0.4404,0.7461
-0.535,-0.049,0.064,36.5,84.4,85.2,1023,2018,5,17,22,39,28.606,0.3916,-0.3092,-0.435,0.7494
-0.656,-0.145,0.069,26.9,58.8,63.6,1023,2018,5,17,22,39,28.644,0.4025,-0.2948,-0.4316,0.7514
-0.631,-0.253,-0.016,13,52.9,42.8,1023,2018,5,17,22,39,28.667,0.4107,-0.2846,-0.4284,0.7527
-0.465,-0.033,-0.087,7.2,43.6,21.4,1023,2018,5,17,22,39,28.671,0.4167,-0.2775,-0.4237,0.7547
-0.318,0.036,-0.045,5.8,-10,2,1023,2018,5,17,22,39,28.691,0.4186,-0.2746,-0.4221,0.7556
-0.382,-0.118,0.072,-1.6,-65.6,-15.7,1023,2018,5,17,22,39,28.712,0.4154,-0.278,-0.4272,0.7533
-0.306,-0.085,0.04,-14.3,-98.9,-25.8,1023,2018,5,17,22,39,28.748,0.4091,-0.2867,-0.4366,0.7481
-0.122,-0.068,-0.103,-23,-123.5,-31.3,1023,2018,5,17,22,39,28.771,0.401,-0.2996,-0.4484,0.7404
-0.006,-0.014,-0.197,-21.4,-138,-38.5,1023,2018,5,17,22,39,28.776,0.3914,-0.3143,-0.4616,0.7312
0.082,0.037,-0.131,-21.5,-170.6,-44.7,1023,2018,5,17,22,39,28.793,0.379,-0.3309,-0.4772,0.7204
0.224,0.012,-0.063,-24.7,-192.7,-39.9,1023,2018,5,17,22,39,28.831,0.3647,-0.3494,-0.4962,0.706
0.434,-0.104,-0.183,-22.9,-165.2,-32.1,1023,2018,5,17,22,39,28.831,0.3509,-0.3671,-0.5148,0.6906
0.513,-0.183,-0.28,-9.2,-93,-21.1,1023,2018,5,17,22,39,28.854,0.3409,-0.3791,-0.5276,0.6793
0.446,-0.055,-0.107,3.1,-36.4,-11.8,1023,2018,5,17,22,39,28.871,0.3351,-0.3844,-0.5336,0.6745
0.392,0.084,0.164,0,-10.7,-0.2,1023,2018,5,17,22,39,28.907,0.3327,-0.3858,-0.5361,0.673
0.332,0.096,0.169,-5.2,7.2,13.6,0,2018,5,17,22,39,28.93,0.3338,-0.3855,-0.5367,0.6721
0.29,0.069,0.033,8.8,18,20.1,0,2018,5,17,22,39,28.935,0.3367,-0.3828,-0.5365,0.6723
0.076,0.071,0.238,18.9,4.3,19.7,0,2018,5,17,22,39,28.951,0.3386,-0.378,-0.5374,0.6734
-0.108,-0.069,0.525,6.6,-6.6,19.4,0,2018,5,17,22,39,28.973,0.3394,-0.3746,-0.5401,0.6727
-0.227,-0.19,0.53,-15.3,-1.3,14.7,0,2018,5,17,22,39,28.992,0.3415,-0.3739,-0.5416,0.6708
-0.161,-0.153,0.232,-21.6,8,6.7,0,2018,5,17,22,39,29.015,0.3449,-0.3749,-0.541,0.6691
-0.148,-0.059,0.22,-25.6,32.2,5.3,0,2018,5,17,22,39,29.034,0.3491,-0.3756,-0.5379,0.669
-0.218,0.019,0.379,-40.5,35.8,-3.3,0,2018,5,17,22,39,29.057,0.3547,-0.377,-0.5316,0.6702
-0.167,0.079,0.367,-61.9,21.7,-1.6,0,2018,5,17,22,39,29.069,0.361,-0.3815,-0.5249,0.6696
-0.142,0.072,0.307,-78.8,11.4,1.7,0,2018,5,17,22,39,29.109,0.3687,-0.3886,-0.5186,0.6662
-0.192,0.066,0.377,-94.9,0.9,0.1,0,2018,5,17,22,39,29.13,0.377,-0.398,-0.5126,0.6607
-0.19,0.018,0.266,-117.5,9,0.5,0,2018,5,17,22,39,29.134,0.3867,-0.4101,-0.505,0.6534
-0.117,0.051,0.164,-133,18.1,6.5,0,2018,5,17,22,39,29.151,0.3992,-0.4232,-0.4949,0.6453
-0.115,0.095,0.125,-137.2,7.6,11.4,0,2018,5,17,22,39,29.175,0.413,-0.4366,-0.4843,0.6357
-0.114,0.041,-0.011,-132.5,-6.7,10,0,2018,5,17,22,39,29.192,0.4257,-0.4504,-0.4754,0.6242
-0.122,-0.067,-0.149,-124.3,-8.5,8.7,0,2018,5,17,22,39,29.216,0.4367,-0.4641,-0.4677,0.6123
-0.18,-0.103,-0.063,-121.6,7.2,9.4,0,2018,5,17,22,39,29.236,0.4475,-0.4764,-0.4591,0.6016
-0.181,-0.043,-0.168,-127.3,17.5,6.2,0,2018,5,17,22,39,29.273,0.4595,-0.4877,-0.4482,0.5915
-0.137,0.021,-0.306,-122.7,4.6,2,0,2018,5,17,22,39,29.296,0.4704,-0.4995,-0.4371,0.5813
-0.122,-0.084,-0.428,-103.9,-1.5,-3.3,0,2018,5,17,22,39,29.3,0.479,-0.511,-0.4274,0.5714
-0.072,-0.051,-0.448,-78.5,-2.2,-8.5,0,2018,5,17,22,39,29.314,0.4848,-0.5209,-0.4191,0.5636
0,0.018,-0.387,-55.2,-2,-12.7,0,2018,5,17,22,39,29.331,0.4883,-0.5287,-0.4125,0.5584
0.059,0.04,-0.438,-29.5,1.2,-14.1,1023,2018,5,17,22,39,29.354,0.4898,-0.534,-0.4073,0.5557
0.022,0.028,-0.396,-4.7,10.2,-11.5,1023,2018,5,17,22,39,29.373,0.49,-0.5364,-0.404,0.5557
-0.013,-0.062,-0.407,18.7,35.8,-8.3,1023,2018,5,17,22,39,29.395,0.4906,-0.5346,-0.4012,0.5589
-0.02,-0.028,-0.328,43.3,51.1,-12.1,1023,2018,5,17,22,39,29.414,0.4915,-0.5286,-0.3981,0.566
0.003,0.056,-0.233,62.2,43.2,-16.1,1023,2018,5,17,22,39,29.437,0.4906,-0.5203,-0.3963,0.5756
-0.01,0.051,-0.223,73.9,27.2,-17.4,1023,2018,5,17,22,39,29.457,0.4872,-0.5119,-0.3967,0.5857
-0.022,0.027,-0.294,88.3,11.7,-16.7,1023,2018,5,17,22,39,29.475,0.4816,-0.5032,-0.3997,0.5957
-0.038,0.004,-0.275,108,-17.2,-21.6,1023,2018,5,17,22,39,29.499,0.4721,-0.4948,-0.4064,0.6058
-0.037,-0.02,-0.001,107.4,-27.8,-20.1,1023,2018,5,17,22,39,29.516,0.4599,-0.4868,-0.4163,0.6148
0.039,-0.081,-0.001,98.9,-11.5,-21.9,1023,2018,5,17,22,39,29.539,0.4486,-0.4788,-0.4248,0.6236
0.041,0.021,-0.139,101,-13.5,-24.7,1023,2018,5,17,22,39,29.575,0.4374,-0.471,-0.4316,0.6327
0.016,0.119,-0.021,104.1,-33.5,-20.8,1023,2018,5,17,22,39,29.598,0.4248,-0.4634,-0.4403,0.6409
0.039,0.048,0.089,97,-39.4,-18.6,1023,2018,5,17,22,39,29.603,0.4119,-0.4561,-0.4498,0.6479
0.039,0.045,0.033,93.5,-41.9,-14.9,1023,2018,5,17,22,39,29.617,0.3993,-0.4494,-0.4591,0.654
0.021,0.117,-0.036,96.9,-56.6,-5.4,1023,2018,5,17,22,39,29.634,0.3865,-0.4429,-0.4701,0.6582
-0.12,0.041,0.198,90.8,-63.1,4.4,1023,2018,5,17,22,39,29.657,0.3736,-0.436,-0.4835,0.6606
-0.115,-0.065,0.267,67.5,-13,14,1023,2018,5,17,22,39,29.676,0.3649,-0.4288,-0.4942,0.6623
-0.055,0.071,0.163,47.1,45.8,21.3,1023,2018,5,17,22,39,29.695,0.3636,-0.4194,-0.4966,0.6672
-0.042,0.252,0.078,40.3,50.9,32.2,1023,2018,5,17,22,39,29.734,0.3671,-0.4085,-0.4947,0.6733
-0.083,0.312,0.024,43.9,9.9,46,1023,2018,5,17,22,39,29.758,0.3711,-0.3972,-0.4959,0.6771
-0.186,0.156,0.1,41.9,-29.9,53.8,0,2018,5,17,22,39,29.762,0.3724,-0.3883,-0.504,0.6755
-0.248,-0.105,0.103,32.9,-22.3,52.8,0,2018,5,17,22,39,29.777,0.3734,-0.381,-0.5136,0.6719
-0.216,-0.198,0.004,23.3,23.2,47.9,0,2018,5,17,22,39,29.8,0.3767,-0.3732,-0.5189,0.6703
-0.114,-0.005,-0.09,27.4,56.6,44.5,0,2018,5,17,22,39,29.838,0.3829,-0.363,-0.5184,0.6728
-0.141,0.064,-0.008,34.9,33,31.4,0,2018,5,17,22,39,29.861,0.3879,-0.3519,-0.5181,0.6761
-0.121,-0.038,0.04,35.7,3,22.7,0,2018,5,17,22,39,29.866,0.3893,-0.3433,-0.521,0.6774
-0.126,-0.237,0.078,29.4,13.6,15.6,0,2018,5,17,22,39,29.88,0.3896,-0.3363,-0.5244,0.6782
-0.055,-0.187,0.079,25.5,48.5,10.7,0,2018,5,17,22,39,29.896,0.3911,-0.329,-0.5236,0.6816
-0.027,-0.07,0.126,22.7,53.4,2.8,0,2018,5,17,22,39,29.919,0.3932,-0.3211,-0.5192,0.6874
-0.072,-0.08,0.156,19.7,36.6,-5,0,2018,5,17,22,39,29.956,0.3942,-0.3146,-0.515,0.693
-0.065,-0.111,0.108,15.5,43.1,-7.5,0,2018,5,17,22,39,29.978,0.3945,-0.3094,-0.5114,0.6979
-0.075,-0.097,0.19,6.3,51.1,-15.7,0,2018,5,17,22,39,29.983,0.3953,-0.3048,-0.5053,0.7038
-0.086,-0.031,0.278,-3.4,26,-25.7,0,2018,5,17,22,39,30,0.3948,-0.3034,-0.4996,0.7087
-0.044,-0.073,0.234,-12,-5.6,-40.1,0,2018,5,17,22,39,30.023,0.3919,-0.3066,-0.4963,0.7113
0.067,0.079,0.168,-16.3,-40.6,-44.7,0,2018,5,17,22,39,30.04,0.3865,-0.3137,-0.4961,0.7113
0.116,0.037,0.028,-17.7,-63.4,-45.2,0,2018,5,17,22,39,30.063,0.3792,-0.3235,-0.4989,0.7089
0.153,0.013,-0.02,-15.8,-83.3,-49.6,0,2018,5,17,22,39,30.079,0.3705,-0.3347,-0.5039,0.7047
0.155,-0.013,-0.022,-11.9,-101.3,-53.5,0,2018,5,17,22,39,30.116,0.3595,-0.347,-0.5116,0.6989
0.163,0.023,0.019,-12.8,-95.3,-50.2,0,2018,5,17,22,39,30.14,0.3477,-0.3598,-0.5198,0.6924
0.13,0.055,0.013,-16.9,-73.1,-45.7,0,2018,5,17,22,39,30.143,0.3374,-0.3713,-0.5257,0.6868
0.104,0.135,0.003,-20.6,-60.5,-40,0,2018,5,17,22,39,30.16,0.3292,-0.3819,-0.529,0.6825
0.073,0.148,-0.005,-22.1,-54.5,-32.1,0,2018,5,17,22,39,30.183,0.3223,-0.3917,-0.5317,0.6781
0.057,0.075,0.001,-28,-29.2,-18.2,1023,2018,5,17,22,39,30.223,0.3182,-0.3997,-0.5336,0.6738
0.084,0.168,-0.039,-33,13.2,-1.6,1023,2018,5,17,22,39,30.225,0.319,-0.405,-0.5318,0.6717
0.083,0.285,-0.1,-31.4,24.1,13.5,1023,2018,5,17,22,39,30.242,0.3244,-0.4071,-0.5278,0.671
0.004,0.276,-0.09,-21.9,8.9,29.9,1023,2018,5,17,22,39,30.264,0.3305,-0.4073,-0.5259,0.6694
-0.051,0.197,-0.042,-18.3,9.5,47.1,1023,2018,5,17,22,39,30.282,0.3372,-0.4058,-0.5269,0.6662
-0.101,0.129,-0.039,-15.8,35.6,62.9,1023,2018,5,17,22,39,30.305,0.3471,-0.4009,-0.5278,0.6633
-0.191,0.111,-0.083,-6.9,51,68.9,1023,2018,5,17,22,39,30.321,0.3597,-0.3928,-0.527,0.6622
-0.37,0.006,-0.039,2.6,21.3,56.6,1023,2018,5,17,22,39,30.34,0.3697,-0.3847,-0.5267,0.6616
-0.41,-0.275,-0.079,7.6,2.2,38.9,1023,2018,5,17,22,39,30.363,0.3752,-0.3793,-0.5293,0.6596
-0.328,-0.364,-0.165,16.6,19.7,18.3,1023,2018,5,17,22,39,30.399,0.378,-0.3745,-0.5308,0.6595
-0.238,-0.195,-0.202,23.2,32.3,3.4,1023,2018,5,17,22,39,30.422,0.379,-0.3695,-0.5296,0.6627
-0.191,-0.099,-0.064,23.7,25.3,-8.6,1023,2018,5,17,22,39,30.426,0.3783,-0.3649,-0.5275,0.6673
-0.116,-0.088,0.019,17.5,14,-15.1,1023,2018,5,17,22,39,30.441,0.3766,-0.3618,-0.5265,0.6708
0.03,-0.011,-0.014,13.4,5.8,-20.4,1023,2018,5,17,22,39,30.463,0.3739,-0.3607,-0.5256,0.6736
0.106,0.063,-0.027,12.5,-3.3,-21.1,1023,2018,5,17,22,39,30.501,0.3699,-0.3615,-0.5247,0.676
0.132,0.14,-0.059,16.6,-7.8,-21,1023,2018,5,17,22,39,30.523,0.3652,-0.3626,-0.5249,0.6778
0.098,0.178,0.166,7.4,-12.8,-15,1023,2018,5,17,22,39,30.528,0.3611,-0.363,-0.5257,0.6792
0.067,0.256,0.263,-9.3,-19.4,2.5,1023,2018,5,17,22,39,30.546,0.3594,-0.365,-0.5272,0.6779
0.095,0.155,0.092,-18.1,-12.4,14.3,1023,2018,5,17,22,39,30.583,0.3609,-0.3668,-0.529,0.6746
0.038,-0.053,-0.009,-13.3,-0.9,17.8,1023,2018,5,17,22,39,30.607,0.3641,-0.3676,-0.5293,0.6723
-0.047,-0.223,-0.023,-7.5,-10.5,10.3,1023,2018,5,17,22,39,30.61,0.3663,-0.3677,-0.5307,0.6699
-0.029,-0.106,-0.019,-5.4,9.6,11.5,0,2018,5,17,22,39,30.63,0.3682,-0.3674,-0.5318,0.6681
0.006,-0.031,-0.021,-3.5,19.4,6.4,0,2018,5,17,22,39,30.646,0.3708,-0.3661,-0.5304,0.6686
0.005,-0.003,0.009,1.9,11.6,1.1,0,2018,5,17,22,39,30.662,0.3722,-0.3648,-0.5289,0.6697
-0.032,0.024,0.211,-7.1,7.7,1.6,0,2018,5,17,22,39,30.686,0.3732,-0.364,-0.5276,0.6706
-0.131,0.004,0.236,-27.3,13,1.3,0,2018,5,17,22,39,30.723,0.3756,-0.3651,-0.5254,0.6703
-0.203,0.03,0.341,-55.4,20,5,0,2018,5,17,22,39,30.746,0.381,-0.3684,-0.5209,0.669
-0.131,0.123,0.379,-77.1,8.2,8.2,0,2018,5,17,22,39,30.75,0.3888,-0.3746,-0.5151,0.6655
-0.151,0.198,0.459,-95.1,-9.9,11.2,0,2018,5,17,22,39,30.767,0.3976,-0.3839,-0.5099,0.6591
-0.184,0.188,0.369,-112.1,-24,16.5,0,2018,5,17,22,39,30.785,0.4072,-0.3958,-0.5057,0.6493
-0.158,0.053,0.135,-122.8,-24.1,22.6,0,2018,5,17,22,39,30.807,0.4179,-0.4093,-0.5015,0.6373
-0.107,0.004,0.061,-125.2,-6.7,28.5,0,2018,5,17,22,39,30.846,0.4308,-0.4217,-0.4957,0.625
-0.1,0.047,0.088,-124.4,-0.6,29.3,0,2018,5,17,22,39,30.846,0.4449,-0.4324,-0.4885,0.6134
-0.113,0.037,-0.015,-122.1,-10.8,27.5,0,2018,5,17,22,39,30.87,0.4583,-0.4433,-0.4816,0.6011
-0.154,-0.125,-0.169,-119.1,-10.4,28.6,0,2018,5,17,22,39,30.886,0.4703,-0.4544,-0.4755,0.5882
-0.117,-0.21,-0.335,-112,17.4,25,0,2018,5,17,22,39,30.924,0.4829,-0.4638,-0.4676,0.5769
-0.006,-0.07,-0.41,-95.3,27.7,15,0,2018,5,17,22,39,30.947,0.4954,-0.4705,-0.4577,0.5688
0.031,-0.005,-0.452,-69.1,8.5,4.8,0,2018,5,17,22,39,30.952,0.5044,-0.4763,-0.4494,0.5627
0.023,-0.019,-0.443,-43.8,-10.5,-0.8,0,2018,5,17,22,39,30.966,0.5086,-0.4819,-0.4448,0.5577
0.041,-0.045,-0.397,-24.7,-8.5,-3.7,0,2018,5,17,22,39,30.988,0.5099,-0.4866,-0.4424,0.5544
0.043,0.005,-0.376,-10.8,1.3,-2.8,0,2018,5,17,22,39,31.006,0.5106,-0.489,-0.4405,0.5531
0.026,0.012,-0.351,3.1,-8.3,-2,0,2018,5,17,22,39,31.028,0.5103,-0.4899,-0.44,0.5529
-0.011,-0.028,-0.305,19.1,-19.7,-2.9,0,2018,5,17,22,39,31.067,0.5079,-0.4906,-0.4421,0.553
-0.009,-0.053,-0.268,35.3,-17.7,-7.1,1023,2018,5,17,22,39,31.067,0.5035,-0.4902,-0.4458,0.5543
-0.051,-0.071,-0.212,49.2,-8.4,-11.3,1023,2018,5,17,22,39,31.09,0.498,-0.4881,-0.4497,0.5579
-0.07,-0.069,-0.213,62.7,-6.4,-16.4,1023,2018,5,17,22,39,31.105,0.4916,-0.4846,-0.4537,0.5634
-0.073,-0.078,-0.187,79.1,-12.9,-22.3,1023,2018,5,17,22,39,31.143,0.4831,-0.4801,-0.4588,0.5704
-0.099,-0.077,0.016,86.9,-19.8,-30.4,1023,2018,5,17,22,39,31.166,0.4723,-0.4751,-0.4658,0.578
-0.013,-0.03,0.039,86.2,-13.1,-34.7,1023,2018,5,17,22,39,31.171,0.461,-0.4699,-0.4718,0.5864
0.049,0.051,-0.089,89.2,-19.9,-32.6,1023,2018,5,17,22,39,31.19,0.4489,-0.4652,-0.4774,0.595
0.022,0.01,-0.196,101.7,-49.2,-32.4,1023,2018,5,17,22,39,31.208,0.4347,-0.4606,-0.4858,0.6022
-0.07,-0.094,0.103,102.7,-61.9,-31.4,1023,2018,5,17,22,39,31.232,0.4175,-0.4569,-0.4977,0.6075
-0.014,-0.065,0.353,81.4,-23.8,-28.6,1023,2018,5,17,22,39,31.249,0.4027,-0.4528,-0.5067,0.6131
0.098,0.127,0.25,54.5,8.6,-26,1023,2018,5,17,22,39,31.273,0.3935,-0.4483,-0.5097,0.6199
0.109,0.098,0.09,38.3,2.9,-21.3,1023,2018,5,17,22,39,31.289,0.3876,-0.4449,-0.5099,0.6258
0.09,0.103,0.047,37.5,-19.9,-17.3,1023,2018,5,17,22,39,31.314,0.3811,-0.4435,-0.5112,0.6297
0.084,0.175,0.072,40.2,-30.5,-0.8,1023,2018,5,17,22,39,31.33,0.3743,-0.442,-0.5156,0.6313
0.042,0.151,0.12,40.1,-27.8,13.6,1023,2018,5,17,22,39,31.353,0.369,-0.4388,-0.5223,0.6311
-0.033,0.122,0.188,33.4,-2.8,27.5,1023,2018,5,17,22,39,31.391,0.3666,-0.4339,-0.528,0.6311
-0.042,0.108,0.124,23.5,52.4,42.4,1023,2018,5,17,22,39,31.414,0.3697,-0.4262,-0.5296,0.6333
-0.078,0.11,0.014,22.7,103.8,54.1,1023,2018,5,17,22,39,31.418,0.3797,-0.4132,-0.5251,0.6396
-0.24,0.064,0.05,28.9,92.8,51.9,1023,2018,5,17,22,39,31.432,0.3912,-0.3979,-0.5192,0.6471
-0.283,0.165,-0.01,39,41.9,50.5,1023,2018,5,17,22,39,31.469,0.3984,-0.3849,-0.5175,0.6519
-0.343,-0.049,0.02,37.6,5.8,35.8,0,2018,5,17,22,39,31.492,0.4014,-0.3749,-0.521,0.6532
-0.34,-0.333,-0.045,33.7,18.6,10.8,0,2018,5,17,22,39,31.496,0.4012,-0.3682,-0.5239,0.6548
-0.266,-0.192,-0.1,29.3,39,-4,0,2018,5,17,22,39,31.514,0.4005,-0.3623,-0.5227,0.6595
-0.212,-0.061,0.032,23.8,20.7,-8.9,0,2018,5,17,22,39,31.531,0.3994,-0.3573,-0.5204,0.6647
-0.162,-0.121,-0.005,22.3,-2.5,-16.4,0,2018,5,17,22,39,31.554,0.3964,-0.3552,-0.5206,0.6674
-0.099,-0.202,0.006,19.9,-3.1,-31.7,0,2018,5,17,22,39,31.574,0.392,-0.3545,-0.5219,0.6694
-0.123,-0.234,0.1,10.4,6.8,-45.3,0,2018,5,17,22,39,31.594,0.3866,-0.3554,-0.5209,0.6729
-0.057,-0.1,0.145,-2.7,-4.4,-53.4,0,2018,5,17,22,39,31.616,0.3812,-0.3584,-0.5177,0.6767
0.131,-0.035,0.156,-5.3,-32.7,-65,0,2018,5,17,22,39,31.633,0.3737,-0.3652,-0.5154,0.6791
0.247,-0.04,0.078,-4.9,-47.8,-71.2,0,2018,5,17,22,39,31.651,0.3635,-0.3746,-0.5157,0.6793
0.309,-0.02,0.011,2.7,-63.9,-79.7,0,2018,5,17,22,39,31.674,0.351,-0.3849,-0.5174,0.6788
0.349,-0.053,0.089,11.9,-80.6,-82.4,0,2018,5,17,22,39,31.691,0.3354,-0.3958,-0.5212,0.6775
0.404,-0.106,0.18,14.4,-72.9,-86.4,0,2018,5,17,22,39,31.712,0.3188,-0.4064,-0.5254,0.676
0.452,-0.13,0.061,16.5,-44.6,-87.2,0,2018,5,17,22,39,31.751,0.3028,-0.4158,-0.5269,0.6765
0.412,-0.116,0.078,17.1,-13.1,-82.8,0,2018,5,17,22,39,31.775,0.289,-0.4231,-0.525,0.6795
0.317,-0.015,0.133,13,20.6,-72.2,0,2018,5,17,22,39,31.779,0.2788,-0.428,-0.5194,0.6849
0.223,0.121,0.12,5.1,41.8,-58,0,2018,5,17,22,39,31.796,0.2726,-0.4312,-0.511,0.6917
0.09,0.24,0.074,-4.3,48.3,-38.6,0,2018,5,17,22,39,31.832,0.2702,-0.4333,-0.5018,0.6981
0.015,0.445,0.03,-11.8,39.3,-9.7,0,2018,5,17,22,39,31.855,0.2713,-0.4344,-0.4939,0.7026
-0.1,0.418,0.036,-21.1,31.8,21.1,0,2018,5,17,22,39,31.86,0.2761,-0.4343,-0.4895,0.7038
-0.18,0.239,-0.054,-29.9,75.7,53,0,2018,5,17,22,39,31.873,0.2872,-0.4312,-0.485,0.7044
