ax,ay,az,dpitch,droll,dyaw,heart,time_1,time_2,time_3,time_4,time_5,time_6,w,x,y,z
0.088,0.093,-0.351,38.7,90.7,161.8,0,2018,5,17,21,2,59.831,0.3752,-0.3383,-0.2584,0.8233
0.023,-0.19,-0.235,57.7,85.1,153.4,0,2018,5,17,21,2,59.853,0.4008,-0.3182,-0.2582,0.8193
-0.009,-0.061,-0.107,64,58.1,134.3,0,2018,5,17,21,2,59.871,0.4227,-0.2975,-0.2596,0.8156
0.056,0.056,-0.187,76.5,-12,116.5,0,2018,5,17,21,2,59.887,0.4381,-0.2805,-0.2681,0.8107
0.006,0.037,-0.223,93.5,-99.3,103.9,0,2018,5,17,21,2,59.923,0.4469,-0.2677,-0.288,0.8034
-0.053,-0.443,-0.044,101.3,-179.5,87.4,0,2018,5,17,21,2,59.946,0.4482,-0.26,-0.3206,0.7928
-0.045,-0.952,0.33,68.8,-113.9,58.4,0,2018,5,17,21,2,59.951,0.4463,-0.2561,-0.352,0.7818
-0.036,-0.577,0.413,30.7,-37.4,30.8,0,2018,5,17,21,2,59.967,0.4461,-0.2519,-0.368,0.7758
0.023,-0.054,0.406,6.6,-5.4,20,1023,2018,5,17,21,2,59.99,0.4474,-0.2485,-0.3729,0.7739
0.139,0.055,0.267,-14.5,-22,21.3,1023,2018,5,17,21,3,0.026,0.4502,-0.2488,-0.375,0.7711
0.245,-0.131,0.168,-21.8,-46.2,13.7,1023,2018,5,17,21,3,0.048,0.4521,-0.2532,-0.3799,0.7661
0.177,-0.183,0.219,-38.1,-20.6,9.2,1023,2018,5,17,21,3,0.051,0.454,-0.259,-0.3827,0.7617
0.023,-0.08,0.206,-52.8,43.4,-6.4,1023,2018,5,17,21,3,0.088,0.4582,-0.264,-0.3767,0.7604
-0.053,0.431,0.026,-34,-48.3,-11.5,1023,2018,5,17,21,3,0.111,0.4599,-0.2699,-0.3721,0.7596
-0.076,0.625,-0.139,-9.2,-168.8,2.8,1023,2018,5,17,21,3,0.115,0.4551,-0.2816,-0.3851,0.7517
0.006,0.223,-0.315,11.8,-242.6,21.2,1023,2018,5,17,21,3,0.131,0.4458,-0.2975,-0.4141,0.7356
0.062,-0.048,-0.2,22.4,-226.6,19.7,0,2018,5,17,21,3,0.154,0.4344,-0.3116,-0.4469,0.7171
0.032,-0.273,-0.058,19.9,-148.2,16.8,0,2018,5,17,21,3,0.17,0.424,-0.3221,-0.4738,0.7013
0.041,-0.078,-0.001,15.3,-74.2,16.1,0,2018,5,17,21,3,0.188,0.4182,-0.3267,-0.4889,0.6922
0.085,0.031,-0.06,17.3,-63.6,23.8,0,2018,5,17,21,3,0.211,0.415,-0.3284,-0.4992,0.6859
0.072,-0.217,-0.169,26.4,-31.1,19.4,0,2018,5,17,21,3,0.231,0.4127,-0.3275,-0.5084,0.681
0.155,-0.137,-0.168,34.7,8.9,8.5,0,2018,5,17,21,3,0.25,0.4113,-0.323,-0.5122,0.6811
0.185,-0.027,-0.166,47.4,15.7,0.3,0,2018,5,17,21,3,0.272,0.4087,-0.3165,-0.5141,0.6843
0.216,-0.004,-0.117,58.1,9.6,-6.2,0,2018,5,17,21,3,0.309,0.4043,-0.3092,-0.5165,0.6885
0.164,0.006,-0.087,69.7,-19.4,-8.7,0,2018,5,17,21,3,0.333,0.3973,-0.3023,-0.5216,0.6917
0.136,-0.078,-0.07,79.4,-20.5,-13.4,0,2018,5,17,21,3,0.338,0.3879,-0.2957,-0.529,0.6943
0.09,-0.184,-0.099,87.1,-8.7,-19.9,0,2018,5,17,21,3,0.355,0.3773,-0.2881,-0.5359,0.6981
0.027,-0.092,-0.005,90.5,19.6,-26.5,0,2018,5,17,21,3,0.371,0.3659,-0.2793,-0.5399,0.7046
0.022,0.03,0.1,90.6,16.8,-30.2,0,2018,5,17,21,3,0.39,0.3547,-0.2693,-0.5413,0.713
0.007,0.02,0.118,85.7,0.8,-28.2,0,2018,5,17,21,3,0.413,0.3432,-0.2604,-0.5438,0.7201
0.006,0.035,0.066,80.2,1.9,-26.2,0,2018,5,17,21,3,0.431,0.332,-0.2522,-0.5467,0.7261
-0.002,0.001,0.027,72.3,21.6,-25.4,0,2018,5,17,21,3,0.454,0.3219,-0.244,-0.5484,0.732
0.011,0.138,0.061,65.6,33.1,-24.4,0,2018,5,17,21,3,0.472,0.3135,-0.2357,-0.5466,0.7397
0.003,0.221,0.084,61.4,21.2,-20.3,0,2018,5,17,21,3,0.511,0.3059,-0.2277,-0.5446,0.7469
-0.006,0.347,0.095,60.5,-27.2,-13.4,0,2018,5,17,21,3,0.534,0.2979,-0.2212,-0.5473,0.7501
-0.095,0.077,0.16,53.2,-59.3,-9.4,0,2018,5,17,21,3,0.539,0.2891,-0.2171,-0.5562,0.7481
-0.129,-0.004,0.003,45.7,-81.7,-8.9,0,2018,5,17,21,3,0.555,0.2806,-0.2147,-0.5675,0.7436
-0.088,-0.128,-0.073,44,-85.2,-5.9,0,2018,5,17,21,3,0.571,0.2724,-0.2134,-0.5812,0.7364
-0.102,-0.077,-0.096,45.4,-55.1,-5.2,1023,2018,5,17,21,3,0.609,0.2645,-0.2113,-0.5925,0.7308
-0.138,-0.042,-0.145,53.8,-19.1,-2.4,1023,2018,5,17,21,3,0.632,0.2573,-0.2071,-0.5997,0.7287
-0.201,0.223,0.237,43.1,-21.2,1.5,1023,2018,5,17,21,3,0.637,0.2516,-0.2009,-0.6037,0.7292
-0.151,-0.02,0.213,29.9,-54.9,0.9,1023,2018,5,17,21,3,0.655,0.2462,-0.198,-0.6111,0.7256
-0.108,-0.055,0.148,12.3,-28.7,3.9,1023,2018,5,17,21,3,0.673,0.243,-0.1967,-0.6175,0.7216
-0.053,-0.001,0.049,2,-12.9,5.2,1023,2018,5,17,21,3,0.692,0.2426,-0.1956,-0.6202,0.7198
-0.008,-0.036,-0.128,1.3,-11.9,7.9,1023,2018,5,17,21,3,0.715,0.2429,-0.1951,-0.6225,0.7178
0.035,-0.097,-0.082,-0.4,12.4,8.4,1023,2018,5,17,21,3,0.752,0.2436,-0.1945,-0.6236,0.7168
0.02,-0.146,0.175,-13,49,6.3,0,2018,5,17,21,3,0.775,0.246,-0.1935,-0.6194,0.7198
-0.067,-0.181,0.123,-29.1,112.7,2.2,0,2018,5,17,21,3,0.78,0.2522,-0.1915,-0.6071,0.7287
0.028,-0.075,-0.02,-35.6,120.2,-5,0,2018,5,17,21,3,0.796,0.2596,-0.1905,-0.5897,0.7406
0.069,-0.042,-0.073,-31.9,96.5,-8.4,0,2018,5,17,21,3,0.819,0.2652,-0.1914,-0.5743,0.7503
0.069,-0.161,-0.048,-28.4,108.3,-12.8,0,2018,5,17,21,3,0.835,0.2697,-0.1923,-0.56,0.7593
0.043,-0.045,-0.039,-28.4,125.4,-19.6,0,2018,5,17,21,3,0.857,0.274,-0.1922,-0.5423,0.7705
0.03,0.198,-0.074,-22.9,74.8,-24.8,0,2018,5,17,21,3,0.876,0.2766,-0.1931,-0.5261,0.7806
0.051,0.087,-0.081,-13.9,11.1,-27,0,2018,5,17,21,3,0.894,0.2754,-0.1967,-0.5194,0.7845
0.039,0.151,-0.025,-10.8,6,-23,0,2018,5,17,21,3,0.917,0.2729,-0.2004,-0.5172,0.7859
0.082,0.255,-0.5,-1.6,-1.4,-17.8,0,2018,5,17,21,3,0.937,0.2705,-0.2036,-0.5156,0.787
0.032,0.041,0.084,-11.4,150.6,3.5,0,2018,5,17,21,3,0.954,0.272,-0.2007,-0.5055,0.7937
-0.108,0.23,0.162,-24.8,177.3,14.8,0,2018,5,17,21,3,0.977,0.2809,-0.1944,-0.4809,0.8074
-0.055,0.256,0.193,-37.8,186,21.2,0,2018,5,17,21,3,0.995,0.2923,-0.1879,-0.4534,0.8207
-0.108,0.504,0.251,-39.3,75.5,23.2,0,2018,5,17,21,3,1.018,0.303,-0.1846,-0.4323,0.8289
-0.1,0.325,0.187,-36.2,-74.8,26.1,0,2018,5,17,21,3,1.036,0.3092,-0.1884,-0.4322,0.8258
-0.091,-0.09,-0.027,-33.4,-146.2,23,0,2018,5,17,21,3,1.059,0.3113,-0.1976,-0.4489,0.8138
-0.067,-0.191,-0.063,-37.9,-114.9,21.6,0,2018,5,17,21,3,1.077,0.3124,-0.2082,-0.4671,0.8005
-0.065,-0.109,-0.021,-41.3,-71.2,17.2,0,2018,5,17,21,3,1.095,0.3151,-0.2167,-0.4783,0.7904
-0.038,-0.014,0.098,-48.1,-53.1,13.5,0,2018,5,17,21,3,1.118,0.3189,-0.2245,-0.4844,0.783
-0.013,-0.045,0.031,-53.4,-28.4,13.9,0,2018,5,17,21,3,1.138,0.3235,-0.2321,-0.4877,0.7768
-0.045,0.047,-0.019,-52.8,-23.7,17.1,0,2018,5,17,21,3,1.155,0.3293,-0.2393,-0.4885,0.7717
-0.021,-0.026,-0.126,-46.7,-17.2,19.5,1023,2018,5,17,21,3,1.178,0.3352,-0.2454,-0.4898,0.7664
-0.013,-0.164,-0.167,-38.8,6.7,20.1,1023,2018,5,17,21,3,1.196,0.3411,-0.2498,-0.4898,0.7623
-0.066,-0.202,-0.049,-38.6,54.4,21.1,1023,2018,5,17,21,3,1.219,0.3483,-0.251,-0.4849,0.7618
-0.092,-0.172,0.026,-48.7,124.9,22.6,1023,2018,5,17,21,3,1.237,0.359,-0.2489,-0.4719,0.7657
-0.048,-0.076,-0.017,-55.4,160.2,24.9,1023,2018,5,17,21,3,1.26,0.3729,-0.2442,-0.4508,0.7733
-0.077,0.01,-0.062,-52.9,173.7,28.9,1023,2018,5,17,21,3,1.278,0.3879,-0.2381,-0.4259,0.7819
0.011,-0.002,-0.078,-49.1,190.5,33.7,1023,2018,5,17,21,3,1.301,0.4032,-0.2303,-0.3993,0.7904
0.01,0.064,-0.165,-40.2,181.2,39.7,0,2018,5,17,21,3,1.318,0.4186,-0.221,-0.3718,0.7985
0.059,-0.004,-0.234,-24.7,158.6,36.3,0,2018,5,17,21,3,1.354,0.4321,-0.2108,-0.3479,0.8047
0.109,-0.025,-0.276,-4.3,123.8,33.1,0,2018,5,17,21,3,1.377,0.4429,-0.2,-0.3282,0.8099
0.1,-0.014,-0.266,9.3,120.2,25,0,2018,5,17,21,3,1.382,0.4509,-0.1884,-0.3126,0.8144
0.077,0.169,-0.281,26.2,74.1,18.3,0,2018,5,17,21,3,1.4,0.4563,-0.1767,-0.3004,0.8187
0.121,0.225,-0.241,46.7,-1.6,10.4,0,2018,5,17,21,3,1.42,0.4574,-0.1679,-0.2986,0.8205
0.156,0.223,-0.223,66.2,-78.4,6.2,0,2018,5,17,21,3,1.437,0.4543,-0.1627,-0.3093,0.8193
0.18,0.142,-0.216,80.1,-148,5.9,0,2018,5,17,21,3,1.46,0.4478,-0.1613,-0.3315,0.8145
0.182,-0.103,-0.12,82.7,-177.6,1.3,0,2018,5,17,21,3,1.498,0.4387,-0.1626,-0.362,0.8061
0.163,-0.1,-0.104,81,-170.1,-5.8,0,2018,5,17,21,3,1.521,0.428,-0.1643,-0.3921,0.7974
0.153,-0.011,-0.133,85.6,-187,-8.3,0,2018,5,17,21,3,1.526,0.4161,-0.1667,-0.422,0.7879
0.132,-0.277,-0.248,85.1,-185.1,-10.7,0,2018,5,17,21,3,1.539,0.4026,-0.1698,-0.4548,0.7759
0.189,-0.147,-0.223,83.8,-104.5,-13.4,0,2018,5,17,21,3,1.557,0.3898,-0.1692,-0.4793,0.7678
0.114,-0.163,-0.074,86.5,-63.4,-14.1,0,2018,5,17,21,3,1.58,0.3782,-0.1644,-0.4961,0.764
0.017,-0.099,0.105,79.2,-13.6,-15.1,0,2018,5,17,21,3,1.599,0.3676,-0.1572,-0.5059,0.7642
-0.03,0.021,0.223,66.5,3.9,-15.6,0,2018,5,17,21,3,1.618,0.3592,-0.1486,-0.5096,0.7675
-0.057,0.159,0.302,59,-19.9,-12,0,2018,5,17,21,3,1.641,0.3515,-0.1419,-0.5139,0.7694
-0.209,0.204,0.355,45.2,-60.9,-7.9,0,2018,5,17,21,3,1.677,0.3445,-0.1377,-0.5218,0.768
-0.188,0.035,0.303,37.3,-133.6,-7.6,0,2018,5,17,21,3,1.7,0.3373,-0.139,-0.5377,0.76
-0.259,-0.886,0.494,13.2,-75.8,-11.6,0,2018,5,17,21,3,1.704,0.3308,-0.1436,-0.5556,0.7491
-0.168,-0.345,0.155,-2.6,33.1,-18.2,0,2018,5,17,21,3,1.722,0.3286,-0.1446,-0.5556,0.7499
-0.224,-0.121,0.029,-5.1,66.8,-26.2,1023,2018,5,17,21,3,1.74,0.3273,-0.1439,-0.5486,0.7556
-0.047,0.029,0.155,-9.7,69.8,-32.4,1023,2018,5,17,21,3,1.757,0.3258,-0.1436,-0.5379,0.764
-0.032,0.143,0.178,-16.5,84.6,-22.7,1023,2018,5,17,21,3,1.781,0.3253,-0.1434,-0.5258,0.7726
-0.025,0.363,0.104,-21.1,88.5,-8.1,1023,2018,5,17,21,3,1.798,0.3272,-0.1424,-0.5122,0.7811
-0.008,0.514,0.075,-18.6,34.9,3.3,1023,2018,5,17,21,3,1.821,0.3303,-0.1414,-0.5022,0.7864
0.027,0.267,0.111,-16.4,-54.8,9.5,1023,2018,5,17,21,3,1.839,0.3323,-0.1437,-0.5037,0.7842
0.063,-0.042,-0.006,-17.9,-59.7,15.1,1023,2018,5,17,21,3,1.862,0.3336,-0.149,-0.512,0.7773
0.021,-0.156,-0.085,-26.2,22.5,21.1,1023,2018,5,17,21,3,1.9,0.3372,-0.1521,-0.5145,0.7735
0.035,0.136,-0.194,-19.2,41.6,17.2,1023,2018,5,17,21,3,1.923,0.3429,-0.1517,-0.5081,0.7752
0.01,0.102,-0.211,-2,-28.4,8.3,0,2018,5,17,21,3,1.928,0.3455,-0.1515,-0.5075,0.7745
0.102,-0.224,-0.036,4,-48.1,0.3,0,2018,5,17,21,3,1.943,0.3442,-0.1535,-0.5146,0.77
0.111,-0.018,-0.047,-0.9,-22.4,-0.2,0,2018,5,17,21,3,1.964,0.3426,-0.1559,-0.5193,0.7671
0.114,0.148,-0.201,2.1,-22.8,-0.8,0,2018,5,17,21,3,2.001,0.3418,-0.1569,-0.5223,0.7652
0.082,-0.018,-0.065,7,-33.6,-1.1,0,2018,5,17,21,3,2.025,0.3399,-0.1583,-0.5274,0.7623
-0.001,-0.034,0.057,-0.1,9.6,-0.6,0,2018,5,17,21,3,2.028,0.3389,-0.1588,-0.5291,0.7614
-0.038,0.085,0.068,-5.9,35,0.3,0,2018,5,17,21,3,2.043,0.3399,-0.1574,-0.5251,0.764
-0.085,0.059,0.23,-15.7,35.5,0.9,0,2018,5,17,21,3,2.061,0.3421,-0.1564,-0.5196,0.767
-0.085,-0.073,0.209,-21.6,12.9,-0.4,0,2018,5,17,21,3,2.084,0.3446,-0.1573,-0.5151,0.7688
-0.069,-0.166,0.197,-24.7,7,0.2,0,2018,5,17,21,3,2.102,0.3473,-0.1594,-0.5119,0.7693
-0.1,0.011,0.131,-26.6,12.4,1.8,0,2018,5,17,21,3,2.125,0.3501,-0.1616,-0.5087,0.7696
-0.054,-0.011,-0.034,-17.9,13,2.8,0,2018,5,17,21,3,2.144,0.353,-0.1631,-0.5058,0.7699
-0.015,-0.056,-0.128,-7,13.3,0.2,0,2018,5,17,21,3,2.162,0.3545,-0.1639,-0.5042,0.7701
0.003,-0.018,-0.089,2.4,31.4,3.8,0,2018,5,17,21,3,2.185,0.3551,-0.1628,-0.5023,0.7713
0.075,0.073,-0.108,11.4,28.8,0.1,0,2018,5,17,21,3,2.203,0.3553,-0.1601,-0.4988,0.774
0.066,-0.011,-0.098,17.9,44.1,0,0,2018,5,17,21,3,2.226,0.3547,-0.1559,-0.4954,0.7774
0.083,0.073,-0.041,20.4,45.2,-3.1,0,2018,5,17,21,3,2.242,0.3535,-0.1513,-0.4901,0.7821
0.084,-0.112,-0.043,22.9,39.3,-6.1,0,2018,5,17,21,3,2.279,0.3515,-0.1468,-0.4858,0.7865
-0.021,-0.173,-0.07,20,60.7,-10.5,0,2018,5,17,21,3,2.302,0.3492,-0.1421,-0.4814,0.7911
0.025,0.069,-0.129,12.7,76.5,-17.3,0,2018,5,17,21,3,2.307,0.3471,-0.1372,-0.473,0.798
-0.162,-0.366,0.204,0.1,120.3,-20.4,0,2018,5,17,21,3,2.34,0.3458,-0.1319,-0.461,0.8064
0.009,-0.176,0.363,-32.8,211.5,-21.4,1023,2018,5,17,21,3,2.364,0.3479,-0.1248,-0.4347,0.8211
-0.053,0.122,0.213,-54.6,179.9,-20.2,1023,2018,5,17,21,3,2.369,0.3527,-0.1203,-0.4012,0.8367
-0.081,0.205,0.229,-68.5,133.4,-11.2,1023,2018,5,17,21,3,2.388,0.3573,-0.1208,-0.3756,0.8465
-0.004,0.291,0.123,-85,103.7,-5.9,1023,2018,5,17,21,3,2.405,0.3639,-0.125,-0.3524,0.853
0.02,0.269,-0.095,-82,42.7,6.3,1023,2018,5,17,21,3,2.428,0.3698,-0.1331,-0.3374,0.8553
0.029,0.324,-0.276,-72,29.3,21.5,1023,2018,5,17,21,3,2.445,0.3776,-0.1416,-0.326,0.8549
0.099,0.361,-0.415,-48.1,-2.8,28,1023,2018,5,17,21,3,2.468,0.3852,-0.1483,-0.3206,0.8525
0.116,0.378,-0.323,-20.5,-55.7,33.6,1023,2018,5,17,21,3,2.486,0.3909,-0.1535,-0.3236,0.8478
0.2,0.379,-0.263,3.1,-99.3,35.3,0,2018,5,17,21,3,2.509,0.3942,-0.1579,-0.3352,0.8409
0.188,0.018,-0.267,14.8,-127.8,41,0,2018,5,17,21,3,2.526,0.396,-0.1625,-0.3548,0.8311
0.123,-0.128,-0.362,29.5,-102,40.6,0,2018,5,17,21,3,2.548,0.3973,-0.1646,-0.3738,0.8217
-0.004,-0.292,-0.244,47.7,-62.2,23.2,0,2018,5,17,21,3,2.566,0.397,-0.1627,-0.3892,0.815
0.057,-0.148,-0.052,56.5,-35.1,2.7,0,2018,5,17,21,3,2.584,0.3937,-0.1573,-0.3996,0.8126
0.109,0.079,0,61.2,-51.1,-3.8,0,2018,5,17,21,3,2.608,0.3879,-0.1526,-0.4089,0.8117
0.07,0.24,0.088,64,-103.1,-2.5,0,2018,5,17,21,3,2.626,0.3808,-0.1492,-0.4238,0.8081
0.028,0.133,0.091,66.5,-161.4,3.9,0,2018,5,17,21,3,2.649,0.3723,-0.1488,-0.4472,0.7994
-0.178,-0.251,0.131,61.9,-151.4,7.4,0,2018,5,17,21,3,2.668,0.3639,-0.1491,-0.4737,0.7879
-0.097,-0.317,0.258,46.2,-91.9,1.9,0,2018,5,17,21,3,2.691,0.3572,-0.1484,-0.4936,0.7788
-0.152,0.021,0.3,35.4,-62.2,2.1,0,2018,5,17,21,3,2.705,0.3517,-0.1466,-0.5058,0.7738
-0.084,-0.099,0.23,18.1,-77.2,0.3,0,2018,5,17,21,3,2.724,0.348,-0.1472,-0.5174,0.7677
-0.115,-0.001,0.099,3.8,-53.8,5.6,0,2018,5,17,21,3,2.747,0.3458,-0.149,-0.5263,0.7623
-0.104,-0.196,-0.059,-0.8,-2.7,11.2,0,2018,5,17,21,3,2.766,0.346,-0.1498,-0.5315,0.7584
-0.082,-0.14,0.02,-11.4,90.1,10.1,0,2018,5,17,21,3,2.789,0.3494,-0.1465,-0.5253,0.7618
-0.001,0.107,0.064,-19.2,159.4,14.6,0,2018,5,17,21,3,2.809,0.3558,-0.1391,-0.507,0.7725
-0.004,0.372,-0.065,-11.4,128.3,16.3,0,2018,5,17,21,3,2.846,0.3631,-0.13,-0.4853,0.7845
-0.033,0.006,-0.051,1.7,68.7,17.2,0,2018,5,17,21,3,2.869,0.3677,-0.123,-0.4732,0.7909
-0.064,-0.181,0.191,-2.1,97.5,11.2,0,2018,5,17,21,3,2.874,0.3716,-0.1161,-0.4622,0.7967
0.012,0.092,0.041,-1,69.7,5.1,0,2018,5,17,21,3,2.889,0.3745,-0.1098,-0.4493,0.8035
0.037,0.115,0.09,2.9,7.6,7.4,0,2018,5,17,21,3,2.913,0.3761,-0.1064,-0.4432,0.8066
0.072,0.056,0.066,1.8,-22,7.5,0,2018,5,17,21,3,2.928,0.3767,-0.1061,-0.4439,0.806
0.006,0.04,0.08,-0.1,-40,9.2,1023,2018,5,17,21,3,2.945,0.3772,-0.1074,-0.4479,0.8034
-0.061,-0.155,0.184,-9.7,-15.4,3.8,1023,2018,5,17,21,3,2.968,0.3779,-0.1093,-0.4515,0.8008
-0.018,0.118,0.23,-23.6,-7.8,2.8,1023,2018,5,17,21,3,2.989,0.3797,-0.1116,-0.4509,0.8
-0.008,0.257,0.213,-32.7,-39,6,1023,2018,5,17,21,3,3.01,0.382,-0.1168,-0.4523,0.7973
-0.01,0.317,0.163,-41,-69.1,13.7,1023,2018,5,17,21,3,3.027,0.3852,-0.1248,-0.4578,0.7914
-0.065,0.236,0.172,-52.9,-73.6,23.8,1023,2018,5,17,21,3,3.051,0.3896,-0.1346,-0.4658,0.7829
-0.088,-0.077,0.111,-68.2,-44.5,29.3,1023,2018,5,17,21,3,3.069,0.397,-0.1442,-0.4703,0.7747
-0.041,-0.405,0.059,-86,35.4,23.5,1023,2018,5,17,21,3,3.092,0.4066,-0.153,-0.4669,0.7701
-0.071,-0.247,0.102,-122.5,190.5,22.8,0,2018,5,17,21,3,3.11,0.4354,-0.1594,-0.4222,0.7788
-0.036,-0.118,-0.009,-132.3,229,28,0,2018,5,17,21,3,3.131,0.4538,-0.1586,-0.3842,0.7881
-0.003,-0.012,-0.077,-126.8,223.7,32.9,0,2018,5,17,21,3,3.15,0.4724,-0.1563,-0.3433,0.7965
0.068,-0.015,-0.083,-117.6,180.3,38.4,0,2018,5,17,21,3,3.173,0.4895,-0.1549,-0.3059,0.8016
0.101,-0.031,-0.101,-106.1,128.1,35.7,0,2018,5,17,21,3,3.189,0.5043,-0.1557,-0.276,0.8032
0.139,-0.08,-0.176,-91.1,57.8,24.7,0,2018,5,17,21,3,3.208,0.5157,-0.1598,-0.2552,0.802
0.152,-0.129,-0.251,-74.8,-11.3,5.4,0,2018,5,17,21,3,3.231,0.5221,-0.1691,-0.2449,0.7992
0.141,-0.124,-0.313,-59.8,-70.4,-17.2,0,2018,5,17,21,3,3.249,0.5227,-0.1826,-0.2447,0.7959
0.17,-0.078,-0.386,-44,-124.6,-36.2,0,2018,5,17,21,3,3.273,0.5177,-0.2,-0.2528,0.7924
0.2,-0.096,-0.422,-26.2,-161.6,-50.4,0,2018,5,17,21,3,3.292,0.508,-0.2201,-0.2679,0.7884
0.2,-0.094,-0.421,-6.1,-173.1,-61,0,2018,5,17,21,3,3.31,0.4942,-0.2401,-0.2871,0.7846
0.193,0.027,-0.388,11.9,-176.7,-64.6,0,2018,5,17,21,3,3.333,0.4778,-0.258,-0.3082,0.781
0.135,0.129,-0.37,30.4,-177.9,-59.2,0,2018,5,17,21,3,3.37,0.4598,-0.2733,-0.3311,0.7772
-0.003,0.026,-0.212,46.9,-162.6,-53.3,0,2018,5,17,21,3,3.393,0.4417,-0.2849,-0.3543,0.7734
-0.078,0.024,-0.109,55.5,-141.1,-49,0,2018,5,17,21,3,3.397,0.4236,-0.2932,-0.3766,0.7698
-0.078,0.068,-0.048,59.6,-119.5,-41.3,0,2018,5,17,21,3,3.411,0.4073,-0.2977,-0.3959,0.7672
-0.04,0.109,-0.075,65.4,-110.2,-33.2,0,2018,5,17,21,3,3.429,0.3922,-0.2997,-0.4134,0.765
-0.068,0.036,0.036,68.8,-94.5,-24.9,0,2018,5,17,21,3,3.452,0.378,-0.2996,-0.4302,0.763
-0.143,-0.232,0.169,67.4,-50.3,-20.7,0,2018,5,17,21,3,3.471,0.3664,-0.2964,-0.4432,0.7624
-0.327,-0.5,0.279,40.1,40.2,-22.3,0,2018,5,17,21,3,3.494,0.359,-0.2914,-0.4462,0.7661
-0.122,-0.11,0.333,6.9,152.7,-25.2,0,2018,5,17,21,3,3.51,0.359,-0.2838,-0.4326,0.7767
-0.051,0.405,0.356,-9.8,137.6,-7.2,1023,2018,5,17,21,3,3.533,0.3646,-0.2755,-0.4106,0.7889
-0.023,0.452,0.294,-17.8,74.8,10,1023,2018,5,17,21,3,3.551,0.3709,-0.2707,-0.3951,0.7955
-0.066,0.357,0.156,-13.9,4,24.7,1023,2018,5,17,21,3,3.574,0.3762,-0.2693,-0.3898,0.7961
-0.112,0.066,0.202,-12.5,-17.1,34.9,1023,2018,5,17,21,3,3.593,0.3807,-0.2698,-0.3923,0.7926
-0.124,-0.121,0.213,-21.2,50.5,42.9,1023,2018,5,17,21,3,3.616,0.3879,-0.2684,-0.3913,0.7901
-0.136,-0.032,0.118,-25.7,92.7,43.3,1023,2018,5,17,21,3,3.653,0.3993,-0.2634,-0.3806,0.7913
-0.093,0.139,-0.047,-18.3,76,35.9,1023,2018,5,17,21,3,3.653,0.4104,-0.2579,-0.3685,0.7932
-0.043,0.154,-0.196,-0.9,46,30,1023,2018,5,17,21,3,3.676,0.4181,-0.2527,-0.3613,0.7941
-0.006,0.119,-0.19,15.9,28.5,26.7,0,2018,5,17,21,3,3.692,0.4229,-0.2478,-0.3585,0.7944
0.068,0.044,-0.234,35,28.2,22.9,0,2018,5,17,21,3,3.714,0.4257,-0.2408,-0.3576,0.7954
0.024,0.046,-0.174,57.8,-5,24.5,0,2018,5,17,21,3,3.734,0.4268,-0.232,-0.3599,0.7964
-0.02,-0.03,-0.205,77.9,-57.2,20.6,0,2018,5,17,21,3,3.752,0.4239,-0.2242,-0.3713,0.795
-0.043,-0.036,-0.247,95,-115.6,20.4,0,2018,5,17,21,3,3.774,0.4174,-0.2173,-0.3907,0.791
0.044,-0.196,-0.231,102.8,-111.2,15.3,0,2018,5,17,21,3,3.793,0.4087,-0.2111,-0.4141,0.7853
0.045,-0.333,-0.204,105.1,-110.9,9.7,0,2018,5,17,21,3,3.816,0.3985,-0.2041,-0.4376,0.7797
0.101,-0.296,-0.034,99.1,-57.3,0.3,0,2018,5,17,21,3,3.834,0.3884,-0.1955,-0.456,0.7764
0.036,0.038,0.239,90.5,-36.7,-13.7,0,2018,5,17,21,3,3.858,0.3781,-0.1861,-0.4681,0.7766
0.011,0.383,0.411,62.2,-82.6,-11.5,0,2018,5,17,21,3,3.892,0.3683,-0.1801,-0.4799,0.7755
0.073,0.094,0.115,42.9,-193.2,-11.2,0,2018,5,17,21,3,3.892,0.3579,-0.1833,-0.5024,0.7654
-0.095,-0.492,0.038,17.6,-116.3,-7.3,0,2018,5,17,21,3,3.915,0.3474,-0.1908,-0.5275,0.7513
0.029,-0.388,0.363,-12.1,52.1,-10.6,0,2018,5,17,21,3,3.933,0.3456,-0.1922,-0.5303,0.7498
0.068,0.273,0.363,-34.2,109.4,-13.3,0,2018,5,17,21,3,3.956,0.3493,-0.1907,-0.5157,0.7586
0.064,0.478,0.19,-38.5,10.1,-6.1,0,2018,5,17,21,3,3.992,0.3535,-0.1926,-0.5049,0.7635
0.07,0.464,-0.084,-31.4,-73.9,6.1,0,2018,5,17,21,3,4.015,0.3553,-0.1997,-0.5076,0.7589
0.117,-0.247,-0.053,-17.7,-100.5,3.5,0,2018,5,17,21,3,4.02,0.3545,-0.2084,-0.5195,0.7489
0.148,-0.526,-0.239,-5.7,46.8,5,0,2018,5,17,21,3,4.036,0.3549,-0.2113,-0.5232,0.7453
0.146,0.053,-0.238,17.5,110.3,-11.3,0,2018,5,17,21,3,4.058,0.3574,-0.2046,-0.5112,0.7542
0.051,-0.007,0.028,29.8,62.9,-21.2,0,2018,5,17,21,3,4.076,0.3556,-0.1976,-0.5012,0.7636
0.043,0.193,0.112,29.1,38.2,-18.3,1023,2018,5,17,21,3,4.099,0.3518,-0.1924,-0.4953,0.7705
-0.047,0.023,0.143,18.7,48.7,-12.9,1023,2018,5,17,21,3,4.116,0.349,-0.1874,-0.4905,0.7761
-0.065,0.113,0.226,3.8,61.9,-7.9,1023,2018,5,17,21,3,4.133,0.3485,-0.1831,-0.4831,0.7819
-0.144,-0.031,0.286,-12.9,88.7,-0.3,1023,2018,5,17,21,3,4.157,0.3507,-0.1794,-0.4731,0.7879
-0.144,0.205,0.285,-26.3,76.9,-0.1,1023,2018,5,17,21,3,4.175,0.355,-0.1767,-0.4594,0.7947
-0.125,0.219,0.214,-30.9,5.2,1.7,1023,2018,5,17,21,3,4.198,0.3589,-0.1778,-0.4518,0.797
-0.051,0.264,0.029,-25.1,-74.8,3.9,1023,2018,5,17,21,3,4.217,0.3602,-0.1838,-0.4557,0.7929
-0.028,0.183,-0.1,-16.6,-123.1,11.2,1023,2018,5,17,21,3,4.235,0.3595,-0.1925,-0.4688,0.7834
-0.007,0.087,-0.186,-7.8,-115.8,15.4,1023,2018,5,17,21,3,4.259,0.3579,-0.2007,-0.4859,0.7716
0.018,0.218,-0.156,2.8,-113.8,22.5,1023,2018,5,17,21,3,4.277,0.3564,-0.2067,-0.5023,0.7601
0.082,0.091,-0.077,13.4,-127.4,25.9,0,2018,5,17,21,3,4.298,0.3542,-0.2111,-0.5196,0.7482
0.096,0.125,0.122,13.1,-156.7,23.7,0,2018,5,17,21,3,4.316,0.3502,-0.2163,-0.5397,0.7342
0.225,0.102,-0.174,10.3,-159.8,37,0,2018,5,17,21,3,4.34,0.3461,-0.2223,-0.5629,0.7168
0.202,-0.034,0.055,0.3,-94.9,36.6,0,2018,5,17,21,3,4.358,0.3453,-0.2251,-0.5804,0.7022
0.058,0.03,0.196,-9.6,-94.8,37,0,2018,5,17,21,3,4.381,0.3468,-0.2273,-0.5926,0.6904
0,-0.013,0.163,-27.3,-75.9,34,0,2018,5,17,21,3,4.397,0.3494,-0.2312,-0.6035,0.6783
0.126,-0.009,-0.301,-25.8,-60.1,24.2,0,2018,5,17,21,3,4.415,0.3532,-0.2354,-0.6103,0.6687
0.146,-0.225,-0.23,-12.3,-40.1,18.9,0,2018,5,17,21,3,4.438,0.3553,-0.2384,-0.6165,0.6607
0.088,-0.209,-0.09,-10.7,23.8,16.8,0,2018,5,17,21,3,4.457,0.3581,-0.2381,-0.6176,0.6583
0.047,-0.077,-0.072,-9.3,75.5,17.2,0,2018,5,17,21,3,4.48,0.3625,-0.2351,-0.6121,0.6622
0.05,0.145,-0.092,-3.6,81.6,16.2,0,2018,5,17,21,3,4.499,0.368,-0.2291,-0.6029,0.6696
0.013,0.319,-0.026,8.6,1.4,17.9,0,2018,5,17,21,3,4.537,0.3714,-0.2242,-0.5984,0.6734
-0.023,0.1,0.12,15.4,-80,18.5,0,2018,5,17,21,3,4.56,0.3709,-0.2231,-0.6047,0.6684
-0.038,-0.034,0.154,7.3,-99.8,18.9,0,2018,5,17,21,3,4.565,0.3685,-0.2253,-0.6166,0.6581
-0.039,-0.149,-0.035,-0.5,-69.1,19.4,0,2018,5,17,21,3,4.581,0.3673,-0.2281,-0.627,0.6479
-0.014,0.022,-0.051,0.1,-57.5,17.3,0,2018,5,17,21,3,4.599,0.367,-0.2298,-0.6349,0.6397
0.051,-0.274,0.002,6,-41.9,20.2,0,2018,5,17,21,3,4.615,0.3656,-0.2315,-0.6426,0.6321
0.099,-0.018,-0.117,10.6,-13.1,18.2,0,2018,5,17,21,3,4.638,0.3652,-0.2305,-0.6467,0.6286
0.162,-0.025,-0.276,25.7,-6.3,25.8,0,2018,5,17,21,3,4.657,0.365,-0.2266,-0.6501,0.6266
0.048,0.023,-0.203,38.7,34.8,32.4,0,2018,5,17,21,3,4.68,0.365,-0.2186,-0.652,0.6274
-0.007,0.029,-0.07,48.1,57.6,31.6,0,2018,5,17,21,3,4.7,0.3649,-0.207,-0.6514,0.632
0.005,0.24,0.098,49.1,45,31.4,1023,2018,5,17,21,3,4.718,0.365,-0.1942,-0.6494,0.6382
0.005,0.081,0.025,49.4,-3.6,34.9,1023,2018,5,17,21,3,4.742,0.3639,-0.1835,-0.6513,0.64
-0.087,0.083,-0.13,52.9,-14.1,41.7,1023,2018,5,17,21,3,4.778,0.3619,-0.1739,-0.6574,0.6376
-0.134,0.008,0.054,55.3,-13.5,41.4,1023,2018,5,17,21,3,4.801,0.36,-0.1636,-0.6638,0.6347
-0.253,-0.079,0.131,49.1,-36.2,26.9,1023,2018,5,17,21,3,4.806,0.3573,-0.1547,-0.6705,0.6314
-0.306,-0.225,0.27,38,-103.3,8.7,1023,2018,5,17,21,3,4.821,0.352,-0.152,-0.6817,0.6229
-0.251,-0.358,-0.035,28.4,-135.8,-4.3,1023,2018,5,17,21,3,4.843,0.3452,-0.1555,-0.6972,0.6086
-0.196,-0.524,0.054,21.8,-75.6,-17.9,0,2018,5,17,21,3,4.884,0.3377,-0.1607,-0.7106,0.5958
-0.251,-0.358,0.211,5.9,10,-33.6,0,2018,5,17,21,3,4.886,0.3327,-0.1638,-0.7134,0.5944
-0.085,0.073,0.119,0,17.7,-41.8,0,2018,5,17,21,3,4.901,0.329,-0.1672,-0.7102,0.5993
0.053,0.073,0.09,3.3,5.4,-31.8,0,2018,5,17,21,3,4.935,0.3254,-0.1709,-0.708,0.6029
0.158,0.187,-0.296,19,25.6,-17.3,0,2018,5,17,21,3,4.958,0.3217,-0.1722,-0.7062,0.6066
0.059,0.121,0.15,21.9,99.4,1.5,0,2018,5,17,21,3,4.962,0.3197,-0.1676,-0.7008,0.6152
0.038,0.308,0.121,11.6,124.3,6,0,2018,5,17,21,3,4.998,0.3218,-0.1583,-0.6883,0.6305
0.113,0.337,0.138,13,26.2,7.2,0,2018,5,17,21,3,5.018,0.3232,-0.1518,-0.6805,0.6397
0.135,0.061,0.048,15.1,-46.9,10.9,0,2018,5,17,21,3,5.023,0.322,-0.1502,-0.6837,0.6373
0.077,-0.029,-0.158,20.8,-57.7,12.3,0,2018,5,17,21,3,5.06,0.3195,-0.15,-0.6913,0.6304
-0.012,-0.183,0.06,18.1,-19.7,9.4,0,2018,5,17,21,3,5.06,0.3167,-0.1488,-0.6974,0.6253
-0.089,-0.065,0.174,6.7,26,6.4,0,2018,5,17,21,3,5.083,0.3166,-0.1458,-0.697,0.6266
-0.138,0.079,0.275,-6.4,28.2,3.3,0,2018,5,17,21,3,5.101,0.3178,-0.1433,-0.6941,0.6298
-0.196,0.087,0.257,-23.6,38.3,8.6,0,2018,5,17,21,3,5.119,0.321,-0.1423,-0.6901,0.6327
-0.192,0.155,0.246,-39.2,50.5,14.7,0,2018,5,17,21,3,5.143,0.3272,-0.1419,-0.6836,0.6367
-0.203,0.232,0.194,-52,41.8,20.8,0,2018,5,17,21,3,5.179,0.3359,-0.142,-0.6761,0.6401
0.59,0.326,0.238,-50.4,58.1,88.9,0,2018,5,17,21,3,5.202,0.3572,-0.1422,-0.6667,0.6384
-0.826,0.143,-0.199,-60.8,-18.4,27.5,0,2018,5,17,21,3,5.207,0.3733,-0.141,-0.6558,0.6407
-0.12,-0.501,-0.066,-42.8,-19.2,28.1,0,2018,5,17,21,3,5.226,0.3805,-0.1453,-0.6578,0.6334
-0.213,0.022,0.076,-56.8,30,24.1,0,2018,5,17,21,3,5.244,0.3893,-0.1466,-0.6542,0.6314
0.085,0.316,0.194,-72,4.3,43.1,0,2018,5,17,21,3,5.264,0.4006,-0.1485,-0.6488,0.6296
-0.251,0.302,0.064,-75.5,-55,35.5,0,2018,5,17,21,3,5.285,0.413,-0.1535,-0.6473,0.6219
0.064,-0.121,0.058,-70.4,-109.4,26.3,0,2018,5,17,21,3,5.302,0.4216,-0.1644,-0.6526,0.6076
-0.098,-0.245,0.191,-84,-66.5,29.2,1023,2018,5,17,21,3,5.325,0.4308,-0.1759,-0.657,0.593
-0.076,-0.08,0.194,-96.2,-31.1,21.3,1023,2018,5,17,21,3,5.343,0.4425,-0.1853,-0.6552,0.5834
0.016,-0.115,0.013,-100.7,-51.1,14.1,1023,2018,5,17,21,3,5.362,0.4542,-0.1965,-0.6516,0.5748
0.043,-0.215,-0.074,-99.3,-64.8,7.3,1023,2018,5,17,21,3,5.385,0.464,-0.2106,-0.6499,0.5638
0.068,-0.255,-0.077,-97.5,-51.2,-2.4,1023,2018,5,17,21,3,5.403,0.473,-0.2249,-0.6478,0.553
0.092,-0.181,-0.068,-95.8,-27.7,-14,1023,2018,5,17,21,3,5.426,0.4814,-0.2382,-0.6432,0.5455
0.138,-0.142,-0.11,-89.4,-21.1,-23.3,1023,2018,5,17,21,3,5.445,0.489,-0.251,-0.6368,0.5405
0.186,-0.141,-0.159,-82.2,-24.1,-29.4,1023,2018,5,17,21,3,5.468,0.4949,-0.2638,-0.6305,0.5364
0.195,-0.139,-0.219,-74.3,-16.4,-34,1023,2018,5,17,21,3,5.487,0.4996,-0.2761,-0.6243,0.5331
0.207,-0.161,-0.24,-62.7,5.8,-42.4,1023,2018,5,17,21,3,5.506,0.5031,-0.2871,-0.6172,0.5323
0.187,-0.102,-0.196,-53,30.2,-46.3,0,2018,5,17,21,3,5.526,0.5062,-0.2955,-0.6079,0.5354
0.218,-0.039,-0.205,-45.5,40.6,-51,0,2018,5,17,21,3,5.565,0.5087,-0.3019,-0.5974,0.5413
0.162,-0.07,-0.287,-35.7,39.2,-55.2,0,2018,5,17,21,3,5.565,0.51,-0.3077,-0.5872,0.5479
0.123,-0.148,-0.291,-22.1,46,-62.3,0,2018,5,17,21,3,5.587,0.5095,-0.3129,-0.5772,0.556
0.077,-0.055,-0.255,-11.8,59.8,-64.1,0,2018,5,17,21,3,5.607,0.5077,-0.3165,-0.5668,0.5662
0.029,0.054,-0.149,-6.7,75.1,-60.6,0,2018,5,17,21,3,5.624,0.5059,-0.3178,-0.5558,0.5778
-0.007,0.11,-0.097,-3.5,86.8,-62.3,0,2018,5,17,21,3,5.647,0.5043,-0.3176,-0.5438,0.5907
-0.027,0.084,-0.103,1.8,75.2,-65,0,2018,5,17,21,3,5.665,0.502,-0.3168,-0.532,0.6037
-0.027,0.079,-0.102,8.4,58,-63,0,2018,5,17,21,3,5.688,0.4981,-0.3167,-0.5222,0.6154
-0.022,0.049,-0.11,15.4,43.6,-60.9,0,2018,5,17,21,3,5.707,0.4927,-0.3174,-0.5148,0.6256
0.012,0.089,-0.083,19.4,48.4,-56.6,0,2018,5,17,21,3,5.73,0.4868,-0.3175,-0.5081,0.6356
0.009,0.124,-0.113,24,37.5,-51.2,0,2018,5,17,21,3,5.75,0.4809,-0.3167,-0.5021,0.645
-0.014,0.057,-0.115,29,26.6,-49.7,0,2018,5,17,21,3,5.766,0.4743,-0.3161,-0.4983,0.6532
-0.028,0.035,-0.092,29.2,28.8,-52,0,2018,5,17,21,3,5.803,0.467,-0.3155,-0.4952,0.661
-0.017,0.078,-0.063,24.2,34.7,-54.9,0,2018,5,17,21,3,5.824,0.4601,-0.3148,-0.4909,0.6694
0.006,0.094,-0.067,18.6,34,-57.5,0,2018,5,17,21,3,5.829,0.4535,-0.3147,-0.4851,0.6781
0.043,0.158,-0.094,-7.1,-40.5,-55.6,0,2018,5,17,21,3,5.845,0.4316,-0.3278,-0.473,0.6945
0.077,0.184,-0.099,-10.1,-71.7,-53.5,0,2018,5,17,21,3,5.868,0.4218,-0.3387,-0.4753,0.6937
0.087,0.153,-0.117,-11.7,-102,-51,0,2018,5,17,21,3,5.886,0.411,-0.351,-0.4818,0.6896
0.086,0.108,-0.186,-8.9,-131.1,-51.8,0,2018,5,17,21,3,5.909,0.3983,-0.365,-0.492,0.6825
0.1,0.056,-0.211,-7.3,-149,-52.4,1023,2018,5,17,21,3,5.928,0.3836,-0.3804,-0.5046,0.6733
0.065,0.051,-0.181,-2,-151.1,-48.4,1023,2018,5,17,21,3,5.951,0.3678,-0.3955,-0.5185,0.6628
0.02,-0.043,-0.151,3.2,-125.1,-41.5,1023,2018,5,17,21,3,5.987,0.3527,-0.4086,-0.5311,0.6529
-0.025,-0.14,-0.05,11.5,-82.8,-34,1023,2018,5,17,21,3,5.987,0.3399,-0.418,-0.5414,0.6453
-0.023,-0.104,0.004,17.4,-31.8,-24.3,1023,2018,5,17,21,3,6.009,0.3314,-0.4222,-0.5464,0.6427
-0.068,-0.052,-0.011,32.6,19.8,-11.1,1023,2018,5,17,21,3,6.026,0.3269,-0.4215,-0.5471,0.645
-0.129,0.034,0.031,56.5,66.8,6.1,1023,2018,5,17,21,3,6.048,0.3261,-0.4137,-0.5445,0.6526
-0.238,0.087,0.179,81,110.5,25.1,1023,2018,5,17,21,3,6.084,0.3278,-0.3989,-0.5393,0.6651
-0.325,-0.093,0.252,106.3,150.4,36.2,1023,2018,5,17,21,3,6.108,0.3317,-0.3774,-0.5314,0.6819
-0.485,-0.217,0.209,120.7,224.1,35.1,1023,2018,5,17,21,3,6.112,0.337,-0.3489,-0.5183,0.7042
-0.42,-0.023,0.275,117.2,290.1,26.8,0,2018,5,17,21,3,6.131,0.3457,-0.3155,-0.4942,0.7325
-0.253,0.238,0.387,116.8,273.3,14.3,0,2018,5,17,21,3,6.149,0.3534,-0.281,-0.4648,0.7615
-0.083,0.363,0.447,118.1,204.7,7.6,0,2018,5,17,21,3,6.171,0.3567,-0.2493,-0.4402,0.7853
-0.104,0.492,0.608,113.9,108.6,8.9,0,2018,5,17,21,3,6.207,0.3555,-0.2227,-0.4258,0.8016
-0.113,0.224,0.43,101.5,3,17.8,0,2018,5,17,21,3,6.23,0.3511,-0.2034,-0.4264,0.8083
-0.094,-0.37,0.116,90.4,15.1,20.5,0,2018,5,17,21,3,6.234,0.3469,-0.1887,-0.4335,0.8099
-0.054,-0.22,0.052,89,117.8,22.6,0,2018,5,17,21,3,6.25,0.3451,-0.1702,-0.4308,0.8162
-0.02,0.169,0.118,84.9,191.3,35.1,0,2018,5,17,21,3,6.273,0.3474,-0.1453,-0.4133,0.829
-0.095,0.468,0.394,65.5,215.2,54.3,0,2018,5,17,21,3,6.29,0.3533,-0.1184,-0.3885,0.8427
0.035,0.249,0.716,32.8,215.2,51.2,0,2018,5,17,21,3,6.328,0.3626,-0.0938,-0.3607,0.8541
0.174,0.234,0.444,17.5,146.2,45.2,0,2018,5,17,21,3,6.328,0.3708,-0.0755,-0.335,0.8628
0.312,0.115,0.081,17.4,27.6,37.4,0,2018,5,17,21,3,6.351,0.3776,-0.0649,-0.323,0.8653
0.316,0.174,-0.19,27.9,-82.9,30.2,0,2018,5,17,21,3,6.369,0.3808,-0.0622,-0.3303,0.8613
0.201,0.14,-0.219,32.6,-105.1,27.6,0,2018,5,17,21,3,6.392,0.3824,-0.0626,-0.3476,0.8537
0.262,0.085,-0.245,45.9,-104,10.6,0,2018,5,17,21,3,6.41,0.3819,-0.0623,-0.365,0.8467
0.314,0.035,-0.322,62,-161.4,-7.6,0,2018,5,17,21,3,6.434,0.3771,-0.0634,-0.3878,0.8386
0.354,-0.2,-0.461,82.1,-206.5,-22,0,2018,5,17,21,3,6.452,0.3678,-0.0663,-0.4197,0.8271
0.363,-0.347,-0.535,102.1,-201.3,-36.8,0,2018,5,17,21,3,6.475,0.354,-0.0686,-0.4548,0.8142
0.342,-0.304,-0.432,115.7,-160.8,-49.2,0,2018,5,17,21,3,6.49,0.3367,-0.0676,-0.4862,0.8034
0.293,-0.886,-0.375,121.1,-22.5,-60.2,0,2018,5,17,21,3,6.526,0.3169,-0.0616,-0.5076,0.7987
0.189,0.256,0.037,110.4,46.1,-56.5,0,2018,5,17,21,3,6.549,0.2988,-0.0487,-0.5086,0.8059
-0.041,0.003,0.318,101.3,32.2,-61,0,2018,5,17,21,3,6.554,0.2816,-0.0371,-0.5088,0.8125
-0.205,-0.062,0.384,77.3,30.7,-71.9,1023,2018,5,17,21,3,6.57,0.264,-0.0286,-0.508,0.8193
-0.192,-0.058,0.457,49.6,39.6,-74.1,1023,2018,5,17,21,3,6.593,0.2481,-0.0245,-0.5057,0.8258
-0.131,0.379,0.03,40.2,32.7,-60.5,1023,2018,5,17,21,3,6.612,0.2346,-0.0226,-0.5012,0.8325
-0.017,-0.146,-0.04,47.4,4.2,-57.9,1023,2018,5,17,21,3,6.635,0.2224,-0.0212,-0.5018,0.8355
-0.122,-0.133,-0.04,48.7,66.8,-57.3,1023,2018,5,17,21,3,6.653,0.2097,-0.0177,-0.4987,0.8407
-0.169,-0.168,0.062,36.8,127.9,-56.5,1023,2018,5,17,21,3,6.677,0.1981,-0.0118,-0.4851,0.8515
-0.002,0.135,0.13,29.7,143.9,-57,1023,2018,5,17,21,3,6.695,0.187,-0.0067,-0.4645,0.8655
-0.111,0.551,0.105,29.6,73.2,-43.9,1023,2018,5,17,21,3,6.714,0.1772,-0.0026,-0.4479,0.8763
-0.049,-0.182,-0.127,31.2,25.2,-34.8,1023,2018,5,17,21,3,6.737,0.1609,0.0025,-0.4446,0.8811
-0.006,-0.356,0.047,28.9,104,-46.8,0,2018,5,17,21,3,6.753,0.1522,0.0059,-0.4352,0.8873
-0.015,-0.049,0.124,21.3,118.9,-56.6,0,2018,5,17,21,3,6.772,0.1418,0.0086,-0.4178,0.8973
0.029,0.237,0.075,15.2,83.9,-56.7,0,2018,5,17,21,3,6.796,0.1313,0.0097,-0.4015,0.9063
-0.004,0.081,-0.093,17.4,53.4,-52.9,0,2018,5,17,21,3,6.814,0.1217,0.0099,-0.391,0.9122
-0.035,0.071,0.011,14.3,71.9,-53.9,0,2018,5,17,21,3,6.852,0.1123,0.0105,-0.3809,0.9176
-0.014,-0.082,0.045,5.6,96.2,-52.2,0,2018,5,17,21,3,6.875,0.1031,0.0101,-0.368,0.924
-0.042,0.142,0.039,-0.9,94.1,-52.9,0,2018,5,17,21,3,6.88,0.0945,0.009,-0.3513,0.9314
-0.109,0.017,-0.034,1.7,62.4,-52.7,0,2018,5,17,21,3,6.893,0.086,0.0072,-0.3387,0.9369
-0.144,0.006,0.055,-0.9,87.9,-51.3,0,2018,5,17,21,3,6.916,0.0775,0.0059,-0.327,0.9418
-0.074,0.001,-0.103,-1.5,77.2,-45.9,0,2018,5,17,21,3,6.937,0.0695,0.004,-0.3129,0.9472
-0.067,-0.422,-0.257,-2,122.2,-52.2,0,2018,5,17,21,3,6.956,0.0619,0.0022,-0.2969,0.9528
-0.09,0.159,-0.168,4.3,115.4,-57.6,0,2018,5,17,21,3,6.979,0.0525,0.0008,-0.2749,0.96
-0.18,0.285,-0.058,13.4,73.4,-48,0,2018,5,17,21,3,6.992,0.0434,0.0008,-0.2596,0.9647
-0.11,0.676,0.098,9.5,46.7,-24.7,0,2018,5,17,21,3,7.015,0.0369,0.0014,-0.2487,0.9678
-0.035,0.377,0.017,7.5,11.9,-3.8,0,2018,5,17,21,3,7.051,0.0346,0.0022,-0.2442,0.969
0.046,0.166,-0.155,20.9,-14.2,4.2,0,2018,5,17,21,3,7.073,0.0342,0.0045,-0.2445,0.969
-0.039,-0.075,-0.102,27.9,-9,3.6,0,2018,5,17,21,3,7.078,0.0342,0.0087,-0.2472,0.9683
-0.087,-0.036,-0.065,32.3,-9.4,-1.9,0,2018,5,17,21,3,7.096,0.0331,0.0145,-0.2494,0.9677
-0.074,-0.059,-0.03,31.3,25.2,-3.7,0,2018,5,17,21,3,7.117,0.0314,0.02,-0.2484,0.9679
-0.05,0.031,-0.143,34.8,40.1,-2.8,0,2018,5,17,21,3,7.135,0.0295,0.0261,-0.2428,0.9692
-0.003,0.043,-0.423,45.6,60.2,-0.3,0,2018,5,17,21,3,7.158,0.0276,0.0334,-0.2347,0.971
0.012,0.231,-0.011,52.8,69.1,3.5,0,2018,5,17,21,3,7.174,0.0254,0.0425,-0.2224,0.9736
-0.001,0.089,0.189,46.7,40.1,6.2,0,2018,5,17,21,3,7.193,0.0242,0.0515,-0.2125,0.9754
0.029,0.072,0.363,25.9,24.9,1.8,1023,2018,5,17,21,3,7.216,0.0233,0.0576,-0.2057,0.9766
-0.008,0.016,0.227,11.5,-20,2.6,1023,2018,5,17,21,3,7.252,0.0232,0.0606,-0.2054,0.9765
-0.069,-0.24,0.003,0.4,24,4.8,1023,2018,5,17,21,3,7.275,0.0239,0.0616,-0.2062,0.9762
-0.071,0.177,0.019,-0.9,63.3,5.9,1023,2018,5,17,21,3,7.28,0.0246,0.0621,-0.197,0.9781
0.012,0.069,-0.082,1.8,15.8,1.4,1023,2018,5,17,21,3,7.314,0.0249,0.0622,-0.1894,0.9796
0.036,0.12,-0.106,11.9,-17.8,0.6,1023,2018,5,17,21,3,7.335,0.0251,0.0634,-0.1894,0.9795
-0.037,0.524,0.12,18.5,-71.4,6.9,1023,2018,5,17,21,3,7.339,0.0256,0.0658,-0.1962,0.978
-0.134,0.764,0.155,20.3,-171.4,26.7,1023,2018,5,17,21,3,7.356,0.0295,0.0691,-0.216,0.9734
-0.063,-0.062,-0.042,20.8,-224.4,39.8,1023,2018,5,17,21,3,7.379,0.0373,0.0728,-0.2517,0.9643
0.003,-0.291,-0.087,21.3,-180.3,30.3,1023,2018,5,17,21,3,7.417,0.045,0.077,-0.2857,0.9541
0.055,0.062,-0.203,32,-172.4,13.3,0,2018,5,17,21,3,7.44,0.0496,0.0808,-0.3135,0.9448
-0.072,0.194,-0.178,41.5,-227.8,12.5,0,2018,5,17,21,3,7.445,0.0525,0.0861,-0.3467,0.9325
-0.13,0.179,0.087,37.6,-250.1,20.6,0,2018,5,17,21,3,7.464,0.0563,0.0916,-0.3862,0.9161
-0.025,0.082,0.131,21.5,-226.7,26.6,0,2018,5,17,21,3,7.479,0.0622,0.0954,-0.4238,0.8985
0.063,-0.264,-0.006,9.6,-184.3,29.3,0,2018,5,17,21,3,7.498,0.0691,0.0973,-0.4552,0.8823
0.047,-0.105,0.023,1.9,-161.2,15.6,0,2018,5,17,21,3,7.516,0.0748,0.0974,-0.4801,0.8685
0,-0.108,0.002,0,-141.9,8.8,0,2018,5,17,21,3,7.538,0.0789,0.096,-0.5037,0.8548
0.037,0.095,-0.068,5.3,-117.2,9.7,0,2018,5,17,21,3,7.557,0.0816,0.0953,-0.5228,0.8431
-0.013,-0.045,0.101,-2.2,-144.5,16.5,0,2018,5,17,21,3,7.58,0.0892,0.0955,-0.5568,0.8202
-0.04,-0.48,0.026,-7.8,-94.7,7.3,0,2018,5,17,21,3,7.599,0.0933,0.0937,-0.5749,0.8074
-0.018,0.165,-0.143,-1.7,-78,2.8,0,2018,5,17,21,3,7.622,0.0959,0.0921,-0.5858,0.7994
0.035,0.243,-0.135,16.5,-115,9.1,0,2018,5,17,21,3,7.659,0.0973,0.0924,-0.5997,0.7888
-0.037,0.237,0.097,17.8,-155,17.6,0,2018,5,17,21,3,7.682,0.0996,0.0944,-0.6182,0.7739
-0.068,-0.262,-0.012,12.6,-154.1,15,0,2018,5,17,21,3,7.687,0.1031,0.0957,-0.6397,0.7556
0.041,-0.559,-0.125,12.5,-65.1,5.8,0,2018,5,17,21,3,7.7,0.1048,0.0963,-0.6548,0.7422
0.066,0.034,-0.074,17.9,-15.9,-0.1,0,2018,5,17,21,3,7.736,0.1035,0.0982,-0.6589,0.7385
-0.068,0.337,0.203,15.2,-77.8,6.7,0,2018,5,17,21,3,7.759,0.1025,0.0999,-0.6652,0.7327
-0.077,-0.126,0.227,-1.3,-92.3,6.4,0,2018,5,17,21,3,7.764,0.1043,0.1001,-0.6768,0.7217
0.062,-0.239,-0.395,0.2,-78.5,-3.8,0,2018,5,17,21,3,7.78,0.1062,0.0982,-0.6879,0.7111
-0.031,-0.229,-0.312,16.6,-6.4,-9.2,0,2018,5,17,21,3,7.817,0.1047,0.0979,-0.6935,0.7059
-0.137,-0.013,0.077,22.8,22.1,-8,0,2018,5,17,21,3,7.837,0.1009,0.1001,-0.6927,0.707
-0.092,-0.012,0.193,11,32.7,-9.9,0,2018,5,17,21,3,7.842,0.097,0.1018,-0.6897,0.7102
0,-0.208,0.024,-0.6,44.1,-14,1023,2018,5,17,21,3,7.878,0.0941,0.1015,-0.6853,0.7149
0.035,-0.135,-0.126,3.1,76.4,-24.4,1023,2018,5,17,21,3,7.901,0.0901,0.1003,-0.6782,0.7223
0.03,0.351,0.12,6.8,57.2,-22.8,1023,2018,5,17,21,3,7.906,0.0845,0.099,-0.6703,0.7305
-0.121,0.229,0.198,-0.9,34.3,-13.2,1023,2018,5,17,21,3,7.92,0.0811,0.0982,-0.6654,0.7355
0.014,-0.315,-0.115,-5.7,73.7,-12.1,1023,2018,5,17,21,3,7.938,0.0791,0.0971,-0.6597,0.741
0.048,-0.065,-0.228,-1,141.4,-14.6,1023,2018,5,17,21,3,7.961,0.0757,0.0967,-0.6451,0.7541
-0.095,0.072,0.1,2.2,161.3,-18.1,1023,2018,5,17,21,3,7.98,0.0703,0.0974,-0.6253,0.771
-0.202,0.439,0.474,-17.3,130.6,-12.6,1023,2018,5,17,21,3,8.002,0.0663,0.0968,-0.6046,0.7878
-0.046,0.059,0.218,-28.6,63.2,-6.8,1023,2018,5,17,21,3,8.02,0.066,0.0935,-0.5928,0.7971
0.03,-0.43,-0.074,-31.8,120.5,-6.5,0,2018,5,17,21,3,8.043,0.0668,0.0895,-0.5807,0.8063
0.093,-0.138,-0.201,-24.2,189.3,-17.1,0,2018,5,17,21,3,8.078,0.0654,0.0863,-0.5574,0.823
0.051,0.314,0.014,-11.2,147.4,-24.7,0,2018,5,17,21,3,8.102,0.0609,0.0837,-0.5322,0.8402
-0.044,0.427,0.102,-10.2,70.7,-15.8,0,2018,5,17,21,3,8.106,0.057,0.0814,-0.5165,0.8504
-0.051,0.199,0.244,-18.2,52.1,-6.2,0,2018,5,17,21,3,8.123,0.0558,0.0791,-0.5083,0.8556
-0.013,0.195,0.271,-32.6,24.8,-1.7,0,2018,5,17,21,3,8.146,0.0571,0.0752,-0.5019,0.8597
-0.027,0.341,0.152,-35.8,-4.1,3.3,0,2018,5,17,21,3,8.162,0.0601,0.07,-0.5005,0.8607
-0.1,0.495,0.263,-36.9,-2.2,16.5,0,2018,5,17,21,3,8.179,0.0647,0.0655,-0.5008,0.8606
-0.085,0.278,0.06,-29.7,-44.9,25.6,0,2018,5,17,21,3,8.203,0.0711,0.0621,-0.503,0.859
-0.061,-0.021,0.134,-31,-97,30.1,0,2018,5,17,21,3,8.239,0.0788,0.0594,-0.513,0.8526
0.055,-0.578,-0.189,-29.4,-49.8,23.3,0,2018,5,17,21,3,8.262,0.0867,0.056,-0.5249,0.8448
0.154,-0.631,-0.281,-14.6,87.3,4.2,0,2018,5,17,21,3,8.266,0.0905,0.0543,-0.5213,0.8467
0.042,-0.079,0.059,-8.1,131.8,-13.5,0,2018,5,17,21,3,8.284,0.0891,0.0541,-0.5032,0.8578
-0.059,0.129,0.071,-4.7,87.9,-16.6,0,2018,5,17,21,3,8.303,0.086,0.0534,-0.4862,0.8679
-0.026,-0.011,-0.167,-3.6,60.4,-17.1,0,2018,5,17,21,3,8.326,0.0833,0.0529,-0.4752,0.8742
-0.019,0.003,-0.279,16.8,44.6,-20.2,0,2018,5,17,21,3,8.344,0.0792,0.0532,-0.4679,0.8785
-0.095,-0.055,-0.211,34.8,21.3,-24,0,2018,5,17,21,3,8.367,0.0732,0.0562,-0.4635,0.8812
-0.299,-0.463,0.112,26.1,85.7,-25.9,0,2018,5,17,21,3,8.383,0.0661,0.0599,-0.4578,0.8845
-0.148,0.115,0.136,3.5,185.4,-18.5,0,2018,5,17,21,3,8.404,0.0602,0.0622,-0.4347,0.8963
0.02,0.516,-0.06,2.5,131.1,-13.6,0,2018,5,17,21,3,8.421,0.0557,0.0626,-0.4087,0.9088
-0.067,0.146,-0.054,6.7,84.8,-5,0,2018,5,17,21,3,8.445,0.053,0.0638,-0.3929,0.9158
0.026,0.38,-0.082,11,43.7,0.3,0,2018,5,17,21,3,8.48,0.0512,0.0656,-0.3821,0.9203
0.102,0.039,-0.118,14.1,5.8,9.6,1023,2018,5,17,21,3,8.503,0.0512,0.0679,-0.3792,0.9213
0.186,-0.166,-0.021,14.5,26.8,2.1,1023,2018,5,17,21,3,8.508,0.0512,0.0709,-0.3765,0.9222
0.109,0.145,0.035,8.4,35.4,-4.1,1023,2018,5,17,21,3,8.524,0.0498,0.0729,-0.3711,0.9243
0.064,0.229,0.063,-0.1,28.3,-2.3,1023,2018,5,17,21,3,8.547,0.0488,0.0735,-0.3659,0.9264
0.022,0.38,0.057,-6.1,17.2,7.3,1023,2018,5,17,21,3,8.565,0.0493,0.0731,-0.3616,0.9281
-0.07,0.44,0.153,-8.2,-46.2,14.8,1023,2018,5,17,21,3,8.588,0.0519,0.0725,-0.3629,0.9275
-0.036,0.122,0.119,-11.4,-112.5,18.2,1023,2018,5,17,21,3,8.607,0.0566,0.0711,-0.3758,0.9222
-0.08,0.052,0.222,-14.5,-153.4,17.8,1023,2018,5,17,21,3,8.628,0.0621,0.0691,-0.396,0.9134
-0.098,0.337,0.004,-14.5,-171.7,25.8,1023,2018,5,17,21,3,8.648,0.0683,0.0663,-0.4223,0.9014
-0.207,-0.258,0.015,-19.8,-104,25.5,0,2018,5,17,21,3,8.668,0.0756,0.0639,-0.4442,0.8904
-0.075,-0.099,0.019,-23.4,-69.7,15.8,0,2018,5,17,21,3,8.685,0.0815,0.0613,-0.4559,0.8841
0.015,-0.187,0.033,-28.7,-55.3,10.6,0,2018,5,17,21,3,8.705,0.0862,0.0573,-0.4655,0.8789
0.185,-0.096,-0.15,-25.3,-50.6,3.2,0,2018,5,17,21,3,8.724,0.0901,0.0523,-0.4732,0.8747
0.121,-0.075,-0.161,-20.4,-12,2.5,0,2018,5,17,21,3,8.745,0.093,0.049,-0.4773,0.8724
0.026,0.535,-0.213,-11.5,-63.7,-0.2,0,2018,5,17,21,3,8.784,0.0945,0.046,-0.4809,0.8704
-0.107,-0.169,0.065,-5.1,-118.6,1.8,0,2018,5,17,21,3,8.806,0.0959,0.0434,-0.4978,0.8608
-0.13,-0.1,0.28,-22.9,-82.5,-4.7,0,2018,5,17,21,3,8.811,0.098,0.0399,-0.5117,0.8525
0.015,-0.079,0.063,-30.9,-66.8,-5,0,2018,5,17,21,3,8.83,0.1003,0.034,-0.522,0.8463
0.07,0.184,-0.297,-23.8,-38.4,-0.7,0,2018,5,17,21,3,8.848,0.1025,0.0285,-0.5289,0.8419
0.019,0.142,-0.138,-12.1,-40.8,0.5,0,2018,5,17,21,3,8.871,0.1042,0.0251,-0.5346,0.8382
-0.077,-0.113,0.05,-9,-72.7,-3.1,0,2018,5,17,21,3,8.888,0.1056,0.0232,-0.5424,0.833
-0.087,-0.16,0.265,-22.5,-32,-6.2,0,2018,5,17,21,3,8.905,0.1059,0.0196,-0.5504,0.8278
-0.031,0.261,-0.006,-25.6,-50.3,-3.4,0,2018,5,17,21,3,8.928,0.1076,0.0149,-0.5554,0.8244
-0.031,0.192,-0.048,-21.2,-50.8,5.4,0,2018,5,17,21,3,8.946,0.1103,0.0111,-0.5624,0.8193
-0.057,0.016,0.143,-23.2,-24.4,10.3,0,2018,5,17,21,3,8.969,0.1138,0.0087,-0.5675,0.8153
-0.035,0.139,0.247,-36.5,-24.4,13.9,0,2018,5,17,21,3,8.986,0.1185,0.0055,-0.5701,0.8129
0,0.014,0.159,-49.7,-27,15.3,0,2018,5,17,21,3,9.009,0.125,0.0002,-0.573,0.8099
0.044,-0.26,-0.067,-57.4,-11.4,8.4,0,2018,5,17,21,3,9.047,0.1321,-0.0066,-0.5743,0.8078
0.083,-0.357,-0.24,-44.3,23.9,-5.2,0,2018,5,17,21,3,9.07,0.1374,-0.0133,-0.5723,0.8083
0.028,0.137,-0.034,-31.9,18.3,-8,0,2018,5,17,21,3,9.074,0.1397,-0.0189,-0.568,0.8107
-0.094,-0.061,0.246,-32.4,13,-4.2,0,2018,5,17,21,3,9.087,0.1421,-0.0231,-0.5656,0.812
-0.063,-0.118,0.37,-50.7,41.5,-1.3,1023,2018,5,17,21,3,9.105,0.1458,-0.0283,-0.5603,0.8147
0.052,-0.111,0.303,-68.3,41.7,-6.5,1023,2018,5,17,21,3,9.128,0.1513,-0.0361,-0.553,0.8184
0.207,0.499,-0.329,-55.4,29.9,-4,1023,2018,5,17,21,3,9.146,0.1568,-0.0452,-0.5461,0.8216
0.044,0.013,-0.424,-22.9,23.4,-0.8,1023,2018,5,17,21,3,9.169,0.1605,-0.05,-0.5419,0.8233
-0.102,0.006,-0.086,3.1,24.2,6.2,1023,2018,5,17,21,3,9.206,0.1616,-0.0502,-0.5385,0.8254
-0.118,-0.204,0.154,5.1,65.8,11.2,1023,2018,5,17,21,3,9.228,0.1632,-0.0462,-0.533,0.8289
-0.117,0.017,0.254,-5.6,70.8,9.5,1023,2018,5,17,21,3,9.233,0.1656,-0.0424,-0.5211,0.8361
-0.072,-0.029,0.241,-14.6,5,1.7,1023,2018,5,17,21,3,9.249,0.1675,-0.0423,-0.5159,0.839
0.014,0.011,0.03,-20.5,-18.9,-2,0,2018,5,17,21,3,9.272,0.1691,-0.0451,-0.5162,0.8383
0.015,-0.03,-0.11,-21,-6.1,-2.4,0,2018,5,17,21,3,9.308,0.1702,-0.0491,-0.5187,0.8363
0.015,-0.046,-0.069,-15.5,23.8,-0.1,0,2018,5,17,21,3,9.331,0.1715,-0.0517,-0.5176,0.8366
0.027,0.034,-0.016,-19.2,58.5,-0.6,0,2018,5,17,21,3,9.336,0.1731,-0.053,-0.511,0.8402
0.055,-0.092,0.002,-28,83.2,1.4,0,2018,5,17,21,3,9.349,0.1757,-0.0546,-0.5002,0.846
0.148,-0.147,-0.018,-37.1,131.5,-6.2,0,2018,5,17,21,3,9.37,0.1789,-0.0565,-0.4833,0.855
0.172,0.035,-0.065,-40.4,143.9,-12.5,0,2018,5,17,21,3,9.388,0.1819,-0.0586,-0.4609,0.8665
0.102,0.104,-0.062,-41.7,128.5,-15.6,0,2018,5,17,21,3,9.411,0.1841,-0.0617,-0.439,0.8772
0.069,0.018,-0.034,-42.1,141.1,-18.2,0,2018,5,17,21,3,9.429,0.1858,-0.0658,-0.417,0.8872
0.044,-0.065,-0.065,-39.7,166.7,-22.8,0,2018,5,17,21,3,9.453,0.1869,-0.069,-0.3921,0.898
0.032,0.127,-0.007,-35.9,179.1,-29.9,0,2018,5,17,21,3,9.471,0.1872,-0.0713,-0.3623,0.9102
0.018,0.384,-0.046,-24.6,126.6,-26.9,0,2018,5,17,21,3,9.495,0.1861,-0.0728,-0.3361,0.9203
-0.049,0.41,0,-14.3,51.6,-15.8,0,2018,5,17,21,3,9.529,0.1849,-0.0742,-0.3212,0.9257
-0.077,0.312,0.054,-9,1.3,-9.4,0,2018,5,17,21,3,9.552,0.1839,-0.0761,-0.3167,0.9273
-0.039,0.143,-0.016,-1.1,-38.8,-3.5,0,2018,5,17,21,3,9.557,0.1832,-0.078,-0.3193,0.9264
0.013,-0.022,-0.081,7.8,-51.3,-9.9,0,2018,5,17,21,3,9.57,0.1815,-0.0793,-0.3265,0.9241
0.053,-0.024,-0.081,15.1,-42.8,-16.7,0,2018,5,17,21,3,9.589,0.1779,-0.0803,-0.3347,0.9218
0.026,0.037,-0.138,23,-26.1,-14.9,0,2018,5,17,21,3,9.611,0.1735,-0.0801,-0.3411,0.9203
-0.053,0.059,-0.034,20.9,10.9,-10.8,0,2018,5,17,21,3,9.63,0.1703,-0.0773,-0.3424,0.9207
-0.045,0.223,0.04,22.6,23.7,-4.1,0,2018,5,17,21,3,9.652,0.1682,-0.0734,-0.3388,0.9227
-0.076,0.335,0.019,30.7,-30.2,10.4,0,2018,5,17,21,3,9.671,0.1673,-0.0686,-0.3394,0.923
-0.041,0.086,-0.07,35.7,-93.1,12.9,0,2018,5,17,21,3,9.694,0.1667,-0.0645,-0.351,0.9191
-0.162,-0.065,0.084,32.6,-74.1,25.5,0,2018,5,17,21,3,9.713,0.1671,-0.0595,-0.366,0.9135
-0.123,-0.142,0.088,30.9,-75.1,19,1023,2018,5,17,21,3,9.736,0.1683,-0.0549,-0.3787,0.9083
-0.099,-0.128,0.151,26.3,-69.4,16.5,1023,2018,5,17,21,3,9.754,0.1685,-0.0507,-0.3918,0.903
-0.103,0.069,0.239,14.2,-37.6,20.3,1023,2018,5,17,21,3,9.777,0.1697,-0.0475,-0.4006,0.8991
0.02,0.155,0.04,9,-40.1,19.8,1023,2018,5,17,21,3,9.793,0.1719,-0.0456,-0.4061,0.8963
0.016,-0.106,0.026,12.4,-57.2,12.2,1023,2018,5,17,21,3,9.811,0.1734,-0.0444,-0.4144,0.8922
0.061,-0.064,0.096,9.2,-41.1,12.5,1023,2018,5,17,21,3,9.835,0.174,-0.0435,-0.4221,0.8885
0.017,-0.093,0.186,1.1,-19,6.1,1023,2018,5,17,21,3,9.853,0.1744,-0.0433,-0.4269,0.8862
0.025,0.027,0.293,-11.1,9.6,4.2,1023,2018,5,17,21,3,9.871,0.1754,-0.0437,-0.4265,0.8862
0.032,0.197,-0.027,-14.5,2.1,4.3,1023,2018,5,17,21,3,9.915,0.1772,-0.0453,-0.4248,0.8865
0.013,0.062,0.016,-10.8,-2.6,-2.4,0,2018,5,17,21,3,9.917,0.178,-0.0474,-0.4245,0.8864
0.049,-0.018,-0.005,-6.6,-0.1,-2.8,0,2018,5,17,21,3,9.935,0.1782,-0.049,-0.4239,0.8865
0.088,0.031,-0.104,1,6.6,-3.6,0,2018,5,17,21,3,9.973,0.1775,-0.05,-0.4234,0.8869
0.05,0.146,0.016,3.2,9.6,-2.3,0,2018,5,17,21,3,9.992,0.1765,-0.0501,-0.4217,0.8879
0.039,0.083,0.148,-2.5,-7.7,-0.9,0,2018,5,17,21,3,9.996,0.1762,-0.05,-0.4215,0.8881
0.034,-0.235,0.05,-5.7,-18.3,-8.7,0,2018,5,17,21,3,10.032,0.1759,-0.0515,-0.4234,0.8871
0.06,-0.165,0.015,-5.5,29.8,-19.8,0,2018,5,17,21,3,10.054,0.1739,-0.0535,-0.4225,0.8878
0,0.113,0.124,-7.1,55.4,-20.2,0,2018,5,17,21,3,10.056,0.1714,-0.0547,-0.4144,0.892
-0.013,0.34,0.083,-8.7,43,-14.8,0,2018,5,17,21,3,10.073,0.1698,-0.0557,-0.4058,0.8963
-0.046,0.083,-0.157,1,21.3,-7.3,0,2018,5,17,21,3,10.093,0.1687,-0.0559,-0.4014,0.8984
-0.101,0.167,-0.058,8.7,11.8,-3.1,0,2018,5,17,21,3,10.13,0.1678,-0.0542,-0.3987,0.8999
-0.054,0.066,0.01,14,-9.5,2.5,0,2018,5,17,21,3,10.15,0.1671,-0.0519,-0.3989,0.9001
-0.093,-0.058,0.141,9.2,-8,4.5,0,2018,5,17,21,3,10.157,0.167,-0.0493,-0.4007,0.8995
-0.002,-0.119,0.058,3.4,10.5,2.3,0,2018,5,17,21,3,10.194,0.1673,-0.0479,-0.4005,0.8995
0.032,-0.047,0.003,1.1,44.9,-2.1,0,2018,5,17,21,3,10.217,0.1673,-0.0469,-0.3963,0.9014
0.066,0.067,0.023,0.5,53.6,-4.3,0,2018,5,17,21,3,10.222,0.167,-0.046,-0.3877,0.9053
0.089,0.133,0.107,-1.2,48.7,-6.3,0,2018,5,17,21,3,10.239,0.1665,-0.045,-0.3791,0.9091
0.051,0.147,0.258,-8.2,21.6,-9.3,0,2018,5,17,21,3,10.255,0.1658,-0.0451,-0.3731,0.9117
0.019,0.013,0.168,-18.2,-4.9,-13.3,0,2018,5,17,21,3,10.274,0.1648,-0.0479,-0.3718,0.9122
0.046,-0.2,-0.059,-16.4,32.2,-20.8,0,2018,5,17,21,3,10.296,0.1634,-0.0518,-0.369,0.9134
0.001,0.128,-0.074,-7.3,74.1,-25.4,0,2018,5,17,21,3,10.315,0.1605,-0.0536,-0.3597,0.9175
0.032,0.155,-0.033,1.8,47.7,-23.8,0,2018,5,17,21,3,10.339,0.1573,-0.0536,-0.3481,0.9225
0.03,0.067,0.019,6.3,19.9,-24,1023,2018,5,17,21,3,10.374,0.1534,-0.0537,-0.342,0.9255
0.007,0.068,-0.056,10.5,30.7,-19.5,1023,2018,5,17,21,3,10.397,0.1494,-0.0534,-0.338,0.9276
0.009,-0.022,0.042,8.2,53.3,-23.9,1023,2018,5,17,21,3,10.402,0.1458,-0.0522,-0.3312,0.9307
-0.021,0.102,0.082,6.7,42.6,-22.4,1023,2018,5,17,21,3,10.418,0.1421,-0.0508,-0.3216,0.9347
-0.036,0,0.054,2.1,23.2,-21,1023,2018,5,17,21,3,10.436,0.1388,-0.0502,-0.3158,0.9372
-0.011,0.024,-0.041,0.3,18.1,-20.6,1023,2018,5,17,21,3,10.459,0.1357,-0.0505,-0.3121,0.9389
-0.026,0.054,-0.095,3.1,21.3,-17.9,1023,2018,5,17,21,3,10.496,0.1328,-0.0506,-0.3084,0.9405
-0.013,0.072,-0.086,6.8,27.8,-16.6,1023,2018,5,17,21,3,10.518,0.13,-0.05,-0.3045,0.9422
-0.024,0.088,-0.063,10.8,15,-14.8,1023,2018,5,17,21,3,10.523,0.1272,-0.0486,-0.3003,0.944
0,0.11,-0.01,13.7,5.4,-13.2,1023,2018,5,17,21,3,10.537,0.1245,-0.047,-0.2981,0.9451
-0.017,0.097,0.041,14.5,-19.6,-12.8,0,2018,5,17,21,3,10.573,0.1217,-0.0452,-0.2982,0.9455
0,0.034,-0.032,17.1,-31.2,-12,0,2018,5,17,21,3,10.595,0.1188,-0.0438,-0.3023,0.9447
-0.014,-0.075,-0.007,17.5,-24.1,-14.9,0,2018,5,17,21,3,10.601,0.1155,-0.0423,-0.3076,0.9435
-0.022,-0.025,0.06,17.2,-5.7,-15.4,0,2018,5,17,21,3,10.618,0.1121,-0.0404,-0.3101,0.9431
-0.023,0.013,0.069,15.8,1,-16.1,0,2018,5,17,21,3,10.641,0.1087,-0.0384,-0.31,0.9436
-0.029,-0.018,0.036,15.1,6.6,-16,0,2018,5,17,21,3,10.657,0.1053,-0.0364,-0.3095,0.9443
-0.055,0.063,0.032,15.4,11.7,-14.1,0,2018,5,17,21,3,10.681,0.1021,-0.034,-0.3077,0.9453
-0.034,0.138,0.012,18.6,-1.2,-11,0,2018,5,17,21,3,10.698,0.0993,-0.0312,-0.3059,0.9463
-0.028,0.014,0.021,18.9,-15.1,-9.4,0,2018,5,17,21,3,10.721,0.0968,-0.0284,-0.307,0.9463
0.015,0.007,-0.05,21,-10.9,-7.9,0,2018,5,17,21,3,10.74,0.0943,-0.0258,-0.3094,0.9458
0,0.039,-0.021,23.2,-20.3,-7.3,0,2018,5,17,21,3,10.763,0.0917,-0.0228,-0.3123,0.9452
-0.018,0.016,-0.058,28.3,-14.8,-6.2,0,2018,5,17,21,3,10.781,0.0892,-0.0193,-0.3155,0.9445
-0.016,0.024,-0.014,27.8,-24.8,-9,0,2018,5,17,21,3,10.798,0.0864,-0.0152,-0.319,0.9436
0,0.064,-0.096,29.6,-58.4,-4,0,2018,5,17,21,3,10.821,0.0836,-0.0114,-0.3261,0.9415
-0.032,0.018,-0.205,31.3,-56.1,0.4,0,2018,5,17,21,3,10.838,0.0816,-0.0072,-0.3367,0.938
-0.088,0.06,0.026,24.5,-36.2,0.9,0,2018,5,17,21,3,10.863,0.0798,-0.0028,-0.3447,0.9352
-0.004,0.13,0.002,15.4,-64.2,3.7,0,2018,5,17,21,3,10.879,0.0791,-0.0002,-0.3526,0.9323
0.023,-0.031,-0.006,11.2,-66.1,7.6,0,2018,5,17,21,3,10.903,0.0793,0.0012,-0.3635,0.9281
-0.008,0.003,0.021,2.4,-44.3,7.8,0,2018,5,17,21,3,10.923,0.0801,0.0018,-0.3724,0.9246
0.036,-0.062,-0.002,0.7,-32.9,4.8,0,2018,5,17,21,3,10.96,0.081,0.0018,-0.3788,0.9218
0.031,0.011,0.051,-2.6,-49.2,0.4,0,2018,5,17,21,3,10.96,0.0815,0.0014,-0.3841,0.9196
0.052,-0.072,0.216,-7.9,-34.8,0.3,1023,2018,5,17,21,3,10.982,0.0816,-0.0004,-0.3914,0.9165
0.026,-0.063,0.136,-13.9,-2.8,4.3,1023,2018,5,17,21,3,10.999,0.0823,-0.0026,-0.3943,0.9152
0.062,0.161,-0.191,-11.7,18.3,1.6,1023,2018,5,17,21,3,11.019,0.0836,-0.0048,-0.391,0.9165
-0.029,0.117,-0.064,-2.6,9.2,1.8,1023,2018,5,17,21,3,11.051,0.0842,-0.0057,-0.3889,0.9173
-0.072,-0.018,0.198,-3.1,-12.8,3,1023,2018,5,17,21,3,11.073,0.0849,-0.0053,-0.3888,0.9173
-0.034,-0.026,0.275,-16.4,-7.2,7,1023,2018,5,17,21,3,11.082,0.0864,-0.0064,-0.39,0.9167
0.002,-0.154,0.06,-25,24.3,7.3,1023,2018,5,17,21,3,11.118,0.0892,-0.0091,-0.388,0.9172
0,-0.097,0.063,-31.4,75.5,3.9,1023,2018,5,17,21,3,11.14,0.0918,-0.0126,-0.38,0.9203
0.015,0.24,0.114,-35.2,52.3,2.5,0,2018,5,17,21,3,11.146,0.0945,-0.0168,-0.3679,0.9248
-0.06,0.238,0.266,-41.7,6.6,11.5,0,2018,5,17,21,3,11.163,0.098,-0.0219,-0.3629,0.9263
-0.015,0.282,0.227,-52.6,-44.9,21.8,0,2018,5,17,21,3,11.186,0.1036,-0.029,-0.3657,0.9244
-0.069,0.102,0.015,-61.6,-61,32.8,0,2018,5,17,21,3,11.2,0.1117,-0.0375,-0.3742,0.9198
-0.093,-0.045,-0.074,-65.1,-30.1,34.8,0,2018,5,17,21,3,11.228,0.1212,-0.0459,-0.3807,0.9155
-0.055,0.042,-0.081,-62.8,-14.7,36.2,0,2018,5,17,21,3,11.243,0.1311,-0.0537,-0.383,0.9127
-0.041,0.053,-0.104,-53.3,-33.8,34.3,0,2018,5,17,21,3,11.262,0.1404,-0.0606,-0.3864,0.9095
-0.053,-0.053,-0.155,-39,-51.4,28.1,0,2018,5,17,21,3,11.281,0.148,-0.0666,-0.3935,0.9048
-0.115,-0.105,-0.096,-35.7,-48,21.9,0,2018,5,17,21,3,11.302,0.1537,-0.072,-0.4011,0.9001
-0.094,-0.068,-0.019,-35.9,-27.3,22.9,0,2018,5,17,21,3,11.34,0.1592,-0.0769,-0.4065,0.8963
-0.102,0.109,0.084,-39.6,-16.2,32,0,2018,5,17,21,3,11.363,0.166,-0.0808,-0.4089,0.8936
-0.162,0.193,0.159,-45,-31.9,43.1,0,2018,5,17,21,3,11.368,0.1744,-0.0851,-0.4121,0.8901
-0.137,-0.132,0.025,-50.9,-132.6,64.8,0,2018,5,17,21,3,11.385,0.1959,-0.0977,-0.4378,0.8719
-0.075,-0.385,0.164,-84.6,5.5,58.8,0,2018,5,17,21,3,11.404,0.2217,-0.1119,-0.4623,0.8512
-0.124,-0.103,-0.089,-98,54.1,51.6,0,2018,5,17,21,3,11.427,0.2378,-0.1197,-0.455,0.8496
-0.054,-0.053,-0.387,-86.8,78.1,50.9,0,2018,5,17,21,3,11.443,0.2543,-0.1266,-0.4421,0.8507
0.031,0.095,-0.246,-77.9,79.3,49.6,0,2018,5,17,21,3,11.461,0.2695,-0.1312,-0.4278,0.8526
0.027,0.243,0.053,-78.7,46.6,58.2,0,2018,5,17,21,3,11.483,0.2845,-0.1353,-0.4163,0.8528
-0.047,0.025,-0.091,-86.8,12.4,58.9,0,2018,5,17,21,3,11.521,0.3,-0.1417,-0.4101,0.8495
-0.016,0.006,-0.26,-91.3,29.1,61.9,0,2018,5,17,21,3,11.544,0.3157,-0.1496,-0.4044,0.8451
-0.044,0.012,-0.212,-93.7,63.3,66.1,0,2018,5,17,21,3,11.549,0.3327,-0.1561,-0.3942,0.8422
0.041,0.125,-0.212,-96.6,101.1,75.3,1023,2018,5,17,21,3,11.565,0.3516,-0.1605,-0.3784,0.841
0.027,0.113,-0.231,-96,98.2,90.5,1023,2018,5,17,21,3,11.587,0.3726,-0.1635,-0.3601,0.8394
0.013,0.092,-0.223,-95.2,100.8,101.5,1023,2018,5,17,21,3,11.623,0.3953,-0.1652,-0.3428,0.8359
-0.005,0.112,-0.069,-97.2,71.2,103.9,1023,2018,5,17,21,3,11.646,0.4183,-0.1671,-0.3263,0.831
0.023,0.172,-0.006,-99.2,16.2,104.5,1023,2018,5,17,21,3,11.651,0.4403,-0.1718,-0.3147,0.8231
0.023,0.153,-0.034,-103.2,-44.1,104.2,1023,2018,5,17,21,3,11.669,0.4603,-0.1815,-0.3113,0.8112
0.017,0.033,-0.112,-107.8,-90.9,102.2,1023,2018,5,17,21,3,11.687,0.4781,-0.1969,-0.3154,0.7956
-0.015,-0.064,0.145,-124.7,-89.3,98.9,1023,2018,5,17,21,3,11.71,0.495,-0.215,-0.3223,0.7776
0.012,-0.037,0.115,-140.4,-78.5,93.4,1023,2018,5,17,21,3,11.726,0.5121,-0.2348,-0.3251,0.7595
0.05,0.095,0.057,-148.2,-69.2,93.4,0,2018,5,17,21,3,11.763,0.5294,-0.255,-0.3246,0.7411
0.067,0.04,0.029,-155.8,-78.4,88.9,0,2018,5,17,21,3,11.786,0.5464,-0.276,-0.3232,0.7216
0.132,-0.189,-0.016,-158.4,-71.3,70.9,0,2018,5,17,21,3,11.791,0.5611,-0.2988,-0.3214,0.7018
0.231,-0.226,-0.005,-160.2,-48.6,53.5,0,2018,5,17,21,3,11.807,0.5742,-0.3205,-0.3163,0.6837
0.265,-0.149,0.082,-154.9,-17.3,42.3,0,2018,5,17,21,3,11.825,0.5864,-0.34,-0.3067,0.6681
0.238,-0.015,0.096,-146.1,11.9,35.4,0,2018,5,17,21,3,11.848,0.5987,-0.3556,-0.2934,0.6549
0.232,0.037,0.086,-134.1,22.1,30.4,0,2018,5,17,21,3,11.884,0.6105,-0.368,-0.2784,0.6435
0.209,0.099,0.118,-122.3,26.5,27.9,0,2018,5,17,21,3,11.908,0.6214,-0.3784,-0.2636,0.6333
0.194,0.05,0.097,-110.4,25.5,25.4,0,2018,5,17,21,3,11.913,0.6312,-0.3874,-0.2495,0.6237
0.123,0.113,0.08,-100.3,22.1,25.1,0,2018,5,17,21,3,11.926,0.6402,-0.3949,-0.2364,0.6149
0.016,-0.065,0.296,-96.7,-40.9,18.7,0,2018,5,17,21,3,11.962,0.6457,-0.4058,-0.2277,0.6052
-0.115,-0.389,0.473,-101.9,-77.3,-1.8,0,2018,5,17,21,3,11.984,0.6461,-0.4232,-0.2234,0.5945
-0.025,0.191,0.356,-115.6,-113.4,-8.8,0,2018,5,17,21,3,11.989,0.6423,-0.4457,-0.2196,0.5834
-0.016,0.057,0.065,-112,-147.5,-12.1,0,2018,5,17,21,3,12.006,0.6348,-0.4728,-0.2195,0.5702
0.019,0.147,-0.283,-97.4,-148.9,-13.9,0,2018,5,17,21,3,12.027,0.6249,-0.5002,-0.2208,0.5571
0.086,0.163,-0.428,-64.7,-157.5,-8.3,0,2018,5,17,21,3,12.065,0.6128,-0.5256,-0.226,0.5449
0.035,0.172,-0.375,-37.6,-121.8,0,0,2018,5,17,21,3,12.088,0.6011,-0.5456,-0.2335,0.5351
-0.018,0.174,-0.308,-21.4,-67.5,13.6,0,2018,5,17,21,3,12.093,0.5938,-0.5577,-0.2399,0.5278
-0.058,0.193,-0.335,-8.1,-29.8,28.3,0,2018,5,17,21,3,12.108,0.5919,-0.5632,-0.2444,0.5221
-0.043,0.16,-0.401,10.8,-8.9,43.2,0,2018,5,17,21,3,12.131,0.5932,-0.5636,-0.2495,0.5178
0.007,0.306,-0.423,31.8,5.9,57.6,0,2018,5,17,21,3,12.148,0.5968,-0.5595,-0.2565,0.5146
0,0.229,-0.339,50,11.9,70.6,1023,2018,5,17,21,3,12.167,0.6014,-0.552,-0.2666,0.5122
-0.056,0.222,-0.148,58.3,13.7,79.5,1023,2018,5,17,21,3,12.186,0.6067,-0.5422,-0.2785,0.51
-0.081,0.175,-0.089,57.7,-5.1,84,1023,2018,5,17,21,3,12.209,0.6115,-0.5328,-0.2921,0.5067
-0.084,0.137,-0.167,60.9,-36.9,86.8,1023,2018,5,17,21,3,12.227,0.6138,-0.5257,-0.3089,0.5013
-0.034,0.073,-0.192,66.9,-54.3,88.5,1023,2018,5,17,21,3,12.251,0.6134,-0.5205,-0.3278,0.495
-0.016,-0.051,-0.054,66.7,-46.6,85.3,1023,2018,5,17,21,3,12.269,0.6119,-0.5155,-0.3479,0.4884
0.001,-0.112,-0.008,57.3,-35.2,77.9,1023,2018,5,17,21,3,12.293,0.6112,-0.5098,-0.3654,0.4826
0.052,-0.093,-0.11,47.8,-36.6,71.7,1023,2018,5,17,21,3,12.308,0.6104,-0.5051,-0.3805,0.4768
0.14,-0.157,-0.147,45.9,-30,64.7,1023,2018,5,17,21,3,12.332,0.6097,-0.5005,-0.3942,0.4713
0.179,-0.17,-0.08,47.4,-8.3,57.9,0,2018,5,17,21,3,12.368,0.6096,-0.4948,-0.4059,0.4676
0.142,-0.105,0.104,42.5,3.3,48.9,0,2018,5,17,21,3,12.391,0.6106,-0.4876,-0.4146,0.4662
0.137,-0.298,0.237,33.2,-5.8,40.8,0,2018,5,17,21,3,12.396,0.6108,-0.4822,-0.4227,0.4643
0.129,-0.169,0.201,17.3,26.8,33.4,0,2018,5,17,21,3,12.412,0.613,-0.4762,-0.4272,0.4634
0.12,-0.086,0.115,14.6,30.3,33,0,2018,5,17,21,3,12.435,0.6168,-0.4697,-0.429,0.4634
0.128,0.004,0.045,12.5,37.9,34.8,0,2018,5,17,21,3,12.452,0.6213,-0.4625,-0.4302,0.4635
0.14,0.065,-0.011,16,34.8,35.9,0,2018,5,17,21,3,12.488,0.6257,-0.4553,-0.4306,0.4643
0.195,0.06,-0.057,21.9,22.4,37.1,0,2018,5,17,21,3,12.488,0.6293,-0.4482,-0.4329,0.4642
0.165,0.109,-0.158,31,9.6,41.4,0,2018,5,17,21,3,12.511,0.6316,-0.4415,-0.4376,0.4631
0.15,0.074,-0.122,37.7,-1.7,42.9,0,2018,5,17,21,3,12.549,0.6326,-0.435,-0.4445,0.4613
0.134,-0.066,-0.049,41.8,10.4,43.8,0,2018,5,17,21,3,12.572,0.6332,-0.4281,-0.452,0.4597
0.149,-0.161,-0.007,43.7,44.1,40,0,2018,5,17,21,3,12.577,0.635,-0.4185,-0.4577,0.4603
0.128,-0.031,0.01,40.9,81,37.9,0,2018,5,17,21,3,12.592,0.6392,-0.4052,-0.4594,0.4648
0.13,0.178,-0.022,43.2,72.4,37.7,0,2018,5,17,21,3,12.615,0.6441,-0.3906,-0.4593,0.4706
0.083,0.237,-0.019,46.5,41.2,40.1,0,2018,5,17,21,3,12.632,0.6476,-0.3773,-0.4615,0.4744
0.055,0.128,-0.033,47.6,15.8,40.7,0,2018,5,17,21,3,12.649,0.649,-0.3671,-0.467,0.4752
0.032,0.062,-0.025,46.3,19.6,41.8,0,2018,5,17,21,3,12.673,0.6495,-0.3579,-0.4737,0.4748
0.027,0.085,-0.011,45.1,26.9,41.5,0,2018,5,17,21,3,12.69,0.6507,-0.3479,-0.4793,0.475
-0.063,0.033,-0.027,44.5,32.4,42.3,0,2018,5,17,21,3,12.713,0.6524,-0.3371,-0.4846,0.4751
-0.126,0.049,-0.036,41.6,45.3,40,0,2018,5,17,21,3,12.731,0.6548,-0.3247,-0.4894,0.4755
-0.196,-0.119,-0.132,41.3,49.2,33.9,1023,2018,5,17,21,3,12.754,0.657,-0.3124,-0.4923,0.4777
-0.226,-0.316,-0.187,46.5,78,26.8,1023,2018,5,17,21,3,12.772,0.6588,-0.2994,-0.4943,0.4814
-0.324,0.074,-0.024,40.7,151.6,25.6,1023,2018,5,17,21,3,12.795,0.6632,-0.2798,-0.4906,0.4909
-0.34,0.319,0.04,38.1,152.4,9.9,1023,2018,5,17,21,3,12.813,0.6689,-0.2564,-0.4818,0.5044
-0.336,0.29,0.175,34.9,67,-1,1023,2018,5,17,21,3,12.836,0.671,-0.2397,-0.4766,0.5147
-0.377,0.231,0.07,28,-22.6,-13.1,1023,2018,5,17,21,3,12.855,0.6685,-0.235,-0.4783,0.5185
-0.439,-0.386,0.08,23.4,-30.6,-22.6,1023,2018,5,17,21,3,12.878,0.6631,-0.2387,-0.4843,0.5183
-0.314,-0.295,0.011,16.3,35.7,-35.7,1023,2018,5,17,21,3,12.896,0.659,-0.2388,-0.4848,0.523
-0.035,-0.013,0.033,19,61.7,-38.4,1023,2018,5,17,21,3,12.914,0.6561,-0.2342,-0.4808,0.5323
0.048,0.097,0.109,19,63.8,-33.7,0,2018,5,17,21,3,12.932,0.6541,-0.2276,-0.4749,0.5428
0.028,0.172,0.14,11.5,60.1,-25.6,0,2018,5,17,21,3,12.955,0.6525,-0.2214,-0.4695,0.5519
0.013,0.156,0.101,2.8,34.2,-14.1,0,2018,5,17,21,3,12.974,0.6518,-0.2167,-0.4651,0.5582
0,0.192,-0.019,0.7,5.8,-2.2,0,2018,5,17,21,3,13.011,0.652,-0.2146,-0.4628,0.5608
-0.034,0.069,-0.009,6.2,-34.1,-2.4,0,2018,5,17,21,3,13.031,0.6514,-0.2149,-0.465,0.5595
-0.101,-0.121,0.022,3.8,-29.3,-7.1,0,2018,5,17,21,3,13.036,0.6491,-0.2185,-0.4693,0.5571
-0.056,0.005,-0.087,0.8,-10.6,-9,0,2018,5,17,21,3,13.072,0.6474,-0.2207,-0.4717,0.5563
-0.099,-0.16,-0.159,2.9,19.1,-6.6,0,2018,5,17,21,3,13.095,0.6464,-0.2211,-0.4718,0.5572
-0.085,-0.181,-0.116,0,82.4,-9.8,0,2018,5,17,21,3,13.099,0.6476,-0.2153,-0.4666,0.5625
0.022,0.001,-0.059,-3.7,81.1,-10.9,0,2018,5,17,21,3,13.117,0.6498,-0.2062,-0.4577,0.5705
0.154,0.006,-0.14,0.7,44.2,-6.9,0,2018,5,17,21,3,13.134,0.651,-0.2,-0.4514,0.5763
0.105,0.007,-0.117,5.2,11.8,-0.4,0,2018,5,17,21,3,13.154,0.6512,-0.1971,-0.4491,0.5789
0.092,0.058,0,7.8,-3.4,0,0,2018,5,17,21,3,13.193,0.6506,-0.1964,-0.4495,0.5796
0.044,0.14,-0.025,11.7,-27.6,0.9,0,2018,5,17,21,3,13.193,0.6494,-0.1972,-0.4518,0.5789
-0.123,0.026,0.115,7.7,-36.7,-0.3,0,2018,5,17,21,3,13.215,0.6479,-0.1989,-0.4562,0.5764
-0.189,0.094,0.066,2.1,-52.4,-2.3,0,2018,5,17,21,3,13.252,0.6459,-0.2032,-0.461,0.5734
-0.107,0.066,-0.094,3.4,-89.5,-3,0,2018,5,17,21,3,13.275,0.6427,-0.2114,-0.4686,0.5678
-0.054,0.052,0.04,6.2,-95.3,-5.4,0,2018,5,17,21,3,13.279,0.6384,-0.2213,-0.4787,0.5605
-0.078,-0.012,0,0.3,-93.9,-9.8,0,2018,5,17,21,3,13.297,0.6339,-0.2315,-0.4882,0.5532
-0.05,0.196,0.129,-13.3,-102.5,-13.4,0,2018,5,17,21,3,13.32,0.6294,-0.2434,-0.4964,0.5459
0.031,0.381,0.052,-23.1,-136.9,-7.1,1023,2018,5,17,21,3,13.336,0.6251,-0.2588,-0.5048,0.536
0.063,0.07,-0.222,-13.9,-183.6,-5.9,1023,2018,5,17,21,3,13.356,0.6185,-0.2787,-0.5179,0.5209
-0.023,-0.099,-0.539,2.7,-217.5,-14.6,1023,2018,5,17,21,3,13.375,0.6083,-0.3013,-0.5348,0.503
-0.063,-0.244,0.047,10.6,-135.5,-12.8,1023,2018,5,17,21,3,13.398,0.5963,-0.3202,-0.5511,0.4878
-0.052,0.289,0.17,-1.5,-135.1,-12.4,1023,2018,5,17,21,3,13.417,0.5877,-0.3341,-0.5614,0.4771
-0.028,-0.041,0.066,-8.4,-140.8,-6.9,1023,2018,5,17,21,3,13.453,0.5793,-0.3495,-0.572,0.4636
0.054,-0.165,0.095,-13,-88.1,-2,1023,2018,5,17,21,3,13.476,0.5725,-0.3628,-0.5799,0.4519
0.02,-0.226,-0.029,-17.3,-23.7,-2.3,1023,2018,5,17,21,3,13.481,0.5708,-0.3694,-0.582,0.446
-0.074,-0.215,-0.016,-16.5,2.2,-8.8,1023,2018,5,17,21,3,13.496,0.5714,-0.3721,-0.5806,0.4448
-0.04,-0.111,0.021,-10.7,-29.5,-15.7,0,2018,5,17,21,3,13.519,0.5711,-0.3754,-0.5795,0.4438
-0.062,-0.249,-0.037,-14,-7.8,-15.4,0,2018,5,17,21,3,13.537,0.5691,-0.3806,-0.5797,0.4416
-0.116,0.118,0.134,-23.7,17.1,-26.1,0,2018,5,17,21,3,13.56,0.5702,-0.3831,-0.5752,0.444
-0.077,0.152,-0.014,-23.9,-17.6,-24.9,0,2018,5,17,21,3,13.579,0.571,-0.387,-0.5712,0.4447
-0.127,0.034,-0.126,-15.5,-65,-24.6,0,2018,5,17,21,3,13.601,0.5682,-0.3951,-0.571,0.4414
-0.237,-0.227,-0.135,-8.5,-62.9,-34.5,0,2018,5,17,21,3,13.635,0.5623,-0.4057,-0.5732,0.4365
-0.193,-0.071,0.144,-15,-14,-43.9,0,2018,5,17,21,3,13.658,0.5577,-0.4141,-0.5725,0.4352
-0.035,0.232,0.042,-19.3,3.2,-50.1,0,2018,5,17,21,3,13.662,0.5565,-0.4197,-0.5669,0.439
0.057,0.1,-0.081,-14.6,-35.6,-46.4,0,2018,5,17,21,3,13.679,0.5531,-0.4274,-0.5635,0.4401
0.14,0.078,-0.104,-14.8,-13.5,-43.8,0,2018,5,17,21,3,13.697,0.5487,-0.4359,-0.5609,0.4406
0.288,0.078,-0.07,-14.3,4.6,-35.6,0,2018,5,17,21,3,13.72,0.5467,-0.4414,-0.5567,0.443
0.448,-0.074,-0.268,-6.3,11.7,-26,0,2018,5,17,21,3,13.756,0.546,-0.4445,-0.5526,0.4458
0.386,-0.355,-0.239,11,69.4,-25.7,0,2018,5,17,21,3,13.779,0.5465,-0.4432,-0.5481,0.452
0.148,0.179,0.075,16.3,154.3,-14,0,2018,5,17,21,3,13.784,0.5618,-0.4183,-0.5243,0.484
0.114,0.151,0.071,25.3,132,-3.9,0,2018,5,17,21,3,13.819,0.5688,-0.4038,-0.5136,0.4994
-0.006,-0.217,0.229,5.9,160.6,-3.2,0,2018,5,17,21,3,13.819,0.577,-0.3881,-0.5024,0.5136
0.027,-0.362,0.137,-24.3,241.9,-4.3,0,2018,5,17,21,3,13.841,0.591,-0.369,-0.4819,0.5312
0.03,-0.188,0.046,-35.4,329.4,1.5,0,2018,5,17,21,3,13.857,0.611,-0.3425,-0.4508,0.5532
-0.153,-0.126,0.059,-38.6,415,2.1,0,2018,5,17,21,3,13.88,0.6351,-0.3051,-0.4099,0.579
-0.053,0.237,-0.072,-37.1,362.6,-6.7,0,2018,5,17,21,3,13.899,0.6578,-0.2634,-0.3636,0.6046
-0.126,0.303,-0.211,-22.8,192.5,-7.4,1023,2018,5,17,21,3,13.922,0.6704,-0.2357,-0.3307,0.6208
-0.17,0.111,-0.293,-7.6,123.8,-4.7,1023,2018,5,17,21,3,13.939,0.6764,-0.2204,-0.313,0.6291
-0.111,0.24,-0.271,3.7,100.9,1.5,1023,2018,5,17,21,3,13.963,0.6805,-0.2073,-0.3003,0.6353
-0.131,0.282,-0.109,6.2,59,7.7,1023,2018,5,17,21,3,14,0.6836,-0.197,-0.2924,0.6389
-0.114,0.173,-0.035,2.9,44.6,14.6,1023,2018,5,17,21,3,14,0.6862,-0.1899,-0.2879,0.6403
-0.137,0.034,0.111,-6.7,40.5,19.2,1023,2018,5,17,21,3,14.023,0.6896,-0.1842,-0.2836,0.6403
-0.226,-0.114,0.376,-19.1,22.4,21.7,1023,2018,5,17,21,3,14.059,0.6935,-0.1808,-0.2789,0.639
-0.093,0.108,0.142,-20.6,-88.7,2.3,1023,2018,5,17,21,3,14.082,0.6954,-0.1854,-0.2798,0.6353
0.147,0.127,-0.027,-16.9,-198.7,3,0,2018,5,17,21,3,14.087,0.6914,-0.206,-0.2943,0.6266
0.099,-0.383,-0.038,-16,-158.4,3.7,0,2018,5,17,21,3,14.1,0.6855,-0.2305,-0.3132,0.6154
0.097,-0.197,0.067,-23.4,-58.3,-8.7,0,2018,5,17,21,3,14.139,0.6819,-0.245,-0.3217,0.6093
-0.138,-0.032,0.15,-29,-13.7,-9.4,0,2018,5,17,21,3,14.139,0.6813,-0.2521,-0.3208,0.6076
-0.046,0.363,0.166,-36.7,-48.8,-8.8,0,2018,5,17,21,3,14.16,0.6809,-0.2595,-0.3195,0.6056
0.026,0.149,0.045,-37.2,-57.1,-6.1,0,2018,5,17,21,3,14.198,0.6794,-0.2708,-0.3204,0.6018
0.094,0.126,-0.008,-34.3,-52.8,-4.1,0,2018,5,17,21,3,14.218,0.6786,-0.2809,-0.3208,0.5979
0.039,0.048,0.053,-35.5,-66.6,0,0,2018,5,17,21,3,14.222,0.6775,-0.2918,-0.3219,0.5934
0.027,-0.091,0.092,-39,-83.5,-0.3,0,2018,5,17,21,3,14.257,0.6756,-0.3048,-0.3247,0.5874
0.001,-0.139,0.058,-43.6,-81,-5.7,0,2018,5,17,21,3,14.278,0.6729,-0.3196,-0.328,0.5808
-0.027,-0.26,0.092,-50.2,-65.9,-14.8,0,2018,5,17,21,3,14.283,0.6703,-0.3341,-0.3292,0.575
-0.023,-0.282,0.097,-53.3,-78.6,-37.6,0,2018,5,17,21,3,14.3,0.6662,-0.3494,-0.3285,0.5709
0.014,-0.327,0.053,-56.8,-83.9,-53.7,0,2018,5,17,21,3,14.32,0.6594,-0.3679,-0.3275,0.5678
0.025,-0.397,0.004,-59.2,-70.5,-67.6,0,2018,5,17,21,3,14.357,0.6508,-0.3872,-0.3251,0.5662
0.055,-0.377,-0.083,-60.9,-39.2,-81.2,0,2018,5,17,21,3,14.378,0.6427,-0.4043,-0.3189,0.5671
0.132,-0.261,-0.18,-55.9,-25.1,-89.8,0,2018,5,17,21,3,14.381,0.6351,-0.4186,-0.3089,0.5708
0.144,-0.176,-0.197,-44.3,-21,-95.9,0,2018,5,17,21,3,14.42,0.6267,-0.4313,-0.2985,0.5762
0.099,-0.127,-0.223,-31.7,-18.5,-100.4,0,2018,5,17,21,3,14.443,0.6171,-0.4426,-0.2887,0.5829
-0.061,-0.571,-0.269,-19.3,50.2,-98.1,0,2018,5,17,21,3,14.448,0.5991,-0.4567,-0.2662,0.6012
-0.047,-0.337,-0.319,-35.7,214,-113.9,1023,2018,5,17,21,3,14.467,0.5993,-0.451,-0.2408,0.6159
0.046,0.762,-0.532,-14,197.7,-88.9,1023,2018,5,17,21,3,14.484,0.6068,-0.4336,-0.2031,0.6343
0.019,0.052,-0.423,8.7,121.2,-70.6,1023,2018,5,17,21,3,14.507,0.6086,-0.4216,-0.1814,0.6471
-0.139,0.151,-0.219,5.8,161.8,-38,1023,2018,5,17,21,3,14.544,0.6116,-0.4078,-0.1621,0.6582
0.243,0.828,-0.572,20.7,55.4,-35.4,1023,2018,5,17,21,3,14.565,0.6175,-0.3931,-0.1438,0.6658
-0.02,-0.132,-0.542,43.7,-16.9,-21.5,1023,2018,5,17,21,3,14.57,0.6123,-0.3913,-0.1471,0.671
0.083,0.416,-0.549,56,7.4,-16.2,1023,2018,5,17,21,3,14.586,0.6093,-0.3854,-0.1499,0.6764
0.144,0.659,-0.624,84.2,-79.8,-11,1023,2018,5,17,21,3,14.604,0.6037,-0.381,-0.1604,0.6816
0.011,0.245,-0.531,114,-176.2,7.8,1023,2018,5,17,21,3,14.64,0.5909,-0.3841,-0.1876,0.6841
-0.066,0.116,-0.254,108,-95.1,17.6,0,2018,5,17,21,3,14.661,0.5792,-0.3844,-0.2164,0.6854
0.031,0.357,-0.217,99,-40.8,37.8,0,2018,5,17,21,3,14.666,0.5739,-0.3779,-0.2355,0.6871
0.073,0.35,-0.112,94.9,-11.5,61.1,0,2018,5,17,21,3,14.687,0.5743,-0.3669,-0.2513,0.6872
0.13,0.5,-0.105,94.9,-10.6,75.9,0,2018,5,17,21,3,14.704,0.5778,-0.3533,-0.266,0.6858
0.077,0.634,-0.065,93.5,-43.3,98.7,0,2018,5,17,21,3,14.727,0.5822,-0.3405,-0.2833,0.6817
0.003,0.49,0.012,92.5,-95.8,120.8,0,2018,5,17,21,3,14.746,0.5865,-0.3312,-0.3073,0.6721
-0.15,0.138,0.22,84,-115.5,132.3,0,2018,5,17,21,3,14.766,0.5897,-0.3256,-0.3366,0.6578
-0.348,-0.24,0.233,66.4,-65.1,128.2,0,2018,5,17,21,3,14.79,0.5949,-0.3188,-0.362,0.6428
-0.205,-0.089,0.035,59.1,-26.8,120,0,2018,5,17,21,3,14.806,0.6024,-0.3082,-0.3797,0.6307
-0.151,-0.016,-0.033,65.1,-39,113.6,0,2018,5,17,21,3,14.824,0.6093,-0.2967,-0.3959,0.6194
-0.19,0.026,0.083,68.8,-63.4,99,0,2018,5,17,21,3,14.847,0.6132,-0.2873,-0.4143,0.6079
-0.294,-0.339,0.12,67,-30.9,88.6,0,2018,5,17,21,3,14.865,0.6154,-0.2785,-0.432,0.5973
-0.234,-0.066,0.002,59.6,39.9,48.7,0,2018,5,17,21,3,14.888,0.6219,-0.2502,-0.448,0.5915
-0.165,-0.231,0.095,61.2,41.6,28.9,0,2018,5,17,21,3,14.907,0.6228,-0.2363,-0.4527,0.5926
-0.191,-0.322,0.152,57.5,75.7,13.7,0,2018,5,17,21,3,14.948,0.6226,-0.2214,-0.4548,0.5969
-0.239,-0.308,0.095,54.2,125.3,1.2,0,2018,5,17,21,3,14.951,0.6227,-0.2031,-0.4514,0.6058
-0.325,-0.077,0.072,45.1,178.5,-6.6,0,2018,5,17,21,3,14.967,0.6235,-0.1813,-0.4403,0.6199
-0.148,0.347,0.404,28.5,158,-6.3,0,2018,5,17,21,3,14.988,0.6254,-0.1584,-0.4246,0.635
-0.038,0.203,0.277,21.2,86.3,-2.9,0,2018,5,17,21,3,15.023,0.6263,-0.1429,-0.4139,0.6448
0.013,0.031,0.125,12.9,65.5,6.4,0,2018,5,17,21,3,15.043,0.6269,-0.133,-0.408,0.6501
0.009,-0.005,0.088,8,82.3,11.4,0,2018,5,17,21,3,15.045,0.6295,-0.1223,-0.4,0.6547
-0.022,-0.057,0.089,7,85.3,7,1023,2018,5,17,21,3,15.083,0.6318,-0.1114,-0.3909,0.6599
-0.064,0.014,0.144,5.9,53.3,3.3,1023,2018,5,17,21,3,15.104,0.6335,-0.102,-0.3831,0.6643
-0.033,-0.028,0.064,5.4,20.1,0.9,1023,2018,5,17,21,3,15.108,0.6342,-0.0968,-0.3792,0.6666
0.027,-0.027,-0.004,3.2,5.7,0.1,1023,2018,5,17,21,3,15.143,0.634,-0.0952,-0.379,0.6672
0.056,-0.07,0,1,20.6,0,1023,2018,5,17,21,3,15.164,0.634,-0.094,-0.3776,0.6682
0.023,-0.146,0.013,2.1,39.1,-4.3,1023,2018,5,17,21,3,15.17,0.6339,-0.0908,-0.3743,0.6706
0.043,0.063,0.055,1.7,18.7,-3.8,1023,2018,5,17,21,3,15.205,0.6336,-0.087,-0.3707,0.6733
0.018,0.06,0.017,-0.7,20.1,4.5,1023,2018,5,17,21,3,15.226,0.6339,-0.0848,-0.3685,0.6745
0.027,0.079,0.009,-3,34.6,11.8,0,2018,5,17,21,3,15.23,0.6358,-0.0809,-0.3644,0.6754
-0.029,-0.098,0.067,-7.9,56.5,12.3,0,2018,5,17,21,3,15.266,0.6381,-0.0753,-0.3593,0.6767
-0.004,-0.063,0.006,-10.4,85.8,12.3,0,2018,5,17,21,3,15.266,0.641,-0.0672,-0.3499,0.6798
0.041,0.011,0.088,-8.2,78,10.8,0,2018,5,17,21,3,15.286,0.6436,-0.0582,-0.339,0.6836
-0.002,-0.096,-0.074,-7.5,96.3,15.1,0,2018,5,17,21,3,15.322,0.6464,-0.0495,-0.3283,0.6869
0.016,-0.044,-0.096,-1,106,7.9,0,2018,5,17,21,3,15.343,0.6483,-0.0373,-0.3165,0.6914
-0.046,-0.075,0.058,-0.1,86.1,-0.2,0,2018,5,17,21,3,15.347,0.6491,-0.026,-0.3055,0.696
-0.096,-0.062,0.106,-4.5,78.2,-6.9,0,2018,5,17,21,3,15.383,0.6489,-0.0171,-0.296,0.7006
-0.108,0.123,0.166,-16.6,63,-8.7,0,2018,5,17,21,3,15.404,0.6487,-0.0099,-0.2857,0.7052
0.075,0.193,0.015,-19.6,34.4,-4.6,0,2018,5,17,21,3,15.411,0.6486,-0.0074,-0.2783,0.7082
0.29,0.089,-0.421,-8.6,78.5,13.4,0,2018,5,17,21,3,15.448,0.6497,-0.003,-0.2701,0.7105
0.264,0.427,-0.41,17.7,102.7,30,0,2018,5,17,21,3,15.468,0.6523,0.0097,-0.2582,0.7124
0.088,0.331,-0.26,41,83.5,46.8,0,2018,5,17,21,3,15.47,0.6556,0.0262,-0.2503,0.7118
-0.201,0.011,0.166,46,40.3,44.9,0,2018,5,17,21,3,15.506,0.6586,0.0405,-0.2486,0.709
-0.183,0.267,0.279,36.2,-14.2,45.1,0,2018,5,17,21,3,15.506,0.662,0.0507,-0.2509,0.7043
-0.202,0.131,0.251,34.8,-172.6,36.9,0,2018,5,17,21,3,15.529,0.6661,0.0461,-0.2672,0.6948
-0.206,-0.639,0.071,16.3,-107.8,48.8,0,2018,5,17,21,3,15.564,0.6708,0.0333,-0.2896,0.6818
-0.132,-0.273,-0.004,5.3,-61.6,27.8,0,2018,5,17,21,3,15.587,0.6754,0.0287,-0.2988,0.6735
-0.174,-0.196,0.084,-0.4,-90.5,8.9,0,2018,5,17,21,3,15.591,0.6774,0.0212,-0.3083,0.6674
-0.118,-0.094,0.089,-6.3,-113.3,-0.3,0,2018,5,17,21,3,15.624,0.6778,0.0092,-0.3211,0.6612
-0.003,-0.068,-0.147,-8.9,-74.8,2.6,1023,2018,5,17,21,3,15.646,0.6782,-0.0026,-0.3318,0.6555
-0.064,-0.192,-0.016,-13.8,-12.6,7.6,1023,2018,5,17,21,3,15.651,0.679,-0.0094,-0.3368,0.6521
-0.007,0.162,-0.016,-14.8,16.3,6.2,1023,2018,5,17,21,3,15.689,0.6806,-0.0085,-0.3341,0.6518
-0.007,0.111,-0.131,-10.3,1.3,7.2,1023,2018,5,17,21,3,15.71,0.682,-0.0079,-0.3323,0.6513
0.003,0.129,-0.184,-4.8,-5.2,8.9,1023,2018,5,17,21,3,15.713,0.6835,-0.0074,-0.332,0.6499
-0.018,-0.067,-0.009,0.6,-42.2,2.8,1023,2018,5,17,21,3,15.749,0.6839,-0.0097,-0.3356,0.6476
-0.004,0.019,-0.193,-0.4,-68.6,-9,1023,2018,5,17,21,3,15.769,0.6832,-0.0161,-0.3424,0.6447
0.066,-0.179,-0.516,16.7,-122.6,-22,1023,2018,5,17,21,3,15.771,0.6805,-0.0275,-0.3546,0.6406
-0.125,-0.217,-0.165,7.4,-4.2,-10.2,0,2018,5,17,21,3,15.79,0.6765,-0.0363,-0.3661,0.6378
-0.148,0.261,0.204,-11.4,87.4,-15.2,0,2018,5,17,21,3,15.811,0.6754,-0.0306,-0.3598,0.6429
-0.086,0.549,0.261,-19,84.1,-16.6,0,2018,5,17,21,3,15.847,0.6749,-0.0216,-0.3475,0.6505
-0.086,0.372,0.185,-15.8,-6.4,-27.3,0,2018,5,17,21,3,15.868,0.6733,-0.0201,-0.3414,0.6554
-0.041,0.163,0.168,-9.2,-87.4,-34,0,2018,5,17,21,3,15.874,0.6702,-0.029,-0.3458,0.6559
-0.03,-0.111,0.083,-3.6,-139.8,-40,0,2018,5,17,21,3,15.909,0.6655,-0.0457,-0.3586,0.6529
0.036,-0.226,-0.046,-0.6,-122.3,-43.1,0,2018,5,17,21,3,15.93,0.6593,-0.0641,-0.3735,0.6492
0.124,-0.217,-0.05,-1.6,-93,-40.1,0,2018,5,17,21,3,15.934,0.653,-0.0792,-0.3857,0.6468
0.151,-0.307,0.017,-5,-22.6,-30.8,0,2018,5,17,21,3,15.969,0.6483,-0.088,-0.3916,0.6468
0.101,-0.184,0.105,-10.3,18.2,-26,0,2018,5,17,21,3,15.99,0.6456,-0.0901,-0.3902,0.6501
0.01,0.113,0.076,-3.1,-10.7,-25.4,0,2018,5,17,21,3,15.992,0.6434,-0.0916,-0.3873,0.6538
-0.029,0.294,0.073,-0.8,-106.6,-28.3,0,2018,5,17,21,3,16.029,0.6392,-0.1005,-0.3941,0.6526
0.013,-0.101,-0.042,0,-100.6,-25.1,0,2018,5,17,21,3,16.05,0.634,-0.1147,-0.4067,0.6475
0.024,-0.204,-0.036,2,-37.1,-29.6,0,2018,5,17,21,3,16.053,0.6292,-0.1239,-0.4144,0.6457
-0.192,-0.134,0.091,0.3,0.1,-39.8,0,2018,5,17,21,3,16.089,0.6246,-0.1276,-0.416,0.6483
-0.23,-0.031,0.061,-1.9,-23.4,-45.5,0,2018,5,17,21,3,16.112,0.6195,-0.1316,-0.4162,0.6523
-0.076,-0.294,-0.092,-5.5,-6.4,-49.7,0,2018,5,17,21,3,16.117,0.6138,-0.1377,-0.4175,0.6556
0.012,0.106,-0.105,0.1,40.2,-54.9,0,2018,5,17,21,3,16.134,0.6084,-0.1392,-0.4133,0.663
-0.007,0.541,0.077,3.1,-9.1,-47.6,0,2018,5,17,21,3,16.155,0.6025,-0.1405,-0.4103,0.6699
0.163,0.228,-0.027,-2.5,-19.1,-33.5,1023,2018,5,17,21,3,16.191,0.5973,-0.1456,-0.4119,0.6725
0.277,-0.091,-0.115,-3.6,36.6,-24.6,1023,2018,5,17,21,3,16.191,0.5943,-0.1471,-0.4104,0.6757
0.283,-0.06,0.039,-5.7,98.2,-24,1023,2018,5,17,21,3,16.214,0.5936,-0.1415,-0.4007,0.6833
0.245,0.046,0.054,-9.2,104.8,-21.6,1023,2018,5,17,21,3,16.233,0.5938,-0.133,-0.3871,0.6926
0.165,-0.031,-0.014,-8.2,117.1,-20.1,1023,2018,5,17,21,3,16.256,0.5943,-0.1238,-0.3726,0.7018
0.18,0.154,0.014,-10.1,124.7,-17,1023,2018,5,17,21,3,16.274,0.5951,-0.113,-0.3562,0.7114
0.23,0.36,0.013,-8.3,106.4,-4.5,1023,2018,5,17,21,3,16.297,0.5962,-0.1025,-0.3407,0.7195
0.127,0.285,-0.058,0.1,59.3,12.2,1023,2018,5,17,21,3,16.316,0.5985,-0.0936,-0.3299,0.7239
0.204,0.272,-0.256,19.8,-29.6,23.2,1023,2018,5,17,21,3,16.338,0.6005,-0.0897,-0.3291,0.7231
0.104,0.21,-0.352,38.5,-130.1,31.8,1023,2018,5,17,21,3,16.357,0.6007,-0.0931,-0.3437,0.7157
0.113,-0.069,-0.242,47.4,-148.1,39.5,0,2018,5,17,21,3,16.376,0.5998,-0.101,-0.3675,0.7034
0.054,-0.288,-0.102,45.5,-78.6,40.3,0,2018,5,17,21,3,16.399,0.5997,-0.1044,-0.3871,0.6924
-0.078,0.068,0.178,36.5,-38.8,41.5,0,2018,5,17,21,3,16.436,0.6006,-0.1021,-0.3986,0.6854
-0.062,-0.152,0.189,30.7,-22.1,27.9,0,2018,5,17,21,3,16.458,0.6023,-0.0986,-0.4058,0.6802
-0.251,-0.052,0.23,27.3,-25.9,24.6,0,2018,5,17,21,3,16.463,0.603,-0.0951,-0.412,0.6763
-0.388,-0.152,0.511,11.9,-34.6,16.8,0,2018,5,17,21,3,16.478,0.6033,-0.0943,-0.4186,0.6721
-0.428,-0.165,0.652,-20.7,-37,-4.3,0,2018,5,17,21,3,16.496,0.6036,-0.0978,-0.4227,0.6688
-0.14,0.015,0.443,-39.8,-52.4,-19,0,2018,5,17,21,3,16.517,0.6038,-0.1067,-0.4241,0.6664
-0.066,0.126,0.196,-42.1,-130.5,-26.6,0,2018,5,17,21,3,16.536,0.602,-0.1232,-0.4305,0.661
-0.063,-0.046,-0.004,-46.2,-145.8,-28.1,0,2018,5,17,21,3,16.559,0.5991,-0.145,-0.4416,0.6518
-0.068,0.023,-0.103,-47,-140.9,-25.2,0,2018,5,17,21,3,16.595,0.5958,-0.1671,-0.4526,0.6419
-0.033,0.14,-0.232,-41.6,-127.6,-22.4,0,2018,5,17,21,3,16.618,0.5925,-0.1877,-0.4622,0.6324
-0.026,-0.068,-0.24,-31.8,-67.2,-14.2,0,2018,5,17,21,3,16.622,0.59,-0.2035,-0.4693,0.6245
-0.031,-0.009,-0.244,-27.7,17.6,-13.7,0,2018,5,17,21,3,16.658,0.5903,-0.2099,-0.468,0.6231
-0.061,0.094,-0.204,-18.5,48.7,-14.6,0,2018,5,17,21,3,16.681,0.5921,-0.2093,-0.4609,0.6269
-0.07,0.167,-0.101,-8.9,26.5,-20.6,0,2018,5,17,21,3,16.686,0.5927,-0.2078,-0.4546,0.6314
-0.034,0.024,-0.069,-1.7,-15.2,-27.9,0,2018,5,17,21,3,16.699,0.5905,-0.2098,-0.4531,0.6339
0.03,-0.026,-0.079,5.3,-46.3,-36.8,0,2018,5,17,21,3,16.717,0.5854,-0.2158,-0.456,0.6346
0.074,-0.023,-0.072,15.6,-67,-45.7,0,2018,5,17,21,3,16.741,0.5772,-0.2247,-0.4616,0.6349
0.135,0.016,-0.014,25.2,-102.3,-52.1,1023,2018,5,17,21,3,16.76,0.5663,-0.2355,-0.471,0.6339
0.091,-0.08,0.044,26,-124.2,-54.5,1023,2018,5,17,21,3,16.797,0.5528,-0.2491,-0.4835,0.6312
-0.038,-0.356,0.081,18.2,-85.5,-60.6,1023,2018,5,17,21,3,16.82,0.5394,-0.2626,-0.495,0.6285
0.029,-0.224,-0.04,11.5,-9.2,-63.9,1023,2018,5,17,21,3,16.824,0.5286,-0.2711,-0.4982,0.6314
-0.015,-0.131,0.043,12.9,18.5,-65.1,1023,2018,5,17,21,3,16.84,0.5202,-0.2752,-0.4957,0.6385
-0.011,-0.008,0.094,17.5,32.6,-68.4,1023,2018,5,17,21,3,16.863,0.513,-0.2765,-0.4902,0.6479
-0.052,0.168,0.125,15.4,14,-68.2,1023,2018,5,17,21,3,16.88,0.5051,-0.2779,-0.4852,0.6573
-0.003,0.241,0.145,14,-16.1,-67.9,1023,2018,5,17,21,3,16.903,0.4961,-0.282,-0.4831,0.6639
-0.022,0.188,0.182,13.7,-59.9,-61.7,1023,2018,5,17,21,3,16.921,0.4853,-0.2891,-0.4859,0.6668
-0.012,0.149,0.235,8.2,-85.6,-51.3,0,2018,5,17,21,3,16.944,0.474,-0.2989,-0.4926,0.6658
0.033,0.06,0.144,1.3,-88.6,-43.5,0,2018,5,17,21,3,16.96,0.4634,-0.3097,-0.5008,0.662
0.022,0.15,0.032,-2.5,-81,-36,0,2018,5,17,21,3,16.979,0.4546,-0.3199,-0.5069,0.6587
-0.027,0.1,-0.054,0.4,-95.3,-33.1,0,2018,5,17,21,3,17.002,0.4458,-0.3297,-0.5144,0.654
-0.026,-0.076,-0.109,0.3,-94.2,-31.1,0,2018,5,17,21,3,17.02,0.4362,-0.3404,-0.5242,0.6472
-0.051,-0.13,0.004,-8.9,-57.2,-33.5,0,2018,5,17,21,3,17.043,0.428,-0.3499,-0.5308,0.6422
-0.049,0.013,-0.038,-17.5,-57.5,-38.2,0,2018,5,17,21,3,17.062,0.4221,-0.3588,-0.5333,0.6391
-0.083,-0.052,-0.072,-21.7,-67.5,-44.8,0,2018,5,17,21,3,17.085,0.4152,-0.3698,-0.5368,0.6345
-0.054,-0.038,-0.103,-27.1,-70.5,-52.9,0,2018,5,17,21,3,17.101,0.4077,-0.3819,-0.5399,0.6294
-0.004,-0.116,-0.17,-29.2,-76.8,-61.3,0,2018,5,17,21,3,17.124,0.3987,-0.3962,-0.543,0.6238
0.029,-0.221,-0.183,-29.4,-50.3,-71.1,0,2018,5,17,21,3,17.143,0.3889,-0.4111,-0.5441,0.6193
0.038,-0.187,-0.188,-26.7,-15,-79.6,0,2018,5,17,21,3,17.165,0.3808,-0.4239,-0.5401,0.6191
0.015,-0.06,-0.15,-22.5,0.2,-81.2,0,2018,5,17,21,3,17.182,0.3733,-0.4356,-0.5333,0.6215
-0.012,-0.047,-0.115,-15.5,1.5,-82.1,0,2018,5,17,21,3,17.199,0.3659,-0.4457,-0.526,0.625
0.049,0.056,-0.137,-5.7,-14.3,-82.6,0,2018,5,17,21,3,17.222,0.3568,-0.4556,-0.5195,0.6285
0.107,0.083,-0.067,6.7,-28.7,-78.2,0,2018,5,17,21,3,17.241,0.346,-0.4642,-0.5155,0.6316
0.122,0.134,-0.097,23.4,-52.1,-72.5,0,2018,5,17,21,3,17.265,0.3329,-0.4716,-0.5146,0.6338
0.243,-0.007,-0.063,32.4,-58.6,-63.4,0,2018,5,17,21,3,17.301,0.3179,-0.4781,-0.5168,0.6349
0.324,-0.081,-0.041,41.8,-47.3,-57.4,0,2018,5,17,21,3,17.301,0.3034,-0.4825,-0.5193,0.6366
0.355,-0.167,-0.041,62.9,-23.4,-51.5,0,2018,5,17,21,3,17.324,0.2893,-0.4837,-0.5216,0.6404
0.312,-0.143,0.028,71.5,37.6,-41,1023,2018,5,17,21,3,17.36,0.2778,-0.4803,-0.5195,0.6497
0.323,0.027,0.024,70.9,85.8,-30.5,1023,2018,5,17,21,3,17.384,0.2727,-0.4724,-0.5124,0.6631
0.318,-0.038,0.091,65.9,148.6,-22.1,1023,2018,5,17,21,3,17.389,0.273,-0.461,-0.4999,0.6803
0.31,0.028,0.05,62.3,228.5,-18.8,1023,2018,5,17,21,3,17.403,0.2801,-0.4461,-0.4781,0.7027
0.261,0.185,0.05,56.7,307.9,-14.1,1023,2018,5,17,21,3,17.44,0.2942,-0.4261,-0.4456,0.7302
0.164,0.592,0.035,53.7,291.7,-12.3,1023,2018,5,17,21,3,17.463,0.3108,-0.4039,-0.4072,0.7578
0.139,0.682,0.081,60.1,211.6,-6.3,1023,2018,5,17,21,3,17.467,0.3228,-0.3832,-0.3758,0.7795
0.013,0.512,0.09,66.2,162.4,4.2,1023,2018,5,17,21,3,17.483,0.3304,-0.3642,-0.3542,0.7953
-0.047,0.514,0.021,69.8,131.9,18,0,2018,5,17,21,3,17.506,0.337,-0.3455,-0.3384,0.8077
-0.137,0.453,-0.094,70.2,128.3,32.3,0,2018,5,17,21,3,17.525,0.344,-0.3267,-0.3254,0.8178
-0.204,0.416,-0.141,70.1,123.5,41.5,0,2018,5,17,21,3,17.543,0.3525,-0.3068,-0.3136,0.8265
-0.218,0.406,-0.175,76.5,99.7,45.9,0,2018,5,17,21,3,17.566,0.3609,-0.2869,-0.3042,0.8335
-0.245,0.43,-0.102,79.8,65,49.7,0,2018,5,17,21,3,17.585,0.3675,-0.2677,-0.2995,0.8387
-0.28,0.327,0.043,62.2,28.3,54.2,0,2018,5,17,21,3,17.608,0.3734,-0.2518,-0.3,0.8409
-0.312,0.119,0.005,37.8,37.2,59.7,0,2018,5,17,21,3,17.644,0.3806,-0.2398,-0.3012,0.8407
-0.326,0.133,-0.05,22.6,57.7,62.2,0,2018,5,17,21,3,17.644,0.3901,-0.2293,-0.298,0.8404
-0.293,0.152,-0.086,14.8,64.1,67.8,0,2018,5,17,21,3,17.666,0.4011,-0.2189,-0.2925,0.8399
-0.14,0.148,-0.134,15.2,37.3,72.8,0,2018,5,17,21,3,17.683,0.4129,-0.2096,-0.288,0.8381
0.026,0.137,-0.208,21.2,20.5,79.3,0,2018,5,17,21,3,17.704,0.4243,-0.2012,-0.288,0.8345
0.097,0.323,-0.3,38.8,-5.1,85.6,0,2018,5,17,21,3,17.742,0.435,-0.1924,-0.2911,0.8299
0.058,0.359,-0.209,55.6,-54.2,94.8,0,2018,5,17,21,3,17.762,0.4447,-0.1833,-0.302,0.823
0.112,0.047,-0.071,58,-66.6,101.2,0,2018,5,17,21,3,17.765,0.4534,-0.1755,-0.3187,0.8135
0.184,-0.188,0.046,53.1,-21.8,99.3,0,2018,5,17,21,3,17.799,0.4632,-0.1658,-0.3323,0.8046
0.161,-0.103,0.087,50.7,27.1,94,0,2018,5,17,21,3,17.821,0.4739,-0.1526,-0.3383,0.7984
0.126,0.042,0.074,46.9,38,91.9,0,2018,5,17,21,3,17.827,0.4849,-0.1374,-0.3393,0.7942
0.119,0.08,-0.02,50.6,17.2,89.6,0,2018,5,17,21,3,17.865,0.4953,-0.123,-0.3414,0.7891
0.236,-0.065,0.068,52.4,12.6,83.1,0,2018,5,17,21,3,17.865,0.5044,-0.1098,-0.346,0.7833
0.187,-0.108,0.11,49.9,27.1,77.5,0,2018,5,17,21,3,17.886,0.5125,-0.0963,-0.3494,0.7784
0.148,-0.176,0.104,48.1,63.8,72.9,1023,2018,5,17,21,3,17.903,0.5204,-0.0813,-0.349,0.775
0.179,-0.161,0.133,50.7,105.2,61.3,1023,2018,5,17,21,3,17.926,0.5278,-0.0626,-0.3424,0.7747
0.26,-0.04,0.067,52.6,127.4,50.5,1023,2018,5,17,21,3,17.961,0.5332,-0.0414,-0.3316,0.7771
0.256,-0.015,0.041,49.3,139.7,48.9,1023,2018,5,17,21,3,17.984,0.5377,-0.0191,-0.3185,0.7803
0.16,0.079,0.094,45.7,150.4,48.5,1023,2018,5,17,21,3,17.987,0.5419,0.0037,-0.3032,0.7837
0.006,0.139,0.111,40.7,145.5,49.3,1023,2018,5,17,21,3,18.023,0.546,0.0265,-0.2866,0.7867
-0.064,0.231,0.057,37,98.3,47.2,1023,2018,5,17,21,3,18.047,0.5498,0.0461,-0.273,0.7879
-0.108,0.227,-0.052,38.2,32.7,46.5,1023,2018,5,17,21,3,18.051,0.554,0.0595,-0.2675,0.786
-0.189,0.13,-0.058,36,-6.3,46.1,1023,2018,5,17,21,3,18.068,0.5583,0.0677,-0.2696,0.7816
-0.187,0.072,-0.258,39.5,-12,49.1,0,2018,5,17,21,3,18.09,0.5633,0.0738,-0.2743,0.7758
-0.162,0.026,-0.395,53.4,25,47.5,0,2018,5,17,21,3,18.109,0.5675,0.0828,-0.2774,0.7707
-0.17,0.033,-0.248,62.9,64.6,44.2,0,2018,5,17,21,3,18.132,0.57,0.0978,-0.2762,0.7675
-0.313,0.167,-0.043,64.5,57.4,40,0,2018,5,17,21,3,18.149,0.5713,0.115,-0.273,0.7653
-0.347,0.247,-0.015,67.4,2.1,38.3,0,2018,5,17,21,3,18.186,0.5726,0.1289,-0.2746,0.7615
-0.385,0.21,-0.077,66.7,-59,42.8,0,2018,5,17,21,3,18.186,0.5754,0.1366,-0.2847,0.7544
-0.303,0.049,-0.263,66.2,-101.9,46.6,0,2018,5,17,21,3,18.209,0.58,0.139,-0.3011,0.7439
-0.195,-0.245,0.232,52.9,-42.3,40.3,0,2018,5,17,21,3,18.227,0.5839,0.1421,-0.3162,0.734
0.051,0.08,0.355,24.2,18.7,43.4,0,2018,5,17,21,3,18.251,0.5869,0.1485,-0.3201,0.7286
-0.099,0.548,0.549,5.2,-28.9,56.5,0,2018,5,17,21,3,18.287,0.5923,0.1536,-0.3201,0.7232
-0.288,0.173,0.308,-0.8,-96.6,59.4,0,2018,5,17,21,3,18.308,0.6013,0.1499,-0.3274,0.7131
-0.25,-0.048,0.035,5.4,-95.3,54.6,0,2018,5,17,21,3,18.313,0.6107,0.1437,-0.3392,0.7008
-0.223,-0.11,-0.039,4.2,-68.4,32.7,0,2018,5,17,21,3,18.331,0.6176,0.1389,-0.3487,0.691
-0.327,-0.238,-0.045,-3.2,-58.6,-1,0,2018,5,17,21,3,18.351,0.6207,0.1335,-0.356,0.6856
-0.369,-0.264,-0.123,-6.1,-57.6,-27.4,0,2018,5,17,21,3,18.37,0.6203,0.1259,-0.3629,0.6838
-0.346,-0.171,-0.2,-4,-66.3,-47.1,0,2018,5,17,21,3,18.389,0.6173,0.1162,-0.3704,0.6841
-0.304,-0.073,-0.18,3.5,-81.4,-61.3,0,2018,5,17,21,3,18.41,0.6121,0.1047,-0.3804,0.6852
-0.256,0.027,-0.1,11.3,-97.2,-69.9,0,2018,5,17,21,3,18.445,0.6052,0.0916,-0.3932,0.686
-0.288,0.014,-0.003,14.9,-105.6,-73.4,0,2018,5,17,21,3,18.469,0.5969,0.0777,-0.4081,0.6862
-0.274,-0.015,-0.009,14.5,-95.2,-76.8,1023,2018,5,17,21,3,18.473,0.5881,0.0634,-0.4231,0.6863
-0.222,0.074,0.007,12.3,-52,-76.8,1023,2018,5,17,21,3,18.489,0.5785,0.0521,-0.4341,0.6885
-0.176,0.004,-0.081,10.6,5.8,-73.8,1023,2018,5,17,21,3,18.512,0.5686,0.0452,-0.4391,0.694
-0.151,-0.132,-0.083,9.6,110.2,-73.1,1023,2018,5,17,21,3,18.53,0.5582,0.0471,-0.4338,0.7056
-0.244,0.018,-0.04,1,182.5,-80.3,1023,2018,5,17,21,3,18.553,0.5467,0.0572,-0.416,0.7243
-0.303,0.182,0.019,-11.3,178.3,-88.1,1023,2018,5,17,21,3,18.572,0.5341,0.0683,-0.3927,0.7455
-0.398,-0.055,-0.067,-19.2,142.6,-94.2,1023,2018,5,17,21,3,18.594,0.5208,0.0749,-0.3721,0.7646
-0.317,-0.135,-0.204,-22,147.1,-104.7,1023,2018,5,17,21,3,18.611,0.5065,0.0791,-0.3521,0.783
-0.252,0.056,-0.244,-18.1,118.5,-112.4,1023,2018,5,17,21,3,18.629,0.4905,0.0819,-0.3333,0.8009
-0.144,0.143,-0.073,-17.7,70.8,-111.6,0,2018,5,17,21,3,18.651,0.4742,0.0811,-0.3205,0.8159
-0.164,-0.083,0.183,-31.3,46,-104.6,0,2018,5,17,21,3,18.67,0.4592,0.0767,-0.3119,0.8281
-0.228,-0.12,0.214,-55.3,23.3,-105.9,0,2018,5,17,21,3,18.692,0.4459,0.0681,-0.3049,0.8387
-0.067,0.062,0.102,-65.8,-39.2,-102.3,0,2018,5,17,21,3,18.711,0.4341,0.0537,-0.3014,0.8471
-0.039,0.04,0.039,-66.5,-116.1,-106.2,0,2018,5,17,21,3,18.734,0.4233,0.0326,-0.3088,0.851
-0.015,0.001,0.151,-63.9,-149.6,-112.8,0,2018,5,17,21,3,18.753,0.4112,0.0068,-0.3239,0.8519
0.061,0.201,0.259,-70.1,-164.7,-113,0,2018,5,17,21,3,18.776,0.398,-0.0208,-0.3422,0.8509
0.091,0.172,0.187,-77,-186.1,-101.9,0,2018,5,17,21,3,18.793,0.3855,-0.0502,-0.3623,0.847
0.134,-0.101,0.1,-82.5,-196.1,-91.6,0,2018,5,17,21,3,18.818,0.3742,-0.0813,-0.385,0.8396
0.169,-0.015,0.121,-92.5,-137.5,-85.3,0,2018,5,17,21,3,18.832,0.3642,-0.1116,-0.4021,0.8325
0.284,0.26,0.165,-99.7,-89.2,-72.6,0,2018,5,17,21,3,18.851,0.3573,-0.138,-0.4098,0.8278
0.327,0.5,0.11,-102.8,-84.3,-52,0,2018,5,17,21,3,18.874,0.3534,-0.1625,-0.4139,0.8229
0.224,0.397,0.204,-102,-105.8,-35.8,0,2018,5,17,21,3,18.911,0.352,-0.1859,-0.4196,0.8157
0.134,0.528,0.4,-111.2,-135.1,-32.9,0,2018,5,17,21,3,18.911,0.3508,-0.211,-0.4287,0.8052
0.392,0.688,0.46,-122.6,-160.2,-26.6,0,2018,5,17,21,3,18.934,0.3497,-0.2386,-0.4405,0.7915
0.42,0.653,0.245,-133.7,-213.9,-14,0,2018,5,17,21,3,18.952,0.3488,-0.2694,-0.4575,0.7722
0.292,0.107,-0.25,-119,-212.9,-15,0,2018,5,17,21,3,18.975,0.347,-0.3012,-0.478,0.7484
0.268,-0.403,-0.437,-115.7,-140.5,-44.6,0,2018,5,17,21,3,18.993,0.3436,-0.3297,-0.4917,0.7289
0.363,-0.299,-0.311,-96.2,-102.3,-84.8,0,2018,5,17,21,3,19.017,0.3373,-0.3556,-0.4962,0.7165
0.404,-0.04,-0.151,-79.2,-117.2,-102.7,0,2018,5,17,21,3,19.034,0.3258,-0.3812,-0.4985,0.707
0.221,0.099,-0.114,-73.6,-82.6,-102.4,1023,2018,5,17,21,3,19.057,0.3129,-0.4051,-0.4994,0.6988
0.073,0.282,-0.129,-59.3,-84.1,-94.6,1023,2018,5,17,21,3,19.075,0.301,-0.4264,-0.4977,0.6926
-0.05,0.155,-0.211,-39.3,-85.7,-79.9,1023,2018,5,17,21,3,19.091,0.2878,-0.4446,-0.4994,0.6855
-0.136,0.182,-0.214,-24.6,-43.2,-62.7,1023,2018,5,17,21,3,19.113,0.2769,-0.4578,-0.4999,0.6809
-0.209,0.271,-0.104,-19.2,-3.9,-42.5,1023,2018,5,17,21,3,19.152,0.2709,-0.4659,-0.4967,0.6801
-0.148,0.338,-0.042,-19.3,42.9,-13,1023,2018,5,17,21,3,19.175,0.2707,-0.47,-0.4912,0.6814
-0.183,0.488,-0.072,-17.4,87.2,23.5,1023,2018,5,17,21,3,19.18,0.2782,-0.469,-0.4827,0.6851
-0.188,0.352,-0.148,-6.6,123.2,65.5,1023,2018,5,17,21,3,19.196,0.2933,-0.4617,-0.4726,0.6908
-0.313,-0.094,0.04,9,183,90.1,1023,2018,5,17,21,3,19.219,0.3145,-0.4473,-0.4606,0.699
-0.409,-0.524,0.249,9.8,309.7,106.2,0,2018,5,17,21,3,19.237,0.3445,-0.4242,-0.4384,0.7134
-0.349,-0.253,0.235,-3.6,454.3,112.9,0,2018,5,17,21,3,19.256,0.3857,-0.3913,-0.3968,0.7352
-0.081,0.323,0.131,0.5,494.9,116.5,0,2018,5,17,21,3,19.279,0.4326,-0.3496,-0.3397,0.7583
-0.111,0.606,0.39,28.2,338.9,108.5,0,2018,5,17,21,3,19.297,0.4714,-0.3081,-0.2902,0.7736
-0.233,0.263,0.612,44.6,163.3,93.1,0,2018,5,17,21,3,19.32,0.4957,-0.2778,-0.2655,0.7788
-0.104,0.277,0.59,36.2,29.9,89.8,0,2018,5,17,21,3,19.336,0.5105,-0.2604,-0.2605,0.7769
-0.008,-0.024,0.314,35.8,-66.7,77,0,2018,5,17,21,3,19.373,0.5191,-0.2543,-0.2706,0.7697
0.123,-0.246,-0.063,35.6,-100.3,60.8,0,2018,5,17,21,3,19.397,0.5227,-0.2545,-0.2881,0.7608
0.295,-0.304,-0.304,49.6,-112.2,46.3,0,2018,5,17,21,3,19.401,0.5229,-0.2563,-0.3084,0.7521
0.318,-0.127,-0.41,69.9,-127.5,34,0,2018,5,17,21,3,19.417,0.5193,-0.2573,-0.3308,0.7447
0.284,-0.046,-0.424,86.5,-148.4,37.7,0,2018,5,17,21,3,19.438,0.5127,-0.258,-0.3575,0.7366
0.274,0.2,-0.408,101.3,-141.4,40.1,0,2018,5,17,21,3,19.473,0.5053,-0.256,-0.3853,0.7283
0.196,-0.18,-0.452,112.7,-133.6,49.2,0,2018,5,17,21,3,19.495,0.497,-0.2521,-0.4151,0.719
0.136,-0.396,-0.397,113.3,-47.6,44.2,0,2018,5,17,21,3,19.5,0.4905,-0.2422,-0.4384,0.7129
0.066,-0.318,-0.278,112.9,20.5,34.1,0,2018,5,17,21,3,19.517,0.4861,-0.2262,-0.4512,0.7133
-0.002,0.02,-0.073,103.3,99.9,22.9,0,2018,5,17,21,3,19.54,0.4833,-0.205,-0.4533,0.7202
-0.076,0.322,0.104,93.2,103.8,21.4,0,2018,5,17,21,3,19.557,0.4821,-0.1817,-0.4483,0.7304
-0.101,0.448,0.152,86.2,33,29.5,0,2018,5,17,21,3,19.575,0.4806,-0.1622,-0.4471,0.7367
-0.143,-0.145,0.058,76.1,-23.6,25.4,0,2018,5,17,21,3,19.598,0.4776,-0.1497,-0.4563,0.7356
0.023,-0.044,0.332,44.5,4.8,13.2,0,2018,5,17,21,3,19.617,0.4753,-0.1407,-0.4622,0.7352
0.097,0.589,0.522,21.5,-82.5,25.8,1023,2018,5,17,21,3,19.64,0.4745,-0.1363,-0.4682,0.7327
0.101,0.205,0.304,4.3,-207.1,24.5,1023,2018,5,17,21,3,19.658,0.4722,-0.1449,-0.4897,0.7184
0.009,-0.833,-0.077,-5,-188.9,5.1,1023,2018,5,17,21,3,19.68,0.4679,-0.1627,-0.5182,0.6971
0.148,0.124,-0.024,-12.6,-28.1,6.4,1023,2018,5,17,21,3,19.717,0.4663,-0.1706,-0.529,0.6881
0.139,0.266,-0.021,-9.8,-51.7,18.8,1023,2018,5,17,21,3,19.74,0.4679,-0.1738,-0.5333,0.6828
0.102,0.366,-0.003,-12.5,-26.9,23.9,1023,2018,5,17,21,3,19.745,0.4703,-0.1758,-0.5372,0.6776
0.135,0.056,0.018,-11.5,-24.6,29.8,1023,2018,5,17,21,3,19.779,0.4738,-0.1768,-0.5408,0.6721
0.125,-0.005,-0.03,-3.9,17,24.9,1023,2018,5,17,21,3,19.802,0.477,-0.1756,-0.5413,0.6696
0.126,0.036,-0.05,9.5,43.8,26.4,1023,2018,5,17,21,3,19.807,0.4802,-0.1714,-0.5383,0.6709
0.104,0.192,0.041,14.8,96.9,33.6,0,2018,5,17,21,3,19.817,0.4841,-0.1614,-0.5315,0.676
0.046,0.173,0.13,18.2,145.6,35.8,0,2018,5,17,21,3,19.857,0.4899,-0.1454,-0.5198,0.6844
0.12,0.322,0.062,22.1,207.7,42.1,0,2018,5,17,21,3,19.88,0.4969,-0.1238,-0.5011,0.6975
0.09,-0.012,-0.161,43.5,252.8,46.7,0,2018,5,17,21,3,19.885,0.5038,-0.0957,-0.4766,0.7139
0.054,0.067,-0.004,55.4,322.1,43.6,0,2018,5,17,21,3,19.901,0.5092,-0.0602,-0.4452,0.734
0.005,0.211,0.361,62.6,295,25.6,0,2018,5,17,21,3,19.938,0.5116,-0.0212,-0.4097,0.7549
0.108,0.119,0.421,64.8,212.6,-0.9,0,2018,5,17,21,3,19.961,0.5087,0.011,-0.3819,0.7715
0.251,-0.048,0.072,70.2,140.3,-11.6,0,2018,5,17,21,3,19.974,0.5023,0.0349,-0.3652,0.7829
0.107,-0.464,-0.033,66.5,209.6,-14.3,0,2018,5,17,21,3,20.009,0.4947,0.0585,-0.3483,0.7939
-0.127,-0.149,0.09,59,236.2,-35.8,0,2018,5,17,21,3,20.011,0.4841,0.0862,-0.3219,0.809
-0.279,-0.088,0.647,38.3,151.4,-52,0,2018,5,17,21,3,20.02,0.4717,0.1075,-0.2982,0.8227
-0.32,-0.045,0.623,7.3,76.2,-49.6,0,2018,5,17,21,3,20.058,0.4612,0.1175,-0.2843,0.8322
-0.213,0.214,0.396,-22.5,5.4,-40.1,0,2018,5,17,21,3,20.081,0.4542,0.1172,-0.2788,0.8379
-0.297,0.154,0.407,-43.7,-68.2,-31.5,0,2018,5,17,21,3,20.086,0.4513,0.1081,-0.2815,0.8398
-0.291,0.414,0.306,-57.5,-158.9,-24.1,0,2018,5,17,21,3,20.101,0.4515,0.0901,-0.2953,0.8371
-0.317,0.411,0.158,-62.5,-211.8,-13.7,0,2018,5,17,21,3,20.119,0.4546,0.0654,-0.3185,0.8291
-0.247,0.48,-0.111,-52.6,-259.5,-8.1,0,2018,5,17,21,3,20.143,0.4583,0.0375,-0.348,0.8168
-0.236,0.339,-0.319,-26.2,-307.5,-2.3,0,2018,5,17,21,3,20.178,0.4611,0.0085,-0.3856,0.799
-0.212,0.129,-0.424,0.4,-287.9,4.3,0,2018,5,17,21,3,20.201,0.4615,-0.0172,-0.4267,0.7775
-0.311,-0.094,-0.357,7.2,-232.8,24.5,0,2018,5,17,21,3,20.205,0.4618,-0.0357,-0.4618,0.7564
-0.227,-0.114,-0.333,1.7,-117.3,42.8,1023,2018,5,17,21,3,20.224,0.4646,-0.0464,-0.4854,0.7391
-0.134,0.177,-0.346,4.5,-16.6,63.6,1023,2018,5,17,21,3,20.246,0.4706,-0.0464,-0.4941,0.7294
-0.062,0.576,-0.247,12.3,26.5,91.5,1023,2018,5,17,21,3,20.261,0.4798,-0.0373,-0.4935,0.7244
-0.065,0.608,-0.13,17.4,-9.5,121.1,1023,2018,5,17,21,3,20.28,0.4919,-0.0251,-0.4944,0.7161
-0.131,0.568,-0.18,15,-42.2,153.3,1023,2018,5,17,21,3,20.303,0.5073,-0.0134,-0.4999,0.7017
0.056,0.261,-0.117,4,-8,177.9,1023,2018,5,17,21,3,20.34,0.5263,0,-0.505,0.684
0.113,0.255,-0.457,7.3,35.9,200.8,1023,2018,5,17,21,3,20.362,0.5485,0.0188,-0.5029,0.6677
0.169,0.041,-0.736,43.8,72,210.6,1023,2018,5,17,21,3,20.368,0.5699,0.0454,-0.4981,0.6519
0.208,-0.151,-0.682,89.4,92.9,202.3,1023,2018,5,17,21,3,20.384,0.5863,0.0797,-0.4934,0.6375
0.144,-0.439,-0.563,140.5,68.7,169.5,0,2018,5,17,21,3,20.403,0.5954,0.1168,-0.4936,0.6229
0.025,-0.518,-0.59,194.1,-13.7,116.7,0,2018,5,17,21,3,20.426,0.595,0.151,-0.5046,0.6069
-0.126,-0.484,-0.531,235,-104,83,0,2018,5,17,21,3,20.445,0.5871,0.1761,-0.5311,0.5848
-0.227,-0.681,-0.367,252.4,-171.4,58.6,0,2018,5,17,21,3,20.468,0.5751,0.1932,-0.5681,0.5559
-0.257,-0.822,-0.249,243.1,-173.8,27.6,0,2018,5,17,21,3,20.486,0.5593,0.2037,-0.6084,0.5247
-0.3,-0.589,0.118,218.1,-160.9,3.5,0,2018,5,17,21,3,20.509,0.5409,0.2106,-0.6448,0.4971
-0.434,-0.62,0.536,167.4,-199.8,-16.8,0,2018,5,17,21,3,20.524,0.5245,0.2093,-0.6786,0.4695
-0.199,-0.454,0.438,124.6,-205.6,-23.4,0,2018,5,17,21,3,20.542,0.5129,0.1998,-0.7085,0.4414
-0.119,-0.295,0.248,106.3,-181.4,-30.7,0,2018,5,17,21,3,20.565,0.503,0.1876,-0.7344,0.415
-0.151,-0.19,0.115,92.4,-141.9,-26.9,0,2018,5,17,21,3,20.601,0.4934,0.1771,-0.7549,0.3939
-0.151,-0.091,0.535,70.8,-92.5,-16.5,0,2018,5,17,21,3,20.624,0.4845,0.1684,-0.7714,0.3764
-0.458,0.528,1.129,26.7,-15.3,18.7,0,2018,5,17,21,3,20.629,0.4807,0.1693,-0.7773,0.3688
-0.201,0.356,0.374,14,-11.7,26.8,0,2018,5,17,21,3,20.645,0.4798,0.1722,-0.7792,0.3643
-0.109,0.143,0.265,11.8,-31.7,39.1,0,2018,5,17,21,3,20.667,0.4803,0.177,-0.7805,0.3586
-0.203,-0.577,0.232,13,-59.2,23.6,0,2018,5,17,21,3,20.685,0.482,0.1782,-0.7838,0.3484
-0.016,-0.493,0.233,6.4,-25.5,9.2,0,2018,5,17,21,3,20.709,0.4826,0.1777,-0.7869,0.3407
0.048,-0.426,0.161,-2.6,9.8,-3.5,0,2018,5,17,21,3,20.725,0.483,0.1775,-0.7874,0.3391
0.126,-0.404,0.032,-3.9,65.1,-15.2,0,2018,5,17,21,3,20.744,0.4815,0.1794,-0.7853,0.3451
0.184,-0.289,-0.057,-1.7,129,-22.3,0,2018,5,17,21,3,20.767,0.4774,0.1853,-0.7796,0.3604
0.13,-0.025,0.043,-2.6,161.8,-24.1,1023,2018,5,17,21,3,20.783,0.471,0.194,-0.7707,0.3826
0.156,0.093,-0.069,-3.8,162.7,-21.5,1023,2018,5,17,21,3,20.806,0.4638,0.2042,-0.7599,0.4068
0.285,0.307,-0.435,11,176.7,-0.7,1023,2018,5,17,21,3,20.842,0.4563,0.2162,-0.7488,0.4292
0.183,0.583,-0.297,17.8,186.7,14.3,1023,2018,5,17,21,3,20.866,0.4475,0.2337,-0.7353,0.452
0.049,0.199,-0.025,24.4,128.4,20.6,1023,2018,5,17,21,3,20.87,0.4395,0.2499,-0.7239,0.4691
0.137,0.49,0.209,11.1,126.8,40.7,1023,2018,5,17,21,3,20.887,0.4337,0.2657,-0.7134,0.4819
0.356,0.391,-0.204,13.2,151.8,57.6,1023,2018,5,17,21,3,20.91,0.4302,0.283,-0.7004,0.4941
0.062,0.349,-0.1,22.4,183.7,74.7,1023,2018,5,17,21,3,20.928,0.4251,0.3061,-0.6834,0.5083
-0.035,0.226,0.417,10.8,193.1,71,1023,2018,5,17,21,3,20.951,0.4192,0.3304,-0.6633,0.5244
0.321,0.445,0.248,15.1,188.5,71.3,0,2018,5,17,21,3,20.969,0.4126,0.3534,-0.6424,0.5403
0.319,0.562,0.33,14.8,172.1,94.6,0,2018,5,17,21,3,20.992,0.407,0.3772,-0.6213,0.5531
0.105,0.754,0.358,5.5,161.6,117.5,0,2018,5,17,21,3,21.006,0.4041,0.4021,-0.5988,0.5624
-0.133,-0.059,0.898,-32,184.2,135.8,0,2018,5,17,21,3,21.029,0.4062,0.4254,-0.5726,0.5709
-0.38,0.14,1.151,-58.7,106.6,121.7,0,2018,5,17,21,3,21.047,0.4111,0.4455,-0.5427,0.5813
-0.447,-0.198,0.758,-66,-76.3,79.2,0,2018,5,17,21,3,21.07,0.4261,0.4496,-0.5294,0.5795
-0.532,-1.235,0.264,-68.1,-106.6,24.1,0,2018,5,17,21,3,21.088,0.4458,0.4393,-0.5321,0.5701
-0.628,-0.664,0.203,-79.6,-62.3,-35.6,0,2018,5,17,21,3,21.111,0.4575,0.4254,-0.5341,0.5695
-0.454,0.034,-0.129,-54.5,-84.5,-69,0,2018,5,17,21,3,21.129,0.4632,0.4079,-0.5406,0.5715
-0.494,-0.068,0.137,-45.8,-51.7,-96.8,0,2018,5,17,21,3,21.152,0.4648,0.3891,-0.5501,0.5742
-0.258,1.273,-0.167,-54.3,61.8,-64.3,0,2018,5,17,21,3,21.17,0.4601,0.3772,-0.5504,0.5855
-0.016,1.342,-0.242,-41.7,-6.8,-24,0,2018,5,17,21,3,21.193,0.458,0.3714,-0.5457,0.5953
0.106,0.84,-0.188,-12.6,-141.4,-9.3,0,2018,5,17,21,3,21.209,0.4631,0.3618,-0.5521,0.5913
-0.057,-0.34,-0.501,22.1,-267.6,-2.1,0,2018,5,17,21,3,21.227,0.4748,0.3445,-0.5751,0.57
-0.235,-0.69,-0.38,32.7,-248.4,2.8,0,2018,5,17,21,3,21.25,0.4868,0.3251,-0.6042,0.5404
-0.206,-0.979,-0.306,12.3,-121.5,-5.1,0,2018,5,17,21,3,21.266,0.4946,0.3112,-0.6239,0.5186
-0.005,-0.646,-0.317,-5.7,29.4,-20.1,0,2018,5,17,21,3,21.287,0.4953,0.3071,-0.628,0.5156
0.089,-0.283,-0.32,-8.1,80.7,-32.2,0,2018,5,17,21,3,21.307,0.4901,0.309,-0.6233,0.525
0.15,0.057,-0.151,-14.8,99.2,-35.3,0,2018,5,17,21,3,21.33,0.4827,0.3124,-0.6156,0.5388
0.005,0.164,0.174,-34.2,72.9,-28.1,0,2018,5,17,21,3,21.367,0.4777,0.3142,-0.6068,0.5519
-0.145,-0.096,0.347,-81.1,73.9,-22.2,1023,2018,5,17,21,3,21.39,0.4772,0.3118,-0.5968,0.5645
-0.091,-0.207,0.263,-135.6,122,-17.4,1023,2018,5,17,21,3,21.395,0.4813,0.3068,-0.5793,0.5818
-0.195,0.014,0.234,-181.7,178.5,6.7,1023,2018,5,17,21,3,21.414,0.4881,0.3027,-0.5502,0.606
-0.437,0.224,0.559,-240,225.9,39.3,1023,2018,5,17,21,3,21.432,0.4987,0.3002,-0.5087,0.6342
-0.606,0.53,0.539,-312.6,209.3,102.4,1023,2018,5,17,21,3,21.451,0.5187,0.2942,-0.4549,0.6612
-0.613,0.29,0.334,-349.8,143.8,154.5,1023,2018,5,17,21,3,21.474,0.55,0.2812,-0.3965,0.679
-0.361,0.292,-0.046,-350.7,25.6,185,1023,2018,5,17,21,3,21.491,0.5892,0.2585,-0.3434,0.6841
-0.322,0.03,-0.124,-341.4,-92.8,190.6,1023,2018,5,17,21,3,21.509,0.6327,0.224,-0.3034,0.6763
-0.331,-0.333,-0.125,-337,-191.1,167.5,1023,2018,5,17,21,3,21.532,0.6758,0.1769,-0.2755,0.6603
-0.348,-0.542,-0.212,-333.6,-261.6,125.4,1023,2018,5,17,21,3,21.568,0.7137,0.1177,-0.2571,0.6407
-0.26,-0.494,-0.484,-314.2,-310.3,75.9,1023,2018,5,17,21,3,21.591,0.7433,0.0495,-0.2455,0.6202
-0.107,-0.236,-0.612,-281.3,-379.8,14.2,0,2018,5,17,21,3,21.596,0.7612,-0.0258,-0.2428,0.6006
-0.044,-0.727,-0.616,-242.9,-347.4,-42.3,0,2018,5,17,21,3,21.612,0.7664,-0.1043,-0.2467,0.5837
0.133,-0.427,-0.56,-195.8,-246.7,-95.4,0,2018,5,17,21,3,21.635,0.7615,-0.1689,-0.2452,0.5756
0.209,-0.145,-0.391,-144,-182.3,-122.2,0,2018,5,17,21,3,21.653,0.7505,-0.2182,-0.2399,0.5756
-0.199,-0.027,0.353,-107.4,-209.7,-159.8,0,2018,5,17,21,3,21.672,0.7335,-0.2608,-0.2372,0.581
