ax,ay,az,dpitch,droll,dyaw,heart,time_1,time_2,time_3,time_4,time_5,time_6,w,x,y,z
0.014,-0.008,0.023,0,-3.8,1,0,2018,5,16,19,16,29.437,0.1985,0.5117,-0.3902,0.7391
0.014,-0.005,0.024,0,-3.7,1.2,0,2018,5,16,19,16,29.457,0.199,0.5114,-0.3906,0.739
0.017,-0.01,0.024,-0.4,-3.1,1.5,0,2018,5,16,19,16,29.474,0.1994,0.5112,-0.3908,0.7389
0.025,-0.002,0.022,-0.6,-2.5,1.6,0,2018,5,16,19,16,29.511,0.1999,0.5109,-0.391,0.7389
0.03,0.004,0.03,-1.8,-2.9,1.8,0,2018,5,16,19,16,29.515,0.2004,0.5106,-0.391,0.739
0.024,0.016,0.013,-3.4,-7,2.1,0,2018,5,16,19,16,29.532,0.2013,0.51,-0.3913,0.739
0.013,0.006,0.009,-4.7,-13.1,3,0,2018,5,16,19,16,29.552,0.2029,0.5092,-0.3921,0.7387
0.004,-0.012,0.013,-5.9,-17.4,4.2,0,2018,5,16,19,16,29.571,0.2051,0.5081,-0.3935,0.738
-0.009,-0.002,0.038,-7,-19,5.2,0,2018,5,16,19,16,29.609,0.2078,0.5068,-0.3952,0.7373
-0.014,-0.007,0.058,-9.5,-21.5,4.9,0,2018,5,16,19,16,29.628,0.2109,0.505,-0.3968,0.7367
-0.004,0.005,0.048,-13.5,-25.2,5.2,0,2018,5,16,19,16,29.633,0.2145,0.5027,-0.3987,0.7363
0.004,0.014,0.046,-17.3,-30.9,5.7,0,2018,5,16,19,16,29.669,0.2189,0.4998,-0.4009,0.7357
-0.012,0.007,0.069,-19.9,-36.8,5.9,0,2018,5,16,19,16,29.691,0.2241,0.4963,-0.4038,0.735
-0.015,-0.002,0.074,-22.5,-38.8,6.9,0,2018,5,16,19,16,29.695,0.2299,0.4921,-0.4069,0.7343
-0.002,0,0.061,-24.6,-39.6,7.4,0,2018,5,16,19,16,29.711,0.2361,0.4876,-0.41,0.7336
-0.003,-0.001,0.067,-25.6,-40,7.7,0,2018,5,16,19,16,29.749,0.2423,0.4829,-0.4131,0.733
-0.006,-0.01,0.089,-27.7,-40.1,7.5,0,2018,5,16,19,16,29.767,0.2487,0.4779,-0.4161,0.7324
-0.006,-0.007,0.082,-29.9,-39.8,7.5,0,2018,5,16,19,16,29.771,0.2553,0.4725,-0.4189,0.7321
-0.001,-0.005,0.056,-30.8,-39.5,7.1,0,2018,5,16,19,16,29.793,0.2618,0.467,-0.4217,0.7317
0.004,-0.009,0.053,-31,-39.7,6,0,2018,5,16,19,16,29.814,0.2683,0.4613,-0.4246,0.7313
-0.019,-0.016,0.061,-30.1,-33.7,4,0,2018,5,16,19,16,29.85,0.2742,0.4556,-0.4272,0.7311
-0.03,0.014,0.011,-29.3,-25.5,3.2,0,2018,5,16,19,16,29.871,0.2794,0.4505,-0.429,0.7313
-0.041,0.049,-0.067,-26.9,-23.2,2.4,0,2018,5,16,19,16,29.875,0.2839,0.4464,-0.4303,0.7313
-0.046,0.064,-0.102,-23.7,-22.9,3.5,0,2018,5,16,19,16,29.913,0.2881,0.443,-0.4319,0.7308
-0.054,0.106,-0.106,-21.1,-23.3,5.3,0,2018,5,16,19,16,29.932,0.2921,0.4393,-0.4333,0.7306
-0.059,0.146,-0.112,-19.4,-29.1,8.3,0,2018,5,16,19,16,29.936,0.2965,0.436,-0.435,0.7298
-0.05,0.186,-0.115,-21.2,-44.8,11.9,0,2018,5,16,19,16,29.953,0.3021,0.4323,-0.4378,0.728
-0.022,0.207,-0.092,-26.5,-71,16.8,0,2018,5,16,19,16,29.991,0.3101,0.4272,-0.4428,0.7246
0.005,0.153,-0.124,-26.5,-84.7,23.6,0,2018,5,16,19,16,30.013,0.3208,0.421,-0.4499,0.7192
0.019,0.089,-0.179,-19.3,-78.2,32.7,0,2018,5,16,19,16,30.017,0.3322,0.4156,-0.4568,0.7128
0.039,0.11,-0.239,-8.7,-65.6,42.5,0,2018,5,16,19,16,30.035,0.3431,0.4127,-0.4621,0.7059
0.045,0.116,-0.285,2.2,-61.5,52.2,0,2018,5,16,19,16,30.055,0.3537,0.4124,-0.4661,0.6981
0.027,0.091,-0.302,11.7,-62.4,60.9,0,2018,5,16,19,16,30.076,0.3645,0.4141,-0.47,0.6889
0.024,0.047,-0.31,20,-63.1,69.2,0,2018,5,16,19,16,30.095,0.3755,0.4173,-0.4738,0.6783
0.002,0.009,-0.273,28.9,-59.8,76,0,2018,5,16,19,16,30.115,0.3865,0.4221,-0.4774,0.6666
0.007,-0.048,-0.267,36.6,-54.8,81.7,0,2018,5,16,19,16,30.156,0.3971,0.4286,-0.4804,0.6539
0.036,-0.135,-0.323,49.4,-45.1,87.7,0,2018,5,16,19,16,30.162,0.407,0.437,-0.4826,0.6405
0.032,-0.187,-0.275,72.6,-23.5,89.1,0,2018,5,16,19,16,30.18,0.4143,0.4488,-0.484,0.6265
-0.017,-0.219,-0.167,93.5,1.1,87.5,0,2018,5,16,19,16,30.199,0.4176,0.4646,-0.4842,0.6125
-0.022,-0.255,-0.087,109.7,25.2,84,0,2018,5,16,19,16,30.219,0.4169,0.4836,-0.4831,0.5989
-0.064,-0.27,-0.018,122.2,40.9,77.9,0,2018,5,16,19,16,30.237,0.4124,0.5051,-0.481,0.5859
-0.108,-0.276,0.093,126.7,39.1,71.6,0,2018,5,16,19,16,30.256,0.4057,0.5269,-0.4791,0.5727
-0.141,-0.332,0.197,122.9,30.1,68.4,0,2018,5,16,19,16,30.294,0.3989,0.5475,-0.4779,0.559
-0.165,-0.37,0.298,116,23.8,64.1,0,2018,5,16,19,16,30.315,0.3927,0.5664,-0.4772,0.545
-0.184,-0.351,0.372,105.4,18.2,58.3,0,2018,5,16,19,16,30.319,0.3871,0.5833,-0.4766,0.5315
-0.179,-0.307,0.402,92.3,6.2,53.4,0,2018,5,16,19,16,30.337,0.3827,0.5979,-0.4763,0.5186
-0.178,-0.312,0.442,80.7,-6.8,48.4,0,2018,5,16,19,16,30.375,0.3802,0.6097,-0.4768,0.5061
-0.205,-0.338,0.514,69.2,-19.1,43.4,0,2018,5,16,19,16,30.395,0.3794,0.6192,-0.478,0.494
-0.266,-0.371,0.573,56.7,-29.2,39.4,0,2018,5,16,19,16,30.399,0.3804,0.6263,-0.4798,0.4823
-0.303,-0.445,0.644,42.5,-35.9,36,0,2018,5,16,19,16,30.419,0.383,0.6314,-0.4817,0.4716
-0.308,-0.538,0.715,26.4,-39.5,31,0,2018,5,16,19,16,30.439,0.3871,0.6345,-0.4834,0.4624
-0.287,-0.594,0.711,11.4,-40.4,24.9,0,2018,5,16,19,16,30.475,0.3922,0.6355,-0.4847,0.4551
-0.28,-0.649,0.638,4.3,-30.2,17.6,0,2018,5,16,19,16,30.479,0.3974,0.6354,-0.4857,0.4497
-0.355,-0.751,0.716,4.8,4.4,7.9,0,2018,5,16,19,16,30.496,0.3995,0.6359,-0.4857,0.4471
-0.478,-0.789,0.778,-4.6,55.1,-3.2,0,2018,5,16,19,16,30.536,0.3962,0.6383,-0.4832,0.4494
-0.331,-0.628,0.652,-22.4,94,-18.1,0,2018,5,16,19,16,30.557,0.3878,0.6416,-0.4773,0.4582
-0.101,-0.411,0.469,-40.9,99,-36.4,0,2018,5,16,19,16,30.562,0.3771,0.6433,-0.4701,0.4719
0.065,-0.251,0.389,-55.9,81,-54.4,0,2018,5,16,19,16,30.578,0.367,0.6414,-0.4645,0.4878
0.149,-0.197,0.385,-67.2,58.9,-68.2,0,2018,5,16,19,16,30.617,0.359,0.6353,-0.4616,0.5043
0.074,-0.274,0.439,-75.6,61.4,-73.5,0,2018,5,16,19,16,30.638,0.352,0.6267,-0.4599,0.5213
-0.018,-0.364,0.428,-86.3,84.3,-69.8,0,2018,5,16,19,16,30.641,0.3439,0.6178,-0.4561,0.5403
-0.085,-0.401,0.324,-97.3,108.4,-60.5,0,2018,5,16,19,16,30.679,0.3344,0.6096,-0.4482,0.5617
-0.153,-0.426,0.205,-107,127.8,-49.2,0,2018,5,16,19,16,30.698,0.3243,0.6019,-0.4362,0.5849
-0.246,-0.411,0.099,-119,135.4,-41.4,0,2018,5,16,19,16,30.701,0.3141,0.5942,-0.4207,0.6091
-0.394,-0.385,0.012,-136.3,124.6,-39.4,0,2018,5,16,19,16,30.718,0.3055,0.5846,-0.4036,0.6339
-0.407,-0.307,-0.109,-156.3,96.7,-43.3,0,2018,5,16,19,16,30.74,0.2997,0.5711,-0.3874,0.6586
-0.344,-0.219,-0.215,-174.3,52.7,-53.8,0,2018,5,16,19,16,30.758,0.2977,0.5523,-0.3748,0.6824
-0.293,-0.149,-0.307,-184.8,-7.1,-72.2,0,2018,5,16,19,16,30.78,0.2997,0.5275,-0.3686,0.7042
-0.252,-0.151,-0.382,-186,-61.2,-94.6,0,2018,5,16,19,16,30.819,0.3045,0.4969,-0.3709,0.7229
-0.293,-0.154,-0.417,-176.6,-93.7,-117.4,0,2018,5,16,19,16,30.823,0.3095,0.4624,-0.3804,0.7386
-0.335,-0.171,-0.443,-162.1,-101.5,-135.2,0,2018,5,16,19,16,30.84,0.3121,0.4263,-0.394,0.7519
-0.379,-0.155,-0.471,-144.7,-89.7,-147,0,2018,5,16,19,16,30.88,0.311,0.3908,-0.4086,0.7638
-0.41,-0.113,-0.524,-125.2,-64.1,-153,0,2018,5,16,19,16,30.901,0.3055,0.3576,-0.4216,0.7752
-0.498,-0.069,-0.56,-104.1,-30.6,-156.6,0,2018,5,16,19,16,30.905,0.2957,0.328,-0.4312,0.7867
-0.559,0.019,-0.597,-86.8,0.4,-161.4,0,2018,5,16,19,16,30.919,0.2816,0.3021,-0.4371,0.7989
-0.646,0.164,-0.646,-72.4,24.8,-163.7,0,2018,5,16,19,16,30.953,0.264,0.2792,-0.4396,0.8118
-0.717,0.286,-0.734,-61.2,35.1,-160.8,0,2018,5,16,19,16,30.974,0.2444,0.2586,-0.4397,0.8245
-0.846,0.45,-0.815,-49.9,25.1,-154.4,0,2018,5,16,19,16,30.981,0.2244,0.2397,-0.4397,0.8358
-0.847,0.646,-0.846,-37.3,-2.7,-142.2,0,2018,5,16,19,16,31.003,0.2055,0.2223,-0.4424,0.8441
-0.763,0.652,-0.721,-21.3,-24,-124.5,0,2018,5,16,19,16,31.022,0.1886,0.2072,-0.4487,0.8485
-0.684,0.628,-0.592,-11.3,-34,-101.8,0,2018,5,16,19,16,31.061,0.174,0.195,-0.4566,0.8503
-0.563,0.674,-0.591,-3.6,-39.7,-74.1,0,2018,5,16,19,16,31.081,0.1629,0.1857,-0.4648,0.8502
-0.39,0.758,-0.608,9.5,-43.1,-42.9,0,2018,5,16,19,16,31.085,0.1554,0.1803,-0.4729,0.8483
-0.282,0.78,-0.554,25.1,-48.2,-14,0,2018,5,16,19,16,31.105,0.1513,0.1794,-0.4809,0.8447
-0.193,0.818,-0.448,35.8,-57.8,13.3,0,2018,5,16,19,16,31.125,0.1503,0.1827,-0.4896,0.8392
-0.174,0.794,-0.334,40.5,-64.9,43.3,0,2018,5,16,19,16,31.142,0.1532,0.1891,-0.4987,0.8318
-0.157,0.717,-0.295,42,-60.7,76.1,0,2018,5,16,19,16,31.177,0.1604,0.1987,-0.507,0.8232
-0.147,0.647,-0.292,45.2,-57.3,108.2,0,2018,5,16,19,16,31.197,0.1719,0.2115,-0.5133,0.8137
-0.171,0.554,-0.29,51.4,-51.2,140.1,0,2018,5,16,19,16,31.201,0.1873,0.2278,-0.5177,0.803
-0.216,0.494,-0.266,59.2,-46.4,172,0,2018,5,16,19,16,31.222,0.2061,0.2482,-0.5198,0.7909
-0.256,0.416,-0.22,65.8,-47.6,203.2,0,2018,5,16,19,16,31.242,0.2283,0.2721,-0.52,0.7767
-0.279,0.336,-0.173,70.5,-57.7,231,0,2018,5,16,19,16,31.28,0.2539,0.2989,-0.519,0.7594
-0.309,0.242,-0.162,75.4,-74.5,254.7,0,2018,5,16,19,16,31.301,0.2828,0.3274,-0.5177,0.738
-0.371,0.115,-0.143,80.7,-92,273.7,0,2018,5,16,19,16,31.305,0.3143,0.3568,-0.5165,0.712
-0.432,-0.057,-0.083,86.6,-98.1,287.7,0,2018,5,16,19,16,31.322,0.3472,0.3868,-0.5148,0.6816
-0.47,-0.257,0.001,93.3,-85.4,294.4,0,2018,5,16,19,16,31.342,0.3794,0.4178,-0.5112,0.6481
-0.48,-0.441,0.109,98,-57.1,292.7,0,2018,5,16,19,16,31.38,0.4082,0.4491,-0.5038,0.6145
-0.413,-0.618,0.196,102.9,-16.7,281.4,0,2018,5,16,19,16,31.399,0.4324,0.4819,-0.4917,0.582
-0.278,-0.744,0.194,107.2,31.8,258.6,0,2018,5,16,19,16,31.404,0.4496,0.5157,-0.4756,0.5527
-0.12,-0.836,0.199,112.2,79.2,222.2,0,2018,5,16,19,16,31.44,0.458,0.5502,-0.4565,0.5281
-0.003,-0.812,0.236,112.5,103.3,174.7,0,2018,5,16,19,16,31.46,0.4576,0.5835,-0.4375,0.5085
0.124,-0.699,0.232,109.2,91.7,125,0,2018,5,16,19,16,31.464,0.4519,0.6121,-0.4222,0.4926
0.173,-0.627,0.354,105,71.4,78.2,0,2018,5,16,19,16,31.503,0.4436,0.635,-0.4129,0.4789
0.214,-0.594,0.455,91.9,48.6,38.6,0,2018,5,16,19,16,31.524,0.4345,0.6518,-0.4091,0.4678
0.232,-0.562,0.497,75.7,22.2,8.9,0,2018,5,16,19,16,31.528,0.4262,0.6628,-0.41,0.459
0.323,-0.546,0.518,58.7,-7.6,-10.1,0,2018,5,16,19,16,31.542,0.4205,0.6685,-0.4147,0.4519
0.396,-0.596,0.551,45.2,-31,-19.9,0,2018,5,16,19,16,31.58,0.4179,0.6698,-0.4219,0.4455
0.508,-0.705,0.616,38.2,-43.1,-24.2,0,2018,5,16,19,16,31.6,0.4176,0.6685,-0.4305,0.4395
0.578,-0.723,0.699,34.8,-57.5,-26,0,2018,5,16,19,16,31.604,0.4188,0.6656,-0.44,0.4333
0.689,-0.785,0.794,44.8,-44.2,-28.2,0,2018,5,16,19,16,31.624,0.4198,0.6627,-0.4501,0.4265
0.677,-0.884,0.931,68.1,14.3,-32.3,0,2018,5,16,19,16,31.643,0.4149,0.6632,-0.4591,0.4208
0.34,-1.046,1.415,107.6,124.9,-18,0,2018,5,16,19,16,31.684,0.3985,0.672,-0.4636,0.4177
-0.421,-1.335,1.82,107.4,285.8,4.6,0,2018,5,16,19,16,31.703,0.3638,0.6939,-0.4563,0.4215
-1.265,-1.236,1.558,47,383.1,9.4,0,2018,5,16,19,16,31.708,0.3147,0.7215,-0.4338,0.4381
-1.7,-0.51,0.665,-57.7,329.2,16.7,1023,2018,5,16,19,16,31.746,0.2696,0.74,-0.4033,0.4656
-1.505,-0.226,-0.099,-135.9,210.8,36.9,1023,2018,5,16,19,16,31.765,0.2443,0.7452,-0.3726,0.496
-1.572,-0.361,-0.078,-182,111.8,32.8,1023,2018,5,16,19,16,31.77,0.2374,0.7397,-0.3471,0.5251
-1.846,-0.292,-0.025,-254,12.8,17.4,1023,2018,5,16,19,16,31.784,0.245,0.7231,-0.3291,0.5556
-1.424,-0.313,-0.092,-310.9,-54.1,-28.7,1023,2018,5,16,19,16,31.82,0.2643,0.6927,-0.3199,0.5898
-0.815,-0.474,-0.295,-287.6,-7.4,-77.6,1023,2018,5,16,19,16,31.84,0.2787,0.6556,-0.3165,0.6263
-0.518,-0.48,-0.399,-251.1,71,-97.2,1023,2018,5,16,19,16,31.844,0.2793,0.6222,-0.3093,0.6626
-0.424,-0.35,-0.44,-222.5,105.2,-105.2,1023,2018,5,16,19,16,31.885,0.2695,0.5935,-0.2979,0.6973
-0.359,-0.367,-0.585,-208.5,103.5,-102.9,1023,2018,5,16,19,16,31.905,0.2568,0.5662,-0.2853,0.7293
-0.121,-0.263,-0.82,-191.2,82.8,-96.5,1023,2018,5,16,19,16,31.909,0.2445,0.5395,-0.2738,0.7576
0.109,-0.146,-1.062,-161.9,50.9,-90.8,1023,2018,5,16,19,16,31.928,0.2343,0.5141,-0.2661,0.7809
-0.096,-0.218,-0.96,-138.4,37,-83.2,1023,2018,5,16,19,16,31.967,0.2253,0.4913,-0.2624,0.7993
-0.23,-0.335,-0.939,-124.2,65.6,-70.3,1023,2018,5,16,19,16,31.971,0.2162,0.4713,-0.2569,0.8155
-0.106,-0.164,-0.877,-111.6,90.8,-62.5,0,2018,5,16,19,16,31.988,0.2054,0.4544,-0.2462,0.831
-0.001,-0.149,-1.018,-103.3,91,-51.7,0,2018,5,16,19,16,32.011,0.1943,0.4395,-0.2334,0.8452
-0.189,-0.199,-1.226,-89.3,71.7,-41.1,0,2018,5,16,19,16,32.03,0.185,0.4261,-0.2213,0.8573
-0.117,-0.224,-1.218,-66.8,40.4,-40.2,0,2018,5,16,19,16,32.052,0.1782,0.4146,-0.2134,0.8664
-0.044,-0.177,-1.024,-43.3,16.5,-46.5,0,2018,5,16,19,16,32.066,0.172,0.4055,-0.2107,0.8726
-0.021,-0.138,-0.839,-22.8,4,-54.5,0,2018,5,16,19,16,32.086,0.165,0.3989,-0.2118,0.8767
-0.079,-0.116,-0.74,-7,-5.1,-63.1,0,2018,5,16,19,16,32.108,0.1568,0.3944,-0.2155,0.8793
-0.169,-0.097,-0.768,10,-14.3,-71.7,0,2018,5,16,19,16,32.147,0.1471,0.3918,-0.2217,0.8807
-0.117,0,-0.802,29.1,-30.9,-80.3,0,2018,5,16,19,16,32.167,0.1363,0.3912,-0.2307,0.8803
-0.068,0.081,-0.787,52.3,-52.7,-87.2,0,2018,5,16,19,16,32.171,0.1247,0.393,-0.2438,0.8777
-0.06,0.108,-0.64,76.7,-71,-92.4,0,2018,5,16,19,16,32.191,0.1123,0.3978,-0.2611,0.8723
-0.126,0.044,-0.418,92.2,-64.6,-90.1,0,2018,5,16,19,16,32.211,0.0995,0.405,-0.2795,0.8647
-0.264,-0.002,-0.327,102.6,-41.3,-78.5,0,2018,5,16,19,16,32.23,0.0861,0.4144,-0.2951,0.8565
-0.347,-0.025,-0.309,115.5,-6.9,-58.9,0,2018,5,16,19,16,32.267,0.0721,0.4266,-0.305,0.8483
-0.331,0,-0.136,130.8,31.2,-40.3,0,2018,5,16,19,16,32.271,0.0575,0.4423,-0.3081,0.8402
-0.247,0.059,0.03,136.7,71.1,-26.6,0,2018,5,16,19,16,32.288,0.0415,0.4606,-0.3041,0.8328
-0.175,0.187,0.102,137.8,90.8,-19.6,0,2018,5,16,19,16,32.324,0.0241,0.4798,-0.2946,0.826
-0.187,0.231,0.145,135.6,82.4,-12.8,0,2018,5,16,19,16,32.346,0.0073,0.4989,-0.2837,0.8188
-0.233,0.218,0.218,129.6,57.7,-6.1,0,2018,5,16,19,16,32.35,-0.0066,0.5173,-0.2745,0.8104
-0.248,0.186,0.288,121.4,34.2,-0.3,0,2018,5,16,19,16,32.371,-0.017,0.5347,-0.2683,0.801
-0.208,0.158,0.339,115,25.9,5.2,0,2018,5,16,19,16,32.39,-0.0248,0.5511,-0.2636,0.7912
-0.15,0.107,0.36,109.1,29.3,10.8,1023,2018,5,16,19,16,32.411,-0.0314,0.5666,-0.2586,0.7816
-0.068,0.052,0.303,106.2,44.1,15.7,1023,2018,5,16,19,16,32.43,-0.038,0.5816,-0.2517,0.7725
-0.011,0.044,0.256,106.8,64.3,19.1,1023,2018,5,16,19,16,32.469,-0.0459,0.5962,-0.2418,0.7641
0.003,0.063,0.241,107.5,77.5,21.6,1023,2018,5,16,19,16,32.489,-0.0552,0.6106,-0.2291,0.7559
0.014,0.039,0.243,106.8,84.7,24.5,0,2018,5,16,19,16,32.493,-0.0651,0.6247,-0.2148,0.7478
0.028,0.042,0.228,104,82.9,27.4,0,2018,5,16,19,16,32.511,-0.0749,0.6384,-0.1996,0.7395
0.002,-0.071,0.285,100.2,92,32.5,0,2018,5,16,19,16,32.549,-0.0841,0.6513,-0.1838,0.7313
-0.004,-0.014,0.261,95.8,100.4,35.8,0,2018,5,16,19,16,32.57,-0.0939,0.6632,-0.166,0.7236
0.031,-0.072,0.225,92.7,105.9,39,0,2018,5,16,19,16,32.574,-0.1038,0.6743,-0.147,0.7161
0.077,-0.125,0.181,92.2,117.2,39.6,0,2018,5,16,19,16,32.591,-0.1143,0.6846,-0.1267,0.7086
0.074,-0.166,0.157,95.5,156.4,37.6,0,2018,5,16,19,16,32.612,-0.141,0.7029,-0.0799,0.6925
0.021,-0.16,0.152,95.3,173.8,35.6,0,2018,5,16,19,16,32.632,-0.1583,0.7104,-0.053,0.6836
-0.011,-0.171,0.164,92.4,189.7,33.8,0,2018,5,16,19,16,32.65,-0.1775,0.7165,-0.0243,0.6741
-0.096,-0.127,0.203,84.2,192.5,32.2,0,2018,5,16,19,16,32.672,-0.1981,0.7206,0.0052,0.6644
-0.15,-0.201,0.145,74.2,190.8,34.9,0,2018,5,16,19,16,32.691,-0.2179,0.7226,0.0341,0.655
-0.166,-0.237,0.124,67.2,203.7,35.4,0,2018,5,16,19,16,32.712,-0.2382,0.7224,0.0639,0.6458
-0.085,-0.187,0.114,57.7,201.1,34.8,0,2018,5,16,19,16,32.73,-0.259,0.7201,0.0938,0.6367
-0.001,-0.161,0.102,47.5,191.7,31.6,0,2018,5,16,19,16,32.748,-0.279,0.716,0.1222,0.628
0.04,-0.146,0.074,36.9,172.5,25.4,0,2018,5,16,19,16,32.789,-0.2976,0.7108,0.1476,0.6199
0.036,-0.168,0.047,26.9,157.3,17.9,0,2018,5,16,19,16,32.809,-0.3147,0.7049,0.1696,0.6126
0.044,-0.15,0.011,17.2,143.3,11.6,0,2018,5,16,19,16,32.813,-0.3312,0.6983,0.1882,0.6058
0.053,-0.142,-0.014,9.7,127.3,7.8,0,2018,5,16,19,16,32.834,-0.3471,0.6918,0.2033,0.5996
0.052,-0.159,-0.036,4.3,113.6,7.3,0,2018,5,16,19,16,32.854,-0.3611,0.6852,0.2163,0.5943
0.043,-0.186,-0.062,1.8,104.6,9.7,0,2018,5,16,19,16,32.892,-0.373,0.6782,0.2287,0.5903
0.029,-0.218,-0.077,2,102.8,13.8,0,2018,5,16,19,16,32.913,-0.3839,0.6711,0.2408,0.5866
0.039,-0.237,-0.067,2.9,104,17.6,0,2018,5,16,19,16,32.917,-0.3942,0.6636,0.2534,0.583
0.075,-0.241,-0.085,4.1,104.7,20.1,0,2018,5,16,19,16,32.931,-0.4041,0.6558,0.2664,0.5792
0.106,-0.25,-0.109,6.8,105,20.6,0,2018,5,16,19,16,32.969,-0.4137,0.6479,0.2798,0.575
0.102,-0.263,-0.129,10.5,105,18.8,0,2018,5,16,19,16,32.99,-0.4231,0.6401,0.2931,0.5702
0.091,-0.273,-0.134,15.4,106.7,15.2,0,2018,5,16,19,16,32.994,-0.4324,0.6326,0.3065,0.5645
0.06,-0.294,-0.126,19.6,110,11.6,0,2018,5,16,19,16,33.013,-0.442,0.6254,0.3199,0.5577
0.065,-0.31,-0.11,22.8,114.6,7.9,1023,2018,5,16,19,16,33.032,-0.4521,0.6181,0.3335,0.5497
0.063,-0.314,-0.098,25.1,118.6,4.2,1023,2018,5,16,19,16,33.052,-0.4626,0.6107,0.3472,0.5406
0.035,-0.331,-0.078,24.9,122,0.2,1023,2018,5,16,19,16,33.09,-0.4736,0.6031,0.3608,0.5307
0.012,-0.323,-0.08,22.3,123.7,-5.1,1023,2018,5,16,19,16,33.11,-0.4852,0.5951,0.3738,0.5201
0.008,-0.302,-0.091,17.9,120.4,-12.1,1023,2018,5,16,19,16,33.114,-0.4972,0.587,0.3856,0.5092
0.03,-0.264,-0.103,13.6,112.8,-20.3,1023,2018,5,16,19,16,33.136,-0.5095,0.5793,0.3956,0.4982
0.046,-0.233,-0.1,10.1,101.4,-29.2,1023,2018,5,16,19,16,33.156,-0.5216,0.5724,0.4033,0.4873
0.037,-0.223,-0.077,7.5,89.8,-38.4,1023,2018,5,16,19,16,33.193,-0.5333,0.5668,0.4088,0.4765
0.01,-0.2,-0.055,3.7,80,-47.2,1023,2018,5,16,19,16,33.214,-0.5448,0.5624,0.412,0.4658
0.007,-0.182,-0.055,0,70.4,-54.2,1023,2018,5,16,19,16,33.218,-0.5561,0.5591,0.4132,0.4553
-0.022,-0.164,-0.062,-3,62.3,-61,0,2018,5,16,19,16,33.234,-0.5672,0.5566,0.4126,0.445
-0.068,-0.138,-0.07,-6,55.6,-67.9,0,2018,5,16,19,16,33.254,-0.5782,0.5553,0.4102,0.4345
-0.094,-0.113,-0.074,-9.9,51.8,-74.2,0,2018,5,16,19,16,33.274,-0.5892,0.5551,0.4063,0.4235
-0.135,-0.097,-0.072,-13.1,51.7,-81.1,0,2018,5,16,19,16,33.312,-0.6006,0.5551,0.4012,0.4123
-0.165,-0.055,-0.069,-17.2,54.6,-90.4,0,2018,5,16,19,16,33.333,-0.6125,0.5549,0.3953,0.4006
-0.192,0.004,-0.084,-21.8,55.2,-100,0,2018,5,16,19,16,33.337,-0.6252,0.5544,0.3883,0.3883
-0.222,0.117,-0.104,-25.9,52.7,-107.8,0,2018,5,16,19,16,33.357,-0.6388,0.5539,0.3793,0.3755
-0.227,0.221,-0.111,-30.2,46.4,-111.7,0,2018,5,16,19,16,33.376,-0.6526,0.5537,0.3687,0.3626
-0.28,0.303,-0.115,-33.8,36.7,-111.4,0,2018,5,16,19,16,33.415,-0.6656,0.554,0.3568,0.3502
-0.343,0.37,-0.138,-38.2,22.6,-105.3,0,2018,5,16,19,16,33.436,-0.6772,0.555,0.3438,0.3391
-0.319,0.425,-0.16,-42.1,5.1,-93.7,0,2018,5,16,19,16,33.44,-0.6867,0.5569,0.3301,0.3304
-0.241,0.446,-0.165,-42.9,-9,-79.7,0,2018,5,16,19,16,33.455,-0.6938,0.5596,0.3163,0.3243
-0.174,0.45,-0.152,-40.6,-18.9,-66.3,0,2018,5,16,19,16,33.492,-0.6987,0.563,0.3033,0.3204
-0.139,0.451,-0.134,-36.8,-22.7,-51.7,0,2018,5,16,19,16,33.512,-0.7019,0.5665,0.2916,0.3181
-0.13,0.469,-0.135,-32.7,-22.3,-35.5,0,2018,5,16,19,16,33.517,-0.7038,0.5696,0.2818,0.3174
-0.103,0.478,-0.156,-27,-20.7,-17.8,0,2018,5,16,19,16,33.539,-0.7045,0.5719,0.2743,0.3181
-0.085,0.461,-0.167,-19.9,-18.5,-0.3,0,2018,5,16,19,16,33.559,-0.7042,0.5734,0.2694,0.3203
-0.068,0.458,-0.164,-12.8,-21.5,16.4,0,2018,5,16,19,16,33.578,-0.7025,0.5744,0.2672,0.3239
-0.049,0.435,-0.153,-6.3,-30.1,33.9,0,2018,5,16,19,16,33.613,-0.6989,0.5759,0.2672,0.3292
-0.028,0.395,-0.135,0.3,-39.3,51.7,0,2018,5,16,19,16,33.632,-0.693,0.5779,0.2691,0.3364
-0.056,0.348,-0.115,8.3,-47.3,69.1,0,2018,5,16,19,16,33.636,-0.6847,0.5806,0.2732,0.3453
-0.076,0.289,-0.085,16.8,-51.7,86.2,0,2018,5,16,19,16,33.655,-0.6742,0.5836,0.2796,0.3557
-0.055,0.233,-0.051,26.2,-50.9,102.4,0,2018,5,16,19,16,33.675,-0.6619,0.5863,0.2885,0.3671
-0.027,0.17,-0.027,37.5,-44.1,115.9,0,2018,5,16,19,16,33.713,-0.6481,0.5882,0.3004,0.3789
-0.026,0.106,0.024,49.7,-31.8,125.6,0,2018,5,16,19,16,33.734,-0.6333,0.5884,0.316,0.3908
-0.05,0.048,0.073,59.1,-17.3,131.6,0,2018,5,16,19,16,33.738,-0.6187,0.5869,0.3339,0.4012
-0.04,0.006,0.098,65.6,-2.6,135.5,1023,2018,5,16,19,16,33.758,-0.6048,0.5837,0.3536,0.4102
-0.02,-0.031,0.108,70,9.7,137.4,1023,2018,5,16,19,16,33.776,-0.5916,0.5789,0.3745,0.4177
-0.015,-0.08,0.126,73.6,19.4,137,1023,2018,5,16,19,16,33.815,-0.5787,0.5731,0.3962,0.4236
-0.016,-0.127,0.156,75.3,25.2,134.8,1023,2018,5,16,19,16,33.835,-0.5656,0.5666,0.4189,0.4282
-0.014,-0.17,0.186,74.5,22.9,131.2,1023,2018,5,16,19,16,33.839,-0.5524,0.5599,0.4412,0.4319
-0.009,-0.233,0.235,73,16.5,126.8,1023,2018,5,16,19,16,33.86,-0.5387,0.5534,0.4622,0.4355
-0.002,-0.308,0.299,69.8,11.6,120.4,1023,2018,5,16,19,16,33.881,-0.5247,0.5474,0.4818,0.439
-0.019,-0.368,0.352,64.7,6.2,111,1023,2018,5,16,19,16,33.898,-0.5109,0.5418,0.4997,0.4423
-0.059,-0.417,0.34,58.4,-6.6,99.2,1023,2018,5,16,19,16,33.937,-0.4973,0.5373,0.5149,0.4458
-0.099,-0.525,0.349,54.9,-15.5,84.6,1023,2018,5,16,19,16,33.958,-0.4839,0.5343,0.5274,0.4495
-0.234,-0.653,0.409,53.3,-15.5,66,1023,2018,5,16,19,16,33.962,-0.4714,0.5329,0.5376,0.4522
-0.293,-0.72,0.517,46.4,-8.5,43.9,1023,2018,5,16,19,16,33.98,-0.4611,0.5328,0.5458,0.4532
-0.126,-0.734,0.552,38.4,12.3,19.1,1023,2018,5,16,19,16,34.001,-0.4548,0.533,0.5522,0.4516
0.039,-0.677,0.525,32,34.6,-9.2,1023,2018,5,16,19,16,34.022,-0.4533,0.5334,0.5572,0.4464
0.018,-0.689,0.534,28.4,64.5,-35.6,0,2018,5,16,19,16,34.042,-0.4568,0.5341,0.5612,0.4369
-0.064,-0.686,0.561,20,102.5,-57.3,0,2018,5,16,19,16,34.061,-0.4658,0.5338,0.5651,0.4225
-0.117,-0.594,0.507,4.5,134.7,-72.4,0,2018,5,16,19,16,34.083,-0.4805,0.5313,0.5687,0.404
-0.11,-0.468,0.4,-11.8,151.6,-81.4,0,2018,5,16,19,16,34.104,-0.4996,0.5263,0.5711,0.3833
-0.089,-0.38,0.338,-27.5,153.6,-87,0,2018,5,16,19,16,34.124,-0.5211,0.5198,0.5716,0.3623
-0.076,-0.288,0.294,-42.9,145.1,-93.4,0,2018,5,16,19,16,34.143,-0.5438,0.5127,0.5694,0.3422
-0.064,-0.234,0.246,-56.8,130.9,-100.5,0,2018,5,16,19,16,34.161,-0.5666,0.5061,0.5639,0.3237
-0.074,-0.198,0.206,-70.3,118.4,-109.1,0,2018,5,16,19,16,34.181,-0.5895,0.5003,0.555,0.3066
-0.083,-0.2,0.167,-81.2,107,-118.4,0,2018,5,16,19,16,34.201,-0.6125,0.4954,0.543,0.2904
-0.132,-0.175,0.145,-89.8,90.4,-129.2,0,2018,5,16,19,16,34.222,-0.6351,0.4921,0.5278,0.2751
-0.149,-0.164,0.074,-98.2,77.9,-138.4,0,2018,5,16,19,16,34.24,-0.6572,0.4907,0.5093,0.2603
-0.213,-0.163,0.007,-102.7,71.2,-146.7,0,2018,5,16,19,16,34.279,-0.6788,0.4904,0.4882,0.2455
-0.314,-0.194,0,-105.9,71.2,-154.5,0,2018,5,16,19,16,34.3,-0.6996,0.4905,0.4657,0.23
-0.432,-0.229,-0.042,-111.2,79.7,-158.2,0,2018,5,16,19,16,34.304,-0.7202,0.49,0.442,0.2137
-0.584,-0.184,-0.126,-116,89.3,-156.9,0,2018,5,16,19,16,34.323,-0.7412,0.4872,0.4175,0.1969
-0.685,-0.128,-0.201,-121.2,89.7,-150.4,1023,2018,5,16,19,16,34.343,-0.7622,0.4824,0.3919,0.1803
-0.766,-0.091,-0.25,-125.2,83.3,-140.7,1023,2018,5,16,19,16,34.38,-0.782,0.4766,0.3657,0.1653
-0.876,-0.018,-0.309,-128.2,68.1,-127.4,1023,2018,5,16,19,16,34.402,-0.7999,0.4708,0.3393,0.1526
-0.964,0.02,-0.377,-128.7,42.2,-109.7,1023,2018,5,16,19,16,34.406,-0.8147,0.4665,0.3129,0.1434
-1.042,0.087,-0.434,-126.1,13.6,-90.5,1023,2018,5,16,19,16,34.422,-0.8259,0.4649,0.2874,0.138
-1.023,0.38,-0.549,-126.2,-33.2,-67.4,1023,2018,5,16,19,16,34.46,-0.8332,0.4668,0.2625,0.1372
-0.93,0.558,-0.772,-120.9,-104.5,-38.8,1023,2018,5,16,19,16,34.463,-0.834,0.4765,0.2383,0.1429
-0.841,0.505,-0.875,-96.6,-156.7,-9.2,1023,2018,5,16,19,16,34.501,-0.8274,0.4944,0.217,0.1541
-0.747,0.336,-0.735,-66.3,-172.3,20.5,1023,2018,5,16,19,16,34.521,-0.8152,0.5162,0.2013,0.1682
-0.553,0.291,-0.528,-33.8,-151.2,50.6,1023,2018,5,16,19,16,34.523,-0.8005,0.5368,0.1928,0.1835
-0.233,0.419,-0.353,-1.8,-115.9,69.4,1023,2018,5,16,19,16,34.559,-0.7862,0.5528,0.1919,0.1981
-0.098,0.695,-0.248,23.9,-84.9,78.9,1023,2018,5,16,19,16,34.581,-0.7735,0.5642,0.1974,0.2104
-0.145,0.738,-0.21,39,-52.5,89.4,0,2018,5,16,19,16,34.586,-0.7624,0.5715,0.2077,0.2209
-0.197,0.752,-0.284,46.7,-40.5,97.2,0,2018,5,16,19,16,34.606,-0.7527,0.5755,0.2209,0.2307
-0.219,0.616,-0.367,52.9,-37.3,109.5,0,2018,5,16,19,16,34.627,-0.7425,0.5786,0.2363,0.2407
-0.219,0.55,-0.343,53.9,-40.2,122.3,0,2018,5,16,19,16,34.648,-0.7313,0.5809,0.2533,0.2518
-0.188,0.424,-0.245,51.3,-41.5,135.7,0,2018,5,16,19,16,34.667,-0.7188,0.5826,0.2713,0.2648
-0.207,0.346,-0.093,46.5,-34.2,145.9,0,2018,5,16,19,16,34.685,-0.7058,0.5827,0.29,0.2792
-0.205,0.307,-0.014,40.8,-32,153.7,0,2018,5,16,19,16,34.705,-0.6927,0.581,0.3089,0.2948
-0.148,0.241,-0.038,38.1,-31.7,161.4,0,2018,5,16,19,16,34.742,-0.679,0.5782,0.3279,0.3115
-0.061,0.195,-0.067,41.1,-34.7,164.9,0,2018,5,16,19,16,34.761,-0.6642,0.5746,0.3471,0.3287
0.019,0.151,-0.064,46.5,-43.8,164.9,0,2018,5,16,19,16,34.764,-0.6478,0.5713,0.3664,0.3457
0.024,0.084,-0.026,49.9,-55.3,163.2,0,2018,5,16,19,16,34.806,-0.629,0.569,0.3857,0.3628
-0.014,0.016,-0.039,49.2,-64,159.7,0,2018,5,16,19,16,34.824,-0.6088,0.5676,0.4035,0.3796
0.035,-0.029,-0.098,49.3,-68.5,155.7,0,2018,5,16,19,16,34.829,-0.5877,0.567,0.4199,0.3957
0.088,-0.08,-0.09,53.7,-68.9,151.2,0,2018,5,16,19,16,34.848,-0.5661,0.5665,0.4354,0.411
0.077,-0.159,-0.027,56.6,-67.8,145.2,0,2018,5,16,19,16,34.867,-0.5442,0.5657,0.4505,0.4252
0.074,-0.253,0.009,55,-63.6,138.8,0,2018,5,16,19,16,34.884,-0.5225,0.5647,0.4647,0.4381
0.133,-0.311,0.028,54.4,-55.5,131.7,0,2018,5,16,19,16,34.906,-0.5017,0.5631,0.4782,0.4498
0.21,-0.356,0.067,56.5,-46,123.7,0,2018,5,16,19,16,34.926,-0.4819,0.5611,0.4915,0.4596
0.281,-0.415,0.148,59,-35.6,113.9,0,2018,5,16,19,16,34.964,-0.4632,0.5588,0.5046,0.4673
0.346,-0.447,0.24,60.1,-30.8,101.4,0,2018,5,16,19,16,34.985,-0.4459,0.5567,0.5171,0.4729
0.413,-0.488,0.314,60.1,-25,89,0,2018,5,16,19,16,34.989,-0.4298,0.5552,0.5286,0.4769
0.459,-0.541,0.378,59.5,-16.3,76,0,2018,5,16,19,16,35.006,-0.4153,0.554,0.5392,0.4792
0.472,-0.589,0.438,57.7,-8.1,62.8,0,2018,5,16,19,16,35.045,-0.4027,0.5532,0.5492,0.4795
0.475,-0.621,0.516,53.7,-4.6,49.1,1023,2018,5,16,19,16,35.066,-0.3918,0.5531,0.558,0.4785
0.491,-0.644,0.586,47.2,-0.7,34,1023,2018,5,16,19,16,35.07,-0.3829,0.5536,0.5653,0.4766
0.512,-0.617,0.607,36.5,-0.6,15.6,1023,2018,5,16,19,16,35.109,-0.3764,0.5549,0.5706,0.474
0.464,-0.585,0.604,26,-10.6,-3,1023,2018,5,16,19,16,35.128,-0.3721,0.5574,0.5728,0.4717
0.336,-0.698,0.662,14.7,-15.8,-20.8,1023,2018,5,16,19,16,35.132,-0.3694,0.5615,0.5718,0.4703
0.082,-0.81,0.763,0,-4.3,-36.6,1023,2018,5,16,19,16,35.146,-0.3698,0.5659,0.5685,0.4687
-0.373,-0.944,0.9,-24.2,19.5,-47.9,0,2018,5,16,19,16,35.182,-0.3748,0.5689,0.5642,0.4662
-0.844,-0.978,0.755,-63.6,44.6,-59.2,0,2018,5,16,19,16,35.202,-0.3867,0.5685,0.5589,0.4634
-0.89,-0.71,0.514,-111.9,24.5,-80.5,0,2018,5,16,19,16,35.209,-0.4045,0.5656,0.5489,0.4637
-0.863,-0.525,0.263,-150.9,-36.8,-105.7,0,2018,5,16,19,16,35.228,-0.424,0.564,0.5297,0.4704
-0.773,-0.52,0.16,-173.6,-109.1,-140.7,0,2018,5,16,19,16,35.249,-0.4413,0.5673,0.499,0.484
-0.87,-0.551,0.211,-181.3,-163.8,-184.4,0,2018,5,16,19,16,35.286,-0.4559,0.5767,0.4568,0.5006
-1.08,-0.5,0.209,-181.5,-197.1,-228.8,0,2018,5,16,19,16,35.306,-0.4692,0.5911,0.4048,0.5161
-1.137,-0.44,0.148,-166,-206,-263.3,0,2018,5,16,19,16,35.31,-0.4821,0.6084,0.3454,0.5272
-1.099,-0.398,0.089,-136.2,-180.3,-288.6,0,2018,5,16,19,16,35.346,-0.4953,0.6264,0.2843,0.5304
-1.07,-0.284,0.007,-100.8,-129.6,-303.6,0,2018,5,16,19,16,35.35,-0.5103,0.6425,0.227,0.5245
-1.013,-0.111,-0.081,-69.4,-59.5,-306.4,0,2018,5,16,19,16,35.367,-0.5298,0.6543,0.1765,0.5097
-0.848,0.096,-0.124,-45.9,20.5,-297.4,0,2018,5,16,19,16,35.405,-0.5556,0.6592,0.1351,0.4881
-0.69,0.24,-0.171,-33,93.5,-284.2,0,2018,5,16,19,16,35.426,-0.5874,0.6561,0.1028,0.4624
-0.545,0.427,-0.237,-28.7,143.3,-267.7,0,2018,5,16,19,16,35.43,-0.6232,0.6451,0.0778,0.4349
-0.467,0.626,-0.291,-29,161.2,-247.8,0,2018,5,16,19,16,35.449,-0.6598,0.6287,0.0574,0.4074
-0.495,0.674,-0.26,-31.2,163.5,-226.3,0,2018,5,16,19,16,35.471,-0.6938,0.6095,0.0394,0.3813
-0.493,0.747,-0.246,-42.7,159.2,-205,0,2018,5,16,19,16,35.491,-0.7248,0.5883,0.0228,0.3577
-0.469,0.798,-0.279,-58.7,146.5,-185.6,0,2018,5,16,19,16,35.513,-0.7521,0.566,0.0059,0.3374
-0.527,0.84,-0.334,-78.5,128.4,-168.4,0,2018,5,16,19,16,35.532,-0.7755,0.5436,-0.0124,0.3206
-0.536,0.876,-0.432,-101,105,-151.3,0,2018,5,16,19,16,35.551,-0.7946,0.5222,-0.0333,0.3077
-0.537,0.913,-0.543,-117.9,79.8,-135.5,0,2018,5,16,19,16,35.57,-0.8094,0.5025,-0.0567,0.2983
-0.549,0.974,-0.601,-125.9,59.3,-118.8,0,2018,5,16,19,16,35.588,-0.8202,0.485,-0.0816,0.2918
-0.67,0.978,-0.56,-128.7,41.1,-92.4,0,2018,5,16,19,16,35.611,-0.8276,0.4698,-0.1062,0.288
-0.701,0.902,-0.511,-130.1,40.2,-56.2,0,2018,5,16,19,16,35.63,-0.8316,0.4563,-0.1289,0.2888
-0.703,0.851,-0.51,-129.5,37.8,-10.4,0,2018,5,16,19,16,35.648,-0.8331,0.4433,-0.1485,0.2953
-0.668,0.792,-0.546,-121,33.6,39.3,0,2018,5,16,19,16,35.689,-0.8316,0.4319,-0.1635,0.3083
-0.575,0.986,-0.669,-110,-14.6,103.9,1023,2018,5,16,19,16,35.708,-0.825,0.426,-0.1746,0.3276
-0.517,0.864,-0.671,-81.9,-81.7,198.7,1023,2018,5,16,19,16,35.712,-0.8092,0.4318,-0.1796,0.3554
-0.722,-0.069,-0.176,-45.9,-144,278.3,1023,2018,5,16,19,16,35.747,-0.7822,0.4519,-0.1776,0.3902
-0.731,-0.785,0.443,-22.1,-147,326.9,1023,2018,5,16,19,16,35.769,-0.7474,0.4784,-0.1677,0.4292
-0.564,0,0.506,-16.4,-187.9,332.4,1023,2018,5,16,19,16,35.772,-0.7071,0.5066,-0.1539,0.4685
-0.383,-0.123,0.204,-15,-194.9,311.8,1023,2018,5,16,19,16,35.81,-0.6606,0.5378,-0.1439,0.5034
-0.27,-0.132,0.209,-5.9,-136.8,277.2,1023,2018,5,16,19,16,35.832,-0.6182,0.5622,-0.1316,0.5333
-0.213,-0.207,0.164,-3,-109.9,253,1023,2018,5,16,19,16,35.836,-0.581,0.5798,-0.1169,0.5589
-0.133,-0.193,0.043,-1.6,-95.7,247.1,0,2018,5,16,19,16,35.852,-0.5458,0.5942,-0.1018,0.5817
-0.126,-0.095,-0.059,1.6,-87.1,255.2,0,2018,5,16,19,16,35.888,-0.5102,0.6071,-0.0851,0.603
-0.18,-0.109,-0.088,5.1,-76,272.2,0,2018,5,16,19,16,35.909,-0.4729,0.6187,-0.0653,0.6238
-0.225,-0.138,-0.121,4.5,-68.7,286.7,0,2018,5,16,19,16,35.913,-0.4345,0.6274,-0.0424,0.6447
-0.337,-0.183,-0.137,1.1,-73.4,297.1,0,2018,5,16,19,16,35.932,-0.3935,0.6342,-0.018,0.6651
-0.383,-0.222,-0.203,-6.2,-92.3,298.5,0,2018,5,16,19,16,35.954,-0.3495,0.6394,0.0052,0.6847
-0.36,-0.243,-0.286,-13.1,-123.8,288.8,0,2018,5,16,19,16,35.975,-0.302,0.6435,0.0244,0.7029
-0.285,-0.324,-0.348,-17.7,-151.8,269.6,0,2018,5,16,19,16,35.996,-0.2517,0.6466,0.0377,0.719
-0.174,-0.453,-0.373,-17.9,-159.7,243.6,0,2018,5,16,19,16,36.015,-0.2015,0.6487,0.0459,0.7324
-0.033,-0.566,-0.338,-11,-144.5,210.9,0,2018,5,16,19,16,36.036,-0.155,0.6496,0.0514,0.7424
0.039,-0.642,-0.27,0.6,-118.1,173,0,2018,5,16,19,16,36.053,-0.1153,0.6502,0.0559,0.7488
-0.385,-0.75,-0.226,13.8,-92.8,137.9,0,2018,5,16,19,16,36.072,-0.0832,0.6514,0.0599,0.7516
-0.728,-0.975,-0.065,22.6,-68.7,102.7,0,2018,5,16,19,16,36.094,-0.058,0.6537,0.0632,0.7518
-0.592,-0.948,0.025,12.1,-54.9,63,0,2018,5,16,19,16,36.113,-0.0403,0.6557,0.0649,0.751
-0.253,-0.656,-0.116,-3.2,-75.8,27.5,0,2018,5,16,19,16,36.151,-0.0272,0.6561,0.0617,0.7516
-0.014,-0.54,-0.202,-8.6,-117.9,-5.3,0,2018,5,16,19,16,36.174,-0.0148,0.6555,0.0501,0.7533
-0.07,-0.608,-0.111,-12.2,-155.1,-38,0,2018,5,16,19,16,36.178,-0.0019,0.6544,0.0291,0.7555
-0.101,-0.653,0.044,-17.4,-163.7,-66.3,0,2018,5,16,19,16,36.196,0.0093,0.6525,0.0017,0.7576
-0.055,-0.607,0.059,-21.9,-157.9,-82.7,0,2018,5,16,19,16,36.217,0.0176,0.6492,-0.0281,0.7598
-0.04,-0.599,0.061,-19.4,-146.3,-91.9,0,2018,5,16,19,16,36.236,0.0234,0.6452,-0.0583,0.7613
-0.001,-0.579,0.12,-15.4,-124.2,-102.2,0,2018,5,16,19,16,36.255,0.026,0.641,-0.0872,0.762
0.016,-0.492,0.189,-15.2,-93.7,-114.1,0,2018,5,16,19,16,36.274,0.0238,0.6366,-0.1136,0.7623
0.058,-0.347,0.179,-19.3,-73.2,-125.5,0,2018,5,16,19,16,36.294,0.0172,0.6314,-0.1377,0.7628
0.058,-0.264,0.165,-22.5,-64.6,-135.8,0,2018,5,16,19,16,36.333,0.0078,0.625,-0.1611,0.7637
-0.005,-0.222,0.189,-25.6,-59.8,-143.5,0,2018,5,16,19,16,36.353,-0.0033,0.6175,-0.1846,0.7645
-0.068,-0.172,0.184,-29.5,-50.8,-146.6,0,2018,5,16,19,16,36.357,-0.0158,0.6089,-0.2077,0.7654
-0.114,-0.118,0.118,-30.6,-35.9,-143.8,1023,2018,5,16,19,16,36.376,-0.0297,0.5991,-0.2291,0.7665
-0.145,-0.065,0.072,-28.7,-14.9,-137.4,1023,2018,5,16,19,16,36.396,-0.0449,0.589,-0.2473,0.7679
-0.186,0.013,0.06,-28.8,4.2,-130.6,1023,2018,5,16,19,16,36.417,-0.0609,0.5792,-0.2615,0.7696
-0.179,0.102,0.037,-31,20.2,-123.6,1023,2018,5,16,19,16,36.437,-0.0772,0.5695,-0.272,0.7718
-0.126,0.209,-0.001,-35.7,30.6,-117.2,1023,2018,5,16,19,16,36.474,-0.0943,0.5588,-0.2807,0.7745
-0.075,0.304,-0.062,-42.1,33.4,-110.3,1023,2018,5,16,19,16,36.495,-0.1109,0.5473,-0.2879,0.7779
-0.076,0.381,-0.114,-50.1,29.3,-100.5,1023,2018,5,16,19,16,36.499,-0.126,0.535,-0.2945,0.7817
-0.124,0.449,-0.149,-60.4,18.2,-85.2,1023,2018,5,16,19,16,36.515,-0.138,0.522,-0.3011,0.7859
-0.23,0.53,-0.168,-72.6,-1,-61.9,1023,2018,5,16,19,16,36.536,-0.1455,0.5087,-0.3081,0.7905
-0.235,0.549,-0.208,-84.9,-24.8,-28.4,1023,2018,5,16,19,16,36.555,-0.1461,0.4956,-0.316,0.7956
-0.129,0.549,-0.248,-91.7,-51.4,2.3,1023,2018,5,16,19,16,36.577,-0.1395,0.4835,-0.3246,0.8008
-0.043,0.546,-0.223,-94.3,-81.9,28.4,0,2018,5,16,19,16,36.594,-0.1263,0.4729,-0.3348,0.8051
-0.006,0.547,-0.177,-97.4,-112.4,53.5,0,2018,5,16,19,16,36.632,-0.1066,0.4639,-0.3473,0.8079
0.048,0.515,-0.172,-97.2,-133.2,77.1,0,2018,5,16,19,16,36.653,-0.0813,0.4562,-0.3611,0.8091
0.093,0.47,-0.175,-90.7,-143,97.4,0,2018,5,16,19,16,36.657,-0.0517,0.4502,-0.3749,0.8087
0.105,0.422,-0.129,-79.3,-143.2,116.3,0,2018,5,16,19,16,36.679,-0.0197,0.4462,-0.3874,0.8064
0.02,0.348,-0.047,-67.8,-133.4,135.2,0,2018,5,16,19,16,36.699,0.0137,0.4447,-0.3971,0.8026
-0.078,0.247,-0.004,-63.2,-119,155.3,0,2018,5,16,19,16,36.72,0.0484,0.4452,-0.4031,0.798
-0.135,0.176,-0.046,-61.1,-98.6,175.3,0,2018,5,16,19,16,36.739,0.0843,0.447,-0.4045,0.7933
-0.212,0.141,-0.145,-62.1,-88.6,192.4,0,2018,5,16,19,16,36.757,0.1213,0.4499,-0.4016,0.7883
-0.282,0.084,-0.259,-64.5,-94.3,204.9,0,2018,5,16,19,16,36.778,0.1602,0.4529,-0.3968,0.7821
-0.32,0.024,-0.349,-64.8,-110.2,212.2,0,2018,5,16,19,16,36.799,0.2011,0.4552,-0.392,0.7736
-0.354,-0.077,-0.377,-63.6,-131,212.8,0,2018,5,16,19,16,36.817,0.2437,0.4564,-0.3888,0.7622
-0.436,-0.24,-0.315,-57.6,-171,190.2,0,2018,5,16,19,16,36.838,0.3292,0.453,-0.3899,0.7309
-0.393,-0.31,-0.298,-51.8,-178.2,170.6,0,2018,5,16,19,16,36.857,0.3695,0.4477,-0.3945,0.7122
-0.287,-0.355,-0.289,-42.3,-170.4,148.3,0,2018,5,16,19,16,36.877,0.4059,0.441,-0.4005,0.6929
-0.163,-0.385,-0.287,-29.5,-146.9,126.8,0,2018,5,16,19,16,36.913,0.4369,0.4347,-0.4064,0.6744
-0.065,-0.408,-0.291,-15,-115,107.4,0,2018,5,16,19,16,36.933,0.4618,0.4302,-0.411,0.6576
0.008,-0.444,-0.289,-2.4,-81.8,92,0,2018,5,16,19,16,36.941,0.4809,0.4284,-0.414,0.6431
0.053,-0.46,-0.274,7.6,-53.5,81.6,0,2018,5,16,19,16,36.961,0.4953,0.4293,-0.4152,0.6307
0.079,-0.468,-0.261,14.7,-37.1,75,0,2018,5,16,19,16,36.978,0.5062,0.4324,-0.4152,0.6198
0.125,-0.474,-0.239,19.6,-30.1,71.3,0,2018,5,16,19,16,36.998,0.5153,0.4366,-0.4147,0.6096
0.165,-0.471,-0.208,23.1,-28.9,68.2,0,2018,5,16,19,16,37.018,0.5233,0.4413,-0.4144,0.5996
0.198,-0.461,-0.173,25.4,-32.1,65.1,1023,2018,5,16,19,16,37.04,0.5308,0.446,-0.4146,0.5893
0.202,-0.478,-0.141,26.1,-40.1,60.6,1023,2018,5,16,19,16,37.06,0.5381,0.4498,-0.4158,0.5788
0.223,-0.484,-0.116,26.1,-52.3,53.5,1023,2018,5,16,19,16,37.099,0.5456,0.4522,-0.4184,0.568
0.201,-0.521,-0.077,26.7,-66.5,44.6,1023,2018,5,16,19,16,37.12,0.5532,0.4527,-0.4229,0.5568
0.16,-0.573,-0.018,27.2,-78,34.5,1023,2018,5,16,19,16,37.124,0.5607,0.4511,-0.4295,0.5454
0.133,-0.624,0.04,27.3,-79.8,23.2,1023,2018,5,16,19,16,37.143,0.5676,0.448,-0.4374,0.5344
0.093,-0.631,0.072,25.9,-78,9.7,1023,2018,5,16,19,16,37.162,0.5732,0.4439,-0.4461,0.5246
0.016,-0.651,0.059,23.9,-74.3,-3.9,1023,2018,5,16,19,16,37.182,0.5774,0.4387,-0.4553,0.5164
-0.041,-0.711,0.064,22.8,-66.6,-16.9,1023,2018,5,16,19,16,37.203,0.5799,0.4327,-0.4648,0.5101
-0.063,-0.737,0.104,23.1,-54.5,-31.4,1023,2018,5,16,19,16,37.223,0.5804,0.4266,-0.4743,0.5059
-0.055,-0.668,0.149,22.9,-46.4,-47,1023,2018,5,16,19,16,37.262,0.5787,0.4203,-0.484,0.504
-0.056,-0.606,0.148,22.7,-43.4,-62.3,1023,2018,5,16,19,16,37.267,0.5752,0.4131,-0.4942,0.5041
-0.061,-0.589,0.132,27,-30.4,-74.8,1023,2018,5,16,19,16,37.281,0.5696,0.4054,-0.505,0.5059
-0.069,-0.595,0.149,32.3,-3.6,-84.2,1023,2018,5,16,19,16,37.32,0.561,0.3992,-0.5151,0.5102
-0.057,-0.583,0.16,36.1,29.4,-90.9,0,2018,5,16,19,16,37.34,0.5491,0.3957,-0.5233,0.5175
-0.063,-0.541,0.134,39.1,64.8,-96.9,0,2018,5,16,19,16,37.345,0.5337,0.395,-0.529,0.5283
-0.055,-0.459,0.098,40.9,95.6,-100.8,0,2018,5,16,19,16,37.363,0.5151,0.3971,-0.5319,0.5421
-0.052,-0.391,0.065,41.8,118.5,-105,0,2018,5,16,19,16,37.383,0.4938,0.401,-0.5323,0.5584
-0.082,-0.33,0.126,41.5,135.7,-112.5,0,2018,5,16,19,16,37.404,0.4701,0.4059,-0.5308,0.5765
-0.118,-0.249,0.132,32.9,143,-120.1,0,2018,5,16,19,16,37.443,0.4446,0.4102,-0.5278,0.5961
-0.117,-0.174,0.057,21.5,139.3,-125.2,0,2018,5,16,19,16,37.463,0.4187,0.4121,-0.5238,0.6167
-0.099,-0.15,0.015,11.7,131.7,-127.3,0,2018,5,16,19,16,37.467,0.3931,0.4114,-0.5196,0.6372
-0.081,-0.121,0.015,3.6,126.8,-126.2,0,2018,5,16,19,16,37.485,0.3684,0.4089,-0.5151,0.6569
-0.118,-0.128,0.05,-3.8,128,-123.5,0,2018,5,16,19,16,37.502,0.3445,0.4052,-0.5094,0.6763
-0.125,-0.118,0.029,-13.4,135.7,-118.8,0,2018,5,16,19,16,37.541,0.3212,0.4009,-0.5018,0.6958
-0.125,-0.102,-0.057,-23.2,141.7,-114.6,0,2018,5,16,19,16,37.56,0.2984,0.396,-0.4922,0.7153
-0.115,-0.074,-0.122,-32.3,137.5,-112.7,0,2018,5,16,19,16,37.564,0.2765,0.3904,-0.4816,0.7342
-0.22,-0.109,-0.092,-42.4,123.9,-114.4,0,2018,5,16,19,16,37.583,0.2558,0.383,-0.4713,0.752
-0.297,-0.106,-0.1,-58.1,107,-116.4,0,2018,5,16,19,16,37.621,0.2369,0.372,-0.4616,0.7695
-0.303,-0.084,-0.189,-73.7,83.7,-118.2,0,2018,5,16,19,16,37.642,0.2202,0.3574,-0.4535,0.7861
-0.334,-0.073,-0.271,-84.8,54.8,-120.5,1023,2018,5,16,19,16,37.646,0.2057,0.3395,-0.4482,0.8008
-0.421,-0.034,-0.297,-92.1,22.5,-122,1023,2018,5,16,19,16,37.665,0.1933,0.3188,-0.4468,0.8131
-0.513,-0.016,-0.316,-96.9,-5.2,-119.4,1023,2018,5,16,19,16,37.706,0.183,0.2961,-0.4491,0.8228
-0.581,0.028,-0.397,-99.1,-27.7,-111.4,1023,2018,5,16,19,16,37.725,0.1749,0.2722,-0.4544,0.8299
-0.63,0.107,-0.469,-93.8,-42.4,-97.7,1023,2018,5,16,19,16,37.729,0.1691,0.2487,-0.4614,0.8346
-0.705,0.179,-0.515,-86,-54.1,-77.2,1023,2018,5,16,19,16,37.743,0.1656,0.227,-0.4696,0.8369
-0.696,0.245,-0.546,-76.2,-63.2,-50.7,1023,2018,5,16,19,16,37.781,0.1652,0.2082,-0.4783,0.8369
-0.656,0.338,-0.576,-64.2,-73.4,-19.8,1023,2018,5,16,19,16,37.802,0.1684,0.193,-0.4875,0.8346
-0.626,0.384,-0.58,-48.7,-84.9,15.6,1023,2018,5,16,19,16,37.806,0.1757,0.1824,-0.4974,0.8297
-0.582,0.387,-0.521,-33.2,-97.6,51,1023,2018,5,16,19,16,37.828,0.187,0.1767,-0.5082,0.8218
-0.432,0.423,-0.447,-19.9,-107.6,82.2,1023,2018,5,16,19,16,37.848,0.2022,0.1755,-0.52,0.811
-0.273,0.474,-0.37,-7.4,-110.5,105.5,1023,2018,5,16,19,16,37.866,0.2202,0.1784,-0.5319,0.7979
-0.225,0.494,-0.309,1.1,-108.5,122.8,1023,2018,5,16,19,16,37.905,0.2398,0.1844,-0.5433,0.783
-0.204,0.435,-0.26,7.2,-99.4,137.8,0,2018,5,16,19,16,37.924,0.2605,0.193,-0.5534,0.7671
-0.169,0.342,-0.229,12.6,-77.7,153.5,0,2018,5,16,19,16,37.928,0.2819,0.2043,-0.5606,0.7512
-0.124,0.277,-0.209,18.3,-52.4,168.3,0,2018,5,16,19,16,37.95,0.3037,0.2189,-0.5638,0.7361
-0.133,0.229,-0.168,21.2,-36.6,180.7,0,2018,5,16,19,16,37.97,0.3257,0.2363,-0.5635,0.7214
-0.117,0.183,-0.131,20.6,-29.9,190.2,0,2018,5,16,19,16,37.989,0.3481,0.2553,-0.5607,0.7064
-0.054,0.149,-0.126,16.5,-32.4,194.8,0,2018,5,16,19,16,38.01,0.3712,0.2745,-0.5567,0.6905
0.033,0.117,-0.142,11.4,-42,196,0,2018,5,16,19,16,38.025,0.395,0.2927,-0.5523,0.6731
0.073,0.048,-0.133,8.1,-54.3,195,0,2018,5,16,19,16,38.066,0.4192,0.3093,-0.5486,0.6538
0.088,-0.032,-0.118,6.5,-66,193.6,0,2018,5,16,19,16,38.087,0.4434,0.3244,-0.5456,0.6327
0.052,-0.135,-0.118,5.8,-74.8,191.4,0,2018,5,16,19,16,38.091,0.4678,0.3377,-0.5427,0.6102
0.005,-0.252,-0.116,6.5,-76.4,187.5,0,2018,5,16,19,16,38.11,0.4916,0.3499,-0.5398,0.5868
-0.12,-0.448,-0.083,7.9,-70.2,177.4,0,2018,5,16,19,16,38.129,0.5138,0.3613,-0.5365,0.5634
-0.211,-0.635,-0.041,7.6,-60.7,159,0,2018,5,16,19,16,38.167,0.5335,0.3719,-0.5327,0.5414
-0.207,-0.7,-0.025,4.7,-62,133.1,0,2018,5,16,19,16,38.187,0.5504,0.3803,-0.5293,0.5216
-0.155,-0.754,-0.03,3.1,-74.6,100.7,0,2018,5,16,19,16,38.191,0.565,0.3848,-0.5279,0.5038
-0.075,-0.816,0.014,3.2,-83.3,70,0,2018,5,16,19,16,38.21,0.5774,0.3849,-0.5295,0.4878
0.014,-0.883,0.105,5.3,-82.4,44.2,0,2018,5,16,19,16,38.227,0.5873,0.3819,-0.5332,0.4741
0.119,-0.909,0.165,8,-76.3,26.3,0,2018,5,16,19,16,38.266,0.5948,0.3774,-0.5381,0.4627
0.2,-0.908,0.174,10.8,-67.6,15.9,0,2018,5,16,19,16,38.287,0.6002,0.3725,-0.5435,0.4531
0.258,-0.92,0.225,13.1,-54.3,10.1,0,2018,5,16,19,16,38.291,0.6039,0.3684,-0.5487,0.4453
0.322,-0.885,0.188,13.4,-46,7.7,0,2018,5,16,19,16,38.308,0.6065,0.365,-0.5534,0.4387
0.343,-0.907,0.135,18.1,-33.6,8.1,0,2018,5,16,19,16,38.33,0.6082,0.3626,-0.5576,0.433
0.334,-1.052,0.243,24.7,-6.9,5.8,1023,2018,5,16,19,16,38.35,0.608,0.3627,-0.5611,0.4287
0.338,-1.076,0.36,27.7,34.2,-5.7,1023,2018,5,16,19,16,38.369,0.6045,0.3663,-0.5628,0.4284
0.356,-0.971,0.412,25.6,76.3,-29.8,1023,2018,5,16,19,16,38.388,0.5968,0.3726,-0.5625,0.434
0.371,-0.767,0.289,15.1,96,-62.4,1023,2018,5,16,19,16,38.429,0.5854,0.3787,-0.5609,0.4462
0.306,-0.67,0.178,7.5,101.2,-94.3,1023,2018,5,16,19,16,38.449,0.5714,0.3819,-0.5594,0.4632
0.133,-0.735,0.193,-1.3,107.2,-120.7,0,2018,5,16,19,16,38.453,0.5552,0.3817,-0.5584,0.4838
-0.037,-0.693,0.137,-10.9,123.6,-137.5,0,2018,5,16,19,16,38.469,0.5368,0.3795,-0.5565,0.5079
-0.381,-0.708,0.105,-18.9,141.7,-149.5,0,2018,5,16,19,16,38.506,0.5163,0.3764,-0.5525,0.535
-0.867,-0.755,-0.031,-34.6,158.7,-160.8,0,2018,5,16,19,16,38.525,0.4941,0.3723,-0.5458,0.565
-1.275,-0.64,-0.281,-59.8,153.6,-177.1,0,2018,5,16,19,16,38.53,0.4712,0.3648,-0.5366,0.5972
-1.284,-0.441,-0.463,-80.9,129,-199.5,0,2018,5,16,19,16,38.551,0.4488,0.351,-0.5275,0.63
-1.077,-0.252,-0.585,-87.4,102.9,-223.3,0,2018,5,16,19,16,38.571,0.4258,0.3307,-0.5207,0.6618
-0.837,-0.09,-0.643,-76.1,98.7,-242.1,0,2018,5,16,19,16,38.591,0.4001,0.3069,-0.516,0.6923
-0.638,0.238,-0.609,-58.1,93.9,-255.3,0,2018,5,16,19,16,38.61,0.3702,0.2829,-0.5124,0.7212
-0.528,0.518,-0.645,-49.5,69,-259.4,0,2018,5,16,19,16,38.648,0.338,0.2582,-0.5107,0.747
-0.212,0.677,-0.743,-38.1,35.2,-265.6,0,2018,5,16,19,16,38.669,0.305,0.2318,-0.5127,0.7683
-0.146,0.726,-0.794,-22.1,6.1,-274,0,2018,5,16,19,16,38.673,0.2703,0.2044,-0.5189,0.7847
-0.292,0.849,-0.8,-6.3,4.3,-273.3,0,2018,5,16,19,16,38.691,0.2333,0.1776,-0.527,0.7976
-0.386,1.427,-0.941,-4.8,7.2,-249.5,0,2018,5,16,19,16,38.71,0.1966,0.1528,-0.5335,0.8082
-0.171,1.76,-0.98,-7.7,9.4,-205,0,2018,5,16,19,16,38.73,0.1649,0.131,-0.5377,0.8163
-0.091,1.577,-0.866,-7.6,1,-164,0,2018,5,16,19,16,38.767,0.1393,0.1129,-0.5404,0.822
0.02,1.341,-0.765,-6.3,-20.1,-127.5,0,2018,5,16,19,16,38.789,0.1194,0.0978,-0.5445,0.8244
-0.045,1.352,-0.648,-4.6,-22.8,-94,0,2018,5,16,19,16,38.791,0.1045,0.0862,-0.5494,0.8244
-0.034,1.313,-0.588,-1.4,-9.2,-74.2,0,2018,5,16,19,16,38.812,0.0932,0.0775,-0.553,0.8242
0.007,1.238,-0.561,3.6,18,-61.7,0,2018,5,16,19,16,38.832,0.0833,0.0712,-0.5533,0.8256
0.091,1.181,-0.55,8.6,41.1,-53.6,0,2018,5,16,19,16,38.866,0.0741,0.0671,-0.5495,0.8294
0.147,1.056,-0.509,9.9,35.3,-51.6,0,2018,5,16,19,16,38.889,0.0651,0.064,-0.5442,0.8339
0.182,1.01,-0.413,7.2,-4.3,-47,0,2018,5,16,19,16,38.893,0.0566,0.0608,-0.5423,0.836
0.237,0.606,-0.333,0.3,-60.4,-8.1,0,2018,5,16,19,16,38.912,0.0523,0.0583,-0.5475,0.8331
0.388,-0.059,0.005,-16.4,-112,65.5,0,2018,5,16,19,16,38.932,0.0585,0.0591,-0.5602,0.8241
-0.026,-1.846,-0.2,-4.9,-101.4,156,0,2018,5,16,19,16,38.97,0.0764,0.0665,-0.5748,0.8119
-0.659,-2.21,-0.442,11.5,-141.6,238.2,1023,2018,5,16,19,16,38.991,0.107,0.086,-0.5888,0.7965
-0.935,-2.008,-0.013,39.4,-145.9,229.3,1023,2018,5,16,19,16,38.995,0.1397,0.1115,-0.6058,0.7752
-0.797,-2.116,0.294,56.6,-110.7,182.8,1023,2018,5,16,19,16,39.014,0.1645,0.1363,-0.6207,0.7542
-0.785,-1.711,0.39,78.7,-47.7,153.2,1023,2018,5,16,19,16,39.034,0.1804,0.1607,-0.6286,0.7392
-0.545,-1.244,0.359,106,-1.1,129.7,1023,2018,5,16,19,16,39.053,0.1889,0.1867,-0.6301,0.7296
-0.265,-0.992,0.252,148.5,76.4,114.2,1023,2018,5,16,19,16,39.076,0.1887,0.2173,-0.6253,0.7253
-0.136,-0.688,0.165,183,151.2,100.8,0,2018,5,16,19,16,39.095,0.1794,0.254,-0.6114,0.7276
-0.014,-0.318,0.047,204.5,201.6,80.9,0,2018,5,16,19,16,39.133,0.1615,0.2935,-0.59,0.7345
0.025,-0.039,0.015,211.1,216.9,61.2,0,2018,5,16,19,16,39.152,0.1373,0.3325,-0.5647,0.7427
0.046,0.061,0.113,201.7,221.8,40.9,0,2018,5,16,19,16,39.156,0.1103,0.369,-0.5373,0.7502
0.099,0.147,0.147,176.7,227.3,23,0,2018,5,16,19,16,39.172,0.0815,0.4008,-0.509,0.7573
0.225,0.253,0.032,146.5,222.6,8.4,0,2018,5,16,19,16,39.194,0.053,0.4262,-0.4799,0.7649
0.348,0.344,-0.074,119.5,204.1,-1.6,0,2018,5,16,19,16,39.232,0.0263,0.4456,-0.4515,0.7725
0.428,0.398,-0.129,97.8,183.4,-6.5,0,2018,5,16,19,16,39.252,0.0023,0.4606,-0.426,0.7786
0.464,0.539,-0.147,78.7,163.1,-5.3,0,2018,5,16,19,16,39.256,-0.0185,0.4719,-0.4025,0.7841
0.502,0.622,-0.161,63.6,139.2,1,0,2018,5,16,19,16,39.276,-0.0357,0.4807,-0.3815,0.7886
0.499,0.755,-0.144,47,109.3,12.5,0,2018,5,16,19,16,39.296,-0.0488,0.4877,-0.3634,0.7922
0.445,0.767,-0.115,28.4,71.1,30.3,0,2018,5,16,19,16,39.336,-0.0555,0.4934,-0.3486,0.7949
0.267,0.627,-0.078,6,28.8,50.8,0,2018,5,16,19,16,39.34,-0.0547,0.4976,-0.338,0.7969
0.118,0.462,-0.146,-20.2,-14.4,73.5,0,2018,5,16,19,16,39.356,-0.0457,0.5,-0.3317,0.7986
0.026,0.347,-0.258,-39.4,-50.9,95.2,0,2018,5,16,19,16,39.393,-0.0287,0.5007,-0.3291,0.8
-0.127,0.257,-0.377,-49.6,-86.3,115.7,0,2018,5,16,19,16,39.412,-0.0047,0.5005,-0.3296,0.8004
-0.611,0.097,-0.446,-56,-119.5,140,0,2018,5,16,19,16,39.416,0.0255,0.5003,-0.3327,0.7989
-1.097,-0.115,-0.488,-64.6,-145.1,165.8,0,2018,5,16,19,16,39.435,0.0622,0.4999,-0.3373,0.7952
-1.192,-0.286,-0.483,-65.5,-161,181.1,0,2018,5,16,19,16,39.474,0.104,0.4988,-0.3424,0.7893
-0.928,-0.324,-0.408,-56.4,-178.7,182.1,0,2018,5,16,19,16,39.502,0.1473,0.4977,-0.3485,0.7804
-0.493,-0.304,-0.292,-33.4,-201.6,163,0,2018,5,16,19,16,39.52,0.1899,0.4968,-0.3577,0.7675
-0.214,-0.265,-0.162,-11.3,-220.6,126.1,0,2018,5,16,19,16,39.522,0.2288,0.4953,-0.3729,0.7504
-0.13,-0.209,-0.017,16.6,-193.1,87.6,0,2018,5,16,19,16,39.536,0.2601,0.4939,-0.3912,0.7316
-0.134,-0.202,0.078,44.3,-133.3,59.8,0,2018,5,16,19,16,39.576,0.2803,0.4947,-0.4079,0.7142
-0.137,-0.363,0.085,64,-44.3,46.1,0,2018,5,16,19,16,39.578,0.2901,0.5008,-0.4173,0.7005
-0.065,-0.492,-0.005,78.6,60.4,38.8,1023,2018,5,16,19,16,39.596,0.2888,0.5133,-0.416,0.6927
0.012,-0.517,-0.066,85.6,142,30.7,1023,2018,5,16,19,16,39.617,0.2771,0.5311,-0.4042,0.6911
0.102,-0.481,-0.136,82.6,200.5,28.6,1023,2018,5,16,19,16,39.637,0.2581,0.5516,-0.3844,0.6937
0.194,-0.218,-0.143,79,201.1,29.8,1023,2018,5,16,19,16,39.658,0.2361,0.5721,-0.3601,0.6979
0.233,-0.11,-0.099,76.2,167.9,39.9,1023,2018,5,16,19,16,39.678,0.2168,0.591,-0.337,0.6999
0.252,-0.028,0.004,70.2,120.4,51.4,0,2018,5,16,19,16,39.717,0.2027,0.6078,-0.3177,0.6989
0.258,-0.025,0.129,64.3,63.8,59.6,0,2018,5,16,19,16,39.735,0.1957,0.6218,-0.3032,0.6949
0.279,-0.113,0.247,60.6,15.9,64.8,0,2018,5,16,19,16,39.739,0.1959,0.6339,-0.294,0.6879
0.295,-0.25,0.33,60.7,-9,68.2,0,2018,5,16,19,16,39.759,0.2007,0.6445,-0.2886,0.6789
0.26,-0.399,0.393,65.2,-2,69.3,0,2018,5,16,19,16,39.781,0.2065,0.6551,-0.284,0.6689
0.217,-0.509,0.494,70.8,29.5,67,0,2018,5,16,19,16,39.8,0.2095,0.6669,-0.2771,0.6591
0.19,-0.6,0.508,75,77.3,62.5,0,2018,5,16,19,16,39.819,0.207,0.6803,-0.266,0.6507
0.157,-0.623,0.507,76.9,122.8,53,0,2018,5,16,19,16,39.835,0.1979,0.6951,-0.2503,0.6441
0.105,-0.653,0.536,76.3,166,41.1,0,2018,5,16,19,16,39.856,0.1821,0.7105,-0.2308,0.6392
0.046,-0.656,0.57,67.6,201.8,25.5,0,2018,5,16,19,16,39.895,0.16,0.7254,-0.208,0.6362
-0.145,-0.484,0.596,27.2,221.3,-5.1,0,2018,5,16,19,16,39.917,0.1031,0.7467,-0.16,0.6372
-0.349,-0.378,0.557,8.4,215.3,-5,0,2018,5,16,19,16,39.921,0.0735,0.7519,-0.1368,0.6406
-0.37,-0.31,0.575,-17.8,207.8,1.2,0,2018,5,16,19,16,39.939,0.0456,0.7535,-0.1131,0.6459
-0.236,-0.245,0.462,-47.4,188.6,8.1,0,2018,5,16,19,16,39.96,0.0207,0.7509,-0.0899,0.6538
-0.214,-0.18,0.35,-72,160.4,13.3,0,2018,5,16,19,16,39.981,-0.0002,0.7445,-0.068,0.6641
-0.182,-0.276,0.182,-92.3,117,17.5,0,2018,5,16,19,16,40.001,-0.0151,0.7347,-0.0502,0.6763
-0.193,-0.345,0.04,-104.7,92.6,19.3,0,2018,5,16,19,16,40.04,-0.0252,0.7226,-0.0358,0.6898
-0.265,-0.421,-0.002,-112.3,90,19.8,0,2018,5,16,19,16,40.044,-0.0335,0.709,-0.023,0.704
-0.358,-0.473,-0.051,-122.6,92.3,19.7,0,2018,5,16,19,16,40.06,-0.0418,0.6938,-0.0102,0.7188
-0.184,-0.535,-0.203,-125.6,114,21.7,0,2018,5,16,19,16,40.079,-0.0615,0.6595,0.0196,0.7488
-0.167,-0.513,-0.243,-120.9,102.9,18.7,0,2018,5,16,19,16,40.098,-0.0719,0.6419,0.035,0.7625
-0.237,-0.483,-0.288,-122.9,73.6,14.1,0,2018,5,16,19,16,40.12,-0.0805,0.6243,0.0471,0.7755
-0.269,-0.492,-0.436,-126.6,34.7,10.6,0,2018,5,16,19,16,40.141,-0.0856,0.6063,0.0539,0.7887
-0.235,-0.514,-0.605,-124.6,-2.9,5,0,2018,5,16,19,16,40.16,-0.0872,0.5885,0.0548,0.8018
-0.144,-0.671,-0.754,-112.2,-3.8,-1.2,0,2018,5,16,19,16,40.18,-0.0873,0.5717,0.0519,0.814
-0.101,-0.766,-0.846,-90.5,39.3,-6.4,0,2018,5,16,19,16,40.217,-0.0903,0.557,0.0523,0.8238
-0.083,-0.772,-0.877,-64.2,99.8,-11.6,0,2018,5,16,19,16,40.237,-0.0992,0.5448,0.0604,0.8304
-0.038,-0.71,-0.877,-40.2,149.6,-17.2,1023,2018,5,16,19,16,40.242,-0.1139,0.5352,0.0766,0.8334
-0.013,-0.643,-0.863,-22.1,172.3,-24.7,1023,2018,5,16,19,16,40.259,-0.1326,0.5276,0.0979,0.8333
-0.008,-0.603,-0.87,-8.3,170.8,-34.7,1023,2018,5,16,19,16,40.279,-0.1531,0.5217,0.12,0.8306
0.033,-0.556,-0.858,3.1,149.2,-47.4,1023,2018,5,16,19,16,40.299,-0.1737,0.5177,0.1394,0.826
0.064,-0.558,-0.829,13.7,126,-60.5,1023,2018,5,16,19,16,40.337,-0.1935,0.516,0.1543,0.8199
0.042,-0.57,-0.783,24.2,110.3,-74.1,1023,2018,5,16,19,16,40.358,-0.2132,0.5165,0.1656,0.8125
0.021,-0.576,-0.775,34,102.1,-87.5,1023,2018,5,16,19,16,40.362,-0.2333,0.519,0.1743,0.8035
0.019,-0.538,-0.769,44.8,99.9,-100.7,1023,2018,5,16,19,16,40.382,-0.2544,0.5232,0.1814,0.7928
-0.006,-0.494,-0.735,55.3,99.9,-113.5,1023,2018,5,16,19,16,40.402,-0.2767,0.5289,0.1876,0.7799
-0.07,-0.445,-0.66,64.7,99.7,-125.8,1023,2018,5,16,19,16,40.422,-0.3002,0.536,0.1929,0.765
-0.129,-0.386,-0.586,71.8,96.2,-138,1023,2018,5,16,19,16,40.443,-0.3246,0.5442,0.1971,0.7479
-0.137,-0.32,-0.521,77.3,89.7,-149,0,2018,5,16,19,16,40.462,-0.3494,0.5534,0.1997,0.7291
-0.142,-0.259,-0.475,81,81.1,-158,0,2018,5,16,19,16,40.501,-0.3743,0.5634,0.2005,0.7086
-0.193,-0.205,-0.425,83.6,72.8,-164.9,0,2018,5,16,19,16,40.52,-0.3987,0.5739,0.1993,0.6869
-0.255,-0.148,-0.374,83.1,62.9,-169.6,0,2018,5,16,19,16,40.524,-0.4224,0.5847,0.1963,0.6641
-0.314,-0.009,-0.31,77.9,30.2,-173.7,0,2018,5,16,19,16,40.543,-0.4655,0.6067,0.184,0.6174
-0.363,0.045,-0.257,75.9,6.8,-175.3,0,2018,5,16,19,16,40.561,-0.4835,0.6188,0.1736,0.5942
-0.477,0.099,-0.193,73.3,-15.3,-173.3,0,2018,5,16,19,16,40.595,-0.4985,0.6319,0.1604,0.5712
-0.55,0.114,-0.105,73.6,-27.2,-167.4,0,2018,5,16,19,16,40.617,-0.5106,0.6456,0.1457,0.5487
-0.612,0.129,0.055,74.3,-20.9,-158.3,0,2018,5,16,19,16,40.621,-0.5212,0.6588,0.1314,0.5262
-0.611,0.212,0.209,71.7,5.8,-145.8,0,2018,5,16,19,16,40.659,-0.5323,0.6695,0.1197,0.5039
-0.581,0.34,0.252,66.5,38.6,-129.9,0,2018,5,16,19,16,40.679,-0.5455,0.676,0.1121,0.4824
-0.55,0.425,0.296,61.5,66.9,-114.9,0,2018,5,16,19,16,40.684,-0.5607,0.6784,0.1082,0.4621
-0.549,0.525,0.316,52.5,81.1,-99.1,0,2018,5,16,19,16,40.724,-0.5771,0.6773,0.1073,0.4433
-0.501,0.655,0.326,41.8,78.6,-80.7,0,2018,5,16,19,16,40.744,-0.5926,0.6743,0.1077,0.4271
-0.438,0.774,0.338,31.8,62.4,-60.3,0,2018,5,16,19,16,40.748,-0.6054,0.6709,0.1084,0.4141
-0.397,0.891,0.338,22,38.6,-36.1,0,2018,5,16,19,16,40.763,-0.6142,0.6683,0.1092,0.4049
-0.368,0.905,0.335,13.3,13.4,-8.9,0,2018,5,16,19,16,40.783,-0.6184,0.6673,0.1103,0.4
-0.348,0.822,0.299,6.2,-4.7,18.3,0,2018,5,16,19,16,40.822,-0.6181,0.6675,0.1121,0.3995
-0.34,0.71,0.268,2.7,-10.6,44.9,0,2018,5,16,19,16,40.826,-0.6148,0.6681,0.1157,0.4027
-0.329,0.646,0.236,0.4,-10.2,69.8,0,2018,5,16,19,16,40.846,-0.6094,0.6681,0.1219,0.4089
-0.279,0.572,0.186,-1,-10,92.2,0,2018,5,16,19,16,40.867,-0.6023,0.6673,0.1307,0.4179
-0.223,0.495,0.109,-1.2,-12.8,110.6,0,2018,5,16,19,16,40.885,-0.5935,0.666,0.1416,0.4289
-0.158,0.433,0.059,1.3,-18.2,125.7,0,2018,5,16,19,16,40.924,-0.5826,0.6645,0.1542,0.4416
-0.113,0.364,0.027,5.1,-24.6,139.2,0,2018,5,16,19,16,40.943,-0.5696,0.6632,0.1683,0.4552
-0.09,0.314,0.005,9,-33.8,151.9,0,2018,5,16,19,16,40.947,-0.5543,0.6621,0.1836,0.4696
-0.086,0.178,0.016,12.8,-43.3,166.3,0,2018,5,16,19,16,40.963,-0.5359,0.6616,0.1996,0.4849
-0.092,0.13,0.016,20,-41.9,181.1,0,2018,5,16,19,16,40.984,-0.515,0.6601,0.2184,0.5011
-0.093,0.012,0.028,26.8,-48.8,196.4,0,2018,5,16,19,16,41.005,-0.4916,0.6583,0.2388,0.5175
-0.1,-0.097,0.038,33.9,-49.5,209.5,0,2018,5,16,19,16,41.024,-0.4661,0.6562,0.26,0.5333
-0.129,-0.217,0.058,41.2,-46,219.7,0,2018,5,16,19,16,41.045,-0.4391,0.6534,0.2824,0.548
-0.148,-0.365,0.101,47.3,-35.2,225.5,0,2018,5,16,19,16,41.065,-0.4105,0.6493,0.3071,0.5616
-0.141,-0.519,0.139,51.8,-16.1,225.5,0,2018,5,16,19,16,41.083,-0.3824,0.6433,0.3335,0.5732
-0.153,-0.672,0.184,55.2,10.1,218.2,0,2018,5,16,19,16,41.121,-0.3564,0.6354,0.3615,0.5816
-0.188,-0.832,0.188,56.5,38.1,203.9,0,2018,5,16,19,16,41.142,-0.3339,0.6258,0.3907,0.5866
-0.186,-0.972,0.201,58.1,67.2,181.1,1023,2018,5,16,19,16,41.147,-0.3158,0.615,0.4203,0.5875
-0.116,-1.062,0.205,60.8,93.3,149.7,1023,2018,5,16,19,16,41.187,-0.3031,0.6041,0.4495,0.5839
-0.094,-1.069,0.22,65,109.2,111.4,1023,2018,5,16,19,16,41.191,-0.2955,0.5946,0.4768,0.5759
-0.192,-1.104,0.326,68.3,123.8,70.1,1023,2018,5,16,19,16,41.206,-0.2929,0.5876,0.5011,0.5636
-0.178,-1.06,0.446,63,139.5,26.7,0,2018,5,16,19,16,41.244,-0.2958,0.5831,0.5221,0.5474
-0.044,-0.896,0.483,51.3,144.1,-14.1,0,2018,5,16,19,16,41.264,-0.3046,0.5805,0.5391,0.5286
0.059,-0.789,0.476,38.6,137.9,-49.4,0,2018,5,16,19,16,41.268,-0.3176,0.5801,0.5509,0.5088
0.052,-0.746,0.521,25,131.8,-78.5,0,2018,5,16,19,16,41.287,-0.3338,0.5816,0.5577,0.4889
-0.051,-0.706,0.576,5.6,131.1,-101.4,0,2018,5,16,19,16,41.322,-0.3533,0.5839,0.5604,0.469
-0.126,-0.614,0.508,-20.5,122.1,-118,0,2018,5,16,19,16,41.342,-0.376,0.586,0.5588,0.4504
-0.152,-0.532,0.394,-43.2,106.2,-128.5,0,2018,5,16,19,16,41.347,-0.4004,0.5878,0.5526,0.4343
-0.165,-0.451,0.313,-61.5,90.8,-135.4,0,2018,5,16,19,16,41.385,-0.4254,0.5894,0.5425,0.4208
-0.23,-0.397,0.292,-77.4,77.3,-143.5,0,2018,5,16,19,16,41.406,-0.4506,0.591,0.5289,0.4096
-0.273,-0.327,0.25,-93.7,65.5,-153.5,0,2018,5,16,19,16,41.41,-0.4761,0.5928,0.5116,0.3999
-0.268,-0.227,0.211,-108.2,51.8,-163.8,0,2018,5,16,19,16,41.427,-0.5017,0.595,0.4906,0.3916
-0.231,-0.157,0.113,-118.1,36.5,-170.5,0,2018,5,16,19,16,41.448,-0.527,0.5975,0.466,0.3846
-0.291,-0.153,0.051,-121.5,17,-177.5,0,2018,5,16,19,16,41.469,-0.5513,0.6007,0.4377,0.3787
-0.34,-0.185,0.014,-121.1,9.2,-183.1,1023,2018,5,16,19,16,41.487,-0.5737,0.6048,0.4071,0.3729
-0.386,-0.176,-0.027,-115.8,18.4,-185,1023,2018,5,16,19,16,41.507,-0.5951,0.6086,0.3762,0.3657
-0.447,-0.134,-0.072,-107.4,38.7,-181,1023,2018,5,16,19,16,41.546,-0.6166,0.61,0.347,0.3566
-0.603,-0.107,-0.102,-97,62.8,-172.7,1023,2018,5,16,19,16,41.566,-0.6388,0.6081,0.3204,0.3453
-0.794,-0.065,-0.139,-90.7,82.4,-161.4,1023,2018,5,16,19,16,41.57,-0.6617,0.6031,0.2964,0.3324
-0.9,-0.011,-0.217,-85.9,94.7,-146.6,1023,2018,5,16,19,16,41.589,-0.6844,0.5949,0.275,0.3191
-0.959,0.058,-0.288,-82.4,89.5,-130.7,1023,2018,5,16,19,16,41.608,-0.7056,0.5851,0.2557,0.3068
-1.065,0.099,-0.348,-79.6,72.2,-114.3,1023,2018,5,16,19,16,41.649,-0.7239,0.5758,0.2374,0.2964
-1.12,0.154,-0.416,-76,53.2,-97.9,1023,2018,5,16,19,16,41.67,-0.7389,0.5677,0.22,0.2883
-1.115,0.311,-0.46,-70.1,35.2,-79.5,0,2018,5,16,19,16,41.674,-0.7507,0.5613,0.204,0.2823
-0.963,0.371,-0.534,-63.7,14.3,-57.4,0,2018,5,16,19,16,41.688,-0.7589,0.5568,0.1896,0.2792
-0.829,0.448,-0.58,-51,-3.2,-32.6,0,2018,5,16,19,16,41.727,-0.7635,0.5546,0.1779,0.2786
-0.738,0.513,-0.592,-35.9,-23.1,-4.9,0,2018,5,16,19,16,41.747,-0.7644,0.5549,0.1697,0.2808
-0.59,0.509,-0.565,-18.2,-35.1,23,0,2018,5,16,19,16,41.751,-0.7617,0.5573,0.1656,0.2856
-0.329,0.504,-0.496,-0.1,-39.1,45.7,0,2018,5,16,19,16,41.77,-0.7564,0.5609,0.166,0.2923
-0.062,0.542,-0.403,19.5,-36.5,58.3,0,2018,5,16,19,16,41.789,-0.7495,0.5651,0.1707,0.2994
0.063,0.658,-0.319,33.2,-36.1,63.2,0,2018,5,16,19,16,41.813,-0.7417,0.5695,0.1785,0.3058
0.061,0.771,-0.303,40.2,-43.4,66.3,0,2018,5,16,19,16,41.831,-0.7328,0.5748,0.1877,0.3117
0.051,0.78,-0.343,45.6,-51.2,71.9,0,2018,5,16,19,16,41.85,-0.7225,0.5812,0.1975,0.3177
0.047,0.641,-0.342,52.7,-45.7,80.8,0,2018,5,16,19,16,41.891,-0.7112,0.5877,0.2088,0.324
0.046,0.564,-0.282,62.3,-31.2,92.5,0,2018,5,16,19,16,41.893,-0.7001,0.5925,0.2227,0.3302
0.026,0.537,-0.195,68.7,-19.5,106.6,0,2018,5,16,19,16,41.911,-0.6889,0.5955,0.2396,0.3364
-0.013,0.512,-0.138,70.8,-10.6,121.7,0,2018,5,16,19,16,41.929,-0.6774,0.5966,0.2591,0.3435
-0.066,0.519,-0.115,70.4,-3.7,138.2,0,2018,5,16,19,16,41.951,-0.6654,0.5956,0.2805,0.3517
-0.084,0.566,-0.148,67.8,-7.6,157.8,0,2018,5,16,19,16,41.969,-0.6519,0.5931,0.3037,0.3617
-0.085,0.481,-0.205,68.1,-21,177.9,0,2018,5,16,19,16,41.991,-0.6358,0.5898,0.3277,0.3746
-0.083,0.262,-0.179,77.9,-14.3,195.9,0,2018,5,16,19,16,42.012,-0.6168,0.5857,0.3538,0.3887
-0.139,0.07,-0.11,89.5,-0.2,208.9,0,2018,5,16,19,16,42.031,-0.5963,0.5795,0.3829,0.4022
-0.221,-0.132,-0.032,105.7,20.1,214.9,1023,2018,5,16,19,16,42.069,-0.5747,0.5712,0.4154,0.4132
-0.279,-0.281,0.053,125.2,42.2,212.2,1023,2018,5,16,19,16,42.089,-0.5538,0.5609,0.4498,0.4198
-0.297,-0.396,0.182,142.5,64,200.2,1023,2018,5,16,19,16,42.092,-0.5325,0.549,0.4867,0.4219
-0.296,-0.483,0.345,149.1,82.8,178,1023,2018,5,16,19,16,42.131,-0.5124,0.5365,0.5237,0.4186
-0.179,-0.5,0.429,145.4,96.1,147.5,1023,2018,5,16,19,16,42.153,-0.495,0.5239,0.5582,0.4107
-0.032,-0.484,0.41,136.4,103.9,111.4,1023,2018,5,16,19,16,42.157,-0.4808,0.5125,0.589,0.3989
0.122,-0.427,0.431,124.5,98.1,70.8,1023,2018,5,16,19,16,42.172,-0.4701,0.5032,0.615,0.3839
0.233,-0.263,0.575,107,46.8,32.2,1023,2018,5,16,19,16,42.212,-0.4608,0.4992,0.6337,0.3697
0.307,-0.22,0.681,79.2,-28.6,8.3,0,2018,5,16,19,16,42.23,-0.45,0.5024,0.643,0.3625
0.499,-0.346,0.686,62,-67.9,-4.1,0,2018,5,16,19,16,42.234,-0.4377,0.5105,0.6451,0.3627
0.615,-0.487,0.843,53.5,-66.8,-14.2,0,2018,5,16,19,16,42.271,-0.4257,0.5203,0.6441,0.3648
0.667,-0.452,1.168,38.9,-53.3,-26.3,0,2018,5,16,19,16,42.291,-0.4165,0.5297,0.6419,0.3657
0.755,-0.314,1.123,9.9,-61,-32.5,0,2018,5,16,19,16,42.295,-0.4107,0.5385,0.6371,0.3678
0.744,-0.248,1.013,-6,-71.7,-36.2,0,2018,5,16,19,16,42.315,-0.4066,0.547,0.6295,0.3728
0.523,-0.393,1.007,-20.9,-72,-40.6,0,2018,5,16,19,16,42.334,-0.4037,0.5554,0.62,0.3794
0.091,-0.669,1.087,-40.6,-58.5,-43.8,0,2018,5,16,19,16,42.37,-0.4034,0.5625,0.6092,0.3868
-0.445,-0.93,0.99,-68.9,-29.3,-46.6,0,2018,5,16,19,16,42.375,-0.4081,0.5664,0.5978,0.3937
-1.162,-1.026,0.806,-96.5,7.1,-55.1,0,2018,5,16,19,16,42.391,-0.4192,0.5665,0.5862,0.3994
-1.642,-0.813,0.569,-144,4.2,-72.7,0,2018,5,16,19,16,42.412,-0.4371,0.5635,0.5718,0.4053
-1.459,-0.427,0.282,-186.9,-69.2,-98,0,2018,5,16,19,16,42.435,-0.4566,0.5622,0.5482,0.418
-1.207,-0.401,0.184,-206.4,-155.4,-140,0,2018,5,16,19,16,42.454,-0.4723,0.5677,0.5117,0.4388
-1.107,-0.461,0.152,-208.6,-196.8,-193.6,0,2018,5,16,19,16,42.475,-0.4854,0.5805,0.463,0.4613
-1.137,-0.437,0.174,-194,-203,-234.2,0,2018,5,16,19,16,42.495,-0.4978,0.5975,0.4071,0.4788
-0.991,-0.388,0.118,-161.9,-188.2,-263.9,0,2018,5,16,19,16,42.515,-0.5106,0.616,0.3475,0.4888
-0.778,-0.277,-0.026,-119.2,-151.2,-278.1,0,2018,5,16,19,16,42.553,-0.523,0.6346,0.2905,0.489
-0.538,-0.153,-0.167,-75.9,-91.2,-278.1,0,2018,5,16,19,16,42.574,-0.537,0.6509,0.2403,0.4796
-0.41,-0.011,-0.245,-39.1,-18.4,-271.7,0,2018,5,16,19,16,42.578,-0.5556,0.6619,0.1992,0.4619
-0.381,0.143,-0.283,-15.1,47.9,-266.4,0,2018,5,16,19,16,42.594,-0.5796,0.6667,0.1669,0.4377
-0.401,0.304,-0.329,-4.2,98,-260.8,0,2018,5,16,19,16,42.615,-0.608,0.6653,0.1409,0.4094
-0.371,0.462,-0.345,-1.6,132,-252.4,0,2018,5,16,19,16,42.636,-0.639,0.6585,0.1191,0.3792
-0.351,0.66,-0.346,-6.8,143.4,-243,0,2018,5,16,19,16,42.656,-0.6706,0.647,0.0994,0.3487
-0.365,0.752,-0.361,-17.3,138.1,-233.3,0,2018,5,16,19,16,42.677,-0.7002,0.6334,0.0796,0.3195
-0.408,0.825,-0.382,-30.5,125.3,-225.4,1023,2018,5,16,19,16,42.697,-0.7269,0.6186,0.0586,0.292
-0.462,0.966,-0.439,-46,101.2,-214.9,1023,2018,5,16,19,16,42.717,-0.75,0.604,0.0357,0.2668
-0.455,1.14,-0.507,-59.7,67.3,-198.5,1023,2018,5,16,19,16,42.738,-0.768,0.5916,0.0108,0.2447
-0.444,1.184,-0.517,-67.6,35.1,-177.2,1023,2018,5,16,19,16,42.756,-0.7806,0.5824,-0.0151,0.226
-0.612,1.082,-0.381,-70.7,20.1,-149.8,1023,2018,5,16,19,16,42.796,-0.7891,0.5754,-0.0401,0.2107
-0.692,0.924,-0.335,-67.5,25.8,-110.2,1023,2018,5,16,19,16,42.815,-0.7951,0.569,-0.0619,0.2001
-0.796,0.929,-0.301,-67.2,22.7,-63.6,1023,2018,5,16,19,16,42.819,-0.7999,0.562,-0.0788,0.1949
-0.743,0.872,-0.337,-65.7,22.2,2.4,1023,2018,5,16,19,16,42.84,-0.802,0.5562,-0.0904,0.1976
-0.738,0.925,-0.307,-65.1,0.4,82.7,0,2018,5,16,19,16,42.855,-0.8008,0.5527,-0.095,0.2099
-0.701,0.617,-0.398,-42.1,-25.2,181.9,0,2018,5,16,19,16,42.895,-0.7936,0.5543,-0.0902,0.2337
-0.79,0.336,-0.233,-8.4,-74.5,270.3,0,2018,5,16,19,16,42.915,-0.7789,0.5627,-0.073,0.2668
-0.757,0.311,0.02,9.7,-158.2,328.6,0,2018,5,16,19,16,42.919,-0.7521,0.5816,-0.0484,0.3059
-0.748,0.382,0.222,11.7,-231.8,359.4,0,2018,5,16,19,16,42.937,-0.7119,0.6097,-0.0222,0.3476
-0.742,0.185,0.211,2.4,-255.7,374.6,0,2018,5,16,19,16,42.976,-0.6608,0.6407,0.0025,0.3906
-0.773,-0.044,0.168,-4,-224.9,373.5,0,2018,5,16,19,16,42.998,-0.6063,0.6663,0.0277,0.433
-0.753,-0.208,0.181,-4.4,-174.1,360.4,0,2018,5,16,19,16,43.002,-0.554,0.6834,0.0546,0.4721
-0.667,-0.462,0.157,2.2,-85.9,349.8,0,2018,5,16,19,16,43.02,-0.508,0.6909,0.0859,0.5069
-0.55,-0.713,0.129,20.6,37.8,339.6,0,2018,5,16,19,16,43.059,-0.4741,0.6873,0.126,0.5356
-0.383,-0.783,0.129,45.4,149,324.3,0,2018,5,16,19,16,43.078,-0.4536,0.6735,0.1778,0.5557
-0.217,-0.664,0.1,60.1,182.1,295.7,0,2018,5,16,19,16,43.082,-0.4416,0.6538,0.2352,0.5674
-0.071,-0.555,0.082,62.6,143.2,255.5,0,2018,5,16,19,16,43.098,-0.4303,0.6346,0.2874,0.5739
0.141,-0.501,0.01,52.8,75.2,206.6,0,2018,5,16,19,16,43.117,-0.4159,0.6199,0.3276,0.5789
0.242,-0.535,0.005,46.8,22.7,152.5,0,2018,5,16,19,16,43.137,-0.4001,0.6108,0.3549,0.5837
0.205,-0.581,0.134,40.9,-15.6,97.8,0,2018,5,16,19,16,43.16,-0.3851,0.6071,0.3711,0.5875
-0.049,-0.738,0.28,37.7,-38.9,52,0,2018,5,16,19,16,43.18,-0.3722,0.6081,0.3782,0.5903
-0.485,-0.974,0.539,26.8,-47.6,16.1,0,2018,5,16,19,16,43.201,-0.3621,0.6121,0.3791,0.5918
-0.605,-1.029,0.581,5.6,-39.2,-9.1,0,2018,5,16,19,16,43.221,-0.3565,0.6162,0.3757,0.5932
-0.396,-0.79,0.384,-22.4,-46.8,-37.1,0,2018,5,16,19,16,43.24,-0.3556,0.619,0.3683,0.5955
-0.238,-0.548,0.285,-45.5,-91.2,-72.3,0,2018,5,16,19,16,43.262,-0.3565,0.6228,0.3528,0.6003
-0.302,-0.346,0.232,-75.7,-157.4,-105.3,0,2018,5,16,19,16,43.278,-0.3563,0.6293,0.3259,0.6088
-0.188,-0.317,0.097,-99.3,-222.7,-129.5,0,2018,5,16,19,16,43.316,-0.3526,0.6379,0.2863,0.6218
-0.108,-0.398,0.076,-103.4,-251,-143.1,0,2018,5,16,19,16,43.337,-0.3458,0.6474,0.238,0.636
-0.12,-0.477,0.065,-95.8,-243.1,-143.4,1023,2018,5,16,19,16,43.341,-0.3374,0.6563,0.1875,0.6482
-0.175,-0.508,0.047,-81.8,-209.1,-139.1,1023,2018,5,16,19,16,43.36,-0.3301,0.6633,0.1402,0.6567
-0.099,-0.419,0.016,-62.8,-161.2,-137.1,1023,2018,5,16,19,16,43.379,-0.326,0.6684,0.0988,0.6612
0.026,-0.259,0.019,-40.2,-104.5,-136.4,1023,2018,5,16,19,16,43.417,-0.327,0.6719,0.0646,0.6613
0.08,-0.14,0.063,-20.3,-50.7,-138.3,1023,2018,5,16,19,16,43.438,-0.3343,0.674,0.0381,0.6575
0.061,-0.019,0.115,-7.6,-10.2,-142.8,1023,2018,5,16,19,16,43.442,-0.3475,0.6747,0.0175,0.6508
0.014,0.057,0.108,-0.6,18.8,-145.2,1023,2018,5,16,19,16,43.462,-0.365,0.6734,0.0009,0.6428
-0.025,0.127,0.086,-0.8,39.3,-145.3,1023,2018,5,16,19,16,43.484,-0.3852,0.671,-0.0128,0.6333
-0.103,0.186,0.139,-4.7,48.6,-144.4,1023,2018,5,16,19,16,43.519,-0.4066,0.6671,-0.025,0.6236
-0.271,0.232,0.157,-19.1,47.6,-141,1023,2018,5,16,19,16,43.54,-0.428,0.6614,-0.0373,0.6147
-0.294,0.295,0.051,-37.4,45.3,-133,0,2018,5,16,19,16,43.544,-0.448,0.6535,-0.0503,0.6079
-0.277,0.383,-0.042,-53,33.6,-125,0,2018,5,16,19,16,43.561,-0.466,0.6441,-0.0644,0.6031
-0.312,0.459,-0.101,-65.5,10.3,-118.3,0,2018,5,16,19,16,43.599,-0.4806,0.6343,-0.0806,0.6
-0.477,0.494,-0.106,-76.4,-17.3,-109.5,0,2018,5,16,19,16,43.617,-0.4911,0.6254,-0.0997,0.598
-0.551,0.5,-0.129,-85.5,-36.8,-95.1,0,2018,5,16,19,16,43.622,-0.4974,0.6173,-0.1209,0.5973
-0.519,0.499,-0.153,-90.6,-47.2,-75.3,0,2018,5,16,19,16,43.642,-0.4998,0.6097,-0.1423,0.5984
-0.453,0.526,-0.144,-88.9,-48.2,-51.4,0,2018,5,16,19,16,43.661,-0.4991,0.6027,-0.162,0.601
-0.476,0.548,-0.113,-87.2,-54,-22.3,0,2018,5,16,19,16,43.7,-0.495,0.5968,-0.1789,0.6055
-0.405,0.508,-0.14,-83.4,-53.1,9.3,0,2018,5,16,19,16,43.72,-0.4873,0.5921,-0.1926,0.6121
-0.295,0.554,-0.2,-72.6,-48.2,37.9,0,2018,5,16,19,16,43.724,-0.4771,0.5887,-0.2022,0.6203
-0.187,0.58,-0.2,-60.9,-56.6,59.7,0,2018,5,16,19,16,43.761,-0.4643,0.5873,-0.2081,0.6292
-0.096,0.445,-0.137,-52.4,-65.1,75.8,0,2018,5,16,19,16,43.782,-0.4487,0.5885,-0.2125,0.638
-0.086,0.363,-0.027,-46.5,-66.2,91.3,0,2018,5,16,19,16,43.786,-0.431,0.5911,-0.2151,0.6469
-0.094,0.364,0.01,-47.7,-73.3,110.1,0,2018,5,16,19,16,43.801,-0.4109,0.5945,-0.2161,0.6563
-0.081,0.282,-0.046,-51.2,-71.7,133,0,2018,5,16,19,16,43.841,-0.3877,0.5985,-0.2155,0.667
-0.084,0.164,-0.088,-57.2,-65.6,153.1,0,2018,5,16,19,16,43.86,-0.3618,0.6019,-0.2119,0.6795
-0.076,0.061,-0.109,-66.5,-70.3,170.7,0,2018,5,16,19,16,43.865,-0.3334,0.6044,-0.2068,0.6933
-0.083,0.01,-0.138,-78.9,-83.4,184.2,0,2018,5,16,19,16,43.883,-0.3013,0.606,-0.2014,0.708
-0.099,-0.019,-0.121,-91.8,-101.9,190.8,0,2018,5,16,19,16,43.92,-0.265,0.6064,-0.1975,0.7231
-0.154,-0.066,-0.023,-106.8,-114.4,191,0,2018,5,16,19,16,43.939,-0.2252,0.6056,-0.1952,0.7377
-0.156,-0.096,-0.09,-125.4,-124.6,192.2,1023,2018,5,16,19,16,43.942,-0.1835,0.6018,-0.1947,0.7524
-0.159,-0.073,-0.251,-139.1,-143.8,194.4,1023,2018,5,16,19,16,43.981,-0.1393,0.5948,-0.1961,0.7669
-0.186,-0.078,-0.412,-147.7,-176.1,196.6,1023,2018,5,16,19,16,44.002,-0.0914,0.5853,-0.2005,0.7802
-0.197,-0.132,-0.519,-150.4,-209.6,195.5,1023,2018,5,16,19,16,44.006,-0.0395,0.574,-0.209,0.7907
-0.198,-0.204,-0.562,-148.5,-237.6,190.6,1023,2018,5,16,19,16,44.023,0.0151,0.561,-0.2213,0.7975
-0.192,-0.289,-0.581,-143.3,-259.3,183,1023,2018,5,16,19,16,44.043,0.0711,0.5462,-0.237,0.8002
-0.186,-0.354,-0.595,-134.6,-269.9,174.6,1023,2018,5,16,19,16,44.063,0.127,0.5298,-0.255,0.7987
-0.153,-0.41,-0.602,-119.9,-263.6,166.6,1023,2018,5,16,19,16,44.082,0.1809,0.5128,-0.2733,0.7934
-0.114,-0.455,-0.583,-100.6,-243.8,158.9,1023,2018,5,16,19,16,44.121,0.2311,0.4965,-0.29,0.7847
-0.015,-0.514,-0.576,-53.7,-177.7,141.3,0,2018,5,16,19,16,44.142,0.3156,0.4713,-0.3147,0.761
0.005,-0.564,-0.57,-27.4,-134.4,131.7,0,2018,5,16,19,16,44.147,0.3484,0.4646,-0.3216,0.7477
-0.003,-0.56,-0.499,-3.4,-100.2,119.7,0,2018,5,16,19,16,44.168,0.3748,0.4627,-0.3255,0.7344
-0.071,-0.658,-0.406,11.3,-76.3,107.1,0,2018,5,16,19,16,44.187,0.396,0.4638,-0.3278,0.7214
-0.088,-0.835,-0.34,19.3,-43.5,93.5,0,2018,5,16,19,16,44.223,0.4124,0.4673,-0.3283,0.7096
-0.025,-0.882,-0.362,24.8,-16,75.8,0,2018,5,16,19,16,44.244,0.4238,0.473,-0.3263,0.7
0.064,-0.811,-0.402,29.4,-19.3,51.4,0,2018,5,16,19,16,44.248,0.4313,0.4787,-0.3249,0.6922
0.124,-0.794,-0.325,37.8,-31.5,24.9,0,2018,5,16,19,16,44.265,0.436,0.4829,-0.3275,0.685
0.125,-0.779,-0.133,44.9,-35.2,-1.7,0,2018,5,16,19,16,44.286,0.4378,0.4859,-0.3338,0.6787
0.158,-0.727,-0.043,49.5,-35,-23.3,0,2018,5,16,19,16,44.306,0.4364,0.488,-0.3428,0.6736
0.179,-0.706,-0.005,53.9,-27.8,-39.2,0,2018,5,16,19,16,44.341,0.4322,0.4897,-0.3532,0.6697
0.159,-0.715,0.046,57,-14.5,-50.2,0,2018,5,16,19,16,44.36,0.4253,0.4917,-0.3638,0.667
0.148,-0.707,0.112,55.5,0.6,-60,0,2018,5,16,19,16,44.366,0.4157,0.4943,-0.3734,0.6658
0.077,-0.632,0.188,47.3,25.8,-79.5,0,2018,5,16,19,16,44.403,0.3901,0.499,-0.3895,0.6685
0.015,-0.593,0.273,39.2,31.5,-91.7,0,2018,5,16,19,16,44.424,0.3745,0.5001,-0.3964,0.6725
-0.048,-0.451,0.362,12.1,20,-120.9,0,2018,5,16,19,16,44.428,0.3405,0.4949,-0.4117,0.6852
-0.048,-0.442,0.358,0.6,10.9,-134.9,0,2018,5,16,19,16,44.464,0.3234,0.4871,-0.4212,0.6932
-0.085,-0.429,0.425,-10.4,7.9,-149.7,0,2018,5,16,19,16,44.486,0.3056,0.4764,-0.4319,0.7021
-0.134,-0.418,0.444,-25,9.5,-162.5,0,2018,5,16,19,16,44.49,0.2869,0.4627,-0.4428,0.7123
-0.168,-0.361,0.321,-39.9,10.9,-173.9,0,2018,5,16,19,16,44.532,0.2675,0.4458,-0.4532,0.7239
-0.23,-0.313,0.184,-49,10.7,-183.9,0,2018,5,16,19,16,44.535,0.2475,0.4262,-0.4635,0.7363
-0.343,-0.283,0.125,-54.6,17.9,-190.7,0,2018,5,16,19,16,44.547,0.2261,0.404,-0.4732,0.7494
-0.417,-0.243,0.07,-59,34.4,-193.1,0,2018,5,16,19,16,44.566,0.2038,0.3814,-0.4807,0.7627
-0.447,-0.157,-0.022,-59.3,54.8,-191,0,2018,5,16,19,16,44.585,0.1803,0.3592,-0.485,0.7765
-0.472,-0.003,-0.109,-56.8,69.7,-184.7,0,2018,5,16,19,16,44.624,0.1556,0.3372,-0.4861,0.791
-0.511,0.138,-0.188,-54.6,76.2,-172.1,0,2018,5,16,19,16,44.644,0.1313,0.3161,-0.4846,0.8049
-0.533,0.255,-0.268,-52.4,74.6,-152.7,1023,2018,5,16,19,16,44.649,0.1087,0.2964,-0.4814,0.8176
-0.531,0.336,-0.348,-48,65.6,-128.2,1023,2018,5,16,19,16,44.687,0.0892,0.2787,-0.4774,0.8284
-0.493,0.415,-0.46,-41.4,50.7,-99.4,1023,2018,5,16,19,16,44.708,0.0737,0.2636,-0.4737,0.837
-0.449,0.455,-0.512,-31.2,34.8,-68.5,1023,2018,5,16,19,16,44.713,0.0626,0.2519,-0.4709,0.8431
-0.458,0.463,-0.487,-21.3,19.5,-37.3,1023,2018,5,16,19,16,44.726,0.0559,0.244,-0.4689,0.8469
-0.512,0.428,-0.483,-13.1,6.1,-2.5,1023,2018,5,16,19,16,44.766,0.0538,0.2401,-0.4678,0.8488
-0.497,0.395,-0.539,-6.5,-2.1,36.4,1023,2018,5,16,19,16,44.785,0.0572,0.2401,-0.4668,0.8492
-0.49,0.409,-0.587,1.5,-17,76,1023,2018,5,16,19,16,44.789,0.0662,0.2444,-0.4655,0.848
-0.447,0.303,-0.529,7.4,-46.6,108.8,1023,2018,5,16,19,16,44.809,0.0811,0.2523,-0.4663,0.8439
-0.35,0.233,-0.359,7.1,-79,125.5,1023,2018,5,16,19,16,44.829,0.1008,0.2622,-0.4703,0.8365
-0.22,0.268,-0.246,-6.2,-112.4,129.2,1023,2018,5,16,19,16,44.868,0.1238,0.271,-0.4785,0.8259
-0.136,0.285,-0.264,-17.6,-130.2,128.3,1023,2018,5,16,19,16,44.888,0.1493,0.2772,-0.4896,0.813
-0.144,0.31,-0.362,-24,-134.4,127.1,0,2018,5,16,19,16,44.892,0.1756,0.2814,-0.5015,0.7989
-0.1,0.23,-0.393,-25.3,-126.9,127.4,0,2018,5,16,19,16,44.928,0.2019,0.2849,-0.5126,0.7843
-0.15,0.034,-0.343,-22.4,-110,129.7,0,2018,5,16,19,16,44.951,0.2274,0.2888,-0.5213,0.77
-0.192,-0.003,-0.293,-19.3,-98.8,136.7,0,2018,5,16,19,16,44.953,0.2523,0.2939,-0.5274,0.756
-0.194,0.025,-0.265,-16.9,-96.4,144.6,0,2018,5,16,19,16,44.972,0.2774,0.3001,-0.532,0.7415
-0.14,0.073,-0.225,-15.3,-97.4,145.8,0,2018,5,16,19,16,44.992,0.3027,0.3068,-0.5358,0.7259
-0.057,0.1,-0.171,-16.8,-103.9,141.5,0,2018,5,16,19,16,45.009,0.3276,0.3128,-0.5397,0.7094
0.049,0.123,-0.184,-20.6,-111.4,138.2,0,2018,5,16,19,16,45.048,0.3524,0.3173,-0.5442,0.692
0.106,0.047,-0.21,-23.7,-110.1,136.6,0,2018,5,16,19,16,45.067,0.3771,0.3207,-0.5484,0.6738
0.059,-0.015,-0.209,-27.8,-103.5,135.7,1023,2018,5,16,19,16,45.071,0.4013,0.3235,-0.5514,0.6557
0.038,-0.178,-0.19,-27,-80.5,137,1023,2018,5,16,19,16,45.092,0.4247,0.3269,-0.5519,0.6387
0.003,-0.251,-0.195,-25.9,-68.5,140.3,1023,2018,5,16,19,16,45.11,0.4468,0.3317,-0.55,0.6226
-0.02,-0.304,-0.209,-20.9,-62.9,139.6,1023,2018,5,16,19,16,45.15,0.4679,0.3374,-0.547,0.6065
-0.063,-0.323,-0.189,-14,-63.3,134.1,1023,2018,5,16,19,16,45.17,0.4876,0.3435,-0.5439,0.5902
-0.039,-0.434,-0.104,-8.6,-70.1,123.4,1023,2018,5,16,19,16,45.174,0.5058,0.3488,-0.5419,0.5733
-0.015,-0.57,-0.039,-6.4,-82,107.1,1023,2018,5,16,19,16,45.212,0.5224,0.3521,-0.5417,0.5563
0,-0.67,-0.014,-3.1,-98,91.4,0,2018,5,16,19,16,45.234,0.5379,0.3526,-0.5438,0.5389
0.02,-0.72,0.072,0.6,-107.3,76.6,0,2018,5,16,19,16,45.238,0.5521,0.3506,-0.5481,0.5212
0.038,-0.743,0.109,-2.2,-110.4,65.2,0,2018,5,16,19,16,45.252,0.565,0.3467,-0.5536,0.5038
0.073,-0.843,0.082,-4.4,-97.7,58.9,0,2018,5,16,19,16,45.273,0.5771,0.3418,-0.5587,0.4877
-0.045,-1.017,0.09,-4.5,-74.6,55.7,0,2018,5,16,19,16,45.293,0.5874,0.3383,-0.562,0.4737
-0.126,-1.281,0.179,-1.6,-41.2,48.1,0,2018,5,16,19,16,45.332,0.5955,0.3372,-0.5634,0.4627
-0.095,-1.222,0.266,3,-5.7,29.2,0,2018,5,16,19,16,45.351,0.5999,0.3388,-0.5629,0.4564
0.032,-1.101,0.319,3.6,26.4,-5.3,0,2018,5,16,19,16,45.355,0.5999,0.3413,-0.5618,0.4559
0.142,-1.024,0.29,1,61.8,-53.6,0,2018,5,16,19,16,45.392,0.5945,0.3434,-0.5602,0.4633
0.118,-1.015,0.198,0.2,83.2,-105.1,0,2018,5,16,19,16,45.412,0.5833,0.3431,-0.559,0.479
0,-0.992,0.121,-2.3,89.2,-142.8,0,2018,5,16,19,16,45.416,0.5675,0.3395,-0.559,0.5001
-0.132,-0.911,0.09,-5.1,100.2,-171.9,0,2018,5,16,19,16,45.436,0.5481,0.3328,-0.5595,0.525
-0.257,-0.844,0.02,-7.5,124.8,-196.4,0,2018,5,16,19,16,45.452,0.5249,0.3246,-0.5589,0.5536
-0.355,-0.741,-0.171,-10.6,155.5,-214.5,0,2018,5,16,19,16,45.49,0.4972,0.3162,-0.5556,0.5864
-0.414,-0.575,-0.286,-14.8,165.9,-226.7,0,2018,5,16,19,16,45.51,0.4662,0.3073,-0.5493,0.6215
-0.435,-0.393,-0.325,-21.6,158.8,-238.2,0,2018,5,16,19,16,45.514,0.4334,0.2959,-0.542,0.6563
-0.403,-0.195,-0.354,-28.5,145.1,-246.6,0,2018,5,16,19,16,45.534,0.3995,0.2812,-0.5345,0.6895
-0.381,-0.053,-0.4,-34.2,132.1,-250.2,0,2018,5,16,19,16,45.575,0.3652,0.2634,-0.5273,0.7205
-0.389,0.061,-0.449,-39.3,128,-247.8,0,2018,5,16,19,16,45.58,0.3308,0.2437,-0.5195,0.7491
-0.483,0.146,-0.492,-45.4,126.1,-241.7,0,2018,5,16,19,16,45.595,0.2968,0.2231,-0.5102,0.7757
-0.533,0.234,-0.557,-54.1,126.5,-231.7,0,2018,5,16,19,16,45.634,0.2639,0.2016,-0.4992,0.8003
-0.546,0.339,-0.657,-64.1,123.6,-219.2,0,2018,5,16,19,16,45.654,0.2329,0.1792,-0.4863,0.8228
-0.525,0.442,-0.743,-73.2,110.8,-206.8,0,2018,5,16,19,16,45.658,0.2043,0.1559,-0.4727,0.8428
-0.569,0.506,-0.8,-79.8,92.4,-195.6,0,2018,5,16,19,16,45.675,0.1781,0.1315,-0.4601,0.8597
-0.618,0.605,-0.832,-83.7,66.9,-186.8,0,2018,5,16,19,16,45.695,0.1541,0.1063,-0.4497,0.8733
-0.599,0.694,-0.856,-85.7,36.8,-180.8,0,2018,5,16,19,16,45.714,0.1318,0.0802,-0.4427,0.8832
-0.558,0.756,-0.862,-84,10,-177.9,0,2018,5,16,19,16,45.735,0.1103,0.0537,-0.4395,0.8897
-0.518,0.831,-0.839,-80.7,-10.6,-175.1,1023,2018,5,16,19,16,45.756,0.0891,0.0274,-0.4395,0.8933
-0.54,0.857,-0.821,-76.1,-24.6,-169.6,1023,2018,5,16,19,16,45.775,0.0682,0.0016,-0.4418,0.8944
-0.602,0.895,-0.85,-71,-31.2,-158.3,1023,2018,5,16,19,16,45.815,0.0482,-0.0228,-0.4452,0.8938
-0.617,0.93,-0.887,-65,-35.6,-141.3,0,2018,5,16,19,16,45.837,0.0299,-0.0454,-0.4492,0.8917
-0.575,0.908,-0.864,-56.7,-30.9,-120.5,0,2018,5,16,19,16,45.841,0.0141,-0.0652,-0.4529,0.889
-0.561,0.906,-0.794,-48.7,-24.8,-99.4,0,2018,5,16,19,16,45.859,0.001,-0.0821,-0.4557,0.8863
-0.564,0.913,-0.693,-41.2,-19.3,-78.5,0,2018,5,16,19,16,45.878,-0.0094,-0.096,-0.4576,0.8838
-0.552,0.98,-0.591,-35.3,-29.8,-58.9,0,2018,5,16,19,16,45.895,-0.0172,-0.1073,-0.4601,0.8811
-0.676,1.012,-0.328,-36,-48.4,-25.3,0,2018,5,16,19,16,45.913,-0.0221,-0.1159,-0.4652,0.8772
-0.914,1.019,-0.286,-55.9,-54.3,54.7,0,2018,5,16,19,16,45.931,-0.0174,-0.1216,-0.4737,0.872
-0.852,0.952,-0.357,-61.8,-47.7,153.9,0,2018,5,16,19,16,45.973,0.0026,-0.122,-0.4842,0.8663
-0.849,0.715,-0.33,-58.8,-48.2,269.1,0,2018,5,16,19,16,45.992,0.0385,-0.1132,-0.4951,0.8605
-0.996,-0.376,-0.222,-31.5,-61,411.9,0,2018,5,16,19,16,45.997,0.0934,-0.0907,-0.5088,0.8509
-1.242,-1.04,0.185,20.4,-120.9,501.7,0,2018,5,16,19,16,46.018,0.161,-0.0514,-0.5276,0.8324
-1.34,-0.571,0.491,67.7,-199.1,551.3,0,2018,5,16,19,16,46.039,0.2311,-0.0002,-0.5551,0.7989
-1.944,-0.541,0.735,83.5,-215.8,568.2,0,2018,5,16,19,16,46.059,0.3005,0.0565,-0.5852,0.7509
-2.081,-0.955,0.516,95.6,-136.7,563.3,0,2018,5,16,19,16,46.079,0.3653,0.1162,-0.6051,0.6977
-2.152,-1.385,0.178,113.2,-0.6,545.7,0,2018,5,16,19,16,46.118,0.421,0.183,-0.6056,0.6499
-2.016,-1.488,-0.051,115.9,91.5,512,0,2018,5,16,19,16,46.122,0.4645,0.2552,-0.5887,0.6101
-1.632,-1.61,-0.178,107.2,138.9,471.5,0,2018,5,16,19,16,46.139,0.498,0.3259,-0.5613,0.5749
-1.034,-1.668,-0.251,107.6,197,417,0,2018,5,16,19,16,46.156,0.5206,0.3935,-0.5266,0.5447
-0.451,-1.503,-0.128,120.8,253.2,348.5,0,2018,5,16,19,16,46.176,0.5289,0.4587,-0.4876,0.5214
0.001,-1.188,0.164,135.9,268.8,265.6,0,2018,5,16,19,16,46.215,0.5229,0.5198,-0.4497,0.5039
0.075,-0.916,0.326,125.5,236.2,183.1,0,2018,5,16,19,16,46.235,0.5079,0.5706,-0.4188,0.4907
0.209,-0.774,0.387,118.9,206.5,118.5,0,2018,5,16,19,16,46.239,0.4889,0.6109,-0.3953,0.481
0.291,-0.609,0.641,104.9,133.2,60.5,0,2018,5,16,19,16,46.276,0.4698,0.6406,-0.3809,0.473
0.363,-0.613,0.822,80.7,42.9,22.1,0,2018,5,16,19,16,46.298,0.457,0.6577,-0.377,0.465
0.432,-0.782,0.814,57.9,-16.5,-2.7,0,2018,5,16,19,16,46.302,0.4523,0.6644,-0.3808,0.457
0.449,-0.92,0.636,46.8,-28.5,-17.7,0,2018,5,16,19,16,46.317,0.4513,0.6654,-0.3883,0.4502
0.319,-1.169,0.731,49.9,19,-23.9,0,2018,5,16,19,16,46.355,0.4472,0.6671,-0.3952,0.4457
-0.039,-1.496,0.956,39.8,110,-30.8,1023,2018,5,16,19,16,46.375,0.4337,0.6741,-0.3971,0.4467
-0.299,-1.419,0.894,2.8,183.4,-39.4,1023,2018,5,16,19,16,46.379,0.4114,0.6846,-0.3909,0.4573
-0.544,-1.094,0.618,-44.5,204,-42.7,1023,2018,5,16,19,16,46.399,0.385,0.6941,-0.3783,0.4761
-0.536,-0.751,0.3,-88.8,167.7,-39.1,1023,2018,5,16,19,16,46.438,0.3628,0.698,-0.3628,0.4993
-0.514,-0.687,0.14,-118.3,115.1,-39.7,1023,2018,5,16,19,16,46.46,0.3487,0.695,-0.3485,0.5232
-0.571,-0.773,0.097,-141.8,75.4,-51.5,1023,2018,5,16,19,16,46.464,0.341,0.6857,-0.3375,0.5472
-0.781,-0.906,0.001,-165.4,61.8,-70,1023,2018,5,16,19,16,46.481,0.3361,0.6711,-0.3292,0.5728
-0.694,-0.813,0.001,-186.6,72,-93.5,1023,2018,5,16,19,16,46.52,0.3301,0.6521,-0.3214,0.6019
-0.56,-0.688,-0.06,-193.8,79.5,-121.1,1023,2018,5,16,19,16,46.539,0.3205,0.6299,-0.3143,0.6337
-0.486,-0.573,-0.235,-192.6,81.8,-147.2,0,2018,5,16,19,16,46.543,0.3067,0.605,-0.309,0.6665
-0.416,-0.409,-0.409,-175.7,66.5,-176.1,0,2018,5,16,19,16,46.563,0.2894,0.5783,-0.3072,0.6981
-0.342,-0.299,-0.557,-153.7,42.6,-198.3,0,2018,5,16,19,16,46.584,0.2694,0.5503,-0.311,0.7264
-0.291,-0.224,-0.602,-132,30.2,-208.6,0,2018,5,16,19,16,46.599,0.2475,0.5223,-0.3193,0.7509
-0.35,-0.189,-0.67,-112.9,33,-204.1,0,2018,5,16,19,16,46.619,0.224,0.4956,-0.3285,0.7721
-0.288,-0.121,-0.722,-94.7,38,-191.3,0,2018,5,16,19,16,46.639,0.2001,0.4712,-0.3367,0.7901
-0.176,-0.12,-0.723,-78.1,59,-173.3,0,2018,5,16,19,16,46.678,0.1759,0.4501,-0.3418,0.8059
-0.281,-0.126,-0.803,-68.7,86.4,-148.5,0,2018,5,16,19,16,46.7,0.1517,0.4322,-0.3416,0.8205
-0.314,-0.052,-0.889,-62.7,101.5,-123.2,0,2018,5,16,19,16,46.705,0.129,0.4172,-0.3362,0.8343
-0.234,0.087,-0.916,-59.7,94.8,-102.8,0,2018,5,16,19,16,46.723,0.109,0.4038,-0.3283,0.8468
-0.176,0.175,-0.894,-57,74.2,-87.9,0,2018,5,16,19,16,46.742,0.0921,0.3914,-0.3213,0.8573
-0.232,0.191,-0.897,-54.7,45.8,-76.3,0,2018,5,16,19,16,46.783,0.0785,0.3794,-0.3171,0.8656
-0.194,0.198,-0.891,-48.4,17.2,-69.2,0,2018,5,16,19,16,46.803,0.0684,0.3679,-0.3165,0.8715
-0.125,0.201,-0.851,-36.2,-2.7,-65.7,0,2018,5,16,19,16,46.807,0.0602,0.3578,-0.3194,0.8753
-0.111,0.201,-0.787,-18.8,-14,-63.1,0,2018,5,16,19,16,46.819,0.0525,0.3499,-0.3246,0.8771
-0.185,0.197,-0.708,0.9,-17.3,-57.1,0,2018,5,16,19,16,46.858,0.0447,0.345,-0.3306,0.8772
-0.409,0.168,-0.673,20.1,-18.3,-44.6,0,2018,5,16,19,16,46.88,0.0373,0.3436,-0.3365,0.8759
-0.417,0.146,-0.675,42.3,-13.9,-30.3,0,2018,5,16,19,16,46.884,0.0308,0.3461,-0.3414,0.8732
-0.266,0.198,-0.656,66.8,-12.4,-18.5,1023,2018,5,16,19,16,46.903,0.0246,0.353,-0.345,0.8693
-0.159,0.251,-0.554,90.6,-21.3,-9.4,1023,2018,5,16,19,16,46.94,0.0188,0.3642,-0.3487,0.8633
-0.117,0.241,-0.345,106.4,-27.2,-0.1,1023,2018,5,16,19,16,46.96,0.0136,0.3787,-0.3531,0.8553
-0.148,0.13,-0.189,120.1,-7.4,11.4,1023,2018,5,16,19,16,46.965,0.0088,0.396,-0.3558,0.8464
-0.198,0.061,-0.095,132.2,35,21.4,1023,2018,5,16,19,16,46.984,0.0024,0.4157,-0.3527,0.8383
-0.187,0.053,-0.112,140.3,81.4,30.7,1023,2018,5,16,19,16,47.003,-0.0065,0.4372,-0.342,0.8317
-0.132,0.074,-0.19,145.8,112.8,37.6,1023,2018,5,16,19,16,47.024,-0.018,0.4598,-0.3247,0.8263
-0.091,0.065,-0.226,152.9,131.7,43.5,1023,2018,5,16,19,16,47.045,-0.0307,0.483,-0.303,0.8209
-0.084,0.072,-0.115,155.5,142.2,46.1,0,2018,5,16,19,16,47.083,-0.0443,0.5065,-0.2785,0.8147
-0.083,0.107,0.001,147.3,140.6,48.2,0,2018,5,16,19,16,47.087,-0.0571,0.5297,-0.2519,0.8078
-0.044,0.129,0.005,136.5,123.3,51.2,0,2018,5,16,19,16,47.103,-0.0673,0.5507,-0.2258,0.8007
-0.021,0.106,0.014,129.1,96.3,55.8,0,2018,5,16,19,16,47.122,-0.0747,0.5701,-0.2024,0.7926
-0.024,0.056,0.096,124,68.1,61,0,2018,5,16,19,16,47.143,-0.0781,0.5883,-0.1826,0.7837
-0.025,-0.032,0.183,117,45.7,67.4,0,2018,5,16,19,16,47.182,-0.0786,0.6055,-0.1663,0.7742
0,-0.14,0.208,112.2,40.8,74,0,2018,5,16,19,16,47.203,-0.0764,0.6222,-0.1515,0.7641
0.03,-0.23,0.199,111.4,53.4,78.6,0,2018,5,16,19,16,47.207,-0.0739,0.6383,-0.1355,0.7541
0.054,-0.291,0.199,111.7,73.8,81,0,2018,5,16,19,16,47.225,-0.0731,0.6538,-0.1167,0.7439
0.047,-0.358,0.231,112.3,98.9,81,0,2018,5,16,19,16,47.249,-0.0747,0.6686,-0.0947,0.7336
0.037,-0.38,0.266,108.4,119.5,76.7,0,2018,5,16,19,16,47.267,-0.079,0.6823,-0.0698,0.7233
0.026,-0.4,0.27,100.7,130.6,68.2,0,2018,5,16,19,16,47.288,-0.0861,0.6943,-0.0439,0.713
-0.006,-0.434,0.226,91.6,137.5,57.2,0,2018,5,16,19,16,47.304,-0.0953,0.7044,-0.0181,0.703
-0.036,-0.471,0.172,85,146.8,43.4,0,2018,5,16,19,16,47.341,-0.1068,0.7127,0.0068,0.6932
-0.022,-0.488,0.167,82.3,165.1,25.3,0,2018,5,16,19,16,47.361,-0.1219,0.7195,0.0315,0.6829
0.014,-0.433,0.169,80,185.3,4.7,0,2018,5,16,19,16,47.365,-0.1418,0.7249,0.056,0.6717
-0.01,-0.328,0.156,75,197.1,-14.2,0,2018,5,16,19,16,47.403,-0.1658,0.7288,0.0797,0.6594
-0.031,-0.269,0.171,66.4,200.5,-29.7,0,2018,5,16,19,16,47.424,-0.1927,0.731,0.1017,0.6465
-0.057,-0.226,0.19,52.6,192.2,-38.8,0,2018,5,16,19,16,47.428,-0.2207,0.7313,0.1214,0.6337
-0.04,-0.2,0.185,38.6,188,-35,1023,2018,5,16,19,16,47.447,-0.2477,0.7294,0.1389,0.6222
-0.018,-0.272,0.087,30.6,213.4,-23.3,1023,2018,5,16,19,16,47.468,-0.2751,0.7247,0.1581,0.6115
-0.054,-0.214,0.066,19.7,221.5,-21.7,1023,2018,5,16,19,16,47.488,-0.3049,0.7167,0.1806,0.6005
0.016,-0.352,-0.023,8.9,190.3,-22.5,1023,2018,5,16,19,16,47.508,-0.3322,0.7076,0.1992,0.5908
0,-0.402,-0.092,7.4,191.2,-27.1,1023,2018,5,16,19,16,47.544,-0.3579,0.6978,0.2163,0.5814
0.013,-0.405,-0.082,4.3,174.4,-33.9,1023,2018,5,16,19,16,47.564,-0.3829,0.6877,0.2314,0.5716
0.092,-0.427,-0.184,3.7,155,-45.2,1023,2018,5,16,19,16,47.568,-0.4061,0.6785,0.243,0.5617
0.148,-0.375,-0.235,10.9,131.1,-59.2,1023,2018,5,16,19,16,47.586,-0.4278,0.671,0.2513,0.5508
0.179,-0.366,-0.235,22.2,110.3,-72.7,1023,2018,5,16,19,16,47.605,-0.4473,0.6664,0.2562,0.5385
0.193,-0.371,-0.203,33.6,102.6,-83.1,1023,2018,5,16,19,16,47.645,-0.4655,0.6642,0.2591,0.5242
0.205,-0.372,-0.168,43.4,99.5,-88.8,1023,2018,5,16,19,16,47.667,-0.4833,0.6633,0.2614,0.5079
0.197,-0.369,-0.137,49.4,95.2,-89.8,1023,2018,5,16,19,16,47.671,-0.5002,0.6631,0.2635,0.4904
0.197,-0.353,-0.115,51.8,92.2,-89.5,0,2018,5,16,19,16,47.69,-0.5162,0.6633,0.2655,0.4722
0.204,-0.304,-0.105,52.6,91.2,-88.9,0,2018,5,16,19,16,47.708,-0.5316,0.6633,0.2673,0.4537
0.197,-0.221,-0.115,52.5,90.3,-88.2,0,2018,5,16,19,16,47.73,-0.5465,0.663,0.2691,0.435
0.148,-0.164,-0.071,49.8,83,-89.2,0,2018,5,16,19,16,47.77,-0.5607,0.6626,0.2703,0.4164
0.139,-0.148,-0.013,43.1,72.3,-90,0,2018,5,16,19,16,47.789,-0.5739,0.6624,0.27,0.3984
0.138,-0.115,0.033,35.8,61.6,-88.9,0,2018,5,16,19,16,47.793,-0.5858,0.6626,0.2682,0.3817
0.121,-0.085,0.074,29.5,53.1,-86.7,0,2018,5,16,19,16,47.808,-0.5966,0.663,0.265,0.3662
0.017,-0.046,0.122,22.2,47.3,-84.8,0,2018,5,16,19,16,47.848,-0.6065,0.6633,0.261,0.3519
-0.043,0.053,0.133,11.4,41.1,-81.9,0,2018,5,16,19,16,47.867,-0.6162,0.6631,0.2556,0.3392
-0.086,0.143,0.102,-0.2,30,-76.5,0,2018,5,16,19,16,47.871,-0.6247,0.6631,0.2491,0.3285
-0.132,0.191,0.087,-9.9,21.1,-69.3,0,2018,5,16,19,16,47.908,-0.632,0.6631,0.2415,0.32
-0.161,0.262,0.062,-19,14.3,-59.9,0,2018,5,16,19,16,47.927,-0.6382,0.663,0.2333,0.3138
-0.226,0.309,0.039,-27.6,7.5,-48.8,0,2018,5,16,19,16,47.932,-0.6433,0.6628,0.225,0.31
-0.184,0.362,0.002,-33.8,4.9,-37.2,0,2018,5,16,19,16,47.951,-0.6475,0.662,0.2168,0.3086
-0.154,0.393,-0.016,-36.9,2.3,-26.1,0,2018,5,16,19,16,47.971,-0.6509,0.6609,0.2093,0.3091
-0.166,0.37,0.013,-37.8,-1.3,-14.4,0,2018,5,16,19,16,47.989,-0.6535,0.6595,0.2028,0.3111
-0.188,0.348,0.038,-38.5,-10.4,-2.4,0,2018,5,16,19,16,48.01,-0.6546,0.6583,0.1972,0.3147
-0.215,0.31,0.014,-39,-21.4,13.5,0,2018,5,16,19,16,48.026,-0.6538,0.6578,0.1925,0.3203
-0.225,0.268,-0.055,-38.3,-31.9,35,0,2018,5,16,19,16,48.048,-0.6506,0.6579,0.1893,0.3285
-0.22,0.14,-0.073,-33.7,-40.4,57.1,0,2018,5,16,19,16,48.088,-0.6448,0.6584,0.1885,0.3392
-0.255,-0.014,-0.046,-29.6,-51.9,73.2,0,2018,5,16,19,16,48.11,-0.6365,0.6595,0.1898,0.3517
-0.226,-0.078,0.012,-28.1,-63.2,82.1,0,2018,5,16,19,16,48.114,-0.6253,0.6616,0.1929,0.3661
-0.142,-0.085,0.036,-27.6,-70.9,82,0,2018,5,16,19,16,48.132,-0.6127,0.6643,0.1953,0.3808
-0.079,-0.067,0.051,-25.1,-68.8,73.7,0,2018,5,16,19,16,48.17,-0.6002,0.6672,0.1968,0.3946
-0.065,-0.052,0.042,-20.5,-62.8,62.1,1023,2018,5,16,19,16,48.189,-0.5887,0.67,0.1976,0.4066
-0.081,-0.06,0.049,-13.8,-56.8,50.5,1023,2018,5,16,19,16,48.194,-0.5784,0.6728,0.1981,0.4164
-0.112,-0.106,0.093,-6.7,-46.2,43.4,1023,2018,5,16,19,16,48.212,-0.5694,0.6755,0.1986,0.4241
-0.128,-0.133,0.174,-0.4,-27.4,38.1,1023,2018,5,16,19,16,48.233,-0.5626,0.6771,0.2001,0.4299
-0.138,-0.155,0.234,2.5,-5.4,31.6,1023,2018,5,16,19,16,48.273,-0.558,0.6775,0.2031,0.4338
-0.106,-0.089,0.215,3.3,11.7,23.8,1023,2018,5,16,19,16,48.277,-0.5563,0.6763,0.207,0.436
-0.064,-0.013,0.213,1.8,13.9,11.1,1023,2018,5,16,19,16,48.292,-0.5565,0.6745,0.2105,0.4368
-0.021,0.017,0.236,-0.9,5,-2.1,1023,2018,5,16,19,16,48.311,-0.5574,0.6734,0.2117,0.4368
-0.014,0.003,0.266,-4,-1.3,-12.3,1023,2018,5,16,19,16,48.331,-0.5582,0.6734,0.2106,0.4363
-0.017,-0.032,0.261,-6.1,2,-17.6,0,2018,5,16,19,16,48.367,-0.5595,0.6736,0.2083,0.4354
0.014,-0.011,0.222,-7.1,9.4,-19.1,0,2018,5,16,19,16,48.387,-0.5619,0.6732,0.2059,0.4342
0.028,0.022,0.192,-7.1,13.8,-18.2,0,2018,5,16,19,16,48.394,-0.565,0.6721,0.2039,0.4327
0.029,0.047,0.175,-7.8,15.3,-15.8,0,2018,5,16,19,16,48.415,-0.5683,0.6707,0.2023,0.4314
0.022,0.053,0.212,-12.3,8.4,-14.8,0,2018,5,16,19,16,48.435,-0.5713,0.6692,0.2005,0.4306
0.045,0.023,0.192,-18.9,-4.8,-14.1,0,2018,5,16,19,16,48.474,-0.5731,0.6684,0.1974,0.4309
0.066,0.013,0.139,-23.7,-26.2,-14.7,0,2018,5,16,19,16,48.495,-0.573,0.6689,0.1924,0.4326
0.104,-0.073,0.11,-23,-40.6,-17.9,0,2018,5,16,19,16,48.499,-0.5707,0.6712,0.1855,0.435
0.126,-0.162,0.217,-19.3,-44,-29.5,0,2018,5,16,19,16,48.511,-0.5679,0.6748,0.1774,0.4365
0.183,-0.209,0.262,-17.5,-34.3,-43.9,0,2018,5,16,19,16,48.547,-0.5665,0.6785,0.1681,0.4363
0.247,-0.163,0.227,-13.2,-21.6,-60.6,0,2018,5,16,19,16,48.567,-0.5677,0.6815,0.1583,0.4337
0.183,0.065,0.223,-9.8,-16.5,-74.4,0,2018,5,16,19,16,48.574,-0.571,0.6843,0.1476,0.4286
0.202,0.288,0.105,-3.2,-21.4,-77.7,0,2018,5,16,19,16,48.614,-0.5745,0.6876,0.1363,0.4224
0.042,0.629,0.198,6,-19,-66.5,0,2018,5,16,19,16,48.635,-0.577,0.6918,0.1262,0.4152
-0.128,0.768,0.184,3.7,-19,-36.7,1023,2018,5,16,19,16,48.639,-0.5781,0.6954,0.1193,0.4097
-0.341,0.787,-0.021,3.6,-35.9,-2.7,1023,2018,5,16,19,16,48.656,-0.5758,0.6989,0.1154,0.408
-0.548,0.66,-0.08,18.6,-46.3,35.1,1023,2018,5,16,19,16,48.693,-0.569,0.7037,0.1154,0.4094
-0.976,0.29,0.078,29.2,-19.5,77.4,1023,2018,5,16,19,16,48.714,-0.5599,0.7079,0.1225,0.4126
-1.493,0.1,0.149,21.8,30,124.4,1023,2018,5,16,19,16,48.718,-0.5527,0.7069,0.1382,0.4189
-1.567,-0.018,-0.282,14.3,57.3,170.5,1023,2018,5,16,19,16,48.756,-0.5466,0.6999,0.1616,0.4302
-1.189,-0.387,-0.418,24.3,57,193.9,1023,2018,5,16,19,16,48.776,-0.5391,0.6901,0.1904,0.4435
-0.777,-0.492,-0.097,49.2,36.5,191.6,1023,2018,5,16,19,16,48.78,-0.528,0.6816,0.2213,0.4555
-0.382,-0.724,0.449,49.9,-5.9,170.3,1023,2018,5,16,19,16,48.794,-0.5131,0.6771,0.2486,0.4651
0.017,-0.874,0.436,36.4,-22.8,146,1023,2018,5,16,19,16,48.831,-0.4962,0.6749,0.2696,0.4748
0.277,-1.015,0.247,31.9,-26.4,129.3,1023,2018,5,16,19,16,48.853,-0.4804,0.6732,0.2862,0.4837
0.381,-1.201,0.25,29.8,-19.6,123.3,0,2018,5,16,19,16,48.857,-0.4654,0.6712,0.3016,0.4917
0.569,-1.203,0.469,17.6,-19.6,110.8,0,2018,5,16,19,16,48.878,-0.4516,0.6685,0.3157,0.4993
0.956,-0.813,0.568,-17,-25.6,55.3,0,2018,5,16,19,16,48.897,-0.4326,0.6617,0.3315,0.5147
0.991,-0.784,0.563,-24,-43.4,27.4,0,2018,5,16,19,16,48.935,-0.4259,0.6601,0.3314,0.5223
0.941,-0.857,0.565,-24.7,-50.7,-1.4,0,2018,5,16,19,16,48.955,-0.4208,0.6606,0.3266,0.5288
0.832,-0.836,0.526,-22.4,-51.2,-32.4,0,2018,5,16,19,16,48.959,-0.418,0.6631,0.3181,0.5331
0.734,-0.836,0.466,-18.4,-40.6,-62.2,0,2018,5,16,19,16,48.977,-0.4181,0.6673,0.3066,0.5346
0.667,-0.771,0.319,-11.5,-9.8,-90.3,0,2018,5,16,19,16,48.998,-0.4231,0.6717,0.294,0.5321
0.514,-0.695,0.236,-2.3,27.3,-114.4,0,2018,5,16,19,16,49.016,-0.4343,0.6755,0.2822,0.5246
0.223,-0.733,0.204,2.9,59.2,-131.4,0,2018,5,16,19,16,49.037,-0.4508,0.6781,0.2716,0.5128
-0.155,-0.768,0.154,3.6,90.6,-142.1,0,2018,5,16,19,16,49.075,-0.4716,0.6788,0.2624,0.4978
-0.52,-0.646,0.101,-0.2,107.9,-154.1,0,2018,5,16,19,16,49.094,-0.4962,0.6771,0.2536,0.4805
-0.783,-0.484,0.019,-10.1,105.6,-169.8,0,2018,5,16,19,16,49.098,-0.5226,0.6741,0.2427,0.4619
-0.944,-0.301,-0.062,-17.9,97.5,-191.7,0,2018,5,16,19,16,49.137,-0.5488,0.6711,0.2286,0.4427
-1.073,0.095,-0.205,-26.3,77.4,-212.9,0,2018,5,16,19,16,49.156,-0.5751,0.6686,0.2095,0.422
-0.979,0.445,-0.248,-29.8,41,-228.9,0,2018,5,16,19,16,49.16,-0.5987,0.6684,0.185,0.4004
-0.775,0.656,-0.222,-30.9,11.3,-228.7,0,2018,5,16,19,16,49.18,-0.6179,0.6708,0.1565,0.3789
-0.641,0.785,-0.202,-29,3.1,-210.9,0,2018,5,16,19,16,49.198,-0.6332,0.674,0.1277,0.3582
-0.575,0.971,-0.117,-28.2,5.2,-183.1,0,2018,5,16,19,16,49.218,-0.646,0.6759,0.1017,0.3396
-0.458,1.189,-0.081,-32.4,-3,-151,0,2018,5,16,19,16,49.238,-0.6561,0.6768,0.0788,0.3242
-0.328,1.287,-0.112,-39,-19.1,-117.2,0,2018,5,16,19,16,49.274,-0.6626,0.6777,0.0583,0.3133
-0.224,1.359,-0.155,-41,-30.7,-87.8,1023,2018,5,16,19,16,49.293,-0.665,0.6797,0.0403,0.3067
-0.152,1.363,-0.138,-40.4,-32.6,-66.7,1023,2018,5,16,19,16,49.3,-0.6651,0.682,0.0248,0.303
-0.073,1.391,-0.099,-41.1,-25.4,-52.8,1023,2018,5,16,19,16,49.32,-0.6647,0.6835,0.0114,0.3011
0.02,1.394,-0.066,-42.6,-13.7,-42.7,1023,2018,5,16,19,16,49.339,-0.6647,0.6838,0,0.3007
0.094,1.361,-0.046,-44.6,0.2,-33,1023,2018,5,16,19,16,49.38,-0.6657,0.6823,-0.0099,0.3017
0.084,1.365,0.029,-50.9,11.1,-20,1023,2018,5,16,19,16,49.399,-0.6676,0.6792,-0.0183,0.3042
0.003,1.203,-0.014,-64.3,6.1,2.7,1023,2018,5,16,19,16,49.403,-0.6688,0.675,-0.0255,0.3103
-0.295,1.063,-0.019,-76.6,-12.9,32.7,0,2018,5,16,19,16,49.423,-0.667,0.6716,-0.0319,0.3207
-0.633,0.794,-0.001,-96.3,-26.4,78.6,0,2018,5,16,19,16,49.442,-0.6609,0.6694,-0.0366,0.337
-0.769,0.499,-0.222,-116.5,-38.3,137.5,0,2018,5,16,19,16,49.482,-0.6498,0.6672,-0.0383,0.362
-0.961,0.059,-0.498,-103.8,-34.8,205.4,0,2018,5,16,19,16,49.486,-0.6331,0.6652,-0.0336,0.3942
-1.222,-0.432,-0.444,-67.7,-13.7,286.5,0,2018,5,16,19,16,49.504,-0.6122,0.6628,-0.0159,0.4307
-1.059,-0.471,-0.301,-20.7,-32.5,345.8,0,2018,5,16,19,16,49.52,-0.585,0.6611,0.015,0.4694
-0.902,-0.471,-0.078,29,-68.1,367.7,0,2018,5,16,19,16,49.556,-0.5484,0.6646,0.0525,0.5046
-0.808,-0.561,0.167,73.9,-60.9,371.6,0,2018,5,16,19,16,49.559,-0.5057,0.6709,0.0946,0.5338
-0.708,-0.681,0.318,116.5,-3.2,353.8,0,2018,5,16,19,16,49.595,-0.4652,0.6754,0.142,0.5542
-0.572,-0.852,0.438,149.6,98.3,320.7,0,2018,5,16,19,16,49.615,-0.4339,0.6749,0.1972,0.5632
-0.385,-0.87,0.259,163.6,188.4,275.6,0,2018,5,16,19,16,49.619,-0.4157,0.6676,0.2586,0.5607
-0.191,-0.951,-0.049,166.1,256.7,223.3,0,2018,5,16,19,16,49.658,-0.4093,0.6549,0.3211,0.548
0.063,-0.84,-0.103,174,310.9,161.1,0,2018,5,16,19,16,49.679,-0.4135,0.6382,0.3821,0.5249
0.157,-0.474,0.108,168.4,269.2,103.3,0,2018,5,16,19,16,49.683,-0.4221,0.6228,0.4352,0.4944
0.251,-0.314,0.356,150.7,201.7,64.1,0,2018,5,16,19,16,49.7,-0.4279,0.6121,0.4755,0.4646
0.308,-0.101,0.612,122.5,121.5,34.4,0,2018,5,16,19,16,49.72,-0.4296,0.6067,0.5034,0.4401
0.379,-0.074,0.821,91.5,44,11.3,0,2018,5,16,19,16,49.742,-0.4269,0.6068,0.5197,0.4234
0.456,-0.135,0.919,62,-11.5,-5.2,0,2018,5,16,19,16,49.781,-0.4212,0.6112,0.5264,0.4144
0.522,-0.233,0.942,37.6,-40.2,-18,0,2018,5,16,19,16,49.801,-0.4145,0.6179,0.5266,0.4109
0.555,-0.251,0.944,15.6,-53.4,-29,0,2018,5,16,19,16,49.805,-0.4086,0.6254,0.5226,0.4107
0.482,-0.299,0.914,-5.6,-63.7,-36.6,0,2018,5,16,19,16,49.824,-0.4041,0.633,0.5148,0.4133
0.373,-0.339,0.826,-26,-62.6,-38.1,0,2018,5,16,19,16,49.844,-0.4012,0.6396,0.5048,0.4182
0.19,-0.464,0.786,-37.2,-46.8,-32.3,1023,2018,5,16,19,16,49.883,-0.4004,0.6443,0.4944,0.4243
-0.411,-0.703,0.983,-59.8,-13.9,-23.3,1023,2018,5,16,19,16,49.904,-0.403,0.6453,0.4857,0.4302
-0.968,-0.796,0.9,-109.7,17.9,-18.1,1023,2018,5,16,19,16,49.908,-0.4121,0.6402,0.478,0.4377
-1.184,-0.36,0.556,-175.2,-37.4,-24.7,1023,2018,5,16,19,16,49.926,-0.4255,0.6309,0.4649,0.4524
-1.322,-0.276,0.163,-228.8,-166.4,-38.2,1023,2018,5,16,19,16,49.943,-0.4329,0.6243,0.4379,0.4805
-1.412,-0.373,-0.089,-267.4,-315.7,-81.8,1023,2018,5,16,19,16,49.962,-0.4302,0.6249,0.3907,0.5212
-1.178,-0.421,-0.206,-285.4,-437.7,-153,1023,2018,5,16,19,16,49.982,-0.4169,0.6346,0.3199,0.5665
-0.757,-0.301,-0.162,-256.2,-499.6,-216.8,0,2018,5,16,19,16,50,-0.3961,0.6503,0.2303,0.6058
-0.398,-0.262,-0.02,-198.8,-494.5,-248.2,0,2018,5,16,19,16,50.037,-0.371,0.6675,0.1331,0.6316
-0.134,-0.321,0.183,-125.1,-418.1,-249.6,0,2018,5,16,19,16,50.059,-0.3477,0.6822,0.0421,0.6418
-0.086,-0.275,0.266,-60.1,-305.9,-236.1,0,2018,5,16,19,16,50.063,-0.3317,0.6936,-0.0329,0.6385
-0.098,-0.074,0.15,-8.7,-173.8,-209.4,0,2018,5,16,19,16,50.085,-0.3271,0.7012,-0.0881,0.6272
-0.024,0.09,0.098,24.7,-41.5,-186,0,2018,5,16,19,16,50.105,-0.3359,0.7042,-0.1226,0.6133
-0.078,0.222,0.145,37.5,66.1,-171.5,0,2018,5,16,19,16,50.142,-0.3577,0.7024,-0.1405,0.5989
-0.147,0.436,0.224,29.6,114,-160.4,0,2018,5,16,19,16,50.162,-0.3877,0.6955,-0.1483,0.5864
-0.217,0.572,0.225,10.4,106.1,-146.9,0,2018,5,16,19,16,50.166,-0.4173,0.6855,-0.1541,0.5762
-0.345,0.606,0.175,-9.3,82.2,-131.7,0,2018,5,16,19,16,50.185,-0.4424,0.6746,-0.1612,0.5683
-0.434,0.614,0.107,-27,54.7,-118.3,0,2018,5,16,19,16,50.204,-0.4621,0.6638,-0.1705,0.5626
-0.467,0.608,0.044,-41.3,30.6,-105.5,0,2018,5,16,19,16,50.244,-0.4767,0.6536,-0.1822,0.5588
-0.44,0.608,0.012,-50.4,20.6,-90.4,0,2018,5,16,19,16,50.264,-0.4875,0.6437,-0.1948,0.5566
-0.503,0.578,0.014,-59.6,12.2,-73.5,0,2018,5,16,19,16,50.269,-0.4953,0.6341,-0.2071,0.5563
-0.655,0.552,-0.078,-69.1,3.6,-49.4,0,2018,5,16,19,16,50.286,-0.4997,0.6248,-0.2188,0.5584
-0.771,0.519,-0.242,-73.2,-2.8,-13.3,0,2018,5,16,19,16,50.322,-0.4999,0.6166,-0.2285,0.5635
-0.552,0.518,-0.328,-63.2,1.5,26.6,0,2018,5,16,19,16,50.343,-0.4963,0.6101,-0.2338,0.5715
-0.315,0.587,-0.239,-47.4,-2.7,64.1,0,2018,5,16,19,16,50.347,-0.4894,0.6065,-0.2335,0.5814
-0.131,0.585,-0.045,-37.2,-22.4,94.2,0,2018,5,16,19,16,50.367,-0.4782,0.6065,-0.2297,0.5921
0.025,0.535,0.057,-31.1,-38.4,119,0,2018,5,16,19,16,50.385,-0.4622,0.6098,-0.2244,0.6033
0.122,0.52,0.065,-24.1,-47,139.1,0,2018,5,16,19,16,50.405,-0.4427,0.6153,-0.2173,0.6148
0.142,0.482,0.026,-13.4,-47.6,158,0,2018,5,16,19,16,50.441,-0.4206,0.6225,-0.2079,0.6263
0.054,0.368,-0.02,-2.9,-41.3,176.4,1023,2018,5,16,19,16,50.462,-0.3969,0.6307,-0.195,0.6376
-0.066,0.166,-0.034,6.2,-23.8,192.8,1023,2018,5,16,19,16,50.467,-0.3725,0.6392,-0.1781,0.6487
-0.145,0.069,-0.026,12.5,-2.1,207.1,1023,2018,5,16,19,16,50.487,-0.3479,0.6473,-0.1558,0.6599
-0.261,-0.002,0.024,12.9,10.4,218.7,1023,2018,5,16,19,16,50.507,-0.3231,0.6543,-0.1291,0.6713
-0.368,-0.036,0.046,4.2,7.8,225.9,1023,2018,5,16,19,16,50.528,-0.2973,0.6594,-0.1008,0.6829
-0.427,-0.073,-0.017,-9.5,-14.8,229.8,1023,2018,5,16,19,16,50.547,-0.2687,0.663,-0.0741,0.6947
-0.439,-0.157,-0.096,-18.9,-44.6,228.5,0,2018,5,16,19,16,50.586,-0.2363,0.6657,-0.0514,0.7058
-0.403,-0.263,-0.078,-24.1,-76.6,219.4,0,2018,5,16,19,16,50.605,-0.2011,0.6678,-0.034,0.7158
-0.339,-0.413,0.002,-29.2,-104.8,201.8,0,2018,5,16,19,16,50.609,-0.1637,0.6684,-0.0219,0.7251
-0.203,-0.523,0.088,-31.6,-117.7,175.7,0,2018,5,16,19,16,50.627,-0.1264,0.6679,-0.015,0.7332
-0.073,-0.568,0.104,-30.7,-115.6,140.6,0,2018,5,16,19,16,50.665,-0.0923,0.6664,-0.0125,0.7396
0.005,-0.535,0.064,-25.5,-98.2,105.3,0,2018,5,16,19,16,50.685,-0.064,0.6645,-0.0126,0.7443
0.015,-0.51,0.015,-19.9,-77.3,73.9,0,2018,5,16,19,16,50.689,-0.0423,0.6626,-0.0139,0.7475
0.044,-0.486,-0.021,-19.3,-66.7,46.9,0,2018,5,16,19,16,50.707,-0.0264,0.6607,-0.0164,0.7499
0.111,-0.442,-0.056,-22.7,-70.9,24.2,0,2018,5,16,19,16,50.727,-0.014,0.6583,-0.0213,0.7522
0.139,-0.42,-0.1,-27.5,-85.5,8.2,0,2018,5,16,19,16,50.767,-0.0029,0.6551,-0.0299,0.7548
0.121,-0.426,-0.122,-31.8,-100.3,-2.7,0,2018,5,16,19,16,50.787,0.0082,0.6512,-0.042,0.7576
0.115,-0.413,-0.134,-37.4,-111.3,-9.2,0,2018,5,16,19,16,50.791,0.0197,0.6462,-0.0568,0.7607
0.143,-0.385,-0.141,-41.6,-119.3,-12.1,0,2018,5,16,19,16,50.811,0.0316,0.6403,-0.0732,0.7639
0.148,-0.356,-0.139,-44.5,-128,-12.8,0,2018,5,16,19,16,50.832,0.0443,0.6335,-0.0909,0.767
0.154,-0.344,-0.147,-47.7,-136.6,-11.1,0,2018,5,16,19,16,50.848,0.0581,0.6259,-0.1096,0.7699
0.178,-0.324,-0.155,-49.1,-144.5,-9.1,0,2018,5,16,19,16,50.868,0.073,0.6175,-0.1291,0.7724
0.21,-0.322,-0.162,-47.6,-150.4,-6.8,0,2018,5,16,19,16,50.887,0.089,0.6087,-0.1492,0.7741
0.205,-0.318,-0.125,-44.9,-155.4,-6.5,0,2018,5,16,19,16,50.925,0.1055,0.5996,-0.1698,0.7748
0.184,-0.337,-0.086,-43.2,-157.9,-8.2,0,2018,5,16,19,16,50.945,0.1222,0.5903,-0.1909,0.7746
0.198,-0.379,-0.106,-40.6,-151.5,-10.8,0,2018,5,16,19,16,50.949,0.1383,0.5808,-0.2119,0.7736
0.22,-0.436,-0.073,-34.3,-137.4,-17.8,0,2018,5,16,19,16,50.97,0.1523,0.5715,-0.2319,0.7722
0.051,-0.517,0.023,-28.5,-125.5,-25.9,0,2018,5,16,19,16,50.989,0.1636,0.5628,-0.2509,0.7703
-0.128,-0.607,0.101,-28.2,-111.1,-32,1023,2018,5,16,19,16,51.03,0.1725,0.5542,-0.2688,0.7686
-0.136,-0.605,0.105,-30.8,-92.2,-39.7,1023,2018,5,16,19,16,51.049,0.1788,0.5454,-0.2849,0.7676
-0.082,-0.53,0.063,-31.7,-77.4,-49.7,1023,2018,5,16,19,16,51.053,0.1824,0.5362,-0.2994,0.7677
-0.049,-0.51,0.068,-34.9,-71.3,-61.2,1023,2018,5,16,19,16,51.074,0.1835,0.5264,-0.3134,0.7687
-0.017,-0.516,0.079,-38.3,-66.4,-72.5,1023,2018,5,16,19,16,51.093,0.1828,0.5155,-0.3276,0.7703
0.032,-0.429,0.085,-39.9,-60.9,-80.9,1023,2018,5,16,19,16,51.11,0.1803,0.5037,-0.3418,0.7726
0.069,-0.364,0.102,-40.1,-54.1,-83.8,0,2018,5,16,19,16,51.147,0.1766,0.4914,-0.3555,0.7751
0.103,-0.31,0.082,-40.6,-44.9,-82.8,0,2018,5,16,19,16,51.168,0.1721,0.4791,-0.3681,0.7779
0.146,-0.248,0.046,-40.3,-31.4,-78.8,0,2018,5,16,19,16,51.172,0.1668,0.4672,-0.3788,0.7812
0.198,-0.157,0.006,-40.3,-20.3,-72.6,0,2018,5,16,19,16,51.191,0.1612,0.4559,-0.3871,0.785
0.226,-0.09,-0.036,-40.6,-13.7,-63.7,0,2018,5,16,19,16,51.21,0.1559,0.4452,-0.3937,0.7889
0.227,-0.039,-0.073,-41.3,-12.4,-54,0,2018,5,16,19,16,51.252,0.1516,0.4352,-0.3989,0.7927
0.209,0.004,-0.068,-42.9,-12.7,-43.7,0,2018,5,16,19,16,51.271,0.1485,0.4254,-0.4033,0.7963
0.189,0.022,-0.108,-46.5,-14.1,-32.7,0,2018,5,16,19,16,51.275,0.1468,0.4158,-0.4076,0.7995
0.161,0.014,-0.156,-49.1,-16.8,-22.2,0,2018,5,16,19,16,51.295,0.1475,0.4068,-0.4105,0.8026
0.131,0.018,-0.207,-50.9,-24,-13.5,0,2018,5,16,19,16,51.315,0.1501,0.3979,-0.4133,0.8051
0.119,0.032,-0.244,-51.2,-33.2,-5.9,0,2018,5,16,19,16,51.331,0.1544,0.3893,-0.4166,0.8068
0.099,0.026,-0.266,-50.2,-41.3,0.7,0,2018,5,16,19,16,51.349,0.1603,0.3809,-0.4207,0.8075
0.075,0.012,-0.273,-48.2,-45.3,7.8,0,2018,5,16,19,16,51.372,0.1675,0.373,-0.4252,0.8074
0.055,-0.004,-0.258,-45.3,-45.5,15.2,0,2018,5,16,19,16,51.391,0.1756,0.3659,-0.4295,0.8066
0.04,-0.014,-0.272,-42.4,-43.3,23.3,0,2018,5,16,19,16,51.412,0.1844,0.3598,-0.4331,0.8055
0.032,-0.009,-0.3,-38.2,-40.2,32.3,0,2018,5,16,19,16,51.449,0.194,0.3549,-0.4359,0.8039
-0.008,-0.022,-0.332,-32,-35.8,42.4,0,2018,5,16,19,16,51.468,0.2043,0.3515,-0.4377,0.8018
-0.034,-0.029,-0.339,-24.9,-30.2,52.2,0,2018,5,16,19,16,51.473,0.2151,0.35,-0.4383,0.7993
-0.04,-0.031,-0.348,-17.1,-24.1,61.7,0,2018,5,16,19,16,51.494,0.2263,0.3504,-0.4378,0.7963
-0.086,-0.044,-0.33,-8.5,-17.4,71.8,0,2018,5,16,19,16,51.513,0.2378,0.353,-0.436,0.7928
-0.145,-0.072,-0.312,-2.3,-12.4,82.4,0,2018,5,16,19,16,51.531,0.2498,0.3575,-0.4331,0.7887
-0.172,-0.09,-0.279,3.2,-8.5,89.8,0,2018,5,16,19,16,51.568,0.2623,0.3637,-0.429,0.784
-0.084,-0.046,-0.256,6.9,-12,91.4,0,2018,5,16,19,16,51.59,0.2749,0.3708,-0.4247,0.7787
-0.072,-0.002,-0.24,9.1,-28.3,89.1,1023,2018,5,16,19,16,51.595,0.2878,0.3776,-0.4219,0.7723
-0.171,-0.058,-0.22,8.7,-46.1,88.4,1023,2018,5,16,19,16,51.614,0.3015,0.3834,-0.4216,0.7643
-0.284,-0.173,-0.179,6.8,-51.2,88.3,1023,2018,5,16,19,16,51.635,0.3161,0.3882,-0.4227,0.7553
-0.305,-0.219,-0.087,3.2,-44.4,83.5,1023,2018,5,16,19,16,51.656,0.3302,0.3926,-0.4234,0.7465
-0.201,-0.176,-0.057,-2.9,-38.1,73.1,1023,2018,5,16,19,16,51.677,0.3432,0.396,-0.4233,0.7389
-0.125,-0.074,-0.101,-10.1,-41.5,58.9,1023,2018,5,16,19,16,51.696,0.3546,0.398,-0.4238,0.7321
-0.069,-0.013,-0.136,-14.8,-55.9,41.1,1023,2018,5,16,19,16,51.733,0.365,0.3978,-0.4265,0.7256
-0.062,0.006,-0.099,-17.9,-72.9,25,0,2018,5,16,19,16,51.738,0.3747,0.3948,-0.4319,0.719
-0.046,0.006,-0.028,-21.3,-84.6,15,0,2018,5,16,19,16,51.756,0.3841,0.3892,-0.4394,0.7126
-0.005,0.013,0.004,-23.7,-86.8,14.3,0,2018,5,16,19,16,51.776,0.3935,0.3818,-0.4474,0.7064
0.04,0.044,-0.01,-24.9,-83.8,20,0,2018,5,16,19,16,51.797,0.4035,0.3743,-0.4548,0.7001
0.058,0.18,-0.031,-32.9,-102.5,25.4,0,2018,5,16,19,16,51.813,0.4146,0.3665,-0.4622,0.6928
0.095,-0.12,0.014,-37.9,-82.4,36.2,0,2018,5,16,19,16,51.851,0.4276,0.3577,-0.4687,0.685
0.141,0.111,-0.021,-37.4,-62.3,48.2,0,2018,5,16,19,16,51.873,0.4401,0.3512,-0.471,0.6789
0.194,0.143,-0.148,-35.3,-88.4,56.9,0,2018,5,16,19,16,51.877,0.4542,0.3458,-0.4734,0.6707
0.191,0.013,-0.205,-30.3,-98.4,67,0,2018,5,16,19,16,51.912,0.4698,0.3398,-0.4784,0.6594
0.154,-0.106,-0.187,-21.6,-84.5,75.6,0,2018,5,16,19,16,51.932,0.4857,0.3351,-0.4826,0.6471
0.087,-0.145,-0.136,-16.8,-66.4,81.5,0,2018,5,16,19,16,51.936,0.5005,0.3332,-0.4847,0.6351
0.038,-0.25,-0.132,-14.1,-49,84.4,0,2018,5,16,19,16,51.977,0.5143,0.3335,-0.4848,0.6237
-0.004,-0.315,-0.14,-11.3,-35.9,83.5,0,2018,5,16,19,16,51.995,0.5268,0.3355,-0.4833,0.6133
-0.03,-0.367,-0.109,-8.5,-26,79.6,0,2018,5,16,19,16,52,0.5381,0.3385,-0.4808,0.6037
-0.102,-0.422,-0.07,-7.2,-16.8,72,0,2018,5,16,19,16,52.016,0.548,0.342,-0.4778,0.5952
-0.146,-0.446,-0.057,-5.7,-7.3,61.9,0,2018,5,16,19,16,52.034,0.5561,0.3458,-0.4743,0.5882
-0.144,-0.457,-0.016,-4.5,-11.5,46.8,0,2018,5,16,19,16,52.056,0.5626,0.349,-0.4714,0.5825
-0.126,-0.461,0.013,-6.8,-24.1,27.8,0,2018,5,16,19,16,52.075,0.5679,0.3497,-0.4703,0.5777
-0.128,-0.391,-0.043,-11.3,-48.4,5.9,0,2018,5,16,19,16,52.098,0.5724,0.3467,-0.472,0.5737
-0.149,-0.365,-0.105,-12.9,-77.3,-11.8,1023,2018,5,16,19,16,52.116,0.5769,0.3387,-0.4774,0.5696
-0.155,-0.402,-0.116,-10.9,-93.2,-24.4,1023,2018,5,16,19,16,52.134,0.5811,0.327,-0.4859,0.5649
-0.2,-0.427,-0.131,-4.3,-89.9,-30.6,1023,2018,5,16,19,16,52.173,0.5842,0.3144,-0.4958,0.5603
-0.264,-0.444,-0.14,5.7,-74.3,-30.3,1023,2018,5,16,19,16,52.193,0.5855,0.3033,-0.5056,0.5562
-0.316,-0.485,-0.125,18,-48.7,-25.9,1023,2018,5,16,19,16,52.197,0.585,0.2956,-0.5143,0.5529
-0.246,-0.53,-0.099,31.4,-7,-21.3,1023,2018,5,16,19,16,52.235,0.5819,0.293,-0.5208,0.5514
-0.077,-0.539,-0.073,46.3,50.3,-23.2,1023,2018,5,16,19,16,52.256,0.5752,0.2971,-0.5237,0.5536
0.095,-0.478,-0.019,57.6,106.2,-36.2,1023,2018,5,16,19,16,52.26,0.5632,0.3076,-0.5226,0.5612
0.112,-0.408,0.024,61.1,142.3,-56.9,1023,2018,5,16,19,16,52.275,0.5461,0.3216,-0.5184,0.5739
0.058,-0.411,0.031,55,158.6,-80.3,1023,2018,5,16,19,16,52.315,0.525,0.3356,-0.5124,0.5907
0.012,-0.392,0.006,42.9,157.8,-102.5,0,2018,5,16,19,16,52.334,0.5015,0.3468,-0.5056,0.6103
-0.031,-0.355,0.005,28.7,141.6,-123.4,0,2018,5,16,19,16,52.339,0.4768,0.3537,-0.4993,0.631
-0.066,-0.298,0.082,7.3,103.6,-144.1,0,2018,5,16,19,16,52.359,0.4525,0.3541,-0.4952,0.6515
-0.085,-0.282,0.072,-17.4,50.6,-163.3,0,2018,5,16,19,16,52.378,0.4305,0.3459,-0.4954,0.6703
-0.089,-0.276,-0.02,-36,4.3,-180,0,2018,5,16,19,16,52.417,0.411,0.3295,-0.5006,0.6868
-0.064,-0.304,-0.135,-44,-9.1,-192.8,0,2018,5,16,19,16,52.437,0.3922,0.3076,-0.5088,0.7018
-0.071,-0.261,-0.174,-44.9,0.8,-203,0,2018,5,16,19,16,52.441,0.3719,0.2839,-0.5167,0.7169
-0.113,-0.192,-0.239,-44.5,17.3,-208.9,0,2018,5,16,19,16,52.46,0.3494,0.2601,-0.5225,0.7329
-0.131,-0.074,-0.291,-42.7,32.3,-210,0,2018,5,16,19,16,52.484,0.3251,0.2368,-0.5257,0.7495
-0.15,0.051,-0.325,-41.4,42.8,-205.2,0,2018,5,16,19,16,52.497,0.2999,0.2142,-0.5266,0.766
-0.164,0.162,-0.346,-42.1,45.5,-195.8,0,2018,5,16,19,16,52.536,0.275,0.1924,-0.5255,0.7817
-0.182,0.221,-0.387,-42.4,42.6,-181.5,0,2018,5,16,19,16,52.554,0.2515,0.1713,-0.5235,0.7958
-0.16,0.352,-0.494,-38.6,33.8,-141.2,0,2018,5,16,19,16,52.561,0.2113,0.1333,-0.518,0.818
-0.152,0.379,-0.534,-32,31.7,-117.8,0,2018,5,16,19,16,52.598,0.1953,0.1178,-0.5149,0.8263
-0.154,0.389,-0.562,-22.9,31.8,-92.3,0,2018,5,16,19,16,52.619,0.182,0.1054,-0.5114,0.8331
-0.267,0.404,-0.559,-11.2,32.5,-63.9,0,2018,5,16,19,16,52.623,0.1715,0.0971,-0.5076,0.8387
-0.348,0.425,-0.567,1.4,34.2,-31.1,0,2018,5,16,19,16,52.642,0.1645,0.0932,-0.5033,0.8431
-0.415,0.432,-0.552,13.1,29.5,2.3,0,2018,5,16,19,16,52.661,0.1613,0.0941,-0.499,0.8462
-0.492,0.429,-0.512,24.7,20.9,35.8,0,2018,5,16,19,16,52.699,0.1621,0.0994,-0.4954,0.8475
-0.626,0.432,-0.49,33.9,6,69.9,0,2018,5,16,19,16,52.703,0.1673,0.1088,-0.4933,0.8466
-0.668,0.406,-0.488,41.5,-8.9,100.2,1023,2018,5,16,19,16,52.72,0.1768,0.1218,-0.4929,0.8431
-0.613,0.42,-0.452,46.4,-27.7,123.4,1023,2018,5,16,19,16,52.739,0.19,0.1374,-0.4945,0.8369
-0.496,0.454,-0.374,46.9,-48.2,139.6,1023,2018,5,16,19,16,52.777,0.2061,0.1544,-0.4983,0.8277
-0.383,0.445,-0.257,45,-63.3,150,1023,2018,5,16,19,16,52.797,0.2246,0.1716,-0.5041,0.816
-0.346,0.417,-0.173,39.2,-72.4,156.9,1023,2018,5,16,19,16,52.802,0.2447,0.1884,-0.5106,0.8023
-0.354,0.356,-0.169,31.4,-73.4,163.6,1023,2018,5,16,19,16,52.82,0.2663,0.2044,-0.5169,0.7873
-0.357,0.289,-0.19,23.4,-69.3,169.4,1023,2018,5,16,19,16,52.841,0.2892,0.2198,-0.5217,0.7718
-0.382,0.235,-0.168,15.4,-65.7,175.1,0,2018,5,16,19,16,52.88,0.3131,0.2347,-0.5249,0.7558
-0.374,0.208,-0.138,6.2,-65.9,181.7,0,2018,5,16,19,16,52.899,0.3382,0.2487,-0.5264,0.7392
-0.329,0.176,-0.142,-2.2,-76.1,187.3,0,2018,5,16,19,16,52.903,0.3647,0.2616,-0.5273,0.7214
-0.28,0.113,-0.172,-7.7,-90.9,190.9,0,2018,5,16,19,16,52.942,0.3926,0.2728,-0.5285,0.7014
-0.226,0.022,-0.188,-9.3,-101.8,192.1,0,2018,5,16,19,16,52.962,0.4213,0.2825,-0.5303,0.6792
-0.204,-0.05,-0.191,-7.3,-105.6,191.1,0,2018,5,16,19,16,52.967,0.4496,0.2914,-0.5322,0.6554
-0.163,-0.112,-0.209,-3,-105.4,186.3,0,2018,5,16,19,16,52.98,0.4767,0.3,-0.5337,0.6307
-0.132,-0.427,-0.131,0.7,-78.2,186.1,0,2018,5,16,19,16,53.002,0.5022,0.3087,-0.5342,0.6058
-0.114,-0.294,-0.15,11.7,-30.7,180,0,2018,5,16,19,16,53.02,0.5232,0.3219,-0.5301,0.5843
-0.049,-0.433,-0.194,19.2,-4.8,172.3,0,2018,5,16,19,16,53.058,0.5405,0.3381,-0.5231,0.5655
0.056,-0.441,-0.247,27.5,21.7,159.9,0,2018,5,16,19,16,53.079,0.5538,0.3564,-0.5144,0.5491
0.156,-0.428,-0.277,34.9,32,143,0,2018,5,16,19,16,53.081,0.5635,0.3756,-0.5051,0.5348
0.222,-0.43,-0.261,41,30.7,122.5,0,2018,5,16,19,16,53.121,0.5702,0.3939,-0.497,0.522
0.266,-0.409,-0.223,42.8,19.2,99.6,0,2018,5,16,19,16,53.142,0.5748,0.4098,-0.4912,0.5101
0.364,-0.398,-0.186,42.3,1.6,77.2,0,2018,5,16,19,16,53.147,0.5781,0.4221,-0.4882,0.4991
0.474,-0.411,-0.184,40.8,-19.1,56.7,0,2018,5,16,19,16,53.184,0.5809,0.4304,-0.4883,0.4885
0.549,-0.433,-0.177,39.9,-41.5,38.6,0,2018,5,16,19,16,53.188,0.5838,0.4347,-0.4914,0.4781
0.611,-0.449,-0.146,40.6,-61,22.5,0,2018,5,16,19,16,53.204,0.5868,0.4353,-0.4975,0.4675
0.711,-0.456,-0.054,40.3,-72.4,8.2,0,2018,5,16,19,16,53.222,0.5895,0.4329,-0.5061,0.4569
0.771,-0.457,0.007,37,-76,-1.7,0,2018,5,16,19,16,53.242,0.5919,0.4285,-0.5158,0.4471
0.81,-0.473,0.011,32.4,-76.1,-7.2,0,2018,5,16,19,16,53.28,0.5941,0.4227,-0.5256,0.438
0.858,-0.521,0.053,30.8,-64.8,-10.4,1023,2018,5,16,19,16,53.299,0.5957,0.4169,-0.5349,0.4301
0.831,-0.534,0.119,27.4,-48.1,-16.4,1023,2018,5,16,19,16,53.303,0.596,0.412,-0.5431,0.4241
0.771,-0.491,0.156,20.8,-41.9,-24.9,1023,2018,5,16,19,16,53.344,0.5954,0.4072,-0.5503,0.4203
0.696,-0.411,0.038,17.3,-45.3,-33.5,1023,2018,5,16,19,16,53.363,0.5944,0.4012,-0.5575,0.4181
0.215,-0.627,0.166,29.8,-34,-29.8,1023,2018,5,16,19,16,53.367,0.5932,0.3951,-0.5651,0.4153
-0.578,-0.967,0.481,19.3,6.7,-21.4,1023,2018,5,16,19,16,53.387,0.5898,0.3928,-0.5707,0.4147
-1.331,-1.042,0.448,-16.6,52.6,-27.1,1023,2018,5,16,19,16,53.407,0.5854,0.3945,-0.5699,0.4203
-1.694,-0.967,0.122,-61.9,56.7,-35.9,0,2018,5,16,19,16,53.427,0.583,0.3943,-0.5637,0.4321
-1.676,-0.708,-0.138,-103.2,-3.1,-55,0,2018,5,16,19,16,53.447,0.5857,0.3867,-0.5557,0.4455
-1.68,-0.725,-0.286,-124,-93.1,-97.8,0,2018,5,16,19,16,53.464,0.5943,0.3647,-0.5528,0.456
-1.652,-0.794,-0.103,-125.9,-129.8,-144.7,0,2018,5,16,19,16,53.503,0.6037,0.3303,-0.5567,0.4651
-1.33,-0.724,0.068,-107.3,-110.4,-171.3,0,2018,5,16,19,16,53.523,0.6088,0.2918,-0.5629,0.4766
-0.854,-0.623,0.03,-66.6,-57.7,-186.4,0,2018,5,16,19,16,53.527,0.6063,0.2577,-0.5694,0.4915
-0.502,-0.449,-0.135,-25.9,12.2,-197.2,0,2018,5,16,19,16,53.547,0.5949,0.2322,-0.5748,0.5114
-0.278,-0.291,-0.297,5.9,86.5,-204.9,0,2018,5,16,19,16,53.566,0.5752,0.2165,-0.5771,0.5376
-0.122,-0.167,-0.427,25.1,141.5,-210.2,0,2018,5,16,19,16,53.587,0.5491,0.2088,-0.575,0.5692
-0.037,-0.13,-0.528,38.4,182.6,-215.7,0,2018,5,16,19,16,53.607,0.5181,0.2061,-0.5689,0.6043
-0.022,-0.036,-0.561,47.8,210.9,-217.7,0,2018,5,16,19,16,53.645,0.483,0.2069,-0.5589,0.6413
-0.036,0.086,-0.528,50.1,227.1,-214.6,0,2018,5,16,19,16,53.649,0.4452,0.2097,-0.5453,0.6784
-0.022,0.196,-0.472,45.2,223.6,-208.5,0,2018,5,16,19,16,53.666,0.4065,0.2126,-0.5292,0.7137
-0.036,0.193,-0.463,34.2,206.5,-199.6,0,2018,5,16,19,16,53.704,0.3689,0.2138,-0.512,0.7456
-0.065,0.198,-0.474,20.1,178.1,-187.3,0,2018,5,16,19,16,53.724,0.3336,0.2122,-0.4953,0.7734
-0.082,0.248,-0.518,3.3,140.4,-169.7,0,2018,5,16,19,16,53.728,0.3023,0.2074,-0.4807,0.7965
-0.059,0.266,-0.59,-12.3,101,-149.4,0,2018,5,16,19,16,53.747,0.2761,0.1995,-0.4693,0.8146
-0.013,0.296,-0.653,-23.4,69,-129.9,0,2018,5,16,19,16,53.765,0.2548,0.1895,-0.4612,0.8284
-0.003,0.348,-0.677,-29.3,47.7,-109.6,0,2018,5,16,19,16,53.803,0.2377,0.1785,-0.4556,0.839
-0.029,0.373,-0.685,-32.5,37.3,-88,0,2018,5,16,19,16,53.824,0.2244,0.1678,-0.4512,0.8472
-0.033,0.401,-0.706,-33.4,29,-68.1,0,2018,5,16,19,16,53.828,0.2146,0.158,-0.4472,0.8537
-0.011,0.44,-0.745,-28.7,21.8,-46.2,1023,2018,5,16,19,16,53.848,0.2078,0.1498,-0.4438,0.8586
-0.096,0.386,-0.757,-17.2,17.8,-18.5,1023,2018,5,16,19,16,53.871,0.2043,0.1445,-0.4409,0.8619
-0.27,0.212,-0.731,-2.3,21.5,16.6,1023,2018,5,16,19,16,53.887,0.2044,0.1437,-0.4377,0.8636
-0.395,0.054,-0.694,17.3,31.5,50.2,1023,2018,5,16,19,16,53.907,0.2084,0.1485,-0.433,0.8642
-0.301,0.087,-0.621,43,39,76.3,1023,2018,5,16,19,16,53.929,0.215,0.1593,-0.4269,0.8637
-0.247,0.143,-0.511,67.8,28.6,90.2,1023,2018,5,16,19,16,53.947,0.2225,0.1754,-0.4214,0.8614
-0.172,0.18,-0.457,87.3,11,95.1,1023,2018,5,16,19,16,53.968,0.2301,0.1947,-0.4186,0.8566
-0.273,0.171,-0.447,106.8,-1.3,96.2,1023,2018,5,16,19,16,54.005,0.2372,0.2164,-0.4186,0.8494
-0.367,0.158,-0.42,128.4,-3.4,96,1023,2018,5,16,19,16,54.025,0.2428,0.2407,-0.4202,0.8404
-0.43,0.057,-0.331,147.9,7.4,96.4,0,2018,5,16,19,16,54.029,0.2466,0.2681,-0.4218,0.8302
-0.473,-0.137,-0.214,162.3,43.4,100.1,0,2018,5,16,19,16,54.068,0.248,0.2988,-0.4202,0.82
-0.613,-0.056,-0.116,165.4,88.6,107.8,0,2018,5,16,19,16,54.089,0.2469,0.3329,-0.4119,0.8114
-0.73,0.123,-0.246,155.2,98.2,113.6,0,2018,5,16,19,16,54.092,0.2453,0.3676,-0.3982,0.8037
-0.642,0.215,-0.524,143.3,72.4,113.2,0,2018,5,16,19,16,54.128,0.2453,0.3997,-0.3849,0.7948
-0.339,0.204,-0.549,149.5,46.4,106.2,0,2018,5,16,19,16,54.148,0.2466,0.4294,-0.3752,0.7834
-0.222,0.135,-0.356,160.6,31.1,97.1,0,2018,5,16,19,16,54.151,0.2473,0.4587,-0.369,0.7695
-0.148,0.102,-0.081,169.6,31.8,91.3,0,2018,5,16,19,16,54.167,0.2467,0.488,-0.3643,0.7537
-0.131,0.003,0.134,173.6,44.3,90,0,2018,5,16,19,16,54.188,0.245,0.5179,-0.3584,0.737
-0.121,-0.148,0.231,178.5,83.7,97.1,0,2018,5,16,19,16,54.228,0.2401,0.5484,-0.3488,0.7209
-0.09,-0.217,0.263,183.4,117.8,105.5,0,2018,5,16,19,16,54.25,0.2318,0.5812,-0.3334,0.705
-0.075,-0.356,0.29,185.1,139.7,112.4,0,2018,5,16,19,16,54.254,0.2211,0.615,-0.3136,0.6888
-0.053,-0.46,0.309,182.8,159.5,113.2,0,2018,5,16,19,16,54.272,0.2083,0.6484,-0.2902,0.6722
-0.026,-0.512,0.375,180.6,181.5,105.4,0,2018,5,16,19,16,54.293,0.1923,0.6808,-0.264,0.6555
-0.01,-0.544,0.49,178.6,209.1,90.3,0,2018,5,16,19,16,54.311,0.1716,0.7116,-0.2358,0.6391
-0.022,-0.543,0.616,175.4,236.3,70,1023,2018,5,16,19,16,54.35,0.1447,0.7405,-0.206,0.623
-0.104,-0.548,0.759,166.2,256.8,46.6,1023,2018,5,16,19,16,54.37,0.1127,0.7663,-0.1758,0.6074
-0.161,-0.469,0.816,149.5,279.8,27.5,1023,2018,5,16,19,16,54.374,0.0754,0.7884,-0.1454,0.5929
-0.176,-0.344,0.749,128.8,296,14.2,1023,2018,5,16,19,16,54.392,0.0343,0.8058,-0.1143,0.5799
-0.183,-0.228,0.699,103.4,300.4,5.8,1023,2018,5,16,19,16,54.41,-0.009,0.8182,-0.0833,0.5687
-0.118,-0.106,0.582,78.5,296.8,7.4,1023,2018,5,16,19,16,54.448,-0.0523,0.8255,-0.0527,0.5594
-0.055,0.106,0.518,56.7,277.6,18,1023,2018,5,16,19,16,54.47,-0.0933,0.8284,-0.022,0.5517
0.019,0.238,0.504,39.2,235,34.7,1023,2018,5,16,19,16,54.474,-0.1281,0.8279,0.0071,0.5458
-0.008,0.09,0.37,29.2,214.1,53.3,1023,2018,5,16,19,16,54.493,-0.1555,0.8255,0.0353,0.5413
0.035,0.048,0.51,13,174.1,78,1023,2018,5,16,19,16,54.513,-0.1771,0.8212,0.0637,0.5386
-0.089,0.12,0.498,-0.7,140.1,102.2,0,2018,5,16,19,16,54.532,-0.191,0.8154,0.0917,0.5385
-0.157,0.017,0.493,-27.4,72.2,122.9,0,2018,5,16,19,16,54.555,-0.1957,0.8083,0.1175,0.5425
-0.242,-0.226,0.395,-55.2,18.4,137.7,0,2018,5,16,19,16,54.595,-0.1898,0.8,0.1382,0.552
-0.228,-0.522,0.285,-74.3,-0.9,146.4,0,2018,5,16,19,16,54.597,-0.1783,0.7897,0.1564,0.5656
-0.22,-0.708,0.224,-84.7,14.9,151.3,0,2018,5,16,19,16,54.614,-0.1664,0.7772,0.175,0.581
-0.264,-0.837,0.143,-90.2,42,148.8,0,2018,5,16,19,16,54.631,-0.1576,0.7625,0.1957,0.5961
-0.216,-0.881,0.028,-88,72.9,138.2,0,2018,5,16,19,16,54.67,-0.1534,0.7462,0.2184,0.6098
-0.095,-0.923,-0.122,-74.4,110.7,119.9,0,2018,5,16,19,16,54.69,-0.1546,0.7297,0.2427,0.6201
-0.037,-0.88,-0.154,-56.8,139.2,97,0,2018,5,16,19,16,54.694,-0.1617,0.7143,0.2683,0.6256
-0.036,-0.879,-0.166,-42.1,161.7,74.7,0,2018,5,16,19,16,54.714,-0.1734,0.7004,0.294,0.6267
-0.032,-0.853,-0.144,-31,172.4,51.4,0,2018,5,16,19,16,54.734,-0.189,0.6878,0.3189,0.624
0.006,-0.827,-0.131,-25.5,165.9,28.2,0,2018,5,16,19,16,54.772,-0.2066,0.6766,0.3411,0.6188
0.026,-0.817,-0.135,-23.9,148.9,8.6,0,2018,5,16,19,16,54.792,-0.2247,0.667,0.3591,0.6127
0.031,-0.813,-0.157,-24.4,129.2,-5.9,0,2018,5,16,19,16,54.797,-0.2422,0.6588,0.373,0.6067
0.078,-0.787,-0.167,-24,112.8,-18.7,0,2018,5,16,19,16,54.816,-0.2589,0.6518,0.3831,0.601
0.13,-0.745,-0.159,-22.5,103.1,-30.8,0,2018,5,16,19,16,54.837,-0.2752,0.6461,0.3904,0.5952
0.13,-0.707,-0.136,-19.9,98.3,-42.8,0,2018,5,16,19,16,54.853,-0.2918,0.6415,0.3955,0.5889
0.084,-0.659,-0.121,-16.6,96.8,-54.5,0,2018,5,16,19,16,54.872,-0.3089,0.6379,0.399,0.5816
0.069,-0.594,-0.101,-13.9,94,-65.7,0,2018,5,16,19,16,54.893,-0.3267,0.6353,0.4011,0.5732
0.078,-0.52,-0.066,-11.5,86.5,-76.1,1023,2018,5,16,19,16,54.914,-0.3447,0.6337,0.4015,0.5641
0.078,-0.457,-0.037,-9.3,74.6,-85.7,1023,2018,5,16,19,16,54.935,-0.3622,0.6334,0.3997,0.5546
0.043,-0.403,0.002,-7.9,59.7,-94.1,1023,2018,5,16,19,16,54.953,-0.3789,0.6346,0.3956,0.5451
0.011,-0.37,0.009,-7.7,47.2,-100,0,2018,5,16,19,16,54.995,-0.3944,0.637,0.3892,0.5358
-0.011,-0.326,0.019,-6.7,38.7,-104.9,0,2018,5,16,19,16,55.015,-0.4092,0.6402,0.3812,0.5265
-0.021,-0.28,0.03,-5.4,31.5,-109.1,0,2018,5,16,19,16,55.019,-0.4232,0.6442,0.3719,0.5171
-0.131,-0.251,0.064,-4.7,26.7,-113.3,0,2018,5,16,19,16,55.038,-0.4368,0.6487,0.3615,0.5074
-0.206,-0.211,0.077,-8.3,24.2,-116.1,0,2018,5,16,19,16,55.055,-0.4501,0.6534,0.3502,0.4977
-0.21,-0.171,0.063,-12.4,27.3,-118.6,0,2018,5,16,19,16,55.074,-0.464,0.6574,0.3378,0.488
-0.223,-0.134,0.06,-14.9,33.1,-122.1,0,2018,5,16,19,16,55.095,-0.4791,0.6606,0.3248,0.4779
-0.306,-0.087,0.055,-18,40.1,-127.9,0,2018,5,16,19,16,55.117,-0.495,0.6628,0.3117,0.4672
-0.463,0.091,0.038,-24,39.5,-132.7,0,2018,5,16,19,16,55.138,-0.5114,0.6641,0.2982,0.4564
-0.386,0.368,-0.043,-32.3,19.4,-130.2,0,2018,5,16,19,16,55.155,-0.5267,0.6658,0.2827,0.4464
-0.34,0.55,-0.036,-34.1,-4.5,-123.7,0,2018,5,16,19,16,55.194,-0.5389,0.6687,0.2653,0.438
-0.266,0.605,-0.012,-37.6,-28.8,-107.8,0,2018,5,16,19,16,55.216,-0.5473,0.6728,0.247,0.4321
-0.245,0.561,0.026,-39.2,-49.8,-90.8,0,2018,5,16,19,16,55.22,-0.5516,0.6778,0.2286,0.4288
-0.223,0.487,0.053,-39.3,-66.7,-73.4,0,2018,5,16,19,16,55.255,-0.5521,0.6837,0.2106,0.4279
-0.258,0.59,0.047,-38.8,-76.7,-53.9,0,2018,5,16,19,16,55.276,-0.5497,0.69,0.1939,0.4289
-0.29,0.653,0.02,-37.9,-84.1,-28,1023,2018,5,16,19,16,55.28,-0.5441,0.6962,0.1792,0.4324
-0.334,0.6,0.024,-36.2,-79.8,0.9,1023,2018,5,16,19,16,55.294,-0.5361,0.7016,0.1679,0.4382
-0.365,0.469,0.044,-36,-70.6,27.8,1023,2018,5,16,19,16,55.334,-0.5267,0.7053,0.1607,0.4462
-0.353,0.35,0.062,-37,-59.8,53.2,1023,2018,5,16,19,16,55.353,-0.5164,0.7073,0.1573,0.4563
-0.245,0.308,0.092,-35.5,-45.6,76,1023,2018,5,16,19,16,55.358,-0.5055,0.7073,0.158,0.468
-0.079,0.299,0.164,-34.8,-37.9,88.9,1023,2018,5,16,19,16,55.377,-0.4944,0.7057,0.1619,0.4808
0.099,0.292,0.201,-37.3,-33.7,92.1,1023,2018,5,16,19,16,55.397,-0.4832,0.7031,0.1671,0.4941
0.189,0.367,0.136,-41,-41,90,1023,2018,5,16,19,16,55.435,-0.4719,0.7,0.1718,0.5076
0.152,0.272,0.091,-44.5,-60.1,87.4,1023,2018,5,16,19,16,55.455,-0.4591,0.6976,0.1746,0.5216
0.101,0.047,0.132,-44.2,-68.9,86.9,1023,2018,5,16,19,16,55.459,-0.4442,0.696,0.1755,0.536
0.031,-0.127,0.272,-43.4,-59.7,87.1,1023,2018,5,16,19,16,55.479,-0.4292,0.6943,0.1766,0.5499
-0.031,-0.257,0.367,-46.6,-53.8,86.9,1023,2018,5,16,19,16,55.5,-0.4152,0.6914,0.1785,0.5636
-0.058,-0.36,0.322,-45.6,-55.2,78.9,1023,2018,5,16,19,16,55.538,-0.4014,0.6881,0.1798,0.5769
-0.105,-0.648,0.295,-37.4,-46.2,58,0,2018,5,16,19,16,55.559,-0.3892,0.6854,0.18,0.5883
-0.197,-0.992,0.384,-16.8,-8.8,26.3,0,2018,5,16,19,16,55.563,-0.382,0.6833,0.1801,0.5954
-0.39,-1.202,0.514,9.5,57.5,-6.3,0,2018,5,16,19,16,55.581,-0.3841,0.681,0.1836,0.5956
-0.75,-1.215,0.548,35.9,121.3,-36.7,0,2018,5,16,19,16,55.599,-0.3964,0.678,0.1921,0.5883
-1.294,-1.183,0.54,55.1,160.9,-67.1,0,2018,5,16,19,16,55.619,-0.4172,0.6743,0.2039,0.574
-1.475,-0.988,0.36,54.1,166.3,-94.7,0,2018,5,16,19,16,55.655,-0.4427,0.6705,0.215,0.555
-1.269,-0.656,0.036,47.8,144.2,-107.9,0,2018,5,16,19,16,55.676,-0.469,0.6668,0.2214,0.535
-0.9,-0.375,-0.167,47.2,115.2,-103.9,0,2018,5,16,19,16,55.68,-0.4915,0.665,0.2248,0.5152
-0.32,-0.095,-0.169,51.7,97.8,-86.3,0,2018,5,16,19,16,55.702,-0.5098,0.6644,0.2277,0.4966
0.213,0.11,-0.08,50.3,68.7,-64.1,0,2018,5,16,19,16,55.723,-0.5236,0.6646,0.2309,0.4803
0.699,0.298,-0.035,37,28.9,-40,0,2018,5,16,19,16,55.742,-0.5316,0.6663,0.2328,0.468
1.121,0.439,-0.168,25.8,-17.4,-15.6,0,2018,5,16,19,16,55.764,-0.533,0.6694,0.2329,0.4619
1.351,0.475,-0.157,24.5,-56.5,0,1023,2018,5,16,19,16,55.801,-0.5281,0.6752,0.2312,0.46
1.364,0.34,0.059,26.2,-64.3,8.6,1023,2018,5,16,19,16,55.821,-0.5192,0.6828,0.2289,0.46
1.366,0.311,0.278,24.5,-47.7,11.3,1023,2018,5,16,19,16,55.825,-0.5108,0.6894,0.228,0.4601
1.248,0.328,0.275,20.9,-33.8,9.9,1023,2018,5,16,19,16,55.841,-0.5042,0.6943,0.228,0.46
1.103,0.361,0.236,23.6,-26.6,8.6,0,2018,5,16,19,16,55.862,-0.4993,0.6981,0.2287,0.4593
0.895,0.295,0.263,29,-14.3,7.2,0,2018,5,16,19,16,55.882,-0.4952,0.7016,0.2302,0.4576
0.647,0.139,0.31,32.7,14.6,7.8,0,2018,5,16,19,16,55.902,-0.4935,0.7036,0.2337,0.4545
0.463,0.002,0.359,35.4,50,7.3,0,2018,5,16,19,16,55.922,-0.4959,0.7029,0.2403,0.4496
0.06,-0.213,0.486,31.9,76.9,7.4,0,2018,5,16,19,16,55.959,-0.502,0.6995,0.2492,0.4432
-0.499,-0.404,0.399,16.9,100.3,4.5,0,2018,5,16,19,16,55.982,-0.5113,0.6932,0.2589,0.4368
-0.67,-0.338,0.199,9,121.2,1.4,0,2018,5,16,19,16,55.986,-0.524,0.6838,0.2688,0.4305
-0.78,-0.332,0.226,1.8,128.9,-9.6,0,2018,5,16,19,16,56.003,-0.5392,0.6726,0.2782,0.4235
-0.812,-0.291,0.184,-9,128.1,-25.2,0,2018,5,16,19,16,56.042,-0.5559,0.6606,0.2854,0.4159
-0.765,-0.103,0.175,-17.2,94.5,-45,0,2018,5,16,19,16,56.047,-0.5721,0.6502,0.2881,0.4083
-0.939,-0.061,0.152,-24.2,49.4,-62.4,0,2018,5,16,19,16,56.062,-0.5851,0.6443,0.2848,0.4015
-1.044,-0.025,-0.002,-32.3,13.5,-69.1,0,2018,5,16,19,16,56.1,-0.5946,0.6424,0.2764,0.3965
-0.989,0.058,-0.126,-32.6,-8.7,-68.8,0,2018,5,16,19,16,56.122,-0.601,0.6434,0.2652,0.3929
