time_1,time_2,time_3,time_4,time_5,time_6,w,x,y,z,droll,dpitch,dyaw,ax,ay,az,heart
2018,5,17,21,53,36.743,0.6215,0.564,-0.5423,-0.0371,1.6,0.6,0,-0.005,0.004,-0.003,0
2018,5,17,21,53,36.748,0.6212,0.5643,-0.5423,-0.037,2.2,0.6,0.4,-0.006,0.004,0.001,0
2018,5,17,21,53,36.783,0.621,0.5646,-0.5423,-0.0367,2.2,0,0.1,-0.007,0.004,0,0
2018,5,17,21,53,36.806,0.6208,0.5648,-0.5423,-0.0365,2,-0.1,-0.1,-0.005,0.008,-0.009,0
2018,5,17,21,53,36.811,0.6206,0.5651,-0.5422,-0.0363,1.6,-0.1,0,0,0.006,-0.005,0
2018,5,17,21,53,36.825,0.6204,0.5653,-0.5422,-0.0362,1.1,0.1,0.3,0,0.009,-0.007,0
2018,5,17,21,53,36.843,0.6203,0.5655,-0.5422,-0.0362,0,0,0,-0.007,0.011,0,0
2018,5,17,21,53,36.866,0.6204,0.5654,-0.5422,-0.0362,0,0,0,-0.01,0.006,0.004,0
2018,5,17,21,53,36.884,0.6205,0.5653,-0.5422,-0.0361,0.5,-0.1,0.2,-0.013,0.006,0.005,0
2018,5,17,21,53,36.905,0.6204,0.5655,-0.5421,-0.0359,1.4,-0.7,0.5,-0.008,0.002,0.004,0
2018,5,17,21,53,36.944,0.6203,0.5658,-0.5419,-0.0357,2.3,-0.8,0.5,-0.003,0.004,-0.001,0
2018,5,17,21,53,36.944,0.6201,0.5662,-0.5417,-0.0355,1.9,-0.7,0.8,0.002,0.008,-0.007,0
2018,5,17,21,53,36.967,0.62,0.5664,-0.5416,-0.0354,1,-0.4,0.7,0.002,0.013,-0.007,0
2018,5,17,21,53,37.005,0.6201,0.5664,-0.5415,-0.0353,0.1,0,0.5,0,0.01,-0.006,1023
2018,5,17,21,53,37.028,0.6201,0.5664,-0.5415,-0.0353,0,0,0,0,0.009,0,1023
2018,5,17,21,53,37.033,0.6202,0.5663,-0.5415,-0.0353,0,0,0,0,0.001,-0.004,1023
2018,5,17,21,53,37.047,0.6202,0.5664,-0.5414,-0.0354,-0.2,-0.4,0.6,-0.004,0,-0.002,1023
2018,5,17,21,53,37.065,0.6203,0.5663,-0.5413,-0.0353,-0.8,-0.7,-0.2,-0.003,0.007,0.001,1023
2018,5,17,21,53,37.085,0.6205,0.5661,-0.5413,-0.0353,-1.9,-0.6,-1,-0.003,0.012,-0.005,1023
2018,5,17,21,53,37.104,0.6208,0.5659,-0.5413,-0.0354,-2.6,-0.3,-1,-0.001,0.019,-0.001,1023
2018,5,17,21,53,37.126,0.6212,0.5655,-0.5413,-0.0356,-2.6,0,-0.7,-0.006,0.01,0.003,1023
2018,5,17,21,53,37.145,0.6215,0.5651,-0.5413,-0.0357,-1.4,0.1,-0.2,-0.008,0.003,0.007,1023
2018,5,17,21,53,37.168,0.6216,0.5649,-0.5413,-0.0356,0,0,0,-0.008,-0.001,0.006,1023
2018,5,17,21,53,37.186,0.6216,0.5649,-0.5413,-0.0355,1.1,-0.1,-0.3,-0.007,0.001,0.001,1023
2018,5,17,21,53,37.209,0.6214,0.5652,-0.5413,-0.0353,1.3,0,-0.5,-0.002,0.008,-0.005,1023
2018,5,17,21,53,37.227,0.6213,0.5652,-0.5414,-0.0351,0.9,0.4,-0.5,-0.002,0.007,-0.005,1023
2018,5,17,21,53,37.251,0.6212,0.5652,-0.5416,-0.035,0.3,0.7,-0.7,-0.002,0.009,-0.006,0
2018,5,17,21,53,37.269,0.6211,0.5651,-0.5417,-0.035,0,0.6,-0.9,-0.006,0.012,-0.005,0
2018,5,17,21,53,37.293,0.6211,0.565,-0.5418,-0.0349,0,0,0,-0.009,0.005,-0.002,0
2018,5,17,21,53,37.309,0.621,0.5652,-0.5418,-0.0349,0.9,0,0,-0.005,0.008,-0.004,0
2018,5,17,21,53,37.333,0.6209,0.5654,-0.5417,-0.0348,0.4,-0.6,0,-0.005,0.007,-0.002,0
2018,5,17,21,53,37.349,0.6209,0.5655,-0.5417,-0.0346,-0.2,-0.8,-0.2,-0.003,0.008,-0.01,0
2018,5,17,21,53,37.37,0.621,0.5655,-0.5416,-0.0346,-1.3,-0.7,-0.2,-0.001,0.005,-0.005,0
2018,5,17,21,53,37.387,0.621,0.5655,-0.5415,-0.0348,-2.1,-0.3,-0.2,-0.001,0.01,-0.006,0
2018,5,17,21,53,37.408,0.6213,0.5651,-0.5415,-0.035,-3,0.1,-0.7,-0.005,0.01,0,0
2018,5,17,21,53,37.445,0.6217,0.5647,-0.5415,-0.0352,-3.1,-0.1,-0.5,-0.007,0.009,0.007,0
2018,5,17,21,53,37.467,0.622,0.5644,-0.5414,-0.0353,-2.3,-0.4,-0.2,-0.013,0.001,0.011,0
2018,5,17,21,53,37.472,0.6224,0.5641,-0.5413,-0.0353,-0.6,-0.7,0,-0.012,0.004,0.005,0
2018,5,17,21,53,37.489,0.6225,0.5641,-0.5412,-0.0351,1,-1,0.2,-0.004,0.006,0.003,0
2018,5,17,21,53,37.514,0.6225,0.5643,-0.541,-0.035,1.1,-0.7,0.3,0,0.013,-0.001,0
2018,5,17,21,53,37.528,0.6224,0.5645,-0.5409,-0.0349,0,0,0,-0.003,0.009,-0.009,0
2018,5,17,21,53,37.565,0.6224,0.5645,-0.5409,-0.0349,0,0,0,-0.002,0.01,-0.006,1023
2018,5,17,21,53,37.588,0.6224,0.5645,-0.5409,-0.0349,-0.7,0.6,-0.1,-0.004,0.016,-0.007,1023
2018,5,17,21,53,37.593,0.6224,0.5645,-0.5409,-0.0351,-0.8,0.4,0.3,-0.003,0.004,-0.003,1023
2018,5,17,21,53,37.608,0.6224,0.5645,-0.5409,-0.0352,-0.6,0.2,0.5,-0.006,0,-0.004,1023
2018,5,17,21,53,37.632,0.6225,0.5644,-0.5408,-0.0353,-1.2,-0.3,-0.2,-0.004,0.005,-0.003,1023
2018,5,17,21,53,37.65,0.6227,0.5642,-0.5408,-0.0354,-2.4,-0.7,-1.1,-0.002,0.011,0,1023
2018,5,17,21,53,37.672,0.6229,0.564,-0.5407,-0.0355,-1.8,-0.7,-1,0.002,0.013,0,1023
2018,5,17,21,53,37.709,0.6231,0.5639,-0.5406,-0.0357,-2.5,-0.3,-0.7,-0.01,0.007,0.003,1023
2018,5,17,21,53,37.731,0.6235,0.5634,-0.5407,-0.0356,-1.3,-0.3,-0.7,-0.006,0.003,0.001,1023
2018,5,17,21,53,37.736,0.6237,0.5632,-0.5407,-0.0356,0,0,0,-0.006,0.007,0,1023
2018,5,17,21,53,37.752,0.6238,0.5632,-0.5407,-0.0355,0.5,0,-0.3,-0.004,0.003,0,1023
2018,5,17,21,53,37.774,0.6237,0.5631,-0.5407,-0.0355,0.2,0.4,-0.6,-0.002,0.005,0.001,1023
2018,5,17,21,53,37.809,0.6237,0.5631,-0.5408,-0.0354,0.2,0.2,-0.7,-0.003,0.005,0,1023
2018,5,17,21,53,37.831,0.6237,0.5631,-0.5409,-0.0353,0,0.6,-0.8,-0.002,0.01,-0.006,0
2018,5,17,21,53,37.833,0.6236,0.563,-0.541,-0.0353,-0.3,0.6,-1,-0.006,0.013,-0.003,0
2018,5,17,21,53,37.867,0.6235,0.563,-0.5411,-0.0354,-0.4,0.4,-0.6,-0.007,0.008,0,0
2018,5,17,21,53,37.888,0.6236,0.5629,-0.5411,-0.0353,0,0,0,-0.008,0.005,0.001,0
2018,5,17,21,53,37.889,0.6236,0.563,-0.5411,-0.0352,0.8,-0.1,0,-0.009,0.006,-0.001,0
2018,5,17,21,53,37.925,0.6236,0.5631,-0.541,-0.035,0.7,-0.7,-0.2,-0.005,0.005,-0.004,0
2018,5,17,21,53,37.947,0.6236,0.5631,-0.541,-0.0349,-0.2,-0.7,-0.4,-0.003,0.007,-0.009,0
2018,5,17,21,53,37.953,0.6237,0.5629,-0.541,-0.0348,-1.2,-0.3,-0.5,-0.001,0.008,-0.005,0
2018,5,17,21,53,37.989,0.6239,0.5627,-0.541,-0.0349,-2.5,0.2,-0.8,-0.004,0.01,-0.001,0
2018,5,17,21,53,38.011,0.6242,0.5624,-0.541,-0.0351,-2.9,0.1,-0.8,-0.008,0.006,0.005,0
2018,5,17,21,53,38.016,0.6246,0.5619,-0.5411,-0.0352,-2.1,-0.1,-0.3,-0.011,0.001,0.01,0
2018,5,17,21,53,38.052,0.6248,0.5616,-0.5411,-0.0352,-0.7,-0.6,-0.2,-0.013,0.001,0.008,0
2018,5,17,21,53,38.052,0.625,0.5615,-0.541,-0.035,0.8,-1.1,-0.3,-0.01,0.002,-0.001,0
2018,5,17,21,53,38.075,0.6251,0.5615,-0.5409,-0.0347,1.1,-0.7,0,-0.002,0.013,-0.004,0
2018,5,17,21,53,38.093,0.6251,0.5616,-0.5408,-0.0346,1,-0.3,0.2,0.001,0.017,-0.011,0
2018,5,17,21,53,38.13,0.625,0.5617,-0.5408,-0.0346,0,0,0,0.002,0.016,-0.007,1023
2018,5,17,21,53,38.153,0.625,0.5617,-0.5407,-0.0348,-1,0.4,0.3,0,0.011,-0.007,1023
2018,5,17,21,53,38.156,0.6251,0.5616,-0.5408,-0.035,-0.9,0.4,0.5,-0.005,0.006,0,1023
2018,5,17,21,53,38.193,0.6253,0.5615,-0.5407,-0.035,0,-0.3,0.8,-0.007,-0.003,0.002,1023
2018,5,17,21,53,38.193,0.6253,0.5615,-0.5406,-0.0349,0.3,-0.9,0.5,-0.004,0.004,0,1023
2018,5,17,21,53,38.216,0.6254,0.5616,-0.5405,-0.0349,-0.6,-1,-0.3,-0.001,0.012,-0.009,1023
2018,5,17,21,53,38.235,0.6257,0.5613,-0.5404,-0.0349,-2.1,-0.7,-0.6,0.005,0.017,-0.004,1023
2018,5,17,21,53,38.257,0.6259,0.5611,-0.5403,-0.0351,-3.5,-0.3,-0.6,0.001,0.014,-0.003,1023
2018,5,17,21,53,38.295,0.6264,0.5606,-0.5403,-0.0354,-3.6,0,-0.4,-0.005,0.003,0.005,1023
2018,5,17,21,53,38.318,0.6268,0.5601,-0.5403,-0.0356,-2.4,0,-0.4,-0.011,0,0.008,1023
2018,5,17,21,53,38.322,0.6269,0.56,-0.5403,-0.0356,-0.7,-0.3,-0.5,-0.006,-0.002,0.005,1023
2018,5,17,21,53,38.337,0.627,0.5598,-0.5403,-0.0355,0.4,-0.1,-0.5,-0.006,0,0.002,1023
2018,5,17,21,53,38.36,0.6271,0.5598,-0.5403,-0.0354,0.4,0,-0.5,-0.002,0.008,0.001,1023
2018,5,17,21,53,38.377,0.627,0.5598,-0.5404,-0.0353,0.1,0.3,-0.7,-0.005,0.007,-0.007,1023
2018,5,17,21,53,38.414,0.6269,0.5599,-0.5404,-0.0353,-0.2,0.6,-0.5,-0.004,0.011,0,0
2018,5,17,21,53,38.437,0.6268,0.5599,-0.5405,-0.0354,-0.6,0.4,-0.6,-0.007,0.013,0,0
2018,5,17,21,53,38.441,0.6269,0.5598,-0.5406,-0.0354,-0.5,0.1,-0.4,-0.004,0.003,0.003,0
2018,5,17,21,53,38.458,0.6269,0.5597,-0.5406,-0.0353,0,0,0,-0.006,0.005,0,0
2018,5,17,21,53,38.476,0.6268,0.5599,-0.5405,-0.0353,0.6,-0.2,-0.2,-0.003,0.006,-0.001,0
2018,5,17,21,53,38.499,0.6268,0.5601,-0.5405,-0.0352,0.7,-0.7,0.2,-0.008,0.008,-0.009,0
2018,5,17,21,53,38.535,0.6267,0.5602,-0.5404,-0.0351,0,0,0,-0.004,0.009,-0.01,0
2018,5,17,21,53,38.558,0.6267,0.5601,-0.5404,-0.0351,-1.1,-0.1,-0.4,-0.002,0.012,-0.006,0
2018,5,17,21,53,38.563,0.6269,0.5599,-0.5404,-0.0353,-2.4,0.2,-0.4,-0.009,0.014,-0.005,0
2018,5,17,21,53,38.578,0.6272,0.5596,-0.5404,-0.0355,-2,0.4,0.2,-0.013,0.015,0.008,0
2018,5,17,21,53,38.613,0.6274,0.5594,-0.5403,-0.0357,-0.8,-0.1,0.9,-0.013,0.008,0.012,0
2018,5,17,21,53,38.636,0.6276,0.5594,-0.5401,-0.0356,1.6,-0.6,1.3,-0.015,0.001,0.01,0
2018,5,17,21,53,38.641,0.6266,0.5612,-0.5395,-0.035,3.2,0.1,1,0.006,0.01,-0.01,0
2018,5,17,21,53,38.657,0.6262,0.5616,-0.5394,-0.0349,1.9,0.7,0.4,0.003,0.011,-0.01,1023
2018,5,17,21,53,38.68,0.626,0.5619,-0.5395,-0.035,0.5,1.1,0.1,0,0.015,-0.006,1023
2018,5,17,21,53,38.698,0.6258,0.5621,-0.5395,-0.0352,0.1,0.4,0.5,-0.006,0.009,0,1023
2018,5,17,21,53,38.722,0.6257,0.5623,-0.5394,-0.0352,0.4,-0.3,0.9,-0.007,0.004,0,1023
2018,5,17,21,53,38.758,0.6257,0.5624,-0.5392,-0.0352,0.2,-0.7,0.5,-0.004,0.009,0,1023
2018,5,17,21,53,38.781,0.6259,0.5623,-0.5391,-0.0352,-0.6,-0.6,-0.2,-0.001,0.01,-0.004,1023
2018,5,17,21,53,38.786,0.6261,0.5622,-0.5391,-0.0352,-1.2,-0.1,-0.4,0,0.013,0.001,1023
2018,5,17,21,53,38.803,0.6262,0.5621,-0.539,-0.0354,-1.4,0.2,-0.3,-0.003,0.007,0.006,1023
2018,5,17,21,53,38.82,0.6263,0.5618,-0.5391,-0.0354,-0.7,0.4,-0.4,-0.008,0,0.008,1023
2018,5,17,21,53,38.843,0.6264,0.5616,-0.5392,-0.0353,0.6,0.5,-0.5,-0.011,-0.004,0.011,1023
2018,5,17,21,53,38.864,0.6264,0.5615,-0.5394,-0.035,2.1,0.4,-0.1,-0.01,0,0.008,1023
2018,5,17,21,53,38.879,0.6262,0.5617,-0.5394,-0.0347,2.8,0.4,-0.1,-0.007,0.008,-0.001,1023
2018,5,17,21,53,38.899,0.6258,0.5621,-0.5395,-0.0345,2.7,0.7,-0.1,-0.003,0.009,-0.005,1023
2018,5,17,21,53,38.922,0.6253,0.5625,-0.5396,-0.0344,2.9,1.2,0,-0.006,0.009,-0.003,1023
2018,5,17,21,53,38.941,0.6249,0.5629,-0.5397,-0.0343,2.4,1,-0.1,-0.003,0.01,-0.004,0
2018,5,17,21,53,38.961,0.6246,0.5632,-0.5398,-0.0342,1.9,0.8,0,-0.004,0.008,-0.002,0
2018,5,17,21,53,38.98,0.6243,0.5634,-0.5399,-0.0341,2.2,0.4,0.2,-0.004,0.003,-0.006,0
2018,5,17,21,53,39.003,0.624,0.5638,-0.5399,-0.0339,2.6,0.1,0.5,-0.007,0.003,-0.002,0
2018,5,17,21,53,39.022,0.6237,0.5642,-0.5398,-0.0337,2.1,-0.1,0.3,-0.003,0.008,-0.004,0
2018,5,17,21,53,39.045,0.6234,0.5646,-0.5397,-0.0336,1.1,-0.5,0.3,-0.002,0.006,-0.008,0
2018,5,17,21,53,39.063,0.6233,0.5647,-0.5397,-0.0336,0,0,0,0.002,0.01,-0.005,0
2018,5,17,21,53,39.086,0.6234,0.5647,-0.5396,-0.0336,-0.5,0,0,0,0.006,-0.001,0
2018,5,17,21,53,39.101,0.6235,0.5646,-0.5396,-0.0337,-0.8,0,0.2,-0.005,0.008,0.004,0
2018,5,17,21,53,39.119,0.6236,0.5646,-0.5395,-0.0338,0,0,0,-0.009,0.006,0.004,0
2018,5,17,21,53,39.142,0.6237,0.5645,-0.5395,-0.0337,0.6,-0.6,0.2,-0.011,0.006,0.004,0
2018,5,17,21,53,39.161,0.6237,0.5645,-0.5395,-0.0334,2.1,-0.6,0.3,-0.009,0.002,0,0
2018,5,17,21,53,39.184,0.6235,0.5649,-0.5393,-0.0331,3,-0.7,0.3,-0.005,0.007,-0.006,0
2018,5,17,21,53,39.202,0.6232,0.5653,-0.5392,-0.0328,2.9,-0.6,0.5,-0.002,0.013,-0.007,0
2018,5,17,21,53,39.225,0.6229,0.5657,-0.5391,-0.0326,2.4,0.3,0.3,-0.002,0.011,-0.007,1023
2018,5,17,21,53,39.243,0.6226,0.5661,-0.5391,-0.0325,1.7,0.7,0.2,-0.003,0.012,-0.002,1023
2018,5,17,21,53,39.266,0.6224,0.5663,-0.5392,-0.0325,1.1,0.8,0.3,-0.005,0.012,0,1023
2018,5,17,21,53,39.303,0.6223,0.5664,-0.5392,-0.0325,1.4,0.4,0.9,-0.007,0.004,0.001,1023
2018,5,17,21,53,39.326,0.6221,0.5667,-0.5391,-0.0325,1.9,0.1,1,-0.007,-0.001,0.002,1023
2018,5,17,21,53,39.33,0.6218,0.5671,-0.539,-0.0323,1.6,-0.2,0.2,-0.006,0.007,-0.004,1023
2018,5,17,21,53,39.345,0.6217,0.5673,-0.5389,-0.0322,1,-0.3,-0.2,-0.003,0.013,-0.001,1023
2018,5,17,21,53,39.368,0.6217,0.5674,-0.5388,-0.0321,0.8,-0.3,0,-0.001,0.015,0.001,1023
2018,5,17,21,53,39.385,0.6216,0.5676,-0.5388,-0.032,1,0,0.3,-0.007,0.01,0.002,1023
2018,5,17,21,53,39.421,0.6215,0.5678,-0.5387,-0.0319,2.1,0,0.1,-0.007,0.001,0.003,1023
2018,5,17,21,53,39.442,0.6212,0.568,-0.5387,-0.0316,2.9,-0.1,0.2,-0.005,-0.006,0,1023
2018,5,17,21,53,39.447,0.6202,0.5691,-0.5389,-0.0308,1.6,0.9,-0.8,-0.001,0.009,-0.009,1023
2018,5,17,21,53,39.483,0.6199,0.5692,-0.5391,-0.0307,0.6,0.9,-0.8,-0.002,0.015,-0.006,1023
2018,5,17,21,53,39.506,0.6198,0.5693,-0.5392,-0.0308,0.2,0.6,-0.4,-0.005,0.012,0,0
2018,5,17,21,53,39.51,0.6196,0.5694,-0.5392,-0.0308,0.8,0.4,0.2,-0.007,0.001,0.001,0
2018,5,17,21,53,39.526,0.6195,0.5695,-0.5392,-0.0307,1,0.1,0.1,-0.003,0,-0.004,0
2018,5,17,21,53,39.549,0.6194,0.5695,-0.5393,-0.0306,0,-0.2,-1,-0.003,0.009,-0.012,0
2018,5,17,21,53,39.567,0.6194,0.5695,-0.5394,-0.0305,-1,-0.3,-1.1,-0.002,0.004,-0.011,0
2018,5,17,21,53,39.586,0.6195,0.5693,-0.5394,-0.0305,-1.4,-0.1,-0.7,0,0.003,-0.006,0
2018,5,17,21,53,39.609,0.6196,0.5692,-0.5395,-0.0306,-2,0,-1,-0.002,0.006,-0.001,0
2018,5,17,21,53,39.625,0.6198,0.5689,-0.5395,-0.0307,-3.1,0,-1.2,-0.011,0.008,0.004,0
2018,5,17,21,53,39.646,0.6203,0.5683,-0.5396,-0.0307,-2.6,-0.3,-0.9,-0.013,0.002,0.007,0
2018,5,17,21,53,39.665,0.6207,0.5678,-0.5396,-0.0307,-1.6,-0.7,-0.4,-0.016,0.006,0.005,0
2018,5,17,21,53,39.688,0.621,0.5676,-0.5395,-0.0306,-0.2,-0.8,-0.1,-0.015,0.004,0.005,0
2018,5,17,21,53,39.707,0.621,0.5677,-0.5394,-0.0304,0.9,-0.9,0,-0.004,0.007,-0.005,0
2018,5,17,21,53,39.726,0.6209,0.5679,-0.5393,-0.0303,1,-0.7,0.1,-0.001,0.009,-0.01,0
2018,5,17,21,53,39.749,0.6208,0.5681,-0.5392,-0.0302,0.7,0,0.1,-0.001,0.009,-0.007,0
2018,5,17,21,53,39.784,0.6207,0.5682,-0.5392,-0.0302,-0.4,0.6,0,-0.001,0.01,-0.01,1023
2018,5,17,21,53,39.804,0.6207,0.5682,-0.5392,-0.0304,-1,0.3,-0.1,-0.001,0.012,-0.001,1023
2018,5,17,21,53,39.809,0.6208,0.5681,-0.5392,-0.0306,-1.2,0,0.3,-0.004,0.001,0.001,1023
2018,5,17,21,53,39.827,0.621,0.5679,-0.5392,-0.0306,-0.8,-0.3,0.5,-0.004,0.004,0,1023
2018,5,17,21,53,39.85,0.6212,0.5678,-0.5391,-0.0307,-1.4,-0.6,-0.2,0,0.008,0,1023
2018,5,17,21,53,39.869,0.6214,0.5677,-0.539,-0.0308,-2.4,-0.8,-0.8,0,0.014,-0.003,1023
2018,5,17,21,53,39.889,0.6217,0.5674,-0.5389,-0.031,-2.7,-0.4,-0.5,-0.003,0.016,-0.004,1023
2018,5,17,21,53,39.905,0.622,0.5672,-0.5388,-0.0312,-2.9,-0.2,-0.3,-0.003,0.008,0,1023
2018,5,17,21,53,39.927,0.6224,0.5668,-0.5388,-0.0314,-1.9,-0.2,-0.2,-0.006,0,0.006,1023
2018,5,17,21,53,39.966,0.6226,0.5665,-0.5388,-0.0313,-0.5,-0.2,-0.2,-0.005,0,0.005,1023
2018,5,17,21,53,39.987,0.6227,0.5664,-0.5388,-0.0313,0,0,0,-0.002,0.004,-0.002,1023
2018,5,17,21,53,39.992,0.6227,0.5664,-0.5388,-0.0313,-1,-0.1,-1,-0.001,0.008,-0.003,1023
2018,5,17,21,53,40.028,0.6228,0.5661,-0.5389,-0.0313,-2,0.3,-1.5,-0.004,0.008,-0.003,1023
2018,5,17,21,53,40.028,0.623,0.5658,-0.5391,-0.0315,-2.8,0.6,-1.9,-0.007,0.011,-0.003,0
2018,5,17,21,53,40.051,0.6232,0.5653,-0.5393,-0.0316,-2.1,0.6,-1.2,-0.008,0.005,0.002,0
2018,5,17,21,53,40.069,0.6235,0.5649,-0.5395,-0.0316,-0.7,0.4,-0.5,-0.009,0.002,0.005,0
2018,5,17,21,53,40.092,0.6236,0.5647,-0.5395,-0.0315,0,0,0,-0.01,0.006,0.003,0
2018,5,17,21,53,40.111,0.6236,0.5647,-0.5395,-0.0314,0.5,-0.5,-0.4,-0.004,0.007,-0.003,0
2018,5,17,21,53,40.134,0.6236,0.5647,-0.5395,-0.0314,0,0,0,0,0.008,-0.004,0
2018,5,17,21,53,40.15,0.6238,0.5645,-0.5395,-0.0313,-1,-0.1,-0.2,-0.002,0.006,-0.01,0
2018,5,17,21,53,40.188,0.624,0.5641,-0.5396,-0.0314,-2.2,0,-0.8,-0.001,0.008,-0.004,0
2018,5,17,21,53,40.211,0.6242,0.5639,-0.5396,-0.0315,-2.7,0.1,-0.8,-0.007,0.003,0.002,0
2018,5,17,21,53,40.216,0.6246,0.5635,-0.5397,-0.0316,-2,0,-0.6,-0.012,0.001,0.006,0
2018,5,17,21,53,40.231,0.6248,0.5632,-0.5397,-0.0315,-0.8,-0.6,-0.5,-0.011,0.004,0.004,0
2018,5,17,21,53,40.254,0.6249,0.5631,-0.5397,-0.0314,0.1,-0.9,-0.4,-0.009,0.006,0.005,0
2018,5,17,21,53,40.272,0.6249,0.5632,-0.5395,-0.0312,0.7,-0.9,0,-0.007,0.008,-0.008,0
2018,5,17,21,53,40.291,0.6249,0.5633,-0.5394,-0.0311,0.2,-0.6,0.2,0,0.016,-0.007,0
2018,5,17,21,53,40.314,0.625,0.5634,-0.5394,-0.0311,-0.6,-0.2,0.4,-0.001,0.016,-0.008,0
2018,5,17,21,53,40.351,0.625,0.5633,-0.5393,-0.0313,-1,0,0.3,-0.004,0.016,-0.003,1023
2018,5,17,21,53,40.374,0.6252,0.5632,-0.5392,-0.0315,-1.3,-0.1,0.7,-0.006,0.007,0.001,1023
2018,5,17,21,53,40.379,0.6254,0.5631,-0.5391,-0.0316,-0.9,-0.3,1.1,-0.004,0.001,0,1023
2018,5,17,21,53,40.392,0.6255,0.5632,-0.5389,-0.0317,-1,-0.9,0.9,-0.001,0.005,0,1023
2018,5,17,21,53,40.411,0.6257,0.5632,-0.5386,-0.0319,-2,-1.1,0.2,-0.001,0.014,0,1023
2018,5,17,21,53,40.434,0.626,0.5631,-0.5384,-0.0322,-3,-0.7,0,0.003,0.013,-0.003,1023
2018,5,17,21,53,40.452,0.6264,0.5628,-0.5382,-0.0326,-3.7,-0.3,0.3,0,0.013,0,1023
2018,5,17,21,53,40.471,0.6268,0.5624,-0.5381,-0.0329,-3.5,0,0.2,-0.002,0.005,0.005,1023
2018,5,17,21,53,40.493,0.6271,0.5622,-0.538,-0.0332,-1.8,-0.3,-0.1,-0.005,-0.003,0.009,1023
2018,5,17,21,53,40.532,0.6273,0.562,-0.538,-0.0331,0,0,0,-0.005,0,0.001,1023
2018,5,17,21,53,40.555,0.6273,0.5619,-0.538,-0.0329,0.7,0,-0.7,-0.006,0.003,0,1023
2018,5,17,21,53,40.559,0.6273,0.5619,-0.5381,-0.0327,0.8,0,-1,-0.001,0.008,-0.001,1023
2018,5,17,21,53,40.575,0.6272,0.5619,-0.5382,-0.0326,0.2,0.5,-1.3,-0.004,0.011,-0.006,1023
2018,5,17,21,53,40.593,0.6271,0.5618,-0.5384,-0.0326,-0.3,0.6,-1.3,-0.007,0.013,-0.001,0
2018,5,17,21,53,40.617,0.6272,0.5616,-0.5386,-0.0325,-0.3,0.6,-0.7,-0.008,0.003,-0.001,0
2018,5,17,21,53,40.653,0.6271,0.5615,-0.5387,-0.0324,0.4,0.4,-0.5,-0.009,0.007,0.001,0
2018,5,17,21,53,40.677,0.6271,0.5615,-0.5388,-0.0323,0.9,0,-0.4,-0.005,0.003,0,0
2018,5,17,21,53,40.681,0.6269,0.5617,-0.5388,-0.0322,1.1,-0.1,-0.2,-0.007,0.002,-0.01,0
2018,5,17,21,53,40.694,0.6268,0.5618,-0.5388,-0.0321,-1.3,-0.3,-0.7,0,0.015,-0.006,0
2018,5,17,21,53,40.731,0.627,0.5616,-0.5388,-0.0322,-2.7,-0.2,-1,-0.002,0.013,-0.003,0
2018,5,17,21,53,40.754,0.6274,0.5611,-0.5388,-0.0323,-3.1,-0.3,-0.5,-0.007,0.01,0.001,0
2018,5,17,21,53,40.759,0.6278,0.5608,-0.5387,-0.0325,-2.4,-0.6,-0.1,-0.011,0.004,0.008,0
2018,5,17,21,53,40.774,0.6281,0.5607,-0.5384,-0.0324,0.7,-0.9,0.3,-0.006,0.001,0,0
2018,5,17,21,53,40.797,0.6281,0.5609,-0.5382,-0.0323,0.7,-0.9,0.1,-0.006,0.012,-0.003,0
2018,5,17,21,53,40.815,0.6282,0.5609,-0.5381,-0.0322,0,0,0,-0.002,0.016,-0.005,0
2018,5,17,21,53,40.838,0.6282,0.5609,-0.5381,-0.0322,-0.5,0.3,0.1,-0.008,0.015,-0.001,0
2018,5,17,21,53,40.856,0.6282,0.5609,-0.5381,-0.0324,0,0.7,0.6,-0.011,0.017,-0.005,0
2018,5,17,21,53,40.879,0.6283,0.5608,-0.538,-0.0325,0.8,0.6,1.4,-0.014,0.006,0.007,1023
2018,5,17,21,53,40.895,0.6281,0.5612,-0.5379,-0.0325,2.2,0.4,1.7,-0.006,-0.001,0.006,1023
2018,5,17,21,53,40.913,0.6278,0.5616,-0.5378,-0.0325,3,0.1,1.2,0.002,0.004,-0.001,1023
2018,5,17,21,53,40.935,0.6274,0.5622,-0.5376,-0.0323,2.9,0.4,0.6,0.008,0.008,-0.003,1023
2018,5,17,21,53,40.954,0.6271,0.5626,-0.5376,-0.0323,1.8,0.5,0.2,0.007,0.01,-0.004,1023
2018,5,17,21,53,40.977,0.6269,0.5628,-0.5376,-0.0324,0.3,1.2,-0.1,0.001,0.01,-0.001,1023
2018,5,17,21,53,40.995,0.6267,0.5629,-0.5377,-0.0325,0.2,1.2,-0.3,-0.007,0.006,0,1023
2018,5,17,21,53,41.018,0.6265,0.5629,-0.5379,-0.0325,1,0.9,-0.2,-0.01,0,0.003,1023
2018,5,17,21,53,41.036,0.6264,0.563,-0.538,-0.0323,2,0.6,-0.1,-0.01,0.008,0.004,1023
2018,5,17,21,53,41.059,0.6262,0.5632,-0.538,-0.0321,2.2,0.1,0,-0.005,0.014,0,1023
2018,5,17,21,53,41.08,0.626,0.5634,-0.538,-0.0319,1.6,0.2,0,-0.002,0.012,-0.003,1023
2018,5,17,21,53,41.098,0.6259,0.5635,-0.5381,-0.0319,1,0.5,-0.1,-0.005,0.011,-0.002,0
2018,5,17,21,53,41.121,0.6257,0.5636,-0.5381,-0.0319,0.5,0.6,0,-0.004,0.006,0,0
2018,5,17,21,53,41.139,0.6254,0.5639,-0.5382,-0.0317,1.8,0.4,0.2,-0.009,0,0.002,0
2018,5,17,21,53,41.162,0.6253,0.5639,-0.5383,-0.0315,2.1,-0.1,-0.1,-0.009,0.007,-0.005,0
2018,5,17,21,53,41.178,0.625,0.5643,-0.5383,-0.0313,1.6,0,0.2,-0.003,0.006,-0.003,0
2018,5,17,21,53,41.212,0.6248,0.5645,-0.5383,-0.0313,1.1,0.3,0.1,0.001,0.01,-0.002,0
2018,5,17,21,53,41.233,0.6247,0.5646,-0.5383,-0.0313,0.4,0.7,0,-0.003,0.011,0,0
2018,5,17,21,53,41.237,0.6248,0.5645,-0.5384,-0.0313,0.2,0.5,0,-0.008,0.004,0.001,0
2018,5,17,21,53,41.277,0.6247,0.5647,-0.5383,-0.0312,1,0.3,0.2,-0.011,0.003,0.001,0
2018,5,17,21,53,41.3,0.6246,0.5648,-0.5383,-0.031,2.3,-0.1,0.3,-0.011,0.003,0.004,0
2018,5,17,21,53,41.305,0.6244,0.565,-0.5383,-0.0307,2.9,-0.4,0.5,-0.005,0.002,0.002,0
2018,5,17,21,53,41.32,0.6241,0.5655,-0.5382,-0.0305,2.9,-0.4,0.7,-0.004,0.011,-0.008,0
2018,5,17,21,53,41.343,0.6236,0.5663,-0.5379,-0.0303,1.3,0.4,0.8,0,0.014,-0.003,0
2018,5,17,21,53,41.377,0.6234,0.5665,-0.5379,-0.0304,0.8,0.7,0.6,-0.001,0.013,-0.004,0
2018,5,17,21,53,41.377,0.6233,0.5666,-0.5379,-0.0305,0.6,0.7,0.9,-0.002,0.002,-0.005,0
2018,5,17,21,53,41.4,0.6231,0.5669,-0.5378,-0.0306,0.9,0.4,1.3,-0.008,0.002,0,0
2018,5,17,21,53,41.421,0.623,0.5671,-0.5378,-0.0306,0.8,0,0.8,-0.008,0.006,0.001,1023
2018,5,17,21,53,41.438,0.623,0.5671,-0.5377,-0.0305,0,0,0,-0.002,0.012,-0.003,1023
2018,5,17,21,53,41.461,0.6231,0.5671,-0.5376,-0.0306,0,0,0,-0.001,0.015,-0.003,1023
2018,5,17,21,53,41.48,0.6231,0.5671,-0.5376,-0.0306,-0.2,0,0.5,-0.002,0.007,-0.001,1023
2018,5,17,21,53,41.503,0.6231,0.5671,-0.5375,-0.0306,0,0,0,-0.005,0,0.002,1023
2018,5,17,21,53,41.52,0.623,0.5673,-0.5375,-0.0306,1.1,0.5,0.2,-0.01,-0.003,0.004,1023
2018,5,17,21,53,41.543,0.6228,0.5676,-0.5375,-0.0304,2.4,0,0.1,-0.007,0.001,0.004,1023
2018,5,17,21,53,41.582,0.6224,0.568,-0.5375,-0.0302,2.8,0.2,0,-0.006,0.008,-0.001,1023
2018,5,17,21,53,41.584,0.6221,0.5683,-0.5375,-0.0299,2.9,0.6,-0.1,-0.003,0.009,-0.004,1023
2018,5,17,21,53,41.62,0.6217,0.5687,-0.5376,-0.0298,2.4,0.9,-0.2,-0.001,0.014,-0.004,1023
2018,5,17,21,53,41.642,0.6214,0.5689,-0.5377,-0.0297,1.9,1,-0.2,-0.004,0.014,0,1023
2018,5,17,21,53,41.646,0.6212,0.569,-0.5378,-0.0296,2.5,0.6,0.3,-0.004,0.002,0,1023
2018,5,17,21,53,41.663,0.6208,0.5695,-0.5378,-0.0293,3.8,0.2,0.6,-0.004,0.002,0,0
2018,5,17,21,53,41.686,0.6204,0.57,-0.5378,-0.029,3.8,-0.1,-0.1,-0.003,0.004,-0.003,0
2018,5,17,21,53,41.703,0.62,0.5704,-0.5378,-0.0285,3.3,-0.6,-0.2,-0.001,0.001,-0.011,0
2018,5,17,21,53,41.721,0.6197,0.5708,-0.5378,-0.0282,1.9,-0.3,-0.2,0.003,0.009,-0.012,0
2018,5,17,21,53,41.744,0.6196,0.5709,-0.5378,-0.0281,-0.4,-0.1,-0.8,0,0.009,-0.009,0
2018,5,17,21,53,41.763,0.6197,0.5707,-0.5379,-0.0282,-2.7,0,-1.1,-0.005,0.01,-0.007,0
2018,5,17,21,53,41.786,0.6201,0.5702,-0.538,-0.0283,-3.4,0,-1.2,-0.009,0.002,0,0
2018,5,17,21,53,41.804,0.6205,0.5696,-0.5381,-0.0284,-2.8,-0.3,-0.8,-0.013,0.001,0.008,0
2018,5,17,21,53,41.827,0.6208,0.5693,-0.5381,-0.0284,-1.1,-0.6,-0.7,-0.011,0.002,0.003,0
2018,5,17,21,53,41.843,0.621,0.5691,-0.5381,-0.0282,-0.2,-1.1,-0.2,-0.007,0.008,0.002,0
2018,5,17,21,53,41.866,0.6212,0.569,-0.538,-0.028,0.5,-0.8,0,-0.009,0.011,-0.005,0
2018,5,17,21,53,41.882,0.6213,0.569,-0.5379,-0.0279,0.2,-0.5,0.3,-0.008,0.009,-0.005,0
2018,5,17,21,53,41.901,0.6213,0.5689,-0.5379,-0.0279,0,0,0,-0.006,0.01,-0.004,0
2018,5,17,21,53,41.924,0.6213,0.5689,-0.5379,-0.0279,1.6,0.6,1.4,-0.014,0.005,0.001,1023
2018,5,17,21,53,41.942,0.621,0.5693,-0.5378,-0.0279,2.7,0.3,2.1,-0.011,0.006,0.003,1023
2018,5,17,21,53,41.964,0.6208,0.5697,-0.5376,-0.0277,2.9,-0.1,1.7,-0.006,0.007,-0.006,1023
2018,5,17,21,53,41.982,0.6206,0.5702,-0.5375,-0.0276,2.4,-0.3,1.1,0.003,0.005,-0.009,1023
2018,5,17,21,53,42.005,0.6204,0.5705,-0.5373,-0.0276,2,-0.1,1,0.005,0.005,-0.009,1023
2018,5,17,21,53,42.043,0.6202,0.5708,-0.5373,-0.0275,1.5,0.3,0.5,0.001,0.006,-0.006,1023
2018,5,17,21,53,42.066,0.6199,0.5711,-0.5373,-0.0275,1,0.5,-0.4,0.001,0.009,-0.004,1023
2018,5,17,21,53,42.071,0.6197,0.5713,-0.5373,-0.0275,0.5,0.3,-0.7,0.003,0.009,0,1023
2018,5,17,21,53,42.09,0.6196,0.5713,-0.5374,-0.0275,-0.2,0,-0.9,0.001,0.013,-0.006,1023
2018,5,17,21,53,42.106,0.6197,0.5712,-0.5374,-0.0275,-0.9,-0.3,-0.5,0,0.014,0,1023
2018,5,17,21,53,42.129,0.6199,0.5709,-0.5374,-0.0276,-2.2,-0.1,-0.7,-0.002,0.017,-0.002,1023
2018,5,17,21,53,42.15,0.6202,0.5705,-0.5374,-0.0278,-2.7,-0.1,-1,-0.009,0.016,-0.002,1023
2018,5,17,21,53,42.167,0.6205,0.5703,-0.5374,-0.028,-2.7,-0.3,-0.3,-0.011,0.004,0.003,1023
2018,5,17,21,53,42.19,0.6208,0.57,-0.5374,-0.028,-1.6,-0.4,0.2,-0.014,-0.001,0.005,0
2018,5,17,21,53,42.206,0.621,0.5698,-0.5372,-0.028,-1.1,-0.6,-0.2,-0.015,0.002,-0.004,0
2018,5,17,21,53,42.224,0.6212,0.5697,-0.5372,-0.028,-0.8,-0.5,-0.2,-0.007,0.004,0.001,0
2018,5,17,21,53,42.247,0.6214,0.5695,-0.5372,-0.0279,-0.6,0.1,0,-0.002,0.006,0.004,0
2018,5,17,21,53,42.265,0.6214,0.5695,-0.5372,-0.028,0,0.7,0.2,0.002,0.002,-0.001,0
2018,5,17,21,53,42.288,0.6213,0.5695,-0.5372,-0.0282,-0.5,1.2,-0.4,-0.002,0.011,-0.001,0
2018,5,17,21,53,42.307,0.6213,0.5694,-0.5374,-0.0283,-1.3,1,-0.8,-0.008,0.007,0.004,0
2018,5,17,21,53,42.33,0.6214,0.5691,-0.5375,-0.0283,-0.2,0.6,-0.4,-0.01,0.003,0.009,0
2018,5,17,21,53,42.348,0.6213,0.5692,-0.5375,-0.0282,1.9,0,-0.1,-0.007,0.004,0.002,0
2018,5,17,21,53,42.371,0.6212,0.5694,-0.5375,-0.0279,3.2,-0.6,0,-0.003,0.007,-0.006,0
2018,5,17,21,53,42.39,0.6209,0.5698,-0.5375,-0.0275,2.6,-0.7,0,0.001,0.013,-0.008,0
2018,5,17,21,53,42.406,0.6207,0.5701,-0.5375,-0.0273,0.9,-0.3,-0.4,0.001,0.015,-0.014,0
2018,5,17,21,53,42.443,0.6206,0.5701,-0.5375,-0.0274,-1.2,0.4,-0.5,0.003,0.016,-0.012,0
2018,5,17,21,53,42.465,0.6207,0.5698,-0.5376,-0.0276,-2.5,0.7,-0.7,-0.002,0.015,-0.009,0
2018,5,17,21,53,42.47,0.6209,0.5695,-0.5377,-0.0279,-2.3,0.6,-0.2,-0.005,0.005,-0.001,1023
2018,5,17,21,53,42.488,0.6211,0.5693,-0.5378,-0.0281,-0.9,0.1,0.3,-0.006,0.003,0,1023
2018,5,17,21,53,42.524,0.6212,0.5693,-0.5376,-0.0281,0,-0.7,0,-0.005,0.012,0.002,1023
2018,5,17,21,53,42.547,0.6212,0.5694,-0.5375,-0.0281,-0.4,-0.9,-0.2,-0.002,0.01,0,1023
2018,5,17,21,53,42.552,0.6213,0.5695,-0.5374,-0.0281,-0.6,-0.4,-0.2,-0.001,0.013,0.002,1023
2018,5,17,21,53,42.568,0.6214,0.5694,-0.5373,-0.0282,-0.8,0,-0.1,-0.003,0.009,0.004,1023
2018,5,17,21,53,42.589,0.6215,0.5693,-0.5373,-0.0282,0,0,0,-0.007,0,0.007,1023
2018,5,17,21,53,42.626,0.6215,0.5693,-0.5373,-0.0281,0.8,0.3,-0.5,-0.011,-0.003,0.006,1023
2018,5,17,21,53,42.65,0.6214,0.5693,-0.5374,-0.0279,1.1,0.1,-0.5,-0.006,0.003,0.002,1023
2018,5,17,21,53,42.656,0.6214,0.5692,-0.5375,-0.0276,1.4,0.1,-0.5,-0.008,0.004,-0.001,1023
2018,5,17,21,53,42.671,0.6212,0.5693,-0.5376,-0.0275,0.8,0.5,-1,-0.005,0.011,-0.002,1023
2018,5,17,21,53,42.695,0.6211,0.5694,-0.5378,-0.0274,0.1,0.7,-1.1,-0.005,0.014,-0.002,1023
2018,5,17,21,53,42.711,0.6211,0.5692,-0.5379,-0.0273,0,0,0,-0.009,0.004,0,1023
2018,5,17,21,53,42.731,0.6211,0.5692,-0.5379,-0.0273,0,0,0,-0.001,0.006,-0.001,0
2018,5,17,21,53,42.749,0.6211,0.5692,-0.5379,-0.0273,0,0,0,0,0.001,-0.001,0
2018,5,17,21,53,42.771,0.621,0.5692,-0.5379,-0.0272,0.7,-0.2,-0.3,-0.004,0.001,-0.009,0
2018,5,17,21,53,42.809,0.6209,0.5694,-0.5379,-0.0271,0.5,0,-0.2,0,0.004,-0.006,0
2018,5,17,21,53,42.83,0.6209,0.5694,-0.538,-0.0271,-0.4,0,-0.5,-0.003,0.007,-0.003,0
2018,5,17,21,53,42.834,0.621,0.5692,-0.538,-0.0271,-1.6,0,-1,-0.004,0.012,-0.005,0
2018,5,17,21,53,42.854,0.6213,0.5688,-0.5381,-0.0271,-1.8,0,-0.6,-0.007,0.008,-0.002,0
2018,5,17,21,53,42.891,0.6215,0.5686,-0.5381,-0.0272,-1.5,-0.4,-0.2,-0.012,0.005,0.004,0
2018,5,17,21,53,42.891,0.6217,0.5685,-0.538,-0.0272,0,-0.9,0.1,-0.006,0,-0.002,0
2018,5,17,21,53,42.913,0.6217,0.5687,-0.5378,-0.027,1,-1.2,0.4,-0.002,0.006,-0.005,0
2018,5,17,21,53,42.93,0.6217,0.5687,-0.5377,-0.0268,0.1,-0.9,0.4,0,0.01,-0.009,0
2018,5,17,21,53,42.953,0.6218,0.5688,-0.5376,-0.0269,-1.4,-0.5,0,0.004,0.012,-0.014,0
2018,5,17,21,53,42.971,0.6219,0.5687,-0.5375,-0.0271,-2.5,0,0,-0.001,0.009,-0.003,1023
2018,5,17,21,53,42.994,0.6222,0.5683,-0.5375,-0.0274,-3.3,0.3,-0.2,-0.007,0.011,0,1023
2018,5,17,21,53,43.013,0.6225,0.568,-0.5375,-0.0278,-3,0.1,0,-0.011,0.005,0.002,1023
2018,5,17,21,53,43.03,0.6228,0.5677,-0.5374,-0.0279,-1.9,-0.6,0.2,-0.01,0.001,0.003,1023
2018,5,17,21,53,43.053,0.6231,0.5675,-0.5373,-0.028,-1.5,-0.7,0,-0.004,0.005,0.002,1023
2018,5,17,21,53,43.072,0.6233,0.5674,-0.5372,-0.0281,-1.7,-0.9,-0.5,-0.001,0.008,0.001,1023
2018,5,17,21,53,43.092,0.6236,0.5671,-0.5371,-0.0282,-1.9,-0.4,-0.7,0,0.012,0,1023
2018,5,17,21,53,43.113,0.6238,0.5669,-0.5371,-0.0283,-2.4,0.1,-0.8,0,0.009,-0.002,1023
2018,5,17,21,53,43.134,0.624,0.5666,-0.5372,-0.0285,-2,0.6,-1,-0.005,0.004,0.003,1023
2018,5,17,21,53,43.171,0.6242,0.5662,-0.5374,-0.0285,-1,0.6,-0.8,-0.007,0,0.006,1023
2018,5,17,21,53,43.194,0.6243,0.5661,-0.5375,-0.0285,0,0,-0.8,-0.008,0.001,0.004,1023
2018,5,17,21,53,43.198,0.6242,0.5661,-0.5375,-0.0284,0.3,0,-0.9,-0.002,0.007,0.003,1023
2018,5,17,21,53,43.233,0.6242,0.5661,-0.5376,-0.0283,0,0.1,-1.1,-0.003,0.015,-0.002,1023
2018,5,17,21,53,43.233,0.6242,0.566,-0.5377,-0.0283,-0.6,0.3,-1.1,0,0.009,0.001,0
2018,5,17,21,53,43.256,0.6242,0.5658,-0.5378,-0.0283,-0.8,0.6,-0.7,-0.003,0.005,-0.003,0
2018,5,17,21,53,43.293,0.6243,0.5657,-0.5379,-0.0283,-0.3,0.3,-0.5,-0.009,0.003,0.002,0
2018,5,17,21,53,43.316,0.6242,0.5657,-0.5379,-0.0282,0,0,0,-0.006,0.008,-0.008,0
2018,5,17,21,53,43.32,0.6243,0.5657,-0.5379,-0.0282,0,0,0,-0.005,0.006,-0.005,0
2018,5,17,21,53,43.334,0.6243,0.5656,-0.5379,-0.0281,-0.3,-0.6,0,-0.001,0.007,-0.001,0
2018,5,17,21,53,43.357,0.6243,0.5657,-0.5378,-0.0282,-1.7,-0.4,-0.5,0,0.011,-0.006,0
2018,5,17,21,53,43.393,0.6246,0.5654,-0.5378,-0.0284,-3.4,-0.4,-0.8,-0.004,0.011,0,0
2018,5,17,21,53,43.417,0.625,0.5649,-0.5378,-0.0286,-3.6,-0.4,-0.6,-0.011,0.01,0.005,0
2018,5,17,21,53,43.421,0.6255,0.5644,-0.5377,-0.0288,-3.1,-0.4,-0.4,-0.011,0.001,0.008,0
2018,5,17,21,53,43.437,0.6259,0.5641,-0.5377,-0.0289,-1.4,-0.8,-0.2,-0.009,0,0.012,0
2018,5,17,21,53,43.46,0.626,0.5641,-0.5375,-0.0288,0.2,-0.8,0.1,-0.007,0.003,0,0
2018,5,17,21,53,43.476,0.6261,0.5641,-0.5374,-0.0287,0.4,-0.7,0.2,-0.005,0.014,-0.001,1023
2018,5,17,21,53,43.495,0.6262,0.5641,-0.5373,-0.0286,0,0,0,-0.002,0.014,-0.004,1023
2018,5,17,21,53,43.518,0.6262,0.5641,-0.5373,-0.0287,-0.6,0.1,0.2,-0.006,0.012,-0.003,1023
2018,5,17,21,53,43.536,0.6262,0.5642,-0.5372,-0.0288,-0.7,0.1,0.5,-0.007,0.004,-0.001,1023
2018,5,17,21,53,43.559,0.6262,0.5642,-0.5371,-0.0289,0.2,0,0.7,-0.007,0,-0.003,1023
2018,5,17,21,53,43.577,0.6262,0.5644,-0.537,-0.0289,0.1,-0.4,0.5,-0.003,0.007,0,1023
2018,5,17,21,53,43.6,0.6262,0.5644,-0.537,-0.0289,-0.6,-0.6,-0.2,-0.002,0.011,-0.004,1023
2018,5,17,21,53,43.636,0.6264,0.5643,-0.5369,-0.029,-1.9,-0.2,-0.4,0.001,0.014,-0.003,1023
2018,5,17,21,53,43.659,0.6265,0.5642,-0.5368,-0.0293,-2.6,0,-0.2,0,0.012,0,1023
2018,5,17,21,53,43.664,0.6269,0.5638,-0.5368,-0.0295,-2.3,0.1,-0.2,-0.007,0.002,0.004,1023
2018,5,17,21,53,43.68,0.6271,0.5635,-0.5368,-0.0296,-1,0,-0.3,-0.007,0.001,0.003,1023
2018,5,17,21,53,43.698,0.6273,0.5633,-0.5369,-0.0295,0,-0.1,-0.7,-0.005,0.005,0.002,1023
2018,5,17,21,53,43.721,0.6273,0.5633,-0.5369,-0.0294,0.7,0,-0.5,-0.001,0.004,0.001,1023
2018,5,17,21,53,43.74,0.6272,0.5633,-0.5369,-0.0293,0.5,0.3,-0.5,-0.004,0.006,0,1023
2018,5,17,21,53,43.763,0.6272,0.5632,-0.537,-0.0292,0,0.4,-0.6,-0.003,0.013,-0.003,1023
2018,5,17,21,53,43.779,0.6272,0.5631,-0.5371,-0.0292,0,0,0,-0.008,0.002,0.002,1023
2018,5,17,21,53,43.797,0.6273,0.563,-0.5372,-0.029,1.3,0.3,0.1,-0.008,0.003,0,1023
2018,5,17,21,53,43.821,0.6271,0.5631,-0.5372,-0.0289,1.8,0,-0.1,-0.008,0.004,0,1023
2018,5,17,21,53,43.838,0.627,0.5633,-0.5372,-0.0286,1.8,-0.6,0.3,-0.009,0.003,0.002,1023
2018,5,17,21,53,43.861,0.6268,0.5636,-0.5371,-0.0284,1,-0.7,0.2,-0.004,0.011,-0.01,1023
2018,5,17,21,53,43.88,0.6269,0.5635,-0.5371,-0.0283,-0.8,-0.5,-0.4,-0.001,0.013,-0.01,1023
2018,5,17,21,53,43.902,0.627,0.5635,-0.537,-0.0285,-2.5,0,-0.5,-0.003,0.013,-0.008,1023
2018,5,17,21,53,43.938,0.6273,0.5631,-0.5371,-0.0287,-3,0,-0.2,-0.006,0.014,0,1023
2018,5,17,21,53,43.961,0.6276,0.5628,-0.537,-0.029,-2.8,-0.1,0,-0.01,0.008,0.01,0
2018,5,17,21,53,43.966,0.6279,0.5626,-0.5369,-0.0292,-1.4,-0.4,0.1,-0.008,-0.003,0.003,0
2018,5,17,21,53,43.982,0.6279,0.5627,-0.5368,-0.0291,1.1,-0.7,0.5,-0.007,0,0.004,0
2018,5,17,21,53,44.003,0.6278,0.5629,-0.5366,-0.029,1.8,-0.7,0.6,-0.005,0.006,-0.002,0
2018,5,17,21,53,44.042,0.6276,0.5634,-0.5364,-0.0289,1,-0.5,0.3,-0.004,0.016,-0.002,0
2018,5,17,21,53,44.042,0.6275,0.5635,-0.5363,-0.0289,0,0,0,-0.001,0.015,-0.008,0
2018,5,17,21,53,44.063,0.6275,0.5636,-0.5363,-0.0291,-1.3,0.8,0.2,-0.005,0.02,-0.005,0
2018,5,17,21,53,44.08,0.6275,0.5636,-0.5363,-0.0296,-2.4,1.9,0.9,-0.003,0.026,-0.008,0
2018,5,17,21,53,44.102,0.6275,0.5634,-0.5364,-0.0304,-4.8,3.3,1,0.012,0.03,-0.015,0
2018,5,17,21,53,44.138,0.6276,0.5628,-0.5368,-0.0317,-8.4,5.9,-1.8,0.044,0.024,-0.016,0
2018,5,17,21,53,44.162,0.6277,0.5616,-0.5379,-0.0333,-11.1,10.1,-7.9,0.075,0.027,-0.01,0
2018,5,17,21,53,44.166,0.6277,0.5595,-0.5399,-0.035,-11.7,14.1,-14.7,0.093,0.006,0.016,0
2018,5,17,21,53,44.183,0.6274,0.5569,-0.5429,-0.0361,-6.9,18.1,-20.8,0.1,-0.003,0.039,0
2018,5,17,21,53,44.205,0.6262,0.5544,-0.5468,-0.0364,0,20.9,-26.4,0.09,0.001,0.05,0
2018,5,17,21,53,44.223,0.6243,0.5518,-0.5516,-0.0355,5.5,22,-31.6,0.065,-0.001,0.058,0
2018,5,17,21,53,44.246,0.6221,0.5492,-0.5568,-0.0335,9.1,21.2,-36.6,0.062,0.017,0.057,0
2018,5,17,21,53,44.262,0.6198,0.5463,-0.5625,-0.0307,9.9,20.6,-43.6,0.074,0.056,0.058,0
2018,5,17,21,53,44.3,0.6174,0.5424,-0.569,-0.0267,8.8,19.1,-52.9,0.106,0.127,0.061,0
2018,5,17,21,53,44.322,0.615,0.5374,-0.5765,-0.0215,7.2,17.8,-61.8,0.117,0.143,0.066,0
2018,5,17,21,53,44.325,0.6127,0.5315,-0.5846,-0.0152,8.6,18.5,-69,0.171,0.128,0.071,0
2018,5,17,21,53,44.343,0.6102,0.5248,-0.5933,-0.0086,4.1,20.9,-73,0.215,0.135,0.135,0
2018,5,17,21,53,44.366,0.6081,0.517,-0.6023,-0.0029,-8.3,21.1,-75.1,0.195,0.149,0.251,0
2018,5,17,21,53,44.403,0.6078,0.5065,-0.6114,0.0013,-32.1,18.5,-83,0.241,0.052,0.252,0
2018,5,17,21,53,44.403,0.6088,0.4938,-0.6208,0.0051,-33.7,17.4,-89.5,0.288,-0.057,0.262,0
2018,5,17,21,53,44.426,0.603,0.4638,-0.6481,0.0336,63.8,-2.8,-89.4,0.12,0.137,0.503,0
2018,5,17,21,53,44.464,0.5932,0.4642,-0.6533,0.0752,97,-54.6,-70.5,0.156,0.247,0.432,0
2018,5,17,21,53,44.464,0.5927,0.4651,-0.6502,0.097,78.1,-76.5,-52.2,0.105,0.267,0.464,0
2018,5,17,21,53,44.487,0.5965,0.4661,-0.6428,0.1164,63.8,-103.2,-28.5,0.045,0.201,0.419,0
2018,5,17,21,53,44.504,0.6049,0.4674,-0.6305,0.1341,45.7,-133.1,-8.3,0.077,0.179,0.271,0
2018,5,17,21,53,44.522,0.6184,0.4661,-0.6148,0.1493,4.9,-154.2,-3.9,0.117,0.11,0.099,0
2018,5,17,21,53,44.545,0.6371,0.4587,-0.5982,0.1602,-47.8,-162.1,-9,0.128,-0.005,0.001,0
2018,5,17,21,53,44.563,0.6823,0.4254,-0.5695,0.1701,-115.1,-154.6,-20.1,-0.03,-0.224,-0.142,1023
2018,5,17,21,53,44.586,0.7045,0.405,-0.5566,0.1726,-107.5,-142.6,-25.6,0.006,-0.298,-0.192,1023
2018,5,17,21,53,44.604,0.7234,0.3855,-0.5449,0.176,-90.8,-125.7,-32.7,0.02,-0.335,-0.206,1023
2018,5,17,21,53,44.627,0.7384,0.368,-0.5352,0.1806,-72.8,-104.4,-41,0.055,-0.367,-0.26,1023
2018,5,17,21,53,44.647,0.7492,0.3532,-0.528,0.1872,-39.2,-82.2,-50.1,0.042,-0.345,-0.157,1023
2018,5,17,21,53,44.67,0.7555,0.3434,-0.5219,0.1969,1.2,-69.7,-52.7,0.07,-0.338,-0.129,1023
2018,5,17,21,53,44.688,0.7581,0.3383,-0.5165,0.2097,29.1,-52.3,-62.2,0.229,-0.305,-0.114,1023
2018,5,17,21,53,44.706,0.7569,0.3355,-0.5137,0.2248,45.4,-32.8,-76.1,0.359,-0.158,0.02,1023
2018,5,17,21,53,44.729,0.7532,0.3344,-0.5123,0.2413,58.9,-26.3,-74.3,0.438,-0.004,0.13,1023
2018,5,17,21,53,44.745,0.7488,0.3354,-0.5102,0.2575,65,-26.4,-64.4,0.639,0.104,0.006,1023
2018,5,17,21,53,44.763,0.7446,0.3368,-0.5078,0.2722,53.4,-17,-56.6,1.04,0.247,-0.033,1023
2018,5,17,21,53,44.787,0.7397,0.3393,-0.507,0.2838,65.4,-0.2,-37.4,0.754,-0.259,0.073,1023
2018,5,17,21,53,44.805,0.7334,0.3483,-0.5042,0.294,95.6,-0.6,-7.4,0.374,-0.22,0.103,1023
2018,5,17,21,53,44.829,0.7278,0.3602,-0.4991,0.3022,88.3,0,3.9,0.707,-0.01,0.063,1023
2018,5,17,21,53,44.847,0.7226,0.3716,-0.4941,0.309,85.7,-3.6,6.7,0.644,-0.456,0.189,1023
2018,5,17,21,53,44.87,0.7177,0.3824,-0.4878,0.317,92,-17.9,-5.7,0.167,-0.932,0.096,1023
2018,5,17,21,53,44.888,0.7129,0.3917,-0.4788,0.3299,113.5,-53.1,-25.1,-0.141,-1.139,0.211,1023
2018,5,17,21,53,44.911,0.7085,0.4004,-0.4647,0.3486,124.9,-81.1,-25.1,0.237,-0.787,0.213,1023
2018,5,17,21,53,44.93,0.7071,0.4043,-0.45,0.3658,48.1,-90.8,-34.7,-0.025,-0.844,-0.37,1023
2018,5,17,21,53,44.947,0.7118,0.3905,-0.4452,0.3773,-99.4,-81.7,-90.1,-0.236,-1.059,-0.992,1023
2018,5,17,21,53,44.971,0.7175,0.361,-0.455,0.3842,-137.3,-17.3,-125.7,-0.015,-1.209,-1.182,0
2018,5,17,21,53,45.007,0.7077,0.3483,-0.4733,0.3919,93.3,207.1,-174.8,-2.641,-2.278,-5.545,0
2018,5,17,21,53,45.03,0.6992,0.3487,-0.4714,0.4089,-115.5,-285.6,61.1,-9.449,4.488,2.684,0
2018,5,17,21,53,45.035,0.7569,0.2685,-0.4201,0.4223,-189.1,-421.5,-75.5,3.506,-0.619,-2.111,0
2018,5,17,21,53,45.049,0.7581,0.2217,-0.4061,0.4593,-63.6,-155.4,-272.6,0.006,-1.215,0.776,0
2018,5,17,21,53,45.068,0.7442,0.2017,-0.3999,0.4953,86.7,-82.3,-200,0.004,-0.649,-0.337,0
2018,5,17,21,53,45.09,0.7274,0.1919,-0.3877,0.5325,83.7,-73.1,-220.6,-0.028,-0.196,0.41,0
2018,5,17,21,53,45.123,0.7077,0.1781,-0.3818,0.567,14.9,-69.8,-241.3,-0.327,0.228,0.27,1023
2018,5,17,21,53,45.146,0.686,0.1485,-0.3779,0.6036,-9.9,-171.4,-282.9,2.744,0.248,2.007,1023
2018,5,17,21,53,45.151,0.6685,0.1074,-0.36,0.6417,33.9,-237.5,-310.5,1.741,-0.756,0.798,1023
2018,5,17,21,53,45.187,0.6479,0.0618,-0.3269,0.6851,21.1,-304.7,-328.9,1.099,-0.131,0.579,1023
2018,5,17,21,53,45.207,0.6235,-0.0053,-0.3041,0.7201,-211.8,-321.1,-351.4,0.676,0.788,1.199,1023
2018,5,17,21,53,45.212,0.5839,-0.1015,-0.3229,0.7377,-568.5,-162,-433.6,-0.474,0.523,0.385,1023
2018,5,17,21,53,45.25,0.5211,-0.178,-0.4003,0.7324,-578.1,179.8,-330.3,-6.21,0.413,-1.123,1023
2018,5,17,21,53,45.272,0.4581,-0.2144,-0.4491,0.7364,-131.1,110.4,-214,0.434,-1.378,-0.815,1023
2018,5,17,21,53,45.276,0.4238,-0.2055,-0.4564,0.7548,63,226.3,-121.5,1.402,0.219,-0.037,1023
2018,5,17,21,53,45.294,0.3936,-0.1707,-0.4581,0.7784,169.6,280.5,-90.1,0.343,0.277,0.301,1023
2018,5,17,21,53,45.315,0.3657,-0.1254,-0.4446,0.8079,256.2,270.9,-79,0.278,0.1,0.423,1023
2018,5,17,21,53,45.331,0.3349,-0.0796,-0.421,0.8391,230.7,247.9,-126.9,0.921,0.736,0.78,1023
2018,5,17,21,53,45.349,0.3044,-0.0466,-0.4036,0.8615,144.1,174.2,-108.9,0.533,0.631,0.749,0
2018,5,17,21,53,45.372,0.2836,-0.0255,-0.3927,0.8744,112.1,102.3,-45.4,0.019,-0.351,-0.171,0
2018,5,17,21,53,45.409,0.2706,-0.0085,-0.3841,0.8826,48,106.2,-47,-0.147,-0.433,-0.427,0
2018,5,17,21,53,45.409,0.2536,0.0063,-0.3826,0.8883,77.1,112.9,-76.8,-0.167,-1.102,-0.847,0
2018,5,17,21,53,45.431,0.2328,0.024,-0.3661,0.9006,181.5,114.8,-83.2,0.073,-0.939,-0.919,0
2018,5,17,21,53,45.47,0.2103,0.0464,-0.3392,0.9157,221.4,120.4,-79.1,-0.14,-0.222,0.116,0
2018,5,17,21,53,45.491,0.1946,0.0637,-0.3072,0.9293,194.4,42.1,-38.7,-0.329,0.707,-0.004,0
2018,5,17,21,53,45.494,0.1849,0.072,-0.2902,0.9361,41.8,42.5,-46.7,-0.275,0.338,0.096,0
2018,5,17,21,53,45.531,0.1756,0.0761,-0.2897,0.9377,2.5,31.7,-39,-0.021,0.089,0.001,0
2018,5,17,21,53,45.552,0.17,0.0801,-0.2862,0.9395,68.8,18.2,-7.2,-0.075,-0.245,-0.099,0
2018,5,17,21,53,45.557,0.1697,0.0842,-0.2701,0.9439,119.4,-4.1,20.6,0.018,-0.084,-0.037,0
2018,5,17,21,53,45.572,0.1728,0.0876,-0.2515,0.9482,82.1,-7.6,27.7,0.041,0.21,0.049,0
2018,5,17,21,53,45.594,0.1772,0.0888,-0.2425,0.9496,27,-11.2,30.6,0.097,0.136,0.081,0
2018,5,17,21,53,45.612,0.1831,0.0885,-0.2396,0.9492,0.3,-12.3,35.2,0.148,0.009,0.008,0
2018,5,17,21,53,45.635,0.1899,0.0876,-0.2387,0.9483,4.4,-16.8,40,0.073,-0.279,-0.136,0
2018,5,17,21,53,45.656,0.1975,0.0868,-0.2341,0.9479,33.9,-22.3,46.2,0.057,-0.308,-0.136,0
2018,5,17,21,53,45.673,0.2053,0.0867,-0.2262,0.9482,37.1,-15.7,41.6,0.069,-0.13,-0.087,0
2018,5,17,21,53,45.696,0.2106,0.0871,-0.2215,0.9481,8.2,-4.2,21.3,0.082,-0.105,-0.074,0
2018,5,17,21,53,45.731,0.2122,0.0874,-0.2226,0.9474,-16.7,4,0,0.047,-0.172,-0.058,1023
2018,5,17,21,53,45.754,0.2117,0.0876,-0.225,0.9469,-6.6,3.8,-1.3,-0.007,-0.165,-0.06,1023
2018,5,17,21,53,45.759,0.2118,0.0878,-0.2269,0.9465,-12.5,2.8,1.8,-0.026,-0.098,-0.04,1023
2018,5,17,21,53,45.775,0.2123,0.088,-0.228,0.9461,5.8,0.1,5.5,0.031,-0.004,0.019,1023
2018,5,17,21,53,45.793,0.2133,0.0881,-0.2261,0.9463,5.1,1.3,6.9,0.069,0.082,0.021,1023
2018,5,17,21,53,45.816,0.2142,0.0881,-0.2247,0.9464,8.8,0.7,7.4,0.081,0.057,0.056,1023
2018,5,17,21,53,45.835,0.2156,0.0886,-0.2229,0.9465,-0.3,1,8.7,0.056,0.089,0.027,1023
2018,5,17,21,53,45.854,0.2172,0.0887,-0.2224,0.9462,-7.3,1.6,10,0.025,0.099,0.032,1023
2018,5,17,21,53,45.877,0.2192,0.089,-0.2238,0.9454,-19.5,1.4,9.4,-0.012,0.076,0.021,0
2018,5,17,21,53,45.895,0.2212,0.0891,-0.2274,0.9441,-23.1,0.9,9.7,-0.013,-0.022,-0.011,0
2018,5,17,21,53,45.919,0.2232,0.0887,-0.2305,0.9429,-10.2,-2,11.6,0.016,-0.065,-0.028,0
2018,5,17,21,53,45.938,0.2251,0.0883,-0.231,0.9423,6.8,-2.6,12.2,0.045,-0.068,-0.034,0
2018,5,17,21,53,45.956,0.2267,0.0887,-0.2287,0.9425,19.9,-1.4,10.1,0.003,-0.02,-0.022,0
2018,5,17,21,53,45.98,0.2278,0.09,-0.2253,0.9429,18.9,-0.1,4.8,-0.03,0.034,-0.014,0
2018,5,17,21,53,46.015,0.2281,0.0914,-0.2225,0.9434,11.3,1.7,1.8,-0.085,0.057,-0.018,0
2018,5,17,21,53,46.015,0.2282,0.0923,-0.2205,0.9437,5.4,-0.1,0,-0.01,0.097,0.024,0
2018,5,17,21,53,46.038,0.2281,0.0923,-0.2198,0.9439,-9.5,0.1,-4.4,0.017,0.096,0.032,0
2018,5,17,21,53,46.055,0.2274,0.0916,-0.2217,0.9437,-20.2,1.8,-7.9,0.025,0.06,0.003,0
2018,5,17,21,53,46.078,0.2263,0.0906,-0.2252,0.9432,-24.4,1.8,-9.1,0.015,0.03,0.004,0
2018,5,17,21,53,46.114,0.2251,0.0895,-0.229,0.9427,-19.7,1.5,-8.5,0.026,-0.019,-0.011,0
2018,5,17,21,53,46.137,0.2239,0.0885,-0.232,0.9424,-12.8,1.2,-7.3,0.016,-0.02,-0.016,0
2018,5,17,21,53,46.142,0.2228,0.0879,-0.2338,0.9423,-6.4,0.7,-6.5,0.015,0.002,0,0
2018,5,17,21,53,46.158,0.2218,0.0874,-0.2346,0.9423,-6.6,0.6,-6.2,0.023,0.037,0.012,0
2018,5,17,21,53,46.181,0.2209,0.0868,-0.2357,0.9423,-11.6,1.2,-6.4,0.027,0.052,0.014,1023
2018,5,17,21,53,46.2,0.22,0.0861,-0.2377,0.9421,-17.4,2.1,-6.8,0.021,0.037,0.022,1023
2018,5,17,21,53,46.235,0.219,0.0852,-0.2408,0.9416,-21,2.1,-6.7,0.019,0.012,0,1023
2018,5,17,21,53,46.258,0.2183,0.0844,-0.2441,0.941,-18.8,1.6,-5.3,0.015,-0.002,-0.016,1023
2018,5,17,21,53,46.262,0.2176,0.0836,-0.247,0.9405,-13.9,0.8,-4,0.017,-0.013,-0.006,1023
2018,5,17,21,53,46.279,0.2172,0.083,-0.249,0.9401,-8.3,0.3,-2.2,0.014,-0.004,-0.011,1023
2018,5,17,21,53,46.295,0.2169,0.0827,-0.2499,0.94,-3.8,0.2,-1,0.02,0.01,-0.009,1023
2018,5,17,21,53,46.319,0.2168,0.0824,-0.2503,0.9399,-3,0.4,-0.5,0.016,0.016,0.005,1023
2018,5,17,21,53,46.336,0.2168,0.0822,-0.2506,0.9398,-2.2,0.3,-0.1,0.014,0.008,-0.001,1023
2018,5,17,21,53,46.359,0.2168,0.0821,-0.2508,0.9398,-2.4,0.1,-0.1,0.014,0.026,0.001,0
2018,5,17,21,53,46.378,0.2168,0.0819,-0.251,0.9398,-3.6,0.2,-0.4,0.013,0.021,0,0
2018,5,17,21,53,46.401,0.2168,0.0817,-0.2514,0.9397,-4.1,0.2,-1,0.011,0.015,0.001,0
2018,5,17,21,53,46.422,0.2167,0.0815,-0.252,0.9396,-4.5,0.2,-0.9,0.011,0.014,0,0
2018,5,17,21,53,46.458,0.2166,0.0812,-0.2526,0.9394,-4,0.1,-0.4,0.014,0.013,-0.003,0
2018,5,17,21,53,46.48,0.2166,0.081,-0.253,0.9393,-2.7,0,-0.4,0.009,0.014,0.002,0
2018,5,17,21,53,46.485,0.2165,0.0808,-0.2533,0.9393,-2.7,0,-0.8,0.014,0.013,0.005,0
2018,5,17,21,53,46.519,0.2165,0.0806,-0.2535,0.9393,-3.4,0,-0.7,0.014,0.019,0.002,0
2018,5,17,21,53,46.519,0.2164,0.0803,-0.254,0.9392,-3.9,0.1,-0.5,0.013,0.015,0.003,0
2018,5,17,21,53,46.542,0.2164,0.0801,-0.2545,0.9391,-2.8,0,-0.2,0.016,0.006,-0.005,0
2018,5,17,21,53,46.56,0.2164,0.0799,-0.2547,0.939,-1.2,0.1,0,0.015,0.012,-0.002,0
2018,5,17,21,53,46.579,0.2164,0.0798,-0.2547,0.939,-1.6,0,0.2,0.011,0.016,-0.001,0
2018,5,17,21,53,46.622,0.2165,0.0797,-0.2549,0.939,-2,0,0,0.008,0.015,0,0
2018,5,17,21,53,46.624,0.2165,0.0795,-0.2551,0.9389,-2.3,0,-0.3,0.017,0.014,0.003,0
2018,5,17,21,53,46.641,0.2165,0.0794,-0.2553,0.9389,-2.8,0.3,-0.5,0.015,0.014,-0.002,0
2018,5,17,21,53,46.663,0.2164,0.0792,-0.2556,0.9388,-2.5,0.1,-0.6,0.013,0.014,-0.001,1023
2018,5,17,21,53,46.7,0.2163,0.079,-0.2559,0.9388,-2,0,-0.5,0.011,0.006,-0.005,1023
2018,5,17,21,53,46.72,0.2163,0.079,-0.2562,0.9387,-0.9,0.2,-0.3,0.008,0.007,-0.011,1023
2018,5,17,21,53,46.723,0.2162,0.0789,-0.2561,0.9388,0,0,0,0.01,0.012,0.002,1023
2018,5,17,21,53,46.762,0.2162,0.0788,-0.2559,0.9388,0,0,0,0.009,0.016,0,1023
2018,5,17,21,53,46.762,0.2163,0.0788,-0.2558,0.9389,0,0,0,0.007,0.011,-0.005,1023
2018,5,17,21,53,46.784,0.2163,0.0788,-0.2557,0.9389,0,0,0,0.007,0.015,-0.001,1023
2018,5,17,21,53,46.802,0.2163,0.0787,-0.2555,0.9389,0,0,0,0.009,0.011,-0.002,1023
2018,5,17,21,53,46.84,0.2163,0.0786,-0.2556,0.9389,-1.6,-0.4,0.3,0.002,-0.004,-0.003,1023
2018,5,17,21,53,46.84,0.2163,0.0784,-0.2559,0.9388,-1.4,-0.4,-0.7,0.014,0.016,-0.006,1023
2018,5,17,21,53,46.862,0.2163,0.0782,-0.2558,0.9389,-1.7,-0.3,-0.4,0.016,0.033,-0.006,1023
2018,5,17,21,53,46.9,0.2162,0.078,-0.2561,0.9388,-4.4,0.5,-1,0.012,0.014,-0.001,1023
2018,5,17,21,53,46.921,0.216,0.0778,-0.2568,0.9387,-2.7,0.1,-0.8,0.01,0,-0.016,1023
2018,5,17,21,53,46.925,0.2159,0.0777,-0.257,0.9387,-0.4,0.2,-0.5,0.011,0.008,-0.006,1023
2018,5,17,21,53,46.962,0.2159,0.0776,-0.2569,0.9387,-0.5,0.2,-0.1,0.01,0.013,-0.003,1023
2018,5,17,21,53,46.982,0.2159,0.0776,-0.2568,0.9388,0,0,0,0.01,0.009,-0.001,0
2018,5,17,21,53,46.985,0.2159,0.0775,-0.2567,0.9388,0,0,0,0.007,0.005,-0.008,0
2018,5,17,21,53,47.021,0.2159,0.0775,-0.2567,0.9388,0.8,0.3,0.2,0.008,0,-0.004,0
2018,5,17,21,53,47.041,0.2159,0.0775,-0.2564,0.9389,1.9,-0.1,0.5,0.005,0.02,-0.004,0
2018,5,17,21,53,47.044,0.216,0.0776,-0.256,0.939,0,0,0,0.006,0.017,0,0
2018,5,17,21,53,47.08,0.216,0.0775,-0.2559,0.939,0,0,0,0.004,0,-0.007,0
2018,5,17,21,53,47.1,0.216,0.0774,-0.2558,0.939,1.3,-0.5,0.6,0.011,0.003,-0.004,0
2018,5,17,21,53,47.104,0.2161,0.0774,-0.2554,0.9391,1.9,-0.2,0.4,0.005,0.017,-0.006,0
2018,5,17,21,53,47.14,0.2161,0.0775,-0.255,0.9392,1.1,-0.1,0.1,0.006,0.017,-0.001,0
2018,5,17,21,53,47.162,0.2162,0.0774,-0.2547,0.9393,0,0,0,0.005,0.017,-0.005,0
2018,5,17,21,53,47.164,0.2161,0.0774,-0.2546,0.9393,-0.3,0,-0.5,0.006,0.012,-0.007,0
2018,5,17,21,53,47.203,0.2161,0.0774,-0.2546,0.9393,-0.7,0.1,-0.5,0.008,0.013,-0.007,0
2018,5,17,21,53,47.222,0.2159,0.0773,-0.2547,0.9393,-0.8,0.1,-0.7,0.006,0.008,-0.008,0
2018,5,17,21,53,47.226,0.2159,0.0772,-0.2548,0.9394,-0.7,0.3,-0.5,0.008,0.009,-0.002,0
2018,5,17,21,53,47.262,0.2158,0.0771,-0.2549,0.9394,-0.8,0,-0.4,0.01,0.01,-0.003,0
2018,5,17,21,53,47.262,0.2157,0.0771,-0.2549,0.9394,-0.7,0,-0.5,0.009,0.008,-0.005,0
2018,5,17,21,53,47.282,0.2157,0.077,-0.255,0.9394,-0.6,0,-0.2,0.009,0.01,-0.003,0
2018,5,17,21,53,47.32,0.2156,0.0769,-0.255,0.9394,-0.5,0,0,0.008,0.001,-0.006,1023
2018,5,17,21,53,47.341,0.2156,0.0769,-0.255,0.9394,0,0,0,0.006,0.002,-0.009,1023
2018,5,17,21,53,47.345,0.2157,0.0769,-0.2549,0.9394,0.4,-0.1,0.7,0.008,0.002,-0.013,1023
2018,5,17,21,53,47.383,0.2158,0.0769,-0.2548,0.9394,0.7,-0.3,1.3,0.002,-0.008,-0.009,1023
2018,5,17,21,53,47.404,0.2161,0.0768,-0.2546,0.9394,2.7,-0.8,1.6,0.007,0,-0.008,1023
2018,5,17,21,53,47.406,0.2163,0.0769,-0.254,0.9395,2.8,-0.9,1.4,0.002,0.012,-0.009,1023
2018,5,17,21,53,47.443,0.2166,0.0769,-0.2533,0.9396,2,-0.7,0.8,0.004,0.026,-0.002,1023
2018,5,17,21,53,47.462,0.2167,0.0769,-0.253,0.9397,-1.2,-0.2,-0.1,0.005,0.021,-0.001,1023
2018,5,17,21,53,47.469,0.2166,0.0768,-0.2532,0.9396,-2,-0.1,-0.4,0.006,0.008,-0.001,1023
2018,5,17,21,53,47.507,0.2166,0.0766,-0.2534,0.9396,-1.6,0,-0.7,0.01,0.007,-0.007,1023
2018,5,17,21,53,47.526,0.2164,0.0765,-0.2536,0.9396,-1.3,0.2,-1.1,0.006,0.015,-0.009,0
2018,5,17,21,53,47.53,0.2162,0.0764,-0.2537,0.9396,-1.9,0.3,-1.5,0.005,0.012,-0.005,0
2018,5,17,21,53,47.545,0.216,0.0763,-0.254,0.9396,-2.9,0.6,-1.4,0.01,0.016,-0.007,0
2018,5,17,21,53,47.582,0.2156,0.0761,-0.2544,0.9396,-3.7,2.4,-2.6,0.028,0.018,0.009,0
2018,5,17,21,53,47.603,0.2153,0.0762,-0.2554,0.9394,-6.7,1.6,-2.3,-0.015,0.003,-0.014,0
2018,5,17,21,53,47.606,0.2149,0.0762,-0.2563,0.9392,-4.4,0.4,-2.4,0.002,0.001,-0.003,0
2018,5,17,21,53,47.643,0.2146,0.0758,-0.2572,0.9391,-3.3,0.4,-1.8,0.016,-0.017,-0.018,0
2018,5,17,21,53,47.663,0.2144,0.0757,-0.2575,0.9391,1.9,-0.5,0.2,0.01,-0.003,-0.022,0
2018,5,17,21,53,47.669,0.2146,0.0758,-0.257,0.9392,6,0.3,2.8,0.002,-0.045,-0.006,0
2018,5,17,21,53,47.707,0.2148,0.0763,-0.2559,0.9394,15,2.1,2.7,0.031,-0.031,-0.023,0
2018,5,17,21,53,47.726,0.215,0.0773,-0.253,0.94,13.2,1.8,2.5,-0.009,0.062,0.006,0
2018,5,17,21,53,47.73,0.2153,0.0783,-0.2508,0.9405,6.9,1.1,1.7,-0.024,0.034,0.009,0
2018,5,17,21,53,47.746,0.2155,0.0787,-0.2499,0.9406,6.8,-0.1,1.7,0.003,-0.032,-0.012,0
2018,5,17,21,53,47.766,0.2158,0.0789,-0.2486,0.9409,8.6,-1.1,2.6,0.011,0.023,-0.006,0
2018,5,17,21,53,47.802,0.2161,0.0791,-0.2471,0.9412,2.7,-0.1,1.7,0.014,0.049,0.007,0
2018,5,17,21,53,47.822,0.2163,0.0792,-0.247,0.9412,-1.4,0.6,0.7,0.005,-0.001,-0.008,0
2018,5,17,21,53,47.828,0.2164,0.0793,-0.2472,0.9411,-0.4,0.3,0.5,0.001,0.006,-0.007,0
2018,5,17,21,53,47.864,0.2165,0.0793,-0.2473,0.941,-1.6,0.6,0.1,0.006,0.013,-0.004,1023
2018,5,17,21,53,47.887,0.2164,0.0793,-0.2476,0.941,-2.7,0.2,-0.7,0.003,0.013,-0.003,1023
2018,5,17,21,53,47.89,0.2163,0.0791,-0.2481,0.9409,-4,0.1,-1.4,0.005,0.005,-0.01,1023
2018,5,17,21,53,47.926,0.2161,0.0789,-0.2488,0.9408,-3.5,0,-1.2,0.006,-0.003,-0.013,1023
2018,5,17,21,53,47.947,0.2159,0.0787,-0.2493,0.9407,-2.2,-0.3,-1,0.005,0.007,-0.005,1023
2018,5,17,21,53,47.951,0.2158,0.0785,-0.2497,0.9406,-3.1,-0.4,-1.5,0.006,0.012,-0.007,1023
2018,5,17,21,53,47.989,0.2157,0.0782,-0.2502,0.9405,-4.5,-0.3,-1.4,0.004,0.016,-0.003,1023
2018,5,17,21,53,48.011,0.2155,0.0779,-0.2511,0.9404,-6.4,-0.3,-1.9,0.003,0.01,-0.006,1023
2018,5,17,21,53,48.013,0.2152,0.0775,-0.2521,0.9402,-6.4,-0.3,-2.1,0.004,0.008,-0.01,1023
2018,5,17,21,53,48.03,0.215,0.0771,-0.2532,0.94,-6.3,-0.2,-1.7,0.007,0.004,-0.005,1023
2018,5,17,21,53,48.05,0.2149,0.0768,-0.2542,0.9398,-5,-0.2,-1,0.007,-0.002,-0.01,1023
2018,5,17,21,53,48.086,0.2148,0.0765,-0.2549,0.9396,-3,-0.1,-0.7,0.004,0.003,-0.013,1023
2018,5,17,21,53,48.108,0.2147,0.0763,-0.2553,0.9395,-2.4,-0.2,-0.6,0.003,0.007,-0.006,1023
2018,5,17,21,53,48.111,0.2146,0.0762,-0.2557,0.9395,-2.1,-0.1,-0.7,0.001,0.006,-0.007,0
2018,5,17,21,53,48.148,0.2146,0.076,-0.256,0.9394,-1.9,-0.1,-0.4,0.005,0.005,-0.007,0
2018,5,17,21,53,48.168,0.2145,0.0759,-0.2562,0.9394,-0.8,-0.1,0,0.006,-0.002,-0.013,0
2018,5,17,21,53,48.174,0.2145,0.0759,-0.2563,0.9393,0,0,0,0.008,0.003,-0.013,0
2018,5,17,21,53,48.211,0.2146,0.0759,-0.2563,0.9394,0.7,-0.1,0.3,0.005,0.006,-0.008,0
2018,5,17,21,53,48.234,0.2146,0.0759,-0.2561,0.9394,0,0,0,0,0.009,0,0
2018,5,17,21,53,48.239,0.2146,0.0759,-0.2561,0.9394,-0.5,0,-0.4,0.002,0.005,-0.007,0
2018,5,17,21,53,48.256,0.2146,0.0759,-0.2562,0.9394,-0.8,0,-0.4,0.002,0.003,-0.01,0
2018,5,17,21,53,48.273,0.2145,0.0758,-0.2563,0.9394,0,0,0,0.002,0.006,-0.011,0
2018,5,17,21,53,48.29,0.2145,0.0758,-0.2563,0.9394,0,0,0,0.005,0.007,-0.013,0
2018,5,17,21,53,48.313,0.2145,0.0757,-0.2563,0.9394,0,0,0,0.005,0.003,-0.006,0
2018,5,17,21,53,48.331,0.2145,0.0757,-0.2563,0.9394,0,0,0,0.005,0.004,-0.012,0
2018,5,17,21,53,48.354,0.2145,0.0757,-0.2563,0.9394,0,0,0,0.007,0.009,-0.008,0
2018,5,17,21,53,48.391,0.2145,0.0757,-0.2563,0.9394,0,0,0,0.004,0.008,-0.008,0
2018,5,17,21,53,48.414,0.2145,0.0757,-0.2564,0.9394,-0.6,0,-0.1,0.003,0.002,-0.009,0
2018,5,17,21,53,48.419,0.2145,0.0756,-0.2564,0.9393,0,0,0,0.004,0,-0.01,1023
2018,5,17,21,53,48.438,0.2145,0.0756,-0.2564,0.9394,0,0,0,0.003,0.009,-0.011,1023
2018,5,17,21,53,48.458,0.2145,0.0756,-0.2565,0.9393,-1.3,-0.1,-0.1,0.004,0.011,-0.005,1023
2018,5,17,21,53,48.476,0.2145,0.0755,-0.2567,0.9393,-1.9,0,-0.1,0.005,0.008,-0.007,1023
2018,5,17,21,53,48.499,0.2145,0.0754,-0.257,0.9392,-2,-0.3,0,0.006,0,-0.014,1023
2018,5,17,21,53,48.517,0.2146,0.0753,-0.2574,0.9391,-1.6,-0.3,0,0.002,0.003,-0.011,1023
2018,5,17,21,53,48.535,0.2146,0.0752,-0.2576,0.9391,-1.2,-0.2,0,0.001,0.006,-0.005,1023
2018,5,17,21,53,48.572,0.2146,0.0751,-0.2577,0.939,-1.3,-0.1,-0.1,0,0.008,-0.008,1023
2018,5,17,21,53,48.594,0.2146,0.075,-0.258,0.939,-1.3,-0.1,-0.4,0.005,0.005,-0.01,1023
2018,5,17,21,53,48.599,0.2145,0.0749,-0.2582,0.9389,-1,0.1,-0.2,0.003,0.004,-0.011,1023
2018,5,17,21,53,48.616,0.2145,0.0749,-0.2583,0.9389,0,0,0,0.007,0,-0.011,1023
2018,5,17,21,53,48.634,0.2145,0.0749,-0.2583,0.9389,-0.2,-0.3,-0.6,0.003,0.006,-0.008,1023
2018,5,17,21,53,48.657,0.2144,0.0748,-0.2584,0.9389,-1,0,-0.5,0.001,0.006,-0.009,1023
2018,5,17,21,53,48.676,0.2143,0.0747,-0.2586,0.9389,-1.6,0.2,-0.5,0.003,0.007,-0.008,1023
2018,5,17,21,53,48.699,0.2143,0.0747,-0.2588,0.9388,-1.1,0.2,-0.5,0.004,0.001,-0.011,0
2018,5,17,21,53,48.719,0.2142,0.0746,-0.259,0.9388,-0.5,0.3,-0.3,0.001,0.005,-0.011,0
2018,5,17,21,53,48.736,0.2141,0.0746,-0.259,0.9388,0,0,0,0.003,0.002,-0.009,0
2018,5,17,21,53,48.759,0.2141,0.0746,-0.2591,0.9388,0,0,0,0.006,0.002,-0.007,0
2018,5,17,21,53,48.796,0.2141,0.0745,-0.2591,0.9388,0,0,0,0.007,0.005,-0.005,0
2018,5,17,21,53,48.796,0.2141,0.0746,-0.259,0.9388,0.8,0.1,0.1,0.004,0.001,-0.01,0
2018,5,17,21,53,48.819,0.2142,0.0746,-0.2588,0.9388,1.5,0.2,0.5,0.004,0,-0.007,0
2018,5,17,21,53,48.837,0.2142,0.0748,-0.2585,0.9389,2.2,0.1,0.5,0.003,0.003,-0.009,0
2018,5,17,21,53,48.855,0.2143,0.0749,-0.2582,0.939,1.8,-0.1,0.4,0,0.011,-0.015,0
2018,5,17,21,53,48.878,0.2144,0.0749,-0.2579,0.939,0.5,-0.1,0.3,0.006,0.007,-0.008,0
2018,5,17,21,53,48.896,0.2144,0.0749,-0.2579,0.939,0,0,0,0.004,0.007,-0.011,0
2018,5,17,21,53,48.919,0.2144,0.0749,-0.2579,0.939,0,0,0,0.003,0.004,-0.012,0
2018,5,17,21,53,48.937,0.2144,0.0749,-0.2578,0.939,-0.3,0.3,-0.5,0.005,0.009,-0.004,0
2018,5,17,21,53,48.96,0.2143,0.0749,-0.2579,0.939,-0.8,0.1,-0.5,0.002,0.008,-0.001,0
2018,5,17,21,53,48.98,0.2142,0.0749,-0.2581,0.939,-0.7,0.1,-0.5,0.003,0.002,-0.01,1023
2018,5,17,21,53,49.001,0.2142,0.0748,-0.2582,0.939,0,0,0,0.002,-0.001,-0.007,1023
2018,5,17,21,53,49.022,0.2142,0.0748,-0.2582,0.939,0.5,-0.1,0,0.003,0.008,-0.01,1023
2018,5,17,21,53,49.039,0.2142,0.0748,-0.2581,0.939,0,0,0,-0.001,0.006,0,1023
2018,5,17,21,53,49.076,0.2142,0.0748,-0.2581,0.939,-1.3,-0.1,-0.2,0.002,0.013,-0.001,1023
2018,5,17,21,53,49.099,0.2142,0.0747,-0.2584,0.939,-1.4,0,0,0.003,0,-0.017,1023
2018,5,17,21,53,49.104,0.2142,0.0746,-0.2586,0.9389,0,0,0,0.004,-0.005,-0.014,1023
2018,5,17,21,53,49.137,0.2141,0.0746,-0.2587,0.9389,0,0,0,0,0.008,-0.005,1023
2018,5,17,21,53,49.16,0.2142,0.0747,-0.2586,0.9389,-0.5,0,-0.1,0,0.009,-0.007,1023
2018,5,17,21,53,49.165,0.2141,0.0746,-0.2587,0.9389,-0.6,0,-0.2,0,0.003,-0.013,1023
2018,5,17,21,53,49.181,0.2141,0.0746,-0.2588,0.9389,0,0,0,0.002,0.004,-0.012,1023
2018,5,17,21,53,49.217,0.2141,0.0746,-0.2588,0.9389,0,0,0,0.003,0.002,-0.011,1023
2018,5,17,21,53,49.238,0.2141,0.0746,-0.2588,0.9389,0,0,0,0.001,0.008,-0.009,1023
2018,5,17,21,53,49.243,0.2141,0.0746,-0.2588,0.9389,-0.7,0,-0.3,0.002,0.007,-0.006,1023
2018,5,17,21,53,49.281,0.2141,0.0746,-0.2589,0.9388,-0.6,0.1,-0.1,0.004,0.004,-0.012,1023
2018,5,17,21,53,49.304,0.2141,0.0745,-0.259,0.9388,0,0,0,0.006,0.002,-0.009,0
2018,5,17,21,53,49.309,0.214,0.0745,-0.259,0.9388,0,0,0,0.001,0.003,-0.008,0
2018,5,17,21,53,49.32,0.214,0.0745,-0.259,0.9388,0,0,0,0,0.005,-0.008,0
2018,5,17,21,53,49.339,0.2141,0.0746,-0.259,0.9388,0,0,0,0.001,0.013,-0.009,0
2018,5,17,21,53,49.361,0.214,0.0746,-0.259,0.9388,-0.6,0,-0.4,0,0.004,-0.007,0
2018,5,17,21,53,49.398,0.214,0.0745,-0.259,0.9388,0,0,0,0.003,0,-0.009,0
2018,5,17,21,53,49.42,0.214,0.0745,-0.2591,0.9388,0,0,0,0.006,0.002,-0.006,0
2018,5,17,21,53,49.423,0.214,0.0745,-0.259,0.9388,0.5,0.1,0,0.002,0.006,-0.008,0
2018,5,17,21,53,49.441,0.214,0.0745,-0.259,0.9388,0,0,0,0.002,0.006,-0.007,0
2018,5,17,21,53,49.464,0.214,0.0745,-0.259,0.9388,0,0,0,0.003,0.003,-0.008,0
2018,5,17,21,53,49.482,0.214,0.0745,-0.259,0.9388,0,0,0,0.003,0.003,-0.01,0
2018,5,17,21,53,49.505,0.214,0.0745,-0.259,0.9388,0,0,0,0.002,0.004,-0.008,0
2018,5,17,21,53,49.524,0.214,0.0745,-0.259,0.9388,0,0,0,0.004,0.007,-0.003,0
2018,5,17,21,53,49.547,0.214,0.0745,-0.2589,0.9389,0,0,0,0,0.006,-0.006,0
2018,5,17,21,53,49.562,0.214,0.0745,-0.259,0.9389,0,0,0,0.002,0,-0.01,1023
2018,5,17,21,53,49.581,0.214,0.0745,-0.2589,0.9389,0.7,-0.1,0.2,0.003,0.002,-0.006,1023
2018,5,17,21,53,49.603,0.214,0.0746,-0.2588,0.9389,0.8,0,0.2,0.001,0.008,-0.007,1023
2018,5,17,21,53,49.622,0.2141,0.0746,-0.2587,0.9389,0,0,0,0.003,0.007,-0.006,1023
2018,5,17,21,53,49.645,0.2141,0.0746,-0.2587,0.9389,0,0,0,0.002,0.006,-0.011,1023
2018,5,17,21,53,49.663,0.2141,0.0746,-0.2588,0.9389,0,0,0,0.002,0.002,-0.011,1023
2018,5,17,21,53,49.686,0.214,0.0746,-0.2588,0.9389,0,0,0,0.002,0.003,-0.011,1023
2018,5,17,21,53,49.704,0.2141,0.0746,-0.2588,0.9389,0,0,0,0,0.009,-0.007,1023
2018,5,17,21,53,49.728,0.214,0.0746,-0.2587,0.9389,-0.5,0.1,-0.4,0,0.007,-0.005,1023
2018,5,17,21,53,49.745,0.214,0.0746,-0.2588,0.9389,0,0,0,0.001,-0.002,-0.013,1023
2018,5,17,21,53,49.766,0.214,0.0746,-0.2589,0.9389,0.7,-0.1,0,0,0,-0.008,1023
2018,5,17,21,53,49.804,0.214,0.0746,-0.2587,0.9389,0,0,0,0.002,0.01,-0.006,1023
2018,5,17,21,53,49.828,0.214,0.0746,-0.2587,0.9389,-0.5,0,-0.1,0,0.011,-0.01,0
2018,5,17,21,53,49.831,0.2139,0.0746,-0.2588,0.9389,0,0,0,0.001,0.001,-0.009,0
2018,5,17,21,53,49.847,0.2139,0.0746,-0.2588,0.9389,0,0,0,0.001,0.003,-0.013,0
2018,5,17,21,53,49.867,0.2139,0.0746,-0.2588,0.9389,0,0,0,0.001,0.007,-0.006,0
2018,5,17,21,53,49.885,0.2139,0.0746,-0.2588,0.9389,0,0,0,0,0.004,-0.004,0
2018,5,17,21,53,49.906,0.2139,0.0746,-0.2588,0.9389,0,0,0,0.003,0.003,-0.007,0
2018,5,17,21,53,49.926,0.2139,0.0746,-0.2588,0.9389,0.5,0,0,0.002,0.002,-0.009,0
2018,5,17,21,53,49.947,0.2139,0.0746,-0.2588,0.9389,0,0,0,0.004,0.01,-0.011,0
2018,5,17,21,53,49.968,0.2139,0.0746,-0.2587,0.9389,0,0,0,0.002,0.006,-0.007,0
2018,5,17,21,53,49.986,0.2139,0.0746,-0.2588,0.9389,0,0,0,0.005,0.004,-0.009,0
2018,5,17,21,53,50.009,0.2139,0.0746,-0.2588,0.9389,0.6,0,0.2,0.001,0.001,-0.013,0
2018,5,17,21,53,50.028,0.214,0.0747,-0.2586,0.9389,0.7,0,0.1,0.001,0.009,-0.005,0
2018,5,17,21,53,50.049,0.214,0.0747,-0.2585,0.939,0,0,0,-0.002,0.009,-0.005,0
2018,5,17,21,53,50.066,0.214,0.0747,-0.2585,0.939,0,0,0,0.002,0.004,-0.007,0
2018,5,17,21,53,50.104,0.214,0.0747,-0.2585,0.939,0,0,0,0,0.001,-0.013,0
2018,5,17,21,53,50.125,0.214,0.0747,-0.2585,0.939,0.5,0,0,0.003,0.003,-0.011,0
2018,5,17,21,53,50.127,0.214,0.0747,-0.2584,0.939,0,0,0,0.004,0.005,-0.01,0
2018,5,17,21,53,50.163,0.214,0.0747,-0.2584,0.939,0,0,0,0.002,0.007,-0.012,1023
2018,5,17,21,53,50.183,0.214,0.0748,-0.2584,0.939,0,0,0,0.001,0.004,-0.01,1023
2018,5,17,21,53,50.189,0.214,0.0747,-0.2584,0.939,0,0,0,0.003,0.004,-0.01,1023
2018,5,17,21,53,50.226,0.214,0.0747,-0.2584,0.939,0,0,0,0.005,0.005,-0.002,1023
2018,5,17,21,53,50.247,0.214,0.0747,-0.2584,0.939,0,0,0,0.002,0.005,-0.004,1023
2018,5,17,21,53,50.252,0.214,0.0747,-0.2584,0.939,0,0,0,0.001,0.004,-0.011,1023
2018,5,17,21,53,50.269,0.214,0.0748,-0.2585,0.939,0,0,0,0.001,0.001,-0.013,1023
2018,5,17,21,53,50.291,0.214,0.0748,-0.2585,0.939,0,0,0,0.004,0.006,-0.007,1023
2018,5,17,21,53,50.326,0.214,0.0748,-0.2584,0.939,0,0,0,0,0.006,-0.01,1023
2018,5,17,21,53,50.326,0.214,0.0748,-0.2584,0.939,0,0,0,0.004,0.002,-0.008,1023
2018,5,17,21,53,50.348,0.214,0.0748,-0.2584,0.939,0,0,0,0,0.004,-0.009,1023
2018,5,17,21,53,50.387,0.214,0.0748,-0.2584,0.939,0,0,0,0.001,0.005,-0.01,1023
2018,5,17,21,53,50.387,0.214,0.0748,-0.2584,0.939,0,0,0,0.002,0.002,-0.005,1023
2018,5,17,21,53,50.41,0.214,0.0748,-0.2584,0.939,0,0,0,0.002,0.005,-0.014,1023
2018,5,17,21,53,50.429,0.214,0.0748,-0.2583,0.939,0,0,0,0.003,0.006,-0.009,1023
2018,5,17,21,53,50.452,0.214,0.0749,-0.2583,0.939,0,0,0,0.005,0.006,-0.007,1023
2018,5,17,21,53,50.47,0.214,0.0749,-0.2583,0.939,0,0,0,0.002,0.008,-0.007,0
2018,5,17,21,53,50.493,0.214,0.0749,-0.2583,0.939,0,0,0,0.004,0.005,-0.01,0
2018,5,17,21,53,50.512,0.214,0.0748,-0.2583,0.939,0,0,0,0.003,0.002,-0.009,0
2018,5,17,21,53,50.535,0.214,0.0749,-0.2583,0.939,0,0,0,0.003,0.006,-0.009,0
2018,5,17,21,53,50.555,0.214,0.0749,-0.2583,0.939,0,0,0,0.005,0.009,-0.013,0
2018,5,17,21,53,50.572,0.214,0.0749,-0.2582,0.939,0,0,0,0,0,-0.007,0
2018,5,17,21,53,50.595,0.214,0.0749,-0.2583,0.939,0,0,0,0.005,0.006,-0.015,0
2018,5,17,21,53,50.611,0.214,0.0749,-0.2583,0.939,0,0,0,0,0.005,-0.01,0
2018,5,17,21,53,50.629,0.214,0.0749,-0.2583,0.939,0,0,0,0,0.008,-0.012,0
2018,5,17,21,53,50.653,0.214,0.0749,-0.2584,0.939,-1,0,-0.4,0.002,0.006,-0.011,0
2018,5,17,21,53,50.671,0.2139,0.0748,-0.2585,0.939,-0.6,0.2,-0.2,0.002,0,-0.009,0
2018,5,17,21,53,50.694,0.2139,0.0748,-0.2586,0.939,0,0,0,0.005,0.001,-0.011,0
2018,5,17,21,53,50.713,0.2139,0.0748,-0.2586,0.939,0,0,0,0.001,0.005,-0.009,0
2018,5,17,21,53,50.731,0.2139,0.0748,-0.2586,0.939,0,0,0,0,0.006,-0.009,0
2018,5,17,21,53,50.754,0.2139,0.0748,-0.2586,0.939,0,0,0,0.003,0.006,-0.013,0
2018,5,17,21,53,50.775,0.2139,0.0748,-0.2586,0.939,0,0,0,0.001,0.007,-0.006,1023
2018,5,17,21,53,50.811,0.2139,0.0748,-0.2586,0.939,0,0,0,0,0.001,-0.004,1023
2018,5,17,21,53,50.834,0.2139,0.0748,-0.2586,0.939,0,0,0,0.001,0.006,-0.008,1023
2018,5,17,21,53,50.839,0.2139,0.0748,-0.2586,0.939,0,0,0,0,0.006,-0.011,1023
2018,5,17,21,53,50.852,0.2139,0.0749,-0.2586,0.9389,0,0,0,-0.001,0.002,-0.013,1023
2018,5,17,21,53,50.871,0.2139,0.0749,-0.2586,0.9389,0,0,0,0.002,0.005,-0.009,1023
2018,5,17,21,53,50.892,0.2139,0.0749,-0.2586,0.9389,0,0,0,0.006,0.004,-0.01,1023
2018,5,17,21,53,50.931,0.2139,0.0749,-0.2586,0.9389,0,0,0,0.003,0.001,-0.013,1023
2018,5,17,21,53,50.954,0.2139,0.0749,-0.2586,0.9389,0,0,0,0.005,0.005,-0.008,1023
2018,5,17,21,53,50.959,0.2139,0.0749,-0.2586,0.9389,0,0,0,0,0.009,-0.005,1023
2018,5,17,21,53,50.977,0.2139,0.0749,-0.2586,0.9389,0,0,0,0,0.005,-0.011,1023
2018,5,17,21,53,51.014,0.2139,0.0749,-0.2586,0.9389,0,0,0,0.002,-0.001,-0.012,1023
2018,5,17,21,53,51.014,0.2139,0.0749,-0.2586,0.9389,0.8,0,0.1,0.002,0.005,-0.014,1023
2018,5,17,21,53,51.037,0.2139,0.0749,-0.2585,0.939,0,0,0,-0.001,0.006,-0.015,1023
2018,5,17,21,53,51.055,0.2139,0.0749,-0.2584,0.939,0,0,0,0,0.005,-0.009,0
2018,5,17,21,53,51.078,0.2139,0.0749,-0.2584,0.939,0,0,0,0.004,0.001,-0.008,0
2018,5,17,21,53,51.115,0.2139,0.0749,-0.2585,0.939,0,0,0,0.002,0,-0.008,0
2018,5,17,21,53,51.115,0.2139,0.0749,-0.2585,0.939,0,0,0,0.002,0.007,-0.008,0
2018,5,17,21,53,51.138,0.2139,0.0749,-0.2584,0.939,0,0,0,0.003,0.008,-0.009,0
2018,5,17,21,53,51.156,0.2139,0.0749,-0.2584,0.939,0,0,0,0,0.005,-0.007,0
2018,5,17,21,53,51.174,0.2139,0.075,-0.2584,0.939,0,0,0,0,0,-0.013,0
2018,5,17,21,53,51.198,0.2139,0.075,-0.2584,0.939,0,0,0,0.001,0.005,-0.008,0
2018,5,17,21,53,51.234,0.214,0.075,-0.2584,0.939,0,0,0,0.001,0.006,-0.007,0
2018,5,17,21,53,51.258,0.214,0.075,-0.2584,0.939,0,0,0,0,0.007,-0.009,0
2018,5,17,21,53,51.262,0.214,0.075,-0.2584,0.939,0,0,0,0.001,0.005,-0.01,0
2018,5,17,21,53,51.278,0.214,0.075,-0.2584,0.939,0,0,0,0.002,0.002,-0.013,0
2018,5,17,21,53,51.299,0.214,0.075,-0.2584,0.939,0,0,0,0.001,0.007,-0.007,0
2018,5,17,21,53,51.334,0.214,0.075,-0.2584,0.939,0,0,0,0.003,0.008,-0.007,0
2018,5,17,21,53,51.334,0.214,0.075,-0.2584,0.939,0,0,0,0.003,0.001,-0.012,0
2018,5,17,21,53,51.355,0.214,0.075,-0.2584,0.939,0.6,0,0.5,0.005,0,-0.01,0
2018,5,17,21,53,51.392,0.214,0.075,-0.2583,0.939,1,-0.1,0.4,0,0.004,-0.012,0
2018,5,17,21,53,51.414,0.2141,0.0751,-0.2581,0.939,0.8,-0.2,0.6,0.001,0.013,-0.01,1023
2018,5,17,21,53,51.416,0.2142,0.0751,-0.258,0.939,0,0,0,0.003,0.004,-0.01,1023
2018,5,17,21,53,51.452,0.2142,0.0751,-0.2581,0.939,0,0,0,0.004,0,-0.01,1023
2018,5,17,21,53,51.475,0.2142,0.0751,-0.2581,0.939,0.5,0,0.1,0.001,0.004,-0.007,1023
2018,5,17,21,53,51.48,0.2142,0.0751,-0.258,0.939,0,0,0,0.002,0.007,-0.011,1023
2018,5,17,21,53,51.498,0.2142,0.0752,-0.258,0.939,0,0,0,0.004,0.004,-0.006,1023
2018,5,17,21,53,51.521,0.2142,0.0751,-0.2581,0.939,0,0,0,0.003,0,-0.014,1023
2018,5,17,21,53,51.54,0.2142,0.0751,-0.258,0.939,0.5,0.1,-0.1,0,0.008,-0.006,1023
2018,5,17,21,53,51.562,0.2142,0.0751,-0.258,0.939,-0.5,0.1,-0.2,0,0.009,-0.004,1023
2018,5,17,21,53,51.581,0.2141,0.0751,-0.2581,0.939,-1.2,0,-0.3,0.001,0.007,-0.014,1023
2018,5,17,21,53,51.604,0.2141,0.0751,-0.2583,0.939,-0.6,0,-0.3,0.003,-0.002,-0.012,1023
2018,5,17,21,53,51.623,0.2141,0.075,-0.2584,0.939,0,0,0,0.005,0.005,-0.01,1023
2018,5,17,21,53,51.661,0.2141,0.075,-0.2584,0.939,0,0,0,0.003,0.008,-0.008,0
2018,5,17,21,53,51.664,0.2141,0.0751,-0.2584,0.939,0,0,0,0.002,0.004,-0.009,0
2018,5,17,21,53,51.678,0.2141,0.0751,-0.2584,0.9389,0,0,0,0.003,0,-0.013,0
2018,5,17,21,53,51.717,0.2141,0.0751,-0.2585,0.9389,0,0,0,0.003,0.002,-0.01,0
2018,5,17,21,53,51.739,0.2141,0.0751,-0.2585,0.9389,0,0,0,-0.001,0.008,-0.008,0
2018,5,17,21,53,51.744,0.2141,0.0751,-0.2584,0.9389,0,0,0,0.006,0.006,-0.01,0
2018,5,17,21,53,51.762,0.2141,0.0751,-0.2585,0.9389,0,0,0,0.003,0,-0.012,0
2018,5,17,21,53,51.78,0.2141,0.0751,-0.2585,0.9389,0,0,0,0.003,0.002,-0.013,0
2018,5,17,21,53,51.803,0.2141,0.0751,-0.2585,0.9389,0,0,0,0,0.006,-0.003,0
2018,5,17,21,53,51.822,0.2141,0.0751,-0.2585,0.9389,0,0,0,0.004,0.003,-0.009,0
2018,5,17,21,53,51.844,0.2141,0.0751,-0.2585,0.9389,0,0,0,0.001,0.003,-0.01,0
2018,5,17,21,53,51.86,0.2141,0.0751,-0.2585,0.9389,0,0,0,0.003,0.003,-0.016,0
2018,5,17,21,53,51.897,0.2141,0.0751,-0.2585,0.9389,0,0,0,0.002,0.007,-0.01,0
2018,5,17,21,53,51.92,0.2141,0.0751,-0.2585,0.9389,0,0,0,0.003,0.006,-0.007,0
2018,5,17,21,53,51.925,0.2141,0.0751,-0.2585,0.9389,0,0,0,0,0.007,-0.008,0
2018,5,17,21,53,51.941,0.2141,0.0751,-0.2585,0.9389,0,0,0,0.003,0.002,-0.013,0
2018,5,17,21,53,51.963,0.2141,0.0751,-0.2585,0.9389,0,0,0,0.001,0.002,-0.007,1023
2018,5,17,21,53,51.981,0.2141,0.0751,-0.2585,0.9389,0,0,0,0.004,0.008,-0.012,1023
2018,5,17,21,53,52.005,0.2141,0.0751,-0.2585,0.9389,0,0,0,0.003,0.001,-0.008,1023
2018,5,17,21,53,52.023,0.2141,0.0751,-0.2585,0.9389,0,0,0,0.004,0.004,-0.012,1023
2018,5,17,21,53,52.046,0.2141,0.0751,-0.2585,0.9389,0,0,0,0.002,0.004,-0.007,1023
2018,5,17,21,53,52.065,0.2141,0.0751,-0.2585,0.9389,0,0,0,0.001,0.005,-0.005,1023
2018,5,17,21,53,52.083,0.2141,0.0751,-0.2585,0.9389,0,0,0,0.001,0.002,-0.01,1023
2018,5,17,21,53,52.106,0.2141,0.0751,-0.2585,0.9389,0,0,0,0.006,0.007,-0.012,1023
2018,5,17,21,53,52.123,0.2141,0.0751,-0.2585,0.9389,0,0,0,0.001,0.006,-0.011,1023
2018,5,17,21,53,52.16,0.2141,0.0751,-0.2585,0.9389,0.5,-0.1,0.2,0.001,0.002,-0.01,1023
2018,5,17,21,53,52.184,0.2141,0.0752,-0.2585,0.9389,0,0,0,0.001,0.008,-0.01,1023
2018,5,17,21,53,52.188,0.2141,0.0752,-0.2584,0.9389,0,0,0,0.003,0.01,-0.005,1023
2018,5,17,21,53,52.204,0.214,0.0751,-0.2585,0.9389,-0.8,0,-0.2,0.003,0.002,-0.008,1023
2018,5,17,21,53,52.227,0.214,0.0751,-0.2587,0.9389,0,0,0,0.002,0,-0.012,1023
2018,5,17,21,53,52.245,0.214,0.0751,-0.2587,0.9389,0,0,0,0.002,0.007,-0.011,0
2018,5,17,21,53,52.283,0.214,0.0751,-0.2586,0.9389,0,0,0,0.001,0.009,-0.012,0
2018,5,17,21,53,52.305,0.214,0.0751,-0.2587,0.9389,-0.5,0,-0.1,0,0.003,-0.009,0
2018,5,17,21,53,52.308,0.214,0.0751,-0.2587,0.9389,0,0,0,0.003,0,-0.009,0
2018,5,17,21,53,52.343,0.214,0.0751,-0.2588,0.9389,0,0,0,0.004,0.005,-0.014,0
2018,5,17,21,53,52.366,0.214,0.0751,-0.2587,0.9389,0,0,0,0.001,0.005,-0.008,0
2018,5,17,21,53,52.371,0.214,0.0751,-0.2587,0.9389,-0.5,0,-0.1,0.002,0.005,-0.016,0
2018,5,17,21,53,52.384,0.214,0.0751,-0.2588,0.9389,0,0,0,0.003,0.002,-0.012,0
2018,5,17,21,53,52.405,0.214,0.0751,-0.2588,0.9389,0.7,0,0.1,0.002,0.005,-0.009,0
2018,5,17,21,53,52.442,0.214,0.0751,-0.2586,0.9389,0.5,0,0.1,0.002,0.01,-0.007,0
2018,5,17,21,53,52.466,0.2141,0.0752,-0.2586,0.9389,0,0,0,0.001,0.006,-0.014,0
2018,5,17,21,53,52.469,0.2141,0.0752,-0.2586,0.9389,0,0,0,0.003,0.004,-0.012,0
2018,5,17,21,53,52.486,0.2141,0.0752,-0.2586,0.9389,0,0,0,0,0,-0.01,0
2018,5,17,21,53,52.509,0.2141,0.0752,-0.2586,0.9389,0,0,0,0.001,0.005,-0.011,0
2018,5,17,21,53,52.527,0.2141,0.0752,-0.2586,0.9389,0,0,0,0,0.007,-0.008,1023
2018,5,17,21,53,52.55,0.214,0.0752,-0.2587,0.9389,-0.8,0,-0.4,0.001,0.002,-0.011,1023
2018,5,17,21,53,52.568,0.214,0.0751,-0.2588,0.9389,-0.5,-0.1,-0.2,0.001,0,-0.015,1023
2018,5,17,21,53,52.592,0.2139,0.0751,-0.2588,0.9388,0,0,0,0.004,0.004,-0.009,1023
2018,5,17,21,53,52.607,0.2139,0.0751,-0.2588,0.9389,0,0,0,0.001,0.008,-0.006,1023
2018,5,17,21,53,52.625,0.214,0.0751,-0.2588,0.9389,0,0,0,0.005,0.005,-0.01,1023
2018,5,17,21,53,52.648,0.2139,0.0751,-0.2588,0.9389,0,0,0,0.006,0.004,-0.008,1023
2018,5,17,21,53,52.666,0.2139,0.0751,-0.2588,0.9389,0,0,0,0.001,0.004,-0.011,1023
2018,5,17,21,53,52.688,0.2139,0.0751,-0.2589,0.9388,0,0,0,0,0.005,-0.007,1023
2018,5,17,21,53,52.725,0.2139,0.075,-0.259,0.9388,-1,0,-0.2,0.003,-0.001,-0.006,1023
2018,5,17,21,53,52.748,0.2139,0.075,-0.2591,0.9388,0,0,0,0.001,0.006,-0.009,1023
2018,5,17,21,53,52.753,0.2139,0.075,-0.2591,0.9388,0,0,0,0.001,0.006,-0.009,1023
2018,5,17,21,53,52.77,0.2139,0.075,-0.2592,0.9388,-0.8,0.1,-0.2,0.002,0.008,-0.004,1023
2018,5,17,21,53,52.79,0.2139,0.075,-0.2593,0.9387,-1.5,0.1,-0.6,0.001,0.006,-0.011,1023
2018,5,17,21,53,52.809,0.2138,0.0749,-0.2596,0.9387,-1.4,0,-0.7,0.003,0.002,-0.011,0
2018,5,17,21,53,52.832,0.2137,0.0748,-0.2599,0.9386,-1.2,-0.1,-0.5,0.003,0.001,-0.007,0
2018,5,17,21,53,52.85,0.2136,0.0747,-0.2601,0.9386,-0.5,0.1,-0.4,0.002,0.003,-0.009,0
2018,5,17,21,53,52.873,0.2135,0.0747,-0.2602,0.9386,-0.7,0.1,-0.3,0.001,0.007,-0.004,0
2018,5,17,21,53,52.889,0.2135,0.0747,-0.2604,0.9386,-1,0,-0.4,-0.001,0.005,-0.009,0
2018,5,17,21,53,52.91,0.2135,0.0746,-0.2606,0.9385,-0.5,-0.1,-0.1,0,0,-0.011,0
2018,5,17,21,53,52.928,0.2134,0.0746,-0.2606,0.9385,0,0,0,0.002,0.005,-0.006,0
2018,5,17,21,53,52.952,0.2134,0.0746,-0.2606,0.9385,0,0,0,0.001,0.005,-0.009,0
2018,5,17,21,53,52.97,0.2134,0.0746,-0.2606,0.9385,0,0,0,0.005,0.007,-0.009,0
2018,5,17,21,53,52.992,0.2134,0.0746,-0.2606,0.9385,0,0,0,0.002,0,-0.014,0
2018,5,17,21,53,53.011,0.2134,0.0746,-0.2606,0.9385,0,0,0,0.004,0.002,-0.01,0
2018,5,17,21,53,53.029,0.2134,0.0746,-0.2607,0.9385,0,0,0,0,0.003,-0.013,0
2018,5,17,21,53,53.053,0.2134,0.0746,-0.2607,0.9385,0,0,0,0.002,0.004,-0.011,0
2018,5,17,21,53,53.071,0.2134,0.0746,-0.2607,0.9385,0,0,0,0.001,0.003,-0.009,0
2018,5,17,21,53,53.094,0.2134,0.0746,-0.2607,0.9385,-0.6,0.1,0,0.004,0.004,-0.011,0
2018,5,17,21,53,53.11,0.2134,0.0746,-0.2608,0.9385,-0.6,-0.1,0,0.004,0.002,-0.006,0
2018,5,17,21,53,53.129,0.2135,0.0745,-0.261,0.9384,-0.6,-0.1,0,0.003,0.003,-0.01,1023
2018,5,17,21,53,53.153,0.2135,0.0745,-0.2611,0.9384,-0.6,-0.2,-0.1,0.003,0.007,-0.01,1023
2018,5,17,21,53,53.171,0.2135,0.0744,-0.2612,0.9384,-1,-0.2,-0.1,0.004,0.002,-0.007,1023
2018,5,17,21,53,53.194,0.2135,0.0743,-0.2614,0.9383,-1,-0.2,-0.1,0,0.002,-0.01,1023
2018,5,17,21,53,53.213,0.2134,0.0743,-0.2615,0.9383,-0.5,0,-0.1,0.002,0.006,-0.007,1023
2018,5,17,21,53,53.234,0.2134,0.0743,-0.2615,0.9383,0,0,0,0.001,0,-0.009,1023
2018,5,17,21,53,53.27,0.2134,0.0743,-0.2616,0.9383,0,0,0,0.001,0.005,-0.008,1023
2018,5,17,21,53,53.291,0.2134,0.0743,-0.2616,0.9383,0,0,0,0.003,0.002,-0.013,1023
2018,5,17,21,53,53.293,0.2134,0.0743,-0.2616,0.9383,0,0,0,0.007,0.003,-0.011,1023
2018,5,17,21,53,53.33,0.2134,0.0743,-0.2616,0.9383,0,0,0,0.002,0.008,-0.01,1023
2018,5,17,21,53,53.351,0.2134,0.0743,-0.2616,0.9383,0,0,0,0.003,0.003,-0.009,1023
2018,5,17,21,53,53.355,0.2134,0.0743,-0.2616,0.9383,0,0,0,0.001,0.004,-0.003,1023
2018,5,17,21,53,53.39,0.2134,0.0743,-0.2616,0.9383,0,0,0,0,0.004,-0.009,1023
2018,5,17,21,53,53.409,0.2134,0.0743,-0.2616,0.9383,0,0,0,0.001,0.004,-0.01,1023
2018,5,17,21,53,53.413,0.2134,0.0743,-0.2616,0.9383,-0.5,0,-0.4,0.001,0.004,-0.009,0
2018,5,17,21,53,53.431,0.2134,0.0743,-0.2617,0.9382,0,0,0,0.006,0.004,-0.012,0
2018,5,17,21,53,53.453,0.2134,0.0742,-0.2618,0.9382,-0.5,0.1,-0.2,0.003,0.001,-0.01,0
2018,5,17,21,53,53.473,0.2133,0.0742,-0.2618,0.9382,0,0,0,0.001,0.004,-0.01,0
2018,5,17,21,53,53.493,0.2133,0.0742,-0.2619,0.9382,0,0,0,0.005,0.003,-0.009,0
2018,5,17,21,53,53.531,0.2133,0.0742,-0.2619,0.9382,0,0,0,0.004,0.005,-0.01,0
2018,5,17,21,53,53.552,0.2133,0.0742,-0.2619,0.9382,-0.5,-0.1,0.1,0.003,0.01,-0.004,0
2018,5,17,21,53,53.554,0.2133,0.0742,-0.262,0.9382,0,0,0,0.002,-0.004,-0.014,0
2018,5,17,21,53,53.592,0.2134,0.0742,-0.262,0.9382,0.6,-0.2,0.5,0.003,0.002,-0.01,0
2018,5,17,21,53,53.614,0.2135,0.0742,-0.2619,0.9382,0.7,0,0.2,0.003,0.005,-0.005,0
2018,5,17,21,53,53.616,0.2135,0.0742,-0.2618,0.9382,0,0,0,0.001,0.007,-0.009,0
