time_1,time_2,time_3,time_4,time_5,time_6,w,x,y,z,droll,dpitch,dyaw,ax,ay,az,heart
2018,5,17,19,33,58.919,0.2334,-0.387,0.4191,0.7874,0,0,0,0.004,0,0.004,1023
2018,5,17,19,33,58.958,0.2336,-0.3868,0.419,0.7875,0.5,-0.3,-0.2,0.002,0.002,0.005,1023
2018,5,17,19,33,58.977,0.2338,-0.3866,0.4191,0.7874,0.7,0,-0.4,0.004,0.002,0,1023
2018,5,17,19,33,58.981,0.2341,-0.3865,0.4192,0.7874,0.5,0,-0.4,0.002,0.004,0.005,1023
2018,5,17,19,33,59,0.2343,-0.3863,0.4194,0.7872,0,0,0,0.001,0.004,0.004,1023
2018,5,17,19,33,59.021,0.2345,-0.3861,0.4195,0.7872,0,0,0,0.001,0.004,0.002,1023
2018,5,17,19,33,59.06,0.2348,-0.386,0.4196,0.7872,0,0,0,0.004,0.002,0.005,1023
2018,5,17,19,33,59.081,0.2351,-0.3859,0.4197,0.7871,0,0,0,0.005,0.011,0.001,1023
2018,5,17,19,33,59.086,0.2353,-0.3857,0.4199,0.787,-0.5,-0.1,0,0.004,0.001,0.003,1023
2018,5,17,19,33,59.103,0.2356,-0.3856,0.4199,0.787,0,0,0,0.002,0.001,0.005,0
2018,5,17,19,33,59.124,0.2358,-0.3854,0.4199,0.787,-0.5,0,0.2,0,0.002,0.001,0
2018,5,17,19,33,59.144,0.236,-0.3853,0.4196,0.7871,0,0,0,0.005,0.002,0.005,0
2018,5,17,19,33,59.165,0.2363,-0.3852,0.4198,0.787,0,0,0,0.004,0.002,0.002,0
2018,5,17,19,33,59.182,0.2366,-0.385,0.4199,0.7869,0,0,0,0.007,0,0.008,0
2018,5,17,19,33,59.22,0.2369,-0.3849,0.42,0.7869,0,0,0,0.005,0.001,0.004,0
2018,5,17,19,33,59.239,0.2371,-0.3847,0.4201,0.7868,0.7,-0.2,-0.1,0.001,0,0.001,0
2018,5,17,19,33,59.243,0.2374,-0.3846,0.4203,0.7867,0.7,-0.2,-0.2,0.005,0,0.003,0
2018,5,17,19,33,59.261,0.2377,-0.3844,0.4204,0.7866,0.7,-0.1,0,0.001,0.005,0.004,0
2018,5,17,19,33,59.284,0.2379,-0.3843,0.4206,0.7865,0.6,-0.2,0,0.001,0,0,0
2018,5,17,19,33,59.304,0.2382,-0.3841,0.4206,0.7865,0,0,0,0.001,0.005,0,0
2018,5,17,19,33,59.343,0.2384,-0.384,0.4206,0.7865,0,0,0,0.001,0.003,0.004,0
2018,5,17,19,33,59.364,0.2386,-0.3838,0.4207,0.7865,0,0,0,0.004,0.004,0.002,0
2018,5,17,19,33,59.368,0.2389,-0.3837,0.4208,0.7864,0,0,0,0.005,0.005,0.002,0
2018,5,17,19,33,59.383,0.2391,-0.3836,0.4207,0.7864,0,0,0,0.003,0.002,0.004,0
2018,5,17,19,33,59.403,0.2393,-0.3834,0.4207,0.7865,-0.5,0,0,0.003,0.001,0.005,0
2018,5,17,19,33,59.424,0.2396,-0.3833,0.4207,0.7865,0,0,0,0.003,0.001,0.008,0
2018,5,17,19,33,59.443,0.2399,-0.3831,0.4208,0.7864,0,0,0,0.004,0,0.004,0
2018,5,17,19,33,59.462,0.2401,-0.383,0.4209,0.7864,0,0,0,0.002,0,0.006,0
2018,5,17,19,33,59.502,0.2404,-0.3829,0.4209,0.7863,0,0,0,0.003,0,0.007,0
2018,5,17,19,33,59.522,0.2406,-0.3827,0.4208,0.7864,0,0,0,0.006,0.002,0.004,0
2018,5,17,19,33,59.526,0.2408,-0.3826,0.4208,0.7864,0,0,0,0.002,0.001,0,0
2018,5,17,19,33,59.545,0.2411,-0.3825,0.4209,0.7863,0,0,0,0.003,0.002,0.003,0
2018,5,17,19,33,59.564,0.2413,-0.3823,0.4209,0.7863,0,0,0,0.001,0.006,0.004,0
2018,5,17,19,33,59.588,0.2415,-0.3822,0.421,0.7862,0,0,0,0.004,0.003,0.001,0
2018,5,17,19,33,59.604,0.2417,-0.3821,0.4209,0.7863,0,0,0,0.002,0.001,-0.001,0
2018,5,17,19,33,59.622,0.2419,-0.382,0.4209,0.7863,0,0,0,0.002,0.005,-0.001,0
2018,5,17,19,33,59.641,0.2421,-0.3818,0.421,0.7862,-0.5,0,0,0,0.006,0.003,0
2018,5,17,19,33,59.68,0.2423,-0.3817,0.4208,0.7863,-0.8,0,-0.2,0.009,0,0.004,0
2018,5,17,19,33,59.701,0.2424,-0.3816,0.4206,0.7865,-0.6,0,0,0.008,0.006,0,0
2018,5,17,19,33,59.705,0.2426,-0.3815,0.4204,0.7865,-0.8,0,0.1,0.006,0.005,0.004,1023
2018,5,17,19,33,59.725,0.2428,-0.3814,0.4204,0.7865,-0.5,0.1,0.1,0.003,-0.003,0.003,1023
2018,5,17,19,33,59.745,0.243,-0.3813,0.4202,0.7867,0,0,0,-0.001,0.001,0.005,1023
2018,5,17,19,33,59.784,0.2432,-0.3811,0.4198,0.7869,0,0,0,-0.001,0,0.005,1023
2018,5,17,19,33,59.804,0.2433,-0.381,0.4195,0.7871,0.2,-0.7,0,0.004,0,0.008,1023
2018,5,17,19,33,59.808,0.2435,-0.3809,0.4194,0.7871,0.7,-0.8,-0.2,0.006,0,0.005,1023
2018,5,17,19,33,59.828,0.2437,-0.3809,0.4197,0.7869,1,-0.6,-0.3,0.003,0.005,0.005,1023
2018,5,17,19,33,59.847,0.2438,-0.3808,0.4197,0.7869,1,-0.8,-0.3,0.003,0.006,0,1023
2018,5,17,19,33,59.865,0.244,-0.3807,0.42,0.7867,1,-0.7,-0.2,-0.001,0.004,0.002,1023
2018,5,17,19,33,59.884,0.2442,-0.3806,0.4202,0.7866,0.6,-0.8,0,0,0.007,-0.001,0
2018,5,17,19,33,59.924,0.2444,-0.3806,0.4202,0.7866,0.3,-0.6,0,0,0.001,-0.001,0
2018,5,17,19,33,59.942,0.2446,-0.3806,0.4203,0.7865,0,0,0,0.006,0.005,0.005,0
2018,5,17,19,33,59.946,0.2447,-0.3805,0.4204,0.7864,0,-0.6,0.2,0.002,0.009,0.002,0
2018,5,17,19,33,59.985,0.2449,-0.3805,0.4202,0.7864,-0.2,-0.7,0.2,0.004,0.001,0.007,0
2018,5,17,19,34,0.005,0.245,-0.3806,0.4202,0.7864,-0.2,-0.7,0.2,0.003,0.001,0,0
2018,5,17,19,34,0.009,0.2452,-0.3805,0.4201,0.7864,-0.2,-0.5,0.3,0,0.003,0.005,0
2018,5,17,19,34,0.028,0.2454,-0.3805,0.4199,0.7864,-0.2,-0.5,0.3,0.002,0.003,0.004,0
2018,5,17,19,34,0.048,0.2456,-0.3805,0.4198,0.7864,0.2,-0.8,0.1,0.004,-0.001,0.006,0
2018,5,17,19,34,0.088,0.2458,-0.3805,0.42,0.7863,0.1,-0.8,0.2,0.003,0,0.001,0
2018,5,17,19,34,0.092,0.246,-0.3805,0.4202,0.7861,0.5,-1,0,0.004,0,0.004,0
2018,5,17,19,34,0.109,0.2462,-0.3805,0.4205,0.7858,0.5,-0.9,0,0.007,0,0,0
2018,5,17,19,34,0.127,0.2464,-0.3805,0.4207,0.7857,0.8,-0.7,0,0.005,0.004,0.001,0
2018,5,17,19,34,0.146,0.2466,-0.3805,0.4208,0.7856,0.7,-0.8,0,0.004,0,-0.003,0
2018,5,17,19,34,0.187,0.2467,-0.3804,0.421,0.7854,0.8,-0.8,0,0,0.003,0,0
2018,5,17,19,34,0.206,0.247,-0.3804,0.4214,0.7852,0.7,-0.6,0.2,0.003,0.004,0,0
2018,5,17,19,34,0.21,0.2472,-0.3804,0.4216,0.785,0.4,-0.6,0,0.005,0.005,0,0
2018,5,17,19,34,0.245,0.2474,-0.3804,0.4217,0.7849,0.2,-0.5,0.2,0.006,0.006,-0.006,0
2018,5,17,19,34,0.266,0.2476,-0.3803,0.4216,0.785,0.2,-0.5,0.2,0.005,0.003,0.002,0
2018,5,17,19,34,0.27,0.2477,-0.3802,0.4216,0.7849,0,-0.5,0.2,0.003,0.003,0,0
2018,5,17,19,34,0.288,0.2479,-0.3802,0.4214,0.785,0,0,0,0.001,0.001,0.007,0
2018,5,17,19,34,0.307,0.248,-0.3801,0.4213,0.7851,0.2,-0.5,0.2,0.002,-0.002,0.001,0
2018,5,17,19,34,0.344,0.2482,-0.3801,0.4213,0.785,0.1,-0.5,0.2,0.006,0.004,0.009,0
2018,5,17,19,34,0.364,0.2484,-0.3801,0.4213,0.7849,0.2,-0.5,0,0.003,0,0.007,0
2018,5,17,19,34,0.369,0.2486,-0.3801,0.4212,0.7849,0.3,-0.7,0,0.006,-0.004,0.004,0
2018,5,17,19,34,0.389,0.2488,-0.3801,0.4215,0.7848,0.4,-0.6,0,0.001,0.003,-0.001,0
2018,5,17,19,34,0.408,0.2489,-0.38,0.4215,0.7847,0,-0.5,0,0,0.004,-0.002,0
2018,5,17,19,34,0.449,0.249,-0.3799,0.4213,0.7848,0,0,0,0.004,0.008,0.001,0
2018,5,17,19,34,0.469,0.2492,-0.3799,0.4212,0.7849,-0.3,-0.5,0.1,0.006,-0.001,0.001,0
2018,5,17,19,34,0.473,0.2493,-0.3799,0.4209,0.785,0,0,0,0.012,0.001,0,0
2018,5,17,19,34,0.491,0.2494,-0.3798,0.4207,0.7851,0,0,0,0.006,0.008,0.001,0
2018,5,17,19,34,0.511,0.2496,-0.3797,0.4204,0.7852,0,0,0,0,-0.001,0.003,0
2018,5,17,19,34,0.529,0.2497,-0.3796,0.4202,0.7854,0,0,0,0,-0.001,-0.001,1023
2018,5,17,19,34,0.55,0.2498,-0.3795,0.4199,0.7855,0,0,0,0.002,0.004,0,1023
2018,5,17,19,34,0.586,0.25,-0.3794,0.4196,0.7857,0,0,0,0.006,-0.001,0.005,1023
2018,5,17,19,34,0.606,0.2501,-0.3793,0.4193,0.7858,0,0,0,0.008,-0.002,0.008,1023
2018,5,17,19,34,0.61,0.2503,-0.3792,0.4194,0.7858,0.7,-0.3,0,0.005,0,0.002,1023
2018,5,17,19,34,0.649,0.2505,-0.3792,0.4197,0.7856,0.9,-0.3,0,0.004,0.004,0.005,1023
2018,5,17,19,34,0.669,0.2506,-0.3791,0.4197,0.7856,0.8,-0.3,0,0,0.001,0.002,1023
2018,5,17,19,34,0.674,0.2508,-0.379,0.4197,0.7856,0.5,-0.2,0,-0.001,0,0.002,1023
2018,5,17,19,34,0.691,0.2509,-0.3789,0.4196,0.7856,0,0,0,0,0.001,0.002,1023
2018,5,17,19,34,0.711,0.251,-0.3789,0.4194,0.7857,0,0,0,0.002,0.004,-0.002,1023
2018,5,17,19,34,0.75,0.2511,-0.3788,0.4192,0.7858,0,0,0,0.005,0,-0.005,0
2018,5,17,19,34,0.771,0.2512,-0.3787,0.419,0.7859,0,0,0,0.008,0.004,0.001,0
2018,5,17,19,34,0.775,0.2513,-0.3787,0.4188,0.786,0,0,0,0.004,0.001,-0.001,0
2018,5,17,19,34,0.79,0.2514,-0.3786,0.4186,0.7862,-0.5,0,0.1,0.003,0,0.003,0
2018,5,17,19,34,0.81,0.2516,-0.3786,0.4184,0.7862,0,0,0,0.003,-0.002,0,0
2018,5,17,19,34,0.831,0.2517,-0.3785,0.4183,0.7863,-0.5,0.2,0,0.005,0.001,0.005,0
2018,5,17,19,34,0.869,0.2518,-0.3785,0.4181,0.7864,0,0,0,0.007,0.002,0.006,0
2018,5,17,19,34,0.889,0.2519,-0.3784,0.4178,0.7865,0,0,0,0.004,-0.001,0.009,0
2018,5,17,19,34,0.893,0.252,-0.3783,0.4176,0.7866,0,0,0,0.001,0.004,0.005,0
2018,5,17,19,34,0.931,0.2521,-0.3782,0.4174,0.7867,0,0,0,0.001,0.003,0.001,0
2018,5,17,19,34,0.951,0.2522,-0.3782,0.4173,0.7868,0,0,0,0.002,0.003,0,0
2018,5,17,19,34,0.955,0.2523,-0.3781,0.4172,0.7869,0,0,0,0.003,0.003,0.001,0
2018,5,17,19,34,0.973,0.2524,-0.378,0.4171,0.7869,0,0,0,0.003,0.003,0.002,0
2018,5,17,19,34,0.99,0.2525,-0.3779,0.4169,0.787,0,0,0,0.001,0.003,-0.001,0
2018,5,17,19,34,1.025,0.2526,-0.3779,0.4168,0.7871,0,0,0,0.005,0.003,0.002,0
2018,5,17,19,34,1.045,0.2527,-0.3778,0.4168,0.7871,-0.2,0.5,0,0.005,-0.001,0.001,0
2018,5,17,19,34,1.052,0.2528,-0.3777,0.4166,0.7872,0,0,0,0,0,0.001,0
2018,5,17,19,34,1.091,0.2529,-0.3776,0.4165,0.7873,-0.5,0.2,0,0.002,0.001,0.004,0
2018,5,17,19,34,1.111,0.2531,-0.3775,0.4164,0.7873,-0.5,0.2,0.2,0.005,0.002,0.009,0
2018,5,17,19,34,1.115,0.2532,-0.3775,0.4163,0.7873,0,0,0,0.002,0,0.004,0
2018,5,17,19,34,1.135,0.2533,-0.3774,0.4161,0.7875,0,0,0,0.005,0.001,0.008,0
2018,5,17,19,34,1.155,0.2534,-0.3773,0.4159,0.7876,0,0,0,0.004,0.003,0.004,0
2018,5,17,19,34,1.176,0.2535,-0.3772,0.4157,0.7877,0,0,0,0.002,-0.008,0,0
2018,5,17,19,34,1.194,0.2536,-0.3772,0.4155,0.7878,0,0,0,0.004,0.002,0.003,0
2018,5,17,19,34,1.213,0.2537,-0.3771,0.4154,0.7878,0,0,0,0.001,0.003,-0.003,0
2018,5,17,19,34,1.234,0.2538,-0.377,0.4156,0.7878,-0.1,0.5,-0.4,0.001,0.006,0.004,0
2018,5,17,19,34,1.253,0.2538,-0.3769,0.4157,0.7878,-0.8,0.4,-0.2,0.007,0,0.007,0
2018,5,17,19,34,1.273,0.2539,-0.3768,0.4157,0.7878,-0.8,0.4,-0.2,0.008,0,-0.002,0
2018,5,17,19,34,1.313,0.254,-0.3767,0.4156,0.7879,-0.9,0.7,-0.2,0.008,0.006,-0.003,0
2018,5,17,19,34,1.332,0.254,-0.3766,0.4157,0.7878,-1.3,0.8,0,0.004,0,-0.001,0
2018,5,17,19,34,1.336,0.2541,-0.3764,0.4154,0.788,-0.9,0.6,-0.1,0.001,0,0.002,1023
2018,5,17,19,34,1.356,0.2542,-0.3763,0.4154,0.7881,-0.7,0.8,-0.1,-0.002,0.002,0.005,1023
2018,5,17,19,34,1.376,0.2543,-0.3761,0.4153,0.7882,-0.6,0.5,-0.2,0.002,0,0.004,1023
2018,5,17,19,34,1.396,0.2544,-0.376,0.4152,0.7882,0,0,0,0.003,-0.001,0.009,1023
2018,5,17,19,34,1.416,0.2545,-0.3759,0.415,0.7883,0,0,-0.5,0.002,0.002,0.003,1023
2018,5,17,19,34,1.455,0.2545,-0.3758,0.415,0.7884,0.2,0.4,-0.5,0.003,0.005,0.003,1023
2018,5,17,19,34,1.474,0.2546,-0.3757,0.4152,0.7883,0.2,0.2,-0.5,0.004,0.001,0.004,1023
2018,5,17,19,34,1.478,0.2547,-0.3756,0.4151,0.7884,0,0.1,-0.5,0,-0.003,0.006,1023
2018,5,17,19,34,1.496,0.2548,-0.3755,0.4149,0.7885,0,0,0,0,0.001,0.007,1023
2018,5,17,19,34,1.531,0.2548,-0.3754,0.4148,0.7886,0,0,0,0.002,0.001,0,0
2018,5,17,19,34,1.553,0.2549,-0.3753,0.4146,0.7887,0,0,0,0.002,0.005,0,0
2018,5,17,19,34,1.557,0.2549,-0.3753,0.4146,0.7888,-0.6,0.1,-0.1,0.002,0.002,0.004,0
2018,5,17,19,34,1.578,0.255,-0.3752,0.4145,0.7888,-0.5,0,-0.2,0.004,0.005,0.002,0
2018,5,17,19,34,1.617,0.2551,-0.3752,0.4147,0.7887,-0.6,0.2,0,0,0.003,0.005,0
2018,5,17,19,34,1.635,0.2552,-0.3751,0.4147,0.7887,-0.6,0.3,0,0.002,0.003,0.002,0
2018,5,17,19,34,1.639,0.2553,-0.375,0.4147,0.7887,0,0,0,0.001,0.001,0.003,0
2018,5,17,19,34,1.658,0.2553,-0.375,0.4145,0.7888,0,0,0,0.004,0,0.008,0
2018,5,17,19,34,1.678,0.2554,-0.3749,0.4144,0.7889,0,0,0,0.003,0.001,0.002,0
2018,5,17,19,34,1.696,0.2555,-0.3748,0.4142,0.789,0,0,0,0.005,-0.002,0.007,0
2018,5,17,19,34,1.717,0.2556,-0.3748,0.4141,0.789,0,0,0,0.003,0.002,0.008,0
2018,5,17,19,34,1.738,0.2557,-0.3747,0.4145,0.7888,0.7,0,-0.2,0.001,0.003,0.003,0
2018,5,17,19,34,1.759,0.2558,-0.3746,0.4148,0.7887,0.6,0.1,-0.2,0,0.001,0.004,0
2018,5,17,19,34,1.776,0.2559,-0.3745,0.4149,0.7886,0,0,0,0.004,0.001,0.001,0
2018,5,17,19,34,1.815,0.256,-0.3744,0.4147,0.7887,0,0,0,0.006,0.005,0.002,0
2018,5,17,19,34,1.835,0.256,-0.3744,0.4146,0.7888,0,0,0,0.001,0.006,0.002,0
2018,5,17,19,34,1.839,0.2561,-0.3743,0.4145,0.7889,0,0,0,0.005,0.003,0.001,0
2018,5,17,19,34,1.858,0.2562,-0.3742,0.4145,0.7889,0,0,0,0.003,0.003,0.002,0
2018,5,17,19,34,1.879,0.2563,-0.3741,0.4144,0.789,0,0,0,0.001,0.002,0.004,0
2018,5,17,19,34,1.916,0.2563,-0.3741,0.4142,0.789,0,0,0,-0.001,-0.001,0.004,0
2018,5,17,19,34,1.92,0.2564,-0.374,0.4141,0.7891,0,0,0,0.001,0,0.005,0
2018,5,17,19,34,1.937,0.2565,-0.3739,0.4139,0.7892,0,0,0,0.002,0,0.004,0
2018,5,17,19,34,1.959,0.2566,-0.3738,0.4137,0.7893,0,0,0,0.005,0,0.007,0
2018,5,17,19,34,1.978,0.2566,-0.3738,0.4136,0.7894,0,0,0,0.005,0.002,0.003,0
2018,5,17,19,34,1.999,0.2567,-0.3738,0.4134,0.7895,0,0,0,0.006,0.005,0.002,0
2018,5,17,19,34,2.018,0.2568,-0.3737,0.4133,0.7896,0,0,0,0.003,-0.001,0,0
2018,5,17,19,34,2.057,0.2568,-0.3737,0.4132,0.7896,0,0,0,0.003,0.005,0,0
2018,5,17,19,34,2.079,0.2568,-0.3736,0.4131,0.7897,0,0,0,0,0.005,0,0
2018,5,17,19,34,2.084,0.2568,-0.3735,0.4131,0.7897,0,0,0,0.003,0.006,0.002,0
2018,5,17,19,34,2.103,0.2569,-0.3735,0.413,0.7898,-0.8,0.4,0,0.006,0.002,0.001,1023
2018,5,17,19,34,2.123,0.257,-0.3734,0.4132,0.7897,-0.7,0.3,-0.1,0.008,0.002,0.001,1023
2018,5,17,19,34,2.139,0.257,-0.3734,0.4132,0.7897,-0.9,0.3,0,0.004,0.006,0.001,1023
2018,5,17,19,34,2.176,0.2571,-0.3733,0.4131,0.7898,-1.1,0.3,0,-0.002,-0.001,0.005,1023
2018,5,17,19,34,2.198,0.2572,-0.3732,0.413,0.7898,-0.7,0.3,0,-0.002,-0.003,0.005,1023
2018,5,17,19,34,2.202,0.2573,-0.3731,0.4129,0.7899,0,0,0,-0.001,0.003,0.006,1023
2018,5,17,19,34,2.219,0.2573,-0.373,0.4127,0.79,0,0,0,0.003,0.001,0.006,1023
2018,5,17,19,34,2.239,0.2574,-0.373,0.4125,0.7901,0,0,0,0.002,0,0.009,1023
2018,5,17,19,34,2.278,0.2575,-0.3729,0.4127,0.79,0.6,-0.2,-0.2,0.004,0.002,0.007,1023
2018,5,17,19,34,2.298,0.2576,-0.3728,0.413,0.7898,0.7,-0.2,-0.4,0.002,0.004,0,0
2018,5,17,19,34,2.302,0.2577,-0.3727,0.4135,0.7896,0.5,-0.2,-0.4,0,0.003,0.005,0
2018,5,17,19,34,2.322,0.2578,-0.3727,0.4137,0.7895,0,0,0,0.001,0.002,0.003,0
2018,5,17,19,34,2.343,0.2578,-0.3726,0.4135,0.7896,0,0,0,0.003,0.003,-0.002,0
2018,5,17,19,34,2.38,0.2579,-0.3726,0.4134,0.7897,0,0,0,0.001,0.001,-0.001,0
2018,5,17,19,34,2.401,0.2579,-0.3725,0.4133,0.7897,0,0,0,0.003,0.004,0.001,0
2018,5,17,19,34,2.405,0.258,-0.3725,0.4133,0.7897,0,0,0,0.004,0.001,0.005,0
2018,5,17,19,34,2.42,0.258,-0.3724,0.4132,0.7898,0,0,0,0,0.004,0.001,0
2018,5,17,19,34,2.46,0.2581,-0.3723,0.4131,0.7899,0,0,0,0.004,0,0.003,0
2018,5,17,19,34,2.481,0.2582,-0.3723,0.4129,0.79,0,0,0,0.003,0.001,0.004,0
2018,5,17,19,34,2.485,0.2582,-0.3722,0.4128,0.7901,0,0,0,0.006,0.002,0.003,0
2018,5,17,19,34,2.503,0.2583,-0.3722,0.4126,0.7901,0,0,0,0.004,0.003,0.004,0
2018,5,17,19,34,2.523,0.2584,-0.3722,0.4128,0.79,0.6,-0.4,-0.3,0.005,0,0.008,0
2018,5,17,19,34,2.542,0.2585,-0.3721,0.413,0.7899,0.8,-0.4,0,0.003,0.002,0.002,0
2018,5,17,19,34,2.582,0.2585,-0.3721,0.4133,0.7898,0.9,-0.5,-0.1,0.001,0.003,0.002,0
2018,5,17,19,34,2.602,0.2586,-0.3721,0.4136,0.7896,1,-0.5,0,0.003,0.005,0.001,0
2018,5,17,19,34,2.606,0.2587,-0.372,0.4138,0.7894,0.6,-0.3,0,0.001,0.003,0.002,0
2018,5,17,19,34,2.621,0.2588,-0.372,0.414,0.7893,0.4,-0.5,0.2,0.002,0.004,0.003,0
2018,5,17,19,34,2.658,0.2589,-0.372,0.414,0.7893,0,0,0,0.004,0.005,0,0
2018,5,17,19,34,2.679,0.2589,-0.372,0.4139,0.7894,0,0,0,0.006,0.004,0.004,0
2018,5,17,19,34,2.683,0.2589,-0.3719,0.4138,0.7895,0,0,0,0.003,0.002,0.002,0
2018,5,17,19,34,2.704,0.259,-0.3719,0.4137,0.7895,0,0,0,0.007,0.001,0,0
2018,5,17,19,34,2.723,0.2591,-0.3719,0.4137,0.7895,0,-0.5,0.2,0.004,0.003,0.007,0
2018,5,17,19,34,2.761,0.2592,-0.3719,0.4138,0.7894,0,0,0,0.003,0.002,0.008,0
2018,5,17,19,34,2.781,0.2593,-0.372,0.4141,0.7892,0.4,-0.5,0.1,0.003,0,0.007,0
2018,5,17,19,34,2.786,0.2594,-0.372,0.4146,0.7888,0.2,-0.7,0.2,0.002,0,0.006,0
2018,5,17,19,34,2.823,0.2595,-0.3721,0.4149,0.7886,0.2,-0.6,0,0.004,-0.006,0,0
2018,5,17,19,34,2.827,0.2596,-0.3722,0.415,0.7885,0.7,-0.8,0,0.006,0.002,0.002,0
2018,5,17,19,34,2.842,0.2596,-0.3722,0.4151,0.7884,0.4,-0.5,0,0.004,0.007,-0.002,0
2018,5,17,19,34,2.862,0.2597,-0.3722,0.4154,0.7882,0,-0.5,0,0,0.007,0,1023
2018,5,17,19,34,2.883,0.2597,-0.3722,0.4153,0.7882,0,0,0,0.004,0,0,1023
2018,5,17,19,34,2.903,0.2597,-0.3723,0.4153,0.7882,0,0,0,0.005,0,0.003,1023
2018,5,17,19,34,2.925,0.2598,-0.3723,0.4152,0.7883,0,0,0,0.007,0.009,0.002,1023
2018,5,17,19,34,2.944,0.2598,-0.3723,0.4153,0.7882,-0.6,0,0.2,0.006,0.001,0,1023
2018,5,17,19,34,2.98,0.2599,-0.3723,0.4152,0.7882,0,0,0,0.003,-0.001,0,1023
2018,5,17,19,34,3,0.26,-0.3723,0.4151,0.7883,0,0,0,0,0.002,0.005,1023
2018,5,17,19,34,3.002,0.26,-0.3722,0.4149,0.7883,0,0,0,0.003,0.002,0.002,1023
2018,5,17,19,34,3.041,0.2601,-0.3722,0.415,0.7883,0.2,-0.5,0,0.006,-0.002,0.005,1023
2018,5,17,19,34,3.06,0.2602,-0.3722,0.4153,0.7881,0.7,-0.7,0,0.004,0.002,0.004,0
2018,5,17,19,34,3.068,0.2603,-0.3722,0.4156,0.7879,0.8,-0.5,0,0.006,0.004,0.008,0
2018,5,17,19,34,3.089,0.2604,-0.3723,0.416,0.7876,1,-0.6,0,0.004,0.002,0.001,0
2018,5,17,19,34,3.11,0.2605,-0.3723,0.4165,0.7873,0.5,-0.6,0.1,0.003,0.003,-0.001,0
2018,5,17,19,34,3.127,0.2606,-0.3724,0.4168,0.7871,0.7,-0.7,0.3,0.004,0.005,0.001,0
2018,5,17,19,34,3.145,0.2607,-0.3724,0.4168,0.7871,0.4,-0.9,0.2,0.004,0.004,-0.003,0
2018,5,17,19,34,3.183,0.2608,-0.3725,0.4167,0.787,0.3,-0.6,0.3,0.005,0.005,0,0
2018,5,17,19,34,3.203,0.2609,-0.3725,0.417,0.7868,-0.1,-0.5,0.3,0.005,0.005,0.001,0
2018,5,17,19,34,3.207,0.261,-0.3726,0.4172,0.7866,-0.2,-0.6,0.3,0.007,0.002,0,0
2018,5,17,19,34,3.228,0.261,-0.3727,0.4172,0.7866,-0.1,-0.5,0.4,0.004,0.003,0.004,0
2018,5,17,19,34,3.248,0.2612,-0.3728,0.4174,0.7864,-0.1,-0.5,0.5,0.003,0,0.004,0
2018,5,17,19,34,3.27,0.2613,-0.3729,0.4177,0.7862,0,-0.8,0.4,0.006,0.001,0.004,0
2018,5,17,19,34,3.289,0.2615,-0.373,0.4179,0.786,0.1,-0.6,0.1,0.005,-0.001,0.001,0
2018,5,17,19,34,3.306,0.2615,-0.373,0.418,0.7858,0.3,-0.7,0,0.003,-0.001,0.002,0
2018,5,17,19,34,3.326,0.2617,-0.3731,0.4184,0.7855,0.6,-0.8,0,0.005,0.001,0.004,0
2018,5,17,19,34,3.346,0.2618,-0.3731,0.4188,0.7853,0.8,-0.8,0,0.004,0.002,0.002,0
2018,5,17,19,34,3.381,0.2619,-0.3731,0.4191,0.7851,0.9,-0.5,0,0,0,0.002,0
2018,5,17,19,34,3.402,0.262,-0.3731,0.4193,0.785,0.8,-0.5,0.2,0,0.003,0,0
2018,5,17,19,34,3.406,0.2622,-0.3731,0.4196,0.7848,0.6,-0.2,0,0.004,0.004,0,0
2018,5,17,19,34,3.446,0.2623,-0.3731,0.4198,0.7846,0,0,0,0.005,0.002,0,0
2018,5,17,19,34,3.466,0.2624,-0.373,0.4197,0.7846,0,0,0,0.007,0.006,-0.001,0
2018,5,17,19,34,3.47,0.2624,-0.373,0.4196,0.7847,0,0,0,0.003,0,0.001,0
2018,5,17,19,34,3.49,0.2625,-0.3729,0.4194,0.7848,0,0,0,0.004,0.002,0,0
2018,5,17,19,34,3.509,0.2626,-0.3729,0.4193,0.7849,0,0,0,0.003,-0.001,0,0
2018,5,17,19,34,3.526,0.2627,-0.3729,0.4191,0.7849,0,0,0,0.004,0,0.005,0
2018,5,17,19,34,3.571,0.2627,-0.3728,0.419,0.785,0,0,0,0.001,0,0.006,0
2018,5,17,19,34,3.573,0.2628,-0.3728,0.4188,0.7851,0,0,0,0.006,-0.007,0,0
2018,5,17,19,34,3.586,0.2629,-0.3728,0.4187,0.7852,0,0,0,0.003,0.004,0.001,0
2018,5,17,19,34,3.623,0.263,-0.3727,0.4185,0.7852,0,0,0,0.004,0.003,-0.002,0
2018,5,17,19,34,3.644,0.263,-0.3727,0.4185,0.7853,0,0,0,0.005,0.004,0.004,0
2018,5,17,19,34,3.646,0.2631,-0.3726,0.4183,0.7853,0,0,0,0.005,-0.002,0.002,0
2018,5,17,19,34,3.684,0.2632,-0.3726,0.4183,0.7853,0,0,0,0.008,-0.002,0.002,0
2018,5,17,19,34,3.704,0.2632,-0.3726,0.4183,0.7853,-0.5,0.4,-0.1,0.006,0.003,-0.005,1023
2018,5,17,19,34,3.708,0.2633,-0.3725,0.4183,0.7853,-0.9,0.5,-0.1,0.004,0,0,1023
2018,5,17,19,34,3.743,0.2634,-0.3725,0.4185,0.7852,-0.6,0.3,0,0,0,0.002,1023
2018,5,17,19,34,3.764,0.2635,-0.3724,0.4184,0.7853,0,0,0,0.001,0.007,0.005,1023
2018,5,17,19,34,3.767,0.2636,-0.3723,0.4184,0.7853,0,0,0,0.005,0.001,0.009,1023
2018,5,17,19,34,3.805,0.2637,-0.3722,0.4182,0.7854,0,0,0,0.004,-0.001,0.006,1023
2018,5,17,19,34,3.826,0.2637,-0.3722,0.4181,0.7855,0,0,0,0.005,0.002,0.001,1023
2018,5,17,19,34,3.827,0.2638,-0.3721,0.418,0.7855,0,0,0,0,0.004,0.002,1023
2018,5,17,19,34,3.867,0.2638,-0.3721,0.418,0.7855,0.5,0,-0.2,0.003,0.004,0.002,1023
2018,5,17,19,34,3.887,0.2639,-0.372,0.4179,0.7856,0,0,0,-0.001,0.002,0.001,0
2018,5,17,19,34,3.889,0.2639,-0.372,0.4178,0.7857,0,0,0,0.003,0.003,0.001,0
2018,5,17,19,34,3.926,0.264,-0.3719,0.4177,0.7857,0,0,0,0.001,0.004,0.001,0
2018,5,17,19,34,3.945,0.264,-0.3719,0.4176,0.7858,0,0,0,0.004,0.006,0.003,0
2018,5,17,19,34,3.949,0.264,-0.3718,0.4175,0.7858,0,0,0,0.001,0.003,0.003,0
2018,5,17,19,34,3.987,0.2641,-0.3718,0.4176,0.7858,-0.6,0.3,0,0.003,0.005,0.003,0
2018,5,17,19,34,4.007,0.2642,-0.3717,0.4176,0.7858,-0.8,0.3,0.2,0.003,0,0.002,0
2018,5,17,19,34,4.009,0.2643,-0.3717,0.4177,0.7857,-0.8,0.6,0.1,0,0.002,0.006,0
2018,5,17,19,34,4.049,0.2645,-0.3716,0.4178,0.7856,0,0,0,0.003,-0.002,0.004,0
2018,5,17,19,34,4.07,0.2645,-0.3715,0.4175,0.7858,-0.5,0.4,-0.1,0.007,0,0.004,0
2018,5,17,19,34,4.074,0.2646,-0.3715,0.4173,0.7859,0,0,0,0.007,-0.001,0.006,0
2018,5,17,19,34,4.11,0.2646,-0.3715,0.4172,0.786,0,0,0,0.006,-0.002,0.004,0
2018,5,17,19,34,4.129,0.2647,-0.3714,0.4171,0.786,0,0,0,0.003,0,0,0
2018,5,17,19,34,4.134,0.2647,-0.3714,0.417,0.7861,0,0,0,0.004,0.002,0,0
2018,5,17,19,34,4.153,0.2648,-0.3713,0.4169,0.7861,0,0,0,0,0.003,0.003,0
2018,5,17,19,34,4.173,0.2648,-0.3713,0.4168,0.7862,0,0,0,0.001,0.002,0.001,0
2018,5,17,19,34,4.195,0.2649,-0.3712,0.4167,0.7863,0,0,0,0.003,0.004,0.003,0
2018,5,17,19,34,4.211,0.2649,-0.3711,0.4167,0.7863,-0.2,0.5,-0.2,0.002,0.005,0.001,0
2018,5,17,19,34,4.251,0.265,-0.371,0.4168,0.7863,0,0,0,0.001,0.005,0.002,0
2018,5,17,19,34,4.271,0.265,-0.3709,0.4167,0.7863,-0.5,0.4,-0.2,0.002,0,0.006,0
2018,5,17,19,34,4.275,0.2651,-0.3709,0.4167,0.7864,-0.6,0.4,0,0.003,0.004,0.005,0
2018,5,17,19,34,4.294,0.2651,-0.3708,0.4168,0.7863,-0.6,0.3,-0.1,0.004,0.005,0.006,0
2018,5,17,19,34,4.314,0.2652,-0.3707,0.4167,0.7864,-0.5,0.4,-0.2,0.003,0,0.007,0
2018,5,17,19,34,4.334,0.2653,-0.3706,0.4167,0.7864,0,0,0,0.003,0.001,0.008,0
2018,5,17,19,34,4.371,0.2653,-0.3705,0.4166,0.7865,0,0,0,0.003,-0.004,0.005,0
2018,5,17,19,34,4.392,0.2654,-0.3705,0.4165,0.7866,0,0,0,0.004,0.004,0.006,0
2018,5,17,19,34,4.396,0.2654,-0.3705,0.4164,0.7866,0.1,0.2,-0.5,-0.001,0,0,0
2018,5,17,19,34,4.417,0.2654,-0.3703,0.4166,0.7866,0,0.3,-0.7,0,0.008,0,0
2018,5,17,19,34,4.437,0.2655,-0.3702,0.4167,0.7866,0,0,0,0.003,0.007,0.006,0
2018,5,17,19,34,4.451,0.2655,-0.3701,0.4169,0.7865,-0.8,0.6,-0.4,0.009,0.001,0.001,0
2018,5,17,19,34,4.49,0.2655,-0.37,0.4168,0.7865,-0.6,0.6,-0.4,0.007,0.006,0.002,0
2018,5,17,19,34,4.51,0.2656,-0.3699,0.417,0.7865,-1.1,0.8,0,0.003,0.001,0.001,1023
2018,5,17,19,34,4.514,0.2657,-0.3698,0.417,0.7865,-0.8,0.5,-0.1,-0.001,-0.001,-0.001,1023
2018,5,17,19,34,4.533,0.2657,-0.3697,0.4167,0.7867,-0.6,0.3,-0.2,0.001,0.002,0.005,1023
2018,5,17,19,34,4.553,0.2658,-0.3696,0.4168,0.7867,-0.5,0.3,0,-0.001,0,0.005,1023
2018,5,17,19,34,4.595,0.2659,-0.3695,0.4168,0.7867,0,0,0,0.002,0,0.003,1023
2018,5,17,19,34,4.614,0.2659,-0.3694,0.4166,0.7868,0,0,0,0.001,0.004,0.005,1023
2018,5,17,19,34,4.618,0.266,-0.3694,0.4165,0.7869,0,0,0,0.004,0.004,0.007,1023
2018,5,17,19,34,4.635,0.266,-0.3693,0.4165,0.7869,0.5,0,-0.5,0.003,0.004,0.007,1023
2018,5,17,19,34,4.676,0.2661,-0.3692,0.4164,0.787,0,0,0,0.001,0.001,0.005,1023
2018,5,17,19,34,4.697,0.2661,-0.3691,0.4163,0.7871,0,0,0,0.003,0.004,0.008,1023
2018,5,17,19,34,4.701,0.2661,-0.3691,0.4162,0.7871,0,0,0,0.001,0.001,0.001,0
2018,5,17,19,34,4.714,0.2662,-0.369,0.4161,0.7872,0,0,0,0,0.008,0.002,0
2018,5,17,19,34,4.752,0.2662,-0.3689,0.416,0.7873,0,0,0,0.003,0.006,0.005,0
2018,5,17,19,34,4.772,0.2662,-0.3689,0.416,0.7873,-0.5,0,0,0.005,0.001,0.005,0
2018,5,17,19,34,4.776,0.2663,-0.3688,0.416,0.7873,0,0,0,0.001,0.003,0.005,0
2018,5,17,19,34,4.796,0.2663,-0.3688,0.416,0.7873,-0.5,0,0.1,0.001,0.004,0.005,0
2018,5,17,19,34,4.815,0.2664,-0.3687,0.4159,0.7873,0,0,0,0.003,0.003,0.006,0
2018,5,17,19,34,4.852,0.2664,-0.3686,0.4158,0.7875,0,0,0,0,0.002,0.009,0
2018,5,17,19,34,4.873,0.2664,-0.3686,0.4157,0.7875,0,0,0,0.005,0.002,0.004,1023
2018,5,17,19,34,4.877,0.2665,-0.3685,0.4155,0.7876,0,0,0,0.004,0.001,0.004,1023
2018,5,17,19,34,4.913,0.2665,-0.3685,0.4155,0.7876,0.5,-0.1,-0.3,0.004,0.002,0.003,1023
2018,5,17,19,34,4.933,0.2666,-0.3684,0.4159,0.7874,0.7,0,-0.1,0,0.006,0,1023
2018,5,17,19,34,4.94,0.2667,-0.3683,0.416,0.7874,0.6,0,-0.1,0.002,0.004,0,1023
2018,5,17,19,34,4.961,0.2667,-0.3682,0.4161,0.7874,0,0,0,0.001,0.003,0,1023
2018,5,17,19,34,4.98,0.2668,-0.3682,0.416,0.7874,0,0,0,0.004,0.007,-0.003,1023
2018,5,17,19,34,5,0.2668,-0.3682,0.416,0.7875,0,0,0,0.002,0.004,0,1023
2018,5,17,19,34,5.017,0.2668,-0.3681,0.4159,0.7875,0,0,0,0.001,0.005,0.001,1023
2018,5,17,19,34,5.057,0.2668,-0.3681,0.4158,0.7876,0,0,0,0.001,0.003,0.006,1023
2018,5,17,19,34,5.078,0.2669,-0.368,0.4157,0.7876,0,0,0,0.002,0,0.01,1023
2018,5,17,19,34,5.082,0.2669,-0.3679,0.4156,0.7877,0,0,0,0.001,0.001,0.004,1023
2018,5,17,19,34,5.101,0.267,-0.3679,0.4155,0.7878,0,0,0,0.002,0,0.003,1023
2018,5,17,19,34,5.12,0.267,-0.3678,0.4154,0.7878,0,0,0,0.004,0.001,0.003,1023
2018,5,17,19,34,5.141,0.2671,-0.3678,0.4153,0.7879,0,0,0,0.003,0,0.003,1023
2018,5,17,19,34,5.161,0.2671,-0.3678,0.4152,0.7879,0,0,0,0.006,0.003,0.006,1023
2018,5,17,19,34,5.181,0.2671,-0.3677,0.4151,0.788,0,0,0,0.004,-0.002,0.001,1023
2018,5,17,19,34,5.201,0.2672,-0.3677,0.415,0.788,0,0,0,0,0.006,0.004,1023
2018,5,17,19,34,5.239,0.2672,-0.3677,0.415,0.7881,0,0,0,0.001,0,0,0
2018,5,17,19,34,5.259,0.2672,-0.3676,0.4149,0.7881,0,0,0,0.001,0.006,0.001,0
2018,5,17,19,34,5.263,0.2672,-0.3675,0.4149,0.7882,0,0,0,0.002,0.006,0.003,0
2018,5,17,19,34,5.28,0.2672,-0.3675,0.4148,0.7882,0,0,0,0.007,0,0.003,0
2018,5,17,19,34,5.299,0.2673,-0.3675,0.4147,0.7882,0,0,0,0.005,0.008,0,0
2018,5,17,19,34,5.336,0.2673,-0.3675,0.4147,0.7882,-0.6,0,0,0,0.001,0.007,0
2018,5,17,19,34,5.355,0.2674,-0.3674,0.4147,0.7883,0,0,0,0,-0.001,0.002,0
2018,5,17,19,34,5.363,0.2674,-0.3674,0.4146,0.7883,0,0,0,-0.002,0,0.004,0
2018,5,17,19,34,5.4,0.2674,-0.3673,0.4145,0.7884,0,0,0,0,0.003,0.007,0
2018,5,17,19,34,5.419,0.2675,-0.3673,0.4144,0.7885,0,0,0,0.002,0.001,0.005,0
2018,5,17,19,34,5.424,0.2675,-0.3673,0.4147,0.7883,0.8,-0.5,0,0.004,0.004,0.007,0
2018,5,17,19,34,5.46,0.2676,-0.3673,0.415,0.7881,0.8,-0.6,0,0.004,0.004,0.006,0
2018,5,17,19,34,5.481,0.2677,-0.3673,0.4154,0.7878,0.7,-0.6,-0.2,0.001,0.001,0.005,0
2018,5,17,19,34,5.485,0.2677,-0.3673,0.4157,0.7877,0.6,-0.5,0,0,0.004,0.005,0
2018,5,17,19,34,5.5,0.2678,-0.3673,0.416,0.7875,0.4,-0.5,0.1,0.003,0.003,0,0
2018,5,17,19,34,5.534,0.2678,-0.3673,0.416,0.7875,0.2,-0.5,0.1,0.003,0.002,0,0
2018,5,17,19,34,5.554,0.2679,-0.3673,0.416,0.7874,0.2,-0.6,0,0.003,0.007,0.001,0
2018,5,17,19,34,5.562,0.2679,-0.3674,0.4162,0.7873,-0.2,-0.6,0.2,0.005,0.001,0.007,0
2018,5,17,19,34,5.601,0.2679,-0.3675,0.4164,0.7871,-0.1,-0.7,0.1,0.003,0.001,0.004,0
2018,5,17,19,34,5.621,0.268,-0.3676,0.4167,0.7869,0,-0.6,0.2,0.003,0.004,0.003,0
2018,5,17,19,34,5.625,0.268,-0.3676,0.4166,0.7869,0,0,0,0.006,0.002,0.005,0
2018,5,17,19,34,5.643,0.2681,-0.3677,0.4165,0.787,0,-0.5,0.1,0.001,0,0.001,0
2018,5,17,19,34,5.665,0.2681,-0.3677,0.4168,0.7868,0.1,-0.5,0,0.003,0.001,0.001,0
2018,5,17,19,34,5.685,0.2682,-0.3678,0.417,0.7866,0.3,-0.7,0,0.005,-0.002,0.006,0
2018,5,17,19,34,5.702,0.2683,-0.3679,0.4174,0.7863,0.7,-0.6,0,0.003,0,0.002,0
2018,5,17,19,34,5.724,0.2684,-0.3679,0.4178,0.786,0.9,-0.8,0,0.005,0.001,0,0
2018,5,17,19,34,5.742,0.2684,-0.3679,0.418,0.7859,0.8,-0.6,0,0.002,0.003,0,0
2018,5,17,19,34,5.782,0.2685,-0.368,0.4184,0.7857,1,-0.6,-0.2,0.003,0.001,0,0
2018,5,17,19,34,5.803,0.2686,-0.368,0.4186,0.7855,0.5,-0.6,0,0,0.005,0.005,0
2018,5,17,19,34,5.807,0.2687,-0.368,0.4188,0.7854,0,0,0,0.003,0.001,0.002,0
2018,5,17,19,34,5.824,0.2688,-0.368,0.4191,0.7852,0,0,0,0.005,0.005,0.002,0
2018,5,17,19,34,5.846,0.2688,-0.368,0.4192,0.7851,0,0,0,0.006,0.004,0.002,0
2018,5,17,19,34,5.865,0.2689,-0.368,0.4192,0.7851,0.2,-0.5,0.2,0.002,0,0.004,0
2018,5,17,19,34,5.904,0.269,-0.368,0.4195,0.7849,0,-0.5,0.3,0.004,0.001,0.003,0
2018,5,17,19,34,5.908,0.2691,-0.368,0.4196,0.7848,0,-0.6,0.3,0.004,0.004,0.006,0
2018,5,17,19,34,5.924,0.2692,-0.3681,0.4196,0.7847,0.1,-0.6,0.1,0.002,0,0.003,0
2018,5,17,19,34,5.943,0.2693,-0.3681,0.42,0.7845,0.4,-0.7,0,0.003,0.002,0.006,0
2018,5,17,19,34,5.962,0.2694,-0.3682,0.4203,0.7843,0.5,-0.6,0.1,0.005,0.002,0.004,0
2018,5,17,19,34,6.001,0.2695,-0.3682,0.4206,0.784,0.4,-0.5,0.1,0.007,-0.005,0.002,0
2018,5,17,19,34,6.021,0.2696,-0.3683,0.4208,0.7839,0.7,-0.6,0,0.002,0.002,-0.001,0
2018,5,17,19,34,6.025,0.2697,-0.3683,0.4213,0.7835,0.6,-0.6,0,0.004,0.005,-0.003,0
2018,5,17,19,34,6.047,0.2698,-0.3684,0.4218,0.7832,0.2,-0.5,0,0.001,0.009,-0.001,0
2018,5,17,19,34,6.066,0.2699,-0.3683,0.4218,0.7832,0,0,0,0.003,0.005,0.004,1023
2018,5,17,19,34,6.106,0.2699,-0.3683,0.4217,0.7833,0,0,0,0.01,0,0,1023
2018,5,17,19,34,6.125,0.27,-0.3683,0.4216,0.7833,0,0,0,0.009,0.01,-0.002,1023
2018,5,17,19,34,6.129,0.2701,-0.3682,0.4216,0.7833,-0.5,0.2,0.2,0.001,0,-0.001,1023
2018,5,17,19,34,6.145,0.2701,-0.3682,0.4215,0.7833,0,0,0,0,0,0.005,1023
2018,5,17,19,34,6.166,0.2702,-0.3682,0.4214,0.7834,0,0,0,0.002,0.004,0,1023
2018,5,17,19,34,6.185,0.2703,-0.3681,0.4212,0.7835,0,0,0,0.001,-0.002,0.004,1023
2018,5,17,19,34,6.206,0.2703,-0.3681,0.4211,0.7836,0,0,0,0.005,-0.002,0.005,1023
2018,5,17,19,34,6.243,0.2704,-0.368,0.421,0.7835,0.7,-0.3,0,0.007,0.001,0.003,1023
2018,5,17,19,34,6.265,0.2705,-0.368,0.4212,0.7834,0.7,-0.1,0,0.003,0.005,0.002,0
2018,5,17,19,34,6.269,0.2706,-0.3679,0.4214,0.7833,0.5,0,-0.1,0.005,0.002,0.004,0
2018,5,17,19,34,6.287,0.2707,-0.3679,0.4215,0.7833,0,0,0,0.003,0.001,0.005,0
2018,5,17,19,34,6.307,0.2708,-0.3678,0.4215,0.7833,0,0,0,0,0.004,-0.001,0
2018,5,17,19,34,6.327,0.2708,-0.3677,0.4214,0.7834,0,0,0,-0.001,0.003,-0.001,0
2018,5,17,19,34,6.349,0.2708,-0.3677,0.4213,0.7834,0,-0.7,0.7,-0.002,0.004,0.002,0
2018,5,17,19,34,6.387,0.2709,-0.3677,0.4214,0.7833,0,-1.2,1.1,-0.007,0.016,0.016,0
2018,5,17,19,34,6.391,0.2711,-0.3678,0.4216,0.7831,0,-1.6,2.5,-0.012,0.029,0.023,0
2018,5,17,19,34,6.409,0.2714,-0.3679,0.4217,0.7829,0.5,-2.2,4.5,-0.02,0.035,0.033,0
2018,5,17,19,34,6.427,0.2718,-0.3682,0.4217,0.7827,0.3,-3.8,6.1,-0.032,0.038,0.048,0
2018,5,17,19,34,6.446,0.2724,-0.3687,0.4215,0.7823,0,-6,8.8,-0.039,0.047,0.052,0
2018,5,17,19,34,6.468,0.2732,-0.3697,0.4215,0.7815,0.4,-7.7,12.7,-0.034,0.082,0.074,0
2018,5,17,19,34,6.505,0.2745,-0.3711,0.4213,0.7805,3.3,-9.1,17.8,-0.037,0.079,0.052,0
2018,5,17,19,34,6.527,0.2767,-0.3729,0.4218,0.7787,5.8,-9.9,23.8,-0.037,0.1,0.051,0
2018,5,17,19,34,6.531,0.2799,-0.3755,0.4218,0.7762,8,-11.6,31,-0.048,0.124,0.068,0
2018,5,17,19,34,6.549,0.2842,-0.3795,0.4216,0.7728,8,-15.6,38.5,-0.054,0.123,0.11,0
2018,5,17,19,34,6.587,0.289,-0.3848,0.4211,0.7687,9.8,-25.2,45.2,-0.086,0.116,0.169,0
2018,5,17,19,34,6.606,0.2941,-0.3921,0.4214,0.7629,18.1,-40.8,52.4,-0.16,0.129,0.234,0
2018,5,17,19,34,6.611,0.299,-0.4024,0.4227,0.7549,13.5,-63.8,61.6,-0.22,0.178,0.248,0
2018,5,17,19,34,6.646,0.3029,-0.4165,0.4234,0.7452,6.4,-81.3,71.4,-0.194,0.182,0.204,0
2018,5,17,19,34,6.65,0.3067,-0.4327,0.4239,0.734,12.4,-88.9,77.5,-0.166,0.08,0.169,0
2018,5,17,19,34,6.665,0.3119,-0.4491,0.4252,0.7211,26.5,-90.3,84.5,-0.09,0.102,0.152,0
2018,5,17,19,34,6.706,0.3182,-0.465,0.4269,0.7072,24.7,-84.7,84.2,-0.108,0.063,0.072,0
2018,5,17,19,34,6.726,0.3242,-0.479,0.4276,0.6946,22.3,-78.6,79.4,-0.163,0.056,0.14,0
2018,5,17,19,34,6.73,0.3287,-0.4937,0.427,0.6824,3.2,-83.2,76.7,-0.374,0.053,0.241,1023
2018,5,17,19,34,6.75,0.3304,-0.5107,0.4253,0.67,-10.5,-103.4,76.8,-0.491,0.073,0.37,1023
2018,5,17,19,34,6.77,0.3293,-0.5308,0.4227,0.6564,-25.5,-124.1,81.6,-0.487,0.135,0.457,1023
2018,5,17,19,34,6.791,0.3262,-0.5541,0.4176,0.6419,-47.4,-130.1,92.6,-0.347,0.128,0.42,1023
2018,5,17,19,34,6.81,0.323,-0.5784,0.4101,0.6267,-45,-128.7,105.2,-0.318,-0.009,0.315,1023
2018,5,17,19,34,6.831,0.3224,-0.6019,0.4023,0.6097,-20.4,-124.6,116.1,-0.347,-0.196,0.209,1023
2018,5,17,19,34,6.853,0.3261,-0.6233,0.3971,0.5893,25.3,-127.2,118.4,-0.438,-0.476,0.131,1023
2018,5,17,19,34,6.873,0.3358,-0.6409,0.3988,0.5633,101.4,-140.8,115.5,-0.76,-0.511,-0.002,1023
2018,5,17,19,34,6.888,0.3507,-0.6563,0.4066,0.5298,138.5,-161.3,126.4,-0.935,-0.19,-0.273,1023
2018,5,17,19,34,6.928,0.3668,-0.6726,0.4136,0.4917,132.9,-170.8,149.1,-0.99,0.12,-0.402,1023
2018,5,17,19,34,6.949,0.3814,-0.6913,0.4146,0.4522,89.4,-170,180.6,-0.884,0.438,-0.313,1023
2018,5,17,19,34,6.953,0.3933,-0.713,0.4088,0.4117,85.2,-178.6,207.5,-0.524,0.277,0.058,1023
2018,5,17,19,34,6.973,0.4069,-0.7349,0.4025,0.3634,123.3,-235,224.1,0.795,0.238,0.478,0
2018,5,17,19,34,6.993,0.417,-0.7574,0.3997,0.304,106.9,-284.9,225.9,-0.403,0.352,-0.277,0
2018,5,17,19,34,7.013,0.4211,-0.7803,0.3931,0.2431,96.1,-269.3,240.2,-1.246,0.223,-0.567,0
2018,5,17,19,34,7.033,0.4314,-0.7966,0.3819,0.1824,154,-221.4,259.4,-1.084,0.33,-0.436,0
2018,5,17,19,34,7.072,0.4491,-0.8073,0.3621,0.1232,161.5,-177,292.9,-0.937,0.515,-0.165,0
2018,5,17,19,34,7.093,0.4625,-0.8179,0.335,0.0683,94.3,-155,301,-1.017,0.526,0.501,0
2018,5,17,19,34,7.097,0.4661,-0.8309,0.303,0.0183,43.6,-146,317.7,-0.851,0.338,0.945,0
2018,5,17,19,34,7.111,0.4668,-0.842,0.2686,-0.0301,81.6,-138.8,304.1,-0.805,-0.475,0.674,0
2018,5,17,19,34,7.131,0.4747,-0.8439,0.2359,-0.0811,158.5,-150.5,284,-0.391,-0.733,0.377,0
2018,5,17,19,34,7.151,0.497,-0.8329,0.2037,-0.1325,275.4,-125.6,257.2,-0.249,-0.559,0.434,0
2018,5,17,19,34,7.188,0.533,-0.8084,0.1698,-0.1827,370.4,-120,243.9,0.249,0.019,0.611,0
2018,5,17,19,34,7.209,0.5765,-0.7714,0.1329,-0.2339,419.3,-121.1,246.5,0.727,0.737,0.499,0
2018,5,17,19,34,7.214,0.6159,-0.7292,0.094,-0.2828,381.6,-106.4,250.5,1.295,1.178,-0.039,0
2018,5,17,19,34,7.233,0.6451,-0.6882,0.0533,-0.3275,214,-94.2,228.8,1.302,-9.087,3.233,0
2018,5,17,19,34,7.253,0.6428,-0.6829,0.1063,-0.3302,91.9,-89.1,-438.3,1.087,2.19,-1.542,0
2018,5,17,19,34,7.294,0.6426,-0.6712,0.1644,-0.3308,-495,-424.7,43.9,3.799,5.854,0.773,0
2018,5,17,19,34,7.313,0.5783,-0.6968,0.227,-0.3582,-497.7,-205.4,-154.7,-14.345,-15.018,-0.864,0
2018,5,17,19,34,7.318,0.5899,-0.6765,0.2949,-0.3273,273,-177.6,-161.9,0.768,-2.334,-1.212,0
2018,5,17,19,34,7.331,0.6206,-0.6226,0.3228,-0.3505,462.1,-243.8,-161.9,-4.589,0.82,-2.646,0
2018,5,17,19,34,7.368,0.6809,-0.5447,0.2952,-0.3903,756.3,14,-53.7,0.243,0.692,-0.33,0
2018,5,17,19,34,7.389,0.7399,-0.4744,0.2551,-0.4028,336.2,79.4,-71.8,-0.428,1.65,0.875,0
2018,5,17,19,34,7.393,0.7587,-0.451,0.2406,-0.4036,66.9,-9.4,0,-0.415,0.854,0.906,0
2018,5,17,19,34,7.414,0.7515,-0.4513,0.2474,-0.4126,-52.4,-103.5,67.5,0.773,0.167,0.174,0
2018,5,17,19,34,7.434,0.7362,-0.4502,0.2601,-0.433,-28.1,-153.3,103.8,0.214,0.031,-0.059,0
2018,5,17,19,34,7.456,0.7162,-0.4476,0.2767,-0.4582,-59.5,-181.4,108.9,0.197,-0.069,-0.138,1023
2018,5,17,19,34,7.474,0.6959,-0.4443,0.2943,-0.4812,-36.9,-156.1,78.9,0.225,-0.232,-0.3,1023
2018,5,17,19,34,7.513,0.682,-0.4381,0.3072,-0.4984,0.9,-118,53.5,0.028,-0.227,-0.228,1023
2018,5,17,19,34,7.533,0.673,-0.4298,0.3148,-0.5129,24.3,-92.4,38.3,-0.128,-0.005,-0.043,1023
2018,5,17,19,34,7.537,0.6677,-0.4216,0.32,-0.5234,6.4,-63.2,16.6,-0.096,0.098,0.082,1023
2018,5,17,19,34,7.558,0.6661,-0.416,0.3234,-0.5277,35.3,-28.7,-9.9,-0.053,-0.254,0.068,1023
2018,5,17,19,34,7.578,0.6719,-0.4068,0.3199,-0.5296,85.6,9.1,-29.1,-0.088,-0.102,-0.01,1023
2018,5,17,19,34,7.6,0.6835,-0.3945,0.3102,-0.5299,116.2,18,-39.7,-0.267,0.185,0.305,1023
2018,5,17,19,34,7.616,0.6935,-0.3806,0.3021,-0.5318,86.4,-12.2,-13.4,-0.152,0.69,0.444,1023
2018,5,17,19,34,7.636,0.6965,-0.3717,0.2985,-0.5362,40.5,-14.2,7.4,0.151,0.353,-0.015,1023
2018,5,17,19,34,7.656,0.6971,-0.369,0.2966,-0.5383,4.6,6.6,1.7,-0.04,0.212,-0.196,0
2018,5,17,19,34,7.675,0.6993,-0.3681,0.2944,-0.5372,29.1,13.7,-16.4,-0.159,-0.186,-0.098,0
2018,5,17,19,34,7.694,0.7043,-0.3643,0.2902,-0.5357,39.9,18.9,-22.3,-0.051,-0.142,0.215,0
2018,5,17,19,34,7.734,0.714,-0.358,0.2789,-0.533,119.4,93,-22.2,0.692,3.32,-0.553,0
2018,5,17,19,34,7.755,0.7218,-0.3484,0.2629,-0.5369,58.3,-6.1,-21.9,0.288,-1.862,1.235,0
2018,5,17,19,34,7.759,0.7383,-0.3223,0.2477,-0.5381,238.9,18.4,-75.3,0.099,0.261,0.054,0
2018,5,17,19,34,7.777,0.7509,-0.3086,0.2371,-0.5334,1.1,42.8,-44.2,0.301,0.114,0.223,0
2018,5,17,19,34,7.798,0.7524,-0.3195,0.2359,-0.5253,-79.7,60.8,-6.8,0.123,0.106,0.063,0
2018,5,17,19,34,7.815,0.7506,-0.3355,0.2356,-0.5181,-73.1,56.8,-5,-0.075,0.057,-0.088,0
2018,5,17,19,34,7.836,0.7498,-0.346,0.2354,-0.5124,-33.7,31.1,-2.9,0.112,0.143,-0.127,0
2018,5,17,19,34,7.857,0.7489,-0.3512,0.234,-0.5108,-17.4,18.7,14.7,0.236,0.267,0.006,0
2018,5,17,19,34,7.877,0.7464,-0.3558,0.2322,-0.5121,-26.6,16.1,33.1,0.095,0.365,0.106,0
2018,5,17,19,34,7.896,0.7406,-0.3651,0.2316,-0.5142,-66.5,13.2,41.3,0.052,0.319,0.118,0
2018,5,17,19,34,7.934,0.731,-0.38,0.2366,-0.5149,-131.6,5.3,38,-0.063,0.254,0.221,0
2018,5,17,19,34,7.955,0.7152,-0.4054,0.2511,-0.5108,-244.6,0.2,29.2,-0.072,0.088,0.113,0
2018,5,17,19,34,7.958,0.6942,-0.439,0.2719,-0.5012,-251.9,11.2,8.5,-0.052,-0.22,-0.176,0
2018,5,17,19,34,7.98,0.6772,-0.468,0.2892,-0.4885,-199.6,27.5,-5.8,-0.004,-0.119,-0.124,0
2018,5,17,19,34,8,0.6647,-0.4915,0.3015,-0.4749,-152.4,40,-10.8,0.043,-0.084,-0.072,0
2018,5,17,19,34,8.02,0.6567,-0.5096,0.3083,-0.4624,-106.1,51.1,-8.3,0.053,-0.083,-0.06,0
2018,5,17,19,34,8.039,0.6527,-0.523,0.3102,-0.4517,-66.1,56.2,-5.7,0.1,-0.108,-0.004,0
2018,5,17,19,34,8.056,0.652,-0.5323,0.3082,-0.4431,-39.5,56.9,-1.6,0.049,0.044,0.063,0
2018,5,17,19,34,8.095,0.652,-0.5403,0.3047,-0.4359,-39.7,55.8,3.8,0.051,0.052,0.075,0
2018,5,17,19,34,8.115,0.6514,-0.5483,0.3011,-0.4291,-36.3,52.7,5.8,0.029,0.014,0.104,0
2018,5,17,19,34,8.119,0.6512,-0.5549,0.297,-0.4238,-12.2,44.1,4.2,0.099,-0.052,0.145,0
2018,5,17,19,34,8.139,0.6538,-0.5571,0.2918,-0.4206,23.3,35.1,0.4,0.094,-0.046,0.11,0
2018,5,17,19,34,8.158,0.6595,-0.5546,0.2856,-0.4192,47.7,29.7,-4.9,0.087,0.013,0.092,0
2018,5,17,19,34,8.18,0.6677,-0.5489,0.2794,-0.4178,60,29.9,-12.5,0.084,-0.03,0.076,0
2018,5,17,19,34,8.219,0.677,-0.5424,0.273,-0.4157,63.3,32.8,-18,0.049,-0.008,0.06,1023
2018,5,17,19,34,8.238,0.6862,-0.5357,0.2666,-0.4133,60.5,31.6,-16.6,0.049,0.03,0.026,1023
2018,5,17,19,34,8.242,0.6948,-0.5289,0.2602,-0.4118,65.5,23,-12.1,0.031,-0.007,0.064,1023
2018,5,17,19,34,8.28,0.703,-0.5209,0.2544,-0.4117,74.6,14,-11.7,0.042,-0.219,0.013,1023
2018,5,17,19,34,8.284,0.7123,-0.5104,0.2485,-0.4126,109.7,3,-21.9,-0.158,-0.126,-0.216,1023
2018,5,17,19,34,8.301,0.7245,-0.4942,0.242,-0.4149,107.1,-1.5,-20.8,-0.245,0.238,-0.324,1023
2018,5,17,19,34,8.319,0.7319,-0.484,0.2382,-0.4162,42.7,-1.5,-11.8,-0.227,0.06,-0.188,1023
2018,5,17,19,34,8.34,0.7331,-0.4823,0.2383,-0.4159,-18.4,-1.8,-1,-0.181,0.125,-0.196,1023
2018,5,17,19,34,8.378,0.7305,-0.4856,0.2406,-0.4152,-19.2,-4.4,2.9,0.031,-0.004,-0.033,1023
2018,5,17,19,34,8.398,0.7293,-0.4866,0.2416,-0.4155,-3.3,-2.1,5.6,0.027,0.032,0.014,1023
2018,5,17,19,34,8.402,0.7291,-0.4866,0.2411,-0.4163,-0.8,1.8,6.9,0.001,0.04,0.024,1023
2018,5,17,19,34,8.421,0.729,-0.4866,0.2402,-0.4171,0.5,1.4,4.5,-0.022,0.039,0.036,0
2018,5,17,19,34,8.459,0.7289,-0.4867,0.2397,-0.4174,-7.2,0.5,0.6,-0.01,0.059,0.045,0
2018,5,17,19,34,8.479,0.7283,-0.4875,0.2402,-0.4172,-13.2,0,0.7,0.005,0.056,0.038,0
2018,5,17,19,34,8.484,0.7272,-0.489,0.2412,-0.4168,-18.8,-0.3,1.6,0.003,0.03,0.034,0
2018,5,17,19,34,8.522,0.7259,-0.4909,0.2424,-0.4161,2.7,2,-3.9,0.132,-0.368,0.085,0
2018,5,17,19,34,8.541,0.7279,-0.4883,0.2415,-0.4162,18.3,0,-1.8,0.09,0.06,-0.031,0
2018,5,17,19,34,8.545,0.7301,-0.4854,0.2397,-0.4168,19.5,4.6,1,-0.003,0.051,-0.003,0
2018,5,17,19,34,8.561,0.732,-0.4832,0.2375,-0.4172,19.1,5.8,-1.7,-0.012,0.001,0.013,0
2018,5,17,19,34,8.599,0.7343,-0.4807,0.2354,-0.4172,20.2,6.3,-4.1,-0.027,0.047,0.007,0
2018,5,17,19,34,8.601,0.7368,-0.4781,0.2334,-0.417,21.5,6.1,-5.5,-0.005,0.024,0.034,0
2018,5,17,19,34,8.618,0.7399,-0.4745,0.2311,-0.4168,29.9,6.3,-7.9,0.007,0.019,0.02,0
2018,5,17,19,34,8.641,0.7435,-0.4705,0.2284,-0.4165,26.7,8.1,-9.3,-0.012,0.051,-0.008,0
2018,5,17,19,34,8.663,0.7463,-0.468,0.2264,-0.4154,14,8.6,-8.9,-0.016,0.062,0.01,0
2018,5,17,19,34,8.682,0.7479,-0.4673,0.2254,-0.4139,0.8,8.4,-6.6,-0.01,0.009,0.003,0
2018,5,17,19,34,8.721,0.7485,-0.4677,0.225,-0.4126,-2.8,5.7,-3.6,-0.05,-0.076,0.07,0
2018,5,17,19,34,8.743,0.7496,-0.4664,0.2243,-0.4124,14.4,0.9,-1.4,0.021,0.025,0.008,0
2018,5,17,19,34,8.747,0.7509,-0.4645,0.2234,-0.4127,8.8,0.7,-0.8,0.005,0.059,-0.009,0
2018,5,17,19,34,8.761,0.7514,-0.4639,0.223,-0.4126,-0.3,2.1,-1.5,-0.015,0.026,0.007,0
2018,5,17,19,34,8.784,0.7517,-0.4639,0.2229,-0.4123,1,1.3,-2.1,-0.017,0.021,0.035,0
2018,5,17,19,34,8.803,0.7523,-0.463,0.2225,-0.4123,1.2,1.6,-1.4,-0.024,0.048,-0.018,0
2018,5,17,19,34,8.823,0.752,-0.4641,0.2228,-0.4114,-18,5.8,-2.9,-0.027,0.086,-0.079,0
2018,5,17,19,34,8.845,0.7507,-0.4673,0.2238,-0.4098,-17,5.2,-4.1,-0.005,-0.009,-0.009,0
2018,5,17,19,34,8.863,0.7509,-0.4681,0.224,-0.4083,-8.6,4.7,-4.9,-0.005,0.101,-0.044,0
2018,5,17,19,34,8.901,0.7506,-0.4694,0.2245,-0.407,-11,3.7,-3.8,0.004,0.028,0.019,0
2018,5,17,19,34,8.92,0.7502,-0.4708,0.2252,-0.4058,-0.8,4.1,-3.8,0.009,-0.191,0.114,0
2018,5,17,19,34,8.924,0.751,-0.4699,0.2247,-0.4057,10.4,-2.1,-1.4,0.01,0.055,0.023,0
2018,5,17,19,34,8.962,0.752,-0.4681,0.2242,-0.4061,8.2,-1,-1.2,0,0.071,-0.014,0
2018,5,17,19,34,8.966,0.7522,-0.4681,0.2243,-0.4057,-13.2,3.6,-1.8,-0.012,0.082,-0.045,0
2018,5,17,19,34,8.983,0.7514,-0.47,0.2251,-0.4046,-11.6,3.5,-2.6,-0.007,0.007,-0.002,1023
2018,5,17,19,34,9.003,0.7514,-0.4707,0.2253,-0.4037,5,3.3,-4.6,-0.026,0.118,0.021,1023
2018,5,17,19,34,9.02,0.7526,-0.4689,0.2245,-0.4039,9.6,0.1,-0.5,-0.003,0.08,0.031,1023
2018,5,17,19,34,9.063,0.7539,-0.4667,0.2236,-0.4047,18.3,-1.7,1.2,-0.021,-0.027,0.061,1023
2018,5,17,19,34,9.083,0.755,-0.4646,0.2226,-0.4055,2.5,-0.6,-0.3,-0.009,0.064,-0.028,1023
2018,5,17,19,34,9.087,0.7544,-0.4658,0.2232,-0.4048,-19.5,3.9,-1.1,-0.021,0.052,-0.062,1023
2018,5,17,19,34,9.106,0.7533,-0.4681,0.2241,-0.4037,-11.6,3.6,-1.4,0.001,0.011,-0.005,1023
2018,5,17,19,34,9.125,0.753,-0.4692,0.2245,-0.4028,4.7,2.9,-4.7,-0.009,0.044,0.052,1023
2018,5,17,19,34,9.146,0.7535,-0.4686,0.2241,-0.4027,3.2,0.1,-1.8,0.011,0.044,-0.008,1023
2018,5,17,19,34,9.167,0.7536,-0.4687,0.2241,-0.4025,-8.4,1.1,-0.5,-0.012,0.011,-0.025,1023
2018,5,17,19,34,9.189,0.753,-0.4697,0.2247,-0.402,-6.9,0,-1.4,-0.004,0.006,-0.001,1023
2018,5,17,19,34,9.208,0.7527,-0.4703,0.2252,-0.4017,-3.5,-0.5,-0.8,0.005,0.019,0.001,0
2018,5,17,19,34,9.247,0.7526,-0.4703,0.2256,-0.4015,-1.6,-0.4,0.1,0.004,0.017,0.001,0
2018,5,17,19,34,9.251,0.7526,-0.4704,0.2257,-0.4016,-1.3,-0.1,0.2,-0.004,0.016,0.004,0
2018,5,17,19,34,9.268,0.7525,-0.4705,0.2257,-0.4015,-1.7,0,0,-0.004,0.02,0.004,0
2018,5,17,19,34,9.286,0.7525,-0.4706,0.2258,-0.4015,-1.7,-0.1,-0.4,-0.003,0.021,0,0
2018,5,17,19,34,9.321,0.7524,-0.4706,0.226,-0.4014,-1.7,-0.1,-0.5,0,0.024,0.002,0
2018,5,17,19,34,9.341,0.7524,-0.4707,0.2261,-0.4013,-1.6,-0.2,-0.1,0.003,0.021,0.003,0
2018,5,17,19,34,9.345,0.7523,-0.4708,0.2262,-0.4013,-1.9,-0.1,0,-0.001,0.02,0,0
2018,5,17,19,34,9.386,0.7523,-0.4709,0.2263,-0.4012,-1.7,0,0,0,0.017,0.002,0
2018,5,17,19,34,9.405,0.7522,-0.4709,0.2264,-0.4012,-1.4,0,-0.1,0,0.019,0.002,0
2018,5,17,19,34,9.409,0.7522,-0.471,0.2265,-0.4011,-1.6,0,0,-0.001,0.018,0,0
2018,5,17,19,34,9.428,0.7521,-0.4711,0.2266,-0.4011,-1.7,0,-0.1,0.002,0.018,0,0
2018,5,17,19,34,9.468,0.7521,-0.4712,0.2268,-0.401,-1.6,-0.2,0,-0.001,0.023,0.004,0
2018,5,17,19,34,9.472,0.752,-0.4712,0.2268,-0.401,-1.1,0,0.1,-0.002,0.016,-0.003,0
2018,5,17,19,34,9.489,0.752,-0.4713,0.2269,-0.401,-1,0,0.2,-0.001,0.018,0,0
2018,5,17,19,34,9.508,0.7519,-0.4713,0.2269,-0.401,-1,0,-0.2,0,0.016,-0.001,0
2018,5,17,19,34,9.529,0.7519,-0.4713,0.227,-0.401,0,0,0,-0.001,0.018,0,0
2018,5,17,19,34,9.55,0.752,-0.4712,0.2269,-0.401,0,0,0,0,0.023,0,0
2018,5,17,19,34,9.567,0.7521,-0.4711,0.2269,-0.401,0,0,0,-0.002,0.02,0.002,0
2018,5,17,19,34,9.607,0.7521,-0.471,0.2269,-0.401,0,0,0,0,0.021,0.004,0
2018,5,17,19,34,9.627,0.7522,-0.4709,0.2268,-0.401,0,0,0,-0.001,0.018,0.001,0
2018,5,17,19,34,9.631,0.7522,-0.4708,0.2269,-0.401,-0.5,0,0,0,0.016,-0.004,0
2018,5,17,19,34,9.651,0.7522,-0.4708,0.2269,-0.401,-0.5,0,0,0.001,0.017,0.001,0
2018,5,17,19,34,9.672,0.7523,-0.4707,0.2269,-0.401,0,0,0,-0.001,0.019,0,0
2018,5,17,19,34,9.686,0.7523,-0.4706,0.2269,-0.401,0,0,0,0,0.018,-0.004,0
2018,5,17,19,34,9.708,0.7524,-0.4705,0.2269,-0.4011,0,0,0,0,0.019,0.002,1023
2018,5,17,19,34,9.728,0.7524,-0.4705,0.2269,-0.4011,-0.5,0,0,0,0.018,0.002,1023
2018,5,17,19,34,9.762,0.7524,-0.4704,0.2269,-0.4011,-0.5,0,0,0,0.017,0.002,1023
2018,5,17,19,34,9.783,0.7525,-0.4704,0.2269,-0.4011,0,0,0,0.002,0.018,-0.002,1023
2018,5,17,19,34,9.79,0.7525,-0.4703,0.2269,-0.4011,0,0,0,0.001,0.018,0.001,1023
2018,5,17,19,34,9.81,0.7526,-0.4702,0.2268,-0.4011,0,0,0,0,0.021,-0.003,1023
2018,5,17,19,34,9.832,0.7526,-0.4701,0.2268,-0.4011,0,0,0,0.001,0.018,-0.002,1023
2018,5,17,19,34,9.852,0.7526,-0.4701,0.2268,-0.4011,-0.5,0,0,0.001,0.019,0.001,1023
2018,5,17,19,34,9.871,0.7526,-0.4701,0.2268,-0.4011,-0.5,0,0,-0.002,0.019,-0.005,1023
2018,5,17,19,34,9.891,0.7526,-0.4701,0.2269,-0.4011,-0.5,-0.1,0,-0.001,0.017,-0.002,1023
2018,5,17,19,34,9.913,0.7527,-0.4701,0.2269,-0.4011,-0.5,0,-0.3,0.001,0.021,-0.004,0
2018,5,17,19,34,9.932,0.7527,-0.47,0.2268,-0.4011,6.4,-0.3,-0.4,-0.041,-0.106,0.054,0
2018,5,17,19,34,9.951,0.7535,-0.4685,0.2264,-0.4016,23.9,-5.9,0.5,0.001,-0.051,0.063,0
2018,5,17,19,34,9.969,0.7555,-0.4646,0.2252,-0.403,20.5,-3.3,0.1,-0.003,0.093,-0.045,0
2018,5,17,19,34,10.005,0.7561,-0.4636,0.225,-0.4033,-0.1,-0.5,-1.3,-0.009,-0.01,0.016,0
2018,5,17,19,34,10.027,0.7561,-0.4636,0.2252,-0.4031,-1.1,0.2,-0.5,0.005,0.032,-0.013,0
2018,5,17,19,34,10.031,0.7562,-0.4637,0.2251,-0.4029,-1.9,2.2,0.3,0.002,0.028,-0.011,0
2018,5,17,19,34,10.053,0.7568,-0.4631,0.2245,-0.4027,9.8,2.7,-1.9,-0.056,0.118,0.042,0
2018,5,17,19,34,10.072,0.7576,-0.4621,0.2238,-0.4028,-0.2,3.2,-1.1,-0.006,0.109,-0.045,0
2018,5,17,19,34,10.108,0.7575,-0.4627,0.2237,-0.4024,-4.2,2.3,-0.9,-0.006,0.009,-0.003,0
2018,5,17,19,34,10.128,0.7577,-0.4627,0.2235,-0.402,1.8,1.1,-1.5,-0.011,0.2,-0.024,0
2018,5,17,19,34,10.132,0.7576,-0.4629,0.2237,-0.4019,-2.5,0,-0.2,-0.005,0.001,0.013,0
2018,5,17,19,34,10.17,0.7574,-0.4632,0.2239,-0.4018,-2.1,-0.3,0,-0.003,0.005,-0.005,0
2018,5,17,19,34,10.174,0.7573,-0.4634,0.224,-0.4018,-1,-0.1,-0.1,0.001,0.014,-0.006,0
2018,5,17,19,34,10.191,0.7573,-0.4634,0.2241,-0.4017,-0.5,0,-0.2,-0.001,0.019,-0.003,0
2018,5,17,19,34,10.229,0.7573,-0.4634,0.2241,-0.4017,0,0,0,-0.002,0.016,-0.005,0
2018,5,17,19,34,10.249,0.7573,-0.4633,0.2241,-0.4017,0,0,0,0,0.015,-0.005,0
2018,5,17,19,34,10.252,0.7574,-0.4633,0.224,-0.4017,0,0,0,-0.002,0.015,-0.003,0
2018,5,17,19,34,10.29,0.7574,-0.4632,0.224,-0.4018,0,0,0,0,0.017,-0.008,0
2018,5,17,19,34,10.311,0.7574,-0.4632,0.224,-0.4018,0,0,0,0,0.015,-0.002,0
2018,5,17,19,34,10.315,0.7575,-0.4631,0.2239,-0.4018,0,0,0,-0.002,0.017,-0.003,0
2018,5,17,19,34,10.353,0.7575,-0.4631,0.224,-0.4018,0,0,0,-0.001,0.015,-0.006,0
2018,5,17,19,34,10.371,0.7575,-0.4631,0.224,-0.4017,-0.5,0,-0.3,0,0.017,-0.004,0
2018,5,17,19,34,10.374,0.7575,-0.4631,0.224,-0.4017,-0.9,0,-0.2,0.001,0.015,-0.001,0
2018,5,17,19,34,10.392,0.7575,-0.4632,0.2241,-0.4016,-0.8,0,-0.4,0,0.015,-0.008,0
2018,5,17,19,34,10.412,0.7575,-0.4632,0.2241,-0.4015,0,0,0,0.001,0.013,-0.004,0
2018,5,17,19,34,10.432,0.7575,-0.4632,0.2241,-0.4015,0,0,0,-0.003,0.015,0,0
2018,5,17,19,34,10.452,0.7575,-0.4632,0.2241,-0.4016,0,0,0,-0.002,0.017,-0.008,1023
2018,5,17,19,34,10.493,0.7575,-0.4631,0.2241,-0.4016,0,0,0,-0.001,0.014,-0.004,1023
2018,5,17,19,34,10.513,0.7575,-0.4631,0.2241,-0.4016,0,0,0,-0.002,0.017,-0.004,1023
2018,5,17,19,34,10.517,0.7576,-0.4631,0.2241,-0.4016,0,0,0,-0.001,0.019,-0.004,1023
2018,5,17,19,34,10.534,0.7576,-0.463,0.2241,-0.4016,0,0,0,0.001,0.015,-0.003,1023
2018,5,17,19,34,10.572,0.7576,-0.463,0.2241,-0.4016,0,0,0,-0.001,0.015,-0.007,1023
2018,5,17,19,34,10.592,0.7576,-0.463,0.2241,-0.4016,0,0,0,0.001,0.018,0.002,1023
2018,5,17,19,34,10.595,0.7577,-0.4629,0.224,-0.4016,0,0,0,0.001,0.017,-0.001,1023
2018,5,17,19,34,10.634,0.7577,-0.4628,0.224,-0.4016,0,0,0,-0.001,0.014,-0.004,1023
2018,5,17,19,34,10.651,0.7577,-0.4629,0.2241,-0.4016,-0.5,0,0,0,0.016,-0.006,1023
2018,5,17,19,34,10.657,0.7577,-0.4629,0.2241,-0.4016,-0.8,0,-0.1,0,0.017,-0.005,1023
2018,5,17,19,34,10.673,0.7577,-0.463,0.2242,-0.4015,-0.7,0,-0.2,0,0.015,-0.008,0
2018,5,17,19,34,10.71,0.7577,-0.463,0.2242,-0.4014,0,0,0,0,0.012,-0.007,0
2018,5,17,19,34,10.729,0.7577,-0.463,0.2242,-0.4014,0,0,0,-0.001,0.014,-0.004,0
2018,5,17,19,34,10.735,0.7577,-0.463,0.2242,-0.4014,0,0,0,0,0.014,-0.007,0
2018,5,17,19,34,10.756,0.7577,-0.4629,0.2242,-0.4014,0.5,0,0,0,0.018,-0.006,0
2018,5,17,19,34,10.777,0.7578,-0.4628,0.2242,-0.4014,0.5,0,-0.2,0.003,0.017,-0.01,0
2018,5,17,19,34,10.796,0.7578,-0.4627,0.2242,-0.4014,0.5,0,-0.2,0,0.017,-0.002,0
2018,5,17,19,34,10.818,0.7579,-0.4627,0.2241,-0.4014,0,0,0,0.003,0.016,-0.004,0
2018,5,17,19,34,10.839,0.7579,-0.4626,0.2241,-0.4014,0,0,0,0.001,0.018,-0.006,0
2018,5,17,19,34,10.859,0.758,-0.4625,0.2241,-0.4014,0.5,0,-0.1,0,0.017,-0.005,0
2018,5,17,19,34,10.873,0.758,-0.4625,0.2241,-0.4014,0,0,0,-0.001,0.014,-0.003,0
2018,5,17,19,34,10.894,0.758,-0.4624,0.2241,-0.4014,0,0,0,0.001,0.02,-0.006,0
2018,5,17,19,34,10.934,0.758,-0.4624,0.2241,-0.4014,0,0,0,0.002,0.018,-0.005,0
2018,5,17,19,34,10.956,0.758,-0.4624,0.2241,-0.4014,-0.5,0,0,0,0.015,-0.005,0
2018,5,17,19,34,10.96,0.758,-0.4624,0.2241,-0.4014,0,0,0,0,0.018,-0.005,0
2018,5,17,19,34,10.978,0.758,-0.4624,0.2241,-0.4014,0,0,0,0,0.016,-0.007,0
2018,5,17,19,34,11.017,0.7581,-0.4624,0.2241,-0.4014,0,0,0,0.001,0.016,-0.004,0
2018,5,17,19,34,11.036,0.7581,-0.4623,0.2241,-0.4014,0,0,0,-0.001,0.017,-0.006,0
2018,5,17,19,34,11.04,0.7581,-0.4623,0.2241,-0.4014,0,0,0,0.001,0.014,-0.005,0
2018,5,17,19,34,11.06,0.7581,-0.4623,0.2241,-0.4014,0,0,0,0,0.017,-0.011,0
2018,5,17,19,34,11.081,0.7581,-0.4623,0.2241,-0.4014,0,0,0,0,0.017,-0.006,0
2018,5,17,19,34,11.096,0.7581,-0.4623,0.2241,-0.4014,0,0,0,0,0.014,-0.005,0
2018,5,17,19,34,11.135,0.7581,-0.4622,0.2241,-0.4014,0,0,0,-0.001,0.016,-0.003,0
2018,5,17,19,34,11.154,0.7581,-0.4622,0.2241,-0.4015,-0.5,0,0,-0.003,0.015,0,0
2018,5,17,19,34,11.158,0.7581,-0.4623,0.2241,-0.4014,-0.5,0,0.1,0,0.016,-0.007,0
2018,5,17,19,34,11.178,0.7581,-0.4623,0.2241,-0.4014,0,0,0,0.001,0.015,-0.004,0
2018,5,17,19,34,11.2,0.7581,-0.4622,0.2241,-0.4014,0,0,0,0.002,0.015,-0.006,0
2018,5,17,19,34,11.219,0.7581,-0.4622,0.2242,-0.4014,0,0,0,0.002,0.016,-0.007,0
2018,5,17,19,34,11.238,0.7582,-0.4622,0.2242,-0.4014,0,0,0,-0.004,0.018,-0.005,1023
2018,5,17,19,34,11.259,0.7582,-0.4622,0.2241,-0.4014,0,0,0,0,0.012,-0.011,1023
2018,5,17,19,34,11.298,0.7582,-0.4622,0.2241,-0.4014,0,0,0,0,0.011,-0.008,1023
2018,5,17,19,34,11.319,0.7582,-0.4622,0.2242,-0.4014,0.5,-0.2,-0.2,0.003,0.017,-0.001,1023
2018,5,17,19,34,11.324,0.7582,-0.4621,0.2242,-0.4014,0,0,0,0.001,0.019,-0.005,1023
2018,5,17,19,34,11.341,0.7582,-0.4621,0.2241,-0.4014,-0.6,0,0,0,0.016,-0.007,1023
2018,5,17,19,34,11.358,0.7582,-0.4622,0.2242,-0.4014,-0.8,-0.2,0,0,0.014,-0.005,1023
2018,5,17,19,34,11.396,0.7581,-0.4623,0.2243,-0.4014,-0.6,0,-0.1,-0.001,0.014,-0.003,1023
2018,5,17,19,34,11.416,0.7581,-0.4623,0.2243,-0.4014,0,0,0,0,0.014,-0.006,1023
2018,5,17,19,34,11.42,0.758,-0.4624,0.2243,-0.4014,0,0,0,0.001,0.014,-0.004,1023
2018,5,17,19,34,11.442,0.758,-0.4624,0.2244,-0.4013,0,0,0,0,0.017,-0.01,1023
2018,5,17,19,34,11.461,0.758,-0.4624,0.2244,-0.4013,0,0,0,0.002,0.013,-0.014,0
2018,5,17,19,34,11.501,0.758,-0.4624,0.2244,-0.4013,0,0,0,0.002,0.011,-0.006,0
2018,5,17,19,34,11.521,0.7581,-0.4623,0.2244,-0.4013,0,0,0,0.001,0.017,-0.008,0
2018,5,17,19,34,11.525,0.7581,-0.4623,0.2244,-0.4013,0,0,0,0.002,0.016,-0.006,0
2018,5,17,19,34,11.542,0.758,-0.4623,0.2244,-0.4013,-0.5,0,0,-0.001,0.013,-0.01,0
2018,5,17,19,34,11.58,0.758,-0.4624,0.2244,-0.4013,0,0,0,0,0.013,-0.009,0
2018,5,17,19,34,11.6,0.758,-0.4623,0.2244,-0.4013,0,0,0,0,0.014,-0.003,0
2018,5,17,19,34,11.604,0.7581,-0.4623,0.2244,-0.4013,0,0,0,0.001,0.014,-0.007,0
2018,5,17,19,34,11.62,0.7581,-0.4623,0.2244,-0.4013,-0.5,-0.1,0,0.001,0.015,-0.005,0
2018,5,17,19,34,11.64,0.7581,-0.4623,0.2244,-0.4013,0,0,0,0.002,0.015,-0.009,0
2018,5,17,19,34,11.658,0.7581,-0.4623,0.2244,-0.4013,0,0,0,-0.001,0.014,-0.01,0
2018,5,17,19,34,11.7,0.7581,-0.4623,0.2244,-0.4013,0,0,0,0.001,0.015,-0.009,0
2018,5,17,19,34,11.72,0.7581,-0.4623,0.2244,-0.4013,0,0,0,0.001,0.016,-0.012,0
2018,5,17,19,34,11.725,0.7581,-0.4623,0.2244,-0.4013,0,0,0,-0.001,0.015,-0.005,0
2018,5,17,19,34,11.744,0.7581,-0.4623,0.2244,-0.4013,0,0,0,-0.002,0.014,-0.007,0
2018,5,17,19,34,11.764,0.758,-0.4624,0.2244,-0.4013,-0.5,0,-0.1,0,0.012,-0.004,0
2018,5,17,19,34,11.802,0.758,-0.4624,0.2244,-0.4013,0,0,0,0.001,0.01,-0.009,0
2018,5,17,19,34,11.807,0.758,-0.4624,0.2244,-0.4013,0,0,0,-0.003,0.014,-0.011,0
2018,5,17,19,34,11.822,0.758,-0.4624,0.2244,-0.4013,0,0,0,0.004,0.012,-0.009,0
2018,5,17,19,34,11.842,0.758,-0.4624,0.2245,-0.4013,0,0,0,0,0.015,-0.011,0
2018,5,17,19,34,11.864,0.758,-0.4624,0.2245,-0.4013,0,0,0,0,0.014,-0.008,0
2018,5,17,19,34,11.88,0.758,-0.4624,0.2245,-0.4013,0,0,0,0.003,0.013,-0.009,0
2018,5,17,19,34,11.902,0.758,-0.4624,0.2245,-0.4013,0,0,0,0,0.015,-0.01,0
2018,5,17,19,34,11.941,0.758,-0.4624,0.2245,-0.4013,0,0,0,0,0.012,-0.008,0
2018,5,17,19,34,11.96,0.758,-0.4624,0.2245,-0.4013,0,0,0,0,0.015,-0.013,0
2018,5,17,19,34,11.964,0.758,-0.4624,0.2245,-0.4013,0,0,0,0.001,0.016,-0.01,0
2018,5,17,19,34,11.986,0.758,-0.4624,0.2245,-0.4013,0,0,0,-0.002,0.014,-0.008,0
2018,5,17,19,34,12.004,0.758,-0.4624,0.2245,-0.4013,0,0,0,0.002,0.015,-0.007,0
2018,5,17,19,34,12.039,0.758,-0.4624,0.2245,-0.4013,0,0,0,0.002,0.012,-0.008,1023
2018,5,17,19,34,12.059,0.758,-0.4624,0.2245,-0.4013,0,0,0,0.003,0.014,-0.01,1023
2018,5,17,19,34,12.063,0.758,-0.4624,0.2245,-0.4013,0,0,0,0,0.012,-0.007,1023
2018,5,17,19,34,12.102,0.758,-0.4624,0.2245,-0.4013,0,0,0,0,0.017,-0.005,1023
2018,5,17,19,34,12.123,0.758,-0.4624,0.2245,-0.4013,0,0,0,0.001,0.015,-0.007,1023
2018,5,17,19,34,12.127,0.758,-0.4624,0.2246,-0.4012,-0.6,0,0,0.001,0.014,-0.007,1023
2018,5,17,19,34,12.145,0.7579,-0.4625,0.2246,-0.4012,-0.7,0,0.1,0,0.014,-0.003,1023
2018,5,17,19,34,12.184,0.7579,-0.4626,0.2246,-0.4012,-0.6,0,0,0.001,0.016,-0.008,1023
2018,5,17,19,34,12.205,0.7578,-0.4627,0.2247,-0.4012,-0.6,0,-0.2,0.001,0.014,-0.016,1023
2018,5,17,19,34,12.209,0.7578,-0.4628,0.2248,-0.4011,0,0,0,-0.001,0.011,-0.008,1023
2018,5,17,19,34,12.228,0.7578,-0.4628,0.2248,-0.4011,0,0,0,-0.003,0.015,-0.01,0
2018,5,17,19,34,12.246,0.7578,-0.4628,0.2248,-0.4011,0,0,0,0.001,0.012,-0.009,0
2018,5,17,19,34,12.283,0.7578,-0.4628,0.2248,-0.4011,0,0,0,-0.002,0.014,-0.008,0
2018,5,17,19,34,12.305,0.7578,-0.4628,0.2248,-0.4011,0,0,0,0.001,0.016,-0.007,0
2018,5,17,19,34,12.309,0.7578,-0.4628,0.2248,-0.4011,0,0,0,0.001,0.015,-0.011,0
2018,5,17,19,34,12.325,0.7578,-0.4628,0.2248,-0.4011,0,0,0,-0.002,0.014,-0.009,0
2018,5,17,19,34,12.346,0.7578,-0.4628,0.2248,-0.4011,0,0,0,0,0.017,-0.005,0
2018,5,17,19,34,12.366,0.7578,-0.4628,0.2248,-0.4011,0,0,0,0,0.015,-0.007,0
2018,5,17,19,34,12.406,0.7578,-0.4628,0.2248,-0.4011,0,0,0,0,0.015,-0.008,0
2018,5,17,19,34,12.425,0.7578,-0.4628,0.2248,-0.4011,0,0,0,0,0.014,-0.009,0
2018,5,17,19,34,12.429,0.7578,-0.4628,0.2248,-0.4011,0,0,0,0,0.011,-0.007,0
2018,5,17,19,34,12.45,0.7578,-0.4628,0.2248,-0.4011,0,0,0,0,0.015,-0.006,0
2018,5,17,19,34,12.47,0.7578,-0.4628,0.2248,-0.4011,0,0,0,0.003,0.015,-0.009,0
2018,5,17,19,34,12.489,0.7578,-0.4628,0.2248,-0.4011,0,0,0,0,0.011,-0.006,0
2018,5,17,19,34,12.509,0.7578,-0.4628,0.2248,-0.4011,0,0,0,0.001,0.012,-0.008,0
2018,5,17,19,34,12.526,0.7578,-0.4628,0.2248,-0.4011,0,0,0,0,0.014,-0.009,0
2018,5,17,19,34,12.546,0.7578,-0.4628,0.2248,-0.4011,0,0,0,0.002,0.012,-0.009,0
2018,5,17,19,34,12.584,0.7578,-0.4628,0.2249,-0.4011,0,0,0,0.001,0.013,-0.009,0
2018,5,17,19,34,12.604,0.7578,-0.4628,0.2249,-0.4011,0,0,0,0.002,0.013,-0.01,0
2018,5,17,19,34,12.609,0.7577,-0.4628,0.2249,-0.4011,0,0,0,0,0.014,-0.01,0
2018,5,17,19,34,12.629,0.7577,-0.4628,0.2249,-0.4011,0,0,0,0,0.01,-0.012,0
2018,5,17,19,34,12.648,0.7578,-0.4628,0.2249,-0.4011,0.5,0,0,0.001,0.014,-0.01,0
2018,5,17,19,34,12.688,0.7578,-0.4628,0.2249,-0.4011,0,0,0,-0.001,0.016,-0.009,0
2018,5,17,19,34,12.707,0.7578,-0.4627,0.2249,-0.4011,0,0,0,0.001,0.012,-0.011,0
2018,5,17,19,34,12.711,0.7578,-0.4627,0.2249,-0.4011,0,0,0,-0.002,0.014,-0.006,0
2018,5,17,19,34,12.728,0.7578,-0.4627,0.2249,-0.4011,0,0,0,0.002,0.014,-0.011,0
2018,5,17,19,34,12.747,0.7578,-0.4627,0.2249,-0.4011,0,0,0,0.001,0.015,-0.006,0
2018,5,17,19,34,12.766,0.7578,-0.4627,0.2249,-0.4011,0,0,0,0.001,0.015,-0.006,0
2018,5,17,19,34,12.788,0.7578,-0.4627,0.2249,-0.4011,0,0,0,0,0.016,-0.009,0
2018,5,17,19,34,12.808,0.7578,-0.4627,0.2249,-0.4011,0,0,0,0.001,0.013,-0.009,1023
2018,5,17,19,34,12.845,0.7578,-0.4627,0.2249,-0.401,0,0,0,0,0.011,-0.004,1023
2018,5,17,19,34,12.866,0.7579,-0.4626,0.2248,-0.4011,0.6,0,0,0,0.013,-0.01,1023
2018,5,17,19,34,12.871,0.7579,-0.4625,0.2248,-0.4011,0.5,0,-0.1,0,0.015,-0.009,1023
2018,5,17,19,34,12.909,0.758,-0.4625,0.2248,-0.4011,0,0,0,0,0.014,-0.01,1023
2018,5,17,19,34,12.913,0.758,-0.4625,0.2248,-0.4011,0,0,0,0.004,0.017,-0.007,1023
2018,5,17,19,34,12.932,0.758,-0.4625,0.2248,-0.4011,0,0,0,0,0.015,-0.01,1023
2018,5,17,19,34,12.971,0.758,-0.4625,0.2248,-0.4011,0,0,0,-0.001,0.012,-0.008,1023
2018,5,17,19,34,12.99,0.7579,-0.4625,0.2248,-0.4011,0,0,0,0,0.011,-0.007,1023
2018,5,17,19,34,12.994,0.7579,-0.4625,0.2248,-0.4011,0,0,0,0,0.015,-0.009,1023
2018,5,17,19,34,13.01,0.7579,-0.4625,0.2248,-0.4011,0,0,0,0.003,0.013,-0.007,1023
2018,5,17,19,34,13.03,0.758,-0.4625,0.2248,-0.4011,0,0,0,0,0.012,-0.01,0
2018,5,17,19,34,13.051,0.758,-0.4624,0.2248,-0.4011,0.5,0,0,0,0.013,-0.009,0
2018,5,17,19,34,13.071,0.7581,-0.4623,0.2248,-0.4011,0.7,-0.1,-0.1,0,0.016,-0.008,0
2018,5,17,19,34,13.091,0.7581,-0.4623,0.2247,-0.4011,0,0,0,-0.002,0.018,-0.006,0
2018,5,17,19,34,13.111,0.7581,-0.4623,0.2247,-0.4011,0,0,0,-0.003,0.013,-0.011,0
2018,5,17,19,34,13.148,0.7581,-0.4622,0.2247,-0.4011,0.5,0,-0.2,0.002,0.014,-0.004,0
2018,5,17,19,34,13.17,0.7581,-0.4622,0.2247,-0.4011,0,0,0,0,0.013,-0.004,0
2018,5,17,19,34,13.174,0.7581,-0.4622,0.2247,-0.4011,0,0,0,0.001,0.015,-0.006,0
2018,5,17,19,34,13.21,0.7581,-0.4622,0.2247,-0.4011,0,0,0,0,0.013,-0.004,0
2018,5,17,19,34,13.232,0.7581,-0.4622,0.2247,-0.4011,0,0,0,0,0.016,-0.009,0
2018,5,17,19,34,13.236,0.7582,-0.4622,0.2247,-0.4011,0,0,0,0.001,0.018,-0.011,0
2018,5,17,19,34,13.252,0.7582,-0.4622,0.2247,-0.4011,0,0,0,0.003,0.01,-0.002,0
2018,5,17,19,34,13.29,0.7582,-0.4622,0.2247,-0.4011,0,0,0,-0.001,0.017,-0.011,0
2018,5,17,19,34,13.294,0.7582,-0.4622,0.2247,-0.4011,0,0,0,0,0.016,-0.009,0
2018,5,17,19,34,13.311,0.7582,-0.4622,0.2247,-0.4011,0,0,0,0.001,0.015,-0.01,0
2018,5,17,19,34,13.35,0.7582,-0.4622,0.2247,-0.4011,0,0,0,0.003,0.013,-0.011,0
2018,5,17,19,34,13.369,0.7582,-0.4622,0.2247,-0.4011,0,0,0,0,0.016,-0.013,0
2018,5,17,19,34,13.373,0.7582,-0.4622,0.2247,-0.4011,0,0,0,0.003,0.015,-0.006,0
2018,5,17,19,34,13.411,0.7582,-0.4622,0.2247,-0.4011,0,0,0,0.001,0.016,-0.002,0
2018,5,17,19,34,13.432,0.7582,-0.4621,0.2248,-0.4011,0,0,0,0,0.014,-0.005,0
2018,5,17,19,34,13.436,0.7582,-0.4621,0.2247,-0.4011,0,0,0,0,0.014,-0.005,0
2018,5,17,19,34,13.453,0.7582,-0.4621,0.2247,-0.4011,0,0,0,0,0.016,-0.009,0
2018,5,17,19,34,13.471,0.7582,-0.4621,0.2247,-0.4011,0,0,0,0,0.015,-0.009,0
2018,5,17,19,34,13.511,0.7582,-0.4621,0.2247,-0.4011,0,0,0,0.001,0.015,-0.007,0
2018,5,17,19,34,13.53,0.7582,-0.4621,0.2248,-0.4011,0,0,0,0,0.015,-0.009,0
2018,5,17,19,34,13.534,0.7582,-0.4621,0.2248,-0.4011,0,0,0,0,0.015,-0.009,0
2018,5,17,19,34,13.556,0.7582,-0.4621,0.2248,-0.4011,0,0,0,0.001,0.016,-0.01,0
2018,5,17,19,34,13.575,0.7582,-0.4621,0.2248,-0.4011,0,0,0,0,0.012,-0.007,0
2018,5,17,19,34,13.596,0.7582,-0.4621,0.2248,-0.4011,0,0,0,0.002,0.012,-0.011,0
2018,5,17,19,34,13.618,0.7582,-0.4621,0.2248,-0.4011,0,0,0,0,0.011,-0.006,0
2018,5,17,19,34,13.636,0.7582,-0.4621,0.2248,-0.4011,0,0,0,0,0.017,-0.007,1023
2018,5,17,19,34,13.655,0.7582,-0.4621,0.2248,-0.4011,0,0,0,-0.001,0.015,-0.012,1023
2018,5,17,19,34,13.675,0.7582,-0.4621,0.2248,-0.4011,0,0,0,0,0.015,-0.01,1023
2018,5,17,19,34,13.693,0.7582,-0.4621,0.2248,-0.4011,0,0,0,0,0.015,-0.007,1023
2018,5,17,19,34,13.712,0.7582,-0.4621,0.2248,-0.4011,0,0,0,0.002,0.014,-0.01,1023
2018,5,17,19,34,13.75,0.7582,-0.4621,0.2248,-0.4011,0,0,0,0.001,0.016,-0.006,1023
2018,5,17,19,34,13.77,0.7582,-0.4621,0.2248,-0.4011,0,0,0,-0.001,0.012,-0.002,1023
2018,5,17,19,34,13.772,0.7582,-0.4621,0.2248,-0.4011,0,0,0,0,0.012,-0.012,1023
2018,5,17,19,34,13.808,0.7582,-0.4621,0.2248,-0.4011,0,0,0,0.001,0.013,-0.006,1023
2018,5,17,19,34,13.827,0.7582,-0.4621,0.2248,-0.4011,0,0,0,0.002,0.011,-0.009,1023
2018,5,17,19,34,13.834,0.7582,-0.4621,0.2248,-0.4011,0,0,0,0.002,0.015,-0.008,1023
2018,5,17,19,34,13.868,0.7582,-0.4621,0.2248,-0.4011,0,0,0,0.002,0.015,-0.001,0
2018,5,17,19,34,13.889,0.7582,-0.4621,0.2248,-0.4011,0,0,0,0,0.011,-0.005,0
2018,5,17,19,34,13.895,0.7582,-0.4621,0.2248,-0.4011,0,0,0,0,0.017,-0.002,0
2018,5,17,19,34,13.931,0.7582,-0.4621,0.2249,-0.4011,0,0,0,0.001,0.016,-0.006,0
2018,5,17,19,34,13.933,0.7582,-0.4621,0.2249,-0.4011,0,0,0,0.001,0.015,-0.007,0
2018,5,17,19,34,13.955,0.7582,-0.4621,0.2249,-0.4011,-0.5,0,0,0,0.015,-0.011,0
2018,5,17,19,34,13.976,0.7582,-0.4621,0.2249,-0.4011,0,0,0,-0.001,0.013,-0.007,0
2018,5,17,19,34,13.997,0.7582,-0.4621,0.2249,-0.401,0,0,0,0.003,0.012,-0.007,0
2018,5,17,19,34,14.037,0.7582,-0.4621,0.2249,-0.401,0,0,0,0,0.014,-0.008,0
2018,5,17,19,34,14.056,0.7582,-0.4621,0.2249,-0.401,0,0,0,0,0.015,-0.008,0
2018,5,17,19,34,14.061,0.7582,-0.4621,0.2249,-0.401,0,0,0,-0.002,0.015,-0.007,0
2018,5,17,19,34,14.081,0.7582,-0.4622,0.2249,-0.401,0,0,0,0.003,0.016,-0.017,0
2018,5,17,19,34,14.099,0.7581,-0.4622,0.2249,-0.401,0,0,0,0,0.012,-0.014,0
2018,5,17,19,34,14.12,0.7581,-0.4622,0.2249,-0.401,0,0,0,0.002,0.013,-0.008,0
2018,5,17,19,34,14.14,0.7581,-0.4622,0.225,-0.401,0,0,0,0.001,0.013,-0.006,0
2018,5,17,19,34,14.156,0.7581,-0.4622,0.225,-0.401,0,0,0,0,0.013,-0.008,0
2018,5,17,19,34,14.194,0.7581,-0.4622,0.225,-0.401,0,0,0,0,0.014,-0.008,0
2018,5,17,19,34,14.215,0.7581,-0.4622,0.225,-0.401,0,0,0,0.001,0.012,-0.008,0
2018,5,17,19,34,14.219,0.7581,-0.4622,0.225,-0.401,0,0,0,0,0.015,-0.006,0
2018,5,17,19,34,14.239,0.7581,-0.4622,0.2249,-0.401,0,0,0,0.002,0.016,-0.007,0
2018,5,17,19,34,14.259,0.7581,-0.4622,0.225,-0.401,0,0,0,0.002,0.012,-0.009,0
2018,5,17,19,34,14.279,0.7581,-0.4622,0.225,-0.401,0,0,0,-0.002,0.013,-0.007,0
2018,5,17,19,34,14.299,0.7581,-0.4622,0.225,-0.401,0,0,0,0.001,0.013,-0.005,0
2018,5,17,19,34,14.321,0.7581,-0.4622,0.225,-0.401,0,0,0,0,0.016,-0.013,0
2018,5,17,19,34,14.341,0.7581,-0.4623,0.225,-0.401,0,0,0,0.002,0.016,-0.012,0
2018,5,17,19,34,14.356,0.7581,-0.4623,0.225,-0.401,0,0,0,0.001,0.014,-0.008,0
2018,5,17,19,34,14.394,0.7581,-0.4623,0.225,-0.401,0,0,0,0.004,0.017,-0.007,0
2018,5,17,19,34,14.414,0.7581,-0.4623,0.225,-0.401,0,0,0,-0.002,0.01,-0.012,1023
2018,5,17,19,34,14.418,0.7581,-0.4623,0.225,-0.401,0,0,0,0,0.012,-0.012,1023
2018,5,17,19,34,14.439,0.7581,-0.4623,0.225,-0.401,0,0,0,0,0.016,-0.008,1023
2018,5,17,19,34,14.459,0.7581,-0.4623,0.225,-0.401,0,0,0,0.005,0.016,-0.004,1023
2018,5,17,19,34,14.499,0.7581,-0.4623,0.225,-0.4009,0,0,0,0.001,0.015,-0.005,1023
2018,5,17,19,34,14.518,0.7581,-0.4623,0.2251,-0.4009,-0.5,0,0,-0.001,0.016,-0.006,1023
2018,5,17,19,34,14.522,0.758,-0.4624,0.2251,-0.4009,-0.6,-0.1,-0.1,0.001,0.015,-0.011,1023
2018,5,17,19,34,14.54,0.758,-0.4625,0.2252,-0.4009,-0.5,0,-0.2,-0.001,0.012,-0.008,1023
2018,5,17,19,34,14.578,0.758,-0.4625,0.2252,-0.4008,0,0,0,0.001,0.011,-0.011,1023
2018,5,17,19,34,14.599,0.758,-0.4625,0.2252,-0.4008,0,0,0,0,0.012,-0.006,1023
2018,5,17,19,34,14.603,0.758,-0.4625,0.2252,-0.4008,0,0,0,0.001,0.014,-0.01,0
2018,5,17,19,34,14.622,0.758,-0.4625,0.2252,-0.4008,0,0,0,0.001,0.016,-0.006,0
2018,5,17,19,34,14.642,0.7579,-0.4625,0.2253,-0.4008,0,0,0,0,0.015,-0.006,0
2018,5,17,19,34,14.66,0.7579,-0.4625,0.2253,-0.4008,0,0,0,0.002,0.015,-0.008,0
2018,5,17,19,34,14.68,0.7579,-0.4625,0.2253,-0.4008,0,0,0,0.002,0.013,-0.011,0
2018,5,17,19,34,14.721,0.7579,-0.4625,0.2253,-0.4008,0,0,0,0,0.012,-0.008,0
2018,5,17,19,34,14.74,0.7579,-0.4626,0.2253,-0.4008,0,0,0,0,0.012,-0.007,0
2018,5,17,19,34,14.744,0.7579,-0.4626,0.2253,-0.4008,0,0,0,0,0.013,-0.008,0
2018,5,17,19,34,14.764,0.7579,-0.4626,0.2253,-0.4008,0,0,0,0,0.013,-0.012,0
2018,5,17,19,34,14.783,0.7579,-0.4626,0.2253,-0.4008,0,0,0,0,0.013,-0.01,0
2018,5,17,19,34,14.822,0.7579,-0.4626,0.2253,-0.4008,0,0,0,0,0.011,-0.009,0
2018,5,17,19,34,14.843,0.7579,-0.4626,0.2253,-0.4008,0,0,0,0,0.014,-0.011,0
2018,5,17,19,34,14.847,0.7579,-0.4626,0.2253,-0.4008,0,0,0,0,0.012,-0.011,0
2018,5,17,19,34,14.861,0.7579,-0.4626,0.2253,-0.4008,0,0,0,0,0.014,-0.013,0
2018,5,17,19,34,14.879,0.7579,-0.4626,0.2253,-0.4008,0,0,0,0,0.014,-0.01,0
2018,5,17,19,34,14.903,0.7579,-0.4627,0.2253,-0.4008,0,0,0,0.001,0.013,-0.012,0
2018,5,17,19,34,14.939,0.7579,-0.4627,0.2254,-0.4007,0,0,0,0.002,0.013,-0.008,0
2018,5,17,19,34,14.96,0.7579,-0.4627,0.2254,-0.4007,0,0,0,-0.001,0.014,-0.005,0
2018,5,17,19,34,14.964,0.7579,-0.4627,0.2254,-0.4007,0,0,0,0,0.017,-0.005,0
2018,5,17,19,34,14.983,0.7578,-0.4627,0.2254,-0.4007,0,0,0,0,0.016,-0.008,0
2018,5,17,19,34,15.021,0.7578,-0.4627,0.2254,-0.4007,0,0,0,0.001,0.015,-0.004,0
2018,5,17,19,34,15.041,0.7578,-0.4627,0.2254,-0.4007,0,0,0,0,0.015,-0.008,0
2018,5,17,19,34,15.045,0.7578,-0.4627,0.2254,-0.4007,0,0,0,0,0.016,-0.009,0
2018,5,17,19,34,15.08,0.7578,-0.4627,0.2254,-0.4007,0,0,0,-0.001,0.015,-0.006,0
2018,5,17,19,34,15.085,0.7578,-0.4627,0.2254,-0.4007,0,0,0,0.001,0.014,-0.007,0
2018,5,17,19,34,15.102,0.7578,-0.4628,0.2254,-0.4007,0,0,0,0,0.014,-0.004,0
2018,5,17,19,34,15.139,0.7578,-0.4627,0.2254,-0.4007,0.5,-0.2,0,0,0.014,-0.011,0
2018,5,17,19,34,15.159,0.7579,-0.4626,0.2254,-0.4007,0.5,-0.1,0,0,0.014,-0.009,0
2018,5,17,19,34,15.163,0.7579,-0.4626,0.2254,-0.4008,0.5,0,0.1,0.001,0.014,-0.006,0
2018,5,17,19,34,15.202,0.7579,-0.4626,0.2254,-0.4008,0,0,0,0,0.015,-0.01,1023
2018,5,17,19,34,15.222,0.7579,-0.4626,0.2254,-0.4008,0,0,0,0.001,0.012,-0.011,1023
2018,5,17,19,34,15.226,0.7579,-0.4626,0.2254,-0.4008,0,0,0,0.002,0.011,-0.006,1023
2018,5,17,19,34,15.246,0.7579,-0.4626,0.2254,-0.4007,0,0,0,0,0.014,-0.008,1023
2018,5,17,19,34,15.265,0.7579,-0.4626,0.2254,-0.4008,0,0,0,0,0.014,-0.003,1023
2018,5,17,19,34,15.301,0.7579,-0.4626,0.2254,-0.4008,0,0,0,0.001,0.016,-0.007,1023
2018,5,17,19,34,15.32,0.7579,-0.4626,0.2254,-0.4008,-0.5,0,0.1,0,0.013,-0.006,1023
2018,5,17,19,34,15.327,0.7579,-0.4626,0.2254,-0.4008,-0.5,0,0,-0.001,0.016,-0.009,1023
2018,5,17,19,34,15.343,0.7579,-0.4626,0.2254,-0.4007,0,0,0,-0.001,0.011,-0.008,1023
2018,5,17,19,34,15.365,0.7579,-0.4627,0.2254,-0.4007,0,0,0,0,0.016,-0.008,1023
2018,5,17,19,34,15.385,0.7578,-0.4627,0.2254,-0.4007,0,0,0,0.001,0.013,-0.014,1023
2018,5,17,19,34,15.405,0.7579,-0.4627,0.2254,-0.4007,0,0,0,0.001,0.013,-0.007,0
2018,5,17,19,34,15.424,0.7579,-0.4626,0.2254,-0.4007,0.7,0,0,0.001,0.015,-0.011,0
2018,5,17,19,34,15.445,0.7579,-0.4625,0.2253,-0.4008,0.8,0,0,0,0.016,-0.005,0
2018,5,17,19,34,15.464,0.758,-0.4624,0.2253,-0.4008,0.8,0,-0.1,0,0.014,-0.006,0
2018,5,17,19,34,15.504,0.7581,-0.4623,0.2253,-0.4008,0.5,0,-0.3,0.001,0.015,-0.009,0
2018,5,17,19,34,15.526,0.7581,-0.4623,0.2252,-0.4008,0,0,0,0.001,0.014,-0.006,0
2018,5,17,19,34,15.53,0.7581,-0.4623,0.2252,-0.4008,0.7,0,-0.1,-0.002,0.016,-0.007,0
2018,5,17,19,34,15.551,0.7581,-0.4622,0.2252,-0.4008,0,0,0,-0.001,0.017,-0.009,0
2018,5,17,19,34,15.571,0.7581,-0.4622,0.2252,-0.4008,0,0,0,0.001,0.013,-0.009,0
2018,5,17,19,34,15.586,0.7581,-0.4622,0.2252,-0.4008,0,0,0,0.002,0.015,-0.007,0
2018,5,17,19,34,15.623,0.7581,-0.4622,0.2252,-0.4008,0,0,0,-0.001,0.018,-0.008,0
2018,5,17,19,34,15.644,0.7582,-0.4622,0.2252,-0.4008,0,0,0,0.001,0.017,-0.008,0
2018,5,17,19,34,15.649,0.7581,-0.4622,0.2252,-0.4008,0,0,0,0,0.012,-0.008,0
2018,5,17,19,34,15.668,0.7581,-0.4622,0.2252,-0.4008,0,0,0,0.002,0.015,-0.008,0
2018,5,17,19,34,15.706,0.7581,-0.4622,0.2252,-0.4008,0,0,0,0,0.013,-0.01,0
2018,5,17,19,34,15.726,0.7581,-0.4623,0.2252,-0.4008,0,0,0,0,0.014,-0.003,0
2018,5,17,19,34,15.73,0.7581,-0.4623,0.2252,-0.4008,0,0,0,0,0.014,-0.011,0
2018,5,17,19,34,15.748,0.7581,-0.4623,0.2252,-0.4008,0,0,0,0.002,0.016,-0.009,0
2018,5,17,19,34,15.788,0.7581,-0.4622,0.2252,-0.4008,0.5,-0.2,0,0.004,0.013,-0.005,0
2018,5,17,19,34,15.792,0.7582,-0.4622,0.2252,-0.4008,0,0,0,0,0.014,-0.007,0
2018,5,17,19,34,15.806,0.7582,-0.4621,0.2252,-0.4008,0,0,0,0.001,0.016,-0.009,0
2018,5,17,19,34,15.828,0.7582,-0.4621,0.2252,-0.4008,0,0,0,0,0.016,-0.01,0
2018,5,17,19,34,15.849,0.7582,-0.4621,0.2252,-0.4008,0,0,0,0.001,0.015,-0.007,0
2018,5,17,19,34,15.869,0.7582,-0.4621,0.2252,-0.4009,0,0,0,-0.003,0.017,-0.009,0
2018,5,17,19,34,15.889,0.7582,-0.4621,0.2252,-0.4009,0,0,0,-0.001,0.016,-0.003,0
2018,5,17,19,34,15.926,0.7582,-0.4621,0.2252,-0.4009,0,0,0,0.005,0.014,-0.009,0
2018,5,17,19,34,15.948,0.7582,-0.4621,0.2252,-0.4009,0,0,0,0.002,0.015,-0.01,0
2018,5,17,19,34,15.951,0.7582,-0.4621,0.2252,-0.4009,0,0,0,0.001,0.015,-0.006,0
2018,5,17,19,34,15.969,0.7582,-0.4621,0.2252,-0.4009,0,0,0,0.001,0.011,-0.003,0
2018,5,17,19,34,15.989,0.7582,-0.4621,0.2252,-0.4009,0,0,0,0,0.013,-0.008,0
2018,5,17,19,34,16.007,0.7583,-0.462,0.2252,-0.4009,0.6,0,-0.2,-0.003,0.015,-0.007,1023
2018,5,17,19,34,16.027,0.7583,-0.4619,0.2251,-0.4009,0,0,0,0,0.018,-0.007,1023
2018,5,17,19,34,16.049,0.7584,-0.4619,0.2251,-0.4009,0,0,0,0.001,0.018,-0.001,1023
2018,5,17,19,34,16.069,0.7584,-0.4619,0.2251,-0.4009,0,0,0,0.003,0.018,-0.007,1023
2018,5,17,19,34,16.089,0.7583,-0.4619,0.2252,-0.4009,-0.8,0,0,0.001,0.017,-0.005,1023
2018,5,17,19,34,16.109,0.7582,-0.4621,0.2252,-0.4008,-1.1,0.2,0.2,-0.002,0.014,-0.007,1023
2018,5,17,19,34,16.146,0.7582,-0.4622,0.2253,-0.4008,-0.8,0,-0.1,-0.002,0.011,-0.005,1023
2018,5,17,19,34,16.167,0.7581,-0.4623,0.2253,-0.4007,0,0,0,0.001,0.012,-0.007,1023
2018,5,17,19,34,16.171,0.7581,-0.4623,0.2253,-0.4007,0,0,0,0,0.012,-0.007,1023
2018,5,17,19,34,16.208,0.7581,-0.4623,0.2253,-0.4007,0,0,0,-0.002,0.015,-0.01,1023
2018,5,17,19,34,16.229,0.7581,-0.4623,0.2253,-0.4007,0,0,0,0,0.014,-0.007,1023
2018,5,17,19,34,16.235,0.7581,-0.4623,0.2253,-0.4007,0,0,0,0,0.018,-0.007,1023
2018,5,17,19,34,16.253,0.7581,-0.4623,0.2253,-0.4007,0,0,0,0,0.016,-0.005,0
2018,5,17,19,34,16.273,0.7581,-0.4623,0.2253,-0.4007,0,0,0,-0.001,0.018,-0.009,0
2018,5,17,19,34,16.29,0.7581,-0.4623,0.2253,-0.4007,0,0,0,0,0.012,-0.008,0
2018,5,17,19,34,16.33,0.7581,-0.4623,0.2253,-0.4007,0,0,0,0,0.017,-0.007,0
2018,5,17,19,34,16.349,0.7581,-0.4623,0.2253,-0.4007,0,0,0,0.002,0.015,-0.007,0
2018,5,17,19,34,16.353,0.7581,-0.4623,0.2253,-0.4007,0,0,0,0,0.016,-0.01,0
2018,5,17,19,34,16.371,0.7581,-0.4623,0.2253,-0.4007,0,0,0,-0.002,0.015,-0.005,0
2018,5,17,19,34,16.392,0.7581,-0.4623,0.2253,-0.4007,-0.5,0,0,0,0.015,-0.006,0
