ax,ay,az,dpitch,droll,dyaw,heart,time_1,time_2,time_3,time_4,time_5,time_6,w,x,y,z
-0.064,0.04,-0.009,14,-158.4,30.4,1023,2018,5,17,21,16,25.54,-0.57,0.223,-0.5383,-0.5791
-0.055,-0.013,-0.059,7.4,-95.9,39,1023,2018,5,17,21,16,25.564,-0.5692,0.2376,-0.5228,-0.5882
-0.038,-0.104,-0.062,5,-18.9,38.1,0,2018,5,17,21,16,25.575,-0.5715,0.2466,-0.5152,-0.589
0.002,-0.175,0.026,2.2,29.3,31.8,0,2018,5,17,21,16,25.608,-0.5761,0.2491,-0.5138,-0.5847
0.038,0,0.011,1,39.3,26.7,0,2018,5,17,21,16,25.608,-0.5812,0.2479,-0.5162,-0.578
0.066,0.239,0.198,-0.9,-52.2,11.2,0,2018,5,17,21,16,25.631,-0.5831,0.2493,-0.5153,-0.5763
0.11,0.177,0.108,2,-143.4,2.1,0,2018,5,17,21,16,25.649,-0.5789,0.2605,-0.5041,-0.5854
0.152,0.082,0.172,1.7,-154.5,-4.8,0,2018,5,17,21,16,25.673,-0.5715,0.2752,-0.4879,-0.5995
0.023,0.212,0.262,-13.5,-101.7,-0.6,0,2018,5,17,21,16,25.709,-0.5644,0.2881,-0.4746,-0.6108
-0.04,0.097,0.053,-21.8,-33.9,3.1,0,2018,5,17,21,16,25.73,-0.5598,0.2964,-0.4694,-0.6149
0.157,0.079,-0.113,-19,9.5,-0.5,0,2018,5,17,21,16,25.735,-0.5573,0.2993,-0.471,-0.6146
0.208,0.028,-0.087,-12.8,34.9,-2.3,0,2018,5,17,21,16,25.751,-0.5568,0.2989,-0.4755,-0.6118
0.187,0.034,-0.116,-9,58.3,-2.9,0,2018,5,17,21,16,25.775,-0.558,0.2955,-0.4821,-0.6072
0.177,0.149,-0.204,-3.5,62.3,-2.1,0,2018,5,17,21,16,25.812,-0.5603,0.2899,-0.4894,-0.6019
0.184,-0.101,-0.217,3.1,70.4,-2.6,0,2018,5,17,21,16,25.835,-0.5633,0.2835,-0.4961,-0.5967
0.115,-0.162,-0.02,-1.5,126,-4.6,0,2018,5,17,21,16,25.84,-0.5677,0.2733,-0.5061,-0.5887
0.125,-0.053,0.155,-10.3,141.7,-11.7,0,2018,5,17,21,16,25.853,-0.5734,0.2595,-0.521,-0.5764
0.216,0.206,0.224,-20.9,87.3,-15.1,0,2018,5,17,21,16,25.87,-0.5763,0.2474,-0.5344,-0.5664
0.267,0.241,0.129,-25.6,0.1,-5.1,0,2018,5,17,21,16,25.893,-0.5747,0.2446,-0.5411,-0.563
0.281,-0.023,-0.008,-22.8,-32.7,-0.5,0,2018,5,17,21,16,25.929,-0.5711,0.2492,-0.5417,-0.564
0.351,-0.14,-0.154,-16,-24.9,2.8,0,2018,5,17,21,16,25.952,-0.5683,0.2546,-0.541,-0.5651
0.344,-0.112,-0.172,0.3,-26.4,-0.7,1023,2018,5,17,21,16,25.956,-0.5665,0.2578,-0.5393,-0.567
0.276,-0.067,0.106,11.1,-37.5,-3.2,1023,2018,5,17,21,16,25.974,-0.5656,0.2604,-0.5353,-0.5705
0.176,-0.361,0.234,5.9,0,-0.9,1023,2018,5,17,21,16,25.997,-0.5653,0.2616,-0.532,-0.5734
0.114,-0.337,0.189,0.1,73,-1.4,1023,2018,5,17,21,16,26.014,-0.5673,0.2572,-0.536,-0.5696
0.156,-0.34,0.095,0.7,93,-12.2,1023,2018,5,17,21,16,26.037,-0.5702,0.2483,-0.5447,-0.5624
0.153,-0.343,0.032,7,133.5,-20.3,0,2018,5,17,21,16,26.055,-0.5738,0.235,-0.5561,-0.5533
0.16,-0.168,0.056,10,150.4,-33.1,0,2018,5,17,21,16,26.079,-0.5777,0.2169,-0.57,-0.5424
0.125,-0.192,-0.128,19.8,164.2,-35,0,2018,5,17,21,16,26.095,-0.5816,0.1962,-0.5845,-0.5305
0.009,-0.003,-0.091,27.7,154.8,-37.5,0,2018,5,17,21,16,26.111,-0.586,0.1736,-0.5983,-0.518
-0.084,0.063,0.163,26.9,123.7,-33.7,0,2018,5,17,21,16,26.135,-0.5895,0.1529,-0.6088,-0.5083
-0.104,0.07,0.338,16,99.9,-22.3,0,2018,5,17,21,16,26.172,-0.5921,0.1365,-0.6172,-0.4997
-0.082,0.163,0.2,10.9,44.6,-8.1,0,2018,5,17,21,16,26.195,-0.5939,0.1261,-0.6226,-0.4935
-0.052,0.016,0.068,13.2,-23.2,-1.9,0,2018,5,17,21,16,26.201,-0.595,0.1237,-0.622,-0.4936
-0.081,-0.103,0.005,22.3,-62.3,-3,0,2018,5,17,21,16,26.218,-0.5962,0.1269,-0.6158,-0.499
-0.135,0.034,0.056,31.1,-112,-6.7,0,2018,5,17,21,16,26.237,-0.5969,0.1326,-0.6052,-0.5096
-0.155,0.087,0.018,36.2,-180.5,-3.8,0,2018,5,17,21,16,26.255,-0.5962,0.1444,-0.5883,-0.5267
-0.213,-0.031,-0.077,39.7,-209.5,9.5,0,2018,5,17,21,16,26.278,-0.5947,0.1613,-0.5656,-0.5479
-0.256,-0.163,-0.194,43.5,-195.3,24.7,0,2018,5,17,21,16,26.295,-0.5939,0.1801,-0.5414,-0.5671
-0.254,-0.264,-0.126,45,-141.3,41.1,0,2018,5,17,21,16,26.332,-0.5957,0.1965,-0.5186,-0.5809
-0.289,-0.337,-0.045,46.8,-61.4,52.2,0,2018,5,17,21,16,26.332,-0.6013,0.2062,-0.5019,-0.5864
-0.293,-0.243,0.023,48.3,-9.7,57.8,0,2018,5,17,21,16,26.356,-0.6099,0.2093,-0.4917,-0.585
-0.268,-0.238,-0.01,47.8,18.3,67.1,0,2018,5,17,21,16,26.373,-0.6205,0.2092,-0.4848,-0.5796
-0.203,-0.258,-0.071,45.8,60.1,77.5,0,2018,5,17,21,16,26.396,-0.6333,0.2064,-0.4809,-0.57
-0.192,-0.133,-0.088,42.9,88.7,81,0,2018,5,17,21,16,26.434,-0.6477,0.2001,-0.4807,-0.5561
-0.245,0.025,-0.138,39.8,77.3,85.5,0,2018,5,17,21,16,26.457,-0.6621,0.193,-0.4813,-0.5409
-0.314,0.061,-0.211,35.8,34.1,89.4,0,2018,5,17,21,16,26.462,-0.6752,0.1903,-0.4792,-0.5273
-0.351,0.012,-0.338,35.6,3.1,98.7,0,2018,5,17,21,16,26.48,-0.6872,0.1931,-0.4733,-0.5161
-0.323,0.027,-0.431,40.1,-13.8,109.6,1023,2018,5,17,21,16,26.496,-0.6993,0.199,-0.4647,-0.5052
-0.244,0.022,-0.477,48.1,-19.1,121.3,1023,2018,5,17,21,16,26.513,-0.7124,0.2066,-0.4535,-0.494
-0.299,0.182,-0.404,51,-41.9,131.7,1023,2018,5,17,21,16,26.535,-0.7259,0.2158,-0.4401,-0.4822
-0.328,0.221,-0.427,54.2,-66.3,151.8,1023,2018,5,17,21,16,26.571,-0.7395,0.2293,-0.4232,-0.4704
-0.343,0.235,-0.471,57.7,-64.7,180.6,1023,2018,5,17,21,16,26.594,-0.7541,0.2457,-0.4035,-0.456
-0.385,0.28,-0.49,65.1,-31.4,216.1,1023,2018,5,17,21,16,26.598,-0.7717,0.261,-0.3828,-0.4355
-0.392,0.382,-0.525,79.2,-10,251.5,1023,2018,5,17,21,16,26.615,-0.7927,0.2734,-0.3607,-0.408
-0.411,0.435,-0.553,97.1,-10.1,288.1,0,2018,5,17,21,16,26.639,-0.8161,0.2851,-0.3345,-0.3749
-0.438,0.455,-0.6,118.6,-16.2,323.8,0,2018,5,17,21,16,26.675,-0.8405,0.2973,-0.3025,-0.3368
-0.471,0.462,-0.646,142.3,-25.5,359.2,0,2018,5,17,21,16,26.697,-0.8647,0.3103,-0.2638,-0.2938
-0.529,0.475,-0.67,169.8,-40.2,392,0,2018,5,17,21,16,26.702,-0.8872,0.3237,-0.2175,-0.2463
-0.668,0.294,-0.604,192.5,-68.5,414.5,0,2018,5,17,21,16,26.721,-0.9057,0.3386,-0.1635,-0.1953
-0.726,0.168,-0.504,212.9,-87.9,428,0,2018,5,17,21,16,26.758,-0.918,0.3552,-0.1032,-0.1424
-0.765,0.114,-0.362,231.3,-107.5,432.9,0,2018,5,17,21,16,26.758,-0.923,0.3723,-0.0381,-0.0882
-1.174,-0.77,0.214,225.2,-143.7,400.2,0,2018,5,17,21,16,26.782,-0.9201,0.389,0.0281,-0.0351
-1.247,-0.441,0.102,212.8,-181.9,371.3,0,2018,5,17,21,16,26.798,-0.9062,0.4129,0.0896,0.0117
-0.81,-0.56,0.426,208.2,-90.7,360.5,0,2018,5,17,21,16,26.835,-0.8892,0.4287,0.1488,0.057
-0.721,0,1.029,209.3,-78.2,361.1,0,2018,5,17,21,16,26.858,-0.8726,0.4311,0.2067,0.0989
-0.691,0.249,1.043,205,-335.6,335.5,0,2018,5,17,21,16,26.862,-0.8416,0.4501,0.2611,0.1442
-0.903,-0.9,0.333,163.5,-347.4,291.2,0,2018,5,17,21,16,26.881,-0.7915,0.4955,0.3021,0.1913
-0.746,-1.238,-0.209,111.5,22,253.4,0,2018,5,17,21,16,26.899,-0.7591,0.5083,0.3382,0.2257
-0.446,-0.849,-0.118,105,319.9,217,0,2018,5,17,21,16,26.922,-0.76,0.4713,0.3808,0.2348
-0.141,0.03,-0.189,114.9,366,176.7,0,2018,5,17,21,16,26.956,-0.7717,0.415,0.4253,0.2265
-0.347,-0.826,0.037,103.9,427.8,107.5,0,2018,5,17,21,16,26.979,-0.7831,0.3568,0.4648,0.2081
-0.307,-0.495,0.299,84.2,516.7,106.1,0,2018,5,17,21,16,26.983,-0.799,0.284,0.4995,0.1767
-0.343,0.476,0.667,72.8,380.5,97.7,0,2018,5,17,21,16,27.001,-0.8091,0.2122,0.528,0.1459
-0.143,0.448,0.693,49.7,126.6,96.6,0,2018,5,17,21,16,27.017,-0.8092,0.1699,0.546,0.1344
-0.099,0.102,0.374,28.6,-35.2,88.3,0,2018,5,17,21,16,27.039,-0.8041,0.1577,0.5547,0.1434
-0.078,0.018,0.151,13.7,-104.9,73.9,1023,2018,5,17,21,16,27.058,-0.7982,0.1608,0.5575,0.1617
-0.039,0,0.041,4.2,-158.6,54.4,1023,2018,5,17,21,16,27.081,-0.7918,0.1732,0.556,0.1835
-0.005,-0.095,-0.016,-3.4,-197.9,35.1,1023,2018,5,17,21,16,27.117,-0.7846,0.194,0.5511,0.2069
-0.007,-0.197,-0.046,-9,-209.2,14.3,1023,2018,5,17,21,16,27.14,-0.7769,0.2201,0.5431,0.23
-0.032,-0.265,-0.081,-13.8,-193,-8.2,1023,2018,5,17,21,16,27.145,-0.7695,0.2468,0.5332,0.2498
-0.028,-0.279,-0.11,-17,-158.7,-29.3,1023,2018,5,17,21,16,27.18,-0.7638,0.2717,0.5223,0.2641
-0.025,-0.249,-0.113,-17.8,-119.5,-44.7,1023,2018,5,17,21,16,27.202,-0.7604,0.2928,0.5116,0.2724
-0.03,-0.229,-0.103,-17,-80.3,-54.4,0,2018,5,17,21,16,27.205,-0.759,0.3098,0.502,0.2753
-0.023,-0.193,-0.067,-15.1,-40.8,-60.5,0,2018,5,17,21,16,27.223,-0.7597,0.3222,0.4939,0.2737
-0.008,-0.133,-0.02,-13.1,-2.3,-62.9,0,2018,5,17,21,16,27.246,-0.7626,0.33,0.4875,0.2678
0.003,-0.061,0.027,-10.7,34.7,-61,0,2018,5,17,21,16,27.261,-0.7675,0.3333,0.4827,0.2582
-0.01,0.014,0.044,-9.5,82,-56.8,0,2018,5,17,21,16,27.279,-0.7744,0.3303,0.4801,0.2459
-0.005,0.146,0.031,-8.8,123.4,-43.8,0,2018,5,17,21,16,27.301,-0.7833,0.3196,0.4804,0.2309
0.028,0.141,-0.013,-5.4,137.7,-29.1,0,2018,5,17,21,16,27.321,-0.7924,0.3039,0.4828,0.2155
0.04,0.116,-0.051,-0.9,137.1,-16.8,0,2018,5,17,21,16,27.344,-0.8004,0.2861,0.4867,0.2013
0.053,0.106,-0.086,3.7,123.6,-7,0,2018,5,17,21,16,27.363,-0.8066,0.2685,0.4914,0.1888
0.028,0.117,-0.098,6.7,103.2,0,0,2018,5,17,21,16,27.382,-0.8111,0.253,0.4961,0.1785
0.025,0.135,-0.094,8.2,78.3,6,0,2018,5,17,21,16,27.405,-0.8142,0.2403,0.5001,0.1707
0.002,0.117,-0.088,8.9,51.1,9.8,0,2018,5,17,21,16,27.422,-0.8158,0.2308,0.5036,0.1659
-0.01,0.117,-0.073,8.4,24.1,13,0,2018,5,17,21,16,27.446,-0.8161,0.2249,0.5064,0.1639
-0.036,0.071,-0.075,6.6,2.9,14.8,0,2018,5,17,21,16,27.462,-0.8152,0.2219,0.5088,0.1648
-0.047,0.035,-0.09,4.1,-8.7,14.7,0,2018,5,17,21,16,27.497,-0.8136,0.2212,0.5108,0.1674
-0.046,0.01,-0.107,2.6,-12.8,12.4,0,2018,5,17,21,16,27.52,-0.8118,0.2218,0.5124,0.1704
-0.051,-0.005,-0.11,2.4,-10.4,8.8,0,2018,5,17,21,16,27.524,-0.8101,0.2231,0.5137,0.1728
-0.048,0.01,-0.093,3,-7.3,4.7,0,2018,5,17,21,16,27.54,-0.8087,0.2239,0.515,0.1744
-0.042,0.024,-0.054,4.2,-10.1,0.9,0,2018,5,17,21,16,27.566,-0.8075,0.2249,0.516,0.1755
-0.033,0.038,-0.013,4.6,-16.4,-2.4,0,2018,5,17,21,16,27.602,-0.8064,0.2266,0.5166,0.1767
-0.011,0.041,-0.012,4.9,-24.5,-5,0,2018,5,17,21,16,27.625,-0.8051,0.2299,0.5168,0.1781
0,0.036,-0.026,5.5,-32.3,-7.2,0,2018,5,17,21,16,27.63,-0.8035,0.2345,0.5166,0.1799
0.016,0.039,-0.035,6.3,-38,-7,1023,2018,5,17,21,16,27.645,-0.8015,0.2402,0.5163,0.182
0.021,0.027,-0.032,7.2,-39.5,-5.1,1023,2018,5,17,21,16,27.664,-0.7993,0.2463,0.516,0.1846
0.018,0.008,-0.029,7.6,-36.9,-2.4,1023,2018,5,17,21,16,27.682,-0.797,0.252,0.5158,0.1873
0.012,0,-0.014,7.1,-31.7,0.6,1023,2018,5,17,21,16,27.705,-0.7947,0.2571,0.5157,0.1901
0.004,-0.014,-0.005,6.2,-24.7,3.6,1023,2018,5,17,21,16,27.723,-0.7928,0.2611,0.5158,0.1926
0.004,-0.012,-0.001,5.2,-15.8,5.6,1023,2018,5,17,21,16,27.746,-0.7911,0.2639,0.5161,0.1948
0.003,-0.013,0,4,-7.6,6.7,0,2018,5,17,21,16,27.765,-0.79,0.2652,0.5165,0.1965
-0.01,-0.013,0,3.3,-1,6.8,0,2018,5,17,21,16,27.783,-0.7892,0.2654,0.5172,0.1976
-0.017,-0.007,0.003,2.6,2.3,6.1,0,2018,5,17,21,16,27.806,-0.7888,0.2648,0.5179,0.1983
-0.016,-0.014,0,1.8,4.4,4.3,0,2018,5,17,21,16,27.824,-0.7885,0.2641,0.5186,0.1987
-0.011,-0.004,-0.01,1.4,6.3,2.1,0,2018,5,17,21,16,27.847,-0.7884,0.2633,0.5192,0.1985
-0.009,-0.004,-0.017,0.9,6.8,-0.1,0,2018,5,17,21,16,27.865,-0.7885,0.2624,0.5197,0.198
0,0.001,-0.021,0.6,6.5,-2.2,0,2018,5,17,21,16,27.888,-0.7886,0.2618,0.5201,0.1972
0.006,0.004,-0.028,0.9,5.8,-3.6,0,2018,5,17,21,16,27.903,-0.7888,0.2614,0.5204,0.1962
0.001,0.003,-0.023,1.4,5.7,-4.1,0,2018,5,17,21,16,27.941,-0.7889,0.261,0.5207,0.1952
0.002,0.003,-0.02,1.7,5.4,-4,0,2018,5,17,21,16,27.964,-0.7891,0.2607,0.5211,0.1941
0,0.002,-0.025,2.4,5.8,-3.2,0,2018,5,17,21,16,27.969,-0.7891,0.2605,0.5216,0.193
-0.002,0.009,-0.027,3,7.3,-2.4,0,2018,5,17,21,16,27.984,-0.7891,0.26,0.5223,0.1919
-0.007,0.01,-0.022,3.4,9.5,-1.3,0,2018,5,17,21,16,28.008,-0.7891,0.2591,0.5231,0.1908
-0.005,0.016,-0.023,3.3,10.7,-0.7,0,2018,5,17,21,16,28.044,-0.7891,0.2579,0.524,0.1897
-0.007,0.03,-0.017,3.2,10,-0.1,0,2018,5,17,21,16,28.068,-0.7892,0.2563,0.525,0.1888
0.001,0.035,-0.01,2.9,6.8,0.2,0,2018,5,17,21,16,28.072,-0.7892,0.2549,0.5259,0.1881
0.004,0.034,-0.006,2.9,2.1,0.5,0,2018,5,17,21,16,28.088,-0.7891,0.2542,0.5266,0.1879
-0.001,0.029,-0.003,2.4,-1.9,0.9,0,2018,5,17,21,16,28.126,-0.7888,0.254,0.5271,0.1881
-0.004,0.015,-0.009,2.1,-3.8,1.1,0,2018,5,17,21,16,28.126,-0.7883,0.2542,0.5274,0.1886
-0.008,0.009,-0.02,2.1,-3.7,2,0,2018,5,17,21,16,28.149,-0.7878,0.2546,0.5278,0.1893
-0.022,-0.004,-0.017,2.7,-2.4,2.5,1023,2018,5,17,21,16,28.166,-0.7872,0.2549,0.5283,0.1898
-0.015,-0.008,-0.023,3.4,0.8,2.6,1023,2018,5,17,21,16,28.204,-0.7866,0.2549,0.529,0.1901
-0.005,-0.01,-0.038,4.2,4.5,2.9,1023,2018,5,17,21,16,28.227,-0.7862,0.2545,0.5299,0.1901
0.001,-0.002,-0.04,5.5,7.1,2.6,1023,2018,5,17,21,16,28.232,-0.7857,0.2536,0.5312,0.1897
0.011,-0.005,-0.049,7.4,8.8,2.1,1023,2018,5,17,21,16,28.248,-0.7852,0.2527,0.5327,0.1889
0.022,-0.007,-0.054,9.5,11.5,1.7,1023,2018,5,17,21,16,28.267,-0.7845,0.2516,0.5346,0.1878
0.026,0.001,-0.044,11.7,13.7,1.6,0,2018,5,17,21,16,28.29,-0.7838,0.2502,0.5368,0.1863
0.033,0.009,-0.035,13.6,13.5,2,0,2018,5,17,21,16,28.308,-0.783,0.2487,0.5393,0.1847
0.027,0.007,-0.036,15.1,11.1,2.4,0,2018,5,17,21,16,28.331,-0.7819,0.2473,0.5419,0.1833
0.033,0.008,-0.039,16.6,8.7,2.2,0,2018,5,17,21,16,28.351,-0.7806,0.2463,0.5447,0.1821
0.026,0.012,-0.036,18.3,6.5,2.5,0,2018,5,17,21,16,28.372,-0.779,0.2457,0.5477,0.181
0.019,0,-0.022,19.8,5.5,2.6,0,2018,5,17,21,16,28.387,-0.7772,0.2452,0.5507,0.18
0.02,-0.008,-0.014,21.3,5.8,2.9,0,2018,5,17,21,16,28.424,-0.7753,0.2447,0.5539,0.179
0.037,-0.001,-0.003,21.7,6.6,2.6,0,2018,5,17,21,16,28.448,-0.7735,0.2441,0.557,0.1779
0.068,0.003,-0.01,22.3,5.7,2.3,0,2018,5,17,21,16,28.453,-0.7716,0.2436,0.5602,0.1767
0.086,-0.004,-0.024,23.8,5.6,2.1,0,2018,5,17,21,16,28.47,-0.7696,0.2435,0.5635,0.1755
0.076,-0.01,-0.003,22.9,11.2,3.6,0,2018,5,17,21,16,28.49,-0.7676,0.243,0.5668,0.174
0.075,-0.013,0.033,22.5,20.3,5.2,0,2018,5,17,21,16,28.513,-0.7661,0.2411,0.5703,0.172
0.071,-0.01,0.043,20.4,26.5,4.9,0,2018,5,17,21,16,28.533,-0.7652,0.238,0.5735,0.1694
0.131,-0.013,0.006,18.9,26.2,3,0,2018,5,17,21,16,28.566,-0.7646,0.2347,0.5766,0.1663
0.146,-0.029,0.006,15.9,34.3,2.2,0,2018,5,17,21,16,28.589,-0.7643,0.2313,0.5794,0.1626
0.144,-0.006,0.008,15.3,40.7,0,0,2018,5,17,21,16,28.594,-0.7645,0.2265,0.5822,0.1582
0.11,-0.049,0.005,15.2,35.2,-6.8,0,2018,5,17,21,16,28.611,-0.7649,0.2224,0.5847,0.153
0.071,-0.09,-0.008,13.5,28.8,-13.1,0,2018,5,17,21,16,28.628,-0.7651,0.2201,0.5867,0.1473
0.072,-0.111,-0.013,11,31.2,-17.9,0,2018,5,17,21,16,28.652,-0.7656,0.2187,0.5882,0.1412
0.089,-0.073,-0.023,8.2,39.9,-23.8,0,2018,5,17,21,16,28.668,-0.7666,0.217,0.5892,0.1337
0.103,-0.065,-0.06,7.2,45.9,-30.7,1023,2018,5,17,21,16,28.692,-0.7681,0.2146,0.5901,0.1248
0.114,-0.041,-0.086,7.1,43.7,-36.8,1023,2018,5,17,21,16,28.728,-0.7696,0.2127,0.5908,0.1148
0.092,-0.034,-0.071,7.6,32.9,-40.2,1023,2018,5,17,21,16,28.728,-0.7708,0.2119,0.5914,0.1051
0.116,-0.056,-0.073,8.4,29,-43.2,1023,2018,5,17,21,16,28.751,-0.7716,0.2126,0.5917,0.0957
0.107,-0.049,-0.068,7.9,30.7,-44.5,1023,2018,5,17,21,16,28.79,-0.7724,0.2139,0.5917,0.0859
0.122,0.02,-0.104,6.9,33.3,-42.6,1023,2018,5,17,21,16,28.814,-0.7732,0.2142,0.5919,0.0762
0.073,0.066,-0.066,7.3,24.9,-40.9,1023,2018,5,17,21,16,28.818,-0.7737,0.214,0.5924,0.0675
0.028,0.023,-0.044,6,10.4,-40.7,0,2018,5,17,21,16,28.833,-0.7738,0.2155,0.5924,0.0604
-0.009,-0.058,-0.029,3.7,24,-37.2,0,2018,5,17,21,16,28.854,-0.7741,0.2174,0.592,0.0535
-0.035,-0.074,-0.047,-1.1,49.9,-36.5,0,2018,5,17,21,16,28.873,-0.7756,0.2163,0.5912,0.0443
-0.073,-0.014,-0.017,-5.6,53,-38.5,0,2018,5,17,21,16,28.892,-0.7781,0.2126,0.59,0.0336
-0.042,0.007,0.019,-10.4,35.3,-40.6,0,2018,5,17,21,16,28.928,-0.7809,0.21,0.5877,0.0244
-0.062,-0.007,-0.031,-15,36,-36.2,0,2018,5,17,21,16,28.952,-0.7835,0.2086,0.585,0.0165
-0.081,0.002,-0.079,-16.6,44.2,-41,0,2018,5,17,21,16,28.955,-0.7865,0.2064,0.582,0.0078
-0.08,-0.023,-0.077,-14.9,36.4,-47.2,0,2018,5,17,21,16,28.974,-0.7889,0.2051,0.5791,-0.0015
-0.195,0.016,0.066,-16.5,44.1,-47,0,2018,5,17,21,16,29.01,-0.7913,0.2042,0.5761,-0.0113
-0.224,0.202,0.405,-39.2,54.3,-53.4,0,2018,5,17,21,16,29.032,-0.7957,0.2021,0.5704,-0.0223
-0.081,0.17,0.044,-43.6,62.3,-51.5,0,2018,5,17,21,16,29.037,-0.8017,0.1988,0.5625,-0.0343
-0.115,-0.051,0.086,-49.3,59.9,-50.1,0,2018,5,17,21,16,29.055,-0.808,0.1953,0.5538,-0.0449
-0.119,0.087,-0.005,-45.7,93.9,-44.6,0,2018,5,17,21,16,29.075,-0.8145,0.1888,0.5455,-0.0577
-0.142,0.16,0.038,-45.1,84.7,-41.2,0,2018,5,17,21,16,29.092,-0.8211,0.1803,0.5367,-0.0707
-0.129,0.132,0.072,-49.6,81.9,-39.6,0,2018,5,17,21,16,29.11,-0.8277,0.1716,0.5277,-0.0823
-0.072,0.208,0.009,-54.6,56.9,-34.8,0,2018,5,17,21,16,29.132,-0.8342,0.1649,0.5179,-0.0926
-0.106,0.039,-0.059,-49.9,21.6,-32,0,2018,5,17,21,16,29.17,-0.8392,0.1632,0.509,-0.0991
-0.223,-0.247,-0.174,-48.7,44.3,-28.4,0,2018,5,17,21,16,29.194,-0.8436,0.1622,0.501,-0.1043
-0.186,-0.065,0.088,-53.1,86.2,-29.8,0,2018,5,17,21,16,29.197,-0.8492,0.1549,0.4918,-0.1132
-0.089,0.192,0.091,-55.1,66.4,-30.2,0,2018,5,17,21,16,29.216,-0.8554,0.1465,0.4811,-0.1231
-0.097,-0.093,0.034,-55,39,-22.6,1023,2018,5,17,21,16,29.253,-0.8607,0.1426,0.4711,-0.1294
-0.106,-0.104,0.043,-51.4,78.3,-19.1,1023,2018,5,17,21,16,29.274,-0.8658,0.137,0.4615,-0.1362
-0.03,0.126,0.122,-49,45.2,-25.1,1023,2018,5,17,21,16,29.28,-0.871,0.1288,0.4515,-0.1437
0,0.02,0.059,-45.1,17.6,-17.6,1023,2018,5,17,21,16,29.296,-0.8749,0.1276,0.4428,-0.1481
-0.094,-0.143,0.088,-41.6,16.1,-11.8,1023,2018,5,17,21,16,29.315,-0.8783,0.1273,0.4353,-0.1505
-0.087,-0.175,0.046,-40.7,17.9,-14.2,1023,2018,5,17,21,16,29.332,-0.8812,0.1278,0.4283,-0.1533
-0.028,-0.117,-0.08,-36.5,14.9,-13.7,1023,2018,5,17,21,16,29.356,-0.8839,0.1279,0.4216,-0.1561
-0.009,-0.049,-0.134,-29.5,18.9,-12.3,0,2018,5,17,21,16,29.373,-0.8863,0.1272,0.4159,-0.1586
0.001,-0.018,-0.115,-24.3,34.5,-9,0,2018,5,17,21,16,29.396,-0.8883,0.1245,0.4113,-0.1615
-0.007,-0.008,-0.056,-20.8,55.7,-10.3,0,2018,5,17,21,16,29.415,-0.8903,0.1191,0.4068,-0.1658
-0.046,0.037,0.051,-19.1,61.3,-14.1,0,2018,5,17,21,16,29.439,-0.8925,0.1108,0.402,-0.1714
0.04,0.091,0.046,-19.3,51.3,-20.9,0,2018,5,17,21,16,29.454,-0.8947,0.103,0.3964,-0.1778
0.059,0.111,0.005,-16,38.1,-25,0,2018,5,17,21,16,29.477,-0.8963,0.0974,0.3913,-0.1839
0.051,0.086,0.015,-14.2,39,-26.5,0,2018,5,17,21,16,29.512,-0.8973,0.0937,0.3871,-0.1901
0.056,0.08,0.021,-14.6,58.9,-23.3,0,2018,5,17,21,16,29.536,-0.8985,0.0874,0.3822,-0.197
0.053,0.127,0.092,-14.1,79.1,-18.4,0,2018,5,17,21,16,29.54,-0.8998,0.0779,0.3771,-0.2047
0.027,0.186,0.164,-18.7,72.4,-10.9,0,2018,5,17,21,16,29.556,-0.9013,0.0671,0.3715,-0.2119
0.019,0.163,0.105,-24,53.5,-1.2,0,2018,5,17,21,16,29.573,-0.9032,0.0583,0.3657,-0.2166
0.009,0.15,0.067,-28.1,31.2,6.1,0,2018,5,17,21,16,29.597,-0.9054,0.0525,0.3601,-0.2185
0.006,0.061,0.036,-31.4,12.9,11.5,0,2018,5,17,21,16,29.633,-0.908,0.0492,0.3543,-0.218
0.073,0.034,-0.034,-30.9,1.7,15.2,0,2018,5,17,21,16,29.657,-0.9106,0.0485,0.3487,-0.2159
0.06,-0.019,-0.049,-28.2,-7.9,18.2,0,2018,5,17,21,16,29.66,-0.9131,0.0492,0.3441,-0.2127
0.093,0.014,-0.082,-25.9,-7,20.6,0,2018,5,17,21,16,29.679,-0.9154,0.0508,0.3399,-0.2092
0.064,0.031,-0.071,-23.6,-9.4,21.7,0,2018,5,17,21,16,29.698,-0.9176,0.0517,0.3363,-0.2051
0.047,-0.002,-0.084,-20.3,-16.2,21.3,0,2018,5,17,21,16,29.718,-0.9195,0.0536,0.3335,-0.2007
0.018,0.031,-0.08,-17.9,-19.9,20.5,0,2018,5,17,21,16,29.736,-0.9211,0.0558,0.3315,-0.1961
0,0.062,-0.086,-15.4,-23,19.8,1023,2018,5,17,21,16,29.759,-0.9224,0.0583,0.3301,-0.1913
-0.026,0.028,-0.14,-11.2,-24.6,19.2,1023,2018,5,17,21,16,29.777,-0.9235,0.0613,0.3296,-0.1863
-0.075,-0.002,-0.002,-9.6,5.4,19.6,1023,2018,5,17,21,16,29.795,-0.9242,0.0627,0.3295,-0.1824
-0.071,0.1,0.138,-16.5,5,19.6,1023,2018,5,17,21,16,29.818,-0.9258,0.0596,0.3273,-0.1791
-0.083,0.069,0.185,-23.6,-12.5,14.5,1023,2018,5,17,21,16,29.839,-0.9276,0.0591,0.324,-0.1757
-0.049,0.055,0.171,-31.3,-21.3,12.1,1023,2018,5,17,21,16,29.857,-0.9297,0.061,0.3197,-0.1721
-0.015,0.098,0.122,-35.9,-35.1,10.9,1023,2018,5,17,21,16,29.881,-0.9318,0.0652,0.3146,-0.1682
0.044,0.061,-0.031,-40.6,-95.7,1.2,1023,2018,5,17,21,16,29.896,-0.9373,0.1134,0.2951,-0.1462
0.049,0.034,-0.024,-37.8,-96.4,2.5,0,2018,5,17,21,16,29.918,-0.9374,0.1297,0.2909,-0.1401
0.051,-0.017,-0.024,-35.7,-89.3,3.8,0,2018,5,17,21,16,29.956,-0.9372,0.1455,0.287,-0.1342
0.062,-0.06,-0.035,-32.3,-77.2,3.9,0,2018,5,17,21,16,29.978,-0.9367,0.1602,0.2831,-0.1287
0.073,-0.047,-0.053,-27,-61.7,5.6,0,2018,5,17,21,16,29.984,-0.9362,0.1726,0.2796,-0.124
0.094,-0.052,-0.035,-21.5,-47.5,6.9,0,2018,5,17,21,16,30.002,-0.9358,0.1824,0.2766,-0.1199
0.071,-0.079,-0.001,-16.4,-38.2,6.2,0,2018,5,17,21,16,30.019,-0.9354,0.1898,0.2742,-0.1166
0.064,-0.09,-0.002,-11.8,-30.9,3,0,2018,5,17,21,16,30.038,-0.935,0.1963,0.2722,-0.1141
0.07,-0.06,-0.031,-6.9,-21.5,-0.4,0,2018,5,17,21,16,30.056,-0.9344,0.2015,0.2708,-0.1127
0.066,-0.016,-0.035,-2.5,-8,-0.4,0,2018,5,17,21,16,30.08,-0.9341,0.2043,0.27,-0.1123
0.053,0.012,-0.03,1.2,1.9,0.3,0,2018,5,17,21,16,30.116,-0.9341,0.2047,0.2696,-0.1124
0.041,0.03,-0.027,4.3,7.6,2,0,2018,5,17,21,16,30.14,-0.9343,0.2035,0.2698,-0.1127
0.031,0.036,-0.019,6.7,11,2.9,0,2018,5,17,21,16,30.144,-0.9345,0.2013,0.2705,-0.113
0.006,0.018,0.003,7.9,12.6,3.8,0,2018,5,17,21,16,30.16,-0.9348,0.1987,0.2716,-0.1133
-0.011,0.003,0.003,7.9,13.7,3.3,0,2018,5,17,21,16,30.199,-0.9349,0.196,0.2728,-0.1136
-0.02,0.014,0.005,7.1,13.3,2.1,0,2018,5,17,21,16,30.222,-0.9351,0.1932,0.274,-0.1141
-0.017,0.043,0.002,5.7,11.6,1.4,0,2018,5,17,21,16,30.226,-0.9353,0.1906,0.2751,-0.1146
-0.016,0.057,0,4,8.7,2,0,2018,5,17,21,16,30.24,-0.9355,0.1882,0.2759,-0.1148
-0.025,0.051,-0.004,3.2,3.2,2.6,0,2018,5,17,21,16,30.257,-0.9357,0.1862,0.2767,-0.1147
-0.023,0.031,-0.005,1.9,-0.8,2.5,0,2018,5,17,21,16,30.28,-0.9357,0.1853,0.2775,-0.1143
-0.016,0.024,-0.005,0.3,-2.6,2.3,0,2018,5,17,21,16,30.317,-0.9356,0.185,0.278,-0.1138
-0.006,0.026,0.001,-0.7,-4,3.1,1023,2018,5,17,21,16,30.34,-0.9356,0.1848,0.2783,-0.1132
0,0.017,0.008,-1.8,-6.5,4,1023,2018,5,17,21,16,30.344,-0.9357,0.1853,0.2783,-0.1123
0.002,0.01,0.003,-2.9,-10,4.2,1023,2018,5,17,21,16,30.359,-0.9357,0.186,0.2782,-0.1111
0.005,0.009,-0.016,-3.2,-12.3,3.6,1023,2018,5,17,21,16,30.397,-0.9356,0.1874,0.2781,-0.1099
0.012,0.003,-0.018,-2.8,-12.4,2.9,1023,2018,5,17,21,16,30.421,-0.9354,0.1892,0.278,-0.1087
0.011,0,-0.014,-2,-10,2.3,1023,2018,5,17,21,16,30.424,-0.9352,0.191,0.2779,-0.1077
0.013,-0.01,-0.006,-1.8,-7.2,2,1023,2018,5,17,21,16,30.442,-0.935,0.1922,0.2778,-0.107
0.006,-0.011,0.002,-1.5,-4.8,0.9,1023,2018,5,17,21,16,30.465,-0.9349,0.1931,0.2777,-0.1065
0.004,-0.008,0,-1.1,-2.3,-0.3,0,2018,5,17,21,16,30.482,-0.9349,0.1937,0.2775,-0.1064
0.006,0.015,-0.011,-0.6,-0.3,-0.9,0,2018,5,17,21,16,30.505,-0.9349,0.1939,0.2774,-0.1065
0.005,0.024,-0.016,-0.1,-0.7,-0.6,0,2018,5,17,21,16,30.521,-0.9349,0.1938,0.2773,-0.1067
0.008,0.03,-0.012,0.6,-1.9,0.1,0,2018,5,17,21,16,30.544,-0.9349,0.1937,0.2774,-0.1067
0.003,0.018,-0.005,0.6,-4.5,0.6,0,2018,5,17,21,16,30.584,-0.9348,0.1938,0.2777,-0.1065
-0.002,0.003,-0.007,0.4,-5.6,0.1,0,2018,5,17,21,16,30.587,-0.9346,0.1944,0.278,-0.1062
0,-0.006,-0.008,0.1,-4.8,-0.6,0,2018,5,17,21,16,30.604,-0.9344,0.1953,0.2782,-0.106
-0.001,-0.004,0,0.1,-3.3,-0.9,0,2018,5,17,21,16,30.625,-0.9342,0.196,0.2783,-0.106
0.003,-0.001,-0.006,-0.2,-2.7,-1.2,0,2018,5,17,21,16,30.659,-0.9341,0.1965,0.2783,-0.1061
0.006,0.005,-0.003,-0.3,-2.3,-1.4,0,2018,5,17,21,16,30.681,-0.934,0.1969,0.2782,-0.1063
0.009,0.006,-0.011,-0.1,-2.3,-1.6,0,2018,5,17,21,16,30.687,-0.9339,0.1974,0.2782,-0.1065
0.003,0.012,-0.007,0.1,-1.7,-1.5,0,2018,5,17,21,16,30.704,-0.9338,0.1978,0.2782,-0.1067
0,0.014,-0.01,0.4,-0.8,-1.2,0,2018,5,17,21,16,30.719,-0.9337,0.198,0.2783,-0.1069
0,0.013,-0.004,0.4,-0.3,-0.9,0,2018,5,17,21,16,30.741,-0.9336,0.1979,0.2784,-0.1072
0,0.007,0,0.1,-1.2,-0.9,0,2018,5,17,21,16,30.78,-0.9336,0.1978,0.2784,-0.1073
0,0.008,0,-0.2,-2.4,-1,0,2018,5,17,21,16,30.8,-0.9336,0.198,0.2784,-0.1075
0.002,0.009,-0.008,-0.3,-3.1,-0.7,0,2018,5,17,21,16,30.804,-0.9335,0.1983,0.2784,-0.1075
0.001,0.011,-0.014,-0.6,-3.3,-0.2,0,2018,5,17,21,16,30.841,-0.9334,0.1989,0.2784,-0.1075
0.003,0.012,-0.011,-0.5,-2.3,0,0,2018,5,17,21,16,30.862,-0.9333,0.1992,0.2784,-0.1074
0.003,0.009,-0.015,-0.7,-1.5,0.1,0,2018,5,17,21,16,30.866,-0.9333,0.1995,0.2784,-0.1073
-0.001,0.003,-0.006,-0.9,-1.6,0.4,0,2018,5,17,21,16,30.901,-0.9333,0.1997,0.2784,-0.1072
0,0.006,-0.003,-0.9,-2.1,0,0,2018,5,17,21,16,30.924,-0.9333,0.1999,0.2783,-0.1071
0,0.007,-0.011,-1.1,-2.8,-0.4,1023,2018,5,17,21,16,30.928,-0.9332,0.2002,0.2782,-0.107
0.004,0,-0.014,-1,-2.7,-0.6,1023,2018,5,17,21,16,30.943,-0.9332,0.2005,0.2782,-0.107
0.003,0,-0.007,-0.8,-1.6,-0.6,1023,2018,5,17,21,16,30.962,-0.9331,0.2008,0.2781,-0.1071
0.004,0.003,-0.003,-0.4,-0.8,-1,1023,2018,5,17,21,16,30.984,-0.9331,0.2009,0.2781,-0.1072
0.007,0.006,-0.005,0,-0.6,-1.3,1023,2018,5,17,21,16,31.021,-0.9331,0.2009,0.278,-0.1074
0.009,0.011,-0.002,0,-0.9,-1.3,0,2018,5,17,21,16,31.044,-0.9331,0.2011,0.2779,-0.1077
0.007,0.01,-0.007,0,-1.7,-1.1,0,2018,5,17,21,16,31.048,-0.933,0.2011,0.2779,-0.1079
0.01,0.011,-0.017,0.4,-2.2,-1.3,0,2018,5,17,21,16,31.067,-0.9329,0.2013,0.278,-0.1081
0.013,0.015,-0.016,1,-1.4,-1.2,0,2018,5,17,21,16,31.104,-0.9328,0.2014,0.2781,-0.1083
0.006,0.018,-0.012,1.7,-0.6,-0.7,0,2018,5,17,21,16,31.127,-0.9327,0.2015,0.2783,-0.1085
-0.018,-0.002,0.014,1,0.9,-0.7,0,2018,5,17,21,16,31.131,-0.9326,0.2014,0.2786,-0.1087
-0.034,-0.009,0.029,-1.7,2.6,-1.4,0,2018,5,17,21,16,31.147,-0.9327,0.2012,0.2786,-0.109
-0.053,0.045,0.053,-4,0.7,-2,0,2018,5,17,21,16,31.169,-0.9329,0.2004,0.2782,-0.1093
-0.126,0.012,0.118,-6.9,-5.8,-3.1,0,2018,5,17,21,16,31.184,-0.9332,0.2001,0.2777,-0.1091
-0.164,0.044,0.11,-14.6,-10.7,-4.3,0,2018,5,17,21,16,31.203,-0.9334,0.2011,0.2761,-0.1089
-0.171,0.085,0.012,-19.2,-23.2,-9.5,0,2018,5,17,21,16,31.225,-0.9335,0.2046,0.2734,-0.1085
-0.171,0.145,-0.009,-27.3,-30.9,-9.5,0,2018,5,17,21,16,31.245,-0.9335,0.2098,0.2698,-0.1081
-0.186,0.018,-0.008,-37.2,-5.3,-2.6,0,2018,5,17,21,16,31.268,-0.9341,0.2142,0.2647,-0.1068
-0.003,0.209,-0.082,-41.7,11.8,9.3,0,2018,5,17,21,16,31.285,-0.9363,0.2135,0.2581,-0.1052
-0.04,0.122,-0.069,-37.8,17.3,18.6,0,2018,5,17,21,16,31.308,-0.9389,0.211,0.252,-0.1018
0.121,0.191,-0.072,-30.4,30.1,21.5,0,2018,5,17,21,16,31.326,-0.9415,0.2068,0.247,-0.0979
0.294,0.303,-0.103,-21,37,28.4,0,2018,5,17,21,16,31.348,-0.9443,0.2,0.2433,-0.095
0.011,-0.167,-0.139,-5.3,33.3,37,0,2018,5,17,21,16,31.387,-0.9463,0.1946,0.242,-0.0895
0.257,0.154,-0.025,4.2,-9.9,33.1,0,2018,5,17,21,16,31.387,-0.9475,0.1901,0.2425,-0.0846
0.264,-0.273,0.072,10.1,-65,17.6,0,2018,5,17,21,16,31.408,-0.946,0.1961,0.2454,-0.0787
0.23,-0.509,-0.009,16,-45.2,6.1,0,2018,5,17,21,16,31.444,-0.9436,0.2051,0.2488,-0.0747
0.168,-0.337,-0.015,21.4,-3.9,-3.8,0,2018,5,17,21,16,31.465,-0.942,0.2084,0.2522,-0.0746
0.158,-0.006,-0.067,27.8,22.3,-4.9,1023,2018,5,17,21,16,31.467,-0.9413,0.2058,0.2559,-0.0768
0.15,0.213,-0.134,38.7,4.6,-1.5,1023,2018,5,17,21,16,31.504,-0.9405,0.2027,0.2604,-0.0794
0.144,0.275,-0.19,55.3,-41,5.7,1023,2018,5,17,21,16,31.527,-0.9378,0.2047,0.2686,-0.0799
0.116,0.097,-0.067,64.4,-78,8.9,1023,2018,5,17,21,16,31.531,-0.9328,0.2134,0.2794,-0.0778
0.074,-0.025,0.044,68.2,-74.8,12.4,1023,2018,5,17,21,16,31.551,-0.9269,0.2247,0.291,-0.075
0.002,-0.11,0.152,62.5,-53.8,12.9,1023,2018,5,17,21,16,31.567,-0.9212,0.2339,0.3022,-0.0726
0.008,-0.127,0.105,55.3,-36.6,11.4,1023,2018,5,17,21,16,31.59,-0.9165,0.24,0.3119,-0.0711
0.008,-0.047,-0.044,53.2,-23.1,12.2,1023,2018,5,17,21,16,31.628,-0.9123,0.2441,0.321,-0.0702
-0.008,0.002,-0.088,55.9,-7.8,13.4,0,2018,5,17,21,16,31.651,-0.9084,0.2459,0.3306,-0.0699
0.013,-0.01,-0.068,58.9,1,14.5,0,2018,5,17,21,16,31.656,-0.9047,0.2455,0.3408,-0.07
-0.083,-0.033,0.013,57.8,11.3,16,0,2018,5,17,21,16,31.67,-0.9014,0.2431,0.3511,-0.0706
-0.094,-0.044,0.116,53.7,14.6,16.5,0,2018,5,17,21,16,31.687,-0.8987,0.239,0.3606,-0.0712
-0.128,-0.174,0.243,47.8,4.4,13.1,0,2018,5,17,21,16,31.709,-0.8963,0.2355,0.3687,-0.0716
-0.123,-0.263,0.309,38.5,9.8,4.4,0,2018,5,17,21,16,31.747,-0.894,0.2337,0.375,-0.0728
-0.068,-0.129,0.26,33.3,16.8,3.7,0,2018,5,17,21,16,31.768,-0.8927,0.2312,0.3794,-0.0751
0.046,0.078,0.073,33.8,12.4,7.6,0,2018,5,17,21,16,31.77,-0.8917,0.2274,0.3836,-0.0769
0.109,0.213,-0.003,42.1,-12,14.5,0,2018,5,17,21,16,31.807,-0.8893,0.226,0.39,-0.0767
0.116,0.09,0.106,45.7,-26.2,19.9,0,2018,5,17,21,16,31.83,-0.8857,0.2271,0.3979,-0.0742
0.14,0.017,0.067,50.1,-36.9,20.1,0,2018,5,17,21,16,31.835,-0.8813,0.2299,0.4065,-0.0708
0.108,-0.089,0.04,53.7,-35.9,20.3,0,2018,5,17,21,16,31.853,-0.8764,0.2331,0.4159,-0.0669
0.029,-0.113,0.024,55.6,-23.1,21.4,0,2018,5,17,21,16,31.871,-0.8714,0.2359,0.4252,-0.0642
0.031,-0.012,-0.013,55.4,-8.7,24.5,0,2018,5,17,21,16,31.889,-0.8668,0.2362,0.4345,-0.0623
-0.013,0.086,0.009,53.8,-3.4,30.3,0,2018,5,17,21,16,31.927,-0.8627,0.2342,0.444,-0.0599
-0.008,0.121,0.025,49.8,-17.9,37.5,0,2018,5,17,21,16,31.951,-0.8587,0.232,0.4533,-0.056
-0.055,0.06,-0.031,45.6,-32,44,0,2018,5,17,21,16,31.956,-0.8542,0.2317,0.4627,-0.0494
-0.03,0.369,-0.051,39.7,-61.3,54.9,0,2018,5,17,21,16,31.971,-0.8493,0.2337,0.4715,-0.04
-0.125,0.056,-0.066,38.6,-82.2,66.6,0,2018,5,17,21,16,31.989,-0.8432,0.2391,0.4806,-0.0258
-0.121,0.025,-0.091,39.9,-83.4,70.4,0,2018,5,17,21,16,32.013,-0.8363,0.2453,0.4901,-0.0102
-0.161,0.018,-0.116,44.2,-85.9,77.3,1023,2018,5,17,21,16,32.048,-0.829,0.2512,0.4994,0.006
-0.239,0.027,-0.137,49.5,-86.8,83.3,1023,2018,5,17,21,16,32.069,-0.8208,0.2568,0.5096,0.0232
-0.262,-0.005,-0.11,53.2,-88,83.9,1023,2018,5,17,21,16,32.074,-0.8117,0.262,0.5203,0.0407
-0.266,0.083,-0.057,54,-88,82.2,1023,2018,5,17,21,16,32.093,-0.802,0.2673,0.5309,0.0579
-0.283,0.049,-0.026,53.8,-81.4,79.5,1023,2018,5,17,21,16,32.113,-0.7919,0.2724,0.5412,0.0746
-0.255,0.013,0.006,49.5,-57,75.4,1023,2018,5,17,21,16,32.13,-0.7819,0.2754,0.5519,0.0897
-0.206,0.011,0.048,40.7,-24.4,68.1,1023,2018,5,17,21,16,32.151,-0.7741,0.2746,0.5612,0.1015
-0.139,0.047,0.049,30.6,2.4,58.6,0,2018,5,17,21,16,32.189,-0.7689,0.2701,0.5689,0.1094
-0.102,0.074,0.033,21.4,10.4,47.3,0,2018,5,17,21,16,32.211,-0.7656,0.264,0.5752,0.1149
-0.094,0.065,0.009,13.4,15.8,38.6,0,2018,5,17,21,16,32.216,-0.7634,0.2581,0.58,0.1188
-0.055,0.055,0.022,4.6,19.6,30.5,0,2018,5,17,21,16,32.233,-0.7623,0.2524,0.5833,0.1213
-0.027,0.055,0.023,-4.2,18.4,23.9,0,2018,5,17,21,16,32.255,-0.7625,0.2472,0.585,0.1231
-0.012,0.043,-0.007,-11.1,13.9,18.6,0,2018,5,17,21,16,32.274,-0.7633,0.2429,0.5853,0.1246
-0.01,0.047,-0.02,-17,14.4,17.6,0,2018,5,17,21,16,32.296,-0.7647,0.2392,0.5847,0.1261
0.043,0.198,-0.068,-19.2,-5.7,17,0,2018,5,17,21,16,32.315,-0.7663,0.2361,0.5834,0.1287
0.068,0.084,-0.089,-19.5,-36.7,15,0,2018,5,17,21,16,32.337,-0.7667,0.2375,0.5811,0.1341
0.053,-0.02,-0.062,-23.7,-28.7,14,0,2018,5,17,21,16,32.354,-0.7665,0.2409,0.5785,0.1402
0.091,0.088,-0.076,-27.3,-19.2,16.8,0,2018,5,17,21,16,32.373,-0.7673,0.242,0.5756,0.1455
0.119,0.108,-0.102,-27.1,-25,20.4,0,2018,5,17,21,16,32.409,-0.768,0.2423,0.573,0.1516
0.141,0.069,-0.096,-26.2,-32.2,22,0,2018,5,17,21,16,32.433,-0.7681,0.2437,0.5703,0.1586
0.139,0.019,-0.079,-26.4,-32.3,23.2,0,2018,5,17,21,16,32.437,-0.7681,0.2458,0.5674,0.1659
0.154,0.006,-0.068,-28.6,-29.2,23.6,0,2018,5,17,21,16,32.454,-0.7684,0.2475,0.5641,0.1729
0.157,0.006,-0.069,-30.7,-27,24.5,0,2018,5,17,21,16,32.476,-0.7692,0.2486,0.5604,0.1798
0.149,0.009,-0.068,-32,-26.7,25.5,0,2018,5,17,21,16,32.494,-0.77,0.2495,0.5566,0.1868
0.096,0,-0.061,-33.9,-30,27.7,0,2018,5,17,21,16,32.517,-0.7717,0.2505,0.5485,0.2018
0.073,-0.007,-0.067,-35,-34.7,28.1,0,2018,5,17,21,16,32.535,-0.7722,0.2515,0.5442,0.2098
0.058,-0.01,-0.077,-34.2,-41.1,28.4,0,2018,5,17,21,16,32.557,-0.7724,0.2534,0.5398,0.2185
0.044,-0.02,-0.078,-32.6,-48.2,28.6,1023,2018,5,17,21,16,32.575,-0.7719,0.2563,0.5352,0.2277
0.046,-0.036,-0.084,-30.3,-53.9,28.2,1023,2018,5,17,21,16,32.611,-0.771,0.2601,0.5306,0.2373
0.045,-0.054,-0.085,-26.8,-56.9,26.4,1023,2018,5,17,21,16,32.635,-0.7694,0.2648,0.526,0.2469
0.041,-0.069,-0.093,-22.5,-55.6,23.9,1023,2018,5,17,21,16,32.638,-0.7675,0.2702,0.5218,0.256
0.047,-0.083,-0.092,-18,-50.1,20.8,1023,2018,5,17,21,16,32.657,-0.7655,0.2751,0.5179,0.2643
0.052,-0.102,-0.085,-13,-38.4,16.8,1023,2018,5,17,21,16,32.675,-0.7637,0.279,0.5148,0.2715
0.048,-0.113,-0.075,-8.9,-21.4,12.2,1023,2018,5,17,21,16,32.698,-0.7624,0.2814,0.5126,0.2767
0.044,-0.12,-0.071,-5.7,-1.6,7.5,0,2018,5,17,21,16,32.715,-0.7619,0.282,0.5117,0.2793
0.034,-0.108,-0.065,-3.1,16.7,2.9,0,2018,5,17,21,16,32.74,-0.7623,0.2805,0.5118,0.2794
0.026,-0.092,-0.072,-1.4,31.2,-1.3,0,2018,5,17,21,16,32.757,-0.7636,0.2775,0.5128,0.2771
0.015,-0.065,-0.069,-0.1,40.7,-4.6,0,2018,5,17,21,16,32.779,-0.7652,0.2741,0.5145,0.2727
-0.003,-0.044,-0.057,1,44.8,-7,0,2018,5,17,21,16,32.797,-0.7672,0.2698,0.5166,0.2675
-0.009,-0.026,-0.053,1.5,42.7,-8.5,0,2018,5,17,21,16,32.82,-0.7691,0.2653,0.5188,0.2621
-0.014,0,-0.05,2.8,34.4,-8.9,0,2018,5,17,21,16,32.835,-0.7708,0.2615,0.5208,0.2571
-0.023,0.014,-0.044,4.4,20.9,-8.2,0,2018,5,17,21,16,32.874,-0.7718,0.259,0.5225,0.2532
-0.001,0.015,-0.04,6.7,5.4,-7,0,2018,5,17,21,16,32.897,-0.7718,0.2584,0.5239,0.2507
0.018,-0.005,-0.026,9.7,-5.5,-5.9,0,2018,5,17,21,16,32.901,-0.7711,0.2596,0.5249,0.2495
0.029,-0.015,-0.018,11.8,-8.9,-5.2,0,2018,5,17,21,16,32.92,-0.7699,0.2619,0.5259,0.2489
0.036,-0.026,-0.013,13.8,-5.1,-5.4,0,2018,5,17,21,16,32.936,-0.7685,0.2644,0.527,0.2481
0.018,-0.008,0.034,14.3,3.7,-5.8,0,2018,5,17,21,16,32.957,-0.7675,0.266,0.5284,0.2466
-0.022,0.021,0.078,10.1,11.5,-4.6,0,2018,5,17,21,16,32.995,-0.7672,0.2658,0.5298,0.2447
-0.01,0.04,0.075,6.9,12.7,-4,0,2018,5,17,21,16,33.017,-0.7676,0.2644,0.5309,0.2429
-0.006,0.06,0.083,5.9,7.2,-3.4,0,2018,5,17,21,16,33.021,-0.7679,0.2631,0.5316,0.2415
0.001,0.055,0.092,5.8,-0.4,-3.2,0,2018,5,17,21,16,33.037,-0.7679,0.2627,0.532,0.241
0.002,0.034,0.099,5.4,-1.9,-4.2,0,2018,5,17,21,16,33.056,-0.7678,0.2631,0.532,0.2408
0.009,0.028,0.092,3.7,6,-5.1,0,2018,5,17,21,16,33.079,-0.7681,0.2633,0.532,0.24
0.018,0.028,0.074,1.6,15.2,-4.8,0,2018,5,17,21,16,33.115,-0.7689,0.2621,0.5321,0.2385
0.02,0.029,0.056,0.1,22.9,-4.3,0,2018,5,17,21,16,33.138,-0.7701,0.2598,0.5323,0.2362
0.019,0.021,0.041,-1.4,29,-3.3,1023,2018,5,17,21,16,33.142,-0.7717,0.2565,0.5329,0.2335
0.011,0.025,0.037,-2.5,32.3,-1.8,1023,2018,5,17,21,16,33.158,-0.7735,0.2524,0.5335,0.2305
-0.002,0.025,0.022,-3.6,33.7,0,1023,2018,5,17,21,16,33.18,-0.7754,0.2478,0.5343,0.2276
-0.013,0.018,0.01,-4.6,32.9,1.8,1023,2018,5,17,21,16,33.198,-0.7772,0.2429,0.535,0.2249
-0.015,0.014,-0.003,-5.7,30.3,3.4,1023,2018,5,17,21,16,33.221,-0.7788,0.2383,0.5357,0.2226
-0.006,0.01,-0.018,-6.4,25.1,4.7,1023,2018,5,17,21,16,33.257,-0.7802,0.234,0.5363,0.2209
0.006,0.008,-0.032,-6.8,17.6,5.2,1023,2018,5,17,21,16,33.28,-0.7812,0.2306,0.5366,0.2199
0.009,0.004,-0.046,-6.5,9.3,4.8,1023,2018,5,17,21,16,33.285,-0.7819,0.2283,0.5367,0.2196
0.017,-0.002,-0.051,-6,2.3,3.3,0,2018,5,17,21,16,33.3,-0.7823,0.2273,0.5366,0.2198
0.018,-0.012,-0.06,-5,-2.2,1.4,0,2018,5,17,21,16,33.337,-0.7824,0.2272,0.5362,0.2203
0.017,-0.021,-0.065,-3.6,-4.3,-0.4,0,2018,5,17,21,16,33.359,-0.7823,0.228,0.5359,0.2206
0.007,-0.023,-0.062,-2,-3.3,-2.3,0,2018,5,17,21,16,33.364,-0.7821,0.2292,0.5357,0.2207
0,-0.028,-0.055,-0.4,-0.5,-3.9,0,2018,5,17,21,16,33.38,-0.7819,0.2304,0.5357,0.2202
-0.004,-0.024,-0.058,1,3.2,-4.9,0,2018,5,17,21,16,33.402,-0.7818,0.231,0.5359,0.2192
0,-0.019,-0.056,2.6,6.9,-5.6,0,2018,5,17,21,16,33.42,-0.7817,0.2312,0.5365,0.2178
0.005,-0.007,-0.055,4.3,9.4,-5.9,0,2018,5,17,21,16,33.443,-0.7817,0.231,0.5374,0.2159
0.005,0,-0.047,5.7,10.6,-6.1,0,2018,5,17,21,16,33.462,-0.7815,0.2307,0.5386,0.2138
0.004,0.003,-0.033,7.1,11.5,-6.1,0,2018,5,17,21,16,33.5,-0.7813,0.2302,0.54,0.2116
0.002,0.01,-0.026,7.8,11.3,-5.6,0,2018,5,17,21,16,33.5,-0.7811,0.2296,0.5414,0.2094
0.005,0.01,-0.017,8.4,10.7,-5.4,0,2018,5,17,21,16,33.523,-0.7808,0.2291,0.5428,0.2073
0.005,0.015,-0.011,8.5,10.2,-5.4,0,2018,5,17,21,16,33.539,-0.7805,0.2285,0.5443,0.2053
0.004,0.017,-0.004,8.6,9.9,-5.3,0,2018,5,17,21,16,33.562,-0.7802,0.2279,0.5457,0.2034
0.002,0.02,0,8.5,9.4,-5.1,0,2018,5,17,21,16,33.579,-0.78,0.2273,0.547,0.2016
0,0.025,0.02,8.1,9.3,-4.9,0,2018,5,17,21,16,33.602,-0.7798,0.2266,0.5482,0.1998
0.005,0.028,0.024,7.6,8,-4.6,0,2018,5,17,21,16,33.623,-0.7796,0.2259,0.5493,0.1983
0.001,0.027,0.027,7.3,7,-4.1,0,2018,5,17,21,16,33.659,-0.7794,0.2255,0.5503,0.1969
0.005,0.027,0.031,6.8,6.8,-3.1,0,2018,5,17,21,16,33.682,-0.7793,0.2247,0.5512,0.1957
0.004,0.017,0.026,6.3,8,-2.3,0,2018,5,17,21,16,33.687,-0.7792,0.224,0.552,0.1945
-0.006,0.006,0.038,6.3,9.8,-1.8,1023,2018,5,17,21,16,33.703,-0.7791,0.223,0.5529,0.1933
-0.024,0,0.047,5.7,10.8,-0.7,1023,2018,5,17,21,16,33.726,-0.7792,0.2218,0.5537,0.192
-0.03,-0.023,0.063,4.9,12.4,0.1,1023,2018,5,17,21,16,33.743,-0.7794,0.2203,0.5545,0.1907
-0.044,-0.036,0.087,1.7,11.7,-1.3,1023,2018,5,17,21,16,33.778,-0.7799,0.2188,0.5549,0.1893
-0.04,-0.06,0.077,-2.8,8.2,-5.7,1023,2018,5,17,21,16,33.802,-0.7809,0.218,0.5544,0.1878
-0.045,-0.069,0.071,-7.1,6.4,-11,1023,2018,5,17,21,16,33.806,-0.7823,0.218,0.553,0.1858
-0.015,-0.072,0.032,-9.2,2.6,-16.1,1023,2018,5,17,21,16,33.823,-0.7841,0.2188,0.5509,0.1835
0.036,-0.071,-0.016,-8.3,-2,-21,0,2018,5,17,21,16,33.842,-0.7856,0.2209,0.5487,0.1809
0.085,-0.05,-0.052,-4.6,-9,-24.4,0,2018,5,17,21,16,33.865,-0.7868,0.2242,0.5466,0.1781
0.106,-0.038,-0.074,0.5,-18.9,-28.8,0,2018,5,17,21,16,33.883,-0.7871,0.2291,0.5449,0.1755
0.169,-0.055,-0.092,10.6,-33,-38.5,0,2018,5,17,21,16,33.907,-0.7854,0.2451,0.5421,0.1703
0.163,-0.064,-0.095,15.3,-27.8,-41.8,0,2018,5,17,21,16,33.922,-0.7839,0.2539,0.5413,0.1668
0.118,-0.081,-0.104,18.5,-11.8,-41.6,0,2018,5,17,21,16,33.947,-0.7826,0.2611,0.5411,0.1623
0.094,-0.091,-0.108,20.9,18.6,-40.5,0,2018,5,17,21,16,33.981,-0.7821,0.2649,0.542,0.1555
0.102,-0.072,-0.112,21.8,46.5,-39.4,0,2018,5,17,21,16,33.981,-0.7827,0.2645,0.544,0.1458
0.13,-0.027,-0.107,21,57.9,-39.5,0,2018,5,17,21,16,34.004,-0.784,0.2615,0.5466,0.1342
0.128,0.02,-0.122,20.3,58.2,-39,0,2018,5,17,21,16,34.037,-0.7851,0.2583,0.5494,0.1219
0.116,0.069,-0.118,20.6,56.4,-37.4,0,2018,5,17,21,16,34.061,-0.7859,0.2547,0.5523,0.1102
0.096,0.085,-0.104,21.8,46.8,-37.9,0,2018,5,17,21,16,34.066,-0.7864,0.2513,0.5553,0.0994
0.075,0.08,-0.086,23.6,36.1,-35.7,0,2018,5,17,21,16,34.082,-0.7861,0.2491,0.5583,0.0898
0.038,0.005,-0.084,25.9,34.5,-32.9,0,2018,5,17,21,16,34.106,-0.7853,0.248,0.5614,0.081
0.015,-0.055,-0.055,24.6,51.1,-32.2,0,2018,5,17,21,16,34.143,-0.7847,0.2461,0.5643,0.0711
0.035,-0.024,-0.035,20.9,75.5,-31.6,0,2018,5,17,21,16,34.166,-0.7854,0.2409,0.567,0.0593
0.053,0.05,-0.055,18.4,89.4,-32.1,0,2018,5,17,21,16,34.17,-0.787,0.2326,0.5694,0.0458
0.054,0.117,-0.061,17.4,83.3,-33.1,0,2018,5,17,21,16,34.184,-0.7888,0.2233,0.5717,0.0324
0.05,0.11,-0.059,15.9,74.2,-32.8,0,2018,5,17,21,16,34.219,-0.79,0.2151,0.5737,0.0202
0.042,0.09,-0.057,15.4,77.6,-32.4,0,2018,5,17,21,16,34.243,-0.7911,0.2073,0.5753,0.0081
0.055,0.096,-0.046,16.3,80.2,-32.4,1023,2018,5,17,21,16,34.246,-0.7921,0.1989,0.5769,-0.0042
0.035,0.118,-0.035,16.7,83,-30.1,1023,2018,5,17,21,16,34.264,-0.7931,0.19,0.5783,-0.0168
-0.019,0.146,-0.009,17.7,83.6,-26.2,1023,2018,5,17,21,16,34.285,-0.794,0.1799,0.5799,-0.0288
-0.057,0.13,0.008,16.8,83,-21.3,1023,2018,5,17,21,16,34.304,-0.7947,0.1693,0.5814,-0.04
-0.078,0.107,0.043,14.3,89.9,-17.1,1023,2018,5,17,21,16,34.327,-0.7956,0.1579,0.5825,-0.051
-0.057,0.118,0.054,8.9,94.4,-15.1,1023,2018,5,17,21,16,34.362,-0.797,0.1453,0.5828,-0.0623
-0.068,0.107,0.034,3.2,89.6,-13.3,1023,2018,5,17,21,16,34.385,-0.7987,0.1328,0.5822,-0.0732
-0.097,0.109,-0.004,-1.7,83.4,-11.6,1023,2018,5,17,21,16,34.39,-0.8005,0.1209,0.581,-0.083
-0.151,0.099,0.007,-8.5,77,-11.8,0,2018,5,17,21,16,34.407,-0.8024,0.1098,0.5792,-0.092
-0.139,0.137,0.131,-15.9,35.4,-21.2,0,2018,5,17,21,16,34.431,-0.8045,0.1026,0.5764,-0.0994
-0.129,0.033,0.236,-26.6,-0.4,-22.8,0,2018,5,17,21,16,34.451,-0.8065,0.1028,0.5728,-0.1034
-0.085,-0.003,0.165,-35.3,-8.1,-23.9,0,2018,5,17,21,16,34.467,-0.8094,0.1062,0.5677,-0.1055
-0.09,-0.012,0.032,-37.2,-14.7,-24.8,0,2018,5,17,21,16,34.504,-0.8126,0.1103,0.562,-0.107
-0.072,-0.069,0.003,-38.6,-16.7,-26.7,0,2018,5,17,21,16,34.527,-0.8154,0.1158,0.5566,-0.1082
-0.051,-0.085,0.007,-40.6,-3.1,-26.3,0,2018,5,17,21,16,34.531,-0.8184,0.1207,0.5508,-0.1104
-0.027,-0.041,-0.039,-39.4,1.6,-26.5,0,2018,5,17,21,16,34.564,-0.8215,0.1243,0.5447,-0.1135
-0.106,-0.057,-0.034,-38.4,2.1,-22.7,0,2018,5,17,21,16,34.587,-0.8243,0.127,0.5391,-0.1164
-0.144,-0.033,0.046,-41.2,-7.2,-20.3,0,2018,5,17,21,16,34.591,-0.8272,0.1298,0.5335,-0.1184
-0.021,-0.05,-0.091,-41.8,-5.8,-19,0,2018,5,17,21,16,34.607,-0.8304,0.1334,0.5274,-0.1196
-0.038,-0.046,-0.073,-43.4,-5.1,-17.5,0,2018,5,17,21,16,34.63,-0.8334,0.1363,0.5218,-0.1205
-0.046,-0.13,-0.075,-42.6,8.7,-17.9,0,2018,5,17,21,16,34.648,-0.8367,0.1389,0.5154,-0.122
-0.052,-0.097,-0.045,-42.8,39.7,-19.3,0,2018,5,17,21,16,34.671,-0.8403,0.1384,0.5086,-0.1261
-0.073,-0.065,0.031,-44.9,69.4,-23.4,0,2018,5,17,21,16,34.686,-0.8448,0.1332,0.5007,-0.1333
-0.03,0.081,0.083,-48.4,82.9,-23.1,0,2018,5,17,21,16,34.709,-0.8502,0.1243,0.4912,-0.1424
-0.026,0.122,0.106,-52.7,73.2,-19.1,0,2018,5,17,21,16,34.726,-0.8556,0.1153,0.4813,-0.1512
0.014,0.126,0.113,-56.2,65.7,-13.7,0,2018,5,17,21,16,34.748,-0.8611,0.1072,0.471,-0.1582
0.037,0.189,0.11,-55.3,47.5,-7.2,0,2018,5,17,21,16,34.767,-0.8664,0.1008,0.4608,-0.1634
0.057,0.21,0.083,-50.9,20.8,1.6,0,2018,5,17,21,16,34.789,-0.8711,0.0972,0.4518,-0.1657
0.019,0.104,0.131,-47.6,-2.2,9.4,1023,2018,5,17,21,16,34.827,-0.8753,0.0966,0.4443,-0.1644
0.011,-0.014,0.118,-47.4,-3.9,13.3,1023,2018,5,17,21,16,34.851,-0.8794,0.0976,0.4369,-0.1614
0.007,-0.003,0.093,-47.3,4.9,17.6,1023,2018,5,17,21,16,34.856,-0.8838,0.0976,0.4291,-0.1585
-0.007,0.126,0.119,-49.5,1.9,24.1,1023,2018,5,17,21,16,34.872,-0.8882,0.0962,0.4215,-0.1548
0.003,0.173,0.092,-54.8,-27.6,32.6,1023,2018,5,17,21,16,34.89,-0.8926,0.0969,0.4142,-0.1486
0.045,0.136,0.009,-56.8,-60.7,40.6,1023,2018,5,17,21,16,34.914,-0.8968,0.1023,0.4073,-0.1385
0.05,0.073,0.018,-57.6,-80.1,44.2,1023,2018,5,17,21,16,34.93,-0.9007,0.1111,0.4006,-0.1253
0.059,0.014,0.021,-58.6,-86.8,42.2,0,2018,5,17,21,16,34.948,-0.9041,0.1223,0.3937,-0.1115
0.055,-0.071,-0.012,-58,-86.9,39.1,0,2018,5,17,21,16,34.97,-0.907,0.1347,0.3865,-0.098
0.026,-0.213,-0.058,-53.9,-63.5,34,0,2018,5,17,21,16,34.988,-0.9094,0.1456,0.3797,-0.0858
-0.02,-0.272,-0.007,-49.8,-20,22.4,0,2018,5,17,21,16,35.011,-0.9122,0.1507,0.3729,-0.0772
0.001,-0.144,0.002,-46,15.2,11.7,0,2018,5,17,21,16,35.029,-0.9155,0.15,0.3657,-0.0734
0.025,-0.062,-0.01,-42,29.6,6.8,0,2018,5,17,21,16,35.05,-0.9189,0.1468,0.3586,-0.0728
0.042,-0.03,0.053,-40.4,31.3,2.2,0,2018,5,17,21,16,35.087,-0.9224,0.1423,0.3514,-0.0732
0.049,-0.065,0.082,-39.2,23.4,-0.2,0,2018,5,17,21,16,35.111,-0.9257,0.1382,0.3439,-0.074
0.056,-0.051,0.094,-38.2,11.9,-2.5,0,2018,5,17,21,16,35.115,-0.9288,0.1357,0.3364,-0.0748
0.103,-0.076,0.064,-34.4,-8.4,-13.1,0,2018,5,17,21,16,35.133,-0.931,0.1363,0.33,-0.0753
0.106,-0.075,0.04,-29.2,-44.1,-20.6,0,2018,5,17,21,16,35.157,-0.932,0.1418,0.3246,-0.0759
0.087,-0.15,0.005,-22.7,-59.4,-29.5,0,2018,5,17,21,16,35.172,-0.9317,0.1525,0.3205,-0.0763
0.078,-0.194,-0.045,-16.7,-30.7,-31,0,2018,5,17,21,16,35.207,-0.9311,0.1622,0.3172,-0.078
0.055,-0.145,-0.03,-13.9,7,-30.4,0,2018,5,17,21,16,35.229,-0.9311,0.1657,0.3141,-0.082
-0.017,-0.074,0.036,-13.7,41.8,-29.4,0,2018,5,17,21,16,35.235,-0.9321,0.164,0.3105,-0.0882
0.053,0.052,0.061,-15.5,60.1,-27.4,0,2018,5,17,21,16,35.251,-0.934,0.157,0.3061,-0.0955
0.037,0.11,0.035,-15.9,55.7,-20.6,0,2018,5,17,21,16,35.274,-0.9364,0.1479,0.3013,-0.102
0.026,0.014,-0.06,-12.5,54.5,-19.2,0,2018,5,17,21,16,35.293,-0.9382,0.1401,0.2974,-0.1076
0.016,0.03,-0.086,-6.1,67.1,-20.7,0,2018,5,17,21,16,35.313,-0.9396,0.1316,0.2944,-0.1139
0.021,0.068,-0.155,0,82,-22.6,0,2018,5,17,21,16,35.334,-0.9408,0.1204,0.2925,-0.1211
0.012,0.09,-0.168,3.8,110.5,-22.4,1023,2018,5,17,21,16,35.371,-0.9419,0.1053,0.2912,-0.1298
0.024,0.175,-0.117,8.5,103,-19.6,1023,2018,5,17,21,16,35.371,-0.9429,0.0878,0.2895,-0.1389
0.026,0.164,0.003,10.3,85.1,-16.5,1023,2018,5,17,21,16,35.394,-0.9433,0.0729,0.2886,-0.1467
0.013,0.152,0.069,7.9,64.3,-13.7,1023,2018,5,17,21,16,35.41,-0.9432,0.0612,0.2881,-0.153
0.016,0.155,0.111,4.2,42.8,-10,1023,2018,5,17,21,16,35.434,-0.9432,0.0525,0.2875,-0.1577
0.035,0.146,0.15,0.3,20.1,-7.3,1023,2018,5,17,21,16,35.451,-0.9431,0.0477,0.287,-0.1607
0.027,0.138,0.132,-3.8,0.4,-4.5,1023,2018,5,17,21,16,35.475,-0.9431,0.0463,0.2863,-0.1621
0.091,0.091,0.04,-4.9,-9.1,1.2,0,2018,5,17,21,16,35.511,-0.9432,0.0471,0.2858,-0.1621
0.086,0.041,-0.012,-2.8,-8.9,6.1,0,2018,5,17,21,16,35.533,-0.9437,0.048,0.2848,-0.1611
0.065,0.039,-0.012,-1.2,-14.4,9.7,0,2018,5,17,21,16,35.537,-0.9441,0.0495,0.2842,-0.1592
0.045,0.068,0.017,0,-24.6,11.1,0,2018,5,17,21,16,35.554,-0.9444,0.0516,0.2842,-0.1565
-0.003,0.102,0.073,-0.9,-38.6,12.6,0,2018,5,17,21,16,35.577,-0.9447,0.0552,0.2846,-0.1529
-0.009,0.093,0.078,-3.4,-54.3,14.2,0,2018,5,17,21,16,35.616,-0.9449,0.061,0.2853,-0.1482
-0.006,0.066,0.033,-4.9,-64.5,14.8,0,2018,5,17,21,16,35.618,-0.9449,0.0694,0.2861,-0.1426
0.05,-0.031,-0.029,2.1,-66.7,9.5,0,2018,5,17,21,16,35.634,-0.9423,0.1117,0.2917,-0.1197
0.021,-0.061,-0.018,3.8,-58.9,6.8,0,2018,5,17,21,16,35.671,-0.941,0.1222,0.2935,-0.1156
0.039,-0.084,-0.01,4.2,-48.9,4.2,0,2018,5,17,21,16,35.693,-0.9396,0.1314,0.2952,-0.1123
0.025,-0.089,-0.013,4,-35.8,2.8,0,2018,5,17,21,16,35.696,-0.9383,0.1388,0.2966,-0.1101
0.038,-0.075,-0.015,3.4,-23.1,1.7,0,2018,5,17,21,16,35.732,-0.9374,0.1443,0.2975,-0.1087
0.044,-0.069,-0.018,3.3,-12.2,1.4,0,2018,5,17,21,16,35.755,-0.9367,0.1475,0.2983,-0.108
0.035,-0.061,-0.024,3.6,-1.6,1.1,0,2018,5,17,21,16,35.76,-0.9363,0.1491,0.2988,-0.1079
0.034,-0.037,-0.023,4.2,7.9,0.9,0,2018,5,17,21,16,35.776,-0.9361,0.1489,0.2993,-0.1083
0.028,-0.013,-0.002,4.6,13.5,0.7,0,2018,5,17,21,16,35.813,-0.9362,0.1471,0.2997,-0.1091
0.019,0.008,0.013,4.4,15.7,0.5,0,2018,5,17,21,16,35.835,-0.9364,0.1446,0.3,-0.11
0.015,0.026,0.01,4,14.8,0.2,0,2018,5,17,21,16,35.84,-0.9367,0.1418,0.3002,-0.1109
0.006,0.039,0.013,3.4,11,-0.1,1023,2018,5,17,21,16,35.855,-0.9369,0.1391,0.3005,-0.1118
0.004,0.042,0.015,2.2,6.2,-0.5,1023,2018,5,17,21,16,35.873,-0.937,0.1373,0.3006,-0.1123
0.001,0.041,0.01,0.9,0.5,-0.9,1023,2018,5,17,21,16,35.896,-0.9371,0.1363,0.3007,-0.1126
0.004,0.033,0.012,-0.1,-4.3,-0.7,1023,2018,5,17,21,16,35.932,-0.9371,0.1362,0.3007,-0.1127
0.005,0.015,-0.002,-0.7,-7.1,-0.4,1023,2018,5,17,21,16,35.955,-0.937,0.1369,0.3007,-0.1125
0.011,0.005,-0.003,-0.8,-7,-0.1,1023,2018,5,17,21,16,35.96,-0.9369,0.138,0.3007,-0.1122
0.013,0.004,-0.012,-0.6,-5.1,0,1023,2018,5,17,21,16,35.977,-0.9368,0.1389,0.3006,-0.1119
0.01,0.002,-0.006,-0.5,-2.8,0.4,1023,2018,5,17,21,16,36.015,-0.9368,0.1395,0.3006,-0.1117
0.007,0,-0.005,-0.1,-1,0.3,1023,2018,5,17,21,16,36.038,-0.9367,0.1399,0.3006,-0.1117
0.008,0.005,0,0,0,0,0,2018,5,17,21,16,36.043,-0.9367,0.14,0.3005,-0.1117
0.014,0.012,0.001,0,0,0,0,2018,5,17,21,16,36.062,-0.9368,0.1401,0.3004,-0.1118
0.016,0.022,0.003,0,0,0,0,2018,5,17,21,16,36.08,-0.9368,0.1402,0.3002,-0.1119
0.014,0.018,0.002,0.1,-1.6,-0.2,0,2018,5,17,21,16,36.099,-0.9368,0.1403,0.3,-0.1119
0.014,0.007,0.001,0,-2.4,-0.3,0,2018,5,17,21,16,36.122,-0.9368,0.1405,0.2999,-0.1119
0.012,0.001,0.003,0.1,-2.5,-0.4,0,2018,5,17,21,16,36.137,-0.9368,0.141,0.2998,-0.112
0.013,0,0,-0.1,-2.4,-0.9,0,2018,5,17,21,16,36.156,-0.9367,0.1415,0.2997,-0.1121
0.014,-0.001,-0.009,-0.3,-1.7,-0.9,0,2018,5,17,21,16,36.179,-0.9367,0.142,0.2996,-0.1122
0.015,0.002,-0.006,0,-0.9,-0.9,0,2018,5,17,21,16,36.196,-0.9366,0.1421,0.2995,-0.1124
0.013,0.005,-0.005,-0.1,-0.5,-0.6,0,2018,5,17,21,16,36.22,-0.9366,0.1423,0.2994,-0.1126
0.015,0.007,0,0,0,-0.8,0,2018,5,17,21,16,36.256,-0.9366,0.1424,0.2993,-0.1128
0.017,0.008,0.006,0,0,-0.6,0,2018,5,17,21,16,36.28,-0.9367,0.1423,0.2992,-0.113
0.019,0.009,0.002,0.1,-0.5,-0.4,0,2018,5,17,21,16,36.284,-0.9367,0.1422,0.299,-0.1132
0.02,0.012,-0.003,0.3,-0.5,-0.2,0,2018,5,17,21,16,36.299,-0.9367,0.1422,0.2989,-0.1133
0.01,0.01,-0.003,0,0,0,0,2018,5,17,21,16,36.322,-0.9367,0.1423,0.2988,-0.1134
0.007,0.003,-0.001,0.1,-1.2,-0.2,0,2018,5,17,21,16,36.339,-0.9367,0.1424,0.2988,-0.1134
0.006,0,-0.006,-0.3,-2,-0.7,0,2018,5,17,21,16,36.358,-0.9366,0.1427,0.2988,-0.1135
0.006,0,-0.005,-0.7,-2.8,-1.5,0,2018,5,17,21,16,36.381,-0.9366,0.1432,0.2987,-0.1137
0.007,-0.001,-0.011,-0.7,-3.7,-2,0,2018,5,17,21,16,36.397,-0.9365,0.1439,0.2986,-0.1139
0.004,0.002,-0.005,-1.1,-3,-2.4,0,2018,5,17,21,16,36.421,-0.9364,0.1446,0.2985,-0.1141
0.005,0.006,-0.002,-1.6,-1,-2.8,0,2018,5,17,21,16,36.456,-0.9363,0.1452,0.2982,-0.1145
0.01,0.013,0.003,-2.3,-0.8,-2.8,0,2018,5,17,21,16,36.479,-0.9364,0.1452,0.2978,-0.1149
0.013,0.021,-0.002,-2.2,-2.9,-2.7,0,2018,5,17,21,16,36.484,-0.9365,0.1455,0.2973,-0.1153
0.013,0.027,-0.011,-1.7,-5.2,-2.5,1023,2018,5,17,21,16,36.501,-0.9364,0.1465,0.2968,-0.1155
0.02,0.028,-0.003,-1.1,-6.6,-2.3,0,2018,5,17,21,16,36.524,-0.9364,0.1476,0.2965,-0.1156
0.023,0.024,0.005,-0.8,-7.7,-2,0,2018,5,17,21,16,36.541,-0.9363,0.1487,0.2962,-0.1156
0.023,0.016,0.008,-0.5,-8.8,-1.8,0,2018,5,17,21,16,36.576,-0.9361,0.15,0.296,-0.1156
0.021,0.008,-0.002,0.1,-9.7,-2.2,0,2018,5,17,21,16,36.6,-0.9359,0.1516,0.2959,-0.1155
0.019,0.008,-0.004,0.3,-9.1,-2.6,0,2018,5,17,21,16,36.605,-0.9356,0.1532,0.296,-0.1156
0.021,0.01,-0.003,0.7,-8.3,-2.6,0,2018,5,17,21,16,36.621,-0.9354,0.1548,0.296,-0.1156
0.016,0.008,-0.009,1,-7.5,-2.6,0,2018,5,17,21,16,36.657,-0.935,0.1563,0.2962,-0.1158
0.013,0.008,-0.007,1.8,-7.5,-2.4,0,2018,5,17,21,16,36.68,-0.9347,0.1576,0.2964,-0.1159
0.011,0.008,-0.004,2.8,-8.1,-2.6,0,2018,5,17,21,16,36.685,-0.9343,0.1591,0.2968,-0.1161
0.002,0.004,-0.002,2.9,-8.3,-2.9,0,2018,5,17,21,16,36.7,-0.9339,0.1605,0.2973,-0.1163
0.005,0,-0.002,3.3,-8,-3.5,0,2018,5,17,21,16,36.724,-0.9334,0.162,0.2979,-0.1166
0.012,0.003,-0.001,3.5,-7.6,-4,0,2018,5,17,21,16,36.739,-0.933,0.1633,0.2984,-0.117
0.019,0.007,-0.001,4.2,-8,-4.2,0,2018,5,17,21,16,36.758,-0.9325,0.1648,0.299,-0.1174
0.02,0.021,0,4.8,-8.3,-3.9,0,2018,5,17,21,16,36.781,-0.9319,0.1664,0.2996,-0.1179
0.026,0.029,0.003,4.5,-8.8,-3.6,0,2018,5,17,21,16,36.818,-0.9315,0.1677,0.3002,-0.1183
0.042,0.032,-0.002,5,-11.2,-3.6,0,2018,5,17,21,16,36.841,-0.9309,0.1693,0.3008,-0.1186
0.064,0.042,-0.012,5.7,-13.7,-3.5,0,2018,5,17,21,16,36.846,-0.9304,0.1709,0.3015,-0.1188
0.068,0.047,-0.014,7.1,-17.5,-2.9,0,2018,5,17,21,16,36.861,-0.9297,0.1733,0.3023,-0.1188
0.054,0.024,-0.02,9.3,-22.9,-2.7,0,2018,5,17,21,16,36.884,-0.9287,0.1763,0.3036,-0.1185
0.043,-0.001,-0.024,11.2,-25.8,-3.1,0,2018,5,17,21,16,36.902,-0.9274,0.1801,0.3055,-0.1182
0.028,-0.028,-0.023,13.1,-22.2,-3.7,0,2018,5,17,21,16,36.925,-0.9259,0.1842,0.3078,-0.118
0.02,-0.031,-0.017,14.5,-16.7,-4.1,0,2018,5,17,21,16,36.943,-0.9243,0.1877,0.3102,-0.1183
0.008,-0.029,-0.011,16,-13.1,-5,0,2018,5,17,21,16,36.966,-0.9229,0.1903,0.3128,-0.1189
0.004,-0.032,-0.019,17,-10.9,-6.6,0,2018,5,17,21,16,36.983,-0.9213,0.1927,0.3155,-0.1199
0.002,-0.03,-0.025,18.4,-6.7,-8.1,0,2018,5,17,21,16,36.999,-0.9197,0.1945,0.3184,-0.1213
0.008,0,-0.04,20,0.8,-8.5,1023,2018,5,17,21,16,37.022,-0.9182,0.1955,0.3214,-0.1233
0.01,0.014,-0.019,21.8,5.7,-6.7,1023,2018,5,17,21,16,37.06,-0.917,0.1949,0.3245,-0.1255
0.007,0.016,0.003,23.1,8,-5,1023,2018,5,17,21,16,37.06,-0.9158,0.1935,0.3277,-0.1277
0.02,0.018,0.004,24.4,6.7,-4.3,1023,2018,5,17,21,16,37.084,-0.9147,0.1918,0.331,-0.1297
0.026,0.019,0.004,26.1,4.7,-4,1023,2018,5,17,21,16,37.101,-0.9134,0.1904,0.3346,-0.1316
0.017,0,0.019,27.4,4.9,-4.5,1023,2018,5,17,21,16,37.124,-0.9119,0.1893,0.3384,-0.1335
0.002,-0.015,0.049,27.3,7.4,-5.4,1023,2018,5,17,21,16,37.145,-0.9105,0.1878,0.3423,-0.1357
0.026,-0.037,0.058,26.5,5,-5.7,0,2018,5,17,21,16,37.18,-0.9092,0.1862,0.3457,-0.138
-0.009,-0.037,0.029,28.3,4.3,-6.2,0,2018,5,17,21,16,37.203,-0.9075,0.1855,0.3495,-0.1404
0,-0.027,0.023,29.7,7.5,-4.3,0,2018,5,17,21,16,37.207,-0.9058,0.1843,0.3537,-0.1427
0.013,-0.012,0.028,30.9,10.7,-4.3,0,2018,5,17,21,16,37.223,-0.9041,0.1822,0.358,-0.145
0.053,0.075,0.005,31.8,9.4,-4.3,0,2018,5,17,21,16,37.243,-0.9026,0.1798,0.3622,-0.1475
0.057,0.097,-0.015,35.5,-2.6,-1.6,0,2018,5,17,21,16,37.266,-0.9007,0.1778,0.3669,-0.1493
0.022,-0.015,0.042,38,-9.2,1.7,0,2018,5,17,21,16,37.285,-0.8983,0.1776,0.3726,-0.15
0.02,-0.078,0.049,39.2,-12.4,2.9,0,2018,5,17,21,16,37.322,-0.8957,0.1779,0.3786,-0.1502
-0.009,-0.064,0.044,39.6,-13.5,2,0,2018,5,17,21,16,37.345,-0.8927,0.1791,0.385,-0.1505
0.002,-0.043,0.071,37.9,-10.1,1.5,0,2018,5,17,21,16,37.348,-0.8898,0.1799,0.3911,-0.1508
0.042,-0.01,0.044,38.1,-12.4,1.3,0,2018,5,17,21,16,37.364,-0.8871,0.1804,0.3967,-0.1513
0.026,-0.014,0.036,39.9,-17.6,2.2,0,2018,5,17,21,16,37.387,-0.8841,0.1817,0.4029,-0.1514
0.021,-0.084,0.09,38.5,-9.8,1.3,0,2018,5,17,21,16,37.425,-0.881,0.1831,0.4088,-0.1516
0.02,-0.034,0.09,37.4,-0.8,0.4,0,2018,5,17,21,16,37.425,-0.8784,0.1829,0.4141,-0.1528
0.025,0.035,0.037,39.7,-9.1,1.1,0,2018,5,17,21,16,37.447,-0.8758,0.1819,0.4196,-0.1536
-0.007,-0.003,-0.015,46.2,-16.4,-0.3,0,2018,5,17,21,16,37.464,-0.8723,0.1826,0.4265,-0.154
-0.047,0.062,0.004,51.8,-19.4,0.8,0,2018,5,17,21,16,37.502,-0.8679,0.1837,0.4348,-0.1541
-0.06,0.082,0.06,52.9,-21.8,5.3,0,2018,5,17,21,16,37.525,-0.8635,0.1843,0.4435,-0.1534
-0.061,0.072,0.06,51.3,-27.9,9,0,2018,5,17,21,16,37.529,-0.8592,0.185,0.4521,-0.1517
-0.066,0.092,0.02,51,-42.2,12.9,0,2018,5,17,21,16,37.547,-0.8544,0.187,0.4612,-0.1485
-0.085,0.044,0.02,50.1,-55.3,18.7,1023,2018,5,17,21,16,37.582,-0.8492,0.1909,0.4709,-0.1433
-0.084,0.009,0,48.8,-63.4,23.2,1023,2018,5,17,21,16,37.606,-0.8436,0.1962,0.4807,-0.1366
-0.069,-0.011,-0.063,47.8,-67.6,27.9,1023,2018,5,17,21,16,37.609,-0.8375,0.2026,0.4908,-0.1288
-0.056,-0.031,-0.09,47.6,-72.5,33.6,1023,2018,5,17,21,16,37.626,-0.8309,0.2093,0.5013,-0.1197
-0.043,-0.035,-0.099,47.5,-76.4,39.1,1023,2018,5,17,21,16,37.649,-0.8241,0.2162,0.5118,-0.1096
-0.051,-0.055,-0.09,46.2,-74.1,46.5,1023,2018,5,17,21,16,37.67,-0.8171,0.2229,0.5223,-0.0985
-0.087,-0.058,-0.059,42.7,-63.8,53.9,1023,2018,5,17,21,16,37.69,-0.8105,0.2277,0.5325,-0.0868
-0.128,-0.062,-0.069,37.7,-50.6,59.7,1023,2018,5,17,21,16,37.706,-0.8047,0.2303,0.5419,-0.075
-0.141,-0.008,-0.048,33.2,-34.2,64.5,1023,2018,5,17,21,16,37.724,-0.7998,0.23,0.5506,-0.0636
-0.123,0.006,-0.034,29.6,-28,65.7,0,2018,5,17,21,16,37.747,-0.7958,0.2275,0.5585,-0.0525
-0.112,-0.012,-0.018,26.5,-18.3,63.6,0,2018,5,17,21,16,37.766,-0.7924,0.2242,0.5656,-0.0421
-0.098,0.018,-0.046,25.4,-6.6,59.7,0,2018,5,17,21,16,37.79,-0.7894,0.2195,0.5722,-0.0333
-0.118,0.008,-0.041,25.3,4,58.2,0,2018,5,17,21,16,37.806,-0.7866,0.2138,0.5785,-0.0258
-0.12,0.002,-0.056,25.3,12.8,54.1,0,2018,5,17,21,16,37.828,-0.7841,0.2068,0.5846,-0.0199
-0.112,0.083,-0.043,24.3,13.5,51.5,0,2018,5,17,21,16,37.849,-0.7818,0.1992,0.5906,-0.0146
-0.105,0.051,-0.02,21.8,16.6,47.4,0,2018,5,17,21,16,37.868,-0.7797,0.1916,0.5959,-0.0096
-0.106,0.03,-0.016,19,27.6,43.7,0,2018,5,17,21,16,37.892,-0.7781,0.1837,0.6005,-0.0061
-0.093,0.083,-0.023,15.6,34,39.9,0,2018,5,17,21,16,37.927,-0.7771,0.1748,0.6045,-0.0041
-0.058,0.115,-0.046,14.1,26.2,36.8,0,2018,5,17,21,16,37.927,-0.7761,0.1662,0.6082,-0.0021
-0.06,0.032,-0.031,12.7,19.8,35.4,0,2018,5,17,21,16,37.951,-0.7749,0.1592,0.6116,0.0003
-0.043,0.01,-0.006,8.2,24.5,34.9,0,2018,5,17,21,16,37.968,-0.7742,0.1527,0.6142,0.0024
-0.007,0.001,0.007,3.2,19.9,32.4,0,2018,5,17,21,16,38.006,-0.7741,0.146,0.6158,0.0042
-0.002,0.019,0.023,-3,7.4,32.7,0,2018,5,17,21,16,38.03,-0.7744,0.1409,0.6166,0.0072
0.047,-0.012,0.034,-9.2,2,31.7,0,2018,5,17,21,16,38.035,-0.7753,0.1373,0.6163,0.0112
0.072,0.055,0.022,-15,-3.5,29.5,0,2018,5,17,21,16,38.052,-0.7768,0.1342,0.615,0.0154
0.1,0.075,0,-18.4,-23,29.3,0,2018,5,17,21,16,38.069,-0.7784,0.1324,0.6132,0.0216
0.107,0.043,-0.008,-21.7,-36.5,27.9,0,2018,5,17,21,16,38.093,-0.7798,0.1333,0.6108,0.0293
0.126,0.058,-0.017,-24,-54.7,28.1,0,2018,5,17,21,16,38.128,-0.7812,0.1362,0.6079,0.0387
0.148,0.033,-0.037,-24.7,-65.5,28,0,2018,5,17,21,16,38.128,-0.782,0.1416,0.6048,0.0496
0.163,0.028,-0.059,-25.3,-73.1,27.4,1023,2018,5,17,21,16,38.151,-0.7826,0.1482,0.6014,0.0612
0.174,0,-0.12,-22.6,-81.8,27.9,1023,2018,5,17,21,16,38.185,-0.7824,0.1563,0.5982,0.0735
0.192,-0.116,-0.166,-11.9,-63.6,32.5,1023,2018,5,17,21,16,38.209,-0.7815,0.1635,0.5958,0.0857
0.171,-0.179,-0.1,-5.4,-30.1,34.9,1023,2018,5,17,21,16,38.214,-0.7804,0.1667,0.5949,0.0954
0.116,-0.237,-0.02,-5.9,12.3,36.2,1023,2018,5,17,21,16,38.231,-0.78,0.1642,0.5951,0.1012
0.111,-0.229,0.005,-9.9,45.7,35.9,1023,2018,5,17,21,16,38.249,-0.781,0.1563,0.5957,0.103
0.092,-0.166,-0.003,-11.6,53.8,34,1023,2018,5,17,21,16,38.27,-0.7829,0.1456,0.596,0.1025
0.089,-0.135,-0.003,-13.9,43.2,29.9,0,2018,5,17,21,16,38.31,-0.7848,0.1357,0.596,0.102
0.061,-0.117,0.02,-14.6,29,23,0,2018,5,17,21,16,38.31,-0.7868,0.1287,0.5949,0.1016
0.04,-0.105,0.051,-16.5,21.2,15.1,0,2018,5,17,21,16,38.333,-0.7889,0.1242,0.5931,0.1013
0.047,-0.05,0.067,-18.7,12.5,7,0,2018,5,17,21,16,38.37,-0.7914,0.1211,0.5905,0.101
0.036,-0.029,0.066,-19.2,1.3,-2.8,0,2018,5,17,21,16,38.37,-0.7939,0.1202,0.5874,0.1007
0.017,-0.017,0.053,-20.4,-4.2,-9.9,0,2018,5,17,21,16,38.392,-0.7963,0.1211,0.5839,0.1002
0.013,0.004,0.041,-22.7,-7.8,-14.8,0,2018,5,17,21,16,38.41,-0.7989,0.1231,0.5802,0.0995
0.019,0.022,0.013,-25.3,-16.2,-18.7,0,2018,5,17,21,16,38.434,-0.8015,0.1261,0.576,0.0988
0.024,0.023,-0.059,-25.3,-31.1,-22,0,2018,5,17,21,16,38.452,-0.8038,0.1311,0.5717,0.099
0.034,0.001,-0.128,-23.2,-40,-22.9,0,2018,5,17,21,16,38.47,-0.8052,0.1383,0.5678,0.0999
0.011,-0.001,-0.145,-19.9,-35.3,-20.2,0,2018,5,17,21,16,38.493,-0.8059,0.146,0.5647,0.1011
0.015,0.004,-0.146,-15.3,-24.5,-17,0,2018,5,17,21,16,38.531,-0.8063,0.1522,0.5623,0.1017
0.037,0.015,-0.124,-9,-16.6,-11.3,0,2018,5,17,21,16,38.531,-0.8064,0.1566,0.5609,0.1019
0.043,0.017,-0.05,-4.2,-11.2,-4.4,0,2018,5,17,21,16,38.553,-0.8063,0.1595,0.5601,0.1023
0.035,-0.013,-0.002,-1.2,-4.4,0.5,0,2018,5,17,21,16,38.574,-0.8063,0.1609,0.5596,0.1029
0.023,-0.015,0.034,-0.7,5,4.5,0,2018,5,17,21,16,38.597,-0.8066,0.1607,0.5593,0.1031
0.02,-0.002,0.027,-0.1,8.4,7,0,2018,5,17,21,16,38.611,-0.8069,0.1594,0.5592,0.1031
0.011,0.002,0.004,0.3,11.6,8,0,2018,5,17,21,16,38.631,-0.8071,0.1574,0.5595,0.1032
0.002,0.024,0.006,0.9,13.7,9,0,2018,5,17,21,16,38.655,-0.8072,0.1548,0.56,0.1032
-0.013,0,0.008,0.5,16.1,9.2,0,2018,5,17,21,16,38.672,-0.8074,0.1518,0.5606,0.1031
-0.01,-0.006,-0.01,-0.3,23,8.3,1023,2018,5,17,21,16,38.695,-0.8077,0.1485,0.5612,0.1024
-0.011,0.034,-0.014,-2.2,15.3,5.9,1023,2018,5,17,21,16,38.714,-0.8081,0.1451,0.5617,0.1014
-0.009,0.014,-0.003,-3.1,15.4,7.8,1023,2018,5,17,21,16,38.749,-0.8085,0.1423,0.5618,0.1012
-0.016,0.009,0.043,-4.2,25,7.5,1023,2018,5,17,21,16,38.771,-0.8093,0.1385,0.5618,0.1004
-0.004,-0.044,0.011,-4.7,20.5,3.3,1023,2018,5,17,21,16,38.775,-0.8103,0.135,0.5614,0.0989
0.011,-0.08,-0.022,-4.5,23.5,1.9,1023,2018,5,17,21,16,38.811,-0.8112,0.1323,0.5611,0.0968
0.018,-0.037,-0.055,-2.3,21.5,0.2,1023,2018,5,17,21,16,38.834,-0.8119,0.1297,0.5612,0.0944
0.008,-0.03,-0.051,0.2,16.8,-1,0,2018,5,17,21,16,38.839,-0.8121,0.1276,0.5618,0.0923
0.005,-0.021,-0.023,1.5,12.6,-2,0,2018,5,17,21,16,38.857,-0.8121,0.1262,0.5623,0.0903
0.015,-0.016,-0.011,2.8,2.4,-4.5,0,2018,5,17,21,16,38.88,-0.812,0.1258,0.5627,0.089
0.016,-0.01,-0.02,3.2,-4.1,-6,0,2018,5,17,21,16,38.895,-0.8117,0.1269,0.5631,0.0882
0.027,-0.009,-0.019,3.5,-2.8,-6.2,0,2018,5,17,21,16,38.931,-0.8113,0.1284,0.5634,0.0876
0.012,-0.016,-0.007,3.3,5.5,-6.3,0,2018,5,17,21,16,38.955,-0.8111,0.1291,0.5637,0.0864
0.006,0.003,-0.006,2.1,18,-4.9,0,2018,5,17,21,16,38.96,-0.8112,0.1282,0.5641,0.0843
0.008,0.027,-0.029,3.5,22.2,-3.4,0,2018,5,17,21,16,38.977,-0.8114,0.1255,0.5648,0.0817
0.011,0.021,-0.036,5.7,19.4,-3.8,0,2018,5,17,21,16,38.994,-0.8113,0.1228,0.566,0.0791
0.006,0.018,-0.043,7.7,17.5,-4,0,2018,5,17,21,16,39.018,-0.8108,0.1207,0.5674,0.0767
0.007,0.011,-0.054,8.6,19.4,-4,0,2018,5,17,21,16,39.036,-0.8102,0.1185,0.5691,0.0742
0.013,0.01,-0.067,9.6,20.8,-4.3,0,2018,5,17,21,16,39.059,-0.8094,0.1163,0.5711,0.0714
0.028,0.008,-0.075,11.3,19.3,-4.9,0,2018,5,17,21,16,39.075,-0.8085,0.1141,0.5732,0.0685
0.035,0.008,-0.067,13.7,16.9,-5.5,0,2018,5,17,21,16,39.092,-0.8073,0.1123,0.5755,0.0657
0.032,0.008,-0.06,15.6,14,-5.8,0,2018,5,17,21,16,39.116,-0.8059,0.1109,0.5781,0.0631
0.034,0.011,-0.058,17.4,10.8,-5.7,0,2018,5,17,21,16,39.135,-0.8042,0.11,0.5808,0.0607
0.047,0.011,-0.057,19.2,6.6,-5.7,0,2018,5,17,21,16,39.172,-0.8023,0.1096,0.5837,0.0587
0.065,0.019,-0.057,21.8,-0.4,-5.4,0,2018,5,17,21,16,39.195,-0.8001,0.1099,0.5868,0.0573
0.067,0.019,-0.042,24.6,-9.8,-5,0,2018,5,17,21,16,39.2,-0.7974,0.1114,0.5902,0.0567
0.067,-0.005,-0.033,26.8,-16.3,-3.8,1023,2018,5,17,21,16,39.219,-0.7944,0.114,0.5937,0.0571
0.082,-0.021,-0.034,28.2,-18.1,-4.8,1023,2018,5,17,21,16,39.254,-0.7912,0.1172,0.5974,0.0577
0.088,-0.018,-0.035,29.8,-16.2,-5.1,1023,2018,5,17,21,16,39.276,-0.7878,0.1206,0.6011,0.058
0.081,-0.025,-0.029,31.6,-12.4,-5.1,1023,2018,5,17,21,16,39.28,-0.7842,0.1237,0.6052,0.0581
0.056,-0.025,-0.004,32.2,-8,-6,1023,2018,5,17,21,16,39.297,-0.7807,0.1261,0.6093,0.0575
0.076,-0.02,0,31.8,-6.2,-7.9,1023,2018,5,17,21,16,39.32,-0.7773,0.1281,0.6133,0.0565
0.083,-0.054,0.005,31,1.5,-10.5,1023,2018,5,17,21,16,39.341,-0.7741,0.1301,0.6171,0.0546
0.105,-0.056,0.021,28.5,16.8,-13,1023,2018,5,17,21,16,39.359,-0.7714,0.1309,0.6205,0.0509
0.121,-0.037,0.047,23.3,31,-18.8,1023,2018,5,17,21,16,39.375,-0.7697,0.1298,0.6233,0.0451
0.119,-0.035,0.067,17.7,37.2,-25.5,0,2018,5,17,21,16,39.398,-0.769,0.1278,0.6251,0.0376
0.154,-0.003,0.055,13.9,34.3,-32,0,2018,5,17,21,16,39.433,-0.7689,0.1261,0.626,0.0292
0.157,-0.02,0.017,12.6,24.9,-37,0,2018,5,17,21,16,39.456,-0.7688,0.1261,0.6264,0.0208
0.163,-0.037,-0.035,14.5,20.1,-39.8,0,2018,5,17,21,16,39.46,-0.7682,0.1277,0.6271,0.0126
0.171,-0.038,-0.07,19.5,21.1,-38.6,0,2018,5,17,21,16,39.477,-0.7667,0.1298,0.6286,0.0043
0.137,-0.045,-0.038,21.7,35.8,-32.1,0,2018,5,17,21,16,39.5,-0.7648,0.1304,0.6308,-0.0042
0.096,-0.114,0.032,19.3,66.2,-29.2,0,2018,5,17,21,16,39.519,-0.7637,0.1272,0.6326,-0.015
0.071,-0.088,0.023,12.9,86.9,-28.4,0,2018,5,17,21,16,39.542,-0.7638,0.1205,0.6333,-0.0285
0.046,-0.036,-0.054,8.7,87.3,-25.7,0,2018,5,17,21,16,39.56,-0.7643,0.1118,0.6335,-0.0425
0.023,-0.012,-0.096,6.5,78.5,-22.9,0,2018,5,17,21,16,39.584,-0.7643,0.1033,0.634,-0.055
0.01,0.022,-0.071,0.8,64.6,-22.6,0,2018,5,17,21,16,39.599,-0.7644,0.096,0.634,-0.0659
-0.001,0.081,0.02,-7.6,33.5,-26.5,0,2018,5,17,21,16,39.618,-0.7652,0.0913,0.6328,-0.0743
-0.066,0.065,0.041,-18.3,-27.3,-30.7,0,2018,5,17,21,16,39.641,-0.7666,0.0933,0.6305,-0.0774
-0.138,-0.072,0.002,-25.4,-57.7,-35.8,0,2018,5,17,21,16,39.675,-0.7678,0.103,0.6276,-0.076
-0.159,-0.079,0.052,-32.5,-39.8,-36.3,0,2018,5,17,21,16,39.698,-0.7696,0.1142,0.6236,-0.0749
-0.16,0.063,0.061,-37.6,-27.7,-40.1,0,2018,5,17,21,16,39.703,-0.7725,0.1223,0.6184,-0.0757
-0.134,0.174,0.079,-39.9,-60.2,-42.7,0,2018,5,17,21,16,39.72,-0.7752,0.1325,0.6128,-0.0756
-0.101,0.036,-0.101,-36.2,-68.8,-43.7,0,2018,5,17,21,16,39.743,-0.7769,0.1461,0.608,-0.0726
-0.141,0.051,-0.08,-35.5,-82.2,-49.9,0,2018,5,17,21,16,39.76,-0.778,0.1608,0.6032,-0.0698
-0.143,-0.082,-0.076,-35.4,-75.2,-52.2,1023,2018,5,17,21,16,39.784,-0.7779,0.178,0.5988,-0.0667
-0.236,-0.145,0.063,-43.4,-8.4,-44,1023,2018,5,17,21,16,39.8,-0.7797,0.1898,0.5928,-0.0675
-0.229,-0.067,0.122,-54.6,75.7,-38.6,1023,2018,5,17,21,16,39.835,-0.7858,0.1887,0.584,-0.0754
-0.157,-0.048,0.229,-63.4,89.8,-45.8,1023,2018,5,17,21,16,39.859,-0.7944,0.1811,0.5729,-0.0881
-0.069,0.005,0.185,-68.8,70.8,-47.7,1023,2018,5,17,21,16,39.862,-0.8028,0.1753,0.5609,-0.1005
-0.011,0.172,0.074,-69,43.8,-42.5,1023,2018,5,17,21,16,39.899,-0.8104,0.1726,0.5488,-0.1102
0.018,0.186,0.019,-63.9,11.4,-36.5,1023,2018,5,17,21,16,39.899,-0.8168,0.1735,0.5377,-0.1161
0.013,0.122,0.014,-58.9,-12.4,-31.3,1023,2018,5,17,21,16,39.922,-0.8218,0.1776,0.528,-0.1188
0.049,-0.027,-0.019,-55.6,-25.8,-26.6,0,2018,5,17,21,16,39.959,-0.8259,0.1843,0.5192,-0.119
0.046,-0.109,-0.03,-50.1,8.9,-18.1,0,2018,5,17,21,16,39.982,-0.8297,0.1893,0.5111,-0.12
-0.007,-0.087,0.019,-47.2,37.7,-18.3,0,2018,5,17,21,16,39.987,-0.8343,0.1885,0.503,-0.1238
0.01,-0.035,0.041,-45.9,43.2,-16.5,0,2018,5,17,21,16,40.005,-0.8394,0.1849,0.4944,-0.1287
-0.017,-0.126,0.01,-44.3,46.7,-11.7,0,2018,5,17,21,16,40.042,-0.8443,0.1811,0.4862,-0.1334
-0.018,-0.082,-0.004,-44.6,82.1,-7.8,0,2018,5,17,21,16,40.065,-0.8498,0.1732,0.4779,-0.1392
-0.029,0.006,0,-42.3,75.1,-7.1,0,2018,5,17,21,16,40.069,-0.8555,0.1629,0.4693,-0.1459
-0.03,0.038,0,-39,65.8,-0.9,0,2018,5,17,21,16,40.082,-0.8605,0.1538,0.4614,-0.1511
-0.084,0.056,0.024,-37.1,62.8,7.1,0,2018,5,17,21,16,40.1,-0.8654,0.144,0.4543,-0.1544
-0.062,0.084,0.069,-37.6,60.8,11.9,0,2018,5,17,21,16,40.123,-0.8702,0.1339,0.4473,-0.1564
-0.026,0.173,0.09,-38.1,49.1,14,0,2018,5,17,21,16,40.143,-0.875,0.1244,0.4405,-0.1575
-0.067,0.13,0.056,-36.5,29.1,19.7,0,2018,5,17,21,16,40.18,-0.879,0.1185,0.4343,-0.1567
-0.069,0.01,0.024,-34.6,23.2,21.3,0,2018,5,17,21,16,40.204,-0.8829,0.1134,0.4286,-0.1543
-0.018,0.045,0.039,-33.2,32.1,19.8,0,2018,5,17,21,16,40.206,-0.8865,0.1078,0.4231,-0.1524
0.021,0.068,0.031,-30.7,25.1,19.7,0,2018,5,17,21,16,40.225,-0.8902,0.102,0.4175,-0.1507
0.047,0.074,0.003,-27.3,11.5,19.2,0,2018,5,17,21,16,40.261,-0.8932,0.0987,0.4127,-0.1484
0.047,0.063,-0.01,-24.6,12.1,19.7,0,2018,5,17,21,16,40.261,-0.896,0.0953,0.4084,-0.1456
0,0.026,0.025,-24.3,22.4,20.6,0,2018,5,17,21,16,40.285,-0.8986,0.0913,0.4043,-0.1431
0.002,0.046,0.023,-25,28.9,20.4,0,2018,5,17,21,16,40.302,-0.9014,0.0856,0.4,-0.1413
-0.015,0.1,0.011,-24.2,22.7,19.8,0,2018,5,17,21,16,40.326,-0.9042,0.0799,0.3956,-0.1395
0.03,0.09,-0.012,-22.8,12.4,21.8,1023,2018,5,17,21,16,40.361,-0.9065,0.0759,0.3919,-0.1368
0.012,0.022,0.014,-19.8,4.4,20.1,1023,2018,5,17,21,16,40.386,-0.9087,0.0729,0.3884,-0.1336
0.018,-0.028,0.036,-18.6,2.6,16.7,1023,2018,5,17,21,16,40.39,-0.9106,0.0716,0.3853,-0.1308
-0.011,-0.046,0.056,-18.6,-0.8,10.3,1023,2018,5,17,21,16,40.406,-0.9122,0.0713,0.3822,-0.1287
0.017,-0.061,0.035,-18.6,-15.7,1.6,1023,2018,5,17,21,16,40.424,-0.9136,0.0725,0.3791,-0.1272
-0.085,-0.188,0.078,-22.4,-22,-4.9,1023,2018,5,17,21,16,40.446,-0.9146,0.077,0.3762,-0.1262
-0.004,-0.193,0.007,-26.7,-22,-12.6,1023,2018,5,17,21,16,40.466,-0.9156,0.0821,0.3727,-0.1261
0.002,-0.156,-0.092,-26,-24.8,-19.5,0,2018,5,17,21,16,40.489,-0.9167,0.0869,0.3686,-0.1268
-0.029,-0.201,-0.175,-18,-50.7,-26.8,0,2018,5,17,21,16,40.507,-0.917,0.0951,0.3657,-0.1277
-0.028,-0.209,-0.199,-11.8,-45.1,-30.9,0,2018,5,17,21,16,40.53,-0.9163,0.1052,0.3641,-0.1287
0.021,-0.066,-0.19,-10.1,-8.4,-30.2,0,2018,5,17,21,16,40.546,-0.9158,0.1116,0.3624,-0.1317
0.01,-0.003,-0.15,-8.4,38.2,-26.2,0,2018,5,17,21,16,40.564,-0.9159,0.1111,0.3602,-0.1371
0.049,0.065,-0.107,-8.3,90.8,-19.1,0,2018,5,17,21,16,40.587,-0.9169,0.1023,0.3576,-0.1446
0.106,0.154,0,-9.4,129.9,-9.1,0,2018,5,17,21,16,40.606,-0.9189,0.085,0.353,-0.1537
0.085,0.323,0.181,-11.7,133.2,2,0,2018,5,17,21,16,40.65,-0.9213,0.0636,0.3475,-0.1622
0.09,0.44,0.298,-15.1,87.3,7.2,0,2018,5,17,21,16,40.653,-0.9233,0.0453,0.3421,-0.168
0.092,0.428,0.322,-17.4,23,8.8,0,2018,5,17,21,16,40.665,-0.9249,0.0365,0.338,-0.1698
0.075,0.277,0.208,-18.2,-29.9,8.1,0,2018,5,17,21,16,40.702,-0.9262,0.0372,0.3354,-0.1678
0.073,0.131,0.075,-17,-62.5,6.7,0,2018,5,17,21,16,40.726,-0.9271,0.0447,0.3341,-0.1637
0.066,0.01,-0.036,-13.7,-75.8,4.8,0,2018,5,17,21,16,40.731,-0.9276,0.0559,0.3333,-0.1585
0.065,0.017,-0.078,-10.1,-77.9,4.2,0,2018,5,17,21,16,40.747,-0.9276,0.0686,0.3335,-0.1533
0.062,0.01,-0.061,-6.8,-83.4,4.2,0,2018,5,17,21,16,40.765,-0.9271,0.0817,0.3343,-0.1479
0.031,-0.026,-0.049,-5.3,-83.4,4.5,0,2018,5,17,21,16,40.788,-0.9262,0.0954,0.3355,-0.1424
0.018,-0.059,-0.035,-5.8,-76.5,5.7,0,2018,5,17,21,16,40.805,-0.9251,0.1088,0.3368,-0.137
0.003,-0.095,-0.031,-7.4,-63.6,5.6,0,2018,5,17,21,16,40.828,-0.9241,0.1204,0.3376,-0.1321
-0.008,-0.107,-0.025,-9.9,-43.6,6.2,0,2018,5,17,21,16,40.849,-0.9233,0.1299,0.3377,-0.1282
0,-0.111,-0.037,-11.7,-22.5,5.3,1023,2018,5,17,21,16,40.885,-0.923,0.1361,0.3371,-0.1255
0.017,-0.061,-0.029,-12.9,-3.3,5.5,1023,2018,5,17,21,16,40.909,-0.9233,0.1389,0.3356,-0.124
0.033,-0.005,0,-12.8,6.3,6.4,1023,2018,5,17,21,16,40.914,-0.9242,0.1388,0.3335,-0.1231
0.032,0.024,0.032,-12.6,7.8,7,1023,2018,5,17,21,16,40.93,-0.9254,0.1374,0.3312,-0.1222
0.035,0.028,0.04,-11.7,0.9,6.4,1023,2018,5,17,21,16,40.966,-0.9266,0.1362,0.3288,-0.1211
0.031,0.039,0.031,-10.6,-5.1,4.9,1023,2018,5,17,21,16,40.989,-0.9275,0.1361,0.3267,-0.1199
0.045,0.038,0.021,-9,-10.5,3.6,1023,2018,5,17,21,16,40.993,-0.9281,0.1369,0.325,-0.1186
0.04,0.035,0.006,-6.5,-13.1,2.5,1023,2018,5,17,21,16,41.009,-0.9285,0.1385,0.3237,-0.1173
0.026,0.032,-0.006,-4.3,-13.5,1.4,0,2018,5,17,21,16,41.027,-0.9286,0.1406,0.3228,-0.1161
0.016,0.01,-0.003,-2,-13.3,0,0,2018,5,17,21,16,41.049,-0.9285,0.1428,0.3225,-0.1152
0.018,0.005,-0.017,-0.4,-9.8,-1.7,0,2018,5,17,21,16,41.067,-0.9283,0.1449,0.3224,-0.1148
0.02,0.009,-0.015,0.9,-4.5,-2,0,2018,5,17,21,16,41.089,-0.928,0.1463,0.3225,-0.1148
0.011,0.015,0,1.6,-0.7,-1.2,0,2018,5,17,21,16,41.107,-0.9279,0.1465,0.3226,-0.1151
0.011,0.016,0.008,1.6,0.8,-0.7,0,2018,5,17,21,16,41.13,-0.9279,0.1463,0.3228,-0.1153
0.011,0.031,0.008,1.5,0.7,0,0,2018,5,17,21,16,41.168,-0.9279,0.1459,0.3229,-0.1155
0.006,0.04,0.014,1.1,-1.6,0.9,0,2018,5,17,21,16,41.191,-0.9279,0.1455,0.3231,-0.1154
0,0.011,0.004,0.6,-4.5,1.8,0,2018,5,17,21,16,41.195,-0.9279,0.1455,0.3232,-0.115
-0.007,-0.004,0.005,-0.2,-3.9,1.7,0,2018,5,17,21,16,41.211,-0.9278,0.1461,0.3234,-0.1146
-0.007,0.003,0.004,-1.4,-4.2,1.4,0,2018,5,17,21,16,41.234,-0.9278,0.1465,0.3234,-0.1141
0,0.007,0,-2.1,-5.7,1.1,0,2018,5,17,21,16,41.25,-0.9278,0.1473,0.3233,-0.1136
0.006,0.01,-0.003,-2.6,-6.9,1.5,0,2018,5,17,21,16,41.267,-0.9278,0.1483,0.323,-0.113
0.012,0.007,-0.002,-2.4,-7.1,1.6,0,2018,5,17,21,16,41.29,-0.9278,0.1493,0.3227,-0.1124
0.015,-0.002,0.003,-2.5,-7.4,1.1,0,2018,5,17,21,16,41.308,-0.9278,0.1504,0.3224,-0.1118
0.022,0,-0.001,-2.7,-6.9,0.3,0,2018,5,17,21,16,41.331,-0.9278,0.1517,0.322,-0.1113
0.028,0.002,-0.004,-2.1,-6,-0.3,0,2018,5,17,21,16,41.369,-0.9278,0.1529,0.3215,-0.111
0.023,0.009,0.002,-1.5,-4.9,-0.4,0,2018,5,17,21,16,41.369,-0.9278,0.1538,0.3212,-0.1108
0.015,0,0,-1,-5.3,-0.9,0,2018,5,17,21,16,41.392,-0.9277,0.1547,0.3209,-0.1108
0.012,-0.002,-0.003,-1.1,-4.9,-1.2,1023,2018,5,17,21,16,41.413,-0.9276,0.1556,0.3207,-0.1107
0.012,0.004,-0.005,-1.1,-3.7,-1.3,1023,2018,5,17,21,16,41.45,-0.9275,0.1565,0.3205,-0.1108
0.003,0.003,0,-0.7,-3,-1.2,1023,2018,5,17,21,16,41.45,-0.9275,0.1572,0.3204,-0.1109
0,0.007,-0.006,-1.1,-3.3,-1.5,1023,2018,5,17,21,16,41.474,-0.9274,0.1578,0.3202,-0.111
0.004,0,-0.002,-1.4,-3.1,-1.8,1023,2018,5,17,21,16,41.493,-0.9273,0.1584,0.3201,-0.1111
0.011,0.008,-0.002,-1.4,-2.6,-2.3,1023,2018,5,17,21,16,41.508,-0.9273,0.1588,0.3199,-0.1113
0.017,0.013,0.002,-1.2,-2.4,-2.3,1023,2018,5,17,21,16,41.53,-0.9273,0.1592,0.3195,-0.1116
0.019,0.017,0.004,-0.7,-2.6,-2.1,1023,2018,5,17,21,16,41.568,-0.9274,0.1596,0.3192,-0.1119
0.018,0.019,0.001,-0.1,-3.1,-1.9,0,2018,5,17,21,16,41.591,-0.9273,0.16,0.319,-0.1121
0.018,0.016,-0.007,0.6,-3.2,-1.9,0,2018,5,17,21,16,41.596,-0.9272,0.1606,0.3189,-0.1124
0.016,0.018,-0.005,1.1,-2.6,-1.6,0,2018,5,17,21,16,41.613,-0.9271,0.1611,0.3189,-0.1126
0.013,0.015,-0.005,1.9,-1.7,-1.3,0,2018,5,17,21,16,41.636,-0.9269,0.1617,0.319,-0.1128
0.007,0.009,0,2.1,-1.4,-1.4,0,2018,5,17,21,16,41.655,-0.9268,0.162,0.3192,-0.113
0.002,0.001,0.002,2.1,-1.3,-2,0,2018,5,17,21,16,41.692,-0.9266,0.1623,0.3195,-0.1134
0.005,0.01,0,1.9,-1.2,-2.2,0,2018,5,17,21,16,41.715,-0.9264,0.1625,0.3198,-0.1138
0.009,0.023,-0.001,1.9,-1.9,-2.4,0,2018,5,17,21,16,41.72,-0.9262,0.1627,0.32,-0.1142
0.008,0.016,-0.009,1.7,-3,-2.3,0,2018,5,17,21,16,41.735,-0.9261,0.163,0.3203,-0.1145
0.008,0.051,0,1,-3.7,-2.4,0,2018,5,17,21,16,41.752,-0.9259,0.1635,0.3205,-0.1148
0.017,0.021,-0.007,1.1,-7.1,-2.6,0,2018,5,17,21,16,41.775,-0.9257,0.1642,0.3206,-0.1149
0.011,-0.009,-0.015,1.1,-6,-2.7,0,2018,5,17,21,16,41.793,-0.9254,0.1654,0.3208,-0.1151
0.006,0.015,0.005,0.9,-4.2,-1.8,0,2018,5,17,21,16,41.818,-0.9251,0.1661,0.321,-0.1153
0.011,0.077,0.017,0.3,-8.7,-1,0,2018,5,17,21,16,41.837,-0.925,0.1669,0.3211,-0.1152
0.019,-0.004,0.002,0.6,-15.1,-2,0,2018,5,17,21,16,41.855,-0.9247,0.1689,0.3212,-0.1148
0.015,-0.021,-0.005,0.6,-13,-2,0,2018,5,17,21,16,41.877,-0.9241,0.1715,0.3214,-0.1145
0.016,-0.007,-0.001,0.6,-11.1,-1.7,0,2018,5,17,21,16,41.895,-0.9237,0.1735,0.3217,-0.1143
0.02,0.031,0.003,0.9,-12.3,-1.9,0,2018,5,17,21,16,41.919,-0.9233,0.1754,0.3218,-0.1141
0.019,0,-0.009,2.3,-14.2,-2.3,0,2018,5,17,21,16,41.935,-0.9228,0.1778,0.3221,-0.1138
0.026,-0.027,-0.014,3.2,-12.1,-2.2,1023,2018,5,17,21,16,41.951,-0.9221,0.1803,0.3227,-0.1136
0.011,-0.005,-0.013,4.5,-8.3,-2.8,1023,2018,5,17,21,16,41.973,-0.9215,0.1821,0.3234,-0.1138
0.005,0.015,0,5.5,-6.6,-3.4,1023,2018,5,17,21,16,42.012,-0.9209,0.1834,0.3243,-0.1141
0.014,0.006,-0.005,6.3,-6.1,-4,1023,2018,5,17,21,16,42.035,-0.9203,0.1845,0.3251,-0.1147
0.008,0.001,-0.012,7.3,-4.1,-4.6,1023,2018,5,17,21,16,42.04,-0.9197,0.1854,0.3262,-0.1154
0.012,0.044,0,7.6,-3.3,-3.8,1023,2018,5,17,21,16,42.073,-0.919,0.1859,0.3273,-0.1162
0.008,0.015,-0.007,8.6,-4.5,-4.1,1023,2018,5,17,21,16,42.096,-0.9184,0.1866,0.3285,-0.1169
0.011,0.015,-0.011,9.5,-5,-4.2,0,2018,5,17,21,16,42.101,-0.9176,0.1873,0.33,-0.1176
0.02,0.021,-0.003,10.7,-5.8,-4.1,0,2018,5,17,21,16,42.118,-0.9168,0.188,0.3315,-0.1184
0.001,0.039,-0.008,12,-6.1,-4.1,0,2018,5,17,21,16,42.155,-0.9159,0.1888,0.3333,-0.1191
0.016,-0.011,-0.006,12.8,-5.1,-3.5,0,2018,5,17,21,16,42.178,-0.915,0.1897,0.3351,-0.1199
0.011,0,0.001,13.7,-4.1,-3.3,0,2018,5,17,21,16,42.18,-0.9139,0.1905,0.3372,-0.1207
0.022,0.003,-0.007,14.7,-3.7,-3.7,0,2018,5,17,21,16,42.196,-0.9129,0.191,0.3393,-0.1216
0.03,0.006,-0.008,15.9,-3.4,-4.3,0,2018,5,17,21,16,42.213,-0.9118,0.1915,0.3416,-0.1227
0.011,0.07,0,19.2,-3.9,-2.8,0,2018,5,17,21,16,42.237,-0.9095,0.1917,0.3467,-0.1251
0.026,-0.011,-0.009,20.7,-4.2,-2.3,0,2018,5,17,21,16,42.257,-0.9082,0.1922,0.3497,-0.126
0.037,-0.007,-0.015,22.1,-1.6,-2.4,0,2018,5,17,21,16,42.295,-0.9067,0.1925,0.353,-0.127
0.041,0.004,-0.014,22.9,1.2,-2.7,0,2018,5,17,21,16,42.295,-0.9052,0.1922,0.3563,-0.1283
0.009,0.031,-0.009,24.3,2.5,-1.8,0,2018,5,17,21,16,42.318,-0.9038,0.1915,0.3597,-0.1297
0.04,-0.006,-0.016,25.1,3.5,-0.4,0,2018,5,17,21,16,42.351,-0.9024,0.1905,0.3634,-0.1309
0.015,-0.008,-0.026,26,10.8,0.1,0,2018,5,17,21,16,42.375,-0.901,0.1889,0.3673,-0.1324
0.032,-0.038,-0.015,27.3,14,1.5,0,2018,5,17,21,16,42.379,-0.8996,0.1864,0.3713,-0.1341
-0.013,-0.011,0.011,27.6,18.1,0.8,0,2018,5,17,21,16,42.398,-0.8984,0.1831,0.3752,-0.136
0.027,-0.017,0.045,27,8.7,2.2,0,2018,5,17,21,16,42.434,-0.8972,0.1797,0.3791,-0.1376
-0.016,-0.002,0.041,25.8,6.5,-1.1,0,2018,5,17,21,16,42.457,-0.8957,0.178,0.3827,-0.1392
0.025,0.008,0.004,27,0.6,-2.4,0,2018,5,17,21,16,42.461,-0.8941,0.1769,0.3865,-0.1405
0.021,0.014,0.035,29.8,-2.2,-1.6,1023,2018,5,17,21,16,42.495,-0.8922,0.1762,0.3907,-0.1418
0.017,0.002,0.108,30,-0.8,-0.7,1023,2018,5,17,21,16,42.519,-0.8903,0.1756,0.3948,-0.143
0.005,0.006,0.13,29.2,-8,-0.2,1023,2018,5,17,21,16,42.522,-0.8886,0.175,0.3987,-0.1438
0.014,0.002,0.142,27.4,-20.7,-0.6,1023,2018,5,17,21,16,42.538,-0.8866,0.1762,0.4027,-0.1438
0.013,-0.056,0.109,27,-26.6,-1.3,1023,2018,5,17,21,16,42.561,-0.8843,0.1791,0.4065,-0.1433
0.094,0.057,-0.043,32.7,-26.6,-1,1023,2018,5,17,21,16,42.579,-0.8814,0.1828,0.4112,-0.1428
0.065,0.053,-0.001,39.8,-17.5,6.3,1023,2018,5,17,21,16,42.602,-0.8784,0.1848,0.4172,-0.142
0.028,0.009,0.062,45.4,-15,11.1,1023,2018,5,17,21,16,42.621,-0.8752,0.185,0.4239,-0.141
-0.021,-0.059,0.066,49.8,-23,9.8,1023,2018,5,17,21,16,42.644,-0.8715,0.186,0.4316,-0.1396
-0.021,-0.075,0.045,51.7,-22.9,8.7,0,2018,5,17,21,16,42.656,-0.867,0.188,0.4399,-0.1385
-0.014,-0.033,0.025,52.9,-21.1,10.4,0,2018,5,17,21,16,42.696,-0.8624,0.1898,0.4486,-0.1373
-0.03,-0.043,0.031,52.8,-20.1,12.5,0,2018,5,17,21,16,42.719,-0.8578,0.1909,0.4573,-0.1358
-0.035,0.015,-0.003,52.4,-17.5,14.7,0,2018,5,17,21,16,42.723,-0.8532,0.1914,0.4661,-0.1341
-0.046,0.032,-0.013,51.3,-14,18.5,0,2018,5,17,21,16,42.742,-0.8487,0.1909,0.4751,-0.1318
-0.054,0.054,-0.02,49.9,-8.6,22,0,2018,5,17,21,16,42.76,-0.8445,0.1893,0.4839,-0.1292
-0.048,0.025,-0.02,48.7,-2.6,23.9,0,2018,5,17,21,16,42.799,-0.8404,0.1871,0.4924,-0.1268
-0.051,0.041,-0.017,47.4,4.9,27.5,0,2018,5,17,21,16,42.822,-0.8366,0.1835,0.5007,-0.1246
-0.055,0.058,0.001,46,8.6,33.4,0,2018,5,17,21,16,42.826,-0.8334,0.1782,0.5085,-0.122
-0.057,0.063,0.025,44.9,-3.4,37.2,0,2018,5,17,21,16,42.844,-0.8303,0.173,0.5163,-0.1182
-0.082,0.042,0.011,43,-20.9,40,0,2018,5,17,21,16,42.88,-0.8267,0.1699,0.5243,-0.1124
-0.08,-0.107,-0.038,36.3,-10.3,44.1,0,2018,5,17,21,16,42.88,-0.823,0.1682,0.532,-0.1057
-0.128,-0.117,-0.098,36.6,30.2,49.2,0,2018,5,17,21,16,42.902,-0.8207,0.1619,0.5384,-0.1012
-0.123,-0.015,-0.066,38.8,56.6,50.9,0,2018,5,17,21,16,42.921,-0.8187,0.15,0.5452,-0.0993
-0.107,0.056,-0.012,41.7,45.1,47.8,0,2018,5,17,21,16,42.939,-0.8166,0.137,0.5519,-0.098
-0.154,-0.01,-0.028,40.5,52.5,51.4,0,2018,5,17,21,16,42.962,-0.8143,0.1245,0.5586,-0.0961
-0.189,-0.039,-0.021,38.4,80,51.5,0,2018,5,17,21,16,42.98,-0.8122,0.1097,0.5648,-0.0962
-0.147,0.012,-0.013,36,91.7,43.9,0,2018,5,17,21,16,43.002,-0.8105,0.0917,0.5699,-0.0987
-0.144,0.055,-0.018,33.1,80.2,36.4,0,2018,5,17,21,16,43.04,-0.8088,0.0745,0.5743,-0.102
-0.142,0.076,-0.014,29.2,58.1,29.2,1023,2018,5,17,21,16,43.063,-0.8067,0.0606,0.5783,-0.1043
-0.137,0.09,0.009,23.6,26.8,22,1023,2018,5,17,21,16,43.067,-0.8048,0.0509,0.5819,-0.1047
-0.12,0.05,-0.004,15.1,9.2,20.9,1023,2018,5,17,21,16,43.083,-0.8033,0.0454,0.5847,-0.1031
-0.092,0.048,-0.033,7.9,2,20.2,1023,2018,5,17,21,16,43.106,-0.8024,0.042,0.5867,-0.1004
-0.05,0.101,-0.033,3.1,-15.3,18.7,1023,2018,5,17,21,16,43.121,-0.8019,0.04,0.5881,-0.0967
-0.048,0.129,-0.029,0.4,-51.7,17.2,1023,2018,5,17,21,16,43.14,-0.8017,0.0426,0.5892,-0.0905
-0.034,0.189,-0.011,-2.8,-93.1,18.7,1023,2018,5,17,21,16,43.162,-0.8015,0.0502,0.5904,-0.0801
-0.022,0.307,-0.019,-7.8,-152.1,24.3,0,2018,5,17,21,16,43.182,-0.801,0.0655,0.5914,-0.0643
0.021,0.231,-0.059,-10.4,-213.3,23.1,0,2018,5,17,21,16,43.202,-0.7997,0.0889,0.5922,-0.0417
0.009,0.044,-0.071,-14.4,-243.1,24,0,2018,5,17,21,16,43.222,-0.7967,0.1187,0.5923,-0.014
0.022,0.055,-0.1,-21.7,-248.2,24.7,0,2018,5,17,21,16,43.245,-0.7924,0.1503,0.5909,0.015
0.041,0.028,-0.148,-26,-258.4,26.4,0,2018,5,17,21,16,43.262,-0.787,0.1828,0.5874,0.0456
0.02,-0.101,-0.132,-31.5,-224.5,28.7,0,2018,5,17,21,16,43.285,-0.7809,0.2133,0.582,0.0754
0.041,-0.077,-0.103,-36.8,-170.2,27.9,0,2018,5,17,21,16,43.323,-0.7762,0.2368,0.5755,0.1003
0.065,-0.063,-0.099,-40.6,-126.7,27.1,0,2018,5,17,21,16,43.346,-0.7732,0.2534,0.5686,0.1203
0.089,-0.081,-0.118,-41.8,-88.5,26.5,0,2018,5,17,21,16,43.351,-0.7718,0.2645,0.5618,0.1363
0.12,-0.066,-0.151,-40.7,-52.3,26.2,0,2018,5,17,21,16,43.364,-0.7719,0.2704,0.5558,0.1484
0.143,-0.044,-0.201,-35.1,-29.8,25.2,0,2018,5,17,21,16,43.401,-0.773,0.2724,0.5507,0.1575
0.13,-0.084,-0.213,-25.4,-6.9,24,0,2018,5,17,21,16,43.424,-0.7742,0.2718,0.5474,0.164
0.127,-0.106,-0.202,-17.8,22.5,21.8,0,2018,5,17,21,16,43.428,-0.7759,0.268,0.5458,0.1673
0.126,-0.093,-0.166,-13.7,52.2,19,0,2018,5,17,21,16,43.445,-0.7786,0.2604,0.5458,0.1672
0.111,-0.06,-0.136,-10.4,71.6,16.5,0,2018,5,17,21,16,43.48,-0.782,0.2497,0.5468,0.164
0.109,-0.026,-0.096,-8.9,73.2,14,0,2018,5,17,21,16,43.503,-0.7854,0.2384,0.5485,0.1591
0.114,-0.009,-0.096,-7,58.5,12.3,0,2018,5,17,21,16,43.507,-0.7881,0.2285,0.5501,0.1544
0.125,-0.016,-0.104,-2.6,38.3,11.2,0,2018,5,17,21,16,43.526,-0.7898,0.2213,0.5516,0.1512
0.124,-0.018,-0.087,1.5,20,11,0,2018,5,17,21,16,43.565,-0.7902,0.217,0.5531,0.1496
0.113,-0.03,-0.071,5.1,6.5,11.5,0,2018,5,17,21,16,43.565,-0.7898,0.2151,0.5546,0.1494
0.102,-0.042,-0.065,7.1,-1.5,12,1023,2018,5,17,21,16,43.589,-0.7887,0.2147,0.5561,0.15
0.08,-0.055,-0.053,8.4,-5.9,12.9,1023,2018,5,17,21,16,43.604,-0.7871,0.2155,0.5576,0.1513
0.032,-0.06,-0.016,7.7,-5.9,13.9,1023,2018,5,17,21,16,43.642,-0.7856,0.2162,0.5591,0.1529
0.035,-0.025,0.027,5.1,-9.5,13.6,1023,2018,5,17,21,16,43.666,-0.7843,0.2168,0.5601,0.1548
0.075,0.097,0.098,3.8,-29.1,13.6,1023,2018,5,17,21,16,43.67,-0.7831,0.2181,0.5604,0.1582
0.031,0.096,0.172,2.1,-71.7,12.6,1023,2018,5,17,21,16,43.685,-0.7802,0.2243,0.56,0.1649
-0.005,0.053,0.167,-3.4,-92.2,10.1,1023,2018,5,17,21,16,43.708,-0.7765,0.2349,0.5579,0.1746
0.008,0,0.08,-8.4,-93.2,8.1,0,2018,5,17,21,16,43.728,-0.7733,0.2464,0.5538,0.1854
0.018,-0.047,0.004,-8.5,-75.6,8.1,0,2018,5,17,21,16,43.746,-0.7703,0.2572,0.5498,0.1948
-0.022,-0.145,-0.013,-7.3,-42.3,10.1,0,2018,5,17,21,16,43.769,-0.768,0.265,0.5469,0.2016
-0.019,-0.168,-0.012,-9.2,7.6,10.5,0,2018,5,17,21,16,43.787,-0.7675,0.2665,0.5457,0.2047
-0.022,-0.137,-0.012,-10.8,56.3,13,0,2018,5,17,21,16,43.81,-0.7696,0.2615,0.5459,0.2028
-0.007,-0.111,-0.018,-12.3,95.8,15.9,0,2018,5,17,21,16,43.825,-0.7737,0.2502,0.5475,0.1971
0.009,-0.057,-0.02,-12.8,122.3,17.9,0,2018,5,17,21,16,43.862,-0.7789,0.2342,0.5502,0.1886
0.025,-0.009,-0.012,-12.4,129.6,18.5,0,2018,5,17,21,16,43.885,-0.7845,0.2151,0.5533,0.179
0.021,0.038,-0.012,-11.1,118.5,17.3,0,2018,5,17,21,16,43.89,-0.7895,0.196,0.5561,0.1699
0,0.056,0.002,-9.2,94.8,15.3,0,2018,5,17,21,16,43.905,-0.7934,0.1793,0.5585,0.1623
-0.021,0.058,0.019,-8.1,64.9,11.8,0,2018,5,17,21,16,43.929,-0.7961,0.1666,0.56,0.157
-0.033,0.051,0.018,-7.9,33.7,7.5,0,2018,5,17,21,16,43.964,-0.7979,0.1586,0.5606,0.154
-0.023,0.039,-0.002,-8.4,3.5,2.8,0,2018,5,17,21,16,43.987,-0.799,0.1553,0.5602,0.1535
-0.019,0.009,-0.038,-8.7,-18.7,-1,0,2018,5,17,21,16,43.991,-0.7993,0.1564,0.5591,0.1548
-0.004,-0.007,-0.054,-9,-30.9,-4.5,0,2018,5,17,21,16,44.008,-0.7991,0.1606,0.5575,0.157
0.01,-0.016,-0.069,-8.9,-36.2,-7.6,0,2018,5,17,21,16,44.031,-0.7988,0.1662,0.5556,0.1595
0.013,-0.021,-0.072,-7.8,-35.5,-10.1,0,2018,5,17,21,16,44.047,-0.7984,0.1726,0.5536,0.1618
0.003,-0.024,-0.08,-6.2,-29.2,-11.2,0,2018,5,17,21,16,44.066,-0.7979,0.1786,0.5519,0.1634
0.003,-0.023,-0.072,-4,-19.5,-11.2,0,2018,5,17,21,16,44.089,-0.7975,0.1834,0.5506,0.1641
0.001,-0.016,-0.066,-1.4,-7.7,-10.6,0,2018,5,17,21,16,44.109,-0.7973,0.1868,0.55,0.1637
0.004,-0.008,-0.049,0.7,4.3,-9.1,1023,2018,5,17,21,16,44.127,-0.7972,0.1885,0.55,0.1623
0.009,0.009,-0.043,2.2,13.3,-7.5,1023,2018,5,17,21,16,44.15,-0.7973,0.1882,0.5505,0.1602
0.015,0.021,-0.041,3.6,18,-5.6,1023,2018,5,17,21,16,44.168,-0.7975,0.1867,0.5515,0.1577
0.02,0.037,-0.04,4.4,19.9,-4,1023,2018,5,17,21,16,44.19,-0.7976,0.1846,0.5528,0.1552
0.012,0.053,-0.039,5.1,19,-2.3,1023,2018,5,17,21,16,44.21,-0.7976,0.182,0.5542,0.1529
0.008,0.062,-0.029,5.4,13.6,-0.8,1023,2018,5,17,21,16,44.233,-0.7974,0.1796,0.5557,0.1513
0.001,0.062,-0.009,5.4,5.8,0.8,1023,2018,5,17,21,16,44.25,-0.797,0.1782,0.5569,0.1505
-0.001,0.063,-0.001,4.7,-3.2,2.4,1023,2018,5,17,21,16,44.273,-0.7964,0.1778,0.5579,0.1508
-0.002,0.059,0.003,4,-12,4,1023,2018,5,17,21,16,44.291,-0.7955,0.1784,0.5585,0.1523
-0.003,0.047,0.005,3.3,-18.7,5.3,1023,2018,5,17,21,16,44.315,-0.7945,0.18,0.5588,0.1546
-0.006,0.026,0.008,2.6,-23.7,6.5,0,2018,5,17,21,16,44.331,-0.7932,0.1825,0.5589,0.1577
0,0.014,0.001,2.4,-24.6,7.2,0,2018,5,17,21,16,44.348,-0.7919,0.1854,0.5589,0.1611
0.003,0.002,-0.004,2.4,-23.7,7.9,0,2018,5,17,21,16,44.371,-0.7906,0.1882,0.5588,0.1645
0.012,-0.006,0.002,2.8,-19.9,9,0,2018,5,17,21,16,44.389,-0.7894,0.1905,0.5588,0.1677
0.018,-0.022,0,3.2,-15.1,9.3,0,2018,5,17,21,16,44.413,-0.7882,0.1925,0.5589,0.1705
0.023,-0.021,-0.008,3.7,-10.2,9.9,0,2018,5,17,21,16,44.449,-0.7872,0.1938,0.5593,0.1728
0.023,-0.033,-0.008,4.9,-4.8,10.3,0,2018,5,17,21,16,44.468,-0.7862,0.1944,0.5599,0.1746
0.019,-0.038,0.004,5.6,1.6,10.2,0,2018,5,17,21,16,44.474,-0.7853,0.1942,0.5608,0.1757
0.01,-0.042,0.01,6,6,10.2,0,2018,5,17,21,16,44.491,-0.7847,0.1931,0.5619,0.1763
0.009,-0.042,0.014,5.8,8.5,9.8,0,2018,5,17,21,16,44.514,-0.7841,0.1917,0.5631,0.1765
0.006,-0.036,0.015,5.6,8.3,8.6,0,2018,5,17,21,16,44.532,-0.7836,0.1902,0.5643,0.1765
0.001,-0.035,0.021,4.8,6.9,7.3,0,2018,5,17,21,16,44.549,-0.7833,0.1889,0.5652,0.1765
-0.002,-0.036,0.024,3.8,4.3,5.1,0,2018,5,17,21,16,44.572,-0.783,0.1879,0.5659,0.1765
0,-0.036,0.025,2.7,2.3,2.5,0,2018,5,17,21,16,44.589,-0.7829,0.1874,0.5663,0.1764
-0.001,-0.038,0.023,1.5,0.5,0,0,2018,5,17,21,16,44.613,-0.7828,0.1875,0.5664,0.1762
-0.004,-0.038,0.021,0.5,-0.8,-2.4,0,2018,5,17,21,16,44.63,-0.7829,0.188,0.5663,0.1759
-0.006,-0.033,0.013,-0.4,-1.3,-4.6,0,2018,5,17,21,16,44.653,-0.7831,0.1888,0.5659,0.1753
-0.009,-0.03,0.015,-0.9,-0.7,-5.9,0,2018,5,17,21,16,44.691,-0.7833,0.1898,0.5654,0.1746
-0.011,-0.026,0.015,-1.7,0.8,-7.1,0,2018,5,17,21,16,44.715,-0.7838,0.1905,0.5648,0.1736
-0.005,-0.017,0.015,-2,1.8,-7.7,0,2018,5,17,21,16,44.719,-0.7844,0.191,0.5642,0.1725
-0.003,-0.006,0.006,-2.1,2.7,-8,0,2018,5,17,21,16,44.735,-0.785,0.1914,0.5636,0.1712
-0.006,-0.006,-0.003,-2.2,4.1,-8.1,0,2018,5,17,21,16,44.752,-0.7856,0.1918,0.5631,0.1698
-0.002,-0.003,-0.012,-2.1,6.4,-7.9,0,2018,5,17,21,16,44.786,-0.7861,0.192,0.5628,0.1683
-0.004,0.001,-0.017,-1.5,8.1,-7.2,0,2018,5,17,21,16,44.809,-0.7866,0.1919,0.5626,0.1665
-0.013,0.002,0.003,-1.7,9.7,-7.1,0,2018,5,17,21,16,44.814,-0.7872,0.1913,0.5625,0.1648
0.005,-0.004,-0.004,-2.1,12.4,-8.2,0,2018,5,17,21,16,44.833,-0.788,0.1906,0.5622,0.1628
0.011,-0.004,-0.041,-1.6,15.1,-9.3,0,2018,5,17,21,16,44.856,-0.7888,0.1897,0.5622,0.1602
-0.005,0.01,0.027,-2.1,10.7,-10.8,0,2018,5,17,21,16,44.872,-0.7895,0.1889,0.5621,0.1575
-0.042,-0.022,0.103,-8,17.7,-13.4,0,2018,5,17,21,16,44.893,-0.791,0.1882,0.5609,0.155
-0.045,-0.069,-0.004,-13.4,51.2,-15.1,0,2018,5,17,21,16,44.93,-0.7939,0.185,0.5594,0.1497
0.031,-0.039,-0.093,-10.5,54.9,-18.8,0,2018,5,17,21,16,44.954,-0.7971,0.1789,0.5589,0.1418
0.059,-0.018,-0.122,-1.6,21.9,-20.1,0,2018,5,17,21,16,44.959,-0.7988,0.1758,0.559,0.1352
0.047,-0.051,-0.12,6.3,-4.5,-20.1,0,2018,5,17,21,16,44.974,-0.7989,0.1772,0.5594,0.1314
0.031,-0.04,-0.111,10.6,-19.1,-20,0,2018,5,17,21,16,44.991,-0.7975,0.1817,0.5604,0.1294
0.018,-0.078,-0.123,13.2,-15.9,-19.8,0,2018,5,17,21,16,45.014,-0.7958,0.1869,0.5615,0.1279
0.066,-0.116,-0.175,15.4,3.4,-19.5,0,2018,5,17,21,16,45.048,-0.7946,0.1899,0.5627,0.1253
0.084,-0.017,-0.189,20.3,11.8,-18.9,0,2018,5,17,21,16,45.072,-0.7936,0.1909,0.5647,0.1211
0.072,-0.016,-0.113,24.3,14.5,-20.1,0,2018,5,17,21,16,45.077,-0.792,0.1918,0.5676,0.1164
0.029,0.013,0.033,18.5,29.6,-21.9,0,2018,5,17,21,16,45.094,-0.7909,0.1914,0.5704,0.1106
0.053,0.044,0.051,14.3,51.2,-23.6,0,2018,5,17,21,16,45.114,-0.7915,0.1877,0.5722,0.1031
0.089,0.043,0.013,14.3,55.8,-27.2,0,2018,5,17,21,16,45.152,-0.7927,0.1823,0.574,0.0939
0.105,0.037,-0.034,17.5,44.3,-29.3,0,2018,5,17,21,16,45.174,-0.7933,0.1781,0.5759,0.0846
0.128,0.062,-0.066,22,22.9,-30.7,0,2018,5,17,21,16,45.177,-0.7926,0.1763,0.5785,0.0766
0.117,0.085,-0.031,23.4,2.6,-31.3,0,2018,5,17,21,16,45.196,-0.791,0.1774,0.5811,0.071
0.11,0.002,-0.08,26.4,5.1,-32.8,1023,2018,5,17,21,16,45.212,-0.7888,0.1803,0.5837,0.066
0.117,-0.103,-0.13,29.2,35.9,-35.4,1023,2018,5,17,21,16,45.234,-0.7868,0.1814,0.5869,0.0583
0.072,-0.116,-0.121,31.5,84.8,-34.9,1023,2018,5,17,21,16,45.271,-0.786,0.1766,0.5905,0.0464
0.015,-0.024,-0.077,32.1,108.6,-36.2,1023,2018,5,17,21,16,45.293,-0.7857,0.1669,0.5948,0.03
0.097,0.004,-0.089,32.8,106.2,-37.7,1023,2018,5,17,21,16,45.298,-0.7851,0.1565,0.599,0.0126
0.096,0.026,-0.085,32.6,100.1,-35.6,1023,2018,5,17,21,16,45.318,-0.784,0.1462,0.6032,-0.0041
0.153,0.134,-0.046,31.5,70.9,-35.6,1023,2018,5,17,21,16,45.335,-0.7825,0.1372,0.6069,-0.0185
0.181,0.217,-0.031,30.7,16.9,-34.3,0,2018,5,17,21,16,45.359,-0.7801,0.1343,0.6103,-0.0283
0.138,0.154,-0.051,31.7,-20.8,-30.1,0,2018,5,17,21,16,45.376,-0.7764,0.1382,0.6139,-0.0326
0.082,0.025,0.026,26.3,-3,-24,0,2018,5,17,21,16,45.399,-0.773,0.1419,0.6173,-0.0348
0.022,0.042,0.125,18.1,31.3,-20.7,0,2018,5,17,21,16,45.435,-0.7714,0.1415,0.619,-0.04
0,0.116,0.119,10.1,33.8,-18.5,0,2018,5,17,21,16,45.435,-0.7707,0.138,0.6201,-0.0467
-0.01,0.033,0.075,6.2,18.5,-17.4,0,2018,5,17,21,16,45.459,-0.7706,0.1363,0.6203,-0.0517
-0.053,-0.002,0.097,2.4,18.2,-21.4,0,2018,5,17,21,16,45.475,-0.7709,0.1354,0.6198,-0.0564
-0.086,-0.06,0.129,-4.6,13.2,-26.1,0,2018,5,17,21,16,45.499,-0.7717,0.1356,0.6182,-0.061
-0.143,-0.073,0.124,-13.1,20.1,-31.7,0,2018,5,17,21,16,45.535,-0.7733,0.1366,0.6154,-0.0667
-0.111,-0.041,0.067,-19.2,25.4,-38.2,0,2018,5,17,21,16,45.558,-0.7756,0.1371,0.6116,-0.0738
-0.073,0.028,-0.103,-17.9,7.6,-40.5,0,2018,5,17,21,16,45.562,-0.7772,0.1394,0.6083,-0.08
-0.068,-0.149,-0.106,-16.9,42.5,-39.8,0,2018,5,17,21,16,45.596,-0.7787,0.1406,0.6051,-0.087
-0.169,-0.001,0.001,-20.6,77.3,-45.7,0,2018,5,17,21,16,45.619,-0.7813,0.1364,0.6008,-0.0992
-0.189,0.049,0.109,-30.5,68.5,-49.3,0,2018,5,17,21,16,45.624,-0.7851,0.1305,0.5948,-0.1123
-0.131,0.06,0.028,-38,48.4,-50.4,0,2018,5,17,21,16,45.637,-0.7892,0.1273,0.5877,-0.1237
-0.116,0.021,0.02,-43.2,47.7,-46.8,0,2018,5,17,21,16,45.681,-0.7933,0.1258,0.5803,-0.1337
-0.109,0.029,-0.003,-46.6,54.4,-42.7,0,2018,5,17,21,16,45.683,-0.7979,0.1236,0.5721,-0.1436
-0.082,0.113,-0.037,-49.2,47.6,-35.2,0,2018,5,17,21,16,45.696,-0.8027,0.1204,0.5637,-0.1526
-0.084,0.076,-0.036,-47.8,37.7,-29.6,0,2018,5,17,21,16,45.734,-0.8073,0.1179,0.5557,-0.1595
-0.116,0.052,-0.027,-47.6,33,-24.7,1023,2018,5,17,21,16,45.755,-0.8117,0.1161,0.548,-0.1651
-0.065,0.124,0.015,-50,32.7,-19.8,1023,2018,5,17,21,16,45.757,-0.8163,0.1137,0.54,-0.17
-0.052,0.04,0.02,-51.6,22.9,-17.3,1023,2018,5,17,21,16,45.794,-0.8213,0.1119,0.5316,-0.1735
-0.061,-0.033,-0.015,-46.8,23.3,-17.6,1023,2018,5,17,21,16,45.817,-0.8256,0.1114,0.5239,-0.1769
-0.069,0.018,-0.004,-43.6,28.6,-20.1,1023,2018,5,17,21,16,45.822,-0.8295,0.1102,0.5166,-0.1811
-0.049,0.053,0.011,-41.2,22.4,-21.3,1023,2018,5,17,21,16,45.84,-0.8331,0.1089,0.5095,-0.1853
-0.052,0.02,-0.003,-38.3,8.2,-19.4,1023,2018,5,17,21,16,45.863,-0.8362,0.1094,0.5031,-0.1885
-0.029,0.019,0.012,-37.7,7.1,-14.3,1023,2018,5,17,21,16,45.879,-0.8391,0.1108,0.4971,-0.1907
-0.012,-0.019,0.04,-38.2,14,-10.2,0,2018,5,17,21,16,45.905,-0.8422,0.1113,0.4909,-0.1926
0.022,-0.015,0.022,-38.4,19.6,-7.7,0,2018,5,17,21,16,45.921,-0.8456,0.1106,0.4843,-0.1948
0.058,0.029,0.042,-38.6,13.7,-2.1,0,2018,5,17,21,16,45.938,-0.8493,0.1093,0.4776,-0.1963
0.047,-0.058,0.03,-38.1,10.9,0.8,0,2018,5,17,21,16,45.962,-0.8528,0.1091,0.4711,-0.1967
0.034,-0.045,0.057,-40.6,20.9,3.4,0,2018,5,17,21,16,45.98,-0.8565,0.1082,0.4642,-0.1974
0.014,-0.029,0.01,-41.9,23.3,6.5,0,2018,5,17,21,16,46.018,-0.8606,0.1059,0.457,-0.1979
-0.002,0.048,0.051,-41.9,9,11.4,0,2018,5,17,21,16,46.041,-0.8647,0.1035,0.4501,-0.1972
-0.023,-0.025,0.12,-44.6,-12.6,16.2,0,2018,5,17,21,16,46.046,-0.8687,0.1042,0.4436,-0.1938
0.02,0.086,0.127,-51,-16.2,24.5,0,2018,5,17,21,16,46.062,-0.8732,0.1056,0.4366,-0.1889
0.04,0.11,0.062,-54.8,-60.5,29.4,0,2018,5,17,21,16,46.098,-0.8774,0.1106,0.4302,-0.181
0.133,-0.025,0.04,-56.4,-67.5,35.5,0,2018,5,17,21,16,46.121,-0.8813,0.1199,0.424,-0.1701
0.007,-0.132,0.038,-59,-62.6,43.1,0,2018,5,17,21,16,46.126,-0.8854,0.1296,0.4174,-0.1582
-0.02,-0.16,0.042,-63.9,-36.7,46.8,0,2018,5,17,21,16,46.143,-0.8898,0.1362,0.41,-0.1466
-0.02,-0.095,0.028,-66.1,-21.7,46.8,0,2018,5,17,21,16,46.159,-0.8947,0.1393,0.4017,-0.1362
-0.016,-0.062,0.009,-64.9,-25.1,45,0,2018,5,17,21,16,46.182,-0.8997,0.1415,0.393,-0.126
-0.031,-0.112,-0.006,-62.2,-23,41.6,0,2018,5,17,21,16,46.2,-0.9041,0.1446,0.3847,-0.1162
-0.032,-0.064,-0.023,-57.2,-18,36.5,0,2018,5,17,21,16,46.224,-0.9081,0.1469,0.377,-0.1074
-0.035,-0.043,-0.044,-51.9,-17.3,27.9,1023,2018,5,17,21,16,46.24,-0.9115,0.1489,0.3699,-0.0998
-0.058,-0.078,-0.056,-46.8,-10,17.8,1023,2018,5,17,21,16,46.264,-0.9144,0.151,0.3634,-0.0941
-0.062,-0.1,-0.061,-41,1.3,4.8,1023,2018,5,17,21,16,46.281,-0.9169,0.1522,0.3574,-0.0911
-0.056,-0.085,-0.052,-35.2,10.7,-9.5,1023,2018,5,17,21,16,46.304,-0.9191,0.1524,0.3516,-0.0911
-0.031,-0.03,-0.058,-29.9,22.3,-20.4,1023,2018,5,17,21,16,46.34,-0.9209,0.1519,0.3463,-0.0938
0.009,0.038,-0.056,-25.3,28.1,-27,1023,2018,5,17,21,16,46.364,-0.9227,0.1496,0.3413,-0.0986
0.071,0.028,-0.077,-21.1,41.3,-27.1,1023,2018,5,17,21,16,46.368,-0.9243,0.1461,0.3365,-0.1044
0.107,0.09,-0.086,-17.1,54.3,-21.5,0,2018,5,17,21,16,46.384,-0.9263,0.1397,0.3317,-0.1108
0.087,0.119,0.007,-16.4,57.4,-15.2,0,2018,5,17,21,16,46.401,-0.9285,0.131,0.3271,-0.1166
0.046,0.109,0.128,-20.1,44.6,-9.2,0,2018,5,17,21,16,46.424,-0.9304,0.1235,0.3228,-0.1211
0.101,0.094,0.173,-27.9,31.2,-4.5,0,2018,5,17,21,16,46.459,-0.9324,0.1182,0.318,-0.1238
0.065,0.056,0.129,-35.3,14.4,0.5,0,2018,5,17,21,16,46.483,-0.9346,0.1152,0.3123,-0.1246
0.049,-0.032,0.059,-39,3.9,-1.9,0,2018,5,17,21,16,46.486,-0.9371,0.1145,0.3051,-0.1245
0.026,-0.05,0.019,-40.3,5.7,-4.4,0,2018,5,17,21,16,46.503,-0.9393,0.1151,0.298,-0.1247
0.062,-0.008,-0.065,-37.5,13.8,-4.6,0,2018,5,17,21,16,46.525,-0.9414,0.1151,0.2909,-0.1255
0.102,0.058,-0.072,-31.2,15.7,-2,0,2018,5,17,21,16,46.544,-0.9434,0.1133,0.2846,-0.1262
0.047,0.062,-0.041,-16.1,18.3,2.5,0,2018,5,17,21,16,46.567,-0.9466,0.1089,0.2755,-0.1268
0.038,0.113,0.015,-11.6,22.4,5.3,0,2018,5,17,21,16,46.586,-0.9479,0.1047,0.2725,-0.1268
0.035,0.16,0.046,-8.7,15.5,7.8,0,2018,5,17,21,16,46.604,-0.9489,0.1009,0.2705,-0.1265
0.033,0.136,0.046,-5.7,-2.5,8,0,2018,5,17,21,16,46.622,-0.9496,0.0993,0.2694,-0.1253
0.037,0.108,0.012,-3.3,-17,7,0,2018,5,17,21,16,46.645,-0.9499,0.1003,0.269,-0.1235
0.05,0.106,-0.012,-1.4,-23.4,7.5,0,2018,5,17,21,16,46.663,-0.95,0.1023,0.2688,-0.1212
0.046,0.082,-0.012,-0.6,-23,9.3,0,2018,5,17,21,16,46.686,-0.95,0.1051,0.2689,-0.1186
0.045,0.058,0.003,-0.4,-27.7,10.1,0,2018,5,17,21,16,46.704,-0.9499,0.1083,0.2691,-0.1157
0.055,0.032,0.012,0,-35.5,11,0,2018,5,17,21,16,46.727,-0.9497,0.1126,0.2694,-0.1125
0.025,-0.037,0.052,0.8,-43.5,11.8,0,2018,5,17,21,16,46.745,-0.9492,0.1188,0.27,-0.1089
0.009,-0.095,0.05,1.2,-53.4,9.2,0,2018,5,17,21,16,46.769,-0.9483,0.1269,0.2709,-0.105
0.019,-0.108,-0.023,1.2,-49.4,5.9,1023,2018,5,17,21,16,46.787,-0.9471,0.1361,0.2721,-0.1017
0.03,-0.065,-0.074,3.1,-34.2,7,1023,2018,5,17,21,16,46.809,-0.9459,0.1435,0.2735,-0.0991
0.026,-0.013,-0.052,5.6,-21.2,11.4,1023,2018,5,17,21,16,46.824,-0.945,0.1478,0.275,-0.0965
0.005,-0.048,-0.043,8.1,-14.8,13.4,1023,2018,5,17,21,16,46.862,-0.9443,0.1504,0.2769,-0.0939
0.005,-0.077,-0.06,10,-6.4,12.3,1023,2018,5,17,21,16,46.886,-0.9436,0.152,0.2792,-0.0917
0.02,-0.021,-0.045,12.3,4.6,10.9,1023,2018,5,17,21,16,46.89,-0.943,0.1521,0.2815,-0.0904
0.025,0.018,-0.003,14.1,8.1,11.2,1023,2018,5,17,21,16,46.906,-0.9428,0.1501,0.2838,-0.0894
0.027,0.05,0.017,15.1,6,11.8,1023,2018,5,17,21,16,46.925,-0.9425,0.1477,0.2862,-0.0883
0.037,0.089,-0.003,15.4,-2.2,11.4,0,2018,5,17,21,16,46.949,-0.9422,0.1459,0.2886,-0.0868
0.053,0.096,-0.014,16.3,-11.4,11.3,0,2018,5,17,21,16,46.984,-0.9416,0.1455,0.2913,-0.0849
0.046,0.085,-0.003,17.6,-19.2,12,0,2018,5,17,21,16,47.005,-0.9407,0.1465,0.2943,-0.0825
0.034,0.046,0.018,18.1,-27.3,12,0,2018,5,17,21,16,47.009,-0.9396,0.1489,0.2975,-0.0798
0.005,-0.02,0.031,17.4,-34.9,9.5,0,2018,5,17,21,16,47.027,-0.9381,0.153,0.3008,-0.0769
-0.01,-0.055,0.012,15.4,-34,5.2,0,2018,5,17,21,16,47.049,-0.9363,0.1584,0.3042,-0.0744
-0.016,-0.061,-0.008,12.2,-26.9,2.8,0,2018,5,17,21,16,47.086,-0.9347,0.1635,0.307,-0.0728
-0.027,-0.047,-0.022,9.1,-18.3,2,0,2018,5,17,21,16,47.086,-0.9333,0.1674,0.3093,-0.0717
-0.048,-0.029,-0.006,4.9,-11.8,2.3,0,2018,5,17,21,16,47.108,-0.9323,0.1699,0.3111,-0.0708
-0.077,-0.05,-0.002,0.9,-8,1.1,0,2018,5,17,21,16,47.127,-0.9317,0.1715,0.3122,-0.0701
-0.068,-0.042,-0.005,-2.6,-8.1,-0.1,0,2018,5,17,21,16,47.147,-0.9313,0.1731,0.3127,-0.0695
-0.069,-0.04,-0.014,-4.3,-3.8,-1.2,0,2018,5,17,21,16,47.171,-0.931,0.1745,0.3127,-0.0693
-0.06,-0.001,-0.004,-5.8,-0.6,-1.3,0,2018,5,17,21,16,47.187,-0.931,0.1751,0.3124,-0.0692
-0.034,0.063,0.014,-7.4,-5.8,-1.5,0,2018,5,17,21,16,47.21,-0.9313,0.1751,0.3116,-0.069
0.002,0.039,0,-6.8,-14.8,-2.4,0,2018,5,17,21,16,47.228,-0.9314,0.1768,0.3106,-0.0684
0.024,0.023,-0.007,-5.6,-17.1,-2,0,2018,5,17,21,16,47.252,-0.9312,0.1795,0.3096,-0.0677
0.027,0.011,0.004,-4.1,-16.6,-0.7,0,2018,5,17,21,16,47.286,-0.931,0.1823,0.3088,-0.0669
0.02,-0.008,0.009,-2.8,-15.3,-0.2,0,2018,5,17,21,16,47.286,-0.9308,0.185,0.3081,-0.0661
0.015,-0.017,-0.002,-2.2,-13.5,-0.6,1023,2018,5,17,21,16,47.31,-0.9304,0.1875,0.3077,-0.0654
0.016,-0.018,-0.017,-1.2,-10.7,-1.2,1023,2018,5,17,21,16,47.326,-0.9301,0.1899,0.3075,-0.065
0.011,-0.019,-0.024,-0.4,-6.7,-1.6,1023,2018,5,17,21,16,47.349,-0.9297,0.1917,0.3074,-0.0649
0.006,-0.019,-0.027,0,-2.6,-2.2,1023,2018,5,17,21,16,47.385,-0.9295,0.193,0.3074,-0.0651
0.003,-0.015,-0.015,-0.1,1.3,-2.6,1023,2018,5,17,21,16,47.407,-0.9293,0.1936,0.3074,-0.0656
0.01,0.003,0,-0.7,3.1,-2.9,1023,2018,5,17,21,16,47.412,-0.9294,0.1934,0.3072,-0.0663
