ax,ay,az,dpitch,droll,dyaw,heart,time_1,time_2,time_3,time_4,time_5,time_6,w,x,y,z
0.023,0.037,-0.165,1.3,-48.9,19.1,0,2018,5,17,20,40,5.874,0.5034,0.1521,-0.4229,0.7379
0.045,-0.027,-0.052,2.6,-26.6,22.7,0,2018,5,17,20,40,5.879,0.5065,0.1508,-0.4282,0.733
0.086,0.02,-0.087,18,-15.7,28.8,0,2018,5,17,20,40,5.913,0.5091,0.1521,-0.4314,0.729
0.054,0.133,-0.222,40.1,-22.6,34,0,2018,5,17,20,40,5.936,0.5114,0.1571,-0.4356,0.7238
-0.168,-0.027,-0.22,40.8,-2.6,32.4,0,2018,5,17,20,40,5.941,0.5128,0.1638,-0.441,0.718
-0.267,-0.231,0.186,24.9,73.9,28,1023,2018,5,17,20,40,5.957,0.512,0.1731,-0.439,0.7177
-0.439,-0.988,1.097,-41,65.8,-13.4,1023,2018,5,17,20,40,5.979,0.5124,0.1796,-0.4264,0.7233
0.131,-0.055,0.413,-0.7,25,-2.8,1023,2018,5,17,20,40,5.997,0.5105,0.1799,-0.4194,0.7287
0.074,0.311,-0.083,5,-21.5,17.4,1023,2018,5,17,20,40,6.02,0.5112,0.1817,-0.4198,0.7275
-0.054,0.067,-0.042,0.7,-16.1,5.6,1023,2018,5,17,20,40,6.039,0.5133,0.1814,-0.4226,0.7244
-0.022,-0.025,0.043,-2.8,-12.7,-4.6,1023,2018,5,17,20,40,6.062,0.5136,0.1803,-0.4246,0.7234
0.004,0.005,0.047,-2.5,-17.6,-3.2,1023,2018,5,17,20,40,6.098,0.5135,0.1785,-0.4263,0.7229
0.016,-0.053,-0.002,-1.4,-20.5,0.8,1023,2018,5,17,20,40,6.121,0.514,0.1762,-0.4288,0.7216
0.012,-0.098,0.012,1.4,-12.2,3.6,1023,2018,5,17,20,40,6.126,0.5145,0.1744,-0.4312,0.7203
0.031,-0.014,0.03,5.8,-6.7,3.7,1023,2018,5,17,20,40,6.14,0.5145,0.174,-0.4327,0.7194
0.041,-0.004,0,6.4,-9.9,4.4,1023,2018,5,17,20,40,6.158,0.5146,0.1743,-0.4343,0.7184
0.042,-0.03,-0.011,6.3,-10.2,5,1023,2018,5,17,20,40,6.182,0.5148,0.1743,-0.4362,0.717
0.05,-0.014,-0.015,7.5,-7.1,5.6,1023,2018,5,17,20,40,6.2,0.5148,0.1747,-0.4382,0.7158
0.023,-0.02,0.024,10,-2.8,6.1,1023,2018,5,17,20,40,6.238,0.5147,0.1757,-0.4396,0.7147
0.012,0.014,0.001,10.8,-3.8,6.2,0,2018,5,17,20,40,6.262,0.5148,0.1771,-0.4406,0.7137
0.014,0.018,0.001,9.9,-4.7,5.2,0,2018,5,17,20,40,6.266,0.5146,0.1788,-0.4421,0.7124
0.009,-0.009,0.002,9.7,-5.2,3.5,0,2018,5,17,20,40,6.282,0.5144,0.18,-0.4435,0.7114
-0.006,-0.011,-0.005,7.1,-3.3,1.8,0,2018,5,17,20,40,6.301,0.5142,0.1808,-0.4448,0.7106
0.005,0.002,0.001,2.9,-2.6,-0.4,0,2018,5,17,20,40,6.324,0.5136,0.1816,-0.4458,0.7101
0.021,0.002,-0.011,-1.6,-5.4,-1.6,0,2018,5,17,20,40,6.36,0.5133,0.1815,-0.4468,0.7098
0.02,-0.029,-0.004,-2.6,-4,-1,0,2018,5,17,20,40,6.36,0.5131,0.1808,-0.4477,0.7096
0.018,-0.042,0.008,-1.4,0.6,0,0,2018,5,17,20,40,6.382,0.5128,0.1802,-0.4481,0.7096
0.013,-0.011,0.005,-0.7,3.4,0.7,0,2018,5,17,20,40,6.417,0.5124,0.1803,-0.4481,0.7099
0.023,0.039,-0.009,-2.5,1.8,-0.6,0,2018,5,17,20,40,6.439,0.5123,0.1807,-0.4477,0.7101
0.041,0.06,-0.011,-5.3,-3.8,-1.5,0,2018,5,17,20,40,6.441,0.5124,0.1804,-0.4475,0.7103
0.022,-0.063,0.026,-3.5,-5.8,-0.5,0,2018,5,17,20,40,6.479,0.5126,0.1792,-0.4479,0.7102
0.02,-0.051,0.001,-1.1,-0.4,1.2,0,2018,5,17,20,40,6.502,0.5124,0.1784,-0.4485,0.7101
0.019,0.01,0.001,0,1.9,1.7,0,2018,5,17,20,40,6.506,0.5123,0.1785,-0.4484,0.7102
0.03,0.043,0.009,0.1,-2.5,1.2,0,2018,5,17,20,40,6.522,0.5125,0.1789,-0.4482,0.7101
0.01,-0.006,0.009,0.3,-7.7,1.3,0,2018,5,17,20,40,6.545,0.5128,0.1787,-0.4487,0.7096
-0.001,-0.042,0,0.2,-6.3,1.9,0,2018,5,17,20,40,6.563,0.5129,0.1782,-0.4499,0.709
0.009,-0.019,-0.003,-0.8,-2.9,2,1023,2018,5,17,20,40,6.586,0.513,0.1778,-0.4506,0.7085
0.023,0.031,-0.008,-1.5,-2.7,1.7,1023,2018,5,17,20,40,6.603,0.5132,0.1778,-0.4509,0.7082
0.03,0.022,-0.004,-3.2,-7.2,1.3,1023,2018,5,17,20,40,6.623,0.5137,0.1774,-0.4511,0.7078
0.014,-0.05,-0.008,-2.7,-6.4,2.2,1023,2018,5,17,20,40,6.659,0.514,0.1765,-0.452,0.7072
0.012,-0.024,-0.01,-2.1,-0.6,2.3,1023,2018,5,17,20,40,6.683,0.5143,0.1759,-0.4525,0.7068
0.024,0.021,-0.019,-3.4,0.6,1.6,1023,2018,5,17,20,40,6.686,0.5145,0.176,-0.4523,0.7068
0.039,0.02,-0.022,-4.1,0.5,0.6,1023,2018,5,17,20,40,6.72,0.5147,0.1758,-0.4519,0.7069
0.017,-0.027,0.004,-3.2,1.4,0.8,1023,2018,5,17,20,40,6.743,0.5149,0.1755,-0.4516,0.7071
0.002,-0.015,0,-3.6,3.9,0.2,1023,2018,5,17,20,40,6.747,0.5149,0.1754,-0.4511,0.7074
0.011,0.024,-0.034,-6.5,4.8,-1.3,1023,2018,5,17,20,40,6.766,0.5148,0.1754,-0.4503,0.708
0.019,-0.009,0.004,-8.5,4.1,-1.8,1023,2018,5,17,20,40,6.784,0.5149,0.1749,-0.4492,0.7087
0.012,-0.019,-0.007,-8.5,4.5,-1.1,1023,2018,5,17,20,40,6.807,0.515,0.174,-0.4481,0.7095
0.004,-0.014,-0.005,-9.6,7.3,-0.5,1023,2018,5,17,20,40,6.825,0.5152,0.1734,-0.4468,0.7104
0.029,0.035,-0.043,-12.4,7.6,-1,0,2018,5,17,20,40,6.848,0.5154,0.1731,-0.4452,0.7114
0.024,-0.022,0.031,-11.3,8,-0.2,0,2018,5,17,20,40,6.886,0.5159,0.1722,-0.4432,0.7125
0.002,-0.032,0.022,-7.7,9.4,0.3,0,2018,5,17,20,40,6.886,0.5161,0.1716,-0.4413,0.7136
0,0.021,0.028,-6.6,8.6,-0.3,0,2018,5,17,20,40,6.908,0.5163,0.1717,-0.4393,0.7147
-0.008,0.011,0.023,-6.7,4.2,-2.1,0,2018,5,17,20,40,6.925,0.5165,0.1715,-0.4377,0.7156
0.006,0.011,-0.007,-8.5,2.8,-4.1,0,2018,5,17,20,40,6.961,0.5165,0.1707,-0.4366,0.7164
0.016,0.006,-0.002,-8.9,4.1,-5.2,0,2018,5,17,20,40,6.983,0.5163,0.1696,-0.4356,0.7174
0.007,-0.024,0.018,-8,5.5,-5.6,0,2018,5,17,20,40,6.988,0.516,0.1686,-0.4344,0.7186
0.002,-0.033,0.021,-6.9,8.4,-5.4,0,2018,5,17,20,40,7.035,0.5154,0.1677,-0.4331,0.72
0.023,0.061,-0.057,-11,6.7,-5.5,0,2018,5,17,20,40,7.035,0.5152,0.167,-0.4315,0.7214
0.058,0.053,-0.006,-12.7,0.9,-6.1,0,2018,5,17,20,40,7.057,0.5153,0.1656,-0.4297,0.7226
0.039,-0.065,0.041,-6.7,-2.9,-3.6,0,2018,5,17,20,40,7.07,0.5154,0.1635,-0.4289,0.7235
0.023,-0.043,-0.019,-1.4,1.5,0.5,0,2018,5,17,20,40,7.085,0.5152,0.1623,-0.4289,0.724
0.037,0.006,-0.016,-0.4,4.7,2.2,0,2018,5,17,20,40,7.107,0.5151,0.1625,-0.4285,0.7242
0.034,-0.001,0.029,2.9,2.8,3.6,0,2018,5,17,20,40,7.125,0.5152,0.1632,-0.4279,0.7244
0,-0.019,0.018,7.1,2.1,4.4,0,2018,5,17,20,40,7.148,0.5151,0.1643,-0.4279,0.7242
0.001,0.017,-0.018,6.2,2.8,3.3,0,2018,5,17,20,40,7.166,0.515,0.1656,-0.428,0.7239
0.019,0.054,0,3.7,-0.8,1.3,0,2018,5,17,20,40,7.189,0.515,0.1667,-0.4278,0.7237
0.009,0,0.02,4.4,-4.8,0.1,1023,2018,5,17,20,40,7.206,0.5148,0.167,-0.4283,0.7235
-0.002,-0.019,0,5.9,-4,0.3,1023,2018,5,17,20,40,7.23,0.5145,0.1672,-0.4294,0.7231
0.012,0.012,-0.015,4.7,-3.1,0.4,1023,2018,5,17,20,40,7.247,0.514,0.1678,-0.4304,0.7226
0.016,0.011,-0.004,4.2,-4.5,0.3,1023,2018,5,17,20,40,7.27,0.5138,0.1681,-0.4312,0.7222
0.009,-0.016,-0.01,4,-4.6,0.3,1023,2018,5,17,20,40,7.307,0.5135,0.1682,-0.4322,0.7218
0.01,-0.009,-0.033,2.5,-2,1.1,1023,2018,5,17,20,40,7.33,0.5131,0.1685,-0.4333,0.7214
0.012,-0.01,-0.015,0.7,1.1,1.4,1023,2018,5,17,20,40,7.335,0.5129,0.1688,-0.4337,0.7212
0.016,0.001,0.001,0.3,2,1.4,1023,2018,5,17,20,40,7.368,0.513,0.169,-0.4334,0.7213
0.014,0.018,0.001,0,-1.9,0.7,1023,2018,5,17,20,40,7.368,0.5131,0.1693,-0.4331,0.7213
0,-0.018,-0.006,-0.5,-2.5,0.6,1023,2018,5,17,20,40,7.39,0.5132,0.169,-0.4334,0.7212
0.016,0.02,-0.028,-2.2,0.2,0,1023,2018,5,17,20,40,7.407,0.5131,0.1689,-0.4335,0.7211
0.015,-0.009,0.007,-2.2,0.2,0.3,1023,2018,5,17,20,40,7.428,0.5132,0.1687,-0.4332,0.7213
0.012,0.004,0.015,0,-1.1,0.3,1023,2018,5,17,20,40,7.466,0.5132,0.1686,-0.4331,0.7214
0.003,0.002,0,0,-2.2,0,0,2018,5,17,20,40,7.489,0.5131,0.1686,-0.4334,0.7213
0.008,0.001,-0.011,-0.7,-1.8,-0.8,0,2018,5,17,20,40,7.494,0.513,0.1684,-0.4337,0.7213
0.022,0.001,-0.018,-2.1,-1.4,-0.3,0,2018,5,17,20,40,7.511,0.513,0.168,-0.4338,0.7213
0.01,-0.015,0.003,-0.6,0.2,0.3,0,2018,5,17,20,40,7.547,0.513,0.1676,-0.4337,0.7215
0.006,0,-0.006,-0.5,1.1,0.3,0,2018,5,17,20,40,7.567,0.5129,0.1675,-0.4335,0.7216
0.014,0.011,-0.005,-0.5,0.8,-0.1,0,2018,5,17,20,40,7.571,0.5128,0.1676,-0.4333,0.7218
0.023,0.009,-0.016,-0.8,0.2,0,0,2018,5,17,20,40,7.608,0.5127,0.1676,-0.4332,0.7219
0.015,-0.019,0,0.5,1.5,1,0,2018,5,17,20,40,7.608,0.5126,0.1677,-0.4332,0.722
0.009,-0.001,0.005,2.1,2.7,1.6,0,2018,5,17,20,40,7.629,0.5124,0.1681,-0.433,0.7222
0.012,0.023,0.002,2.2,1.3,0.9,0,2018,5,17,20,40,7.667,0.5123,0.1688,-0.4327,0.7222
0.022,0.011,-0.02,1.4,-0.2,0.7,0,2018,5,17,20,40,7.69,0.5121,0.1693,-0.4329,0.7222
0.009,-0.025,0.009,3,1,2.1,0,2018,5,17,20,40,7.695,0.5119,0.1695,-0.433,0.7221
0.005,-0.004,-0.008,3.6,3.3,2.5,0,2018,5,17,20,40,7.71,0.5117,0.1703,-0.433,0.7221
0.019,0.041,-0.016,2.8,2.2,2.3,0,2018,5,17,20,40,7.733,0.5116,0.1713,-0.4328,0.7221
0.014,-0.005,-0.01,2.7,0.2,2.2,0,2018,5,17,20,40,7.75,0.5116,0.172,-0.4328,0.722
0.015,-0.023,-0.005,3.3,2,3.6,0,2018,5,17,20,40,7.773,0.5115,0.1726,-0.4329,0.7218
0.005,-0.006,-0.003,4.2,4.1,4.1,0,2018,5,17,20,40,7.792,0.5113,0.1737,-0.4329,0.7216
0.022,0.035,-0.028,3.3,3.9,4,0,2018,5,17,20,40,7.815,0.5113,0.1751,-0.4326,0.7215
0.019,0.003,-0.002,3.3,1.6,4.9,1023,2018,5,17,20,40,7.83,0.5115,0.1762,-0.4322,0.7213
0.006,-0.047,0.01,5.6,3.8,6.7,1023,2018,5,17,20,40,7.87,0.5116,0.1771,-0.4322,0.7211
0.005,0,-0.012,6.6,6.8,7.5,1023,2018,5,17,20,40,7.87,0.5116,0.179,-0.432,0.7207
0.003,0.02,-0.005,4.9,5.4,6.9,1023,2018,5,17,20,40,7.892,0.5117,0.1811,-0.4315,0.7204
0.004,0.005,0.005,4.6,3.1,6.5,1023,2018,5,17,20,40,7.91,0.512,0.1828,-0.4311,0.72
-0.003,-0.001,0.001,5.8,1.4,5.9,1023,2018,5,17,20,40,7.933,0.5122,0.1842,-0.4311,0.7195
0.004,0.035,-0.013,3.1,2,4.2,1023,2018,5,17,20,40,7.952,0.5124,0.1856,-0.431,0.7191
0.011,0.019,0.01,1.3,-0.1,2.4,1023,2018,5,17,20,40,7.975,0.5125,0.1865,-0.4309,0.7188
0.002,-0.006,0.004,2,-1.1,1.4,1023,2018,5,17,20,40,7.994,0.5125,0.1868,-0.431,0.7186
-0.001,0.006,-0.004,1.7,0,0.4,1023,2018,5,17,20,40,8.017,0.5124,0.1871,-0.4313,0.7185
0.015,0.023,-0.016,-0.3,-0.5,-0.7,1023,2018,5,17,20,40,8.036,0.5123,0.1873,-0.4312,0.7185
0.012,-0.009,-0.004,-0.5,-1,-0.8,1023,2018,5,17,20,40,8.073,0.5122,0.187,-0.4313,0.7187
0.011,-0.004,-0.001,0,0,-0.5,1023,2018,5,17,20,40,8.096,0.512,0.1868,-0.4313,0.7188
-0.004,-0.003,0.002,-0.5,-0.2,-0.9,0,2018,5,17,20,40,8.1,0.5119,0.1867,-0.4312,0.719
0.014,0.02,-0.023,-2.1,-0.4,-1.2,0,2018,5,17,20,40,8.116,0.5117,0.1866,-0.4312,0.7192
0.014,-0.006,0.006,-1.6,-1.1,-0.9,0,2018,5,17,20,40,8.14,0.5117,0.1862,-0.431,0.7194
0.005,-0.008,0.003,-0.2,-0.7,-0.7,0,2018,5,17,20,40,8.155,0.5116,0.1859,-0.431,0.7196
0,0.002,0.001,-0.4,-0.8,-1.1,0,2018,5,17,20,40,8.173,0.5115,0.1857,-0.431,0.7197
0.009,0.009,-0.008,-0.9,-1.1,-1.7,0,2018,5,17,20,40,8.196,0.5113,0.1855,-0.431,0.7199
0.014,0.007,-0.024,-1.5,-1.3,-1.4,0,2018,5,17,20,40,8.214,0.5111,0.1852,-0.4311,0.72
0.013,-0.016,0.007,-1,-1,-1,0,2018,5,17,20,40,8.237,0.5108,0.185,-0.4313,0.7202
0.004,-0.009,-0.003,0,0,-0.5,0,2018,5,17,20,40,8.255,0.5107,0.1847,-0.4313,0.7203
0.005,0.01,-0.002,0,0.2,-0.8,0,2018,5,17,20,40,8.278,0.5104,0.1848,-0.4313,0.7205
0.021,0.011,-0.017,-0.8,-0.6,-1,0,2018,5,17,20,40,8.296,0.5102,0.1848,-0.4314,0.7206
0.013,-0.004,0.004,0.6,-0.8,-0.3,0,2018,5,17,20,40,8.317,0.51,0.1846,-0.4315,0.7207
0.006,0.006,-0.002,0.8,-0.4,-0.1,0,2018,5,17,20,40,8.333,0.5098,0.1847,-0.4316,0.7208
0.006,0.005,-0.007,0.3,-0.8,-0.7,0,2018,5,17,20,40,8.357,0.5096,0.1848,-0.4318,0.7208
0.011,-0.003,-0.007,0,-0.9,-0.7,0,2018,5,17,20,40,8.376,0.5095,0.1846,-0.4318,0.7209
0.007,0.001,-0.007,0.5,0.1,-0.2,0,2018,5,17,20,40,8.414,0.5094,0.1844,-0.4318,0.721
0.007,0.01,-0.001,0,0,0,0,2018,5,17,20,40,8.435,0.5095,0.1844,-0.4315,0.7212
0.007,-0.004,-0.008,0,-0.7,-0.3,0,2018,5,17,20,40,8.439,0.5093,0.1843,-0.4316,0.7212
0.008,0,-0.008,0,0,0,0,2018,5,17,20,40,8.456,0.5093,0.1842,-0.4315,0.7213
0.009,0.005,-0.008,-0.8,-0.5,-0.3,1023,2018,5,17,20,40,8.479,0.5093,0.184,-0.4314,0.7214
0.009,0.002,-0.008,-0.8,0,-0.1,1023,2018,5,17,20,40,8.515,0.5092,0.1839,-0.4313,0.7216
0.011,0.003,0.001,-0.5,-0.1,-0.2,1023,2018,5,17,20,40,8.539,0.5091,0.1839,-0.4313,0.7217
0.011,0.005,-0.006,0,0,0,1023,2018,5,17,20,40,8.543,0.5092,0.1837,-0.431,0.7218
0.008,-0.005,-0.001,0.4,-0.5,0,1023,2018,5,17,20,40,8.56,0.509,0.1837,-0.4311,0.7219
0.009,-0.002,-0.007,0,0,0,1023,2018,5,17,20,40,8.578,0.5089,0.1836,-0.4311,0.722
0.014,0.016,-0.013,0,0,0,1023,2018,5,17,20,40,8.6,0.5088,0.1837,-0.431,0.7221
0.009,-0.001,0,0,-0.5,0,1023,2018,5,17,20,40,8.617,0.5089,0.1836,-0.4307,0.7222
0.003,-0.006,-0.003,0,0,0,1023,2018,5,17,20,40,8.64,0.5089,0.1834,-0.4306,0.7224
0.009,0.006,-0.005,0,0.5,0.2,1023,2018,5,17,20,40,8.658,0.5089,0.1833,-0.4305,0.7225
0.01,0.01,-0.006,0,0,0,1023,2018,5,17,20,40,8.696,0.5089,0.1832,-0.4302,0.7226
0.008,-0.003,-0.006,0,0,0,1023,2018,5,17,20,40,8.718,0.5088,0.1833,-0.4303,0.7226
0.01,-0.004,-0.002,-0.1,0.9,0.3,0,2018,5,17,20,40,8.722,0.5086,0.1834,-0.4303,0.7227
0.013,0.021,-0.007,-0.2,0.6,0.2,0,2018,5,17,20,40,8.74,0.5085,0.1836,-0.4302,0.7228
0.007,0,0.002,0.1,-0.6,-0.2,0,2018,5,17,20,40,8.759,0.5085,0.1835,-0.43,0.7229
0.002,0,-0.005,0.1,-0.6,-0.3,0,2018,5,17,20,40,8.781,0.5083,0.1836,-0.4302,0.7229
0.002,0.013,-0.008,-0.5,-1.1,-0.5,0,2018,5,17,20,40,8.799,0.5082,0.1836,-0.4303,0.723
0.016,0.003,-0.013,-0.9,-0.8,-0.5,0,2018,5,17,20,40,8.822,0.508,0.1836,-0.4305,0.723
0.007,-0.015,-0.004,0,0.8,0.2,0,2018,5,17,20,40,8.841,0.5077,0.1836,-0.4306,0.7231
0.005,0.002,-0.011,0,1.6,0.5,0,2018,5,17,20,40,8.864,0.5076,0.1837,-0.4305,0.7232
0.002,0.01,0,-0.3,1.1,0,0,2018,5,17,20,40,8.88,0.5075,0.184,-0.4302,0.7234
0.017,0.017,-0.025,-2.1,0,-0.4,0,2018,5,17,20,40,8.898,0.5074,0.1841,-0.4301,0.7235
0.009,-0.014,0,-2.3,0.7,0,0,2018,5,17,20,40,8.921,0.5073,0.1839,-0.43,0.7237
0.003,0.003,0,-1.6,1.4,0.5,0,2018,5,17,20,40,8.941,0.5072,0.184,-0.4298,0.7239
0.004,0,0,-0.8,1.1,0.4,0,2018,5,17,20,40,8.961,0.5071,0.1841,-0.4296,0.724
0.008,0.007,-0.006,-0.4,0.8,-0.2,0,2018,5,17,20,40,8.999,0.5069,0.1843,-0.4295,0.7242
0.014,0.025,-0.017,-1.1,0.3,-0.4,0,2018,5,17,20,40,9.023,0.5067,0.1845,-0.4295,0.7243
0.009,-0.008,0,-0.8,-0.4,-0.3,0,2018,5,17,20,40,9.026,0.5066,0.1844,-0.4294,0.7244
0.008,-0.008,-0.009,-0.5,1,0.4,0,2018,5,17,20,40,9.042,0.5064,0.1844,-0.4294,0.7245
0.01,0.006,0,0.5,1.9,0.7,0,2018,5,17,20,40,9.065,0.5063,0.1846,-0.4292,0.7247
0.012,0.021,-0.015,0.3,0.5,0.2,0,2018,5,17,20,40,9.082,0.5062,0.1849,-0.429,0.7248
0.009,0.001,0.004,0,0,0,1023,2018,5,17,20,40,9.101,0.5063,0.1848,-0.4287,0.7249
0.002,0.005,-0.005,0.5,-0.2,-0.2,1023,2018,5,17,20,40,9.12,0.5062,0.1848,-0.4287,0.725
0,0.007,-0.001,0,-0.7,-0.8,1023,2018,5,17,20,40,9.143,0.5061,0.1848,-0.4287,0.7251
0.006,0.004,-0.007,-0.2,-1.3,-1.3,1023,2018,5,17,20,40,9.161,0.506,0.1846,-0.4287,0.7252
0.011,0.004,-0.008,-0.4,-1.5,-1.3,1023,2018,5,17,20,40,9.185,0.5058,0.1844,-0.4289,0.7253
0.009,0.004,-0.006,-0.2,-1.9,-1.1,1023,2018,5,17,20,40,9.204,0.5056,0.1842,-0.4292,0.7253
0.004,-0.004,-0.009,-0.2,-1.3,-0.4,1023,2018,5,17,20,40,9.223,0.5053,0.1841,-0.4296,0.7253
0.008,0,-0.009,-0.2,-0.1,-0.5,1023,2018,5,17,20,40,9.246,0.5051,0.184,-0.4297,0.7254
0.007,0.006,-0.007,-0.4,-0.1,-0.5,1023,2018,5,17,20,40,9.262,0.5051,0.1839,-0.4296,0.7255
0.009,0.009,-0.008,0,0,0,1023,2018,5,17,20,40,9.285,0.5051,0.1838,-0.4295,0.7256
0.003,0.002,0,0,-1,-0.5,1023,2018,5,17,20,40,9.303,0.505,0.1837,-0.4294,0.7257
0.008,0.004,-0.007,0,-1,-0.7,1023,2018,5,17,20,40,9.326,0.5048,0.1836,-0.4295,0.7258
0.002,0.003,-0.004,0,-0.9,-0.8,0,2018,5,17,20,40,9.362,0.5048,0.1834,-0.4295,0.7259
0.011,0.007,-0.01,-0.8,-0.8,-1,0,2018,5,17,20,40,9.362,0.5046,0.1833,-0.4295,0.726
0.009,0.003,-0.002,-1,-0.9,-0.8,0,2018,5,17,20,40,9.384,0.5045,0.183,-0.4296,0.7261
0.003,-0.006,-0.004,-0.3,-0.7,-0.3,0,2018,5,17,20,40,9.42,0.5045,0.1828,-0.4296,0.7262
0.004,0,0,-0.5,-0.5,-0.4,0,2018,5,17,20,40,9.442,0.5045,0.1826,-0.4294,0.7263
0.007,0.003,-0.006,-0.7,-0.8,-0.5,0,2018,5,17,20,40,9.447,0.5044,0.1825,-0.4295,0.7264
0.018,0.009,-0.013,-1,-1,-0.6,0,2018,5,17,20,40,9.462,0.5042,0.1825,-0.4296,0.7265
0.009,0.003,-0.008,-0.5,-0.7,-0.3,0,2018,5,17,20,40,9.486,0.504,0.1824,-0.4297,0.7265
0.008,-0.001,-0.003,-0.3,-0.5,-0.2,0,2018,5,17,20,40,9.504,0.5039,0.1823,-0.4298,0.7266
0.006,-0.003,0.002,0,0,0,0,2018,5,17,20,40,9.526,0.5039,0.1821,-0.4296,0.7267
0.008,0.012,-0.01,0.6,-0.7,-0.2,0,2018,5,17,20,40,9.563,0.5039,0.1821,-0.4296,0.7268
0.008,0.004,-0.013,0,-1.3,-0.5,0,2018,5,17,20,40,9.563,0.5037,0.1821,-0.4297,0.7268
0.005,-0.004,-0.006,-0.1,-0.5,-0.2,0,2018,5,17,20,40,9.586,0.5035,0.1821,-0.43,0.7268
0.005,0.001,-0.003,0,0,0,0,2018,5,17,20,40,9.604,0.5035,0.1819,-0.4298,0.7269
0.004,0.011,-0.004,0,0,0,0,2018,5,17,20,40,9.623,0.5035,0.1819,-0.4296,0.7271
0.007,0.01,-0.011,-0.7,-0.5,-0.5,0,2018,5,17,20,40,9.646,0.5034,0.1818,-0.4295,0.7272
0.012,0.007,-0.007,-0.7,-0.8,-0.3,0,2018,5,17,20,40,9.682,0.5034,0.1816,-0.4295,0.7273
0.009,-0.003,-0.001,-0.5,-0.5,-0.3,0,2018,5,17,20,40,9.705,0.5032,0.1816,-0.4297,0.7273
0.007,0,-0.003,0,0,0,0,2018,5,17,20,40,9.709,0.5031,0.1816,-0.4297,0.7274
0.01,0.003,-0.013,0,0,0,0,2018,5,17,20,40,9.728,0.5031,0.1814,-0.4294,0.7276
0.013,0.007,-0.002,0,0,0,1023,2018,5,17,20,40,9.766,0.5032,0.1813,-0.4292,0.7277
0.01,0,-0.008,0.3,-1,0,1023,2018,5,17,20,40,9.766,0.5031,0.1813,-0.4293,0.7277
0.001,-0.005,-0.005,0.3,-0.6,0.2,1023,2018,5,17,20,40,9.79,0.5029,0.1814,-0.4296,0.7277
0.001,0.01,-0.011,0,0,0,1023,2018,5,17,20,40,9.805,0.5029,0.1813,-0.4295,0.7277
0.009,0.001,-0.01,0,0,0,1023,2018,5,17,20,40,9.823,0.5029,0.1813,-0.4294,0.7278
0.009,0.001,-0.005,0,0,0,1023,2018,5,17,20,40,9.845,0.5029,0.1811,-0.4292,0.7279
0.004,0.002,-0.009,0.5,-0.2,0.2,1023,2018,5,17,20,40,9.882,0.5029,0.1812,-0.4292,0.7279
0.008,0.003,-0.004,0,0,0,1023,2018,5,17,20,40,9.903,0.5027,0.1813,-0.4293,0.728
0.009,0.008,-0.01,0,0,0,1023,2018,5,17,20,40,9.907,0.5028,0.1812,-0.4291,0.7281
0.007,0.007,-0.007,-0.5,0,-0.3,1023,2018,5,17,20,40,9.942,0.5028,0.181,-0.4289,0.7282
0.006,0,-0.003,0,0,0,1023,2018,5,17,20,40,9.964,0.5028,0.1809,-0.4287,0.7283
0.006,-0.002,-0.002,0,-0.7,-0.5,1023,2018,5,17,20,40,9.967,0.5028,0.1807,-0.4287,0.7284
0.004,0.005,-0.008,0.1,-0.6,-0.5,1023,2018,5,17,20,40,10.003,0.5026,0.1807,-0.4289,0.7285
0.011,0.008,-0.012,0,-0.6,-0.6,0,2018,5,17,20,40,10.025,0.5025,0.1806,-0.4289,0.7285
0.005,-0.002,-0.006,0,-0.5,-0.3,0,2018,5,17,20,40,10.03,0.5024,0.1805,-0.4289,0.7286
0.005,0.003,-0.004,0,0,0,0,2018,5,17,20,40,10.066,0.5024,0.1804,-0.4288,0.7287
0.004,0.001,-0.004,0,-0.7,-0.5,0,2018,5,17,20,40,10.089,0.5022,0.1804,-0.4289,0.7287
0.008,0.003,-0.009,0,-1,-0.8,0,2018,5,17,20,40,10.094,0.5021,0.1804,-0.429,0.7288
0.011,0.007,-0.006,0,-0.5,-0.5,0,2018,5,17,20,40,10.108,0.5018,0.1803,-0.4293,0.7288
0.007,0.002,-0.004,0.2,-0.6,-0.3,0,2018,5,17,20,40,10.127,0.5017,0.1804,-0.4293,0.7289
0.004,0.001,-0.011,0.2,-0.7,-0.2,0,2018,5,17,20,40,10.149,0.5014,0.1805,-0.4296,0.7289
0.008,0.003,-0.012,0,0,0,0,2018,5,17,20,40,10.185,0.5013,0.1805,-0.4297,0.7289
0.009,0.004,-0.001,0,0,0,0,2018,5,17,20,40,10.208,0.5013,0.1804,-0.4295,0.729
0.011,0,-0.007,0,-0.7,-0.1,0,2018,5,17,20,40,10.213,0.5012,0.1804,-0.4296,0.729
0.005,0.001,-0.008,0,-0.5,0,0,2018,5,17,20,40,10.229,0.5011,0.1804,-0.4298,0.729
0.007,0.005,-0.004,0,0,0,0,2018,5,17,20,40,10.252,0.501,0.1804,-0.4298,0.7291
0.01,0.003,-0.004,0,0,0,0,2018,5,17,20,40,10.269,0.5009,0.1804,-0.4298,0.7292
0.009,0.007,-0.007,0,0,0,0,2018,5,17,20,40,10.292,0.5009,0.1803,-0.4297,0.7293
0.004,0,-0.004,0.2,-0.7,-0.1,0,2018,5,17,20,40,10.31,0.5007,0.1804,-0.4298,0.7293
0.006,0,0,0.3,-0.6,0,0,2018,5,17,20,40,10.329,0.5005,0.1805,-0.4301,0.7293
0.007,0.002,-0.007,0.5,-0.5,0,0,2018,5,17,20,40,10.352,0.5002,0.1807,-0.4303,0.7292
0.013,0.002,-0.005,0.5,-0.7,0,0,2018,5,17,20,40,10.368,0.5001,0.1808,-0.4305,0.7292
0.006,0,-0.007,0.7,-0.1,0.1,0,2018,5,17,20,40,10.391,0.5,0.1807,-0.4306,0.7292
0.007,0.006,-0.009,0,0,0,1023,2018,5,17,20,40,10.41,0.4999,0.1809,-0.4306,0.7292
0.013,0.007,-0.013,0,0,0,1023,2018,5,17,20,40,10.434,0.5,0.1808,-0.4304,0.7293
0.009,-0.002,-0.004,-0.1,-0.5,-0.3,1023,2018,5,17,20,40,10.451,0.4999,0.1807,-0.4304,0.7294
0.006,-0.004,-0.009,-0.2,-0.8,-0.3,1023,2018,5,17,20,40,10.475,0.4998,0.1807,-0.4305,0.7294
0.002,0.005,-0.004,-0.5,-1.5,-0.5,1023,2018,5,17,20,40,10.51,0.4997,0.1806,-0.4305,0.7295
0.008,0.001,-0.019,-1.4,-1.1,-0.5,1023,2018,5,17,20,40,10.51,0.4996,0.1804,-0.4307,0.7295
0.011,0,-0.005,-1,0,-0.1,1023,2018,5,17,20,40,10.533,0.4995,0.1802,-0.4308,0.7296
0.006,0.006,0,-0.6,0.3,0,1023,2018,5,17,20,40,10.571,0.4995,0.1801,-0.4306,0.7297
0.002,0.001,-0.002,-0.9,0,-0.2,1023,2018,5,17,20,40,10.594,0.4995,0.1801,-0.4305,0.7298
0.009,0.013,-0.013,-1.4,-0.6,-0.8,1023,2018,5,17,20,40,10.599,0.4993,0.1801,-0.4305,0.7299
0.014,-0.006,0,-0.9,-0.6,-0.2,1023,2018,5,17,20,40,10.613,0.4992,0.1799,-0.4306,0.73
0.007,-0.001,-0.011,0,0,0,1023,2018,5,17,20,40,10.649,0.4991,0.1798,-0.4305,0.7301
0.005,0.005,0,0,0,0,1023,2018,5,17,20,40,10.673,0.4991,0.1797,-0.4304,0.7302
0.008,0.01,-0.007,0,-0.5,0,0,2018,5,17,20,40,10.677,0.4992,0.1796,-0.4302,0.7303
0.01,0.001,-0.006,0.2,-0.8,0,0,2018,5,17,20,40,10.692,0.4991,0.1796,-0.4303,0.7303
0.006,-0.003,-0.009,0,0,0,0,2018,5,17,20,40,10.714,0.499,0.1795,-0.4303,0.7303
0.003,0.003,-0.007,0,0,0,0,2018,5,17,20,40,10.733,0.4991,0.1794,-0.4302,0.7304
0.007,0.007,-0.008,0,0,0,0,2018,5,17,20,40,10.756,0.4991,0.1793,-0.43,0.7305
0.01,0.006,-0.005,0,0,0,0,2018,5,17,20,40,10.775,0.4992,0.1792,-0.4298,0.7307
0.006,0,-0.011,0.3,-0.5,0.2,0,2018,5,17,20,40,10.798,0.4991,0.1792,-0.4298,0.7307
0.005,0.003,-0.005,0,0,0,0,2018,5,17,20,40,10.813,0.4991,0.1792,-0.4297,0.7307
0.011,0.013,-0.015,0,0,0,0,2018,5,17,20,40,10.832,0.4991,0.1791,-0.4295,0.7308
0.006,-0.004,-0.007,-0.2,-0.5,0,0,2018,5,17,20,40,10.855,0.4991,0.179,-0.4296,0.7309
0.004,-0.001,-0.001,0,0,0,0,2018,5,17,20,40,10.894,0.4991,0.1789,-0.4294,0.731
0.006,0,-0.005,0,0.5,0.5,0,2018,5,17,20,40,10.896,0.499,0.1791,-0.4295,0.731
0.005,0.009,-0.006,-0.2,0.5,0.5,0,2018,5,17,20,40,10.913,0.4989,0.1793,-0.4295,0.731
0.003,0.006,-0.007,-0.5,0.1,0.4,0,2018,5,17,20,40,10.935,0.4989,0.1794,-0.4294,0.731
0.009,0.007,-0.003,0,0,0,0,2018,5,17,20,40,10.971,0.4989,0.1794,-0.4292,0.7311
0.005,0.001,-0.007,0,0,0,0,2018,5,17,20,40,10.993,0.499,0.1793,-0.4291,0.7312
0.005,0.004,-0.007,0,0,0,0,2018,5,17,20,40,10.998,0.499,0.1791,-0.4289,0.7313
0.012,0.007,-0.001,0,0,0,0,2018,5,17,20,40,11.015,0.499,0.1791,-0.4287,0.7314
0.008,-0.003,-0.01,0,0,0,0,2018,5,17,20,40,11.038,0.499,0.1789,-0.4286,0.7315
0.005,0.004,-0.002,0.3,0.4,0.5,0,2018,5,17,20,40,11.053,0.4989,0.1791,-0.4287,0.7315
0.001,0.008,-0.008,0,0,0,1023,2018,5,17,20,40,11.077,0.4989,0.1792,-0.4286,0.7315
0.007,0.012,-0.009,0,0,0,1023,2018,5,17,20,40,11.095,0.4988,0.1793,-0.4286,0.7315
0.005,0.003,-0.006,-0.3,-1,-0.2,1023,2018,5,17,20,40,11.133,0.4987,0.1793,-0.4288,0.7315
0.005,-0.003,-0.002,0.1,-0.6,-0.1,1023,2018,5,17,20,40,11.156,0.4986,0.1793,-0.429,0.7315
0.003,0.002,-0.008,0,0,0,1023,2018,5,17,20,40,11.161,0.4986,0.1792,-0.4289,0.7316
0.008,0.004,-0.005,0,0,0,1023,2018,5,17,20,40,11.174,0.4986,0.1791,-0.4287,0.7317
0.008,0.003,-0.012,0,0,0,1023,2018,5,17,20,40,11.198,0.4987,0.179,-0.4286,0.7317
0.003,-0.003,-0.005,0,0,0,1023,2018,5,17,20,40,11.218,0.4987,0.1789,-0.4285,0.7318
0.005,0.01,-0.005,0,0,0,1023,2018,5,17,20,40,11.24,0.4987,0.1788,-0.4283,0.7319
0.011,0.013,-0.006,-0.3,-0.6,-0.2,1023,2018,5,17,20,40,11.257,0.4987,0.1788,-0.4283,0.7319
0.008,0.006,-0.009,-0.4,-0.8,-0.3,1023,2018,5,17,20,40,11.28,0.4985,0.1789,-0.4285,0.7319
0.006,-0.001,-0.005,-0.5,-0.4,0,1023,2018,5,17,20,40,11.298,0.4983,0.1789,-0.4288,0.7319
0.009,0.003,-0.003,0,0,0,1023,2018,5,17,20,40,11.321,0.4983,0.1788,-0.4287,0.732
0.005,0.005,-0.008,0,0,0,0,2018,5,17,20,40,11.337,0.4983,0.1788,-0.4287,0.732
0.007,0.003,-0.006,-0.7,-0.7,-0.3,0,2018,5,17,20,40,11.374,0.4982,0.1788,-0.4287,0.732
0.002,-0.001,-0.009,-0.7,-0.4,-0.2,0,2018,5,17,20,40,11.397,0.4981,0.1787,-0.4289,0.732
0.005,0.009,-0.004,0,0,0,0,2018,5,17,20,40,11.402,0.498,0.1787,-0.4288,0.7321
0.01,0.004,0.002,0,-0.5,-0.1,0,2018,5,17,20,40,11.421,0.498,0.1786,-0.4287,0.7322
0.009,0.004,-0.013,0.2,-0.6,-0.2,0,2018,5,17,20,40,11.439,0.4978,0.1787,-0.4289,0.7322
0.009,0.003,-0.002,0,0,0,0,2018,5,17,20,40,11.462,0.4977,0.1788,-0.429,0.7322
0.007,-0.001,-0.007,0,0,0,0,2018,5,17,20,40,11.481,0.4976,0.1788,-0.4292,0.7322
0.006,0.002,-0.006,0,0,0,0,2018,5,17,20,40,11.5,0.4975,0.1787,-0.4291,0.7323
0.004,0.014,-0.009,-0.2,-0.4,-0.5,0,2018,5,17,20,40,11.523,0.4975,0.1787,-0.429,0.7323
0.006,0,-0.008,-0.2,-1,-0.3,0,2018,5,17,20,40,11.539,0.4975,0.1785,-0.429,0.7324
0.004,-0.001,-0.008,0,0,0,0,2018,5,17,20,40,11.562,0.4975,0.1785,-0.429,0.7324
0.006,0.007,-0.006,0,0,0,0,2018,5,17,20,40,11.579,0.4975,0.1784,-0.4289,0.7325
0.013,0.007,-0.01,0,0,0,0,2018,5,17,20,40,11.615,0.4975,0.1783,-0.4288,0.7325
0.009,-0.001,-0.002,0,0,0,0,2018,5,17,20,40,11.638,0.4975,0.1782,-0.4287,0.7326
0.007,0.002,-0.006,0,0,0,0,2018,5,17,20,40,11.643,0.4975,0.1781,-0.4286,0.7327
0.003,0.009,-0.004,0,0,0,0,2018,5,17,20,40,11.659,0.4976,0.178,-0.4284,0.7328
0.006,0.004,-0.01,0,0,0,0,2018,5,17,20,40,11.682,0.4976,0.1779,-0.4282,0.7329
0.006,0.002,-0.006,0,0,0,0,2018,5,17,20,40,11.7,0.4977,0.1779,-0.4281,0.733
0.008,0.005,-0.005,0,0,0,0,2018,5,17,20,40,11.722,0.4977,0.1778,-0.428,0.733
0.003,-0.004,-0.001,0,0,0,1023,2018,5,17,20,40,11.759,0.4977,0.1776,-0.4278,0.7331
0.003,0.006,-0.006,0,0,0,1023,2018,5,17,20,40,11.782,0.4977,0.1776,-0.4278,0.7332
0.005,0.011,-0.012,0,0,0,1023,2018,5,17,20,40,11.786,0.4977,0.1776,-0.4276,0.7332
0.007,0.002,-0.006,0,0,0,1023,2018,5,17,20,40,11.801,0.4978,0.1775,-0.4275,0.7333
0.006,0.003,-0.012,0,0,0,1023,2018,5,17,20,40,11.837,0.4978,0.1775,-0.4274,0.7334
0.008,0.004,-0.008,0,0,0,1023,2018,5,17,20,40,11.859,0.4978,0.1774,-0.4273,0.7334
0.008,0.007,-0.009,0,0.6,0.2,1023,2018,5,17,20,40,11.864,0.4978,0.1774,-0.4273,0.7335
0.003,0,0,0,0,0,1023,2018,5,17,20,40,11.881,0.4977,0.1775,-0.4273,0.7335
0.009,0.009,-0.01,0,0,0,1023,2018,5,17,20,40,11.905,0.4977,0.1775,-0.4271,0.7336
0.008,-0.002,-0.003,0,0,0,1023,2018,5,17,20,40,11.922,0.4977,0.1774,-0.427,0.7337
0.006,0.004,-0.009,0,0.3,0.5,1023,2018,5,17,20,40,11.945,0.4977,0.1774,-0.427,0.7337
0.007,0.007,-0.003,0,0,0,1023,2018,5,17,20,40,11.962,0.4977,0.1775,-0.4269,0.7337
0.012,0.002,-0.005,-0.5,0.3,0.3,1023,2018,5,17,20,40,11.985,0.4977,0.1774,-0.4269,0.7338
0.006,0.004,0,0,0.4,0.5,1023,2018,5,17,20,40,12.003,0.4976,0.1775,-0.4268,0.7338
0.005,0.006,-0.003,0,0,0,0,2018,5,17,20,40,12.026,0.4976,0.1776,-0.4267,0.7339
0.006,0.005,-0.009,0,0,0,0,2018,5,17,20,40,12.046,0.4977,0.1775,-0.4266,0.7339
0.011,0.004,-0.009,0,0,0,0,2018,5,17,20,40,12.082,0.4977,0.1775,-0.4265,0.734
0.009,0.004,-0.004,0,0,0,0,2018,5,17,20,40,12.082,0.4977,0.1774,-0.4264,0.734
0.007,0.001,-0.001,0.5,-0.2,0.2,0,2018,5,17,20,40,12.105,0.4977,0.1774,-0.4263,0.7341
0.005,0.004,-0.005,0.6,-0.1,0.5,0,2018,5,17,20,40,12.141,0.4976,0.1776,-0.4265,0.734
0.009,0.003,-0.007,0,0,0,0,2018,5,17,20,40,12.164,0.4975,0.1777,-0.4266,0.734
0.011,0.009,-0.016,0,0,0,0,2018,5,17,20,40,12.168,0.4974,0.1778,-0.4266,0.734
0.006,-0.001,-0.007,0,0,0,0,2018,5,17,20,40,12.184,0.4974,0.1777,-0.4265,0.7341
0.003,0,-0.006,0,0,0,0,2018,5,17,20,40,12.207,0.4975,0.1776,-0.4264,0.7341
0.005,0.006,-0.011,0,0,0,0,2018,5,17,20,40,12.223,0.4975,0.1776,-0.4264,0.7342
0.009,0.013,-0.011,0,0,0,0,2018,5,17,20,40,12.246,0.4975,0.1775,-0.4262,0.7342
0.006,0.003,-0.007,0,0,0,0,2018,5,17,20,40,12.264,0.4975,0.1775,-0.4262,0.7343
0.006,0.004,-0.001,0,0,0,0,2018,5,17,20,40,12.287,0.4976,0.1774,-0.426,0.7343
0.006,0.008,-0.005,0,0,0,0,2018,5,17,20,40,12.303,0.4976,0.1774,-0.4259,0.7344
0.01,0.005,-0.003,0,0,0,0,2018,5,17,20,40,12.326,0.4977,0.1773,-0.4258,0.7344
0.01,0.005,-0.011,0,0,0,0,2018,5,17,20,40,12.342,0.4977,0.1772,-0.4257,0.7345
0.005,0.005,-0.006,0.2,0,0.5,0,2018,5,17,20,40,12.366,0.4976,0.1774,-0.4258,0.7345
0.003,0.001,-0.002,0.6,0,0.6,0,2018,5,17,20,40,12.402,0.4974,0.1777,-0.426,0.7344
0.005,0.001,-0.007,0,0,0,0,2018,5,17,20,40,12.425,0.4972,0.1781,-0.4263,0.7343
0.01,0.003,-0.009,0.2,-0.1,0.5,1023,2018,5,17,20,40,12.43,0.4972,0.1782,-0.4263,0.7343
0.007,0.001,-0.005,0.4,-0.1,0.6,1023,2018,5,17,20,40,12.444,0.497,0.1785,-0.4265,0.7342
0.001,0.01,-0.004,0,0,0,1023,2018,5,17,20,40,12.467,0.497,0.1786,-0.4265,0.7342
0.007,0.007,-0.004,0,-0.5,-0.2,1023,2018,5,17,20,40,12.502,0.497,0.1786,-0.4265,0.7342
0.009,0.002,-0.002,0,0,0,1023,2018,5,17,20,40,12.525,0.4969,0.1786,-0.4266,0.7342
0.006,0.005,-0.009,0,0,0,1023,2018,5,17,20,40,12.53,0.4968,0.1787,-0.4267,0.7342
0.008,0.007,-0.012,0,0,0,1023,2018,5,17,20,40,12.547,0.4968,0.1786,-0.4266,0.7342
0.005,0.001,-0.008,-0.5,-0.2,-0.1,1023,2018,5,17,20,40,12.583,0.4967,0.1786,-0.4266,0.7343
0.007,0,-0.008,0,0,0,1023,2018,5,17,20,40,12.605,0.4967,0.1785,-0.4266,0.7343
0.007,0.011,-0.013,-0.6,0.2,0,1023,2018,5,17,20,40,12.61,0.4967,0.1785,-0.4265,0.7344
0.006,0.008,-0.003,-0.7,0,-0.3,1023,2018,5,17,20,40,12.644,0.4966,0.1786,-0.4266,0.7344
0.009,0,-0.002,-0.5,-0.2,-0.3,1023,2018,5,17,20,40,12.667,0.4965,0.1786,-0.4266,0.7344
0.006,0.002,-0.001,0,0,0,1023,2018,5,17,20,40,12.672,0.4965,0.1786,-0.4265,0.7345
0.003,0.005,-0.003,-0.3,-0.6,-0.3,1023,2018,5,17,20,40,12.691,0.4965,0.1786,-0.4266,0.7345
0.004,0.005,-0.006,-0.6,-0.5,-0.5,0,2018,5,17,20,40,12.726,0.4963,0.1786,-0.4267,0.7345
0.005,0,-0.001,-0.7,-0.7,-0.3,0,2018,5,17,20,40,12.749,0.4961,0.1786,-0.4269,0.7345
0.002,0.005,-0.001,-0.2,-1,-0.4,0,2018,5,17,20,40,12.753,0.4958,0.1787,-0.4273,0.7345
0.005,0.006,0.002,-0.5,-2.4,-0.9,0,2018,5,17,20,40,12.769,0.4956,0.1787,-0.4276,0.7344
0.004,0.011,0.015,0,-5.9,-1.9,0,2018,5,17,20,40,12.792,0.4955,0.1783,-0.4282,0.7343
-0.001,0.009,-0.009,0.5,-10.1,-2.7,0,2018,5,17,20,40,12.807,0.4953,0.1776,-0.4293,0.7339
-0.005,0.006,0.013,1,-11.8,-3.2,0,2018,5,17,20,40,12.844,0.4952,0.1767,-0.4309,0.7333
-0.004,0.016,0.042,4.4,-16.8,-4.2,0,2018,5,17,20,40,12.867,0.4949,0.1754,-0.4328,0.7326
-0.016,0.043,0.02,6,-22.6,-6.4,0,2018,5,17,20,40,12.872,0.4945,0.1743,-0.4357,0.7315
0.007,0,0.023,8,-27.6,-8.9,0,2018,5,17,20,40,12.887,0.4937,0.1726,-0.4396,0.7301
0.004,0.025,0.051,12.7,-32.9,-10,0,2018,5,17,20,40,12.91,0.4926,0.1706,-0.4445,0.7284
0.012,0.06,0.036,16.1,-43.6,-13.1,0,2018,5,17,20,40,12.929,0.4912,0.1686,-0.4505,0.7261
-0.032,0.074,0.028,13,-65.7,-16.7,0,2018,5,17,20,40,12.952,0.4899,0.1653,-0.4585,0.7227
-0.019,0.104,0,8.4,-77.9,-27.7,0,2018,5,17,20,40,12.972,0.4886,0.1594,-0.4687,0.7183
0.028,0.035,-0.024,3.4,-87.1,-31,0,2018,5,17,20,40,12.99,0.4869,0.1509,-0.4801,0.7138
0.034,-0.037,-0.071,3.1,-84.1,-27.4,0,2018,5,17,20,40,13.012,0.4849,0.1415,-0.4923,0.7087
0.043,-0.079,-0.087,4.3,-69,-20.8,0,2018,5,17,20,40,13.031,0.4832,0.1328,-0.5033,0.7038
0.035,-0.106,-0.112,9.7,-35.4,-14.1,0,2018,5,17,20,40,13.049,0.4814,0.1279,-0.5108,0.7006
0.038,-0.053,-0.084,9.9,-13,-5,1023,2018,5,17,20,40,13.085,0.4797,0.1265,-0.5148,0.6991
0.026,-0.023,-0.082,6.6,-4.9,1.2,1023,2018,5,17,20,40,13.108,0.4784,0.1266,-0.5173,0.6981
0.038,-0.056,-0.061,3.9,5.5,8.6,1023,2018,5,17,20,40,13.113,0.4781,0.1273,-0.5181,0.6975
0.023,-0.057,-0.061,5.1,20.2,16,1023,2018,5,17,20,40,13.147,0.4784,0.1296,-0.5172,0.6976
0.019,-0.001,-0.046,3,29.9,19.9,1023,2018,5,17,20,40,13.17,0.4793,0.1338,-0.5144,0.6983
0.019,0.018,-0.016,1.6,32.7,21.9,1023,2018,5,17,20,40,13.175,0.4808,0.1388,-0.5104,0.6992
0.004,-0.006,0.002,4.3,32.2,22.4,1023,2018,5,17,20,40,13.19,0.4823,0.1439,-0.5062,0.7002
-0.011,0.023,-0.004,3.3,30.5,20.3,1023,2018,5,17,20,40,13.213,0.4837,0.1491,-0.5021,0.7011
-0.001,0.063,-0.005,-0.4,23.5,17.2,1023,2018,5,17,20,40,13.231,0.4853,0.1536,-0.4982,0.7017
-0.005,0.024,0.016,-1.7,18.1,14.6,1023,2018,5,17,20,40,13.255,0.4869,0.1569,-0.495,0.7022
0,0.044,-0.005,-3.8,12.8,12.4,1023,2018,5,17,20,40,13.273,0.4884,0.1594,-0.4924,0.7024
0.005,-0.007,-0.012,-5.9,11.3,11.9,1023,2018,5,17,20,40,13.293,0.49,0.1609,-0.4901,0.7026
0.007,-0.014,-0.016,-5.8,12.8,12.5,1023,2018,5,17,20,40,13.332,0.4915,0.1622,-0.488,0.7027
0.02,0.04,-0.021,-6.7,9.8,13.6,1023,2018,5,17,20,40,13.332,0.4932,0.1638,-0.4857,0.7028
0.001,0.023,0.042,-4.8,0.3,12,1023,2018,5,17,20,40,13.355,0.4951,0.1648,-0.4842,0.7022
-0.002,-0.033,0.014,-3.5,-8.2,12.7,0,2018,5,17,20,40,13.374,0.4971,0.1648,-0.4837,0.7011
0.015,-0.078,-0.007,-0.3,-2.2,18.3,0,2018,5,17,20,40,13.393,0.4991,0.165,-0.4841,0.6994
0.021,-0.028,0,5.6,8.8,21.3,0,2018,5,17,20,40,13.416,0.5007,0.1671,-0.4836,0.6981
0.005,0.019,0.024,9.2,9.2,22.4,0,2018,5,17,20,40,13.451,0.5025,0.1708,-0.4823,0.6969
0.015,0.027,0.01,13,8,19.9,0,2018,5,17,20,40,13.472,0.5039,0.1747,-0.4813,0.6955
-0.004,0.044,-0.021,13.7,6.6,15.7,0,2018,5,17,20,40,13.474,0.5047,0.1788,-0.481,0.6941
-0.005,0.045,-0.03,9.1,4.2,9.9,0,2018,5,17,20,40,13.509,0.5052,0.1823,-0.4809,0.6929
0,0.035,-0.029,5,2.6,4.6,0,2018,5,17,20,40,13.533,0.5055,0.1844,-0.4809,0.6922
-0.007,0.007,-0.033,0.3,2.3,1.3,0,2018,5,17,20,40,13.538,0.5054,0.1855,-0.4809,0.6919
-0.006,-0.025,0,-2.6,4.2,-0.6,0,2018,5,17,20,40,13.555,0.5054,0.1858,-0.4805,0.6921
0.001,0.034,-0.031,-5.5,5.3,-1.6,0,2018,5,17,20,40,13.591,0.5052,0.1857,-0.4798,0.6928
0.009,-0.003,0.003,-6.3,4.1,-1.8,0,2018,5,17,20,40,13.614,0.5054,0.1853,-0.4785,0.6936
0.004,-0.021,0.004,-4.2,3.8,-1,0,2018,5,17,20,40,13.619,0.5054,0.1848,-0.4777,0.6943
-0.003,-0.02,0.016,-1.8,4.1,-0.8,0,2018,5,17,20,40,13.635,0.5052,0.1847,-0.477,0.6949
0.003,0.036,-0.023,-3.3,2.4,-1.4,0,2018,5,17,20,40,13.674,0.5051,0.1848,-0.4764,0.6954
0.019,0.033,-0.003,-5.7,-0.9,-2.2,0,2018,5,17,20,40,13.674,0.5052,0.1845,-0.476,0.6957
0.004,-0.027,0.009,-2.6,-1.3,-2,0,2018,5,17,20,40,13.697,0.5052,0.1836,-0.4758,0.696
0.002,-0.016,0,-1,1.3,-1.7,0,2018,5,17,20,40,13.714,0.5049,0.1833,-0.476,0.6963
0.007,0.045,-0.047,-2.7,0.7,-2.1,0,2018,5,17,20,40,13.738,0.5044,0.1835,-0.476,0.6965
0.021,-0.007,0,-4.2,-0.1,-1.7,1023,2018,5,17,20,40,13.756,0.5045,0.183,-0.4757,0.6968
0.015,0.003,-0.008,-1.6,0.7,-0.8,1023,2018,5,17,20,40,13.779,0.5043,0.1826,-0.4755,0.6972
0.004,-0.012,0.006,-1.1,1.5,0,1023,2018,5,17,20,40,13.795,0.5042,0.1825,-0.4753,0.6974
0.009,0.005,-0.004,-1,2,0,1023,2018,5,17,20,40,13.813,0.5042,0.1825,-0.4749,0.6977
0.018,0.017,-0.005,-1.4,1.4,0.3,1023,2018,5,17,20,40,13.836,0.5042,0.1826,-0.4746,0.6979
0.003,-0.01,0.008,0.3,0.6,0.7,1023,2018,5,17,20,40,13.854,0.5042,0.1827,-0.4744,0.698
-0.003,0.015,-0.002,0.5,0.7,-0.2,1023,2018,5,17,20,40,13.878,0.504,0.183,-0.4743,0.6981
-0.002,0,-0.002,-0.7,-0.2,-1,1023,2018,5,17,20,40,13.896,0.5039,0.183,-0.4743,0.6981
0.013,0.037,-0.036,-3.3,-1.4,-1.6,1023,2018,5,17,20,40,13.919,0.5038,0.1829,-0.4745,0.6982
0.014,-0.016,0.014,-1.6,-2.4,-1,1023,2018,5,17,20,40,13.938,0.5039,0.1822,-0.4744,0.6983
0.012,-0.001,-0.002,0.5,-2.1,-0.7,1023,2018,5,17,20,40,13.959,0.5038,0.1818,-0.4746,0.6984
0.01,-0.014,-0.01,1.5,-1,0,1023,2018,5,17,20,40,13.994,0.5036,0.1817,-0.4749,0.6983
0.009,-0.01,-0.014,1.8,0.9,0.8,1023,2018,5,17,20,40,14.017,0.5033,0.182,-0.4752,0.6983
0.006,0.016,-0.007,1.9,2,0.9,1023,2018,5,17,20,40,14.022,0.5031,0.1824,-0.4751,0.6983
0.001,0.012,-0.014,0.5,1.1,0.1,1023,2018,5,17,20,40,14.039,0.503,0.1829,-0.475,0.6984
0.002,-0.009,0.004,-0.1,1,-0.5,1023,2018,5,17,20,40,14.061,0.5029,0.183,-0.4749,0.6985
-0.003,-0.001,-0.003,0.3,1.1,-0.7,0,2018,5,17,20,40,14.08,0.5026,0.1831,-0.4749,0.6987
0.012,0.042,-0.01,-0.8,-0.3,-1.4,0,2018,5,17,20,40,14.104,0.5025,0.1833,-0.4748,0.6988
0.011,-0.003,-0.003,-0.5,-2.6,-1.5,0,2018,5,17,20,40,14.119,0.5024,0.183,-0.4748,0.6989
0.009,-0.022,-0.004,0.7,-0.5,-0.7,0,2018,5,17,20,40,14.154,0.5021,0.1827,-0.4752,0.6989
0.002,-0.005,-0.003,0.8,0.6,-0.2,0,2018,5,17,20,40,14.176,0.5019,0.1827,-0.4753,0.699
0.008,0.033,-0.037,-1,0.5,-0.8,0,2018,5,17,20,40,14.182,0.5017,0.1829,-0.4753,0.6992
0.015,0.005,-0.005,-1.9,-0.2,-1.2,0,2018,5,17,20,40,14.199,0.5017,0.1827,-0.475,0.6994
0.008,-0.005,-0.008,-0.8,0.7,-0.7,0,2018,5,17,20,40,14.222,0.5016,0.1824,-0.4749,0.6996
0.004,-0.006,-0.004,-0.5,1.7,-0.5,0,2018,5,17,20,40,14.24,0.5014,0.1823,-0.4747,0.6999
0.003,0.009,-0.021,-1.3,2.5,-0.5,0,2018,5,17,20,40,14.263,0.5012,0.1825,-0.4745,0.7001
0.013,0.004,0,-2.5,2,-0.5,0,2018,5,17,20,40,14.3,0.5012,0.1824,-0.474,0.7004
0.008,0.003,-0.006,-1.6,1.5,-0.2,0,2018,5,17,20,40,14.3,0.5013,0.1822,-0.4735,0.7008
0.003,0.003,0.004,-1.1,1.6,-0.5,0,2018,5,17,20,40,14.322,0.5013,0.1821,-0.4731,0.7011
0.003,0.005,-0.006,-1,1.1,-1.1,0,2018,5,17,20,40,14.34,0.5011,0.182,-0.4728,0.7014
0.016,0.03,-0.013,-2.7,0.2,-1.5,0,2018,5,17,20,40,14.377,0.5011,0.1818,-0.4726,0.7016
0.014,-0.002,-0.004,-1.7,-0.9,-1,0,2018,5,17,20,40,14.4,0.5011,0.1814,-0.4725,0.7019
0.006,-0.007,0.002,0,0,0,0,2018,5,17,20,40,14.405,0.501,0.1812,-0.4724,0.702
0.005,0,0.001,0.5,0.7,-0.2,0,2018,5,17,20,40,14.421,0.5008,0.1812,-0.4723,0.7022
0.004,0.005,-0.014,0.2,0.5,-0.2,0,2018,5,17,20,40,14.439,0.5007,0.1813,-0.4723,0.7023
0.011,0.015,-0.006,-0.2,0.5,-0.3,0,2018,5,17,20,40,14.462,0.5007,0.1813,-0.472,0.7025
0.009,0.01,-0.007,-0.3,0,-0.8,1023,2018,5,17,20,40,14.499,0.5006,0.1812,-0.4719,0.7026
0.008,-0.005,-0.001,-0.2,0.8,-1,1023,2018,5,17,20,40,14.522,0.5004,0.1812,-0.4718,0.7028
0.011,0.007,-0.011,-0.2,1.4,-0.9,1023,2018,5,17,20,40,14.526,0.5002,0.1812,-0.4717,0.703
0.012,0.004,-0.009,-1.4,0.8,-0.5,1023,2018,5,17,20,40,14.544,0.5001,0.1811,-0.4714,0.7033
0.009,-0.01,-0.002,0,0.9,0.1,1023,2018,5,17,20,40,14.56,0.5,0.1812,-0.4714,0.7035
0.002,0.007,-0.005,0,1.4,0.1,1023,2018,5,17,20,40,14.583,0.4998,0.1814,-0.4712,0.7036
0.01,0.006,-0.001,0,0.8,-0.1,1023,2018,5,17,20,40,14.604,0.4998,0.1815,-0.471,0.7037
0.013,-0.003,-0.005,0,0.9,0.2,1023,2018,5,17,20,40,14.619,0.4997,0.1815,-0.4709,0.7038
0.002,-0.005,-0.005,0.5,2.2,0.7,1023,2018,5,17,20,40,14.642,0.4996,0.1817,-0.4707,0.704
0.008,0.02,-0.006,0,1.7,0.1,1023,2018,5,17,20,40,14.681,0.4996,0.1821,-0.4703,0.7042
0.011,0.013,-0.019,-1.4,0.2,-0.4,1023,2018,5,17,20,40,14.681,0.4995,0.1822,-0.4702,0.7043
0.01,-0.013,-0.007,-0.7,0.8,0,1023,2018,5,17,20,40,14.704,0.4995,0.182,-0.4701,0.7045
0.009,0.001,0,-0.2,1.7,0.5,1023,2018,5,17,20,40,14.741,0.4994,0.182,-0.4698,0.7047
0.005,0.01,-0.008,0,1.3,0.3,1023,2018,5,17,20,40,14.765,0.4994,0.1822,-0.4695,0.7048
0.01,0.012,-0.02,-0.2,0.6,0.2,1023,2018,5,17,20,40,14.77,0.4993,0.1824,-0.4694,0.7049
0.01,-0.005,-0.005,0.2,1.1,0.8,0,2018,5,17,20,40,14.788,0.4993,0.1825,-0.4693,0.705
0.007,0.001,-0.005,0.8,2.3,1.3,0,2018,5,17,20,40,14.808,0.4992,0.1829,-0.4691,0.7051
0.01,0.011,-0.009,0.7,2.9,1.2,0,2018,5,17,20,40,14.829,0.4991,0.1834,-0.4689,0.7052
0.015,0.02,0,0.2,1.8,0.7,0,2018,5,17,20,40,14.844,0.4991,0.1839,-0.4685,0.7053
0.004,-0.011,-0.008,0.7,1.4,1.2,0,2018,5,17,20,40,14.863,0.499,0.1842,-0.4683,0.7054
0.003,-0.005,-0.009,1,3.3,1.5,0,2018,5,17,20,40,14.884,0.4989,0.1846,-0.4681,0.7055
0.009,0.018,-0.013,0,3.1,1.4,0,2018,5,17,20,40,14.922,0.4988,0.1852,-0.4678,0.7056
0.007,-0.007,0.001,0.2,3.7,1.6,0,2018,5,17,20,40,14.945,0.4989,0.1856,-0.4672,0.7058
0.009,0.001,-0.012,0.5,4.7,2.4,0,2018,5,17,20,40,14.95,0.4988,0.1862,-0.4667,0.7061
0.003,-0.004,-0.005,0.8,5.3,2.5,0,2018,5,17,20,40,14.967,0.4989,0.187,-0.466,0.7063
0.007,0.008,-0.004,0.8,5.9,2.4,0,2018,5,17,20,40,14.984,0.4989,0.1878,-0.4652,0.7065
0.012,0.019,0,0.1,4.3,1.9,0,2018,5,17,20,40,15.007,0.499,0.1886,-0.4645,0.7068
0.007,0.015,0.007,0.3,1.6,0.9,0,2018,5,17,20,40,15.027,0.4991,0.1891,-0.4639,0.707
0.003,0.017,-0.002,0,-0.6,0,0,2018,5,17,20,40,15.05,0.4991,0.1892,-0.4637,0.7071
0,0.007,-0.008,-0.3,-2.2,-1,0,2018,5,17,20,40,15.066,0.499,0.1892,-0.4639,0.707
0.01,0.005,-0.004,-0.3,-2.4,-1.1,0,2018,5,17,20,40,15.083,0.499,0.1889,-0.4641,0.7069
0.008,0.002,-0.016,-0.3,-1.6,-0.9,0,2018,5,17,20,40,15.106,0.4988,0.1886,-0.4644,0.7069
0.006,-0.011,-0.007,-0.7,-0.6,-0.1,0,2018,5,17,20,40,15.126,0.4988,0.1884,-0.4645,0.7069
0.011,0.004,-0.016,-0.4,0.5,0.3,0,2018,5,17,20,40,15.144,0.4987,0.1883,-0.4645,0.707
0.006,-0.009,0,-0.3,1.3,0.7,0,2018,5,17,20,40,15.168,0.4987,0.1884,-0.4644,0.7071
0.014,0.017,-0.009,-0.4,1.4,0.7,0,2018,5,17,20,40,15.186,0.4987,0.1885,-0.4641,0.7072
0.004,-0.002,-0.004,-0.2,1.4,0.7,0,2018,5,17,20,40,15.209,0.4988,0.1886,-0.4637,0.7074
0.009,0.02,-0.012,-0.5,1.4,0.5,1023,2018,5,17,20,40,15.229,0.4988,0.1889,-0.4635,0.7075
0.007,0.004,0,-0.5,0.8,0,1023,2018,5,17,20,40,15.248,0.4988,0.1891,-0.4633,0.7076
0.004,0.019,-0.01,-0.6,0.1,-0.3,1023,2018,5,17,20,40,15.268,0.4988,0.1891,-0.4632,0.7077
0.004,0.002,0.002,-1.2,-0.8,-1,1023,2018,5,17,20,40,15.285,0.4986,0.1891,-0.4632,0.7077
0.01,0.001,-0.007,-0.8,-0.5,-1,1023,2018,5,17,20,40,15.322,0.4985,0.1888,-0.4633,0.7078
0.012,0.004,-0.002,-0.9,0.1,-0.7,1023,2018,5,17,20,40,15.344,0.4984,0.1886,-0.4632,0.708
0.009,0.002,-0.005,-0.8,0.3,-0.5,1023,2018,5,17,20,40,15.349,0.4983,0.1885,-0.4631,0.7082
0.007,0.014,-0.007,-1.1,0,-0.3,1023,2018,5,17,20,40,15.366,0.4983,0.1884,-0.463,0.7083
0.008,0.004,-0.01,-1,-0.5,-0.6,1023,2018,5,17,20,40,15.389,0.4982,0.1884,-0.463,0.7084
0.008,0.002,0,-0.6,-0.2,-0.4,1023,2018,5,17,20,40,15.426,0.4981,0.1882,-0.463,0.7085
0.005,-0.002,-0.002,0,0,0,1023,2018,5,17,20,40,15.449,0.4981,0.1881,-0.4629,0.7086
0.007,0.011,-0.004,0,-0.1,-0.7,1023,2018,5,17,20,40,15.453,0.4981,0.188,-0.4627,0.7087
0.009,0.014,-0.01,-0.7,-0.8,-1.1,1023,2018,5,17,20,40,15.472,0.498,0.1879,-0.4628,0.7088
0.009,-0.005,-0.001,-1,-1,-1,1023,2018,5,17,20,40,15.489,0.498,0.1876,-0.4628,0.7089
0.01,0.003,-0.006,-0.2,-0.3,-0.6,1023,2018,5,17,20,40,15.511,0.4978,0.1873,-0.4629,0.709
0,0.003,-0.002,-0.8,-0.1,-0.8,1023,2018,5,17,20,40,15.529,0.4977,0.1873,-0.4629,0.7091
0.013,0.021,-0.011,-1.5,-0.5,-1.3,1023,2018,5,17,20,40,15.553,0.4975,0.1872,-0.4629,0.7092
0.014,-0.007,-0.002,-1,-0.8,-0.9,1023,2018,5,17,20,40,15.571,0.4974,0.187,-0.463,0.7093
0.005,0,-0.007,0,0,0,0,2018,5,17,20,40,15.594,0.4972,0.1868,-0.4631,0.7094
0.005,0.002,0,-0.7,0.2,-0.5,0,2018,5,17,20,40,15.611,0.4972,0.1867,-0.463,0.7095
0.012,0.009,-0.007,-1.1,-0.2,-0.7,0,2018,5,17,20,40,15.63,0.4972,0.1866,-0.4628,0.7097
0.003,-0.001,0,0,0,0,0,2018,5,17,20,40,15.648,0.4971,0.1864,-0.4628,0.7098
0.008,0.01,-0.005,-0.5,-0.2,-0.6,0,2018,5,17,20,40,15.669,0.497,0.1863,-0.4627,0.7099
0.004,0,-0.002,-0.3,-0.6,-0.7,0,2018,5,17,20,40,15.707,0.4969,0.1862,-0.4627,0.71
0.006,0.002,-0.008,-0.4,-0.5,-0.5,0,2018,5,17,20,40,15.73,0.4968,0.1861,-0.4628,0.7101
0.009,0.001,-0.003,-0.5,-0.3,-0.1,0,2018,5,17,20,40,15.735,0.4968,0.186,-0.4627,0.7102
0.004,0.001,-0.004,0,0,0,0,2018,5,17,20,40,15.751,0.4968,0.1858,-0.4625,0.7103
0.007,0.004,-0.003,0.5,0,0,0,2018,5,17,20,40,15.774,0.4969,0.1857,-0.4624,0.7104
0.004,0.011,-0.011,0,0,0,0,2018,5,17,20,40,15.81,0.4969,0.1857,-0.4623,0.7104
0.012,0.006,-0.002,-0.5,-0.5,-0.5,0,2018,5,17,20,40,15.833,0.4968,0.1857,-0.4623,0.7105
0.008,-0.002,-0.005,0,0,0,0,2018,5,17,20,40,15.837,0.4968,0.1855,-0.4622,0.7106
0.006,0.005,-0.008,0,0,0,0,2018,5,17,20,40,15.851,0.4968,0.1854,-0.4621,0.7107
0.005,0.005,-0.007,0,0,0,0,2018,5,17,20,40,15.87,0.4969,0.1853,-0.4619,0.7108
0.007,0.007,-0.004,0,0,0,0,2018,5,17,20,40,15.893,0.4969,0.1853,-0.4618,0.7109
0.009,0.014,-0.006,-0.8,-0.2,-0.5,0,2018,5,17,20,40,15.933,0.4968,0.1853,-0.4618,0.7109
0.006,-0.001,-0.005,0,0,0,0,2018,5,17,20,40,15.936,0.4968,0.1851,-0.4617,0.711
0.007,0.001,-0.001,0,0,0,0,2018,5,17,20,40,15.971,0.4968,0.185,-0.4616,0.7111
0.006,0.006,-0.007,0,0,0,0,2018,5,17,20,40,15.992,0.4969,0.1849,-0.4614,0.7112
0.006,0.008,-0.008,-0.5,-0.1,-0.2,0,2018,5,17,20,40,15.993,0.4969,0.1848,-0.4613,0.7113
0.009,-0.001,0,-0.5,-0.1,-0.2,0,2018,5,17,20,40,16.029,0.4968,0.1849,-0.4614,0.7113
0.008,0.007,-0.012,0,0,0,1023,2018,5,17,20,40,16.049,0.4968,0.1848,-0.4613,0.7114
0.009,0.006,0,-0.5,0.3,-0.2,1023,2018,5,17,20,40,16.052,0.4967,0.1848,-0.4612,0.7115
0.01,0.005,-0.006,0,0,0,1023,2018,5,17,20,40,16.088,0.4968,0.1847,-0.4611,0.7116
0.007,0.003,-0.003,0,0,0,1023,2018,5,17,20,40,16.109,0.4968,0.1846,-0.4609,0.7117
0.011,0.005,-0.007,-0.5,0,0,1023,2018,5,17,20,40,16.111,0.4968,0.1846,-0.4609,0.7117
0.007,-0.007,-0.005,0,0.6,0.4,1023,2018,5,17,20,40,16.144,0.4967,0.1845,-0.4609,0.7118
0.008,0.003,-0.004,0,1.4,0.7,1023,2018,5,17,20,40,16.165,0.4967,0.1846,-0.4606,0.7119
0.01,0.011,-0.001,-0.5,1.1,0.5,1023,2018,5,17,20,40,16.174,0.4967,0.1849,-0.4605,0.7119
0.009,0.002,0,0,0.4,0.5,1023,2018,5,17,20,40,16.21,0.4966,0.1851,-0.4604,0.712
0.006,0.002,-0.002,0.5,0.8,0.6,1023,2018,5,17,20,40,16.233,0.4965,0.1854,-0.4605,0.712
0.004,0.013,-0.009,0,0,0,1023,2018,5,17,20,40,16.238,0.4964,0.1857,-0.4605,0.712
0.006,0.007,-0.006,0,0,0,1023,2018,5,17,20,40,16.272,0.4964,0.1857,-0.4603,0.712
0.012,0.006,-0.009,-0.5,-0.4,0,1023,2018,5,17,20,40,16.293,0.4965,0.1856,-0.4602,0.7121
0.008,0,-0.005,0,0,0,1023,2018,5,17,20,40,16.299,0.4965,0.1854,-0.4601,0.7122
0.007,0.005,-0.003,0.3,0.1,0.7,1023,2018,5,17,20,40,16.315,0.4964,0.1856,-0.4602,0.7122
0.006,0.006,-0.004,0.3,0.5,1,1023,2018,5,17,20,40,16.338,0.4964,0.1858,-0.4601,0.7122
0.007,0.003,0,0.7,0.6,1.2,0,2018,5,17,20,40,16.355,0.4964,0.186,-0.46,0.7121
0.004,0.008,-0.004,0.5,0.6,1.2,0,2018,5,17,20,40,16.374,0.4964,0.1863,-0.46,0.7121
0.007,0.006,-0.002,0.4,0.4,0.9,0,2018,5,17,20,40,16.397,0.4965,0.1866,-0.4599,0.7121
0.009,0.005,-0.006,0.4,0.3,0.7,0,2018,5,17,20,40,16.434,0.4964,0.1868,-0.4598,0.7121
0.009,0.006,-0.01,0.2,0.6,0.5,0,2018,5,17,20,40,16.434,0.4964,0.187,-0.4598,0.7121
0.011,0.002,-0.003,0,0.5,0.4,0,2018,5,17,20,40,16.456,0.4963,0.1872,-0.4598,0.7121
0.007,0.004,-0.009,0,0.5,0.3,0,2018,5,17,20,40,16.476,0.4963,0.1872,-0.4597,0.7122
0.008,0.002,-0.001,-0.5,0.2,0,0,2018,5,17,20,40,16.498,0.4963,0.1873,-0.4596,0.7122
0.006,0.006,-0.008,0,0,0,0,2018,5,17,20,40,16.516,0.4963,0.1873,-0.4595,0.7123
0.006,0.005,-0.001,0,0,0,0,2018,5,17,20,40,16.539,0.4963,0.1872,-0.4594,0.7124
0.009,0.004,0,0,0,0,0,2018,5,17,20,40,16.575,0.4963,0.1872,-0.4592,0.7124
0.009,0.009,-0.011,0,0,0,0,2018,5,17,20,40,16.575,0.4963,0.1871,-0.4591,0.7125
0.008,0.001,-0.001,0,0,0,0,2018,5,17,20,40,16.598,0.4964,0.187,-0.459,0.7126
0.005,-0.001,-0.005,0,0,0,0,2018,5,17,20,40,16.616,0.4964,0.187,-0.4589,0.7127
0.005,0.002,-0.002,0.6,0.2,0.8,0,2018,5,17,20,40,16.639,0.4964,0.1871,-0.4589,0.7127
0.012,0.008,-0.013,0.8,0.4,1,0,2018,5,17,20,40,16.658,0.4963,0.1873,-0.4589,0.7126
0.007,0.004,-0.011,1.1,0.3,1.2,0,2018,5,17,20,40,16.693,0.4962,0.1878,-0.4591,0.7125
0.005,0.006,-0.003,1.1,0.6,1,0,2018,5,17,20,40,16.717,0.4961,0.1881,-0.4591,0.7124
0.004,0.006,-0.001,1.1,0.3,0.8,0,2018,5,17,20,40,16.722,0.4961,0.1884,-0.459,0.7124
0.006,0.01,-0.008,0.7,0,0.3,0,2018,5,17,20,40,16.74,0.4961,0.1887,-0.4591,0.7123
0.008,0.005,-0.006,0,0,0,0,2018,5,17,20,40,16.758,0.496,0.1887,-0.459,0.7123
0.005,0.007,-0.006,0,0,0,1023,2018,5,17,20,40,16.781,0.4961,0.1886,-0.4589,0.7124
0.006,0.001,-0.005,0,0,0,1023,2018,5,17,20,40,16.796,0.4961,0.1885,-0.4588,0.7125
0.007,0.007,-0.004,0,0,0,1023,2018,5,17,20,40,16.819,0.4961,0.1885,-0.4587,0.7126
0.009,0.005,-0.002,0,0,0,1023,2018,5,17,20,40,16.838,0.4962,0.1884,-0.4586,0.7126
0.009,0,-0.002,0,0,0,1023,2018,5,17,20,40,16.874,0.4962,0.1883,-0.4585,0.7127
0.001,0.002,-0.004,0,0,0,1023,2018,5,17,20,40,16.896,0.4962,0.1882,-0.4584,0.7128
0.005,0.01,0.001,0,0,0,1023,2018,5,17,20,40,16.9,0.4963,0.1882,-0.4582,0.7129
0.013,0.022,-0.015,-0.6,-0.3,-0.3,1023,2018,5,17,20,40,16.937,0.4962,0.1882,-0.4582,0.7129
0.013,-0.005,-0.002,0,0,0,1023,2018,5,17,20,40,16.96,0.4962,0.1881,-0.4583,0.7129
0.01,0.001,-0.002,0.8,0.2,0.3,1023,2018,5,17,20,40,16.965,0.4961,0.1882,-0.4583,0.7129
0.005,0.004,-0.004,0.7,0.2,0.2,1023,2018,5,17,20,40,16.998,0.496,0.1884,-0.4583,0.7129
0.006,0.013,-0.012,0,0,0,1023,2018,5,17,20,40,17.02,0.4959,0.1884,-0.4583,0.713
0.01,0.003,-0.006,0,0,0,1023,2018,5,17,20,40,17.023,0.496,0.1884,-0.4582,0.713
0.003,0.002,-0.006,0,0,0,1023,2018,5,17,20,40,17.06,0.496,0.1883,-0.4581,0.7131
0.007,0.011,-0.012,0,0,0,0,2018,5,17,20,40,17.083,0.496,0.1883,-0.458,0.7131
0.008,0.004,-0.003,0,0,0,0,2018,5,17,20,40,17.086,0.496,0.1882,-0.4579,0.7132
0.013,0.005,-0.008,0,0,0,0,2018,5,17,20,40,17.1,0.4961,0.1881,-0.4578,0.7133
0.007,-0.001,0,0,0,0,0,2018,5,17,20,40,17.137,0.4961,0.1881,-0.4577,0.7133
0.006,0.006,-0.001,0,0,0,0,2018,5,17,20,40,17.16,0.4961,0.188,-0.4576,0.7134
0.009,0.001,0,0,0,0,0,2018,5,17,20,40,17.165,0.4962,0.1879,-0.4575,0.7135
0.009,0.003,-0.007,0,0,0,0,2018,5,17,20,40,17.198,0.4962,0.1878,-0.4574,0.7135
0.008,0.01,-0.004,0,0,0,0,2018,5,17,20,40,17.221,0.4962,0.1878,-0.4573,0.7136
0.006,0,-0.004,0,0,0,0,2018,5,17,20,40,17.226,0.4962,0.1878,-0.4572,0.7136
0.007,0.005,-0.009,0,0,0,0,2018,5,17,20,40,17.242,0.4962,0.1877,-0.4572,0.7137
0.008,0.003,-0.001,0,0,0,0,2018,5,17,20,40,17.265,0.4962,0.1877,-0.4571,0.7137
0.008,0.003,-0.002,0,0,0,0,2018,5,17,20,40,17.283,0.4963,0.1876,-0.457,0.7138
0.004,0.004,-0.012,0,0,0,0,2018,5,17,20,40,17.306,0.4963,0.1876,-0.4569,0.7138
0.008,0,-0.002,0,0,0,0,2018,5,17,20,40,17.322,0.4963,0.1875,-0.4568,0.7139
0.009,0.009,-0.014,0,0,0,0,2018,5,17,20,40,17.34,0.4963,0.1875,-0.4568,0.7139
0.01,0,-0.003,0,0,0,0,2018,5,17,20,40,17.363,0.4963,0.1874,-0.4567,0.714
0.005,0.003,-0.004,0,0,0,0,2018,5,17,20,40,17.381,0.4963,0.1873,-0.4566,0.7141
0.007,0.007,-0.004,0,0,0,0,2018,5,17,20,40,17.402,0.4963,0.1873,-0.4566,0.7141
0.008,0,-0.001,0,0,0,0,2018,5,17,20,40,17.422,0.4964,0.1873,-0.4565,0.7141
0.007,0.007,0,0,0,0,0,2018,5,17,20,40,17.445,0.4964,0.1872,-0.4564,0.7142
0.006,0.005,-0.009,0,0,0,0,2018,5,17,20,40,17.462,0.4964,0.1872,-0.4564,0.7142
0.005,0.008,-0.015,-0.3,-0.1,-0.5,0,2018,5,17,20,40,17.485,0.4963,0.1873,-0.4565,0.7142
0.008,-0.005,0.001,-0.6,-0.1,-0.2,0,2018,5,17,20,40,17.503,0.4961,0.1873,-0.4567,0.7142
0.006,0.003,-0.005,0,0,0,0,2018,5,17,20,40,17.527,0.4961,0.1872,-0.4567,0.7142
0.006,0.009,-0.001,0,0,0,1023,2018,5,17,20,40,17.544,0.4961,0.1872,-0.4566,0.7143
0.007,0.006,0,0,-0.5,-0.2,1023,2018,5,17,20,40,17.561,0.496,0.1872,-0.4566,0.7143
0.006,0,-0.008,0,-0.5,-0.4,1023,2018,5,17,20,40,17.584,0.4959,0.1873,-0.4568,0.7142
0.009,0,-0.008,0,0,0,1023,2018,5,17,20,40,17.602,0.4958,0.1873,-0.4568,0.7143
0.004,0.007,0.002,0,0,0,1023,2018,5,17,20,40,17.625,0.4959,0.1872,-0.4567,0.7143
0.007,0.002,-0.004,0,-0.8,-0.3,1023,2018,5,17,20,40,17.644,0.4958,0.1872,-0.4567,0.7143
0.009,0.006,-0.005,0.1,-0.8,-0.5,1023,2018,5,17,20,40,17.668,0.4956,0.1873,-0.4571,0.7143
0.009,0.005,-0.009,0,-0.8,-0.5,1023,2018,5,17,20,40,17.686,0.4955,0.1873,-0.4573,0.7142
0.01,0,-0.008,0.1,-0.5,-0.3,1023,2018,5,17,20,40,17.724,0.4951,0.1875,-0.4577,0.7141
0.008,0.006,-0.005,0,0,0,1023,2018,5,17,20,40,17.747,0.4951,0.1875,-0.4577,0.7142
0.008,0.004,-0.008,0,0,0,1023,2018,5,17,20,40,17.752,0.4952,0.1874,-0.4576,0.7142
0.011,0.008,-0.009,0,0,0,1023,2018,5,17,20,40,17.768,0.4952,0.1874,-0.4575,0.7143
0.008,0,-0.007,0,0,0,1023,2018,5,17,20,40,17.788,0.4952,0.1873,-0.4575,0.7143
0.008,0.009,-0.008,0,0,0,1023,2018,5,17,20,40,17.827,0.4952,0.1872,-0.4574,0.7144
0.005,0.003,0,0,0,0,1023,2018,5,17,20,40,17.85,0.4952,0.1872,-0.4573,0.7144
0.008,0.001,-0.006,0,0,0,1023,2018,5,17,20,40,17.854,0.4952,0.1871,-0.4573,0.7145
0.003,0.004,-0.012,0,0,0,1023,2018,5,17,20,40,17.869,0.4952,0.1871,-0.4572,0.7145
0.006,0.007,-0.003,0,0,0,1023,2018,5,17,20,40,17.885,0.4953,0.1871,-0.4571,0.7145
0.012,0.008,-0.006,0,0,0,0,2018,5,17,20,40,17.908,0.4953,0.187,-0.4571,0.7146
0.008,0.001,-0.005,0,0,0,0,2018,5,17,20,40,17.925,0.4952,0.187,-0.4571,0.7146
0.006,-0.003,-0.007,0,0,0,0,2018,5,17,20,40,17.948,0.4952,0.187,-0.4571,0.7146
0.005,0.003,-0.011,0,0,0,0,2018,5,17,20,40,17.986,0.4952,0.187,-0.4571,0.7147
0.007,0.008,-0.002,0,0,0,0,2018,5,17,20,40,18.008,0.4952,0.1869,-0.457,0.7147
0.012,0.009,-0.008,-0.8,-0.2,-0.4,0,2018,5,17,20,40,18.013,0.4952,0.1869,-0.457,0.7147
0.008,0.003,-0.008,0,0,0,0,2018,5,17,20,40,18.029,0.4951,0.1869,-0.457,0.7148
0.008,0,-0.004,0,0,0,0,2018,5,17,20,40,18.052,0.4951,0.1868,-0.457,0.7148
0.008,0.001,-0.01,0,0,0,0,2018,5,17,20,40,18.072,0.4951,0.1867,-0.4569,0.7149
0.008,0.004,-0.017,0,0,0,0,2018,5,17,20,40,18.088,0.4951,0.1867,-0.4569,0.7149
0.008,-0.004,-0.001,0,0,0,0,2018,5,17,20,40,18.106,0.4951,0.1866,-0.4568,0.7149
0.006,0,-0.007,0.1,0.5,0.2,0,2018,5,17,20,40,18.129,0.4951,0.1866,-0.4568,0.715
0.005,0.005,-0.002,0,0,0,0,2018,5,17,20,40,18.148,0.4949,0.1868,-0.4569,0.715
0.007,0.014,-0.015,-0.7,0,-0.2,0,2018,5,17,20,40,18.171,0.4949,0.1869,-0.4569,0.715
0.01,0.008,-0.002,-0.7,0,-0.5,0,2018,5,17,20,40,18.189,0.4948,0.1869,-0.4569,0.715
0.006,0.005,-0.007,-0.5,-0.5,-0.3,0,2018,5,17,20,40,18.212,0.4948,0.1868,-0.4569,0.7151
0.007,-0.006,0,0,0,0,0,2018,5,17,20,40,18.23,0.4948,0.1866,-0.4568,0.7152
0.009,0.004,-0.012,0,0,0,0,2018,5,17,20,40,18.253,0.4948,0.1866,-0.4568,0.7152
0.01,0.006,-0.01,-0.5,0.4,0,0,2018,5,17,20,40,18.27,0.4947,0.1866,-0.4568,0.7152
0.008,-0.001,0,-0.3,0.5,0.1,0,2018,5,17,20,40,18.293,0.4945,0.1868,-0.4569,0.7152
0.006,0.007,-0.007,0,0,0,1023,2018,5,17,20,40,18.31,0.4945,0.1868,-0.4569,0.7153
0.007,0.009,-0.006,0,0,0,1023,2018,5,17,20,40,18.328,0.4946,0.1867,-0.4568,0.7153
0.01,0.007,-0.01,-0.3,0,-0.7,1023,2018,5,17,20,40,18.351,0.4944,0.1868,-0.4569,0.7154
0.009,0.008,-0.004,-0.8,0,-0.7,1023,2018,5,17,20,40,18.388,0.4942,0.1869,-0.457,0.7154
0.006,-0.002,-0.002,-0.7,0,-0.7,1023,2018,5,17,20,40,18.411,0.4941,0.1868,-0.457,0.7155
0.003,0,-0.003,-0.6,0.3,-1,1023,2018,5,17,20,40,18.415,0.4939,0.1868,-0.4571,0.7156
0,-0.001,-0.005,-1.2,0.8,-1,1023,2018,5,17,20,40,18.431,0.4937,0.1868,-0.4571,0.7157
0.007,0.008,-0.016,-2.7,1.3,-0.7,1023,2018,5,17,20,40,18.469,0.4935,0.1867,-0.457,0.7159
0.005,-0.015,0.001,-1.9,2.4,0,1023,2018,5,17,20,40,18.492,0.4935,0.1864,-0.4566,0.7162
0,0.002,-0.004,-1.4,4.1,0.2,1023,2018,5,17,20,40,18.497,0.4934,0.1867,-0.4563,0.7165
-0.025,-0.021,0.029,-0.3,8,-0.3,1023,2018,5,17,20,40,18.515,0.4931,0.1872,-0.4555,0.717
0.003,-0.03,0.044,3.3,10.9,-1.3,1023,2018,5,17,20,40,18.531,0.4925,0.188,-0.4544,0.7179
0.007,-0.075,0.078,11.3,17.7,-1.2,1023,2018,5,17,20,40,18.555,0.4911,0.1898,-0.4533,0.7191
-0.06,-0.167,0.168,24.6,19.9,-4.8,1023,2018,5,17,20,40,18.574,0.4883,0.1929,-0.4524,0.7208
-0.13,-0.063,0.078,20.9,13,-20.8,1023,2018,5,17,20,40,18.598,0.4839,0.1961,-0.4529,0.7226
-0.071,0.015,0.26,-13.7,-3.3,-56.8,0,2018,5,17,20,40,18.611,0.4787,0.1935,-0.4543,0.7258
-0.107,-0.135,0.482,-45.9,29.2,-49.6,0,2018,5,17,20,40,18.629,0.4734,0.187,-0.452,0.7324
-0.186,-0.452,0.744,-95.5,30.7,-60.5,0,2018,5,17,20,40,18.653,0.4712,0.175,-0.4429,0.7423
-0.195,-0.212,0.74,-140.7,5.5,-74.8,0,2018,5,17,20,40,18.671,0.471,0.1563,-0.4327,0.7526
0.042,-0.616,0.929,-163,11.1,-114.9,0,2018,5,17,20,40,18.694,0.47,0.1281,-0.4228,0.764
-0.135,-0.61,1.064,-205.3,85,-123.9,0,2018,5,17,20,40,18.73,0.4659,0.0986,-0.4028,0.7816
-0.327,-0.49,0.937,-247.6,98.7,-141.1,0,2018,5,17,20,40,18.754,0.4616,0.066,-0.3729,0.8021
-0.382,-0.335,0.79,-290,78.4,-154.3,0,2018,5,17,20,40,18.757,0.4568,0.0255,-0.3386,0.8221
-0.415,-0.254,0.608,-313.2,62,-162.1,0,2018,5,17,20,40,18.776,0.451,-0.0218,-0.3042,0.8387
-0.528,-0.176,0.318,-319.8,74.5,-168.2,0,2018,5,17,20,40,18.793,0.443,-0.0721,-0.2681,0.8524
-0.607,-0.094,0.04,-321.8,112.7,-163,0,2018,5,17,20,40,18.818,0.4336,-0.1204,-0.2264,0.8638
-0.656,-0.029,-0.134,-320.2,130.3,-143.1,0,2018,5,17,20,40,18.834,0.4249,-0.1652,-0.1794,0.8717
-0.625,-0.003,-0.215,-307.7,111.2,-131.8,0,2018,5,17,20,40,18.851,0.4167,-0.2079,-0.1331,0.8748
-0.593,-0.02,-0.333,-287.3,88.5,-127.4,0,2018,5,17,20,40,18.874,0.4066,-0.2487,-0.0915,0.8742
-0.517,0.063,-0.496,-264.5,80.6,-119.8,0,2018,5,17,20,40,18.892,0.395,-0.2865,-0.0539,0.8711
-0.488,0.087,-0.601,-238.2,85.3,-108.3,0,2018,5,17,20,40,18.915,0.3837,-0.3196,-0.0182,0.8661
-0.505,-0.016,-0.575,-205.4,88.5,-94.9,0,2018,5,17,20,40,18.933,0.3735,-0.3472,0.0154,0.8599
-0.526,-0.059,-0.607,-172.2,82.3,-81.2,0,2018,5,17,20,40,18.955,0.3648,-0.3693,0.0459,0.8534
-0.515,-0.047,-0.648,-138.5,61.9,-71.3,0,2018,5,17,20,40,18.992,0.3567,-0.3868,0.0713,0.8473
-0.488,-0.01,-0.699,-109.1,38.1,-60.9,0,2018,5,17,20,40,19.016,0.3487,-0.4009,0.0907,0.8422
-0.47,-0.026,-0.771,-81.1,24.8,-52.7,0,2018,5,17,20,40,19.019,0.3409,-0.412,0.1048,0.8384
-0.424,-0.002,-0.792,-53.1,15.6,-46.7,0,2018,5,17,20,40,19.035,0.3339,-0.4195,0.1153,0.8361
-0.456,0.041,-0.769,-24.2,10.1,-39.9,1023,2018,5,17,20,40,19.052,0.3276,-0.4234,0.1225,0.8356
-0.48,0.066,-0.71,1.5,10.6,-24.8,1023,2018,5,17,20,40,19.075,0.3233,-0.4236,0.1269,0.8365
-0.508,0.109,-0.676,24.2,11.1,-3.8,1023,2018,5,17,20,40,19.113,0.3224,-0.4207,0.1289,0.838
-0.524,0.178,-0.711,48.9,-3.6,20,1023,2018,5,17,20,40,19.136,0.3248,-0.4151,0.1269,0.8402
-0.549,0.257,-0.815,76.6,-30.5,45.6,1023,2018,5,17,20,40,19.141,0.3299,-0.4076,0.1185,0.8431
-0.628,0.298,-0.941,109.2,-76.8,68.2,1023,2018,5,17,20,40,19.157,0.3364,-0.398,0.1011,0.8474
-0.794,0.276,-1.095,146.4,-116.6,96.5,1023,2018,5,17,20,40,19.194,0.3437,-0.3861,0.073,0.8528
-0.995,0.361,-1.519,196.6,-142.7,143.4,1023,2018,5,17,20,40,19.218,0.3546,-0.3695,0.0354,0.8581
-1.209,0.707,-2.384,269.9,-183.5,213.4,1023,2018,5,17,20,40,19.222,0.3715,-0.345,-0.0149,0.8617
-1.572,1.135,-3.183,388.6,-219,292.2,1023,2018,5,17,20,40,19.238,0.3956,-0.3069,-0.082,0.8617
-2.104,1.325,-3.444,558.3,-198.3,373.8,1023,2018,5,17,20,40,19.261,0.4246,-0.2443,-0.1649,0.856
-3.333,1.341,-3.121,770.7,-84.7,474.1,1023,2018,5,17,20,40,19.279,0.4577,-0.1397,-0.2518,0.8411
-5.626,0.962,-1.947,929.9,4.7,546.7,1023,2018,5,17,20,40,19.317,0.4863,0.0077,-0.3346,0.807
-5.695,-15.635,15.246,39.8,317,0.9,1023,2018,5,17,20,40,19.34,0.5069,0.1572,-0.3484,0.7725
5.881,6.753,-5.005,-41,-180.5,-78.6,1023,2018,5,17,20,40,19.345,0.5046,0.1317,-0.3197,0.791
0.255,-1.867,0.386,169.9,3.9,47.9,1023,2018,5,17,20,40,19.358,0.5059,0.1264,-0.3352,0.7846
-0.39,0.99,0.379,169.7,-125.9,49,0,2018,5,17,20,40,19.377,0.5067,0.1499,-0.3515,0.7727
-0.783,-0.48,-0.094,153,-75.5,48.1,0,2018,5,17,20,40,19.401,0.505,0.1648,-0.3825,0.7559
0.011,0.105,-0.635,81.2,-13.5,11.4,0,2018,5,17,20,40,19.418,0.5016,0.1767,-0.3952,0.7489
-0.075,-0.145,-0.064,69.1,-2.4,32.7,0,2018,5,17,20,40,19.44,0.4995,0.1876,-0.4022,0.7439
-0.06,-0.309,0.041,59.4,-14.4,48.9,0,2018,5,17,20,40,19.459,0.5011,0.1974,-0.4075,0.7374
-0.118,0.075,-0.269,42.5,11,39.9,0,2018,5,17,20,40,19.482,0.5031,0.2079,-0.4101,0.7317
0.08,0.134,-0.196,22.7,1.6,30.8,0,2018,5,17,20,40,19.517,0.5052,0.2147,-0.4106,0.728
0.099,-0.043,-0.03,14.4,2.3,34.8,0,2018,5,17,20,40,19.539,0.5078,0.2191,-0.4112,0.7244
0.052,-0.056,0.053,14.7,-4.2,35.3,0,2018,5,17,20,40,19.544,0.5114,0.2226,-0.4107,0.7212
-0.057,0.135,-0.069,8.5,-4.7,26.7,0,2018,5,17,20,40,19.563,0.5148,0.2259,-0.4109,0.7176
-0.029,0.226,0.031,1,-2.6,10.4,0,2018,5,17,20,40,19.579,0.5169,0.2275,-0.4108,0.7156
0.017,0.04,0.038,8.9,-17,5.8,0,2018,5,17,20,40,19.597,0.518,0.2276,-0.4119,0.7142
-0.061,-0.006,0.062,10.9,-23.1,4.5,0,2018,5,17,20,40,19.619,0.519,0.2275,-0.4146,0.7119
-0.126,0.035,-0.167,-10.3,-23.3,-2.4,0,2018,5,17,20,40,19.656,0.5201,0.2258,-0.4178,0.7097
-0.032,-0.116,-0.123,-31.7,-6.1,-7.7,0,2018,5,17,20,40,19.679,0.5217,0.221,-0.4179,0.7101
0.047,-0.118,-0.027,-22.7,14.8,-2.4,0,2018,5,17,20,40,19.683,0.5228,0.2175,-0.4147,0.7122
0.033,0.037,0.04,-17.2,19.5,-1.1,0,2018,5,17,20,40,19.716,0.5235,0.2164,-0.4105,0.7144
0.023,0.079,0.028,-14.1,9.9,-4.7,0,2018,5,17,20,40,19.739,0.5239,0.2156,-0.4066,0.7166
-0.018,0.091,-0.035,-17.2,-4,-6.7,0,2018,5,17,20,40,19.743,0.5246,0.214,-0.4043,0.7179
0.003,-0.056,0.061,-17.6,-7.1,-6.9,0,2018,5,17,20,40,19.78,0.5254,0.2107,-0.4037,0.7186
0.028,0.006,0.053,-7.6,-7.1,-4.3,0,2018,5,17,20,40,19.78,0.5258,0.2077,-0.4033,0.7194
0.019,0.016,-0.05,-4.9,-9.8,-3.6,0,2018,5,17,20,40,19.803,0.5261,0.2059,-0.4039,0.7194
0.013,-0.033,-0.045,-8.4,-5.4,-3,1023,2018,5,17,20,40,19.823,0.5262,0.2041,-0.4048,0.7193
0.016,-0.041,-0.054,-7.6,1.4,-1.3,1023,2018,5,17,20,40,19.841,0.5264,0.2023,-0.4047,0.7197
0.018,0.007,0.015,-4.8,6.9,-2.3,1023,2018,5,17,20,40,19.859,0.5263,0.2016,-0.4036,0.7206
0.01,0.08,0.011,-3.3,-3,-2.7,1023,2018,5,17,20,40,19.882,0.5265,0.2013,-0.4025,0.7212
-0.009,0,-0.017,-5,-8.2,-3,1023,2018,5,17,20,40,19.9,0.5268,0.2001,-0.4028,0.7211
-0.025,-0.03,-0.026,-6.6,-3.9,-3,1023,2018,5,17,20,40,19.923,0.5271,0.1985,-0.4034,0.721
0,-0.006,0.002,-6.8,-0.5,-3,1023,2018,5,17,20,40,19.96,0.5271,0.1973,-0.4033,0.7214
0.017,0.034,0.007,-6,-3.2,-4,1023,2018,5,17,20,40,19.983,0.5275,0.1961,-0.4027,0.7218
0.009,0.019,-0.035,-4.7,-7.2,-6.3,1023,2018,5,17,20,40,19.988,0.5275,0.1945,-0.4028,0.7221
0.015,-0.027,-0.02,-7.1,-6,-6,1023,2018,5,17,20,40,20.002,0.5274,0.1927,-0.4034,0.7224
0.034,-0.003,0.002,-5.9,-5.3,-2.7,1023,2018,5,17,20,40,20.024,0.5274,0.1908,-0.4037,0.7227
0.018,-0.029,0.023,-0.4,-3.5,-1.7,1023,2018,5,17,20,40,20.063,0.5276,0.1894,-0.4039,0.7228
0.002,0.04,-0.009,1.3,-6.3,-3,1023,2018,5,17,20,40,20.086,0.5273,0.189,-0.4045,0.7228
0.007,0.027,-0.051,-1.2,-9.8,-3.6,1023,2018,5,17,20,40,20.09,0.5273,0.1882,-0.4056,0.7224
0.018,-0.015,0,-1.1,-7,-3.6,1023,2018,5,17,20,40,20.106,0.5273,0.1868,-0.4068,0.7221
0.008,-0.022,0.01,4.1,-3.5,-1.9,1023,2018,5,17,20,40,20.123,0.527,0.1859,-0.4076,0.7221
0.001,0.018,0.005,4.9,-5.5,-2.8,1023,2018,5,17,20,40,20.143,0.5267,0.1859,-0.4083,0.7219
0.003,0.005,-0.025,2.3,-10.5,-2.1,1023,2018,5,17,20,40,20.166,0.5264,0.1854,-0.4097,0.7214
0.011,0.02,-0.041,-2.6,-11.5,-2,0,2018,5,17,20,40,20.184,0.5266,0.1844,-0.4113,0.7206
0.003,-0.032,-0.015,0.7,-4.7,-3.7,0,2018,5,17,20,40,20.208,0.5265,0.1831,-0.4126,0.7203
0.002,0.011,0.021,3,-0.7,-3.7,0,2018,5,17,20,40,20.223,0.526,0.1827,-0.413,0.7205
-0.014,0.027,-0.016,1.7,-7.1,-4.6,0,2018,5,17,20,40,20.246,0.5255,0.1824,-0.4137,0.7206
0.006,0,-0.029,-2.5,-7.4,-4.2,0,2018,5,17,20,40,20.264,0.5253,0.1816,-0.4149,0.7202
0.008,-0.018,-0.012,-0.8,-4.9,-3.3,0,2018,5,17,20,40,20.288,0.525,0.1804,-0.4159,0.7202
0.016,0.003,0.01,1.2,-2.8,-2.5,0,2018,5,17,20,40,20.306,0.5247,0.1798,-0.4165,0.7202
0.008,-0.006,0.017,2.7,-5.8,-1.8,0,2018,5,17,20,40,20.329,0.5243,0.1796,-0.4173,0.72
-0.004,0.017,-0.032,2.7,-5.5,-2.5,0,2018,5,17,20,40,20.346,0.524,0.1793,-0.4185,0.7197
0,-0.002,-0.029,2.1,-3.1,-3.3,0,2018,5,17,20,40,20.365,0.5235,0.1792,-0.4196,0.7195
-0.005,0.006,-0.016,1.5,-2.5,-2.2,0,2018,5,17,20,40,20.383,0.523,0.179,-0.4203,0.7194
-0.006,0,-0.004,0,-4.3,-3.6,0,2018,5,17,20,40,20.406,0.5228,0.1786,-0.4208,0.7194
0.004,-0.003,-0.024,-0.4,-3.5,-3.1,0,2018,5,17,20,40,20.424,0.5224,0.178,-0.4215,0.7194
0.018,-0.01,-0.013,0,-1.3,-2.8,0,2018,5,17,20,40,20.447,0.5221,0.1775,-0.4219,0.7195
0.01,-0.003,0.002,2.6,-0.4,-1.3,0,2018,5,17,20,40,20.466,0.5218,0.1772,-0.4221,0.7197
0,0.01,0.002,3.1,-1,-1,0,2018,5,17,20,40,20.489,0.5215,0.1774,-0.4224,0.7197
-0.004,-0.007,0.001,2.1,-2,-1,0,2018,5,17,20,40,20.507,0.5212,0.1775,-0.4229,0.7196
0,0,-0.039,-0.8,-1,-1.1,0,2018,5,17,20,40,20.53,0.521,0.1775,-0.4235,0.7194
0.014,-0.004,-0.01,-0.9,1.4,-0.6,0,2018,5,17,20,40,20.546,0.5209,0.1773,-0.4234,0.7195
0.005,0.011,0.008,0.9,0.8,0,1023,2018,5,17,20,40,20.583,0.5207,0.1775,-0.4233,0.7197
-0.008,-0.002,0.004,1.7,0.3,0,1023,2018,5,17,20,40,20.605,0.5206,0.1777,-0.4234,0.7197
-0.001,0.003,-0.021,0.8,0.9,-0.4,1023,2018,5,17,20,40,20.61,0.5204,0.178,-0.4235,0.7196
0.015,0.009,-0.01,0.3,1.9,-0.5,1023,2018,5,17,20,40,20.628,0.5203,0.1782,-0.4234,0.7198
0.015,0.004,-0.003,1.5,0.3,-0.2,1023,2018,5,17,20,40,20.648,0.5201,0.1785,-0.4234,0.7199
0,-0.005,-0.011,2.1,0.8,0,1023,2018,5,17,20,40,20.667,0.5199,0.1787,-0.4235,0.7199
0.002,0.005,-0.019,1.1,1.7,-0.6,1023,2018,5,17,20,40,20.689,0.5197,0.1789,-0.4235,0.7199
0.006,0.015,-0.027,0.1,1.1,-0.8,1023,2018,5,17,20,40,20.707,0.5196,0.1792,-0.4234,0.7201
0.007,0,0,-0.3,-0.2,-0.6,1023,2018,5,17,20,40,20.73,0.5196,0.1791,-0.4233,0.7202
0.003,-0.008,-0.009,0.4,0.6,-0.2,1023,2018,5,17,20,40,20.749,0.5195,0.1789,-0.4232,0.7202
0,0.004,-0.015,0,2,-0.5,1023,2018,5,17,20,40,20.772,0.5194,0.1791,-0.4231,0.7204
0.007,0.019,-0.013,-2,0.5,-1.3,1023,2018,5,17,20,40,20.792,0.5194,0.1791,-0.4228,0.7205
0.013,0.006,-0.008,-1.4,-0.5,-0.8,1023,2018,5,17,20,40,20.828,0.5195,0.1788,-0.4226,0.7207
0.013,-0.011,0.002,0,0,0,1023,2018,5,17,20,40,20.851,0.5194,0.1785,-0.4226,0.7208
0.002,-0.001,-0.004,0.7,1.1,0.2,1023,2018,5,17,20,40,20.856,0.5194,0.1786,-0.4226,0.7208
0.001,0.012,-0.013,-0.2,0.8,0.3,0,2018,5,17,20,40,20.87,0.5194,0.1788,-0.4225,0.7209
0.01,0.019,-0.015,-1,-0.1,0,0,2018,5,17,20,40,20.888,0.5193,0.179,-0.4225,0.7208
-0.002,0.007,0.005,-1.3,-0.7,0,0,2018,5,17,20,40,20.911,0.5194,0.1789,-0.4224,0.7208
0.005,-0.005,-0.008,-0.7,0.7,0.1,0,2018,5,17,20,40,20.929,0.5194,0.1788,-0.4225,0.7208
0.003,0.012,-0.004,-0.5,0.9,0,0,2018,5,17,20,40,20.974,0.5194,0.1788,-0.4223,0.7209
0.011,0.01,-0.011,-1.4,-0.2,-0.2,0,2018,5,17,20,40,20.977,0.5195,0.1788,-0.4222,0.7209
0.005,0,-0.002,-0.6,0,0,0,2018,5,17,20,40,20.992,0.5195,0.1786,-0.4221,0.721
0.002,0.001,0,0,0.5,0,0,2018,5,17,20,40,21.028,0.5196,0.1786,-0.4221,0.721
0.003,0.001,-0.013,0,0,0,0,2018,5,17,20,40,21.05,0.5196,0.1786,-0.4221,0.721
-0.007,0.031,-0.013,-1.7,-1.8,0.4,0,2018,5,17,20,40,21.053,0.5197,0.1786,-0.4219,0.721
0.002,0.001,-0.021,-1.9,-0.2,-0.6,0,2018,5,17,20,40,21.09,0.5198,0.1783,-0.422,0.7209
0.003,0.003,0,-1.8,0.1,-0.8,0,2018,5,17,20,40,21.09,0.5199,0.178,-0.4218,0.7211
0.001,-0.005,-0.005,-1.6,0.4,-1,0,2018,5,17,20,40,21.113,0.5199,0.1777,-0.4216,0.7213
0.007,0.026,-0.016,-2.7,0.2,-1.2,0,2018,5,17,20,40,21.13,0.52,0.1774,-0.4213,0.7215
0.006,-0.008,0.002,-1.5,-0.5,-1.2,0,2018,5,17,20,40,21.153,0.52,0.1769,-0.4211,0.7217
0.009,0.007,-0.002,-1.1,0.6,-1.2,0,2018,5,17,20,40,21.172,0.52,0.1766,-0.421,0.7218
0.007,0.007,0.001,-0.6,-0.5,-1.2,0,2018,5,17,20,40,21.209,0.52,0.1763,-0.4207,0.722
0.009,0.018,-0.03,-1,-2.3,-2,0,2018,5,17,20,40,21.232,0.52,0.176,-0.4207,0.7221
0.007,0.011,-0.021,-2.4,-1.4,-2.7,0,2018,5,17,20,40,21.236,0.5198,0.1756,-0.4209,0.7222
0.005,-0.007,0.006,-1.8,-1,-1.6,0,2018,5,17,20,40,21.254,0.5198,0.1749,-0.4209,0.7224
0.004,-0.011,-0.006,-1,-0.6,-1.3,0,2018,5,17,20,40,21.272,0.5198,0.1743,-0.4209,0.7226
0.004,-0.004,-0.01,-0.8,0.3,-1,1023,2018,5,17,20,40,21.295,0.5197,0.1741,-0.4209,0.7227
0.011,0.017,-0.016,-2.1,0.4,-1.1,1023,2018,5,17,20,40,21.311,0.5197,0.1739,-0.4207,0.7229
0.013,0.019,0.001,-1.6,-1,-1.3,1023,2018,5,17,20,40,21.348,0.5198,0.1735,-0.4204,0.723
0.007,-0.012,0.005,-0.8,-1,-0.7,1023,2018,5,17,20,40,21.37,0.5197,0.1731,-0.4205,0.7231
0.006,-0.008,-0.014,0,0,0,1023,2018,5,17,20,40,21.375,0.5197,0.1729,-0.4206,0.7231
0.007,0.013,-0.015,-0.5,0.8,0.3,1023,2018,5,17,20,40,21.393,0.5197,0.1729,-0.4205,0.7232
0.015,0.008,-0.011,-0.8,1.3,0.7,1023,2018,5,17,20,40,21.429,0.5199,0.1729,-0.4203,0.7232
0.005,-0.002,0.002,0.2,0.9,1,1023,2018,5,17,20,40,21.453,0.52,0.173,-0.42,0.7233
0.004,0,-0.006,1.1,0.9,0.8,1023,2018,5,17,20,40,21.457,0.52,0.1732,-0.4199,0.7232
0.005,0.007,-0.016,1.1,0.9,0.2,1023,2018,5,17,20,40,21.476,0.5199,0.1736,-0.42,0.7232
0.003,0.016,-0.01,-0.2,0.5,0.1,1023,2018,5,17,20,40,21.493,0.52,0.1739,-0.4199,0.7231
0.006,0.008,-0.001,0,0,0,1023,2018,5,17,20,40,21.515,0.52,0.1739,-0.4199,0.7231
0.003,-0.004,0,0,0,0,1023,2018,5,17,20,40,21.554,0.52,0.1739,-0.4199,0.7231
0.002,-0.002,-0.001,0.4,1,0,1023,2018,5,17,20,40,21.576,0.5199,0.174,-0.4199,0.7231
0.013,0.025,-0.016,-0.3,0.9,0,1023,2018,5,17,20,40,21.58,0.5199,0.1742,-0.4198,0.7231
0.006,0.007,0.006,-0.1,-0.7,0,1023,2018,5,17,20,40,21.597,0.5199,0.1742,-0.4197,0.7231
0.002,-0.001,-0.005,-0.1,-1.5,0,0,2018,5,17,20,40,21.62,0.52,0.1741,-0.4199,0.723
0.001,-0.004,-0.009,0,0,0,0,2018,5,17,20,40,21.635,0.5199,0.1741,-0.4201,0.723
0.004,0.001,-0.011,-0.1,0.9,0,0,2018,5,17,20,40,21.653,0.5199,0.1741,-0.4201,0.723
0.007,0.017,-0.013,-0.8,1.1,-0.1,0,2018,5,17,20,40,21.676,0.5199,0.1742,-0.42,0.7231
0.003,0.005,0,-0.8,0.2,-0.2,0,2018,5,17,20,40,21.712,0.52,0.1742,-0.4197,0.7232
0.005,0,0.004,-0.8,0.3,-0.7,0,2018,5,17,20,40,21.736,0.52,0.174,-0.4196,0.7233
0.011,0,-0.003,0,0.9,-0.5,0,2018,5,17,20,40,21.74,0.5199,0.1738,-0.4194,0.7234
0.009,0.017,-0.005,0,0,0,0,2018,5,17,20,40,21.757,0.52,0.1738,-0.4193,0.7235
0.008,0.005,-0.014,0,0,0,0,2018,5,17,20,40,21.78,0.5199,0.1738,-0.4193,0.7235
0.005,0.002,-0.009,0,0,0,0,2018,5,17,20,40,21.816,0.5199,0.1738,-0.4193,0.7235
0.006,-0.002,-0.009,0.3,1.1,-0.1,0,2018,5,17,20,40,21.839,0.5198,0.1739,-0.4194,0.7235
0.007,0.011,-0.011,0.4,1.4,0,0,2018,5,17,20,40,21.844,0.5198,0.174,-0.4192,0.7236
0.008,0.019,-0.01,-0.8,-0.7,-0.3,0,2018,5,17,20,40,21.857,0.5199,0.174,-0.419,0.7237
0.005,-0.004,-0.004,-0.5,-0.6,-0.2,0,2018,5,17,20,40,21.874,0.52,0.1737,-0.419,0.7237
0.004,-0.008,-0.005,0,0,0,0,2018,5,17,20,40,21.898,0.52,0.1736,-0.419,0.7237
0.003,0.004,-0.008,0.6,1.1,0.2,0,2018,5,17,20,40,21.916,0.5199,0.1738,-0.4191,0.7237
0.004,0.02,-0.015,0,0,0,0,2018,5,17,20,40,21.939,0.5198,0.1741,-0.4191,0.7236
0.005,0,-0.006,-0.9,-1.3,-0.6,0,2018,5,17,20,40,21.957,0.5198,0.174,-0.4192,0.7236
0.002,-0.003,-0.004,0,0,0,0,2018,5,17,20,40,21.98,0.5199,0.1737,-0.4192,0.7236
0.003,0.001,-0.005,-0.1,-0.1,-0.5,0,2018,5,17,20,40,21.999,0.5198,0.1737,-0.4193,0.7236
0.01,0.017,-0.021,-0.8,-0.2,-1.3,0,2018,5,17,20,40,22.022,0.5197,0.1736,-0.4193,0.7237
0.011,0.007,-0.005,-2.3,-0.8,-1.4,1023,2018,5,17,20,40,22.04,0.5198,0.1733,-0.4192,0.7238
0.005,-0.01,-0.007,-1.4,-0.3,-0.6,1023,2018,5,17,20,40,22.058,0.5198,0.1728,-0.4192,0.7239
0.003,0,0,-0.8,0.8,-0.4,1023,2018,5,17,20,40,22.074,0.5198,0.1726,-0.4191,0.7241
0.006,0.011,-0.005,-0.9,0.8,-0.8,1023,2018,5,17,20,40,22.098,0.5198,0.1724,-0.4188,0.7242
0.016,0.02,-0.016,-1.9,-0.6,-0.8,1023,2018,5,17,20,40,22.118,0.5198,0.1724,-0.4187,0.7243
0.01,-0.015,0.004,-0.5,-0.4,0,1023,2018,5,17,20,40,22.136,0.5199,0.172,-0.4186,0.7244
0.006,0.004,-0.002,0,0,0,1023,2018,5,17,20,40,22.159,0.5199,0.172,-0.4187,0.7244
0.004,0,-0.006,0,0,0,1023,2018,5,17,20,40,22.177,0.5199,0.172,-0.4187,0.7243
0.004,0.007,-0.009,0,0,0,1023,2018,5,17,20,40,22.2,0.5199,0.172,-0.4187,0.7243
0.009,0.008,-0.013,-1,-0.2,-0.7,1023,2018,5,17,20,40,22.218,0.5199,0.172,-0.4187,0.7243
0.006,0.006,-0.008,-0.7,-0.1,-0.6,1023,2018,5,17,20,40,22.24,0.5199,0.1718,-0.4187,0.7244
0.006,0,0.002,0,0,0,1023,2018,5,17,20,40,22.279,0.5199,0.1716,-0.4187,0.7244
0.001,0,0,0,0,0,1023,2018,5,17,20,40,22.301,0.5199,0.1716,-0.4187,0.7244
0.004,0.008,-0.011,0,0,0,1023,2018,5,17,20,40,22.304,0.5199,0.1716,-0.4187,0.7244
0.012,0.013,-0.019,-0.7,-0.3,-0.3,1023,2018,5,17,20,40,22.322,0.5199,0.1716,-0.4187,0.7244
0.003,-0.005,0,0,0,0,1023,2018,5,17,20,40,22.36,0.5199,0.1715,-0.4186,0.7244
0.003,0.006,-0.002,-0.2,0.3,-0.9,1023,2018,5,17,20,40,22.381,0.5198,0.1715,-0.4187,0.7245
0.008,0.02,-0.017,-1.1,-0.1,-1.4,1023,2018,5,17,20,40,22.386,0.5198,0.1714,-0.4186,0.7246
0.014,0.006,-0.002,-2.1,-0.5,-1.4,0,2018,5,17,20,40,22.401,0.5198,0.171,-0.4185,0.7248
0.004,-0.011,0,-0.9,-0.2,-0.8,0,2018,5,17,20,40,22.438,0.5197,0.1706,-0.4185,0.7249
0.002,0.006,-0.005,-0.9,0.2,-1,0,2018,5,17,20,40,22.461,0.5196,0.1705,-0.4185,0.725
0.011,0.007,-0.008,-1,0,-1.3,0,2018,5,17,20,40,22.466,0.5196,0.1703,-0.4184,0.7251
0.012,0.008,0.002,-0.3,-0.5,-1.1,0,2018,5,17,20,40,22.482,0.5196,0.17,-0.4182,0.7253
0,-0.004,0,0.3,-1.7,-1.3,0,2018,5,17,20,40,22.503,0.5194,0.1697,-0.4184,0.7253
-0.02,0.039,0.012,-0.9,-2.7,-1.2,0,2018,5,17,20,40,22.523,0.5194,0.1695,-0.4185,0.7254
0.004,-0.006,-0.03,-0.9,-1,-2.8,0,2018,5,17,20,40,22.546,0.5192,0.1691,-0.4189,0.7254
0,0.012,-0.025,-3.2,1.7,-2.5,0,2018,5,17,20,40,22.564,0.5189,0.1687,-0.4189,0.7256
0.007,0,0.001,-4.1,1.6,-2.4,0,2018,5,17,20,40,22.587,0.5188,0.1683,-0.4184,0.7261
0.002,-0.011,-0.004,-3.7,2,-1.8,0,2018,5,17,20,40,22.603,0.5188,0.1678,-0.418,0.7265
0.01,0.007,-0.015,-3.8,3.3,-1.3,0,2018,5,17,20,40,22.621,0.5188,0.1674,-0.4174,0.727
0.017,0.011,-0.01,-3.1,3.4,-1.2,0,2018,5,17,20,40,22.644,0.5189,0.167,-0.4165,0.7275
0.018,0.017,0,-2.6,1.4,-0.9,0,2018,5,17,20,40,22.664,0.5189,0.1668,-0.4158,0.7279
0.007,0.004,0.013,-0.6,-0.7,-0.5,0,2018,5,17,20,40,22.683,0.5189,0.1666,-0.4156,0.7281
0.008,0.001,-0.005,0,-1.1,-0.3,0,2018,5,17,20,40,22.706,0.519,0.1663,-0.4157,0.7281
0.004,-0.003,-0.006,0.5,0,-0.3,0,2018,5,17,20,40,22.722,0.5189,0.1662,-0.4158,0.728
0.01,0.023,-0.018,-0.6,0.3,-0.3,0,2018,5,17,20,40,22.745,0.5189,0.1663,-0.4158,0.728
0.007,0.007,-0.01,0,0,0,0,2018,5,17,20,40,22.763,0.5189,0.1662,-0.4157,0.7281
0,-0.002,-0.004,-0.2,0.5,-0.5,0,2018,5,17,20,40,22.785,0.5189,0.1661,-0.4156,0.7281
-0.002,0.001,-0.006,-0.1,0.6,-0.9,1023,2018,5,17,20,40,22.821,0.5189,0.1661,-0.4155,0.7282
0.002,0.008,-0.02,-1.6,0,-1.8,1023,2018,5,17,20,40,22.821,0.5188,0.1659,-0.4154,0.7284
0.005,-0.009,-0.019,-3.2,0.9,-1.3,1023,2018,5,17,20,40,22.844,0.5188,0.1655,-0.4153,0.7286
0.004,-0.012,0.002,-2.8,2.3,-0.2,1023,2018,5,17,20,40,22.88,0.5188,0.1651,-0.4148,0.7289
0.003,0.004,0.004,-2.1,2,-0.2,1023,2018,5,17,20,40,22.901,0.5188,0.165,-0.4144,0.7292
0.024,0.075,0.002,-2.4,-0.1,-1.9,1023,2018,5,17,20,40,22.903,0.5189,0.1648,-0.414,0.7294
0.027,-0.001,-0.025,-3.1,1.5,-1.7,1023,2018,5,17,20,40,22.94,0.5189,0.1642,-0.4139,0.7295
0.019,0.001,0.002,-2.8,-1.6,-2.4,1023,2018,5,17,20,40,22.963,0.5191,0.1637,-0.4136,0.7297
0,-0.008,0.007,-1.3,0,-1.7,1023,2018,5,17,20,40,22.968,0.519,0.1632,-0.4136,0.7299
0.005,0.003,-0.001,-1.6,-1.1,-2.2,1023,2018,5,17,20,40,22.984,0.5189,0.1627,-0.4136,0.7301
0.005,-0.004,-0.024,-2.5,-0.7,-2.3,1023,2018,5,17,20,40,23.007,0.5188,0.162,-0.4135,0.7303
0.014,0,-0.017,-3.9,0.8,-1.6,1023,2018,5,17,20,40,23.025,0.5188,0.1614,-0.4134,0.7305
0.005,-0.01,0.012,-1.9,2.1,0,1023,2018,5,17,20,40,23.048,0.5189,0.1609,-0.4129,0.7309
0.001,0.002,0.001,-1.1,1.1,0.3,1023,2018,5,17,20,40,23.086,0.5191,0.1608,-0.4124,0.7311
0.005,0,-0.008,-0.4,1.1,0,1023,2018,5,17,20,40,23.109,0.5192,0.1607,-0.4121,0.7312
0.011,0.016,-0.015,-1,0.9,0,1023,2018,5,17,20,40,23.113,0.5193,0.1606,-0.4119,0.7312
0.011,0.008,0.009,-0.7,0,0.2,1023,2018,5,17,20,40,23.129,0.5195,0.1605,-0.4116,0.7313
-0.002,0.001,-0.002,0,0,0,0,2018,5,17,20,40,23.151,0.5195,0.1605,-0.4115,0.7313
0.006,0.001,-0.007,-0.5,0.2,0,0,2018,5,17,20,40,23.168,0.5196,0.1604,-0.4115,0.7313
0.008,0,-0.015,-0.2,0.5,0,0,2018,5,17,20,40,23.185,0.5195,0.1604,-0.4115,0.7313
0.012,0.01,-0.011,0.1,1.3,0.3,0,2018,5,17,20,40,23.208,0.5196,0.1604,-0.4113,0.7314
0.004,0.006,0.001,0.6,0.7,0.8,0,2018,5,17,20,40,23.226,0.5197,0.1605,-0.4111,0.7314
0.003,0.001,0,0.8,0,0.8,0,2018,5,17,20,40,23.248,0.5199,0.1606,-0.411,0.7313
0.004,0.002,-0.002,1,0.1,0.7,0,2018,5,17,20,40,23.266,0.5199,0.1608,-0.4111,0.7312
0.006,0.008,-0.014,0.7,0.3,0.5,0,2018,5,17,20,40,23.29,0.5199,0.1609,-0.4111,0.7311
0.006,0.009,-0.015,0,0,0,0,2018,5,17,20,40,23.308,0.52,0.161,-0.4111,0.7311
0.002,0,-0.009,0,0,0,0,2018,5,17,20,40,23.331,0.52,0.1611,-0.4112,0.731
0.004,0.004,0,0.2,0,0.5,0,2018,5,17,20,40,23.367,0.52,0.1611,-0.4112,0.731
0.007,-0.003,-0.005,0.5,0,0.5,0,2018,5,17,20,40,23.367,0.52,0.1611,-0.4112,0.731
0.008,0.009,-0.017,0,0,0,0,2018,5,17,20,40,23.39,0.5201,0.1611,-0.4113,0.7309
0.01,0.01,-0.012,0,0,0,0,2018,5,17,20,40,23.408,0.52,0.1612,-0.4113,0.7309
0.005,0.005,-0.001,0,0.3,0.7,0,2018,5,17,20,40,23.426,0.5201,0.1612,-0.4113,0.7309
0.003,0.006,-0.001,0.5,-0.4,0.6,0,2018,5,17,20,40,23.449,0.5202,0.1614,-0.4113,0.7308
0.006,0.006,-0.016,0.4,-0.7,0.7,0,2018,5,17,20,40,23.467,0.5203,0.1614,-0.4113,0.7307
0.006,0.005,-0.006,0.3,0,0.7,0,2018,5,17,20,40,23.49,0.5204,0.1614,-0.4114,0.7306
0.003,0.002,-0.006,0,0,0,0,2018,5,17,20,40,23.509,0.5204,0.1616,-0.4115,0.7305
0,0.014,-0.007,0,0,0,0,2018,5,17,20,40,23.532,0.5204,0.1617,-0.4115,0.7304
0.009,0.015,-0.011,-0.3,-0.5,-0.3,0,2018,5,17,20,40,23.55,0.5205,0.1617,-0.4115,0.7304
0.005,-0.006,-0.005,0,0,0,0,2018,5,17,20,40,23.573,0.5204,0.1617,-0.4116,0.7303
0.003,0.002,0,-0.3,0.5,0,1023,2018,5,17,20,40,23.588,0.5204,0.1617,-0.4117,0.7303
0.005,0.023,-0.022,-0.8,0,0,1023,2018,5,17,20,40,23.625,0.5205,0.1617,-0.4116,0.7303
0.009,-0.007,0.008,-0.6,-0.4,-0.4,1023,2018,5,17,20,40,23.648,0.5206,0.1614,-0.4114,0.7304
0.01,0.01,-0.01,0,-0.6,-0.1,1023,2018,5,17,20,40,23.653,0.5205,0.1614,-0.4116,0.7304
0.006,-0.001,-0.009,0,0,0,1023,2018,5,17,20,40,23.669,0.5204,0.1614,-0.4118,0.7303
0.01,0.008,-0.005,0,0,0,1023,2018,5,17,20,40,23.692,0.5204,0.1614,-0.4118,0.7303
0.005,0.001,-0.016,0,0,0,1023,2018,5,17,20,40,23.71,0.5204,0.1614,-0.4119,0.7303
0.007,0.002,0,0,0,0,1023,2018,5,17,20,40,23.733,0.5204,0.1615,-0.412,0.7302
0.002,0,0.002,0,0,0,1023,2018,5,17,20,40,23.751,0.5204,0.1615,-0.412,0.7302
0.004,0.018,-0.002,0,0,0,1023,2018,5,17,20,40,23.774,0.5204,0.1616,-0.412,0.7302
0.003,0.004,-0.009,-0.4,-0.9,-0.7,1023,2018,5,17,20,40,23.793,0.5204,0.1615,-0.4121,0.7302
0.017,0.013,-0.017,-1,-0.4,-0.4,1023,2018,5,17,20,40,23.816,0.5204,0.1613,-0.4122,0.7301
0.007,-0.015,0.007,0.6,-0.1,0.5,1023,2018,5,17,20,40,23.852,0.5204,0.1611,-0.4122,0.7302
0.005,0.007,-0.007,1.3,-0.1,0.6,1023,2018,5,17,20,40,23.852,0.5204,0.1613,-0.4123,0.7301
0.002,0.004,-0.007,0.8,-0.4,0.2,1023,2018,5,17,20,40,23.874,0.5204,0.1616,-0.4124,0.73
0.012,0.003,-0.016,0,0,0,1023,2018,5,17,20,40,23.889,0.5204,0.1616,-0.4125,0.7299
0.006,-0.006,-0.009,0.5,1.2,1,0,2018,5,17,20,40,23.912,0.5203,0.1618,-0.4126,0.7298
0.002,0.012,-0.002,0.5,0.7,0.7,0,2018,5,17,20,40,23.95,0.5204,0.162,-0.4124,0.7298
0.002,0.005,-0.004,0.5,-0.1,0,0,2018,5,17,20,40,23.973,0.5204,0.1622,-0.4124,0.7298
0.006,0.005,-0.01,-0.1,-0.7,0,0,2018,5,17,20,40,23.978,0.5205,0.1621,-0.4124,0.7297
0.003,0,-0.002,0,0,0,0,2018,5,17,20,40,23.992,0.5205,0.1621,-0.4125,0.7297
0.003,0.006,-0.005,0,0,0,0,2018,5,17,20,40,24.014,0.5205,0.1621,-0.4125,0.7297
0.006,0.003,0,0.4,-0.7,0,0,2018,5,17,20,40,24.035,0.5206,0.162,-0.4125,0.7296
0.009,0.013,-0.01,0.2,-0.8,0,0,2018,5,17,20,40,24.072,0.5207,0.1619,-0.4126,0.7296
0.008,0.002,-0.01,0.3,-0.7,0.1,0,2018,5,17,20,40,24.095,0.5206,0.1619,-0.4128,0.7295
0.007,0.001,-0.009,0.5,-0.4,0.3,0,2018,5,17,20,40,24.099,0.5206,0.1619,-0.4129,0.7294
0.007,-0.001,-0.004,0,0,0,0,2018,5,17,20,40,24.112,0.5207,0.162,-0.413,0.7293
0.007,0.013,-0.017,0,0,0,0,2018,5,17,20,40,24.131,0.5206,0.162,-0.4131,0.7293
0.007,0.005,-0.003,-0.5,-0.1,0,0,2018,5,17,20,40,24.151,0.5207,0.162,-0.413,0.7293
0.004,0.006,-0.003,0,0,0,0,2018,5,17,20,40,24.19,0.5207,0.162,-0.4131,0.7293
0.004,0.005,-0.006,0,0,0,0,2018,5,17,20,40,24.213,0.5207,0.1621,-0.4131,0.7292
0.002,-0.001,0.001,0,0,0,0,2018,5,17,20,40,24.218,0.5207,0.1621,-0.4131,0.7292
0.006,0.013,-0.013,-0.5,0.1,0.1,0,2018,5,17,20,40,24.234,0.5207,0.1621,-0.4131,0.7292
0.007,0,0,0,0,0,0,2018,5,17,20,40,24.257,0.5207,0.1621,-0.4131,0.7292
0.004,0,-0.005,0,0,0,0,2018,5,17,20,40,24.276,0.5207,0.1621,-0.4131,0.7292
0.002,0.014,-0.008,0,0,0,0,2018,5,17,20,40,24.3,0.5207,0.1622,-0.4131,0.7292
0.006,0.005,-0.012,-0.2,-0.7,-0.4,0,2018,5,17,20,40,24.314,0.5207,0.1622,-0.4132,0.7291
0.011,-0.002,-0.003,-0.7,-0.1,-0.5,1023,2018,5,17,20,40,24.332,0.5207,0.1622,-0.4133,0.7291
0.003,0.001,-0.002,0,0,0,1023,2018,5,17,20,40,24.356,0.5207,0.1621,-0.4133,0.7291
0.003,0,0,-0.5,0.3,0,1023,2018,5,17,20,40,24.393,0.5207,0.1621,-0.4133,0.7291
0,0.012,-0.01,-0.7,0.2,-0.3,1023,2018,5,17,20,40,24.416,0.5207,0.162,-0.4132,0.7292
0.012,0.003,-0.01,-1.1,0,-0.5,1023,2018,5,17,20,40,24.421,0.5208,0.1619,-0.4131,0.7292
0.011,0.007,-0.008,-1,0,-0.4,1023,2018,5,17,20,40,24.438,0.5207,0.1617,-0.4131,0.7293
0.009,0.003,-0.006,0,0,0,1023,2018,5,17,20,40,24.457,0.5209,0.1615,-0.4129,0.7294
0.004,-0.003,0.002,0.5,-0.1,0,1023,2018,5,17,20,40,24.479,0.5209,0.1614,-0.4129,0.7294
0,0.005,-0.014,0.5,-0.2,0.1,1023,2018,5,17,20,40,24.495,0.5209,0.1614,-0.4129,0.7293
0.004,0.006,-0.003,0,0,0,1023,2018,5,17,20,40,24.518,0.5209,0.1615,-0.4129,0.7293
0.008,0.007,-0.014,-0.2,-0.5,-0.2,1023,2018,5,17,20,40,24.537,0.5209,0.1615,-0.4129,0.7293
0.007,0.001,-0.004,-0.1,-0.5,-0.1,1023,2018,5,17,20,40,24.56,0.521,0.1613,-0.4129,0.7293
0.008,0.009,-0.013,0,0,0,1023,2018,5,17,20,40,24.596,0.521,0.1613,-0.4129,0.7293
0.009,0.01,-0.007,0,0,0,1023,2018,5,17,20,40,24.62,0.5211,0.1613,-0.4129,0.7292
0.005,0.003,-0.006,0,-0.7,-0.3,1023,2018,5,17,20,40,24.625,0.5211,0.1612,-0.413,0.7292
0.009,-0.002,-0.011,0,0,0,0,2018,5,17,20,40,24.637,0.5211,0.1611,-0.4131,0.7292
0.006,0.001,-0.012,0,0,0,0,2018,5,17,20,40,24.672,0.5211,0.161,-0.4132,0.7291
0.007,0.008,-0.009,0,0,0,0,2018,5,17,20,40,24.695,0.5211,0.1611,-0.4132,0.7291
0.01,0.005,-0.012,0,0,0,0,2018,5,17,20,40,24.699,0.5211,0.1612,-0.4133,0.7291
0.006,0.004,-0.002,0.2,-0.6,-0.2,0,2018,5,17,20,40,24.734,0.5211,0.1612,-0.4133,0.729
0.004,0.007,-0.007,0.3,-0.5,-0.2,0,2018,5,17,20,40,24.756,0.5211,0.1611,-0.4133,0.729
0.001,0,-0.009,0,0,0,0,2018,5,17,20,40,24.759,0.5211,0.1611,-0.4134,0.729
0.009,0.01,-0.013,-0.1,-0.5,-0.3,0,2018,5,17,20,40,24.778,0.5211,0.1612,-0.4135,0.7289
0.007,0.003,-0.003,-0.2,-1,-0.5,0,2018,5,17,20,40,24.801,0.5211,0.161,-0.4136,0.7289
0.005,0.001,-0.011,0,-0.7,-0.2,0,2018,5,17,20,40,24.819,0.5211,0.1608,-0.4137,0.7289
0,-0.005,-0.004,0,0,0,0,2018,5,17,20,40,24.842,0.5211,0.1608,-0.4137,0.7289
0.007,0.007,-0.007,0,0,0,0,2018,5,17,20,40,24.86,0.5211,0.1609,-0.4138,0.7288
0.007,0.008,-0.002,0.3,-0.7,0,0,2018,5,17,20,40,24.879,0.5211,0.1609,-0.4139,0.7288
0.011,0.003,-0.011,0.8,-0.5,0,0,2018,5,17,20,40,24.917,0.521,0.1609,-0.4141,0.7287
0.003,0,-0.004,0.8,-0.5,0,0,2018,5,17,20,40,24.94,0.521,0.161,-0.4142,0.7286
0.005,0.008,-0.014,0,0,0,0,2018,5,17,20,40,24.945,0.521,0.161,-0.4144,0.7285
0.008,0.008,-0.002,0.1,-0.5,-0.3,0,2018,5,17,20,40,24.961,0.521,0.161,-0.4144,0.7285
0.006,0.003,-0.005,0.2,-1.1,-0.2,0,2018,5,17,20,40,24.98,0.5209,0.161,-0.4146,0.7285
0.005,-0.004,-0.006,0.3,-0.5,0,0,2018,5,17,20,40,25.003,0.5209,0.1609,-0.4148,0.7284
0.002,0.008,-0.007,0,0,0,0,2018,5,17,20,40,25.02,0.5208,0.161,-0.4149,0.7284
0.011,0.012,-0.008,0,-0.9,-0.2,0,2018,5,17,20,40,25.042,0.5209,0.1609,-0.4149,0.7283
0.005,0.003,-0.003,0,-1,-0.3,0,2018,5,17,20,40,25.058,0.5208,0.1608,-0.4151,0.7283
0.003,0,-0.01,-0.2,-0.7,-0.5,1023,2018,5,17,20,40,25.08,0.5208,0.1607,-0.4153,0.7282
0.006,0.001,-0.007,-0.5,-0.5,-0.7,1023,2018,5,17,20,40,25.098,0.5208,0.1605,-0.4154,0.7282
0.011,0.003,-0.01,-0.5,-0.4,-0.5,1023,2018,5,17,20,40,25.121,0.5208,0.1603,-0.4154,0.7282
0.004,0.002,-0.003,0,0,0,1023,2018,5,17,20,40,25.158,0.5208,0.1602,-0.4154,0.7283
0.002,0.001,0,0,0,0,1023,2018,5,17,20,40,25.18,0.5208,0.1602,-0.4154,0.7283
0.006,0.009,-0.014,0,0,0,1023,2018,5,17,20,40,25.184,0.5208,0.1602,-0.4155,0.7282
0.003,0.006,-0.005,0,0,0,1023,2018,5,17,20,40,25.203,0.5208,0.1603,-0.4155,0.7282
0.001,0.002,-0.004,0,0,0,1023,2018,5,17,20,40,25.239,0.5208,0.1603,-0.4155,0.7282
0.002,0.006,-0.005,-0.2,-0.5,-0.6,1023,2018,5,17,20,40,25.262,0.5208,0.1603,-0.4156,0.7281
0.004,0.005,-0.009,-0.5,-0.7,-0.8,1023,2018,5,17,20,40,25.266,0.5208,0.16,-0.4156,0.7282
0.004,0.002,-0.001,-0.4,-0.8,-0.6,1023,2018,5,17,20,40,25.282,0.5208,0.1598,-0.4156,0.7282
0.009,0.003,-0.008,-0.2,-0.6,-0.2,1023,2018,5,17,20,40,25.303,0.5208,0.1597,-0.4157,0.7282
0.007,0.005,-0.007,0,0,0,1023,2018,5,17,20,40,25.341,0.5208,0.1597,-0.4158,0.7282
0.006,0.004,-0.005,0,0,0,1023,2018,5,17,20,40,25.364,0.5208,0.1597,-0.4158,0.7282
0.015,0.011,-0.006,0,0,0,1023,2018,5,17,20,40,25.369,0.5208,0.1597,-0.4158,0.7282
0.007,0.001,-0.009,0.1,-0.9,0,1023,2018,5,17,20,40,25.387,0.5208,0.1596,-0.4159,0.7281
0.005,-0.003,-0.006,0,0,0,1023,2018,5,17,20,40,25.403,0.5208,0.1595,-0.416,0.7281
0.005,0.004,-0.015,0,0.5,0.2,0,2018,5,17,20,40,25.439,0.5207,0.1596,-0.4161,0.7281
0.004,0.008,-0.01,-0.2,0.8,0,0,2018,5,17,20,40,25.462,0.5207,0.1597,-0.416,0.7281
0.004,0,-0.002,-0.3,0.6,0,0,2018,5,17,20,40,25.467,0.5207,0.1598,-0.416,0.7281
0.004,0.006,-0.002,0,0,0,0,2018,5,17,20,40,25.483,0.5207,0.1599,-0.416,0.7281
0.005,0.001,-0.003,0,0,0,0,2018,5,17,20,40,25.505,0.5207,0.1599,-0.416,0.7281
0.005,0.001,-0.007,0,0,0,0,2018,5,17,20,40,25.524,0.5207,0.1599,-0.416,0.7281
0.005,0.002,-0.011,0,0,0,0,2018,5,17,20,40,25.546,0.5207,0.1599,-0.416,0.728
0.008,0.009,-0.005,0,0,0,0,2018,5,17,20,40,25.566,0.5207,0.16,-0.4161,0.728
0.002,0.005,-0.009,0,0,0,0,2018,5,17,20,40,25.589,0.5207,0.16,-0.4161,0.728
0.008,0.002,-0.004,0,0,0,0,2018,5,17,20,40,25.603,0.5207,0.16,-0.4161,0.728
0.006,0.004,-0.011,0,0,0,0,2018,5,17,20,40,25.623,0.5207,0.16,-0.4161,0.728
0.01,0.009,-0.008,0,0,0,0,2018,5,17,20,40,25.646,0.5207,0.1601,-0.4161,0.728
0.004,-0.001,-0.004,0,0,0,0,2018,5,17,20,40,25.664,0.5207,0.1601,-0.4161,0.728
0.005,0.002,-0.006,0.2,0.5,0.1,0,2018,5,17,20,40,25.687,0.5206,0.1601,-0.4162,0.728
0.008,0.016,-0.012,0,0,0,0,2018,5,17,20,40,25.723,0.5207,0.1602,-0.4162,0.7279
0.004,0.001,-0.004,0,0,0,0,2018,5,17,20,40,25.746,0.5207,0.1602,-0.4162,0.7279
0.007,0.009,-0.002,0,0,0,0,2018,5,17,20,40,25.748,0.5207,0.1602,-0.4162,0.7279
0.003,-0.001,-0.006,0,0,0,0,2018,5,17,20,40,25.767,0.5207,0.1602,-0.4162,0.7279
0.008,0.003,-0.007,0.6,-0.1,0.2,0,2018,5,17,20,40,25.786,0.5207,0.1602,-0.4162,0.7279
0.009,0.008,-0.016,0,0,0,0,2018,5,17,20,40,25.809,0.5207,0.1603,-0.4162,0.7279
0.002,0.005,-0.002,0.1,0.5,0.6,0,2018,5,17,20,40,25.827,0.5207,0.1603,-0.4162,0.7278
0.004,0.004,-0.001,0,0,0,0,2018,5,17,20,40,25.843,0.5208,0.1604,-0.4161,0.7278
0.005,0.009,-0.012,0,0,0,1023,2018,5,17,20,40,25.866,0.5208,0.1604,-0.4161,0.7278
0.006,0.008,-0.018,-0.3,-0.2,-0.5,1023,2018,5,17,20,40,25.884,0.5208,0.1605,-0.4162,0.7278
0.007,-0.002,-0.004,-0.8,0,-0.3,1023,2018,5,17,20,40,25.907,0.5208,0.1604,-0.4161,0.7278
0.003,-0.002,-0.008,0,0,0,1023,2018,5,17,20,40,25.926,0.5208,0.1602,-0.4161,0.7279
0.004,0.006,-0.004,0,0,0,1023,2018,5,17,20,40,25.948,0.5208,0.1603,-0.4161,0.7278
0.006,0.009,-0.012,0,0,0,1023,2018,5,17,20,40,25.967,0.5208,0.1604,-0.4161,0.7278
0.003,0.006,-0.009,0,0,0,1023,2018,5,17,20,40,26.009,0.5208,0.1604,-0.4161,0.7278
0.003,0.006,0,0,0,0,1023,2018,5,17,20,40,26.013,0.5208,0.1604,-0.4162,0.7278
0.002,0.006,-0.006,0,0,0,1023,2018,5,17,20,40,26.047,0.5208,0.1605,-0.4161,0.7278
0.004,0.001,-0.013,0,0,0,1023,2018,5,17,20,40,26.069,0.5208,0.1604,-0.4162,0.7278
0.011,0.005,-0.01,0,0,0,1023,2018,5,17,20,40,26.072,0.5208,0.1605,-0.4162,0.7277
0.007,0.005,-0.001,0,0,0,1023,2018,5,17,20,40,26.109,0.5208,0.1605,-0.4162,0.7277
0.004,0.007,0,0,0,0,1023,2018,5,17,20,40,26.13,0.5208,0.1605,-0.4162,0.7277
0.004,0.003,-0.003,0,0,0,1023,2018,5,17,20,40,26.131,0.5208,0.1605,-0.4162,0.7277
0.003,0.005,-0.017,0,0,0,1023,2018,5,17,20,40,26.147,0.5208,0.1606,-0.4163,0.7277
0.004,-0.001,-0.005,0,0,0,1023,2018,5,17,20,40,26.17,0.5208,0.1606,-0.4163,0.7277
0.002,0.007,-0.008,0,0,0,1023,2018,5,17,20,40,26.187,0.5208,0.1606,-0.4164,0.7276
0.009,0.003,-0.006,0,0,0,0,2018,5,17,20,40,26.212,0.5208,0.1607,-0.4164,0.7276
0.005,0.002,-0.014,0,0,0,0,2018,5,17,20,40,26.228,0.5208,0.1607,-0.4164,0.7276
0.007,0.007,-0.007,-0.5,0.5,0,0,2018,5,17,20,40,26.249,0.5208,0.1606,-0.4163,0.7276
0.007,0.002,-0.004,-0.2,0.5,0,0,2018,5,17,20,40,26.287,0.5208,0.1606,-0.4162,0.7277
0.003,0.004,0.001,0,0,0,0,2018,5,17,20,40,26.31,0.5209,0.1606,-0.4162,0.7277
0.006,0.009,-0.01,0,0,0,0,2018,5,17,20,40,26.315,0.5209,0.1607,-0.4162,0.7276
0.006,0.002,-0.003,-0.6,-0.4,-0.3,0,2018,5,17,20,40,26.331,0.5209,0.1605,-0.4161,0.7277
0.006,0.005,-0.002,-0.7,0,-0.4,0,2018,5,17,20,40,26.355,0.521,0.1603,-0.416,0.7278
0.01,0.002,-0.011,-0.6,0,-0.3,0,2018,5,17,20,40,26.371,0.521,0.1601,-0.416,0.7278
0.003,0.002,-0.008,0,0,0,0,2018,5,17,20,40,26.388,0.5209,0.1601,-0.416,0.7278
0.008,0.006,-0.008,-0.3,0.5,0,0,2018,5,17,20,40,26.412,0.5209,0.1601,-0.416,0.7278
0.006,0.015,-0.003,-0.3,0.5,0,0,2018,5,17,20,40,26.43,0.521,0.1601,-0.4159,0.7279
0.002,0,0.002,0,0,0,0,2018,5,17,20,40,26.453,0.521,0.1601,-0.4159,0.7279
0.004,0.012,-0.004,0,0,0,0,2018,5,17,20,40,26.49,0.521,0.1602,-0.4159,0.7279
0.01,0,-0.008,0,0,0,0,2018,5,17,20,40,26.49,0.521,0.1602,-0.4159,0.7278
0.008,0.004,-0.007,0,0,0,0,2018,5,17,20,40,26.513,0.521,0.1602,-0.4159,0.7278
0.008,0.005,-0.012,0,0,0,0,2018,5,17,20,40,26.548,0.521,0.1602,-0.4159,0.7278
0.007,0.004,-0.005,0,0,0,0,2018,5,17,20,40,26.57,0.521,0.1602,-0.416,0.7278
0.007,0.007,-0.004,0,0.6,0.2,0,2018,5,17,20,40,26.575,0.521,0.1602,-0.4159,0.7278
0.007,0.008,-0.004,0,0,0,0,2018,5,17,20,40,26.592,0.521,0.1603,-0.4159,0.7278
0.007,0.008,-0.014,0,0,0,0,2018,5,17,20,40,26.612,0.521,0.1603,-0.4159,0.7278
0.006,0.003,-0.003,0,0,0,0,2018,5,17,20,40,26.649,0.521,0.1604,-0.4159,0.7278
0.005,0.003,-0.009,0,0,0,0,2018,5,17,20,40,26.672,0.521,0.1604,-0.4159,0.7278
0.003,0.005,-0.003,0,0,0,1023,2018,5,17,20,40,26.674,0.521,0.1604,-0.4159,0.7278
0.007,0,-0.001,0,0,0,1023,2018,5,17,20,40,26.695,0.521,0.1604,-0.4159,0.7277
0.008,0.008,-0.008,0,0,0,1023,2018,5,17,20,40,26.714,0.521,0.1604,-0.416,0.7277
0.011,0.008,-0.006,0,0,0,1023,2018,5,17,20,40,26.752,0.521,0.1604,-0.416,0.7277
0.003,0,0,0,0,0,1023,2018,5,17,20,40,26.773,0.521,0.1604,-0.4159,0.7277
0.003,0.006,-0.005,0,0,0,1023,2018,5,17,20,40,26.777,0.521,0.1605,-0.416,0.7277
0.006,0.014,-0.018,0,-0.5,-0.3,1023,2018,5,17,20,40,26.795,0.521,0.1606,-0.416,0.7277
0.006,-0.001,-0.002,-0.2,-0.6,-0.2,1023,2018,5,17,20,40,26.834,0.521,0.1605,-0.4161,0.7277
0.006,0,-0.007,0,0,0,1023,2018,5,17,20,40,26.834,0.521,0.1604,-0.4162,0.7277
0.008,0.006,-0.011,0,0,0,1023,2018,5,17,20,40,26.858,0.521,0.1603,-0.4162,0.7277
0.008,0.003,-0.003,-0.2,0.5,0,1023,2018,5,17,20,40,26.875,0.521,0.1603,-0.4161,0.7277
0.01,0.011,0.002,0,0,0,1023,2018,5,17,20,40,26.893,0.521,0.1603,-0.416,0.7277
0.004,0.005,-0.006,0,0,0,1023,2018,5,17,20,40,26.915,0.521,0.1603,-0.416,0.7277
0.004,0,0,0,0,0,1023,2018,5,17,20,40,26.934,0.521,0.1604,-0.416,0.7277
0.003,0.003,-0.014,0,0,0,1023,2018,5,17,20,40,26.957,0.521,0.1604,-0.416,0.7277
0.006,0.002,-0.003,0,0,0,1023,2018,5,17,20,40,26.976,0.521,0.1604,-0.416,0.7277
0.008,0.002,-0.007,0,0,0,1023,2018,5,17,20,40,26.996,0.521,0.1603,-0.4161,0.7277
0.004,0,-0.004,0,0,0,0,2018,5,17,20,40,27.019,0.521,0.1603,-0.4161,0.7277
0.006,0.008,-0.008,0,0,0,0,2018,5,17,20,40,27.038,0.521,0.1604,-0.4161,0.7277
0.009,0.008,-0.005,0,0,0,0,2018,5,17,20,40,27.057,0.521,0.1604,-0.4161,0.7277
0.007,0,-0.003,0,0,0,0,2018,5,17,20,40,27.08,0.521,0.1604,-0.4161,0.7277
0.006,0.005,-0.003,0,0,0,0,2018,5,17,20,40,27.117,0.521,0.1604,-0.4161,0.7277
0.007,0.009,-0.012,0,0,0,0,2018,5,17,20,40,27.117,0.521,0.1604,-0.4161,0.7277
0.009,0,-0.008,0,0,0,0,2018,5,17,20,40,27.139,0.521,0.1604,-0.4161,0.7277
0.006,0,-0.001,0,0,0,0,2018,5,17,20,40,27.155,0.521,0.1604,-0.4161,0.7277
0.005,0.009,-0.006,0,0,0,0,2018,5,17,20,40,27.176,0.521,0.1604,-0.4161,0.7277
0.009,-0.004,0,0,0,0,0,2018,5,17,20,40,27.211,0.521,0.1603,-0.4161,0.7277
0.008,0.013,-0.012,0,0.6,0.2,0,2018,5,17,20,40,27.234,0.521,0.1604,-0.416,0.7277
0.004,0.003,0,0,0,0,0,2018,5,17,20,40,27.238,0.5211,0.1604,-0.4159,0.7277
0.004,0.008,-0.006,0,0,0,0,2018,5,17,20,40,27.274,0.5211,0.1604,-0.4159,0.7277
0.007,0.005,-0.006,0,-0.5,-0.3,0,2018,5,17,20,40,27.297,0.5211,0.1604,-0.4159,0.7277
0.01,-0.002,-0.004,0,0,0,0,2018,5,17,20,40,27.302,0.5211,0.1604,-0.4159,0.7277
0.007,0.005,-0.017,0,0,0,0,2018,5,17,20,40,27.318,0.5211,0.1603,-0.416,0.7277
0.008,0.001,-0.002,0,0,0,0,2018,5,17,20,40,27.341,0.5211,0.1603,-0.4159,0.7277
0.008,0.013,-0.006,0,0,0,0,2018,5,17,20,40,27.357,0.5211,0.1603,-0.4159,0.7277
0.007,-0.001,-0.006,0,0,0,0,2018,5,17,20,40,27.376,0.5211,0.1603,-0.4159,0.7277
0.008,0.008,-0.003,0,0,0,0,2018,5,17,20,40,27.399,0.5211,0.1603,-0.4159,0.7277
0.009,0.012,-0.013,-0.3,-0.7,-0.5,0,2018,5,17,20,40,27.417,0.5211,0.1603,-0.4159,0.7277
0.009,0,-0.007,-0.6,-0.6,-0.4,0,2018,5,17,20,40,27.441,0.5211,0.1602,-0.4161,0.7277
0.008,-0.003,-0.005,0,0,0,0,2018,5,17,20,40,27.459,0.521,0.1601,-0.4161,0.7277
0.007,0.007,-0.006,0,0,0,1023,2018,5,17,20,40,27.478,0.521,0.1601,-0.4161,0.7277
0.007,0.007,-0.006,0,0,0,1023,2018,5,17,20,40,27.499,0.521,0.1601,-0.4161,0.7277
0.009,0.002,-0.007,0,0,0,1023,2018,5,17,20,40,27.535,0.5211,0.1601,-0.4161,0.7277
0.007,0,-0.004,0,0,0,1023,2018,5,17,20,40,27.556,0.521,0.1601,-0.4161,0.7277
0.006,0.007,-0.005,0,0,0,1023,2018,5,17,20,40,27.56,0.521,0.1601,-0.4161,0.7277
0.002,0.001,-0.007,0,0,0,1023,2018,5,17,20,40,27.598,0.521,0.1601,-0.4161,0.7277
0.009,0.004,-0.006,-1,-0.2,-0.5,1023,2018,5,17,20,40,27.598,0.5211,0.1599,-0.416,0.7278
0.005,-0.002,-0.003,-0.5,-0.1,-0.5,1023,2018,5,17,20,40,27.621,0.5212,0.1596,-0.4159,0.7279
0.014,0.009,-0.009,-0.3,-0.1,-0.5,1023,2018,5,17,20,40,27.64,0.5212,0.1594,-0.4158,0.7279
0.01,0.002,-0.003,0,0,0,1023,2018,5,17,20,40,27.676,0.5212,0.1593,-0.4158,0.728
0.008,0,0.002,0,0,0,1023,2018,5,17,20,40,27.699,0.5212,0.1593,-0.4158,0.728
0.006,0.005,0,0.7,0.3,0.4,1023,2018,5,17,20,40,27.704,0.5212,0.1594,-0.4158,0.728
0.006,0.008,-0.007,0.6,0.9,0.5,1023,2018,5,17,20,40,27.719,0.5212,0.1595,-0.4157,0.728
0.008,0.003,-0.008,0.1,1.3,0.7,1023,2018,5,17,20,40,27.742,0.5212,0.1597,-0.4156,0.728
0.005,0.008,-0.007,0.1,0.9,0.2,1023,2018,5,17,20,40,27.779,0.5212,0.1598,-0.4154,0.728
0.005,0.006,0,0,0,0,1023,2018,5,17,20,40,27.802,0.5213,0.1599,-0.4153,0.728
0.007,0.005,-0.012,-0.3,-0.5,-0.5,1023,2018,5,17,20,40,27.806,0.5213,0.1597,-0.4154,0.728
0.014,0.005,-0.004,0,0,0,0,2018,5,17,20,40,27.841,0.5213,0.1596,-0.4153,0.7281
0.01,0.001,-0.004,0,0,0,0,2018,5,17,20,40,27.863,0.5213,0.1596,-0.4153,0.7281
0.001,0.007,-0.004,0,0,0,0,2018,5,17,20,40,27.868,0.5213,0.1596,-0.4153,0.7281
0.002,0.005,-0.006,0,0,0,0,2018,5,17,20,40,27.882,0.5213,0.1596,-0.4153,0.7281
0.007,0.007,-0.001,0,0,0,0,2018,5,17,20,40,27.918,0.5213,0.1596,-0.4153,0.7281
0.01,0.007,-0.009,-0.5,-0.5,-0.5,0,2018,5,17,20,40,27.94,0.5213,0.1595,-0.4153,0.7281
0.009,-0.002,-0.005,0,0,0,0,2018,5,17,20,40,27.945,0.5213,0.1594,-0.4154,0.7281
0.007,-0.001,-0.004,0,0,0,0,2018,5,17,20,40,27.981,0.5213,0.1594,-0.4155,0.7281
0.006,0.005,-0.006,0,0,0,0,2018,5,17,20,40,28.004,0.5213,0.1593,-0.4154,0.7281
0.007,0.009,-0.003,0,0,0,0,2018,5,17,20,40,28.008,0.5213,0.1593,-0.4154,0.7281
0.007,0.004,0.003,0,0,0,0,2018,5,17,20,40,28.024,0.5213,0.1594,-0.4154,0.7281
0.006,0.004,-0.003,0,0,0,0,2018,5,17,20,40,28.062,0.5213,0.1594,-0.4154,0.7281
0.006,0.002,-0.005,0,0,0,0,2018,5,17,20,40,28.086,0.5213,0.1594,-0.4154,0.7281
0.005,-0.004,-0.001,0,0,0,0,2018,5,17,20,40,28.09,0.5213,0.1594,-0.4154,0.7281
0.01,0.006,-0.009,0,0.5,0.1,0,2018,5,17,20,40,28.103,0.5213,0.1594,-0.4155,0.7281
0.008,0,-0.008,0,0,0,0,2018,5,17,20,40,28.139,0.5213,0.1594,-0.4155,0.7281
0.008,0.002,-0.006,0,0.5,0,0,2018,5,17,20,40,28.162,0.5212,0.1594,-0.4155,0.7281
0.009,0,-0.001,0,0.6,0.2,0,2018,5,17,20,40,28.167,0.5212,0.1595,-0.4155,0.7281
0.01,0.006,-0.012,0.1,0.9,0.3,0,2018,5,17,20,40,28.184,0.5212,0.1596,-0.4154,0.7281
0.007,0,-0.004,0.3,1.2,0.7,0,2018,5,17,20,40,28.205,0.5212,0.1597,-0.4153,0.7282
0.004,0.003,-0.003,0.4,1.9,0.7,0,2018,5,17,20,40,28.225,0.5212,0.1599,-0.4151,0.7282
0.007,0.008,-0.007,0.3,1.6,0.8,0,2018,5,17,20,40,28.248,0.5213,0.1602,-0.4149,0.7282
0.006,0.011,-0.002,0,0,0,1023,2018,5,17,20,40,28.266,0.5214,0.1603,-0.4147,0.7282
0.007,0.004,-0.008,-0.5,-0.4,-0.3,1023,2018,5,17,20,40,28.288,0.5214,0.1603,-0.4147,0.7282
0.009,0.002,-0.005,-0.5,-0.2,-0.2,1023,2018,5,17,20,40,28.307,0.5214,0.1601,-0.4146,0.7283
0.01,0.005,-0.004,0,0,0,1023,2018,5,17,20,40,28.326,0.5214,0.1601,-0.4147,0.7283
0.004,0.003,-0.003,0,0,0,1023,2018,5,17,20,40,28.348,0.5214,0.1601,-0.4147,0.7283
0.007,0.003,0,0,0,0,1023,2018,5,17,20,40,28.364,0.5214,0.1601,-0.4147,0.7283
0.005,0.008,-0.003,0,0,0,1023,2018,5,17,20,40,28.383,0.5214,0.1601,-0.4147,0.7283
0.01,0.009,-0.008,-0.5,-0.4,-0.4,1023,2018,5,17,20,40,28.405,0.5214,0.1601,-0.4147,0.7283
0.005,-0.003,-0.002,-0.2,-0.8,-0.7,1023,2018,5,17,20,40,28.424,0.5214,0.1599,-0.4147,0.7283
0.007,0.002,-0.007,0,-0.5,-0.5,1023,2018,5,17,20,40,28.447,0.5213,0.1599,-0.4149,0.7283
0.009,0.003,-0.011,0,0,0,1023,2018,5,17,20,40,28.465,0.5213,0.1599,-0.4149,0.7282
0.009,0.004,-0.004,0,0,0,1023,2018,5,17,20,40,28.486,0.5213,0.1599,-0.415,0.7282
0.007,0.005,-0.004,0,0,0,1023,2018,5,17,20,40,28.523,0.5213,0.1599,-0.415,0.7282
0.008,0.002,0,0.5,-0.2,0,1023,2018,5,17,20,40,28.547,0.5213,0.1598,-0.415,0.7282
0.006,0.004,-0.005,0,0,0,1023,2018,5,17,20,40,28.551,0.5213,0.1599,-0.415,0.7282
0.007,0.004,-0.012,0,0,0,0,2018,5,17,20,40,28.568,0.5213,0.1599,-0.415,0.7282
0.01,0.006,-0.005,0,0,0,0,2018,5,17,20,40,28.591,0.5213,0.1599,-0.4151,0.7282
0.006,-0.005,-0.005,0,0,0,0,2018,5,17,20,40,28.609,0.5212,0.1598,-0.4151,0.7282
0.005,0.006,-0.008,-0.2,0.5,0,0,2018,5,17,20,40,28.632,0.5212,0.1598,-0.415,0.7282
0.01,0.006,-0.007,0,0,0,0,2018,5,17,20,40,28.648,0.5213,0.1598,-0.415,0.7282
0.007,0.001,-0.006,0,0,0,0,2018,5,17,20,40,28.686,0.5213,0.1598,-0.415,0.7282
0.005,0.004,-0.001,0,0,0,0,2018,5,17,20,40,28.686,0.5213,0.1598,-0.415,0.7282
0.005,0.005,-0.005,0,0,0,0,2018,5,17,20,40,28.709,0.5213,0.1598,-0.415,0.7282
0.01,0.003,-0.006,0,0,0,0,2018,5,17,20,40,28.727,0.5213,0.1598,-0.415,0.7282
0.006,-0.004,-0.009,0,0,0,0,2018,5,17,20,40,28.75,0.5212,0.1598,-0.4151,0.7282
0.007,0.008,-0.005,0,0,0,0,2018,5,17,20,40,28.768,0.5212,0.1598,-0.4151,0.7282
0.005,0.004,-0.007,0,0,0,0,2018,5,17,20,40,28.792,0.5212,0.1598,-0.4151,0.7282
0.009,0.003,-0.005,0,0,0,0,2018,5,17,20,40,28.808,0.5212,0.1598,-0.4151,0.7282
0.004,0.001,-0.003,0,0,0,0,2018,5,17,20,40,28.832,0.5212,0.1598,-0.4151,0.7282
0.006,0.01,-0.003,0,0,0,0,2018,5,17,20,40,28.848,0.5212,0.1598,-0.4151,0.7282
0.005,-0.001,-0.008,0,0,0,0,2018,5,17,20,40,28.867,0.5212,0.1598,-0.4151,0.7282
0.007,0.002,-0.009,0,0,0,0,2018,5,17,20,40,28.89,0.5212,0.1598,-0.4152,0.7282
0.01,0.004,-0.003,0,0,0,0,2018,5,17,20,40,28.926,0.5212,0.1598,-0.4152,0.7282
0.007,0,-0.008,0,0,0,0,2018,5,17,20,40,28.948,0.5212,0.1598,-0.4152,0.7282
0.009,0.004,-0.008,0,0,0,0,2018,5,17,20,40,28.953,0.5212,0.1598,-0.4152,0.7282
0.008,0.001,-0.007,0,0,0,0,2018,5,17,20,40,28.971,0.5212,0.1598,-0.4152,0.7282
0.013,0.007,-0.01,0,0,0,0,2018,5,17,20,40,28.989,0.5212,0.1598,-0.4152,0.7282
0.007,-0.001,-0.002,0.2,-0.6,0,1023,2018,5,17,20,40,29.013,0.5212,0.1597,-0.4152,0.7282
0.008,-0.001,-0.012,0.7,-0.1,0.3,1023,2018,5,17,20,40,29.03,0.5212,0.1596,-0.4153,0.7281
0.006,0.009,-0.007,0,0,0,1023,2018,5,17,20,40,29.053,0.5212,0.1597,-0.4153,0.7281
0.005,0.008,-0.007,0,0,0,1023,2018,5,17,20,40,29.071,0.5212,0.1597,-0.4153,0.7281
0.005,0.004,-0.002,0,0,0,1023,2018,5,17,20,40,29.094,0.5212,0.1597,-0.4153,0.7281
0.009,0.003,-0.007,0,0,0,1023,2018,5,17,20,40,29.109,0.5212,0.1597,-0.4154,0.7281
0.007,0.005,-0.007,0,0,0,1023,2018,5,17,20,40,29.148,0.5212,0.1597,-0.4154,0.7281
0.005,0.002,-0.011,0,0,0,1023,2018,5,17,20,40,29.171,0.5212,0.1597,-0.4154,0.7281
0.004,-0.001,-0.007,0,0,0,1023,2018,5,17,20,40,29.175,0.5212,0.1597,-0.4155,0.7281
0.006,0.012,-0.012,0,0,0,1023,2018,5,17,20,40,29.191,0.5212,0.1598,-0.4155,0.728
0.007,0.001,-0.003,0,0,0,1023,2018,5,17,20,40,29.212,0.5212,0.1598,-0.4154,0.728
0.009,0,-0.012,0,0,0,1023,2018,5,17,20,40,29.231,0.5212,0.1598,-0.4155,0.728
0.006,0.004,-0.01,0,0,0,1023,2018,5,17,20,40,29.252,0.5212,0.1598,-0.4155,0.728
0.007,0.006,-0.006,0,0,0,1023,2018,5,17,20,40,29.29,0.5212,0.1598,-0.4155,0.728
0.009,0.006,-0.007,0,0,0,1023,2018,5,17,20,40,29.313,0.5212,0.1598,-0.4155,0.728
0.011,0,-0.012,0,0,0,1023,2018,5,17,20,40,29.317,0.5212,0.1598,-0.4156,0.728
0.006,0.002,-0.005,0,0,0,0,2018,5,17,20,40,29.333,0.5211,0.1598,-0.4156,0.728
0.002,0.008,-0.008,0,0,0,0,2018,5,17,20,40,29.356,0.5212,0.1598,-0.4156,0.728
0.005,0.008,-0.003,0,0,0,0,2018,5,17,20,40,29.377,0.5212,0.1598,-0.4156,0.728
0.008,0.004,-0.004,0,0,0,0,2018,5,17,20,40,29.394,0.5212,0.1598,-0.4156,0.728
0.008,-0.004,-0.004,0,0,0,0,2018,5,17,20,40,29.412,0.5212,0.1598,-0.4156,0.728
0.006,0.004,-0.006,0,0,0,0,2018,5,17,20,40,29.435,0.5212,0.1598,-0.4156,0.728
0.008,0.007,-0.017,0,0,0,0,2018,5,17,20,40,29.453,0.5212,0.1598,-0.4156,0.728
0.008,0.003,-0.004,0,0,0,0,2018,5,17,20,40,29.474,0.5212,0.1598,-0.4156,0.728
0.005,0.004,-0.006,0,0,0,0,2018,5,17,20,40,29.513,0.5212,0.1598,-0.4156,0.728
0.003,0.003,0,0,0,0,0,2018,5,17,20,40,29.513,0.5212,0.1598,-0.4156,0.728
0.008,0.008,-0.007,0,0,0,0,2018,5,17,20,40,29.535,0.5212,0.1597,-0.4156,0.728
0.005,0,-0.002,0,-0.5,-0.2,0,2018,5,17,20,40,29.572,0.5212,0.1598,-0.4157,0.7279
0.007,0.007,-0.01,0,0,0,0,2018,5,17,20,40,29.594,0.5212,0.1597,-0.4157,0.7279
0.002,-0.001,-0.002,0,0,0,0,2018,5,17,20,40,29.595,0.5212,0.1597,-0.4157,0.7279
0.01,0.009,-0.008,-0.3,-0.1,-0.5,0,2018,5,17,20,40,29.613,0.5211,0.1597,-0.4157,0.7279
0.005,-0.006,-0.004,0,0,0,0,2018,5,17,20,40,29.647,0.5211,0.1596,-0.4157,0.728
0.003,0.007,-0.008,0,0,0,0,2018,5,17,20,40,29.67,0.5211,0.1596,-0.4158,0.728
0.008,0.009,-0.005,-0.1,-0.1,-0.5,0,2018,5,17,20,40,29.673,0.5211,0.1596,-0.4157,0.7279
0.01,0.003,-0.008,0,0,0,0,2018,5,17,20,40,29.707,0.5211,0.1596,-0.4157,0.728
0.005,-0.001,-0.002,0,0,0,0,2018,5,17,20,40,29.73,0.5211,0.1596,-0.4157,0.728
0.01,0.001,-0.009,0,0,0,0,2018,5,17,20,40,29.735,0.5211,0.1596,-0.4158,0.728
0.006,0.008,-0.006,0,0,0,0,2018,5,17,20,40,29.768,0.5211,0.1596,-0.4158,0.7279
0.01,0.002,-0.009,0,0,0,0,2018,5,17,20,40,29.789,0.5211,0.1596,-0.4158,0.7279
0.005,0,-0.005,0,0,0,0,2018,5,17,20,40,29.798,0.5211,0.1596,-0.4158,0.7279
0.004,0,-0.008,0,0,0,1023,2018,5,17,20,40,29.815,0.5211,0.1595,-0.4159,0.7279
0.006,0.007,-0.009,0,0,0,1023,2018,5,17,20,40,29.833,0.5211,0.1595,-0.4159,0.7279
0.006,0.001,-0.011,0,0,0,1023,2018,5,17,20,40,29.854,0.5211,0.1595,-0.4159,0.7279
0.013,0.002,-0.015,0,0,0,1023,2018,5,17,20,40,29.89,0.5211,0.1595,-0.4159,0.7279
0.006,0,-0.009,0,0,0,1023,2018,5,17,20,40,29.913,0.5211,0.1595,-0.416,0.7279
0.006,0,-0.013,0,0,0,1023,2018,5,17,20,40,29.919,0.5211,0.1595,-0.416,0.7279
0.005,0.009,-0.015,-0.7,0.6,0,1023,2018,5,17,20,40,29.935,0.5211,0.1595,-0.416,0.7279
0.007,-0.006,0,-0.8,0.6,0.2,1023,2018,5,17,20,40,29.957,0.5211,0.1594,-0.4158,0.728
0.005,0.003,0.002,0.3,0.5,0.3,1023,2018,5,17,20,40,29.995,0.5212,0.1593,-0.4156,0.728
0.008,0.011,-0.011,0.5,-0.1,0.3,1023,2018,5,17,20,40,30.015,0.5213,0.1594,-0.4156,0.728
0.006,-0.002,-0.001,1,-0.3,0.5,1023,2018,5,17,20,40,30.02,0.5213,0.1595,-0.4156,0.7279
0.006,0.002,-0.011,1.2,-0.5,0.7,1023,2018,5,17,20,40,30.057,0.5213,0.1596,-0.4158,0.7278
0.005,0.004,-0.007,1,-0.1,0.8,1023,2018,5,17,20,40,30.08,0.5213,0.1598,-0.416,0.7277
0.007,0,-0.001,0.8,-0.2,0.6,1023,2018,5,17,20,40,30.084,0.5214,0.1598,-0.416,0.7276
0.004,0.002,-0.012,0.6,0,0.3,1023,2018,5,17,20,40,30.101,0.5215,0.1598,-0.4159,0.7276
0.004,0.005,-0.01,0,0,0,1023,2018,5,17,20,40,30.123,0.5215,0.1599,-0.416,0.7275
0.007,0.002,-0.006,-0.7,0,0,1023,2018,5,17,20,40,30.138,0.5215,0.1598,-0.416,0.7275
0.006,-0.001,-0.005,-0.5,0.3,0,1023,2018,5,17,20,40,30.175,0.5215,0.1598,-0.416,0.7275
0.002,0.005,-0.002,0,0,0,0,2018,5,17,20,40,30.197,0.5214,0.1598,-0.416,0.7275
0.009,0.006,-0.005,-0.9,0.4,-0.2,0,2018,5,17,20,40,30.202,0.5215,0.1598,-0.4159,0.7276
0.008,0.002,-0.012,-0.9,0.2,-0.2,0,2018,5,17,20,40,30.218,0.5215,0.1596,-0.4157,0.7277
0.008,-0.002,0,0,0,0,0,2018,5,17,20,40,30.241,0.5215,0.1595,-0.4157,0.7277
0.005,0.004,-0.006,0,0,0,0,2018,5,17,20,40,30.277,0.5215,0.1595,-0.4157,0.7277
0.007,0.004,-0.017,0,0,0,0,2018,5,17,20,40,30.3,0.5215,0.1595,-0.4158,0.7277
0.01,0.006,-0.008,-0.5,0.6,0.1,0,2018,5,17,20,40,30.304,0.5216,0.1595,-0.4157,0.7277
0.01,0.004,-0.003,-0.1,0.5,0.4,0,2018,5,17,20,40,30.322,0.5217,0.1594,-0.4155,0.7277
0.007,0.004,-0.002,0,0,0,0,2018,5,17,20,40,30.358,0.5217,0.1594,-0.4155,0.7278
0.005,0.001,-0.008,0,0,0,0,2018,5,17,20,40,30.358,0.5217,0.1595,-0.4155,0.7277
0.01,0.002,-0.008,-0.5,0,0,0,2018,5,17,20,40,30.381,0.5217,0.1595,-0.4156,0.7277
0.009,0,-0.006,0,0,0,0,2018,5,17,20,40,30.399,0.5217,0.1595,-0.4156,0.7277
0.008,0.007,0,0.3,0,0.5,0,2018,5,17,20,40,30.422,0.5217,0.1596,-0.4155,0.7277
0.006,0.005,-0.004,0,0,0,0,2018,5,17,20,40,30.459,0.5217,0.1596,-0.4155,0.7277
0.006,0.007,-0.012,0,0,0,0,2018,5,17,20,40,30.482,0.5217,0.1596,-0.4155,0.7276
0.005,-0.002,-0.002,0,0,0,0,2018,5,17,20,40,30.487,0.5217,0.1596,-0.4156,0.7276
0.002,0.005,-0.005,0,0,0,0,2018,5,17,20,40,30.505,0.5217,0.1597,-0.4156,0.7276
0.001,0.002,-0.001,0,0,0,0,2018,5,17,20,40,30.524,0.5217,0.1597,-0.4156,0.7276
0.007,0.008,-0.009,-0.5,0.2,-0.2,0,2018,5,17,20,40,30.541,0.5217,0.1597,-0.4156,0.7276
0.006,0.004,-0.007,-0.6,-0.2,-0.2,0,2018,5,17,20,40,30.564,0.5218,0.1595,-0.4155,0.7276
0.01,0.005,-0.004,0,0,0,0,2018,5,17,20,40,30.58,0.5218,0.1595,-0.4155,0.7276
0.005,0.004,-0.004,0,0,0,0,2018,5,17,20,40,30.616,0.5218,0.1594,-0.4155,0.7276
0.004,0.005,-0.009,0,0,0,0,2018,5,17,20,40,30.64,0.5218,0.1595,-0.4155,0.7276
0.007,0.003,-0.003,-0.5,0,-0.3,0,2018,5,17,20,40,30.644,0.5219,0.1594,-0.4155,0.7276
0.01,0.002,-0.006,0,0,0,0,2018,5,17,20,40,30.661,0.5219,0.1594,-0.4154,0.7276
0.008,0.006,-0.007,0,0,0,1023,2018,5,17,20,40,30.684,0.5219,0.1594,-0.4154,0.7276
0.004,0.003,-0.011,0,0,0,1023,2018,5,17,20,40,30.702,0.5219,0.1594,-0.4155,0.7276
0.005,0.001,-0.009,-0.6,0,-0.5,1023,2018,5,17,20,40,30.725,0.5219,0.1594,-0.4155,0.7276
0.005,0.002,0,-0.7,-0.1,-0.5,1023,2018,5,17,20,40,30.762,0.5219,0.1592,-0.4154,0.7277
0.009,0.002,-0.002,0,0,0,1023,2018,5,17,20,40,30.785,0.5218,0.1592,-0.4155,0.7277
0.006,0.004,-0.004,0,0,0,1023,2018,5,17,20,40,30.79,0.5218,0.1592,-0.4155,0.7277
0.005,0.006,-0.004,0,0,0,1023,2018,5,17,20,40,30.806,0.5218,0.1592,-0.4155,0.7277
0.009,0.008,-0.005,0,0,0,1023,2018,5,17,20,40,30.828,0.5218,0.1592,-0.4155,0.7277
0.009,0.003,-0.006,0,0,0,1023,2018,5,17,20,40,30.844,0.5218,0.1592,-0.4155,0.7277
0.007,0.003,-0.001,0,0,0,1023,2018,5,17,20,40,30.881,0.5218,0.1592,-0.4155,0.7277
0.006,0.004,-0.01,0,0,0,1023,2018,5,17,20,40,30.881,0.5218,0.1592,-0.4155,0.7277
0.008,0.004,-0.01,0,0,0,1023,2018,5,17,20,40,30.904,0.5218,0.1592,-0.4156,0.7277
0.006,0,-0.005,0,0,0,1023,2018,5,17,20,40,30.923,0.5218,0.1592,-0.4156,0.7277
0.005,0.008,-0.009,-0.5,0.3,0.1,1023,2018,5,17,20,40,30.946,0.5218,0.1591,-0.4156,0.7277
0.005,0.003,0.001,-0.2,0.5,-0.2,1023,2018,5,17,20,40,30.983,0.5218,0.1591,-0.4155,0.7277
0.013,0.013,-0.012,-0.7,-0.1,-0.2,1023,2018,5,17,20,40,31.006,0.5218,0.1592,-0.4155,0.7277
0.009,0,-0.003,0,0,0,1023,2018,5,17,20,40,31.01,0.5218,0.1591,-0.4155,0.7277
0.009,0.001,-0.002,0,0,0,1023,2018,5,17,20,40,31.048,0.5218,0.1591,-0.4155,0.7277
0.006,0.002,-0.006,0,0,0,1023,2018,5,17,20,40,31.051,0.5218,0.1591,-0.4155,0.7277
0.007,0.002,-0.009,0,0,0,0,2018,5,17,20,40,31.067,0.5218,0.159,-0.4155,0.7277
0.008,0.006,-0.005,0,0,0,0,2018,5,17,20,40,31.103,0.5218,0.159,-0.4155,0.7277
0.007,0.009,-0.008,-0.5,-0.1,0,0,2018,5,17,20,40,31.126,0.5219,0.159,-0.4155,0.7277
0.007,0.004,-0.004,-0.5,-0.4,-0.2,0,2018,5,17,20,40,31.131,0.5219,0.159,-0.4155,0.7277
0.006,0,-0.002,-0.5,-0.5,-0.3,0,2018,5,17,20,40,31.146,0.5218,0.1589,-0.4155,0.7277
0.004,0.005,-0.004,0,0,0,0,2018,5,17,20,40,31.164,0.5219,0.1589,-0.4155,0.7277
0.007,0.006,-0.005,0,0,0,0,2018,5,17,20,40,31.188,0.5219,0.1589,-0.4155,0.7277
0.008,-0.004,-0.003,0,0,0,0,2018,5,17,20,40,31.224,0.5218,0.1589,-0.4155,0.7277
0.01,0.005,-0.012,0,0,0,0,2018,5,17,20,40,31.247,0.5218,0.1589,-0.4156,0.7277
0.003,0.002,-0.006,0,0,0,0,2018,5,17,20,40,31.251,0.5218,0.1588,-0.4156,0.7277
0.007,0.005,-0.001,0,0,0,0,2018,5,17,20,40,31.269,0.5218,0.1589,-0.4156,0.7277
0.005,0.007,-0.005,0,0,0,0,2018,5,17,20,40,31.287,0.5218,0.1589,-0.4156,0.7277
0.009,0.004,-0.004,0,0,0,0,2018,5,17,20,40,31.309,0.5218,0.1589,-0.4156,0.7277
0.009,0.001,-0.005,0,0,0,0,2018,5,17,20,40,31.344,0.5218,0.1588,-0.4156,0.7277
0.008,0.009,-0.01,0,0,0,0,2018,5,17,20,40,31.344,0.5218,0.1588,-0.4156,0.7277
0.004,-0.001,-0.006,0,0,0,0,2018,5,17,20,40,31.368,0.5218,0.1588,-0.4157,0.7277
0.007,0.013,-0.007,-0.7,0.1,-0.4,0,2018,5,17,20,40,31.385,0.5218,0.1588,-0.4157,0.7277
0.007,0.002,-0.005,-0.5,-0.2,-0.3,0,2018,5,17,20,40,31.408,0.5218,0.1588,-0.4157,0.7277
0.004,0,0,0,0,0,0,2018,5,17,20,40,31.445,0.5218,0.1587,-0.4156,0.7278
0.009,0.007,-0.009,0,0,0,0,2018,5,17,20,40,31.469,0.5218,0.1587,-0.4156,0.7278
0.006,-0.001,-0.001,0,0,0,0,2018,5,17,20,40,31.473,0.5218,0.1587,-0.4156,0.7278
0.005,0,-0.007,0,0,0,1023,2018,5,17,20,40,31.49,0.5218,0.1587,-0.4157,0.7278
0.005,0.01,-0.014,0,0,0,1023,2018,5,17,20,40,31.508,0.5217,0.1587,-0.4157,0.7277
0.008,0.001,0,-0.5,-0.3,-0.5,1023,2018,5,17,20,40,31.531,0.5218,0.1587,-0.4157,0.7278
0.011,0.001,-0.006,-0.5,-0.3,-0.4,1023,2018,5,17,20,40,31.568,0.5217,0.1585,-0.4158,0.7278
0.005,0.002,-0.003,0,0,0,1023,2018,5,17,20,40,31.591,0.5217,0.1585,-0.4158,0.7278
0.009,0,-0.007,0,0,0,1023,2018,5,17,20,40,31.596,0.5217,0.1585,-0.4158,0.7278
0.009,0.003,0,0,0,0,1023,2018,5,17,20,40,31.61,0.5217,0.1584,-0.4158,0.7278
0.007,0.006,-0.007,0,0,0,1023,2018,5,17,20,40,31.628,0.5217,0.1584,-0.4158,0.7278
0.004,0.002,-0.007,0,0,0,1023,2018,5,17,20,40,31.65,0.5217,0.1584,-0.4158,0.7278
0.005,0.006,-0.012,0,0,0,1023,2018,5,17,20,40,31.685,0.5217,0.1584,-0.4158,0.7278
0.008,-0.001,-0.006,0,0,0,1023,2018,5,17,20,40,31.708,0.5217,0.1584,-0.4158,0.7278
0.009,0.001,-0.008,0.5,0.2,0,1023,2018,5,17,20,40,31.713,0.5217,0.1584,-0.4159,0.7278
0.005,0.002,0,0.2,0.5,0.2,1023,2018,5,17,20,40,31.749,0.5216,0.1585,-0.4159,0.7278
0.004,0.005,-0.01,0,0,0,1023,2018,5,17,20,40,31.772,0.5216,0.1585,-0.4158,0.7278
0.008,0.004,-0.004,0,0,0,1023,2018,5,17,20,40,31.777,0.5216,0.1585,-0.4158,0.7278
0.004,0.01,-0.013,0,0,0,1023,2018,5,17,20,40,31.792,0.5217,0.1585,-0.4158,0.7278
0.007,0.001,0,0,0,0,0,2018,5,17,20,40,31.816,0.5217,0.1585,-0.4158,0.7278
0.005,0.004,-0.014,0,0,0,0,2018,5,17,20,40,31.833,0.5217,0.1585,-0.4158,0.7278
0.009,0.002,-0.009,0,0,0,0,2018,5,17,20,40,31.856,0.5216,0.1585,-0.4158,0.7278
0.008,0,-0.002,0,0,0,0,2018,5,17,20,40,31.872,0.5216,0.1585,-0.4158,0.7278
0.007,0.005,-0.006,0,0,0,0,2018,5,17,20,40,31.896,0.5216,0.1585,-0.4159,0.7278
0.006,0.006,-0.005,0,0,0,0,2018,5,17,20,40,31.912,0.5216,0.1585,-0.4159,0.7278
0.006,0.005,-0.008,0,0,0,0,2018,5,17,20,40,31.93,0.5216,0.1585,-0.4159,0.7278
0.008,0.012,-0.008,0,0,0,0,2018,5,17,20,40,31.953,0.5216,0.1585,-0.4158,0.7278
0.005,0,-0.003,0,0,0,0,2018,5,17,20,40,31.972,0.5216,0.1585,-0.4159,0.7278
0.009,0.005,-0.008,0,0,0,0,2018,5,17,20,40,31.995,0.5216,0.1585,-0.4159,0.7278
0.006,0.005,-0.011,0,0,0,0,2018,5,17,20,40,32.014,0.5216,0.1585,-0.4159,0.7278
0.008,0.001,-0.006,0,0,0,0,2018,5,17,20,40,32.032,0.5216,0.1585,-0.4159,0.7278
0.007,0.001,-0.004,0,0,0,0,2018,5,17,20,40,32.052,0.5216,0.1584,-0.4159,0.7278
0.009,0.004,-0.007,0,0,0,0,2018,5,17,20,40,32.075,0.5216,0.1585,-0.416,0.7277
0.005,0.01,-0.007,0,0,0,0,2018,5,17,20,40,32.094,0.5216,0.1586,-0.416,0.7277
0.008,0.006,-0.011,0,0,0,0,2018,5,17,20,40,32.111,0.5216,0.1586,-0.4159,0.7277
0.004,0.005,-0.008,0,0,0,0,2018,5,17,20,40,32.134,0.5216,0.1586,-0.416,0.7277
0.006,0.003,-0.003,0,0,0,0,2018,5,17,20,40,32.152,0.5216,0.1586,-0.416,0.7277
0.005,0.007,-0.013,0,0,0,0,2018,5,17,20,40,32.175,0.5216,0.1586,-0.416,0.7277
0.009,0.002,-0.01,0,0,0,0,2018,5,17,20,40,32.196,0.5216,0.1586,-0.416,0.7277
0.009,0.001,-0.003,0,0,0,0,2018,5,17,20,40,32.213,0.5216,0.1586,-0.416,0.7277
0.006,0.007,-0.007,0,0,0,0,2018,5,17,20,40,32.237,0.5216,0.1585,-0.416,0.7277
0.007,0.005,-0.003,0,0,0,0,2018,5,17,20,40,32.273,0.5216,0.1585,-0.4161,0.7277
0.004,0.005,-0.006,0.5,-0.1,0.2,0,2018,5,17,20,40,32.296,0.5216,0.1586,-0.4161,0.7277
0.007,0.006,-0.009,0,0,0,1023,2018,5,17,20,40,32.3,0.5216,0.1586,-0.4161,0.7277
0.004,0,-0.008,0,0,0,1023,2018,5,17,20,40,32.319,0.5215,0.1586,-0.4161,0.7277
0.007,0.005,-0.005,0,0,0,1023,2018,5,17,20,40,32.334,0.5215,0.1586,-0.4161,0.7277
0.007,0.005,-0.015,0,0,0,1023,2018,5,17,20,40,32.357,0.5215,0.1586,-0.4161,0.7277
0.006,0.003,-0.006,0,0,0,1023,2018,5,17,20,40,32.377,0.5215,0.1586,-0.4162,0.7276
0.007,0.013,-0.011,0,0,0,1023,2018,5,17,20,40,32.397,0.5215,0.1587,-0.4162,0.7276
0.003,0,-0.001,0,0,0,1023,2018,5,17,20,40,32.415,0.5215,0.1587,-0.4161,0.7276
0.007,0,-0.009,0,0,0,1023,2018,5,17,20,40,32.434,0.5215,0.1586,-0.4162,0.7276
0.006,0.003,-0.012,0,0,0,1023,2018,5,17,20,40,32.457,0.5215,0.1586,-0.4162,0.7276
0.006,0.003,-0.011,0,0,0,1023,2018,5,17,20,40,32.478,0.5215,0.1586,-0.4162,0.7276
0.008,0.005,-0.006,0,0,0,1023,2018,5,17,20,40,32.514,0.5215,0.1586,-0.4163,0.7276
0.004,0.007,-0.005,0,0,0,1023,2018,5,17,20,40,32.534,0.5215,0.1586,-0.4163,0.7276
0.005,0.005,-0.01,0,0,0,1023,2018,5,17,20,40,32.54,0.5215,0.1587,-0.4163,0.7276
0.005,0.001,-0.007,0,0,0,1023,2018,5,17,20,40,32.577,0.5215,0.1586,-0.4163,0.7276
0.004,0.001,-0.004,0,0,0,1023,2018,5,17,20,40,32.577,0.5215,0.1587,-0.4163,0.7276
0.004,0.005,-0.006,0,-0.5,-0.2,1023,2018,5,17,20,40,32.6,0.5215,0.1586,-0.4164,0.7275
0.005,0.004,-0.011,-0.1,-0.8,-0.2,1023,2018,5,17,20,40,32.618,0.5215,0.1587,-0.4165,0.7275
0.009,0.001,-0.01,0,0,0,1023,2018,5,17,20,40,32.642,0.5214,0.1586,-0.4166,0.7275
0.008,0.001,-0.002,0,0,0,0,2018,5,17,20,40,32.658,0.5214,0.1586,-0.4166,0.7275
0.007,0.006,-0.008,0,-0.5,0,0,2018,5,17,20,40,32.677,0.5214,0.1585,-0.4166,0.7275
0.009,0.003,-0.001,0,0,0,0,2018,5,17,20,40,32.7,0.5214,0.1585,-0.4166,0.7275
0.007,0.009,-0.011,0,0,0,0,2018,5,17,20,40,32.719,0.5215,0.1584,-0.4166,0.7275
0.005,0,-0.007,0.6,-0.4,0,0,2018,5,17,20,40,32.739,0.5215,0.1584,-0.4167,0.7275
0.006,0,-0.009,0,0,0,0,2018,5,17,20,40,32.757,0.5214,0.1584,-0.4167,0.7274
0.003,0.01,-0.005,0,0,0,0,2018,5,17,20,40,32.781,0.5214,0.1584,-0.4168,0.7274
0.009,-0.001,-0.006,0,0,0,0,2018,5,17,20,40,32.799,0.5214,0.1584,-0.4168,0.7274
0.007,0.005,-0.005,0,0,0,0,2018,5,17,20,40,32.822,0.5214,0.1584,-0.4168,0.7274
0.005,0.001,-0.008,0,0,0,0,2018,5,17,20,40,32.841,0.5214,0.1584,-0.4168,0.7274
0.006,0.005,-0.006,0,0,0,0,2018,5,17,20,40,32.863,0.5214,0.1584,-0.4168,0.7274
0.008,0.006,-0.015,0,0,0,0,2018,5,17,20,40,32.879,0.5214,0.1584,-0.4169,0.7274
0.006,0,-0.008,0,0,0,0,2018,5,17,20,40,32.898,0.5214,0.1584,-0.4169,0.7274
0.006,0.009,-0.011,0,0,0,0,2018,5,17,20,40,32.921,0.5214,0.1584,-0.4169,0.7274
0.002,0.001,0.002,0,0,0,0,2018,5,17,20,40,32.957,0.5214,0.1584,-0.4169,0.7274
0.005,0.005,-0.01,0,0,0,0,2018,5,17,20,40,32.98,0.5214,0.1584,-0.417,0.7274
0.006,0.005,-0.009,-0.5,0.2,0,0,2018,5,17,20,40,32.985,0.5214,0.1585,-0.417,0.7273
0.009,0.006,-0.012,0,0,0,0,2018,5,17,20,40,33.002,0.5213,0.1585,-0.417,0.7273
0.007,-0.002,-0.004,0,0,0,0,2018,5,17,20,40,33.02,0.5213,0.1585,-0.417,0.7273
0.006,0.005,-0.006,0,0,0,0,2018,5,17,20,40,33.043,0.5213,0.1585,-0.417,0.7273
0.005,0.003,-0.019,0,0,0,0,2018,5,17,20,40,33.061,0.5213,0.1585,-0.4171,0.7273
0.006,0.001,-0.003,-0.5,0,-0.2,0,2018,5,17,20,40,33.084,0.5213,0.1585,-0.4171,0.7273
0.004,0.004,-0.001,-0.7,0,-0.2,0,2018,5,17,20,40,33.1,0.5214,0.1583,-0.4169,0.7274
0.004,0.003,-0.001,0,0,0,0,2018,5,17,20,40,33.12,0.5214,0.1582,-0.4169,0.7274
0.009,0.002,-0.006,0,-0.4,-0.5,0,2018,5,17,20,40,33.143,0.5214,0.1582,-0.4169,0.7274
0.011,0.004,-0.016,0,0,0,0,2018,5,17,20,40,33.177,0.5214,0.1582,-0.4169,0.7274
0.006,0.001,-0.005,0,0,0,1023,2018,5,17,20,40,33.201,0.5214,0.1582,-0.417,0.7274
0.005,0,-0.005,0,0,0,1023,2018,5,17,20,40,33.205,0.5213,0.1582,-0.417,0.7274
0.005,0.005,-0.004,-0.5,0,0,1023,2018,5,17,20,40,33.221,0.5213,0.1582,-0.417,0.7274
0.006,0.006,-0.007,-0.5,-0.2,-0.2,1023,2018,5,17,20,40,33.244,0.5214,0.158,-0.4169,0.7275
0.009,0.002,-0.009,-0.5,-0.2,-0.3,1023,2018,5,17,20,40,33.262,0.5214,0.1579,-0.4169,0.7275
0.009,0.005,-0.004,0,0,0,1023,2018,5,17,20,40,33.285,0.5214,0.1579,-0.4169,0.7275
0.007,0,-0.005,0,0,0,1023,2018,5,17,20,40,33.322,0.5214,0.1579,-0.4169,0.7275
0.014,0.007,-0.004,0,0,0,1023,2018,5,17,20,40,33.345,0.5214,0.1579,-0.4169,0.7275
0.008,0,-0.009,0,0,0,1023,2018,5,17,20,40,33.35,0.5214,0.1578,-0.4169,0.7275
0.009,0.003,-0.011,0,0,0,1023,2018,5,17,20,40,33.362,0.5214,0.1578,-0.417,0.7275
0.005,0.004,-0.001,-0.5,0.1,0,1023,2018,5,17,20,40,33.399,0.5214,0.1578,-0.4169,0.7275
0.009,0.001,-0.004,0,0,0,1023,2018,5,17,20,40,33.422,0.5214,0.1578,-0.4169,0.7275
0.008,0.005,-0.01,0,0.5,0.1,1023,2018,5,17,20,40,33.427,0.5214,0.1578,-0.417,0.7275
0.007,0.001,-0.007,0,0,0,1023,2018,5,17,20,40,33.442,0.5213,0.1578,-0.417,0.7275
0.007,0.002,-0.007,0,0,0,1023,2018,5,17,20,40,33.465,0.5213,0.1578,-0.417,0.7275
0.005,0.001,-0.002,0,0,0,1023,2018,5,17,20,40,33.484,0.5213,0.1578,-0.417,0.7275
0.007,0.001,-0.006,0,0,0,1023,2018,5,17,20,40,33.506,0.5213,0.1578,-0.417,0.7275
0.011,0.009,-0.007,0,0,0,1023,2018,5,17,20,40,33.525,0.5214,0.1578,-0.4169,0.7275
0.005,0.006,-0.001,0,0,0,1023,2018,5,17,20,40,33.548,0.5214,0.1578,-0.4169,0.7275
0.006,0.006,-0.011,0,0,0,0,2018,5,17,20,40,33.564,0.5214,0.1578,-0.4169,0.7275
0.006,0.002,-0.008,-0.7,0,-0.2,0,2018,5,17,20,40,33.588,0.5214,0.1578,-0.4168,0.7275
0.009,-0.004,-0.009,0,0,0,0,2018,5,17,20,40,33.624,0.5214,0.1577,-0.4169,0.7276
0.011,0.002,-0.013,0,0,0,0,2018,5,17,20,40,33.646,0.5214,0.1577,-0.4169,0.7276
0.005,0.003,-0.005,0,0,0,0,2018,5,17,20,40,33.651,0.5214,0.1577,-0.4169,0.7275
0.005,0,-0.001,0.5,0.3,0.3,0,2018,5,17,20,40,33.665,0.5214,0.1577,-0.4169,0.7275
0.006,0.001,-0.008,0.4,0.5,0.2,0,2018,5,17,20,40,33.703,0.5214,0.1577,-0.4169,0.7275
0.004,0.006,-0.001,0.3,0.5,0.2,0,2018,5,17,20,40,33.703,0.5214,0.1577,-0.4168,0.7276
0.006,0.008,-0.008,0,0,0,0,2018,5,17,20,40,33.726,0.5214,0.1577,-0.4168,0.7275
0.008,0.001,-0.007,0,0,0,0,2018,5,17,20,40,33.744,0.5214,0.1578,-0.4168,0.7276
0.008,0.001,-0.006,0,0,0,0,2018,5,17,20,40,33.768,0.5214,0.1577,-0.4168,0.7275
0.009,0.008,-0.008,0,0,0,0,2018,5,17,20,40,33.785,0.5214,0.1577,-0.4168,0.7275
0.007,-0.001,0,0,0,0,0,2018,5,17,20,40,33.808,0.5214,0.1577,-0.4168,0.7275
0.003,0.007,-0.003,0,0,0,0,2018,5,17,20,40,33.826,0.5214,0.1577,-0.4168,0.7276
0.01,0.007,-0.005,0,0,0,0,2018,5,17,20,40,33.849,0.5214,0.1577,-0.4168,0.7275
0.008,0.004,-0.011,0,0,0,0,2018,5,17,20,40,33.868,0.5214,0.1577,-0.4168,0.7276
0.008,0.001,-0.009,0,0,0,0,2018,5,17,20,40,33.885,0.5214,0.1578,-0.4168,0.7275
0.007,0.008,-0.005,0,0,0,0,2018,5,17,20,40,33.908,0.5214,0.1578,-0.4168,0.7275
0.005,0,-0.003,0,0,0,0,2018,5,17,20,40,33.945,0.5214,0.1578,-0.4168,0.7275
0.005,0.003,-0.005,0,0,0,0,2018,5,17,20,40,33.968,0.5214,0.1578,-0.4168,0.7275
0.009,0.005,-0.001,0,0,0,0,2018,5,17,20,40,33.972,0.5214,0.1578,-0.4168,0.7275
0.011,0.008,-0.009,0,0,0,0,2018,5,17,20,40,33.989,0.5214,0.1578,-0.4168,0.7275
0.007,0.002,-0.007,0,0,0,0,2018,5,17,20,40,34.025,0.5214,0.1578,-0.4168,0.7275
0.003,0.005,-0.005,0,0,0,0,2018,5,17,20,40,34.049,0.5214,0.1578,-0.4168,0.7275
0.004,0.008,-0.008,0,0,0,1023,2018,5,17,20,40,34.053,0.5214,0.1578,-0.4168,0.7275
0.01,0.007,-0.005,-0.8,0,-0.4,1023,2018,5,17,20,40,34.066,0.5215,0.1578,-0.4167,0.7275
0.004,-0.005,-0.002,0,0,0,1023,2018,5,17,20,40,34.085,0.5215,0.1576,-0.4167,0.7276
0.004,0.008,-0.006,0,0,0,1023,2018,5,17,20,40,34.108,0.5215,0.1576,-0.4167,0.7276
0.009,0.001,-0.003,0,0,0,1023,2018,5,17,20,40,34.145,0.5215,0.1576,-0.4167,0.7276
0.012,0.008,-0.007,0,0,0,1023,2018,5,17,20,40,34.168,0.5215,0.1576,-0.4167,0.7276
0.005,0.003,-0.006,0,0.5,0.3,1023,2018,5,17,20,40,34.172,0.5215,0.1576,-0.4166,0.7276
0.007,0.009,-0.002,0,0,0,1023,2018,5,17,20,40,34.19,0.5216,0.1576,-0.4166,0.7276
0.008,0.004,-0.009,0,0,0,1023,2018,5,17,20,40,34.207,0.5216,0.1576,-0.4165,0.7276
0.005,0.005,-0.012,0,0,0,1023,2018,5,17,20,40,34.23,0.5216,0.1576,-0.4166,0.7276
0.006,0.003,-0.005,0,0,0,1023,2018,5,17,20,40,34.267,0.5216,0.1577,-0.4166,0.7276
0.004,0.003,-0.004,0,0,0,1023,2018,5,17,20,40,34.29,0.5216,0.1577,-0.4166,0.7276
0.006,0.002,-0.005,0,0,0,1023,2018,5,17,20,40,34.294,0.5216,0.1576,-0.4166,0.7276
0.011,0.017,-0.01,0,0,0,1023,2018,5,17,20,40,34.31,0.5216,0.1577,-0.4166,0.7276
0.006,0.005,-0.009,0,0,0,1023,2018,5,17,20,40,34.333,0.5216,0.1577,-0.4166,0.7276
0.003,0.004,0,0,0,0,1023,2018,5,17,20,40,34.351,0.5216,0.1577,-0.4165,0.7276
0.003,0.004,-0.007,0,0,0,1023,2018,5,17,20,40,34.375,0.5216,0.1577,-0.4165,0.7276
0.01,0.007,-0.012,0,0,0,1023,2018,5,17,20,40,34.411,0.5216,0.1577,-0.4165,0.7276
0.002,-0.001,0,0,0,0,0,2018,5,17,20,40,34.411,0.5216,0.1577,-0.4165,0.7276
0.007,0.012,-0.004,0,0,0,0,2018,5,17,20,40,34.434,0.5216,0.1577,-0.4165,0.7276
0.007,0.011,-0.002,0,0,0,0,2018,5,17,20,40,34.452,0.5216,0.1578,-0.4165,0.7276
0.008,0.009,-0.004,0,-0.5,0,0,2018,5,17,20,40,34.489,0.5217,0.1578,-0.4164,0.7276
0.005,0.006,-0.002,0,0,0,0,2018,5,17,20,40,34.511,0.5217,0.1577,-0.4164,0.7276
0.005,0.008,-0.008,0,0,0,0,2018,5,17,20,40,34.516,0.5217,0.1577,-0.4164,0.7276
0.012,0.004,-0.007,0,0,0,0,2018,5,17,20,40,34.532,0.5217,0.1577,-0.4164,0.7276
0.004,0.003,-0.004,0,0,0,0,2018,5,17,20,40,34.553,0.5217,0.1577,-0.4164,0.7276
0.005,0.002,-0.004,0,0,0,0,2018,5,17,20,40,34.592,0.5217,0.1577,-0.4165,0.7276
0.004,0.008,-0.007,-0.5,0.5,0.2,0,2018,5,17,20,40,34.615,0.5217,0.1577,-0.4164,0.7275
0.004,0.005,0.002,0,0,0,0,2018,5,17,20,40,34.62,0.5218,0.1576,-0.4163,0.7276
0.006,0.012,-0.004,0,0,0,0,2018,5,17,20,40,34.631,0.5218,0.1576,-0.4162,0.7276
0.005,0.005,0.001,0,-0.8,-0.3,0,2018,5,17,20,40,34.65,0.5219,0.1576,-0.4163,0.7276
0.006,0.003,-0.004,0,-0.5,-0.2,0,2018,5,17,20,40,34.673,0.5218,0.1575,-0.4165,0.7275
0.007,0.006,-0.005,0.2,-0.5,-0.1,0,2018,5,17,20,40,34.71,0.5218,0.1575,-0.4165,0.7275
0.009,0.007,-0.008,0,0,0,0,2018,5,17,20,40,34.733,0.5218,0.1575,-0.4166,0.7275
0.007,-0.004,-0.007,0,0,0,0,2018,5,17,20,40,34.738,0.5218,0.1575,-0.4166,0.7275
0.003,0.004,-0.011,0,0,0,0,2018,5,17,20,40,34.755,0.5217,0.1575,-0.4167,0.7275
0.004,0.013,-0.009,0,0,0,0,2018,5,17,20,40,34.775,0.5217,0.1576,-0.4167,0.7274
0.007,0.005,-0.001,0,0,0,0,2018,5,17,20,40,34.793,0.5218,0.1576,-0.4166,0.7274
0.006,0.004,-0.003,0,-0.5,-0.2,0,2018,5,17,20,40,34.817,0.5218,0.1576,-0.4166,0.7274
0.004,0.006,-0.009,0,0,0,0,2018,5,17,20,40,34.832,0.5218,0.1576,-0.4167,0.7274
0.006,0.003,-0.011,-0.4,-0.5,-0.5,0,2018,5,17,20,40,34.851,0.5218,0.1576,-0.4167,0.7274
0.007,-0.002,-0.001,-0.6,0,-0.2,1023,2018,5,17,20,40,34.873,0.5218,0.1574,-0.4167,0.7274
0.006,0.006,-0.004,0,0,0,1023,2018,5,17,20,40,34.891,0.5218,0.1574,-0.4167,0.7274
0.003,0.008,-0.011,0,-0.4,-0.5,1023,2018,5,17,20,40,34.915,0.5218,0.1574,-0.4166,0.7275
0.009,0.004,-0.007,-0.2,-0.4,-0.6,1023,2018,5,17,20,40,34.933,0.5218,0.1572,-0.4166,0.7275
