time_1,time_2,time_3,time_4,time_5,time_6,w,x,y,z,droll,dpitch,dyaw,ax,ay,az,heart
2018,5,10,16,15,9.902,0.3759,-0.4147,0.1121,0.8209,0.3,0,0.5,0.003,-0.006,-0.002,1023
2018,5,10,16,15,9.921,0.3759,-0.4147,0.112,0.821,0,0,0,0.001,-0.006,0.007,1023
2018,5,10,16,15,9.925,0.3759,-0.4147,0.1121,0.8209,0,0,0,-0.001,-0.009,0.009,1023
2018,5,10,16,15,9.964,0.3759,-0.4147,0.1119,0.821,1.1,-0.7,-0.2,-0.002,-0.005,0.006,1023
2018,5,10,16,15,9.985,0.3759,-0.4147,0.112,0.821,1.2,-1.2,0,-0.002,0.002,0.002,1023
2018,5,10,16,15,9.989,0.3759,-0.4147,0.112,0.821,1,-0.9,0,-0.001,0.006,-0.008,1023
2018,5,10,16,15,10.006,0.3758,-0.4149,0.1122,0.8209,0.2,-0.7,0.2,-0.003,0.005,-0.004,0
2018,5,10,16,15,10.043,0.3758,-0.415,0.1124,0.8208,-0.2,-0.7,0.2,0.011,0,-0.001,0
2018,5,10,16,15,10.064,0.3757,-0.4152,0.1123,0.8207,0.1,-1.1,0.5,0,0,-0.004,0
2018,5,10,16,15,10.069,0.3757,-0.4153,0.1122,0.8207,0,0,0,-0.002,-0.001,-0.004,0
2018,5,10,16,15,10.084,0.3758,-0.4154,0.1121,0.8207,-0.3,-0.5,1,-0.002,-0.001,-0.002,0
2018,5,10,16,15,10.121,0.3758,-0.4155,0.1121,0.8206,-0.5,-0.5,0.8,-0.004,0,0.001,0
2018,5,10,16,15,10.142,0.3759,-0.4155,0.1117,0.8206,0.1,-0.3,0.7,-0.027,-0.007,0,0
2018,5,10,16,15,10.146,0.3759,-0.4155,0.1115,0.8206,0.2,-0.2,0.8,-0.009,-0.004,0,0
2018,5,10,16,15,10.166,0.376,-0.4155,0.1113,0.8206,0.6,-0.2,0.8,0.004,0,-0.004,0
2018,5,10,16,15,10.189,0.3761,-0.4156,0.1113,0.8205,0,0,0,0.003,-0.005,0.002,0
2018,5,10,16,15,10.208,0.3762,-0.4156,0.1111,0.8205,-0.3,-0.6,0.5,0.009,-0.004,0.007,0
2018,5,10,16,15,10.228,0.3762,-0.4157,0.111,0.8205,0,0,0,0.01,-0.005,0.005,0
2018,5,10,16,15,10.247,0.3761,-0.4157,0.1109,0.8205,0.2,-0.6,0.2,0.001,0,0.006,0
2018,5,10,16,15,10.268,0.3761,-0.4158,0.1109,0.8205,0.8,-0.9,0,0,-0.003,0.002,0
2018,5,10,16,15,10.291,0.3761,-0.4159,0.1111,0.8204,0.7,-1,0,0.002,-0.001,-0.002,0
2018,5,10,16,15,10.304,0.376,-0.416,0.111,0.8204,0.5,-1.2,0,0.003,0.002,-0.005,0
2018,5,10,16,15,10.342,0.3759,-0.4162,0.1114,0.8203,0.2,-0.8,0,0.011,-0.002,-0.003,0
2018,5,10,16,15,10.365,0.3759,-0.4163,0.1113,0.8203,0,-0.6,0.1,0.002,-0.001,-0.002,0
2018,5,10,16,15,10.369,0.3758,-0.4164,0.1114,0.8202,0,0,0,0.013,-0.001,-0.003,0
2018,5,10,16,15,10.388,0.3758,-0.4165,0.1114,0.8202,0.7,0.2,0.1,-0.004,-0.01,0.007,0
2018,5,10,16,15,10.407,0.3757,-0.4164,0.1115,0.8203,0.5,0.3,0,0.006,0.001,-0.002,0
2018,5,10,16,15,10.448,0.3757,-0.4165,0.1116,0.8202,0,0,0,0.004,0.001,-0.001,0
2018,5,10,16,15,10.467,0.3756,-0.4165,0.1117,0.8202,0,0,0,0.005,0.005,-0.003,0
2018,5,10,16,15,10.471,0.3755,-0.4166,0.1118,0.8202,0,0,0,-0.012,-0.004,-0.003,0
2018,5,10,16,15,10.485,0.3755,-0.4166,0.1119,0.8202,0,0,0,-0.008,-0.005,-0.001,0
2018,5,10,16,15,10.52,0.3755,-0.4167,0.1118,0.8202,0,-0.1,0.5,0.014,-0.007,0.004,0
2018,5,10,16,15,10.543,0.3754,-0.4168,0.1118,0.8202,-0.5,0.4,0,-0.012,-0.015,-0.002,0
2018,5,10,16,15,10.546,0.3754,-0.4168,0.1118,0.8202,0,0,0,0.01,-0.003,0.007,0
2018,5,10,16,15,10.583,0.3753,-0.4168,0.1119,0.8202,-0.5,0,0,0,0,0.001,0
2018,5,10,16,15,10.605,0.3752,-0.4169,0.1118,0.8202,-1,0,0.1,0.002,0.004,0,0
2018,5,10,16,15,10.608,0.3751,-0.4169,0.1115,0.8203,-0.5,0,0.1,0,-0.004,-0.003,0
2018,5,10,16,15,10.629,0.3751,-0.4169,0.1114,0.8203,0.2,0.8,-0.3,-0.011,-0.017,-0.004,1023
2018,5,10,16,15,10.649,0.3751,-0.4167,0.1112,0.8204,0.2,1.4,0,0.001,-0.003,0.01,1023
2018,5,10,16,15,10.671,0.3751,-0.4165,0.1109,0.8206,0,1.2,-0.6,-0.003,-0.007,0.009,1023
2018,5,10,16,15,10.689,0.375,-0.4163,0.1109,0.8208,0.5,0.6,-1.1,-0.02,-0.01,0.007,1023
2018,5,10,16,15,10.727,0.3749,-0.4161,0.1111,0.8208,1.1,0.3,-0.7,0,0,0,1023
2018,5,10,16,15,10.747,0.3748,-0.4159,0.111,0.821,1,0.2,-0.8,0.003,-0.001,0,1023
2018,5,10,16,15,10.751,0.3747,-0.4159,0.1112,0.8211,0.4,0.4,-0.5,0.006,-0.006,-0.008,1023
2018,5,10,16,15,10.77,0.3746,-0.4158,0.1112,0.8211,0,0.8,-0.5,-0.015,-0.003,-0.005,1023
2018,5,10,16,15,10.789,0.3744,-0.4158,0.1112,0.8212,-0.3,0.8,-0.3,0.005,-0.001,-0.003,0
2018,5,10,16,15,10.809,0.3743,-0.4156,0.1109,0.8214,0,0.9,-0.6,0,0,0,0
2018,5,10,16,15,10.829,0.3742,-0.4154,0.1106,0.8216,-0.3,0.9,-0.6,-0.001,0.002,0.009,0
2018,5,10,16,15,10.849,0.374,-0.4153,0.1106,0.8217,-0.5,0.6,-0.3,-0.002,0,0.004,0
2018,5,10,16,15,10.888,0.3739,-0.4153,0.1107,0.8218,-0.1,0.5,0,-0.004,0,0.007,0
2018,5,10,16,15,10.909,0.3739,-0.4152,0.1106,0.8219,-0.2,0.5,0,-0.002,0,0.004,0
2018,5,10,16,15,10.913,0.3738,-0.4151,0.1104,0.822,-0.3,0.5,-0.1,-0.003,0,0,0
2018,5,10,16,15,10.932,0.3737,-0.415,0.11,0.8221,-0.5,0.9,0,-0.003,-0.002,-0.004,0
2018,5,10,16,15,10.952,0.3736,-0.4148,0.1096,0.8223,-0.4,0.9,0,-0.002,-0.004,0.001,0
2018,5,10,16,15,10.988,0.3736,-0.4147,0.1092,0.8224,-0.1,0.9,0,-0.018,-0.009,0.001,0
2018,5,10,16,15,11.009,0.3735,-0.4145,0.109,0.8226,-0.3,0.5,-0.2,-0.006,-0.002,0.002,0
2018,5,10,16,15,11.013,0.3735,-0.4145,0.1091,0.8226,0,0,0,0,0,0.004,0
2018,5,10,16,15,11.031,0.3734,-0.4145,0.1091,0.8226,0,0,0,0.001,0.001,0,0
2018,5,10,16,15,11.068,0.3733,-0.4145,0.1091,0.8227,0,0,0,-0.001,0.004,-0.001,0
2018,5,10,16,15,11.089,0.3732,-0.4145,0.1092,0.8227,0,0,0,-0.001,0.001,0,0
2018,5,10,16,15,11.093,0.3731,-0.4144,0.109,0.8228,0.2,0.6,0,0.016,-0.007,0,0
2018,5,10,16,15,11.113,0.3731,-0.4144,0.1089,0.8229,-0.4,0.7,0,0,-0.004,-0.002,0
2018,5,10,16,15,11.134,0.373,-0.4143,0.1087,0.823,-0.2,0.8,-0.2,0,0,0.002,0
2018,5,10,16,15,11.154,0.3729,-0.4142,0.1086,0.8231,0,0.6,-0.5,0,0,0.003,0
2018,5,10,16,15,11.174,0.3727,-0.4141,0.1086,0.8232,-0.1,0.5,-0.2,0,0.002,0,0
2018,5,10,16,15,11.191,0.3726,-0.414,0.1083,0.8233,-0.2,0.5,-0.2,0,-0.001,0,0
2018,5,10,16,15,11.211,0.3726,-0.414,0.1082,0.8234,-0.2,0.6,-0.1,0,-0.003,0,0
2018,5,10,16,15,11.249,0.3725,-0.4139,0.1079,0.8235,-0.3,0.7,0,-0.001,0,0,0
2018,5,10,16,15,11.27,0.3724,-0.4138,0.1078,0.8236,-0.2,0.5,-0.2,-0.002,-0.003,0.003,0
2018,5,10,16,15,11.274,0.3723,-0.4137,0.1076,0.8237,0.1,0.6,-0.4,-0.001,-0.004,0.001,0
2018,5,10,16,15,11.311,0.3722,-0.4136,0.1077,0.8238,0,0,0,0,-0.003,0,0
2018,5,10,16,15,11.331,0.3721,-0.4137,0.108,0.8238,0,0,0,-0.002,0.006,0.001,0
2018,5,10,16,15,11.335,0.372,-0.4137,0.1081,0.8238,-0.7,0.1,-0.2,-0.003,0.004,0.002,0
2018,5,10,16,15,11.371,0.3718,-0.4136,0.1077,0.8239,0,0,0,-0.001,-0.001,-0.003,0
2018,5,10,16,15,11.393,0.3718,-0.4137,0.1077,0.8239,0.2,0.8,0,0.001,-0.005,-0.003,0
2018,5,10,16,15,11.397,0.3717,-0.4136,0.1075,0.824,0,1.2,-0.5,0.004,-0.005,0,0
2018,5,10,16,15,11.413,0.3716,-0.4134,0.1071,0.8243,-0.2,1.4,-0.7,0.001,-0.008,0.003,1023
2018,5,10,16,15,11.452,0.3714,-0.4131,0.1067,0.8245,-0.3,1,-0.9,-0.003,-0.006,0.011,1023
2018,5,10,16,15,11.456,0.3713,-0.4129,0.1067,0.8247,1.1,0.3,-0.7,-0.005,0,0.004,1023
2018,5,10,16,15,11.472,0.3713,-0.4127,0.1069,0.8248,1.5,-0.1,-0.4,-0.003,0.002,0.003,1023
2018,5,10,16,15,11.513,0.3712,-0.4126,0.107,0.8248,1,0,-0.3,0.001,0.005,0,1023
2018,5,10,16,15,11.53,0.3711,-0.4126,0.1072,0.8248,0,0,0,0,-0.001,-0.007,1023
2018,5,10,16,15,11.533,0.3709,-0.4127,0.1073,0.8249,-0.2,0.4,-0.6,0,0,-0.004,1023
2018,5,10,16,15,11.568,0.3706,-0.4125,0.107,0.8251,0,0.8,-0.4,-0.001,0.003,0.006,1023
2018,5,10,16,15,11.59,0.3705,-0.4123,0.1069,0.8253,-0.3,0.5,-0.1,0,0,0.003,1023
2018,5,10,16,15,11.594,0.3704,-0.4123,0.1068,0.8254,-0.3,0.5,-0.1,-0.003,-0.003,0.006,0
2018,5,10,16,15,11.63,0.3703,-0.4123,0.1068,0.8254,0,0,0,-0.004,0.001,0.004,0
2018,5,10,16,15,11.648,0.3703,-0.4123,0.107,0.8254,0,0,0,-0.001,0.001,0.001,0
2018,5,10,16,15,11.658,0.3702,-0.4124,0.1071,0.8254,0,0,0,0,0.001,0.001,0
2018,5,10,16,15,11.675,0.3702,-0.4124,0.1072,0.8254,0,0,0,-0.001,-0.003,0.001,0
2018,5,10,16,15,11.712,0.3701,-0.4124,0.1071,0.8254,0,0,0,-0.005,-0.006,0.003,0
2018,5,10,16,15,11.733,0.3701,-0.4124,0.1072,0.8254,0,0,0,-0.005,-0.003,0.003,0
2018,5,10,16,15,11.737,0.3699,-0.4125,0.1074,0.8254,0,-0.1,-0.5,-0.001,0.001,0.004,0
2018,5,10,16,15,11.757,0.3698,-0.4125,0.1074,0.8254,0,0,0,-0.001,0.004,0,0
2018,5,10,16,15,11.777,0.3698,-0.4125,0.1076,0.8254,0,0,0,-0.002,-0.002,-0.001,0
2018,5,10,16,15,11.814,0.3697,-0.4126,0.1077,0.8254,0,0,0,-0.002,-0.001,0,0
2018,5,10,16,15,11.834,0.3696,-0.4127,0.1079,0.8254,0,0,0,0.003,0,0,0
2018,5,10,16,15,11.838,0.3695,-0.4127,0.108,0.8254,0,0,0,-0.002,-0.001,0.001,0
2018,5,10,16,15,11.86,0.3695,-0.4128,0.1082,0.8254,0,0,0,-0.001,0.003,0,0
2018,5,10,16,15,11.879,0.3694,-0.4128,0.1083,0.8254,0,0,0,-0.003,0,0.002,0
2018,5,10,16,15,11.896,0.3693,-0.4128,0.1085,0.8254,0,0,0,-0.002,-0.005,0,0
2018,5,10,16,15,11.917,0.3693,-0.4129,0.1086,0.8253,0,0,0,-0.001,-0.002,-0.003,0
2018,5,10,16,15,11.938,0.3692,-0.4129,0.1087,0.8253,0,0,0,-0.004,0.001,0.002,0
2018,5,10,16,15,11.974,0.3691,-0.4129,0.1089,0.8254,0,0,0,0,0,0.005,0
2018,5,10,16,15,11.994,0.369,-0.4129,0.1089,0.8254,-0.7,0,0.1,-0.002,0,-0.003,0
2018,5,10,16,15,11.998,0.3689,-0.413,0.1085,0.8255,-0.6,0,0.1,-0.004,-0.005,-0.004,0
2018,5,10,16,15,12.038,0.3689,-0.4129,0.1084,0.8255,0.3,0.8,-0.5,0.002,-0.003,0.008,0
2018,5,10,16,15,12.058,0.3688,-0.4128,0.1085,0.8256,0,0.4,-0.5,0,-0.002,0.004,0
2018,5,10,16,15,12.062,0.3687,-0.4127,0.1082,0.8257,0.1,0.2,-0.6,-0.002,-0.005,0.004,0
2018,5,10,16,15,12.08,0.3687,-0.4125,0.1081,0.8258,1,0.1,-0.4,-0.005,0.001,0.001,0
2018,5,10,16,15,12.1,0.3686,-0.4122,0.108,0.826,0.7,0,-0.2,-0.004,0.002,-0.002,0
2018,5,10,16,15,12.118,0.3685,-0.4123,0.1082,0.826,0,0,0,0,-0.001,-0.003,0
2018,5,10,16,15,12.138,0.3685,-0.4124,0.1083,0.826,0,0,0,0.001,-0.001,-0.002,0
2018,5,10,16,15,12.157,0.3684,-0.4124,0.1085,0.826,0,0,0,0,0,0.007,0
2018,5,10,16,15,12.178,0.3683,-0.4124,0.1086,0.826,0,0,0,-0.002,0,0.006,0
2018,5,10,16,15,12.199,0.3683,-0.4124,0.1087,0.826,0,0,0,-0.002,0,0,0
2018,5,10,16,15,12.218,0.3683,-0.4124,0.1088,0.826,0,0,0,-0.002,0.002,0,1023
2018,5,10,16,15,12.238,0.3682,-0.4124,0.1088,0.826,-0.5,0.4,0.3,-0.003,-0.002,0.001,1023
2018,5,10,16,15,12.279,0.3682,-0.4124,0.1087,0.8261,0,0,0,-0.004,-0.002,0.004,1023
2018,5,10,16,15,12.299,0.3682,-0.4124,0.1087,0.8261,0,0,0,-0.003,-0.007,0.005,1023
2018,5,10,16,15,12.303,0.3682,-0.4124,0.1088,0.8261,0,0,0,0,-0.004,0.001,1023
2018,5,10,16,15,12.322,0.3681,-0.4124,0.1088,0.826,0,0,0,-0.001,-0.004,0,1023
2018,5,10,16,15,12.341,0.3681,-0.4125,0.1089,0.826,0,0,0,-0.003,-0.001,-0.001,1023
2018,5,10,16,15,12.361,0.3681,-0.4125,0.109,0.826,0.5,-0.1,-0.2,0,0.001,0,1023
2018,5,10,16,15,12.377,0.368,-0.4125,0.1091,0.826,0,0,0,-0.001,0.003,0.004,0
2018,5,10,16,15,12.418,0.368,-0.4125,0.1092,0.826,0,0,0,0,0.001,0.005,0
2018,5,10,16,15,12.437,0.3679,-0.4126,0.1093,0.826,0,0,0,0,0,0,0
2018,5,10,16,15,12.441,0.3679,-0.4126,0.1093,0.826,0,0,0,0,0,0,0
2018,5,10,16,15,12.48,0.3679,-0.4126,0.1094,0.826,0,0,0,-0.006,-0.001,0,0
2018,5,10,16,15,12.5,0.3678,-0.4126,0.1095,0.826,0,0,0,-0.003,0.001,0.001,0
2018,5,10,16,15,12.504,0.3678,-0.4126,0.1095,0.826,0,0,0,-0.001,0.002,0,0
2018,5,10,16,15,12.521,0.3677,-0.4126,0.1096,0.826,0,0,0,0,0,0.001,0
2018,5,10,16,15,12.54,0.3677,-0.4127,0.1097,0.826,0,0,0,0,-0.005,0,0
2018,5,10,16,15,12.578,0.3677,-0.4126,0.1095,0.8261,0,0,0,-0.003,-0.001,0.005,0
2018,5,10,16,15,12.582,0.3677,-0.4126,0.1095,0.8261,0,0,0,0.001,-0.004,0.004,0
2018,5,10,16,15,12.601,0.3677,-0.4126,0.1096,0.8261,0,0,0,-0.001,-0.003,0.005,0
2018,5,10,16,15,12.62,0.3677,-0.4126,0.1096,0.8261,0,0,0,-0.001,-0.001,0.005,0
2018,5,10,16,15,12.642,0.3676,-0.4127,0.1096,0.826,0,0,0,-0.004,-0.007,-0.003,0
2018,5,10,16,15,12.68,0.3676,-0.4126,0.1096,0.8261,0,0,0,-0.001,0,0.002,0
2018,5,10,16,15,12.699,0.3676,-0.4126,0.1097,0.8261,0,0,0,-0.004,0.003,0.001,0
2018,5,10,16,15,12.703,0.3675,-0.4126,0.1096,0.8261,-0.7,-0.1,0,-0.003,0.002,-0.001,0
2018,5,10,16,15,12.721,0.3675,-0.4127,0.1093,0.8262,0,0,0,0,-0.004,0.001,0
2018,5,10,16,15,12.742,0.3675,-0.4127,0.1093,0.8261,0.7,0.3,0,0.006,-0.009,0.001,0
2018,5,10,16,15,12.782,0.3675,-0.4125,0.1093,0.8262,1.9,1,-0.3,0.006,-0.005,-0.001,0
2018,5,10,16,15,12.786,0.3675,-0.4123,0.1092,0.8264,-0.3,0.6,-0.3,0,0,0.008,0
2018,5,10,16,15,12.804,0.3674,-0.4122,0.1093,0.8264,0.4,0.6,-0.3,0,-0.001,0.002,0
2018,5,10,16,15,12.823,0.3674,-0.412,0.109,0.8266,1.1,0,-0.2,-0.005,-0.003,0.006,0
2018,5,10,16,15,12.843,0.3675,-0.4118,0.1092,0.8266,1.6,-0.1,-0.3,-0.003,0.003,0,0
2018,5,10,16,15,12.864,0.3675,-0.4118,0.1093,0.8266,1,-0.4,-0.2,-0.001,0,-0.006,0
2018,5,10,16,15,12.882,0.3675,-0.4118,0.1095,0.8266,0.5,-0.2,-0.3,0,0,-0.004,0
2018,5,10,16,15,12.902,0.3674,-0.4119,0.1097,0.8265,0,0,0,0.002,0.002,0.001,0
2018,5,10,16,15,12.92,0.3673,-0.4119,0.1097,0.8265,0,0,0,-0.003,0.003,0,0
2018,5,10,16,15,12.962,0.3673,-0.4119,0.1095,0.8266,-0.5,0.3,0,-0.005,0,0.009,0
2018,5,10,16,15,12.981,0.3672,-0.4118,0.1094,0.8267,-0.5,0.1,0,-0.002,0,0,1023
2018,5,10,16,15,12.985,0.3672,-0.4118,0.1093,0.8267,0,0,0,-0.003,-0.002,0.001,1023
2018,5,10,16,15,13.004,0.3672,-0.4118,0.1093,0.8267,0,0,0,-0.001,-0.003,0.001,1023
2018,5,10,16,15,13.022,0.3672,-0.4118,0.1094,0.8267,0,0,0,-0.005,-0.008,0.005,1023
2018,5,10,16,15,13.042,0.3672,-0.4118,0.1094,0.8267,0,0,0,-0.002,-0.002,0.005,1023
2018,5,10,16,15,13.082,0.3671,-0.4119,0.1094,0.8267,0,0,0,0,-0.005,0,1023
2018,5,10,16,15,13.101,0.3671,-0.4119,0.1094,0.8267,0.2,-0.6,-0.2,-0.001,-0.005,0.003,1023
2018,5,10,16,15,13.105,0.3671,-0.4119,0.1093,0.8267,0.2,-0.7,-0.5,0,0.001,0.002,1023
2018,5,10,16,15,13.122,0.367,-0.4119,0.1091,0.8268,0,-0.9,-0.3,0,0.001,0,0
2018,5,10,16,15,13.161,0.3669,-0.412,0.109,0.8268,0,-0.6,0,0,-0.001,-0.004,0
2018,5,10,16,15,13.183,0.3668,-0.412,0.1091,0.8268,0,0,0,0,0.001,0,0
2018,5,10,16,15,13.187,0.3668,-0.4121,0.1091,0.8268,0,0,0,0.001,-0.002,0,0
2018,5,10,16,15,13.208,0.3668,-0.4121,0.1092,0.8268,0,0,0,0,-0.002,0.004,0
2018,5,10,16,15,13.227,0.3668,-0.4121,0.1091,0.8268,0.6,-0.4,0,0,0,0.002,0
2018,5,10,16,15,13.246,0.3668,-0.412,0.109,0.8268,0.6,-0.6,0,0,0,0.002,0
2018,5,10,16,15,13.266,0.3668,-0.4121,0.1086,0.8268,0.1,-0.6,0.3,-0.003,-0.001,0.002,0
2018,5,10,16,15,13.302,0.3668,-0.4122,0.1086,0.8268,-0.2,-0.7,0.5,0,0,0,0
2018,5,10,16,15,13.321,0.3669,-0.4123,0.1085,0.8267,-0.1,-0.6,0.7,-0.001,-0.001,-0.001,0
2018,5,10,16,15,13.325,0.3669,-0.4124,0.1085,0.8267,-0.2,-0.5,0.5,-0.001,-0.004,0.004,0
2018,5,10,16,15,13.343,0.367,-0.4126,0.1083,0.8266,0,-0.6,0.3,-0.001,-0.003,0.004,0
2018,5,10,16,15,13.366,0.367,-0.4126,0.108,0.8266,0.5,-0.8,0.2,0,0,0,0
2018,5,10,16,15,13.405,0.367,-0.4127,0.1079,0.8265,0.5,-1,0.3,0,-0.002,0.001,0
2018,5,10,16,15,13.423,0.3671,-0.4128,0.1079,0.8265,0.1,-1,0.3,0,0,0,0
2018,5,10,16,15,13.427,0.367,-0.4129,0.1076,0.8265,-0.5,-0.7,0.3,0,0,-0.005,0
2018,5,10,16,15,13.446,0.367,-0.4131,0.1076,0.8264,-0.3,-0.7,0.5,-0.001,-0.004,-0.007,0
2018,5,10,16,15,13.466,0.367,-0.4132,0.1074,0.8263,0,0,0,0,-0.005,0.004,0
2018,5,10,16,15,13.483,0.367,-0.4133,0.1074,0.8263,0,0,0,0.003,-0.003,0.006,0
2018,5,10,16,15,13.52,0.3669,-0.4133,0.1075,0.8263,0,0,0,0,-0.005,0.005,0
2018,5,10,16,15,13.544,0.367,-0.4132,0.1075,0.8263,1.3,-0.3,-0.2,0.002,-0.009,0.009,0
2018,5,10,16,15,13.548,0.367,-0.4132,0.1077,0.8263,2,-0.7,-0.6,0,-0.002,0.002,0
2018,5,10,16,15,13.567,0.367,-0.4131,0.1081,0.8263,2.2,-0.6,-0.6,-0.001,0.006,0,0
2018,5,10,16,15,13.587,0.3669,-0.413,0.1086,0.8263,0.8,-0.6,-0.2,0,0.002,-0.008,0
2018,5,10,16,15,13.624,0.3669,-0.4131,0.1086,0.8263,0.5,-0.4,-0.1,0.003,0,-0.004,0
2018,5,10,16,15,13.645,0.3668,-0.4132,0.1087,0.8263,0,0,0,0,0.001,-0.004,0
2018,5,10,16,15,13.649,0.3668,-0.4132,0.1088,0.8263,-0.3,-0.6,0,0,0.003,0.002,0
2018,5,10,16,15,13.67,0.3667,-0.4132,0.1087,0.8263,-0.7,-0.5,0.2,-0.002,0.002,0.003,1023
2018,5,10,16,15,13.689,0.3667,-0.4133,0.1086,0.8263,0,0,0,0,0,0.01,1023
2018,5,10,16,15,13.706,0.3666,-0.4133,0.1087,0.8263,0,-0.6,0.3,-0.001,0.001,0.001,1023
2018,5,10,16,15,13.727,0.3668,-0.4135,0.1082,0.8262,0.5,-0.9,0,0.001,0,0,1023
2018,5,10,16,15,13.747,0.3667,-0.4137,0.108,0.8262,0,-1.1,0,0,0,-0.005,1023
2018,5,10,16,15,13.767,0.3667,-0.4139,0.1081,0.8261,0.2,-1.1,0.3,0.002,-0.001,0,1023
2018,5,10,16,15,13.786,0.3666,-0.4142,0.108,0.8259,0,-0.9,0,0.002,0.001,0,1023
2018,5,10,16,15,13.826,0.3666,-0.4143,0.1079,0.8259,0,-0.8,0.2,0,0.001,0,1023
2018,5,10,16,15,13.847,0.3665,-0.4143,0.1077,0.8259,0.2,-0.5,0.5,0,0.002,-0.002,1023
2018,5,10,16,15,13.851,0.3665,-0.4144,0.1078,0.8259,0.2,-0.5,0.1,-0.001,-0.002,0,0
2018,5,10,16,15,13.869,0.3665,-0.4145,0.1079,0.8259,0.1,-0.6,0.2,-0.001,0.001,-0.001,0
2018,5,10,16,15,13.906,0.3665,-0.4146,0.1078,0.8259,0,-0.7,0.3,0.001,0,-0.005,0
2018,5,10,16,15,13.928,0.3664,-0.4147,0.1077,0.8258,-0.1,-0.7,0.5,-0.001,0,-0.003,0
2018,5,10,16,15,13.933,0.3664,-0.4147,0.1075,0.8258,-0.3,-0.6,0.7,-0.001,0,0.002,0
2018,5,10,16,15,13.952,0.3665,-0.4148,0.1072,0.8258,0,-0.5,0.7,0,-0.005,-0.001,0
2018,5,10,16,15,13.971,0.3665,-0.4149,0.1072,0.8257,0.2,-0.6,0.4,0,-0.006,0.005,0
2018,5,10,16,15,13.987,0.3665,-0.415,0.1071,0.8257,0.4,-0.9,0.1,0,0,0.001,0
2018,5,10,16,15,14.008,0.3665,-0.4151,0.107,0.8257,0,-1,0,-0.002,0.003,0.002,0
2018,5,10,16,15,14.03,0.3664,-0.4152,0.107,0.8256,-0.5,-0.8,0.4,0,0.007,-0.001,0
2018,5,10,16,15,14.05,0.3664,-0.4154,0.107,0.8256,-0.5,-0.9,0.8,-0.002,0,-0.006,0
2018,5,10,16,15,14.069,0.3664,-0.4156,0.1066,0.8255,0,-0.6,0.5,0,-0.006,-0.004,0
2018,5,10,16,15,14.091,0.3664,-0.4157,0.1067,0.8255,0,0,0,0.002,-0.011,-0.001,0
2018,5,10,16,15,14.11,0.3664,-0.4157,0.1067,0.8254,0,0,0,0.002,-0.006,0.004,0
2018,5,10,16,15,14.148,0.3664,-0.4158,0.1068,0.8254,0.5,-0.4,-0.1,-0.002,-0.01,0.01,0
2018,5,10,16,15,14.168,0.3664,-0.4158,0.1068,0.8254,1,-0.9,-0.3,-0.002,0,0.006,0
2018,5,10,16,15,14.172,0.3663,-0.4158,0.1069,0.8254,1.1,-0.9,-0.3,0,0.003,-0.001,0
2018,5,10,16,15,14.189,0.3663,-0.4158,0.1071,0.8254,0.7,-0.7,0,0.002,0,-0.005,0
2018,5,10,16,15,14.211,0.3662,-0.416,0.1074,0.8253,0.4,-0.5,0,0,0.001,-0.006,0
2018,5,10,16,15,14.23,0.3662,-0.4161,0.1075,0.8253,0,0,0,0,-0.006,-0.005,0
2018,5,10,16,15,14.269,0.3661,-0.4162,0.1076,0.8252,0.2,-0.6,0.1,0,-0.007,-0.003,0
2018,5,10,16,15,14.289,0.3661,-0.4163,0.1077,0.8252,0,0,0,0.001,-0.001,0.001,0
2018,5,10,16,15,14.293,0.366,-0.4163,0.1078,0.8252,0,0,0,0,0.003,0.004,0
2018,5,10,16,15,14.313,0.3659,-0.4163,0.1079,0.8252,0,0,0,0,0,0,0
2018,5,10,16,15,14.333,0.3659,-0.4163,0.1081,0.8252,0,0,0,-0.002,0.002,-0.002,0
2018,5,10,16,15,14.368,0.3658,-0.4164,0.1082,0.8252,0,0,0,-0.001,0,-0.006,0
2018,5,10,16,15,14.388,0.3658,-0.4165,0.1083,0.8252,0,0,0,-0.001,0,-0.005,0
2018,5,10,16,15,14.392,0.3657,-0.4165,0.1082,0.8252,-0.6,0.5,0.3,-0.012,-0.005,-0.002,0
2018,5,10,16,15,14.409,0.3657,-0.4165,0.108,0.8252,-0.2,0.6,0,-0.014,-0.01,0,1023
2018,5,10,16,15,14.432,0.3657,-0.4165,0.108,0.8252,0,0,0,0.003,-0.004,0,1023
2018,5,10,16,15,14.452,0.3657,-0.4165,0.108,0.8252,0,0,0,-0.008,-0.001,0.003,1023
2018,5,10,16,15,14.491,0.3656,-0.4166,0.1081,0.8252,0,0,0,-0.013,0.004,-0.002,1023
2018,5,10,16,15,14.509,0.3656,-0.4167,0.1083,0.8251,0,0,0,0,0,-0.003,1023
2018,5,10,16,15,14.513,0.3655,-0.4168,0.1084,0.8251,0,0,0,0.003,-0.002,-0.003,1023
2018,5,10,16,15,14.533,0.3655,-0.4168,0.1084,0.8251,0,0,0,0.002,0,-0.006,1023
2018,5,10,16,15,14.553,0.3654,-0.4169,0.1084,0.8251,0,0,0,-0.001,0.003,-0.005,1023
2018,5,10,16,15,14.589,0.3653,-0.4168,0.1082,0.8252,-0.2,0.8,-0.5,-0.002,-0.002,0,0
2018,5,10,16,15,14.609,0.3652,-0.4167,0.108,0.8253,0.2,0.7,-0.3,0,-0.006,0.001,0
2018,5,10,16,15,14.612,0.3652,-0.4165,0.1077,0.8255,0.1,0.5,-0.4,-0.001,-0.002,-0.004,0
2018,5,10,16,15,14.65,0.3651,-0.4165,0.1078,0.8255,-0.2,0.6,-0.3,-0.001,0,0.002,0
2018,5,10,16,15,14.67,0.365,-0.4164,0.1077,0.8256,-0.2,0.8,-0.2,0.001,0,-0.002,0
2018,5,10,16,15,14.675,0.3649,-0.4164,0.1078,0.8257,-0.4,1,-0.3,0.001,-0.003,0,0
2018,5,10,16,15,14.695,0.3648,-0.4163,0.1077,0.8257,0,1,-0.3,-0.002,-0.007,0.006,0
2018,5,10,16,15,14.715,0.3647,-0.4161,0.1076,0.8259,0.2,0.5,-0.4,0,-0.001,-0.001,0
2018,5,10,16,15,14.733,0.3646,-0.416,0.1074,0.826,-0.2,0.6,-0.5,0,0.004,-0.001,0
2018,5,10,16,15,14.756,0.3644,-0.4159,0.1072,0.8262,-1.1,0.4,-0.3,-0.005,0.007,-0.001,0
2018,5,10,16,15,14.775,0.3643,-0.4158,0.1069,0.8263,-0.6,0.4,0,0,0,-0.002,0
2018,5,10,16,15,14.794,0.3643,-0.4158,0.1069,0.8264,0.1,0.8,0,0.001,-0.005,0.003,0
2018,5,10,16,15,14.833,0.3642,-0.4156,0.1067,0.8265,0,1.4,-0.7,0,-0.006,0.006,0
2018,5,10,16,15,14.853,0.3641,-0.4153,0.1063,0.8267,-0.2,1.4,-1.1,0,-0.005,0.005,0
2018,5,10,16,15,14.858,0.3639,-0.4151,0.1059,0.827,0.1,0.9,-1.1,-0.002,-0.004,0.006,0
2018,5,10,16,15,14.873,0.3638,-0.4149,0.106,0.8271,0.8,0.6,-0.9,-0.003,-0.002,0,0
2018,5,10,16,15,14.909,0.3637,-0.4146,0.1061,0.8273,1,0.5,-0.8,-0.005,0.005,0,0
2018,5,10,16,15,14.928,0.3636,-0.4144,0.1061,0.8274,0.5,0.3,-0.5,0,0.002,0,0
2018,5,10,16,15,14.932,0.3636,-0.4145,0.1062,0.8274,0,0,0,0,-0.001,0,0
2018,5,10,16,15,14.956,0.3635,-0.4145,0.1061,0.8274,-0.5,0.3,-0.5,-0.003,-0.004,0,0
2018,5,10,16,15,14.976,0.3633,-0.4145,0.1059,0.8275,-0.5,0.4,-0.3,-0.001,0.001,-0.001,0
2018,5,10,16,15,14.996,0.3632,-0.4144,0.1058,0.8276,-0.5,0.6,0,0,0.002,0,0
2018,5,10,16,15,15.034,0.3631,-0.4143,0.1056,0.8277,-0.5,0.6,0,-0.002,0.001,0,0
2018,5,10,16,15,15.056,0.363,-0.4142,0.1053,0.8279,-0.7,0.4,0.2,-0.004,0,0.001,0
2018,5,10,16,15,15.06,0.363,-0.4142,0.1051,0.828,-0.8,0.4,0.1,-0.002,0.001,0.005,0
2018,5,10,16,15,15.073,0.3629,-0.4142,0.105,0.828,-0.8,0.4,0,0,0,0,0
2018,5,10,16,15,15.111,0.3628,-0.4142,0.1048,0.828,-0.9,0.6,0.2,-0.002,-0.003,0.002,0
2018,5,10,16,15,15.132,0.3627,-0.4142,0.1046,0.8281,-0.7,0.9,0,0.012,-0.006,0.003,0
2018,5,10,16,15,15.136,0.3627,-0.4141,0.1042,0.8282,-0.3,0.8,-0.1,-0.001,-0.009,0.006,0
2018,5,10,16,15,15.156,0.3626,-0.414,0.104,0.8283,-0.1,0.6,-0.3,0,-0.001,0.004,1023
2018,5,10,16,15,15.178,0.3625,-0.4139,0.104,0.8284,-0.2,0.1,-0.5,-0.002,0.001,0.001,1023
2018,5,10,16,15,15.198,0.3624,-0.4139,0.104,0.8284,0,0,0,0.003,0.002,-0.002,1023
2018,5,10,16,15,15.219,0.3624,-0.414,0.1041,0.8284,0,0,0,0,0,0.001,1023
2018,5,10,16,15,15.255,0.3623,-0.4141,0.1042,0.8284,0,0,0,0,-0.003,-0.002,1023
2018,5,10,16,15,15.274,0.3623,-0.4141,0.1043,0.8284,0,0,0,0,-0.002,0.003,1023
2018,5,10,16,15,15.278,0.3622,-0.4141,0.1044,0.8284,0,0.6,-0.5,-0.001,-0.004,0.004,1023
2018,5,10,16,15,15.298,0.3621,-0.414,0.1045,0.8285,0.1,0.5,-0.4,0.002,0,-0.003,1023
2018,5,10,16,15,15.325,0.362,-0.414,0.1046,0.8285,0.2,0.4,-0.5,-0.002,0.002,-0.001,0
2018,5,10,16,15,15.336,0.362,-0.414,0.1047,0.8285,0,0,0,0,0.002,0.003,0
2018,5,10,16,15,15.353,0.3619,-0.4139,0.1047,0.8286,0,0,0,0.001,0.005,0.004,0
2018,5,10,16,15,15.374,0.3619,-0.414,0.1048,0.8286,0,0,0,0,0.002,-0.003,0
2018,5,10,16,15,15.412,0.3618,-0.414,0.1049,0.8286,0,0,0,0,-0.003,0,0
2018,5,10,16,15,15.436,0.3617,-0.4139,0.1046,0.8287,-0.3,0.6,-0.3,-0.006,-0.002,0.001,0
2018,5,10,16,15,15.44,0.3617,-0.4138,0.1042,0.8288,0,0.5,-0.3,-0.002,-0.005,0.006,0
2018,5,10,16,15,15.458,0.3616,-0.4137,0.1043,0.8289,0,0,0,0,0.004,0.004,0
2018,5,10,16,15,15.479,0.3616,-0.4137,0.1044,0.8289,0,0,0,-0.004,0.008,0.001,0
2018,5,10,16,15,15.516,0.3615,-0.4137,0.1043,0.8289,-0.7,-0.1,0.2,-0.001,0.004,0,0
2018,5,10,16,15,15.537,0.3614,-0.4138,0.1041,0.8289,-0.7,0.1,0.3,-0.001,-0.005,0,0
2018,5,10,16,15,15.541,0.3614,-0.4138,0.104,0.8289,0,0.5,0,0.004,-0.01,0.006,0
2018,5,10,16,15,15.557,0.3613,-0.4137,0.1037,0.8291,-0.2,1.2,-0.3,-0.004,-0.005,0.006,0
2018,5,10,16,15,15.595,0.3612,-0.4134,0.1034,0.8293,-0.2,0.8,-0.7,-0.001,0,0.011,0
2018,5,10,16,15,15.614,0.3611,-0.4133,0.1033,0.8294,0.5,0.3,-0.3,0,0,0.006,0
2018,5,10,16,15,15.617,0.3611,-0.4131,0.1032,0.8295,1.2,0,-0.2,-0.001,0,0.006,0
2018,5,10,16,15,15.652,0.3611,-0.413,0.1032,0.8296,1,-0.4,-0.1,-0.001,0.001,-0.002,0
2018,5,10,16,15,15.674,0.361,-0.4131,0.1033,0.8296,0,0,0,-0.002,0,-0.005,0
2018,5,10,16,15,15.678,0.361,-0.4131,0.1034,0.8296,0,0,0,0,-0.003,-0.004,0
2018,5,10,16,15,15.715,0.3609,-0.4132,0.1034,0.8296,-0.2,0.1,-0.5,0,-0.001,-0.004,0
2018,5,10,16,15,15.734,0.3608,-0.4132,0.1035,0.8296,0,0,0,0,0.002,0,0
2018,5,10,16,15,15.741,0.3608,-0.4133,0.1036,0.8296,-0.5,0.3,0,0,0.001,0.001,0
2018,5,10,16,15,15.762,0.3607,-0.4132,0.1035,0.8296,0,0,0,-0.004,-0.001,0.002,0
2018,5,10,16,15,15.783,0.3607,-0.4132,0.1036,0.8296,0,0,0,-0.002,-0.002,0,0
2018,5,10,16,15,15.799,0.3606,-0.4132,0.1037,0.8296,0,0,0,-0.001,-0.001,0.001,0
2018,5,10,16,15,15.836,0.3606,-0.4132,0.1038,0.8296,0,0,0,-0.001,0.003,0.001,0
2018,5,10,16,15,15.856,0.3605,-0.4132,0.1038,0.8297,-0.5,0.1,0.4,-0.004,0.002,0,0
2018,5,10,16,15,15.86,0.3605,-0.4133,0.1037,0.8297,-0.2,0.2,0.5,0,-0.009,0.001,0
2018,5,10,16,15,15.88,0.3605,-0.4133,0.1037,0.8296,0,0,0,-0.002,-0.006,0.003,0
2018,5,10,16,15,15.9,0.3605,-0.4133,0.1038,0.8296,0,0,0,-0.003,0,0.001,0
2018,5,10,16,15,15.921,0.3604,-0.4133,0.1038,0.8297,0.1,-0.2,-0.5,-0.002,0.003,0.004,1023
2018,5,10,16,15,15.942,0.3603,-0.4133,0.1039,0.8297,0,0,0,0.003,0,-0.002,1023
2018,5,10,16,15,15.98,0.3603,-0.4134,0.104,0.8297,0,0,0,0.002,0,0,1023
2018,5,10,16,15,16.001,0.3602,-0.4134,0.1041,0.8297,0,0,0,-0.002,-0.003,0,1023
2018,5,10,16,15,16.005,0.3602,-0.4135,0.1042,0.8296,0,0,0,-0.001,-0.003,0.004,1023
2018,5,10,16,15,16.024,0.3601,-0.4134,0.1042,0.8297,0,0,0,-0.002,0,0.008,1023
2018,5,10,16,15,16.04,0.3601,-0.4135,0.1043,0.8297,0,0,0,0,0.002,0.003,1023
2018,5,10,16,15,16.062,0.3601,-0.4135,0.1044,0.8297,0,0,0,0,0.001,-0.006,1023
2018,5,10,16,15,16.08,0.36,-0.4135,0.1045,0.8296,0,0,0,-0.003,-0.001,-0.001,0
2018,5,10,16,15,16.121,0.36,-0.4136,0.1046,0.8296,0,0,0,0,-0.001,0,0
2018,5,10,16,15,16.14,0.3599,-0.4136,0.1046,0.8296,0,0,0,-0.004,-0.002,0,0
2018,5,10,16,15,16.144,0.3599,-0.4136,0.1047,0.8296,0,0,0,0,-0.002,-0.001,0
2018,5,10,16,15,16.165,0.3599,-0.4136,0.1047,0.8296,0,0,0,0,-0.002,0.002,0
2018,5,10,16,15,16.185,0.3599,-0.4137,0.1048,0.8296,0,0,0,-0.002,-0.005,0.001,0
2018,5,10,16,15,16.205,0.3599,-0.4136,0.1047,0.8296,0,0,0,0.001,-0.003,0.001,0
2018,5,10,16,15,16.224,0.3599,-0.4136,0.1048,0.8296,0,0,0,0,0.003,0.003,0
2018,5,10,16,15,16.262,0.3598,-0.4136,0.1047,0.8297,-0.5,-0.1,0,-0.002,0.001,-0.004,0
2018,5,10,16,15,16.266,0.3597,-0.4136,0.1045,0.8297,0,0,0,-0.003,-0.006,-0.005,0
2018,5,10,16,15,16.283,0.3597,-0.4137,0.1045,0.8297,0,0,0,0,-0.006,0,0
2018,5,10,16,15,16.302,0.3597,-0.4137,0.1046,0.8297,0.2,0.6,-0.2,0.002,-0.004,0.004,0
2018,5,10,16,15,16.34,0.3596,-0.4136,0.1046,0.8297,0,0,0,0,-0.003,0.01,0
2018,5,10,16,15,16.359,0.3596,-0.4136,0.1046,0.8298,0,0,0,-0.003,0,0.001,0
2018,5,10,16,15,16.363,0.3596,-0.4135,0.1046,0.8298,1.2,0,-0.2,-0.006,-0.001,0,0
2018,5,10,16,15,16.384,0.3596,-0.4133,0.1046,0.8299,1.4,-0.1,-0.3,-0.003,0.003,0.001,0
2018,5,10,16,15,16.405,0.3596,-0.4132,0.1047,0.8299,0.9,-0.2,-0.3,0,0.004,-0.002,0
2018,5,10,16,15,16.441,0.3596,-0.4132,0.1048,0.8299,0,0,0,0.002,0,-0.003,0
2018,5,10,16,15,16.462,0.3595,-0.4133,0.1049,0.8299,0,0,0,0.002,0.001,-0.009,0
2018,5,10,16,15,16.467,0.3595,-0.4134,0.105,0.8299,0,0,0,0,0,-0.001,0
2018,5,10,16,15,16.484,0.3594,-0.4134,0.105,0.8299,0,0,0,0,0.002,0.005,0
2018,5,10,16,15,16.503,0.3594,-0.4134,0.1051,0.8299,0,0,0,-0.005,0.004,0.005,0
2018,5,10,16,15,16.523,0.3593,-0.4133,0.1052,0.8299,-0.5,0,0,-0.003,0.003,0.001,0
2018,5,10,16,15,16.563,0.3593,-0.4133,0.1051,0.83,0,0,0,-0.002,0.001,0.001,0
2018,5,10,16,15,16.584,0.3593,-0.4133,0.1051,0.83,0,0,0,-0.002,0,0.003,0
2018,5,10,16,15,16.589,0.3593,-0.4133,0.1051,0.83,0,0,0,-0.002,-0.005,0.002,0
2018,5,10,16,15,16.606,0.3593,-0.4133,0.1051,0.83,0,0,0,-0.002,-0.005,0.002,0
2018,5,10,16,15,16.626,0.3593,-0.4133,0.1051,0.83,0,0,0,-0.003,-0.006,0.005,0
2018,5,10,16,15,16.647,0.3593,-0.4133,0.1051,0.83,0,0,0,0,-0.003,0.008,0
2018,5,10,16,15,16.685,0.3592,-0.4133,0.1051,0.83,0.2,-0.7,-0.3,-0.001,0.002,0.004,0
2018,5,10,16,15,16.689,0.3592,-0.4134,0.105,0.83,0,-0.6,0,-0.001,0.001,-0.003,0
2018,5,10,16,15,16.705,0.3591,-0.4134,0.1049,0.83,0,0,0,0,0.002,-0.003,1023
2018,5,10,16,15,16.725,0.3591,-0.4134,0.105,0.83,0,0,0,0,-0.003,0,1023
2018,5,10,16,15,16.761,0.359,-0.4135,0.1051,0.83,0,0,0,-0.001,0,0.001,1023
2018,5,10,16,15,16.782,0.359,-0.4135,0.1051,0.83,0,0,0,-0.002,0.001,0.005,1023
2018,5,10,16,15,16.786,0.359,-0.4135,0.1052,0.83,0,0,0,0,0,-0.003,1023
2018,5,10,16,15,16.807,0.3589,-0.4135,0.1053,0.83,0,0,0,0,0,0,0
2018,5,10,16,15,16.827,0.3589,-0.4136,0.1053,0.83,0,0,0,0.004,-0.003,-0.002,0
2018,5,10,16,15,16.866,0.3589,-0.4136,0.1054,0.83,0,0,0,0,-0.001,-0.001,0
2018,5,10,16,15,16.885,0.3589,-0.4136,0.1054,0.83,0,0,0,-0.001,-0.002,-0.002,0
2018,5,10,16,15,16.889,0.3588,-0.4137,0.1055,0.83,0,0,0,-0.002,-0.003,0.001,0
2018,5,10,16,15,16.909,0.3588,-0.4136,0.1054,0.83,0,0,0,-0.005,0,0,0
2018,5,10,16,15,16.929,0.3588,-0.4136,0.1055,0.83,0,0,0,-0.003,0,0.001,0
2018,5,10,16,15,16.946,0.3587,-0.4136,0.1056,0.83,0,0,0,0,0.002,0,0
2018,5,10,16,15,16.967,0.3587,-0.4136,0.1057,0.83,0,0,0,-0.004,0,0,0
2018,5,10,16,15,16.987,0.3586,-0.4137,0.1055,0.83,0,0,0,-0.001,0,-0.003,0
2018,5,10,16,15,17.009,0.3586,-0.4137,0.1055,0.83,0,0,0,0,-0.005,-0.003,0
2018,5,10,16,15,17.028,0.3586,-0.4138,0.1055,0.83,0,0,0,0.001,-0.005,-0.001,0
2018,5,10,16,15,17.049,0.3585,-0.4137,0.1053,0.8301,0,0.6,-0.5,-0.001,-0.001,0.008,0
2018,5,10,16,15,17.069,0.3585,-0.4136,0.1053,0.8301,0,0,0,-0.003,-0.001,0.006,0
2018,5,10,16,15,17.09,0.3585,-0.4135,0.1053,0.8302,1,0,0,-0.003,-0.003,0.006,0
2018,5,10,16,15,17.111,0.3587,-0.4132,0.1055,0.8303,0.7,-0.1,-0.3,0.002,0.001,-0.002,0
2018,5,10,16,15,17.129,0.3586,-0.4132,0.1055,0.8303,0,0,0,0.002,0,-0.006,0
2018,5,10,16,15,17.15,0.3585,-0.4132,0.1053,0.8304,0,0.1,-0.5,0.002,0,0.001,0
2018,5,10,16,15,17.167,0.3584,-0.4131,0.1052,0.8305,0,-0.1,-0.5,0,0.003,0.003,1023
2018,5,10,16,15,17.187,0.3584,-0.4131,0.1053,0.8305,0,0,0,-0.003,0.003,0.005,1023
2018,5,10,16,15,17.207,0.3584,-0.4131,0.1053,0.8305,0,-0.4,0.5,-0.002,0.001,0,1023
2018,5,10,16,15,17.227,0.3584,-0.4131,0.1051,0.8305,0,-0.2,0.6,-0.007,-0.004,0.006,1023
2018,5,10,16,15,17.247,0.3584,-0.413,0.1049,0.8305,0,0,0,-0.006,0,-0.004,1023
2018,5,10,16,15,17.271,0.3584,-0.4131,0.1051,0.8305,0.3,-0.3,0.5,-0.003,0.002,0.002,1023
2018,5,10,16,15,17.289,0.3586,-0.413,0.105,0.8305,0.2,-0.3,1,-0.005,0.001,0.011,1023
2018,5,10,16,15,17.31,0.3588,-0.4129,0.1049,0.8304,0.8,-0.7,1.3,-0.007,-0.007,0.012,1023
2018,5,10,16,15,17.348,0.3591,-0.4129,0.1047,0.8303,1.7,-1.7,1.1,-0.012,-0.002,0.014,1023
2018,5,10,16,15,17.368,0.3593,-0.4128,0.1046,0.8303,1.7,-2.7,1.2,-0.033,0.02,0.02,1023
2018,5,10,16,15,17.372,0.3597,-0.4128,0.105,0.8301,2.8,-3.9,2.7,-0.031,0.018,0.036,1023
2018,5,10,16,15,17.391,0.3603,-0.4129,0.1052,0.8298,3,-5.5,4.2,-0.019,0.033,0.035,1023
2018,5,10,16,15,17.412,0.361,-0.4133,0.106,0.8292,4.9,-6.7,4.4,0,0.037,0.049,1023
2018,5,10,16,15,17.452,0.3618,-0.4136,0.1074,0.8284,6.6,-9.5,5.2,0.013,0.075,0.072,1023
2018,5,10,16,15,17.472,0.3625,-0.4142,0.1089,0.8276,6.9,-11.6,3.6,0.007,0.042,0.054,1023
2018,5,10,16,15,17.476,0.3633,-0.4152,0.1107,0.8266,10.1,-12.9,3.5,0.001,0.032,0.006,1023
2018,5,10,16,15,17.491,0.3642,-0.4164,0.1128,0.8252,9.6,-14.2,5.7,-0.018,0.046,-0.009,1023
2018,5,10,16,15,17.511,0.3655,-0.4178,0.1145,0.8238,8.5,-14.7,9.6,-0.053,0.065,-0.018,0
2018,5,10,16,15,17.532,0.3674,-0.4191,0.1165,0.822,9.1,-14.3,15.4,-0.086,0.092,-0.026,0
2018,5,10,16,15,17.554,0.37,-0.4205,0.1174,0.82,3.7,-13.3,21.7,-0.1,0.078,-0.038,0
2018,5,10,16,15,17.572,0.3731,-0.4224,0.117,0.8176,-1,-12.6,28,-0.063,0.074,-0.036,0
2018,5,10,16,15,17.594,0.3767,-0.4245,0.1155,0.8151,-6.7,-10.3,33.6,-0.076,0.108,-0.017,0
2018,5,10,16,15,17.612,0.3808,-0.4268,0.1121,0.8125,-12,-8.7,39.1,-0.106,0.101,-0.016,0
2018,5,10,16,15,17.633,0.3855,-0.4296,0.1076,0.8094,-13.5,-9,43.4,-0.136,0.121,-0.008,0
2018,5,10,16,15,17.672,0.3909,-0.4325,0.1031,0.8058,-7.2,-10.5,47.4,-0.156,0.112,0.026,0
2018,5,10,16,15,17.693,0.3976,-0.4349,0.0995,0.8017,5,-11.4,51,-0.154,0.128,0.072,0
2018,5,10,16,15,17.697,0.4056,-0.4369,0.097,0.7969,11.3,-13.2,56.7,-0.136,0.127,0.098,0
2018,5,10,16,15,17.711,0.4149,-0.439,0.0951,0.7912,14.6,-17.3,65.4,-0.139,0.178,0.072,0
2018,5,10,16,15,17.749,0.4257,-0.4408,0.0936,0.7845,29.4,-16.5,71.8,-0.111,0.093,0.106,0
2018,5,10,16,15,17.769,0.4386,-0.4417,0.0943,0.7769,43.6,-21.8,77.5,-0.186,0.119,0.138,0
2018,5,10,16,15,17.773,0.4526,-0.443,0.0957,0.7679,44.4,-29.5,85.2,-0.211,0.17,0.139,0
2018,5,10,16,15,17.813,0.4676,-0.4451,0.0972,0.7573,48.9,-36.1,93.9,-0.144,0.084,0.126,0
2018,5,10,16,15,17.833,0.484,-0.4481,0.099,0.745,51.4,-46.2,106.3,-0.222,0.121,0.122,1023
2018,5,10,16,15,17.838,0.502,-0.4523,0.1014,0.7301,54.7,-60.1,119.9,-0.28,0.2,0.112,1023
2018,5,10,16,15,17.857,0.5214,-0.4577,0.1039,0.7126,56.4,-69.6,134.7,-0.291,0.244,0.111,1023
2018,5,10,16,15,17.876,0.5419,-0.4648,0.1053,0.6921,47.8,-80.7,151.3,-0.329,0.322,0.134,0
2018,5,10,16,15,17.896,0.5628,-0.4742,0.1048,0.6687,25.3,-94.3,172.1,-0.523,0.595,0.121,0
2018,5,10,16,15,17.911,0.5816,-0.4892,0.0984,0.6423,-35.7,-100,192.8,-0.348,0.372,0.074,0
2018,5,10,16,15,17.934,0.5993,-0.5079,0.0857,0.6127,-50,-109,223.3,-0.631,0.69,0.167,0
2018,5,10,16,15,17.954,0.6144,-0.5318,0.0686,0.5786,-101.7,-128.7,238.5,-0.701,0.447,0.226,0
2018,5,10,16,15,17.972,0.6274,-0.5586,0.0502,0.54,-87.2,-148.7,253.8,-0.837,-0.074,0.318,0
2018,5,10,16,15,17.995,0.6418,-0.5837,0.0361,0.496,-72.5,-178.1,255.3,-0.818,-0.005,0.436,0
2018,5,10,16,15,18.015,0.6562,-0.607,0.0256,0.4473,-33.6,-197.2,259.9,-0.79,-0.319,0.446,0
2018,5,10,16,15,18.034,0.6719,-0.6265,0.0209,0.3943,-22.8,-231.5,254,-0.941,0,0.478,0
2018,5,10,16,15,18.055,0.6829,-0.6475,0.0205,0.3374,-56.9,-260.9,243,-0.933,0.126,0.43,0
2018,5,10,16,15,18.095,0.6829,-0.6751,0.0208,0.2781,-143.8,-287.1,227.3,-1.067,0.487,0.367,1023
2018,5,10,16,15,18.116,0.6689,-0.7104,0.0239,0.2172,-188.7,-322.6,194.2,-1.042,-0.253,0.282,1023
2018,5,10,16,15,18.12,0.6575,-0.7364,0.0362,0.1549,-51.3,-352.1,167.7,-1.161,-0.704,0.451,1023
2018,5,10,16,15,18.139,0.6602,-0.7434,0.0577,0.0898,65.7,-367.3,142.9,-1.016,-0.589,0.391,1023
2018,5,10,16,15,18.159,0.6706,-0.7365,0.0839,0.027,128.9,-355.9,121.9,-0.846,-0.297,0.218,1023
2018,5,10,16,15,18.176,0.6807,-0.7234,0.1102,-0.0336,108.6,-346,113.2,-0.875,0.065,0.118,1023
2018,5,10,16,15,18.194,0.6817,-0.7129,0.1367,-0.0903,46.1,-335.1,94.5,-0.807,0.115,0.042,1023
2018,5,10,16,15,18.229,0.6757,-0.7041,0.1656,-0.1419,38.5,-331.9,63.8,-0.765,-0.121,0.108,1023
2018,5,10,16,15,18.25,0.6703,-0.6899,0.197,-0.1888,68.5,-320.7,31.7,-0.794,-0.07,0.072,1023
2018,5,10,16,15,18.257,0.6698,-0.6676,0.2266,-0.2326,133.2,-299.3,28.1,-0.542,0.46,-0.442,1023
2018,5,10,16,15,18.277,0.6743,-0.6387,0.2488,-0.2743,159.1,-262.1,31.7,-0.478,0.562,-0.823,1023
2018,5,10,16,15,18.297,0.6782,-0.6099,0.2672,-0.3108,140.7,-231.2,26.2,-1.401,-0.04,-0.364,1023
2018,5,10,16,15,18.331,0.6787,-0.5834,0.2802,-0.3469,148.2,-220.3,81.9,-1.726,0.654,0.778,1023
2018,5,10,16,15,18.352,0.6047,-0.6376,0.3505,-0.3237,-33.3,-323.8,-253.9,2.242,-9.872,-3.185,0
2018,5,10,16,15,18.359,0.6634,-0.5579,0.3616,-0.343,401.9,-121.3,-187.4,-1.039,4.546,-1.994,0
2018,5,10,16,15,18.398,0.6914,-0.5163,0.3604,-0.3539,171.9,15.6,-83.2,1.656,1.193,-0.259,0
2018,5,10,16,15,18.417,0.7086,-0.5009,0.3495,-0.3529,141.3,101.4,32,0.002,0.629,-0.03,0
2018,5,10,16,15,18.421,0.7333,-0.4883,0.3079,-0.359,211.9,227,88.2,0.624,2.624,-0.543,0
2018,5,10,16,15,18.436,0.7374,-0.5009,0.2727,-0.3617,-44.7,55.1,140.2,-1.402,-9.389,-0.417,0
2018,5,10,16,15,18.475,0.7573,-0.4741,0.2493,-0.3734,325.8,21.8,26.3,-0.618,2.241,-0.456,0
2018,5,10,16,15,18.495,0.7748,-0.439,0.2253,-0.395,167.7,-42,110.7,-0.123,2.232,2.038,0
2018,5,10,16,15,18.499,0.7655,-0.434,0.2268,-0.4171,16.8,-103.8,119.4,0.249,-1.013,0.239,0
2018,5,10,16,15,18.518,0.7566,-0.4152,0.2259,-0.4517,134.6,-175.1,177.7,-0.219,-0.251,-0.137,0
2018,5,10,16,15,18.538,0.7412,-0.3924,0.2242,-0.4963,110.4,-164.6,226.3,-0.964,-0.794,-0.733,0
2018,5,10,16,15,18.577,0.7239,-0.3706,0.2115,-0.5419,234.4,-101.6,283.3,-1.428,-1.239,-0.585,0
2018,5,10,16,15,18.597,0.7009,-0.3446,0.1693,-0.601,211,-10.3,423.8,-1.552,0.269,-0.411,0
2018,5,10,16,15,18.601,0.6684,-0.343,0.1229,-0.6483,128.7,126.5,341.3,-0.129,-0.941,-0.203,0
2018,5,10,16,15,18.622,0.65,-0.345,0.0563,-0.6746,301.4,252.3,248.9,-0.544,-0.973,0.268,0
2018,5,10,16,15,18.642,0.6429,-0.3477,-0.0135,-0.6822,210.2,239.9,148.3,-0.354,-0.524,1.2,0
2018,5,10,16,15,18.656,0.6427,-0.3465,-0.0719,-0.6794,272.7,191.7,83.9,-0.311,-0.677,1.046,0
2018,5,10,16,15,18.694,0.652,-0.3226,-0.1366,-0.6723,441,126.5,71.5,0.199,-0.18,0.324,0
2018,5,10,16,15,18.714,0.6631,-0.2802,-0.2043,-0.6632,411.6,75.8,96.5,0.642,0.405,-0.254,0
2018,5,10,16,15,18.717,0.6618,-0.2458,-0.2529,-0.6615,215.5,47,135.1,0.794,0.145,-0.648,0
2018,5,10,16,15,18.75,0.6467,-0.2309,-0.2766,-0.6722,14.4,37.5,164.8,0.786,-0.076,-0.797,0
2018,5,10,16,15,18.772,0.6218,-0.2333,-0.2779,-0.694,-129.4,10.4,182.4,0.779,-0.247,-0.596,0
2018,5,10,16,15,18.78,0.5935,-0.2384,-0.2673,-0.7207,-127.4,-22.2,181.5,0.811,-0.686,-0.529,1023
2018,5,10,16,15,18.803,0.5694,-0.2358,-0.2595,-0.7434,-59.2,-37.6,157.1,0.868,-0.624,-0.45,1023
2018,5,10,16,15,18.823,0.5509,-0.2275,-0.257,-0.7606,-17.7,-39.1,134.6,0.869,-0.424,-0.356,1023
2018,5,10,16,15,18.843,0.535,-0.2178,-0.2576,-0.7745,0.7,-30.2,123.3,0.826,-0.356,-0.268,1023
2018,5,10,16,15,18.863,0.52,-0.2088,-0.2612,-0.7859,11.5,-11.6,116.1,0.698,-0.243,-0.18,0
2018,5,10,16,15,18.901,0.5047,-0.2016,-0.2665,-0.7959,8.9,-1.2,117.5,0.486,-0.082,0.12,0
2018,5,10,16,15,18.905,0.4878,-0.1982,-0.2695,-0.8062,-24.1,11.1,108.7,0.219,-0.167,0.045,0
2018,5,10,16,15,18.922,0.4713,-0.2011,-0.2652,-0.8167,-122.6,26.1,78.2,0.207,0.148,0.133,0
2018,5,10,16,15,18.94,0.4476,-0.2371,-0.2224,-0.8329,-551.6,64.8,7.7,-0.861,6.759,1.085,0
2018,5,10,16,15,18.959,0.4354,-0.2541,-0.184,-0.8437,-164,-21.3,74.6,0.001,-0.85,0.205,0
2018,5,10,16,15,18.999,0.4186,-0.2606,-0.1703,-0.8531,-73.3,7,66,0.231,-0.196,0.27,0
2018,5,10,16,15,19.019,0.4115,-0.2634,-0.1747,-0.8547,86.8,44.4,18.7,0.151,-0.53,0.042,0
2018,5,10,16,15,19.023,0.4189,-0.256,-0.2066,-0.8463,269.8,44.8,-13.9,0.183,0.008,-0.129,0
2018,5,10,16,15,19.044,0.4321,-0.2421,-0.2508,-0.8317,270.3,41.2,-17.2,0.15,0.354,-0.106,0
2018,5,10,16,15,19.064,0.4409,-0.2331,-0.2824,-0.8194,130.8,36.7,-18,0.133,0.511,-0.059,0
2018,5,10,16,15,19.083,0.445,-0.2337,-0.2925,-0.8134,10.7,22.7,-22.5,0.031,0.247,0.065,0
2018,5,10,16,15,19.102,0.4461,-0.238,-0.2904,-0.8123,-40.5,7.7,-16.3,-0.003,0.113,0.1,0
2018,5,10,16,15,19.122,0.446,-0.244,-0.2806,-0.814,-92.7,-1.2,-29.7,0.005,0.102,0.058,0
2018,5,10,16,15,19.142,0.4468,-0.2541,-0.2619,-0.8167,-131.4,-9,-46.6,0.03,0.214,0.017,0
2018,5,10,16,15,19.162,0.4487,-0.2643,-0.2409,-0.8189,-110.6,-13.1,-50.6,0.062,0.281,-0.139,0
2018,5,10,16,15,19.183,0.4525,-0.2704,-0.2254,-0.8192,-46.3,-17.6,-48.2,0.137,0.168,-0.241,0
2018,5,10,16,15,19.222,0.4599,-0.2696,-0.2215,-0.8165,15.4,-21.4,-50.3,-0.016,0.306,-0.2,0
2018,5,10,16,15,19.241,0.4665,-0.273,-0.2085,-0.815,-133.6,-27.9,-61.4,0.091,0.569,-0.021,0
2018,5,10,16,15,19.245,0.4678,-0.2867,-0.1769,-0.817,-204.5,-23.4,-73.9,0.074,0.121,-0.114,0
2018,5,10,16,15,19.283,0.4692,-0.3014,-0.1439,-0.8174,-185.7,-24.5,-80.5,-0.042,0.094,0.024,0
2018,5,10,16,15,19.302,0.4723,-0.3139,-0.112,-0.8159,-214.7,2,-119.1,0.162,-0.672,-0.046,0
2018,5,10,16,15,19.306,0.4747,-0.326,-0.0667,-0.8147,-245.4,-124.4,-70.3,-3.129,1.611,0.201,0
2018,5,10,16,15,19.322,0.4749,-0.3331,-0.0289,-0.814,-104.7,-55.6,-65,0.496,-0.986,0.112,0
2018,5,10,16,15,19.342,0.483,-0.3283,-0.0172,-0.8115,8.6,-51.4,-77.7,0.024,0.105,-0.303,0
2018,5,10,16,15,19.362,0.4941,-0.3224,-0.0061,-0.8073,-47.2,-47.2,-82.3,-0.036,0.244,-0.057,0
2018,5,10,16,15,19.399,0.5014,-0.3226,0.0124,-0.8026,-73.9,-41.2,-72.2,0.244,0.149,-0.018,0
2018,5,10,16,15,19.419,0.5042,-0.3241,0.0303,-0.7998,-99.9,-37.4,-43.7,0.217,0.172,0.085,1023
2018,5,10,16,15,19.423,0.5047,-0.3267,0.0499,-0.7974,-81.4,-43.2,-76.7,-0.143,-0.424,0.121,1023
2018,5,10,16,15,19.445,0.5083,-0.3288,0.066,-0.7931,-51.6,-25.1,-55.8,0.029,-0.065,-0.022,1023
2018,5,10,16,15,19.465,0.5127,-0.3289,0.077,-0.7892,-38.8,-16.2,-43,0.142,0.024,-0.012,1023
2018,5,10,16,15,19.484,0.5152,-0.33,0.0849,-0.7863,-33.6,-4.8,-26.5,0.07,0.016,-0.001,1023
2018,5,10,16,15,19.504,0.5167,-0.3319,0.091,-0.7838,-28,-2.4,-22.1,0,-0.044,0.023,1023
2018,5,10,16,15,19.543,0.5182,-0.3336,0.0961,-0.7815,-24.6,-2.5,-19.6,0.034,-0.007,0.023,1023
2018,5,10,16,15,19.563,0.5193,-0.3348,0.1005,-0.7797,-19.4,-2.9,-16.5,0.034,-0.017,0.015,1023
2018,5,10,16,15,19.568,0.5203,-0.3356,0.104,-0.7782,-13.9,-2.7,-12.4,0.029,-0.014,0.02,0
2018,5,10,16,15,19.584,0.521,-0.3357,0.1067,-0.7773,-12.2,-4.4,-8.2,0.095,0,0.042,0
2018,5,10,16,15,19.605,0.5211,-0.3359,0.109,-0.7769,-12.2,-1.3,-1.7,0.005,0.015,0.006,0
2018,5,10,16,15,19.624,0.5204,-0.3365,0.111,-0.7768,-12.4,-3.8,0.8,-0.059,0.01,-0.003,0
2018,5,10,16,15,19.644,0.5192,-0.3375,0.1125,-0.777,-11.4,-1.5,5.2,-0.037,-0.034,0.014,0
2018,5,10,16,15,19.666,0.5176,-0.3383,0.1139,-0.7775,-12.9,-3.7,6.8,0.002,0.021,0,0
2018,5,10,16,15,19.685,0.5153,-0.3396,0.1164,-0.7781,-28.1,-4.7,8.2,-0.029,-0.002,0.004,0
2018,5,10,16,15,19.708,0.5132,-0.3398,0.1178,-0.7792,35,-6.5,8.6,0.069,-0.273,0.086,0
2018,5,10,16,15,19.728,0.513,-0.3376,0.1145,-0.7807,4.3,-5.7,13.1,0.053,0.112,-0.018,0
2018,5,10,16,15,19.75,0.5112,-0.3365,0.1132,-0.7826,4.6,-5.3,13.3,0.037,-0.007,0.007,0
2018,5,10,16,15,19.767,0.5097,-0.3352,0.1123,-0.7843,-3.2,-18.2,8.6,0.141,0.414,-0.108,0
2018,5,10,16,15,19.784,0.5064,-0.3345,0.1195,-0.7857,-50.6,-24.6,7.4,-0.076,-0.082,0.152,0
2018,5,10,16,15,19.822,0.5034,-0.3352,0.1207,-0.7871,25.2,11.1,21.6,0.263,-0.342,0.011,0
2018,5,10,16,15,19.842,0.5028,-0.3352,0.1143,-0.7885,23.9,12.2,19,0.006,0.195,-0.042,0
2018,5,10,16,15,19.846,0.5018,-0.3344,0.11,-0.79,14.1,0.3,13,0.047,0.043,-0.021,0
2018,5,10,16,15,19.866,0.5006,-0.3332,0.1077,-0.7916,3.6,-4.5,10.3,0.035,0.089,0.006,0
2018,5,10,16,15,19.886,0.499,-0.3327,0.107,-0.7929,3.6,1.6,13.9,-0.023,-0.117,0.051,0
2018,5,10,16,15,19.906,0.4976,-0.3332,0.1045,-0.7939,13.9,7.8,15.7,0.073,-0.04,0.007,0
2018,5,10,16,15,19.945,0.4968,-0.3332,0.1008,-0.7949,15.2,8.9,13,0.021,0.047,-0.004,0
2018,5,10,16,15,19.965,0.496,-0.333,0.0973,-0.7959,8.8,5.8,11.2,0.027,0.058,0.004,0
2018,5,10,16,15,19.969,0.4951,-0.3331,0.0947,-0.7967,8.3,7.5,10.2,0.01,0.021,0.02,0
2018,5,10,16,15,20.006,0.4943,-0.3337,0.092,-0.7973,10,7.8,9,0.001,-0.009,0.009,0
2018,5,10,16,15,20.01,0.4939,-0.3339,0.0893,-0.7977,9.8,7,7.4,0.003,0.019,-0.008,0
2018,5,10,16,15,20.026,0.4936,-0.3339,0.087,-0.7982,6.7,5.1,5.3,0.013,0.04,0.005,0
2018,5,10,16,15,20.046,0.4933,-0.334,0.0852,-0.7986,4.4,3.4,3.8,0.002,0.028,0.005,1023
2018,5,10,16,15,20.066,0.4931,-0.3339,0.084,-0.7988,3.6,1.5,2.8,0.009,0.024,0.002,1023
2018,5,10,16,15,20.103,0.4929,-0.3337,0.0833,-0.7991,1.2,-0.4,1.7,0.017,0.034,0.005,1023
2018,5,10,16,15,20.124,0.4927,-0.3334,0.083,-0.7994,-1.1,-2.3,0.1,0.008,0.025,0.01,1023
2018,5,10,16,15,20.128,0.4926,-0.333,0.0834,-0.7996,-2.5,-3.4,-0.8,0.008,0.023,0.007,1023
2018,5,10,16,15,20.165,0.4925,-0.3326,0.084,-0.7998,-3.3,-4.3,-1.8,0.012,0.017,0.004,1023
2018,5,10,16,15,20.186,0.4926,-0.3321,0.0849,-0.7998,-3.5,-4.6,-2.7,0.018,0.018,0.008,1023
2018,5,10,16,15,20.191,0.4927,-0.3315,0.0859,-0.7998,-3.6,-4.5,-3.5,0.016,0.015,0.009,1023
2018,5,10,16,15,20.209,0.493,-0.3311,0.0869,-0.7998,-3.6,-4.3,-3.9,0.017,0.013,0.008,1023
2018,5,10,16,15,20.245,0.4933,-0.3306,0.0879,-0.7997,-3.6,-3.9,-4.4,0.017,0.013,0.004,0
2018,5,10,16,15,20.265,0.4937,-0.3302,0.0889,-0.7995,-3.7,-3.6,-4.7,0.016,0.011,0.007,0
2018,5,10,16,15,20.272,0.4941,-0.3298,0.0899,-0.7993,-4.3,-3.4,-5,0.024,0.031,0.007,0
2018,5,10,16,15,20.288,0.4945,-0.3296,0.091,-0.799,-6,-2.7,-5.3,0.011,0.018,0.012,0
2018,5,10,16,15,20.311,0.4948,-0.3296,0.0924,-0.7987,-6.5,-2.9,-5.2,0.018,0,0.004,0
2018,5,10,16,15,20.33,0.4951,-0.3295,0.0938,-0.7983,-5.6,-2.6,-4.6,0.018,0.01,0.001,0
2018,5,10,16,15,20.373,0.4954,-0.3294,0.095,-0.798,-5.4,-2.4,-4.3,0.02,0.006,0.004,0
2018,5,10,16,15,20.375,0.4957,-0.3294,0.0961,-0.7978,-4.4,-2.1,-3.7,0.013,-0.001,0.004,0
2018,5,10,16,15,20.388,0.4959,-0.3293,0.0971,-0.7975,-3.8,-1.8,-3,0.023,0.005,0.006,0
2018,5,10,16,15,20.428,0.4961,-0.3292,0.0979,-0.7974,-2.8,-1.5,-2.2,0.017,0.002,-0.001,0
2018,5,10,16,15,20.447,0.4962,-0.3291,0.0984,-0.7972,-2,-1.1,-1.4,0.016,0.002,0.001,0
2018,5,10,16,15,20.45,0.4963,-0.329,0.0988,-0.7972,-1.3,-0.9,-1.1,0.014,0.007,0.002,0
2018,5,10,16,15,20.487,0.4964,-0.3289,0.099,-0.7972,-0.5,-0.5,-0.5,0.015,0.007,0.007,0
2018,5,10,16,15,20.489,0.4964,-0.3287,0.099,-0.7972,0,0,0,0.013,0.01,0.003,0
2018,5,10,16,15,20.506,0.4964,-0.3287,0.099,-0.7972,0,0,0,0.014,0.01,0.001,0
2018,5,10,16,15,20.545,0.4964,-0.3286,0.0989,-0.7973,0,0,0,0.01,0.011,0,0
2018,5,10,16,15,20.565,0.4964,-0.3285,0.0988,-0.7973,-0.2,-0.6,0.2,0.01,0.014,0.001,0
2018,5,10,16,15,20.569,0.4963,-0.3283,0.0988,-0.7974,-0.4,-1.1,0.1,0.011,0.01,-0.003,0
2018,5,10,16,15,20.591,0.4963,-0.3282,0.0989,-0.7975,-0.7,-1.3,0.4,0.012,0.007,0,0
2018,5,10,16,15,20.611,0.4961,-0.328,0.099,-0.7977,-0.6,-1.6,1.1,0.009,0.008,0,0
2018,5,10,16,15,20.649,0.4959,-0.3278,0.0992,-0.7979,-0.5,-1.6,1.3,0.012,0.007,0.001,0
2018,5,10,16,15,20.67,0.4956,-0.3275,0.0992,-0.7982,-0.4,-1.5,1.7,0.01,0.004,0.004,0
2018,5,10,16,15,20.675,0.4953,-0.3273,0.0993,-0.7985,-0.2,-1.3,1.7,0.012,0.013,0.002,0
2018,5,10,16,15,20.695,0.495,-0.3271,0.0993,-0.7987,-0.1,-0.9,1.7,0.012,0.009,0.004,0
2018,5,10,16,15,20.715,0.4948,-0.3269,0.0992,-0.7989,0,-0.1,1.7,0.014,0.005,0.002,1023
2018,5,10,16,15,20.732,0.4945,-0.3268,0.099,-0.7991,0.7,0,1.7,0.011,0.01,0.006,1023
2018,5,10,16,15,20.768,0.4944,-0.3268,0.0987,-0.7993,0.7,0.5,1.6,0.013,0.007,0.002,1023
2018,5,10,16,15,20.789,0.4942,-0.3267,0.0984,-0.7995,1,0.8,1.1,0.011,0.009,-0.001,1023
2018,5,10,16,15,20.793,0.4942,-0.3267,0.0981,-0.7995,0.7,0.7,1,0.007,0.011,0,1023
2018,5,10,16,15,20.814,0.4941,-0.3267,0.0978,-0.7996,0.2,0.4,0.5,0.009,0.011,0,1023
2018,5,10,16,15,20.832,0.494,-0.3267,0.0977,-0.7997,0,0,0,0.008,0.01,-0.002,1023
2018,5,10,16,15,20.854,0.494,-0.3266,0.0976,-0.7997,0,0,0,0.009,0.012,0,1023
2018,5,10,16,15,20.874,0.494,-0.3266,0.0976,-0.7997,0,0,0,0.007,0.009,-0.001,0
2018,5,10,16,15,20.912,0.494,-0.3265,0.0975,-0.7998,-0.5,-0.4,0,0.009,0.01,-0.003,0
2018,5,10,16,15,20.932,0.494,-0.3265,0.0976,-0.7998,-0.5,-0.7,0,0.006,0.009,-0.002,0
2018,5,10,16,15,20.936,0.4939,-0.3264,0.0977,-0.7999,-0.4,-0.8,0.2,0.012,0.002,0,0
2018,5,10,16,15,20.974,0.4938,-0.3262,0.0978,-0.8,-0.2,-0.5,0.6,0.013,0.007,-0.001,0
2018,5,10,16,15,20.978,0.4937,-0.3262,0.0978,-0.8001,0,0.1,0.8,0.012,0.005,0.001,0
2018,5,10,16,15,20.994,0.4937,-0.3261,0.0976,-0.8002,0.4,0.2,0.8,0.012,0.007,0.002,0
2018,5,10,16,15,21.013,0.4936,-0.3261,0.0975,-0.8002,0.4,0.6,0.9,0.008,0.005,0.003,0
2018,5,10,16,15,21.05,0.4935,-0.3261,0.0972,-0.8003,0.7,0.8,1,0.008,0.009,0,0
2018,5,10,16,15,21.072,0.4934,-0.3261,0.0969,-0.8004,0.9,1.1,1,0.006,0.008,0.002,0
2018,5,10,16,15,21.076,0.4934,-0.3261,0.0966,-0.8004,1.1,1.1,0.7,0.007,0.009,-0.005,0
2018,5,10,16,15,21.097,0.4934,-0.3262,0.0963,-0.8005,0.7,0.9,0.4,0.008,0.009,0,0
2018,5,10,16,15,21.116,0.4933,-0.3262,0.0961,-0.8005,0,0,0,0.006,0.009,-0.006,0
2018,5,10,16,15,21.155,0.4933,-0.3262,0.096,-0.8005,0,0,0,0.01,0.008,-0.004,0
2018,5,10,16,15,21.174,0.4933,-0.3261,0.096,-0.8005,0,0,0,0.011,0.004,0,0
2018,5,10,16,15,21.178,0.4933,-0.3261,0.0959,-0.8006,0,0.1,0.5,0.006,0.007,-0.001,0
2018,5,10,16,15,21.194,0.4932,-0.3261,0.0958,-0.8006,0.2,0.1,0.6,0.009,0.006,-0.004,0
2018,5,10,16,15,21.213,0.4931,-0.3261,0.0957,-0.8007,1.4,-0.4,1.7,-0.017,-0.034,-0.007,0
2018,5,10,16,15,21.234,0.493,-0.3259,0.0954,-0.8009,1.6,0.7,1.4,0.006,0.022,0.005,0
2018,5,10,16,15,21.274,0.4929,-0.3258,0.0949,-0.8011,0.7,0.8,1,0.012,0.012,0,0
2018,5,10,16,15,21.294,0.4928,-0.3258,0.0946,-0.8012,1,0.9,1.3,0.004,0.008,0,0
2018,5,10,16,15,21.298,0.4927,-0.3259,0.0943,-0.8012,2.1,0.3,1.2,-0.008,-0.019,-0.01,0
2018,5,10,16,15,21.333,0.4927,-0.3257,0.0938,-0.8014,1.6,0.9,1.1,0.004,0.022,0.006,0
2018,5,10,16,15,21.354,0.4926,-0.3256,0.0934,-0.8015,0.3,0.3,1,0.01,0.01,-0.003,0
2018,5,10,16,15,21.358,0.4925,-0.3256,0.0933,-0.8016,0.2,0.4,1,0.003,0.003,-0.004,0
2018,5,10,16,15,21.378,0.4923,-0.3257,0.0931,-0.8017,0,0.1,0.8,0.002,0.007,-0.004,1023
2018,5,10,16,15,21.398,0.4922,-0.3257,0.093,-0.8018,0.2,0.1,0.7,0.008,0.008,-0.002,1023
2018,5,10,16,15,21.415,0.4921,-0.3257,0.0929,-0.8018,0.2,-0.1,0.8,0.007,0,-0.004,1023
2018,5,10,16,15,21.454,0.4921,-0.3255,0.0928,-0.8019,3.1,-0.1,0.5,0.032,0.012,-0.008,1023
2018,5,10,16,15,21.458,0.4922,-0.3252,0.0922,-0.8021,2,0,0.6,0.008,0.021,0.002,1023
2018,5,10,16,15,21.476,0.4921,-0.3251,0.092,-0.8022,0.3,0.1,0.7,0.006,0.006,-0.004,1023
2018,5,10,16,15,21.499,0.492,-0.3251,0.0918,-0.8022,0.8,-0.1,0.9,-0.006,-0.012,-0.004,1023
2018,5,10,16,15,21.517,0.4921,-0.3249,0.0915,-0.8024,2.3,0.6,1,0.006,0.022,0.002,1023
2018,5,10,16,15,21.557,0.4921,-0.3247,0.091,-0.8025,1,0.4,0.8,0.009,0.017,0.001,1023
2018,5,10,16,15,21.561,0.492,-0.3247,0.0908,-0.8026,0.2,0.9,0.7,0.003,0.006,-0.002,0
2018,5,10,16,15,21.578,0.492,-0.3247,0.0906,-0.8026,0.3,0.6,0.1,0.005,0.008,-0.007,0
2018,5,10,16,15,21.618,0.4919,-0.3247,0.0905,-0.8026,0,0,0,0.003,0.011,-0.001,0
2018,5,10,16,15,21.636,0.4919,-0.3247,0.0904,-0.8026,0,0,0,0.003,0.007,-0.002,0
2018,5,10,16,15,21.641,0.492,-0.3247,0.0905,-0.8026,-0.5,-0.4,-0.7,0.004,0.005,0,0
2018,5,10,16,15,21.659,0.492,-0.3246,0.0907,-0.8026,-0.4,-0.6,-0.8,0.004,0.007,-0.003,0
2018,5,10,16,15,21.679,0.4921,-0.3245,0.0908,-0.8026,-0.4,-0.9,-0.8,0.005,0.005,-0.003,0
2018,5,10,16,15,21.697,0.4922,-0.3244,0.091,-0.8025,-0.5,-0.7,-0.8,0.005,0.006,-0.002,0
2018,5,10,16,15,21.717,0.4923,-0.3243,0.0912,-0.8025,-0.6,-0.9,-0.9,0.004,0.006,-0.003,0
2018,5,10,16,15,21.738,0.4924,-0.3242,0.0914,-0.8025,-0.7,-1,-0.9,0.005,0.006,-0.01,0
2018,5,10,16,15,21.756,0.4924,-0.3241,0.0917,-0.8024,-0.8,-1.2,-1,0.006,0.002,-0.006,0
2018,5,10,16,15,21.797,0.4925,-0.3239,0.0919,-0.8024,-1,-1.3,-0.8,0.008,0.005,-0.002,0
2018,5,10,16,15,21.818,0.4925,-0.3238,0.0922,-0.8024,-0.7,-1,-0.5,0.009,0.003,-0.005,0
2018,5,10,16,15,21.822,0.4926,-0.3237,0.0924,-0.8024,-0.5,-0.7,-0.4,0.005,0,-0.006,0
2018,5,10,16,15,21.841,0.4926,-0.3237,0.0926,-0.8024,-0.3,-0.5,-0.1,0.007,0.006,-0.006,0
2018,5,10,16,15,21.859,0.4926,-0.3236,0.0926,-0.8024,0,0,0,0.009,0.002,-0.007,0
2018,5,10,16,15,21.88,0.4925,-0.3236,0.0926,-0.8025,0.1,0.2,0.5,0.009,0.004,-0.006,0
2018,5,10,16,15,21.897,0.4925,-0.3236,0.0924,-0.8025,0.6,0.8,0.8,0.009,0.003,-0.007,0
2018,5,10,16,15,21.936,0.4925,-0.3237,0.0922,-0.8025,0.7,0.9,0.8,0.003,0.004,-0.001,0
2018,5,10,16,15,21.958,0.4924,-0.3238,0.0919,-0.8026,0.8,0.8,0.8,0.004,0.005,-0.008,0
2018,5,10,16,15,21.962,0.4923,-0.3238,0.0917,-0.8026,0.7,0.7,0.8,0.003,0.008,-0.008,0
2018,5,10,16,15,21.98,0.4922,-0.3239,0.0915,-0.8027,0.3,0,0.8,0.004,0.005,-0.007,0
2018,5,10,16,15,22,0.4921,-0.3239,0.0914,-0.8027,-0.1,-0.2,0.5,0.004,0.006,-0.005,0
2018,5,10,16,15,22.022,0.4921,-0.3239,0.0914,-0.8028,0,0,0,0.004,0.006,-0.003,0
2018,5,10,16,15,22.04,0.4921,-0.3238,0.0913,-0.8028,0,0,0,0.002,0.01,-0.005,1023
2018,5,10,16,15,22.06,0.492,-0.3238,0.0913,-0.8028,-0.2,-0.4,-0.5,0.004,0.007,-0.006,1023
2018,5,10,16,15,22.082,0.4921,-0.3238,0.0914,-0.8028,-0.3,-0.6,-1,0.003,0.007,-0.008,1023
2018,5,10,16,15,22.104,0.4923,-0.3237,0.0915,-0.8027,-1,-0.7,-1.4,0.004,0.01,-0.005,1023
2018,5,10,16,15,22.125,0.4924,-0.3236,0.0918,-0.8026,-1.2,-1.2,-1.9,0.003,0.007,-0.005,1023
2018,5,10,16,15,22.138,0.4926,-0.3235,0.0922,-0.8025,-1.7,-1.5,-1.9,0.005,0.004,-0.006,1023
2018,5,10,16,15,22.177,0.4927,-0.3234,0.0927,-0.8024,-1.7,-1.6,-1.8,0.008,0.002,-0.006,1023
2018,5,10,16,15,22.198,0.4928,-0.3232,0.0932,-0.8024,-1.3,-1.6,-1.4,0.006,0.002,-0.005,1023
2018,5,10,16,15,22.202,0.4929,-0.3231,0.0936,-0.8023,-1,-1.4,-1.2,0.006,0.003,-0.006,1023
2018,5,10,16,15,22.238,0.493,-0.3229,0.094,-0.8023,-1,-1.4,-0.8,0.007,0.001,-0.004,1023
2018,5,10,16,15,22.258,0.493,-0.3228,0.0943,-0.8023,-0.7,-0.9,-0.3,0.007,0.001,-0.008,1023
2018,5,10,16,15,22.262,0.493,-0.3227,0.0944,-0.8023,0,0,0,0.011,0.001,-0.003,0
2018,5,10,16,15,22.303,0.493,-0.3227,0.0944,-0.8023,0,0,0,0.004,0.003,-0.004,0
2018,5,10,16,15,22.322,0.493,-0.3227,0.0943,-0.8023,0.5,0.4,0.5,0.005,0.003,-0.002,0
2018,5,10,16,15,22.326,0.493,-0.3227,0.0942,-0.8024,0.7,0.8,0.5,0.006,0.008,-0.006,0
2018,5,10,16,15,22.345,0.493,-0.3227,0.0939,-0.8024,0.6,0.7,0.2,0.002,0.007,-0.005,0
2018,5,10,16,15,22.365,0.493,-0.3228,0.0938,-0.8024,0,0,0,0,0.008,-0.01,0
2018,5,10,16,15,22.38,0.493,-0.3228,0.0938,-0.8024,-0.2,-0.6,-0.5,0.001,0.009,-0.005,0
2018,5,10,16,15,22.42,0.493,-0.3227,0.0939,-0.8024,-0.7,-1.3,-1,0,0.009,-0.002,0
2018,5,10,16,15,22.44,0.4931,-0.3225,0.0942,-0.8023,-1.1,-1.7,-1.4,0.002,0.005,-0.01,0
2018,5,10,16,15,22.445,0.4932,-0.3224,0.0946,-0.8023,-1.6,-2,-1.7,0.002,0.005,-0.002,0
2018,5,10,16,15,22.463,0.4933,-0.3222,0.0952,-0.8022,-1.9,-2,-1.7,0.006,0.001,-0.002,0
2018,5,10,16,15,22.499,0.4935,-0.322,0.0957,-0.8022,-1.7,-1.8,-1.6,0.009,0.001,-0.005,0
2018,5,10,16,15,22.521,0.4936,-0.3219,0.0962,-0.8021,-1.2,-1.3,-1.3,0.008,0,-0.008,0
2018,5,10,16,15,22.525,0.4937,-0.3218,0.0965,-0.802,-1.8,-0.8,-1,0.005,0.006,0,0
2018,5,10,16,15,22.544,0.4936,-0.3218,0.0969,-0.802,-1.3,-0.4,-0.3,0.008,-0.008,-0.005,0
2018,5,10,16,15,22.565,0.4936,-0.3219,0.0971,-0.802,0,0,0,0.007,0.002,-0.007,0
2018,5,10,16,15,22.601,0.4936,-0.3218,0.0971,-0.802,0.5,0.3,0.5,0.004,0.004,-0.004,0
2018,5,10,16,15,22.622,0.4936,-0.3219,0.0969,-0.802,0.9,0.8,0.7,0.005,0.003,-0.003,0
2018,5,10,16,15,22.626,0.4935,-0.3219,0.0966,-0.8021,0.9,0.7,1.1,0.007,0.002,-0.004,0
2018,5,10,16,15,22.645,0.4934,-0.3219,0.0964,-0.8021,1.1,0.8,1.1,0.004,0.003,-0.009,0
2018,5,10,16,15,22.665,0.4933,-0.322,0.0961,-0.8022,0.8,0.7,1.1,0.003,0.005,-0.005,0
2018,5,10,16,15,22.685,0.4932,-0.322,0.0958,-0.8023,1,0.6,0.9,0.003,0.005,-0.012,0
2018,5,10,16,15,22.703,0.4931,-0.322,0.0956,-0.8024,0.7,0.4,0.7,0.003,0.008,-0.008,0
2018,5,10,16,15,22.725,0.4931,-0.322,0.0955,-0.8024,0,0,0,0.003,0.009,-0.005,0
2018,5,10,16,15,22.745,0.4931,-0.322,0.0954,-0.8024,0,0,0,0.001,0.008,-0.006,0
2018,5,10,16,15,22.765,0.4931,-0.322,0.0954,-0.8024,-0.3,-0.5,-0.4,0.003,0.005,-0.01,1023
2018,5,10,16,15,22.802,0.4931,-0.322,0.0955,-0.8024,-0.5,-0.7,-0.6,0.003,0.004,-0.004,1023
2018,5,10,16,15,22.821,0.4932,-0.3219,0.0957,-0.8024,-0.6,-0.6,-0.7,0.004,0.004,-0.003,1023
2018,5,10,16,15,22.827,0.4933,-0.3219,0.0959,-0.8023,-0.7,-0.7,-1,0.006,0.004,-0.006,1023
2018,5,10,16,15,22.844,0.4934,-0.3218,0.0961,-0.8023,-0.8,-0.7,-1,0.005,0.004,-0.005,1023
2018,5,10,16,15,22.865,0.4934,-0.3218,0.0963,-0.8022,-0.8,-0.8,-1,0.002,0.002,-0.005,1023
2018,5,10,16,15,22.884,0.4935,-0.3217,0.0965,-0.8021,-0.7,-0.7,-1.1,0.005,0.004,-0.007,1023
2018,5,10,16,15,22.921,0.4936,-0.3216,0.0968,-0.8021,-0.8,-0.8,-0.9,0.005,0.001,-0.007,1023
2018,5,10,16,15,22.943,0.4937,-0.3216,0.0971,-0.8021,-0.5,-0.6,-0.3,0.005,-0.001,-0.005,1023
2018,5,10,16,15,22.947,0.4937,-0.3215,0.0972,-0.802,0,0,0,0.008,-0.001,-0.008,0
2018,5,10,16,15,22.969,0.4937,-0.3215,0.0972,-0.8021,0.5,0.6,0.7,0.006,-0.002,-0.004,0
2018,5,10,16,15,22.988,0.4936,-0.3216,0.097,-0.8021,1.1,0.9,1.1,0.004,0.003,-0.005,0
2018,5,10,16,15,23.007,0.4935,-0.3216,0.0966,-0.8022,1.6,1.3,1.1,0.002,0.006,-0.001,0
2018,5,10,16,15,23.046,0.4934,-0.3217,0.0962,-0.8022,1.1,1.1,1,0.005,0.008,-0.009,0
2018,5,10,16,15,23.067,0.4934,-0.3218,0.0959,-0.8023,0.9,0.8,0.8,0.002,0.006,-0.011,0
2018,5,10,16,15,23.071,0.4933,-0.3219,0.0957,-0.8023,0.2,0.3,0.8,0.004,0.005,-0.008,0
2018,5,10,16,15,23.086,0.4932,-0.3219,0.0956,-0.8024,0.1,0,0.7,0.005,0.005,-0.007,0
2018,5,10,16,15,23.105,0.4931,-0.3219,0.0956,-0.8024,0,0,0,0.004,0.005,-0.008,0
2018,5,10,16,15,23.127,0.4931,-0.3218,0.0955,-0.8025,0,-0.2,0.5,0.003,0.003,-0.005,0
2018,5,10,16,15,23.146,0.4931,-0.3218,0.0955,-0.8025,0,0,0,0.002,0.006,-0.004,0
2018,5,10,16,15,23.183,0.4931,-0.3218,0.0955,-0.8025,0,0,0,0.004,0.005,0,0
2018,5,10,16,15,23.204,0.4931,-0.3218,0.0955,-0.8025,0,0,0,0.005,0.002,-0.004,0
2018,5,10,16,15,23.208,0.4931,-0.3218,0.0955,-0.8025,0,0.6,0.3,0.006,0,-0.009,0
2018,5,10,16,15,23.246,0.4931,-0.3219,0.0954,-0.8025,0.1,1,0.7,0.008,-0.001,-0.007,0
2018,5,10,16,15,23.266,0.493,-0.322,0.0952,-0.8025,0.6,1.3,0.7,0.002,0.006,-0.004,0
2018,5,10,16,15,23.27,0.493,-0.3222,0.0949,-0.8025,1,1.3,0.8,0.003,0.004,-0.007,0
2018,5,10,16,15,23.29,0.4929,-0.3223,0.0946,-0.8025,1.1,1.1,0.7,0,0.009,-0.007,0
2018,5,10,16,15,23.31,0.4929,-0.3224,0.0943,-0.8025,0.5,0.5,0.1,-0.001,0.01,-0.005,0
2018,5,10,16,15,23.327,0.4929,-0.3224,0.0942,-0.8025,0,0,0,0,0.007,-0.009,0
2018,5,10,16,15,23.365,0.4929,-0.3223,0.0943,-0.8025,-0.7,-1.5,-0.8,0,0.005,-0.006,0
2018,5,10,16,15,23.385,0.493,-0.3222,0.0947,-0.8025,-1,-1.8,-1,0.003,0.004,-0.005,0
2018,5,10,16,15,23.389,0.493,-0.322,0.0951,-0.8025,-1.1,-1.9,-1,0.003,0.003,-0.008,0
2018,5,10,16,15,23.427,0.4931,-0.3218,0.0955,-0.8025,-1.3,-1.8,-1,0.007,0.003,-0.004,0
2018,5,10,16,15,23.447,0.4931,-0.3217,0.0959,-0.8025,-1,-1.3,-1,0.005,0.005,-0.001,0
2018,5,10,16,15,23.451,0.4932,-0.3215,0.0961,-0.8025,-0.7,-0.9,-1,0.009,0.008,-0.003,0
2018,5,10,16,15,23.471,0.4933,-0.3215,0.0963,-0.8024,-0.5,-0.4,-1,0.004,0.002,-0.005,0
2018,5,10,16,15,23.51,0.4934,-0.3214,0.0965,-0.8023,-0.5,-0.1,-1,0.004,0.004,-0.002,1023
2018,5,10,16,15,23.532,0.4935,-0.3214,0.0966,-0.8022,-0.6,0,-1,0.005,0.005,-0.002,1023
2018,5,10,16,15,23.536,0.4937,-0.3214,0.0968,-0.8021,-0.6,-0.1,-1.1,0.004,0.005,-0.005,1023
2018,5,10,16,15,23.549,0.4938,-0.3214,0.097,-0.802,-0.6,-0.5,-1.3,0.005,0.004,-0.009,1023
2018,5,10,16,15,23.568,0.4939,-0.3214,0.0972,-0.8019,-0.7,-0.6,-1.1,0.002,0.005,-0.01,1023
2018,5,10,16,15,23.588,0.494,-0.3214,0.0975,-0.8019,-1,-1,-1.2,0.003,0.006,-0.008,1023
2018,5,10,16,15,23.626,0.4941,-0.3213,0.0978,-0.8018,-1.2,-1.2,-1.2,0.005,0.007,-0.009,1023
2018,5,10,16,15,23.646,0.4942,-0.3212,0.0982,-0.8017,-3.5,-0.7,-1.5,-0.004,0.016,0,1023
2018,5,10,16,15,23.65,0.4942,-0.3214,0.0989,-0.8016,-2.9,-1.8,-1.3,0.004,-0.022,-0.014,1023
2018,5,10,16,15,23.671,0.4942,-0.3213,0.0994,-0.8015,-0.5,-1.1,-0.8,0.004,0.006,-0.009,1023
2018,5,10,16,15,23.692,0.4943,-0.3212,0.0997,-0.8015,-0.7,-0.9,-0.8,0.003,0.002,-0.003,0
2018,5,10,16,15,23.712,0.4943,-0.3211,0.0998,-0.8015,-0.6,-0.3,-0.3,0.006,0.004,-0.008,0
2018,5,10,16,15,23.732,0.4943,-0.3211,0.0999,-0.8015,0,0,0,0.007,0,-0.005,0
2018,5,10,16,15,23.77,0.4944,-0.3211,0.1,-0.8015,0,0,0,0.003,0.003,0,0
2018,5,10,16,15,23.792,0.4943,-0.3211,0.0999,-0.8015,0,0,0,0.003,0.005,-0.006,0
2018,5,10,16,15,23.796,0.4943,-0.3211,0.0999,-0.8015,0,0,0,0.003,0.003,-0.007,0
2018,5,10,16,15,23.812,0.4943,-0.3211,0.0999,-0.8015,0,0,0,0.002,0.006,-0.004,0
2018,5,10,16,15,23.848,0.4943,-0.3211,0.0999,-0.8015,0,0,0,0.003,0.004,-0.006,0
2018,5,10,16,15,23.868,0.4943,-0.3211,0.0999,-0.8015,0,-0.1,0.5,0.005,0.005,-0.001,0
2018,5,10,16,15,23.872,0.4942,-0.3211,0.0998,-0.8016,0.2,0.3,0.7,0.002,0.003,-0.005,0
2018,5,10,16,15,23.894,0.4941,-0.3211,0.0997,-0.8017,0.4,0.3,0.7,0.003,0.003,-0.004,0
2018,5,10,16,15,23.913,0.494,-0.3212,0.0995,-0.8017,0.5,0.4,0.8,0.005,0.004,-0.012,0
2018,5,10,16,15,23.934,0.4939,-0.3212,0.0994,-0.8018,0.3,0.6,1.1,0.003,0.002,-0.007,0
2018,5,10,16,15,23.954,0.4938,-0.3213,0.0992,-0.8018,0.3,0.8,1.2,0.002,0.007,-0.008,0
2018,5,10,16,15,23.974,0.4936,-0.3214,0.099,-0.8019,0.5,0.6,1.2,0.004,0.001,-0.008,0
2018,5,10,16,15,23.994,0.4935,-0.3215,0.0988,-0.802,0.8,0.8,1.3,0.001,0.004,-0.009,0
2018,5,10,16,15,24.014,0.4934,-0.3215,0.0985,-0.8021,0.8,0.7,1.1,0.002,0.007,-0.003,0
2018,5,10,16,15,24.031,0.4933,-0.3216,0.0982,-0.8022,0.8,0.9,1.1,0.002,0.006,0,0
2018,5,10,16,15,24.069,0.4932,-0.3216,0.0979,-0.8022,0.6,0.7,0.8,0.002,0.007,-0.005,0
2018,5,10,16,15,24.09,0.4931,-0.3217,0.0977,-0.8023,0.3,0.6,0.5,0,0.007,-0.008,0
2018,5,10,16,15,24.094,0.4931,-0.3217,0.0976,-0.8023,0,0,0,0.003,0.008,-0.009,0
2018,5,10,16,15,24.134,0.4931,-0.3217,0.0976,-0.8023,0,0,0,0.002,0.007,-0.005,0
2018,5,10,16,15,24.138,0.4931,-0.3217,0.0977,-0.8023,-0.5,-0.9,-0.8,0,0.004,-0.009,0
2018,5,10,16,15,24.155,0.4932,-0.3216,0.098,-0.8022,-1.1,-1.6,-1.1,0.001,0.004,-0.007,0
2018,5,10,16,15,24.176,0.4932,-0.3214,0.0983,-0.8022,-1.3,-1.6,-1.1,0.001,0.005,-0.007,0
2018,5,10,16,15,24.195,0.4933,-0.3213,0.0988,-0.8022,-1.3,-1.6,-1.1,0.004,0.004,-0.005,1023
2018,5,10,16,15,24.233,0.4934,-0.3212,0.0991,-0.8021,-1,-1.3,-1,0.003,0.001,-0.008,1023
2018,5,10,16,15,24.237,0.4935,-0.3211,0.0994,-0.8021,-0.8,-0.8,-0.9,0.003,0.001,-0.005,1023
2018,5,10,16,15,24.254,0.4935,-0.321,0.0996,-0.802,-0.3,-0.3,-0.5,0.006,0.002,-0.004,1023
2018,5,10,16,15,24.274,0.4936,-0.321,0.0996,-0.802,0,0,0,0.008,0,-0.002,1023
2018,5,10,16,15,24.294,0.4936,-0.321,0.0996,-0.802,0.3,0.8,0.2,0.006,0.004,-0.002,1023
2018,5,10,16,15,24.316,0.4936,-0.3211,0.0994,-0.802,0.5,1,0.6,0.004,0.002,-0.001,1023
2018,5,10,16,15,24.335,0.4935,-0.3212,0.0992,-0.802,0.4,1.4,1,0.003,0,-0.006,1023
2018,5,10,16,15,24.371,0.4934,-0.3214,0.0989,-0.802,0.7,1.2,1.1,0.001,0.002,-0.005,1023
2018,5,10,16,15,24.392,0.4933,-0.3216,0.0987,-0.8021,0.8,0.9,1,0.003,0.003,-0.009,0
2018,5,10,16,15,24.397,0.4932,-0.3216,0.0984,-0.8022,0.8,0.4,1,0,0.003,-0.004,0
2018,5,10,16,15,24.417,0.4931,-0.3217,0.0982,-0.8022,0.3,0.5,1,0.001,0.001,-0.006,0
2018,5,10,16,15,24.437,0.493,-0.3218,0.0981,-0.8023,0.5,0.4,0.8,0.001,0.008,-0.01,0
2018,5,10,16,15,24.458,0.4929,-0.3218,0.0979,-0.8024,0.5,0,0.5,0.001,0.009,-0.009,0
2018,5,10,16,15,24.477,0.4929,-0.3218,0.0978,-0.8024,0,0,0,0.001,0.005,-0.004,0
2018,5,10,16,15,24.514,0.4929,-0.3218,0.0978,-0.8024,0,0,0,0.002,0.004,-0.008,0
2018,5,10,16,15,24.534,0.4928,-0.3217,0.0979,-0.8024,-0.5,-0.5,0,0.003,0.004,-0.003,0
2018,5,10,16,15,24.538,0.4928,-0.3217,0.0979,-0.8024,-0.4,-0.5,0,0.005,0.004,-0.008,0
2018,5,10,16,15,24.557,0.4928,-0.3217,0.098,-0.8024,0,0,0,0.004,0.001,-0.009,0
2018,5,10,16,15,24.597,0.4928,-0.3217,0.098,-0.8024,0,0,0,0.006,0.003,-0.004,0
2018,5,10,16,15,24.616,0.4928,-0.3217,0.098,-0.8024,0.3,0.5,0.4,0.006,-0.001,-0.003,0
2018,5,10,16,15,24.62,0.4928,-0.3218,0.0979,-0.8024,0.7,1.1,0.8,0.007,-0.001,-0.01,0
2018,5,10,16,15,24.639,0.4927,-0.3219,0.0976,-0.8024,1,1.7,1.4,0.008,0.004,-0.002,0
2018,5,10,16,15,24.675,0.4926,-0.3221,0.0972,-0.8025,1.4,2.5,2,0.008,0,-0.007,0
2018,5,10,16,15,24.695,0.4924,-0.3224,0.0966,-0.8026,2.1,3.3,2.4,0.005,0.001,-0.004,0
2018,5,10,16,15,24.699,0.4923,-0.3227,0.0958,-0.8026,2.5,3.5,2.4,0.003,0.004,-0.002,0
2018,5,10,16,15,24.714,0.4921,-0.323,0.095,-0.8027,2.7,3.4,2.4,0,0.008,-0.007,0
2018,5,10,16,15,24.751,0.492,-0.3233,0.0942,-0.8027,2,2.6,1.9,-0.003,0.009,-0.005,0
2018,5,10,16,15,24.771,0.4919,-0.3235,0.0936,-0.8028,1.1,1.7,1.5,-0.002,0.008,-0.006,0
2018,5,10,16,15,24.778,0.4917,-0.3237,0.0933,-0.8028,0.5,0.6,0.8,0,0.01,-0.01,0
2018,5,10,16,15,24.815,0.4917,-0.3237,0.0931,-0.8029,0,0,0,0.002,0.007,-0.01,0
2018,5,10,16,15,24.836,0.4916,-0.3237,0.0932,-0.8029,-0.5,-0.7,0,0.002,0.005,-0.009,0
2018,5,10,16,15,24.84,0.4916,-0.3237,0.0933,-0.8029,-0.5,-0.7,-0.3,0.003,0.005,-0.003,0
2018,5,10,16,15,24.86,0.4916,-0.3236,0.0935,-0.8029,-0.5,-0.8,-0.4,0.002,0.004,-0.003,0
2018,5,10,16,15,24.899,0.4916,-0.3235,0.0937,-0.8029,-0.5,-0.5,-0.7,0.002,0.004,-0.003,0
2018,5,10,16,15,24.919,0.4917,-0.3235,0.0938,-0.8029,-0.5,-0.2,-1,0.002,0.003,-0.006,1023
2018,5,10,16,15,24.923,0.4918,-0.3235,0.0939,-0.8028,-0.3,-0.3,-1,0.001,0.006,-0.007,1023
2018,5,10,16,15,24.936,0.492,-0.3235,0.0941,-0.8027,-0.6,-0.7,-1.4,0.002,0.008,-0.008,1023
2018,5,10,16,15,24.975,0.4921,-0.3234,0.0944,-0.8026,-0.9,-1.3,-1.6,0.001,0.006,-0.011,1023
2018,5,10,16,15,24.996,0.4922,-0.3232,0.0948,-0.8025,-1.3,-1.8,-1.4,0.002,0.005,-0.008,1023
2018,5,10,16,15,25,0.4923,-0.3231,0.0952,-0.8025,-1.4,-1.8,-1.4,0.004,0.002,-0.009,1023
2018,5,10,16,15,25.018,0.4924,-0.3229,0.0957,-0.8025,-1.3,-2.1,-1.4,0.005,0.004,-0.008,1023
2018,5,10,16,15,25.038,0.4925,-0.3227,0.0961,-0.8025,-1.4,-1.8,-1.4,0.007,0.003,-0.007,1023
2018,5,10,16,15,25.076,0.4926,-0.3225,0.0966,-0.8024,-1.3,-1.6,-1.3,0.008,0.002,-0.006,1023
2018,5,10,16,15,25.096,0.4926,-0.3224,0.097,-0.8024,-0.8,-1,-1,0.005,-0.001,-0.004,0
2018,5,10,16,15,25.1,0.4927,-0.3223,0.0972,-0.8023,-0.5,-0.4,-0.8,0.006,0.001,-0.003,0
2018,5,10,16,15,25.14,0.4928,-0.3223,0.0973,-0.8023,-0.1,-0.2,-0.6,0.006,0.003,-0.007,0
2018,5,10,16,15,25.159,0.4929,-0.3223,0.0974,-0.8022,0,0,0,0.003,0.003,-0.004,0
2018,5,10,16,15,25.163,0.4929,-0.3223,0.0974,-0.8022,0,0,0,0.003,0.002,-0.006,0
2018,5,10,16,15,25.185,0.4929,-0.3223,0.0974,-0.8022,0,0,0,0.006,0.003,-0.009,0
2018,5,10,16,15,25.205,0.4929,-0.3223,0.0974,-0.8022,0,0,0,0.001,0.001,-0.009,0
2018,5,10,16,15,25.223,0.4929,-0.3223,0.0974,-0.8022,0,0,0,0.004,0.003,-0.005,0
2018,5,10,16,15,25.24,0.4929,-0.3223,0.0974,-0.8022,0,0,0,0.002,0.004,-0.005,0
2018,5,10,16,15,25.276,0.4929,-0.3223,0.0974,-0.8022,0,0,0,0.001,0.004,-0.006,0
2018,5,10,16,15,25.295,0.4928,-0.3223,0.0974,-0.8022,0,0,0,0,0.006,-0.007,0
2018,5,10,16,15,25.299,0.4928,-0.3223,0.0973,-0.8022,0,0,0,0.002,0.005,-0.012,0
2018,5,10,16,15,25.342,0.4928,-0.3223,0.0973,-0.8022,0,0,0,0.001,0.004,-0.008,0
2018,5,10,16,15,25.362,0.4928,-0.3223,0.0974,-0.8022,-0.6,-0.6,-0.5,0.001,0.006,-0.006,0
2018,5,10,16,15,25.366,0.4928,-0.3223,0.0976,-0.8022,-0.7,-0.7,-0.2,0.004,0.001,-0.006,0
2018,5,10,16,15,25.416,0.4928,-0.3222,0.0978,-0.8022,-0.5,-0.5,-0.3,0.003,0.005,-0.011,0
2018,5,10,16,15,25.42,0.4928,-0.3222,0.0978,-0.8022,0,0,0,0.003,0.003,-0.004,0
2018,5,10,16,15,25.424,0.4928,-0.3222,0.0978,-0.8022,0,0,0,0.004,0.001,-0.011,0
2018,5,10,16,15,25.442,0.4929,-0.3222,0.0978,-0.8022,0,0,0,0.005,0.004,-0.007,0
2018,5,10,16,15,25.462,0.4929,-0.3222,0.0978,-0.8022,0,0,0,0.003,0.002,-0.002,0
2018,5,10,16,15,25.482,0.4929,-0.3222,0.0979,-0.8022,0,0,0,0.002,0.002,-0.007,0
2018,5,10,16,15,25.519,0.4928,-0.3222,0.0979,-0.8022,0,0,0,0.001,0,-0.008,0
2018,5,10,16,15,25.538,0.4928,-0.3222,0.0978,-0.8022,0.3,0,0.5,0.004,0.004,-0.006,0
2018,5,10,16,15,25.542,0.4928,-0.3222,0.0978,-0.8023,0,0,0,0.002,0.005,-0.014,0
2018,5,10,16,15,25.581,0.4928,-0.3222,0.0977,-0.8023,0,0,0,0.003,0.006,-0.01,0
2018,5,10,16,15,25.601,0.4928,-0.3222,0.0977,-0.8023,0,0,0,0.006,0.006,-0.001,0
2018,5,10,16,15,25.606,0.4928,-0.3222,0.0977,-0.8023,0,0,0,0.001,0.006,-0.008,1023
2018,5,10,16,15,25.628,0.4927,-0.3222,0.0977,-0.8023,0,0,0,0.003,0.005,-0.006,1023
2018,5,10,16,15,25.642,0.4927,-0.3223,0.0977,-0.8023,0,0,0,0.004,0.004,-0.008,1023
2018,5,10,16,15,25.682,0.4927,-0.3223,0.0977,-0.8023,0,0,0,0.004,0.007,-0.007,1023
2018,5,10,16,15,25.702,0.4927,-0.3222,0.0977,-0.8023,-0.3,-0.5,-0.3,0.002,0.004,-0.007,1023
2018,5,10,16,15,25.706,0.4928,-0.3222,0.0978,-0.8023,-0.4,-0.4,-0.5,0.002,0.004,-0.007,1023
2018,5,10,16,15,25.724,0.4928,-0.3221,0.098,-0.8022,-0.5,-0.9,-0.7,0.002,0.006,-0.01,1023
2018,5,10,16,15,25.761,0.4929,-0.3221,0.0982,-0.8022,-0.8,-0.9,-1,0.003,0.001,-0.004,1023
2018,5,10,16,15,25.78,0.4929,-0.322,0.0985,-0.8022,-0.8,-1.2,-1.1,0.001,0.003,-0.009,1023
2018,5,10,16,15,25.783,0.493,-0.3219,0.0988,-0.8021,-1.1,-1.3,-1.1,0.006,0.004,-0.009,1023
2018,5,10,16,15,25.819,0.4931,-0.3218,0.0991,-0.8021,-1,-1,-0.8,0.006,0.003,-0.006,0
2018,5,10,16,15,25.838,0.4931,-0.3217,0.0994,-0.8021,-0.7,-0.9,-0.5,0.004,0,-0.009,0
2018,5,10,16,15,25.845,0.4932,-0.3216,0.0996,-0.802,-0.2,-0.6,-0.2,0.005,0.002,-0.009,0
2018,5,10,16,15,25.883,0.4932,-0.3216,0.0996,-0.802,0,0,0,0.006,0.002,0,0
2018,5,10,16,15,25.905,0.4932,-0.3215,0.0996,-0.802,0,0,0,0.004,0.003,-0.007,0
2018,5,10,16,15,25.909,0.4932,-0.3215,0.0997,-0.802,0.3,0.4,0.5,0.007,0.003,-0.009,0
2018,5,10,16,15,25.923,0.4932,-0.3216,0.0996,-0.8021,0.4,0.4,0.5,0.003,0.006,-0.008,0
2018,5,10,16,15,25.962,0.4932,-0.3216,0.0995,-0.8021,0,0,0,0.001,0.004,0,0
2018,5,10,16,15,25.983,0.4931,-0.3216,0.0995,-0.8021,0,0,0,0.003,0.006,-0.006,0
2018,5,10,16,15,25.987,0.4931,-0.3216,0.0995,-0.8021,0,0,0,0,0.004,-0.009,0
2018,5,10,16,15,26.007,0.4931,-0.3216,0.0995,-0.8021,0,0,0,0.003,0.002,-0.01,0
2018,5,10,16,15,26.028,0.4931,-0.3216,0.0995,-0.8021,-0.1,-0.6,0,0,0,-0.01,0
2018,5,10,16,15,26.048,0.4931,-0.3216,0.0996,-0.8021,-0.2,-0.7,0,0.003,0.004,-0.005,0
2018,5,10,16,15,26.068,0.4931,-0.3215,0.0997,-0.8021,-0.5,-0.6,0.2,0.004,0.003,-0.003,0
2018,5,10,16,15,26.106,0.493,-0.3215,0.0998,-0.8022,-0.5,-0.4,0.2,0.004,0.006,-0.007,0
2018,5,10,16,15,26.11,0.493,-0.3214,0.0998,-0.8022,0,0,0,0.005,0.003,-0.004,0
2018,5,10,16,15,26.126,0.493,-0.3214,0.0998,-0.8022,0.6,0.3,0.3,0.002,0.004,-0.006,0
2018,5,10,16,15,26.145,0.493,-0.3215,0.0996,-0.8022,0.6,0.5,0.2,0.005,0.006,-0.005,0
2018,5,10,16,15,26.165,0.493,-0.3215,0.0995,-0.8022,0.3,0.6,0.3,0.004,0.004,-0.007,0
2018,5,10,16,15,26.205,0.493,-0.3216,0.0994,-0.8022,0,0,0,0,0.006,-0.009,0
2018,5,10,16,15,26.223,0.493,-0.3216,0.0994,-0.8022,0,0,0,0,0.005,-0.012,0
2018,5,10,16,15,26.227,0.493,-0.3216,0.0994,-0.8022,0,0,0,0.002,0.005,-0.013,0
2018,5,10,16,15,26.265,0.493,-0.3216,0.0995,-0.8022,-0.3,-0.7,-0.3,0.002,0.006,-0.007,0
2018,5,10,16,15,26.284,0.493,-0.3215,0.0996,-0.8022,-0.8,-1,-0.5,0.001,0.006,-0.007,0
2018,5,10,16,15,26.288,0.493,-0.3214,0.0998,-0.8022,-0.7,-1.1,-0.7,0.002,0.003,-0.009,0
2018,5,10,16,15,26.309,0.493,-0.3213,0.1001,-0.8022,-0.7,-0.9,-0.8,0.004,0.003,-0.007,0
2018,5,10,16,15,26.329,0.4931,-0.3212,0.1003,-0.8022,-0.4,-0.7,-0.6,0.004,0.002,-0.006,1023
2018,5,10,16,15,26.346,0.4931,-0.3212,0.1005,-0.8021,-0.5,-0.6,-0.7,0.004,0.002,-0.003,1023
2018,5,10,16,15,26.382,0.4932,-0.3212,0.1006,-0.8021,-0.5,-0.4,-0.3,0.004,0.005,-0.001,1023
2018,5,10,16,15,26.402,0.4932,-0.3212,0.1007,-0.8021,-0.5,0,-0.3,0.004,0.001,-0.009,1023
2018,5,10,16,15,26.406,0.4932,-0.3212,0.1008,-0.8021,0,0,0,0.003,0.005,-0.005,1023
2018,5,10,16,15,26.445,0.4932,-0.3212,0.1008,-0.802,0,0,0,0.005,0.003,-0.006,1023
2018,5,10,16,15,26.465,0.4932,-0.3212,0.1009,-0.802,-0.7,-0.3,-0.3,0.006,0,-0.008,1023
2018,5,10,16,15,26.469,0.4932,-0.3213,0.101,-0.802,-0.7,-0.1,0,0.004,0.004,-0.008,1023
2018,5,10,16,15,26.49,0.4932,-0.3213,0.1011,-0.802,0,0,0,0.005,-0.001,-0.004,1023
2018,5,10,16,15,26.51,0.4931,-0.3213,0.1011,-0.802,0.2,0.8,0.7,0.008,-0.001,-0.008,0
2018,5,10,16,15,26.547,0.4931,-0.3214,0.1009,-0.802,0.5,1.2,0.8,0.005,0,-0.001,0
2018,5,10,16,15,26.568,0.493,-0.3216,0.1006,-0.802,0.9,1.3,1.1,0.005,0.001,-0.008,0
2018,5,10,16,15,26.572,0.4929,-0.3217,0.1003,-0.8021,1,1.2,1.1,0.003,0.005,-0.011,0
2018,5,10,16,15,26.592,0.4928,-0.3218,0.1,-0.8021,0.9,1.3,1.4,0.002,0.004,-0.008,0
2018,5,10,16,15,26.608,0.4927,-0.322,0.0996,-0.8022,0.7,0.8,1.2,0,0.004,-0.006,0
2018,5,10,16,15,26.647,0.4926,-0.322,0.0994,-0.8022,0.4,0.4,0.8,0.001,0.005,-0.009,0
2018,5,10,16,15,26.651,0.4925,-0.3221,0.0992,-0.8023,0.5,0.1,0.7,0.002,0.007,-0.008,0
2018,5,10,16,15,26.668,0.4925,-0.3221,0.0991,-0.8023,0,0,0,0,0.008,-0.008,0
2018,5,10,16,15,26.708,0.4925,-0.3221,0.0991,-0.8023,0,0,0,0.002,0.005,-0.007,0
2018,5,10,16,15,26.728,0.4924,-0.3221,0.0992,-0.8023,-0.4,-0.7,0,0.004,0.006,-0.004,0
2018,5,10,16,15,26.732,0.4924,-0.322,0.0993,-0.8024,-0.3,-0.6,-0.1,0.002,0.004,-0.007,0
2018,5,10,16,15,26.751,0.4924,-0.322,0.0993,-0.8024,0,0,0,0.004,0,-0.01,0
2018,5,10,16,15,26.77,0.4924,-0.322,0.0994,-0.8024,0,0,0,0.005,0.004,-0.003,0
2018,5,10,16,15,26.81,0.4924,-0.322,0.0994,-0.8024,0,0,0,0.003,0.002,-0.004,0
2018,5,10,16,15,26.814,0.4925,-0.3221,0.0992,-0.8023,0.3,0.8,0,0.003,0.004,-0.01,0
2018,5,10,16,15,26.83,0.4925,-0.3222,0.0991,-0.8023,0.5,1,0,0.003,0.003,-0.009,0
2018,5,10,16,15,26.868,0.4925,-0.3223,0.0989,-0.8022,0.5,0.7,0,0.003,0.005,-0.003,0
2018,5,10,16,15,26.888,0.4925,-0.3224,0.0988,-0.8022,0.3,0.6,0.1,0.001,0.002,-0.007,0
2018,5,10,16,15,26.892,0.4926,-0.3224,0.0987,-0.8022,0,0,0,0.003,0.002,-0.004,0
2018,5,10,16,15,26.928,0.4925,-0.3225,0.0987,-0.8022,0,0,0,0.003,0.002,-0.005,0
2018,5,10,16,15,26.949,0.4925,-0.3225,0.0988,-0.8022,0,0,0,0.004,0.004,-0.005,0
2018,5,10,16,15,26.953,0.4925,-0.3225,0.0987,-0.8022,0,0,0,0.004,0,-0.006,0
2018,5,10,16,15,26.974,0.4925,-0.3225,0.0987,-0.8022,0,0,0,0,0.007,-0.005,0
2018,5,10,16,15,26.993,0.4925,-0.3225,0.0987,-0.8022,0,0,0,0.003,0.008,-0.006,0
2018,5,10,16,15,27.03,0.4925,-0.3225,0.0987,-0.8022,0,0,0,0.001,0.005,-0.006,0
2018,5,10,16,15,27.034,0.4925,-0.3225,0.0987,-0.8022,0,0,0,0.002,0.002,-0.009,1023
2018,5,10,16,15,27.051,0.4925,-0.3225,0.0987,-0.8022,0,0,0,0.004,0.002,-0.009,1023
2018,5,10,16,15,27.091,0.4925,-0.3225,0.0987,-0.8022,0,0,0,0,0.007,-0.007,1023
2018,5,10,16,15,27.11,0.4925,-0.3225,0.0987,-0.8022,0,0,0,0.004,0.004,-0.008,1023
2018,5,10,16,15,27.114,0.4925,-0.3225,0.0987,-0.8022,0,0,0,0.003,0.003,-0.006,1023
2018,5,10,16,15,27.132,0.4925,-0.3225,0.0987,-0.8022,0,0,0,0,0.004,-0.009,1023
2018,5,10,16,15,27.155,0.4925,-0.3225,0.0987,-0.8022,0,0,0,0.006,0.002,-0.003,1023
2018,5,10,16,15,27.193,0.4925,-0.3225,0.0987,-0.8022,0,0,0,0.005,0.005,-0.006,1023
2018,5,10,16,15,27.214,0.4925,-0.3225,0.0986,-0.8022,0.3,0.6,0,0.004,0.003,-0.003,1023
2018,5,10,16,15,27.218,0.4925,-0.3226,0.0985,-0.8021,0.3,0.9,0.4,0.004,0.003,-0.004,1023
2018,5,10,16,15,27.235,0.4925,-0.3227,0.0983,-0.8021,0.8,1.1,0.3,0.001,0.004,-0.002,0
2018,5,10,16,15,27.273,0.4925,-0.3229,0.0981,-0.8021,0.7,1.4,0.7,0.002,0.005,-0.007,0
2018,5,10,16,15,27.294,0.4925,-0.323,0.0978,-0.8021,0.9,1.1,0.5,0.003,0.003,-0.007,0
2018,5,10,16,15,27.298,0.4925,-0.3231,0.0976,-0.8021,0.2,0.5,0.3,0,0.006,-0.007,0
2018,5,10,16,15,27.312,0.4925,-0.3231,0.0975,-0.8021,0,0,0,0.002,0.006,-0.006,0
2018,5,10,16,15,27.334,0.4924,-0.3231,0.0975,-0.8021,0,0,0,0.002,0.006,-0.006,0
2018,5,10,16,15,27.354,0.4924,-0.3231,0.0976,-0.8022,-0.4,-0.7,-0.2,0,0.006,-0.01,0
2018,5,10,16,15,27.374,0.4924,-0.323,0.0977,-0.8022,-0.7,-1,-0.3,-0.001,0.007,-0.003,0
2018,5,10,16,15,27.413,0.4924,-0.3229,0.098,-0.8022,-0.5,-1,-0.3,0.004,0.005,-0.009,0
2018,5,10,16,15,27.434,0.4924,-0.3228,0.0982,-0.8022,-0.7,-1,-0.4,0.004,0.003,-0.004,0
2018,5,10,16,15,27.438,0.4925,-0.3227,0.0984,-0.8022,-0.5,-0.7,-0.5,0.005,0.003,-0.003,0
2018,5,10,16,15,27.458,0.4925,-0.3227,0.0985,-0.8022,0,0,0,0.007,0.001,-0.004,0
2018,5,10,16,15,27.476,0.4925,-0.3227,0.0985,-0.8022,0,0,0,0.005,0.003,-0.005,0
2018,5,10,16,15,27.497,0.4925,-0.3227,0.0985,-0.8022,0,0,0,0.001,0.005,0.002,0
2018,5,10,16,15,27.518,0.4925,-0.3227,0.0985,-0.8022,0,0,0,0.002,0.006,-0.008,0
2018,5,10,16,15,27.536,0.4925,-0.3227,0.0985,-0.8022,0,0,0,0.003,0.004,-0.012,0
2018,5,10,16,15,27.571,0.4925,-0.3227,0.0985,-0.8022,0,0,0,0.003,0.002,-0.01,0
