subject_id,activity_id,trial_id,is_fall,time,WRST_ACC_X,WRST_ACC_Y,WRST_ACC_Z,WRST_ANG_X,WRST_ANG_Y,WRST_ANG_Z,WRST_LUMINOSITY
01,06,01,0,24-May-2018 12:14:19,-0.96846,-0.31634,-0.2297,-65.396,24.16175,-6.57025,112.441
01,06,01,0,24-May-2018 12:14:19,-0.96846,-0.31634,-0.2297,-65.396,24.16175,-6.57025,112.441
01,06,01,0,24-May-2018 12:14:19,-0.96846,-0.31634,-0.2297,-65.396,24.16175,-6.57025,112.441
01,06,01,0,24-May-2018 12:14:19,-0.96846,-0.31634,-0.2297,-65.396,24.16175,-6.57025,112.441
01,06,01,0,24-May-2018 12:14:20,0.06865,-0.7601,0.09755,-48.5446666666667,1.79,-198.421833333333,112.441
01,06,01,0,24-May-2018 12:14:20,0.06865,-0.7601,0.09755,-48.5446666666667,1.79,-198.421833333333,112.441
01,06,01,0,24-May-2018 12:14:20,0.06865,-0.7601,0.09755,-48.5446666666667,1.79,-198.421833333333,112.441
01,06,01,0,24-May-2018 12:14:20,0.06865,-0.7601,0.09755,-48.5446666666667,1.79,-198.421833333333,0
01,06,01,0,24-May-2018 12:14:21,0.4153,-0.562385714285714,0.207714285714286,-5.864,3.56716666666667,157.408333333333,685.3485
01,06,01,0,24-May-2018 12:14:21,0.4153,-0.562385714285714,0.207714285714286,-5.864,3.56716666666667,157.408333333333,685.3485
01,06,01,0,24-May-2018 12:14:21,0.4153,-0.562385714285714,0.207714285714286,-5.864,3.56716666666667,157.408333333333,685.3485
01,06,01,0,24-May-2018 12:14:21,0.4153,-0.562385714285714,0.207714285714286,-5.864,3.56716666666667,157.408333333333,685.3485
01,06,01,0,24-May-2018 12:14:22,-0.9737,-0.383425,-0.0443,114.421,20.305,-31.4025,676.771
01,06,01,0,24-May-2018 12:14:22,-0.9737,-0.383425,-0.0443,114.421,20.305,-31.4025,676.771
01,06,01,0,24-May-2018 12:14:22,-0.9737,-0.383425,-0.0443,114.421,20.305,-31.4025,676.771
01,06,01,0,24-May-2018 12:14:22,-0.9737,-0.383425,-0.0443,114.421,20.305,-31.4025,676.771
01,06,01,0,24-May-2018 12:14:23,-0.83965,-0.4973,0.0187666666666667,32.881,-10.366,-7.561,13.372
01,06,01,0,24-May-2018 12:14:23,-0.83965,-0.4973,0.0187666666666667,32.881,-10.366,-7.561,13.372
01,06,01,0,24-May-2018 12:14:23,-0.83965,-0.4973,0.0187666666666667,32.881,-10.366,-7.561,13.372
01,06,01,0,24-May-2018 12:14:23,-0.83965,-0.4973,0.0187666666666667,32.881,-10.366,-7.561,13.372
01,06,01,0,24-May-2018 12:14:24,-0.7684,-0.572533333333333,0.0457666666666667,5.0305,-0.762,-1.814,11.097
01,06,01,0,24-May-2018 12:14:24,-0.7684,-0.572533333333333,0.0457666666666667,5.0305,-0.762,-1.814,11.097
01,06,01,0,24-May-2018 12:14:24,-0.7684,-0.572533333333333,0.0457666666666667,5.0305,-0.762,-1.814,11.097
01,06,01,0,24-May-2018 12:14:24,-0.7684,-0.572533333333333,0.0457666666666667,5.0305,-0.762,-1.814,11.097
01,06,01,0,24-May-2018 12:14:25,-0.76176,-0.59044,0.03396,-7.78757142857143,-4.47728571428571,-3.53671428571429,11.4665
01,06,01,0,24-May-2018 12:14:25,-0.76176,-0.59044,0.03396,-7.78757142857143,-4.47728571428571,-3.53671428571429,11.4665
01,06,01,0,24-May-2018 12:14:25,-0.76176,-0.59044,0.03396,-7.78757142857143,-4.47728571428571,-3.53671428571429,11.4665
01,06,01,0,24-May-2018 12:14:25,-0.76176,-0.59044,0.03396,-7.78757142857143,-4.47728571428571,-3.53671428571429,11.4665
01,06,01,0,24-May-2018 12:14:26,-0.768333333333333,-0.5893,0.0671333333333333,-59.0226,-10.4024,20.2804,8.942
01,06,01,0,24-May-2018 12:14:26,-0.768333333333333,-0.5893,0.0671333333333333,-59.0226,-10.4024,20.2804,8.942
01,06,01,0,24-May-2018 12:14:26,-0.768333333333333,-0.5893,0.0671333333333333,-59.0226,-10.4024,20.2804,8.942
01,06,01,0,24-May-2018 12:14:26,-0.768333333333333,-0.5893,0.0671333333333333,-59.0226,-10.4024,20.2804,8.942
01,06,01,0,24-May-2018 12:14:27,-0.864,-0.3517,-0.26762,-25.7113333333333,3.31266666666667,2.58133333333333,118.4595
01,06,01,0,24-May-2018 12:14:27,-0.864,-0.3517,-0.26762,-25.7113333333333,3.31266666666667,2.58133333333333,118.4595
01,06,01,0,24-May-2018 12:14:27,-0.864,-0.3517,-0.26762,-25.7113333333333,3.31266666666667,2.58133333333333,118.4595
01,06,01,0,24-May-2018 12:14:27,-0.864,-0.3517,-0.26762,-25.7113333333333,3.31266666666667,2.58133333333333,118.4595
01,06,01,0,24-May-2018 12:14:28,-0.7971,-0.5389,-0.08876,39.4818333333333,1.7785,-2.53033333333333,11.454
01,06,01,0,24-May-2018 12:14:28,-0.7971,-0.5389,-0.08876,39.4818333333333,1.7785,-2.53033333333333,11.454
01,06,01,0,24-May-2018 12:14:28,-0.7971,-0.5389,-0.08876,39.4818333333333,1.7785,-2.53033333333333,11.454
01,06,01,0,24-May-2018 12:14:28,-0.7971,-0.5389,-0.08876,39.4818333333333,1.7785,-2.53033333333333,11.454
01,06,01,0,24-May-2018 12:14:29,-0.773966666666667,-0.560233333333333,0.00258333333333333,1.1464,12.3904,-2.878,10.714
01,06,01,0,24-May-2018 12:14:29,-0.773966666666667,-0.560233333333333,0.00258333333333333,1.1464,12.3904,-2.878,10.714
01,06,01,0,24-May-2018 12:14:29,-0.773966666666667,-0.560233333333333,0.00258333333333333,1.1464,12.3904,-2.878,10.714
01,06,01,0,24-May-2018 12:14:29,-0.773966666666667,-0.560233333333333,0.00258333333333333,1.1464,12.3904,-2.878,10.714
01,06,01,0,24-May-2018 12:14:30,-0.75435,-0.610983333333333,-0.132183333333333,37.934625,26.63875,11.836875,9.077
01,06,01,0,24-May-2018 12:14:30,-0.75435,-0.610983333333333,-0.132183333333333,37.934625,26.63875,11.836875,9.077
01,06,01,0,24-May-2018 12:14:30,-0.75435,-0.610983333333333,-0.132183333333333,37.934625,26.63875,11.836875,9.077
01,06,01,0,24-May-2018 12:14:30,-0.75435,-0.610983333333333,-0.132183333333333,37.934625,26.63875,11.836875,9.077
01,06,01,0,24-May-2018 12:14:31,-0.732828571428571,-0.572414285714286,-0.275,-19.0852,-19.2438,-8.2074,7.95933333333333
01,06,01,0,24-May-2018 12:14:31,-0.732828571428571,-0.572414285714286,-0.275,-19.0852,-19.2438,-8.2074,7.95933333333333
01,06,01,0,24-May-2018 12:14:31,-0.732828571428571,-0.572414285714286,-0.275,-19.0852,-19.2438,-8.2074,7.95933333333333
01,06,01,0,24-May-2018 12:14:31,-0.732828571428571,-0.572414285714286,-0.275,-19.0852,-19.2438,-8.2074,7.95933333333333
01,06,01,0,24-May-2018 12:14:32,-0.7833,-0.4702,-0.2779,-101.6332,-30.4758,-10.0732,7.4675
01,06,01,0,24-May-2018 12:14:32,-0.7833,-0.4702,-0.2779,-101.6332,-30.4758,-10.0732,7.4675
01,06,01,0,24-May-2018 12:14:32,-0.7833,-0.4702,-0.2779,-101.6332,-30.4758,-10.0732,7.4675
01,06,01,0,24-May-2018 12:14:32,-0.7833,-0.4702,-0.2779,-101.6332,-30.4758,-10.0732,7.4675
01,06,01,0,24-May-2018 12:14:33,-0.764366666666667,-0.475383333333333,-0.2605,6,-19.5854,-23.244,19.906
01,06,01,0,24-May-2018 12:14:33,-0.764366666666667,-0.475383333333333,-0.2605,6,-19.5854,-23.244,19.906
01,06,01,0,24-May-2018 12:14:33,-0.764366666666667,-0.475383333333333,-0.2605,6,-19.5854,-23.244,19.906
01,06,01,0,24-May-2018 12:14:33,-0.764366666666667,-0.475383333333333,-0.2605,6,-19.5854,-23.244,19.906
01,06,01,0,24-May-2018 12:14:34,-0.8315,-0.451666666666667,-0.248566666666667,-46.5608,-26.4024,-1.8902,19.906
01,06,01,0,24-May-2018 12:14:34,-0.8315,-0.451666666666667,-0.248566666666667,-46.5608,-26.4024,-1.8902,19.906
01,06,01,0,24-May-2018 12:14:34,-0.8315,-0.451666666666667,-0.248566666666667,-46.5608,-26.4024,-1.8902,19.906
01,06,01,0,24-May-2018 12:14:34,-0.8315,-0.451666666666667,-0.248566666666667,-46.5608,-26.4024,-1.8902,0
01,06,01,0,24-May-2018 12:14:35,-0.78545,-0.50035,-0.09835,-14.2928,-14.5486,-5.073,13.542
01,06,01,0,24-May-2018 12:14:35,-0.78545,-0.50035,-0.09835,-14.2928,-14.5486,-5.073,13.542
01,06,01,0,24-May-2018 12:14:35,-0.78545,-0.50035,-0.09835,-14.2928,-14.5486,-5.073,13.542
01,06,01,0,24-May-2018 12:14:35,-0.78545,-0.50035,-0.09835,-14.2928,-14.5486,-5.073,13.542
01,06,01,0,24-May-2018 12:14:36,-0.7567,-0.587975,-0.036725,3.557,3.25216666666667,-1.301,7.804
01,06,01,0,24-May-2018 12:14:36,-0.7567,-0.587975,-0.036725,3.557,3.25216666666667,-1.301,7.804
01,06,01,0,24-May-2018 12:14:36,-0.7567,-0.587975,-0.036725,3.557,3.25216666666667,-1.301,7.804
01,06,01,0,24-May-2018 12:14:36,-0.7567,-0.587975,-0.036725,3.557,3.25216666666667,-1.301,7.804
01,06,01,0,24-May-2018 12:14:37,-0.7679,-0.59435,-0.04455,-3.07925,-0.45725,-0.83825,7.804
01,06,01,0,24-May-2018 12:14:37,-0.7679,-0.59435,-0.04455,-3.07925,-0.45725,-0.83825,7.804
01,06,01,0,24-May-2018 12:14:37,-0.7679,-0.59435,-0.04455,-3.07925,-0.45725,-0.83825,7.804
01,06,01,0,24-May-2018 12:14:37,-0.7679,-0.59435,-0.04455,-3.07925,-0.45725,-0.83825,0
01,06,01,0,24-May-2018 12:14:38,-0.765966666666667,-0.585033333333333,-0.0552666666666667,12.378,2.744,0.793,9.272
01,06,01,0,24-May-2018 12:14:38,-0.765966666666667,-0.585033333333333,-0.0552666666666667,12.378,2.744,0.793,9.272
01,06,01,0,24-May-2018 12:14:38,-0.765966666666667,-0.585033333333333,-0.0552666666666667,12.378,2.744,0.793,9.272
01,06,01,0,24-May-2018 12:14:38,-0.765966666666667,-0.585033333333333,-0.0552666666666667,12.378,2.744,0.793,9.272
01,06,01,0,24-May-2018 12:14:39,-0.76575,-0.5836,-0.0611833333333333,-1.52433333333333,0.447333333333333,-0.264333333333333,5.757
01,06,01,0,24-May-2018 12:14:39,-0.76575,-0.5836,-0.0611833333333333,-1.52433333333333,0.447333333333333,-0.264333333333333,5.757
01,06,01,0,24-May-2018 12:14:39,-0.76575,-0.5836,-0.0611833333333333,-1.52433333333333,0.447333333333333,-0.264333333333333,5.757
01,06,01,0,24-May-2018 12:14:39,-0.76575,-0.5836,-0.0611833333333333,-1.52433333333333,0.447333333333333,-0.264333333333333,5.757
01,06,01,0,24-May-2018 12:14:40,-0.76666,-0.58326,-0.06264,2.241,1.2955,-0.19825,8.166
01,06,01,0,24-May-2018 12:14:40,-0.76666,-0.58326,-0.06264,2.241,1.2955,-0.19825,8.166
01,06,01,0,24-May-2018 12:14:40,-0.76666,-0.58326,-0.06264,2.241,1.2955,-0.19825,8.166
01,06,01,0,24-May-2018 12:14:40,-0.76666,-0.58326,-0.06264,2.241,1.2955,-0.19825,8.166
01,06,01,0,24-May-2018 12:14:41,-0.76632,-0.58402,-0.0625,1.26,0.122,-0.142333333333333,8.147
01,06,01,0,24-May-2018 12:14:41,-0.76632,-0.58402,-0.0625,1.26,0.122,-0.142333333333333,8.147
01,06,01,0,24-May-2018 12:14:41,-0.76632,-0.58402,-0.0625,1.26,0.122,-0.142333333333333,8.147
01,06,01,0,24-May-2018 12:14:41,-0.76632,-0.58402,-0.0625,1.26,0.122,-0.142333333333333,8.147
01,06,01,0,24-May-2018 12:14:42,-0.766471428571428,-0.586985714285714,-0.0483857142857143,-4.771,-0.945,-0.44225,6.204
01,06,01,0,24-May-2018 12:14:42,-0.766471428571428,-0.586985714285714,-0.0483857142857143,-4.771,-0.945,-0.44225,6.204
01,06,01,0,24-May-2018 12:14:42,-0.766471428571428,-0.586985714285714,-0.0483857142857143,-4.771,-0.945,-0.44225,6.204
01,06,01,0,24-May-2018 12:14:42,-0.766471428571428,-0.586985714285714,-0.0483857142857143,-4.771,-0.945,-0.44225,6.204
01,06,01,0,24-May-2018 12:14:43,-0.674516666666667,-0.49955,0.0383333333333333,35.4878333333333,-17.2851666666667,-91.145,5.3745
01,06,01,0,24-May-2018 12:14:43,-0.674516666666667,-0.49955,0.0383333333333333,35.4878333333333,-17.2851666666667,-91.145,5.3745
01,06,01,0,24-May-2018 12:14:43,-0.674516666666667,-0.49955,0.0383333333333333,35.4878333333333,-17.2851666666667,-91.145,5.3745
01,06,01,0,24-May-2018 12:14:43,-0.674516666666667,-0.49955,0.0383333333333333,35.4878333333333,-17.2851666666667,-91.145,5.3745
01,06,01,0,24-May-2018 12:14:44,0.0167428571428571,-0.787471428571429,-0.362142857142857,-18.5854,0.5122,1.8414,14.405
01,06,01,0,24-May-2018 12:14:44,0.0167428571428571,-0.787471428571429,-0.362142857142857,-18.5854,0.5122,1.8414,14.405
01,06,01,0,24-May-2018 12:14:44,0.0167428571428571,-0.787471428571429,-0.362142857142857,-18.5854,0.5122,1.8414,14.405
01,06,01,0,24-May-2018 12:14:44,0.0167428571428571,-0.787471428571429,-0.362142857142857,-18.5854,0.5122,1.8414,14.405
01,06,01,0,24-May-2018 12:14:45,-0.0440142857142857,-0.525728571428571,-0.876957142857143,-29.2684,-5.2682,5.0122,63.997
01,06,01,0,24-May-2018 12:14:45,-0.0440142857142857,-0.525728571428571,-0.876957142857143,-29.2684,-5.2682,5.0122,63.997
01,06,01,0,24-May-2018 12:14:45,-0.0440142857142857,-0.525728571428571,-0.876957142857143,-29.2684,-5.2682,5.0122,63.997
01,06,01,0,24-May-2018 12:14:45,-0.0440142857142857,-0.525728571428571,-0.876957142857143,-29.2684,-5.2682,5.0122,63.997
01,06,01,0,24-May-2018 12:14:46,-0.08848,-0.46006,-0.90378,5.57925,-0.76225,-3.765,77.0434
01,06,01,0,24-May-2018 12:14:46,-0.08848,-0.46006,-0.90378,5.57925,-0.76225,-3.765,77.0434
01,06,01,0,24-May-2018 12:14:46,-0.08848,-0.46006,-0.90378,5.57925,-0.76225,-3.765,77.0434
01,06,01,0,24-May-2018 12:14:46,-0.08848,-0.46006,-0.90378,5.57925,-0.76225,-3.765,77.0434
01,06,01,0,24-May-2018 12:14:47,-0.08068,-0.50604,-0.88088,0.2806,-0.5978,-1.9876,55.3466666666667
01,06,01,0,24-May-2018 12:14:47,-0.08068,-0.50604,-0.88088,0.2806,-0.5978,-1.9876,55.3466666666667
01,06,01,0,24-May-2018 12:14:47,-0.08068,-0.50604,-0.88088,0.2806,-0.5978,-1.9876,55.3466666666667
01,06,01,0,24-May-2018 12:14:47,-0.08068,-0.50604,-0.88088,0.2806,-0.5978,-1.9876,55.3466666666667
01,06,01,0,24-May-2018 12:14:48,-0.081425,-0.499825,-0.88175,-0.22875,-0.39625,-0.671,51.19625
01,06,01,0,24-May-2018 12:14:48,-0.081425,-0.499825,-0.88175,-0.22875,-0.39625,-0.671,51.19625
01,06,01,0,24-May-2018 12:14:48,-0.081425,-0.499825,-0.88175,-0.22875,-0.39625,-0.671,51.19625
01,06,01,0,24-May-2018 12:14:48,-0.081425,-0.499825,-0.88175,-0.22875,-0.39625,-0.671,51.19625
01,06,01,0,24-May-2018 12:14:49,-0.07555,-0.49775,-0.883025,-0.3416,0.0244,-0.2806,49.8666666666667
01,06,01,0,24-May-2018 12:14:49,-0.07555,-0.49775,-0.883025,-0.3416,0.0244,-0.2806,49.8666666666667
01,06,01,0,24-May-2018 12:14:49,-0.07555,-0.49775,-0.883025,-0.3416,0.0244,-0.2806,49.8666666666667
01,06,01,0,24-May-2018 12:14:49,-0.07555,-0.49775,-0.883025,-0.3416,0.0244,-0.2806,49.8666666666667
01,06,01,0,24-May-2018 12:14:50,-0.0888333333333333,-0.5099,-0.874066666666667,1.9146,-1.1952,-0.2194,47.929
01,06,01,0,24-May-2018 12:14:50,-0.0888333333333333,-0.5099,-0.874066666666667,1.9146,-1.1952,-0.2194,47.929
01,06,01,0,24-May-2018 12:14:50,-0.0888333333333333,-0.5099,-0.874066666666667,1.9146,-1.1952,-0.2194,47.929
01,06,01,0,24-May-2018 12:14:50,-0.0888333333333333,-0.5099,-0.874066666666667,1.9146,-1.1952,-0.2194,47.929
01,06,01,0,24-May-2018 12:14:51,-0.09485,-0.5098,-0.87525,0.0305,0.221,-0.823375,45.198
01,06,01,0,24-May-2018 12:14:51,-0.09485,-0.5098,-0.87525,0.0305,0.221,-0.823375,45.198
01,06,01,0,24-May-2018 12:14:51,-0.09485,-0.5098,-0.87525,0.0305,0.221,-0.823375,45.198
01,06,01,0,24-May-2018 12:14:51,-0.09485,-0.5098,-0.87525,0.0305,0.221,-0.823375,45.198
01,06,01,0,24-May-2018 12:14:52,-0.0830333333333333,-0.501533333333333,-0.879066666666667,-0.82325,1.44825,0.381,45.51375
01,06,01,0,24-May-2018 12:14:52,-0.0830333333333333,-0.501533333333333,-0.879066666666667,-0.82325,1.44825,0.381,45.51375
01,06,01,0,24-May-2018 12:14:52,-0.0830333333333333,-0.501533333333333,-0.879066666666667,-0.82325,1.44825,0.381,45.51375
01,06,01,0,24-May-2018 12:14:52,-0.0830333333333333,-0.501533333333333,-0.879066666666667,-0.82325,1.44825,0.381,45.51375
01,06,01,0,24-May-2018 12:14:53,-0.08154,-0.50066,-0.87666,2.886,-1.52433333333333,-0.874,46.592
01,06,01,0,24-May-2018 12:14:53,-0.08154,-0.50066,-0.87666,2.886,-1.52433333333333,-0.874,46.592
01,06,01,0,24-May-2018 12:14:53,-0.08154,-0.50066,-0.87666,2.886,-1.52433333333333,-0.874,46.592
01,06,01,0,24-May-2018 12:14:53,-0.08154,-0.50066,-0.87666,2.886,-1.52433333333333,-0.874,46.592
01,06,01,0,24-May-2018 12:14:54,-0.07306,-0.5393,-0.85694,3.29266666666667,0.579333333333333,-4.939,39.508
01,06,01,0,24-May-2018 12:14:54,-0.07306,-0.5393,-0.85694,3.29266666666667,0.579333333333333,-4.939,39.508
01,06,01,0,24-May-2018 12:14:54,-0.07306,-0.5393,-0.85694,3.29266666666667,0.579333333333333,-4.939,39.508
01,06,01,0,24-May-2018 12:14:54,-0.07306,-0.5393,-0.85694,3.29266666666667,0.579333333333333,-4.939,39.508
01,06,01,0,24-May-2018 12:14:55,-0.1215,-0.452933333333333,-0.881433333333333,0.2074,-1.0488,-0.707200000000001,42.443
01,06,01,0,24-May-2018 12:14:55,-0.1215,-0.452933333333333,-0.881433333333333,0.2074,-1.0488,-0.707200000000001,42.443
01,06,01,0,24-May-2018 12:14:55,-0.1215,-0.452933333333333,-0.881433333333333,0.2074,-1.0488,-0.707200000000001,42.443
01,06,01,0,24-May-2018 12:14:55,-0.1215,-0.452933333333333,-0.881433333333333,0.2074,-1.0488,-0.707200000000001,42.443
01,06,01,0,24-May-2018 12:14:56,-0.175033333333333,-0.251416666666667,-0.81995,19.5907142857143,-2.46528571428571,29.4424285714286,47.2
01,06,01,0,24-May-2018 12:14:56,-0.175033333333333,-0.251416666666667,-0.81995,19.5907142857143,-2.46528571428571,29.4424285714286,47.2
01,06,01,0,24-May-2018 12:14:56,-0.175033333333333,-0.251416666666667,-0.81995,19.5907142857143,-2.46528571428571,29.4424285714286,47.2
01,06,01,0,24-May-2018 12:14:56,-0.175033333333333,-0.251416666666667,-0.81995,19.5907142857143,-2.46528571428571,29.4424285714286,47.2
01,06,01,0,24-May-2018 12:14:57,0.41785,-0.776575,-0.241975,-117.402571428571,28.8088571428571,-117.340142857143,292.6715
01,06,01,0,24-May-2018 12:14:57,0.41785,-0.776575,-0.241975,-117.402571428571,28.8088571428571,-117.340142857143,292.6715
01,06,01,0,24-May-2018 12:14:57,0.41785,-0.776575,-0.241975,-117.402571428571,28.8088571428571,-117.340142857143,292.6715
01,06,01,0,24-May-2018 12:14:57,0.41785,-0.776575,-0.241975,-117.402571428571,28.8088571428571,-117.340142857143,292.6715
01,06,01,0,24-May-2018 12:14:58,0.782783333333333,-0.499183333333333,-0.16105,-10.6706,2.4636,1.0732,332.013
01,06,01,0,24-May-2018 12:14:58,0.782783333333333,-0.499183333333333,-0.16105,-10.6706,2.4636,1.0732,332.013
01,06,01,0,24-May-2018 12:14:58,0.782783333333333,-0.499183333333333,-0.16105,-10.6706,2.4636,1.0732,332.013
01,06,01,0,24-May-2018 12:14:58,0.782783333333333,-0.499183333333333,-0.16105,-10.6706,2.4636,1.0732,332.013
01,06,01,0,24-May-2018 12:14:59,0.82288,-0.48674,-0.24512,11.8988571428571,0.243857142857143,-5.40942857142857,307.269
01,06,01,0,24-May-2018 12:14:59,0.82288,-0.48674,-0.24512,11.8988571428571,0.243857142857143,-5.40942857142857,307.269
01,06,01,0,24-May-2018 12:14:59,0.82288,-0.48674,-0.24512,11.8988571428571,0.243857142857143,-5.40942857142857,307.269
01,06,01,0,24-May-2018 12:14:59,0.82288,-0.48674,-0.24512,11.8988571428571,0.243857142857143,-5.40942857142857,307.269
01,06,01,0,24-May-2018 12:15:00,0.749,-0.4831,-0.2037,13.963,16.341,-4.207,301.309
01,06,01,0,24-May-2018 12:15:00,0.749,-0.4831,-0.2037,13.963,16.341,-4.207,301.309
01,06,01,0,24-May-2018 12:15:00,0.749,-0.4831,-0.2037,13.963,16.341,-4.207,301.309
01,06,01,0,24-May-2018 12:15:00,0.749,-0.4831,-0.2037,13.963,16.341,-4.207,301.309
01,06,01,0,24-May-2018 12:15:01,0.749,-0.4831,-0.2037,13.963,16.341,-4.207,301.309
01,06,01,0,24-May-2018 12:15:01,0.749,-0.4831,-0.2037,13.963,16.341,-4.207,301.309
01,06,01,0,24-May-2018 12:15:01,0.749,-0.4831,-0.2037,13.963,16.341,-4.207,301.309
01,06,01,0,24-May-2018 12:15:01,0.749,-0.4831,-0.2037,13.963,16.341,-4.207,301.309
01,06,01,0,24-May-2018 12:15:02,0.749,-0.4831,-0.2037,13.963,16.341,-4.207,301.309
01,06,01,0,24-May-2018 12:15:02,0.749,-0.4831,-0.2037,13.963,16.341,-4.207,301.309
01,06,01,0,24-May-2018 12:15:02,0.749,-0.4831,-0.2037,13.963,16.341,-4.207,301.309
01,06,01,0,24-May-2018 12:15:02,0.749,-0.4831,-0.2037,13.963,16.341,-4.207,301.309
01,06,01,0,24-May-2018 12:15:03,0.749,-0.4831,-0.2037,13.963,16.341,-4.207,301.309
01,06,01,0,24-May-2018 12:15:03,0.749,-0.4831,-0.2037,13.963,16.341,-4.207,301.309
01,06,01,0,24-May-2018 12:15:03,0.749,-0.4831,-0.2037,13.963,16.341,-4.207,301.309
01,06,01,0,24-May-2018 12:15:03,0.749,-0.4831,-0.2037,13.963,16.341,-4.207,301.309
01,06,01,0,24-May-2018 12:15:04,0.749,-0.4831,-0.2037,13.963,16.341,-4.207,301.309
01,06,01,0,24-May-2018 12:15:04,0.749,-0.4831,-0.2037,13.963,16.341,-4.207,301.309
01,06,01,0,24-May-2018 12:15:04,0.749,-0.4831,-0.2037,13.963,16.341,-4.207,301.309
01,06,01,0,24-May-2018 12:15:04,0.749,-0.4831,-0.2037,13.963,16.341,-4.207,301.309
01,06,01,0,24-May-2018 12:15:05,0.749,-0.4831,-0.2037,13.963,16.341,-4.207,301.309
01,06,01,0,24-May-2018 12:15:05,0.749,-0.4831,-0.2037,13.963,16.341,-4.207,301.309
01,06,01,0,24-May-2018 12:15:05,0,0,0,0,0,0,0
01,06,01,0,24-May-2018 12:15:05,0,0,0,0,0,0,0
01,06,01,0,24-May-2018 12:15:06,0.83335,-0.45345,-0.30485,12.744,-3.97875,-0.36575,319.4608
01,06,01,0,24-May-2018 12:15:06,0.83335,-0.45345,-0.30485,12.744,-3.97875,-0.36575,319.4608
01,06,01,0,24-May-2018 12:15:06,0.83335,-0.45345,-0.30485,12.744,-3.97875,-0.36575,319.4608
01,06,01,0,24-May-2018 12:15:06,0.83335,-0.45345,-0.30485,12.744,-3.97875,-0.36575,319.4608
01,06,01,0,24-May-2018 12:15:07,0.8421,-0.410733333333333,-0.277733333333333,4.748625,-1.10525,-1.60825,320.716666666667
01,06,01,0,24-May-2018 12:15:07,0.8421,-0.410733333333333,-0.277733333333333,4.748625,-1.10525,-1.60825,320.716666666667
01,06,01,0,24-May-2018 12:15:07,0.8421,-0.410733333333333,-0.277733333333333,4.748625,-1.10525,-1.60825,320.716666666667
01,06,01,0,24-May-2018 12:15:07,0.8421,-0.410733333333333,-0.277733333333333,4.748625,-1.10525,-1.60825,320.716666666667
01,06,01,0,24-May-2018 12:15:08,0.8529,-0.43225,-0.274875,-8.064,-1.57,2.6375,319.773
01,06,01,0,24-May-2018 12:15:08,0.8529,-0.43225,-0.274875,-8.064,-1.57,2.6375,319.773
01,06,01,0,24-May-2018 12:15:08,0.8529,-0.43225,-0.274875,-8.064,-1.57,2.6375,319.773
01,06,01,0,24-May-2018 12:15:08,0.8529,-0.43225,-0.274875,-8.064,-1.57,2.6375,319.773
01,06,01,0,24-May-2018 12:15:09,0.85524,-0.44946,-0.34892,8.01816666666667,-5.6505,2.39833333333333,314.2812
01,06,01,0,24-May-2018 12:15:09,0.85524,-0.44946,-0.34892,8.01816666666667,-5.6505,2.39833333333333,314.2812
01,06,01,0,24-May-2018 12:15:09,0.85524,-0.44946,-0.34892,8.01816666666667,-5.6505,2.39833333333333,314.2812
01,06,01,0,24-May-2018 12:15:09,0.85524,-0.44946,-0.34892,8.01816666666667,-5.6505,2.39833333333333,314.2812
01,06,01,0,24-May-2018 12:15:10,0.841514285714286,-0.441128571428571,-0.3135,-1.72783333333333,-0.406333333333334,0.3455,309.423666666667
01,06,01,0,24-May-2018 12:15:10,0.841514285714286,-0.441128571428571,-0.3135,-1.72783333333333,-0.406333333333334,0.3455,309.423666666667
01,06,01,0,24-May-2018 12:15:10,0.841514285714286,-0.441128571428571,-0.3135,-1.72783333333333,-0.406333333333334,0.3455,309.423666666667
01,06,01,0,24-May-2018 12:15:10,0.841514285714286,-0.441128571428571,-0.3135,-1.72783333333333,-0.406333333333334,0.3455,309.423666666667
01,06,01,0,24-May-2018 12:15:11,0.7781,-0.5241,-0.44315,2.28214285714286,-5.74914285714286,7.09071428571429,291.266666666667
01,06,01,0,24-May-2018 12:15:11,0.7781,-0.5241,-0.44315,2.28214285714286,-5.74914285714286,7.09071428571429,291.266666666667
01,06,01,0,24-May-2018 12:15:11,0.7781,-0.5241,-0.44315,2.28214285714286,-5.74914285714286,7.09071428571429,291.266666666667
01,06,01,0,24-May-2018 12:15:11,0.7781,-0.5241,-0.44315,2.28214285714286,-5.74914285714286,7.09071428571429,291.266666666667
01,06,01,0,24-May-2018 12:15:12,0.793475,-0.519775,-0.381025,-7.95733333333333,3.1605,-3.24183333333333,279.374666666667
01,06,01,0,24-May-2018 12:15:12,0.793475,-0.519775,-0.381025,-7.95733333333333,3.1605,-3.24183333333333,279.374666666667
01,06,01,0,24-May-2018 12:15:12,0.793475,-0.519775,-0.381025,-7.95733333333333,3.1605,-3.24183333333333,279.374666666667
01,06,01,0,24-May-2018 12:15:12,0.793475,-0.519775,-0.381025,-7.95733333333333,3.1605,-3.24183333333333,279.374666666667
01,06,01,0,24-May-2018 12:15:13,0.802642857142857,-0.452228571428571,-0.437957142857143,-7.47966666666667,9.08516666666667,0.508166666666667,278.89275
01,06,01,0,24-May-2018 12:15:13,0.802642857142857,-0.452228571428571,-0.437957142857143,-7.47966666666667,9.08516666666667,0.508166666666667,278.89275
01,06,01,0,24-May-2018 12:15:13,0.802642857142857,-0.452228571428571,-0.437957142857143,-7.47966666666667,9.08516666666667,0.508166666666667,278.89275
01,06,01,0,24-May-2018 12:15:13,0.802642857142857,-0.452228571428571,-0.437957142857143,-7.47966666666667,9.08516666666667,0.508166666666667,278.89275
01,06,01,0,24-May-2018 12:15:14,0.809442857142857,-0.594442857142857,-0.239142857142857,10.9322857142857,4.451,-14.8865714285714,314.249
01,06,01,0,24-May-2018 12:15:14,0.809442857142857,-0.594442857142857,-0.239142857142857,10.9322857142857,4.451,-14.8865714285714,314.249
01,06,01,0,24-May-2018 12:15:14,0.809442857142857,-0.594442857142857,-0.239142857142857,10.9322857142857,4.451,-14.8865714285714,314.249
01,06,01,0,24-May-2018 12:15:14,0.809442857142857,-0.594442857142857,-0.239142857142857,10.9322857142857,4.451,-14.8865714285714,314.249
01,06,01,0,24-May-2018 12:15:15,0.504525,-0.66955,0.08995,114.837333333333,-34.9276666666667,75.9655,412.831
01,06,01,0,24-May-2018 12:15:15,0.504525,-0.66955,0.08995,114.837333333333,-34.9276666666667,75.9655,412.831
01,06,01,0,24-May-2018 12:15:15,0.504525,-0.66955,0.08995,114.837333333333,-34.9276666666667,75.9655,412.831
01,06,01,0,24-May-2018 12:15:15,0.504525,-0.66955,0.08995,114.837333333333,-34.9276666666667,75.9655,412.831
01,06,01,0,24-May-2018 12:15:16,-0.1046875,0.096325,0.8983875,-16.4282857142857,-26.6027142857143,0.487857142857144,639.496
01,06,01,0,24-May-2018 12:15:16,-0.1046875,0.096325,0.8983875,-16.4282857142857,-26.6027142857143,0.487857142857144,639.496
01,06,01,0,24-May-2018 12:15:16,-0.1046875,0.096325,0.8983875,-16.4282857142857,-26.6027142857143,0.487857142857144,639.496
01,06,01,0,24-May-2018 12:15:16,-0.1046875,0.096325,0.8983875,-16.4282857142857,-26.6027142857143,0.487857142857144,639.496
01,06,01,0,24-May-2018 12:15:17,-0.0706142857142857,0.116614285714286,0.968442857142857,-3.64325,3.711875,12.7515,573.026
01,06,01,0,24-May-2018 12:15:17,-0.0706142857142857,0.116614285714286,0.968442857142857,-3.64325,3.711875,12.7515,573.026
01,06,01,0,24-May-2018 12:15:17,-0.0706142857142857,0.116614285714286,0.968442857142857,-3.64325,3.711875,12.7515,573.026
01,06,01,0,24-May-2018 12:15:17,-0.0706142857142857,0.116614285714286,0.968442857142857,-3.64325,3.711875,12.7515,573.026
01,06,01,0,24-May-2018 12:15:18,-0.1012,0.134175,0.99195,15.2562,4.6218,-0.7806,536.22775
01,06,01,0,24-May-2018 12:15:18,-0.1012,0.134175,0.99195,15.2562,4.6218,-0.7806,536.22775
01,06,01,0,24-May-2018 12:15:18,-0.1012,0.134175,0.99195,15.2562,4.6218,-0.7806,536.22775
01,06,01,0,24-May-2018 12:15:18,-0.1012,0.134175,0.99195,15.2562,4.6218,-0.7806,536.22775
01,06,02,0,24-May-2018 12:15:52,0.89105,-0.48825,0.149125,-3.29283333333333,2.42883333333333,0.762,719.339
01,06,02,0,24-May-2018 12:15:52,0.89105,-0.48825,0.149125,-3.29283333333333,2.42883333333333,0.762,719.339
01,06,02,0,24-May-2018 12:15:52,0.89105,-0.48825,0.149125,-3.29283333333333,2.42883333333333,0.762,719.339
01,06,02,0,24-May-2018 12:15:52,0.89105,-0.48825,0.149125,-3.29283333333333,2.42883333333333,0.762,719.339
01,06,02,0,24-May-2018 12:15:53,0.85962,-0.57916,-0.02352,7.55214285714286,1.08885714285714,-1.14114285714286,584.692
01,06,02,0,24-May-2018 12:15:53,0.85962,-0.57916,-0.02352,7.55214285714286,1.08885714285714,-1.14114285714286,584.692
01,06,02,0,24-May-2018 12:15:53,0.85962,-0.57916,-0.02352,7.55214285714286,1.08885714285714,-1.14114285714286,584.692
01,06,02,0,24-May-2018 12:15:53,0.85962,-0.57916,-0.02352,7.55214285714286,1.08885714285714,-1.14114285714286,584.692
01,06,02,0,24-May-2018 12:15:54,0.8665,-0.56016,0.03944,5.6952,1.561,-1.122,621.3114
01,06,02,0,24-May-2018 12:15:54,0.8665,-0.56016,0.03944,5.6952,1.561,-1.122,621.3114
01,06,02,0,24-May-2018 12:15:54,0.8665,-0.56016,0.03944,5.6952,1.561,-1.122,621.3114
01,06,02,0,24-May-2018 12:15:54,0.8665,-0.56016,0.03944,5.6952,1.561,-1.122,621.3114
01,06,02,0,24-May-2018 12:15:55,0.86794,-0.564,0.0251,-2.8902,0.7194,-0.305,618.325
01,06,02,0,24-May-2018 12:15:55,0.86794,-0.564,0.0251,-2.8902,0.7194,-0.305,618.325
01,06,02,0,24-May-2018 12:15:55,0.86794,-0.564,0.0251,-2.8902,0.7194,-0.305,618.325
01,06,02,0,24-May-2018 12:15:55,0.86794,-0.564,0.0251,-2.8902,0.7194,-0.305,618.325
01,06,02,0,24-May-2018 12:15:56,0.86724,0.05668,0.15828,54.4108333333334,0.335333333333333,-22.6625,703.974
01,06,02,0,24-May-2018 12:15:56,0.86724,0.05668,0.15828,54.4108333333334,0.335333333333333,-22.6625,703.974
01,06,02,0,24-May-2018 12:15:56,0.86724,0.05668,0.15828,54.4108333333334,0.335333333333333,-22.6625,703.974
01,06,02,0,24-May-2018 12:15:56,0.86724,0.05668,0.15828,54.4108333333334,0.335333333333333,-22.6625,703.974
01,06,02,0,24-May-2018 12:15:57,0.9279,0.31066,0.32612,-6.372,-2.02216666666667,8.99383333333333,736.62
01,06,02,0,24-May-2018 12:15:57,0.9279,0.31066,0.32612,-6.372,-2.02216666666667,8.99383333333333,736.62
01,06,02,0,24-May-2018 12:15:57,0.9279,0.31066,0.32612,-6.372,-2.02216666666667,8.99383333333333,736.62
01,06,02,0,24-May-2018 12:15:57,0.9279,0.31066,0.32612,-6.372,-2.02216666666667,8.99383333333333,736.62
01,06,02,0,24-May-2018 12:15:58,0.809183333333333,-0.308533333333333,-0.169016666666667,-60.512,-27.6096,45.1828,554.5645
01,06,02,0,24-May-2018 12:15:58,0.809183333333333,-0.308533333333333,-0.169016666666667,-60.512,-27.6096,45.1828,554.5645
01,06,02,0,24-May-2018 12:15:58,0.809183333333333,-0.308533333333333,-0.169016666666667,-60.512,-27.6096,45.1828,554.5645
01,06,02,0,24-May-2018 12:15:58,0.809183333333333,-0.308533333333333,-0.169016666666667,-60.512,-27.6096,45.1828,554.5645
01,06,02,0,24-May-2018 12:15:59,0.641233333333333,-0.797366666666667,-0.226116666666667,8.01833333333333,3.4655,-2.9675,350.350333333333
01,06,02,0,24-May-2018 12:15:59,0.641233333333333,-0.797366666666667,-0.226116666666667,8.01833333333333,3.4655,-2.9675,350.350333333333
01,06,02,0,24-May-2018 12:15:59,0.641233333333333,-0.797366666666667,-0.226116666666667,8.01833333333333,3.4655,-2.9675,350.350333333333
01,06,02,0,24-May-2018 12:15:59,0.641233333333333,-0.797366666666667,-0.226116666666667,8.01833333333333,3.4655,-2.9675,350.350333333333
01,06,02,0,24-May-2018 12:16:00,0.7587,-0.65582,-0.04248,7.94225,24.95425,-21.61575,449.3776
01,06,02,0,24-May-2018 12:16:00,0.7587,-0.65582,-0.04248,7.94225,24.95425,-21.61575,449.3776
01,06,02,0,24-May-2018 12:16:00,0.7587,-0.65582,-0.04248,7.94225,24.95425,-21.61575,449.3776
01,06,02,0,24-May-2018 12:16:00,0.7587,-0.65582,-0.04248,7.94225,24.95425,-21.61575,449.3776
01,06,02,0,24-May-2018 12:16:01,0.853066666666667,-0.526866666666667,0.196883333333333,-17.0634285714286,9.47742857142857,0.862428571428572,652.9595
01,06,02,0,24-May-2018 12:16:01,0.853066666666667,-0.526866666666667,0.196883333333333,-17.0634285714286,9.47742857142857,0.862428571428572,652.9595
01,06,02,0,24-May-2018 12:16:01,0.853066666666667,-0.526866666666667,0.196883333333333,-17.0634285714286,9.47742857142857,0.862428571428572,652.9595
01,06,02,0,24-May-2018 12:16:01,0.853066666666667,-0.526866666666667,0.196883333333333,-17.0634285714286,9.47742857142857,0.862428571428572,652.9595
01,06,02,0,24-May-2018 12:16:02,0.843975,-0.591,-0.0417,-9.4815,-8.43483333333333,1.0365,623.7515
01,06,02,0,24-May-2018 12:16:02,0.843975,-0.591,-0.0417,-9.4815,-8.43483333333333,1.0365,623.7515
01,06,02,0,24-May-2018 12:16:02,0.843975,-0.591,-0.0417,-9.4815,-8.43483333333333,1.0365,623.7515
01,06,02,0,24-May-2018 12:16:02,0.843975,-0.591,-0.0417,-9.4815,-8.43483333333333,1.0365,623.7515
01,06,02,0,24-May-2018 12:16:03,0.858971428571428,-0.565228571428571,-0.0130285714285714,-1.89025,4.90875,-0.183,547.3075
01,06,02,0,24-May-2018 12:16:03,0.858971428571428,-0.565228571428571,-0.0130285714285714,-1.89025,4.90875,-0.183,547.3075
01,06,02,0,24-May-2018 12:16:03,0.858971428571428,-0.565228571428571,-0.0130285714285714,-1.89025,4.90875,-0.183,547.3075
01,06,02,0,24-May-2018 12:16:03,0.858971428571428,-0.565228571428571,-0.0130285714285714,-1.89025,4.90875,-0.183,547.3075
01,06,02,0,24-May-2018 12:16:04,0.849025,-0.574475,-0.052025,-28.744,10.2194,7.8536,584.092
01,06,02,0,24-May-2018 12:16:04,0.849025,-0.574475,-0.052025,-28.744,10.2194,7.8536,584.092
01,06,02,0,24-May-2018 12:16:04,0.849025,-0.574475,-0.052025,-28.744,10.2194,7.8536,584.092
01,06,02,0,24-May-2018 12:16:04,0.849025,-0.574475,-0.052025,-28.744,10.2194,7.8536,584.092
01,06,02,0,24-May-2018 12:16:05,0.794257142857143,-0.657871428571429,-0.192857142857143,-10.9512,4.0976,1.6708,576.491
01,06,02,0,24-May-2018 12:16:05,0.794257142857143,-0.657871428571429,-0.192857142857143,-10.9512,4.0976,1.6708,576.491
01,06,02,0,24-May-2018 12:16:05,0.794257142857143,-0.657871428571429,-0.192857142857143,-10.9512,4.0976,1.6708,576.491
01,06,02,0,24-May-2018 12:16:05,0.794257142857143,-0.657871428571429,-0.192857142857143,-10.9512,4.0976,1.6708,576.491
01,06,02,0,24-May-2018 12:16:06,0.788766666666667,-0.619633333333333,-0.0606166666666667,-11.0246,0.6466,2.183,492.204666666667
01,06,02,0,24-May-2018 12:16:06,0.788766666666667,-0.619633333333333,-0.0606166666666667,-11.0246,0.6466,2.183,492.204666666667
01,06,02,0,24-May-2018 12:16:06,0.788766666666667,-0.619633333333333,-0.0606166666666667,-11.0246,0.6466,2.183,492.204666666667
01,06,02,0,24-May-2018 12:16:06,0.788766666666667,-0.619633333333333,-0.0606166666666667,-11.0246,0.6466,2.183,492.204666666667
01,06,02,0,24-May-2018 12:16:07,0.575725,-0.6158,-0.451,75.6201666666667,-23.6681666666667,-47.8353333333333,360.928
01,06,02,0,24-May-2018 12:16:07,0.575725,-0.6158,-0.451,75.6201666666667,-23.6681666666667,-47.8353333333333,360.928
01,06,02,0,24-May-2018 12:16:07,0.575725,-0.6158,-0.451,75.6201666666667,-23.6681666666667,-47.8353333333333,360.928
01,06,02,0,24-May-2018 12:16:07,0.575725,-0.6158,-0.451,75.6201666666667,-23.6681666666667,-47.8353333333333,360.928
01,06,02,0,24-May-2018 12:16:08,0.827933333333333,-0.0442,0.445466666666667,38.1832,-8.5488,-40.756,601.617
01,06,02,0,24-May-2018 12:16:08,0.827933333333333,-0.0442,0.445466666666667,38.1832,-8.5488,-40.756,601.617
01,06,02,0,24-May-2018 12:16:08,0.827933333333333,-0.0442,0.445466666666667,38.1832,-8.5488,-40.756,601.617
01,06,02,0,24-May-2018 12:16:08,0.827933333333333,-0.0442,0.445466666666667,38.1832,-8.5488,-40.756,601.617
01,06,02,0,24-May-2018 12:16:09,0.7174,0.248,0.688166666666667,-14.4337142857143,9.07671428571429,-6.84671428571429,630.35175
01,06,02,0,24-May-2018 12:16:09,0.7174,0.248,0.688166666666667,-14.4337142857143,9.07671428571429,-6.84671428571429,630.35175
01,06,02,0,24-May-2018 12:16:09,0.7174,0.248,0.688166666666667,-14.4337142857143,9.07671428571429,-6.84671428571429,630.35175
01,06,02,0,24-May-2018 12:16:09,0.7174,0.248,0.688166666666667,-14.4337142857143,9.07671428571429,-6.84671428571429,630.35175
01,06,02,0,24-May-2018 12:16:10,0.738966666666667,0.228433333333333,0.688616666666667,22.3292,-4.951,13.317,630.35175
01,06,02,0,24-May-2018 12:16:10,0.738966666666667,0.228433333333333,0.688616666666667,22.3292,-4.951,13.317,630.35175
01,06,02,0,24-May-2018 12:16:10,0.738966666666667,0.228433333333333,0.688616666666667,22.3292,-4.951,13.317,630.35175
01,06,02,0,24-May-2018 12:16:10,0.738966666666667,0.228433333333333,0.688616666666667,22.3292,-4.951,13.317,0
01,06,02,0,24-May-2018 12:16:11,0.779583333333333,0.236383333333333,0.63015,-13.9285714285714,6.04542857142857,-9.37271428571428,619.061
01,06,02,0,24-May-2018 12:16:11,0.779583333333333,0.236383333333333,0.63015,-13.9285714285714,6.04542857142857,-9.37271428571428,619.061
01,06,02,0,24-May-2018 12:16:11,0.779583333333333,0.236383333333333,0.63015,-13.9285714285714,6.04542857142857,-9.37271428571428,619.061
01,06,02,0,24-May-2018 12:16:11,0.779583333333333,0.236383333333333,0.63015,-13.9285714285714,6.04542857142857,-9.37271428571428,619.061
01,06,02,0,24-May-2018 12:16:12,0.771775,0.2179375,0.6490875,-2.53485714285714,-3.71957142857143,-1.86414285714286,702.914
01,06,02,0,24-May-2018 12:16:12,0.771775,0.2179375,0.6490875,-2.53485714285714,-3.71957142857143,-1.86414285714286,702.914
01,06,02,0,24-May-2018 12:16:12,0.771775,0.2179375,0.6490875,-2.53485714285714,-3.71957142857143,-1.86414285714286,702.914
01,06,02,0,24-May-2018 12:16:12,0.771775,0.2179375,0.6490875,-2.53485714285714,-3.71957142857143,-1.86414285714286,702.914
01,06,02,0,24-May-2018 12:16:13,0.7759,0.18398,0.65262,-1.25,3.65866666666667,-0.568833333333333,715.2925
01,06,02,0,24-May-2018 12:16:13,0.7759,0.18398,0.65262,-1.25,3.65866666666667,-0.568833333333333,715.2925
01,06,02,0,24-May-2018 12:16:13,0.7759,0.18398,0.65262,-1.25,3.65866666666667,-0.568833333333333,715.2925
01,06,02,0,24-May-2018 12:16:13,0.7759,0.18398,0.65262,-1.25,3.65866666666667,-0.568833333333333,715.2925
01,06,02,0,24-May-2018 12:16:14,0.75996,0.17636,0.66982,-1.2562,-0.4878,0.3536,759.344
01,06,02,0,24-May-2018 12:16:14,0.75996,0.17636,0.66982,-1.2562,-0.4878,0.3536,759.344
01,06,02,0,24-May-2018 12:16:14,0.75996,0.17636,0.66982,-1.2562,-0.4878,0.3536,759.344
01,06,02,0,24-May-2018 12:16:14,0.75996,0.17636,0.66982,-1.2562,-0.4878,0.3536,759.344
01,06,02,0,24-May-2018 12:16:15,0.77434,0.15832,0.66766,2.71325,-1.34125,0.64025,757.12
01,06,02,0,24-May-2018 12:16:15,0.77434,0.15832,0.66766,2.71325,-1.34125,0.64025,757.12
01,06,02,0,24-May-2018 12:16:15,0.77434,0.15832,0.66766,2.71325,-1.34125,0.64025,757.12
01,06,02,0,24-May-2018 12:16:15,0.77434,0.15832,0.66766,2.71325,-1.34125,0.64025,757.12
01,06,02,0,24-May-2018 12:16:16,0.7507,0.128285714285714,0.717957142857143,-3.14016666666667,2.825,-1.46333333333333,754.998
01,06,02,0,24-May-2018 12:16:16,0.7507,0.128285714285714,0.717957142857143,-3.14016666666667,2.825,-1.46333333333333,754.998
01,06,02,0,24-May-2018 12:16:16,0.7507,0.128285714285714,0.717957142857143,-3.14016666666667,2.825,-1.46333333333333,754.998
01,06,02,0,24-May-2018 12:16:16,0.7507,0.128285714285714,0.717957142857143,-3.14016666666667,2.825,-1.46333333333333,754.998
01,06,02,0,24-May-2018 12:16:17,0.75288,0.14328,0.69546,5.5608,-5.061,1.2926,798.1915
01,06,02,0,24-May-2018 12:16:17,0.75288,0.14328,0.69546,5.5608,-5.061,1.2926,798.1915
01,06,02,0,24-May-2018 12:16:17,0.75288,0.14328,0.69546,5.5608,-5.061,1.2926,798.1915
01,06,02,0,24-May-2018 12:16:17,0.75288,0.14328,0.69546,5.5608,-5.061,1.2926,798.1915
01,06,02,0,24-May-2018 12:16:18,0.795542857142857,0.177671428571429,0.642742857142857,5.819,2.71771428571429,2.44771428571429,771.8845
01,06,02,0,24-May-2018 12:16:18,0.795542857142857,0.177671428571429,0.642742857142857,5.819,2.71771428571429,2.44771428571429,771.8845
01,06,02,0,24-May-2018 12:16:18,0.795542857142857,0.177671428571429,0.642742857142857,5.819,2.71771428571429,2.44771428571429,771.8845
01,06,02,0,24-May-2018 12:16:18,0.795542857142857,0.177671428571429,0.642742857142857,5.819,2.71771428571429,2.44771428571429,771.8845
01,06,02,0,24-May-2018 12:16:19,0.79226,0.18338,0.6313,-10.10675,-4.5275,-2.546,683.867333333333
01,06,02,0,24-May-2018 12:16:19,0.79226,0.18338,0.6313,-10.10675,-4.5275,-2.546,683.867333333333
01,06,02,0,24-May-2018 12:16:19,0.79226,0.18338,0.6313,-10.10675,-4.5275,-2.546,683.867333333333
01,06,02,0,24-May-2018 12:16:19,0.79226,0.18338,0.6313,-10.10675,-4.5275,-2.546,683.867333333333
01,06,02,0,24-May-2018 12:16:20,0.8042,0.1341,0.633425,-0.4065,0.8535,-1.98166666666667,798.525
01,06,02,0,24-May-2018 12:16:20,0.8042,0.1341,0.633425,-0.4065,0.8535,-1.98166666666667,798.525
01,06,02,0,24-May-2018 12:16:20,0.8042,0.1341,0.633425,-0.4065,0.8535,-1.98166666666667,798.525
01,06,02,0,24-May-2018 12:16:20,0.8042,0.1341,0.633425,-0.4065,0.8535,-1.98166666666667,798.525
01,06,02,0,24-May-2018 12:16:21,0.81086,0.14186,0.62296,4.02466666666667,-0.203,-0.234,787.4345
01,06,02,0,24-May-2018 12:16:21,0.81086,0.14186,0.62296,4.02466666666667,-0.203,-0.234,787.4345
01,06,02,0,24-May-2018 12:16:21,0.81086,0.14186,0.62296,4.02466666666667,-0.203,-0.234,787.4345
01,06,02,0,24-May-2018 12:16:21,0.81086,0.14186,0.62296,4.02466666666667,-0.203,-0.234,787.4345
01,06,02,0,24-May-2018 12:16:22,0.79844,0.21782,0.61512,8.20125,1.074625,7.54575,787.4345
01,06,02,0,24-May-2018 12:16:22,0.79844,0.21782,0.61512,8.20125,1.074625,7.54575,787.4345
01,06,02,0,24-May-2018 12:16:22,0.79844,0.21782,0.61512,8.20125,1.074625,7.54575,787.4345
01,06,02,0,24-May-2018 12:16:22,0.79844,0.21782,0.61512,8.20125,1.074625,7.54575,0
01,06,02,0,24-May-2018 12:16:23,0.839125,-0.247025,0.296775,-19.8766,-42.743,-5.3416,729.05675
01,06,02,0,24-May-2018 12:16:23,0.839125,-0.247025,0.296775,-19.8766,-42.743,-5.3416,729.05675
01,06,02,0,24-May-2018 12:16:23,0.839125,-0.247025,0.296775,-19.8766,-42.743,-5.3416,729.05675
01,06,02,0,24-May-2018 12:16:23,0.839125,-0.247025,0.296775,-19.8766,-42.743,-5.3416,729.05675
01,06,02,0,24-May-2018 12:16:24,1.0184,-0.04716,-0.00116,24.807,16.311,-32.1343333333333,556.311
01,06,02,0,24-May-2018 12:16:24,1.0184,-0.04716,-0.00116,24.807,16.311,-32.1343333333333,556.311
01,06,02,0,24-May-2018 12:16:24,1.0184,-0.04716,-0.00116,24.807,16.311,-32.1343333333333,556.311
01,06,02,0,24-May-2018 12:16:24,1.0184,-0.04716,-0.00116,24.807,16.311,-32.1343333333333,556.311
01,06,02,0,24-May-2018 12:16:25,0.94795,-0.28735,0.24405,-72.418,32.3983333333333,7.86566666666667,625.251666666667
01,06,02,0,24-May-2018 12:16:25,0.94795,-0.28735,0.24405,-72.418,32.3983333333333,7.86566666666667,625.251666666667
01,06,02,0,24-May-2018 12:16:25,0.94795,-0.28735,0.24405,-72.418,32.3983333333333,7.86566666666667,625.251666666667
01,06,02,0,24-May-2018 12:16:25,0.94795,-0.28735,0.24405,-72.418,32.3983333333333,7.86566666666667,625.251666666667
01,06,02,0,24-May-2018 12:16:26,0.9537,-0.28235,0.2645,13.943,-0.549,-8.12966666666667,745.444
01,06,02,0,24-May-2018 12:16:26,0.9537,-0.28235,0.2645,13.943,-0.549,-8.12966666666667,745.444
01,06,02,0,24-May-2018 12:16:26,0.9537,-0.28235,0.2645,13.943,-0.549,-8.12966666666667,745.444
01,06,02,0,24-May-2018 12:16:26,0.9537,-0.28235,0.2645,13.943,-0.549,-8.12966666666667,745.444
01,06,02,0,24-May-2018 12:16:27,0.919371428571429,-0.373571428571429,0.251114285714286,-19.916125,-3.559375,6.448125,859.544
01,06,02,0,24-May-2018 12:16:27,0.919371428571429,-0.373571428571429,0.251114285714286,-19.916125,-3.559375,6.448125,859.544
01,06,02,0,24-May-2018 12:16:27,0.919371428571429,-0.373571428571429,0.251114285714286,-19.916125,-3.559375,6.448125,859.544
01,06,02,0,24-May-2018 12:16:27,0.919371428571429,-0.373571428571429,0.251114285714286,-19.916125,-3.559375,6.448125,859.544
01,06,02,0,24-May-2018 12:16:28,0.83638,-0.60302,-0.10096,-43.742125,16.79875,7.103625,676.608
01,06,02,0,24-May-2018 12:16:28,0.83638,-0.60302,-0.10096,-43.742125,16.79875,7.103625,676.608
01,06,02,0,24-May-2018 12:16:28,0.83638,-0.60302,-0.10096,-43.742125,16.79875,7.103625,676.608
01,06,02,0,24-May-2018 12:16:28,0.83638,-0.60302,-0.10096,-43.742125,16.79875,7.103625,676.608
01,06,02,0,24-May-2018 12:16:29,0.851,-0.561085714285714,-0.204614285714286,-43.742125,2.939,0.6586,444.02
01,06,02,0,24-May-2018 12:16:29,0.851,-0.561085714285714,-0.204614285714286,-43.742125,2.939,0.6586,444.02
01,06,02,0,24-May-2018 12:16:29,0.851,-0.561085714285714,-0.204614285714286,-43.742125,2.939,0.6586,444.02
01,06,02,0,24-May-2018 12:16:29,0.851,-0.561085714285714,-0.204614285714286,0,2.939,0.6586,444.02
01,06,02,0,24-May-2018 12:16:30,0.820371428571429,-0.571685714285714,-0.235085714285714,-17.3678333333333,4.30883333333333,4.85766666666667,380.626
01,06,02,0,24-May-2018 12:16:30,0.820371428571429,-0.571685714285714,-0.235085714285714,-17.3678333333333,4.30883333333333,4.85766666666667,380.626
01,06,02,0,24-May-2018 12:16:30,0.820371428571429,-0.571685714285714,-0.235085714285714,-17.3678333333333,4.30883333333333,4.85766666666667,380.626
01,06,02,0,24-May-2018 12:16:30,0.820371428571429,-0.571685714285714,-0.235085714285714,-17.3678333333333,4.30883333333333,4.85766666666667,380.626
01,06,02,0,24-May-2018 12:16:31,0.805357142857143,-0.583042857142857,-0.264785714285714,20.8943333333333,-3.73977777777778,-4.34955555555556,355.223
01,06,02,0,24-May-2018 12:16:31,0.805357142857143,-0.583042857142857,-0.264785714285714,20.8943333333333,-3.73977777777778,-4.34955555555556,355.223
01,06,02,0,24-May-2018 12:16:31,0.805357142857143,-0.583042857142857,-0.264785714285714,20.8943333333333,-3.73977777777778,-4.34955555555556,355.223
01,06,02,0,24-May-2018 12:16:31,0.805357142857143,-0.583042857142857,-0.264785714285714,20.8943333333333,-3.73977777777778,-4.34955555555556,355.223
01,06,02,0,24-May-2018 12:16:32,0.79522,-0.59886,-0.14866,4.6828,2.5732,1.305,451.311
01,06,02,0,24-May-2018 12:16:32,0.79522,-0.59886,-0.14866,4.6828,2.5732,1.305,451.311
01,06,02,0,24-May-2018 12:16:32,0.79522,-0.59886,-0.14866,4.6828,2.5732,1.305,451.311
01,06,02,0,24-May-2018 12:16:32,0.79522,-0.59886,-0.14866,4.6828,2.5732,1.305,451.311
01,06,02,0,24-May-2018 12:16:33,0.7713,-0.634675,-0.0999,18.6586666666667,7.20516666666667,-16.3311666666667,533.2735
01,06,02,0,24-May-2018 12:16:33,0.7713,-0.634675,-0.0999,18.6586666666667,7.20516666666667,-16.3311666666667,533.2735
01,06,02,0,24-May-2018 12:16:33,0.7713,-0.634675,-0.0999,18.6586666666667,7.20516666666667,-16.3311666666667,533.2735
01,06,02,0,24-May-2018 12:16:33,0.7713,-0.634675,-0.0999,18.6586666666667,7.20516666666667,-16.3311666666667,533.2735
01,06,02,0,24-May-2018 12:16:34,0.849825,-0.5988375,-0.0750375,-6.49383333333333,1.65633333333333,2.08333333333333,545.985
01,06,02,0,24-May-2018 12:16:34,0.849825,-0.5988375,-0.0750375,-6.49383333333333,1.65633333333333,2.08333333333333,545.985
01,06,02,0,24-May-2018 12:16:34,0.849825,-0.5988375,-0.0750375,-6.49383333333333,1.65633333333333,2.08333333333333,545.985
01,06,02,0,24-May-2018 12:16:34,0.849825,-0.5988375,-0.0750375,-6.49383333333333,1.65633333333333,2.08333333333333,545.985
01,06,02,0,24-May-2018 12:16:35,0.8258,-0.60632,-0.0828,2.21271428571429,1.04528571428571,1.17571428571429,543.483
01,06,02,0,24-May-2018 12:16:35,0.8258,-0.60632,-0.0828,2.21271428571429,1.04528571428571,1.17571428571429,543.483
01,06,02,0,24-May-2018 12:16:35,0.8258,-0.60632,-0.0828,2.21271428571429,1.04528571428571,1.17571428571429,543.483
01,06,02,0,24-May-2018 12:16:35,0.8258,-0.60632,-0.0828,2.21271428571429,1.04528571428571,1.17571428571429,543.483
01,06,02,0,24-May-2018 12:16:36,0.81968,-0.58826,-0.23204,-22.5732,1.6952,1.0366,537.416
01,06,02,0,24-May-2018 12:16:36,0.81968,-0.58826,-0.23204,-22.5732,1.6952,1.0366,537.416
01,06,02,0,24-May-2018 12:16:36,0.81968,-0.58826,-0.23204,-22.5732,1.6952,1.0366,537.416
01,06,02,0,24-May-2018 12:16:36,0.81968,-0.58826,-0.23204,-22.5732,1.6952,1.0366,537.416
01,06,02,0,24-May-2018 12:16:37,0.78416,-0.52596,-0.39212,-23.5875,2.185,12.4798333333333,307.363
01,06,02,0,24-May-2018 12:16:37,0.78416,-0.52596,-0.39212,-23.5875,2.185,12.4798333333333,307.363
01,06,02,0,24-May-2018 12:16:37,0.78416,-0.52596,-0.39212,-23.5875,2.185,12.4798333333333,307.363
01,06,02,0,24-May-2018 12:16:37,0.78416,-0.52596,-0.39212,-23.5875,2.185,12.4798333333333,307.363
01,06,02,0,24-May-2018 12:16:38,0.6833,-0.6034,-0.516625,7.64216666666667,2.124,3.50633333333333,275.478
01,06,02,0,24-May-2018 12:16:38,0.6833,-0.6034,-0.516625,7.64216666666667,2.124,3.50633333333333,275.478
01,06,02,0,24-May-2018 12:16:38,0.6833,-0.6034,-0.516625,7.64216666666667,2.124,3.50633333333333,275.478
01,06,02,0,24-May-2018 12:16:38,0.6833,-0.6034,-0.516625,7.64216666666667,2.124,3.50633333333333,275.478
01,06,02,0,24-May-2018 12:16:39,0.734925,-0.584675,-0.344075,41.067,-7.5915,-12.3068333333333,284.676666666667
01,06,02,0,24-May-2018 12:16:39,0.734925,-0.584675,-0.344075,41.067,-7.5915,-12.3068333333333,284.676666666667
01,06,02,0,24-May-2018 12:16:39,0.734925,-0.584675,-0.344075,41.067,-7.5915,-12.3068333333333,284.676666666667
01,06,02,0,24-May-2018 12:16:39,0.734925,-0.584675,-0.344075,41.067,-7.5915,-12.3068333333333,284.676666666667
01,06,02,0,24-May-2018 12:16:40,0.755566666666667,-0.669,-0.254666666666667,2.378,-2.561,-0.36575,428.938
01,06,02,0,24-May-2018 12:16:40,0.755566666666667,-0.669,-0.254666666666667,2.378,-2.561,-0.36575,428.938
01,06,02,0,24-May-2018 12:16:40,0.755566666666667,-0.669,-0.254666666666667,2.378,-2.561,-0.36575,428.938
01,06,02,0,24-May-2018 12:16:40,0.755566666666667,-0.669,-0.254666666666667,2.378,-2.561,-0.36575,428.938
01,06,02,0,24-May-2018 12:16:41,0.781925,-0.643025,-0.2946875,-15.7196,1.0124,-2.1462,420.248666666667
01,06,02,0,24-May-2018 12:16:41,0.781925,-0.643025,-0.2946875,-15.7196,1.0124,-2.1462,420.248666666667
01,06,02,0,24-May-2018 12:16:41,0.781925,-0.643025,-0.2946875,-15.7196,1.0124,-2.1462,420.248666666667
01,06,02,0,24-May-2018 12:16:41,0.781925,-0.643025,-0.2946875,-15.7196,1.0124,-2.1462,420.248666666667
01,06,02,0,24-May-2018 12:16:42,0.808,-0.5876,-0.2645,13.7805714285714,-1.51571428571429,-1.82928571428571,402.656
01,06,02,0,24-May-2018 12:16:42,0.808,-0.5876,-0.2645,13.7805714285714,-1.51571428571429,-1.82928571428571,402.656
01,06,02,0,24-May-2018 12:16:42,0.808,-0.5876,-0.2645,13.7805714285714,-1.51571428571429,-1.82928571428571,402.656
01,06,02,0,24-May-2018 12:16:42,0.808,-0.5876,-0.2645,13.7805714285714,-1.51571428571429,-1.82928571428571,402.656
01,06,02,0,24-May-2018 12:16:43,0.6313,-0.6858,-0.0574,57.6567142857143,-46.9765714285714,83.1881428571429,514.42725
01,06,02,0,24-May-2018 12:16:43,0.6313,-0.6858,-0.0574,57.6567142857143,-46.9765714285714,83.1881428571429,514.42725
01,06,02,0,24-May-2018 12:16:43,0.6313,-0.6858,-0.0574,57.6567142857143,-46.9765714285714,83.1881428571429,514.42725
01,06,02,0,24-May-2018 12:16:43,0.6313,-0.6858,-0.0574,57.6567142857143,-46.9765714285714,83.1881428571429,514.42725
01,06,02,0,24-May-2018 12:16:44,-0.838466666666667,-0.028,-0.530066666666667,-171.704333333333,2.439,64.207,527.3715
01,06,02,0,24-May-2018 12:16:44,-0.838466666666667,-0.028,-0.530066666666667,-171.704333333333,2.439,64.207,527.3715
01,06,02,0,24-May-2018 12:16:44,-0.838466666666667,-0.028,-0.530066666666667,-171.704333333333,2.439,64.207,527.3715
01,06,02,0,24-May-2018 12:16:44,-0.838466666666667,-0.028,-0.530066666666667,-171.704333333333,2.439,64.207,527.3715
01,06,02,0,24-May-2018 12:16:45,-0.8141,0.158525,-0.48115,-12.60675,6.3415,-9.177,312.606
01,06,02,0,24-May-2018 12:16:45,-0.8141,0.158525,-0.48115,-12.60675,6.3415,-9.177,312.606
01,06,02,0,24-May-2018 12:16:45,-0.8141,0.158525,-0.48115,-12.60675,6.3415,-9.177,312.606
01,06,02,0,24-May-2018 12:16:45,-0.8141,0.158525,-0.48115,-12.60675,6.3415,-9.177,312.606
01,06,02,0,24-May-2018 12:16:46,-0.798533333333333,-0.2402,-0.5432,22.6462,-2.8902,-19.5122,294.497
01,06,02,0,24-May-2018 12:16:46,-0.798533333333333,-0.2402,-0.5432,22.6462,-2.8902,-19.5122,294.497
01,06,02,0,24-May-2018 12:16:46,-0.798533333333333,-0.2402,-0.5432,22.6462,-2.8902,-19.5122,294.497
01,06,02,0,24-May-2018 12:16:46,-0.798533333333333,-0.2402,-0.5432,22.6462,-2.8902,-19.5122,294.497
01,06,02,0,24-May-2018 12:16:47,-0.7769,-0.368333333333333,-0.397466666666667,19.512,-40.752,93.313,291.7352
01,06,02,0,24-May-2018 12:16:47,-0.7769,-0.368333333333333,-0.397466666666667,19.512,-40.752,93.313,291.7352
01,06,02,0,24-May-2018 12:16:47,-0.7769,-0.368333333333333,-0.397466666666667,19.512,-40.752,93.313,291.7352
01,06,02,0,24-May-2018 12:16:47,-0.7769,-0.368333333333333,-0.397466666666667,19.512,-40.752,93.313,291.7352
01,06,02,0,24-May-2018 12:16:48,-0.7543,-0.3996,-0.1046,63.9635,8.5975,-30.427,353.056666666667
01,06,02,0,24-May-2018 12:16:48,-0.7543,-0.3996,-0.1046,63.9635,8.5975,-30.427,353.056666666667
01,06,02,0,24-May-2018 12:16:48,-0.7543,-0.3996,-0.1046,63.9635,8.5975,-30.427,353.056666666667
01,06,02,0,24-May-2018 12:16:48,-0.7543,-0.3996,-0.1046,63.9635,8.5975,-30.427,353.056666666667
01,06,02,0,24-May-2018 12:16:49,-0.9301,-0.3517,-0.0554,-507.5,-114.51,-53.11,512.230666666667
01,06,02,0,24-May-2018 12:16:49,-0.9301,-0.3517,-0.0554,-507.5,-114.51,-53.11,512.230666666667
01,06,02,0,24-May-2018 12:16:49,-0.9301,-0.3517,-0.0554,-507.5,-114.51,-53.11,512.230666666667
01,06,02,0,24-May-2018 12:16:49,-0.9301,-0.3517,-0.0554,-507.5,-114.51,-53.11,512.230666666667
01,06,02,0,24-May-2018 12:16:50,-0.9042,-0.537,-0.2097,-148.736666666667,0.386333333333333,13.374,587.495
01,06,02,0,24-May-2018 12:16:50,-0.9042,-0.537,-0.2097,-148.736666666667,0.386333333333333,13.374,587.495
01,06,02,0,24-May-2018 12:16:50,-0.9042,-0.537,-0.2097,-148.736666666667,0.386333333333333,13.374,587.495
01,06,02,0,24-May-2018 12:16:50,-0.9042,-0.537,-0.2097,-148.736666666667,0.386333333333333,13.374,587.495
01,06,02,0,24-May-2018 12:16:51,-1.01515,-0.2677,-0.30855,-136.46,-45.7315,-78.3535,449.697
01,06,02,0,24-May-2018 12:16:51,-1.01515,-0.2677,-0.30855,-136.46,-45.7315,-78.3535,449.697
01,06,02,0,24-May-2018 12:16:51,-1.01515,-0.2677,-0.30855,-136.46,-45.7315,-78.3535,449.697
01,06,02,0,24-May-2018 12:16:51,-1.01515,-0.2677,-0.30855,-136.46,-45.7315,-78.3535,449.697
01,06,03,0,24-May-2018 12:16:52,-1.01515,-0.2677,-0.30855,85,51.0975,111.189,418.768
01,06,03,0,24-May-2018 12:16:52,-1.01515,-0.2677,-0.30855,85,51.0975,111.189,418.768
01,06,03,0,24-May-2018 12:16:52,-1.01515,-0.2677,-0.30855,85,51.0975,111.189,418.768
01,06,03,0,24-May-2018 12:16:52,0,0,0,85,51.0975,111.189,418.768
01,06,03,0,24-May-2018 12:16:53,-1.1511,-0.5024,-0.4082,60.244,55.3453333333333,13.5163333333333,361.981
01,06,03,0,24-May-2018 12:16:53,-1.1511,-0.5024,-0.4082,60.244,55.3453333333333,13.5163333333333,361.981
01,06,03,0,24-May-2018 12:16:53,-1.1511,-0.5024,-0.4082,60.244,55.3453333333333,13.5163333333333,361.981
01,06,03,0,24-May-2018 12:16:53,-1.1511,-0.5024,-0.4082,60.244,55.3453333333333,13.5163333333333,361.981
01,06,03,0,24-May-2018 12:16:54,-0.6362,-0.6622,-0.1286,12.378,-1.159,2.622,361.981
01,06,03,0,24-May-2018 12:16:54,-0.6362,-0.6622,-0.1286,12.378,-1.159,2.622,361.981
01,06,03,0,24-May-2018 12:16:54,-0.6362,-0.6622,-0.1286,12.378,-1.159,2.622,361.981
01,06,03,0,24-May-2018 12:16:54,-0.6362,-0.6622,-0.1286,12.378,-1.159,2.622,0
01,06,03,0,24-May-2018 12:16:55,-0.7582,-0.6028,0.0538,-0.8535,-0.5485,0.823,4.32425
01,06,03,0,24-May-2018 12:16:55,-0.7582,-0.6028,0.0538,-0.8535,-0.5485,0.823,4.32425
01,06,03,0,24-May-2018 12:16:55,-0.7582,-0.6028,0.0538,-0.8535,-0.5485,0.823,4.32425
01,06,03,0,24-May-2018 12:16:55,-0.7582,-0.6028,0.0538,-0.8535,-0.5485,0.823,4.32425
01,06,03,0,24-May-2018 12:16:56,-0.7478,-0.61265,0.1156,-3.049,-2.744,0.244,3.463
01,06,03,0,24-May-2018 12:16:56,-0.7478,-0.61265,0.1156,-3.049,-2.744,0.244,3.463
01,06,03,0,24-May-2018 12:16:56,-0.7478,-0.61265,0.1156,-3.049,-2.744,0.244,3.463
01,06,03,0,24-May-2018 12:16:56,-0.7478,-0.61265,0.1156,-3.049,-2.744,0.244,3.463
01,06,03,0,24-May-2018 12:16:57,-0.742,-0.6181,-0.0272,29.7255,10.579,2.744,3.463
01,06,03,0,24-May-2018 12:16:57,-0.742,-0.6181,-0.0272,29.7255,10.579,2.744,3.463
01,06,03,0,24-May-2018 12:16:57,-0.742,-0.6181,-0.0272,29.7255,10.579,2.744,3.463
01,06,03,0,24-May-2018 12:16:57,-0.742,-0.6181,-0.0272,29.7255,10.579,2.744,0
01,06,03,0,24-May-2018 12:16:58,-0.723975,-0.64365,0.09275,-2.693,-8.45533333333333,-4.4615,2.96225
01,06,03,0,24-May-2018 12:16:58,-0.723975,-0.64365,0.09275,-2.693,-8.45533333333333,-4.4615,2.96225
01,06,03,0,24-May-2018 12:16:58,-0.723975,-0.64365,0.09275,-2.693,-8.45533333333333,-4.4615,2.96225
01,06,03,0,24-May-2018 12:16:58,-0.723975,-0.64365,0.09275,-2.693,-8.45533333333333,-4.4615,2.96225
01,06,03,0,24-May-2018 12:16:59,-0.71604,-0.63856,0.10322,-1.2808,-1.4878,-0.0853999999999999,3.054
01,06,03,0,24-May-2018 12:16:59,-0.71604,-0.63856,0.10322,-1.2808,-1.4878,-0.0853999999999999,3.054
01,06,03,0,24-May-2018 12:16:59,-0.71604,-0.63856,0.10322,-1.2808,-1.4878,-0.0853999999999999,3.054
01,06,03,0,24-May-2018 12:16:59,-0.71604,-0.63856,0.10322,-1.2808,-1.4878,-0.0853999999999999,3.054
01,06,03,0,24-May-2018 12:17:00,-0.694233333333333,-0.696333333333333,0.0103666666666667,-2.94716666666667,-20.9756666666667,3.90266666666667,4.123
01,06,03,0,24-May-2018 12:17:00,-0.694233333333333,-0.696333333333333,0.0103666666666667,-2.94716666666667,-20.9756666666667,3.90266666666667,4.123
01,06,03,0,24-May-2018 12:17:00,-0.694233333333333,-0.696333333333333,0.0103666666666667,-2.94716666666667,-20.9756666666667,3.90266666666667,4.123
01,06,03,0,24-May-2018 12:17:00,-0.694233333333333,-0.696333333333333,0.0103666666666667,-2.94716666666667,-20.9756666666667,3.90266666666667,4.123
01,06,03,0,24-May-2018 12:17:01,-0.7517,-0.624933333333333,0.0687,-87.05675,-64.8475,5.41175,17.853
01,06,03,0,24-May-2018 12:17:01,-0.7517,-0.624933333333333,0.0687,-87.05675,-64.8475,5.41175,17.853
01,06,03,0,24-May-2018 12:17:01,-0.7517,-0.624933333333333,0.0687,-87.05675,-64.8475,5.41175,17.853
01,06,03,0,24-May-2018 12:17:01,-0.7517,-0.624933333333333,0.0687,-87.05675,-64.8475,5.41175,17.853
01,06,03,0,24-May-2018 12:17:02,-0.8028,-0.561375,0.070175,-139.0025,-91.84475,-2.43925,13.926
01,06,03,0,24-May-2018 12:17:02,-0.8028,-0.561375,0.070175,-139.0025,-91.84475,-2.43925,13.926
01,06,03,0,24-May-2018 12:17:02,-0.8028,-0.561375,0.070175,-139.0025,-91.84475,-2.43925,13.926
01,06,03,0,24-May-2018 12:17:02,-0.8028,-0.561375,0.070175,-139.0025,-91.84475,-2.43925,13.926
01,06,03,0,24-May-2018 12:17:03,-0.760433333333333,-0.611533333333333,-0.0307,-21.0973333333333,-18.8416666666667,-5.58966666666667,7.86566666666667
01,06,03,0,24-May-2018 12:17:03,-0.760433333333333,-0.611533333333333,-0.0307,-21.0973333333333,-18.8416666666667,-5.58966666666667,7.86566666666667
01,06,03,0,24-May-2018 12:17:03,-0.760433333333333,-0.611533333333333,-0.0307,-21.0973333333333,-18.8416666666667,-5.58966666666667,7.86566666666667
01,06,03,0,24-May-2018 12:17:03,-0.760433333333333,-0.611533333333333,-0.0307,-21.0973333333333,-18.8416666666667,-5.58966666666667,7.86566666666667
01,06,03,0,24-May-2018 12:17:04,-0.8719,-0.615333333333333,-0.0437333333333333,-1.88016666666667,2.66266666666667,4.9695,13.617
01,06,03,0,24-May-2018 12:17:04,-0.8719,-0.615333333333333,-0.0437333333333333,-1.88016666666667,2.66266666666667,4.9695,13.617
01,06,03,0,24-May-2018 12:17:04,-0.8719,-0.615333333333333,-0.0437333333333333,-1.88016666666667,2.66266666666667,4.9695,13.617
01,06,03,0,24-May-2018 12:17:04,-0.8719,-0.615333333333333,-0.0437333333333333,-1.88016666666667,2.66266666666667,4.9695,13.617
01,06,03,0,24-May-2018 12:17:05,-0.632,-0.60165,-0.1025,18.699,14.187,-20.671,6.69333333333333
01,06,03,0,24-May-2018 12:17:05,-0.632,-0.60165,-0.1025,18.699,14.187,-20.671,6.69333333333333
01,06,03,0,24-May-2018 12:17:05,-0.632,-0.60165,-0.1025,18.699,14.187,-20.671,6.69333333333333
01,06,03,0,24-May-2018 12:17:05,-0.632,-0.60165,-0.1025,18.699,14.187,-20.671,6.69333333333333
01,06,03,0,24-May-2018 12:17:06,-0.768733333333333,-0.554866666666667,-0.0845666666666667,14.8576666666667,30.4266666666667,19.756,5.645
01,06,03,0,24-May-2018 12:17:06,-0.768733333333333,-0.554866666666667,-0.0845666666666667,14.8576666666667,30.4266666666667,19.756,5.645
01,06,03,0,24-May-2018 12:17:06,-0.768733333333333,-0.554866666666667,-0.0845666666666667,14.8576666666667,30.4266666666667,19.756,5.645
01,06,03,0,24-May-2018 12:17:06,-0.768733333333333,-0.554866666666667,-0.0845666666666667,14.8576666666667,30.4266666666667,19.756,5.645
01,06,03,0,24-May-2018 12:17:07,-0.6925,-0.6686,-0.093425,-38.2723333333333,-29.3903333333333,-1.768,10.255
01,06,03,0,24-May-2018 12:17:07,-0.6925,-0.6686,-0.093425,-38.2723333333333,-29.3903333333333,-1.768,10.255
01,06,03,0,24-May-2018 12:17:07,-0.6925,-0.6686,-0.093425,-38.2723333333333,-29.3903333333333,-1.768,10.255
01,06,03,0,24-May-2018 12:17:07,-0.6925,-0.6686,-0.093425,-38.2723333333333,-29.3903333333333,-1.768,10.255
01,06,03,0,24-May-2018 12:17:08,-0.74185,-0.6172,-0.05025,34.4205,8.8415,4.36,9.036
01,06,03,0,24-May-2018 12:17:08,-0.74185,-0.6172,-0.05025,34.4205,8.8415,4.36,9.036
01,06,03,0,24-May-2018 12:17:08,-0.74185,-0.6172,-0.05025,34.4205,8.8415,4.36,9.036
01,06,03,0,24-May-2018 12:17:08,-0.74185,-0.6172,-0.05025,34.4205,8.8415,4.36,9.036
01,06,03,0,24-May-2018 12:17:09,-0.77305,-0.5983,-0.0527,52.866,10.976,-7.317,6.008
01,06,03,0,24-May-2018 12:17:09,-0.77305,-0.5983,-0.0527,52.866,10.976,-7.317,6.008
01,06,03,0,24-May-2018 12:17:09,-0.77305,-0.5983,-0.0527,52.866,10.976,-7.317,6.008
01,06,03,0,24-May-2018 12:17:09,-0.77305,-0.5983,-0.0527,52.866,10.976,-7.317,6.008
01,06,03,0,24-May-2018 12:17:10,-0.75548,-0.58516,-0.10972,-58.046,-34.308,-15.1016666666667,7.4825
01,06,03,0,24-May-2018 12:17:10,-0.75548,-0.58516,-0.10972,-58.046,-34.308,-15.1016666666667,7.4825
01,06,03,0,24-May-2018 12:17:10,-0.75548,-0.58516,-0.10972,-58.046,-34.308,-15.1016666666667,7.4825
01,06,03,0,24-May-2018 12:17:10,-0.75548,-0.58516,-0.10972,-58.046,-34.308,-15.1016666666667,7.4825
01,06,03,0,24-May-2018 12:17:11,-0.76485,-0.5565,-0.088375,-24.065,-36.9103333333333,-4.837,5.8015
01,06,03,0,24-May-2018 12:17:11,-0.76485,-0.5565,-0.088375,-24.065,-36.9103333333333,-4.837,5.8015
01,06,03,0,24-May-2018 12:17:11,-0.76485,-0.5565,-0.088375,-24.065,-36.9103333333333,-4.837,5.8015
01,06,03,0,24-May-2018 12:17:11,-0.76485,-0.5565,-0.088375,-24.065,-36.9103333333333,-4.837,5.8015
01,06,03,0,24-May-2018 12:17:12,-0.7123,-0.627133333333333,-0.00563333333333334,27.7806,4.7074,16.0852,3.677
01,06,03,0,24-May-2018 12:17:12,-0.7123,-0.627133333333333,-0.00563333333333334,27.7806,4.7074,16.0852,3.677
01,06,03,0,24-May-2018 12:17:12,-0.7123,-0.627133333333333,-0.00563333333333334,27.7806,4.7074,16.0852,3.677
01,06,03,0,24-May-2018 12:17:12,-0.7123,-0.627133333333333,-0.00563333333333334,27.7806,4.7074,16.0852,3.677
01,06,03,0,24-May-2018 12:17:13,0.3799,-0.39752,0.22862,7.868,33.008,-33.2493333333333,567.781666666667
01,06,03,0,24-May-2018 12:17:13,0.3799,-0.39752,0.22862,7.868,33.008,-33.2493333333333,567.781666666667
01,06,03,0,24-May-2018 12:17:13,0.3799,-0.39752,0.22862,7.868,33.008,-33.2493333333333,567.781666666667
01,06,03,0,24-May-2018 12:17:13,0.3799,-0.39752,0.22862,7.868,33.008,-33.2493333333333,567.781666666667
01,06,03,0,24-May-2018 12:17:14,0.85525,-0.1711875,0.3839,-65.3441666666667,-1.53433333333333,5.14233333333333,567.781666666667
01,06,03,0,24-May-2018 12:17:14,0.85525,-0.1711875,0.3839,-65.3441666666667,-1.53433333333333,5.14233333333333,567.781666666667
01,06,03,0,24-May-2018 12:17:14,0.85525,-0.1711875,0.3839,-65.3441666666667,-1.53433333333333,5.14233333333333,567.781666666667
01,06,03,0,24-May-2018 12:17:14,0.85525,-0.1711875,0.3839,-65.3441666666667,-1.53433333333333,5.14233333333333,567.781666666667
01,06,03,0,24-May-2018 12:17:15,0.85525,-0.1711875,0.3839,-19.9695,-3.4145,1.616,567.781666666667
01,06,03,0,24-May-2018 12:17:15,0.85525,-0.1711875,0.3839,-19.9695,-3.4145,1.616,567.781666666667
01,06,03,0,24-May-2018 12:17:15,0.85525,-0.1711875,0.3839,-19.9695,-3.4145,1.616,0
01,06,03,0,24-May-2018 12:17:15,0,0,0,-19.9695,-3.4145,1.616,0
01,06,03,0,24-May-2018 12:17:16,0.866185714285714,-0.510371428571429,0.260071428571429,58.5976666666667,-4.10566666666667,-4.32916666666667,646.947
01,06,03,0,24-May-2018 12:17:16,0.866185714285714,-0.510371428571429,0.260071428571429,58.5976666666667,-4.10566666666667,-4.32916666666667,646.947
01,06,03,0,24-May-2018 12:17:16,0.866185714285714,-0.510371428571429,0.260071428571429,58.5976666666667,-4.10566666666667,-4.32916666666667,646.947
01,06,03,0,24-May-2018 12:17:16,0.866185714285714,-0.510371428571429,0.260071428571429,58.5976666666667,-4.10566666666667,-4.32916666666667,646.947
01,06,03,0,24-May-2018 12:17:17,0.870566666666667,-0.4854,0.0184166666666667,-0.0610000000000002,0.924666666666667,2.185,599.323
01,06,03,0,24-May-2018 12:17:17,0.870566666666667,-0.4854,0.0184166666666667,-0.0610000000000002,0.924666666666667,2.185,599.323
01,06,03,0,24-May-2018 12:17:17,0.870566666666667,-0.4854,0.0184166666666667,-0.0610000000000002,0.924666666666667,2.185,599.323
01,06,03,0,24-May-2018 12:17:17,0.870566666666667,-0.4854,0.0184166666666667,-0.0610000000000002,0.924666666666667,2.185,599.323
01,06,03,0,24-May-2018 12:17:18,0.814,-0.62285,-0.12165,-99.573,21.951,6.159,540.242
01,06,03,0,24-May-2018 12:17:18,0.814,-0.62285,-0.12165,-99.573,21.951,6.159,540.242
01,06,03,0,24-May-2018 12:17:18,0.814,-0.62285,-0.12165,-99.573,21.951,6.159,540.242
01,06,03,0,24-May-2018 12:17:18,0.814,-0.62285,-0.12165,-99.573,21.951,6.159,540.242
01,06,03,0,24-May-2018 12:17:19,0.8583,-0.556525,-0.15595,7.754,-1.85983333333333,-1.33116666666667,476.554
01,06,03,0,24-May-2018 12:17:19,0.8583,-0.556525,-0.15595,7.754,-1.85983333333333,-1.33116666666667,476.554
01,06,03,0,24-May-2018 12:17:19,0.8583,-0.556525,-0.15595,7.754,-1.85983333333333,-1.33116666666667,476.554
01,06,03,0,24-May-2018 12:17:19,0.8583,-0.556525,-0.15595,7.754,-1.85983333333333,-1.33116666666667,476.554
01,06,03,0,24-May-2018 12:17:20,0.8512,-0.56805,-0.24925,-4.60785714285714,-6.26314285714286,4.22485714285714,470.515
01,06,03,0,24-May-2018 12:17:20,0.8512,-0.56805,-0.24925,-4.60785714285714,-6.26314285714286,4.22485714285714,470.515
01,06,03,0,24-May-2018 12:17:20,0.8512,-0.56805,-0.24925,-4.60785714285714,-6.26314285714286,4.22485714285714,470.515
01,06,03,0,24-May-2018 12:17:20,0.8512,-0.56805,-0.24925,-4.60785714285714,-6.26314285714286,4.22485714285714,470.515
01,06,03,0,24-May-2018 12:17:21,0.8109875,-0.537125,-0.356,-7.77,-1.97757142857143,3.64971428571429,301.803
01,06,03,0,24-May-2018 12:17:21,0.8109875,-0.537125,-0.356,-7.77,-1.97757142857143,3.64971428571429,301.803
01,06,03,0,24-May-2018 12:17:21,0.8109875,-0.537125,-0.356,-7.77,-1.97757142857143,3.64971428571429,301.803
01,06,03,0,24-May-2018 12:17:21,0.8109875,-0.537125,-0.356,-7.77,-1.97757142857143,3.64971428571429,301.803
01,06,03,0,24-May-2018 12:17:22,0.79996,-0.59904,-0.12984,30.083875,-1.943625,-1.555,407.4305
01,06,03,0,24-May-2018 12:17:22,0.79996,-0.59904,-0.12984,30.083875,-1.943625,-1.555,407.4305
01,06,03,0,24-May-2018 12:17:22,0.79996,-0.59904,-0.12984,30.083875,-1.943625,-1.555,407.4305
01,06,03,0,24-May-2018 12:17:22,0.79996,-0.59904,-0.12984,30.083875,-1.943625,-1.555,407.4305
01,06,03,0,24-May-2018 12:17:23,0.77895,-0.6891,-0.06715,-9.67466666666667,4.85766666666667,8.862,532.066
01,06,03,0,24-May-2018 12:17:23,0.77895,-0.6891,-0.06715,-9.67466666666667,4.85766666666667,8.862,532.066
01,06,03,0,24-May-2018 12:17:23,0.77895,-0.6891,-0.06715,-9.67466666666667,4.85766666666667,8.862,532.066
01,06,03,0,24-May-2018 12:17:23,0.77895,-0.6891,-0.06715,-9.67466666666667,4.85766666666667,8.862,532.066
01,06,03,0,24-May-2018 12:17:24,0.662733333333333,-0.7413,0.0438,89.3988571428572,-28.9458571428571,13.2667142857143,525.03
01,06,03,0,24-May-2018 12:17:24,0.662733333333333,-0.7413,0.0438,89.3988571428572,-28.9458571428571,13.2667142857143,525.03
01,06,03,0,24-May-2018 12:17:24,0.662733333333333,-0.7413,0.0438,89.3988571428572,-28.9458571428571,13.2667142857143,525.03
01,06,03,0,24-May-2018 12:17:24,0.662733333333333,-0.7413,0.0438,89.3988571428572,-28.9458571428571,13.2667142857143,525.03
01,06,03,0,24-May-2018 12:17:25,0.689628571428571,-0.337814285714286,0.446957142857143,67.91925,14.07,-11.455125,604.0855
01,06,03,0,24-May-2018 12:17:25,0.689628571428571,-0.337814285714286,0.446957142857143,67.91925,14.07,-11.455125,604.0855
01,06,03,0,24-May-2018 12:17:25,0.689628571428571,-0.337814285714286,0.446957142857143,67.91925,14.07,-11.455125,604.0855
01,06,03,0,24-May-2018 12:17:25,0.689628571428571,-0.337814285714286,0.446957142857143,67.91925,14.07,-11.455125,604.0855
01,06,03,0,24-May-2018 12:17:26,0.795525,0.30135,0.6113,17.0123333333333,-3.191,16.6868333333333,561.682
01,06,03,0,24-May-2018 12:17:26,0.795525,0.30135,0.6113,17.0123333333333,-3.191,16.6868333333333,561.682
01,06,03,0,24-May-2018 12:17:26,0.795525,0.30135,0.6113,17.0123333333333,-3.191,16.6868333333333,561.682
01,06,03,0,24-May-2018 12:17:26,0.795525,0.30135,0.6113,17.0123333333333,-3.191,16.6868333333333,561.682
01,06,03,0,24-May-2018 12:17:27,0.79874,-0.58246,0.15032,-143.767166666667,18.6483333333333,22.7235,482.183
01,06,03,0,24-May-2018 12:17:27,0.79874,-0.58246,0.15032,-143.767166666667,18.6483333333333,22.7235,482.183
01,06,03,0,24-May-2018 12:17:27,0.79874,-0.58246,0.15032,-143.767166666667,18.6483333333333,22.7235,482.183
01,06,03,0,24-May-2018 12:17:27,0.79874,-0.58246,0.15032,-143.767166666667,18.6483333333333,22.7235,482.183
01,06,03,0,24-May-2018 12:17:28,0.6988,-0.824066666666667,0.0225333333333333,189.228,-12.2356666666667,-9.22766666666667,457.844
01,06,03,0,24-May-2018 12:17:28,0.6988,-0.824066666666667,0.0225333333333333,189.228,-12.2356666666667,-9.22766666666667,457.844
01,06,03,0,24-May-2018 12:17:28,0.6988,-0.824066666666667,0.0225333333333333,189.228,-12.2356666666667,-9.22766666666667,457.844
01,06,03,0,24-May-2018 12:17:28,0.6988,-0.824066666666667,0.0225333333333333,189.228,-12.2356666666667,-9.22766666666667,457.844
01,06,03,0,24-May-2018 12:17:29,0.625416666666667,-0.104233333333333,0.6785,64.8867142857143,-4.95657142857143,-2.00357142857143,457.844
01,06,03,0,24-May-2018 12:17:29,0.625416666666667,-0.104233333333333,0.6785,64.8867142857143,-4.95657142857143,-2.00357142857143,457.844
01,06,03,0,24-May-2018 12:17:29,0.625416666666667,-0.104233333333333,0.6785,64.8867142857143,-4.95657142857143,-2.00357142857143,457.844
01,06,03,0,24-May-2018 12:17:29,0.625416666666667,-0.104233333333333,0.6785,64.8867142857143,-4.95657142857143,-2.00357142857143,0
01,06,03,0,24-May-2018 12:17:30,0.8552,-0.2064,0.460175,63.1462,-31.756,66.0852,808.674
01,06,03,0,24-May-2018 12:17:30,0.8552,-0.2064,0.460175,63.1462,-31.756,66.0852,808.674
01,06,03,0,24-May-2018 12:17:30,0.8552,-0.2064,0.460175,63.1462,-31.756,66.0852,808.674
01,06,03,0,24-May-2018 12:17:30,0.8552,-0.2064,0.460175,63.1462,-31.756,66.0852,808.674
01,06,03,0,24-May-2018 12:17:31,0.832728571428571,-0.586857142857143,0.0766142857142857,19.6098,-5.3778,2.439,459.694
01,06,03,0,24-May-2018 12:17:31,0.832728571428571,-0.586857142857143,0.0766142857142857,19.6098,-5.3778,2.439,459.694
01,06,03,0,24-May-2018 12:17:31,0.832728571428571,-0.586857142857143,0.0766142857142857,19.6098,-5.3778,2.439,459.694
01,06,03,0,24-May-2018 12:17:31,0.832728571428571,-0.586857142857143,0.0766142857142857,19.6098,-5.3778,2.439,459.694
01,06,03,0,24-May-2018 12:17:32,0.866075,-0.606525,0.10385,41.3413333333333,-27.195,14.553,438.843
01,06,03,0,24-May-2018 12:17:32,0.866075,-0.606525,0.10385,41.3413333333333,-27.195,14.553,438.843
01,06,03,0,24-May-2018 12:17:32,0.866075,-0.606525,0.10385,41.3413333333333,-27.195,14.553,438.843
01,06,03,0,24-May-2018 12:17:32,0.866075,-0.606525,0.10385,41.3413333333333,-27.195,14.553,438.843
01,06,03,0,24-May-2018 12:17:33,0.88055,0.052075,0.461775,45.3904,-0.378,-10.1344,704.62
01,06,03,0,24-May-2018 12:17:33,0.88055,0.052075,0.461775,45.3904,-0.378,-10.1344,704.62
01,06,03,0,24-May-2018 12:17:33,0.88055,0.052075,0.461775,45.3904,-0.378,-10.1344,704.62
01,06,03,0,24-May-2018 12:17:33,0.88055,0.052075,0.461775,45.3904,-0.378,-10.1344,704.62
01,06,03,0,24-May-2018 12:17:34,0.891433333333333,-0.1307,0.3471,-64.9163333333333,-8.65866666666667,12.6016666666667,655.774
01,06,03,0,24-May-2018 12:17:34,0.891433333333333,-0.1307,0.3471,-64.9163333333333,-8.65866666666667,12.6016666666667,655.774
01,06,03,0,24-May-2018 12:17:34,0.891433333333333,-0.1307,0.3471,-64.9163333333333,-8.65866666666667,12.6016666666667,655.774
01,06,03,0,24-May-2018 12:17:34,0.891433333333333,-0.1307,0.3471,-64.9163333333333,-8.65866666666667,12.6016666666667,655.774
01,06,03,0,24-May-2018 12:17:35,0.88625,-0.421725,0.2819,8.559375,-7.3705,7.271375,671.378
01,06,03,0,24-May-2018 12:17:35,0.88625,-0.421725,0.2819,8.559375,-7.3705,7.271375,671.378
01,06,03,0,24-May-2018 12:17:35,0.88625,-0.421725,0.2819,8.559375,-7.3705,7.271375,671.378
01,06,03,0,24-May-2018 12:17:35,0.88625,-0.421725,0.2819,8.559375,-7.3705,7.271375,671.378
01,06,03,0,24-May-2018 12:17:36,0.891175,-0.494875,0.11665,-6.6586,-5.5612,2.1584,693.6952
01,06,03,0,24-May-2018 12:17:36,0.891175,-0.494875,0.11665,-6.6586,-5.5612,2.1584,693.6952
01,06,03,0,24-May-2018 12:17:36,0.891175,-0.494875,0.11665,-6.6586,-5.5612,2.1584,693.6952
01,06,03,0,24-May-2018 12:17:36,0.891175,-0.494875,0.11665,-6.6586,-5.5612,2.1584,693.6952
01,06,03,0,24-May-2018 12:17:37,0.91205,-0.45585,0.1091,14.807,-5.132,-0.9655,600.711
01,06,03,0,24-May-2018 12:17:37,0.91205,-0.45585,0.1091,14.807,-5.132,-0.9655,600.711
01,06,03,0,24-May-2018 12:17:37,0.91205,-0.45585,0.1091,14.807,-5.132,-0.9655,600.711
01,06,03,0,24-May-2018 12:17:37,0.91205,-0.45585,0.1091,14.807,-5.132,-0.9655,600.711
01,06,03,0,24-May-2018 12:17:38,0.80662,-0.39222,0.20482,63.8902,-6.2562,6.1584,648.871
01,06,03,0,24-May-2018 12:17:38,0.80662,-0.39222,0.20482,63.8902,-6.2562,6.1584,648.871
01,06,03,0,24-May-2018 12:17:38,0.80662,-0.39222,0.20482,63.8902,-6.2562,6.1584,648.871
01,06,03,0,24-May-2018 12:17:38,0.80662,-0.39222,0.20482,63.8902,-6.2562,6.1584,648.871
01,06,03,0,24-May-2018 12:17:39,-0.7166,-0.900366666666667,-0.393666666666667,59.01,58.76525,215.366,651.538
01,06,03,0,24-May-2018 12:17:39,-0.7166,-0.900366666666667,-0.393666666666667,59.01,58.76525,215.366,651.538
01,06,03,0,24-May-2018 12:17:39,-0.7166,-0.900366666666667,-0.393666666666667,59.01,58.76525,215.366,651.538
01,06,03,0,24-May-2018 12:17:39,-0.7166,-0.900366666666667,-0.393666666666667,59.01,58.76525,215.366,651.538
01,06,03,0,24-May-2018 12:17:40,-0.8291,-0.3826,0.135425,49.77175,12.1645,-6.5395,144.135
01,06,03,0,24-May-2018 12:17:40,-0.8291,-0.3826,0.135425,49.77175,12.1645,-6.5395,144.135
01,06,03,0,24-May-2018 12:17:40,-0.8291,-0.3826,0.135425,49.77175,12.1645,-6.5395,144.135
01,06,03,0,24-May-2018 12:17:40,-0.8291,-0.3826,0.135425,49.77175,12.1645,-6.5395,144.135
01,06,03,0,24-May-2018 12:17:41,-0.8322,-0.4208,-0.0527,-48.8158,-17.683,-1.4024,11.825
01,06,03,0,24-May-2018 12:17:41,-0.8322,-0.4208,-0.0527,-48.8158,-17.683,-1.4024,11.825
01,06,03,0,24-May-2018 12:17:41,-0.8322,-0.4208,-0.0527,-48.8158,-17.683,-1.4024,11.825
01,06,03,0,24-May-2018 12:17:41,-0.8322,-0.4208,-0.0527,-48.8158,-17.683,-1.4024,11.825
01,06,03,0,24-May-2018 12:17:42,-0.93785,-0.5149,-0.22435,-38.185,13.78075,-7.51525,11.826
01,06,03,0,24-May-2018 12:17:42,-0.93785,-0.5149,-0.22435,-38.185,13.78075,-7.51525,11.826
01,06,03,0,24-May-2018 12:17:42,-0.93785,-0.5149,-0.22435,-38.185,13.78075,-7.51525,11.826
01,06,03,0,24-May-2018 12:17:42,-0.93785,-0.5149,-0.22435,-38.185,13.78075,-7.51525,11.826
01,06,03,0,24-May-2018 12:17:43,-0.89255,-0.58835,-0.11355,33.99375,21.17375,9.42075,10.775
01,06,03,0,24-May-2018 12:17:43,-0.89255,-0.58835,-0.11355,33.99375,21.17375,9.42075,10.775
01,06,03,0,24-May-2018 12:17:43,-0.89255,-0.58835,-0.11355,33.99375,21.17375,9.42075,10.775
01,06,03,0,24-May-2018 12:17:43,-0.89255,-0.58835,-0.11355,33.99375,21.17375,9.42075,10.775
01,06,03,0,24-May-2018 12:17:44,-0.79904,-0.53364,-0.20262,-19.3696666666667,4.28866666666667,-7.58133333333333,12.902
01,06,03,0,24-May-2018 12:17:44,-0.79904,-0.53364,-0.20262,-19.3696666666667,4.28866666666667,-7.58133333333333,12.902
01,06,03,0,24-May-2018 12:17:44,-0.79904,-0.53364,-0.20262,-19.3696666666667,4.28866666666667,-7.58133333333333,12.902
01,06,03,0,24-May-2018 12:17:44,-0.79904,-0.53364,-0.20262,-19.3696666666667,4.28866666666667,-7.58133333333333,12.902
01,06,03,0,24-May-2018 12:17:45,-0.7897,-0.5891,-0.4447,-19.024,7.256,-4.573,12.933
01,06,03,0,24-May-2018 12:17:45,-0.7897,-0.5891,-0.4447,-19.024,7.256,-4.573,12.933
01,06,03,0,24-May-2018 12:17:45,-0.7897,-0.5891,-0.4447,-19.024,7.256,-4.573,12.933
01,06,03,0,24-May-2018 12:17:45,-0.7897,-0.5891,-0.4447,-19.024,7.256,-4.573,12.933
01,06,03,0,24-May-2018 12:17:46,-0.831533333333333,-0.598233333333333,-0.232133333333333,-1.706,0.9146,-9.4756,8.439
01,06,03,0,24-May-2018 12:17:46,-0.831533333333333,-0.598233333333333,-0.232133333333333,-1.706,0.9146,-9.4756,8.439
01,06,03,0,24-May-2018 12:17:46,-0.831533333333333,-0.598233333333333,-0.232133333333333,-1.706,0.9146,-9.4756,8.439
01,06,03,0,24-May-2018 12:17:46,-0.831533333333333,-0.598233333333333,-0.232133333333333,-1.706,0.9146,-9.4756,8.439
01,06,03,0,24-May-2018 12:17:47,-0.820633333333333,-0.546733333333333,-0.1588,79.8672,41.1832,11.7318,6.291
01,06,03,0,24-May-2018 12:17:47,-0.820633333333333,-0.546733333333333,-0.1588,79.8672,41.1832,11.7318,6.291
01,06,03,0,24-May-2018 12:17:47,-0.820633333333333,-0.546733333333333,-0.1588,79.8672,41.1832,11.7318,6.291
01,06,03,0,24-May-2018 12:17:47,-0.820633333333333,-0.546733333333333,-0.1588,79.8672,41.1832,11.7318,6.291
01,06,03,0,24-May-2018 12:17:48,-0.765883333333333,-0.671933333333333,-0.0783833333333333,-178.820666666667,-1.93066666666667,-72.7846666666667,8.89825
01,06,03,0,24-May-2018 12:17:48,-0.765883333333333,-0.671933333333333,-0.0783833333333333,-178.820666666667,-1.93066666666667,-72.7846666666667,8.89825
01,06,03,0,24-May-2018 12:17:48,-0.765883333333333,-0.671933333333333,-0.0783833333333333,-178.820666666667,-1.93066666666667,-72.7846666666667,8.89825
01,06,03,0,24-May-2018 12:17:48,-0.765883333333333,-0.671933333333333,-0.0783833333333333,-178.820666666667,-1.93066666666667,-72.7846666666667,8.89825
01,06,03,0,24-May-2018 12:17:49,-0.765883333333333,-0.671933333333333,-0.0783833333333333,-27.4395,-0.884,36.555,119.898
01,06,03,0,24-May-2018 12:17:49,-0.765883333333333,-0.671933333333333,-0.0783833333333333,-27.4395,-0.884,36.555,119.898
01,06,03,0,24-May-2018 12:17:49,-0.765883333333333,-0.671933333333333,-0.0783833333333333,-27.4395,-0.884,36.555,119.898
01,06,03,0,24-May-2018 12:17:49,0,0,0,-27.4395,-0.884,36.555,119.898
01,06,03,0,24-May-2018 12:17:50,-0.0996666666666667,0.553666666666667,-0.741866666666667,6.189,1.65666666666667,-23.3028333333333,259.137
01,06,03,0,24-May-2018 12:17:50,-0.0996666666666667,0.553666666666667,-0.741866666666667,6.189,1.65666666666667,-23.3028333333333,259.137
01,06,03,0,24-May-2018 12:17:50,-0.0996666666666667,0.553666666666667,-0.741866666666667,6.189,1.65666666666667,-23.3028333333333,259.137
01,06,03,0,24-May-2018 12:17:50,-0.0996666666666667,0.553666666666667,-0.741866666666667,6.189,1.65666666666667,-23.3028333333333,259.137
01,06,03,0,24-May-2018 12:17:51,-0.538925,-0.210275,-0.756325,10.01525,-33.4755,12.42375,276.9244
01,06,03,0,24-May-2018 12:17:51,-0.538925,-0.210275,-0.756325,10.01525,-33.4755,12.42375,276.9244
01,06,03,0,24-May-2018 12:17:51,-0.538925,-0.210275,-0.756325,10.01525,-33.4755,12.42375,276.9244
01,06,03,0,24-May-2018 12:17:51,-0.538925,-0.210275,-0.756325,10.01525,-33.4755,12.42375,276.9244
01,07,01,0,24-May-2018 12:18:41,0.2512,-0.835233333333333,-0.542066666666667,-4.8416,8.1708,8.3414,247.8475
01,07,01,0,24-May-2018 12:18:41,0.2512,-0.835233333333333,-0.542066666666667,-4.8416,8.1708,8.3414,247.8475
01,07,01,0,24-May-2018 12:18:41,0.2512,-0.835233333333333,-0.542066666666667,-4.8416,8.1708,8.3414,247.8475
01,07,01,0,24-May-2018 12:18:41,0.2512,-0.835233333333333,-0.542066666666667,-4.8416,8.1708,8.3414,247.8475
01,07,01,0,24-May-2018 12:18:42,-0.334375,-0.6597,-0.21185,1.9154,16.8658,96.5244,219.8782
01,07,01,0,24-May-2018 12:18:42,-0.334375,-0.6597,-0.21185,1.9154,16.8658,96.5244,219.8782
01,07,01,0,24-May-2018 12:18:42,-0.334375,-0.6597,-0.21185,1.9154,16.8658,96.5244,219.8782
01,07,01,0,24-May-2018 12:18:42,-0.334375,-0.6597,-0.21185,1.9154,16.8658,96.5244,219.8782
01,07,01,0,24-May-2018 12:18:43,-0.955616666666666,-0.151183333333333,-0.113966666666667,-41.8025714285714,-0.365857142857143,23.824,586.586
01,07,01,0,24-May-2018 12:18:43,-0.955616666666666,-0.151183333333333,-0.113966666666667,-41.8025714285714,-0.365857142857143,23.824,586.586
01,07,01,0,24-May-2018 12:18:43,-0.955616666666666,-0.151183333333333,-0.113966666666667,-41.8025714285714,-0.365857142857143,23.824,586.586
01,07,01,0,24-May-2018 12:18:43,-0.955616666666666,-0.151183333333333,-0.113966666666667,-41.8025714285714,-0.365857142857143,23.824,586.586
01,07,01,0,24-May-2018 12:18:44,-0.931816666666667,-0.236066666666667,-0.130716666666667,36.2684,1.5244,-14.4146,593.510666666667
01,07,01,0,24-May-2018 12:18:44,-0.931816666666667,-0.236066666666667,-0.130716666666667,36.2684,1.5244,-14.4146,593.510666666667
01,07,01,0,24-May-2018 12:18:44,-0.931816666666667,-0.236066666666667,-0.130716666666667,36.2684,1.5244,-14.4146,593.510666666667
01,07,01,0,24-May-2018 12:18:44,-0.931816666666667,-0.236066666666667,-0.130716666666667,36.2684,1.5244,-14.4146,593.510666666667
01,07,01,0,24-May-2018 12:18:45,-0.935416666666667,-0.304816666666667,-0.168833333333333,85.427,27.256,8.8875,511.829333333333
01,07,01,0,24-May-2018 12:18:45,-0.935416666666667,-0.304816666666667,-0.168833333333333,85.427,27.256,8.8875,511.829333333333
01,07,01,0,24-May-2018 12:18:45,-0.935416666666667,-0.304816666666667,-0.168833333333333,85.427,27.256,8.8875,511.829333333333
01,07,01,0,24-May-2018 12:18:45,-0.935416666666667,-0.304816666666667,-0.168833333333333,85.427,27.256,8.8875,511.829333333333
01,07,01,0,24-May-2018 12:18:46,-0.94298,-0.20556,-0.0859,28.3943333333333,-1.73783333333333,-6.71733333333333,429.97175
01,07,01,0,24-May-2018 12:18:46,-0.94298,-0.20556,-0.0859,28.3943333333333,-1.73783333333333,-6.71733333333333,429.97175
01,07,01,0,24-May-2018 12:18:46,-0.94298,-0.20556,-0.0859,28.3943333333333,-1.73783333333333,-6.71733333333333,429.97175
01,07,01,0,24-May-2018 12:18:46,-0.94298,-0.20556,-0.0859,28.3943333333333,-1.73783333333333,-6.71733333333333,429.97175
01,07,01,0,24-May-2018 12:18:47,-0.9287,-0.199883333333333,-0.118516666666667,6.439,-12.8294,3.21959999999999,383.305666666667
01,07,01,0,24-May-2018 12:18:47,-0.9287,-0.199883333333333,-0.118516666666667,6.439,-12.8294,3.21959999999999,383.305666666667
01,07,01,0,24-May-2018 12:18:47,-0.9287,-0.199883333333333,-0.118516666666667,6.439,-12.8294,3.21959999999999,383.305666666667
01,07,01,0,24-May-2018 12:18:47,-0.9287,-0.199883333333333,-0.118516666666667,6.439,-12.8294,3.21959999999999,383.305666666667
01,07,01,0,24-May-2018 12:18:48,-0.8668,-0.270875,-0.127175,-13.5602,-1.561,-14.439,311.588
01,07,01,0,24-May-2018 12:18:48,-0.8668,-0.270875,-0.127175,-13.5602,-1.561,-14.439,311.588
01,07,01,0,24-May-2018 12:18:48,-0.8668,-0.270875,-0.127175,-13.5602,-1.561,-14.439,311.588
01,07,01,0,24-May-2018 12:18:48,-0.8668,-0.270875,-0.127175,-13.5602,-1.561,-14.439,311.588
01,07,01,0,24-May-2018 12:18:49,-0.906685714285714,-0.327828571428571,-0.195442857142857,49.4514,16.0974,9.7682,401.533
01,07,01,0,24-May-2018 12:18:49,-0.906685714285714,-0.327828571428571,-0.195442857142857,49.4514,16.0974,9.7682,401.533
01,07,01,0,24-May-2018 12:18:49,-0.906685714285714,-0.327828571428571,-0.195442857142857,49.4514,16.0974,9.7682,401.533
01,07,01,0,24-May-2018 12:18:49,-0.906685714285714,-0.327828571428571,-0.195442857142857,49.4514,16.0974,9.7682,401.533
01,07,01,0,24-May-2018 12:18:50,-0.901575,-0.249575,-0.101175,68.9266,14.1706,8.6342,330.977
01,07,01,0,24-May-2018 12:18:50,-0.901575,-0.249575,-0.101175,68.9266,14.1706,8.6342,330.977
01,07,01,0,24-May-2018 12:18:50,-0.901575,-0.249575,-0.101175,68.9266,14.1706,8.6342,330.977
01,07,01,0,24-May-2018 12:18:50,-0.901575,-0.249575,-0.101175,68.9266,14.1706,8.6342,330.977
01,07,01,0,24-May-2018 12:18:51,-0.916466666666667,-0.252116666666667,-0.127716666666667,7.51033333333333,0.559,-16.1076666666667,383.464
01,07,01,0,24-May-2018 12:18:51,-0.916466666666667,-0.252116666666667,-0.127716666666667,7.51033333333333,0.559,-16.1076666666667,383.464
01,07,01,0,24-May-2018 12:18:51,-0.916466666666667,-0.252116666666667,-0.127716666666667,7.51033333333333,0.559,-16.1076666666667,383.464
01,07,01,0,24-May-2018 12:18:51,-0.916466666666667,-0.252116666666667,-0.127716666666667,7.51033333333333,0.559,-16.1076666666667,383.464
01,07,01,0,24-May-2018 12:18:52,-0.8956,-0.3358,0.006425,-99.66375,-2.33225,-1.265,477.9036
01,07,01,0,24-May-2018 12:18:52,-0.8956,-0.3358,0.006425,-99.66375,-2.33225,-1.265,477.9036
01,07,01,0,24-May-2018 12:18:52,-0.8956,-0.3358,0.006425,-99.66375,-2.33225,-1.265,477.9036
01,07,01,0,24-May-2018 12:18:52,-0.8956,-0.3358,0.006425,-99.66375,-2.33225,-1.265,477.9036
01,07,01,0,24-May-2018 12:18:53,-0.983066666666667,-0.29805,-0.11835,17.362875,-4.954125,-4.085125,500.725
01,07,01,0,24-May-2018 12:18:53,-0.983066666666667,-0.29805,-0.11835,17.362875,-4.954125,-4.085125,500.725
01,07,01,0,24-May-2018 12:18:53,-0.983066666666667,-0.29805,-0.11835,17.362875,-4.954125,-4.085125,500.725
01,07,01,0,24-May-2018 12:18:53,-0.983066666666667,-0.29805,-0.11835,17.362875,-4.954125,-4.085125,500.725
01,07,01,0,24-May-2018 12:18:54,-0.913366666666667,-0.220233333333333,-0.3774,99.988,25.817,9.3538,471.295
01,07,01,0,24-May-2018 12:18:54,-0.913366666666667,-0.220233333333333,-0.3774,99.988,25.817,9.3538,471.295
01,07,01,0,24-May-2018 12:18:54,-0.913366666666667,-0.220233333333333,-0.3774,99.988,25.817,9.3538,471.295
01,07,01,0,24-May-2018 12:18:54,-0.913366666666667,-0.220233333333333,-0.3774,99.988,25.817,9.3538,471.295
01,07,01,0,24-May-2018 12:18:55,-0.87238,-0.30568,-0.05136,93.6238571428571,-1.06257142857143,8.432,523.093
01,07,01,0,24-May-2018 12:18:55,-0.87238,-0.30568,-0.05136,93.6238571428571,-1.06257142857143,8.432,523.093
01,07,01,0,24-May-2018 12:18:55,-0.87238,-0.30568,-0.05136,93.6238571428571,-1.06257142857143,8.432,523.093
01,07,01,0,24-May-2018 12:18:55,-0.87238,-0.30568,-0.05136,93.6238571428571,-1.06257142857143,8.432,523.093
01,07,01,0,24-May-2018 12:18:56,-0.890657142857143,-0.287614285714286,-0.0432857142857143,-12.3854285714286,12.5,-1.94257142857143,474.5485
01,07,01,0,24-May-2018 12:18:56,-0.890657142857143,-0.287614285714286,-0.0432857142857143,-12.3854285714286,12.5,-1.94257142857143,474.5485
01,07,01,0,24-May-2018 12:18:56,-0.890657142857143,-0.287614285714286,-0.0432857142857143,-12.3854285714286,12.5,-1.94257142857143,474.5485
01,07,01,0,24-May-2018 12:18:56,-0.890657142857143,-0.287614285714286,-0.0432857142857143,-12.3854285714286,12.5,-1.94257142857143,474.5485
01,07,01,0,24-May-2018 12:18:57,-0.960285714285714,-0.210171428571429,-0.0632571428571429,50.939,-0.1708,-5.8534,349.105
01,07,01,0,24-May-2018 12:18:57,-0.960285714285714,-0.210171428571429,-0.0632571428571429,50.939,-0.1708,-5.8534,349.105
01,07,01,0,24-May-2018 12:18:57,-0.960285714285714,-0.210171428571429,-0.0632571428571429,50.939,-0.1708,-5.8534,349.105
01,07,01,0,24-May-2018 12:18:57,-0.960285714285714,-0.210171428571429,-0.0632571428571429,50.939,-0.1708,-5.8534,349.105
01,07,01,0,24-May-2018 12:18:58,-0.994525,-0.29385,-0.0382,12.8172,8.5732,7.9268,373.9895
01,07,01,0,24-May-2018 12:18:58,-0.994525,-0.29385,-0.0382,12.8172,8.5732,7.9268,373.9895
01,07,01,0,24-May-2018 12:18:58,-0.994525,-0.29385,-0.0382,12.8172,8.5732,7.9268,373.9895
01,07,01,0,24-May-2018 12:18:58,-0.994525,-0.29385,-0.0382,12.8172,8.5732,7.9268,373.9895
01,07,01,0,24-May-2018 12:18:59,-0.90426,-0.21864,-0.29914,79.733,23.939,25.439,368.787
01,07,01,0,24-May-2018 12:18:59,-0.90426,-0.21864,-0.29914,79.733,23.939,25.439,368.787
01,07,01,0,24-May-2018 12:18:59,-0.90426,-0.21864,-0.29914,79.733,23.939,25.439,368.787
01,07,01,0,24-May-2018 12:18:59,-0.90426,-0.21864,-0.29914,79.733,23.939,25.439,368.787
01,07,01,0,24-May-2018 12:19:00,-0.9521,-0.28555,-0.186375,82.4085,25.686,17.60675,398.073
01,07,01,0,24-May-2018 12:19:00,-0.9521,-0.28555,-0.186375,82.4085,25.686,17.60675,398.073
01,07,01,0,24-May-2018 12:19:00,-0.9521,-0.28555,-0.186375,82.4085,25.686,17.60675,398.073
01,07,01,0,24-May-2018 12:19:00,-0.9521,-0.28555,-0.186375,82.4085,25.686,17.60675,398.073
01,07,01,0,24-May-2018 12:19:01,-0.9131,-0.3212,-0.0611666666666667,42.8456666666667,11.0976666666667,-3.059,341.14
01,07,01,0,24-May-2018 12:19:01,-0.9131,-0.3212,-0.0611666666666667,42.8456666666667,11.0976666666667,-3.059,341.14
01,07,01,0,24-May-2018 12:19:01,-0.9131,-0.3212,-0.0611666666666667,42.8456666666667,11.0976666666667,-3.059,341.14
01,07,01,0,24-May-2018 12:19:01,-0.9131,-0.3212,-0.0611666666666667,42.8456666666667,11.0976666666667,-3.059,341.14
01,07,01,0,24-May-2018 12:19:02,-0.97662,-0.24832,0.00826,1.6958,9.2562,-41.0122,583.307
01,07,01,0,24-May-2018 12:19:02,-0.97662,-0.24832,0.00826,1.6958,9.2562,-41.0122,583.307
01,07,01,0,24-May-2018 12:19:02,-0.97662,-0.24832,0.00826,1.6958,9.2562,-41.0122,583.307
01,07,01,0,24-May-2018 12:19:02,-0.97662,-0.24832,0.00826,1.6958,9.2562,-41.0122,583.307
01,07,01,0,24-May-2018 12:19:03,-1.04365,-0.255825,-0.0277,-17.5974,-17.1098,-5.6462,487.742
01,07,01,0,24-May-2018 12:19:03,-1.04365,-0.255825,-0.0277,-17.5974,-17.1098,-5.6462,487.742
01,07,01,0,24-May-2018 12:19:03,-1.04365,-0.255825,-0.0277,-17.5974,-17.1098,-5.6462,487.742
01,07,01,0,24-May-2018 12:19:03,-1.04365,-0.255825,-0.0277,-17.5974,-17.1098,-5.6462,487.742
01,07,01,0,24-May-2018 12:19:04,-0.92455,-0.1481,-0.0368166666666667,-41.4758,1.1586,-20.4878,456.247666666667
01,07,01,0,24-May-2018 12:19:04,-0.92455,-0.1481,-0.0368166666666667,-41.4758,1.1586,-20.4878,456.247666666667
01,07,01,0,24-May-2018 12:19:04,-0.92455,-0.1481,-0.0368166666666667,-41.4758,1.1586,-20.4878,456.247666666667
01,07,01,0,24-May-2018 12:19:04,-0.92455,-0.1481,-0.0368166666666667,-41.4758,1.1586,-20.4878,456.247666666667
01,07,01,0,24-May-2018 12:19:05,-0.915266666666667,-0.211383333333333,-0.148333333333333,-101.506,-29.2597142857143,20.5488571428571,391.723
01,07,01,0,24-May-2018 12:19:05,-0.915266666666667,-0.211383333333333,-0.148333333333333,-101.506,-29.2597142857143,20.5488571428571,391.723
01,07,01,0,24-May-2018 12:19:05,-0.915266666666667,-0.211383333333333,-0.148333333333333,-101.506,-29.2597142857143,20.5488571428571,391.723
01,07,01,0,24-May-2018 12:19:05,-0.915266666666667,-0.211383333333333,-0.148333333333333,-101.506,-29.2597142857143,20.5488571428571,391.723
01,07,01,0,24-May-2018 12:19:06,-0.90205,-0.27415,-0.04895,-100.24,12.988,-2.683,391.723
01,07,01,0,24-May-2018 12:19:06,-0.90205,-0.27415,-0.04895,-100.24,12.988,-2.683,391.723
01,07,01,0,24-May-2018 12:19:06,-0.90205,-0.27415,-0.04895,-100.24,12.988,-2.683,391.723
01,07,01,0,24-May-2018 12:19:06,-0.90205,-0.27415,-0.04895,-100.24,12.988,-2.683,0
01,07,01,0,24-May-2018 12:19:07,-1.02703333333333,-0.223666666666667,-0.123266666666667,10.9145,16.677,-11.86,412.376
01,07,01,0,24-May-2018 12:19:07,-1.02703333333333,-0.223666666666667,-0.123266666666667,10.9145,16.677,-11.86,412.376
01,07,01,0,24-May-2018 12:19:07,-1.02703333333333,-0.223666666666667,-0.123266666666667,10.9145,16.677,-11.86,412.376
01,07,01,0,24-May-2018 12:19:07,-1.02703333333333,-0.223666666666667,-0.123266666666667,10.9145,16.677,-11.86,412.376
01,07,01,0,24-May-2018 12:19:08,-0.9515875,-0.2408125,-0.121025,-53.8605,-1.02633333333333,27.3071666666667,404.795666666667
01,07,01,0,24-May-2018 12:19:08,-0.9515875,-0.2408125,-0.121025,-53.8605,-1.02633333333333,27.3071666666667,404.795666666667
01,07,01,0,24-May-2018 12:19:08,-0.9515875,-0.2408125,-0.121025,-53.8605,-1.02633333333333,27.3071666666667,404.795666666667
01,07,01,0,24-May-2018 12:19:08,-0.9515875,-0.2408125,-0.121025,-53.8605,-1.02633333333333,27.3071666666667,404.795666666667
01,07,01,0,24-May-2018 12:19:09,-0.8789,-0.25086,-0.10948,27.7004285714286,10.6531428571429,-2.63085714285714,358.332
01,07,01,0,24-May-2018 12:19:09,-0.8789,-0.25086,-0.10948,27.7004285714286,10.6531428571429,-2.63085714285714,358.332
01,07,01,0,24-May-2018 12:19:09,-0.8789,-0.25086,-0.10948,27.7004285714286,10.6531428571429,-2.63085714285714,358.332
01,07,01,0,24-May-2018 12:19:09,-0.8789,-0.25086,-0.10948,27.7004285714286,10.6531428571429,-2.63085714285714,358.332
01,07,01,0,24-May-2018 12:19:10,-0.8109,-0.305633333333333,0.0128,85.0174285714286,11.0627142857143,27.718,338.645333333333
01,07,01,0,24-May-2018 12:19:10,-0.8109,-0.305633333333333,0.0128,85.0174285714286,11.0627142857143,27.718,338.645333333333
01,07,01,0,24-May-2018 12:19:10,-0.8109,-0.305633333333333,0.0128,85.0174285714286,11.0627142857143,27.718,338.645333333333
01,07,01,0,24-May-2018 12:19:10,-0.8109,-0.305633333333333,0.0128,85.0174285714286,11.0627142857143,27.718,338.645333333333
01,07,01,0,24-May-2018 12:19:11,-0.903966666666667,-0.232583333333333,-0.190766666666667,74.01675,13.963375,1.661625,334.52
01,07,01,0,24-May-2018 12:19:11,-0.903966666666667,-0.232583333333333,-0.190766666666667,74.01675,13.963375,1.661625,334.52
01,07,01,0,24-May-2018 12:19:11,-0.903966666666667,-0.232583333333333,-0.190766666666667,74.01675,13.963375,1.661625,334.52
01,07,01,0,24-May-2018 12:19:11,-0.903966666666667,-0.232583333333333,-0.190766666666667,74.01675,13.963375,1.661625,334.52
01,07,01,0,24-May-2018 12:19:12,-0.888983333333333,-0.295316666666667,-0.144916666666667,-15.3395714285714,1.20214285714286,-6.55914285714286,313.6035
01,07,01,0,24-May-2018 12:19:12,-0.888983333333333,-0.295316666666667,-0.144916666666667,-15.3395714285714,1.20214285714286,-6.55914285714286,313.6035
01,07,01,0,24-May-2018 12:19:12,-0.888983333333333,-0.295316666666667,-0.144916666666667,-15.3395714285714,1.20214285714286,-6.55914285714286,313.6035
01,07,01,0,24-May-2018 12:19:12,-0.888983333333333,-0.295316666666667,-0.144916666666667,-15.3395714285714,1.20214285714286,-6.55914285714286,313.6035
01,07,01,0,24-May-2018 12:19:13,-0.945342857142857,-0.274028571428571,-0.0618857142857143,-27.4878,9.3172,38.9266,436.006
01,07,01,0,24-May-2018 12:19:13,-0.945342857142857,-0.274028571428571,-0.0618857142857143,-27.4878,9.3172,38.9266,436.006
01,07,01,0,24-May-2018 12:19:13,-0.945342857142857,-0.274028571428571,-0.0618857142857143,-27.4878,9.3172,38.9266,436.006
01,07,01,0,24-May-2018 12:19:13,-0.945342857142857,-0.274028571428571,-0.0618857142857143,-27.4878,9.3172,38.9266,436.006
01,07,01,0,24-May-2018 12:19:14,-0.83006,-0.2873,-0.06836,54.2685,-5.1625,-25.9045,518.415
01,07,01,0,24-May-2018 12:19:14,-0.83006,-0.2873,-0.06836,54.2685,-5.1625,-25.9045,518.415
01,07,01,0,24-May-2018 12:19:14,-0.83006,-0.2873,-0.06836,54.2685,-5.1625,-25.9045,518.415
01,07,01,0,24-May-2018 12:19:14,-0.83006,-0.2873,-0.06836,54.2685,-5.1625,-25.9045,518.415
01,07,01,0,24-May-2018 12:19:15,-0.92808,-0.26152,-0.2696,101.9146,30.1098,-0.426600000000001,593.360333333333
01,07,01,0,24-May-2018 12:19:15,-0.92808,-0.26152,-0.2696,101.9146,30.1098,-0.426600000000001,593.360333333333
01,07,01,0,24-May-2018 12:19:15,-0.92808,-0.26152,-0.2696,101.9146,30.1098,-0.426600000000001,593.360333333333
01,07,01,0,24-May-2018 12:19:15,-0.92808,-0.26152,-0.2696,101.9146,30.1098,-0.426600000000001,593.360333333333
01,07,01,0,24-May-2018 12:19:16,-0.934925,-0.28955,-0.134625,45.575,14.4774285714286,0.993142857142857,593.360333333333
01,07,01,0,24-May-2018 12:19:16,-0.934925,-0.28955,-0.134625,45.575,14.4774285714286,0.993142857142857,593.360333333333
01,07,01,0,24-May-2018 12:19:16,-0.934925,-0.28955,-0.134625,45.575,14.4774285714286,0.993142857142857,593.360333333333
01,07,01,0,24-May-2018 12:19:16,-0.934925,-0.28955,-0.134625,45.575,14.4774285714286,0.993142857142857,0
01,07,01,0,24-May-2018 12:19:17,-0.878757142857143,-0.325142857142857,-0.0532571428571429,18.1447142857143,14.8168571428571,1.36742857142857,396.345
01,07,01,0,24-May-2018 12:19:17,-0.878757142857143,-0.325142857142857,-0.0532571428571429,18.1447142857143,14.8168571428571,1.36742857142857,396.345
01,07,01,0,24-May-2018 12:19:17,-0.878757142857143,-0.325142857142857,-0.0532571428571429,18.1447142857143,14.8168571428571,1.36742857142857,396.345
01,07,01,0,24-May-2018 12:19:17,-0.878757142857143,-0.325142857142857,-0.0532571428571429,18.1447142857143,14.8168571428571,1.36742857142857,396.345
01,07,01,0,24-May-2018 12:19:18,-0.86838,-0.19328,-0.11296,2.622,-4.561,4.7926,369.666
01,07,01,0,24-May-2018 12:19:18,-0.86838,-0.19328,-0.11296,2.622,-4.561,4.7926,369.666
01,07,01,0,24-May-2018 12:19:18,-0.86838,-0.19328,-0.11296,2.622,-4.561,4.7926,369.666
01,07,01,0,24-May-2018 12:19:18,-0.86838,-0.19328,-0.11296,2.622,-4.561,4.7926,369.666
01,07,01,0,24-May-2018 12:19:19,-0.955114285714286,-0.134028571428571,-0.128728571428571,-27.439,-0.6605,3.32316666666667,332.8245
01,07,01,0,24-May-2018 12:19:19,-0.955114285714286,-0.134028571428571,-0.128728571428571,-27.439,-0.6605,3.32316666666667,332.8245
01,07,01,0,24-May-2018 12:19:19,-0.955114285714286,-0.134028571428571,-0.128728571428571,-27.439,-0.6605,3.32316666666667,332.8245
01,07,01,0,24-May-2018 12:19:19,-0.955114285714286,-0.134028571428571,-0.128728571428571,-27.439,-0.6605,3.32316666666667,332.8245
01,07,01,0,24-May-2018 12:19:20,-0.938328571428572,-0.2375,-0.0966857142857143,-127.313833333333,-32.7743333333333,2.47966666666667,558.453
01,07,01,0,24-May-2018 12:19:20,-0.938328571428572,-0.2375,-0.0966857142857143,-127.313833333333,-32.7743333333333,2.47966666666667,558.453
01,07,01,0,24-May-2018 12:19:20,-0.938328571428572,-0.2375,-0.0966857142857143,-127.313833333333,-32.7743333333333,2.47966666666667,558.453
01,07,01,0,24-May-2018 12:19:20,-0.938328571428572,-0.2375,-0.0966857142857143,-127.313833333333,-32.7743333333333,2.47966666666667,558.453
01,07,01,0,24-May-2018 12:19:21,-0.895066666666667,-0.241366666666667,0.0998333333333333,-34.1465,-3.96325,5.33525,576.59
01,07,01,0,24-May-2018 12:19:21,-0.895066666666667,-0.241366666666667,0.0998333333333333,-34.1465,-3.96325,5.33525,576.59
01,07,01,0,24-May-2018 12:19:21,-0.895066666666667,-0.241366666666667,0.0998333333333333,-34.1465,-3.96325,5.33525,576.59
01,07,01,0,24-May-2018 12:19:21,-0.895066666666667,-0.241366666666667,0.0998333333333333,-34.1465,-3.96325,5.33525,576.59
01,07,01,0,24-May-2018 12:19:22,-0.91644,-0.2301,-0.083,-16.514,1.26033333333333,-5.78266666666667,539.201
01,07,01,0,24-May-2018 12:19:22,-0.91644,-0.2301,-0.083,-16.514,1.26033333333333,-5.78266666666667,539.201
01,07,01,0,24-May-2018 12:19:22,-0.91644,-0.2301,-0.083,-16.514,1.26033333333333,-5.78266666666667,539.201
01,07,01,0,24-May-2018 12:19:22,-0.91644,-0.2301,-0.083,-16.514,1.26033333333333,-5.78266666666667,539.201
01,07,01,0,24-May-2018 12:19:23,-0.974485714285714,-0.226657142857143,-0.0509714285714286,-24.0853333333333,-5.18333333333333,-21.687,474.0524
01,07,01,0,24-May-2018 12:19:23,-0.974485714285714,-0.226657142857143,-0.0509714285714286,-24.0853333333333,-5.18333333333333,-21.687,474.0524
01,07,01,0,24-May-2018 12:19:23,-0.974485714285714,-0.226657142857143,-0.0509714285714286,-24.0853333333333,-5.18333333333333,-21.687,474.0524
01,07,01,0,24-May-2018 12:19:23,-0.974485714285714,-0.226657142857143,-0.0509714285714286,-24.0853333333333,-5.18333333333333,-21.687,474.0524
01,07,01,0,24-May-2018 12:19:24,-0.9921,-0.22935,-0.10055,45.823,-7.07316666666667,-13.5265,488.3925
01,07,01,0,24-May-2018 12:19:24,-0.9921,-0.22935,-0.10055,45.823,-7.07316666666667,-13.5265,488.3925
01,07,01,0,24-May-2018 12:19:24,-0.9921,-0.22935,-0.10055,45.823,-7.07316666666667,-13.5265,488.3925
01,07,01,0,24-May-2018 12:19:24,-0.9921,-0.22935,-0.10055,45.823,-7.07316666666667,-13.5265,488.3925
01,07,01,0,24-May-2018 12:19:25,-0.830525,-0.2942,-0.08395,98.734625,29.291125,2.561,538.732666666667
01,07,01,0,24-May-2018 12:19:25,-0.830525,-0.2942,-0.08395,98.734625,29.291125,2.561,538.732666666667
01,07,01,0,24-May-2018 12:19:25,-0.830525,-0.2942,-0.08395,98.734625,29.291125,2.561,538.732666666667
01,07,01,0,24-May-2018 12:19:25,-0.830525,-0.2942,-0.08395,98.734625,29.291125,2.561,538.732666666667
01,07,01,0,24-May-2018 12:19:26,-0.95378,-0.20764,-0.2527,68.7398333333333,26.26,14.8981666666667,607.251
01,07,01,0,24-May-2018 12:19:26,-0.95378,-0.20764,-0.2527,68.7398333333333,26.26,14.8981666666667,607.251
01,07,01,0,24-May-2018 12:19:26,-0.95378,-0.20764,-0.2527,68.7398333333333,26.26,14.8981666666667,607.251
01,07,01,0,24-May-2018 12:19:26,-0.95378,-0.20764,-0.2527,68.7398333333333,26.26,14.8981666666667,607.251
01,07,01,0,24-May-2018 12:19:27,-0.925025,-0.20845,-0.135925,40.1586,-8.7926,5.1462,402.80525
01,07,01,0,24-May-2018 12:19:27,-0.925025,-0.20845,-0.135925,40.1586,-8.7926,5.1462,402.80525
01,07,01,0,24-May-2018 12:19:27,-0.925025,-0.20845,-0.135925,40.1586,-8.7926,5.1462,402.80525
01,07,01,0,24-May-2018 12:19:27,-0.925025,-0.20845,-0.135925,40.1586,-8.7926,5.1462,402.80525
01,07,01,0,24-May-2018 12:19:28,-0.8592,-0.2595,0.0037,3.354,12.195,-15.183,436.934
01,07,01,0,24-May-2018 12:19:28,-0.8592,-0.2595,0.0037,3.354,12.195,-15.183,436.934
01,07,01,0,24-May-2018 12:19:28,-0.8592,-0.2595,0.0037,3.354,12.195,-15.183,436.934
01,07,01,0,24-May-2018 12:19:28,-0.8592,-0.2595,0.0037,3.354,12.195,-15.183,436.934
01,07,01,0,24-May-2018 12:19:29,-0.974,-0.28092,-0.09338,-0.533250000000001,1.00625,-12.5,386.0745
01,07,01,0,24-May-2018 12:19:29,-0.974,-0.28092,-0.09338,-0.533250000000001,1.00625,-12.5,386.0745
01,07,01,0,24-May-2018 12:19:29,-0.974,-0.28092,-0.09338,-0.533250000000001,1.00625,-12.5,386.0745
01,07,01,0,24-May-2018 12:19:29,-0.974,-0.28092,-0.09338,-0.533250000000001,1.00625,-12.5,386.0745
01,07,01,0,24-May-2018 12:19:30,-0.88926,-0.1671,-0.01096,-9.5366,-2.866,-16.5732,405.15375
01,07,01,0,24-May-2018 12:19:30,-0.88926,-0.1671,-0.01096,-9.5366,-2.866,-16.5732,405.15375
01,07,01,0,24-May-2018 12:19:30,-0.88926,-0.1671,-0.01096,-9.5366,-2.866,-16.5732,405.15375
01,07,01,0,24-May-2018 12:19:30,-0.88926,-0.1671,-0.01096,-9.5366,-2.866,-16.5732,405.15375
01,07,01,0,24-May-2018 12:19:31,-0.910114285714286,-0.192785714285714,-0.0958714285714286,-39.5468571428571,-7.779,-2.29085714285714,368.384333333333
01,07,01,0,24-May-2018 12:19:31,-0.910114285714286,-0.192785714285714,-0.0958714285714286,-39.5468571428571,-7.779,-2.29085714285714,368.384333333333
01,07,01,0,24-May-2018 12:19:31,-0.910114285714286,-0.192785714285714,-0.0958714285714286,-39.5468571428571,-7.779,-2.29085714285714,368.384333333333
01,07,01,0,24-May-2018 12:19:31,-0.910114285714286,-0.192785714285714,-0.0958714285714286,-39.5468571428571,-7.779,-2.29085714285714,368.384333333333
01,07,01,0,24-May-2018 12:19:32,-0.97535,-0.26785,-0.00913333333333333,-87.1323333333333,-7.56116666666667,18.6991666666667,512.5964
01,07,01,0,24-May-2018 12:19:32,-0.97535,-0.26785,-0.00913333333333333,-87.1323333333333,-7.56116666666667,18.6991666666667,512.5964
01,07,01,0,24-May-2018 12:19:32,-0.97535,-0.26785,-0.00913333333333333,-87.1323333333333,-7.56116666666667,18.6991666666667,512.5964
01,07,01,0,24-May-2018 12:19:32,-0.97535,-0.26785,-0.00913333333333333,-87.1323333333333,-7.56116666666667,18.6991666666667,512.5964
01,07,01,0,24-May-2018 12:19:33,-0.87895,-0.23965,-0.17405,-14.80175,-7.39325,-27.66775,426.132666666667
01,07,01,0,24-May-2018 12:19:33,-0.87895,-0.23965,-0.17405,-14.80175,-7.39325,-27.66775,426.132666666667
01,07,01,0,24-May-2018 12:19:33,-0.87895,-0.23965,-0.17405,-14.80175,-7.39325,-27.66775,426.132666666667
01,07,01,0,24-May-2018 12:19:33,-0.87895,-0.23965,-0.17405,-14.80175,-7.39325,-27.66775,426.132666666667
01,07,01,0,24-May-2018 12:19:34,-0.955483333333333,-0.267533333333333,-0.0723,-4.3536,-1.7682,0.743999999999998,363.2252
01,07,01,0,24-May-2018 12:19:34,-0.955483333333333,-0.267533333333333,-0.0723,-4.3536,-1.7682,0.743999999999998,363.2252
01,07,01,0,24-May-2018 12:19:34,-0.955483333333333,-0.267533333333333,-0.0723,-4.3536,-1.7682,0.743999999999998,363.2252
01,07,01,0,24-May-2018 12:19:34,-0.955483333333333,-0.267533333333333,-0.0723,-4.3536,-1.7682,0.743999999999998,363.2252
01,07,01,0,24-May-2018 12:19:35,-0.930514285714286,-0.237371428571429,-0.0932,-32.8965,-10.8028333333333,4.98983333333333,427.824
01,07,01,0,24-May-2018 12:19:35,-0.930514285714286,-0.237371428571429,-0.0932,-32.8965,-10.8028333333333,4.98983333333333,427.824
01,07,01,0,24-May-2018 12:19:35,-0.930514285714286,-0.237371428571429,-0.0932,-32.8965,-10.8028333333333,4.98983333333333,427.824
01,07,01,0,24-May-2018 12:19:35,-0.930514285714286,-0.237371428571429,-0.0932,-32.8965,-10.8028333333333,4.98983333333333,427.824
01,07,01,0,24-May-2018 12:19:36,-0.9107,-0.324633333333333,-0.1858,68.2395,24.2835,-12.1645,427.48425
01,07,01,0,24-May-2018 12:19:36,-0.9107,-0.324633333333333,-0.1858,68.2395,24.2835,-12.1645,427.48425
01,07,01,0,24-May-2018 12:19:36,-0.9107,-0.324633333333333,-0.1858,68.2395,24.2835,-12.1645,427.48425
01,07,01,0,24-May-2018 12:19:36,-0.9107,-0.324633333333333,-0.1858,68.2395,24.2835,-12.1645,427.48425
01,07,01,0,24-May-2018 12:19:37,-0.922866666666667,-0.3033,-0.184516666666667,76.3294,22.7806,8,590.54425
01,07,01,0,24-May-2018 12:19:37,-0.922866666666667,-0.3033,-0.184516666666667,76.3294,22.7806,8,590.54425
01,07,01,0,24-May-2018 12:19:37,-0.922866666666667,-0.3033,-0.184516666666667,76.3294,22.7806,8,590.54425
01,07,01,0,24-May-2018 12:19:37,-0.922866666666667,-0.3033,-0.184516666666667,76.3294,22.7806,8,590.54425
01,07,01,0,24-May-2018 12:19:38,-0.906966666666667,-0.3034,0.015,24.9302857142857,7.14285714285714,-18.1618571428571,495.476166666667
01,07,01,0,24-May-2018 12:19:38,-0.906966666666667,-0.3034,0.015,24.9302857142857,7.14285714285714,-18.1618571428571,495.476166666667
01,07,01,0,24-May-2018 12:19:38,-0.906966666666667,-0.3034,0.015,24.9302857142857,7.14285714285714,-18.1618571428571,495.476166666667
01,07,01,0,24-May-2018 12:19:38,-0.906966666666667,-0.3034,0.015,24.9302857142857,7.14285714285714,-18.1618571428571,495.476166666667
01,07,01,0,24-May-2018 12:19:39,-0.9287,-0.29625,-0.08165,21.5732,9.9392,28.0124,377.6245
01,07,01,0,24-May-2018 12:19:39,-0.9287,-0.29625,-0.08165,21.5732,9.9392,28.0124,377.6245
01,07,01,0,24-May-2018 12:19:39,-0.9287,-0.29625,-0.08165,21.5732,9.9392,28.0124,377.6245
01,07,01,0,24-May-2018 12:19:39,-0.9287,-0.29625,-0.08165,21.5732,9.9392,28.0124,377.6245
01,07,01,0,24-May-2018 12:19:40,-0.8916,-0.196775,0.000974999999999998,-11.5122,-3.317,-11.805,380.0894
01,07,01,0,24-May-2018 12:19:40,-0.8916,-0.196775,0.000974999999999998,-11.5122,-3.317,-11.805,380.0894
01,07,01,0,24-May-2018 12:19:40,-0.8916,-0.196775,0.000974999999999998,-11.5122,-3.317,-11.805,380.0894
01,07,01,0,24-May-2018 12:19:40,-0.8916,-0.196775,0.000974999999999998,-11.5122,-3.317,-11.805,380.0894
01,07,02,0,24-May-2018 12:20:08,-0.95788,-0.20958,-0.22746,88.305,8.3292,9.9754,535.284333333333
01,07,02,0,24-May-2018 12:20:08,-0.95788,-0.20958,-0.22746,88.305,8.3292,9.9754,535.284333333333
01,07,02,0,24-May-2018 12:20:08,-0.95788,-0.20958,-0.22746,88.305,8.3292,9.9754,535.284333333333
01,07,02,0,24-May-2018 12:20:08,-0.95788,-0.20958,-0.22746,88.305,8.3292,9.9754,535.284333333333
01,07,02,0,24-May-2018 12:20:09,-0.940985714285714,-0.0985428571428571,-0.0888142857142857,57.5244,8.6342,5.1586,469.729
01,07,02,0,24-May-2018 12:20:09,-0.940985714285714,-0.0985428571428571,-0.0888142857142857,57.5244,8.6342,5.1586,469.729
01,07,02,0,24-May-2018 12:20:09,-0.940985714285714,-0.0985428571428571,-0.0888142857142857,57.5244,8.6342,5.1586,469.729
01,07,02,0,24-May-2018 12:20:09,-0.940985714285714,-0.0985428571428571,-0.0888142857142857,57.5244,8.6342,5.1586,469.729
01,07,02,0,24-May-2018 12:20:10,-0.98425,-0.000599999999999998,-0.184725,-14.9288333333333,0.772333333333334,6.80883333333333,291.274
01,07,02,0,24-May-2018 12:20:10,-0.98425,-0.000599999999999998,-0.184725,-14.9288333333333,0.772333333333334,6.80883333333333,291.274
01,07,02,0,24-May-2018 12:20:10,-0.98425,-0.000599999999999998,-0.184725,-14.9288333333333,0.772333333333334,6.80883333333333,291.274
01,07,02,0,24-May-2018 12:20:10,-0.98425,-0.000599999999999998,-0.184725,-14.9288333333333,0.772333333333334,6.80883333333333,291.274
01,07,02,0,24-May-2018 12:20:11,-0.884416666666667,-0.0679833333333333,-0.05895,21.9581111111111,3.19088888888889,-22.9402222222222,412.324
01,07,02,0,24-May-2018 12:20:11,-0.884416666666667,-0.0679833333333333,-0.05895,21.9581111111111,3.19088888888889,-22.9402222222222,412.324
01,07,02,0,24-May-2018 12:20:11,-0.884416666666667,-0.0679833333333333,-0.05895,21.9581111111111,3.19088888888889,-22.9402222222222,412.324
01,07,02,0,24-May-2018 12:20:11,-0.884416666666667,-0.0679833333333333,-0.05895,21.9581111111111,3.19088888888889,-22.9402222222222,412.324
01,07,02,0,24-May-2018 12:20:12,-0.8634,-0.27345,-0.10435,27.92675,-3.9635,25.5185,368.203
01,07,02,0,24-May-2018 12:20:12,-0.8634,-0.27345,-0.10435,27.92675,-3.9635,25.5185,368.203
01,07,02,0,24-May-2018 12:20:12,-0.8634,-0.27345,-0.10435,27.92675,-3.9635,25.5185,368.203
01,07,02,0,24-May-2018 12:20:12,-0.8634,-0.27345,-0.10435,27.92675,-3.9635,25.5185,368.203
01,07,02,0,24-May-2018 12:20:13,-0.8634,-0.27345,-0.10435,27.92675,-3.9635,25.5185,368.203
01,07,02,0,24-May-2018 12:20:13,-0.8634,-0.27345,-0.10435,27.92675,-3.9635,25.5185,368.203
01,07,02,0,24-May-2018 12:20:13,-0.8634,-0.27345,-0.10435,27.92675,-3.9635,25.5185,368.203
01,07,02,0,24-May-2018 12:20:13,0,0,0,0,0,0,0
01,07,02,0,24-May-2018 12:20:14,-0.87928,-0.24864,-0.11042,81.9715,24.7966666666667,6.25016666666667,430.499
01,07,02,0,24-May-2018 12:20:14,-0.87928,-0.24864,-0.11042,81.9715,24.7966666666667,6.25016666666667,430.499
01,07,02,0,24-May-2018 12:20:14,-0.87928,-0.24864,-0.11042,81.9715,24.7966666666667,6.25016666666667,430.499
01,07,02,0,24-May-2018 12:20:14,-0.87928,-0.24864,-0.11042,81.9715,24.7966666666667,6.25016666666667,430.499
01,07,02,0,24-May-2018 12:20:15,-0.943342857142857,-0.238042857142857,-0.131657142857143,60.1084444444444,11.6666666666667,12.0731111111111,335.969
01,07,02,0,24-May-2018 12:20:15,-0.943342857142857,-0.238042857142857,-0.131657142857143,60.1084444444444,11.6666666666667,12.0731111111111,335.969
01,07,02,0,24-May-2018 12:20:15,-0.943342857142857,-0.238042857142857,-0.131657142857143,60.1084444444444,11.6666666666667,12.0731111111111,335.969
01,07,02,0,24-May-2018 12:20:15,-0.943342857142857,-0.238042857142857,-0.131657142857143,60.1084444444444,11.6666666666667,12.0731111111111,335.969
01,07,02,0,24-May-2018 12:20:16,-0.934666666666667,-0.373083333333333,-0.102533333333333,9.29966666666667,3.58733333333333,12.8863333333333,338.474
01,07,02,0,24-May-2018 12:20:16,-0.934666666666667,-0.373083333333333,-0.102533333333333,9.29966666666667,3.58733333333333,12.8863333333333,338.474
01,07,02,0,24-May-2018 12:20:16,-0.934666666666667,-0.373083333333333,-0.102533333333333,9.29966666666667,3.58733333333333,12.8863333333333,338.474
01,07,02,0,24-May-2018 12:20:16,-0.934666666666667,-0.373083333333333,-0.102533333333333,9.29966666666667,3.58733333333333,12.8863333333333,338.474
01,07,02,0,24-May-2018 12:20:17,-0.88775,-0.247433333333333,-0.0435333333333333,43.2318,13.427,-4.122,448.924
01,07,02,0,24-May-2018 12:20:17,-0.88775,-0.247433333333333,-0.0435333333333333,43.2318,13.427,-4.122,448.924
01,07,02,0,24-May-2018 12:20:17,-0.88775,-0.247433333333333,-0.0435333333333333,43.2318,13.427,-4.122,448.924
01,07,02,0,24-May-2018 12:20:17,-0.88775,-0.247433333333333,-0.0435333333333333,43.2318,13.427,-4.122,448.924
01,07,02,0,24-May-2018 12:20:18,-0.879066666666667,-0.31785,-0.0274333333333333,37.7265714285714,7.83971428571429,-3.19714285714286,507.062
01,07,02,0,24-May-2018 12:20:18,-0.879066666666667,-0.31785,-0.0274333333333333,37.7265714285714,7.83971428571429,-3.19714285714286,507.062
01,07,02,0,24-May-2018 12:20:18,-0.879066666666667,-0.31785,-0.0274333333333333,37.7265714285714,7.83971428571429,-3.19714285714286,507.062
01,07,02,0,24-May-2018 12:20:18,-0.879066666666667,-0.31785,-0.0274333333333333,37.7265714285714,7.83971428571429,-3.19714285714286,507.062
01,07,02,0,24-May-2018 12:20:19,-0.91042,-0.217,-0.16388,65.2033333333333,14.3496666666667,15.122,597.38925
01,07,02,0,24-May-2018 12:20:19,-0.91042,-0.217,-0.16388,65.2033333333333,14.3496666666667,15.122,597.38925
01,07,02,0,24-May-2018 12:20:19,-0.91042,-0.217,-0.16388,65.2033333333333,14.3496666666667,15.122,597.38925
01,07,02,0,24-May-2018 12:20:19,-0.91042,-0.217,-0.16388,65.2033333333333,14.3496666666667,15.122,597.38925
01,07,02,0,24-May-2018 12:20:20,-0.906128571428572,-0.291871428571429,-0.0864428571428571,46.1205,1.19675,-1.051625,426.749
01,07,02,0,24-May-2018 12:20:20,-0.906128571428572,-0.291871428571429,-0.0864428571428571,46.1205,1.19675,-1.051625,426.749
01,07,02,0,24-May-2018 12:20:20,-0.906128571428572,-0.291871428571429,-0.0864428571428571,46.1205,1.19675,-1.051625,426.749
01,07,02,0,24-May-2018 12:20:20,-0.906128571428572,-0.291871428571429,-0.0864428571428571,46.1205,1.19675,-1.051625,426.749
01,07,02,0,24-May-2018 12:20:21,-0.930275,-0.263575,-0.0964,-15.1421666666667,6.23966666666667,-0.0203333333333321,375.8445
01,07,02,0,24-May-2018 12:20:21,-0.930275,-0.263575,-0.0964,-15.1421666666667,6.23966666666667,-0.0203333333333321,375.8445
01,07,02,0,24-May-2018 12:20:21,-0.930275,-0.263575,-0.0964,-15.1421666666667,6.23966666666667,-0.0203333333333321,375.8445
01,07,02,0,24-May-2018 12:20:21,-0.930275,-0.263575,-0.0964,-15.1421666666667,6.23966666666667,-0.0203333333333321,375.8445
01,07,02,0,24-May-2018 12:20:22,-0.93955,-0.255916666666667,-0.02995,-4.55283333333333,6.64633333333333,-6.321,378.534333333333
01,07,02,0,24-May-2018 12:20:22,-0.93955,-0.255916666666667,-0.02995,-4.55283333333333,6.64633333333333,-6.321,378.534333333333
01,07,02,0,24-May-2018 12:20:22,-0.93955,-0.255916666666667,-0.02995,-4.55283333333333,6.64633333333333,-6.321,378.534333333333
01,07,02,0,24-May-2018 12:20:22,-0.93955,-0.255916666666667,-0.02995,-4.55283333333333,6.64633333333333,-6.321,378.534333333333
01,07,02,0,24-May-2018 12:20:23,-0.961925,-0.2843,0.063375,64.8986666666667,-17.439,-4.106,411.308333333333
01,07,02,0,24-May-2018 12:20:23,-0.961925,-0.2843,0.063375,64.8986666666667,-17.439,-4.106,411.308333333333
01,07,02,0,24-May-2018 12:20:23,-0.961925,-0.2843,0.063375,64.8986666666667,-17.439,-4.106,411.308333333333
01,07,02,0,24-May-2018 12:20:23,-0.961925,-0.2843,0.063375,64.8986666666667,-17.439,-4.106,411.308333333333
01,07,02,0,24-May-2018 12:20:24,-0.859616666666667,-0.238916666666667,0.0451,43.0662857142857,25.6011428571429,-14.4861428571429,520.777333333333
01,07,02,0,24-May-2018 12:20:24,-0.859616666666667,-0.238916666666667,0.0451,43.0662857142857,25.6011428571429,-14.4861428571429,520.777333333333
01,07,02,0,24-May-2018 12:20:24,-0.859616666666667,-0.238916666666667,0.0451,43.0662857142857,25.6011428571429,-14.4861428571429,520.777333333333
01,07,02,0,24-May-2018 12:20:24,-0.859616666666667,-0.238916666666667,0.0451,43.0662857142857,25.6011428571429,-14.4861428571429,520.777333333333
01,07,02,0,24-May-2018 12:20:25,-0.905785714285714,-0.218414285714286,-0.128714285714286,52.82025,7.9575,-0.73175,376.665
01,07,02,0,24-May-2018 12:20:25,-0.905785714285714,-0.218414285714286,-0.128714285714286,52.82025,7.9575,-0.73175,376.665
01,07,02,0,24-May-2018 12:20:25,-0.905785714285714,-0.218414285714286,-0.128714285714286,52.82025,7.9575,-0.73175,376.665
01,07,02,0,24-May-2018 12:20:25,-0.905785714285714,-0.218414285714286,-0.128714285714286,52.82025,7.9575,-0.73175,376.665
01,07,02,0,24-May-2018 12:20:26,-0.94885,-0.1716,-0.046975,0.762333333333333,-1.40266666666667,-10.2336666666667,337.561
01,07,02,0,24-May-2018 12:20:26,-0.94885,-0.1716,-0.046975,0.762333333333333,-1.40266666666667,-10.2336666666667,337.561
01,07,02,0,24-May-2018 12:20:26,-0.94885,-0.1716,-0.046975,0.762333333333333,-1.40266666666667,-10.2336666666667,337.561
01,07,02,0,24-May-2018 12:20:26,-0.94885,-0.1716,-0.046975,0.762333333333333,-1.40266666666667,-10.2336666666667,337.561
01,07,02,0,24-May-2018 12:20:27,-0.88686,-0.2563,-0.04418,14.6594,-0.5732,17.866,425.701333333333
01,07,02,0,24-May-2018 12:20:27,-0.88686,-0.2563,-0.04418,14.6594,-0.5732,17.866,425.701333333333
01,07,02,0,24-May-2018 12:20:27,-0.88686,-0.2563,-0.04418,14.6594,-0.5732,17.866,425.701333333333
01,07,02,0,24-May-2018 12:20:27,-0.88686,-0.2563,-0.04418,14.6594,-0.5732,17.866,425.701333333333
01,07,02,0,24-May-2018 12:20:28,-0.972116666666667,-0.272516666666667,-0.04515,11.533,2.97914285714286,14.3815714285714,462.430333333333
01,07,02,0,24-May-2018 12:20:28,-0.972116666666667,-0.272516666666667,-0.04515,11.533,2.97914285714286,14.3815714285714,462.430333333333
01,07,02,0,24-May-2018 12:20:28,-0.972116666666667,-0.272516666666667,-0.04515,11.533,2.97914285714286,14.3815714285714,462.430333333333
01,07,02,0,24-May-2018 12:20:28,-0.972116666666667,-0.272516666666667,-0.04515,11.533,2.97914285714286,14.3815714285714,462.430333333333
01,07,02,0,24-May-2018 12:20:29,-0.968116666666667,-0.2927,0.0160333333333333,101.565,24.126,-5.10166666666667,641.864666666667
01,07,02,0,24-May-2018 12:20:29,-0.968116666666667,-0.2927,0.0160333333333333,101.565,24.126,-5.10166666666667,641.864666666667
01,07,02,0,24-May-2018 12:20:29,-0.968116666666667,-0.2927,0.0160333333333333,101.565,24.126,-5.10166666666667,641.864666666667
01,07,02,0,24-May-2018 12:20:29,-0.968116666666667,-0.2927,0.0160333333333333,101.565,24.126,-5.10166666666667,641.864666666667
01,07,02,0,24-May-2018 12:20:30,-0.9386,-0.2161,-0.140825,97.8134285714286,16.5505714285714,-1.41985714285714,698.9645
01,07,02,0,24-May-2018 12:20:30,-0.9386,-0.2161,-0.140825,97.8134285714286,16.5505714285714,-1.41985714285714,698.9645
01,07,02,0,24-May-2018 12:20:30,-0.9386,-0.2161,-0.140825,97.8134285714286,16.5505714285714,-1.41985714285714,698.9645
01,07,02,0,24-May-2018 12:20:30,-0.9386,-0.2161,-0.140825,97.8134285714286,16.5505714285714,-1.41985714285714,698.9645
01,07,02,0,24-May-2018 12:20:31,-0.9236,-0.222075,-0.053125,15.2437142857143,5.98414285714286,-11.9861428571429,403.7232
01,07,02,0,24-May-2018 12:20:31,-0.9236,-0.222075,-0.053125,15.2437142857143,5.98414285714286,-11.9861428571429,403.7232
01,07,02,0,24-May-2018 12:20:31,-0.9236,-0.222075,-0.053125,15.2437142857143,5.98414285714286,-11.9861428571429,403.7232
01,07,02,0,24-May-2018 12:20:31,-0.9236,-0.222075,-0.053125,15.2437142857143,5.98414285714286,-11.9861428571429,403.7232
01,07,02,0,24-May-2018 12:20:32,-0.975066666666667,-0.206683333333333,-0.0775833333333333,15.7315,2.82,-20.7925,367.119
01,07,02,0,24-May-2018 12:20:32,-0.975066666666667,-0.206683333333333,-0.0775833333333333,15.7315,2.82,-20.7925,367.119
01,07,02,0,24-May-2018 12:20:32,-0.975066666666667,-0.206683333333333,-0.0775833333333333,15.7315,2.82,-20.7925,367.119
01,07,02,0,24-May-2018 12:20:32,-0.975066666666667,-0.206683333333333,-0.0775833333333333,15.7315,2.82,-20.7925,367.119
01,07,02,0,24-May-2018 12:20:33,-0.97634,-0.23214,-0.04406,-30.3746666666667,3.54683333333333,12.7235,345.233666666667
01,07,02,0,24-May-2018 12:20:33,-0.97634,-0.23214,-0.04406,-30.3746666666667,3.54683333333333,12.7235,345.233666666667
01,07,02,0,24-May-2018 12:20:33,-0.97634,-0.23214,-0.04406,-30.3746666666667,3.54683333333333,12.7235,345.233666666667
01,07,02,0,24-May-2018 12:20:33,-0.97634,-0.23214,-0.04406,-30.3746666666667,3.54683333333333,12.7235,345.233666666667
01,07,02,0,24-May-2018 12:20:34,-0.89475,-0.23785,-0.0766,15.5366,-2.5974,-11.817,372.56175
01,07,02,0,24-May-2018 12:20:34,-0.89475,-0.23785,-0.0766,15.5366,-2.5974,-11.817,372.56175
01,07,02,0,24-May-2018 12:20:34,-0.89475,-0.23785,-0.0766,15.5366,-2.5974,-11.817,372.56175
01,07,02,0,24-May-2018 12:20:34,-0.89475,-0.23785,-0.0766,15.5366,-2.5974,-11.817,372.56175
01,07,02,0,24-May-2018 12:20:35,-0.98008,-0.1826,-0.05854,-110.83425,-23.59775,3.53625,383.463
01,07,02,0,24-May-2018 12:20:35,-0.98008,-0.1826,-0.05854,-110.83425,-23.59775,3.53625,383.463
01,07,02,0,24-May-2018 12:20:35,-0.98008,-0.1826,-0.05854,-110.83425,-23.59775,3.53625,383.463
01,07,02,0,24-May-2018 12:20:35,-0.98008,-0.1826,-0.05854,-110.83425,-23.59775,3.53625,383.463
01,07,02,0,24-May-2018 12:20:36,-0.85535,-0.274425,-0.016475,-66.90575,3.38425,11.997,555.6072
01,07,02,0,24-May-2018 12:20:36,-0.85535,-0.274425,-0.016475,-66.90575,3.38425,11.997,555.6072
01,07,02,0,24-May-2018 12:20:36,-0.85535,-0.274425,-0.016475,-66.90575,3.38425,11.997,555.6072
01,07,02,0,24-May-2018 12:20:36,-0.85535,-0.274425,-0.016475,-66.90575,3.38425,11.997,555.6072
01,07,02,0,24-May-2018 12:20:37,-0.925825,-0.24965,-0.10595,-15.8885714285714,1.04542857142857,21.9774285714286,386.204
01,07,02,0,24-May-2018 12:20:37,-0.925825,-0.24965,-0.10595,-15.8885714285714,1.04542857142857,21.9774285714286,386.204
01,07,02,0,24-May-2018 12:20:37,-0.925825,-0.24965,-0.10595,-15.8885714285714,1.04542857142857,21.9774285714286,386.204
01,07,02,0,24-May-2018 12:20:37,-0.925825,-0.24965,-0.10595,-15.8885714285714,1.04542857142857,21.9774285714286,386.204
01,07,02,0,24-May-2018 12:20:38,-0.93948,-0.17476,0.00604,-13.4756666666667,3.29266666666667,-28.4248333333333,418.867666666667
