ax,ay,az,dpitch,droll,dyaw,heart,time_1,time_2,time_3,time_4,time_5,time_6,w,x,y,z
0.01,0.017,-0.002,0.2,-0.7,1.2,0,2018,5,16,19,7,29.985,-0.2435,0.1164,0.4744,-0.8378
0.007,0.019,0.004,-0.1,-0.7,1.1,0,2018,5,16,19,7,30.006,-0.2434,0.1162,0.4745,-0.8378
0.01,0.018,0.005,-0.7,-2.1,0.7,0,2018,5,16,19,7,30.01,-0.2431,0.1161,0.4747,-0.8378
0.013,0.03,0.003,-1.2,-4.2,0.3,0,2018,5,16,19,7,30.049,-0.2429,0.1162,0.475,-0.8377
0.017,0.026,-0.003,-1.2,-5.4,0.8,0,2018,5,16,19,7,30.068,-0.2426,0.1165,0.4755,-0.8374
0.022,0.03,0,-0.6,-6.3,1.2,0,2018,5,16,19,7,30.072,-0.2423,0.1167,0.4762,-0.8371
0.025,0.016,-0.015,-0.1,-6.8,1.6,0,2018,5,16,19,7,30.111,-0.2421,0.117,0.4771,-0.8366
0.023,-0.001,-0.015,1.1,-4.6,1.4,0,2018,5,16,19,7,30.132,-0.2416,0.117,0.4782,-0.8361
0.018,0.004,-0.009,2.3,-1.6,1.1,0,2018,5,16,19,7,30.136,-0.2411,0.1168,0.479,-0.8358
0.015,0.01,-0.015,3.3,1.4,1.7,0,2018,5,16,19,7,30.155,-0.2407,0.1163,0.4791,-0.836
0.022,-0.008,-0.027,4.5,5.8,2.1,0,2018,5,16,19,7,30.175,-0.2404,0.1155,0.4789,-0.8363
0.017,0.003,-0.004,5.6,10.4,1.7,0,2018,5,16,19,7,30.213,-0.2399,0.1142,0.4782,-0.837
0.003,0.024,0.026,4,9.8,1.5,0,2018,5,16,19,7,30.233,-0.2397,0.1128,0.4766,-0.8382
-0.002,0.039,0.025,0.8,4.7,1,0,2018,5,16,19,7,30.237,-0.2396,0.1117,0.4753,-0.839
0.005,0.034,0.02,-1.2,-2.4,0,0,2018,5,16,19,7,30.253,-0.2396,0.1115,0.4747,-0.8394
0.005,0.036,0.007,-2.3,-6.7,0,0,2018,5,16,19,7,30.275,-0.2394,0.1119,0.4749,-0.8393
0.011,0.015,-0.004,-2.2,-7.4,0.5,0,2018,5,16,19,7,30.294,-0.2392,0.1125,0.4757,-0.8388
0.017,0.006,-0.016,-1.7,-5.1,1,0,2018,5,16,19,7,30.315,-0.239,0.1129,0.4766,-0.8383
0.017,0.01,-0.008,-0.9,-3.2,1,0,2018,5,16,19,7,30.337,-0.2388,0.1131,0.4773,-0.838
0.018,0.012,-0.004,-0.7,-2.1,1,0,2018,5,16,19,7,30.358,-0.2387,0.1133,0.4775,-0.8379
0.016,0.012,-0.009,-0.1,-1.6,1.1,0,2018,5,16,19,7,30.378,-0.2384,0.1133,0.4779,-0.8377
0.019,0.012,-0.007,0.3,-1.3,1.1,0,2018,5,16,19,7,30.398,-0.2382,0.1132,0.4781,-0.8377
0.016,0.011,-0.003,0.7,-0.6,1,0,2018,5,16,19,7,30.419,-0.2378,0.113,0.4785,-0.8376
0.012,0.011,-0.009,0.9,-0.1,1,0,2018,5,16,19,7,30.436,-0.2375,0.1127,0.4786,-0.8376
0.012,0.014,-0.006,0.8,0.3,0.9,0,2018,5,16,19,7,30.455,-0.2371,0.1124,0.4788,-0.8377
0.006,0.022,-0.001,0.2,1.1,0.7,1023,2018,5,16,19,7,30.477,-0.2369,0.1121,0.4786,-0.8379
0.007,0.028,0.01,-0.7,0.7,0,1023,2018,5,16,19,7,30.496,-0.2367,0.112,0.4784,-0.8381
0.007,0.02,0.011,-1.3,-1.7,-0.6,1023,2018,5,16,19,7,30.514,-0.2363,0.1119,0.4784,-0.8382
0.017,0.012,0.002,-1.6,-2.1,-0.8,1023,2018,5,16,19,7,30.553,-0.236,0.1122,0.4784,-0.8382
0.018,0.011,0,-1.3,-1.1,-0.8,1023,2018,5,16,19,7,30.573,-0.2356,0.1126,0.4786,-0.8382
0.02,0.009,0,-1.2,-0.5,-0.7,1023,2018,5,16,19,7,30.577,-0.2352,0.1128,0.4786,-0.8383
0.018,0.021,0,-1.2,-1,-0.7,1023,2018,5,16,19,7,30.598,-0.2349,0.1132,0.4783,-0.8385
0.02,0.025,-0.001,-0.9,-1.4,-0.1,1023,2018,5,16,19,7,30.618,-0.2345,0.1134,0.4783,-0.8386
0.014,0.032,0.003,-0.5,-2,0.7,1023,2018,5,16,19,7,30.655,-0.2343,0.1135,0.4784,-0.8386
0.013,0.026,-0.006,-0.9,-3.1,1.4,1023,2018,5,16,19,7,30.676,-0.2341,0.1135,0.4786,-0.8385
0.015,0.007,-0.004,-0.7,-2.7,1.4,0,2018,5,16,19,7,30.681,-0.234,0.1136,0.4789,-0.8383
0.014,0,0,-0.6,-1.8,0.7,0,2018,5,16,19,7,30.7,-0.234,0.1138,0.4791,-0.8382
0.01,0.016,0.004,-0.3,-1.3,0,0,2018,5,16,19,7,30.722,-0.2336,0.1138,0.4794,-0.8381
0.008,0.039,0.013,-1.5,-1.3,-0.5,0,2018,5,16,19,7,30.738,-0.2334,0.1139,0.4792,-0.8383
0.015,0.005,-0.003,-2.2,-4,-1.6,0,2018,5,16,19,7,30.757,-0.233,0.1142,0.4794,-0.8382
0.022,-0.008,-0.011,-1.3,-4.3,-3,0,2018,5,16,19,7,30.777,-0.2323,0.1149,0.4802,-0.8379
0.019,0.008,-0.012,-0.4,-2.4,-2.8,0,2018,5,16,19,7,30.798,-0.2315,0.1156,0.4805,-0.8379
0.016,0.021,-0.005,0.5,0.1,-1.3,0,2018,5,16,19,7,30.82,-0.2308,0.1158,0.4805,-0.838
0.017,0.033,0.002,0.6,1.1,0,0,2018,5,16,19,7,30.859,-0.2304,0.1157,0.4801,-0.8384
0.013,0.038,0.005,0.1,-0.3,1.5,0,2018,5,16,19,7,30.879,-0.2302,0.1155,0.48,-0.8385
0.013,0.024,0,-0.4,-1.9,1.7,0,2018,5,16,19,7,30.883,-0.23,0.1153,0.4802,-0.8385
0.016,0.004,0.003,-0.3,-2.2,1.4,0,2018,5,16,19,7,30.9,-0.2298,0.1151,0.4806,-0.8383
0.019,0.001,-0.004,-0.5,-1.2,0.7,0,2018,5,16,19,7,30.938,-0.2297,0.1153,0.4808,-0.8382
0.016,0.007,-0.003,-0.4,0.5,0.5,0,2018,5,16,19,7,30.942,-0.2295,0.1154,0.4806,-0.8384
0.013,0.02,0,0,1.1,0.5,0,2018,5,16,19,7,30.959,-0.2293,0.1154,0.4802,-0.8386
0.014,0.023,-0.001,-0.3,-0.2,0.7,0,2018,5,16,19,7,30.979,-0.2291,0.1153,0.4801,-0.8388
0.013,0.023,-0.003,-0.5,-1.3,0.7,0,2018,5,16,19,7,30.997,-0.2288,0.1151,0.4803,-0.8388
0.014,0.02,-0.005,-0.6,-1.8,0.6,0,2018,5,16,19,7,31.037,-0.2285,0.1152,0.4805,-0.8388
0.012,0.014,-0.007,0,-0.9,1.1,0,2018,5,16,19,7,31.057,-0.2283,0.1152,0.4806,-0.8387
0.012,0.014,0.008,0.1,-0.2,1.1,0,2018,5,16,19,7,31.062,-0.2281,0.1151,0.4807,-0.8388
0.012,0.015,0,0.1,-0.1,1.1,0,2018,5,16,19,7,31.08,-0.2278,0.1148,0.4808,-0.8388
0.015,0.011,-0.004,0,-0.9,0.9,0,2018,5,16,19,7,31.119,-0.2276,0.1146,0.4808,-0.8388
0.02,0.007,-0.007,0.3,-0.3,0.6,0,2018,5,16,19,7,31.138,-0.2273,0.1146,0.4811,-0.8388
0.012,0.021,-0.002,0.3,0.8,0.8,0,2018,5,16,19,7,31.145,-0.2271,0.1145,0.4808,-0.839
0.009,0.025,-0.002,0.4,1.2,1,0,2018,5,16,19,7,31.16,-0.2268,0.1141,0.4808,-0.8392
0.01,0.022,0.001,0,0.6,1,0,2018,5,16,19,7,31.18,-0.2266,0.1138,0.4806,-0.8394
0.015,0.014,0.001,-0.3,-0.6,0.7,0,2018,5,16,19,7,31.199,-0.2265,0.1138,0.4804,-0.8395
0.013,0.016,0.004,-0.2,-1.1,0.7,0,2018,5,16,19,7,31.238,-0.2263,0.1138,0.4804,-0.8396
0.011,0.026,0.001,-0.3,-1.4,0.8,0,2018,5,16,19,7,31.258,-0.2262,0.1138,0.4803,-0.8397
0.015,0.01,-0.009,-0.1,-1.8,0.7,0,2018,5,16,19,7,31.263,-0.2261,0.1139,0.4803,-0.8397
0.015,0.015,-0.004,0,-0.8,0.8,1023,2018,5,16,19,7,31.284,-0.2258,0.1139,0.4806,-0.8396
0.009,0.029,0.007,-0.4,-1.6,0.5,1023,2018,5,16,19,7,31.304,-0.2256,0.1138,0.4805,-0.8397
0.013,0.006,0,-0.7,-3.1,0.5,1023,2018,5,16,19,7,31.322,-0.2253,0.1139,0.4809,-0.8396
0.021,0.005,-0.009,-0.2,-2.4,0.2,1023,2018,5,16,19,7,31.342,-0.225,0.1141,0.4812,-0.8394
0.017,0.004,-0.005,0.7,-0.3,0.4,1023,2018,5,16,19,7,31.38,-0.2246,0.1141,0.4815,-0.8394
0.015,0.011,-0.004,1.4,1.2,0.7,1023,2018,5,16,19,7,31.4,-0.2242,0.1138,0.4815,-0.8395
0.009,0.027,0.001,1.4,1.5,1.3,1023,2018,5,16,19,7,31.404,-0.224,0.1135,0.4812,-0.8398
0.009,0.029,0.001,0.4,0.8,1.4,1023,2018,5,16,19,7,31.42,-0.2238,0.1131,0.4808,-0.8401
0.009,0.01,0.004,-0.1,-1.1,0.8,1023,2018,5,16,19,7,31.458,-0.2238,0.1129,0.4807,-0.8402
0.008,0.013,0.003,-0.4,-1.3,0.5,1023,2018,5,16,19,7,31.479,-0.2235,0.1129,0.4807,-0.8402
0.01,0.02,-0.002,-0.8,-0.1,0.5,0,2018,5,16,19,7,31.483,-0.2233,0.1128,0.481,-0.8402
0.016,0.013,-0.004,-0.7,0.1,0.5,0,2018,5,16,19,7,31.505,-0.2232,0.1129,0.4807,-0.8403
0.017,0.022,-0.003,-0.9,0.3,0.2,0,2018,5,16,19,7,31.525,-0.223,0.1129,0.4807,-0.8404
0.012,0.013,0.002,-0.9,0,0.2,0,2018,5,16,19,7,31.564,-0.2227,0.113,0.4805,-0.8406
0.015,0.018,0.004,-0.6,-0.4,0.2,0,2018,5,16,19,7,31.582,-0.2223,0.1129,0.4807,-0.8406
0.015,0.019,0.006,-0.4,-0.6,0.7,0,2018,5,16,19,7,31.587,-0.2221,0.1129,0.4807,-0.8407
0.011,0.036,0.006,-0.6,-1.3,1,0,2018,5,16,19,7,31.605,-0.222,0.1129,0.4806,-0.8408
0.013,0.024,0.003,-1.1,-3.9,0.7,0,2018,5,16,19,7,31.625,-0.2219,0.1131,0.4806,-0.8407
0.017,0.002,-0.004,-1.2,-5.1,0.2,0,2018,5,16,19,7,31.643,-0.2217,0.1135,0.481,-0.8405
0.026,-0.009,-0.024,-0.1,-2.7,0,0,2018,5,16,19,7,31.663,-0.2214,0.114,0.4816,-0.8402
0.025,-0.009,-0.024,1.5,2.7,0.4,0,2018,5,16,19,7,31.684,-0.2209,0.114,0.4818,-0.8402
0.012,0.02,0,2.6,6.3,0.8,0,2018,5,16,19,7,31.704,-0.2206,0.1136,0.481,-0.8408
0.007,0.031,0.01,1.9,4.6,0.8,0,2018,5,16,19,7,31.725,-0.2204,0.1129,0.48,-0.8415
0.006,0.04,0.012,0.6,1.6,0.3,0,2018,5,16,19,7,31.744,-0.2202,0.1124,0.4793,-0.842
0.009,0.023,0.005,-0.6,-1.6,0,0,2018,5,16,19,7,31.782,-0.22,0.1124,0.479,-0.8422
0.013,0.017,-0.002,-0.9,-2.4,0,0,2018,5,16,19,7,31.802,-0.2197,0.1126,0.4792,-0.8422
0.012,0.019,0.004,-0.7,-1.2,0.4,0,2018,5,16,19,7,31.806,-0.2196,0.1128,0.4792,-0.8422
0.011,0.022,-0.003,-0.6,-0.9,0.7,0,2018,5,16,19,7,31.828,-0.2193,0.1127,0.4794,-0.8421
0.017,0.011,-0.001,-0.6,-0.9,0.6,0,2018,5,16,19,7,31.846,-0.2191,0.1128,0.4794,-0.8422
0.014,0.016,0,-0.7,-1.5,0,0,2018,5,16,19,7,31.865,-0.2189,0.1129,0.4796,-0.8421
0.011,0.016,0.005,-0.9,-1.6,-0.3,0,2018,5,16,19,7,31.885,-0.2187,0.1131,0.4795,-0.8422
0.011,0.023,0.004,-1,-2,-0.6,0,2018,5,16,19,7,31.906,-0.2183,0.1133,0.4797,-0.8422
0.014,0.013,-0.006,-1.1,-2.3,-1,0,2018,5,16,19,7,31.927,-0.2179,0.1135,0.4799,-0.8421
0.015,0,-0.011,-0.6,-1.2,-1.4,0,2018,5,16,19,7,31.946,-0.2173,0.1138,0.4803,-0.842
0.017,-0.001,-0.007,0.3,1,-1.8,0,2018,5,16,19,7,31.966,-0.2167,0.114,0.4804,-0.8421
0.013,0.006,-0.004,0.7,3.3,-1.4,0,2018,5,16,19,7,31.986,-0.2162,0.114,0.48,-0.8424
0.012,0.01,-0.002,1.1,5.1,-1.6,0,2018,5,16,19,7,32.006,-0.2157,0.1138,0.4792,-0.843
0.014,0.025,-0.001,0.9,6.2,-1.7,0,2018,5,16,19,7,32.045,-0.2152,0.1136,0.4782,-0.8438
0.011,0.031,0.004,0.3,4.4,-1.6,0,2018,5,16,19,7,32.066,-0.2147,0.1134,0.4772,-0.8445
0.011,0.034,0.004,-0.6,1.6,-1.3,0,2018,5,16,19,7,32.07,-0.2144,0.1134,0.4762,-0.8451
0.013,0.029,0.007,-1.2,-0.5,-1.1,0,2018,5,16,19,7,32.085,-0.2139,0.1135,0.4761,-0.8453
0.016,0.016,0.002,-1.5,-1.5,-0.8,1023,2018,5,16,19,7,32.122,-0.2135,0.1138,0.476,-0.8454
0.018,0.013,-0.005,-1.4,-1.4,-0.5,1023,2018,5,16,19,7,32.142,-0.2131,0.1141,0.4761,-0.8454
0.018,0.016,-0.005,-1.2,-1.3,-0.3,1023,2018,5,16,19,7,32.146,-0.2128,0.1144,0.4762,-0.8454
0.017,0.018,-0.009,-0.8,-0.9,0,1023,2018,5,16,19,7,32.167,-0.2125,0.1147,0.4763,-0.8454
0.016,0.017,-0.003,0,0,0,1023,2018,5,16,19,7,32.187,-0.2121,0.1148,0.4763,-0.8455
0.014,0.015,-0.009,0,0,0,1023,2018,5,16,19,7,32.227,-0.2118,0.1148,0.4762,-0.8456
0.012,0.022,-0.005,0,0.3,0.5,1023,2018,5,16,19,7,32.246,-0.2117,0.115,0.4758,-0.8459
0.012,0.022,-0.003,0.2,-0.1,0.7,1023,2018,5,16,19,7,32.251,-0.2115,0.1149,0.4754,-0.8461
0.015,0.022,-0.004,0.1,-0.7,0.9,1023,2018,5,16,19,7,32.288,-0.2114,0.1148,0.4753,-0.8462
0.013,0.014,-0.003,0.1,-1.1,0.8,1023,2018,5,16,19,7,32.307,-0.2113,0.1148,0.4752,-0.8463
0.012,0.018,0.002,0.4,-1,1,0,2018,5,16,19,7,32.311,-0.2111,0.1148,0.4752,-0.8463
0.013,0.015,0,0,-1.2,0.8,0,2018,5,16,19,7,32.33,-0.2109,0.1147,0.4753,-0.8463
0.011,0.015,-0.002,-0.2,-0.8,0.7,0,2018,5,16,19,7,32.351,-0.2108,0.1147,0.4752,-0.8464
0.01,0.02,0.003,-0.4,-1.1,0.6,0,2018,5,16,19,7,32.369,-0.2105,0.1146,0.4755,-0.8464
0.014,0.018,-0.008,-0.7,-1.3,0.5,0,2018,5,16,19,7,32.387,-0.2103,0.1147,0.4756,-0.8463
0.015,0.021,-0.001,-0.4,-1.1,1,0,2018,5,16,19,7,32.428,-0.2102,0.1148,0.4755,-0.8464
0.016,0.02,-0.004,-0.1,-0.9,1.3,0,2018,5,16,19,7,32.446,-0.21,0.1148,0.4757,-0.8463
0.014,0.015,0,-0.2,-1,1.3,0,2018,5,16,19,7,32.451,-0.2099,0.1147,0.4758,-0.8463
0.013,0.019,-0.002,-0.2,-1.5,1,0,2018,5,16,19,7,32.469,-0.2097,0.1146,0.476,-0.8462
0.012,0.014,0,-0.2,-1.9,0.8,0,2018,5,16,19,7,32.489,-0.2095,0.1145,0.4763,-0.8462
0.015,0.012,-0.007,0.1,-1.5,0.8,0,2018,5,16,19,7,32.527,-0.2094,0.1146,0.4764,-0.8461
0.012,0.012,-0.007,0.6,-0.4,0.7,0,2018,5,16,19,7,32.547,-0.2092,0.1146,0.4765,-0.8461
0.008,0.012,0,0.7,0,0.1,0,2018,5,16,19,7,32.552,-0.2088,0.1144,0.4765,-0.8462
0.007,0.024,0.017,0.2,-1.1,-0.2,0,2018,5,16,19,7,32.569,-0.2085,0.1143,0.4764,-0.8464
0.009,0.021,0.007,-0.4,-2.1,-0.2,0,2018,5,16,19,7,32.606,-0.2081,0.1142,0.4766,-0.8463
0.015,0.021,-0.001,-0.6,-2.3,0.1,0,2018,5,16,19,7,32.628,-0.2079,0.1144,0.4768,-0.8463
0.014,0.015,-0.004,-0.6,-1.6,0.4,0,2018,5,16,19,7,32.632,-0.2076,0.1146,0.477,-0.8462
0.015,0.018,-0.002,-0.4,-1.5,0.6,0,2018,5,16,19,7,32.652,-0.2074,0.1146,0.4772,-0.8462
0.014,0.018,0,-0.3,-1.2,1,0,2018,5,16,19,7,32.671,-0.2072,0.1147,0.4772,-0.8462
0.015,0.02,-0.004,0,-1.2,1.5,0,2018,5,16,19,7,32.709,-0.207,0.1146,0.4775,-0.8461
0.016,0.016,-0.001,0.4,-0.5,1.9,0,2018,5,16,19,7,32.729,-0.207,0.1145,0.4774,-0.8461
0.016,0.014,-0.007,0.6,0,2,0,2018,5,16,19,7,32.733,-0.2069,0.1143,0.4774,-0.8462
0.015,0.008,-0.002,1,0.3,1.7,0,2018,5,16,19,7,32.753,-0.2069,0.1141,0.4773,-0.8463
0.011,0.013,0.005,1.1,0.8,1.8,0,2018,5,16,19,7,32.769,-0.2068,0.1138,0.4771,-0.8465
0.012,0.022,0.001,0.7,0.8,1.6,0,2018,5,16,19,7,32.808,-0.2068,0.1134,0.4768,-0.8467
0.009,0.015,0,-0.5,-0.1,0.8,0,2018,5,16,19,7,32.812,-0.2067,0.1132,0.4767,-0.8468
0.016,0.023,-0.005,-0.7,-0.1,0.8,0,2018,5,16,19,7,32.83,-0.2066,0.1133,0.4765,-0.8469
0.015,0.017,-0.002,0,0.1,0.8,0,2018,5,16,19,7,32.85,-0.2064,0.1133,0.4763,-0.8471
0.013,0.022,-0.004,0.9,0.5,1.3,0,2018,5,16,19,7,32.87,-0.2062,0.1132,0.4763,-0.8472
0.01,0.026,0.001,0.9,0.7,1.5,0,2018,5,16,19,7,32.91,-0.206,0.1128,0.4762,-0.8473
0.011,0.015,0.009,0.5,0.6,1.6,0,2018,5,16,19,7,32.931,-0.2059,0.1124,0.4762,-0.8474
0.008,0.018,0.011,-0.3,-0.6,1.5,1023,2018,5,16,19,7,32.935,-0.2058,0.1123,0.476,-0.8475
0.008,0.024,0.008,-1.1,-2.3,1.4,1023,2018,5,16,19,7,32.953,-0.2058,0.1121,0.4762,-0.8474
0.014,0.019,-0.011,-1,-3.3,1.3,1023,2018,5,16,19,7,32.993,-0.2058,0.1123,0.4765,-0.8473
0.016,0.015,-0.008,-0.6,-2,1.4,1023,2018,5,16,19,7,33.012,-0.2057,0.1124,0.4769,-0.847
0.014,0.016,-0.004,-0.1,-0.9,1.7,1023,2018,5,16,19,7,33.016,-0.2056,0.1124,0.4771,-0.847
0.012,0.02,-0.005,0,-0.9,1.9,1023,2018,5,16,19,7,33.031,-0.2056,0.1124,0.477,-0.847
0.013,0.016,-0.001,0.3,-0.9,2.1,1023,2018,5,16,19,7,33.051,-0.2056,0.1122,0.4771,-0.847
0.008,0.018,-0.002,0,-0.3,2.1,1023,2018,5,16,19,7,33.071,-0.2056,0.1119,0.4772,-0.847
0.01,0.008,-0.008,-0.2,-0.1,2,1023,2018,5,16,19,7,33.106,-0.2056,0.1118,0.4772,-0.8469
0.012,0.012,-0.001,0.1,0.5,1.9,0,2018,5,16,19,7,33.128,-0.2056,0.1116,0.4772,-0.847
0.015,0.021,0.001,0.3,0.9,1.6,0,2018,5,16,19,7,33.132,-0.2055,0.1113,0.4771,-0.8471
0.016,0.024,0.002,0,0.2,1.1,0,2018,5,16,19,7,33.171,-0.2054,0.1111,0.477,-0.8472
0.011,0.011,0.007,-0.1,-0.9,0.2,0,2018,5,16,19,7,33.191,-0.2052,0.111,0.477,-0.8473
0.008,0.013,0.004,-0.7,0.6,-0.5,0,2018,5,16,19,7,33.195,-0.2049,0.111,0.477,-0.8473
0.008,0.02,0.003,-1.9,2.4,-1,0,2018,5,16,19,7,33.215,-0.2047,0.1112,0.4765,-0.8476
0.006,0.024,0.027,-4.1,-3,-2,0,2018,5,16,19,7,33.253,-0.2044,0.1117,0.4762,-0.8478
-0.001,0.025,0.037,-7.7,-10.5,-1.9,0,2018,5,16,19,7,33.257,-0.2043,0.1128,0.4765,-0.8475
0.013,0.088,0.015,-7.1,-15.7,0.3,0,2018,5,16,19,7,33.274,-0.2043,0.1144,0.4777,-0.8466
0.014,0,-0.029,-6.6,-15.2,0.2,0,2018,5,16,19,7,33.311,-0.2043,0.1159,0.4797,-0.8453
0.036,-0.027,-0.059,-3.1,-4.1,1.3,0,2018,5,16,19,7,33.332,-0.2042,0.1172,0.4816,-0.8441
0.023,-0.004,-0.011,-0.7,0.9,1.4,0,2018,5,16,19,7,33.336,-0.2041,0.1175,0.482,-0.8438
0.012,0.008,0.003,0,1.7,1.2,0,2018,5,16,19,7,33.355,-0.204,0.1174,0.4817,-0.844
0.011,0.013,-0.004,0.1,0.9,0.7,0,2018,5,16,19,7,33.375,-0.2039,0.1172,0.4814,-0.8442
0.015,0.017,0,0.6,1.1,0.7,0,2018,5,16,19,7,33.396,-0.2038,0.1172,0.4811,-0.8445
0.014,0.023,0,0.4,0.4,0.8,0,2018,5,16,19,7,33.416,-0.2036,0.117,0.4807,-0.8447
0.015,0.019,-0.006,0,0.4,0.8,0,2018,5,16,19,7,33.456,-0.2033,0.1168,0.4808,-0.8448
0.013,0.024,0,-0.2,0,0.8,0,2018,5,16,19,7,33.475,-0.2032,0.1168,0.4805,-0.845
0.013,0.017,0.003,-0.4,-1.2,1,0,2018,5,16,19,7,33.479,-0.2032,0.1169,0.4802,-0.8451
0.014,0.016,0.007,-0.2,-1.7,1,0,2018,5,16,19,7,33.493,-0.2031,0.1169,0.4804,-0.8451
0.013,0.02,-0.004,-0.1,-1.4,1.2,0,2018,5,16,19,7,33.535,-0.203,0.1169,0.4804,-0.8451
0.012,0.015,-0.001,-0.4,-0.9,1.1,0,2018,5,16,19,7,33.539,-0.203,0.1169,0.4804,-0.8451
0.015,0.014,-0.005,-0.2,-0.3,0.7,0,2018,5,16,19,7,33.554,-0.2029,0.1169,0.4804,-0.8451
0.014,0.015,-0.001,-0.1,-0.6,0.3,0,2018,5,16,19,7,33.593,-0.2027,0.117,0.4802,-0.8452
0.012,0.02,0.003,-0.5,-0.7,0.5,0,2018,5,16,19,7,33.613,-0.2025,0.117,0.4802,-0.8453
0.013,0.015,-0.007,-0.9,-1.2,0.4,0,2018,5,16,19,7,33.617,-0.2024,0.1171,0.4802,-0.8453
0.011,0.01,0.01,-0.7,-1.2,-0.3,0,2018,5,16,19,7,33.655,-0.2023,0.1173,0.4801,-0.8454
0.008,0.025,0.012,-2.2,-5.4,-0.5,0,2018,5,16,19,7,33.675,-0.202,0.1176,0.4804,-0.8452
0.01,0.037,0.017,-2,-7.6,-0.2,0,2018,5,16,19,7,33.679,-0.2018,0.1182,0.4808,-0.845
0.013,0.031,-0.007,-1.5,-7.7,0.9,0,2018,5,16,19,7,33.697,-0.2016,0.1187,0.4817,-0.8444
0.02,0.015,-0.027,0,-1.7,2,0,2018,5,16,19,7,33.714,-0.2015,0.119,0.4824,-0.844
0.021,-0.006,-0.017,1.7,2.2,1.9,0,2018,5,16,19,7,33.754,-0.2014,0.1188,0.4825,-0.844
0.015,-0.002,0.001,2.2,1.1,0.7,0,2018,5,16,19,7,33.776,-0.2013,0.1185,0.4821,-0.8443
0.008,0.014,0.016,1.7,-1,-0.3,1023,2018,5,16,19,7,33.78,-0.2008,0.118,0.4822,-0.8444
0.016,0.022,0.002,1.4,-0.2,0,1023,2018,5,16,19,7,33.799,-0.2004,0.1178,0.4822,-0.8446
0.016,0.029,-0.002,1.2,-0.9,0.7,1023,2018,5,16,19,7,33.819,-0.2,0.1175,0.4822,-0.8447
0.012,0.027,-0.009,1.1,-1.9,0.8,1023,2018,5,16,19,7,33.838,-0.1996,0.1173,0.4825,-0.8446
0.011,0.018,-0.009,0.9,-1.5,1.3,1023,2018,5,16,19,7,33.858,-0.1995,0.1171,0.4827,-0.8446
0.009,0.014,-0.003,0.6,-0.6,0.8,1023,2018,5,16,19,7,33.898,-0.1993,0.117,0.4828,-0.8446
0.01,0.009,0.002,0.6,-0.4,0.5,1023,2018,5,16,19,7,33.917,-0.199,0.1167,0.483,-0.8446
0.009,0.017,0.006,0.1,-0.5,0.7,1023,2018,5,16,19,7,33.921,-0.1988,0.1166,0.4829,-0.8447
0.011,0.007,0.003,0,0,0,1023,2018,5,16,19,7,33.94,-0.1987,0.1166,0.4828,-0.8448
0.009,0.027,0.004,-0.2,-0.9,0.2,0,2018,5,16,19,7,33.958,-0.1985,0.1166,0.4826,-0.845
0.012,0.034,0,-0.6,-3.1,0.4,0,2018,5,16,19,7,33.978,-0.1982,0.1167,0.4828,-0.8449
0.02,0.015,-0.015,-0.7,-2.9,1,0,2018,5,16,19,7,34.018,-0.198,0.1169,0.4832,-0.8447
0.016,0.017,-0.02,0,-0.6,1.9,0,2018,5,16,19,7,34.022,-0.1981,0.1171,0.4832,-0.8447
0.017,0.013,-0.001,0.2,0.9,2.3,0,2018,5,16,19,7,34.036,-0.1981,0.1169,0.4831,-0.8447
0.014,0.018,0.004,0.3,1.2,2.4,0,2018,5,16,19,7,34.073,-0.1981,0.1167,0.483,-0.8448
0.023,0.024,-0.02,0.4,0.5,2.4,0,2018,5,16,19,7,34.092,-0.1982,0.1164,0.4828,-0.845
0.015,0.027,0.013,0,-0.2,1.9,0,2018,5,16,19,7,34.095,-0.1982,0.1163,0.4827,-0.845
0.009,0.014,0.003,0.1,-1.5,2.1,0,2018,5,16,19,7,34.131,-0.1983,0.1161,0.4827,-0.845
0.013,0.016,-0.002,-0.2,-2.6,1.4,0,2018,5,16,19,7,34.15,-0.1983,0.116,0.483,-0.8449
0.009,0.007,-0.005,-0.1,-1.6,1,0,2018,5,16,19,7,34.159,-0.1982,0.116,0.4832,-0.8448
0.011,0.007,-0.008,0,-0.7,0.3,0,2018,5,16,19,7,34.194,-0.1981,0.1161,0.4831,-0.8448
0.015,0.015,-0.003,0,0,0,0,2018,5,16,19,7,34.213,-0.1979,0.1161,0.4831,-0.8449
0.015,0.018,-0.002,0.4,0,0.9,0,2018,5,16,19,7,34.216,-0.1976,0.1159,0.4832,-0.8449
0.014,0.019,-0.001,0.4,0.6,1.3,0,2018,5,16,19,7,34.255,-0.1974,0.1158,0.4831,-0.845
0.013,0.025,0,0.1,0.1,1.3,0,2018,5,16,19,7,34.275,-0.1974,0.1156,0.4829,-0.8452
0.01,0.023,0,-0.2,-0.4,1.1,0,2018,5,16,19,7,34.279,-0.1973,0.1155,0.4829,-0.8452
0.011,0.017,0.001,-0.8,-0.3,1,0,2018,5,16,19,7,34.317,-0.1973,0.1155,0.4827,-0.8453
0.008,0.014,0.011,-0.9,-1.5,0.5,0,2018,5,16,19,7,34.338,-0.1973,0.1156,0.4826,-0.8454
0.011,0.016,0.001,-1,-2.2,0.5,0,2018,5,16,19,7,34.342,-0.1972,0.1158,0.4826,-0.8454
0.014,0.024,-0.006,-0.8,-2.3,0.4,0,2018,5,16,19,7,34.378,-0.197,0.1159,0.483,-0.8452
0.021,0.013,-0.014,-0.7,-0.4,0.5,0,2018,5,16,19,7,34.381,-0.1968,0.1161,0.4831,-0.8451
0.012,0.018,0.001,-0.6,-1,0.6,0,2018,5,16,19,7,34.398,-0.1967,0.1162,0.4831,-0.8451
0.013,0.011,0,-0.1,-1.2,0.5,0,2018,5,16,19,7,34.433,-0.1964,0.1162,0.4834,-0.845
0.016,0.017,0.001,-0.1,-0.9,0.6,0,2018,5,16,19,7,34.453,-0.1962,0.1161,0.4835,-0.845
0.02,0.004,-0.02,0.1,0,0.8,0,2018,5,16,19,7,34.456,-0.196,0.1161,0.4836,-0.845
0.014,0.009,-0.019,1.8,4.9,0.3,0,2018,5,16,19,7,34.493,-0.1958,0.1161,0.4833,-0.8452
0.004,0.019,0.027,1,4.8,-0.3,0,2018,5,16,19,7,34.513,-0.1955,0.1156,0.4824,-0.8459
-0.003,0.037,0.043,-2.5,-4,-1.4,0,2018,5,16,19,7,34.521,-0.1953,0.1156,0.4818,-0.8463
0.008,0.034,0.018,-4.1,-8.3,-1.1,0,2018,5,16,19,7,34.555,-0.1951,0.1163,0.4823,-0.8459
0.014,0.021,0.004,-4.5,-8.5,-0.2,0,2018,5,16,19,7,34.578,-0.195,0.1173,0.4831,-0.8454
0.014,0.021,-0.006,-4.2,-7.9,0.5,0,2018,5,16,19,7,34.581,-0.195,0.1183,0.4839,-0.8447
0.016,0.021,-0.013,-3.2,-6.2,1,0,2018,5,16,19,7,34.616,-0.1951,0.1191,0.4848,-0.8441
0.016,0.016,-0.024,-1.8,-4,1.4,0,2018,5,16,19,7,34.634,-0.1951,0.1197,0.4854,-0.8437
0.017,0.005,-0.016,-0.3,-1.8,1.6,1023,2018,5,16,19,7,34.639,-0.195,0.1199,0.4859,-0.8434
0.015,0,0,0.4,-0.2,1.4,1023,2018,5,16,19,7,34.672,-0.1949,0.1198,0.4862,-0.8433
0.014,0.002,-0.002,0,0,1.5,1023,2018,5,16,19,7,34.693,-0.1949,0.1196,0.4862,-0.8433
0.017,0.023,-0.004,-0.1,0.4,1.6,1023,2018,5,16,19,7,34.698,-0.1948,0.1195,0.4862,-0.8433
0.011,0.012,-0.005,0.8,0,0.7,1023,2018,5,16,19,7,34.733,-0.1947,0.1194,0.4862,-0.8434
0.016,0.009,-0.007,0.9,2.7,0.7,1023,2018,5,16,19,7,34.754,-0.1945,0.1193,0.486,-0.8436
0.014,0.017,0,1.1,4.5,0.7,1023,2018,5,16,19,7,34.759,-0.1944,0.119,0.4853,-0.8441
0.008,0.042,0.023,0.1,1.7,0.7,1023,2018,5,16,19,7,34.797,-0.1943,0.1187,0.4844,-0.8446
0.007,0.036,0.016,-1.1,-2,0.8,1023,2018,5,16,19,7,34.818,-0.1943,0.1186,0.484,-0.8448
0.011,0.024,0.007,-1.7,-4.6,0.8,0,2018,5,16,19,7,34.821,-0.1944,0.119,0.4839,-0.8448
0.014,0.01,-0.007,-1.8,-4.4,1,0,2018,5,16,19,7,34.86,-0.1944,0.1193,0.4845,-0.8444
0.015,0.01,-0.009,-1.1,-2.4,1,0,2018,5,16,19,7,34.863,-0.1944,0.1197,0.4849,-0.8442
0.012,0.013,-0.009,-0.6,-0.9,1.1,0,2018,5,16,19,7,34.881,-0.1944,0.1199,0.485,-0.8441
0.016,0.019,-0.006,0.3,0.4,1.1,0,2018,5,16,19,7,34.914,-0.1942,0.1197,0.4852,-0.844
0.017,0.018,-0.004,0.8,-0.1,1.3,0,2018,5,16,19,7,34.935,-0.1941,0.1196,0.485,-0.8441
0.012,0.015,0,0.9,-0.6,1.4,0,2018,5,16,19,7,34.94,-0.194,0.1194,0.4851,-0.8441
0.01,0.013,0,0.9,0,1.4,0,2018,5,16,19,7,34.973,-0.1939,0.1192,0.4852,-0.8442
0.013,0.017,0.002,0.6,-0.4,1.1,0,2018,5,16,19,7,34.993,-0.1937,0.1189,0.4852,-0.8442
0.011,0.017,0.002,0.4,-1,1.3,0,2018,5,16,19,7,35.013,-0.1936,0.1187,0.4853,-0.8442
0.013,0.015,-0.008,0.5,-1.1,1.5,0,2018,5,16,19,7,35.023,-0.1935,0.1186,0.4854,-0.8442
0.019,-0.002,-0.014,1.1,2.1,1.8,0,2018,5,16,19,7,35.061,-0.1934,0.1184,0.4855,-0.8442
0.013,0.011,0.001,1.3,3.4,0.8,0,2018,5,16,19,7,35.079,-0.1933,0.118,0.485,-0.8446
0.01,0.026,0.021,1.2,-0.1,-0.2,0,2018,5,16,19,7,35.082,-0.1931,0.1177,0.4844,-0.845
0.005,0.044,0.03,-1,-6.7,-0.6,0,2018,5,16,19,7,35.117,-0.1928,0.1179,0.4845,-0.845
0.013,0.033,-0.001,-1.7,-8.1,0.4,0,2018,5,16,19,7,35.137,-0.1926,0.1183,0.4853,-0.8445
0.013,0.022,-0.013,-1.6,-5.9,1.4,0,2018,5,16,19,7,35.141,-0.1925,0.1186,0.4863,-0.8439
0.016,0.006,0,-1.6,-8.5,1.1,0,2018,5,16,19,7,35.174,-0.1925,0.1191,0.4871,-0.8434
0.014,0.017,-0.009,-1.2,-7.5,1.9,0,2018,5,16,19,7,35.194,-0.1925,0.1196,0.4882,-0.8427
0.018,0.016,-0.018,0.3,-4.5,2.8,0,2018,5,16,19,7,35.204,-0.1925,0.1197,0.4891,-0.8422
0.022,-0.009,-0.026,2.2,-1,2.8,0,2018,5,16,19,7,35.239,-0.1925,0.1196,0.4897,-0.8418
0.018,0.003,-0.01,3.1,2.6,2,0,2018,5,16,19,7,35.258,-0.1924,0.1191,0.4897,-0.8419
0.018,0.015,0,3.4,3.4,1.9,0,2018,5,16,19,7,35.265,-0.1923,0.1185,0.489,-0.8424
0.017,0.018,0.001,3.2,2.6,1.9,0,2018,5,16,19,7,35.301,-0.1922,0.1178,0.4885,-0.8429
0.012,0.025,0.004,2.8,1.6,1.5,0,2018,5,16,19,7,35.323,-0.192,0.1172,0.4881,-0.8432
0.009,0.026,0.008,2.5,0.2,1.3,0,2018,5,16,19,7,35.325,-0.1917,0.1165,0.4881,-0.8434
0.009,0.027,0.002,1.4,-1.3,1.4,0,2018,5,16,19,7,35.361,-0.1916,0.1161,0.4881,-0.8435
0.014,0.017,-0.002,1.6,-1,1.5,0,2018,5,16,19,7,35.38,-0.1914,0.1158,0.4884,-0.8434
0.01,0.017,-0.002,1.3,-0.5,1.4,0,2018,5,16,19,7,35.384,-0.1912,0.1154,0.4884,-0.8434
0.011,0.013,0.005,0.9,-0.4,1.3,0,2018,5,16,19,7,35.418,-0.1911,0.1151,0.4885,-0.8435
0.011,0.016,0.003,0.7,-0.6,1.1,0,2018,5,16,19,7,35.438,-0.191,0.1149,0.4885,-0.8435
0.015,0.02,-0.001,0.4,-1,0.8,0,2018,5,16,19,7,35.443,-0.1909,0.1148,0.4885,-0.8436
0.017,0.019,-0.004,0,-1.2,1.1,0,2018,5,16,19,7,35.481,-0.1908,0.1148,0.4885,-0.8436
0.017,0.014,-0.008,0.1,-0.6,1.1,0,2018,5,16,19,7,35.501,-0.1907,0.1148,0.4887,-0.8435
0.012,0.016,-0.005,0.4,0.3,1.1,1023,2018,5,16,19,7,35.503,-0.1905,0.1146,0.4888,-0.8435
0.016,0.014,-0.01,-0.2,1.5,1.1,1023,2018,5,16,19,7,35.537,-0.1906,0.1147,0.4883,-0.8437
0.01,0.023,0.002,-0.3,1.1,0.1,1023,2018,5,16,19,7,35.56,-0.1906,0.1146,0.488,-0.8439
0.009,0.024,0.005,-1,-1,0.2,1023,2018,5,16,19,7,35.567,-0.1905,0.1147,0.4878,-0.8441
0.011,0.017,0,-1.2,-2,0.3,1023,2018,5,16,19,7,35.605,-0.1904,0.1149,0.4879,-0.844
0.01,0.02,-0.002,-1.2,-2,0.7,1023,2018,5,16,19,7,35.625,-0.1903,0.115,0.4882,-0.8438
0.013,0.019,-0.002,-0.7,-1.2,0.8,1023,2018,5,16,19,7,35.627,-0.1903,0.1152,0.4882,-0.8438
0.014,0.02,-0.006,-0.6,-1.2,1,1023,2018,5,16,19,7,35.661,-0.1903,0.1154,0.4882,-0.8438
0.018,0.02,-0.001,-0.1,-0.7,1.3,1023,2018,5,16,19,7,35.682,-0.1901,0.1154,0.4884,-0.8437
0.017,0.016,-0.005,0.3,-0.3,1.6,1023,2018,5,16,19,7,35.687,-0.1902,0.1154,0.4883,-0.8438
0.016,0.013,-0.002,0.6,0,1.4,0,2018,5,16,19,7,35.722,-0.1901,0.1153,0.4882,-0.8438
0.015,0.014,-0.003,0.4,0.4,1.2,0,2018,5,16,19,7,35.742,-0.19,0.1151,0.4882,-0.8439
0.015,0.022,0,0.5,0.8,1,0,2018,5,16,19,7,35.748,-0.19,0.115,0.4879,-0.8441
0.013,0.023,0,0.5,0.4,1.1,0,2018,5,16,19,7,35.784,-0.1899,0.1148,0.4878,-0.8442
0.013,0.021,-0.004,0,1.1,1.2,0,2018,5,16,19,7,35.804,-0.19,0.1148,0.4873,-0.8445
0.015,-0.002,-0.01,-0.7,3.3,1,0,2018,5,16,19,7,35.805,-0.19,0.1148,0.4869,-0.8447
0.008,0.015,0,-0.7,6,1.8,0,2018,5,16,19,7,35.846,-0.1902,0.1147,0.4861,-0.8451
-0.003,0.022,0.033,-1.3,1.4,0.3,0,2018,5,16,19,7,35.866,-0.1904,0.1145,0.4852,-0.8456
0,0.061,0.034,-3.9,-3.7,0.6,0,2018,5,16,19,7,35.871,-0.1906,0.1147,0.4848,-0.8458
0.016,0.026,-0.009,-4.5,-6.7,1.3,0,2018,5,16,19,7,35.906,-0.1908,0.1153,0.4853,-0.8454
0.018,0.003,-0.019,-3.2,-5.2,1.2,0,2018,5,16,19,7,35.926,-0.1909,0.116,0.4863,-0.8446
0.017,0.003,-0.006,-2,-3.4,0.8,0,2018,5,16,19,7,35.929,-0.1908,0.1165,0.4871,-0.8441
0.016,0.009,-0.007,-0.9,-1.5,0.6,0,2018,5,16,19,7,35.963,-0.1908,0.1168,0.4874,-0.844
0.017,0.013,-0.008,0.2,-0.1,0.8,0,2018,5,16,19,7,35.983,-0.1907,0.117,0.4873,-0.844
0.018,0.014,-0.008,1.2,0.9,0.9,0,2018,5,16,19,7,35.989,-0.1904,0.1167,0.4875,-0.844
0.018,0.019,-0.007,2,1.4,1,0,2018,5,16,19,7,36.024,-0.1902,0.1164,0.4873,-0.8442
0.015,0.01,-0.001,2,2.8,1.1,0,2018,5,16,19,7,36.046,-0.1901,0.1161,0.4869,-0.8445
0.008,0.023,0.012,1.7,2.6,0.8,0,2018,5,16,19,7,36.047,-0.19,0.1157,0.4863,-0.8449
0.01,0.03,0.013,0.8,0.1,0.8,0,2018,5,16,19,7,36.087,-0.1899,0.1154,0.4859,-0.8452
0.01,0.027,0.005,-0.2,-1.8,0.9,0,2018,5,16,19,7,36.107,-0.1898,0.1152,0.4858,-0.8453
0.013,0.019,-0.005,-0.1,-2.9,1,0,2018,5,16,19,7,36.111,-0.1897,0.1152,0.4861,-0.8451
0.012,0.011,-0.004,0,-1.9,0.8,0,2018,5,16,19,7,36.132,-0.1896,0.1153,0.4864,-0.845
0.014,0.01,-0.008,0,-0.1,0.7,0,2018,5,16,19,7,36.152,-0.1894,0.1152,0.4868,-0.8448
0.013,0.019,0.003,0,0,0,0,2018,5,16,19,7,36.188,-0.1893,0.1154,0.4864,-0.845
0.01,0.023,-0.001,0,-0.4,0.5,0,2018,5,16,19,7,36.208,-0.1892,0.1155,0.4861,-0.8452
0.017,0.023,0,0,-1.4,0.7,0,2018,5,16,19,7,36.212,-0.1891,0.1155,0.486,-0.8453
0.014,0.017,-0.001,0,-2,0.8,0,2018,5,16,19,7,36.228,-0.1889,0.1155,0.4863,-0.8452
0.014,0.012,-0.001,0.3,-0.9,0.8,0,2018,5,16,19,7,36.247,-0.1888,0.1155,0.4864,-0.8452
0.012,0.019,-0.003,0.3,-0.5,1,0,2018,5,16,19,7,36.28,-0.1887,0.1155,0.4863,-0.8452
0.015,0.022,-0.004,0.3,-0.3,1.2,0,2018,5,16,19,7,36.3,-0.1886,0.1153,0.4865,-0.8452
0.01,0.02,0,0.3,-0.2,0.8,0,2018,5,16,19,7,36.309,-0.1884,0.1151,0.4866,-0.8452
0.009,0.025,0.002,-0.1,-1.4,0.6,0,2018,5,16,19,7,36.344,-0.1883,0.115,0.4866,-0.8452
0.011,0.014,-0.006,-0.3,-1.5,0.7,0,2018,5,16,19,7,36.366,-0.1882,0.1151,0.4867,-0.8452
0.011,0.009,-0.004,-0.1,-0.6,0.8,0,2018,5,16,19,7,36.37,-0.1881,0.1152,0.4869,-0.8451
0.01,0.015,0.002,0,0,0,0,2018,5,16,19,7,36.406,-0.1879,0.1152,0.4869,-0.8451
0.011,0.017,-0.001,-0.6,-0.7,0.3,1023,2018,5,16,19,7,36.428,-0.1878,0.1152,0.4869,-0.8451
0.013,0.018,-0.001,-0.6,-1,0.3,1023,2018,5,16,19,7,36.433,-0.1878,0.1154,0.4869,-0.8451
0.012,0.017,0.003,-0.6,-0.6,0.4,1023,2018,5,16,19,7,36.45,-0.1876,0.1155,0.487,-0.8451
0.013,0.021,-0.001,-0.4,-0.7,0.2,1023,2018,5,16,19,7,36.471,-0.1875,0.1155,0.4871,-0.8451
0.016,0.023,0.003,-0.2,-0.6,0.3,1023,2018,5,16,19,7,36.506,-0.1873,0.1157,0.487,-0.8451
0.015,0.015,-0.003,-0.2,-0.3,0.6,1023,2018,5,16,19,7,36.526,-0.1872,0.1157,0.4871,-0.8451
0.013,0.018,0,-0.1,-0.1,0.7,1023,2018,5,16,19,7,36.529,-0.1871,0.1157,0.487,-0.8451
0.012,0.02,-0.002,0,-0.5,0.8,1023,2018,5,16,19,7,36.562,-0.1869,0.1157,0.487,-0.8452
0.015,0.016,0,-0.1,-0.6,0.7,1023,2018,5,16,19,7,36.581,-0.1868,0.1157,0.4871,-0.8452
0.015,0.018,-0.001,-0.1,-0.9,0.9,1023,2018,5,16,19,7,36.592,-0.1869,0.1158,0.4868,-0.8453
0.019,0.018,-0.001,0,-0.7,1,0,2018,5,16,19,7,36.629,-0.1867,0.1158,0.4869,-0.8453
0.015,0.016,-0.003,0,-0.2,0.7,0,2018,5,16,19,7,36.651,-0.1865,0.1157,0.4871,-0.8452
0.013,0.024,0.001,0,-0.1,0.8,0,2018,5,16,19,7,36.652,-0.1864,0.1156,0.487,-0.8453
0.011,0.023,-0.002,0.1,-0.6,0.9,0,2018,5,16,19,7,36.688,-0.1864,0.1157,0.4868,-0.8454
0.013,0.015,-0.002,0,-0.9,0.8,0,2018,5,16,19,7,36.707,-0.1864,0.1157,0.4867,-0.8455
0.013,0.012,0.001,0.3,-0.9,0.7,0,2018,5,16,19,7,36.71,-0.1862,0.1155,0.487,-0.8454
0.013,0.016,0,0,-0.7,0.6,0,2018,5,16,19,7,36.745,-0.186,0.1155,0.4872,-0.8453
0.014,0.021,-0.004,0.1,-0.4,0.6,0,2018,5,16,19,7,36.765,-0.1859,0.1155,0.4871,-0.8454
0.012,0.025,0,0,-0.3,0.5,0,2018,5,16,19,7,36.772,-0.1858,0.1155,0.4869,-0.8455
0.01,0.021,-0.001,0,-0.9,1,0,2018,5,16,19,7,36.806,-0.1858,0.1155,0.4868,-0.8456
0.012,0.019,-0.001,-0.3,-1.2,1,0,2018,5,16,19,7,36.825,-0.1858,0.1155,0.4868,-0.8456
0.01,0.021,0.006,-0.7,-1.3,1,0,2018,5,16,19,7,36.835,-0.1858,0.1156,0.4867,-0.8456
0.013,0.02,0.004,-1.3,-2.3,1,0,2018,5,16,19,7,36.873,-0.1858,0.1157,0.487,-0.8454
0.013,0.019,0.001,-1.8,-2.9,1,0,2018,5,16,19,7,36.893,-0.1859,0.116,0.487,-0.8453
0.018,0.015,0.002,-1.8,-2.6,1.1,0,2018,5,16,19,7,36.896,-0.1859,0.1164,0.4873,-0.8451
0.018,0.017,-0.008,-1.3,-2.7,1.3,0,2018,5,16,19,7,36.916,-0.186,0.1167,0.4876,-0.8449
0.014,0.015,-0.008,-0.7,-2,1.2,0,2018,5,16,19,7,36.936,-0.1861,0.1169,0.4877,-0.8448
0.018,0.014,-0.008,0,-1.1,1.3,0,2018,5,16,19,7,36.954,-0.1859,0.1169,0.4881,-0.8446
0.01,0.012,-0.007,0.3,-0.1,1.1,0,2018,5,16,19,7,36.975,-0.1858,0.1168,0.4884,-0.8445
0.011,0.017,-0.001,0.5,0.4,0.8,0,2018,5,16,19,7,37.012,-0.1857,0.1167,0.4883,-0.8446
0.013,0.019,0.001,0.6,0.1,1,0,2018,5,16,19,7,37.032,-0.1856,0.1166,0.4881,-0.8447
0.013,0.019,0.003,0.6,0.1,1.1,0,2018,5,16,19,7,37.037,-0.1855,0.1163,0.4881,-0.8448
0.011,0.018,0.002,0.4,0.1,1.3,0,2018,5,16,19,7,37.074,-0.1854,0.1161,0.4881,-0.8448
0.009,0.018,0.006,0.1,0,0.9,0,2018,5,16,19,7,37.094,-0.1853,0.1159,0.4881,-0.8449
0.011,0.024,0,0,-0.3,0.7,0,2018,5,16,19,7,37.095,-0.1852,0.1158,0.488,-0.8449
0.015,0.023,-0.001,0,-0.4,0.7,0,2018,5,16,19,7,37.13,-0.1851,0.1158,0.488,-0.845
0.016,0.014,-0.005,0.2,0.1,0.8,0,2018,5,16,19,7,37.151,-0.1851,0.1158,0.4878,-0.8451
0.016,0.017,0.001,0.4,0.3,0.9,0,2018,5,16,19,7,37.153,-0.185,0.1157,0.4877,-0.8452
0.017,0.02,-0.002,0.3,0.1,0.9,0,2018,5,16,19,7,37.188,-0.185,0.1156,0.4876,-0.8453
0.019,0.02,-0.002,-0.2,0.3,1,0,2018,5,16,19,7,37.209,-0.1849,0.1156,0.4873,-0.8454
0.017,0.02,0.003,-0.1,0.2,1,0,2018,5,16,19,7,37.217,-0.1849,0.1156,0.4873,-0.8455
0.013,0.021,0.004,0,-0.6,1.1,0,2018,5,16,19,7,37.238,-0.1848,0.1155,0.4873,-0.8455
0.015,0.011,-0.004,0,-0.8,1.2,0,2018,5,16,19,7,37.258,-0.1848,0.1155,0.4872,-0.8455
0.01,0.016,-0.003,0.3,-0.3,1,0,2018,5,16,19,7,37.296,-0.1847,0.1154,0.4873,-0.8455
0.01,0.014,-0.004,0.4,-0.2,1,0,2018,5,16,19,7,37.317,-0.1846,0.1153,0.4873,-0.8455
0.011,0.018,-0.004,0.5,0.1,1,1023,2018,5,16,19,7,37.321,-0.1846,0.1152,0.4872,-0.8457
0.011,0.018,-0.008,0.4,0.7,1.1,1023,2018,5,16,19,7,37.356,-0.1845,0.115,0.4872,-0.8457
0.012,0.018,0.005,0.4,0.9,1,1023,2018,5,16,19,7,37.359,-0.1844,0.1147,0.4871,-0.8458
0.012,0.021,0.005,0.3,0.6,0.8,1023,2018,5,16,19,7,37.376,-0.1843,0.1146,0.4868,-0.846
0.014,0.025,0.006,-0.2,-0.6,0.6,1023,2018,5,16,19,7,37.409,-0.1843,0.1146,0.4865,-0.8462
0.015,0.02,-0.002,-0.4,-1,1,1023,2018,5,16,19,7,37.43,-0.1843,0.1147,0.4864,-0.8463
0.016,0.024,-0.001,-0.6,-1.3,1,1023,2018,5,16,19,7,37.435,-0.1842,0.1147,0.4865,-0.8462
0.017,0.02,-0.003,-0.4,-1.3,1,1023,2018,5,16,19,7,37.471,-0.1842,0.1148,0.4866,-0.8461
0.014,0.018,-0.004,0,-0.6,1.1,1023,2018,5,16,19,7,37.492,-0.1841,0.1148,0.4868,-0.8461
0.015,0.014,-0.005,0.3,-0.4,1.5,0,2018,5,16,19,7,37.498,-0.184,0.1147,0.4869,-0.846
0.014,0.015,-0.001,0.6,0.3,1.3,0,2018,5,16,19,7,37.538,-0.1839,0.1145,0.4868,-0.8461
0.014,0.014,-0.006,1.1,0.4,1.1,0,2018,5,16,19,7,37.558,-0.1839,0.1144,0.4866,-0.8463
0.014,0.02,0.003,0.7,0.1,0.8,0,2018,5,16,19,7,37.562,-0.1838,0.1143,0.4864,-0.8464
0.009,0.021,0.005,0.2,-0.2,0.7,0,2018,5,16,19,7,37.581,-0.1838,0.1142,0.4862,-0.8465
0.017,0.023,0.002,-0.2,-0.9,0.7,0,2018,5,16,19,7,37.603,-0.1837,0.1141,0.4862,-0.8466
0.011,0.02,-0.002,-0.5,-1.5,1,0,2018,5,16,19,7,37.622,-0.1836,0.1141,0.4864,-0.8465
0.009,0.015,-0.006,-0.4,-1.3,0.8,0,2018,5,16,19,7,37.638,-0.1835,0.1141,0.4866,-0.8464
0.013,0.013,0,0,-0.7,0.8,0,2018,5,16,19,7,37.659,-0.1834,0.1141,0.4868,-0.8463
0.016,0.018,-0.007,0,-0.4,0.6,0,2018,5,16,19,7,37.678,-0.1832,0.1141,0.4871,-0.8462
0.01,0.018,0.001,0,-0.6,0.5,0,2018,5,16,19,7,37.713,-0.183,0.114,0.4873,-0.8461
0.014,0.018,0.001,-0.2,-0.6,0.7,0,2018,5,16,19,7,37.732,-0.1828,0.114,0.4873,-0.8461
0.013,0.018,0.002,0,-0.4,0.6,0,2018,5,16,19,7,37.739,-0.1827,0.114,0.4874,-0.8461
0.012,0.018,0.005,-0.2,-0.7,0.7,0,2018,5,16,19,7,37.772,-0.1827,0.1141,0.4872,-0.8462
0.014,0.018,0,-0.2,-1,0.6,0,2018,5,16,19,7,37.793,-0.1826,0.1142,0.4872,-0.8462
0.018,0.017,-0.001,-0.2,-1,0.6,0,2018,5,16,19,7,37.801,-0.1825,0.1142,0.4873,-0.8462
0.014,0.016,0,-0.2,-0.8,0.7,0,2018,5,16,19,7,37.836,-0.1823,0.1142,0.4875,-0.8461
0.012,0.02,0.003,-0.1,-0.7,0.8,0,2018,5,16,19,7,37.856,-0.1821,0.1141,0.4877,-0.846
0.017,0.019,0.002,0,-0.4,0.8,0,2018,5,16,19,7,37.859,-0.1821,0.1142,0.4875,-0.8461
0.015,0.018,0,0.2,-0.4,1.1,0,2018,5,16,19,7,37.898,-0.182,0.1142,0.4875,-0.8462
0.01,0.015,0,0.2,-0.6,0.9,0,2018,5,16,19,7,37.918,-0.1819,0.1141,0.4875,-0.8462
0.011,0.016,-0.003,0.4,-0.4,0.8,0,2018,5,16,19,7,37.922,-0.1818,0.114,0.4875,-0.8462
0.013,0.013,0.001,0.3,-0.5,0.8,0,2018,5,16,19,7,37.962,-0.1818,0.1139,0.4875,-0.8463
0.012,0.017,0,0,-0.6,0.6,0,2018,5,16,19,7,37.982,-0.1817,0.1139,0.4873,-0.8464
0.011,0.02,0,0,-0.8,0.7,0,2018,5,16,19,7,37.986,-0.1815,0.1139,0.4874,-0.8464
0.01,0.017,0.006,-0.1,-0.6,0.7,0,2018,5,16,19,7,38.004,-0.1814,0.1138,0.4875,-0.8463
0.014,0.016,0.003,-0.2,-0.9,0.6,0,2018,5,16,19,7,38.023,-0.1813,0.1138,0.4876,-0.8463
0.015,0.015,-0.001,-0.2,-0.7,0.5,0,2018,5,16,19,7,38.039,-0.1812,0.1139,0.4874,-0.8464
0.015,0.018,-0.001,-0.1,-0.8,0.5,0,2018,5,16,19,7,38.058,-0.1811,0.114,0.4874,-0.8465
0.016,0.014,0.001,-0.2,-0.6,0.2,0,2018,5,16,19,7,38.091,-0.181,0.1141,0.4873,-0.8465
0.016,0.016,0.001,-0.4,-0.9,0.3,0,2018,5,16,19,7,38.111,-0.1809,0.1142,0.4871,-0.8466
0.016,0.018,0,-0.2,-0.7,0.3,0,2018,5,16,19,7,38.121,-0.1809,0.1144,0.487,-0.8467
0.015,0.023,-0.004,-0.3,-1,0.7,0,2018,5,16,19,7,38.156,-0.1808,0.1145,0.487,-0.8467
0.013,0.018,-0.006,-0.1,-0.7,0.7,0,2018,5,16,19,7,38.177,-0.1807,0.1145,0.487,-0.8467
0.013,0.019,-0.003,0,-0.7,0.9,0,2018,5,16,19,7,38.182,-0.1805,0.1144,0.4871,-0.8467
0.014,0.008,-0.001,0.3,-0.2,1,1023,2018,5,16,19,7,38.218,-0.1804,0.1144,0.4872,-0.8467
0.008,0.017,-0.003,0.4,-0.2,0.9,1023,2018,5,16,19,7,38.241,-0.1804,0.1143,0.487,-0.8468
0.016,0.016,-0.004,0.4,0,0.8,1023,2018,5,16,19,7,38.246,-0.1803,0.1142,0.487,-0.8468
0.01,0.019,0.003,0.2,0,0.7,1023,2018,5,16,19,7,38.286,-0.1802,0.1141,0.487,-0.8469
0.011,0.022,0,0,-0.2,0.6,1023,2018,5,16,19,7,38.29,-0.1801,0.114,0.4869,-0.8469
0.011,0.02,0.001,-0.1,-0.9,0.6,1023,2018,5,16,19,7,38.307,-0.1799,0.114,0.4871,-0.8469
0.012,0.021,0.001,-0.2,-1.2,0.8,1023,2018,5,16,19,7,38.322,-0.1799,0.114,0.4871,-0.8469
0.018,0.016,-0.006,0,-1,1,1023,2018,5,16,19,7,38.359,-0.1797,0.114,0.4874,-0.8468
0.014,0.014,-0.002,0,-0.6,1.1,1023,2018,5,16,19,7,38.378,-0.1797,0.114,0.4874,-0.8468
0.014,0.013,0.001,0.2,-0.5,0.8,1023,2018,5,16,19,7,38.381,-0.1796,0.114,0.4873,-0.8468
0.013,0.016,-0.004,0.1,-0.2,0.6,0,2018,5,16,19,7,38.416,-0.1796,0.1141,0.4871,-0.847
0.015,0.021,0.001,0.1,-0.3,0.6,0,2018,5,16,19,7,38.435,-0.1795,0.1141,0.4869,-0.847
0.015,0.022,0,0.4,0,0.7,0,2018,5,16,19,7,38.444,-0.1793,0.114,0.487,-0.8471
0.013,0.023,0,0.3,-0.5,1,0,2018,5,16,19,7,38.477,-0.1793,0.114,0.4869,-0.8472
0.012,0.016,-0.002,0.1,-0.6,1,0,2018,5,16,19,7,38.499,-0.1791,0.1138,0.4871,-0.8471
0.01,0.014,0,0.1,-0.7,0.8,0,2018,5,16,19,7,38.506,-0.179,0.1138,0.4872,-0.8471
0.01,0.016,0,0,-0.9,0.7,0,2018,5,16,19,7,38.522,-0.1789,0.1136,0.4873,-0.847
0.011,0.023,-0.004,0.2,-1,0.7,0,2018,5,16,19,7,38.542,-0.1787,0.1136,0.4875,-0.847
0.014,0.02,-0.001,0.2,-1.3,0.9,0,2018,5,16,19,7,38.579,-0.1786,0.1135,0.4876,-0.8469
0.013,0.02,-0.003,0.3,-1.4,1.2,0,2018,5,16,19,7,38.6,-0.1785,0.1134,0.4878,-0.8468
0.012,0.017,-0.008,0.3,-1,1.2,0,2018,5,16,19,7,38.605,-0.1784,0.1133,0.4882,-0.8467
0.011,0.017,0.003,0.3,-0.9,1.1,0,2018,5,16,19,7,38.645,-0.1782,0.1132,0.4884,-0.8466
0.015,0.016,0.007,0,-1,1,0,2018,5,16,19,7,38.665,-0.1782,0.1132,0.4883,-0.8467
0.013,0.02,0,0,-1.5,0.8,0,2018,5,16,19,7,38.67,-0.1782,0.1131,0.4885,-0.8466
0.013,0.013,-0.006,-0.2,-1.2,1,0,2018,5,16,19,7,38.687,-0.1781,0.1131,0.4886,-0.8465
0.013,0.018,-0.006,0,-0.7,1,0,2018,5,16,19,7,38.707,-0.1781,0.1132,0.4884,-0.8466
0.015,0.018,0,0.1,-0.2,1.1,0,2018,5,16,19,7,38.74,-0.178,0.1131,0.4886,-0.8466
0.013,0.016,-0.001,0.2,-0.1,1.1,0,2018,5,16,19,7,38.76,-0.1779,0.113,0.4886,-0.8466
0.015,0.017,0,0,-0.2,1,0,2018,5,16,19,7,38.763,-0.1777,0.1128,0.4887,-0.8466
0.014,0.015,-0.003,0.1,-0.5,0.8,0,2018,5,16,19,7,38.798,-0.1777,0.1128,0.4886,-0.8466
0.012,0.018,0,0,-0.2,0.7,0,2018,5,16,19,7,38.819,-0.1776,0.1129,0.4885,-0.8467
0.011,0.02,0.002,0.1,-0.2,0.8,0,2018,5,16,19,7,38.825,-0.1775,0.1128,0.4885,-0.8467
0.014,0.016,0,0.2,-0.3,0.9,0,2018,5,16,19,7,38.86,-0.1775,0.1127,0.4884,-0.8468
0.011,0.015,0,0.2,-0.4,0.6,0,2018,5,16,19,7,38.881,-0.1773,0.1126,0.4884,-0.8468
0.011,0.02,-0.001,0.1,-0.4,0.7,0,2018,5,16,19,7,38.886,-0.1773,0.1126,0.4883,-0.8469
0.012,0.018,0,0,-0.1,0.8,0,2018,5,16,19,7,38.906,-0.1772,0.1126,0.4883,-0.847
0.013,0.02,0.005,-0.1,-0.5,0.9,0,2018,5,16,19,7,38.928,-0.177,0.1125,0.4884,-0.847
0.016,0.015,0.007,-0.1,-0.7,1,0,2018,5,16,19,7,38.944,-0.177,0.1125,0.4883,-0.847
0.016,0.018,0.002,-0.3,-0.7,0.9,0,2018,5,16,19,7,38.963,-0.1769,0.1125,0.4884,-0.847
0.014,0.018,-0.002,-0.1,-0.7,0.9,0,2018,5,16,19,7,38.999,-0.1769,0.1125,0.4883,-0.847
0.016,0.015,-0.005,0,-0.8,0.8,0,2018,5,16,19,7,39.018,-0.1768,0.1125,0.4885,-0.847
0.016,0.018,-0.005,0.2,-0.2,0.7,0,2018,5,16,19,7,39.027,-0.1766,0.1124,0.4885,-0.847
0.014,0.013,-0.005,0.3,0.1,0.8,0,2018,5,16,19,7,39.045,-0.1765,0.1124,0.4885,-0.847
0.011,0.015,-0.004,0.4,0.1,0.6,0,2018,5,16,19,7,39.065,-0.1765,0.1123,0.4883,-0.8471
0.009,0.017,0,0.2,0.5,0.5,0,2018,5,16,19,7,39.104,-0.1763,0.1122,0.4883,-0.8472
0.011,0.022,0.003,0,0.3,0.6,1023,2018,5,16,19,7,39.124,-0.1761,0.1121,0.4883,-0.8472
0.014,0.021,0,0,0.4,0.9,1023,2018,5,16,19,7,39.129,-0.1761,0.1121,0.4881,-0.8474
0.014,0.017,-0.001,-0.1,0.1,1,1023,2018,5,16,19,7,39.163,-0.1761,0.112,0.488,-0.8474
0.018,0.014,0,0,-0.2,1,1023,2018,5,16,19,7,39.182,-0.176,0.1119,0.488,-0.8475
0.014,0.019,0.002,0,-0.6,0.7,1023,2018,5,16,19,7,39.19,-0.1758,0.1118,0.4882,-0.8474
0.012,0.018,-0.003,0.3,-0.4,1.5,1023,2018,5,16,19,7,39.206,-0.1757,0.1117,0.4881,-0.8475
0.013,0.021,-0.002,0,-0.5,1.3,1023,2018,5,16,19,7,39.228,-0.1757,0.1117,0.4881,-0.8475
0.015,0.015,0.003,0.1,-0.9,1.3,1023,2018,5,16,19,7,39.249,-0.1757,0.1116,0.4881,-0.8475
0.014,0.011,0.005,0.1,-0.3,1.2,1023,2018,5,16,19,7,39.268,-0.1756,0.1115,0.4882,-0.8475
0.014,0.013,0.001,0.1,-0.1,1,0,2018,5,16,19,7,39.29,-0.1756,0.1114,0.4882,-0.8475
0.015,0.015,0,0.3,-0.2,0.6,0,2018,5,16,19,7,39.309,-0.1755,0.1114,0.4881,-0.8476
0.012,0.012,0,0.1,-0.2,0.5,0,2018,5,16,19,7,39.346,-0.1754,0.1114,0.4881,-0.8476
0.014,0.02,-0.007,0.3,0.1,0.5,0,2018,5,16,19,7,39.368,-0.1753,0.1115,0.4879,-0.8477
0.011,0.018,0,0,0,0,0,2018,5,16,19,7,39.372,-0.1752,0.1116,0.4876,-0.8479
0.013,0.021,0.005,0,0,0,0,2018,5,16,19,7,39.411,-0.1751,0.1117,0.4873,-0.8481
0.014,0.018,0.001,0.3,0.1,0.7,0,2018,5,16,19,7,39.428,-0.175,0.1117,0.4871,-0.8482
0.015,0.018,0.001,0,-0.4,0.5,0,2018,5,16,19,7,39.433,-0.1749,0.1117,0.487,-0.8483
0.011,0.017,0,-0.2,-0.9,0.4,0,2018,5,16,19,7,39.451,-0.1747,0.1117,0.4871,-0.8483
0.01,0.018,0.003,-0.4,-0.9,0.6,0,2018,5,16,19,7,39.471,-0.1747,0.1118,0.4871,-0.8483
0.008,0.019,0.002,-0.2,-1,0.7,0,2018,5,16,19,7,39.49,-0.1746,0.1118,0.4871,-0.8483
0.012,0.019,0,-0.2,-0.9,1,0,2018,5,16,19,7,39.511,-0.1746,0.1119,0.487,-0.8483
0.015,0.018,-0.003,-0.1,-0.6,1.1,0,2018,5,16,19,7,39.549,-0.1746,0.1119,0.4871,-0.8483
0.014,0.019,0,0.2,-0.7,0.8,0,2018,5,16,19,7,39.569,-0.1744,0.1118,0.4873,-0.8482
0.01,0.014,-0.002,0,-0.4,0.8,0,2018,5,16,19,7,39.573,-0.1743,0.1117,0.4875,-0.8481
0.011,0.018,0.004,0,-0.4,0.9,0,2018,5,16,19,7,39.594,-0.1741,0.1115,0.4878,-0.8481
0.014,0.018,0.002,0.1,-0.9,0.8,0,2018,5,16,19,7,39.615,-0.174,0.1114,0.4878,-0.8481
0.014,0.019,-0.001,0.1,-0.9,1.1,0,2018,5,16,19,7,39.634,-0.1738,0.1113,0.4881,-0.8479
0.015,0.017,-0.005,0.1,-0.7,1.1,0,2018,5,16,19,7,39.654,-0.1737,0.1113,0.4882,-0.8479
0.014,0.018,0,0.1,-0.5,1.1,0,2018,5,16,19,7,39.669,-0.1736,0.1111,0.4883,-0.8479
0.017,0.016,-0.003,0,0,1.2,0,2018,5,16,19,7,39.689,-0.1735,0.111,0.4885,-0.8478
0.016,0.023,0.002,0.5,0,1.5,0,2018,5,16,19,7,39.729,-0.1734,0.1108,0.4885,-0.8479
0.013,0.02,0.003,0.3,-0.7,1.9,0,2018,5,16,19,7,39.731,-0.1733,0.1106,0.4886,-0.8478
0.014,0.016,0.005,0.3,-0.6,1.7,0,2018,5,16,19,7,39.755,-0.1733,0.1104,0.4888,-0.8478
0.011,0.007,0.003,0.1,-0.8,1.3,0,2018,5,16,19,7,39.774,-0.1733,0.1103,0.4888,-0.8478
0.01,0.011,0,0,-0.6,1,0,2018,5,16,19,7,39.794,-0.1733,0.1102,0.4888,-0.8478
0.011,0.02,-0.003,0.1,-0.2,0.7,0,2018,5,16,19,7,39.833,-0.1733,0.1103,0.4886,-0.8479
0.011,0.024,-0.002,0,-0.1,0.9,0,2018,5,16,19,7,39.838,-0.1732,0.1102,0.4886,-0.8479
0.015,0.021,0.001,0.2,0,1,0,2018,5,16,19,7,39.857,-0.1732,0.1101,0.4885,-0.848
0.012,0.018,0,0,-0.1,1.1,0,2018,5,16,19,7,39.872,-0.1731,0.11,0.4885,-0.848
0.016,0.017,0.002,0,-0.6,1,0,2018,5,16,19,7,39.894,-0.1731,0.11,0.4883,-0.8481
0.017,0.015,0.001,-0.2,-0.8,0.9,0,2018,5,16,19,7,39.912,-0.173,0.1099,0.4885,-0.8481
0.015,0.018,0.002,-0.4,-0.7,0.9,0,2018,5,16,19,7,39.95,-0.1729,0.1099,0.4885,-0.848
0.015,0.016,-0.006,-0.3,-0.6,1,0,2018,5,16,19,7,39.971,-0.1729,0.11,0.4885,-0.848
0.014,0.016,-0.005,0,-0.3,1,0,2018,5,16,19,7,39.975,-0.1728,0.11,0.4885,-0.8481
0.013,0.015,-0.004,0,-0.2,1,1023,2018,5,16,19,7,40.011,-0.1728,0.11,0.4884,-0.8481
0.015,0.018,-0.004,0,0,0.8,1023,2018,5,16,19,7,40.032,-0.1727,0.1099,0.4885,-0.8481
0.013,0.02,-0.002,0.2,0.1,1,1023,2018,5,16,19,7,40.058,-0.1726,0.1098,0.4883,-0.8482
0.013,0.017,0.002,0.1,0.3,1,1023,2018,5,16,19,7,40.072,-0.1727,0.1098,0.4881,-0.8484
0.009,0.018,0.001,0,-0.3,1,1023,2018,5,16,19,7,40.074,-0.1727,0.1097,0.4879,-0.8485
0.009,0.019,0,0,-0.4,0.8,1023,2018,5,16,19,7,40.112,-0.1726,0.1097,0.4878,-0.8486
0.014,0.019,-0.008,-0.2,-0.5,0.7,1023,2018,5,16,19,7,40.134,-0.1725,0.1097,0.4878,-0.8486
0.013,0.025,0.005,-0.3,-0.6,0.8,1023,2018,5,16,19,7,40.135,-0.1724,0.1097,0.4878,-0.8486
0.016,0.017,0.002,-0.3,-0.7,1.1,1023,2018,5,16,19,7,40.155,-0.1724,0.1097,0.4878,-0.8486
0.014,0.013,-0.004,-0.2,-0.7,1.1,0,2018,5,16,19,7,40.176,-0.1724,0.1097,0.4878,-0.8486
0.016,0.015,-0.005,0,-0.8,1,0,2018,5,16,19,7,40.196,-0.1723,0.1097,0.4878,-0.8486
0.016,0.015,-0.008,-0.1,-0.4,0.9,0,2018,5,16,19,7,40.215,-0.1723,0.1098,0.4878,-0.8486
0.012,0.021,0,0.2,-0.2,0.7,0,2018,5,16,19,7,40.253,-0.1722,0.1097,0.4878,-0.8487
0.014,0.017,0.002,0.3,-0.3,1,0,2018,5,16,19,7,40.273,-0.1721,0.1097,0.4877,-0.8487
0.014,0.019,0,0.3,-0.4,0.9,0,2018,5,16,19,7,40.278,-0.172,0.1096,0.4877,-0.8487
0.011,0.017,0.002,0.3,-0.7,0.8,0,2018,5,16,19,7,40.317,-0.1719,0.1095,0.4878,-0.8488
0.012,0.016,0,-0.1,-0.6,0.8,0,2018,5,16,19,7,40.337,-0.1719,0.1095,0.4877,-0.8488
0.014,0.014,0.002,0,-0.4,0.6,0,2018,5,16,19,7,40.341,-0.1719,0.1096,0.4875,-0.8489
0.01,0.013,-0.002,-0.2,-0.7,0.5,0,2018,5,16,19,7,40.353,-0.1718,0.1095,0.4875,-0.8489
0.012,0.02,0,-0.3,-0.8,0.5,0,2018,5,16,19,7,40.375,-0.1717,0.1096,0.4875,-0.8489
0.012,0.019,-0.003,-0.2,-0.7,0.7,0,2018,5,16,19,7,40.394,-0.1716,0.1096,0.4876,-0.8489
0.012,0.02,0,-0.1,-0.8,0.9,0,2018,5,16,19,7,40.432,-0.1716,0.1097,0.4875,-0.849
0.014,0.021,-0.002,-0.2,-0.9,0.9,0,2018,5,16,19,7,40.452,-0.1716,0.1097,0.4874,-0.849
0.014,0.017,-0.002,-0.1,-0.8,0.8,0,2018,5,16,19,7,40.456,-0.1715,0.1098,0.4875,-0.849
0.012,0.013,-0.002,-0.1,-1,0.7,0,2018,5,16,19,7,40.495,-0.1713,0.1097,0.4878,-0.8489
0.014,0.014,0,0,-0.7,0.7,0,2018,5,16,19,7,40.516,-0.1712,0.1097,0.4879,-0.8488
0.011,0.019,-0.002,0,-0.9,0.7,0,2018,5,16,19,7,40.52,-0.1711,0.1096,0.488,-0.8488
0.013,0.018,-0.003,0,-0.5,0.8,0,2018,5,16,19,7,40.539,-0.1709,0.1096,0.4882,-0.8487
0.012,0.02,0.002,0.1,-0.6,0.8,0,2018,5,16,19,7,40.558,-0.1709,0.1096,0.4881,-0.8488
0.015,0.015,-0.004,0,-0.1,1,0,2018,5,16,19,7,40.594,-0.1708,0.1096,0.488,-0.8488
0.011,0.019,0.005,0,-0.5,0.6,0,2018,5,16,19,7,40.616,-0.1707,0.1095,0.488,-0.8488
0.012,0.017,0.006,0,-1,0.7,0,2018,5,16,19,7,40.62,-0.1706,0.1095,0.4882,-0.8488
0.013,0.016,0.005,-0.1,-1.1,0.9,0,2018,5,16,19,7,40.637,-0.1705,0.1095,0.4882,-0.8488
0.012,0.015,0,0.1,-0.9,0.8,0,2018,5,16,19,7,40.658,-0.1705,0.1095,0.4881,-0.8488
0.011,0.014,-0.005,0.1,-0.6,1,0,2018,5,16,19,7,40.679,-0.1704,0.1095,0.4883,-0.8488
0.011,0.016,-0.003,0.5,0,0.8,0,2018,5,16,19,7,40.717,-0.1703,0.1093,0.4884,-0.8487
0.013,0.018,0,0.4,-0.2,0.7,0,2018,5,16,19,7,40.738,-0.1701,0.1092,0.4884,-0.8488
0.014,0.02,0.002,0.3,-0.6,0.7,0,2018,5,16,19,7,40.742,-0.17,0.1091,0.4884,-0.8488
0.011,0.011,0.004,0.1,-0.9,0.7,0,2018,5,16,19,7,40.762,-0.1698,0.109,0.4886,-0.8488
0.016,0.019,0.001,-0.1,-1.3,0.5,0,2018,5,16,19,7,40.778,-0.1696,0.109,0.4888,-0.8487
0.015,0.021,0.001,-0.4,-2.1,0.4,0,2018,5,16,19,7,40.813,-0.1695,0.109,0.489,-0.8486
0.016,0.021,-0.001,-0.5,-2.2,0.6,0,2018,5,16,19,7,40.834,-0.1694,0.1092,0.4892,-0.8485
0.017,0.014,-0.005,-0.4,-1.6,0.8,0,2018,5,16,19,7,40.838,-0.1694,0.1094,0.4893,-0.8484
0.012,0.019,-0.005,0,-0.7,0.9,1023,2018,5,16,19,7,40.878,-0.1693,0.1094,0.4894,-0.8483
0.012,0.016,-0.006,0.3,-0.3,1,1023,2018,5,16,19,7,40.898,-0.1691,0.1093,0.4897,-0.8482
0.014,0.02,-0.001,0.4,-0.2,1.3,1023,2018,5,16,19,7,40.902,-0.1691,0.1092,0.4896,-0.8483
0.012,0.018,0,0.8,0.1,1.3,1023,2018,5,16,19,7,40.921,-0.1691,0.1091,0.4895,-0.8484
0.009,0.014,0.001,0.7,0.4,1.1,1023,2018,5,16,19,7,40.941,-0.1691,0.1088,0.4894,-0.8484
0.008,0.014,0.004,0.1,0.1,1,1023,2018,5,16,19,7,40.979,-0.1691,0.1087,0.4892,-0.8486
0.016,0.018,0.003,-0.1,-0.1,0.7,1023,2018,5,16,19,7,40.999,-0.169,0.1087,0.4891,-0.8487
0.011,0.024,0.007,-0.2,-0.3,0.9,1023,2018,5,16,19,7,41.003,-0.1691,0.1087,0.4888,-0.8488
0.013,0.026,0,-0.2,-0.4,1,1023,2018,5,16,19,7,41.041,-0.169,0.1087,0.4888,-0.8488
0.013,0.017,-0.003,-0.1,-0.4,1.1,0,2018,5,16,19,7,41.061,-0.169,0.1087,0.4888,-0.8488
0.017,0.016,0,-0.1,-0.7,1.1,0,2018,5,16,19,7,41.065,-0.1688,0.1086,0.489,-0.8488
0.018,0.013,0,0.1,-0.6,1.1,0,2018,5,16,19,7,41.08,-0.1688,0.1087,0.489,-0.8488
0.015,0.014,-0.002,0,-0.3,1,0,2018,5,16,19,7,41.12,-0.1687,0.1086,0.4891,-0.8487
0.014,0.017,0.001,0.1,-0.1,1,0,2018,5,16,19,7,41.14,-0.1686,0.1086,0.489,-0.8488
0.013,0.019,0.002,0,-0.9,0.8,0,2018,5,16,19,7,41.144,-0.1685,0.1085,0.4892,-0.8488
0.011,0.022,0,-0.2,-1.2,0.8,0,2018,5,16,19,7,41.162,-0.1684,0.1085,0.4892,-0.8487
0.009,0.018,0,0,-1.1,0.9,0,2018,5,16,19,7,41.199,-0.1683,0.1085,0.4893,-0.8487
0.013,0.017,0.001,0,-0.9,0.8,0,2018,5,16,19,7,41.219,-0.1682,0.1084,0.4895,-0.8486
0.013,0.019,-0.003,0.1,-1.1,0.7,0,2018,5,16,19,7,41.223,-0.1681,0.1084,0.4896,-0.8486
0.013,0.016,0.003,0,-0.7,0.9,0,2018,5,16,19,7,41.246,-0.168,0.1083,0.4897,-0.8486
0.01,0.015,-0.001,-0.2,-0.6,0.8,0,2018,5,16,19,7,41.263,-0.1679,0.1083,0.4898,-0.8486
0.012,0.019,0,-0.1,-0.6,0.5,0,2018,5,16,19,7,41.282,-0.1679,0.1083,0.4897,-0.8486
0.012,0.019,-0.004,-0.2,-0.7,0.7,0,2018,5,16,19,7,41.302,-0.1679,0.1084,0.4895,-0.8487
0.013,0.019,0.001,-0.2,-0.9,0.7,0,2018,5,16,19,7,41.322,-0.1678,0.1085,0.4895,-0.8487
0.015,0.019,0,-0.2,-0.9,0.8,0,2018,5,16,19,7,41.344,-0.1677,0.1085,0.4896,-0.8487
0.014,0.016,-0.004,-0.2,-0.9,1.1,0,2018,5,16,19,7,41.363,-0.1676,0.1084,0.4898,-0.8486
0.014,0.015,-0.004,-0.1,-0.6,0.9,0,2018,5,16,19,7,41.383,-0.1677,0.1086,0.4896,-0.8487
0.013,0.019,-0.002,0,-0.7,0.8,0,2018,5,16,19,7,41.404,-0.1676,0.1086,0.4896,-0.8487
0.015,0.017,-0.003,0,-0.9,0.7,0,2018,5,16,19,7,41.423,-0.1676,0.1086,0.4895,-0.8487
0.015,0.02,0,0.2,-0.7,0.8,0,2018,5,16,19,7,41.462,-0.1675,0.1086,0.4894,-0.8488
0.015,0.018,-0.002,0.3,-0.6,1,0,2018,5,16,19,7,41.482,-0.1675,0.1086,0.4894,-0.8488
0.015,0.021,-0.004,0.1,-0.3,1.2,0,2018,5,16,19,7,41.486,-0.1674,0.1086,0.4894,-0.8488
0.012,0.021,-0.001,0.4,0,1.1,0,2018,5,16,19,7,41.502,-0.1674,0.1085,0.4893,-0.8489
0.01,0.02,0.009,0.3,-0.6,1,0,2018,5,16,19,7,41.539,-0.1674,0.1083,0.4893,-0.8489
0.012,0.016,0.009,-0.1,-1,1,0,2018,5,16,19,7,41.559,-0.1674,0.1083,0.4893,-0.849
0.013,0.016,0,-0.1,-1.2,1,0,2018,5,16,19,7,41.563,-0.1673,0.1083,0.4894,-0.8489
0.013,0.013,-0.003,-0.1,-0.9,1,0,2018,5,16,19,7,41.6,-0.1673,0.1084,0.4894,-0.8489
0.012,0.019,0,0,-0.4,0.5,0,2018,5,16,19,7,41.622,-0.1672,0.1084,0.4894,-0.8489
0.011,0.021,0,0.3,-0.5,0.8,0,2018,5,16,19,7,41.626,-0.167,0.1083,0.4896,-0.8488
0.016,0.018,-0.001,0.3,-0.1,0.8,0,2018,5,16,19,7,41.646,-0.167,0.1083,0.4894,-0.849
0.016,0.019,0.002,0.5,0.1,1.2,0,2018,5,16,19,7,41.665,-0.1669,0.1081,0.4894,-0.849
0.016,0.019,0.003,0.5,0.1,1.3,0,2018,5,16,19,7,41.7,-0.1669,0.108,0.4892,-0.8491
0.011,0.016,0.002,0.1,-0.2,1,0,2018,5,16,19,7,41.72,-0.1668,0.1079,0.4893,-0.8491
0.012,0.019,0.002,0,-0.6,1,1023,2018,5,16,19,7,41.724,-0.1668,0.1079,0.4892,-0.8492
0.015,0.02,-0.006,0,-0.6,0.8,1023,2018,5,16,19,7,41.744,-0.1667,0.1078,0.4893,-0.8491
0.014,0.017,-0.004,0.3,-0.6,0.9,1023,2018,5,16,19,7,41.766,-0.1667,0.1079,0.4891,-0.8492
0.012,0.018,-0.006,0.3,-0.3,1,1023,2018,5,16,19,7,41.802,-0.1666,0.1078,0.4892,-0.8492
0.011,0.011,-0.002,0.3,0.2,1.1,1023,2018,5,16,19,7,41.822,-0.1667,0.1078,0.4889,-0.8493
0.01,0.016,0,0.3,0.3,1,1023,2018,5,16,19,7,41.827,-0.1666,0.1076,0.4889,-0.8494
0.007,0.019,0.002,0,-0.1,0.9,1023,2018,5,16,19,7,41.846,-0.1666,0.1075,0.4888,-0.8495
0.011,0.019,0.002,-0.2,-0.5,0.9,1023,2018,5,16,19,7,41.868,-0.1666,0.1075,0.4887,-0.8495
0.014,0.022,0.001,-0.4,-0.9,0.9,1023,2018,5,16,19,7,41.888,-0.1665,0.1074,0.4888,-0.8495
0.011,0.02,-0.004,-0.4,-0.9,1,1023,2018,5,16,19,7,41.908,-0.1665,0.1075,0.4888,-0.8495
0.016,0.019,0,-0.2,-0.8,1,0,2018,5,16,19,7,41.928,-0.1664,0.1075,0.489,-0.8494
0.015,0.018,0,-0.2,-0.2,1.3,0,2018,5,16,19,7,41.947,-0.1664,0.1075,0.4891,-0.8494
0.012,0.018,0.002,-0.1,-0.3,1.2,0,2018,5,16,19,7,41.965,-0.1664,0.1074,0.4891,-0.8493
0.013,0.013,-0.001,-0.1,-0.4,1,0,2018,5,16,19,7,41.984,-0.1663,0.1074,0.4892,-0.8493
0.017,0.02,0.001,0,-0.5,0.9,0,2018,5,16,19,7,42.006,-0.1663,0.1073,0.4892,-0.8493
0.016,0.02,0,-0.2,-1,0.9,0,2018,5,16,19,7,42.039,-0.1663,0.1074,0.489,-0.8494
0.017,0.019,0,-0.1,-0.9,1.1,0,2018,5,16,19,7,42.061,-0.1663,0.1075,0.489,-0.8494
0.015,0.02,-0.001,0,-0.7,1.3,0,2018,5,16,19,7,42.064,-0.1664,0.1075,0.4889,-0.8494
0.012,0.015,-0.006,0.1,-0.6,1.1,0,2018,5,16,19,7,42.1,-0.1664,0.1075,0.489,-0.8494
0.011,0.014,0.001,0.1,-0.4,0.8,0,2018,5,16,19,7,42.12,-0.1664,0.1075,0.4889,-0.8495
0.007,0.02,0.004,0,-0.4,0.8,0,2018,5,16,19,7,42.128,-0.1663,0.1074,0.489,-0.8495
0.011,0.021,0.004,0,-0.6,0.8,0,2018,5,16,19,7,42.149,-0.1662,0.1073,0.4891,-0.8494
0.007,0.02,-0.001,-0.1,-0.9,0.7,0,2018,5,16,19,7,42.17,-0.1661,0.1072,0.4892,-0.8494
0.014,0.014,0.001,-0.1,-1,0.6,0,2018,5,16,19,7,42.183,-0.166,0.1073,0.4892,-0.8494
0.01,0.017,0,-0.4,-1.2,0.5,0,2018,5,16,19,7,42.221,-0.1658,0.1073,0.4894,-0.8493
0.014,0.018,0.003,-0.2,-1.2,0.8,0,2018,5,16,19,7,42.241,-0.1657,0.1073,0.4896,-0.8492
0.015,0.018,-0.003,-0.2,-0.9,0.9,0,2018,5,16,19,7,42.249,-0.1657,0.1074,0.4895,-0.8493
0.016,0.014,0,-0.2,-0.9,0.8,0,2018,5,16,19,7,42.267,-0.1656,0.1074,0.4896,-0.8492
0.018,0.014,0,-0.1,-0.7,0.5,0,2018,5,16,19,7,42.286,-0.1655,0.1074,0.4897,-0.8492
0.016,0.02,0,-0.1,-0.7,0.5,0,2018,5,16,19,7,42.323,-0.1654,0.1074,0.4898,-0.8492
0.017,0.021,0,-0.3,-0.9,0.8,0,2018,5,16,19,7,42.343,-0.1653,0.1075,0.4898,-0.8492
0.011,0.016,0,-0.1,-1,0.7,0,2018,5,16,19,7,42.351,-0.1652,0.1075,0.4899,-0.8491
0.013,0.013,-0.008,0,-0.9,0.5,0,2018,5,16,19,7,42.373,-0.1651,0.1076,0.4899,-0.8491
0.012,0.017,-0.002,0,-0.5,0.4,0,2018,5,16,19,7,42.392,-0.165,0.1076,0.4899,-0.8491
0.013,0.024,0,-0.1,-0.4,0.7,0,2018,5,16,19,7,42.409,-0.165,0.1077,0.4899,-0.8492
0.015,0.016,-0.003,-0.2,-0.7,0.8,0,2018,5,16,19,7,42.444,-0.1648,0.1076,0.49,-0.8491
0.016,0.016,0,-0.2,-1.1,0.6,0,2018,5,16,19,7,42.465,-0.1648,0.1077,0.49,-0.8491
0.013,0.016,0.001,0,-1.3,0.6,0,2018,5,16,19,7,42.469,-0.1647,0.1077,0.4901,-0.8491
0.015,0.02,-0.001,-0.1,-1.1,0.7,0,2018,5,16,19,7,42.489,-0.1646,0.1077,0.4902,-0.849
0.015,0.016,-0.002,-0.1,-0.9,0.6,0,2018,5,16,19,7,42.508,-0.1645,0.1078,0.4903,-0.849
0.014,0.015,0.001,-0.1,-0.9,0.9,0,2018,5,16,19,7,42.548,-0.1644,0.1078,0.4903,-0.849
0.016,0.014,-0.003,-0.1,-0.7,0.7,0,2018,5,16,19,7,42.568,-0.1644,0.1079,0.4902,-0.849
0.019,0.018,0.004,0,-0.6,0.7,1023,2018,5,16,19,7,42.572,-0.1643,0.1079,0.4902,-0.849
0.015,0.022,-0.004,-0.2,-1,0.7,1023,2018,5,16,19,7,42.593,-0.1642,0.1079,0.4903,-0.849
0.015,0.019,-0.002,-0.3,-0.9,1.1,1023,2018,5,16,19,7,42.611,-0.1641,0.1079,0.4905,-0.8489
0.012,0.016,-0.008,0,-0.8,1.1,1023,2018,5,16,19,7,42.627,-0.1641,0.108,0.4904,-0.8489
0.013,0.013,-0.003,0,-0.7,0.8,1023,2018,5,16,19,7,42.666,-0.1642,0.1081,0.4903,-0.849
0.008,0.016,-0.008,0.4,0,0.7,1023,2018,5,16,19,7,42.686,-0.164,0.1079,0.4904,-0.849
0.01,0.021,0,0.1,0.4,0.8,1023,2018,5,16,19,7,42.69,-0.164,0.1078,0.4903,-0.8491
0.009,0.021,0,0,0.1,0.8,1023,2018,5,16,19,7,42.727,-0.1639,0.1078,0.4901,-0.8492
0.013,0.019,-0.001,0,0,1.1,1023,2018,5,16,19,7,42.749,-0.1639,0.1078,0.49,-0.8493
0.011,0.016,-0.001,0,0,1,0,2018,5,16,19,7,42.753,-0.1639,0.1077,0.49,-0.8493
0.013,0.019,0,-0.1,-0.4,0.5,0,2018,5,16,19,7,42.771,-0.1639,0.1078,0.4897,-0.8494
0.015,0.019,-0.003,-0.4,-0.7,0.7,0,2018,5,16,19,7,42.811,-0.1639,0.1078,0.4897,-0.8494
0.018,0.023,-0.003,-0.1,-0.8,0.9,0,2018,5,16,19,7,42.83,-0.1638,0.1079,0.4897,-0.8494
0.017,0.021,-0.008,0,-0.4,1.4,0,2018,5,16,19,7,42.834,-0.1638,0.1079,0.4898,-0.8494
0.014,0.016,-0.002,0.1,-0.1,1.3,0,2018,5,16,19,7,42.853,-0.1638,0.1078,0.4899,-0.8493
0.012,0.013,-0.004,0.3,0.1,1.1,0,2018,5,16,19,7,42.873,-0.1637,0.1077,0.49,-0.8493
0.011,0.016,0,0.1,0.3,1,0,2018,5,16,19,7,42.888,-0.1637,0.1076,0.4899,-0.8494
0.012,0.023,-0.004,0.1,0.6,1.1,0,2018,5,16,19,7,42.928,-0.1637,0.1075,0.4896,-0.8496
0.013,0.022,-0.008,0.1,1.5,1.5,0,2018,5,16,19,7,42.949,-0.1638,0.1075,0.4892,-0.8498
0.014,0.018,-0.008,0.1,2.5,2.4,0,2018,5,16,19,7,42.953,-0.164,0.1073,0.4887,-0.85
0.011,0.011,-0.004,0.1,5.3,3.5,0,2018,5,16,19,7,42.972,-0.1643,0.1069,0.4882,-0.8503
0.001,0.016,0.026,-0.4,6.7,3.5,0,2018,5,16,19,7,43.009,-0.1649,0.1064,0.487,-0.851
-0.012,-0.008,0.047,-2.6,3.2,2.1,0,2018,5,16,19,7,43.029,-0.1655,0.1061,0.486,-0.8515
-0.017,-0.059,0.052,-5.8,2.2,0,0,2018,5,16,19,7,43.033,-0.166,0.1063,0.4853,-0.8517
-0.027,-0.005,0.089,-9.1,0,-3.5,0,2018,5,16,19,7,43.07,-0.1664,0.1072,0.4848,-0.8518
-0.027,-0.024,0.17,-12.4,-10.1,-8.3,0,2018,5,16,19,7,43.091,-0.1664,0.109,0.4843,-0.8519
-0.066,-0.068,0.29,-20.8,-13.8,-11.5,0,2018,5,16,19,7,43.095,-0.1661,0.1124,0.4852,-0.851
-0.103,-0.109,0.307,-31.9,3.6,-14.4,0,2018,5,16,19,7,43.111,-0.1663,0.1176,0.4851,-0.8503
-0.063,-0.088,0.303,-45.2,18.2,-18.8,0,2018,5,16,19,7,43.132,-0.1672,0.1242,0.482,-0.8509
-0.045,-0.021,0.257,-59.3,16.8,-23,0,2018,5,16,19,7,43.152,-0.1688,0.1331,0.4774,-0.8519
-0.01,-0.134,0.251,-70.7,9.5,-28.2,0,2018,5,16,19,7,43.192,-0.1707,0.1446,0.4724,-0.8524
-0.079,-0.057,0.313,-82.3,15.5,-29.7,0,2018,5,16,19,7,43.211,-0.173,0.158,0.4673,-0.8524
-0.061,0.022,0.217,-92.4,32.2,-25.7,0,2018,5,16,19,7,43.215,-0.1806,0.187,0.4525,-0.8529
-0.065,0.009,0.106,-94.3,14.6,-23.9,0,2018,5,16,19,7,43.252,-0.1851,0.202,0.4448,-0.8526
-0.059,-0.032,0.067,-97.1,-9.8,-28.9,0,2018,5,16,19,7,43.272,-0.189,0.2176,0.44,-0.8504
-0.045,-0.049,0.053,-102.4,-27.9,-36.5,0,2018,5,16,19,7,43.276,-0.1912,0.235,0.438,-0.8463
0.002,-0.069,-0.005,-104.6,-37.6,-42.5,0,2018,5,16,19,7,43.294,-0.192,0.2544,0.4376,-0.8407
-0.032,-0.026,-0.002,-108.1,-48.7,-47.8,0,2018,5,16,19,7,43.313,-0.1915,0.2749,0.4383,-0.834
-0.055,-0.042,-0.058,-109.6,-54.1,-52.5,0,2018,5,16,19,7,43.333,-0.1902,0.2962,0.4399,-0.8261
-0.022,0.021,-0.191,-108.9,-56.8,-55.5,0,2018,5,16,19,7,43.372,-0.188,0.3181,0.4415,-0.8176
0.008,0.002,-0.25,-103,-56.3,-57.6,1023,2018,5,16,19,7,43.392,-0.1849,0.3394,0.4429,-0.8089
0.005,0.012,-0.306,-93.8,-48.7,-58.6,1023,2018,5,16,19,7,43.396,-0.1811,0.3594,0.4436,-0.8007
-0.002,0.075,-0.419,-83.2,-40.9,-59.1,1023,2018,5,16,19,7,43.431,-0.177,0.3776,0.4432,-0.7934
0.005,0.073,-0.445,-73.2,-42.2,-61.3,1023,2018,5,16,19,7,43.451,-0.1719,0.3943,0.4424,-0.7868
0.035,0.035,-0.571,-57.3,-30.7,-61.9,1023,2018,5,16,19,7,43.455,-0.1658,0.4092,0.4413,-0.7811
0.061,0.102,-0.752,-37.3,-18.5,-59.2,1023,2018,5,16,19,7,43.477,-0.1595,0.4209,0.4387,-0.7777
0.051,0.149,-0.819,-17.6,-28.8,-58,1023,2018,5,16,19,7,43.498,-0.152,0.4296,0.4367,-0.7756
0.051,0.123,-0.807,1.4,-48,-57.5,1023,2018,5,16,19,7,43.536,-0.1418,0.436,0.4374,-0.7735
0.044,0.092,-0.73,20.4,-67,-56.6,1023,2018,5,16,19,7,43.54,-0.1288,0.4403,0.4412,-0.7712
0.053,0.1,-0.723,42.6,-70.4,-51.6,0,2018,5,16,19,7,43.559,-0.1136,0.4416,0.447,-0.7694
0.031,0.13,-0.692,59.3,-75.1,-47.2,0,2018,5,16,19,7,43.576,-0.0973,0.4399,0.4539,-0.7686
-0.031,0.207,-0.634,68.1,-89.1,-43,0,2018,5,16,19,7,43.595,-0.0799,0.4361,0.4623,-0.7678
-0.046,0.03,-0.638,75.2,-96.1,-37.4,0,2018,5,16,19,7,43.615,-0.0617,0.4311,0.4722,-0.7663
-0.085,0.004,-0.598,83.6,-115.4,-34.3,0,2018,5,16,19,7,43.654,-0.0424,0.4243,0.4843,-0.7638
-0.103,-0.013,-0.561,92.2,-135,-28.8,0,2018,5,16,19,7,43.674,-0.0213,0.4162,0.4993,-0.7596
-0.076,-0.034,-0.694,103.2,-139.6,-20.6,0,2018,5,16,19,7,43.678,0.0005,0.4058,0.5154,-0.7546
-0.128,-0.108,-0.939,126.7,-130.4,-8.3,0,2018,5,16,19,7,43.698,0.0223,0.392,0.5316,-0.7504
-0.268,-0.175,-1.252,161.7,-175.6,-4.2,0,2018,5,16,19,7,43.717,0.0463,0.3728,0.5496,-0.7461
-0.49,-0.626,-1.331,220.8,-251.8,-7.4,0,2018,5,16,19,7,43.757,0.0794,0.3463,0.5756,-0.7364
-0.698,-0.856,-0.847,299.9,-242.1,0.9,0,2018,5,16,19,7,43.776,0.1216,0.3089,0.6035,-0.7248
2.553,-8.052,-9.444,454,405.6,-150.5,0,2018,5,16,19,7,43.78,0.1324,0.2833,0.6151,-0.7237
0.46,3.218,0.109,-109.8,-289.5,-80.1,0,2018,5,16,19,7,43.797,0.1271,0.2932,0.5988,-0.7343
0.392,0.471,-0.554,17.3,95,-10.3,0,2018,5,16,19,7,43.816,0.1312,0.3031,0.6133,-0.7174
0.062,-0.784,1.427,98.9,70.4,20.1,0,2018,5,16,19,7,43.854,0.131,0.2938,0.6024,-0.7304
0.035,0.817,0.159,61.4,-46.3,30.4,0,2018,5,16,19,7,43.876,0.1359,0.279,0.5964,-0.7402
0.084,0.055,0.287,6.1,-73.2,28.8,0,2018,5,16,19,7,43.881,0.1387,0.2702,0.6084,-0.7331
0.14,-0.035,0.015,13.3,31.7,19,0,2018,5,16,19,7,43.899,0.1374,0.2664,0.6105,-0.7329
0.226,-0.126,-0.116,2.8,1.9,13,0,2018,5,16,19,7,43.919,0.1357,0.2644,0.6078,-0.7362
0.124,-0.185,-0.126,-7.7,-20.6,5.2,0,2018,5,16,19,7,43.939,0.1348,0.2637,0.6104,-0.7345
0.076,-0.137,-0.135,3.3,-3.6,-1.1,0,2018,5,16,19,7,43.979,0.1347,0.2639,0.6133,-0.7321
0.015,0.051,0.007,19.8,24,-1.6,0,2018,5,16,19,7,43.997,0.1359,0.2631,0.6115,-0.7336
0.02,0.14,0.1,23.9,39.5,2.6,0,2018,5,16,19,7,44.001,0.137,0.261,0.6066,-0.7383
0.071,0.177,0.02,20,40.6,7.3,0,2018,5,16,19,7,44.018,0.1367,0.2585,0.6007,-0.7439
0.072,0.147,0.011,16.5,15.5,9.2,0,2018,5,16,19,7,44.038,0.1364,0.2561,0.597,-0.7478
0.033,0.079,0.039,16.7,0.9,11.1,0,2018,5,16,19,7,44.058,0.1372,0.2536,0.5956,-0.7496
0.034,0.042,0.067,16.6,6.8,12.5,0,2018,5,16,19,7,44.097,0.1378,0.2504,0.5946,-0.7514
0.049,0.042,0.005,14.5,16.9,13.3,0,2018,5,16,19,7,44.118,0.1377,0.2475,0.5927,-0.7539
0.048,0.031,-0.03,12.4,21.7,13.3,0,2018,5,16,19,7,44.122,0.1369,0.2453,0.5901,-0.7568
0.031,0.004,-0.053,11.7,16.3,12.6,0,2018,5,16,19,7,44.141,0.1358,0.2432,0.5877,-0.7595
-0.002,-0.026,-0.055,10.6,1.8,10.6,0,2018,5,16,19,7,44.161,0.1351,0.2409,0.5871,-0.7608
-0.009,0,0.012,7.6,-7.9,10.7,0,2018,5,16,19,7,44.199,0.1347,0.2384,0.5879,-0.7611
0.006,0.001,0.003,4.4,-4.1,9.7,0,2018,5,16,19,7,44.219,0.1343,0.2363,0.5888,-0.7611
0.023,-0.035,-0.036,2.5,-0.1,8.5,1023,2018,5,16,19,7,44.223,0.1335,0.2351,0.5893,-0.7612
0.024,-0.001,-0.043,3.7,2.4,7.1,1023,2018,5,16,19,7,44.237,0.1327,0.2341,0.5895,-0.7616
0.026,0,0,5.2,1.2,5.9,1023,2018,5,16,19,7,44.274,0.1324,0.233,0.5895,-0.7619
0.025,-0.002,0.015,6.3,-0.8,5.3,1023,2018,5,16,19,7,44.294,0.1325,0.2317,0.5894,-0.7623
0.015,0.025,0,8.4,-3.4,5.3,1023,2018,5,16,19,7,44.298,0.1328,0.2303,0.5897,-0.7625
0.005,0.041,-0.001,11.5,-0.9,7.3,1023,2018,5,16,19,7,44.32,0.1334,0.2283,0.59,-0.7628
-0.004,0.069,0.005,15.4,3.7,8.2,1023,2018,5,16,19,7,44.344,0.1339,0.2259,0.5895,-0.7637
-0.008,0.034,0.039,17.6,3.7,7.4,1023,2018,5,16,19,7,44.364,0.1346,0.223,0.5884,-0.7653
0.003,0.004,0.037,19.4,3.2,7.1,1023,2018,5,16,19,7,44.399,0.1356,0.2198,0.5873,-0.7669
0.023,0.013,0.006,21.1,5.1,9.2,1023,2018,5,16,19,7,44.419,0.1365,0.2164,0.5862,-0.7686
0.021,0.056,-0.045,24,6,9.6,0,2018,5,16,19,7,44.424,0.1376,0.2127,0.5852,-0.7702
-0.005,0.046,0.023,25.5,1.2,8.7,0,2018,5,16,19,7,44.444,0.139,0.2088,0.5843,-0.7717
-0.028,0.017,0.111,25.3,1.8,8.6,0,2018,5,16,19,7,44.48,0.1405,0.2042,0.5831,-0.7735
-0.032,-0.006,0.146,25.9,16.4,10.7,0,2018,5,16,19,7,44.5,0.1416,0.1998,0.5813,-0.7759
-0.046,0,0.157,29,44.7,15.3,0,2018,5,16,19,7,44.504,0.1415,0.1956,0.577,-0.7802
-0.018,-0.02,-0.037,40.4,70.9,16.8,0,2018,5,16,19,7,44.521,0.1406,0.1904,0.5687,-0.7876
-0.021,0.042,-0.112,51.2,97.9,16.2,0,2018,5,16,19,7,44.54,0.1401,0.1845,0.557,-0.7975
-0.093,0.041,0.143,48.5,95.3,15.3,0,2018,5,16,19,7,44.58,0.1395,0.1781,0.5424,-0.809
-0.163,0.004,0.456,40.9,96.5,15.3,0,2018,5,16,19,7,44.599,0.1388,0.1726,0.5283,-0.8196
-0.16,0.047,0.469,24.8,98.9,21.9,0,2018,5,16,19,7,44.603,0.1361,0.1686,0.5137,-0.83
-0.068,0.07,0.232,14.8,94,26,0,2018,5,16,19,7,44.622,0.1314,0.166,0.4998,-0.8398
-0.065,0.174,0.18,1.2,82.8,32.8,0,2018,5,16,19,7,44.644,0.1251,0.1643,0.4871,-0.8485
-0.092,0.197,0.227,-17.3,58.6,38.8,0,2018,5,16,19,7,44.681,0.1169,0.1641,0.4775,-0.8551
-0.079,0.17,0.206,-34.5,32.5,43.3,0,2018,5,16,19,7,44.702,0.1071,0.1657,0.4721,-0.8591
-0.01,0.163,0.036,-45.7,4.2,47.9,0,2018,5,16,19,7,44.706,0.0962,0.1685,0.4711,-0.8604
0.092,0.059,-0.228,-43.2,-10.9,48.9,0,2018,5,16,19,7,44.721,0.0853,0.1717,0.4734,-0.8596
0.085,0.015,-0.193,-33.8,-4.8,48.5,0,2018,5,16,19,7,44.743,0.075,0.1733,0.4766,-0.8585
-0.004,0.049,-0.034,-30.2,10.2,49.2,0,2018,5,16,19,7,44.764,0.0649,0.1743,0.4778,-0.8585
0.002,0.032,0.003,-32.9,13.9,48.2,0,2018,5,16,19,7,44.783,0.0545,0.1751,0.4773,-0.8593
0.022,0.059,-0.043,-38.6,3.9,44.6,0,2018,5,16,19,7,44.804,0.0443,0.177,0.477,-0.8597
0.037,0.029,-0.101,-42.1,-15.6,39,0,2018,5,16,19,7,44.839,0.0351,0.1803,0.4796,-0.8579
0.049,-0.008,-0.102,-38.3,-8.4,37.8,0,2018,5,16,19,7,44.859,0.0266,0.1838,0.4837,-0.8552
0.059,0.037,-0.045,-33.2,16.1,41.4,0,2018,5,16,19,7,44.864,0.0179,0.1865,0.4849,-0.8542
0.045,0.087,0,-30.2,38.1,46.1,0,2018,5,16,19,7,44.902,0.008,0.1882,0.4817,-0.8558
0.072,0.126,0.006,-27.3,46.9,51.7,0,2018,5,16,19,7,44.922,-0.0026,0.1889,0.4762,-0.8587
0.095,0.151,-0.044,-23.6,48.1,58.5,0,2018,5,16,19,7,44.926,-0.0147,0.1881,0.4706,-0.8619
0.135,0.121,-0.099,-19.1,42.6,65,0,2018,5,16,19,7,44.944,-0.0273,0.1861,0.4655,-0.8647
0.133,0.194,-0.13,-13.6,35,71.1,0,2018,5,16,19,7,44.963,-0.0401,0.1828,0.4619,-0.8669
0.162,0.162,-0.178,-6.7,24.5,77.9,0,2018,5,16,19,7,44.983,-0.0533,0.1781,0.4595,-0.8684
0.199,0.145,-0.215,-1.6,-2,79.4,0,2018,5,16,19,7,45.005,-0.066,0.1723,0.4599,-0.8685
0.204,0.015,-0.208,4.5,-17.3,81.3,0,2018,5,16,19,7,45.026,-0.0777,0.1657,0.4641,-0.8666
0.17,-0.012,-0.119,13.6,-8,83,1023,2018,5,16,19,7,45.046,-0.0891,0.1579,0.4685,-0.8646
0.124,-0.101,-0.069,21.4,3.6,77.1,1023,2018,5,16,19,7,45.069,-0.0997,0.1486,0.4713,-0.8635
0.104,-0.141,-0.107,27.8,9.3,66.9,1023,2018,5,16,19,7,45.085,-0.1086,0.1388,0.4726,-0.8634
0.098,-0.147,-0.116,31.6,14.7,55.1,1023,2018,5,16,19,7,45.121,-0.1155,0.1289,0.4729,-0.8638
0.094,-0.139,-0.083,34.5,22.5,45.2,1023,2018,5,16,19,7,45.142,-0.1207,0.1194,0.472,-0.865
0.087,-0.152,-0.003,35.1,29.7,36.7,1023,2018,5,16,19,7,45.147,-0.1243,0.1105,0.4698,-0.8669
0.046,-0.185,0.05,31.4,27.6,26.6,1023,2018,5,16,19,7,45.184,-0.1267,0.1027,0.467,-0.869
0.04,-0.13,0.108,26.6,28,19.7,1023,2018,5,16,19,7,45.188,-0.1281,0.0961,0.4641,-0.8711
0.069,-0.004,0.026,22.5,32.1,17.4,1023,2018,5,16,19,7,45.205,-0.1292,0.0906,0.46,-0.8737
0.112,0.014,-0.078,23.5,35.8,15.6,0,2018,5,16,19,7,45.226,-0.1302,0.0856,0.4554,-0.8765
0.091,-0.04,-0.107,26.9,33.4,10.4,0,2018,5,16,19,7,45.246,-0.1306,0.08,0.4509,-0.8793
0.026,-0.046,-0.007,30.1,44.8,11.6,0,2018,5,16,19,7,45.266,-0.1304,0.0741,0.446,-0.8823
0.024,-0.098,0.07,28.4,60,10.4,0,2018,5,16,19,7,45.287,-0.1303,0.0677,0.4388,-0.8864
0.038,-0.041,0.072,25.5,67,7.8,0,2018,5,16,19,7,45.307,-0.1304,0.0615,0.4288,-0.8917
0.045,0.058,-0.007,22.6,50.1,3.8,0,2018,5,16,19,7,45.327,-0.1299,0.0564,0.4199,-0.8964
0.034,0.097,-0.051,21,32.3,-0.3,0,2018,5,16,19,7,45.367,-0.1287,0.0522,0.4139,-0.8996
-0.002,0.054,0.007,20.1,24.7,-4,0,2018,5,16,19,7,45.387,-0.1271,0.0486,0.4098,-0.9019
-0.072,-0.039,0.043,16.6,22,-6.6,0,2018,5,16,19,7,45.391,-0.1253,0.0451,0.4065,-0.9038
-0.027,-0.003,0.058,15,33.4,-4.8,0,2018,5,16,19,7,45.408,-0.1237,0.042,0.4022,-0.9061
-0.034,0.03,0.023,15.4,51.8,-1.1,0,2018,5,16,19,7,45.428,-0.1226,0.0384,0.3955,-0.9094
-0.023,0.074,-0.013,18.5,65.9,2.1,0,2018,5,16,19,7,45.448,-0.122,0.034,0.3859,-0.9137
-0.042,0.113,-0.025,20.3,60.2,2.6,0,2018,5,16,19,7,45.469,-0.1216,0.0288,0.3757,-0.9182
-0.054,0.146,-0.024,21.7,48.4,4.2,0,2018,5,16,19,7,45.488,-0.1212,0.0233,0.3668,-0.922
-0.057,0.138,0.003,23.6,36.5,6.7,0,2018,5,16,19,7,45.508,-0.1209,0.0185,0.3605,-0.9246
-0.04,0.17,0.031,25.6,26.2,10,0,2018,5,16,19,7,45.529,-0.1208,0.0133,0.356,-0.9265
-0.021,0.139,0.034,27,19,14.1,0,2018,5,16,19,7,45.566,-0.1213,0.0077,0.3527,-0.9277
-0.004,0.094,0.04,28.7,18.4,17.3,0,2018,5,16,19,7,45.588,-0.1223,0.0015,0.3493,-0.9289
0.015,0.042,0.048,29.2,20.5,18.6,0,2018,5,16,19,7,45.592,-0.1235,-0.0046,0.3459,-0.93
0.015,0.011,0.092,28.9,27.3,19.2,0,2018,5,16,19,7,45.612,-0.1249,-0.0108,0.3421,-0.9312
0.013,-0.015,0.128,25.8,34.2,19.5,0,2018,5,16,19,7,45.628,-0.1262,-0.017,0.337,-0.9328
0.02,-0.027,0.107,19.9,34.8,18.2,0,2018,5,16,19,7,45.646,-0.1278,-0.0224,0.3312,-0.9345
0.039,-0.023,0.057,13.4,29.7,15.9,0,2018,5,16,19,7,45.666,-0.1295,-0.0265,0.3258,-0.9361
0.049,-0.016,0.023,8.8,22.2,12.8,0,2018,5,16,19,7,45.707,-0.1309,-0.0293,0.3217,-0.9372
0.053,0.001,0.026,7,16,9.7,0,2018,5,16,19,7,45.726,-0.132,-0.0311,0.3186,-0.9381
0.044,0.025,0.03,5.6,10.8,7.1,0,2018,5,16,19,7,45.73,-0.133,-0.0323,0.3159,-0.9388
0.045,0.043,0.013,3.5,4.8,6,0,2018,5,16,19,7,45.749,-0.1336,-0.0332,0.3143,-0.9392
0.046,0.05,-0.001,2,-0.3,5.8,0,2018,5,16,19,7,45.771,-0.1343,-0.0337,0.3135,-0.9393
0.041,0.034,0,1.5,-3.4,5.7,0,2018,5,16,19,7,45.791,-0.1352,-0.0338,0.3134,-0.9393
0.033,0.012,0.011,2.5,-2.8,5.4,0,2018,5,16,19,7,45.809,-0.136,-0.034,0.3136,-0.9391
0.025,0.003,0.015,3.7,1.2,5,0,2018,5,16,19,7,45.828,-0.1366,-0.0345,0.3136,-0.939
0.026,0.005,0.015,4.8,4.3,4.4,0,2018,5,16,19,7,45.848,-0.1371,-0.0353,0.3131,-0.9391
0.025,0,0.005,4.6,6.7,3.8,1023,2018,5,16,19,7,45.869,-0.1373,-0.0363,0.3122,-0.9393
0.027,0.001,0.006,4.3,9,2.6,1023,2018,5,16,19,7,45.906,-0.1373,-0.0372,0.311,-0.9396
0.029,-0.006,0.016,4.5,10.9,1.3,1023,2018,5,16,19,7,45.928,-0.1373,-0.038,0.3094,-0.9401
0.031,0.011,0.025,4.2,13.1,0.3,1023,2018,5,16,19,7,45.932,-0.1372,-0.0386,0.307,-0.9409
0.028,0.025,0.02,4.2,13.8,-0.4,1023,2018,5,16,19,7,45.952,-0.1368,-0.0394,0.3045,-0.9417
0.029,0.036,0.02,3.7,12,-0.5,1023,2018,5,16,19,7,45.972,-0.1363,-0.0401,0.3022,-0.9425
0.023,0.047,0.014,2.8,9,0,1023,2018,5,16,19,7,45.99,-0.136,-0.0407,0.3,-0.9432
0.023,0.038,0.009,2.5,6.5,0.6,1023,2018,5,16,19,7,46.013,-0.1358,-0.0412,0.2985,-0.9437
0.022,0.028,0.017,1.8,5,0.6,1023,2018,5,16,19,7,46.033,-0.1356,-0.0416,0.2974,-0.9441
0.023,0.032,0.01,0.8,4.5,0.7,1023,2018,5,16,19,7,46.052,-0.1356,-0.0417,0.2962,-0.9444
0.021,0.035,0.011,0.4,4.3,1.2,0,2018,5,16,19,7,46.088,-0.1357,-0.0418,0.2951,-0.9448
0.024,0.044,0.006,0.1,3.5,1.8,0,2018,5,16,19,7,46.109,-0.1359,-0.0419,0.294,-0.9451
0.025,0.036,0.007,0.3,3.1,2.7,0,2018,5,16,19,7,46.113,-0.1363,-0.0419,0.2929,-0.9454
0.03,0.032,0.002,0.9,3.1,3.3,0,2018,5,16,19,7,46.131,-0.1368,-0.042,0.292,-0.9456
0.028,0.024,0.008,1.2,2.9,3.5,0,2018,5,16,19,7,46.168,-0.1372,-0.0422,0.2912,-0.9458
0.032,0.023,0.01,1.3,2.4,3.5,0,2018,5,16,19,7,46.189,-0.1376,-0.0424,0.2905,-0.9459
0.03,0.018,0.004,1.2,1.8,3.2,0,2018,5,16,19,7,46.194,-0.1381,-0.0425,0.2898,-0.9461
0.038,0.022,0,1.5,1.9,2.8,0,2018,5,16,19,7,46.214,-0.1383,-0.0427,0.2894,-0.9461
0.04,0.022,-0.004,2.2,1.7,2,0,2018,5,16,19,7,46.233,-0.1384,-0.0429,0.289,-0.9462
0.034,0.023,0.008,2.2,0.6,1.3,0,2018,5,16,19,7,46.254,-0.1385,-0.043,0.2885,-0.9463
0.031,0.017,0.007,1.8,0,1.1,0,2018,5,16,19,7,46.273,-0.1383,-0.0432,0.2885,-0.9464
0.023,0.02,0.002,1.4,0.1,0.7,0,2018,5,16,19,7,46.309,-0.1383,-0.0433,0.2884,-0.9464
0.024,0.019,0.005,1.2,0.7,0.7,0,2018,5,16,19,7,46.331,-0.1383,-0.0433,0.288,-0.9465
0.024,0.031,-0.001,1.3,0.4,0.2,0,2018,5,16,19,7,46.335,-0.1382,-0.0434,0.2878,-0.9466
0.022,0.028,0.002,1.1,-0.2,0.4,0,2018,5,16,19,7,46.351,-0.1382,-0.0435,0.2876,-0.9467
0.022,0.022,0.004,0.9,0,0.5,0,2018,5,16,19,7,46.388,-0.1382,-0.0435,0.2873,-0.9467
0.02,0.021,0.008,0.6,0.8,0.7,0,2018,5,16,19,7,46.407,-0.1382,-0.0435,0.2871,-0.9468
0.02,0.025,0.006,0.1,0.7,0.5,0,2018,5,16,19,7,46.411,-0.1383,-0.0435,0.2866,-0.9469
0.023,0.03,0.006,0,-0.2,0.7,0,2018,5,16,19,7,46.45,-0.1384,-0.0433,0.2862,-0.9471
0.023,0.026,0.001,0,-1.5,0.6,0,2018,5,16,19,7,46.472,-0.1383,-0.0432,0.2863,-0.947
0.025,0.017,0,0,-2.3,0.4,0,2018,5,16,19,7,46.476,-0.1384,-0.043,0.2864,-0.947
0.02,0.018,0.003,-0.4,-2.1,0.4,0,2018,5,16,19,7,46.496,-0.1384,-0.0428,0.2866,-0.947
0.024,0.017,-0.003,-0.4,-2.1,0.3,0,2018,5,16,19,7,46.516,-0.1384,-0.0425,0.2868,-0.9469
0.025,0.019,-0.003,-0.2,-2.1,0.2,0,2018,5,16,19,7,46.534,-0.1384,-0.0422,0.287,-0.9469
0.022,0.013,-0.002,-0.4,-1.5,0.4,0,2018,5,16,19,7,46.553,-0.1385,-0.0418,0.287,-0.9469
0.019,0.016,0.002,-0.6,-1.3,0.3,0,2018,5,16,19,7,46.572,-0.1384,-0.0416,0.2872,-0.9468
0.021,0.02,-0.003,-0.9,-1.3,0.4,0,2018,5,16,19,7,46.609,-0.1385,-0.0413,0.2872,-0.9468
0.024,0.02,0.005,-1,-0.9,0.4,0,2018,5,16,19,7,46.629,-0.1386,-0.0409,0.2872,-0.9468
0.024,0.023,0.001,-1,-1,0.2,0,2018,5,16,19,7,46.635,-0.1387,-0.0405,0.287,-0.9469
0.022,0.019,0.001,-0.7,-1.6,0.5,0,2018,5,16,19,7,46.674,-0.1386,-0.0402,0.2871,-0.9469
0.021,0.016,0.004,-0.7,-1.9,0.7,0,2018,5,16,19,7,46.692,-0.1387,-0.0399,0.2873,-0.9468
0.02,0.014,0.004,-0.9,-2,0.5,0,2018,5,16,19,7,46.697,-0.1388,-0.0396,0.2874,-0.9468
0.023,0.014,0,-0.8,-1.1,0.2,0,2018,5,16,19,7,46.715,-0.1388,-0.0393,0.2875,-0.9468
0.025,0.015,0.002,-0.7,-1.1,0.3,1023,2018,5,16,19,7,46.754,-0.1387,-0.039,0.2877,-0.9468
0.025,0.016,0.003,-0.8,-1.5,0,1023,2018,5,16,19,7,46.758,-0.1386,-0.0387,0.2878,-0.9467
0.023,0.014,0.001,-1,-1.8,0.2,1023,2018,5,16,19,7,46.774,-0.1387,-0.0383,0.2878,-0.9467
0.018,0.012,-0.002,-1.2,-1.5,0.2,1023,2018,5,16,19,7,46.81,-0.1386,-0.0379,0.2881,-0.9467
0.021,0.007,-0.006,-0.9,-0.7,0.3,1023,2018,5,16,19,7,46.83,-0.1386,-0.0376,0.2883,-0.9467
0.019,0.016,-0.008,-0.6,-0.1,0.2,1023,2018,5,16,19,7,46.832,-0.1386,-0.0373,0.2882,-0.9467
0.021,0.016,0,0,0,0,1023,2018,5,16,19,7,46.87,-0.1386,-0.0371,0.288,-0.9467
0.016,0.02,0.005,0,0,0,1023,2018,5,16,19,7,46.89,-0.1386,-0.037,0.2878,-0.9468
0.018,0.018,-0.003,-0.1,0.4,0.6,1023,2018,5,16,19,7,46.895,-0.1386,-0.0369,0.2876,-0.9469
0.016,0.015,0,-0.1,0.6,0.5,1023,2018,5,16,19,7,46.935,-0.1386,-0.0368,0.2874,-0.9469
0.019,0.021,-0.002,-0.2,0.3,0.5,0,2018,5,16,19,7,46.957,-0.1386,-0.0366,0.2872,-0.947
0.018,0.026,0.004,-0.3,-0.5,0.2,0,2018,5,16,19,7,46.961,-0.1386,-0.0365,0.2869,-0.9471
0.022,0.023,0.001,-0.5,-1.2,0.5,0,2018,5,16,19,7,46.979,-0.1387,-0.0362,0.2868,-0.9471
0.019,0.016,-0.004,-0.4,-1.2,0.7,0,2018,5,16,19,7,47.018,-0.1387,-0.036,0.2869,-0.9471
0.025,0.011,-0.007,-0.4,-0.6,0.7,0,2018,5,16,19,7,47.037,-0.1389,-0.0357,0.2869,-0.9471
0.025,0.012,-0.002,-0.4,-0.2,0.6,0,2018,5,16,19,7,47.041,-0.1389,-0.0355,0.2869,-0.9471
0.02,0.012,-0.001,-0.1,0,0.5,0,2018,5,16,19,7,47.058,-0.1388,-0.0353,0.2868,-0.9472
0.018,0.012,0.001,0,0.6,0.4,0,2018,5,16,19,7,47.077,-0.1388,-0.0352,0.2866,-0.9472
0.021,0.023,0,0,0.9,0.3,0,2018,5,16,19,7,47.114,-0.1386,-0.0351,0.2864,-0.9473
0.02,0.027,-0.004,0,0,0,0,2018,5,16,19,7,47.135,-0.1386,-0.035,0.2863,-0.9474
0.015,0.024,-0.003,-0.1,-0.7,0.7,0,2018,5,16,19,7,47.139,-0.1385,-0.0349,0.2862,-0.9474
0.019,0.016,-0.004,-0.2,-1.1,0.7,0,2018,5,16,19,7,47.159,-0.1385,-0.0348,0.2863,-0.9474
0.013,0.011,0.002,-0.4,-0.6,0.8,0,2018,5,16,19,7,47.18,-0.1386,-0.0346,0.2864,-0.9473
0.016,0.008,0.003,-0.8,-0.6,0.5,0,2018,5,16,19,7,47.22,-0.1387,-0.0344,0.2863,-0.9473
0.015,0.01,-0.009,-1,-0.7,0,0,2018,5,16,19,7,47.224,-0.1387,-0.0341,0.2863,-0.9474
0.019,0.012,-0.006,-0.9,-0.6,0,0,2018,5,16,19,7,47.238,-0.1387,-0.0338,0.2863,-0.9474
0.021,0.019,-0.006,-0.6,-0.2,0,0,2018,5,16,19,7,47.256,-0.1388,-0.0335,0.2861,-0.9474
0.02,0.018,-0.001,0,0,0,0,2018,5,16,19,7,47.276,-0.1387,-0.0333,0.286,-0.9475
0.018,0.019,0,-0.6,-0.6,0.2,0,2018,5,16,19,7,47.314,-0.1388,-0.0331,0.2858,-0.9475
0.018,0.014,0,-0.8,-0.8,0.4,0,2018,5,16,19,7,47.334,-0.1388,-0.0328,0.2859,-0.9475
0.016,0.015,-0.005,-0.7,-0.8,0.5,0,2018,5,16,19,7,47.338,-0.1388,-0.0326,0.2859,-0.9475
0.016,0.016,-0.01,-0.3,-0.8,0.5,0,2018,5,16,19,7,47.375,-0.1387,-0.0324,0.2861,-0.9475
0.016,0.015,-0.004,-0.1,-0.6,0.4,0,2018,5,16,19,7,47.396,-0.1386,-0.0323,0.2861,-0.9475
0.016,0.013,0.002,-0.3,-0.6,0.3,0,2018,5,16,19,7,47.4,-0.1387,-0.0321,0.2861,-0.9475
0.015,0.014,-0.003,-0.6,-0.9,0.3,0,2018,5,16,19,7,47.422,-0.1386,-0.032,0.2863,-0.9475
0.011,0.019,0.003,-0.7,-1.2,0.5,0,2018,5,16,19,7,47.458,-0.1385,-0.0318,0.2864,-0.9474
0.016,0.018,-0.002,-0.7,-1.6,0.7,0,2018,5,16,19,7,47.462,-0.1386,-0.0316,0.2864,-0.9474
0.017,0.012,-0.005,-0.4,-1,0.7,0,2018,5,16,19,7,47.476,-0.1387,-0.0314,0.2864,-0.9474
0.011,0.004,0,-0.4,-0.6,0.3,0,2018,5,16,19,7,47.513,-0.1387,-0.0312,0.2865,-0.9474
0.016,0.012,-0.004,0,0,0,0,2018,5,16,19,7,47.534,-0.1387,-0.0311,0.2865,-0.9474
0.015,0.016,-0.004,0,0,0,0,2018,5,16,19,7,47.538,-0.1387,-0.0309,0.2863,-0.9475
0.015,0.015,-0.002,-0.7,-0.3,0,0,2018,5,16,19,7,47.559,-0.1385,-0.0308,0.2863,-0.9475
0.016,0.019,-0.002,-1,-0.6,0.2,0,2018,5,16,19,7,47.579,-0.1384,-0.0306,0.2863,-0.9475
0.016,0.023,-0.003,-1.3,-1.6,0.3,0,2018,5,16,19,7,47.612,-0.1386,-0.0302,0.2862,-0.9475
0.018,0.015,-0.007,-1.3,-2,0.9,1023,2018,5,16,19,7,47.634,-0.1386,-0.0299,0.2864,-0.9475
0.021,0.005,-0.01,-0.9,-1.5,0.9,1023,2018,5,16,19,7,47.642,-0.1388,-0.0296,0.2866,-0.9474
0.016,0.005,-0.005,-0.6,-0.5,0.7,1023,2018,5,16,19,7,47.663,-0.139,-0.0293,0.2866,-0.9474
0.014,0.01,-0.003,-0.4,-0.7,0.6,1023,2018,5,16,19,7,47.683,-0.139,-0.029,0.2866,-0.9474
0.012,0.013,-0.006,-0.4,-1,0.7,1023,2018,5,16,19,7,47.699,-0.1391,-0.0289,0.2867,-0.9474
0.012,0.013,0,-0.2,-0.4,0.8,1023,2018,5,16,19,7,47.719,-0.1392,-0.0288,0.2867,-0.9473
0.012,0.014,-0.006,-0.5,-0.1,0.8,1023,2018,5,16,19,7,47.758,-0.1393,-0.0286,0.2865,-0.9474
0.015,0.02,-0.003,-0.4,-0.1,0.7,1023,2018,5,16,19,7,47.78,-0.1393,-0.0285,0.2865,-0.9474
0.013,0.019,-0.004,-0.1,-1,0.7,1023,2018,5,16,19,7,47.784,-0.1393,-0.0284,0.2866,-0.9474
0.016,0.015,0,-0.3,-1.2,0.8,1023,2018,5,16,19,7,47.801,-0.1393,-0.0283,0.2868,-0.9473
0.016,0.01,-0.002,-0.2,-1.1,0.9,1023,2018,5,16,19,7,47.84,-0.1394,-0.0282,0.2869,-0.9473
0.016,0.009,-0.002,-0.3,-0.9,1,0,2018,5,16,19,7,47.859,-0.1396,-0.028,0.2868,-0.9473
0.016,0.013,-0.005,-0.3,-0.9,1,0,2018,5,16,19,7,47.862,-0.1398,-0.0278,0.2867,-0.9473
0.02,0.011,-0.008,-0.3,-1.2,0.8,0,2018,5,16,19,7,47.899,-0.1399,-0.0276,0.2869,-0.9472
0.022,0.011,-0.008,0,-0.7,0.7,0,2018,5,16,19,7,47.921,-0.1398,-0.0275,0.2872,-0.9471
0.015,0.016,-0.001,0.3,0,0.8,0,2018,5,16,19,7,47.925,-0.1399,-0.0274,0.2871,-0.9472
0.017,0.018,-0.004,0.4,-0.1,0.8,0,2018,5,16,19,7,47.945,-0.1398,-0.0275,0.2871,-0.9472
0.013,0.017,-0.008,0.4,-0.5,0.7,0,2018,5,16,19,7,47.961,-0.14,-0.0274,0.2868,-0.9472
0.014,0.013,0,0.2,-1.2,0.6,0,2018,5,16,19,7,47.98,-0.1399,-0.0274,0.287,-0.9472
0.009,0.013,0,0,-0.7,0.8,0,2018,5,16,19,7,48.019,-0.1398,-0.0275,0.2873,-0.9471
0.01,0.011,-0.002,-0.1,-0.7,0.8,0,2018,5,16,19,7,48.037,-0.1398,-0.0274,0.2874,-0.9471
0.009,0.01,-0.006,-0.5,-0.9,0.9,0,2018,5,16,19,7,48.042,-0.1398,-0.0274,0.2874,-0.9471
0.011,0.015,-0.004,-0.7,-1.2,0.8,0,2018,5,16,19,7,48.081,-0.1398,-0.0273,0.2876,-0.947
0.014,0.012,-0.008,-1,-1.2,0.7,0,2018,5,16,19,7,48.1,-0.1398,-0.0271,0.2878,-0.947
0.015,0.008,-0.009,-0.4,-0.8,0.7,0,2018,5,16,19,7,48.105,-0.1399,-0.0269,0.2879,-0.9469
0.015,0.008,-0.006,-0.4,-0.2,0.6,0,2018,5,16,19,7,48.144,-0.1399,-0.0267,0.288,-0.9469
0.014,0.012,0,0,0,0,0,2018,5,16,19,7,48.165,-0.1398,-0.0267,0.288,-0.9469
0.013,0.017,-0.002,-0.5,-0.6,0.3,0,2018,5,16,19,7,48.169,-0.1397,-0.0266,0.2879,-0.947
0.015,0.019,-0.006,-0.6,-0.9,0.3,0,2018,5,16,19,7,48.184,-0.1397,-0.0264,0.288,-0.9469
0.014,0.016,-0.005,-0.4,-1,0.6,0,2018,5,16,19,7,48.204,-0.1396,-0.0263,0.2882,-0.9469
0.013,0.011,-0.001,-0.4,-0.6,1,0,2018,5,16,19,7,48.24,-0.1395,-0.0262,0.2884,-0.9469
0.013,0.009,0.001,-0.6,-0.7,1,0,2018,5,16,19,7,48.259,-0.1396,-0.026,0.2883,-0.9469
0.014,0.006,-0.004,-0.6,-0.6,0.7,0,2018,5,16,19,7,48.264,-0.1399,-0.0258,0.2882,-0.9469
0.012,0.009,-0.007,-0.6,-0.2,0.6,0,2018,5,16,19,7,48.303,-0.14,-0.0256,0.2881,-0.9469
0.01,0.017,-0.005,-0.7,-0.4,0.3,0,2018,5,16,19,7,48.323,-0.1399,-0.0255,0.2882,-0.9469
0.013,0.016,0,-0.7,-1,0.4,0,2018,5,16,19,7,48.328,-0.1399,-0.0253,0.2881,-0.9469
0.009,0.016,-0.004,-0.6,-1.2,0.7,0,2018,5,16,19,7,48.349,-0.14,-0.0251,0.2882,-0.9469
0.011,0.013,-0.008,-0.4,-1.2,0.8,0,2018,5,16,19,7,48.368,-0.14,-0.025,0.2883,-0.9468
0.014,0.012,-0.007,-0.4,-1.5,0.7,0,2018,5,16,19,7,48.385,-0.14,-0.0248,0.2885,-0.9468
0.013,0.01,0.003,-0.4,-1.7,0.7,0,2018,5,16,19,7,48.405,-0.1401,-0.0246,0.2886,-0.9467
0.013,0.006,0,-0.5,-1.2,0.6,0,2018,5,16,19,7,48.426,-0.1402,-0.0244,0.2887,-0.9467
0.012,0.012,-0.003,-0.7,-0.6,0.8,0,2018,5,16,19,7,48.446,-0.1403,-0.0242,0.2886,-0.9467
0.011,0.013,-0.002,-0.8,-0.7,0.4,0,2018,5,16,19,7,48.468,-0.1403,-0.0241,0.2887,-0.9467
0.015,0.017,-0.009,-0.9,-1.5,0.4,0,2018,5,16,19,7,48.487,-0.1402,-0.0239,0.2889,-0.9466
0.014,0.012,-0.007,-0.7,-1.5,0.3,0,2018,5,16,19,7,48.524,-0.1402,-0.0236,0.2891,-0.9466
0.016,0.013,-0.002,-0.5,-0.7,0.8,1023,2018,5,16,19,7,48.544,-0.1404,-0.0234,0.289,-0.9466
0.012,0.013,-0.008,-0.1,-0.3,0.7,1023,2018,5,16,19,7,48.548,-0.1405,-0.0232,0.2889,-0.9466
0.012,0.009,-0.01,-0.1,-0.6,0.7,1023,2018,5,16,19,7,48.568,-0.1406,-0.0232,0.2889,-0.9466
0.01,0.013,-0.003,-0.4,-1,0.7,1023,2018,5,16,19,7,48.586,-0.1406,-0.0231,0.289,-0.9466
0.011,0.01,-0.002,-0.3,-0.7,0.8,1023,2018,5,16,19,7,48.627,-0.1407,-0.023,0.289,-0.9466
0.008,0.012,-0.005,-0.2,0,1,1023,2018,5,16,19,7,48.631,-0.1408,-0.023,0.2891,-0.9466
0.011,0.011,-0.007,-0.1,0,1.1,1023,2018,5,16,19,7,48.647,-0.1408,-0.023,0.2891,-0.9465
0.013,0.019,-0.004,-0.4,-0.7,1,1023,2018,5,16,19,7,48.668,-0.1408,-0.0229,0.2891,-0.9465
0.015,0.015,-0.008,-0.4,-1.3,1.2,1023,2018,5,16,19,7,48.687,-0.141,-0.0228,0.2892,-0.9465
0.014,0.012,-0.013,-0.2,-1.3,1.3,1023,2018,5,16,19,7,48.708,-0.1412,-0.0226,0.2892,-0.9465
0.014,0.007,-0.006,-0.1,-0.3,1.3,1023,2018,5,16,19,7,48.744,-0.1412,-0.0226,0.2894,-0.9464
0.014,0.011,-0.004,-0.1,-0.2,1.3,1023,2018,5,16,19,7,48.767,-0.1413,-0.0226,0.2894,-0.9464
0.015,0.011,-0.002,-0.1,-1,1.1,0,2018,5,16,19,7,48.771,-0.1415,-0.0224,0.2893,-0.9464
0.014,0.01,-0.008,-0.1,-0.6,1.2,0,2018,5,16,19,7,48.789,-0.1416,-0.0224,0.2894,-0.9464
0.013,0.011,-0.009,0.1,-0.2,1.1,0,2018,5,16,19,7,48.824,-0.1415,-0.0224,0.2896,-0.9463
0.013,0.01,-0.01,0.1,-0.1,1.1,0,2018,5,16,19,7,48.845,-0.1416,-0.0224,0.2895,-0.9463
0.013,0.012,-0.003,0.1,-0.1,0.8,0,2018,5,16,19,7,48.849,-0.1417,-0.0224,0.2895,-0.9463
0.008,0.013,-0.002,-0.1,-0.6,0.9,0,2018,5,16,19,7,48.887,-0.1417,-0.0225,0.2895,-0.9463
0.011,0.014,-0.008,-0.2,-1,1,0,2018,5,16,19,7,48.892,-0.1418,-0.0224,0.2894,-0.9463
0.012,0.016,-0.004,-0.2,-0.7,1.3,0,2018,5,16,19,7,48.908,-0.1419,-0.0224,0.2895,-0.9463
0.012,0.015,-0.006,0,-0.5,1.4,0,2018,5,16,19,7,48.946,-0.142,-0.0224,0.2896,-0.9462
0.013,0.014,-0.011,-0.2,-0.7,1.7,0,2018,5,16,19,7,48.966,-0.1423,-0.0223,0.2894,-0.9462
0.014,0.012,-0.009,0,-1.2,1.6,0,2018,5,16,19,7,48.97,-0.1424,-0.0223,0.2896,-0.9462
0.013,0.009,-0.003,-0.1,-0.9,1.6,0,2018,5,16,19,7,49.006,-0.1425,-0.0223,0.2897,-0.9461
0.01,0.008,-0.003,0,-0.2,1.3,0,2018,5,16,19,7,49.027,-0.1427,-0.0222,0.2896,-0.9461
0.012,0.008,-0.006,0,-0.1,1.1,0,2018,5,16,19,7,49.032,-0.1429,-0.0221,0.2896,-0.9461
0.009,0.012,-0.006,0,-0.4,1,0,2018,5,16,19,7,49.051,-0.143,-0.0221,0.2896,-0.9461
0.013,0.012,-0.006,0.1,-0.6,1,0,2018,5,16,19,7,49.069,-0.143,-0.0222,0.2896,-0.9461
0.014,0.013,-0.014,0.2,-0.2,0.8,0,2018,5,16,19,7,49.111,-0.143,-0.0222,0.2897,-0.946
0.012,0.016,-0.008,0.4,-0.3,0.8,0,2018,5,16,19,7,49.115,-0.143,-0.0222,0.2897,-0.9461
0.007,0.015,-0.004,0.3,-0.1,1,0,2018,5,16,19,7,49.13,-0.143,-0.0223,0.2896,-0.9461
0.009,0.008,-0.008,0,0,1.1,0,2018,5,16,19,7,49.151,-0.143,-0.0223,0.2897,-0.946
0.011,0.013,-0.004,0,-0.1,0.9,0,2018,5,16,19,7,49.17,-0.1431,-0.0223,0.2896,-0.946
0.011,0.012,-0.006,-0.1,-0.3,0.7,0,2018,5,16,19,7,49.207,-0.1431,-0.0223,0.2897,-0.946
0.014,0.015,-0.005,-0.2,-0.6,0.8,0,2018,5,16,19,7,49.227,-0.1432,-0.0222,0.2895,-0.9461
0.012,0.013,-0.008,-0.1,-0.6,1.1,0,2018,5,16,19,7,49.231,-0.1432,-0.0221,0.2896,-0.946
0.011,0.014,-0.009,0.1,-0.3,1.1,0,2018,5,16,19,7,49.269,-0.1432,-0.0221,0.2897,-0.946
0.011,0.011,-0.008,0.4,-0.6,1,0,2018,5,16,19,7,49.292,-0.1432,-0.0221,0.2898,-0.946
0.013,0.01,-0.009,0.3,-0.7,0.9,0,2018,5,16,19,7,49.296,-0.1433,-0.0221,0.2898,-0.946
0.012,0.01,-0.001,0.3,0,1,0,2018,5,16,19,7,49.311,-0.1431,-0.0223,0.29,-0.9459
0.01,0.014,0,0.3,0,1.1,0,2018,5,16,19,7,49.33,-0.1433,-0.0223,0.2898,-0.946
0.01,0.012,-0.007,0.3,-0.2,1,0,2018,5,16,19,7,49.35,-0.1433,-0.0223,0.2898,-0.946
0.014,0.015,-0.007,0,-1,0.8,0,2018,5,16,19,7,49.388,-0.1433,-0.0224,0.2898,-0.9459
0.012,0.011,-0.009,-0.1,-1.3,0.7,0,2018,5,16,19,7,49.408,-0.1434,-0.0222,0.2899,-0.9459
0.009,0.01,-0.008,0,-0.4,1,0,2018,5,16,19,7,49.412,-0.1435,-0.0222,0.2899,-0.9459
0.011,0.011,-0.011,0.4,0.3,1.3,0,2018,5,16,19,7,49.43,-0.1437,-0.0222,0.2897,-0.9459
0.012,0.011,-0.008,0.4,0.5,1.1,1023,2018,5,16,19,7,49.451,-0.1437,-0.0223,0.2897,-0.9459
0.012,0.013,-0.01,0.5,0,0.8,1023,2018,5,16,19,7,49.491,-0.1436,-0.0225,0.2898,-0.9459
0.008,0.014,-0.002,0.3,-0.1,0.7,1023,2018,5,16,19,7,49.51,-0.1437,-0.0225,0.2896,-0.946
0.004,0.011,0.002,0.3,-0.1,0.7,1023,2018,5,16,19,7,49.514,-0.144,-0.0224,0.2892,-0.946
0.005,0.017,0.002,0,-0.1,1.1,1023,2018,5,16,19,7,49.554,-0.1441,-0.0225,0.2891,-0.9461
0.006,0.015,-0.007,-0.3,-0.4,0.8,1023,2018,5,16,19,7,49.573,-0.1443,-0.0224,0.2889,-0.9461
0.013,0.011,-0.008,-0.5,-0.9,0.9,1023,2018,5,16,19,7,49.577,-0.1444,-0.0223,0.2889,-0.9461
0.015,0.01,-0.013,-0.2,-0.6,1,1023,2018,5,16,19,7,49.594,-0.1445,-0.0222,0.289,-0.946
0.013,0.013,-0.004,0.2,-0.1,1.1,1023,2018,5,16,19,7,49.612,-0.1446,-0.0222,0.2888,-0.9461
0.017,0.013,-0.005,0.2,0.3,1.3,1023,2018,5,16,19,7,49.65,-0.1447,-0.0222,0.2887,-0.9461
0.014,0.011,-0.003,0,-0.2,1,0,2018,5,16,19,7,49.67,-0.1448,-0.0222,0.2886,-0.9461
0.013,0.01,-0.004,-0.4,-1.2,0.8,0,2018,5,16,19,7,49.674,-0.1448,-0.0221,0.2888,-0.9461
0.013,0.013,-0.006,-0.4,-1.2,0.8,0,2018,5,16,19,7,49.695,-0.1447,-0.022,0.2891,-0.946
0.01,0.015,-0.008,-0.3,-0.4,0.7,0,2018,5,16,19,7,49.716,-0.1447,-0.022,0.2893,-0.9459
0.009,0.016,-0.008,-0.1,-0.1,0.9,0,2018,5,16,19,7,49.734,-0.1447,-0.0219,0.2893,-0.9459
0.007,0.013,-0.004,-0.1,0,0.9,0,2018,5,16,19,7,49.757,-0.1448,-0.0219,0.2891,-0.9459
0.01,0.015,-0.002,-0.5,-0.6,0.8,0,2018,5,16,19,7,49.776,-0.1448,-0.0219,0.2892,-0.9459
0.012,0.012,-0.007,-0.5,-0.9,0.6,0,2018,5,16,19,7,49.795,-0.1448,-0.0217,0.2893,-0.9459
0.012,0.012,-0.009,-0.6,-0.9,0.5,0,2018,5,16,19,7,49.814,-0.1449,-0.0216,0.2894,-0.9459
0.011,0.014,-0.008,-0.5,-0.6,0.4,0,2018,5,16,19,7,49.833,-0.1448,-0.0215,0.2896,-0.9458
0.014,0.015,-0.005,-0.2,-0.7,0.7,0,2018,5,16,19,7,49.855,-0.1448,-0.0214,0.2896,-0.9458
0.009,0.015,-0.006,-0.2,-0.8,0.9,0,2018,5,16,19,7,49.874,-0.1447,-0.0213,0.2898,-0.9458
0.009,0.014,-0.009,0.1,-0.6,1.1,0,2018,5,16,19,7,49.911,-0.1448,-0.0213,0.2898,-0.9457
0.014,0.012,0,0.4,-0.1,1.1,0,2018,5,16,19,7,49.931,-0.1449,-0.0213,0.2898,-0.9457
0.013,0.012,-0.009,0.4,-0.4,0.9,0,2018,5,16,19,7,49.938,-0.1448,-0.0214,0.2899,-0.9457
0.013,0.014,-0.003,0.3,-0.7,0.7,0,2018,5,16,19,7,49.956,-0.1449,-0.0213,0.2898,-0.9458
0.01,0.011,-0.005,0.1,-0.7,0.5,0,2018,5,16,19,7,49.976,-0.1448,-0.0213,0.2899,-0.9457
0.006,0.009,-0.001,-0.1,-0.6,0.8,0,2018,5,16,19,7,49.999,-0.1449,-0.0213,0.2899,-0.9457
0.006,0.007,-0.007,-0.5,-1,0.8,0,2018,5,16,19,7,50.014,-0.1449,-0.0213,0.29,-0.9457
0.009,0.01,-0.011,-0.4,-1.2,0.8,0,2018,5,16,19,7,50.053,-0.145,-0.0212,0.2901,-0.9456
0.013,0.012,-0.007,-0.1,-1,0.7,0,2018,5,16,19,7,50.073,-0.145,-0.0211,0.2902,-0.9456
0.014,0.008,-0.01,0,-0.2,0.8,0,2018,5,16,19,7,50.077,-0.145,-0.021,0.2903,-0.9456
0.011,0.01,-0.005,0.4,0.6,0.9,0,2018,5,16,19,7,50.114,-0.1449,-0.0211,0.2903,-0.9456
0.007,0.013,0.007,0,0.1,0.9,0,2018,5,16,19,7,50.115,-0.145,-0.0211,0.2902,-0.9456
0.01,0.012,0,-0.6,-1.1,0.7,0,2018,5,16,19,7,50.134,-0.145,-0.0211,0.2902,-0.9456
0.012,0.014,-0.012,-0.7,-1.3,0.7,0,2018,5,16,19,7,50.171,-0.1449,-0.021,0.2904,-0.9455
0.017,0.017,-0.014,-0.2,-0.7,0.9,0,2018,5,16,19,7,50.195,-0.1449,-0.0209,0.2907,-0.9455
0.014,0.011,-0.006,0,-0.4,1.1,0,2018,5,16,19,7,50.199,-0.1448,-0.0209,0.2909,-0.9454
0.016,0.015,-0.006,0.2,-0.1,1.1,0,2018,5,16,19,7,50.218,-0.145,-0.0209,0.2907,-0.9454
0.012,0.006,0,0.4,-0.1,1,0,2018,5,16,19,7,50.235,-0.1451,-0.0209,0.2906,-0.9455
0.012,0.01,-0.004,0.3,-0.1,0.9,0,2018,5,16,19,7,50.255,-0.1451,-0.021,0.2906,-0.9455
0.012,0.013,-0.001,0,-0.3,0.8,0,2018,5,16,19,7,50.278,-0.1451,-0.0209,0.2905,-0.9455
0.014,0.017,-0.01,0.1,-0.9,0.6,0,2018,5,16,19,7,50.298,-0.145,-0.0209,0.2906,-0.9455
0.011,0.016,-0.009,-0.1,-0.7,0.9,0,2018,5,16,19,7,50.318,-0.1451,-0.0209,0.2906,-0.9455
0.007,0.013,-0.011,0.3,-0.2,1.1,0,2018,5,16,19,7,50.339,-0.1451,-0.0209,0.2907,-0.9454
0.006,0.012,-0.005,0.4,0.1,1.4,0,2018,5,16,19,7,50.374,-0.1451,-0.0211,0.2907,-0.9454
0.01,0.009,-0.008,0.3,0,1.4,0,2018,5,16,19,7,50.394,-0.1453,-0.0212,0.2905,-0.9455
0.005,0.005,-0.009,0.4,0,1,1023,2018,5,16,19,7,50.398,-0.1454,-0.0213,0.2905,-0.9455
0.007,0.007,-0.002,0,-0.1,0.5,1023,2018,5,16,19,7,50.438,-0.1453,-0.0214,0.2907,-0.9454
0.01,0.015,-0.002,-0.3,-0.4,0.5,1023,2018,5,16,19,7,50.457,-0.1452,-0.0214,0.2907,-0.9454
0.013,0.019,-0.002,-0.4,-0.6,0.8,1023,2018,5,16,19,7,50.462,-0.1454,-0.0212,0.2904,-0.9455
0.015,0.012,-0.008,-0.2,-0.5,0.8,1023,2018,5,16,19,7,50.476,-0.1453,-0.0211,0.2905,-0.9455
0.014,0.016,-0.004,-0.1,-0.5,1,1023,2018,5,16,19,7,50.514,-0.1454,-0.021,0.2904,-0.9455
0.013,0.013,-0.009,-0.1,-0.6,1.1,1023,2018,5,16,19,7,50.535,-0.1455,-0.0209,0.2904,-0.9455
0.012,0.01,-0.009,-0.1,-0.6,1.1,1023,2018,5,16,19,7,50.539,-0.1456,-0.0208,0.2904,-0.9455
0.013,0.012,-0.007,-0.1,-0.3,1.3,1023,2018,5,16,19,7,50.558,-0.1457,-0.0208,0.2904,-0.9455
0.008,0.011,-0.002,0,-0.2,1.2,0,2018,5,16,19,7,50.577,-0.1457,-0.0208,0.2905,-0.9454
0.011,0.014,-0.007,0.1,-0.2,0.9,0,2018,5,16,19,7,50.617,-0.1457,-0.0208,0.2904,-0.9454
0.012,0.017,-0.002,0.2,-0.6,0.8,0,2018,5,16,19,7,50.637,-0.1458,-0.0208,0.2904,-0.9454
0.009,0.013,-0.002,0.4,-0.6,0.8,0,2018,5,16,19,7,50.641,-0.1458,-0.0208,0.2904,-0.9454
0.013,0.011,-0.006,0.4,-0.7,0.8,0,2018,5,16,19,7,50.662,-0.1459,-0.0207,0.2902,-0.9455
0.01,0.006,-0.006,0.6,-0.6,0.8,0,2018,5,16,19,7,50.683,-0.1459,-0.0208,0.2903,-0.9454
0.008,0.011,-0.008,0.4,-0.1,0.9,0,2018,5,16,19,7,50.701,-0.1459,-0.0209,0.2904,-0.9454
0.008,0.012,-0.005,0.1,0.1,0.9,0,2018,5,16,19,7,50.72,-0.146,-0.0209,0.2903,-0.9454
0.008,0.016,-0.001,-0.2,-0.5,1,0,2018,5,16,19,7,50.758,-0.1461,-0.0209,0.2901,-0.9455
0.009,0.015,-0.004,-0.4,-1.2,1,0,2018,5,16,19,7,50.778,-0.1461,-0.0208,0.2901,-0.9455
0.013,0.011,-0.003,-0.5,-1.3,1,0,2018,5,16,19,7,50.782,-0.1461,-0.0208,0.2903,-0.9454
0.008,0.01,-0.009,-0.4,-1,1,0,2018,5,16,19,7,50.802,-0.146,-0.0207,0.2907,-0.9453
0.009,0.006,-0.002,-0.4,-0.7,1.1,0,2018,5,16,19,7,50.821,-0.1461,-0.0206,0.2907,-0.9453
0.014,0.007,-0.006,-0.4,-0.6,0.9,0,2018,5,16,19,7,50.84,-0.1464,-0.0205,0.2906,-0.9453
0.013,0.015,0,-0.4,-0.7,0.7,0,2018,5,16,19,7,50.878,-0.1464,-0.0204,0.2907,-0.9453
0.012,0.016,-0.004,-0.4,-1,0.5,0,2018,5,16,19,7,50.901,-0.1465,-0.0202,0.2905,-0.9453
0.011,0.014,-0.004,-0.3,-0.9,0.7,0,2018,5,16,19,7,50.905,-0.1467,-0.02,0.2904,-0.9453
0.009,0.007,-0.006,-0.4,-0.6,1.1,0,2018,5,16,19,7,50.92,-0.1468,-0.0199,0.2904,-0.9453
0.016,0.01,-0.008,-0.1,-0.2,1,0,2018,5,16,19,7,50.938,-0.1467,-0.0199,0.2906,-0.9452
0.01,0.004,-0.005,-0.1,-0.3,0.7,0,2018,5,16,19,7,50.961,-0.1467,-0.0198,0.2907,-0.9452
0.013,0.012,-0.008,-0.1,-0.4,0.7,0,2018,5,16,19,7,50.98,-0.1468,-0.0197,0.2906,-0.9452
0.01,0.017,-0.008,-0.1,-0.6,0.8,0,2018,5,16,19,7,51.001,-0.1466,-0.0197,0.2908,-0.9452
0.012,0.017,-0.007,0,-0.6,1,0,2018,5,16,19,7,51.022,-0.1468,-0.0197,0.2907,-0.9452
0.008,0.017,-0.007,0.3,-1,1.1,0,2018,5,16,19,7,51.044,-0.1469,-0.0197,0.2906,-0.9452
0.011,0.013,-0.003,0.2,-0.7,1.1,0,2018,5,16,19,7,51.062,-0.1469,-0.0198,0.2907,-0.9452
0.009,0.007,-0.001,0.1,-0.7,0.9,0,2018,5,16,19,7,51.1,-0.1468,-0.0199,0.291,-0.9451
0.011,0.011,-0.006,0.2,-0.5,0.7,0,2018,5,16,19,7,51.12,-0.1467,-0.0199,0.2912,-0.9451
0.01,0.012,-0.004,0.1,-0.6,0.6,0,2018,5,16,19,7,51.124,-0.1467,-0.0199,0.2912,-0.9451
0.009,0.013,-0.008,0.2,-0.4,0.5,0,2018,5,16,19,7,51.142,-0.1466,-0.0199,0.2913,-0.9451
0.012,0.016,0,0,-0.2,0.7,0,2018,5,16,19,7,51.16,-0.1467,-0.0199,0.2911,-0.9451
0.011,0.014,0,-0.2,-0.6,0.8,0,2018,5,16,19,7,51.18,-0.1467,-0.0199,0.2911,-0.9451
0.01,0.011,0,-0.6,-1,0.5,0,2018,5,16,19,7,51.22,-0.1466,-0.0198,0.2912,-0.9451
0.012,0.011,-0.008,-0.6,-1.6,0.6,0,2018,5,16,19,7,51.241,-0.1466,-0.0196,0.2913,-0.9451
0.01,0.011,-0.006,-0.4,-1.2,0.7,0,2018,5,16,19,7,51.245,-0.1466,-0.0195,0.2916,-0.945
0.014,0.011,-0.012,0,-0.3,1,0,2018,5,16,19,7,51.264,-0.1466,-0.0194,0.2916,-0.945
0.008,0.012,-0.016,0.2,0.1,0.9,0,2018,5,16,19,7,51.284,-0.1466,-0.0194,0.2916,-0.945
0.009,0.011,-0.011,0.4,0.1,0.7,0,2018,5,16,19,7,51.32,-0.1465,-0.0196,0.2917,-0.9449
0.01,0.012,-0.003,0.3,-0.1,0.7,1023,2018,5,16,19,7,51.34,-0.1466,-0.0196,0.2914,-0.945
0.007,0.012,0,0.1,-0.6,0.8,1023,2018,5,16,19,7,51.344,-0.1467,-0.0195,0.2913,-0.945
0.008,0.013,0.001,-0.4,-0.6,0.8,1023,2018,5,16,19,7,51.361,-0.1467,-0.0196,0.2914,-0.945
0.008,0.014,0,-0.7,-1.1,0.6,1023,2018,5,16,19,7,51.401,-0.1466,-0.0195,0.2915,-0.945
0.009,0.017,-0.003,-0.9,-1.5,0.5,1023,2018,5,16,19,7,51.422,-0.1467,-0.0193,0.2916,-0.945
0.013,0.015,-0.009,-0.7,-1.5,0.5,1023,2018,5,16,19,7,51.427,-0.1468,-0.0191,0.2916,-0.9449
0.016,0.012,-0.01,-0.4,-0.6,1,1023,2018,5,16,19,7,51.445,-0.1468,-0.0189,0.2918,-0.9449
0.013,0.01,-0.008,0.1,0,1.3,1023,2018,5,16,19,7,51.466,-0.1467,-0.0189,0.2919,-0.9449
0.012,0.01,-0.007,0.3,-0.1,1.1,1023,2018,5,16,19,7,51.485,-0.1467,-0.019,0.2919,-0.9449
0.012,0.008,0,0.2,-0.7,0.7,0,2018,5,16,19,7,51.505,-0.1468,-0.0189,0.2918,-0.9449
0.011,0.01,0,0,-1,0.4,0,2018,5,16,19,7,51.542,-0.1466,-0.019,0.2921,-0.9448
0.01,0.014,-0.004,-0.1,-1.3,0.4,0,2018,5,16,19,7,51.563,-0.1466,-0.0188,0.2921,-0.9448
0.013,0.013,-0.009,-0.1,-1,0.6,0,2018,5,16,19,7,51.567,-0.1467,-0.0187,0.2921,-0.9448
0.012,0.014,-0.014,0,-0.7,0.8,0,2018,5,16,19,7,51.588,-0.1468,-0.0186,0.2921,-0.9448
0.01,0.009,-0.009,-0.1,-0.4,1,0,2018,5,16,19,7,51.608,-0.1468,-0.0186,0.2921,-0.9448
0.009,0.008,-0.007,0.1,-0.2,1.2,0,2018,5,16,19,7,51.622,-0.1469,-0.0186,0.2921,-0.9448
0.009,0.009,0,0.1,-0.1,0.6,0,2018,5,16,19,7,51.663,-0.1469,-0.0186,0.292,-0.9448
0.007,0.014,-0.001,0,-0.3,0.6,0,2018,5,16,19,7,51.681,-0.1469,-0.0186,0.292,-0.9448
0.008,0.015,-0.001,-0.3,-0.9,0.7,0,2018,5,16,19,7,51.686,-0.1469,-0.0186,0.292,-0.9448
0.008,0.015,-0.006,-0.6,-1.4,0.7,0,2018,5,16,19,7,51.723,-0.1469,-0.0185,0.2921,-0.9448
0.011,0.011,-0.01,-0.4,-1.6,0.7,0,2018,5,16,19,7,51.744,-0.1467,-0.0185,0.2925,-0.9447
0.013,0.007,-0.01,-0.1,-1,1.1,0,2018,5,16,19,7,51.748,-0.1468,-0.0183,0.2927,-0.9446
0.013,0.005,-0.01,0.1,-0.1,1,0,2018,5,16,19,7,51.785,-0.1469,-0.0182,0.2926,-0.9446
0.012,0.006,-0.008,0.2,0.4,0.9,0,2018,5,16,19,7,51.804,-0.1469,-0.0183,0.2926,-0.9446
0.01,0.013,-0.001,0,-0.1,0.7,0,2018,5,16,19,7,51.808,-0.1469,-0.0183,0.2925,-0.9447
0.009,0.013,0,-0.4,-0.6,0.4,0,2018,5,16,19,7,51.83,-0.1469,-0.0182,0.2923,-0.9447
0.008,0.015,0.001,-0.5,-0.9,0.6,0,2018,5,16,19,7,51.849,-0.1469,-0.0181,0.2923,-0.9447
0.011,0.016,-0.007,-0.6,-0.7,0.7,0,2018,5,16,19,7,51.866,-0.147,-0.018,0.2923,-0.9447
0.011,0.015,-0.007,-0.3,-0.9,0.9,0,2018,5,16,19,7,51.886,-0.147,-0.0179,0.2924,-0.9447
0.014,0.008,-0.01,0,-0.9,1,0,2018,5,16,19,7,51.924,-0.1471,-0.0178,0.2924,-0.9447
0.011,0.011,-0.007,0.3,-0.1,1,0,2018,5,16,19,7,51.946,-0.147,-0.0178,0.2925,-0.9446
0.01,0.007,-0.011,0.4,0.2,1.1,0,2018,5,16,19,7,51.95,-0.1473,-0.0178,0.2922,-0.9447
0.008,0.006,-0.004,0.7,0.1,0.8,0,2018,5,16,19,7,51.986,-0.1472,-0.0179,0.2922,-0.9447
0.006,0.016,0,0.2,-0.5,0.5,0,2018,5,16,19,7,52.007,-0.1473,-0.0179,0.2919,-0.9448
0.01,0.013,0.001,-0.2,-1,0.6,0,2018,5,16,19,7,52.011,-0.1473,-0.0179,0.292,-0.9448
0.01,0.017,-0.003,-0.3,-1.2,0.8,0,2018,5,16,19,7,52.03,-0.1474,-0.0177,0.292,-0.9448
0.009,0.01,-0.009,-0.3,-1,0.9,0,2018,5,16,19,7,52.045,-0.1474,-0.0177,0.2922,-0.9447
0.011,0.008,-0.01,0.3,-0.6,0.9,0,2018,5,16,19,7,52.084,-0.1473,-0.0177,0.2925,-0.9446
0.009,0.011,-0.001,0.5,0,0.8,0,2018,5,16,19,7,52.103,-0.1471,-0.0178,0.2927,-0.9446
0.015,0.009,-0.006,0.5,0.2,0.9,0,2018,5,16,19,7,52.107,-0.147,-0.018,0.2927,-0.9446
0.011,0.018,-0.002,0.3,0,0.8,0,2018,5,16,19,7,52.126,-0.1471,-0.018,0.2924,-0.9447
0.008,0.015,-0.005,-0.1,-0.8,0.5,0,2018,5,16,19,7,52.146,-0.1471,-0.0179,0.2923,-0.9447
0.009,0.013,-0.006,-0.6,-1.3,0.6,0,2018,5,16,19,7,52.183,-0.1471,-0.0178,0.2924,-0.9447
0.015,0.016,-0.011,-0.7,-1.2,0.8,0,2018,5,16,19,7,52.202,-0.1471,-0.0177,0.2926,-0.9446
0.014,0.013,-0.01,-0.2,-0.7,1.3,0,2018,5,16,19,7,52.21,-0.1471,-0.0176,0.2928,-0.9446
0.009,0.003,-0.013,0.1,0,1.3,1023,2018,5,16,19,7,52.23,-0.1472,-0.0176,0.2928,-0.9445
0.009,0.003,-0.012,0.1,0.4,1.1,1023,2018,5,16,19,7,52.25,-0.1473,-0.0176,0.2928,-0.9445
0.006,0.007,-0.005,0.1,0.3,0.5,1023,2018,5,16,19,7,52.272,-0.1472,-0.0176,0.2927,-0.9446
0.004,0.015,-0.001,0,0,0,1023,2018,5,16,19,7,52.292,-0.1473,-0.0176,0.2925,-0.9446
0.009,0.026,-0.002,-0.5,-0.6,0.6,1023,2018,5,16,19,7,52.308,-0.1472,-0.0176,0.2923,-0.9447
0.011,0.024,-0.004,-0.6,-1,1.2,1023,2018,5,16,19,7,52.346,-0.1472,-0.0175,0.2924,-0.9447
0.012,0.013,-0.007,-0.5,-0.9,1.3,1023,2018,5,16,19,7,52.366,-0.1474,-0.0174,0.2923,-0.9447
0.016,0.007,-0.009,-0.4,-0.7,1.3,1023,2018,5,16,19,7,52.37,-0.1475,-0.0173,0.2924,-0.9446
0.014,0.004,-0.003,-0.2,-0.6,1,1023,2018,5,16,19,7,52.39,-0.1475,-0.0172,0.2925,-0.9446
0.016,0.01,-0.004,-0.2,-0.6,1,0,2018,5,16,19,7,52.409,-0.1474,-0.0171,0.2927,-0.9445
0.011,0.012,-0.004,-0.2,-0.6,1.1,0,2018,5,16,19,7,52.447,-0.1475,-0.017,0.2926,-0.9445
0.01,0.013,-0.006,-0.1,-0.5,1.1,0,2018,5,16,19,7,52.467,-0.1476,-0.017,0.2926,-0.9445
0.01,0.014,-0.01,-0.1,-0.7,0.9,0,2018,5,16,19,7,52.471,-0.1475,-0.0169,0.2928,-0.9445
0.011,0.014,-0.01,0.1,-0.7,0.6,0,2018,5,16,19,7,52.492,-0.1477,-0.0169,0.2927,-0.9445
0.01,0.011,-0.004,0.3,-0.4,0.7,0,2018,5,16,19,7,52.512,-0.1476,-0.0169,0.2928,-0.9445
0.007,0.013,-0.001,0.2,-0.1,0.9,0,2018,5,16,19,7,52.53,-0.1476,-0.0169,0.2927,-0.9445
0.007,0.016,-0.006,0,-0.2,1,0,2018,5,16,19,7,52.55,-0.1476,-0.017,0.2928,-0.9445
0.007,0.013,-0.003,-0.1,-0.7,0.9,0,2018,5,16,19,7,52.569,-0.1477,-0.017,0.2926,-0.9445
0.013,0.014,-0.004,0,-0.8,0.7,0,2018,5,16,19,7,52.608,-0.1478,-0.0169,0.2926,-0.9445
0.011,0.013,-0.006,-0.1,-1,0.8,0,2018,5,16,19,7,52.628,-0.1478,-0.0168,0.2927,-0.9445
0.014,0.011,-0.008,-0.2,-1,0.7,0,2018,5,16,19,7,52.632,-0.1479,-0.0167,0.2926,-0.9445
0.013,0.007,-0.005,-0.1,-0.9,0.9,0,2018,5,16,19,7,52.671,-0.1479,-0.0166,0.2928,-0.9445
0.01,0.009,-0.005,-0.1,-0.4,1,0,2018,5,16,19,7,52.69,-0.148,-0.0166,0.2927,-0.9445
0.009,0.013,-0.002,-0.2,-0.2,0.8,0,2018,5,16,19,7,52.695,-0.1481,-0.0165,0.2927,-0.9445
0.012,0.011,-0.008,-0.1,-0.1,0.8,0,2018,5,16,19,7,52.714,-0.1482,-0.0164,0.2925,-0.9445
0.011,0.01,-0.011,-0.1,0,0.9,0,2018,5,16,19,7,52.752,-0.1481,-0.0164,0.2927,-0.9445
0.006,0.015,0.002,-0.3,-0.2,0.7,0,2018,5,16,19,7,52.757,-0.1481,-0.0164,0.2926,-0.9445
0.006,0.016,-0.004,-0.3,-0.7,0.7,0,2018,5,16,19,7,52.771,-0.1482,-0.0163,0.2924,-0.9445
0.011,0.013,-0.001,-0.4,-1.3,0.7,0,2018,5,16,19,7,52.79,-0.1481,-0.0162,0.2926,-0.9445
0.015,0.012,-0.006,-0.2,-1.2,0.8,0,2018,5,16,19,7,52.809,-0.1482,-0.016,0.2925,-0.9445
0.014,0.009,-0.007,0,-0.7,1,0,2018,5,16,19,7,52.848,-0.1482,-0.0159,0.2927,-0.9444
0.012,0.008,-0.009,0,-0.1,1,0,2018,5,16,19,7,52.868,-0.1482,-0.0159,0.2927,-0.9444
0.009,0.009,-0.011,0.3,0,0.8,0,2018,5,16,19,7,52.872,-0.1483,-0.0158,0.2925,-0.9445
0.01,0.014,-0.004,0.2,0,0.7,0,2018,5,16,19,7,52.894,-0.1484,-0.0158,0.2923,-0.9445
0.009,0.012,-0.001,0.1,-0.5,0.8,0,2018,5,16,19,7,52.914,-0.1485,-0.0158,0.2922,-0.9445
0.005,0.013,-0.004,0.1,-0.3,0.9,0,2018,5,16,19,7,52.952,-0.1484,-0.0159,0.2924,-0.9445
0.011,0.015,0,-0.1,-0.5,0.8,0,2018,5,16,19,7,52.956,-0.1483,-0.016,0.2925,-0.9445
0.008,0.015,-0.005,0.1,-1.1,0.6,0,2018,5,16,19,7,52.973,-0.1482,-0.016,0.2926,-0.9445
0.009,0.015,-0.008,0.1,-1.2,0.7,0,2018,5,16,19,7,53.009,-0.1484,-0.0159,0.2925,-0.9445
0.01,0.011,-0.013,0.3,-0.7,0.7,0,2018,5,16,19,7,53.031,-0.1482,-0.0159,0.2927,-0.9444
0.009,0.008,-0.006,0.1,-0.1,0.7,0,2018,5,16,19,7,53.035,-0.1483,-0.0159,0.2927,-0.9444
0.01,0.012,-0.004,0.1,0,0.7,0,2018,5,16,19,7,53.052,-0.1483,-0.0159,0.2926,-0.9445
0.014,0.013,-0.005,-0.1,-0.4,0.7,1023,2018,5,16,19,7,53.088,-0.1483,-0.0159,0.2926,-0.9445
0.014,0.012,-0.003,-0.4,-1,0.8,1023,2018,5,16,19,7,53.108,-0.1483,-0.0158,0.2926,-0.9445
0.011,0.012,-0.003,-0.9,-0.9,0.5,1023,2018,5,16,19,7,53.115,-0.1482,-0.0157,0.2928,-0.9444
0.012,0.01,-0.008,-0.8,-1.3,0.5,1023,2018,5,16,19,7,53.135,-0.1485,-0.0154,0.2926,-0.9444
0.008,0.007,-0.001,-0.6,-1.1,0.7,1023,2018,5,16,19,7,53.155,-0.1486,-0.0152,0.2926,-0.9444
0.012,0.014,-0.013,-0.4,-0.9,0.8,1023,2018,5,16,19,7,53.192,-0.1486,-0.015,0.2927,-0.9444
0.013,0.013,-0.01,0.1,-0.2,1,1023,2018,5,16,19,7,53.214,-0.1487,-0.0149,0.2927,-0.9444
0.011,0.013,-0.011,0.6,0.1,1.1,1023,2018,5,16,19,7,53.218,-0.1489,-0.0149,0.2925,-0.9444
0.007,0.014,-0.003,0.6,0.2,1,1023,2018,5,16,19,7,53.233,-0.149,-0.015,0.2922,-0.9445
0.009,0.016,-0.002,0.5,-0.2,1.1,0,2018,5,16,19,7,53.27,-0.1489,-0.0152,0.2923,-0.9445
0.011,0.017,-0.007,0.3,-0.7,1.1,0,2018,5,16,19,7,53.294,-0.149,-0.0152,0.2921,-0.9445
0.013,0.015,-0.005,0.3,-1,1.3,0,2018,5,16,19,7,53.298,-0.149,-0.0153,0.2923,-0.9445
0.012,0.013,-0.008,0.3,-1,1.4,0,2018,5,16,19,7,53.317,-0.1492,-0.0153,0.2923,-0.9444
0.011,0.007,-0.01,0.4,-0.4,1.4,0,2018,5,16,19,7,53.335,-0.1494,-0.0153,0.2923,-0.9444
0.012,0.007,-0.011,0.6,0.1,1,0,2018,5,16,19,7,53.375,-0.1494,-0.0154,0.2923,-0.9444
0.011,0.007,0,0.3,0,0.8,0,2018,5,16,19,7,53.396,-0.1495,-0.0154,0.2922,-0.9444
0.011,0.012,-0.001,0.1,-0.6,0.9,0,2018,5,16,19,7,53.4,-0.1494,-0.0155,0.2923,-0.9444
0.011,0.014,-0.005,0,-0.6,0.9,0,2018,5,16,19,7,53.418,-0.1495,-0.0154,0.2922,-0.9444
0.011,0.014,-0.005,0,-0.7,0.9,0,2018,5,16,19,7,53.437,-0.1495,-0.0154,0.2922,-0.9444
0.015,0.013,-0.005,0,-0.7,0.9,0,2018,5,16,19,7,53.455,-0.1495,-0.0154,0.2923,-0.9444
0.012,0.013,-0.007,0.3,-0.2,0.7,0,2018,5,16,19,7,53.475,-0.1494,-0.0155,0.2924,-0.9443
0.011,0.013,-0.009,0.4,-0.4,0.7,0,2018,5,16,19,7,53.513,-0.1494,-0.0155,0.2925,-0.9443
0.011,0.011,-0.007,0.6,-0.3,0.8,0,2018,5,16,19,7,53.535,-0.1493,-0.0156,0.2926,-0.9443
0.008,0.013,0,0.6,-0.1,0.7,0,2018,5,16,19,7,53.539,-0.1492,-0.0157,0.2926,-0.9443
0.01,0.015,-0.006,0.3,-0.2,0.7,0,2018,5,16,19,7,53.557,-0.1493,-0.0158,0.2924,-0.9444
0.011,0.012,-0.005,0.3,-0.5,0.8,0,2018,5,16,19,7,53.577,-0.1494,-0.0158,0.2923,-0.9444
0.011,0.013,-0.007,0.4,-0.9,1,0,2018,5,16,19,7,53.616,-0.1495,-0.0158,0.2922,-0.9444
0.012,0.01,-0.008,0.3,-0.8,1.1,0,2018,5,16,19,7,53.637,-0.1496,-0.0158,0.2922,-0.9444
0.008,0.011,-0.014,0.4,-0.4,1.1,0,2018,5,16,19,7,53.641,-0.1495,-0.0158,0.2923,-0.9443
0.014,0.012,-0.011,0.4,-0.1,0.8,0,2018,5,16,19,7,53.656,-0.1496,-0.0159,0.2923,-0.9443
0.006,0.011,-0.004,0.6,-0.4,0.7,0,2018,5,16,19,7,53.675,-0.1496,-0.016,0.2923,-0.9443
0.01,0.012,0.002,0.4,-0.6,0.7,0,2018,5,16,19,7,53.695,-0.1495,-0.0161,0.2923,-0.9443
0.011,0.014,-0.001,0.3,-1,0.7,0,2018,5,16,19,7,53.736,-0.1495,-0.0161,0.2924,-0.9443
0.014,0.011,-0.01,0.3,-1.2,0.7,0,2018,5,16,19,7,53.755,-0.1494,-0.0162,0.2926,-0.9443
0.009,0.012,-0.006,0.3,-0.6,0.8,0,2018,5,16,19,7,53.759,-0.1495,-0.0161,0.2925,-0.9443
0.009,0.012,-0.004,0.2,-0.7,0.7,0,2018,5,16,19,7,53.779,-0.1495,-0.0162,0.2926,-0.9443
0.01,0.01,-0.008,0.2,-1,0.7,0,2018,5,16,19,7,53.816,-0.1495,-0.0162,0.2927,-0.9442
0.012,0.012,-0.005,0.1,-1.3,0.5,0,2018,5,16,19,7,53.838,-0.1493,-0.0162,0.2929,-0.9442
0.012,0.011,-0.007,0,-1.1,0.4,0,2018,5,16,19,7,53.842,-0.1492,-0.0162,0.2932,-0.9441
0.012,0.011,-0.009,0,-0.6,0.7,0,2018,5,16,19,7,53.859,-0.1492,-0.0161,0.2933,-0.9441
0.009,0.009,-0.006,0.1,-0.3,0.7,0,2018,5,16,19,7,53.877,-0.1492,-0.0161,0.2932,-0.9441
0.009,0.01,-0.004,0.3,-0.5,0.5,0,2018,5,16,19,7,53.916,-0.1492,-0.0162,0.2932,-0.9441
0.012,0.014,-0.007,0.3,-0.2,0.5,1023,2018,5,16,19,7,53.934,-0.1491,-0.0162,0.2933,-0.9441
0.008,0.015,-0.002,0.1,0,0.6,1023,2018,5,16,19,7,53.939,-0.1491,-0.0163,0.2932,-0.9441
0.011,0.018,-0.001,0,-0.4,0.9,1023,2018,5,16,19,7,53.958,-0.1491,-0.0163,0.2932,-0.9442
0.009,0.018,-0.003,-0.2,-0.7,0.9,1023,2018,5,16,19,7,53.996,-0.1491,-0.0162,0.2931,-0.9442
0.012,0.016,0,-0.7,-1.3,0.9,1023,2018,5,16,19,7,54.016,-0.1492,-0.0161,0.2932,-0.9441
0.011,0.011,-0.008,-0.5,-1.4,1.1,1023,2018,5,16,19,7,54.02,-0.1492,-0.016,0.2934,-0.9441
0.009,0.006,-0.007,-0.3,-0.7,1.1,1023,2018,5,16,19,7,54.041,-0.1494,-0.0158,0.2933,-0.944
0.009,0.004,-0.007,0,-0.3,1,1023,2018,5,16,19,7,54.061,-0.1496,-0.0157,0.2933,-0.944
0.012,0.007,-0.006,-0.2,-0.1,0.7,1023,2018,5,16,19,7,54.1,-0.1497,-0.0156,0.2932,-0.9441
0.008,0.011,-0.009,0,0,0,1023,2018,5,16,19,7,54.121,-0.1496,-0.0156,0.2932,-0.9441
0.008,0.015,-0.009,-0.2,-0.1,0.5,0,2018,5,16,19,7,54.125,-0.1496,-0.0155,0.2931,-0.9441
0.011,0.018,-0.008,-0.1,-0.6,0.6,0,2018,5,16,19,7,54.141,-0.1497,-0.0154,0.2929,-0.9442
0.01,0.019,-0.004,-0.2,-0.6,0.8,0,2018,5,16,19,7,54.159,-0.1496,-0.0154,0.293,-0.9441
0.009,0.013,-0.011,-0.2,-0.8,1.1,0,2018,5,16,19,7,54.197,-0.1496,-0.0154,0.293,-0.9441
0.012,0.014,-0.01,-0.1,-0.6,1,0,2018,5,16,19,7,54.219,-0.1496,-0.0154,0.2932,-0.9441
0.011,0.011,-0.004,-0.1,-0.4,1,0,2018,5,16,19,7,54.223,-0.1497,-0.0153,0.2932,-0.9441
0.009,0.009,-0.003,0,-0.4,0.9,0,2018,5,16,19,7,54.241,-0.1496,-0.0153,0.2934,-0.944
0.007,0.011,-0.007,-0.1,-0.3,0.7,0,2018,5,16,19,7,54.277,-0.1495,-0.0153,0.2935,-0.944
0.009,0.013,-0.012,-0.2,-0.7,0.7,0,2018,5,16,19,7,54.298,-0.1496,-0.0153,0.2934,-0.944
0.01,0.016,-0.002,-0.2,-0.9,0.6,0,2018,5,16,19,7,54.302,-0.1496,-0.0151,0.2933,-0.944
0.014,0.014,-0.002,-0.3,-0.8,1,0,2018,5,16,19,7,54.323,-0.1497,-0.015,0.2933,-0.944
0.013,0.01,-0.007,-0.2,-0.7,1.2,0,2018,5,16,19,7,54.344,-0.1499,-0.0149,0.2933,-0.944
0.011,0.01,-0.008,0,-0.7,1.1,0,2018,5,16,19,7,54.361,-0.1499,-0.0149,0.2934,-0.944
0.013,0.008,-0.005,0,-0.6,0.9,0,2018,5,16,19,7,54.38,-0.15,-0.0148,0.2933,-0.944
0.011,0.012,-0.009,0.1,-0.4,0.9,0,2018,5,16,19,7,54.42,-0.15,-0.0148,0.2935,-0.9439
0.008,0.011,-0.006,0.2,-0.3,0.8,0,2018,5,16,19,7,54.44,-0.1499,-0.0149,0.2936,-0.9439
0.01,0.014,-0.003,0.1,-0.4,0.8,0,2018,5,16,19,7,54.444,-0.1499,-0.0149,0.2935,-0.9439
0.007,0.019,-0.001,-0.2,-0.5,0.8,0,2018,5,16,19,7,54.463,-0.15,-0.0149,0.2935,-0.9439
0.009,0.013,0,-0.4,-0.9,1,0,2018,5,16,19,7,54.483,-0.1499,-0.0149,0.2937,-0.9439
0.01,0.01,-0.012,-0.6,-1,0.8,0,2018,5,16,19,7,54.52,-0.15,-0.0148,0.2938,-0.9438
0.011,0.01,-0.008,-0.4,-0.9,1,0,2018,5,16,19,7,54.54,-0.15,-0.0147,0.294,-0.9438
0.013,0.01,-0.012,-0.2,-0.6,0.8,0,2018,5,16,19,7,54.544,-0.1499,-0.0146,0.2941,-0.9437
0.01,0.012,-0.012,0.2,0,0.9,0,2018,5,16,19,7,54.564,-0.1499,-0.0146,0.2942,-0.9437
0.01,0.009,-0.005,0.4,0.1,1,0,2018,5,16,19,7,54.584,-0.1499,-0.0147,0.2942,-0.9437
0.01,0.013,0.004,0.3,0,0.8,0,2018,5,16,19,7,54.601,-0.1499,-0.0148,0.294,-0.9438
0.011,0.013,0,0,-0.2,0.8,0,2018,5,16,19,7,54.621,-0.15,-0.0147,0.2938,-0.9438
0.011,0.016,-0.007,-0.2,-0.9,0.8,0,2018,5,16,19,7,54.659,-0.1501,-0.0147,0.2938,-0.9438
0.012,0.014,-0.002,-0.1,-1,1,0,2018,5,16,19,7,54.68,-0.1501,-0.0146,0.2939,-0.9438
0.01,0.011,-0.011,-0.2,-0.9,1,0,2018,5,16,19,7,54.684,-0.1501,-0.0146,0.294,-0.9438
0.015,0.01,-0.01,0,-0.4,1,0,2018,5,16,19,7,54.704,-0.1501,-0.0145,0.2941,-0.9437
0.012,0.006,-0.013,0.2,0,0.8,0,2018,5,16,19,7,54.724,-0.15,-0.0146,0.2944,-0.9437
0.01,0.01,-0.005,0.1,0,0.8,1023,2018,5,16,19,7,54.744,-0.15,-0.0147,0.2943,-0.9437
0.008,0.013,-0.002,0.2,-0.4,0.6,1023,2018,5,16,19,7,54.764,-0.15,-0.0147,0.2942,-0.9437
0.012,0.014,0.005,0.3,0,0.9,1023,2018,5,16,19,7,54.805,-0.1501,-0.0147,0.294,-0.9437
0.01,0.015,-0.002,0.1,-0.2,1,1023,2018,5,16,19,7,54.824,-0.15,-0.0148,0.2941,-0.9437
0.012,0.014,0.002,-0.1,-0.7,1.1,1023,2018,5,16,19,7,54.829,-0.1501,-0.0147,0.294,-0.9438
0.01,0.015,-0.007,-0.2,-1,0.8,1023,2018,5,16,19,7,54.845,-0.15,-0.0147,0.2943,-0.9437
0.012,0.013,-0.008,-0.2,-0.9,1,1023,2018,5,16,19,7,54.864,-0.15,-0.0147,0.2944,-0.9437
0.012,0.009,-0.005,0,-0.2,1,1023,2018,5,16,19,7,54.884,-0.15,-0.0147,0.2945,-0.9436
0.007,0.009,-0.003,0.1,0.1,1,1023,2018,5,16,19,7,54.922,-0.1499,-0.0148,0.2946,-0.9436
0.008,0.008,-0.001,0.1,-0.1,0.8,1023,2018,5,16,19,7,54.944,-0.15,-0.0148,0.2945,-0.9436
0.007,0.014,-0.003,0,0,0.6,0,2018,5,16,19,7,54.949,-0.1501,-0.0148,0.2943,-0.9437
0.007,0.013,-0.004,0,-0.2,0.6,0,2018,5,16,19,7,54.965,-0.1502,-0.0147,0.2941,-0.9437
0.009,0.017,-0.005,-0.3,-0.5,0.5,0,2018,5,16,19,7,54.988,-0.1503,-0.0147,0.2939,-0.9438
0.009,0.015,-0.01,-0.1,-0.6,0.8,0,2018,5,16,19,7,55.007,-0.1504,-0.0145,0.2937,-0.9438
0.012,0.012,-0.009,-0.2,-0.9,1,0,2018,5,16,19,7,55.026,-0.1505,-0.0144,0.2937,-0.9438
0.011,0.012,-0.01,0,-0.6,1,0,2018,5,16,19,7,55.064,-0.1506,-0.0144,0.2937,-0.9438
0.011,0.01,-0.005,-0.1,-0.2,0.9,0,2018,5,16,19,7,55.068,-0.1506,-0.0143,0.2936,-0.9438
0.012,0.011,-0.007,-0.2,-0.4,0.9,0,2018,5,16,19,7,55.083,-0.1506,-0.0143,0.2937,-0.9438
0.013,0.014,-0.003,-0.3,-0.7,0.7,0,2018,5,16,19,7,55.12,-0.1506,-0.0143,0.2937,-0.9438
0.013,0.01,-0.006,-0.4,-0.8,0.7,0,2018,5,16,19,7,55.143,-0.1505,-0.0142,0.2939,-0.9437
0.013,0.013,-0.003,-0.1,-0.5,0.7,0,2018,5,16,19,7,55.155,-0.1504,-0.0142,0.294,-0.9437
0.011,0.01,-0.006,-0.1,-0.5,0.8,0,2018,5,16,19,7,55.164,-0.1505,-0.0141,0.2939,-0.9437
0.013,0.01,-0.007,0,-0.7,0.8,0,2018,5,16,19,7,55.204,-0.1506,-0.014,0.2939,-0.9437
0.012,0.012,-0.007,-0.1,-0.6,0.8,0,2018,5,16,19,7,55.222,-0.1505,-0.014,0.2939,-0.9437
0.01,0.013,-0.007,0.1,-0.6,0.7,0,2018,5,16,19,7,55.225,-0.1506,-0.0139,0.2938,-0.9437
0.007,0.013,-0.005,0,-0.5,0.7,0,2018,5,16,19,7,55.261,-0.1505,-0.014,0.294,-0.9437
0.012,0.014,-0.007,-0.4,-0.8,0.7,0,2018,5,16,19,7,55.282,-0.1505,-0.0139,0.294,-0.9437
0.013,0.011,-0.006,-0.4,-0.8,0.7,0,2018,5,16,19,7,55.285,-0.1507,-0.0137,0.2939,-0.9437
0.011,0.01,-0.01,-0.4,-0.7,0.6,0,2018,5,16,19,7,55.319,-0.1509,-0.0136,0.2937,-0.9437
0.009,0.01,-0.009,-0.4,-0.6,0.6,0,2018,5,16,19,7,55.339,-0.151,-0.0134,0.2936,-0.9438
0.01,0.013,-0.008,-0.2,-0.5,0.7,0,2018,5,16,19,7,55.343,-0.151,-0.0133,0.2937,-0.9437
0.013,0.009,-0.012,-0.2,-0.2,0.8,0,2018,5,16,19,7,55.383,-0.1509,-0.0133,0.2937,-0.9437
0.01,0.009,-0.007,-0.2,-0.1,0.7,0,2018,5,16,19,7,55.404,-0.151,-0.0132,0.2936,-0.9438
0.008,0.01,0,-0.2,-0.6,0.6,0,2018,5,16,19,7,55.408,-0.1509,-0.0132,0.2937,-0.9437
0.008,0.009,-0.003,-0.5,-0.6,0.5,0,2018,5,16,19,7,55.445,-0.1508,-0.0131,0.2938,-0.9437
0.012,0.013,-0.007,-0.6,-0.7,0.4,0,2018,5,16,19,7,55.465,-0.1509,-0.013,0.2936,-0.9438
0.012,0.013,-0.011,-0.6,-0.8,0.5,0,2018,5,16,19,7,55.469,-0.1509,-0.0128,0.2938,-0.9437
0.014,0.012,-0.011,-0.3,-0.7,0.3,0,2018,5,16,19,7,55.486,-0.1508,-0.0127,0.2939,-0.9437
0.013,0.011,-0.008,0,-0.4,0.7,0,2018,5,16,19,7,55.506,-0.1508,-0.0126,0.2938,-0.9437
0.011,0.01,-0.004,0,0.2,0.8,0,2018,5,16,19,7,55.544,-0.1509,-0.0126,0.2936,-0.9438
0.008,0.013,0.002,0,0,0.7,0,2018,5,16,19,7,55.564,-0.151,-0.0125,0.2934,-0.9438
0.006,0.011,-0.003,-0.5,-0.6,0.7,0,2018,5,16,19,7,55.568,-0.151,-0.0125,0.2933,-0.9439
0.009,0.018,-0.003,-0.9,-1.6,0.7,1023,2018,5,16,19,7,55.589,-0.1509,-0.0124,0.2935,-0.9438
0.012,0.015,-0.008,-1.2,-1.8,0.7,1023,2018,5,16,19,7,55.61,-0.1509,-0.0122,0.2938,-0.9437
0.013,0.011,-0.006,-1.2,-1.4,1,1023,2018,5,16,19,7,55.648,-0.1508,-0.012,0.2941,-0.9436
0.014,0.007,-0.007,-0.7,-0.7,1.2,1023,2018,5,16,19,7,55.667,-0.1509,-0.0118,0.2943,-0.9436
0.013,0.008,-0.013,-0.4,-0.7,1,1023,2018,5,16,19,7,55.671,-0.1513,-0.0115,0.294,-0.9436
0.013,0.008,-0.012,0,-0.6,0.8,1023,2018,5,16,19,7,55.709,-0.1512,-0.0115,0.2941,-0.9436
0.011,0.012,-0.006,0,-0.2,0.5,1023,2018,5,16,19,7,55.728,-0.1511,-0.0115,0.2943,-0.9435
0.009,0.012,-0.002,0,-0.4,0.5,1023,2018,5,16,19,7,55.732,-0.151,-0.0115,0.2944,-0.9435
0.013,0.014,-0.005,0,-0.4,0.7,1023,2018,5,16,19,7,55.752,-0.1509,-0.0114,0.2944,-0.9436
0.01,0.011,-0.009,0,-0.5,0.7,1023,2018,5,16,19,7,55.768,-0.1509,-0.0114,0.2944,-0.9435
0.009,0.009,-0.005,0.1,-0.5,0.7,0,2018,5,16,19,7,55.788,-0.1509,-0.0114,0.2945,-0.9435
0.009,0.011,-0.005,0,0,0.9,0,2018,5,16,19,7,55.808,-0.1509,-0.0115,0.2945,-0.9435
0.009,0.017,-0.004,0,-0.2,1,0,2018,5,16,19,7,55.847,-0.1509,-0.0115,0.2944,-0.9435
0.011,0.011,-0.004,-0.1,-0.1,1,0,2018,5,16,19,7,55.866,-0.151,-0.0115,0.2943,-0.9436
0.01,0.015,-0.004,-0.1,-0.1,0.8,0,2018,5,16,19,7,55.87,-0.1511,-0.0115,0.2942,-0.9436
0.007,0.016,-0.004,-0.3,-0.7,0.8,0,2018,5,16,19,7,55.909,-0.1512,-0.0114,0.294,-0.9436
0.012,0.013,-0.005,-0.5,-1.2,0.8,0,2018,5,16,19,7,55.93,-0.1512,-0.0113,0.2941,-0.9436
0.011,0.012,-0.006,-0.5,-1,0.8,0,2018,5,16,19,7,55.934,-0.1512,-0.0112,0.2942,-0.9436
0.014,0.012,-0.005,-0.3,-1,0.9,0,2018,5,16,19,7,55.955,-0.1512,-0.0111,0.2943,-0.9435
0.013,0.007,-0.004,-0.2,-0.7,1,0,2018,5,16,19,7,55.975,-0.1512,-0.011,0.2945,-0.9435
0.015,0.009,-0.007,0,-0.6,0.8,0,2018,5,16,19,7,55.989,-0.1512,-0.0109,0.2946,-0.9435
0.011,0.011,-0.005,-0.1,-0.5,0.8,0,2018,5,16,19,7,56.029,-0.1511,-0.0109,0.2946,-0.9434
0.013,0.017,-0.011,0,-0.6,0.8,0,2018,5,16,19,7,56.048,-0.1511,-0.0109,0.2947,-0.9434
0.01,0.011,-0.005,0.3,-0.2,1,0,2018,5,16,19,7,56.052,-0.1512,-0.0109,0.2946,-0.9434
0.004,0.015,-0.01,0.4,-0.4,0.8,0,2018,5,16,19,7,56.072,-0.1512,-0.0109,0.2946,-0.9434
0.008,0.012,-0.003,0.1,-0.5,0.7,0,2018,5,16,19,7,56.093,-0.1514,-0.0109,0.2944,-0.9435
0.011,0.014,-0.006,0.2,-0.6,0.7,0,2018,5,16,19,7,56.131,-0.1514,-0.0109,0.2944,-0.9435
0.01,0.012,-0.009,0,-0.4,0.8,0,2018,5,16,19,7,56.151,-0.1514,-0.0109,0.2944,-0.9435
0.013,0.012,-0.006,0.1,-0.2,1,0,2018,5,16,19,7,56.156,-0.1512,-0.011,0.2946,-0.9434
0.013,0.01,-0.004,0.1,-0.4,0.8,0,2018,5,16,19,7,56.176,-0.1513,-0.011,0.2945,-0.9435
0.01,0.012,0,-0.2,-0.9,0.8,0,2018,5,16,19,7,56.196,-0.1514,-0.0109,0.2944,-0.9435
0.006,0.01,-0.005,-0.5,-0.9,0.6,0,2018,5,16,19,7,56.211,-0.1513,-0.0108,0.2946,-0.9434
0.01,0.01,-0.004,-0.3,-0.8,0.7,0,2018,5,16,19,7,56.23,-0.1514,-0.0107,0.2946,-0.9434
0.011,0.014,-0.01,-0.2,-0.6,0.7,0,2018,5,16,19,7,56.269,-0.1514,-0.0106,0.2946,-0.9434
0.01,0.016,-0.01,-0.1,-0.7,0.8,0,2018,5,16,19,7,56.289,-0.1514,-0.0105,0.2946,-0.9434
0.012,0.01,-0.015,0.1,0.1,0.8,0,2018,5,16,19,7,56.294,-0.1513,-0.0106,0.2947,-0.9434
0.009,0.007,-0.006,0.4,0.5,0.8,0,2018,5,16,19,7,56.313,-0.1512,-0.0106,0.2947,-0.9434
0.008,0.017,-0.003,0,0.4,0.6,0,2018,5,16,19,7,56.333,-0.1512,-0.0107,0.2945,-0.9435
0.007,0.013,0.004,0,-0.7,0.5,0,2018,5,16,19,7,56.355,-0.1511,-0.0107,0.2944,-0.9435
0.009,0.014,-0.001,-0.3,-1,0.5,0,2018,5,16,19,7,56.375,-0.151,-0.0107,0.2946,-0.9435
0.01,0.009,-0.009,-0.1,-0.7,0.7,0,2018,5,16,19,7,56.414,-0.1511,-0.0106,0.2946,-0.9435
0.011,0.012,-0.011,0,-0.1,0.7,1023,2018,5,16,19,7,56.418,-0.151,-0.0106,0.2947,-0.9434
0.01,0.016,-0.006,-0.1,-0.6,0.5,1023,2018,5,16,19,7,56.434,-0.1509,-0.0106,0.2947,-0.9434
0.009,0.018,0,-0.4,-1,0.5,1023,2018,5,16,19,7,56.453,-0.1508,-0.0106,0.2948,-0.9434
0.011,0.018,-0.002,-0.7,-1,0.9,1023,2018,5,16,19,7,56.491,-0.1509,-0.0104,0.2949,-0.9434
0.01,0.012,-0.008,-1.3,-1.6,1,1023,2018,5,16,19,7,56.509,-0.151,-0.0103,0.2948,-0.9434
0.015,0.008,-0.006,-1.5,-1.8,1.1,1023,2018,5,16,19,7,56.516,-0.1511,-0.01,0.295,-0.9434
0.015,0.012,-0.009,-1.8,-2.1,1.1,1023,2018,5,16,19,7,56.552,-0.1512,-0.0096,0.2952,-0.9433
0.013,0.007,-0.011,-1.6,-1.8,1,1023,2018,5,16,19,7,56.574,-0.1513,-0.0093,0.2955,-0.9432
0.016,0.007,-0.01,-1.1,-1,1.1,1023,2018,5,16,19,7,56.578,-0.1513,-0.009,0.2958,-0.9431
0.012,0.007,-0.011,-0.3,-0.3,1.1,0,2018,5,16,19,7,56.596,-0.1512,-0.009,0.296,-0.943
0.01,0.007,-0.011,0.3,0,1,0,2018,5,16,19,7,56.617,-0.1513,-0.0089,0.2959,-0.943
0.01,0.008,-0.005,0.8,0.5,0.8,0,2018,5,16,19,7,56.637,-0.1514,-0.009,0.2957,-0.9431
0.008,0.014,-0.005,1,0.6,0.5,0,2018,5,16,19,7,56.677,-0.1513,-0.0092,0.2957,-0.9431
0.006,0.018,-0.004,0.8,0,0.5,0,2018,5,16,19,7,56.697,-0.1513,-0.0094,0.2954,-0.9432
0.008,0.021,-0.001,0.4,-0.8,0.7,0,2018,5,16,19,7,56.701,-0.1511,-0.0095,0.2955,-0.9432
0.01,0.016,-0.005,0,-1,0.9,0,2018,5,16,19,7,56.716,-0.1511,-0.0096,0.2955,-0.9432
0.013,0.009,-0.008,-0.1,-0.6,1,0,2018,5,16,19,7,56.755,-0.1513,-0.0095,0.2954,-0.9432
0.015,0.01,-0.007,-0.2,-0.7,1.1,0,2018,5,16,19,7,56.775,-0.1512,-0.0095,0.2955,-0.9432
0.014,0.006,-0.008,-0.3,-0.7,0.9,0,2018,5,16,19,7,56.78,-0.1513,-0.0094,0.2955,-0.9432
0.015,0.01,-0.015,-0.1,-0.2,1.1,0,2018,5,16,19,7,56.797,-0.1514,-0.0092,0.2954,-0.9432
0.015,0.013,-0.007,0,-0.5,1,0,2018,5,16,19,7,56.837,-0.1515,-0.0091,0.2953,-0.9432
0.012,0.013,-0.006,0.2,-0.2,0.9,0,2018,5,16,19,7,56.855,-0.1515,-0.0091,0.2954,-0.9432
0.01,0.013,-0.004,0.5,-0.1,0.8,0,2018,5,16,19,7,56.86,-0.1514,-0.0092,0.2953,-0.9432
0.009,0.013,-0.005,0.6,-0.1,0.8,0,2018,5,16,19,7,56.878,-0.1514,-0.0093,0.2952,-0.9432
0.006,0.014,-0.004,0.3,-0.2,0.7,0,2018,5,16,19,7,56.895,-0.1513,-0.0094,0.2953,-0.9432
0.008,0.01,-0.004,0.1,-0.5,0.7,0,2018,5,16,19,7,56.916,-0.1513,-0.0095,0.2953,-0.9432
0.013,0.017,-0.011,0.3,-0.6,0.7,0,2018,5,16,19,7,56.936,-0.1512,-0.0095,0.2953,-0.9432
0.008,0.019,-0.009,0,-0.4,0.8,0,2018,5,16,19,7,56.976,-0.1513,-0.0095,0.2952,-0.9433
0.011,0.015,-0.001,0,-0.7,0.8,0,2018,5,16,19,7,56.995,-0.1512,-0.0095,0.2954,-0.9432
0.01,0.012,-0.003,-0.2,-0.6,1,0,2018,5,16,19,7,57,-0.1512,-0.0095,0.2955,-0.9432
0.009,0.012,-0.009,-0.1,-0.7,0.9,0,2018,5,16,19,7,57.019,-0.151,-0.0095,0.2958,-0.9431
0.008,0.012,-0.008,0,-0.8,0.8,0,2018,5,16,19,7,57.038,-0.151,-0.0095,0.2959,-0.9431
0.011,0.009,-0.006,0.2,-0.5,0.8,0,2018,5,16,19,7,57.077,-0.1511,-0.0095,0.2959,-0.9431
0.012,0.014,-0.006,0.4,-0.2,0.8,0,2018,5,16,19,7,57.097,-0.1511,-0.0095,0.2958,-0.9431
0.011,0.012,-0.005,0.4,-0.1,0.9,0,2018,5,16,19,7,57.101,-0.1511,-0.0095,0.2957,-0.9431
0.011,0.012,-0.006,0.4,0,0.7,0,2018,5,16,19,7,57.117,-0.1511,-0.0096,0.2956,-0.9432
0.01,0.013,-0.005,0.1,-0.3,0.7,0,2018,5,16,19,7,57.136,-0.1511,-0.0095,0.2954,-0.9432
0.012,0.015,-0.003,-0.1,-1,0.7,0,2018,5,16,19,7,57.175,-0.1513,-0.0094,0.2952,-0.9433
0.011,0.015,-0.001,0,-1.2,0.8,0,2018,5,16,19,7,57.195,-0.1512,-0.0094,0.2954,-0.9432
0.011,0.009,-0.007,0,-0.8,0.8,0,2018,5,16,19,7,57.199,-0.1511,-0.0094,0.2956,-0.9432
0.009,0.007,-0.003,0.2,-0.3,0.8,0,2018,5,16,19,7,57.22,-0.1511,-0.0094,0.2957,-0.9431
0.01,0.01,-0.002,0.4,-0.1,0.5,0,2018,5,16,19,7,57.24,-0.151,-0.0095,0.2957,-0.9431
0.008,0.01,-0.011,0.5,-0.3,0.4,1023,2018,5,16,19,7,57.275,-0.1508,-0.0096,0.2959,-0.9431
0.008,0.014,-0.001,0.4,-0.8,0.3,1023,2018,5,16,19,7,57.295,-0.1506,-0.0098,0.2961,-0.9431
0.007,0.016,0.008,-0.2,-2,0.5,1023,2018,5,16,19,7,57.299,-0.1504,-0.0098,0.2963,-0.943
0.011,0.012,0.001,-0.4,-1.8,0.7,1023,2018,5,16,19,7,57.321,-0.1504,-0.0097,0.2965,-0.943
0.013,0.013,-0.006,-0.3,-1.1,1,1023,2018,5,16,19,7,57.343,-0.1505,-0.0096,0.2966,-0.9429
0.015,0.012,-0.003,-0.3,-1,1.1,1023,2018,5,16,19,7,57.358,-0.1505,-0.0095,0.2966,-0.9429
0.015,0.007,-0.012,0.1,-0.5,1.1,1023,2018,5,16,19,7,57.377,-0.1505,-0.0094,0.2968,-0.9429
0.014,0.008,-0.012,0.4,0,0.8,1023,2018,5,16,19,7,57.416,-0.1504,-0.0095,0.297,-0.9428
0.01,0.008,-0.008,0.7,0.4,0.7,1023,2018,5,16,19,7,57.437,-0.1504,-0.0095,0.2968,-0.9429
0.005,0.011,-0.006,0.8,0.4,0.5,0,2018,5,16,19,7,57.441,-0.1505,-0.0096,0.2965,-0.943
0.011,0.01,-0.004,0.5,-0.2,0.5,0,2018,5,16,19,7,57.48,-0.1504,-0.0097,0.2965,-0.943
0.009,0.016,-0.003,0,0,0,0,2018,5,16,19,7,57.5,-0.1503,-0.0097,0.2966,-0.943
0.007,0.014,-0.007,0,-0.5,0.5,0,2018,5,16,19,7,57.504,-0.1502,-0.0097,0.2965,-0.943
0.011,0.017,-0.005,-0.2,-0.5,0.7,0,2018,5,16,19,7,57.522,-0.1502,-0.0097,0.2964,-0.943
0.011,0.011,-0.004,0,-0.1,0.7,0,2018,5,16,19,7,57.543,-0.1503,-0.0097,0.2963,-0.9431
0.013,0.011,-0.008,0.1,-0.3,1.1,0,2018,5,16,19,7,57.58,-0.1504,-0.0097,0.2962,-0.9431
0.011,0.013,-0.005,0,-0.2,0.8,0,2018,5,16,19,7,57.601,-0.1502,-0.0098,0.2964,-0.9431
0.01,0.013,-0.005,0,-0.3,0.7,0,2018,5,16,19,7,57.606,-0.1502,-0.0097,0.2962,-0.9431
0.011,0.013,-0.003,0,-0.9,0.7,0,2018,5,16,19,7,57.619,-0.1501,-0.0097,0.2964,-0.9431
0.011,0.012,-0.004,-0.2,-1.3,0.6,0,2018,5,16,19,7,57.659,-0.15,-0.0097,0.2965,-0.943
0.011,0.014,-0.006,-0.2,-1.3,0.7,0,2018,5,16,19,7,57.678,-0.15,-0.0096,0.2966,-0.943
0.012,0.011,-0.005,-0.4,-1,0.7,0,2018,5,16,19,7,57.682,-0.15,-0.0095,0.2968,-0.943
0.012,0.01,-0.004,-0.1,-0.9,0.7,0,2018,5,16,19,7,57.702,-0.15,-0.0094,0.2969,-0.943
0.012,0.012,-0.008,-0.1,-0.7,1,0,2018,5,16,19,7,57.741,-0.1501,-0.0092,0.2967,-0.943
0.011,0.011,-0.003,0,-0.7,0.8,0,2018,5,16,19,7,57.762,-0.1501,-0.0092,0.2967,-0.943
0.01,0.009,-0.001,0.1,-0.5,0.6,0,2018,5,16,19,7,57.766,-0.1501,-0.0091,0.2967,-0.943
0.009,0.013,-0.006,0.1,-0.6,0.5,0,2018,5,16,19,7,57.783,-0.1502,-0.0091,0.2967,-0.943
0.007,0.013,-0.003,0.1,-0.7,0.5,0,2018,5,16,19,7,57.8,-0.1501,-0.0091,0.2968,-0.943
0.008,0.012,-0.007,0,-0.7,0.5,0,2018,5,16,19,7,57.839,-0.15,-0.0091,0.2968,-0.943
0.01,0.015,-0.005,0.1,-0.5,0.3,0,2018,5,16,19,7,57.859,-0.15,-0.0091,0.2968,-0.943
0.012,0.013,-0.012,0,0,0,0,2018,5,16,19,7,57.864,-0.15,-0.0091,0.2967,-0.943
0.009,0.014,-0.005,0,-0.4,0.6,0,2018,5,16,19,7,57.884,-0.15,-0.009,0.2967,-0.943
0.009,0.012,-0.005,-0.2,-0.4,0.5,0,2018,5,16,19,7,57.903,-0.15,-0.0089,0.2965,-0.9431
0.009,0.014,-0.003,-0.2,-0.3,0.7,0,2018,5,16,19,7,57.944,-0.1499,-0.0089,0.2966,-0.943
0.009,0.013,-0.004,-0.4,-0.6,0.8,0,2018,5,16,19,7,57.948,-0.1499,-0.0089,0.2967,-0.943
0.008,0.01,-0.004,-0.6,-0.6,0.7,0,2018,5,16,19,7,57.963,-0.1498,-0.0088,0.2968,-0.943
0.01,0.011,-0.009,-0.5,-0.8,0.7,0,2018,5,16,19,7,58.003,-0.1498,-0.0087,0.2968,-0.943
0.01,0.013,-0.01,0,-0.7,0.6,0,2018,5,16,19,7,58.022,-0.1499,-0.0085,0.2967,-0.943
0.011,0.011,-0.006,0,-0.5,0.6,0,2018,5,16,19,7,58.027,-0.1499,-0.0085,0.2968,-0.943
0.011,0.011,-0.009,0,-0.1,0.7,0,2018,5,16,19,7,58.042,-0.1499,-0.0085,0.2967,-0.943
0.01,0.008,-0.006,0,-0.1,0.7,0,2018,5,16,19,7,58.079,-0.1499,-0.0085,0.2967,-0.943
0.007,0.011,-0.006,-0.1,-0.8,0.5,0,2018,5,16,19,7,58.1,-0.1498,-0.0085,0.2968,-0.943
0.011,0.013,-0.009,-0.1,-0.7,0.5,0,2018,5,16,19,7,58.104,-0.1497,-0.0085,0.2969,-0.943
0.008,0.018,0,-0.1,-0.4,0.8,1023,2018,5,16,19,7,58.123,-0.1497,-0.0084,0.2968,-0.943
0.009,0.015,-0.001,-0.1,0,1.1,1023,2018,5,16,19,7,58.144,-0.1499,-0.0084,0.2966,-0.9431
0.012,0.012,-0.003,-0.1,0.1,1.3,1023,2018,5,16,19,7,58.163,-0.1499,-0.0084,0.2966,-0.9431
0.01,0.01,-0.005,-0.3,-0.6,0.9,1023,2018,5,16,19,7,58.185,-0.1499,-0.0084,0.2966,-0.9431
0.009,0.011,-0.008,-0.4,-1,1,1023,2018,5,16,19,7,58.225,-0.15,-0.0083,0.2966,-0.943
0.01,0.01,-0.009,-0.2,-0.9,0.9,1023,2018,5,16,19,7,58.243,-0.15,-0.0082,0.2967,-0.943
0.011,0.011,-0.012,0,-0.1,1.2,1023,2018,5,16,19,7,58.247,-0.15,-0.0082,0.2968,-0.943
0.007,0.012,-0.009,0.4,0.4,1.2,1023,2018,5,16,19,7,58.27,-0.15,-0.0083,0.2968,-0.943
0.008,0.012,-0.01,0.3,0.1,1,1023,2018,5,16,19,7,58.288,-0.1502,-0.0084,0.2965,-0.943
