ax,ay,az,dpitch,droll,dyaw,heart,time_1,time_2,time_3,time_4,time_5,time_6,w,x,y,z
0.075,0.205,0.037,-13.8,15.8,-2,0,2018,5,16,19,5,57.511,0.3829,0.1019,0.5105,-0.763
0.076,0.046,0.038,-17.4,-22.2,-3,0,2018,5,16,19,5,57.531,0.3821,0.104,0.5125,-0.7618
0.066,-0.154,0.079,-15.9,-14.1,-4.6,0,2018,5,16,19,5,57.535,0.3816,0.1053,0.5163,-0.7593
0.063,-0.145,0.086,-11.2,29.6,-4.3,0,2018,5,16,19,5,57.553,0.3807,0.1076,0.5161,-0.7596
0.04,0.003,0.042,-7.1,50.4,-6.3,0,2018,5,16,19,5,57.576,0.3801,0.1121,0.5109,-0.7628
0.023,0.092,0.007,-5.4,39.8,-5.3,0,2018,5,16,19,5,57.614,0.3799,0.117,0.5045,-0.7663
0.029,0.077,-0.028,-2.4,29.8,-0.5,0,2018,5,16,19,5,57.635,0.3798,0.1207,0.5001,-0.7687
0.009,0.027,-0.035,4,35.8,3.5,0,2018,5,16,19,5,57.639,0.3793,0.1229,0.496,-0.7713
-0.017,0.04,-0.033,10.9,53.3,7.8,0,2018,5,16,19,5,57.659,0.3784,0.1245,0.4899,-0.7754
-0.022,0.084,0,12.3,52.8,10.5,0,2018,5,16,19,5,57.68,0.3772,0.1258,0.4817,-0.7808
-0.016,0.101,0.029,11.2,40.3,13.3,0,2018,5,16,19,5,57.695,0.3761,0.1265,0.4743,-0.7858
-0.023,0.077,0.047,11.1,35,14.1,0,2018,5,16,19,5,57.715,0.3747,0.1264,0.468,-0.7902
-0.013,0.082,0.067,8.4,33.6,12.9,0,2018,5,16,19,5,57.754,0.3733,0.1261,0.4621,-0.7944
-0.003,0.105,0.059,3.3,21.9,11.1,1023,2018,5,16,19,5,57.758,0.372,0.1264,0.4573,-0.7977
0.024,0.081,0.025,-0.1,12.6,10.3,1023,2018,5,16,19,5,57.777,0.3708,0.1268,0.4544,-0.7999
0.033,0.085,-0.006,-2,17.9,10.5,1023,2018,5,16,19,5,57.815,0.3694,0.1276,0.4524,-0.8015
0.022,0.084,0.019,-1.2,29.7,10.3,1023,2018,5,16,19,5,57.834,0.3676,0.1291,0.4487,-0.8042
0.01,0.083,0.04,-1.8,29.1,7.5,1023,2018,5,16,19,5,57.838,0.3661,0.1309,0.4442,-0.807
0.005,0.082,0.024,-2.4,27.5,8.4,1023,2018,5,16,19,5,57.857,0.3645,0.1328,0.4397,-0.81
0.01,0.081,0.001,-6.8,14.7,10.5,1023,2018,5,16,19,5,57.894,0.3629,0.1344,0.4367,-0.812
0.041,0.026,-0.036,-9.8,9.4,10.6,1023,2018,5,16,19,5,57.913,0.3606,0.136,0.4358,-0.8132
0.043,0.025,-0.02,-9.8,4.8,10.4,1023,2018,5,16,19,5,57.92,0.3584,0.1376,0.4355,-0.8141
0.107,-0.035,-0.059,-10.9,-18.9,3.6,0,2018,5,16,19,5,57.94,0.3568,0.1386,0.4374,-0.8137
0.15,-0.174,-0.026,-7.5,-50.7,-6,0,2018,5,16,19,5,57.957,0.3573,0.138,0.4437,-0.8101
0.136,-0.354,0.075,-1.3,-51.3,-17,0,2018,5,16,19,5,57.978,0.3601,0.1361,0.4518,-0.8047
0.097,-0.31,0.155,6.7,-12.3,-25.3,0,2018,5,16,19,5,57.998,0.3637,0.1347,0.4566,-0.8006
0.018,-0.017,0.142,12.5,27.9,-26.8,0,2018,5,16,19,5,58.036,0.3681,0.1355,0.4538,-0.8
-0.046,0.295,0.109,14.3,36.5,-19.1,0,2018,5,16,19,5,58.057,0.3718,0.1377,0.4472,-0.8016
-0.099,0.381,0.037,11.1,5,-7.1,0,2018,5,16,19,5,58.061,0.3741,0.1383,0.4431,-0.8027
-0.089,0.243,-0.089,10.6,-24.2,5.1,0,2018,5,16,19,5,58.097,0.3753,0.1361,0.4443,-0.8019
-0.085,0.143,-0.179,20,-25.5,16.1,0,2018,5,16,19,5,58.119,0.376,0.132,0.4472,-0.8006
-0.078,0.142,-0.182,30.3,-4.8,28.8,0,2018,5,16,19,5,58.124,0.375,0.126,0.4486,-0.8013
-0.083,0.346,-0.183,34.3,2.2,41.1,0,2018,5,16,19,5,58.141,0.3728,0.1191,0.4473,-0.8041
-0.125,0.409,-0.136,31.2,-15.4,48.5,0,2018,5,16,19,5,58.158,0.3692,0.1106,0.4467,-0.8073
-0.129,0.334,-0.149,19.2,-82.3,51.3,0,2018,5,16,19,5,58.178,0.3647,0.0998,0.4528,-0.8074
-0.06,0.033,-0.095,1.2,-131.7,38.6,0,2018,5,16,19,5,58.198,0.3614,0.0878,0.4691,-0.8009
-0.028,-0.086,-0.027,-3.4,-109.7,46.6,0,2018,5,16,19,5,58.236,0.3569,0.0764,0.4876,-0.793
-0.035,0.088,0.077,-2.9,-66.2,51,0,2018,5,16,19,5,58.256,0.351,0.0671,0.4999,-0.7888
-0.081,0.228,0.173,-8.2,-39.1,58.5,0,2018,5,16,19,5,58.264,0.3437,0.06,0.5082,-0.7873
-0.118,0.636,0.12,-15.2,-45.5,68.3,0,2018,5,16,19,5,58.279,0.334,0.0535,0.5134,-0.7886
0.031,0.159,-0.093,-23.5,-93.6,64.7,0,2018,5,16,19,5,58.318,0.324,0.0462,0.5259,-0.7849
0.057,-0.014,-0.165,-14,-75.3,79,0,2018,5,16,19,5,58.34,0.3133,0.0377,0.5405,-0.7798
0.037,0.664,-0.225,16.8,-19.6,107.2,0,2018,5,16,19,5,58.344,0.3007,0.026,0.5459,-0.7815
0.028,0.682,-0.102,25.9,-56,110.8,0,2018,5,16,19,5,58.363,0.2884,0.0106,0.5503,-0.7834
-0.034,0.477,0.014,22.2,-103.5,124.6,0,2018,5,16,19,5,58.38,0.2746,-0.008,0.5608,-0.7809
0.092,0.252,-0.08,34.3,-87.3,137.5,0,2018,5,16,19,5,58.4,0.2593,-0.0294,0.5729,-0.7769
0.174,0.16,-0.072,51.4,-53.9,144.9,0,2018,5,16,19,5,58.42,0.2438,-0.0527,0.5797,-0.7756
0.141,0.069,-0.044,71.5,3.5,151.2,0,2018,5,16,19,5,58.462,0.23,-0.077,0.5787,-0.7785
0.181,-0.036,-0.248,102.8,87.1,162,0,2018,5,16,19,5,58.478,0.2181,-0.1032,0.5658,-0.7883
-0.039,0.219,-0.028,116.4,63.5,158.7,0,2018,5,16,19,5,58.482,0.2085,-0.1313,0.5472,-0.7998
0.011,0.004,0.174,120.6,50.2,152.5,0,2018,5,16,19,5,58.521,0.1994,-0.1608,0.531,-0.8077
-0.005,-0.094,0.11,122.2,77.6,145.2,0,2018,5,16,19,5,58.526,0.1918,-0.189,0.5124,-0.8153
-0.133,-0.251,0.052,130,136.3,147.6,0,2018,5,16,19,5,58.541,0.1856,-0.2166,0.4877,-0.825
-0.098,-0.771,-0.021,148.9,246.1,150.3,0,2018,5,16,19,5,58.563,0.1828,-0.2432,0.4501,-0.8394
-0.276,-0.422,-0.041,171.3,402.4,145.9,1023,2018,5,16,19,5,58.582,0.1877,-0.2674,0.3893,-0.8611
-0.585,0.616,0.365,150.6,382.9,132.4,1023,2018,5,16,19,5,58.6,0.1963,-0.2874,0.3143,-0.8831
-0.376,0.691,0.397,87.2,181.6,119,1023,2018,5,16,19,5,58.637,0.1971,-0.3024,0.2598,-0.8956
-0.354,-0.99,0.268,74.1,198.6,129.1,1023,2018,5,16,19,5,58.66,0.1884,-0.3138,0.2233,-0.9033
-0.361,-1.169,0.14,58,178.9,68,1023,2018,5,16,19,5,58.664,0.1857,-0.3219,0.1816,-0.9104
-0.067,-0.893,0.026,50,126.5,9.7,1023,2018,5,16,19,5,58.681,0.1899,-0.3263,0.1548,-0.9129
-0.091,-0.088,-0.026,39.4,73.3,-13.8,1023,2018,5,16,19,5,58.721,0.1977,-0.33,0.137,-0.9127
-0.098,0.128,-0.12,28.3,15.8,-14.6,1023,2018,5,16,19,5,58.742,0.203,-0.3338,0.1306,-0.9111
-0.083,0.234,-0.125,28.7,15.9,-8.6,0,2018,5,16,19,5,58.746,0.2065,-0.3375,0.1281,-0.9094
-0.212,0.312,0.197,25.1,28.4,5.7,0,2018,5,16,19,5,58.763,0.2087,-0.3411,0.1236,-0.9081
-0.279,0.369,0.512,2.7,15.9,22,0,2018,5,16,19,5,58.803,0.2082,-0.3429,0.1183,-0.9083
-0.248,0.248,0.524,-25,-8.3,31.8,0,2018,5,16,19,5,58.821,0.2037,-0.3414,0.1165,-0.9101
-0.147,0.132,0.361,-45.9,-32.3,34.9,0,2018,5,16,19,5,58.825,0.1963,-0.337,0.1192,-0.913
-0.117,-0.04,0.211,-58.5,-49.2,32.4,0,2018,5,16,19,5,58.864,0.1868,-0.3305,0.1252,-0.9165
-0.077,-0.042,0.118,-66.3,-68.6,21.5,0,2018,5,16,19,5,58.869,0.1778,-0.3227,0.1347,-0.9198
-0.07,-0.034,0.084,-73.3,-103.9,9.1,0,2018,5,16,19,5,58.884,0.1684,-0.3145,0.1495,-0.9221
-0.076,-0.09,0.033,-75.7,-129.1,-1.9,0,2018,5,16,19,5,58.903,0.1592,-0.306,0.1703,-0.923
-0.039,-0.345,0.183,-93.2,-132.6,-3.9,0,2018,5,16,19,5,58.924,0.1492,-0.2964,0.1955,-0.9228
-0.187,-0.032,0.018,-75.9,-39.8,-13.9,0,2018,5,16,19,5,58.945,0.1436,-0.2848,0.2099,-0.9241
-0.14,-0.046,-0.133,-86.2,-29.2,-20.2,0,2018,5,16,19,5,58.964,0.1414,-0.2718,0.2175,-0.9267
-0.028,0.128,-0.166,-85.1,-42.9,-20.3,0,2018,5,16,19,5,58.985,0.1395,-0.2579,0.2258,-0.9289
-0.016,0.299,-0.125,-84.5,-92.4,-21.6,0,2018,5,16,19,5,59.005,0.1364,-0.245,0.2397,-0.9294
0.008,0.263,-0.112,-87.9,-139,-17.7,0,2018,5,16,19,5,59.046,0.1308,-0.2329,0.2617,-0.9274
0.088,0.224,-0.129,-86.1,-165.4,-10.4,0,2018,5,16,19,5,59.062,0.1228,-0.2215,0.2891,-0.9231
0.156,0.028,-0.126,-79.6,-152.1,-4.4,0,2018,5,16,19,5,59.066,0.1133,-0.2106,0.3169,-0.9177
0.193,-0.023,0.024,-69,-95.2,1,0,2018,5,16,19,5,59.085,0.105,-0.2011,0.3386,-0.9131
0.189,0.157,0.104,-61.4,-20.9,14.3,0,2018,5,16,19,5,59.103,0.0983,-0.1923,0.3485,-0.912
0.194,0.355,0,-60.2,14.8,31.8,0,2018,5,16,19,5,59.144,0.091,-0.184,0.3488,-0.9144
0.282,0.415,-0.167,-51.3,37.2,54.9,0,2018,5,16,19,5,59.148,0.0816,-0.1773,0.3441,-0.9184
0.216,0.289,-0.138,-36.8,51.1,75.8,0,2018,5,16,19,5,59.165,0.0699,-0.1737,0.3356,-0.9231
0.033,0.108,-0.008,-30,26.4,71.6,0,2018,5,16,19,5,59.187,0.0575,-0.1723,0.3266,-0.9275
0.088,-0.212,-0.002,-41.4,-92.2,33.5,0,2018,5,16,19,5,59.21,0.046,-0.1699,0.3306,-0.9271
0.176,-0.543,-0.14,-36.5,-115.8,6.8,0,2018,5,16,19,5,59.226,0.0381,-0.1651,0.3492,-0.9215
0.196,-0.329,-0.245,-13.8,-83.7,2.7,0,2018,5,16,19,5,59.246,0.033,-0.162,0.3655,-0.9159
0.105,-0.247,-0.258,10.8,-33.2,-2.8,0,2018,5,16,19,5,59.266,0.0313,-0.1622,0.3749,-0.9122
0.025,-0.051,-0.15,35.9,26.8,-3.5,0,2018,5,16,19,5,59.289,0.0338,-0.1659,0.3751,-0.9113
0.049,-0.058,-0.087,53.3,82.3,-2.2,0,2018,5,16,19,5,59.303,0.0391,-0.1725,0.3667,-0.9133
0.062,0.045,-0.174,71.7,129.7,0.8,0,2018,5,16,19,5,59.339,0.0468,-0.1813,0.3503,-0.9176
0.108,0.24,-0.146,88.4,134.6,7.7,0,2018,5,16,19,5,59.364,0.0554,-0.1934,0.3271,-0.9233
0.029,0.237,-0.05,91.4,81.2,5.6,0,2018,5,16,19,5,59.369,0.0634,-0.2075,0.3078,-0.9263
0.019,-0.317,0.351,91.2,81.1,0.4,1023,2018,5,16,19,5,59.387,0.0708,-0.2212,0.2952,-0.9267
-0.161,-0.389,0.788,70.3,124.4,-8.5,1023,2018,5,16,19,5,59.407,0.08,-0.2322,0.2769,-0.9289
-0.156,-0.115,0.763,26.2,122,-20,1023,2018,5,16,19,5,59.427,0.09,-0.2374,0.2563,-0.9326
-0.039,0.074,0.378,-6.6,81.6,-25.8,1023,2018,5,16,19,5,59.447,0.0983,-0.2359,0.2405,-0.9363
-0.087,0.229,0.116,-17.1,36.2,-21.5,1023,2018,5,16,19,5,59.47,0.104,-0.2317,0.2324,-0.9388
-0.152,0.216,-0.031,-19,26.9,-10.3,1023,2018,5,16,19,5,59.488,0.1065,-0.2273,0.2287,-0.9405
-0.19,0.266,0.053,-27.1,28.3,-4.6,1023,2018,5,16,19,5,59.526,0.1079,-0.2228,0.2246,-0.9424
-0.217,0.139,0.08,-35.9,-4.1,-12.7,1023,2018,5,16,19,5,59.545,0.1082,-0.2172,0.2226,-0.9441
-0.107,0.031,-0.016,-42.5,-85.3,-32.4,1023,2018,5,16,19,5,59.549,0.1085,-0.2109,0.2306,-0.9436
-0.051,-0.324,-0.113,-44.6,-137,-60.7,1023,2018,5,16,19,5,59.566,0.1097,-0.2041,0.2528,-0.9393
0.18,-0.213,-0.159,-38.6,-156,-82.5,0,2018,5,16,19,5,59.588,0.1144,-0.1971,0.2798,-0.9325
0.147,-0.445,-0.16,-26.8,-98.2,-84,0,2018,5,16,19,5,59.608,0.1218,-0.1898,0.3057,-0.9249
0.161,-0.013,-0.051,-20.6,-63.1,-80.2,0,2018,5,16,19,5,59.628,0.1311,-0.1833,0.3199,-0.9202
0.158,-0.372,-0.091,-8.3,32.2,-90.2,0,2018,5,16,19,5,59.648,0.1436,-0.1764,0.3264,-0.9174
0.049,-0.141,-0.086,-3.9,106.5,-85,0,2018,5,16,19,5,59.689,0.1594,-0.1688,0.3164,-0.9197
0.126,0.195,0.054,-9.5,114.6,-91,0,2018,5,16,19,5,59.706,0.1768,-0.1594,0.3002,-0.9236
0.031,0.541,0.27,-35.1,31.5,-75.8,0,2018,5,16,19,5,59.71,0.1912,-0.1492,0.2918,-0.9251
-0.109,0.605,0.397,-60.2,-33.5,-54,0,2018,5,16,19,5,59.73,0.1988,-0.1383,0.2958,-0.924
-0.206,0.491,0.377,-82,-59.6,-35.9,0,2018,5,16,19,5,59.749,0.2007,-0.126,0.3068,-0.9217
-0.145,0.203,0.407,-102,-101,-37.2,0,2018,5,16,19,5,59.77,0.1996,-0.112,0.3236,-0.918
-0.12,-0.241,0.476,-127,-156.6,-59.2,0,2018,5,16,19,5,59.786,0.1978,-0.0954,0.349,-0.9109
0.006,-0.586,0.354,-141.6,-176.8,-90.5,0,2018,5,16,19,5,59.807,0.198,-0.0753,0.3819,-0.8995
0.06,-0.544,0.259,-141.2,-173.5,-125,0,2018,5,16,19,5,59.828,0.203,-0.0519,0.4159,-0.8849
0.145,-0.713,0.199,-134.1,-156.6,-159.2,0,2018,5,16,19,5,59.868,0.2133,-0.0259,0.4487,-0.8674
0.036,-1.054,0.117,-99.9,10.5,-164.2,0,2018,5,16,19,5,59.891,0.2283,0.0018,0.4668,-0.8543
-0.43,0.299,-0.073,-65.4,212,-127.9,0,2018,5,16,19,5,59.896,0.2438,0.0308,0.4497,-0.8586
-0.468,1.237,-0.124,-80.6,127.6,-110.9,0,2018,5,16,19,5,59.911,0.2546,0.0584,0.4237,-0.8672
-0.19,0.732,-0.23,-91.2,-8.5,-104.3,0,2018,5,16,19,5,59.93,0.264,0.082,0.4189,-0.8648
-0.039,0.371,-0.263,-89.6,-107,-100.5,0,2018,5,16,19,5,59.967,0.2736,0.1001,0.4307,-0.8541
0.099,-0.188,-0.434,-69.2,-107.8,-100,0,2018,5,16,19,5,59.986,0.2847,0.1143,0.4505,-0.8383
0.088,0.211,-0.48,-63.4,-183.8,-114.3,0,2018,5,16,19,5,59.991,0.2972,0.125,0.472,-0.8204
0.194,-0.064,-0.512,-38.1,-178.7,-129.9,0,2018,5,16,19,6,0.011,0.315,0.1329,0.4989,-0.7963
0.089,-0.182,-0.346,11.8,-56.2,-111.8,0,2018,5,16,19,6,0.028,0.3336,0.1385,0.5136,-0.7782
-0.081,0.326,-0.045,41.9,86.8,-80.2,0,2018,5,16,19,6,0.067,0.3488,0.1445,0.507,-0.7748
-0.184,0.747,-0.161,64.2,204.2,-38.5,0,2018,5,16,19,6,0.09,0.358,0.1518,0.4812,-0.7855
-0.34,1.418,-0.197,66.4,185.1,15.6,0,2018,5,16,19,6,0.095,0.3588,0.1564,0.4476,-0.8039
-0.199,0.856,-0.186,52.5,44.3,28.2,0,2018,5,16,19,6,0.111,0.3571,0.1531,0.429,-0.8154
-0.114,0.201,-0.11,43,-29.5,39.4,0,2018,5,16,19,6,0.15,0.3559,0.1437,0.4275,-0.8184
0.011,-0.189,-0.063,37.6,-26.4,35.2,0,2018,5,16,19,6,0.169,0.3541,0.1329,0.431,-0.8192
0.028,-0.177,0.002,30.9,-3.3,22.5,0,2018,5,16,19,6,0.174,0.3528,0.1249,0.4316,-0.8207
-0.003,-0.03,0.106,19.3,-11.3,8.8,0,2018,5,16,19,6,0.19,0.3524,0.1193,0.431,-0.8219
0.02,-0.037,0.108,10.2,-16.6,0.5,1023,2018,5,16,19,6,0.208,0.3534,0.1157,0.432,-0.8215
0,0.02,0.125,4.2,0.3,-0.3,1023,2018,5,16,19,6,0.231,0.3543,0.114,0.432,-0.8214
-0.012,0.002,0.075,-1.3,27.1,0.2,1023,2018,5,16,19,6,0.248,0.3542,0.1144,0.4291,-0.8229
0.006,0.003,-0.016,-1.6,57.5,1.4,1023,2018,5,16,19,6,0.288,0.3531,0.1172,0.4229,-0.8262
0.04,0.144,-0.018,-1,49.4,5.9,1023,2018,5,16,19,6,0.308,0.3496,0.1248,0.4055,-0.8352
0.053,0.068,0.015,2,46.2,10.7,1023,2018,5,16,19,6,0.311,0.3477,0.1273,0.3988,-0.8389
0.049,0.048,0.016,5,51.2,13.9,1023,2018,5,16,19,6,0.35,0.3453,0.1294,0.3912,-0.8431
0.043,0.13,0.03,5.7,40.4,15,1023,2018,5,16,19,6,0.372,0.343,0.1309,0.3839,-0.8471
0.007,0.152,0.022,4.1,31.9,16.9,1023,2018,5,16,19,6,0.376,0.3401,0.1312,0.3787,-0.8506
-0.007,0.098,0.045,3.4,31.7,17,0,2018,5,16,19,6,0.412,0.3373,0.1315,0.3739,-0.8538
-0.014,0.01,0.071,2.6,34.3,17.5,0,2018,5,16,19,6,0.431,0.3345,0.1318,0.3684,-0.8573
0.03,0.042,0.071,-0.2,29.8,19.1,0,2018,5,16,19,6,0.435,0.3313,0.1323,0.3634,-0.8606
0.011,0.131,0.05,-2.7,20.4,21.4,0,2018,5,16,19,6,0.473,0.328,0.133,0.3596,-0.8633
-0.031,0.089,0.164,-7.2,26.8,23.6,0,2018,5,16,19,6,0.477,0.3238,0.1335,0.3571,-0.8658
-0.034,-0.034,0.215,-12.6,50.9,23.5,0,2018,5,16,19,6,0.494,0.3187,0.1357,0.3522,-0.8694
0.021,-0.05,0.217,-21.7,66,20.2,0,2018,5,16,19,6,0.514,0.3127,0.1397,0.3435,-0.8744
0.048,0.001,0.248,-32.8,60.1,16.9,0,2018,5,16,19,6,0.532,0.3069,0.1459,0.3347,-0.8788
0.055,0.074,0.191,-45.2,42.5,11.8,0,2018,5,16,19,6,0.572,0.3011,0.1539,0.3287,-0.8817
0.092,0.146,0.026,-55.2,5.9,7.1,0,2018,5,16,19,6,0.591,0.296,0.1625,0.3277,-0.8823
0.123,0.106,-0.143,-54.6,-27.7,3.1,0,2018,5,16,19,6,0.595,0.2922,0.1701,0.3324,-0.8803
0.151,-0.011,-0.223,-46,-29.9,-3.8,0,2018,5,16,19,6,0.618,0.2902,0.1763,0.3398,-0.877
0.147,0.001,-0.224,-34,-17.9,-11.6,0,2018,5,16,19,6,0.636,0.2897,0.1816,0.3449,-0.874
0.111,0.154,-0.21,-27.6,-32.6,-16.2,0,2018,5,16,19,6,0.656,0.2908,0.186,0.3494,-0.871
0.077,0.171,-0.229,-23.2,-68.1,-17.8,0,2018,5,16,19,6,0.676,0.2934,0.1883,0.3578,-0.8662
0.066,0.14,-0.251,-15.2,-97,-19.1,0,2018,5,16,19,6,0.692,0.2979,0.188,0.371,-0.8591
0.054,0.081,-0.212,-6,-110.7,-19.4,0,2018,5,16,19,6,0.712,0.3035,0.1854,0.3867,-0.8508
0.057,-0.019,-0.125,1,-104.9,-19.5,0,2018,5,16,19,6,0.752,0.3098,0.1812,0.4023,-0.8422
0.037,-0.008,-0.063,4.5,-91.6,-19,0,2018,5,16,19,6,0.772,0.3159,0.1772,0.4165,-0.8338
0.011,0.039,-0.053,6.8,-85.9,-16.9,0,2018,5,16,19,6,0.776,0.3218,0.1732,0.4289,-0.826
-0.017,0.145,-0.023,8.1,-82.7,-11.1,0,2018,5,16,19,6,0.795,0.3274,0.1689,0.4399,-0.8189
-0.018,0.006,0.036,7.7,-75.1,-1.9,0,2018,5,16,19,6,0.817,0.3316,0.1636,0.451,-0.8122
0.012,-0.151,0.049,12.2,-19.3,0,0,2018,5,16,19,6,0.835,0.3336,0.1589,0.4575,-0.8087
0.025,-0.037,0.022,15.4,22.6,2.3,0,2018,5,16,19,6,0.856,0.3342,0.1567,0.4562,-0.8096
0.034,0.117,-0.095,14.6,6.2,5.5,0,2018,5,16,19,6,0.876,0.3349,0.1559,0.4533,-0.8111
-0.009,0.269,-0.194,23.7,-14.3,15.9,0,2018,5,16,19,6,0.897,0.335,0.1521,0.4531,-0.8119
-0.069,0.327,-0.159,32.6,-38.5,25.2,0,2018,5,16,19,6,0.913,0.3352,0.1448,0.456,-0.8115
-0.118,0.378,-0.036,29.5,-79.5,34.6,0,2018,5,16,19,6,0.95,0.335,0.1344,0.4632,-0.8093
-0.09,0.295,-0.008,18.6,-120.2,44.7,0,2018,5,16,19,6,0.971,0.3337,0.1217,0.4775,-0.8035
-0.087,0.304,-0.063,15.6,-126.6,59.4,0,2018,5,16,19,6,0.975,0.3304,0.1077,0.4952,-0.7961
-0.134,0.235,0.008,19.4,-104.9,80.7,0,2018,5,16,19,6,1.014,0.3246,0.0923,0.5127,-0.7894
-0.322,0.82,-0.041,48.9,22.5,125.3,0,2018,5,16,19,6,1.035,0.314,0.0758,0.5156,-0.7935
-0.199,0.534,-0.255,62.6,10.5,161.3,1023,2018,5,16,19,6,1.039,0.2985,0.0557,0.5131,-0.8027
-0.37,0.888,-0.141,76,-4.4,185.8,1023,2018,5,16,19,6,1.057,0.2806,0.0306,0.5088,-0.8132
-0.14,0.547,-0.576,114.2,17.9,204.2,1023,2018,5,16,19,6,1.095,0.2606,-0.0001,0.5047,-0.823
0.17,-0.041,-0.398,135.6,34.1,221.1,1023,2018,5,16,19,6,1.114,0.2403,-0.0354,0.4979,-0.8324
0.103,0.054,-0.365,180.3,123.6,216.3,1023,2018,5,16,19,6,1.118,0.223,-0.0738,0.4771,-0.8468
-0.015,0.261,-0.194,208.6,133.1,204.5,1023,2018,5,16,19,6,1.157,0.2098,-0.1154,0.4464,-0.8621
-0.135,0.179,0.194,201.2,88.3,186.5,1023,2018,5,16,19,6,1.161,0.1986,-0.1576,0.4174,-0.8725
-0.102,-0.246,0.238,193.4,114.7,172.2,1023,2018,5,16,19,6,1.175,0.1882,-0.1972,0.3909,-0.8791
-0.1,-0.345,0.481,196.4,213.7,161.6,1023,2018,5,16,19,6,1.197,0.1818,-0.2323,0.3531,-0.8878
-0.723,0.748,1.2,158.4,133.6,149.6,0,2018,5,16,19,6,1.217,0.1771,-0.2639,0.3096,-0.8961
-0.472,0.219,1.248,32.7,-101.4,114.5,0,2018,5,16,19,6,1.255,0.1621,-0.2844,0.3007,-0.8957
-0.154,-0.772,0.387,-23.1,-169,97.2,0,2018,5,16,19,6,1.277,0.1374,-0.294,0.3197,-0.8901
0.143,-1.252,0.009,1.5,29,107.6,0,2018,5,16,19,6,1.281,0.1165,-0.2992,0.3263,-0.889
-0.142,-1.645,-0.29,52,223.9,86.7,0,2018,5,16,19,6,1.298,0.1096,-0.3068,0.2984,-0.897
0.002,-0.884,-0.243,80.1,261.4,39.2,0,2018,5,16,19,6,1.317,0.1182,-0.3155,0.2532,-0.9068
-0.102,-0.014,-0.024,65.8,169.3,0.7,0,2018,5,16,19,6,1.34,0.1308,-0.3235,0.215,-0.9121
-0.21,0.331,-0.019,40.4,25.3,-14.9,0,2018,5,16,19,6,1.377,0.1395,-0.3293,0.1996,-0.9122
-0.13,0.153,-0.068,23.4,-48.7,-18.4,0,2018,5,16,19,6,1.381,0.1418,-0.334,0.2033,-0.9093
-0.058,-0.049,0.105,22,-29.1,-12.8,0,2018,5,16,19,6,1.397,0.1419,-0.3381,0.2106,-0.9061
-0.15,0.33,0.435,17.2,5.1,1.7,0,2018,5,16,19,6,1.419,0.1435,-0.3414,0.2097,-0.9048
-0.136,0.109,0.487,-1.8,14.8,10.3,0,2018,5,16,19,6,1.439,0.1428,-0.3426,0.2077,-0.905
-0.117,0.232,0.306,-21.4,14,19.3,0,2018,5,16,19,6,1.458,0.1408,-0.3407,0.2042,-0.9068
-0.018,0.198,0.041,-28.2,-5.1,24.1,0,2018,5,16,19,6,1.478,0.1363,-0.3372,0.2025,-0.9091
0.058,0.051,-0.078,-25.2,-24.9,19.1,0,2018,5,16,19,6,1.5,0.1301,-0.3342,0.2038,-0.9109
0.092,-0.105,-0.074,-19.3,-36.3,10.6,0,2018,5,16,19,6,1.519,0.1249,-0.332,0.2089,-0.9113
0.079,-0.144,-0.044,-12,-28.2,3.9,0,2018,5,16,19,6,1.559,0.1212,-0.3305,0.214,-0.9111
0.069,-0.046,0.014,-9,-16.4,3.3,0,2018,5,16,19,6,1.579,0.119,-0.3292,0.2174,-0.9111
0.047,-0.025,0.016,-8.2,-6.5,5.5,0,2018,5,16,19,6,1.584,0.1175,-0.3277,0.2195,-0.9113
0.071,-0.036,0.031,-5.8,8.9,7.5,0,2018,5,16,19,6,1.597,0.1162,-0.3262,0.2193,-0.912
0.051,-0.031,0.046,-2.8,26.1,8.4,0,2018,5,16,19,6,1.637,0.1159,-0.3249,0.2162,-0.9133
0.041,0.038,0.038,-2.4,32.6,8.3,0,2018,5,16,19,6,1.656,0.1163,-0.3236,0.2106,-0.915
0.024,0.083,0.031,-3.3,26.5,8.6,0,2018,5,16,19,6,1.66,0.1162,-0.3224,0.2045,-0.9168
0.015,0.031,0.034,-6,15.3,7.6,0,2018,5,16,19,6,1.697,0.1154,-0.3211,0.2,-0.9184
0.002,-0.01,0.061,-8.8,8.1,5.5,0,2018,5,16,19,6,1.718,0.1145,-0.3196,0.1977,-0.9195
0.002,-0.018,0.086,-12.6,10,3.7,0,2018,5,16,19,6,1.722,0.1137,-0.3174,0.1959,-0.9208
0,-0.036,0.12,-16.5,19.7,3.2,0,2018,5,16,19,6,1.743,0.1134,-0.3143,0.1935,-0.9224
-0.016,-0.026,0.102,-21.5,24.8,3,0,2018,5,16,19,6,1.763,0.1137,-0.3103,0.1898,-0.9245
-0.023,-0.067,0.075,-26.3,26.2,3.7,0,2018,5,16,19,6,1.784,0.1136,-0.3057,0.1858,-0.9268
-0.041,-0.022,0.059,-32.3,19.2,2.3,0,2018,5,16,19,6,1.803,0.1135,-0.3005,0.1825,-0.9291
-0.018,0.072,0.053,-40.1,-3.2,1.8,0,2018,5,16,19,6,1.819,0.1121,-0.2945,0.1811,-0.9315
-0.02,0.076,0.06,-46.6,-23.3,1.7,1023,2018,5,16,19,6,1.857,0.1094,-0.2876,0.1832,-0.9336
-0.022,0.038,0.052,-52.7,-36.6,2,1023,2018,5,16,19,6,1.878,0.1056,-0.2799,0.1882,-0.9354
0.021,0.068,-0.037,-55.9,-46.6,3,1023,2018,5,16,19,6,1.882,0.101,-0.2718,0.1954,-0.9368
0.055,0.089,-0.095,-52.4,-47.5,5.4,1023,2018,5,16,19,6,1.9,0.0959,-0.2639,0.2035,-0.9379
0.041,0.092,-0.034,-48.8,-52.8,6.4,1023,2018,5,16,19,6,1.92,0.0906,-0.2566,0.2116,-0.9386
0.024,0.058,0.032,-48.4,-59.1,7.3,1023,2018,5,16,19,6,1.961,0.085,-0.2496,0.2206,-0.939
0.029,0.006,0.047,-49.3,-58.9,8.3,1023,2018,5,16,19,6,1.979,0.0794,-0.2423,0.2304,-0.939
0.048,-0.007,0.013,-48.2,-58.5,8.3,1023,2018,5,16,19,6,1.984,0.0736,-0.235,0.2402,-0.9389
0.039,-0.063,0.026,-46.5,-58.2,5.7,1023,2018,5,16,19,6,2.02,0.0684,-0.2279,0.2506,-0.9383
0.02,-0.129,0.071,-44.7,-44.3,1.6,0,2018,5,16,19,6,2.041,0.0642,-0.2207,0.26,-0.9378
0.062,-0.038,0.024,-43.3,-30.4,-1.1,0,2018,5,16,19,6,2.046,0.0612,-0.2134,0.2671,-0.9377
0.105,0.026,-0.056,-40.6,-28.2,-1.2,0,2018,5,16,19,6,2.065,0.059,-0.2061,0.2726,-0.9378
0.12,0.031,-0.045,-34.7,-18.1,1.6,0,2018,5,16,19,6,2.086,0.0565,-0.1995,0.2772,-0.9381
0.092,0.09,-0.038,-22.9,16.8,7.3,0,2018,5,16,19,6,2.103,0.0548,-0.1941,0.2775,-0.9392
0.127,0.119,-0.097,-7.6,48.4,9.2,0,2018,5,16,19,6,2.142,0.0542,-0.1908,0.2714,-0.9417
0.148,0.131,-0.123,3.9,64.6,13.3,0,2018,5,16,19,6,2.146,0.0547,-0.1896,0.2612,-0.9448
0.11,0.17,-0.087,9.4,50.9,15,0,2018,5,16,19,6,2.164,0.0548,-0.1905,0.2507,-0.9475
0.1,0.03,-0.065,14.8,43.9,15,0,2018,5,16,19,6,2.184,0.0545,-0.1919,0.2422,-0.9494
0.074,-0.085,-0.012,17.9,45.9,6.7,0,2018,5,16,19,6,2.221,0.0553,-0.1946,0.2348,-0.9507
0.021,-0.032,0.116,12.8,41.6,-3.4,0,2018,5,16,19,6,2.243,0.0576,-0.1962,0.2273,-0.952
0.039,0.028,0.098,4.5,10.4,-13.8,0,2018,5,16,19,6,2.247,0.0609,-0.1965,0.2226,-0.9529
0.072,0.046,0.079,-5.2,-36,-20.5,0,2018,5,16,19,6,2.266,0.0637,-0.1951,0.2251,-0.9524
0.134,-0.251,0.101,-9.3,-43.1,-23,0,2018,5,16,19,6,2.286,0.0657,-0.1928,0.2338,-0.9506
0.1,-0.256,0.163,-4.6,3.6,-27.8,0,2018,5,16,19,6,2.302,0.0693,-0.1909,0.2382,-0.9497
0.027,0.084,0.185,-5.9,25.3,-31.1,0,2018,5,16,19,6,2.339,0.0748,-0.1882,0.2358,-0.9504
0.025,-0.089,0.195,-16.7,32.3,-35.3,0,2018,5,16,19,6,2.361,0.0811,-0.1843,0.2324,-0.9515
0.02,-0.008,0.251,-27.2,38.9,-41.7,0,2018,5,16,19,6,2.365,0.0881,-0.1777,0.2274,-0.9533
0.047,-0.047,0.308,-45.8,-8.7,-59.3,0,2018,5,16,19,6,2.386,0.0959,-0.1687,0.2261,-0.9545
-0.026,0.281,0.395,-58.8,-47.5,-54.3,0,2018,5,16,19,6,2.406,0.1028,-0.1579,0.2339,-0.9537
-0.215,0.538,0.278,-75.9,-85.4,-35,0,2018,5,16,19,6,2.424,0.1052,-0.146,0.2481,-0.9518
-0.24,0.563,0.173,-91.5,-140,-34.3,0,2018,5,16,19,6,2.465,0.1043,-0.1327,0.2682,-0.9484
-0.049,0.004,0.132,-123.4,-291.3,-78.7,0,2018,5,16,19,6,2.485,0.1033,-0.1162,0.3068,-0.9389
0.047,-0.26,0.061,-143.1,-400.1,-103.4,0,2018,5,16,19,6,2.489,0.1044,-0.0948,0.3688,-0.9186
0.184,-0.388,-0.046,-137.1,-427.1,-127.7,0,2018,5,16,19,6,2.53,0.1065,-0.072,0.4397,-0.8888
0.269,-0.627,-0.163,-113.5,-387.5,-156.6,0,2018,5,16,19,6,2.532,0.1137,-0.0489,0.5058,-0.8536
0.24,-0.882,-0.221,-75.7,-313.5,-184.1,0,2018,5,16,19,6,2.541,0.1274,-0.0264,0.5606,-0.8177
0.216,-1.134,-0.206,-33.4,-193.2,-211,0,2018,5,16,19,6,2.579,0.1491,-0.0047,0.5979,-0.7875
0.059,-0.982,0.095,-1,-55.3,-225.5,0,2018,5,16,19,6,2.602,0.1772,0.0171,0.6149,-0.7681
-0.419,0.346,0.322,16.6,103.4,-196.9,0,2018,5,16,19,6,2.606,0.2067,0.0392,0.6079,-0.7655
-0.453,1.01,0.462,-13.2,53.7,-182,0,2018,5,16,19,6,2.627,0.2309,0.0619,0.5948,-0.7674
-0.333,0.919,0.148,-39.2,-36.2,-173.2,1023,2018,5,16,19,6,2.647,0.2519,0.0843,0.593,-0.76
-0.084,0.766,-0.189,-46.1,-114.2,-153.5,1023,2018,5,16,19,6,2.685,0.2697,0.1035,0.6026,-0.7438
0.002,0.311,-0.437,-29.2,-139.3,-144,1023,2018,5,16,19,6,2.705,0.2871,0.1178,0.6185,-0.7218
0.078,-0.107,-0.409,-2.4,-107.3,-122.5,1023,2018,5,16,19,6,2.709,0.3049,0.1278,0.6323,-0.7005
-0.088,0.074,-0.337,33.4,-11.7,-92.7,1023,2018,5,16,19,6,2.747,0.3211,0.1344,0.6366,-0.688
-0.375,1.013,-0.131,55.4,84.8,-42.4,1023,2018,5,16,19,6,2.768,0.3337,0.1391,0.627,-0.6899
-0.527,1.445,0.049,46.8,50,16.1,1023,2018,5,16,19,6,2.772,0.3383,0.1379,0.6141,-0.6995
-0.178,0.541,-0.091,22.7,-48.1,24.2,0,2018,5,16,19,6,2.787,0.3394,0.1312,0.6131,-0.7011
-0.047,-0.133,-0.161,11.3,-82.9,31.9,0,2018,5,16,19,6,2.807,0.3394,0.122,0.6222,-0.6947
0.06,-0.358,-0.133,19.1,-49.8,24.8,0,2018,5,16,19,6,2.826,0.3388,0.1128,0.6305,-0.6891
0.056,-0.284,-0.039,27,-9.6,8.2,0,2018,5,16,19,6,2.866,0.3401,0.1065,0.633,-0.6871
0.027,-0.114,0.13,24.2,7.8,-1,0,2018,5,16,19,6,2.888,0.3423,0.1025,0.6312,-0.6883
-0.021,0.033,0.221,10.8,1.2,-5.8,0,2018,5,16,19,6,2.892,0.3447,0.101,0.6292,-0.6891
-0.032,0.037,0.149,-0.9,-6.1,-7.5,0,2018,5,16,19,6,2.91,0.346,0.1011,0.6293,-0.6884
-0.013,0.008,0.052,-4.6,5.9,-6.4,0,2018,5,16,19,6,2.93,0.3467,0.102,0.6288,-0.6883
0.001,0.033,-0.012,-4,23.6,-4.9,0,2018,5,16,19,6,2.95,0.3467,0.1042,0.6268,-0.6898
0,0.116,-0.033,-5.4,23.8,-5.7,0,2018,5,16,19,6,2.97,0.3466,0.1072,0.624,-0.692
-0.018,0.203,-0.037,-10.1,1.2,-2.8,0,2018,5,16,19,6,2.986,0.3469,0.1101,0.6229,-0.6923
-0.017,0.111,-0.038,-9.1,-13.5,2.5,0,2018,5,16,19,6,3.023,0.3466,0.1115,0.6246,-0.6908
-0.014,0.075,-0.002,-6.3,-9,9.4,0,2018,5,16,19,6,3.043,0.3454,0.1113,0.6266,-0.6896
-0.033,0.041,0.002,-4.6,0.9,15.8,0,2018,5,16,19,6,3.047,0.3435,0.1103,0.6273,-0.69
-0.016,-0.002,-0.026,-3,11.6,20.5,0,2018,5,16,19,6,3.087,0.3406,0.109,0.6272,-0.6917
-0.012,-0.071,-0.036,3.7,42.7,26.7,0,2018,5,16,19,6,3.091,0.3369,0.1076,0.6249,-0.6958
-0.005,-0.073,0.008,12.9,86.4,31.7,0,2018,5,16,19,6,3.107,0.3327,0.1068,0.617,-0.705
0.037,-0.133,0.047,17.4,123.6,32.5,0,2018,5,16,19,6,3.147,0.3281,0.1071,0.6033,-0.7188
0,0.151,0.096,8,106.2,30,0,2018,5,16,19,6,3.168,0.3234,0.109,0.5875,-0.7336
0.004,0.17,0.103,-6,53.3,31.1,0,2018,5,16,19,6,3.172,0.318,0.1102,0.578,-0.7433
0.026,0.025,0.012,-12,26.2,27.5,0,2018,5,16,19,6,3.188,0.3127,0.1107,0.5741,-0.7485
0.064,-0.096,-0.029,-9.7,37.2,21.6,0,2018,5,16,19,6,3.207,0.3078,0.1114,0.5714,-0.7525
0.092,-0.063,-0.021,-5.4,54.2,13.2,0,2018,5,16,19,6,3.248,0.3039,0.1134,0.5664,-0.7576
0.058,0.064,0.045,-6,53.2,9.9,0,2018,5,16,19,6,3.252,0.3011,0.1164,0.5593,-0.7634
0.042,0.078,0.034,-9.1,46.6,11.7,0,2018,5,16,19,6,3.27,0.2984,0.1195,0.5527,-0.7687
0.012,0.114,0.045,-7.2,55,14.2,0,2018,5,16,19,6,3.29,0.2953,0.1225,0.5459,-0.7743
0.014,0.058,0.028,-6.5,49.8,11,0,2018,5,16,19,6,3.31,0.2923,0.1251,0.5385,-0.7802
0.037,0.108,0.05,-12.9,21.2,11.1,0,2018,5,16,19,6,3.33,0.2897,0.1279,0.5336,-0.7841
0.098,-0.016,0.079,-15.7,10.9,11.1,0,2018,5,16,19,6,3.351,0.2871,0.13,0.5323,-0.7856
0.11,-0.114,0.009,-12.6,26.6,12.2,0,2018,5,16,19,6,3.373,0.2839,0.1322,0.5306,-0.7876
0.106,-0.072,-0.057,-3.7,58.9,10.5,0,2018,5,16,19,6,3.393,0.2806,0.1347,0.5259,-0.7914
0.023,0.108,-0.049,-3.4,47.5,4.7,1023,2018,5,16,19,6,3.409,0.278,0.1378,0.5178,-0.7971
0.189,-0.023,-0.116,-6.8,-11,-11.7,1023,2018,5,16,19,6,3.429,0.2781,0.1401,0.516,-0.7979
0.176,-0.142,-0.066,-3.5,-29.3,-19.1,1023,2018,5,16,19,6,3.449,0.2806,0.1411,0.5192,-0.7947
0.146,-0.225,-0.013,1,-17.3,-24.2,1023,2018,5,16,19,6,3.469,0.284,0.1422,0.5226,-0.7911
0.099,-0.184,-0.061,11.2,22.3,-30.8,1023,2018,5,16,19,6,3.49,0.2881,0.1439,0.5226,-0.7893
0,0.107,-0.098,21.5,62.2,-29.8,1023,2018,5,16,19,6,3.511,0.2926,0.1471,0.5148,-0.7922
0.014,0.175,-0.059,22.8,38.9,-33,1023,2018,5,16,19,6,3.55,0.2979,0.1499,0.5057,-0.7955
0.007,0.199,-0.079,21.8,6.7,-29.9,1023,2018,5,16,19,6,3.568,0.3037,0.1507,0.5009,-0.7962
-0.022,0.174,-0.102,23,-0.1,-22.6,1023,2018,5,16,19,6,3.572,0.3098,0.1505,0.4991,-0.795
-0.057,0.302,-0.017,17.3,-12.7,-17.5,0,2018,5,16,19,6,3.593,0.3147,0.1492,0.498,-0.7941
-0.065,0.163,0.016,9,-37.5,-14.4,0,2018,5,16,19,6,3.612,0.3189,0.1474,0.5009,-0.7909
-0.102,0.152,0.021,9,-26.1,0.7,0,2018,5,16,19,6,3.633,0.3221,0.1448,0.5041,-0.788
-0.119,0.189,-0.001,9.3,-8.7,12.5,0,2018,5,16,19,6,3.669,0.3229,0.1417,0.5053,-0.7875
-0.158,0.326,-0.028,3.3,-15.4,22.8,0,2018,5,16,19,6,3.688,0.3214,0.1386,0.5069,-0.7877
-0.166,0.486,-0.078,-3.8,-47.1,40.2,0,2018,5,16,19,6,3.693,0.3178,0.1342,0.5119,-0.7866
-0.134,0.442,-0.114,-12.6,-106,50.6,0,2018,5,16,19,6,3.711,0.3126,0.1268,0.5241,-0.7819
-0.123,0.252,-0.047,-24.4,-157.3,59.6,0,2018,5,16,19,6,3.731,0.3066,0.117,0.5454,-0.7711
-0.14,0.201,0.101,-27.6,-145.9,73.6,0,2018,5,16,19,6,3.77,0.2983,0.1059,0.568,-0.7596
-0.157,0.108,0.099,-34.4,-117.6,87.2,0,2018,5,16,19,6,3.791,0.2869,0.0951,0.5889,-0.7494
0.08,0.047,-0.204,-12.4,-22.6,120.2,0,2018,5,16,19,6,3.795,0.2719,0.0839,0.6023,-0.7457
-0.068,1.06,-0.424,35,108.6,184.2,0,2018,5,16,19,6,3.813,0.2514,0.0681,0.5949,-0.7604
-0.108,1.037,-0.309,60.8,52.4,202,0,2018,5,16,19,6,3.832,0.2297,0.0452,0.5834,-0.7776
-0.033,0.628,-0.295,83.3,30.8,222.5,0,2018,5,16,19,6,3.872,0.2076,0.0151,0.577,-0.7896
0.093,0.272,-0.229,109.2,43.4,234.5,0,2018,5,16,19,6,3.892,0.1853,-0.0199,0.5691,-0.8008
0.257,-0.08,-0.295,143.9,110.3,235.6,0,2018,5,16,19,6,3.896,0.165,-0.0585,0.553,-0.8145
0.207,0.229,-0.258,179.5,163.4,227.4,0,2018,5,16,19,6,3.912,0.1491,-0.1001,0.5247,-0.8321
0.071,0.277,-0.045,180.5,108.5,210.8,0,2018,5,16,19,6,3.933,0.1363,-0.1428,0.4946,-0.8463
0.02,-0.75,-0.181,182,110.7,181,0,2018,5,16,19,6,3.952,0.1253,-0.1836,0.4702,-0.854
-0.515,0.006,0.47,181.6,165.8,152.9,0,2018,5,16,19,6,3.991,0.1202,-0.2218,0.4381,-0.8627
-0.989,-0.024,1.331,89.6,-95.4,94.7,0,2018,5,16,19,6,4.012,0.1127,-0.2528,0.4213,-0.8636
-0.358,-1.612,1.044,-4.8,-194.1,50.3,0,2018,5,16,19,6,4.016,0.0974,-0.266,0.4451,-0.8494
-0.503,-1.702,0.723,-30.6,-30.5,25.9,0,2018,5,16,19,6,4.036,0.0853,-0.267,0.4611,-0.8418
-0.293,-1.093,0.168,-27.5,126,0,0,2018,5,16,19,6,4.072,0.0842,-0.2624,0.4533,-0.8476
-0.251,-0.056,0.071,-25.1,174.4,-4.7,0,2018,5,16,19,6,4.093,0.0901,-0.2564,0.4295,-0.8611
-0.125,0.34,-0.157,-26.9,134.9,-1.5,0,2018,5,16,19,6,4.097,0.0957,-0.2495,0.4067,-0.8735
-0.037,0.498,-0.252,-17.4,80.1,11.1,0,2018,5,16,19,6,4.113,0.0983,-0.2447,0.3907,-0.8818
-0.125,0.564,-0.224,0.2,51.8,28.9,0,2018,5,16,19,6,4.134,0.0973,-0.2439,0.3799,-0.8869
-0.042,0.337,-0.165,10.6,1.9,32.6,0,2018,5,16,19,6,4.173,0.0943,-0.2465,0.3747,-0.8887
-0.084,0.138,-0.086,16.5,-34.3,33.9,0,2018,5,16,19,6,4.192,0.0893,-0.2512,0.3763,-0.8872
-0.085,-0.163,-0.086,23.9,-14.7,33.2,0,2018,5,16,19,6,4.197,0.0841,-0.2576,0.3793,-0.8846
-0.044,-0.157,-0.105,31.5,22.6,27.1,1023,2018,5,16,19,6,4.216,0.0818,-0.2638,0.3768,-0.8841
-0.022,-0.118,-0.005,33.1,29.9,24.7,1023,2018,5,16,19,6,4.236,0.0817,-0.2704,0.3712,-0.8844
-0.048,-0.129,0.103,29.1,29.4,21.4,1023,2018,5,16,19,6,4.273,0.0817,-0.2763,0.3655,-0.885
-0.071,-0.054,0.182,20.4,28.2,16.3,1023,2018,5,16,19,6,4.294,0.082,-0.2808,0.3593,-0.8861
-0.027,0.022,0.178,7.2,15.1,12.7,1023,2018,5,16,19,6,4.298,0.0817,-0.2832,0.3541,-0.8875
0.011,0.049,0.113,-4.1,-3.8,11.6,1023,2018,5,16,19,6,4.336,0.0803,-0.2837,0.352,-0.8883
0.003,-0.041,0.101,-12.7,-20.4,10,1023,2018,5,16,19,6,4.341,0.0776,-0.2828,0.3531,-0.8884
-0.002,-0.073,0.129,-18.7,-23.2,7.1,1023,2018,5,16,19,6,4.359,0.0746,-0.2807,0.3563,-0.888
0.002,-0.077,0.142,-23.4,-16,4.5,1023,2018,5,16,19,6,4.375,0.0719,-0.2775,0.3592,-0.888
0.016,-0.042,0.119,-27.9,-9.7,2.8,0,2018,5,16,19,6,4.394,0.0696,-0.2733,0.3611,-0.8888
-0.027,-0.046,0.039,-31.7,-4,2.6,0,2018,5,16,19,6,4.418,0.0671,-0.2685,0.362,-0.89
-0.094,-0.016,-0.035,-38.1,-14.1,1.9,0,2018,5,16,19,6,4.436,0.0642,-0.2641,0.3637,-0.8909
0.072,0.015,-0.101,-36.7,-25.3,-3.1,0,2018,5,16,19,6,4.455,0.0605,-0.2587,0.3676,-0.8912
0.09,0.002,-0.168,-29,-26,-3,0,2018,5,16,19,6,4.496,0.0582,-0.2535,0.3721,-0.8909
0.157,-0.132,-0.115,-25.2,-34.5,2.4,0,2018,5,16,19,6,4.514,0.0547,-0.2493,0.3785,-0.8896
0.045,0.116,-0.104,-12.2,-7.7,-3,0,2018,5,16,19,6,4.519,0.0535,-0.247,0.381,-0.8893
0.127,0.006,-0.045,-9.7,-34.7,-3.8,0,2018,5,16,19,6,4.556,0.0527,-0.2448,0.3851,-0.8882
0.111,-0.122,-0.03,-0.8,-13.5,-4.9,0,2018,5,16,19,6,4.578,0.052,-0.2438,0.3896,-0.8865
0.096,-0.073,0.014,6.1,15.4,-6.7,0,2018,5,16,19,6,4.582,0.0535,-0.2438,0.3896,-0.8864
0.09,0.04,0.042,9.8,23.3,-6.2,0,2018,5,16,19,6,4.596,0.0566,-0.2436,0.3865,-0.8876
0.085,0.047,0.043,10.8,18.1,-6.6,0,2018,5,16,19,6,4.617,0.0595,-0.2438,0.383,-0.8889
0.035,0.111,0.06,10.5,12.9,-6.5,0,2018,5,16,19,6,4.637,0.0624,-0.2444,0.3799,-0.8899
0.018,0.088,0.082,0.9,-15.6,-7.2,0,2018,5,16,19,6,4.658,0.0638,-0.2446,0.3792,-0.89
0.04,0.026,0.062,-7.1,-35,-5.5,0,2018,5,16,19,6,4.678,0.0636,-0.2435,0.3831,-0.8887
0.054,0.022,0.039,-8.2,-29.6,-3.8,0,2018,5,16,19,6,4.699,0.0627,-0.2418,0.3882,-0.887
0.048,0.055,0.051,-10,-18.8,-0.5,0,2018,5,16,19,6,4.719,0.0618,-0.2401,0.3917,-0.886
0.024,0.023,0.053,-14.4,-15.9,1.3,0,2018,5,16,19,6,4.739,0.0603,-0.238,0.3939,-0.8857
0.019,0.035,0.022,-15.6,-3.1,2.5,0,2018,5,16,19,6,4.761,0.0589,-0.2357,0.3949,-0.8859
0.048,0.025,-0.007,-18,-9.8,4.3,0,2018,5,16,19,6,4.78,0.0572,-0.2331,0.3955,-0.8864
0.066,0.031,-0.026,-14.2,-8.1,7.5,0,2018,5,16,19,6,4.8,0.0549,-0.2308,0.3971,-0.8865
0.021,0.009,0.04,-9.7,4.5,6.1,0,2018,5,16,19,6,4.819,0.0532,-0.2293,0.397,-0.887
-0.005,-0.098,0,-7.3,8.4,3.8,0,2018,5,16,19,6,4.837,0.0521,-0.2279,0.3959,-0.888
0.039,0.021,-0.093,-2.9,5.9,5.5,0,2018,5,16,19,6,4.876,0.0512,-0.2276,0.3946,-0.8887
0.038,-0.065,-0.096,5,10.1,2.1,0,2018,5,16,19,6,4.895,0.0512,-0.228,0.3941,-0.8888
-0.003,-0.304,-0.036,9.4,29.6,-3.7,0,2018,5,16,19,6,4.899,0.0529,-0.2289,0.392,-0.8894
0.001,-0.461,0.037,12.4,65.9,-12.2,0,2018,5,16,19,6,4.937,0.0569,-0.2297,0.3848,-0.8921
-0.015,-0.285,0.015,12.6,91.1,-20.2,0,2018,5,16,19,6,4.957,0.0636,-0.2298,0.3727,-0.8967
-0.003,-0.101,-0.042,13.3,95.3,-25.8,0,2018,5,16,19,6,4.962,0.0724,-0.2292,0.3592,-0.9017
-0.048,0.064,0.004,10.2,62.8,-31.3,0,2018,5,16,19,6,4.98,0.0809,-0.2286,0.3473,-0.9057
-0.074,0.052,0.167,-2.2,-11,-44.4,1023,2018,5,16,19,6,5.021,0.0881,-0.227,0.3434,-0.907
0.011,-0.104,0.288,-21.3,-98.1,-66.9,1023,2018,5,16,19,6,5.026,0.0939,-0.2226,0.355,-0.903
0.038,-0.157,0.282,-26.5,-94.5,-73.7,1023,2018,5,16,19,6,5.04,0.1001,-0.2157,0.3747,-0.896
-0.073,0.135,0.39,-43.5,-117.8,-82,1023,2018,5,16,19,6,5.059,0.1063,-0.2072,0.3936,-0.8892
-0.023,-0.325,0.337,-69.4,-174.3,-105.5,1023,2018,5,16,19,6,5.078,0.1114,-0.1946,0.4206,-0.879
-0.313,-0.119,0.187,-76.2,-123.1,-110.2,1023,2018,5,16,19,6,5.101,0.1181,-0.1776,0.4488,-0.8677
0.147,-0.386,0.069,-81.8,-147.3,-163.3,1023,2018,5,16,19,6,5.12,0.1287,-0.157,0.4752,-0.856
0.215,-0.454,-0.049,-72.3,-143.4,-171.6,0,2018,5,16,19,6,5.16,0.1433,-0.1344,0.5045,-0.8407
0.059,-0.508,0.136,-57.4,-76.3,-179.6,0,2018,5,16,19,6,5.179,0.1609,-0.1122,0.5255,-0.8278
-0.164,-0.01,0.304,-57.9,-37,-188.8,0,2018,5,16,19,6,5.184,0.1816,-0.0887,0.5374,-0.8186
-0.124,0.11,0.399,-76.6,-84.6,-196.6,0,2018,5,16,19,6,5.203,0.2019,-0.0629,0.5516,-0.8068
-0.025,-0.406,0.265,-66.4,18.3,-179.7,0,2018,5,16,19,6,5.225,0.2211,-0.0358,0.5631,-0.7954
-0.677,0.71,-0.015,-40.9,222.2,-133.8,0,2018,5,16,19,6,5.244,0.2384,-0.0084,0.5461,-0.8029
-0.333,1.073,0.101,-66.5,75.3,-127.1,0,2018,5,16,19,6,5.263,0.2514,0.0179,0.5252,-0.8127
-0.055,0.51,0.014,-86,-56.8,-133.1,0,2018,5,16,19,6,5.281,0.2627,0.0405,0.5286,-0.8061
-0.007,0.089,-0.18,-90.1,-129.8,-136.6,0,2018,5,16,19,6,5.318,0.2742,0.0611,0.5454,-0.7896
0.081,0.078,-0.518,-67.2,-121.4,-140,0,2018,5,16,19,6,5.339,0.2873,0.0789,0.5653,-0.7691
0.097,0.048,-0.5,-43.8,-150.9,-153.8,0,2018,5,16,19,6,5.343,0.3035,0.094,0.5842,-0.7467
0.057,-0.093,-0.445,-8.2,-112.7,-136.9,0,2018,5,16,19,6,5.381,0.3224,0.1051,0.6013,-0.7234
-0.064,0.051,-0.297,36.4,9.5,-94.8,0,2018,5,16,19,6,5.4,0.3398,0.1124,0.6054,-0.7108
-0.335,0.698,0.206,48,122.6,-46,0,2018,5,16,19,6,5.405,0.3515,0.1185,0.5921,-0.7153
-0.445,1.069,0.282,33.1,114.3,-5.6,0,2018,5,16,19,6,5.423,0.3563,0.1235,0.5727,-0.7277
-0.234,0.731,0.064,5,22.7,18.3,0,2018,5,16,19,6,5.443,0.3556,0.1246,0.5634,-0.7351
-0.029,0.116,-0.218,-5.4,-27.6,27.6,0,2018,5,16,19,6,5.482,0.3527,0.1218,0.5657,-0.7352
0.057,-0.176,-0.228,3.3,-15.9,25.1,0,2018,5,16,19,6,5.487,0.3496,0.1179,0.5695,-0.7345
0.081,-0.127,-0.09,11.7,8.4,17.5,0,2018,5,16,19,6,5.503,0.3479,0.1145,0.5701,-0.7353
0.053,0.044,0.027,11.2,13.6,11.7,0,2018,5,16,19,6,5.539,0.3473,0.1125,0.5682,-0.7374
0.027,0.138,0.069,2.3,-3.7,8.2,0,2018,5,16,19,6,5.56,0.3471,0.1111,0.5675,-0.7382
0.008,0.08,0.024,-5.8,-12.4,6.6,0,2018,5,16,19,6,5.564,0.3466,0.1103,0.5684,-0.7379
0.006,0.083,0.018,-8.5,-4.1,6.1,0,2018,5,16,19,6,5.583,0.3457,0.1103,0.5698,-0.7372
-0.013,0.173,0.071,-11.8,-8.6,4.8,0,2018,5,16,19,6,5.622,0.3445,0.1109,0.571,-0.7367
0.012,0.187,0.052,-18.6,-26.5,3.7,0,2018,5,16,19,6,5.643,0.343,0.1114,0.5746,-0.7346
0.044,0.1,0.001,-22.9,-37.4,4.3,0,2018,5,16,19,6,5.647,0.3414,0.1119,0.5802,-0.7309
0.06,0.024,-0.024,-19.4,-23.7,5.8,0,2018,5,16,19,6,5.666,0.3396,0.1128,0.5853,-0.7274
0.11,-0.072,-0.106,-14,-19,0.8,0,2018,5,16,19,6,5.687,0.3381,0.1136,0.5897,-0.7245
0.103,0.017,-0.047,-8.3,-16.3,0.1,0,2018,5,16,19,6,5.702,0.3376,0.1142,0.5925,-0.7223
0.081,-0.059,0.011,-5.4,-18.4,1.1,0,2018,5,16,19,6,5.723,0.3376,0.1142,0.5955,-0.7198
0.021,-0.109,0.062,-2.1,2.6,2.6,0,2018,5,16,19,6,5.743,0.3373,0.1137,0.597,-0.7189
0.022,-0.067,0.066,1.7,26.3,3.2,1023,2018,5,16,19,6,5.779,0.3367,0.1138,0.5949,-0.7209
0.014,0.01,0.087,1,30.7,3.7,1023,2018,5,16,19,6,5.799,0.3361,0.1148,0.5902,-0.7248
0.041,-0.057,0.034,-2.3,17.4,3.4,1023,2018,5,16,19,6,5.803,0.3354,0.1157,0.5871,-0.7275
0.085,-0.119,0.02,0,20.1,0.5,1023,2018,5,16,19,6,5.841,0.3346,0.1167,0.5849,-0.7295
0.088,-0.145,0.021,5.9,36.1,-1.4,1023,2018,5,16,19,6,5.862,0.3346,0.1178,0.5815,-0.732
0.036,-0.049,0.08,7.2,52.7,-3.6,1023,2018,5,16,19,6,5.866,0.3349,0.1195,0.5752,-0.7366
-0.007,0.107,0.089,1.7,56.1,-4.7,1023,2018,5,16,19,6,5.888,0.3351,0.1226,0.5671,-0.7422
0.032,0.12,-0.049,-2.7,41.5,-9.1,1023,2018,5,16,19,6,5.908,0.3354,0.1266,0.5605,-0.7464
0.082,0.114,-0.17,0.4,31.7,-10.1,1023,2018,5,16,19,6,5.927,0.3361,0.13,0.556,-0.7489
0.076,0.07,-0.132,6.7,16.3,-10.2,0,2018,5,16,19,6,5.948,0.3374,0.1319,0.5526,-0.7505
0.056,-0.06,-0.077,12,15.6,-12.5,0,2018,5,16,19,6,5.965,0.3396,0.1326,0.5505,-0.7509
0.029,-0.031,-0.05,11.1,39.5,-13.9,0,2018,5,16,19,6,5.985,0.3419,0.1341,0.5465,-0.7525
-0.014,0.201,-0.018,6.6,26.6,-13.9,0,2018,5,16,19,6,6.007,0.3444,0.1368,0.5406,-0.7552
-0.034,0.18,-0.021,1.2,4.8,-10.7,0,2018,5,16,19,6,6.025,0.3465,0.1385,0.538,-0.7557
-0.06,0.214,-0.022,-4.5,-9.5,-7,0,2018,5,16,19,6,6.043,0.3483,0.14,0.5376,-0.7549
-0.077,0.117,0.01,-10.9,-21,-3.6,0,2018,5,16,19,6,6.085,0.3491,0.1404,0.5397,-0.753
-0.081,-0.026,0.031,-21.5,-33.4,-11.6,0,2018,5,16,19,6,6.106,0.3495,0.1415,0.5437,-0.7497
-0.024,0.28,-0.046,-30.6,-54.3,-1.9,0,2018,5,16,19,6,6.11,0.349,0.1426,0.5502,-0.745
-0.092,-0.026,-0.066,-35,-57.6,-11.3,0,2018,5,16,19,6,6.127,0.3484,0.1442,0.5602,-0.7374
-0.019,0.088,-0.045,-32.6,-43.2,4.7,0,2018,5,16,19,6,6.167,0.3465,0.1453,0.5686,-0.7316
-0.045,0.081,-0.103,-27.3,-17.9,12.2,0,2018,5,16,19,6,6.187,0.3435,0.1466,0.5751,-0.7278
-0.087,0.256,-0.139,-22.6,-5.5,24.2,0,2018,5,16,19,6,6.191,0.3392,0.1477,0.5785,-0.7268
-0.154,0.213,-0.063,-20.6,-18.5,40.2,0,2018,5,16,19,6,6.205,0.3336,0.1468,0.5821,-0.7267
-0.051,0.27,-0.083,-16,-12.7,58,0,2018,5,16,19,6,6.225,0.3263,0.1431,0.5864,-0.7273
-0.018,0.123,0,-23.7,-47.7,52.7,0,2018,5,16,19,6,6.249,0.3184,0.1383,0.5925,-0.7268
-0.014,0.05,0.069,-29.1,-51.6,54.5,0,2018,5,16,19,6,6.269,0.3107,0.1332,0.6016,-0.7236
0.014,0.21,-0.01,-27.1,-22.8,61.8,0,2018,5,16,19,6,6.289,0.3018,0.129,0.6087,-0.7222
-0.057,0.455,0.057,-26.2,-9.4,73.1,0,2018,5,16,19,6,6.311,0.2908,0.1245,0.6132,-0.7237
-0.078,0.19,-0.084,-18.2,20.9,104.4,0,2018,5,16,19,6,6.33,0.2773,0.1182,0.617,-0.7268
-0.007,0.505,-0.354,31.6,161.8,146.3,0,2018,5,16,19,6,6.367,0.2595,0.1079,0.6058,-0.7442
0.038,0.887,-0.281,50.4,115.4,169.3,0,2018,5,16,19,6,6.372,0.2404,0.0923,0.5873,-0.7672
0.012,0.658,-0.325,81,104.1,183.4,0,2018,5,16,19,6,6.39,0.2215,0.0696,0.5728,-0.7861
-0.118,1.004,-0.376,103.7,45.2,202.8,0,2018,5,16,19,6,6.405,0.2031,0.0405,0.5601,-0.8021
-0.122,0.139,-0.48,138.6,38.5,213.7,0,2018,5,16,19,6,6.443,0.185,0.004,0.5521,-0.8129
0.004,-0.105,-0.443,185.8,111.1,219.7,0,2018,5,16,19,6,6.463,0.1694,-0.0375,0.5361,-0.826
-0.236,0.367,-0.09,212.9,106.4,211,0,2018,5,16,19,6,6.467,0.1582,-0.0836,0.5106,-0.8409
-0.388,0.095,0.221,204.8,75.2,198.7,0,2018,5,16,19,6,6.505,0.1477,-0.1302,0.4883,-0.8501
-0.305,-0.92,0.386,188.9,142.9,180.5,0,2018,5,16,19,6,6.526,0.1384,-0.1729,0.4641,-0.8575
-0.365,-0.958,0.807,190.8,306.2,151.1,0,2018,5,16,19,6,6.53,0.1358,-0.2093,0.4187,-0.8731
-0.575,-0.158,1.567,111.7,186,105.7,0,2018,5,16,19,6,6.567,0.1374,-0.2367,0.3683,-0.8884
-0.373,-0.018,1.083,37.5,92.8,85.1,1023,2018,5,16,19,6,6.586,0.133,-0.2498,0.3421,-0.8959
-0.164,-0.276,0.615,-14.4,-1.7,75.2,1023,2018,5,16,19,6,6.59,0.1225,-0.2547,0.3331,-0.8995
-0.164,-0.412,0.254,-24.4,-1.2,67.2,1023,2018,5,16,19,6,6.614,0.1102,-0.2552,0.3311,-0.9016
0.035,-0.521,-0.076,-10,67.6,60,1023,2018,5,16,19,6,6.633,0.1003,-0.2552,0.3241,-0.9053
0.008,-0.13,-0.255,18.7,128.9,54.7,1023,2018,5,16,19,6,6.648,0.0967,-0.2575,0.3048,-0.9117
-0.059,-0.054,-0.166,29.6,122.9,48.2,1023,2018,5,16,19,6,6.668,0.0958,-0.2621,0.2815,-0.918
-0.073,0.053,-0.124,34.3,82.2,33.2,1023,2018,5,16,19,6,6.708,0.0955,-0.2675,0.2623,-0.9222
-0.067,0.036,-0.041,31.1,20.4,16.9,1023,2018,5,16,19,6,6.728,0.0949,-0.2735,0.2522,-0.9233
-0.009,-0.086,0.138,20.3,-21.8,0.2,1023,2018,5,16,19,6,6.732,0.0944,-0.2781,0.2514,-0.9221
0.031,-0.207,0.239,5.8,-41.6,-4.9,0,2018,5,16,19,6,6.75,0.094,-0.28,0.2569,-0.9201
0.066,-0.183,0.207,-3,-40.8,-4.6,0,2018,5,16,19,6,6.79,0.0926,-0.2806,0.2639,-0.9181
0.06,-0.095,0.066,-5.7,-23.1,-3,0,2018,5,16,19,6,6.811,0.0912,-0.2797,0.2694,-0.9169
0.079,-0.014,-0.019,-5.9,-9.8,-2,0,2018,5,16,19,6,6.815,0.0908,-0.2783,0.2721,-0.9166
0.084,-0.026,-0.039,-6.6,-5.6,-1.3,0,2018,5,16,19,6,6.832,0.0904,-0.2769,0.2736,-0.9166
0.048,-0.106,0,-8.1,5,-1.7,0,2018,5,16,19,6,6.852,0.0904,-0.2752,0.2743,-0.9169
0.053,-0.009,0.013,-9.9,12.1,-3.5,0,2018,5,16,19,6,6.873,0.0911,-0.273,0.2733,-0.9178
0.045,0.069,0.002,-11.8,4.1,-3.6,0,2018,5,16,19,6,6.889,0.0914,-0.2706,0.2715,-0.919
0.056,0.043,-0.008,-12.4,-3.7,-3.5,0,2018,5,16,19,6,6.926,0.0912,-0.268,0.2713,-0.9198
0.024,-0.009,0.031,-12.3,-4.8,-4.1,0,2018,5,16,19,6,6.947,0.0909,-0.2656,0.2719,-0.9204
0.011,0.022,0.073,-15.9,-14.1,-5.9,0,2018,5,16,19,6,6.949,0.0904,-0.2629,0.2732,-0.9208
-0.005,0.054,0.061,-20.7,-21.7,-6.7,0,2018,5,16,19,6,6.989,0.0895,-0.2596,0.2759,-0.921
0.022,0.078,0,-23.2,-27.3,-6.4,0,2018,5,16,19,6,7.008,0.088,-0.2559,0.2793,-0.9212
0.05,0.049,-0.055,-22.9,-42.5,-7.3,0,2018,5,16,19,6,7.013,0.0861,-0.2523,0.285,-0.9206
0.058,-0.042,-0.056,-20.1,-52.5,-8.9,0,2018,5,16,19,6,7.032,0.0841,-0.2488,0.2936,-0.919
0.074,-0.069,-0.07,-14.6,-41.6,-9.2,0,2018,5,16,19,6,7.056,0.0828,-0.246,0.3028,-0.9169
0.088,0.036,0.005,-10.3,-29.5,-6.6,0,2018,5,16,19,6,7.076,0.0822,-0.2436,0.309,-0.9156
0.076,0.08,0.044,-8.4,-33.1,-8.3,0,2018,5,16,19,6,7.096,0.0819,-0.2414,0.3139,-0.9145
0.081,0.096,0.008,-7,-37,-7.7,0,2018,5,16,19,6,7.112,0.0815,-0.2395,0.3192,-0.9132
0.063,0.073,-0.013,-5.4,-39.8,-6.9,0,2018,5,16,19,6,7.133,0.0809,-0.2381,0.3251,-0.9115
0.058,0.089,-0.045,-3.7,-47.1,-5.7,0,2018,5,16,19,6,7.17,0.08,-0.2373,0.3319,-0.9094
0.055,0.085,-0.039,-1.7,-53.2,-3.5,0,2018,5,16,19,6,7.189,0.0785,-0.2371,0.3398,-0.9066
0.03,0.085,0.001,-1.4,-58.8,-2,0,2018,5,16,19,6,7.192,0.0767,-0.2373,0.3483,-0.9035
0.018,0.015,0.012,-3.6,-58.4,-0.2,0,2018,5,16,19,6,7.227,0.0745,-0.2376,0.3574,-0.9001
0.006,-0.014,0.025,-4.9,-50.1,0.5,0,2018,5,16,19,6,7.246,0.0721,-0.2375,0.3658,-0.8969
-0.014,0.006,0.015,-7.8,-50.8,-0.2,0,2018,5,16,19,6,7.252,0.0698,-0.2371,0.3735,-0.894
0.005,0.009,-0.017,-8.2,-55.6,-1.6,0,2018,5,16,19,6,7.287,0.0673,-0.2365,0.3819,-0.8908
0.025,0.001,-0.027,-7.4,-58.1,-2.8,0,2018,5,16,19,6,7.307,0.0649,-0.2358,0.3911,-0.8872
0.008,-0.021,0.012,-6.3,-56.8,-1.4,0,2018,5,16,19,6,7.309,0.0627,-0.2352,0.4002,-0.8834
-0.021,-0.112,0.039,-5.2,-45.9,-1.2,0,2018,5,16,19,6,7.341,0.0607,-0.2347,0.4086,-0.8798
-0.024,-0.065,0.019,-3.8,-31,-0.2,1023,2018,5,16,19,6,7.363,0.0589,-0.2344,0.4146,-0.8772
-0.004,-0.029,-0.002,-0.9,-17,1.4,1023,2018,5,16,19,6,7.37,0.0578,-0.2343,0.4184,-0.8755
-0.022,0.049,-0.021,1.1,-14.3,4.8,1023,2018,5,16,19,6,7.405,0.0568,-0.235,0.4203,-0.8745
-0.02,-0.05,-0.029,3.9,-9.3,6.6,1023,2018,5,16,19,6,7.424,0.0554,-0.2363,0.4219,-0.8735
-0.033,-0.061,-0.053,12.3,27.9,15.9,1023,2018,5,16,19,6,7.433,0.0552,-0.2381,0.4211,-0.8734
-0.075,0.117,0.017,6.7,11.4,11.7,1023,2018,5,16,19,6,7.467,0.0549,-0.241,0.4161,-0.875
0.035,-0.251,0.011,3.9,0,2.5,1023,2018,5,16,19,6,7.486,0.0544,-0.2423,0.4159,-0.8748
0.049,-0.314,0.002,12,40.3,-2.2,1023,2018,5,16,19,6,7.493,0.0557,-0.2434,0.4129,-0.8758
0.03,-0.264,0.004,14.8,71.7,-6.9,1023,2018,5,16,19,6,7.526,0.06,-0.2446,0.4043,-0.8792
0.067,-0.18,0.016,21,115.4,-10.2,0,2018,5,16,19,6,7.547,0.0667,-0.2457,0.3898,-0.8849
0.026,-0.112,0.112,19.4,130.7,-24.7,0,2018,5,16,19,6,7.554,0.0766,-0.2458,0.3709,-0.8922
0.088,-0.114,0.089,12,123,-33.1,0,2018,5,16,19,6,7.588,0.0882,-0.2437,0.3523,-0.8992
0.104,-0.089,0.046,8.8,141.1,-34.8,0,2018,5,16,19,6,7.61,0.1,-0.2411,0.3329,-0.906
0.083,-0.038,0.006,8.6,161.5,-31.3,0,2018,5,16,19,6,7.611,0.1125,-0.2369,0.3108,-0.9135
0.072,0.102,-0.103,13.8,188.3,-24.2,0,2018,5,16,19,6,7.647,0.1248,-0.2333,0.2834,-0.9217
0.024,0.109,-0.056,16.2,207.9,-17.7,0,2018,5,16,19,6,7.668,0.1369,-0.2303,0.2508,-0.9301
0,0.039,-0.028,14.8,210.8,-19.1,0,2018,5,16,19,6,7.676,0.1486,-0.227,0.2163,-0.9378
0.028,0.058,-0.026,12.3,203.9,-21.3,0,2018,5,16,19,6,7.698,0.1604,-0.223,0.1819,-0.9441
0.005,0.09,0.07,6.9,182.7,-23.2,0,2018,5,16,19,6,7.716,0.1714,-0.2181,0.1493,-0.949
-0.039,0.21,0.177,-4.1,127.4,-29,0,2018,5,16,19,6,7.756,0.1813,-0.2127,0.1231,-0.9522
-0.121,0.335,0.376,-27.1,17.5,-37.3,0,2018,5,16,19,6,7.776,0.1889,-0.2072,0.1126,-0.9532
-0.207,0.399,0.515,-65.2,-94.9,-45.6,0,2018,5,16,19,6,7.78,0.1934,-0.2002,0.1229,-0.9525
-0.193,-0.005,0.545,-104.9,-178.4,-59.9,0,2018,5,16,19,6,7.796,0.195,-0.1895,0.1514,-0.9503
-0.109,-0.236,0.465,-140.3,-252,-91,0,2018,5,16,19,6,7.836,0.197,-0.174,0.1931,-0.9453
-0.049,-0.089,0.287,-179.5,-371.3,-122.5,0,2018,5,16,19,6,7.855,0.1993,-0.1541,0.2517,-0.9344
0.24,-0.865,0.068,-165.6,-297.6,-134.6,0,2018,5,16,19,6,7.859,0.2022,-0.1307,0.3203,-0.9161
-0.124,0.001,0.255,-141.6,-176.2,-136.5,0,2018,5,16,19,6,7.878,0.2099,-0.107,0.3629,-0.9015
-0.223,0.429,0.208,-145.6,-164.1,-137.5,0,2018,5,16,19,6,7.898,0.2193,-0.0816,0.3958,-0.8879
-0.318,0.535,0.213,-171.2,-262.7,-144.5,0,2018,5,16,19,6,7.935,0.2266,-0.0554,0.4362,-0.869
0.017,-0.486,0.021,-155.7,-199.9,-151.7,0,2018,5,16,19,6,7.956,0.2337,-0.0285,0.4824,-0.8436
-0.164,-0.172,-0.217,-99,46.6,-119.6,0,2018,5,16,19,6,7.96,0.2428,-0.0011,0.4978,-0.8325
-0.43,0.951,-0.245,-88.1,63.5,-98.9,0,2018,5,16,19,6,7.98,0.2508,0.0244,0.4895,-0.8347
-0.131,0.624,-0.294,-102,-89.8,-102.3,0,2018,5,16,19,6,8,0.257,0.046,0.4967,-0.8276
-0.129,0.542,-0.424,-97.4,-151,-107.5,0,2018,5,16,19,6,8.016,0.2648,0.0642,0.517,-0.8113
0.139,-0.255,-0.338,-74.9,-138.6,-112.3,0,2018,5,16,19,6,8.054,0.2749,0.0794,0.5418,-0.7902
0.102,0.214,-0.293,-62.3,-156.4,-121.3,0,2018,5,16,19,6,8.076,0.2862,0.0927,0.5626,-0.7699
0.291,-0.54,-0.36,-40.7,-113,-126.9,0,2018,5,16,19,6,8.08,0.3002,0.1052,0.584,-0.7467
0.034,0.121,-0.465,17.5,71.8,-88.2,0,2018,5,16,19,6,8.097,0.3135,0.1168,0.584,-0.7395
-0.261,1.098,0.044,32.4,133.9,-48,1023,2018,5,16,19,6,8.119,0.3225,0.1262,0.5654,-0.7485
-0.322,1.114,0.172,12.8,72.4,-17.5,1023,2018,5,16,19,6,8.138,0.3267,0.1323,0.549,-0.7577
-0.181,0.613,-0.038,-9.3,-17.8,10.2,1023,2018,5,16,19,6,8.179,0.3266,0.1337,0.5466,-0.7593
-0.026,0.053,-0.238,-9.5,-36.3,20,1023,2018,5,16,19,6,8.183,0.3242,0.1317,0.5523,-0.7565
0.066,-0.15,-0.188,2.6,-18.1,17.5,1023,2018,5,16,19,6,8.2,0.3222,0.1287,0.5569,-0.7546
0.09,-0.108,-0.047,7.7,-12.2,10.3,1023,2018,5,16,19,6,8.237,0.3213,0.1257,0.5593,-0.7537
0.079,-0.002,0.041,2.2,-26.9,1.6,1023,2018,5,16,19,6,8.258,0.3217,0.1236,0.5616,-0.7521
0.065,-0.055,0.068,-2.5,-35.4,-4.4,1023,2018,5,16,19,6,8.262,0.3232,0.1222,0.5659,-0.7484
0.055,-0.148,0.063,-1.4,-16.6,-7.7,1023,2018,5,16,19,6,8.278,0.3243,0.1214,0.5692,-0.7456
0.048,-0.037,0.073,-0.6,4,-9.6,0,2018,5,16,19,6,8.317,0.3257,0.1218,0.5698,-0.7445
0.05,0.11,0.073,-4.6,0.3,-9.7,0,2018,5,16,19,6,8.337,0.3272,0.1234,0.5691,-0.7441
0.057,0.151,0.028,-9.2,-14.6,-8.5,0,2018,5,16,19,6,8.341,0.3279,0.1248,0.5702,-0.7427
0.074,0.125,-0.053,-12,-34.4,-8.5,0,2018,5,16,19,6,8.361,0.3288,0.1257,0.5744,-0.7389
0.089,0.066,-0.085,-11.4,-47.3,-9.4,0,2018,5,16,19,6,8.382,0.3298,0.1258,0.5804,-0.7337
0.106,0.047,-0.073,-5.8,-45.4,-10.3,0,2018,5,16,19,6,8.418,0.3314,0.1252,0.5869,-0.7279
0.08,0.035,-0.046,1.4,-36.2,-10.6,0,2018,5,16,19,6,8.438,0.3337,0.1246,0.5922,-0.7227
-0.009,0.018,0.035,8.9,-8,-7.2,0,2018,5,16,19,6,8.44,0.3363,0.1237,0.5943,-0.7199
-0.016,-0.073,0.051,14,19,-4.3,0,2018,5,16,19,6,8.48,0.3381,0.1228,0.5926,-0.7206
-0.002,-0.073,0.049,17.1,43.2,-3.2,0,2018,5,16,19,6,8.5,0.3393,0.1225,0.5871,-0.7246
-0.022,0,0.052,18.4,57.6,1.1,0,2018,5,16,19,6,8.503,0.3401,0.1229,0.5789,-0.7307
-0.029,0.036,0.017,14.7,47.8,3.9,0,2018,5,16,19,6,8.519,0.3404,0.1235,0.5708,-0.7368
-0.032,0.087,0.008,10.3,31.2,4.7,0,2018,5,16,19,6,8.559,0.3406,0.1237,0.5648,-0.7413
-0.023,0.072,-0.013,4,10.6,6.1,0,2018,5,16,19,6,8.581,0.3404,0.1236,0.5614,-0.744
0.021,0,-0.054,2.2,3.7,7.2,0,2018,5,16,19,6,8.585,0.3399,0.1229,0.5612,-0.7445
0.016,0.013,-0.041,3.6,7.2,9.2,0,2018,5,16,19,6,8.603,0.3391,0.1222,0.5609,-0.7452
0.025,0.002,-0.011,6,15.5,10.2,0,2018,5,16,19,6,8.64,0.3382,0.1214,0.5595,-0.7468
-0.01,0.035,0.029,4.7,19.2,11.3,0,2018,5,16,19,6,8.661,0.3371,0.1207,0.5566,-0.7495
0,0.055,0.012,-0.2,11.7,11.9,0,2018,5,16,19,6,8.665,0.3358,0.1202,0.5544,-0.7518
0.011,0.027,-0.018,-3.2,4.7,12.8,0,2018,5,16,19,6,8.685,0.3341,0.1198,0.5535,-0.7533
0.043,-0.017,-0.013,-1.4,8.1,12.1,0,2018,5,16,19,6,8.702,0.3322,0.1195,0.5532,-0.7544
0.055,-0.046,0.014,0.6,19.7,10.7,0,2018,5,16,19,6,8.72,0.3305,0.1193,0.5517,-0.7563
0.049,-0.008,0.034,1.5,32.9,8.6,0,2018,5,16,19,6,8.757,0.3293,0.1199,0.5485,-0.7591
0.04,0.034,0.018,0.4,40.4,7.5,0,2018,5,16,19,6,8.778,0.3279,0.1213,0.5433,-0.7631
0.026,0.082,0.014,-1.6,33.4,6.9,0,2018,5,16,19,6,8.782,0.3268,0.1233,0.5383,-0.7669
0.037,0.123,-0.006,-2.9,27.8,6.7,0,2018,5,16,19,6,8.803,0.3257,0.1252,0.5342,-0.7699
0.071,0.091,-0.058,-3.5,18.2,3.7,0,2018,5,16,19,6,8.822,0.3249,0.1273,0.5313,-0.7719
0.145,0.019,-0.066,-4,9.2,-0.6,0,2018,5,16,19,6,8.86,0.3244,0.1287,0.5298,-0.7729
-0.047,-0.171,-0.063,-0.3,-1.6,-10.3,0,2018,5,16,19,6,8.88,0.3253,0.1294,0.53,-0.7723
0.308,-0.053,-0.125,-7.4,-59.3,-28.2,1023,2018,5,16,19,6,8.885,0.3277,0.13,0.5338,-0.7685
0.073,-0.242,0.004,-7.1,-72.1,-46.6,1023,2018,5,16,19,6,8.924,0.3345,0.1307,0.5431,-0.7588
0.084,-0.021,0.096,1.7,-16.8,-32.8,1023,2018,5,16,19,6,8.944,0.3405,0.1321,0.5482,-0.7523
-0.021,0.064,0.083,7.9,30.4,-28.6,1023,2018,5,16,19,6,8.948,0.3455,0.1348,0.5456,-0.7514
-0.106,0.266,0.06,9,59.2,-20,1023,2018,5,16,19,6,8.963,0.3488,0.1389,0.5381,-0.7545
-0.139,0.516,0.054,0.1,19.2,-1.7,1023,2018,5,16,19,6,8.984,0.3497,0.1419,0.5318,-0.758
-0.026,0.068,-0.083,-8.2,-38.1,-3.1,1023,2018,5,16,19,6,9.004,0.3501,0.142,0.534,-0.7563
0.008,-0.112,-0.109,-7.7,-35.2,1.1,1023,2018,5,16,19,6,9.043,0.3506,0.1407,0.5404,-0.7517
-0.014,-0.085,-0.062,-0.1,-5.8,4.1,1023,2018,5,16,19,6,9.062,0.3504,0.1396,0.5437,-0.7497
-0.062,0.073,-0.009,1.5,3.3,7.2,0,2018,5,16,19,6,9.066,0.3498,0.1386,0.544,-0.7499
-0.068,0.211,0.032,-4.6,-14.2,13,0,2018,5,16,19,6,9.106,0.3487,0.1375,0.5445,-0.7502
-0.1,0.176,0.022,-10.5,-34.4,20.9,0,2018,5,16,19,6,9.11,0.3466,0.1353,0.5491,-0.7482
-0.153,0.09,0.01,-13.1,-29.1,31.6,0,2018,5,16,19,6,9.126,0.3431,0.1319,0.5542,-0.7466
-0.221,0.055,0.053,-12.4,-6,44.8,0,2018,5,16,19,6,9.165,0.3374,0.1288,0.5584,-0.7467
-0.249,0.011,0.048,-8.8,43.7,67.7,0,2018,5,16,19,6,9.185,0.3288,0.1257,0.5585,-0.751
-0.253,0.655,-0.094,-3.4,77.7,94.1,0,2018,5,16,19,6,9.189,0.3161,0.1222,0.551,-0.7625
-0.114,0.201,-0.057,-23.3,-9,85.5,0,2018,5,16,19,6,9.203,0.3025,0.1171,0.55,-0.7695
-0.094,0.257,-0.149,-16.2,8.7,116.5,0,2018,5,16,19,6,9.243,0.2877,0.1106,0.5532,-0.7738
-0.052,0.739,-0.298,12.9,53.1,161,0,2018,5,16,19,6,9.263,0.2677,0.099,0.5512,-0.7839
-0.005,0.63,-0.374,43.1,79.4,183.6,0,2018,5,16,19,6,9.267,0.2455,0.0814,0.5435,-0.7985
-0.059,0.473,-0.446,72.8,103.6,203.2,0,2018,5,16,19,6,9.288,0.2225,0.0587,0.5303,-0.8159
0.073,0.16,-0.422,101.1,121.7,211.3,0,2018,5,16,19,6,9.308,0.1994,0.0313,0.5126,-0.8345
0.303,-0.101,-0.269,142.7,189.2,208.9,0,2018,5,16,19,6,9.348,0.1786,-0.0001,0.4861,-0.8554
0.362,-0.101,-0.334,181.5,257.6,185.7,0,2018,5,16,19,6,9.352,0.1626,-0.0342,0.4465,-0.8791
0.219,0.216,-0.381,215.7,269.7,162.6,0,2018,5,16,19,6,9.366,0.153,-0.0708,0.3972,-0.902
-0.054,0.343,-0.177,230,216.4,140.3,0,2018,5,16,19,6,9.405,0.1476,-0.1098,0.3501,-0.9184
-0.229,0.164,0.193,220.6,196,122.4,0,2018,5,16,19,6,9.409,0.1443,-0.1488,0.3095,-0.928
-0.233,0.13,0.387,198.8,214,110.2,0,2018,5,16,19,6,9.425,0.1421,-0.1835,0.2673,-0.9352
-0.658,1.17,0.936,154.5,138.2,108.9,0,2018,5,16,19,6,9.463,0.1386,-0.2128,0.228,-0.9399
-0.199,-0.522,0.817,82,-32.4,108,0,2018,5,16,19,6,9.483,0.1258,-0.2348,0.2161,-0.9393
-0.1,-1.313,0.717,80,98.5,78.9,0,2018,5,16,19,6,9.487,0.1137,-0.2504,0.2067,-0.9389
-0.258,-0.547,0.741,64.8,165.1,54.5,0,2018,5,16,19,6,9.525,0.1116,-0.2622,0.1773,-0.9419
-0.192,0.242,0.432,23.7,47,33.1,0,2018,5,16,19,6,9.545,0.1109,-0.2683,0.1545,-0.9443
-0.153,-0.131,0.309,-7.1,-72.6,0.3,0,2018,5,16,19,6,9.549,0.107,-0.27,0.1574,-0.9438
-0.11,-0.234,0.115,-12.8,-75.1,-9.9,0,2018,5,16,19,6,9.57,0.1036,-0.2694,0.1715,-0.9419
-0.042,-0.146,0.049,-7.7,-37.6,-7.1,0,2018,5,16,19,6,9.589,0.102,-0.2685,0.1814,-0.9404
0,-0.055,-0.021,-2,-11,-5,0,2018,5,16,19,6,9.607,0.1017,-0.268,0.1862,-0.9397
-0.026,-0.007,-0.019,4.2,-0.2,-1.6,0,2018,5,16,19,6,9.628,0.1017,-0.2686,0.1868,-0.9394
-0.056,-0.036,0.044,6,3.1,-2.4,0,2018,5,16,19,6,9.649,0.1019,-0.2698,0.186,-0.9392
-0.059,0.035,0.078,2.5,2.2,-3.5,1023,2018,5,16,19,6,9.668,0.1025,-0.2706,0.185,-0.9391
-0.006,0.069,0.009,-0.1,-6,-2.1,1023,2018,5,16,19,6,9.688,0.1024,-0.2707,0.1844,-0.9392
-0.003,0.058,-0.018,-0.9,-8.1,0.2,1023,2018,5,16,19,6,9.727,0.1017,-0.2707,0.1847,-0.9392
0.009,0.023,-0.022,-1.5,-11,2.7,1023,2018,5,16,19,6,9.747,0.1005,-0.2709,0.1856,-0.9391
0.005,-0.03,0.013,-2.6,-12,3.2,1023,2018,5,16,19,6,9.751,0.0991,-0.2708,0.1871,-0.939
0.021,-0.1,0.06,-4.5,-6.6,1.7,1023,2018,5,16,19,6,9.768,0.0979,-0.2702,0.1887,-0.939
0.015,-0.167,0.117,-7.7,6.8,-0.8,1023,2018,5,16,19,6,9.809,0.0978,-0.2688,0.1892,-0.9393
-0.026,-0.155,0.165,-12.7,24.2,-5,1023,2018,5,16,19,6,9.828,0.0985,-0.2663,0.1871,-0.9403
-0.004,-0.049,0.134,-18.5,33.4,-5.9,0,2018,5,16,19,6,9.832,0.1002,-0.2624,0.1827,-0.9421
-0.058,-0.007,0.158,-28.7,17.1,-7.1,0,2018,5,16,19,6,9.852,0.1014,-0.2577,0.1784,-0.9441
-0.004,0.025,0.09,-37,0.4,-8.8,0,2018,5,16,19,6,9.87,0.1018,-0.2514,0.1773,-0.946
0.01,-0.035,0.065,-40.6,-5.8,-11.3,0,2018,5,16,19,6,9.89,0.1019,-0.2443,0.1786,-0.9476
0.024,-0.045,0.054,-42.6,-3.7,-14.9,0,2018,5,16,19,6,9.909,0.1026,-0.2366,0.1807,-0.9491
0.058,-0.001,-0.017,-42.7,6.5,-15.8,0,2018,5,16,19,6,9.93,0.1037,-0.2285,0.1818,-0.9507
0.085,0.062,-0.083,-37.1,16,-14.1,0,2018,5,16,19,6,9.95,0.1053,-0.2206,0.1808,-0.9526
0.094,0.165,-0.13,-31.6,7.6,-10.7,0,2018,5,16,19,6,9.97,0.1067,-0.2138,0.1788,-0.9543
0.087,0.17,-0.107,-27.8,-5.2,-6.9,0,2018,5,16,19,6,10.009,0.1071,-0.2084,0.1789,-0.9555
0.085,0.142,-0.057,-25.5,-13.6,-4.4,0,2018,5,16,19,6,10.028,0.1069,-0.2039,0.1811,-0.9561
0.1,0.143,-0.069,-23.3,-24.6,-1.7,0,2018,5,16,19,6,10.032,0.1056,-0.1993,0.1835,-0.9567
0.111,0.173,-0.097,-20.7,-43.9,1.1,0,2018,5,16,19,6,10.053,0.1038,-0.1962,0.1897,-0.9563
0.102,0.111,-0.116,-15.7,-50.8,3.7,0,2018,5,16,19,6,10.072,0.1009,-0.1937,0.1974,-0.9556
0.084,0.064,-0.075,-8.8,-43.5,5.8,0,2018,5,16,19,6,10.09,0.0981,-0.1921,0.205,-0.9546
0.067,-0.024,-0.035,-3.7,-28.5,7.4,0,2018,5,16,19,6,10.111,0.0958,-0.1915,0.2111,-0.9537
0.055,0.006,-0.02,0,-17.2,7.3,0,2018,5,16,19,6,10.131,0.0941,-0.1914,0.2148,-0.953
0.022,-0.001,-0.002,1.5,-14.4,7.2,0,2018,5,16,19,6,10.165,0.0926,-0.1919,0.2172,-0.9525
0.014,-0.051,0.018,0.9,-12.3,5.1,0,2018,5,16,19,6,10.188,0.0912,-0.1924,0.2194,-0.952
0.014,-0.052,0.023,-0.4,-8.4,3.7,0,2018,5,16,19,6,10.192,0.0903,-0.1926,0.2213,-0.9516
0.027,-0.064,0.03,-1.5,-2.6,2.6,0,2018,5,16,19,6,10.213,0.0897,-0.1924,0.2224,-0.9515
0.011,-0.096,0.057,-2.1,8.4,1.5,0,2018,5,16,19,6,10.232,0.0896,-0.1918,0.2225,-0.9516
0.012,-0.028,0.079,-4.8,16.2,1.4,0,2018,5,16,19,6,10.253,0.0899,-0.1908,0.2206,-0.9522
0.022,0.037,0.038,-7.6,13.6,2.1,0,2018,5,16,19,6,10.271,0.0901,-0.1892,0.2178,-0.9532
0.04,0.08,-0.008,-8.8,3.3,3.5,0,2018,5,16,19,6,10.312,0.0896,-0.1875,0.2157,-0.954
0.035,0.084,-0.029,-8.7,-9.3,4.6,0,2018,5,16,19,6,10.316,0.0884,-0.1859,0.2156,-0.9545
0.015,0.042,-0.032,-8.2,-15.5,6.1,0,2018,5,16,19,6,10.332,0.0868,-0.1848,0.2173,-0.9544
0,0.038,-0.046,-7.7,-19.3,6.4,0,2018,5,16,19,6,10.35,0.0849,-0.1841,0.2199,-0.9542
-0.014,0.061,-0.051,-8.1,-29.6,5.7,0,2018,5,16,19,6,10.371,0.0826,-0.1837,0.2234,-0.9536
0.038,0.1,-0.05,-7.8,-45.1,6.9,0,2018,5,16,19,6,10.392,0.0801,-0.1832,0.2291,-0.9526
0.025,0.074,-0.042,-8.9,-66,8.6,0,2018,5,16,19,6,10.412,0.0765,-0.1828,0.2375,-0.9509
0.038,-0.021,-0.02,-8.8,-79,8.5,0,2018,5,16,19,6,10.452,0.0724,-0.1824,0.2495,-0.9482
0.041,-0.104,0.021,-5.9,-73.8,6,1023,2018,5,16,19,6,10.471,0.0688,-0.1822,0.2631,-0.9448
0.018,-0.16,0.005,0.1,-56.2,1.9,1023,2018,5,16,19,6,10.475,0.0664,-0.1823,0.2747,-0.9417
0.078,-0.093,-0.094,10.5,-26.9,-0.9,1023,2018,5,16,19,6,10.494,0.0657,-0.1837,0.2818,-0.9393
0.054,-0.057,-0.056,14.7,-21.2,-4.5,1023,2018,5,16,19,6,10.514,0.0664,-0.1858,0.2864,-0.9375
0.04,-0.149,0.031,15.7,-8.8,-4.6,1023,2018,5,16,19,6,10.551,0.0681,-0.1881,0.2902,-0.9357
0.006,-0.104,0.095,16.6,21.5,0.3,1023,2018,5,16,19,6,10.555,0.0699,-0.1903,0.2895,-0.9354
0.034,-0.035,0.098,14.9,47.9,-0.3,1023,2018,5,16,19,6,10.573,0.0725,-0.192,0.2838,-0.9366
0.021,0.119,0.094,9.1,43.3,0.8,1023,2018,5,16,19,6,10.593,0.0747,-0.193,0.2749,-0.9389
0.029,0.187,0.095,-2.9,-1.1,0.1,1023,2018,5,16,19,6,10.612,0.0756,-0.1932,0.2715,-0.9397
0.058,0.164,0.051,-12.3,-43.4,-2,1023,2018,5,16,19,6,10.647,0.0747,-0.1922,0.2757,-0.9388
0.097,0.166,-0.028,-16.8,-77.1,-3,0,2018,5,16,19,6,10.667,0.0726,-0.1905,0.2863,-0.9361
0.098,0.189,-0.069,-17.5,-101.8,0.7,0,2018,5,16,19,6,10.675,0.0692,-0.1884,0.3009,-0.9322
0.107,0.193,-0.117,-13.6,-106.2,6.6,0,2018,5,16,19,6,10.694,0.0646,-0.1867,0.3174,-0.9274
0.081,0.042,-0.108,-5.1,-89.1,11.9,0,2018,5,16,19,6,10.714,0.0595,-0.1863,0.333,-0.9223
0.032,-0.392,-0.105,9,-12.7,14.2,0,2018,5,16,19,6,10.75,0.0558,-0.1879,0.3417,-0.9191
0.053,-0.537,-0.092,29.8,109.7,7.7,0,2018,5,16,19,6,10.77,0.0569,-0.1913,0.333,-0.9215
0.034,-0.279,-0.004,39.2,172.3,0.6,0,2018,5,16,19,6,10.777,0.0633,-0.1958,0.3086,-0.9286
0.008,-0.142,0.019,40.9,192.8,-4.8,0,2018,5,16,19,6,10.793,0.0726,-0.2001,0.2784,-0.9365
-0.074,-0.024,0.113,35.5,180.1,-16.8,0,2018,5,16,19,6,10.831,0.0831,-0.2036,0.2474,-0.9436
-0.107,0.013,0.237,18,123.9,-31.6,0,2018,5,16,19,6,10.851,0.0936,-0.2049,0.2219,-0.9486
-0.088,0.1,0.312,-3.5,48.2,-45.5,0,2018,5,16,19,6,10.856,0.1033,-0.2031,0.2082,-0.9511
-0.074,0.243,0.311,-25.7,-51.6,-54.2,0,2018,5,16,19,6,10.876,0.111,-0.1988,0.2104,-0.9507
-0.021,-0.206,0.342,-47.7,-132.1,-63.4,0,2018,5,16,19,6,10.896,0.1157,-0.1921,0.2307,-0.9468
-0.26,0.171,0.447,-64.1,-174.3,-70.7,0,2018,5,16,19,6,10.935,0.1194,-0.1833,0.2585,-0.9408
-0.048,-0.324,0.452,-92.4,-238.2,-109.4,0,2018,5,16,19,6,10.954,0.1241,-0.1701,0.2967,-0.9314
-0.071,-0.167,0.238,-118.5,-327.6,-132.9,0,2018,5,16,19,6,10.958,0.1294,-0.1519,0.3476,-0.9161
0.134,-0.762,0.262,-127.1,-358,-173.7,0,2018,5,16,19,6,10.977,0.137,-0.1299,0.4097,-0.8924
0.134,-1.303,0.344,-124.5,-322.3,-212.5,0,2018,5,16,19,6,10.997,0.1497,-0.1042,0.4701,-0.8635
-0.024,-0.716,0.335,-115.2,-262.6,-250,0,2018,5,16,19,6,11.014,0.1694,-0.0744,0.5201,-0.8337
-0.024,-0.444,0.226,-101.6,-234,-280.1,0,2018,5,16,19,6,11.054,0.1944,-0.0419,0.5615,-0.8031
0.057,-0.951,0.205,-54.7,-29.5,-261.3,0,2018,5,16,19,6,11.073,0.2238,-0.009,0.5872,-0.7777
-1.27,2.07,0.298,-37.8,220.9,-185.8,0,2018,5,16,19,6,11.077,0.249,0.0236,0.5705,-0.7822
-0.344,1.36,0.148,-79.2,11.1,-189.7,0,2018,5,16,19,6,11.115,0.2674,0.0556,0.5555,-0.7853
-0.128,1.193,-0.372,-90.4,-134.5,-168.4,0,2018,5,16,19,6,11.136,0.2845,0.0815,0.5678,-0.768
-0.048,0.243,-0.588,-66.3,-178.2,-134.6,0,2018,5,16,19,6,11.14,0.2989,0.0987,0.5918,-0.742
0.148,0.013,-0.774,-11.1,-73.7,-119.4,0,2018,5,16,19,6,11.159,0.3135,0.1096,0.609,-0.7202
-0.119,0.231,-0.449,34.8,72.2,-99.1,0,2018,5,16,19,6,11.198,0.3287,0.1198,0.605,-0.7152
-0.257,0.828,-0.18,49.3,106.1,-69.5,0,2018,5,16,19,6,11.217,0.342,0.1289,0.588,-0.7215
-0.54,1.277,0.143,29.2,37.8,-3.8,0,2018,5,16,19,6,11.222,0.349,0.132,0.5747,-0.7282
-0.248,0.506,0.024,5.1,-19.7,17.3,0,2018,5,16,19,6,11.238,0.349,0.1289,0.5743,-0.7291
-0.09,0.007,-0.169,-2.7,-25.6,20.6,1023,2018,5,16,19,6,11.275,0.3471,0.1255,0.5779,-0.7278
-0.028,-0.177,-0.132,0.4,-12.3,26,1023,2018,5,16,19,6,11.295,0.3445,0.1221,0.5809,-0.7272
0.021,-0.207,-0.091,3.9,-10.1,18.2,1023,2018,5,16,19,6,11.299,0.3422,0.1188,0.5829,-0.7272
0.049,-0.17,-0.027,4.6,-10.9,6.9,1023,2018,5,16,19,6,11.319,0.3411,0.1161,0.5846,-0.7268
0.1,-0.159,0.057,1.1,-8.9,-3,1023,2018,5,16,19,6,11.34,0.3412,0.1147,0.586,-0.7259
0.082,-0.028,0.108,-4.2,-3.3,-8.6,1023,2018,5,16,19,6,11.359,0.3423,0.1152,0.5865,-0.7249
0.033,0.023,0.11,-8.6,1.8,-8.3,1023,2018,5,16,19,6,11.38,0.3433,0.117,0.5859,-0.7246
0.007,0.041,0.094,-10.2,7.9,-8.2,1023,2018,5,16,19,6,11.418,0.3438,0.1194,0.5849,-0.7248
-0.024,0.055,0.063,-11.5,10.6,-5.1,0,2018,5,16,19,6,11.437,0.3437,0.1217,0.5836,-0.7254
0.054,0.18,0.028,-14.8,5.3,-1.1,0,2018,5,16,19,6,11.441,0.3434,0.1244,0.583,-0.7257
0.022,0.204,-0.008,-18.1,-18,3,0,2018,5,16,19,6,11.46,0.3418,0.126,0.5849,-0.7246
0.019,0.012,-0.057,-18.8,-36.5,3.3,0,2018,5,16,19,6,11.499,0.3405,0.1268,0.59,-0.7209
0.066,-0.142,-0.094,-12.5,-24.5,2.5,0,2018,5,16,19,6,11.503,0.3389,0.1266,0.5958,-0.7169
0.101,-0.111,-0.088,-3.4,4.4,1.8,0,2018,5,16,19,6,11.519,0.3376,0.1267,0.5984,-0.7154
0.048,0.02,-0.042,3.6,17.9,-0.8,0,2018,5,16,19,6,11.54,0.3373,0.1277,0.597,-0.7165
0.027,0.076,-0.007,4.4,11.8,-1.9,0,2018,5,16,19,6,11.56,0.3381,0.1288,0.5947,-0.7178
-0.002,0.081,0.014,5.4,8.8,-0.6,0,2018,5,16,19,6,11.599,0.339,0.1292,0.5928,-0.7189
-0.024,0.109,0.07,2.4,-2.4,2.6,0,2018,5,16,19,6,11.618,0.3398,0.1289,0.5916,-0.7195
-0.019,0.037,0.02,-1.9,-7.4,5.4,0,2018,5,16,19,6,11.623,0.3398,0.1281,0.5917,-0.7196
0.016,0.005,-0.044,-1.2,11.6,7.5,0,2018,5,16,19,6,11.642,0.3389,0.1278,0.5921,-0.7198
0.004,0.048,-0.04,2.2,26.5,8.6,0,2018,5,16,19,6,11.664,0.3375,0.1282,0.5896,-0.7224
-0.013,0.161,0.01,1.2,19.2,8.9,0,2018,5,16,19,6,11.703,0.3365,0.129,0.5863,-0.7254
-0.028,0.106,0.063,-5.8,-6,9,0,2018,5,16,19,6,11.707,0.335,0.1287,0.5856,-0.7267
0.021,-0.135,0.047,-10.3,-16.8,4.9,0,2018,5,16,19,6,11.723,0.3336,0.1281,0.5876,-0.7258
0.049,-0.17,0.002,-8.3,0.3,5.8,0,2018,5,16,19,6,11.74,0.3319,0.1277,0.5898,-0.7249
0.075,-0.055,-0.046,-1.7,25.2,6,0,2018,5,16,19,6,11.759,0.3302,0.1284,0.5889,-0.7263
0.039,0.091,0.007,-2.9,24.6,4.1,0,2018,5,16,19,6,11.779,0.3292,0.1302,0.5857,-0.729
0.038,0.072,0.012,-6.6,8.9,3.5,0,2018,5,16,19,6,11.819,0.3284,0.1319,0.5836,-0.7308
0.028,-0.016,0,-6.2,3.3,5.8,0,2018,5,16,19,6,11.838,0.3273,0.1329,0.5832,-0.7314
0.026,-0.022,0,-2.7,15.9,5.8,0,2018,5,16,19,6,11.842,0.3259,0.1333,0.5824,-0.7326
0.01,0.017,0.021,-0.5,27.9,5,0,2018,5,16,19,6,11.881,0.3247,0.1342,0.5798,-0.735
0.006,0.05,0.059,-1.8,32.7,6.4,0,2018,5,16,19,6,11.903,0.3237,0.1356,0.5755,-0.7385
0.007,0.06,0.054,-5.1,29.6,6.6,0,2018,5,16,19,6,11.907,0.3221,0.1373,0.5712,-0.7423
0.01,0.012,0.023,-7.1,29.3,7.6,0,2018,5,16,19,6,11.921,0.3201,0.1391,0.5675,-0.7456
0.019,0.026,0.003,-6.8,34.5,9.2,0,2018,5,16,19,6,11.958,0.3177,0.1411,0.5636,-0.7492
0.023,0.022,-0.023,-4.8,40.6,10.5,0,2018,5,16,19,6,11.979,0.315,0.1432,0.5591,-0.7533
-0.001,0.015,0.063,-4.6,51.1,10.7,0,2018,5,16,19,6,11.983,0.3123,0.1452,0.5534,-0.7582
-0.013,0.016,0.067,-10.2,53.4,9.6,1023,2018,5,16,19,6,12.003,0.309,0.1479,0.5463,-0.7642
0.027,0.078,-0.01,-15.2,44.5,9.1,1023,2018,5,16,19,6,12.023,0.3056,0.1516,0.5401,-0.7692
0.059,0.057,-0.092,-15.9,30.4,9.7,1023,2018,5,16,19,6,12.042,0.3023,0.1555,0.5364,-0.7723
0.09,0.03,-0.154,-11.2,24.7,10.2,1023,2018,5,16,19,6,12.064,0.2989,0.1578,0.5338,-0.775
0.116,0.068,-0.202,-4.3,19.1,8.5,1023,2018,5,16,19,6,12.084,0.2965,0.1592,0.5318,-0.777
0.203,0.059,-0.244,0.3,-5.1,3.8,1023,2018,5,16,19,6,12.104,0.2954,0.1592,0.5313,-0.7777
0.283,0.074,-0.264,7.2,-29.1,0.9,1023,2018,5,16,19,6,12.124,0.2961,0.1575,0.5341,-0.7759
0.251,0.111,-0.167,15.4,-32.6,0.5,1023,2018,5,16,19,6,12.162,0.2982,0.1542,0.5381,-0.773
0.157,0.032,0.018,18.9,-35,-7,1023,2018,5,16,19,6,12.183,0.3012,0.1503,0.5419,-0.77
0.096,-0.086,0.1,20.4,-30.4,-16.5,0,2018,5,16,19,6,12.188,0.3063,0.1475,0.5447,-0.7665
0.085,-0.114,0.024,26.6,-18.5,-23.2,0,2018,5,16,19,6,12.204,0.3121,0.1448,0.5464,-0.7635
0.039,0.014,-0.043,30.9,-8.8,-26.2,0,2018,5,16,19,6,12.241,0.3185,0.1429,0.5458,-0.7616
0.03,-0.101,-0.024,26.3,-30.6,-37.1,0,2018,5,16,19,6,12.263,0.3261,0.141,0.5466,-0.7582
-0.088,-0.016,0.14,14,-51.4,-39.9,0,2018,5,16,19,6,12.267,0.3343,0.1394,0.5502,-0.7523
-0.147,-0.118,0.198,3.9,-48.9,-39.2,0,2018,5,16,19,6,12.304,0.3417,0.139,0.5559,-0.7448
-0.158,-0.041,0.123,-3.7,-37.9,-36.3,0,2018,5,16,19,6,12.322,0.3479,0.1401,0.561,-0.7379
-0.132,0.094,-0.07,-5.7,-21.4,-26.7,0,2018,5,16,19,6,12.326,0.352,0.1417,0.5642,-0.7331
-0.159,0.461,-0.23,-8.1,-58.1,-13.4,0,2018,5,16,19,6,12.347,0.3548,0.1424,0.5686,-0.7282
-0.148,0.379,-0.343,-7,-121.3,1,0,2018,5,16,19,6,12.366,0.3571,0.1383,0.581,-0.7181
-0.134,0.115,-0.272,1.1,-138.6,14.1,0,2018,5,16,19,6,12.405,0.3591,0.1293,0.5984,-0.7043
-0.103,-0.038,-0.145,7.7,-114.7,23.3,0,2018,5,16,19,6,12.409,0.3602,0.1185,0.6145,-0.6917
-0.115,0.111,0.002,6.8,-98.7,28.6,0,2018,5,16,19,6,12.425,0.3599,0.1078,0.6271,-0.6822
-0.139,0.214,0.228,-6,-122.7,37.5,0,2018,5,16,19,6,12.446,0.3583,0.0971,0.6406,-0.6721
-0.148,0.083,0.437,-19.3,-113.7,50.5,0,2018,5,16,19,6,12.465,0.3536,0.0861,0.6564,-0.6607
-0.119,0.238,0.377,-30.7,-85,65,0,2018,5,16,19,6,12.485,0.3455,0.0763,0.67,-0.6525
-0.039,0.344,0.203,-43.4,-86.8,76.7,0,2018,5,16,19,6,12.505,0.3342,0.067,0.6829,-0.646
-0.052,0.347,0.156,-40.7,-35.1,95.1,0,2018,5,16,19,6,12.524,0.3201,0.0578,0.6931,-0.6431
-0.061,0.656,0.205,-48.6,-60,116.8,0,2018,5,16,19,6,12.546,0.3031,0.0475,0.7017,-0.6429
-0.003,0.477,0.138,-34.2,-3.5,153,0,2018,5,16,19,6,12.58,0.2831,0.0336,0.7095,-0.6444
-0.064,0.802,0.214,-31.2,4.2,182.7,0,2018,5,16,19,6,12.584,0.26,0.0169,0.7112,-0.6528
-0.016,0.498,0.156,-14.1,46.7,213,0,2018,5,16,19,6,12.604,0.2342,-0.0041,0.7104,-0.6636
-0.081,0.343,-0.077,2.2,101.5,238.7,0,2018,5,16,19,6,12.624,0.2072,-0.0284,0.7004,-0.6823
0.023,-0.032,-0.385,48.4,199.3,259.2,0,2018,5,16,19,6,12.662,0.1809,-0.0566,0.6796,-0.7085
0.089,0.214,-0.336,102.1,275.9,267.7,0,2018,5,16,19,6,12.684,0.1593,-0.0897,0.6429,-0.7437
0.011,0.362,-0.164,143.9,289.3,264.4,0,2018,5,16,19,6,12.688,0.1429,-0.1278,0.5961,-0.7796
-0.122,-0.107,-0.148,163.4,266.5,251.3,0,2018,5,16,19,6,12.706,0.1291,-0.1689,0.5477,-0.8091
-0.228,-0.844,-0.15,189.8,320.7,220.7,0,2018,5,16,19,6,12.746,0.1209,-0.2096,0.4944,-0.8348
-0.302,-1.096,0.012,212.4,432.2,172.7,0,2018,5,16,19,6,12.767,0.1231,-0.2476,0.427,-0.8608
-0.989,0.447,0.665,187.7,477.3,127.1,1023,2018,5,16,19,6,12.771,0.1367,-0.2779,0.341,-0.8875
-0.253,-0.294,0.695,106.8,240.7,76.1,1023,2018,5,16,19,6,12.789,0.1479,-0.2966,0.2783,-0.9014
-0.53,-0.37,0.547,70,151.5,57.8,1023,2018,5,16,19,6,12.809,0.15,-0.3086,0.2415,-0.9076
-0.292,-0.078,0.511,14,20.5,21.7,1023,2018,5,16,19,6,12.83,0.1504,-0.3143,0.2237,-0.9101
-0.108,-0.36,0.29,-20.1,-84.5,2.6,1023,2018,5,16,19,6,12.85,0.1454,-0.3146,0.2301,-0.9093
-0.001,-0.068,0.141,-37.1,-136.5,-11.6,1023,2018,5,16,19,6,12.869,0.1391,-0.312,0.2484,-0.9063
0.032,-0.164,0.118,-44.3,-150.7,-12.5,1023,2018,5,16,19,6,12.888,0.1311,-0.3076,0.2742,-0.9016
0.044,-0.151,0.105,-41.6,-100.7,-8.8,1023,2018,5,16,19,6,12.907,0.1241,-0.3023,0.2961,-0.8974
0.066,-0.035,0.058,-35.2,-40.2,-2,1023,2018,5,16,19,6,12.928,0.1196,-0.2967,0.3079,-0.8959
0.063,0.084,-0.014,-30.4,-4,4.6,0,2018,5,16,19,6,12.947,0.1169,-0.2915,0.3111,-0.8969
0.031,0.147,-0.058,-28.8,-10.1,6.7,0,2018,5,16,19,6,12.967,0.1138,-0.2873,0.3111,-0.8986
0.04,0.085,-0.092,-29.4,-30.6,6,0,2018,5,16,19,6,12.988,0.1099,-0.2837,0.314,-0.8992
0.043,-0.05,-0.071,-27.4,-38.8,2.8,0,2018,5,16,19,6,13.009,0.1059,-0.2803,0.3205,-0.8985
0.068,-0.069,-0.079,-24.3,-29.1,0.8,0,2018,5,16,19,6,13.048,0.1029,-0.2768,0.3273,-0.8975
0.037,-0.06,-0.06,-21.6,-15.3,0.6,0,2018,5,16,19,6,13.068,0.1008,-0.2736,0.3319,-0.8971
0.035,-0.016,-0.039,-20.5,-4.1,0.8,0,2018,5,16,19,6,13.072,0.0994,-0.2704,0.3343,-0.8973
0.052,0.04,-0.012,-19.5,1.3,2,0,2018,5,16,19,6,13.091,0.098,-0.2672,0.3346,-0.8983
0.054,0.065,0,-18.8,-0.5,3,0,2018,5,16,19,6,13.112,0.0968,-0.2641,0.3344,-0.8994
0.071,0.067,-0.019,-17.1,-3.5,3.9,0,2018,5,16,19,6,13.129,0.0953,-0.261,0.3346,-0.9004
0.08,0.067,-0.044,-12.3,-4.5,2.8,0,2018,5,16,19,6,13.148,0.094,-0.2586,0.3352,-0.901
0.091,0.052,-0.016,-6.8,0.8,2.7,0,2018,5,16,19,6,13.17,0.0933,-0.2568,0.3356,-0.9014
0.045,0.174,-0.011,1.7,21.3,4.4,0,2018,5,16,19,6,13.19,0.0939,-0.2561,0.3329,-0.9025
0.086,0.074,0.03,-0.9,1.7,5.2,0,2018,5,16,19,6,13.211,0.0937,-0.2559,0.3307,-0.9034
0.079,-0.042,0.07,2.6,10,5.3,0,2018,5,16,19,6,13.247,0.0936,-0.2556,0.3297,-0.9039
0.059,-0.117,0.106,2.6,23.5,2.7,0,2018,5,16,19,6,13.268,0.0943,-0.2551,0.3268,-0.905
0.053,-0.134,0.097,1.1,33.3,0.9,0,2018,5,16,19,6,13.273,0.0959,-0.2542,0.3225,-0.9066
0.03,-0.104,0.064,-0.1,40.9,0.1,0,2018,5,16,19,6,13.292,0.098,-0.253,0.3169,-0.9087
0.005,-0.011,0.025,-2.8,34.5,-1.4,0,2018,5,16,19,6,13.309,0.0998,-0.2518,0.3108,-0.911
-0.008,0.067,-0.007,-6.3,18.1,-1.6,0,2018,5,16,19,6,13.347,0.101,-0.2505,0.3064,-0.9127
-0.017,0.08,-0.035,-8.1,4.6,-0.8,0,2018,5,16,19,6,13.368,0.1009,-0.2494,0.3042,-0.9137
0.004,0.061,-0.051,-8.4,-1.9,1.1,0,2018,5,16,19,6,13.371,0.1002,-0.2483,0.3037,-0.9143
0.039,0.06,-0.068,-5.2,-0.3,3,0,2018,5,16,19,6,13.391,0.0995,-0.2475,0.3039,-0.9145
0.066,0.051,-0.086,-0.4,5.1,5.5,0,2018,5,16,19,6,13.413,0.0989,-0.2472,0.3034,-0.9148
0.067,-0.006,-0.083,5.9,15.3,8,0,2018,5,16,19,6,13.451,0.0986,-0.2477,0.3018,-0.9152
0.051,-0.06,-0.037,12.8,30.4,8.8,0,2018,5,16,19,6,13.47,0.0989,-0.249,0.2981,-0.9161
0.032,-0.019,0.041,13.8,35.3,7.7,0,2018,5,16,19,6,13.474,0.0998,-0.2508,0.2924,-0.9173
0.016,0.03,0.078,12.5,32.9,8.5,0,2018,5,16,19,6,13.494,0.1008,-0.2523,0.2857,-0.9189
0,0.029,0.076,8.4,24.3,9.4,0,2018,5,16,19,6,13.513,0.1011,-0.2535,0.2798,-0.9203
-0.016,0.009,0.076,3.1,13.4,8.2,1023,2018,5,16,19,6,13.529,0.1008,-0.2543,0.2757,-0.9214
-0.032,0.022,0.074,-3.7,-3.4,6,1023,2018,5,16,19,6,13.569,0.0996,-0.2544,0.2739,-0.9221
-0.065,0.067,0.105,-15.7,-26.1,5,1023,2018,5,16,19,6,13.59,0.0975,-0.2534,0.2752,-0.9222
-0.058,0.067,0.093,-26.4,-58.5,3.9,1023,2018,5,16,19,6,13.594,0.0935,-0.251,0.2811,-0.9214
-0.042,0.063,0.04,-33.5,-78.8,5,1023,2018,5,16,19,6,13.612,0.0882,-0.2476,0.2919,-0.9196
-0.045,-0.066,0.009,-35.3,-76.2,8.9,1023,2018,5,16,19,6,13.647,0.0817,-0.2438,0.3048,-0.917
-0.054,-0.081,-0.007,-32.6,-55.5,9.9,1023,2018,5,16,19,6,13.668,0.0757,-0.2403,0.3159,-0.9147
-0.041,-0.068,-0.022,-30.6,-28.4,10.6,1023,2018,5,16,19,6,13.672,0.0707,-0.2368,0.3232,-0.9134
-0.002,0.009,-0.011,-30,-10.4,9.9,1023,2018,5,16,19,6,13.71,0.067,-0.2331,0.3261,-0.9136
-0.013,0.034,0.001,-34.9,-23.8,9.3,0,2018,5,16,19,6,13.729,0.0629,-0.2288,0.3284,-0.9141
-0.027,0.052,0.006,-41.5,-47.4,9.3,0,2018,5,16,19,6,13.734,0.058,-0.2239,0.3338,-0.9137
0.01,0.015,-0.006,-49.4,-75.2,9.9,0,2018,5,16,19,6,13.755,0.0514,-0.2179,0.3437,-0.9119
0.047,-0.013,-0.065,-51.2,-80.2,11.8,0,2018,5,16,19,6,13.776,0.044,-0.2111,0.3568,-0.9089
0.075,-0.017,-0.14,-46.8,-70.5,14.1,0,2018,5,16,19,6,13.795,0.0364,-0.2045,0.3695,-0.9056
0.079,-0.033,-0.151,-41.2,-57.2,13.8,0,2018,5,16,19,6,13.813,0.0291,-0.1989,0.3798,-0.9029
0.05,0.009,-0.044,-38.6,-41,12.3,0,2018,5,16,19,6,13.834,0.0232,-0.1935,0.3877,-0.9009
0.077,-0.019,-0.023,-35.7,-44.1,10,0,2018,5,16,19,6,13.853,0.0176,-0.1882,0.3943,-0.8993
0.093,-0.061,-0.025,-30.1,-25,13.5,0,2018,5,16,19,6,13.893,0.0127,-0.1832,0.4001,-0.8978
0.085,-0.052,-0.046,-23.4,0.7,17.8,0,2018,5,16,19,6,13.913,0.0082,-0.1795,0.4019,-0.8978
0.087,-0.079,-0.072,-16.2,21.2,14.2,0,2018,5,16,19,6,13.918,0.0048,-0.1774,0.3995,-0.8993
0.086,-0.006,-0.027,-11.6,22.5,10.9,0,2018,5,16,19,6,13.935,0.0029,-0.1756,0.3959,-0.9013
0.079,0.058,-0.032,-8.7,13.8,7.8,0,2018,5,16,19,6,13.973,0.0016,-0.1741,0.3926,-0.903
0.105,0.036,-0.028,-6,4.8,4.9,0,2018,5,16,19,6,13.993,0.0008,-0.1727,0.3911,-0.9039
0.085,-0.015,0.032,-1.8,10,4,0,2018,5,16,19,6,13.997,0.0004,-0.1716,0.3899,-0.9046
0.061,-0.07,0.087,-0.9,17.6,0.4,0,2018,5,16,19,6,14.014,0.0006,-0.1708,0.3874,-0.9059
0.06,-0.04,0.022,0.9,20.8,-4.1,0,2018,5,16,19,6,14.035,0.0019,-0.1699,0.3845,-0.9073
0.049,-0.096,-0.001,4.9,39,-8.4,0,2018,5,16,19,6,14.053,0.0044,-0.1694,0.3808,-0.9089
0.011,-0.398,0.119,8.5,98.9,-13.9,0,2018,5,16,19,6,14.09,0.0088,-0.1695,0.3712,-0.9128
-0.065,-0.454,0.289,9.8,187.4,-22.3,0,2018,5,16,19,6,14.111,0.0168,-0.1695,0.3479,-0.9218
-0.185,0.059,0.33,-9.1,124.1,-43,0,2018,5,16,19,6,14.115,0.0271,-0.1676,0.3211,-0.9316
-0.049,-0.128,0.248,-39.6,14,-62.7,0,2018,5,16,19,6,14.137,0.0364,-0.1598,0.3125,-0.9356
0.012,-0.055,0.297,-59.7,-79.9,-83.9,0,2018,5,16,19,6,14.157,0.0449,-0.1477,0.3195,-0.9349
0.087,-0.21,0.199,-74,-166.4,-111.6,0,2018,5,16,19,6,14.197,0.0541,-0.1317,0.3428,-0.9285
0.051,-0.204,0.362,-87.4,-232.8,-139.6,0,2018,5,16,19,6,14.201,0.0654,-0.1128,0.3791,-0.916
0.046,-0.209,0.39,-103.5,-296.5,-165.1,0,2018,5,16,19,6,14.217,0.0784,-0.0896,0.4248,-0.8973
0.274,-0.894,0.313,-95.6,-262.1,-188.8,0,2018,5,16,19,6,14.234,0.0943,-0.0636,0.4742,-0.873
0.044,-0.441,0.474,-83.4,-198.7,-208.9,0,2018,5,16,19,6,14.272,0.115,-0.0371,0.5103,-0.8514
-0.085,0.092,0.543,-87.3,-196.6,-228.8,0,2018,5,16,19,6,14.291,0.1387,-0.0088,0.5407,-0.8295
-0.008,-0.247,0.501,-86.2,-195.3,-244.7,1023,2018,5,16,19,6,14.295,0.1645,0.0215,0.5724,-0.8029
-0.17,-0.61,0.329,-52,13.9,-218.6,1023,2018,5,16,19,6,14.336,0.1905,0.0521,0.5872,-0.7849
-0.636,1.512,0.295,-68.8,-1.3,-193.6,1023,2018,5,16,19,6,14.355,0.2118,0.0815,0.5811,-0.7814
-0.043,0.697,-0.237,-79.5,-155.2,-205.3,1023,2018,5,16,19,6,14.359,0.2327,0.1093,0.594,-0.7622
-0.016,0.218,-0.584,-49.3,-167.9,-185,1023,2018,5,16,19,6,14.378,0.2547,0.1313,0.6145,-0.7349
0.047,-0.176,-0.646,7.4,-82,-159.1,1023,2018,5,16,19,6,14.397,0.2773,0.1465,0.6276,-0.7124
-0.137,0.184,-0.44,47.8,19.2,-137.2,1023,2018,5,16,19,6,14.437,0.2995,0.1577,0.6254,-0.7029
-0.339,0.741,-0.357,64.9,53.8,-106.1,1023,2018,5,16,19,6,14.456,0.3195,0.1661,0.6133,-0.7029
-0.349,0.796,-0.306,67.1,24.5,-72.3,1023,2018,5,16,19,6,14.46,0.3361,0.1696,0.6018,-0.7042
-0.342,0.571,-0.157,62.8,1.8,-41.2,0,2018,5,16,19,6,14.48,0.3498,0.1679,0.5951,-0.7036
-0.357,0.448,0.117,42.1,-23.2,-16.9,0,2018,5,16,19,6,14.502,0.3587,0.1635,0.5925,-0.7024
-0.249,0.031,0.124,22.8,-17,-8.6,0,2018,5,16,19,6,14.518,0.3641,0.1594,0.593,-0.7001
-0.147,-0.077,0.02,11,-0.7,-4.7,0,2018,5,16,19,6,14.556,0.3668,0.1576,0.593,-0.6991
-0.074,-0.14,-0.049,8.7,18.9,-4,0,2018,5,16,19,6,14.577,0.368,0.1575,0.5911,-0.7002
-0.041,0.044,-0.055,4.2,11.7,-7.4,0,2018,5,16,19,6,14.581,0.3686,0.1582,0.5885,-0.7019
0.002,0.065,-0.042,-0.8,-12.9,-7.8,0,2018,5,16,19,6,14.599,0.3699,0.1589,0.5885,-0.701
0.041,0.028,-0.023,-1.7,-18.2,-6,0,2018,5,16,19,6,14.636,0.3714,0.1591,0.5908,-0.6982
0.019,0.003,-0.026,-0.9,-1.8,-2.6,0,2018,5,16,19,6,14.657,0.3724,0.1592,0.5923,-0.6964
-0.074,0.065,-0.005,1.7,31.3,3.2,0,2018,5,16,19,6,14.661,0.3719,0.1603,0.5904,-0.698
-0.003,0.164,0.053,0,23.7,6.8,0,2018,5,16,19,6,14.68,0.3706,0.1611,0.5862,-0.7021
-0.007,0.146,0.013,-5.7,-13.8,7.7,0,2018,5,16,19,6,14.72,0.3694,0.1612,0.5859,-0.7029
0.032,-0.013,-0.039,-4,-25.4,11.2,0,2018,5,16,19,6,14.724,0.3687,0.1597,0.5893,-0.7008
0.043,-0.058,-0.031,1.9,-20,13.8,0,2018,5,16,19,6,14.74,0.3675,0.1572,0.593,-0.6989
0.026,-0.16,0.066,9.8,6.9,14.9,0,2018,5,16,19,6,14.759,0.3663,0.154,0.594,-0.6993
-0.016,-0.124,0.094,13.2,31.7,16.6,0,2018,5,16,19,6,14.779,0.3648,0.1514,0.5909,-0.7033
-0.028,-0.024,0.084,13.3,39.7,17.4,0,2018,5,16,19,6,14.8,0.363,0.1497,0.5854,-0.7092
-0.009,0.039,0.033,12.2,38.3,19.6,0,2018,5,16,19,6,14.821,0.3611,0.1484,0.5797,-0.7151
0.022,-0.022,-0.038,13.3,38.1,20.7,0,2018,5,16,19,6,14.86,0.359,0.1472,0.5748,-0.7204
0.035,-0.078,-0.062,18.4,51.7,18.9,0,2018,5,16,19,6,14.88,0.3568,0.1459,0.5694,-0.726
0.027,0.023,-0.004,19.7,56.7,16,0,2018,5,16,19,6,14.884,0.3551,0.1452,0.5618,-0.7328
0.009,0.16,0.005,13.1,33.6,12.2,0,2018,5,16,19,6,14.902,0.3542,0.1451,0.5547,-0.7387
0.016,0.154,-0.001,3.8,-1.7,8.3,0,2018,5,16,19,6,14.92,0.3541,0.1448,0.5518,-0.7409
0.047,-0.02,-0.01,0.8,-11.5,4.9,0,2018,5,16,19,6,14.941,0.3542,0.1438,0.5531,-0.7401
0.022,-0.058,0.034,2.4,8.9,1.7,0,2018,5,16,19,6,14.959,0.3542,0.143,0.5537,-0.7398
0,0.031,0.081,2.3,25.9,-0.1,0,2018,5,16,19,6,14.979,0.3541,0.1437,0.5508,-0.7419
-0.007,0.073,0.089,-1.5,27.2,-0.8,0,2018,5,16,19,6,15.018,0.3541,0.1454,0.5463,-0.7449
0,0.057,0.05,-5.5,24.8,0.2,0,2018,5,16,19,6,15.037,0.3536,0.1476,0.5424,-0.7476
0.002,0.041,0,-9,29.7,2.5,0,2018,5,16,19,6,15.041,0.3524,0.1502,0.5394,-0.7497
-0.013,0.06,-0.041,-7.2,49.3,6.1,1023,2018,5,16,19,6,15.079,0.3504,0.1535,0.535,-0.7532
-0.002,-0.048,-0.085,-2.9,74.7,6.6,1023,2018,5,16,19,6,15.099,0.3473,0.1574,0.5278,-0.7589
0.006,-0.024,-0.099,-0.9,95.4,8.9,1023,2018,5,16,19,6,15.103,0.3436,0.1621,0.5177,-0.7665
0.099,0.176,-0.106,-7,78.8,9.7,1023,2018,5,16,19,6,15.122,0.3392,0.1672,0.5063,-0.7749
0.119,0.255,-0.077,-22.2,18.7,5.1,1023,2018,5,16,19,6,15.144,0.3351,0.1712,0.4994,-0.7803
0.071,-0.493,-0.051,-34.8,-64.8,-34.2,1023,2018,5,16,19,6,15.182,0.3364,0.1749,0.5062,-0.7745
-0.015,0.052,0.138,-33.7,-29,-18.6,1023,2018,5,16,19,6,15.186,0.3383,0.1786,0.5136,-0.7679
0.023,0.051,0.115,-29.9,11.2,-9.7,1023,2018,5,16,19,6,15.203,0.3377,0.1834,0.5168,-0.7649
-0.008,0.161,0.046,-25,50.2,-7.4,1023,2018,5,16,19,6,15.223,0.3355,0.1898,0.514,-0.7662
-0.018,0.324,-0.008,-19.4,55.6,2.2,0,2018,5,16,19,6,15.242,0.3322,0.1964,0.5079,-0.7701
-0.027,0.242,0.004,-18.9,27.5,13.1,0,2018,5,16,19,6,15.264,0.3281,0.2006,0.504,-0.7733
-0.011,0.082,-0.053,-16.5,22.1,19.8,0,2018,5,16,19,6,15.283,0.3238,0.2031,0.5026,-0.7753
0.057,0.139,-0.105,-8.5,31.8,26.1,0,2018,5,16,19,6,15.303,0.3189,0.2048,0.5003,-0.7784
0.143,-0.117,-0.054,-8.9,3.4,16,0,2018,5,16,19,6,15.322,0.3147,0.2051,0.4998,-0.7804
0.122,-0.01,-0.052,-3.8,1.2,15.9,0,2018,5,16,19,6,15.345,0.3121,0.2052,0.501,-0.7806
0.194,0.046,-0.147,3.1,-19.6,18.4,0,2018,5,16,19,6,15.364,0.3098,0.2033,0.5029,-0.7808
0.221,-0.179,-0.092,12.3,-26.5,8.2,0,2018,5,16,19,6,15.402,0.3098,0.1996,0.5069,-0.7791
0.129,-0.051,0.074,14.1,-15.6,4,0,2018,5,16,19,6,15.406,0.3113,0.1964,0.5096,-0.7776
0.099,-0.096,0.129,9.8,-26,-5.7,0,2018,5,16,19,6,15.422,0.3134,0.1937,0.511,-0.7765
0.103,-0.045,0.003,9.3,-31.4,-13.9,0,2018,5,16,19,6,15.442,0.3168,0.1918,0.5141,-0.7735
-0.018,0.217,-0.011,9.5,-45.1,-12.8,0,2018,5,16,19,6,15.462,0.3214,0.1902,0.5181,-0.7694
-0.082,0.289,-0.019,9.2,-61.6,-3.5,0,2018,5,16,19,6,15.501,0.3254,0.1866,0.5251,-0.7638
0.003,0.056,-0.053,13.9,-46.6,3.2,0,2018,5,16,19,6,15.521,0.3285,0.1819,0.5321,-0.7587
0.085,-0.142,-0.104,25.8,1.7,3.8,0,2018,5,16,19,6,15.525,0.3305,0.1778,0.5345,-0.7571
0.063,0.016,-0.084,30.7,6.8,0,0,2018,5,16,19,6,15.542,0.3327,0.1744,0.5319,-0.7588
0.041,0.053,-0.031,29.3,-7.7,-11.4,0,2018,5,16,19,6,15.563,0.3367,0.1713,0.5306,-0.7587
-0.053,0.186,0.02,22.8,-36.6,-16.6,0,2018,5,16,19,6,15.6,0.3422,0.1682,0.531,-0.7566
-0.138,0.246,0.13,9.2,-73.5,-17.2,0,2018,5,16,19,6,15.623,0.3479,0.1643,0.5373,-0.7504
-0.12,0.078,0.094,-4,-85.9,-12.4,0,2018,5,16,19,6,15.625,0.3523,0.1603,0.5478,-0.7416
-0.092,-0.102,0,-5.6,-53.2,-10.4,0,2018,5,16,19,6,15.643,0.355,0.157,0.5572,-0.7339
-0.14,-0.091,0.014,-1.2,-11,-5.8,0,2018,5,16,19,6,15.664,0.3567,0.1562,0.5614,-0.7301
-0.099,0.043,-0.048,2.2,13.7,2.1,0,2018,5,16,19,6,15.703,0.3567,0.156,0.561,-0.7305
-0.088,0.238,-0.059,3.6,-2.3,11.6,0,2018,5,16,19,6,15.724,0.3562,0.1558,0.5597,-0.7317
-0.088,0.089,-0.104,8.7,-7.8,20.2,0,2018,5,16,19,6,15.728,0.3554,0.1533,0.5612,-0.7315
-0.216,0.12,-0.035,16.1,21.5,37.2,0,2018,5,16,19,6,15.748,0.3526,0.1484,0.5604,-0.7344
-0.269,0.275,0.027,18.7,39,62.4,0,2018,5,16,19,6,15.767,0.3474,0.1432,0.5569,-0.7406
-0.305,0.45,-0.006,20.6,58.5,95.3,0,2018,5,16,19,6,15.786,0.3378,0.1359,0.5515,-0.7504
-0.367,0.646,-0.005,25.3,64.8,133.3,0,2018,5,16,19,6,15.805,0.3233,0.1256,0.5446,-0.7635
-0.35,0.487,-0.132,42.7,101,175.5,1023,2018,5,16,19,6,15.843,0.304,0.1108,0.5358,-0.7798
-0.289,0.748,-0.31,75.5,156.1,216.2,1023,2018,5,16,19,6,15.847,0.28,0.0912,0.5176,-0.8032
-0.116,0.27,-0.494,112.9,191.8,248.4,1023,2018,5,16,19,6,15.865,0.2527,0.065,0.4927,-0.8301
-0.017,0.47,-0.534,165.3,239.5,256.8,1023,2018,5,16,19,6,15.885,0.2252,0.0325,0.4563,-0.8601
-0.079,0.649,-0.482,213.1,210.4,258,1023,2018,5,16,19,6,15.905,0.1999,-0.008,0.4151,-0.8874
-0.245,0.115,-0.108,240.3,192.1,236.7,1023,2018,5,16,19,6,15.927,0.178,-0.0545,0.3748,-0.9081
-0.297,-0.39,0.556,224.2,158.4,198,1023,2018,5,16,19,6,15.947,0.1603,-0.1005,0.3371,-0.9222
-0.245,-0.363,0.942,183.4,161,163.9,1023,2018,5,16,19,6,15.982,0.1458,-0.1395,0.3015,-0.9318
-0.232,-0.455,1.034,138.9,185.5,135.9,1023,2018,5,16,19,6,16.004,0.1339,-0.1688,0.2635,-0.9402
-0.132,-0.639,0.897,96.9,205.3,106.1,0,2018,5,16,19,6,16.009,0.1253,-0.188,0.2245,-0.9478
-0.106,-0.553,0.713,64.2,221.8,85.9,0,2018,5,16,19,6,16.029,0.1196,-0.1998,0.1839,-0.9549
-0.079,-0.303,0.521,38.7,189.9,61.1,0,2018,5,16,19,6,16.048,0.1159,-0.206,0.1447,-0.9608
-0.129,0.067,0.399,-9.5,26.7,29.2,0,2018,5,16,19,6,16.089,0.1126,-0.207,0.1231,-0.9639
0.076,-0.284,0.115,-40.2,-94,4.2,0,2018,5,16,19,6,16.109,0.1075,-0.203,0.1309,-0.9644
0.176,-0.307,-0.003,-44.3,-96.6,-3.2,0,2018,5,16,19,6,16.113,0.1027,-0.1974,0.1487,-0.9634
0.229,-0.297,-0.133,-29,-38.7,-4.6,0,2018,5,16,19,6,16.126,0.0999,-0.1922,0.1609,-0.9628
0.161,-0.068,-0.183,-6.3,25.4,-4.9,0,2018,5,16,19,6,16.168,0.1001,-0.1893,0.1619,-0.9632
0.084,0.112,-0.127,10.3,59.3,-1.8,0,2018,5,16,19,6,16.173,0.1021,-0.1885,0.1538,-0.9645
0.065,0.053,-0.102,21.5,72.1,-0.3,0,2018,5,16,19,6,16.188,0.1045,-0.1897,0.1414,-0.9659
0.031,0.062,-0.048,28.9,76.4,-2.5,0,2018,5,16,19,6,16.227,0.1074,-0.1925,0.1275,-0.967
0.006,0.04,-0.024,33.4,69.8,-6.7,0,2018,5,16,19,6,16.248,0.1111,-0.1963,0.1138,-0.9675
-0.035,0.019,0.022,32.1,58.2,-11.8,0,2018,5,16,19,6,16.252,0.1154,-0.2006,0.1021,-0.9674
-0.017,0.095,0.007,27.8,36.2,-16,0,2018,5,16,19,6,16.268,0.1198,-0.2046,0.0932,-0.9669
0.012,0.165,-0.043,23.2,4,-16.4,0,2018,5,16,19,6,16.307,0.1236,-0.2082,0.089,-0.9661
0,0.15,0,23.2,-21.6,-14.7,0,2018,5,16,19,6,16.327,0.1261,-0.2121,0.0908,-0.9647
0.012,0.052,0.083,20.2,-26.3,-11,0,2018,5,16,19,6,16.331,0.1276,-0.216,0.0946,-0.9633
-0.045,0.042,0.206,13.2,-22.5,-6.2,0,2018,5,16,19,6,16.348,0.128,-0.219,0.0975,-0.9623
-0.013,0.092,0.204,3.6,-23.7,-0.3,0,2018,5,16,19,6,16.387,0.1274,-0.2203,0.1001,-0.9618
0.002,0.084,0.172,-3.4,-26,6.1,0,2018,5,16,19,6,16.408,0.1256,-0.2209,0.1041,-0.9615
-0.019,0.05,0.139,-9.3,-25.1,9.4,0,2018,5,16,19,6,16.412,0.1227,-0.22,0.1071,-0.9617
-0.025,0.09,0.101,-15.9,-31.8,11.1,0,2018,5,16,19,6,16.431,0.1193,-0.2183,0.1104,-0.9622
-0.002,0.102,0.031,-21.5,-51.2,10.8,0,2018,5,16,19,6,16.451,0.115,-0.2161,0.116,-0.9625
0.022,0.068,-0.041,-26,-67.5,10.2,0,2018,5,16,19,6,16.488,0.1099,-0.2133,0.1251,-0.9626
0.029,0.096,-0.079,-28.3,-93.3,9.1,0,2018,5,16,19,6,16.508,0.1044,-0.2104,0.1375,-0.9622
0.056,0.023,-0.141,-31.1,-124,7.6,0,2018,5,16,19,6,16.512,0.0978,-0.2076,0.1557,-0.9607
0.101,-0.042,-0.16,-27.2,-127,4.5,0,2018,5,16,19,6,16.529,0.0911,-0.2048,0.1778,-0.9581
0.138,-0.062,-0.145,-18.4,-122.8,-0.3,0,2018,5,16,19,6,16.548,0.0853,-0.2029,0.1988,-0.9549
0.109,-0.086,-0.12,-10.5,-118.8,-3.9,0,2018,5,16,19,6,16.586,0.0808,-0.2022,0.2192,-0.951
0.12,-0.296,-0.04,-0.4,-71,-5.2,0,2018,5,16,19,6,16.605,0.0777,-0.2024,0.236,-0.9472
0.036,-0.29,0.048,8.7,12.8,-12.1,0,2018,5,16,19,6,16.61,0.0786,-0.2033,0.2405,-0.9458
0.059,-0.094,0.023,10,44.7,-16.9,1023,2018,5,16,19,6,16.647,0.0831,-0.2036,0.2358,-0.9465
0.029,0.044,0.05,6.9,35.9,-17.5,1023,2018,5,16,19,6,16.666,0.0881,-0.2032,0.2293,-0.9477
-0.047,0.142,0.089,-4.1,0.3,-13.3,1023,2018,5,16,19,6,16.673,0.0913,-0.2025,0.2262,-0.9483
-0.082,0.1,0.074,-14.6,-31.3,-5.7,1023,2018,5,16,19,6,16.709,0.092,-0.2007,0.2299,-0.9478
-0.056,-0.011,-0.011,-17.7,-31.6,0.2,1023,2018,5,16,19,6,16.73,0.0905,-0.1989,0.2355,-0.9469
-0.023,-0.006,0.019,-17.9,-24.5,4.4,1023,2018,5,16,19,6,16.734,0.0883,-0.1968,0.2402,-0.9464
-0.025,0.056,0.032,-20.9,-22.8,8.9,1023,2018,5,16,19,6,16.753,0.0856,-0.1944,0.2436,-0.9462
0,0.114,-0.062,-21,-32.2,15,1023,2018,5,16,19,6,16.791,0.0815,-0.192,0.2471,-0.9462
0.042,0.022,-0.15,-14.3,-36.6,17.8,1023,2018,5,16,19,6,16.812,0.0768,-0.1906,0.2526,-0.9454
0.048,-0.108,-0.164,-5.7,-27.9,18.3,0,2018,5,16,19,6,16.816,0.0724,-0.1903,0.2586,-0.9442
0.104,-0.193,-0.151,4.4,3.6,17.4,0,2018,5,16,19,6,16.832,0.0691,-0.1912,0.26,-0.9439
0.1,0.003,-0.024,12.1,14.7,15.7,0,2018,5,16,19,6,16.852,0.0676,-0.1932,0.2575,-0.9443
0.057,0.118,0.085,9.5,-5.6,13.1,0,2018,5,16,19,6,16.874,0.0664,-0.1951,0.2558,-0.9444
0.05,0.053,0.093,3.7,-30.4,9.4,0,2018,5,16,19,6,16.892,0.0643,-0.1967,0.2584,-0.9435
0.08,-0.046,0.069,0.6,-37.6,3.4,0,2018,5,16,19,6,16.914,0.0626,-0.1969,0.264,-0.942
0.097,0.015,0.038,1.3,-43.1,-1.7,0,2018,5,16,19,6,16.934,0.0617,-0.1966,0.2705,-0.9403
0.076,0.067,0.031,0.1,-59.9,-4,0,2018,5,16,19,6,16.972,0.0609,-0.1964,0.2788,-0.938
0.062,-0.09,0.027,-0.7,-66.3,-7.4,0,2018,5,16,19,6,16.992,0.06,-0.196,0.2897,-0.9348
0.023,-0.27,0.07,-0.4,-43.5,-11.4,0,2018,5,16,19,6,16.996,0.0598,-0.1959,0.2995,-0.9318
0.008,-0.455,0.122,3.7,5.4,-16.3,0,2018,5,16,19,6,17.012,0.0618,-0.1956,0.3037,-0.9304
-0.008,-0.852,0.136,9.7,90.7,-22.2,0,2018,5,16,19,6,17.049,0.067,-0.1952,0.2963,-0.9324
0.012,-0.947,0.036,14.7,175.4,-37.2,0,2018,5,16,19,6,17.069,0.0775,-0.1941,0.275,-0.9384
0.017,-0.643,-0.078,22,247.1,-52.3,0,2018,5,16,19,6,17.073,0.0933,-0.1919,0.2412,-0.9466
-0.075,-0.199,-0.144,25.8,273.9,-72.5,0,2018,5,16,19,6,17.092,0.1138,-0.1889,0.1988,-0.9548
-0.193,0.211,-0.086,12.5,230.3,-91.1,0,2018,5,16,19,6,17.133,0.1366,-0.1842,0.1581,-0.9604
-0.138,0.55,-0.069,-4.1,144,-105.2,0,2018,5,16,19,6,17.153,0.1589,-0.1775,0.1294,-0.9625
-0.047,0.433,0.052,-21.5,53.9,-104.5,0,2018,5,16,19,6,17.157,0.179,-0.1703,0.1175,-0.9618
-0.13,0.838,-0.022,-22.5,56.4,-72.8,0,2018,5,16,19,6,17.176,0.1953,-0.1629,0.1106,-0.9607
-0.071,0.787,0.069,-37.3,-22.4,-46.4,0,2018,5,16,19,6,17.196,0.2046,-0.1561,0.1103,-0.9599
-0.15,0.69,0.281,-42.9,-98.5,-29.7,0,2018,5,16,19,6,17.234,0.2086,-0.151,0.1231,-0.9583
-0.311,0.47,0.382,-66.3,-161.5,-16.9,0,2018,5,16,19,6,17.238,0.2073,-0.1463,0.1488,-0.9557
-0.234,0.368,0.21,-89.8,-180.1,-31.1,0,2018,5,16,19,6,17.255,0.2044,-0.1386,0.1802,-0.952
0.096,-0.134,0.141,-117,-274.1,-72.1,0,2018,5,16,19,6,17.289,0.2039,-0.1274,0.2236,-0.9445
0.172,-0.329,0.144,-137.6,-334.8,-72.6,0,2018,5,16,19,6,17.312,0.2038,-0.1138,0.2813,-0.9307
0.167,-0.821,0.28,-132,-239.3,-74.9,0,2018,5,16,19,6,17.316,0.2026,-0.0984,0.3337,-0.9153
0.118,-0.58,0.397,-133.9,-171.3,-105.1,0,2018,5,16,19,6,17.334,0.2056,-0.079,0.3715,-0.9019
0.091,-0.404,0.363,-151.3,-185.2,-143.7,0,2018,5,16,19,6,17.357,0.2135,-0.0542,0.4053,-0.8872
0.143,-0.412,0.135,-161.5,-230.3,-183.2,0,2018,5,16,19,6,17.377,0.2258,-0.0254,0.4448,-0.8663
0.183,-0.515,-0.072,-151.9,-258.8,-220.6,1023,2018,5,16,19,6,17.397,0.2427,0.0045,0.4887,-0.8379
-0.005,-0.393,-0.226,-106.1,-148.7,-230.9,1023,2018,5,16,19,6,17.417,0.2646,0.0342,0.5239,-0.8088
-0.261,0.237,-0.235,-72.9,-62.9,-229.1,1023,2018,5,16,19,6,17.454,0.2895,0.0631,0.54,-0.7877
-0.343,0.71,-0.374,-48.4,-35,-219.4,1023,2018,5,16,19,6,17.476,0.3151,0.0902,0.5463,-0.7707
-0.323,1.026,-0.409,-31,-57.9,-186.3,1023,2018,5,16,19,6,17.48,0.3395,0.1124,0.5505,-0.7543
-0.33,1.024,-0.445,-13.5,-86.5,-137.9,1023,2018,5,16,19,6,17.495,0.3601,0.1263,0.5584,-0.7364
-0.286,0.73,-0.636,6.2,-81.5,-92.8,1023,2018,5,16,19,6,17.533,0.3762,0.1322,0.5674,-0.7203
-0.255,0.371,-0.616,31.7,-26.3,-57.8,1023,2018,5,16,19,6,17.554,0.3888,0.1335,0.5716,-0.71
-0.392,0.574,-0.206,40.4,-3.4,-19.7,0,2018,5,16,19,6,17.558,0.3974,0.132,0.5688,-0.7078
-0.357,0.291,0.141,26.1,-52.4,-1.7,0,2018,5,16,19,6,17.576,0.4027,0.1266,0.57,-0.7048
-0.169,-0.074,0.14,10.2,-67.9,5.2,0,2018,5,16,19,6,17.595,0.4055,0.1197,0.5766,-0.699
-0.014,-0.248,0.094,1.4,-62.2,4.1,0,2018,5,16,19,6,17.616,0.4068,0.1138,0.5848,-0.6924
0.048,-0.342,0.057,1.1,-28.1,-0.4,0,2018,5,16,19,6,17.654,0.4068,0.109,0.5905,-0.6883
0.024,-0.229,0.104,4.2,14.5,-4.1,0,2018,5,16,19,6,17.674,0.4071,0.1074,0.5911,-0.6879
-0.034,0.023,0.17,0.9,31,-4.7,0,2018,5,16,19,6,17.678,0.4074,0.1091,0.5874,-0.6906
-0.042,0.122,0.109,-8.6,13.8,-2.7,0,2018,5,16,19,6,17.697,0.4071,0.1116,0.585,-0.6924
-0.009,0.093,0.007,-14.9,-1,2.7,0,2018,5,16,19,6,17.72,0.4063,0.1136,0.5852,-0.6924
0.028,0.03,-0.077,-14.3,1.4,8.6,0,2018,5,16,19,6,17.735,0.4042,0.1151,0.5867,-0.6921
0.024,0.06,-0.082,-7.4,13,13,0,2018,5,16,19,6,17.774,0.4018,0.1162,0.5875,-0.6926
0.031,0.062,-0.043,-0.8,12.1,13.7,0,2018,5,16,19,6,17.795,0.3999,0.1167,0.587,-0.6941
0.04,0.06,-0.008,3.3,12.3,17.8,0,2018,5,16,19,6,17.799,0.3984,0.1162,0.5859,-0.6959
0.023,0.023,0.032,4.6,16,21.3,0,2018,5,16,19,6,17.818,0.3966,0.1149,0.5842,-0.6985
0.001,-0.027,0.051,6,32.8,21.6,0,2018,5,16,19,6,17.84,0.3942,0.1135,0.581,-0.7028
-0.018,0.069,0.039,1.8,30.3,21.2,0,2018,5,16,19,6,17.874,0.3917,0.1131,0.5766,-0.7079
-0.009,0.132,-0.018,-2.3,17.3,22.7,0,2018,5,16,19,6,17.896,0.3891,0.1127,0.574,-0.7115
0.004,0.122,-0.067,-2.9,8.6,25.4,0,2018,5,16,19,6,17.9,0.3861,0.1121,0.5731,-0.714
0.031,0.111,-0.137,0.2,15.9,27.4,0,2018,5,16,19,6,17.917,0.3826,0.1107,0.5724,-0.7166
0.024,0.119,-0.147,4.5,22.5,29.2,0,2018,5,16,19,6,17.957,0.3789,0.1089,0.5703,-0.7206
0.012,0.111,-0.097,9.5,15.6,31.6,0,2018,5,16,19,6,17.977,0.3755,0.1064,0.5681,-0.7244
-0.023,0.077,-0.023,12.6,11.1,33.3,0,2018,5,16,19,6,17.981,0.3724,0.1029,0.5663,-0.7279
-0.066,0.124,0.102,5.4,-8.4,36,0,2018,5,16,19,6,17.999,0.3691,0.0984,0.5659,-0.7305
-0.067,0.085,0.119,-3.9,-14.8,38.9,0,2018,5,16,19,6,18.037,0.3647,0.0937,0.5685,-0.7313
-0.033,-0.046,0.027,-10.4,-12.7,38.6,0,2018,5,16,19,6,18.056,0.3592,0.0896,0.5712,-0.7325
0.002,-0.116,0.013,-10.9,-0.6,40.7,0,2018,5,16,19,6,18.06,0.3529,0.086,0.5738,-0.7339
-0.023,0.021,0.078,-9.3,20.7,45.6,0,2018,5,16,19,6,18.081,0.3461,0.0832,0.5734,-0.7378
0.005,0.127,0.093,-10.9,25.6,46.3,0,2018,5,16,19,6,18.1,0.339,0.0813,0.5711,-0.743
0.04,0.044,0.01,-12.2,20.6,42.8,0,2018,5,16,19,6,18.14,0.3321,0.0799,0.5692,-0.7477
0.11,0,-0.068,-10.1,16.8,38.9,0,2018,5,16,19,6,18.144,0.3257,0.0788,0.5681,-0.7516
0.118,-0.047,-0.018,-5.6,19.3,36.2,1023,2018,5,16,19,6,18.16,0.32,0.0774,0.5671,-0.7549
0.073,-0.031,0.083,-5.2,24.7,33.6,1023,2018,5,16,19,6,18.178,0.315,0.0762,0.5648,-0.7588
0.041,0.056,0.125,-10.1,23.8,29.9,1023,2018,5,16,19,6,18.199,0.3101,0.0756,0.5615,-0.7633
0.013,0.064,0.112,-20.4,4.2,27.9,1023,2018,5,16,19,6,18.219,0.3047,0.0756,0.5607,-0.7661
-0.009,-0.05,0.074,-28.4,-12.1,25.8,1023,2018,5,16,19,6,18.24,0.2989,0.0758,0.5623,-0.7672
-0.024,-0.002,0.067,-34.6,-26.1,22.7,1023,2018,5,16,19,6,18.26,0.2927,0.0763,0.5663,-0.7665
-0.037,0.009,0.046,-41,-46.5,17.6,1023,2018,5,16,19,6,18.281,0.2867,0.0772,0.5727,-0.764
0.032,-0.121,-0.001,-45.8,-63.8,10.2,1023,2018,5,16,19,6,18.301,0.281,0.0785,0.5825,-0.7586
0.127,-0.205,-0.055,-45.7,-61.5,2.5,1023,2018,5,16,19,6,18.323,0.2763,0.0808,0.5939,-0.7512
0.183,-0.205,-0.099,-40.9,-47.2,-5.7,0,2018,5,16,19,6,18.342,0.2727,0.0842,0.6035,-0.7445
0.185,-0.118,-0.107,-34.3,-43.1,-15.5,0,2018,5,16,19,6,18.383,0.2708,0.0881,0.6109,-0.7386
0.202,-0.074,-0.147,-24.6,-43.4,-24.7,0,2018,5,16,19,6,18.388,0.271,0.092,0.6177,-0.7323
0.208,-0.041,-0.154,-13.6,-38.7,-30.8,0,2018,5,16,19,6,18.403,0.2732,0.0955,0.6234,-0.7262
0.203,-0.013,-0.194,-1.5,-32.3,-36.7,0,2018,5,16,19,6,18.42,0.2773,0.0984,0.6276,-0.7207
0.184,0.068,-0.203,10.8,-26.2,-41.3,0,2018,5,16,19,6,18.46,0.2833,0.1007,0.6303,-0.7157
0.164,0.116,-0.208,21.5,-28.5,-45.1,0,2018,5,16,19,6,18.479,0.2911,0.102,0.6322,-0.7106
0.133,0.07,-0.201,29.8,-32.4,-47.4,0,2018,5,16,19,6,18.483,0.3003,0.1023,0.6339,-0.7052
0.082,-0.005,-0.15,40.3,-20.7,-46.9,0,2018,5,16,19,6,18.521,0.3106,0.1017,0.6347,-0.7001
-0.011,0.028,-0.016,46.9,-2.6,-46.2,0,2018,5,16,19,6,18.54,0.3213,0.101,0.6332,-0.6968
-0.065,0,0.078,42.5,4.1,-49.3,0,2018,5,16,19,6,18.545,0.3322,0.1004,0.6293,-0.6953
-0.06,-0.018,0.062,36.6,10.1,-50.3,0,2018,5,16,19,6,18.564,0.3424,0.1008,0.6249,-0.6942
-0.083,-0.001,0.039,31.7,21.4,-45.8,0,2018,5,16,19,6,18.584,0.3515,0.1023,0.6195,-0.6943
-0.117,0.093,0.075,26.5,33.6,-37.7,0,2018,5,16,19,6,18.623,0.3591,0.1044,0.6129,-0.6959
-0.162,0.155,0.122,16.7,29.7,-29.1,0,2018,5,16,19,6,18.627,0.365,0.1074,0.607,-0.6976
-0.154,0.152,0.125,4.2,13.1,-21.9,0,2018,5,16,19,6,18.643,0.3689,0.1102,0.6034,-0.6982
