ax,ay,az,dpitch,droll,dyaw,heart,time_1,time_2,time_3,time_4,time_5,time_6,w,x,y,z
0.004,0,-0.008,-1.2,-2.5,-0.8,0,2018,4,25,17,9,1.012,0.8639,-0.2715,-0.4212,0.0497
0.004,0.003,-0.01,-1,-1.4,-0.6,0,2018,4,25,17,9,1.032,0.8626,-0.2701,-0.4247,0.0489
0.004,0.005,-0.005,-0.5,-1,-0.5,0,2018,4,25,17,9,1.046,0.8614,-0.2686,-0.4281,0.0482
0.005,0.008,-0.005,-0.2,-1.4,-0.3,0,2018,4,25,17,9,1.066,0.8603,-0.267,-0.4314,0.0476
0.004,0.009,-0.005,-0.2,-1.8,-0.4,0,2018,4,25,17,9,1.086,0.8591,-0.2656,-0.4347,0.0469
0.003,0.013,-0.004,-0.1,-2.5,-0.3,0,2018,4,25,17,9,1.123,0.858,-0.2644,-0.4378,0.0462
0.006,0.007,-0.003,-0.4,-2.4,-0.1,0,2018,4,25,17,9,1.144,0.8569,-0.2632,-0.4407,0.0456
0.007,0.007,-0.006,-0.2,-2,-0.2,0,2018,4,25,17,9,1.148,0.856,-0.2621,-0.4433,0.0449
0.008,0.004,-0.001,-0.3,-1.5,-0.1,0,2018,4,25,17,9,1.186,0.855,-0.2608,-0.446,0.0444
0.007,0.006,-0.007,-0.2,-0.9,-0.1,0,2018,4,25,17,9,1.19,0.854,-0.2596,-0.4485,0.0439
0.009,0.01,0,-0.2,-0.7,-0.1,0,2018,4,25,17,9,1.204,0.8532,-0.2583,-0.4509,0.0435
0.008,0.012,-0.008,-0.1,-0.9,-0.1,0,2018,4,25,17,9,1.244,0.8523,-0.257,-0.4533,0.0431
0.008,0.007,-0.005,-0.1,-0.8,0,0,2018,4,25,17,9,1.263,0.8515,-0.2559,-0.4554,0.0428
0.002,0.004,-0.004,0,-0.6,-0.1,0,2018,4,25,17,9,1.267,0.8508,-0.2549,-0.4574,0.0425
0.005,0.006,-0.008,0.2,-0.5,0,0,2018,4,25,17,9,1.289,0.85,-0.2538,-0.4594,0.0423
0.009,0.005,-0.008,0,0,0,0,2018,4,25,17,9,1.308,0.8493,-0.2525,-0.4616,0.042
0.005,0.007,-0.003,0,0,0,0,2018,4,25,17,9,1.344,0.8487,-0.2512,-0.4634,0.0419
0.005,0.006,-0.005,0,0,0,1023,2018,4,25,17,9,1.364,0.8481,-0.2502,-0.465,0.0418
0.008,0.007,-0.006,0,0,0,1023,2018,4,25,17,9,1.369,0.8475,-0.249,-0.4667,0.0416
0.006,0.008,-0.005,0,0,0,1023,2018,4,25,17,9,1.407,0.847,-0.2477,-0.4684,0.0415
0.002,0.013,-0.01,0,0,0,1023,2018,4,25,17,9,1.427,0.8464,-0.2466,-0.4701,0.0414
0.004,0.011,-0.003,0,0,0,1023,2018,4,25,17,9,1.431,0.8459,-0.2453,-0.4717,0.0414
0.004,0.01,-0.007,0,0,0,1023,2018,4,25,17,9,1.448,0.8454,-0.244,-0.4731,0.0413
0.005,0.004,-0.007,0,0,0,1023,2018,4,25,17,9,1.487,0.8451,-0.2428,-0.4744,0.0413
0.005,0.013,-0.003,-0.1,-0.6,-0.1,1023,2018,4,25,17,9,1.506,0.8447,-0.2418,-0.4755,0.0413
0.005,0.011,-0.005,-0.2,-0.9,-0.1,1023,2018,4,25,17,9,1.511,0.8442,-0.241,-0.4768,0.0413
0.005,0.006,-0.006,-0.5,-1.1,-0.2,1023,2018,4,25,17,9,1.53,0.844,-0.2402,-0.4777,0.0413
0.004,0.005,0,-0.5,-1.1,-0.1,1023,2018,4,25,17,9,1.549,0.8436,-0.2394,-0.4787,0.0413
0.006,0.004,-0.004,-0.5,-1.1,0,1023,2018,4,25,17,9,1.589,0.8432,-0.2387,-0.4798,0.0413
0.009,0.005,-0.007,-0.5,-0.9,-0.1,1023,2018,4,25,17,9,1.61,0.843,-0.2381,-0.4805,0.0414
0.007,0.007,-0.011,-0.7,-0.3,0,1023,2018,4,25,17,9,1.614,0.8427,-0.2374,-0.4813,0.0415
0.008,0.011,-0.006,-0.5,-0.3,0,1023,2018,4,25,17,9,1.632,0.8425,-0.2367,-0.4819,0.0416
0.004,0.008,-0.012,-0.4,-0.6,0,1023,2018,4,25,17,9,1.651,0.8422,-0.2359,-0.4829,0.0417
0.002,0.011,-0.006,-0.6,-0.9,-0.1,1023,2018,4,25,17,9,1.688,0.8418,-0.2353,-0.4839,0.0418
0.004,0.006,-0.007,-0.7,-0.5,-0.2,1023,2018,4,25,17,9,1.707,0.8415,-0.2346,-0.4848,0.0419
0.005,0.006,-0.003,-0.5,0,-0.1,1023,2018,4,25,17,9,1.711,0.8412,-0.2337,-0.4856,0.0421
0.007,0.006,-0.006,-0.5,0,-0.1,1023,2018,4,25,17,9,1.749,0.8409,-0.233,-0.4864,0.0423
0.007,0.007,-0.008,-0.5,-0.2,0,0,2018,4,25,17,9,1.754,0.8408,-0.2324,-0.4869,0.0425
0.004,0.009,-0.008,-0.3,-0.6,0,0,2018,4,25,17,9,1.769,0.8406,-0.2316,-0.4876,0.0427
0.006,0.014,-0.003,-0.4,-0.8,0,0,2018,4,25,17,9,1.807,0.8404,-0.2311,-0.4882,0.0429
0.003,0.011,-0.001,-0.4,-1.6,-0.1,0,2018,4,25,17,9,1.828,0.8403,-0.2307,-0.4886,0.0431
0.003,0.006,-0.008,0,-2.3,-0.1,0,2018,4,25,17,9,1.831,0.8401,-0.2303,-0.4891,0.0432
0.008,0.007,-0.009,-0.1,-2.8,-0.1,0,2018,4,25,17,9,1.867,0.8399,-0.2302,-0.4895,0.0433
0.008,0.002,-0.009,0,-3.2,-0.3,0,2018,4,25,17,9,1.889,0.8396,-0.2301,-0.4899,0.0434
0.01,0.001,-0.009,0.2,-3,-0.3,0,2018,4,25,17,9,1.891,0.8392,-0.2299,-0.4906,0.0435
0.013,0.003,-0.009,0.2,-2.7,-0.3,0,2018,4,25,17,9,1.928,0.8389,-0.23,-0.4911,0.0437
0.007,0.001,-0.006,0.2,-2.5,-0.3,0,2018,4,25,17,9,1.95,0.8385,-0.23,-0.4918,0.0439
0.001,-0.013,0.003,0.1,-2.4,-0.8,0,2018,4,25,17,9,1.953,0.8381,-0.2299,-0.4926,0.0441
0.003,-0.015,-0.004,0,-1.7,-1.8,0,2018,4,25,17,9,1.972,0.8379,-0.23,-0.4929,0.0445
0.003,-0.01,0.002,-0.1,-0.4,-2.3,0,2018,4,25,17,9,1.991,0.8376,-0.23,-0.4932,0.0452
0,-0.014,0.015,-0.4,-0.2,-3.5,0,2018,4,25,17,9,2.028,0.8374,-0.2297,-0.4936,0.0459
-0.009,-0.013,0.016,-0.8,0.1,-4.6,0,2018,4,25,17,9,2.049,0.8374,-0.2297,-0.4937,0.0469
0.007,0.003,0.004,-1.3,1.3,-5.3,0,2018,4,25,17,9,2.053,0.8374,-0.2293,-0.4937,0.048
0.018,0.03,-0.011,-0.7,-0.3,-5.4,1023,2018,4,25,17,9,2.093,0.8374,-0.2291,-0.4936,0.0492
0.027,0.018,-0.022,0.6,-5.2,-5.5,1023,2018,4,25,17,9,2.114,0.8373,-0.2297,-0.4935,0.0502
0.021,0,-0.013,1.7,-6.6,-5.4,1023,2018,4,25,17,9,2.118,0.8367,-0.2306,-0.4939,0.051
0.02,0.002,-0.011,1.8,-2.3,-4.5,1023,2018,4,25,17,9,2.136,0.8361,-0.2312,-0.4947,0.0518
0.012,0.018,-0.011,1.9,2.1,-3,1023,2018,4,25,17,9,2.158,0.8358,-0.231,-0.4951,0.0529
0.008,0.025,-0.008,2.3,2.5,-2.8,1023,2018,4,25,17,9,2.177,0.8357,-0.2302,-0.4956,0.054
-0.009,0.027,-0.01,2.3,1.4,-2.6,1023,2018,4,25,17,9,2.216,0.8355,-0.2295,-0.496,0.055
-0.012,0.028,-0.016,2.5,0.4,-2.6,1023,2018,4,25,17,9,2.237,0.8353,-0.229,-0.4966,0.0559
-0.008,0.025,-0.016,2.8,-1.7,-2.5,1023,2018,4,25,17,9,2.242,0.8349,-0.2285,-0.4973,0.0566
-0.005,0.018,-0.012,3.1,-4.2,-2.3,1023,2018,4,25,17,9,2.256,0.8344,-0.2286,-0.498,0.0572
0.002,0.009,-0.01,3.6,-5.7,-2.2,1023,2018,4,25,17,9,2.292,0.8338,-0.2291,-0.4989,0.0576
0.011,0.013,-0.018,4.2,-5.5,-1.7,0,2018,4,25,17,9,2.313,0.833,-0.2295,-0.4999,0.0579
0.022,0.013,-0.018,5.4,-4.6,-0.8,0,2018,4,25,17,9,2.317,0.8323,-0.2298,-0.5009,0.0584
0.035,0.021,-0.026,7,-3.6,0.1,0,2018,4,25,17,9,2.336,0.8315,-0.2299,-0.5021,0.0588
0.041,0.018,-0.016,8.6,-3.1,1.2,0,2018,4,25,17,9,2.373,0.8308,-0.2296,-0.5034,0.0593
0.043,0.023,-0.011,10.1,-4.2,2.6,0,2018,4,25,17,9,2.394,0.8299,-0.2295,-0.5049,0.0596
0.038,0.023,0.007,11.7,-5.8,3.4,0,2018,4,25,17,9,2.398,0.8289,-0.2294,-0.5064,0.0598
0.04,0.019,-0.007,13,-7.7,4.5,0,2018,4,25,17,9,2.417,0.8276,-0.2294,-0.5086,0.0595
0.041,0.017,-0.016,14.5,-8.1,6.2,0,2018,4,25,17,9,2.437,0.8262,-0.2297,-0.5108,0.0592
0.037,0.012,-0.011,15.8,-8.6,7.7,0,2018,4,25,17,9,2.455,0.8246,-0.2298,-0.5134,0.0586
0.03,0.001,-0.003,17.2,-8.5,8.8,0,2018,4,25,17,9,2.476,0.823,-0.2299,-0.516,0.058
0.031,0.007,0.004,17.9,-7.5,9.2,0,2018,4,25,17,9,2.496,0.8211,-0.2297,-0.5192,0.0572
0.03,0,0.011,18.6,-6.4,9.3,0,2018,4,25,17,9,2.515,0.8193,-0.2294,-0.5223,0.0565
0.034,0.003,0.006,19.8,-5.1,9,0,2018,4,25,17,9,2.553,0.8175,-0.229,-0.5253,0.0561
0.032,0.006,0,21,-4.4,8.6,0,2018,4,25,17,9,2.574,0.8157,-0.2284,-0.5284,0.0559
0.027,0.009,-0.011,22,-2.4,8.5,0,2018,4,25,17,9,2.578,0.8138,-0.2276,-0.5316,0.0558
0.023,0.01,-0.011,22.7,-1.3,8.7,0,2018,4,25,17,9,2.616,0.8119,-0.2267,-0.5349,0.056
0.017,0.005,-0.009,24.2,-1,8.1,0,2018,4,25,17,9,2.636,0.8099,-0.2258,-0.5382,0.0563
0.011,-0.002,-0.006,25.4,0.2,7.2,0,2018,4,25,17,9,2.641,0.8079,-0.2248,-0.5416,0.0568
0.015,-0.014,-0.022,26.3,2.4,6.6,0,2018,4,25,17,9,2.661,0.8058,-0.2235,-0.5452,0.0577
0.003,-0.006,-0.032,27.3,6.9,6.6,0,2018,4,25,17,9,2.677,0.8038,-0.2219,-0.5487,0.059
0.01,0.009,-0.021,28.9,6.8,6.6,0,2018,4,25,17,9,2.712,0.8017,-0.22,-0.5524,0.0606
0.013,0.023,-0.031,30.6,4.3,6.3,0,2018,4,25,17,9,2.733,0.7993,-0.2179,-0.5564,0.062
0.025,0.013,-0.04,33.6,0.7,7.1,0,2018,4,25,17,9,2.737,0.7966,-0.2162,-0.5608,0.0632
0.032,0.018,-0.012,38.6,-3.1,7.4,1023,2018,4,25,17,9,2.757,0.7934,-0.2149,-0.5658,0.064
0.031,-0.026,0.016,42.4,-3,7.9,1023,2018,4,25,17,9,2.778,0.7898,-0.2139,-0.571,0.0649
0.028,-0.036,0.037,43.1,-1.3,7.9,1023,2018,4,25,17,9,2.813,0.7861,-0.2127,-0.5765,0.0661
0.054,-0.002,0.052,44,-0.2,8.7,1023,2018,4,25,17,9,2.835,0.7825,-0.2111,-0.5817,0.0674
0.071,-0.019,0.055,45,-0.9,12.9,1023,2018,4,25,17,9,2.84,0.7789,-0.2093,-0.587,0.0684
0.056,-0.062,0.051,46.4,0.1,18.2,1023,2018,4,25,17,9,2.88,0.7753,-0.2071,-0.5925,0.0689
0.014,-0.109,0.074,50.3,12.9,24.5,1023,2018,4,25,17,9,2.885,0.768,-0.1998,-0.6043,0.0701
-0.008,-0.103,0.09,51.7,23.6,27.3,1023,2018,4,25,17,9,2.901,0.7645,-0.194,-0.6104,0.0716
-0.036,-0.1,0.113,53,31.6,27.8,1023,2018,4,25,17,9,2.94,0.7612,-0.1866,-0.6166,0.0737
0,-0.016,0.069,55.3,29.1,28.4,1023,2018,4,25,17,9,2.96,0.7579,-0.1782,-0.6228,0.0759
-0.008,0.042,0.047,58,21.6,31.5,1023,2018,4,25,17,9,2.964,0.754,-0.1703,-0.6296,0.077
0.03,0.075,0.049,59.2,17.1,34.2,1023,2018,4,25,17,9,2.979,0.7498,-0.1626,-0.6366,0.077
0.04,0.113,0.059,60.8,5.5,36.3,1023,2018,4,25,17,9,3.019,0.7445,-0.155,-0.6449,0.075
0.036,0.114,0.08,60.8,-6.8,39.3,1023,2018,4,25,17,9,3.038,0.7373,-0.1483,-0.6552,0.0704
0.039,0.075,0.069,61.2,-22.9,41.5,1023,2018,4,25,17,9,3.042,0.7305,-0.1435,-0.6644,0.0643
0.034,0.055,0.013,63.1,-34.2,44.6,1023,2018,4,25,17,9,3.06,0.7249,-0.1413,-0.6716,0.0578
0.004,0.045,-0.049,66.4,-38,49.4,1023,2018,4,25,17,9,3.081,0.7182,-0.1397,-0.6797,0.05
-0.024,0.055,-0.066,69.9,-38.3,55.1,0,2018,4,25,17,9,3.119,0.7107,-0.1377,-0.6886,0.0413
-0.014,0.062,-0.058,72.8,-38,60.6,0,2018,4,25,17,9,3.139,0.7027,-0.1349,-0.6977,0.032
-0.021,0.07,-0.052,75.3,-38.3,66.8,0,2018,4,25,17,9,3.144,0.6943,-0.1315,-0.7071,0.022
-0.11,0.061,-0.049,76.6,-35.6,73,0,2018,4,25,17,9,3.18,0.6856,-0.1271,-0.7166,0.0114
-0.157,0.065,-0.043,77.3,-37.2,77.9,0,2018,4,25,17,9,3.2,0.6765,-0.1218,-0.7262,0.0002
-0.167,0.07,-0.036,76.9,-44.5,81,0,2018,4,25,17,9,3.202,0.6672,-0.1166,-0.7355,-0.0119
-0.169,0.084,-0.038,74.7,-54.9,84.8,0,2018,4,25,17,9,3.234,0.6576,-0.112,-0.7444,-0.0259
-0.272,0.015,-0.027,70.3,-52.3,87.7,0,2018,4,25,17,9,3.256,0.6481,-0.1079,-0.7527,-0.0407
-0.329,-0.051,-0.025,61.6,-37.2,89.9,0,2018,4,25,17,9,3.259,0.6395,-0.1025,-0.7599,-0.0542
-0.34,-0.088,-0.064,54.5,-18.5,89.1,0,2018,4,25,17,9,3.298,0.6319,-0.0955,-0.7662,-0.0653
-0.358,-0.138,-0.072,47.3,5.7,85.2,0,2018,4,25,17,9,3.318,0.6253,-0.0866,-0.772,-0.0731
-0.335,-0.123,-0.041,40.7,37.1,82.1,0,2018,4,25,17,9,3.323,0.6203,-0.0755,-0.7769,-0.0763
-0.271,0.003,-0.018,34.2,41.6,73,0,2018,4,25,17,9,3.359,0.6164,-0.0619,-0.7812,-0.0769
-0.252,-0.045,0.011,26.5,35.9,57.7,0,2018,4,25,17,9,3.379,0.6136,-0.0507,-0.7841,-0.0768
-0.162,-0.004,-0.001,19.8,36.2,41.3,0,2018,4,25,17,9,3.381,0.612,-0.0417,-0.7861,-0.0751
-0.113,0.022,-0.006,10.5,24.9,22.6,0,2018,4,25,17,9,3.415,0.6115,-0.0356,-0.787,-0.0726
-0.072,0.011,-0.005,-0.8,16.2,9.4,1023,2018,4,25,17,9,3.435,0.6125,-0.0326,-0.7866,-0.07
-0.023,0.158,-0.005,-6.3,-11.7,1.4,1023,2018,4,25,17,9,3.44,0.6149,-0.0322,-0.7849,-0.0691
0.004,0.097,-0.062,-8.9,-48.7,-7.3,1023,2018,4,25,17,9,3.474,0.6165,-0.0363,-0.783,-0.073
-0.007,-0.02,-0.028,-15.4,-52.3,-13.6,1023,2018,4,25,17,9,3.495,0.6192,-0.0447,-0.78,-0.0778
0.056,-0.025,-0.013,-22.2,-34.2,-15.9,1023,2018,4,25,17,9,3.502,0.6233,-0.0527,-0.776,-0.0803
0.109,0.043,-0.015,-24.9,-29.6,-18.6,1023,2018,4,25,17,9,3.537,0.6279,-0.0594,-0.7716,-0.0811
0.129,0.056,-0.041,-26.2,-48.5,-19.8,1023,2018,4,25,17,9,3.558,0.637,-0.0748,-0.7623,-0.0853
0.134,0.067,-0.036,-25.9,-57,-20.6,1023,2018,4,25,17,9,3.564,0.6411,-0.0841,-0.7575,-0.0892
0.148,0.079,-0.052,-26.4,-66.6,-19.2,1023,2018,4,25,17,9,3.598,0.6449,-0.0942,-0.7525,-0.0944
0.155,0.077,-0.06,-25.7,-72.2,-17.3,1023,2018,4,25,17,9,3.621,0.6481,-0.1051,-0.7474,-0.1009
0.145,0.062,-0.069,-25.1,-69.9,-14.7,1023,2018,4,25,17,9,3.624,0.651,-0.1158,-0.7423,-0.1077
0.127,0.045,-0.071,-24.7,-63,-11.7,1023,2018,4,25,17,9,3.659,0.6537,-0.126,-0.7373,-0.1139
0.11,0.037,-0.071,-24.5,-52.7,-8.8,1023,2018,4,25,17,9,3.681,0.6563,-0.1348,-0.7326,-0.1192
0.113,0.041,-0.073,-24.3,-44.7,-6.2,1023,2018,4,25,17,9,3.683,0.6589,-0.1421,-0.7281,-0.1236
0.121,0.047,-0.075,-23,-39.9,-4.7,1023,2018,4,25,17,9,3.718,0.6614,-0.1484,-0.7239,-0.1275
0.118,0.07,-0.068,-21.5,-39.1,-3.8,1023,2018,4,25,17,9,3.738,0.6637,-0.1542,-0.72,-0.1312
0.109,0.077,-0.055,-19.5,-40.8,-3.1,0,2018,4,25,17,9,3.746,0.6656,-0.1599,-0.7162,-0.1352
0.112,0.077,-0.039,-17.3,-44.3,-2,0,2018,4,25,17,9,3.764,0.6671,-0.1659,-0.7126,-0.1396
0.105,0.062,-0.029,-15.8,-46.7,-0.2,0,2018,4,25,17,9,3.783,0.6683,-0.1722,-0.709,-0.1444
0.105,0.053,-0.024,-14.7,-46.9,1.7,0,2018,4,25,17,9,3.819,0.6693,-0.1782,-0.7055,-0.1497
0.095,0.042,-0.023,-13.8,-44.9,3.8,0,2018,4,25,17,9,3.841,0.67,-0.1841,-0.7022,-0.1549
0.087,0.036,-0.021,-13.2,-40.3,6.5,0,2018,4,25,17,9,3.843,0.6707,-0.1892,-0.699,-0.16
0.087,0.023,-0.02,-12.9,-33.6,8.5,0,2018,4,25,17,9,3.879,0.6714,-0.1935,-0.6961,-0.1645
0.099,0.028,-0.011,-12.8,-28.2,10.1,0,2018,4,25,17,9,3.899,0.6723,-0.1967,-0.6933,-0.1686
0.092,0.029,-0.019,-12.3,-25.3,11.8,0,2018,4,25,17,9,3.908,0.6733,-0.1991,-0.6907,-0.1726
0.077,0.024,-0.014,-11.3,-22.2,14.6,0,2018,4,25,17,9,3.942,0.6742,-0.2009,-0.6884,-0.1764
0.057,0.011,-0.004,-10.6,-20.5,17.7,0,2018,4,25,17,9,3.963,0.675,-0.202,-0.6863,-0.1802
0.052,0,0.009,-9.7,-17.8,21.3,0,2018,4,25,17,9,3.964,0.6757,-0.2026,-0.6844,-0.1841
0.052,-0.007,0.003,-9.2,-17.3,24.6,0,2018,4,25,17,9,3.996,0.6763,-0.2026,-0.6826,-0.1882
0.035,-0.017,-0.004,-8.2,-18.8,26.9,0,2018,4,25,17,9,4.017,0.6766,-0.2025,-0.6812,-0.1926
0.023,-0.031,-0.008,-7.4,-19.7,28,0,2018,4,25,17,9,4.025,0.6766,-0.2024,-0.6798,-0.1973
0.015,-0.042,-0.008,-6.8,-20.6,28.4,0,2018,4,25,17,9,4.066,0.6765,-0.2023,-0.6785,-0.2021
0.012,-0.062,-0.006,-6.3,-20.4,27.4,0,2018,4,25,17,9,4.085,0.6763,-0.2025,-0.6772,-0.2068
0.008,-0.075,-0.009,-5.5,-18.7,25.6,0,2018,4,25,17,9,4.089,0.6761,-0.2028,-0.6761,-0.2111
0,-0.088,-0.015,-4.8,-17.4,21.8,1023,2018,4,25,17,9,4.124,0.6759,-0.2034,-0.6749,-0.2148
-0.004,-0.095,-0.011,-3.8,-14.5,17.3,1023,2018,4,25,17,9,4.143,0.6759,-0.2043,-0.6737,-0.2176
-0.005,-0.099,-0.024,-3.2,-10.3,11.8,1023,2018,4,25,17,9,4.148,0.676,-0.2055,-0.6727,-0.2194
-0.01,-0.105,-0.02,-2.4,-4.9,6.2,1023,2018,4,25,17,9,4.183,0.6764,-0.2068,-0.6717,-0.2199
-0.01,-0.109,-0.024,-1.9,1.2,1,1023,2018,4,25,17,9,4.202,0.6771,-0.2081,-0.6709,-0.2191
-0.01,-0.103,-0.017,-1.4,7.3,-3.7,1023,2018,4,25,17,9,4.209,0.6782,-0.2092,-0.6701,-0.2169
-0.007,-0.09,-0.017,-1,10.2,-8.1,1023,2018,4,25,17,9,4.242,0.6796,-0.2102,-0.6694,-0.2138
0.003,-0.077,-0.015,-0.7,10,-12.4,1023,2018,4,25,17,9,4.263,0.681,-0.2115,-0.6687,-0.21
-0.004,-0.056,-0.013,-0.1,7.8,-16.5,1023,2018,4,25,17,9,4.267,0.6826,-0.2133,-0.6678,-0.206
-0.014,-0.043,-0.009,0,3.6,-19.5,1023,2018,4,25,17,9,4.305,0.684,-0.2159,-0.6668,-0.2021
-0.015,-0.038,-0.012,0.1,-0.5,-21.7,1023,2018,4,25,17,9,4.325,0.6853,-0.2191,-0.6655,-0.1985
-0.011,-0.024,-0.009,0.4,-3.8,-22.8,1023,2018,4,25,17,9,4.327,0.6864,-0.2229,-0.664,-0.1951
0,-0.026,-0.002,1,-5.4,-23.1,1023,2018,4,25,17,9,4.365,0.6874,-0.2271,-0.6625,-0.192
0.006,-0.018,0.003,1.9,-4.4,-23.1,1023,2018,4,25,17,9,4.388,0.6883,-0.2312,-0.661,-0.1889
0.002,-0.014,0.004,2.7,-1.2,-22.5,1023,2018,4,25,17,9,4.392,0.6892,-0.235,-0.6597,-0.1856
-0.004,-0.006,0.007,3.3,3.6,-21.8,1023,2018,4,25,17,9,4.43,0.6901,-0.2382,-0.6586,-0.182
-0.007,0.004,0.015,3.8,8.5,-20.8,0,2018,4,25,17,9,4.452,0.6911,-0.2406,-0.6577,-0.1779
-0.005,0.015,0.019,4.2,13.1,-19.2,0,2018,4,25,17,9,4.456,0.6923,-0.2422,-0.6571,-0.1735
-0.007,0.031,0.023,3.8,16.8,-18,0,2018,4,25,17,9,4.474,0.6934,-0.243,-0.6568,-0.1689
-0.011,0.04,0.025,3.4,18.8,-16.2,0,2018,4,25,17,9,4.494,0.6947,-0.2432,-0.6566,-0.1643
-0.011,0.049,0.024,3,19.6,-14.1,0,2018,4,25,17,9,4.511,0.6959,-0.2429,-0.6565,-0.1598
-0.012,0.052,0.033,2.4,19.4,-12,0,2018,4,25,17,9,4.53,0.6973,-0.2422,-0.6563,-0.1557
-0.01,0.063,0.03,1.7,17.9,-9.7,0,2018,4,25,17,9,4.562,0.6987,-0.2413,-0.656,-0.152
-0.013,0.071,0.033,0.9,15.1,-7.7,0,2018,4,25,17,9,4.584,0.6999,-0.2403,-0.6557,-0.1489
-0.005,0.071,0.03,0.2,12.3,-5.5,0,2018,4,25,17,9,4.593,0.7011,-0.2394,-0.6554,-0.1465
-0.002,0.069,0.022,-0.1,9.7,-3.3,0,2018,4,25,17,9,4.626,0.7021,-0.2385,-0.655,-0.1447
-0.002,0.067,0.023,-1.1,7.2,-0.6,0,2018,4,25,17,9,4.646,0.703,-0.2376,-0.6546,-0.1435
0,0.063,0.019,-1.9,5.1,1.8,0,2018,4,25,17,9,4.651,0.7039,-0.2368,-0.6542,-0.1429
0.004,0.059,0.015,-2.6,2.1,3.8,0,2018,4,25,17,9,4.687,0.7046,-0.2359,-0.6537,-0.1429
0.006,0.053,0.004,-3.2,-0.9,5.5,0,2018,4,25,17,9,4.706,0.7052,-0.2353,-0.6532,-0.1435
0.007,0.047,0,-3.6,-3,7.1,0,2018,4,25,17,9,4.714,0.7056,-0.2348,-0.6526,-0.1445
0.001,0.034,-0.005,-3.6,-4.3,8.6,0,2018,4,25,17,9,4.73,0.7059,-0.2345,-0.6521,-0.1458
0.005,0.028,-0.005,-3.6,-4.8,10.1,0,2018,4,25,17,9,4.769,0.7061,-0.2341,-0.6516,-0.1474
0,0.021,-0.009,-3.4,-4.8,11.1,0,2018,4,25,17,9,4.787,0.7063,-0.2337,-0.6512,-0.1491
0.004,0.013,-0.023,-3.2,-5.6,11.7,1023,2018,4,25,17,9,4.792,0.7063,-0.2333,-0.6509,-0.1509
0,0.008,-0.022,-2.9,-6.6,11.9,1023,2018,4,25,17,9,4.83,0.7063,-0.233,-0.6507,-0.1528
0.005,0.002,-0.021,-2.2,-7.5,12.2,1023,2018,4,25,17,9,4.85,0.7061,-0.2329,-0.6504,-0.1548
0.005,-0.008,-0.022,-1.7,-7.9,12.3,1023,2018,4,25,17,9,4.853,0.7058,-0.2329,-0.6502,-0.1568
0.012,-0.016,-0.02,-0.9,-7.4,12.4,1023,2018,4,25,17,9,4.886,0.7055,-0.233,-0.6501,-0.1587
0.016,-0.021,-0.024,-0.2,-6.5,12.4,1023,2018,4,25,17,9,4.906,0.7051,-0.233,-0.6501,-0.1605
0.01,-0.031,-0.025,0.6,-5.1,12.1,1023,2018,4,25,17,9,4.915,0.7046,-0.233,-0.6502,-0.1621
0.011,-0.036,-0.015,1.3,-2.8,12.1,1023,2018,4,25,17,9,4.948,0.7042,-0.2328,-0.6505,-0.1633
0.011,-0.036,-0.01,1.9,-1,11.6,1023,2018,4,25,17,9,4.969,0.7038,-0.2323,-0.6508,-0.1643
0.007,-0.039,-0.012,2.2,-0.2,10.8,1023,2018,4,25,17,9,4.975,0.7035,-0.2318,-0.6511,-0.165
0.006,-0.039,-0.008,2.2,-0.6,9.8,1023,2018,4,25,17,9,5.011,0.7031,-0.2314,-0.6515,-0.1656
0.008,-0.039,-0.002,2.4,-1.7,8.5,1023,2018,4,25,17,9,5.03,0.7028,-0.2312,-0.6518,-0.1662
0.007,-0.041,0.003,2.7,-2.5,7.1,1023,2018,4,25,17,9,5.033,0.7025,-0.2313,-0.6519,-0.1666
0.001,-0.044,0.004,2.8,-2.9,5.4,1023,2018,4,25,17,9,5.071,0.7023,-0.2316,-0.652,-0.167
-0.001,-0.049,0.004,3.1,-2.4,3.5,1023,2018,4,25,17,9,5.092,0.702,-0.2322,-0.6521,-0.167
-0.002,-0.054,0.013,3.1,-1.4,1.7,1023,2018,4,25,17,9,5.094,0.7018,-0.2329,-0.6521,-0.1668
0,-0.048,0.013,3,-0.3,0.1,0,2018,4,25,17,9,5.129,0.7018,-0.2335,-0.652,-0.1663
0.005,-0.043,0.012,3,1,-1.4,0,2018,4,25,17,9,5.148,0.7018,-0.2342,-0.6519,-0.1654
0.005,-0.033,0.013,2.7,1.4,-2.8,0,2018,4,25,17,9,5.155,0.702,-0.2349,-0.6518,-0.1643
-0.005,-0.033,0.012,2.4,1.2,-3.9,0,2018,4,25,17,9,5.189,0.7022,-0.2357,-0.6516,-0.1631
-0.002,-0.028,0.019,2.2,1,-4.7,0,2018,4,25,17,9,5.209,0.7025,-0.2366,-0.6513,-0.1619
0.001,-0.022,0.019,2,1.3,-5.4,0,2018,4,25,17,9,5.218,0.7028,-0.2374,-0.6509,-0.1606
0.001,-0.016,0.019,1.7,2,-6.1,0,2018,4,25,17,9,5.254,0.7032,-0.2383,-0.6505,-0.1592
0.002,-0.01,0.014,1.3,2.9,-6.5,0,2018,4,25,17,9,5.272,0.7037,-0.2391,-0.6501,-0.1577
-0.004,-0.001,0.019,1.1,3.7,-6.6,0,2018,4,25,17,9,5.275,0.7042,-0.2397,-0.6497,-0.1562
-0.003,0.002,0.022,0.7,4.1,-6.2,0,2018,4,25,17,9,5.313,0.7047,-0.2402,-0.6493,-0.1546
0,0.007,0.018,0.5,3.8,-5.7,0,2018,4,25,17,9,5.332,0.7053,-0.2406,-0.6489,-0.1532
0.002,0.017,0.019,0,3.2,-5.3,0,2018,4,25,17,9,5.335,0.7059,-0.2409,-0.6484,-0.152
0.001,0.019,0.016,-0.3,1.9,-5,0,2018,4,25,17,9,5.372,0.7064,-0.2412,-0.6479,-0.1509
0,0.018,0.01,-0.6,1.4,-4.5,0,2018,4,25,17,9,5.394,0.7069,-0.2416,-0.6475,-0.1501
0.002,0.017,0.009,-0.6,1.2,-3.9,0,2018,4,25,17,9,5.397,0.7073,-0.242,-0.647,-0.1493
0,0.02,0.002,-0.5,0.8,-3.4,0,2018,4,25,17,9,5.435,0.7077,-0.2424,-0.6466,-0.1486
0,0.014,0.003,-0.5,0.8,-2.5,0,2018,4,25,17,9,5.454,0.7081,-0.2427,-0.6463,-0.1481
0.001,0.016,-0.004,-0.5,0.6,-1.8,0,2018,4,25,17,9,5.461,0.7084,-0.2429,-0.646,-0.1476
0.003,0.018,-0.003,-0.5,0.4,-0.9,1023,2018,4,25,17,9,5.477,0.7086,-0.2431,-0.6457,-0.1473
0.004,0.015,0,-0.5,0,-0.4,1023,2018,4,25,17,9,5.513,0.7088,-0.2432,-0.6455,-0.1471
0.003,0.014,-0.007,-0.6,-0.6,0,1023,2018,4,25,17,9,5.532,0.7089,-0.2434,-0.6453,-0.147
0.003,0.012,-0.003,-0.3,-1.2,0,1023,2018,4,25,17,9,5.536,0.709,-0.2436,-0.6451,-0.147
0,0.01,-0.005,-0.1,-1.2,0.4,1023,2018,4,25,17,9,5.57,0.7091,-0.2438,-0.6449,-0.147
-0.003,0.009,-0.001,0,-1.4,0.6,1023,2018,4,25,17,9,5.59,0.7091,-0.2441,-0.6448,-0.147
-0.003,0.005,-0.004,0.5,-1.9,0.8,1023,2018,4,25,17,9,5.599,0.7091,-0.2444,-0.6447,-0.1472
0,0.001,-0.001,0.7,-1.4,0.7,1023,2018,4,25,17,9,5.633,0.709,-0.2447,-0.6447,-0.1472
0.003,0.003,0,0.9,-0.7,0.4,1023,2018,4,25,17,9,5.652,0.709,-0.2449,-0.6446,-0.1472
-0.002,0.003,0,0.8,-0.7,0.2,1023,2018,4,25,17,9,5.658,0.709,-0.2451,-0.6445,-0.1471
-0.005,0.007,0.001,0.3,-1.1,0.2,1023,2018,4,25,17,9,5.694,0.709,-0.2454,-0.6445,-0.1471
-0.002,0.005,0.008,0.2,-1.6,0.4,1023,2018,4,25,17,9,5.713,0.709,-0.2457,-0.6443,-0.1471
0.003,0,0.007,0,-2.5,0.5,1023,2018,4,25,17,9,5.722,0.7091,-0.246,-0.6441,-0.1473
0,0.001,0.003,-0.1,-2.9,0.5,1023,2018,4,25,17,9,5.757,0.7091,-0.2464,-0.6438,-0.1475
-0.002,-0.002,0,-0.2,-2.9,0.1,1023,2018,4,25,17,9,5.778,0.7091,-0.2469,-0.6436,-0.1477
-0.005,-0.004,-0.001,-0.2,-2,0,1023,2018,4,25,17,9,5.781,0.7092,-0.2474,-0.6433,-0.1478
0,-0.004,0,0,-0.9,0,1023,2018,4,25,17,9,5.816,0.7092,-0.2478,-0.6431,-0.1478
0.005,0,0.004,0,0,0,0,2018,4,25,17,9,5.836,0.7093,-0.248,-0.6429,-0.1477
0.009,0.003,0,-0.1,-0.5,-0.2,0,2018,4,25,17,9,5.839,0.7094,-0.2482,-0.6428,-0.1475
0.004,0.006,0,-0.1,-0.5,-0.1,0,2018,4,25,17,9,5.875,0.7095,-0.2484,-0.6426,-0.1475
0.002,0.002,-0.002,0,0,0,0,2018,4,25,17,9,5.895,0.7096,-0.2486,-0.6425,-0.1473
-0.002,0.004,-0.005,0,0,0,0,2018,4,25,17,9,5.9,0.7097,-0.2487,-0.6424,-0.1472
-0.003,0.006,-0.005,0,0,0,0,2018,4,25,17,9,5.936,0.7097,-0.2488,-0.6423,-0.1471
-0.002,0.002,-0.007,0.4,-0.3,0.8,0,2018,4,25,17,9,5.957,0.7097,-0.2489,-0.6423,-0.147
-0.006,0.003,-0.007,0.6,-0.1,0.7,0,2018,4,25,17,9,5.963,0.7097,-0.249,-0.6424,-0.147
0,0.004,-0.005,0.8,-0.2,0.7,0,2018,4,25,17,9,5.996,0.7096,-0.249,-0.6424,-0.147
0.002,0.002,-0.002,0.8,-0.3,1,0,2018,4,25,17,9,6.016,0.7095,-0.2491,-0.6425,-0.147
0.001,0.003,0,0.8,-0.5,1,0,2018,4,25,17,9,6.021,0.7094,-0.2492,-0.6425,-0.147
0.002,0.002,0,0.8,-0.4,1,0,2018,4,25,17,9,6.039,0.7094,-0.2492,-0.6425,-0.147
0.001,0,-0.003,0.6,-0.3,1.1,0,2018,4,25,17,9,6.06,0.7094,-0.2493,-0.6426,-0.147
0,-0.001,-0.002,0.9,0,1.2,0,2018,4,25,17,9,6.081,0.7093,-0.2493,-0.6426,-0.147
0.002,-0.002,-0.002,1.1,0.4,1.2,0,2018,4,25,17,9,6.114,0.7093,-0.2493,-0.6427,-0.1469
-0.002,0.001,-0.003,1.4,0.4,1.3,0,2018,4,25,17,9,6.135,0.7092,-0.2492,-0.6428,-0.1469
-0.002,0,-0.007,1.7,1,1.6,0,2018,4,25,17,9,6.143,0.709,-0.2491,-0.643,-0.1468
-0.002,0,-0.007,2,1.6,1.8,1023,2018,4,25,17,9,6.176,0.7089,-0.2489,-0.6433,-0.1467
0.001,0.002,-0.009,2.6,2.2,2.1,1023,2018,4,25,17,9,6.196,0.7086,-0.2487,-0.6437,-0.1465
0.005,0.006,-0.014,3,2.7,2.3,1023,2018,4,25,17,9,6.205,0.7083,-0.2483,-0.6442,-0.1462
0.002,0.007,-0.017,3.3,3.8,2.8,1023,2018,4,25,17,9,6.24,0.708,-0.2478,-0.6449,-0.1459
0.004,0.008,-0.023,3.5,5.2,3.6,1023,2018,4,25,17,9,6.262,0.7076,-0.2471,-0.6456,-0.1456
0.004,0.003,-0.025,3,6.9,4.8,1023,2018,4,25,17,9,6.266,0.7073,-0.246,-0.6465,-0.1451
0.006,0.005,-0.037,2.3,9.3,6.6,1023,2018,4,25,17,9,6.3,0.7071,-0.2446,-0.6474,-0.1447
0.011,0.012,-0.027,2.2,11.3,8,1023,2018,4,25,17,9,6.321,0.7069,-0.2427,-0.6484,-0.1443
0.019,-0.012,-0.009,2.2,16.5,8.9,1023,2018,4,25,17,9,6.322,0.707,-0.2403,-0.6494,-0.1436
0.021,-0.002,0.027,3.1,22.8,9,1023,2018,4,25,17,9,6.356,0.7074,-0.237,-0.6504,-0.142
0,-0.009,0.054,3.3,24.9,10.4,1023,2018,4,25,17,9,6.377,0.7081,-0.2329,-0.6515,-0.1403
0.001,0,0.045,4,23.9,10.2,1023,2018,4,25,17,9,6.384,0.7089,-0.2288,-0.6525,-0.1386
0.004,0.014,0.03,5.2,17.1,8.7,0,2018,4,25,17,9,6.425,0.7093,-0.2252,-0.6536,-0.1372
0.015,-0.007,0.015,6.6,10.8,7.7,0,2018,4,25,17,9,6.445,0.7092,-0.2228,-0.6547,-0.1364
0.014,-0.011,0.014,7.7,8.7,7,0,2018,4,25,17,9,6.449,0.7087,-0.2211,-0.656,-0.1358
0.014,-0.013,0.008,8.6,8.1,6.5,0,2018,4,25,17,9,6.486,0.708,-0.2196,-0.6573,-0.1351
0.025,-0.013,0.002,9.8,8.1,6.6,0,2018,4,25,17,9,6.505,0.7072,-0.2183,-0.6587,-0.1345
0.037,-0.021,-0.005,11,8.3,6.9,0,2018,4,25,17,9,6.507,0.7063,-0.2169,-0.6604,-0.1338
0.061,-0.03,-0.021,11.9,9.7,7.1,0,2018,4,25,17,9,6.539,0.7051,-0.2156,-0.6622,-0.1328
0.067,-0.02,-0.028,12.3,12.9,7.4,0,2018,4,25,17,9,6.561,0.7039,-0.214,-0.6643,-0.1316
0.069,-0.022,-0.016,13,16,7.7,0,2018,4,25,17,9,6.563,0.7027,-0.212,-0.6665,-0.13
0.067,-0.015,-0.009,13.3,18.8,8,0,2018,4,25,17,9,6.598,0.7016,-0.2095,-0.6688,-0.1281
0.068,-0.017,-0.004,13.6,19.3,8,0,2018,4,25,17,9,6.62,0.7006,-0.2068,-0.6711,-0.1261
0.083,-0.014,-0.01,13.6,17,8,0,2018,4,25,17,9,6.626,0.6996,-0.2041,-0.6733,-0.1242
0.112,-0.025,-0.013,13.2,14.1,7.3,0,2018,4,25,17,9,6.66,0.6984,-0.2019,-0.6755,-0.1225
0.137,-0.029,-0.018,12.7,13.5,5.5,0,2018,4,25,17,9,6.682,0.6972,-0.2002,-0.6775,-0.1208
0.146,-0.029,-0.023,12.1,15.2,2.9,0,2018,4,25,17,9,6.687,0.6961,-0.1987,-0.6795,-0.1187
0.135,-0.015,-0.024,11.2,17.4,-0.9,0,2018,4,25,17,9,6.724,0.6952,-0.1972,-0.6813,-0.1161
0.103,-0.007,-0.024,10.2,17.4,-5.4,0,2018,4,25,17,9,6.743,0.6945,-0.196,-0.6829,-0.1129
0.076,-0.002,-0.04,8,14.1,-10.1,0,2018,4,25,17,9,6.746,0.6939,-0.1954,-0.6842,-0.1094
0.077,0.016,-0.043,6.7,10.8,-15.7,0,2018,4,25,17,9,6.784,0.6934,-0.1959,-0.6852,-0.1059
0.107,0.035,-0.056,5.8,3.1,-22.3,1023,2018,4,25,17,9,6.804,0.6929,-0.1975,-0.6857,-0.1025
0.118,0.039,-0.07,6.3,-3.9,-29.7,1023,2018,4,25,17,9,6.805,0.6921,-0.2009,-0.686,-0.0994
0.108,0.029,-0.06,7.1,-4.5,-35.5,1023,2018,4,25,17,9,6.84,0.6912,-0.2056,-0.6861,-0.0957
0.09,0.034,-0.052,7.9,2,-38.3,1023,2018,4,25,17,9,6.86,0.6904,-0.2105,-0.686,-0.0912
0.038,0.059,-0.038,8.2,11.8,-37.6,1023,2018,4,25,17,9,6.867,0.6899,-0.2142,-0.686,-0.0856
0.001,0.071,-0.047,8.3,20.6,-35.7,1023,2018,4,25,17,9,6.9,0.6897,-0.2164,-0.6863,-0.0792
0.002,0.057,-0.04,8.2,29.1,-31.5,1023,2018,4,25,17,9,6.921,0.6898,-0.2173,-0.6867,-0.0722
0.014,0.072,-0.018,7.2,40.2,-26.7,1023,2018,4,25,17,9,6.928,0.6903,-0.2164,-0.6873,-0.0646
0.051,0.094,-0.011,5.5,52,-22.8,1023,2018,4,25,17,9,6.965,0.6914,-0.2133,-0.6879,-0.0564
0.066,0.068,-0.018,4.4,68,-22,1023,2018,4,25,17,9,6.987,0.693,-0.2084,-0.6884,-0.0467
0.037,0.039,-0.02,3.1,87.7,-23.1,1023,2018,4,25,17,9,6.992,0.6954,-0.2014,-0.6888,-0.0348
-0.038,0.001,-0.013,1.9,110.7,-23.9,1023,2018,4,25,17,9,7.03,0.6985,-0.1921,-0.6889,-0.0199
-0.084,0.033,-0.003,-0.2,129.9,-24.5,1023,2018,4,25,17,9,7.051,0.7024,-0.18,-0.6885,-0.0024
-0.09,0.118,0.006,-1.9,122.9,-27,1023,2018,4,25,17,9,7.052,0.7065,-0.1667,-0.6875,0.0154
-0.071,0.117,0.008,-3.8,101.6,-30.8,0,2018,4,25,17,9,7.088,0.71,-0.1554,-0.686,0.0315
-0.071,0.063,0.019,-5.1,83.7,-34,0,2018,4,25,17,9,7.106,0.7129,-0.1473,-0.684,0.0458
-0.087,0.031,0.024,-6.8,71.2,-35.2,0,2018,4,25,17,9,7.108,0.7154,-0.1416,-0.6816,0.0587
-0.119,0.012,0.022,-9.2,63.5,-34.4,0,2018,4,25,17,9,7.14,0.7178,-0.137,-0.6788,0.0707
-0.04,0.004,-0.051,-5.7,21.6,-32,0,2018,4,25,17,9,7.16,0.7227,-0.135,-0.6701,0.1015
-0.104,-0.121,-0.168,1.9,32.7,-32.5,0,2018,4,25,17,9,7.171,0.7229,-0.1354,-0.6688,0.1082
-0.388,-0.281,0.259,-30.7,74,-27.8,0,2018,4,25,17,9,7.205,0.7249,-0.1327,-0.6654,0.1177
-0.247,-0.197,0.465,-55.4,84.1,-39.7,0,2018,4,25,17,9,7.225,0.7312,-0.1272,-0.6572,0.1309
-0.125,-0.005,0.313,-65.2,61.2,-35.4,0,2018,4,25,17,9,7.233,0.7389,-0.1233,-0.6467,0.1427
-0.074,0.099,0.186,-67.4,31.6,-38.4,0,2018,4,25,17,9,7.271,0.7465,-0.1232,-0.6361,0.1512
-0.023,0.093,0.001,-62.5,-1.2,-33,0,2018,4,25,17,9,7.272,0.7596,-0.1315,-0.6166,0.1594
-0.03,0.066,0.019,-60,-3.2,-31.1,0,2018,4,25,17,9,7.29,0.7653,-0.1363,-0.6078,0.1615
-0.023,0.024,0.029,-60.5,-2.1,-29.7,0,2018,4,25,17,9,7.323,0.771,-0.1412,-0.5989,0.1635
-0.009,-0.002,0.045,-60,-3.4,-28.3,0,2018,4,25,17,9,7.343,0.7766,-0.1461,-0.5899,0.1657
0.004,-0.037,0.058,-60.4,-0.4,-28.3,0,2018,4,25,17,9,7.352,0.7822,-0.1511,-0.5806,0.1679
0.014,-0.031,0.029,-58.6,-0.5,-29.6,0,2018,4,25,17,9,7.385,0.7875,-0.156,-0.5712,0.1706
0.006,-0.046,-0.007,-55.7,-2.5,-30.9,0,2018,4,25,17,9,7.405,0.7922,-0.1613,-0.5624,0.1733
0.002,-0.035,-0.03,-53.1,0.1,-31.2,1023,2018,4,25,17,9,7.412,0.7963,-0.1665,-0.5541,0.1761
-0.018,-0.063,-0.048,-51.1,8.3,-30.9,1023,2018,4,25,17,9,7.446,0.8001,-0.1711,-0.546,0.1795
-0.025,-0.046,-0.027,-50.6,17.9,-30.2,1023,2018,4,25,17,9,7.469,0.8041,-0.1741,-0.5378,0.1838
-0.024,-0.014,0.013,-51.6,23.2,-29.4,1023,2018,4,25,17,9,7.477,0.8084,-0.1757,-0.5291,0.1885
-0.027,0.03,0.029,-53.7,23.5,-26.9,1023,2018,4,25,17,9,7.514,0.8131,-0.1765,-0.5199,0.1929
-0.029,0.091,0.026,-54.7,16.8,-23.5,1023,2018,4,25,17,9,7.535,0.8181,-0.177,-0.5106,0.1964
-0.024,0.095,0.01,-54.5,5.8,-19.5,1023,2018,4,25,17,9,7.538,0.8228,-0.1784,-0.5017,0.1983
-0.025,0.068,0.013,-53.9,-0.4,-14.7,1023,2018,4,25,17,9,7.554,0.8272,-0.1807,-0.4933,0.1989
-0.005,0.044,0.031,-53.3,-4.4,-10.5,1023,2018,4,25,17,9,7.574,0.8315,-0.1835,-0.4851,0.1985
0.021,0.013,0.06,-51.5,-16.1,-5.5,1023,2018,4,25,17,9,7.611,0.8396,-0.1909,-0.4692,0.1957
0.04,-0.001,0.051,-50,-21.9,-3.8,1023,2018,4,25,17,9,7.63,0.8433,-0.1957,-0.4616,0.1932
0.053,-0.016,0.022,-46.8,-26.4,-2.3,1023,2018,4,25,17,9,7.633,0.8464,-0.2013,-0.4547,0.1903
0.042,-0.04,0.016,-43.1,-25.5,-1.1,1023,2018,4,25,17,9,7.668,0.849,-0.2071,-0.4485,0.1871
0.045,-0.056,0.006,-39.6,-20.8,-0.8,1023,2018,4,25,17,9,7.687,0.8513,-0.2125,-0.4427,0.1843
0.043,-0.066,0.01,-36.9,-15.3,-1.2,1023,2018,4,25,17,9,7.696,0.8535,-0.217,-0.4371,0.182
0.042,-0.057,0.032,-35.5,-9.4,-2.9,0,2018,4,25,17,9,7.731,0.8557,-0.2207,-0.4316,0.1804
0.046,-0.037,0.04,-34.9,-3.9,-4.7,0,2018,4,25,17,9,7.753,0.8581,-0.2235,-0.4259,0.1794
0.039,-0.004,0.059,-34.4,-2.7,-6.6,0,2018,4,25,17,9,7.758,0.8605,-0.2256,-0.42,0.179
0.031,0.019,0.063,-34.1,-5.5,-7.9,0,2018,4,25,17,9,7.794,0.863,-0.2276,-0.414,0.1786
0.02,0.017,0.044,-33.4,-9.3,-9.2,0,2018,4,25,17,9,7.796,0.8651,-0.2302,-0.4083,0.1781
0.014,-0.005,0.023,-32.6,-11.1,-10.3,0,2018,4,25,17,9,7.815,0.8669,-0.2333,-0.4029,0.1776
0.022,-0.016,0.007,-31.8,-11.7,-11.1,0,2018,4,25,17,9,7.848,0.8684,-0.2369,-0.3977,0.1772
0.023,-0.022,0.014,-31.5,-9.9,-11.9,0,2018,4,25,17,9,7.87,0.8698,-0.2405,-0.3925,0.177
0.021,-0.031,0.03,-31.3,-8.6,-13,0,2018,4,25,17,9,7.874,0.8712,-0.244,-0.3871,0.1771
0.03,-0.021,0.024,-31.3,-7,-14,0,2018,4,25,17,9,7.909,0.8727,-0.2472,-0.3816,0.1775
0.037,-0.006,0,-30.7,-4.5,-13.9,0,2018,4,25,17,9,7.93,0.8741,-0.2502,-0.3761,0.1781
0.039,0.013,-0.014,-29.7,-2,-13.3,0,2018,4,25,17,9,7.937,0.8755,-0.2526,-0.3707,0.1788
0.044,0.041,-0.029,-28.3,-2.2,-11.9,0,2018,4,25,17,9,7.971,0.877,-0.2547,-0.3656,0.1795
0.05,0.062,-0.035,-26.3,-4.3,-9.8,0,2018,4,25,17,9,7.992,0.8783,-0.2567,-0.3608,0.1797
0.049,0.059,-0.032,-24.6,-6.8,-7.3,0,2018,4,25,17,9,7.999,0.8795,-0.2589,-0.3565,0.1795
0.039,0.034,-0.015,-23.2,-8.2,-4.5,0,2018,4,25,17,9,8.034,0.8805,-0.2611,-0.3526,0.1789
0.04,0.022,-0.002,-22.4,-10.3,-2.4,1023,2018,4,25,17,9,8.055,0.8815,-0.2633,-0.349,0.1779
0.038,0.003,-0.003,-21.9,-11.2,-1.1,1023,2018,4,25,17,9,8.056,0.8824,-0.2658,-0.3456,0.1766
0.022,-0.005,-0.001,-21.1,-13.5,-0.8,1023,2018,4,25,17,9,8.09,0.8831,-0.2686,-0.3424,0.1751
0.018,-0.012,-0.005,-20.4,-16.3,-0.1,1023,2018,4,25,17,9,8.111,0.8836,-0.2718,-0.3394,0.1734
0.034,-0.015,-0.011,-18.3,-14.8,0.6,1023,2018,4,25,17,9,8.116,0.8842,-0.2784,-0.3341,0.1699
0.039,-0.016,-0.01,-16.9,-11.6,1,1023,2018,4,25,17,9,8.154,0.8846,-0.2813,-0.3316,0.1683
0.041,-0.009,-0.01,-15.5,-9,1.6,1023,2018,4,25,17,9,8.173,0.885,-0.2836,-0.3292,0.1668
0.055,0.005,-0.009,-13.8,-8.9,1.8,1023,2018,4,25,17,9,8.178,0.8855,-0.2854,-0.3269,0.1655
0.056,0.006,-0.007,-12,-10.9,2.3,1023,2018,4,25,17,9,8.218,0.8859,-0.2873,-0.3249,0.1642
0.063,0.011,-0.005,-10.5,-15.5,2.4,1023,2018,4,25,17,9,8.238,0.886,-0.2897,-0.3232,0.1628
0.066,0.015,0.003,-9.1,-20,2.7,1023,2018,4,25,17,9,8.241,0.8858,-0.2927,-0.3218,0.1611
0.069,0.011,0.005,-8.1,-24.7,3.1,1023,2018,4,25,17,9,8.281,0.8853,-0.2964,-0.3207,0.1592
0.073,-0.001,-0.01,-7.2,-21.6,3.5,1023,2018,4,25,17,9,8.299,0.8847,-0.3002,-0.3198,0.1572
0.073,-0.015,-0.011,-6.3,-18.4,4.3,1023,2018,4,25,17,9,8.302,0.8841,-0.3036,-0.319,0.1554
0.07,-0.013,-0.01,-4.9,-15.5,5,0,2018,4,25,17,9,8.34,0.8837,-0.3065,-0.3184,0.1538
0.067,-0.014,-0.008,-3,-13.3,5.7,0,2018,4,25,17,9,8.359,0.8833,-0.3089,-0.3179,0.1522
0.058,-0.007,-0.01,-1.1,-12,6.3,0,2018,4,25,17,9,8.363,0.8829,-0.3109,-0.3178,0.1507
0.045,-0.001,-0.006,0.6,-10.2,6.5,0,2018,4,25,17,9,8.383,0.8824,-0.3125,-0.3181,0.1493
0.03,-0.006,-0.01,2.4,-7.5,6.7,0,2018,4,25,17,9,8.404,0.882,-0.3136,-0.3187,0.148
0.013,-0.007,-0.004,4.3,-5.3,7,0,2018,4,25,17,9,8.423,0.8817,-0.3142,-0.3197,0.1469
-0.005,-0.014,0.001,5.5,-3.7,6.5,0,2018,4,25,17,9,8.462,0.8813,-0.3146,-0.3209,0.1459
-0.022,-0.026,0.008,6.1,-3.4,5.1,0,2018,4,25,17,9,8.483,0.8808,-0.3147,-0.3223,0.1452
-0.04,-0.031,0.003,6.2,-2.2,2.7,0,2018,4,25,17,9,8.487,0.8803,-0.3149,-0.3237,0.1447
-0.046,-0.032,-0.005,5.9,1.6,0.6,0,2018,4,25,17,9,8.505,0.8799,-0.3148,-0.325,0.1446
-0.046,-0.003,-0.02,6.2,5.4,-0.6,0,2018,4,25,17,9,8.524,0.8796,-0.3142,-0.3262,0.145
-0.035,0.027,-0.029,6.6,7.7,-1.1,0,2018,4,25,17,9,8.54,0.8795,-0.3129,-0.3274,0.1457
-0.021,0.055,-0.027,7.1,8.1,-0.8,0,2018,4,25,17,9,8.562,0.8795,-0.3113,-0.3286,0.1465
-0.012,0.07,-0.013,7,5.3,0,0,2018,4,25,17,9,8.582,0.8795,-0.3097,-0.3297,0.1471
-0.014,0.068,0.006,5.8,0.1,0.1,0,2018,4,25,17,9,8.621,0.8795,-0.3086,-0.3308,0.1474
-0.021,0.05,0.022,3.9,-5.8,0.2,0,2018,4,25,17,9,8.642,0.8792,-0.3084,-0.3317,0.1472
-0.024,0.023,0.024,1.6,-9.8,0,1023,2018,4,25,17,9,8.645,0.8788,-0.3091,-0.3324,0.1467
-0.025,0.006,0.011,-0.5,-11.7,-0.6,1023,2018,4,25,17,9,8.665,0.8782,-0.3106,-0.3329,0.146
-0.019,0.002,0,-1.9,-12.1,-1.2,1023,2018,4,25,17,9,8.685,0.8776,-0.3124,-0.333,0.1453
-0.002,0.006,-0.022,-3.3,-10.9,-1.2,1023,2018,4,25,17,9,8.723,0.8765,-0.3163,-0.3328,0.144
0.008,0.01,-0.02,-3.1,-10.1,-0.4,1023,2018,4,25,17,9,8.743,0.876,-0.3181,-0.3326,0.1433
0.015,0.001,-0.009,-2.8,-9.8,0.3,1023,2018,4,25,17,9,8.746,0.8756,-0.3198,-0.3324,0.1426
0.02,-0.01,-0.006,-2.6,-9.1,0.7,1023,2018,4,25,17,9,8.765,0.8753,-0.3214,-0.3322,0.1419
0.018,-0.012,-0.007,-2.4,-8.3,0.7,1023,2018,4,25,17,9,8.785,0.8749,-0.323,-0.3319,0.1412
0.017,-0.011,-0.013,-1.9,-5.7,0.5,1023,2018,4,25,17,9,8.825,0.8743,-0.3256,-0.3315,0.1401
0.009,-0.006,-0.023,-0.8,-3.7,0,1023,2018,4,25,17,9,8.829,0.8737,-0.3274,-0.3313,0.1394
0.009,-0.001,-0.02,-0.5,-3,-0.5,1023,2018,4,25,17,9,8.846,0.8735,-0.3281,-0.3313,0.1393
0.011,0.005,-0.008,-0.5,-1.6,-1.2,1023,2018,4,25,17,9,8.866,0.8732,-0.3291,-0.3311,0.1394
0.001,0.011,-0.003,-0.6,-2,-1.5,1023,2018,4,25,17,9,8.885,0.873,-0.3299,-0.3307,0.1395
-0.002,0.017,0,-0.1,-1.2,-0.5,1023,2018,4,25,17,9,8.906,0.8726,-0.3312,-0.3303,0.1397
0.001,0.009,0,-0.1,-1.8,0,0,2018,4,25,17,9,8.925,0.8724,-0.3317,-0.3304,0.1395
0.007,0.005,-0.007,-0.3,-2,0,0,2018,4,25,17,9,8.964,0.8723,-0.3321,-0.3304,0.1394
0.009,0.002,-0.008,-0.2,-1.8,0,0,2018,4,25,17,9,8.986,0.8722,-0.3324,-0.3304,0.1393
0.01,0.006,-0.008,-0.4,-1.7,0,0,2018,4,25,17,9,8.99,0.8721,-0.3327,-0.3303,0.1392
0.011,0.008,-0.006,-0.2,-1.8,0.2,0,2018,4,25,17,9,9.009,0.872,-0.333,-0.3303,0.1391
0.008,0,-0.008,-0.4,-2,0,0,2018,4,25,17,9,9.031,0.8719,-0.3334,-0.3303,0.1389
0.008,0.002,-0.009,-0.4,-2.2,-0.1,0,2018,4,25,17,9,9.05,0.8718,-0.3338,-0.3302,0.1388
0.004,0,-0.007,-0.5,-1.8,-0.3,0,2018,4,25,17,9,9.067,0.8717,-0.3342,-0.3302,0.1387
0.008,0.006,-0.008,-0.4,-1.7,-0.3,0,2018,4,25,17,9,9.104,0.8716,-0.3346,-0.3302,0.1387
0.003,0.008,-0.011,-0.6,-1.7,-0.3,0,2018,4,25,17,9,9.126,0.8715,-0.3349,-0.3301,0.1386
0.005,0.009,-0.006,-0.7,-2,-0.3,0,2018,4,25,17,9,9.13,0.8714,-0.3352,-0.3301,0.1385
0.005,0.007,-0.01,-0.4,-2,0,0,2018,4,25,17,9,9.149,0.8713,-0.3356,-0.33,0.1384
0.003,0.007,-0.009,-0.4,-1.8,0,0,2018,4,25,17,9,9.169,0.8712,-0.3359,-0.33,0.1382
0.005,0.005,-0.008,-0.3,-1.4,-0.3,0,2018,4,25,17,9,9.189,0.8711,-0.3362,-0.33,0.1381
0.002,0.008,-0.004,-0.5,-1.2,-0.5,0,2018,4,25,17,9,9.208,0.8711,-0.3364,-0.3299,0.1381
0.006,0.008,-0.004,-0.3,-0.9,-0.4,1023,2018,4,25,17,9,9.247,0.871,-0.3367,-0.3298,0.1381
0.004,0.012,-0.009,-0.5,-1.2,-0.4,1023,2018,4,25,17,9,9.267,0.871,-0.3368,-0.3297,0.138
0.003,0.011,-0.002,-0.8,-1.7,-0.6,1023,2018,4,25,17,9,9.271,0.8709,-0.3371,-0.3296,0.138
0.004,0.006,0,-1.3,-1.9,-0.5,1023,2018,4,25,17,9,9.308,0.8709,-0.3374,-0.3294,0.1379
0.005,0.006,-0.003,-1.4,-1.6,-0.5,1023,2018,4,25,17,9,9.312,0.8709,-0.3377,-0.3292,0.1378
0.007,0.005,-0.009,-1.1,-1.1,-0.1,1023,2018,4,25,17,9,9.328,0.8708,-0.3383,-0.3288,0.1377
0.007,0.008,-0.005,-1,-0.3,-0.2,1023,2018,4,25,17,9,9.351,0.8708,-0.3384,-0.3287,0.1376
0.004,0.009,-0.007,-0.7,-0.5,-0.3,1023,2018,4,25,17,9,9.37,0.8709,-0.3385,-0.3285,0.1376
0.002,0.01,-0.005,-0.4,-0.8,-0.3,1023,2018,4,25,17,9,9.39,0.8708,-0.3387,-0.3284,0.1375
0.007,0.007,-0.009,-0.4,-0.8,-0.2,1023,2018,4,25,17,9,9.412,0.8708,-0.3389,-0.3283,0.1374
0.009,0.006,-0.006,-0.4,-0.5,0,1023,2018,4,25,17,9,9.431,0.8708,-0.339,-0.3282,0.1374
0.006,0.004,-0.007,0,0,0,1023,2018,4,25,17,9,9.467,0.8708,-0.3391,-0.3282,0.1374
0.005,0.007,-0.009,0,0,0,1023,2018,4,25,17,9,9.488,0.8707,-0.3392,-0.3282,0.1374
0.005,0.006,-0.005,-0.5,-0.2,-0.1,1023,2018,4,25,17,9,9.493,0.8708,-0.3392,-0.3282,0.1374
0.007,0.006,-0.004,-0.5,-0.3,0,0,2018,4,25,17,9,9.53,0.8708,-0.3393,-0.3281,0.1374
0.007,0.004,-0.005,0,0,0,0,2018,4,25,17,9,9.55,0.8708,-0.3393,-0.328,0.1374
0.009,0.004,-0.004,0,0,0,0,2018,4,25,17,9,9.554,0.8708,-0.3393,-0.328,0.1374
0.007,0.004,-0.003,0,0,0,0,2018,4,25,17,9,9.575,0.8708,-0.3394,-0.3279,0.1374
0.007,0.005,-0.003,0,0,0,0,2018,4,25,17,9,9.594,0.8708,-0.3394,-0.3279,0.1374
0.002,0.006,-0.004,0,0,0,0,2018,4,25,17,9,9.61,0.8708,-0.3394,-0.3279,0.1374
0.003,0.009,-0.009,0,0,0,0,2018,4,25,17,9,9.649,0.8708,-0.3394,-0.3279,0.1374
0.005,0.01,-0.005,-0.5,-0.2,0,0,2018,4,25,17,9,9.669,0.8708,-0.3394,-0.3279,0.1374
0.001,0.008,-0.008,-0.5,-0.2,0.1,0,2018,4,25,17,9,9.674,0.8708,-0.3394,-0.3279,0.1374
0.005,0.008,-0.006,-0.6,-0.6,0.2,0,2018,4,25,17,9,9.712,0.8708,-0.3395,-0.3278,0.1373
0.003,0.009,-0.007,-0.7,-0.3,0.4,0,2018,4,25,17,9,9.733,0.8708,-0.3395,-0.3278,0.1371
0.006,0.007,-0.011,-0.7,0.1,0.2,0,2018,4,25,17,9,9.738,0.8709,-0.3395,-0.3277,0.1371
0.006,0.011,-0.005,0,0,0,0,2018,4,25,17,9,9.755,0.8709,-0.3395,-0.3276,0.137
0.005,0.005,-0.003,0,0,0,0,2018,4,25,17,9,9.775,0.8709,-0.3395,-0.3276,0.137
0.003,0.007,0,-0.5,-0.3,0.2,0,2018,4,25,17,9,9.795,0.8709,-0.3395,-0.3276,0.137
0.006,0.002,-0.005,-0.8,-0.5,0.3,0,2018,4,25,17,9,9.812,0.8709,-0.3395,-0.3275,0.1369
0.009,0.001,-0.006,-0.8,-0.3,0.2,1023,2018,4,25,17,9,9.851,0.871,-0.3396,-0.3274,0.1368
0.002,0.001,-0.01,-0.6,-0.2,0.2,1023,2018,4,25,17,9,9.872,0.871,-0.3397,-0.3273,0.1367
0.006,0.001,-0.009,0,0,0,1023,2018,4,25,17,9,9.876,0.871,-0.3398,-0.3273,0.1366
0.006,0.003,-0.014,0,0,0,1023,2018,4,25,17,9,9.894,0.8709,-0.3399,-0.3273,0.1367
0.01,0,-0.01,0,0,0,1023,2018,4,25,17,9,9.913,0.8709,-0.34,-0.3273,0.1367
0.003,-0.001,-0.007,0,0,-0.5,1023,2018,4,25,17,9,9.953,0.8709,-0.34,-0.3273,0.1367
0,-0.007,-0.002,0,0,0,1023,2018,4,25,17,9,9.972,0.8708,-0.3401,-0.3272,0.1368
0.001,-0.005,-0.004,0,0.5,-0.9,1023,2018,4,25,17,9,9.977,0.8708,-0.3401,-0.3272,0.137
0.001,-0.001,-0.005,0.2,1.5,-1.1,1023,2018,4,25,17,9,9.996,0.8708,-0.3401,-0.3271,0.1372
0.002,0.005,-0.002,0.2,2.2,-1.4,1023,2018,4,25,17,9,10.015,0.8709,-0.3399,-0.327,0.1375
0.007,0.016,-0.011,0.7,2.9,-1.2,1023,2018,4,25,17,9,10.035,0.871,-0.3395,-0.327,0.1379
0.006,0.016,-0.002,1.1,1.8,-0.8,1023,2018,4,25,17,9,10.056,0.8711,-0.3391,-0.327,0.1383
0,0.001,0.012,1.3,0.2,-0.8,1023,2018,4,25,17,9,10.097,0.8711,-0.3389,-0.3271,0.1385
-0.002,-0.012,0.018,0.7,0.6,-1.4,1023,2018,4,25,17,9,10.116,0.871,-0.3389,-0.3271,0.1388
-0.008,-0.004,0.007,-0.4,2.1,-2.3,1023,2018,4,25,17,9,10.121,0.8711,-0.3388,-0.3269,0.1392
-0.003,0.004,-0.003,-0.5,2.9,-3.2,1023,2018,4,25,17,9,10.137,0.8712,-0.3385,-0.3266,0.1397
-0.002,-0.001,-0.001,-0.9,2.9,-3.9,1023,2018,4,25,17,9,10.156,0.8714,-0.3382,-0.3263,0.1404
-0.006,-0.011,-0.003,-1.1,5.1,-4.8,0,2018,4,25,17,9,10.175,0.8715,-0.338,-0.3258,0.1412
-0.005,-0.005,0.002,-1.8,8.4,-5.6,0,2018,4,25,17,9,10.214,0.8718,-0.3373,-0.3251,0.1423
0.007,0.011,0.007,-2.2,9.4,-5.8,0,2018,4,25,17,9,10.234,0.8724,-0.3362,-0.3242,0.1436
0.018,0.021,-0.005,-1.9,7.1,-6,0,2018,4,25,17,9,10.238,0.8729,-0.3353,-0.3232,0.1449
0.02,0.021,-0.02,-1.5,4.3,-6.1,0,2018,4,25,17,9,10.26,0.8732,-0.3348,-0.3224,0.146
0.024,0.02,-0.028,-0.7,2.9,-5.9,0,2018,4,25,17,9,10.279,0.8733,-0.3347,-0.3218,0.1471
0.029,0.015,-0.029,0.8,3.5,-5.3,0,2018,4,25,17,9,10.299,0.8733,-0.3347,-0.3213,0.1482
0.031,0.014,-0.039,2.2,4.8,-4.8,0,2018,4,25,17,9,10.322,0.8732,-0.3344,-0.3211,0.1494
0.026,0.008,-0.027,3.6,6.5,-4.6,0,2018,4,25,17,9,10.341,0.8732,-0.334,-0.3212,0.1507
0.023,0.003,-0.025,4.1,7.7,-4.7,0,2018,4,25,17,9,10.361,0.8732,-0.3332,-0.3213,0.1521
0.025,0.015,-0.021,4.7,9.3,-4.5,0,2018,4,25,17,9,10.376,0.8733,-0.3322,-0.3214,0.1536
0.024,0.021,-0.005,5.2,9.7,-4.4,0,2018,4,25,17,9,10.397,0.8734,-0.3309,-0.3215,0.1552
0.024,0.033,-0.006,5.3,9.1,-3.7,0,2018,4,25,17,9,10.416,0.8736,-0.3294,-0.3217,0.1567
0.026,0.038,-0.003,5.5,7.4,-3,1023,2018,4,25,17,9,10.457,0.8738,-0.3281,-0.322,0.158
0.027,0.034,0,6.1,5.2,-2.6,1023,2018,4,25,17,9,10.477,0.8739,-0.3269,-0.3224,0.1592
0.024,0.036,0.009,6.8,2.1,-2.4,1023,2018,4,25,17,9,10.481,0.8738,-0.3262,-0.3229,0.1602
0.02,0.021,0.005,7.1,0,-2.5,1023,2018,4,25,17,9,10.499,0.8735,-0.3258,-0.3236,0.161
0.016,0.014,-0.001,7.2,-0.2,-2.2,1023,2018,4,25,17,9,10.519,0.8731,-0.3257,-0.3244,0.1618
0.016,0.015,0,7.8,0.2,-1.9,1023,2018,4,25,17,9,10.556,0.8727,-0.3255,-0.3254,0.1626
0.009,0.009,-0.002,8.3,0.6,-1.3,1023,2018,4,25,17,9,10.579,0.8722,-0.3253,-0.3264,0.1633
0.005,0.006,-0.015,8.9,2,-0.7,1023,2018,4,25,17,9,10.583,0.8718,-0.3249,-0.3276,0.1641
0.012,0.006,-0.01,10.2,4.9,0.1,1023,2018,4,25,17,9,10.622,0.8714,-0.3242,-0.3289,0.1649
0.023,0.023,-0.001,12,6.6,0.9,1023,2018,4,25,17,9,10.626,0.8712,-0.3229,-0.3304,0.1658
0.033,0.036,0.009,13.8,5.3,1.2,1023,2018,4,25,17,9,10.643,0.8709,-0.3214,-0.332,0.1669
0.035,0.047,0.008,15.5,1,1.8,1023,2018,4,25,17,9,10.659,0.8705,-0.3201,-0.334,0.1677
0.035,0.051,0.015,17,-4.5,2.8,1023,2018,4,25,17,9,10.679,0.8697,-0.3195,-0.3363,0.1682
0.041,0.046,0,18.9,-12.4,4.6,1023,2018,4,25,17,9,10.699,0.8684,-0.3199,-0.3392,0.1681
0.039,0.024,-0.013,21.1,-18.1,6.1,0,2018,4,25,17,9,10.74,0.8666,-0.3213,-0.3428,0.1676
0.039,-0.003,-0.027,24.2,-19.1,7.3,0,2018,4,25,17,9,10.76,0.8643,-0.3233,-0.347,0.1668
0.043,-0.005,-0.026,27.6,-17.8,8.8,0,2018,4,25,17,9,10.764,0.8619,-0.3251,-0.3518,0.1661
0.04,-0.004,-0.012,30.7,-16.7,10.7,0,2018,4,25,17,9,10.801,0.8593,-0.3265,-0.357,0.1654
0.049,-0.002,0.012,33.1,-16.3,14.1,0,2018,4,25,17,9,10.82,0.8567,-0.3275,-0.3627,0.1645
0.048,-0.017,0.041,34.4,-15.7,16.6,0,2018,4,25,17,9,10.824,0.8542,-0.328,-0.3686,0.1634
0.052,-0.024,0.028,34.9,-15.2,18.2,0,2018,4,25,17,9,10.845,0.8517,-0.3283,-0.3746,0.162
0.053,-0.025,0.007,35.9,-14,19.3,0,2018,4,25,17,9,10.866,0.8491,-0.3285,-0.3809,0.1606
0.044,-0.022,-0.008,38.6,-9.1,21,0,2018,4,25,17,9,10.881,0.8465,-0.3282,-0.3876,0.1593
0.044,-0.002,0.001,41.9,-5.6,23.8,0,2018,4,25,17,9,10.901,0.8439,-0.3269,-0.3948,0.158
0.024,-0.01,0.015,45.2,-2.9,27.1,0,2018,4,25,17,9,10.92,0.8414,-0.3246,-0.4025,0.1566
0.014,-0.026,0.012,47.9,-0.9,28.8,0,2018,4,25,17,9,10.957,0.8388,-0.3217,-0.4108,0.1551
-0.005,-0.045,0.038,49.8,0.5,28.7,0,2018,4,25,17,9,10.978,0.836,-0.3184,-0.4194,0.1538
-0.009,-0.079,0.017,50.2,-1.7,26.9,0,2018,4,25,17,9,10.982,0.8331,-0.3153,-0.4279,0.1526
-0.032,-0.109,0.049,50.5,3.3,26.5,0,2018,4,25,17,9,11.017,0.8299,-0.3123,-0.4364,0.1519
-0.035,-0.094,0.038,52.8,5.9,28.4,0,2018,4,25,17,9,11.036,0.8269,-0.3084,-0.445,0.1514
-0.04,-0.083,0.062,54.4,4.4,32.6,0,2018,4,25,17,9,11.041,0.8238,-0.304,-0.4541,0.1504
-0.024,-0.093,0.083,55.1,1.2,34.8,0,2018,4,25,17,9,11.081,0.8206,-0.2997,-0.4632,0.1489
0.012,-0.038,0.08,54.7,1.9,38.8,0,2018,4,25,17,9,11.101,0.8174,-0.295,-0.4724,0.1469
0.056,0.002,0.039,55.3,-7.5,41,1023,2018,4,25,17,9,11.113,0.8141,-0.2905,-0.4817,0.144
0.074,-0.014,0.026,56.6,-9.4,45.4,1023,2018,4,25,17,9,11.12,0.8101,-0.2871,-0.4915,0.1402
0.069,-0.013,0.037,58.6,-9.8,47.3,1023,2018,4,25,17,9,11.156,0.806,-0.283,-0.5016,0.1361
0.065,-0.033,0.035,61.4,-6.9,47.7,1023,2018,4,25,17,9,11.178,0.8016,-0.279,-0.5119,0.132
0.041,0.01,0.036,63.9,-2.7,51.3,1023,2018,4,25,17,9,11.182,0.797,-0.2738,-0.5227,0.128
0.018,0.05,0.016,66.4,-3.6,54,1023,2018,4,25,17,9,11.219,0.7922,-0.2677,-0.5341,0.1235
-0.025,0.105,-0.013,69.2,-10.2,57.8,1023,2018,4,25,17,9,11.239,0.7868,-0.2614,-0.5463,0.1179
-0.051,0.156,-0.015,71.5,-22,62.8,1023,2018,4,25,17,9,11.241,0.7806,-0.2557,-0.5593,0.1108
-0.111,0.169,-0.01,72.1,-33.7,68.2,1023,2018,4,25,17,9,11.28,0.7734,-0.2518,-0.5725,0.1022
-0.178,0.121,0.001,70.5,-40.9,72.2,1023,2018,4,25,17,9,11.299,0.7657,-0.2485,-0.5859,0.0921
-0.24,0.064,0.021,69.2,-44.1,74,1023,2018,4,25,17,9,11.306,0.7578,-0.2451,-0.5992,0.0805
-0.287,0.044,0.01,68,-42.3,74.4,0,2018,4,25,17,9,11.346,0.7497,-0.2411,-0.6124,0.0681
-0.349,0.053,-0.018,57.9,-46.7,74.8,0,2018,4,25,17,9,11.367,0.7417,-0.2373,-0.6248,0.0553
-0.369,0.057,-0.027,48.3,-46.4,76.3,0,2018,4,25,17,9,11.372,0.7345,-0.2343,-0.6353,0.0423
-0.358,0.071,-0.003,36.2,-42.5,77.3,0,2018,4,25,17,9,11.385,0.7283,-0.2302,-0.6447,0.0282
-0.323,0.066,-0.003,25.9,-39.1,78.9,0,2018,4,25,17,9,11.422,0.7234,-0.2258,-0.6522,0.0139
-0.254,0.047,-0.045,18.4,-40.6,73.5,0,2018,4,25,17,9,11.443,0.7194,-0.2209,-0.6584,-0.0002
-0.136,-0.009,-0.049,5.5,-32.5,56.3,0,2018,4,25,17,9,11.447,0.7086,-0.2126,-0.6716,-0.0374
-0.057,0.114,-0.013,0.5,-24.6,53.5,0,2018,4,25,17,9,11.467,0.7067,-0.209,-0.6741,-0.0476
0,0.119,-0.015,-2.8,-35.5,48.1,0,2018,4,25,17,9,11.486,0.7052,-0.2058,-0.6759,-0.0583
0.012,0.053,-0.034,-8.1,-41.8,42.6,0,2018,4,25,17,9,11.507,0.7037,-0.2048,-0.6767,-0.0693
0.033,0.014,-0.047,-13.4,-40.3,37.8,0,2018,4,25,17,9,11.529,0.7026,-0.2049,-0.6766,-0.0796
0.049,0.006,-0.048,-17.7,-40.3,32.6,0,2018,4,25,17,9,11.55,0.7022,-0.2055,-0.6757,-0.0892
0.07,0.007,-0.043,-21,-44.8,27.6,0,2018,4,25,17,9,11.569,0.7021,-0.207,-0.674,-0.0985
0.076,0.002,-0.043,-24.1,-49.8,23.4,0,2018,4,25,17,9,11.585,0.7023,-0.2096,-0.6716,-0.108
0.075,-0.002,-0.055,-26.3,-52.8,19.1,0,2018,4,25,17,9,11.625,0.7026,-0.2132,-0.6686,-0.1174
0.087,-0.025,-0.074,-27.4,-51.7,14.9,0,2018,4,25,17,9,11.646,0.703,-0.2174,-0.6652,-0.1262
0.092,-0.014,-0.079,-27.1,-49.9,10.7,0,2018,4,25,17,9,11.65,0.7034,-0.222,-0.6617,-0.1343
0.104,-0.011,-0.081,-26.8,-50.3,6.7,0,2018,4,25,17,9,11.668,0.7038,-0.2269,-0.658,-0.1419
0.125,-0.018,-0.087,-25.5,-48.9,2.3,0,2018,4,25,17,9,11.704,0.7041,-0.2323,-0.6542,-0.1489
0.132,-0.013,-0.096,-23.6,-46.6,-1.9,1023,2018,4,25,17,9,11.725,0.7043,-0.238,-0.6505,-0.1549
0.137,-0.011,-0.097,-21.8,-46.6,-5.8,1023,2018,4,25,17,9,11.729,0.7044,-0.244,-0.6469,-0.1602
0.149,-0.012,-0.097,-20.6,-45.2,-8.8,1023,2018,4,25,17,9,11.748,0.7043,-0.2505,-0.6433,-0.165
0.153,-0.009,-0.1,-19.3,-43.2,-10.5,1023,2018,4,25,17,9,11.77,0.7043,-0.257,-0.6397,-0.1692
0.15,-0.006,-0.1,-17.4,-40.5,-11.2,1023,2018,4,25,17,9,11.806,0.7041,-0.2633,-0.6363,-0.1729
0.14,0.004,-0.093,-15.5,-37.3,-10.6,1023,2018,4,25,17,9,11.825,0.7038,-0.2692,-0.6332,-0.1763
0.123,0.005,-0.077,-13.6,-34.5,-9.5,1023,2018,4,25,17,9,11.829,0.7034,-0.2747,-0.6303,-0.1794
0.117,-0.002,-0.072,-11.6,-31.9,-7.8,1023,2018,4,25,17,9,11.853,0.703,-0.2797,-0.6278,-0.1823
0.124,0.004,-0.07,-10.1,-30,-5.8,1023,2018,4,25,17,9,11.869,0.7024,-0.2842,-0.6256,-0.1851
0.137,-0.002,-0.061,-7.8,-28.9,-4,1023,2018,4,25,17,9,11.89,0.7017,-0.2885,-0.6236,-0.1879
0.133,-0.007,-0.053,-5.4,-27.2,-2.6,1023,2018,4,25,17,9,11.91,0.7007,-0.2925,-0.622,-0.1906
0.112,-0.004,-0.043,-2.9,-23.7,-1.5,1023,2018,4,25,17,9,11.927,0.6997,-0.296,-0.6208,-0.1931
0.101,0,-0.028,-1.1,-19.5,-0.5,1023,2018,4,25,17,9,11.965,0.6986,-0.2989,-0.6199,-0.1952
0.081,0,-0.02,0.5,-15.5,0.6,1023,2018,4,25,17,9,11.985,0.6976,-0.3012,-0.6194,-0.1969
0.067,-0.001,-0.006,1.8,-12.7,2.5,1023,2018,4,25,17,9,11.99,0.6967,-0.3029,-0.6191,-0.1984
0.052,-0.006,0.002,2.7,-10.5,4.8,1023,2018,4,25,17,9,12.027,0.6957,-0.3041,-0.6192,-0.1999
0.036,-0.012,0,3,-9.7,6.7,0,2018,4,25,17,9,12.048,0.6947,-0.3049,-0.6194,-0.2014
0.023,-0.013,-0.001,3,-10.6,7.9,0,2018,4,25,17,9,12.051,0.6936,-0.3056,-0.6198,-0.2031
0.014,-0.016,-0.001,3.3,-12.5,8.5,0,2018,4,25,17,9,12.089,0.6924,-0.3063,-0.6201,-0.2051
0.007,-0.022,-0.001,3.6,-12.3,7.9,0,2018,4,25,17,9,12.108,0.691,-0.3072,-0.6205,-0.2071
0,-0.031,0.009,4.4,-11,5.9,0,2018,4,25,17,9,12.111,0.6898,-0.3082,-0.6208,-0.2089
-0.002,-0.03,0.016,4.5,-8.1,3.1,0,2018,4,25,17,9,12.13,0.6888,-0.3092,-0.621,-0.21
-0.002,-0.034,0.011,5.1,-5.8,-0.6,0,2018,4,25,17,9,12.151,0.688,-0.3102,-0.6212,-0.2105
-0.011,-0.036,0.013,5.5,-1.9,-4,0,2018,4,25,17,9,12.17,0.6875,-0.3113,-0.6214,-0.2101
-0.006,-0.037,0.019,5.6,2.9,-7.2,0,2018,4,25,17,9,12.19,0.6873,-0.3122,-0.6216,-0.2088
0.001,-0.034,0.024,5.6,8.9,-9.5,0,2018,4,25,17,9,12.228,0.6875,-0.3128,-0.6218,-0.2066
0.01,-0.03,0.023,5.5,14.2,-11.4,0,2018,4,25,17,9,12.249,0.6882,-0.3128,-0.622,-0.2036
0.01,-0.015,0.02,5.3,16.6,-13.3,0,2018,4,25,17,9,12.252,0.6891,-0.3125,-0.6223,-0.2
0.01,-0.005,0.023,5.5,16.9,-14.9,0,2018,4,25,17,9,12.29,0.6901,-0.3122,-0.6226,-0.1961
0.002,0.004,0.027,5.5,16.2,-16.3,0,2018,4,25,17,9,12.31,0.6911,-0.3121,-0.6228,-0.1921
-0.008,0.011,0.029,5.6,15.7,-16.9,0,2018,4,25,17,9,12.314,0.6921,-0.312,-0.623,-0.1881
-0.013,0.009,0.031,5.7,15.2,-16.9,0,2018,4,25,17,9,12.331,0.6931,-0.312,-0.6231,-0.1842
-0.011,0.011,0.025,5.6,15.8,-16,0,2018,4,25,17,9,12.352,0.694,-0.3119,-0.6232,-0.1803
-0.016,0.01,0.021,5.6,18.4,-14.8,1023,2018,4,25,17,9,12.371,0.6949,-0.3116,-0.6235,-0.1764
-0.016,0.009,0.03,5.9,23.7,-12.6,1023,2018,4,25,17,9,12.41,0.696,-0.3105,-0.624,-0.1723
-0.01,0.016,0.033,6.1,29.7,-10.7,1023,2018,4,25,17,9,12.43,0.6973,-0.3085,-0.6247,-0.1678
-0.006,0.017,0.038,6,35.5,-8.7,1023,2018,4,25,17,9,12.434,0.6989,-0.3055,-0.6257,-0.1628
-0.006,0.027,0.044,5.8,39.9,-7.7,1023,2018,4,25,17,9,12.454,0.7007,-0.3017,-0.6269,-0.1576
-0.011,0.034,0.034,4.8,41.8,-7.3,1023,2018,4,25,17,9,12.475,0.7027,-0.2973,-0.6281,-0.1522
-0.01,0.047,0.037,3.6,41.6,-7,1023,2018,4,25,17,9,12.513,0.7047,-0.2926,-0.6293,-0.1468
-0.012,0.056,0.035,2.1,38.3,-7.2,1023,2018,4,25,17,9,12.533,0.7068,-0.2881,-0.6302,-0.1418
-0.014,0.064,0.027,0.2,33.2,-7.5,1023,2018,4,25,17,9,12.537,0.7087,-0.2839,-0.6309,-0.1374
-0.015,0.076,0.018,-1.1,26.4,-7.6,1023,2018,4,25,17,9,12.556,0.7105,-0.2805,-0.6312,-0.1337
-0.017,0.074,0.012,-2.2,18.5,-7.5,1023,2018,4,25,17,9,12.575,0.712,-0.278,-0.6312,-0.1309
-0.019,0.073,0.009,-3.2,11.8,-7.2,1023,2018,4,25,17,9,12.614,0.7132,-0.2764,-0.631,-0.129
-0.02,0.07,0,-3.6,6.6,-6,1023,2018,4,25,17,9,12.634,0.7141,-0.2754,-0.6307,-0.1279
-0.018,0.064,-0.004,-3.8,2.9,-4.5,1023,2018,4,25,17,9,12.638,0.7147,-0.2749,-0.6303,-0.1274
-0.01,0.062,-0.008,-3.6,0.6,-3,1023,2018,4,25,17,9,12.655,0.7152,-0.2746,-0.6299,-0.1273
-0.002,0.06,-0.009,-3.4,-0.8,-1.8,1023,2018,4,25,17,9,12.676,0.7155,-0.2744,-0.6295,-0.1276
0,0.056,-0.012,-3.1,-1.5,-0.9,0,2018,4,25,17,9,12.695,0.7157,-0.2743,-0.6292,-0.1281
0.006,0.059,-0.016,-2.7,-1.9,0.2,0,2018,4,25,17,9,12.735,0.7158,-0.2741,-0.6291,-0.1288
0.009,0.057,-0.02,-2.2,-2.3,1.2,0,2018,4,25,17,9,12.754,0.7157,-0.274,-0.629,-0.1296
0.014,0.05,-0.015,-1.4,-3.1,2.7,0,2018,4,25,17,9,12.759,0.7156,-0.2738,-0.6291,-0.1305
0.012,0.047,-0.02,-1,-4.2,4.1,0,2018,4,25,17,9,12.779,0.7153,-0.2736,-0.6293,-0.1317
0.004,0.038,-0.021,0,-5.2,6.1,0,2018,4,25,17,9,12.797,0.7148,-0.2734,-0.6296,-0.1331
0.002,0.029,-0.018,0.8,-5.4,7.9,0,2018,4,25,17,9,12.82,0.7142,-0.2731,-0.6301,-0.1348
-0.002,0.023,-0.012,1.5,-4.8,9.6,0,2018,4,25,17,9,12.84,0.7134,-0.2727,-0.6307,-0.1366
-0.005,0.017,-0.008,2,-4.5,11,0,2018,4,25,17,9,12.879,0.7127,-0.272,-0.6315,-0.1384
0,0.011,-0.004,2.2,-4.7,11.8,0,2018,4,25,17,9,12.883,0.7119,-0.2713,-0.6323,-0.1403
0.005,0.004,-0.001,2.3,-4.7,12.4,0,2018,4,25,17,9,12.898,0.7111,-0.2705,-0.6331,-0.1423
0.006,-0.001,0.003,2.5,-5,12.6,0,2018,4,25,17,9,12.935,0.7103,-0.2698,-0.6338,-0.1443
0.002,-0.007,0.007,2.7,-5.2,12.7,0,2018,4,25,17,9,12.955,0.7095,-0.2691,-0.6346,-0.1463
-0.004,-0.013,0.011,2.7,-5,12.7,0,2018,4,25,17,9,12.959,0.7087,-0.2684,-0.6353,-0.1483
-0.003,-0.017,0.012,2.8,-3.9,12.4,0,2018,4,25,17,9,12.977,0.7079,-0.2678,-0.636,-0.1501
-0.004,-0.027,0.019,2.5,-3,12.1,0,2018,4,25,17,9,13.017,0.7072,-0.267,-0.6366,-0.1518
-0.006,-0.029,0.023,1.9,-1.5,11.4,0,2018,4,25,17,9,13.036,0.7068,-0.2661,-0.6372,-0.1532
-0.009,-0.038,0.016,1.5,-1,10.5,0,2018,4,25,17,9,13.04,0.7064,-0.2653,-0.6377,-0.1544
-0.004,-0.031,0.02,1.1,-1,9,1023,2018,4,25,17,9,13.058,0.7061,-0.2645,-0.6381,-0.1555
-0.003,-0.034,0.022,0.5,-1.6,7.1,1023,2018,4,25,17,9,13.097,0.7059,-0.2639,-0.6382,-0.1564
0,-0.038,0.015,-0.1,-2.3,5.4,1023,2018,4,25,17,9,13.117,0.7058,-0.2637,-0.6383,-0.1572
-0.007,-0.034,0.019,-0.7,-2.2,3.7,1023,2018,4,25,17,9,13.121,0.7058,-0.2636,-0.6382,-0.1579
-0.007,-0.037,0.01,-1.1,-2,2.6,1023,2018,4,25,17,9,13.14,0.7059,-0.2637,-0.6379,-0.1583
-0.011,-0.036,0.011,-1.6,-1.9,1.3,1023,2018,4,25,17,9,13.177,0.706,-0.2639,-0.6376,-0.1586
-0.001,-0.033,0.005,-1.8,-1.8,0.2,1023,2018,4,25,17,9,13.197,0.7062,-0.2642,-0.6373,-0.1588
0.004,-0.031,0.005,-2,-1.5,-1.2,1023,2018,4,25,17,9,13.201,0.7064,-0.2646,-0.6368,-0.1588
0.006,-0.027,0,-1.9,-1.1,-2.8,1023,2018,4,25,17,9,13.219,0.7067,-0.2652,-0.6364,-0.1586
0.007,-0.021,-0.003,-1.9,-0.2,-3.9,1023,2018,4,25,17,9,13.259,0.707,-0.2658,-0.6359,-0.1581
0,-0.016,-0.007,-1.5,0.8,-4.6,1023,2018,4,25,17,9,13.278,0.7073,-0.2663,-0.6355,-0.1575
0.001,-0.009,-0.007,-1.2,1.4,-4.9,1023,2018,4,25,17,9,13.282,0.7076,-0.2668,-0.6351,-0.1567
0.007,-0.006,-0.007,-0.6,2,-5.2,1023,2018,4,25,17,9,13.302,0.7079,-0.2672,-0.6349,-0.1558
0.008,-0.002,-0.012,-0.2,1.9,-5.3,1023,2018,4,25,17,9,13.322,0.7081,-0.2676,-0.6347,-0.1549
0.005,0.003,-0.008,0,2.2,-5.5,1023,2018,4,25,17,9,13.362,0.7083,-0.268,-0.6345,-0.154
0.001,0.002,-0.009,0.2,2.8,-5.2,1023,2018,4,25,17,9,13.382,0.7084,-0.2684,-0.6344,-0.1531
0.002,0.002,-0.01,0.5,3.5,-5,1023,2018,4,25,17,9,13.386,0.7086,-0.2685,-0.6344,-0.1521
0.001,0.004,-0.006,0.7,4,-4.4,1023,2018,4,25,17,9,13.404,0.7088,-0.2686,-0.6344,-0.151
0.005,0.009,-0.009,0.6,4.5,-4,1023,2018,4,25,17,9,13.442,0.7089,-0.2685,-0.6345,-0.15
0.004,0.017,-0.009,0.3,4.7,-3.5,0,2018,4,25,17,9,13.446,0.7091,-0.2683,-0.6346,-0.1491
0.004,0.022,0,-0.1,4.9,-2.7,0,2018,4,25,17,9,13.463,0.7094,-0.2679,-0.6347,-0.1483
0.001,0.017,0.006,-0.1,4.7,-2,0,2018,4,25,17,9,13.5,0.7097,-0.2674,-0.6347,-0.1476
0.003,0.014,0.008,0.4,3.4,-1.7,0,2018,4,25,17,9,13.521,0.7099,-0.267,-0.6348,-0.147
-0.001,0.006,0.013,0.6,4.7,-1.1,0,2018,4,25,17,9,13.525,0.7101,-0.2666,-0.6348,-0.1464
0,0.015,0.003,0.1,5.1,-0.5,0,2018,4,25,17,9,13.544,0.7104,-0.266,-0.6349,-0.1458
-0.004,0.016,0.009,0,4.8,0,0,2018,4,25,17,9,13.564,0.7106,-0.2652,-0.6351,-0.1454
0.003,0.015,0.011,-0.1,3.3,0,0,2018,4,25,17,9,13.599,0.7109,-0.2646,-0.6352,-0.145
0.006,0.01,0.008,-0.5,2.6,-0.1,0,2018,4,25,17,9,13.619,0.7111,-0.2641,-0.6351,-0.1448
0.001,0.016,0.006,-0.4,1.8,-0.5,0,2018,4,25,17,9,13.624,0.7113,-0.2638,-0.6351,-0.1446
0.002,0.012,-0.006,-0.4,1.5,-0.7,0,2018,4,25,17,9,13.664,0.7115,-0.2635,-0.6351,-0.1444
-0.003,0.01,-0.005,-0.3,1.8,-0.8,0,2018,4,25,17,9,13.668,0.7116,-0.2633,-0.6351,-0.1442
-0.006,0.009,-0.008,0,2.2,-0.5,0,2018,4,25,17,9,13.684,0.7116,-0.2631,-0.6352,-0.144
-0.006,0.011,-0.011,0,2.2,0,0,2018,4,25,17,9,13.703,0.7117,-0.2628,-0.6353,-0.1438
-0.007,0.009,-0.005,0,1.7,0.2,0,2018,4,25,17,9,13.724,0.7117,-0.2625,-0.6354,-0.1436
-0.002,0.01,-0.01,0.4,1,0.2,0,2018,4,25,17,9,13.763,0.7117,-0.2622,-0.6356,-0.1436
0.003,0.007,-0.013,0.6,0.5,0,1023,2018,4,25,17,9,13.783,0.7116,-0.2621,-0.6358,-0.1435
0.006,0.004,-0.007,0.7,0.8,0,1023,2018,4,25,17,9,13.787,0.7115,-0.262,-0.6359,-0.1435
0.005,0.007,-0.007,0.8,1.3,0,1023,2018,4,25,17,9,13.807,0.7114,-0.2619,-0.6361,-0.1433
0.004,0.008,-0.001,0.9,1.5,0.2,1023,2018,4,25,17,9,13.825,0.7113,-0.2616,-0.6363,-0.1431
0.005,0.005,-0.01,0.9,1.2,0.6,1023,2018,4,25,17,9,13.866,0.7112,-0.2614,-0.6366,-0.143
0.003,0.008,-0.013,1.3,0.7,0.9,1023,2018,4,25,17,9,13.871,0.711,-0.2612,-0.6369,-0.143
0,0.007,-0.008,1.5,0.6,1,1023,2018,4,25,17,9,13.888,0.7108,-0.261,-0.6372,-0.143
-0.001,0.001,-0.011,2,1.1,1.3,1023,2018,4,25,17,9,13.907,0.7105,-0.2608,-0.6376,-0.143
-0.003,0.008,-0.01,2.4,1.9,1.6,1023,2018,4,25,17,9,13.927,0.7102,-0.2605,-0.6381,-0.1429
-0.006,0.006,-0.012,2.9,2.5,1.9,1023,2018,4,25,17,9,13.943,0.7099,-0.2601,-0.6386,-0.1428
-0.001,0.006,-0.008,3.3,2.8,1.9,1023,2018,4,25,17,9,13.98,0.7095,-0.2596,-0.6393,-0.1426
-0.001,0.01,-0.007,3.9,2.8,2.2,1023,2018,4,25,17,9,14.002,0.7091,-0.2591,-0.64,-0.1424
0.001,0.007,-0.015,4.2,2.9,2.2,1023,2018,4,25,17,9,14.007,0.7087,-0.2585,-0.6407,-0.1422
0.001,0.008,-0.012,4.6,3.3,2.9,1023,2018,4,25,17,9,14.026,0.7082,-0.258,-0.6416,-0.142
0.001,0.009,-0.01,5.1,3.8,3,1023,2018,4,25,17,9,14.046,0.7076,-0.2573,-0.6425,-0.1418
0.007,0.011,-0.014,5.5,4.6,3.5,0,2018,4,25,17,9,14.086,0.7071,-0.2565,-0.6435,-0.1415
0,0.011,-0.009,5.6,5.5,4.4,0,2018,4,25,17,9,14.09,0.7065,-0.2555,-0.6446,-0.1413
0.004,0.014,-0.01,6.1,6.7,5.2,0,2018,4,25,17,9,14.107,0.7059,-0.2543,-0.6458,-0.1409
0,0.018,0.003,6.3,7.4,6.2,0,2018,4,25,17,9,14.144,0.7053,-0.2528,-0.647,-0.1407
0.001,0.017,0.008,6.6,6.6,6.8,0,2018,4,25,17,9,14.165,0.7048,-0.2512,-0.6483,-0.1405
-0.005,0.012,0.004,7.2,6.8,7.5,0,2018,4,25,17,9,14.168,0.7041,-0.2496,-0.6496,-0.1405
-0.003,0.011,0.004,8.1,7.5,8.6,0,2018,4,25,17,9,14.186,0.7034,-0.2479,-0.6511,-0.1404
0,0.009,0.011,8.3,7.9,9.2,0,2018,4,25,17,9,14.206,0.7026,-0.246,-0.6527,-0.1404
0.005,0.004,0.005,7.8,8.7,9.6,0,2018,4,25,17,9,14.244,0.7018,-0.244,-0.6543,-0.1403
0.015,0.01,0.005,7.2,8.5,9.7,0,2018,4,25,17,9,14.264,0.7011,-0.242,-0.6558,-0.1402
0.025,0.008,0.004,6.6,8.8,9.8,0,2018,4,25,17,9,14.267,0.7005,-0.2399,-0.6572,-0.1402
0.036,0,0.007,6.7,8.2,9.2,0,2018,4,25,17,9,14.304,0.6999,-0.238,-0.6586,-0.1401
0.046,0,0.011,6.6,8.3,9.2,0,2018,4,25,17,9,14.324,0.6993,-0.236,-0.6599,-0.14
0.049,0,0.004,6.8,7.6,8.8,0,2018,4,25,17,9,14.326,0.6987,-0.2342,-0.6612,-0.1398
0.054,-0.013,0.004,7.4,7.9,8.8,0,2018,4,25,17,9,14.365,0.698,-0.2325,-0.6626,-0.1397
0.049,-0.009,0.006,7.8,8.1,8.7,0,2018,4,25,17,9,14.384,0.6973,-0.2308,-0.664,-0.1393
0.047,-0.018,0.007,8.3,8.7,9,0,2018,4,25,17,9,14.387,0.6966,-0.2291,-0.6654,-0.139
0.048,-0.029,0.001,8.8,9.4,9.4,0,2018,4,25,17,9,14.424,0.6958,-0.2273,-0.6669,-0.1386
0.074,-0.024,0.001,9.1,10.4,9.8,0,2018,4,25,17,9,14.446,0.695,-0.2253,-0.6686,-0.138
0.112,-0.038,-0.001,9.2,13.8,9.2,1023,2018,4,25,17,9,14.45,0.6942,-0.2233,-0.6702,-0.1371
0.132,-0.048,-0.022,9.4,27,10.1,1023,2018,4,25,17,9,14.487,0.6937,-0.2204,-0.6721,-0.1349
0.18,0.037,0.017,9.1,24.1,8.4,1023,2018,4,25,17,9,14.507,0.6934,-0.2163,-0.6742,-0.1328
0.17,-0.057,-0.013,8.4,34.8,6.3,1023,2018,4,25,17,9,14.512,0.6934,-0.2126,-0.6761,-0.1297
0.183,0.017,-0.005,8.5,37.9,4.9,1023,2018,4,25,17,9,14.53,0.6934,-0.2077,-0.6783,-0.1254
0.146,-0.043,0.005,10.1,42.8,4.8,1023,2018,4,25,17,9,14.55,0.6927,-0.2023,-0.6815,-0.1212
0.125,-0.009,0.01,10.1,46.5,2.4,1023,2018,4,25,17,9,14.57,0.6922,-0.1962,-0.6846,-0.1162
0.119,-0.07,-0.007,10.5,48.8,-1.1,1023,2018,4,25,17,9,14.611,0.6919,-0.1906,-0.6875,-0.1104
0.14,-0.092,-0.026,10.6,53.5,-5.3,1023,2018,4,25,17,9,14.631,0.6916,-0.1851,-0.6903,-0.1034
0.134,-0.056,-0.009,11.1,58.5,-10.3,1023,2018,4,25,17,9,14.635,0.6915,-0.1796,-0.6931,-0.0952
0.131,-0.018,0.036,9.5,61.8,-14.6,1023,2018,4,25,17,9,14.654,0.6918,-0.1736,-0.6954,-0.0863
0.12,-0.004,0.033,7.3,63.4,-18,1023,2018,4,25,17,9,14.675,0.6926,-0.1674,-0.6973,-0.077
0.109,-0.04,0.027,5.2,63.4,-20.9,1023,2018,4,25,17,9,14.695,0.6934,-0.1616,-0.6988,-0.0673
0.067,-0.059,0.048,0.3,69.2,-22.6,1023,2018,4,25,17,9,14.71,0.6947,-0.1558,-0.6998,-0.0568
0.022,-0.025,0.037,-6.8,70.4,-25.4,0,2018,4,25,17,9,14.751,0.6968,-0.1495,-0.6999,-0.0459
-0.009,0.012,0.042,-13.3,61.7,-30.6,0,2018,4,25,17,9,14.755,0.6996,-0.1437,-0.699,-0.0355
-0.048,0.05,0.052,-20.3,50.9,-36.5,0,2018,4,25,17,9,14.771,0.7027,-0.1394,-0.6971,-0.0261
-0.057,0.042,0.028,-26.7,38.5,-42.3,0,2018,4,25,17,9,14.809,0.7062,-0.137,-0.6943,-0.0178
-0.078,0.031,0.01,-31.5,28.9,-47.5,0,2018,4,25,17,9,14.83,0.71,-0.1368,-0.6906,-0.0101
-0.089,0.044,-0.02,-35.4,18.8,-51.7,0,2018,4,25,17,9,14.834,0.7137,-0.1382,-0.6865,-0.0033
-0.099,0.085,-0.052,-36.8,7.6,-55.9,0,2018,4,25,17,9,14.854,0.7172,-0.1414,-0.6822,0.0026
-0.118,0.068,-0.074,-37.3,0.1,-58.9,0,2018,4,25,17,9,14.873,0.7203,-0.1461,-0.678,0.0075
-0.123,0.069,-0.085,-37.2,5.9,-58.7,0,2018,4,25,17,9,14.894,0.7231,-0.1509,-0.6739,0.0127
-0.12,0.058,-0.105,-36.1,14.5,-57.5,0,2018,4,25,17,9,14.914,0.7262,-0.1549,-0.6694,0.0187
-0.138,0.065,-0.119,-33.8,28,-54.7,0,2018,4,25,17,9,14.933,0.7294,-0.1573,-0.6652,0.0261
-0.143,0.083,-0.145,-30.9,36.9,-51.9,0,2018,4,25,17,9,14.952,0.7323,-0.1576,-0.6615,0.0344
-0.138,0.071,-0.134,-28.2,44.4,-48.9,0,2018,4,25,17,9,14.972,0.7351,-0.1566,-0.658,0.0433
-0.138,0.106,-0.119,-23.5,45.1,-43.6,0,2018,4,25,17,9,15.012,0.7399,-0.1516,-0.6524,0.0618
-0.134,0.069,-0.133,-21.2,40.2,-42.3,0,2018,4,25,17,9,15.016,0.7416,-0.1494,-0.6501,0.0701
-0.139,0.034,-0.12,-19.6,40.7,-39.4,0,2018,4,25,17,9,15.035,0.743,-0.1472,-0.6481,0.0779
-0.127,-0.005,-0.12,-19.1,47.6,-35,0,2018,4,25,17,9,15.071,0.7455,-0.1404,-0.6447,0.0933
-0.256,-0.07,-0.003,-29.7,76,-33,0,2018,4,25,17,9,15.089,0.7472,-0.1351,-0.6424,0.1026
-0.245,-0.038,0.144,-56,119.7,-34.7,1023,2018,4,25,17,9,15.094,0.7529,-0.1242,-0.6355,0.1169
-0.232,-0.087,0.413,-78.5,64.3,-49,1023,2018,4,25,17,9,15.133,0.7601,-0.1152,-0.6259,0.1304
-0.084,-0.023,0.311,-84.4,25.4,-45.9,1023,2018,4,25,17,9,15.152,0.7671,-0.1149,-0.6158,0.138
-0.047,0.044,0.19,-86.5,14.7,-43.9,1023,2018,4,25,17,9,15.157,0.7738,-0.1167,-0.6058,0.1428
-0.004,0.043,0.072,-84,3.6,-42,1023,2018,4,25,17,9,15.174,0.7806,-0.1198,-0.5955,0.1467
0,0.063,0.012,-77.5,-1.5,-37.5,1023,2018,4,25,17,9,15.193,0.7871,-0.1237,-0.5854,0.1496
-0.023,0.04,0.012,-70.8,2.4,-32.4,1023,2018,4,25,17,9,15.213,0.7926,-0.1271,-0.5765,0.1519
-0.04,0.018,0.034,-65.8,18.3,-26.7,1023,2018,4,25,17,9,15.251,0.7979,-0.1283,-0.5682,0.1548
-0.066,0,0.062,-62.1,31.2,-21.7,1023,2018,4,25,17,9,15.271,0.8029,-0.1266,-0.5603,0.1587
-0.062,0.017,0.076,-58.1,30.6,-18.8,1023,2018,4,25,17,9,15.275,0.8078,-0.1235,-0.5527,0.1628
-0.037,0.032,0.056,-53.6,15.7,-17.9,1023,2018,4,25,17,9,15.295,0.8122,-0.1213,-0.5459,0.1659
-0.01,0.026,0.022,-49.7,2,-16.1,1023,2018,4,25,17,9,15.317,0.8157,-0.1211,-0.5402,0.1675
-0.024,-0.049,-0.014,-42.2,9.1,-13.1,1023,2018,4,25,17,9,15.354,0.8209,-0.1223,-0.5312,0.1697
-0.025,-0.056,-0.031,-38.8,17.1,-15.1,1023,2018,4,25,17,9,15.375,0.823,-0.1216,-0.5274,0.172
0.003,-0.04,-0.044,-35.5,23.2,-17.5,1023,2018,4,25,17,9,15.379,0.8248,-0.12,-0.5238,0.1755
0.023,-0.012,-0.047,-33.5,25.6,-19.1,1023,2018,4,25,17,9,15.418,0.8265,-0.1179,-0.5202,0.1797
0.057,0.007,-0.055,-30.1,18.8,-18.3,0,2018,4,25,17,9,15.438,0.8307,-0.1119,-0.5101,0.1923
0.053,-0.003,-0.044,-29.2,20.1,-17.9,0,2018,4,25,17,9,15.443,0.8319,-0.1104,-0.507,0.1963
0.051,0.005,-0.018,-28.8,22.4,-18.1,0,2018,4,25,17,9,15.457,0.8331,-0.1085,-0.5037,0.2005
0.057,0.022,0.003,-29.7,21.3,-18,0,2018,4,25,17,9,15.475,0.8343,-0.1062,-0.5006,0.2048
0.062,0.021,0.013,-31.5,19.5,-16.7,0,2018,4,25,17,9,15.497,0.8357,-0.104,-0.497,0.2089
0.04,-0.006,0.037,-33.6,17.1,-15.1,0,2018,4,25,17,9,15.519,0.8372,-0.1022,-0.4932,0.2126
0.023,0.001,0.058,-37.1,10.5,-13.8,0,2018,4,25,17,9,15.538,0.839,-0.1009,-0.489,0.2158
0.017,-0.036,0.062,-40.8,5.8,-13.4,0,2018,4,25,17,9,15.576,0.8411,-0.1009,-0.4844,0.2181
0.009,-0.029,0.065,-44.7,8.2,-13.9,0,2018,4,25,17,9,15.596,0.8432,-0.1011,-0.4796,0.2205
0.01,-0.003,0.028,-45.8,8.7,-14,0,2018,4,25,17,9,15.6,0.8454,-0.101,-0.4745,0.223
0.016,0.036,-0.002,-44.2,5.2,-14.1,0,2018,4,25,17,9,15.619,0.8477,-0.1011,-0.4694,0.2253
0.019,0.069,-0.012,-41,-2.1,-14.5,0,2018,4,25,17,9,15.659,0.8495,-0.1016,-0.465,0.2272
0.01,0.045,-0.018,-38.5,-6.7,-14.8,0,2018,4,25,17,9,15.679,0.851,-0.1029,-0.4612,0.2287
0.018,0.041,-0.058,-35.7,-9.1,-14.4,0,2018,4,25,17,9,15.683,0.8521,-0.105,-0.458,0.23
0.032,0.052,-0.092,-31.6,-9.8,-13.6,0,2018,4,25,17,9,15.698,0.8528,-0.1072,-0.4555,0.2313
0.033,0.054,-0.088,-27,-8.4,-12.8,0,2018,4,25,17,9,15.718,0.8531,-0.109,-0.4539,0.2326
0.034,0.063,-0.079,-22.9,-8,-12.3,0,2018,4,25,17,9,15.738,0.8533,-0.1105,-0.4525,0.2339
0.037,0.065,-0.066,-18.9,-9.5,-11.9,1023,2018,4,25,17,9,15.774,0.8531,-0.1117,-0.4519,0.2352
0.034,0.052,-0.053,-15.9,-9.2,-10.6,1023,2018,4,25,17,9,15.795,0.8527,-0.113,-0.4517,0.2365
0.048,0.055,-0.026,-13.5,-7.9,-9.8,1023,2018,4,25,17,9,15.799,0.8521,-0.1139,-0.4518,0.2379
0.054,0.071,-0.018,-11.4,-9.6,-8.9,1023,2018,4,25,17,9,15.837,0.8516,-0.1146,-0.452,0.2391
0.077,0.081,-0.001,-9.9,-11.9,-8.2,1023,2018,4,25,17,9,15.858,0.8511,-0.1155,-0.4523,0.2401
0.091,0.071,0.047,-9,-21.2,-5.9,1023,2018,4,25,17,9,15.862,0.8501,-0.1184,-0.4528,0.2409
0.065,0.032,0.029,-9.1,-29.5,2.2,1023,2018,4,25,17,9,15.884,0.8474,-0.1309,-0.4574,0.2355
0.018,0,-0.02,-3.9,-25,9.9,1023,2018,4,25,17,9,15.903,0.8452,-0.1396,-0.4626,0.228
0.021,0.004,-0.015,-3.4,-18.3,12.1,1023,2018,4,25,17,9,15.94,0.8445,-0.1411,-0.4647,0.2254
0.018,0.005,-0.007,-2.9,-15.8,13.1,1023,2018,4,25,17,9,15.96,0.844,-0.1417,-0.4666,0.2229
0.009,0.011,0,-2,-16.2,13.4,1023,2018,4,25,17,9,15.965,0.8435,-0.1421,-0.4686,0.2203
0.01,0.006,-0.007,-1.1,-18,13.5,1023,2018,4,25,17,9,15.979,0.8429,-0.1428,-0.4707,0.2177
0.009,0.015,0,-0.3,-20.9,13.2,1023,2018,4,25,17,9,16.015,0.8422,-0.1436,-0.4729,0.2149
0.009,0.008,-0.002,0.6,-23.9,12.4,1023,2018,4,25,17,9,16.036,0.8414,-0.1452,-0.4753,0.2118
0.005,-0.005,0,2,-26.5,11.5,1023,2018,4,25,17,9,16.041,0.8403,-0.1472,-0.478,0.2088
0.008,-0.038,-0.015,4.6,-26.9,8.9,0,2018,4,25,17,9,16.081,0.8374,-0.1526,-0.4839,0.2029
0.003,-0.041,-0.016,5.6,-21.7,7.8,0,2018,4,25,17,9,16.1,0.8357,-0.1552,-0.487,0.2006
-0.009,-0.044,-0.02,6.6,-15.3,6.3,0,2018,4,25,17,9,16.105,0.8338,-0.1567,-0.4903,0.199
-0.029,-0.037,-0.025,7.2,-9.4,4.9,0,2018,4,25,17,9,16.147,0.8322,-0.1574,-0.4933,0.1981
-0.057,-0.029,-0.024,7.1,-5.3,3,0,2018,4,25,17,9,16.15,0.8305,-0.1575,-0.4962,0.1978
-0.069,-0.027,-0.017,5.9,-1.1,0.8,0,2018,4,25,17,9,16.162,0.829,-0.1572,-0.4988,0.198
-0.068,-0.001,-0.021,4.6,1.5,-0.8,0,2018,4,25,17,9,16.199,0.8277,-0.1564,-0.5009,0.1987
-0.054,0.033,-0.032,3.5,0.8,-1.9,0,2018,4,25,17,9,16.201,0.8266,-0.1554,-0.5026,0.1996
-0.04,0.059,-0.043,3.1,-3.2,-1.7,0,2018,4,25,17,9,16.222,0.8255,-0.1548,-0.5043,0.2003
-0.03,0.066,-0.035,3,-7,-0.1,0,2018,4,25,17,9,16.257,0.8244,-0.1547,-0.506,0.2005
-0.033,0.055,-0.021,2.2,-11.1,1.2,0,2018,4,25,17,9,16.277,0.8234,-0.1549,-0.5077,0.2002
-0.035,0.022,0,0.2,-10.6,1.5,0,2018,4,25,17,9,16.281,0.8225,-0.1556,-0.5092,0.1996
-0.026,-0.008,0.003,-4.7,-13.3,-1.3,0,2018,4,25,17,9,16.317,0.8207,-0.1592,-0.5115,0.1981
-0.012,-0.006,-0.015,-4.8,-12.5,-1.5,0,2018,4,25,17,9,16.337,0.8203,-0.161,-0.5117,0.1978
0.004,0.004,-0.029,-4,-10.7,-1.2,0,2018,4,25,17,9,16.341,0.8198,-0.1628,-0.512,0.1976
0.016,0.01,-0.031,-2.5,-9.3,-0.4,0,2018,4,25,17,9,16.375,0.8192,-0.1642,-0.5125,0.1976
0.023,0.005,-0.025,-0.8,-7.8,0.2,0,2018,4,25,17,9,16.396,0.8186,-0.1651,-0.5133,0.1977
0.018,-0.003,-0.009,0.1,-5.8,0.9,1023,2018,4,25,17,9,16.405,0.818,-0.1659,-0.5139,0.1978
0.009,-0.01,-0.002,0.3,-3.6,1.1,1023,2018,4,25,17,9,16.422,0.8174,-0.1663,-0.5146,0.1982
0.003,-0.004,0.003,0.2,-2.2,1,1023,2018,4,25,17,9,16.458,0.8169,-0.1664,-0.5152,0.1987
-0.002,0.002,-0.006,0.1,-2.3,0.4,1023,2018,4,25,17,9,16.48,0.8164,-0.1665,-0.5156,0.1992
-0.003,0.013,-0.014,0.6,-3.3,0,1023,2018,4,25,17,9,16.481,0.8158,-0.1664,-0.5165,0.1997
-0.003,0.014,-0.024,1.2,-5,0,1023,2018,4,25,17,9,16.519,0.8151,-0.1666,-0.5173,0.2001
-0.004,0.004,-0.027,1.7,-5,-0.1,1023,2018,4,25,17,9,16.538,0.8143,-0.1669,-0.5184,0.2005
-0.006,0,-0.023,1.9,-3.9,-0.3,1023,2018,4,25,17,9,16.544,0.8134,-0.1672,-0.5194,0.201
-0.005,-0.007,-0.018,1.9,-1.9,-0.8,1023,2018,4,25,17,9,16.58,0.8126,-0.1675,-0.5203,0.2017
-0.003,0,-0.017,1.6,-0.5,-1.1,1023,2018,4,25,17,9,16.6,0.8119,-0.1674,-0.521,0.2026
-0.004,0.007,-0.006,1.1,0.6,-1.2,1023,2018,4,25,17,9,16.604,0.8113,-0.1672,-0.5217,0.2037
-0.001,0.015,-0.003,1.1,0.4,-0.9,1023,2018,4,25,17,9,16.641,0.8108,-0.1668,-0.5222,0.2047
-0.004,0.021,-0.006,0.8,-0.6,-0.7,1023,2018,4,25,17,9,16.661,0.8103,-0.1663,-0.5227,0.2057
-0.004,0.014,-0.005,0.6,-3.1,-0.2,1023,2018,4,25,17,9,16.667,0.8094,-0.1658,-0.5238,0.207
-0.001,0.005,-0.009,0.6,-2.8,0,1023,2018,4,25,17,9,16.704,0.8088,-0.1657,-0.5246,0.2076
0.002,0.005,-0.013,0.3,-1.5,0,1023,2018,4,25,17,9,16.726,0.8081,-0.1656,-0.5254,0.2082
-0.002,0.005,-0.014,0.2,-0.7,0,0,2018,4,25,17,9,16.73,0.8075,-0.1654,-0.526,0.209
-0.002,0.007,-0.011,0,-0.8,0,0,2018,4,25,17,9,16.745,0.8071,-0.1651,-0.5264,0.2097
0,0.008,-0.007,-0.2,-0.8,0,0,2018,4,25,17,9,16.783,0.8068,-0.1648,-0.5268,0.2105
0,0.004,-0.01,0,-0.6,0.1,0,2018,4,25,17,9,16.803,0.8064,-0.1645,-0.5271,0.2113
0,0.005,-0.011,0,0,0,0,2018,4,25,17,9,16.807,0.8061,-0.1641,-0.5274,0.2121
0.002,0.005,-0.016,0,0,0,0,2018,4,25,17,9,16.845,0.8058,-0.1637,-0.5276,0.213
0.003,0.003,-0.011,0,0,0,0,2018,4,25,17,9,16.868,0.8054,-0.1633,-0.5279,0.2139
0.001,0.009,-0.013,0,0,0,0,2018,4,25,17,9,16.872,0.805,-0.1629,-0.5283,0.2148
0,0.009,-0.009,0,0,0,0,2018,4,25,17,9,16.889,0.8046,-0.1625,-0.5286,0.2157
0.001,0.008,-0.008,0.4,-0.5,0.1,0,2018,4,25,17,9,16.911,0.8042,-0.1622,-0.529,0.2165
0,0.008,-0.011,0,0,0,0,2018,4,25,17,9,16.93,0.8039,-0.1619,-0.5293,0.2173
0.002,0.006,-0.007,0,0,0,0,2018,4,25,17,9,16.949,0.8034,-0.1615,-0.5298,0.2182
0.004,0.009,-0.012,0.6,0,0,0,2018,4,25,17,9,16.968,0.803,-0.1609,-0.5302,0.2191
0.004,0.011,-0.009,0.8,0.1,0.1,0,2018,4,25,17,9,16.987,0.8026,-0.1603,-0.5306,0.22
0.003,0.012,-0.011,0.6,0.5,0.2,0,2018,4,25,17,9,17.026,0.8022,-0.1598,-0.531,0.221
0,0.011,-0.009,0.8,0,0.2,0,2018,4,25,17,9,17.045,0.8018,-0.1593,-0.5313,0.2219
-0.002,0.01,-0.008,0,0,0,1023,2018,4,25,17,9,17.049,0.8014,-0.159,-0.5317,0.2227
-0.001,0.009,-0.007,0.5,-0.3,0,1023,2018,4,25,17,9,17.07,0.801,-0.1586,-0.5321,0.2235
-0.002,0.01,-0.009,0,0,0,1023,2018,4,25,17,9,17.089,0.8007,-0.1583,-0.5322,0.2244
-0.003,0.01,-0.01,0,0,0,1023,2018,4,25,17,9,17.128,0.8003,-0.1579,-0.5325,0.2253
-0.002,0.012,-0.014,0,0,0,1023,2018,4,25,17,9,17.148,0.7998,-0.1575,-0.5331,0.2261
-0.001,0.009,-0.011,0,0,0,1023,2018,4,25,17,9,17.153,0.7995,-0.1571,-0.5334,0.227
0,0.01,-0.007,0,0,0,1023,2018,4,25,17,9,17.19,0.7992,-0.1567,-0.5335,0.2279
-0.004,0.007,-0.009,0,0,0,1023,2018,4,25,17,9,17.211,0.7988,-0.1564,-0.5338,0.2288
0,0.008,-0.013,-0.6,-0.7,0.2,1023,2018,4,25,17,9,17.215,0.7985,-0.156,-0.5339,0.2296
-0.001,0.008,-0.014,-0.4,-0.8,0,1023,2018,4,25,17,9,17.234,0.7981,-0.1556,-0.5343,0.2304
0,0.01,-0.013,-0.2,-0.6,0.2,1023,2018,4,25,17,9,17.251,0.7977,-0.1553,-0.5348,0.2311
-0.002,0.006,-0.01,0,-0.8,0.1,1023,2018,4,25,17,9,17.273,0.7974,-0.1549,-0.535,0.232
-0.005,0.002,-0.009,-0.1,-0.5,0,1023,2018,4,25,17,9,17.293,0.797,-0.1547,-0.5353,0.2328
0,0.007,-0.01,0,0,0,1023,2018,4,25,17,9,17.311,0.7967,-0.1543,-0.5355,0.2337
0,0.005,-0.008,-0.5,0.4,0,1023,2018,4,25,17,9,17.33,0.7963,-0.1539,-0.5357,0.2346
0.001,0.007,-0.011,-0.7,1,0.1,1023,2018,4,25,17,9,17.37,0.796,-0.1534,-0.5359,0.2356
0.003,0.009,-0.01,-0.8,1.6,0.6,0,2018,4,25,17,9,17.39,0.7958,-0.1528,-0.5359,0.2366
0,0.014,-0.007,-0.7,2.2,1.3,0,2018,4,25,17,9,17.394,0.7957,-0.152,-0.5358,0.2375
-0.003,0.005,-0.007,-0.9,1,1.3,0,2018,4,25,17,9,17.415,0.7956,-0.1511,-0.5359,0.2384
-0.004,-0.007,-0.004,-0.7,-0.4,0.1,0,2018,4,25,17,9,17.435,0.7953,-0.1506,-0.5362,0.2392
-0.011,-0.021,0,-0.8,0,-1.1,0,2018,4,25,17,9,17.455,0.7948,-0.1504,-0.5364,0.2401
-0.015,-0.034,-0.002,-1.1,1.7,-2.6,0,2018,4,25,17,9,17.491,0.7943,-0.1503,-0.5367,0.2414
-0.01,-0.017,0,-1.3,4.7,-3.6,0,2018,4,25,17,9,17.509,0.794,-0.15,-0.5364,0.2431
0,0,-0.011,-1.5,6.2,-4.4,0,2018,4,25,17,9,17.514,0.7938,-0.1494,-0.5361,0.2451
0.005,0.011,0,-1.3,5.7,-4.8,0,2018,4,25,17,9,17.533,0.7934,-0.1485,-0.5359,0.2472
0.003,0.006,0.012,-1.5,4,-5.1,0,2018,4,25,17,9,17.553,0.7931,-0.1477,-0.5357,0.2493
0.005,0.003,0.003,-1.8,2.5,-5.5,0,2018,4,25,17,9,17.591,0.7927,-0.1474,-0.5354,0.2512
0.005,0.008,-0.011,-1.9,2.5,-6.1,0,2018,4,25,17,9,17.611,0.7924,-0.1472,-0.535,0.2532
0.005,0.004,-0.013,-1.7,3,-6,0,2018,4,25,17,9,17.616,0.792,-0.147,-0.5347,0.2552
0.007,0.005,-0.019,-1.6,3.7,-6.2,0,2018,4,25,17,9,17.655,0.7915,-0.1466,-0.5344,0.2573
0.011,0.015,-0.025,-1.1,5.4,-6.4,0,2018,4,25,17,9,17.675,0.7911,-0.1463,-0.5341,0.2596
0.012,0.017,-0.019,-0.7,5.9,-6.4,0,2018,4,25,17,9,17.679,0.7906,-0.1457,-0.5338,0.2619
0.009,0.022,-0.016,0.3,6.4,-5.7,1023,2018,4,25,17,9,17.697,0.7899,-0.1448,-0.5339,0.2643
0.005,0.018,-0.012,1.2,7.1,-4.7,1023,2018,4,25,17,9,17.717,0.7894,-0.1439,-0.5338,0.2666
0.005,0.023,-0.007,1.6,8.2,-4.1,1023,2018,4,25,17,9,17.735,0.7888,-0.1426,-0.5338,0.2689
0.005,0.026,0.005,1.3,8.5,-3.5,1023,2018,4,25,17,9,17.753,0.7884,-0.141,-0.5336,0.2712
0.008,0.032,0.004,0.8,7.6,-3.1,1023,2018,4,25,17,9,17.773,0.788,-0.1393,-0.5335,0.2734
0.009,0.041,-0.002,0.5,4.4,-2.5,1023,2018,4,25,17,9,17.813,0.7877,-0.1379,-0.5334,0.2754
0.016,0.04,-0.009,1.1,1.2,-2.1,1023,2018,4,25,17,9,17.833,0.7872,-0.1369,-0.5336,0.2769
0.021,0.036,-0.018,2.1,-0.9,-1,1023,2018,4,25,17,9,17.838,0.7866,-0.1362,-0.534,0.2782
0.024,0.031,-0.023,3,-1.9,-0.1,1023,2018,4,25,17,9,17.875,0.7859,-0.1357,-0.5347,0.2792
0.025,0.026,-0.02,4,-1.7,0.7,1023,2018,4,25,17,9,17.895,0.7851,-0.1351,-0.5355,0.2801
0.021,0.02,-0.007,4.1,-1.5,1.6,1023,2018,4,25,17,9,17.899,0.7844,-0.1344,-0.5363,0.281
0.016,0.02,-0.005,4.4,-0.8,1.8,1023,2018,4,25,17,9,17.919,0.7836,-0.1335,-0.5371,0.2818
0.018,0.017,-0.005,4.6,-0.9,2,1023,2018,4,25,17,9,17.939,0.783,-0.1327,-0.5379,0.2826
0.021,0.012,-0.008,5,-2,2.3,1023,2018,4,25,17,9,17.96,0.7823,-0.1319,-0.5387,0.2834
0.011,0.004,-0.003,5.6,-2.5,2.4,1023,2018,4,25,17,9,17.978,0.7815,-0.1311,-0.5396,0.2841
0.014,0.004,-0.001,6.2,-2.2,2.3,1023,2018,4,25,17,9,18.019,0.7805,-0.1303,-0.5409,0.2848
0.018,0.004,-0.001,6.7,-1.6,1.9,1023,2018,4,25,17,9,18.04,0.7795,-0.1294,-0.5421,0.2856
0.024,0.008,-0.007,7.4,-1.6,1.5,1023,2018,4,25,17,9,18.044,0.7785,-0.1287,-0.5432,0.2865
0.028,0.014,-0.013,8.4,-1.6,1.7,1023,2018,4,25,17,9,18.058,0.7776,-0.128,-0.5441,0.2875
0.031,0.013,-0.012,9.7,-0.6,2.1,1023,2018,4,25,17,9,18.078,0.7764,-0.1271,-0.5456,0.2884
0.03,0.013,-0.018,11.2,0.1,2.4,0,2018,4,25,17,9,18.097,0.7752,-0.1259,-0.5471,0.2895
0.032,0.007,-0.008,13.3,0.9,3.2,0,2018,4,25,17,9,18.133,0.7738,-0.1246,-0.5487,0.2906
0.028,0.021,-0.006,15.2,1.8,3.7,0,2018,4,25,17,9,18.153,0.7723,-0.1229,-0.5506,0.2918
0.031,0.013,-0.007,17,1.6,4.1,0,2018,4,25,17,9,18.158,0.7708,-0.121,-0.5524,0.293
0.035,0.017,0.003,18.6,1.2,4.7,0,2018,4,25,17,9,18.197,0.7692,-0.1192,-0.5545,0.2941
0.041,0.012,-0.004,20,0.6,5.3,0,2018,4,25,17,9,18.219,0.7676,-0.1174,-0.5565,0.2951
0.031,0.019,-0.019,22.1,-0.4,6.6,0,2018,4,25,17,9,18.223,0.7657,-0.1152,-0.5592,0.296
0.025,0.029,-0.027,25.5,-1.5,8.2,0,2018,4,25,17,9,18.242,0.7634,-0.1128,-0.5624,0.2966
0.025,0.021,-0.015,28.9,-0.8,10.2,0,2018,4,25,17,9,18.279,0.761,-0.1101,-0.5661,0.297
0.019,0.026,-0.001,32.8,-1.6,12.1,0,2018,4,25,17,9,18.283,0.7583,-0.107,-0.5702,0.2971
0.025,0.042,0.016,35.1,-7.1,14,0,2018,4,25,17,9,18.3,0.7556,-0.1038,-0.5746,0.2967
0.036,0.032,0.029,36.8,-12,15.5,0,2018,4,25,17,9,18.338,0.7525,-0.1009,-0.5796,0.2956
0.053,0.042,0.014,37.3,-16.6,17.6,0,2018,4,25,17,9,18.357,0.7495,-0.0986,-0.5848,0.2939
0.076,0.041,0,38.7,-20.8,20.5,0,2018,4,25,17,9,18.361,0.7464,-0.0968,-0.5903,0.2914
0.098,0.043,-0.023,40.9,-23.9,24,1023,2018,4,25,17,9,18.381,0.7433,-0.0954,-0.5959,0.2883
0.111,0.013,-0.033,43.3,-24.8,27.3,1023,2018,4,25,17,9,18.402,0.7398,-0.0939,-0.6022,0.2847
0.078,-0.05,-0.028,45.3,-19.8,29.6,1023,2018,4,25,17,9,18.422,0.7361,-0.0921,-0.6088,0.2809
0.029,-0.116,-0.039,45.5,-12.6,29.7,1023,2018,4,25,17,9,18.442,0.7322,-0.0893,-0.6154,0.2777
-0.025,-0.137,-0.029,47.9,-5.5,26.2,1023,2018,4,25,17,9,18.462,0.7279,-0.0855,-0.622,0.2753
-0.07,-0.137,0.023,52.7,0.5,26.6,1023,2018,4,25,17,9,18.502,0.7233,-0.0808,-0.6286,0.2739
-0.061,-0.152,0.04,55.5,10.3,27.3,1023,2018,4,25,17,9,18.506,0.7187,-0.0749,-0.6348,0.2732
-0.051,-0.111,0.041,58,25.5,27.4,1023,2018,4,25,17,9,18.523,0.7141,-0.0671,-0.6405,0.2741
-0.041,-0.048,0.08,60.9,33,28.9,1023,2018,4,25,17,9,18.562,0.7097,-0.0575,-0.6454,0.2762
-0.042,-0.018,0.087,63,32.3,29.6,1023,2018,4,25,17,9,18.566,0.7053,-0.0472,-0.6502,0.2782
-0.055,-0.002,0.098,63.5,29.1,29.6,1023,2018,4,25,17,9,18.582,0.7007,-0.0366,-0.6552,0.2797
-0.031,0.059,0.105,62.7,19,30.3,1023,2018,4,25,17,9,18.601,0.6963,-0.0266,-0.6601,0.2804
-0.008,0.034,0.095,61.5,5.1,31.6,1023,2018,4,25,17,9,18.636,0.6921,-0.0182,-0.6652,0.2794
0.04,0.007,0.089,56.9,-18.7,30.7,0,2018,4,25,17,9,18.655,0.6797,-0.0023,-0.6819,0.2698
0.019,0.052,0.079,54.5,-22.8,33,0,2018,4,25,17,9,18.662,0.6761,0.0016,-0.6875,0.2649
0.004,0.095,0.052,53,-28.4,36.5,0,2018,4,25,17,9,18.7,0.6727,0.0054,-0.6929,0.259
-0.035,0.114,0.028,52.1,-41.2,39.9,0,2018,4,25,17,9,18.719,0.6697,0.0086,-0.6987,0.2511
-0.072,0.092,0,52,-55.3,42.5,0,2018,4,25,17,9,18.723,0.6666,0.0105,-0.7052,0.241
-0.106,0.094,-0.03,51.1,-67.2,44.6,0,2018,4,25,17,9,18.765,0.6634,0.0111,-0.7122,0.2288
-0.131,0.123,-0.063,49.8,-81.3,46,0,2018,4,25,17,9,18.783,0.6589,0.0109,-0.721,0.2138
-0.143,0.107,-0.077,49,-94.8,48.4,0,2018,4,25,17,9,18.788,0.6543,0.0092,-0.7301,0.1965
-0.15,0.099,-0.081,46.4,-98.1,51.8,0,2018,4,25,17,9,18.803,0.6498,0.0067,-0.7389,0.1778
-0.159,0.085,-0.053,43.1,-96.6,55.7,0,2018,4,25,17,9,18.842,0.6456,0.0043,-0.7469,0.1587
-0.17,0.058,-0.015,40.6,-92,57.5,0,2018,4,25,17,9,18.863,0.643,0.0018,-0.7527,0.1409
-0.197,-0.011,-0.056,6.9,-59.4,66.4,0,2018,4,25,17,9,18.867,0.6387,-0.0058,-0.7656,0.0758
-0.166,-0.066,-0.076,1.1,-9.2,74.8,0,2018,4,25,17,9,18.885,0.6399,-0.0024,-0.7656,0.0653
-0.109,-0.024,-0.099,0.8,18.9,69.6,0,2018,4,25,17,9,18.924,0.6415,0.0066,-0.7646,0.0606
-0.098,0.03,-0.127,5.9,25.2,65.8,0,2018,4,25,17,9,18.944,0.642,0.0166,-0.7642,0.058
-0.064,0.029,-0.097,6.6,34.6,63.6,0,2018,4,25,17,9,18.948,0.6421,0.0273,-0.764,0.056
-0.026,0.092,-0.083,8.1,42,60.2,0,2018,4,25,17,9,18.968,0.6423,0.0383,-0.7634,0.0562
0.016,0.126,-0.091,10,34.8,56.7,0,2018,4,25,17,9,18.987,0.6412,0.0501,-0.7636,0.0552
0.037,0.066,-0.049,10.2,11.9,45.8,0,2018,4,25,17,9,19.002,0.6402,0.0666,-0.7634,0.0523
0.043,0.032,-0.034,9,2.9,40.2,0,2018,4,25,17,9,19.024,0.6402,0.0714,-0.7631,0.0503
0.034,0.008,-0.023,6.2,-3.9,36.3,0,2018,4,25,17,9,19.043,0.6406,0.0745,-0.7626,0.0479
0.045,0.004,-0.037,1.9,-8.7,33.5,0,2018,4,25,17,9,19.081,0.6416,0.0764,-0.7618,0.0453
0.051,0.017,-0.067,-0.8,-17.8,30.2,1023,2018,4,25,17,9,19.102,0.6429,0.0774,-0.7608,0.042
0.061,0.012,-0.095,-2.7,-30.4,25.6,1023,2018,4,25,17,9,19.107,0.6443,0.0768,-0.7599,0.0373
0.061,-0.025,-0.095,-4.5,-34.1,19.7,1023,2018,4,25,17,9,19.127,0.6458,0.0744,-0.7591,0.0322
0.078,-0.022,-0.075,-8,-34.8,14.7,1023,2018,4,25,17,9,19.147,0.6477,0.0712,-0.7579,0.0276
0.083,-0.033,-0.072,-11.1,-33.9,10.3,1023,2018,4,25,17,9,19.185,0.6501,0.0674,-0.7564,0.0234
0.08,-0.025,-0.064,-13,-30.5,6,1023,2018,4,25,17,9,19.206,0.6527,0.0632,-0.7546,0.0202
0.083,-0.017,-0.058,-14,-30.7,2.6,1023,2018,4,25,17,9,19.208,0.6555,0.0588,-0.7526,0.0176
0.081,-0.027,-0.061,-13.8,-29.9,-0.4,1023,2018,4,25,17,9,19.227,0.6584,0.0539,-0.7505,0.0153
0.079,-0.021,-0.07,-13.6,-30.3,-2.9,1023,2018,4,25,17,9,19.247,0.661,0.0487,-0.7486,0.0133
0.076,-0.011,-0.069,-12.2,-32.3,-5.1,1023,2018,4,25,17,9,19.287,0.6634,0.043,-0.7468,0.0115
0.084,-0.01,-0.068,-10.3,-33.5,-6.9,1023,2018,4,25,17,9,19.307,0.6656,0.0368,-0.7453,0.0096
0.093,-0.003,-0.052,-8.4,-34.6,-8.7,1023,2018,4,25,17,9,19.31,0.6675,0.0303,-0.7439,0.0077
0.103,0,-0.055,-5.8,-36.1,-9.4,1023,2018,4,25,17,9,19.326,0.6691,0.0236,-0.7427,0.0058
0.102,-0.005,-0.043,-3.7,-35.5,-9.3,1023,2018,4,25,17,9,19.364,0.6703,0.0167,-0.7418,0.0038
0.099,-0.007,-0.028,-2.4,-32,-8.4,0,2018,4,25,17,9,19.385,0.6714,0.0101,-0.741,0.002
0.101,-0.007,-0.022,-1.4,-26.2,-6.5,0,2018,4,25,17,9,19.389,0.6722,0.004,-0.7403,0.0009
0.096,0,-0.013,-1.3,-22.5,-4.8,0,2018,4,25,17,9,19.408,0.673,-0.0007,-0.7395,-0.0001
0.084,0,-0.009,-1.1,-19.5,-3.1,0,2018,4,25,17,9,19.429,0.6738,-0.0052,-0.7388,-0.0008
0.074,0.002,0.007,-1.3,-15.8,-0.9,0,2018,4,25,17,9,19.469,0.6747,-0.0086,-0.7379,-0.0015
0.064,0.003,0.016,-1.7,-14.9,1.2,0,2018,4,25,17,9,19.487,0.6758,-0.0115,-0.7369,-0.0023
0.056,0.01,0.028,-2.6,-16.3,3.4,0,2018,4,25,17,9,19.492,0.677,-0.014,-0.7357,-0.0035
0.055,0.012,0.038,-3.5,-20.5,4.7,0,2018,4,25,17,9,19.512,0.6784,-0.0166,-0.7344,-0.0052
0.043,0.01,0.033,-4.5,-26.8,5.5,0,2018,4,25,17,9,19.532,0.6798,-0.0197,-0.733,-0.0079
0.029,0.004,0.023,-5.1,-34.4,6,0,2018,4,25,17,9,19.549,0.6812,-0.0236,-0.7315,-0.0115
0.003,0.003,0.028,-5.5,-40.8,5.5,0,2018,4,25,17,9,19.569,0.6825,-0.0285,-0.7301,-0.0158
-0.005,0.002,0.017,-6.3,-47.3,4.5,0,2018,4,25,17,9,19.587,0.6837,-0.0342,-0.7286,-0.0209
-0.005,-0.008,0,-5.7,-50.4,3.2,0,2018,4,25,17,9,19.624,0.6848,-0.0406,-0.727,-0.0267
-0.006,-0.037,-0.007,-4.8,-47.2,2.4,0,2018,4,25,17,9,19.645,0.6857,-0.0472,-0.7255,-0.0322
-0.01,-0.057,0,-3.2,-36.5,1.5,0,2018,4,25,17,9,19.649,0.6864,-0.0532,-0.7242,-0.0365
0,-0.058,0.01,-2.1,-21.6,-0.1,0,2018,4,25,17,9,19.686,0.6871,-0.0578,-0.7231,-0.0389
0.009,-0.057,0.014,-1.3,-6.6,-1.7,0,2018,4,25,17,9,19.705,0.6879,-0.0608,-0.7221,-0.0392
0.009,-0.047,0.011,-1.5,5.7,-3.7,0,2018,4,25,17,9,19.709,0.6887,-0.0624,-0.7213,-0.0376
0.012,-0.034,0.014,-2,13.4,-5.1,0,2018,4,25,17,9,19.749,0.6897,-0.0628,-0.7204,-0.0345
0.004,-0.021,0.028,-3.1,16.3,-6.5,0,2018,4,25,17,9,19.754,0.6909,-0.0628,-0.7195,-0.0308
0.005,-0.004,0.027,-4.8,13.5,-7.8,0,2018,4,25,17,9,19.77,0.6922,-0.0628,-0.7184,-0.027
0.008,0.008,0.017,-6.4,5.8,-9.5,1023,2018,4,25,17,9,19.809,0.6937,-0.0634,-0.7169,-0.0239
0.007,0.012,0.012,-7.7,-3.3,-11.9,1023,2018,4,25,17,9,19.827,0.6953,-0.0653,-0.7153,-0.0218
0.005,0.008,0.007,-8.3,-10.9,-14,1023,2018,4,25,17,9,19.831,0.6968,-0.0685,-0.7136,-0.0205
-0.003,0.007,0.001,-8.5,-15,-15.6,1023,2018,4,25,17,9,19.85,0.6982,-0.0727,-0.7118,-0.0198
-0.009,0,0,-8.5,-14.4,-16.2,1023,2018,4,25,17,9,19.871,0.6996,-0.0772,-0.71,-0.0191
-0.012,0.001,-0.004,-7.7,-10.8,-15.7,1023,2018,4,25,17,9,19.892,0.7007,-0.0815,-0.7085,-0.018
-0.012,0.008,-0.002,-7.5,-4.8,-14.7,1023,2018,4,25,17,9,19.912,0.7019,-0.0849,-0.7069,-0.0165
-0.014,0.009,-0.004,-7.2,1.2,-13.3,1023,2018,4,25,17,9,19.953,0.7032,-0.0875,-0.7053,-0.0144
-0.015,0.014,0.001,-7,4.7,-12.2,1023,2018,4,25,17,9,19.972,0.7046,-0.0892,-0.7038,-0.012
-0.005,0.019,-0.001,-6.5,7,-11.3,1023,2018,4,25,17,9,19.977,0.7059,-0.0904,-0.7023,-0.0093
-0.006,0.026,-0.002,-6,8.1,-10.9,1023,2018,4,25,17,9,19.993,0.7069,-0.0912,-0.7012,-0.0066
-0.004,0.028,-0.001,-5.7,9.9,-10.8,1023,2018,4,25,17,9,20.034,0.7082,-0.0919,-0.6999,-0.0038
-0.019,0.03,-0.002,-5.4,11.3,-11.1,1023,2018,4,25,17,9,20.053,0.7094,-0.0924,-0.6986,-0.0008
-0.02,0.037,-0.006,-5.2,13.2,-11.1,1023,2018,4,25,17,9,20.057,0.7104,-0.0925,-0.6975,0.0023
-0.02,0.041,-0.006,-4.9,14,-11.4,1023,2018,4,25,17,9,20.073,0.7116,-0.0925,-0.6964,0.0057
-0.022,0.049,-0.016,-4.5,14.2,-11.5,1023,2018,4,25,17,9,20.111,0.7126,-0.0924,-0.6953,0.009
-0.017,0.055,-0.018,-4,14.1,-11.7,0,2018,4,25,17,9,20.115,0.7135,-0.0922,-0.6944,0.0124
-0.015,0.058,-0.016,-3.7,13.1,-11.2,0,2018,4,25,17,9,20.134,0.7142,-0.0921,-0.6935,0.0156
-0.01,0.064,-0.022,-3.1,12.1,-10.3,0,2018,4,25,17,9,20.153,0.715,-0.0919,-0.6927,0.0185
-0.006,0.066,-0.015,-2.5,10.5,-8.6,0,2018,4,25,17,9,20.192,0.7157,-0.0918,-0.6919,0.0211
0.001,0.069,-0.019,-2.2,8.4,-6.5,0,2018,4,25,17,9,20.212,0.7163,-0.0915,-0.6912,0.0232
0.008,0.066,-0.013,-1.6,5.5,-4.2,0,2018,4,25,17,9,20.217,0.7168,-0.0914,-0.6907,0.0248
0.019,0.063,-0.016,-1.1,3.3,-2.2,0,2018,4,25,17,9,20.236,0.7173,-0.0913,-0.6902,0.0258
0.019,0.062,-0.025,-0.2,1.8,-0.3,0,2018,4,25,17,9,20.257,0.7176,-0.0912,-0.6899,0.0263
0.019,0.054,-0.026,0.6,1.3,1.9,0,2018,4,25,17,9,20.278,0.7177,-0.091,-0.6897,0.0265
0.012,0.049,-0.018,1.7,1.8,4.3,0,2018,4,25,17,9,20.293,0.7178,-0.0906,-0.6897,0.0265
0.008,0.045,-0.018,2.7,2.6,6.8,0,2018,4,25,17,9,20.332,0.7178,-0.0897,-0.6899,0.0263
0.004,0.035,-0.012,3.6,3.3,9,0,2018,4,25,17,9,20.352,0.7176,-0.0886,-0.6902,0.0259
0,0.032,-0.01,4.4,3.5,10.7,0,2018,4,25,17,9,20.356,0.7174,-0.0871,-0.6906,0.0254
-0.003,0.026,-0.005,4.5,3,12.3,0,2018,4,25,17,9,20.377,0.7171,-0.0855,-0.6911,0.0247
-0.011,0.015,-0.003,4.6,2.3,13.5,0,2018,4,25,17,9,20.396,0.7167,-0.0838,-0.6919,0.0237
-0.009,0.008,0.004,4.6,1.5,14.7,0,2018,4,25,17,9,20.433,0.7163,-0.0822,-0.6924,0.0225
-0.006,0.001,0.009,4.5,0.9,15.3,0,2018,4,25,17,9,20.451,0.7161,-0.0805,-0.6929,0.0212
0.001,-0.009,0.018,4.3,0.7,15.7,0,2018,4,25,17,9,20.456,0.716,-0.079,-0.6932,0.0199
0.007,-0.01,0.015,3.9,0.5,15.9,1023,2018,4,25,17,9,20.496,0.716,-0.0774,-0.6935,0.0186
0.01,-0.008,0.009,3.8,0.4,15.2,1023,2018,4,25,17,9,20.516,0.7159,-0.0759,-0.6937,0.0172
0.005,-0.026,0.017,3.6,-0.2,14.7,1023,2018,4,25,17,9,20.52,0.7158,-0.0746,-0.694,0.0159
0.008,-0.03,0.019,3.1,0.1,13.8,1023,2018,4,25,17,9,20.535,0.7158,-0.0735,-0.6941,0.0148
0.001,-0.036,0.024,2.6,0.4,13,1023,2018,4,25,17,9,20.574,0.7159,-0.0724,-0.6942,0.0138
-0.001,-0.04,0.02,1.9,0.2,11.9,1023,2018,4,25,17,9,20.595,0.7159,-0.0714,-0.6943,0.013
0,-0.04,0.025,0.8,-0.4,10.5,1023,2018,4,25,17,9,20.599,0.716,-0.0706,-0.6943,0.0122
-0.001,-0.038,0.018,-0.1,-1.4,9,1023,2018,4,25,17,9,20.618,0.7164,-0.0702,-0.694,0.0115
0,-0.041,0.017,-0.8,-3.1,6.7,1023,2018,4,25,17,9,20.637,0.7168,-0.0701,-0.6936,0.0109
0,-0.041,0.009,-1.2,-4.8,4.2,1023,2018,4,25,17,9,20.66,0.7171,-0.0706,-0.6932,0.0103
0.001,-0.041,0.005,-1.5,-5.5,1.6,1023,2018,4,25,17,9,20.68,0.7175,-0.0715,-0.6927,0.0099
0.001,-0.044,0.003,-1.6,-4.6,-0.2,1023,2018,4,25,17,9,20.699,0.7179,-0.0727,-0.6922,0.0098
0,-0.041,0.002,-1.5,-3,-1.9,1023,2018,4,25,17,9,20.739,0.7183,-0.074,-0.6916,0.0101
-0.001,-0.037,-0.009,-1.5,-1.9,-3.1,1023,2018,4,25,17,9,20.758,0.7186,-0.0752,-0.6912,0.0107
0,-0.027,-0.01,-1.4,-1.4,-4.1,1023,2018,4,25,17,9,20.762,0.7189,-0.0764,-0.6907,0.0115
0.004,-0.024,-0.009,-0.9,-1.2,-5.1,1023,2018,4,25,17,9,20.783,0.7191,-0.0776,-0.6903,0.0124
0.011,-0.02,-0.008,-0.5,-1,-5.6,1023,2018,4,25,17,9,20.802,0.7193,-0.0789,-0.6899,0.0134
0.01,-0.016,-0.01,-0.2,-0.6,-6.2,0,2018,4,25,17,9,20.821,0.7195,-0.0802,-0.6896,0.0145
0.009,-0.013,-0.013,0.2,0.5,-6.4,0,2018,4,25,17,9,20.84,0.7195,-0.0813,-0.6894,0.0157
0.006,-0.006,-0.008,0.7,1.5,-6.2,0,2018,4,25,17,9,20.859,0.7196,-0.0823,-0.6892,0.017
0.004,0,-0.007,1.1,1.8,-5.9,0,2018,4,25,17,9,20.879,0.7196,-0.0832,-0.689,0.0183
0.003,0.005,-0.004,1.1,1.5,-5.9,0,2018,4,25,17,9,20.9,0.7196,-0.0839,-0.6889,0.0195
0.001,0.007,-0.002,1.6,1,-5.8,0,2018,4,25,17,9,20.919,0.7196,-0.0847,-0.6888,0.0207
0,0.008,-0.003,1.7,1,-5.9,0,2018,4,25,17,9,20.94,0.7195,-0.0854,-0.6888,0.0218
-0.003,0.011,0.001,2,1.4,-5.5,0,2018,4,25,17,9,20.961,0.7194,-0.0861,-0.6887,0.0229
-0.003,0.011,0.002,2.1,1.8,-5.2,0,2018,4,25,17,9,20.98,0.7193,-0.0867,-0.6887,0.024
-0.001,0.015,0.004,2.2,2.3,-4.8,0,2018,4,25,17,9,21.02,0.7193,-0.0872,-0.6887,0.0251
0.002,0.02,0.009,2.2,2.6,-4.1,0,2018,4,25,17,9,21.043,0.7192,-0.0875,-0.6886,0.0261
0.002,0.024,0.019,1.9,3,-3.2,0,2018,4,25,17,9,21.047,0.7193,-0.0876,-0.6886,0.027
0.001,0.026,0.015,1.4,3.2,-2,0,2018,4,25,17,9,21.059,0.7193,-0.0876,-0.6884,0.0279
0,0.026,0.016,1.3,2.4,-0.6,0,2018,4,25,17,9,21.099,0.7195,-0.0874,-0.6883,0.0285
0,0.028,0.019,0.7,0.9,0.4,0,2018,4,25,17,9,21.119,0.7197,-0.0872,-0.6881,0.0287
-0.004,0.019,0.018,0.2,-0.8,1.2,0,2018,4,25,17,9,21.123,0.7199,-0.0871,-0.6879,0.0287
-0.006,0.011,0.013,0,-1.7,1.9,0,2018,4,25,17,9,21.141,0.7201,-0.0871,-0.6877,0.0284
-0.001,0.009,0.014,-0.1,-1.6,2.4,0,2018,4,25,17,9,21.186,0.7203,-0.0872,-0.6875,0.0281
0,0.003,0.004,-0.2,-0.6,3,1023,2018,4,25,17,9,21.188,0.7205,-0.0872,-0.6873,0.0278
-0.008,0.003,0,-0.3,0,3.2,1023,2018,4,25,17,9,21.199,0.7207,-0.087,-0.6871,0.0275
-0.001,-0.004,0.005,-0.1,0.7,3.3,1023,2018,4,25,17,9,21.235,0.7209,-0.0867,-0.6869,0.0273
0.005,0.001,0.007,-0.2,0.8,3.1,1023,2018,4,25,17,9,21.257,0.7211,-0.0864,-0.6868,0.0272
0.002,-0.001,0.001,0,0.8,2.9,1023,2018,4,25,17,9,21.261,0.7213,-0.0861,-0.6866,0.0272
0.003,-0.003,-0.003,-0.1,0.9,2.7,1023,2018,4,25,17,9,21.299,0.7214,-0.0858,-0.6866,0.0271
0.002,0,-0.002,-0.3,1,2.9,1023,2018,4,25,17,9,21.302,0.7215,-0.0856,-0.6864,0.0271
0.001,-0.002,0,-0.2,0.1,3,1023,2018,4,25,17,9,21.318,0.7217,-0.0853,-0.6863,0.027
0.004,-0.005,-0.002,-0.2,-0.6,2.8,1023,2018,4,25,17,9,21.359,0.7218,-0.0852,-0.6862,0.0268
0.004,-0.006,-0.004,-0.2,-1.1,2.5,1023,2018,4,25,17,9,21.379,0.7219,-0.0852,-0.6861,0.0265
0,-0.011,-0.005,0,-0.7,1.8,1023,2018,4,25,17,9,21.383,0.722,-0.0853,-0.686,0.0264
0,-0.01,-0.001,0.1,0,1.4,1023,2018,4,25,17,9,21.404,0.722,-0.0854,-0.686,0.0263
-0.002,-0.008,-0.002,0.2,0.2,0.8,1023,2018,4,25,17,9,21.424,0.7221,-0.0855,-0.6859,0.0265
-0.001,-0.01,-0.002,0,0,0,1023,2018,4,25,17,9,21.443,0.7221,-0.0856,-0.6858,0.0266
-0.005,-0.008,-0.005,0.4,-0.6,0,1023,2018,4,25,17,9,21.464,0.7221,-0.0858,-0.6858,0.0268
-0.003,-0.004,-0.001,0.5,-0.6,-0.3,1023,2018,4,25,17,9,21.503,0.7221,-0.0861,-0.6857,0.0269
-0.001,-0.001,0,0.5,-0.4,-0.6,1023,2018,4,25,17,9,21.522,0.7222,-0.0864,-0.6856,0.0271
0,-0.001,0.001,0.4,-0.4,-1.1,1023,2018,4,25,17,9,21.526,0.7222,-0.0868,-0.6855,0.0274
0.002,-0.001,0.004,0.3,-0.5,-1.4,0,2018,4,25,17,9,21.564,0.7223,-0.0871,-0.6854,0.0276
-0.002,0.001,0.009,0.4,0.1,-1.5,0,2018,4,25,17,9,21.584,0.7224,-0.0874,-0.6853,0.028
-0.001,0.007,0.004,0.1,0.3,-1.2,0,2018,4,25,17,9,21.588,0.7225,-0.0877,-0.6851,0.0283
-0.005,0.01,0.008,0.3,0.5,-0.8,0,2018,4,25,17,9,21.605,0.7225,-0.0878,-0.685,0.0285
-0.004,0.009,0.009,0,0,0,0,2018,4,25,17,9,21.625,0.7226,-0.0878,-0.6849,0.0287
-0.001,0.014,0.003,0,0,0,0,2018,4,25,17,9,21.645,0.7228,-0.0878,-0.6848,0.0287
0.001,0.017,0.003,0,0,0,0,2018,4,25,17,9,21.683,0.7229,-0.0879,-0.6846,0.0288
-0.004,0.016,-0.001,0,0.1,0.6,0,2018,4,25,17,9,21.703,0.723,-0.0878,-0.6846,0.0288
-0.004,0.014,-0.002,0.2,-0.2,0.8,0,2018,4,25,17,9,21.707,0.723,-0.0878,-0.6845,0.0287
-0.001,0.016,-0.006,0.2,-0.5,1.2,0,2018,4,25,17,9,21.728,0.7231,-0.0877,-0.6845,0.0285
-0.003,0.014,-0.012,0.3,-0.6,1.6,0,2018,4,25,17,9,21.748,0.723,-0.0876,-0.6845,0.0283
0.003,0.011,-0.013,0.6,-0.8,1.9,0,2018,4,25,17,9,21.769,0.723,-0.0875,-0.6846,0.028
0.002,0.01,-0.013,0.9,-0.7,2.1,0,2018,4,25,17,9,21.788,0.7229,-0.0874,-0.6848,0.0277
0,0.01,-0.017,1.5,-0.2,2.4,0,2018,4,25,17,9,21.805,0.7227,-0.0873,-0.685,0.0274
0,0.009,-0.018,2.1,0,2.7,0,2018,4,25,17,9,21.845,0.7224,-0.087,-0.6853,0.0272
0.002,0.009,-0.02,2.7,0.9,3.2,0,2018,4,25,17,9,21.864,0.7221,-0.0866,-0.6857,0.0269
0.005,0.007,-0.023,3.9,1.6,3.7,0,2018,4,25,17,9,21.868,0.7217,-0.086,-0.6862,0.0267
0.005,0.007,-0.015,4.4,2.8,4.1,1023,2018,4,25,17,9,21.888,0.7212,-0.0853,-0.6869,0.0266
0.005,0.007,-0.012,5.2,3.7,4.5,1023,2018,4,25,17,9,21.908,0.7206,-0.0844,-0.6876,0.0266
0.002,0.004,-0.011,6,5.2,5.1,1023,2018,4,25,17,9,21.947,0.72,-0.0833,-0.6883,0.0266
0.002,0.008,-0.011,6.6,6.9,5.5,1023,2018,4,25,17,9,21.967,0.7193,-0.0819,-0.6892,0.0269
0.003,0.007,-0.005,6.9,7.9,5.9,1023,2018,4,25,17,9,21.971,0.7187,-0.0803,-0.6901,0.0272
0.002,0.004,-0.009,6.7,7.9,5.9,1023,2018,4,25,17,9,21.99,0.718,-0.0786,-0.691,0.0275
0.006,0.002,-0.002,6.6,7.7,6.3,1023,2018,4,25,17,9,22.011,0.7173,-0.0769,-0.6918,0.0279
0.007,0.008,-0.002,7,7.2,6.2,1023,2018,4,25,17,9,22.029,0.7166,-0.0752,-0.6927,0.0282
0.011,0.006,-0.001,7.7,6,6.3,1023,2018,4,25,17,9,22.05,0.7159,-0.0736,-0.6936,0.0283
0.012,-0.002,-0.006,8.6,6,6.5,1023,2018,4,25,17,9,22.087,0.715,-0.0721,-0.6947,0.0284
0.017,-0.003,-0.01,8.8,6.5,6.7,1023,2018,4,25,17,9,22.109,0.7141,-0.0706,-0.6958,0.0286
0.019,-0.006,-0.01,9.1,6.5,6.7,1023,2018,4,25,17,9,22.113,0.7131,-0.0691,-0.697,0.0287
0.02,-0.011,-0.01,8.8,7.8,6.8,1023,2018,4,25,17,9,22.131,0.7121,-0.0674,-0.6981,0.029
0.027,-0.011,-0.007,8.9,9.4,6.9,1023,2018,4,25,17,9,22.167,0.7111,-0.0657,-0.6992,0.0295
0.028,-0.006,-0.011,9.3,11.2,7.3,1023,2018,4,25,17,9,22.187,0.7102,-0.0636,-0.7004,0.0301
0.039,-0.001,-0.015,9.7,12.2,7.3,1023,2018,4,25,17,9,22.191,0.7091,-0.0613,-0.7016,0.0309
0.045,-0.007,-0.01,10.4,12.9,7.2,1023,2018,4,25,17,9,22.211,0.708,-0.059,-0.7029,0.0318
0.053,-0.009,0.001,10.8,14.6,7,1023,2018,4,25,17,9,22.23,0.7069,-0.0565,-0.7042,0.0329
0.061,-0.008,-0.003,11.3,16.3,7,1023,2018,4,25,17,9,22.252,0.7058,-0.0539,-0.7055,0.0343
0.066,-0.007,-0.012,11.9,16.8,6.6,1023,2018,4,25,17,9,22.271,0.7045,-0.0511,-0.7069,0.0358
0.075,-0.02,-0.009,12.1,17.7,6.3,0,2018,4,25,17,9,22.309,0.7031,-0.0484,-0.7083,0.0375
0.082,-0.009,0,12.2,18.8,5.4,0,2018,4,25,17,9,22.33,0.7018,-0.0455,-0.7097,0.0394
0.077,-0.007,0.003,12.1,19.6,4.1,0,2018,4,25,17,9,22.334,0.7005,-0.0427,-0.7111,0.0415
0.076,-0.017,-0.025,11.4,20.9,2.6,0,2018,4,25,17,9,22.371,0.6992,-0.04,-0.7124,0.044
0.083,-0.023,-0.036,10.6,23.2,0.9,0,2018,4,25,17,9,22.375,0.6977,-0.0373,-0.7138,0.0468
0.098,-0.001,-0.028,8.8,23.1,0.4,0,2018,4,25,17,9,22.391,0.6964,-0.0345,-0.715,0.05
0.104,-0.001,0.001,8.3,19.1,-1.9,0,2018,4,25,17,9,22.429,0.6954,-0.0322,-0.7159,0.0529
0.143,-0.001,0.013,8.2,18.3,-5.3,0,2018,4,25,17,9,22.449,0.6945,-0.0305,-0.7166,0.0559
0.173,0.027,0.019,7.5,21.2,-7.9,0,2018,4,25,17,9,22.453,0.6937,-0.029,-0.7171,0.0595
0.202,0.062,0,8.5,17.6,-11,0,2018,4,25,17,9,22.473,0.6928,-0.0276,-0.7177,0.063
0.187,0.05,-0.008,9.5,14.6,-13.6,0,2018,4,25,17,9,22.494,0.6916,-0.027,-0.7186,0.0662
0.141,0.036,-0.014,9.9,19.8,-14.2,0,2018,4,25,17,9,22.515,0.6902,-0.0265,-0.7197,0.0699
0.093,0.04,-0.029,10.3,29.6,-14.8,0,2018,4,25,17,9,22.536,0.6886,-0.0251,-0.7207,0.0748
0.064,0.047,-0.03,9.2,36.2,-15.1,0,2018,4,25,17,9,22.554,0.6871,-0.0226,-0.7216,0.0806
0.051,0.053,-0.043,7.5,38.9,-16.2,0,2018,4,25,17,9,22.574,0.6858,-0.0197,-0.7222,0.087
0.036,0.051,-0.061,5.9,43.4,-18.3,0,2018,4,25,17,9,22.593,0.6845,-0.0167,-0.7227,0.0939
0.014,0.057,-0.056,4.5,50.2,-20.6,0,2018,4,25,17,9,22.612,0.6833,-0.0132,-0.7228,0.1017
-0.016,0.063,-0.067,3,56,-22.6,0,2018,4,25,17,9,22.649,0.6822,-0.0091,-0.7226,0.1106
-0.038,0.03,-0.06,1.3,62.6,-24.6,1023,2018,4,25,17,9,22.669,0.6811,-0.0047,-0.722,0.1205
-0.066,0.028,-0.071,-0.8,70.8,-27.6,1023,2018,4,25,17,9,22.674,0.6802,0.0001,-0.7209,0.1318
-0.055,0.059,-0.085,-0.4,74.1,-32.2,1023,2018,4,25,17,9,22.711,0.6791,0.0053,-0.7196,0.1441
-0.077,0.071,-0.068,-0.6,74.8,-36.5,1023,2018,4,25,17,9,22.732,0.6778,0.0103,-0.7181,0.157
-0.094,0.031,-0.06,-2.1,78,-40.4,1023,2018,4,25,17,9,22.737,0.6764,0.0148,-0.7162,0.1706
-0.096,0.035,-0.081,-3.6,84.6,-43.7,1023,2018,4,25,17,9,22.755,0.6749,0.0194,-0.7138,0.1854
-0.092,0.084,-0.08,-5.7,81.9,-44.2,1023,2018,4,25,17,9,22.777,0.6734,0.0242,-0.7111,0.2005
-0.084,0.094,-0.068,-6.7,75.8,-43.3,1023,2018,4,25,17,9,22.796,0.6721,0.0282,-0.708,0.2149
-0.1,0.063,-0.054,-7.6,71.6,-41.9,1023,2018,4,25,17,9,22.833,0.6708,0.0319,-0.7048,0.2283
-0.09,0.062,-0.057,-7.9,60.7,-41.5,1023,2018,4,25,17,9,22.853,0.6696,0.0348,-0.7017,0.2408
-0.089,0.051,-0.124,-5.8,47.2,-42.2,1023,2018,4,25,17,9,22.858,0.6681,0.036,-0.6992,0.2516
-0.388,-0.136,0.133,-15.4,44.6,-46.9,1023,2018,4,25,17,9,22.875,0.6667,0.0359,-0.6966,0.2624
