ax,ay,az,dpitch,droll,dyaw,heart,time_1,time_2,time_3,time_4,time_5,time_6,w,x,y,z
0.533,-0.221,-0.111,41.6,-98.3,125.7,1023,2018,5,10,15,28,55.724,-0.7937,0.2221,-0.5651,0.0348
0.636,-0.362,0.207,41.3,-74.9,89.2,1023,2018,5,10,15,28,55.744,-0.7932,0.2451,-0.5559,0.0394
0.639,-0.432,0.438,33.6,-45.5,42.1,1023,2018,5,10,15,28,55.758,-0.7943,0.2598,-0.5475,0.0414
0.637,-0.407,0.388,21.1,-36.8,-10,1023,2018,5,10,15,28,55.794,-0.7956,0.2669,-0.5424,0.0387
0.599,-0.365,0.311,10.5,-22.7,-56.1,1023,2018,5,10,15,28,55.813,-0.7961,0.268,-0.5416,0.0306
0.453,-0.441,0.335,-1.8,13,-93.3,1023,2018,5,10,15,28,55.817,-0.797,0.2614,-0.5439,0.0197
0.264,-0.386,0.309,-17.5,27.1,-125.1,1023,2018,5,10,15,28,55.835,-0.7973,0.2476,-0.5502,0.0071
0.089,-0.422,0.277,-30.4,6.1,-149.7,0,2018,5,10,15,28,55.872,-0.7957,0.2317,-0.5594,-0.0093
-0.112,-0.388,0.213,-38.2,-22.7,-165.5,0,2018,5,10,15,28,55.894,-0.7913,0.2173,-0.5705,-0.0306
-0.282,-0.39,0.118,-42.4,-42.4,-169.7,0,2018,5,10,15,28,55.898,-0.7846,0.2056,-0.5821,-0.0557
-0.471,-0.376,0.015,-39.4,-23.6,-161.9,0,2018,5,10,15,28,55.915,-0.777,0.194,-0.5933,-0.0803
-0.574,-0.27,-0.098,-31.9,11.5,-148.5,0,2018,5,10,15,28,55.951,-0.7706,0.179,-0.6032,-0.1003
-0.619,-0.204,-0.143,-21.4,45.1,-128.1,0,2018,5,10,15,28,55.97,-0.766,0.1611,-0.6115,-0.1149
-0.583,-0.104,-0.155,-11.1,75.9,-103.2,0,2018,5,10,15,28,55.978,-0.7634,0.1409,-0.618,-0.1231
-0.545,0.029,-0.153,-0.4,96.4,-74.4,0,2018,5,10,15,28,56.015,-0.7627,0.1197,-0.6231,-0.125
-0.499,0.082,-0.164,7.5,99.4,-46.9,0,2018,5,10,15,28,56.035,-0.7634,0.0998,-0.6262,-0.1223
-0.464,0.222,-0.171,15.1,90.3,-17.7,0,2018,5,10,15,28,56.038,-0.7655,0.0833,-0.6272,-0.1165
-0.325,0.344,-0.172,19.4,79.6,14.4,0,2018,5,10,15,28,56.056,-0.7686,0.0714,-0.6264,-0.1077
-0.196,0.413,-0.239,20.3,60.8,45.3,0,2018,5,10,15,28,56.077,-0.7721,0.0651,-0.6246,-0.0965
-0.194,0.431,-0.294,23.4,41.2,73.2,0,2018,5,10,15,28,56.098,-0.776,0.0644,-0.6218,-0.0831
-0.229,0.409,-0.34,31.6,14.2,97.3,0,2018,5,10,15,28,56.117,-0.7804,0.0695,-0.6174,-0.0692
-0.191,0.417,-0.376,45.3,-7.7,123.3,0,2018,5,10,15,28,56.136,-0.7858,0.0807,-0.6107,-0.0544
-0.057,0.295,-0.264,57.1,-19.9,144.7,0,2018,5,10,15,28,56.156,-0.7922,0.0965,-0.6012,-0.0385
0.002,0.138,-0.127,63.2,-23.4,155.7,0,2018,5,10,15,28,56.195,-0.799,0.1148,-0.5898,-0.0211
0.064,0.107,-0.061,61,-38.8,155.7,0,2018,5,10,15,28,56.215,-0.805,0.1347,-0.5776,-0.004
0.192,0.051,-0.041,56.6,-64.6,146.9,0,2018,5,10,15,28,56.219,-0.8091,0.1567,-0.5661,0.0099
0.404,-0.063,0.165,52.4,-75.6,126.7,0,2018,5,10,15,28,56.241,-0.8118,0.1801,-0.555,0.02
0.554,-0.287,0.476,43.9,-60.7,97.4,1023,2018,5,10,15,28,56.262,-0.8142,0.2006,-0.544,0.0272
0.638,-0.418,0.55,24.2,-32.4,57.1,1023,2018,5,10,15,28,56.276,-0.8154,0.2145,-0.5366,0.0326
0.689,-0.19,0.4,6.1,-33.2,11.7,1023,2018,5,10,15,28,56.313,-0.8159,0.2214,-0.5329,0.0339
0.641,-0.217,0.31,-5,-59.1,-31.1,1023,2018,5,10,15,28,56.333,-0.8143,0.2267,-0.5334,0.0274
0.462,-0.437,0.342,-15,-56.2,-69.2,1023,2018,5,10,15,28,56.337,-0.8115,0.2305,-0.5367,0.0151
0.278,-0.579,0.265,-28.2,-30.4,-102.5,1023,2018,5,10,15,28,56.375,-0.8078,0.2283,-0.5433,-0.0001
0.108,-0.434,0.037,-36.8,-23.8,-130.9,1023,2018,5,10,15,28,56.394,-0.8034,0.2205,-0.5526,-0.0175
-0.073,-0.419,-0.047,-36.6,-16.8,-150.4,1023,2018,5,10,15,28,56.401,-0.7982,0.2102,-0.5631,-0.0382
-0.333,-0.376,-0.012,-36.9,32.4,-151.9,1023,2018,5,10,15,28,56.42,-0.7935,0.1945,-0.5737,-0.0572
-0.492,-0.286,-0.031,-41.8,77.8,-146.3,1023,2018,5,10,15,28,56.442,-0.7897,0.1717,-0.5846,-0.0706
-0.538,-0.198,-0.073,-48.3,89.9,-137.7,1023,2018,5,10,15,28,56.462,-0.7856,0.1456,-0.596,-0.0797
-0.554,-0.101,-0.06,-51.8,73.7,-124.5,1023,2018,5,10,15,28,56.481,-0.7803,0.1212,-0.6071,-0.0879
-0.591,-0.047,-0.045,-51.8,53.4,-104.9,1023,2018,5,10,15,28,56.522,-0.7741,0.1013,-0.6174,-0.0956
-0.567,0.022,-0.081,-48.8,36.2,-81.9,1023,2018,5,10,15,28,56.541,-0.768,0.0861,-0.6261,-0.1026
-0.499,0.134,-0.173,-41.9,28.1,-54.5,0,2018,5,10,15,28,56.546,-0.7623,0.075,-0.6337,-0.1078
-0.453,0.177,-0.249,-29.4,28.1,-22.5,0,2018,5,10,15,28,56.565,-0.7579,0.0678,-0.6394,-0.1096
-0.353,0.194,-0.26,-17.7,35,12.7,0,2018,5,10,15,28,56.579,-0.7556,0.0636,-0.643,-0.1065
-0.237,0.218,-0.229,-8.2,44.1,47.5,0,2018,5,10,15,28,56.6,-0.7553,0.0619,-0.645,-0.098
-0.156,0.367,-0.215,0.6,29.2,77.1,0,2018,5,10,15,28,56.62,-0.7562,0.0639,-0.6454,-0.0855
-0.16,0.347,-0.154,13.6,-0.7,101.7,0,2018,5,10,15,28,56.658,-0.7584,0.0722,-0.6436,-0.0724
-0.145,0.308,-0.141,26,-21.3,124.6,0,2018,5,10,15,28,56.678,-0.7618,0.0864,-0.6392,-0.059
0.11,0.234,-0.23,28.8,-22.5,143.3,0,2018,5,10,15,28,56.682,-0.7659,0.1039,-0.6329,-0.0441
0.168,0.211,-0.372,28.2,-49.3,150.7,0,2018,5,10,15,28,56.704,-0.7692,0.1246,-0.626,-0.0288
0.141,0.059,-0.278,33.3,-69.9,146.7,0,2018,5,10,15,28,56.722,-0.7717,0.1489,-0.618,-0.0162
0.19,-0.059,-0.151,42.8,-72.2,138.2,0,2018,5,10,15,28,56.745,-0.7739,0.1741,-0.6088,-0.0062
0.352,0,0.01,47.8,-61,125.9,0,2018,5,10,15,28,56.764,-0.7761,0.1967,-0.599,0.0031
0.521,0.075,0.027,48.9,-71.6,104.6,0,2018,5,10,15,28,56.781,-0.7786,0.2174,-0.5885,0.0098
0.542,-0.162,0.21,50.5,-74.9,73.9,0,2018,5,10,15,28,56.802,-0.7806,0.2363,-0.5783,0.0121
0.566,-0.287,0.361,45.5,-66.5,39.4,0,2018,5,10,15,28,56.823,-0.7829,0.2515,-0.5688,0.0107
0.551,-0.272,0.306,36.3,-53.2,2.4,0,2018,5,10,15,28,56.844,-0.7849,0.2616,-0.5616,0.0059
0.583,-0.271,0.204,23.1,-27.6,-31.4,0,2018,5,10,15,28,56.863,-0.7861,0.2655,-0.558,-0.0016
0.31,-0.493,0.152,3.9,18.1,-66.2,0,2018,5,10,15,28,56.902,-0.7874,0.2609,-0.5583,-0.0087
0.023,-0.492,0.15,-16.1,34,-91.9,0,2018,5,10,15,28,56.922,-0.7877,0.2496,-0.5629,-0.0166
-0.154,-0.402,0.027,-29.1,44.4,-111.3,1023,2018,5,10,15,28,56.927,-0.7866,0.2341,-0.5707,-0.0255
-0.214,-0.328,-0.098,-41,57.8,-122.2,1023,2018,5,10,15,28,56.946,-0.7844,0.2155,-0.5804,-0.0348
-0.408,-0.282,-0.049,-50.6,66.1,-124.2,1023,2018,5,10,15,28,56.965,-0.781,0.1946,-0.5917,-0.0435
-0.529,-0.263,0.031,-56.7,69.4,-118.1,1023,2018,5,10,15,28,56.986,-0.7766,0.173,-0.6035,-0.0508
-0.561,-0.059,-0.044,-60.9,49,-105.2,1023,2018,5,10,15,28,57.008,-0.7709,0.1535,-0.6153,-0.0577
-0.57,0.067,-0.065,-58.2,18.9,-87.4,1023,2018,5,10,15,28,57.028,-0.7644,0.1393,-0.6259,-0.0652
-0.573,0.12,-0.016,-51.8,2.4,-62.8,1023,2018,5,10,15,28,57.042,-0.758,0.1307,-0.6348,-0.0727
-0.522,0.096,0.012,-39.9,1.1,-33,1023,2018,5,10,15,28,57.077,-0.7522,0.1259,-0.6419,-0.0779
-0.412,0.09,0.057,-26.1,12.5,-3.2,1023,2018,5,10,15,28,57.098,-0.7484,0.1236,-0.6467,-0.0788
-0.316,0.132,0.055,-12.1,27.8,25.5,1023,2018,5,10,15,28,57.102,-0.7469,0.1225,-0.6492,-0.0745
-0.288,0.135,0.007,1.2,37,52.7,1023,2018,5,10,15,28,57.139,-0.7475,0.1227,-0.6494,-0.0657
-0.153,0.15,-0.075,11.9,32.2,76.5,1023,2018,5,10,15,28,57.161,-0.7498,0.1248,-0.6474,-0.0536
-0.098,0.198,-0.127,18.8,21.1,99.1,1023,2018,5,10,15,28,57.166,-0.7529,0.1312,-0.6436,-0.0398
-0.128,0.266,-0.217,26,14.7,123.8,1023,2018,5,10,15,28,57.187,-0.7565,0.1412,-0.638,-0.0239
-0.035,0.372,-0.338,34.1,17.5,152.6,1023,2018,5,10,15,28,57.206,-0.7605,0.1546,-0.6305,-0.0046
0.139,0.435,-0.29,38.2,31.4,179.9,1023,2018,5,10,15,28,57.247,-0.7651,0.1695,-0.6208,0.0192
0.116,0.539,-0.283,38.6,17,201.4,0,2018,5,10,15,28,57.268,-0.769,0.1866,-0.6095,0.0464
0.142,0.571,-0.336,40.2,-8.9,214.6,0,2018,5,10,15,28,57.272,-0.771,0.2086,-0.597,0.0732
0.017,0.509,-0.265,44.2,-29.4,222.4,0,2018,5,10,15,28,57.288,-0.7713,0.2347,-0.5833,0.0984
-0.083,0.489,-0.177,49.3,-30.3,236.1,0,2018,5,10,15,28,57.327,-0.7703,0.2626,-0.5676,0.124
-0.099,0.347,-0.083,52,-23.1,246,0,2018,5,10,15,28,57.331,-0.7683,0.2909,-0.5496,0.1512
0.021,0.399,0.101,43,-36.2,252.1,0,2018,5,10,15,28,57.348,-0.764,0.3197,-0.5308,0.1792
0.01,0.277,0.361,28.5,-36.7,251.2,0,2018,5,10,15,28,57.367,-0.7566,0.3489,-0.5127,0.207
0.039,0.261,0.08,21.6,-56.2,249.9,0,2018,5,10,15,28,57.388,-0.7462,0.3776,-0.4955,0.2342
-0.225,-0.421,0.128,11.9,51.1,250.3,0,2018,5,10,15,28,57.409,-0.7355,0.4025,-0.4774,0.2628
-0.247,0.609,0.671,-4.3,-70.1,230.5,0,2018,5,10,15,28,57.428,-0.7263,0.4192,-0.4578,0.295
-0.224,-0.73,1.563,-98,-83.6,162.8,0,2018,5,10,15,28,57.448,-0.7055,0.4412,-0.4559,0.3156
-0.087,-0.106,0.665,-128.8,-180,173.9,0,2018,5,10,15,28,57.47,-0.6756,0.4643,-0.464,0.3353
0.047,0.025,-0.301,-143.9,-184,161,0,2018,5,10,15,28,57.488,-0.6381,0.4915,-0.4775,0.3506
-0.024,0.373,-0.345,-125.1,-260.2,146.3,0,2018,5,10,15,28,57.526,-0.5989,0.5188,-0.4914,0.3613
-0.331,0.039,0.026,-118.1,-388.5,125,0,2018,5,10,15,28,57.546,-0.5491,0.5562,-0.5117,0.3564
-0.672,-0.77,0.116,-144,-430.8,97.5,0,2018,5,10,15,28,57.551,-0.4881,0.5964,-0.5373,0.3423
-0.496,-0.6,-0.631,-163.1,-436.4,35.5,0,2018,5,10,15,28,57.567,-0.4215,0.6287,-0.569,0.321
-0.563,-0.039,-1.549,-124.9,-390.8,11.1,0,2018,5,10,15,28,57.607,-0.3592,0.6511,-0.5989,0.2968
-0.437,-0.055,-1.925,-38.8,-245.8,-7.7,1023,2018,5,10,15,28,57.627,-0.3136,0.666,-0.6195,0.2722
-0.263,0.247,-1.505,40.9,-139.7,-13.8,1023,2018,5,10,15,28,57.631,-0.2924,0.6751,-0.6291,0.2508
0.124,0.562,-0.852,86.6,-111.6,-15.2,1023,2018,5,10,15,28,57.651,-0.2873,0.6819,-0.6321,0.2298
0.07,0.124,-0.021,77,-140.4,-37.6,1023,2018,5,10,15,28,57.671,-0.2832,0.6885,-0.6353,0.2048
-0.305,-1.188,0.415,29,-111.2,-49.2,1023,2018,5,10,15,28,57.69,-0.2736,0.6918,-0.6434,0.1798
-0.104,-1.203,0.352,18.9,121.2,-65.8,1023,2018,5,10,15,28,57.711,-0.2783,0.6852,-0.6493,0.1771
-0.379,0.407,-0.049,32.8,153.5,-55.2,1023,2018,5,10,15,28,57.748,-0.3019,0.671,-0.6505,0.1881
-0.486,0.636,0.091,30,44.6,-37.4,1023,2018,5,10,15,28,57.767,-0.3187,0.6617,-0.6507,0.1924
-0.159,0.579,0.283,27.6,54.5,-10,1023,2018,5,10,15,28,57.772,-0.3285,0.6571,-0.6498,0.1944
0.234,0.324,0.058,42.5,-0.4,-7.7,1023,2018,5,10,15,28,57.793,-0.3358,0.6569,-0.6471,0.192
0.209,0.568,0.437,22.7,-18.2,-1.4,1023,2018,5,10,15,28,57.813,-0.3406,0.6563,-0.6467,0.1867
0.356,-0.237,0.559,-0.7,-223.8,-19,1023,2018,5,10,15,28,57.828,-0.3272,0.6635,-0.6509,0.1697
0.221,0.445,0.66,-48.9,-371.1,-7.7,1023,2018,5,10,15,28,57.865,-0.291,0.6772,-0.6613,0.1388
-0.031,-0.644,0.226,-74.6,-407.6,-21.1,0,2018,5,10,15,28,57.884,-0.2343,0.6936,-0.6741,0.097
-0.228,-0.695,-0.077,-65.8,-273.9,-36.9,0,2018,5,10,15,28,57.891,-0.1842,0.7015,-0.6854,0.0634
-0.065,0.235,-0.358,-49.1,-179.9,-21,0,2018,5,10,15,28,57.929,-0.1509,0.7034,-0.6931,0.0434
-0.028,0.229,-0.398,-39.3,-139.1,1.4,0,2018,5,10,15,28,57.95,-0.1264,0.7062,-0.6959,0.0299
-0.024,-0.723,-0.22,-8,-1.2,1.2,0,2018,5,10,15,28,57.954,-0.0993,0.7116,-0.6953,0.0167
-0.164,-0.902,-0.147,20.9,201.6,-1,0,2018,5,10,15,28,57.974,-0.111,0.7098,-0.695,0.0261
-0.167,-0.831,-0.264,51.5,553.7,17.5,0,2018,5,10,15,28,57.995,-0.1629,0.7022,-0.6897,0.0677
-0.282,0.133,-0.826,77,805.1,47.7,0,2018,5,10,15,28,58.033,-0.2547,0.682,-0.6702,0.1439
-0.107,0.156,-1.069,109.1,826.1,53.2,0,2018,5,10,15,28,58.053,-0.3607,0.647,-0.631,0.2303
-0.287,0.96,-0.85,116.7,638.4,36.9,0,2018,5,10,15,28,58.057,-0.4519,0.6047,-0.583,0.3001
-0.27,0.466,-0.596,123.3,483.1,26.1,0,2018,5,10,15,28,58.072,-0.5177,0.5686,-0.5388,0.3438
-0.129,0.184,-0.625,126.8,377.3,13.2,0,2018,5,10,15,28,58.111,-0.5689,0.5378,-0.4986,0.372
-0.109,-0.029,-0.659,131.8,321.4,8.5,0,2018,5,10,15,28,58.131,-0.6105,0.5122,-0.4613,0.3898
0.004,0.335,-0.527,116.2,225.5,4.4,0,2018,5,10,15,28,58.135,-0.6444,0.49,-0.4275,0.402
0.007,0.206,-0.257,113.6,74.2,-3.1,0,2018,5,10,15,28,58.154,-0.6648,0.4821,-0.4047,0.4021
0.175,-0.271,-0.077,106.8,87.8,5.7,0,2018,5,10,15,28,58.172,-0.6781,0.4821,-0.387,0.3972
-0.155,-0.193,0.525,78.6,158.9,-11.3,0,2018,5,10,15,28,58.193,-0.696,0.4722,-0.3662,0.398
0.118,1.26,0.883,62.9,101.7,-22.1,0,2018,5,10,15,28,58.213,-0.7141,0.4568,-0.3482,0.4
0.199,0.068,1.028,38.4,-71.6,-20.1,0,2018,5,10,15,28,58.249,-0.718,0.4605,-0.3442,0.3922
0.175,0.123,0.951,-4.8,-25.5,-8.2,0,2018,5,10,15,28,58.27,-0.716,0.4664,-0.3464,0.3867
-0.019,0.085,0.43,-27.9,-75.4,-16.3,1023,2018,5,10,15,28,58.274,-0.7116,0.4712,-0.3534,0.3828
0.053,0.216,0.498,-51.6,-64.1,-18.5,1023,2018,5,10,15,28,58.291,-0.7046,0.4763,-0.3645,0.379
0.093,0.518,0.773,-79.2,-91.8,-14.8,1023,2018,5,10,15,28,58.312,-0.6961,0.479,-0.3782,0.3777
0.039,0.396,0.478,-102,-190.8,-12.7,1023,2018,5,10,15,28,58.351,-0.6785,0.489,-0.3999,0.3746
-0.511,-0.426,0.152,-113.1,-176.8,-46,1023,2018,5,10,15,28,58.372,-0.6564,0.502,-0.4265,0.3674
0.074,0.629,0.094,-142.5,-263.5,-31.1,1023,2018,5,10,15,28,58.376,-0.6303,0.5151,-0.4589,0.3558
-0.155,0.428,0.294,-134.5,-235,-23.6,1023,2018,5,10,15,28,58.395,-0.5973,0.5315,-0.4914,0.3451
-0.43,0.33,0.221,-149.6,-275.1,-14.5,1023,2018,5,10,15,28,58.433,-0.5621,0.547,-0.5226,0.3341
-0.519,0.134,-0.491,-129.4,-262.7,-6.1,1023,2018,5,10,15,28,58.453,-0.5231,0.5639,-0.5527,0.3205
0.033,0.109,-1.228,-44.6,-144.2,16,1023,2018,5,10,15,28,58.457,-0.4941,0.5776,-0.5711,0.3096
-0.123,-0.287,-0.768,25.6,-12.8,37.1,1023,2018,5,10,15,28,58.494,-0.485,0.5865,-0.5726,0.3046
0.011,0.086,-0.697,58.5,33.5,49.4,1023,2018,5,10,15,28,58.514,-0.4897,0.5912,-0.563,0.3058
0.023,-0.216,-0.953,78.3,40.9,52.6,1023,2018,5,10,15,28,58.518,-0.4972,0.5973,-0.5498,0.3058
0.074,-0.076,-0.633,92.4,239.8,31.9,1023,2018,5,10,15,28,58.538,-0.5186,0.5927,-0.5299,0.3142
0.227,0.562,-0.306,87,117.2,33.1,0,2018,5,10,15,28,58.557,-0.5463,0.5818,-0.5066,0.3259
0.273,0.546,-0.831,99.1,53.1,32.9,0,2018,5,10,15,28,58.576,-0.5599,0.5828,-0.4903,0.3259
0.195,0.351,-0.312,107.8,-52.9,23.5,0,2018,5,10,15,28,58.594,-0.5667,0.5921,-0.4772,0.3168
-0.241,-0.498,0.379,78.2,108.8,2.6,0,2018,5,10,15,28,58.634,-0.5764,0.5958,-0.4649,0.3106
-0.109,0.09,0.448,32.9,88.6,-25.8,0,2018,5,10,15,28,58.654,-0.5938,0.5853,-0.4543,0.3135
-0.102,-0.297,0.008,10.5,-13.5,-46,0,2018,5,10,15,28,58.658,-0.6007,0.5803,-0.4539,0.3101
0.022,-0.291,-0.402,2.3,-4.1,-46.6,0,2018,5,10,15,28,58.677,-0.6018,0.5787,-0.4593,0.3029
-0.235,0.092,0.297,-0.7,40,-14.6,0,2018,5,10,15,28,58.697,-0.6045,0.5752,-0.4623,0.2998
0.006,0.079,0.427,-3.3,185.3,-23.3,0,2018,5,10,15,28,58.738,-0.619,0.5586,-0.4561,0.3109
-0.047,0.174,0.796,-32.5,-28.2,-50.5,0,2018,5,10,15,28,58.742,-0.6274,0.546,-0.4572,0.3147
-0.099,0.052,0.594,-48.8,-169,-56.5,0,2018,5,10,15,28,58.758,-0.6159,0.552,-0.4734,0.3028
-0.019,-0.161,0.138,-61.5,-140.4,-51.7,0,2018,5,10,15,28,58.795,-0.5986,0.5611,-0.4929,0.2891
-0.024,-0.258,-0.044,-59.4,-122,-39.4,0,2018,5,10,15,28,58.814,-0.5828,0.5678,-0.5095,0.2796
0.064,-0.116,-0.114,-35.3,-53.8,-33.5,0,2018,5,10,15,28,58.818,-0.5715,0.5713,-0.5219,0.2727
-0.165,-0.209,0.088,-21.8,-9.7,-23.3,0,2018,5,10,15,28,58.836,-0.5673,0.5706,-0.5286,0.2701
-0.108,-0.688,-0.114,-14.6,173.1,-22.5,0,2018,5,10,15,28,58.856,-0.5739,0.5601,-0.5295,0.2762
-0.132,-0.291,-0.444,3,316.9,-19.6,0,2018,5,10,15,28,58.893,-0.5989,0.5319,-0.519,0.2981
-0.126,0.106,-0.342,33.8,389.8,-18.6,0,2018,5,10,15,28,58.913,-0.6341,0.4919,-0.499,0.3267
-0.229,0.25,-0.094,55.2,289.4,-27.7,1023,2018,5,10,15,28,58.917,-0.6681,0.4534,-0.4754,0.349
-0.16,-0.304,-0.301,60.8,243.9,-23.9,1023,2018,5,10,15,28,58.956,-0.6942,0.4244,-0.4544,0.3624
-0.152,-0.704,-0.127,43.7,190.3,-42.8,1023,2018,5,10,15,28,58.977,-0.7161,0.3987,-0.4361,0.3712
-0.001,-0.457,-0.014,30.5,79.2,-69.6,1023,2018,5,10,15,28,58.981,-0.7322,0.3792,-0.4265,0.3713
0.134,-0.276,0.132,11,18.3,-87.9,1023,2018,5,10,15,28,59,-0.7411,0.3692,-0.4265,0.3637
0.017,-0.525,-0.092,-0.6,-43.9,-121,1023,2018,5,10,15,28,59.038,-0.7467,0.3642,-0.4338,0.3484
0.075,0.113,-0.343,7.2,-132.1,-161.7,1023,2018,5,10,15,28,59.059,-0.7503,0.3638,-0.4473,0.3233
0.021,-0.149,-0.197,23.1,-239.1,-195.3,1023,2018,5,10,15,28,59.063,-0.7483,0.3764,-0.4676,0.282
-0.05,-0.493,0.125,30.3,-145.7,-198.6,1023,2018,5,10,15,28,59.077,-0.7457,0.388,-0.4865,0.2377
-0.059,-0.13,0.21,30.2,-84.3,-209.6,1023,2018,5,10,15,28,59.115,-0.7494,0.3846,-0.5001,0.2004
0.053,0.054,0.272,29.2,-124.3,-217.7,1023,2018,5,10,15,28,59.135,-0.7515,0.3804,-0.514,0.1614
0.107,0.112,0.223,33.5,-135.4,-218.5,1023,2018,5,10,15,28,59.139,-0.7509,0.3787,-0.5277,0.1186
0.093,0.059,0.126,41.9,-118.8,-206.3,1023,2018,5,10,15,28,59.16,-0.7494,0.3765,-0.539,0.0766
0.039,0.146,0.149,47.7,-108.6,-198.9,1023,2018,5,10,15,28,59.18,-0.7488,0.3721,-0.5472,0.0371
-0.032,0.066,0.117,55.2,-121,-194.2,1023,2018,5,10,15,28,59.218,-0.7465,0.369,-0.5536,-0.0029
-0.154,0.09,0.054,61.9,-108.2,-188.7,0,2018,5,10,15,28,59.238,-0.7449,0.3645,-0.557,-0.0422
-0.266,0.068,-0.056,66.9,-96.3,-176.5,0,2018,5,10,15,28,59.242,-0.7429,0.3598,-0.5587,-0.0794
-0.41,0.049,-0.092,69.2,-76.8,-165.5,0,2018,5,10,15,28,59.263,-0.7413,0.3534,-0.5589,-0.1143
-0.503,0.023,-0.041,60.8,-42.7,-150.8,0,2018,5,10,15,28,59.28,-0.7403,0.3445,-0.5586,-0.1448
-0.551,-0.078,-0.026,45.8,7.2,-136.1,0,2018,5,10,15,28,59.322,-0.7406,0.3312,-0.5598,-0.168
-0.566,-0.061,-0.035,31,50.8,-118.9,0,2018,5,10,15,28,59.326,-0.7422,0.3134,-0.5631,-0.1835
-0.585,0.056,-0.009,16.8,83.9,-100.4,0,2018,5,10,15,28,59.343,-0.7445,0.2929,-0.5682,-0.1921
-0.57,0.213,0.006,4.2,112,-74.6,0,2018,5,10,15,28,59.36,-0.7473,0.2711,-0.5746,-0.1939
-0.455,0.4,-0.125,-6.6,131.2,-41.9,0,2018,5,10,15,28,59.38,-0.7509,0.249,-0.5818,-0.1884
-0.282,0.463,-0.145,-9.9,97.5,-9.5,0,2018,5,10,15,28,59.421,-0.7541,0.2314,-0.5878,-0.1791
-0.154,0.447,-0.151,-5.8,58.1,24.7,0,2018,5,10,15,28,59.441,-0.7565,0.2225,-0.5911,-0.1695
-0.115,0.454,-0.169,1.3,26,61.3,0,2018,5,10,15,28,59.445,-0.759,0.222,-0.5909,-0.1593
-0.094,0.485,-0.187,13.1,27.7,98.5,0,2018,5,10,15,28,59.465,-0.7627,0.2271,-0.5875,-0.1462
-0.109,0.481,-0.21,29.3,61.9,134.2,0,2018,5,10,15,28,59.484,-0.7695,0.2328,-0.581,-0.1263
-0.111,0.365,-0.243,46.6,92.9,162.8,0,2018,5,10,15,28,59.523,-0.7796,0.2364,-0.5713,-0.0993
0.045,0.105,-0.217,61.7,91.1,175.8,0,2018,5,10,15,28,59.543,-0.7914,0.2394,-0.5581,-0.0685
0.169,-0.138,-0.01,72.5,68.7,172.6,1023,2018,5,10,15,28,59.547,-0.8025,0.2449,-0.5425,-0.0389
0.247,-0.116,0.271,72.1,15.9,152.2,1023,2018,5,10,15,28,59.561,-0.8123,0.2538,-0.5248,-0.0141
0.504,-0.13,0.406,54.6,-71.3,111.7,1023,2018,5,10,15,28,59.598,-0.817,0.2698,-0.5095,-0.0007
0.651,-0.177,0.464,32,-143.8,63.4,1023,2018,5,10,15,28,59.616,-0.8151,0.2935,-0.4992,-0.0002
0.666,-0.411,0.44,14.1,-156.8,17,1023,2018,5,10,15,28,59.623,-0.8091,0.3187,-0.4936,-0.0091
0.616,-0.674,0.415,-2.3,-105.5,-26.3,1023,2018,5,10,15,28,59.66,-0.8018,0.3378,-0.4922,-0.0218
0.488,-0.49,0.38,-13.5,-21.1,-68.5,1023,2018,5,10,15,28,59.681,-0.7978,0.3419,-0.4953,-0.0325
0.303,-0.425,0.238,-20.8,-18.2,-106.7,1023,2018,5,10,15,28,59.685,-0.7948,0.3362,-0.503,-0.0448
0.138,-0.445,0.107,-26.4,-64.4,-137.1,1023,2018,5,10,15,28,59.704,-0.789,0.3313,-0.5132,-0.0639
-0.1,-0.504,0.113,-25.7,-91.2,-155.5,1023,2018,5,10,15,28,59.724,-0.7799,0.3295,-0.5244,-0.0896
-0.353,-0.607,-0.015,-27.2,-88,-166.8,1023,2018,5,10,15,28,59.759,-0.7693,0.3275,-0.5355,-0.1181
-0.519,-0.608,-0.261,-34.4,-46.1,-181,1023,2018,5,10,15,28,59.781,-0.7583,0.3211,-0.5479,-0.1463
-0.681,-0.33,-0.253,-40.9,32,-179.9,1023,2018,5,10,15,28,59.785,-0.7492,0.3055,-0.5627,-0.1689
-0.744,-0.099,-0.257,-48.2,107.4,-167.2,1023,2018,5,10,15,28,59.828,-0.7432,0.2798,-0.5799,-0.1815
-0.684,0.055,-0.302,-53.5,137.1,-144,1023,2018,5,10,15,28,59.847,-0.7386,0.2493,-0.5979,-0.1861
-0.545,0.209,-0.421,-54.3,141.2,-115.2,1023,2018,5,10,15,28,59.851,-0.7344,0.2192,-0.6148,-0.1854
-0.331,0.366,-0.523,-49.8,134.1,-82.1,0,2018,5,10,15,28,59.866,-0.7305,0.1928,-0.6295,-0.181
-0.338,0.427,-0.569,-39.7,138.9,-48.5,0,2018,5,10,15,28,59.905,-0.7277,0.1697,-0.6416,-0.1725
-0.247,0.669,-0.577,-24,116.2,-17.8,0,2018,5,10,15,28,59.924,-0.7269,0.1504,-0.6505,-0.1604
-0.168,0.681,-0.548,-0.7,64.6,12.6,0,2018,5,10,15,28,59.928,-0.7276,0.1392,-0.6547,-0.1497
-0.164,0.523,-0.312,30,35.1,45.9,0,2018,5,10,15,28,59.946,-0.7312,0.1364,-0.6533,-0.1405
-0.172,0.475,-0.098,51.9,22,81.1,0,2018,5,10,15,28,59.983,-0.7382,0.1393,-0.6469,-0.13
-0.06,0.384,-0.027,60.1,-3.6,109.5,0,2018,5,10,15,29,0.004,-0.7472,0.1472,-0.6373,-0.1173
0.023,0.26,-0.096,60.7,-84.3,127.9,0,2018,5,10,15,29,0.009,-0.7549,0.1651,-0.6254,-0.1078
0.08,0.084,0.251,67.4,-139.7,141.1,0,2018,5,10,15,29,0.028,-0.7606,0.1941,-0.6105,-0.1046
0.103,-0.163,0.705,56.2,-134.6,146.6,0,2018,5,10,15,29,0.066,-0.7647,0.227,-0.5943,-0.1021
0.32,-0.279,0.642,32.5,-135.5,130.3,0,2018,5,10,15,29,0.086,-0.766,0.2582,-0.5803,-0.0983
0.58,-0.272,0.341,12.5,-173.3,100.3,0,2018,5,10,15,29,0.09,-0.7627,0.29,-0.5694,-0.0989
0.626,-0.316,0.164,4.5,-191.1,70.3,0,2018,5,10,15,29,0.108,-0.7552,0.3233,-0.56,-0.1068
0.561,-0.444,0.049,10,-115.2,42.8,0,2018,5,10,15,29,0.128,-0.7478,0.3495,-0.5526,-0.1144
0.441,-0.266,0.052,19.3,-47.6,4.7,0,2018,5,10,15,29,0.146,-0.7449,0.3619,-0.5476,-0.119
0.305,-0.478,-0.145,24.5,25.8,-33.2,0,2018,5,10,15,29,0.167,-0.7458,0.3619,-0.5455,-0.1232
0.012,-0.602,-0.329,25.7,79.6,-70.2,0,2018,5,10,15,29,0.189,-0.7507,0.3487,-0.5466,-0.1261
-0.213,-0.551,-0.385,21.1,98.2,-98.4,0,2018,5,10,15,29,0.211,-0.7563,0.328,-0.5507,-0.13
-0.375,-0.29,-0.344,15.6,91.1,-116.9,0,2018,5,10,15,29,0.23,-0.7609,0.3042,-0.5565,-0.1361
-0.45,-0.121,-0.333,12.6,89.2,-121.3,0,2018,5,10,15,29,0.266,-0.7638,0.2804,-0.5631,-0.144
-0.517,-0.061,-0.355,9.9,98.3,-114.4,1023,2018,5,10,15,29,0.288,-0.7662,0.256,-0.5696,-0.1509
-0.573,0.035,-0.298,7.4,123,-98,1023,2018,5,10,15,29,0.292,-0.7689,0.2305,-0.576,-0.1542
-0.584,0.17,-0.293,5,153.1,-73.6,1023,2018,5,10,15,29,0.308,-0.7724,0.2029,-0.5823,-0.1515
-0.507,0.334,-0.311,7.1,142.3,-43.8,1023,2018,5,10,15,29,0.346,-0.7764,0.1766,-0.5875,-0.144
-0.409,0.312,-0.265,12,119.1,-10.2,1023,2018,5,10,15,29,0.366,-0.7805,0.156,-0.5902,-0.1343
-0.248,0.328,-0.186,19.5,89.3,21.3,1023,2018,5,10,15,29,0.37,-0.7851,0.1419,-0.5902,-0.1227
-0.149,0.347,-0.078,23.9,44,48.6,1023,2018,5,10,15,29,0.39,-0.7896,0.1363,-0.5876,-0.1115
-0.063,0.396,-0.031,25.7,1,74.5,1023,2018,5,10,15,29,0.411,-0.7939,0.1392,-0.5831,-0.1012
0.016,0.378,-0.092,23.2,-36.6,95,1023,2018,5,10,15,29,0.432,-0.7973,0.1501,-0.5772,-0.0918
0.089,0.363,-0.207,24.1,-90.1,108.5,1023,2018,5,10,15,29,0.452,-0.7995,0.1688,-0.5701,-0.0845
0.113,0.153,-0.045,33.4,-110.9,117.5,1023,2018,5,10,15,29,0.47,-0.8005,0.1945,-0.5611,-0.0801
0.237,0.043,0.138,34.2,-99.8,122,1023,2018,5,10,15,29,0.493,-0.8018,0.2197,-0.5505,-0.0751
0.399,-0.059,0.242,26.4,-98.7,111.4,1023,2018,5,10,15,29,0.512,-0.8026,0.2436,-0.54,-0.0695
0.493,-0.155,0.294,16.4,-111.3,87.7,1023,2018,5,10,15,29,0.533,-0.8015,0.2668,-0.5309,-0.0663
0.495,-0.217,0.285,11.1,-125.2,57.5,1023,2018,5,10,15,29,0.553,-0.7981,0.2899,-0.5237,-0.0677
0.474,-0.364,0.325,9.9,-92.3,27.7,1023,2018,5,10,15,29,0.574,-0.7942,0.309,-0.518,-0.072
0.442,-0.685,0.192,5.8,-12.7,-7.3,1023,2018,5,10,15,29,0.594,-0.7921,0.3183,-0.5151,-0.0757
0.317,-0.432,0.089,-1.4,58.5,-43.9,0,2018,5,10,15,29,0.614,-0.7939,0.311,-0.5169,-0.0759
0.181,-0.49,-0.004,-6.3,39.3,-79.8,0,2018,5,10,15,29,0.632,-0.7953,0.2984,-0.5216,-0.0794
0.027,-0.457,-0.119,-9.1,25.3,-104.4,0,2018,5,10,15,29,0.652,-0.7946,0.286,-0.528,-0.089
-0.172,-0.363,-0.206,-7.4,48.9,-119.1,0,2018,5,10,15,29,0.672,-0.7936,0.2707,-0.5354,-0.1005
-0.313,-0.261,-0.253,-3.7,83.4,-124.8,0,2018,5,10,15,29,0.693,-0.7938,0.2502,-0.543,-0.1109
-0.367,-0.158,-0.293,-1.8,112.8,-124.4,0,2018,5,10,15,29,0.713,-0.7951,0.2246,-0.5507,-0.1182
-0.42,-0.073,-0.259,-0.4,131.7,-116.3,0,2018,5,10,15,29,0.748,-0.7969,0.1959,-0.558,-0.1229
-0.426,0.036,-0.224,1,141.8,-98.2,0,2018,5,10,15,29,0.775,-0.799,0.166,-0.5643,-0.1242
-0.451,0.133,-0.253,4.2,129.9,-74.4,0,2018,5,10,15,29,0.787,-0.8008,0.1385,-0.5695,-0.1226
-0.382,0.243,-0.248,9.7,101.8,-46.1,0,2018,5,10,15,29,0.791,-0.8028,0.116,-0.5723,-0.1197
-0.314,0.357,-0.212,16.4,67.5,-13.9,0,2018,5,10,15,29,0.829,-0.8051,0.1009,-0.5727,-0.1159
-0.273,0.382,-0.207,23.4,34.2,19,0,2018,5,10,15,29,0.831,-0.8081,0.0939,-0.5707,-0.111
-0.264,0.377,-0.227,27.6,19.8,51.9,0,2018,5,10,15,29,0.851,-0.8117,0.0934,-0.567,-0.1039
-0.241,0.355,-0.328,33.1,13.8,84.6,0,2018,5,10,15,29,0.887,-0.8162,0.0973,-0.5617,-0.093
-0.115,0.25,-0.365,41.1,-0.1,109.6,0,2018,5,10,15,29,0.91,-0.8214,0.1053,-0.5548,-0.0791
-0.085,0.108,-0.143,55.2,-19.3,128,0,2018,5,10,15,29,0.914,-0.8274,0.1176,-0.5453,-0.0641
-0.108,0.032,0.059,64.5,-46.1,141.7,0,2018,5,10,15,29,0.934,-0.834,0.1338,-0.5329,-0.0491
0.085,-0.095,0.078,66.3,-74.9,143.3,0,2018,5,10,15,29,0.954,-0.84,0.1558,-0.5184,-0.0357
0.279,-0.077,0.126,55.6,-90.2,137.1,0,2018,5,10,15,29,0.993,-0.8439,0.1804,-0.5046,-0.0244
0.396,-0.053,0.37,40.5,-92.2,123.7,0,2018,5,10,15,29,1.013,-0.8456,0.2049,-0.4925,-0.0154
0.519,-0.072,0.636,19.5,-79.4,101.3,1023,2018,5,10,15,29,1.018,-0.8452,0.227,-0.4836,-0.0074
0.65,-0.207,0.603,-5.9,-86.3,64.3,1023,2018,5,10,15,29,1.036,-0.8425,0.2458,-0.4793,-0.0021
0.718,-0.129,0.453,-28.6,-131.7,18.7,1023,2018,5,10,15,29,1.075,-0.8362,0.265,-0.48,-0.0044
0.62,-0.164,0.298,-40.8,-175.9,-28.9,1023,2018,5,10,15,29,1.079,-0.8255,0.2871,-0.4855,-0.0169
0.416,-0.568,0.068,-44.3,-111.3,-71,1023,2018,5,10,15,29,1.095,-0.8137,0.3046,-0.4937,-0.0353
0.217,-0.532,-0.088,-39.4,-34.3,-101.6,1023,2018,5,10,15,29,1.13,-0.8056,0.3072,-0.5039,-0.051
0.038,-0.457,-0.203,-32.2,0.2,-127.2,1023,2018,5,10,15,29,1.151,-0.8005,0.2988,-0.515,-0.0663
-0.153,-0.52,-0.266,-24.7,24.6,-144.2,1023,2018,5,10,15,29,1.155,-0.7967,0.2853,-0.5262,-0.0827
-0.332,-0.373,-0.26,-20.4,46.9,-150.5,1023,2018,5,10,15,29,1.176,-0.794,0.2668,-0.5372,-0.0982
-0.426,-0.293,-0.273,-17.1,62.7,-151,1023,2018,5,10,15,29,1.195,-0.792,0.245,-0.5476,-0.113
-0.507,-0.192,-0.281,-15.5,80.3,-143.5,1023,2018,5,10,15,29,1.236,-0.7901,0.2215,-0.5574,-0.1258
-0.555,-0.032,-0.209,-12.6,113,-125.1,1023,2018,5,10,15,29,1.255,-0.7892,0.1952,-0.5666,-0.134
-0.51,0.039,-0.186,-8.8,131.4,-101.3,1023,2018,5,10,15,29,1.259,-0.7893,0.1673,-0.5747,-0.1364
-0.464,0.087,-0.141,-6.1,136.8,-74.7,1023,2018,5,10,15,29,1.277,-0.7899,0.1395,-0.5816,-0.135
-0.432,0.238,-0.141,-3.8,127.2,-45.9,1023,2018,5,10,15,29,1.297,-0.791,0.1147,-0.5867,-0.1296
-0.365,0.278,-0.172,0.8,99.1,-13.5,1023,2018,5,10,15,29,1.337,-0.7922,0.0963,-0.5899,-0.1223
-0.24,0.383,-0.127,6,66.9,21.1,0,2018,5,10,15,29,1.359,-0.794,0.085,-0.5911,-0.1132
-0.116,0.355,-0.094,8.8,31.9,52.9,0,2018,5,10,15,29,1.363,-0.7962,0.0824,-0.5903,-0.1032
-0.02,0.356,-0.051,9.1,7.7,79.7,0,2018,5,10,15,29,1.376,-0.7986,0.0864,-0.5884,-0.0919
0.028,0.34,-0.009,9,-12.1,101.3,0,2018,5,10,15,29,1.414,-0.8008,0.0961,-0.5856,-0.08
0.159,0.338,0,9.9,-42.2,115.7,0,2018,5,10,15,29,1.436,-0.8027,0.1108,-0.5819,-0.0678
0.288,0.208,-0.033,6.1,-83.3,116.4,0,2018,5,10,15,29,1.44,-0.8034,0.1314,-0.5776,-0.0581
0.394,0.236,0.045,4.3,-122.7,107.5,0,2018,5,10,15,29,1.459,-0.8025,0.1571,-0.573,-0.0531
0.428,0.242,0.084,0.8,-158.2,93.7,0,2018,5,10,15,29,1.479,-0.7993,0.1871,-0.5683,-0.0537
0.445,0.2,0.041,-0.2,-152.4,81.1,0,2018,5,10,15,29,1.5,-0.7947,0.2176,-0.5637,-0.0574
0.431,0.167,-0.007,1,-111.6,73.2,0,2018,5,10,15,29,1.52,-0.79,0.2438,-0.5592,-0.0598
0.364,-0.025,-0.127,5.1,-48,62.8,0,2018,5,10,15,29,1.541,-0.7876,0.261,-0.555,-0.0578
0.253,-0.31,-0.293,7.3,-14.6,38.4,0,2018,5,10,15,29,1.561,-0.7874,0.2697,-0.5516,-0.0537
0.097,-0.442,-0.287,9.8,-21,10.3,0,2018,5,10,15,29,1.58,-0.7878,0.274,-0.5491,-0.0519
-0.051,-0.444,-0.216,8.5,-48,-18.9,0,2018,5,10,15,29,1.598,-0.7869,0.2783,-0.5478,-0.0564
-0.209,-0.449,-0.135,4.7,-57.4,-40.1,0,2018,5,10,15,29,1.618,-0.7844,0.2829,-0.5478,-0.066
-0.341,-0.497,-0.2,-0.4,-56.2,-61,0,2018,5,10,15,29,1.639,-0.7812,0.2856,-0.5494,-0.0781
-0.403,-0.321,-0.135,-5.8,-65.3,-74,0,2018,5,10,15,29,1.677,-0.7767,0.2876,-0.5525,-0.093
-0.446,-0.071,-0.08,-10.2,-64.9,-71.8,0,2018,5,10,15,29,1.697,-0.7712,0.2897,-0.5562,-0.1088
-0.473,0.044,-0.133,-11.8,-45.1,-58.2,0,2018,5,10,15,29,1.702,-0.7659,0.2911,-0.56,-0.122
-0.49,0.01,-0.179,-16.2,-17.6,-38.4,0,2018,5,10,15,29,1.721,-0.7618,0.291,-0.5637,-0.1302
-0.45,0.002,-0.203,-21.9,-1.4,-18.1,0,2018,5,10,15,29,1.742,-0.7589,0.2898,-0.5676,-0.1334
-0.319,0.121,-0.187,-27.4,3.3,0.6,0,2018,5,10,15,29,1.779,-0.7562,0.2893,-0.5715,-0.1326
-0.192,0.12,-0.153,-25.4,28.9,21.3,1023,2018,5,10,15,29,1.8,-0.7544,0.2894,-0.5749,-0.1283
-0.084,0.042,-0.043,-18.9,85.8,42.2,1023,2018,5,10,15,29,1.804,-0.7555,0.2855,-0.5778,-0.1171
-0.052,-0.127,-0.041,-7.8,160,58.8,1023,2018,5,10,15,29,1.82,-0.7611,0.275,-0.5793,-0.0965
0.093,0.11,-0.092,4.8,203.8,70.4,1023,2018,5,10,15,29,1.841,-0.7704,0.2568,-0.5793,-0.0684
0.282,0.22,-0.023,17.5,204.1,73.4,1023,2018,5,10,15,29,1.86,-0.7812,0.2361,-0.5765,-0.0385
0.373,0.117,0.109,26,183.4,68.2,1023,2018,5,10,15,29,1.9,-0.7915,0.2163,-0.5714,-0.0102
0.425,-0.165,0.073,29.7,165.5,55,1023,2018,5,10,15,29,1.904,-0.8006,0.1978,-0.5653,0.014
0.553,-0.063,0.103,30.3,119.2,34.6,1023,2018,5,10,15,29,1.92,-0.8079,0.1818,-0.5595,0.0328
0.65,-0.005,0.186,29.4,70.1,7.5,1023,2018,5,10,15,29,1.961,-0.8136,0.1699,-0.5542,0.0433
0.631,-0.066,0.203,21.9,21.9,-20.1,1023,2018,5,10,15,29,1.965,-0.8174,0.1622,-0.5507,0.0449
0.502,-0.055,0.081,15.5,-13.9,-41.8,1023,2018,5,10,15,29,1.984,-0.8194,0.1582,-0.5494,0.0395
0.314,0,0.043,9.6,-35.1,-55.8,1023,2018,5,10,15,29,2.02,-0.8197,0.1569,-0.5499,0.0288
0.034,-0.062,0.141,2.3,-43.7,-61,1023,2018,5,10,15,29,2.04,-0.8197,0.1565,-0.5506,0.0158
-0.207,-0.075,0.1,-7.3,-55.1,-62.3,1023,2018,5,10,15,29,2.045,-0.8185,0.1571,-0.5525,0.0024
-0.349,-0.16,-0.061,-15.6,-81.2,-59.6,1023,2018,5,10,15,29,2.064,-0.8152,0.1613,-0.5559,-0.0126
-0.45,-0.038,-0.118,-22.2,-103.4,-52.4,1023,2018,5,10,15,29,2.085,-0.8105,0.1691,-0.5599,-0.0293
-0.52,-0.002,-0.18,-25.9,-101.8,-38.9,0,2018,5,10,15,29,2.106,-0.8045,0.1797,-0.5641,-0.0453
-0.5,0.032,-0.275,-24.9,-75.5,-22.1,0,2018,5,10,15,29,2.125,-0.7988,0.1893,-0.568,-0.0574
-0.432,0.077,-0.322,-19.8,-66.5,-3,0,2018,5,10,15,29,2.142,-0.7942,0.1977,-0.5708,-0.0652
-0.341,0.105,-0.296,-7.5,-72.1,19.5,0,2018,5,10,15,29,2.177,-0.7904,0.2084,-0.5715,-0.0705
-0.206,0.077,-0.261,6.3,-76.4,38.5,0,2018,5,10,15,29,2.196,-0.788,0.2217,-0.5695,-0.0739
-0.046,-0.024,-0.136,17.4,-67.5,50.3,0,2018,5,10,15,29,2.203,-0.7869,0.2361,-0.565,-0.0752
0.178,-0.132,-0.092,25.9,-50.6,50,0,2018,5,10,15,29,2.242,-0.787,0.2493,-0.5592,-0.0747
0.301,-0.142,0.098,32.5,-22.5,36.8,0,2018,5,10,15,29,2.262,-0.7885,0.2587,-0.553,-0.0729
0.417,-0.14,0.239,33.4,7.5,17,0,2018,5,10,15,29,2.266,-0.7922,0.2615,-0.5467,-0.0706
0.498,-0.102,0.247,28.5,11.2,-6.7,0,2018,5,10,15,29,2.286,-0.7961,0.2597,-0.5419,-0.0703
0.489,-0.023,0.254,18.8,-1.5,-25.5,0,2018,5,10,15,29,2.306,-0.7987,0.2564,-0.5393,-0.0734
0.375,-0.015,0.226,7.1,-10.2,-38,0,2018,5,10,15,29,2.343,-0.7992,0.2539,-0.5388,-0.0791
0.214,0.036,0.13,-2.3,-6.9,-42.8,0,2018,5,10,15,29,2.347,-0.7989,0.2504,-0.5399,-0.0859
0.065,0.045,-0.009,-9.2,-5.5,-42.3,0,2018,5,10,15,29,2.363,-0.7974,0.2467,-0.5427,-0.0923
-0.065,-0.049,-0.124,-12.8,-7.8,-38.8,0,2018,5,10,15,29,2.383,-0.7949,0.2442,-0.5465,-0.0981
-0.194,-0.081,-0.117,-14.9,-11.3,-34.7,0,2018,5,10,15,29,2.422,-0.7925,0.2423,-0.5499,-0.1029
-0.291,-0.068,-0.121,-13,-19.1,-30.3,0,2018,5,10,15,29,2.443,-0.7899,0.2415,-0.5531,-0.1078
-0.338,-0.1,-0.214,-8.5,-38.5,-26,0,2018,5,10,15,29,2.448,-0.787,0.2432,-0.5553,-0.1139
-0.352,-0.046,-0.317,-0.1,-48,-17.2,0,2018,5,10,15,29,2.465,-0.7841,0.2475,-0.556,-0.1208
-0.356,0.001,-0.32,10,-25.8,-3.2,0,2018,5,10,15,29,2.487,-0.7827,0.2517,-0.555,-0.1259
-0.34,0.044,-0.262,19.5,7.3,12.1,0,2018,5,10,15,29,2.508,-0.7839,0.253,-0.5525,-0.1264
-0.314,-0.011,-0.212,26.7,31.8,24.7,1023,2018,5,10,15,29,2.528,-0.7875,0.2514,-0.549,-0.1226
-0.233,-0.038,-0.225,31.6,38.6,32.1,1023,2018,5,10,15,29,2.563,-0.7925,0.2487,-0.5446,-0.1159
-0.163,-0.016,-0.257,37.6,37.1,38.8,1023,2018,5,10,15,29,2.583,-0.798,0.2463,-0.539,-0.1086
-0.12,-0.023,-0.221,42.6,27.6,45,1023,2018,5,10,15,29,2.587,-0.804,0.2448,-0.5322,-0.101
-0.029,-0.026,-0.168,45.5,14.3,50,1023,2018,5,10,15,29,2.607,-0.8098,0.2455,-0.5243,-0.0942
-0.008,0,-0.051,47.6,16.9,54.1,1023,2018,5,10,15,29,2.626,-0.8153,0.2476,-0.516,-0.0873
-0.005,-0.036,0.05,49.9,36.9,57.4,1023,2018,5,10,15,29,2.665,-0.8218,0.2482,-0.5067,-0.0789
0.12,-0.054,0.104,52.3,57.3,56.3,1023,2018,5,10,15,29,2.684,-0.8294,0.2453,-0.4971,-0.0689
0.199,0.043,0.211,49,65.5,47.6,1023,2018,5,10,15,29,2.688,-0.8374,0.2394,-0.4878,-0.0582
0.291,0.027,0.379,40.4,63.5,34.6,1023,2018,5,10,15,29,2.708,-0.8442,0.233,-0.4801,-0.0487
0.442,-0.005,0.4,25.3,53.4,18.8,1023,2018,5,10,15,29,2.728,-0.8496,0.2262,-0.4746,-0.0409
0.605,0.027,0.338,9.4,21.9,-1,1023,2018,5,10,15,29,2.767,-0.8525,0.2211,-0.4721,-0.0369
0.602,-0.035,0.275,-2.9,-4.4,-22.9,1023,2018,5,10,15,29,2.788,-0.8528,0.2187,-0.4725,-0.0387
0.478,-0.012,0.289,-10.1,-8.9,-41.6,1023,2018,5,10,15,29,2.792,-0.8517,0.2164,-0.4751,-0.0446
0.392,0,0.282,-18,5.3,-56,1023,2018,5,10,15,29,2.808,-0.8502,0.2118,-0.479,-0.0521
0.323,0.092,0.192,-30.8,15.5,-66,1023,2018,5,10,15,29,2.847,-0.8482,0.2044,-0.485,-0.0594
0.178,0.015,0.028,-41.9,1.6,-73.1,1023,2018,5,10,15,29,2.868,-0.8445,0.1967,-0.4934,-0.0679
0.059,-0.036,-0.028,-51.6,-20.2,-75,1023,2018,5,10,15,29,2.872,-0.8388,0.1924,-0.5032,-0.0779
-0.044,0.014,-0.031,-58.1,-46.2,-73.5,0,2018,5,10,15,29,2.889,-0.8315,0.1915,-0.5135,-0.0899
-0.168,-0.021,-0.087,-60.2,-65.3,-68.8,0,2018,5,10,15,29,2.91,-0.8229,0.1945,-0.5236,-0.1032
-0.313,-0.095,-0.188,-56.6,-66.3,-60.9,0,2018,5,10,15,29,2.93,-0.8139,0.1997,-0.5329,-0.1163
-0.425,-0.13,-0.312,-49.7,-49.3,-49.8,0,2018,5,10,15,29,2.951,-0.8056,0.2041,-0.5412,-0.1274
-0.477,-0.158,-0.403,-40.8,-26.3,-38.5,0,2018,5,10,15,29,2.971,-0.7989,0.2063,-0.5483,-0.1354
-0.488,-0.125,-0.4,-30.7,-8.7,-26.1,0,2018,5,10,15,29,2.989,-0.7941,0.2063,-0.5541,-0.1399
-0.529,-0.069,-0.346,-19.9,-11.6,-12.5,0,2018,5,10,15,29,3.011,-0.7908,0.2066,-0.5581,-0.1425
-0.533,0.014,-0.35,-7.3,12.4,9.6,0,2018,5,10,15,29,3.047,-0.7894,0.207,-0.56,-0.1422
-0.501,0.113,-0.333,4.2,54.4,39.5,0,2018,5,10,15,29,3.068,-0.7911,0.2047,-0.5601,-0.1351
-0.464,0.154,-0.308,13.4,82.3,71.5,0,2018,5,10,15,29,3.072,-0.7958,0.2003,-0.5584,-0.1209
-0.438,0.243,-0.207,18.3,102.6,103.9,0,2018,5,10,15,29,3.109,-0.8024,0.1954,-0.5549,-0.0998
-0.47,0.382,-0.056,15.8,112.9,141.5,0,2018,5,10,15,29,3.113,-0.8096,0.1916,-0.5499,-0.0727
-0.443,0.429,0.015,11.7,116.5,182.2,0,2018,5,10,15,29,3.131,-0.8163,0.1908,-0.5435,-0.0395
-0.288,0.474,0.078,7.2,131.7,220.7,0,2018,5,10,15,29,3.151,-0.8222,0.1916,-0.5359,0.001
-0.215,0.359,0.017,7.7,86.9,246.6,0,2018,5,10,15,29,3.169,-0.8257,0.1976,-0.5264,0.0445
-0.181,0.133,-0.05,11.3,52.6,264.6,0,2018,5,10,15,29,3.209,-0.8261,0.2114,-0.515,0.0868
-0.168,0.221,0.054,9.4,53.7,282.7,0,2018,5,10,15,29,3.229,-0.8239,0.2281,-0.5019,0.1309
0.027,0.24,0.117,4.4,-14.6,287.7,0,2018,5,10,15,29,3.233,-0.818,0.2495,-0.4881,0.1737
-0.044,0.226,0.544,-20.7,-144.3,269.5,0,2018,5,10,15,29,3.252,-0.8049,0.2831,-0.4785,0.207
0.164,-0.544,0.287,-50.7,-182.9,243.2,1023,2018,5,10,15,29,3.272,-0.7821,0.3271,-0.4774,0.2306
0.116,-0.535,0.234,-76.9,-270.8,200.8,1023,2018,5,10,15,29,3.311,-0.7535,0.3737,-0.4821,0.2449
0.165,-0.588,0.321,-93,-265.2,162.5,1023,2018,5,10,15,29,3.331,-0.7192,0.421,-0.4928,0.2501
0.109,-0.447,0.44,-112.8,-77.6,160.3,1023,2018,5,10,15,29,3.335,-0.689,0.4527,-0.5015,0.2619
-0.028,0.187,0.246,-113,-52,148.6,1023,2018,5,10,15,29,3.351,-0.6688,0.4653,-0.5044,0.2857
0.029,-0.052,-0.047,-110.7,-153.3,129.7,1023,2018,5,10,15,29,3.37,-0.6429,0.4839,-0.5113,0.3016
-0.185,-0.072,-0.078,-115.5,-264,115.3,1023,2018,5,10,15,29,3.391,-0.6079,0.5122,-0.5242,0.3053
-0.251,-0.571,-0.267,-134.8,-289.7,95.2,1023,2018,5,10,15,29,3.411,-0.5639,0.5449,-0.5426,0.3008
0.044,-0.098,-0.997,-116.1,-218.5,70.3,1023,2018,5,10,15,29,3.452,-0.5233,0.5698,-0.5598,0.2965
0.177,0.163,-1.429,-69.4,-142.4,50.9,1023,2018,5,10,15,29,3.472,-0.4934,0.5866,-0.5709,0.2938
0.179,-0.125,-1.402,-25.8,-111.3,39.6,1023,2018,5,10,15,29,3.476,-0.4729,0.5995,-0.577,0.2893
0.086,0.237,-0.886,8.5,-131.9,27.4,1023,2018,5,10,15,29,3.493,-0.4591,0.6116,-0.5794,0.2816
0.053,-0.049,-0.499,7.5,-208.5,2.6,1023,2018,5,10,15,29,3.514,-0.4403,0.6275,-0.5855,0.2633
-0.133,-0.744,-0.242,-0.5,-146.2,-35,0,2018,5,10,15,29,3.534,-0.4207,0.6401,-0.5953,0.2423
-0.486,-0.467,0.001,-20.4,-165.2,-62.5,0,2018,5,10,15,29,3.573,-0.4057,0.6446,-0.6077,0.2245
-0.422,0.059,0.159,-50.2,-218.8,-61.2,0,2018,5,10,15,29,3.594,-0.3825,0.6501,-0.6247,0.2017
-0.333,-0.726,0.2,-80.8,-14.5,-34,0,2018,5,10,15,29,3.598,-0.3606,0.652,-0.6389,0.1908
-0.14,1.087,0.108,-52.7,-98.3,-18.4,0,2018,5,10,15,29,3.614,-0.3506,0.6498,-0.6463,0.1922
0.022,-0.463,0.257,-23.6,18.7,-29.1,0,2018,5,10,15,29,3.652,-0.3409,0.6494,-0.6532,0.1876
-0.149,-0.069,0.25,-7.7,187.3,-18.7,0,2018,5,10,15,29,3.672,-0.3575,0.6374,-0.6514,0.2035
-0.14,-0.015,1.058,-37.1,-51,-38.2,0,2018,5,10,15,29,3.676,-0.3647,0.6283,-0.6535,0.2122
-0.155,-0.129,0.632,-46,-213.8,-46.8,0,2018,5,10,15,29,3.695,-0.3454,0.6308,-0.666,0.1974
-0.173,-0.128,0.099,-33.5,-259,-51,0,2018,5,10,15,29,3.715,-0.315,0.6381,-0.6817,0.1693
-0.106,0.056,-0.199,-28.3,-272.6,-56.1,0,2018,5,10,15,29,3.738,-0.2834,0.6447,-0.6964,0.138
0.191,0.513,-0.29,-40,-297.4,-45,0,2018,5,10,15,29,3.757,-0.2489,0.6509,-0.7094,0.1042
0.186,0.094,-0.054,-53.6,-247.9,-34.8,0,2018,5,10,15,29,3.796,-0.2119,0.6572,-0.7196,0.0722
-0.115,-0.09,0.056,-60.5,-196.7,-56.6,0,2018,5,10,15,29,3.814,-0.1805,0.6583,-0.729,0.0494
-0.093,0.279,0.17,-72.7,-188.5,-59.6,0,2018,5,10,15,29,3.819,-0.1516,0.6555,-0.7391,0.0314
-0.137,0.192,0.082,-74.6,-208.8,-50.3,0,2018,5,10,15,29,3.834,-0.1197,0.6529,-0.7477,0.0118
-0.071,-0.118,-0.124,-65.2,-137.8,-45,0,2018,5,10,15,29,3.855,-0.092,0.6501,-0.7542,-0.0037
-0.291,-0.063,-0.077,-56.1,-145.5,-30.6,0,2018,5,10,15,29,3.875,-0.0678,0.6472,-0.759,-0.0159
-0.188,0.186,-0.12,-43.3,-99,-11.9,0,2018,5,10,15,29,3.895,-0.0481,0.6458,-0.7614,-0.0269
-0.263,-0.112,-0.065,-35,-66.8,4.9,0,2018,5,10,15,29,3.931,-0.0338,0.6465,-0.7613,-0.0341
-0.174,-0.149,-0.169,-22.3,-19.6,14.3,0,2018,5,10,15,29,3.951,-0.0253,0.6483,-0.76,-0.0365
-0.081,-0.485,-0.68,8.9,110.2,17.8,0,2018,5,10,15,29,3.956,-0.0287,0.6507,-0.7581,-0.031
-0.189,-0.26,-0.342,38,300.7,23.8,0,2018,5,10,15,29,3.994,-0.0563,0.6516,-0.7563,-0.0056
-0.106,-0.062,-0.244,54.7,437,39.4,0,2018,5,10,15,29,4.015,-0.1049,0.651,-0.7507,0.0385
-0.065,0.425,-0.38,74.6,603.7,65.2,1023,2018,5,10,15,29,4.019,-0.1724,0.646,-0.7367,0.1005
-0.049,0.672,-0.693,99.4,685.9,90.1,1023,2018,5,10,15,29,4.039,-0.2551,0.6342,-0.7081,0.1763
-0.033,0.696,-0.767,125.3,627.8,78.3,1023,2018,5,10,15,29,4.061,-0.338,0.6146,-0.6681,0.248
-0.122,0.285,-0.596,128.9,566.1,64.9,1023,2018,5,10,15,29,4.075,-0.4112,0.5906,-0.6233,0.3057
-0.329,0.162,-0.241,104.4,499.1,40.5,1023,2018,5,10,15,29,4.096,-0.4741,0.5615,-0.5783,0.3539
0.036,0.41,0.418,71.3,363.8,28.5,1023,2018,5,10,15,29,4.115,-0.5226,0.5315,-0.5385,0.3927
0.043,0.172,-0.152,67.4,133.6,10,1023,2018,5,10,15,29,4.154,-0.5495,0.516,-0.5136,0.4096
0.101,-0.249,-0.304,70.7,91.2,3.8,1023,2018,5,10,15,29,4.174,-0.5639,0.5121,-0.4992,0.4127
-0.04,-0.319,-0.236,74.4,109.6,-1.4,1023,2018,5,10,15,29,4.178,-0.5795,0.5071,-0.4846,0.4148
-0.08,0.059,-0.019,72.4,81.7,-0.2,1023,2018,5,10,15,29,4.197,-0.5943,0.5028,-0.4701,0.4158
0.054,0.344,0.415,52.3,11.7,-8.5,1023,2018,5,10,15,29,4.238,-0.6036,0.5033,-0.4608,0.4122
-0.123,0.028,0.014,54.3,70.3,-14.2,1023,2018,5,10,15,29,4.258,-0.6133,0.501,-0.452,0.4103
-0.284,0.318,-0.155,56,131.7,18.5,1023,2018,5,10,15,29,4.262,-0.6262,0.4938,-0.4388,0.4139
-0.01,0.961,0.298,34.2,-37.9,0.9,1023,2018,5,10,15,29,4.282,-0.6344,0.4905,-0.4279,0.4167
-0.041,-0.032,0.369,36.3,-200,-2,1023,2018,5,10,15,29,4.301,-0.6251,0.5081,-0.4344,0.4026
0.004,-0.102,0.437,22.4,-247.4,-0.8,0,2018,5,10,15,29,4.339,-0.6066,0.5349,-0.4469,0.3821
0.03,-0.117,0.629,12.4,-251,-8.2,0,2018,5,10,15,29,4.359,-0.5839,0.5621,-0.462,0.3599
0.014,-0.326,0.461,6.7,-198.7,-18.5,0,2018,5,10,15,29,4.363,-0.5632,0.5841,-0.4758,0.3391
0.126,0.295,0.469,-9.4,-261.7,-28.3,0,2018,5,10,15,29,4.381,-0.5424,0.6025,-0.4909,0.3188
0.034,-0.016,0.314,-21.6,-411.7,-31.3,0,2018,5,10,15,29,4.401,-0.5054,0.6311,-0.5136,0.287
-0.385,-0.353,0.026,-45,-374.2,-22.7,0,2018,5,10,15,29,4.421,-0.4566,0.6621,-0.5389,0.2502
-0.186,0.214,-0.253,-27.9,-250.4,-16,0,2018,5,10,15,29,4.442,-0.4182,0.6817,-0.5567,0.2243
-0.099,0.156,-0.339,-10.8,-204.7,-11.3,0,2018,5,10,15,29,4.462,-0.39,0.6952,-0.5683,0.2038
0.055,0.164,-0.239,0.3,-210.3,-3.5,0,2018,5,10,15,29,4.483,-0.3646,0.708,-0.5763,0.1829
0.052,-0.036,-0.339,0.7,-195.1,0.3,0,2018,5,10,15,29,4.503,-0.3389,0.7207,-0.5826,0.1615
-0.182,-0.309,-0.68,7.4,-108.8,-12.5,0,2018,5,10,15,29,4.524,-0.32,0.7291,-0.5873,0.1449
-0.102,-0.217,-0.483,13.7,-48.8,-32.7,0,2018,5,10,15,29,4.543,-0.3136,0.7307,-0.5911,0.135
-0.346,-0.587,-0.507,30.6,43.5,-54.7,0,2018,5,10,15,29,4.565,-0.3162,0.7272,-0.5955,0.1282
-0.198,0.104,-0.237,40.7,104.6,-67.5,0,2018,5,10,15,29,4.584,-0.333,0.7164,-0.5992,0.1293
-0.178,0.233,-0.134,51.2,41.3,-84.2,0,2018,5,10,15,29,4.599,-0.3495,0.7048,-0.6038,0.1273
-0.1,-0.676,-0.535,71.6,131.2,-99.9,0,2018,5,10,15,29,4.634,-0.3661,0.6923,-0.6101,0.1195
-0.129,0.043,-0.643,92.2,247.6,-106.9,0,2018,5,10,15,29,4.653,-0.4027,0.6686,-0.6121,0.1262
-0.168,0.085,-0.557,120.8,206.7,-110.7,0,2018,5,10,15,29,4.662,-0.4421,0.6426,-0.6119,0.1301
-0.24,0.17,-0.181,142.8,192.2,-96.2,0,2018,5,10,15,29,4.683,-0.4805,0.6186,-0.6081,0.1286
-0.285,0.122,-0.039,157.4,189.5,-85.8,0,2018,5,10,15,29,4.704,-0.5185,0.5959,-0.6003,0.1249
-0.094,0.3,-0.338,157.3,126.6,-77.3,1023,2018,5,10,15,29,4.742,-0.5527,0.5757,-0.5908,0.1179
-0.08,0.212,-0.111,162.4,86.5,-71.4,1023,2018,5,10,15,29,4.763,-0.5802,0.5615,-0.5803,0.1058
-0.023,-0.072,0.002,161.6,120.8,-71.6,1023,2018,5,10,15,29,4.767,-0.6066,0.5472,-0.5689,0.0936
-0.004,-0.012,0.105,159.4,155.9,-85.3,1023,2018,5,10,15,29,4.785,-0.6375,0.5263,-0.5561,0.0841
0.043,-0.094,0.073,144.2,150,-104.9,1023,2018,5,10,15,29,4.805,-0.6677,0.5016,-0.5448,0.075
0.141,0.048,0.153,130,114.5,-119.5,1023,2018,5,10,15,29,4.822,-0.6933,0.4768,-0.5366,0.0626
-0.002,-0.158,0.296,108.5,91.2,-132.4,1023,2018,5,10,15,29,4.841,-0.7136,0.454,-0.5313,0.0466
-0.049,-0.116,0.368,85.7,98.6,-146.1,1023,2018,5,10,15,29,4.88,-0.7306,0.43,-0.5294,0.0304
-0.098,0.075,0.223,61.4,89.9,-155.2,1023,2018,5,10,15,29,4.899,-0.745,0.4037,-0.5306,0.0149
-0.058,0.226,0.069,44.9,38.1,-155.5,1023,2018,5,10,15,29,4.903,-0.7544,0.3808,-0.5345,-0.003
-0.192,-0.076,-0.029,35.5,8.1,-152.2,1023,2018,5,10,15,29,4.924,-0.7591,0.3638,-0.5391,-0.0237
-0.243,-0.192,-0.017,27.6,4.3,-145,1023,2018,5,10,15,29,4.945,-0.7615,0.3494,-0.544,-0.0443
-0.26,-0.04,-0.045,20,-8.3,-143.6,1023,2018,5,10,15,29,4.982,-0.7622,0.3356,-0.5496,-0.0648
-0.291,0.227,-0.062,14.2,-30,-137.6,1023,2018,5,10,15,29,4.987,-0.7609,0.3243,-0.5553,-0.0857
-0.327,0.262,-0.135,12.3,-41.9,-122.8,1023,2018,5,10,15,29,5.003,-0.7577,0.3165,-0.5604,-0.1073
-0.336,0.304,-0.206,10.9,-38.8,-101.3,1023,2018,5,10,15,29,5.042,-0.7542,0.3108,-0.5643,-0.1263
-0.353,0.312,-0.198,8.8,-28.4,-72,0,2018,5,10,15,29,5.063,-0.7513,0.3066,-0.567,-0.1414
-0.386,0.443,-0.093,2.4,-17.8,-38.1,0,2018,5,10,15,29,5.068,-0.7493,0.3039,-0.5685,-0.1508
-0.419,0.447,-0.065,-5.4,-15.6,-5.4,0,2018,5,10,15,29,5.107,-0.7476,0.3043,-0.5696,-0.1548
-0.418,0.433,-0.038,-11.6,2.3,29.7,0,2018,5,10,15,29,5.128,-0.7466,0.3068,-0.5699,-0.1533
-0.366,0.372,0.005,-15,49.1,68.8,0,2018,5,10,15,29,5.132,-0.7479,0.3089,-0.5696,-0.1434
-0.278,0.416,-0.002,-21.3,97,105.6,0,2018,5,10,15,29,5.146,-0.7522,0.3083,-0.5691,-0.1231
-0.271,0.474,0.001,-27.1,128.2,138.9,0,2018,5,10,15,29,5.164,-0.7582,0.3058,-0.5679,-0.0939
-0.322,0.46,0.071,-31.3,153.9,172.4,0,2018,5,10,15,29,5.185,-0.7648,0.3031,-0.5654,-0.0575
-0.31,0.482,0.044,-29.5,176.1,205.5,0,2018,5,10,15,29,5.224,-0.7718,0.2995,-0.5606,-0.0138
-0.209,0.421,0.06,-23.9,180.2,230.9,0,2018,5,10,15,29,5.245,-0.7781,0.2966,-0.5525,0.0344
-0.174,0.583,0.112,-17.6,158.4,252.7,0,2018,5,10,15,29,5.249,-0.7826,0.2961,-0.5409,0.0845
-0.197,0.589,0.119,-11.2,129,276.7,0,2018,5,10,15,29,5.268,-0.7837,0.3009,-0.5263,0.1348
-0.265,0.478,0.046,-3.4,32.3,281.1,0,2018,5,10,15,29,5.288,-0.7802,0.3136,-0.5097,0.1816
-0.501,-0.095,0.82,-72.2,-343.2,249.1,0,2018,5,10,15,29,5.326,-0.7603,0.3551,-0.5032,0.2061
-0.277,0.052,0.091,-106.1,-484.9,214.2,0,2018,5,10,15,29,5.331,-0.7151,0.4269,-0.5142,0.2042
-0.213,-0.391,-0.261,-173.6,-621.3,182,0,2018,5,10,15,29,5.347,-0.6487,0.5077,-0.5346,0.1882
-0.201,-0.167,-0.629,-204.9,-638.5,131.9,0,2018,5,10,15,29,5.368,-0.5642,0.5847,-0.5598,0.162
-0.27,0.133,-0.643,-188.1,-511.4,95.7,0,2018,5,10,15,29,5.386,-0.4782,0.6441,-0.5814,0.1349
-0.013,-0.024,-0.501,-150,-280.1,81.9,0,2018,5,10,15,29,5.407,-0.4142,0.6799,-0.5925,0.122
0.125,-1.001,-0.701,-125.8,-135,48.3,0,2018,5,10,15,29,5.427,-0.3743,0.6979,-0.5983,0.1211
-0.188,-0.38,-0.816,-115.4,-143.7,-12.4,0,2018,5,10,15,29,5.449,-0.3479,0.7042,-0.606,0.125
-0.332,-0.263,-0.881,-99.6,-245.4,-36.6,1023,2018,5,10,15,29,5.469,-0.3115,0.7107,-0.6203,0.1136
0.07,-0.431,-1.15,-55,-113.3,-31.4,1023,2018,5,10,15,29,5.488,-0.2797,0.7151,-0.6324,0.1009
0.25,0.229,-1.108,4.5,42.1,-6.3,1023,2018,5,10,15,29,5.509,-0.2739,0.7141,-0.6364,0.0992
0.227,0.373,-0.524,49.1,165.7,23.5,1023,2018,5,10,15,29,5.532,-0.2917,0.71,-0.6316,0.1079
0.064,0.019,0.38,43.8,140.5,19.2,1023,2018,5,10,15,29,5.551,-0.3173,0.7049,-0.6226,0.1209
-0.059,0.01,0.703,2.5,17.8,-5.5,1023,2018,5,10,15,29,5.57,-0.3304,0.7015,-0.6184,0.1273
-0.146,-0.09,0.205,-29.2,-151.8,-35,1023,2018,5,10,15,29,5.589,-0.32,0.703,-0.6237,0.1195
-0.01,0.159,-0.15,-32.3,-219.1,-35.3,1023,2018,5,10,15,29,5.608,-0.2929,0.7088,-0.6338,0.1003
0.026,0.003,-0.212,-18.3,-177.1,-23,1023,2018,5,10,15,29,5.628,-0.2655,0.7151,-0.6417,0.0791
-0.145,-0.039,0.011,-14,-138.2,-22.2,1023,2018,5,10,15,29,5.665,-0.2449,0.7193,-0.6469,0.063
-0.234,-0.049,-0.019,-15.7,-125.7,-19.7,1023,2018,5,10,15,29,5.684,-0.227,0.7222,-0.6514,0.0486
-0.232,-0.032,-0.131,-14.1,-108.8,-17.4,1023,2018,5,10,15,29,5.688,-0.2105,0.7246,-0.6552,0.0361
-0.186,-0.087,-0.123,1.1,-56.2,-14.7,1023,2018,5,10,15,29,5.71,-0.1996,0.7257,-0.6578,0.0265
-0.268,-0.198,0.128,8.1,5.5,-9.6,1023,2018,5,10,15,29,5.73,-0.1972,0.7252,-0.6592,0.0218
-0.25,-0.019,0.35,2.5,80.3,2.5,1023,2018,5,10,15,29,5.766,-0.2039,0.7232,-0.6592,0.0263
-0.27,0.204,0.363,-9.4,104.7,13.9,1023,2018,5,10,15,29,5.788,-0.2162,0.7206,-0.6576,0.0382
-0.294,0.256,0.275,-22.1,84.4,25.5,0,2018,5,10,15,29,5.814,-0.2261,0.7191,-0.655,0.0519
-0.252,0.334,0.175,-31.7,57.6,35,0,2018,5,10,15,29,5.826,-0.2319,0.7194,-0.6514,0.0646
-0.198,0.346,0.06,-39.1,13.9,40.8,0,2018,5,10,15,29,5.831,-0.2319,0.722,-0.6475,0.0744
-0.14,0.249,-0.059,-43.2,-19.2,39.1,0,2018,5,10,15,29,5.867,-0.2264,0.7262,-0.644,0.0805
-0.092,0.187,-0.255,-41.8,-40.2,35.3,0,2018,5,10,15,29,5.869,-0.2174,0.7309,-0.6413,0.0836
-0.021,0.12,-0.56,-29.6,-48.6,28.3,0,2018,5,10,15,29,5.888,-0.2072,0.7357,-0.6392,0.0839
0.054,0.1,-0.549,-10.4,-34.8,21.4,0,2018,5,10,15,29,5.928,-0.1997,0.7397,-0.6372,0.0823
0.047,0.055,-0.581,12.8,-27.4,14.8,0,2018,5,10,15,29,5.948,-0.1963,0.7428,-0.6351,0.0791
0.009,-0.035,-0.49,37.7,-26.3,9.5,0,2018,5,10,15,29,5.952,-0.1947,0.7456,-0.6331,0.0725
0.005,-0.055,-0.403,59.2,-24.8,3.8,0,2018,5,10,15,29,5.974,-0.1959,0.748,-0.6309,0.0631
0.008,-0.114,-0.315,77.4,-13.5,-2.1,0,2018,5,10,15,29,5.992,-0.2005,0.7496,-0.6285,0.0519
-0.026,-0.123,-0.012,86.4,10.5,-6,0,2018,5,10,15,29,6.011,-0.2099,0.7499,-0.6259,0.0411
-0.112,-0.039,0.269,80.1,30.3,-10.3,0,2018,5,10,15,29,6.033,-0.2223,0.7487,-0.6236,0.0325
-0.192,0.076,0.44,60.7,26.4,-12.1,0,2018,5,10,15,29,6.053,-0.2342,0.7466,-0.6221,0.026
-0.226,0.087,0.45,36.1,-3.7,-5.8,0,2018,5,10,15,29,6.07,-0.241,0.7452,-0.6212,0.0205
-0.199,0.096,0.576,9.3,-23.2,6.6,0,2018,5,10,15,29,6.091,-0.2415,0.746,-0.6202,0.0158
-0.18,0.114,0.649,-20.6,-22.5,18.8,0,2018,5,10,15,29,6.11,-0.2376,0.7485,-0.6188,0.0145
-0.157,0.144,0.553,-49.8,-20.2,27.5,0,2018,5,10,15,29,6.147,-0.2312,0.7518,-0.6172,0.0177
-0.203,0.231,0.271,-74.3,-50.5,33.2,0,2018,5,10,15,29,6.168,-0.22,0.7562,-0.6156,0.0239
-0.236,0.092,0.201,-91.7,-82.6,40.2,0,2018,5,10,15,29,6.172,-0.2017,0.7624,-0.6141,0.0288
-0.186,-0.042,0.104,-99.9,-71.8,37.5,0,2018,5,10,15,29,6.192,-0.1805,0.7689,-0.6123,0.0342
-0.116,0.025,-0.159,-92.3,-35.1,28.4,1023,2018,5,10,15,29,6.216,-0.1627,0.7734,-0.6111,0.0429
-0.1,0.026,-0.373,-75.8,-16.3,23.9,1023,2018,5,10,15,29,6.234,-0.1509,0.7761,-0.6099,0.0521
-0.016,0.012,-0.54,-55.8,-23.9,18.9,1023,2018,5,10,15,29,6.274,-0.1405,0.7784,-0.6089,0.0593
0.134,-0.147,-0.619,-0.4,0.6,-1.7,1023,2018,5,10,15,29,6.293,-0.1279,0.7809,-0.6081,0.0619
0.169,-0.17,-0.594,28.9,26.7,-14.5,1023,2018,5,10,15,29,6.298,-0.1323,0.7798,-0.6088,0.0607
0.136,-0.142,-0.578,51.3,25,-24.8,1023,2018,5,10,15,29,6.318,-0.141,0.7774,-0.6103,0.0569
0.072,-0.164,-0.519,75.1,29.7,-33.8,1023,2018,5,10,15,29,6.338,-0.152,0.7742,-0.6123,0.0498
0.035,-0.219,-0.356,95.8,65.6,-44,1023,2018,5,10,15,29,6.353,-0.1683,0.7694,-0.6146,0.042
-0.039,-0.223,-0.296,112.2,128.7,-53.8,1023,2018,5,10,15,29,6.391,-0.1934,0.7618,-0.617,0.0378
-0.104,-0.089,-0.283,122.4,170.9,-59.7,1023,2018,5,10,15,29,6.412,-0.2264,0.751,-0.6191,0.0378
-1.263,-0.43,1.344,74.7,366.2,20,1023,2018,5,10,15,29,6.416,-0.2659,0.7377,-0.6188,0.0452
-0.372,1.146,0.158,50.3,402,-8.6,1023,2018,5,10,15,29,6.437,-0.3278,0.7169,-0.6093,0.0852
-0.207,0.683,-0.212,41.7,265,10.8,1023,2018,5,10,15,29,6.455,-0.3714,0.6983,-0.6013,0.1126
-0.283,0.346,-0.159,41.3,225.3,40.8,1023,2018,5,10,15,29,6.475,-0.4046,0.6857,-0.5897,0.1348
-0.076,-0.27,-0.457,43.3,231.7,29.3,1023,2018,5,10,15,29,6.496,-0.4343,0.6745,-0.5763,0.155
0.058,-0.011,-0.446,50,314.1,12.5,1023,2018,5,10,15,29,6.536,-0.47,0.6561,-0.5626,0.1787
0.057,0.341,-0.3,57.5,334.9,8.6,0,2018,5,10,15,29,6.555,-0.5118,0.6305,-0.5458,0.2058
-0.002,-0.125,-0.25,69.9,381.6,8.5,0,2018,5,10,15,29,6.559,-0.5555,0.6008,-0.5252,0.2332
0.104,0.145,0.006,73.1,388.8,4.9,0,2018,5,10,15,29,6.578,-0.6014,0.5649,-0.5004,0.2619
0.018,0.501,0.419,71.9,276.6,-2.7,0,2018,5,10,15,29,6.602,-0.6402,0.532,-0.476,0.2836
0.003,0.449,1.027,49.3,169.9,7.7,0,2018,5,10,15,29,6.617,-0.6642,0.511,-0.4585,0.2956
-0.181,0.406,0.601,24.1,64.1,15.3,0,2018,5,10,15,29,6.637,-0.6759,0.5008,-0.4474,0.3033
-0.26,0.043,0.272,3,45.5,5.6,0,2018,5,10,15,29,6.658,-0.6801,0.4967,-0.4426,0.3078
-0.199,0.115,0.196,-14.6,20,0.4,0,2018,5,10,15,29,6.678,-0.6824,0.4927,-0.4413,0.3108
0.046,0.133,0.14,-24.9,-33.3,-4.9,0,2018,5,10,15,29,6.699,-0.681,0.4913,-0.4438,0.3124
0.139,0.037,0.226,-48.2,-151.6,-15.1,0,2018,5,10,15,29,6.719,-0.6703,0.5,-0.4541,0.3071
0.154,0.187,0.09,-79.1,-263.9,-28.5,0,2018,5,10,15,29,6.739,-0.6476,0.5189,-0.4745,0.2933
0.101,0.614,-0.28,-97.3,-410.5,-36.9,0,2018,5,10,15,29,6.758,-0.6099,0.5488,-0.504,0.2695
0.016,0.606,-0.428,-107.4,-533.6,-40,0,2018,5,10,15,29,6.778,-0.5543,0.5896,-0.5394,0.2323
-0.217,0.098,-0.625,-101.1,-519.2,-24.1,0,2018,5,10,15,29,6.817,-0.4882,0.6316,-0.5722,0.1877
-0.179,0.049,-0.202,-83.3,-371.2,-25.7,0,2018,5,10,15,29,6.837,-0.4307,0.6617,-0.5948,0.1508
-0.581,0.355,-0.001,-71,-298.6,-3.3,0,2018,5,10,15,29,6.841,-0.3844,0.6823,-0.6094,0.1229
-0.287,0.572,-0.003,-71.8,-252.1,7.1,0,2018,5,10,15,29,6.858,-0.345,0.6982,-0.6186,0.103
-0.057,0.008,-0.335,-74.6,-207.9,-0.8,0,2018,5,10,15,29,6.878,-0.308,0.7108,-0.6263,0.0866
-0.141,-0.07,-0.394,-57.6,-108.3,10.2,0,2018,5,10,15,29,6.898,-0.2811,0.7184,-0.6314,0.0776
0.168,-0.618,-0.526,-37.8,48.4,24.7,0,2018,5,10,15,29,6.917,-0.272,0.7214,-0.6316,0.0805
0.056,-0.326,-0.503,1,228.1,38.2,0,2018,5,10,15,29,6.938,-0.289,0.7175,-0.6256,0.1011
-0.089,-0.139,-0.308,36.1,392.6,45.9,1023,2018,5,10,15,29,6.96,-0.3295,0.7055,-0.6125,0.1354
-0.199,-0.024,-0.173,53.8,432.2,40.2,1023,2018,5,10,15,29,6.981,-0.3856,0.6847,-0.5923,0.1773
-0.251,-0.166,-0.638,99.9,543.9,57.7,1023,2018,5,10,15,29,7.017,-0.4471,0.6579,-0.5649,0.219
-0.104,0.342,-0.19,117.2,579.8,35.5,1023,2018,5,10,15,29,7.038,-0.5201,0.6184,-0.5251,0.2668
0.105,0.12,0.355,95.7,436.7,14.7,1023,2018,5,10,15,29,7.042,-0.5822,0.5765,-0.4865,0.3031
0.039,0.037,0.722,49.4,179.5,-4.6,1023,2018,5,10,15,29,7.061,-0.6177,0.5488,-0.4617,0.3223
0.108,-1.347,0.507,42,58.6,-36.7,1023,2018,5,10,15,29,7.084,-0.6302,0.5403,-0.4549,0.3222
0.064,-0.747,-0.047,52.1,135.3,-52.3,1023,2018,5,10,15,29,7.098,-0.646,0.5277,-0.4476,0.3219
-0.225,-0.58,-0.221,49.8,141.1,-78.9,1023,2018,5,10,15,29,7.137,-0.6661,0.5103,-0.4396,0.32
-0.058,-0.325,0.055,17.2,116.1,-115.7,1023,2018,5,10,15,29,7.158,-0.6856,0.4891,-0.4366,0.3162
-0.076,-0.809,0.034,-2.2,55.1,-160,1023,2018,5,10,15,29,7.162,-0.6996,0.4706,-0.4428,0.3048
0.011,-0.76,-0.125,-9.4,123.4,-192.5,1023,2018,5,10,15,29,7.18,-0.7152,0.4453,-0.4535,0.2905
0.036,-0.496,0.029,-26,125.6,-223.6,1023,2018,5,10,15,29,7.201,-0.7336,0.4114,-0.465,0.2759
-0.046,-0.373,0.156,-35,84.7,-251.8,1023,2018,5,10,15,29,7.222,-0.7494,0.3771,-0.4799,0.2563
-0.08,-0.132,0.02,-39.6,54,-268.8,1023,2018,5,10,15,29,7.258,-0.7613,0.3446,-0.4985,0.2302
-0.055,0.09,-0.237,-28.7,22.2,-273.5,1023,2018,5,10,15,29,7.278,-0.7705,0.3145,-0.5172,0.1996
-0.087,0.234,-0.396,-11.6,-26.9,-274.4,0,2018,5,10,15,29,7.282,-0.7773,0.2889,-0.5343,0.1634
-0.113,0.459,-0.41,8.5,-88.9,-268.5,0,2018,5,10,15,29,7.305,-0.7809,0.2711,-0.5493,0.1213
-0.236,0.461,-0.304,28.7,-138.9,-250,0,2018,5,10,15,29,7.324,-0.7817,0.2626,-0.5607,0.0735
-0.373,0.362,-0.217,44.7,-138.3,-226.3,0,2018,5,10,15,29,7.36,-0.7811,0.2587,-0.5675,0.0257
-0.503,0.343,-0.137,51.6,-124.9,-198.3,0,2018,5,10,15,29,7.38,-0.7801,0.2559,-0.5706,-0.0182
-0.604,0.251,-0.135,52.4,-97.1,-169.9,0,2018,5,10,15,29,7.384,-0.7792,0.2522,-0.5709,-0.0564
-0.677,0.14,-0.124,47.4,-73.9,-142.9,0,2018,5,10,15,29,7.402,-0.7785,0.2477,-0.5698,-0.0881
-0.696,0.144,-0.009,35.9,-54.8,-114.2,0,2018,5,10,15,29,7.44,-0.7776,0.2429,-0.5685,-0.1134
-0.705,0.108,0.048,21.7,-28.5,-84.7,0,2018,5,10,15,29,7.459,-0.7766,0.2382,-0.568,-0.1318
-0.694,0.042,0.014,13.1,14.2,-54.6,0,2018,5,10,15,29,7.463,-0.7762,0.232,-0.5685,-0.1425
-0.607,0.096,-0.064,6.9,63.3,-19.4,0,2018,5,10,15,29,7.485,-0.7778,0.2229,-0.5698,-0.1433
-0.422,0.099,-0.084,7.2,110.7,15.2,0,2018,5,10,15,29,7.505,-0.7821,0.2104,-0.5707,-0.1348
-0.299,-0.018,-0.049,9.9,163.5,46.6,0,2018,5,10,15,29,7.524,-0.7888,0.1948,-0.571,-0.1165
-0.211,0.082,-0.023,14.2,203.1,71.4,0,2018,5,10,15,29,7.542,-0.7975,0.1745,-0.5704,-0.0891
-0.006,0.147,-0.129,18.3,155.8,88.3,0,2018,5,10,15,29,7.58,-0.8055,0.1568,-0.5681,-0.0604
0.238,0.32,-0.152,22,48.9,98.5,0,2018,5,10,15,29,7.582,-0.8112,0.151,-0.5636,-0.0376
0.475,0.329,-0.103,21.3,-52.7,105,0,2018,5,10,15,29,7.601,-0.8136,0.1622,-0.5576,-0.0249
0.585,0.465,0.014,20.2,-88.7,106.7,0,2018,5,10,15,29,7.639,-0.8137,0.1832,-0.5512,-0.0177
0.637,0.506,0.127,22.2,-99.5,99.7,0,2018,5,10,15,29,7.66,-0.8127,0.2068,-0.5445,-0.0127
0.742,0.276,0.167,23.6,-90.5,81.9,0,2018,5,10,15,29,7.664,-0.8114,0.229,-0.5375,-0.0098
0.686,-0.07,0.248,19.8,-70.7,53,1023,2018,5,10,15,29,7.685,-0.8103,0.2464,-0.5315,-0.0085
0.506,-0.528,0.142,14.1,-65.9,13.5,1023,2018,5,10,15,29,7.706,-0.8087,0.2596,-0.5276,-0.0108
0.232,-0.813,0.219,0.2,2.8,-41.7,1023,2018,5,10,15,29,7.742,-0.8082,0.2613,-0.5274,-0.0148
0.086,-1.289,0.107,-12.4,-21.3,-102.9,1023,2018,5,10,15,29,7.761,-0.8068,0.2559,-0.5319,-0.0252
-0.085,-0.894,-0.071,-17.7,-82,-151.9,1023,2018,5,10,15,29,7.766,-0.802,0.2515,-0.5396,-0.0478
-0.318,-0.677,-0.199,-12.9,-49.4,-171,1023,2018,5,10,15,29,7.805,-0.7954,0.2465,-0.5482,-0.0768
-0.538,-0.49,-0.274,-8.5,38.3,-172.8,1023,2018,5,10,15,29,7.81,-0.7915,0.2305,-0.5569,-0.1002
-0.637,-0.149,-0.199,-7.6,95.6,-162.4,1023,2018,5,10,15,29,7.827,-0.7903,0.2043,-0.5659,-0.1158
-0.631,0.088,-0.086,-12.1,117.2,-138.6,1023,2018,5,10,15,29,7.868,-0.7896,0.1745,-0.5746,-0.1251
-0.584,0.311,-0.107,-16.4,99.1,-102.5,1023,2018,5,10,15,29,7.872,-0.7886,0.1473,-0.5827,-0.1296
-0.495,0.34,-0.246,-13.9,51.6,-59.4,1023,2018,5,10,15,29,7.886,-0.7869,0.1293,-0.5885,-0.1325
-0.383,0.503,-0.196,-8.6,17.9,-13.6,1023,2018,5,10,15,29,7.906,-0.7856,0.1214,-0.5916,-0.1336
-0.328,0.553,-0.151,-3.8,3.3,33.3,1023,2018,5,10,15,29,7.925,-0.7854,0.1216,-0.5924,-0.1311
-0.302,0.531,-0.199,1.6,8.6,78.2,1023,2018,5,10,15,29,7.965,-0.7867,0.1267,-0.5914,-0.1227
-0.256,0.471,-0.276,8.1,8.4,116.1,1023,2018,5,10,15,29,7.984,-0.7894,0.1355,-0.5887,-0.1084
-0.145,0.378,-0.339,14.4,-6.2,148.5,1023,2018,5,10,15,29,7.989,-0.793,0.1487,-0.5838,-0.0902
-0.069,0.272,-0.316,16.5,-37.1,172.8,1023,2018,5,10,15,29,8.008,-0.7963,0.1677,-0.5768,-0.0702
-0.07,0.169,-0.376,19.7,-84.6,188.9,0,2018,5,10,15,29,8.046,-0.7981,0.1942,-0.5679,-0.0519
-0.011,-0.093,-0.336,27.2,-116.4,192.8,0,2018,5,10,15,29,8.065,-0.7979,0.2277,-0.5568,-0.0366
0.164,-0.226,-0.051,29,-112.7,182.5,0,2018,5,10,15,29,8.069,-0.7967,0.2617,-0.5441,-0.0228
0.415,-0.364,0.075,22.7,-99,155.2,0,2018,5,10,15,29,8.11,-0.7944,0.2927,-0.5319,-0.0099
0.625,-0.4,0.143,21,-89.2,111.5,0,2018,5,10,15,29,8.129,-0.7912,0.3185,-0.522,-0.001
0.663,-0.583,0.239,25.4,-56.4,59.1,0,2018,5,10,15,29,8.133,-0.7889,0.3367,-0.5139,0.0028
0.589,-0.737,0.42,24.3,17,1.4,0,2018,5,10,15,29,8.149,-0.7902,0.3425,-0.508,0.0042
0.56,-0.411,0.388,15.3,76.9,-49.2,0,2018,5,10,15,29,8.167,-0.7954,0.3325,-0.5066,0.0047
0.478,-0.291,0.159,5,68.7,-91.8,0,2018,5,10,15,29,8.187,-0.8007,0.3155,-0.5091,0.0008
0.369,-0.182,-0.051,1,62.2,-113.9,0,2018,5,10,15,29,8.226,-0.8038,0.2974,-0.5149,-0.0078
0.061,-0.298,-0.031,-2.1,63.7,-124.6,0,2018,5,10,15,29,8.247,-0.8063,0.2781,-0.5215,-0.0186
-0.16,-0.286,0.079,-9.1,52,-132.2,0,2018,5,10,15,29,8.251,-0.808,0.2581,-0.5286,-0.0309
-0.292,-0.258,0.018,-17.3,29.1,-138,0,2018,5,10,15,29,8.27,-0.8075,0.24,-0.5368,-0.0455
-0.383,-0.24,-0.125,-22.3,22.6,-134.9,0,2018,5,10,15,29,8.288,-0.8052,0.2238,-0.5455,-0.0616
-0.455,-0.243,-0.209,-22.1,31.9,-124.9,0,2018,5,10,15,29,8.31,-0.8025,0.2079,-0.5539,-0.0763
-0.545,-0.211,-0.169,-22,46.2,-111.3,0,2018,5,10,15,29,8.33,-0.8,0.1911,-0.5617,-0.0882
-0.581,-0.194,-0.138,-20.8,50.5,-94.9,0,2018,5,10,15,29,8.348,-0.7978,0.1747,-0.5688,-0.097
-0.553,-0.077,-0.164,-18.6,48.6,-77.8,0,2018,5,10,15,29,8.367,-0.7958,0.1593,-0.5749,-0.1033
-0.492,0.04,-0.233,-13.2,43.7,-56.4,0,2018,5,10,15,29,8.389,-0.7941,0.1466,-0.5798,-0.1074
-0.453,0.106,-0.272,-4.9,55.7,-29.5,0,2018,5,10,15,29,8.409,-0.7936,0.1357,-0.5831,-0.108
-0.362,0.234,-0.29,3.8,77.9,2.2,0,2018,5,10,15,29,8.446,-0.7949,0.1251,-0.5847,-0.1028
-0.312,0.364,-0.247,10.9,84.8,34.1,1023,2018,5,10,15,29,8.468,-0.7977,0.1153,-0.5846,-0.092
-0.218,0.433,-0.28,19.2,83.6,68.9,1023,2018,5,10,15,29,8.472,-0.8017,0.1086,-0.5827,-0.0765
-0.211,0.503,-0.312,27.2,71.1,103.2,1023,2018,5,10,15,29,8.51,-0.8065,0.1061,-0.5787,-0.057
-0.194,0.491,-0.352,37.3,54.5,135.3,1023,2018,5,10,15,29,8.532,-0.8119,0.1091,-0.5723,-0.0346
-0.064,0.47,-0.377,48.5,38.3,166.5,1023,2018,5,10,15,29,8.536,-0.8177,0.1174,-0.5633,-0.0095
0.022,0.362,-0.286,58,5.1,185.8,1023,2018,5,10,15,29,8.553,-0.8233,0.1314,-0.5518,0.0165
0.176,0.087,-0.103,59.5,-40.2,189.6,1023,2018,5,10,15,29,8.572,-0.8277,0.152,-0.5385,0.0403
0.402,-0.048,0.062,43.1,-105.5,175,1023,2018,5,10,15,29,8.612,-0.8286,0.1798,-0.5269,0.0578
0.548,-0.337,0.227,19.6,-157.2,145.5,1023,2018,5,10,15,29,8.616,-0.8249,0.2142,-0.5187,0.0672
0.648,-0.517,0.321,-1.5,-181.1,101.2,1023,2018,5,10,15,29,8.632,-0.8171,0.2504,-0.5145,0.0694
0.628,-0.669,0.344,-12.8,-166,49.3,1023,2018,5,10,15,29,8.651,-0.8072,0.2828,-0.5139,0.0646
0.564,-0.719,0.281,-14.8,-98,-5.2,1023,2018,5,10,15,29,8.689,-0.799,0.3039,-0.5156,0.0571
0.502,-0.76,0.155,-13,-25.4,-57.9,1023,2018,5,10,15,29,8.711,-0.7947,0.3093,-0.5198,0.0483
0.375,-0.653,0.096,-10.9,23.3,-102,1023,2018,5,10,15,29,8.715,-0.7945,0.3013,-0.5258,0.0381
0.239,-0.507,0.072,-10,39.6,-133.4,1023,2018,5,10,15,29,8.733,-0.7957,0.2856,-0.5333,0.0254
0.075,-0.395,0.076,-8.9,43.1,-152.4,1023,2018,5,10,15,29,8.772,-0.7973,0.2663,-0.5415,0.01
-0.098,-0.372,0.132,-8.4,49.6,-160.9,0,2018,5,10,15,29,8.793,-0.7984,0.2451,-0.5498,-0.0068
-0.218,-0.363,0.16,-11.9,60.3,-163.6,0,2018,5,10,15,29,8.797,-0.7993,0.2216,-0.558,-0.0233
-0.32,-0.357,0.062,-18.3,57,-161.8,0,2018,5,10,15,29,8.815,-0.799,0.1975,-0.5665,-0.0394
-0.451,-0.301,-0.021,-22.2,48.6,-155.9,0,2018,5,10,15,29,8.836,-0.7973,0.1744,-0.575,-0.0555
-0.539,-0.271,-0.103,-22.1,41.6,-146,0,2018,5,10,15,29,8.873,-0.7946,0.1532,-0.583,-0.0714
-0.595,-0.2,-0.159,-17.9,44.7,-130,0,2018,5,10,15,29,8.877,-0.7917,0.1334,-0.5898,-0.086
-0.596,-0.088,-0.226,-10.3,55.6,-109.1,0,2018,5,10,15,29,8.891,-0.7894,0.1144,-0.5952,-0.097
-0.602,0.005,-0.261,-0.2,67.5,-82.7,0,2018,5,10,15,29,8.932,-0.7883,0.096,-0.5987,-0.1038
-0.529,0.148,-0.315,11.4,74.6,-51.6,0,2018,5,10,15,29,8.951,-0.7888,0.0788,-0.6002,-0.1058
-0.403,0.227,-0.333,20.4,69.4,-18.9,0,2018,5,10,15,29,8.955,-0.7908,0.0648,-0.5997,-0.1033
-0.303,0.323,-0.366,25.7,42.5,13.8,0,2018,5,10,15,29,8.993,-0.7938,0.0564,-0.5975,-0.0981
-0.222,0.382,-0.34,32,17.3,47.4,0,2018,5,10,15,29,9.013,-0.7976,0.0551,-0.5936,-0.0911
-0.11,0.43,-0.281,35.4,-7.1,78.9,0,2018,5,10,15,29,9.018,-0.8021,0.0606,-0.5883,-0.0821
0.023,0.46,-0.294,34,-36.9,103.7,0,2018,5,10,15,29,9.035,-0.8067,0.0726,-0.5819,-0.072
0.121,0.419,-0.31,31.9,-65.9,120.4,0,2018,5,10,15,29,9.056,-0.8105,0.0911,-0.5751,-0.0622
0.183,0.371,-0.253,30.2,-90.7,128.5,0,2018,5,10,15,29,9.078,-0.8135,0.1144,-0.5677,-0.0531
0.277,0.209,-0.162,29.1,-100.6,129.7,0,2018,5,10,15,29,9.098,-0.8153,0.1408,-0.5597,-0.0452
0.369,0.063,-0.017,24.9,-107.7,119.6,0,2018,5,10,15,29,9.115,-0.816,0.1676,-0.5517,-0.0384
0.476,0,0.123,17.4,-118.2,99.9,0,2018,5,10,15,29,9.136,-0.815,0.1934,-0.545,-0.0348
0.518,-0.035,0.193,10.8,-134.5,72.6,0,2018,5,10,15,29,9.155,-0.8122,0.2189,-0.5394,-0.0358
0.481,-0.232,0.203,8.5,-126,45.2,0,2018,5,10,15,29,9.174,-0.8082,0.2427,-0.5348,-0.0407
0.426,-0.367,0.21,8,-104,14.8,1023,2018,5,10,15,29,9.196,-0.8043,0.2619,-0.5312,-0.0472
0.356,-0.359,0.212,4.3,-70.2,-14.2,1023,2018,5,10,15,29,9.234,-0.8008,0.2743,-0.5294,-0.0549
0.289,-0.216,0.152,2.4,-45.8,-39.5,1023,2018,5,10,15,29,9.255,-0.7983,0.2802,-0.5292,-0.0635
0.174,-0.455,0.093,-0.8,3.9,-62.9,1023,2018,5,10,15,29,9.259,-0.7968,0.2786,-0.5312,-0.0722
0.053,-0.493,0.059,-5.4,16.5,-83,1023,2018,5,10,15,29,9.28,-0.7961,0.2699,-0.5354,-0.0808
-0.055,-0.528,0.019,-8.9,13.6,-99.8,1023,2018,5,10,15,29,9.3,-0.7946,0.2595,-0.541,-0.0915
-0.162,-0.485,-0.048,-11.9,14.5,-115.3,1023,2018,5,10,15,29,9.318,-0.7923,0.2476,-0.5475,-0.1047
-0.263,-0.364,-0.134,-12.1,23.1,-124.9,1023,2018,5,10,15,29,9.34,-0.7896,0.2337,-0.5548,-0.1186
-0.349,-0.291,-0.183,-11.8,50.8,-127.1,1023,2018,5,10,15,29,9.359,-0.787,0.2166,-0.5623,-0.1316
-0.396,-0.205,-0.22,-11.3,66.7,-122.3,1023,2018,5,10,15,29,9.377,-0.785,0.1965,-0.57,-0.1421
-0.413,-0.075,-0.204,-11.8,79.2,-110.3,1023,2018,5,10,15,29,9.416,-0.7832,0.1751,-0.5773,-0.15
-0.426,-0.055,-0.202,-10.6,82.9,-92.7,1023,2018,5,10,15,29,9.435,-0.7817,0.154,-0.584,-0.155
-0.415,0,-0.223,-7.4,73.4,-74.6,1023,2018,5,10,15,29,9.439,-0.7804,0.135,-0.5895,-0.158
-0.382,0.117,-0.235,-3.2,48.3,-54.4,1023,2018,5,10,15,29,9.477,-0.7794,0.1202,-0.5936,-0.1602
-0.335,0.203,-0.273,4.6,27.2,-32.1,1023,2018,5,10,15,29,9.495,-0.779,0.1108,-0.5954,-0.1622
-0.273,0.209,-0.305,13.2,11.4,-7.2,1023,2018,5,10,15,29,9.499,-0.7797,0.1061,-0.595,-0.1632
-0.129,0.307,-0.274,19.8,3.8,17.3,1023,2018,5,10,15,29,9.519,-0.7818,0.1052,-0.5928,-0.162
-0.03,0.329,-0.193,23.1,-0.4,39.6,0,2018,5,10,15,29,9.539,-0.7848,0.1075,-0.5893,-0.1583
0.118,0.38,-0.119,25.6,-5.4,56,0,2018,5,10,15,29,9.576,-0.7886,0.1121,-0.5849,-0.1524
0.225,0.375,-0.004,24.4,-17.7,64.2,0,2018,5,10,15,29,9.597,-0.7925,0.1194,-0.5798,-0.1458
0.306,0.38,0.102,19.7,-21.5,66.6,0,2018,5,10,15,29,9.599,-0.796,0.1282,-0.5748,-0.1394
0.341,0.285,0.151,12,-27.7,64.6,0,2018,5,10,15,29,9.639,-0.7986,0.1378,-0.5705,-0.1331
0.393,0.213,0.098,6.8,-37.4,58.6,0,2018,5,10,15,29,9.641,-0.8001,0.1481,-0.567,-0.128
0.4,0.172,0.167,9.6,-49,49.2,0,2018,5,10,15,29,9.659,-0.8008,0.1594,-0.5635,-0.125
0.352,0.089,0.198,13.5,-48.7,41.4,0,2018,5,10,15,29,9.678,-0.8016,0.1701,-0.5593,-0.1243
0.296,0.042,0.136,10.7,-50.4,33.8,0,2018,5,10,15,29,9.7,-0.8025,0.1795,-0.5551,-0.1244
0.198,-0.06,0.05,2.6,-68.3,26,0,2018,5,10,15,29,9.738,-0.802,0.1903,-0.5519,-0.126
0.128,-0.154,0.028,-4.3,-94,17.5,0,2018,5,10,15,29,9.758,-0.7994,0.2044,-0.5495,-0.1307
-0.018,-0.449,0.063,-8,-87.7,5.2,0,2018,5,10,15,29,9.762,-0.7956,0.2191,-0.5477,-0.1378
-0.12,-0.594,-0.054,-13,-51.8,-10.8,0,2018,5,10,15,29,9.782,-0.7918,0.2286,-0.5476,-0.1442
-0.188,-0.663,-0.239,-16.7,-27.6,-33.8,0,2018,5,10,15,29,9.802,-0.7882,0.2322,-0.5496,-0.1503
-0.28,-0.686,-0.246,-16.4,6.7,-55.9,0,2018,5,10,15,29,9.841,-0.7849,0.2298,-0.5536,-0.1567
-0.343,-0.673,-0.208,-14.3,54.1,-76.1,0,2018,5,10,15,29,9.861,-0.7827,0.2196,-0.5593,-0.1619
-0.368,-0.531,-0.192,-11.1,98.4,-92.1,0,2018,5,10,15,29,9.865,-0.7819,0.2009,-0.5665,-0.165
-0.372,-0.357,-0.207,-8.9,130,-100.5,0,2018,5,10,15,29,9.879,-0.7819,0.1758,-0.5745,-0.166
-0.351,-0.18,-0.25,-8.2,144,-100.4,0,2018,5,10,15,29,9.918,-0.782,0.1469,-0.5826,-0.1653
-0.307,-0.057,-0.227,-7.5,139,-93,1023,2018,5,10,15,29,9.939,-0.7817,0.1178,-0.5901,-0.1636
-0.197,0.152,-0.241,-2.7,115.1,-79.5,1023,2018,5,10,15,29,9.943,-0.781,0.0913,-0.596,-0.1621
-0.144,0.206,-0.243,5.6,81.2,-63.7,1023,2018,5,10,15,29,9.963,-0.7805,0.0706,-0.5995,-0.1618
-0.059,0.329,-0.274,13.3,58.5,-43.7,1023,2018,5,10,15,29,9.983,-0.7807,0.0556,-0.6007,-0.1623
-0.015,0.521,-0.271,20.8,63.7,-17.2,1023,2018,5,10,15,29,10.021,-0.7822,0.0438,-0.6003,-0.1603
-0.005,0.573,-0.25,30,87,14.3,1023,2018,5,10,15,29,10.043,-0.7853,0.0327,-0.5989,-0.1529
-0.002,0.601,-0.217,38.6,77.8,44.7,1023,2018,5,10,15,29,10.047,-0.7901,0.0232,-0.5962,-0.14
0.022,0.473,-0.128,43.3,43.3,73.3,1023,2018,5,10,15,29,10.065,-0.796,0.0198,-0.5916,-0.1257
-0.046,0.41,-0.067,43.1,-29.8,98.1,1023,2018,5,10,15,29,10.084,-0.8023,0.0269,-0.5853,-0.1134
0.01,0.361,-0.033,40,-98.2,118.8,1023,2018,5,10,15,29,10.107,-0.8082,0.0464,-0.5775,-0.1054
0.152,0.335,-0.056,29.4,-156,130.1,1023,2018,5,10,15,29,10.126,-0.8125,0.0767,-0.5688,-0.1014
0.232,0.282,-0.115,18.4,-191.3,134,1023,2018,5,10,15,29,10.145,-0.8142,0.1143,-0.5601,-0.1007
0.254,0.07,-0.016,8.1,-195.2,126.4,1023,2018,5,10,15,29,10.162,-0.8131,0.1546,-0.5519,-0.1015
0.392,-0.009,0.112,-2.8,-183.5,105.2,1023,2018,5,10,15,29,10.2,-0.8095,0.1921,-0.5449,-0.1036
0.505,-0.001,0.056,-15.2,-182.4,74.8,1023,2018,5,10,15,29,10.221,-0.8034,0.2257,-0.5401,-0.1084
0.398,-0.3,0.011,-22.7,-168.3,40.9,1023,2018,5,10,15,29,10.225,-0.7947,0.2566,-0.5375,-0.1161
0.224,-0.55,0.09,-28.3,-102.4,11.3,0,2018,5,10,15,29,10.244,-0.7862,0.2793,-0.5368,-0.125
0.026,-0.702,-0.005,-25.5,70.5,-22.7,0,2018,5,10,15,29,10.265,-0.7835,0.2795,-0.5408,-0.1244
-0.059,-0.738,-0.156,-21.3,60.6,-57.2,0,2018,5,10,15,29,10.302,-0.7839,0.2659,-0.5475,-0.1215
-0.19,-0.786,-0.093,-18.8,-10.3,-86.5,0,2018,5,10,15,29,10.322,-0.7812,0.2567,-0.5542,-0.1285
-0.283,-0.551,-0.102,-8.1,-8,-97.3,0,2018,5,10,15,29,10.326,-0.7771,0.2497,-0.56,-0.1416
-0.382,-0.367,-0.233,4.4,4.7,-97.3,0,2018,5,10,15,29,10.349,-0.7743,0.2404,-0.5644,-0.1546
-0.446,-0.203,-0.219,16.1,17,-89.2,0,2018,5,10,15,29,10.368,-0.7731,0.2295,-0.5673,-0.1663
-0.402,-0.077,-0.126,27.5,47,-71.1,0,2018,5,10,15,29,10.385,-0.7741,0.2167,-0.5684,-0.1747
-0.375,0.037,-0.095,32.8,72.1,-49.1,0,2018,5,10,15,29,10.404,-0.7779,0.202,-0.568,-0.1769
-0.306,0.061,-0.127,34.3,72.6,-30.6,0,2018,5,10,15,29,10.424,-0.7826,0.1871,-0.567,-0.1759
-0.178,0.231,-0.098,33.6,45.9,-14.5,0,2018,5,10,15,29,10.446,-0.7871,0.1755,-0.5651,-0.1739
0.011,0.203,-0.16,31.3,-2,-2.7,0,2018,5,10,15,29,10.467,-0.7906,0.1711,-0.5615,-0.1738
0.126,0.247,-0.042,27.5,-18,6.7,0,2018,5,10,15,29,10.487,-0.7932,0.1722,-0.557,-0.1753
0.26,0.344,-0.002,19.7,-17.9,10.7,0,2018,5,10,15,29,10.507,-0.7952,0.175,-0.5529,-0.1764
0.441,0.472,-0.073,9.9,-15.2,5,0,2018,5,10,15,29,10.526,-0.7964,0.1778,-0.5501,-0.1772
0.427,0.472,-0.002,1.7,-6.3,-9.2,0,2018,5,10,15,29,10.562,-0.7964,0.1791,-0.5491,-0.1789
0.348,0.419,0.103,-7.1,21.2,-18,0,2018,5,10,15,29,10.582,-0.7959,0.1769,-0.5502,-0.1799
0.293,0.446,0.134,-15.5,42.4,-15.3,0,2018,5,10,15,29,10.587,-0.7953,0.1707,-0.5535,-0.1785
0.194,0.394,0.124,-22.9,33.2,-2,0,2018,5,10,15,29,10.604,-0.7942,0.165,-0.5578,-0.1752
0.016,0.299,0.137,-28.8,12,18.8,0,2018,5,10,15,29,10.625,-0.7926,0.1635,-0.5618,-0.1712
-0.142,0.245,0.106,-30.4,-11.3,44.6,1023,2018,5,10,15,29,10.648,-0.7906,0.1675,-0.5651,-0.1655
-0.295,0.099,0.048,-28.2,-39.6,69.7,1023,2018,5,10,15,29,10.665,-0.7885,0.1778,-0.5667,-0.159
-0.411,-0.038,-0.029,-22.9,-67.9,91.2,1023,2018,5,10,15,29,10.686,-0.7864,0.1941,-0.5662,-0.1521
-0.496,-0.147,-0.097,-14.9,-84.7,107.8,1023,2018,5,10,15,29,10.706,-0.7843,0.2153,-0.5632,-0.1454
-0.541,-0.287,-0.19,-6.4,-71,118.1,1023,2018,5,10,15,29,10.73,-0.783,0.2376,-0.5582,-0.137
-0.537,-0.441,-0.266,-0.5,-51.5,119.3,1023,2018,5,10,15,29,10.749,-0.7827,0.2577,-0.5521,-0.1262
-0.54,-0.602,-0.339,4,-11.7,111.9,1023,2018,5,10,15,29,10.784,-0.7836,0.2737,-0.5458,-0.1138
-0.374,-0.792,-0.399,11.1,103.4,99.8,1023,2018,5,10,15,29,10.805,-0.7885,0.2775,-0.5404,-0.0954
-0.206,-0.585,-0.324,16.4,176.9,83.5,1023,2018,5,10,15,29,10.809,-0.798,0.2656,-0.5363,-0.0694
-0.071,-0.494,-0.24,20.6,210.6,63.2,1023,2018,5,10,15,29,10.845,-0.8094,0.2444,-0.5323,-0.0414
0.079,-0.55,-0.108,18.6,198.3,33.5,1023,2018,5,10,15,29,10.848,-0.8199,0.2192,-0.5284,-0.0164
0.291,-0.492,0.035,9.5,151.2,0.7,1023,2018,5,10,15,29,10.887,-0.8277,0.1952,-0.5259,0.0013
0.403,-0.384,0.168,-2.7,93.3,-34.1,1023,2018,5,10,15,29,10.906,-0.832,0.1762,-0.5258,0.0092
0.474,-0.213,0.178,-16.2,79.3,-66,1023,2018,5,10,15,29,10.908,-0.8336,0.1595,-0.5286,0.0095
0.501,-0.07,0.168,-24.8,87.5,-93.4,1023,2018,5,10,15,29,10.93,-0.8338,0.14,-0.5338,0.0062
0.526,0.069,0.131,-30.2,87.2,-119.4,1023,2018,5,10,15,29,10.95,-0.8331,0.1163,-0.5406,-0.0012
0.489,0.179,0.076,-37.1,84.7,-139.5,0,2018,5,10,15,29,10.97,-0.8313,0.0914,-0.5479,-0.0118
0.386,0.516,0.007,-41.3,55.5,-148.6,0,2018,5,10,15,29,10.99,-0.828,0.0669,-0.556,-0.0255
0.263,0.582,-0.106,-38.8,13.4,-140.7,0,2018,5,10,15,29,11.011,-0.8235,0.0482,-0.5634,-0.0433
0.144,0.588,-0.144,-31.6,-9,-121.1,0,2018,5,10,15,29,11.03,-0.8188,0.0355,-0.5694,-0.0621
0.062,0.623,-0.154,-21.6,-16.9,-91.7,0,2018,5,10,15,29,11.052,-0.8148,0.027,-0.5736,-0.0789
0.004,0.592,-0.187,-13.7,-20.8,-55.9,0,2018,5,10,15,29,11.072,-0.8119,0.0224,-0.5761,-0.0912
-0.103,0.491,-0.157,-8.2,-43.7,-19.4,0,2018,5,10,15,29,11.093,-0.8101,0.0233,-0.5772,-0.0999
-0.222,0.344,-0.152,-1.6,-68.4,16.6,0,2018,5,10,15,29,11.132,-0.8093,0.0313,-0.5768,-0.1059
-0.314,0.203,-0.186,2,-98.7,47.7,0,2018,5,10,15,29,11.152,-0.8094,0.0464,-0.5748,-0.1101
-0.383,0.119,-0.201,5.5,-126.9,75,0,2018,5,10,15,29,11.156,-0.8098,0.0687,-0.5714,-0.1129
-0.529,-0.051,-0.215,7.1,-133,98.8,0,2018,5,10,15,29,11.169,-0.8102,0.096,-0.5667,-0.114
-0.58,-0.29,-0.257,8.1,-119.1,113.6,0,2018,5,10,15,29,11.21,-0.8106,0.1245,-0.5611,-0.1116
-0.565,-0.493,-0.282,9.8,-77.6,116.3,0,2018,5,10,15,29,11.229,-0.8113,0.1496,-0.5552,-0.1051
-0.489,-0.646,-0.306,17.2,-14.9,108.8,0,2018,5,10,15,29,11.233,-0.8133,0.1669,-0.5493,-0.0939
-0.401,-0.813,-0.362,28.2,74.8,92.1,0,2018,5,10,15,29,11.253,-0.8179,0.1718,-0.5435,-0.0772
-0.215,-0.849,-0.302,32.7,174.8,66.6,0,2018,5,10,15,29,11.272,-0.8255,0.1605,-0.5381,-0.0548
0.017,-0.659,-0.046,28,213.1,37.5,0,2018,5,10,15,29,11.309,-0.8341,0.1357,-0.5337,-0.0295
0.243,-0.526,0.232,16.1,171.4,4.3,0,2018,5,10,15,29,11.33,-0.8405,0.1085,-0.5306,-0.0088
0.33,-0.497,0.356,-3.2,95,-31,0,2018,5,10,15,29,11.334,-0.8434,0.0879,-0.5299,0.0004
0.374,-0.234,0.321,-24.1,44.6,-60.3,0,2018,5,10,15,29,11.35,-0.843,0.0739,-0.5326,-0.0002
0.389,0.009,0.192,-41.3,37.3,-82.7,0,2018,5,10,15,29,11.37,-0.8406,0.0615,-0.538,-0.0073
0.337,0.246,0.131,-52.5,42.6,-99.7,1023,2018,5,10,15,29,11.39,-0.8363,0.0465,-0.5459,-0.0172
0.267,0.436,0.122,-60,42.6,-107.1,1023,2018,5,10,15,29,11.429,-0.8307,0.0301,-0.5551,-0.0282
0.205,0.58,0.052,-62.1,21.4,-102.4,1023,2018,5,10,15,29,11.448,-0.8242,0.0152,-0.5646,-0.0402
0.137,0.611,-0.061,-59.4,-16,-84.1,1023,2018,5,10,15,29,11.452,-0.8173,0.0061,-0.5736,-0.0535
0.05,0.656,-0.153,-50.2,-47,-57.5,1023,2018,5,10,15,29,11.493,-0.811,0.0042,-0.5811,-0.067
-0.014,0.629,-0.191,-35.8,-56.3,-24.7,1023,2018,5,10,15,29,11.511,-0.806,0.0082,-0.5865,-0.0786
-0.064,0.539,-0.209,-19.5,-50.4,9.8,1023,2018,5,10,15,29,11.515,-0.803,0.0155,-0.5895,-0.0852
-0.138,0.376,-0.218,-5.5,-42.2,42.1,1023,2018,5,10,15,29,11.554,-0.802,0.0248,-0.5904,-0.0865
-0.185,0.257,-0.243,7.2,-45.5,68.9,1023,2018,5,10,15,29,11.573,-0.8027,0.0365,-0.5893,-0.0832
-0.284,0.147,-0.28,18.9,-72.6,89.9,1023,2018,5,10,15,29,11.577,-0.8048,0.0528,-0.5859,-0.0786
-0.354,0.048,-0.295,26.9,-78.9,108.8,1023,2018,5,10,15,29,11.598,-0.8076,0.0737,-0.5804,-0.0732
-0.4,-0.355,-0.369,31.6,-17.6,124.4,1023,2018,5,10,15,29,11.615,-0.8112,0.093,-0.5737,-0.0628
-0.359,-0.488,-0.333,48,69.1,127.2,1023,2018,5,10,15,29,11.654,-0.8169,0.101,-0.5662,-0.0427
-0.362,-0.506,-0.16,68,119.4,111.9,1023,2018,5,10,15,29,11.674,-0.8251,0.0982,-0.5561,-0.0169
-0.359,-0.611,0.045,77.8,124.2,85.3,1023,2018,5,10,15,29,11.678,-0.8344,0.0894,-0.5437,0.0077
-0.279,-0.649,0.134,73.9,92.6,58.3,1023,2018,5,10,15,29,11.695,-0.843,0.0802,-0.5311,0.0269
-0.091,-0.609,0.126,62.4,66.6,38.1,0,2018,5,10,15,29,11.716,-0.85,0.0738,-0.5199,0.0396
0.043,-0.382,0.108,51.3,53.3,23.1,0,2018,5,10,15,29,11.735,-0.8557,0.0677,-0.5106,0.0487
0.074,-0.322,0.158,39.1,26.7,7.4,0,2018,5,10,15,29,11.755,-0.86,0.0634,-0.5033,0.0533
0.114,-0.203,0.205,27.1,-5.2,-7.8,0,2018,5,10,15,29,11.776,-0.8631,0.062,-0.4983,0.0532
0.262,-0.083,0.109,12.7,-24.8,-14.6,0,2018,5,10,15,29,11.814,-0.8648,0.0637,-0.4954,0.0495
0.356,0.024,0.026,0.8,-36.5,-17.4,0,2018,5,10,15,29,11.834,-0.8648,0.067,-0.4956,0.0436
0.303,0.244,0.008,-6,-64.9,-19.6,0,2018,5,10,15,29,11.84,-0.8641,0.0728,-0.4966,0.0364
0.232,0.261,0.032,-9.9,-90,-21.4,0,2018,5,10,15,29,11.858,-0.8624,0.0828,-0.4986,0.0262
0.259,0.226,0.029,-12.7,-91.3,-21.9,0,2018,5,10,15,29,11.897,-0.8601,0.0947,-0.501,0.0147
0.302,0.324,0.054,-14.9,-90.2,-19.8,0,2018,5,10,15,29,11.901,-0.8573,0.1062,-0.5036,0.0037
0.265,0.346,0.057,-17.3,-99.1,-17.8,0,2018,5,10,15,29,11.917,-0.854,0.1186,-0.5063,-0.0072
0.214,0.273,0.04,-20.7,-84.8,-16.2,0,2018,5,10,15,29,11.954,-0.8503,0.131,-0.5093,-0.0176
0.168,0.075,0.027,-23.5,-54.3,-18,0,2018,5,10,15,29,11.974,-0.8465,0.1398,-0.5129,-0.0257
0.162,-0.052,-0.039,-24.3,-30.1,-24.1,0,2018,5,10,15,29,11.978,-0.8429,0.1439,-0.5174,-0.0319
0.121,-0.178,-0.049,-25.5,-20.2,-37.2,0,2018,5,10,15,29,11.997,-0.8397,0.1448,-0.5219,-0.0376
0.02,-0.353,-0.061,-25.3,-13.5,-53,0,2018,5,10,15,29,12.02,-0.8366,0.1434,-0.5267,-0.0449
-0.09,-0.442,-0.132,-24.9,1.2,-69.1,0,2018,5,10,15,29,12.038,-0.8336,0.139,-0.5318,-0.0536
-0.166,-0.366,-0.178,-23.4,10.8,-81.3,0,2018,5,10,15,29,12.078,-0.8306,0.1313,-0.5373,-0.0634
-0.236,-0.197,-0.171,-19.2,30.3,-83.7,0,2018,5,10,15,29,12.097,-0.8281,0.1206,-0.5425,-0.073
-0.285,-0.113,-0.09,-15.9,42.2,-78.7,1023,2018,5,10,15,29,12.101,-0.8261,0.1078,-0.5471,-0.0806
-0.253,0.038,-0.066,-12.9,35.2,-66.6,1023,2018,5,10,15,29,12.118,-0.8245,0.0953,-0.5508,-0.0865
-0.235,0.069,-0.091,-6.7,14.1,-47.5,1023,2018,5,10,15,29,12.136,-0.8232,0.086,-0.5533,-0.0927
-0.154,0.242,-0.097,2.8,-10.8,-24.5,1023,2018,5,10,15,29,12.176,-0.8225,0.0821,-0.5541,-0.0979
-0.009,0.319,-0.062,10.9,-29.3,-0.7,1023,2018,5,10,15,29,12.196,-0.8227,0.0839,-0.5528,-0.1021
0.025,0.345,0.021,15.2,-29.4,22.1,1023,2018,5,10,15,29,12.2,-0.8237,0.0891,-0.5502,-0.1034
0.134,0.332,0.087,15.6,-42.9,38.5,1023,2018,5,10,15,29,12.219,-0.8252,0.0968,-0.5468,-0.1024
0.269,0.301,0.092,11.6,-75.8,45.5,1023,2018,5,10,15,29,12.239,-0.8263,0.1091,-0.543,-0.1019
0.293,0.21,0.126,3.5,-115.1,43,1023,2018,5,10,15,29,12.259,-0.8258,0.1273,-0.5392,-0.1047
0.251,0.07,0.183,-5.3,-131.9,34.1,1023,2018,5,10,15,29,12.299,-0.8235,0.1489,-0.5359,-0.1108
0.217,-0.055,0.153,-14.2,-126.2,22.2,1023,2018,5,10,15,29,12.317,-0.8197,0.1702,-0.5337,-0.1187
0.163,-0.246,0.082,-21.9,-72.9,9.1,1023,2018,5,10,15,29,12.321,-0.8152,0.1869,-0.5336,-0.1249
0.034,-0.498,0.026,-27.6,-12.7,-5.8,1023,2018,5,10,15,29,12.357,-0.8115,0.1937,-0.5363,-0.1273
-0.095,-0.65,-0.032,-33.5,41.1,-25.8,1023,2018,5,10,15,29,12.378,-0.8089,0.1904,-0.5416,-0.1266
-0.172,-0.678,-0.051,-37.5,67,-50.7,1023,2018,5,10,15,29,12.382,-0.8064,0.1797,-0.5491,-0.1256
-0.193,-0.514,-0.118,-38.4,92.6,-69.3,0,2018,5,10,15,29,12.405,-0.8037,0.1633,-0.5582,-0.1251
-0.234,-0.352,-0.175,-35.8,117.4,-78.3,0,2018,5,10,15,29,12.424,-0.8012,0.142,-0.5677,-0.1239
-0.265,-0.254,-0.214,-31.3,141.6,-77.1,0,2018,5,10,15,29,12.439,-0.7992,0.1168,-0.577,-0.1207
-0.247,-0.031,-0.238,-25.5,155.3,-68.6,0,2018,5,10,15,29,12.461,-0.7974,0.089,-0.5854,-0.1152
-0.208,0.12,-0.278,-16.9,154.5,-53.6,0,2018,5,10,15,29,12.48,-0.7961,0.0614,-0.5922,-0.1075
-0.114,0.296,-0.302,-3.6,129.2,-35.7,0,2018,5,10,15,29,12.517,-0.7955,0.0371,-0.5966,-0.0986
-0.056,0.376,-0.324,11.4,93.7,-18.3,0,2018,5,10,15,29,12.537,-0.796,0.019,-0.598,-0.091
-0.033,0.323,-0.252,30.3,78.4,2.1,0,2018,5,10,15,29,12.541,-0.7983,0.0062,-0.5963,-0.0837
0.094,0.337,-0.164,50.9,87.8,21.6,0,2018,5,10,15,29,12.58,-0.8027,-0.0047,-0.5917,-0.0735
0.24,0.292,-0.132,64.1,65.1,32.8,0,2018,5,10,15,29,12.603,-0.809,-0.0136,-0.5844,-0.0616
0.29,0.305,-0.033,68.6,13,33.9,0,2018,5,10,15,29,12.607,-0.8159,-0.0165,-0.5753,-0.0531
0.277,0.175,0.104,65.1,-29.4,28.1,0,2018,5,10,15,29,12.624,-0.823,-0.0125,-0.5656,-0.0501
0.298,0.021,0.079,53.7,-34.4,18.5,0,2018,5,10,15,29,12.64,-0.829,-0.0063,-0.5568,-0.0505
0.307,-0.032,0.024,41.1,-26.3,7.5,0,2018,5,10,15,29,12.677,-0.8334,-0.0008,-0.5501,-0.052
0.18,0.03,0.098,28,-25.8,-0.7,0,2018,5,10,15,29,12.7,-0.8365,0.0026,-0.5452,-0.0541
0.062,0.061,0.101,13.8,-31.4,2.1,0,2018,5,10,15,29,12.704,-0.8387,0.0063,-0.5415,-0.0574
-0.03,0.118,0.058,0.9,-56,12.3,0,2018,5,10,15,29,12.722,-0.8396,0.0127,-0.5395,-0.061
-0.155,0.195,0.002,-11.7,-93.8,29.2,0,2018,5,10,15,29,12.742,-0.839,0.0255,-0.5394,-0.0652
-0.273,0.185,-0.053,-24.9,-152.6,46.4,0,2018,5,10,15,29,12.779,-0.8369,0.0473,-0.5404,-0.0714
-0.383,0.057,-0.118,-33.8,-212,62.4,0,2018,5,10,15,29,12.799,-0.8328,0.08,-0.5416,-0.0807
-0.455,-0.171,-0.252,-35.8,-216.8,73.9,0,2018,5,10,15,29,12.803,-0.8268,0.1189,-0.5422,-0.0908
-0.452,-0.255,-0.35,-30.3,-178.3,79.8,1023,2018,5,10,15,29,12.841,-0.8201,0.1554,-0.5418,-0.0977
-0.402,-0.415,-0.484,-15.3,-109.1,78.2,1023,2018,5,10,15,29,12.862,-0.815,0.1839,-0.5403,-0.099
-0.314,-0.557,-0.447,3.2,-39.3,70.7,1023,2018,5,10,15,29,12.867,-0.8133,0.2015,-0.5374,-0.0946
-0.201,-0.641,-0.333,17.7,17.5,52.2,1023,2018,5,10,15,29,12.885,-0.8151,0.2082,-0.5334,-0.0868
-0.097,-0.559,-0.231,22.9,41.2,28.4,1023,2018,5,10,15,29,12.901,-0.8188,0.2069,-0.5295,-0.0786
0.037,-0.503,-0.135,22.2,51.3,6.5,1023,2018,5,10,15,29,12.923,-0.8227,0.2018,-0.5263,-0.0726
0.084,-0.417,-0.062,20.5,75,-12.8,1023,2018,5,10,15,29,12.943,-0.8268,0.1922,-0.5241,-0.0677
0.132,-0.395,0.037,14.4,103.8,-32.1,1023,2018,5,10,15,29,12.984,-0.8311,0.1769,-0.5233,-0.0633
0.253,-0.208,0.078,4.9,127.2,-50.5,1023,2018,5,10,15,29,13.004,-0.8349,0.1559,-0.5244,-0.0588
0.302,-0.038,0.1,-4.3,124.9,-67.5,1023,2018,5,10,15,29,13.008,-0.8374,0.1322,-0.5274,-0.0554
0.324,0.102,0.129,-11,108.9,-83,1023,2018,5,10,15,29,13.027,-0.8383,0.1077,-0.5314,-0.0559
0.343,0.197,0.153,-16.1,92.5,-92,1023,2018,5,10,15,29,13.064,-0.8378,0.0844,-0.5361,-0.0594
0.315,0.269,0.141,-20.7,73.6,-97.7,1023,2018,5,10,15,29,13.085,-0.836,0.0636,-0.5409,-0.0655
0.256,0.439,0.12,-23,39.5,-94,1023,2018,5,10,15,29,13.089,-0.8333,0.0461,-0.5458,-0.0739
0.236,0.509,0.036,-24,-11.9,-83.4,1023,2018,5,10,15,29,13.108,-0.8299,0.0362,-0.55,-0.0856
0.156,0.557,-0.005,-23.5,-55,-65.8,1023,2018,5,10,15,29,13.126,-0.8262,0.0346,-0.5533,-0.0996
0.071,0.495,-0.056,-21.2,-63.5,-41.6,1023,2018,5,10,15,29,13.166,-0.8226,0.0389,-0.5557,-0.1132
-0.016,0.436,-0.046,-19.1,-55.8,-16.3,0,2018,5,10,15,29,13.188,-0.8196,0.0452,-0.5576,-0.1229
-0.098,0.398,-0.077,-16.9,-61.2,8.3,0,2018,5,10,15,29,13.192,-0.8173,0.0534,-0.5589,-0.1289
-0.201,0.258,-0.113,-15.8,-77.8,32.2,0,2018,5,10,15,29,13.206,-0.8155,0.0657,-0.5594,-0.1324
-0.254,0.134,-0.138,-15,-102.9,53.5,0,2018,5,10,15,29,13.225,-0.8138,0.0833,-0.5589,-0.1347
-0.319,-0.037,-0.173,-14.4,-120.7,70,0,2018,5,10,15,29,13.263,-0.8118,0.1057,-0.5577,-0.1367
-0.357,-0.174,-0.226,-12.7,-130.2,80.3,0,2018,5,10,15,29,13.282,-0.8096,0.1315,-0.555,-0.138
-0.353,-0.338,-0.293,-8.3,-108.6,83.8,0,2018,5,10,15,29,13.286,-0.8076,0.1568,-0.5515,-0.1377
-0.351,-0.482,-0.311,-1.3,-65.4,82.2,0,2018,5,10,15,29,13.326,-0.8065,0.1773,-0.5477,-0.134
-0.303,-0.768,-0.395,8.9,-9.1,69.9,0,2018,5,10,15,29,13.347,-0.8075,0.1897,-0.5439,-0.1265
-0.161,-0.947,-0.333,13.5,61.4,46.2,0,2018,5,10,15,29,13.351,-0.8106,0.1912,-0.5411,-0.1157
-0.026,-0.76,-0.105,25.1,124.2,16.4,0,2018,5,10,15,29,13.371,-0.8162,0.1802,-0.5392,-0.1025
0.098,-0.601,-0.061,27.2,166,-17.5,0,2018,5,10,15,29,13.393,-0.823,0.1588,-0.5379,-0.0893
0.213,-0.383,-0.04,21.4,205.5,-46.4,0,2018,5,10,15,29,13.407,-0.8296,0.1282,-0.5379,-0.0768
0.282,-0.034,0.085,11.9,209.5,-69.6,0,2018,5,10,15,29,13.447,-0.8343,0.0922,-0.5394,-0.0658
0.305,0.189,0.168,1.4,184.5,-86,0,2018,5,10,15,29,13.466,-0.8366,0.0551,-0.5416,-0.059
0.277,0.314,0.16,-9.7,132.3,-92.3,0,2018,5,10,15,29,13.47,-0.8364,0.0233,-0.5445,-0.0572
0.26,0.458,0.003,-16.9,68.7,-88.8,0,2018,5,10,15,29,13.508,-0.8343,0.0001,-0.5478,-0.0612
0.15,0.526,-0.063,-18.9,10.5,-75.2,0,2018,5,10,15,29,13.529,-0.8315,-0.0129,-0.5507,-0.0701
0.055,0.59,-0.078,-17.5,-25.2,-51.1,0,2018,5,10,15,29,13.533,-0.8289,-0.0175,-0.5531,-0.0806
-0.018,0.523,-0.155,-11.4,-34.3,-21,0,2018,5,10,15,29,13.551,-0.8271,-0.0161,-0.5546,-0.0891
-0.104,0.414,-0.204,-2.9,-36.8,11.1,0,2018,5,10,15,29,13.57,-0.8264,-0.0114,-0.555,-0.0934
-0.153,0.357,-0.225,5.9,-43.2,41.9,1023,2018,5,10,15,29,13.591,-0.827,-0.0032,-0.5542,-0.0935
-0.245,0.287,-0.182,12.3,-58.2,70.5,1023,2018,5,10,15,29,13.628,-0.8288,0.0094,-0.5519,-0.0905
-0.331,0.034,-0.134,15.2,-72,92.9,1023,2018,5,10,15,29,13.633,-0.8313,0.0264,-0.5485,-0.0853
-0.298,-0.145,-0.121,12.7,-82.1,105.3,1023,2018,5,10,15,29,13.65,-0.8336,0.0472,-0.5446,-0.0782
-0.272,-0.321,-0.098,9.1,-85.8,106.4,1023,2018,5,10,15,29,13.669,-0.8351,0.0695,-0.5409,-0.071
-0.264,-0.545,-0.116,7.7,-76,98.4,1023,2018,5,10,15,29,13.689,-0.836,0.0911,-0.5372,-0.0641
-0.224,-0.696,-0.144,8.1,-37.5,80.9,1023,2018,5,10,15,29,13.727,-0.8366,0.1077,-0.5339,-0.0568
-0.15,-0.705,-0.16,11,9.7,58.6,1023,2018,5,10,15,29,13.749,-0.8379,0.1164,-0.5309,-0.0484
-0.095,-0.583,-0.152,17.4,73.6,35.8,1023,2018,5,10,15,29,13.753,-0.8404,0.1143,-0.5282,-0.0379
-0.035,-0.483,-0.124,28.6,133.9,14.7,1023,2018,5,10,15,29,13.771,-0.8447,0.1007,-0.5249,-0.0251
-0.031,-0.285,-0.028,37.2,159.4,-4.2,1023,2018,5,10,15,29,13.791,-0.8502,0.0787,-0.5203,-0.0114
0.054,-0.186,0.005,40.5,174.8,-18.3,1023,2018,5,10,15,29,13.813,-0.8556,0.0523,-0.5148,0.0015
0.191,-0.095,0.093,39.6,147.4,-29.7,1023,2018,5,10,15,29,13.849,-0.8604,0.0264,-0.5086,0.0123
0.282,0.029,0.152,32.8,100.3,-35,1023,2018,5,10,15,29,13.87,-0.8641,0.0049,-0.5029,0.0178
0.372,0.301,0.193,23.6,43,-42.1,1023,2018,5,10,15,29,13.874,-0.8666,-0.0097,-0.4985,0.0178
0.376,0.496,0.242,10.8,-37.2,-43.6,1023,2018,5,10,15,29,13.893,-0.8681,-0.0138,-0.4959,0.0109
0.33,0.453,0.236,-3.7,-97.7,-38.7,0,2018,5,10,15,29,13.914,-0.8686,-0.0065,-0.4953,-0.0021
0.27,0.499,0.16,-17.8,-120.7,-27.1,0,2018,5,10,15,29,13.93,-0.8676,0.0073,-0.4968,-0.0171
0.2,0.527,0.122,-28.3,-123.3,-12,0,2018,5,10,15,29,13.951,-0.8651,0.0242,-0.4999,-0.031
0.146,0.511,0.099,-34.4,-147.3,0,0,2018,5,10,15,29,13.969,-0.8615,0.0439,-0.5038,-0.0434
0.096,0.334,0.076,-41.1,-178.2,10.9,0,2018,5,10,15,29,13.994,-0.8566,0.0694,-0.508,-0.0568
0.054,0.117,0.021,-46.8,-206.8,20.7,0,2018,5,10,15,29,14.013,-0.8499,0.1002,-0.5122,-0.0713
0.045,-0.021,-0.031,-51.1,-227.1,26.4,0,2018,5,10,15,29,14.032,-0.8412,0.135,-0.5163,-0.0861
-0.012,-0.112,-0.086,-55,-249,25.5,0,2018,5,10,15,29,14.053,-0.83,0.1738,-0.5199,-0.1018
-0.02,-0.221,-0.16,-52.6,-259.3,14.2,0,2018,5,10,15,29,14.091,-0.8167,0.2137,-0.5223,-0.1201
-0.029,-0.252,-0.226,-40.5,-242.1,1.5,0,2018,5,10,15,29,14.113,-0.8023,0.2511,-0.5229,-0.1401
0.024,-0.445,-0.473,-18.5,-206.2,-11.9,0,2018,5,10,15,29,14.117,-0.7889,0.2828,-0.5214,-0.1599
0.031,-0.448,-0.588,7.4,-145.4,-22.7,0,2018,5,10,15,29,14.153,-0.7788,0.3055,-0.5179,-0.1781
-0.022,-0.447,-0.483,32,-46.6,-32.4,0,2018,5,10,15,29,14.158,-0.7745,0.3155,-0.5134,-0.1918
-0.064,-0.409,-0.376,50.3,63.6,-45.5,0,2018,5,10,15,29,14.175,-0.7777,0.3088,-0.5103,-0.1981
-0.131,-0.331,-0.293,57.5,146.6,-64.4,0,2018,5,10,15,29,14.194,-0.7865,0.2868,-0.5095,-0.1987
-0.201,-0.196,-0.197,52.4,193,-80.4,0,2018,5,10,15,29,14.214,-0.7971,0.2543,-0.5112,-0.196
-0.276,-0.119,-0.148,38.4,215.4,-88.5,0,2018,5,10,15,29,14.235,-0.8068,0.2162,-0.5153,-0.1914
-0.291,0.007,-0.104,23.1,202,-90.2,0,2018,5,10,15,29,14.255,-0.8138,0.1779,-0.521,-0.1856
-0.286,0.172,-0.067,9.2,166.7,-84.1,0,2018,5,10,15,29,14.293,-0.8178,0.1427,-0.5271,-0.1811
-0.273,0.176,-0.076,-2.5,113.3,-69.3,0,2018,5,10,15,29,14.313,-0.8188,0.116,-0.5328,-0.1791
-0.214,0.223,-0.128,-12.3,50.5,-49.4,0,2018,5,10,15,29,14.317,-0.8177,0.0994,-0.5377,-0.1796
-0.186,0.319,-0.026,-19.9,14.3,-24.2,0,2018,5,10,15,29,14.337,-0.8155,0.0923,-0.5416,-0.1814
-0.137,0.381,0.077,-23.9,-4.3,3.8,0,2018,5,10,15,29,14.357,-0.8131,0.0917,-0.545,-0.1821
-0.056,0.384,0.072,-26.4,-1.2,30.9,0,2018,5,10,15,29,14.373,-0.8113,0.0949,-0.5483,-0.1791
0.05,0.361,0.017,-27.7,-10.9,51.1,0,2018,5,10,15,29,14.413,-0.8099,0.1004,-0.5513,-0.1728
0.141,0.317,0.063,-28.9,-33.1,64.3,0,2018,5,10,15,29,14.431,-0.8085,0.1101,-0.5536,-0.1659
0.176,0.216,0.098,-31.6,-61.8,71.3,0,2018,5,10,15,29,14.436,-0.8066,0.1244,-0.5551,-0.16
0.229,0.15,0.088,-32.9,-87.9,70.3,1023,2018,5,10,15,29,14.454,-0.8036,0.1425,-0.5561,-0.1567
0.259,0.147,0.044,-31.6,-113.4,64.1,1023,2018,5,10,15,29,14.494,-0.7994,0.1632,-0.5563,-0.1568
0.234,0.01,-0.022,-27.9,-127.3,56.6,1023,2018,5,10,15,29,14.514,-0.7943,0.1869,-0.5557,-0.1591
0.232,-0.039,-0.042,-25.2,-143.4,46.9,1023,2018,5,10,15,29,14.518,-0.7879,0.2115,-0.5545,-0.1639
0.144,-0.185,-0.003,-26,-171.5,32.8,1023,2018,5,10,15,29,14.538,-0.7801,0.2383,-0.552,-0.1724
0.105,-0.226,-0.097,-29.7,-197.3,18.7,1023,2018,5,10,15,29,14.559,-0.77,0.2667,-0.549,-0.1853
0.019,-0.359,-0.276,-26.3,-210.7,0.4,1023,2018,5,10,15,29,14.579,-0.7574,0.2963,-0.5454,-0.2022
-0.096,-0.526,-0.414,-21.1,-176.6,-19.4,1023,2018,5,10,15,29,14.598,-0.7441,0.3223,-0.5418,-0.2209
-0.177,-0.52,-0.35,-13.7,-105.8,-36.1,1023,2018,5,10,15,29,14.618,-0.7332,0.3383,-0.5401,-0.2366
-0.211,-0.461,-0.3,-2.4,-33,-53.6,1023,2018,5,10,15,29,14.636,-0.7268,0.3425,-0.5411,-0.248
-0.228,-0.386,-0.266,7.7,11.8,-65.2,1023,2018,5,10,15,29,14.658,-0.7239,0.3377,-0.5439,-0.2567
-0.26,-0.261,-0.263,12.2,40.7,-70.5,1023,2018,5,10,15,29,14.676,-0.7234,0.3272,-0.5478,-0.2633
-0.232,-0.074,-0.235,13.6,68.9,-70.5,1023,2018,5,10,15,29,14.71,-0.7245,0.3127,-0.5527,-0.2676
-0.223,0.096,-0.196,12.5,90.6,-66.1,1023,2018,5,10,15,29,14.73,-0.7269,0.2952,-0.5585,-0.2691
-0.149,0.243,-0.137,11.1,86.4,-58.9,1023,2018,5,10,15,29,14.735,-0.7296,0.277,-0.5644,-0.2689
-0.08,0.323,-0.096,8.1,81.6,-44.6,1023,2018,5,10,15,29,14.775,-0.7321,0.2606,-0.5695,-0.2676
-0.02,0.329,-0.099,4.9,76.2,-27.9,1023,2018,5,10,15,29,14.795,-0.7345,0.2467,-0.5739,-0.2647
0.005,0.389,-0.127,0.6,74.5,-9.7,1023,2018,5,10,15,29,14.8,-0.7371,0.2351,-0.5778,-0.2596
0.014,0.573,-0.055,-3.9,56.7,9.2,0,2018,5,10,15,29,14.838,-0.7398,0.2262,-0.5812,-0.2522
0.064,0.453,-0.007,-3.8,26.9,29.1,0,2018,5,10,15,29,14.857,-0.7417,0.2235,-0.5827,-0.2453
0.092,0.372,0.067,-1.6,9.6,50.9,0,2018,5,10,15,29,14.862,-0.7438,0.2256,-0.5823,-0.2381
0.133,0.343,0.057,0,0.9,71.6,0,2018,5,10,15,29,14.9,-0.7465,0.2312,-0.5802,-0.2292
0.134,0.32,0.002,3.6,-15.8,88.6,0,2018,5,10,15,29,14.92,-0.7495,0.2403,-0.5763,-0.2195
0.146,0.247,0.013,11.7,-33.2,103.4,0,2018,5,10,15,29,14.924,-0.7528,0.253,-0.5703,-0.2095
0.137,0.128,0.033,21.3,-33.5,115.6,0,2018,5,10,15,29,14.94,-0.7566,0.2679,-0.5619,-0.1996
0.088,-0.07,0.071,32.2,7,122.1,0,2018,5,10,15,29,14.959,-0.7625,0.2803,-0.5523,-0.1866
0.038,-0.218,0.058,37.2,43.6,119.3,0,2018,5,10,15,29,14.979,-0.7713,0.2874,-0.5421,-0.1687
-0.029,-0.337,-0.014,35.3,38,100.7,0,2018,5,10,15,29,15.019,-0.78,0.291,-0.5329,-0.1512
-0.087,-0.851,0.11,17.4,82.3,64.1,0,2018,5,10,15,29,15.023,-0.7872,0.2906,-0.5265,-0.1361
-0.115,-0.956,-0.002,2.6,50.8,26.1,0,2018,5,10,15,29,15.04,-0.7927,0.2848,-0.5245,-0.1236
-0.157,-0.856,-0.095,-11.9,-3.7,-16.6,0,2018,5,10,15,29,15.079,-0.7933,0.2821,-0.5257,-0.1208
-0.204,-0.651,-0.198,-13.6,-5,-46.7,0,2018,5,10,15,29,15.101,-0.7906,0.2811,-0.5291,-0.1254
-0.272,-0.448,-0.255,-8.8,47.4,-65.2,0,2018,5,10,15,29,15.105,-0.7892,0.2733,-0.5341,-0.1302
-0.29,-0.24,-0.266,-4.9,86,-78,0,2018,5,10,15,29,15.119,-0.7902,0.257,-0.5401,-0.133
-0.27,-0.086,-0.258,-3.3,99.4,-83.5,0,2018,5,10,15,29,15.14,-0.7919,0.2364,-0.5465,-0.1349
-0.257,0.001,-0.255,0.4,114.6,-76.5,0,2018,5,10,15,29,15.16,-0.794,0.2142,-0.5525,-0.1355
-0.27,0.215,-0.228,4.1,133.6,-57.4,0,2018,5,10,15,29,15.195,-0.797,0.1903,-0.5575,-0.1325
-0.285,0.403,-0.237,7.8,144.7,-30.9,1023,2018,5,10,15,29,15.216,-0.8011,0.166,-0.5613,-0.1246
-0.141,0.441,-0.188,10.6,96.4,-6,1023,2018,5,10,15,29,15.22,-0.8049,0.1474,-0.563,-0.1155
-0.006,0.524,-0.136,12.8,57.4,23.3,1023,2018,5,10,15,29,15.242,-0.8082,0.1371,-0.5626,-0.1068
0.077,0.557,-0.158,12.4,9.2,56.7,1023,2018,5,10,15,29,15.263,-0.8109,0.1365,-0.5604,-0.0983
0.024,0.614,-0.195,13.1,-33.9,91.4,1023,2018,5,10,15,29,15.299,-0.813,0.1453,-0.5566,-0.0892
0.135,0.583,-0.309,20.6,-96.8,119.4,1023,2018,5,10,15,29,15.319,-0.8143,0.1649,-0.5504,-0.081
0.237,0.375,-0.039,29.1,-125.4,139.4,1023,2018,5,10,15,29,15.323,-0.8149,0.1936,-0.5411,-0.0744
0.309,0.076,0.241,29.9,-109.3,150.6,1023,2018,5,10,15,29,15.344,-0.8153,0.2236,-0.5299,-0.0659
0.361,-0.107,0.294,18.1,-113.1,138.9,1023,2018,5,10,15,29,15.364,-0.8146,0.2523,-0.5191,-0.056
0.331,-0.218,0.246,4.2,-114.2,111.8,1023,2018,5,10,15,29,15.399,-0.8119,0.2794,-0.5101,-0.0489
0.265,-0.457,0.119,-0.9,-79.2,71.3,1023,2018,5,10,15,29,15.421,-0.8076,0.3022,-0.5042,-0.0446
0.232,-0.977,0.096,-11.9,47.2,20.8,1023,2018,5,10,15,29,15.425,-0.8066,0.3084,-0.5027,-0.0385
0.17,-0.934,0.146,-18.7,85.4,-42.4,1023,2018,5,10,15,29,15.443,-0.8093,0.2963,-0.506,-0.0321
0.109,-0.889,0.059,-23.2,65.5,-89.2,0,2018,5,10,15,29,15.473,-0.8105,0.2803,-0.5131,-0.034
-0.009,-0.5,-0.089,-20.1,79.2,-115,0,2018,5,10,15,29,15.484,-0.8111,0.2611,-0.5216,-0.0413
-0.176,-0.311,-0.178,-16.1,96.6,-124.2,0,2018,5,10,15,29,15.523,-0.8124,0.2375,-0.5302,-0.049
-0.262,-0.23,-0.164,-14.7,98.4,-126.1,0,2018,5,10,15,29,15.542,-0.8136,0.212,-0.5383,-0.0569
-0.319,-0.079,-0.139,-13.6,109.1,-118.2,0,2018,5,10,15,29,15.546,-0.8144,0.186,-0.5458,-0.064
-0.363,0.007,-0.203,-9.5,132.6,-104.9,0,2018,5,10,15,29,15.566,-0.8156,0.1585,-0.5522,-0.0678
-0.365,0.15,-0.289,-2.3,144.3,-86.3,0,2018,5,10,15,29,15.586,-0.8172,0.1296,-0.5574,-0.068
-0.322,0.317,-0.286,8.2,144.2,-65.2,0,2018,5,10,15,29,15.606,-0.8196,0.1011,-0.5601,-0.0647
-0.236,0.392,-0.272,22,127.6,-42.1,0,2018,5,10,15,29,15.626,-0.8226,0.0763,-0.5603,-0.0593
-0.161,0.427,-0.208,35.8,100.7,-13.5,0,2018,5,10,15,29,15.661,-0.8265,0.0568,-0.5574,-0.0525
-0.089,0.348,-0.171,48.6,89.2,17.1,0,2018,5,10,15,29,15.682,-0.8315,0.0432,-0.552,-0.044
-0.066,0.443,-0.081,58.5,75.2,46.9,0,2018,5,10,15,29,15.687,-0.8375,0.0336,-0.5444,-0.032
-0.054,0.374,-0.029,63.7,50,71.1,0,2018,5,10,15,29,15.704,-0.8439,0.0299,-0.5353,-0.0178
-0.001,0.329,-0.004,62.3,15.4,91,0,2018,5,10,15,29,15.743,-0.8501,0.0323,-0.5255,-0.0034
0.151,0.233,0.057,57.2,-10.6,103.3,0,2018,5,10,15,29,15.763,-0.8555,0.0408,-0.5159,0.0103
0.19,-0.106,0.16,44.1,-3,105,0,2018,5,10,15,29,15.767,-0.8599,0.0516,-0.5071,0.0239
0.301,-0.343,0.25,27.2,48.3,93.5,0,2018,5,10,15,29,15.804,-0.8628,0.0576,-0.5005,0.04
0.346,-0.259,0.272,3.5,115.6,74,0,2018,5,10,15,29,15.826,-0.8642,0.0516,-0.4967,0.0597
0.31,-0.254,0.17,-20.2,130.8,43,0,2018,5,10,15,29,15.83,-0.8638,0.0383,-0.4959,0.0792
0.187,-0.513,0.252,-44.7,160.5,9,0,2018,5,10,15,29,15.843,-0.8614,0.0177,-0.4985,0.0952
0.079,-0.555,0.294,-67.7,175.3,-20.7,0,2018,5,10,15,29,15.881,-0.8568,-0.0093,-0.5039,0.1083
-0.008,-0.339,0.273,-82.4,174.1,-42.8,0,2018,5,10,15,29,15.883,-0.85,-0.0404,-0.5116,0.1184
-0.117,-0.258,0.17,-89.5,143.5,-55.7,0,2018,5,10,15,29,15.922,-0.8417,-0.0704,-0.5206,0.1246
-0.177,-0.232,0.009,-90.1,110,-62.8,0,2018,5,10,15,29,15.94,-0.8329,-0.096,-0.5302,0.1259
-0.211,-0.17,-0.046,-81,95.9,-66.3,1023,2018,5,10,15,29,15.942,-0.8243,-0.1189,-0.5392,0.1245
-0.243,-0.036,-0.15,-64.1,85,-62.6,1023,2018,5,10,15,29,15.98,-0.8166,-0.1397,-0.5464,0.1224
-0.26,-0.049,-0.282,-41.3,79.9,-56.1,1023,2018,5,10,15,29,16.002,-0.8105,-0.1581,-0.5508,0.1206
-0.255,-0.009,-0.349,-13.6,61.4,-47.8,1023,2018,5,10,15,29,16.011,-0.807,-0.1735,-0.5517,0.1191
-0.2,0.044,-0.362,17.2,43.4,-38,1023,2018,5,10,15,29,16.028,-0.8064,-0.185,-0.5489,0.1183
-0.15,0.079,-0.267,44.1,23.9,-26.7,1023,2018,5,10,15,29,16.048,-0.809,-0.1921,-0.5427,0.1179
-0.093,0.192,-0.201,66,-2.1,-13.4,1023,2018,5,10,15,29,16.069,-0.8144,-0.1944,-0.5337,0.1181
0.009,0.309,-0.163,80.1,-39.6,1.3,1023,2018,5,10,15,29,16.088,-0.822,-0.1906,-0.5234,0.1179
0.125,0.351,-0.056,84.7,-73.5,12.9,1023,2018,5,10,15,29,16.126,-0.8313,-0.1795,-0.5128,0.1164
0.189,0.44,0.083,79.8,-84.8,25.9,1023,2018,5,10,15,29,16.13,-0.8407,-0.1643,-0.503,0.1145
0.229,0.497,0.102,67.9,-77.9,43,1023,2018,5,10,15,29,16.147,-0.8487,-0.1477,-0.4946,0.1145
0.241,0.445,0.038,52.2,-77.3,59.2,1023,2018,5,10,15,29,16.185,-0.8546,-0.1308,-0.4885,0.1172
0.163,0.077,0.099,35.5,-66.3,69.6,1023,2018,5,10,15,29,16.204,-0.8585,-0.1139,-0.4848,0.1216
0.125,-0.416,0.266,9.5,-46.3,67.4,1023,2018,5,10,15,29,16.208,-0.8602,-0.0982,-0.4837,0.1274
0.099,-0.715,0.365,-17,0,54.5,1023,2018,5,10,15,29,16.228,-0.8588,-0.0899,-0.4859,0.1347
-0.017,-0.661,0.255,-36.9,33.5,32.1,1023,2018,5,10,15,29,16.249,-0.855,-0.09,-0.4904,0.1425
-0.163,-0.713,0.099,-46.8,45.2,0.8,1023,2018,5,10,15,29,16.288,-0.8502,-0.0955,-0.496,0.1476
-0.213,-0.703,0.056,-51.1,64.5,-33,0,2018,5,10,15,29,16.309,-0.8454,-0.1065,-0.5015,0.149
-0.237,-0.531,0.015,-53,74.5,-55.5,0,2018,5,10,15,29,16.313,-0.8406,-0.1222,-0.5065,0.1475
-0.214,-0.358,-0.068,-53.6,70.8,-66.1,0,2018,5,10,15,29,16.332,-0.8357,-0.14,-0.5111,0.1437
-0.234,-0.187,-0.204,-45.2,60.4,-68.4,0,2018,5,10,15,29,16.352,-0.8312,-0.1569,-0.515,0.1385
-0.225,-0.028,-0.302,-33.2,52.2,-63.7,0,2018,5,10,15,29,16.373,-0.8275,-0.1722,-0.5174,0.1329
-0.18,0.126,-0.307,-16.4,37.8,-52.7,0,2018,5,10,15,29,16.394,-0.8253,-0.1843,-0.5182,0.1276
-0.133,0.287,-0.262,2.6,28.9,-34,0,2018,5,10,15,29,16.409,-0.8246,-0.1929,-0.517,0.1239
-0.087,0.365,-0.272,21,25.1,-10,0,2018,5,10,15,29,16.449,-0.8253,-0.1985,-0.5139,0.1237
-0.048,0.381,-0.294,40.6,23.4,10.8,0,2018,5,10,15,29,16.466,-0.8272,-0.201,-0.5089,0.1271
0.001,0.47,-0.194,61.1,18.2,24.9,0,2018,5,10,15,29,16.471,-0.8305,-0.2014,-0.5016,0.1335
0.014,0.474,-0.084,78.3,0.6,40.7,0,2018,5,10,15,29,16.51,-0.8356,-0.1981,-0.4923,0.1416
0.009,0.348,0.008,89.9,-13.5,56.4,0,2018,5,10,15,29,16.53,-0.8418,-0.1906,-0.4817,0.151
0.079,0.21,0.011,93.9,-24.9,66,0,2018,5,10,15,29,16.535,-0.8483,-0.1804,-0.4706,0.1618
0.159,0.017,0.108,90.8,-44.8,65.7,0,2018,5,10,15,29,16.553,-0.8551,-0.1669,-0.4599,0.1713
0.301,0.041,0.265,78.8,-67.2,58.8,0,2018,5,10,15,29,16.59,-0.8617,-0.1509,-0.4502,0.1786
0.409,-0.084,0.445,56.9,-75.8,52.5,0,2018,5,10,15,29,16.612,-0.8672,-0.133,-0.4432,0.1835
0.378,-0.48,0.504,22.8,-75.8,37.8,0,2018,5,10,15,29,16.616,-0.8707,-0.1159,-0.4407,0.1848
0.365,-0.581,0.391,-12.9,-54.8,16.5,0,2018,5,10,15,29,16.632,-0.8712,-0.1043,-0.4426,0.1843
0.291,-0.609,0.35,-48.8,-73.1,-13.3,0,2018,5,10,15,29,16.65,-0.8698,-0.0959,-0.4495,0.1792
0.181,-0.6,0.245,-77.5,-104.1,-47.5,0,2018,5,10,15,29,16.672,-0.867,-0.0866,-0.4615,0.1663
0.051,-0.623,0.075,-94.5,-99.3,-81.6,0,2018,5,10,15,29,16.692,-0.8631,-0.0786,-0.4767,0.1464
-0.102,-0.513,-0.045,-103.8,-58.2,-103.4,0,2018,5,10,15,29,16.712,-0.858,-0.077,-0.4923,0.1242
-0.202,-0.37,-0.158,-106.3,-7.1,-112.5,0,2018,5,10,15,29,16.735,-0.8513,-0.0841,-0.5072,0.1038
-0.281,-0.18,-0.209,-105,-6.5,-114.8,1023,2018,5,10,15,29,16.755,-0.8437,-0.096,-0.5211,0.0852
-0.334,-0.123,-0.14,-99.9,-103.8,-119.3,1023,2018,5,10,15,29,16.775,-0.8367,-0.1004,-0.5346,0.0619
-0.334,-0.053,-0.198,-90.6,-214.3,-115.8,1023,2018,5,10,15,29,16.795,-0.8311,-0.0877,-0.5483,0.028
-0.348,0.059,-0.192,-74.1,-273,-103.6,1023,2018,5,10,15,29,16.814,-0.8264,-0.0622,-0.5593,-0.0135
-0.328,0.158,-0.192,-54.4,-273.1,-82.7,1023,2018,5,10,15,29,16.835,-0.8218,-0.0313,-0.5661,-0.0552
-0.297,0.274,-0.217,-33.3,-261.2,-57.8,1023,2018,5,10,15,29,16.856,-0.8174,0.0003,-0.5686,-0.0917
-0.294,0.244,-0.11,-16.3,-232.2,-28.5,1023,2018,5,10,15,29,16.876,-0.8135,0.0317,-0.5674,-0.1228
-0.302,0.282,-0.008,-7.1,-199.1,6.2,1023,2018,5,10,15,29,16.892,-0.8105,0.0613,-0.564,-0.1454
-0.26,0.26,0.13,-7.4,-177.6,40.4,1023,2018,5,10,15,29,16.914,-0.8081,0.0901,-0.5597,-0.1597
-0.185,0.135,0.206,-17,-175.1,70.1,1023,2018,5,10,15,29,16.933,-0.8053,0.1208,-0.5554,-0.1683
-0.146,0.046,0.207,-30.5,-188.2,92.5,1023,2018,5,10,15,29,16.955,-0.8011,0.1549,-0.5514,-0.1734
-0.138,-0.046,0.102,-39.5,-207.7,105.3,1023,2018,5,10,15,29,16.975,-0.7946,0.1934,-0.5473,-0.1773
0.009,-0.094,0.054,-40.4,-211.4,110.2,1023,2018,5,10,15,29,16.996,-0.7866,0.2347,-0.5417,-0.1805
0.073,-0.14,0.083,-37.5,-186,109.8,1023,2018,5,10,15,29,17.015,-0.778,0.2741,-0.5352,-0.1817
0.162,-0.059,0.024,-39.3,-181.2,101.1,1023,2018,5,10,15,29,17.035,-0.7687,0.3098,-0.529,-0.182
0.209,-0.18,-0.079,-40.2,-165.5,90.3,1023,2018,5,10,15,29,17.057,-0.7578,0.3436,-0.5236,-0.1826
0.363,-0.243,-0.079,-33,-134.6,71.8,0,2018,5,10,15,29,17.076,-0.7475,0.372,-0.5188,-0.183
0.453,-0.24,-0.041,-16.9,-100.4,45.6,0,2018,5,10,15,29,17.115,-0.739,0.3938,-0.5147,-0.1838
0.452,-0.24,-0.068,2.5,-61.2,14.7,0,2018,5,10,15,29,17.136,-0.7331,0.4076,-0.5113,-0.1866
0.377,-0.197,-0.117,16,-33,-14.1,0,2018,5,10,15,29,17.14,-0.7302,0.4133,-0.5092,-0.1911
0.268,-0.168,-0.122,23.5,-14.1,-38.1,0,2018,5,10,15,29,17.156,-0.7295,0.4131,-0.5078,-0.1979
0.136,-0.099,-0.112,26.8,-0.5,-55.3,0,2018,5,10,15,29,17.176,-0.7294,0.409,-0.5078,-0.2064
-0.006,-0.064,-0.187,29.3,15.6,-65,0,2018,5,10,15,29,17.197,-0.73,0.4018,-0.509,-0.2154
-0.127,-0.029,-0.248,28,44.6,-68.7,0,2018,5,10,15,29,17.232,-0.732,0.3909,-0.5111,-0.2234
-0.23,-0.022,-0.292,27.4,105.5,-63.2,0,2018,5,10,15,29,17.254,-0.7369,0.3742,-0.515,-0.227
-0.301,-0.035,-0.3,27.5,164.6,-53.6,0,2018,5,10,15,29,17.258,-0.7457,0.3503,-0.5206,-0.2237
-0.328,-0.043,-0.276,26.9,219.7,-42.4,0,2018,5,10,15,29,17.295,-0.7576,0.3195,-0.5273,-0.2137
-0.347,0.03,-0.214,23,276.4,-27.1,0,2018,5,10,15,29,17.317,-0.7718,0.2822,-0.5348,-0.1964
-0.327,0.127,-0.124,17.4,323.7,-9,0,2018,5,10,15,29,17.321,-0.7866,0.2387,-0.5431,-0.1707
-0.261,0.211,-0.004,10.5,318.7,8.3,0,2018,5,10,15,29,17.337,-0.8001,0.1932,-0.5502,-0.1401
