time_1,time_2,time_3,time_4,time_5,time_6,w,x,y,z,droll,dpitch,dyaw,ax,ay,az,heart
2018,5,17,21,25,26.136,-0.2415,-0.6279,-0.7071,-0.2174,0,0,0,0.001,0.007,-0.013,0
2018,5,17,21,25,26.14,-0.2414,-0.6279,-0.7071,-0.2175,0,0,0,0,0.007,-0.011,0
2018,5,17,21,25,26.155,-0.2413,-0.628,-0.7071,-0.2175,0,0,0,0.001,0.007,-0.01,0
2018,5,17,21,25,26.172,-0.2413,-0.628,-0.707,-0.2176,0,0,0,0,0.007,-0.01,0
2018,5,17,21,25,26.196,-0.2412,-0.628,-0.707,-0.2176,0,0,0,0.001,0.011,-0.01,0
2018,5,17,21,25,26.216,-0.2412,-0.628,-0.707,-0.2177,0.6,0,0,0,0.008,-0.009,0
2018,5,17,21,25,26.235,-0.2415,-0.6281,-0.707,-0.2172,0.7,0.1,0.1,0.002,0.005,-0.014,0
2018,5,17,21,25,26.258,-0.2419,-0.6282,-0.7069,-0.2167,0.8,-0.2,0.1,0.001,0.008,-0.014,0
2018,5,17,21,25,26.276,-0.242,-0.6284,-0.7068,-0.2163,0.6,0,0.1,0.001,0.007,-0.012,0
2018,5,17,21,25,26.3,-0.2423,-0.6285,-0.7068,-0.2159,0.5,0.1,0.2,0.003,0.01,-0.016,0
2018,5,17,21,25,26.318,-0.2423,-0.6285,-0.7068,-0.2158,0,0,0,0,0.009,-0.016,0
2018,5,17,21,25,26.356,-0.2422,-0.6285,-0.7068,-0.2159,0,0,0,0.001,0.007,-0.013,0
2018,5,17,21,25,26.356,-0.2423,-0.6286,-0.7067,-0.2158,-0.6,0.1,0,0,0.01,-0.009,0
2018,5,17,21,25,26.38,-0.2426,-0.6286,-0.7066,-0.2157,-0.9,0.1,-0.1,0.002,0.009,-0.008,0
2018,5,17,21,25,26.398,-0.2431,-0.6287,-0.7064,-0.2154,-0.8,0,0,0,0.007,-0.012,0
2018,5,17,21,25,26.415,-0.2436,-0.6288,-0.7063,-0.2151,-0.5,0,-0.1,0.001,0.008,-0.011,0
2018,5,17,21,25,26.439,-0.2436,-0.6289,-0.7062,-0.2151,0,0,0,0.002,0.009,-0.006,0
2018,5,17,21,25,26.456,-0.2435,-0.6289,-0.7062,-0.2152,0,0,0,0,0.006,-0.015,0
2018,5,17,21,25,26.48,-0.2434,-0.629,-0.7062,-0.2152,0,0,0,0,0.01,-0.012,0
2018,5,17,21,25,26.497,-0.2434,-0.629,-0.7061,-0.2152,0,0,0,0.002,0.009,-0.006,0
2018,5,17,21,25,26.52,-0.2433,-0.629,-0.7061,-0.2152,0,0,0,0.002,0.009,-0.01,0
2018,5,17,21,25,26.539,-0.2432,-0.6291,-0.7061,-0.2153,0,0,0,0.003,0.008,-0.012,0
2018,5,17,21,25,26.56,-0.2431,-0.6291,-0.7061,-0.2154,0,0,0,0.003,0.008,-0.012,0
2018,5,17,21,25,26.579,-0.2431,-0.6291,-0.706,-0.2155,0,0,0,0.001,0.006,-0.012,1023
2018,5,17,21,25,26.597,-0.243,-0.6292,-0.706,-0.2155,0,0,0,0.004,0.009,-0.014,1023
2018,5,17,21,25,26.62,-0.2429,-0.6292,-0.706,-0.2156,0,0,0,-0.001,0.007,-0.01,1023
2018,5,17,21,25,26.638,-0.243,-0.6293,-0.706,-0.2154,0.5,-0.1,0,0,0.005,-0.011,1023
2018,5,17,21,25,26.656,-0.243,-0.6294,-0.7059,-0.2153,0,0,0,0,0.007,-0.014,1023
2018,5,17,21,25,26.68,-0.2429,-0.6294,-0.7059,-0.2153,0,0,0,0.001,0.009,-0.011,1023
2018,5,17,21,25,26.7,-0.243,-0.6295,-0.7059,-0.2152,0.8,-0.2,0,0.004,0.005,-0.006,1023
2018,5,17,21,25,26.717,-0.2431,-0.6296,-0.7058,-0.2148,1.5,-0.3,-0.1,0.002,0.01,-0.015,1023
2018,5,17,21,25,26.74,-0.2433,-0.6298,-0.7057,-0.2143,1.4,-0.2,0,0,0.007,-0.017,0
2018,5,17,21,25,26.778,-0.2435,-0.63,-0.7057,-0.2137,1.1,-0.2,0,0.001,0.002,-0.015,0
2018,5,17,21,25,26.778,-0.2436,-0.6301,-0.7056,-0.2134,0,0,0,-0.001,0.005,-0.005,0
2018,5,17,21,25,26.801,-0.2435,-0.6302,-0.7056,-0.2134,0,0,0,-0.002,0.007,-0.015,0
2018,5,17,21,25,26.839,-0.2438,-0.6303,-0.7055,-0.2132,-0.8,0.1,0,0.001,0.008,-0.01,0
2018,5,17,21,25,26.839,-0.2442,-0.6303,-0.7053,-0.213,-0.6,0.1,0,0.004,0.005,-0.015,0
2018,5,17,21,25,26.862,-0.2442,-0.6304,-0.7053,-0.213,0,0,0,0.001,0.007,-0.015,0
2018,5,17,21,25,26.881,-0.2441,-0.6304,-0.7053,-0.2131,0,0,0,0.001,0.006,-0.01,0
2018,5,17,21,25,26.915,-0.2442,-0.6305,-0.7052,-0.2131,-0.6,0.2,0,0.001,0.005,-0.014,0
2018,5,17,21,25,26.938,-0.2446,-0.6306,-0.705,-0.2128,-0.6,0.1,-0.1,0,0.006,-0.012,0
2018,5,17,21,25,26.943,-0.2447,-0.6307,-0.705,-0.2128,0,0,0,0.002,0.009,-0.011,0
2018,5,17,21,25,26.959,-0.2446,-0.6307,-0.7049,-0.2129,0,0,0,0,0.009,-0.009,0
2018,5,17,21,25,26.982,-0.2444,-0.6307,-0.7049,-0.213,0,0,0,-0.001,0.009,-0.007,0
2018,5,17,21,25,27,-0.2443,-0.6308,-0.7049,-0.2131,0,0,0,0.001,0.009,-0.015,0
2018,5,17,21,25,27.022,-0.2442,-0.6308,-0.7048,-0.2132,0,0,0,-0.001,0.009,-0.009,0
2018,5,17,21,25,27.041,-0.2441,-0.6309,-0.7048,-0.2133,0,0,0,0,0.007,-0.013,0
2018,5,17,21,25,27.059,-0.2441,-0.6309,-0.7048,-0.2133,-0.5,0.3,0,0,0.008,-0.013,0
2018,5,17,21,25,27.083,-0.2445,-0.631,-0.7046,-0.2131,-0.8,0.1,0,0.001,0.009,-0.012,0
2018,5,17,21,25,27.1,-0.2448,-0.6311,-0.7045,-0.2129,-0.9,-0.1,-0.1,0.003,0.004,-0.012,0
2018,5,17,21,25,27.123,-0.2453,-0.6312,-0.7043,-0.2127,-1,0,-0.2,0.003,0.007,-0.013,0
2018,5,17,21,25,27.143,-0.2457,-0.6313,-0.7041,-0.2126,-0.9,-0.1,-0.1,-0.004,0.007,-0.014,0
2018,5,17,21,25,27.16,-0.2459,-0.6314,-0.704,-0.2125,-0.8,0,0,0,0.009,-0.008,0
2018,5,17,21,25,27.184,-0.2462,-0.6315,-0.7038,-0.2123,-0.5,-0.1,-0.1,0,0.007,-0.009,0
2018,5,17,21,25,27.202,-0.2461,-0.6315,-0.7038,-0.2125,0,0,0,-0.001,0.008,-0.008,0
2018,5,17,21,25,27.225,-0.246,-0.6315,-0.7037,-0.2126,0,0,0,0,0.009,-0.011,0
2018,5,17,21,25,27.245,-0.2461,-0.6317,-0.7037,-0.2124,0,0,0,0.002,0.008,-0.011,0
2018,5,17,21,25,27.261,-0.246,-0.6317,-0.7036,-0.2124,0,0,0,0.001,0.008,-0.011,1023
2018,5,17,21,25,27.28,-0.246,-0.6318,-0.7036,-0.2125,0,0,0,0.001,0.008,-0.014,1023
2018,5,17,21,25,27.303,-0.2458,-0.6318,-0.7036,-0.2126,0,0,0,0,0.009,-0.014,1023
2018,5,17,21,25,27.322,-0.2457,-0.6319,-0.7035,-0.2127,0,0,0,-0.001,0.007,-0.009,1023
2018,5,17,21,25,27.358,-0.2456,-0.6319,-0.7035,-0.2128,0,0,0,-0.001,0.005,-0.015,1023
2018,5,17,21,25,27.38,-0.2455,-0.632,-0.7035,-0.2129,0,0,0,-0.002,0.006,-0.009,1023
2018,5,17,21,25,27.383,-0.2454,-0.632,-0.7034,-0.2129,0,0,0,0,0.009,-0.013,1023
2018,5,17,21,25,27.42,-0.2453,-0.6321,-0.7034,-0.213,0,0,0,0,0.008,-0.014,1023
2018,5,17,21,25,27.439,-0.2451,-0.6321,-0.7034,-0.2131,0,0,0,0.002,0.004,-0.015,1023
2018,5,17,21,25,27.443,-0.2451,-0.6322,-0.7033,-0.2131,0,0,0,0.001,0.007,-0.015,0
2018,5,17,21,25,27.481,-0.245,-0.6322,-0.7033,-0.2132,0,0,0,-0.001,0.009,-0.014,0
2018,5,17,21,25,27.5,-0.2449,-0.6323,-0.7033,-0.2133,0,0,0,0.001,0.009,-0.011,0
2018,5,17,21,25,27.507,-0.2448,-0.6323,-0.7032,-0.2134,0,0,0,0,0.009,-0.011,0
2018,5,17,21,25,27.522,-0.2447,-0.6323,-0.7032,-0.2135,0,0,0,0,0.007,-0.011,0
2018,5,17,21,25,27.559,-0.2446,-0.6324,-0.7032,-0.2136,0,0,0,-0.001,0.008,-0.013,0
2018,5,17,21,25,27.582,-0.2445,-0.6324,-0.7031,-0.2137,0,0,0,0,0.006,-0.013,0
2018,5,17,21,25,27.586,-0.2444,-0.6325,-0.7031,-0.2138,0,0,0,-0.001,0.007,-0.014,0
2018,5,17,21,25,27.602,-0.2442,-0.6325,-0.7031,-0.2139,0,0,0,0,0.011,-0.015,0
2018,5,17,21,25,27.625,-0.2441,-0.6325,-0.7031,-0.214,0,0,0,0.002,0.007,-0.009,0
2018,5,17,21,25,27.644,-0.244,-0.6326,-0.703,-0.2141,0,0,0,0,0.006,-0.013,0
2018,5,17,21,25,27.667,-0.244,-0.6326,-0.703,-0.2142,0,0,0,0.001,0.009,-0.015,0
2018,5,17,21,25,27.686,-0.2439,-0.6327,-0.703,-0.2142,0,0,0,0.001,0.008,-0.015,0
2018,5,17,21,25,27.709,-0.2438,-0.6327,-0.703,-0.2143,0,0,0,0.001,0.008,-0.013,0
2018,5,17,21,25,27.727,-0.2437,-0.6327,-0.703,-0.2144,0,0,0,0,0.007,-0.016,0
2018,5,17,21,25,27.75,-0.2436,-0.6327,-0.7029,-0.2144,0,0,0,0.003,0.008,-0.011,0
2018,5,17,21,25,27.765,-0.2435,-0.6328,-0.7029,-0.2145,0,0,0,0,0.009,-0.014,0
2018,5,17,21,25,27.8,-0.2434,-0.6328,-0.7029,-0.2146,0,0,0,0.004,0.006,-0.012,0
2018,5,17,21,25,27.823,-0.2434,-0.6328,-0.7029,-0.2146,0,0,0,-0.002,0.009,-0.012,0
2018,5,17,21,25,27.828,-0.2435,-0.6329,-0.7028,-0.2146,0,0,0,0,0.009,-0.007,0
2018,5,17,21,25,27.864,-0.2436,-0.633,-0.7027,-0.2145,0,0,0,0,0.008,-0.015,0
2018,5,17,21,25,27.887,-0.2436,-0.633,-0.7027,-0.2145,0,0,0,-0.001,0.008,-0.009,0
2018,5,17,21,25,27.891,-0.2435,-0.6331,-0.7026,-0.2146,0,0,0,0,0.009,-0.01,0
2018,5,17,21,25,27.926,-0.2435,-0.6331,-0.7026,-0.2147,0,0,0,0,0.007,-0.009,0
2018,5,17,21,25,27.926,-0.2434,-0.6331,-0.7026,-0.2147,0,0,0,0,0.006,-0.01,0
2018,5,17,21,25,27.949,-0.2433,-0.6332,-0.7026,-0.2148,0,0,0,0,0.007,-0.012,1023
2018,5,17,21,25,27.966,-0.2432,-0.6332,-0.7026,-0.2148,0.6,0.1,0.1,0,0.007,-0.013,1023
2018,5,17,21,25,27.983,-0.2434,-0.6333,-0.7025,-0.2146,0.5,0.1,0.1,0.001,0.007,-0.012,1023
2018,5,17,21,25,28.003,-0.2434,-0.6333,-0.7025,-0.2145,0,0,0,0,0.006,-0.011,1023
2018,5,17,21,25,28.039,-0.2434,-0.6334,-0.7024,-0.2145,0,0,0,0,0.01,-0.013,1023
2018,5,17,21,25,28.061,-0.2433,-0.6334,-0.7024,-0.2146,0,0,0,0,0.01,-0.016,1023
2018,5,17,21,25,28.066,-0.2432,-0.6334,-0.7024,-0.2146,0,0,0,0,0.009,-0.011,1023
2018,5,17,21,25,28.103,-0.2431,-0.6334,-0.7024,-0.2147,0,0,0,0,0.008,-0.016,1023
2018,5,17,21,25,28.126,-0.2432,-0.6335,-0.7023,-0.2146,-0.6,0,0.1,0.002,0.007,-0.013,1023
2018,5,17,21,25,28.129,-0.2435,-0.6335,-0.7023,-0.2146,-0.6,0.1,0,0,0.008,-0.008,1023
2018,5,17,21,25,28.164,-0.2436,-0.6336,-0.7022,-0.2144,0,0,0,0.003,0.005,-0.009,0
2018,5,17,21,25,28.187,-0.2436,-0.6336,-0.7022,-0.2145,0,0,0,0.001,0.006,-0.011,0
2018,5,17,21,25,28.192,-0.2435,-0.6336,-0.7021,-0.2146,0,0,0,-0.002,0.011,-0.011,0
2018,5,17,21,25,28.228,-0.2434,-0.6337,-0.7021,-0.2146,0,0,0,0,0.008,-0.018,0
2018,5,17,21,25,28.228,-0.2433,-0.6337,-0.7021,-0.2147,0,0,0,0,0.009,-0.012,0
2018,5,17,21,25,28.25,-0.2432,-0.6337,-0.7021,-0.2148,0,0,0,-0.001,0.008,-0.014,0
2018,5,17,21,25,28.269,-0.2432,-0.6337,-0.7021,-0.2148,0,0,0,-0.001,0.009,-0.009,0
2018,5,17,21,25,28.29,-0.2431,-0.6338,-0.702,-0.2149,0,0,0,0.001,0.008,-0.006,0
2018,5,17,21,25,28.307,-0.2431,-0.6338,-0.702,-0.2149,0,0,0,0,0.009,-0.01,0
2018,5,17,21,25,28.33,-0.243,-0.6338,-0.702,-0.215,0,0,0,0.001,0.01,-0.009,0
2018,5,17,21,25,28.348,-0.243,-0.6338,-0.702,-0.215,0,0,0,0,0.008,-0.009,0
2018,5,17,21,25,28.371,-0.2429,-0.6339,-0.702,-0.2151,0,0,0,0.001,0.005,-0.011,0
2018,5,17,21,25,28.389,-0.2429,-0.6339,-0.702,-0.2151,0,0,0,0.002,0.006,-0.012,0
2018,5,17,21,25,28.412,-0.2428,-0.6339,-0.7019,-0.2152,0,0,0,-0.001,0.009,-0.012,0
2018,5,17,21,25,28.431,-0.2427,-0.6339,-0.7019,-0.2153,0,0,0,0,0.006,-0.01,0
2018,5,17,21,25,28.454,-0.2427,-0.634,-0.7019,-0.2153,0,0,0,0,0.007,-0.01,0
2018,5,17,21,25,28.47,-0.2426,-0.634,-0.7019,-0.2154,0,0,0,0,0.006,-0.015,0
2018,5,17,21,25,28.488,-0.2426,-0.634,-0.7019,-0.2153,0,0,0,0,0.008,-0.013,0
2018,5,17,21,25,28.511,-0.2426,-0.634,-0.7019,-0.2154,0,0,0,0,0.008,-0.015,0
2018,5,17,21,25,28.529,-0.2427,-0.634,-0.7018,-0.2154,0,0,0,0,0.007,-0.006,0
2018,5,17,21,25,28.552,-0.2429,-0.6341,-0.7017,-0.2152,-0.6,0.1,0,0,0.008,-0.013,0
2018,5,17,21,25,28.571,-0.2433,-0.6342,-0.7016,-0.2149,-0.5,0.2,0,0,0.007,-0.011,0
2018,5,17,21,25,28.595,-0.2435,-0.6342,-0.7015,-0.2148,0,0,0,0.001,0.01,-0.012,0
2018,5,17,21,25,28.612,-0.2435,-0.6343,-0.7015,-0.2149,0,0,0,0,0.007,-0.006,0
2018,5,17,21,25,28.632,-0.2434,-0.6343,-0.7015,-0.2149,0,0,0,0.004,0.007,-0.011,0
2018,5,17,21,25,28.655,-0.2433,-0.6343,-0.7014,-0.215,0,0,0,0,0.008,-0.012,0
2018,5,17,21,25,28.671,-0.2433,-0.6343,-0.7014,-0.2151,0,0,0,0.001,0.007,-0.011,1023
2018,5,17,21,25,28.689,-0.2432,-0.6344,-0.7014,-0.2151,0,0,0,0,0.008,-0.015,1023
2018,5,17,21,25,28.712,-0.2431,-0.6344,-0.7014,-0.2152,0,0,0,0.003,0.006,-0.013,1023
2018,5,17,21,25,28.728,-0.2431,-0.6344,-0.7014,-0.2152,0,0,0,0.002,0.009,-0.009,1023
2018,5,17,21,25,28.751,-0.2431,-0.6344,-0.7014,-0.2153,0,0,0,0,0.011,-0.008,1023
2018,5,17,21,25,28.769,-0.2433,-0.6345,-0.7013,-0.215,0.5,0,0.1,-0.001,0.008,-0.013,1023
2018,5,17,21,25,28.792,-0.2435,-0.6346,-0.7013,-0.2147,0,0,0,0.005,0.009,-0.008,1023
2018,5,17,21,25,28.811,-0.2435,-0.6346,-0.7012,-0.2147,0,0,0,0.002,0.007,-0.01,1023
2018,5,17,21,25,28.834,-0.2434,-0.6346,-0.7012,-0.2147,0,0,0,0.003,0.009,-0.011,1023
2018,5,17,21,25,28.871,-0.2434,-0.6346,-0.7012,-0.2148,0,0,0,0.003,0.008,-0.012,0
2018,5,17,21,25,28.893,-0.2433,-0.6347,-0.7012,-0.2148,0,0,0,0.001,0.007,-0.008,0
2018,5,17,21,25,28.898,-0.2432,-0.6347,-0.7012,-0.2149,0,0,0,0.001,0.008,-0.01,0
2018,5,17,21,25,28.914,-0.2432,-0.6347,-0.7012,-0.2149,0,0,0,0.001,0.008,-0.011,0
2018,5,17,21,25,28.936,-0.2431,-0.6347,-0.7012,-0.215,0,0,0,0.001,0.009,-0.007,0
2018,5,17,21,25,28.952,-0.2431,-0.6347,-0.7011,-0.215,0,0,0,0,0.008,-0.012,0
2018,5,17,21,25,28.971,-0.243,-0.6348,-0.7011,-0.2151,0,0,0,0.002,0.01,-0.013,0
2018,5,17,21,25,28.994,-0.243,-0.6348,-0.7011,-0.2151,0,0,0,0.002,0.006,-0.01,0
2018,5,17,21,25,29.012,-0.2429,-0.6348,-0.7011,-0.2152,0,0,0,0,0.006,-0.012,0
2018,5,17,21,25,29.035,-0.2429,-0.6348,-0.7011,-0.2152,0,0,0,0,0.005,-0.014,0
2018,5,17,21,25,29.072,-0.2428,-0.6348,-0.7011,-0.2153,0,0,0,0,0.008,-0.011,0
2018,5,17,21,25,29.095,-0.2428,-0.6349,-0.7011,-0.2153,0,0,0,0.002,0.005,-0.013,0
2018,5,17,21,25,29.1,-0.2427,-0.6349,-0.701,-0.2153,0,0,0,0.001,0.008,-0.014,0
2018,5,17,21,25,29.114,-0.2427,-0.6349,-0.701,-0.2154,0,0,0,0,0.009,-0.011,0
2018,5,17,21,25,29.136,-0.2427,-0.6349,-0.701,-0.2154,0,0,0,0.003,0.01,-0.017,0
2018,5,17,21,25,29.153,-0.2426,-0.6349,-0.701,-0.2154,0,0,0,0,0.006,-0.01,0
2018,5,17,21,25,29.172,-0.2425,-0.6349,-0.701,-0.2155,0,0,0,0.002,0.004,-0.012,0
2018,5,17,21,25,29.195,-0.2425,-0.635,-0.701,-0.2155,0,0,0,0,0.008,-0.015,0
2018,5,17,21,25,29.212,-0.2424,-0.635,-0.701,-0.2155,-0.5,0,0.1,0.003,0.009,-0.009,0
2018,5,17,21,25,29.235,-0.2427,-0.635,-0.7009,-0.2154,-0.8,0.2,0,0.001,0.008,-0.008,0
2018,5,17,21,25,29.272,-0.2432,-0.6351,-0.7008,-0.2151,-0.6,0,0,0,0.007,-0.013,0
2018,5,17,21,25,29.295,-0.2432,-0.6351,-0.7008,-0.2151,0,0,0,0.003,0.005,-0.012,0
2018,5,17,21,25,29.3,-0.2431,-0.6351,-0.7008,-0.2151,0,0,0,-0.001,0.008,-0.014,0
2018,5,17,21,25,29.32,-0.2431,-0.6351,-0.7007,-0.2152,0,0,0,0.001,0.009,-0.013,0
2018,5,17,21,25,29.337,-0.243,-0.6352,-0.7007,-0.2152,0,0,0,0.004,0.008,-0.007,0
2018,5,17,21,25,29.355,-0.243,-0.6352,-0.7007,-0.2152,0,0,0,0.001,0.008,-0.017,0
2018,5,17,21,25,29.372,-0.2429,-0.6352,-0.7007,-0.2153,0,0,0,0.002,0.007,-0.01,1023
2018,5,17,21,25,29.396,-0.2429,-0.6352,-0.7007,-0.2153,0,0,0,0.002,0.009,-0.013,1023
2018,5,17,21,25,29.414,-0.2429,-0.6352,-0.7007,-0.2153,0,0,0,0.004,0.008,-0.009,1023
2018,5,17,21,25,29.435,-0.2428,-0.6352,-0.7007,-0.2154,0,0,0,0,0.006,-0.01,1023
2018,5,17,21,25,29.472,-0.2427,-0.6353,-0.7007,-0.2154,0,0,0,-0.001,0.006,-0.012,1023
2018,5,17,21,25,29.495,-0.2427,-0.6353,-0.7007,-0.2154,0,0,0,0,0.006,-0.014,1023
2018,5,17,21,25,29.5,-0.2426,-0.6353,-0.7007,-0.2155,0,0,0,0.001,0.008,-0.012,1023
2018,5,17,21,25,29.515,-0.2426,-0.6353,-0.7007,-0.2155,0,0,0,0.001,0.007,-0.008,1023
2018,5,17,21,25,29.539,-0.2426,-0.6353,-0.7006,-0.2155,0,0,0,0.002,0.007,-0.012,0
2018,5,17,21,25,29.557,-0.2425,-0.6353,-0.7006,-0.2155,0,0,0,0.002,0.01,-0.014,0
2018,5,17,21,25,29.58,-0.2425,-0.6353,-0.7006,-0.2156,0,0,0,0,0.008,-0.009,0
2018,5,17,21,25,29.598,-0.2424,-0.6354,-0.7006,-0.2156,0,0,0,0,0.007,-0.011,0
2018,5,17,21,25,29.621,-0.2424,-0.6354,-0.7006,-0.2156,0,0,0,0.003,0.012,-0.011,0
2018,5,17,21,25,29.638,-0.2428,-0.6355,-0.7005,-0.2154,-0.7,0,-0.4,0,0.008,-0.008,0
2018,5,17,21,25,29.674,-0.2432,-0.6356,-0.7003,-0.2151,-0.5,0.1,-0.1,0,0.008,-0.013,0
2018,5,17,21,25,29.695,-0.2434,-0.6356,-0.7003,-0.2149,0,0,0,0.003,0.008,-0.011,0
2018,5,17,21,25,29.7,-0.2434,-0.6356,-0.7002,-0.2149,0,0,0,0.001,0.009,-0.01,0
2018,5,17,21,25,29.734,-0.2437,-0.6358,-0.7002,-0.2145,0.7,0.1,0,0,0.006,-0.012,0
2018,5,17,21,25,29.758,-0.244,-0.6359,-0.7001,-0.2139,1,0,0.1,0,0.006,-0.01,0
2018,5,17,21,25,29.763,-0.2443,-0.636,-0.7001,-0.2134,0.8,0,0.1,0.001,0.006,-0.008,0
2018,5,17,21,25,29.778,-0.2446,-0.6361,-0.7,-0.2129,0.7,-0.1,0.2,0.004,0.004,-0.012,0
2018,5,17,21,25,29.801,-0.2447,-0.6362,-0.7,-0.2127,0,0,0,0,0.009,-0.009,0
2018,5,17,21,25,29.821,-0.2446,-0.6362,-0.6999,-0.2128,0,0,0,0.002,0.005,-0.012,0
2018,5,17,21,25,29.838,-0.2445,-0.6363,-0.6999,-0.2128,0,0,0,0,0.007,-0.016,0
2018,5,17,21,25,29.855,-0.2444,-0.6363,-0.6999,-0.2129,0,0,0,0,0.007,-0.012,0
2018,5,17,21,25,29.878,-0.2444,-0.6363,-0.6999,-0.213,0,0,0,0,0.008,-0.011,0
2018,5,17,21,25,29.896,-0.2443,-0.6364,-0.6999,-0.213,-0.5,0,-0.2,0,0.008,-0.013,0
2018,5,17,21,25,29.92,-0.2447,-0.6365,-0.6997,-0.2128,-0.9,0,0,0,0.009,-0.011,0
2018,5,17,21,25,29.962,-0.2451,-0.6365,-0.6996,-0.2126,-1,0,-0.1,0,0.01,-0.013,0
2018,5,17,21,25,29.964,-0.2455,-0.6366,-0.6994,-0.2124,-0.8,0.1,-0.2,0,0.009,-0.011,0
2018,5,17,21,25,29.979,-0.2459,-0.6367,-0.6993,-0.2122,0,0,0,0.002,0.006,-0.007,0
2018,5,17,21,25,30.016,-0.2458,-0.6367,-0.6992,-0.2123,0,0,0,0.001,0.005,-0.009,0
2018,5,17,21,25,30.035,-0.2457,-0.6368,-0.6992,-0.2124,0,0,0,0,0.008,-0.009,0
2018,5,17,21,25,30.042,-0.2457,-0.6368,-0.6992,-0.2125,0,0,0,0.001,0.008,-0.009,0
2018,5,17,21,25,30.058,-0.2457,-0.6369,-0.6991,-0.2124,0,0,0,-0.001,0.005,-0.01,1023
2018,5,17,21,25,30.095,-0.2458,-0.637,-0.6991,-0.212,0.5,0.1,0,0.004,0.009,-0.015,1023
2018,5,17,21,25,30.118,-0.2458,-0.637,-0.699,-0.212,0,0,0,0,0.007,-0.012,1023
2018,5,17,21,25,30.123,-0.2457,-0.6371,-0.699,-0.2121,0,0,0,0.002,0.006,-0.012,1023
2018,5,17,21,25,30.157,-0.2456,-0.6371,-0.699,-0.2122,0,0,0,-0.002,0.005,-0.009,1023
2018,5,17,21,25,30.179,-0.2455,-0.6371,-0.699,-0.2123,0,0,0,0,0.008,-0.011,1023
2018,5,17,21,25,30.182,-0.2454,-0.6372,-0.6989,-0.2124,0,0,0,0,0.004,-0.012,1023
2018,5,17,21,25,30.203,-0.2453,-0.6372,-0.6989,-0.2125,0,0,0,-0.002,0.007,-0.012,1023
2018,5,17,21,25,30.226,-0.2452,-0.6372,-0.6989,-0.2125,0,0,0,-0.002,0.008,-0.014,0
2018,5,17,21,25,30.242,-0.2452,-0.6373,-0.6989,-0.2125,-0.6,0,0,0.001,0.004,-0.01,0
2018,5,17,21,25,30.26,-0.2454,-0.6374,-0.6988,-0.2124,0,0,0,0.004,0.006,-0.012,0
2018,5,17,21,25,30.283,-0.2453,-0.6374,-0.6988,-0.2124,0,0,0,0.001,0.006,-0.011,0
2018,5,17,21,25,30.301,-0.2452,-0.6374,-0.6987,-0.2125,0,0,0,0.001,0.01,-0.015,0
2018,5,17,21,25,30.325,-0.2451,-0.6375,-0.6987,-0.2126,0,0,0,0,0.009,-0.013,0
2018,5,17,21,25,30.341,-0.245,-0.6375,-0.6987,-0.2127,0,0,0,-0.002,0.009,-0.011,0
2018,5,17,21,25,30.359,-0.2452,-0.6376,-0.6986,-0.2125,-0.5,-0.1,0,-0.002,0.009,-0.01,0
2018,5,17,21,25,30.382,-0.2453,-0.6376,-0.6985,-0.2125,0,0,0,-0.002,0.008,-0.011,0
2018,5,17,21,25,30.4,-0.2452,-0.6377,-0.6985,-0.2126,0,0,0,0,0.008,-0.01,0
2018,5,17,21,25,30.423,-0.2451,-0.6377,-0.6985,-0.2126,0,0,0,0,0.005,-0.011,0
2018,5,17,21,25,30.441,-0.245,-0.6377,-0.6984,-0.2127,0,0,0,0,0.007,-0.008,0
2018,5,17,21,25,30.464,-0.245,-0.6378,-0.6984,-0.2128,0,0,0,0,0.007,-0.012,0
2018,5,17,21,25,30.501,-0.245,-0.6378,-0.6984,-0.2127,0,0,0,0,0.005,-0.009,0
2018,5,17,21,25,30.525,-0.2453,-0.638,-0.6983,-0.2123,0.5,0,0,0.001,0.006,-0.008,0
2018,5,17,21,25,30.529,-0.2455,-0.6381,-0.6982,-0.2118,0.8,0,-0.1,0.003,0.009,-0.009,0
2018,5,17,21,25,30.541,-0.2458,-0.6382,-0.6981,-0.2114,0.5,-0.1,0,0.002,0.004,-0.013,0
2018,5,17,21,25,30.576,-0.2458,-0.6383,-0.6981,-0.2112,0,0,0,0.002,0.006,-0.015,0
2018,5,17,21,25,30.599,-0.2458,-0.6384,-0.6981,-0.2113,0,0,0,0,0.005,-0.01,0
2018,5,17,21,25,30.604,-0.2456,-0.6384,-0.698,-0.2113,0,0,0,0,0.006,-0.012,0
2018,5,17,21,25,30.64,-0.2455,-0.6384,-0.698,-0.2114,0,0,0,-0.003,0.008,-0.016,0
2018,5,17,21,25,30.664,-0.2458,-0.6385,-0.6979,-0.2112,-0.8,0.1,0,0.001,0.008,-0.012,0
2018,5,17,21,25,30.668,-0.2463,-0.6386,-0.6977,-0.211,-1.3,0.1,0,0.002,0.007,-0.013,0
2018,5,17,21,25,30.684,-0.2469,-0.6387,-0.6975,-0.2107,-1.2,0.1,-0.1,0,0.01,-0.013,0
2018,5,17,21,25,30.707,-0.2474,-0.6388,-0.6973,-0.2105,-0.9,0,0,0,0.007,-0.008,0
2018,5,17,21,25,30.726,-0.2478,-0.6388,-0.6972,-0.2103,-0.5,0.3,0.1,0,0.006,-0.01,0
2018,5,17,21,25,30.743,-0.2476,-0.6389,-0.6972,-0.2104,0,0,0,0,0.006,-0.007,0
2018,5,17,21,25,30.761,-0.2475,-0.6389,-0.6971,-0.2105,0,0,0,0.002,0.007,-0.017,0
2018,5,17,21,25,30.784,-0.2474,-0.639,-0.6971,-0.2106,0,0,0,0.002,0.01,-0.01,1023
2018,5,17,21,25,30.802,-0.2473,-0.639,-0.6971,-0.2107,0.5,0.1,0.3,0.003,0.006,-0.009,1023
2018,5,17,21,25,30.825,-0.2473,-0.6391,-0.6971,-0.2106,0,0,0,0.002,0.009,-0.011,1023
2018,5,17,21,25,30.843,-0.2473,-0.6391,-0.697,-0.2106,0.5,0.1,0.2,0.003,0.005,-0.012,1023
2018,5,17,21,25,30.866,-0.2475,-0.6393,-0.6969,-0.2102,0.7,0,0,0,0.004,-0.011,1023
2018,5,17,21,25,30.885,-0.2476,-0.6394,-0.6969,-0.2099,0.5,0,0,-0.001,0.008,-0.014,1023
2018,5,17,21,25,30.922,-0.2476,-0.6394,-0.6968,-0.2099,0,0,0,0.001,0.007,-0.012,1023
2018,5,17,21,25,30.943,-0.2474,-0.6395,-0.6968,-0.21,0,0,0,0.001,0.006,-0.011,1023
2018,5,17,21,25,30.948,-0.2473,-0.6395,-0.6968,-0.2101,0,0,0,0,0.009,-0.011,1023
2018,5,17,21,25,30.984,-0.2472,-0.6396,-0.6968,-0.2101,0,0,0,0.002,0.004,-0.014,0
2018,5,17,21,25,31.007,-0.2471,-0.6396,-0.6967,-0.2102,0,0,0,0.001,0.007,-0.014,0
2018,5,17,21,25,31.012,-0.247,-0.6397,-0.6967,-0.2103,0,0,0,0,0.012,-0.013,0
2018,5,17,21,25,31.026,-0.2472,-0.6398,-0.6966,-0.2102,-0.5,0,0,0,0.006,-0.01,0
2018,5,17,21,25,31.045,-0.2475,-0.6399,-0.6964,-0.21,-0.6,0,-0.1,-0.005,0.008,-0.013,0
2018,5,17,21,25,31.068,-0.2479,-0.6399,-0.6963,-0.2098,-0.8,0,0,-0.001,0.006,-0.01,0
2018,5,17,21,25,31.084,-0.2481,-0.64,-0.6962,-0.2097,0,0,0,0,0.006,-0.011,0
2018,5,17,21,25,31.107,-0.248,-0.6401,-0.6961,-0.2098,0,0,0,-0.001,0.007,-0.011,0
2018,5,17,21,25,31.125,-0.2479,-0.6401,-0.6961,-0.2099,0,0,0,0.001,0.007,-0.007,0
2018,5,17,21,25,31.149,-0.2478,-0.6402,-0.6961,-0.21,0,0,0,0.001,0.009,-0.006,0
2018,5,17,21,25,31.186,-0.2478,-0.6403,-0.696,-0.2098,0,0,0,0.002,0.005,-0.011,0
2018,5,17,21,25,31.209,-0.2479,-0.6403,-0.696,-0.2096,0.5,0,0.2,0.002,0.005,-0.009,0
2018,5,17,21,25,31.214,-0.2479,-0.6404,-0.696,-0.2095,0.5,0,0,0,0.007,-0.012,0
2018,5,17,21,25,31.227,-0.248,-0.6405,-0.6959,-0.2092,0.5,0,0,0.001,0.006,-0.009,0
2018,5,17,21,25,31.246,-0.2479,-0.6406,-0.6959,-0.2093,0,0,0,0,0.009,-0.019,0
2018,5,17,21,25,31.264,-0.2478,-0.6406,-0.6958,-0.2094,0,0,0,0.003,0.007,-0.007,0
2018,5,17,21,25,31.288,-0.2477,-0.6407,-0.6958,-0.2095,0,0,0,0.001,0.005,-0.009,0
2018,5,17,21,25,31.306,-0.2475,-0.6407,-0.6958,-0.2096,0,0,0,0,0.009,-0.012,0
2018,5,17,21,25,31.329,-0.2476,-0.6408,-0.6957,-0.2096,-0.5,0.1,0,0,0.007,-0.013,0
2018,5,17,21,25,31.347,-0.2479,-0.6408,-0.6956,-0.2094,-0.9,0,0,0.001,0.007,-0.014,0
2018,5,17,21,25,31.37,-0.2483,-0.6409,-0.6954,-0.2092,-1,0.1,-0.1,0,0.006,-0.009,0
2018,5,17,21,25,31.407,-0.2486,-0.641,-0.6953,-0.2091,-0.8,0.1,-0.1,0,0.005,-0.017,0
2018,5,17,21,25,31.43,-0.2487,-0.6411,-0.6952,-0.2091,0,0,0,0,0.008,-0.01,0
2018,5,17,21,25,31.434,-0.2485,-0.6411,-0.6952,-0.2092,0,0,0,0,0.007,-0.007,0
2018,5,17,21,25,31.447,-0.2484,-0.6411,-0.6951,-0.2093,0,0,0,-0.001,0.006,-0.009,0
2018,5,17,21,25,31.464,-0.2483,-0.6412,-0.6951,-0.2094,0,0,0,0,0.005,-0.014,0
2018,5,17,21,25,31.488,-0.2482,-0.6412,-0.6951,-0.2095,0,0,0,0.002,0.008,-0.012,0
2018,5,17,21,25,31.524,-0.2481,-0.6413,-0.6951,-0.2096,0,0,0,0.005,0.004,-0.01,1023
2018,5,17,21,25,31.547,-0.248,-0.6413,-0.695,-0.2097,0,0,0,0.002,0.01,-0.012,1023
2018,5,17,21,25,31.552,-0.2479,-0.6414,-0.695,-0.2098,0,0,0,0,0.008,-0.009,1023
2018,5,17,21,25,31.569,-0.2478,-0.6414,-0.695,-0.2099,0.5,0,0,0,0.008,-0.012,1023
2018,5,17,21,25,31.592,-0.2479,-0.6415,-0.6949,-0.2096,0,0,0,0.002,0.007,-0.013,1023
2018,5,17,21,25,31.61,-0.2478,-0.6416,-0.6949,-0.2097,0,0,0,0,0.01,-0.009,1023
2018,5,17,21,25,31.632,-0.2477,-0.6416,-0.6948,-0.2098,0,0,0,0.002,0.007,-0.011,1023
2018,5,17,21,25,31.65,-0.2476,-0.6416,-0.6948,-0.2099,0,0,0,0.004,0.007,-0.013,1023
2018,5,17,21,25,31.673,-0.2475,-0.6417,-0.6948,-0.2099,0,0,0,0.002,0.009,-0.009,0
2018,5,17,21,25,31.691,-0.2474,-0.6417,-0.6948,-0.21,0,0,0,0.002,0.006,-0.013,0
2018,5,17,21,25,31.714,-0.2473,-0.6417,-0.6948,-0.2101,0,0,0,0,0.007,-0.011,0
2018,5,17,21,25,31.73,-0.2472,-0.6418,-0.6947,-0.2102,0,0,0,0,0.005,-0.015,0
2018,5,17,21,25,31.749,-0.2473,-0.6419,-0.6946,-0.2101,0,0,0,0,0.008,-0.007,0
2018,5,17,21,25,31.772,-0.2472,-0.6419,-0.6946,-0.2102,0,0,0,0,0.009,-0.011,0
2018,5,17,21,25,31.79,-0.2472,-0.6419,-0.6946,-0.2103,0,0,0,0.001,0.007,-0.013,0
2018,5,17,21,25,31.811,-0.2471,-0.642,-0.6946,-0.2103,0,0,0,0.002,0.006,-0.009,0
2018,5,17,21,25,31.83,-0.247,-0.642,-0.6945,-0.2104,0,0,0,0.001,0.007,-0.009,0
2018,5,17,21,25,31.852,-0.2469,-0.642,-0.6945,-0.2105,0,0,0,0.001,0.007,-0.007,0
2018,5,17,21,25,31.871,-0.2468,-0.6421,-0.6945,-0.2106,0,0,0,0,0.008,-0.012,0
2018,5,17,21,25,31.894,-0.2468,-0.6421,-0.6945,-0.2106,0.5,0,0,0,0.006,-0.018,0
2018,5,17,21,25,31.912,-0.2469,-0.6422,-0.6944,-0.2102,0.5,-0.1,0,0.001,0.006,-0.017,0
2018,5,17,21,25,31.936,-0.2471,-0.6423,-0.6943,-0.2099,0,0,0,0.003,0.006,-0.012,0
2018,5,17,21,25,31.949,-0.247,-0.6424,-0.6943,-0.2099,0,0,0,0.001,0.004,-0.017,0
2018,5,17,21,25,31.969,-0.2469,-0.6424,-0.6943,-0.21,0,0,0,0.001,0.007,-0.012,0
2018,5,17,21,25,31.992,-0.2468,-0.6424,-0.6943,-0.2101,0,0,0,0,0.005,-0.012,0
2018,5,17,21,25,32.03,-0.2467,-0.6425,-0.6943,-0.2101,0,0,0,0,0.008,-0.016,0
2018,5,17,21,25,32.03,-0.247,-0.6426,-0.6941,-0.21,-0.6,0,0,0.002,0.009,-0.011,0
2018,5,17,21,25,32.052,-0.2474,-0.6426,-0.694,-0.2098,-1.2,0.1,0,0.001,0.007,-0.006,0
2018,5,17,21,25,32.071,-0.2478,-0.6427,-0.6939,-0.2096,-0.9,0.2,0,0.001,0.009,-0.014,0
2018,5,17,21,25,32.094,-0.248,-0.6427,-0.6938,-0.2096,0,0,0,0.001,0.006,-0.008,0
2018,5,17,21,25,32.113,-0.2479,-0.6428,-0.6937,-0.2097,0,0,0,0.002,0.007,-0.013,0
2018,5,17,21,25,32.136,-0.2478,-0.6428,-0.6937,-0.2097,0,0,0,0,0.005,-0.008,0
2018,5,17,21,25,32.152,-0.2477,-0.6428,-0.6937,-0.2098,0,0,0,0,0.007,-0.008,0
2018,5,17,21,25,32.189,-0.2476,-0.6429,-0.6937,-0.2099,0,0,0,0.001,0.006,-0.012,1023
2018,5,17,21,25,32.212,-0.2475,-0.6429,-0.6936,-0.21,0,0,0,0,0.008,-0.01,1023
2018,5,17,21,25,32.216,-0.2474,-0.6429,-0.6936,-0.2101,0,0,0,0.001,0.01,-0.012,1023
2018,5,17,21,25,32.233,-0.2473,-0.643,-0.6936,-0.2101,0,0,0,0.001,0.009,-0.017,1023
2018,5,17,21,25,32.255,-0.2472,-0.643,-0.6936,-0.2102,0,0,0,0,0.009,-0.012,1023
2018,5,17,21,25,32.275,-0.2472,-0.643,-0.6935,-0.2103,0,0,0,0,0.009,-0.012,1023
2018,5,17,21,25,32.294,-0.247,-0.6431,-0.6935,-0.2104,0,0,0,-0.003,0.006,-0.01,1023
2018,5,17,21,25,32.33,-0.247,-0.6431,-0.6935,-0.2104,0,0,0,0,0.007,-0.011,1023
2018,5,17,21,25,32.352,-0.2469,-0.6432,-0.6935,-0.2105,0,0,0,0,0.006,-0.011,1023
2018,5,17,21,25,32.357,-0.2468,-0.6432,-0.6934,-0.2105,0,0,0,0.003,0.008,-0.012,1023
2018,5,17,21,25,32.378,-0.2468,-0.6432,-0.6934,-0.2106,0,0,0,0.001,0.006,-0.011,1023
2018,5,17,21,25,32.396,-0.2467,-0.6433,-0.6934,-0.2106,0,0,0,0.004,0.007,-0.011,1023
2018,5,17,21,25,32.42,-0.2466,-0.6433,-0.6934,-0.2107,0,0,0,0.002,0.004,-0.013,0
2018,5,17,21,25,32.434,-0.2465,-0.6433,-0.6934,-0.2108,0,0,0,-0.003,0.006,-0.008,0
2018,5,17,21,25,32.453,-0.2464,-0.6433,-0.6934,-0.2108,0,0,0,0,0.008,-0.013,0
2018,5,17,21,25,32.477,-0.2463,-0.6434,-0.6933,-0.2109,0,0,0,-0.001,0.011,-0.014,0
2018,5,17,21,25,32.494,-0.2466,-0.6435,-0.6932,-0.2108,-0.5,0,-0.2,-0.001,0.008,-0.008,0
2018,5,17,21,25,32.517,-0.2467,-0.6435,-0.6932,-0.2107,0,0,0,0,0.005,-0.009,0
2018,5,17,21,25,32.534,-0.2466,-0.6435,-0.6931,-0.2108,0,0,0,0,0.008,-0.011,0
2018,5,17,21,25,32.555,-0.2465,-0.6436,-0.6931,-0.2108,0,0,0,0.002,0.005,-0.013,0
2018,5,17,21,25,32.593,-0.2464,-0.6436,-0.6931,-0.2109,0,0,0,-0.003,0.006,-0.007,0
2018,5,17,21,25,32.616,-0.2464,-0.6436,-0.6931,-0.2109,0,0,0,0,0.005,-0.008,0
2018,5,17,21,25,32.621,-0.2465,-0.6437,-0.693,-0.2108,0,0,0,0.003,0.006,-0.011,0
2018,5,17,21,25,32.637,-0.2465,-0.6438,-0.693,-0.2106,0.5,-0.2,0,0.001,0.007,-0.016,0
2018,5,17,21,25,32.66,-0.2466,-0.6438,-0.693,-0.2105,0,0,0,0.001,0.006,-0.011,0
2018,5,17,21,25,32.677,-0.2465,-0.6439,-0.6929,-0.2105,0,0,0,0.001,0.008,-0.011,0
2018,5,17,21,25,32.696,-0.2464,-0.6439,-0.6929,-0.2106,0,0,0,0,0.008,-0.011,0
2018,5,17,21,25,32.714,-0.2463,-0.6439,-0.6929,-0.2107,0,0,0,0,0.01,-0.014,0
2018,5,17,21,25,32.737,-0.2463,-0.644,-0.6929,-0.2107,0,0,0,-0.001,0.01,-0.012,0
2018,5,17,21,25,32.756,-0.2462,-0.644,-0.6929,-0.2108,0,0,0,-0.001,0.009,-0.006,0
2018,5,17,21,25,32.777,-0.2463,-0.6441,-0.6928,-0.2107,-0.6,-0.1,0,0,0.009,-0.011,0
2018,5,17,21,25,32.812,-0.2466,-0.6441,-0.6927,-0.2105,-0.9,0,-0.1,0,0.006,-0.01,0
2018,5,17,21,25,32.834,-0.2469,-0.6442,-0.6926,-0.2104,-0.6,0.1,0,0.004,0.008,-0.009,0
2018,5,17,21,25,32.839,-0.2472,-0.6442,-0.6924,-0.2102,0,0,0,0.001,0.008,-0.01,0
2018,5,17,21,25,32.857,-0.2471,-0.6443,-0.6924,-0.2103,0,0,0,0,0.007,-0.009,0
2018,5,17,21,25,32.877,-0.247,-0.6443,-0.6924,-0.2104,0,0,0,-0.002,0.01,-0.014,0
2018,5,17,21,25,32.914,-0.2469,-0.6443,-0.6924,-0.2104,0,0,0,0,0.008,-0.009,1023
2018,5,17,21,25,32.937,-0.2468,-0.6444,-0.6924,-0.2105,0,0,0,0.001,0.008,-0.015,1023
2018,5,17,21,25,32.943,-0.2468,-0.6444,-0.6923,-0.2106,0,0,0,0.001,0.008,-0.014,1023
2018,5,17,21,25,32.96,-0.2468,-0.6444,-0.6923,-0.2105,0.5,0,-0.1,-0.001,0.009,-0.015,1023
2018,5,17,21,25,32.978,-0.2467,-0.6445,-0.6923,-0.2105,0,0,0,0.001,0.009,-0.011,1023
2018,5,17,21,25,33,-0.2467,-0.6445,-0.6923,-0.2106,0,0,0,0.002,0.006,-0.01,1023
2018,5,17,21,25,33.018,-0.2466,-0.6446,-0.6922,-0.2106,0,0,0,0.001,0.008,-0.009,1023
2018,5,17,21,25,33.042,-0.2465,-0.6446,-0.6922,-0.2107,0,0,0,-0.002,0.007,-0.013,1023
2018,5,17,21,25,33.06,-0.2464,-0.6446,-0.6922,-0.2108,0,0,0,0.001,0.004,-0.009,0
2018,5,17,21,25,33.082,-0.2463,-0.6447,-0.6922,-0.2108,0,0,0,-0.001,0.01,-0.014,0
2018,5,17,21,25,33.1,-0.2465,-0.6447,-0.6921,-0.2107,-0.5,0.1,-0.1,0.001,0.008,-0.013,0
2018,5,17,21,25,33.124,-0.2464,-0.6448,-0.6921,-0.2107,0,0,0,-0.001,0.007,-0.008,0
2018,5,17,21,25,33.141,-0.2464,-0.6448,-0.6921,-0.2108,0,0,0,0,0.009,-0.008,0
2018,5,17,21,25,33.158,-0.2463,-0.6448,-0.692,-0.2109,0,0,0,-0.003,0.007,-0.011,0
2018,5,17,21,25,33.181,-0.2462,-0.6448,-0.692,-0.211,0,0,0,-0.002,0.007,-0.013,0
2018,5,17,21,25,33.201,-0.2461,-0.6449,-0.692,-0.211,0,0,0,0.001,0.008,-0.008,0
2018,5,17,21,25,33.218,-0.246,-0.6449,-0.692,-0.2111,0,0,0,-0.002,0.007,-0.008,0
2018,5,17,21,25,33.242,-0.246,-0.6449,-0.692,-0.2111,0,0,0,-0.001,0.006,-0.014,0
2018,5,17,21,25,33.259,-0.2459,-0.6449,-0.6919,-0.2112,0,0,0,0,0.008,-0.012,0
2018,5,17,21,25,33.282,-0.2458,-0.645,-0.6919,-0.2113,0,0,0,0,0.008,-0.012,0
2018,5,17,21,25,33.319,-0.2458,-0.645,-0.6919,-0.2113,0,0,0,-0.001,0.009,-0.012,0
2018,5,17,21,25,33.341,-0.2457,-0.645,-0.6919,-0.2114,0,0,0,0,0.006,-0.01,1023
2018,5,17,21,25,33.346,-0.2457,-0.645,-0.6919,-0.2114,0,0,0,0.001,0.006,-0.012,1023
2018,5,17,21,25,33.36,-0.2456,-0.6451,-0.6919,-0.2115,0,0,0,-0.001,0.008,-0.014,1023
2018,5,17,21,25,33.396,-0.2455,-0.6451,-0.6919,-0.2115,0,0,0,0.004,0.009,-0.014,1023
2018,5,17,21,25,33.419,-0.2455,-0.6451,-0.6918,-0.2115,0,0,0,0,0.008,-0.01,1023
2018,5,17,21,25,33.423,-0.2454,-0.6451,-0.6918,-0.2116,0,0,0,0.002,0.007,-0.009,1023
2018,5,17,21,25,33.439,-0.2454,-0.6452,-0.6918,-0.2117,0,0,0,-0.002,0.007,-0.01,1023
2018,5,17,21,25,33.463,-0.2453,-0.6452,-0.6918,-0.2117,0,0,0,0,0.008,-0.01,1023
2018,5,17,21,25,33.481,-0.2454,-0.6452,-0.6917,-0.2116,0,0,0,-0.004,0.003,0.002,1023
2018,5,17,21,25,33.503,-0.2457,-0.6452,-0.6917,-0.2116,-3.9,0.9,0.7,0.001,0.011,-0.014,1023
2018,5,17,21,25,33.539,-0.2465,-0.645,-0.6915,-0.2117,-3.6,1.5,1.2,-0.001,0.016,-0.027,1023
2018,5,17,21,25,33.562,-0.2475,-0.6448,-0.6913,-0.2117,-4.8,1.7,1.7,-0.002,0.004,-0.009,1023
2018,5,17,21,25,33.567,-0.2487,-0.6445,-0.6912,-0.2117,-6.2,2.2,2.5,-0.005,0.011,-0.02,1023
2018,5,17,21,25,33.585,-0.2502,-0.6441,-0.691,-0.2118,-7.8,2.6,3.2,-0.002,0.01,-0.017,1023
2018,5,17,21,25,33.603,-0.2519,-0.6435,-0.6909,-0.2122,-9.4,3.1,3.4,0.002,0.006,-0.008,0
2018,5,17,21,25,33.623,-0.2538,-0.6427,-0.6907,-0.2127,-11.1,0.4,7.5,-0.007,0.009,0,0
2018,5,17,21,25,33.66,-0.2556,-0.6416,-0.6909,-0.2132,-9.1,0.2,6,0.012,-0.013,0.026,0
2018,5,17,21,25,33.66,-0.2568,-0.6406,-0.6912,-0.2139,-4.6,-4.4,3.3,0.008,0.025,0.027,0
2018,5,17,21,25,33.682,-0.2569,-0.64,-0.6915,-0.2145,0,-7.5,0.9,0.002,0.083,-0.033,0
2018,5,17,21,25,33.721,-0.2575,-0.6396,-0.6913,-0.2159,-11.2,-3.1,-0.2,0.016,-0.013,-0.083,0
2018,5,17,21,25,33.744,-0.259,-0.6391,-0.6907,-0.2173,-23.5,3.4,0.7,-0.009,0.013,-0.062,0
2018,5,17,21,25,33.749,-0.264,-0.6377,-0.6891,-0.2206,-53.9,9.1,-3.1,-0.108,0.081,-0.035,0
2018,5,17,21,25,33.762,-0.2715,-0.6356,-0.6861,-0.2269,-66.5,10.2,-2,-0.029,-0.027,-0.028,0
2018,5,17,21,25,33.786,-0.2806,-0.633,-0.682,-0.2349,-82.2,10.6,-3.9,0,-0.01,-0.037,0
2018,5,17,21,25,33.806,-0.2909,-0.6302,-0.6773,-0.2437,-85.7,14.2,-7.4,-0.027,-0.028,-0.089,0
2018,5,17,21,25,33.824,-0.3009,-0.628,-0.6721,-0.2512,-77.9,19.6,-7.6,-0.025,-0.019,-0.132,0
2018,5,17,21,25,33.847,-0.3097,-0.6265,-0.6672,-0.2572,-60.6,18.7,-7.8,-0.048,-0.048,-0.135,0
2018,5,17,21,25,33.866,-0.3169,-0.6257,-0.6631,-0.261,-50.1,20.5,-7.8,-0.005,0.053,-0.14,0
2018,5,17,21,25,33.884,-0.3252,-0.6246,-0.6585,-0.2652,-62.7,24.5,-5.2,0.03,0.145,-0.125,0
2018,5,17,21,25,33.902,-0.3357,-0.6224,-0.6534,-0.2699,-73,30.4,-2.8,0.065,0.078,-0.181,0
2018,5,17,21,25,33.925,-0.3467,-0.6201,-0.6484,-0.2731,-62.3,38.1,3.4,0.071,0.051,-0.25,0
2018,5,17,21,25,33.943,-0.3565,-0.6184,-0.6448,-0.2729,-40.3,45.3,12.5,0.001,0.091,-0.207,0
2018,5,17,21,25,33.966,-0.365,-0.6175,-0.6424,-0.2694,-9.2,53.9,25.4,-0.013,0.177,-0.326,0
2018,5,17,21,25,34.002,-0.3702,-0.6185,-0.643,-0.2583,53.6,64.6,27.3,-0.032,-0.233,-0.28,0
2018,5,17,21,25,34.025,-0.3682,-0.6248,-0.6458,-0.2384,105.4,71.6,29.1,-0.002,0.239,-0.305,0
2018,5,17,21,25,34.03,-0.3712,-0.6285,-0.6469,-0.2203,18.1,93.7,38.2,0.294,0.441,-0.454,0
2018,5,17,21,25,34.047,-0.385,-0.6265,-0.6446,-0.2088,-20.1,102.1,49.3,-0.092,0.03,-0.28,0
2018,5,17,21,25,34.066,-0.3999,-0.6232,-0.6428,-0.1959,-8.9,108.4,54.7,-0.057,-0.046,-0.369,0
2018,5,17,21,25,34.088,-0.4142,-0.6213,-0.6405,-0.179,17.4,126.5,52.3,0.016,0.014,-0.39,0
2018,5,17,21,25,34.105,-0.4275,-0.6219,-0.6368,-0.1577,38,138.8,47.3,-0.054,0.145,-0.309,1023
2018,5,17,21,25,34.123,-0.44,-0.623,-0.6326,-0.134,36.9,144,53.3,-0.25,0.315,-0.285,1023
2018,5,17,21,25,34.146,-0.4558,-0.6211,-0.6276,-0.1115,-7.3,153.7,62,-0.286,0.357,-0.307,1023
2018,5,17,21,25,34.165,-0.4783,-0.6134,-0.6215,-0.0926,-61.6,165.3,76.9,-0.187,0.361,-0.386,1023
2018,5,17,21,25,34.188,-0.5066,-0.5996,-0.6148,-0.0757,-92.8,176.7,96.4,-0.175,0.353,-0.454,1023
2018,5,17,21,25,34.207,-0.5373,-0.5814,-0.6082,-0.057,-90.5,189.1,121.5,-0.122,0.276,-0.473,1023
2018,5,17,21,25,34.23,-0.5663,-0.5614,-0.6024,-0.0322,-57.7,203.2,149.3,-0.155,0.181,-0.48,1023
2018,5,17,21,25,34.248,-0.5938,-0.5405,-0.5959,0.0005,-35.5,232.8,173.4,-0.385,0.112,-0.498,1023
2018,5,17,21,25,34.285,-0.6229,-0.5162,-0.5864,0.038,-68.7,262.9,183.2,-0.518,0.122,-0.617,0
2018,5,17,21,25,34.308,-0.6582,-0.4832,-0.5727,0.0724,-129.3,290.6,188,-0.698,-0.052,-0.632,0
2018,5,17,21,25,34.312,-0.6952,-0.4434,-0.5555,0.1068,-125.8,303.2,207.2,-0.812,-0.209,-0.535,0
2018,5,17,21,25,34.346,-0.7257,-0.4062,-0.5343,0.1504,-2.6,328.9,230,-0.981,-0.71,-0.949,0
2018,5,17,21,25,34.346,-0.7448,-0.3855,-0.5028,0.2089,135.3,354.2,197.2,-1.284,-0.637,-1.079,0
2018,5,17,21,25,34.369,-0.7582,-0.3759,-0.4598,0.269,148.6,376.1,150.3,-1.195,0.042,-0.597,0
2018,5,17,21,25,34.389,-0.7721,-0.3629,-0.4107,0.3214,110.3,390.2,119.8,-0.518,-0.031,-0.804,0
2018,5,17,21,25,34.406,-0.7859,-0.3447,-0.3574,0.3682,87.1,413.5,107.7,-0.694,-0.519,-1.255,0
2018,5,17,21,25,34.428,-0.7999,-0.3193,-0.3004,0.4097,43.8,427.9,89.3,-0.835,-0.31,-0.885,0
2018,5,17,21,25,34.45,-0.8111,-0.2922,-0.2439,0.444,55.5,370.4,54.7,-0.467,-0.584,-0.61,0
2018,5,17,21,25,34.467,-0.8178,-0.2748,-0.1891,0.4687,103,328.7,8.4,-0.097,-0.912,-0.955,0
2018,5,17,21,25,34.49,-0.8241,-0.261,-0.1392,0.4829,26.2,270,-37.6,-1.196,-0.93,-1.191,0
2018,5,17,21,25,34.508,-0.8362,-0.2348,-0.1002,0.4852,-71.1,266.5,-80.5,-1.344,-0.825,-1.474,0
2018,5,17,21,25,34.531,-0.8519,-0.2057,-0.0669,0.4768,-50.3,210.3,-146.2,-1.151,-0.592,-0.463,0
2018,5,17,21,25,34.551,-0.8686,-0.1929,-0.0443,0.4542,-3.5,96.5,-223.7,-0.909,-0.736,-0.884,0
2018,5,17,21,25,34.569,-0.8864,-0.1945,-0.0247,0.4191,46.7,19,-247.9,0.105,-0.806,0.082,0
2018,5,17,21,25,34.606,-0.9103,-0.187,-0.0149,0.3688,-162.2,13.5,-405.2,-0.865,-0.229,2.617,0
2018,5,17,21,25,34.629,-0.9412,-0.158,-0.0202,0.2976,-173.4,-106.1,-441.5,-1.421,0.588,4.44,0
2018,5,17,21,25,34.634,-0.9614,-0.1508,-0.0335,0.2272,-10.5,-79.5,-337,-1.054,2.685,1.803,0
2018,5,17,21,25,34.668,-0.9701,-0.1586,-0.0176,0.1826,100.3,160.1,-207.1,3.037,1.756,0.497,0
2018,5,17,21,25,34.668,-0.9684,-0.1782,0.0287,0.1716,150.3,266.2,-31.6,1.344,0.833,1.586,0
2018,5,17,21,25,34.691,-0.9689,-0.1599,0.0748,0.1729,-292.2,278.1,-77.1,-0.522,-0.475,1.916,0
2018,5,17,21,25,34.709,-0.9769,-0.0674,0.1057,0.1725,-596.4,240.8,-60.4,-0.169,-0.834,-0.676,0
2018,5,17,21,25,34.732,-0.9742,0.0397,0.1299,0.1799,-527.2,263.4,-16.9,-0.525,-0.909,-2.24,0
2018,5,17,21,25,34.769,-0.9629,0.1146,0.1647,0.18,-222.2,285.1,-44.9,-0.349,-1.585,-2.001,0
2018,5,17,21,25,34.769,-0.9546,0.1321,0.2076,0.1676,69.9,252.8,-50.4,-0.763,-0.512,-1.242,1023
2018,5,17,21,25,34.792,-0.9497,0.1229,0.2471,0.1475,116.5,207,-78.9,-1.261,-0.041,-0.679,1023
2018,5,17,21,25,34.811,-0.9456,0.1151,0.2782,0.1231,89.1,167.2,-108.4,-0.827,-0.011,-0.565,1023
2018,5,17,21,25,34.829,-0.9414,0.112,0.3026,0.0975,64.9,142.7,-116.9,-0.443,0.102,-0.456,1023
2018,5,17,21,25,34.85,-0.9365,0.1108,0.3247,0.0718,62.9,147.3,-121.8,-0.307,0.222,-0.427,1023
2018,5,17,21,25,34.869,-0.9302,0.1083,0.3476,0.0445,80.4,151.5,-124.9,-0.293,0.228,-0.244,1023
2018,5,17,21,25,34.892,-0.9237,0.099,0.3696,0.0161,138.8,137.4,-106.9,-0.629,0.191,-0.023,1023
2018,5,17,21,25,34.91,-0.9179,0.076,0.389,-0.0127,224.1,124,-79.4,-0.698,0.032,-0.139,1023
2018,5,17,21,25,34.934,-0.9119,0.0372,0.4063,-0.0433,303.1,119.9,-58.5,-0.65,0.021,-0.306,0
2018,5,17,21,25,34.97,-0.9034,-0.0116,0.4218,-0.0755,332.6,120.6,-49.5,-0.599,0.181,-0.335,0
2018,5,17,21,25,35.013,-0.8917,-0.0599,0.4358,-0.1061,297.1,118.2,-46.9,-0.416,0.274,-0.102,0
2018,5,17,21,25,35.015,-0.8784,-0.0983,0.4486,-0.1318,213.6,108.7,-52.4,-0.174,0.102,-0.031,0
2018,5,17,21,25,35.018,-0.8656,-0.1242,0.4602,-0.1529,178.8,81.7,-55.6,-0.169,-0.239,0.05,0
2018,5,17,21,25,35.03,-0.854,-0.1532,0.4644,-0.1772,246.3,42.6,-58.1,-0.116,-0.182,0.151,0
2018,5,17,21,25,35.067,-0.8418,-0.1894,0.4609,-0.207,272.8,10.9,-57.7,-0.142,0.291,0.053,0
2018,5,17,21,25,35.089,-0.8321,-0.219,0.4526,-0.2338,184.6,-24.3,-46.2,-0.015,0.386,0.16,0
2018,5,17,21,25,35.092,-0.8283,-0.2336,0.4438,-0.2493,82.9,-35,-14.1,-0.151,0.089,0.236,0
2018,5,17,21,25,35.129,-0.8289,-0.2398,0.4357,-0.2558,49.9,-42.8,-0.6,-0.418,-0.687,0.706,0
2018,5,17,21,25,35.151,-0.8303,-0.2487,0.424,-0.2621,94.5,-63.1,17.3,-0.388,-0.42,0.835,0
2018,5,17,21,25,35.156,-0.8333,-0.2576,0.4085,-0.2688,39.6,-86.1,14.8,-0.223,0.262,0.356,0
2018,5,17,21,25,35.174,-0.8403,-0.2526,0.3965,-0.2697,-51.2,-75.9,12.5,-0.22,0.186,-0.038,0
2018,5,17,21,25,35.212,-0.8483,-0.2399,0.3897,-0.2661,-76.4,-54.8,8.8,-0.15,0.099,-0.058,0
2018,5,17,21,25,35.235,-0.8541,-0.2289,0.3861,-0.2624,-50.6,-35.4,4.5,-0.041,0.08,-0.088,0
2018,5,17,21,25,35.239,-0.8572,-0.2236,0.3836,-0.2607,-13.9,-17.5,2.5,-0.019,0.064,-0.076,0
2018,5,17,21,25,35.253,-0.8575,-0.2253,0.3817,-0.261,25.6,-4,0,0.021,0.056,0.029,0
2018,5,17,21,25,35.271,-0.8561,-0.2301,0.3799,-0.2637,38.8,3.5,-5.3,0.006,-0.025,0.045,0
2018,5,17,21,25,35.294,-0.8541,-0.2351,0.3792,-0.2669,30.8,6.8,-6,0,-0.038,0.037,0
2018,5,17,21,25,35.314,-0.8526,-0.2378,0.3796,-0.2688,10.7,7.3,-3.1,0.007,-0.061,0.008,0
2018,5,17,21,25,35.333,-0.8519,-0.2381,0.3807,-0.2693,-0.8,5.6,1.2,0.004,-0.1,-0.031,0
2018,5,17,21,25,35.356,-0.8516,-0.2373,0.3823,-0.2687,-6.2,5.3,4.6,0.013,-0.112,-0.058,0
2018,5,17,21,25,35.374,-0.8516,-0.2366,0.3836,-0.2673,-7.5,6,6.6,0.002,-0.112,-0.064,0
2018,5,17,21,25,35.397,-0.8515,-0.236,0.3853,-0.2659,-3.9,6.2,7,-0.005,-0.069,-0.051,1023
2018,5,17,21,25,35.416,-0.8513,-0.2363,0.3864,-0.2646,-2.9,5.2,5.8,-0.002,0,-0.029,1023
2018,5,17,21,25,35.435,-0.8513,-0.2366,0.3872,-0.2632,-4.8,3.7,4.7,-0.009,0.026,-0.021,1023
2018,5,17,21,25,35.458,-0.8514,-0.237,0.3876,-0.2618,-2.6,1.3,5.3,-0.031,0.058,0.008,1023
2018,5,17,21,25,35.476,-0.8517,-0.2379,0.3873,-0.2606,1.3,-1.4,5.9,-0.032,0.075,0.022,1023
2018,5,17,21,25,35.5,-0.852,-0.2392,0.3864,-0.2598,3.5,-3.2,5.4,-0.023,0.051,0.007,1023
2018,5,17,21,25,35.515,-0.8522,-0.2404,0.3855,-0.2593,6.3,-3,4.3,0,0.006,-0.012,1023
2018,5,17,21,25,35.533,-0.8521,-0.2418,0.3847,-0.2593,6.5,-1.8,2.5,0.015,-0.005,-0.02,1023
2018,5,17,21,25,35.556,-0.8519,-0.2431,0.3844,-0.2593,6.3,0.6,1.5,0.024,0.008,-0.046,0
2018,5,17,21,25,35.574,-0.8515,-0.2445,0.3844,-0.2592,6,2.1,2.3,0.01,0.013,-0.019,0
2018,5,17,21,25,35.597,-0.8513,-0.2459,0.3842,-0.2591,5.4,0.7,2,-0.004,0.02,0.013,0
2018,5,17,21,25,35.615,-0.8511,-0.2469,0.3838,-0.2592,4.7,-1.3,0.5,0,0.003,0.006,0
2018,5,17,21,25,35.635,-0.851,-0.2475,0.3834,-0.2595,3.8,-1.9,-0.7,0.002,-0.015,-0.014,0
2018,5,17,21,25,35.675,-0.8508,-0.2479,0.3832,-0.2601,4.1,-2,-2.1,-0.004,-0.01,-0.024,0
2018,5,17,21,25,35.698,-0.8505,-0.2484,0.383,-0.2608,3.8,-2,-2.2,-0.005,-0.006,-0.02,0
2018,5,17,21,25,35.702,-0.8504,-0.2486,0.3828,-0.2614,2.4,-2.6,-2,-0.002,-0.009,-0.006,0
2018,5,17,21,25,35.72,-0.8504,-0.2487,0.3824,-0.2619,0.9,-2.8,-1.2,0,-0.015,-0.008,0
2018,5,17,21,25,35.736,-0.8504,-0.2486,0.3822,-0.2621,0.6,-2.3,0.3,-0.01,-0.012,0.002,0
2018,5,17,21,25,35.757,-0.8505,-0.2486,0.3819,-0.2622,0.1,-2.3,0.8,-0.016,-0.008,0.007,0
2018,5,17,21,25,35.775,-0.8507,-0.2486,0.3817,-0.2621,-0.6,-1.7,1.4,-0.008,-0.004,-0.01,0
2018,5,17,21,25,35.798,-0.8508,-0.2487,0.3816,-0.2618,-0.6,-0.5,2.2,-0.013,-0.002,-0.01,0
2018,5,17,21,25,35.816,-0.8508,-0.2488,0.3817,-0.2614,-0.5,0.1,2.1,-0.013,-0.015,-0.002,0
2018,5,17,21,25,35.839,-0.8508,-0.2489,0.3818,-0.2611,-0.5,0.7,1.7,-0.008,-0.012,0,0
2018,5,17,21,25,35.86,-0.8508,-0.2489,0.382,-0.2609,-1,0.9,1.2,-0.002,-0.014,-0.003,0
2018,5,17,21,25,35.877,-0.8508,-0.2488,0.3823,-0.2605,-1.4,1.2,1.3,0.003,-0.013,-0.012,0
2018,5,17,21,25,35.899,-0.8508,-0.2488,0.3826,-0.2602,-0.4,2,2,0.003,-0.008,-0.006,0
2018,5,17,21,25,35.935,-0.8507,-0.2492,0.3828,-0.2597,1.3,2,2.7,0,-0.011,0.004,0
2018,5,17,21,25,35.935,-0.8506,-0.2497,0.3829,-0.2594,2.6,1.5,2.8,-0.001,-0.01,0.002,0
2018,5,17,21,25,35.959,-0.8505,-0.2504,0.383,-0.2591,1.9,1.6,2.8,-0.006,-0.009,-0.011,0
2018,5,17,21,25,35.976,-0.8503,-0.2512,0.3831,-0.2587,5.4,1.4,3.7,-0.016,0.011,-0.004,0
2018,5,17,21,25,35.999,-0.85,-0.253,0.3827,-0.2584,10,0.1,5.1,-0.013,0.038,-0.014,1023
2018,5,17,21,25,36.018,-0.8497,-0.2552,0.3821,-0.2581,9.2,-0.1,4.7,-0.003,0.015,-0.026,1023
2018,5,17,21,25,36.035,-0.8495,-0.2568,0.3818,-0.258,5.8,0.3,3.6,0,-0.015,-0.021,1023
2018,5,17,21,25,36.059,-0.8493,-0.2577,0.3817,-0.2579,4.5,0.3,2.5,-0.001,-0.027,-0.001,1023
2018,5,17,21,25,36.093,-0.8492,-0.2582,0.3814,-0.258,3.2,-0.7,1.5,0.004,-0.029,0.004,1023
2018,5,17,21,25,36.117,-0.8492,-0.2582,0.3812,-0.2581,0.2,-1.2,0.4,0.012,-0.028,-0.004,1023
2018,5,17,21,25,36.121,-0.8493,-0.2582,0.3811,-0.258,-1.1,-0.7,1.5,0.01,-0.005,-0.023,1023
2018,5,17,21,25,36.14,-0.8495,-0.2582,0.3811,-0.2575,-1.8,-0.1,2.5,0.006,0.003,-0.02,1023
2018,5,17,21,25,36.163,-0.8496,-0.2583,0.3811,-0.2569,-1.8,0.1,2.7,-0.003,0.013,-0.002,1023
2018,5,17,21,25,36.182,-0.8499,-0.2581,0.3811,-0.2564,-2.9,-0.1,1.7,-0.006,0.008,0.014,0
2018,5,17,21,25,36.22,-0.85,-0.2578,0.3811,-0.2561,-2.3,0.1,0.1,0,-0.004,0.008,0
2018,5,17,21,25,36.22,-0.85,-0.2575,0.3813,-0.256,-0.5,1.3,-0.9,0,-0.01,-0.004,0
2018,5,17,21,25,36.242,-0.8498,-0.2576,0.3817,-0.2562,1.5,2.2,-1.8,0.002,-0.001,-0.007,0
2018,5,17,21,25,36.26,-0.8494,-0.258,0.3822,-0.2565,2.1,3,-2,0.001,0.006,-0.009,0
2018,5,17,21,25,36.279,-0.8489,-0.2585,0.3827,-0.2567,2.1,3.2,-1.8,0,0,-0.01,0
2018,5,17,21,25,36.302,-0.8485,-0.259,0.3832,-0.257,2.9,2.8,-1.2,-0.007,-0.006,-0.001,0
2018,5,17,21,25,36.32,-0.8481,-0.2595,0.3836,-0.2572,3.3,2.3,-0.9,-0.007,-0.016,-0.005,0
2018,5,17,21,25,36.34,-0.8477,-0.2598,0.384,-0.2575,1.9,1.7,-1,0,-0.018,-0.008,0
2018,5,17,21,25,36.36,-0.8475,-0.2598,0.3843,-0.2576,-1.6,1.3,-0.6,0.007,-0.004,-0.01,0
2018,5,17,21,25,36.383,-0.8475,-0.2594,0.3847,-0.2575,-2.5,0.4,0.1,-0.005,-0.013,0.007,0
2018,5,17,21,25,36.419,-0.8475,-0.2591,0.3849,-0.2575,-0.1,0.2,-0.5,-0.005,-0.003,-0.01,0
2018,5,17,21,25,36.443,-0.8474,-0.2593,0.3851,-0.2575,-0.2,0.9,-0.6,0,0.008,-0.024,0
2018,5,17,21,25,36.447,-0.8472,-0.2593,0.3854,-0.2574,-1.9,1.7,-0.7,0.003,0.007,-0.012,0
2018,5,17,21,25,36.46,-0.8472,-0.259,0.3859,-0.2572,-2.6,2,-0.7,0,0.002,-0.005,0
2018,5,17,21,25,36.497,-0.847,-0.2589,0.3863,-0.2571,0.2,1.5,-1,-0.002,-0.008,-0.002,0
2018,5,17,21,25,36.521,-0.8468,-0.2591,0.3865,-0.2575,2.7,0.9,-2,0.003,-0.02,0,0
2018,5,17,21,25,36.525,-0.8464,-0.2593,0.3868,-0.258,2.1,1.2,-2,0.001,-0.014,-0.014,0
2018,5,17,21,25,36.542,-0.8461,-0.2596,0.387,-0.2583,2.9,1.2,-0.7,0,-0.005,-0.005,0
2018,5,17,21,25,36.565,-0.8458,-0.2602,0.3872,-0.2585,2.8,0.7,0.4,-0.019,0.001,0.003,0
2018,5,17,21,25,36.583,-0.8457,-0.2606,0.3871,-0.2585,1.3,-0.1,0.9,-0.017,0,0.006,0
2018,5,17,21,25,36.62,-0.8457,-0.2606,0.3871,-0.2584,-0.8,-0.1,0.8,-0.002,-0.007,-0.009,0
2018,5,17,21,25,36.643,-0.8458,-0.2604,0.3873,-0.2581,-3.3,0.7,0.6,0.008,-0.003,-0.012,1023
2018,5,17,21,25,36.648,-0.8459,-0.26,0.3876,-0.2577,-3,1.5,1.1,0.009,0.004,-0.001,1023
2018,5,17,21,25,36.663,-0.846,-0.2599,0.3878,-0.2572,-1.3,1.3,1,0.003,0.009,0.008,1023
2018,5,17,21,25,36.68,-0.846,-0.26,0.3879,-0.257,0.2,1,0.3,0.003,0.003,0.003,1023
2018,5,17,21,25,36.703,-0.8459,-0.2602,0.388,-0.257,1.7,1.5,-0.4,0.01,-0.003,-0.009,1023
2018,5,17,21,25,36.739,-0.8456,-0.2605,0.3884,-0.2572,1.6,2.4,-1.5,0.005,-0.007,-0.013,1023
2018,5,17,21,25,36.763,-0.8452,-0.2609,0.3888,-0.2574,2.5,2.8,-1.5,0.001,0.003,-0.011,1023
2018,5,17,21,25,36.768,-0.8448,-0.2614,0.3892,-0.2577,3.2,2.4,-1.2,-0.004,0.004,0.001,1023
2018,5,17,21,25,36.783,-0.8444,-0.2619,0.3894,-0.2579,2.3,1.3,-0.8,-0.005,0.001,-0.002,1023
2018,5,17,21,25,36.806,-0.8442,-0.2622,0.3896,-0.2581,1.3,0.9,-0.4,-0.004,-0.007,-0.004,0
2018,5,17,21,25,36.824,-0.8441,-0.2623,0.3898,-0.2582,0.1,0.7,0,-0.003,-0.008,-0.006,0
2018,5,17,21,25,36.845,-0.844,-0.2623,0.3899,-0.2582,0,0,0,-0.008,-0.012,-0.001,0
2018,5,17,21,25,36.863,-0.844,-0.2622,0.3899,-0.2582,-0.6,-1.1,0.4,-0.003,-0.009,-0.006,0
2018,5,17,21,25,36.886,-0.8441,-0.262,0.3899,-0.2581,-2.1,-1.1,0.5,0.004,-0.006,-0.013,0
2018,5,17,21,25,36.905,-0.8443,-0.2616,0.3899,-0.2579,-2.5,-1,1.1,0.003,-0.002,-0.009,0
2018,5,17,21,25,36.929,-0.8445,-0.2614,0.3898,-0.2576,-1.3,-1.3,1.4,-0.009,0,0.003,0
2018,5,17,21,25,36.945,-0.8447,-0.2613,0.3895,-0.2574,-0.8,-2,1.3,-0.005,0.004,0.004,0
2018,5,17,21,25,36.963,-0.845,-0.2612,0.3891,-0.2572,-0.3,-2.2,1.2,0.002,-0.005,-0.008,0
2018,5,17,21,25,36.986,-0.8452,-0.2612,0.3889,-0.2571,-0.6,-1.5,1.1,0.008,-0.003,-0.009,0
2018,5,17,21,25,37.005,-0.8453,-0.2611,0.3887,-0.2569,-0.5,-0.7,1.4,0,-0.003,-0.002,0
2018,5,17,21,25,37.028,-0.8454,-0.2612,0.3886,-0.2568,-0.1,-0.6,1.1,-0.003,0.001,0.005,0
2018,5,17,21,25,37.046,-0.8455,-0.2612,0.3884,-0.2566,0,-0.6,1.2,0.004,0,0.005,0
2018,5,17,21,25,37.064,-0.8456,-0.2612,0.3883,-0.2565,-0.2,-0.3,1.1,0.005,0,-0.007,0
2018,5,17,21,25,37.087,-0.8457,-0.2613,0.3883,-0.2562,0,0.6,1.5,0.004,0,-0.007,0
2018,5,17,21,25,37.107,-0.8457,-0.2615,0.3883,-0.2559,0.4,0.4,1.4,0.001,0,0,0
2018,5,17,21,25,37.129,-0.8457,-0.2618,0.3882,-0.2558,1.2,0.6,1.4,0.002,-0.007,0.001,0
2018,5,17,21,25,37.145,-0.8456,-0.2621,0.3882,-0.2557,1.8,0.6,1.4,0.001,-0.002,-0.001,0
2018,5,17,21,25,37.182,-0.8455,-0.2626,0.3882,-0.2555,2.1,0.9,1.4,-0.003,0.003,-0.002,0
2018,5,17,21,25,37.205,-0.8454,-0.2631,0.3882,-0.2554,1.9,0.5,1.4,-0.006,0,0.001,0
2018,5,17,21,25,37.209,-0.8453,-0.2635,0.3881,-0.2553,1.5,0.1,1.2,-0.003,-0.007,-0.005,0
2018,5,17,21,25,37.227,-0.8453,-0.2637,0.3882,-0.2552,0.3,0.2,1,0,-0.003,-0.011,0
2018,5,17,21,25,37.246,-0.8452,-0.2639,0.3882,-0.255,-0.7,0.3,1.2,0.002,0.004,-0.01,1023
2018,5,17,21,25,37.269,-0.8453,-0.2639,0.3883,-0.2547,-1.1,0,1.2,0.002,0,-0.004,1023
2018,5,17,21,25,37.305,-0.8455,-0.2637,0.3882,-0.2545,-1.2,-0.5,0.9,0.007,-0.003,0,1023
2018,5,17,21,25,37.328,-0.8456,-0.2636,0.3881,-0.2543,-0.7,-0.6,0.9,0.005,-0.004,-0.005,1023
2018,5,17,21,25,37.333,-0.8457,-0.2637,0.388,-0.2541,0,-0.5,0.9,0.004,0.003,0,1023
2018,5,17,21,25,37.349,-0.8457,-0.2638,0.3879,-0.254,0.2,-0.7,0.8,0,0.005,0.002,1023
2018,5,17,21,25,37.367,-0.8458,-0.2639,0.3877,-0.254,0.4,-0.7,0.6,-0.002,-0.004,-0.006,1023
2018,5,17,21,25,37.39,-0.8458,-0.2639,0.3876,-0.2539,0.1,-0.4,0.5,0,-0.004,-0.005,1023
2018,5,17,21,25,37.406,-0.8458,-0.264,0.3876,-0.2539,0,0,0,0.002,-0.004,-0.002,1023
2018,5,17,21,25,37.425,-0.8458,-0.264,0.3876,-0.2539,0,0,0,0,-0.002,-0.002,0
2018,5,17,21,25,37.444,-0.8459,-0.264,0.3876,-0.2539,0.5,-0.3,0.5,0.007,0.002,-0.007,0
2018,5,17,21,25,37.484,-0.8459,-0.2643,0.3875,-0.2537,0.3,0.2,1.6,0.005,0.007,-0.009,0
2018,5,17,21,25,37.507,-0.8459,-0.2645,0.3874,-0.2534,0.7,0.4,2,-0.002,0.001,-0.002,0
2018,5,17,21,25,37.511,-0.8459,-0.2648,0.3873,-0.2532,1.6,-0.1,1.7,-0.008,-0.012,0.008,0
2018,5,17,21,25,37.547,-0.8459,-0.265,0.3872,-0.2532,1.6,-0.1,0.9,-0.002,-0.02,0.001,0
2018,5,17,21,25,37.57,-0.8458,-0.2651,0.3873,-0.2532,0.1,0.3,0.5,0.003,-0.01,-0.012,0
2018,5,17,21,25,37.575,-0.8458,-0.2651,0.3874,-0.2531,-0.9,0.6,0.7,0,-0.006,-0.009,0
2018,5,17,21,25,37.59,-0.8458,-0.2651,0.3876,-0.2529,-0.3,0.3,1,-0.004,0.001,-0.004,0
2018,5,17,21,25,37.614,-0.8458,-0.2652,0.3875,-0.2528,-0.3,0,1,0,-0.002,0,0
2018,5,17,21,25,37.629,-0.8459,-0.2652,0.3875,-0.2526,0,-0.1,1.4,0.006,-0.003,0,0
2018,5,17,21,25,37.666,-0.846,-0.2653,0.3874,-0.2523,-0.7,0,1.5,0,0.002,0.004,0
2018,5,17,21,25,37.69,-0.8461,-0.2653,0.3873,-0.252,-0.9,-0.1,1.8,0.001,0.004,0,0
2018,5,17,21,25,37.693,-0.8462,-0.2653,0.3872,-0.2517,-1.2,-0.2,1.7,0,0,0.001,0
2018,5,17,21,25,37.711,-0.8464,-0.2652,0.3872,-0.2513,-1.1,-0.3,1.6,0.003,-0.003,0,0
2018,5,17,21,25,37.747,-0.8465,-0.2651,0.3872,-0.2511,-1,0,1.1,0.001,-0.004,0.001,0
2018,5,17,21,25,37.77,-0.8466,-0.2651,0.3871,-0.2509,0,-0.2,0.8,0.004,-0.002,-0.001,0
2018,5,17,21,25,37.775,-0.8466,-0.2652,0.3871,-0.2509,0,0,0,0.005,-0.003,-0.004,0
2018,5,17,21,25,37.789,-0.8466,-0.2653,0.3871,-0.2508,0.6,0.3,0.4,0,0.002,-0.003,0
2018,5,17,21,25,37.81,-0.8465,-0.2655,0.3871,-0.2507,0.4,0.1,0.6,0.001,0.003,0,0
2018,5,17,21,25,37.829,-0.8465,-0.2657,0.387,-0.2506,0.5,-0.1,0.7,0.001,0,0.004,0
2018,5,17,21,25,37.847,-0.8466,-0.2658,0.3869,-0.2505,0,-0.4,0.9,0.002,-0.001,-0.001,1023
2018,5,17,21,25,37.869,-0.8467,-0.2657,0.3868,-0.2504,-0.9,-0.6,1.1,0.005,-0.007,0.001,1023
2018,5,17,21,25,37.906,-0.8468,-0.2656,0.3867,-0.2502,-0.4,-1,1,0.006,-0.008,0.004,1023
2018,5,17,21,25,37.906,-0.847,-0.2655,0.3866,-0.2501,-1,-0.9,0.6,0.002,-0.01,-0.003,1023
2018,5,17,21,25,37.93,-0.847,-0.2654,0.3865,-0.2501,0.5,-0.4,0.5,0.004,-0.004,-0.016,1023
2018,5,17,21,25,37.967,-0.847,-0.2657,0.3865,-0.2499,0,0.6,0.7,0.001,0.011,-0.007,1023
2018,5,17,21,25,37.988,-0.8469,-0.2659,0.3866,-0.2497,0,0.9,0.9,-0.003,0.008,0.004,1023
2018,5,17,21,25,37.99,-0.8469,-0.2659,0.3867,-0.2496,0,0.7,0.4,-0.004,-0.002,0.008,1023
2018,5,17,21,25,38.027,-0.8469,-0.266,0.3868,-0.2496,1.2,0.7,0.1,-0.002,-0.005,0.003,1023
2018,5,17,21,25,38.05,-0.8467,-0.2662,0.3868,-0.2496,1.6,0.7,0,0.002,-0.003,-0.005,0
2018,5,17,21,25,38.055,-0.8466,-0.2665,0.3869,-0.2497,1.3,0.9,0,0.005,-0.005,-0.011,0
2018,5,17,21,25,38.072,-0.8464,-0.2667,0.3871,-0.2497,0.5,0.7,-0.2,0.003,-0.006,-0.01,0
2018,5,17,21,25,38.111,-0.8464,-0.2668,0.3872,-0.2498,0,0,0,0,-0.001,-0.003,0
2018,5,17,21,25,38.111,-0.8464,-0.2668,0.3872,-0.2498,-0.5,0,0,0.004,0,0,0
2018,5,17,21,25,38.134,-0.8464,-0.2667,0.3872,-0.2497,-0.9,-0.5,0.3,0.003,0.005,-0.01,0
2018,5,17,21,25,38.151,-0.8465,-0.2666,0.3871,-0.2496,-0.8,-0.8,0.8,0.002,0.003,0,0
2018,5,17,21,25,38.173,-0.8466,-0.2666,0.387,-0.2494,-0.8,-1.1,0.5,0,0,-0.005,0
2018,5,17,21,25,38.21,-0.8468,-0.2664,0.3869,-0.2494,-0.5,-1.1,0.1,-0.003,-0.005,0,0
2018,5,17,21,25,38.231,-0.8468,-0.2662,0.3868,-0.2494,-1.2,-0.9,-0.6,0.005,-0.004,-0.002,0
2018,5,17,21,25,38.234,-0.8469,-0.2659,0.3868,-0.2495,-1.1,-0.6,-0.7,0.002,0.006,-0.005,0
2018,5,17,21,25,38.271,-0.8469,-0.2658,0.3867,-0.2496,-0.1,-0.7,-0.9,0.002,0.005,0.004,0
2018,5,17,21,25,38.292,-0.847,-0.2657,0.3865,-0.2497,0.3,-1.2,-0.6,0.004,0,0.005,0
2018,5,17,21,25,38.294,-0.8471,-0.2657,0.3863,-0.2499,0.1,-1.2,-0.2,0.005,-0.004,-0.004,0
2018,5,17,21,25,38.329,-0.8471,-0.2656,0.3862,-0.2499,-0.1,-0.8,0.2,0.001,-0.003,-0.002,0
2018,5,17,21,25,38.329,-0.8472,-0.2656,0.3861,-0.2499,-0.6,-0.6,0.3,0,0,0,0
2018,5,17,21,25,38.352,-0.8473,-0.2654,0.386,-0.2499,-0.6,-0.7,0.2,-0.001,-0.005,0.002,0
2018,5,17,21,25,38.389,-0.8474,-0.2653,0.386,-0.2499,-0.6,-0.3,0.2,0.003,-0.005,-0.004,0
2018,5,17,21,25,38.41,-0.8474,-0.2652,0.386,-0.2498,0,0,0,0.003,-0.002,-0.001,0
2018,5,17,21,25,38.412,-0.8474,-0.2652,0.386,-0.2498,0,0,0,-0.003,0,0.001,0
2018,5,17,21,25,38.448,-0.8474,-0.2653,0.3859,-0.2499,0.5,-0.2,0.4,-0.002,-0.001,0.001,0
2018,5,17,21,25,38.47,-0.8474,-0.2654,0.3858,-0.2499,0,0,0,0.001,-0.005,-0.003,0
2018,5,17,21,25,38.474,-0.8474,-0.2654,0.3859,-0.2498,-0.1,0,0.7,0.006,0,-0.007,1023
2018,5,17,21,25,38.51,-0.8474,-0.2654,0.3859,-0.2496,0,0.1,0.8,0.002,0.002,-0.007,1023
2018,5,17,21,25,38.531,-0.8475,-0.2655,0.3858,-0.2495,0,-0.1,0.8,0.003,0.002,-0.002,1023
2018,5,17,21,25,38.535,-0.8476,-0.2655,0.3857,-0.2494,-0.5,-0.3,0.9,0.004,-0.001,-0.002,1023
2018,5,17,21,25,38.571,-0.8476,-0.2654,0.3857,-0.2492,-0.9,0,0.4,0.006,-0.002,-0.003,1023
2018,5,17,21,25,38.592,-0.8477,-0.2653,0.3858,-0.2491,-0.8,0.4,0.4,0,0.001,-0.003,1023
2018,5,17,21,25,38.595,-0.8477,-0.2653,0.3858,-0.249,0,0,0,0.002,0.002,0,1023
2018,5,17,21,25,38.631,-0.8477,-0.2653,0.3858,-0.249,0,0,0,0.005,-0.001,0.002,1023
2018,5,17,21,25,38.652,-0.8476,-0.2654,0.3859,-0.249,0.5,0.8,-0.6,0.004,-0.004,-0.003,0
2018,5,17,21,25,38.655,-0.8475,-0.2655,0.386,-0.2491,1,1,-0.4,0.001,0,-0.001,0
2018,5,17,21,25,38.691,-0.8473,-0.2657,0.3861,-0.2493,1.6,0.8,-0.4,0,0,-0.001,0
2018,5,17,21,25,38.713,-0.8472,-0.2659,0.3862,-0.2495,1.3,0.6,-0.6,0,-0.006,-0.004,0
2018,5,17,21,25,38.716,-0.8471,-0.266,0.3863,-0.2496,0,0.7,-0.7,0.001,-0.005,-0.005,0
2018,5,17,21,25,38.752,-0.847,-0.266,0.3865,-0.2497,0,1,-0.2,0,0,-0.003,0
2018,5,17,21,25,38.773,-0.8469,-0.266,0.3866,-0.2496,0.1,0.7,0,-0.004,0.003,0.007,0
2018,5,17,21,25,38.778,-0.8469,-0.2661,0.3867,-0.2496,0,0,0,0.004,-0.002,-0.003,0
2018,5,17,21,25,38.794,-0.8468,-0.2661,0.3868,-0.2497,-0.1,0.7,-0.5,0.007,0.002,-0.004,0
2018,5,17,21,25,38.813,-0.8467,-0.2661,0.387,-0.2497,0.4,0.9,-0.2,0.007,-0.001,-0.009,0
2018,5,17,21,25,38.852,-0.8466,-0.2663,0.3871,-0.2497,1.5,0.6,-0.1,0.001,0,0,0
2018,5,17,21,25,38.872,-0.8465,-0.2665,0.3871,-0.2498,1.2,0.4,0,0,-0.004,-0.002,0
2018,5,17,21,25,38.875,-0.8464,-0.2666,0.3871,-0.2499,0.4,0.6,-0.1,-0.001,-0.007,-0.005,0
2018,5,17,21,25,38.911,-0.8464,-0.2667,0.3872,-0.2499,-0.2,0.6,0,-0.002,0.002,-0.002,0
2018,5,17,21,25,38.932,-0.8463,-0.2666,0.3873,-0.2498,-0.8,0.4,0.1,0,-0.001,-0.003,0
2018,5,17,21,25,38.937,-0.8463,-0.2666,0.3874,-0.2497,-0.9,0.4,0.3,0.003,0,-0.006,0
2018,5,17,21,25,38.975,-0.8464,-0.2665,0.3876,-0.2496,-0.9,0.6,0.2,0.002,-0.002,-0.005,0
2018,5,17,21,25,38.995,-0.8464,-0.2664,0.3877,-0.2494,-0.3,0.6,0.1,0.004,-0.001,-0.003,0
2018,5,17,21,25,39,-0.8463,-0.2665,0.3878,-0.2494,0.6,0.6,-0.1,0.002,-0.002,0.003,0
2018,5,17,21,25,39.016,-0.8462,-0.2666,0.3879,-0.2495,0.8,0.6,-0.3,0,-0.003,-0.003,0
2018,5,17,21,25,39.036,-0.8461,-0.2667,0.388,-0.2496,0.3,0.8,-0.2,0.004,0.001,-0.003,0
2018,5,17,21,25,39.059,-0.846,-0.2668,0.388,-0.2495,0.5,0.7,0.2,0,0.003,-0.002,0
2018,5,17,21,25,39.078,-0.846,-0.2669,0.3881,-0.2495,0,0,0,0.001,-0.002,-0.001,0
2018,5,17,21,25,39.101,-0.846,-0.2669,0.3881,-0.2495,0,0,0,0.002,-0.002,0,1023
2018,5,17,21,25,39.12,-0.846,-0.2669,0.3882,-0.2495,0,0,0,0,-0.004,-0.001,1023
2018,5,17,21,25,39.138,-0.846,-0.2669,0.3883,-0.2494,-0.5,0.4,0.2,0,-0.003,-0.001,1023
2018,5,17,21,25,39.161,-0.8459,-0.2669,0.3883,-0.2494,0,0,0,0.002,-0.003,-0.002,1023
2018,5,17,21,25,39.178,-0.8459,-0.2668,0.3884,-0.2494,-0.8,0.6,0,0.005,0,-0.004,1023
2018,5,17,21,25,39.2,-0.8459,-0.2668,0.3885,-0.2492,-0.9,1,0.1,0.005,0.007,-0.006,1023
2018,5,17,21,25,39.221,-0.8459,-0.2668,0.3887,-0.2491,-0.6,1,0.1,0.002,0.004,0.001,1023
2018,5,17,21,25,39.244,-0.8459,-0.2668,0.3888,-0.249,0.2,0.9,-0.1,0.006,0,0.002,1023
2018,5,17,21,25,39.263,-0.8458,-0.2669,0.3889,-0.2491,0.8,1.1,-0.5,0.004,-0.004,0.001,0
2018,5,17,21,25,39.28,-0.8456,-0.267,0.3891,-0.2492,0.7,1.2,-0.8,0,-0.001,-0.006,0
2018,5,17,21,25,39.297,-0.8454,-0.2671,0.3893,-0.2493,0.5,1.1,-0.8,0,-0.001,-0.005,0
2018,5,17,21,25,39.32,-0.8453,-0.2672,0.3895,-0.2494,0.8,0.6,-0.9,0.001,-0.001,-0.007,0
2018,5,17,21,25,39.339,-0.8452,-0.2673,0.3896,-0.2496,0.8,0.5,-0.8,0.003,-0.004,-0.006,0
2018,5,17,21,25,39.362,-0.845,-0.2674,0.3897,-0.2497,0.2,0.3,-0.6,0,-0.001,-0.002,0
2018,5,17,21,25,39.38,-0.845,-0.2674,0.3897,-0.2497,0,0,0,-0.001,0.002,-0.002,0
2018,5,17,21,25,39.403,-0.845,-0.2674,0.3898,-0.2497,-0.3,-0.6,-0.3,-0.001,0,-0.004,0
2018,5,17,21,25,39.421,-0.845,-0.2673,0.3897,-0.2498,-0.6,-0.7,-0.2,-0.001,0,-0.008,0
2018,5,17,21,25,39.444,-0.8451,-0.2672,0.3897,-0.2498,-0.9,-0.9,-0.1,0.001,-0.003,-0.004,0
2018,5,17,21,25,39.463,-0.8452,-0.267,0.3896,-0.2498,-0.8,-1.3,-0.1,-0.001,0,0,0
2018,5,17,21,25,39.5,-0.8454,-0.2668,0.3894,-0.2498,-1.1,-1.5,-0.2,0.006,0,0.001,0
2018,5,17,21,25,39.5,-0.8455,-0.2664,0.3892,-0.2498,-1.2,-1.3,0,0.004,-0.006,0,0
2018,5,17,21,25,39.522,-0.8457,-0.2662,0.3891,-0.2498,-1,-1.2,0.3,0.002,-0.001,-0.002,0
2018,5,17,21,25,39.539,-0.8458,-0.2661,0.389,-0.2497,-0.9,-1,0.8,0,0,0.002,0
2018,5,17,21,25,39.561,-0.846,-0.2659,0.3888,-0.2496,-1.2,-0.8,0.3,0.001,-0.002,-0.002,0
2018,5,17,21,25,39.596,-0.8461,-0.2657,0.3888,-0.2495,-1,-0.1,0.1,0.005,-0.001,-0.004,0
2018,5,17,21,25,39.618,-0.8461,-0.2656,0.3889,-0.2494,0,0,0,0.001,-0.003,0.001,0
2018,5,17,21,25,39.62,-0.8461,-0.2656,0.3888,-0.2495,1.3,0.1,-0.2,0,-0.002,0.005,0
2018,5,17,21,25,39.657,-0.846,-0.2658,0.3888,-0.2497,1.2,0.3,-0.5,0,0.002,-0.004,0
2018,5,17,21,25,39.678,-0.8459,-0.266,0.3889,-0.2498,0.9,0.6,0,0.004,0,-0.001,0
2018,5,17,21,25,39.682,-0.8458,-0.2661,0.3889,-0.2497,0.5,0.3,0.2,-0.002,0.003,0.003,0
2018,5,17,21,25,39.698,-0.8458,-0.2662,0.3889,-0.2497,0,0,0,0,-0.001,-0.001,0
2018,5,17,21,25,39.721,-0.8458,-0.2662,0.3889,-0.2497,0,0,0,0.001,-0.005,-0.005,1023
2018,5,17,21,25,39.756,-0.8458,-0.2661,0.3889,-0.2497,0,0,0,0.004,0,-0.006,1023
2018,5,17,21,25,39.78,-0.8459,-0.2661,0.3889,-0.2496,-0.5,-0.4,0.8,-0.001,0.002,0.005,1023
2018,5,17,21,25,39.784,-0.846,-0.266,0.3888,-0.2495,-0.4,-0.8,0.9,-0.001,0.002,-0.003,1023
2018,5,17,21,25,39.8,-0.8461,-0.266,0.3887,-0.2494,-0.9,-0.7,0.7,0.005,-0.004,0,1023
2018,5,17,21,25,39.823,-0.8462,-0.2658,0.3886,-0.2492,-1.2,-0.3,0.4,0.005,-0.002,0,1023
2018,5,17,21,25,39.842,-0.8463,-0.2657,0.3886,-0.2491,-0.6,0,0.4,0.003,0.001,0.003,1023
2018,5,17,21,25,39.865,-0.8463,-0.2657,0.3886,-0.2491,0,0,0,0.002,0.001,0,1023
2018,5,17,21,25,39.883,-0.8463,-0.2657,0.3886,-0.2491,0.6,0.1,-0.1,0.004,0.002,-0.002,0
2018,5,17,21,25,39.905,-0.8462,-0.2658,0.3886,-0.2491,0.7,0.3,0,0.004,-0.001,-0.005,0
2018,5,17,21,25,39.943,-0.8462,-0.2659,0.3886,-0.2491,1,0,0.1,-0.002,0.002,0.003,0
2018,5,17,21,25,39.964,-0.8462,-0.2661,0.3885,-0.2492,0.5,-0.3,0.3,-0.002,-0.002,-0.006,0
2018,5,17,21,25,39.966,-0.8461,-0.266,0.3886,-0.2492,-0.1,-0.5,0.2,0.002,-0.006,-0.005,0
2018,5,17,21,25,39.981,-0.8462,-0.2659,0.3886,-0.2491,-0.9,-0.2,0.4,0.001,-0.005,-0.007,0
2018,5,17,21,25,40.004,-0.8463,-0.2659,0.3885,-0.249,-0.8,-0.6,0.6,0.002,0.001,0.001,0
2018,5,17,21,25,40.042,-0.8464,-0.2658,0.3884,-0.2489,0,-0.9,0.6,0,0.003,0,0
2018,5,17,21,25,40.042,-0.8465,-0.2658,0.3882,-0.2489,0,-1.3,0.5,0,-0.004,-0.004,0
2018,5,17,21,25,40.063,-0.8466,-0.2658,0.388,-0.2489,-0.1,-1.3,0.6,0,-0.002,-0.004,0
2018,5,17,21,25,40.1,-0.8467,-0.2657,0.3878,-0.2488,-0.6,-1.3,0.5,0,0,-0.005,0
2018,5,17,21,25,40.119,-0.8469,-0.2656,0.3876,-0.2487,-0.8,-1.4,0.6,0.004,0,0,0
2018,5,17,21,25,40.125,-0.847,-0.2655,0.3874,-0.2486,-0.9,-1.3,0.9,0.008,-0.006,0,0
2018,5,17,21,25,40.158,-0.8472,-0.2653,0.3872,-0.2485,-1.3,-0.9,0.9,0.005,-0.002,0,0
2018,5,17,21,25,40.182,-0.8474,-0.2652,0.387,-0.2483,-0.2,-0.6,0.8,0.005,0.003,-0.002,0
2018,5,17,21,25,40.183,-0.8474,-0.2652,0.3869,-0.2483,0.1,-0.5,0.4,0.002,0,0.005,0
2018,5,17,21,25,40.22,-0.8475,-0.2652,0.3868,-0.2483,0.5,-0.1,0,0.003,0,-0.001,0
2018,5,17,21,25,40.244,-0.8474,-0.2653,0.3868,-0.2483,1,-0.1,0,0.002,0.001,0.002,0
2018,5,17,21,25,40.247,-0.8474,-0.2655,0.3867,-0.2484,0.5,0,0,-0.001,0.001,0,0
2018,5,17,21,25,40.264,-0.8474,-0.2656,0.3867,-0.2484,0.6,-0.2,0,0,-0.006,0,0
2018,5,17,21,25,40.287,-0.8474,-0.2656,0.3867,-0.2485,0,0,0,0.006,-0.006,0,0
2018,5,17,21,25,40.305,-0.8474,-0.2656,0.3867,-0.2485,0,0,0,0.003,0.001,-0.005,0
2018,5,17,21,25,40.329,-0.8474,-0.2657,0.3867,-0.2483,0.3,-0.2,0.9,0,-0.001,-0.004,1023
2018,5,17,21,25,40.346,-0.8474,-0.2658,0.3865,-0.2482,0.1,-0.8,1.1,0.002,-0.004,0.002,1023
2018,5,17,21,25,40.369,-0.8475,-0.2658,0.3864,-0.2482,0.1,-0.7,0.9,0,-0.006,-0.003,1023
2018,5,17,21,25,40.387,-0.8476,-0.2658,0.3862,-0.2481,-0.1,-0.8,0.7,0.002,0,-0.001,1023
2018,5,17,21,25,40.409,-0.8477,-0.2658,0.3861,-0.248,-0.4,-0.7,0.8,0.002,0.001,0,1023
2018,5,17,21,25,40.445,-0.8478,-0.2657,0.3859,-0.2478,-0.6,-0.6,1.1,0.001,0.006,-0.005,1023
2018,5,17,21,25,40.445,-0.848,-0.2657,0.3858,-0.2477,-0.5,-0.6,0.8,0.004,0.003,-0.002,1023
2018,5,17,21,25,40.468,-0.8481,-0.2657,0.3857,-0.2476,0,-0.5,0.5,0.004,0,-0.003,1023
2018,5,17,21,25,40.487,-0.8481,-0.2658,0.3855,-0.2475,0.5,-0.3,0.6,0.002,0,-0.003,0
2018,5,17,21,25,40.507,-0.8481,-0.2659,0.3854,-0.2475,0.5,-0.3,0.4,0.001,0.002,0.004,0
2018,5,17,21,25,40.53,-0.8481,-0.266,0.3853,-0.2475,0.7,-0.3,0.3,0.001,0,0,0
2018,5,17,21,25,40.549,-0.8481,-0.266,0.3853,-0.2475,0,0,0,0.003,0,0,0
2018,5,17,21,25,40.569,-0.8481,-0.2661,0.3853,-0.2475,0,0,0,0.001,0.001,0.002,0
2018,5,17,21,25,40.589,-0.8481,-0.2661,0.3853,-0.2475,0,0,0,0.001,-0.002,-0.003,0
2018,5,17,21,25,40.608,-0.8482,-0.2661,0.3853,-0.2475,0,0,0,0.007,0,0,0
2018,5,17,21,25,40.631,-0.8482,-0.266,0.3852,-0.2475,-0.3,-0.5,0.1,0.003,0,-0.002,0
2018,5,17,21,25,40.649,-0.8482,-0.266,0.3851,-0.2474,0.2,-0.7,0.4,0.001,0.002,-0.001,0
2018,5,17,21,25,40.672,-0.8483,-0.2661,0.3849,-0.2474,0.7,-1.1,0.6,-0.001,-0.002,-0.004,0
2018,5,17,21,25,40.687,-0.8484,-0.2661,0.3848,-0.2474,0.2,-1.1,0.5,0,0,-0.005,0
2018,5,17,21,25,40.706,-0.8485,-0.2661,0.3846,-0.2474,-0.1,-1.1,0.7,0.002,0,-0.003,0
2018,5,17,21,25,40.729,-0.8486,-0.266,0.3844,-0.2473,-0.2,-1,0.8,0.004,0,0.002,0
2018,5,17,21,25,40.747,-0.8488,-0.266,0.3842,-0.2472,-0.5,-1.1,1,0.007,0,-0.003,0
2018,5,17,21,25,40.77,-0.8489,-0.2659,0.384,-0.247,-0.6,-1,1,0.004,-0.004,0.004,0
2018,5,17,21,25,40.789,-0.8491,-0.2659,0.3838,-0.2469,-0.1,-0.8,1,0.004,0,-0.001,0
2018,5,17,21,25,40.813,-0.8491,-0.2659,0.3836,-0.2468,0,-0.4,0.8,0.002,0,0.003,0
2018,5,17,21,25,40.831,-0.8492,-0.266,0.3835,-0.2467,0.5,-0.5,0.9,0.001,0.002,0.002,0
2018,5,17,21,25,40.851,-0.8493,-0.2661,0.3833,-0.2467,0.8,-0.6,0.6,0.001,0,0.004,0
2018,5,17,21,25,40.87,-0.8493,-0.2662,0.3832,-0.2466,0.6,-0.1,0.6,0.002,-0.004,-0.006,0
2018,5,17,21,25,40.888,-0.8493,-0.2663,0.3831,-0.2466,0,0,0,0.003,0.001,-0.005,0
2018,5,17,21,25,40.909,-0.8493,-0.2664,0.3831,-0.2466,0,0,0,0.001,0.003,0,0
2018,5,17,21,25,40.927,-0.8493,-0.2664,0.3831,-0.2465,0.4,0,0.7,0.005,0,0,0
2018,5,17,21,25,40.95,-0.8493,-0.2665,0.383,-0.2465,0.3,-0.1,0.6,0.006,-0.001,-0.002,1023
2018,5,17,21,25,40.968,-0.8494,-0.2666,0.3829,-0.2464,0.2,-0.1,0.7,0.004,0.002,-0.003,1023
2018,5,17,21,25,40.991,-0.8494,-0.2667,0.3828,-0.2463,0.1,-0.3,0.8,0,0.003,0,1023
2018,5,17,21,25,41.009,-0.8495,-0.2668,0.3827,-0.2462,0.1,-0.6,0.8,0,0.002,0,1023
2018,5,17,21,25,41.032,-0.8495,-0.2668,0.3826,-0.2461,-0.2,-0.7,0.8,0.004,-0.002,0.001,1023
2018,5,17,21,25,41.051,-0.8496,-0.2667,0.3825,-0.2461,-0.3,-0.6,0.4,0,0,-0.004,1023
2018,5,17,21,25,41.074,-0.8497,-0.2667,0.3823,-0.246,-0.3,-0.7,0.4,0.004,0,0,1023
2018,5,17,21,25,41.092,-0.8498,-0.2667,0.3822,-0.2459,-0.5,-0.4,0.4,0.004,-0.001,-0.002,0
2018,5,17,21,25,41.115,-0.8498,-0.2667,0.3822,-0.2459,-0.5,-0.2,0.3,0.004,-0.001,0.003,0
2018,5,17,21,25,41.133,-0.8499,-0.2667,0.3821,-0.2458,0.3,-0.3,0.6,0.006,0,0.001,0
2018,5,17,21,25,41.157,-0.8499,-0.2667,0.3821,-0.2458,0,0,0,0.001,0,-0.001,0
2018,5,17,21,25,41.172,-0.8499,-0.2667,0.3821,-0.2458,0,0,0,0.001,0.003,0,0
2018,5,17,21,25,41.209,-0.8499,-0.2667,0.382,-0.2458,0,0,0,0.004,-0.003,0,0
2018,5,17,21,25,41.232,-0.8499,-0.2667,0.3821,-0.2458,0,0,0,0,-0.001,-0.002,0
2018,5,17,21,25,41.237,-0.8499,-0.2667,0.382,-0.2458,0,0,0,0,0.002,0.002,0
2018,5,17,21,25,41.254,-0.8499,-0.2667,0.382,-0.2458,0,0,0,0,-0.002,0,0
2018,5,17,21,25,41.273,-0.85,-0.2666,0.3819,-0.2458,0,0,0,0.004,-0.001,-0.004,0
2018,5,17,21,25,41.291,-0.85,-0.2666,0.3819,-0.2458,0,-0.1,0.5,0.003,0.002,-0.004,0
2018,5,17,21,25,41.312,-0.85,-0.2666,0.3818,-0.2457,-0.1,-0.2,0.5,0,0,0.002,0
2018,5,17,21,25,41.333,-0.8501,-0.2666,0.3818,-0.2456,0,0,0,0.001,-0.002,0.004,0
2018,5,17,21,25,41.356,-0.8501,-0.2666,0.3818,-0.2456,0,0,0,0.003,0.002,0.001,0
2018,5,17,21,25,41.371,-0.8501,-0.2666,0.3818,-0.2456,0,0,0,0.004,0.002,-0.003,0
2018,5,17,21,25,41.392,-0.8501,-0.2667,0.3817,-0.2456,0,0,0,0.002,0.008,0.004,0
2018,5,17,21,25,41.41,-0.8501,-0.2667,0.3817,-0.2456,0,0.2,0.5,0.005,0.002,0.002,0
2018,5,17,21,25,41.433,-0.8502,-0.2667,0.3816,-0.2456,0,0,0,0.007,0,-0.004,0
2018,5,17,21,25,41.451,-0.8501,-0.2667,0.3817,-0.2455,0.2,1,0,0.001,-0.001,0,0
2018,5,17,21,25,41.474,-0.85,-0.2669,0.3819,-0.2455,1.1,1.1,-0.1,0.001,0.001,0.003,0
2018,5,17,21,25,41.492,-0.8498,-0.2671,0.382,-0.2456,1.6,1,-0.5,0.003,-0.002,-0.002,0
2018,5,17,21,25,41.513,-0.8497,-0.2673,0.3821,-0.2458,1.2,0.9,-0.6,0.001,0,-0.005,0
2018,5,17,21,25,41.551,-0.8495,-0.2675,0.3823,-0.2459,0.7,0.8,-0.6,-0.003,0,-0.002,0
2018,5,17,21,25,41.575,-0.8495,-0.2676,0.3823,-0.2459,0.2,0.4,-0.5,0.001,0.001,0.001,1023
2018,5,17,21,25,41.578,-0.8494,-0.2675,0.3824,-0.246,-0.6,0,-0.2,0.003,-0.002,-0.005,1023
2018,5,17,21,25,41.592,-0.8494,-0.2674,0.3825,-0.246,-0.9,-0.1,-0.3,0.001,0,0,1023
2018,5,17,21,25,41.629,-0.8495,-0.2673,0.3825,-0.2459,-0.6,-0.4,0,0,0.005,0,1023
2018,5,17,21,25,41.653,-0.8495,-0.2672,0.3824,-0.2459,-0.3,-0.6,0,-0.001,0,0.004,1023
2018,5,17,21,25,41.657,-0.8496,-0.267,0.3823,-0.246,-0.8,-0.6,-0.3,0.003,0,0.002,1023
2018,5,17,21,25,41.673,-0.8497,-0.2669,0.3823,-0.246,-0.8,-0.1,-0.3,0.002,0.005,0,1023
2018,5,17,21,25,41.696,-0.8497,-0.2668,0.3822,-0.246,-0.6,0,-0.3,0.001,0.004,0.002,1023
2018,5,17,21,25,41.714,-0.8497,-0.2667,0.3822,-0.246,-0.1,0.2,-0.5,0.007,-0.001,0.002,0
2018,5,17,21,25,41.737,-0.8497,-0.2667,0.3823,-0.2461,0,0.9,-1,0.005,-0.002,0,0
2018,5,17,21,25,41.755,-0.8496,-0.2666,0.3825,-0.2462,0.5,1.3,-0.9,0.007,-0.004,0,0
2018,5,17,21,25,41.779,-0.8494,-0.2668,0.3827,-0.2463,0.8,1.5,-1,0.001,0,0.001,0
2018,5,17,21,25,41.798,-0.8492,-0.2669,0.3829,-0.2465,1.1,1.6,-1.1,0.003,-0.003,-0.001,0
2018,5,17,21,25,41.834,-0.849,-0.2671,0.3832,-0.2467,1.4,1.7,-0.9,0,-0.003,0,0
2018,5,17,21,25,41.834,-0.8488,-0.2673,0.3834,-0.2468,1.6,1.6,-0.7,0,-0.001,0.003,0
2018,5,17,21,25,41.857,-0.8486,-0.2675,0.3836,-0.2469,1,1,-0.6,-0.003,0,0,0
2018,5,17,21,25,41.875,-0.8485,-0.2676,0.3838,-0.247,0.1,1,-0.4,0.001,0,-0.004,0
2018,5,17,21,25,41.912,-0.8484,-0.2676,0.384,-0.247,-0.3,0.7,0,0.001,-0.003,-0.011,0
2018,5,17,21,25,41.935,-0.8483,-0.2676,0.3841,-0.2469,-0.3,0.7,0,-0.002,0,-0.001,0
2018,5,17,21,25,41.937,-0.8483,-0.2676,0.3842,-0.2469,0,0,0,0.001,-0.004,-0.004,0
2018,5,17,21,25,41.973,-0.8483,-0.2675,0.3843,-0.2469,-0.7,0.1,-0.4,0.006,-0.003,-0.007,0
2018,5,17,21,25,41.995,-0.8483,-0.2674,0.3844,-0.2469,-0.7,0.4,-0.3,0.005,0.002,-0.001,0
2018,5,17,21,25,41.999,-0.8483,-0.2673,0.3844,-0.2469,-0.5,0.5,-0.1,0.003,0.005,0.002,0
2018,5,17,21,25,42.034,-0.8483,-0.2674,0.3844,-0.2468,0,0.5,-0.1,0.004,0.001,0.002,0
2018,5,17,21,25,42.057,-0.8483,-0.2674,0.3844,-0.2468,-0.2,0.6,-0.2,0.003,0,0.002,0
2018,5,17,21,25,42.062,-0.8483,-0.2673,0.3845,-0.2468,0,1,-0.4,0.006,0.002,-0.001,0
2018,5,17,21,25,42.076,-0.8482,-0.2674,0.3847,-0.2469,0.5,1,-0.7,0.002,-0.002,-0.001,0
2018,5,17,21,25,42.094,-0.848,-0.2674,0.3849,-0.247,0.9,1.4,-0.9,0.006,-0.005,-0.005,0
2018,5,17,21,25,42.117,-0.8478,-0.2676,0.3851,-0.2472,1,1.3,-0.8,0.003,-0.001,-0.002,0
2018,5,17,21,25,42.136,-0.8476,-0.2678,0.3853,-0.2473,1,1.3,-0.7,0.001,0.002,-0.003,0
2018,5,17,21,25,42.16,-0.8475,-0.268,0.3855,-0.2474,1,1,-0.6,0.002,0,-0.004,0
2018,5,17,21,25,42.178,-0.8474,-0.2681,0.3856,-0.2475,0.4,1.1,-0.3,0.001,0,-0.004,0
2018,5,17,21,25,42.201,-0.8473,-0.2682,0.3858,-0.2475,0.4,0.7,-0.1,-0.001,0,-0.007,1023
2018,5,17,21,25,42.22,-0.8472,-0.2682,0.3859,-0.2475,0,0,0,-0.001,-0.002,-0.005,1023
2018,5,17,21,25,42.238,-0.8472,-0.2682,0.3859,-0.2475,0,0,0,0.004,-0.003,-0.006,1023
2018,5,17,21,25,42.26,-0.8472,-0.2682,0.386,-0.2474,-0.5,0.2,0.1,0,-0.001,0.001,1023
2018,5,17,21,25,42.294,-0.8472,-0.2681,0.386,-0.2474,0,0,0,0.001,0,0.003,1023
2018,5,17,21,25,42.294,-0.8472,-0.2681,0.386,-0.2474,0,0,0,0.005,0,0.003,1023
2018,5,17,21,25,42.318,-0.8472,-0.2681,0.386,-0.2474,0,0,0,0.006,0,-0.005,1023
2018,5,17,21,25,42.356,-0.8472,-0.2681,0.386,-0.2474,0.1,0.5,-0.4,0.001,0.004,0.002,1023
2018,5,17,21,25,42.38,-0.8471,-0.2682,0.386,-0.2474,1,0.1,-0.1,0,-0.001,0.002,1023
2018,5,17,21,25,42.384,-0.8471,-0.2683,0.386,-0.2476,0.8,0,-0.4,0.005,-0.006,-0.005,0
2018,5,17,21,25,42.401,-0.847,-0.2683,0.3861,-0.2477,0,0,0,0,-0.001,-0.012,0
2018,5,17,21,25,42.419,-0.847,-0.2684,0.3861,-0.2477,0,0,0,0,0.002,-0.003,0
2018,5,17,21,25,42.442,-0.847,-0.2684,0.386,-0.2476,0.2,-0.4,1.1,-0.003,-0.001,0,0
2018,5,17,21,25,42.46,-0.8471,-0.2684,0.3859,-0.2474,-0.5,-0.7,1.1,0,-0.007,-0.001,0
2018,5,17,21,25,42.483,-0.8473,-0.2683,0.3858,-0.2473,-1.4,-0.9,1.1,0,-0.006,-0.002,0
2018,5,17,21,25,42.519,-0.8475,-0.2681,0.3857,-0.247,-1.5,-0.7,1.2,0.003,0.002,-0.001,0
2018,5,17,21,25,42.543,-0.8476,-0.268,0.3856,-0.2468,-1,-0.9,1.2,0,0.004,-0.003,0
2018,5,17,21,25,42.547,-0.8478,-0.2679,0.3854,-0.2466,-0.7,-0.7,0.9,0.002,0.002,0,0
2018,5,17,21,25,42.559,-0.8479,-0.2678,0.3853,-0.2464,-0.5,-0.6,0.7,0.004,0,0,0
2018,5,17,21,25,42.577,-0.848,-0.2678,0.3852,-0.2464,0,0,0,0.003,-0.002,0,0
2018,5,17,21,25,42.6,-0.848,-0.2678,0.3851,-0.2463,0,0,0,0.004,0,0.001,0
2018,5,17,21,25,42.618,-0.848,-0.2678,0.3851,-0.2463,0,0,0,0.006,-0.002,-0.001,0
2018,5,17,21,25,42.641,-0.848,-0.2678,0.3851,-0.2463,0,0,0,0.003,0.002,-0.002,0
2018,5,17,21,25,42.678,-0.848,-0.2678,0.3851,-0.2462,0,0,0,0.002,0.002,0,0
2018,5,17,21,25,42.701,-0.848,-0.2678,0.3851,-0.2462,0,0,0,0.001,-0.002,0,0
2018,5,17,21,25,42.706,-0.848,-0.2679,0.3851,-0.2462,0,0,0,0.003,-0.001,-0.004,0
2018,5,17,21,25,42.722,-0.848,-0.2679,0.3851,-0.2462,0,0,0,0,-0.001,-0.004,0
2018,5,17,21,25,42.745,-0.848,-0.268,0.3851,-0.2462,0,0,0,-0.003,0.003,-0.001,0
2018,5,17,21,25,42.761,-0.848,-0.268,0.3851,-0.2462,0,0,0,0,-0.001,-0.003,0
2018,5,17,21,25,42.798,-0.848,-0.268,0.3851,-0.2462,0,0,0,0.006,0,-0.004,0
2018,5,17,21,25,42.821,-0.848,-0.268,0.3851,-0.2461,-0.3,-0.4,0.7,0.002,0.002,-0.008,0
2018,5,17,21,25,42.825,-0.8481,-0.2679,0.385,-0.246,-0.7,-0.5,0.6,0.002,0.002,0,1023
2018,5,17,21,25,42.844,-0.8482,-0.2679,0.3849,-0.2459,-0.1,-0.5,0.4,0.001,0,0,1023
2018,5,17,21,25,42.862,-0.8483,-0.2679,0.3848,-0.2459,-0.4,-0.7,0.6,0.004,0,-0.001,1023
2018,5,17,21,25,42.885,-0.8484,-0.2678,0.3847,-0.2458,-0.3,-0.6,0.6,-0.001,0,0.006,1023
2018,5,17,21,25,42.901,-0.8484,-0.2678,0.3846,-0.2457,0,-0.6,0.1,0.001,0,-0.001,1023
2018,5,17,21,25,42.924,-0.8485,-0.2677,0.3845,-0.2457,-0.5,-0.5,0,0.006,0,-0.003,1023
2018,5,17,21,25,42.96,-0.8486,-0.2676,0.3844,-0.2456,-0.7,0,0.1,0.005,0.003,-0.003,1023
2018,5,17,21,25,42.983,-0.8486,-0.2676,0.3844,-0.2456,0,0,0,0.004,0.003,0.003,1023
2018,5,17,21,25,42.988,-0.8486,-0.2677,0.3844,-0.2456,0.7,-0.1,0.1,0.002,-0.005,0,0
2018,5,17,21,25,43.003,-0.8486,-0.2677,0.3843,-0.2456,0.6,-0.1,0,0.003,-0.002,-0.008,0
2018,5,17,21,25,43.026,-0.8486,-0.2678,0.3843,-0.2456,0,0,0,0.003,0.001,-0.008,0
2018,5,17,21,25,43.042,-0.8485,-0.2678,0.3844,-0.2456,0,0,0,0,0,-0.007,0
2018,5,17,21,25,43.062,-0.8486,-0.2678,0.3843,-0.2456,0.1,-0.3,0.5,0,0,-0.002,0
2018,5,17,21,25,43.084,-0.8486,-0.2678,0.3843,-0.2456,-0.5,-0.6,0.4,0.002,-0.004,-0.004,0
2018,5,17,21,25,43.12,-0.8487,-0.2677,0.3842,-0.2455,-0.5,-0.4,0.4,0.005,-0.002,-0.001,0
2018,5,17,21,25,43.143,-0.8488,-0.2676,0.3841,-0.2454,-0.5,-0.4,0.6,0.006,0,-0.004,0
2018,5,17,21,25,43.148,-0.8489,-0.2676,0.384,-0.2453,0,-0.4,0.9,-0.001,0,0.003,0
2018,5,17,21,25,43.164,-0.8489,-0.2676,0.3839,-0.2452,0,-0.7,0.8,-0.003,-0.002,0.002,0
2018,5,17,21,25,43.186,-0.849,-0.2676,0.3837,-0.2452,-0.1,-0.9,0.3,0,-0.001,-0.002,0
2018,5,17,21,25,43.223,-0.8491,-0.2675,0.3837,-0.2452,-0.8,-0.3,0.2,0.007,0,-0.006,0
2018,5,17,21,25,43.223,-0.8492,-0.2674,0.3836,-0.2451,-0.5,-0.1,0.5,0.002,0.001,0.002,0
2018,5,17,21,25,43.246,-0.8492,-0.2674,0.3835,-0.2449,-0.2,-0.3,0.7,0.006,0.005,0,0
2018,5,17,21,25,43.265,-0.8493,-0.2675,0.3834,-0.2448,0,-0.4,0.6,0.003,0.002,0.002,0
2018,5,17,21,25,43.283,-0.8494,-0.2675,0.3833,-0.2447,0,0,0.6,0.001,-0.001,-0.002,0
2018,5,17,21,25,43.306,-0.8494,-0.2675,0.3833,-0.2447,0.4,0.3,0.6,0,-0.001,-0.001,0
2018,5,17,21,25,43.325,-0.8494,-0.2676,0.3833,-0.2447,0.7,0.2,0.3,-0.001,0.002,0,0
2018,5,17,21,25,43.346,-0.8493,-0.2678,0.3833,-0.2447,0,0,0,0.001,-0.003,-0.003,0
2018,5,17,21,25,43.364,-0.8493,-0.2678,0.3833,-0.2447,0,0,0,0.003,-0.003,-0.009,0
2018,5,17,21,25,43.387,-0.8493,-0.2677,0.3833,-0.2447,0,0,0,0.001,-0.001,0,0
