ax,ay,az,dpitch,droll,dyaw,heart,time_1,time_2,time_3,time_4,time_5,time_6,w,x,y,z
-0.282,1.618,-0.586,76.2,82.8,188.3,0,2018,5,1,22,11,12.011,-0.8384,0.2573,-0.4753,0.0697
0.052,0.674,-0.225,107.6,32.4,221.2,0,2018,5,1,22,11,12.031,-0.846,0.2661,-0.4505,0.1016
0.271,-1.339,0.634,79,-35.4,175.2,0,2018,5,1,22,11,12.041,-0.8489,0.2854,-0.4264,0.1264
0.735,-2.283,1.06,20.2,12.6,54.2,0,2018,5,1,22,11,12.081,-0.8489,0.2976,-0.4136,0.1398
0.962,-1.477,0.722,-46,64.1,-79.7,0,2018,5,1,22,11,12.102,-0.8509,0.2888,-0.4154,0.1408
0.563,-0.268,0.18,-88.7,49.3,-153.3,1023,2018,5,1,22,11,12.107,-0.8509,0.2698,-0.4314,0.1298
-0.108,0.659,-0.178,-98.7,9.8,-159,1023,2018,5,1,22,11,12.125,-0.8483,0.2507,-0.4524,0.1125
-0.553,1.019,-0.44,-79.9,-18.4,-122.5,1023,2018,5,1,22,11,12.145,-0.8432,0.2388,-0.4721,0.0947
-0.63,1.331,-0.581,-43.7,-12.3,-57.1,1023,2018,5,1,22,11,12.161,-0.8386,0.233,-0.4853,0.0824
-0.511,1.464,-0.689,-4.7,1.5,28.3,1023,2018,5,1,22,11,12.181,-0.8366,0.2325,-0.4892,0.0809
-0.302,1.39,-0.677,33.5,43,108.9,1023,2018,5,1,22,11,12.202,-0.8376,0.2358,-0.4838,0.0924
-0.022,1.285,-0.495,76.1,88.9,171.9,1023,2018,5,1,22,11,12.221,-0.8426,0.2384,-0.4683,0.1169
0.581,0.785,-0.153,101.2,36.2,190.2,1023,2018,5,1,22,11,12.241,-0.8488,0.2446,-0.4451,0.146
0.893,-0.88,0.452,71.2,-22.9,148.4,0,2018,5,1,22,11,12.28,-0.8505,0.2614,-0.4246,0.1671
1.196,-1.896,0.759,12,42.8,38.2,0,2018,5,1,22,11,12.3,-0.8508,0.2688,-0.4138,0.18
1.053,-1.447,0.668,-55,81.5,-98.3,0,2018,5,1,22,11,12.305,-0.8536,0.2547,-0.4167,0.1809
0.439,-0.302,0.038,-97.4,39.3,-181.9,0,2018,5,1,22,11,12.323,-0.8546,0.2323,-0.4334,0.1664
-0.422,1.043,-0.548,-88.5,-5.7,-169.6,0,2018,5,1,22,11,12.343,-0.8528,0.2131,-0.4544,0.1438
-0.82,1.672,-0.849,-57.4,-41,-88,0,2018,5,1,22,11,12.365,-0.8491,0.205,-0.4705,0.1244
-0.905,1.879,-0.92,-11.7,-30.5,26.2,0,2018,5,1,22,11,12.38,-0.8456,0.2072,-0.4773,0.1183
-0.656,1.639,-0.832,43.4,10.9,140.1,0,2018,5,1,22,11,12.421,-0.8447,0.2166,-0.4718,0.1297
-0.531,1.011,-0.513,86.4,55.2,211.8,0,2018,5,1,22,11,12.441,-0.8471,0.2274,-0.4537,0.1569
-0.401,0.097,-0.109,101.3,32,234.1,0,2018,5,1,22,11,12.446,-0.8497,0.2405,-0.4286,0.1905
0.472,-0.865,0.28,77.9,-53.2,195.3,0,2018,5,1,22,11,12.48,-0.8481,0.2615,-0.4058,0.2181
1.522,-1.361,0.413,30.2,-63,98.9,0,2018,5,1,22,11,12.502,-0.8427,0.2839,-0.3937,0.2324
1.917,-0.977,0.526,-9.6,-14.8,-20.1,0,2018,5,1,22,11,12.507,-0.8399,0.2924,-0.3922,0.2347
1.591,-0.268,0.361,-33.8,38.1,-115.2,0,2018,5,1,22,11,12.525,-0.8419,0.2844,-0.399,0.2258
0.976,0.478,0.036,-40.5,54.1,-152.7,0,2018,5,1,22,11,12.563,-0.8469,0.2655,-0.4095,0.2106
0.223,0.821,-0.279,-34.3,36.3,-128.9,0,2018,5,1,22,11,12.584,-0.8513,0.2467,-0.42,0.1945
-0.475,0.903,-0.461,-12.7,11.7,-69.9,0,2018,5,1,22,11,12.588,-0.8538,0.2355,-0.4269,0.1822
-1.315,0.447,-0.256,-4.7,44.8,-4.4,0,2018,5,1,22,11,12.603,-0.8554,0.2288,-0.4287,0.179
-1.509,0.256,-0.144,-0.1,45.6,42.7,0,2018,5,1,22,11,12.64,-0.8565,0.2226,-0.4265,0.1863
-0.998,0.268,-0.263,8.6,-7.4,72.9,0,2018,5,1,22,11,12.66,-0.8556,0.2244,-0.423,0.1963
-0.322,0.389,-0.378,22.1,-39.1,97.5,0,2018,5,1,22,11,12.664,-0.8526,0.2351,-0.4182,0.2066
0.728,0.548,-0.333,35.1,-52.4,110.6,0,2018,5,1,22,11,12.699,-0.8488,0.2512,-0.4111,0.2174
1.655,0.446,-0.266,37.3,-21.3,97.1,0,2018,5,1,22,11,12.719,-0.8457,0.2659,-0.4024,0.2281
1.955,0.164,-0.214,26.6,53.3,60.8,0,2018,5,1,22,11,12.727,-0.8454,0.2706,-0.3933,0.2392
1.674,0.166,-0.131,24.2,135.3,14.9,0,2018,5,1,22,11,12.746,-0.8503,0.2594,-0.3836,0.2498
0.972,0.159,-0.011,21.9,135.2,-17.5,1023,2018,5,1,22,11,12.766,-0.8583,0.2387,-0.3739,0.2577
0.012,-0.374,0.131,7.6,116.9,-30.5,1023,2018,5,1,22,11,12.786,-0.8651,0.22,-0.3675,0.2608
-0.782,-0.566,0.351,-9.9,138.8,-34,1023,2018,5,1,22,11,12.806,-0.8714,0.1982,-0.3628,0.2639
-1.113,-0.097,0.157,-19,92.6,-32.7,1023,2018,5,1,22,11,12.847,-0.8761,0.1761,-0.3607,0.2666
-1,0.447,-0.241,-18.3,-23.1,-17,1023,2018,5,1,22,11,12.851,-0.8771,0.1688,-0.3631,0.265
-0.585,0.565,-0.375,-5.3,-82.4,11.5,1023,2018,5,1,22,11,12.867,-0.8748,0.1771,-0.3679,0.2605
0.203,0.476,-0.502,4.5,-76.6,44.6,1023,2018,5,1,22,11,12.885,-0.8709,0.1918,-0.3707,0.2592
1.625,0.391,-0.706,12.3,-75,49.6,1023,2018,5,1,22,11,12.905,-0.8667,0.2065,-0.3709,0.2617
2.379,0.107,-0.839,21.2,-64.8,13.8,1023,2018,5,1,22,11,12.944,-0.8637,0.2205,-0.3704,0.261
2.058,0.058,-0.724,33.9,-8.2,-41.4,1023,2018,5,1,22,11,12.964,-0.8648,0.2265,-0.3684,0.2549
1.209,-0.134,-0.192,32.9,51.7,-96.9,1023,2018,5,1,22,11,12.968,-0.8712,0.2195,-0.3648,0.2441
0.217,-0.226,0.234,19.8,68.8,-127.6,1023,2018,5,1,22,11,13.006,-0.88,0.2034,-0.3625,0.2296
-0.706,-0.109,0.461,2,44.4,-128.2,1023,2018,5,1,22,11,13.025,-0.8877,0.1866,-0.363,0.2129
-1.343,0.211,0.509,-16.5,-10.9,-109,1023,2018,5,1,22,11,13.03,-0.892,0.1761,-0.3672,0.1955
-1.392,0.738,0.348,-28.4,-59.8,-78.8,1023,2018,5,1,22,11,13.047,-0.8925,0.175,-0.375,0.179
-1.118,0.751,0.271,-34.4,-68.7,-32.1,1023,2018,5,1,22,11,13.068,-0.8898,0.1815,-0.384,0.1666
-0.546,0.87,0.152,-30.6,-36.2,16.7,0,2018,5,1,22,11,13.106,-0.8862,0.1879,-0.3907,0.1629
0.416,0.81,-0.181,-29.1,-42.3,57.5,0,2018,5,1,22,11,13.127,-0.8819,0.1954,-0.395,0.1672
1.464,0.462,-0.542,-25.6,-60.7,65.2,0,2018,5,1,22,11,13.131,-0.8763,0.2069,-0.3984,0.1745
2.098,0.113,-0.748,-20.3,-57.7,32.1,0,2018,5,1,22,11,13.146,-0.8708,0.2195,-0.402,0.1784
1.8,-0.066,-0.706,-8.1,13,-24.3,0,2018,5,1,22,11,13.187,-0.8688,0.2231,-0.4047,0.1776
1.196,0.033,-0.493,4.9,77.5,-78.7,0,2018,5,1,22,11,13.208,-0.8723,0.2114,-0.4054,0.173
0.357,0.008,-0.095,9.5,85.6,-104.4,0,2018,5,1,22,11,13.212,-0.8787,0.192,-0.4049,0.164
-0.454,-0.01,0.188,5.7,86.3,-105.7,0,2018,5,1,22,11,13.23,-0.8849,0.1714,-0.4048,0.1536
-1.153,0.184,0.435,-8.4,75.9,-89.8,0,2018,5,1,22,11,13.25,-0.8898,0.1517,-0.4056,0.1437
-1.39,0.784,0.285,-19.5,25.3,-58.5,0,2018,5,1,22,11,13.269,-0.892,0.1374,-0.4084,0.1361
-1.21,0.93,0.059,-23.4,-56.5,-10.2,0,2018,5,1,22,11,13.308,-0.8908,0.1376,-0.4131,0.1296
-0.8,0.736,-0.15,-21.6,-55.3,42.4,0,2018,5,1,22,11,13.329,-0.8872,0.148,-0.4176,0.1279
-0.026,0.721,-0.471,-18.1,-35.2,94,0,2018,5,1,22,11,13.333,-0.8831,0.1593,-0.4197,0.1358
0.893,0.465,-0.823,-10.5,-23.6,118.1,0,2018,5,1,22,11,13.348,-0.8785,0.1714,-0.4195,0.1507
1.77,0.295,-0.97,5.1,-27.8,101.1,0,2018,5,1,22,11,13.388,-0.8746,0.1831,-0.417,0.1659
2.109,-0.088,-0.842,19.8,-27,44.6,0,2018,5,1,22,11,13.409,-0.8724,0.1936,-0.4135,0.1743
1.666,-0.248,-0.537,30.2,24.7,-28.4,0,2018,5,1,22,11,13.413,-0.874,0.1952,-0.4095,0.1738
0.979,-0.066,-0.089,32,62.2,-84.2,0,2018,5,1,22,11,13.429,-0.8798,0.1844,-0.4051,0.1665
0.199,-0.045,0.354,17.7,56.2,-111.9,1023,2018,5,1,22,11,13.449,-0.8864,0.1684,-0.4024,0.1542
-0.484,0.283,0.475,-4.1,42.5,-106.4,1023,2018,5,1,22,11,13.47,-0.8913,0.1527,-0.4032,0.14
-1.135,0.521,0.463,-23.4,9.2,-76.6,1023,2018,5,1,22,11,13.508,-0.8931,0.1418,-0.4073,0.1275
-1.348,0.797,0.218,-30.2,-40.5,-33,1023,2018,5,1,22,11,13.529,-0.8919,0.1398,-0.4132,0.1183
-1.245,0.868,-0.047,-28.7,-59.8,20,1023,2018,5,1,22,11,13.533,-0.8885,0.1472,-0.4192,0.114
-1.011,0.791,-0.266,-22.7,-38.2,75.2,1023,2018,5,1,22,11,13.553,-0.8843,0.1582,-0.4229,0.1182
-0.613,0.741,-0.444,-8.1,-12.5,130.2,1023,2018,5,1,22,11,13.573,-0.8803,0.1689,-0.4227,0.1326
0.024,0.489,-0.571,4.4,-19.9,173.5,1023,2018,5,1,22,11,13.595,-0.876,0.1824,-0.4185,0.1551
0.922,0.087,-0.634,8.8,-43.9,183.6,1023,2018,5,1,22,11,13.616,-0.8701,0.2007,-0.4123,0.1801
1.535,-0.373,-0.636,12.7,-33.9,146.9,1023,2018,5,1,22,11,13.631,-0.8638,0.2196,-0.4059,0.2018
1.65,-0.68,-0.321,10.4,1.9,70.1,1023,2018,5,1,22,11,13.652,-0.8602,0.2299,-0.4003,0.2163
1.579,-0.615,-0.121,2.9,27.5,-16.4,1023,2018,5,1,22,11,13.672,-0.8605,0.2292,-0.3976,0.2208
1.161,-0.302,0.005,-7.1,17.9,-87,0,2018,5,1,22,11,13.71,-0.8635,0.2216,-0.3991,0.2141
0.511,0.014,0.033,-18.7,-9.9,-122.7,0,2018,5,1,22,11,13.732,-0.8666,0.2128,-0.405,0.1985
-0.275,0.562,0.074,-34.2,-26.1,-107.4,0,2018,5,1,22,11,13.736,-0.8679,0.2063,-0.4142,0.18
-0.795,1.047,-0.098,-44.1,-58.1,-51.8,0,2018,5,1,22,11,13.754,-0.8659,0.2057,-0.4244,0.1663
-1.103,1.144,-0.26,-42.1,-66.8,19.9,0,2018,5,1,22,11,13.773,-0.8606,0.2131,-0.4335,0.1606
-1.158,1.024,-0.342,-19.6,-54.1,97.5,0,2018,5,1,22,11,13.812,-0.8541,0.2261,-0.4377,0.1662
-0.967,0.721,-0.23,11.8,-27.5,148.9,0,2018,5,1,22,11,13.832,-0.8484,0.2417,-0.4342,0.1818
-0.255,0.329,-0.216,38.2,-22.7,167.4,0,2018,5,1,22,11,13.836,-0.8442,0.2579,-0.4239,0.2026
0.93,-0.163,-0.31,50.4,-26,155,0,2018,5,1,22,11,13.855,-0.8403,0.2751,-0.4105,0.2226
1.726,-0.64,-0.168,52.3,-20.8,96.9,0,2018,5,1,22,11,13.871,-0.8376,0.2898,-0.3975,0.2373
2.132,-0.962,0.286,33.1,4.9,3,0,2018,5,1,22,11,13.893,-0.838,0.2965,-0.389,0.2415
1.721,-0.759,0.591,-2.1,48.1,-91.8,0,2018,5,1,22,11,13.913,-0.8425,0.2898,-0.388,0.2356
1.004,-0.159,0.549,-43.7,42.8,-159.1,0,2018,5,1,22,11,13.932,-0.8486,0.2722,-0.3958,0.221
0.178,0.461,0.228,-66.3,-13.9,-169.1,0,2018,5,1,22,11,13.975,-0.8514,0.2558,-0.4117,0.1997
-0.454,0.8,-0.066,-65.8,-49.1,-129.6,0,2018,5,1,22,11,13.979,-0.8498,0.2484,-0.4297,0.1771
-0.897,1.02,-0.335,-48.5,-14,-65,0,2018,5,1,22,11,13.996,-0.8469,0.2441,-0.4433,0.1627
-1.04,1.162,-0.7,-9.6,11.4,9.8,0,2018,5,1,22,11,14.035,-0.8454,0.2411,-0.4487,0.1603
-0.945,1.013,-0.633,34.1,15.4,74.8,0,2018,5,1,22,11,14.054,-0.8459,0.2429,-0.4443,0.167
-0.501,0.805,-0.56,67.3,24.5,125.6,0,2018,5,1,22,11,14.058,-0.8477,0.2493,-0.4314,0.1815
0.056,0.298,-0.352,78.7,9,146.1,0,2018,5,1,22,11,14.072,-0.8495,0.2594,-0.4135,0.1998
0.662,-0.31,0.117,63.9,-7.3,125.4,0,2018,5,1,22,11,14.113,-0.8497,0.2718,-0.3962,0.2168
1.215,-0.729,0.492,26.5,-9.2,65.2,0,2018,5,1,22,11,14.131,-0.8486,0.2818,-0.3851,0.2281
1.382,-0.607,0.684,-19.8,8.9,-13.2,0,2018,5,1,22,11,14.135,-0.8478,0.2834,-0.3835,0.2317
1.125,-0.188,0.629,-67.4,11.8,-76.8,0,2018,5,1,22,11,14.156,-0.8473,0.2766,-0.3921,0.2272
0.581,0.195,0.387,-102.9,7.6,-107.5,1023,2018,5,1,22,11,14.176,-0.8455,0.2649,-0.4092,0.2178
-0.055,0.437,0.005,-113.5,-7,-104.2,1023,2018,5,1,22,11,14.215,-0.8414,0.2527,-0.4304,0.207
-0.461,0.576,-0.447,-94,-30.2,-76.6,1023,2018,5,1,22,11,14.233,-0.8355,0.2449,-0.4506,0.1968
-0.682,0.682,-0.758,-51.6,-32.6,-40,1023,2018,5,1,22,11,14.237,-0.8303,0.2425,-0.4648,0.1887
-0.648,0.885,-1.035,-0.4,-30.7,11.7,1023,2018,5,1,22,11,14.276,-0.8274,0.2453,-0.47,0.1848
-0.46,1.139,-1.046,57.7,-16.2,72.9,1023,2018,5,1,22,11,14.295,-0.8275,0.2531,-0.4645,0.1878
0.1,1.17,-0.844,102.4,-9.5,129.8,1023,2018,5,1,22,11,14.299,-0.8301,0.2662,-0.4482,0.1977
0.773,0.807,-0.44,116.5,0.4,161.7,1023,2018,5,1,22,11,14.335,-0.8332,0.282,-0.4248,0.2137
1.128,-0.244,0.272,94.3,-2.6,142.1,1023,2018,5,1,22,11,14.358,-0.8349,0.2977,-0.4012,0.2308
1.125,-1.669,1.116,29.3,8.6,51.3,1023,2018,5,1,22,11,14.363,-0.835,0.3072,-0.387,0.2418
1.108,-1.644,1.139,-40.6,26.3,-76,1023,2018,5,1,22,11,14.377,-0.8362,0.3029,-0.3879,0.2417
0.823,-0.621,0.605,-98.2,-35.6,-174,1023,2018,5,1,22,11,14.416,-0.8364,0.2907,-0.4058,0.2259
0.097,0.24,0.113,-122.1,-73.2,-201.2,1023,2018,5,1,22,11,14.435,-0.832,0.2814,-0.4345,0.199
-0.426,0.981,-0.438,-105.4,-72.3,-172.6,1023,2018,5,1,22,11,14.439,-0.8254,0.2735,-0.4629,0.1715
-0.69,1.507,-0.82,-53.8,-50.7,-103.9,1023,2018,5,1,22,11,14.458,-0.8199,0.2684,-0.4826,0.1503
-0.825,1.66,-0.933,6.1,-38.9,-14.2,0,2018,5,1,22,11,14.478,-0.8173,0.2693,-0.4897,0.1394
-0.694,1.534,-0.791,64.3,-7.1,79.6,0,2018,5,1,22,11,14.498,-0.8185,0.2768,-0.4832,0.1408
-0.229,1.113,-0.556,96.6,24.1,150.3,0,2018,5,1,22,11,14.518,-0.8229,0.287,-0.465,0.155
0.306,0.334,-0.155,96.9,-1.5,171.8,0,2018,5,1,22,11,14.557,-0.8267,0.3008,-0.4418,0.1751
0.72,-0.98,0.489,63.4,-52.3,124.2,0,2018,5,1,22,11,14.577,-0.8262,0.3196,-0.4228,0.1905
1.226,-1.571,0.88,8.8,-55.9,15.9,0,2018,5,1,22,11,14.582,-0.8227,0.3347,-0.4159,0.1948
1.335,-1.023,0.8,-46.5,-39.4,-100.3,0,2018,5,1,22,11,14.596,-0.82,0.337,-0.4235,0.1858
1.015,-0.204,0.501,-84.5,-25.9,-172.9,0,2018,5,1,22,11,14.633,-0.8172,0.3288,-0.4426,0.1673
0.493,0.403,0.127,-101.5,-19.6,-198.2,0,2018,5,1,22,11,14.654,-0.8135,0.3143,-0.4675,0.1443
-0.156,0.719,-0.231,-89.7,-20.3,-182,0,2018,5,1,22,11,14.658,-0.8086,0.2987,-0.4921,0.1208
-0.621,0.974,-0.436,-54,-27.8,-132.7,0,2018,5,1,22,11,14.679,-0.8041,0.2867,-0.5108,0.1004
-1.073,1.013,-0.569,-14.9,-22.2,-64.4,0,2018,5,1,22,11,14.7,-0.8013,0.2812,-0.5208,0.0859
-1.131,1.013,-0.67,19,-4.1,9.1,0,2018,5,1,22,11,14.722,-0.8013,0.2808,-0.5219,0.081
-0.872,1.034,-0.61,48.3,21.4,78.8,0,2018,5,1,22,11,14.74,-0.8042,0.2841,-0.5146,0.0868
-0.396,0.984,-0.43,70.4,28.1,133.2,0,2018,5,1,22,11,14.778,-0.8091,0.291,-0.5001,0.1016
0.414,0.686,-0.151,74.2,-2.7,158.4,0,2018,5,1,22,11,14.798,-0.8135,0.303,-0.4814,0.1202
1.189,-0.076,0.295,55.9,-39.9,134.2,0,2018,5,1,22,11,14.802,-0.8143,0.3205,-0.4644,0.1358
1.879,-0.837,0.691,20.9,-17.1,49.6,0,2018,5,1,22,11,14.82,-0.813,0.334,-0.4545,0.1444
1.822,-1.036,0.927,-16.4,40.6,-73.8,0,2018,5,1,22,11,14.84,-0.8144,0.3308,-0.4546,0.1435
1.302,-0.498,0.688,-54.6,59.3,-171.3,0,2018,5,1,22,11,14.86,-0.8175,0.3117,-0.4659,0.1318
0.439,0.23,0.164,-74.5,19.2,-206.6,1023,2018,5,1,22,11,14.88,-0.8182,0.288,-0.4848,0.1112
-0.39,0.731,-0.325,-68.5,-32,-182.2,1023,2018,5,1,22,11,14.917,-0.8147,0.2709,-0.5052,0.0861
-1.094,1.027,-0.567,-45.4,-41.1,-113.6,1023,2018,5,1,22,11,14.937,-0.8096,0.263,-0.5207,0.0638
-1.462,1.183,-0.756,-16.7,14.5,-23.5,1023,2018,5,1,22,11,14.941,-0.8068,0.2585,-0.5284,0.0548
-1.402,1.176,-0.811,20.1,51.8,65,1023,2018,5,1,22,11,14.963,-0.8083,0.2555,-0.5267,0.0617
-1.082,1.069,-0.737,62.5,52,137.8,1023,2018,5,1,22,11,14.981,-0.8133,0.2577,-0.5153,0.0799
-0.72,0.707,-0.413,88.4,17.8,190.7,1023,2018,5,1,22,11,15.02,-0.8191,0.2689,-0.4959,0.1031
0.041,0.128,-0.101,86.7,-7.7,209.2,1023,2018,5,1,22,11,15.042,-0.8228,0.2874,-0.4731,0.1285
0.93,-0.701,0.175,65.4,-37.2,169.4,1023,2018,5,1,22,11,15.046,-0.8231,0.308,-0.4526,0.1505
1.627,-1.293,0.559,29.4,-57.3,72.4,1023,2018,5,1,22,11,15.064,-0.8204,0.3263,-0.4406,0.1616
1.687,-1.048,0.914,-9.6,-34.6,-46.6,0,2018,5,1,22,11,15.084,-0.8181,0.3341,-0.44,0.1589
1.274,-0.411,0.863,-47.6,7.9,-139.4,0,2018,5,1,22,11,15.101,-0.8176,0.3275,-0.4505,0.1456
0.608,0.198,0.519,-74.2,46,-187.7,0,2018,5,1,22,11,15.14,-0.8182,0.308,-0.4682,0.1278
-0.013,0.681,0.075,-80,19.3,-186.6,0,2018,5,1,22,11,15.16,-0.8173,0.2854,-0.4887,0.1077
-0.477,1.141,-0.354,-53.8,-17.4,-147.8,0,2018,5,1,22,11,15.164,-0.8142,0.2693,-0.5068,0.0873
-0.836,1.4,-0.568,-19.8,-65.1,-76.4,0,2018,5,1,22,11,15.182,-0.8105,0.2653,-0.5176,0.0687
-0.939,1.36,-0.767,6.2,-18.4,15.8,0,2018,5,1,22,11,15.206,-0.808,0.2693,-0.5204,0.0607
-0.679,1.456,-0.8,39.1,35.9,108,0,2018,5,1,22,11,15.241,-0.8099,0.2736,-0.5139,0.0698
0.037,1.226,-0.699,75.4,47.3,167.7,0,2018,5,1,22,11,15.261,-0.8154,0.2804,-0.4981,0.0912
0.697,0.418,-0.278,92.8,-0.1,172.8,0,2018,5,1,22,11,15.265,-0.821,0.2931,-0.4763,0.1142
1.125,-0.925,0.4,77.9,-28.2,107.7,0,2018,5,1,22,11,15.285,-0.8236,0.3102,-0.4569,0.1282
1.079,-1.5,0.901,49,26.2,-9.8,0,2018,5,1,22,11,15.305,-0.8273,0.3162,-0.4449,0.132
0.886,-1.07,0.818,3.9,58.6,-128.2,0,2018,5,1,22,11,15.323,-0.8336,0.3047,-0.4434,0.1242
0.407,-0.1,0.391,-37,33.1,-192.8,0,2018,5,1,22,11,15.361,-0.8382,0.2841,-0.4534,0.1047
-0.322,0.711,0.057,-62.2,-4.3,-189.2,0,2018,5,1,22,11,15.382,-0.8377,0.2656,-0.4703,0.0796
-0.766,1.285,-0.305,-61.6,-32.7,-132.7,0,2018,5,1,22,11,15.386,-0.8334,0.2541,-0.4872,0.0572
-1.071,1.449,-0.582,-51.8,-21.7,-40,0,2018,5,1,22,11,15.403,-0.8278,0.2506,-0.4998,0.045
-1.109,1.403,-0.75,-29.2,10.3,58.3,0,2018,5,1,22,11,15.439,-0.8238,0.2524,-0.5052,0.0477
-0.894,1.26,-0.733,12.6,63.6,143.6,0,2018,5,1,22,11,15.462,-0.8238,0.256,-0.5013,0.0662
-0.668,0.881,-0.497,60.9,86.4,200.8,0,2018,5,1,22,11,15.466,-0.8282,0.2601,-0.4867,0.0968
-0.027,0.215,-0.265,83.4,26.3,221.3,0,2018,5,1,22,11,15.501,-0.8332,0.2708,-0.4644,0.1291
0.695,-0.699,0.119,70.2,-31.2,187.3,0,2018,5,1,22,11,15.522,-0.8339,0.2902,-0.443,0.1546
1.443,-1.161,0.517,43.4,-37.6,99.7,0,2018,5,1,22,11,15.526,-0.8323,0.3085,-0.4281,0.1694
1.925,-0.998,0.663,0.6,0.5,-14.8,0,2018,5,1,22,11,15.545,-0.8316,0.3149,-0.4235,0.1723
1.673,-0.418,0.599,-35.1,39.6,-111.4,0,2018,5,1,22,11,15.565,-0.8336,0.3058,-0.4293,0.165
0.948,0.323,0.333,-59.3,47.9,-160.5,1023,2018,5,1,22,11,15.585,-0.8361,0.2869,-0.4425,0.1503
0.202,0.938,-0.086,-63.7,29,-155.7,1023,2018,5,1,22,11,15.605,-0.8371,0.2666,-0.4587,0.1327
-0.381,1.274,-0.454,-45.5,-0.1,-102.8,1023,2018,5,1,22,11,15.625,-0.8361,0.2526,-0.4725,0.1172
-0.963,1.206,-0.73,-27.3,-3.5,-30.7,1023,2018,5,1,22,11,15.645,-0.8341,0.2474,-0.4807,0.1084
-1.413,1.129,-0.857,2.2,11.8,50.3,1023,2018,5,1,22,11,15.683,-0.8331,0.2472,-0.4821,0.1111
-1.532,0.558,-0.708,33.4,4.3,120.7,1023,2018,5,1,22,11,15.703,-0.8332,0.2536,-0.4752,0.1241
-0.722,0.109,-0.475,52.7,-48.3,155.8,1023,2018,5,1,22,11,15.707,-0.8328,0.2694,-0.4625,0.1408
0.332,-0.284,-0.11,51.8,-93.1,143.7,1023,2018,5,1,22,11,15.746,-0.8295,0.2937,-0.4491,0.1543
1.517,-0.386,0.226,42.6,-98.2,90.3,1023,2018,5,1,22,11,15.765,-0.8246,0.3186,-0.4387,0.1608
2.278,-0.298,0.609,25,-49.1,8.8,1023,2018,5,1,22,11,15.769,-0.8215,0.3343,-0.433,0.1601
2.153,-0.028,0.848,3.9,26.1,-81,1023,2018,5,1,22,11,15.808,-0.8231,0.333,-0.4336,0.153
1.6,0.323,0.797,-22.6,62.8,-143.9,1023,2018,5,1,22,11,15.827,-0.8282,0.3166,-0.4403,0.1404
0.977,0.541,0.384,-43.2,51.5,-165.2,1023,2018,5,1,22,11,15.832,-0.8324,0.2946,-0.4524,0.1239
0.277,0.696,-0.203,-47.9,12.8,-145.4,1023,2018,5,1,22,11,15.848,-0.8333,0.2768,-0.4665,0.1058
-0.475,0.648,-0.505,-42.2,8.9,-93.1,1023,2018,5,1,22,11,15.868,-0.8319,0.265,-0.4787,0.0912
-1.206,0.398,-0.643,-24.1,12.2,-35,1023,2018,5,1,22,11,15.89,-0.8307,0.2576,-0.4862,0.0846
-1.632,0.152,-0.784,-4.5,6.3,8.6,1023,2018,5,1,22,11,15.909,-0.8301,0.2552,-0.4885,0.0844
-1.557,-0.059,-0.734,16.3,-4.8,27.2,1023,2018,5,1,22,11,15.929,-0.8304,0.2568,-0.4865,0.087
-1.04,0.056,-0.563,29.6,-26.8,38.5,1023,2018,5,1,22,11,15.952,-0.8313,0.262,-0.4818,0.0893
-0.207,0.375,-0.327,32.3,-59.5,55.8,1023,2018,5,1,22,11,15.972,-0.8312,0.2729,-0.4757,0.091
0.844,0.66,0.006,28.3,-76.6,61,1023,2018,5,1,22,11,15.99,-0.8292,0.2886,-0.4695,0.0924
1.648,0.775,0.364,25.4,-67.6,38.7,0,2018,5,1,22,11,16.011,-0.8267,0.304,-0.4641,0.0922
2.026,0.752,0.688,18.4,-20.2,-0.7,0,2018,5,1,22,11,16.032,-0.8259,0.3124,-0.4606,0.0898
1.678,0.646,0.717,5.7,19.1,-37.8,0,2018,5,1,22,11,16.053,-0.8274,0.3103,-0.4599,0.0865
1.081,0.409,0.329,-11.8,24.9,-60.6,0,2018,5,1,22,11,16.09,-0.8291,0.3029,-0.4627,0.0809
0.411,0.103,0.059,-25.3,29.1,-65.9,0,2018,5,1,22,11,16.111,-0.8299,0.2932,-0.4685,0.0749
-0.413,-0.219,-0.181,-31.8,13.7,-67.5,0,2018,5,1,22,11,16.115,-0.8293,0.2841,-0.476,0.0686
-1.139,-0.169,-0.56,-29.7,-15.4,-59,0,2018,5,1,22,11,16.128,-0.8273,0.2787,-0.4838,0.0606
-1.418,0.109,-0.628,-17,-38.4,-39.2,0,2018,5,1,22,11,16.167,-0.8244,0.2783,-0.4898,0.0524
-1.166,0.536,-0.566,-0.9,-49,-4.3,0,2018,5,1,22,11,16.186,-0.8216,0.2829,-0.4926,0.0457
-0.796,0.929,-0.359,16.7,-25.2,45.7,0,2018,5,1,22,11,16.19,-0.8203,0.2904,-0.4906,0.0448
-0.317,1.222,-0.12,29.8,9.4,103.1,0,2018,5,1,22,11,16.211,-0.8213,0.2981,-0.4833,0.0539
0.551,1.254,0.049,40,37.6,143.6,0,2018,5,1,22,11,16.231,-0.8243,0.3051,-0.4712,0.0723
1.256,1.064,0.226,52.7,6,152.2,0,2018,5,1,22,11,16.268,-0.8274,0.3142,-0.4558,0.0933
1.422,0.542,0.516,52.8,-41.3,130.7,0,2018,5,1,22,11,16.288,-0.828,0.3293,-0.4404,0.1094
1.385,-0.476,0.609,36.2,-24.6,77.9,0,2018,5,1,22,11,16.292,-0.8269,0.3442,-0.4284,0.1187
1.215,-0.778,0.727,12,52,1.7,0,2018,5,1,22,11,16.309,-0.8288,0.3452,-0.4223,0.1241
1.053,-0.6,0.638,-14.9,86.7,-67.1,0,2018,5,1,22,11,16.329,-0.8337,0.3319,-0.4233,0.1247
0.732,-0.226,0.437,-33.8,77.3,-116.6,0,2018,5,1,22,11,16.348,-0.8386,0.3118,-0.4304,0.1187
0.217,0.169,0.106,-50.7,23.6,-136.1,1023,2018,5,1,22,11,16.37,-0.8407,0.2934,-0.4425,0.106
-0.356,0.384,-0.32,-64.2,-29.8,-129.9,1023,2018,5,1,22,11,16.39,-0.838,0.283,-0.458,0.0884
-0.863,0.498,-0.849,-61.1,-47.7,-101.1,1023,2018,5,1,22,11,16.412,-0.8322,0.279,-0.4735,0.0714
-1.038,0.65,-0.831,-42.2,-23.4,-70.9,1023,2018,5,1,22,11,16.433,-0.8271,0.2764,-0.4858,0.0584
-0.993,0.77,-1,-16.8,1.8,-28.2,1023,2018,5,1,22,11,16.453,-0.8244,0.2738,-0.4926,0.0517
-0.657,0.907,-0.931,21.9,30.8,21.6,1023,2018,5,1,22,11,16.49,-0.8255,0.271,-0.492,0.0528
-0.084,0.937,-0.506,59.2,77.2,59.8,1023,2018,5,1,22,11,16.51,-0.8312,0.2674,-0.4834,0.0618
0.489,0.931,-0.008,86.4,95.9,68.5,1023,2018,5,1,22,11,16.514,-0.8408,0.2605,-0.4684,0.0757
0.836,0.946,0.462,98.1,34.9,65.5,1023,2018,5,1,22,11,16.551,-0.8506,0.2567,-0.4503,0.087
1.052,0.595,0.726,86.5,-48.4,54.2,1023,2018,5,1,22,11,16.571,-0.8564,0.2646,-0.4337,0.0906
1.098,0.129,0.72,54.7,-51.6,32.4,1023,2018,5,1,22,11,16.575,-0.8583,0.2775,-0.4221,0.0894
0.893,0.047,0.576,18.3,-82.6,2.1,1023,2018,5,1,22,11,16.598,-0.8576,0.2883,-0.4169,0.0857
0.529,0.103,0.504,-7.6,-189.1,-24.9,0,2018,5,1,22,11,16.618,-0.8511,0.3076,-0.4188,0.0737
0.086,-0.232,0.054,-36.3,-205.1,-46.6,0,2018,5,1,22,11,16.632,-0.8376,0.3364,-0.4268,0.0541
-0.245,-0.266,-0.337,-37.1,-53.9,-66.3,0,2018,5,1,22,11,16.671,-0.8271,0.3512,-0.437,0.0382
-0.276,-0.081,-0.671,-21.8,109.1,-79.6,0,2018,5,1,22,11,16.692,-0.8273,0.3402,-0.4457,0.0324
-0.291,0.425,-0.507,7.9,147.3,-84.9,0,2018,5,1,22,11,16.696,-0.8354,0.3128,-0.4506,0.032
-0.142,0.776,-0.283,30,85.3,-76.7,0,2018,5,1,22,11,16.732,-0.8437,0.2893,-0.4512,0.0282
0.002,0.637,-0.147,38.2,85.6,-67.2,0,2018,5,1,22,11,16.755,-0.8504,0.2726,-0.4492,0.022
0.172,1.256,0.18,37.8,68,-49,0,2018,5,1,22,11,16.759,-0.8579,0.2548,-0.4457,0.0185
0.354,1.185,0.299,18.1,-0.2,-22.1,0,2018,5,1,22,11,16.777,-0.8613,0.2476,-0.4432,0.0146
0.377,0.812,0.155,-0.1,-40.5,-1,0,2018,5,1,22,11,16.797,-0.8608,0.2511,-0.4425,0.0105
0.303,0.399,-0.129,-12,-18.4,5.6,0,2018,5,1,22,11,16.814,-0.8587,0.2568,-0.4433,0.0085
0.209,0.349,-0.167,-4,45.9,5.6,0,2018,5,1,22,11,16.833,-0.8588,0.2544,-0.4444,0.0113
0.147,0.351,-0.521,22,55.3,6.8,0,2018,5,1,22,11,16.853,-0.8618,0.2468,-0.4428,0.016
0.09,0.07,-0.684,59.3,95.1,3.3,0,2018,5,1,22,11,16.874,-0.868,0.2362,-0.436,0.0209
0.059,0.035,-0.478,79.3,112.6,-10.3,0,2018,5,1,22,11,16.913,-0.8776,0.2205,-0.4247,0.0252
0.076,0.245,-0.045,73.1,140.3,-30.8,0,2018,5,1,22,11,16.932,-0.8882,0.199,-0.4129,0.0284
0.129,0.686,0.097,54.7,71.2,-35.2,0,2018,5,1,22,11,16.937,-0.8966,0.1797,-0.4035,0.0285
0.236,0.976,0.245,29.8,-38.8,-24.9,0,2018,5,1,22,11,16.958,-0.9003,0.1752,-0.3976,0.0233
0.3,0.874,0.267,-6,-130.9,-5.3,0,2018,5,1,22,11,16.978,-0.8981,0.1889,-0.3967,0.0142
0.224,0.61,0.074,-35.2,-157.9,4.1,0,2018,5,1,22,11,16.997,-0.8914,0.2122,-0.4003,0.0045
0.057,0.355,-0.013,-61.5,-122.5,5.7,0,2018,5,1,22,11,17.034,-0.8822,0.2349,-0.4079,-0.0028
0.086,-0.223,-0.693,-53.1,20.6,-17,0,2018,5,1,22,11,17.062,-0.8752,0.2436,-0.4177,-0.0052
0.024,0.039,-0.905,-0.1,137.3,-37.4,0,2018,5,1,22,11,17.075,-0.8772,0.2268,-0.423,-0.0015
0.047,0.24,-0.73,47,128.9,-51,1023,2018,5,1,22,11,17.077,-0.8842,0.2028,-0.4207,0.0004
0.035,0.581,-0.232,68.3,120.1,-58.3,1023,2018,5,1,22,11,17.093,-0.8929,0.1792,-0.413,-0.0012
0.089,1.017,0.183,58.8,52.6,-45.7,1023,2018,5,1,22,11,17.114,-0.9002,0.1611,-0.4044,-0.0052
0.155,1.023,0.41,29.5,-20.2,-21.1,1023,2018,5,1,22,11,17.154,-0.9036,0.157,-0.3983,-0.011
0.206,0.98,0.519,-5.1,-78.2,1.2,1023,2018,5,1,22,11,17.175,-0.903,0.1643,-0.3966,-0.0162
0.202,0.803,0.405,-35.2,-143.4,15.5,1023,2018,5,1,22,11,17.179,-0.8981,0.1827,-0.3993,-0.0221
0.114,0.322,0.079,-55.7,-169.8,14.4,1023,2018,5,1,22,11,17.198,-0.8893,0.2097,-0.4052,-0.0299
0.105,0.045,-0.303,-58.6,-91.3,1.5,1023,2018,5,1,22,11,17.22,-0.8798,0.2316,-0.4133,-0.0357
0.09,0.112,-0.638,-28.5,13.9,-15,1023,2018,5,1,22,11,17.239,-0.8751,0.2366,-0.4203,-0.0375
0.048,0.187,-0.788,16.2,55.7,-22.1,1023,2018,5,1,22,11,17.261,-0.8763,0.2289,-0.4222,-0.037
0.058,0.497,-0.555,56.8,57.3,-28.9,1023,2018,5,1,22,11,17.28,-0.8813,0.2177,-0.4176,-0.0383
0.027,0.661,0.037,65,58.8,-23.5,1023,2018,5,1,22,11,17.299,-0.8878,0.2063,-0.4092,-0.0404
0.089,0.927,0.437,44.2,23.1,-8.9,1023,2018,5,1,22,11,17.338,-0.8932,0.1982,-0.4013,-0.0419
0.205,1.005,0.611,8.8,-11.5,7.8,0,2018,5,1,22,11,17.342,-0.8952,0.1969,-0.3972,-0.0427
0.191,0.917,0.581,-37.7,-62,24.9,0,2018,5,1,22,11,17.359,-0.893,0.2041,-0.3987,-0.0422
0.108,0.539,0.35,-80.6,-103.5,32.5,0,2018,5,1,22,11,17.397,-0.8857,0.2202,-0.4065,-0.0417
0.063,0.119,-0.224,-92.7,-70.6,21.2,0,2018,5,1,22,11,17.417,-0.8756,0.2376,-0.4184,-0.0407
0.083,-0.036,-0.774,-58.5,55.5,2.4,0,2018,5,1,22,11,17.421,-0.8696,0.2397,-0.43,-0.0362
0.065,0.219,-1.033,6.4,100.8,-10.3,0,2018,5,1,22,11,17.44,-0.8713,0.2258,-0.4345,-0.029
0.041,0.337,-0.809,64.6,88.8,-18.4,0,2018,5,1,22,11,17.475,-0.8778,0.2104,-0.4295,-0.0258
-0.007,0.693,-0.053,83.9,68.2,-19.2,0,2018,5,1,22,11,17.495,-0.8865,0.1958,-0.4183,-0.0258
0.029,0.819,0.368,63.4,28.3,-7.3,0,2018,5,1,22,11,17.502,-0.8934,0.1873,-0.4073,-0.0272
0.077,0.905,0.537,27.5,-1.2,9.1,0,2018,5,1,22,11,17.539,-0.8971,0.185,-0.4002,-0.0278
0.12,0.965,0.566,-15.9,-67.7,27.5,0,2018,5,1,22,11,17.558,-0.8965,0.1914,-0.3986,-0.0274
0.114,0.623,0.389,-56.1,-117,40.7,0,2018,5,1,22,11,17.562,-0.8905,0.2096,-0.4028,-0.0277
0.108,0.157,-0.204,-76.6,-70,35.5,0,2018,5,1,22,11,17.581,-0.8818,0.2287,-0.4115,-0.0263
0.154,0.136,-0.715,-48.4,35.4,19.6,0,2018,5,1,22,11,17.6,-0.8767,0.2324,-0.4205,-0.0202
0.168,0.22,-1.025,6.8,47.7,8,0,2018,5,1,22,11,17.62,-0.8772,0.2261,-0.4231,-0.0141
0.117,0.308,-0.864,61.5,26.8,-0.7,0,2018,5,1,22,11,17.658,-0.8814,0.2204,-0.4174,-0.0124
0.071,0.389,-0.305,86.5,18,-7.4,0,2018,5,1,22,11,17.678,-0.8877,0.217,-0.4057,-0.0146
0.119,0.536,0.191,79.2,34.9,-11.4,0,2018,5,1,22,11,17.682,-0.8946,0.2119,-0.3929,-0.0173
0.175,0.839,0.569,48.1,10.7,-8.4,0,2018,5,1,22,11,17.702,-0.9,0.2065,-0.3831,-0.0196
0.26,0.854,0.661,3.6,-36.5,2.6,0,2018,5,1,22,11,17.722,-0.9011,0.2086,-0.3792,-0.0221
0.225,0.784,0.653,-42.9,-68.6,13.5,1023,2018,5,1,22,11,17.76,-0.8977,0.2178,-0.382,-0.0237
0.164,0.515,0.259,-79.6,-68.4,16.6,1023,2018,5,1,22,11,17.78,-0.8907,0.2304,-0.3911,-0.0236
0.17,0.35,-0.33,-82.8,-39.8,9.1,1023,2018,5,1,22,11,17.784,-0.8826,0.2401,-0.4034,-0.0221
0.144,0.163,-0.839,-51.3,6.5,1.3,1023,2018,5,1,22,11,17.818,-0.8769,0.2436,-0.4137,-0.0199
0.118,0.269,-0.973,9.7,50.3,-7,1023,2018,5,1,22,11,17.84,-0.8769,0.2381,-0.4169,-0.017
0.093,0.421,-0.827,67.5,42.3,-14.2,1023,2018,5,1,22,11,17.844,-0.8818,0.2298,-0.4112,-0.017
0.027,0.596,-0.122,92.8,32.4,-14.7,1023,2018,5,1,22,11,17.862,-0.8892,0.2228,-0.3989,-0.0201
0.044,0.725,0.403,75.9,34.5,-7,1023,2018,5,1,22,11,17.882,-0.8964,0.2166,-0.3858,-0.023
0.08,0.911,0.736,31.5,13.3,6.7,1023,2018,5,1,22,11,17.903,-0.901,0.2121,-0.3774,-0.0234
0.146,0.954,0.783,-25.4,-48.1,25.3,1023,2018,5,1,22,11,17.94,-0.9006,0.2157,-0.3764,-0.022
0.113,0.687,0.471,-75.7,-103.7,39.6,1023,2018,5,1,22,11,17.963,-0.894,0.2308,-0.3832,-0.02
0.112,0.206,-0.288,-95.7,-78.2,35.9,1023,2018,5,1,22,11,17.967,-0.8839,0.2493,-0.3951,-0.0172
0.16,0.17,-0.86,-57.6,27.6,23.3,1023,2018,5,1,22,11,17.985,-0.8774,0.2548,-0.4061,-0.0108
0.2,0.276,-1.182,13.6,63.2,14.1,0,2018,5,1,22,11,18.024,-0.8783,0.248,-0.4086,-0.0031
0.141,0.397,-0.82,76.6,37,9.1,0,2018,5,1,22,11,18.042,-0.8839,0.2411,-0.4005,0
0.099,0.482,0.008,91.9,44.4,3.7,0,2018,5,1,22,11,18.046,-0.8917,0.2354,-0.3864,0
0.12,0.74,0.528,61.1,26.9,7.2,0,2018,5,1,22,11,18.06,-0.8986,0.2295,-0.3738,0
0.175,0.832,0.685,7.8,-33.1,19.4,0,2018,5,1,22,11,18.1,-0.9007,0.2306,-0.368,0.0003
0.179,0.63,0.547,-42.6,-90,30,0,2018,5,1,22,11,18.12,-0.8968,0.2426,-0.3699,0.0007
0.209,0.285,0.081,-71,-69.7,26.4,0,2018,5,1,22,11,18.124,-0.889,0.2577,-0.3782,0.0025
0.257,0.126,-0.555,-52.6,-10.6,7.7,0,2018,5,1,22,11,18.162,-0.8828,0.265,-0.3877,0.0055
0.21,0.279,-0.798,-1.1,14.1,-4.2,0,2018,5,1,22,11,18.183,-0.8813,0.2641,-0.3917,0.0075
0.162,0.444,-0.439,39.6,19.5,-11.4,0,2018,5,1,22,11,18.187,-0.8836,0.2608,-0.3886,0.0064
0.173,0.61,0.114,39.5,10,-12.7,0,2018,5,1,22,11,18.207,-0.8873,0.2575,-0.3825,0.0035
0.206,0.746,0.475,5.4,-15.9,-3.8,0,2018,5,1,22,11,18.227,-0.8888,0.2572,-0.3792,0.0008
0.193,0.739,0.403,-36,-59,7.7,0,2018,5,1,22,11,18.247,-0.886,0.2631,-0.3817,-0.0005
0.177,0.412,0.054,-61.8,-74,13.3,0,2018,5,1,22,11,18.266,-0.8789,0.2754,-0.3892,-0.0013
0.227,0.184,-0.43,-40.8,-0.1,5,0,2018,5,1,22,11,18.283,-0.8733,0.2821,-0.3971,0
0.199,0.38,-0.55,12.2,56.3,-3.4,0,2018,5,1,22,11,18.323,-0.874,0.2768,-0.3992,0.0031
0.142,0.596,-0.168,46.5,59,-6.9,0,2018,5,1,22,11,18.343,-0.8793,0.267,-0.3942,0.0048
0.13,0.709,0.376,28.7,36.4,1.2,0,2018,5,1,22,11,18.347,-0.8843,0.2595,-0.388,0.0057
0.139,0.729,0.513,-17.2,-4.3,15.7,0,2018,5,1,22,11,18.366,-0.8854,0.2575,-0.3867,0.0077
0.142,0.527,0.193,-51.2,-54.9,22,0,2018,5,1,22,11,18.386,-0.8814,0.2635,-0.3916,0.0101
0.197,0.197,-0.305,-45.4,-66.7,11.9,0,2018,5,1,22,11,18.404,-0.8747,0.275,-0.3988,0.0104
0.231,0.154,-0.572,0.7,-10.2,-4.4,0,2018,5,1,22,11,18.444,-0.8712,0.2811,-0.4022,0.009
0.273,0.346,-0.356,42,37.8,-16.7,1023,2018,5,1,22,11,18.462,-0.8737,0.2778,-0.399,0.0072
0.218,0.629,0.188,46,49.8,-18.2,1023,2018,5,1,22,11,18.468,-0.8794,0.2692,-0.3923,0.0051
0.199,0.884,0.613,8.6,22.2,-5.7,1023,2018,5,1,22,11,18.488,-0.8832,0.2623,-0.3885,0.0047
0.206,0.846,0.477,-35.7,-33.2,10.1,1023,2018,5,1,22,11,18.507,-0.8819,0.2635,-0.3908,0.0052
0.169,0.554,-0.022,-61,-63.5,21.4,1023,2018,5,1,22,11,18.526,-0.8757,0.2731,-0.398,0.0063
0.189,0.183,-0.663,-36.9,-6.5,16.2,1023,2018,5,1,22,11,18.547,-0.87,0.2805,-0.4052,0.0091
0.174,0.263,-0.907,30.2,45.3,3.9,1023,2018,5,1,22,11,18.585,-0.871,0.2773,-0.405,0.0125
0.14,0.44,-0.526,85.9,62.9,-4.3,1023,2018,5,1,22,11,18.589,-0.8781,0.2689,-0.3954,0.0132
0.092,0.646,0.194,86.4,64.7,-2.3,1023,2018,5,1,22,11,18.607,-0.8872,0.2588,-0.3815,0.0128
0.112,0.932,0.691,37.5,22.5,13.5,1023,2018,5,1,22,11,18.628,-0.8936,0.2518,-0.3712,0.0138
0.171,0.938,0.66,-22.3,-57.9,35.2,1023,2018,5,1,22,11,18.648,-0.893,0.2563,-0.3693,0.0161
0.153,0.456,0.242,-68.4,-88,45.6,1023,2018,5,1,22,11,18.669,-0.8859,0.2719,-0.3752,0.0193
0.238,0.121,-0.416,-61.5,-30.5,31.6,1023,2018,5,1,22,11,18.688,-0.878,0.2838,-0.3843,0.0249
0.299,0.176,-0.809,-6.4,11.8,13,0,2018,5,1,22,11,18.725,-0.8754,0.2857,-0.3886,0.0295
0.255,0.338,-0.598,48.7,32.9,1.5,0,2018,5,1,22,11,18.745,-0.8782,0.2828,-0.3844,0.0309
0.18,0.495,-0.058,65,44.9,-1.9,0,2018,5,1,22,11,18.749,-0.8842,0.2769,-0.3748,0.0306
0.19,0.75,0.415,42.4,34,5.4,0,2018,5,1,22,11,18.785,-0.8898,0.2707,-0.3659,0.0307
0.221,0.741,0.512,3.6,-10.4,19.4,0,2018,5,1,22,11,18.806,-0.8917,0.2698,-0.3618,0.0321
0.22,0.602,0.294,-24.2,-39.3,28.9,0,2018,5,1,22,11,18.81,-0.8895,0.2757,-0.3626,0.0347
0.259,0.296,-0.06,-29.6,-17.5,28.8,0,2018,5,1,22,11,18.827,-0.8858,0.2826,-0.366,0.0385
0.303,0.212,-0.21,-3.7,39,19.1,0,2018,5,1,22,11,18.85,-0.8851,0.2821,-0.3673,0.0436
0.305,0.181,-0.185,26.7,89.2,5.7,0,2018,5,1,22,11,18.868,-0.8891,0.2726,-0.3641,0.0489
0.174,0.108,0.2,31,110.6,-11.8,0,2018,5,1,22,11,18.909,-0.896,0.2564,-0.3583,0.0535
0.207,0.302,0.453,6.5,89.3,-26.1,0,2018,5,1,22,11,18.93,-0.902,0.239,-0.355,0.0556
0.234,0.464,0.387,-30.2,41.1,-29.9,0,2018,5,1,22,11,18.934,-0.9041,0.227,-0.3576,0.0552
0.264,0.644,0.058,-47.1,-19.4,-25.9,0,2018,5,1,22,11,18.952,-0.9023,0.2232,-0.3649,0.0527
0.362,0.452,-0.322,-39.5,-5.7,-23,0,2018,5,1,22,11,18.971,-0.8987,0.2247,-0.3732,0.0488
0.349,0.491,-0.439,-0.7,72,-23.8,0,2018,5,1,22,11,19.011,-0.899,0.2174,-0.377,0.0481
0.21,0.259,-0.205,20,135.8,-34.3,0,2018,5,1,22,11,19.015,-0.9039,0.1986,-0.3752,0.0498
0.237,0.337,0.089,14,143,-42.3,0,2018,5,1,22,11,19.031,-0.9103,0.1735,-0.3721,0.0518
0.252,0.397,0.318,-13.8,128.3,-47.8,0,2018,5,1,22,11,19.051,-0.9146,0.1488,-0.3719,0.0532
0.239,0.585,0.137,-45.5,121,-48.9,0,2018,5,1,22,11,19.071,-0.9159,0.1257,-0.3771,0.0539
0.086,0.388,-0.171,-72.9,131.1,-48,0,2018,5,1,22,11,19.092,-0.9149,0.1019,-0.3864,0.0553
0.085,0.451,-0.403,-79.2,138.7,-43.2,1023,2018,5,1,22,11,19.112,-0.9123,0.0758,-0.3981,0.0583
0.062,0.254,-0.663,-63.5,112.8,-44.6,1023,2018,5,1,22,11,19.151,-0.909,0.0519,-0.409,0.0607
0.033,0.081,-0.837,-26.5,80.2,-56.9,1023,2018,5,1,22,11,19.155,-0.907,0.0328,-0.4154,0.0595
0.034,0.37,-0.973,14,71.5,-64.9,1023,2018,5,1,22,11,19.173,-0.9076,0.0163,-0.4159,0.0545
-0.023,0.468,-0.697,41.2,51.5,-66.8,1023,2018,5,1,22,11,19.211,-0.9106,0.0018,-0.4104,0.0479
0.08,0.657,-0.233,41.1,23.4,-58.2,1023,2018,5,1,22,11,19.214,-0.9141,-0.0082,-0.4031,0.0402
0.091,0.662,-0.106,24.2,9.7,-48.9,1023,2018,5,1,22,11,19.235,-0.9168,-0.0142,-0.3977,0.0325
0.072,0.625,-0.059,0.2,6.4,-36.3,1023,2018,5,1,22,11,19.255,-0.9178,-0.018,-0.3955,0.026
0.111,0.467,-0.093,-26.9,31.4,-27.6,1023,2018,5,1,22,11,19.275,-0.9169,-0.0231,-0.3976,0.022
0.099,0.481,-0.181,-45.1,55.8,-21.9,1023,2018,5,1,22,11,19.292,-0.9142,-0.0323,-0.4033,0.021
0.09,0.521,-0.323,-51.2,49,-19.8,1023,2018,5,1,22,11,19.311,-0.9104,-0.0427,-0.4108,0.0213
0.152,0.428,-0.573,-38.4,22.3,-23,0,2018,5,1,22,11,19.333,-0.9068,-0.0501,-0.4179,0.0201
0.148,0.346,-0.819,-5.4,2.5,-30.2,0,2018,5,1,22,11,19.372,-0.9052,-0.0537,-0.4212,0.0164
0.103,0.437,-0.678,29.2,-4.5,-36.2,0,2018,5,1,22,11,19.392,-0.9063,-0.0558,-0.4187,0.011
0.045,0.641,-0.421,49,-17.8,-34.1,0,2018,5,1,22,11,19.397,-0.9094,-0.0566,-0.4118,0.005
-0.002,0.643,-0.027,45.3,-23.1,-23.8,0,2018,5,1,22,11,19.416,-0.9132,-0.055,-0.4036,-0.001
-0.019,0.746,0.32,13.5,-5.7,-6.1,0,2018,5,1,22,11,19.436,-0.9155,-0.0539,-0.3985,-0.0041
0.006,0.539,0.078,-35.7,21.2,18.1,0,2018,5,1,22,11,19.455,-0.9146,-0.054,-0.4006,-0.0029
-0.029,0.435,-0.405,-63.8,72.9,37.5,0,2018,5,1,22,11,19.494,-0.9103,-0.0601,-0.4094,0.0047
0.013,0.332,-0.657,-63.7,68.7,47.4,0,2018,5,1,22,11,19.514,-0.9045,-0.0692,-0.4203,0.0165
0.135,-0.126,-1.181,-15.7,9,25,0,2018,5,1,22,11,19.518,-0.9007,-0.0726,-0.4275,0.0249
0.074,-0.132,-2.298,82.3,-54.1,-16.7,0,2018,5,1,22,11,19.533,-0.9035,-0.068,-0.4222,0.0237
-0.086,0.185,-0.947,159,-65.3,-49.4,0,2018,5,1,22,11,19.553,-0.9137,-0.0602,-0.4016,0.0149
-0.106,0.623,0.214,155.6,-97.3,-48.7,0,2018,5,1,22,11,19.575,-0.9257,-0.0507,-0.3748,0.0026
-0.09,0.854,0.808,92.8,-82.1,-22.3,0,2018,5,1,22,11,19.594,-0.9344,-0.0377,-0.354,-0.0081
0.033,0.837,0.765,8.1,-23,8.8,0,2018,5,1,22,11,19.631,-0.9376,-0.0291,-0.346,-0.0121
0.145,0.676,0.21,-54.2,65.3,34.1,0,2018,5,1,22,11,19.65,-0.9359,-0.0316,-0.3507,-0.0072
0.174,0.496,-0.398,-72,110.6,49,0,2018,5,1,22,11,19.654,-0.9311,-0.0441,-0.3619,0.005
0.224,0.324,-0.498,-62.7,98.8,35.8,0,2018,5,1,22,11,19.693,-0.9255,-0.0594,-0.3734,0.0187
0.196,-0.002,-0.996,-16.8,21.6,7.1,0,2018,5,1,22,11,19.714,-0.922,-0.068,-0.3801,0.0256
0.167,-0.044,-1.414,53.1,-27.4,-24.1,0,2018,5,1,22,11,19.718,-0.9234,-0.0669,-0.377,0.0237
0.069,0.238,-0.855,104.6,-50.1,-47.4,0,2018,5,1,22,11,19.734,-0.9294,-0.0627,-0.3631,0.0159
0.037,0.516,-0.224,112,-79.9,-47.7,0,2018,5,1,22,11,19.77,-0.937,-0.0554,-0.3446,0.005
-0.016,0.471,0.109,83.9,-86.8,-33.6,1023,2018,5,1,22,11,19.789,-0.9436,-0.0426,-0.328,-0.0067
-0.017,0.592,0.287,40.3,-30.3,-20.4,1023,2018,5,1,22,11,19.796,-0.9475,-0.0348,-0.3175,-0.014
0.016,0.741,0.207,-5,30.1,-1.4,1023,2018,5,1,22,11,19.816,-0.9483,-0.0358,-0.3148,-0.0156
0.031,0.714,0.01,-44.7,57.9,20.3,1023,2018,5,1,22,11,19.835,-0.9465,-0.0431,-0.3194,-0.0118
0.04,0.462,-0.257,-69.3,63.3,33.2,1023,2018,5,1,22,11,19.858,-0.9427,-0.0515,-0.3295,-0.0043
0.058,0.193,-0.465,-74,71.8,28.6,1023,2018,5,1,22,11,19.876,-0.9377,-0.0609,-0.3419,0.0042
0.175,0.229,-0.811,-47.2,42.5,12.3,1023,2018,5,1,22,11,19.914,-0.9331,-0.0698,-0.3525,0.0106
0.193,0.166,-1.217,12,-30.4,-7.7,1023,2018,5,1,22,11,19.934,-0.932,-0.0701,-0.3554,0.0109
0.129,0.172,-0.867,66.2,-50.2,-32.5,0,2018,5,1,22,11,19.938,-0.9352,-0.0642,-0.3481,0.0051
0.07,0.439,-0.067,72.4,-54.6,-39.1,0,2018,5,1,22,11,19.977,-0.9401,-0.0579,-0.3356,-0.0033
0.035,0.651,0.372,36,-53.4,-29.9,0,2018,5,1,22,11,19.997,-0.9438,-0.051,-0.326,-0.012
-0.008,0.811,0.388,-13.8,-33.4,-12.4,0,2018,5,1,22,11,20.002,-0.9447,-0.0449,-0.3241,-0.018
0.011,0.723,0.101,-58.5,15.3,8,0,2018,5,1,22,11,20.016,-0.9426,-0.0432,-0.3304,-0.0192
0.033,0.567,-0.212,-89.1,71.1,26.7,0,2018,5,1,22,11,20.053,-0.9378,-0.0493,-0.3431,-0.0141
0.095,0.521,-0.543,-93.7,93.3,38.6,0,2018,5,1,22,11,20.073,-0.9313,-0.0614,-0.359,-0.0041
0.187,0.246,-0.887,-64.1,52.5,34.1,0,2018,5,1,22,11,20.077,-0.9251,-0.0713,-0.3726,0.0059
0.24,-0.033,-1.403,9.2,-10.1,6.9,0,2018,5,1,22,11,20.1,-0.923,-0.073,-0.3775,0.0103
0.098,0.083,-1.286,92.8,-46.5,-28.5,0,2018,5,1,22,11,20.12,-0.927,-0.0685,-0.3686,0.007
-0.009,0.511,-0.376,132.7,-86.5,-45.7,0,2018,5,1,22,11,20.158,-0.9352,-0.0606,-0.3488,-0.0021
-0.061,0.56,0.429,103.3,-103.4,-35,0,2018,5,1,22,11,20.176,-0.9433,-0.0463,-0.3282,-0.0138
-0.056,0.711,0.723,31.2,-49,-12.1,0,2018,5,1,22,11,20.18,-0.9476,-0.035,-0.3166,-0.0219
-0.021,0.824,0.567,-44.1,22.5,17.1,0,2018,5,1,22,11,20.197,-0.9471,-0.0331,-0.3181,-0.0224
-0.006,0.76,0.108,-99.5,80.1,45.9,0,2018,5,1,22,11,20.215,-0.9426,-0.0401,-0.331,-0.0148
0.027,0.473,-0.514,-115.7,89.8,62.3,0,2018,5,1,22,11,20.237,-0.9353,-0.0514,-0.35,-0.0015
0.174,0.017,-1.052,-79.7,69.7,46.3,0,2018,5,1,22,11,20.274,-0.9281,-0.0611,-0.367,0.0117
0.303,-0.095,-1.497,4,20,6.7,0,2018,5,1,22,11,20.295,-0.925,-0.0668,-0.3734,0.0186
0.148,0.225,-1.403,100.1,-50.2,-30.2,0,2018,5,1,22,11,20.299,-0.9288,-0.065,-0.3642,0.0159
-0.01,0.441,-0.493,145.6,-102,-46.7,0,2018,5,1,22,11,20.318,-0.9378,-0.0541,-0.3426,0.0056
-0.071,0.571,0.491,113.1,-98.3,-37.9,0,2018,5,1,22,11,20.358,-0.9464,-0.0399,-0.3202,-0.0064
-0.052,0.752,0.978,30.3,-53.5,-8.8,1023,2018,5,1,22,11,20.38,-0.9507,-0.0283,-0.3081,-0.0149
0.002,0.826,0.729,-58,9.5,22.9,1023,2018,5,1,22,11,20.384,-0.9499,-0.0246,-0.3109,-0.0154
0.019,0.681,0.176,-119.5,63.6,49.9,1023,2018,5,1,22,11,20.402,-0.9446,-0.0289,-0.3266,-0.0077
0.104,0.552,-0.482,-136.9,84.6,63.7,1023,2018,5,1,22,11,20.421,-0.9363,-0.0385,-0.3489,0.0056
0.16,0.29,-1.221,-96.1,50.1,58.8,1023,2018,5,1,22,11,20.458,-0.9281,-0.0462,-0.3687,0.0193
0.249,-0.002,-1.637,-10.4,14,30,1023,2018,5,1,22,11,20.463,-0.9242,-0.0482,-0.3776,0.0281
0.187,0.128,-1.443,84.3,-29.8,-3.8,1023,2018,5,1,22,11,20.48,-0.9269,-0.0461,-0.3712,0.0299
0.032,0.279,-0.657,141.6,-78.1,-27.1,1023,2018,5,1,22,11,20.499,-0.9349,-0.0376,-0.352,0.0246
-0.069,0.197,0.384,123.9,-85.5,-32.1,1023,2018,5,1,22,11,20.519,-0.9436,-0.0245,-0.3296,0.0148
-0.054,0.611,0.799,59,-36.7,-18.3,1023,2018,5,1,22,11,20.543,-0.9491,-0.0159,-0.3144,0.007
0.019,0.882,0.761,-16.2,-10.2,7.5,1023,2018,5,1,22,11,20.561,-0.9502,-0.0128,-0.3112,0.0048
0.071,0.778,0.397,-76.2,4.9,32.8,1023,2018,5,1,22,11,20.6,-0.9474,-0.0115,-0.3194,0.0076
0.058,0.565,-0.083,-113.9,25.8,48.6,1023,2018,5,1,22,11,20.619,-0.9417,-0.0121,-0.3358,0.0154
0.1,0.372,-0.694,-110.7,26.5,47.7,1023,2018,5,1,22,11,20.623,-0.9344,-0.0141,-0.3548,0.0249
0.191,0.175,-1.264,-60.9,8.3,30.4,0,2018,5,1,22,11,20.662,-0.9286,-0.0149,-0.3692,0.0321
0.262,0.259,-1.461,21.1,-18.1,6.7,0,2018,5,1,22,11,20.681,-0.9273,-0.0132,-0.3724,0.0346
0.182,0.351,-1.168,97.3,-68.8,-11.4,0,2018,5,1,22,11,20.685,-0.9314,-0.0062,-0.3624,0.0313
0.033,0.222,-0.445,125.2,-84.3,-18.3,0,2018,5,1,22,11,20.703,-0.9387,0.0072,-0.3437,0.0227
-0.029,0.483,0.24,102,-36.3,-14.9,0,2018,5,1,22,11,20.721,-0.9455,0.0165,-0.3247,0.0158
-0.002,0.842,0.659,45.5,-3.7,4.7,0,2018,5,1,22,11,20.758,-0.9496,0.019,-0.3125,0.0137
0.081,0.999,0.666,-19.2,-9.5,34.2,0,2018,5,1,22,11,20.777,-0.9501,0.0207,-0.3105,0.0165
0.093,0.807,0.365,-76.3,-16.3,61.3,0,2018,5,1,22,11,20.781,-0.9471,0.0255,-0.3188,0.0238
0.071,0.506,-0.206,-109.1,-18.4,74.1,0,2018,5,1,22,11,20.821,-0.9412,0.032,-0.3344,0.0347
0.132,0.238,-0.775,-100.5,-16.5,67.5,0,2018,5,1,22,11,20.84,-0.9341,0.0383,-0.3518,0.0458
0.248,-0.06,-1.265,-48.5,-11.1,41.3,0,2018,5,1,22,11,20.845,-0.9287,0.0433,-0.364,0.054
0.281,-0.016,-1.484,35.8,-12.1,7.7,0,2018,5,1,22,11,20.866,-0.9281,0.0463,-0.3648,0.0566
0.157,0.264,-1.134,107.5,-39.7,-16,0,2018,5,1,22,11,20.885,-0.9328,0.0507,-0.3527,0.0533
0.076,0.329,-0.341,131.8,-57.1,-29.6,0,2018,5,1,22,11,20.923,-0.94,0.0588,-0.3328,0.0448
0.027,0.51,0.413,100.1,-22.7,-27.6,0,2018,5,1,22,11,20.943,-0.9465,0.0649,-0.3139,0.0357
0.029,1.058,0.864,32.7,8.7,-0.5,0,2018,5,1,22,11,20.947,-0.9502,0.0646,-0.303,0.0317
0.124,1.336,0.761,-44.1,-18.3,43.8,0,2018,5,1,22,11,20.963,-0.9496,0.0659,-0.3041,0.0347
0.193,0.946,0.322,-108.1,-53.7,81.3,0,2018,5,1,22,11,20.982,-0.9444,0.0755,-0.3168,0.0441
0.235,0.413,-0.448,-125.4,-50.9,86.3,0,2018,5,1,22,11,21.022,-0.9359,0.0882,-0.336,0.0569
0.344,-0.034,-0.91,-93.4,-12.4,61.4,1023,2018,5,1,22,11,21.026,-0.9278,0.0966,-0.3536,0.0686
0.302,-0.179,-1.125,-22.6,5.2,21.9,1023,2018,5,1,22,11,21.043,-0.9237,0.0984,-0.3622,0.0758
0.254,-0.101,-1.271,55.1,6.1,-15.1,1023,2018,5,1,22,11,21.083,-0.9251,0.0976,-0.359,0.0756
0.142,-0.046,-0.656,106.7,0.8,-48,1023,2018,5,1,22,11,21.105,-0.9309,0.0957,-0.3456,0.0688
0.11,0.481,0.294,102.6,14.1,-57.4,1023,2018,5,1,22,11,21.109,-0.9381,0.0928,-0.3286,0.0576
0.123,0.989,0.696,55.2,22,-41.9,1023,2018,5,1,22,11,21.127,-0.9434,0.087,-0.3161,0.0488
0.158,1.34,0.751,-4.9,-25.1,-3.3,1023,2018,5,1,22,11,21.147,-0.9449,0.0856,-0.3126,0.0444
0.22,1.08,0.625,-61.6,-93.7,33.1,1023,2018,5,1,22,11,21.167,-0.9419,0.0966,-0.3186,0.0435
0.29,0.714,0.217,-100.9,-116.2,57.4,1023,2018,5,1,22,11,21.206,-0.9348,0.1163,-0.3323,0.0463
0.274,0.162,-0.436,-109,-104.5,44.7,1023,2018,5,1,22,11,21.224,-0.9253,0.1371,-0.3497,0.0504
0.316,-0.424,-1.056,-67.4,-11.9,5.7,1023,2018,5,1,22,11,21.227,-0.9177,0.1483,-0.3645,0.0525
0.21,0.018,-1.174,13.7,37.3,-31.3,1023,2018,5,1,22,11,21.244,-0.9172,0.142,-0.3683,0.0527
0.211,0.137,-0.869,66.9,-0.6,-54.1,0,2018,5,1,22,11,21.263,-0.9207,0.1376,-0.3621,0.0448
0.097,0.346,-0.271,88.7,42.9,-68.5,0,2018,5,1,22,11,21.305,-0.9267,0.1308,-0.3504,0.0339
0.063,0.984,0.271,74.5,32,-55.9,0,2018,5,1,22,11,21.326,-0.9331,0.1203,-0.3379,0.0239
0.122,1.246,0.418,42.5,-11.6,-26,0,2018,5,1,22,11,21.33,-0.9368,0.1166,-0.3291,0.0165
0.186,1.039,0.373,10.7,-17,4.1,0,2018,5,1,22,11,21.348,-0.9379,0.1193,-0.3253,0.0127
0.207,0.832,0.394,-14.6,-12,22.8,0,2018,5,1,22,11,21.368,-0.9375,0.1223,-0.3253,0.0139
0.279,0.636,0.204,-36.3,-8.9,33.8,0,2018,5,1,22,11,21.403,-0.9357,0.1253,-0.3291,0.0181
0.246,0.286,-0.23,-45.7,-30.1,29.1,0,2018,5,1,22,11,21.424,-0.9327,0.1303,-0.3352,0.0229
0.284,-0.207,-0.715,-24.4,-17.7,-2.2,0,2018,5,1,22,11,21.428,-0.9298,0.1356,-0.3411,0.0242
0.213,-0.395,-0.815,22.8,45.8,-49.7,0,2018,5,1,22,11,21.446,-0.9302,0.1315,-0.3418,0.0204
0.129,0.067,-0.696,66.2,80.4,-86.4,0,2018,5,1,22,11,21.465,-0.9347,0.1161,-0.3354,0.0119
0.015,0.588,-0.169,78.5,61.2,-100.2,0,2018,5,1,22,11,21.506,-0.9406,0.0986,-0.3247,-0.0011
-0.029,1.036,0.383,48.9,31.1,-80.8,0,2018,5,1,22,11,21.527,-0.9449,0.0857,-0.3154,-0.0149
0.014,1.365,0.68,-2.8,-19.6,-37.2,0,2018,5,1,22,11,21.531,-0.946,0.0812,-0.3125,-0.0252
0.033,1.281,0.624,-54.4,-72.3,11.3,0,2018,5,1,22,11,21.549,-0.9436,0.0889,-0.3173,-0.0298
0.115,0.82,0.234,-94.1,-77,39,0,2018,5,1,22,11,21.568,-0.9381,0.1037,-0.3291,-0.0284
0.179,0.358,-0.42,-97.7,-67,32.6,0,2018,5,1,22,11,21.606,-0.9311,0.1177,-0.3443,-0.0247
0.247,-0.172,-0.885,-66.2,-26,2.1,0,2018,5,1,22,11,21.627,-0.9248,0.1272,-0.3575,-0.0236
0.155,-0.277,-1.054,-6.2,16.2,-37.6,1023,2018,5,1,22,11,21.632,-0.9225,0.1264,-0.3635,-0.0258
0.077,0.06,-0.951,46.8,36.7,-72.5,1023,2018,5,1,22,11,21.651,-0.9244,0.1176,-0.3611,-0.0339
-0.034,0.423,-0.407,68.4,28.1,-87.4,1023,2018,5,1,22,11,21.692,-0.9283,0.1068,-0.353,-0.0467
-0.108,0.822,0.196,54.2,32.8,-77.2,1023,2018,5,1,22,11,21.696,-0.9319,0.0963,-0.3444,-0.0597
-0.108,1.261,0.488,22.2,31.3,-49.9,1023,2018,5,1,22,11,21.71,-0.934,0.0864,-0.3396,-0.0689
0.02,1.463,0.557,-18.8,-6.8,-5.5,1023,2018,5,1,22,11,21.73,-0.9339,0.0824,-0.34,-0.073
0.13,1.358,0.373,-61.1,-51.6,44.6,1023,2018,5,1,22,11,21.747,-0.9312,0.0894,-0.346,-0.071
0.073,0.979,0.087,-94.8,-76.7,78.1,1023,2018,5,1,22,11,21.786,-0.9259,0.1048,-0.3571,-0.0635
0.044,0.436,-0.545,-100.7,-91.3,75.8,1023,2018,5,1,22,11,21.806,-0.9185,0.1252,-0.3708,-0.0545
0.07,-0.209,-1.102,-64.8,-32.4,46.6,1023,2018,5,1,22,11,21.81,-0.912,0.1404,-0.3824,-0.0473
0.094,-0.357,-1.186,7.4,16.1,7.5,1023,2018,5,1,22,11,21.831,-0.9103,0.1427,-0.3861,-0.0428
0.044,-0.208,-1.128,77.3,15.2,-38,1023,2018,5,1,22,11,21.852,-0.9136,0.1384,-0.3794,-0.0453
-0.014,0.115,-0.599,119.2,14,-72.9,1023,2018,5,1,22,11,21.874,-0.9201,0.1317,-0.3644,-0.0562
-0.079,0.649,0.165,114.8,30.9,-80.9,0,2018,5,1,22,11,21.892,-0.9271,0.1218,-0.3471,-0.0704
-0.096,1.229,0.718,73.1,18.6,-56.6,0,2018,5,1,22,11,21.914,-0.9324,0.112,-0.3334,-0.0821
0.041,1.558,0.914,12.9,-20.9,-11.1,0,2018,5,1,22,11,21.933,-0.9344,0.1095,-0.3271,-0.0887
0.133,1.478,0.831,-49.3,-52.1,39.2,0,2018,5,1,22,11,21.952,-0.9327,0.1171,-0.3294,-0.0881
0.112,1.176,0.545,-101.9,-72.8,77.5,0,2018,5,1,22,11,21.973,-0.9276,0.132,-0.3398,-0.0805
0.034,0.737,-0.02,-128.4,-100.4,87.8,0,2018,5,1,22,11,22.008,-0.9194,0.1525,-0.3557,-0.0691
0.081,0.07,-0.691,-125,-102.5,67.2,0,2018,5,1,22,11,22.028,-0.909,0.1762,-0.3729,-0.0595
0.179,-0.388,-1.08,-76.5,-31.6,26.4,0,2018,5,1,22,11,22.032,-0.9003,0.1911,-0.3871,-0.0537
0.147,-0.405,-1.244,0.6,28.1,-20.3,0,2018,5,1,22,11,22.054,-0.898,0.191,-0.3927,-0.052
0.126,0.033,-1.099,72.4,43.7,-61.2,0,2018,5,1,22,11,22.078,-0.9016,0.1814,-0.3882,-0.0571
-0.026,0.446,-0.453,107.8,35.7,-78.6,0,2018,5,1,22,11,22.09,-0.9084,0.1695,-0.3759,-0.0687
-0.107,0.858,0.24,98.6,48.6,-69.4,0,2018,5,1,22,11,22.126,-0.9153,0.1569,-0.3617,-0.081
-0.144,1.23,0.7,58.1,59.5,-42.2,0,2018,5,1,22,11,22.146,-0.9209,0.1432,-0.3514,-0.0887
-0.042,1.539,0.852,6.4,28.7,0,0,2018,5,1,22,11,22.153,-0.9236,0.1338,-0.3477,-0.0898
0.014,1.424,0.79,-47.7,-20.1,48.2,0,2018,5,1,22,11,22.173,-0.9227,0.1353,-0.3506,-0.0854
-0.009,1.09,0.449,-92.4,-61.8,84.8,0,2018,5,1,22,11,22.192,-0.9181,0.1473,-0.3599,-0.0753
-0.001,0.601,-0.154,-113.2,-97.3,93,0,2018,5,1,22,11,22.209,-0.9102,0.1675,-0.3733,-0.0632
0.015,-0.059,-0.758,-99.8,-98.8,70.4,0,2018,5,1,22,11,22.23,-0.9006,0.1905,-0.3868,-0.0537
0.21,-0.507,-1.173,-38.8,-2.3,23.2,0,2018,5,1,22,11,22.268,-0.8942,0.2025,-0.3962,-0.0475
0.199,-0.313,-1.259,44.3,50.8,-26,0,2018,5,1,22,11,22.288,-0.8957,0.1972,-0.3957,-0.0461
0.172,0.143,-0.948,106.6,58.4,-61.5,0,2018,5,1,22,11,22.291,-0.9027,0.1844,-0.3852,-0.0521
0.076,0.574,-0.16,119.7,65,-72.4,1023,2018,5,1,22,11,22.338,-0.9116,0.169,-0.3693,-0.0627
-0.001,1.058,0.475,90.4,69.9,-58.6,1023,2018,5,1,22,11,22.35,-0.9195,0.1521,-0.355,-0.0718
0.01,1.529,0.889,37.8,20.1,-23.8,1023,2018,5,1,22,11,22.354,-0.9241,0.1411,-0.3463,-0.0774
0.068,1.419,0.943,-26.8,-36.5,21,1023,2018,5,1,22,11,22.394,-0.9241,0.1431,-0.3455,-0.0783
0.127,1.175,0.589,-82.4,-64.6,58.4,1023,2018,5,1,22,11,22.414,-0.9198,0.1545,-0.353,-0.0731
0.113,0.748,0.064,-109,-109.6,69.7,1023,2018,5,1,22,11,22.419,-0.9118,0.1739,-0.3659,-0.0651
0.103,0.083,-0.621,-100.6,-115.1,48.3,1023,2018,5,1,22,11,22.438,-0.9016,0.1984,-0.3795,-0.0601
0.142,-0.246,-0.936,-53.2,-17,12.4,1023,2018,5,1,22,11,22.454,-0.8942,0.2117,-0.3902,-0.057
0.118,-0.012,-1.047,11.6,40.4,-20.8,1023,2018,5,1,22,11,22.473,-0.8935,0.2084,-0.3936,-0.0557
0.128,0.365,-0.807,62.3,19.8,-41.7,1023,2018,5,1,22,11,22.496,-0.8972,0.2003,-0.3888,-0.0597
0.058,0.528,-0.204,76.3,0.5,-45.1,1023,2018,5,1,22,11,22.515,-0.9018,0.1957,-0.379,-0.0686
-0.014,0.839,0.376,55.7,8.1,-34,1023,2018,5,1,22,11,22.553,-0.9059,0.1913,-0.3698,-0.0768
0.017,1.084,0.606,17.8,-11.8,-12.5,1023,2018,5,1,22,11,22.573,-0.9079,0.1893,-0.3648,-0.0817
0.062,1.096,0.611,-21.6,-52,12.4,1023,2018,5,1,22,11,22.577,-0.9066,0.1945,-0.3648,-0.0834
0.054,0.731,0.373,-58,-77.7,30,0,2018,5,1,22,11,22.596,-0.9018,0.2078,-0.3695,-0.0826
0.094,0.394,-0.131,-68.6,-51.4,24.1,0,2018,5,1,22,11,22.618,-0.8954,0.2209,-0.3781,-0.0796
0.096,0.203,-0.513,-43.8,-14.9,5.9,0,2018,5,1,22,11,22.658,-0.8905,0.2278,-0.3861,-0.0772
0.077,0.252,-0.668,-1.5,7.6,-10.7,0,2018,5,1,22,11,22.678,-0.8888,0.2282,-0.3896,-0.0769
0.081,0.473,-0.437,33.6,13.9,-21.9,0,2018,5,1,22,11,22.682,-0.8903,0.2249,-0.3876,-0.0796
0.079,0.731,-0.047,45.4,7.6,-21.2,0,2018,5,1,22,11,22.7,-0.8933,0.2209,-0.3821,-0.0838
0.087,0.924,0.292,30.6,-12.4,-6.1,0,2018,5,1,22,11,22.717,-0.8957,0.2196,-0.3764,-0.0879
0.074,0.909,0.337,3.7,-40.2,13.7,0,2018,5,1,22,11,22.737,-0.8958,0.224,-0.3731,-0.0895
0.086,0.623,0.208,-17.1,-28.6,23.9,0,2018,5,1,22,11,22.757,-0.8941,0.2312,-0.3731,-0.0883
0.131,0.464,-0.087,-14.6,-11.3,17.5,0,2018,5,1,22,11,22.777,-0.8925,0.2358,-0.3748,-0.0855
0.115,0.407,-0.29,2.1,5.1,8.5,0,2018,5,1,22,11,22.797,-0.8921,0.2372,-0.3752,-0.0834
0.039,0.521,-0.26,16.6,12.3,4.7,0,2018,5,1,22,11,22.818,-0.8933,0.2359,-0.3734,-0.082
0,0.696,-0.131,19.2,-2.3,7.3,0,2018,5,1,22,11,22.84,-0.8949,0.235,-0.3705,-0.0812
-0.097,0.875,-0.052,12.7,-27.4,22.6,0,2018,5,1,22,11,22.86,-0.8955,0.2381,-0.367,-0.0808
-0.166,0.865,-0.063,2,-39.3,47.8,0,2018,5,1,22,11,22.88,-0.8949,0.2459,-0.364,-0.0779
-0.235,0.733,-0.169,0.9,-35.9,69.7,0,2018,5,1,22,11,22.9,-0.894,0.2557,-0.3607,-0.0711
-0.265,0.666,-0.286,8.4,-30.2,86.6,0,2018,5,1,22,11,22.916,-0.8938,0.2656,-0.3561,-0.061
-0.339,0.495,-0.326,18.6,-21.9,100.2,0,2018,5,1,22,11,22.954,-0.8942,0.2756,-0.3492,-0.0483
-0.199,0.47,-0.154,20.6,-13.7,108.5,1023,2018,5,1,22,11,22.974,-0.8954,0.2844,-0.3408,-0.0338
0.001,0.428,0.006,13.4,-0.1,114.1,1023,2018,5,1,22,11,22.98,-0.8965,0.2921,-0.3325,-0.0175
0.202,0.54,0.05,5.8,3.1,115.7,1023,2018,5,1,22,11,22.999,-0.8974,0.2981,-0.3251,0.0003
0.292,0.517,0.245,-1.9,-21.6,110.4,1023,2018,5,1,22,11,23.02,-0.8969,0.3057,-0.3189,0.0173
0.488,0.45,0.393,-17.2,-51.6,106,1023,2018,5,1,22,11,23.04,-0.8938,0.3179,-0.3145,0.0323
0.654,0.358,0.351,-33.4,-22.7,97.5,1023,2018,5,1,22,11,23.059,-0.8894,0.3294,-0.3131,0.0473
0.716,0.328,0.406,-41.7,9.7,81.2,1023,2018,5,1,22,11,23.095,-0.8862,0.3347,-0.314,0.0631
0.755,0.343,0.365,-42.8,27.2,60.5,1023,2018,5,1,22,11,23.115,-0.8842,0.3348,-0.316,0.0774
0.864,0.37,0.342,-44.9,34.9,43.9,1023,2018,5,1,22,11,23.122,-0.8829,0.3321,-0.3193,0.0895
0.855,0.36,0.318,-48.7,45.8,30,1023,2018,5,1,22,11,23.157,-0.882,0.3273,-0.3237,0.1001
0.827,0.38,0.269,-52.4,65.7,11.3,1023,2018,5,1,22,11,23.177,-0.882,0.3188,-0.3293,0.1091
0.875,0.349,0.159,-55.1,69.8,-8,1023,2018,5,1,22,11,23.181,-0.8826,0.3071,-0.3362,0.1163
0.95,0.286,-0.005,-58.2,50.4,-24.2,0,2018,5,1,22,11,23.203,-0.8828,0.2955,-0.3446,0.1203
1.002,-0.011,-0.266,-62.2,32.3,-46.7,0,2018,5,1,22,11,23.222,-0.8819,0.2861,-0.3548,0.12
0.712,-0.246,-0.327,-63.7,52,-81.3,0,2018,5,1,22,11,23.24,-0.8812,0.2746,-0.3668,0.1156
0.345,-0.127,-0.383,-55.7,68.9,-119.4,0,2018,5,1,22,11,23.259,-0.8823,0.2568,-0.3794,0.1068
-0.072,0.314,-0.477,-42.7,34.5,-137.7,0,2018,5,1,22,11,23.279,-0.8837,0.2385,-0.3919,0.0924
-0.406,0.702,-0.526,-25.7,-14.5,-125.3,0,2018,5,1,22,11,23.315,-0.8835,0.2277,-0.4025,0.0737
-0.598,0.962,-0.456,-9.7,-25,-93.5,0,2018,5,1,22,11,23.335,-0.8826,0.2234,-0.4098,0.0558
-0.659,1.171,-0.423,2.3,-5.5,-48.5,0,2018,5,1,22,11,23.338,-0.8823,0.2207,-0.4131,0.0439
-0.7,1.283,-0.328,15.5,10,5.1,0,2018,5,1,22,11,23.379,-0.8833,0.2186,-0.4125,0.0406
-0.669,1.177,-0.17,26.1,12.6,56.1,0,2018,5,1,22,11,23.4,-0.8851,0.2192,-0.4079,0.0457
-0.575,0.988,-0.038,30.7,14.2,98.8,0,2018,5,1,22,11,23.404,-0.8869,0.2232,-0.4002,0.0575
-0.301,0.676,0.021,31.1,27.8,124.8,0,2018,5,1,22,11,23.42,-0.8886,0.228,-0.3905,0.0751
0.451,0.327,0.002,26.5,21.2,131,0,2018,5,1,22,11,23.457,-0.8898,0.233,-0.3804,0.0957
1.293,-0.269,0.053,8.6,-4.5,111.3,0,2018,5,1,22,11,23.475,-0.8891,0.2402,-0.3722,0.1144
1.475,-0.894,0.216,-18.1,6.7,51.4,0,2018,5,1,22,11,23.48,-0.8869,0.2462,-0.3695,0.127
1.665,-0.924,0.271,-44.8,32.5,-43,0,2018,5,1,22,11,23.52,-0.8859,0.2418,-0.3737,0.1301
1.292,-0.469,0.092,-68.7,10.1,-122.3,0,2018,5,1,22,11,23.54,-0.885,0.2309,-0.3857,0.1203
0.556,0.181,-0.043,-79.1,-41.2,-162.6,0,2018,5,1,22,11,23.544,-0.8821,0.2217,-0.4035,0.0993
-0.247,0.732,-0.174,-73.5,-71.8,-161.3,1023,2018,5,1,22,11,23.564,-0.8766,0.2182,-0.4227,0.0722
-0.936,1.254,-0.159,-47.6,-37.3,-122.5,1023,2018,5,1,22,11,23.583,-0.8713,0.2155,-0.438,0.0481
-1.314,1.77,-0.221,-14.4,6.1,-56.9,1023,2018,5,1,22,11,23.623,-0.8692,0.2102,-0.446,0.0343
-1.177,1.923,-0.308,23.7,27.1,18.9,1023,2018,5,1,22,11,23.644,-0.8705,0.206,-0.4457,0.0325
-0.697,1.731,-0.313,56.5,24.2,96.6,1023,2018,5,1,22,11,23.648,-0.8744,0.2068,-0.4368,0.0419
0.131,1.111,-0.335,65.5,17.2,154.1,1023,2018,5,1,22,11,23.666,-0.8788,0.2139,-0.4221,0.0605
0.95,0.07,-0.142,48,8.3,160.3,1023,2018,5,1,22,11,23.684,-0.8816,0.2244,-0.4066,0.0838
1.671,-1.108,-0.049,14.2,18.6,99.6,1023,2018,5,1,22,11,23.701,-0.8819,0.2325,-0.3966,0.1037
1.802,-1.424,0.02,-6.2,6.9,-16.1,1023,2018,5,1,22,11,23.723,-0.8821,0.2328,-0.394,0.1111
1.285,-0.899,0.187,-24.7,-39.2,-139.5,1023,2018,5,1,22,11,23.745,-0.8819,0.2292,-0.4001,0.0977
0.5,-0.063,0.177,-40.4,-62.9,-207.7,1023,2018,5,1,22,11,23.765,-0.8799,0.2244,-0.4133,0.0673
-0.681,0.873,0.03,-43.7,-64.1,-197.6,1023,2018,5,1,22,11,23.803,-0.876,0.2185,-0.4286,0.0323
-1.286,1.578,-0.081,-32.7,-58.2,-130,1023,2018,5,1,22,11,23.822,-0.8712,0.2153,-0.441,0.0038
-1.317,1.798,-0.267,-14,-33.5,-40,1023,2018,5,1,22,11,23.826,-0.8675,0.216,-0.4477,-0.0114
-1.159,1.851,-0.405,14.8,-7.6,48.2,0,2018,5,1,22,11,23.847,-0.8668,0.2194,-0.4474,-0.0119
-0.931,1.619,-0.375,48.1,14.4,125.2,0,2018,5,1,22,11,23.867,-0.8696,0.2257,-0.4389,0.0005
-0.418,1.145,-0.256,70.3,13.9,180.7,0,2018,5,1,22,11,23.886,-0.8747,0.2351,-0.4231,0.0228
0.525,0.291,-0.142,68.8,10.9,194.9,0,2018,5,1,22,11,23.907,-0.8791,0.2477,-0.4039,0.0498
1.528,-0.623,0.045,50.6,16.4,150.6,0,2018,5,1,22,11,23.945,-0.8821,0.2584,-0.3865,0.0748
2.151,-1.357,0.119,21.1,15.2,51.7,0,2018,5,1,22,11,23.965,-0.8838,0.2632,-0.376,0.0899
1.815,-1.212,0.364,-6.3,-5.6,-78.3,0,2018,5,1,22,11,23.969,-0.8849,0.261,-0.3755,0.0873
0.988,-0.511,0.511,-38.2,-41.9,-180.1,0,2018,5,1,22,11,23.986,-0.884,0.2558,-0.3857,0.0652
-0.094,0.444,0.311,-61.6,-53.8,-206.6,0,2018,5,1,22,11,24.005,-0.88,0.249,-0.4029,0.0332
-0.978,1.253,0.096,-63.5,-58.4,-166.7,0,2018,5,1,22,11,24.044,-0.8736,0.2437,-0.4211,0.0028
-1.341,1.685,-0.079,-46.3,-52.4,-90.5,0,2018,5,1,22,11,24.066,-0.8668,0.2428,-0.4349,-0.0186
-1.214,1.761,-0.32,-20.1,-26.3,-4.1,0,2018,5,1,22,11,24.07,-0.8624,0.2456,-0.4417,-0.0272
-1.041,1.656,-0.368,15.2,5.3,75.4,0,2018,5,1,22,11,24.088,-0.862,0.25,-0.4402,-0.0222
-0.68,1.41,-0.351,47.2,27.4,143.5,0,2018,5,1,22,11,24.109,-0.8656,0.2557,-0.4303,-0.0058
0.243,0.877,-0.318,56,22.8,185.8,0,2018,5,1,22,11,24.13,-0.8707,0.2641,-0.4143,0.019
1.102,0.118,-0.244,55.1,30.3,180.8,0,2018,5,1,22,11,24.15,-0.8748,0.2739,-0.3968,0.0466
1.805,-1.023,0.11,32.7,34.2,109.2,0,2018,5,1,22,11,24.167,-0.8779,0.2796,-0.3824,0.0691
1.53,-1.355,0.421,7.3,52.4,-7.5,0,2018,5,1,22,11,24.186,-0.8808,0.2762,-0.3763,0.0788
0.991,-0.726,0.549,-26.3,-2.4,-123.1,0,2018,5,1,22,11,24.224,-0.8822,0.2671,-0.3811,0.0702
0.301,0.139,0.366,-51.3,-46.9,-178,0,2018,5,1,22,11,24.245,-0.8795,0.2607,-0.3953,0.0457
-0.435,0.913,0.139,-60.9,-40.5,-165.5,0,2018,5,1,22,11,24.249,-0.8743,0.2551,-0.4124,0.018
-0.8,1.545,-0.179,-49.9,-15.5,-108,0,2018,5,1,22,11,24.268,-0.8691,0.2492,-0.4272,-0.0024
-0.827,1.812,-0.4,-24.6,7,-28.5,1023,2018,5,1,22,11,24.288,-0.8661,0.2445,-0.4357,-0.0113
-0.801,1.789,-0.547,6.5,27.6,56.5,1023,2018,5,1,22,11,24.309,-0.8662,0.2432,-0.4363,-0.0073
-0.777,1.576,-0.502,38.6,33.1,131.9,1023,2018,5,1,22,11,24.33,-0.8696,0.2453,-0.4283,0.0089
-0.713,1.027,-0.364,56.5,50.2,189.9,1023,2018,5,1,22,11,24.349,-0.8742,0.2515,-0.4136,0.0348
-0.343,0.467,-0.147,60.2,47.3,216.4,1023,2018,5,1,22,11,24.372,-0.8789,0.2587,-0.3948,0.0672
0.386,-0.111,-0.079,50.6,37.4,208.2,1023,2018,5,1,22,11,24.39,-0.8814,0.2678,-0.3757,0.1003
1.249,-0.502,0.047,38,31.2,164.1,1023,2018,5,1,22,11,24.41,-0.8824,0.2751,-0.359,0.1291
1.632,-0.733,0.253,15.5,25.6,91,1023,2018,5,1,22,11,24.428,-0.8823,0.2793,-0.3481,0.1487
1.518,-0.735,0.532,-18.4,12.9,7.1,1023,2018,5,1,22,11,24.447,-0.8821,0.279,-0.3454,0.1569
1.153,-0.297,0.461,-50.7,-13.3,-64.1,1023,2018,5,1,22,11,24.489,-0.8809,0.2759,-0.3525,0.1536
0.498,0.302,0.196,-67.3,-51.9,-98.5,1023,2018,5,1,22,11,24.509,-0.8776,0.2742,-0.3669,0.1411
-0.046,0.768,-0.099,-61.9,-53.4,-93.7,1023,2018,5,1,22,11,24.513,-0.8729,0.2748,-0.383,0.1252
-0.457,1.19,-0.383,-40,-35.4,-58.7,1023,2018,5,1,22,11,24.531,-0.869,0.275,-0.3955,0.1127
-0.727,1.422,-0.617,-4.9,-25.2,-5.1,0,2018,5,1,22,11,24.55,-0.8666,0.2768,-0.401,0.1067
-0.799,1.393,-0.614,32.4,-21.5,57.9,0,2018,5,1,22,11,24.572,-0.8661,0.2826,-0.3977,0.1081
-0.699,1.18,-0.541,63.5,3.2,116.1,0,2018,5,1,22,11,24.611,-0.8674,0.291,-0.3858,0.1182
-0.52,0.815,-0.331,79.7,17.8,160.7,0,2018,5,1,22,11,24.63,-0.8698,0.3,-0.3671,0.1364
0.107,0.239,0.014,75.4,-14.8,181.7,0,2018,5,1,22,11,24.634,-0.8706,0.3121,-0.3454,0.1587
1.207,-0.5,0.275,43.6,-47.3,162.1,0,2018,5,1,22,11,24.655,-0.867,0.3293,-0.3275,0.1801
1.966,-0.987,0.466,-0.5,-63,94.1,0,2018,5,1,22,11,24.692,-0.8605,0.3461,-0.3188,0.1951
1.979,-0.831,0.57,-31.9,-36,-4.9,0,2018,5,1,22,11,24.696,-0.855,0.3553,-0.3205,0.1997
1.573,-0.293,0.479,-54.6,-22.3,-92.9,0,2018,5,1,22,11,24.712,-0.8527,0.3546,-0.3315,0.1927
0.837,0.38,0.291,-63,-21.2,-130.2,0,2018,5,1,22,11,24.731,-0.8515,0.3489,-0.3484,0.1778
0.11,0.831,-0.004,-56.2,-16.2,-117.3,0,2018,5,1,22,11,24.752,-0.8503,0.3422,-0.3656,0.1615
-0.423,1.187,-0.262,-37.7,-9.6,-73.9,0,2018,5,1,22,11,24.771,-0.8491,0.3364,-0.3787,0.1494
-0.728,1.296,-0.439,-11.1,-12.1,-16.7,0,2018,5,1,22,11,24.791,-0.8479,0.3346,-0.3852,0.1436
-0.914,1.323,-0.411,12.6,4.7,48.2,0,2018,5,1,22,11,24.831,-0.8474,0.3365,-0.3839,0.1456
-0.678,1.191,-0.394,29.9,24.5,108.4,0,2018,5,1,22,11,24.852,-0.8477,0.34,-0.3754,0.1572
-0.107,0.816,-0.315,40.2,11.5,152.2,0,2018,5,1,22,11,24.856,-0.8476,0.3464,-0.3613,0.1758
0.638,0.106,-0.095,38.9,-18.4,161.9,0,2018,5,1,22,11,24.876,-0.8447,0.3584,-0.3453,0.1966
1.287,-0.608,0.155,22.1,-29.9,120.2,0,2018,5,1,22,11,24.895,-0.8397,0.3719,-0.3326,0.2141
1.773,-0.993,0.337,-7.3,-27.9,42.5,0,2018,5,1,22,11,24.912,-0.8351,0.3811,-0.3273,0.2237
1.682,-0.79,0.452,-34.3,-30.9,-50,0,2018,5,1,22,11,24.932,-0.8321,0.3841,-0.332,0.2227
1.263,-0.274,0.399,-56.2,-32.7,-126,1023,2018,5,1,22,11,24.953,-0.8307,0.3816,-0.3462,0.2104
0.508,0.426,0.133,-61,-24.2,-150.7,1023,2018,5,1,22,11,24.973,-0.83,0.3747,-0.3656,0.192
-0.074,1.094,-0.18,-43.8,-25.4,-122,1023,2018,5,1,22,11,24.992,-0.8294,0.3674,-0.3831,0.1737
-0.487,1.474,-0.407,-19.4,-23.4,-62.1,1023,2018,5,1,22,11,25.031,-0.8284,0.3638,-0.3943,0.1608
-0.701,1.59,-0.556,9.7,-11,12.4,1023,2018,5,1,22,11,25.051,-0.8274,0.3649,-0.397,0.1565
-0.699,1.397,-0.449,38.7,14,83.5,1023,2018,5,1,22,11,25.056,-0.828,0.3686,-0.39,0.1622
-0.505,0.864,-0.237,55.5,22.9,131,1023,2018,5,1,22,11,25.075,-0.8294,0.3746,-0.375,0.1762
0.045,0.158,0.009,52.4,10.4,144.5,1023,2018,5,1,22,11,25.095,-0.8295,0.3827,-0.3571,0.1941
0.859,-0.429,0.093,35.5,-25.7,116.9,1023,2018,5,1,22,11,25.115,-0.827,0.3935,-0.342,0.2099
1.454,-0.677,0.265,12.5,-66.2,54,1023,2018,5,1,22,11,25.153,-0.8221,0.4061,-0.3342,0.2178
1.76,-0.676,0.41,-18.4,-90.1,-21.8,1023,2018,5,1,22,11,25.173,-0.8153,0.4186,-0.3369,0.2152
1.496,-0.381,0.469,-43.2,-64,-92.5,1023,2018,5,1,22,11,25.177,-0.8097,0.4252,-0.3488,0.2044
0.913,0.204,0.242,-54.7,-36.7,-137.4,1023,2018,5,1,22,11,25.194,-0.8072,0.4224,-0.3664,0.1886
0.287,0.714,0.044,-45.4,-51.4,-136.3,1023,2018,5,1,22,11,25.233,-0.805,0.4177,-0.3853,0.17
-0.167,0.994,-0.122,-24.9,-74,-103.4,1023,2018,5,1,22,11,25.252,-0.8013,0.4173,-0.4008,0.1513
-0.504,1.129,-0.302,-5.1,-69.1,-54.4,1023,2018,5,1,22,11,25.256,-0.7966,0.4219,-0.4106,0.1364
-0.654,1.282,-0.306,15.8,-35.3,3.2,0,2018,5,1,22,11,25.294,-0.7937,0.4276,-0.4128,0.1288
-0.41,1.283,-0.359,33.3,3.7,65.4,0,2018,5,1,22,11,25.313,-0.7937,0.4326,-0.4069,0.131
0.14,1.043,-0.349,44,-13.7,115.3,0,2018,5,1,22,11,25.316,-0.7943,0.44,-0.3943,0.141
0.629,0.362,-0.094,41.7,-55.6,131.4,0,2018,5,1,22,11,25.355,-0.7909,0.455,-0.3793,0.1528
1.103,-0.497,0.165,31.5,-79.6,92.7,0,2018,5,1,22,11,25.374,-0.7846,0.473,-0.3667,0.1613
1.363,-1.004,0.369,14.8,-77.6,8.7,0,2018,5,1,22,11,25.377,-0.7776,0.4881,-0.3617,0.1614
1.378,-0.823,0.525,-6,-71.1,-82.4,0,2018,5,1,22,11,25.415,-0.7726,0.4956,-0.3667,0.1512
1.137,-0.288,0.477,-23.7,-66.5,-151.1,0,2018,5,1,22,11,25.436,-0.7685,0.4966,-0.3811,0.132
0.55,0.395,0.289,-29.3,-68.3,-180.3,0,2018,5,1,22,11,25.439,-0.7643,0.4932,-0.401,0.1072
0.086,0.889,0.172,-20.6,-81.8,-165.1,0,2018,5,1,22,11,25.453,-0.7587,0.4904,-0.4209,0.081
-0.352,1.219,0.033,-10.5,-84,-119.3,0,2018,5,1,22,11,25.489,-0.7519,0.4908,-0.4362,0.0571
-0.705,1.367,-0.058,-2.1,-37.7,-53,0,2018,5,1,22,11,25.511,-0.7467,0.4924,-0.4449,0.0418
-0.819,1.457,-0.033,8.3,17.6,21.4,0,2018,5,1,22,11,25.517,-0.7463,0.4923,-0.4459,0.0395
-0.521,1.311,-0.09,17.6,25.5,93.2,0,2018,5,1,22,11,25.556,-0.7493,0.4934,-0.4389,0.0486
0,0.786,-0.031,24.8,-23.8,139.1,0,2018,5,1,22,11,25.577,-0.7499,0.5025,-0.4255,0.0626
0.589,-0.21,0.243,21.1,-48.8,126.7,0,2018,5,1,22,11,25.581,-0.7461,0.5185,-0.4107,0.0755
1.125,-0.911,0.494,8.6,-1.5,58.3,0,2018,5,1,22,11,25.598,-0.7431,0.5291,-0.4006,0.0847
1.45,-0.826,0.652,-4.6,41.2,-35.3,0,2018,5,1,22,11,25.637,-0.7453,0.5267,-0.3992,0.0875
1.344,-0.279,0.61,-19.8,38.9,-114.4,0,2018,5,1,22,11,25.641,-0.7493,0.5154,-0.4076,0.0816
0.929,0.22,0.595,-35,36.2,-161.8,0,2018,5,1,22,11,25.658,-0.7523,0.4999,-0.4234,0.0683
0.498,0.615,0.359,-48.7,39,-177.4,1023,2018,5,1,22,11,25.677,-0.7541,0.4814,-0.4435,0.0522
0.076,1.04,0.013,-44.5,14.2,-154.6,1023,2018,5,1,22,11,25.712,-0.7538,0.464,-0.4637,0.0364
-0.117,1.322,-0.222,-22.2,-12.2,-103.1,1023,2018,5,1,22,11,25.73,-0.7515,0.4534,-0.4785,0.0222
-0.286,1.384,-0.326,1,5.3,-41.5,1023,2018,5,1,22,11,25.74,-0.7502,0.4485,-0.4855,0.013
-0.276,1.4,-0.238,24,58.5,17.3,1023,2018,5,1,22,11,25.778,-0.754,0.4432,-0.4845,0.0136
-0.079,1.194,-0.18,51.3,90,63.6,1023,2018,5,1,22,11,25.797,-0.763,0.4366,-0.476,0.0232
0.222,0.635,-0.059,67.8,50.7,84,1023,2018,5,1,22,11,25.801,-0.7733,0.4332,-0.4614,0.0349
0.458,-0.445,0.327,52.5,8.2,57.2,1023,2018,5,1,22,11,25.822,-0.7796,0.4362,-0.4471,0.0425
0.514,-1.097,0.584,10.1,26.1,-19.2,1023,2018,5,1,22,11,25.857,-0.7828,0.4363,-0.4413,0.0441
0.523,-0.625,0.448,-32.7,47.9,-106.1,1023,2018,5,1,22,11,25.878,-0.7853,0.4254,-0.4479,0.0396
0.279,0.311,0.175,-60,18.5,-152.4,1023,2018,5,1,22,11,25.882,-0.7846,0.4096,-0.4644,0.0277
-0.075,1.181,-0.063,-62,-19.6,-139,1023,2018,5,1,22,11,25.901,-0.7797,0.3973,-0.4836,0.0115
-0.209,1.678,-0.22,-42.3,-31.7,-79.8,0,2018,5,1,22,11,25.941,-0.7733,0.3916,-0.4985,-0.002
-0.282,1.702,-0.304,-17.2,-22.2,-1,0,2018,5,1,22,11,25.945,-0.7686,0.3924,-0.505,-0.0081
-0.298,1.577,-0.228,14.5,40.9,76.6,0,2018,5,1,22,11,25.961,-0.7692,0.3946,-0.5024,-0.0016
-0.224,1.376,-0.246,51.5,97.8,137.4,0,2018,5,1,22,11,25.981,-0.777,0.3944,-0.4902,0.0174
-0.208,0.799,-0.144,80.8,80,168.6,0,2018,5,1,22,11,26.001,-0.7885,0.3949,-0.4695,0.042
-0.055,-0.168,0.249,82.9,14.4,160.8,0,2018,5,1,22,11,26.041,-0.7968,0.403,-0.4457,0.0631
0.26,-0.971,0.644,51.8,-1.5,99,0,2018,5,1,22,11,26.061,-0.8005,0.4137,-0.4266,0.0766
0.835,-0.875,0.644,4.8,11.5,8.6,0,2018,5,1,22,11,26.065,-0.8022,0.4172,-0.4188,0.0823
1.198,-0.172,0.478,-38.4,16.4,-62.8,0,2018,5,1,22,11,26.08,-0.8023,0.4126,-0.4235,0.0804
1.131,0.364,0.323,-68.8,15.6,-106.3,0,2018,5,1,22,11,26.12,-0.8005,0.4029,-0.4374,0.0733
0.812,0.65,0.121,-81.5,21.2,-128.8,0,2018,5,1,22,11,26.141,-0.797,0.3904,-0.4562,0.0632
0.349,0.982,-0.171,-77.3,32.4,-123.9,0,2018,5,1,22,11,26.145,-0.7937,0.3751,-0.4757,0.0528
-0.001,1.228,-0.495,-53.3,39.7,-83.6,0,2018,5,1,22,11,26.162,-0.7914,0.3604,-0.4914,0.0457
-0.399,1.403,-0.599,-10.6,20.9,-20.3,0,2018,5,1,22,11,26.183,-0.791,0.3515,-0.4987,0.043
-0.655,1.37,-0.627,31.2,11.5,50.7,0,2018,5,1,22,11,26.202,-0.7929,0.3509,-0.4959,0.0458
-0.655,1.138,-0.438,64.6,26,115.3,0,2018,5,1,22,11,26.222,-0.7974,0.3565,-0.4835,0.056
-0.478,0.654,-0.155,77.4,40,152.7,0,2018,5,1,22,11,26.243,-0.8044,0.3632,-0.4641,0.0739
-0.148,-0.136,0.165,65.8,-17.5,150.8,0,2018,5,1,22,11,26.261,-0.8087,0.3749,-0.4436,0.092
0.52,-0.737,0.449,39,-74.3,100,0,2018,5,1,22,11,26.283,-0.8074,0.3925,-0.4281,0.1027
1.306,-0.595,0.457,3.9,-80.3,22.1,0,2018,5,1,22,11,26.304,-0.8022,0.4087,-0.4224,0.1036
1.449,-0.134,0.572,-25.7,-49.4,-54.6,0,2018,5,1,22,11,26.324,-0.7969,0.4163,-0.4268,0.097
1.137,0.431,0.537,-43.1,-25.6,-111.9,0,2018,5,1,22,11,26.361,-0.7929,0.4141,-0.4387,0.0852
0.558,1.035,0.341,-46.8,-25.7,-124.4,1023,2018,5,1,22,11,26.383,-0.7893,0.407,-0.4542,0.0697
0.147,1.441,0.038,-30.5,-49.7,-85.7,1023,2018,5,1,22,11,26.387,-0.7846,0.4032,-0.4677,0.0546
-0.202,1.43,-0.141,-9.6,-35.2,-20.4,1023,2018,5,1,22,11,26.402,-0.7801,0.4051,-0.4744,0.0449
-0.389,1.307,-0.229,9,41.8,49.6,1023,2018,5,1,22,11,26.44,-0.78,0.4065,-0.4733,0.0471
-0.411,1.206,-0.249,36.2,125.8,114.1,1023,2018,5,1,22,11,26.461,-0.7875,0.4012,-0.4633,0.0643
-0.343,0.896,-0.164,62.5,118.2,155.3,1023,2018,5,1,22,11,26.465,-0.7988,0.3945,-0.4448,0.0903
0.203,0.18,-0.012,69.2,26.7,156.2,1023,2018,5,1,22,11,26.484,-0.8061,0.3979,-0.4229,0.1133
0.783,-0.743,0.271,46.6,-1.8,102.8,1023,2018,5,1,22,11,26.521,-0.8078,0.408,-0.4056,0.1278
1.209,-0.859,0.52,8.3,4.4,14.4,1023,2018,5,1,22,11,26.542,-0.8084,0.4125,-0.3977,0.1339
1.309,-0.422,0.429,-29.7,9.3,-77.4,1023,2018,5,1,22,11,26.546,-0.8092,0.4084,-0.4016,0.1302
1.007,0.075,0.288,-56.9,-3.5,-143.9,1023,2018,5,1,22,11,26.583,-0.8086,0.3989,-0.4161,0.1173
0.479,0.657,0.012,-64.1,-17.6,-172.4,1023,2018,5,1,22,11,26.604,-0.8063,0.387,-0.4363,0.098
-0.008,1.032,-0.278,-54.8,-34.5,-154.8,1023,2018,5,1,22,11,26.608,-0.8023,0.377,-0.4563,0.0763
-0.279,1.306,-0.435,-33.5,-34.2,-101.1,1023,2018,5,1,22,11,26.629,-0.7979,0.3709,-0.4713,0.0584
-0.455,1.467,-0.497,-9.8,-21.2,-28.7,1023,2018,5,1,22,11,26.649,-0.7949,0.3694,-0.4787,0.0486
-0.509,1.468,-0.502,19.5,14.7,49.6,1023,2018,5,1,22,11,26.67,-0.795,0.371,-0.4772,0.0496
-0.349,1.336,-0.438,45.5,51.7,119.2,0,2018,5,1,22,11,26.689,-0.7992,0.3739,-0.4664,0.0622
-0.198,1.098,-0.299,68.4,74.7,164.9,0,2018,5,1,22,11,26.704,-0.8065,0.3766,-0.4477,0.0839
0.174,0.493,-0.063,76.1,29.3,178.5,0,2018,5,1,22,11,26.745,-0.8129,0.3835,-0.4246,0.1077
0.599,-0.562,0.303,62.2,-22,135.6,0,2018,5,1,22,11,26.765,-0.8148,0.3965,-0.4036,0.1254
1.013,-1.088,0.582,26.7,-37,43.1,0,2018,5,1,22,11,26.769,-0.8136,0.4083,-0.3919,0.1326
1.199,-0.778,0.551,-12.5,-31.3,-59.8,0,2018,5,1,22,11,26.807,-0.8118,0.4124,-0.3929,0.1279
0.952,-0.031,0.373,-37.1,-39.9,-131.9,0,2018,5,1,22,11,26.825,-0.8096,0.4097,-0.4047,0.113
0.446,0.718,0.097,-41.4,-58.4,-156.2,0,2018,5,1,22,11,26.83,-0.8058,0.4052,-0.4219,0.0913
0.157,1.253,-0.084,-29.6,-71.6,-128.3,0,2018,5,1,22,11,26.849,-0.8004,0.403,-0.4382,0.0684
-0.06,1.574,-0.148,-11.3,-70.1,-61.1,0,2018,5,1,22,11,26.87,-0.7949,0.4053,-0.4484,0.0508
-0.252,1.601,-0.208,2.9,-58.5,22.4,0,2018,5,1,22,11,26.889,-0.7899,0.4133,-0.4507,0.0432
-0.374,1.333,-0.191,19,19.6,98.6,0,2018,5,1,22,11,26.909,-0.7887,0.4215,-0.4446,0.0493
-0.332,0.948,-0.042,35.1,104.7,148.3,0,2018,5,1,22,11,26.927,-0.7947,0.4219,-0.4306,0.0701
-0.308,0.316,0.175,50.6,90.6,156.8,0,2018,5,1,22,11,26.946,-0.8033,0.4195,-0.4114,0.0962
0.153,-0.305,0.301,42.5,18.4,130.1,0,2018,5,1,22,11,26.966,-0.808,0.423,-0.3928,0.1167
0.923,-0.573,0.357,14.7,-23.8,73.5,0,2018,5,1,22,11,26.987,-0.8073,0.4316,-0.3812,0.1282
1.467,-0.357,0.471,-18,-25.2,0,0,2018,5,1,22,11,27.006,-0.8043,0.4379,-0.3794,0.1313
1.47,0.232,0.457,-33.5,11.5,-67.1,0,2018,5,1,22,11,27.045,-0.8029,0.4356,-0.3862,0.1276
1.19,0.748,0.275,-39.6,35.6,-104.5,0,2018,5,1,22,11,27.065,-0.8042,0.425,-0.3977,0.1196
0.968,1.01,0.121,-37.8,42.3,-103.5,0,2018,5,1,22,11,27.069,-0.8065,0.411,-0.4102,0.1104
0.742,1.035,-0.036,-29.6,42.8,-81.6,1023,2018,5,1,22,11,27.107,-0.8088,0.3977,-0.4208,0.1027
0.453,0.907,-0.147,-22.3,53.9,-53.3,1023,2018,5,1,22,11,27.134,-0.8112,0.3857,-0.4282,0.0983
0.143,0.671,-0.313,-16.3,96.1,-26,1023,2018,5,1,22,11,27.154,-0.8153,0.3719,-0.4322,0.0997
-0.254,0.52,-0.37,-8.4,120.4,-4.7,1023,2018,5,1,22,11,27.158,-0.8219,0.3543,-0.4329,0.1069
-0.562,0.353,-0.359,4.4,73.4,4.4,1023,2018,5,1,22,11,27.168,-0.8278,0.3401,-0.4312,0.1144
-0.672,0.144,-0.305,16.4,36.5,4.5,1023,2018,5,1,22,11,27.188,-0.8315,0.3334,-0.4282,0.1182
-0.376,0.288,-0.289,15.1,18.7,3.3,1023,2018,5,1,22,11,27.209,-0.8342,0.3301,-0.425,0.1195
0.185,0.577,-0.225,12.9,9.3,7.3,1023,2018,5,1,22,11,27.248,-0.836,0.3287,-0.4223,0.1205
0.873,0.78,-0.078,16.1,-7.7,5.1,1023,2018,5,1,22,11,27.266,-0.8369,0.3295,-0.4199,0.1207
1.528,0.715,0.135,23.4,-13.4,-15.3,1023,2018,5,1,22,11,27.27,-0.8378,0.3315,-0.4174,0.1178
1.789,0.438,0.38,17.9,16.3,-47.7,0,2018,5,1,22,11,27.307,-0.84,0.3297,-0.4161,0.1117
1.476,0.229,0.475,0.7,40.6,-80.5,0,2018,5,1,22,11,27.329,-0.8437,0.3205,-0.4178,0.1037
0.849,0.016,0.323,-14.8,36.2,-111.4,0,2018,5,1,22,11,27.333,-0.8471,0.3072,-0.4234,0.0926
0.217,0.049,0.105,-27.1,12.9,-137.4,0,2018,5,1,22,11,27.353,-0.8488,0.2935,-0.4328,0.0769
-0.458,0.226,-0.178,-37.4,-18.2,-139.7,0,2018,5,1,22,11,27.372,-0.8476,0.2834,-0.4448,0.0576
-0.925,0.603,-0.351,-35.8,-9.5,-113.9,0,2018,5,1,22,11,27.412,-0.8449,0.2754,-0.4567,0.0392
-1.207,0.943,-0.572,-26.5,2.9,-70,0,2018,5,1,22,11,27.416,-0.8428,0.2681,-0.4657,0.0268
-1.284,1.159,-0.708,-8.2,-2.6,-12.5,0,2018,5,1,22,11,27.431,-0.8417,0.2641,-0.4703,0.0217
-1.095,1.262,-0.643,17.5,-12.1,51.3,0,2018,5,1,22,11,27.45,-0.8417,0.2669,-0.4686,0.0237
-0.549,1.207,-0.422,50.5,-0.6,104.1,0,2018,5,1,22,11,27.469,-0.8437,0.2749,-0.4597,0.033
0.37,1.069,-0.128,73.4,29,135.1,0,2018,5,1,22,11,27.509,-0.8487,0.2828,-0.4441,0.049
1.254,0.68,0.087,74,18,136.4,0,2018,5,1,22,11,27.528,-0.8544,0.29,-0.4257,0.0678
1.675,-0.234,0.493,52.5,14,95,0,2018,5,1,22,11,27.532,-0.8582,0.2977,-0.4098,0.083
1.622,-1.112,0.984,13.3,41.2,-4.2,0,2018,5,1,22,11,27.553,-0.8613,0.2973,-0.4019,0.0901
1.205,-0.943,0.78,-33.1,57.6,-116.6,0,2018,5,1,22,11,27.588,-0.8639,0.2848,-0.4066,0.0845
0.546,-0.073,0.343,-71.7,21.3,-186.8,0,2018,5,1,22,11,27.61,-0.8639,0.2664,-0.4222,0.0662
-0.334,0.783,-0.213,-89.4,-14.8,-194,0,2018,5,1,22,11,27.614,-0.8594,0.2507,-0.4435,0.0404
-0.711,1.613,-0.579,-67,-10.1,-142.7,0,2018,5,1,22,11,27.632,-0.8533,0.2389,-0.463,0.0169
-0.862,1.989,-0.769,-29.9,18.3,-51.8,0,2018,5,1,22,11,27.651,-0.8496,0.2304,-0.4742,0.0046
-0.769,2.038,-0.778,20.4,48.1,44,0,2018,5,1,22,11,27.669,-0.8506,0.2253,-0.4748,0.0075
-0.366,1.637,-0.521,64.5,71.1,115.8,0,2018,5,1,22,11,27.708,-0.8566,0.2231,-0.4646,0.0232
0.071,0.842,-0.322,79.6,62,152.7,0,2018,5,1,22,11,27.729,-0.8645,0.2242,-0.4473,0.0464
0.34,-0.442,0.115,57.3,13.8,131.6,0,2018,5,1,22,11,27.733,-0.8698,0.2305,-0.4305,0.0688
0.528,-1.591,0.38,8.6,2.9,39.5,0,2018,5,1,22,11,27.771,-0.8711,0.2372,-0.4221,0.0808
0.704,-1.188,0.351,-37.9,-7.1,-79.1,0,2018,5,1,22,11,27.792,-0.8704,0.2351,-0.4254,0.0775
0.521,-0.137,0.127,-67.4,-32.6,-154.1,1023,2018,5,1,22,11,27.796,-0.8667,0.2287,-0.4391,0.0591
0.1,0.697,-0.017,-77.1,-24,-180.7,1023,2018,5,1,22,11,27.817,-0.8612,0.2191,-0.4572,0.0335
-0.285,1.458,-0.31,-65.1,-11.7,-157.3,1023,2018,5,1,22,11,27.837,-0.8552,0.2074,-0.4747,0.0089
-0.181,2.161,-0.425,-31.2,-7.5,-86.3,1023,2018,5,1,22,11,27.852,-0.851,0.1981,-0.4862,-0.0082
-0.129,2.345,-0.464,7.8,4.2,7,1023,2018,5,1,22,11,27.89,-0.8499,0.1953,-0.4891,-0.0139
-0.017,2.01,-0.417,41.1,48.8,93.5,1023,2018,5,1,22,11,27.911,-0.8531,0.1963,-0.4833,-0.005
0.083,1.327,-0.395,62.5,98.5,148.3,1023,2018,5,1,22,11,27.915,-0.8602,0.1948,-0.4708,0.0183
-0.008,0.081,-0.109,59.5,52.2,153.3,1023,2018,5,1,22,11,27.953,-0.867,0.1959,-0.4556,0.046
-0.15,-1.633,0.421,25.1,28.4,79.7,1023,2018,5,1,22,11,27.973,-0.8705,0.2009,-0.4444,0.0653
0.098,-1.687,0.362,-17.4,29.1,-43.1,1023,2018,5,1,22,11,27.977,-0.8716,0.1975,-0.443,0.0695
0.254,-0.47,-0.054,-54.4,-26.9,-129.4,1023,2018,5,1,22,11,27.996,-0.8699,0.1893,-0.4519,0.0564
0.103,0.563,-0.2,-68.8,-51.2,-162.2,1023,2018,5,1,22,11,28.017,-0.8644,0.1835,-0.4668,0.0318
0.058,1.637,-0.525,-54.1,-44.5,-143.5,1023,2018,5,1,22,11,28.056,-0.8582,0.1777,-0.4813,0.0059
0.09,2.443,-0.62,-25.5,-22.5,-69.6,1023,2018,5,1,22,11,28.06,-0.8539,0.1733,-0.4904,-0.0118
0.113,2.627,-0.593,11.1,-0.5,34.2,1023,2018,5,1,22,11,28.076,-0.853,0.1736,-0.4918,-0.0151
0.114,2.094,-0.442,50.3,37,123.1,1023,2018,5,1,22,11,28.115,-0.8564,0.1781,-0.4845,-0.0022
0.06,1.108,-0.238,72.5,58.2,168,1023,2018,5,1,22,11,28.135,-0.8632,0.183,-0.4699,0.0223
-0.039,-0.469,0.261,62.8,54.2,153.3,0,2018,5,1,22,11,28.139,-0.8696,0.1884,-0.4535,0.0495
-0.049,-1.738,0.624,21,54.7,60.3,0,2018,5,1,22,11,28.156,-0.8737,0.1892,-0.4427,0.0689
0.23,-1.408,0.343,-30,30.4,-59.3,0,2018,5,1,22,11,28.191,-0.8749,0.1816,-0.4431,0.0716
0.197,-0.246,-0.041,-71.6,-49.8,-126.8,0,2018,5,1,22,11,28.212,-0.8714,0.1752,-0.4545,0.0567
-0.075,0.586,-0.292,-86.6,-69.7,-148.5,0,2018,5,1,22,11,28.216,-0.8639,0.173,-0.4718,0.0323
-0.288,1.45,-0.595,-66.5,-62.3,-130.3,0,2018,5,1,22,11,28.237,-0.8559,0.1707,-0.4879,0.0071
-0.244,2.101,-0.716,-33.5,-38.2,-61.8,0,2018,5,1,22,11,28.257,-0.8502,0.1696,-0.4982,-0.0104
-0.172,2.388,-0.725,7.9,-5.1,36.6,0,2018,5,1,22,11,28.294,-0.8485,0.1717,-0.5002,-0.0136
-0.016,2.103,-0.559,50.3,20.3,125.2,0,2018,5,1,22,11,28.317,-0.8515,0.1779,-0.4931,-0.0014
0.185,1.406,-0.38,81.4,47.9,175.8,0,2018,5,1,22,11,28.321,-0.8583,0.1856,-0.4778,0.0224
0.275,0.25,-0.006,80.6,24,178.4,0,2018,5,1,22,11,28.34,-0.8652,0.1952,-0.4589,0.05
0.229,-1.471,0.658,45.1,13.5,106.5,0,2018,5,1,22,11,28.359,-0.8694,0.2055,-0.4435,0.0708
0.472,-1.793,0.574,-11.1,34.3,-19.7,0,2018,5,1,22,11,28.379,-0.8711,0.2049,-0.4393,0.0781
0.513,-0.649,0.175,-59.2,-18.9,-121.6,0,2018,5,1,22,11,28.397,-0.8698,0.196,-0.4474,0.0683
0.058,0.306,-0.078,-87.3,-69,-164.5,0,2018,5,1,22,11,28.416,-0.8631,0.1916,-0.4649,0.0442
-0.345,1.349,-0.435,-80.6,-77.2,-152.4,0,2018,5,1,22,11,28.436,-0.8544,0.1889,-0.4837,0.0164
-0.335,2.132,-0.666,-47,-55.2,-89.9,0,2018,5,1,22,11,28.477,-0.8467,0.1884,-0.4974,-0.0057
-0.277,2.522,-0.835,-5.2,-27.7,13,0,2018,5,1,22,11,28.498,-0.8428,0.1915,-0.5026,-0.0144
-0.231,2.362,-0.63,44,5.8,121.7,1023,2018,5,1,22,11,28.502,-0.8445,0.1992,-0.4969,-0.0056
-0.039,1.74,-0.457,86.4,47.6,194.8,1023,2018,5,1,22,11,28.52,-0.851,0.2093,-0.4811,0.0186
0.033,0.635,-0.2,98.6,52.2,216,1023,2018,5,1,22,11,28.538,-0.8597,0.2188,-0.4585,0.0509
0.083,-1.158,0.605,75,22.3,167.6,1023,2018,5,1,22,11,28.578,-0.866,0.2298,-0.4367,0.0798
0.397,-2.148,0.74,19.2,22.7,43.2,1023,2018,5,1,22,11,28.599,-0.8687,0.2356,-0.425,0.0951
0.676,-1.266,0.478,-36.9,-10.2,-87.8,1023,2018,5,1,22,11,28.603,-0.8691,0.2309,-0.4275,0.0921
0.497,-0.241,0.257,-80.8,-63.5,-162.2,1023,2018,5,1,22,11,28.624,-0.8641,0.2276,-0.4431,0.071
0.024,0.8,-0.093,-94.1,-64.1,-184.8,1023,2018,5,1,22,11,28.643,-0.8562,0.2221,-0.4643,0.0425
-0.135,1.858,-0.522,-70.6,-63.5,-159.4,1023,2018,5,1,22,11,28.661,-0.8475,0.217,-0.484,0.014
-0.083,2.405,-0.685,-32.8,-46.2,-76.4,1023,2018,5,1,22,11,28.679,-0.8411,0.2153,-0.496,-0.0064
-0.108,2.601,-0.681,12.3,-7.7,34.1,1023,2018,5,1,22,11,28.718,-0.8393,0.2174,-0.4981,-0.0112
-0.1,2.128,-0.567,57.6,43,130.4,1023,2018,5,1,22,11,28.738,-0.8431,0.2224,-0.4894,0.0016
-0.07,1.259,-0.424,86.9,72.7,182.2,1023,2018,5,1,22,11,28.742,-0.8516,0.2269,-0.4717,0.0277
-0.105,-0.334,0.102,82.4,57.3,172.5,1023,2018,5,1,22,11,28.761,-0.8598,0.2325,-0.4508,0.0568
-0.018,-1.727,0.558,41.5,39.8,82.2,1023,2018,5,1,22,11,28.799,-0.8652,0.2362,-0.4352,0.0773
0.365,-1.605,0.467,-8.7,17.6,-46.3,0,2018,5,1,22,11,28.82,-0.8675,0.2327,-0.4318,0.081
0.441,-0.401,0.172,-55.1,-58.2,-129.5,0,2018,5,1,22,11,28.824,-0.8652,0.2288,-0.4411,0.0663
0.202,0.855,-0.143,-71,-76.7,-155.2,0,2018,5,1,22,11,28.863,-0.8583,0.2273,-0.458,0.0411
0.015,1.915,-0.496,-51.2,-88.3,-122,0,2018,5,1,22,11,28.883,-0.8506,0.2282,-0.4734,0.0151
0.074,2.536,-0.684,-20,-78.4,-36.5,0,2018,5,1,22,11,28.888,-0.8441,0.2345,-0.4821,-0.0025
-0.028,2.582,-0.77,20.9,-39.3,76.9,0,2018,5,1,22,11,28.902,-0.8417,0.245,-0.4809,-0.0041
-0.232,1.99,-0.747,66.5,28.1,172.5,0,2018,5,1,22,11,28.92,-0.8452,0.2565,-0.4686,0.0127
-0.346,1.313,-0.661,109.5,75.2,225.4,0,2018,5,1,22,11,28.94,-0.8539,0.265,-0.4457,0.0429
-0.544,0.537,-0.314,127.8,22,236.3,0,2018,5,1,22,11,28.978,-0.8634,0.2752,-0.4157,0.0765
-0.487,-0.543,0.214,110.3,-35.2,213,0,2018,5,1,22,11,28.998,-0.8673,0.296,-0.3864,0.1034
-0.284,-1.145,0.432,74.2,13.7,150.2,0,2018,5,1,22,11,29.002,-0.8692,0.3116,-0.3628,0.1251
0.315,-0.971,0.42,30.1,2.3,63.9,0,2018,5,1,22,11,29.041,-0.8712,0.316,-0.3488,0.1392
0.796,-0.315,0.166,-3.8,-87,4.6,0,2018,5,1,22,11,29.062,-0.8682,0.3258,-0.3469,0.1403
0.9,0.792,-0.168,-11.8,-123.5,-5,0,2018,5,1,22,11,29.066,-0.8613,0.3419,-0.3512,0.1331
1.099,1.371,-0.281,12.9,-74.8,14.7,0,2018,5,1,22,11,29.085,-0.8548,0.3578,-0.3536,0.1272
1.235,1.583,-0.242,55.1,10.4,45.2,0,2018,5,1,22,11,29.106,-0.8541,0.3655,-0.3473,0.1274
1.11,1.22,-0.17,92.1,65.3,77.9,0,2018,5,1,22,11,29.124,-0.8598,0.3646,-0.3311,0.1347
0.905,0.528,0.005,115.1,73.1,93,0,2018,5,1,22,11,29.143,-0.868,0.3613,-0.3079,0.1454
0.592,-0.453,0.418,111.4,87.2,64.2,1023,2018,5,1,22,11,29.163,-0.8765,0.3569,-0.2832,0.1547
0.567,-0.807,0.557,90.8,145.1,4.2,1023,2018,5,1,22,11,29.184,-0.8874,0.3435,-0.2629,0.159
0.485,-0.809,0.545,56.5,183.9,-68.4,1023,2018,5,1,22,11,29.203,-0.9011,0.3182,-0.2491,0.1566
0.509,-0.25,0.52,13.9,122.9,-128.5,1023,2018,5,1,22,11,29.223,-0.9137,0.2892,-0.2452,0.1453
0.645,0.204,0.312,-26.6,6.1,-155.3,1023,2018,5,1,22,11,29.262,-0.9195,0.2739,-0.2524,0.125
0.37,0.248,0.35,-54.5,-26.6,-165.7,1023,2018,5,1,22,11,29.284,-0.9199,0.2688,-0.267,0.1003
-0.04,0.465,0.323,-83.2,9.8,-167.7,1023,2018,5,1,22,11,29.288,-0.9186,0.2612,-0.2863,0.0762
-0.498,0.876,-0.052,-100.4,4.9,-156.5,1023,2018,5,1,22,11,29.305,-0.9163,0.2495,-0.3083,0.055
-0.637,1.012,-0.304,-98.5,-21.2,-131.9,1023,2018,5,1,22,11,29.325,-0.9113,0.2421,-0.3309,0.0357
-0.895,1.078,-0.212,-86.5,-35.7,-102.2,1023,2018,5,1,22,11,29.363,-0.9051,0.2398,-0.3503,0.0192
-1.058,0.948,-0.231,-78.5,-7.8,-78,1023,2018,5,1,22,11,29.385,-0.8991,0.2379,-0.3671,0.0067
-0.927,1.039,-0.129,-69.8,37.5,-42.7,0,2018,5,1,22,11,29.389,-0.8951,0.2312,-0.3811,0.0012
-0.495,1.316,-0.064,-64.5,40.9,6.1,0,2018,5,1,22,11,29.404,-0.8924,0.2232,-0.392,0.0036
0.169,1.219,-0.219,-65.2,41.8,56.8,0,2018,5,1,22,11,29.443,-0.8893,0.2196,-0.4008,0.0137
0.968,1.096,-0.364,-55.6,59.2,79,0,2018,5,1,22,11,29.465,-0.8868,0.2161,-0.4072,0.0304
1.66,0.74,-0.404,-46.6,43,66.6,0,2018,5,1,22,11,29.469,-0.8847,0.2129,-0.4118,0.0473
1.969,0.231,-0.468,-38.6,34.1,26.8,0,2018,5,1,22,11,29.486,-0.8826,0.2102,-0.4161,0.0586
1.591,-0.108,-0.385,-34.6,76.2,-30.6,0,2018,5,1,22,11,29.506,-0.8819,0.2015,-0.4212,0.063
0.972,0.199,-0.377,-29.6,104.4,-79.1,0,2018,5,1,22,11,29.543,-0.8835,0.182,-0.4271,0.062
0.115,0.471,-0.39,-18.1,64,-100.2,0,2018,5,1,22,11,29.563,-0.8853,0.1612,-0.4326,0.0547
-0.55,0.555,-0.288,-3.8,23,-96.9,0,2018,5,1,22,11,29.567,-0.8864,0.1476,-0.4366,0.0421
-1.203,0.572,0.042,7.2,15,-79.4,0,2018,5,1,22,11,29.608,-0.8876,0.1383,-0.4382,0.0294
-1.379,0.863,0.06,7.4,22.1,-48.9,0,2018,5,1,22,11,29.627,-0.889,0.1303,-0.4383,0.0204
-1.378,1.116,-0.138,2.6,19.5,-2.2,0,2018,5,1,22,11,29.631,-0.89,0.1251,-0.438,0.0174
-1.178,1.207,-0.203,0,14.9,51.6,0,2018,5,1,22,11,29.647,-0.8903,0.1244,-0.4372,0.0224
-0.431,1.072,-0.277,0.6,8.7,100.5,0,2018,5,1,22,11,29.668,-0.8903,0.1284,-0.4352,0.0351
0.461,0.778,-0.497,-5.3,19.8,134.9,0,2018,5,1,22,11,29.687,-0.8895,0.1357,-0.4327,0.0545
1.299,0.455,-0.695,-13.4,18.9,136.2,0,2018,5,1,22,11,29.726,-0.8878,0.1425,-0.4306,0.0777
2.222,-0.093,-0.989,-24.8,-17,101.1,0,2018,5,1,22,11,29.745,-0.8845,0.1512,-0.4305,0.0966
1.931,-0.597,-0.965,-24.6,6.6,28.9,0,2018,5,1,22,11,29.75,-0.8812,0.1571,-0.4328,0.1065
1.263,-0.394,-0.624,-14.8,-4.8,-57.7,0,2018,5,1,22,11,29.785,-0.8803,0.1542,-0.4362,0.1044
0.366,-0.194,-0.257,-8.1,-47.1,-111.6,0,2018,5,1,22,11,29.806,-0.8802,0.1516,-0.4407,0.0885
-0.515,0.282,0.193,-4,-49.8,-127.5,0,2018,5,1,22,11,29.81,-0.8801,0.1501,-0.4455,0.0658
-1.066,1.02,0.489,-1.2,-61.1,-110.2,1023,2018,5,1,22,11,29.831,-0.8797,0.1488,-0.4495,0.0428
-1.232,1.335,0.583,-7.7,-65.6,-70.3,1023,2018,5,1,22,11,29.85,-0.8782,0.152,-0.4528,0.0235
-1.101,1.538,0.435,-16,-20.5,-16.4,1023,2018,5,1,22,11,29.867,-0.8762,0.1552,-0.4559,0.0135
-0.745,1.554,0.099,-18.7,10.8,45.3,1023,2018,5,1,22,11,29.906,-0.8747,0.1567,-0.4583,0.0161
-0.207,1.212,-0.25,-16,19.5,97.3,1023,2018,5,1,22,11,29.927,-0.8735,0.1599,-0.4587,0.0292
0.613,0.666,-0.729,-19,13.6,128.9,1023,2018,5,1,22,11,29.931,-0.8719,0.1664,-0.4579,0.0485
1.512,0.076,-1.194,-25,-16.4,120.8,1023,2018,5,1,22,11,29.95,-0.8688,0.1766,-0.4574,0.0683
1.846,-0.43,-1.239,-16.8,-12.1,60,1023,2018,5,1,22,11,29.97,-0.8652,0.1868,-0.4581,0.0813
1.48,-0.25,-1.129,11.1,-6.3,-28.6,1023,2018,5,1,22,11,30.009,-0.8646,0.1886,-0.4582,0.0827
0.825,0.078,-0.477,36.4,-50.1,-92.1,1023,2018,5,1,22,11,30.03,-0.8666,0.1882,-0.4568,0.0693
0.048,0.323,0.09,43.9,-43.9,-116.1,1023,2018,5,1,22,11,30.034,-0.8693,0.1881,-0.4545,0.0471
-0.693,0.83,0.495,36.8,-9.1,-100.2,1023,2018,5,1,22,11,30.052,-0.8724,0.1833,-0.4521,0.0271
-1.08,1.185,0.735,21.6,-5.7,-63.5,0,2018,5,1,22,11,30.072,-0.8749,0.1777,-0.4502,0.0132
-1.037,1.253,0.641,1.9,-10.9,-21.3,0,2018,5,1,22,11,30.112,-0.8755,0.1759,-0.4498,0.0057
-0.864,1.218,0.367,-13.3,-5.1,22.7,0,2018,5,1,22,11,30.131,-0.8748,0.1773,-0.4507,0.0054
-0.53,1.019,0.015,-24.1,11.7,64.1,0,2018,5,1,22,11,30.136,-0.8733,0.1805,-0.4522,0.0129
0.19,0.845,-0.436,-31.6,20.4,95.8,0,2018,5,1,22,11,30.152,-0.8714,0.184,-0.4538,0.0275
0.883,0.605,-0.91,-32,2.2,104.8,0,2018,5,1,22,11,30.172,-0.8686,0.19,-0.4552,0.0448
1.516,0.169,-1.259,-27.5,-22.9,83.2,0,2018,5,1,22,11,30.192,-0.8649,0.1993,-0.4566,0.059
1.514,-0.013,-1.282,-3.9,-6.3,33.9,0,2018,5,1,22,11,30.213,-0.8624,0.2062,-0.4572,0.067
1.115,0.064,-1.024,23,-18.8,-21.8,0,2018,5,1,22,11,30.231,-0.863,0.208,-0.4555,0.0661
0.561,0.043,-0.415,47.9,-42,-65.1,0,2018,5,1,22,11,30.252,-0.8652,0.2097,-0.4519,0.055
-0.129,0.135,0.28,54.7,-26.4,-90,0,2018,5,1,22,11,30.271,-0.8687,0.2094,-0.4471,0.0378
-0.775,0.641,0.762,41.9,-3.7,-89.5,0,2018,5,1,22,11,30.309,-0.8726,0.2044,-0.443,0.0211
-1.016,1.142,0.925,17,-12.9,-67.4,0,2018,5,1,22,11,30.329,-0.8748,0.1993,-0.4413,0.0074
-0.931,1.356,0.784,-9.8,-27.4,-30,0,2018,5,1,22,11,30.333,-0.8743,0.199,-0.4425,-0.0019
-0.705,1.309,0.462,-32.5,-5.1,14.2,0,2018,5,1,22,11,30.349,-0.872,0.2012,-0.4461,-0.0039
-0.385,1.265,0.067,-40.6,27.8,57.7,0,2018,5,1,22,11,30.39,-0.8696,0.202,-0.4504,0.0038
0.384,0.975,-0.475,-45.9,18.7,91.8,0,2018,5,1,22,11,30.409,-0.8669,0.2042,-0.4542,0.0186
1.118,0.567,-1.036,-49,1,104.1,0,2018,5,1,22,11,30.413,-0.863,0.2106,-0.4577,0.0362
1.514,0.2,-1.297,-41.8,-14.5,82.1,0,2018,5,1,22,11,30.431,-0.8584,0.2189,-0.461,0.0513
1.367,-0.176,-1.369,-20.9,-8.8,29.8,0,2018,5,1,22,11,30.451,-0.8547,0.2252,-0.4637,0.0597
0.868,-0.07,-1.005,15.2,-17.1,-30.9,0,2018,5,1,22,11,30.49,-0.8543,0.2262,-0.4641,0.0585
0.301,-0.006,-0.384,46.3,-40.4,-78.8,0,2018,5,1,22,11,30.513,-0.8563,0.2264,-0.4618,0.0461
-0.25,0.196,0.073,58.9,-29.2,-102.5,1023,2018,5,1,22,11,30.517,-0.8597,0.2251,-0.4576,0.0272
-0.68,0.733,0.686,49.7,-14.6,-99.4,1023,2018,5,1,22,11,30.538,-0.8637,0.2198,-0.4533,0.0081
-0.782,1.187,0.795,28.6,-21.6,-73.2,1023,2018,5,1,22,11,30.557,-0.8662,0.2155,-0.4507,-0.0079
-0.695,1.371,0.707,2.7,-19,-32.2,1023,2018,5,1,22,11,30.578,-0.8664,0.2147,-0.4503,-0.0181
-0.517,1.333,0.497,-25.4,-0.3,16.6,1023,2018,5,1,22,11,30.593,-0.865,0.2158,-0.4524,-0.0195
-0.423,1.221,0.195,-48.2,35.1,66.4,1023,2018,5,1,22,11,30.614,-0.8627,0.2166,-0.4566,-0.0104
-0.148,1.072,-0.101,-59.5,48.6,108,1023,2018,5,1,22,11,30.633,-0.8601,0.2171,-0.4614,0.0084
0.218,0.732,-0.409,-64.8,46.5,130.7,1023,2018,5,1,22,11,30.673,-0.8564,0.2197,-0.466,0.0328
0.538,0.479,-0.68,-59.4,52.8,126.9,1023,2018,5,1,22,11,30.692,-0.8522,0.2223,-0.4699,0.0587
0.906,0.265,-0.908,-50.8,36.1,105.8,1023,2018,5,1,22,11,30.696,-0.8481,0.2243,-0.4728,0.0816
1.379,-0.07,-1.281,-46.4,-0.6,74.5,1023,2018,5,1,22,11,30.733,-0.8434,0.2286,-0.4761,0.0979
1.335,-0.233,-1.298,-23.5,-28.4,20.8,1023,2018,5,1,22,11,30.753,-0.8389,0.2343,-0.4798,0.1048
0.989,-0.141,-0.895,16,-61.5,-48,1023,2018,5,1,22,11,30.758,-0.837,0.2397,-0.4817,0.0986
0.438,-0.03,-0.276,48.4,-57.8,-99.4,1023,2018,5,1,22,11,30.778,-0.8384,0.2431,-0.481,0.0804
-0.155,0.371,0.402,60.3,-14.7,-116.7,0,2018,5,1,22,11,30.796,-0.8429,0.2399,-0.4778,0.0587
-0.664,0.931,0.75,52.9,8.8,-108.5,0,2018,5,1,22,11,30.817,-0.8488,0.2309,-0.4739,0.0393
-0.837,1.308,0.925,28.1,14.9,-77,0,2018,5,1,22,11,30.836,-0.8532,0.2215,-0.4714,0.0245
-0.752,1.448,0.746,-3.1,8,-29.1,0,2018,5,1,22,11,30.877,-0.8548,0.2154,-0.4716,0.017
-0.554,1.346,0.366,-29.9,6.8,24.2,0,2018,5,1,22,11,30.882,-0.8537,0.2143,-0.4742,0.0179
-0.275,1.013,-0.053,-45.6,20.1,64.7,0,2018,5,1,22,11,30.899,-0.8507,0.2162,-0.4782,0.0273
0.149,0.737,-0.432,-55,40.8,87.2,0,2018,5,1,22,11,30.918,-0.8472,0.2177,-0.4825,0.0431
0.609,0.539,-0.781,-58.4,39.2,94.2,0,2018,5,1,22,11,30.936,-0.8432,0.2187,-0.487,0.062
0.892,0.375,-1.058,-47.7,21.4,77.2,0,2018,5,1,22,11,30.974,-0.8387,0.221,-0.4912,0.0792
1.041,0.252,-1.203,-24.6,-3.2,42.8,0,2018,5,1,22,11,30.994,-0.8351,0.2243,-0.494,0.0899
0.973,0.181,-1.119,7.3,-27,6.1,0,2018,5,1,22,11,30.998,-0.8335,0.2286,-0.4945,0.0919
0.755,0.259,-0.882,40.4,-47.4,-26.4,0,2018,5,1,22,11,31.035,-0.8342,0.2336,-0.492,0.086
0.389,0.395,-0.383,68.5,-47.9,-50,0,2018,5,1,22,11,31.056,-0.8375,0.2382,-0.4861,0.0736
-0.023,0.482,0.188,75.6,-22.8,-59.6,0,2018,5,1,22,11,31.06,-0.8429,0.2398,-0.478,0.0589
-0.345,0.682,0.6,63.2,12.5,-55.2,0,2018,5,1,22,11,31.076,-0.8491,0.236,-0.47,0.0471
-0.538,0.939,0.795,39.7,28.3,-43.1,0,2018,5,1,22,11,31.096,-0.8548,0.2288,-0.464,0.0392
-0.59,1.079,0.699,11.1,13.2,-22.7,0,2018,5,1,22,11,31.117,-0.8578,0.223,-0.4615,0.0351
-0.478,1.045,0.422,-12.4,0,3.5,0,2018,5,1,22,11,31.156,-0.8579,0.2216,-0.4621,0.0341
-0.211,0.895,0.077,-30,2.2,30.5,0,2018,5,1,22,11,31.175,-0.856,0.2229,-0.4647,0.0375
0.159,0.783,-0.331,-38.6,17.5,52.4,0,2018,5,1,22,11,31.179,-0.8533,0.2245,-0.4682,0.0458
0.534,0.688,-0.664,-38.4,14.6,62.5,1023,2018,5,1,22,11,31.216,-0.8503,0.2265,-0.4715,0.0574
0.792,0.612,-0.948,-27.6,-0.7,56.2,1023,2018,5,1,22,11,31.238,-0.8472,0.23,-0.474,0.0679
0.803,0.522,-1.018,-9,-13.2,42.3,1023,2018,5,1,22,11,31.242,-0.8447,0.2351,-0.4747,0.075
0.665,0.533,-0.851,17.4,-12.9,27.2,1023,2018,5,1,22,11,31.262,-0.8441,0.24,-0.4728,0.0784
0.369,0.65,-0.64,43.1,-3.3,20.5,1023,2018,5,1,22,11,31.282,-0.846,0.2436,-0.4673,0.0795
0.1,0.803,-0.414,68.7,17.8,25.6,1023,2018,5,1,22,11,31.302,-0.8507,0.245,-0.4578,0.0809
-0.021,0.956,-0.181,86.1,28.8,39.7,1023,2018,5,1,22,11,31.322,-0.8575,0.2451,-0.4443,0.0842
-0.079,1.044,-0.003,92.8,28.8,56.7,1023,2018,5,1,22,11,31.341,-0.8649,0.2457,-0.4282,0.0897
-0.147,0.935,-0.043,88.9,41.4,80.6,1023,2018,5,1,22,11,31.357,-0.8719,0.2473,-0.4108,0.0985
-0.201,0.894,0.045,79.5,50,101.5,1023,2018,5,1,22,11,31.395,-0.8784,0.2478,-0.3929,0.1119
-0.151,0.771,-0.045,65.3,32.9,123.5,1023,2018,5,1,22,11,31.414,-0.8827,0.2504,-0.3761,0.1287
-0.047,0.689,-0.225,58.9,-7.1,136.9,1023,2018,5,1,22,11,31.422,-0.8841,0.2583,-0.3604,0.1469
0.251,0.568,-0.268,58.3,-36.7,141,1023,2018,5,1,22,11,31.442,-0.8828,0.2724,-0.3456,0.1639
0.395,0.378,-0.222,54.2,-23.4,138.9,0,2018,5,1,22,11,31.463,-0.8802,0.2876,-0.3312,0.1806
0.462,0.434,0.036,47.6,-3.5,134,0,2018,5,1,22,11,31.48,-0.8783,0.2981,-0.3166,0.1982
0.6,0.271,0.303,22.8,-67.9,128.7,0,2018,5,1,22,11,31.501,-0.8739,0.3115,-0.3052,0.2146
0.99,-0.165,0.143,-2.7,-135,105.9,0,2018,5,1,22,11,31.54,-0.8638,0.334,-0.3013,0.2265
1.246,-0.768,0.15,-28.8,-136,58.9,0,2018,5,1,22,11,31.56,-0.851,0.359,-0.3046,0.2322
1.213,-0.725,0.161,-36.3,-108.2,-11.8,0,2018,5,1,22,11,31.564,-0.8406,0.3765,-0.313,0.2313
1.148,-0.43,0.04,-37,-109.1,-78.2,0,2018,5,1,22,11,31.584,-0.8333,0.3879,-0.3259,0.2207
0.941,-0.049,0.05,-35.6,-108,-125.3,0,2018,5,1,22,11,31.604,-0.8276,0.3963,-0.3424,0.2016
0.644,0.283,-0.026,-33.8,-97.7,-147.5,0,2018,5,1,22,11,31.62,-0.8227,0.4017,-0.3606,0.1779
0.369,0.64,-0.003,-32.2,-64.3,-151.8,0,2018,5,1,22,11,31.66,-0.8191,0.4025,-0.3784,0.1538
0.179,0.909,-0.03,-33.8,-47.6,-141,0,2018,5,1,22,11,31.679,-0.8166,0.3995,-0.3949,0.1317
0.084,1.29,-0.052,-29.5,-79.3,-116.8,0,2018,5,1,22,11,31.683,-0.813,0.3981,-0.4097,0.1113
0.034,1.53,-0.171,-16.7,-128.7,-73,0,2018,5,1,22,11,31.703,-0.8053,0.4063,-0.4217,0.0918
0.062,1.513,-0.287,-1.6,-104.6,-17.9,0,2018,5,1,22,11,31.723,-0.7964,0.4199,-0.4281,0.0775
0.16,1.334,-0.323,15,-25.8,37.8,0,2018,5,1,22,11,31.759,-0.7918,0.4301,-0.4271,0.0738
0.376,1.19,-0.379,40.8,36.8,79.2,0,2018,5,1,22,11,31.778,-0.794,0.4333,-0.4185,0.0811
0.425,0.72,-0.205,64.8,24,99.2,0,2018,5,1,22,11,31.783,-0.7992,0.4357,-0.4035,0.0925
0.414,-0.174,0.181,74.5,-42.4,83.1,0,2018,5,1,22,11,31.8,-0.8018,0.4448,-0.3863,0.0996
0.49,-0.983,0.558,49.3,-52.6,24.4,0,2018,5,1,22,11,31.82,-0.8007,0.4574,-0.3737,0.0989
0.551,-0.904,0.713,10.9,-8.1,-58.2,0,2018,5,1,22,11,31.84,-0.8009,0.4604,-0.3714,0.0924
0.637,-0.273,0.555,-27,-31.3,-125.4,0,2018,5,1,22,11,31.879,-0.8001,0.4564,-0.381,0.079
0.457,0.303,0.471,-48.5,-61.6,-160.3,1023,2018,5,1,22,11,31.901,-0.7952,0.4528,-0.3987,0.0587
0.172,0.717,0.329,-56.8,-64.8,-170.7,1023,2018,5,1,22,11,31.905,-0.7875,0.4495,-0.42,0.0353
-0.094,1.12,0.156,-55.2,-49.2,-156,1023,2018,5,1,22,11,31.924,-0.7793,0.4447,-0.4411,0.0133
-0.158,1.528,-0.032,-36.6,-42.1,-116.4,1023,2018,5,1,22,11,31.944,-0.7723,0.4398,-0.4582,-0.0047
-0.148,1.762,-0.121,-5.1,-55.4,-56.4,1023,2018,5,1,22,11,31.965,-0.7667,0.4394,-0.4676,-0.0184
-0.006,1.758,-0.126,26.5,-46.7,14.2,1023,2018,5,1,22,11,32.003,-0.7633,0.445,-0.4674,-0.0262
0.206,1.581,-0.08,46.8,-3.8,80.3,1023,2018,5,1,22,11,32.024,-0.7646,0.4521,-0.4584,-0.0241
0.257,1.049,-0.123,60.3,19.3,121,1023,2018,5,1,22,11,32.028,-0.7699,0.4589,-0.443,-0.0133
0.218,0.035,0.228,63.9,15.8,114.1,1023,2018,5,1,22,11,32.048,-0.7765,0.4653,-0.4247,-0.0002
0.269,-0.887,0.523,43.9,2,53.9,1023,2018,5,1,22,11,32.069,-0.7809,0.4709,-0.4101,0.0075
0.492,-1.015,0.611,12.4,36.1,-35.1,1023,2018,5,1,22,11,32.089,-0.7844,0.4689,-0.4058,0.008
0.578,-0.262,0.512,-24.5,40.6,-109.7,1023,2018,5,1,22,11,32.109,-0.7872,0.4577,-0.4132,0.0013
0.358,0.425,0.389,-50.1,21.1,-145.7,1023,2018,5,1,22,11,32.125,-0.7865,0.4439,-0.4291,-0.011
0.153,0.904,0.257,-62.2,4.1,-153.2,0,2018,5,1,22,11,32.166,-0.7824,0.4309,-0.4487,-0.0263
-0.009,1.331,0.015,-58.5,-9.9,-132.8,0,2018,5,1,22,11,32.168,-0.7763,0.4201,-0.468,-0.0414
-0.059,1.698,-0.161,-36.4,-44.4,-85,0,2018,5,1,22,11,32.183,-0.7694,0.415,-0.4823,-0.0546
-0.106,1.779,-0.207,-16.9,-41.2,-17.2,0,2018,5,1,22,11,32.221,-0.7633,0.4171,-0.4891,-0.0632
-0.117,1.702,-0.203,4.2,5,52.4,0,2018,5,1,22,11,32.242,-0.7616,0.4215,-0.4883,-0.0616
-0.173,1.462,-0.199,25.1,70.8,115.1,0,2018,5,1,22,11,32.246,-0.7665,0.4235,-0.4804,-0.0477
-0.095,1.14,-0.256,46.7,126.2,158.2,0,2018,5,1,22,11,32.286,-0.7781,0.4206,-0.4658,-0.0226
-0.179,0.413,-0.067,60.2,92.9,164.6,0,2018,5,1,22,11,32.306,-0.7911,0.418,-0.4464,0.0051
-0.155,-0.498,0.385,50.2,5.6,128.2,0,2018,5,1,22,11,32.31,-0.7986,0.4228,-0.4273,0.0253
0.198,-0.881,0.518,19.9,-10.4,58.1,0,2018,5,1,22,11,32.325,-0.7999,0.4313,-0.4156,0.0349
0.529,-0.424,0.498,-22.7,7,-11.2,0,2018,5,1,22,11,32.346,-0.7997,0.4325,-0.4144,0.038
0.561,0.32,0.281,-56.2,-13.7,-48.9,0,2018,5,1,22,11,32.366,-0.7968,0.4301,-0.4228,0.036
0.471,1.138,0.112,-63.3,-48.4,-47.3,0,2018,5,1,22,11,32.385,-0.7902,0.4302,-0.4353,0.031
0.412,1.53,-0.036,-50.1,-73.8,-14.6,0,2018,5,1,22,11,32.407,-0.7811,0.436,-0.4459,0.0261
0.343,1.515,-0.087,-36.5,-38.5,35.1,0,2018,5,1,22,11,32.447,-0.7729,0.4453,-0.4511,0.0257
0.424,1.553,-0.153,-5.6,74.7,89.6,0,2018,5,1,22,11,32.466,-0.7725,0.4473,-0.4489,0.0377
0.434,1.191,-0.342,29.8,138.1,133.3,0,2018,5,1,22,11,32.47,-0.7814,0.4408,-0.4373,0.0611
0.334,0.671,-0.338,64.8,120.1,145.7,0,2018,5,1,22,11,32.49,-0.7934,0.4337,-0.4179,0.087
0.238,-0.393,0.106,75.2,88.4,114.2,0,2018,5,1,22,11,32.51,-0.804,0.4302,-0.396,0.1075
0.316,-0.822,0.432,56,47.4,47.9,0,2018,5,1,22,11,32.53,-0.8118,0.4283,-0.3783,0.1191
0.557,-0.41,0.393,20.9,9.3,-23.7,0,2018,5,1,22,11,32.547,-0.8165,0.4255,-0.3712,0.1197
0.634,0.265,0.314,-13.8,-56,-63,0,2018,5,1,22,11,32.583,-0.8156,0.4263,-0.375,0.111
0.594,0.896,0.192,-31.6,-86.7,-68.1,1023,2018,5,1,22,11,32.605,-0.8097,0.4317,-0.3849,0.098
0.525,1.318,-0.013,-31.3,-107.5,-48.1,1023,2018,5,1,22,11,32.609,-0.8009,0.4411,-0.3956,0.0852
0.534,1.524,-0.154,-11.5,-109.1,-11.2,1023,2018,5,1,22,11,32.63,-0.7912,0.454,-0.4025,0.075
0.601,1.487,-0.222,13.3,-80.2,33.8,1023,2018,5,1,22,11,32.648,-0.7834,0.4682,-0.4025,0.0697
0.617,1.294,-0.234,34.8,1.5,79.1,1023,2018,5,1,22,11,32.67,-0.781,0.4782,-0.3948,0.0726
0.585,1.116,-0.214,56.4,58.7,109.2,1023,2018,5,1,22,11,32.689,-0.7861,0.4802,-0.3797,0.0844
0.55,0.494,-0.082,69.7,40,107.7,1023,2018,5,1,22,11,32.728,-0.7932,0.4807,-0.3606,0.0979
0.656,-0.501,0.296,56.4,-23.8,68,1023,2018,5,1,22,11,32.749,-0.7959,0.4869,-0.3438,0.1052
0.622,-0.987,0.646,22.5,-14.6,-6.7,1023,2018,5,1,22,11,32.753,-0.7957,0.4927,-0.3361,0.1045
0.581,-0.536,0.635,-19.6,-8.2,-89.6,1023,2018,5,1,22,11,32.773,-0.796,0.4907,-0.3405,0.0967
0.456,0.286,0.354,-47.1,-45.8,-135.9,1023,2018,5,1,22,11,32.794,-0.7935,0.4865,-0.356,0.0818
0.172,0.886,0.113,-49.2,-93.4,-136.1,1023,2018,5,1,22,11,32.831,-0.786,0.4868,-0.3757,0.0625
0.008,1.394,0.012,-34.9,-146.2,-100.3,0,2018,5,1,22,11,32.836,-0.7737,0.4952,-0.3927,0.0415
-0.08,1.434,-0.06,-21.2,-142.7,-48.6,0,2018,5,1,22,11,32.851,-0.7592,0.5099,-0.4037,0.0235
-0.122,1.487,-0.139,-6.6,-101.8,12.1,0,2018,5,1,22,11,32.872,-0.7473,0.5247,-0.4074,0.0138
-0.054,1.377,-0.161,12.6,-52.7,79.4,0,2018,5,1,22,11,32.891,-0.7403,0.538,-0.4028,0.0142
0.097,1.152,-0.118,36.8,-40.1,133.4,0,2018,5,1,22,11,32.91,-0.7378,0.5509,-0.3892,0.0231
0.423,0.702,0.099,60.6,-29,157.8,0,2018,5,1,22,11,32.931,-0.7367,0.5656,-0.3687,0.0354
0.723,0.004,0.426,72.9,-46.6,140,0,2018,5,1,22,11,32.952,-0.7362,0.5804,-0.3448,0.0456
0.991,-0.661,0.796,61.5,-38.2,80.7,0,2018,5,1,22,11,32.971,-0.7347,0.5933,-0.3248,0.0501
1.063,-0.857,1.093,29.3,6,1.3,0,2018,5,1,22,11,33.012,-0.7352,0.598,-0.315,0.0495
0.964,-0.459,1.131,-11.5,21.7,-72.8,0,2018,5,1,22,11,33.016,-0.7378,0.5937,-0.3178,0.0446
0.765,0.078,0.831,-44.9,20,-121,0,2018,5,1,22,11,33.035,-0.739,0.5849,-0.332,0.0361
0.456,0.542,0.494,-59.1,-4.8,-138.8,0,2018,5,1,22,11,33.05,-0.7374,0.5755,-0.3524,0.0251
0.175,0.863,0.184,-53.5,-34.9,-126.6,0,2018,5,1,22,11,33.07,-0.7319,0.5696,-0.3734,0.0123
