ax,ay,az,dpitch,droll,dyaw,heart,time_1,time_2,time_3,time_4,time_5,time_6,w,x,y,z
0.046,0.036,-0.05,-62.3,15.4,-45.7,1023,2018,5,17,21,32,7.326,0.6838,-0.5311,-0.1879,0.4636
0.028,0.04,-0.037,-59.5,16,-44.1,1023,2018,5,17,21,32,7.348,0.6833,-0.5359,-0.1749,0.4638
0.047,0.027,-0.027,-52.9,13.2,-46,1023,2018,5,17,21,32,7.351,0.6825,-0.5403,-0.1624,0.4645
0.048,-0.023,-0.031,-48.2,14.7,-45.5,1023,2018,5,17,21,32,7.389,0.6811,-0.5443,-0.1507,0.4658
0.013,-0.03,-0.025,-47.3,20.8,-43.8,1023,2018,5,17,21,32,7.412,0.6802,-0.5474,-0.1393,0.467
-0.012,0.015,-0.015,-48.7,23.2,-43.6,1023,2018,5,17,21,32,7.416,0.6798,-0.5499,-0.1277,0.468
-0.03,0.072,-0.005,-51,17.4,-46.6,1023,2018,5,17,21,32,7.434,0.6793,-0.5523,-0.1157,0.469
-0.024,0.058,0.017,-53,5.2,-54,1023,2018,5,17,21,32,7.456,0.6774,-0.5559,-0.1037,0.4702
-0.013,-0.059,0.015,-55.6,1.4,-59.5,1023,2018,5,17,21,32,7.475,0.6739,-0.561,-0.0916,0.4718
0,-0.048,-0.016,-60.4,14.1,-60.1,1023,2018,5,17,21,32,7.498,0.6706,-0.5659,-0.0785,0.4731
0.035,0.068,-0.048,-61.1,19.7,-60.1,1023,2018,5,17,21,32,7.516,0.668,-0.5697,-0.0637,0.4743
0.045,0.109,-0.022,-58.5,16.8,-60.8,1023,2018,5,17,21,32,7.54,0.665,-0.5733,-0.0486,0.4759
0.076,0.063,0.02,-55.7,2.6,-64.8,0,2018,5,17,21,32,7.557,0.6611,-0.5771,-0.0342,0.4781
0.15,0.001,-0.009,-49.9,1.6,-64.5,0,2018,5,17,21,32,7.581,0.6556,-0.5818,-0.0207,0.4808
0.209,0.005,-0.068,-38.2,10,-60.8,0,2018,5,17,21,32,7.598,0.6509,-0.585,-0.0087,0.4835
0.208,0.064,-0.083,-26.1,15.6,-57.9,0,2018,5,17,21,32,7.616,0.6474,-0.586,0.0018,0.4871
0.203,0.09,-0.085,-13.7,18.5,-55,0,2018,5,17,21,32,7.635,0.6444,-0.5856,0.0112,0.4915
0.182,0.079,-0.097,-1.9,17.9,-53,0,2018,5,17,21,32,7.658,0.6416,-0.584,0.019,0.4968
0.145,0.082,-0.123,9,18.8,-49.7,0,2018,5,17,21,32,7.694,0.6391,-0.5812,0.025,0.503
0.109,0.094,-0.134,18.8,20.5,-45.2,0,2018,5,17,21,32,7.717,0.637,-0.5774,0.03,0.5097
0.086,0.071,-0.134,28.1,24.3,-40.4,0,2018,5,17,21,32,7.721,0.6356,-0.5724,0.0333,0.5168
0.056,0.122,-0.127,37.2,24.7,-36.8,0,2018,5,17,21,32,7.739,0.635,-0.566,0.0353,0.5244
0.034,0.101,-0.114,45,13.3,-35.8,0,2018,5,17,21,32,7.757,0.6338,-0.5597,0.0357,0.5325
0,0.069,-0.067,50.2,9.2,-33.2,0,2018,5,17,21,32,7.779,0.6315,-0.5542,0.0351,0.541
-0.008,0.031,-0.056,51.3,13.9,-29.7,0,2018,5,17,21,32,7.814,0.6295,-0.5482,0.0337,0.5494
-0.029,0.039,-0.03,50.4,16.3,-29.3,0,2018,5,17,21,32,7.814,0.6283,-0.5416,0.0327,0.5573
-0.049,0.031,0.012,47.1,13.3,-31.5,0,2018,5,17,21,32,7.837,0.6271,-0.5348,0.0316,0.5652
-0.06,0.046,0.025,40.6,7.1,-34.8,0,2018,5,17,21,32,7.872,0.6253,-0.5286,0.0306,0.5732
-0.058,0.075,0.024,34.6,5.2,-35.6,1023,2018,5,17,21,32,7.895,0.6226,-0.5234,0.0302,0.5808
-0.044,0.147,-0.023,29.1,10.1,-28.8,1023,2018,5,17,21,32,7.9,0.6202,-0.5185,0.0308,0.5877
-0.022,0.277,-0.095,28.5,4.4,-19,1023,2018,5,17,21,32,7.916,0.6186,-0.5142,0.0308,0.5931
-0.015,0.3,-0.096,31.3,-12.5,-5.7,1023,2018,5,17,21,32,7.936,0.6171,-0.5115,0.0281,0.5972
-0.007,0.272,-0.075,35.3,-18.9,11.4,1023,2018,5,17,21,32,7.959,0.616,-0.5097,0.0223,0.6
-0.002,0.174,-0.058,39.3,-2.6,34.5,1023,2018,5,17,21,32,7.995,0.6175,-0.507,0.0146,0.601
-0.022,0.22,-0.059,42.9,12.1,50.6,1023,2018,5,17,21,32,8.016,0.6227,-0.5017,0.0073,0.6003
-0.04,0.233,-0.066,44,-8.5,53.2,1023,2018,5,17,21,32,8.02,0.6287,-0.4966,-0.0018,0.5983
-0.017,0.147,-0.089,45.9,-42.4,49.1,1023,2018,5,17,21,32,8.055,0.6315,-0.4946,-0.0139,0.5968
-0.001,-0.007,-0.069,47.9,-64.4,42.8,1023,2018,5,17,21,32,8.076,0.631,-0.4959,-0.0288,0.5957
0,-0.155,-0.032,49.4,-58.8,37.3,1023,2018,5,17,21,32,8.082,0.6292,-0.498,-0.0451,0.5949
-0.005,-0.164,0.004,48.2,-35.8,32.2,1023,2018,5,17,21,32,8.101,0.6283,-0.4983,-0.0594,0.5944
-0.018,-0.072,0.056,43.8,-21.1,26.1,1023,2018,5,17,21,32,8.122,0.6286,-0.4959,-0.0706,0.5947
-0.028,-0.033,0.099,36.4,-17.3,20.9,0,2018,5,17,21,32,8.139,0.6292,-0.4929,-0.0797,0.5955
-0.038,-0.036,0.125,27.2,-20.5,14,0,2018,5,17,21,32,8.16,0.6294,-0.4903,-0.0872,0.5964
-0.038,-0.058,0.126,16.8,-18.9,8.4,0,2018,5,17,21,32,8.178,0.629,-0.489,-0.0934,0.597
-0.03,-0.059,0.113,6.4,-13,4.6,0,2018,5,17,21,32,8.198,0.6285,-0.4885,-0.0975,0.5972
-0.018,-0.065,0.082,-2.3,-5.8,1.8,0,2018,5,17,21,32,8.235,0.6284,-0.4886,-0.0994,0.597
-0.008,-0.037,0.065,-7.1,-0.5,-0.1,0,2018,5,17,21,32,8.257,0.6285,-0.489,-0.0995,0.5965
-0.015,-0.011,0.04,-10.1,-2.2,-3.8,0,2018,5,17,21,32,8.263,0.6286,-0.4894,-0.099,0.5961
-0.011,-0.042,0.02,-11.7,-4.9,-7.1,0,2018,5,17,21,32,8.281,0.628,-0.4908,-0.0981,0.5957
0.004,-0.055,-0.005,-11.6,-0.8,-7.5,0,2018,5,17,21,32,8.304,0.6271,-0.4927,-0.0967,0.5953
0.012,-0.031,-0.013,-9.8,7.9,-5.3,0,2018,5,17,21,32,8.342,0.6268,-0.4938,-0.0949,0.5951
0.012,0.02,-0.019,-8.2,15.5,-1.4,0,2018,5,17,21,32,8.342,0.6275,-0.4934,-0.0925,0.595
0.003,0.084,-0.015,-7.3,14.2,1.8,0,2018,5,17,21,32,8.365,0.6289,-0.4924,-0.0898,0.5948
0.014,0.105,-0.017,-7.6,5.6,3.9,0,2018,5,17,21,32,8.398,0.63,-0.4919,-0.0877,0.5944
0.024,0.092,-0.025,-7.8,-1,6.3,0,2018,5,17,21,32,8.421,0.6306,-0.4922,-0.0868,0.5937
0.017,0.098,-0.03,-7.6,-4.3,10,0,2018,5,17,21,32,8.425,0.631,-0.4931,-0.0865,0.5925
0.008,0.103,-0.032,-7.4,-5.1,15,0,2018,5,17,21,32,8.443,0.6317,-0.494,-0.0869,0.5908
-0.005,0.13,-0.027,-7.3,-6.1,19.8,1023,2018,5,17,21,32,8.477,0.6329,-0.495,-0.0876,0.5886
0.003,0.153,-0.031,-7.7,-10.3,24.5,1023,2018,5,17,21,32,8.499,0.6344,-0.4962,-0.0888,0.5859
0.004,0.169,-0.028,-7.9,-16.3,30.1,1023,2018,5,17,21,32,8.503,0.6359,-0.4977,-0.091,0.5826
-0.011,0.192,0.004,-8.7,-19.5,37.7,1023,2018,5,17,21,32,8.524,0.6378,-0.4994,-0.0945,0.5786
-0.032,0.269,0.038,-10.9,-22.2,48.6,1023,2018,5,17,21,32,8.547,0.6405,-0.5017,-0.0996,0.5727
-0.06,0.367,0.013,-15,-27.9,63.5,1023,2018,5,17,21,32,8.567,0.6442,-0.5045,-0.1059,0.5649
-0.097,0.433,-0.001,-18.1,-38.3,83.8,1023,2018,5,17,21,32,8.586,0.6488,-0.5082,-0.1141,0.5546
-0.138,0.463,-0.061,-22.3,-54.6,106.7,1023,2018,5,17,21,32,8.608,0.6544,-0.5131,-0.1252,0.541
-0.162,0.446,-0.219,-25,-77.5,126.1,1023,2018,5,17,21,32,8.622,0.6598,-0.5202,-0.139,0.524
-0.195,0.141,-0.175,-24.2,-89.7,137.7,1023,2018,5,17,21,32,8.645,0.6642,-0.5293,-0.1561,0.5041
-0.216,-0.256,-0.02,-22.9,-79.1,139.3,1023,2018,5,17,21,32,8.663,0.6689,-0.5372,-0.1739,0.4832
-0.198,-0.543,0.077,-26.1,-45.6,126.6,1023,2018,5,17,21,32,8.686,0.6747,-0.5424,-0.189,0.4633
-0.108,-0.646,-0.07,-35.5,-10,92.5,1023,2018,5,17,21,32,8.704,0.6821,-0.5442,-0.1978,0.4463
-0.054,-0.815,-0.048,-43.3,4.7,48,0,2018,5,17,21,32,8.727,0.6888,-0.5448,-0.1999,0.4342
-0.05,-0.894,0.12,-59.3,18.3,-5.7,0,2018,5,17,21,32,8.746,0.6932,-0.5465,-0.1947,0.4274
-0.038,-0.736,0.22,-84.6,26.8,-61.3,0,2018,5,17,21,32,8.782,0.6954,-0.55,-0.1815,0.4253
0.011,-0.513,0.128,-107.1,24.6,-109.6,0,2018,5,17,21,32,8.805,0.6944,-0.5566,-0.16,0.4268
0.02,-0.389,-0.005,-116.4,21.3,-146.1,0,2018,5,17,21,32,8.809,0.6896,-0.5662,-0.1326,0.4314
-0.01,-0.43,-0.098,-115.7,29.7,-171,0,2018,5,17,21,32,8.828,0.6822,-0.5756,-0.1014,0.4392
-0.082,-0.362,-0.128,-111,54.8,-193,0,2018,5,17,21,32,8.847,0.6739,-0.582,-0.0663,0.4501
-0.157,-0.241,-0.089,-107.4,81.8,-212.7,0,2018,5,17,21,32,8.871,0.6656,-0.5842,-0.0275,0.4634
-0.226,-0.048,-0.075,-108,105.7,-223.9,0,2018,5,17,21,32,8.885,0.6575,-0.5821,0.0149,0.478
-0.223,0.146,-0.154,-108.4,116.9,-226.6,0,2018,5,17,21,32,8.921,0.6491,-0.5768,0.0595,0.4922
-0.188,0.311,-0.172,-106.1,116.4,-215.9,0,2018,5,17,21,32,8.944,0.6397,-0.5701,0.1042,0.5047
-0.097,0.439,-0.206,-97.8,102.2,-196.4,0,2018,5,17,21,32,8.95,0.63,-0.5624,0.1455,0.5152
-0.026,0.485,-0.152,-82.1,83,-170.9,0,2018,5,17,21,32,8.966,0.6197,-0.5553,0.1817,0.5239
0.04,0.497,-0.137,-64.2,65,-142.4,0,2018,5,17,21,32,8.989,0.61,-0.5486,0.2113,0.5311
0.139,0.459,-0.183,-44.3,46.9,-116,0,2018,5,17,21,32,9.005,0.6013,-0.5427,0.2343,0.5374
0.232,0.489,-0.222,-21.2,27.4,-93,0,2018,5,17,21,32,9.028,0.5936,-0.5376,0.2511,0.5435
0.295,0.5,-0.213,4.7,-1.7,-75.1,0,2018,5,17,21,32,9.063,0.5863,-0.5335,0.2613,0.5505
0.312,0.595,-0.143,30.9,-35,-55,1023,2018,5,17,21,32,9.088,0.5791,-0.5307,0.2638,0.5596
0.315,0.561,-0.184,56,-80.4,-34.9,1023,2018,5,17,21,32,9.091,0.5713,-0.5305,0.2581,0.5705
0.279,0.364,-0.201,79.5,-101,-11.6,1023,2018,5,17,21,32,9.108,0.5631,-0.5321,0.2443,0.583
0.275,0.3,-0.22,101.1,-101.3,9.6,1023,2018,5,17,21,32,9.125,0.5574,-0.5327,0.2255,0.5954
0.255,0.32,-0.219,122.4,-107.3,25.8,1023,2018,5,17,21,32,9.148,0.5539,-0.5317,0.2021,0.6078
0.098,0.232,-0.332,156.3,-163.6,57.3,1023,2018,5,17,21,32,9.166,0.5461,-0.5297,0.1383,0.6339
0.009,0.091,-0.296,169.2,-149.6,80,1023,2018,5,17,21,32,9.189,0.5424,-0.5282,0.0989,0.6456
-0.051,0.23,-0.243,180.2,-127.4,104.8,1023,2018,5,17,21,32,9.21,0.5428,-0.5226,0.0585,0.6547
-0.147,0.255,-0.304,187.2,-117.8,128.1,1023,2018,5,17,21,32,9.228,0.5465,-0.5138,0.0166,0.661
-0.236,0.215,-0.458,189.9,-118.2,148,1023,2018,5,17,21,32,9.251,0.5519,-0.5032,-0.0272,0.6643
-0.287,0.131,-0.501,194.8,-121.6,159.5,1023,2018,5,17,21,32,9.269,0.5577,-0.4911,-0.0733,0.665
-0.358,0.062,-0.378,196.5,-119.7,166.7,1023,2018,5,17,21,32,9.291,0.5631,-0.4774,-0.1204,0.6636
-0.401,0,-0.219,191.7,-99.9,171,1023,2018,5,17,21,32,9.309,0.5686,-0.4615,-0.1666,0.6601
-0.387,0.009,-0.159,182.6,-74.1,171.1,0,2018,5,17,21,32,9.332,0.5754,-0.4427,-0.2089,0.6551
-0.348,0.009,-0.278,172.1,-58.2,166.1,0,2018,5,17,21,32,9.368,0.5826,-0.4222,-0.2473,0.6489
-0.322,0.099,-0.294,162.6,-54.4,158.6,0,2018,5,17,21,32,9.391,0.5891,-0.4015,-0.2823,0.6418
-0.318,0.15,-0.183,152,-57.8,149.8,0,2018,5,17,21,32,9.395,0.5943,-0.3816,-0.3153,0.6337
-0.341,0.007,-0.03,140,-58.7,140.4,0,2018,5,17,21,32,9.408,0.598,-0.3632,-0.3466,0.6247
-0.38,-0.174,0.056,121.5,-48.4,128.1,0,2018,5,17,21,32,9.445,0.6009,-0.3461,-0.3745,0.6154
-0.366,-0.231,0.116,94.9,-28.1,112.5,0,2018,5,17,21,32,9.469,0.604,-0.3305,-0.3972,0.6066
-0.276,-0.107,0.04,66.3,-5,100.1,0,2018,5,17,21,32,9.474,0.6087,-0.3162,-0.4132,0.5988
-0.218,-0.055,-0.035,39.2,-12,81.3,0,2018,5,17,21,32,9.489,0.6139,-0.305,-0.4243,0.5915
-0.233,-0.069,0.036,18.8,-30.1,56.4,0,2018,5,17,21,32,9.512,0.6178,-0.2991,-0.4331,0.5841
-0.289,-0.177,0.284,-4.1,-52.8,34.9,0,2018,5,17,21,32,9.53,0.6194,-0.2998,-0.4406,0.5763
-0.403,-0.225,0.479,-32.6,-54.9,21.3,0,2018,5,17,21,32,9.553,0.6207,-0.3055,-0.4456,0.5681
-0.364,-0.162,0.407,-68.8,-46.6,5.5,0,2018,5,17,21,32,9.59,0.6232,-0.315,-0.4457,0.5599
-0.269,-0.146,0.164,-93.7,-33.6,-1.4,0,2018,5,17,21,32,9.59,0.6275,-0.3275,-0.4406,0.552
-0.268,-0.239,0.13,-109.5,-17.9,-4.7,0,2018,5,17,21,32,9.613,0.6335,-0.3403,-0.4317,0.5444
-0.342,-0.299,0.262,-128.7,-2.6,-6.3,0,2018,5,17,21,32,9.629,0.6412,-0.353,-0.419,0.5371
-0.378,-0.273,0.296,-155.1,10.7,-9.5,1023,2018,5,17,21,32,9.652,0.6509,-0.3663,-0.4021,0.5294
-0.364,-0.223,0.155,-181.4,16.3,-18.2,1023,2018,5,17,21,32,9.688,0.6622,-0.381,-0.3805,0.5209
-0.312,-0.228,-0.004,-199.6,13.5,-29.5,1023,2018,5,17,21,32,9.712,0.6734,-0.3981,-0.3551,0.5117
-0.32,-0.282,0,-208.2,11.5,-43.3,1023,2018,5,17,21,32,9.715,0.6831,-0.4169,-0.3272,0.5023
-0.36,-0.311,0.014,-219.7,13.7,-59.3,1023,2018,5,17,21,32,9.734,0.6913,-0.4368,-0.2966,0.4931
-0.339,-0.26,-0.112,-229.1,17.9,-78,1023,2018,5,17,21,32,9.751,0.6976,-0.4574,-0.2626,0.4848
-0.244,-0.193,-0.282,-227.5,28.1,-94.6,1023,2018,5,17,21,32,9.774,0.702,-0.4775,-0.2256,0.4777
-0.203,-0.098,-0.31,-219.7,30.2,-110.1,1023,2018,5,17,21,32,9.812,0.704,-0.496,-0.1869,0.4724
-0.182,-0.157,-0.283,-211.2,25.8,-123.8,1023,2018,5,17,21,32,9.834,0.703,-0.5137,-0.148,0.4688
-0.199,-0.187,-0.318,-207.1,36.4,-134.3,1023,2018,5,17,21,32,9.839,0.6999,-0.5299,-0.1082,0.4663
-0.175,-0.121,-0.426,-201.1,56.6,-143.6,1023,2018,5,17,21,32,9.856,0.6962,-0.5426,-0.0667,0.465
-0.084,-0.012,-0.511,-188.6,74.2,-149,1023,2018,5,17,21,32,9.875,0.6923,-0.5514,-0.0237,0.4647
-0.032,0.057,-0.493,-173.4,82.1,-152.1,1023,2018,5,17,21,32,9.893,0.6878,-0.5565,0.0188,0.4656
-0.044,0.026,-0.441,-159.3,86.9,-152.8,0,2018,5,17,21,32,9.912,0.6825,-0.5587,0.0602,0.4672
-0.085,0.09,-0.377,-147.5,94.8,-153.2,0,2018,5,17,21,32,9.932,0.6767,-0.5583,0.1008,0.4692
-0.024,0.168,-0.399,-137.1,102.8,-151.8,0,2018,5,17,21,32,9.954,0.6707,-0.5551,0.1406,0.4713
0.062,0.241,-0.391,-119.8,106.9,-146.9,0,2018,5,17,21,32,9.973,0.665,-0.5492,0.1786,0.4735
0.059,0.294,-0.363,-103.7,99.1,-143.3,0,2018,5,17,21,32,9.996,0.659,-0.5414,0.2139,0.476
0.057,0.295,-0.328,-89.2,90.7,-135.1,0,2018,5,17,21,32,10.016,0.6524,-0.5329,0.2456,0.4794
0,0.361,-0.29,-74.5,84.4,-120.5,0,2018,5,17,21,32,10.035,0.646,-0.524,0.2741,0.4824
0.168,0.422,-0.278,-56.7,74.4,-105.1,0,2018,5,17,21,32,10.056,0.6404,-0.5152,0.2988,0.4847
0.205,0.512,-0.247,-36,54.1,-91.1,0,2018,5,17,21,32,10.094,0.6355,-0.5067,0.3186,0.4875
0.244,0.546,-0.197,-15.1,25.3,-73.8,0,2018,5,17,21,32,10.117,0.6304,-0.4999,0.332,0.4922
0.279,0.541,-0.193,5.9,-3.5,-55.1,0,2018,5,17,21,32,10.122,0.6254,-0.4956,0.3392,0.4979
0.275,0.525,-0.174,28.2,-28.8,-35.8,0,2018,5,17,21,32,10.134,0.621,-0.4934,0.34,0.505
0.306,0.579,-0.199,51.3,-56.5,-15.2,0,2018,5,17,21,32,10.152,0.6174,-0.4931,0.334,0.5137
0.286,0.522,-0.219,73.7,-85.6,4.7,0,2018,5,17,21,32,10.175,0.6144,-0.4949,0.3213,0.5236
0.215,0.524,-0.221,91.3,-106.7,23.1,0,2018,5,17,21,32,10.213,0.6119,-0.4984,0.3023,0.5345
0.193,0.538,-0.249,105.9,-128.6,43.6,0,2018,5,17,21,32,10.213,0.6098,-0.5034,0.2777,0.5455
0.187,0.501,-0.285,122.6,-152.5,62.7,1023,2018,5,17,21,32,10.235,0.6077,-0.5098,0.2472,0.5563
0.143,0.393,-0.355,138.2,-173.6,77.7,1023,2018,5,17,21,32,10.273,0.6052,-0.5173,0.2111,0.5669
0.086,0.316,-0.449,149.3,-181.6,91.4,1023,2018,5,17,21,32,10.297,0.6021,-0.5248,0.1707,0.5769
0.024,0.338,-0.551,162.4,-187.5,107.8,1023,2018,5,17,21,32,10.3,0.5992,-0.531,0.1268,0.5853
-0.057,0.318,-0.607,177.1,-197.2,126.4,1023,2018,5,17,21,32,10.32,0.5963,-0.536,0.0786,0.5923
-0.186,0.227,-0.602,191.2,-188.3,150.2,1023,2018,5,17,21,32,10.337,0.5941,-0.5383,0.0263,0.597
-0.292,0.134,-0.488,204,-155.3,177.8,1023,2018,5,17,21,32,10.361,0.595,-0.5356,-0.0274,0.5985
-0.345,0.04,-0.503,215.1,-117.2,199.8,1023,2018,5,17,21,32,10.378,0.6004,-0.5259,-0.0809,0.5968
-0.399,-0.013,-0.469,225.1,-81.4,214.7,1023,2018,5,17,21,32,10.393,0.6091,-0.5094,-0.133,0.593
-0.442,-0.035,-0.379,231.6,-52.1,221,1023,2018,5,17,21,32,10.417,0.6193,-0.4868,-0.1836,0.5879
-0.491,-0.07,-0.176,234.6,-18.1,222,1023,2018,5,17,21,32,10.455,0.6311,-0.4582,-0.2309,0.5816
-0.557,-0.028,-0.007,225.7,-9.5,208.4,1023,2018,5,17,21,32,10.479,0.6415,-0.4265,-0.2748,0.5752
-0.557,-0.056,-0.022,202.8,-1.3,195.3,1023,2018,5,17,21,32,10.483,0.6502,-0.3953,-0.3141,0.5676
-0.44,-0.072,-0.283,180.9,15.7,184.6,0,2018,5,17,21,32,10.498,0.6582,-0.3648,-0.3478,0.5591
-0.513,-0.524,-0.235,170.3,65.8,177,0,2018,5,17,21,32,10.522,0.6668,-0.3322,-0.3755,0.5512
-0.688,-0.256,0.134,149.2,106.8,143.7,0,2018,5,17,21,32,10.539,0.6767,-0.2945,-0.3943,0.5474
-0.565,-0.085,0.23,107.2,105.7,113.2,0,2018,5,17,21,32,10.559,0.685,-0.261,-0.4055,0.5459
-0.453,0.015,0.178,71.8,95.4,87.7,0,2018,5,17,21,32,10.58,0.6927,-0.2331,-0.4106,0.5451
-0.42,-0.004,0.138,44.2,42.1,58.2,0,2018,5,17,21,32,10.617,0.6983,-0.2138,-0.4135,0.5437
-0.439,-0.034,0.244,14.9,-23.9,30.9,0,2018,5,17,21,32,10.636,0.7006,-0.207,-0.4181,0.5398
-0.388,-0.106,0.304,-14.4,-61,10.6,0,2018,5,17,21,32,10.638,0.7007,-0.2113,-0.423,0.534
-0.294,-0.117,0.274,-40.5,-66.5,2.5,0,2018,5,17,21,32,10.674,0.7009,-0.2217,-0.4259,0.5273
-0.223,-0.089,0.204,-58.4,-54.7,6.9,0,2018,5,17,21,32,10.694,0.7026,-0.2335,-0.4254,0.5203
-0.185,-0.03,0.101,-69.4,-38.3,15.9,0,2018,5,17,21,32,10.698,0.7065,-0.2441,-0.4221,0.5128
-0.142,0.019,0.034,-78.7,-25.8,26.6,0,2018,5,17,21,32,10.734,0.7126,-0.2528,-0.4165,0.5046
-0.104,0.026,-0.019,-87.3,-31.6,27.7,0,2018,5,17,21,32,10.756,0.72,-0.2609,-0.4102,0.495
-0.068,0.015,0.014,-91.1,-42.5,26.3,0,2018,5,17,21,32,10.761,0.7272,-0.2709,-0.4038,0.4844
-0.129,-0.089,0.113,-95.1,-45.3,23.9,0,2018,5,17,21,32,10.799,0.7338,-0.2821,-0.3971,0.4734
-0.142,-0.155,0.119,-104.8,-38.9,20,0,2018,5,17,21,32,10.82,0.7405,-0.2938,-0.389,0.4624
-0.127,-0.119,0.094,-116.5,-33.3,15.2,1023,2018,5,17,21,32,10.825,0.7476,-0.3057,-0.3787,0.4517
-0.066,-0.089,0.015,-126.1,-32,7.5,1023,2018,5,17,21,32,10.842,0.7547,-0.3186,-0.3662,0.4412
0.003,-0.059,-0.019,-128.2,-32.3,2,1023,2018,5,17,21,32,10.866,0.761,-0.3326,-0.3522,0.4313
0.008,-0.095,-0.02,-128.2,-33.1,-1.9,1023,2018,5,17,21,32,10.88,0.7664,-0.3472,-0.3377,0.4218
-0.044,-0.105,0.012,-129.2,-37.2,-7.7,1023,2018,5,17,21,32,10.899,0.7709,-0.362,-0.323,0.4124
-0.025,-0.085,0.004,-133.3,-36.3,-14.1,1023,2018,5,17,21,32,10.923,0.7748,-0.3772,-0.3074,0.4033
0.008,-0.061,-0.078,-134.3,-36,-22.9,1023,2018,5,17,21,32,10.939,0.7778,-0.393,-0.2908,0.3948
0.059,-0.064,-0.109,-132,-36.3,-32.4,1023,2018,5,17,21,32,10.963,0.7793,-0.4095,-0.2733,0.3875
0.055,-0.066,-0.084,-128.5,-34.7,-42.1,1023,2018,5,17,21,32,10.98,0.7795,-0.4259,-0.2554,0.3815
0.034,-0.089,-0.056,-126.6,-27.8,-49.3,1023,2018,5,17,21,32,11.001,0.779,-0.4415,-0.2366,0.3769
0.032,-0.067,-0.08,-128.9,-24.4,-59,1023,2018,5,17,21,32,11.039,0.778,-0.4564,-0.2166,0.3732
0.034,-0.074,-0.099,-126.8,-21.8,-71,1023,2018,5,17,21,32,11.061,0.7759,-0.4713,-0.1956,0.3707
0.061,0,-0.098,-122.3,-23.1,-82.6,1023,2018,5,17,21,32,11.065,0.7724,-0.4859,-0.1736,0.37
0.025,0.046,-0.06,-117.1,-25.6,-91.2,1023,2018,5,17,21,32,11.084,0.7676,-0.5001,-0.1514,0.3709
0.009,0.076,-0.083,-114.6,-33.9,-99.9,0,2018,5,17,21,32,11.108,0.7613,-0.5144,-0.1292,0.3728
0.03,0.113,-0.113,-109.2,-43.1,-109.8,0,2018,5,17,21,32,11.123,0.7527,-0.5297,-0.107,0.3758
0.04,0.038,-0.113,-100.9,-41.6,-117,0,2018,5,17,21,32,11.147,0.7423,-0.5449,-0.0854,0.3802
0,0.044,-0.04,-96.4,-38.5,-121.3,0,2018,5,17,21,32,11.164,0.7316,-0.5584,-0.0638,0.3857
-0.004,0.12,-0.007,-93.2,-42.1,-124.8,0,2018,5,17,21,32,11.184,0.7201,-0.5709,-0.0421,0.3919
-0.013,0.045,-0.058,-91.9,-44.2,-131.4,0,2018,5,17,21,32,11.22,0.7072,-0.5835,-0.0206,0.3985
0.049,0.005,-0.128,-88.5,-28.5,-132.8,0,2018,5,17,21,32,11.244,0.6939,-0.595,0.0014,0.4054
0.083,0.068,-0.112,-79.5,-12.8,-122.2,0,2018,5,17,21,32,11.249,0.6827,-0.6028,0.0231,0.4121
0.091,0.081,-0.075,-67.8,-3.3,-111.3,0,2018,5,17,21,32,11.267,0.673,-0.6083,0.0434,0.4183
0.048,0.061,-0.023,-57.6,6.1,-102.6,0,2018,5,17,21,32,11.301,0.6645,-0.6117,0.0626,0.4245
0.04,0.082,0.016,-49,7.7,-99.3,0,2018,5,17,21,32,11.323,0.6569,-0.6133,0.0805,0.431
0.066,0.055,-0.031,-40.1,16.6,-92.6,0,2018,5,17,21,32,11.329,0.6499,-0.6137,0.0973,0.4375
0.082,0.067,-0.092,-31.4,23.6,-84.7,0,2018,5,17,21,32,11.345,0.6444,-0.6126,0.1128,0.4434
0.085,0.07,-0.115,-21,31,-75.3,0,2018,5,17,21,32,11.367,0.6406,-0.6097,0.1262,0.4493
0.076,0.052,-0.09,-12.8,35.2,-66.4,0,2018,5,17,21,32,11.386,0.6382,-0.6056,0.138,0.4546
0.08,0.116,-0.051,-6.2,39.9,-57.7,0,2018,5,17,21,32,11.402,0.6371,-0.6005,0.1485,0.4597
0.098,0.161,-0.047,0.6,37.4,-51.3,1023,2018,5,17,21,32,11.424,0.6367,-0.5949,0.1576,0.4644
0.093,0.152,-0.013,8.5,30.4,-44.2,1023,2018,5,17,21,32,11.442,0.6365,-0.5894,0.1648,0.4692
0.074,0.085,-0.01,14.3,23.8,-39.3,1023,2018,5,17,21,32,11.466,0.6357,-0.5843,0.1711,0.4745
0.083,0.074,-0.024,19.3,16.2,-37.4,1023,2018,5,17,21,32,11.502,0.6343,-0.5797,0.1759,0.4802
0.101,0.067,-0.014,22.8,16,-35.7,1023,2018,5,17,21,32,11.525,0.6329,-0.5751,0.1794,0.4862
0.095,0.068,0,27,17.4,-33.4,1023,2018,5,17,21,32,11.53,0.6319,-0.5698,0.1824,0.4925
0.073,0.097,-0.009,31.4,14,-30.3,1023,2018,5,17,21,32,11.546,0.631,-0.5645,0.1849,0.4988
0.05,0.079,-0.042,35.3,6.6,-27.6,1023,2018,5,17,21,32,11.57,0.6301,-0.5594,0.1858,0.5053
0.079,0.116,-0.072,40.6,-2.2,-25.2,1023,2018,5,17,21,32,11.589,0.6287,-0.5551,0.1852,0.512
0.104,0.081,-0.048,50,-11.3,-22.1,1023,2018,5,17,21,32,11.626,0.6272,-0.551,0.1821,0.5193
0.069,-0.008,-0.039,57.9,-12.5,-19.9,1023,2018,5,17,21,32,11.626,0.6251,-0.5472,0.1776,0.5273
0.01,-0.02,-0.029,62.1,-7,-17.7,1023,2018,5,17,21,32,11.649,0.624,-0.5425,0.1721,0.5353
-0.029,-0.046,-0.068,63.6,-1.9,-16.3,1023,2018,5,17,21,32,11.667,0.6238,-0.5371,0.1664,0.5427
-0.07,-0.041,-0.054,65.3,-2.4,-17.9,1023,2018,5,17,21,32,11.686,0.6238,-0.5313,0.1605,0.5501
-0.094,-0.048,-0.033,64.9,-4.2,-20.3,0,2018,5,17,21,32,11.709,0.6237,-0.5251,0.154,0.558
-0.128,-0.044,0.002,62.9,-4.5,-22.7,0,2018,5,17,21,32,11.728,0.6232,-0.519,0.1479,0.5658
-0.151,-0.033,-0.012,58.6,-3.9,-25.2,0,2018,5,17,21,32,11.746,0.6224,-0.5128,0.1422,0.5739
-0.146,-0.036,-0.055,54.3,-1.7,-27.1,0,2018,5,17,21,32,11.769,0.6211,-0.5071,0.1378,0.5813
-0.158,-0.022,-0.051,50.7,2.5,-27,0,2018,5,17,21,32,11.806,0.6199,-0.5015,0.1336,0.5884
-0.157,0.036,-0.046,45.7,6.1,-25.2,0,2018,5,17,21,32,11.828,0.6191,-0.4956,0.1306,0.5948
-0.161,0.021,-0.003,38.6,2.7,-25.4,0,2018,5,17,21,32,11.833,0.6183,-0.4898,0.1281,0.6011
-0.136,0.005,-0.024,31,0.4,-27.5,0,2018,5,17,21,32,11.852,0.6168,-0.4852,0.126,0.6067
-0.119,0.079,-0.023,23.4,-1.7,-29.9,0,2018,5,17,21,32,11.887,0.6145,-0.4814,0.1249,0.6122
-0.086,0.048,-0.041,17.5,-11.4,-32.7,0,2018,5,17,21,32,11.887,0.6111,-0.479,0.1248,0.6175
-0.059,0.015,-0.006,14.9,-13.3,-34.7,0,2018,5,17,21,32,11.911,0.6068,-0.4777,0.1242,0.6229
-0.034,0.02,0.073,12.8,-5.1,-32.6,0,2018,5,17,21,32,11.93,0.6028,-0.4761,0.1244,0.628
-0.025,0.052,0.095,7.8,9.7,-27.1,0,2018,5,17,21,32,11.949,0.6002,-0.4732,0.126,0.6323
-0.016,0.125,0.073,2.6,22.5,-16.6,0,2018,5,17,21,32,11.986,0.5993,-0.4701,0.129,0.6348
0.01,0.26,0.051,0.1,28.2,-2.2,0,2018,5,17,21,32,12.008,0.6004,-0.467,0.1328,0.6353
0.009,0.409,0.072,-1.9,26,20.3,0,2018,5,17,21,32,12.014,0.6036,-0.4645,0.1352,0.6336
0.026,0.594,0.049,-6.1,-1.7,45.3,1023,2018,5,17,21,32,12.032,0.6084,-0.4643,0.1346,0.6293
0.078,0.587,-0.084,-6.1,-34.4,72,1023,2018,5,17,21,32,12.05,0.6131,-0.4684,0.1281,0.6231
0.091,0.484,-0.21,3.4,-69.7,92.2,1023,2018,5,17,21,32,12.072,0.6178,-0.4757,0.1154,0.6153
0.139,0.366,-0.309,18.1,-95.2,106.9,1023,2018,5,17,21,32,12.092,0.6215,-0.4857,0.0969,0.6069
0.134,0.253,-0.332,36.4,-106.1,116.4,1023,2018,5,17,21,32,12.112,0.625,-0.4955,0.0733,0.5986
0.077,0.163,-0.229,54.9,-104.9,123,1023,2018,5,17,21,32,12.148,0.6287,-0.5035,0.0467,0.5907
0.064,0.048,-0.171,71.7,-94.3,127.1,1023,2018,5,17,21,32,12.148,0.633,-0.5086,0.018,0.5832
0.066,-0.048,-0.219,90.8,-91.4,123,1023,2018,5,17,21,32,12.171,0.6377,-0.5104,-0.0116,0.5767
0.073,-0.092,-0.222,108.7,-92.9,119.5,1023,2018,5,17,21,32,12.19,0.6412,-0.5098,-0.0431,0.5717
0.038,-0.068,-0.162,121.3,-89.9,116.7,1023,2018,5,17,21,32,12.212,0.6435,-0.5072,-0.0762,0.568
-0.017,-0.22,-0.035,129.1,-61.2,115.6,1023,2018,5,17,21,32,12.231,0.6461,-0.5014,-0.1086,0.565
-0.132,-0.391,0.042,134.6,-19.6,100,1023,2018,5,17,21,32,12.254,0.6512,-0.4898,-0.1367,0.5631
-0.13,-0.203,0.082,131.2,-16.1,69.2,0,2018,5,17,21,32,12.273,0.6546,-0.476,-0.1609,0.5646
-0.105,-0.107,0.08,123.5,-22.8,45.8,0,2018,5,17,21,32,12.31,0.655,-0.4636,-0.1825,0.5679
-0.08,-0.146,0.013,116.8,-38.3,23.9,0,2018,5,17,21,32,12.332,0.6523,-0.4535,-0.203,0.5723
-0.104,-0.352,-0.024,111.5,-40.8,6.9,0,2018,5,17,21,32,12.336,0.6462,-0.4463,-0.2214,0.578
-0.152,-0.336,0.061,102.1,-22.8,-2.8,0,2018,5,17,21,32,12.375,0.6395,-0.4388,-0.237,0.5848
-0.141,-0.242,0.101,92,0,-12,0,2018,5,17,21,32,12.377,0.6338,-0.4305,-0.2483,0.5926
-0.092,-0.172,0.068,82,20.1,-19.1,0,2018,5,17,21,32,12.393,0.6292,-0.4208,-0.2559,0.6011
-0.094,-0.089,0.061,76.8,33.9,-22.4,0,2018,5,17,21,32,12.413,0.6258,-0.4099,-0.2607,0.6101
-0.095,-0.035,0.074,70.4,32.5,-24.1,0,2018,5,17,21,32,12.448,0.6226,-0.3988,-0.264,0.6192
-0.129,0.014,0.106,62.2,21.6,-25.4,0,2018,5,17,21,32,12.471,0.6188,-0.3896,-0.2665,0.6277
-0.107,0.023,0.084,51.3,11.1,-25.1,0,2018,5,17,21,32,12.474,0.6144,-0.3829,-0.2692,0.635
-0.045,0.024,0.027,44.6,10,-22.7,0,2018,5,17,21,32,12.51,0.6104,-0.3771,-0.2716,0.6412
-0.038,-0.022,0.021,41.5,16,-19.3,0,2018,5,17,21,32,12.531,0.6069,-0.3718,-0.2735,0.6468
-0.12,-0.029,0.142,36,29.3,-14.4,0,2018,5,17,21,32,12.534,0.6048,-0.3653,-0.2741,0.6522
-0.164,0.016,0.176,23.8,32.4,-12.2,0,2018,5,17,21,32,12.572,0.604,-0.3591,-0.2728,0.657
-0.19,0.075,0.189,10.7,17.2,-13.4,0,2018,5,17,21,32,12.595,0.6034,-0.355,-0.2707,0.6606
-0.243,0.011,0.283,-2.7,-6.6,-15.4,0,2018,5,17,21,32,12.6,0.6017,-0.3549,-0.2697,0.6626
-0.432,-0.166,0.467,-30.4,-12.7,-21.5,1023,2018,5,17,21,32,12.614,0.5996,-0.3588,-0.2684,0.663
-0.471,-0.276,0.346,-69.4,8,-29.1,1023,2018,5,17,21,32,12.633,0.5987,-0.3663,-0.2619,0.6623
-0.408,-0.318,0.093,-106.7,40,-39,1023,2018,5,17,21,32,12.651,0.6003,-0.3756,-0.2475,0.6611
-0.325,-0.202,-0.049,-137.5,60.7,-51.8,1023,2018,5,17,21,32,12.675,0.6037,-0.3861,-0.2253,0.6599
-0.275,-0.242,-0.043,-151.4,56.9,-72.2,1023,2018,5,17,21,32,12.711,0.6061,-0.3988,-0.1988,0.6587
-0.268,-0.243,-0.072,-165.1,53.5,-92,1023,2018,5,17,21,32,12.735,0.6054,-0.414,-0.1699,0.6581
-0.284,-0.205,-0.166,-178.1,63.2,-105.8,1023,2018,5,17,21,32,12.74,0.6028,-0.4303,-0.1379,0.6574
-0.209,0.003,-0.287,-184.9,73.2,-117.4,1023,2018,5,17,21,32,12.756,0.5991,-0.4463,-0.102,0.6567
-0.059,-0.055,-0.335,-174.5,72.4,-128.8,1023,2018,5,17,21,32,12.792,0.5934,-0.4612,-0.0651,0.6564
-0.015,-0.074,-0.301,-160.2,75.3,-139.4,1023,2018,5,17,21,32,12.815,0.5852,-0.4736,-0.0288,0.6574
-0.086,-0.042,-0.278,-151.2,87.2,-144,1023,2018,5,17,21,32,12.82,0.5759,-0.4834,0.0077,0.6591
-0.071,0.179,-0.365,-144.8,99.2,-142.1,1023,2018,5,17,21,32,12.838,0.5667,-0.4902,0.0453,0.6605
0.051,0.411,-0.409,-127.6,87.8,-135.6,1023,2018,5,17,21,32,12.862,0.5574,-0.4949,0.0815,0.6614
0.038,0.419,-0.28,-101.8,48.7,-127,1023,2018,5,17,21,32,12.877,0.5462,-0.4993,0.1117,0.6631
0.139,0.448,-0.221,-77.3,19.4,-110.8,0,2018,5,17,21,32,12.9,0.5333,-0.5039,0.1342,0.666
0.2,0.595,-0.217,-57,6.6,-84,0,2018,5,17,21,32,12.936,0.5213,-0.5082,0.1504,0.6687
0.286,0.756,-0.246,-31.7,-18.4,-52.6,0,2018,5,17,21,32,12.936,0.5118,-0.5121,0.1601,0.6709
0.287,0.769,-0.252,-5.9,-53.1,-19.4,0,2018,5,17,21,32,12.96,0.5038,-0.5165,0.1609,0.6733
0.263,0.802,-0.267,17.1,-89.4,19.2,0,2018,5,17,21,32,12.978,0.4974,-0.5223,0.1521,0.6756
0.253,0.805,-0.293,40.7,-113.9,63.6,0,2018,5,17,21,32,12.996,0.4936,-0.5289,0.1338,0.6772
0.181,0.722,-0.314,65.3,-123.6,111.8,0,2018,5,17,21,32,13.02,0.494,-0.5349,0.1069,0.677
0.044,0.542,-0.269,83.8,-110.3,158.2,0,2018,5,17,21,32,13.035,0.5002,-0.5384,0.0737,0.674
-0.045,0.459,-0.216,96,-85.5,196.5,0,2018,5,17,21,32,13.058,0.5129,-0.5382,0.0378,0.6676
-0.111,0.5,-0.334,109,-79.4,226.3,0,2018,5,17,21,32,13.093,0.5302,-0.5344,-0.0005,0.6581
-0.162,0.316,-0.453,132.8,-79.3,248.9,0,2018,5,17,21,32,13.117,0.5495,-0.5273,-0.0432,0.6466
-0.346,-0.147,-0.349,161.4,-68.8,268.6,0,2018,5,17,21,32,13.122,0.5702,-0.5148,-0.089,0.6338
-0.392,-0.134,-0.162,173.4,-47.8,274.4,0,2018,5,17,21,32,13.136,0.5911,-0.4972,-0.1362,0.6202
-0.42,0.015,-0.103,176.3,-27.1,273.9,0,2018,5,17,21,32,13.158,0.6126,-0.4746,-0.1817,0.6052
-0.372,0.154,-0.383,174.9,-32.9,265.4,0,2018,5,17,21,32,13.175,0.6322,-0.4494,-0.2258,0.5892
-0.374,0.066,-0.608,177.6,-45.5,249.4,0,2018,5,17,21,32,13.199,0.6476,-0.4249,-0.2694,0.5721
-0.396,-0.039,-0.543,186.5,-35.5,232.9,1023,2018,5,17,21,32,13.216,0.6591,-0.3994,-0.3117,0.5556
-0.523,-0.183,-0.105,196.8,-25.5,204,1023,2018,5,17,21,32,13.239,0.6672,-0.3714,-0.3514,0.5416
-0.73,-0.365,0.437,144.9,-10,137.5,1023,2018,5,17,21,32,13.262,0.6716,-0.3216,-0.4182,0.52
-0.559,-0.25,0.304,94.2,11,104.5,1023,2018,5,17,21,32,13.278,0.6735,-0.302,-0.4386,0.5125
-0.392,-0.264,0.083,53.2,19.5,75.1,1023,2018,5,17,21,32,13.301,0.6768,-0.2867,-0.4501,0.507
-0.4,-0.403,0.17,22.2,20.3,48.7,1023,2018,5,17,21,32,13.336,0.68,-0.2766,-0.4558,0.5031
-0.412,-0.252,0.357,-18.3,24.6,26.3,1023,2018,5,17,21,32,13.36,0.6844,-0.2704,-0.4555,0.5009
-0.38,-0.08,0.433,-58.2,-11.3,5.4,1023,2018,5,17,21,32,13.364,0.6892,-0.2718,-0.4508,0.4977
-0.364,-0.171,0.4,-92.2,-43.9,-14.3,1023,2018,5,17,21,32,13.38,0.6933,-0.2825,-0.4439,0.4923
-0.425,-0.388,0.365,-124.1,-45.8,-30.5,1023,2018,5,17,21,32,13.405,0.6972,-0.2994,-0.4337,0.4859
-0.451,-0.425,0.34,-160.4,-17.8,-44.6,1023,2018,5,17,21,32,13.424,0.7029,-0.3181,-0.4169,0.4804
-0.392,-0.299,0.234,-196,3.8,-61.5,1023,2018,5,17,21,32,13.441,0.7108,-0.3375,-0.3921,0.4764
-0.312,-0.194,0.006,-223.6,11,-77.8,1023,2018,5,17,21,32,13.478,0.7194,-0.3585,-0.3607,0.473
-0.235,-0.235,-0.15,-233.6,7.7,-94.6,1023,2018,5,17,21,32,13.478,0.7266,-0.3814,-0.3253,0.4696
-0.231,-0.224,-0.041,-236.7,9.3,-111.5,0,2018,5,17,21,32,13.502,0.7313,-0.4052,-0.2876,0.467
-0.287,-0.167,-0.02,-237.4,18.2,-129.7,0,2018,5,17,21,32,13.537,0.7335,-0.4283,-0.2473,0.466
-0.277,-0.076,-0.163,-241.8,21.4,-142.9,0,2018,5,17,21,32,13.561,0.7334,-0.4505,-0.2044,0.466
-0.194,0.118,-0.3,-238.4,10.8,-153.8,0,2018,5,17,21,32,13.565,0.7304,-0.4726,-0.1601,0.4662
-0.122,0.119,-0.389,-224,-4.8,-162.2,0,2018,5,17,21,32,13.584,0.7232,-0.495,-0.1172,0.4669
-0.094,0.068,-0.392,-204.1,-1.5,-164.8,0,2018,5,17,21,32,13.603,0.7131,-0.5157,-0.0765,0.4686
-0.078,0.12,-0.377,-186.1,10.7,-164.9,0,2018,5,17,21,32,13.641,0.7018,-0.5327,-0.0371,0.4714
-0.071,0.131,-0.313,-155.7,38.5,-149.6,0,2018,5,17,21,32,13.665,0.6808,-0.554,0.0374,0.4776
-0.092,0.18,-0.357,-142.5,43.5,-142.2,0,2018,5,17,21,32,13.669,0.6713,-0.5599,0.0724,0.4801
-0.03,0.189,-0.328,-125.8,45.3,-128.6,0,2018,5,17,21,32,13.682,0.6622,-0.5638,0.1048,0.4822
0.003,0.282,-0.272,-107.8,42.2,-112.7,0,2018,5,17,21,32,13.717,0.6542,-0.5658,0.1337,0.4836
0.067,0.207,-0.233,-90.3,41.9,-97.8,0,2018,5,17,21,32,13.741,0.6467,-0.567,0.1588,0.4846
0.069,0.203,-0.212,-76.5,46.9,-81.5,0,2018,5,17,21,32,13.745,0.6413,-0.5662,0.1808,0.4851
0.092,0.183,-0.169,-62.1,51.9,-65.2,0,2018,5,17,21,32,13.763,0.6377,-0.5641,0.1998,0.4848
0.11,0.135,-0.137,-50.6,51,-54.6,0,2018,5,17,21,32,13.786,0.6357,-0.5609,0.2162,0.484
0.138,0.171,-0.087,-41.7,47,-46.9,0,2018,5,17,21,32,13.804,0.6345,-0.5574,0.2306,0.483
0.163,0.13,-0.046,-33.7,38.8,-43.8,1023,2018,5,17,21,32,13.843,0.6332,-0.5542,0.243,0.4823
0.186,0.108,-0.027,-27.1,39.8,-42.3,1023,2018,5,17,21,32,13.843,0.6319,-0.5508,0.2542,0.4822
0.226,0.111,-0.012,-19.9,47.3,-40.5,1023,2018,5,17,21,32,13.866,0.6315,-0.5463,0.2648,0.4821
0.259,0.202,-0.001,-11.2,46.6,-39.7,1023,2018,5,17,21,32,13.903,0.6318,-0.5406,0.2746,0.4826
0.238,0.242,-0.006,-2.6,33.1,-40.5,1023,2018,5,17,21,32,13.926,0.6319,-0.535,0.2829,0.4841
0.234,0.18,-0.039,6.3,16.3,-41.7,1023,2018,5,17,21,32,13.931,0.6305,-0.5304,0.2889,0.4872
0.262,0.167,-0.066,15.6,14.3,-39.6,1023,2018,5,17,21,32,13.945,0.6289,-0.526,0.293,0.4918
0.302,0.214,-0.096,28.5,14.9,-36.9,1023,2018,5,17,21,32,13.962,0.628,-0.5206,0.2955,0.497
0.301,0.287,-0.133,44.8,5.5,-32,1023,2018,5,17,21,32,13.982,0.628,-0.5144,0.2958,0.5033
0.318,0.314,-0.187,64.9,-24.4,-27.9,1023,2018,5,17,21,32,14.02,0.6271,-0.5093,0.292,0.5117
0.301,0.267,-0.199,87.4,-46.9,-20.7,1023,2018,5,17,21,32,14.044,0.6254,-0.5054,0.2828,0.5227
0.239,0.224,-0.185,106.5,-48.8,-11.5,1023,2018,5,17,21,32,14.047,0.6243,-0.501,0.269,0.5354
0.176,0.224,-0.16,119.3,-41.3,0.5,0,2018,5,17,21,32,14.064,0.6251,-0.495,0.2529,0.5478
0.114,0.247,-0.2,128.7,-37.8,12.7,0,2018,5,17,21,32,14.088,0.6279,-0.4875,0.2354,0.559
0.089,0.342,-0.346,138.1,-57.5,22.3,0,2018,5,17,21,32,14.107,0.6308,-0.4804,0.2148,0.5701
0.02,0.407,-0.457,148.8,-96,31.1,0,2018,5,17,21,32,14.13,0.6322,-0.4755,0.1894,0.5815
-0.068,0.216,-0.413,159.3,-122.4,44.1,0,2018,5,17,21,32,14.166,0.6314,-0.4733,0.1578,0.5935
-0.125,0.153,-0.351,165.4,-117.3,59.4,0,2018,5,17,21,32,14.189,0.6308,-0.4711,0.1232,0.604
-0.145,0.269,-0.388,171.3,-112.8,74.1,0,2018,5,17,21,32,14.194,0.6317,-0.4671,0.0873,0.6123
-0.18,0.215,-0.554,177.8,-125.5,81.6,0,2018,5,17,21,32,14.204,0.6325,-0.4628,0.0492,0.619
-0.275,0.161,-0.558,184.2,-137,90.3,0,2018,5,17,21,32,14.224,0.6322,-0.458,0.0081,0.6248
-0.229,0.162,-0.529,192.3,-140.2,100.2,0,2018,5,17,21,32,14.247,0.631,-0.4528,-0.035,0.6288
-0.272,0.151,-0.475,201.1,-135.6,108.4,0,2018,5,17,21,32,14.283,0.6298,-0.4452,-0.08,0.6313
-0.329,0.093,-0.396,206,-131,115,0,2018,5,17,21,32,14.306,0.6281,-0.4352,-0.126,0.6324
-0.407,-0.034,-0.221,204,-118.1,118.9,0,2018,5,17,21,32,14.311,0.6263,-0.423,-0.1712,0.6319
-0.393,-0.01,-0.131,189.4,-101.1,123.4,0,2018,5,17,21,32,14.328,0.6251,-0.4089,-0.2139,0.6294
-0.354,0.139,-0.159,172.5,-89.9,129.4,0,2018,5,17,21,32,14.35,0.6249,-0.3942,-0.253,0.6245
-0.329,0.127,-0.246,159.2,-78.3,135.7,0,2018,5,17,21,32,14.369,0.6257,-0.3792,-0.2892,0.6171
-0.389,-0.167,-0.198,144.6,-44.7,141.3,0,2018,5,17,21,32,14.392,0.6283,-0.3624,-0.3217,0.6085
-0.465,-0.049,-0.042,128.3,-28.3,129.7,1023,2018,5,17,21,32,14.405,0.6333,-0.3428,-0.3483,0.6
-0.351,0.1,-0.032,104.4,-54.2,116.6,1023,2018,5,17,21,32,14.427,0.6362,-0.3279,-0.3724,0.5906
-0.359,0.077,-0.021,92.9,-88.6,104.8,1023,2018,5,17,21,32,14.445,0.637,-0.3183,-0.3969,0.5789
-0.42,-0.375,0.287,-11.7,-73.2,21.3,1023,2018,5,17,21,32,14.468,0.6263,-0.3226,-0.4725,0.5293
-0.357,-0.374,0.252,-43.3,-60.8,-2.7,1023,2018,5,17,21,32,14.504,0.6257,-0.3319,-0.4759,0.5212
-0.385,-0.44,0.304,-74.1,-46.2,-22.9,1023,2018,5,17,21,32,14.527,0.6262,-0.3442,-0.4735,0.5148
-0.36,-0.39,0.328,-108.2,-31.9,-40.2,1023,2018,5,17,21,32,14.531,0.6285,-0.3593,-0.4649,0.5095
-0.304,-0.337,0.282,-138.7,-21.1,-51.5,1023,2018,5,17,21,32,14.549,0.6326,-0.377,-0.4505,0.5045
-0.283,-0.361,0.207,-160.6,-3.2,-59,1023,2018,5,17,21,32,14.572,0.6385,-0.3959,-0.4311,0.4996
-0.289,-0.364,0.13,-180.7,18.3,-65.5,1023,2018,5,17,21,32,14.591,0.6462,-0.4144,-0.4068,0.495
-0.282,-0.304,0.047,-198,33.9,-76.1,1023,2018,5,17,21,32,14.614,0.6551,-0.4325,-0.3776,0.4909
-0.233,-0.228,-0.051,-209.3,46.6,-90.1,1023,2018,5,17,21,32,14.63,0.664,-0.4505,-0.3442,0.4873
-0.178,-0.125,-0.15,-213.8,50.4,-102.9,1023,2018,5,17,21,32,14.65,0.6718,-0.4683,-0.3075,0.4845
-0.139,-0.095,-0.223,-211.6,51.6,-111.6,1023,2018,5,17,21,32,14.69,0.6776,-0.4857,-0.2692,0.482
-0.158,-0.117,-0.211,-205.7,55.5,-118.6,1023,2018,5,17,21,32,14.713,0.6816,-0.5019,-0.23,0.4801
-0.177,-0.02,-0.258,-200,59.6,-127.1,0,2018,5,17,21,32,14.717,0.6839,-0.5164,-0.19,0.4789
-0.078,0.111,-0.354,-186.1,60.6,-132.7,0,2018,5,17,21,32,14.731,0.6842,-0.5293,-0.1499,0.4786
-0.021,0.116,-0.37,-165.5,56.6,-133.6,0,2018,5,17,21,32,14.749,0.6825,-0.5399,-0.1116,0.4796
0,0.034,-0.359,-145.4,60.8,-128.3,0,2018,5,17,21,32,14.773,0.6795,-0.5482,-0.0759,0.4814
-0.01,0.094,-0.32,-130.6,74.5,-120.9,0,2018,5,17,21,32,14.791,0.677,-0.5529,-0.0419,0.4837
-0.018,0.145,-0.278,-116.5,81.4,-113.2,0,2018,5,17,21,32,14.813,0.6754,-0.5543,-0.0099,0.4861
-0.049,0.202,-0.216,-108.7,81.4,-107.7,0,2018,5,17,21,32,14.832,0.6739,-0.5539,0.0208,0.4883
-0.052,0.144,-0.226,-102,75.5,-105,0,2018,5,17,21,32,14.871,0.6718,-0.553,0.05,0.4902
-0.039,0.196,-0.247,-97.6,69.3,-104,0,2018,5,17,21,32,14.871,0.6687,-0.5519,0.0781,0.4919
0.008,0.269,-0.263,-94.4,58.1,-101.1,0,2018,5,17,21,32,14.894,0.6644,-0.5511,0.1046,0.4936
0.095,0.32,-0.249,-82.9,45.8,-94.1,0,2018,5,17,21,32,14.914,0.6592,-0.5507,0.1287,0.4954
0.139,0.254,-0.175,-64.8,35.2,-86.5,0,2018,5,17,21,32,14.931,0.6534,-0.5503,0.149,0.4978
0.137,0.205,-0.123,-49.5,30.5,-76.5,0,2018,5,17,21,32,14.969,0.648,-0.5492,0.1661,0.5007
0.17,0.227,-0.106,-34.2,26.5,-65.3,0,2018,5,17,21,32,14.969,0.6432,-0.5475,0.18,0.5039
0.263,0.249,-0.117,-17.3,20.8,-53.3,0,2018,5,17,21,32,14.992,0.6396,-0.5451,0.1904,0.5074
0.295,0.237,-0.107,2.3,14.9,-44.7,0,2018,5,17,21,32,15.03,0.6366,-0.5421,0.1974,0.5115
0.254,0.202,-0.022,17.9,7.4,-38,0,2018,5,17,21,32,15.053,0.6344,-0.5385,0.2011,0.5167
0.279,0.234,-0.017,27.4,3.9,-32.1,1023,2018,5,17,21,32,15.057,0.6325,-0.5347,0.2024,0.5224
0.295,0.311,-0.023,39.3,-3.1,-27.7,1023,2018,5,17,21,32,15.075,0.6311,-0.5304,0.2019,0.5286
0.283,0.346,-0.086,50.3,-34.3,-27.7,1023,2018,5,17,21,32,15.096,0.6283,-0.5275,0.1979,0.5363
0.23,0.239,-0.082,60.9,-55.2,-24.1,1023,2018,5,17,21,32,15.133,0.6233,-0.5266,0.1901,0.5457
0.259,0.199,-0.065,69.6,-58.5,-20.3,1023,2018,5,17,21,32,15.156,0.6179,-0.526,0.1796,0.5559
0.255,0.223,-0.112,81.2,-54.2,-13.5,1023,2018,5,17,21,32,15.159,0.6134,-0.5242,0.1677,0.5663
0.184,0.16,-0.14,94.4,-58.2,-7.4,1023,2018,5,17,21,32,15.175,0.6099,-0.5211,0.1539,0.5767
0.152,0.079,-0.151,104.6,-64.6,-5,1023,2018,5,17,21,32,15.194,0.6061,-0.5175,0.1376,0.588
0.139,0.11,-0.14,111.5,-63.3,-1.9,1023,2018,5,17,21,32,15.211,0.6024,-0.5131,0.1201,0.5994
0.106,0.252,-0.166,115.9,-65.8,3.7,1023,2018,5,17,21,32,15.232,0.5989,-0.508,0.1017,0.6105
0.052,0.322,-0.236,119.6,-74.4,13.9,1023,2018,5,17,21,32,15.271,0.5955,-0.5028,0.0813,0.621
-0.029,0.136,-0.266,125.7,-85.5,23.1,1023,2018,5,17,21,32,15.295,0.5921,-0.4981,0.0582,0.6307
-0.048,0.032,-0.312,128.1,-89.2,30.6,1023,2018,5,17,21,32,15.298,0.5885,-0.4934,0.033,0.6396
-0.054,0.139,-0.313,131.1,-89.1,41.6,1023,2018,5,17,21,32,15.314,0.5853,-0.4881,0.0067,0.6472
-0.118,0.28,-0.303,135.6,-92.2,53.7,0,2018,5,17,21,32,15.337,0.583,-0.4821,-0.021,0.6535
-0.194,0.248,-0.268,141.6,-103.5,64.8,0,2018,5,17,21,32,15.356,0.5806,-0.4759,-0.0512,0.6585
-0.272,0.074,-0.256,147,-107.7,76.6,0,2018,5,17,21,32,15.379,0.5783,-0.4694,-0.0841,0.6619
-0.288,0.039,-0.323,148.9,-104.6,88.7,0,2018,5,17,21,32,15.397,0.5765,-0.4615,-0.1182,0.6637
-0.279,0.093,-0.345,151.3,-97.2,103.4,0,2018,5,17,21,32,15.42,0.5761,-0.4517,-0.153,0.6637
-0.319,0.027,-0.31,154.5,-91.4,115.8,0,2018,5,17,21,32,15.457,0.577,-0.4401,-0.1879,0.6617
-0.408,-0.046,-0.223,151.8,-89.5,120,0,2018,5,17,21,32,15.457,0.5782,-0.4271,-0.223,0.6583
-0.432,-0.036,-0.102,142.3,-87.8,120.5,0,2018,5,17,21,32,15.479,0.5794,-0.414,-0.2569,0.6533
-0.364,0.036,-0.073,126,-93,118.6,0,2018,5,17,21,32,15.495,0.5801,-0.4022,-0.2893,0.6465
-0.303,0.051,-0.179,111,-102.7,113.7,0,2018,5,17,21,32,15.534,0.58,-0.3927,-0.3203,0.6377
-0.295,-0.066,-0.176,103.7,-102.2,109.2,0,2018,5,17,21,32,15.556,0.579,-0.3849,-0.3501,0.6276
-0.304,-0.17,-0.065,96.2,-84.2,107.5,0,2018,5,17,21,32,15.559,0.5782,-0.3766,-0.3776,0.6174
-0.303,-0.157,0.025,86.2,-69.7,102.3,0,2018,5,17,21,32,15.578,0.5783,-0.3672,-0.4017,0.6075
-0.316,-0.202,0.109,71.8,-66.2,91,0,2018,5,17,21,32,15.598,0.5784,-0.3588,-0.423,0.598
-0.36,-0.292,0.193,52.4,-59.9,80.5,0,2018,5,17,21,32,15.618,0.5787,-0.3523,-0.4412,0.5884
-0.363,-0.268,0.23,26.8,-53.3,64.5,0,2018,5,17,21,32,15.641,0.5796,-0.3482,-0.4553,0.5791
-0.347,-0.313,0.231,-2.6,-56.4,41.1,0,2018,5,17,21,32,15.658,0.5806,-0.3484,-0.4651,0.57
-0.359,-0.41,0.262,-29.2,-47.2,22.7,1023,2018,5,17,21,32,15.676,0.5818,-0.3529,-0.4706,0.5615
-0.357,-0.435,0.288,-57.6,-23.4,8.6,1023,2018,5,17,21,32,15.713,0.5847,-0.3596,-0.4705,0.5543
-0.318,-0.348,0.284,-85.7,-1.3,-3.3,1023,2018,5,17,21,32,15.737,0.5902,-0.3674,-0.4642,0.5486
-0.268,-0.295,0.192,-111,9.6,-16.5,1023,2018,5,17,21,32,15.742,0.5975,-0.3772,-0.4528,0.5436
-0.222,-0.282,0.106,-131.2,16.5,-29.6,1023,2018,5,17,21,32,15.758,0.6058,-0.3888,-0.4374,0.5388
-0.198,-0.265,0.099,-146,20.4,-41.1,1023,2018,5,17,21,32,15.782,0.6147,-0.4018,-0.4191,0.5337
-0.209,-0.324,0.081,-156.2,30,-52.7,1023,2018,5,17,21,32,15.798,0.6233,-0.4159,-0.3977,0.5293
-0.191,-0.272,0.014,-167.6,48.6,-62.7,1023,2018,5,17,21,32,15.821,0.6318,-0.4304,-0.372,0.5264
-0.137,-0.159,-0.106,-174.5,63.4,-72.4,1023,2018,5,17,21,32,15.839,0.6406,-0.4441,-0.3425,0.5243
-0.094,-0.059,-0.194,-178.7,69.1,-81.7,1023,2018,5,17,21,32,15.876,0.6489,-0.4571,-0.3104,0.523
-0.055,-0.101,-0.229,-170.8,70.5,-92.9,1023,2018,5,17,21,32,15.9,0.6555,-0.4696,-0.277,0.5223
-0.07,-0.086,-0.196,-162.5,77.2,-99.7,1023,2018,5,17,21,32,15.905,0.6604,-0.4806,-0.2431,0.5231
-0.123,-0.085,-0.15,-160.9,80.3,-106.7,1023,2018,5,17,21,32,15.923,0.664,-0.4903,-0.2085,0.5245
-0.104,-0.023,-0.258,-157.6,83.5,-116.3,1023,2018,5,17,21,32,15.958,0.6661,-0.4991,-0.1728,0.5264
-0.035,0.046,-0.334,-148.6,83.3,-124.9,1023,2018,5,17,21,32,15.981,0.6664,-0.5068,-0.1367,0.5293
0.016,0.091,-0.348,-133.4,84.4,-132.2,0,2018,5,17,21,32,15.986,0.6649,-0.5125,-0.1012,0.5336
0.015,0.11,-0.301,-121.4,83.6,-134.7,0,2018,5,17,21,32,16.002,0.6618,-0.5165,-0.0668,0.5391
0.013,0.213,-0.264,-111.8,72.4,-137.1,0,2018,5,17,21,32,16.019,0.6571,-0.5196,-0.0338,0.5449
0.048,0.172,-0.308,-100.3,62.7,-137.1,0,2018,5,17,21,32,16.041,0.6505,-0.5222,-0.0032,0.5513
0.038,0.215,-0.275,-86.5,61.3,-134.7,0,2018,5,17,21,32,16.06,0.6429,-0.5236,0.0251,0.5583
0.053,0.26,-0.253,-74.3,55.5,-132,0,2018,5,17,21,32,16.082,0.6346,-0.524,0.0519,0.5656
0.073,0.266,-0.228,-61.6,56.3,-123.6,0,2018,5,17,21,32,16.101,0.6263,-0.5231,0.0765,0.5729
0.099,0.33,-0.191,-49.5,50.9,-114.6,0,2018,5,17,21,32,16.125,0.6183,-0.5208,0.0985,0.5802
0.14,0.315,-0.148,-36.7,43.9,-102.1,0,2018,5,17,21,32,16.161,0.6109,-0.5179,0.1175,0.587
0.154,0.329,-0.114,-23.6,35.5,-91.2,0,2018,5,17,21,32,16.183,0.604,-0.5145,0.1332,0.5938
0.146,0.363,-0.059,-12.6,19.8,-80.8,0,2018,5,17,21,32,16.188,0.5971,-0.5111,0.1454,0.6007
0.172,0.364,-0.056,-2.1,3.3,-69.6,0,2018,5,17,21,32,16.202,0.59,-0.5087,0.1538,0.6076
0.221,0.358,-0.055,9.6,-13.3,-58.8,0,2018,5,17,21,32,16.238,0.5828,-0.5071,0.1586,0.6147
0.219,0.386,-0.073,22.9,-31.9,-45.5,0,2018,5,17,21,32,16.262,0.5756,-0.5063,0.1593,0.6219
0.192,0.342,-0.112,36.7,-48.7,-29.1,0,2018,5,17,21,32,16.267,0.5687,-0.5062,0.1552,0.6293
0.173,0.307,-0.132,52.7,-57.2,-11.6,0,2018,5,17,21,32,16.284,0.5628,-0.5061,0.1467,0.6367
0.159,0.322,-0.156,68.7,-64.2,6.7,0,2018,5,17,21,32,16.302,0.5588,-0.5053,0.1344,0.6436
0.128,0.414,-0.193,80.4,-89.4,21.2,1023,2018,5,17,21,32,16.327,0.5553,-0.5046,0.1174,0.6504
0.107,0.391,-0.311,92.4,-118.5,36.1,1023,2018,5,17,21,32,16.345,0.5509,-0.5056,0.0948,0.657
0.07,0.206,-0.342,108.4,-132,53.1,1023,2018,5,17,21,32,16.361,0.5462,-0.507,0.0666,0.6633
0.017,0.036,-0.316,123.4,-116.3,70,1023,2018,5,17,21,32,16.383,0.5433,-0.5061,0.0356,0.6688
-0.045,0.093,-0.262,135.7,-103.4,80,1023,2018,5,17,21,32,16.422,0.5432,-0.501,0.0037,0.6736
-0.116,0.094,-0.185,146.7,-104.9,90.2,1023,2018,5,17,21,32,16.445,0.5438,-0.4943,-0.0294,0.6774
-0.145,0.094,-0.195,152.7,-108.3,100.9,1023,2018,5,17,21,32,16.45,0.5447,-0.4864,-0.0645,0.68
-0.146,0.07,-0.269,158.3,-113.6,106.6,1023,2018,5,17,21,32,16.466,0.5454,-0.4768,-0.1015,0.6817
-0.218,-0.113,-0.147,164.5,-120.4,106.3,1023,2018,5,17,21,32,16.482,0.5449,-0.4663,-0.1401,0.6825
-0.333,-0.302,0.079,159.6,-107.3,105.5,1023,2018,5,17,21,32,16.506,0.5438,-0.4546,-0.1782,0.6824
-0.373,-0.302,0.156,139.7,-76.2,104.5,1023,2018,5,17,21,32,16.542,0.544,-0.4417,-0.2118,0.6811
-0.296,-0.103,0.039,115.6,-58.4,98.4,1023,2018,5,17,21,32,16.542,0.5461,-0.4286,-0.2394,0.6786
-0.211,-0.028,-0.168,101.5,-71.1,87.5,1023,2018,5,17,21,32,16.565,0.5476,-0.4179,-0.2644,0.6748
-0.241,-0.206,-0.196,93.8,-86.6,76.6,1023,2018,5,17,21,32,16.601,0.5468,-0.4101,-0.289,0.6702
-0.221,-0.002,0.005,81.1,-45.2,63.4,1023,2018,5,17,21,32,16.624,0.5461,-0.4017,-0.3087,0.667
-0.227,-0.079,0.068,67.6,-37.1,54.3,0,2018,5,17,21,32,16.629,0.5457,-0.394,-0.3252,0.6641
-0.263,-0.065,0.19,58.5,-34.5,52.3,0,2018,5,17,21,32,16.645,0.546,-0.3868,-0.3388,0.6613
-0.277,-0.065,0.23,41.2,-42.7,47.5,0,2018,5,17,21,32,16.685,0.5462,-0.3817,-0.3513,0.6575
-0.282,-0.148,0.197,17.2,-43.8,41.5,0,2018,5,17,21,32,16.709,0.5466,-0.3798,-0.3621,0.6524
-0.203,-0.149,0.15,-7,-38.4,35.9,0,2018,5,17,21,32,16.713,0.548,-0.3808,-0.3696,0.6464
-0.133,-0.129,0.109,-24.7,-31.6,29.6,0,2018,5,17,21,32,16.726,0.5503,-0.384,-0.3742,0.6399
-0.094,-0.079,0.137,-37.9,-21,25.6,0,2018,5,17,21,32,16.744,0.5543,-0.3875,-0.376,0.6333
-0.082,-0.013,0.12,-48.2,-19.2,21.4,0,2018,5,17,21,32,16.768,0.5584,-0.3926,-0.3755,0.6268
-0.056,0.001,0.059,-55,-18,20.3,0,2018,5,17,21,32,16.785,0.5632,-0.3981,-0.3738,0.62
-0.047,0.021,0.031,-58.7,-16.3,21.4,0,2018,5,17,21,32,16.808,0.5683,-0.404,-0.3715,0.6129
-0.043,0.069,0.036,-61.2,-14.6,25.4,0,2018,5,17,21,32,16.843,0.5739,-0.4099,-0.3687,0.6053
-0.049,0.099,0.034,-64.6,-12.7,30.9,0,2018,5,17,21,32,16.866,0.5804,-0.4154,-0.3657,0.5972
-0.058,0.089,0.004,-68.2,-9.5,38.1,0,2018,5,17,21,32,16.87,0.5879,-0.4204,-0.3624,0.5883
-0.061,0.053,-0.094,-70.5,-13.6,42.3,0,2018,5,17,21,32,16.889,0.5957,-0.4259,-0.3598,0.5779
-0.055,0,-0.097,-70.3,-12.5,45.9,0,2018,5,17,21,32,16.926,0.6034,-0.4319,-0.358,0.5666
-0.073,-0.028,-0.032,-70.6,-6.7,47.5,0,2018,5,17,21,32,16.926,0.6116,-0.4369,-0.3558,0.5552
-0.08,-0.046,-0.032,-72.8,-6.3,43.4,0,2018,5,17,21,32,16.949,0.6201,-0.4414,-0.3528,0.544
-0.052,-0.089,-0.074,-74.8,-8,35.6,1023,2018,5,17,21,32,16.963,0.6278,-0.4468,-0.3493,0.533
-0.022,-0.103,-0.071,-73.9,-12.8,26.1,1023,2018,5,17,21,32,16.986,0.634,-0.4534,-0.3452,0.5226
-0.016,-0.137,-0.031,-73.5,-19.3,15.6,1023,2018,5,17,21,32,17.021,0.6387,-0.4611,-0.3406,0.5131
-0.021,-0.204,-0.007,-75.1,-19.2,4.1,1023,2018,5,17,21,32,17.043,0.6421,-0.4696,-0.3353,0.5045
0.01,-0.216,-0.019,-77,-10.3,-7.4,1023,2018,5,17,21,32,17.046,0.6448,-0.4785,-0.3283,0.4972
0.025,-0.2,-0.01,-77,0.8,-18.3,1023,2018,5,17,21,32,17.082,0.6473,-0.4869,-0.3191,0.4918
0.027,-0.16,0.035,-77.8,7.4,-28.8,1023,2018,5,17,21,32,17.105,0.6497,-0.4946,-0.3079,0.4881
0.028,-0.115,0.047,-79.7,8.9,-38.8,1023,2018,5,17,21,32,17.111,0.6516,-0.5023,-0.2952,0.4856
0.05,-0.084,-0.008,-81,9.3,-46.1,1023,2018,5,17,21,32,17.148,0.6527,-0.5104,-0.2813,0.484
0.073,-0.074,-0.058,-79.1,13,-50,1023,2018,5,17,21,32,17.17,0.653,-0.5188,-0.2667,0.4829
0.069,-0.054,-0.071,-74.6,20.2,-51.9,1023,2018,5,17,21,32,17.175,0.6531,-0.5265,-0.2518,0.4824
0.071,-0.051,-0.052,-69.6,28.6,-52.9,1023,2018,5,17,21,32,17.209,0.6535,-0.5327,-0.2366,0.4828
0.043,-0.038,-0.028,-65.5,40.3,-54,1023,2018,5,17,21,32,17.232,0.6545,-0.537,-0.2209,0.4841
0.047,0.01,-0.052,-62.9,46.7,-55.2,0,2018,5,17,21,32,17.236,0.6562,-0.5396,-0.2046,0.486
0.068,0.043,-0.112,-58.7,44.5,-56.9,0,2018,5,17,21,32,17.251,0.6574,-0.5419,-0.1884,0.4884
0.066,0.073,-0.115,-52.8,40.6,-58.8,0,2018,5,17,21,32,17.266,0.6583,-0.5435,-0.1729,0.4911
0.05,0.075,-0.073,-38.3,37.7,-63.9,0,2018,5,17,21,32,17.29,0.6565,-0.5469,-0.1442,0.499
0.035,0.082,-0.064,-32.8,41.3,-59.8,0,2018,5,17,21,32,17.327,0.6554,-0.5471,-0.1303,0.504
0.037,0.084,-0.033,-26.7,40.6,-52.9,0,2018,5,17,21,32,17.351,0.6546,-0.5464,-0.1175,0.5088
0.015,0.08,0.035,-20.6,39.9,-45.2,0,2018,5,17,21,32,17.354,0.6545,-0.5445,-0.1064,0.5134
0.011,0.154,0.044,-18.1,35.1,-39.3,0,2018,5,17,21,32,17.373,0.6548,-0.542,-0.0965,0.5177
0.005,0.153,0.037,-16.7,33.2,-34.1,0,2018,5,17,21,32,17.411,0.655,-0.5399,-0.0883,0.521
0.004,0.12,-0.03,-18.7,33.6,-29,0,2018,5,17,21,32,17.413,0.6555,-0.5378,-0.0796,0.524
-0.014,0.087,-0.053,-20.7,28.6,-24.7,0,2018,5,17,21,32,17.449,0.6563,-0.5362,-0.0716,0.5259
-0.046,-0.007,0.003,-22.9,17.1,-24.4,0,2018,5,17,21,32,17.449,0.6563,-0.5358,-0.065,0.527
-0.12,0.029,0.123,-31.1,9.6,-29.8,0,2018,5,17,21,32,17.469,0.6557,-0.5366,-0.0589,0.5277
-0.093,-0.057,0.066,-30,5,-44.6,0,2018,5,17,21,32,17.507,0.6532,-0.5388,-0.0517,0.5293
-0.042,-0.123,-0.071,-34.4,12.9,-50.8,0,2018,5,17,21,32,17.526,0.65,-0.5411,-0.0436,0.5316
0.043,-0.142,-0.151,-34.6,22.8,-55.5,0,2018,5,17,21,32,17.532,0.647,-0.5426,-0.0331,0.5344
0.054,-0.098,-0.179,-27.8,26.3,-57.5,0,2018,5,17,21,32,17.551,0.6444,-0.5427,-0.022,0.5381
0.064,0.011,-0.165,-21.1,16,-61.5,0,2018,5,17,21,32,17.572,0.6411,-0.5424,-0.012,0.5427
0.096,0.094,-0.116,-10,-3.8,-69.7,0,2018,5,17,21,32,17.61,0.6355,-0.5431,-0.0038,0.5486
0.095,0.092,-0.095,0.4,-22.3,-77.5,1023,2018,5,17,21,32,17.633,0.627,-0.5449,0.0021,0.5565
0.091,0.021,-0.095,11.1,-30.1,-80.5,1023,2018,5,17,21,32,17.637,0.6167,-0.5472,0.0063,0.5657
0.052,-0.062,-0.028,22.5,-19.9,-80.4,1023,2018,5,17,21,32,17.653,0.6058,-0.5487,0.0096,0.576
0.022,0.003,0.012,28.1,-7.3,-79.5,1023,2018,5,17,21,32,17.676,0.5965,-0.5472,0.0129,0.5869
-0.003,0.107,0.055,28.5,-7,-81,1023,2018,5,17,21,32,17.692,0.5877,-0.5441,0.0173,0.5984
-0.021,0.038,0.063,26.3,-14.7,-83.3,1023,2018,5,17,21,32,17.73,0.5781,-0.5414,0.0216,0.61
-0.054,-0.083,0.114,21.2,-8.5,-84.9,1023,2018,5,17,21,32,17.73,0.5681,-0.5393,0.0252,0.621
-0.082,-0.078,0.136,11.5,13,-83.9,1023,2018,5,17,21,32,17.753,0.5593,-0.5368,0.0317,0.6308
-0.095,-0.011,0.116,1.2,29.6,-84.5,1023,2018,5,17,21,32,17.79,0.5521,-0.5332,0.0413,0.6395
-0.083,0.065,0.07,-6.7,29.8,-84.1,1023,2018,5,17,21,32,17.812,0.5458,-0.5292,0.0528,0.6474
-0.066,0.062,0.096,-12.6,25.4,-79.9,1023,2018,5,17,21,32,17.815,0.539,-0.5262,0.0646,0.6544
-0.059,0.07,0.089,-18.3,30.6,-71.8,1023,2018,5,17,21,32,17.837,0.5329,-0.5235,0.0758,0.6604
-0.062,0.137,0.082,-22.4,39.9,-58.5,1023,2018,5,17,21,32,17.854,0.5283,-0.5215,0.0877,0.6641
-0.026,0.217,0.058,-23.7,44.9,-39.8,1023,2018,5,17,21,32,17.878,0.5262,-0.5196,0.0995,0.6657
0.026,0.248,0.087,-21.3,36.6,-19.3,1023,2018,5,17,21,32,17.896,0.5261,-0.5178,0.1089,0.6656
0.081,0.23,0.102,-17.3,29.6,2.2,0,2018,5,17,21,32,17.934,0.5278,-0.5168,0.1149,0.6641
0.096,0.241,0.084,-11.7,23,22.5,0,2018,5,17,21,32,17.957,0.5313,-0.5164,0.1182,0.661
0.145,0.289,0.029,-5.9,16.9,41.7,0,2018,5,17,21,32,17.96,0.5367,-0.5162,0.1183,0.6567
0.3,0.358,-0.023,7.5,5.7,60.9,0,2018,5,17,21,32,17.976,0.5436,-0.5161,0.1149,0.6517
0.302,0.385,-0.014,27,-9.4,79.3,0,2018,5,17,21,32,17.999,0.5519,-0.5158,0.1068,0.6464
0.21,0.246,0.002,43.1,-18.1,93.4,0,2018,5,17,21,32,18.014,0.5608,-0.515,0.0942,0.6412
0.208,0.188,-0.054,54.3,-9.6,108.1,0,2018,5,17,21,32,18.035,0.5715,-0.5126,0.0788,0.6358
0.28,0.162,-0.139,67.8,2.5,115.4,0,2018,5,17,21,32,18.072,0.5844,-0.5076,0.0626,0.6298
0.26,0.112,-0.319,83.1,15.4,120,0,2018,5,17,21,32,18.094,0.5988,-0.4997,0.0455,0.6241
0.234,0.257,-0.423,101.4,17.1,123.1,0,2018,5,17,21,32,18.099,0.6141,-0.4886,0.0274,0.619
0.123,0.258,-0.477,120.1,8.3,126.8,0,2018,5,17,21,32,18.116,0.629,-0.4757,0.0063,0.6147
0.052,0.282,-0.42,139.6,-6.3,129.3,0,2018,5,17,21,32,18.14,0.6427,-0.4618,-0.0181,0.6109
0.002,0.254,-0.42,156.4,-22.4,127.9,0,2018,5,17,21,32,18.157,0.6543,-0.4471,-0.0467,0.608
-0.065,0.16,-0.516,170.3,-35.2,120.6,0,2018,5,17,21,32,18.181,0.6635,-0.4317,-0.0782,0.6059
-0.09,0.133,-0.609,183.7,-45.2,113.4,0,2018,5,17,21,32,18.198,0.6699,-0.4158,-0.1117,0.6047
-0.129,0.103,-0.636,196.2,-57.2,108.5,0,2018,5,17,21,32,18.216,0.6736,-0.3992,-0.1474,0.6041
-0.243,0.023,-0.543,204.9,-61.3,103.4,0,2018,5,17,21,32,18.237,0.6748,-0.3818,-0.1849,0.6038
-0.346,-0.082,-0.373,208,-53.2,94.2,0,2018,5,17,21,32,18.255,0.674,-0.3631,-0.2221,0.6036
-0.379,-0.036,-0.269,204.3,-39.3,80.6,1023,2018,5,17,21,32,18.279,0.6719,-0.3427,-0.2567,0.6042
-0.357,0.102,-0.273,195.2,-47.6,61.1,1023,2018,5,17,21,32,18.295,0.6673,-0.3231,-0.2887,0.6057
-0.356,0.156,-0.269,185.6,-67.6,46.6,1023,2018,5,17,21,32,18.318,0.6596,-0.3069,-0.3198,0.6069
-0.365,0.135,-0.224,171.7,-91.5,35.8,1023,2018,5,17,21,32,18.356,0.6492,-0.2947,-0.3508,0.607
-0.419,-0.078,-0.081,158.9,-109.1,29.7,1023,2018,5,17,21,32,18.38,0.6369,-0.2867,-0.3818,0.6052
-0.578,-0.353,0.116,139.1,-103,23.5,1023,2018,5,17,21,32,18.383,0.624,-0.2809,-0.411,0.6022
-0.663,-0.352,0.285,103.1,-73,15,1023,2018,5,17,21,32,18.401,0.6128,-0.2761,-0.4342,0.5995
-0.581,-0.182,0.331,55.5,-53,-1,1023,2018,5,17,21,32,18.437,0.6046,-0.2739,-0.4493,0.5978
-0.462,-0.016,0.297,13.1,-52.8,-18,1023,2018,5,17,21,32,18.459,0.5985,-0.2767,-0.4576,0.5964
-0.381,0.026,0.24,-23.9,-71.1,-31.6,1023,2018,5,17,21,32,18.464,0.5933,-0.2859,-0.4621,0.5937
-0.331,0.016,0.191,-54.3,-92.5,-34.1,1023,2018,5,17,21,32,18.482,0.5889,-0.3014,-0.4646,0.5885
-0.333,0.017,0.201,-78.4,-98.9,-26.1,1023,2018,5,17,21,32,18.498,0.5859,-0.3207,-0.4661,0.5801
-0.306,0.045,0.172,-101.5,-88.3,-15.2,1023,2018,5,17,21,32,18.522,0.5858,-0.341,-0.4651,0.5692
-0.278,0.079,0.079,-122.6,-77.4,-6.1,0,2018,5,17,21,32,18.54,0.589,-0.3614,-0.4609,0.5567
-0.26,0.061,0.018,-137.9,-71.2,0.3,0,2018,5,17,21,32,18.557,0.5943,-0.3818,-0.4543,0.5426
-0.287,-0.022,0.067,-148.6,-64.1,8.2,0,2018,5,17,21,32,18.581,0.6014,-0.4018,-0.446,0.527
-0.275,-0.078,0.096,-162.4,-54.2,12.7,0,2018,5,17,21,32,18.618,0.6101,-0.4214,-0.4356,0.5101
-0.32,-0.186,0.116,-178.1,-44.6,12.2,0,2018,5,17,21,32,18.641,0.6203,-0.4406,-0.4227,0.4922
-0.344,-0.256,0.073,-197.8,-28.3,7.6,0,2018,5,17,21,32,18.646,0.6319,-0.4597,-0.406,0.4736
-0.302,-0.223,0.008,-218,-22,-2.6,0,2018,5,17,21,32,18.663,0.6446,-0.479,-0.3849,0.4546
-0.235,-0.224,-0.028,-230.5,-28.3,-18.2,0,2018,5,17,21,32,18.683,0.6563,-0.5,-0.3603,0.4349
-0.212,-0.364,-0.018,-238.6,-28.7,-32.7,0,2018,5,17,21,32,18.706,0.6659,-0.5226,-0.3331,0.4152
-0.21,-0.451,0.004,-241.8,-7,-44.2,0,2018,5,17,21,32,18.721,0.6748,-0.5438,-0.3027,0.3963
-0.146,-0.411,-0.072,-241.4,18.2,-57.3,0,2018,5,17,21,32,18.757,0.6841,-0.562,-0.2685,0.3793
-0.097,-0.347,-0.168,-237,34.9,-71.5,0,2018,5,17,21,32,18.777,0.6931,-0.577,-0.2315,0.3645
-0.012,-0.309,-0.201,-225.6,45,-82,0,2018,5,17,21,32,18.783,0.701,-0.5894,-0.1929,0.3519
0.04,-0.321,-0.22,-211.6,56,-88.7,0,2018,5,17,21,32,18.799,0.7076,-0.599,-0.1542,0.3413
0.076,-0.277,-0.224,-194.5,67,-93.7,0,2018,5,17,21,32,18.823,0.7135,-0.6054,-0.1158,0.3328
0.099,-0.245,-0.283,-173.4,75.6,-102.5,0,2018,5,17,21,32,18.86,0.7186,-0.6086,-0.0784,0.3269
0.138,-0.193,-0.341,-153.9,84.1,-112.9,0,2018,5,17,21,32,18.884,0.7227,-0.6089,-0.0418,0.3241
0.264,-0.181,-0.335,-130.2,92.9,-119.7,0,2018,5,17,21,32,18.888,0.7261,-0.6061,-0.0066,0.3242
0.333,-0.151,-0.356,-105.4,103,-124,0,2018,5,17,21,32,18.903,0.7294,-0.6001,0.0266,0.3272
0.252,-0.118,-0.34,-82.8,114.6,-127.9,1023,2018,5,17,21,32,18.926,0.7329,-0.5905,0.0578,0.3328
0.19,-0.031,-0.335,-66.4,121,-134.6,1023,2018,5,17,21,32,18.943,0.7362,-0.5781,0.0879,0.3404
0.218,0.082,-0.376,-51.2,112.9,-144.4,1023,2018,5,17,21,32,18.977,0.7384,-0.5641,0.1166,0.3504
0.248,0.203,-0.392,-34.6,92.3,-150.8,1023,2018,5,17,21,32,19,0.7382,-0.5501,0.1431,0.3629
0.224,0.228,-0.431,-16.1,64.4,-155,1023,2018,5,17,21,32,19.005,0.735,-0.5378,0.166,0.378
0.154,0.239,-0.436,2.9,43.9,-153.6,1023,2018,5,17,21,32,19.021,0.7292,-0.5268,0.1849,0.3955
0.142,0.272,-0.445,23.3,34.2,-145,1023,2018,5,17,21,32,19.043,0.7225,-0.5162,0.1997,0.4142
0.166,0.307,-0.467,45.6,33.4,-132.9,1023,2018,5,17,21,32,19.081,0.7163,-0.5046,0.2104,0.4333
0.131,0.395,-0.455,67,32.8,-117.6,1023,2018,5,17,21,32,19.104,0.7117,-0.4915,0.2172,0.4522
0.09,0.505,-0.468,86.4,12.1,-101.3,1023,2018,5,17,21,32,19.108,0.7078,-0.4785,0.2191,0.4711
0.071,0.47,-0.493,106.8,-19.2,-82.5,1023,2018,5,17,21,32,19.126,0.7034,-0.4676,0.2146,0.4903
0.028,0.374,-0.483,128,-43.3,-60.9,1023,2018,5,17,21,32,19.143,0.6988,-0.4587,0.2031,0.5098
-0.006,0.323,-0.456,144.6,-51.4,-41,1023,2018,5,17,21,32,19.164,0.695,-0.4506,0.1862,0.5283
-0.079,0.332,-0.492,160.1,-55.3,-21.4,1023,2018,5,17,21,32,19.199,0.6926,-0.442,0.1654,0.5453
-0.148,0.282,-0.494,175.8,-68.2,-6.1,0,2018,5,17,21,32,19.221,0.6911,-0.4331,0.1405,0.5611
-0.228,0.25,-0.498,191.6,-85.8,10.6,0,2018,5,17,21,32,19.227,0.6897,-0.4244,0.1108,0.576
-0.275,0.27,-0.526,206.3,-108.6,26.1,0,2018,5,17,21,32,19.243,0.6877,-0.4163,0.0759,0.5897
-0.343,0.113,-0.459,220.1,-118.8,42.3,0,2018,5,17,21,32,19.264,0.6851,-0.4085,0.036,0.6019
-0.402,0.054,-0.424,230.1,-113.4,59.1,0,2018,5,17,21,32,19.301,0.6828,-0.3987,-0.0069,0.612
-0.462,0.038,-0.384,236.7,-101.4,72.8,0,2018,5,17,21,32,19.324,0.6815,-0.3857,-0.0509,0.6197
-0.483,0.073,-0.357,238.7,-100.6,79.8,0,2018,5,17,21,32,19.329,0.6801,-0.3709,-0.0951,0.625
-0.498,-0.001,-0.248,238.4,-105,84.8,0,2018,5,17,21,32,19.346,0.6777,-0.3551,-0.14,0.6283
-0.52,-0.009,-0.173,230.3,-106.3,86.5,0,2018,5,17,21,32,19.368,0.674,-0.3391,-0.1849,0.6296
-0.487,0.05,-0.155,216.2,-109.8,86.1,0,2018,5,17,21,32,19.387,0.6691,-0.3237,-0.2284,0.6286
-0.456,0.066,-0.151,198.5,-120.6,84.5,0,2018,5,17,21,32,19.423,0.663,-0.3105,-0.27,0.6252
-0.448,-0.032,-0.143,180.7,-132.1,83.4,0,2018,5,17,21,32,19.447,0.6557,-0.3002,-0.3103,0.6193
-0.652,-0.408,0.291,136.2,-112.5,86.6,0,2018,5,17,21,32,19.45,0.6417,-0.2841,-0.3825,0.6009
-0.52,-0.174,0.172,48.4,-81.9,56.4,0,2018,5,17,21,32,19.467,0.6351,-0.2749,-0.4293,0.5802
-0.359,-0.156,0.056,14.7,-87.7,32.7,0,2018,5,17,21,32,19.483,0.6332,-0.2779,-0.4431,0.5704
-0.263,-0.204,0.093,-7.1,-94.5,13.4,0,2018,5,17,21,32,19.506,0.6306,-0.286,-0.4535,0.5609
-0.3,-0.331,0.259,-26.5,-97.4,3.9,0,2018,5,17,21,32,19.525,0.6282,-0.297,-0.4617,0.5511
-0.311,-0.36,0.315,-52.5,-84.1,-2.4,1023,2018,5,17,21,32,19.546,0.6266,-0.3108,-0.4662,0.5416
-0.242,-0.283,0.239,-74.4,-63.6,-8.7,1023,2018,5,17,21,32,19.584,0.6272,-0.3253,-0.4657,0.5326
-0.157,-0.194,0.17,-94.1,-47.4,-18,1023,2018,5,17,21,32,19.606,0.6302,-0.3395,-0.4605,0.5247
-0.121,-0.13,0.14,-111.8,-43,-26.9,1023,2018,5,17,21,32,19.611,0.6343,-0.3548,-0.4516,0.5174
-0.095,-0.099,0.081,-126.2,-43.8,-32.7,1023,2018,5,17,21,32,19.631,0.6386,-0.372,-0.4403,0.5096
-0.038,-0.056,0.002,-132.7,-41.9,-33.6,1023,2018,5,17,21,32,19.649,0.6428,-0.3906,-0.4275,0.5013
-0.018,-0.068,-0.044,-133.7,-34.1,-32.7,1023,2018,5,17,21,32,19.688,0.6469,-0.4091,-0.4138,0.4927
0,-0.057,-0.059,-130.4,-19.9,-29.1,1023,2018,5,17,21,32,19.688,0.6513,-0.4261,-0.3992,0.4845
0.011,-0.032,-0.053,-124.1,-6.9,-25.1,1023,2018,5,17,21,32,19.711,0.6565,-0.4405,-0.3839,0.4769
0.051,0.021,-0.08,-114.8,0.8,-20.4,1023,2018,5,17,21,32,19.747,0.6618,-0.4527,-0.3687,0.47
0.062,0.034,-0.09,-103.2,0.4,-14.7,1023,2018,5,17,21,32,19.752,0.6667,-0.4634,-0.3545,0.4635
0.053,0.023,-0.08,-92.3,-2.3,-9.9,1023,2018,5,17,21,32,19.77,0.671,-0.4729,-0.3422,0.457
0.02,-0.022,-0.031,-84.3,-1.1,-5.8,1023,2018,5,17,21,32,19.805,0.675,-0.481,-0.3314,0.4504
0.002,0,-0.015,-79.3,2.7,-3.6,1023,2018,5,17,21,32,19.828,0.6793,-0.4877,-0.3213,0.4442
-0.023,-0.028,-0.006,-76.5,2.9,-4,1023,2018,5,17,21,32,19.832,0.6835,-0.4937,-0.3116,0.4381
-0.04,-0.047,0.007,-77.2,4.6,-5.5,0,2018,5,17,21,32,19.85,0.6875,-0.4993,-0.302,0.432
-0.04,-0.044,0.002,-80,7.5,-7,0,2018,5,17,21,32,19.869,0.6918,-0.5046,-0.2918,0.426
-0.025,-0.025,-0.027,-83.1,12.2,-9.1,0,2018,5,17,21,32,19.891,0.6961,-0.5099,-0.2808,0.4201
-0.009,-0.015,-0.053,-84.6,16.6,-11.7,0,2018,5,17,21,32,19.91,0.7005,-0.515,-0.2688,0.4143
0,-0.009,-0.054,-82.8,19.4,-13.3,0,2018,5,17,21,32,19.933,0.7048,-0.5198,-0.2562,0.409
0.003,0.002,-0.051,-80.6,20,-15,0,2018,5,17,21,32,19.952,0.7089,-0.5241,-0.2435,0.4041
0.01,0.02,-0.055,-78.2,18.2,-17.6,0,2018,5,17,21,32,19.976,0.7125,-0.5283,-0.2309,0.3995
0.021,0.048,-0.074,-76.1,15,-20.4,0,2018,5,17,21,32,19.988,0.7154,-0.5329,-0.2184,0.3954
0.046,0.06,-0.084,-72.5,10.4,-23.2,0,2018,5,17,21,32,20.025,0.7174,-0.5378,-0.206,0.3917
0.066,0.055,-0.079,-67.9,8,-24.3,0,2018,5,17,21,32,20.046,0.7185,-0.543,-0.1939,0.3887
0.053,0.015,-0.037,-63.3,9.3,-23.2,0,2018,5,17,21,32,20.05,0.7194,-0.5478,-0.1824,0.3859
0.038,0.009,-0.025,-60.3,14.2,-22.1,0,2018,5,17,21,32,20.072,0.7206,-0.5515,-0.1714,0.3834
0.037,0.034,-0.027,-58,16.6,-22.6,0,2018,5,17,21,32,20.094,0.7222,-0.5543,-0.1604,0.3811
0.04,0.065,-0.034,-56,13.1,-24.8,0,2018,5,17,21,32,20.112,0.7234,-0.557,-0.1496,0.3793
0.051,0.079,-0.041,-53.5,5.6,-26.1,0,2018,5,17,21,32,20.132,0.7238,-0.5603,-0.1391,0.3778
0.055,0.051,-0.038,-49.6,1,-25.4,0,2018,5,17,21,32,20.155,0.7232,-0.5643,-0.1293,0.3764
0.057,0.024,-0.018,-44,1.4,-23.4,1023,2018,5,17,21,32,20.173,0.7224,-0.568,-0.1204,0.3752
0.043,0.015,-0.004,-39.4,4.1,-22,1023,2018,5,17,21,32,20.195,0.7219,-0.571,-0.1123,0.3742
0.03,0.024,0.003,-35.9,6.2,-21,1023,2018,5,17,21,32,20.212,0.7216,-0.5732,-0.1047,0.3736
0.039,0.032,-0.001,-32.7,6.8,-21,1023,2018,5,17,21,32,20.23,0.7215,-0.5749,-0.0975,0.3732
0.039,0.049,-0.001,-29.4,5.2,-20,1023,2018,5,17,21,32,20.254,0.7212,-0.5764,-0.0909,0.3731
0.035,0.048,0.003,-26.1,3.8,-17.5,1023,2018,5,17,21,32,20.269,0.7208,-0.5779,-0.0848,0.3731
0.021,0.047,0.008,-22.7,3.2,-15.3,1023,2018,5,17,21,32,20.293,0.7205,-0.5789,-0.0796,0.3731
0.014,0.054,0.014,-20,2.2,-12.9,1023,2018,5,17,21,32,20.329,0.7202,-0.5799,-0.0751,0.3731
0.013,0.039,0.001,-17.6,0.7,-10.7,1023,2018,5,17,21,32,20.352,0.7198,-0.5809,-0.0713,0.3729
0.014,0.037,0.001,-15.4,1.3,-8.6,1023,2018,5,17,21,32,20.356,0.7195,-0.5819,-0.068,0.3727
0.006,0.022,0.008,-13.5,2.2,-6.8,1023,2018,5,17,21,32,20.375,0.7194,-0.5825,-0.0652,0.3725
0,0.015,0.007,-12.6,3.6,-5.8,1023,2018,5,17,21,32,20.412,0.7197,-0.5826,-0.063,0.3722
-0.01,0.021,0.006,-12.5,3.3,-6.1,1023,2018,5,17,21,32,20.435,0.72,-0.5827,-0.0607,0.3719
-0.009,0.031,0.008,-12.5,0,-7.8,1023,2018,5,17,21,32,20.44,0.72,-0.583,-0.0584,0.3717
-0.004,0.006,0.007,-12.3,-2,-8.6,1023,2018,5,17,21,32,20.457,0.7195,-0.5839,-0.0563,0.3716
-0.004,-0.004,0.018,-11.8,-0.9,-8.9,0,2018,5,17,21,32,20.493,0.719,-0.5847,-0.0541,0.3715
-0.002,0.011,0.016,-11.9,1.4,-9.6,0,2018,5,17,21,32,20.517,0.7188,-0.585,-0.052,0.3717
-0.005,0.019,0.006,-12.1,1.8,-10.7,0,2018,5,17,21,32,20.521,0.7186,-0.5854,-0.0495,0.3719
0.003,0.017,0.003,-11.7,1.6,-10.5,0,2018,5,17,21,32,20.536,0.7182,-0.586,-0.0467,0.3721
0.005,0.013,0.009,-10.6,1.9,-9.9,0,2018,5,17,21,32,20.572,0.7179,-0.5864,-0.0442,0.3724
0.005,0.008,0.022,-8.6,1.6,-9.6,0,2018,5,17,21,32,20.595,0.7176,-0.5866,-0.0419,0.3728
-0.002,0.017,0.03,-7.5,1.8,-9.6,0,2018,5,17,21,32,20.6,0.7174,-0.5867,-0.0398,0.3734
-0.005,-0.015,0.029,-7,2.9,-9.7,0,2018,5,17,21,32,20.616,0.7171,-0.5867,-0.0378,0.3741
0,-0.021,0.031,-7,6.7,-9,0,2018,5,17,21,32,20.634,0.7173,-0.5863,-0.0358,0.3746
-0.009,-0.034,0.022,-7.3,8.2,-9.4,0,2018,5,17,21,32,20.658,0.7176,-0.5856,-0.0336,0.3752
-0.02,-0.03,0.036,-7.9,9.1,-10.7,0,2018,5,17,21,32,20.694,0.7181,-0.5849,-0.0313,0.3757
-0.038,-0.063,0.055,-9.6,9.7,-13.1,0,2018,5,17,21,32,20.716,0.7186,-0.5839,-0.0289,0.3763
-0.04,-0.082,0.06,-11.8,14.1,-15.6,0,2018,5,17,21,32,20.721,0.7194,-0.5827,-0.026,0.377
-0.045,-0.097,0.071,-15.3,19.7,-18.3,0,2018,5,17,21,32,20.734,0.7204,-0.5811,-0.0221,0.3777
-0.062,-0.145,0.101,-20.8,26.9,-24.6,0,2018,5,17,21,32,20.757,0.7219,-0.579,-0.017,0.3784
-0.059,-0.204,0.129,-27.3,35.4,-34.2,0,2018,5,17,21,32,20.775,0.7233,-0.5766,-0.0091,0.3797
-0.049,-0.206,0.139,-35.2,47.6,-45.2,1023,2018,5,17,21,32,20.798,0.725,-0.5732,0.0013,0.3818
-0.046,-0.185,0.129,-43.6,58.8,-54.9,1023,2018,5,17,21,32,20.816,0.727,-0.5687,0.0146,0.3843
-0.05,-0.162,0.09,-52.3,63.9,-64.8,1023,2018,5,17,21,32,20.839,0.7294,-0.5634,0.0301,0.3866
-0.043,-0.121,0.066,-60.4,58.8,-78.6,1023,2018,5,17,21,32,20.875,0.7307,-0.5586,0.0476,0.3895
-0.024,-0.164,0.074,-63.9,62.6,-92.1,1023,2018,5,17,21,32,20.875,0.7304,-0.5541,0.0669,0.3936
0.029,-0.145,0.039,-67.8,72.4,-105,1023,2018,5,17,21,32,20.897,0.7294,-0.5487,0.0888,0.3986
0.037,-0.093,-0.032,-67.7,84.7,-114.8,1023,2018,5,17,21,32,20.934,0.7278,-0.5419,0.1132,0.4045
0.038,-0.022,-0.079,-64.9,92.2,-121.5,1023,2018,5,17,21,32,20.957,0.7258,-0.5334,0.1394,0.4111
0.099,0.072,-0.128,-60.6,90.8,-127.4,1023,2018,5,17,21,32,20.962,0.7233,-0.5234,0.1659,0.4185
0.192,0.149,-0.147,-48.2,81.1,-133.2,1023,2018,5,17,21,32,20.98,0.7198,-0.5124,0.1909,0.4274
0.201,0.208,-0.107,-34,67.3,-135.7,1023,2018,5,17,21,32,21.002,0.7147,-0.5015,0.2137,0.438
0.202,0.268,-0.131,-21.4,52.7,-132.5,1023,2018,5,17,21,32,21.022,0.7084,-0.491,0.2333,0.45
0.24,0.313,-0.2,-6.8,36.8,-125,1023,2018,5,17,21,32,21.038,0.7013,-0.4813,0.2497,0.4627
0.277,0.397,-0.255,13.4,18.8,-113.5,1023,2018,5,17,21,32,21.074,0.6939,-0.4725,0.2617,0.476
0.247,0.429,-0.29,32.2,-5.8,-100.2,1023,2018,5,17,21,32,21.095,0.6864,-0.4648,0.2682,0.4905
0.221,0.435,-0.29,49.5,-27.4,-85.1,0,2018,5,17,21,32,21.1,0.6789,-0.4591,0.2694,0.5055
0.25,0.464,-0.31,66.1,-47.1,-66,0,2018,5,17,21,32,21.138,0.6719,-0.455,0.2654,0.5205
0.207,0.447,-0.321,81.8,-66.6,-46.3,0,2018,5,17,21,32,21.162,0.6655,-0.4524,0.256,0.5354
0.111,0.369,-0.339,93.5,-77.7,-23.6,0,2018,5,17,21,32,21.166,0.6603,-0.451,0.2416,0.5495
0.06,0.326,-0.425,105.2,-87.8,-2.1,0,2018,5,17,21,32,21.182,0.6567,-0.4504,0.2231,0.562
0.048,0.339,-0.513,120.7,-103,19,0,2018,5,17,21,32,21.217,0.6543,-0.4507,0.2004,0.5731
-0.024,0.306,-0.529,141.4,-117,41.1,0,2018,5,17,21,32,21.238,0.6529,-0.4512,0.172,0.5835
-0.157,0.201,-0.48,162.3,-119.7,66.6,0,2018,5,17,21,32,21.243,0.6531,-0.4507,0.1383,0.5924
-0.241,0.143,-0.464,179.5,-109.4,90.8,0,2018,5,17,21,32,21.261,0.656,-0.4479,0.1009,0.599
-0.338,0.147,-0.616,196.7,-103.9,108.8,0,2018,5,17,21,32,21.278,0.6611,-0.4417,0.0607,0.6033
-0.362,0.156,-0.71,212.8,-105.3,124.2,0,2018,5,17,21,32,21.302,0.6668,-0.433,0.0171,0.6061
-0.462,0.065,-0.629,231.8,-102.3,138.6,0,2018,5,17,21,32,21.318,0.6728,-0.4215,-0.0298,0.6072
-0.552,0.024,-0.521,246.7,-93,147.5,0,2018,5,17,21,32,21.342,0.6787,-0.4061,-0.0789,0.6067
-0.609,0.004,-0.414,254.3,-89.4,149.2,0,2018,5,17,21,32,21.379,0.6836,-0.3873,-0.1289,0.6049
-0.682,-0.114,-0.336,252.7,-92.2,144.6,0,2018,5,17,21,32,21.4,0.6861,-0.3673,-0.1789,0.6018
-0.691,-0.132,-0.278,242.6,-91.1,138.6,0,2018,5,17,21,32,21.405,0.6864,-0.3473,-0.2272,0.597
-0.707,-0.181,-0.122,225.4,-92.7,124.1,1023,2018,5,17,21,32,21.422,0.6845,-0.3281,-0.2725,0.5911
-0.684,-0.213,-0.009,194.9,-93.3,101.2,1023,2018,5,17,21,32,21.443,0.6801,-0.3117,-0.3134,0.5847
-0.591,-0.192,0.036,159.5,-92.9,76.1,1023,2018,5,17,21,32,21.481,0.6738,-0.2998,-0.3485,0.5784
-0.507,-0.214,0.075,126.7,-93.3,51.4,1023,2018,5,17,21,32,21.504,0.6663,-0.2925,-0.3777,0.5724
-0.414,-0.164,0.084,96.5,-96.1,30.2,1023,2018,5,17,21,32,21.509,0.6579,-0.2897,-0.4019,0.567
-0.327,-0.151,0.1,70.2,-103.1,14.9,1023,2018,5,17,21,32,21.523,0.6491,-0.2913,-0.4222,0.5616
-0.382,-0.236,0.245,45,-102.4,4.7,1023,2018,5,17,21,32,21.54,0.6403,-0.2967,-0.4393,0.5557
-0.379,-0.248,0.334,14.2,-90.2,-1.9,1023,2018,5,17,21,32,21.564,0.6331,-0.3046,-0.4519,0.5495
-0.322,-0.198,0.304,-17.9,-76.1,-10.3,1023,2018,5,17,21,32,21.599,0.6283,-0.3144,-0.4591,0.5435
-0.252,-0.117,0.227,-45.9,-72.5,-20.2,1023,2018,5,17,21,32,21.622,0.6254,-0.3268,-0.4615,0.5375
-0.198,-0.114,0.186,-69.4,-72.7,-28,1023,2018,5,17,21,32,21.627,0.6236,-0.3422,-0.4605,0.5309
-0.182,-0.145,0.186,-88.7,-69.5,-29.9,1023,2018,5,17,21,32,21.646,0.6229,-0.3597,-0.4566,0.5235
-0.183,-0.178,0.185,-105.7,-58.8,-30.1,1023,2018,5,17,21,32,21.664,0.6237,-0.378,-0.4498,0.5153
-0.186,-0.163,0.166,-121.8,-44.1,-30.2,1023,2018,5,17,21,32,21.686,0.6265,-0.3961,-0.4399,0.5069
-0.178,-0.141,0.128,-135.4,-29.7,-31.1,1023,2018,5,17,21,32,21.704,0.631,-0.4137,-0.4267,0.4984
-0.162,-0.134,0.093,-145.4,-19.7,-32.9,0,2018,5,17,21,32,21.728,0.637,-0.4305,-0.4111,0.4896
-0.132,-0.121,0.06,-154,-12.2,-34.8,0,2018,5,17,21,32,21.76,0.644,-0.4466,-0.3935,0.4804
-0.094,-0.086,0.039,-160.6,-6.8,-36.3,0,2018,5,17,21,32,21.783,0.6512,-0.4626,-0.3742,0.4709
-0.081,-0.071,-0.009,-166.6,-2.6,-37.7,0,2018,5,17,21,32,21.788,0.6584,-0.4785,-0.3533,0.461
-0.067,-0.069,-0.061,-170.7,2.3,-39.4,0,2018,5,17,21,32,21.803,0.6654,-0.4943,-0.3311,0.4507
-0.03,-0.06,-0.103,-171.1,8.8,-41.5,0,2018,5,17,21,32,21.841,0.6719,-0.5097,-0.3079,0.4402
0.016,-0.01,-0.13,-165.8,15.3,-42.2,0,2018,5,17,21,32,21.864,0.6779,-0.5241,-0.2837,0.4302
0.032,0.004,-0.122,-158.3,18.6,-41.5,0,2018,5,17,21,32,21.869,0.6833,-0.5372,-0.2596,0.4208
0.02,-0.038,-0.091,-150.4,23.3,-40.1,0,2018,5,17,21,32,21.886,0.6882,-0.5486,-0.2359,0.4118
0.028,-0.021,-0.105,-143.4,30.7,-38.8,0,2018,5,17,21,32,21.907,0.6932,-0.5581,-0.2126,0.4032
0.065,0.028,-0.159,-132.9,32.5,-38,0,2018,5,17,21,32,21.924,0.6983,-0.5655,-0.1899,0.3954
0.12,0.055,-0.18,-118.3,32.2,-36.9,0,2018,5,17,21,32,21.948,0.7029,-0.5713,-0.1685,0.3886
0.12,0.028,-0.128,-102.5,31.1,-34.6,0,2018,5,17,21,32,21.97,0.7067,-0.5758,-0.1493,0.3829
0.112,0.007,-0.081,-88.3,33.3,-31.5,0,2018,5,17,21,32,22.006,0.71,-0.579,-0.1321,0.3782
0.082,0.024,-0.082,-67,38,-26.6,0,2018,5,17,21,32,22.006,0.7163,-0.5816,-0.1021,0.3715
0.088,0.067,-0.108,-59,33.8,-27.9,0,2018,5,17,21,32,22.029,0.7193,-0.5815,-0.0892,0.3692
0.082,0.062,-0.088,-51.8,29.3,-29.3,0,2018,5,17,21,32,22.045,0.7215,-0.5815,-0.0774,0.3677
0.086,0.058,-0.048,-45.3,28,-28.7,0,2018,5,17,21,32,22.067,0.7227,-0.5818,-0.0659,0.3671
0.067,0.018,-0.021,-39.4,30.3,-26.9,1023,2018,5,17,21,32,22.088,0.724,-0.5812,-0.0556,0.3671
0.062,0.04,-0.006,-34.7,33.9,-26.1,1023,2018,5,17,21,32,22.124,0.7257,-0.5796,-0.0458,0.3675
0.043,0.037,0.005,-31.5,32.3,-27.2,1023,2018,5,17,21,32,22.146,0.7275,-0.5776,-0.0364,0.3683
0.038,0.036,0.015,-30,30.2,-28.9,1023,2018,5,17,21,32,22.151,0.7291,-0.5754,-0.0276,0.3694
0.039,0.031,0.007,-27.8,28.6,-30.6,1023,2018,5,17,21,32,22.167,0.7301,-0.5735,-0.0187,0.3708
0.028,0,0.034,-25.7,27.4,-31.9,1023,2018,5,17,21,32,22.19,0.731,-0.5715,-0.0101,0.3725
0.023,0.013,0.057,-25.3,29.2,-34,1023,2018,5,17,21,32,22.209,0.7318,-0.5692,-0.0016,0.3746
0.009,0.002,0.057,-26.4,27.9,-38.4,1023,2018,5,17,21,32,22.229,0.7325,-0.5666,0.007,0.377
0.025,-0.016,0.037,-27.2,28.7,-42.4,1023,2018,5,17,21,32,22.268,0.7328,-0.5643,0.0162,0.3798
0.051,-0.019,0.032,-26.2,32.5,-45.8,1023,2018,5,17,21,32,22.29,0.7328,-0.5617,0.0261,0.383
0.063,-0.011,0.045,-25,36.3,-47.8,1023,2018,5,17,21,32,22.295,0.7329,-0.5585,0.0365,0.3867
0.047,0.013,0.03,-24.9,37.7,-50.5,1023,2018,5,17,21,32,22.31,0.733,-0.5546,0.0472,0.3907
0.021,0.041,0.018,-26.3,35.6,-54.4,1023,2018,5,17,21,32,22.328,0.7328,-0.5508,0.0582,0.395
0.048,0.055,-0.04,-24.2,31.6,-57.8,1023,2018,5,17,21,32,22.363,0.7316,-0.5476,0.0696,0.3998
0.036,0.039,-0.044,-19.8,28.6,-59.9,1023,2018,5,17,21,32,22.383,0.7297,-0.5446,0.0806,0.4053
0.025,0.025,-0.042,-15.6,29.1,-57.6,1023,2018,5,17,21,32,22.388,0.7276,-0.5415,0.0907,0.4111
-0.006,0.035,-0.038,-12.5,31.9,-54.1,0,2018,5,17,21,32,22.423,0.726,-0.5379,0.1001,0.4165
0.001,0.072,-0.067,-8.6,31.3,-50,0,2018,5,17,21,32,22.472,0.7246,-0.534,0.1091,0.4215
0,0.095,-0.065,-3,25.6,-45.5,0,2018,5,17,21,32,22.474,0.7232,-0.5303,0.1171,0.4265
-0.013,0.092,-0.044,2.7,17.7,-41.4,0,2018,5,17,21,32,22.478,0.7215,-0.5268,0.1234,0.4318
-0.029,0.076,-0.016,8.2,13.4,-36.6,0,2018,5,17,21,32,22.492,0.7199,-0.5237,0.128,0.437
-0.034,0.051,-0.005,11.3,13.2,-31.6,0,2018,5,17,21,32,22.529,0.7186,-0.5205,0.1312,0.4419
-0.027,0.057,0.003,13.1,14.7,-26.6,0,2018,5,17,21,32,22.549,0.7179,-0.5169,0.1335,0.4465
-0.023,0.064,0,13.4,11.8,-23.1,0,2018,5,17,21,32,22.552,0.7175,-0.5134,0.1354,0.4507
-0.028,0.076,0.002,13.1,6.8,-20.1,0,2018,5,17,21,32,22.568,0.717,-0.5101,0.1364,0.4548
-0.034,0.05,0.008,12.1,1.9,-18.1,0,2018,5,17,21,32,22.587,0.7162,-0.5079,0.1371,0.4584
-0.027,0.036,0.017,11.5,0.6,-16.2,0,2018,5,17,21,32,22.624,0.7153,-0.5062,0.1373,0.4617
-0.016,0.026,0.022,11.7,2.1,-14.6,0,2018,5,17,21,32,22.644,0.7145,-0.5045,0.1374,0.4647
0.009,0.036,0.029,12.6,4.1,-14.1,0,2018,5,17,21,32,22.649,0.714,-0.5023,0.1374,0.4678
0.038,0.013,0.041,12.8,5.4,-15.2,0,2018,5,17,21,32,22.687,0.7135,-0.5001,0.1376,0.4708
0.083,0.022,0.064,12.9,6.4,-18.4,0,2018,5,17,21,32,22.711,0.7129,-0.4975,0.1385,0.4742
0.122,0.025,0.076,13.3,6.8,-25.1,0,2018,5,17,21,32,22.715,0.7119,-0.4949,0.14,0.4781
0.148,-0.003,0.095,12.3,4.7,-34.2,0,2018,5,17,21,32,22.732,0.71,-0.4921,0.1422,0.4831
0.181,0.005,0.072,10.3,3.5,-46.3,0,2018,5,17,21,32,22.755,0.707,-0.4892,0.1453,0.4894
0.2,-0.001,0.016,9.6,1.9,-57,1023,2018,5,17,21,32,22.771,0.7025,-0.4867,0.1497,0.497
0.217,0.034,-0.015,11.2,2.9,-65.2,1023,2018,5,17,21,32,22.808,0.6972,-0.4841,0.1545,0.5055
0.203,0.121,-0.033,13.9,3.4,-70.5,1023,2018,5,17,21,32,22.829,0.6918,-0.4806,0.1588,0.5149
0.198,0.204,-0.077,16.9,1.4,-69.6,1023,2018,5,17,21,32,22.833,0.6861,-0.4768,0.163,0.5246
0.166,0.214,-0.197,22.3,-14.2,-66.5,1023,2018,5,17,21,32,22.852,0.6799,-0.4737,0.1658,0.5345
0.157,0.25,-0.29,32.7,-36.7,-57.8,1023,2018,5,17,21,32,22.876,0.6726,-0.4724,0.1655,0.5448
0.166,0.298,-0.364,47.8,-58.3,-43.3,1023,2018,5,17,21,32,22.91,0.6649,-0.4728,0.1603,0.5554
0.142,0.36,-0.428,66.7,-70.7,-22.8,1023,2018,5,17,21,32,22.932,0.6578,-0.4739,0.1501,0.5657
0.074,0.384,-0.467,90.5,-71.1,4.4,1023,2018,5,17,21,32,22.938,0.653,-0.474,0.1347,0.575
-0.051,0.262,-0.55,120.9,-79.4,31.7,1023,2018,5,17,21,32,22.954,0.6509,-0.4722,0.1132,0.5834
-0.142,0.203,-0.583,152.5,-81.6,62.2,1023,2018,5,17,21,32,22.977,0.6516,-0.4681,0.0855,0.5906
-0.184,0.175,-0.535,184.6,-83.4,88.8,1023,2018,5,17,21,32,22.995,0.6547,-0.4609,0.0514,0.5967
-0.348,0.154,-0.51,212.6,-83.5,111.2,1023,2018,5,17,21,32,23.017,0.6597,-0.4502,0.0115,0.6015
-0.47,0.125,-0.438,233.5,-83.5,128.7,0,2018,5,17,21,32,23.036,0.6656,-0.4358,-0.0326,0.6049
-0.585,0.1,-0.344,243.3,-90.6,139.7,0,2018,5,17,21,32,23.059,0.6711,-0.4191,-0.0799,0.6062
-0.67,-0.026,-0.308,242.6,-100,146.1,0,2018,5,17,21,32,23.075,0.6749,-0.4017,-0.1293,0.6052
-0.738,-0.219,-0.15,234.2,-99.2,150.2,0,2018,5,17,21,32,23.092,0.6771,-0.3842,-0.1787,0.6015
-0.774,-0.278,-0.006,209.9,-85,143.9,0,2018,5,17,21,32,23.115,0.6786,-0.3664,-0.2246,0.5955
-0.67,-0.184,0.012,175.9,-67.7,128.6,0,2018,5,17,21,32,23.133,0.6798,-0.3494,-0.264,0.5882
-0.53,-0.116,-0.048,149.4,-66.1,103.7,0,2018,5,17,21,32,23.156,0.6798,-0.3349,-0.2969,0.5809
-0.509,-0.24,0.057,127.3,-68.2,79.8,0,2018,5,17,21,32,23.191,0.6775,-0.3241,-0.3253,0.5743
-0.495,-0.265,0.229,92.4,-66.4,58.5,0,2018,5,17,21,32,23.212,0.6741,-0.3171,-0.3488,0.5685
-0.408,-0.202,0.287,55.6,-71.1,41.6,0,2018,5,17,21,32,23.217,0.6706,-0.3149,-0.3669,0.5624
-0.32,-0.161,0.208,23.2,-77.5,28.4,0,2018,5,17,21,32,23.252,0.6674,-0.3176,-0.3805,0.5556
-0.216,-0.105,0.132,-2.3,-80.9,19,0,2018,5,17,21,32,23.276,0.6646,-0.3244,-0.3905,0.5481
-0.162,-0.115,0.093,-18.5,-78.6,13.1,0,2018,5,17,21,32,23.281,0.6624,-0.3335,-0.3978,0.54
-0.159,-0.182,0.117,-32,-68,9.5,0,2018,5,17,21,32,23.296,0.6612,-0.343,-0.4029,0.5316
-0.146,-0.16,0.141,-47.6,-52.7,8.1,0,2018,5,17,21,32,23.332,0.6616,-0.3523,-0.4047,0.5237
-0.108,-0.091,0.109,-61.8,-42.1,5.9,0,2018,5,17,21,32,23.354,0.6637,-0.3614,-0.403,0.516
-0.074,-0.106,0.053,-68.8,-38,2.5,0,2018,5,17,21,32,23.359,0.6664,-0.3713,-0.3993,0.5083
-0.066,-0.113,0.073,-74.9,-32.6,0,0,2018,5,17,21,32,23.377,0.6693,-0.3814,-0.3943,0.5009
-0.063,-0.102,0.073,-83,-27.2,-2.4,0,2018,5,17,21,32,23.4,0.6728,-0.3915,-0.3876,0.4936
-0.057,-0.087,0.029,-91.7,-24.7,-6.6,0,2018,5,17,21,32,23.42,0.6766,-0.402,-0.3794,0.4862
0.001,-0.04,-0.026,-94.8,-22.7,-11.2,0,2018,5,17,21,32,23.437,0.6802,-0.4135,-0.3698,0.4789
0.031,-0.021,-0.06,-92.5,-22.7,-13.2,1023,2018,5,17,21,32,23.46,0.6832,-0.4253,-0.3596,0.4721
0.037,-0.018,-0.04,-89.7,-20.6,-12.9,1023,2018,5,17,21,32,23.477,0.6857,-0.4368,-0.3495,0.4655
-0.014,-0.062,0.004,-88.3,-16.1,-12.4,1023,2018,5,17,21,32,23.501,0.6883,-0.4473,-0.3394,0.4591
-0.036,-0.045,0.009,-90.3,-9.4,-11.7,1023,2018,5,17,21,32,23.515,0.6916,-0.4566,-0.3288,0.4526
-0.015,-0.031,-0.028,-89,-5.3,-11.9,1023,2018,5,17,21,32,23.552,0.6951,-0.4653,-0.3178,0.4463
-0.005,-0.02,-0.024,-86.3,-4.9,-13.3,1023,2018,5,17,21,32,23.575,0.6983,-0.4736,-0.3066,0.4403
-0.018,-0.03,-0.01,-84.1,-6.6,-15.3,1023,2018,5,17,21,32,23.58,0.7011,-0.4818,-0.2956,0.4345
-0.022,-0.052,-0.017,-83.5,-7,-17.3,1023,2018,5,17,21,32,23.599,0.7034,-0.4899,-0.2847,0.429
-0.015,-0.062,-0.032,-82.8,-3.6,-20.1,1023,2018,5,17,21,32,23.618,0.7054,-0.498,-0.2736,0.4236
0,-0.058,-0.038,-82.3,1.4,-23.3,1023,2018,5,17,21,32,23.641,0.7073,-0.5056,-0.2618,0.4188
-0.004,-0.054,-0.016,-81.2,7.5,-26.3,1023,2018,5,17,21,32,23.659,0.7093,-0.5124,-0.2493,0.4148
-0.027,-0.045,0.008,-83.2,11.6,-29.6,1023,2018,5,17,21,32,23.68,0.7116,-0.5184,-0.236,0.4112
-0.032,-0.02,0.016,-85.7,12,-32.9,1023,2018,5,17,21,32,23.717,0.7139,-0.5241,-0.2219,0.4078
-0.01,0.008,-0.006,-87.9,10,-36.9,1023,2018,5,17,21,32,23.741,0.7157,-0.5302,-0.2072,0.4044
0.006,-0.001,-0.026,-87,7.6,-40.3,0,2018,5,17,21,32,23.745,0.7167,-0.5368,-0.192,0.4014
0.004,0.001,-0.032,-86.2,8.9,-42.4,0,2018,5,17,21,32,23.761,0.7172,-0.5435,-0.1767,0.3987
-0.002,0.024,-0.045,-85.4,10.8,-44,0,2018,5,17,21,32,23.798,0.7174,-0.5498,-0.1611,0.3961
0.003,0.039,-0.065,-83.7,12.5,-44.3,0,2018,5,17,21,32,23.798,0.7175,-0.5558,-0.1454,0.3937
0.017,0.05,-0.057,-78.7,13.5,-43.2,0,2018,5,17,21,32,23.82,0.7174,-0.5612,-0.1299,0.3916
0.018,0.048,-0.036,-72.4,14.3,-40.6,0,2018,5,17,21,32,23.857,0.7171,-0.5659,-0.1152,0.3898
0.015,0.058,-0.024,-66.4,16,-36.7,0,2018,5,17,21,32,23.878,0.7172,-0.5695,-0.1015,0.3883
0.002,0.066,-0.027,-61.7,16.6,-32.9,0,2018,5,17,21,32,23.88,0.7175,-0.5723,-0.0887,0.3867
0.006,0.081,-0.041,-56.1,14.5,-29,0,2018,5,17,21,32,23.917,0.7177,-0.5749,-0.0769,0.3851
0.022,0.083,-0.038,-49.7,10.9,-24.8,0,2018,5,17,21,32,23.94,0.7176,-0.5774,-0.0664,0.3836
0.033,0.069,-0.013,-27.5,8.5,-8.7,0,2018,5,17,21,32,23.945,0.7174,-0.5823,-0.0441,0.3797
0.029,0.058,-0.01,-21.5,7.7,-3.8,0,2018,5,17,21,32,23.98,0.718,-0.5827,-0.0397,0.3785
0.018,0.03,-0.003,-16.1,6.3,-0.2,0,2018,5,17,21,32,24.004,0.7186,-0.583,-0.0364,0.3772
0.012,0.011,0.012,-12,4.4,1.1,0,2018,5,17,21,32,24.008,0.7194,-0.5829,-0.0345,0.376
0.007,-0.016,0.018,-9.8,3.2,0.8,0,2018,5,17,21,32,24.023,0.7199,-0.583,-0.0331,0.3749
0.003,-0.036,0.022,-8.9,4.6,-0.5,0,2018,5,17,21,32,24.058,0.7204,-0.5831,-0.0317,0.374
0,-0.038,0.011,-8.9,7.5,-2.7,0,2018,5,17,21,32,24.081,0.7211,-0.5827,-0.0303,0.3734
-0.001,-0.028,0.004,-8.9,9.3,-5.1,0,2018,5,17,21,32,24.086,0.7219,-0.582,-0.0287,0.3731
-0.012,-0.022,0.01,-8.9,8.8,-7.9,0,2018,5,17,21,32,24.103,0.7225,-0.5812,-0.0267,0.3732
-0.023,-0.027,0.024,-9.3,8.5,-10.4,0,2018,5,17,21,32,24.123,0.7231,-0.5804,-0.0246,0.3735
-0.029,-0.026,0.021,-10.1,10,-13.2,1023,2018,5,17,21,32,24.146,0.7234,-0.5798,-0.0218,0.374
-0.031,-0.02,0.01,-11.4,12.2,-15.5,1023,2018,5,17,21,32,24.161,0.7239,-0.5789,-0.0188,0.3747
-0.033,-0.008,0.019,-12.9,14.1,-16.7,1023,2018,5,17,21,32,24.184,0.7244,-0.5777,-0.0152,0.3756
-0.026,0,0.02,-14.3,15.6,-17.6,1023,2018,5,17,21,32,24.204,0.725,-0.5765,-0.011,0.3764
-0.032,-0.001,0.021,-15.2,15.8,-18.3,1023,2018,5,17,21,32,24.227,0.7256,-0.5753,-0.0065,0.3772
-0.031,0.016,0.031,-15.3,15.5,-18.9,1023,2018,5,17,21,32,24.244,0.7262,-0.5741,-0.0019,0.3781
-0.032,0.023,0.04,-15.6,14.7,-18.8,1023,2018,5,17,21,32,24.267,0.7266,-0.5729,0.0028,0.379
-0.026,0.008,0.027,-16.2,14.6,-18.2,1023,2018,5,17,21,32,24.283,0.7271,-0.5717,0.0074,0.3798
-0.006,0.006,0.018,-16.2,16.8,-15.9,1023,2018,5,17,21,32,24.32,0.7277,-0.5705,0.0121,0.3804
-0.006,0,0.025,-15.5,20,-13.3,1023,2018,5,17,21,32,24.344,0.7286,-0.5689,0.0166,0.3808
-0.008,0.01,0.022,-15.2,22,-12.1,1023,2018,5,17,21,32,24.348,0.7301,-0.5668,0.021,0.381
0,-0.01,0.04,-15.3,22.9,-12.2,1023,2018,5,17,21,32,24.366,0.7315,-0.5646,0.0255,0.3811
0.013,-0.018,0.025,-15.2,23.9,-12.2,1023,2018,5,17,21,32,24.402,0.733,-0.5624,0.0303,0.3811
0.004,-0.018,0.028,-14.8,24.8,-13,1023,2018,5,17,21,32,24.426,0.7346,-0.5601,0.035,0.3812
-0.005,-0.028,0.019,-15.1,25.4,-14.2,1023,2018,5,17,21,32,24.429,0.736,-0.5578,0.0398,0.3813
-0.017,-0.033,0.028,-16.3,27.9,-16.1,0,2018,5,17,21,32,24.445,0.7376,-0.5552,0.0448,0.3815
-0.004,-0.031,0.02,-17.9,30.7,-18.3,0,2018,5,17,21,32,24.468,0.7393,-0.5523,0.0503,0.3818
0.006,-0.013,-0.009,-18.1,32.1,-20.1,0,2018,5,17,21,32,24.485,0.7408,-0.5494,0.0567,0.3821
-0.009,-0.017,-0.019,-17.3,31.4,-22.1,0,2018,5,17,21,32,24.508,0.7421,-0.5464,0.063,0.3828
-0.024,0.01,-0.018,-16.2,30.7,-23.5,0,2018,5,17,21,32,24.543,0.7432,-0.5435,0.0694,0.3837
-0.033,0.041,-0.04,-15.3,28.4,-23.7,0,2018,5,17,21,32,24.543,0.7442,-0.5404,0.0756,0.3849
-0.042,0.067,-0.073,-13.4,24.6,-23.2,0,2018,5,17,21,32,24.567,0.7447,-0.538,0.0816,0.3861
-0.043,0.085,-0.059,-10.5,19.9,-21.1,0,2018,5,17,21,32,24.584,0.7448,-0.536,0.087,0.3876
-0.036,0.116,-0.065,-8,13.8,-18.4,0,2018,5,17,21,32,24.607,0.7447,-0.5344,0.0916,0.3891
-0.023,0.132,-0.083,-4.6,7.7,-13.4,0,2018,5,17,21,32,24.626,0.7441,-0.5335,0.0954,0.3905
-0.006,0.117,-0.064,-0.6,2.7,-6.8,0,2018,5,17,21,32,24.65,0.7434,-0.5331,0.0977,0.3918
-0.004,0.082,-0.028,3.1,0.8,-0.5,0,2018,5,17,21,32,24.685,0.7431,-0.5328,0.0984,0.3926
-0.002,0.082,0,6,0,4.7,0,2018,5,17,21,32,24.685,0.7433,-0.5322,0.0979,0.3931
0.006,0.082,-0.006,7.3,-2.3,7.1,0,2018,5,17,21,32,24.708,0.7437,-0.5315,0.0966,0.3935
0.041,0.071,-0.019,8.4,-6.4,7.3,0,2018,5,17,21,32,24.743,0.7438,-0.5316,0.0952,0.3937
0.056,0.029,-0.007,10.6,-8.3,6.8,0,2018,5,17,21,32,24.767,0.7435,-0.532,0.0933,0.3941
0.046,0.021,0.025,12.3,-7.2,6.1,0,2018,5,17,21,32,24.771,0.7432,-0.5323,0.0911,0.3948
0.026,-0.011,0.025,13.2,-6.4,4.4,0,2018,5,17,21,32,24.786,0.7431,-0.5323,0.0888,0.3955
0.018,-0.027,0.022,12.3,-5.2,0.8,0,2018,5,17,21,32,24.806,0.7429,-0.5322,0.0865,0.3965
0.031,-0.012,-0.008,11.5,-5.4,-3.5,1023,2018,5,17,21,32,24.829,0.7424,-0.5321,0.0849,0.3979
0.05,-0.01,-0.03,13.4,-6.8,-7.7,1023,2018,5,17,21,32,24.847,0.7413,-0.5322,0.0836,0.4
0.045,-0.016,-0.018,17.6,-7.7,-10.2,1023,2018,5,17,21,32,24.867,0.74,-0.5322,0.0821,0.4028
0.051,0.009,-0.013,22.6,-7.2,-11.3,1023,2018,5,17,21,32,24.89,0.7386,-0.5317,0.0803,0.4063
0.076,0.046,-0.045,30.3,-7.5,-10.9,1023,2018,5,17,21,32,24.906,0.7371,-0.5309,0.0781,0.4106
0.087,0.053,-0.065,39,-11,-9.9,1023,2018,5,17,21,32,24.93,0.7354,-0.5299,0.0748,0.4156
0.079,0.042,-0.061,47.5,-15.3,-8,1023,2018,5,17,21,32,24.967,0.7334,-0.5288,0.0701,0.4212
0.076,0.047,-0.065,54.5,-18.1,-7.7,1023,2018,5,17,21,32,24.989,0.7313,-0.5276,0.0638,0.4274
0.1,0.027,-0.062,60.5,-16.9,-9,1023,2018,5,17,21,32,24.994,0.7294,-0.5256,0.0561,0.434
0.125,-0.049,-0.066,64,-10.1,-14.1,1023,2018,5,17,21,32,25.009,0.7274,-0.523,0.0486,0.4414
0.192,-0.063,-0.128,64,-5.2,-23.7,1023,2018,5,17,21,32,25.033,0.7259,-0.5187,0.0418,0.4496
0.166,0.005,-0.204,65.2,-16.1,-37.2,1023,2018,5,17,21,32,25.067,0.723,-0.5145,0.0354,0.4595
0.086,-0.066,-0.077,68.5,-28.9,-51.1,1023,2018,5,17,21,32,25.067,0.7177,-0.5116,0.0288,0.4714
0.022,-0.051,0.051,65,-32.8,-63.2,1023,2018,5,17,21,32,25.092,0.7102,-0.5101,0.0231,0.4845
0.004,-0.033,0.042,59.9,-25,-72.6,0,2018,5,17,21,32,25.109,0.7019,-0.508,0.0187,0.4987
0.039,0.098,-0.075,51.7,-14.1,-74.4,0,2018,5,17,21,32,25.132,0.6938,-0.505,0.0168,0.5129
0.12,0.259,-0.19,54.9,-7.8,-63.8,0,2018,5,17,21,32,25.149,0.6868,-0.501,0.0155,0.5262
0.05,0.336,-0.205,68,-8.8,-40.2,0,2018,5,17,21,32,25.173,0.6815,-0.4959,0.0118,0.5379
-0.015,0.307,-0.234,85.7,-16.1,-11.3,0,2018,5,17,21,32,25.19,0.678,-0.49,0.0034,0.5477
-0.018,0.399,-0.342,115.3,-35.2,23.3,0,2018,5,17,21,32,25.214,0.6766,-0.4831,-0.0114,0.5555
-0.035,0.342,-0.55,161.5,-61.2,56.4,0,2018,5,17,21,32,25.249,0.6758,-0.475,-0.0363,0.5622
-0.196,0.21,-0.613,214.6,-65.1,95.6,0,2018,5,17,21,32,25.272,0.6763,-0.4632,-0.0717,0.5681
-0.411,0.047,-0.505,258.3,-38.5,130.2,0,2018,5,17,21,32,25.277,0.6795,-0.4436,-0.1146,0.5728
-0.564,-0.091,-0.323,284.8,-8.8,151,0,2018,5,17,21,32,25.291,0.6855,-0.4151,-0.1604,0.5761
-0.662,-0.104,-0.161,292.6,7.5,157.7,0,2018,5,17,21,32,25.326,0.6919,-0.3805,-0.2062,0.5777
-0.709,0.012,-0.071,282.6,3.8,151.4,0,2018,5,17,21,32,25.349,0.6966,-0.344,-0.2503,0.5776
-0.753,-0.002,0.021,254.2,-12.7,139.5,0,2018,5,17,21,32,25.353,0.6982,-0.3104,-0.2921,0.5751
-0.714,-0.033,0.056,212.3,-24,121.1,0,2018,5,17,21,32,25.371,0.6976,-0.2823,-0.3292,0.5702
-0.577,-0.091,0.069,171.2,-39.2,101.6,0,2018,5,17,21,32,25.395,0.6957,-0.2605,-0.3606,0.5639
-0.463,-0.124,0.104,134.9,-52.8,87.4,0,2018,5,17,21,32,25.412,0.6928,-0.2452,-0.3878,0.5562
-0.455,-0.172,0.169,98.8,-59.9,77.2,0,2018,5,17,21,32,25.436,0.6902,-0.2352,-0.4108,0.5472
-0.444,-0.249,0.273,54.8,-61.6,64.4,1023,2018,5,17,21,32,25.451,0.6885,-0.2306,-0.429,0.5372
-0.469,-0.226,0.358,16,-44.4,51.7,1023,2018,5,17,21,32,25.474,0.6891,-0.2293,-0.4403,0.5276
-0.431,-0.238,0.338,-26.7,-27.1,36.9,1023,2018,5,17,21,32,25.51,0.6923,-0.2308,-0.4445,0.5193
-0.357,-0.128,0.25,-64.6,-21.5,18.8,1023,2018,5,17,21,32,25.534,0.6975,-0.2355,-0.4419,0.5123
-0.29,-0.076,0.173,-96.1,-33.1,4,1023,2018,5,17,21,32,25.538,0.7036,-0.2453,-0.4347,0.5055
-0.272,-0.146,0.117,-122.2,-48,-9,1023,2018,5,17,21,32,25.553,0.7098,-0.2602,-0.4246,0.4979
-0.279,-0.274,0.085,-142.9,-46.4,-19,1023,2018,5,17,21,32,25.57,0.716,-0.2789,-0.4115,0.4899
-0.268,-0.309,0.098,-160.7,-31.5,-29.1,1023,2018,5,17,21,32,25.593,0.7227,-0.2985,-0.3945,0.4825
-0.309,-0.343,0.182,-176.5,-13.9,-40,1023,2018,5,17,21,32,25.612,0.7299,-0.3177,-0.3731,0.4763
-0.306,-0.316,0.096,-196.5,8.4,-52.5,1023,2018,5,17,21,32,25.635,0.7377,-0.3364,-0.3466,0.4715
-0.266,-0.23,-0.048,-212.3,24.7,-65.8,1023,2018,5,17,21,32,25.652,0.7457,-0.3543,-0.315,0.4679
-0.173,-0.144,-0.152,-218.4,28.4,-78.4,1023,2018,5,17,21,32,25.676,0.7528,-0.3721,-0.2799,0.4651
-0.122,-0.12,-0.163,-215.9,30,-86.9,1023,2018,5,17,21,32,25.712,0.7579,-0.3897,-0.2433,0.463
-0.143,-0.152,-0.086,-210.7,36.4,-91.1,1023,2018,5,17,21,32,25.735,0.7613,-0.406,-0.2062,0.4613
-0.182,-0.15,-0.069,-207.5,49.7,-94.7,0,2018,5,17,21,32,25.74,0.7638,-0.4201,-0.1682,0.46
-0.171,-0.077,-0.152,-203.7,61.6,-100,0,2018,5,17,21,32,25.757,0.7656,-0.4315,-0.129,0.4592
-0.107,-0.012,-0.25,-197.1,69.8,-106.9,0,2018,5,17,21,32,25.779,0.7661,-0.4407,-0.0889,0.4591
0,0.065,-0.261,-182.7,74.1,-109.8,0,2018,5,17,21,32,25.797,0.7654,-0.4475,-0.0492,0.4597
0.058,0.072,-0.262,-165.4,67,-112.2,0,2018,5,17,21,32,25.818,0.7629,-0.4524,-0.0119,0.4614
0.108,0.094,-0.251,-149.5,71,-113.3,0,2018,5,17,21,32,25.836,0.7591,-0.4557,0.0232,0.4641
0.135,0.101,-0.253,-132.2,72.3,-115.2,0,2018,5,17,21,32,25.855,0.7546,-0.4566,0.0564,0.4676
0.263,0.143,-0.282,-110.4,74.2,-115.7,0,2018,5,17,21,32,25.875,0.7495,-0.4553,0.0875,0.4723
0.328,0.176,-0.265,-83.6,70.8,-116.6,0,2018,5,17,21,32,25.898,0.7439,-0.4517,0.1153,0.4786
0.282,0.204,-0.2,-58.4,62.3,-116.1,0,2018,5,17,21,32,25.934,0.7378,-0.4464,0.139,0.4868
0.203,0.207,-0.178,-39.9,56,-114.2,0,2018,5,17,21,32,25.957,0.7312,-0.4399,0.159,0.4963
0.209,0.242,-0.205,-25.7,49.3,-111.9,0,2018,5,17,21,32,25.961,0.7244,-0.4328,0.1765,0.5066
0.209,0.302,-0.243,-11.5,31.2,-108.9,0,2018,5,17,21,32,25.977,0.717,-0.4256,0.1906,0.5179
0.184,0.329,-0.318,2.3,3.7,-103.3,0,2018,5,17,21,32,26.001,0.7085,-0.4201,0.2006,0.5303
0.153,0.355,-0.387,18.1,-28.7,-94.7,0,2018,5,17,21,32,26.017,0.6985,-0.4174,0.2054,0.5436
0.122,0.283,-0.387,37.3,-53.5,-81.8,0,2018,5,17,21,32,26.04,0.6879,-0.4168,0.2045,0.5577
0.111,0.24,-0.379,59.3,-66.1,-64.6,0,2018,5,17,21,32,26.055,0.678,-0.4168,0.1981,0.572
0.058,0.249,-0.384,82.1,-71.4,-43.9,0,2018,5,17,21,32,26.094,0.6699,-0.4161,0.1869,0.5857
0.014,0.285,-0.377,105.6,-77,-22.1,1023,2018,5,17,21,32,26.094,0.6641,-0.4141,0.1708,0.5984
-0.041,0.252,-0.365,127.4,-86.6,-0.6,1023,2018,5,17,21,32,26.118,0.6603,-0.411,0.1495,0.6103
-0.09,0.269,-0.371,146.3,-96.1,22.7,1023,2018,5,17,21,32,26.154,0.6583,-0.4071,0.1232,0.6209
-0.139,0.298,-0.417,164.6,-109.5,47,1023,2018,5,17,21,32,26.177,0.6579,-0.4025,0.0917,0.6297
-0.229,0.19,-0.471,183.3,-124.2,70.2,1023,2018,5,17,21,32,26.182,0.6584,-0.3977,0.0546,0.6365
-0.233,0.185,-0.452,199.1,-134.5,92.3,1023,2018,5,17,21,32,26.196,0.6597,-0.3919,0.0126,0.641
-0.438,0.031,-0.374,211.3,-136.6,114.6,1023,2018,5,17,21,32,26.22,0.6617,-0.3846,-0.0335,0.6426
-0.561,-0.042,-0.303,214.3,-126.1,130.7,1023,2018,5,17,21,32,26.257,0.6646,-0.3747,-0.0812,0.6412
-0.616,-0.087,-0.335,211.5,-115.2,139.5,1023,2018,5,17,21,32,26.281,0.6682,-0.3621,-0.1284,0.637
-0.614,-0.081,-0.326,207.4,-108.1,141.2,1023,2018,5,17,21,32,26.285,0.6713,-0.3479,-0.1742,0.6307
-0.71,-0.189,-0.146,198.1,-101,135.5,1023,2018,5,17,21,32,26.303,0.6732,-0.3329,-0.2182,0.623
-0.681,-0.16,-0.059,176,-91.3,124.4,1023,2018,5,17,21,32,26.32,0.674,-0.3181,-0.2583,0.6145
-0.575,-0.084,-0.121,150.1,-92.9,110,1023,2018,5,17,21,32,26.355,0.6737,-0.3059,-0.2935,0.6052
-0.495,-0.115,-0.146,130.1,-98.3,96.4,1023,2018,5,17,21,32,26.38,0.6719,-0.297,-0.3253,0.5953
-0.537,-0.226,0.031,109.6,-95.6,84.8,1023,2018,5,17,21,32,26.384,0.669,-0.2907,-0.3541,0.5851
-0.487,-0.176,0.144,79.2,-86,74.7,0,2018,5,17,21,32,26.402,0.6665,-0.2867,-0.3782,0.5748
-0.417,-0.109,0.162,47.1,-88.1,63.4,0,2018,5,17,21,32,26.42,0.6649,-0.2857,-0.3974,0.5641
-0.42,-0.169,0.193,16.5,-94.9,51.4,0,2018,5,17,21,32,26.443,0.6636,-0.2894,-0.4129,0.5525
-0.4,-0.258,0.222,-16.4,-93.2,40.5,0,2018,5,17,21,32,26.459,0.6631,-0.2971,-0.4242,0.5402
-0.357,-0.312,0.225,-48.2,-82,29.2,0,2018,5,17,21,32,26.483,0.6642,-0.3078,-0.4303,0.5279
-0.322,-0.35,0.248,-77.3,-68.2,16.9,0,2018,5,17,21,32,26.52,0.667,-0.3206,-0.431,0.5161
-0.353,-0.429,0.287,-107.5,-50.1,2.9,0,2018,5,17,21,32,26.542,0.6715,-0.335,-0.4259,0.5053
-0.35,-0.434,0.268,-140.1,-32,-15.1,0,2018,5,17,21,32,26.547,0.6776,-0.3511,-0.4144,0.4956
-0.32,-0.412,0.183,-168.2,-20.6,-35,0,2018,5,17,21,32,26.562,0.6849,-0.3693,-0.3964,0.487
-0.262,-0.387,0.13,-190.2,-9.1,-53.5,0,2018,5,17,21,32,26.595,0.6922,-0.3893,-0.373,0.4795
-0.246,-0.352,0.062,-206.6,2.1,-69.6,0,2018,5,17,21,32,26.618,0.6993,-0.4101,-0.3448,0.473
-0.231,-0.329,-0.032,-219.5,14.7,-84.2,0,2018,5,17,21,32,26.623,0.7058,-0.431,-0.3122,0.4673
-0.169,-0.234,-0.139,-227.2,35,-97.2,0,2018,5,17,21,32,26.657,0.7118,-0.4508,-0.2753,0.4627
-0.065,-0.174,-0.183,-220.2,55.2,-103.4,0,2018,5,17,21,32,26.68,0.7174,-0.4677,-0.2355,0.4593
-0.04,-0.208,-0.165,-208,78.4,-105.3,0,2018,5,17,21,32,26.685,0.7227,-0.4802,-0.1946,0.4573
-0.053,-0.177,-0.124,-196.5,101.9,-106,0,2018,5,17,21,32,26.702,0.7281,-0.488,-0.1528,0.4564
-0.053,-0.102,-0.137,-189,117.5,-108.6,0,2018,5,17,21,32,26.726,0.7335,-0.4915,-0.1104,0.4562
0.019,-0.014,-0.238,-178.7,123.8,-111.6,1023,2018,5,17,21,32,26.742,0.738,-0.492,-0.0678,0.4565
0.075,0.034,-0.315,-164.8,120.3,-115.7,1023,2018,5,17,21,32,26.762,0.7409,-0.4907,-0.0262,0.4576
0.091,0.03,-0.285,-148.2,117.9,-119.4,1023,2018,5,17,21,32,26.787,0.7419,-0.4878,0.0133,0.4597
0.103,0.097,-0.28,-133.2,117.7,-123.5,1023,2018,5,17,21,32,26.802,0.7413,-0.483,0.051,0.4631
0.136,0.171,-0.281,-116.6,113.3,-125.9,1023,2018,5,17,21,32,26.819,0.7395,-0.4763,0.0868,0.4676
0.187,0.255,-0.312,-96.4,99.1,-127.7,1023,2018,5,17,21,32,26.842,0.736,-0.4688,0.1195,0.4734
0.194,0.264,-0.281,-73.3,79.9,-125.9,1023,2018,5,17,21,32,26.879,0.7307,-0.4612,0.1478,0.4809
0.164,0.262,-0.226,-52.4,61.2,-121.9,1023,2018,5,17,21,32,26.902,0.724,-0.4542,0.1715,0.4898
0.13,0.256,-0.182,-34.5,48.1,-114.6,1023,2018,5,17,21,32,26.906,0.7167,-0.4473,0.1909,0.4996
0.14,0.286,-0.207,-19,33.9,-106.7,1023,2018,5,17,21,32,26.924,0.7093,-0.4408,0.2065,0.5097
0.15,0.345,-0.267,-2.7,10,-98,1023,2018,5,17,21,32,26.947,0.7013,-0.4353,0.2178,0.5206
0.132,0.321,-0.258,14.2,-15.8,-86.5,1023,2018,5,17,21,32,26.964,0.6928,-0.4318,0.2238,0.5323
0.102,0.241,-0.27,31.1,-37.6,-73.8,1023,2018,5,17,21,32,26.988,0.6841,-0.4299,0.2246,0.5446
0.082,0.212,-0.258,48.5,-50.1,-58.9,1023,2018,5,17,21,32,27.007,0.6759,-0.4289,0.2207,0.557
0.071,0.232,-0.256,65.1,-60.8,-44.7,1023,2018,5,17,21,32,27.025,0.6688,-0.428,0.2126,0.5693
0.021,0.184,-0.22,80.4,-71.9,-30.7,0,2018,5,17,21,32,27.048,0.6628,-0.4271,0.2002,0.5814
-0.008,0.103,-0.187,93.1,-75.9,-17.7,0,2018,5,17,21,32,27.066,0.6577,-0.4261,0.1845,0.5931
-0.021,0.088,-0.141,102.1,-74.2,-7.1,0,2018,5,17,21,32,27.086,0.6536,-0.4245,0.1669,0.6039
-0.032,0.176,-0.151,106.2,-77.2,2.5,0,2018,5,17,21,32,27.106,0.6505,-0.422,0.1475,0.6139
-0.073,0.186,-0.118,107.4,-84.4,12.6,0,2018,5,17,21,32,27.141,0.6479,-0.42,0.1263,0.6226
-0.146,0.066,-0.008,105.7,-80.2,23.9,0,2018,5,17,21,32,27.163,0.6461,-0.4176,0.1039,0.6302
-0.215,0.02,-0.057,97.6,-76.6,35.1,0,2018,5,17,21,32,27.167,0.6455,-0.4153,0.0815,0.6356
-0.144,0.085,-0.14,88.5,-73,44.1,0,2018,5,17,21,32,27.185,0.6459,-0.4137,0.0595,0.6387
-0.105,0.197,-0.29,83.6,-83.3,51.8,0,2018,5,17,21,32,27.207,0.6461,-0.4137,0.0379,0.6401
-0.13,0.131,-0.308,89.2,-91.4,60.4,0,2018,5,17,21,32,27.244,0.6465,-0.4142,0.0142,0.6404
-0.201,0.036,-0.31,93.1,-89.6,70.4,0,2018,5,17,21,32,27.267,0.6472,-0.4142,-0.0112,0.6398
-0.277,0.019,-0.296,97.4,-76.9,83,0,2018,5,17,21,32,27.272,0.6493,-0.4125,-0.0371,0.6378
-0.343,-0.009,-0.254,105.1,-67.5,94.4,0,2018,5,17,21,32,27.287,0.6531,-0.4088,-0.0628,0.6342
-0.404,-0.002,-0.192,116.1,-59.3,104.3,0,2018,5,17,21,32,27.311,0.6582,-0.4023,-0.0897,0.6299
-0.449,0.011,-0.151,125.4,-56.6,111.6,0,2018,5,17,21,32,27.328,0.6638,-0.3933,-0.118,0.6249
-0.463,-0.013,-0.162,130.4,-62.7,116.9,0,2018,5,17,21,32,27.345,0.6693,-0.3833,-0.1475,0.619
-0.445,-0.037,-0.214,131.3,-70.7,119.8,0,2018,5,17,21,32,27.369,0.6739,-0.3735,-0.1781,0.612
-0.422,-0.053,-0.189,131.8,-75.3,121.4,1023,2018,5,17,21,32,27.385,0.6775,-0.3639,-0.2094,0.6037
-0.403,-0.078,-0.121,130.1,-76.7,121.3,1023,2018,5,17,21,32,27.408,0.6802,-0.3542,-0.2409,0.5946
-0.431,-0.151,0.004,124.4,-70,119.4,1023,2018,5,17,21,32,27.446,0.6824,-0.3442,-0.2713,0.5849
-0.434,-0.207,0.056,110,-60.1,114.6,1023,2018,5,17,21,32,27.469,0.6846,-0.3341,-0.2989,0.5746
-0.32,-0.176,0.079,68.6,-47.2,92.1,1023,2018,5,17,21,32,27.493,0.6912,-0.3082,-0.3635,0.5431
-0.332,-0.232,0.15,53.2,-41.1,83.1,1023,2018,5,17,21,32,27.516,0.693,-0.3022,-0.3796,0.5329
-0.308,-0.222,0.164,34.5,-37.1,73.6,1023,2018,5,17,21,32,27.518,0.6953,-0.2976,-0.3925,0.5231
-0.264,-0.147,0.145,16,-40.3,63.4,1023,2018,5,17,21,32,27.529,0.6978,-0.2953,-0.4025,0.5135
-0.22,-0.131,0.131,-1.6,-49.1,53.1,1023,2018,5,17,21,32,27.566,0.7002,-0.2961,-0.4103,0.5035
-0.236,-0.204,0.193,-17.4,-50,44.5,1023,2018,5,17,21,32,27.589,0.7027,-0.2992,-0.4162,0.4933
-0.223,-0.217,0.224,-36.2,-39.8,38.4,1023,2018,5,17,21,32,27.593,0.7063,-0.3032,-0.419,0.4832
-0.189,-0.17,0.201,-56,-33.4,30.1,1023,2018,5,17,21,32,27.609,0.7111,-0.3082,-0.4181,0.4737
-0.162,-0.166,0.174,-74.8,-31.6,20.9,1023,2018,5,17,21,32,27.628,0.7166,-0.315,-0.4139,0.4644
-0.129,-0.17,0.156,-91.8,-29.4,12.2,1023,2018,5,17,21,32,27.648,0.7226,-0.3239,-0.4067,0.4554
-0.113,-0.206,0.14,-106.4,-23.9,4.2,1023,2018,5,17,21,32,27.668,0.7288,-0.3343,-0.3966,0.4468
-0.138,-0.234,0.134,-120.6,-15.1,-4.4,0,2018,5,17,21,32,27.707,0.7355,-0.3455,-0.3836,0.4386
-0.144,-0.203,0.104,-136.2,-5.8,-15.1,0,2018,5,17,21,32,27.729,0.7426,-0.357,-0.3675,0.4311
-0.124,-0.141,0.032,-148.9,0.2,-26.8,0,2018,5,17,21,32,27.734,0.7498,-0.3691,-0.3482,0.4243
-0.093,-0.11,-0.035,-157.3,1.9,-37.7,0,2018,5,17,21,32,27.752,0.7564,-0.3823,-0.3265,0.4182
-0.087,-0.091,-0.07,-162.3,3.6,-45.4,0,2018,5,17,21,32,27.788,0.7621,-0.3961,-0.3028,0.4128
-0.099,-0.1,-0.096,-165.6,7.5,-51.4,0,2018,5,17,21,32,27.811,0.7673,-0.4096,-0.2771,0.408
-0.119,-0.073,-0.126,-168.7,13.7,-57.4,0,2018,5,17,21,32,27.816,0.7719,-0.4226,-0.2499,0.4037
-0.083,-0.034,-0.147,-167.5,19.1,-62.9,0,2018,5,17,21,32,27.83,0.7759,-0.4346,-0.2215,0.3999
-0.057,-0.01,-0.162,-163.1,23.8,-66.5,0,2018,5,17,21,32,27.849,0.779,-0.4455,-0.1925,0.3968
-0.041,-0.015,-0.155,-155.1,26.6,-68.3,0,2018,5,17,21,32,27.873,0.7808,-0.456,-0.1643,0.394
-0.053,-0.025,-0.146,-147.2,28.9,-70.4,0,2018,5,17,21,32,27.889,0.782,-0.4649,-0.1367,0.3918
-0.064,-0.013,-0.134,-142,27.2,-74.4,0,2018,5,17,21,32,27.91,0.7822,-0.473,-0.1096,0.3902
-0.052,0.017,-0.111,-137.3,27.2,-77.4,0,2018,5,17,21,32,27.948,0.7812,-0.481,-0.083,0.389
-0.025,0.058,-0.115,-130.3,21.4,-77.6,0,2018,5,17,21,32,27.972,0.7794,-0.4883,-0.0569,0.3883
0.013,0.017,-0.15,-119.9,19.3,-77,0,2018,5,17,21,32,27.977,0.7763,-0.4955,-0.0322,0.3882
0.029,0.005,-0.145,-106.1,28.6,-75.3,0,2018,5,17,21,32,27.995,0.7737,-0.4998,-0.0089,0.3889
0.023,0.025,-0.095,-95,37.1,-74.1,0,2018,5,17,21,32,28.012,0.7713,-0.5024,0.0132,0.3904
0.02,0.041,-0.089,-88.4,42.3,-73.5,0,2018,5,17,21,32,28.036,0.769,-0.5033,0.0348,0.3923
0.056,0.057,-0.088,-80.2,39.9,-73.1,1023,2018,5,17,21,32,28.051,0.7665,-0.5034,0.056,0.3946
0.064,0.072,-0.076,-72.5,33.3,-74.4,1023,2018,5,17,21,32,28.078,0.7631,-0.5035,0.076,0.3977
0.04,0.034,-0.075,-66.2,27,-77.7,1023,2018,5,17,21,32,28.093,0.7589,-0.5036,0.0946,0.4016
0.036,0.043,-0.089,-62.1,26.2,-81.5,1023,2018,5,17,21,32,28.109,0.7539,-0.5039,0.1126,0.4061
0.062,0.054,-0.091,-56.2,27.3,-82.9,1023,2018,5,17,21,32,28.133,0.7489,-0.5031,0.1299,0.4112
0.065,0.081,-0.074,-50.3,25.8,-85.4,1023,2018,5,17,21,32,28.152,0.7434,-0.5018,0.1468,0.417
0.039,0.043,-0.046,-43.9,23.2,-87.4,1023,2018,5,17,21,32,28.171,0.7373,-0.5001,0.1631,0.4236
0.026,0.055,-0.035,-40.1,24,-88.6,1023,2018,5,17,21,32,28.194,0.7311,-0.4978,0.1785,0.4307
0.036,0.075,-0.04,-37.1,22.9,-89.1,1023,2018,5,17,21,32,28.232,0.7248,-0.495,0.1936,0.4382
0.083,0.132,-0.061,-33.6,17.3,-90.2,1023,2018,5,17,21,32,28.252,0.7181,-0.492,0.208,0.446
0.082,0.156,-0.066,-26.4,3.6,-90.7,1023,2018,5,17,21,32,28.257,0.7108,-0.4896,0.2203,0.4542
0.065,0.143,-0.034,-18.9,-7.5,-87.9,1023,2018,5,17,21,32,28.275,0.7024,-0.4883,0.2307,0.4634
0.07,0.135,-0.019,-11.4,-12.4,-83.1,1023,2018,5,17,21,32,28.299,0.6939,-0.4874,0.2391,0.4728
0.093,0.166,-0.051,-3.2,-15,-76.5,1023,2018,5,17,21,32,28.316,0.6858,-0.4864,0.2458,0.4822
0.108,0.188,-0.054,4.6,-20,-69,1023,2018,5,17,21,32,28.339,0.6781,-0.4853,0.2504,0.4917
0.099,0.155,-0.04,12,-26.4,-60.8,0,2018,5,17,21,32,28.376,0.6709,-0.4846,0.2529,0.501
0.066,0.109,-0.021,19.3,-28.8,-52.1,0,2018,5,17,21,32,28.376,0.6641,-0.484,0.2537,0.5101
0.056,0.111,-0.049,24.5,-31.1,-44.7,0,2018,5,17,21,32,28.4,0.6577,-0.4833,0.2536,0.519
0.062,0.166,-0.078,30.1,-38.5,-37.7,0,2018,5,17,21,32,28.417,0.6522,-0.4829,0.2508,0.5275
0.077,0.246,-0.126,35.9,-51.9,-30.9,0,2018,5,17,21,32,28.453,0.6467,-0.4835,0.2459,0.5361
0.064,0.221,-0.137,46,-64.2,-19.1,0,2018,5,17,21,32,28.476,0.641,-0.4853,0.2378,0.5449
0.04,0.196,-0.101,57.7,-64.9,-2.1,0,2018,5,17,21,32,28.48,0.6365,-0.4872,0.2268,0.553
-0.013,0.18,-0.051,66,-59.6,17.4,0,2018,5,17,21,32,28.495,0.6344,-0.4885,0.2133,0.5597
-0.045,0.22,-0.135,73.5,-60,38.1,0,2018,5,17,21,32,28.519,0.6346,-0.4891,0.1973,0.5647
-0.05,0.282,-0.232,85.7,-69.5,57.7,0,2018,5,17,21,32,28.537,0.6365,-0.4902,0.1783,0.568
-0.133,0.191,-0.244,99.1,-77.4,78,0,2018,5,17,21,32,28.561,0.6396,-0.4913,0.1548,0.5704
-0.219,0.087,-0.272,111,-80.8,95.7,0,2018,5,17,21,32,28.575,0.644,-0.4919,0.1276,0.5716
-0.29,0.05,-0.284,126.4,-73.1,113.1,0,2018,5,17,21,32,28.611,0.6502,-0.491,0.0977,0.5713
-0.337,0.031,-0.271,140.4,-57.6,125.6,0,2018,5,17,21,32,28.634,0.6585,-0.4868,0.0658,0.57
-0.386,0.033,-0.388,154.3,-51.6,133.7,0,2018,5,17,21,32,28.638,0.6683,-0.4793,0.0323,0.5679
-0.423,0.004,-0.431,168.2,-53.4,138.4,0,2018,5,17,21,32,28.655,0.6778,-0.4698,-0.003,0.5654
-0.47,-0.008,-0.376,180.6,-51.6,142.8,0,2018,5,17,21,32,28.678,0.6867,-0.4582,-0.0407,0.5628
-0.415,0.044,-0.329,190,-48.3,145.7,0,2018,5,17,21,32,28.698,0.695,-0.4443,-0.0794,0.5595
-0.429,0.019,-0.254,198.7,-42.8,147.9,1023,2018,5,17,21,32,28.734,0.7025,-0.4282,-0.1191,0.5557
-0.493,-0.037,-0.168,200,-42.2,144.5,1023,2018,5,17,21,32,28.758,0.7086,-0.4104,-0.1588,0.5514
-0.493,-0.026,-0.121,193.6,-38.3,141.6,1023,2018,5,17,21,32,28.762,0.7134,-0.392,-0.1972,0.5462
-0.453,0.041,-0.104,183.2,-41,136.1,1023,2018,5,17,21,32,28.779,0.7168,-0.3738,-0.2337,0.54
-0.523,-0.1,0.065,170.4,-45.4,128.3,1023,2018,5,17,21,32,28.8,0.7186,-0.3569,-0.2685,0.5329
-0.597,-0.245,0.211,143.4,-32.7,118.3,1023,2018,5,17,21,32,28.837,0.7198,-0.3412,-0.2995,0.525
-0.54,-0.187,0.238,106.7,-19.4,102.5,1023,2018,5,17,21,32,28.837,0.7215,-0.327,-0.3239,0.517
-0.43,-0.075,0.161,70.9,-20.8,83.9,1023,2018,5,17,21,32,28.861,0.7238,-0.3161,-0.3418,0.5091
-0.296,0.011,0.022,43,-37.5,65.9,1023,2018,5,17,21,32,28.879,0.7254,-0.3103,-0.3554,0.501
-0.237,-0.06,0.003,25.6,-61.7,50.8,1023,2018,5,17,21,32,28.915,0.7255,-0.3102,-0.3672,0.4923
-0.242,-0.171,0.108,10,-70.9,42.7,1023,2018,5,17,21,32,28.938,0.7246,-0.3144,-0.3777,0.483
-0.245,-0.218,0.194,-6.6,-63.7,39.4,1023,2018,5,17,21,32,28.943,0.7241,-0.3201,-0.3858,0.4734
-0.239,-0.201,0.237,-23.9,-52,36,1023,2018,5,17,21,32,28.961,0.725,-0.3261,-0.3907,0.4639
-0.208,-0.149,0.203,-39.5,-45.2,31.4,1023,2018,5,17,21,32,28.997,0.7272,-0.3325,-0.3924,0.4545
-0.139,-0.11,0.121,-51.4,-46.8,26.1,1023,2018,5,17,21,32,29.019,0.7302,-0.3394,-0.3919,0.4448
-0.109,-0.113,0.093,-59.5,-52.5,21.3,0,2018,5,17,21,32,29.024,0.7331,-0.3479,-0.3902,0.4348
-0.104,-0.114,0.102,-68.1,-57.8,15.9,0,2018,5,17,21,32,29.058,0.7356,-0.3582,-0.3874,0.4246
-0.128,-0.15,0.121,-77.8,-61.7,10.7,0,2018,5,17,21,32,29.079,0.7379,-0.37,-0.3834,0.4141
-0.133,-0.172,0.124,-88.6,-58.5,4.5,0,2018,5,17,21,32,29.084,0.7403,-0.3828,-0.3776,0.4034
-0.13,-0.172,0.114,-97.8,-48.5,-1.1,0,2018,5,17,21,32,29.12,0.7431,-0.3957,-0.3696,0.3931
-0.123,-0.142,0.085,-106.8,-37.4,-7.5,0,2018,5,17,21,32,29.12,0.7465,-0.408,-0.3591,0.3835
-0.124,-0.106,0.068,-115.4,-32,-13.8,0,2018,5,17,21,32,29.143,0.7504,-0.4201,-0.3464,0.3745
-0.125,-0.077,0.044,-124.3,-31.7,-20.5,0,2018,5,17,21,32,29.158,0.7542,-0.4326,-0.3319,0.3655
-0.097,-0.063,0.005,-129,-32.9,-26,0,2018,5,17,21,32,29.179,0.7576,-0.446,-0.3159,0.3567
-0.081,-0.063,-0.025,-131.2,-31.9,-30.9,0,2018,5,17,21,32,29.217,0.7601,-0.4599,-0.2991,0.348
-0.079,-0.086,-0.024,-130.7,-28.4,-35.1,0,2018,5,17,21,32,29.241,0.7621,-0.4736,-0.2814,0.3398
-0.084,-0.091,0.004,-130.3,-20.5,-39.4,0,2018,5,17,21,32,29.246,0.7639,-0.4864,-0.2629,0.3323
-0.065,-0.063,0.01,-128.2,-10.5,-42.5,0,2018,5,17,21,32,29.264,0.766,-0.4977,-0.2435,0.3257
-0.029,-0.024,-0.031,-122.9,-5.1,-43.8,0,2018,5,17,21,32,29.282,0.768,-0.5076,-0.2236,0.3199
