ax,ay,az,dpitch,droll,dyaw,heart,time_1,time_2,time_3,time_4,time_5,time_6,w,x,y,z
0.011,0.002,-0.08,5.6,-1.1,-35,0,2018,5,10,16,6,13.665,0.9187,-0.3232,0.226,0.0164
0.071,0.059,-0.097,12.5,-7.8,-34.9,0,2018,5,10,16,6,13.683,0.9184,-0.3227,0.2273,0.0227
0.091,0.067,-0.031,17.8,-16.7,-34,0,2018,5,10,16,6,13.695,0.9179,-0.3232,0.2278,0.0299
0.072,-0.001,0.05,18.4,-6,-32.6,1023,2018,5,10,16,6,13.73,0.9176,-0.3236,0.2274,0.0371
0.072,0.038,0.066,16.9,11.8,-29.9,1023,2018,5,10,16,6,13.751,0.9184,-0.3212,0.2267,0.043
0.11,0.042,0.037,12.2,13.6,-27.8,1023,2018,5,10,16,6,13.756,0.9195,-0.3172,0.2267,0.0482
0.135,0.056,0.021,9.5,-2.1,-27.1,1023,2018,5,10,16,6,13.793,0.9199,-0.3149,0.2272,0.0529
0.111,0.048,0.026,8.2,-15.7,-28.2,1023,2018,5,10,16,6,13.795,0.9193,-0.3156,0.2274,0.058
0.102,-0.047,0.057,6.2,-14.4,-32.4,1023,2018,5,10,16,6,13.812,0.9183,-0.3168,0.2285,0.0639
0.112,-0.005,0.039,7.8,-8.5,-35,1023,2018,5,10,16,6,13.847,0.9173,-0.3173,0.2298,0.0702
0.083,0,0.022,8.6,1.7,-36.7,1023,2018,5,10,16,6,13.868,0.9169,-0.316,0.2311,0.0768
0.088,-0.017,0.021,10.6,9.1,-40.8,1023,2018,5,10,16,6,13.873,0.9169,-0.3134,0.2324,0.0832
0.067,-0.022,0.059,13.7,3.2,-45.7,1023,2018,5,10,16,6,13.91,0.9171,-0.3101,0.2333,0.0908
0.104,-0.057,0.054,16.5,-9.8,-50.6,0,2018,5,10,16,6,13.93,0.9166,-0.3086,0.2338,0.0995
0.074,-0.022,0.105,16,-17.2,-55.2,0,2018,5,10,16,6,13.935,0.9154,-0.3083,0.234,0.1095
0.038,-0.077,0.149,10.1,-13.6,-61.3,0,2018,5,10,16,6,13.971,0.9141,-0.308,0.2346,0.1201
0.108,-0.094,0.118,4.7,-8.2,-65.3,0,2018,5,10,16,6,13.992,0.9125,-0.3068,0.2365,0.1311
0.118,-0.1,0.122,0.7,-9.6,-70.5,0,2018,5,10,16,6,13.997,0.9104,-0.3054,0.2397,0.1423
0.089,-0.109,0.113,-1.3,-12.3,-77.1,0,2018,5,10,16,6,14.034,0.9077,-0.3046,0.2436,0.1542
0.12,-0.103,0.119,-3.2,-11.9,-84.3,0,2018,5,10,16,6,14.054,0.9047,-0.3032,0.248,0.1673
0.191,-0.151,0.111,-4.6,-11.6,-93.2,0,2018,5,10,16,6,14.057,0.9009,-0.3019,0.2534,0.1813
0.206,-0.168,0.075,-4,-7.7,-100.4,0,2018,5,10,16,6,14.077,0.8966,-0.3001,0.2595,0.1964
0.046,-0.171,0.041,-1.9,10.3,-105.3,0,2018,5,10,16,6,14.096,0.8925,-0.2965,0.2656,0.2118
0.039,-0.062,0.045,2.2,23.2,-109.5,0,2018,5,10,16,6,14.115,0.8893,-0.289,0.2713,0.2276
0.149,-0.04,0.031,6.7,29.4,-110.7,0,2018,5,10,16,6,14.137,0.8861,-0.2797,0.2776,0.2435
0.19,-0.061,0.06,7.6,25,-110.1,0,2018,5,10,16,6,14.176,0.8827,-0.2698,0.2838,0.2596
0.053,0.288,0.202,9.3,-12.3,-96,0,2018,5,10,16,6,14.195,0.8785,-0.2627,0.2883,0.2756
-0.219,0.567,0.299,1.7,-79.4,-62.8,0,2018,5,10,16,6,14.198,0.8727,-0.2663,0.2885,0.29
-0.331,-0.015,0.152,-8.7,-34.9,-52.6,0,2018,5,10,16,6,14.233,0.8664,-0.2739,0.2882,0.3018
-0.214,-0.091,-0.026,-13.4,58.8,-48.8,0,2018,5,10,16,6,14.254,0.8639,-0.2695,0.2934,0.3078
-0.255,-0.036,-0.082,-11.9,79.1,-48.9,0,2018,5,10,16,6,14.257,0.8641,-0.2565,0.3019,0.3104
-0.292,-0.105,-0.171,-3.7,75.2,-52.4,0,2018,5,10,16,6,14.274,0.8642,-0.2429,0.3097,0.3132
-0.321,-0.077,-0.118,4.1,58.8,-56.3,0,2018,5,10,16,6,14.294,0.8641,-0.2298,0.3157,0.3174
-0.273,-0.103,-0.037,9,17.2,-60,0,2018,5,10,16,6,14.331,0.8627,-0.2203,0.3191,0.3243
-0.247,-0.146,-0.069,14.9,-22.1,-63,0,2018,5,10,16,6,14.351,0.8596,-0.2173,0.3194,0.3341
-0.275,-0.124,-0.086,19.3,-31.8,-63.8,0,2018,5,10,16,6,14.357,0.8557,-0.2172,0.3176,0.3457
-0.274,-0.146,-0.067,17.8,-17.4,-64.1,0,2018,5,10,16,6,14.393,0.8519,-0.2165,0.3156,0.3573
-0.203,-0.158,-0.043,13.2,10.9,-63,1023,2018,5,10,16,6,14.416,0.8486,-0.2126,0.3157,0.3673
-0.206,-0.028,-0.003,10.3,23.9,-60.7,1023,2018,5,10,16,6,14.419,0.846,-0.2055,0.3175,0.3756
-0.188,0.054,0.023,7,19.2,-57.4,1023,2018,5,10,16,6,14.456,0.8434,-0.1983,0.3197,0.3835
-0.145,0.025,0.046,4.9,9.3,-53.9,1023,2018,5,10,16,6,14.476,0.8405,-0.1927,0.3215,0.3909
-0.183,0.026,0.059,1.5,3.3,-51.7,1023,2018,5,10,16,6,14.478,0.8377,-0.188,0.3222,0.3987
-0.14,0.09,0.045,-1.2,-8.1,-48,1023,2018,5,10,16,6,14.52,0.8341,-0.1856,0.3237,0.4061
-0.095,0.092,0.001,-0.9,-17,-45.4,1023,2018,5,10,16,6,14.524,0.8303,-0.1851,0.3245,0.4134
-0.081,0.042,0.008,-1.1,-20,-42.7,1023,2018,5,10,16,6,14.541,0.8265,-0.1845,0.3244,0.4213
-0.095,0.038,0.009,-3.1,-15.7,-39.2,1023,2018,5,10,16,6,14.56,0.823,-0.1841,0.3241,0.4285
-0.052,0.037,-0.025,-2,-12.6,-35.3,0,2018,5,10,16,6,14.58,0.8197,-0.1836,0.3242,0.4348
-0.019,0.044,-0.005,0.4,-10.7,-31.3,0,2018,5,10,16,6,14.6,0.8168,-0.183,0.3245,0.4404
-0.025,0.027,0.026,0.8,-5.5,-27.5,0,2018,5,10,16,6,14.638,0.8143,-0.1821,0.3247,0.4452
-0.032,0.023,0.048,0.1,1.6,-25.5,0,2018,5,10,16,6,14.66,0.8124,-0.1802,0.325,0.4491
0.005,0.047,0.034,-1.8,0.1,-22.1,0,2018,5,10,16,6,14.665,0.8106,-0.1782,0.3259,0.4525
-0.012,0.041,0.018,-2.5,-5.7,-19.4,0,2018,5,10,16,6,14.679,0.8087,-0.1772,0.3267,0.4556
-0.055,0.03,0.015,-5.9,-3.4,-16,0,2018,5,10,16,6,14.719,0.807,-0.1769,0.3274,0.4583
-0.053,-0.002,0,-10.4,8.3,-12.5,0,2018,5,10,16,6,14.737,0.8057,-0.176,0.3289,0.46
-0.094,0.04,0.002,-14.6,14.4,-7.7,0,2018,5,10,16,6,14.742,0.8046,-0.1743,0.3317,0.4605
-0.053,0.061,0.012,-18.5,10.3,-2.4,0,2018,5,10,16,6,14.761,0.8038,-0.1727,0.3349,0.4602
-0.064,0.079,0.005,-21.4,5.9,3.6,0,2018,5,10,16,6,14.781,0.8029,-0.1723,0.3382,0.4595
-0.133,0.076,0.005,-24,8.3,9.8,0,2018,5,10,16,6,14.817,0.8023,-0.1729,0.3414,0.4578
-0.202,0.045,0.006,-28.7,19.1,17.8,0,2018,5,10,16,6,14.837,0.8023,-0.1739,0.3458,0.4542
-0.008,0.083,0,-33.2,30.3,28.7,0,2018,5,10,16,6,14.841,0.803,-0.1737,0.3516,0.4486
0.042,0.132,-0.006,-34.4,26,37.1,0,2018,5,10,16,6,14.882,0.8042,-0.1738,0.3582,0.4411
-0.101,0.076,0.006,-35.4,18.2,43.3,0,2018,5,10,16,6,14.902,0.8057,-0.1751,0.3637,0.4333
-0.237,0.094,-0.01,-34.9,16.9,49.5,0,2018,5,10,16,6,14.906,0.8074,-0.1783,0.3686,0.4245
-0.138,0.084,-0.014,-34.3,12.3,56.9,0,2018,5,10,16,6,14.923,0.8096,-0.1822,0.3729,0.4149
0.116,0.024,0.031,-34.3,5.2,64.1,0,2018,5,10,16,6,14.943,0.8119,-0.187,0.3767,0.4047
0.012,-0.031,0.059,-34.4,7.5,69.6,0,2018,5,10,16,6,14.961,0.8145,-0.1932,0.3798,0.3935
-0.162,-0.038,0.079,-34.5,19.2,71.6,0,2018,5,10,16,6,14.983,0.8177,-0.1983,0.3827,0.3812
-0.076,0.042,0.09,-33.1,29.1,72.8,0,2018,5,10,16,6,15,0.8215,-0.2013,0.386,0.3681
0.06,-0.06,0.105,-35.9,31.8,76.1,0,2018,5,10,16,6,15.036,0.8252,-0.204,0.3899,0.3538
0.101,-0.047,0.091,-36.4,27.7,74.4,0,2018,5,10,16,6,15.056,0.8285,-0.2074,0.394,0.3393
-0.008,-0.02,0.099,-32.3,27.2,69.2,0,2018,5,10,16,6,15.063,0.8315,-0.2106,0.3976,0.3255
-0.031,-0.044,0.106,-28.1,42.5,64.7,0,2018,5,10,16,6,15.102,0.8349,-0.2117,0.4006,0.3122
0.178,-0.1,0.087,-22.6,46.9,59.9,1023,2018,5,10,16,6,15.122,0.8385,-0.211,0.404,0.2984
0.19,-0.065,0.03,-13.4,30.5,52.7,1023,2018,5,10,16,6,15.126,0.8414,-0.2107,0.4071,0.2861
0.087,-0.058,-0.014,4,16.7,39.6,1023,2018,5,10,16,6,15.145,0.8438,-0.2118,0.4076,0.277
-0.022,-0.03,0.01,24.8,17.7,29.8,1023,2018,5,10,16,6,15.166,0.8471,-0.2113,0.405,0.2711
-0.133,-0.074,0,45.6,3,21.1,1023,2018,5,10,16,6,15.187,0.8515,-0.2097,0.3991,0.2675
0.038,0.017,-0.043,70.3,-44.9,11.9,1023,2018,5,10,16,6,15.207,0.8556,-0.2113,0.3886,0.2685
0.201,0.013,-0.039,89.8,-85.7,12.2,1023,2018,5,10,16,6,15.224,0.8586,-0.2186,0.3736,0.2745
0.113,-0.101,-0.023,103.3,-84.4,19.3,1023,2018,5,10,16,6,15.243,0.8617,-0.2288,0.355,0.2811
-0.006,-0.201,0.048,110.9,-67.7,21.5,1023,2018,5,10,16,6,15.264,0.8661,-0.2364,0.3341,0.2866
0.003,-0.227,0.106,109.3,-40.7,23.5,0,2018,5,10,16,6,15.304,0.8712,-0.2404,0.3137,0.2909
0.075,-0.152,0.083,105.6,-20.7,27.9,0,2018,5,10,16,6,15.308,0.877,-0.2409,0.2947,0.2929
0.168,-0.077,-0.017,104.2,-25.5,30,0,2018,5,10,16,6,15.324,0.8826,-0.241,0.2766,0.2936
0.152,-0.039,-0.113,107.2,-50.6,29.1,0,2018,5,10,16,6,15.344,0.8874,-0.2431,0.2574,0.2949
0.148,-0.125,-0.007,106,-58,28.5,0,2018,5,10,16,6,15.364,0.891,-0.248,0.2364,0.2975
0.174,-0.279,0.096,89.8,-36.6,24,0,2018,5,10,16,6,15.405,0.8943,-0.2512,0.2175,0.2994
0.242,-0.261,0.091,70.5,-28.9,15.6,0,2018,5,10,16,6,15.424,0.8969,-0.2526,0.2025,0.3011
0.303,-0.266,0.025,57.6,-22.8,6.8,0,2018,5,10,16,6,15.429,0.8984,-0.2538,0.1907,0.3031
0.322,-0.191,-0.066,49.8,-2.9,-2.7,0,2018,5,10,16,6,15.444,0.8997,-0.2529,0.1814,0.3058
0.324,-0.153,-0.072,41.8,17.8,-15.2,0,2018,5,10,16,6,15.464,0.901,-0.2492,0.175,0.3089
0.325,-0.116,-0.078,42.5,51.2,-28.3,0,2018,5,10,16,6,15.483,0.9026,-0.2402,0.1712,0.3133
0.36,-0.063,-0.037,37.1,70.3,-39.5,0,2018,5,10,16,6,15.524,0.9043,-0.2274,0.1696,0.3186
0.301,0.001,0.036,27.3,106.9,-44.9,0,2018,5,10,16,6,15.544,0.9063,-0.2101,0.171,0.3242
0.259,0.058,0.03,13.5,143.6,-43.5,0,2018,5,10,16,6,15.548,0.9088,-0.1872,0.1766,0.3282
0.223,0.127,-0.037,-2.6,160.9,-36.9,0,2018,5,10,16,6,15.586,0.9113,-0.1612,0.1859,0.33
0.176,0.3,-0.064,-14.9,168.1,-21.9,0,2018,5,10,16,6,15.606,0.9135,-0.1342,0.1976,0.3292
0.162,0.37,-0.072,-26.3,161.5,-1,0,2018,5,10,16,6,15.611,0.9156,-0.1083,0.2106,0.3247
0.122,0.372,-0.079,-40.9,151.5,23,0,2018,5,10,16,6,15.629,0.9175,-0.086,0.2245,0.3165
0.02,0.305,-0.011,-55.6,168.6,48.4,0,2018,5,10,16,6,15.648,0.9196,-0.0646,0.2404,0.3037
0.024,0.307,-0.009,-73.8,193.9,75.7,0,2018,5,10,16,6,15.666,0.9216,-0.0413,0.2598,0.285
-0.012,0.234,-0.08,-84.7,211.7,99.1,0,2018,5,10,16,6,15.685,0.9231,-0.0166,0.282,0.2608
-0.151,0.189,-0.103,-100.7,231.1,125,0,2018,5,10,16,6,15.704,0.9233,0.0089,0.3062,0.2315
-0.111,0.231,-0.133,-101.7,278,146.7,0,2018,5,10,16,6,15.725,0.9215,0.0385,0.3328,0.1958
-0.111,0.318,-0.069,-84.5,280.2,162.4,0,2018,5,10,16,6,15.746,0.9179,0.0724,0.358,0.1545
-0.312,0.331,0.095,-72,217.5,172,0,2018,5,10,16,6,15.786,0.9131,0.0998,0.3787,0.1128
-0.398,0.274,0.125,-66.7,135.1,177.7,1023,2018,5,10,16,6,15.807,0.9079,0.1145,0.3962,0.0744
-0.31,0.17,0.052,-41.6,51.1,167.3,1023,2018,5,10,16,6,15.811,0.904,0.1158,0.4092,0.0418
-0.294,-0.022,0.033,-21.8,3.2,155.9,1023,2018,5,10,16,6,15.829,0.9021,0.1078,0.4175,0.0152
-0.413,-0.167,0.094,-10.6,-35.9,135.6,1023,2018,5,10,16,6,15.849,0.9015,0.094,0.4222,-0.0059
-0.322,-0.105,0.033,-5.1,-58.2,117.4,1023,2018,5,10,16,6,15.87,0.9013,0.077,0.4255,-0.0219
-0.111,-0.119,0.006,2.8,-42.5,101.6,1023,2018,5,10,16,6,15.906,0.9013,0.0605,0.4273,-0.0351
-0.084,-0.18,-0.001,7,16.4,92.5,1023,2018,5,10,16,6,15.927,0.9011,0.0511,0.4275,-0.0493
-0.059,-0.097,0.033,6.4,59.9,88.6,1023,2018,5,10,16,6,15.931,0.9004,0.0511,0.4267,-0.0667
0.021,0.082,0.022,8.3,68.6,91.5,1023,2018,5,10,16,6,15.95,0.8992,0.0549,0.4253,-0.0857
0.126,0.216,0.117,16.7,59.9,98.6,0,2018,5,10,16,6,15.986,0.898,0.0584,0.4232,-0.105
0.053,0.152,0.262,19.3,37.7,107.9,0,2018,5,10,16,6,16.007,0.8968,0.0583,0.4203,-0.125
-0.028,0.053,0.188,19.7,8.6,111,0,2018,5,10,16,6,16.011,0.8953,0.0533,0.4179,-0.1441
-0.054,0.142,0.151,21.6,-13.8,117.4,0,2018,5,10,16,6,16.03,0.8938,0.0437,0.4158,-0.1617
0.005,0.119,0.095,27.5,-7.4,119.5,0,2018,5,10,16,6,16.067,0.8921,0.0325,0.4132,-0.1795
0.104,0.192,-0.006,40.9,12.4,117.2,0,2018,5,10,16,6,16.087,0.8906,0.0234,0.4084,-0.1982
-0.06,0.244,0.061,53.3,18.5,123.6,0,2018,5,10,16,6,16.091,0.8897,0.016,0.4007,-0.218
-0.11,0.379,0.045,59.3,-14.9,134.6,0,2018,5,10,16,6,16.112,0.8884,0.0055,0.3921,-0.2382
-0.09,0.187,-0.014,68.3,-38.8,142.1,0,2018,5,10,16,6,16.131,0.8868,-0.0114,0.3837,-0.2571
-0.163,0.003,0.02,79.5,-5.3,143.8,0,2018,5,10,16,6,16.147,0.8853,-0.028,0.3721,-0.2773
-0.324,0.157,0.06,85.1,22.2,142.2,0,2018,5,10,16,6,16.184,0.8835,-0.0392,0.3578,-0.2994
-0.421,0.176,-0.012,74.3,2,145.8,0,2018,5,10,16,6,16.204,0.881,-0.0498,0.3436,-0.3213
-0.369,-0.019,0.056,55.8,-16.4,144.1,0,2018,5,10,16,6,16.208,0.8764,-0.0637,0.3329,-0.3418
-0.333,-0.31,0.009,35.8,19.4,125.7,0,2018,5,10,16,6,16.248,0.8708,-0.0741,0.3245,-0.3616
-0.216,-0.225,-0.085,20.8,30.7,101.1,0,2018,5,10,16,6,16.267,0.8655,-0.0775,0.317,-0.3798
-0.121,-0.191,-0.061,-3.5,16.3,-14.9,0,2018,5,10,16,6,16.271,0.8532,-0.0843,0.3119,-0.4091
-0.093,-0.057,-0.028,-6.9,5.2,-25.9,0,2018,5,10,16,6,16.311,0.8547,-0.081,0.3121,-0.4065
-0.069,-0.016,-0.087,-9.2,-8.4,-34.3,0,2018,5,10,16,6,16.331,0.8563,-0.0799,0.314,-0.4021
-0.05,0,-0.066,-7.1,3.6,-36.7,0,2018,5,10,16,6,16.335,0.8582,-0.0784,0.3161,-0.3965
0.015,0.082,0.03,-2.9,30,-34.6,0,2018,5,10,16,6,16.354,0.8609,-0.073,0.3161,-0.3918
0.022,0.207,0.105,-2.8,33.9,-29.7,0,2018,5,10,16,6,16.374,0.8635,-0.0653,0.3144,-0.3887
0.016,0.278,0.087,-6,7.2,-24.1,0,2018,5,10,16,6,16.391,0.8654,-0.0602,0.3139,-0.3856
0.042,0.202,0.039,-6.3,-13.1,-16.5,0,2018,5,10,16,6,16.41,0.8664,-0.0594,0.3156,-0.3821
0.039,0.107,0.052,-1.8,1.6,-13,0,2018,5,10,16,6,16.43,0.8673,-0.0587,0.3169,-0.3791
0.026,0.164,0.074,0.7,17.1,-8.9,0,2018,5,10,16,6,16.469,0.8684,-0.0558,0.3162,-0.3776
0.032,0.215,0.057,0.6,15.9,-3.2,0,2018,5,10,16,6,16.489,0.8691,-0.0527,0.3151,-0.3774
0.03,0.155,0.051,1.2,16.9,3.5,0,2018,5,10,16,6,16.494,0.8694,-0.0503,0.314,-0.3781
0.024,0.113,0.047,1.5,29.3,6.1,0,2018,5,10,16,6,16.512,0.8696,-0.0464,0.312,-0.3796
0.015,0.146,0.056,1.1,36.7,6.6,0,2018,5,10,16,6,16.55,0.8698,-0.0408,0.3093,-0.382
0.021,0.156,0.068,-1.2,28.8,8.5,1023,2018,5,10,16,6,16.57,0.8696,-0.036,0.3071,-0.3847
0.006,0.133,0.06,-3.8,21.1,12.2,1023,2018,5,10,16,6,16.575,0.869,-0.0325,0.3059,-0.3873
0.023,0.082,0.025,-4.8,16.6,12.4,1023,2018,5,10,16,6,16.592,0.8684,-0.0292,0.305,-0.3897
0.057,0.045,0.002,-3.7,18.9,12.8,1023,2018,5,10,16,6,16.628,0.8676,-0.0261,0.3046,-0.3919
0.015,0.027,-0.021,-2,19.4,17.5,1023,2018,5,10,16,6,16.648,0.8667,-0.0231,0.3039,-0.3947
-0.029,-0.01,-0.018,1.2,14.6,21.8,1023,2018,5,10,16,6,16.653,0.8655,-0.0213,0.3028,-0.3982
-0.036,-0.021,-0.016,4.7,5.7,21.3,1023,2018,5,10,16,6,16.693,0.8643,-0.0214,0.3015,-0.4019
-0.034,-0.036,-0.004,7.9,2.3,18.2,1023,2018,5,10,16,6,16.697,0.8633,-0.0229,0.3002,-0.4049
-0.025,-0.046,0.029,7.6,6.9,15.9,0,2018,5,10,16,6,16.712,0.8625,-0.0241,0.2985,-0.4076
-0.026,-0.004,0.031,4,9.3,13.8,0,2018,5,10,16,6,16.751,0.862,-0.0242,0.2968,-0.4101
-0.043,0.013,0,0.9,7.5,10.6,0,2018,5,10,16,6,16.771,0.8615,-0.0237,0.2955,-0.4121
-0.048,-0.008,0.035,-1.9,6,5.4,0,2018,5,10,16,6,16.775,0.8611,-0.0231,0.2947,-0.4134
-0.026,-0.011,0.058,-5.6,8.2,0.1,0,2018,5,10,16,6,16.797,0.8609,-0.0221,0.2943,-0.4141
-0.019,0.047,0.022,-9.8,5,-2.6,0,2018,5,10,16,6,16.816,0.8609,-0.0201,0.2946,-0.414
-0.043,0.037,-0.02,-12.7,0.7,-2.7,0,2018,5,10,16,6,16.837,0.8608,-0.0185,0.2959,-0.4135
-0.053,0.03,-0.042,-13.3,-2.3,-2.7,0,2018,5,10,16,6,16.853,0.8606,-0.0172,0.2977,-0.4126
-0.025,0.021,-0.084,-11.7,-7.6,-3.6,0,2018,5,10,16,6,16.874,0.8604,-0.0167,0.3,-0.4115
0.002,-0.009,-0.101,-8.2,-7.1,-2.3,0,2018,5,10,16,6,16.893,0.86,-0.0171,0.3026,-0.4104
0.01,-0.015,-0.099,-3.9,2.5,0.7,0,2018,5,10,16,6,16.933,0.8596,-0.0171,0.3045,-0.4098
-0.006,0.003,-0.088,0.8,5.8,4,0,2018,5,10,16,6,16.952,0.8593,-0.0164,0.305,-0.4101
0.005,0.04,-0.087,5.2,-7,5.9,0,2018,5,10,16,6,16.957,0.859,-0.0167,0.305,-0.4106
0.015,-0.014,-0.093,9,-16.3,8,0,2018,5,10,16,6,16.977,0.8588,-0.0195,0.3055,-0.4106
0.01,-0.044,-0.058,13.2,-5.5,11.9,0,2018,5,10,16,6,16.996,0.8585,-0.0229,0.3053,-0.4113
0.003,-0.002,-0.042,16.1,2,14.4,0,2018,5,10,16,6,17.035,0.8583,-0.0248,0.3036,-0.4128
-0.011,0.001,-0.022,17.2,-6.1,16.2,0,2018,5,10,16,6,17.055,0.8581,-0.0271,0.3013,-0.4148
-0.01,-0.028,-0.031,18.7,-14.4,16.4,0,2018,5,10,16,6,17.06,0.8578,-0.0311,0.2995,-0.4164
-0.026,-0.065,-0.006,20.6,-11.9,15.5,0,2018,5,10,16,6,17.075,0.8575,-0.036,0.2975,-0.418
-0.026,-0.05,-0.014,19.8,-6.3,14.7,0,2018,5,10,16,6,17.097,0.8573,-0.0403,0.2951,-0.4197
-0.035,-0.057,-0.031,20,-5.7,14.4,0,2018,5,10,16,6,17.117,0.8572,-0.0439,0.2927,-0.4212
-0.066,-0.084,0.002,21.6,-4.6,12.7,0,2018,5,10,16,6,17.136,0.8572,-0.0477,0.2898,-0.4228
-0.054,-0.068,0.054,23,-5.7,9.6,0,2018,5,10,16,6,17.155,0.8575,-0.0515,0.2864,-0.4241
-0.057,-0.028,0.054,22.3,-13.5,6.7,0,2018,5,10,16,6,17.195,0.8581,-0.0556,0.283,-0.4247
-0.065,-0.041,0.05,20.8,-15.4,5.4,0,2018,5,10,16,6,17.214,0.8586,-0.0603,0.2803,-0.4249
-0.058,-0.045,0.093,19,-14.4,3.5,0,2018,5,10,16,6,17.219,0.8592,-0.0647,0.2777,-0.4247
-0.06,-0.031,0.132,16.8,-18.4,0,0,2018,5,10,16,6,17.256,0.8599,-0.069,0.2755,-0.424
-0.048,-0.025,0.125,13.8,-23.6,-2.8,0,2018,5,10,16,6,17.277,0.8606,-0.0736,0.2738,-0.4229
-0.029,-0.031,0.134,10.9,-23.9,-5.1,0,2018,5,10,16,6,17.281,0.8614,-0.0782,0.273,-0.4209
-0.014,-0.005,0.132,8,-20,-6.6,1023,2018,5,10,16,6,17.295,0.8621,-0.082,0.2726,-0.419
-0.02,0.018,0.126,5.3,-21.6,-7.5,1023,2018,5,10,16,6,17.317,0.863,-0.085,0.2724,-0.4168
-0.014,0,0.13,2.5,-25.4,-7.7,1023,2018,5,10,16,6,17.336,0.8636,-0.0884,0.2729,-0.4145
-0.002,-0.025,0.122,-0.4,-23.8,-10,1023,2018,5,10,16,6,17.356,0.864,-0.0919,0.2741,-0.412
-0.011,-0.014,0.111,-3.5,-17.6,-11.2,1023,2018,5,10,16,6,17.375,0.8646,-0.0942,0.2756,-0.4092
-0.009,0.006,0.069,-6.1,-22,-10.8,1023,2018,5,10,16,6,17.414,0.865,-0.0961,0.2774,-0.4067
-0.003,0,0.037,-5.6,-37,-11.7,1023,2018,5,10,16,6,17.435,0.8651,-0.0996,0.2803,-0.4037
-0.006,-0.073,0.038,-4.8,-30.1,-12.4,1023,2018,5,10,16,6,17.439,0.8649,-0.1045,0.2836,-0.4004
0,-0.04,0.04,-4.7,-16.1,-12.7,1023,2018,5,10,16,6,17.479,0.8652,-0.1073,0.286,-0.3975
-0.013,0.002,0.014,-5.1,-20,-11.3,0,2018,5,10,16,6,17.498,0.8654,-0.1091,0.2879,-0.3951
0.017,0.039,0.021,-2.4,-48.2,-12.1,0,2018,5,10,16,6,17.502,0.8654,-0.1131,0.2909,-0.3917
0.015,-0.047,-0.01,-1.8,-59.4,-13.7,0,2018,5,10,16,6,17.52,0.865,-0.121,0.2955,-0.3869
0.013,-0.053,-0.022,-0.6,-45.3,-15.6,0,2018,5,10,16,6,17.54,0.8646,-0.1286,0.2998,-0.3818
0.021,0,-0.032,-1.5,-33.5,-16.1,0,2018,5,10,16,6,17.559,0.8646,-0.1337,0.3032,-0.3774
0.033,0.032,-0.032,-1.4,-37.2,-16,0,2018,5,10,16,6,17.579,0.8648,-0.1377,0.3064,-0.3729
0.023,0.017,-0.029,-1,-40.3,-16.9,0,2018,5,10,16,6,17.6,0.8648,-0.1427,0.3099,-0.3681
0.003,0.002,-0.051,-1.6,-14.2,-18.7,0,2018,5,10,16,6,17.619,0.865,-0.1462,0.3127,-0.364
0.038,0.099,0.003,-2.4,6.7,-21.1,0,2018,5,10,16,6,17.641,0.8662,-0.1448,0.3138,-0.3607
0.065,0.159,0.036,-4.2,12,-20.2,0,2018,5,10,16,6,17.66,0.8676,-0.1418,0.3142,-0.3581
0.055,0.179,0.071,-6.2,19.4,-13.3,0,2018,5,10,16,6,17.68,0.8687,-0.1382,0.3145,-0.3566
0.062,0.211,0.093,-8.3,30.3,-4.4,0,2018,5,10,16,6,17.7,0.8694,-0.1335,0.3142,-0.357
0.077,0.263,0.133,-8.5,32.1,3.3,0,2018,5,10,16,6,17.738,0.8696,-0.128,0.3135,-0.359
0.074,0.279,0.158,-9.9,28.6,10.8,0,2018,5,10,16,6,17.757,0.8693,-0.1234,0.3128,-0.362
0.072,0.249,0.149,-14.6,35.9,20.2,0,2018,5,10,16,6,17.76,0.8684,-0.1185,0.3124,-0.3662
0.03,0.253,0.112,-18.2,35.1,28.6,0,2018,5,10,16,6,17.778,0.8667,-0.1131,0.3121,-0.3722
-0.001,0.188,0.07,-19.7,29.4,35.7,0,2018,5,10,16,6,17.801,0.8641,-0.1089,0.3122,-0.3793
0.003,0.126,0.031,-18.7,27.2,41.1,0,2018,5,10,16,6,17.837,0.8611,-0.1053,0.3125,-0.3868
0.001,0.078,0.015,-17.6,28.9,43.5,0,2018,5,10,16,6,17.857,0.8579,-0.1014,0.3121,-0.3951
0.017,0.07,0.017,-17.7,28.2,44.2,0,2018,5,10,16,6,17.86,0.8547,-0.0976,0.3117,-0.4033
-0.004,0.064,0.021,-19.6,13.5,41.6,0,2018,5,10,16,6,17.897,0.8513,-0.0949,0.3119,-0.4109
-0.021,0.084,0.038,-23,26.5,42.9,0,2018,5,10,16,6,17.917,0.8477,-0.0923,0.3126,-0.4184
0.02,0.072,0.037,-25.6,34.4,44,0,2018,5,10,16,6,17.921,0.8439,-0.0875,0.3128,-0.4268
0.01,0.063,0.032,-28.4,37.7,44.8,0,2018,5,10,16,6,17.943,0.84,-0.0818,0.3132,-0.4353
-0.024,0.06,-0.011,-28.7,42.2,49.6,1023,2018,5,10,16,6,17.963,0.8356,-0.0758,0.3134,-0.4446
-0.015,0.054,-0.026,-27.3,34.7,53.5,1023,2018,5,10,16,6,17.981,0.8307,-0.0704,0.3134,-0.4545
0.018,0.031,-0.058,-26.9,26.9,51.3,1023,2018,5,10,16,6,18.001,0.8255,-0.0665,0.3145,-0.4637
0.032,-0.036,-0.024,-26.6,40.3,47.6,1023,2018,5,10,16,6,18.039,0.8205,-0.0623,0.3156,-0.4724
-0.03,-0.073,-0.021,-27.9,71.7,50.2,1023,2018,5,10,16,6,18.043,0.8154,-0.0552,0.3147,-0.4826
-0.026,0.026,-0.011,-28.4,80.5,52.4,1023,2018,5,10,16,6,18.058,0.8103,-0.0446,0.3114,-0.4943
0.013,0.043,0.005,-28.4,58.9,48.8,1023,2018,5,10,16,6,18.082,0.805,-0.0347,0.3086,-0.5054
0.013,-0.046,-0.009,-28.8,59.7,45.8,1023,2018,5,10,16,6,18.102,0.7996,-0.0267,0.3077,-0.5149
-0.027,-0.018,0,-29.3,84.1,44.6,1023,2018,5,10,16,6,18.142,0.7943,-0.0169,0.3052,-0.5249
-0.067,0.123,-0.043,-30.5,81.1,42.8,1023,2018,5,10,16,6,18.161,0.789,-0.0044,0.3009,-0.5354
-0.049,0.112,-0.069,-29.4,58.8,40.8,0,2018,5,10,16,6,18.165,0.784,0.0065,0.2979,-0.5445
-0.052,0.002,-0.029,-24.8,61.3,43.6,0,2018,5,10,16,6,18.184,0.7785,0.0148,0.2961,-0.553
-0.065,0.084,0.008,-19.8,68.2,48.4,0,2018,5,10,16,6,18.224,0.7728,0.0235,0.292,-0.5629
-0.036,0.168,0.007,-17.7,44.6,51.7,0,2018,5,10,16,6,18.244,0.7667,0.0307,0.2888,-0.5725
-0.019,0.078,-0.002,-15.2,26.6,55.5,0,2018,5,10,16,6,18.249,0.7604,0.0344,0.2877,-0.581
-0.024,0.038,0.08,-13.6,40.8,59.7,0,2018,5,10,16,6,18.264,0.754,0.0374,0.2862,-0.5899
-0.019,0.067,0.074,-17.1,51.4,60.4,0,2018,5,10,16,6,18.284,0.747,0.0426,0.2827,-0.6
-0.051,0.034,0.03,-21.8,42.6,57.4,0,2018,5,10,16,6,18.304,0.7399,0.0481,0.28,-0.6097
-0.074,0.059,0.037,-23.3,35.4,57.6,0,2018,5,10,16,6,18.323,0.7327,0.0526,0.2786,-0.6186
-0.06,0.053,-0.005,-23.1,34.8,58.9,0,2018,5,10,16,6,18.36,0.7252,0.0568,0.2774,-0.6275
-0.068,0.045,-0.077,-19.1,25.8,57.7,0,2018,5,10,16,6,18.381,0.7177,0.0602,0.2768,-0.636
-0.065,0.048,-0.124,-12.5,16.6,54.6,0,2018,5,10,16,6,18.385,0.7106,0.0618,0.277,-0.6437
-0.073,0.062,-0.079,-4.9,4.6,55.5,0,2018,5,10,16,6,18.404,0.704,0.0615,0.2772,-0.6509
-0.061,0.016,-0.034,-2,-3.5,57.9,0,2018,5,10,16,6,18.444,0.6976,0.059,0.2777,-0.6577
-0.031,0.056,-0.042,-1.7,-6.2,56.7,0,2018,5,10,16,6,18.465,0.691,0.0556,0.2787,-0.6645
0.004,0.069,-0.083,0.8,-4.2,55.2,0,2018,5,10,16,6,18.469,0.6848,0.0527,0.2801,-0.6705
-0.042,0.061,0.02,3.3,5.7,56.9,0,2018,5,10,16,6,18.483,0.6786,0.0501,0.2799,-0.6771
-0.043,-0.007,0.047,1.8,12.5,61,0,2018,5,10,16,6,18.52,0.6717,0.0478,0.2784,-0.6848
-0.038,-0.026,-0.017,0.5,6.1,59.1,0,2018,5,10,16,6,18.542,0.6644,0.0455,0.2773,-0.6924
-0.033,0.031,-0.025,4.7,-9.7,51.6,0,2018,5,10,16,6,18.547,0.658,0.042,0.2776,-0.6986
-0.027,-0.049,0.006,3.9,-28.9,46,0,2018,5,10,16,6,18.564,0.6526,0.0367,0.2801,-0.703
-0.043,-0.146,0.013,-0.6,-31.7,38.9,0,2018,5,10,16,6,18.585,0.6478,0.0303,0.2845,-0.706
-0.052,-0.097,-0.031,-5.1,-20.7,27.3,0,2018,5,10,16,6,18.608,0.6436,0.0259,0.2884,-0.7083
-0.046,-0.066,-0.029,-8.8,-17.4,14.6,0,2018,5,10,16,6,18.625,0.6408,0.0229,0.2919,-0.7096
-0.07,-0.115,0.011,-13.7,-27.5,0,0,2018,5,10,16,6,18.647,0.6394,0.0213,0.2961,-0.7092
-0.08,-0.071,0.021,-18.1,-67.4,-21.1,0,2018,5,10,16,6,18.668,0.6399,0.0185,0.3034,-0.7056
-0.086,-0.105,0.06,-21.4,-138.9,-50.1,1023,2018,5,10,16,6,18.703,0.6435,0.0104,0.318,-0.6961
-0.154,-0.147,0.055,-30.4,-194.7,-75.9,1023,2018,5,10,16,6,18.706,0.6499,-0.0019,0.3417,-0.6787
-0.253,-0.239,0.035,-34,-198.6,-101,1023,2018,5,10,16,6,18.743,0.6581,-0.0156,0.3691,-0.6559
-0.216,-0.19,0.063,-30.4,-166.4,-128,1023,2018,5,10,16,6,18.761,0.6682,-0.0253,0.3939,-0.6305
-0.144,-0.19,0.062,-29,-129.1,-145,1023,2018,5,10,16,6,18.764,0.6804,-0.0296,0.4141,-0.6038
-0.138,-0.145,-0.062,-18.3,-88.7,-156.1,1023,2018,5,10,16,6,18.803,0.6937,-0.0288,0.4291,-0.5776
-0.26,-0.176,-0.172,-0.2,-53.3,-163.6,1023,2018,5,10,16,6,18.824,0.7087,-0.0244,0.438,-0.5524
-0.183,-0.147,-0.036,5.9,-28,-170.2,1023,2018,5,10,16,6,18.829,0.7248,-0.0167,0.4418,-0.5282
-0.153,-0.176,-0.036,8.1,-18.6,-174.5,0,2018,5,10,16,6,18.849,0.741,-0.0067,0.4434,-0.5041
-0.227,-0.159,-0.055,11.7,-34.1,-179.8,0,2018,5,10,16,6,18.869,0.7571,0.003,0.4443,-0.4787
-0.191,-0.114,0.019,12.8,-65.5,-180.9,0,2018,5,10,16,6,18.888,0.7729,0.0094,0.4466,-0.4504
-0.075,-0.128,-0.009,18.3,-106.3,-182.5,0,2018,5,10,16,6,18.907,0.7881,0.0106,0.4508,-0.4187
-0.127,-0.124,-0.113,27.6,-139.8,-188.4,0,2018,5,10,16,6,18.948,0.8033,0.0064,0.4562,-0.3827
-0.213,-0.188,-0.092,37.1,-143.8,-193.2,0,2018,5,10,16,6,18.952,0.8182,-0.0007,0.4606,-0.3439
-0.285,-0.266,0.029,39.4,-126,-200.2,0,2018,5,10,16,6,18.969,0.8325,-0.0064,0.4628,-0.3043
-0.227,-0.198,0.066,39,-101,-203.5,0,2018,5,10,16,6,18.988,0.8456,-0.0084,0.4631,-0.2652
-0.179,-0.132,-0.007,39.7,-85.3,-205.8,0,2018,5,10,16,6,19.008,0.8575,-0.0072,0.4615,-0.227
-0.169,-0.058,-0.095,39.7,-63.3,-207.1,0,2018,5,10,16,6,19.047,0.8682,-0.0038,0.4584,-0.1898
-0.198,-0.125,-0.053,35,-33,-207.8,0,2018,5,10,16,6,19.068,0.8774,0.0043,0.4542,-0.1541
-0.181,-0.096,0.057,31,1.3,-206,0,2018,5,10,16,6,19.072,0.885,0.0177,0.4491,-0.1208
-0.018,0.232,0.226,24.9,-4.4,-201.9,0,2018,5,10,16,6,19.091,0.891,0.0337,0.4438,-0.0893
0.128,0.511,0.25,16.1,-53.4,-193,0,2018,5,10,16,6,19.112,0.8953,0.0445,0.4396,-0.0563
0.107,0.485,0.093,9.2,-102.2,-183.4,0,2018,5,10,16,6,19.13,0.8981,0.046,0.4367,-0.0203
0.162,0.271,0.11,8.9,-96.1,-172.2,0,2018,5,10,16,6,19.15,0.8997,0.0432,0.4339,0.0155
0.167,0.264,0.217,5.6,-67.5,-161.9,0,2018,5,10,16,6,19.167,0.8999,0.0432,0.4311,0.048
0.17,0.311,0.243,2.6,-54.7,-149.3,0,2018,5,10,16,6,19.206,0.899,0.0456,0.4286,0.0768
0.177,0.294,0.136,5.1,-59,-138.9,0,2018,5,10,16,6,19.224,0.8974,0.0476,0.426,0.1035
0.204,0.248,0.04,11.5,-61.1,-130.8,0,2018,5,10,16,6,19.229,0.8958,0.0483,0.4223,0.1294
0.173,0.226,0.06,16.5,-56.9,-123.2,0,2018,5,10,16,6,19.249,0.8942,0.0489,0.4175,0.1536
0.104,0.272,0.105,19.8,-68.9,-115.5,0,2018,5,10,16,6,19.27,0.8926,0.0485,0.4118,0.1768
0.066,0.183,0.073,22.8,-79.7,-106.4,0,2018,5,10,16,6,19.29,0.891,0.0454,0.405,0.1995
0.065,0.131,-0.015,25.7,-72.5,-95.2,0,2018,5,10,16,6,19.31,0.8893,0.0421,0.398,0.2208
0.028,0.132,-0.019,27.8,-57.1,-84.2,0,2018,5,10,16,6,19.329,0.888,0.0394,0.3905,0.2391
-0.042,0.134,0.022,27.5,-49.4,-74.6,0,2018,5,10,16,6,19.369,0.8867,0.0385,0.3837,0.2549
-0.081,0.099,0.037,25.9,-53.8,-67.1,1023,2018,5,10,16,6,19.373,0.8855,0.0365,0.3767,0.2691
-0.043,0.047,0.01,27.9,-57.7,-60.5,1023,2018,5,10,16,6,19.388,0.8846,0.0336,0.3692,0.2827
-0.084,-0.032,-0.001,30,-48.3,-53.8,1023,2018,5,10,16,6,19.426,0.8839,0.0304,0.3614,0.2949
-0.16,-0.031,-0.041,30,-38.8,-48.2,1023,2018,5,10,16,6,19.448,0.8837,0.0284,0.3534,0.3053
-0.197,-0.015,-0.046,30,-32.1,-42.8,1023,2018,5,10,16,6,19.452,0.8835,0.0276,0.3456,0.3147
-0.25,-0.016,-0.087,29.6,-24.1,-38.4,1023,2018,5,10,16,6,19.472,0.8832,0.0275,0.3391,0.3226
-0.231,-0.018,-0.146,30.9,-17.5,-34.2,1023,2018,5,10,16,6,19.491,0.883,0.0281,0.3331,0.3293
-0.239,-0.072,-0.177,32.5,0,-29.6,1023,2018,5,10,16,6,19.512,0.8832,0.0306,0.3266,0.335
-0.186,-0.064,-0.245,37.1,26.9,-23.8,1023,2018,5,10,16,6,19.532,0.8837,0.0364,0.3214,0.3382
-0.188,0,-0.248,43,42.1,-19.9,0,2018,5,10,16,6,19.551,0.8842,0.0461,0.3174,0.3393
-0.181,0.034,-0.183,49.9,31.7,-18,0,2018,5,10,16,6,19.573,0.8852,0.056,0.3122,0.34
-0.184,-0.008,-0.103,52.6,10.7,-17.5,0,2018,5,10,16,6,19.592,0.8866,0.0633,0.3051,0.3415
-0.078,-0.012,-0.117,55.4,-2.7,-15.7,0,2018,5,10,16,6,19.616,0.8884,0.0683,0.2962,0.3438
-0.008,-0.036,-0.157,60.3,-2.9,-12.8,0,2018,5,10,16,6,19.633,0.8903,0.072,0.2874,0.3456
-0.04,-0.079,-0.138,64.1,9,-12.1,0,2018,5,10,16,6,19.65,0.8925,0.0763,0.2783,0.3465
-0.12,0.015,0.044,59.5,4.5,-13.9,0,2018,5,10,16,6,19.686,0.8945,0.0823,0.2684,0.3476
-0.102,0.144,0.212,45.4,-25.6,-12.9,0,2018,5,10,16,6,19.706,0.8962,0.0847,0.259,0.3498
-0.056,0.21,0.298,26.4,-66.9,-10.4,0,2018,5,10,16,6,19.712,0.8977,0.08,0.2502,0.3535
-0.052,0.018,0.163,10.1,-68.8,-4.5,0,2018,5,10,16,6,19.75,0.8989,0.0704,0.2424,0.3578
-0.013,-0.033,0.063,-2.6,-26,5,0,2018,5,10,16,6,19.771,0.8998,0.0625,0.2379,0.3602
0.017,0.142,0.1,-10.3,14.6,21,0,2018,5,10,16,6,19.775,0.9002,0.0617,0.2391,0.3585
0.042,0.255,0.164,-13.9,5.7,42.4,0,2018,5,10,16,6,19.793,0.9013,0.0624,0.2424,0.3533
0,0.245,0.159,-12.4,-45.6,67.7,0,2018,5,10,16,6,19.816,0.9042,0.0563,0.2437,0.3461
0.006,0.103,0.175,-10.1,-72.5,96,0,2018,5,10,16,6,19.853,0.9091,0.0426,0.2423,0.3359
-0.074,0.007,0.182,-10.1,-68.2,120.5,0,2018,5,10,16,6,19.857,0.9155,0.0262,0.2395,0.3221
-0.085,-0.182,0.131,-11,-50.8,135.8,0,2018,5,10,16,6,19.873,0.9223,0.0108,0.2378,0.3042
-0.07,-0.234,0.018,-16.9,-19.6,143.3,0,2018,5,10,16,6,19.909,0.9288,-0.001,0.2383,0.2834
-0.064,-0.112,-0.086,-26.5,-1.3,149.6,0,2018,5,10,16,6,19.929,0.9349,-0.0093,0.2413,0.2599
-0.078,0.165,-0.145,-38.7,-28.3,155.6,0,2018,5,10,16,6,19.933,0.94,-0.019,0.2458,0.2354
-0.078,0.259,-0.25,-49.6,-83.6,163.5,0,2018,5,10,16,6,19.971,0.944,-0.0372,0.2501,0.2116
-0.184,0.009,-0.189,-63.2,-99.5,170.7,0,2018,5,10,16,6,19.991,0.9466,-0.0622,0.2543,0.1878
-0.168,0.002,-0.212,-77.4,-78.2,172.7,0,2018,5,10,16,6,19.995,0.9477,-0.087,0.2605,0.1622
-0.078,0.087,-0.366,-85,-72.5,172.9,0,2018,5,10,16,6,20.015,0.947,-0.11,0.2697,0.1351
-0.013,0.313,-0.442,-86.8,-97.5,174.3,0,2018,5,10,16,6,20.056,0.9448,-0.134,0.2786,0.1083
-0.03,0.246,-0.376,-83.3,-139.6,179.2,0,2018,5,10,16,6,20.075,0.9403,-0.1641,0.2861,0.0827
-0.034,-0.174,-0.209,-81.4,-130.5,172.5,1023,2018,5,10,16,6,20.08,0.9339,-0.1973,0.2922,0.0581
0.144,0.033,-0.324,-78.8,-88.1,156.1,1023,2018,5,10,16,6,20.093,0.9271,-0.2236,0.2985,0.0338
0.271,0.654,-0.562,-61,-144.1,162.2,1023,2018,5,10,16,6,20.13,0.9196,-0.2493,0.3033,0.0111
0.182,0.353,-0.462,-24.4,-258.9,176.7,1023,2018,5,10,16,6,20.151,0.9074,-0.2919,0.302,-0.0072
0.148,-0.16,-0.299,5.3,-267.3,172.1,1023,2018,5,10,16,6,20.155,0.8914,-0.3437,0.2943,-0.021
0.22,0.196,-0.713,30.6,-267.7,169.7,1023,2018,5,10,16,6,20.177,0.8747,-0.3927,0.282,-0.0329
0.083,-0.119,-0.69,66.2,-288.5,182.4,1023,2018,5,10,16,6,20.197,0.8554,-0.4437,0.2635,-0.0426
-0.143,-0.797,-0.169,96.1,-258.9,183,1023,2018,5,10,16,6,20.216,0.8346,-0.4938,0.2385,-0.0507
-0.174,-1.171,0.146,106,-128.2,162.4,1023,2018,5,10,16,6,20.235,0.8195,-0.5298,0.2101,-0.0588
-0.105,-0.601,0.107,115.8,-40.5,136.1,0,2018,5,10,16,6,20.276,0.8147,-0.5466,0.1813,-0.067
-0.187,-0.013,0.332,122.6,-82.4,126.4,0,2018,5,10,16,6,20.296,0.8116,-0.5593,0.1521,-0.0723
-0.248,-0.026,0.463,104.3,-164.3,126.1,0,2018,5,10,16,6,20.3,0.7998,-0.5821,0.1252,-0.0754
-0.265,-0.2,0.16,74,-172.7,136.3,0,2018,5,10,16,6,20.319,0.7816,-0.6099,0.1018,-0.0809
-0.184,0.042,-0.033,60.4,-155.3,150.7,0,2018,5,10,16,6,20.339,0.7629,-0.6351,0.0798,-0.0906
-0.223,-0.18,0.115,50.4,-111.1,159.6,0,2018,5,10,16,6,20.355,0.7455,-0.6559,0.0572,-0.103
-0.229,-0.03,0.32,35.5,-67.5,162.5,0,2018,5,10,16,6,20.374,0.7329,-0.669,0.0345,-0.1184
-0.161,0.336,0.233,22.3,-74,162.5,0,2018,5,10,16,6,20.397,0.7215,-0.6788,0.0133,-0.1353
-0.148,0.473,0.197,5.3,-96.1,172.6,0,2018,5,10,16,6,20.416,0.707,-0.69,-0.0061,-0.1544
-0.101,0.423,0.106,-12,-102.8,188.5,0,2018,5,10,16,6,20.455,0.6895,-0.7017,-0.0246,-0.1773
-0.056,0.248,-0.173,-17.7,-88.8,193.5,0,2018,5,10,16,6,20.476,0.6711,-0.7117,-0.0432,-0.2027
-0.008,0.226,-0.07,-15.6,-43.5,198.9,0,2018,5,10,16,6,20.48,0.6557,-0.7168,-0.0632,-0.2281
0,0.2,-0.008,-17.4,3.9,206,0,2018,5,10,16,6,20.499,0.6444,-0.7159,-0.0867,-0.254
0.074,0.09,-0.262,-13.2,29.6,201.9,0,2018,5,10,16,6,20.538,0.6374,-0.7093,-0.1119,-0.2791
0.063,-0.014,-0.504,1.6,69.8,194.6,0,2018,5,10,16,6,20.558,0.6337,-0.699,-0.1378,-0.3009
0.061,0.102,-0.341,23.9,82,187.5,0,2018,5,10,16,6,20.562,0.6329,-0.6857,-0.167,-0.3181
-0.063,0.205,0.004,35.3,33.3,176.4,0,2018,5,10,16,6,20.576,0.629,-0.6747,-0.1958,-0.3327
-0.227,-0.629,-0.233,37.9,-56,139,0,2018,5,10,16,6,20.613,0.6158,-0.6732,-0.2178,-0.3465
-0.125,-1.369,-0.452,44,-8.4,83.2,0,2018,5,10,16,6,20.634,0.6025,-0.6758,-0.2325,-0.355
0.005,-1.106,-0.356,54.2,95.3,33.9,0,2018,5,10,16,6,20.638,0.6026,-0.6715,-0.2473,-0.3531
-0.003,-0.584,-0.136,61.6,124.2,-6,0,2018,5,10,16,6,20.659,0.6129,-0.662,-0.2622,-0.3422
0.007,-0.189,0.297,45.6,106.9,-31.4,0,2018,5,10,16,6,20.68,0.6248,-0.6538,-0.2724,-0.3283
-0.018,0.372,0.626,21.4,45.6,-28.2,0,2018,5,10,16,6,20.698,0.6341,-0.6484,-0.2769,-0.3172
-0.005,-0.028,0.47,0.4,6.1,-24.5,0,2018,5,10,16,6,20.719,0.6369,-0.6483,-0.276,-0.3125
-0.06,-0.017,0.176,-10.5,31.3,-24,0,2018,5,10,16,6,20.74,0.6408,-0.6469,-0.2737,-0.3096
-0.008,-0.016,-0.047,-4.3,37.1,-26.3,1023,2018,5,10,16,6,20.76,0.6464,-0.6437,-0.2719,-0.3062
-0.114,-0.074,-0.034,6.8,42.7,-25.4,1023,2018,5,10,16,6,20.778,0.6515,-0.6412,-0.2714,-0.3009
-0.093,0.095,0.014,12,62.7,-11.2,1023,2018,5,10,16,6,20.797,0.6576,-0.6365,-0.2739,-0.2954
-0.113,0.231,0.021,15.1,59.1,0.2,1023,2018,5,10,16,6,20.82,0.6639,-0.6298,-0.2789,-0.2908
-0.055,0.494,-0.083,23.9,2.7,13.6,1023,2018,5,10,16,6,20.837,0.6662,-0.6266,-0.2837,-0.2879
0.007,0.306,-0.203,34.2,-14.6,27.7,1023,2018,5,10,16,6,20.876,0.6621,-0.6287,-0.2886,-0.2879
0.041,0.254,-0.255,38,33.6,39.6,1023,2018,5,10,16,6,20.896,0.6593,-0.6279,-0.297,-0.2874
0.023,0.304,-0.132,38.4,71.3,55.7,1023,2018,5,10,16,6,20.9,0.6612,-0.6206,-0.3097,-0.2858
0.075,0.453,0,35.1,51.7,68.9,1023,2018,5,10,16,6,20.921,0.6629,-0.6116,-0.3238,-0.2854
0.175,0.465,-0.125,39.8,18.1,84.7,0,2018,5,10,16,6,20.941,0.6602,-0.6054,-0.3381,-0.2884
0.138,0.278,-0.174,31.4,72.7,117.1,0,2018,5,10,16,6,20.98,0.6568,-0.5969,-0.3548,-0.2937
0.019,0.588,-0.004,34.7,108.8,136.8,0,2018,5,10,16,6,21,0.6585,-0.5788,-0.3766,-0.2989
-0.006,0.591,0.059,34.7,43.3,146.3,0,2018,5,10,16,6,21.004,0.6567,-0.5612,-0.3993,-0.3068
-0.189,0.065,0.121,28.1,-87.6,130.1,0,2018,5,10,16,6,21.023,0.6444,-0.5561,-0.4151,-0.3209
-0.342,-0.161,0.071,12.3,-118.4,137.6,0,2018,5,10,16,6,21.044,0.6243,-0.5594,-0.4241,-0.3425
-0.559,-0.977,-0.154,-7.3,-75,111.7,0,2018,5,10,16,6,21.06,0.6064,-0.5611,-0.4303,-0.3635
-0.595,-1.079,-0.185,-23.8,-47.7,55.8,0,2018,5,10,16,6,21.08,0.5969,-0.5595,-0.4333,-0.3778
-0.274,-0.874,-0.148,-29.1,-73.3,6.2,0,2018,5,10,16,6,21.1,0.5913,-0.5616,-0.4293,-0.3879
-0.005,-0.53,-0.17,-26.9,-108.7,-23,0,2018,5,10,16,6,21.121,0.5851,-0.5699,-0.419,-0.3964
0.185,-0.311,-0.177,-21.5,-125.8,-34,0,2018,5,10,16,6,21.141,0.577,-0.5823,-0.4053,-0.4043
0.2,-0.134,-0.226,-9.3,-106.4,-36.9,0,2018,5,10,16,6,21.162,0.5684,-0.5956,-0.3916,-0.4106
0.315,-0.047,0.046,-5.1,-87.7,-40.6,0,2018,5,10,16,6,21.182,0.5616,-0.6073,-0.3798,-0.4139
0.236,0.021,0.358,-12.7,-39.3,-31.4,0,2018,5,10,16,6,21.221,0.5577,-0.6156,-0.3704,-0.4155
0.281,0.13,0.339,-29.3,37.8,-20.8,0,2018,5,10,16,6,21.24,0.561,-0.6157,-0.3656,-0.4152
0.295,0.236,0.096,-45.8,79.1,-12,0,2018,5,10,16,6,21.244,0.5719,-0.6071,-0.365,-0.4135
0.077,0.422,0.094,-39.9,8.6,-7.8,0,2018,5,10,16,6,21.262,0.5805,-0.5997,-0.363,-0.414
-0.084,0.177,0.132,-27.3,-87.4,-5.5,0,2018,5,10,16,6,21.299,0.5785,-0.6019,-0.3559,-0.4197
-0.19,0.055,0.117,-17.4,-154.9,-8.9,0,2018,5,10,16,6,21.321,0.5671,-0.6134,-0.3435,-0.4289
-0.209,-0.12,0.094,-13.9,-169.2,-8.8,0,2018,5,10,16,6,21.325,0.5506,-0.6288,-0.3283,-0.4399
-0.298,-0.213,0.059,-11.8,-135.7,-8,0,2018,5,10,16,6,21.344,0.5354,-0.6427,-0.3137,-0.4491
-0.283,-0.133,0.027,-8.4,-99.2,-8,0,2018,5,10,16,6,21.362,0.5234,-0.6531,-0.3024,-0.456
-0.293,-0.236,-0.012,-6.9,-14.9,-6.6,0,2018,5,10,16,6,21.382,0.5178,-0.6584,-0.2959,-0.4589
-0.187,-0.148,-0.026,-7.5,68.9,-8.7,0,2018,5,10,16,6,21.424,0.5226,-0.6556,-0.2966,-0.4571
-0.11,-0.011,-0.012,-7.3,103.6,-8,1023,2018,5,10,16,6,21.428,0.5339,-0.6472,-0.3023,-0.4522
0.009,0.061,-0.004,-10.6,94.9,-3.8,1023,2018,5,10,16,6,21.447,0.5459,-0.6372,-0.3092,-0.4474
0.059,0.073,-0.005,-16.7,67.4,1,1023,2018,5,10,16,6,21.466,0.5553,-0.6284,-0.3145,-0.4446
0.137,0.095,0.008,-27.5,40.8,3.9,1023,2018,5,10,16,6,21.487,0.5619,-0.6212,-0.3171,-0.4445
0.208,0.111,-0.015,-36.8,11.9,5.1,1023,2018,5,10,16,6,21.499,0.5659,-0.6159,-0.3166,-0.4472
0.259,0.073,-0.074,-41,-17.1,3.6,1023,2018,5,10,16,6,21.539,0.567,-0.6133,-0.313,-0.4518
0.196,-0.039,-0.115,-38.7,-23.9,-0.8,1023,2018,5,10,16,6,21.559,0.5665,-0.6124,-0.3074,-0.4575
0.159,-0.045,-0.07,-37,-13.6,-8.1,1023,2018,5,10,16,6,21.563,0.567,-0.6114,-0.3017,-0.4621
0.146,-0.02,-0.041,-29.9,-13.4,-15.3,1023,2018,5,10,16,6,21.604,0.5684,-0.611,-0.2958,-0.4647
0.128,0,-0.067,-20.4,-11.9,-17.2,0,2018,5,10,16,6,21.624,0.5696,-0.6117,-0.2902,-0.4658
0.086,-0.019,-0.068,-11.7,0,-16.7,0,2018,5,10,16,6,21.629,0.5709,-0.6127,-0.2862,-0.4655
-0.037,-0.003,-0.07,-4.8,9,-14.9,0,2018,5,10,16,6,21.645,0.5728,-0.6129,-0.2842,-0.4639
-0.124,0.042,-0.039,-1.9,7.5,-12.7,0,2018,5,10,16,6,21.681,0.5743,-0.6128,-0.2838,-0.4625
-0.184,0.018,0.059,-4.6,16.5,-8.5,0,2018,5,10,16,6,21.699,0.5762,-0.6117,-0.2839,-0.4616
-0.167,0.053,0.09,-14.2,26.6,-3.4,0,2018,5,10,16,6,21.706,0.5793,-0.6085,-0.2845,-0.4614
-0.068,0.043,0.047,-22.9,33.3,-0.7,0,2018,5,10,16,6,21.727,0.5835,-0.6035,-0.2853,-0.4624
-0.001,0.018,0.054,-29.8,40.3,3.6,0,2018,5,10,16,6,21.747,0.5884,-0.5973,-0.2859,-0.4638
0.094,0.026,0.041,-37.4,53.2,12.1,0,2018,5,10,16,6,21.763,0.5945,-0.589,-0.2868,-0.466
0.212,0.065,0.006,-45.4,63.8,24.1,0,2018,5,10,16,6,21.803,0.6015,-0.5782,-0.2889,-0.4693
0.231,0.115,0.045,-47,61.9,34.2,0,2018,5,10,16,6,21.822,0.6084,-0.5657,-0.2918,-0.4739
0.26,0.227,0.162,-49.3,17.8,47.4,0,2018,5,10,16,6,21.826,0.6116,-0.5551,-0.2942,-0.4808
0.262,0.097,0.172,-54.3,-20.2,59.4,0,2018,5,10,16,6,21.861,0.6089,-0.5487,-0.2933,-0.4919
0.223,0.027,0.209,-64.3,-22.8,62.8,0,2018,5,10,16,6,21.881,0.6045,-0.5426,-0.291,-0.5052
-0.009,-0.145,0.156,-70.9,-40,55.3,0,2018,5,10,16,6,21.885,0.5999,-0.5365,-0.2869,-0.5194
-0.09,-0.195,0.158,-71,-88.5,36.7,0,2018,5,10,16,6,21.927,0.593,-0.5344,-0.278,-0.5341
-0.184,-0.269,0.181,-80.4,-140.2,10.8,0,2018,5,10,16,6,21.946,0.583,-0.5386,-0.2615,-0.549
-0.242,-0.336,0.229,-97.1,-173.1,-16.9,0,2018,5,10,16,6,21.95,0.5719,-0.5463,-0.2369,-0.5641
-0.229,-0.358,0.102,-106.2,-185.4,-42.3,0,2018,5,10,16,6,21.966,0.5612,-0.5554,-0.2058,-0.578
-0.176,-0.33,0.063,-110.4,-186.4,-65.9,0,2018,5,10,16,6,21.986,0.552,-0.5643,-0.1708,-0.5895
-0.214,-0.326,0.128,-108.1,-173.6,-84.1,0,2018,5,10,16,6,22.006,0.5448,-0.5724,-0.1338,-0.5979
-0.243,-0.254,0.109,-103.3,-152.5,-97.4,0,2018,5,10,16,6,22.044,0.5404,-0.5786,-0.097,-0.603
-0.222,-0.218,-0.006,-88,-149.7,-117.9,0,2018,5,10,16,6,22.064,0.5378,-0.5846,-0.0607,-0.6043
-0.126,-0.137,0.006,-66.6,-139.2,-129.9,0,2018,5,10,16,6,22.068,0.5362,-0.5916,-0.0255,-0.6014
-0.016,-0.273,-0.025,-49.8,-89.8,-140.8,1023,2018,5,10,16,6,22.087,0.5383,-0.5971,0.0063,-0.5946
-0.003,-0.288,-0.03,-37.7,-26,-147.6,1023,2018,5,10,16,6,22.109,0.5471,-0.5974,0.0311,-0.5854
-0.042,-0.308,-0.108,-21.5,10,-155.9,1023,2018,5,10,16,6,22.129,0.5616,-0.5938,0.0501,-0.5739
-0.018,-0.18,-0.176,-3.5,25.7,-163.7,1023,2018,5,10,16,6,22.149,0.5791,-0.5892,0.0659,-0.5594
-0.009,-0.197,-0.177,10,30.8,-172.9,1023,2018,5,10,16,6,22.17,0.5979,-0.5847,0.0799,-0.5423
-0.092,-0.327,-0.201,18.9,34.6,-185.7,1023,2018,5,10,16,6,22.208,0.618,-0.5799,0.0933,-0.5224
-0.218,-0.391,-0.249,31.7,8.3,-199.1,1023,2018,5,10,16,6,22.229,0.6379,-0.5762,0.1077,-0.4993
-0.23,-0.278,-0.213,48.6,-16.3,-205.3,1023,2018,5,10,16,6,22.233,0.6548,-0.5767,0.1243,-0.4722
-0.213,-0.311,-0.191,56.1,23.4,-202.4,1023,2018,5,10,16,6,22.247,0.6723,-0.5764,0.1387,-0.4432
-0.237,-0.252,-0.263,53.6,85.6,-206.3,0,2018,5,10,16,6,22.283,0.6947,-0.5685,0.1483,-0.4148
-0.27,-0.12,-0.336,53.8,95.1,-213.8,0,2018,5,10,16,6,22.305,0.7202,-0.5547,0.1557,-0.3862
-0.267,-0.044,-0.275,59.6,58.5,-216.3,0,2018,5,10,16,6,22.309,0.7432,-0.5424,0.164,-0.3555
-0.232,-0.04,-0.04,60.7,51.1,-209.6,0,2018,5,10,16,6,22.347,0.7624,-0.5331,0.1731,-0.3232
-0.212,-0.095,0.032,50.8,79,-206.7,0,2018,5,10,16,6,22.367,0.7812,-0.521,0.1811,-0.2921
-0.256,-0.182,-0.103,37.7,93.4,-210.8,0,2018,5,10,16,6,22.371,0.8006,-0.5041,0.1895,-0.2623
-0.324,-0.12,-0.243,31.3,88.6,-216.7,0,2018,5,10,16,6,22.394,0.8189,-0.4854,0.1995,-0.2321
-0.29,-0.187,-0.087,20.9,116.7,-215.1,0,2018,5,10,16,6,22.414,0.8363,-0.4642,0.2097,-0.2025
-0.355,-0.22,0.151,4.7,154.9,-227.9,0,2018,5,10,16,6,22.432,0.8549,-0.4358,0.2208,-0.1739
-0.404,-0.047,0.157,-15.4,167.2,-226.7,0,2018,5,10,16,6,22.45,0.8729,-0.4021,0.2339,-0.1464
-0.427,-0.034,0.105,-38.4,159.9,-222.3,0,2018,5,10,16,6,22.469,0.888,-0.3667,0.2494,-0.1209
-0.335,-0.027,0.092,-56.8,168.7,-211.8,0,2018,5,10,16,6,22.489,0.8998,-0.3307,0.2672,-0.0972
-0.334,-0.045,0.086,-71.2,181.8,-206.2,0,2018,5,10,16,6,22.509,0.9094,-0.2919,0.286,-0.0763
-0.35,0.063,0.037,-84.3,185.8,-196,0,2018,5,10,16,6,22.529,0.9164,-0.2512,0.3059,-0.0575
-0.358,0.111,0.092,-99.5,153,-187.4,0,2018,5,10,16,6,22.55,0.9198,-0.2124,0.3271,-0.0404
-0.375,-0.045,0.175,-109.9,108.9,-183.8,0,2018,5,10,16,6,22.568,0.919,-0.1804,0.3497,-0.022
-0.211,0.027,0.123,-109.3,87.2,-175.7,0,2018,5,10,16,6,22.611,0.9152,-0.1534,0.3725,-0.0032
-0.189,-0.079,-0.047,-112.9,72,-174.4,0,2018,5,10,16,6,22.631,0.9094,-0.1295,0.3947,0.0162
-0.267,-0.111,0.002,-114.6,67.2,-176,0,2018,5,10,16,6,22.635,0.9019,-0.1068,0.4167,0.0363
-0.181,-0.03,-0.004,-115.6,46.1,-177.4,0,2018,5,10,16,6,22.649,0.8928,-0.0859,0.4383,0.057
-0.055,-0.05,-0.098,-107,10.9,-187.6,0,2018,5,10,16,6,22.671,0.8823,-0.0692,0.4582,0.0812
-0.117,-0.262,-0.223,-93.8,16.5,-190.6,0,2018,5,10,16,6,22.692,0.871,-0.0542,0.4759,0.1083
-0.176,-0.25,-0.259,-86.8,72.1,-187.4,0,2018,5,10,16,6,22.71,0.8598,-0.0334,0.4919,0.1325
-0.175,-0.038,-0.268,-79.7,88,-191.6,0,2018,5,10,16,6,22.729,0.848,-0.0062,0.5072,0.153
-0.135,-0.036,-0.268,-69.5,77,-193,0,2018,5,10,16,6,22.769,0.8357,0.0209,0.5202,0.1743
-0.157,-0.095,-0.337,-56.4,82.6,-192.8,1023,2018,5,10,16,6,22.789,0.8232,0.048,0.5306,0.1959
-0.18,-0.115,-0.287,-45.4,88.3,-193.8,1023,2018,5,10,16,6,22.793,0.8105,0.0766,0.5389,0.2161
-0.143,-0.06,-0.178,-37.3,88,-195.8,1023,2018,5,10,16,6,22.814,0.7975,0.106,0.545,0.2358
-0.151,-0.009,-0.079,-35.3,81.3,-197.4,1023,2018,5,10,16,6,22.851,0.7834,0.1355,0.5499,0.2557
-0.181,-0.095,-0.084,-34.7,76.3,-195.3,1023,2018,5,10,16,6,22.871,0.7686,0.1639,0.5532,0.276
-0.134,0.007,-0.1,-34.4,72.8,-192.5,1023,2018,5,10,16,6,22.875,0.7528,0.1915,0.5557,0.2959
-0.088,0.092,-0.115,-32.2,53.9,-191.6,1023,2018,5,10,16,6,22.895,0.737,0.2167,0.5566,0.3161
-0.138,0.192,0,-33,36.1,-187.4,1023,2018,5,10,16,6,22.914,0.7212,0.2388,0.5555,0.3378
-0.114,0.176,0.05,-36.3,40.1,-171.9,1023,2018,5,10,16,6,22.934,0.7052,0.2587,0.5543,0.3582
-0.05,0.194,0.018,-37.5,38.3,-158.3,0,2018,5,10,16,6,22.953,0.6888,0.2779,0.5535,0.3766
-0.065,0.151,-0.029,-35.6,25.5,-147.9,0,2018,5,10,16,6,22.972,0.6726,0.2949,0.5521,0.3945
-0.099,0.065,-0.01,-32.4,15.7,-136.6,0,2018,5,10,16,6,22.992,0.6576,0.3093,0.5496,0.4118
-0.048,0.03,-0.01,-29,6.4,-124.1,0,2018,5,10,16,6,23.03,0.6441,0.3215,0.5465,0.4277
-0.043,-0.046,-0.154,-19.3,-5.5,-114.2,0,2018,5,10,16,6,23.05,0.6323,0.3312,0.5426,0.4427
-0.101,-0.105,-0.169,-12.7,5.6,-107.7,0,2018,5,10,16,6,23.054,0.6221,0.3403,0.5376,0.4561
-0.151,-0.03,-0.069,-8.1,23,-92.7,0,2018,5,10,16,6,23.076,0.612,0.3506,0.5338,0.4663
-0.118,-0.01,-0.064,-5.2,27.1,-76.6,0,2018,5,10,16,6,23.096,0.6023,0.361,0.5314,0.4736
-0.099,-0.004,-0.056,-2.9,20.3,-58.8,0,2018,5,10,16,6,23.125,0.5939,0.3703,0.5293,0.4793
-0.061,0.018,-0.081,0.9,16,-42.3,0,2018,5,10,16,6,23.145,0.5877,0.3775,0.5278,0.4831
-0.1,0.075,-0.102,4.5,5.2,-28,0,2018,5,10,16,6,23.15,0.5839,0.3824,0.526,0.4857
-0.145,0.147,-0.085,3.5,-6.9,-10.7,0,2018,5,10,16,6,23.189,0.5826,0.3845,0.5243,0.4875
-0.118,0.127,-0.102,0.1,-20.2,8.8,0,2018,5,10,16,6,23.209,0.5836,0.3832,0.5228,0.4889
-0.086,0.224,-0.084,-3.4,-26.1,29.2,0,2018,5,10,16,6,23.213,0.5866,0.3788,0.5222,0.4894
-0.089,0.225,-0.038,-6,-26.4,48.8,0,2018,5,10,16,6,23.234,0.5908,0.3725,0.523,0.4884
-0.069,0.226,-0.085,-12.7,-33.2,70,0,2018,5,10,16,6,23.272,0.5964,0.3634,0.5254,0.4858
-0.014,0.208,-0.137,-13.2,-50.3,85,0,2018,5,10,16,6,23.292,0.6042,0.3508,0.5281,0.4824
-0.03,0.171,-0.125,-12.6,-68.3,95.8,0,2018,5,10,16,6,23.295,0.6141,0.3349,0.5299,0.4794
-0.063,0.146,-0.083,-11.2,-74.7,104.4,0,2018,5,10,16,6,23.333,0.6253,0.3168,0.5308,0.4761
-0.062,0.116,-0.094,-10,-74.2,109.7,0,2018,5,10,16,6,23.355,0.637,0.2977,0.5315,0.472
-0.05,0.165,-0.164,-7,-88.5,111.4,0,2018,5,10,16,6,23.359,0.6492,0.2778,0.5315,0.4677
-0.065,0.157,-0.222,-5.2,-113.1,110,0,2018,5,10,16,6,23.373,0.6623,0.2554,0.529,0.4649
-0.052,0.108,-0.205,-5.6,-115.3,112.9,0,2018,5,10,16,6,23.394,0.6757,0.2311,0.525,0.4629
-0.102,0.011,-0.139,-6.7,-96.6,115.8,0,2018,5,10,16,6,23.413,0.6883,0.2075,0.5215,0.4594
-0.1,0.017,-0.124,-6.3,-84,118.3,0,2018,5,10,16,6,23.434,0.7001,0.1857,0.5194,0.4533
-0.112,0.009,-0.124,-4.1,-90.7,119.1,1023,2018,5,10,16,6,23.474,0.7115,0.1639,0.5169,0.4467
-0.125,-0.03,-0.136,0,-108.5,116.5,1023,2018,5,10,16,6,23.494,0.7232,0.1406,0.5126,0.4408
-0.107,-0.109,-0.15,3.4,-113,111.7,1023,2018,5,10,16,6,23.499,0.7342,0.1166,0.507,0.436
-0.089,-0.127,-0.138,7.7,-107.2,104.9,1023,2018,5,10,16,6,23.519,0.7448,0.093,0.5006,0.431
-0.091,-0.099,-0.122,13.7,-115.4,94.4,1023,2018,5,10,16,6,23.539,0.7547,0.0705,0.493,0.4268
-0.103,-0.179,-0.117,17.5,-130,83.8,1023,2018,5,10,16,6,23.559,0.7641,0.0471,0.483,0.4249
-0.119,-0.268,-0.047,16.2,-116.9,75.5,1023,2018,5,10,16,6,23.578,0.7723,0.0247,0.472,0.4243
-0.066,-0.343,-0.02,15.3,-77,67.3,1023,2018,5,10,16,6,23.601,0.7793,0.0069,0.463,0.422
-0.075,-0.352,-0.027,12.9,-41,57.8,1023,2018,5,10,16,6,23.62,0.7851,-0.0048,0.4569,0.418
-0.082,-0.283,-0.046,12.5,-24.6,48.3,0,2018,5,10,16,6,23.635,0.79,-0.0124,0.453,0.4128
-0.019,-0.224,-0.103,12.5,-12.8,39.7,0,2018,5,10,16,6,23.673,0.7942,-0.0177,0.45,0.4079
0.039,-0.162,-0.053,12.8,5.3,33.9,0,2018,5,10,16,6,23.693,0.7979,-0.0202,0.448,0.4026
0.011,-0.14,0.055,12.8,15.5,27.8,0,2018,5,10,16,6,23.698,0.8013,-0.0203,0.447,0.3968
-0.028,-0.168,0.11,10.3,19.2,22,0,2018,5,10,16,6,23.737,0.8041,-0.0191,0.4467,0.3916
0.002,-0.132,0.085,6.7,21.3,17.9,0,2018,5,10,16,6,23.739,0.8063,-0.0173,0.447,0.3868
0.041,-0.091,0.016,6.9,13.8,13.3,0,2018,5,10,16,6,23.757,0.8081,-0.016,0.4471,0.3829
0.002,-0.078,0.035,6.7,7.6,10.5,0,2018,5,10,16,6,23.777,0.8099,-0.0159,0.4466,0.3798
-0.04,-0.098,0.056,4,10.2,8.3,0,2018,5,10,16,6,23.814,0.8113,-0.0155,0.446,0.3774
-0.012,-0.086,0.045,0.8,10,4.2,0,2018,5,10,16,6,23.835,0.8122,-0.0148,0.4462,0.3752
-0.012,-0.105,0.022,0.6,11.7,0.7,0,2018,5,10,16,6,23.837,0.813,-0.0143,0.4463,0.3734
-0.025,-0.11,-0.02,0.6,19.3,-2.6,0,2018,5,10,16,6,23.871,0.8135,-0.0129,0.4469,0.3717
-0.038,-0.079,-0.019,-0.9,23.8,-5.4,0,2018,5,10,16,6,23.894,0.8136,-0.0102,0.4482,0.3699
0.028,-0.162,-0.027,-1.5,33.3,-8.6,0,2018,5,10,16,6,23.899,0.8133,-0.0064,0.4502,0.3683
0.014,-0.102,-0.008,-1.5,51.3,-9.4,0,2018,5,10,16,6,23.919,0.8128,0,0.4532,0.3657
-0.035,-0.04,-0.018,-2.8,54.4,-10,0,2018,5,10,16,6,23.94,0.8124,0.0075,0.4569,0.362
-0.041,-0.005,-0.021,-4.6,47.5,-9.6,0,2018,5,10,16,6,23.96,0.8114,0.0154,0.4605,0.3593
0.012,-0.04,-0.009,-5.9,42.1,-10.7,0,2018,5,10,16,6,23.979,0.8104,0.022,0.4641,0.3567
0.019,-0.023,-0.009,-5.6,39.8,-12,0,2018,5,10,16,6,24.017,0.8092,0.0279,0.4676,0.3545
-0.028,-0.019,-0.032,-5.3,37.4,-11.6,0,2018,5,10,16,6,24.037,0.8078,0.034,0.4706,0.353
-0.068,-0.031,-0.043,-8.3,38.6,-8.6,0,2018,5,10,16,6,24.042,0.8065,0.0397,0.4739,0.3512
-0.006,0.019,-0.02,-10.7,35.4,-7.5,0,2018,5,10,16,6,24.057,0.8049,0.0453,0.4774,0.3493
0.026,0.057,-0.003,-11.1,23.7,-7.1,0,2018,5,10,16,6,24.078,0.8031,0.0497,0.4809,0.3481
-0.002,0.016,0.023,-13,19.9,-3.2,0,2018,5,10,16,6,24.116,0.8015,0.0525,0.4837,0.3473
-0.051,0.021,0.037,-17,29.7,5.7,0,2018,5,10,16,6,24.137,0.8002,0.0551,0.487,0.3453
0.033,0.108,0.041,-19.6,21.6,10,1023,2018,5,10,16,6,24.142,0.799,0.0577,0.4911,0.342
0.099,0.145,0,-16.4,-0.8,9.9,1023,2018,5,10,16,6,24.159,0.7976,0.0578,0.4946,0.3402
0.089,0.122,-0.023,-10.7,-17.6,10.3,1023,2018,5,10,16,6,24.179,0.7967,0.0554,0.4966,0.3398
0.058,0.1,-0.018,-7.4,-32.1,10.7,1023,2018,5,10,16,6,24.219,0.7964,0.051,0.497,0.3407
0.078,0.025,-0.004,-4.6,-32.8,11.1,1023,2018,5,10,16,6,24.239,0.7965,0.0451,0.4962,0.3422
0.07,0.001,0.03,-2.8,-20.7,11.5,1023,2018,5,10,16,6,24.243,0.797,0.0401,0.4954,0.3428
0.078,-0.001,0.024,-1.2,-15.2,11.7,1023,2018,5,10,16,6,24.262,0.7978,0.0363,0.4948,0.3425
0.06,-0.009,-0.006,-0.7,-14,13,1023,2018,5,10,16,6,24.284,0.7986,0.0329,0.4943,0.3417
0.087,0.002,-0.054,2.4,-10.4,12.8,1023,2018,5,10,16,6,24.304,0.7994,0.0297,0.4941,0.3403
0.067,0,-0.068,6.1,-6.2,11,0,2018,5,10,16,6,24.343,0.8002,0.0276,0.4938,0.3391
0.061,0.021,-0.016,7.3,-2.6,11,0,2018,5,10,16,6,24.347,0.8012,0.0264,0.4932,0.3375
0.028,0.013,-0.004,7.7,-5.4,8.9,0,2018,5,10,16,6,24.364,0.8024,0.0255,0.4922,0.3363
0.051,0.029,-0.043,8.7,-10.3,8,0,2018,5,10,16,6,24.382,0.8035,0.0242,0.491,0.3354
0.07,0.033,-0.079,11.1,-24.8,6.9,0,2018,5,10,16,6,24.403,0.8045,0.0218,0.4894,0.3357
0.091,0.012,-0.065,11.7,-36.9,5,0,2018,5,10,16,6,24.423,0.8056,0.0175,0.4868,0.337
0.074,0.01,-0.04,9.7,-37.6,3.2,0,2018,5,10,16,6,24.462,0.8065,0.0121,0.4837,0.3395
0.048,-0.004,0.011,5.9,-20.2,2,0,2018,5,10,16,6,24.483,0.8073,0.0082,0.4813,0.3412
0.038,-0.015,0.037,2,-5.5,0.3,0,2018,5,10,16,6,24.487,0.8078,0.0064,0.48,0.3418
0.054,0.051,0.028,-0.3,-1.4,0.9,0,2018,5,10,16,6,24.504,0.808,0.0061,0.4797,0.3418
0.06,0.118,-0.028,-0.7,-12.7,2.3,0,2018,5,10,16,6,24.543,0.8077,0.0056,0.4798,0.3424
0.043,0.129,-0.009,-0.7,-28.3,2.6,0,2018,5,10,16,6,24.547,0.8074,0.003,0.4793,0.3438
0.001,0.067,0.079,-0.9,-35.3,3.8,0,2018,5,10,16,6,24.563,0.8075,-0.0012,0.4774,0.3463
-0.019,-0.006,0.073,-2.2,-25.4,5.5,0,2018,5,10,16,6,24.582,0.808,-0.0058,0.4751,0.3482
0.009,0.037,0.018,-2.2,-19.6,6.4,0,2018,5,10,16,6,24.603,0.8083,-0.0094,0.4739,0.349
0.028,0.041,-0.026,0,-18.2,7.3,0,2018,5,10,16,6,24.624,0.8085,-0.0124,0.4732,0.3495
0.017,0.099,0.006,1.6,-23.3,8.1,0,2018,5,10,16,6,24.643,0.8088,-0.0154,0.4721,0.3502
0.011,-0.005,0.037,0.6,-30.6,6.9,0,2018,5,10,16,6,24.682,0.8093,-0.0196,0.4702,0.3514
0.016,-0.045,0.081,-0.9,-27.4,6.4,0,2018,5,10,16,6,24.704,0.8099,-0.0245,0.4679,0.3527
0.025,-0.035,0.042,-1.3,-25.4,6.9,0,2018,5,10,16,6,24.708,0.8104,-0.0292,0.466,0.3537
0.011,0,0.065,-2.2,-25,7.5,0,2018,5,10,16,6,24.727,0.8108,-0.0335,0.4644,0.3545
-0.003,-0.076,0.049,-4.5,-23.7,5.6,0,2018,5,10,16,6,24.746,0.8111,-0.038,0.4628,0.3554
0.019,0.007,0.039,-5.3,-23.5,4.7,0,2018,5,10,16,6,24.767,0.8111,-0.0421,0.4617,0.3564
0.049,-0.038,-0.02,-3.8,-32.4,1.9,0,2018,5,10,16,6,24.784,0.8107,-0.047,0.4606,0.358
0.035,-0.031,-0.046,-1.8,-33.6,-0.1,1023,2018,5,10,16,6,24.803,0.8102,-0.0524,0.4594,0.3601
0.019,-0.013,-0.033,-1.5,-37.2,-1.9,1023,2018,5,10,16,6,24.823,0.8096,-0.0577,0.4578,0.3625
0.026,0.042,-0.064,2.9,-41.4,-0.2,1023,2018,5,10,16,6,24.862,0.809,-0.0632,0.4558,0.3654
0.037,0.038,-0.109,7.5,-43.3,1.4,1023,2018,5,10,16,6,24.881,0.8086,-0.0688,0.4532,0.3686
0.025,0.024,-0.12,11.7,-49.7,2.8,1023,2018,5,10,16,6,24.884,0.8086,-0.0749,0.4495,0.3718
0.025,0.038,-0.113,14,-50.2,4.7,1023,2018,5,10,16,6,24.921,0.8088,-0.0816,0.4455,0.3749
0.033,0.027,-0.088,16.4,-50.9,5.7,1023,2018,5,10,16,6,24.942,0.8092,-0.088,0.4409,0.378
0.044,-0.002,-0.11,18.3,-53.1,3.1,1023,2018,5,10,16,6,24.947,0.8097,-0.0949,0.436,0.381
0.033,0.004,-0.126,19.9,-49.9,0.9,1023,2018,5,10,16,6,24.965,0.8099,-0.1014,0.4308,0.3846
0.006,0.017,-0.091,21.4,-50.2,1.4,0,2018,5,10,16,6,24.986,0.8103,-0.1072,0.4255,0.3882
-0.028,-0.053,-0.016,19.7,-37.4,4.2,0,2018,5,10,16,6,25.022,0.8111,-0.1127,0.4198,0.3912
-0.04,-0.059,0.054,14.8,-10,8.3,0,2018,5,10,16,6,25.024,0.8127,-0.1155,0.4151,0.392
-0.033,-0.026,0.041,9.3,8.9,8.8,0,2018,5,10,16,6,25.043,0.8146,-0.1154,0.4127,0.3906
-0.028,0.046,0.021,4.2,5.3,8.9,0,2018,5,10,16,6,25.081,0.816,-0.1141,0.4119,0.3889
-0.06,0.017,0.039,-1,1.9,13.3,0,2018,5,10,16,6,25.101,0.8171,-0.1138,0.4114,0.3873
-0.103,-0.05,0.12,-8.7,14.1,18.2,0,2018,5,10,16,6,25.103,0.8183,-0.114,0.4116,0.3844
-0.114,-0.043,0.162,-16.5,27,22.3,0,2018,5,10,16,6,25.139,0.8192,-0.1133,0.4145,0.3795
-0.128,0.028,0.127,-24.6,26.1,28.6,0,2018,5,10,16,6,25.159,0.8199,-0.1125,0.4188,0.3734
-0.135,0.09,0.075,-31.6,15.2,38.1,0,2018,5,10,16,6,25.165,0.8204,-0.1139,0.4236,0.3665
-0.138,0.135,0.032,-33.2,-1.9,49.7,0,2018,5,10,16,6,25.202,0.821,-0.1184,0.428,0.3586
-0.162,0.17,-0.015,-33.5,-30.3,62.4,0,2018,5,10,16,6,25.222,0.8216,-0.1271,0.4307,0.3508
-0.195,0.191,-0.047,-34.1,-57.8,78.5,0,2018,5,10,16,6,25.226,0.8223,-0.1412,0.4313,0.3429
-0.237,0.201,-0.072,-31.8,-70.2,96.3,0,2018,5,10,16,6,25.245,0.8233,-0.1593,0.4301,0.334
-0.271,0.212,-0.11,-28.1,-69.1,115.7,0,2018,5,10,16,6,25.264,0.8251,-0.1792,0.4273,0.3229
-0.316,0.115,-0.137,-25.6,-45.5,138.2,0,2018,5,10,16,6,25.301,0.8282,-0.1988,0.4239,0.3078
-0.308,0.117,-0.136,-19.6,-0.7,165.2,0,2018,5,10,16,6,25.321,0.8336,-0.2146,0.4206,0.2862
-0.321,0.194,-0.131,-10.7,39.3,195.1,0,2018,5,10,16,6,25.328,0.8419,-0.2257,0.417,0.2573
-0.353,0.274,-0.163,2.2,69.4,226,0,2018,5,10,16,6,25.363,0.8527,-0.233,0.4117,0.2215
-0.429,0.217,-0.192,18.4,73.4,249.1,0,2018,5,10,16,6,25.385,0.8648,-0.2386,0.403,0.1804
-0.439,0.16,-0.174,37.8,54.7,267.4,0,2018,5,10,16,6,25.387,0.8767,-0.2461,0.3896,0.1374
-0.407,0.192,-0.144,57,20.9,283.8,0,2018,5,10,16,6,25.423,0.887,-0.2579,0.3709,0.0943
-0.381,0.197,-0.161,75,-21.6,299,0,2018,5,10,16,6,25.444,0.8948,-0.2757,0.347,0.0517
-0.441,-0.037,-0.073,79.8,-61.3,301.6,0,2018,5,10,16,6,25.446,0.8987,-0.3002,0.3192,0.0111
-0.467,-0.538,0.104,66.5,-39.4,294.1,1023,2018,5,10,16,6,25.487,0.8992,-0.3249,0.2915,-0.0285
-0.303,-0.407,0.131,57,24.4,291,1023,2018,5,10,16,6,25.507,0.8991,-0.3409,0.265,-0.0705
-0.193,-0.158,0.088,59.3,58,285.1,1023,2018,5,10,16,6,25.511,0.8999,-0.3468,0.2379,-0.1147
-0.19,-0.125,0.055,70.4,-16.4,257.3,1023,2018,5,10,16,6,25.529,0.8974,-0.3553,0.2106,-0.1545
-0.295,-0.41,-0.205,61.9,-39.9,231,1023,2018,5,10,16,6,25.55,0.89,-0.3717,0.1861,-0.1869
-0.217,-0.564,-0.26,65.9,30,208.2,1023,2018,5,10,16,6,25.569,0.8837,-0.3818,0.1623,-0.2166
-0.011,-0.208,-0.19,88.2,73.1,181.9,1023,2018,5,10,16,6,25.589,0.8818,-0.3806,0.1351,-0.2432
-0.005,-0.156,-0.119,108.3,28.9,158.6,1023,2018,5,10,16,6,25.611,0.8794,-0.3817,0.1061,-0.2638
-0.206,-0.556,0.217,101.5,41.7,126.6,1023,2018,5,10,16,6,25.632,0.8762,-0.3846,0.0789,-0.2792
-0.174,-0.327,0.386,99.2,68.9,95.2,1023,2018,5,10,16,6,25.652,0.8756,-0.3823,0.0527,-0.2902
-0.065,-0.931,0.426,68.7,117.9,48.4,0,2018,5,10,16,6,25.672,0.8781,-0.3738,0.031,-0.2968
0.076,-0.713,0.641,42,230.1,24.4,0,2018,5,10,16,6,25.71,0.8879,-0.3495,0.0112,-0.2987
0.173,-0.062,0.729,25.6,178,8.5,0,2018,5,10,16,6,25.729,0.8997,-0.3177,-0.0063,-0.2991
0.209,-0.029,0.588,4.3,92.2,3.7,0,2018,5,10,16,6,25.733,0.9063,-0.2979,-0.0156,-0.2991
0.225,0.08,0.448,-10.1,11,1.3,0,2018,5,10,16,6,25.75,0.9088,-0.2898,-0.0177,-0.2995
0.196,0.212,0.258,-17.2,-71.5,2.6,0,2018,5,10,16,6,25.788,0.9071,-0.294,-0.0139,-0.3006
0.111,0.113,0.207,-23.7,-152.7,-2.5,0,2018,5,10,16,6,25.808,0.9011,-0.311,-0.0045,-0.3019
0.014,-0.127,0.177,-31.3,-172.2,-12.1,0,2018,5,10,16,6,25.812,0.8922,-0.3354,0.0092,-0.3022
-0.042,-0.157,0.213,-33.4,-155.4,-21.6,0,2018,5,10,16,6,25.832,0.8832,-0.3587,0.0244,-0.301
0.006,-0.048,0.178,-36.1,-151.1,-30,0,2018,5,10,16,6,25.851,0.875,-0.3788,0.0393,-0.2985
0.009,-0.051,0.069,-28.6,-184.3,-51,0,2018,5,10,16,6,25.872,0.8658,-0.4013,0.0558,-0.2933
-0.066,-0.326,0.095,-26.5,-214.7,-74.7,0,2018,5,10,16,6,25.892,0.8537,-0.4303,0.0749,-0.2834
-0.035,-0.502,0.136,-19.1,-178.6,-92.8,0,2018,5,10,16,6,25.929,0.8414,-0.4586,0.0947,-0.2695
0.025,-0.449,0.162,-8.4,-134.1,-109.1,0,2018,5,10,16,6,25.95,0.8328,-0.4791,0.1126,-0.253
0.018,-0.404,0.175,-3.7,-120.2,-123.9,0,2018,5,10,16,6,25.954,0.8266,-0.4952,0.1289,-0.2339
-0.065,-0.472,0.201,-1,-96.1,-142.4,0,2018,5,10,16,6,25.972,0.8219,-0.5081,0.1452,-0.2125
-0.027,-0.441,0.211,-1.6,-79.8,-158.6,0,2018,5,10,16,6,25.991,0.8194,-0.5164,0.1615,-0.1889
-0.027,-0.438,0.181,-0.1,-71.4,-177.7,0,2018,5,10,16,6,26.029,0.8178,-0.522,0.1789,-0.1631
-0.055,-0.397,0.139,2.7,-81.9,-197.2,0,2018,5,10,16,6,26.05,0.8156,-0.5269,0.1974,-0.1342
-0.067,-0.333,0.096,9.2,-93.3,-212.2,0,2018,5,10,16,6,26.054,0.8118,-0.5325,0.2166,-0.1019
-0.094,-0.335,0.063,17.9,-92.4,-226.3,0,2018,5,10,16,6,26.074,0.8065,-0.5378,0.2364,-0.0661
-0.056,-0.324,0.016,27.5,-59.5,-233.8,0,2018,5,10,16,6,26.093,0.8021,-0.5388,0.2555,-0.0283
-0.091,-0.257,-0.08,35.9,-21.3,-242.3,0,2018,5,10,16,6,26.129,0.8003,-0.5333,0.2734,0.0097
-0.127,-0.124,-0.136,41.2,6.5,-246.2,0,2018,5,10,16,6,26.149,0.8005,-0.5219,0.2906,0.0478
-0.139,-0.084,-0.161,46.9,22,-248.1,1023,2018,5,10,16,6,26.156,0.8013,-0.5063,0.3068,0.0855
-0.157,-0.025,-0.195,51.5,41.1,-244.2,1023,2018,5,10,16,6,26.171,0.8022,-0.4875,0.3219,0.1225
-0.158,0.012,-0.28,52.3,54.3,-240.3,1023,2018,5,10,16,6,26.193,0.8033,-0.4655,0.336,0.158
-0.179,0.071,-0.283,50.8,64.9,-230,1023,2018,5,10,16,6,26.214,0.8039,-0.4415,0.3493,0.1915
-0.223,0.071,-0.255,50.4,72.4,-219.9,1023,2018,5,10,16,6,26.233,0.804,-0.4161,0.3616,0.2224
-0.255,0.088,-0.27,52.3,60.7,-213.3,1023,2018,5,10,16,6,26.27,0.8032,-0.3905,0.3726,0.2518
-0.252,0.004,-0.244,55.4,44.6,-204.8,1023,2018,5,10,16,6,26.29,0.8003,-0.3672,0.3812,0.2815
-0.259,0.002,-0.195,52.8,58.8,-190.2,1023,2018,5,10,16,6,26.294,0.7969,-0.344,0.3885,0.309
-0.292,0.082,-0.246,50.3,66.6,-176.1,0,2018,5,10,16,6,26.334,0.7937,-0.3201,0.3959,0.3327
-0.309,0.137,-0.185,51.8,39,-169.5,0,2018,5,10,16,6,26.353,0.7897,-0.2969,0.4021,0.3555
-0.293,0.119,-0.076,55.8,-12.5,-162.2,0,2018,5,10,16,6,26.357,0.7834,-0.2801,0.4038,0.3802
-0.298,-0.035,-0.071,54.8,-18.9,-145.8,0,2018,5,10,16,6,26.375,0.7759,-0.2682,0.4018,0.4054
-0.328,0.015,-0.188,48.8,15.4,-127.7,0,2018,5,10,16,6,26.414,0.7697,-0.2551,0.4008,0.4262
-0.286,0.151,-0.167,45.9,36.3,-110.3,0,2018,5,10,16,6,26.434,0.7652,-0.2392,0.4017,0.4423
-0.269,0.122,-0.032,45.3,51.8,-95.7,0,2018,5,10,16,6,26.437,0.7622,-0.2227,0.4033,0.4546
-0.265,0.021,0.038,40.2,69.3,-83.6,0,2018,5,10,16,6,26.455,0.7604,-0.2048,0.4059,0.4636
-0.237,0.017,0.012,35.8,75.2,-72.7,0,2018,5,10,16,6,26.49,0.7593,-0.1866,0.4099,0.4695
-0.199,0.059,-0.078,36.3,61.3,-61.4,0,2018,5,10,16,6,26.51,0.7586,-0.1698,0.4131,0.4742
-0.173,0.02,-0.055,37.5,50.3,-50.3,0,2018,5,10,16,6,26.514,0.7583,-0.1549,0.4141,0.4789
-0.176,0.043,0.048,33.4,58.4,-38.3,0,2018,5,10,16,6,26.552,0.7588,-0.1408,0.4145,0.482
-0.128,0.084,0.032,31.8,45.2,-31.9,0,2018,5,10,16,6,26.573,0.7596,-0.1286,0.4156,0.4833
-0.098,-0.006,0.014,30.2,38.1,-26.6,0,2018,5,10,16,6,26.577,0.7604,-0.118,0.4151,0.4853
-0.091,-0.114,-0.021,28.4,53.8,-22.7,0,2018,5,10,16,6,26.617,0.7617,-0.1077,0.4147,0.4859
-0.09,-0.117,-0.038,24.3,84.9,-19.4,0,2018,5,10,16,6,26.636,0.7634,-0.095,0.4171,0.4838
-0.062,-0.077,-0.08,22.1,111.3,-19.7,0,2018,5,10,16,6,26.64,0.7652,-0.0788,0.4222,0.4794
-0.054,-0.07,-0.073,21.1,124.9,-24.4,0,2018,5,10,16,6,26.656,0.7665,-0.0596,0.4294,0.4737
-0.067,-0.131,-0.069,19.3,131.4,-29.6,0,2018,5,10,16,6,26.678,0.767,-0.0391,0.437,0.4681
-0.069,-0.155,-0.068,14.9,152.4,-32.7,0,2018,5,10,16,6,26.697,0.7667,-0.0169,0.446,0.4613
-0.045,-0.033,-0.052,11.9,158,-37.1,0,2018,5,10,16,6,26.717,0.7652,0.0077,0.4566,0.4536
-0.047,-0.037,-0.066,11.4,142.5,-43.7,0,2018,5,10,16,6,26.737,0.7622,0.0322,0.4667,0.4472
-0.089,-0.048,-0.07,10.1,132.6,-47.8,0,2018,5,10,16,6,26.757,0.7584,0.0552,0.4755,0.4422
-0.093,-0.081,-0.107,9.3,135.3,-49.2,1023,2018,5,10,16,6,26.777,0.7538,0.0779,0.4838,0.4377
-0.078,-0.087,-0.103,9.6,140.7,-52.1,1023,2018,5,10,16,6,26.797,0.7482,0.1013,0.4924,0.4328
-0.097,-0.067,-0.072,9.5,140.2,-53.8,1023,2018,5,10,16,6,26.817,0.7419,0.1253,0.5006,0.4278
-0.132,-0.057,-0.054,8,132.4,-55,1023,2018,5,10,16,6,26.853,0.7352,0.1489,0.508,0.4232
-0.115,-0.055,-0.114,8.7,118.2,-54.5,1023,2018,5,10,16,6,26.874,0.728,0.1712,0.5145,0.4194
-0.096,-0.019,-0.13,8.3,99.1,-55.1,1023,2018,5,10,16,6,26.881,0.7209,0.1911,0.5199,0.4164
-0.095,-0.009,-0.04,7.2,81.1,-53.7,1023,2018,5,10,16,6,26.898,0.7138,0.2087,0.5236,0.4154
-0.126,0.048,0.044,4.3,60.6,-50.3,1023,2018,5,10,16,6,26.933,0.7077,0.2233,0.5255,0.4158
-0.097,0.075,0.064,3.2,35.4,-46.3,1023,2018,5,10,16,6,26.954,0.7024,0.234,0.5266,0.4177
-0.062,0.065,0.004,4.1,7.4,-41.4,0,2018,5,10,16,6,26.956,0.6985,0.2416,0.5251,0.4217
-0.08,0.097,0.05,1.5,-7.5,-34.4,0,2018,5,10,16,6,26.995,0.6958,0.2458,0.5225,0.427
-0.096,0.15,0.082,-1.4,-8.3,-21.7,0,2018,5,10,16,6,27.015,0.6938,0.2479,0.5201,0.4319
-0.088,0.269,0.091,-3.9,-28.4,-8.7,0,2018,5,10,16,6,27.017,0.6931,0.2471,0.5185,0.4354
-0.059,-0.017,0.123,-9.1,-45.8,10.8,0,2018,5,10,16,6,27.054,0.6941,0.2417,0.5162,0.4395
-0.15,0.075,0.221,-12.9,-47.1,34,0,2018,5,10,16,6,27.076,0.6964,0.2337,0.5149,0.4417
-0.165,0.152,0.183,-18.1,-93.6,54.2,0,2018,5,10,16,6,27.081,0.701,0.2203,0.5134,0.4431
-0.133,0.296,0.073,-26,-182.3,71.1,0,2018,5,10,16,6,27.102,0.7089,0.1958,0.5079,0.4484
-0.068,0.056,0.006,-31.3,-262,77.8,0,2018,5,10,16,6,27.123,0.7191,0.1587,0.4955,0.4604
-0.077,-0.043,0.042,-44.5,-292.5,79,0,2018,5,10,16,6,27.138,0.729,0.1139,0.4785,0.4759
-0.07,-0.049,0.023,-65.7,-284.1,79.7,0,2018,5,10,16,6,27.16,0.7358,0.0655,0.4613,0.4912
-0.022,-0.117,-0.097,-82,-240.1,81.5,0,2018,5,10,16,6,27.18,0.739,0.0182,0.4484,0.5023
-0.001,-0.114,-0.187,-87.9,-164.7,88.7,0,2018,5,10,16,6,27.201,0.7398,-0.0223,0.4418,0.5069
0.015,0.025,-0.198,-86.1,-99.6,93.1,0,2018,5,10,16,6,27.239,0.7403,-0.0535,0.4412,0.5042
0.038,0.084,-0.226,-80.7,-72.7,92.7,0,2018,5,10,16,6,27.261,0.741,-0.0786,0.4436,0.4977
0.161,0.005,-0.199,-72.3,-62,91.2,0,2018,5,10,16,6,27.265,0.742,-0.1013,0.4462,0.4897
0.093,-0.118,-0.118,-65.4,-31.4,84,0,2018,5,10,16,6,27.282,0.7432,-0.1203,0.4495,0.4806
0.016,-0.216,0,-60.2,15.3,74.5,0,2018,5,10,16,6,27.303,0.7448,-0.1327,0.4553,0.4693
0.125,-0.11,-0.027,-55.7,50.1,69.2,0,2018,5,10,16,6,27.324,0.7468,-0.1386,0.4644,0.4553
0.227,0.042,-0.082,-44.4,54.2,64.9,0,2018,5,10,16,6,27.34,0.7493,-0.1409,0.4738,0.4404
0.178,0.068,-0.104,-32.8,32.7,61.2,0,2018,5,10,16,6,27.379,0.7519,-0.1435,0.4807,0.4275
0.125,0.058,0.005,-25.2,21.1,63,0,2018,5,10,16,6,27.399,0.7546,-0.1473,0.4852,0.4163
0.056,-0.03,0.096,-25.7,25,67.5,0,2018,5,10,16,6,27.403,0.7579,-0.1519,0.4883,0.405
0.017,-0.025,0.032,-30.6,39.5,75.3,0,2018,5,10,16,6,27.421,0.7616,-0.1558,0.4918,0.3919
0.104,0.123,-0.105,-28.7,37.4,90.8,0,2018,5,10,16,6,27.458,0.7655,-0.1596,0.4966,0.3765
0.079,0.123,-0.114,-15.9,22.8,102.8,1023,2018,5,10,16,6,27.479,0.7707,-0.1656,0.4987,0.3602
0.056,0.154,-0.086,-4.5,16.3,112.5,1023,2018,5,10,16,6,27.484,0.777,-0.173,0.498,0.3437
0.075,0.234,-0.113,4.3,12.7,126.4,1023,2018,5,10,16,6,27.501,0.7845,-0.1814,0.4951,0.3261
0.084,0.313,-0.176,21.4,8.8,141.7,1023,2018,5,10,16,6,27.522,0.7933,-0.1908,0.4897,0.3071
0.067,0.351,-0.21,44.5,-2.9,154.7,1023,2018,5,10,16,6,27.563,0.8041,-0.2012,0.48,0.2871
0.012,0.321,-0.146,59.7,-18.8,164.2,1023,2018,5,10,16,6,27.584,0.8158,-0.2134,0.4662,0.2671
-0.064,0.221,-0.091,65.7,-33.9,169,1023,2018,5,10,16,6,27.588,0.8273,-0.2279,0.4494,0.2478
-0.112,-0.09,0.065,62.6,-14.5,169.9,1023,2018,5,10,16,6,27.606,0.8384,-0.242,0.4316,0.2281
-0.093,-0.33,0.036,55.3,33.5,157.8,1023,2018,5,10,16,6,27.621,0.8494,-0.2506,0.4163,0.2055
-0.024,-0.217,-0.08,52.3,85.9,140.8,0,2018,5,10,16,6,27.66,0.8609,-0.2504,0.404,0.1809
0.016,-0.02,-0.241,55.8,103.2,120.9,0,2018,5,10,16,6,27.681,0.8729,-0.2428,0.3931,0.1564
-0.035,0.133,-0.115,60,75.7,102.6,0,2018,5,10,16,6,27.685,0.8835,-0.2347,0.3819,0.1356
-0.033,0.159,-0.055,56.7,16.8,88.8,0,2018,5,10,16,6,27.704,0.8914,-0.2323,0.3702,0.1197
-0.002,0.208,-0.081,50,-52.8,76.2,0,2018,5,10,16,6,27.723,0.8955,-0.2396,0.3582,0.1103
0.014,0.255,-0.241,42.8,-117.5,67.1,0,2018,5,10,16,6,27.762,0.8959,-0.257,0.3463,0.1064
0.04,0.3,-0.415,40.3,-166,65.1,0,2018,5,10,16,6,27.783,0.8926,-0.2829,0.3342,0.1064
-0.034,-0.075,-0.172,41.8,-155.8,70,0,2018,5,10,16,6,27.787,0.8877,-0.3116,0.3213,0.1073
-0.127,-0.189,-0.062,39,-117.8,70.7,0,2018,5,10,16,6,27.805,0.8835,-0.3359,0.3084,0.1063
-0.106,-0.082,-0.071,33.8,-69.7,75.8,0,2018,5,10,16,6,27.824,0.8812,-0.3534,0.2967,0.1022
-0.094,0.129,-0.185,30.8,-33.6,86.3,0,2018,5,10,16,6,27.842,0.881,-0.3648,0.2859,0.094
-0.119,0.058,-0.254,30,-10.3,95.9,0,2018,5,10,16,6,27.882,0.8823,-0.3723,0.2754,0.083
-0.174,-0.109,-0.102,33.2,-21.3,99.6,0,2018,5,10,16,6,27.902,0.8841,-0.3791,0.2636,0.0707
-0.218,-0.191,0.062,34,-20.3,105.4,0,2018,5,10,16,6,27.906,0.8852,-0.3869,0.2512,0.0583
-0.213,-0.162,0.024,31.7,-11.9,106.3,0,2018,5,10,16,6,27.924,0.8865,-0.3936,0.2387,0.0446
-0.15,-0.11,-0.128,29.3,-4.1,99.6,0,2018,5,10,16,6,27.943,0.8878,-0.3989,0.2269,0.0312
-0.056,-0.062,-0.227,33,-22.4,94.6,0,2018,5,10,16,6,27.979,0.8888,-0.4041,0.2152,0.0185
-0.066,0.04,-0.145,36.4,-65.8,93.9,0,2018,5,10,16,6,27.999,0.887,-0.4146,0.203,0.0081
-0.149,-0.259,0.162,25.6,-51.3,92.1,0,2018,5,10,16,6,28.003,0.8834,-0.4277,0.1911,-0.002
-0.089,-0.248,0.234,10,9.6,81.3,0,2018,5,10,16,6,28.041,0.8823,-0.4338,0.1818,-0.0133
0.014,-0.405,0.147,-8.4,84.7,71.8,0,2018,5,10,16,6,28.044,0.8858,-0.4286,0.1753,-0.027
0.104,-0.233,0.056,-15.3,114.9,60.4,0,2018,5,10,16,6,28.064,0.8923,-0.4152,0.1717,-0.0414
0.174,-0.038,-0.041,-14.9,99.4,56.9,1023,2018,5,10,16,6,28.102,0.8991,-0.3997,0.1694,-0.0549
0.091,0.057,0.175,-19.8,65.3,51.5,1023,2018,5,10,16,6,28.121,0.9035,-0.3886,0.1673,-0.0668
0.04,-0.175,0.348,-38.3,47.2,43.7,1023,2018,5,10,16,6,28.123,0.9058,-0.3809,0.1676,-0.078
0.078,-0.333,0.37,-57.5,73.1,38.3,1023,2018,5,10,16,6,28.16,0.908,-0.3714,0.1715,-0.0896
0.085,-0.206,0.291,-63.8,82.3,28.9,1023,2018,5,10,16,6,28.18,0.9107,-0.3587,0.1775,-0.1014
0.114,-0.03,0.256,-68.1,59.1,18.5,1023,2018,5,10,16,6,28.184,0.9129,-0.3458,0.1853,-0.1117
0.078,0.065,0.361,-72.3,1.9,3.5,1023,2018,5,10,16,6,28.222,0.9122,-0.3398,0.1953,-0.1186
0.129,0.048,0.357,-74.7,-58.2,-11.8,1023,2018,5,10,16,6,28.243,0.9078,-0.3432,0.2079,-0.1213
0.152,-0.075,0.283,-72.2,-87.8,-30.2,1023,2018,5,10,16,6,28.248,0.9009,-0.3526,0.2226,-0.1195
0.136,-0.127,0.226,-65.3,-82.5,-46.1,0,2018,5,10,16,6,28.286,0.8939,-0.3623,0.2377,-0.1141
0.106,-0.121,0.177,-56.4,-83.3,-64.4,0,2018,5,10,16,6,28.306,0.8874,-0.3708,0.2524,-0.1056
0.085,-0.085,0.138,-43.8,-94.6,-83.1,0,2018,5,10,16,6,28.311,0.8808,-0.3798,0.2665,-0.0933
0.117,-0.107,0.09,-27.1,-115.8,-100.3,0,2018,5,10,16,6,28.325,0.8736,-0.3904,0.2799,-0.0764
0.106,-0.088,0.051,-8.1,-149.3,-117.1,0,2018,5,10,16,6,28.364,0.8647,-0.4049,0.2919,-0.054
0.103,-0.054,-0.027,10.2,-176.9,-127.4,0,2018,5,10,16,6,28.386,0.8535,-0.4234,0.3023,-0.0271
0.096,-0.124,-0.054,27.1,-190.2,-138.3,0,2018,5,10,16,6,28.39,0.8402,-0.4443,0.3106,0.0041
0.088,-0.146,-0.074,43.3,-182.4,-142.8,0,2018,5,10,16,6,28.408,0.8263,-0.4643,0.3163,0.0377
0.089,-0.092,-0.104,56.5,-176.1,-144.9,0,2018,5,10,16,6,28.447,0.8123,-0.4822,0.3198,0.0724
0.042,-0.102,-0.102,65.3,-161,-144.1,0,2018,5,10,16,6,28.47,0.7988,-0.4972,0.3209,0.1076
-0.017,-0.213,-0.094,70.3,-109.9,-141.6,0,2018,5,10,16,6,28.474,0.7876,-0.5066,0.321,0.141
-0.052,-0.228,-0.117,65.9,-50.9,-141.6,0,2018,5,10,16,6,28.492,0.7806,-0.5075,0.3221,0.1708
-0.076,-0.124,-0.052,59.8,-10,-144,0,2018,5,10,16,6,28.51,0.7771,-0.5012,0.3253,0.1973
-0.081,-0.039,-0.068,53.3,7.7,-144.8,0,2018,5,10,16,6,28.531,0.7751,-0.4913,0.3297,0.2211
-0.109,-0.037,-0.109,51.7,-5,-147.9,0,2018,5,10,16,6,28.549,0.7724,-0.4808,0.335,0.2446
-0.12,-0.101,-0.14,52.5,-26.3,-149.6,0,2018,5,10,16,6,28.568,0.7672,-0.4721,0.3397,0.2701
-0.165,-0.162,-0.111,52.5,-25.4,-148.9,0,2018,5,10,16,6,28.605,0.7607,-0.4643,0.3434,0.2959
-0.213,-0.217,-0.063,51.6,-4.2,-150.3,0,2018,5,10,16,6,28.626,0.7545,-0.4546,0.3477,0.3209
-0.206,-0.201,-0.117,47.4,25.2,-153.9,0,2018,5,10,16,6,28.63,0.7497,-0.4408,0.3538,0.344
-0.131,-0.061,-0.128,47,20.1,-161.4,0,2018,5,10,16,6,28.649,0.7449,-0.4245,0.3613,0.3663
-0.085,-0.101,-0.066,57.7,-22.2,-172.2,0,2018,5,10,16,6,28.67,0.7371,-0.411,0.3663,0.3917
-0.143,-0.054,0.017,63.4,-44.6,-166.9,0,2018,5,10,16,6,28.691,0.7267,-0.4007,0.3674,0.4196
-0.178,0.079,0.239,54.8,-56.5,-156.1,0,2018,5,10,16,6,28.729,0.715,-0.392,0.3674,0.4472
-0.195,0.303,0.121,51.1,-84.7,-130.5,0,2018,5,10,16,6,28.749,0.7018,-0.3874,0.3651,0.4732
0.014,0.375,-0.007,49,-86.9,-101.9,1023,2018,5,10,16,6,28.771,0.6893,-0.3866,0.3593,0.4961
-0.101,0.372,-0.062,52.5,-67.3,-72.7,1023,2018,5,10,16,6,28.785,0.6795,-0.3859,0.3522,0.5148
-0.225,0.391,0.044,50.3,-47.9,-37.4,1023,2018,5,10,16,6,28.787,0.6739,-0.3847,0.3445,0.5283
-0.267,0.321,-0.004,36.4,-18.3,-6.1,1023,2018,5,10,16,6,28.824,0.6722,-0.3834,0.3375,0.5357
-0.27,0.173,-0.001,24,9,16.6,1023,2018,5,10,16,6,28.844,0.6746,-0.3811,0.334,0.5366
-0.198,0.037,-0.06,19.1,3.9,31,1023,2018,5,10,16,6,28.847,0.6789,-0.3791,0.3305,0.5348
-0.159,-0.13,-0.195,18,9.2,37.1,1023,2018,5,10,16,6,28.884,0.6836,-0.379,0.3261,0.5316
-0.108,0.017,-0.115,18.1,-9.9,39.4,1023,2018,5,10,16,6,28.906,0.6884,-0.379,0.3219,0.5278
-0.016,-0.079,-0.198,21.4,-23.9,36.3,0,2018,5,10,16,6,28.91,0.6917,-0.3817,0.3154,0.5255
0.021,-0.183,-0.227,28.9,-28.2,31,0,2018,5,10,16,6,28.948,0.6941,-0.3851,0.3075,0.5245
0,-0.166,-0.104,31.7,3.4,22.8,0,2018,5,10,16,6,28.968,0.6973,-0.3854,0.301,0.5238
0.004,0.515,0.191,23,8,27,0,2018,5,10,16,6,28.973,0.7017,-0.3825,0.2969,0.5224
-0.024,0.058,0.107,16.5,-62.8,29.1,0,2018,5,10,16,6,28.993,0.7031,-0.3867,0.2893,0.5217
-0.002,-0.185,-0.043,9,-35.4,21.3,0,2018,5,10,16,6,29.012,0.7027,-0.3931,0.2812,0.5219
0.041,-0.328,-0.015,10.5,3.8,12.5,0,2018,5,10,16,6,29.031,0.7035,-0.3954,0.2774,0.5212
0.022,-0.108,0.08,10.5,52.5,4.9,0,2018,5,10,16,6,29.05,0.7072,-0.3907,0.2785,0.5191
0.021,-0.026,0.115,4.8,76.1,4.9,0,2018,5,10,16,6,29.071,0.7128,-0.3819,0.2826,0.5157
-0.001,0.104,0.098,0,76.4,7.4,0,2018,5,10,16,6,29.093,0.7189,-0.3715,0.2889,0.5114
-0.003,0.128,0.083,-4.3,53.3,9.5,0,2018,5,10,16,6,29.113,0.7237,-0.3641,0.2946,0.5066
0.012,-0.028,0.06,-10.9,48.5,11.2,0,2018,5,10,16,6,29.151,0.7274,-0.3588,0.2989,0.5026
-0.012,0.01,0.112,-25.7,84.2,14.7,0,2018,5,10,16,6,29.171,0.7318,-0.3525,0.3057,0.4965
-0.06,-0.048,0.09,-35.6,99.8,8.8,0,2018,5,10,16,6,29.176,0.7373,-0.3434,0.3165,0.488
0.034,-0.014,-0.024,-37.1,97.9,7.5,0,2018,5,10,16,6,29.196,0.7419,-0.334,0.329,0.4791
0.073,0.004,-0.059,-35.1,78,5.8,0,2018,5,10,16,6,29.217,0.7452,-0.3264,0.3412,0.4707
0.057,0.013,-0.016,-28.5,68.5,2.1,0,2018,5,10,16,6,29.231,0.7474,-0.32,0.3514,0.464
0.056,0.057,-0.015,-26.5,71.6,2.1,0,2018,5,10,16,6,29.268,0.7495,-0.3131,0.3609,0.4581
0.05,0.088,-0.064,-23.1,81.1,6.5,0,2018,5,10,16,6,29.287,0.752,-0.3052,0.3708,0.4513
0.083,0.089,-0.008,-17.7,75.4,7.3,0,2018,5,10,16,6,29.291,0.7554,-0.2964,0.3798,0.444
0.077,0.088,-0.046,-8.8,61.7,8.2,0,2018,5,10,16,6,29.33,0.7582,-0.2885,0.3871,0.4381
0.077,0.049,-0.091,-2.3,46.4,9.8,0,2018,5,10,16,6,29.35,0.7609,-0.2823,0.3919,0.433
0.07,0.032,-0.047,2.9,44.7,11,0,2018,5,10,16,6,29.355,0.7634,-0.2772,0.3955,0.4286
0.033,0.013,-0.039,6.1,44.5,12,0,2018,5,10,16,6,29.374,0.7665,-0.2717,0.3982,0.4242
0.032,0.001,-0.133,10.6,51.6,11.1,0,2018,5,10,16,6,29.411,0.7698,-0.2659,0.4006,0.4196
0.078,0.008,-0.166,11.5,63.6,9.4,0,2018,5,10,16,6,29.431,0.7736,-0.2584,0.4035,0.4145
0.035,-0.018,-0.064,15.4,61.2,4.5,1023,2018,5,10,16,6,29.435,0.7774,-0.2496,0.407,0.4094
0,-0.059,-0.009,17.1,42.2,-1.4,1023,2018,5,10,16,6,29.452,0.7808,-0.2419,0.4083,0.4061
0.001,0.032,-0.053,17,27.5,-4.9,1023,2018,5,10,16,6,29.489,0.7833,-0.236,0.4083,0.4047
0.001,0.103,-0.036,15.6,8.4,-8.2,1023,2018,5,10,16,6,29.51,0.7845,-0.2311,0.4084,0.4052
-0.002,0.007,-0.016,16.8,-21,-15.5,1023,2018,5,10,16,6,29.514,0.7844,-0.2297,0.4065,0.4081
0.004,-0.1,0.001,15.6,-29.5,-19.2,1023,2018,5,10,16,6,29.535,0.7832,-0.2315,0.4028,0.4131
0,-0.079,0.062,13.6,-14.6,-21,0,2018,5,10,16,6,29.574,0.7822,-0.2327,0.3995,0.4174
-0.006,-0.04,0.034,10.3,7.8,-22.8,0,2018,5,10,16,6,29.594,0.7816,-0.2309,0.3979,0.4209
0.032,-0.028,0.04,4.9,24.3,-26.6,0,2018,5,10,16,6,29.598,0.7813,-0.2264,0.3991,0.4229
0.082,-0.054,0.096,3.3,19.9,-31.1,0,2018,5,10,16,6,29.617,0.7806,-0.2211,0.4012,0.4251
0.074,0.052,0.149,2,12.4,-31.8,0,2018,5,10,16,6,29.638,0.7793,-0.2164,0.4029,0.4283
0.082,-0.043,0.066,2.1,14.6,-34.9,0,2018,5,10,16,6,29.658,0.7776,-0.2119,0.4046,0.4318
0.122,-0.092,0.003,2.8,43.3,-39.1,0,2018,5,10,16,6,29.679,0.7762,-0.2056,0.408,0.4344
0.106,0.036,0.038,3.3,48.9,-42.1,0,2018,5,10,16,6,29.694,0.775,-0.196,0.413,0.4362
0.097,-0.035,0.052,5.2,44.1,-44.7,0,2018,5,10,16,6,29.731,0.7734,-0.1865,0.4174,0.4389
0.044,-0.05,0.078,5.1,60.7,-43.2,0,2018,5,10,16,6,29.752,0.7723,-0.1763,0.4219,0.4408
0.059,-0.013,0.007,5.5,80.5,-42.5,0,2018,5,10,16,6,29.756,0.7718,-0.1634,0.428,0.4408
0.061,0.036,-0.026,7.9,85.6,-42.5,0,2018,5,10,16,6,29.776,0.7712,-0.1484,0.4353,0.44
0.02,0.091,0.031,8.2,76.4,-40.7,0,2018,5,10,16,6,29.813,0.7704,-0.1332,0.442,0.4395
-0.003,0.026,0.025,7.6,66.4,-39.6,0,2018,5,10,16,6,29.833,0.7695,-0.1194,0.4471,0.4399
0.009,0,0.004,5.9,69.4,-36.9,0,2018,5,10,16,6,29.837,0.7685,-0.1067,0.4522,0.4397
0.013,0.028,0.005,6.2,65,-35.7,0,2018,5,10,16,6,29.858,0.7675,-0.0941,0.4573,0.4391
-0.001,-0.026,0.001,5.6,62.2,-34.7,0,2018,5,10,16,6,29.878,0.7663,-0.0824,0.4619,0.4388
-0.036,0.008,0.005,1.9,72.2,-30.2,0,2018,5,10,16,6,29.901,0.7651,-0.0705,0.4667,0.4378
-0.029,0.042,-0.002,-1.3,74.7,-27.3,0,2018,5,10,16,6,29.917,0.7637,-0.0576,0.4725,0.4358
0,-0.03,-0.038,-0.7,68,-27.7,0,2018,5,10,16,6,29.956,0.7622,-0.0457,0.4785,0.4333
-0.02,-0.04,0.016,-1.2,64.1,-26.9,0,2018,5,10,16,6,29.961,0.7607,-0.0351,0.4837,0.4313
-0.043,0,0.057,-4.6,65.8,-24.7,0,2018,5,10,16,6,29.976,0.7591,-0.0243,0.4885,0.4295
-0.004,-0.006,0,-6.3,69.1,-24.7,0,2018,5,10,16,6,29.999,0.7571,-0.0135,0.4939,0.4273
0.031,0.003,-0.005,-5.8,76.2,-23.6,0,2018,5,10,16,6,30.018,0.7548,-0.0023,0.5003,0.424
-0.017,0.051,0.016,-5.2,62.9,-24.2,0,2018,5,10,16,6,30.053,0.7523,0.0091,0.5061,0.4214
-0.023,-0.021,0.007,-6.6,52.7,-22,0,2018,5,10,16,6,30.075,0.75,0.0183,0.5107,0.4197
0.014,0.081,0.045,-5.7,45.3,-19.4,0,2018,5,10,16,6,30.08,0.7477,0.0264,0.5148,0.4184
0.033,0.098,0.062,-2.2,27.2,-16.9,1023,2018,5,10,16,6,30.099,0.7456,0.0332,0.5177,0.418
-0.014,0.079,0.074,-0.2,8.6,-11.8,1023,2018,5,10,16,6,30.119,0.7443,0.0373,0.5185,0.4189
0.008,0.028,0.023,0,2.9,-6,1023,2018,5,10,16,6,30.136,0.7437,0.0391,0.5183,0.4202
0.021,0.047,0.061,-0.2,10.8,-1.6,1023,2018,5,10,16,6,30.172,0.7434,0.0405,0.5187,0.4201
0.002,0.013,0.06,-0.6,15.8,3.5,1023,2018,5,10,16,6,30.191,0.7435,0.0424,0.5193,0.419
0.003,0.048,0.033,-0.7,23.6,8,1023,2018,5,10,16,6,30.195,0.7437,0.0446,0.5205,0.4169
-0.005,0.068,0.02,0,28.5,12.7,1023,2018,5,10,16,6,30.238,0.7442,0.0476,0.5224,0.4134
0,0.039,-0.041,1.9,29.2,16.9,1023,2018,5,10,16,6,30.258,0.7449,0.0505,0.5246,0.4089
-0.011,-0.002,-0.074,4.7,30.5,19.9,1023,2018,5,10,16,6,30.262,0.7459,0.0531,0.5269,0.4037
-0.036,0.021,-0.048,7.8,35.7,23.4,1023,2018,5,10,16,6,30.28,0.7474,0.0561,0.529,0.3978
-0.016,0.019,-0.045,12.1,44.1,25.5,1023,2018,5,10,16,6,30.3,0.7493,0.0601,0.5309,0.3909
-0.019,-0.006,-0.039,15.4,52.9,26.7,0,2018,5,10,16,6,30.322,0.7517,0.0653,0.5329,0.3828
-0.039,-0.018,-0.033,17.1,59.6,29.4,0,2018,5,10,16,6,30.341,0.7542,0.0714,0.5349,0.3738
-0.034,-0.02,-0.074,20.8,61.2,30.9,0,2018,5,10,16,6,30.377,0.757,0.0779,0.5369,0.3638
-0.02,0.021,-0.068,24.4,56.9,32,0,2018,5,10,16,6,30.397,0.7599,0.0846,0.5385,0.3538
-0.014,0.022,-0.027,25.3,51.1,32.2,0,2018,5,10,16,6,30.401,0.7631,0.0906,0.5392,0.3444
-0.024,0.008,0.002,23.9,49.4,33.1,0,2018,5,10,16,6,30.422,0.7664,0.096,0.5393,0.3353
-0.01,0.006,0.012,22.1,51,35.2,0,2018,5,10,16,6,30.44,0.7696,0.1009,0.5395,0.3259
-0.014,-0.03,0.007,20.4,55.1,36.8,0,2018,5,10,16,6,30.462,0.7728,0.1058,0.5401,0.3158
-0.016,0.007,0.007,19.2,62.4,38.6,0,2018,5,10,16,6,30.481,0.7756,0.1114,0.5412,0.3049
-0.03,0.018,0.011,18.1,59.1,38.4,0,2018,5,10,16,6,30.501,0.7781,0.1174,0.5424,0.294
-0.022,0.022,0.002,17.9,48,37.4,0,2018,5,10,16,6,30.52,0.7805,0.1223,0.5433,0.2838
-0.004,0.028,-0.004,16.3,39.4,37.3,0,2018,5,10,16,6,30.559,0.7828,0.1258,0.5437,0.2748
-0.021,0.004,0.015,13.6,41.9,37.9,0,2018,5,10,16,6,30.58,0.7851,0.1285,0.5442,0.266
-0.021,-0.023,0.017,10.8,52.7,40.2,0,2018,5,10,16,6,30.584,0.787,0.1319,0.5453,0.2563
0.009,0.031,0.003,9.2,58.2,41.1,0,2018,5,10,16,6,30.605,0.7884,0.1363,0.5473,0.2453
0.031,0.035,-0.003,8.2,52.5,40.7,0,2018,5,10,16,6,30.624,0.7894,0.1407,0.5495,0.2345
-0.018,-0.001,0.04,6.1,45.4,40.4,0,2018,5,10,16,6,30.64,0.7904,0.144,0.5513,0.2244
0,0.035,0.021,4.2,41.1,41.9,0,2018,5,10,16,6,30.675,0.7915,0.1463,0.5529,0.2149
0.029,0.054,-0.018,2.9,39.1,44.8,0,2018,5,10,16,6,30.694,0.7922,0.1481,0.5551,0.2056
0.017,0.027,0.003,3.6,37.1,45.7,0,2018,5,10,16,6,30.702,0.7928,0.1494,0.5572,0.1961
-0.008,0.011,0.011,4.5,35.4,47.3,0,2018,5,10,16,6,30.742,0.7937,0.1501,0.559,0.1866
-0.036,-0.013,0.019,3.9,37.8,48.4,0,2018,5,10,16,6,30.746,0.7947,0.1507,0.5606,0.1767
-0.014,0.023,-0.012,5.1,32.7,48.3,0,2018,5,10,16,6,30.763,0.7957,0.1512,0.5622,0.1668
0.03,0.036,-0.014,7.1,22.8,48.2,0,2018,5,10,16,6,30.8,0.7967,0.1507,0.5635,0.1575
-0.038,-0.039,0.05,8,24,48,1023,2018,5,10,16,6,30.821,0.7982,0.1493,0.5642,0.1487
-0.072,-0.065,0.042,8.1,38.6,49,1023,2018,5,10,16,6,30.825,0.7999,0.1486,0.5645,0.1388
-0.022,-0.026,-0.018,9.3,46.7,49,1023,2018,5,10,16,6,30.864,0.8009,0.1499,0.5654,0.1273
-0.034,-0.059,0.001,11.4,46.3,44.4,1023,2018,5,10,16,6,30.868,0.8016,0.1518,0.5663,0.1162
-0.107,-0.129,0.099,10.3,53,40.8,1023,2018,5,10,16,6,30.884,0.8024,0.1545,0.5667,0.1052
-0.126,-0.154,0.06,10,68.2,39.1,1023,2018,5,10,16,6,30.904,0.8023,0.1593,0.5674,0.0937
-0.118,-0.151,0.053,8.3,72.7,34.6,1023,2018,5,10,16,6,30.924,0.8017,0.1659,0.5683,0.0815
-0.155,-0.143,0.074,5.8,64.1,26,1023,2018,5,10,16,6,30.943,0.8007,0.1726,0.5691,0.0706
-0.21,-0.228,0.097,0.8,58.3,15.2,1023,2018,5,10,16,6,30.965,0.7994,0.1791,0.57,0.0619
-0.231,-0.312,0.134,-10,59.4,4.4,1023,2018,5,10,16,6,30.986,0.7971,0.1863,0.5716,0.0552
-0.225,-0.219,0.134,-18.1,43.4,-8.1,1023,2018,5,10,16,6,31.023,0.7937,0.1939,0.5742,0.0511
-0.213,-0.194,0.1,-24,0.4,-24.3,1023,2018,5,10,16,6,31.028,0.7907,0.1984,0.5767,0.0523
-0.245,-0.213,0.086,-31.5,-37.8,-39.9,0,2018,5,10,16,6,31.045,0.7882,0.1986,0.5793,0.0604
-0.216,-0.194,0.029,-32.8,-68.3,-56.9,0,2018,5,10,16,6,31.083,0.7861,0.1957,0.5815,0.0741
-0.149,-0.277,0.037,-36.6,-80.9,-75.6,0,2018,5,10,16,6,31.104,0.7842,0.1913,0.5829,0.0923
-0.155,-0.296,0.09,-41.8,-65.1,-91.1,0,2018,5,10,16,6,31.108,0.7811,0.189,0.5842,0.1129
-0.201,-0.249,0.094,-44.6,-51.2,-105.1,0,2018,5,10,16,6,31.123,0.7763,0.1905,0.5857,0.1337
-0.109,-0.193,-0.003,-45.6,-53.6,-117.9,0,2018,5,10,16,6,31.164,0.7705,0.1938,0.5868,0.1559
-0.039,-0.163,-0.061,-40.4,-59.6,-129.7,0,2018,5,10,16,6,31.182,0.7644,0.1966,0.5871,0.1794
-0.049,-0.113,-0.048,-35.9,-60,-138.6,0,2018,5,10,16,6,31.186,0.758,0.2004,0.586,0.2044
-0.067,-0.088,-0.045,-30.7,-52.9,-146,0,2018,5,10,16,6,31.207,0.7511,0.2057,0.5835,0.23
0.006,0.153,-0.144,-22.2,-49.1,-145.3,0,2018,5,10,16,6,31.227,0.7437,0.2131,0.5798,0.2552
0.105,0.295,-0.19,-12.4,-54.2,-139.9,0,2018,5,10,16,6,31.247,0.7373,0.22,0.5741,0.2798
0.075,0.204,-0.184,-2,-48.7,-131.9,0,2018,5,10,16,6,31.267,0.7317,0.2263,0.567,0.303
0.028,0.157,-0.164,6.1,-31,-123.2,0,2018,5,10,16,6,31.307,0.7265,0.2339,0.5593,0.3232
0.006,0.134,-0.2,12.9,-11.4,-113.3,0,2018,5,10,16,6,31.327,0.7213,0.2433,0.5519,0.3401
0.035,0.144,-0.189,16.3,9.4,-104.4,0,2018,5,10,16,6,31.331,0.7161,0.2546,0.5453,0.3533
0.02,0.151,-0.09,16.1,29.7,-97.4,0,2018,5,10,16,6,31.346,0.7103,0.2677,0.5399,0.3634
-0.01,0.142,-0.032,14.8,48.6,-89.9,0,2018,5,10,16,6,31.365,0.7033,0.283,0.5363,0.3709
0.002,0.237,-0.006,12.1,52.7,-83.8,0,2018,5,10,16,6,31.385,0.6956,0.2993,0.5337,0.3761
0.036,0.286,0,10,33.2,-77.7,0,2018,5,10,16,6,31.423,0.6883,0.3136,0.5309,0.3818
-0.005,0.15,-0.017,5.2,21.6,-68.2,0,2018,5,10,16,6,31.443,0.6823,0.3245,0.5276,0.3881
-0.019,0.262,0.039,-0.8,20.1,-54.9,0,2018,5,10,16,6,31.447,0.6765,0.3336,0.5252,0.3937
0.051,0.37,0.093,-2.4,-15.3,-43.9,0,2018,5,10,16,6,31.468,0.6725,0.3388,0.5224,0.3997
0.056,0.323,0.127,-3.2,-48,-36.9,0,2018,5,10,16,6,31.49,0.6711,0.3388,0.5176,0.4085
-0.05,0.23,0.187,-4.6,-76.5,-31.1,0,2018,5,10,16,6,31.509,0.6719,0.3344,0.5112,0.4185
-0.024,0.23,0.206,-12.1,-115.3,-26.1,0,2018,5,10,16,6,31.546,0.6745,0.3249,0.5034,0.4311
-0.011,0.055,0.13,-15.6,-134.6,-25.5,0,2018,5,10,16,6,31.55,0.6786,0.3109,0.4933,0.4465
-0.014,-0.115,0.063,-19.1,-121,-23.6,1023,2018,5,10,16,6,31.565,0.6824,0.2955,0.483,0.462
-0.08,-0.12,0.091,-22.6,-93.5,-24.8,1023,2018,5,10,16,6,31.604,0.6839,0.2833,0.4757,0.4749
-0.147,0.016,0.163,-25.1,-125.1,-33.9,1023,2018,5,10,16,6,31.625,0.6844,0.2711,0.4681,0.4886
-0.102,-0.198,0.061,-25.5,-162.4,-45.6,1023,2018,5,10,16,6,31.629,0.6854,0.2545,0.4564,0.5069
0.021,-0.05,-0.063,-24.4,-177.3,-52.4,1023,2018,5,10,16,6,31.648,0.6862,0.2357,0.442,0.5273
0.053,-0.019,-0.099,-15.4,-221,-61.1,1023,2018,5,10,16,6,31.686,0.6869,0.2142,0.4242,0.5497
0.045,-0.275,-0.148,-8.6,-229.4,-68.2,1023,2018,5,10,16,6,31.706,0.6875,0.1899,0.4007,0.5748
0.078,-0.149,-0.132,-2.9,-187.4,-64.9,1023,2018,5,10,16,6,31.711,0.6866,0.1687,0.3777,0.5977
0.046,-0.031,-0.032,3.7,-108.5,-54.4,1023,2018,5,10,16,6,31.732,0.6845,0.1545,0.3607,0.6142
0,0.202,0.074,-1.4,-26.1,-41.4,1023,2018,5,10,16,6,31.751,0.6809,0.1503,0.3525,0.624
0.05,0.426,0.137,-7,0,-23.6,0,2018,5,10,16,6,31.771,0.677,0.151,0.3512,0.6288
0.017,0.415,0.054,-8.1,8.3,1.9,0,2018,5,10,16,6,31.791,0.6749,0.1514,0.3522,0.6304
0.045,0.438,0.005,-3.2,3.6,22.6,0,2018,5,10,16,6,31.829,0.6757,0.1509,0.3541,0.6286
0.079,0.293,-0.029,-1.5,-7.1,33.9,0,2018,5,10,16,6,31.847,0.6787,0.1485,0.3547,0.6255
0.099,0.16,-0.003,-2,-10.8,38.4,0,2018,5,10,16,6,31.852,0.6825,0.1452,0.3551,0.6219
0.09,0.077,0.062,-3.8,-7.3,38.9,0,2018,5,10,16,6,31.87,0.6867,0.1411,0.356,0.6177
0.076,0.061,0.065,-8.4,13.8,40.3,0,2018,5,10,16,6,31.89,0.6905,0.138,0.3583,0.6129
0.055,0.007,0.048,-13.7,46.8,40.1,0,2018,5,10,16,6,31.926,0.6933,0.1376,0.364,0.6064
0.029,0.064,0.074,-19,64.6,40.5,0,2018,5,10,16,6,31.948,0.695,0.1402,0.3732,0.5982
0.034,0.127,0.069,-22.3,52.1,42.8,0,2018,5,10,16,6,31.952,0.6962,0.1426,0.383,0.59
-0.005,0.093,0.097,-24.8,43,47.5,0,2018,5,10,16,6,31.972,0.6977,0.143,0.3916,0.5824
-0.036,0.039,0.057,-27.1,42.5,50.4,0,2018,5,10,16,6,31.993,0.6996,0.1425,0.3998,0.5747
0.034,0.044,0.018,-28,38.8,53.3,0,2018,5,10,16,6,32.03,0.7016,0.1412,0.4084,0.5665
0.019,0.081,0.003,-28.1,38.9,58.9,0,2018,5,10,16,6,32.05,0.7039,0.1393,0.4174,0.5575
0,0.101,0.003,-26.4,35.4,62.9,0,2018,5,10,16,6,32.054,0.7065,0.1371,0.4262,0.548
0.025,0.156,-0.003,-24.2,26.6,67,0,2018,5,10,16,6,32.068,0.7095,0.1344,0.4341,0.5384
0.037,0.116,-0.013,-23.1,14.7,70.2,0,2018,5,10,16,6,32.11,0.7132,0.1299,0.4411,0.529
0.024,0.115,-0.035,-22.6,7.5,73.8,0,2018,5,10,16,6,32.13,0.7174,0.1239,0.4471,0.5195
0.036,0.096,-0.086,-21.2,3.6,78,0,2018,5,10,16,6,32.134,0.7218,0.1172,0.4528,0.51
0.05,0.123,-0.086,-18.9,8.3,82.1,0,2018,5,10,16,6,32.153,0.7272,0.1097,0.4575,0.4997
0.095,0.102,-0.104,-15.2,22.2,87.8,0,2018,5,10,16,6,32.173,0.7329,0.1032,0.4625,0.4879
0.103,0.06,-0.097,-8.5,39.6,90.1,0,2018,5,10,16,6,32.192,0.739,0.0991,0.4684,0.4738
0.064,0.009,-0.034,-1.3,35.7,90.6,1023,2018,5,10,16,6,32.214,0.7451,0.096,0.4743,0.4587
0.06,0.094,-0.002,2,38.3,95.3,1023,2018,5,10,16,6,32.251,0.7517,0.093,0.4792,0.4432
0.081,0.088,0.015,5.4,38.7,97.7,1023,2018,5,10,16,6,32.27,0.7586,0.0903,0.4837,0.4269
0.024,-0.057,-0.013,7.4,59.6,99,1023,2018,5,10,16,6,32.274,0.7656,0.0885,0.4881,0.4093
0.016,0.04,0.005,10.5,77.1,98.5,1023,2018,5,10,16,6,32.293,0.7723,0.0898,0.4938,0.3893
0.044,0.17,0.054,15,37.2,94.4,1023,2018,5,10,16,6,32.312,0.7786,0.0911,0.4976,0.3711
-0.03,0.015,0.052,14.9,-11.4,92.7,1023,2018,5,10,16,6,32.334,0.7856,0.0858,0.4975,0.3575
-0.03,-0.072,0.017,14.3,-27.7,91.6,1023,2018,5,10,16,6,32.354,0.7932,0.0751,0.495,0.3465
-0.006,-0.106,0.045,13,-3.2,93.8,1023,2018,5,10,16,6,32.39,0.8006,0.0647,0.4929,0.3344
-0.09,-0.181,0.057,11.2,42.7,94.2,1023,2018,5,10,16,6,32.409,0.8069,0.06,0.4934,0.3189
-0.043,-0.147,0.011,12.1,87.5,93.6,1023,2018,5,10,16,6,32.413,0.8124,0.0619,0.4964,0.2993
0.043,-0.114,-0.082,19.9,116.5,90.1,1023,2018,5,10,16,6,32.434,0.8174,0.0689,0.5005,0.2765
0.061,-0.044,-0.012,25.9,148.6,88.6,1023,2018,5,10,16,6,32.454,0.8218,0.0806,0.5047,0.2514
-0.069,0.085,0.098,27.3,154.9,84.6,1023,2018,5,10,16,6,32.493,0.8255,0.0966,0.5085,0.2247
-0.036,0.092,0.118,30.6,103.3,80.3,1023,2018,5,10,16,6,32.515,0.8288,0.1086,0.5105,0.2013
0,-0.219,0.041,32,136.4,81.9,1023,2018,5,10,16,6,32.519,0.832,0.1194,0.5114,0.1784
-0.029,-0.028,0.067,38.7,139.6,80.7,1023,2018,5,10,16,6,32.556,0.8348,0.1335,0.5114,0.1538
0.005,-0.229,-0.049,50.5,181.3,77,0,2018,5,10,16,6,32.576,0.8367,0.1507,0.5109,0.1269
-0.024,0.004,-0.053,64.8,165.9,65.2,0,2018,5,10,16,6,32.58,0.8381,0.1718,0.5082,0.0986
-0.038,0.088,0.014,71.2,109.1,58.9,0,2018,5,10,16,6,32.596,0.8406,0.188,0.502,0.0764
-0.054,-0.064,0.036,74.4,86.5,53.9,0,2018,5,10,16,6,32.632,0.8447,0.1977,0.4939,0.0578
-0.081,-0.181,0.09,74.4,94.5,49.1,0,2018,5,10,16,6,32.652,0.8484,0.2069,0.4853,0.0404
-0.133,-0.243,0.123,68.6,115.5,45,0,2018,5,10,16,6,32.656,0.8507,0.2191,0.4771,0.0223
-0.109,-0.188,0.038,62.8,125.7,39.1,0,2018,5,10,16,6,32.694,0.8513,0.2341,0.4694,0.0038
-0.085,-0.172,-0.041,61.7,112.4,29.5,0,2018,5,10,16,6,32.713,0.8512,0.2492,0.4616,-0.0134
-0.05,-0.206,-0.043,61.6,98.8,20.2,0,2018,5,10,16,6,32.718,0.8514,0.2624,0.4531,-0.028
-0.176,-0.178,0.087,54,100.4,10.5,0,2018,5,10,16,6,32.739,0.8513,0.2755,0.4445,-0.0407
-0.176,-0.138,0.042,43.9,106.4,3.9,0,2018,5,10,16,6,32.757,0.8499,0.29,0.4368,-0.0522
-0.053,-0.315,-0.207,18,37.6,-5.4,0,2018,5,10,16,6,32.796,0.8482,0.3046,0.4283,-0.0642
-0.219,0.417,0.081,27,66.4,2.8,0,2018,5,10,16,6,32.817,0.8462,0.3159,0.423,-0.0715
-0.119,0.702,-0.058,15.9,12.8,27.2,0,2018,5,10,16,6,32.821,0.8453,0.3209,0.4198,-0.0783
-0.268,-0.108,-0.144,1.3,-54.6,13.6,0,2018,5,10,16,6,32.835,0.847,0.3145,0.4207,-0.0811
-0.14,-0.049,-0.05,1.8,-30.2,4.6,0,2018,5,10,16,6,32.876,0.8494,0.3074,0.4215,-0.0789
-0.109,0.034,0.01,-1.6,1.7,3.3,0,2018,5,10,16,6,32.895,0.8504,0.3051,0.4213,-0.0781
-0.119,0.086,0.059,-6.8,28.3,10.4,0,2018,5,10,16,6,32.899,0.8491,0.3072,0.4219,-0.0801
-0.112,-0.12,0.001,-2.5,47.2,5,0,2018,5,10,16,6,32.919,0.8468,0.312,0.4224,-0.0839
-0.164,0.196,0.164,-12.1,-9.2,-2.8,0,2018,5,10,16,6,32.957,0.8448,0.3153,0.4234,-0.086
-0.05,-0.159,0.051,1.5,-28.9,-14.7,0,2018,5,10,16,6,32.961,0.8463,0.3116,0.4241,-0.0821
-0.052,0.025,-0.025,5.8,-21.6,-20.7,0,2018,5,10,16,6,32.981,0.8481,0.3091,0.423,-0.0777
0.033,-0.054,0,2.3,-20.1,-19.7,0,2018,5,10,16,6,32.999,0.8499,0.3073,0.4215,-0.0733
-0.097,0.02,-0.055,5.4,-5.5,-18.4,1023,2018,5,10,16,6,33.018,0.8511,0.3067,0.4201,-0.0701
-0.007,0.049,-0.035,3,-12.1,-20,1023,2018,5,10,16,6,33.036,0.8519,0.3075,0.4185,-0.0664
-0.046,-0.006,-0.003,2.3,-13.6,-21,1023,2018,5,10,16,6,33.057,0.853,0.3072,0.4171,-0.0622
-0.08,-0.048,0.074,-0.3,-11.3,-25.2,1023,2018,5,10,16,6,33.095,0.8544,0.3066,0.4154,-0.058
-0.081,-0.049,0.044,-3.2,-8.2,-28.1,1023,2018,5,10,16,6,33.117,0.8554,0.3066,0.414,-0.0529
-0.056,-0.049,0.055,-7.9,1.3,-31.1,1023,2018,5,10,16,6,33.121,0.8558,0.3081,0.4126,-0.0483
-0.073,-0.063,0.028,-8.9,1.1,-38.3,1023,2018,5,10,16,6,33.139,0.8559,0.3102,0.4114,-0.0427
-0.129,-0.12,0.132,-13.7,-0.3,-48.3,1023,2018,5,10,16,6,33.178,0.8555,0.3131,0.4106,-0.0355
-0.063,-0.087,0.137,-18.1,9.5,-53.5,1023,2018,5,10,16,6,33.197,0.8544,0.3176,0.4101,-0.0273
-0.053,-0.046,0.119,-21.5,12.4,-57.7,1023,2018,5,10,16,6,33.201,0.8526,0.3234,0.4099,-0.0185
-0.04,-0.038,0.079,-24.7,6,-58.6,1023,2018,5,10,16,6,33.238,0.8512,0.3283,0.4092,-0.0093
-0.063,-0.011,0.066,-27,-5.3,-59.5,1023,2018,5,10,16,6,33.259,0.8498,0.3321,0.4091,0.0008
-0.104,-0.028,0.035,-27.9,-19.2,-62,1023,2018,5,10,16,6,33.263,0.849,0.3343,0.4088,0.0126
-0.119,-0.071,0.03,-29.3,-24.8,-67.8,1023,2018,5,10,16,6,33.283,0.8486,0.3351,0.4085,0.0256
-0.118,-0.021,-0.007,-31.2,-33.5,-70,1023,2018,5,10,16,6,33.303,0.8481,0.3355,0.4079,0.04
-0.177,-0.08,-0.026,-34.1,-34.4,-72.7,1023,2018,5,10,16,6,33.342,0.8475,0.3352,0.4076,0.0553
-0.148,-0.081,0.002,-33.5,-26.2,-74.6,1023,2018,5,10,16,6,33.362,0.8465,0.3354,0.4071,0.0708
-0.184,-0.106,0.027,-36.8,0,-74.1,0,2018,5,10,16,6,33.366,0.8439,0.3382,0.4076,0.0849
-0.196,-0.01,0.056,-43.7,23,-71.3,0,2018,5,10,16,6,33.381,0.839,0.3448,0.4094,0.0969
-0.219,0.054,0.071,-56.3,27.6,-66.9,0,2018,5,10,16,6,33.419,0.8325,0.3528,0.4129,0.1082
-0.262,0.079,0.055,-70.5,13.5,-60.3,0,2018,5,10,16,6,33.439,0.8253,0.3593,0.4186,0.1198
-0.277,0.085,0.032,-81.3,-9.2,-52.7,0,2018,5,10,16,6,33.443,0.8184,0.3619,0.4261,0.1326
-0.315,0.049,0.064,-92.7,-27.7,-44.5,0,2018,5,10,16,6,33.48,0.8118,0.3608,0.435,0.1465
-0.316,-0.01,0.043,-100.8,-42.8,-35.7,0,2018,5,10,16,6,33.502,0.8055,0.3562,0.4452,0.1609
-0.225,0.059,0.017,-101.5,-58,-27.2,0,2018,5,10,16,6,33.506,0.7998,0.3484,0.4559,0.1757
-0.334,-0.042,0.051,-105.6,-51.3,-16.5,0,2018,5,10,16,6,33.525,0.794,0.3392,0.4673,0.1895
-0.392,0.018,0.045,-116.2,-40.2,-0.9,0,2018,5,10,16,6,33.562,0.7872,0.33,0.4805,0.201
-0.33,0.058,-0.031,-125.2,-46.7,18.9,0,2018,5,10,16,6,33.566,0.7794,0.3191,0.4962,0.2104
-0.049,0.118,-0.163,-108.7,-77.5,33,0,2018,5,10,16,6,33.584,0.7734,0.304,0.5114,0.2187
-0.068,0.079,-0.217,-87.3,-109.4,41.3,0,2018,5,10,16,6,33.602,0.7709,0.2839,0.5227,0.2272
-0.139,-0.022,-0.154,-74.5,-115.8,51.2,0,2018,5,10,16,6,33.64,0.7709,0.261,0.531,0.2355
-0.086,-0.151,-0.189,-70.5,-102.4,68.4,0,2018,5,10,16,6,33.66,0.7712,0.2377,0.539,0.241
0.22,-0.015,-0.294,-60.4,-96.5,89.2,0,2018,5,10,16,6,33.664,0.772,0.2143,0.547,0.2424
0.195,0.071,-0.313,-40.8,-106.6,103.9,0,2018,5,10,16,6,33.684,0.7748,0.1892,0.553,0.2408
0.021,-0.023,-0.203,-27.6,-118.6,113.7,0,2018,5,10,16,6,33.705,0.7795,0.162,0.556,0.2383
0.119,-0.071,-0.256,-24.6,-139.7,123.5,1023,2018,5,10,16,6,33.726,0.7851,0.1319,0.5574,0.2353
0.3,0.018,-0.39,-14.3,-184.4,128.1,1023,2018,5,10,16,6,33.747,0.7915,0.0966,0.556,0.2343
0.149,-0.061,-0.387,-4.3,-218.9,127,1023,2018,5,10,16,6,33.766,0.7986,0.0554,0.5505,0.2365
0.09,-0.256,-0.441,-3.8,-194.1,130.5,1023,2018,5,10,16,6,33.811,0.8049,0.0134,0.543,0.2386
0.165,-0.29,-0.411,-4,-138.4,137.4,1023,2018,5,10,16,6,33.814,0.81,-0.0227,0.5368,0.2347
0.202,-0.26,-0.113,2.2,-97.2,136.1,0,2018,5,10,16,6,33.823,0.8147,-0.0518,0.5316,0.2254
0.162,-0.109,-0.085,4.5,-85.7,130.7,0,2018,5,10,16,6,33.861,0.8192,-0.0767,0.526,0.2147
0.231,0.12,-0.137,3.1,-110.3,126.4,0,2018,5,10,16,6,33.879,0.8226,-0.1022,0.5205,0.2046
0.28,0.33,-0.196,-0.1,-165.6,127.9,0,2018,5,10,16,6,33.882,0.8242,-0.1336,0.5127,0.1993
0.16,0.187,-0.179,3.8,-207.4,143.8,0,2018,5,10,16,6,33.919,0.8239,-0.173,0.5025,0.1964
0.177,-0.037,-0.041,14.4,-221.6,153.8,0,2018,5,10,16,6,33.94,0.8221,-0.2172,0.4891,0.194
0.183,-0.049,-0.036,20.5,-196.3,165.8,0,2018,5,10,16,6,33.943,0.8197,-0.2605,0.4735,0.1894
0.08,0.016,-0.006,20.3,-181.6,191.9,0,2018,5,10,16,6,33.981,0.8178,-0.3009,0.4563,0.1798
0.025,-0.224,-0.204,26.7,-183.5,194,0,2018,5,10,16,6,34.001,0.815,-0.3419,0.4367,0.1676
-0.007,-0.312,-0.223,28.3,-180.8,188.2,0,2018,5,10,16,6,34.006,0.811,-0.3809,0.4157,0.1557
-0.095,-0.353,-0.051,26.2,-189.2,180.1,0,2018,5,10,16,6,34.042,0.8048,-0.4194,0.3941,0.1447
-0.053,-0.402,-0.025,22.4,-177.4,166.3,0,2018,5,10,16,6,34.061,0.7964,-0.4564,0.373,0.1348
-0.053,-0.43,0.177,12.8,-123.9,156.2,0,2018,5,10,16,6,34.064,0.7886,-0.4872,0.3538,0.1238
-0.063,-0.491,0.558,-16.8,-49.4,148.9,0,2018,5,10,16,6,34.104,0.7843,-0.5081,0.339,0.108
-0.057,-0.219,0.517,-57,-8,137.1,0,2018,5,10,16,6,34.124,0.7825,-0.5201,0.331,0.0862
-0.067,0.11,0.419,-86.9,-56,107.7,0,2018,5,10,16,6,34.128,0.7774,-0.5318,0.3295,0.0641
0.106,0.036,0.454,-106.4,-107.2,76.3,0,2018,5,10,16,6,34.147,0.7644,-0.5497,0.3333,0.0479
0.176,-0.029,0.338,-119.3,-72.4,65.5,0,2018,5,10,16,6,34.166,0.7487,-0.5674,0.3409,0.0333
0.296,-0.014,0.122,-118.8,10.5,59.2,0,2018,5,10,16,6,34.205,0.739,-0.5752,0.3503,0.0148
0.329,0.124,-0.036,-97.5,42.1,56,0,2018,5,10,16,6,34.227,0.7354,-0.5748,0.3585,-0.0054
0.371,0.148,-0.121,-62.4,33.6,47,0,2018,5,10,16,6,34.231,0.7343,-0.5728,0.3634,-0.0226
0.462,0.22,-0.147,-27.3,18.2,38.4,0,2018,5,10,16,6,34.244,0.7337,-0.5721,0.3647,-0.0338
0.477,0.138,-0.202,5.8,23.8,31.1,0,2018,5,10,16,6,34.283,0.7348,-0.5718,0.3623,-0.0405
0.395,0.001,-0.211,37.1,46.6,23,0,2018,5,10,16,6,34.303,0.7396,-0.5691,0.3564,-0.0439
0.389,0.093,-0.173,59.8,63.3,16.3,0,2018,5,10,16,6,34.308,0.7481,-0.5633,0.3476,-0.045
0.345,0.072,-0.004,74.8,68.2,9.1,0,2018,5,10,16,6,34.328,0.7585,-0.5561,0.3367,-0.0437
0.313,-0.088,0.097,77.1,78.3,2.2,0,2018,5,10,16,6,34.347,0.7699,-0.5473,0.3254,-0.0415
0.437,-0.009,0.023,81.1,63.8,-12.1,0,2018,5,10,16,6,34.387,0.7814,-0.5374,0.3146,-0.0374
0.579,0.112,-0.084,86.4,20.2,-24.6,0,2018,5,10,16,6,34.408,0.7899,-0.5312,0.3047,-0.0293
0.433,-0.107,-0.044,90.7,-1,-37.1,1023,2018,5,10,16,6,34.412,0.7952,-0.5292,0.2952,-0.0172
0.248,-0.617,0.081,92.2,13.5,-63.5,1023,2018,5,10,16,6,34.43,0.8001,-0.5266,0.2872,-0.0018
0.355,-0.758,0.028,90.5,53.5,-83.2,1023,2018,5,10,16,6,34.451,0.8072,-0.5187,0.2812,0.0148
0.422,-0.603,-0.134,88,76.7,-105.7,1023,2018,5,10,16,6,34.471,0.8172,-0.5041,0.2774,0.0328
0.333,-0.361,-0.202,89,83.5,-125.2,1023,2018,5,10,16,6,34.488,0.8275,-0.4863,0.2754,0.0534
0.154,-0.232,-0.161,90.9,84.1,-137.6,1023,2018,5,10,16,6,34.508,0.8373,-0.4667,0.2741,0.076
0.136,-0.256,-0.047,93.1,77.2,-144.7,1023,2018,5,10,16,6,34.546,0.846,-0.4466,0.2732,0.1003
0.085,-0.404,-0.016,94,81.9,-145.8,1023,2018,5,10,16,6,34.565,0.8534,-0.4264,0.2719,0.1254
-0.088,-0.393,-0.088,92.3,120.2,-142.4,0,2018,5,10,16,6,34.569,0.8616,-0.4023,0.2709,0.149
-0.209,-0.25,-0.182,86.9,150.8,-143.3,0,2018,5,10,16,6,34.606,0.8711,-0.3723,0.2709,0.1702
-0.081,-0.184,-0.123,85.8,151.4,-152.3,0,2018,5,10,16,6,34.627,0.8802,-0.3389,0.2718,0.1908
-0.117,-0.252,-0.052,80.1,128.5,-153.3,0,2018,5,10,16,6,34.631,0.8866,-0.307,0.2726,0.2125
-0.196,-0.271,-0.023,67.5,111.4,-146.1,0,2018,5,10,16,6,34.65,0.8904,-0.2786,0.2734,0.234
0.022,-0.19,-0.07,53.4,86.9,-130.9,0,2018,5,10,16,6,34.67,0.892,-0.2538,0.2748,0.2536
0.013,-0.188,0.063,42,56.7,-115.4,0,2018,5,10,16,6,34.689,0.8916,-0.2352,0.2757,0.2712
-0.131,-0.181,0.19,24.3,54.7,-105.7,0,2018,5,10,16,6,34.712,0.89,-0.2198,0.2775,0.2871
-0.131,-0.116,0.125,6.8,49.7,-98.5,0,2018,5,10,16,6,34.732,0.8874,-0.206,0.2819,0.3007
-0.046,-0.136,0.095,-2.6,43.4,-91.4,0,2018,5,10,16,6,34.75,0.884,-0.1944,0.2875,0.313
-0.1,-0.251,0.117,-13.5,65.9,-81.6,0,2018,5,10,16,6,34.769,0.8805,-0.1824,0.2944,0.3234
-0.185,-0.188,0.111,-27.5,109.1,-66.3,0,2018,5,10,16,6,34.791,0.8779,-0.1661,0.3051,0.3294
-0.236,-0.088,0.063,-33,115.7,-55.3,0,2018,5,10,16,6,34.812,0.8759,-0.1468,0.3183,0.3313
-0.224,-0.01,0.056,-27,85,-51.3,0,2018,5,10,16,6,34.831,0.8736,-0.1302,0.3302,0.3327
-0.244,-0.002,0.129,-24.8,50,-45.7,0,2018,5,10,16,6,34.853,0.8707,-0.1189,0.339,0.3355
-0.309,-0.1,0.137,-23.8,47.2,-42.8,0,2018,5,10,16,6,34.871,0.8677,-0.1111,0.3464,0.3386
-0.346,-0.159,0.148,-21.7,87.8,-41.1,0,2018,5,10,16,6,34.91,0.865,-0.1002,0.3546,0.3403
-0.374,-0.148,0.122,-26.9,146.9,-34.6,0,2018,5,10,16,6,34.929,0.8633,-0.0813,0.3659,0.3378
-0.362,-0.012,-0.022,-37.9,182.2,-23.5,0,2018,5,10,16,6,34.934,0.8615,-0.0561,0.3811,0.3306
-0.302,0.114,-0.157,-44.9,178.5,-11.3,0,2018,5,10,16,6,34.95,0.8591,-0.0299,0.3981,0.32
-0.257,0.179,-0.087,-42.3,136.3,-0.3,0,2018,5,10,16,6,34.987,0.8563,-0.0082,0.4135,0.3092
-0.32,0.074,-0.091,-39,85.8,11.4,0,2018,5,10,16,6,35.008,0.8537,0.0052,0.4254,0.3
-0.329,0,-0.143,-38.1,41.5,17.8,0,2018,5,10,16,6,35.012,0.8516,0.0113,0.4344,0.293
-0.2,0.06,-0.195,-36.3,-3.4,21.7,0,2018,5,10,16,6,35.033,0.8497,0.0105,0.441,0.2885
-0.049,0.041,-0.192,-23.2,-34.1,21.5,0,2018,5,10,16,6,35.052,0.8486,0.004,0.4445,0.2866
-0.087,-0.116,-0.123,-18.2,-18.6,18.6,0,2018,5,10,16,6,35.07,0.8479,-0.0036,0.4464,0.2856
-0.066,-0.127,-0.115,-20.3,39.9,21.5,0,2018,5,10,16,6,35.113,0.8475,-0.0054,0.4499,0.2813
0.044,-0.085,-0.211,-16.8,73,24.7,1023,2018,5,10,16,6,35.133,0.8473,0.0007,0.4556,0.2728
0.087,0.079,-0.126,-13.8,72.2,26.1,1023,2018,5,10,16,6,35.137,0.8472,0.009,0.4616,0.2625
0.049,-0.047,-0.056,-3.8,38.2,15.2,1023,2018,5,10,16,6,35.155,0.8472,0.0151,0.466,0.2546
0.032,-0.144,-0.09,4.2,28.6,6.6,1023,2018,5,10,16,6,35.175,0.8473,0.0186,0.4677,0.2505
0.03,-0.135,-0.009,-3.6,27.6,4.4,1023,2018,5,10,16,6,35.192,0.8477,0.022,0.4687,0.2474
-0.036,-0.05,0.092,-11,31.8,5.5,1023,2018,5,10,16,6,35.229,0.8472,0.0257,0.471,0.2441
-0.034,0.071,0.086,-11.3,0.7,0.2,1023,2018,5,10,16,6,35.25,0.8467,0.0282,0.4727,0.2424
-0.094,-0.128,0.017,-9.5,-20.7,-10.3,1023,2018,5,10,16,6,35.254,0.8458,0.026,0.4732,0.2445
-0.047,-0.061,-0.04,-5,-18.2,-16.2,0,2018,5,10,16,6,35.273,0.8451,0.0234,0.473,0.2477
-0.076,-0.072,0.013,-12.9,17.5,-12.4,0,2018,5,10,16,6,35.293,0.844,0.0231,0.4737,0.2501
-0.114,0.133,0.046,-18.2,51.2,-7.4,0,2018,5,10,16,6,35.315,0.8423,0.0289,0.4774,0.2482
-0.055,0.111,0.031,-19.2,50.5,-9.1,0,2018,5,10,16,6,35.335,0.84,0.0365,0.4824,0.2453
-0.078,0.09,0.091,-21.3,53.6,-5.7,0,2018,5,10,16,6,35.37,0.8375,0.0438,0.4875,0.2424
-0.057,0.154,0.045,-19.1,60.3,-1,0,2018,5,10,16,6,35.39,0.8351,0.0518,0.4929,0.2382
-0.036,0.086,-0.052,-16.9,43.8,0.3,0,2018,5,10,16,6,35.394,0.8329,0.0595,0.4977,0.2343
0.049,0.058,-0.126,-12.4,31,3.5,0,2018,5,10,16,6,35.414,0.8309,0.0643,0.5018,0.2313
0.081,0.117,-0.119,-2.8,25,6.6,0,2018,5,10,16,6,35.434,0.8301,0.0678,0.5041,0.2283
0.058,0.134,-0.069,2.5,14.1,11.2,0,2018,5,10,16,6,35.453,0.8303,0.0695,0.5049,0.2251
0.052,0.032,-0.062,6.2,26.3,15.6,0,2018,5,10,16,6,35.489,0.8307,0.0716,0.5056,0.2212
0.049,-0.079,-0.081,11.4,33.9,15.8,0,2018,5,10,16,6,35.511,0.8313,0.0747,0.5066,0.2158
0.062,-0.037,-0.102,18.3,50,18.8,0,2018,5,10,16,6,35.515,0.8324,0.0791,0.5071,0.2088
-0.014,-0.119,-0.027,15.6,72.4,19.6,0,2018,5,10,16,6,35.535,0.8336,0.0861,0.5074,0.2001
-0.047,0.048,0.046,16.7,80.2,21,0,2018,5,10,16,6,35.555,0.8346,0.0963,0.5078,0.1898
-0.113,0.178,0.067,16.4,33.6,20.6,0,2018,5,10,16,6,35.595,0.8358,0.1038,0.5076,0.1814
-0.009,0.075,-0.005,16.4,-22.2,17.7,0,2018,5,10,16,6,35.615,0.8378,0.103,0.5056,0.178
-0.014,-0.096,0.025,15.8,-30.9,14.7,0,2018,5,10,16,6,35.62,0.8404,0.0974,0.5024,0.1781
-0.087,-0.116,0.056,7.3,-9.4,11.6,0,2018,5,10,16,6,35.632,0.8422,0.0935,0.5002,0.1778
-0.114,-0.034,-0.014,1.1,13.1,13.5,0,2018,5,10,16,6,35.654,0.8432,0.0927,0.4994,0.1756
-0.042,0.037,-0.062,-1.6,20.3,13.4,0,2018,5,10,16,6,35.675,0.8432,0.0945,0.5003,0.1723
-0.006,0,-0.015,-2.2,18,11.5,0,2018,5,10,16,6,35.713,0.8429,0.0965,0.5015,0.1692
-0.001,0.004,0.031,-3.8,22.7,10.6,0,2018,5,10,16,6,35.733,0.8426,0.0985,0.5026,0.1658
0.01,0.007,-0.047,-2.7,2.9,6.7,0,2018,5,10,16,6,35.737,0.8423,0.0998,0.5036,0.1637
0.053,-0.005,-0.071,0.8,-14.7,5.7,0,2018,5,10,16,6,35.774,0.8421,0.0982,0.5043,0.1634
0.075,0.003,0.008,3.8,-16.1,5.4,0,2018,5,10,16,6,35.797,0.8425,0.0952,0.5041,0.1639
0.03,0.051,0.089,3.9,-16.1,6.1,0,2018,5,10,16,6,35.801,0.8434,0.0926,0.5028,0.1647
0.028,0.003,0.041,3.8,-16.2,4.9,0,2018,5,10,16,6,35.817,0.8443,0.0901,0.5015,0.1654
0.024,-0.085,-0.017,6.1,-23.8,-1.9,1023,2018,5,10,16,6,35.833,0.8451,0.0866,0.5003,0.1668
-0.026,-0.13,-0.005,8.7,-15.2,-6.1,1023,2018,5,10,16,6,35.871,0.8461,0.0832,0.4986,0.169
-0.033,-0.088,-0.005,9.8,9.2,-9.2,1023,2018,5,10,16,6,35.892,0.8469,0.0829,0.4968,0.17
-0.01,-0.127,-0.041,9.5,37.9,-12.5,1023,2018,5,10,16,6,35.897,0.8473,0.0866,0.496,0.1687
-0.029,-0.081,-0.042,11.2,51.3,-18.8,1023,2018,5,10,16,6,35.916,0.847,0.0946,0.4957,0.1665
-0.065,-0.055,-0.062,12.6,37.5,-27.4,1023,2018,5,10,16,6,35.937,0.8465,0.1034,0.495,0.1657
-0.049,-0.048,-0.06,14,25.5,-32.1,1023,2018,5,10,16,6,35.957,0.8461,0.1107,0.4935,0.1676
-0.013,0.059,-0.023,16.7,19.4,-31.4,1023,2018,5,10,16,6,35.977,0.8458,0.1175,0.4914,0.1706
-0.034,0.023,-0.013,17.4,16.1,-31.6,1023,2018,5,10,16,6,36.014,0.8459,0.1236,0.4886,0.174
