ax,ay,az,dpitch,droll,dyaw,heart,time_1,time_2,time_3,time_4,time_5,time_6,w,x,y,z
0.026,0.033,-0.001,-3.6,6.2,2.8,0,2018,5,10,16,10,31.633,0.7549,-0.5874,-0.2405,0.1644
0.002,0,0.015,-4.8,-0.3,2.9,0,2018,5,10,16,10,31.653,0.7556,-0.587,-0.2399,0.1635
-0.003,0.056,0.07,-7.3,-5.8,2.5,0,2018,5,10,16,10,31.664,0.7559,-0.5874,-0.2392,0.1621
-0.014,0.008,0.102,-7.7,-12.4,0.2,0,2018,5,10,16,10,31.702,0.756,-0.588,-0.2383,0.1604
-0.032,-0.012,0.006,-5.4,-8.5,-3,0,2018,5,10,16,10,31.722,0.7557,-0.5892,-0.2373,0.1592
-0.027,-0.041,-0.085,-1.5,-4.9,-5.3,0,2018,5,10,16,10,31.726,0.7548,-0.5907,-0.2368,0.1586
-0.006,-0.03,-0.056,2.7,13.4,-5.5,0,2018,5,10,16,10,31.746,0.7546,-0.591,-0.2363,0.1592
-0.008,0.027,0.009,5,26.6,-3,0,2018,5,10,16,10,31.766,0.7566,-0.5883,-0.2356,0.1607
-0.017,-0.021,0.004,6.8,38.8,0.5,0,2018,5,10,16,10,31.786,0.76,-0.5835,-0.2353,0.1625
0,0.065,-0.029,9,46.1,3.1,0,2018,5,10,16,10,31.806,0.7642,-0.5775,-0.2352,0.1644
-0.017,0.085,-0.022,8.9,35.7,3,0,2018,5,10,16,10,31.823,0.7682,-0.5714,-0.2357,0.1662
-0.009,0.071,-0.002,7.8,17.3,2.1,0,2018,5,10,16,10,31.843,0.7708,-0.5673,-0.2362,0.1672
-0.008,0.013,0.016,5,4.4,2.2,0,2018,5,10,16,10,31.863,0.7717,-0.5657,-0.237,0.1676
0.005,0.017,0.036,2.3,2.1,4.2,0,2018,5,10,16,10,31.903,0.7723,-0.5649,-0.2373,0.1673
0,0.023,0.021,-0.2,-1.9,4.2,1023,2018,5,10,16,10,31.924,0.7727,-0.5644,-0.2376,0.1665
0.018,0.026,-0.001,-2,-7.4,3.9,1023,2018,5,10,16,10,31.928,0.7727,-0.5647,-0.2377,0.1655
0.013,-0.005,-0.018,-2.6,-17.2,1.6,1023,2018,5,10,16,10,31.948,0.7719,-0.5662,-0.2378,0.1642
0.027,-0.008,-0.009,-2.2,-20.7,-0.1,1023,2018,5,10,16,10,31.967,0.77,-0.5691,-0.2378,0.1628
0.04,-0.013,-0.02,-0.6,-27.2,-1.6,1023,2018,5,10,16,10,31.99,0.7676,-0.5726,-0.2379,0.1617
0.046,-0.012,0.002,-0.2,-30.7,-1.3,1023,2018,5,10,16,10,32.009,0.7645,-0.577,-0.238,0.1606
0.049,0.001,-0.024,2,-32,-0.7,1023,2018,5,10,16,10,32.028,0.7615,-0.5811,-0.2383,0.1596
0.049,-0.022,-0.089,5,-29.4,-2.1,1023,2018,5,10,16,10,32.048,0.7576,-0.586,-0.2391,0.1587
0.038,-0.042,-0.038,5.4,-17.5,-3.2,0,2018,5,10,16,10,32.087,0.7545,-0.5897,-0.2399,0.1586
0.019,-0.048,0.009,4.8,0.2,-3.3,0,2018,5,10,16,10,32.091,0.7534,-0.591,-0.2401,0.1592
0.026,0.019,0.036,3.3,9,-4.2,0,2018,5,10,16,10,32.106,0.754,-0.59,-0.2397,0.1603
-0.004,0.017,0.001,3.3,11.7,-4.4,0,2018,5,10,16,10,32.126,0.7552,-0.5884,-0.2391,0.1615
0,0.004,-0.034,2.1,8.2,-5.3,0,2018,5,10,16,10,32.145,0.756,-0.5873,-0.2386,0.1625
-0.007,-0.004,-0.001,0.1,10.8,-4.8,0,2018,5,10,16,10,32.186,0.7567,-0.5865,-0.2378,0.1634
-0.001,0.037,0.02,-1.8,10.3,-4.7,0,2018,5,10,16,10,32.206,0.7579,-0.5852,-0.2367,0.1641
-0.006,0.01,0.01,-2.8,10.3,-4.1,0,2018,5,10,16,10,32.21,0.7592,-0.5839,-0.2354,0.1645
0.004,0.034,-0.007,-2.4,5.1,-3.6,0,2018,5,10,16,10,32.229,0.7602,-0.583,-0.2343,0.1648
-0.002,0.03,0.005,-2.3,2.1,-3.6,0,2018,5,10,16,10,32.251,0.7607,-0.5827,-0.2334,0.1649
-0.003,0.006,0.028,-4,2.7,-4.9,0,2018,5,10,16,10,32.27,0.7612,-0.5824,-0.2322,0.165
0.001,0.021,0.037,-4.9,0.5,-5.6,0,2018,5,10,16,10,32.288,0.7617,-0.5824,-0.2307,0.1651
-0.001,0.009,0.016,-5.3,-7.5,-5.9,0,2018,5,10,16,10,32.307,0.7615,-0.5832,-0.2294,0.1649
-0.001,0.045,-0.008,-4.4,-10.7,-5.5,0,2018,5,10,16,10,32.344,0.7607,-0.5849,-0.2282,0.1644
0.002,0.04,-0.029,-2.4,-16,-6.1,0,2018,5,10,16,10,32.364,0.7594,-0.5869,-0.2275,0.1639
-0.003,-0.024,-0.018,-2.6,-15.3,-9,0,2018,5,10,16,10,32.368,0.7576,-0.5896,-0.2268,0.1637
0.01,-0.016,0.005,-2.7,-13.8,-8.7,0,2018,5,10,16,10,32.387,0.756,-0.592,-0.2257,0.1639
0.003,0.005,0.011,-2.4,-16.3,-7.1,0,2018,5,10,16,10,32.408,0.7545,-0.5944,-0.2247,0.1639
0.005,0.06,-0.016,-1.9,-19.2,-4.3,0,2018,5,10,16,10,32.449,0.7525,-0.5971,-0.2242,0.1634
0.006,0.113,0.017,-0.5,-26.7,0.2,0,2018,5,10,16,10,32.453,0.7506,-0.5998,-0.2243,0.1623
-0.008,-0.009,-0.066,1.5,-29.3,-2.8,0,2018,5,10,16,10,32.472,0.7475,-0.6038,-0.225,0.161
-0.028,-0.066,-0.075,2.5,-12.2,-2.4,0,2018,5,10,16,10,32.509,0.7446,-0.6073,-0.2257,0.1603
-0.05,-0.062,0,0.6,10.8,0.1,0,2018,5,10,16,10,32.513,0.7443,-0.6076,-0.226,0.1601
-0.044,-0.007,0.019,-2.7,27.5,2.7,0,2018,5,10,16,10,32.528,0.7467,-0.6047,-0.2255,0.1601
-0.039,0.034,-0.016,-5.4,30,5.3,0,2018,5,10,16,10,32.548,0.7505,-0.6005,-0.2247,0.1598
-0.034,-0.073,-0.043,-8.7,34.9,8,0,2018,5,10,16,10,32.568,0.7539,-0.5968,-0.2236,0.1588
-0.048,0.118,0.02,-10.9,30.8,10.7,0,2018,5,10,16,10,32.609,0.7582,-0.5922,-0.2226,0.1572
-0.021,0.149,0.036,-11,12.8,10.8,0,2018,5,10,16,10,32.628,0.7617,-0.5886,-0.2217,0.1547
0.012,0.083,0.023,-8.7,-12.1,8.1,0,2018,5,10,16,10,32.632,0.7629,-0.5881,-0.2212,0.152
0.012,0.005,-0.034,-4.3,-24.7,6.3,1023,2018,5,10,16,10,32.653,0.7612,-0.5908,-0.2213,0.1493
0.024,0.022,-0.055,0.6,-27.7,6,1023,2018,5,10,16,10,32.672,0.7585,-0.5946,-0.2222,0.147
0.019,-0.025,-0.065,3.6,-29.5,1.7,1023,2018,5,10,16,10,32.694,0.7552,-0.5987,-0.2236,0.1455
0.045,-0.07,-0.052,5.6,-17.8,0.7,1023,2018,5,10,16,10,32.714,0.7521,-0.6024,-0.2246,0.1447
0.052,-0.043,-0.054,7.6,-14.2,-1.4,1023,2018,5,10,16,10,32.734,0.7497,-0.6049,-0.2254,0.1449
0.061,-0.015,-0.04,10.2,-15.1,-2.4,1023,2018,5,10,16,10,32.753,0.7475,-0.6073,-0.2262,0.1455
0.049,-0.016,-0.038,13.3,-21.5,-5.8,1023,2018,5,10,16,10,32.769,0.7448,-0.6099,-0.2273,0.1466
0.034,-0.003,-0.041,15.1,-27.7,-8.6,1023,2018,5,10,16,10,32.808,0.7412,-0.6134,-0.2285,0.1481
0.027,0.001,-0.078,16.7,-31.8,-10.8,1023,2018,5,10,16,10,32.826,0.7367,-0.6178,-0.2302,0.1498
0.013,-0.054,0,12.6,-20,-11.7,0,2018,5,10,16,10,32.83,0.7327,-0.6217,-0.2313,0.1516
0.01,-0.015,0.039,10.5,-5,-9.7,0,2018,5,10,16,10,32.851,0.7309,-0.6232,-0.2316,0.1536
0.003,0.016,0.029,8.9,5,-7.5,0,2018,5,10,16,10,32.871,0.7307,-0.6229,-0.2315,0.1556
-0.005,0.037,0.009,8.4,11.7,-4.7,0,2018,5,10,16,10,32.893,0.7314,-0.6217,-0.2316,0.1575
-0.019,0.034,0.017,7.7,18.1,-2.5,0,2018,5,10,16,10,32.93,0.7327,-0.6197,-0.2317,0.159
-0.023,0.028,0.045,7,19.6,-1,0,2018,5,10,16,10,32.95,0.7349,-0.6167,-0.2318,0.1604
-0.04,0.052,0.023,7,13.9,-0.8,0,2018,5,10,16,10,32.954,0.7368,-0.614,-0.2322,0.1614
-0.041,0.035,0.042,6.7,8.2,-1.4,0,2018,5,10,16,10,32.974,0.738,-0.6121,-0.2327,0.1622
-0.052,0.026,0.047,6.2,-3.3,-2.3,0,2018,5,10,16,10,32.99,0.7385,-0.6113,-0.2332,0.1627
-0.049,0.013,0.03,6.5,-8.3,-3.1,0,2018,5,10,16,10,33.028,0.7378,-0.6116,-0.2341,0.1629
-0.038,0.009,0.031,4.8,-6.1,-4.1,0,2018,5,10,16,10,33.048,0.7371,-0.6122,-0.2348,0.1632
-0.038,-0.004,0.056,3.2,5.3,-2.9,0,2018,5,10,16,10,33.052,0.7373,-0.6117,-0.2349,0.1637
-0.039,0.001,0.021,2,11,-1.8,0,2018,5,10,16,10,33.089,0.7386,-0.6102,-0.2347,0.1642
-0.039,0.009,-0.045,2.3,12.1,-1.1,0,2018,5,10,16,10,33.11,0.7397,-0.6088,-0.2346,0.1646
-0.032,0.052,-0.028,1.7,14.2,-0.5,0,2018,5,10,16,10,33.114,0.7409,-0.6072,-0.2346,0.1648
-0.022,0.04,-0.02,2.2,17.6,2.5,0,2018,5,10,16,10,33.135,0.7424,-0.6053,-0.2346,0.165
-0.014,0.034,-0.014,1.8,18.8,5.2,0,2018,5,10,16,10,33.155,0.7444,-0.6028,-0.2348,0.1649
-0.011,0.034,-0.025,3,19.1,6.7,0,2018,5,10,16,10,33.193,0.7465,-0.6002,-0.2351,0.1648
-0.013,0.037,-0.014,2.6,17.7,7.9,0,2018,5,10,16,10,33.214,0.7487,-0.5972,-0.2357,0.1645
-0.01,0.061,-0.028,3.2,11.1,7.9,0,2018,5,10,16,10,33.218,0.7505,-0.5948,-0.2366,0.164
-0.022,-0.01,0.007,0,11.4,6.1,0,2018,5,10,16,10,33.234,0.7518,-0.593,-0.2373,0.1633
-0.012,-0.011,0.021,-1.1,12.7,5.8,0,2018,5,10,16,10,33.253,0.7535,-0.591,-0.2374,0.1626
-0.002,0.022,-0.013,-1,6.6,5.8,0,2018,5,10,16,10,33.291,0.7549,-0.5895,-0.2374,0.1617
0.015,0.008,-0.025,-0.4,-1.8,5.2,0,2018,5,10,16,10,33.311,0.7553,-0.5891,-0.2377,0.1608
0.023,0.024,-0.045,1.4,-6,6,0,2018,5,10,16,10,33.315,0.7548,-0.5899,-0.2382,0.1596
0.011,-0.016,-0.045,2.9,-6.7,5.7,0,2018,5,10,16,10,33.336,0.7539,-0.5908,-0.2391,0.1586
0.032,0.004,-0.008,1.8,-6.9,6,0,2018,5,10,16,10,33.354,0.7532,-0.5916,-0.24,0.1577
0.065,0.014,-0.001,2.3,-6.4,6.1,0,2018,5,10,16,10,33.394,0.7527,-0.5923,-0.2405,0.1568
0.077,0.006,-0.032,3.3,-1.9,6.3,0,2018,5,10,16,10,33.399,0.7523,-0.5928,-0.241,0.1563
0.067,0.014,-0.034,4.5,-0.9,6.7,0,2018,5,10,16,10,33.415,0.7521,-0.5928,-0.2417,0.1559
0.08,0.025,-0.062,7.2,-3.5,5,0,2018,5,10,16,10,33.435,0.7516,-0.5931,-0.2426,0.1559
0.083,0.008,-0.029,7.6,-11.6,3.7,1023,2018,5,10,16,10,33.453,0.7504,-0.5942,-0.2436,0.1559
0.082,0.045,0.018,8.6,-16.6,3.9,1023,2018,5,10,16,10,33.491,0.7489,-0.5956,-0.2447,0.156
0.055,-0.016,0.021,8.7,-24.3,0,1023,2018,5,10,16,10,33.51,0.7467,-0.5979,-0.246,0.1559
0.089,-0.047,0.001,7.5,-24.4,-1.1,1023,2018,5,10,16,10,33.513,0.7437,-0.6012,-0.2469,0.156
0.077,-0.064,0.005,5.3,-19.2,-2.9,1023,2018,5,10,16,10,33.55,0.7411,-0.6041,-0.2474,0.1564
0.061,-0.052,0.019,3,-14.4,-5.7,1023,2018,5,10,16,10,33.57,0.7392,-0.6064,-0.2472,0.157
0.041,-0.037,0.031,1.5,-12.2,-7.8,1023,2018,5,10,16,10,33.573,0.7378,-0.6082,-0.2465,0.1577
0.029,-0.003,0.051,0.3,-10.3,-8.8,1023,2018,5,10,16,10,33.611,0.7365,-0.6099,-0.2455,0.1585
-0.001,-0.004,0.042,0.2,-6.2,-10.3,1023,2018,5,10,16,10,33.631,0.7358,-0.611,-0.2444,0.1593
-0.018,0.015,0.034,-0.1,-2.8,-9.9,1023,2018,5,10,16,10,33.639,0.7354,-0.6117,-0.2432,0.1602
-0.046,0.006,0.044,-0.6,0.8,-10.5,0,2018,5,10,16,10,33.676,0.7355,-0.6118,-0.2421,0.1611
-0.069,-0.022,0.042,-1.8,7.5,-9.1,0,2018,5,10,16,10,33.697,0.7361,-0.6114,-0.2409,0.1619
-0.076,0.035,0.048,-3.4,14.2,-6.9,0,2018,5,10,16,10,33.702,0.7376,-0.6098,-0.2396,0.1625
-0.076,0.057,0.033,-4.4,14.2,-5.7,0,2018,5,10,16,10,33.716,0.7398,-0.6076,-0.2383,0.1628
-0.075,0.059,0.01,-4.2,11,-4.7,0,2018,5,10,16,10,33.738,0.7417,-0.6057,-0.2372,0.1628
-0.066,-0.012,-0.04,-4.3,8.9,-0.3,0,2018,5,10,16,10,33.758,0.7429,-0.6047,-0.2366,0.1624
-0.069,0.002,-0.019,-5.7,22.1,5.2,0,2018,5,10,16,10,33.776,0.7448,-0.6027,-0.2362,0.1615
-0.036,0.099,0.001,-7.4,22.6,8.4,0,2018,5,10,16,10,33.796,0.7479,-0.5994,-0.2357,0.1601
-0.026,0.104,0.022,-8.5,15.5,10,0,2018,5,10,16,10,33.834,0.7508,-0.5964,-0.2351,0.1583
-0.02,0.073,0.002,-7.1,0.5,10,0,2018,5,10,16,10,33.854,0.7527,-0.5948,-0.235,0.156
-0.016,0.058,-0.039,-5.3,-13,9.5,0,2018,5,10,16,10,33.857,0.7525,-0.5955,-0.2354,0.1533
0,0.025,-0.055,-4,-21.7,7.1,0,2018,5,10,16,10,33.895,0.7509,-0.5979,-0.2363,0.1505
0.01,-0.028,-0.038,-3.1,-21,5.6,0,2018,5,10,16,10,33.913,0.7487,-0.601,-0.237,0.1482
0,-0.083,-0.023,-3.5,-9.6,5.2,0,2018,5,10,16,10,33.918,0.747,-0.6034,-0.2374,0.1463
0,-0.072,-0.011,-4.9,6,4.6,0,2018,5,10,16,10,33.938,0.7469,-0.6038,-0.2372,0.1449
0,-0.041,-0.003,-6.1,17.8,3.2,0,2018,5,10,16,10,33.959,0.7485,-0.6024,-0.2364,0.1441
-0.016,-0.058,-0.03,-5.9,24,1.7,0,2018,5,10,16,10,33.978,0.7511,-0.5998,-0.2351,0.1438
-0.012,-0.025,-0.046,-6.7,30.6,1.8,0,2018,5,10,16,10,33.999,0.754,-0.5967,-0.2338,0.1436
-0.006,0.032,-0.039,-6.8,36.8,2.3,0,2018,5,10,16,10,34.019,0.7576,-0.5926,-0.2323,0.1437
-0.007,0.066,-0.004,-8,37,2,0,2018,5,10,16,10,34.057,0.7619,-0.5879,-0.2305,0.1437
-0.032,0.007,0.024,-10.4,38,1.8,0,2018,5,10,16,10,34.077,0.7663,-0.5829,-0.2285,0.1436
-0.014,0.031,0.024,-12.9,40.3,3.8,0,2018,5,10,16,10,34.082,0.771,-0.5777,-0.2261,0.1431
-0.008,0.039,0.026,-15.1,37.3,6.9,0,2018,5,10,16,10,34.1,0.7758,-0.5724,-0.2237,0.1421
-0.027,0.029,0.046,-18.5,37.7,8,0,2018,5,10,16,10,34.121,0.7809,-0.567,-0.221,0.1405
-0.033,0.041,0.057,-22.4,33.8,8.5,0,2018,5,10,16,10,34.139,0.7858,-0.5618,-0.2181,0.1383
-0.014,0.054,0.045,-25.4,20.3,8.3,0,2018,5,10,16,10,34.159,0.7901,-0.5578,-0.2148,0.1354
0.007,-0.058,0.023,-27,7.4,9.6,0,2018,5,10,16,10,34.179,0.7926,-0.5563,-0.2116,0.1318
-0.005,-0.054,-0.025,-25.3,22.9,10.5,0,2018,5,10,16,10,34.199,0.7949,-0.5551,-0.2084,0.1281
-0.008,0.011,0.007,-33.8,50.7,10.9,0,2018,5,10,16,10,34.22,0.7997,-0.5505,-0.2044,0.1247
0.001,-0.008,0.089,-38.9,61.2,5.2,0,2018,5,10,16,10,34.258,0.8068,-0.5429,-0.1985,0.1217
0.051,0.013,0.092,-40.4,53.3,3.3,1023,2018,5,10,16,10,34.278,0.8141,-0.535,-0.1913,0.1192
0.054,0.016,0.064,-39.3,41.7,4.2,1023,2018,5,10,16,10,34.283,0.8202,-0.5288,-0.1842,0.1164
0.054,0.047,0.016,-35.6,25.5,6,1023,2018,5,10,16,10,34.303,0.8249,-0.5243,-0.178,0.1133
0.064,0.085,-0.045,-30.3,9.9,8.2,1023,2018,5,10,16,10,34.323,0.8277,-0.5222,-0.1729,0.1098
0.076,0.116,-0.082,-24.6,-3.7,10.8,1023,2018,5,10,16,10,34.344,0.8289,-0.5225,-0.1691,0.1059
0.055,0.057,-0.059,-20.5,-6.7,11.4,1023,2018,5,10,16,10,34.363,0.829,-0.5239,-0.1664,0.1019
-0.011,-0.089,-0.009,-18.6,5.5,10.1,1023,2018,5,10,16,10,34.383,0.8294,-0.5247,-0.1642,0.0983
-0.034,-0.056,-0.025,-16.6,23,9.9,1023,2018,5,10,16,10,34.399,0.8313,-0.5228,-0.1624,0.0953
-0.04,-0.006,-0.067,-14.7,32.4,9.4,1023,2018,5,10,16,10,34.437,0.8342,-0.5192,-0.1607,0.0927
-0.053,-0.025,-0.08,-12.4,38,8,0,2018,5,10,16,10,34.458,0.8375,-0.5146,-0.1593,0.0905
-0.052,-0.048,-0.082,-9.8,38.3,7.8,0,2018,5,10,16,10,34.462,0.841,-0.5096,-0.1582,0.0889
-0.012,0.024,-0.137,-1.6,29.4,8.4,0,2018,5,10,16,10,34.482,0.8438,-0.5053,-0.1578,0.0876
0.04,0.07,-0.173,5.9,11,8.9,0,2018,5,10,16,10,34.502,0.8449,-0.5033,-0.1586,0.0866
0.054,0.037,-0.129,9.7,2.5,9.6,0,2018,5,10,16,10,34.523,0.8448,-0.503,-0.1604,0.086
0.063,0.009,-0.053,11.2,1.2,8.5,0,2018,5,10,16,10,34.543,0.8444,-0.5031,-0.1622,0.0856
0.103,-0.013,-0.051,13.1,-0.3,7.6,0,2018,5,10,16,10,34.582,0.844,-0.5033,-0.1639,0.0855
0.135,0.031,-0.089,16,-2.8,7.1,0,2018,5,10,16,10,34.603,0.8432,-0.5039,-0.1663,0.0856
0.106,-0.056,-0.04,14.8,-2.7,4.8,0,2018,5,10,16,10,34.608,0.8419,-0.505,-0.1691,0.0857
0.078,-0.118,0.052,9.7,-0.2,1.6,0,2018,5,10,16,10,34.62,0.8414,-0.5053,-0.1705,0.0865
0.064,-0.184,0.059,3.4,9,0.5,0,2018,5,10,16,10,34.657,0.8416,-0.5049,-0.1705,0.0872
0.065,-0.14,0.004,-6.8,53.3,2.5,0,2018,5,10,16,10,34.678,0.8441,-0.501,-0.1693,0.0877
0.071,0.144,-0.021,-8.7,63.4,2.5,0,2018,5,10,16,10,34.682,0.8501,-0.4916,-0.1666,0.0884
0.041,0.051,-0.023,-7,29.3,-2.9,0,2018,5,10,16,10,34.703,0.8547,-0.4842,-0.1643,0.089
-0.008,-0.018,0.037,-8.2,27.1,-1.6,0,2018,5,10,16,10,34.722,0.8572,-0.4804,-0.1622,0.0893
-0.009,0.117,0.101,-8.2,24,0,0,2018,5,10,16,10,34.761,0.8603,-0.4756,-0.1603,0.0891
-0.048,0.084,0.051,-4.9,7.6,-3,0,2018,5,10,16,10,34.781,0.8623,-0.4724,-0.1589,0.0888
-0.034,0.063,0.014,-1.2,-9.4,-4.6,0,2018,5,10,16,10,34.785,0.8627,-0.4719,-0.1583,0.0886
-0.037,0.06,0.021,3.3,-21.6,-5.6,0,2018,5,10,16,10,34.806,0.8616,-0.4739,-0.1584,0.0885
-0.044,0.013,0.019,7.9,-27,-6.3,0,2018,5,10,16,10,34.825,0.8596,-0.4772,-0.1593,0.0887
-0.053,0.02,0.011,12.2,-27.6,-7.1,0,2018,5,10,16,10,34.844,0.8572,-0.4808,-0.1609,0.0893
-0.064,0.046,-0.04,15.9,-34.2,-7.5,0,2018,5,10,16,10,34.863,0.8543,-0.485,-0.1633,0.0901
-0.079,-0.007,-0.059,16.2,-36.3,-7.1,0,2018,5,10,16,10,34.884,0.8505,-0.4905,-0.1664,0.0908
-0.089,-0.012,-0.009,14.7,-25.9,-4.6,0,2018,5,10,16,10,34.906,0.847,-0.4954,-0.1692,0.0913
-0.069,0.009,-0.027,15.6,-22.8,-0.5,0,2018,5,10,16,10,34.926,0.8444,-0.4988,-0.1721,0.0914
-0.079,0.069,-0.045,15.1,-32.8,4.7,0,2018,5,10,16,10,34.945,0.8416,-0.5024,-0.1757,0.0909
-0.059,0.021,0.005,10.8,-33.3,9.7,0,2018,5,10,16,10,34.964,0.8384,-0.5068,-0.1793,0.0892
-0.043,0.063,0.014,7.4,-22.3,13.3,0,2018,5,10,16,10,35.003,0.8361,-0.5099,-0.1823,0.0867
-0.05,0.015,0.015,3.7,-17.8,14.4,1023,2018,5,10,16,10,35.023,0.8347,-0.5117,-0.1848,0.0839
-0.018,0.027,0.016,1.3,-13.1,14.8,1023,2018,5,10,16,10,35.028,0.8335,-0.5134,-0.1868,0.081
0.02,0.061,0.009,0.9,-10.5,15.3,1023,2018,5,10,16,10,35.048,0.8329,-0.5143,-0.1882,0.0781
0.064,0.037,0.009,1.2,-12.9,14.5,1023,2018,5,10,16,10,35.068,0.8323,-0.5154,-0.1893,0.0754
0.091,-0.011,0.003,3.2,-19.7,12.2,1023,2018,5,10,16,10,35.085,0.831,-0.5174,-0.1902,0.0732
0.078,-0.099,-0.004,5,-17.8,8.3,1023,2018,5,10,16,10,35.121,0.8291,-0.5204,-0.1911,0.0716
0.11,-0.119,-0.04,8.4,-12.5,3,1023,2018,5,10,16,10,35.143,0.8271,-0.5232,-0.1923,0.0709
0.124,-0.092,-0.082,16.4,-7.9,-3.5,1023,2018,5,10,16,10,35.147,0.8253,-0.5253,-0.1941,0.0716
0.121,-0.056,-0.057,21.9,-1.3,-8.3,1023,2018,5,10,16,10,35.166,0.8236,-0.5268,-0.1963,0.074
0.111,-0.035,-0.047,26.2,8,-11.4,0,2018,5,10,16,10,35.185,0.8224,-0.5273,-0.1986,0.0776
0.092,-0.002,-0.033,27,12.3,-14.1,0,2018,5,10,16,10,35.224,0.8223,-0.526,-0.2002,0.0826
0.053,-0.043,-0.006,24,10.3,-14.7,0,2018,5,10,16,10,35.247,0.8224,-0.5246,-0.2018,0.0876
0.043,0.037,0.022,20.9,12.1,-13.5,0,2018,5,10,16,10,35.25,0.8227,-0.5228,-0.203,0.0921
0.014,0.018,0.032,16.5,3,-12.2,0,2018,5,10,16,10,35.269,0.8229,-0.5214,-0.204,0.0958
0.003,0.057,0.039,10.6,-0.3,-7.8,0,2018,5,10,16,10,35.291,0.8228,-0.5209,-0.2047,0.0983
-0.006,0.069,0.047,2.7,-3.3,-5.4,0,2018,5,10,16,10,35.31,0.8229,-0.5204,-0.2048,0.0995
0,0.044,0.061,-4.4,-7.2,-3.6,0,2018,5,10,16,10,35.326,0.823,-0.5205,-0.2041,0.0995
0.008,0.02,0.058,-10.6,-1.8,0,0,2018,5,10,16,10,35.36,0.8233,-0.5208,-0.2025,0.0986
0.021,0.053,0.022,-13.2,2,4,0,2018,5,10,16,10,35.381,0.8242,-0.5205,-0.2006,0.0969
0.025,0.092,-0.022,-13.4,4.2,6.9,0,2018,5,10,16,10,35.387,0.8254,-0.5196,-0.1989,0.0948
0.027,0.1,0.032,-11,-2.5,6.4,0,2018,5,10,16,10,35.409,0.8267,-0.5186,-0.1974,0.0925
0.007,-0.029,0.085,-8.3,-0.3,7.1,0,2018,5,10,16,10,35.427,0.8274,-0.5183,-0.1963,0.0903
-0.058,-0.019,0.091,-6,-1,7.2,0,2018,5,10,16,10,35.465,0.8281,-0.5177,-0.1957,0.0882
-0.092,-0.054,-0.011,-1.1,-13.2,4,0,2018,5,10,16,10,35.486,0.8277,-0.5186,-0.196,0.0862
-0.091,-0.052,-0.071,1.9,-9.2,0.3,0,2018,5,10,16,10,35.491,0.8262,-0.5209,-0.1968,0.0849
-0.05,-0.057,-0.046,2.8,4.4,-4.4,0,2018,5,10,16,10,35.511,0.8255,-0.5219,-0.1972,0.0849
-0.014,-0.027,-0.019,5.1,8.6,-7.5,0,2018,5,10,16,10,35.529,0.8258,-0.5211,-0.1972,0.0861
0.033,0.016,-0.034,8.1,-2.8,-9.3,0,2018,5,10,16,10,35.547,0.8257,-0.5211,-0.1972,0.0878
0.101,0.044,-0.071,14.8,-12.2,-12,0,2018,5,10,16,10,35.567,0.8243,-0.5228,-0.1974,0.0901
0.102,-0.085,-0.129,18.4,-4.2,-11.4,0,2018,5,10,16,10,35.588,0.8222,-0.5251,-0.1986,0.0931
0.101,-0.092,-0.038,15.2,29.1,-9.5,0,2018,5,10,16,10,35.607,0.8221,-0.5241,-0.1998,0.0964
0.11,0.069,0.031,10.4,47.5,-8.3,0,2018,5,10,16,10,35.627,0.8255,-0.5183,-0.1993,0.1005
0.093,0.098,0.007,6.7,36.5,-7.1,0,2018,5,10,16,10,35.649,0.829,-0.5122,-0.1984,0.1039
0.066,0.091,0.016,4.2,24.9,-3.2,0,2018,5,10,16,10,35.668,0.8319,-0.5075,-0.1975,0.1063
-0.02,-0.019,0.012,-0.7,33.5,1.3,0,2018,5,10,16,10,35.707,0.8345,-0.5032,-0.1969,0.1072
-0.044,0.025,0.005,-6.8,49.4,4.1,0,2018,5,10,16,10,35.727,0.8385,-0.4968,-0.1959,0.1074
-0.077,0.031,0.005,-10.2,45.8,3.1,0,2018,5,10,16,10,35.731,0.8434,-0.4892,-0.1944,0.1071
-0.118,-0.022,0.029,-11.5,31.7,1.1,0,2018,5,10,16,10,35.748,0.8473,-0.4831,-0.1928,0.1064
-0.134,-0.032,0.031,-11.4,17.8,-0.3,1023,2018,5,10,16,10,35.787,0.85,-0.4793,-0.1914,0.1054
-0.119,0.021,-0.103,-3.3,-11.1,-3,1023,2018,5,10,16,10,35.808,0.8504,-0.4791,-0.1904,0.1046
-0.142,-0.017,-0.119,8.4,-38.3,-5.4,1023,2018,5,10,16,10,35.812,0.8475,-0.484,-0.1908,0.1044
-0.165,-0.068,-0.066,17.9,-38.3,-8.2,1023,2018,5,10,16,10,35.831,0.8432,-0.4904,-0.1929,0.1051
-0.115,-0.06,-0.098,21.4,-20.3,-9.9,1023,2018,5,10,16,10,35.85,0.8395,-0.4953,-0.1955,0.1071
-0.08,0.002,-0.135,23.7,2.5,-7.1,1023,2018,5,10,16,10,35.888,0.8375,-0.4972,-0.198,0.1099
-0.05,0.051,-0.137,26.1,4.9,-4.9,1023,2018,5,10,16,10,35.91,0.8364,-0.4971,-0.2009,0.113
-0.009,0.088,-0.051,25.3,-2.2,-2,1023,2018,5,10,16,10,35.914,0.8355,-0.4965,-0.2048,0.1153
0.035,0.045,0.014,19.8,-8,1.1,1023,2018,5,10,16,10,35.932,0.8346,-0.4963,-0.208,0.1168
0.092,0.038,0.016,13.9,-10.4,4.9,1023,2018,5,10,16,10,35.952,0.8337,-0.4968,-0.2103,0.1175
0.121,0.057,0.011,8.1,-9.1,7.1,0,2018,5,10,16,10,35.972,0.8329,-0.4974,-0.2117,0.1174
0.114,0.025,0.023,1.8,-9.1,6.6,0,2018,5,10,16,10,36.009,0.8322,-0.4985,-0.2124,0.1167
0.125,0.007,0.059,-2.6,-5.3,6.3,0,2018,5,10,16,10,36.028,0.8318,-0.4994,-0.2125,0.1155
0.116,-0.006,0.092,-9.1,-1.9,6.5,0,2018,5,10,16,10,36.032,0.8315,-0.5004,-0.2121,0.1138
0.124,0.03,0.07,-11.6,-1.3,6,0,2018,5,10,16,10,36.053,0.8315,-0.5015,-0.211,0.1117
0.09,0.038,0.035,-11,-10.6,3.5,0,2018,5,10,16,10,36.071,0.8315,-0.5025,-0.2096,0.1098
0.057,-0.03,0.034,-10.5,-17.5,-0.5,0,2018,5,10,16,10,36.092,0.8311,-0.5042,-0.2077,0.1083
0.061,-0.039,0.03,-8.8,-15.1,-2.8,0,2018,5,10,16,10,36.114,0.8302,-0.5067,-0.2058,0.1072
0.075,-0.034,0.023,-7.5,-8.3,-3.8,0,2018,5,10,16,10,36.133,0.8297,-0.5085,-0.2037,0.1067
0.05,0.007,-0.021,-2.9,-8.5,-5.3,0,2018,5,10,16,10,36.155,0.8293,-0.5097,-0.202,0.1068
0.012,0.013,-0.058,2.9,-26.8,-9.6,0,2018,5,10,16,10,36.175,0.8279,-0.5123,-0.2015,0.1071
0.005,-0.026,-0.078,11.4,-49.4,-15.3,0,2018,5,10,16,10,36.193,0.8237,-0.5185,-0.2022,0.108
-0.023,-0.121,-0.077,17.8,-55.7,-19.7,0,2018,5,10,16,10,36.213,0.8176,-0.527,-0.2038,0.1097
-0.039,-0.131,-0.065,20.1,-36.9,-18.5,0,2018,5,10,16,10,36.23,0.8116,-0.5349,-0.206,0.1123
-0.06,-0.056,-0.045,16.1,-5.3,-15.3,0,2018,5,10,16,10,36.269,0.8084,-0.5383,-0.2078,0.1152
-0.07,0.011,0.005,6.2,23.4,-13.2,0,2018,5,10,16,10,36.289,0.8087,-0.5372,-0.2082,0.1179
-0.074,-0.007,0.036,-4.7,40.7,-11.6,0,2018,5,10,16,10,36.293,0.812,-0.5323,-0.2068,0.1203
-0.029,0.079,0.047,-12.4,52.4,-7.4,0,2018,5,10,16,10,36.312,0.8171,-0.5251,-0.2037,0.1221
-0.015,0.046,0.016,-16.8,53.4,-1.8,0,2018,5,10,16,10,36.349,0.8228,-0.5173,-0.2001,0.1229
-0.009,0.094,0.031,-20.9,57.2,4.3,0,2018,5,10,16,10,36.368,0.829,-0.5091,-0.1962,0.1224
-0.02,0.133,0.028,-21.5,43.5,7.3,0,2018,5,10,16,10,36.372,0.8351,-0.5008,-0.1925,0.121
-0.04,0.083,0.008,-19.3,18.9,8.4,0,2018,5,10,16,10,36.414,0.8391,-0.4957,-0.1897,0.1185
-0.042,0.055,0.002,-16.5,11.3,10.9,0,2018,5,10,16,10,36.434,0.8414,-0.4931,-0.188,0.1154
-0.051,0.004,-0.023,-13,14.7,12.7,0,2018,5,10,16,10,36.438,0.8435,-0.4908,-0.187,0.1123
-0.068,-0.002,-0.042,-10.1,31.3,14.4,0,2018,5,10,16,10,36.452,0.8461,-0.487,-0.1864,0.1094
-0.057,0.049,-0.074,-2.4,23.7,12.5,0,2018,5,10,16,10,36.491,0.8491,-0.4822,-0.1866,0.1071
-0.042,0.055,-0.065,6.8,-6.6,6,0,2018,5,10,16,10,36.513,0.8498,-0.4808,-0.1882,0.1055
-0.039,0.018,-0.048,14.8,-34.8,-0.6,0,2018,5,10,16,10,36.517,0.8476,-0.4838,-0.1909,0.1048
-0.004,0.001,-0.083,21.4,-56.9,-3.5,0,2018,5,10,16,10,36.534,0.8427,-0.4908,-0.1945,0.1046
0.04,-0.03,-0.127,27.8,-67.3,-4.7,1023,2018,5,10,16,10,36.555,0.8359,-0.5004,-0.199,0.1051
0.065,-0.071,-0.152,32.3,-64.2,-4.5,1023,2018,5,10,16,10,36.575,0.8284,-0.5106,-0.2041,0.106
0.089,-0.159,-0.1,29.3,-43.6,-3.1,1023,2018,5,10,16,10,36.596,0.8218,-0.5188,-0.2092,0.1073
0.126,-0.085,-0.009,23.2,-10.5,-1.3,1023,2018,5,10,16,10,36.615,0.818,-0.5229,-0.2131,0.1089
0.141,-0.031,0.016,16.3,4.6,-2.9,1023,2018,5,10,16,10,36.635,0.8169,-0.5233,-0.2152,0.111
0.125,0.004,0.042,10.2,8,-5.8,1023,2018,5,10,16,10,36.671,0.8168,-0.5226,-0.2161,0.1132
0.091,-0.039,0.097,2.3,4.6,-9.3,1023,2018,5,10,16,10,36.675,0.8166,-0.5227,-0.2161,0.115
0.071,-0.1,0.172,-8.6,10.3,-11.1,1023,2018,5,10,16,10,36.711,0.8168,-0.5228,-0.2143,0.1163
0.073,-0.025,0.158,-15.2,14.1,-11.6,1023,2018,5,10,16,10,36.713,0.8179,-0.5221,-0.2111,0.1172
0.064,0.039,0.116,-18.7,3.9,-13.9,0,2018,5,10,16,10,36.734,0.8188,-0.5221,-0.2071,0.1177
0.04,0.042,0.074,-19.1,-9.3,-17.4,0,2018,5,10,16,10,36.772,0.8194,-0.523,-0.2024,0.1181
0.025,0.003,0.076,-19.3,-13.7,-20,0,2018,5,10,16,10,36.791,0.8191,-0.5251,-0.1976,0.1185
0.01,-0.025,0.038,-16.5,-7.5,-19.1,0,2018,5,10,16,10,36.795,0.8189,-0.5269,-0.193,0.1193
0.004,-0.03,-0.005,-12.7,5.8,-13.9,0,2018,5,10,16,10,36.832,0.8193,-0.5276,-0.1892,0.1202
0,0.101,-0.043,-6.9,9.4,-7.6,0,2018,5,10,16,10,36.851,0.8204,-0.5268,-0.1866,0.1207
-0.045,0.122,-0.091,-1,-1.4,-5.9,0,2018,5,10,16,10,36.855,0.8209,-0.5262,-0.1857,0.1208
-0.105,0.025,-0.085,2.3,-7.5,-5.7,0,2018,5,10,16,10,36.889,0.8198,-0.5279,-0.1855,0.1211
-0.128,-0.002,-0.077,5.2,-1,-4.9,0,2018,5,10,16,10,36.91,0.8187,-0.5294,-0.1855,0.1219
-0.116,-0.009,-0.082,6,8.9,-3.5,0,2018,5,10,16,10,36.917,0.8184,-0.5296,-0.1857,0.123
-0.103,0.019,-0.106,9.3,15,-1.8,0,2018,5,10,16,10,36.934,0.8191,-0.5281,-0.1861,0.1245
-0.098,0.064,-0.174,14.3,6.8,-0.5,0,2018,5,10,16,10,36.953,0.8193,-0.5268,-0.1874,0.126
-0.11,0.023,-0.141,18.4,-7.5,-2.6,0,2018,5,10,16,10,36.989,0.8182,-0.5274,-0.1895,0.1276
-0.094,-0.01,-0.082,20.5,-20.5,-5.5,0,2018,5,10,16,10,37.011,0.8157,-0.53,-0.1921,0.1294
-0.057,-0.013,-0.075,22.5,-26.2,-5.2,0,2018,5,10,16,10,37.015,0.8125,-0.5331,-0.1958,0.1308
-0.011,-0.026,-0.068,21.7,-22.7,-3.6,0,2018,5,10,16,10,37.051,0.8093,-0.5363,-0.1995,0.1321
0.026,-0.004,-0.052,19.8,-11.6,-1.2,0,2018,5,10,16,10,37.073,0.8069,-0.5383,-0.2026,0.1336
0.045,0.012,-0.023,16.8,-4.1,0,0,2018,5,10,16,10,37.077,0.8056,-0.539,-0.205,0.135
0.076,0.021,0.01,14.4,-3.6,0.5,0,2018,5,10,16,10,37.115,0.8051,-0.5388,-0.2067,0.1364
0.113,0.005,0.021,11.1,-3.9,1.8,0,2018,5,10,16,10,37.137,0.8047,-0.5387,-0.2079,0.1376
0.15,0.052,0.019,8.8,-3.3,4,0,2018,5,10,16,10,37.142,0.8038,-0.5393,-0.2093,0.1381
0.161,0.056,0.054,3.6,-5.5,5,0,2018,5,10,16,10,37.156,0.803,-0.5402,-0.2105,0.1377
0.158,0.051,0.072,0.1,-4.9,5.3,0,2018,5,10,16,10,37.195,0.8023,-0.5411,-0.2113,0.1369
0.132,0.02,0.086,-2.9,-4.4,4.9,0,2018,5,10,16,10,37.217,0.8017,-0.5421,-0.2115,0.1358
0.098,-0.042,0.111,-6.9,2.1,3.8,0,2018,5,10,16,10,37.221,0.8015,-0.5429,-0.2111,0.1346
0.068,-0.043,0.084,-8.1,15.5,4.3,0,2018,5,10,16,10,37.239,0.8029,-0.5417,-0.2097,0.1338
0.028,0.022,0.071,-11.1,22.8,4.4,1023,2018,5,10,16,10,37.278,0.8059,-0.5381,-0.2076,0.133
0.004,0.013,0.06,-14.1,19.2,2.2,1023,2018,5,10,16,10,37.298,0.8092,-0.5343,-0.2053,0.132
0.004,0.019,0.041,-14.5,12.1,1,1023,2018,5,10,16,10,37.302,0.8119,-0.5315,-0.2027,0.1308
0.004,0,0.014,-12.5,1.5,1.4,1023,2018,5,10,16,10,37.321,0.8135,-0.5301,-0.2005,0.1294
0.011,-0.015,-0.03,-8.6,-7.1,1.9,1023,2018,5,10,16,10,37.34,0.8139,-0.5304,-0.1992,0.1279
0.018,-0.003,-0.069,-4.2,-18.7,0.4,1023,2018,5,10,16,10,37.364,0.8129,-0.5325,-0.1986,0.1264
0.008,-0.054,-0.07,-0.7,-28.8,-3.5,1023,2018,5,10,16,10,37.383,0.8105,-0.5364,-0.1987,0.1253
0.002,-0.06,-0.069,2.5,-30.7,-7.5,1023,2018,5,10,16,10,37.402,0.8074,-0.5411,-0.199,0.125
0.014,-0.038,-0.052,6.1,-29.6,-11.9,1023,2018,5,10,16,10,37.419,0.804,-0.5459,-0.1993,0.1256
-0.01,-0.061,-0.048,8.2,-25.8,-15.6,1023,2018,5,10,16,10,37.44,0.8006,-0.5503,-0.1996,0.127
-0.025,0.007,-0.047,8.7,-15.5,-16.7,0,2018,5,10,16,10,37.461,0.7979,-0.5537,-0.1998,0.1291
-0.044,-0.013,-0.012,5.1,-3.4,-18.1,0,2018,5,10,16,10,37.481,0.7966,-0.5551,-0.1996,0.1315
-0.047,-0.009,0.031,1.5,11.4,-16.2,0,2018,5,10,16,10,37.501,0.7968,-0.5546,-0.1984,0.1338
-0.061,0.057,0.061,-2.8,17.7,-11.6,0,2018,5,10,16,10,37.521,0.7985,-0.5523,-0.1968,0.1357
-0.084,0.11,0.075,-8.2,17.5,-8.1,0,2018,5,10,16,10,37.559,0.8001,-0.5505,-0.1947,0.1369
-0.115,0.055,0.102,-15.9,21.1,-4.8,0,2018,5,10,16,10,37.581,0.8017,-0.5492,-0.1917,0.1372
-0.099,0.09,0.1,-22.2,29,0.7,0,2018,5,10,16,10,37.585,0.8044,-0.5467,-0.188,0.1363
-0.123,0.033,0.12,-28.4,29.7,5.7,0,2018,5,10,16,10,37.604,0.8079,-0.5434,-0.1839,0.1343
-0.123,0.039,0.111,-31,26.9,10.5,0,2018,5,10,16,10,37.642,0.8112,-0.5406,-0.1796,0.1311
-0.099,0.123,0.042,-30.5,15.5,14.1,0,2018,5,10,16,10,37.646,0.8142,-0.5384,-0.1757,0.1269
-0.111,0.082,0.013,-30.3,2.4,14.5,0,2018,5,10,16,10,37.661,0.8159,-0.538,-0.1725,0.1221
-0.109,0.018,0,-29.1,3.5,15.6,0,2018,5,10,16,10,37.682,0.8177,-0.5373,-0.1702,0.1165
-0.112,-0.038,0.006,-29,16.3,17.8,0,2018,5,10,16,10,37.7,0.8201,-0.5354,-0.1681,0.1109
-0.086,-0.01,-0.02,-27,28.9,20.9,0,2018,5,10,16,10,37.741,0.8237,-0.5317,-0.1661,0.1054
-0.062,0.015,-0.065,-23.5,32.8,22.6,0,2018,5,10,16,10,37.76,0.8278,-0.5268,-0.1646,0.1001
-0.054,-0.014,-0.073,-20.4,38,22.7,0,2018,5,10,16,10,37.764,0.8318,-0.5217,-0.1633,0.0951
-0.02,-0.024,-0.086,-15.8,40.5,22.9,0,2018,5,10,16,10,37.784,0.8361,-0.5159,-0.1624,0.0907
0.01,-0.047,-0.113,-9.7,39.6,23.3,0,2018,5,10,16,10,37.822,0.8401,-0.5101,-0.1622,0.087
0.02,-0.02,-0.114,-3.3,40.9,25.6,0,2018,5,10,16,10,37.842,0.8438,-0.5044,-0.1628,0.0838
0.04,0.051,-0.111,5.3,37.8,26.4,0,2018,5,10,16,10,37.846,0.8473,-0.4983,-0.1646,0.0809
0.054,0.054,-0.137,12.9,35.5,27,0,2018,5,10,16,10,37.861,0.8504,-0.4924,-0.1676,0.0788
0.072,0,-0.117,13.9,46.2,27.2,0,2018,5,10,16,10,37.901,0.8535,-0.4861,-0.171,0.077
0.103,-0.026,-0.074,14.2,64.4,27.4,0,2018,5,10,16,10,37.922,0.8578,-0.4773,-0.1745,0.0757
0.144,0.011,-0.056,15.8,69.7,25.7,0,2018,5,10,16,10,37.926,0.8631,-0.4665,-0.1779,0.0749
0.166,0.048,-0.055,17.4,53.9,22.6,0,2018,5,10,16,10,37.944,0.8676,-0.4567,-0.1814,0.0744
0.162,0.018,-0.024,19,29.2,18.7,0,2018,5,10,16,10,37.964,0.8703,-0.4502,-0.1852,0.0739
0.131,-0.047,0.011,19.2,9.5,16.4,0,2018,5,10,16,10,37.984,0.8711,-0.4471,-0.1893,0.0732
0.086,-0.119,0.06,16.4,-4.9,12.8,0,2018,5,10,16,10,38.02,0.8709,-0.4462,-0.1924,0.0727
0.075,-0.14,0.081,12.6,-16.3,6.5,0,2018,5,10,16,10,38.04,0.87,-0.4471,-0.1945,0.0723
0.055,-0.131,0.054,8.1,-34.5,-1.3,1023,2018,5,10,16,10,38.044,0.868,-0.4504,-0.1959,0.0721
0.093,-0.055,0.04,5.5,-48.7,-8.3,1023,2018,5,10,16,10,38.083,0.8647,-0.4565,-0.1962,0.0722
0.107,-0.05,0.032,1.8,-43.9,-12.2,1023,2018,5,10,16,10,38.087,0.8611,-0.4634,-0.1956,0.0729
0.115,-0.047,0.022,-2.7,-18.2,-13.5,1023,2018,5,10,16,10,38.104,0.8588,-0.4683,-0.1938,0.0742
0.108,-0.015,0.013,-6,4.1,-12.3,1023,2018,5,10,16,10,38.123,0.8587,-0.4694,-0.191,0.0759
0.11,0.074,-0.004,-8.3,19.1,-8.9,1023,2018,5,10,16,10,38.143,0.8601,-0.4677,-0.1879,0.0776
0.113,0.139,0.007,-9.5,23,-6.7,1023,2018,5,10,16,10,38.18,0.8621,-0.4648,-0.1854,0.0788
0.076,0.108,0.015,-9.3,15.3,-4.2,1023,2018,5,10,16,10,38.2,0.8643,-0.4616,-0.1828,0.0796
0.037,0.08,0.021,-9.2,10.7,0,1023,2018,5,10,16,10,38.205,0.8662,-0.459,-0.1804,0.0794
0.017,0.073,0.03,-8.5,1,1.6,1023,2018,5,10,16,10,38.226,0.8676,-0.4572,-0.1787,0.0786
0.001,0.059,0.021,-7.6,-10.9,1,0,2018,5,10,16,10,38.246,0.868,-0.4571,-0.1775,0.0773
-0.007,0.044,-0.001,-5.2,-23.9,-0.8,0,2018,5,10,16,10,38.267,0.8672,-0.459,-0.1768,0.0759
-0.023,0.039,-0.003,-1.2,-37.1,-3.3,0,2018,5,10,16,10,38.288,0.8651,-0.4633,-0.1766,0.0747
-0.034,0.028,-0.011,2.4,-50,-6,0,2018,5,10,16,10,38.309,0.8617,-0.4696,-0.1771,0.0737
-0.015,0.051,-0.027,6.8,-59.1,-8,0,2018,5,10,16,10,38.328,0.8571,-0.4777,-0.1781,0.073
-0.013,0.019,-0.009,10.8,-59.6,-10.9,0,2018,5,10,16,10,38.349,0.852,-0.4862,-0.1795,0.073
-0.038,-0.002,0,13,-48.9,-11.8,0,2018,5,10,16,10,38.367,0.847,-0.4942,-0.1812,0.0736
-0.058,-0.045,-0.041,14.1,-30.5,-10,0,2018,5,10,16,10,38.385,0.8429,-0.5003,-0.1831,0.0747
-0.079,-0.118,-0.027,11.8,-2.3,-6,0,2018,5,10,16,10,38.405,0.8407,-0.5031,-0.185,0.076
-0.08,-0.055,-0.003,10.4,24.6,-2.5,0,2018,5,10,16,10,38.444,0.8412,-0.5014,-0.1865,0.0775
-0.065,0.033,0.002,7.5,35.5,0.2,0,2018,5,10,16,10,38.465,0.8439,-0.4962,-0.1878,0.0789
-0.061,0.052,0.004,6.1,31.8,1,0,2018,5,10,16,10,38.47,0.8468,-0.4906,-0.1888,0.0798
-0.073,0.042,0.022,3.7,21.3,2.2,0,2018,5,10,16,10,38.487,0.8493,-0.4858,-0.1898,0.0803
-0.081,-0.006,0.05,2.9,9.1,5.8,0,2018,5,10,16,10,38.507,0.8509,-0.4828,-0.1909,0.0798
-0.05,0.064,0.04,1.7,-2.8,8.8,0,2018,5,10,16,10,38.543,0.8515,-0.4813,-0.1921,0.0785
-0.032,0.099,0.009,0.9,-18.6,9.2,0,2018,5,10,16,10,38.563,0.8512,-0.4816,-0.1935,0.0763
-0.026,0.021,0,0.4,-24.4,8.7,0,2018,5,10,16,10,38.565,0.8498,-0.484,-0.1949,0.0738
-0.007,-0.058,-0.01,3.7,-7.2,11.5,0,2018,5,10,16,10,38.588,0.8483,-0.4864,-0.1963,0.0716
-0.005,-0.086,-0.006,-4.3,31.4,14.9,0,2018,5,10,16,10,38.608,0.8492,-0.4847,-0.1971,0.0698
0.034,0.04,0.018,-8,61.1,15.5,0,2018,5,10,16,10,38.629,0.8539,-0.4767,-0.1966,0.0685
0.058,0.086,0.039,-7.7,50.7,13.8,0,2018,5,10,16,10,38.666,0.8596,-0.4671,-0.1953,0.0674
0.055,0.021,0.038,-6.3,23.2,12.1,0,2018,5,10,16,10,38.687,0.8634,-0.4607,-0.1943,0.0662
0.06,-0.005,0.068,-6.2,5,11.4,0,2018,5,10,16,10,38.691,0.8651,-0.4581,-0.1934,0.0644
0.066,0.016,0.039,-6.4,-10,9.6,0,2018,5,10,16,10,38.711,0.8657,-0.4576,-0.1926,0.0623
0.097,0.028,-0.002,-6.3,-24.4,6.6,0,2018,5,10,16,10,38.73,0.8649,-0.4598,-0.1916,0.06
0.085,0.031,-0.027,-4.7,-40.3,2.5,0,2018,5,10,16,10,38.751,0.8627,-0.4645,-0.1908,0.058
0.063,-0.023,-0.046,-2.3,-50.2,-0.7,0,2018,5,10,16,10,38.771,0.8589,-0.472,-0.1901,0.0562
0.064,-0.041,-0.051,-0.6,-44.2,-1.5,0,2018,5,10,16,10,38.788,0.8549,-0.4796,-0.1898,0.0548
0.054,-0.058,-0.024,-0.3,-28,-0.2,0,2018,5,10,16,10,38.809,0.8516,-0.4857,-0.1894,0.0538
0.035,-0.01,-0.019,0.3,-10,1.5,1023,2018,5,10,16,10,38.828,0.8502,-0.4883,-0.1892,0.0531
0.015,0.019,-0.061,3.3,-8.2,0.7,1023,2018,5,10,16,10,38.867,0.8493,-0.4898,-0.1895,0.0526
-0.011,-0.008,-0.045,4.7,-7.2,-1.9,1023,2018,5,10,16,10,38.871,0.8483,-0.4912,-0.1902,0.0526
-0.058,-0.068,-0.003,5.1,-0.7,-2.1,1023,2018,5,10,16,10,38.889,0.8476,-0.4921,-0.191,0.0528
-0.071,-0.04,0.017,3.2,8.1,-1,1023,2018,5,10,16,10,38.928,0.8478,-0.4914,-0.1918,0.0531
-0.048,0.018,0.015,1.1,8.8,0.1,1023,2018,5,10,16,10,38.947,0.8487,-0.4897,-0.1923,0.0532
-0.024,0.091,0.002,1,-0.7,0.3,1023,2018,5,10,16,10,38.951,0.8494,-0.4883,-0.1927,0.0529
-0.007,0.088,-0.023,3,-11.4,0.8,1023,2018,5,10,16,10,38.99,0.8489,-0.4889,-0.1933,0.0523
-0.041,0.033,-0.045,5.3,-14.9,3.5,1023,2018,5,10,16,10,39.01,0.8478,-0.4906,-0.1944,0.0514
-0.032,0.001,0.017,2.3,-6.6,9.9,1023,2018,5,10,16,10,39.015,0.8467,-0.492,-0.1959,0.05
-0.013,0.102,0.08,-4.1,-0.3,13.8,0,2018,5,10,16,10,39.034,0.8469,-0.4914,-0.197,0.0475
-0.001,0.064,0.062,-6,0.8,15,0,2018,5,10,16,10,39.05,0.8479,-0.4899,-0.1972,0.0445
-0.017,-0.014,0.001,-10.3,3.7,16.1,0,2018,5,10,16,10,39.087,0.8486,-0.4891,-0.1972,0.0411
-0.003,-0.02,-0.02,-11.4,8.1,14.4,0,2018,5,10,16,10,39.109,0.8494,-0.488,-0.1968,0.0377
0.005,-0.029,-0.007,-11.6,9.2,9.9,0,2018,5,10,16,10,39.113,0.8505,-0.4867,-0.1959,0.035
0.039,-0.043,0.017,-11,9,5.8,0,2018,5,10,16,10,39.131,0.8516,-0.4855,-0.1945,0.0331
0.077,-0.043,-0.008,-8.4,14.7,3.4,0,2018,5,10,16,10,39.15,0.8529,-0.4839,-0.1928,0.0322
0.126,0.026,-0.035,-4.4,18.6,1.6,0,2018,5,10,16,10,39.171,0.8545,-0.4819,-0.191,0.032
0.127,0.047,-0.062,2.1,6.9,-1,0,2018,5,10,16,10,39.21,0.8556,-0.4804,-0.1897,0.0326
0.108,0.021,-0.043,7.6,3.5,-3,0,2018,5,10,16,10,39.232,0.8556,-0.4803,-0.1895,0.0338
0.083,0.024,-0.011,10,-1,-5.6,0,2018,5,10,16,10,39.236,0.8554,-0.4805,-0.1896,0.0354
0.061,-0.05,-0.029,12.7,-8.4,-7.7,0,2018,5,10,16,10,39.253,0.8544,-0.4819,-0.1901,0.0374
0.045,-0.038,-0.026,12.6,-6.7,-7.7,0,2018,5,10,16,10,39.273,0.8532,-0.4835,-0.191,0.0395
0.051,0.039,-0.046,14.7,-7,-7.5,0,2018,5,10,16,10,39.291,0.8522,-0.4848,-0.1919,0.0416
0.002,0.039,-0.043,14.7,-11.7,-7.7,0,2018,5,10,16,10,39.311,0.8509,-0.4864,-0.1934,0.0435
-0.026,-0.009,-0.025,12.5,-13.5,-8.7,0,2018,5,10,16,10,39.331,0.8491,-0.4887,-0.195,0.0452
-0.032,-0.018,0,9.7,-12.3,-7.3,0,2018,5,10,16,10,39.352,0.8475,-0.4909,-0.1962,0.0465
-0.041,-0.003,0.007,7.3,-9.3,-7.5,0,2018,5,10,16,10,39.39,0.8463,-0.4924,-0.1971,0.0476
-0.021,0.042,0.002,6.7,-7.1,-8.8,0,2018,5,10,16,10,39.411,0.8454,-0.4937,-0.1975,0.0487
-0.016,0.006,0.03,4.2,-9.4,-11.3,0,2018,5,10,16,10,39.415,0.8445,-0.495,-0.1976,0.05
0.018,-0.022,0.053,3.8,-10.2,-12.4,0,2018,5,10,16,10,39.435,0.8437,-0.4966,-0.1969,0.0516
0.026,0.006,0.07,3.7,-6.4,-12.6,0,2018,5,10,16,10,39.456,0.8431,-0.4978,-0.1959,0.0535
0.033,0.029,0.038,4,-2.5,-13,0,2018,5,10,16,10,39.472,0.8428,-0.4985,-0.1949,0.0554
0.037,0.049,-0.014,5.8,-3.2,-14.2,0,2018,5,10,16,10,39.51,0.8426,-0.4989,-0.194,0.0578
0.022,0.005,-0.017,6.2,-4,-14.3,0,2018,5,10,16,10,39.529,0.842,-0.4999,-0.1935,0.0602
0.001,-0.047,-0.013,6.3,1.3,-11.6,0,2018,5,10,16,10,39.533,0.8415,-0.5006,-0.1931,0.0627
-0.01,0.008,0.037,3.7,15,-5.5,0,2018,5,10,16,10,39.567,0.8419,-0.4996,-0.1929,0.0644
-0.027,0.09,0.049,0.9,15.3,-0.2,1023,2018,5,10,16,10,39.588,0.8438,-0.4963,-0.1928,0.0652
-0.014,0.148,-0.017,2.3,0.7,2.2,1023,2018,5,10,16,10,39.593,0.8451,-0.494,-0.1931,0.065
-0.041,0.092,-0.061,5.9,-22.4,2.9,1023,2018,5,10,16,10,39.631,0.8443,-0.4952,-0.1944,0.0639
-0.065,0.012,-0.033,6.5,-33.8,2.8,1023,2018,5,10,16,10,39.651,0.8414,-0.4993,-0.1966,0.0624
-0.06,-0.034,0.008,6.1,-26.9,3.2,1023,2018,5,10,16,10,39.655,0.8384,-0.5038,-0.1985,0.0609
-0.064,-0.05,-0.001,5.5,-15.3,4.2,1023,2018,5,10,16,10,39.677,0.8365,-0.5064,-0.2003,0.0598
-0.043,-0.005,-0.034,6.7,-11.5,2.9,1023,2018,5,10,16,10,39.697,0.835,-0.5082,-0.2019,0.0588
-0.014,0.033,-0.061,9.4,-12,0.8,1023,2018,5,10,16,10,39.717,0.8336,-0.5099,-0.2037,0.0585
-0.026,-0.001,-0.048,10.1,-6.6,-1,1023,2018,5,10,16,10,39.737,0.8321,-0.5116,-0.2055,0.0586
-0.009,-0.039,-0.007,8.7,0.7,-1.6,1023,2018,5,10,16,10,39.753,0.8314,-0.5122,-0.2069,0.0593
-0.006,-0.04,0.015,7.8,9.2,-0.7,0,2018,5,10,16,10,39.774,0.8314,-0.5117,-0.2078,0.0603
0.018,0.037,0.016,5.8,10.7,0.3,0,2018,5,10,16,10,39.811,0.8323,-0.5098,-0.2084,0.0611
0.019,0.054,-0.002,5.3,4.4,1,0,2018,5,10,16,10,39.831,0.8332,-0.5081,-0.209,0.0617
0.003,0.036,0,4.3,-1.8,0.8,0,2018,5,10,16,10,39.835,0.8333,-0.5076,-0.2097,0.0618
-0.011,-0.012,0.034,1.4,-1.8,0.2,0,2018,5,10,16,10,39.873,0.8331,-0.5078,-0.2101,0.0617
0,0.016,0.065,-1.1,2.1,0.2,0,2018,5,10,16,10,39.895,0.8335,-0.5072,-0.2099,0.0615
0.014,0.035,0.01,-2.4,-3.2,0.7,0,2018,5,10,16,10,39.899,0.8338,-0.507,-0.2093,0.061
0.02,0.036,-0.056,2,-12.9,0.9,0,2018,5,10,16,10,39.918,0.8333,-0.508,-0.2093,0.0603
0.015,-0.007,-0.08,6.1,-16.7,-0.6,0,2018,5,10,16,10,39.937,0.8313,-0.5109,-0.2102,0.06
0.009,-0.018,-0.016,4.7,-2.7,-0.5,0,2018,5,10,16,10,39.977,0.83,-0.5127,-0.211,0.0601
0.023,0.01,-0.022,5.4,5.8,1.1,0,2018,5,10,16,10,39.981,0.8301,-0.5122,-0.2116,0.0605
0.032,0.005,-0.012,5.8,9.7,1.1,0,2018,5,10,16,10,39.997,0.8305,-0.5112,-0.2123,0.061
0.022,0.01,0.032,5.1,9.9,0.2,0,2018,5,10,16,10,40.017,0.8314,-0.5095,-0.2127,0.0617
0.038,0.052,0.016,5.5,5,0.4,0,2018,5,10,16,10,40.037,0.8321,-0.508,-0.2131,0.0623
0.007,0.002,0,5.4,-1.2,0,0,2018,5,10,16,10,40.058,0.832,-0.508,-0.2136,0.0626
-0.007,0.007,0,4.6,-2.1,-0.5,0,2018,5,10,16,10,40.077,0.8315,-0.5084,-0.2143,0.0628
-0.024,0.01,0.008,3.4,-3,-1.6,0,2018,5,10,16,10,40.098,0.8313,-0.5087,-0.2148,0.0629
-0.038,-0.073,-0.017,2.4,0.8,-2.5,0,2018,5,10,16,10,40.118,0.8308,-0.5093,-0.2151,0.063
-0.013,0.004,-0.011,0.4,3.1,-3.3,0,2018,5,10,16,10,40.157,0.831,-0.509,-0.2151,0.0635
-0.014,0.025,0.014,0.3,1.9,-2.6,0,2018,5,10,16,10,40.177,0.8314,-0.5084,-0.2148,0.0638
-0.011,0.023,0,0.8,-2.7,-2.7,0,2018,5,10,16,10,40.182,0.8315,-0.5083,-0.2147,0.064
0,0.034,-0.016,2.2,-4.9,-1.3,0,2018,5,10,16,10,40.198,0.831,-0.5089,-0.2147,0.064
0,0.009,0.001,2.8,-3.2,-2.1,0,2018,5,10,16,10,40.217,0.8306,-0.5095,-0.215,0.064
0,-0.001,0.001,1.4,-0.2,-2.9,0,2018,5,10,16,10,40.235,0.8304,-0.5099,-0.2149,0.0643
0.011,0.009,0.008,0.3,-0.7,-3.6,0,2018,5,10,16,10,40.277,0.8303,-0.51,-0.2146,0.0647
0.032,0.008,0.046,-2.4,-2.4,-3.2,0,2018,5,10,16,10,40.281,0.8303,-0.5103,-0.2139,0.0649
0.049,-0.023,0.058,-6.5,-2.7,-3.6,0,2018,5,10,16,10,40.3,0.8306,-0.5104,-0.2124,0.0649
0.045,0.027,0.06,-10.4,-7.5,-4.2,1023,2018,5,10,16,10,40.338,0.8308,-0.5111,-0.2103,0.0647
0.068,0.011,0.094,-18.2,-3.6,-3.6,1023,2018,5,10,16,10,40.357,0.8311,-0.512,-0.2073,0.0637
0.059,-0.048,0.122,-28,4.1,-3.5,1023,2018,5,10,16,10,40.361,0.8324,-0.5118,-0.2027,0.0622
0.062,-0.028,0.105,-31.2,3,-5.2,1023,2018,5,10,16,10,40.381,0.8341,-0.5114,-0.1973,0.0604
0.055,-0.014,0.073,-34,5.5,-6.7,1023,2018,5,10,16,10,40.401,0.8359,-0.511,-0.1911,0.0586
0.023,-0.003,0.023,-35.3,10.5,-9.7,1023,2018,5,10,16,10,40.441,0.8381,-0.51,-0.1847,0.057
0.04,-0.015,0.045,-35.8,10.1,-10.5,1023,2018,5,10,16,10,40.46,0.8401,-0.5093,-0.1781,0.0556
0.048,-0.028,0.065,-36.6,17,-11.7,1023,2018,5,10,16,10,40.464,0.8424,-0.5078,-0.171,0.0545
0.015,-0.019,0.001,-34.9,27.5,-10.6,1023,2018,5,10,16,10,40.478,0.8455,-0.5052,-0.1641,0.0535
0.004,0.026,-0.027,-34.1,34.6,-9.7,1023,2018,5,10,16,10,40.518,0.849,-0.5014,-0.1577,0.0527
0,0.019,-0.037,-31,28.9,-11.2,1023,2018,5,10,16,10,40.537,0.8524,-0.4976,-0.1516,0.052
-0.009,0.003,-0.022,-29.3,27,-11.3,0,2018,5,10,16,10,40.541,0.8553,-0.4944,-0.1459,0.0515
-0.004,0.01,-0.022,-28,36.3,-8,0,2018,5,10,16,10,40.561,0.8584,-0.4906,-0.1405,0.0509
0.027,0.074,-0.042,-26.5,28.9,-5.9,0,2018,5,10,16,10,40.599,0.8619,-0.4859,-0.1353,0.0502
-0.004,0.081,-0.049,-26.5,21.9,-3.3,0,2018,5,10,16,10,40.621,0.8647,-0.4824,-0.1307,0.049
-0.01,0.057,-0.014,-25.6,18,-0.4,0,2018,5,10,16,10,40.626,0.8668,-0.4799,-0.1264,0.047
-0.005,-0.005,-0.055,-28.8,46.2,5.3,0,2018,5,10,16,10,40.645,0.8699,-0.4756,-0.1224,0.0447
0.027,0.108,-0.08,-29.1,67.3,9.2,0,2018,5,10,16,10,40.664,0.8753,-0.4669,-0.118,0.0421
0.014,0.118,-0.069,-25.7,58.9,12.3,0,2018,5,10,16,10,40.684,0.8812,-0.4569,-0.1141,0.0393
-0.003,0.089,-0.058,-20.2,39.7,17,0,2018,5,10,16,10,40.7,0.8857,-0.4492,-0.1114,0.0357
-0.022,0.112,-0.09,-14.2,2.8,21.1,0,2018,5,10,16,10,40.72,0.8878,-0.4455,-0.1104,0.0313
-0.027,0.133,-0.128,-6.6,-39.6,23.5,0,2018,5,10,16,10,40.74,0.8866,-0.4481,-0.1112,0.0261
-0.072,0.048,-0.105,-1,-73.6,23.3,0,2018,5,10,16,10,40.778,0.8819,-0.457,-0.1134,0.0204
-0.104,-0.037,-0.09,2.9,-84.9,24.6,0,2018,5,10,16,10,40.799,0.8751,-0.4695,-0.1159,0.0149
-0.102,-0.06,-0.071,4.6,-75.2,26.6,0,2018,5,10,16,10,40.804,0.868,-0.482,-0.1186,0.0096
-0.125,-0.071,-0.095,5.5,-51.8,27.4,0,2018,5,10,16,10,40.822,0.8622,-0.4916,-0.1218,0.0044
-0.128,-0.173,-0.094,2.9,-21.6,21.9,0,2018,5,10,16,10,40.859,0.8585,-0.4973,-0.1246,0
-0.087,-0.177,-0.035,0.9,6,12.3,0,2018,5,10,16,10,40.881,0.8575,-0.4985,-0.1264,-0.0027
-0.044,-0.102,-0.015,1.5,9.6,4,0,2018,5,10,16,10,40.886,0.8579,-0.4976,-0.1274,-0.0039
-0.007,-0.025,-0.04,3.3,8.7,0.7,0,2018,5,10,16,10,40.901,0.8584,-0.4966,-0.128,-0.0041
-0.003,0.043,-0.019,2.9,12.7,2.8,0,2018,5,10,16,10,40.923,0.8592,-0.4951,-0.1286,-0.0041
0.008,0.072,0.018,2.3,18.8,7.1,0,2018,5,10,16,10,40.942,0.8607,-0.4922,-0.1294,-0.0046
0.02,0.052,0.008,0.8,22.7,11.1,0,2018,5,10,16,10,40.962,0.8626,-0.4886,-0.1302,-0.0057
0.016,0.012,0.017,-0.3,21.9,13.3,0,2018,5,10,16,10,40.982,0.8648,-0.4845,-0.1311,-0.0073
0.016,-0.003,-0.011,0.8,18.1,12.4,0,2018,5,10,16,10,41.02,0.8664,-0.4813,-0.1319,-0.0091
0.001,-0.059,0.003,-0.4,17.4,10,0,2018,5,10,16,10,41.04,0.8677,-0.4787,-0.1328,-0.0106
-0.008,-0.049,0.002,-1.8,21.2,6.8,0,2018,5,10,16,10,41.044,0.8692,-0.4758,-0.1332,-0.0117
-0.005,-0.003,0.005,-3.1,25.5,6,0,2018,5,10,16,10,41.066,0.8713,-0.472,-0.1332,-0.0125
-0.004,0.024,-0.013,-3.4,23.5,6,0,2018,5,10,16,10,41.085,0.8735,-0.4679,-0.1332,-0.0134
-0.008,0.007,-0.039,-2.1,20.5,6.4,1023,2018,5,10,16,10,41.123,0.8753,-0.4645,-0.1334,-0.0144
0,-0.005,-0.007,-2.6,21.3,6.6,1023,2018,5,10,16,10,41.127,0.8771,-0.461,-0.1335,-0.0153
0,0.006,0.016,-3.5,23,6.7,1023,2018,5,10,16,10,41.144,0.879,-0.4574,-0.1335,-0.0163
-0.006,0.003,-0.008,-4.8,25.3,7,1023,2018,5,10,16,10,41.164,0.8808,-0.4537,-0.1334,-0.0175
-0.004,0.022,-0.007,-5.2,25,7.7,1023,2018,5,10,16,10,41.184,0.8829,-0.4497,-0.1333,-0.0188
-0.01,0.014,-0.012,-5.8,23.2,7.7,1023,2018,5,10,16,10,41.22,0.8849,-0.4458,-0.1331,-0.0202
-0.015,0,0.005,-7.4,26.3,8,1023,2018,5,10,16,10,41.242,0.8869,-0.4417,-0.1328,-0.0217
-0.009,0.018,0.01,-9.8,26.4,7.9,1023,2018,5,10,16,10,41.246,0.8892,-0.4373,-0.1322,-0.0233
-0.005,0.051,0.025,-8.8,13.8,7.4,1023,2018,5,10,16,10,41.266,0.8911,-0.4334,-0.1313,-0.0251
-0.007,-0.009,-0.016,-6,1.8,4.7,1023,2018,5,10,16,10,41.289,0.8919,-0.4319,-0.1306,-0.0268
0.003,-0.059,-0.04,-4.5,5.8,2.7,0,2018,5,10,16,10,41.308,0.8921,-0.4318,-0.1299,-0.028
0.016,-0.026,-0.054,-2.3,16.6,1.4,0,2018,5,10,16,10,41.327,0.8928,-0.4303,-0.1294,-0.0284
0.029,0.032,-0.048,1.1,23.1,1.2,0,2018,5,10,16,10,41.365,0.8944,-0.427,-0.1293,-0.0282
0.015,0.031,-0.004,2.5,27,1.6,0,2018,5,10,16,10,41.385,0.8964,-0.4228,-0.1297,-0.0279
0.007,-0.05,-0.012,3.4,30.2,2.2,0,2018,5,10,16,10,41.389,0.8984,-0.4183,-0.1302,-0.0275
0.01,-0.022,0.034,0.7,28.5,2.8,0,2018,5,10,16,10,41.407,0.9005,-0.4137,-0.1307,-0.0272
0.014,0.058,0.07,-0.2,14.1,3.2,0,2018,5,10,16,10,41.424,0.9025,-0.4093,-0.1307,-0.0273
0.006,0.059,0.03,-1,0.5,2.5,0,2018,5,10,16,10,41.461,0.9034,-0.4074,-0.1306,-0.028
-0.01,0.015,0.006,-2.8,-3.2,1.6,0,2018,5,10,16,10,41.482,0.9035,-0.4071,-0.1303,-0.0288
-0.012,0.038,-0.01,-2.8,-5.8,0.2,0,2018,5,10,16,10,41.486,0.9034,-0.4073,-0.1299,-0.0295
-0.022,0.02,-0.015,-2.4,-4.3,-0.1,0,2018,5,10,16,10,41.507,0.9032,-0.4078,-0.1296,-0.0301
-0.015,-0.004,-0.038,-0.6,-4.1,-0.7,0,2018,5,10,16,10,41.527,0.9029,-0.4086,-0.1294,-0.0306
-0.008,0.017,-0.032,0.2,-2.3,-1,0,2018,5,10,16,10,41.561,0.9027,-0.409,-0.1294,-0.0308
-0.003,-0.017,-0.033,1.1,1.1,-1.9,0,2018,5,10,16,10,41.583,0.9027,-0.409,-0.1294,-0.0307
0.008,-0.012,-0.022,1.2,6.8,-1.3,0,2018,5,10,16,10,41.586,0.9029,-0.4086,-0.1293,-0.0304
0.008,-0.03,-0.012,2.7,5.7,-1.2,0,2018,5,10,16,10,41.604,0.9032,-0.4079,-0.1294,-0.0301
0.015,-0.011,-0.016,3.5,7,-0.8,0,2018,5,10,16,10,41.624,0.9035,-0.4072,-0.1297,-0.0297
0.016,0.049,-0.029,4.2,7,-0.3,0,2018,5,10,16,10,41.646,0.904,-0.406,-0.1301,-0.0294
0.003,0.023,-0.02,2,12.5,0.2,0,2018,5,10,16,10,41.665,0.9047,-0.4043,-0.1306,-0.0292
-0.008,0.013,0.028,0.1,12.5,0.2,0,2018,5,10,16,10,41.706,0.9058,-0.4019,-0.1307,-0.0291
-0.003,-0.009,0.024,-1,6.1,0.3,0,2018,5,10,16,10,41.708,0.9065,-0.4003,-0.1306,-0.0293
0.004,0.011,0.006,-0.9,0.5,0.8,0,2018,5,10,16,10,41.727,0.9067,-0.3998,-0.1304,-0.0296
0,0.01,0.004,-1,-0.8,0.7,0,2018,5,10,16,10,41.746,0.9067,-0.3999,-0.1302,-0.0302
0.01,0.043,0.007,-1.5,-3.8,0.5,0,2018,5,10,16,10,41.784,0.9068,-0.3997,-0.1298,-0.0307
-0.001,-0.01,-0.011,-0.2,-8.8,-1.5,0,2018,5,10,16,10,41.805,0.9064,-0.4007,-0.1295,-0.031
-0.001,-0.01,-0.029,0.6,-8.6,-3,0,2018,5,10,16,10,41.809,0.9059,-0.4019,-0.1293,-0.031
0,-0.016,-0.016,1.2,-6.2,-3.7,0,2018,5,10,16,10,41.824,0.9052,-0.4035,-0.1291,-0.0307
0.008,0.05,-0.009,1.3,-2.4,-2.1,0,2018,5,10,16,10,41.86,0.9051,-0.4038,-0.129,-0.0304
0.004,0.024,-0.011,1.5,1.3,-0.6,0,2018,5,10,16,10,41.881,0.9051,-0.4038,-0.129,-0.0303
0.002,0,0.03,0.2,3.5,1.3,1023,2018,5,10,16,10,41.888,0.9054,-0.4032,-0.1291,-0.0306
0.012,-0.033,-0.004,-1.8,9.4,2.6,1023,2018,5,10,16,10,41.907,0.9058,-0.4022,-0.129,-0.031
0.003,-0.006,-0.047,-1.9,15.2,4.4,1023,2018,5,10,16,10,41.93,0.9066,-0.4003,-0.129,-0.0314
-0.009,-0.086,-0.051,-6.2,29.4,4.1,1023,2018,5,10,16,10,41.949,0.908,-0.3972,-0.1288,-0.032
0.012,0.011,-0.035,-5.4,30,3.5,1023,2018,5,10,16,10,41.968,0.9102,-0.3922,-0.1281,-0.0325
0.01,0.049,0.042,-2.3,17.4,2.8,1023,2018,5,10,16,10,42.009,0.9121,-0.388,-0.1277,-0.0329
0.002,0.044,0.025,-0.8,4.5,2.8,1023,2018,5,10,16,10,42.031,0.9132,-0.3853,-0.1275,-0.0333
0.005,0.014,0.001,0.8,-4.1,0.7,1023,2018,5,10,16,10,42.035,0.9133,-0.385,-0.1275,-0.0339
-0.008,0.03,-0.01,1.8,-8.3,-1.3,1023,2018,5,10,16,10,42.053,0.9128,-0.3861,-0.1277,-0.0342
-0.007,0.053,0.002,1.2,-9.7,-2.7,0,2018,5,10,16,10,42.089,0.9123,-0.3873,-0.1277,-0.0342
-0.009,0.033,-0.001,1.7,-12.2,-3.2,0,2018,5,10,16,10,42.093,0.9117,-0.3888,-0.1277,-0.0342
-0.001,0.03,0.006,1.2,-11,-2.1,0,2018,5,10,16,10,42.111,0.9111,-0.3903,-0.1277,-0.0342
-0.006,-0.017,-0.008,1.6,-12.1,-1.9,0,2018,5,10,16,10,42.128,0.9104,-0.3919,-0.1277,-0.0343
-0.008,-0.057,-0.032,0.9,-4.8,-0.7,0,2018,5,10,16,10,42.148,0.9095,-0.3938,-0.1278,-0.0343
0.001,-0.046,-0.052,1.1,4.8,0.3,0,2018,5,10,16,10,42.189,0.9094,-0.3942,-0.1278,-0.0343
0.011,0.007,-0.037,1.1,10.6,0.7,0,2018,5,10,16,10,42.208,0.9098,-0.3931,-0.128,-0.0343
0.01,0.021,0.011,-0.1,10.2,1.3,0,2018,5,10,16,10,42.212,0.9106,-0.3913,-0.1281,-0.0344
0.019,0.01,0.012,-0.9,6.3,1.5,0,2018,5,10,16,10,42.232,0.9113,-0.3897,-0.1279,-0.0347
0.006,-0.018,-0.005,-0.8,4.3,2.1,0,2018,5,10,16,10,42.251,0.9116,-0.389,-0.1277,-0.0351
0.003,-0.003,-0.011,-0.5,3.5,1.6,0,2018,5,10,16,10,42.273,0.9119,-0.3883,-0.1276,-0.0355
0.003,0.03,0.007,-0.2,0.9,0.7,0,2018,5,10,16,10,42.295,0.912,-0.388,-0.1276,-0.0359
0,0.05,0.012,-0.6,-3.6,-0.3,0,2018,5,10,16,10,42.31,0.9123,-0.3873,-0.1274,-0.0363
-0.001,0.011,-0.004,-0.4,-4.4,-1.1,0,2018,5,10,16,10,42.33,0.9122,-0.3877,-0.1272,-0.0365
-0.007,-0.005,-0.013,1.7,-9.3,-2.6,0,2018,5,10,16,10,42.351,0.9118,-0.3886,-0.1271,-0.0365
-0.007,-0.043,-0.045,3.3,-7.2,-2.8,0,2018,5,10,16,10,42.389,0.911,-0.3904,-0.1273,-0.0362
0.002,0.043,0.028,0.3,1.1,-1.7,0,2018,5,10,16,10,42.411,0.9108,-0.391,-0.1274,-0.0359
-0.002,0.05,0.059,-0.7,-4.9,-1.4,0,2018,5,10,16,10,42.415,0.911,-0.3905,-0.1271,-0.036
-0.014,-0.079,-0.036,-0.9,-13.7,-0.7,0,2018,5,10,16,10,42.434,0.9104,-0.3919,-0.1267,-0.0365
-0.003,-0.094,-0.067,-0.3,0.2,-0.5,0,2018,5,10,16,10,42.455,0.9095,-0.394,-0.1266,-0.0366
0.01,0.054,-0.017,1.7,3.3,-0.5,0,2018,5,10,16,10,42.474,0.9097,-0.3937,-0.1265,-0.0366
0.011,0.082,-0.004,1.8,0.5,-0.5,0,2018,5,10,16,10,42.493,0.9101,-0.3927,-0.1267,-0.0366
0.007,0.027,-0.001,0.6,4,-1.6,0,2018,5,10,16,10,42.512,0.9102,-0.3923,-0.1268,-0.0365
0.011,0.015,-0.003,0.6,4.6,-1,0,2018,5,10,16,10,42.534,0.9106,-0.3915,-0.1267,-0.0364
0.01,-0.004,-0.005,1.4,3.1,-0.5,0,2018,5,10,16,10,42.552,0.9108,-0.3911,-0.1267,-0.0364
0.013,0.002,-0.003,0.8,3.8,0.3,0,2018,5,10,16,10,42.589,0.911,-0.3906,-0.1266,-0.0364
0.009,-0.004,-0.015,0.9,2.4,0,0,2018,5,10,16,10,42.609,0.9112,-0.3902,-0.1266,-0.0365
0.001,-0.031,0.004,0.1,2.2,0.7,0,2018,5,10,16,10,42.613,0.9112,-0.3901,-0.1267,-0.0366
0.002,0.047,0.005,-0.1,1.7,1,1023,2018,5,10,16,10,42.635,0.9114,-0.3896,-0.1267,-0.0369
-0.017,0.001,-0.008,1.1,-5.7,-0.8,1023,2018,5,10,16,10,42.655,0.9115,-0.3894,-0.1268,-0.0373
-0.011,-0.001,-0.021,0.5,-4.4,-1.6,1023,2018,5,10,16,10,42.675,0.911,-0.3904,-0.1268,-0.0374
-0.007,-0.01,-0.01,0.4,-3,-2.1,1023,2018,5,10,16,10,42.694,0.9107,-0.3911,-0.1268,-0.0373
0.007,0.014,-0.018,1.7,-1.7,-1.3,1023,2018,5,10,16,10,42.734,0.9106,-0.3915,-0.1268,-0.0372
0.002,0.029,0.001,1.5,0.5,0,1023,2018,5,10,16,10,42.753,0.9105,-0.3916,-0.1269,-0.0373
0.003,0.021,0.001,1.5,-1.5,0.3,1023,2018,5,10,16,10,42.758,0.9106,-0.3912,-0.1271,-0.0374
0.007,-0.039,-0.027,2,-0.9,-0.2,1023,2018,5,10,16,10,42.776,0.9104,-0.3917,-0.1273,-0.0375
0.004,-0.062,-0.014,1.5,1.7,-0.6,1023,2018,5,10,16,10,42.794,0.9101,-0.3923,-0.1274,-0.0374
0.007,-0.014,-0.013,2.9,1,-2.6,0,2018,5,10,16,10,42.814,0.9101,-0.3923,-0.1275,-0.037
0.004,0.036,-0.003,3.4,-5,-3.3,0,2018,5,10,16,10,42.834,0.9101,-0.3924,-0.1277,-0.0365
0.018,0.054,0.029,2.4,-10.6,-5.2,0,2018,5,10,16,10,42.874,0.9097,-0.3934,-0.1277,-0.036
0.01,0.062,0.064,0.5,-16.8,-5.1,0,2018,5,10,16,10,42.894,0.9091,-0.3949,-0.1273,-0.0357
0.011,0.001,0.013,1.2,-22.4,-6.5,0,2018,5,10,16,10,42.898,0.908,-0.3977,-0.1266,-0.0353
0.012,-0.011,-0.073,2.2,-16.1,-3.9,0,2018,5,10,16,10,42.915,0.9065,-0.4012,-0.1263,-0.0349
0.008,-0.019,-0.062,4.7,-11.1,-2.9,0,2018,5,10,16,10,42.935,0.9052,-0.404,-0.1265,-0.0345
0,0.004,-0.034,5.1,-0.2,-1.4,0,2018,5,10,16,10,42.974,0.9046,-0.4053,-0.1271,-0.0341
-0.014,0.003,-0.019,4.3,5.1,-0.7,0,2018,5,10,16,10,42.993,0.9045,-0.4052,-0.1279,-0.0338
-0.016,-0.002,-0.029,4.1,6.1,-0.5,0,2018,5,10,16,10,42.997,0.9047,-0.4046,-0.1287,-0.0337
-0.014,-0.021,-0.009,3.2,6.6,-0.8,0,2018,5,10,16,10,43.015,0.905,-0.4037,-0.1293,-0.0334
0.002,0.006,-0.006,2.2,7.9,-0.6,0,2018,5,10,16,10,43.036,0.9054,-0.4026,-0.1297,-0.0331
0.01,0.012,-0.009,2.6,7,-0.5,0,2018,5,10,16,10,43.055,0.906,-0.4012,-0.13,-0.0328
0.013,0.015,-0.018,2.9,9.4,-0.5,0,2018,5,10,16,10,43.076,0.9066,-0.3998,-0.1303,-0.0325
0.01,0.026,0,2.7,11.4,-0.7,0,2018,5,10,16,10,43.096,0.9074,-0.3981,-0.1306,-0.0321
0.015,-0.008,0.008,3.2,8.1,-0.5,0,2018,5,10,16,10,43.134,0.9081,-0.3964,-0.131,-0.0318
0.015,0.01,0.008,2.9,6,0,0,2018,5,10,16,10,43.154,0.9086,-0.395,-0.1312,-0.0314
0.002,0.001,0.001,2.8,2.7,-1.2,0,2018,5,10,16,10,43.158,0.9089,-0.3942,-0.1315,-0.0312
0.002,0.003,-0.013,2.8,1.6,-2.5,0,2018,5,10,16,10,43.178,0.909,-0.3941,-0.1317,-0.0309
-0.001,0.004,0.005,2.1,1.3,-2.6,0,2018,5,10,16,10,43.198,0.909,-0.394,-0.1319,-0.0305
0.008,0.01,0.004,2,-1,-2.2,0,2018,5,10,16,10,43.214,0.9091,-0.3939,-0.1319,-0.0301
0.01,0.018,-0.007,2.2,-1.3,-0.7,0,2018,5,10,16,10,43.251,0.9089,-0.3942,-0.1321,-0.03
0,0.03,0.01,2,-2.2,-0.8,0,2018,5,10,16,10,43.271,0.9088,-0.3944,-0.1323,-0.0301
-0.001,0.027,-0.001,2.8,-3.8,-2.7,0,2018,5,10,16,10,43.275,0.9086,-0.3947,-0.1326,-0.0299
-0.007,-0.044,-0.044,4,-6.7,-4.1,0,2018,5,10,16,10,43.314,0.9082,-0.3957,-0.1329,-0.0295
-0.005,-0.057,-0.039,4.3,2.2,-3.5,0,2018,5,10,16,10,43.334,0.9076,-0.397,-0.1333,-0.0288
-0.002,0.061,0.018,3.7,2.7,-2.3,0,2018,5,10,16,10,43.339,0.9077,-0.3965,-0.1337,-0.0281
-0.001,0.057,0.035,2.7,-6.8,-1.1,0,2018,5,10,16,10,43.358,0.908,-0.3959,-0.134,-0.0281
-0.002,-0.056,-0.025,1.8,-3.7,-3.2,0,2018,5,10,16,10,43.378,0.9074,-0.3971,-0.1342,-0.0279
0.004,-0.012,-0.029,2.5,0.3,-3.8,1023,2018,5,10,16,10,43.417,0.9071,-0.3978,-0.1341,-0.0273
0.021,0.017,-0.032,3.9,-0.8,-4.3,1023,2018,5,10,16,10,43.438,0.907,-0.3981,-0.1342,-0.0266
0.026,0.026,-0.027,4.5,1.7,-2.1,1023,2018,5,10,16,10,43.443,0.907,-0.398,-0.1345,-0.0258
0.018,0.009,-0.015,4.2,3.3,-1,1023,2018,5,10,16,10,43.456,0.9071,-0.3977,-0.1349,-0.0253
0.009,-0.002,0.018,3.2,7.2,-0.1,1023,2018,5,10,16,10,43.477,0.9075,-0.3968,-0.1353,-0.025
0.009,-0.001,0.006,2.5,5.8,0.4,1023,2018,5,10,16,10,43.498,0.908,-0.3955,-0.1356,-0.0248
0,-0.005,0.008,2.1,1.1,0,1023,2018,5,10,16,10,43.52,0.9083,-0.3948,-0.1359,-0.0247
0,0.018,0.005,1,-0.2,0.4,1023,2018,5,10,16,10,43.539,0.9083,-0.3946,-0.136,-0.0248
-0.009,0.028,0.02,0.4,-2.1,-0.1,1023,2018,5,10,16,10,43.579,0.9083,-0.3946,-0.1361,-0.025
-0.018,0.021,0.009,-0.7,-3.2,-0.8,1023,2018,5,10,16,10,43.583,0.9082,-0.3948,-0.1361,-0.0253
-0.021,0.012,0.014,-2.6,-5.7,-1.6,0,2018,5,10,16,10,43.599,0.908,-0.3953,-0.1358,-0.0256
-0.021,0.019,-0.008,-1.5,-13,-3.4,0,2018,5,10,16,10,43.638,0.9075,-0.3967,-0.1354,-0.026
-0.016,-0.019,-0.015,-1.2,-15.2,-4.7,0,2018,5,10,16,10,43.66,0.9065,-0.3991,-0.135,-0.0259
-0.011,0.017,0.011,-2.3,-14.1,-4.9,0,2018,5,10,16,10,43.664,0.9056,-0.4013,-0.1343,-0.0258
-0.018,-0.012,0.002,-5.5,-8.6,-5.3,0,2018,5,10,16,10,43.684,0.9049,-0.4032,-0.1333,-0.0257
0.005,-0.013,-0.012,-5.8,-8.8,-6.3,0,2018,5,10,16,10,43.703,0.9045,-0.4047,-0.1319,-0.0256
0.035,-0.006,-0.064,-3.5,-8.3,-6,0,2018,5,10,16,10,43.722,0.9038,-0.4066,-0.1305,-0.0252
0.027,-0.023,-0.056,-0.1,-4.9,-5.2,0,2018,5,10,16,10,43.738,0.9033,-0.4082,-0.1295,-0.0246
0.033,-0.02,-0.047,2.4,1.9,-4.4,0,2018,5,10,16,10,43.779,0.9029,-0.4091,-0.1291,-0.0238
0.033,0.011,-0.011,2.7,11.1,-2.2,0,2018,5,10,16,10,43.799,0.9033,-0.4084,-0.1289,-0.023
0.033,0.049,0.001,2.8,8.9,-0.7,0,2018,5,10,16,10,43.803,0.9042,-0.4063,-0.129,-0.0224
0.019,-0.009,-0.012,2.3,0.3,0.4,0,2018,5,10,16,10,43.84,0.9045,-0.4057,-0.1291,-0.0223
0.038,0.027,0,1.7,-7.2,0.7,0,2018,5,10,16,10,43.859,0.9044,-0.4059,-0.1292,-0.0224
0.017,0.002,0.022,-0.1,-16.7,-0.8,0,2018,5,10,16,10,43.864,0.9035,-0.4079,-0.1291,-0.0227
-0.003,-0.004,0.038,-2.7,-23.6,-2.3,0,2018,5,10,16,10,43.882,0.9022,-0.4109,-0.1284,-0.0232
0.006,-0.005,-0.022,-3.2,-25.8,-3.2,0,2018,5,10,16,10,43.903,0.9006,-0.4147,-0.1275,-0.0236
0.011,0.015,-0.048,-1.5,-27.4,-5.9,0,2018,5,10,16,10,43.922,0.8987,-0.4191,-0.1267,-0.0238
-0.006,-0.006,-0.036,-0.4,-26.2,-7.1,0,2018,5,10,16,10,43.94,0.8965,-0.4239,-0.1259,-0.0236
-0.009,0.031,0.004,0.9,-22.4,-6.7,0,2018,5,10,16,10,43.978,0.8947,-0.4279,-0.1253,-0.0233
-0.023,-0.005,-0.013,1.8,-16.7,-5,0,2018,5,10,16,10,43.998,0.8933,-0.431,-0.1251,-0.023
-0.007,0.002,-0.036,3,-7.2,-3.4,0,2018,5,10,16,10,44.002,0.8922,-0.4331,-0.1253,-0.0226
-0.014,0.002,-0.028,3.8,-1.7,-2.5,0,2018,5,10,16,10,44.022,0.8918,-0.4338,-0.1257,-0.0221
-0.015,0.014,-0.01,4.1,3.2,-1.4,0,2018,5,10,16,10,44.041,0.8918,-0.4338,-0.1262,-0.0218
-0.017,0.012,0.013,4.5,4.2,-2.1,0,2018,5,10,16,10,44.082,0.8921,-0.433,-0.1269,-0.0213
-0.009,0.017,0.02,3.7,5.7,-2.2,0,2018,5,10,16,10,44.102,0.8924,-0.4322,-0.1274,-0.0208
-0.009,0.033,0.026,2.8,4.7,-1.4,0,2018,5,10,16,10,44.106,0.8929,-0.4311,-0.1279,-0.0204
-0.007,0,0.038,0.9,2.4,-0.9,0,2018,5,10,16,10,44.125,0.8932,-0.4305,-0.128,-0.0203
-0.003,0.032,0.039,-1.3,-0.2,-0.4,1023,2018,5,10,16,10,44.144,0.8935,-0.4298,-0.1278,-0.0204
0,0.012,0.019,-2.4,-5.8,0,1023,2018,5,10,16,10,44.162,0.8934,-0.4302,-0.1274,-0.0208
0.002,0.015,-0.001,-2.3,-12.5,-1.1,1023,2018,5,10,16,10,44.182,0.8928,-0.4315,-0.1268,-0.0214
0.008,-0.017,-0.026,-1,-12,-1.7,1023,2018,5,10,16,10,44.202,0.8918,-0.4337,-0.1263,-0.0217
0.007,0.037,-0.01,-1.4,-10.5,-0.6,1023,2018,5,10,16,10,44.222,0.891,-0.4354,-0.1259,-0.022
0.003,-0.024,-0.041,0.3,-10,-1.4,1023,2018,5,10,16,10,44.242,0.8901,-0.4373,-0.1256,-0.0223
0.008,-0.041,-0.045,1.2,-2.3,-1.6,1023,2018,5,10,16,10,44.281,0.8896,-0.4385,-0.1255,-0.0221
0.013,0.013,-0.02,1.6,2.6,-0.4,1023,2018,5,10,16,10,44.301,0.8896,-0.4384,-0.1256,-0.0218
0.01,0.025,-0.02,2.2,4.7,0.8,1023,2018,5,10,16,10,44.306,0.8899,-0.4378,-0.1259,-0.0217
0.007,0.018,-0.022,2.6,6.6,1.7,1023,2018,5,10,16,10,44.326,0.8903,-0.4368,-0.1263,-0.0217
0.008,0.011,-0.002,2,3.6,1.2,0,2018,5,10,16,10,44.345,0.8907,-0.4358,-0.1267,-0.0217
0.007,0.001,0,1.5,2.9,0.9,0,2018,5,10,16,10,44.366,0.8908,-0.4356,-0.1269,-0.0219
0.004,0.006,-0.002,1,1.1,1,0,2018,5,10,16,10,44.404,0.891,-0.4352,-0.1271,-0.0221
0.004,0.024,-0.004,1.5,2.4,1.1,0,2018,5,10,16,10,44.424,0.8911,-0.4349,-0.1274,-0.0223
-0.002,0.035,0.003,1.5,-1.1,0.2,0,2018,5,10,16,10,44.428,0.8911,-0.4347,-0.1276,-0.0225
-0.009,-0.001,-0.014,1.4,-2,0,0,2018,5,10,16,10,44.445,0.891,-0.4349,-0.1279,-0.0226
-0.011,-0.022,-0.003,1.5,-0.7,-0.2,0,2018,5,10,16,10,44.465,0.8908,-0.4352,-0.1282,-0.0227
0,0.01,0.017,0.4,-1.9,-1,0,2018,5,10,16,10,44.486,0.8909,-0.435,-0.1282,-0.0226
0,0.018,0.004,-0.3,-3.9,-1.6,0,2018,5,10,16,10,44.506,0.8908,-0.4352,-0.1281,-0.0227
-0.003,0.024,-0.002,-0.2,-4.5,-1.2,0,2018,5,10,16,10,44.526,0.8907,-0.4355,-0.1279,-0.0228
0,-0.014,-0.032,1.1,-3,-2.2,0,2018,5,10,16,10,44.565,0.8903,-0.4364,-0.1278,-0.0227
0.013,-0.006,-0.026,2.2,-0.2,-2.7,0,2018,5,10,16,10,44.585,0.8899,-0.4372,-0.1278,-0.0224
0.012,0.009,-0.001,1.9,2.7,-2.2,0,2018,5,10,16,10,44.589,0.8898,-0.4374,-0.1278,-0.022
0.014,0.024,0.002,1.5,2.7,-1.7,0,2018,5,10,16,10,44.606,0.89,-0.437,-0.1278,-0.0217
0.015,0.032,0.005,0.8,2,-0.3,0,2018,5,10,16,10,44.625,0.8902,-0.4365,-0.1277,-0.0215
0.007,0.006,-0.003,0.6,0.7,-0.3,0,2018,5,10,16,10,44.643,0.8905,-0.436,-0.1276,-0.0215
0.004,-0.006,-0.008,0.4,0.5,-0.3,0,2018,5,10,16,10,44.664,0.8906,-0.4358,-0.1276,-0.0215
-0.009,0.012,0.022,-0.5,1,0.1,0,2018,5,10,16,10,44.702,0.8907,-0.4356,-0.1275,-0.0216
-0.01,0.032,0.008,-1.3,-4.1,0,0,2018,5,10,16,10,44.722,0.8907,-0.4357,-0.1273,-0.022
-0.022,0.04,0.004,-3.2,-4.6,1.3,0,2018,5,10,16,10,44.726,0.8904,-0.4364,-0.1271,-0.0227
-0.053,0.048,0.019,-6.5,-5.5,3.8,0,2018,5,10,16,10,44.762,0.8902,-0.4367,-0.1268,-0.024
-0.047,0.013,0.006,-9.9,-6.6,8.8,0,2018,5,10,16,10,44.783,0.89,-0.4371,-0.1264,-0.0262
-0.024,0.067,-0.013,-10.2,-12.1,12.4,0,2018,5,10,16,10,44.786,0.8896,-0.4378,-0.1258,-0.0292
0.004,0.024,-0.032,-9.4,-15.3,12.5,0,2018,5,10,16,10,44.807,0.8886,-0.4399,-0.1253,-0.0326
0.033,-0.016,-0.028,-7.8,-13.2,8.9,0,2018,5,10,16,10,44.826,0.8874,-0.4422,-0.1245,-0.0354
0.04,-0.098,-0.017,-6.2,-7.3,2.1,0,2018,5,10,16,10,44.843,0.8865,-0.4443,-0.1234,-0.037
0.059,-0.07,-0.019,-3.1,-1,-2.4,1023,2018,5,10,16,10,44.865,0.8861,-0.4455,-0.122,-0.0372
0.064,-0.026,-0.036,0.9,1,-4.5,1023,2018,5,10,16,10,44.903,0.8862,-0.4456,-0.121,-0.0364
0.057,-0.017,-0.035,4.3,3.2,-4.7,1023,2018,5,10,16,10,44.922,0.8862,-0.4457,-0.1205,-0.0352
0.035,0.025,-0.013,5,8.2,-2.9,1023,2018,5,10,16,10,44.925,0.8867,-0.445,-0.1206,-0.034
0.012,0.023,-0.002,4.8,9.1,-3,1023,2018,5,10,16,10,44.962,0.8873,-0.4437,-0.1209,-0.0331
-0.004,0.019,-0.004,4.1,8.6,-2.5,1023,2018,5,10,16,10,44.984,0.8879,-0.4423,-0.1214,-0.0322
-0.015,-0.001,-0.001,3.5,6.4,-3.5,1023,2018,5,10,16,10,44.988,0.8885,-0.4412,-0.1218,-0.0315
-0.015,0.012,-0.005,2.6,6.4,-2.7,1023,2018,5,10,16,10,45.01,0.889,-0.4401,-0.1222,-0.0309
-0.022,0.033,0.001,2.9,3,-2.2,1023,2018,5,10,16,10,45.03,0.8894,-0.4392,-0.1226,-0.0304
-0.011,0.031,-0.005,2.8,-0.7,-1.8,0,2018,5,10,16,10,45.05,0.8896,-0.4387,-0.123,-0.0301
-0.006,0.003,0.013,1.7,-1.9,-1.6,0,2018,5,10,16,10,45.071,0.8895,-0.4388,-0.1232,-0.0299
-0.006,-0.01,0.007,0.4,-0.1,-1.7,0,2018,5,10,16,10,45.092,0.8895,-0.4388,-0.1232,-0.0297
0.006,0.003,0.006,-0.4,-1.7,-2,0,2018,5,10,16,10,45.112,0.8895,-0.4389,-0.1229,-0.0296
0.009,0.005,-0.016,-0.1,-4.2,-2.1,0,2018,5,10,16,10,45.129,0.8893,-0.4395,-0.1225,-0.0295
0.007,0.014,-0.015,0,-2.5,-1.6,0,2018,5,10,16,10,45.149,0.889,-0.4401,-0.1222,-0.0294
-0.004,0.037,-0.026,0,0,-1.1,0,2018,5,10,16,10,45.17,0.8889,-0.4404,-0.1221,-0.0294
-0.015,0.012,-0.006,-0.4,0.8,-1.6,0,2018,5,10,16,10,45.189,0.8891,-0.4401,-0.122,-0.0294
-0.027,0.024,0.001,-1.2,1.7,-0.5,0,2018,5,10,16,10,45.209,0.8892,-0.4397,-0.122,-0.0295
-0.025,0.023,-0.008,-1.8,-0.5,1,0,2018,5,10,16,10,45.229,0.8893,-0.4396,-0.122,-0.03
-0.017,0.039,-0.029,-1.8,-1.4,3.5,0,2018,5,10,16,10,45.267,0.8892,-0.4397,-0.1221,-0.0309
-0.012,0.014,-0.027,-1.2,-0.7,3.5,0,2018,5,10,16,10,45.287,0.8891,-0.4397,-0.1223,-0.0318
0.005,0.004,0,-1.2,0.6,2.2,0,2018,5,10,16,10,45.291,0.8891,-0.4398,-0.1223,-0.0326
0.013,-0.024,0,-0.3,0.6,-0.2,0,2018,5,10,16,10,45.309,0.8891,-0.4398,-0.122,-0.0329
0.024,-0.027,-0.018,1.1,3.8,-1.6,0,2018,5,10,16,10,45.33,0.8891,-0.4399,-0.1218,-0.0328
0.031,0.006,-0.013,2.9,1.7,-2.8,0,2018,5,10,16,10,45.35,0.8892,-0.4397,-0.1216,-0.0322
0.043,0.022,0.003,3.3,-2.6,-2.8,0,2018,5,10,16,10,45.37,0.8892,-0.4399,-0.1215,-0.0316
0.037,-0.032,-0.015,4.3,-4.1,-4.6,0,2018,5,10,16,10,45.407,0.8888,-0.4406,-0.1214,-0.0308
0.034,-0.028,-0.02,4.6,0.7,-4.1,0,2018,5,10,16,10,45.426,0.8884,-0.4415,-0.1214,-0.0298
0.028,0.012,-0.002,4.2,3.3,-2.7,0,2018,5,10,16,10,45.43,0.8885,-0.4415,-0.1215,-0.0289
0.01,0.026,-0.011,4.3,2.7,-2.1,0,2018,5,10,16,10,45.469,0.8887,-0.441,-0.1218,-0.0282
-0.007,0,-0.018,3.8,5.3,-1.8,0,2018,5,10,16,10,45.489,0.8889,-0.4405,-0.1222,-0.0276
-0.023,0.015,0.009,2.7,4.7,-0.7,0,2018,5,10,16,10,45.494,0.8892,-0.4397,-0.1227,-0.0273
-0.029,0.023,0.026,0.9,1.7,-0.7,0,2018,5,10,16,10,45.514,0.8895,-0.439,-0.1231,-0.0273
-0.03,0.025,0.006,0,-0.7,-0.5,0,2018,5,10,16,10,45.554,0.8896,-0.4387,-0.1233,-0.0275
-0.012,0.039,-0.009,-0.4,-3.9,0.2,0,2018,5,10,16,10,45.558,0.8894,-0.439,-0.1234,-0.0278
-0.003,0.015,-0.009,-0.2,-6.9,0.1,1023,2018,5,10,16,10,45.574,0.889,-0.44,-0.1234,-0.0283
0,0,-0.013,0,-7.3,-0.5,1023,2018,5,10,16,10,45.592,0.8884,-0.4411,-0.1233,-0.0286
0.002,-0.017,-0.009,0,-5,-1.4,1023,2018,5,10,16,10,45.611,0.8879,-0.4421,-0.1231,-0.0287
0.018,0.031,-0.007,-0.6,-3.4,-0.7,1023,2018,5,10,16,10,45.632,0.8875,-0.443,-0.1228,-0.0287
0.01,0.022,0.002,0.1,-8.6,-1.4,1023,2018,5,10,16,10,45.651,0.8872,-0.4437,-0.1225,-0.0288
0.019,-0.021,-0.043,3.9,-13.3,-3.5,1023,2018,5,10,16,10,45.69,0.8863,-0.4456,-0.1223,-0.0286
0.009,-0.035,-0.05,5.5,-8.3,-4,1023,2018,5,10,16,10,45.71,0.885,-0.4482,-0.1226,-0.028
-0.003,0.05,0.021,3.4,-3,-3.1,1023,2018,5,10,16,10,45.714,0.8845,-0.4491,-0.123,-0.0273
-0.012,0.056,0.03,1.2,-2.8,-1.6,1023,2018,5,10,16,10,45.734,0.8846,-0.4489,-0.1231,-0.027
-0.003,0.019,-0.004,0.2,-6.7,-0.6,0,2018,5,10,16,10,45.755,0.8844,-0.4491,-0.1231,-0.0272
-0.001,-0.009,-0.03,2.3,-8.9,-1.1,0,2018,5,10,16,10,45.775,0.8835,-0.4509,-0.1232,-0.0273
-0.003,0.002,-0.012,3.3,-8.9,-2.1,0,2018,5,10,16,10,45.795,0.8827,-0.4525,-0.1235,-0.0272
-0.004,0.038,0.016,2,-10,-1.9,0,2018,5,10,16,10,45.816,0.8819,-0.454,-0.1237,-0.0272
-0.01,0.006,0.022,-0.2,-10.7,-2.1,0,2018,5,10,16,10,45.834,0.8811,-0.4554,-0.1236,-0.0272
0,0.003,-0.017,-1.7,-8.5,-2.5,0,2018,5,10,16,10,45.854,0.8805,-0.4568,-0.1232,-0.0273
0.008,0.002,-0.044,-0.4,-9.2,-2.9,0,2018,5,10,16,10,45.873,0.8798,-0.4583,-0.1228,-0.0273
0.011,-0.014,-0.022,0.7,-9.6,-3.3,0,2018,5,10,16,10,45.894,0.879,-0.4598,-0.1224,-0.0271
0.02,-0.007,0.021,0,-10.4,-2.2,0,2018,5,10,16,10,45.914,0.8781,-0.4617,-0.122,-0.0269
0.024,0.001,0.008,0.2,-10.5,-1.2,0,2018,5,10,16,10,45.951,0.8773,-0.4634,-0.1215,-0.0269
0.028,-0.005,-0.028,0.1,-9.4,-0.1,0,2018,5,10,16,10,45.973,0.8764,-0.4651,-0.1212,-0.027
0.02,-0.014,-0.031,2.5,-8.6,0.8,0,2018,5,10,16,10,45.977,0.8754,-0.467,-0.1211,-0.0272
0.012,-0.04,0.004,2.6,-2,0.6,0,2018,5,10,16,10,45.998,0.8748,-0.4682,-0.1213,-0.0273
0.013,0.008,-0.019,4.2,0,0.2,0,2018,5,10,16,10,46.017,0.8745,-0.4685,-0.1216,-0.0272
0.003,-0.005,-0.03,4.3,7.1,-0.3,0,2018,5,10,16,10,46.032,0.8747,-0.4681,-0.1222,-0.0269
-0.003,0.027,-0.006,4.6,6.5,-1.1,0,2018,5,10,16,10,46.069,0.8751,-0.4672,-0.1228,-0.0265
0.003,0.023,-0.013,4.4,3.6,-0.3,0,2018,5,10,16,10,46.091,0.8754,-0.4664,-0.1235,-0.0261
-0.005,0.018,-0.023,4,4.1,1,0,2018,5,10,16,10,46.095,0.8757,-0.4658,-0.1242,-0.0258
-0.008,0.041,0.016,2.6,3,1.4,0,2018,5,10,16,10,46.114,0.876,-0.465,-0.1248,-0.0259
-0.01,-0.008,0.017,0.8,-1.7,-0.3,0,2018,5,10,16,10,46.136,0.8761,-0.4647,-0.1252,-0.026
0.001,-0.011,0.002,0.1,-3.2,-0.7,0,2018,5,10,16,10,46.156,0.8759,-0.4652,-0.1251,-0.0261
0.006,0.001,-0.02,0.6,-2.7,-1,0,2018,5,10,16,10,46.178,0.8755,-0.4658,-0.125,-0.0262
-0.002,-0.005,-0.018,1.3,-0.6,-1.7,0,2018,5,10,16,10,46.215,0.8752,-0.4664,-0.125,-0.026
-0.004,0.034,0.003,0.6,-0.2,-1.8,0,2018,5,10,16,10,46.236,0.8752,-0.4665,-0.125,-0.0259
0.001,0.006,0.005,0.9,-1.6,-2,0,2018,5,10,16,10,46.24,0.8751,-0.4667,-0.1248,-0.0258
-0.002,-0.012,0.005,0.9,-0.7,-2.3,0,2018,5,10,16,10,46.256,0.8749,-0.4671,-0.1247,-0.0256
0.007,0.004,0.002,0.7,-0.9,-2.4,1023,2018,5,10,16,10,46.274,0.8748,-0.4673,-0.1246,-0.0254
0.01,0.002,-0.008,-0.1,-2.5,-2.5,1023,2018,5,10,16,10,46.313,0.8748,-0.4675,-0.1243,-0.0251
0.027,0.019,-0.016,-0.9,-6,-2.5,1023,2018,5,10,16,10,46.333,0.8746,-0.4679,-0.1238,-0.0249
0.033,-0.001,-0.015,-1.4,-10,-4.4,1023,2018,5,10,16,10,46.338,0.874,-0.4693,-0.1229,-0.0246
0.024,0.001,-0.008,-1.1,-15.2,-4.5,1023,2018,5,10,16,10,46.358,0.873,-0.4714,-0.122,-0.0243
0.043,0.005,-0.018,-0.2,-13,-4.9,1023,2018,5,10,16,10,46.377,0.872,-0.4734,-0.1212,-0.0239
0.018,-0.003,-0.032,0.1,-11.3,-4.9,1023,2018,5,10,16,10,46.397,0.871,-0.4756,-0.1204,-0.0235
0.005,-0.018,-0.024,0.9,-6,-6.4,1023,2018,5,10,16,10,46.435,0.8701,-0.4773,-0.1199,-0.0228
0.01,0.004,-0.025,1.1,-3.8,-7.4,1023,2018,5,10,16,10,46.456,0.8696,-0.4785,-0.1193,-0.0218
-0.015,0.011,-0.005,0.8,-2.5,-7.4,1023,2018,5,10,16,10,46.46,0.8692,-0.4793,-0.1188,-0.0209
-0.023,0.03,0.007,0.6,-1.7,-6.5,0,2018,5,10,16,10,46.478,0.8693,-0.4793,-0.1185,-0.02
-0.04,0.055,0.019,-0.5,-0.2,-4.1,0,2018,5,10,16,10,46.499,0.8694,-0.4792,-0.1183,-0.0196
-0.055,0.027,0.017,-1.2,-3.6,-4.2,0,2018,5,10,16,10,46.519,0.8694,-0.4792,-0.1181,-0.0195
-0.036,0.04,0.005,-1,-2.7,-3.1,0,2018,5,10,16,10,46.539,0.8693,-0.4794,-0.118,-0.0196
-0.024,0.028,-0.008,-0.2,-2.4,-2.2,0,2018,5,10,16,10,46.559,0.8692,-0.4797,-0.1178,-0.0196
-0.015,0.019,0.016,-0.8,-1.7,-0.8,0,2018,5,10,16,10,46.578,0.869,-0.48,-0.1177,-0.0198
-0.011,0.023,0.048,-2.7,-4.7,0.8,0,2018,5,10,16,10,46.599,0.8689,-0.4802,-0.1175,-0.0202
-0.02,0.038,0.028,-3.8,-6.7,3,0,2018,5,10,16,10,46.618,0.8687,-0.4806,-0.1171,-0.0212
0.004,0.007,-0.061,-3.3,-6,3.1,0,2018,5,10,16,10,46.638,0.8682,-0.4815,-0.1169,-0.0224
-0.01,-0.038,-0.085,-0.2,-0.3,3.1,0,2018,5,10,16,10,46.676,0.8676,-0.4825,-0.1171,-0.0232
0.014,-0.016,-0.019,0.9,4.4,1.1,0,2018,5,10,16,10,46.696,0.8675,-0.4828,-0.1173,-0.0236
0.022,-0.003,-0.005,0.8,2.7,1.4,0,2018,5,10,16,10,46.7,0.8677,-0.4824,-0.1173,-0.0236
0.022,0.017,0.018,-1.3,2.1,2.2,0,2018,5,10,16,10,46.745,0.8681,-0.4817,-0.1172,-0.0238
0.025,-0.023,0.014,-2.2,-0.3,0.2,0,2018,5,10,16,10,46.747,0.8683,-0.4814,-0.1168,-0.0242
0.042,-0.021,-0.01,-2.1,-2.1,-1.1,0,2018,5,10,16,10,46.757,0.8682,-0.4817,-0.1159,-0.0243
0.035,-0.029,-0.013,-2,-2.1,-2.5,0,2018,5,10,16,10,46.794,0.868,-0.4822,-0.1151,-0.0241
0.027,-0.018,0.001,-2.4,0.1,-3.9,0,2018,5,10,16,10,46.815,0.8679,-0.4828,-0.1141,-0.0238
0.01,0.003,0.007,-2.8,0.9,-4.2,0,2018,5,10,16,10,46.818,0.868,-0.4828,-0.1131,-0.0235
0.002,0.015,-0.006,-2.5,-0.2,-5.3,0,2018,5,10,16,10,46.856,0.8682,-0.4827,-0.1121,-0.0231
0.003,0.013,-0.032,-1.6,-3.5,-6.1,0,2018,5,10,16,10,46.876,0.868,-0.4833,-0.1112,-0.0226
0,-0.005,-0.027,-0.6,-2.5,-6.7,0,2018,5,10,16,10,46.879,0.8677,-0.484,-0.1105,-0.0218
0.002,-0.007,-0.013,0.6,2.4,-6.3,0,2018,5,10,16,10,46.9,0.8677,-0.4842,-0.1099,-0.0209
-0.01,-0.027,0.001,-1,13,-5,0,2018,5,10,16,10,46.92,0.8681,-0.4837,-0.1094,-0.0201
-0.001,-0.029,0.003,-3.3,32.1,-3.3,0,2018,5,10,16,10,46.961,0.8699,-0.4806,-0.1087,-0.0195
0.006,-0.027,-0.045,-4.3,50.6,-3.6,0,2018,5,10,16,10,46.965,0.8733,-0.4746,-0.1078,-0.0186
0.02,-0.006,-0.046,-3,55.9,-5.5,1023,2018,5,10,16,10,46.981,0.8776,-0.4668,-0.1069,-0.0173
-0.005,0.058,-0.028,-0.4,38.9,-7.2,1023,2018,5,10,16,10,46.999,0.8814,-0.4598,-0.1062,-0.0156
-0.006,0.076,-0.008,1.9,15.6,-6.8,1023,2018,5,10,16,10,47.037,0.8838,-0.4554,-0.106,-0.0143
-0.016,0.076,0.028,1.9,-1.1,-6.4,1023,2018,5,10,16,10,47.057,0.8845,-0.454,-0.1059,-0.0132
-0.02,0.057,0.019,1.5,-13.4,-6.2,1023,2018,5,10,16,10,47.061,0.8842,-0.4547,-0.1058,-0.0126
-0.033,-0.003,0.011,-0.1,-11.8,-5.8,1023,2018,5,10,16,10,47.082,0.8831,-0.4568,-0.1056,-0.0121
-0.018,0.029,0.005,0.1,-2.8,-2.8,1023,2018,5,10,16,10,47.101,0.8826,-0.4578,-0.1053,-0.0118
-0.005,0.058,0.014,0,1,-1.1,1023,2018,5,10,16,10,47.14,0.8827,-0.4577,-0.1053,-0.0118
0.013,0.06,-0.004,1.5,-1.7,0.8,1023,2018,5,10,16,10,47.16,0.8829,-0.4572,-0.1053,-0.0119
0.025,0.027,-0.012,3,-6.3,2.4,1023,2018,5,10,16,10,47.164,0.8826,-0.4578,-0.1056,-0.0122
0.017,0.003,-0.011,3.7,-10.3,2.1,0,2018,5,10,16,10,47.183,0.882,-0.4589,-0.1061,-0.0125
0.014,-0.038,-0.012,3.4,-6.9,2.4,0,2018,5,10,16,10,47.203,0.881,-0.4605,-0.1066,-0.0128
0.015,-0.012,-0.002,2.8,-0.3,1.8,0,2018,5,10,16,10,47.241,0.8807,-0.4611,-0.1071,-0.013
0.017,0.007,-0.003,0.9,0,1.8,0,2018,5,10,16,10,47.245,0.8807,-0.461,-0.1073,-0.0132
0.022,-0.017,-0.016,1.8,-3.9,-0.1,0,2018,5,10,16,10,47.261,0.8806,-0.4612,-0.1074,-0.0133
0.022,-0.037,-0.015,2.2,-9.4,-2.1,0,2018,5,10,16,10,47.283,0.8799,-0.4625,-0.1073,-0.013
0.012,-0.023,0,2.1,-11.8,-3.9,0,2018,5,10,16,10,47.302,0.8788,-0.4646,-0.1071,-0.0127
0.011,0.03,0.008,1.9,-14.1,-5.1,0,2018,5,10,16,10,47.341,0.8778,-0.4666,-0.1069,-0.0122
0.003,-0.004,0,1,-17.4,-7.4,0,2018,5,10,16,10,47.361,0.8764,-0.4693,-0.1065,-0.0117
0.002,-0.009,-0.041,2.3,-14.2,-9.2,0,2018,5,10,16,10,47.365,0.875,-0.4722,-0.1059,-0.0106
-0.011,-0.016,-0.027,2.3,-7.4,-9.3,0,2018,5,10,16,10,47.404,0.8738,-0.4745,-0.1055,-0.0094
-0.019,0.012,-0.002,1.5,-1.1,-8.3,0,2018,5,10,16,10,47.424,0.8734,-0.4753,-0.1052,-0.0081
-0.03,0.032,0.005,0.3,4.7,-4.9,0,2018,5,10,16,10,47.428,0.8735,-0.4751,-0.1049,-0.0073
-0.043,0.056,0.013,-0.6,6.4,-2.2,0,2018,5,10,16,10,47.441,0.8742,-0.4739,-0.1049,-0.0071
-0.039,0.02,-0.024,-0.6,1,-0.2,0,2018,5,10,16,10,47.478,0.8747,-0.473,-0.1051,-0.0073
-0.053,-0.044,0.015,-3.7,13.2,3.6,0,2018,5,10,16,10,47.498,0.875,-0.4723,-0.1051,-0.008
-0.054,0.077,0.069,-8.7,23.3,8.2,0,2018,5,10,16,10,47.502,0.8769,-0.4688,-0.105,-0.0095
-0.042,0.126,0.078,-13.1,22,12.2,0,2018,5,10,16,10,47.541,0.8797,-0.4637,-0.1044,-0.012
-0.032,0.095,0.077,-15.7,9.7,13.5,0,2018,5,10,16,10,47.562,0.8814,-0.4605,-0.1034,-0.0151
-0.025,0.041,0.046,-16.1,-4.4,13.3,0,2018,5,10,16,10,47.566,0.8822,-0.4592,-0.1021,-0.0189
-0.015,-0.002,0.008,-16.1,-10.6,13.9,0,2018,5,10,16,10,47.584,0.8818,-0.46,-0.1008,-0.0227
-0.007,-0.033,0.002,-16.8,-8.3,12.5,0,2018,5,10,16,10,47.607,0.8812,-0.4612,-0.0993,-0.0264
-0.004,-0.018,0.009,-17.7,-4.7,11.2,0,2018,5,10,16,10,47.628,0.881,-0.4619,-0.0975,-0.0298
0.01,-0.041,0,-18.1,-4.2,9.6,0,2018,5,10,16,10,47.648,0.8809,-0.4623,-0.0953,-0.0331
0.008,-0.039,-0.006,-17.9,-4.1,7.6,0,2018,5,10,16,10,47.663,0.8808,-0.4628,-0.0931,-0.0359
0.002,-0.072,-0.007,-18.5,-2,5.7,1023,2018,5,10,16,10,47.682,0.8805,-0.4636,-0.0905,-0.0386
-0.02,-0.049,-0.004,-19.7,4.7,3.5,1023,2018,5,10,16,10,47.702,0.8806,-0.4637,-0.088,-0.041
-0.012,-0.009,-0.003,-20.6,7.4,1.9,1023,2018,5,10,16,10,47.74,0.8812,-0.4628,-0.0851,-0.0432
-0.001,-0.014,-0.001,-20.7,12.7,0.9,1023,2018,5,10,16,10,47.76,0.8822,-0.4612,-0.0821,-0.0451
-0.004,-0.008,-0.025,-20.5,18,1.3,1023,2018,5,10,16,10,47.765,0.8837,-0.4587,-0.0792,-0.0469
0.015,0.03,-0.031,-20.5,23.6,1.8,1023,2018,5,10,16,10,47.801,0.8856,-0.4554,-0.0762,-0.0486
0.027,0.046,-0.021,-19.1,21.3,2.4,1023,2018,5,10,16,10,47.822,0.8877,-0.4515,-0.0734,-0.0502
0.005,-0.026,0.005,-18.5,20.6,2.8,1023,2018,5,10,16,10,47.826,0.8896,-0.4481,-0.0707,-0.0519
0.018,-0.004,-0.026,-16.3,21.9,4,1023,2018,5,10,16,10,47.863,0.8914,-0.4447,-0.0683,-0.0537
0.026,0.068,-0.069,-13.1,22.4,5.3,0,2018,5,10,16,10,47.884,0.8932,-0.4411,-0.0665,-0.0554
0.008,0.02,-0.021,-12.9,19.2,4.4,0,2018,5,10,16,10,47.888,0.8951,-0.4372,-0.0649,-0.0569
-0.005,-0.039,0.002,-12.7,20.5,4.6,0,2018,5,10,16,10,47.927,0.8968,-0.4338,-0.0634,-0.0584
0,-0.003,-0.002,-13.2,25.4,5.3,0,2018,5,10,16,10,47.931,0.8988,-0.4297,-0.062,-0.0599
0.001,0.028,0.006,-13.2,27.1,6.3,0,2018,5,10,16,10,47.947,0.901,-0.425,-0.0605,-0.0617
-0.01,-0.002,-0.033,-12.2,26.7,6.1,0,2018,5,10,16,10,47.965,0.9031,-0.4205,-0.0591,-0.0635
-0.008,0.039,-0.024,-12.3,25.8,5.7,0,2018,5,10,16,10,47.987,0.9051,-0.416,-0.0581,-0.0652
0,0.024,0.005,-11.8,15.3,4.8,0,2018,5,10,16,10,48.006,0.9066,-0.4125,-0.0568,-0.067
0.023,0.013,-0.009,-10,6.8,4.6,0,2018,5,10,16,10,48.026,0.9075,-0.4105,-0.0553,-0.0685
0.041,0.031,-0.045,-7.9,1.4,5.3,0,2018,5,10,16,10,48.049,0.9078,-0.4097,-0.054,-0.0699
0.052,0.038,-0.031,-7.2,1,6.6,0,2018,5,10,16,10,48.068,0.908,-0.4092,-0.0528,-0.0713
0.046,-0.003,-0.009,-8.4,4.6,7.8,0,2018,5,10,16,10,48.106,0.9082,-0.4087,-0.0516,-0.073
0.065,0.02,-0.065,-5.7,10.7,8.3,0,2018,5,10,16,10,48.127,0.9087,-0.4073,-0.0505,-0.0746
0.051,0.047,-0.082,-3,8.9,8.1,0,2018,5,10,16,10,48.131,0.9095,-0.4055,-0.0502,-0.0759
0.044,-0.016,-0.046,-1.2,6.3,5.3,0,2018,5,10,16,10,48.147,0.9098,-0.4045,-0.05,-0.077
0.054,-0.013,-0.038,0.9,0.9,4,0,2018,5,10,16,10,48.168,0.9098,-0.4044,-0.0499,-0.0776
0.042,-0.042,0,0.8,1.2,2.7,0,2018,5,10,16,10,48.187,0.9098,-0.4044,-0.0498,-0.078
0.041,-0.05,-0.025,1.2,4.7,1.3,0,2018,5,10,16,10,48.209,0.9099,-0.4042,-0.0496,-0.0782
0.034,-0.016,-0.04,2.1,10.2,0.8,0,2018,5,10,16,10,48.228,0.9103,-0.4034,-0.0496,-0.0781
0.04,0.03,-0.028,2.5,13.2,0.4,0,2018,5,10,16,10,48.265,0.9111,-0.4015,-0.0498,-0.0779
0.018,0.01,-0.005,2.3,13.1,-0.5,0,2018,5,10,16,10,48.287,0.9122,-0.399,-0.0501,-0.0775
0.007,0.015,0.039,1.2,12.8,-1.3,0,2018,5,10,16,10,48.291,0.9133,-0.3966,-0.0503,-0.0772
0.008,0.031,0.012,1.5,8.4,0.8,0,2018,5,10,16,10,48.328,0.9142,-0.3944,-0.0505,-0.077
-0.007,0.001,0.005,2.7,5.3,1.7,0,2018,5,10,16,10,48.333,0.9147,-0.3933,-0.0509,-0.0772
-0.016,0.032,0.004,3.3,3,1.7,0,2018,5,10,16,10,48.35,0.9151,-0.3922,-0.0517,-0.0774
-0.039,-0.003,0.026,1.4,2.7,0.4,0,2018,5,10,16,10,48.368,0.9153,-0.3916,-0.0524,-0.0777
-0.026,-0.011,0.016,0,4.2,-0.2,0,2018,5,10,16,10,48.387,0.9156,-0.3908,-0.0528,-0.0778
-0.032,-0.017,-0.025,0.5,6.2,-0.5,1023,2018,5,10,16,10,48.428,0.9157,-0.3903,-0.0531,-0.078
-0.018,0.023,-0.026,0.4,6.4,-1.2,1023,2018,5,10,16,10,48.449,0.9162,-0.3893,-0.0534,-0.078
-0.01,0.045,-0.011,0.6,2.5,-1.4,1023,2018,5,10,16,10,48.453,0.9165,-0.3886,-0.0536,-0.078
0,0.037,-0.008,0.8,-0.3,-0.4,1023,2018,5,10,16,10,48.472,0.9166,-0.3882,-0.0538,-0.0779
-0.006,-0.02,-0.001,1.1,0.8,1.1,1023,2018,5,10,16,10,48.491,0.9167,-0.388,-0.054,-0.0781
-0.003,-0.017,-0.001,0.5,7.3,2.5,1023,2018,5,10,16,10,48.511,0.917,-0.3872,-0.0543,-0.0783
0.006,-0.002,-0.007,-1.1,13,3.2,1023,2018,5,10,16,10,48.549,0.9177,-0.3854,-0.0544,-0.0788
0.012,0.027,-0.011,-0.3,10.5,2.6,1023,2018,5,10,16,10,48.57,0.9187,-0.383,-0.0546,-0.0791
0.001,-0.008,0.012,-0.7,7.7,0.9,1023,2018,5,10,16,10,48.574,0.9193,-0.3814,-0.0546,-0.0794
-0.008,-0.069,0.015,-1.8,13.1,0,1023,2018,5,10,16,10,48.594,0.9198,-0.3802,-0.0545,-0.0797
-0.012,-0.056,0.011,-4.3,27.8,-1.4,0,2018,5,10,16,10,48.614,0.9212,-0.3768,-0.0542,-0.0796
-0.002,0.023,0.008,-4,28.8,-2.9,0,2018,5,10,16,10,48.634,0.9232,-0.372,-0.0537,-0.0794
-0.009,0.035,0.034,-5.2,24,-4.2,0,2018,5,10,16,10,48.655,0.925,-0.3675,-0.0532,-0.079
-0.004,0.042,0.044,-6.9,18.5,-5.7,0,2018,5,10,16,10,48.67,0.9267,-0.3636,-0.0522,-0.0786
0.003,0.036,-0.025,-5.6,13.3,-4.9,0,2018,5,10,16,10,48.691,0.9279,-0.3608,-0.051,-0.0782
0.011,0.014,-0.067,-1.8,9.3,-4.7,0,2018,5,10,16,10,48.729,0.9286,-0.3592,-0.0502,-0.0777
0.01,0.047,-0.073,1,7.3,-4.6,0,2018,5,10,16,10,48.749,0.9291,-0.3581,-0.05,-0.0769
0.008,0.042,-0.016,1.3,5.5,-3.4,0,2018,5,10,16,10,48.753,0.9295,-0.3571,-0.05,-0.0763
0.007,-0.002,0.009,0.6,8.5,-1.1,0,2018,5,10,16,10,48.774,0.93,-0.3559,-0.05,-0.0759
0.021,0.015,-0.019,0.3,14.4,-0.1,0,2018,5,10,16,10,48.793,0.9307,-0.354,-0.05,-0.0758
0.025,0.017,-0.04,0.8,14.9,0.8,0,2018,5,10,16,10,48.831,0.9317,-0.3515,-0.05,-0.0757
0.024,0.023,-0.036,3.1,10.7,0.8,0,2018,5,10,16,10,48.852,0.9324,-0.3496,-0.0504,-0.0757
0.019,0.02,-0.01,3.7,7.4,1.4,0,2018,5,10,16,10,48.857,0.9329,-0.3483,-0.0509,-0.0757
0.01,0.019,0.013,2.6,2.7,1,0,2018,5,10,16,10,48.871,0.9332,-0.3474,-0.0514,-0.0759
0.005,0.025,0.018,1.5,-2.5,0.8,0,2018,5,10,16,10,48.911,0.9332,-0.3472,-0.0517,-0.0761
-0.01,0.037,0.02,0.9,-7.7,0,0,2018,5,10,16,10,48.915,0.933,-0.3476,-0.0519,-0.0763
-0.016,0.021,0.022,-0.6,-12.4,-1.5,0,2018,5,10,16,10,48.93,0.9325,-0.3491,-0.0518,-0.0765
-0.02,-0.015,0.037,-2.2,-15.3,-2.8,0,2018,5,10,16,10,48.967,0.9317,-0.3512,-0.0513,-0.0765
-0.02,-0.001,0.012,-0.6,-18.5,-2,0,2018,5,10,16,10,48.988,0.9307,-0.3539,-0.0508,-0.0766
-0.007,0.021,-0.024,0.9,-26.1,-2.2,0,2018,5,10,16,10,48.992,0.9293,-0.3576,-0.0505,-0.0767
0,-0.002,-0.042,1.5,-24.6,-2.2,0,2018,5,10,16,10,49.029,0.9277,-0.3617,-0.0503,-0.0766
0.005,-0.02,-0.039,0.6,-12.2,-2.4,0,2018,5,10,16,10,49.049,0.9263,-0.3653,-0.05,-0.0763
0.014,-0.002,-0.027,0,1.4,-0.6,0,2018,5,10,16,10,49.052,0.9261,-0.366,-0.0497,-0.0761
0.019,0.021,-0.02,0.2,2.7,0.2,0,2018,5,10,16,10,49.071,0.9264,-0.3652,-0.0496,-0.076
0.024,0.018,-0.01,0.7,1.7,0.6,0,2018,5,10,16,10,49.092,0.9266,-0.3648,-0.0496,-0.076
0.021,0.024,-0.015,0.8,0.5,0.9,0,2018,5,10,16,10,49.13,0.9266,-0.3648,-0.0495,-0.0763
0.019,0.018,-0.018,1.8,-1.2,1.1,0,2018,5,10,16,10,49.149,0.9265,-0.365,-0.0496,-0.0766
0.01,0.007,-0.006,2.1,-3,1.1,0,2018,5,10,16,10,49.151,0.9263,-0.3653,-0.0498,-0.0767
0,-0.018,0.003,2.6,-5.3,1,1023,2018,5,10,16,10,49.186,0.926,-0.3661,-0.0501,-0.0769
-0.012,-0.063,-0.01,2.4,-3.2,0.2,1023,2018,5,10,16,10,49.207,0.9254,-0.3673,-0.0505,-0.0771
-0.007,-0.014,-0.008,1.8,-2.6,0.2,1023,2018,5,10,16,10,49.214,0.9251,-0.3682,-0.0508,-0.0772
-0.002,0.038,-0.002,2.3,-5.3,-0.8,1023,2018,5,10,16,10,49.251,0.9248,-0.3688,-0.0511,-0.0773
-0.015,0.019,-0.004,1,-8.8,-1.3,1023,2018,5,10,16,10,49.273,0.9244,-0.3699,-0.0513,-0.0772
-0.009,0.002,0.003,-0.3,-2.9,-1,1023,2018,5,10,16,10,49.278,0.924,-0.3708,-0.0513,-0.0771
-0.014,-0.017,0.032,-0.1,4.7,-1,1023,2018,5,10,16,10,49.297,0.9241,-0.3705,-0.0512,-0.0772
-0.027,-0.027,0.015,-0.1,12.4,-1.1,1023,2018,5,10,16,10,49.317,0.9246,-0.3693,-0.0514,-0.0772
-0.014,0.038,-0.012,-0.2,11.6,-1.9,0,2018,5,10,16,10,49.335,0.9255,-0.3671,-0.0515,-0.0771
-0.018,0.025,-0.018,0.9,3.8,-3,0,2018,5,10,16,10,49.356,0.9261,-0.3656,-0.0517,-0.0767
-0.017,0.021,0.009,0.9,1.5,-3.3,0,2018,5,10,16,10,49.394,0.9262,-0.3652,-0.0518,-0.0764
-0.006,0.035,0.003,0.4,-0.4,-2.4,0,2018,5,10,16,10,49.413,0.9264,-0.3649,-0.0518,-0.0761
0.003,0.029,-0.038,2.5,-5.4,-0.9,0,2018,5,10,16,10,49.418,0.9263,-0.3652,-0.052,-0.0759
0.007,-0.007,-0.037,2.1,-1.9,-0.4,0,2018,5,10,16,10,49.453,0.9259,-0.3662,-0.0522,-0.0758
0.017,0.009,-0.013,2.1,1.7,-0.7,0,2018,5,10,16,10,49.473,0.9258,-0.3664,-0.0523,-0.0757
0.022,-0.009,-0.002,1,3.3,-0.7,0,2018,5,10,16,10,49.477,0.9261,-0.3657,-0.0523,-0.0755
0.03,-0.003,-0.009,1,1.4,-1.2,0,2018,5,10,16,10,49.497,0.9263,-0.3653,-0.0521,-0.0752
0.032,0.007,-0.013,2.3,-0.3,-2.1,0,2018,5,10,16,10,49.517,0.9264,-0.3653,-0.0519,-0.0749
0.028,0.014,-0.019,3.3,-4.9,-3,0,2018,5,10,16,10,49.555,0.9261,-0.366,-0.0519,-0.0744
0.017,0.016,-0.006,3.7,-8.4,-2.9,0,2018,5,10,16,10,49.559,0.9256,-0.3673,-0.052,-0.0739
0.008,0.003,-0.006,3.8,-8.3,-2.9,0,2018,5,10,16,10,49.579,0.9251,-0.3688,-0.0521,-0.0734
-0.001,-0.032,-0.003,3.6,-2.4,-1.9,0,2018,5,10,16,10,49.598,0.9246,-0.3701,-0.0524,-0.0729
-0.015,0,0.014,1.2,6.7,-0.7,0,2018,5,10,16,10,49.616,0.9247,-0.3697,-0.0528,-0.0726
-0.031,0.008,0.029,-0.5,9.3,-0.4,0,2018,5,10,16,10,49.637,0.9253,-0.3683,-0.053,-0.0728
-0.03,0.017,0.031,-2.7,7.4,-0.5,0,2018,5,10,16,10,49.674,0.9258,-0.3668,-0.053,-0.073
-0.013,0.056,0.023,-3,1.3,-0.8,0,2018,5,10,16,10,49.694,0.9264,-0.3655,-0.0526,-0.0733
-0.018,0.019,0,-1.8,-5.2,-1.6,0,2018,5,10,16,10,49.699,0.9263,-0.3656,-0.0522,-0.0735
-0.025,-0.028,-0.014,-0.3,-2,-2.2,0,2018,5,10,16,10,49.733,0.926,-0.3665,-0.0521,-0.0735
-0.004,-0.025,-0.038,-0.5,11.8,-3.8,0,2018,5,10,16,10,49.753,0.9262,-0.366,-0.0519,-0.0732
0.022,0.036,-0.087,4.2,16,-4.5,0,2018,5,10,16,10,49.756,0.927,-0.3642,-0.052,-0.0724
0.027,0.01,-0.055,6.8,10.5,-4.6,0,2018,5,10,16,10,49.793,0.9277,-0.3624,-0.0526,-0.0712
0.018,0,0.007,7.2,6,-5.3,0,2018,5,10,16,10,49.813,0.9282,-0.3615,-0.0533,-0.07
0.02,0.01,0.027,6.5,0,-4.6,0,2018,5,10,16,10,49.816,0.9284,-0.3609,-0.0539,-0.0688
0.023,0.002,-0.016,7,-2.3,-3.6,0,2018,5,10,16,10,49.851,0.9284,-0.3612,-0.0545,-0.0677
0.03,0.025,-0.014,4.5,0,-2.8,0,2018,5,10,16,10,49.872,0.9283,-0.3615,-0.0549,-0.0669
0.013,0.019,0.004,3.3,1.8,-1.6,0,2018,5,10,16,10,49.876,0.9284,-0.3612,-0.0552,-0.0663
0.008,0.013,0.032,1.9,1.6,-0.5,0,2018,5,10,16,10,49.909,0.9285,-0.3609,-0.0553,-0.0662
-0.015,0,0.027,0.8,3,0.7,1023,2018,5,10,16,10,49.932,0.9287,-0.3604,-0.0555,-0.0663
-0.018,0.025,0.019,-1.2,4.1,2,1023,2018,5,10,16,10,49.939,0.929,-0.3594,-0.0557,-0.0667
-0.028,-0.001,0.023,-2.9,3.6,2.1,1023,2018,5,10,16,10,49.976,0.9293,-0.3585,-0.0557,-0.0674
-0.036,0.017,0.029,-3.5,2.7,1.4,1023,2018,5,10,16,10,49.996,0.9296,-0.3578,-0.0555,-0.0682
-0.025,0.023,0,-2.3,-3,0.6,1023,2018,5,10,16,10,49.999,0.9297,-0.3573,-0.0553,-0.0687
-0.026,0.002,-0.005,-1.1,-4.5,0.2,1023,2018,5,10,16,10,50.017,0.9294,-0.3582,-0.0552,-0.0693
-0.016,0.016,-0.01,-0.6,-5.1,-0.6,1023,2018,5,10,16,10,50.039,0.9291,-0.3589,-0.0552,-0.0696
-0.009,0.016,-0.045,1.8,-5.7,-0.9,1023,2018,5,10,16,10,50.073,0.9286,-0.3599,-0.0553,-0.0697
0,-0.012,-0.05,2.9,1.4,-1,1023,2018,5,10,16,10,50.096,0.9283,-0.3608,-0.0557,-0.0696
0.021,0.005,-0.024,3.7,7.8,-0.7,0,2018,5,10,16,10,50.101,0.9285,-0.3602,-0.0561,-0.0692
0.019,-0.002,0.002,2.3,7.1,0.7,0,2018,5,10,16,10,50.121,0.929,-0.359,-0.0565,-0.069
0.042,0.006,-0.011,2,6,0.7,0,2018,5,10,16,10,50.142,0.9294,-0.3578,-0.0566,-0.069
0.039,0.018,-0.015,1.2,2.3,0.5,0,2018,5,10,16,10,50.161,0.9297,-0.3572,-0.0565,-0.069
0.034,0.006,0.002,0.1,-0.8,-0.3,0,2018,5,10,16,10,50.182,0.9297,-0.3571,-0.0562,-0.069
0.015,-0.009,0.005,-0.6,-1.3,-2.2,0,2018,5,10,16,10,50.222,0.9298,-0.3571,-0.0558,-0.0688
0.009,-0.025,-0.001,-1.1,-0.8,-3.2,0,2018,5,10,16,10,50.241,0.9297,-0.3575,-0.0552,-0.0685
0.001,-0.006,-0.001,0,-0.2,-4.2,0,2018,5,10,16,10,50.245,0.9296,-0.3577,-0.0548,-0.068
0.009,-0.002,-0.001,-0.4,-0.7,-5.3,0,2018,5,10,16,10,50.261,0.9297,-0.3578,-0.0544,-0.0673
-0.012,-0.017,0.018,0.1,2.2,-6.5,0,2018,5,10,16,10,50.281,0.9299,-0.3576,-0.0539,-0.0664
-0.009,-0.014,-0.028,3.3,-2.8,-7.2,0,2018,5,10,16,10,50.319,0.93,-0.3576,-0.0538,-0.0653
-0.01,-0.033,-0.056,5.3,-3.3,-9.1,0,2018,5,10,16,10,50.339,0.9296,-0.3588,-0.0541,-0.064
0.003,-0.013,-0.043,6.9,0.2,-11.2,0,2018,5,10,16,10,50.344,0.9293,-0.3598,-0.0545,-0.062
0.01,0,-0.014,8.1,3.7,-11.7,0,2018,5,10,16,10,50.363,0.9294,-0.3598,-0.0549,-0.0597
0.005,0.009,0.01,8.4,4.4,-10.7,0,2018,5,10,16,10,50.384,0.9297,-0.3593,-0.0554,-0.0573
0.017,0.024,0.001,6.8,4.8,-9.1,0,2018,5,10,16,10,50.403,0.9301,-0.3585,-0.0559,-0.0553
0.02,0.032,-0.013,5.5,4.4,-7.1,0,2018,5,10,16,10,50.423,0.9305,-0.3576,-0.0563,-0.0537
0.01,0.046,-0.007,5.2,3.5,-5.8,0,2018,5,10,16,10,50.462,0.9309,-0.3569,-0.0567,-0.0523
0.002,0.023,0.014,4.4,2.2,-4.3,0,2018,5,10,16,10,50.466,0.9312,-0.3562,-0.0571,-0.0513
-0.009,-0.003,0.021,2.1,9.7,-3.4,0,2018,5,10,16,10,50.484,0.9316,-0.3551,-0.0574,-0.0505
-0.017,0.002,0.038,-1,19.4,-2.7,0,2018,5,10,16,10,50.503,0.9326,-0.3524,-0.0576,-0.05
-0.031,0.028,0.066,-3.2,26.1,-3,0,2018,5,10,16,10,50.522,0.9343,-0.348,-0.0573,-0.0496
-0.03,0.127,0.009,-3.7,10.8,-3.2,0,2018,5,10,16,10,50.54,0.9359,-0.3439,-0.057,-0.0495
-0.035,0.105,0.019,-4.3,-13.1,-3.3,0,2018,5,10,16,10,50.58,0.9362,-0.3431,-0.0564,-0.0495
-0.023,0.048,-0.016,-2.6,-29.2,-2.2,0,2018,5,10,16,10,50.6,0.9351,-0.3462,-0.0558,-0.0498
-0.014,0.012,-0.065,1.6,-30,-0.1,0,2018,5,10,16,10,50.604,0.9331,-0.3514,-0.0556,-0.0502
-0.006,-0.021,-0.067,4.5,-17.2,0.8,0,2018,5,10,16,10,50.645,0.9315,-0.3557,-0.0561,-0.0504
0,0.001,-0.053,5.9,-1,2.2,0,2018,5,10,16,10,50.649,0.9307,-0.3576,-0.057,-0.0505
0.016,0.037,-0.058,7.4,6.4,2.7,0,2018,5,10,16,10,50.665,0.9308,-0.3571,-0.0583,-0.0505
0.023,0.022,-0.036,7.9,4.2,2.8,1023,2018,5,10,16,10,50.683,0.931,-0.3563,-0.0595,-0.0505
0.031,-0.024,0.024,7.5,4.6,2.4,1023,2018,5,10,16,10,50.719,0.9312,-0.3556,-0.0607,-0.0504
0.028,-0.041,0.031,6.8,1,1.7,1023,2018,5,10,16,10,50.737,0.9313,-0.3551,-0.0617,-0.0503
0.014,-0.06,0.011,7.2,0.8,2,1023,2018,5,10,16,10,50.743,0.9311,-0.3556,-0.0627,-0.0502
0.007,-0.021,0.021,5.3,3.5,1.4,1023,2018,5,10,16,10,50.779,0.9311,-0.3554,-0.0637,-0.0501
0.001,-0.014,0.023,3.1,3.3,0,1023,2018,5,10,16,10,50.799,0.9313,-0.3548,-0.0643,-0.0501
-0.003,-0.006,0.029,2.2,0.5,-1.8,1023,2018,5,10,16,10,50.804,0.9315,-0.3542,-0.0647,-0.0498
-0.019,0.005,0.03,1.8,-1.3,-1.9,1023,2018,5,10,16,10,50.842,0.9316,-0.3541,-0.0649,-0.0495
-0.032,0,0.01,2.5,-8.7,-1.8,1023,2018,5,10,16,10,50.862,0.9313,-0.3548,-0.0653,-0.0493
-0.024,0.008,-0.034,3.3,-11.1,-2.2,0,2018,5,10,16,10,50.865,0.9306,-0.3566,-0.0658,-0.0491
-0.004,-0.002,-0.04,2.8,-4,-2.1,0,2018,5,10,16,10,50.902,0.9299,-0.3582,-0.0662,-0.0489
-0.01,-0.009,-0.036,3,5.7,-0.5,0,2018,5,10,16,10,50.922,0.9298,-0.3584,-0.0666,-0.0486
-0.01,0.017,-0.013,1.1,8.9,0,0,2018,5,10,16,10,50.925,0.9303,-0.3571,-0.0672,-0.0484
0.005,0.023,-0.004,-0.5,8.5,0.6,0,2018,5,10,16,10,50.943,0.931,-0.3553,-0.0673,-0.0485
0.01,0.024,-0.001,-2.4,5.2,1.7,0,2018,5,10,16,10,50.962,0.9315,-0.3541,-0.0671,-0.0489
0.02,0.019,-0.021,-3.3,0.2,2.7,0,2018,5,10,16,10,51.001,0.9317,-0.3534,-0.0666,-0.0495
0.01,0.003,-0.018,-4,0,3.5,0,2018,5,10,16,10,51.021,0.9318,-0.3533,-0.066,-0.0502
0.007,-0.001,-0.002,-4.2,1.9,3.5,0,2018,5,10,16,10,51.024,0.9318,-0.3531,-0.0655,-0.0512
0.003,0,0.016,-5.3,2.1,3.1,0,2018,5,10,16,10,51.064,0.932,-0.3527,-0.0648,-0.0521
0.012,0.008,0.007,-5.4,-1.2,3.3,0,2018,5,10,16,10,51.084,0.9319,-0.3527,-0.064,-0.0532
-0.007,0.02,-0.005,-4.2,-6.6,3.9,0,2018,5,10,16,10,51.087,0.9318,-0.3531,-0.0633,-0.0542
-0.01,0.009,-0.031,-1.8,-12.1,3,0,2018,5,10,16,10,51.124,0.9311,-0.3547,-0.063,-0.0553
-0.009,-0.002,-0.044,0,-11.1,1,0,2018,5,10,16,10,51.144,0.9303,-0.3568,-0.063,-0.056
-0.004,-0.014,-0.038,0.8,-4.6,0.1,0,2018,5,10,16,10,51.149,0.9297,-0.3583,-0.0631,-0.0562
-0.001,-0.004,-0.017,1.6,3.3,0.5,0,2018,5,10,16,10,51.165,0.9296,-0.3585,-0.0633,-0.0562
0.017,0.025,-0.016,3,4,0.6,0,2018,5,10,16,10,51.184,0.9298,-0.3579,-0.0636,-0.0563
0.024,0.043,-0.03,5.5,2.8,1.7,0,2018,5,10,16,10,51.206,0.9299,-0.3574,-0.0642,-0.0563
0.008,0.038,-0.017,4.8,4.6,2.2,0,2018,5,10,16,10,51.225,0.9302,-0.3566,-0.0652,-0.0564
0.018,0.02,0.027,2.8,3.4,1,0,2018,5,10,16,10,51.246,0.9305,-0.3557,-0.0658,-0.0565
0.023,0.001,0.039,1.4,2.6,0.1,0,2018,5,10,16,10,51.282,0.9307,-0.355,-0.0659,-0.0565
0.017,-0.018,0.038,0,1.7,0,0,2018,5,10,16,10,51.303,0.931,-0.3545,-0.0658,-0.0565
0.022,-0.017,0.033,-2.1,0.5,0,0,2018,5,10,16,10,51.306,0.9311,-0.3543,-0.0653,-0.0567
0.018,0.03,0.01,-1.3,-3.3,0.5,0,2018,5,10,16,10,51.343,0.9312,-0.354,-0.0647,-0.0568
0.011,0.024,-0.019,-0.1,-8.5,0.7,0,2018,5,10,16,10,51.363,0.9309,-0.3548,-0.0644,-0.0571
0,0.009,-0.017,0.3,-8.3,-0.2,0,2018,5,10,16,10,51.366,0.9304,-0.3561,-0.0643,-0.0573
0.001,0,-0.027,1.9,-6,-1.2,0,2018,5,10,16,10,51.385,0.9298,-0.3576,-0.0643,-0.0574
-0.008,0.004,-0.069,5.7,-2.3,-1.2,0,2018,5,10,16,10,51.406,0.9295,-0.3584,-0.0649,-0.057
-0.001,-0.021,-0.049,6.2,4.1,-1.9,0,2018,5,10,16,10,51.426,0.9294,-0.3586,-0.0659,-0.0564
-0.008,0.005,-0.011,6.1,4.4,-2.2,1023,2018,5,10,16,10,51.448,0.9296,-0.358,-0.067,-0.0557
-0.001,0,0.014,4.5,1.2,-1.8,1023,2018,5,10,16,10,51.482,0.9297,-0.3576,-0.0677,-0.0552
0,-0.005,0.017,2.7,0.2,-1.4,1023,2018,5,10,16,10,51.502,0.9297,-0.3575,-0.0681,-0.0548
0.007,0.006,-0.01,1.5,-1.7,-0.5,1023,2018,5,10,16,10,51.508,0.9297,-0.3576,-0.0683,-0.0546
0.005,0,-0.012,1.5,-4.7,0.3,1023,2018,5,10,16,10,51.547,0.9294,-0.3583,-0.0685,-0.0546
0.003,-0.005,-0.003,0.8,-3.6,0.4,1023,2018,5,10,16,10,51.568,0.9291,-0.3591,-0.0685,-0.0548
-0.003,0.007,-0.006,0.9,-6.1,0,1023,2018,5,10,16,10,51.572,0.9288,-0.3598,-0.0687,-0.055
-0.004,-0.008,0.003,0.4,-7.2,-1,1023,2018,5,10,16,10,51.593,0.9283,-0.3609,-0.0687,-0.055
0.011,0.022,-0.02,2.5,-8.9,-1.1,1023,2018,5,10,16,10,51.612,0.9279,-0.3622,-0.0687,-0.0549
0.015,0.03,-0.032,4.5,-16.3,-1.6,0,2018,5,10,16,10,51.651,0.927,-0.3644,-0.069,-0.0547
0.018,-0.001,0.007,3.7,-21.6,-2.7,0,2018,5,10,16,10,51.655,0.9258,-0.3676,-0.0691,-0.0545
0.011,-0.013,0.032,2,-24.2,-4.5,0,2018,5,10,16,10,51.671,0.9242,-0.3715,-0.0689,-0.0541
-0.006,-0.087,0.017,0.9,-20,-5.9,0,2018,5,10,16,10,51.707,0.9228,-0.3752,-0.0684,-0.0535
-0.006,-0.117,-0.014,1.5,-10,-6.4,0,2018,5,10,16,10,51.727,0.9216,-0.3784,-0.0679,-0.0526
-0.027,-0.081,0.016,3.6,7.5,-4.1,0,2018,5,10,16,10,51.732,0.9214,-0.379,-0.068,-0.0515
-0.077,-0.124,0.02,-6.6,40.2,-2.8,0,2018,5,10,16,10,51.766,0.9227,-0.3759,-0.068,-0.051
-0.032,0.035,-0.02,-12,65.6,-0.6,0,2018,5,10,16,10,51.783,0.9261,-0.3674,-0.0671,-0.0511
-0.015,0.181,-0.034,-11.9,59.4,0.5,0,2018,5,10,16,10,51.791,0.9307,-0.3559,-0.066,-0.0514
-0.032,0.187,-0.002,-8.9,29.1,0.3,0,2018,5,10,16,10,51.828,0.9334,-0.3488,-0.0648,-0.0517
-0.022,0.164,0.021,-6.7,-5.1,1.2,0,2018,5,10,16,10,51.847,0.9341,-0.3472,-0.0636,-0.0522
-0.005,0.081,-0.014,-3.3,-28.8,-0.8,0,2018,5,10,16,10,51.85,0.9332,-0.3495,-0.0628,-0.0531
0.012,0.053,-0.055,4.1,-48.5,-2.9,0,2018,5,10,16,10,51.89,0.9309,-0.3556,-0.0624,-0.0533
0.036,0.014,-0.081,9.9,-53.1,-2.8,0,2018,5,10,16,10,51.894,0.9275,-0.3646,-0.0627,-0.053
0.04,-0.007,-0.063,12.3,-43.2,-1.4,0,2018,5,10,16,10,51.91,0.924,-0.3731,-0.0636,-0.0525
0.034,-0.042,-0.039,13.9,-26.6,-0.6,0,2018,5,10,16,10,51.95,0.9215,-0.3793,-0.065,-0.0517
0.015,-0.076,0,11.4,-3.3,0,0,2018,5,10,16,10,51.971,0.9201,-0.3824,-0.0666,-0.0509
0.006,-0.059,0.024,8.7,15,1.2,0,2018,5,10,16,10,51.975,0.9205,-0.3813,-0.0681,-0.0502
-0.026,-0.023,0.02,7,14.6,1.9,0,2018,5,10,16,10,51.994,0.9214,-0.379,-0.0696,-0.05
-0.032,0.006,-0.008,8,6.3,2.4,0,2018,5,10,16,10,52.015,0.9219,-0.3774,-0.0712,-0.0499
-0.05,0.018,0.006,7.8,0,1.4,0,2018,5,10,16,10,52.053,0.9219,-0.377,-0.0731,-0.05
-0.038,0.055,0.009,8.9,-3.9,1,0,2018,5,10,16,10,52.058,0.9216,-0.3773,-0.0749,-0.05
-0.019,0.042,-0.004,6.5,-4.2,1,0,2018,5,10,16,10,52.074,0.9214,-0.3776,-0.0764,-0.05
-0.012,0.012,0.013,4.7,-1.9,0.5,0,2018,5,10,16,10,52.091,0.9212,-0.3779,-0.0775,-0.05
0.026,0.012,0.025,3.9,-1.8,0.5,0,2018,5,10,16,10,52.112,0.9211,-0.3779,-0.0781,-0.0499
0.026,0.036,-0.019,6.6,-7.3,1.3,0,2018,5,10,16,10,52.132,0.921,-0.3782,-0.0787,-0.0498
0.018,-0.009,-0.029,7.1,-15.5,0.3,0,2018,5,10,16,10,52.152,0.92,-0.3803,-0.0796,-0.0497
0.018,-0.034,-0.001,5.9,-15.1,-1.7,0,2018,5,10,16,10,52.174,0.9189,-0.3828,-0.0803,-0.0493
0.038,-0.027,-0.006,5.1,-10,-2.6,1023,2018,5,10,16,10,52.193,0.918,-0.385,-0.0806,-0.0487
0.033,-0.046,0.001,2.5,-2.7,-2.7,1023,2018,5,10,16,10,52.232,0.9175,-0.3864,-0.0806,-0.048
0.046,-0.008,-0.008,2.9,3.5,-2.1,1023,2018,5,10,16,10,52.252,0.9175,-0.3864,-0.0803,-0.0474
0.031,0.025,-0.023,1.2,4.2,-1.3,1023,2018,5,10,16,10,52.256,0.9179,-0.3856,-0.0803,-0.0468
0.021,0.016,0.001,-0.2,1.3,-2.1,1023,2018,5,10,16,10,52.277,0.9182,-0.3849,-0.0801,-0.0465
0.012,0.009,0.035,-1.8,-3.4,-2.8,1023,2018,5,10,16,10,52.298,0.9184,-0.3847,-0.0795,-0.0462
0.004,-0.023,0.041,-3.3,-4,-2.8,1023,2018,5,10,16,10,52.316,0.9182,-0.3853,-0.0787,-0.046
0.016,0.033,0.02,-4,-1.5,-2.4,1023,2018,5,10,16,10,52.335,0.9182,-0.3855,-0.0777,-0.046
0.019,0.05,0.013,-3.8,-2.1,-2.4,1023,2018,5,10,16,10,52.355,0.9184,-0.3853,-0.0767,-0.0459
-0.003,0.037,-0.004,-2,-11.1,-3.2,0,2018,5,10,16,10,52.374,0.9181,-0.3861,-0.0759,-0.0459
0.003,0.018,-0.05,3.7,-20.1,-3.2,0,2018,5,10,16,10,52.411,0.917,-0.3887,-0.0756,-0.0457
0.001,-0.019,-0.015,3.9,-18,-4.4,0,2018,5,10,16,10,52.431,0.9156,-0.3921,-0.0759,-0.0451
0.015,0.001,0.027,1.4,-6.6,-3.5,0,2018,5,10,16,10,52.435,0.9148,-0.3942,-0.0758,-0.0444
0.011,0,0.039,-1.7,3.8,-1.3,0,2018,5,10,16,10,52.455,0.9148,-0.3941,-0.0754,-0.0442
0.018,0.007,0.021,-2.7,4.6,-3.1,0,2018,5,10,16,10,52.476,0.9154,-0.3929,-0.0747,-0.044
0.008,0.032,-0.024,-0.8,-1,-4.3,0,2018,5,10,16,10,52.497,0.9156,-0.3926,-0.074,-0.0435
-0.015,-0.008,0,-2.2,-2.1,-6.4,0,2018,5,10,16,10,52.516,0.9154,-0.3932,-0.0735,-0.0429
-0.01,-0.018,0.048,-4.3,-0.3,-8.7,0,2018,5,10,16,10,52.536,0.9154,-0.3936,-0.0724,-0.0421
-0.01,-0.02,0.052,-5.7,1.5,-8.2,0,2018,5,10,16,10,52.553,0.9157,-0.3932,-0.071,-0.0411
-0.011,-0.007,0.028,-6.3,0.8,-5.9,0,2018,5,10,16,10,52.592,0.916,-0.3927,-0.0695,-0.0405
0.001,0.037,-0.029,-4.5,-2.4,-4.7,0,2018,5,10,16,10,52.612,0.9161,-0.3929,-0.0683,-0.0403
-0.006,0.063,-0.077,-1.9,-6.7,-3.5,0,2018,5,10,16,10,52.616,0.9158,-0.3937,-0.0676,-0.04
-0.001,0.042,-0.046,-1,-5.3,-3,0,2018,5,10,16,10,52.638,0.9154,-0.3948,-0.0673,-0.0398
0.014,0.017,-0.005,-0.1,-3.5,-2.7,0,2018,5,10,16,10,52.657,0.915,-0.3956,-0.0669,-0.0396
-0.004,-0.001,-0.006,0.4,-1.4,-1.5,0,2018,5,10,16,10,52.676,0.915,-0.3959,-0.0667,-0.0393
-0.006,0.01,-0.035,2.8,-2.5,-2.3,0,2018,5,10,16,10,52.696,0.9147,-0.3964,-0.0668,-0.0391
-0.005,0.008,-0.041,3.7,-8.4,-3.9,0,2018,5,10,16,10,52.735,0.9142,-0.3975,-0.0672,-0.0386
-0.017,-0.012,-0.018,3.7,-7.7,-5.2,0,2018,5,10,16,10,52.755,0.9134,-0.3994,-0.0676,-0.0378
-0.008,0.019,0.001,1.8,-7.2,-5.1,0,2018,5,10,16,10,52.759,0.9129,-0.4007,-0.0676,-0.0371
-0.012,0.007,0.006,0.6,-8.3,-4.5,0,2018,5,10,16,10,52.773,0.9123,-0.4021,-0.0675,-0.0365
-0.01,-0.006,0,0,-7,-2.9,0,2018,5,10,16,10,52.81,0.9117,-0.4034,-0.0673,-0.0361
-0.016,-0.013,-0.004,-0.9,-2.8,-1.4,0,2018,5,10,16,10,52.833,0.9113,-0.4045,-0.0671,-0.0361
-0.004,-0.01,0.001,-1,0.7,0,0,2018,5,10,16,10,52.837,0.9112,-0.4048,-0.0668,-0.0362
-0.012,0.008,-0.005,-0.7,1.1,0.7,0,2018,5,10,16,10,52.873,0.9112,-0.4047,-0.0668,-0.0365
-0.041,0.023,-0.033,0.1,-3.5,0.9,0,2018,5,10,16,10,52.894,0.911,-0.4051,-0.0671,-0.037
-0.011,0.015,-0.022,0.8,-7.7,-0.7,0,2018,5,10,16,10,52.899,0.9104,-0.4062,-0.0674,-0.0373
0.001,0.005,-0.015,1.4,-9.8,-1.6,0,2018,5,10,16,10,52.919,0.9098,-0.4077,-0.0674,-0.0373
0.013,-0.001,-0.033,3.4,-6.9,-1.9,1023,2018,5,10,16,10,52.939,0.9092,-0.4091,-0.0674,-0.0369
0.013,0.031,-0.049,5.1,-5.3,-2.7,1023,2018,5,10,16,10,52.979,0.9086,-0.4102,-0.0678,-0.0363
0,0.036,-0.029,7.2,-7.2,-5.1,1023,2018,5,10,16,10,52.998,0.9082,-0.4112,-0.0685,-0.0355
0.001,-0.017,-0.012,8.1,-14.8,-8,1023,2018,5,10,16,10,53.002,0.9074,-0.413,-0.0691,-0.034
0.001,-0.044,0.017,7.9,-22.4,-8.8,1023,2018,5,10,16,10,53.018,0.9059,-0.4162,-0.0697,-0.0323
0.011,-0.059,0.016,6.5,-24.2,-7.5,1023,2018,5,10,16,10,53.038,0.9042,-0.4201,-0.0698,-0.0308
0.006,-0.085,-0.014,8.3,-26.1,-4.6,1023,2018,5,10,16,10,53.075,0.9019,-0.425,-0.0702,-0.0295
0.018,0.039,-0.004,4,-7.9,-0.5,1023,2018,5,10,16,10,53.095,0.9005,-0.428,-0.0708,-0.029
0.009,0.122,0.015,1.2,-2.4,1.7,1023,2018,5,10,16,10,53.099,0.9006,-0.4277,-0.0711,-0.029
-0.007,0.1,0.043,-1.6,-7.5,1.6,0,2018,5,10,16,10,53.138,0.9007,-0.4274,-0.0712,-0.0296
-0.006,0.038,0.035,-2.7,-13.6,2.3,0,2018,5,10,16,10,53.159,0.9002,-0.4284,-0.0709,-0.0304
-0.005,0.019,0.002,-1.3,-9.2,2.8,0,2018,5,10,16,10,53.163,0.8995,-0.4299,-0.0707,-0.0313
-0.011,0.005,-0.015,1.1,-1,0.9,0,2018,5,10,16,10,53.179,0.8991,-0.4306,-0.0709,-0.0318
-0.036,0.059,-0.015,4.6,-2.5,-1.3,0,2018,5,10,16,10,53.219,0.899,-0.4307,-0.0716,-0.0318
-0.024,0.054,-0.026,9,-18.5,-4,0,2018,5,10,16,10,53.239,0.8982,-0.4323,-0.0726,-0.0314
-0.03,-0.027,-0.029,12,-30.5,-7.6,0,2018,5,10,16,10,53.243,0.8959,-0.4369,-0.074,-0.0303
0,-0.016,-0.042,15.3,-28.8,-8.2,0,2018,5,10,16,10,53.257,0.8931,-0.4424,-0.0754,-0.0286
0.003,-0.012,-0.066,15.8,-23.4,-5.8,0,2018,5,10,16,10,53.298,0.8906,-0.4473,-0.0772,-0.0267
-0.006,-0.039,-0.062,15,-5.3,-2.1,0,2018,5,10,16,10,53.317,0.8888,-0.4506,-0.0792,-0.0252
-0.008,0.055,-0.011,13,2.1,-1.1,0,2018,5,10,16,10,53.321,0.8885,-0.4508,-0.0813,-0.024
-0.03,-0.022,0.009,10.9,-0.5,-1.9,0,2018,5,10,16,10,53.341,0.8884,-0.4508,-0.0831,-0.0231
-0.028,-0.069,0.002,9.4,0.3,-1.6,0,2018,5,10,16,10,53.36,0.8882,-0.4509,-0.0847,-0.0221
-0.031,-0.073,0.014,6.4,8,1.7,0,2018,5,10,16,10,53.381,0.888,-0.451,-0.0861,-0.0216
-0.024,-0.015,0.066,0.4,21.3,4.6,0,2018,5,10,16,10,53.4,0.8892,-0.4485,-0.0871,-0.0219
-0.061,-0.047,0.054,-3.5,29.2,5.5,0,2018,5,10,16,10,53.439,0.8914,-0.444,-0.0875,-0.0227
-0.076,-0.14,-0.012,-2,32.2,7.6,0,2018,5,10,16,10,53.46,0.8935,-0.4396,-0.0882,-0.0237
-0.035,-0.132,-0.057,-8.3,72.8,13,0,2018,5,10,16,10,53.464,0.8968,-0.4326,-0.0889,-0.0252
0.012,0.091,-0.009,-12.8,112.8,16.9,0,2018,5,10,16,10,53.479,0.9038,-0.4175,-0.0888,-0.027
0.035,0.082,-0.008,-17.3,129.4,20.5,0,2018,5,10,16,10,53.519,0.9128,-0.3974,-0.0882,-0.0293
0.089,0.082,-0.052,-15.2,126.6,21.6,0,2018,5,10,16,10,53.537,0.9219,-0.3759,-0.0871,-0.032
0.132,0.237,-0.103,-3.8,90,19.6,0,2018,5,10,16,10,53.541,0.929,-0.3578,-0.0873,-0.0341
0.121,0.24,-0.058,2.9,31.7,16.4,0,2018,5,10,16,10,53.58,0.9326,-0.3479,-0.0888,-0.0362
0.117,0.097,0.034,5.4,-21.1,7.9,0,2018,5,10,16,10,53.601,0.9326,-0.3472,-0.0903,-0.0379
0.091,-0.025,0.098,4.6,-49.7,0.7,0,2018,5,10,16,10,53.605,0.9303,-0.3531,-0.0908,-0.0388
0.081,-0.005,0.09,3.3,-70,-5,0,2018,5,10,16,10,53.623,0.9269,-0.3621,-0.09,-0.0388
0.063,0.019,0.031,3.4,-90.3,-10.4,0,2018,5,10,16,10,53.643,0.922,-0.3748,-0.0888,-0.0384
0.037,-0.065,0.006,2.6,-93.7,-15.8,0,2018,5,10,16,10,53.662,0.9159,-0.3898,-0.0872,-0.0373
0.031,-0.12,0,1.1,-78.6,-19.6,0,2018,5,10,16,10,53.681,0.9099,-0.4043,-0.0853,-0.0354
0.029,-0.081,-0.004,0.6,-60.6,-20.8,1023,2018,5,10,16,10,53.702,0.9049,-0.416,-0.0831,-0.033
0.039,0.02,0.018,0.1,-55.5,-19.4,1023,2018,5,10,16,10,53.74,0.9009,-0.4252,-0.081,-0.0304
0.024,0.081,0.005,2.3,-64.2,-18.8,1023,2018,5,10,16,10,53.759,0.8968,-0.4342,-0.0792,-0.0281
0.014,0.075,-0.08,8.5,-83.2,-19.8,1023,2018,5,10,16,10,53.764,0.8913,-0.4458,-0.078,-0.0258
0.009,0.037,-0.094,13.8,-103.5,-20,1023,2018,5,10,16,10,53.784,0.8836,-0.461,-0.0778,-0.0232
0.002,0.018,-0.077,16.3,-118.8,-16.4,1023,2018,5,10,16,10,53.801,0.8739,-0.4791,-0.0784,-0.0206
