ax,ay,az,dpitch,droll,dyaw,heart,time_1,time_2,time_3,time_4,time_5,time_6,w,x,y,z
-0.771,0.433,-0.591,-3,-199.3,126.9,0,2018,5,11,13,44,12.325,-0.7368,0.1886,-0.647,-0.0528
-0.91,0.031,-0.534,5,-185.9,163.9,0,2018,5,11,13,44,12.344,-0.7312,0.2303,-0.6396,-0.0554
-0.988,-0.179,-0.601,9.6,-197.2,173.9,0,2018,5,11,13,44,12.347,-0.7255,0.2728,-0.6294,-0.0541
-0.973,-0.273,-0.668,4.5,-243.6,174.9,0,2018,5,11,13,44,12.382,-0.7163,0.32,-0.6174,-0.0567
-0.822,-0.446,-0.69,0.2,-239.6,168.3,0,2018,5,11,13,44,12.401,-0.7033,0.3691,-0.6044,-0.0614
-0.712,-0.709,-0.682,4.8,-164,147.1,0,2018,5,11,13,44,12.406,-0.6911,0.4107,-0.5912,-0.0638
-0.557,-0.59,-0.507,9.8,-59.5,129.7,0,2018,5,11,13,44,12.44,-0.6853,0.4375,-0.5791,-0.0583
-0.388,-0.692,-0.324,13.7,-38.1,103.4,0,2018,5,11,13,44,12.459,-0.6846,0.4539,-0.5681,-0.0491
0.036,-0.798,-0.234,3.2,-64.9,76,0,2018,5,11,13,44,12.468,-0.6814,0.4695,-0.5595,-0.0449
0.079,-0.675,0.042,-11.5,-117.7,31.3,0,2018,5,11,13,44,12.503,-0.6739,0.4851,-0.555,-0.0475
0.1,-0.777,0.271,-24.2,-136.1,2.2,0,2018,5,11,13,44,12.523,-0.6607,0.5025,-0.5545,-0.0572
0.271,-0.951,0.366,-29.5,-82.6,-21.7,0,2018,5,11,13,44,12.528,-0.648,0.5146,-0.5573,-0.0665
0.577,-0.88,0.531,-27.8,-2.9,-46.6,0,2018,5,11,13,44,12.565,-0.6412,0.516,-0.5633,-0.0716
0.623,-0.729,0.695,-26.2,30.5,-77.9,0,2018,5,11,13,44,12.586,-0.6392,0.508,-0.5724,-0.0742
0.672,-0.73,0.599,-16.3,65.3,-106.4,0,2018,5,11,13,44,12.589,-0.6396,0.494,-0.5836,-0.0781
0.683,-0.49,0.45,1.8,134,-131.5,0,2018,5,11,13,44,12.626,-0.6455,0.4706,-0.596,-0.0807
0.603,-0.156,0.263,23.4,217.2,-149.7,0,2018,5,11,13,44,12.645,-0.6589,0.4352,-0.6083,-0.0791
0.373,0.134,0.147,40.6,274.7,-157.4,0,2018,5,11,13,44,12.649,-0.6783,0.389,-0.6189,-0.0725
0.173,0.346,0.099,49.1,282.8,-159.1,0,2018,5,11,13,44,12.683,-0.6992,0.3373,-0.627,-0.0633
0.148,0.395,0.03,49.9,254.8,-155.7,0,2018,5,11,13,44,12.704,-0.7177,0.2861,-0.6323,-0.0555
0.15,0.368,-0.113,50.1,215.3,-153.3,1023,2018,5,11,13,44,12.707,-0.7324,0.239,-0.6354,-0.0512
0.082,0.52,-0.219,52.3,173.1,-145.8,1023,2018,5,11,13,44,12.742,-0.7441,0.1969,-0.6363,-0.0507
-0.059,0.575,-0.173,53.7,132.3,-125.9,1023,2018,5,11,13,44,12.764,-0.7535,0.1616,-0.6349,-0.0535
-0.051,0.737,-0.225,47.3,95.9,-100,1023,2018,5,11,13,44,12.771,-0.761,0.1336,-0.6322,-0.0571
-0.006,0.802,-0.289,38.3,32.1,-66.3,1023,2018,5,11,13,44,12.806,-0.7662,0.1155,-0.6289,-0.0619
-0.123,0.658,-0.179,31.8,-24.5,-30.2,1023,2018,5,11,13,44,12.825,-0.7696,0.1099,-0.6251,-0.0692
-0.246,0.474,-0.062,22.5,-28.3,6.4,1023,2018,5,11,13,44,12.826,-0.7718,0.1123,-0.6212,-0.0744
-0.253,0.553,-0.122,7.8,-40.9,39.1,0,2018,5,11,13,44,12.866,-0.7732,0.1189,-0.6183,-0.0751
-0.29,0.707,-0.349,-4,-112.1,70.2,0,2018,5,11,13,44,12.886,-0.7723,0.1349,-0.6159,-0.0761
-0.435,0.546,-0.376,-7.6,-167.1,107,0,2018,5,11,13,44,12.893,-0.7691,0.1642,-0.6125,-0.0794
-0.588,0.476,-0.262,-15.4,-200.4,137.9,0,2018,5,11,13,44,12.914,-0.7637,0.2023,-0.6074,-0.0822
-0.697,0.276,-0.403,-27.1,-214.6,163.6,0,2018,5,11,13,44,12.933,-0.7554,0.2465,-0.6013,-0.0832
-0.715,0.044,-0.644,-28.1,-230.1,175.5,0,2018,5,11,13,44,12.969,-0.7443,0.2939,-0.5939,-0.0823
-0.727,-0.128,-0.696,-22.2,-242.9,175.5,0,2018,5,11,13,44,12.989,-0.7308,0.3431,-0.5841,-0.0824
-0.557,-0.267,-0.67,-14.5,-214.8,165.3,0,2018,5,11,13,44,12.991,-0.7166,0.3899,-0.5722,-0.0829
-0.483,-0.373,-0.586,-4.3,-169,145,0,2018,5,11,13,44,13.027,-0.7041,0.4295,-0.5594,-0.082
-0.393,-0.498,-0.536,7.9,-112.2,124.2,0,2018,5,11,13,44,13.045,-0.6954,0.4594,-0.5468,-0.079
-0.347,-0.663,-0.349,18.4,-72.2,93.3,0,2018,5,11,13,44,13.047,-0.6908,0.4804,-0.535,-0.0756
-0.255,-0.568,-0.158,14.5,-61,57.1,0,2018,5,11,13,44,13.079,-0.6881,0.4945,-0.5257,-0.0738
-0.052,-0.449,-0.181,6.3,-85.7,20.9,0,2018,5,11,13,44,13.1,-0.6831,0.5066,-0.5203,-0.0769
0.038,-0.386,-0.161,4,-110.7,-6.1,0,2018,5,11,13,44,13.11,-0.6746,0.519,-0.5178,-0.0856
0.11,-0.402,-0.063,0.7,-105,-24.5,0,2018,5,11,13,44,13.147,-0.6645,0.5303,-0.5172,-0.0976
0.083,-0.497,0.03,-0.7,-77.6,-43.3,0,2018,5,11,13,44,13.169,-0.6551,0.538,-0.5189,-0.1098
0.131,-0.435,0.134,-4.3,-35.5,-59.6,0,2018,5,11,13,44,13.173,-0.6486,0.5395,-0.5229,-0.1206
0.212,-0.266,0.181,-11.8,-15.7,-72.3,0,2018,5,11,13,44,13.212,-0.6442,0.5362,-0.5297,-0.1292
0.308,-0.267,0.082,-13.2,17.6,-77.5,0,2018,5,11,13,44,13.233,-0.6411,0.5297,-0.5382,-0.1365
0.292,-0.202,0.259,-7.5,98.1,-75.3,0,2018,5,11,13,44,13.238,-0.6436,0.5163,-0.5476,-0.1389
0.246,-0.309,0.426,-1.2,211.5,-67.8,0,2018,5,11,13,44,13.253,-0.6551,0.4918,-0.5581,-0.1313
0.229,-0.112,0.52,-0.7,272,-73.2,0,2018,5,11,13,44,13.29,-0.6746,0.4555,-0.5694,-0.114
0.266,-0.003,0.568,-7.2,236.7,-74.7,0,2018,5,11,13,44,13.31,-0.6922,0.4176,-0.5804,-0.0969
0.251,0.004,0.699,-10.1,188.6,-76.4,0,2018,5,11,13,44,13.312,-0.7051,0.384,-0.5901,-0.0835
0.224,-0.02,0.681,-13.4,158.6,-71.9,0,2018,5,11,13,44,13.345,-0.7135,0.3557,-0.5989,-0.0743
0.221,0.187,0.404,-15.4,154.3,-59.1,0,2018,5,11,13,44,13.364,-0.7206,0.3292,-0.6066,-0.065
0.182,0.444,0.209,-14.3,124.1,-38.9,0,2018,5,11,13,44,13.373,-0.7262,0.3064,-0.6128,-0.0553
0.157,0.552,0.106,-11.3,80.1,-10.8,0,2018,5,11,13,44,13.406,-0.7298,0.2912,-0.6166,-0.0468
0.171,0.493,0.051,-4,58.7,19.7,1023,2018,5,11,13,44,13.426,-0.7323,0.2834,-0.6178,-0.0388
0.132,0.553,0.074,0.3,55.8,47.5,1023,2018,5,11,13,44,13.432,-0.7353,0.2796,-0.6166,-0.0279
0.195,0.618,-0.044,4.1,16.7,74.6,1023,2018,5,11,13,44,13.47,-0.7375,0.2813,-0.6136,-0.0161
0.237,0.523,-0.086,10.3,-39.3,97.6,1023,2018,5,11,13,44,13.49,-0.7378,0.2924,-0.6082,-0.007
0.192,0.377,0.04,13.5,-59,114.9,1023,2018,5,11,13,44,13.492,-0.7365,0.3104,-0.6009,0.0006
0.125,0.355,0.147,6.5,-76,127.2,1023,2018,5,11,13,44,13.526,-0.7336,0.3318,-0.5929,0.0089
0.114,0.212,0.13,-1.6,-89.3,137.4,1023,2018,5,11,13,44,13.547,-0.7284,0.3562,-0.5849,0.0173
0.144,0.098,0.18,-13.1,-112.4,134.4,1023,2018,5,11,13,44,13.552,-0.7206,0.3828,-0.5774,0.0251
0.161,0.014,0.137,-28,-134.5,126.3,0,2018,5,11,13,44,13.586,-0.7091,0.4113,-0.5717,0.0306
0.184,-0.21,-0.002,-36.9,-131.8,118.7,0,2018,5,11,13,44,13.607,-0.6949,0.4403,-0.5674,0.0347
0.177,-0.45,-0.106,-36.6,-88.5,103.8,0,2018,5,11,13,44,13.613,-0.6814,0.4647,-0.5639,0.0404
0.156,-0.571,-0.227,-32.4,-7,85.8,0,2018,5,11,13,44,13.652,-0.6732,0.4792,-0.5607,0.0502
0.122,-0.642,-0.606,-21.5,85.2,58.2,0,2018,5,11,13,44,13.671,-0.6735,0.4807,-0.5575,0.0658
0.081,-0.671,-1.093,11.7,120.8,19.1,0,2018,5,11,13,44,13.676,-0.6813,0.4717,-0.5536,0.0817
-0.117,-0.596,-1.021,55.6,114,-23.3,0,2018,5,11,13,44,13.711,-0.6943,0.4576,-0.548,0.09
-0.262,-0.561,-0.604,86.1,116.9,-61.9,0,2018,5,11,13,44,13.731,-0.7107,0.4409,-0.5407,0.0899
-0.392,-0.485,-0.265,93.5,151.7,-101.3,0,2018,5,11,13,44,13.733,-0.7305,0.4177,-0.5333,0.0851
-0.398,-0.284,-0.319,90.6,178.9,-135.3,0,2018,5,11,13,44,13.768,-0.7525,0.3861,-0.5275,0.079
-0.375,-0.183,-0.446,95.8,169.3,-151.2,0,2018,5,11,13,44,13.789,-0.7741,0.3507,-0.5222,0.0698
-0.504,-0.249,-0.572,108.4,154.8,-169.4,0,2018,5,11,13,44,13.795,-0.7943,0.3154,-0.516,0.0568
-0.582,-0.199,-0.465,118.9,184.8,-182.4,0,2018,5,11,13,44,13.83,-0.8147,0.2771,-0.5076,0.0414
-0.617,-0.084,-0.407,120.3,234.2,-191.5,0,2018,5,11,13,44,13.85,-0.8356,0.231,-0.4975,0.0278
-0.627,-0.003,-0.464,118.9,275.1,-198.7,0,2018,5,11,13,44,13.855,-0.8556,0.177,-0.486,0.0166
-0.581,0.006,-0.683,120.5,284.1,-209.2,0,2018,5,11,13,44,13.889,-0.8732,0.1178,-0.4727,0.0061
-0.556,0.051,-0.602,123,304.7,-214.2,0,2018,5,11,13,44,13.91,-0.8876,0.0552,-0.4571,-0.0047
-0.54,0.284,-0.383,114.8,333.6,-212.4,0,2018,5,11,13,44,13.915,-0.8978,-0.0117,-0.4399,-0.0139
-0.483,0.507,-0.326,96.7,310.9,-205.2,0,2018,5,11,13,44,13.952,-0.9024,-0.0792,-0.4228,-0.0214
-0.412,0.564,-0.375,84.1,261.2,-190.8,0,2018,5,11,13,44,13.975,-0.9026,-0.1386,-0.4062,-0.0305
-0.411,0.601,-0.287,75.4,217.7,-167.3,0,2018,5,11,13,44,13.979,-0.9001,-0.1894,-0.3901,-0.0396
-0.375,0.74,-0.175,60.5,147,-140.2,0,2018,5,11,13,44,13.999,-0.8968,-0.2287,-0.3753,-0.0493
-0.287,0.879,-0.12,46.5,64.3,-105.2,0,2018,5,11,13,44,14.017,-0.8947,-0.2533,-0.3628,-0.0595
-0.258,0.809,-0.004,34.8,11.8,-62.4,0,2018,5,11,13,44,14.041,-0.8949,-0.264,-0.3531,-0.0687
-0.268,0.95,0.114,18.3,10.8,-12.5,0,2018,5,11,13,44,14.059,-0.8956,-0.268,-0.3473,-0.0727
-0.27,1.033,0.091,1.5,22.6,49.3,0,2018,5,11,13,44,14.077,-0.8956,-0.2696,-0.347,-0.0681
-0.263,0.83,0.059,-17.9,17.3,99.2,0,2018,5,11,13,44,14.098,-0.8949,-0.2684,-0.3521,-0.055
-0.303,0.676,0.105,-39,-26.9,134.9,0,2018,5,11,13,44,14.134,-0.8942,-0.2602,-0.3621,-0.038
-0.33,0.549,0.049,-60.1,-77.1,163.5,0,2018,5,11,13,44,14.152,-0.8941,-0.2417,-0.3764,-0.0203
-0.341,0.395,-0.001,-75.7,-96.6,184.2,0,2018,5,11,13,44,14.154,-0.8934,-0.2157,-0.3939,-0.0017
-0.354,0.422,-0.135,-86,-99.4,203.1,1023,2018,5,11,13,44,14.187,-0.8907,-0.187,-0.4137,0.0187
-0.343,0.465,-0.364,-87.6,-119.5,221.3,1023,2018,5,11,13,44,14.207,-0.8863,-0.1549,-0.4343,0.041
-0.39,0.397,-0.504,-78.8,-138.7,239.8,1023,2018,5,11,13,44,14.216,-0.8808,-0.1174,-0.454,0.0644
-0.524,0.155,-0.32,-62.9,-109.8,257.6,1023,2018,5,11,13,44,14.251,-0.8739,-0.0785,-0.4708,0.091
-0.586,0.102,-0.205,-48.8,-53.5,272.5,1023,2018,5,11,13,44,14.272,-0.8652,-0.0452,-0.4836,0.124
-0.595,0.178,-0.251,-33.1,-12.6,288.8,1023,2018,5,11,13,44,14.279,-0.8548,-0.0177,-0.492,0.1634
-0.515,0.247,-0.497,-14,1.4,304.6,1023,2018,5,11,13,44,14.316,-0.8431,0.0076,-0.496,0.2072
-0.497,0.218,-0.656,17.2,-6.2,316.9,0,2018,5,11,13,44,14.336,-0.8307,0.035,-0.4948,0.2524
-0.549,-0.005,-0.42,51.7,22.3,327.9,0,2018,5,11,13,44,14.338,-0.8182,0.0637,-0.4867,0.2991
-0.619,-0.071,-0.159,77.3,83.1,333.1,0,2018,5,11,13,44,14.378,-0.8057,0.0877,-0.4699,0.3495
-0.597,-0.099,-0.167,95,137.3,331,0,2018,5,11,13,44,14.4,-0.7927,0.1039,-0.4446,0.4037
-0.453,-0.019,-0.514,123,117.7,316.1,0,2018,5,11,13,44,14.404,-0.7791,0.1178,-0.4133,0.4563
-0.404,0.035,-0.528,155.3,32.9,298.7,0,2018,5,11,13,44,14.419,-0.7647,0.1409,-0.3815,0.4996
-0.476,-0.115,-0.345,175.8,14.8,295.6,0,2018,5,11,13,44,14.457,-0.749,0.1732,-0.3502,0.535
-0.533,-0.411,-0.065,188.9,107.6,289.9,0,2018,5,11,13,44,14.477,-0.7331,0.2002,-0.3112,0.5705
-0.492,-0.307,-0.049,200.3,164.8,258.4,0,2018,5,11,13,44,14.478,-0.7199,0.2154,-0.2614,0.6057
-0.385,-0.217,-0.148,214.1,150.5,227.1,0,2018,5,11,13,44,14.513,-0.7083,0.2282,-0.2092,0.6342
-0.374,-0.255,-0.016,233.8,165,204.1,0,2018,5,11,13,44,14.532,-0.6979,0.2413,-0.1555,0.656
-0.544,-0.214,0.383,226.8,211.9,179.8,0,2018,5,11,13,44,14.541,-0.6892,0.2492,-0.0971,0.6733
-0.571,-0.378,0.528,196.1,245.4,148.2,0,2018,5,11,13,44,14.574,-0.6823,0.2485,-0.0372,0.6864
-0.512,-0.179,0.537,167.3,213.9,107.4,0,2018,5,11,13,44,14.593,-0.6778,0.2422,0.018,0.6939
-0.501,-0.069,0.462,134.2,120.9,77.9,0,2018,5,11,13,44,14.601,-0.6726,0.2405,0.0596,0.6972
-0.472,-0.284,0.431,96.6,104.5,51.4,0,2018,5,11,13,44,14.62,-0.6676,0.2411,0.0883,0.6988
-0.45,-0.159,0.651,77.7,101.1,17.4,0,2018,5,11,13,44,14.642,-0.6663,0.2394,0.1128,0.697
-0.461,-0.14,0.586,47.1,74.3,-12.5,0,2018,5,11,13,44,14.679,-0.6684,0.2371,0.1309,0.6926
-0.381,-0.161,0.599,14,49,-30.7,0,2018,5,11,13,44,14.698,-0.6728,0.2348,0.1406,0.6872
-0.32,-0.205,0.601,-19.7,37,-41.1,0,2018,5,11,13,44,14.7,-0.679,0.2308,0.1431,0.6819
-0.179,-0.188,0.459,-50.7,33.3,-43.1,0,2018,5,11,13,44,14.732,-0.6864,0.2239,0.1405,0.6773
-0.05,-0.117,0.341,-64.9,16.8,-37.7,0,2018,5,11,13,44,14.753,-0.6937,0.2148,0.134,0.6742
0.054,0.023,0.274,-73.1,-27.4,-28.7,0,2018,5,11,13,44,14.762,-0.6993,0.207,0.1231,0.6729
0.038,-0.101,0.299,-84.1,-74.1,-22.5,0,2018,5,11,13,44,14.796,-0.7019,0.2041,0.1054,0.6741
0.042,0.085,0.121,-88.7,-113.3,-13.6,0,2018,5,11,13,44,14.816,-0.7023,0.2049,0.0827,0.6766
0.142,0.023,-0.004,-92.7,-150.4,-3,0,2018,5,11,13,44,14.823,-0.6996,0.2093,0.055,0.6809
0.296,-0.039,-0.062,-90.2,-172.8,0.5,0,2018,5,11,13,44,14.858,-0.6941,0.2185,0.024,0.6854
0.357,-0.09,-0.008,-81.2,-141.6,5.8,0,2018,5,11,13,44,14.88,-0.6873,0.2278,-0.0053,0.6895
0.306,0.063,0.015,-73.3,-98.2,9.3,0,2018,5,11,13,44,14.883,-0.6816,0.2323,-0.0282,0.6932
0.376,0.257,-0.076,-67.7,-102.4,21.8,0,2018,5,11,13,44,14.919,-0.6756,0.2353,-0.0478,0.697
0.46,0.235,-0.103,-61,-124.5,37.3,0,2018,5,11,13,44,14.94,-0.6667,0.2408,-0.0681,0.7019
0.495,0.266,-0.089,-54,-149.8,50.1,1023,2018,5,11,13,44,14.943,-0.6546,0.2503,-0.0898,0.7076
0.482,0.143,0.043,-49.2,-170.2,54.1,1023,2018,5,11,13,44,14.98,-0.64,0.263,-0.1134,0.7129
0.497,0.045,0.038,-45.4,-173.5,47.4,1023,2018,5,11,13,44,15,-0.6245,0.2775,-0.1382,0.7167
0.514,0.008,-0.008,-35.9,-133.1,39.7,1023,2018,5,11,13,44,15.005,-0.6105,0.2901,-0.16,0.7193
0.534,0.014,0.025,-21.6,-92,28,1023,2018,5,11,13,44,15.023,-0.6,0.2989,-0.1752,0.7209
0.557,-0.058,0.207,-9.9,-74.8,11.6,1023,2018,5,11,13,44,15.045,-0.593,0.3061,-0.1861,0.721
0.539,-0.218,0.381,-7,-51.1,-8.7,1023,2018,5,11,13,44,15.08,-0.5897,0.3114,-0.195,0.7191
0.491,-0.124,0.332,-5,-35.3,-27.1,0,2018,5,11,13,44,15.1,-0.5897,0.3143,-0.202,0.7159
0.421,-0.248,0.27,-11.5,-9.4,-41.9,0,2018,5,11,13,44,15.102,-0.5928,0.3144,-0.2079,0.7116
0.4,-0.232,0.349,-18.8,32.8,-53.6,0,2018,5,11,13,44,15.137,-0.5991,0.3094,-0.2106,0.7076
0.423,-0.119,0.347,-29.3,66.2,-59.1,0,2018,5,11,13,44,15.157,-0.6084,0.2985,-0.2099,0.7046
0.406,0.076,0.34,-41.7,79.1,-55.8,0,2018,5,11,13,44,15.163,-0.6184,0.284,-0.2078,0.7026
0.366,0.182,0.338,-51.8,79.4,-41.5,0,2018,5,11,13,44,15.202,-0.6266,0.2674,-0.2054,0.7025
0.328,0.188,0.228,-56.5,53.8,-25.9,0,2018,5,11,13,44,15.22,-0.6322,0.2519,-0.2049,0.7033
0.321,0.14,0.188,-53.2,38.9,-12,0,2018,5,11,13,44,15.223,-0.6346,0.2396,-0.2066,0.705
0.247,-0.011,0.208,-49.8,64,0.2,0,2018,5,11,13,44,15.264,-0.6354,0.2277,-0.2066,0.7082
0.229,-0.067,0.059,-33.4,123,10.8,0,2018,5,11,13,44,15.283,-0.637,0.2119,-0.1995,0.7137
0.171,0.114,-0.065,-5.4,141.1,27.1,0,2018,5,11,13,44,15.287,-0.6391,0.1947,-0.1838,0.7209
0.065,0.032,-0.052,22.6,115.3,42.3,0,2018,5,11,13,44,15.324,-0.6393,0.1826,-0.1655,0.7283
-0.133,-0.052,-0.024,42.4,87.5,50,0,2018,5,11,13,44,15.329,-0.6375,0.1771,-0.1475,0.7351
-0.268,-0.038,-0.12,59.2,60.9,58.9,0,2018,5,11,13,44,15.362,-0.6339,0.1771,-0.1309,0.7413
-0.421,-0.006,-0.18,73.7,41.5,68.1,0,2018,5,11,13,44,15.382,-0.6289,0.1813,-0.1147,0.7472
-0.466,-0.064,-0.201,76.5,28.1,79.7,0,2018,5,11,13,44,15.383,-0.6217,0.1891,-0.1,0.7534
-0.496,-0.148,-0.263,79.9,49.8,84.9,0,2018,5,11,13,44,15.416,-0.6133,0.1965,-0.0839,0.7603
-0.472,-0.083,-0.345,88,63.8,80.3,0,2018,5,11,13,44,15.436,-0.6056,0.2024,-0.0643,0.7668
-0.514,-0.13,-0.332,90.8,62.1,65.3,0,2018,5,11,13,44,15.445,-0.599,0.2086,-0.0437,0.7718
-0.526,-0.147,-0.345,74.8,60.1,34.8,0,2018,5,11,13,44,15.479,-0.5953,0.2135,-0.025,0.7742
-0.421,-0.369,-0.257,43.9,67.8,0.5,0,2018,5,11,13,44,15.501,-0.5953,0.2151,-0.0099,0.7741
-0.314,-0.251,-0.216,18.2,58.4,-48.5,0,2018,5,11,13,44,15.508,-0.6013,0.2119,0.0014,0.7703
-0.281,-0.06,-0.181,-6.6,4.9,-91,0,2018,5,11,13,44,15.522,-0.6122,0.2094,0.0034,0.7623
-0.355,-0.185,-0.133,-32.8,-14.3,-131.3,0,2018,5,11,13,44,15.546,-0.6267,0.2073,-0.0042,0.751
-0.357,-0.306,-0.167,-43.6,4.3,-163.2,0,2018,5,11,13,44,15.582,-0.6458,0.2028,-0.0149,0.7358
-0.339,-0.34,-0.21,-41.7,38.9,-184.4,0,2018,5,11,13,44,15.604,-0.6686,0.1941,-0.023,0.7174
-0.28,-0.261,-0.235,-31.2,47.7,-192.1,0,2018,5,11,13,44,15.608,-0.6933,0.1832,-0.0277,0.6963
-0.253,-0.13,-0.238,-24,25,-194.4,0,2018,5,11,13,44,15.628,-0.7176,0.1743,-0.0328,0.6734
-0.227,-0.083,-0.272,-14,1.7,-194.2,0,2018,5,11,13,44,15.665,-0.7404,0.169,-0.0397,0.6493
-0.081,-0.175,-0.372,-3.8,-0.1,-187.5,0,2018,5,11,13,44,15.684,-0.7617,0.1671,-0.0474,0.6241
-0.087,0.078,-0.217,7.4,-6.5,-176.2,1023,2018,5,11,13,44,15.686,-0.7811,0.1662,-0.052,0.5995
-0.105,-0.005,-0.091,7,-24.6,-165.2,1023,2018,5,11,13,44,15.721,-0.7981,0.1676,-0.0574,0.5757
-0.043,0.118,-0.013,5.8,-42.3,-161.5,1023,2018,5,11,13,44,15.74,-0.8133,0.1714,-0.0639,0.5521
0.085,0.189,-0.027,8.5,-43.1,-150.7,1023,2018,5,11,13,44,15.747,-0.827,0.1759,-0.0716,0.529
0.097,0.279,0.05,11.5,-26.4,-134.9,1023,2018,5,11,13,44,15.78,-0.8391,0.1797,-0.0777,0.5074
0.051,0.405,0.109,8.4,-25,-118.2,1023,2018,5,11,13,44,15.801,-0.8496,0.1822,-0.0823,0.4879
0.122,0.505,0.142,2.7,-31.8,-95.7,1023,2018,5,11,13,44,15.804,-0.8577,0.1853,-0.0873,0.4714
0.206,0.547,0.148,9.8,-39.1,-78.5,1023,2018,5,11,13,44,15.841,-0.8637,0.1894,-0.0923,0.4576
0.262,0.625,0.223,20.1,-45.7,-62.6,1023,2018,5,11,13,44,15.861,-0.8683,0.1957,-0.0959,0.4455
0.309,0.546,0.387,21.8,-13.8,-43.8,0,2018,5,11,13,44,15.867,-0.8717,0.2014,-0.0971,0.4359
0.292,0.59,0.566,18.1,41.1,-25.3,0,2018,5,11,13,44,15.904,-0.8753,0.1997,-0.0942,0.4299
0.274,0.613,0.593,14,76.5,-7.3,0,2018,5,11,13,44,15.925,-0.879,0.1908,-0.0876,0.4279
0.296,0.594,0.68,6.7,73.2,4.3,0,2018,5,11,13,44,15.93,-0.8817,0.1797,-0.0802,0.4285
0.363,0.506,0.676,-0.2,70.7,17,0,2018,5,11,13,44,15.951,-0.8831,0.1691,-0.0741,0.4311
0.326,0.518,0.57,-4.9,51.8,31.6,0,2018,5,11,13,44,15.972,-0.883,0.1594,-0.069,0.4358
0.282,0.506,0.428,-9.9,9.8,45.2,0,2018,5,11,13,44,16.011,-0.8809,0.1543,-0.0669,0.4422
0.244,0.501,0.242,-11.9,-21.6,61.7,0,2018,5,11,13,44,16.015,-0.8763,0.1556,-0.0679,0.4506
0.201,0.525,-0.059,-8,-29.1,83.5,0,2018,5,11,13,44,16.031,-0.8697,0.1599,-0.0695,0.4616
0.155,0.23,-0.148,3.6,2.5,104.5,0,2018,5,11,13,44,16.05,-0.8615,0.1633,-0.0688,0.4758
0.005,0.195,-0.026,18.1,55.5,119.5,0,2018,5,11,13,44,16.09,-0.853,0.1606,-0.0609,0.4926
-0.148,0.17,-0.021,23.1,59.8,126.6,0,2018,5,11,13,44,16.107,-0.8441,0.1545,-0.0489,0.511
-0.22,0.184,-0.044,20.5,43.4,134.3,0,2018,5,11,13,44,16.11,-0.8337,0.15,-0.0375,0.5299
-0.282,0.199,-0.132,18.9,19.4,140.9,0,2018,5,11,13,44,16.146,-0.8217,0.1478,-0.0281,0.5495
-0.292,0.204,-0.262,21.2,-15.7,144.2,0,2018,5,11,13,44,16.168,-0.808,0.1499,-0.0215,0.5692
-0.357,0.155,-0.253,23.1,-60.6,141,0,2018,5,11,13,44,16.172,-0.7926,0.1581,-0.0185,0.5885
-0.409,0.137,-0.224,19,-104.8,132.8,0,2018,5,11,13,44,16.212,-0.776,0.1723,-0.0204,0.6063
-0.436,0.088,-0.221,8.7,-141.7,118.8,0,2018,5,11,13,44,16.23,-0.7586,0.1911,-0.0282,0.6221
-0.429,0.019,-0.274,-1.3,-150.1,100.5,0,2018,5,11,13,44,16.235,-0.7414,0.2114,-0.0403,0.6355
-0.35,0.032,-0.314,-5.3,-148.2,84.6,0,2018,5,11,13,44,16.252,-0.7255,0.2307,-0.0539,0.6461
-0.289,-0.031,-0.343,-8.1,-138.1,71.6,0,2018,5,11,13,44,16.272,-0.7107,0.2489,-0.0682,0.6544
-0.221,-0.142,-0.279,-8.8,-105.7,61.2,0,2018,5,11,13,44,16.293,-0.6976,0.2637,-0.0805,0.6611
-0.218,-0.207,-0.185,-11.3,-61.2,47.6,0,2018,5,11,13,44,16.313,-0.6874,0.2732,-0.0887,0.667
-0.251,-0.178,-0.118,-16.2,-37.9,29,0,2018,5,11,13,44,16.333,-0.6805,0.2776,-0.0939,0.6714
-0.17,-0.075,-0.116,-21.5,-56.5,11.4,0,2018,5,11,13,44,16.353,-0.6761,0.2807,-0.1006,0.6737
-0.112,-0.055,-0.084,-24.8,-92.1,0.2,0,2018,5,11,13,44,16.391,-0.6715,0.2868,-0.1121,0.6739
-0.149,-0.13,-0.016,-34.3,-122.9,-10.8,0,2018,5,11,13,44,16.413,-0.6662,0.2959,-0.1288,0.6723
-0.209,-0.263,-0.027,-46.6,-122.6,-24.7,0,2018,5,11,13,44,16.417,-0.6609,0.305,-0.1493,0.6691
-0.207,-0.107,-0.043,-56,-125,-32.2,0,2018,5,11,13,44,16.431,-0.6566,0.312,-0.171,0.6649
-0.096,-0.198,-0.195,-64,-134.8,-36.6,0,2018,5,11,13,44,16.452,-0.6515,0.319,-0.1954,0.6599
-0.01,-0.12,-0.119,-65.9,-139.9,-38.7,1023,2018,5,11,13,44,16.491,-0.6459,0.3253,-0.2204,0.6544
-0.042,-0.225,-0.048,-73.7,-161.5,-45.2,1023,2018,5,11,13,44,16.51,-0.6388,0.3339,-0.2489,0.6469
0.032,-0.152,-0.054,-78.5,-178.1,-54.9,1023,2018,5,11,13,44,16.514,-0.6308,0.3425,-0.2804,0.6371
0.063,-0.193,-0.035,-81.3,-185.2,-63.2,1023,2018,5,11,13,44,16.532,-0.6225,0.3506,-0.3134,0.6254
0.144,-0.182,-0.041,-82,-175.4,-65.2,1023,2018,5,11,13,44,16.552,-0.6139,0.3574,-0.3458,0.6129
0.25,-0.043,-0.105,-78.7,-175.3,-65,1023,2018,5,11,13,44,16.593,-0.6051,0.3632,-0.3771,0.5997
0.318,0.022,-0.076,-73.4,-208.1,-65.2,1023,2018,5,11,13,44,16.613,-0.5946,0.3706,-0.4087,0.5847
0.296,-0.056,-0.122,-62.6,-236,-67.2,1023,2018,5,11,13,44,16.617,-0.5814,0.3821,-0.443,0.5653
0.307,-0.09,-0.092,-48.8,-205.2,-66.6,0,2018,5,11,13,44,16.637,-0.5686,0.3938,-0.4752,0.5437
0.325,-0.164,-0.083,-29.7,-124.5,-62.2,0,2018,5,11,13,44,16.655,-0.5601,0.4009,-0.4988,0.5259
0.38,-0.06,-0.073,-13.9,-62.3,-56.6,0,2018,5,11,13,44,16.674,-0.5577,0.4021,-0.513,0.5137
0.335,0.005,-0.06,-0.6,-65.4,-55.8,0,2018,5,11,13,44,16.713,-0.5582,0.4023,-0.523,0.5029
0.301,-0.035,-0.097,11.7,-89.9,-54.4,0,2018,5,11,13,44,16.717,-0.558,0.4054,-0.533,0.4899
0.256,-0.135,-0.062,21.7,-87.1,-54.4,0,2018,5,11,13,44,16.734,-0.5576,0.4106,-0.5429,0.4748
0.211,-0.299,0.095,26.7,-74.2,-72.7,0,2018,5,11,13,44,16.755,-0.5599,0.4139,-0.5518,0.4588
0.169,-0.238,0.129,24,-97.6,-94.6,0,2018,5,11,13,44,16.774,-0.5638,0.4151,-0.5616,0.4408
0.261,-0.124,0.017,20.8,-162,-110.7,0,2018,5,11,13,44,16.813,-0.5646,0.4192,-0.5766,0.4157
0.298,-0.074,-0.05,23.7,-206.5,-120.4,0,2018,5,11,13,44,16.833,-0.5611,0.4274,-0.5966,0.3826
0.203,-0.21,0.018,32.8,-172.9,-122.4,0,2018,5,11,13,44,16.837,-0.5578,0.4348,-0.6153,0.3478
0.158,-0.18,-0.013,43.7,-136,-137,0,2018,5,11,13,44,16.857,-0.5585,0.4373,-0.6303,0.3152
0.134,-0.119,-0.045,59,-114.5,-146.7,0,2018,5,11,13,44,16.876,-0.5626,0.4359,-0.6427,0.2832
0.126,-0.013,-0.044,73.7,-144.2,-156.1,0,2018,5,11,13,44,16.912,-0.5678,0.434,-0.6538,0.2484
0.078,-0.089,0.004,88.3,-152.9,-152.5,0,2018,5,11,13,44,16.917,-0.5715,0.4346,-0.6639,0.2085
0.007,-0.255,0.098,105.1,-101.7,-151.8,0,2018,5,11,13,44,16.933,-0.5782,0.4333,-0.6697,0.1712
-0.043,-0.211,0.169,116.8,-44,-167,0,2018,5,11,13,44,16.955,-0.5903,0.4248,-0.6722,0.1382
-0.058,-0.176,0.218,121.7,-3.4,-178.6,0,2018,5,11,13,44,16.975,-0.6064,0.4093,-0.6728,0.1089
-0.046,0.024,0.37,120,41.2,-180.3,0,2018,5,11,13,44,16.998,-0.6249,0.388,-0.6721,0.0837
0.002,0.171,0.369,116.5,75.7,-180,0,2018,5,11,13,44,17.018,-0.645,0.3618,-0.6701,0.063
-0.01,0.323,0.449,109,115.5,-169.1,0,2018,5,11,13,44,17.056,-0.6657,0.3312,-0.6669,0.0477
-0.002,0.453,0.442,92.3,114.5,-155.8,0,2018,5,11,13,44,17.077,-0.6851,0.2991,-0.6631,0.0366
0.084,0.586,0.37,75.1,88,-136.1,0,2018,5,11,13,44,17.081,-0.7006,0.2703,-0.6598,0.0264
0.124,0.568,0.362,63,53,-112.7,0,2018,5,11,13,44,17.1,-0.7121,0.2479,-0.6566,0.0154
0.107,0.587,0.275,53.6,45.4,-86.5,0,2018,5,11,13,44,17.12,-0.721,0.2305,-0.6534,0.0059
0.191,0.621,0.106,46.2,27.4,-59.9,0,2018,5,11,13,44,17.135,-0.7281,0.2176,-0.6499,-0.0012
0.192,0.663,0.016,41.4,11.1,-31.9,0,2018,5,11,13,44,17.17,-0.7337,0.2101,-0.646,-0.0068
0.155,0.562,0.073,35,6.5,-5.8,0,2018,5,11,13,44,17.192,-0.7382,0.2071,-0.6417,-0.0098
0.129,0.605,0.072,22.2,-23,10.4,0,2018,5,11,13,44,17.196,-0.7414,0.208,-0.6378,-0.0111
0.18,0.663,-0.166,6.2,-103.4,24,1023,2018,5,11,13,44,17.234,-0.7406,0.2179,-0.6353,-0.0166
0.064,0.544,-0.315,2.5,-185.5,43.5,1023,2018,5,11,13,44,17.257,-0.7352,0.2407,-0.6329,-0.029
-0.219,0.319,-0.364,5.3,-227,66,1023,2018,5,11,13,44,17.261,-0.7265,0.2738,-0.6285,-0.0456
-0.476,0.218,-0.368,9.1,-241.3,87.7,1023,2018,5,11,13,44,17.277,-0.7161,0.3117,-0.6213,-0.0617
-0.68,0.016,-0.423,5.6,-257.4,101,1023,2018,5,11,13,44,17.317,-0.7035,0.353,-0.6119,-0.0771
-0.709,-0.077,-0.467,2.8,-269.4,105.1,1023,2018,5,11,13,44,17.337,-0.6882,0.3959,-0.6008,-0.0923
-0.654,-0.179,-0.548,5.6,-261,107.5,1023,2018,5,11,13,44,17.362,-0.6709,0.4386,-0.588,-0.1076
-0.588,-0.275,-0.633,16.6,-232.4,96.9,1023,2018,5,11,13,44,17.375,-0.6542,0.4775,-0.5737,-0.1217
-0.522,-0.334,-0.451,30,-187.4,82.6,1023,2018,5,11,13,44,17.38,-0.6403,0.5097,-0.5585,-0.1345
-0.449,-0.304,-0.209,33.9,-131.5,66.4,0,2018,5,11,13,44,17.418,-0.631,0.5335,-0.5442,-0.1443
-0.293,-0.288,-0.151,29.5,-101.8,45.3,0,2018,5,11,13,44,17.42,-0.6245,0.5506,-0.5325,-0.152
-0.135,-0.192,-0.151,24.3,-102,21.6,0,2018,5,11,13,44,17.437,-0.6182,0.5637,-0.5236,-0.1603
-0.062,-0.125,-0.103,17,-119.7,1.7,0,2018,5,11,13,44,17.475,-0.6093,0.576,-0.5172,-0.1712
-0.078,-0.214,0.064,11.9,-103.9,-13.2,0,2018,5,11,13,44,17.494,-0.5987,0.5871,-0.5128,-0.1838
-0.113,-0.247,0.133,3.6,-65.4,-25.2,0,2018,5,11,13,44,17.498,-0.5901,0.5937,-0.5113,-0.1941
0.005,-0.283,0.112,-4,-26.8,-36.6,0,2018,5,11,13,44,17.536,-0.5842,0.5956,-0.5132,-0.2009
0.027,-0.189,0.147,-11.3,3.3,-38,0,2018,5,11,13,44,17.557,-0.5812,0.5934,-0.5176,-0.2048
0.04,-0.206,0.11,-17.5,22.5,-39.2,0,2018,5,11,13,44,17.562,-0.5798,0.5891,-0.5235,-0.2061
0.005,-0.319,0.181,-21.6,64.1,-37.6,0,2018,5,11,13,44,17.583,-0.5807,0.5821,-0.5311,-0.204
0.084,-0.385,0.244,-28.1,136.1,-36.7,0,2018,5,11,13,44,17.602,-0.5872,0.5693,-0.5409,-0.1958
0.175,-0.323,0.188,-32.1,204.7,-42.4,0,2018,5,11,13,44,17.618,-0.6,0.5485,-0.5536,-0.1803
0.237,-0.164,0.16,-33.5,233.4,-47.4,0,2018,5,11,13,44,17.657,-0.6162,0.5214,-0.568,-0.1601
0.26,-0.119,0.154,-32.9,245.9,-48.9,0,2018,5,11,13,44,17.677,-0.6328,0.4912,-0.5822,-0.1383
0.233,-0.067,0.15,-31.3,254.7,-54.6,0,2018,5,11,13,44,17.681,-0.6492,0.4586,-0.5957,-0.1154
0.254,0.002,0.093,-28.5,250.2,-62.8,0,2018,5,11,13,44,17.702,-0.6644,0.4239,-0.6083,-0.0931
0.277,0.035,0.071,-22,244.2,-67.4,0,2018,5,11,13,44,17.723,-0.6782,0.3884,-0.6195,-0.0722
0.269,0.122,0.069,-13.5,239.1,-71.1,0,2018,5,11,13,44,17.742,-0.691,0.3522,-0.6288,-0.053
0.226,0.18,0.046,-4.5,229.7,-75.8,0,2018,5,11,13,44,17.764,-0.7031,0.3157,-0.636,-0.0355
0.202,0.225,0.043,5.5,223.4,-77.2,0,2018,5,11,13,44,17.784,-0.7146,0.2792,-0.641,-0.0196
0.214,0.283,0.011,15,208.7,-79.6,0,2018,5,11,13,44,17.802,-0.7254,0.2432,-0.6437,-0.0057
0.198,0.366,-0.004,23.7,179.3,-80.8,0,2018,5,11,13,44,17.824,-0.7354,0.2093,-0.6444,0.0047
0.154,0.351,0.051,30.5,158.3,-78.5,0,2018,5,11,13,44,17.84,-0.7443,0.1789,-0.6433,0.0115
0.153,0.429,0.11,34.3,156.4,-72,0,2018,5,11,13,44,17.861,-0.7527,0.15,-0.6406,0.0178
0.183,0.599,0.094,31.7,142.9,-61.2,0,2018,5,11,13,44,17.896,-0.7603,0.1226,-0.6372,0.0246
0.154,0.695,0.052,27.5,111.8,-42.4,0,2018,5,11,13,44,17.916,-0.7664,0.1,-0.6337,0.0312
0.128,0.614,0.015,25.1,89.2,-20.2,0,2018,5,11,13,44,17.92,-0.771,0.0836,-0.6301,0.0373
0.098,0.52,0.018,21.2,84.8,1.1,0,2018,5,11,13,44,17.942,-0.7748,0.0712,-0.6264,0.0452
0.085,0.526,-0.055,11.9,74.6,20.3,0,2018,5,11,13,44,17.962,-0.7775,0.0616,-0.6233,0.0555
0.056,0.594,-0.15,0.3,22.2,35.5,1023,2018,5,11,13,44,17.982,-0.7783,0.0577,-0.6217,0.0649
-0.028,0.604,-0.233,-9,-57.1,53.2,1023,2018,5,11,13,44,18.02,-0.777,0.0652,-0.6222,0.0688
-0.096,0.554,-0.331,-14.7,-110.6,76.2,1023,2018,5,11,13,44,18.04,-0.7738,0.084,-0.6241,0.0682
-0.206,0.631,-0.486,-14.2,-151.1,102.8,1023,2018,5,11,13,44,18.044,-0.7688,0.1114,-0.6261,0.0661
-0.317,0.709,-0.645,-2.8,-179.8,138.9,1023,2018,5,11,13,44,18.064,-0.7626,0.147,-0.6265,0.0637
-0.554,0.608,-0.683,11.4,-176.8,180.4,1023,2018,5,11,13,44,18.082,-0.7561,0.1886,-0.6232,0.0648
-0.645,0.486,-0.72,29.2,-158.4,216.3,1023,2018,5,11,13,44,18.102,-0.7498,0.2324,-0.6152,0.0719
-0.733,0.393,-0.687,51.6,-139.5,248.2,1023,2018,5,11,13,44,18.122,-0.7444,0.2771,-0.6015,0.0847
-0.85,0.179,-0.695,71.9,-146.2,266.6,1023,2018,5,11,13,44,18.142,-0.7393,0.3229,-0.5821,0.1006
-0.976,-0.082,-0.763,87.1,-219,255.3,0,2018,5,11,13,44,18.162,-0.7314,0.3737,-0.5593,0.1115
-0.966,-0.144,-0.786,89.1,-288.2,246.1,0,2018,5,11,13,44,18.196,-0.7167,0.4321,-0.5356,0.1122
-0.853,-0.195,-0.719,85.3,-315.2,235.1,0,2018,5,11,13,44,18.219,-0.6952,0.4935,-0.5113,0.1074
-0.841,-0.261,-0.659,78.3,-314.1,212.1,0,2018,5,11,13,44,18.226,-0.6692,0.5524,-0.4869,0.0989
-0.709,-0.556,-0.448,71.4,-254.4,178,0,2018,5,11,13,44,18.245,-0.6428,0.603,-0.4637,0.09
-0.494,-0.612,-0.241,62.3,-163.8,145.4,0,2018,5,11,13,44,18.266,-0.6231,0.6395,-0.4421,0.0847
-0.259,-0.814,-0.148,52.9,-111.6,102.1,0,2018,5,11,13,44,18.305,-0.6102,0.6641,-0.4239,0.0817
-0.116,-0.874,0.103,40.7,-80.3,60.4,0,2018,5,11,13,44,18.326,-0.6015,0.6805,-0.4109,0.078
-0.051,-0.649,0.299,20,-84.5,27.3,0,2018,5,11,13,44,18.33,-0.5936,0.6922,-0.4037,0.0732
0.043,-0.526,0.275,-4.8,-129,-0.5,0,2018,5,11,13,44,18.344,-0.5808,0.7041,-0.4029,0.0665
0.194,-0.675,0.086,-22.5,-152.9,-21.6,0,2018,5,11,13,44,18.381,-0.5616,0.7177,-0.4076,0.057
0.208,-0.786,0.047,-26.9,-135.4,-43.9,0,2018,5,11,13,44,18.403,-0.5414,0.7292,-0.4156,0.0466
0.193,-0.686,0.089,-28.2,-101.2,-63.2,0,2018,5,11,13,44,18.407,-0.5244,0.7362,-0.4261,0.0369
0.206,-0.593,0.109,-25.8,-68.1,-79.8,0,2018,5,11,13,44,18.426,-0.5117,0.7382,-0.4385,0.0279
0.286,-0.577,0.154,-21.3,-41.6,-91.7,0,2018,5,11,13,44,18.446,-0.503,0.7363,-0.4521,0.0192
0.279,-0.532,0.103,-14.8,-24.2,-105,0,2018,5,11,13,44,18.467,-0.4976,0.7311,-0.4665,0.0108
0.228,-0.541,0.165,-7,-0.2,-116,0,2018,5,11,13,44,18.487,-0.495,0.7231,-0.4816,0.0015
0.242,-0.477,0.209,0.2,42,-127.4,0,2018,5,11,13,44,18.508,-0.497,0.711,-0.4973,-0.0066
0.282,-0.346,0.18,7.6,87.3,-135.5,0,2018,5,11,13,44,18.526,-0.505,0.6936,-0.5134,-0.0123
0.268,-0.163,0.171,15.8,121.4,-138.2,0,2018,5,11,13,44,18.546,-0.5181,0.6716,-0.5292,-0.0159
0.187,-0.033,0.212,22.3,135.9,-139.4,0,2018,5,11,13,44,18.565,-0.5343,0.6467,-0.5439,-0.0182
0.136,-0.01,0.179,25.1,156.7,-139.4,0,2018,5,11,13,44,18.586,-0.5519,0.6195,-0.5577,-0.0199
0.117,0.078,0.133,29.5,189,-136.4,0,2018,5,11,13,44,18.605,-0.5722,0.5888,-0.5704,-0.0188
0.063,0.121,0.05,35.3,200.6,-132.1,0,2018,5,11,13,44,18.644,-0.5946,0.5551,-0.5812,-0.0159
0.011,0.233,0.049,40.1,206.7,-126.6,0,2018,5,11,13,44,18.663,-0.6172,0.5202,-0.5901,-0.0122
0.009,0.355,0.019,42.6,205.9,-118,0,2018,5,11,13,44,18.667,-0.6393,0.4848,-0.5967,-0.0077
0.002,0.318,-0.053,45.6,202.3,-107.1,0,2018,5,11,13,44,18.705,-0.6604,0.4499,-0.6011,-0.0025
-0.02,0.268,-0.092,49,196.2,-98.9,0,2018,5,11,13,44,18.726,-0.6804,0.4157,-0.6033,0.0032
-0.01,0.318,-0.029,49.3,178.3,-92.8,0,2018,5,11,13,44,18.731,-0.6988,0.3831,-0.6039,0.0082
0.021,0.315,0.007,46.5,158.9,-87.2,1023,2018,5,11,13,44,18.744,-0.7148,0.353,-0.6035,0.0117
0.088,0.284,0.029,45.7,139.4,-80.8,1023,2018,5,11,13,44,18.784,-0.7286,0.3256,-0.6023,0.014
0.073,0.21,0.149,46.7,127.9,-76.9,1023,2018,5,11,13,44,18.802,-0.741,0.3004,-0.6003,0.0149
0.1,0.232,0.269,44.4,109.8,-76.3,1023,2018,5,11,13,44,18.807,-0.752,0.277,-0.5978,0.0149
0.136,0.269,0.327,40.5,90,-75.2,1023,2018,5,11,13,44,18.845,-0.7612,0.2561,-0.5955,0.0132
0.125,0.276,0.416,37.3,77.9,-71.4,1023,2018,5,11,13,44,18.866,-0.7691,0.2374,-0.5932,0.0099
0.136,0.246,0.429,32.5,77.2,-66.1,1023,2018,5,11,13,44,18.87,-0.7759,0.22,-0.5911,0.0069
0.204,0.354,0.287,29.9,65.1,-61.4,0,2018,5,11,13,44,18.89,-0.7819,0.2033,-0.5891,0.0045
0.172,0.412,0.157,29.5,33.5,-49.7,0,2018,5,11,13,44,18.909,-0.7867,0.191,-0.587,0.0006
0.118,0.4,0.096,26.7,23.1,-29.6,0,2018,5,11,13,44,18.93,-0.7904,0.1833,-0.5843,-0.0031
0.053,0.461,-0.014,20.9,13.6,-5.8,0,2018,5,11,13,44,18.949,-0.7935,0.1789,-0.5815,-0.0047
-0.005,0.491,-0.144,14.3,4.5,21.4,0,2018,5,11,13,44,18.99,-0.7956,0.1785,-0.5789,-0.0031
-0.134,0.548,-0.25,7.6,-16.8,49.8,0,2018,5,11,13,44,19.009,-0.7965,0.1828,-0.5762,0.0009
-0.229,0.577,-0.435,1.5,-68.4,76.4,0,2018,5,11,13,44,19.013,-0.7956,0.1949,-0.5735,0.0052
-0.312,0.464,-0.573,2.3,-128.5,102.5,0,2018,5,11,13,44,19.028,-0.792,0.2179,-0.5701,0.0073
-0.478,0.267,-0.589,4.9,-165.6,123.6,0,2018,5,11,13,44,19.048,-0.7862,0.2498,-0.5651,0.0077
-0.55,0.115,-0.638,8.4,-191.7,132.8,0,2018,5,11,13,44,19.067,-0.7783,0.2869,-0.5583,0.0074
-0.588,-0.167,-0.781,11.8,-197.6,124.2,0,2018,5,11,13,44,19.088,-0.7684,0.3263,-0.5503,0.0053
-0.555,-0.352,-0.752,21.9,-162.5,103.3,0,2018,5,11,13,44,19.111,-0.7589,0.3615,-0.5414,0.002
-0.489,-0.575,-0.525,35.6,-89.6,76.6,0,2018,5,11,13,44,19.128,-0.7535,0.3866,-0.5316,0.0002
-0.347,-0.505,-0.222,38.3,-29.4,41.9,0,2018,5,11,13,44,19.149,-0.7531,0.3994,-0.5227,0.0007
-0.187,-0.367,-0.06,25.7,-21.2,9.2,0,2018,5,11,13,44,19.188,-0.7546,0.4042,-0.5168,0.0001
-0.047,-0.381,0.014,6.7,-58.8,-22.7,0,2018,5,11,13,44,19.208,-0.7531,0.4088,-0.5153,-0.0052
0.048,-0.395,0.144,-11.4,-96.4,-51.9,0,2018,5,11,13,44,19.21,-0.7468,0.416,-0.5184,-0.0168
0.123,-0.422,0.197,-23.7,-88.5,-75.6,0,2018,5,11,13,44,19.228,-0.7376,0.4229,-0.5252,-0.0326
0.205,-0.353,0.249,-28.8,-25.4,-91.6,0,2018,5,11,13,44,19.248,-0.7301,0.4228,-0.5346,-0.0468
0.286,-0.274,0.33,-28.7,55.4,-102.2,0,2018,5,11,13,44,19.269,-0.7277,0.4116,-0.5457,-0.0551
0.363,-0.28,0.437,-27.1,112.5,-114.2,0,2018,5,11,13,44,19.289,-0.7298,0.3906,-0.5579,-0.0582
0.369,-0.171,0.55,-24.3,149.7,-126.5,0,2018,5,11,13,44,19.311,-0.7348,0.3618,-0.5705,-0.0585
0.381,0.05,0.54,-19.8,163.9,-134.2,0,2018,5,11,13,44,19.33,-0.7408,0.3284,-0.583,-0.058
0.344,0.292,0.505,-9.7,159.1,-133.6,0,2018,5,11,13,44,19.367,-0.7467,0.2936,-0.5939,-0.058
0.29,0.431,0.449,1.6,149.2,-123.7,0,2018,5,11,13,44,19.386,-0.7525,0.26,-0.6022,-0.0587
0.221,0.535,0.385,10.1,124.1,-109,0,2018,5,11,13,44,19.39,-0.7578,0.2295,-0.6077,-0.0602
0.169,0.589,0.263,15.1,103.3,-89.2,0,2018,5,11,13,44,19.431,-0.7624,0.2038,-0.6109,-0.0619
0.139,0.696,0.127,18.7,81.7,-63.9,0,2018,5,11,13,44,19.436,-0.7666,0.1831,-0.6121,-0.0633
0.089,0.78,0.029,20.5,64.9,-32.3,0,2018,5,11,13,44,19.451,-0.7703,0.1682,-0.6117,-0.063
0.016,0.779,-0.048,18.7,40.4,0.7,0,2018,5,11,13,44,19.469,-0.7739,0.1591,-0.6099,-0.0603
-0.065,0.761,-0.118,14.2,3.4,34.7,0,2018,5,11,13,44,19.491,-0.7765,0.1579,-0.6073,-0.0562
-0.205,0.665,-0.178,8.1,-36.9,68.5,1023,2018,5,11,13,44,19.529,-0.7777,0.1658,-0.6041,-0.0517
-0.301,0.594,-0.285,2.9,-71.3,100.3,1023,2018,5,11,13,44,19.549,-0.7773,0.1822,-0.6003,-0.0465
-0.396,0.532,-0.364,0.1,-97.7,130.2,1023,2018,5,11,13,44,19.553,-0.7754,0.2059,-0.5955,-0.04
-0.523,0.383,-0.425,-1.3,-114.4,155.3,1023,2018,5,11,13,44,19.574,-0.7721,0.2355,-0.5893,-0.0319
-0.607,0.065,-0.537,1.7,-113.9,167.2,1023,2018,5,11,13,44,19.594,-0.7678,0.2675,-0.5816,-0.0217
-0.613,-0.124,-0.649,7.3,-140.4,158.3,1023,2018,5,11,13,44,19.611,-0.7626,0.3006,-0.5725,-0.0127
-0.547,-0.404,-0.686,14.2,-169,135.4,1023,2018,5,11,13,44,19.633,-0.7551,0.3361,-0.5626,-0.0093
-0.482,-0.499,-0.579,18.6,-159.1,106.7,0,2018,5,11,13,44,19.654,-0.7467,0.3697,-0.5527,-0.0108
-0.311,-0.441,-0.495,23.9,-124.1,73.3,0,2018,5,11,13,44,19.691,-0.7394,0.3966,-0.5438,-0.014
-0.136,-0.301,-0.361,24.7,-98.8,46,0,2018,5,11,13,44,19.695,-0.734,0.4161,-0.5362,-0.0184
-0.02,-0.348,-0.162,20.5,-97.9,20.6,0,2018,5,11,13,44,19.712,-0.7292,0.4314,-0.5305,-0.0246
0.104,-0.408,0.029,10.8,-122.1,-9.4,0,2018,5,11,13,44,19.734,-0.7222,0.4457,-0.5276,-0.0352
0.22,-0.449,0.239,1.2,-137.9,-37.7,0,2018,5,11,13,44,19.754,-0.712,0.46,-0.5279,-0.0506
0.285,-0.45,0.48,-7.8,-123.4,-63,0,2018,5,11,13,44,19.79,-0.7002,0.4718,-0.5312,-0.0688
0.378,-0.451,0.625,-13.2,-69.9,-82.5,0,2018,5,11,13,44,19.811,-0.6899,0.4772,-0.5374,-0.0858
0.468,-0.402,0.641,-9.6,16.1,-96,0,2018,5,11,13,44,19.815,-0.685,0.472,-0.5461,-0.098
0.454,-0.282,0.661,-0.6,105,-100.9,0,2018,5,11,13,44,19.836,-0.6878,0.455,-0.556,-0.103
0.38,-0.085,0.656,4.1,164.3,-99.9,0,2018,5,11,13,44,19.857,-0.6968,0.4284,-0.5661,-0.1013
0.316,0.063,0.548,6.2,197.3,-94.1,0,2018,5,11,13,44,19.875,-0.7087,0.3962,-0.5758,-0.0951
0.244,0.16,0.406,10.3,211.8,-84.9,0,2018,5,11,13,44,19.89,-0.7217,0.3612,-0.584,-0.0858
0.188,0.353,0.344,13.3,193.8,-77,0,2018,5,11,13,44,19.931,-0.7343,0.3265,-0.5901,-0.0758
0.177,0.387,0.246,12.3,150.9,-66.6,0,2018,5,11,13,44,19.952,-0.7441,0.2969,-0.5945,-0.068
0.196,0.385,0.085,13.9,120.8,-54.6,0,2018,5,11,13,44,19.956,-0.7513,0.273,-0.5974,-0.0628
0.196,0.482,0.021,17,107.5,-41.9,0,2018,5,11,13,44,19.973,-0.7577,0.2528,-0.5986,-0.0582
0.125,0.602,-0.017,15.8,85.5,-24.2,0,2018,5,11,13,44,20.012,-0.7633,0.2363,-0.5987,-0.0534
0.074,0.631,-0.104,11.4,50.1,-3.9,0,2018,5,11,13,44,20.034,-0.7674,0.2256,-0.5981,-0.0486
0.032,0.577,-0.277,9,1.5,13.6,0,2018,5,11,13,44,20.038,-0.7695,0.2227,-0.5967,-0.0458
-0.067,0.576,-0.391,14.2,-41.6,33.6,0,2018,5,11,13,44,20.056,-0.77,0.2281,-0.594,-0.0459
-0.244,0.456,-0.372,20.1,-62.1,58.5,0,2018,5,11,13,44,20.093,-0.77,0.2401,-0.5892,-0.0462
-0.344,0.333,-0.414,25,-66.2,79,0,2018,5,11,13,44,20.114,-0.7701,0.2557,-0.5826,-0.0443
-0.399,0.13,-0.562,31.2,-82.6,89.3,0,2018,5,11,13,44,20.118,-0.7701,0.2741,-0.5744,-0.0417
-0.538,-0.048,-0.581,35.8,-118.5,86.3,0,2018,5,11,13,44,20.133,-0.7692,0.296,-0.5646,-0.0414
-0.585,-0.301,-0.573,33.7,-151.6,70.2,0,2018,5,11,13,44,20.171,-0.7658,0.3219,-0.5546,-0.0462
-0.527,-0.368,-0.512,26.4,-156.9,47.5,0,2018,5,11,13,44,20.19,-0.7601,0.3481,-0.5458,-0.0553
-0.412,-0.346,-0.472,15.8,-142.8,23.9,0,2018,5,11,13,44,20.196,-0.753,0.3712,-0.5391,-0.0662
-0.242,-0.341,-0.478,5,-116.2,-1.6,0,2018,5,11,13,44,20.215,-0.7455,0.3889,-0.5355,-0.0774
-0.136,-0.306,-0.255,-5.2,-81.7,-23.2,0,2018,5,11,13,44,20.234,-0.7385,0.4005,-0.5351,-0.0884
-0.026,-0.299,0.233,-21.6,-64.3,-47.1,0,2018,5,11,13,44,20.255,-0.7317,0.4065,-0.5381,-0.0985
0.177,-0.349,0.713,-46,-38.2,-69.3,1023,2018,5,11,13,44,20.274,-0.7237,0.4081,-0.5457,-0.1083
0.424,-0.3,0.95,-62.7,-1.3,-90.2,1023,2018,5,11,13,44,20.313,-0.7153,0.4039,-0.5582,-0.1163
0.677,-0.116,1.001,-67.4,40.1,-103.6,1023,2018,5,11,13,44,20.333,-0.708,0.3932,-0.5738,-0.1215
0.69,0.092,0.981,-57,90.6,-106.7,1023,2018,5,11,13,44,20.337,-0.7038,0.3755,-0.5901,-0.1235
0.65,0.272,0.791,-33,121.7,-98.2,1023,2018,5,11,13,44,20.355,-0.7037,0.3524,-0.6046,-0.1218
0.565,0.417,0.622,-6.4,130.8,-79.5,1023,2018,5,11,13,44,20.374,-0.7074,0.3276,-0.615,-0.118
0.444,0.464,0.407,12.3,128.6,-57.1,1023,2018,5,11,13,44,20.395,-0.7137,0.3039,-0.6208,-0.1126
0.318,0.497,0.2,22.8,114.8,-34,0,2018,5,11,13,44,20.432,-0.7211,0.2834,-0.6231,-0.1059
0.164,0.546,0.034,25,86.5,-6.7,0,2018,5,11,13,44,20.452,-0.7283,0.2679,-0.6227,-0.0989
-0.043,0.539,-0.099,18.4,51.1,22.3,0,2018,5,11,13,44,20.457,-0.7341,0.2597,-0.6206,-0.0918
-0.296,0.432,-0.263,7.5,28.6,51.2,0,2018,5,11,13,44,20.479,-0.7377,0.2588,-0.6178,-0.0836
-0.469,0.29,-0.425,2.3,20.1,74.9,0,2018,5,11,13,44,20.499,-0.7402,0.2625,-0.6146,-0.073
-0.683,0.042,-0.623,-1.3,-2.1,84,0,2018,5,11,13,44,20.518,-0.7416,0.2699,-0.6109,-0.0616
-0.791,-0.313,-1.119,10.1,-22.3,78.2,0,2018,5,11,13,44,20.537,-0.7422,0.2802,-0.6064,-0.0528
-0.955,-0.475,-1.165,34.3,-67.9,56.9,0,2018,5,11,13,44,20.575,-0.7431,0.2929,-0.5995,-0.0499
-0.884,-0.355,-0.946,44.7,-110.7,35.2,0,2018,5,11,13,44,20.595,-0.7429,0.3093,-0.5909,-0.0562
-0.533,-0.206,-0.601,38.1,-123.2,18.2,0,2018,5,11,13,44,20.6,-0.7409,0.3269,-0.5827,-0.0675
-0.065,-0.023,0.026,17.5,-127.3,4.2,0,2018,5,11,13,44,20.617,-0.7365,0.3438,-0.5769,-0.08
0.42,-0.083,0.916,-12.6,-123.8,-12.1,0,2018,5,11,13,44,20.654,-0.7288,0.3599,-0.5748,-0.0935
0.853,-0.185,1.73,-39.9,-87.4,-39.2,0,2018,5,11,13,44,20.674,-0.7187,0.3715,-0.578,-0.1058
1.091,-0.039,1.911,-51.8,-17.2,-61,0,2018,5,11,13,44,20.678,-0.7094,0.3737,-0.5865,-0.1144
1.155,0.215,1.501,-39.8,48.4,-65.2,0,2018,5,11,13,44,20.715,-0.7044,0.3656,-0.5968,-0.1175
0.912,0.401,0.933,-21.7,96,-49.3,0,2018,5,11,13,44,20.736,-0.7048,0.3507,-0.6058,-0.1147
0.545,0.477,0.467,-6.8,102.8,-21.9,0,2018,5,11,13,44,20.741,-0.7089,0.3346,-0.6114,-0.1077
0.268,0.432,0.065,-2.9,104.3,7.2,0,2018,5,11,13,44,20.762,-0.7142,0.3212,-0.614,-0.0975
-0.006,0.449,-0.335,-3.7,101.5,34.6,0,2018,5,11,13,44,20.781,-0.72,0.3104,-0.6149,-0.0835
-0.265,0.387,-0.821,4.7,71.4,64,0,2018,5,11,13,44,20.797,-0.7254,0.3048,-0.6133,-0.0681
-0.654,-0.009,-1.379,21.8,26.2,81.9,0,2018,5,11,13,44,20.817,-0.7303,0.3063,-0.6081,-0.054
-0.979,-0.429,-1.662,49.7,-59,64.7,0,2018,5,11,13,44,20.857,-0.7338,0.3161,-0.5993,-0.048
-1.125,-0.312,-1.264,72.5,-120.1,34.6,0,2018,5,11,13,44,20.876,-0.7352,0.333,-0.5877,-0.0551
-0.841,-0.037,-0.722,77.3,-122.3,12.9,0,2018,5,11,13,44,20.88,-0.7358,0.3504,-0.5753,-0.0691
-0.455,-0.132,-0.155,63.1,-109.9,-1,0,2018,5,11,13,44,20.919,-0.7356,0.3649,-0.5643,-0.084
-0.148,-0.216,0.763,27.9,-104.8,-16.8,0,2018,5,11,13,44,20.937,-0.7332,0.3769,-0.5573,-0.0982
0.272,-0.329,1.656,-21.4,-93.1,-40.7,0,2018,5,11,13,44,20.942,-0.726,0.3871,-0.5572,-0.1117
0.723,-0.235,1.843,-58.8,-49,-64.6,0,2018,5,11,13,44,20.962,-0.7158,0.3917,-0.5649,-0.1223
0.738,-0.03,1.532,-76.9,-11.6,-72.1,0,2018,5,11,13,44,20.983,-0.7052,0.39,-0.5777,-0.1294
0.774,0.228,0.923,-75.4,52,-59.1,0,2018,5,11,13,44,21.002,-0.6972,0.3823,-0.5922,-0.1301
0.567,0.43,0.449,-62.1,97.3,-30.3,0,2018,5,11,13,44,21.019,-0.6942,0.3696,-0.6051,-0.1232
0.306,0.501,0.169,-52.2,121.1,4.6,1023,2018,5,11,13,44,21.056,-0.695,0.3559,-0.615,-0.1093
0.115,0.446,-0.284,-47.6,125.3,37.5,1023,2018,5,11,13,44,21.078,-0.6976,0.3441,-0.6219,-0.0901
-0.11,0.414,-0.476,-31.3,101.7,63.7,1023,2018,5,11,13,44,21.082,-0.7008,0.3361,-0.6252,-0.0691
-0.466,0.119,-1.068,-6.2,49.4,79.4,1023,2018,5,11,13,44,21.1,-0.7041,0.3349,-0.6239,-0.0506
-0.698,-0.356,-1.314,23.4,-52,56.4,1023,2018,5,11,13,44,21.121,-0.7057,0.3426,-0.6186,-0.0425
-0.791,-0.495,-1.321,54.8,-122.3,22.7,1023,2018,5,11,13,44,21.14,-0.7043,0.3583,-0.6107,-0.0502
-0.675,-0.318,-0.9,78.2,-112.2,-9.6,1023,2018,5,11,13,44,21.181,-0.7037,0.3732,-0.6008,-0.0665
-0.335,-0.21,-0.125,76.3,-83.4,-37.2,0,2018,5,11,13,44,21.201,-0.7053,0.3814,-0.5914,-0.0844
-0.071,-0.224,0.805,48.3,-58.6,-58.5,0,2018,5,11,13,44,21.203,-0.7061,0.3842,-0.5859,-0.1016
0.303,-0.202,1.688,3.4,-17.7,-80.7,0,2018,5,11,13,44,21.239,-0.7049,0.3811,-0.5868,-0.1157
0.668,0.205,1.699,-40.9,20,-91.4,0,2018,5,11,13,44,21.257,-0.7012,0.372,-0.5952,-0.1246
0.716,0.479,1.201,-59.8,45.8,-77.3,0,2018,5,11,13,44,21.262,-0.6958,0.36,-0.608,-0.1282
0.615,0.637,0.571,-53,80.9,-41.4,0,2018,5,11,13,44,21.277,-0.6922,0.3471,-0.6201,-0.1251
0.387,0.704,0.006,-35.3,99,1.8,0,2018,5,11,13,44,21.314,-0.6925,0.3348,-0.6285,-0.1149
0.139,0.769,-0.389,-12,97.3,45.3,0,2018,5,11,13,44,21.336,-0.6961,0.326,-0.6317,-0.0996
-0.113,0.676,-0.678,9.7,68.7,87.2,0,2018,5,11,13,44,21.343,-0.7019,0.3233,-0.6292,-0.0818
-0.402,0.302,-1.001,30.2,21.7,113.1,0,2018,5,11,13,44,21.379,-0.708,0.3286,-0.6215,-0.0652
-0.659,-0.353,-1.278,57.5,-53.4,99.6,0,2018,5,11,13,44,21.397,-0.7131,0.3417,-0.6095,-0.0555
-0.802,-0.424,-1.03,73.2,-126.8,63.2,0,2018,5,11,13,44,21.401,-0.715,0.3614,-0.5954,-0.0593
-0.645,-0.336,-0.502,74.3,-125.3,25,0,2018,5,11,13,44,21.439,-0.7146,0.3815,-0.5818,-0.072
-0.289,-0.165,-0.026,54.8,-100.4,-7.7,0,2018,5,11,13,44,21.46,-0.7136,0.3952,-0.5717,-0.0866
0.008,-0.151,0.612,24.5,-90.4,-34.7,0,2018,5,11,13,44,21.464,-0.7106,0.4041,-0.5669,-0.1011
0.241,-0.234,1.283,-8.1,-73.2,-60.3,0,2018,5,11,13,44,21.481,-0.7043,0.4097,-0.5679,-0.1158
0.558,-0.087,1.636,-36.4,-15.3,-74.3,0,2018,5,11,13,44,21.517,-0.6974,0.4088,-0.5747,-0.1269
0.691,0.244,1.436,-60.9,43.6,-69.5,0,2018,5,11,13,44,21.539,-0.6918,0.4004,-0.5864,-0.1307
0.649,0.506,0.948,-69.9,78,-42.5,0,2018,5,11,13,44,21.543,-0.688,0.3883,-0.5999,-0.1262
0.419,0.564,0.519,-68.2,95.8,-3.9,0,2018,5,11,13,44,21.567,-0.686,0.3769,-0.6115,-0.1151
0.166,0.646,0.06,-63.5,102.7,39.1,0,2018,5,11,13,44,21.583,-0.6859,0.3678,-0.6202,-0.0975
-0.066,0.485,-0.439,-51.4,71.1,80.2,0,2018,5,11,13,44,21.605,-0.6861,0.3649,-0.6245,-0.0772
-0.351,0.017,-0.868,-29.5,47.5,101.1,0,2018,5,11,13,44,21.626,-0.6867,0.3684,-0.6239,-0.057
-0.589,-0.494,-1.368,1.9,-27.3,76.9,0,2018,5,11,13,44,21.665,-0.6869,0.3768,-0.6197,-0.0434
-0.697,-0.625,-1.432,39.8,-107,32.2,0,2018,5,11,13,44,21.684,-0.6847,0.3913,-0.613,-0.0463
-0.492,-0.346,-0.962,68.4,-105.2,-12.5,0,2018,5,11,13,44,21.688,-0.6828,0.4052,-0.6047,-0.0611
-0.112,-0.137,-0.411,78.3,-82.7,-47.7,0,2018,5,11,13,44,21.704,-0.6837,0.4118,-0.5971,-0.0794
0.1,-0.075,0.292,73.5,-89.7,-73.5,0,2018,5,11,13,44,21.741,-0.6845,0.4144,-0.5911,-0.1005
0.169,-0.137,1.116,54.1,-89.5,-90.3,0,2018,5,11,13,44,21.761,-0.6827,0.4159,-0.5876,-0.1247
0.328,0.03,1.573,20.4,-54.8,-95.5,0,2018,5,11,13,44,21.766,-0.6788,0.4141,-0.5885,-0.1459
0.412,0.283,1.509,-10.5,-7.3,-79.9,0,2018,5,11,13,44,21.803,-0.6745,0.4085,-0.5938,-0.1595
0.435,0.596,1.146,-29.9,39.7,-40.3,0,2018,5,11,13,44,21.822,-0.6718,0.4006,-0.6012,-0.163
0.37,0.725,0.684,-39.2,59.6,10.2,1023,2018,5,11,13,44,21.827,-0.6713,0.394,-0.6079,-0.1566
0.181,0.698,0.37,-43.2,59.7,56.7,1023,2018,5,11,13,44,21.847,-0.672,0.3916,-0.6119,-0.1432
0.004,0.711,0.105,-49.6,38.5,96.3,1023,2018,5,11,13,44,21.865,-0.6723,0.3951,-0.6132,-0.1254
-0.159,0.825,-0.167,-53.7,-12,132.7,1023,2018,5,11,13,44,21.905,-0.67,0.4068,-0.6116,-0.1065
-0.345,0.727,-0.437,-52.3,-69.3,168.8,1023,2018,5,11,13,44,21.925,-0.6637,0.4291,-0.606,-0.0898
-0.517,0.274,-0.624,-41.8,-74.5,186.8,1023,2018,5,11,13,44,21.93,-0.6553,0.4575,-0.5965,-0.0733
-0.561,0.037,-0.717,-24.9,-57.9,181.6,1023,2018,5,11,13,44,21.949,-0.6485,0.4844,-0.5844,-0.0558
-0.482,-0.017,-0.847,-0.7,-87.6,162.7,1023,2018,5,11,13,44,21.965,-0.6424,0.5098,-0.5704,-0.0424
-0.346,-0.323,-0.591,24.3,-103.3,134.8,0,2018,5,11,13,44,22.002,-0.6356,0.5355,-0.5548,-0.0364
-0.2,-0.576,-0.265,39.2,-70.3,97.4,0,2018,5,11,13,44,22.023,-0.6306,0.5564,-0.5397,-0.0352
-0.075,-0.528,-0.087,49.4,-22.2,58.9,0,2018,5,11,13,44,22.027,-0.631,0.5681,-0.527,-0.035
-0.018,-0.469,0.128,52.6,-20.7,22.8,0,2018,5,11,13,44,22.048,-0.6342,0.5733,-0.5172,-0.037
0.111,-0.552,0.272,45.1,-41.5,-15,0,2018,5,11,13,44,22.067,-0.6353,0.5769,-0.5113,-0.0441
0.225,-0.696,0.38,29.1,-48.8,-57.4,0,2018,5,11,13,44,22.102,-0.6333,0.5786,-0.5106,-0.0559
0.31,-0.648,0.528,9.7,-12.3,-99.1,0,2018,5,11,13,44,22.123,-0.6307,0.575,-0.5163,-0.0695
0.4,-0.427,0.429,-3.4,56.9,-130.7,0,2018,5,11,13,44,22.127,-0.6315,0.5619,-0.528,-0.0804
0.373,-0.245,0.253,-4.5,142.7,-147.1,0,2018,5,11,13,44,22.166,-0.6385,0.5377,-0.5436,-0.0861
0.241,-0.028,0.105,-4.4,216.8,-153.9,0,2018,5,11,13,44,22.186,-0.6526,0.5024,-0.5608,-0.0846
0.116,0.077,0.034,-4.5,246.4,-153.3,0,2018,5,11,13,44,22.191,-0.6697,0.4598,-0.5777,-0.0787
0.003,0.196,0.011,-2.4,244.2,-150.8,0,2018,5,11,13,44,22.204,-0.686,0.4143,-0.5936,-0.0721
-0.021,0.389,-0.074,-0.4,207.6,-144.2,0,2018,5,11,13,44,22.241,-0.6998,0.3712,-0.6066,-0.0663
0.017,0.527,-0.182,7.7,163.2,-129.4,0,2018,5,11,13,44,22.261,-0.7098,0.334,-0.6167,-0.064
0.04,0.752,-0.142,19.9,132.2,-103.3,0,2018,5,11,13,44,22.267,-0.7183,0.3029,-0.623,-0.0634
-0.016,0.847,0,28.4,105.7,-71.3,0,2018,5,11,13,44,22.305,-0.7259,0.2786,-0.6255,-0.0628
-0.053,0.923,0.16,24,80.1,-31.4,0,2018,5,11,13,44,22.325,-0.733,0.2607,-0.6253,-0.0603
-0.035,1.007,0.096,12.1,12.8,6.9,0,2018,5,11,13,44,22.329,-0.737,0.2531,-0.624,-0.0576
-0.047,0.996,0.032,2.5,-75.1,45.5,0,2018,5,11,13,44,22.367,-0.7366,0.2602,-0.6214,-0.0584
-0.135,0.917,0.041,-5.2,-137.6,87.6,0,2018,5,11,13,44,22.394,-0.732,0.2817,-0.6171,-0.0619
-0.271,0.741,0.034,-14.8,-163.9,128.2,0,2018,5,11,13,44,22.411,-0.7241,0.3131,-0.611,-0.0641
-0.341,0.611,-0.108,-24.4,-176.6,160.5,0,2018,5,11,13,44,22.414,-0.7137,0.3502,-0.6032,-0.0628
-0.413,0.47,-0.24,-27.6,-174.9,188.2,0,2018,5,11,13,44,22.426,-0.7012,0.3908,-0.5933,-0.0583
-0.528,0.197,-0.429,-22.7,-156.4,209.7,0,2018,5,11,13,44,22.466,-0.6886,0.4316,-0.5805,-0.0489
-0.555,-0.096,-0.628,-7,-136.5,207.1,0,2018,5,11,13,44,22.485,-0.6772,0.47,-0.5648,-0.0372
-0.538,-0.282,-0.796,12.2,-131.6,190.8,0,2018,5,11,13,44,22.487,-0.6672,0.505,-0.5468,-0.0268
-0.542,-0.533,-0.614,27.6,-121,161.7,0,2018,5,11,13,44,22.526,-0.6581,0.5364,-0.5278,-0.0203
-0.431,-0.518,-0.238,25.9,-91.1,118.5,0,2018,5,11,13,44,22.547,-0.6509,0.5611,-0.5109,-0.0165
-0.205,-0.429,-0.131,15.3,-53.9,76.6,0,2018,5,11,13,44,22.549,-0.6457,0.5777,-0.499,-0.0137
-0.074,-0.274,-0.067,3.7,-38.1,45.7,1023,2018,5,11,13,44,22.588,-0.6421,0.5877,-0.492,-0.0112
0.021,-0.285,0.023,-9.3,-48.1,21.3,1023,2018,5,11,13,44,22.608,-0.6375,0.5955,-0.4886,-0.0102
0.123,-0.462,0.115,-22.9,-66.9,-4.6,1023,2018,5,11,13,44,22.612,-0.6299,0.6027,-0.4895,-0.0122
0.266,-0.486,0.33,-35.6,-67.4,-28.4,1023,2018,5,11,13,44,22.628,-0.6199,0.6089,-0.4945,-0.0168
0.353,-0.494,0.421,-43.1,-51,-51.6,1023,2018,5,11,13,44,22.648,-0.6098,0.612,-0.503,-0.0219
0.497,-0.603,0.392,-41.2,-21.8,-78,1023,2018,5,11,13,44,22.669,-0.6017,0.6102,-0.5144,-0.0273
0.598,-0.637,0.394,-34,28.4,-102.5,1023,2018,5,11,13,44,22.691,-0.598,0.602,-0.5281,-0.0324
0.594,-0.512,0.368,-24.3,89,-125.5,1023,2018,5,11,13,44,22.71,-0.6008,0.585,-0.5434,-0.0356
0.561,-0.315,0.298,-10.9,147.6,-143.2,0,2018,5,11,13,44,22.749,-0.6101,0.5595,-0.5597,-0.0365
0.454,-0.127,0.216,7.3,192.6,-153.1,0,2018,5,11,13,44,22.768,-0.6254,0.526,-0.5751,-0.035
0.347,0.103,0.197,25.6,214.2,-157.8,0,2018,5,11,13,44,22.773,-0.6443,0.4873,-0.5883,-0.0327
0.244,0.323,0.232,38.6,203.7,-157,0,2018,5,11,13,44,22.791,-0.6641,0.4466,-0.5986,-0.0313
0.228,0.455,0.19,45.2,168.4,-151.1,0,2018,5,11,13,44,22.831,-0.6816,0.4082,-0.6062,-0.033
0.182,0.522,0.136,50.8,133.6,-141,0,2018,5,11,13,44,22.852,-0.6961,0.3744,-0.6113,-0.0381
0.11,0.621,0.146,53.4,96.7,-127.4,0,2018,5,11,13,44,22.856,-0.7081,0.3454,-0.6141,-0.0457
0.086,0.749,0.171,49.7,56.5,-101.7,0,2018,5,11,13,44,22.87,-0.7171,0.3232,-0.615,-0.0551
0.046,0.863,0.174,40.4,24.5,-68.9,0,2018,5,11,13,44,22.908,-0.7232,0.3086,-0.6143,-0.0643
0.017,0.79,0.146,27,16.6,-31.4,0,2018,5,11,13,44,22.928,-0.7273,0.3005,-0.6128,-0.0707
0.031,0.769,0.07,12.6,8,2.7,0,2018,5,11,13,44,22.932,-0.73,0.2971,-0.6111,-0.0724
-0.099,0.816,0.053,-4,-29.3,33.8,0,2018,5,11,13,44,22.952,-0.7303,0.3003,-0.6093,-0.0714
-0.247,0.758,-0.029,-22.3,-65.7,68.2,0,2018,5,11,13,44,22.989,-0.7269,0.3122,-0.6076,-0.0697
-0.376,0.774,-0.157,-36.1,-84.5,107.7,0,2018,5,11,13,44,23.01,-0.7204,0.3317,-0.6054,-0.0654
-0.512,0.818,-0.414,-40.4,-76.4,152.7,0,2018,5,11,13,44,23.014,-0.7127,0.3561,-0.6016,-0.0556
-0.633,0.867,-0.768,-22,-79.7,201.9,0,2018,5,11,13,44,23.035,-0.706,0.3843,-0.5934,-0.0397
-0.872,0.587,-1.104,13.8,-108.1,246.7,0,2018,5,11,13,44,23.072,-0.7001,0.4191,-0.5776,-0.0214
-1.136,-0.096,-1.227,64.5,-117.7,262.3,0,2018,5,11,13,44,23.076,-0.6957,0.4585,-0.5528,-0.0041
-1.194,-0.206,-0.964,95,-144.6,253,0,2018,5,11,13,44,23.093,-0.6927,0.4982,-0.5212,0.0084
-0.913,-0.265,-0.646,95.1,-192.9,227.8,0,2018,5,11,13,44,23.11,-0.6853,0.5402,-0.488,0.0136
-0.548,-0.57,-0.27,75.9,-199.5,180.7,0,2018,5,11,13,44,23.149,-0.6721,0.5812,-0.4584,0.013
-0.174,-0.658,0.028,51.5,-174.3,130.5,0,2018,5,11,13,44,23.17,-0.657,0.6151,-0.4355,0.0101
-0.036,-0.745,0.265,24.8,-154.3,82.3,0,2018,5,11,13,44,23.174,-0.6416,0.6416,-0.42,0.006
0.157,-0.834,0.34,-7,-131.8,31.3,0,2018,5,11,13,44,23.195,-0.6255,0.6618,-0.4131,0.001
0.276,-0.784,0.472,-34.6,-101,-14.7,0,2018,5,11,13,44,23.215,-0.6104,0.6747,-0.4148,-0.0037
0.404,-0.752,0.426,-55.4,-72.3,-49.3,0,2018,5,11,13,44,23.253,-0.5965,0.6815,-0.4236,-0.0078
0.503,-0.709,0.242,-60.8,-44,-76.9,0,2018,5,11,13,44,23.274,-0.5851,0.6827,-0.4374,-0.0116
0.432,-0.681,0.189,-51.9,-13.8,-99.1,0,2018,5,11,13,44,23.278,-0.5771,0.6788,-0.4537,-0.0162
0.368,-0.538,0.286,-42.3,18.5,-117.2,0,2018,5,11,13,44,23.293,-0.5733,0.6698,-0.4713,-0.0211
0.352,-0.467,0.249,-33.2,56.5,-131.6,0,2018,5,11,13,44,23.311,-0.5735,0.656,-0.4898,-0.0262
0.31,-0.365,0.195,-23.7,130.9,-137.1,1023,2018,5,11,13,44,23.331,-0.581,0.6349,-0.5084,-0.0283
0.285,-0.229,0.146,-17.7,196.5,-138.5,1023,2018,5,11,13,44,23.37,-0.5964,0.6054,-0.5263,-0.0248
0.213,0.029,0.216,-13.7,231.6,-136.6,1023,2018,5,11,13,44,23.393,-0.6167,0.5695,-0.543,-0.0174
0.168,0.104,0.195,-8.2,236.2,-133.6,1023,2018,5,11,13,44,23.397,-0.6379,0.5308,-0.5577,-0.0082
0.19,0.225,0.152,0.2,222.8,-134.4,1023,2018,5,11,13,44,23.416,-0.6581,0.4914,-0.5703,-0.0003
0.237,0.327,0.079,7.6,173.2,-134.9,1023,2018,5,11,13,44,23.437,-0.6751,0.4547,-0.5808,0.0035
0.275,0.384,0.065,18.4,122.8,-132.5,1023,2018,5,11,13,44,23.456,-0.6876,0.4237,-0.5894,0.0011
0.204,0.424,0.145,34,98.1,-127.6,1023,2018,5,11,13,44,23.496,-0.6981,0.3973,-0.5955,-0.0056
0.202,0.533,0.23,48.3,98.3,-115.3,0,2018,5,11,13,44,23.516,-0.7089,0.3725,-0.5987,-0.0134
0.206,0.663,0.249,55.5,87.4,-99.1,0,2018,5,11,13,44,23.52,-0.7199,0.3495,-0.5991,-0.0205
0.238,0.668,0.161,55.5,59.4,-76.9,0,2018,5,11,13,44,23.538,-0.7298,0.3308,-0.5975,-0.0271
0.201,0.582,0.158,53.8,35.7,-56,0,2018,5,11,13,44,23.558,-0.7377,0.3178,-0.5945,-0.034
0.138,0.563,0.229,47,25.9,-34.9,0,2018,5,11,13,44,23.576,-0.7444,0.3088,-0.5906,-0.0393
0.076,0.62,0.221,29.1,-4,-13.5,0,2018,5,11,13,44,23.595,-0.7488,0.3045,-0.5869,-0.0436
0.062,0.622,0.122,8.9,-37.6,8.9,0,2018,5,11,13,44,23.629,-0.7496,0.307,-0.5844,-0.0472
-0.054,0.573,0.016,-7.8,-63.1,33.3,0,2018,5,11,13,44,23.65,-0.7469,0.3161,-0.5827,-0.05
-0.194,0.546,-0.129,-19.1,-61.8,61.6,0,2018,5,11,13,44,23.657,-0.7423,0.3295,-0.5812,-0.0498
-0.412,0.508,-0.348,-23.6,-60.2,91.9,0,2018,5,11,13,44,23.695,-0.7373,0.3449,-0.579,-0.0445
-0.581,0.275,-0.716,-16.2,-101.1,114.7,0,2018,5,11,13,44,23.716,-0.731,0.3658,-0.5746,-0.0381
-0.724,-0.167,-1.018,4.8,-131.2,126.8,0,2018,5,11,13,44,23.72,-0.7232,0.3933,-0.5665,-0.0343
-0.833,-0.294,-1.01,29.3,-124.1,121,0,2018,5,11,13,44,23.738,-0.7166,0.4215,-0.5546,-0.0324
-0.945,-0.067,-0.739,40.5,-143.5,104.9,0,2018,5,11,13,44,23.777,-0.7105,0.4487,-0.5409,-0.0335
-0.803,-0.05,-0.554,38.6,-153.7,82.1,0,2018,5,11,13,44,23.781,-0.7026,0.4758,-0.5275,-0.039
-0.344,-0.25,-0.511,28.6,-149.5,52.1,0,2018,5,11,13,44,23.797,-0.6932,0.5002,-0.5166,-0.0476
-0.023,-0.384,-0.372,19.2,-158.7,15.9,0,2018,5,11,13,44,23.817,-0.6819,0.5213,-0.5095,-0.0588
0.236,-0.329,0.065,8.9,-181.4,-19.6,0,2018,5,11,13,44,23.837,-0.6671,0.5413,-0.5061,-0.0751
0.513,-0.397,0.572,-2,-177.6,-53.4,0,2018,5,11,13,44,23.877,-0.6491,0.5591,-0.5067,-0.0956
0.827,-0.601,0.887,-11.8,-128.3,-90.7,0,2018,5,11,13,44,23.881,-0.6316,0.5703,-0.512,-0.1164
0.898,-0.647,0.951,-10.6,-38.9,-121.6,0,2018,5,11,13,44,23.898,-0.6196,0.57,-0.5224,-0.1344
0.698,-0.44,0.955,-1.5,62.9,-136.1,0,2018,5,11,13,44,23.933,-0.6172,0.5566,-0.5364,-0.1464
0.504,-0.228,0.832,3.2,172.6,-133.9,0,2018,5,11,13,44,23.953,-0.6252,0.5306,-0.5523,-0.1497
0.331,0.069,0.583,0.8,262.5,-122.1,0,2018,5,11,13,44,23.957,-0.642,0.4933,-0.5693,-0.1424
0.174,0.482,0.472,-10.7,267.6,-105.4,0,2018,5,11,13,44,23.976,-0.6618,0.4504,-0.5856,-0.1271
0.087,0.489,0.332,-27.9,197.4,-82.4,0,2018,5,11,13,44,23.995,-0.6752,0.4142,-0.5997,-0.1128
-0.059,0.461,0.195,-44.3,131.7,-62.7,0,2018,5,11,13,44,24.017,-0.6814,0.388,-0.6121,-0.1017
-0.203,0.573,-0.032,-58.2,76.8,-39.4,0,2018,5,11,13,44,24.037,-0.6817,0.371,-0.6235,-0.0932
-0.264,0.948,-0.589,-52.6,6.1,-0.8,0,2018,5,11,13,44,24.074,-0.6776,0.3649,-0.6323,-0.0878
-0.345,1.082,-1.105,-13.4,-53.4,63.6,0,2018,5,11,13,44,24.095,-0.6726,0.372,-0.6339,-0.0848
-0.588,0.548,-1.001,39.9,-65.1,124.2,0,2018,5,11,13,44,24.099,-0.6715,0.39,-0.6247,-0.0814
-0.584,0.263,-0.724,72.6,-83.7,150.4,0,2018,5,11,13,44,24.12,-0.6748,0.4126,-0.6069,-0.0767
-0.39,0.007,-0.506,82.9,-160.7,148.6,0,2018,5,11,13,44,24.139,-0.6761,0.4415,-0.5846,-0.0772
-0.152,-0.394,-0.09,79.1,-222,122.7,1023,2018,5,11,13,44,24.177,-0.6703,0.4773,-0.5613,-0.0873
0.131,-0.779,0.454,60.2,-212.6,79.7,1023,2018,5,11,13,44,24.196,-0.6594,0.5118,-0.5408,-0.1028
0.387,-0.954,0.852,37.6,-154.2,23.1,1023,2018,5,11,13,44,24.2,-0.6479,0.5368,-0.5272,-0.1185
0.534,-0.98,1.096,15.6,-46.4,-31.6,1023,2018,5,11,13,44,24.218,-0.6405,0.5471,-0.5226,-0.131
0.575,-0.754,0.975,-0.1,92.8,-75.8,1023,2018,5,11,13,44,24.238,-0.6421,0.5389,-0.5279,-0.1356
0.441,-0.236,0.721,-9.9,187.9,-102.9,1023,2018,5,11,13,44,24.259,-0.6532,0.5136,-0.5405,-0.1315
0.358,0.234,0.408,-16.1,210.8,-102.8,1023,2018,5,11,13,44,24.279,-0.6673,0.4802,-0.5557,-0.123
0.263,0.452,0.128,-12.8,190.9,-86.1,0,2018,5,11,13,44,24.315,-0.6803,0.4473,-0.5693,-0.1132
0.091,0.537,0.047,-7.8,157.6,-63.9,0,2018,5,11,13,44,24.337,-0.6911,0.4192,-0.5794,-0.1042
-0.017,0.702,-0.18,-5.7,108.1,-34.2,0,2018,5,11,13,44,24.341,-0.6992,0.3979,-0.586,-0.0961
-0.085,1.137,-0.61,8.5,13.3,12.8,0,2018,5,11,13,44,24.362,-0.7032,0.3892,-0.5877,-0.0917
-0.423,0.983,-0.772,30.3,-65.3,76.9,0,2018,5,11,13,44,24.381,-0.7037,0.3977,-0.5816,-0.0906
-0.665,0.696,-0.607,46,-78.3,129.5,0,2018,5,11,13,44,24.419,-0.704,0.4169,-0.5681,-0.0876
-0.83,0.354,-0.534,47,-108.7,157.6,0,2018,5,11,13,44,24.439,-0.7038,0.4419,-0.55,-0.0819
-0.705,0.025,-0.581,40.4,-138.7,156.3,0,2018,5,11,13,44,24.443,-0.7001,0.4715,-0.5304,-0.0772
-0.56,-0.183,-0.254,30.8,-169.3,141.6,0,2018,5,11,13,44,24.46,-0.692,0.5037,-0.5113,-0.076
-0.343,-0.475,0.125,7.9,-170.5,107.9,0,2018,5,11,13,44,24.48,-0.6796,0.5353,-0.4954,-0.0777
0.025,-0.656,0.387,-18.7,-143.2,61.5,0,2018,5,11,13,44,24.5,-0.665,0.5612,-0.486,-0.0806
0.375,-0.847,0.654,-38.9,-98.8,12.2,0,2018,5,11,13,44,24.522,-0.6511,0.5785,-0.484,-0.0839
0.698,-0.858,0.897,-55.4,-42.7,-39.1,0,2018,5,11,13,44,24.541,-0.6396,0.586,-0.4897,-0.0868
0.725,-0.677,0.905,-70,32.1,-86.4,0,2018,5,11,13,44,24.578,-0.6327,0.5818,-0.5033,-0.088
0.641,-0.345,0.669,-74.3,106.8,-115.7,0,2018,5,11,13,44,24.597,-0.6318,0.5657,-0.5228,-0.0857
0.568,0.015,0.412,-69.5,167.9,-123.2,0,2018,5,11,13,44,24.601,-0.637,0.5398,-0.5445,-0.0791
0.437,0.268,0.27,-62.8,184,-116.6,0,2018,5,11,13,44,24.641,-0.6456,0.5088,-0.5652,-0.0692
0.232,0.391,0.204,-62.4,173.1,-104.4,0,2018,5,11,13,44,24.662,-0.6537,0.478,-0.5837,-0.0586
0.029,0.492,0.085,-65.7,150.1,-83.5,0,2018,5,11,13,44,24.666,-0.6594,0.4502,-0.6001,-0.0478
-0.138,0.428,-0.189,-65.2,125.8,-59.4,0,2018,5,11,13,44,24.681,-0.6624,0.4274,-0.614,-0.0368
-0.234,0.404,-0.485,-53.8,103.4,-37.2,0,2018,5,11,13,44,24.702,-0.6641,0.4093,-0.625,-0.0257
-0.348,0.466,-0.709,-28.4,65.1,-9.8,0,2018,5,11,13,44,24.721,-0.6654,0.3971,-0.6318,-0.0164
-0.403,0.365,-0.807,6.3,21.6,16.4,0,2018,5,11,13,44,24.743,-0.6672,0.3927,-0.6327,-0.0106
-0.448,0.167,-0.697,37.3,-21.8,30,0,2018,5,11,13,44,24.762,-0.6699,0.3955,-0.6282,-0.01
-0.335,0.096,-0.558,53.7,-57.9,34.4,0,2018,5,11,13,44,24.783,-0.6723,0.4038,-0.6202,-0.014
-0.188,0.117,-0.441,60,-101.7,30,0,2018,5,11,13,44,24.804,-0.6727,0.4166,-0.6109,-0.0233
-0.063,0.186,-0.274,66.2,-134.2,29.9,0,2018,5,11,13,44,24.843,-0.6708,0.4335,-0.6005,-0.0375
0.027,0.038,0,66.5,-136.3,30,0,2018,5,11,13,44,24.862,-0.6672,0.4522,-0.5894,-0.0535
0.126,-0.183,0.333,58.3,-119.8,16.7,0,2018,5,11,13,44,24.866,-0.6636,0.4688,-0.5787,-0.0689
0.247,-0.188,0.515,43.7,-94,-0.2,0,2018,5,11,13,44,24.882,-0.66,0.4812,-0.5707,-0.0832
0.274,-0.076,0.559,31.3,-69,-13.4,0,2018,5,11,13,44,24.901,-0.6567,0.4892,-0.5658,-0.0954
0.283,-0.057,0.572,27.2,-26.6,-16.2,0,2018,5,11,13,44,24.94,-0.655,0.4928,-0.5631,-0.1042
0.271,-0.138,0.606,24.5,40.4,-16.9,1023,2018,5,11,13,44,24.96,-0.6578,0.4899,-0.5617,-0.1077
0.255,-0.017,0.552,20,107.9,-18.2,1023,2018,5,11,13,44,24.964,-0.6662,0.4788,-0.562,-0.104
0.229,0.179,0.452,14,133.8,-18.2,1023,2018,5,11,13,44,24.984,-0.678,0.4619,-0.5637,-0.0954
0.233,0.251,0.33,12,132.9,-14.4,1023,2018,5,11,13,44,25.022,-0.6896,0.4441,-0.5655,-0.0854
0.237,0.253,0.279,15.4,131.8,-10,1023,2018,5,11,13,44,25.041,-0.701,0.4265,-0.5665,-0.0749
0.277,0.305,0.317,16.2,105.9,-9.2,1023,2018,5,11,13,44,25.045,-0.7112,0.4106,-0.5666,-0.0657
0.304,0.341,0.393,13,74,-9.9,1023,2018,5,11,13,44,25.084,-0.7191,0.3982,-0.5662,-0.0595
0.306,0.413,0.326,5,31.2,-9.9,0,2018,5,11,13,44,25.103,-0.7234,0.3907,-0.5663,-0.0564
0.297,0.492,0.261,-0.2,4.7,-4.6,0,2018,5,11,13,44,25.108,-0.7248,0.3878,-0.5665,-0.0563
0.203,0.612,0.232,-8.5,-25,7.2,0,2018,5,11,13,44,25.144,-0.7237,0.3892,-0.5668,-0.0573
0.099,0.619,0.196,-17.9,-47.7,25,0,2018,5,11,13,44,25.148,-0.72,0.3957,-0.5669,-0.0584
-0.04,0.55,0.104,-28.1,-57,46.6,0,2018,5,11,13,44,25.164,-0.7145,0.4062,-0.5666,-0.0578
-0.112,0.533,-0.047,-35.2,-54,68.6,0,2018,5,11,13,44,25.201,-0.7078,0.4193,-0.5658,-0.054
-0.181,0.393,-0.247,-31,-23.5,90.8,0,2018,5,11,13,44,25.223,-0.7024,0.4322,-0.5635,-0.0456
-0.262,0.363,-0.362,-18.1,-25,105,0,2018,5,11,13,44,25.227,-0.6992,0.4445,-0.5588,-0.0337
-0.324,0.177,-0.602,1.7,-72.1,110.9,0,2018,5,11,13,44,25.246,-0.6953,0.4608,-0.5509,-0.0245
-0.415,-0.041,-0.657,21.8,-103.4,110.2,0,2018,5,11,13,44,25.263,-0.6893,0.4825,-0.5398,-0.0214
-0.404,-0.136,-0.554,36.2,-76.2,102.5,0,2018,5,11,13,44,25.285,-0.6847,0.5034,-0.5265,-0.0199
-0.358,0.044,-0.413,42.7,-43.1,91.3,0,2018,5,11,13,44,25.327,-0.6836,0.5188,-0.513,-0.0171
-0.247,0.15,-0.337,47.4,-34.1,84.1,0,2018,5,11,13,44,25.346,-0.6843,0.5308,-0.4996,-0.0137
-0.183,0.07,-0.142,46.2,-42,74.2,0,2018,5,11,13,44,25.35,-0.685,0.542,-0.4865,-0.0117
-0.123,-0.018,0.005,35,-58.8,63,0,2018,5,11,13,44,25.367,-0.6837,0.5539,-0.4748,-0.0111
-0.007,-0.067,0.081,19.8,-91.5,47.7,0,2018,5,11,13,44,25.386,-0.679,0.5674,-0.4655,-0.0126
0.094,-0.112,0.152,4.8,-120.4,32.2,0,2018,5,11,13,44,25.405,-0.6696,0.5831,-0.4595,-0.0177
0.162,-0.163,0.195,-6,-119.1,20,0,2018,5,11,13,44,25.427,-0.657,0.5992,-0.4566,-0.0242
0.162,-0.295,0.233,-11.9,-104.3,5.1,0,2018,5,11,13,44,25.445,-0.6443,0.6131,-0.4559,-0.0305
0.245,-0.434,0.308,-17.3,-84.3,-15.4,0,2018,5,11,13,44,25.484,-0.6329,0.6233,-0.4576,-0.037
0.348,-0.541,0.388,-20.5,-48.5,-36.7,0,2018,5,11,13,44,25.505,-0.6238,0.6287,-0.4622,-0.0431
0.351,-0.518,0.423,-20.5,-4.8,-57.2,0,2018,5,11,13,44,25.509,-0.619,0.6277,-0.4694,-0.0481
0.372,-0.432,0.351,-18.2,31.4,-78.9,0,2018,5,11,13,44,25.526,-0.6184,0.6206,-0.4792,-0.0519
0.448,-0.349,0.293,-11,64.5,-96.8,0,2018,5,11,13,44,25.547,-0.6213,0.608,-0.491,-0.0557
0.384,-0.28,0.327,-1.3,112.6,-109.2,0,2018,5,11,13,44,25.565,-0.629,0.5894,-0.5033,-0.0586
0.309,-0.08,0.311,7.6,164.9,-116.7,0,2018,5,11,13,44,25.602,-0.6423,0.5636,-0.5159,-0.059
0.259,0.102,0.248,15.6,199.2,-117.9,0,2018,5,11,13,44,25.623,-0.6598,0.5318,-0.5277,-0.0566
0.224,0.226,0.192,22.6,204.8,-116.8,0,2018,5,11,13,44,25.627,-0.6788,0.4968,-0.538,-0.0528
0.232,0.369,0.192,27.6,176.7,-113.2,0,2018,5,11,13,44,25.647,-0.6962,0.4626,-0.5464,-0.0505
0.171,0.364,0.232,30.6,140,-109.3,0,2018,5,11,13,44,25.668,-0.7104,0.4324,-0.5528,-0.0517
0.168,0.396,0.258,30.2,110.3,-104.3,0,2018,5,11,13,44,25.69,-0.7215,0.4062,-0.5578,-0.0555
0.164,0.557,0.273,24.7,58.1,-98.1,1023,2018,5,11,13,44,25.708,-0.7291,0.3852,-0.5621,-0.0624
0.174,0.605,0.216,18.6,8,-82,1023,2018,5,11,13,44,25.73,-0.7321,0.3723,-0.5656,-0.0726
0.128,0.634,0.186,12.5,-8.3,-59.9,1023,2018,5,11,13,44,25.75,-0.7325,0.3654,-0.5681,-0.0831
0.067,0.739,0.148,3.6,-7.1,-32.4,1023,2018,5,11,13,44,25.787,-0.7322,0.3618,-0.5698,-0.0904
0.037,0.746,0.092,-3.6,-10.9,-3.4,1023,2018,5,11,13,44,25.806,-0.7313,0.3612,-0.5707,-0.0937
-0.034,0.637,0.043,-12.6,-14,22.2,1023,2018,5,11,13,44,25.81,-0.73,0.3639,-0.5708,-0.0935
-0.057,0.633,-0.071,-20.1,-18.5,45.5,1023,2018,5,11,13,44,25.829,-0.7279,0.3696,-0.5704,-0.0898
-0.118,0.627,-0.18,-22.5,-35.4,69.4,1023,2018,5,11,13,44,25.848,-0.7249,0.379,-0.5689,-0.0838
-0.22,0.596,-0.323,-20.6,-61.3,90.7,0,2018,5,11,13,44,25.867,-0.7207,0.3934,-0.5655,-0.0772
-0.327,0.435,-0.41,-16,-86.6,108,0,2018,5,11,13,44,25.905,-0.7149,0.4129,-0.5598,-0.0707
-0.429,0.221,-0.489,-9.5,-113.1,114.4,0,2018,5,11,13,44,25.926,-0.7075,0.4364,-0.5518,-0.0656
-0.47,0.167,-0.538,-0.7,-137.1,113.3,0,2018,5,11,13,44,25.93,-0.6983,0.4629,-0.5421,-0.0634
-0.501,0.125,-0.45,7.1,-136.5,111,0,2018,5,11,13,44,25.95,-0.6883,0.4902,-0.5308,-0.0631
-0.467,0.074,-0.387,12.1,-117.9,106.3,0,2018,5,11,13,44,25.987,-0.6792,0.5153,-0.5187,-0.0626
-0.401,-0.029,-0.349,15.4,-102,95.5,0,2018,5,11,13,44,26.007,-0.6715,0.5371,-0.5066,-0.0617
-0.323,-0.052,-0.257,15.3,-79.8,85.7,0,2018,5,11,13,44,26.011,-0.665,0.5555,-0.4954,-0.0603
-0.205,-0.136,-0.13,14.3,-52.2,75.4,0,2018,5,11,13,44,26.051,-0.6605,0.5699,-0.4852,-0.0577
-0.142,-0.133,0.001,6.2,-45.3,57.1,0,2018,5,11,13,44,26.055,-0.6574,0.5807,-0.477,-0.0546
-0.056,-0.164,-0.03,-8.4,-72.9,36.1,0,2018,5,11,13,44,26.071,-0.6516,0.5917,-0.4715,-0.0532
0.087,-0.243,-0.089,-19.3,-92.7,14.2,0,2018,5,11,13,44,26.108,-0.6413,0.6041,-0.4696,-0.0548
0.173,-0.297,0.078,-20.9,-78.7,-2.1,0,2018,5,11,13,44,26.127,-0.6303,0.6148,-0.4702,-0.0586
0.216,-0.253,0.197,-22.4,-31.8,-13.5,0,2018,5,11,13,44,26.131,-0.6224,0.6204,-0.4729,-0.0618
0.244,-0.188,0.157,-24,13.8,-23,0,2018,5,11,13,44,26.151,-0.6195,0.6199,-0.4774,-0.0618
0.311,-0.16,0.135,-23.1,41.8,-29.6,0,2018,5,11,13,44,26.173,-0.6205,0.6147,-0.4832,-0.0595
0.387,-0.262,0.315,-24.1,63.4,-37.3,0,2018,5,11,13,44,26.211,-0.6239,0.6062,-0.4898,-0.056
0.376,-0.361,0.398,-25.4,76.1,-56.2,0,2018,5,11,13,44,26.23,-0.6288,0.5947,-0.498,-0.0528
0.442,-0.263,0.513,-27.9,105.6,-70.8,0,2018,5,11,13,44,26.234,-0.6352,0.5793,-0.5082,-0.0493
0.527,-0.187,0.559,-26.2,149.2,-83,0,2018,5,11,13,44,26.248,-0.6447,0.5584,-0.5201,-0.0438
0.592,-0.158,0.518,-17.9,195.1,-96.2,0,2018,5,11,13,44,26.268,-0.6586,0.5305,-0.5324,-0.0361
0.613,0.014,0.507,-5.4,216.2,-106.4,0,2018,5,11,13,44,26.287,-0.6758,0.4965,-0.5439,-0.0271
0.589,0.116,0.494,8.7,196.1,-122.1,0,2018,5,11,13,44,26.328,-0.693,0.4608,-0.554,-0.0214
0.526,0.31,0.454,21.4,144.8,-137.1,0,2018,5,11,13,44,26.348,-0.7074,0.427,-0.5627,-0.022
0.396,0.356,0.426,31.4,88.6,-144.9,0,2018,5,11,13,44,26.352,-0.7177,0.3986,-0.57,-0.0303
0.305,0.517,0.349,34.6,49.2,-140.8,0,2018,5,11,13,44,26.372,-0.7248,0.3755,-0.5758,-0.0443
0.196,0.85,0.288,27.4,31.4,-117.3,0,2018,5,11,13,44,26.391,-0.7291,0.3574,-0.5805,-0.0596
0.088,1.08,0.198,15.9,39.5,-69.2,0,2018,5,11,13,44,26.43,-0.7325,0.3431,-0.5838,-0.0691
-0.049,1.068,0.082,-2.3,36.7,-15.7,0,2018,5,11,13,44,26.45,-0.735,0.3338,-0.5858,-0.0712
-0.238,1.002,-0.038,-23.5,28.4,38.2,0,2018,5,11,13,44,26.454,-0.7358,0.3308,-0.5871,-0.0658
-0.455,0.879,-0.333,-41.2,7.2,90.2,1023,2018,5,11,13,44,26.471,-0.734,0.3356,-0.5878,-0.0538
-0.64,0.683,-0.844,-39.1,-34.1,132.9,1023,2018,5,11,13,44,26.491,-0.7298,0.3494,-0.5863,-0.0383
-0.768,0.202,-1.282,-11.5,-54.3,160.3,1023,2018,5,11,13,44,26.51,-0.7251,0.3705,-0.58,-0.0225
-0.991,-0.342,-1.507,29.3,-108,152.6,1023,2018,5,11,13,44,26.548,-0.7213,0.3962,-0.5678,-0.0106
-0.967,-0.598,-1.49,65.9,-171.1,115,1023,2018,5,11,13,44,26.567,-0.7155,0.4278,-0.5519,-0.0117
-0.719,-0.45,-0.878,87.8,-160.2,74.7,1023,2018,5,11,13,44,26.571,-0.7103,0.4574,-0.5343,-0.0222
-0.268,-0.532,-0.343,83.8,-127.3,36.7,0,2018,5,11,13,44,26.593,-0.7068,0.4798,-0.5185,-0.0351
0.078,-0.597,0.416,61.1,-129.8,-8.8,0,2018,5,11,13,44,26.614,-0.7027,0.4959,-0.5075,-0.0505
0.432,-0.949,1.235,22.5,-136,-64.9,0,2018,5,11,13,44,26.651,-0.6939,0.509,-0.5042,-0.0707
0.708,-0.975,1.777,-26.3,-77.9,-129.6,0,2018,5,11,13,44,26.671,-0.6824,0.5136,-0.5117,-0.0922
0.822,-0.543,1.528,-59,28.2,-179.9,0,2018,5,11,13,44,26.675,-0.6731,0.503,-0.5309,-0.1091
0.71,0.084,0.968,-56.2,151.1,-189.1,0,2018,5,11,13,44,26.697,-0.6716,0.4754,-0.5559,-0.1173
0.651,0.666,0.367,-34,239.7,-160.3,0,2018,5,11,13,44,26.716,-0.6797,0.4347,-0.5794,-0.1144
0.467,0.932,0.194,-12.3,248.9,-114,0,2018,5,11,13,44,26.733,-0.6929,0.3911,-0.5966,-0.1038
0.3,1.028,0.054,-1.3,204.1,-69.4,0,2018,5,11,13,44,26.754,-0.7057,0.3537,-0.607,-0.0906
0.26,1.316,-0.358,9,97,-22.4,0,2018,5,11,13,44,26.773,-0.7145,0.3298,-0.6116,-0.0803
0.057,1.435,-0.587,27.7,-49.9,37.5,0,2018,5,11,13,44,26.794,-0.7179,0.3278,-0.609,-0.0785
-0.303,1.296,-0.606,37.6,-144.9,110.1,0,2018,5,11,13,44,26.815,-0.7162,0.3488,-0.5987,-0.0828
-0.688,0.973,-0.51,39.6,-144.6,181.7,0,2018,5,11,13,44,26.834,-0.7128,0.3822,-0.5822,-0.0822
-0.804,0.565,-0.399,37.4,-128.7,228.8,0,2018,5,11,13,44,26.871,-0.7101,0.4192,-0.5608,-0.0725
-0.878,-0.015,-0.443,29.3,-141.8,235,0,2018,5,11,13,44,26.89,-0.7057,0.4579,-0.5372,-0.0589
-0.829,-1.096,-0.343,19.2,-177.6,198.8,0,2018,5,11,13,44,26.897,-0.6968,0.4975,-0.5143,-0.0483
-0.574,-1.691,-0.007,8.9,-192.2,95.5,0,2018,5,11,13,44,26.917,-0.6821,0.5334,-0.4977,-0.0491
-0.069,-1.818,0.164,1.7,-82.9,-8.8,0,2018,5,11,13,44,26.936,-0.6691,0.554,-0.4919,-0.0572
0.434,-1.319,0.227,-2.9,52,-110.5,0,2018,5,11,13,44,26.954,-0.6676,0.5494,-0.498,-0.0654
0.575,-0.68,0.332,-8.5,128.4,-184.9,0,2018,5,11,13,44,26.974,-0.6742,0.5247,-0.5143,-0.0741
0.506,-0.035,0.26,-5.9,167.4,-220.2,0,2018,5,11,13,44,26.995,-0.6839,0.4879,-0.5356,-0.084
0.375,0.476,0.2,7.2,196,-216.9,0,2018,5,11,13,44,27.015,-0.6954,0.4448,-0.5565,-0.0934
0.278,0.95,0.186,16.2,188.1,-189.7,0,2018,5,11,13,44,27.036,-0.7075,0.4005,-0.5734,-0.1002
0.185,1.135,0.236,17,150.9,-142.1,0,2018,5,11,13,44,27.057,-0.7175,0.3625,-0.5853,-0.1048
0.157,1.278,0.161,11.7,87.8,-90,0,2018,5,11,13,44,27.076,-0.7242,0.3352,-0.5926,-0.1082
0.011,1.466,-0.063,11.3,7.8,-23.1,0,2018,5,11,13,44,27.097,-0.727,0.3233,-0.5953,-0.1112
-0.222,1.474,-0.275,13.4,-64.8,51.6,0,2018,5,11,13,44,27.116,-0.7268,0.3287,-0.5922,-0.1134
-0.469,1.251,-0.354,15.3,-102.7,125.9,0,2018,5,11,13,44,27.137,-0.7248,0.3491,-0.5832,-0.1117
-0.628,0.981,-0.32,12.6,-113.5,183.4,0,2018,5,11,13,44,27.172,-0.7224,0.3782,-0.5693,-0.1035
-0.64,0.697,-0.318,13.9,-144.6,224.5,0,2018,5,11,13,44,27.194,-0.7183,0.4143,-0.5514,-0.0909
-0.686,0.099,-0.395,18.3,-176.3,244.8,0,2018,5,11,13,44,27.198,-0.7109,0.4568,-0.5288,-0.0779
-0.666,-0.496,-0.5,23.7,-197.6,232.8,1023,2018,5,11,13,44,27.217,-0.7002,0.5013,-0.5038,-0.0668
-0.566,-1.182,-0.492,31.7,-214.1,179.9,1023,2018,5,11,13,44,27.237,-0.6858,0.5442,-0.4792,-0.0617
-0.091,-1.374,-0.276,39.5,-160.2,101,1023,2018,5,11,13,44,27.256,-0.6711,0.5782,-0.4593,-0.0644
0.267,-1.157,-0.005,45.4,-61.3,16.7,1023,2018,5,11,13,44,27.278,-0.664,0.5948,-0.4474,-0.0706
0.525,-0.972,0.27,47.8,31.7,-56.6,1023,2018,5,11,13,44,27.315,-0.6659,0.5939,-0.4443,-0.0789
0.604,-0.631,0.551,37.9,108.3,-115.1,1023,2018,5,11,13,44,27.336,-0.6757,0.5777,-0.4493,-0.088
0.583,-0.234,0.652,17.9,154.2,-159.5,1023,2018,5,11,13,44,27.34,-0.6888,0.5501,-0.462,-0.0965
0.36,0.17,0.677,0.1,175.6,-181,1023,2018,5,11,13,44,27.36,-0.7021,0.5153,-0.48,-0.1046
0.213,0.516,0.581,-13.8,184.1,-171.1,1023,2018,5,11,13,44,27.381,-0.7136,0.478,-0.4999,-0.1103
0.188,0.914,0.44,-26.5,169.5,-143,0,2018,5,11,13,44,27.423,-0.7232,0.4418,-0.5187,-0.1126
0.155,1.358,0.1,-34.1,110.9,-92.4,0,2018,5,11,13,44,27.425,-0.7285,0.4134,-0.5344,-0.1123
0.077,1.564,-0.219,-18,32.2,-14.7,0,2018,5,11,13,44,27.436,-0.7298,0.4001,-0.5429,-0.1109
-0.201,1.335,-0.238,2.5,-6,69.8,0,2018,5,11,13,44,27.473,-0.7305,0.402,-0.5418,-0.1057
-0.399,1.206,-0.18,9.6,-47.7,140,0,2018,5,11,13,44,27.492,-0.7312,0.4153,-0.5326,-0.095
-0.522,0.973,-0.255,6.4,-103.8,191.8,0,2018,5,11,13,44,27.496,-0.7289,0.4403,-0.5178,-0.0812
-0.614,0.72,-0.507,6.1,-167.3,225.6,0,2018,5,11,13,44,27.536,-0.7211,0.4765,-0.4983,-0.0672
-0.76,0.217,-0.556,3.1,-195.1,233.8,0,2018,5,11,13,44,27.555,-0.7077,0.5195,-0.4756,-0.0546
-0.733,-0.371,-0.629,3.1,-188.6,215.5,0,2018,5,11,13,44,27.558,-0.6912,0.5619,-0.4523,-0.043
-0.502,-0.593,-0.558,9.2,-152.4,172.5,0,2018,5,11,13,44,27.596,-0.6758,0.597,-0.4308,-0.0334
-0.222,-0.721,-0.364,16.8,-131,118.5,0,2018,5,11,13,44,27.616,-0.6624,0.624,-0.4133,-0.0281
0.072,-0.893,0.083,16.8,-98.7,58.3,0,2018,5,11,13,44,27.623,-0.6513,0.6435,-0.401,-0.0282
0.344,-0.944,0.367,5,-53.8,-5.1,0,2018,5,11,13,44,27.639,-0.6437,0.6536,-0.3966,-0.0316
0.565,-0.872,0.514,-10.3,-28.9,-66.2,0,2018,5,11,13,44,27.677,-0.6388,0.6554,-0.401,-0.0381
0.625,-0.824,0.571,-18.2,-4,-115,0,2018,5,11,13,44,27.698,-0.6348,0.651,-0.4133,-0.048
0.546,-0.637,0.56,-17.5,66.1,-144.5,0,2018,5,11,13,44,27.702,-0.6353,0.6383,-0.4306,-0.0583
0.467,-0.44,0.481,-14,167.3,-159.4,0,2018,5,11,13,44,27.719,-0.6453,0.6134,-0.4505,-0.0645
0.35,-0.102,0.367,-15.6,251.8,-163.9,0,2018,5,11,13,44,27.759,-0.6646,0.5759,-0.4715,-0.0643
0.222,0.216,0.318,-20.2,277.7,-159.2,0,2018,5,11,13,44,27.78,-0.6875,0.5305,-0.4923,-0.0587
0.165,0.47,0.262,-28.2,223,-151.4,0,2018,5,11,13,44,27.784,-0.7065,0.486,-0.5115,-0.0533
0.129,0.557,0.174,-37,139.2,-138,0,2018,5,11,13,44,27.803,-0.7169,0.4509,-0.529,-0.0526
0.092,0.74,0,-42.4,71,-115.2,0,2018,5,11,13,44,27.84,-0.7197,0.4266,-0.5447,-0.056
0.079,1.119,-0.254,-31.8,15.9,-78.5,0,2018,5,11,13,44,27.844,-0.718,0.4124,-0.5571,-0.0618
-0.028,1.246,-0.381,-8.7,-37,-18.8,0,2018,5,11,13,44,27.862,-0.7145,0.4096,-0.5629,-0.0677
-0.184,1.145,-0.338,9.7,-59.1,44.8,0,2018,5,11,13,44,27.879,-0.7112,0.4174,-0.5611,-0.0707
-0.352,0.978,-0.304,16.7,-82.5,98.7,0,2018,5,11,13,44,27.917,-0.7083,0.4331,-0.5529,-0.0694
-0.445,0.795,-0.397,22.4,-126.6,139.4,0,2018,5,11,13,44,27.938,-0.7035,0.4572,-0.5399,-0.066
-0.57,0.586,-0.488,28.6,-171.3,170.3,0,2018,5,11,13,44,27.942,-0.6951,0.49,-0.5221,-0.0631
-0.675,0.35,-0.492,29.7,-220.8,183.5,0,2018,5,11,13,44,27.962,-0.6821,0.5294,-0.5006,-0.0616
-0.728,0.019,-0.501,27.5,-272.9,180.8,1023,2018,5,11,13,44,27.982,-0.6624,0.574,-0.477,-0.0639
-0.691,-0.425,-0.519,22.2,-284.2,161,1023,2018,5,11,13,44,28.016,-0.6365,0.6202,-0.453,-0.07
-0.462,-0.564,-0.207,9.3,-227.4,128.2,1023,2018,5,11,13,44,28.037,-0.6109,0.6591,-0.4318,-0.0757
0.037,-0.795,-0.016,-5.6,-153.8,68.2,1023,2018,5,11,13,44,28.044,-0.5899,0.6863,-0.4176,-0.0795
0.46,-0.886,0.107,-14.8,-92.1,1.3,1023,2018,5,11,13,44,28.081,-0.575,0.7011,-0.4132,-0.0833
0.64,-1.076,0.336,-16.5,-32.9,-60,1023,2018,5,11,13,44,28.102,-0.5658,0.7052,-0.4177,-0.0889
0.718,-0.968,0.515,-15.1,24.5,-113.4,1023,2018,5,11,13,44,28.106,-0.5628,0.6991,-0.4303,-0.0957
0.765,-0.759,0.511,-7.9,77.3,-152.7,1023,2018,5,11,13,44,28.122,-0.5658,0.6838,-0.4487,-0.1036
0.731,-0.505,0.508,6.7,148.2,-171.4,1023,2018,5,11,13,44,28.159,-0.5758,0.6595,-0.4702,-0.1109
0.618,-0.171,0.465,22.6,231.2,-173.6,0,2018,5,11,13,44,28.179,-0.5951,0.6249,-0.492,-0.1142
0.459,0.179,0.397,35.6,294.9,-161.5,0,2018,5,11,13,44,28.183,-0.6226,0.5812,-0.5118,-0.1119
0.341,0.464,0.418,35.4,262.8,-149.2,0,2018,5,11,13,44,28.203,-0.651,0.5344,-0.5283,-0.1065
0.294,0.573,0.385,25.8,171.8,-131,0,2018,5,11,13,44,28.222,-0.6705,0.496,-0.5414,-0.1054
0.193,0.605,0.278,14.7,107.5,-107.8,0,2018,5,11,13,44,28.259,-0.6815,0.4684,-0.5516,-0.1085
0.061,0.752,0.129,4.4,73.7,-79.5,0,2018,5,11,13,44,28.281,-0.6876,0.4486,-0.5597,-0.1117
-0.079,1.02,0.039,-6.3,35.6,-39.9,0,2018,5,11,13,44,28.285,-0.6907,0.436,-0.5656,-0.1132
-0.172,1.248,-0.113,-14.9,-35,12.5,0,2018,5,11,13,44,28.324,-0.6893,0.4349,-0.568,-0.1138
-0.337,1.149,-0.271,-19.1,-96.5,67.4,0,2018,5,11,13,44,28.342,-0.683,0.4479,-0.5654,-0.1145
-0.467,1.018,-0.379,-19.7,-122.7,115.5,0,2018,5,11,13,44,28.345,-0.6738,0.4707,-0.5581,-0.1128
-0.544,0.699,-0.412,-13.6,-127,156.4,0,2018,5,11,13,44,28.36,-0.6641,0.4991,-0.546,-0.1074
-0.611,0.429,-0.402,-11.6,-141.3,171.7,0,2018,5,11,13,44,28.382,-0.6542,0.5301,-0.5301,-0.0993
-0.623,0.374,-0.529,-15.6,-197.6,165.2,0,2018,5,11,13,44,28.42,-0.6396,0.5648,-0.5127,-0.0942
-0.541,0.254,-0.522,-13.1,-230.8,162.6,0,2018,5,11,13,44,28.441,-0.6183,0.6037,-0.4943,-0.0937
-0.484,-0.104,-0.272,-6.2,-189.9,151.7,0,2018,5,11,13,44,28.445,-0.5966,0.6401,-0.4747,-0.0941
-0.344,-0.277,-0.075,-1.2,-111.6,132.7,0,2018,5,11,13,44,28.465,-0.5815,0.6671,-0.4565,-0.0909
-0.141,-0.299,0.01,-3.2,-82.1,105.8,0,2018,5,11,13,44,28.486,-0.5727,0.6854,-0.4413,-0.0857
0.065,-0.269,0.062,-11.9,-99.2,79.6,0,2018,5,11,13,44,28.506,-0.5625,0.7015,-0.4297,-0.0825
0.141,-0.334,0.119,-19.8,-101.9,58,0,2018,5,11,13,44,28.545,-0.5495,0.7167,-0.4213,-0.0816
0.118,-0.41,0.173,-25.1,-70.6,38.5,0,2018,5,11,13,44,28.549,-0.5374,0.7289,-0.4162,-0.0807
0.192,-0.347,0.194,-31.6,-32.6,22.1,0,2018,5,11,13,44,28.565,-0.5295,0.736,-0.4144,-0.0779
0.311,-0.239,0.156,-38.1,-21.6,9.8,0,2018,5,11,13,44,28.584,-0.524,0.7398,-0.4152,-0.0738
0.34,-0.2,0.116,-39.3,-24.5,2.6,0,2018,5,11,13,44,28.603,-0.5182,0.7429,-0.4178,-0.0698
0.272,-0.184,0.168,-35.2,-8.7,1,0,2018,5,11,13,44,28.623,-0.5132,0.7451,-0.4207,-0.0663
0.191,-0.132,0.231,-31.5,17.2,2.4,0,2018,5,11,13,44,28.663,-0.5116,0.745,-0.4234,-0.0615
0.12,-0.108,0.268,-29.9,25.2,2.5,0,2018,5,11,13,44,28.683,-0.5124,0.7435,-0.426,-0.0557
0.097,-0.08,0.306,-32.3,21.1,5.9,0,2018,5,11,13,44,28.687,-0.5132,0.742,-0.4284,-0.0496
0.071,-0.12,0.322,-36.5,28.7,13.2,1023,2018,5,11,13,44,28.708,-0.5138,0.7408,-0.4304,-0.0426
0.049,-0.153,0.32,-41.6,54.7,20.6,1023,2018,5,11,13,44,28.728,-0.5161,0.7388,-0.432,-0.0331
0.11,-0.204,0.348,-46.7,116.2,30.3,1023,2018,5,11,13,44,28.765,-0.5238,0.7332,-0.4331,-0.0186
0.138,-0.098,0.311,-52.9,168.6,38.4,1023,2018,5,11,13,44,28.785,-0.5387,0.7223,-0.4334,0.0016
0.179,-0.01,0.289,-59.1,199,45.3,1023,2018,5,11,13,44,28.789,-0.5579,0.7075,-0.4329,0.0266
0.217,0.06,0.264,-61.5,218.1,55,1023,2018,5,11,13,44,28.806,-0.5785,0.69,-0.4312,0.0547
0.274,0.142,0.318,-62,227.2,68.8,1023,2018,5,11,13,44,28.843,-0.5997,0.6709,-0.4275,0.0852
0.385,0.149,0.373,-63.9,226.4,81.7,1023,2018,5,11,13,44,28.865,-0.6201,0.6512,-0.4213,0.1173
0.431,0.197,0.407,-67.3,222.2,91,0,2018,5,11,13,44,28.869,-0.6385,0.6313,-0.4134,0.1504
0.467,0.37,0.402,-69.3,227,103.3,0,2018,5,11,13,44,28.887,-0.655,0.6111,-0.4041,0.1846
0.575,0.551,0.302,-60.2,233.6,124,0,2018,5,11,13,44,28.923,-0.671,0.5896,-0.3914,0.2208
0.605,0.616,0.364,-47.6,199.6,141.3,0,2018,5,11,13,44,28.943,-0.6845,0.5702,-0.3748,0.2563
0.52,0.535,0.532,-44.3,143.1,154.4,0,2018,5,11,13,44,28.947,-0.6915,0.557,-0.3574,0.2892
0.481,0.36,0.547,-47.6,110.7,166.8,0,2018,5,11,13,44,28.985,-0.692,0.5496,-0.3409,0.3205
0.547,0.188,0.282,-45.5,129.2,178.3,0,2018,5,11,13,44,29.005,-0.6901,0.5429,-0.3234,0.3525
0.607,0.128,0.146,-30.6,197.6,190.1,0,2018,5,11,13,44,29.009,-0.6914,0.5308,-0.3002,0.3872
0.472,0.086,0.304,-18.5,231.2,195.6,0,2018,5,11,13,44,29.027,-0.6968,0.5119,-0.2694,0.4238
0.386,-0.07,0.465,-25.9,239.3,198.8,0,2018,5,11,13,44,29.047,-0.7012,0.4904,-0.2369,0.4598
0.372,-0.116,0.486,-36,254.3,204.4,0,2018,5,11,13,44,29.068,-0.7039,0.4651,-0.203,0.4968
0.377,0.008,0.182,-44.1,239.8,214,0,2018,5,11,13,44,29.089,-0.7036,0.4373,-0.1692,0.5337
0.283,-0.038,-0.013,-43.4,220,233.2,0,2018,5,11,13,44,29.11,-0.6978,0.4112,-0.1361,0.5704
0.003,-0.37,0.04,-43.9,219.2,241,0,2018,5,11,13,44,29.128,-0.6876,0.3851,-0.1021,0.6069
-0.204,-0.481,0.106,-46.8,212.5,235,0,2018,5,11,13,44,29.168,-0.6752,0.3576,-0.0682,0.6414
-0.217,-0.439,0.012,-45.1,172.9,222.2,0,2018,5,11,13,44,29.189,-0.6604,0.3314,-0.0376,0.6727
-0.26,-0.429,-0.106,-39.1,103.7,202.1,0,2018,5,11,13,44,29.193,-0.6426,0.3114,-0.014,0.6998
-0.265,-0.639,-0.314,-38.1,61.1,174.2,0,2018,5,11,13,44,29.212,-0.6232,0.2986,0.0008,0.7227
-0.17,-0.722,-0.481,-27.2,90.8,140.7,0,2018,5,11,13,44,29.233,-0.6067,0.2866,0.0146,0.7412
-0.332,-0.883,-0.332,-7.6,98.7,91.4,0,2018,5,11,13,44,29.248,-0.5961,0.2739,0.0317,0.7539
-0.363,-0.911,-0.369,-1.5,89.3,27.8,0,2018,5,11,13,44,29.269,-0.5931,0.2631,0.0465,0.7594
-0.231,-0.76,-0.472,3.9,67.2,-34.7,0,2018,5,11,13,44,29.289,-0.5975,0.255,0.0567,0.758
-0.142,-0.527,-0.508,11.8,28.3,-87.7,0,2018,5,11,13,44,29.308,-0.6081,0.2516,0.0611,0.7504
-0.076,-0.427,-0.494,22.7,-6.5,-125.7,0,2018,5,11,13,44,29.328,-0.6227,0.2539,0.059,0.7376
-0.081,-0.331,-0.432,36.2,-9.8,-151.5,0,2018,5,11,13,44,29.367,-0.6398,0.2602,0.0548,0.7209
-0.096,-0.347,-0.226,43.9,-7.1,-176.3,0,2018,5,11,13,44,29.388,-0.6597,0.2675,0.0508,0.7004
-0.192,-0.23,-0.073,42.2,-22,-200.3,0,2018,5,11,13,44,29.392,-0.6816,0.2758,0.0452,0.6761
-0.137,-0.079,-0.142,41.5,-39.1,-213.3,0,2018,5,11,13,44,29.413,-0.704,0.2859,0.0361,0.649
-0.077,-0.047,-0.059,46.2,-26.5,-213,0,2018,5,11,13,44,29.432,-0.7257,0.2965,0.0269,0.6201
-0.12,0.068,-0.097,44.2,0.1,-202.5,0,2018,5,11,13,44,29.453,-0.7465,0.3042,0.0209,0.5912
-0.053,0.254,-0.014,43.2,0.6,-192.2,0,2018,5,11,13,44,29.469,-0.7665,0.3086,0.0172,0.5628
-0.071,0.233,-0.01,44.6,-11.4,-179.9,1023,2018,5,11,13,44,29.49,-0.784,0.3141,0.0125,0.5352
0.007,0.385,-0.008,47.3,-20.2,-161.4,1023,2018,5,11,13,44,29.51,-0.7986,0.3209,0.0079,0.509
0.032,0.3,0.07,47.5,-18.2,-139.1,1023,2018,5,11,13,44,29.53,-0.8106,0.3277,0.0044,0.4851
0.013,0.316,0.142,43.5,-19.7,-118.8,1023,2018,5,11,13,44,29.57,-0.8204,0.334,0.0019,0.464
0.03,0.374,0.158,38.2,-27.7,-98.9,1023,2018,5,11,13,44,29.59,-0.8277,0.3403,-0.0004,0.4459
0.111,0.32,0.182,34.6,-32.7,-80,1023,2018,5,11,13,44,29.594,-0.8327,0.3476,-0.003,0.4307
0.053,0.179,0.226,33.1,-9.3,-64.8,1023,2018,5,11,13,44,29.612,-0.8367,0.3532,-0.0041,0.4182
0.102,0.273,0.25,28.3,11.2,-49.8,0,2018,5,11,13,44,29.632,-0.8411,0.3548,-0.0029,0.408
0.1,0.394,0.227,27.6,1.1,-35.6,0,2018,5,11,13,44,29.672,-0.8447,0.3555,-0.0008,0.4
0.096,0.34,0.274,25.1,-23.8,-24.2,0,2018,5,11,13,44,29.691,-0.846,0.3591,0.0003,0.3939
0.128,0.315,0.374,20.6,-48.6,-13.2,0,2018,5,11,13,44,29.695,-0.8451,0.3659,0,0.3896
0.165,0.383,0.412,16.8,-57.4,1.7,0,2018,5,11,13,44,29.712,-0.842,0.3751,-0.0013,0.3874
0.207,0.375,0.415,13.7,-43.5,20.2,0,2018,5,11,13,44,29.731,-0.838,0.3836,-0.0019,0.388
0.265,0.338,0.448,7.8,-12.8,38.7,0,2018,5,11,13,44,29.75,-0.8341,0.3883,-0.0002,0.3915
0.382,0.417,0.466,7.6,10,55.8,0,2018,5,11,13,44,29.772,-0.8311,0.3885,0.0041,0.3978
0.415,0.481,0.478,8.4,4.7,72.4,0,2018,5,11,13,44,29.793,-0.8273,0.3874,0.0103,0.4064
0.435,0.502,0.437,7,-14,90.3,0,2018,5,11,13,44,29.83,-0.8213,0.3883,0.0165,0.4174
0.398,0.285,0.468,2.8,-18.2,102.2,0,2018,5,11,13,44,29.85,-0.813,0.3908,0.0225,0.4309
0.414,0.157,0.417,-3.4,0.6,108.6,0,2018,5,11,13,44,29.854,-0.8044,0.3914,0.029,0.4458
0.448,0.12,0.351,-7.9,13,113.5,0,2018,5,11,13,44,29.875,-0.7962,0.3891,0.0364,0.4617
0.466,0.128,0.302,-11,12.7,116,0,2018,5,11,13,44,29.895,-0.7879,0.3855,0.0439,0.478
0.458,0.098,0.275,-12.4,2.7,117.8,0,2018,5,11,13,44,29.935,-0.7787,0.3823,0.0508,0.4947
0.432,0.046,0.204,-12.7,-19.5,115.2,0,2018,5,11,13,44,29.939,-0.768,0.3811,0.0562,0.5114
0.456,0.042,0.171,-13.2,-37.7,112.8,0,2018,5,11,13,44,29.954,-0.756,0.3826,0.0592,0.5276
0.406,-0.047,0.221,-15.9,-35.1,112.1,0,2018,5,11,13,44,29.974,-0.743,0.3853,0.0612,0.5436
0.354,-0.191,0.275,-24.1,11.6,112.7,0,2018,5,11,13,44,29.993,-0.7316,0.3837,0.0649,0.5596
0.291,-0.195,0.324,-31.8,50.6,111.9,0,2018,5,11,13,44,30.03,-0.7233,0.3749,0.0723,0.5752
0.27,-0.162,0.329,-42.5,51.2,107.9,0,2018,5,11,13,44,30.051,-0.7165,0.3625,0.0801,0.5905
0.283,-0.115,0.259,-50.7,11.2,103.5,0,2018,5,11,13,44,30.055,-0.7082,0.352,0.0842,0.606
0.253,-0.169,0.204,-57.6,-30.7,100.3,0,2018,5,11,13,44,30.076,-0.6975,0.3459,0.0824,0.622
0.2,-0.283,0.095,-62.6,-46.5,95,0,2018,5,11,13,44,30.096,-0.6852,0.3429,0.0762,0.6379
0.15,-0.409,0.002,-63.3,-20,87.8,0,2018,5,11,13,44,30.133,-0.6738,0.3386,0.0701,0.6529
0.108,-0.359,-0.048,-58,4.5,76.7,0,2018,5,11,13,44,30.137,-0.6649,0.3311,0.0673,0.6661
0.086,-0.283,-0.082,-51.4,-7.7,64.7,0,2018,5,11,13,44,30.154,-0.6576,0.3235,0.065,0.6771
0.065,-0.321,-0.118,-44.9,-25.8,50.5,0,2018,5,11,13,44,30.175,-0.6505,0.3191,0.0604,0.6865
0.041,-0.377,-0.132,-38,-31.8,34.7,0,2018,5,11,13,44,30.192,-0.6444,0.3168,0.0545,0.6937
-0.011,-0.432,-0.189,-32.3,-37.7,11.7,0,2018,5,11,13,44,30.214,-0.6401,0.3163,0.0474,0.6985
-0.016,-0.393,-0.252,-23.8,-30.4,-10.8,0,2018,5,11,13,44,30.234,-0.6386,0.3164,0.04,0.7002
0.042,-0.369,-0.258,-10.6,-11.9,-32.5,1023,2018,5,11,13,44,30.275,-0.6405,0.3168,0.034,0.6986
0.027,-0.318,-0.232,2.1,20.9,-51.3,1023,2018,5,11,13,44,30.295,-0.6461,0.316,0.0318,0.6939
0.017,-0.187,-0.157,7.4,33.3,-66.1,1023,2018,5,11,13,44,30.299,-0.6551,0.3135,0.0327,0.6866
0.019,-0.072,-0.088,4.2,31.2,-72.4,1023,2018,5,11,13,44,30.317,-0.6652,0.311,0.0334,0.6779
0.07,-0.018,-0.01,-4.4,17.9,-75.7,1023,2018,5,11,13,44,30.356,-0.6756,0.3087,0.0319,0.6687
0.086,0.001,-0.02,-11,-7.1,-78.5,1023,2018,5,11,13,44,30.375,-0.6852,0.3073,0.0268,0.6597
0.153,0.044,0.003,-17.3,-35.4,-75.9,0,2018,5,11,13,44,30.379,-0.6932,0.3083,0.0177,0.6512
0.118,0.055,0.028,-21.7,-42,-68.6,0,2018,5,11,13,44,30.394,-0.6995,0.3106,0.0066,0.6435
0.14,0.112,0.033,-27.6,-65.4,-66,0,2018,5,11,13,44,30.432,-0.7044,0.314,-0.0058,0.6365
0.137,0.046,0.068,-37.4,-96.8,-62.6,0,2018,5,11,13,44,30.454,-0.707,0.3204,-0.0228,0.6299
0.126,-0.065,0.04,-44.3,-90.2,-59.2,0,2018,5,11,13,44,30.458,-0.7082,0.327,-0.0419,0.6242
0.199,-0.092,-0.028,-41.9,-88.9,-59.4,0,2018,5,11,13,44,30.476,-0.7093,0.3325,-0.0603,0.6185
0.166,-0.09,-0.033,-33,-93.3,-64.1,0,2018,5,11,13,44,30.496,-0.7103,0.3389,-0.0784,0.6118
0.133,-0.11,0.041,-26.8,-101,-73.7,0,2018,5,11,13,44,30.516,-0.7113,0.3469,-0.0965,0.6035
0.172,-0.157,0.123,-28.1,-90.5,-78.5,0,2018,5,11,13,44,30.555,-0.713,0.3547,-0.1148,0.5937
0.239,-0.143,0.183,-33.4,-62.7,-78.9,0,2018,5,11,13,44,30.575,-0.7157,0.3592,-0.1314,0.5842
0.333,-0.097,0.182,-37.9,-57.6,-81.1,0,2018,5,11,13,44,30.579,-0.7195,0.3607,-0.1467,0.575
0.364,-0.037,0.239,-41,-73.2,-86.1,0,2018,5,11,13,44,30.596,-0.7229,0.3626,-0.1635,0.5648
0.381,-0.157,0.377,-49.3,-68.6,-91.9,0,2018,5,11,13,44,30.635,-0.7256,0.3648,-0.1822,0.5541
0.399,-0.186,0.402,-58.7,-41.2,-97.2,0,2018,5,11,13,44,30.655,-0.7294,0.3634,-0.2003,0.5437
0.412,-0.068,0.386,-65.8,-22.8,-103,0,2018,5,11,13,44,30.659,-0.7347,0.3575,-0.2174,0.5338
0.459,0.017,0.392,-71.2,-55.9,-114.2,0,2018,5,11,13,44,30.678,-0.7398,0.3516,-0.2364,0.5225
0.504,0.04,0.384,-75.1,-84.4,-121.1,0,2018,5,11,13,44,30.697,-0.7428,0.3494,-0.2598,0.5084
0.479,-0.062,0.364,-76.7,-59.9,-122.5,0,2018,5,11,13,44,30.718,-0.7451,0.347,-0.2839,0.4935
0.403,-0.099,0.26,-74.6,2.8,-122.9,0,2018,5,11,13,44,30.738,-0.75,0.3377,-0.3035,0.4807
0.393,0.078,0.138,-70.4,33.4,-124.9,0,2018,5,11,13,44,30.757,-0.7577,0.3219,-0.3183,0.4699
0.398,0.184,0.082,-61.1,24.8,-123.4,0,2018,5,11,13,44,30.795,-0.7658,0.3055,-0.3314,0.4584
0.355,0.135,0.125,-54,30,-117.2,0,2018,5,11,13,44,30.814,-0.7733,0.2904,-0.3434,0.4467
0.346,0.109,0.131,-51,50.9,-109.2,0,2018,5,11,13,44,30.819,-0.7808,0.274,-0.3529,0.4365
0.344,0.103,0.064,-46.8,56.7,-104.8,0,2018,5,11,13,44,30.838,-0.7884,0.2559,-0.3602,0.4278
0.334,0.172,0.024,-43.2,32.9,-101.2,0,2018,5,11,13,44,30.858,-0.7952,0.2397,-0.3676,0.4181
0.302,0.163,-0.04,-41.2,15.9,-93.3,0,2018,5,11,13,44,30.878,-0.8004,0.2272,-0.3758,0.4078
0.265,0.091,-0.067,-40.4,14.3,-86.9,0,2018,5,11,13,44,30.916,-0.8046,0.2165,-0.384,0.3977
0.227,0.004,-0.155,-39.3,21,-83.2,0,2018,5,11,13,44,30.937,-0.8083,0.2055,-0.3915,0.3885
0.18,-0.063,-0.218,-36.6,25.3,-84.6,0,2018,5,11,13,44,30.941,-0.8121,0.1938,-0.3982,0.3796
0.093,-0.151,-0.318,-33.2,24.1,-89.5,0,2018,5,11,13,44,30.961,-0.8162,0.182,-0.4044,0.3702
0.005,-0.265,-0.358,-29.3,35.9,-98.6,0,2018,5,11,13,44,30.981,-0.8208,0.1691,-0.4099,0.3598
-0.056,-0.249,-0.438,-22.4,29.2,-117.8,1023,2018,5,11,13,44,31.001,-0.8266,0.1547,-0.4145,0.3475
-0.12,-0.264,-0.5,-16.4,9.3,-140,1023,2018,5,11,13,44,31.021,-0.8334,0.1416,-0.4195,0.3306
-0.141,-0.254,-0.529,-7.3,15.9,-158.6,1023,2018,5,11,13,44,31.038,-0.8411,0.1283,-0.4242,0.3098
-0.187,-0.194,-0.547,3.2,29.2,-176.6,1023,2018,5,11,13,44,31.057,-0.8502,0.1121,-0.4268,0.2868
-0.29,-0.178,-0.537,11.8,17.7,-202.5,1023,2018,5,11,13,44,31.079,-0.8603,0.0949,-0.428,0.2599
-0.296,-0.164,-0.461,16.8,23.3,-222.2,1023,2018,5,11,13,44,31.098,-0.8708,0.0766,-0.4281,0.2291
-0.315,-0.001,-0.385,20.1,44,-235.8,1023,2018,5,11,13,44,31.138,-0.881,0.055,-0.4267,0.1961
-0.357,0.156,-0.37,23.5,68.3,-240.8,1023,2018,5,11,13,44,31.156,-0.8904,0.0292,-0.4238,0.1632
-0.425,0.315,-0.359,24.5,81.5,-240,0,2018,5,11,13,44,31.16,-0.8985,0.0001,-0.4186,0.1312
-0.434,0.471,-0.346,23.1,70.1,-231,0,2018,5,11,13,44,31.2,-0.9048,-0.0285,-0.4128,0.0996
-0.391,0.509,-0.31,23.3,61.7,-214.1,0,2018,5,11,13,44,31.219,-0.9093,-0.0543,-0.4066,0.0692
-0.346,0.656,-0.258,22.5,56.5,-191.5,0,2018,5,11,13,44,31.223,-0.9122,-0.078,-0.4,0.0415
-0.316,0.868,-0.173,18.6,52.7,-156.8,0,2018,5,11,13,44,31.244,-0.9137,-0.0985,-0.3938,0.0177
-0.244,0.988,-0.151,14.5,60.9,-110.3,0,2018,5,11,13,44,31.263,-0.9139,-0.1166,-0.3886,0.0006
-0.16,1.125,-0.097,9.8,60,-61.3,0,2018,5,11,13,44,31.284,-0.9133,-0.1321,-0.3849,-0.0087
-0.166,1.277,-0.004,0.1,15.6,-8.5,0,2018,5,11,13,44,31.304,-0.9127,-0.1405,-0.3833,-0.0115
-0.128,1.171,0.01,-9.6,-22.3,49.9,0,2018,5,11,13,44,31.32,-0.9125,-0.1381,-0.3847,-0.0085
-0.098,1.042,-0.054,-13.6,-47.3,98,0,2018,5,11,13,44,31.359,-0.9126,-0.1272,-0.3884,0.0009
-0.077,0.94,-0.078,-14.2,-69.6,134.2,0,2018,5,11,13,44,31.381,-0.9127,-0.1098,-0.3932,0.0154
-0.079,0.793,-0.113,-15.6,-85.6,164.1,0,2018,5,11,13,44,31.385,-0.9123,-0.0869,-0.3986,0.0336
-0.07,0.597,-0.151,-15.9,-92.7,183.6,0,2018,5,11,13,44,31.404,-0.911,-0.0604,-0.4041,0.0551
-0.053,0.465,-0.112,-16.4,-106.2,190.8,0,2018,5,11,13,44,31.424,-0.9084,-0.0315,-0.4093,0.0777
-0.082,0.285,-0.028,-19.7,-105.4,194.3,0,2018,5,11,13,44,31.445,-0.9044,-0.0007,-0.4144,0.1004
-0.09,0.223,-0.098,-21.6,-82.9,196.3,0,2018,5,11,13,44,31.464,-0.8988,0.0279,-0.4192,0.1243
-0.067,0.031,-0.326,-15.2,-48.6,191.6,0,2018,5,11,13,44,31.484,-0.8923,0.052,-0.4224,0.1502
-0.049,-0.295,-0.189,-6.3,0,170.1,0,2018,5,11,13,44,31.504,-0.8861,0.0688,-0.4227,0.1767
-0.107,-0.696,-0.094,-5.2,40.7,133.2,0,2018,5,11,13,44,31.521,-0.881,0.0763,-0.4208,0.2019
-0.121,-1.103,-0.372,-6.3,32.9,71.9,0,2018,5,11,13,44,31.543,-0.8773,0.0772,-0.4188,0.2209
-0.03,-1.051,-0.454,-4,-6.4,-8.1,0,2018,5,11,13,44,31.561,-0.876,0.0775,-0.4187,0.2263
0.038,-0.657,-0.403,-4.2,-23.5,-71.1,0,2018,5,11,13,44,31.6,-0.877,0.0769,-0.4207,0.2186
0.095,-0.597,-0.497,5.9,-5.2,-126.5,0,2018,5,11,13,44,31.622,-0.8805,0.072,-0.4226,0.202
0.048,-0.375,-0.465,19.9,26.4,-168.2,0,2018,5,11,13,44,31.626,-0.8866,0.0596,-0.4219,0.1795
-0.015,-0.123,-0.383,29.5,33.1,-199.6,0,2018,5,11,13,44,31.643,-0.8941,0.0418,-0.4187,0.1528
-0.053,0.121,-0.289,37,26.1,-218.8,0,2018,5,11,13,44,31.684,-0.9018,0.0226,-0.4139,0.1218
-0.1,0.247,-0.222,45.4,27.2,-226.7,0,2018,5,11,13,44,31.688,-0.9089,0.0034,-0.4075,0.0881
-0.192,0.325,-0.16,52.8,55,-224.1,0,2018,5,11,13,44,31.706,-0.9151,-0.0183,-0.3988,0.055
-0.253,0.503,-0.115,55.4,75.9,-213.5,1023,2018,5,11,13,44,31.722,-0.92,-0.044,-0.3884,0.025
-0.267,0.6,-0.05,51.1,72.3,-200,1023,2018,5,11,13,44,31.758,-0.9232,-0.0697,-0.3776,-0.0028
-0.241,0.725,0.046,41.4,65.9,-174.9,1023,2018,5,11,13,44,31.779,-0.9248,-0.0932,-0.3677,-0.0279
-0.22,0.899,0.126,28.4,66.5,-141.9,1023,2018,5,11,13,44,31.783,-0.9247,-0.1144,-0.3597,-0.0486
-0.214,1.013,0.113,15.4,67,-98.7,1023,2018,5,11,13,44,31.804,-0.9234,-0.1327,-0.3544,-0.0634
-0.163,1.084,0.014,6.1,87.5,-46.4,1023,2018,5,11,13,44,31.824,-0.9213,-0.1496,-0.3519,-0.07
-0.157,1.1,-0.022,0.9,78,3.8,1023,2018,5,11,13,44,31.845,-0.9188,-0.1649,-0.3519,-0.0676
-0.157,0.838,-0.047,-6.2,29.7,43.5,1023,2018,5,11,13,44,31.864,-0.9174,-0.172,-0.3537,-0.0602
-0.125,0.654,-0.077,-15,-32.6,67.5,0,2018,5,11,13,44,31.884,-0.9173,-0.1679,-0.3571,-0.0515
-0.096,0.567,-0.107,-23.7,-81.1,83.2,0,2018,5,11,13,44,31.905,-0.9184,-0.1533,-0.3619,-0.0437
-0.095,0.637,-0.081,-30.1,-89,104.4,0,2018,5,11,13,44,31.943,-0.9195,-0.1329,-0.3681,-0.0349
-0.11,0.663,-0.125,-36,-92.5,120.5,0,2018,5,11,13,44,31.961,-0.9199,-0.1111,-0.3753,-0.0231
-0.131,0.521,-0.154,-44.8,-97.3,130.8,0,2018,5,11,13,44,31.965,-0.9192,-0.0872,-0.3837,-0.0099
-0.151,0.493,-0.109,-54.9,-98,139.5,0,2018,5,11,13,44,31.985,-0.9171,-0.0624,-0.3935,0.0044
-0.172,0.425,-0.142,-64.4,-103.4,146.7,0,2018,5,11,13,44,32.004,-0.9135,-0.0365,-0.4046,0.0199
-0.186,0.378,-0.196,-68.8,-105.9,151.1,0,2018,5,11,13,44,32.024,-0.9083,-0.0094,-0.4164,0.0358
-0.151,0.417,-0.247,-67,-114.2,153.1,0,2018,5,11,13,44,32.064,-0.902,0.0184,-0.428,0.0519
-0.122,0.459,-0.34,-64.1,-142.4,155.7,0,2018,5,11,13,44,32.083,-0.8947,0.0496,-0.4388,0.0666
-0.095,0.389,-0.405,-56.4,-149.2,161.3,0,2018,5,11,13,44,32.087,-0.8862,0.0842,-0.4483,0.0805
-0.12,0.272,-0.362,-47.9,-127.6,163.6,0,2018,5,11,13,44,32.124,-0.8771,0.1178,-0.4556,0.0954
-0.105,0.259,-0.323,-39.9,-93.6,163.8,0,2018,5,11,13,44,32.144,-0.8681,0.1469,-0.4605,0.1126
-0.07,0.266,-0.344,-31.1,-67.3,164.4,0,2018,5,11,13,44,32.148,-0.8595,0.1712,-0.463,0.132
-0.036,0.242,-0.417,-20.6,-67.7,161.4,0,2018,5,11,13,44,32.185,-0.8513,0.1934,-0.4633,0.152
-0.018,0.136,-0.508,-7.8,-105.2,150.9,0,2018,5,11,13,44,32.206,-0.8427,0.2182,-0.4621,0.1688
0.007,0.056,-0.529,2.7,-143.2,137.5,0,2018,5,11,13,44,32.21,-0.833,0.2483,-0.4605,0.1797
0.075,0.044,-0.481,12.7,-151.8,124.6,0,2018,5,11,13,44,32.225,-0.8225,0.2808,-0.4581,0.1861
0.045,-0.055,-0.316,22,-134.3,109,0,2018,5,11,13,44,32.26,-0.8127,0.3113,-0.4543,0.1901
0.071,-0.128,-0.248,24.7,-104.4,88,0,2018,5,11,13,44,32.282,-0.8047,0.3364,-0.4492,0.1931
0.13,0.012,-0.323,25.7,-99.9,67.5,0,2018,5,11,13,44,32.286,-0.7982,0.3571,-0.4444,0.1941
0.231,0.121,-0.306,32.1,-121.3,55.7,0,2018,5,11,13,44,32.326,-0.7915,0.3779,-0.4402,0.1919
0.214,-0.008,-0.132,37.2,-133.1,46.5,0,2018,5,11,13,44,32.346,-0.7837,0.4009,-0.4361,0.1864
0.222,0.121,0,34.8,-137.5,35,0,2018,5,11,13,44,32.35,-0.7759,0.423,-0.4323,0.179
0.201,0.178,-0.049,26.1,-182.1,23.1,0,2018,5,11,13,44,32.369,-0.7652,0.4475,-0.4308,0.1684
0.214,0.156,-0.073,17.8,-206.2,19.6,0,2018,5,11,13,44,32.39,-0.7503,0.4759,-0.4319,0.1542
0.234,0.12,-0.059,19.9,-207.2,21.1,0,2018,5,11,13,44,32.404,-0.7334,0.5048,-0.4332,0.1393
0.271,0.122,-0.057,26.7,-179.6,28.2,0,2018,5,11,13,44,32.442,-0.7172,0.5318,-0.4324,0.1252
0.236,0.15,-0.059,33.9,-154.5,32.3,0,2018,5,11,13,44,32.446,-0.7035,0.5551,-0.4289,0.1135
0.203,0.065,-0.098,34.5,-176.8,25.6,0,2018,5,11,13,44,32.483,-0.6895,0.5776,-0.4248,0.1014
0.235,-0.048,-0.117,36.9,-220.4,17.3,1023,2018,5,11,13,44,32.503,-0.6711,0.6036,-0.4217,0.0854
0.292,-0.155,0.012,44.8,-234.3,15.7,1023,2018,5,11,13,44,32.507,-0.6489,0.6319,-0.4184,0.066
0.376,-0.194,0.128,51.2,-198.7,9.7,1023,2018,5,11,13,44,32.547,-0.6276,0.6577,-0.4138,0.0463
0.384,-0.316,0.268,55.5,-148,-3.9,1023,2018,5,11,13,44,32.568,-0.6114,0.6769,-0.4087,0.0279
0.408,-0.39,0.382,55.7,-100.8,-18,1023,2018,5,11,13,44,32.572,-0.6009,0.6892,-0.4045,0.0112
0.438,-0.339,0.493,51.8,-80.9,-32.7,1023,2018,5,11,13,44,32.589,-0.5941,0.6965,-0.402,-0.0041
0.46,-0.324,0.573,44.1,-74.2,-47.1,1023,2018,5,11,13,44,32.627,-0.5879,0.7017,-0.4019,-0.0195
0.432,-0.247,0.616,36,-54.1,-56.1,1023,2018,5,11,13,44,32.647,-0.5824,0.7045,-0.404,-0.0343
0.412,-0.091,0.624,25.8,-21.2,-58.4,0,2018,5,11,13,44,32.651,-0.5798,0.7038,-0.4076,-0.0468
0.349,0.03,0.602,13.9,-2.4,-57.5,0,2018,5,11,13,44,32.674,-0.5796,0.7004,-0.4126,-0.0558
0.317,0.131,0.492,3.4,-3.7,-50.3,0,2018,5,11,13,44,32.69,-0.5794,0.6966,-0.4183,-0.0626
0.289,0.146,0.457,-4.1,-7.5,-39.1,0,2018,5,11,13,44,32.71,-0.5781,0.6939,-0.4237,-0.0675
0.208,0.196,0.443,-13.1,-9.7,-25.8,0,2018,5,11,13,44,32.729,-0.576,0.6925,-0.4284,-0.0704
0.109,0.247,0.41,-22.4,-0.7,-8.2,0,2018,5,11,13,44,32.767,-0.5737,0.6921,-0.4321,-0.0705
0.036,0.297,0.361,-34,16.7,9.6,0,2018,5,11,13,44,32.787,-0.5727,0.6916,-0.4348,-0.0663
-0.043,0.266,0.25,-44.2,12.6,20.9,0,2018,5,11,13,44,32.791,-0.572,0.6916,-0.437,-0.0586
-0.102,0.22,0.118,-49.9,-11,29.1,0,2018,5,11,13,44,32.813,-0.5688,0.6937,-0.4387,-0.0505
-0.151,0.172,0.042,-48.1,-26.9,39.1,0,2018,5,11,13,44,32.833,-0.5622,0.6991,-0.4395,-0.0428
-0.197,0.128,0.014,-41.8,-17.6,45.9,0,2018,5,11,13,44,32.871,-0.5559,0.7053,-0.4384,-0.0347
-0.226,0.094,-0.002,-35.2,-7.6,45.4,0,2018,5,11,13,44,32.892,-0.5518,0.7101,-0.4363,-0.0262
-0.263,0.034,-0.041,-26.7,-13.1,40.2,0,2018,5,11,13,44,32.896,-0.5484,0.7144,-0.4339,-0.0191
-0.23,0.015,-0.074,-15.6,-20.7,38.8,0,2018,5,11,13,44,32.91,-0.5448,0.7191,-0.431,-0.0141
-0.18,-0.038,0.013,-3.4,-18.1,39.4,0,2018,5,11,13,44,32.947,-0.5417,0.724,-0.4267,-0.0109
-0.073,-0.109,0.133,-0.1,-5.5,35.8,0,2018,5,11,13,44,32.966,-0.5402,0.7279,-0.422,-0.0081
0.019,-0.112,0.216,-3.1,9,28.9,0,2018,5,11,13,44,32.97,-0.5405,0.7301,-0.418,-0.0047
0.077,-0.126,0.169,-5.9,11.1,18.9,0,2018,5,11,13,44,33.008,-0.5416,0.7307,-0.4154,-0.0011
0.085,-0.184,0.181,-6.2,8.6,11.1,0,2018,5,11,13,44,33.029,-0.5425,0.7308,-0.4139,0.0016
0.091,-0.263,0.287,-9.8,12.9,2.1,0,2018,5,11,13,44,33.033,-0.5436,0.7303,-0.4136,0.0035
0.196,-0.213,0.384,-21.1,24.8,-5.6,0,2018,5,11,13,44,33.052,-0.5451,0.7282,-0.4151,0.0065
0.304,-0.165,0.332,-33.4,25.1,-14.8,0,2018,5,11,13,44,33.072,-0.5467,0.7248,-0.4189,0.0108
0.337,-0.203,0.187,-37.5,14.2,-22.7,0,2018,5,11,13,44,33.094,-0.5465,0.7215,-0.4248,0.015
0.278,-0.267,0.21,-33.1,18.7,-28.5,0,2018,5,11,13,44,33.113,-0.546,0.7179,-0.4312,0.0179
0.296,-0.279,0.376,-34.7,41.4,-35.8,0,2018,5,11,13,44,33.132,-0.5473,0.7126,-0.4383,0.0212
0.327,-0.274,0.469,-41.7,77.7,-44,0,2018,5,11,13,44,33.151,-0.5521,0.7035,-0.4465,0.0265
0.343,-0.209,0.438,-49.3,107,-51.5,0,2018,5,11,13,44,33.17,-0.5605,0.6902,-0.4561,0.0345
0.363,-0.135,0.327,-54,118.7,-57.5,0,2018,5,11,13,44,33.209,-0.5705,0.6741,-0.4669,0.0444
0.399,-0.09,0.24,-55.2,111.8,-62.5,0,2018,5,11,13,44,33.229,-0.5802,0.6569,-0.4783,0.054
0.431,-0.039,0.246,-54.7,105.1,-65.5,1023,2018,5,11,13,44,33.233,-0.5885,0.6399,-0.49,0.0626
0.392,0.006,0.225,-51.6,107.1,-65,1023,2018,5,11,13,44,33.273,-0.5965,0.6227,-0.5014,0.0706
0.347,0.023,0.167,-48.8,118.3,-63.4,1023,2018,5,11,13,44,33.292,-0.605,0.6045,-0.5119,0.079
0.345,0.149,0.082,-44,132.4,-58.3,1023,2018,5,11,13,44,33.296,-0.6149,0.5848,-0.5214,0.0885
0.36,0.281,-0.002,-36,141.1,-45.3,1023,2018,5,11,13,44,33.314,-0.6259,0.5645,-0.5287,0.0994
0.365,0.248,0,-23.9,148.1,-29.6,1023,2018,5,11,13,44,33.333,-0.638,0.5445,-0.5327,0.1113
0.346,0.184,0.017,-16.1,153.8,-17.6,1023,2018,5,11,13,44,33.372,-0.651,0.5249,-0.5339,0.1245
0.334,0.143,-0.016,-15.2,147.5,-13.2,1023,2018,5,11,13,44,33.376,-0.6636,0.5058,-0.5334,0.1381
0.352,0.214,-0.113,-14.9,133.5,-11.5,0,2018,5,11,13,44,33.393,-0.6749,0.4878,-0.5326,0.1507
0.382,0.269,-0.209,-7,124.2,-6.3,0,2018,5,11,13,44,33.43,-0.6849,0.4715,-0.5312,0.1624
0.354,0.211,-0.217,1.6,120.6,-6.7,0,2018,5,11,13,44,33.451,-0.6949,0.4562,-0.5282,0.1729
0.289,0.053,-0.242,4.3,119.7,-14.8,0,2018,5,11,13,44,33.455,-0.705,0.4406,-0.5248,0.1822
0.279,-0.111,-0.448,10.9,118.7,-35.3,0,2018,5,11,13,44,33.473,-0.7157,0.4238,-0.5219,0.1889
0.28,-0.07,-0.5,26.1,126.7,-56.1,0,2018,5,11,13,44,33.492,-0.728,0.4048,-0.5187,0.1923
0.247,-0.02,-0.485,41.6,135.8,-76.4,0,2018,5,11,13,44,33.517,-0.7425,0.383,-0.5143,0.1932
0.193,-0.043,-0.444,52.3,147.8,-101.4,0,2018,5,11,13,44,33.536,-0.7589,0.3581,-0.5091,0.1909
0.11,-0.043,-0.465,60.3,151.7,-129.9,0,2018,5,11,13,44,33.575,-0.7768,0.3295,-0.5036,0.185
0.031,0.052,-0.496,67.5,151.4,-152.4,0,2018,5,11,13,44,33.595,-0.7953,0.2982,-0.4978,0.1751
-0.006,0.227,-0.475,74.4,146.8,-166.8,0,2018,5,11,13,44,33.599,-0.8136,0.2654,-0.4912,0.1617
-0.123,0.239,-0.388,77.6,138.9,-179.2,0,2018,5,11,13,44,33.615,-0.8309,0.2322,-0.484,0.1455
-0.235,0.168,-0.326,76.7,140.3,-192.8,0,2018,5,11,13,44,33.635,-0.847,0.1984,-0.4765,0.1264
-0.293,0.289,-0.277,70.3,150.5,-199.1,0,2018,5,11,13,44,33.653,-0.8617,0.1618,-0.4687,0.1069
-0.302,0.42,-0.33,63,142,-198.5,0,2018,5,11,13,44,33.693,-0.8741,0.1243,-0.4612,0.0871
-0.318,0.415,-0.316,58.1,130,-192.3,0,2018,5,11,13,44,33.713,-0.884,0.0888,-0.4539,0.0667
-0.306,0.445,-0.288,53.7,114.7,-185.4,0,2018,5,11,13,44,33.717,-0.8918,0.0555,-0.4464,0.0464
-0.281,0.525,-0.207,49.3,90.5,-174.7,0,2018,5,11,13,44,33.738,-0.8977,0.0259,-0.439,0.0257
-0.274,0.49,-0.082,43.1,75.1,-158.8,0,2018,5,11,13,44,33.776,-0.9018,0.0005,-0.432,0.0057
-0.251,0.635,-0.066,35,67.2,-139.4,0,2018,5,11,13,44,33.796,-0.9044,-0.0218,-0.4257,-0.0123
-0.206,0.878,0.027,26.5,57.7,-110.3,0,2018,5,11,13,44,33.8,-0.9059,-0.041,-0.4203,-0.0274
-0.198,1.115,0.193,11.1,41.1,-67.8,0,2018,5,11,13,44,33.814,-0.9064,-0.0555,-0.4169,-0.0377
-0.177,1.127,0.229,-8.2,33.7,-15.4,0,2018,5,11,13,44,33.85,-0.9058,-0.0642,-0.4165,-0.0414
-0.118,1.025,0.15,-24.4,46.2,37,0,2018,5,11,13,44,33.869,-0.9042,-0.0693,-0.4197,-0.0368
-0.085,1.016,0.112,-35.6,49.1,82.5,0,2018,5,11,13,44,33.877,-0.9016,-0.0726,-0.4256,-0.0238
-0.088,1.04,0.032,-44.1,20.6,122.8,0,2018,5,11,13,44,33.914,-0.8984,-0.0704,-0.4333,-0.0052
-0.079,0.893,-0.061,-46.2,-18.2,155,0,2018,5,11,13,44,33.935,-0.8947,-0.0595,-0.4422,0.0161
-0.067,0.733,-0.088,-42.7,-40.9,175.8,0,2018,5,11,13,44,33.939,-0.8907,-0.0419,-0.4508,0.0393
-0.074,0.595,-0.076,-39.5,-49.8,190.4,0,2018,5,11,13,44,33.96,-0.886,-0.0203,-0.4586,0.0638
-0.051,0.52,-0.105,-37.1,-50.9,201,0,2018,5,11,13,44,33.978,-0.8804,0.0027,-0.4655,0.0899
-0.056,0.463,-0.138,-32.2,-50.9,208.6,1023,2018,5,11,13,44,33.999,-0.8737,0.0267,-0.4713,0.1172
-0.027,0.361,-0.236,-25.1,-45.6,211,1023,2018,5,11,13,44,34.015,-0.8661,0.0509,-0.4754,0.1453
-0.022,0.195,-0.251,-14.3,-30.3,209.2,1023,2018,5,11,13,44,34.035,-0.8582,0.0736,-0.477,0.1741
-0.11,-0.608,-0.494,-1.5,2.5,190,1023,2018,5,11,13,44,34.056,-0.8506,0.0923,-0.4758,0.2033
0.008,-1.028,-0.686,18.3,25.9,125.8,1023,2018,5,11,13,44,34.096,-0.8456,0.1034,-0.4714,0.2278
-0.022,-0.85,-0.541,35.3,23.1,63.4,1023,2018,5,11,13,44,34.115,-0.8446,0.1081,-0.4643,0.2432
-0.009,-0.718,-0.355,38.7,1.1,-9,1023,2018,5,11,13,44,34.119,-0.8468,0.1102,-0.4578,0.2472
0.192,-0.564,-0.305,33.7,3.6,-68.4,0,2018,5,11,13,44,34.137,-0.8514,0.1083,-0.4532,0.2403
0.179,-0.434,-0.306,32.9,13.9,-116.8,0,2018,5,11,13,44,34.158,-0.8581,0.1007,-0.4496,0.2264
0.102,-0.19,-0.284,34.7,-14.8,-161,0,2018,5,11,13,44,34.195,-0.866,0.0908,-0.4469,0.2047
0.001,-0.172,-0.198,38.7,-38.2,-196.7,0,2018,5,11,13,44,34.215,-0.8744,0.0825,-0.445,0.1746
-0.054,-0.079,-0.104,40.1,-18.5,-223.2,0,2018,5,11,13,44,34.219,-0.8828,0.072,-0.4426,0.1392
-0.125,0.018,-0.1,40.5,23.6,-240.6,0,2018,5,11,13,44,34.26,-0.8906,0.0552,-0.4392,0.1031
-0.251,0.131,-0.113,41.8,67.7,-251.3,0,2018,5,11,13,44,34.264,-0.8978,0.0299,-0.4339,0.0679
-0.345,0.327,-0.122,41,83.1,-253,0,2018,5,11,13,44,34.279,-0.9034,-0.0011,-0.4273,0.0341
-0.364,0.503,-0.112,41.7,76.4,-242.4,0,2018,5,11,13,44,34.297,-0.9069,-0.0321,-0.4199,0.0009
-0.342,0.615,-0.024,42.1,70.1,-223,0,2018,5,11,13,44,34.319,-0.9088,-0.0606,-0.4115,-0.0303
-0.354,1.075,0.162,33.1,74.7,-187.3,0,2018,5,11,13,44,34.359,-0.909,-0.0868,-0.4034,-0.0578
-0.388,1.4,0.159,17.3,93.1,-120.8,0,2018,5,11,13,44,34.364,-0.9075,-0.1108,-0.3978,-0.0762
-0.344,1.605,0.107,3.4,126.9,-34.9,0,2018,5,11,13,44,34.378,-0.9046,-0.1341,-0.3963,-0.0804
-0.297,1.413,0.002,-3.7,112.8,52.2,0,2018,5,11,13,44,34.419,-0.9016,-0.1528,-0.3984,-0.0699
-0.195,1.095,0.032,-11.7,59.8,113,0,2018,5,11,13,44,34.439,-0.8996,-0.1604,-0.4029,-0.0504
-0.157,0.904,-0.008,-20.5,-0.7,151.4,0,2018,5,11,13,44,34.443,-0.8986,-0.155,-0.4094,-0.0278
-0.117,0.641,-0.072,-26.3,-27.3,173,0,2018,5,11,13,44,34.462,-0.8978,-0.1401,-0.4174,-0.0041
-0.089,0.499,-0.123,-29.7,-31.8,179.4,0,2018,5,11,13,44,34.481,-0.8961,-0.1224,-0.4259,0.0208
-0.009,0.475,-0.235,-31.5,-43.8,178.3,0,2018,5,11,13,44,34.498,-0.8935,-0.1033,-0.4345,0.0453
-0.02,0.31,-0.255,-30.4,-51.5,173.7,0,2018,5,11,13,44,34.537,-0.8902,-0.0823,-0.4427,0.0685
0.011,0.212,-0.325,-27.7,-61.6,163,0,2018,5,11,13,44,34.559,-0.8862,-0.0611,-0.4502,0.09
0.007,-0.108,-0.689,-11.5,-88.2,142.3,0,2018,5,11,13,44,34.563,-0.8826,-0.0375,-0.4561,0.1074
0.144,-1.23,-1.07,10.1,-107.9,73.3,0,2018,5,11,13,44,34.581,-0.8808,-0.0133,-0.4586,0.1167
-0.127,-1.819,-0.67,32.5,-97.9,-27.4,0,2018,5,11,13,44,34.601,-0.8823,0.0047,-0.4572,0.1114
0.061,-1.167,-0.515,44.5,-10.5,-125.8,0,2018,5,11,13,44,34.621,-0.8867,0.0082,-0.4524,0.094
0.049,-0.4,-0.474,56.4,96.8,-195,0,2018,5,11,13,44,34.66,-0.8931,-0.012,-0.4438,0.0724
-0.114,0.274,-0.364,61.6,88.2,-227.5,0,2018,5,11,13,44,34.679,-0.8994,-0.0436,-0.4322,0.0466
-0.329,0.582,-0.053,54.8,33.1,-227.7,0,2018,5,11,13,44,34.684,-0.9045,-0.0696,-0.4203,0.0157
-0.473,1.21,0.327,31.7,17.1,-193.8,0,2018,5,11,13,44,34.7,-0.9073,-0.0887,-0.4104,-0.0156
-0.427,1.685,0.432,0.1,24,-122.5,0,2018,5,11,13,44,34.738,-0.9073,-0.1032,-0.4055,-0.0392
-0.368,1.818,0.287,-25.7,44,-18.6,1023,2018,5,11,13,44,34.758,-0.9051,-0.1134,-0.4068,-0.0481
-0.245,1.507,0.076,-36.9,40.3,75.6,1023,2018,5,11,13,44,34.762,-0.9021,-0.1179,-0.4129,-0.0404
-0.262,1.265,0.015,-44.6,1,147.2,1023,2018,5,11,13,44,34.781,-0.8993,-0.1127,-0.4219,-0.0215
-0.288,1.014,-0.057,-53.1,-42.6,195.7,1023,2018,5,11,13,44,34.817,-0.8963,-0.096,-0.4328,0.0031
-0.315,0.75,-0.175,-59.5,-69.4,225.4,1023,2018,5,11,13,44,34.837,-0.8921,-0.0709,-0.4449,0.031
-0.344,0.664,-0.4,-63.6,-96.9,242.5,1023,2018,5,11,13,44,34.842,-0.8861,-0.04,-0.4576,0.0604
-0.351,0.626,-0.615,-62.1,-135.4,256.1,1023,2018,5,11,13,44,34.881,-0.8781,-0.0025,-0.4699,0.0892
-0.385,0.543,-0.698,-56.3,-160.6,267.1,0,2018,5,11,13,44,34.903,-0.8679,0.041,-0.4809,0.1169
-0.431,0.481,-0.634,-46.6,-162.5,277.1,0,2018,5,11,13,44,34.909,-0.8555,0.0874,-0.4894,0.1446
-0.48,0.366,-0.574,-36.8,-146.3,285.8,0,2018,5,11,13,44,34.926,-0.841,0.1337,-0.4945,0.1738
-0.457,0.114,-0.643,-26.5,-111.8,283.3,0,2018,5,11,13,44,34.946,-0.8253,0.1761,-0.4957,0.205
-0.323,-0.126,-0.753,-7.7,-80.4,266.6,0,2018,5,11,13,44,34.966,-0.8099,0.2127,-0.4925,0.2368
-0.203,-0.226,-0.861,18.3,-86,240.2,0,2018,5,11,13,44,34.982,-0.7961,0.2455,-0.485,0.2655
-0.218,-0.249,-0.811,36.7,-127.4,206.3,0,2018,5,11,13,44,35.018,-0.7828,0.2804,-0.476,0.2859
