ax,ay,az,dpitch,droll,dyaw,heart,time_1,time_2,time_3,time_4,time_5,time_6,w,x,y,z
-0.275,-0.019,0.347,-15,-11.8,-93.1,0,2018,4,24,22,7,11.599,-0.0445,-0.6561,0.0479,-0.7518
-0.373,0.074,0.279,-28.6,-20.5,-103.9,0,2018,4,24,22,7,11.623,-0.0333,-0.6521,0.0613,-0.7548
-0.389,0.137,0.251,-39.7,-32.6,-113.7,0,2018,4,24,22,7,11.639,-0.0223,-0.6461,0.0771,-0.759
-0.369,0.188,0.249,-48.3,-43.3,-120,0,2018,4,24,22,7,11.676,-0.0117,-0.6383,0.0952,-0.7637
-0.362,0.232,0.252,-57.1,-51.2,-125.2,0,2018,4,24,22,7,11.699,-0.0017,-0.6289,0.115,-0.7689
-0.287,0.269,0.212,-65,-58.4,-128.2,0,2018,4,24,22,7,11.703,0.0077,-0.6178,0.1362,-0.7743
-0.222,0.265,0.157,-69.9,-58.7,-127.2,0,2018,4,24,22,7,11.717,0.0166,-0.6054,0.158,-0.7798
-0.191,0.279,0.13,-73.7,-50.1,-123.6,0,2018,4,24,22,7,11.734,0.0256,-0.592,0.1788,-0.7853
-0.24,0.318,0.132,-79.6,-37.7,-117.3,0,2018,4,24,22,7,11.758,0.0347,-0.5777,0.1973,-0.7912
-0.243,0.368,0.084,-87.5,-28.4,-109.6,0,2018,4,24,22,7,11.794,0.0438,-0.5621,0.2136,-0.7977
-0.232,0.379,0.007,-93.9,-21.7,-99.4,0,2018,4,24,22,7,11.816,0.052,-0.5455,0.2279,-0.8047
-0.176,0.374,-0.065,-99.1,-12,-87.4,0,2018,4,24,22,7,11.819,0.0593,-0.5281,0.2399,-0.8123
-0.124,0.402,-0.111,-100.6,-3,-71.9,0,2018,4,24,22,7,11.855,0.0653,-0.5104,0.249,-0.8204
-0.138,0.41,-0.119,-98.6,-0.3,-55.6,0,2018,4,24,22,7,11.879,0.0695,-0.4932,0.2559,-0.8284
-0.114,0.453,-0.135,-97.8,-0.6,-37.5,0,2018,4,24,22,7,11.884,0.0713,-0.4767,0.2608,-0.8363
-0.107,0.419,-0.167,-95.9,-5.6,-20.6,0,2018,4,24,22,7,11.896,0.0705,-0.4612,0.2648,-0.8438
-0.087,0.314,-0.247,-93.2,-8.1,-2.7,0,2018,4,24,22,7,11.914,0.0669,-0.4467,0.2679,-0.8509
-0.039,0.237,-0.267,-91.6,12,17.5,0,2018,4,24,22,7,11.935,0.0614,-0.4333,0.2681,-0.8582
-0.023,0.309,-0.264,-83.9,19.2,34,0,2018,4,24,22,7,11.972,0.0545,-0.421,0.2644,-0.8659
-0.033,0.332,-0.256,-75.5,13.4,49.2,0,2018,4,24,22,7,11.994,0.0456,-0.4107,0.2594,-0.8728
-0.012,0.355,-0.262,-65.1,-9.9,60.6,0,2018,4,24,22,7,11.999,0.0344,-0.4024,0.2556,-0.8783
0,0.305,-0.274,-53.1,-42.4,71,0,2018,4,24,22,7,12.017,0.0198,-0.3965,0.2555,-0.8814
0.012,0.243,-0.284,-41.7,-71.6,78.9,0,2018,4,24,22,7,12.038,0.0024,-0.3928,0.2595,-0.8822
0.007,0.165,-0.269,-32.2,-91.6,86.6,1023,2018,4,24,22,7,12.077,-0.0172,-0.391,0.2667,-0.8806
0,0.056,-0.266,-26.7,-91.5,93.8,1023,2018,4,24,22,7,12.098,-0.0386,-0.3904,0.2746,-0.8778
-0.011,-0.016,-0.241,-22.3,-82.6,100,1023,2018,4,24,22,7,12.103,-0.0606,-0.3906,0.2812,-0.8744
-0.027,-0.062,-0.206,-18.6,-71.1,104.9,1023,2018,4,24,22,7,12.12,-0.0825,-0.3916,0.2856,-0.8707
-0.045,-0.068,-0.175,-16.4,-63.2,107.8,1023,2018,4,24,22,7,12.143,-0.1041,-0.3933,0.288,-0.8668
-0.058,-0.039,-0.15,-14.4,-66.7,109.4,1023,2018,4,24,22,7,12.16,-0.1257,-0.3951,0.2899,-0.8625
-0.092,0.003,-0.159,-11,-84.4,112.2,1023,2018,4,24,22,7,12.196,-0.1481,-0.397,0.2931,-0.8569
-0.159,0.049,-0.192,-5.2,-113.7,118.8,1023,2018,4,24,22,7,12.219,-0.1726,-0.399,0.2996,-0.8491
-0.198,0.076,-0.214,0.5,-151.8,126.8,1023,2018,4,24,22,7,12.221,-0.2001,-0.401,0.3106,-0.8382
-0.183,0.063,-0.222,4,-191.3,133.7,0,2018,4,24,22,7,12.238,-0.231,-0.4021,0.3266,-0.8235
-0.138,0.04,-0.224,5.8,-224.2,138.2,0,2018,4,24,22,7,12.258,-0.2648,-0.4018,0.347,-0.8049
-0.101,0.009,-0.232,5.1,-245.1,141,0,2018,4,24,22,7,12.295,-0.3003,-0.3997,0.3702,-0.7828
-0.066,-0.029,-0.219,3.1,-247.6,142.7,0,2018,4,24,22,7,12.315,-0.3363,-0.396,0.3939,-0.7581
-0.058,-0.087,-0.205,0.2,-230.1,144.4,0,2018,4,24,22,7,12.322,-0.3714,-0.3915,0.4153,-0.7322
-0.065,-0.149,-0.19,-2.8,-195,146,0,2018,4,24,22,7,12.36,-0.4042,-0.3878,0.432,-0.7067
-0.071,-0.177,-0.152,-6.2,-148.3,145.2,0,2018,4,24,22,7,12.383,-0.4337,-0.3859,0.4426,-0.6833
-0.075,-0.178,-0.131,-9.1,-99.4,142.6,0,2018,4,24,22,7,12.388,-0.4595,-0.3867,0.4467,-0.6631
-0.085,-0.118,-0.131,-12.3,-66.1,136.9,0,2018,4,24,22,7,12.403,-0.4817,-0.3898,0.4454,-0.6461
-0.083,-0.063,-0.155,-12.5,-57.2,128.1,0,2018,4,24,22,7,12.421,-0.5016,-0.3935,0.442,-0.631
-0.104,-0.003,-0.223,-9.5,-69.2,117.6,0,2018,4,24,22,7,12.442,-0.5201,-0.3962,0.4392,-0.616
-0.112,-0.024,-0.215,-5.5,-93.3,105.6,0,2018,4,24,22,7,12.459,-0.5381,-0.3964,0.4394,-0.6
-0.123,-0.041,-0.163,-3.5,-121.7,91.6,0,2018,4,24,22,7,12.481,-0.556,-0.3933,0.4433,-0.5826
-0.099,-0.093,-0.135,-3,-152.3,76.7,0,2018,4,24,22,7,12.518,-0.574,-0.3859,0.4511,-0.5638
-0.037,0.186,-0.312,3.2,-184.2,65.3,0,2018,4,24,22,7,12.542,-0.5921,-0.3741,0.4628,-0.5432
-0.047,-0.054,-0.277,4.3,-203.3,52.8,0,2018,4,24,22,7,12.546,-0.6098,-0.359,0.4775,-0.5206
-0.046,-0.591,-0.1,-4.6,-185.6,31.1,0,2018,4,24,22,7,12.566,-0.6255,-0.3412,0.4926,-0.4995
0.006,-0.441,-0.016,-12.4,-168.8,23.8,0,2018,4,24,22,7,12.583,-0.6387,-0.3234,0.505,-0.4819
0.079,-0.249,-0.036,-9.6,-167.1,26.9,0,2018,4,24,22,7,12.606,-0.651,-0.3059,0.5161,-0.4648
0.099,-0.12,-0.057,-5.3,-171.4,28.6,0,2018,4,24,22,7,12.623,-0.6626,-0.2885,0.5274,-0.4466
0.091,-0.019,-0.066,-0.3,-182.6,31.3,0,2018,4,24,22,7,12.639,-0.6733,-0.2706,0.5395,-0.4269
0.088,-0.105,-0.136,6.6,-194.5,33,0,2018,4,24,22,7,12.663,-0.6836,-0.2519,0.5528,-0.4043
0.079,-0.349,-0.13,9.3,-174,36.1,0,2018,4,24,22,7,12.681,-0.693,-0.2334,0.5652,-0.3816
0.12,-0.312,-0.084,12,-142,41.6,0,2018,4,24,22,7,12.705,-0.7007,-0.2189,0.5751,-0.3609
0.145,-0.306,-0.036,15.5,-109.1,48.2,0,2018,4,24,22,7,12.723,-0.7068,-0.2089,0.5827,-0.3422
0.157,-0.31,-0.008,21.1,-78.9,53.8,1023,2018,4,24,22,7,12.746,-0.7112,-0.2037,0.5886,-0.3257
0.141,-0.356,0.027,28.1,-47.5,57.7,1023,2018,4,24,22,7,12.763,-0.714,-0.203,0.5932,-0.3113
0.141,-0.402,0.08,33.4,-15.4,61,1023,2018,4,24,22,7,12.787,-0.7151,-0.2071,0.5966,-0.2996
0.148,-0.403,0.105,37.6,15.9,63.4,1023,2018,4,24,22,7,12.806,-0.7145,-0.2155,0.5986,-0.2906
0.151,-0.375,0.121,40.8,42.6,63.5,1023,2018,4,24,22,7,12.841,-0.7124,-0.228,0.5996,-0.2844
0.136,-0.355,0.128,43,63,61.6,1023,2018,4,24,22,7,12.841,-0.7089,-0.2433,0.5995,-0.2805
0.092,-0.328,0.138,44.6,77.2,57.1,1023,2018,4,24,22,7,12.864,-0.704,-0.2605,0.5989,-0.2787
0.055,-0.307,0.143,45.4,79.1,49.9,1023,2018,4,24,22,7,12.882,-0.6982,-0.278,0.598,-0.2783
0.024,-0.287,0.157,45.8,69.4,40.2,1023,2018,4,24,22,7,12.902,-0.6918,-0.294,0.5977,-0.2784
-0.038,-0.282,0.186,45.9,54,29.9,0,2018,4,24,22,7,12.94,-0.6855,-0.3073,0.5984,-0.2783
-0.138,-0.275,0.243,44.1,35.9,19.6,0,2018,4,24,22,7,12.962,-0.6795,-0.3174,0.6003,-0.2775
-0.245,-0.291,0.311,38.7,19.8,9.8,0,2018,4,24,22,7,12.967,-0.6743,-0.3242,0.603,-0.2764
-0.304,-0.327,0.361,30.2,5.6,-0.5,0,2018,4,24,22,7,12.985,-0.6702,-0.3277,0.6062,-0.2752
-0.314,-0.371,0.382,21.2,-2.8,-11.8,0,2018,4,24,22,7,13.008,-0.6672,-0.3283,0.6095,-0.2745
-0.306,-0.395,0.399,12.9,-3.8,-24.7,0,2018,4,24,22,7,13.027,-0.6647,-0.3267,0.6127,-0.2753
-0.288,-0.395,0.412,4.9,1.5,-39.1,0,2018,4,24,22,7,13.063,-0.6623,-0.3235,0.6156,-0.2783
-0.264,-0.361,0.419,-3.6,10.7,-53.3,0,2018,4,24,22,7,13.087,-0.6596,-0.3192,0.618,-0.2843
-0.224,-0.327,0.4,-12.9,20.8,-66.4,0,2018,4,24,22,7,13.09,-0.6566,-0.3141,0.6196,-0.2935
-0.18,-0.291,0.366,-22.3,29.7,-78,0,2018,4,24,22,7,13.107,-0.6533,-0.3082,0.6201,-0.3056
-0.13,-0.24,0.341,-33,34.8,-87.8,0,2018,4,24,22,7,13.124,-0.6501,-0.3014,0.6196,-0.3201
-0.083,-0.176,0.305,-45.3,33.8,-96.1,0,2018,4,24,22,7,13.147,-0.6472,-0.2931,0.618,-0.3363
-0.07,-0.119,0.244,-56.7,26.7,-102.5,0,2018,4,24,22,7,13.164,-0.6452,-0.2827,0.6153,-0.3535
-0.107,-0.101,0.166,-66.7,15.5,-106.9,0,2018,4,24,22,7,13.184,-0.6442,-0.2699,0.6121,-0.3705
-0.206,-0.109,0.103,-75.2,3.8,-110.1,0,2018,4,24,22,7,13.222,-0.6444,-0.2544,0.6082,-0.3873
-0.285,-0.06,0.027,-81.9,-8,-113.9,0,2018,4,24,22,7,13.243,-0.6451,-0.2369,0.6043,-0.403
-0.327,-0.022,-0.042,-86.2,-18.3,-116.4,0,2018,4,24,22,7,13.247,-0.646,-0.2178,0.6007,-0.4174
-0.323,-0.056,-0.097,-90.4,-20.1,-118.3,0,2018,4,24,22,7,13.284,-0.6469,-0.1974,0.5972,-0.431
-0.286,-0.022,-0.125,-92.3,-20.4,-122.2,0,2018,4,24,22,7,13.307,-0.6474,-0.1764,0.5931,-0.4447
-0.249,0.027,-0.147,-92,-23.6,-127,0,2018,4,24,22,7,13.312,-0.6477,-0.1538,0.588,-0.4592
-0.222,0.089,-0.174,-90.5,-26.5,-130.8,0,2018,4,24,22,7,13.325,-0.6471,-0.1303,0.583,-0.4735
-0.193,0.154,-0.223,-87.9,-29.6,-132.2,0,2018,4,24,22,7,13.364,-0.6457,-0.1063,0.578,-0.4874
-0.053,0.233,-0.365,-65.2,-27.7,-118.9,0,2018,4,24,22,7,13.385,-0.6364,-0.0366,0.5649,-0.5238
-0.021,0.252,-0.36,-54.5,-15.3,-108.6,0,2018,4,24,22,7,13.39,-0.6318,-0.0175,0.5609,-0.5345
-0.005,0.297,-0.315,-46.5,-0.5,-96,0,2018,4,24,22,7,13.407,-0.6271,-0.002,0.5562,-0.5451
-0.004,0.321,-0.31,-40.6,14.1,-80.7,0,2018,4,24,22,7,13.428,-0.6228,0.0098,0.5508,-0.5554
0.016,0.37,-0.321,-35.5,23.7,-63.4,0,2018,4,24,22,7,13.447,-0.6195,0.0183,0.5445,-0.565
0.041,0.4,-0.343,-29.2,26.7,-44.4,1023,2018,4,24,22,7,13.47,-0.6173,0.0237,0.5383,-0.5731
0.048,0.417,-0.346,-21.2,24.2,-24.9,1023,2018,4,24,22,7,13.488,-0.6163,0.0267,0.5328,-0.5791
0.052,0.44,-0.33,-12.5,17.2,-5.9,1023,2018,4,24,22,7,13.511,-0.6165,0.0275,0.5288,-0.5825
0.051,0.453,-0.31,-4.7,6.6,12.8,1023,2018,4,24,22,7,13.532,-0.6177,0.0267,0.5267,-0.5832
0.038,0.453,-0.3,2.9,-5.1,31.4,1023,2018,4,24,22,7,13.548,-0.6201,0.0247,0.5267,-0.5808
0.018,0.442,-0.297,10.6,-16.2,50.6,1023,2018,4,24,22,7,13.567,-0.6236,0.0214,0.5288,-0.5752
-0.01,0.4,-0.301,19.3,-23.1,70.6,1023,2018,4,24,22,7,13.59,-0.6282,0.0164,0.5326,-0.5667
-0.043,0.368,-0.271,27.6,-27.8,90.3,1023,2018,4,24,22,7,13.61,-0.6339,0.0093,0.5379,-0.5555
-0.077,0.334,-0.242,35.8,-31.1,109.7,1023,2018,4,24,22,7,13.627,-0.6404,0,0.5444,-0.5415
-0.154,0.309,-0.25,43.8,-35.3,129.8,0,2018,4,24,22,7,13.65,-0.6478,-0.0113,0.5519,-0.5248
-0.291,0.269,-0.259,53.3,-38.8,153.5,0,2018,4,24,22,7,13.669,-0.656,-0.0252,0.5604,-0.5049
-0.414,0.23,-0.255,63,-40,178.3,0,2018,4,24,22,7,13.692,-0.6648,-0.0421,0.5695,-0.4814
-0.487,0.15,-0.207,72.4,-36.5,201.9,0,2018,4,24,22,7,13.709,-0.6739,-0.0624,0.5789,-0.4545
-0.491,0.051,-0.119,80.7,-25.3,217.8,0,2018,4,24,22,7,13.732,-0.6826,-0.0861,0.5878,-0.4254
-0.453,-0.058,-0.003,84.3,-3,226,0,2018,4,24,22,7,13.75,-0.6901,-0.1136,0.5952,-0.3955
-0.371,-0.178,0.15,78.5,33.7,223.6,0,2018,4,24,22,7,13.774,-0.6961,-0.1448,0.5993,-0.3676
-0.237,-0.226,0.22,65.3,72.6,209.2,0,2018,4,24,22,7,13.79,-0.7006,-0.1784,0.5985,-0.345
-0.142,-0.243,0.176,52.9,104.2,187.8,0,2018,4,24,22,7,13.827,-0.703,-0.2136,0.5936,-0.3281
-0.12,-0.246,0.13,45.7,113.4,161.4,0,2018,4,24,22,7,13.827,-0.7032,-0.2479,0.5864,-0.3162
-0.147,-0.212,0.179,38.2,90.1,128.8,0,2018,4,24,22,7,13.85,-0.702,-0.2777,0.5792,-0.3072
-0.149,-0.149,0.258,30.1,28.7,94.6,0,2018,4,24,22,7,13.889,-0.7014,-0.2981,0.5746,-0.298
-0.147,-0.103,0.298,23.4,-57.6,61.7,0,2018,4,24,22,7,13.889,-0.7035,-0.3054,0.5745,-0.2856
-0.141,-0.209,0.283,18.2,-136.1,32.7,0,2018,4,24,22,7,13.912,-0.7091,-0.2984,0.5795,-0.2686
-0.122,-0.29,0.26,12.1,-186.4,10.8,0,2018,4,24,22,7,13.93,-0.7168,-0.2807,0.5878,-0.2484
0,-0.458,0.195,0.7,-204.3,-14.3,0,2018,4,24,22,7,13.953,-0.7334,-0.2286,0.6059,-0.2063
0.098,-0.497,0.174,-4.1,-178.9,-19.9,0,2018,4,24,22,7,13.99,-0.7402,-0.202,0.6129,-0.1882
0.2,-0.511,0.15,-6.8,-142.1,-23.1,0,2018,4,24,22,7,13.99,-0.7455,-0.1787,0.6179,-0.174
0.236,-0.524,0.153,-8.1,-102.7,-24.9,0,2018,4,24,22,7,14.013,-0.7492,-0.16,0.6212,-0.1643
0.226,-0.523,0.147,-8.5,-67.6,-27.1,0,2018,4,24,22,7,14.03,-0.7516,-0.146,0.6232,-0.1588
0.184,-0.514,0.132,-8.2,-37.4,-29.3,0,2018,4,24,22,7,14.068,-0.753,-0.1359,0.6242,-0.1571
0.133,-0.515,0.113,-8.2,-11.5,-32.2,0,2018,4,24,22,7,14.091,-0.7536,-0.1293,0.6245,-0.1588
0.079,-0.512,0.088,-8.1,8.1,-36.8,0,2018,4,24,22,7,14.093,-0.7535,-0.1252,0.6242,-0.1634
0.045,-0.489,0.077,-7.3,23.2,-42.1,0,2018,4,24,22,7,14.113,-0.7529,-0.1228,0.6236,-0.1706
0.027,-0.47,0.078,-6.1,34,-47.8,0,2018,4,24,22,7,14.132,-0.7516,-0.1215,0.6228,-0.1798
0.025,-0.447,0.08,-5.5,42.6,-54.7,1023,2018,4,24,22,7,14.155,-0.7498,-0.1208,0.6218,-0.1909
0.03,-0.425,0.07,-4.5,47.3,-62.1,1023,2018,4,24,22,7,14.173,-0.7474,-0.1202,0.6208,-0.2036
0.033,-0.397,0.045,-2.6,51.5,-70.1,1023,2018,4,24,22,7,14.197,-0.7443,-0.1193,0.6199,-0.2176
0.032,-0.367,0.023,-0.6,57.6,-77,1023,2018,4,24,22,7,14.214,-0.7404,-0.1183,0.6191,-0.2331
0.034,-0.343,-0.014,0.6,66.9,-82.2,1023,2018,4,24,22,7,14.237,-0.7357,-0.1178,0.6181,-0.2502
0.009,-0.253,-0.097,4.6,83.4,-85.5,1023,2018,4,24,22,7,14.253,-0.7241,-0.1192,0.6151,-0.2881
-0.004,-0.207,-0.127,7.7,87.1,-84.7,1023,2018,4,24,22,7,14.269,-0.7172,-0.1211,0.6132,-0.3079
-0.007,-0.16,-0.13,11.5,88.3,-83.8,1023,2018,4,24,22,7,14.292,-0.7096,-0.1236,0.6113,-0.3276
-0.019,-0.172,-0.151,14.3,92.6,-82.9,1023,2018,4,24,22,7,14.331,-0.7014,-0.1266,0.6094,-0.3471
-0.052,-0.164,-0.196,16,100.7,-82.1,1023,2018,4,24,22,7,14.331,-0.6924,-0.1306,0.6071,-0.3671
-0.18,-0.137,-0.282,20,104.7,-81.2,0,2018,4,24,22,7,14.354,-0.6828,-0.1355,0.6043,-0.3875
-0.433,-0.12,-0.344,26.2,107.1,-75.7,0,2018,4,24,22,7,14.372,-0.6723,-0.1413,0.6016,-0.4074
-0.647,-0.133,-0.343,28.4,114.4,-67.8,0,2018,4,24,22,7,14.395,-0.6613,-0.1487,0.5986,-0.4266
-0.604,-0.134,-0.329,28.2,126.9,-60.6,0,2018,4,24,22,7,14.413,-0.6503,-0.1581,0.5943,-0.4458
-0.376,-0.145,-0.336,28.6,143.1,-58.1,0,2018,4,24,22,7,14.437,-0.6388,-0.1694,0.5885,-0.4655
-0.149,-0.101,-0.351,29.7,158.6,-64.1,0,2018,4,24,22,7,14.454,-0.6261,-0.1824,0.581,-0.4868
-0.001,-0.034,-0.364,29.4,171.6,-74.8,0,2018,4,24,22,7,14.477,-0.6116,-0.1959,0.572,-0.51
0.041,0.04,-0.384,27.6,175.4,-83.9,0,2018,4,24,22,7,14.493,-0.5953,-0.2091,0.5619,-0.5347
0.017,0.078,-0.422,23.9,167.4,-88.5,0,2018,4,24,22,7,14.529,-0.578,-0.2207,0.5514,-0.5594
-0.006,0.113,-0.451,19.9,153,-87.3,0,2018,4,24,22,7,14.552,-0.5608,-0.2304,0.5411,-0.5826
-0.016,0.076,-0.475,16.8,142.9,-82.2,0,2018,4,24,22,7,14.557,-0.5443,-0.2385,0.5311,-0.6038
0,0.086,-0.49,14.9,137.2,-76,0,2018,4,24,22,7,14.574,-0.5285,-0.246,0.5209,-0.6234
0.002,0.082,-0.491,15.5,134.6,-69.1,0,2018,4,24,22,7,14.597,-0.5132,-0.2535,0.5104,-0.6416
-0.008,0.057,-0.518,18.6,130.9,-62.9,0,2018,4,24,22,7,14.614,-0.4982,-0.2614,0.4998,-0.6584
-0.039,0.048,-0.535,23.2,125.2,-57.8,0,2018,4,24,22,7,14.638,-0.4834,-0.2697,0.4894,-0.6737
-0.068,0.04,-0.534,29,113.7,-52.7,0,2018,4,24,22,7,14.655,-0.469,-0.278,0.4801,-0.6871
-0.083,0.04,-0.525,34.2,101.4,-48.8,0,2018,4,24,22,7,14.678,-0.4549,-0.2863,0.4721,-0.6985
-0.087,0.02,-0.526,38.8,93.2,-45.2,0,2018,4,24,22,7,14.693,-0.4412,-0.2946,0.4655,-0.7083
-0.077,0.004,-0.523,43.5,88.8,-41.2,0,2018,4,24,22,7,14.712,-0.4278,-0.3031,0.4596,-0.7167
-0.078,-0.017,-0.532,48.6,91.6,-36.8,0,2018,4,24,22,7,14.733,-0.4143,-0.3124,0.4538,-0.7243
-0.079,-0.02,-0.524,53.5,97.6,-32.4,0,2018,4,24,22,7,14.769,-0.4007,-0.3229,0.4473,-0.7314
-0.072,-0.015,-0.501,59.2,101.8,-29.1,0,2018,4,24,22,7,14.791,-0.3866,-0.3347,0.4401,-0.738
-0.08,-0.021,-0.483,65.8,104.4,-27.3,0,2018,4,24,22,7,14.795,-0.3721,-0.3475,0.4325,-0.744
-0.098,-0.029,-0.455,72.7,105.9,-26.3,0,2018,4,24,22,7,14.833,-0.3569,-0.3613,0.4249,-0.7493
-0.146,-0.065,-0.42,78.9,109.3,-26.4,0,2018,4,24,22,7,14.854,-0.3409,-0.3759,0.4171,-0.7539
-0.176,-0.1,-0.39,82.8,116.5,-27.7,0,2018,4,24,22,7,14.856,-0.3239,-0.3912,0.4087,-0.7582
-0.186,-0.113,-0.351,84.9,126.8,-29.7,1023,2018,4,24,22,7,14.89,-0.3057,-0.407,0.3992,-0.7625
-0.187,-0.122,-0.334,84.3,138.3,-33.8,1023,2018,4,24,22,7,14.912,-0.286,-0.423,0.3881,-0.7671
-0.191,-0.116,-0.315,83,147.3,-39.5,1023,2018,4,24,22,7,14.918,-0.2646,-0.4387,0.3756,-0.7721
-0.211,-0.121,-0.299,81,151.8,-47.1,1023,2018,4,24,22,7,14.934,-0.2418,-0.4537,0.3624,-0.7773
-0.207,-0.098,-0.268,77.6,152.6,-55.8,1023,2018,4,24,22,7,14.956,-0.2176,-0.4674,0.3489,-0.7825
-0.222,-0.11,-0.234,73.7,150.2,-65.1,1023,2018,4,24,22,7,14.991,-0.1922,-0.4796,0.3359,-0.7874
-0.26,-0.144,-0.197,68.2,147.7,-75.7,1023,2018,4,24,22,7,15.014,-0.1658,-0.49,0.3235,-0.7922
-0.291,-0.151,-0.182,61.6,145.5,-87.8,1023,2018,4,24,22,7,15.017,-0.1381,-0.4983,0.312,-0.7969
-0.306,-0.173,-0.18,54.9,145.7,-101.3,1023,2018,4,24,22,7,15.054,-0.1091,-0.5045,0.3013,-0.8016
-0.316,-0.163,-0.191,47.9,148.8,-116.5,0,2018,4,24,22,7,15.076,-0.0778,-0.5085,0.2911,-0.8065
-0.347,-0.101,-0.206,42.3,146.8,-131.2,0,2018,4,24,22,7,15.081,-0.0447,-0.5103,0.2818,-0.8112
-0.395,-0.035,-0.226,38.5,140.5,-141.9,0,2018,4,24,22,7,15.097,-0.0106,-0.51,0.2737,-0.8153
-0.407,0.037,-0.229,35.4,130.5,-147.4,0,2018,4,24,22,7,15.121,0.0236,-0.5082,0.2672,-0.8183
-0.363,0.099,-0.196,33.3,118.7,-147.7,0,2018,4,24,22,7,15.138,0.0573,-0.5054,0.2623,-0.82
-0.251,0.172,-0.152,31.3,104.6,-146.1,0,2018,4,24,22,7,15.161,0.0896,-0.5019,0.2588,-0.8203
-0.143,0.254,-0.131,29.6,89.3,-144.9,0,2018,4,24,22,7,15.18,0.1203,-0.4979,0.2571,-0.8193
-0.082,0.342,-0.149,30,74.4,-142.4,0,2018,4,24,22,7,15.201,0.1492,-0.4938,0.2573,-0.817
-0.087,0.43,-0.17,33.5,63,-133.6,0,2018,4,24,22,7,15.22,0.1762,-0.4902,0.2586,-0.8134
-0.098,0.486,-0.16,37.1,58.7,-117.7,0,2018,4,24,22,7,15.237,0.2007,-0.4875,0.2597,-0.809
-0.074,0.523,-0.124,40.5,60,-94.7,0,2018,4,24,22,7,15.259,0.2224,-0.486,0.2589,-0.8044
-0.037,0.544,-0.087,44.1,64.1,-68.5,0,2018,4,24,22,7,15.278,0.241,-0.4858,0.2554,-0.8004
0.018,0.572,-0.053,48.5,67.2,-41.6,0,2018,4,24,22,7,15.299,0.2562,-0.487,0.2488,-0.797
0.059,0.604,-0.029,51.8,67.6,-14.7,0,2018,4,24,22,7,15.337,0.268,-0.4897,0.2394,-0.7943
0.097,0.624,-0.002,54.1,64.8,11.7,0,2018,4,24,22,7,15.36,0.2759,-0.4939,0.2277,-0.7924
0.125,0.627,-0.028,57.9,56.9,37,0,2018,4,24,22,7,15.364,0.28,-0.4996,0.2144,-0.7911
0.123,0.672,-0.132,67.1,43.8,63,0,2018,4,24,22,7,15.38,0.2796,-0.5075,0.2,-0.79
0.09,0.547,-0.12,73.5,38.5,86.7,0,2018,4,24,22,7,15.403,0.2752,-0.5179,0.1843,-0.7886
0.035,0.47,-0.022,74.6,38.5,105.9,0,2018,4,24,22,7,15.42,0.2677,-0.5293,0.1665,-0.7876
0.024,0.512,-0.13,81.5,33,128.2,0,2018,4,24,22,7,15.437,0.257,-0.5414,0.1472,-0.7868
-0.071,0.508,-0.22,90.6,36,152.1,0,2018,4,24,22,7,15.458,0.2429,-0.5552,0.1254,-0.7854
-0.272,0.199,0.094,81.8,51.9,160.1,0,2018,4,24,22,7,15.496,0.2274,-0.5685,0.1002,-0.7841
-0.339,0.106,0.359,68.6,58.3,168.7,0,2018,4,24,22,7,15.519,0.2119,-0.5789,0.073,-0.7839
-0.332,0.194,0.356,64.6,20.5,181.9,0,2018,4,24,22,7,15.524,0.1927,-0.5882,0.0471,-0.7839
-0.26,0.126,0.204,63,-33.3,183.7,0,2018,4,24,22,7,15.541,0.1672,-0.5983,0.0271,-0.7831
-0.249,-0.044,0.128,64.4,-65.5,181.3,0,2018,4,24,22,7,15.58,0.1368,-0.6089,0.0135,-0.7811
-0.277,-0.216,0.186,59.2,-55.3,179,1023,2018,4,24,22,7,15.58,0.1062,-0.6186,0.0021,-0.7784
-0.266,-0.358,0.232,46.8,-13.7,170.5,1023,2018,4,24,22,7,15.604,0.0785,-0.6263,-0.0129,-0.7754
-0.203,-0.455,0.242,33.2,34.5,153,1023,2018,4,24,22,7,15.623,0.0576,-0.6308,-0.0328,-0.773
-0.099,-0.423,0.15,26.8,63.8,128.6,1023,2018,4,24,22,7,15.644,0.0436,-0.6332,-0.0558,-0.7706
-0.063,-0.242,-0.084,27.6,87.7,107.8,1023,2018,4,24,22,7,15.659,0.0355,-0.635,-0.079,-0.7676
-0.067,-0.425,-0.031,20.8,124.4,82.1,1023,2018,4,24,22,7,15.682,0.0341,-0.6362,-0.1042,-0.7636
-0.057,-0.444,0.113,7.9,133.5,47.9,1023,2018,4,24,22,7,15.7,0.0399,-0.6359,-0.1292,-0.7597
0.009,-0.287,0.154,-2.8,92.7,15.7,1023,2018,4,24,22,7,15.723,0.0484,-0.6345,-0.1479,-0.757
-0.002,-0.256,0.235,-8.6,28.4,-12.5,1023,2018,4,24,22,7,15.741,0.0549,-0.6332,-0.1559,-0.756
-0.084,-0.447,0.334,-18.4,-42.6,-50.6,0,2018,4,24,22,7,15.765,0.0584,-0.6323,-0.1509,-0.7576
-0.254,-0.605,0.368,-25.8,-78.4,-82.4,0,2018,4,24,22,7,15.783,0.0606,-0.6318,-0.1346,-0.7608
-0.301,-0.724,0.32,-35.3,-66.2,-105.9,0,2018,4,24,22,7,15.801,0.0652,-0.6306,-0.1138,-0.7649
-0.275,-0.744,0.246,-40.6,-18.6,-122.5,0,2018,4,24,22,7,15.825,0.0763,-0.6281,-0.0951,-0.7684
-0.229,-0.679,0.187,-44.9,39.4,-134.5,0,2018,4,24,22,7,15.843,0.0956,-0.6241,-0.0821,-0.771
-0.186,-0.605,0.038,-46.2,88.3,-143.8,0,2018,4,24,22,7,15.866,0.1222,-0.6185,-0.0749,-0.7725
-0.179,-0.54,-0.066,-45.4,136.3,-149.5,0,2018,4,24,22,7,15.882,0.1548,-0.6115,-0.0735,-0.7724
-0.155,-0.477,-0.098,-44.2,158.6,-156,0,2018,4,24,22,7,15.919,0.192,-0.6028,-0.0762,-0.7706
-0.086,-0.334,-0.169,-39.2,159.2,-157.5,0,2018,4,24,22,7,15.941,0.2304,-0.5935,-0.0797,-0.767
-0.032,-0.256,-0.209,-33,146,-155.3,0,2018,4,24,22,7,15.945,0.2675,-0.5842,-0.0825,-0.7617
0.024,-0.163,-0.253,-26.6,129.7,-151.1,0,2018,4,24,22,7,15.962,0.3021,-0.5757,-0.0837,-0.755
0.058,-0.104,-0.286,-20.1,110.3,-145,0,2018,4,24,22,7,15.986,0.3339,-0.5682,-0.0833,-0.7474
0.054,-0.066,-0.291,-13.5,84.6,-138,0,2018,4,24,22,7,16.004,0.3621,-0.5621,-0.081,-0.739
0.013,-0.104,-0.298,-6.9,69.2,-128.5,0,2018,4,24,22,7,16.027,0.3866,-0.5578,-0.0769,-0.7303
-0.023,-0.076,-0.318,-2.8,65.9,-115.2,0,2018,4,24,22,7,16.045,0.4086,-0.5541,-0.0733,-0.7214
-0.066,-0.014,-0.343,-0.7,67.2,-98,0,2018,4,24,22,7,16.063,0.4284,-0.5504,-0.0712,-0.713
-0.117,0.017,-0.352,0.8,67.4,-82.4,0,2018,4,24,22,7,16.084,0.4459,-0.5464,-0.071,-0.7053
-0.166,-0.024,-0.392,2.6,65.1,-72.6,0,2018,4,24,22,7,16.103,0.4615,-0.5423,-0.072,-0.6982
-0.223,-0.033,-0.463,5.8,60.9,-68.5,0,2018,4,24,22,7,16.14,0.476,-0.5385,-0.0734,-0.6913
-0.258,-0.011,-0.477,9.7,43,-71,0,2018,4,24,22,7,16.163,0.4891,-0.536,-0.0739,-0.684
-0.29,-0.004,-0.45,12.7,21.3,-79.9,0,2018,4,24,22,7,16.168,0.5008,-0.5355,-0.0716,-0.6761
-0.315,0.002,-0.402,14.4,2.6,-94.4,0,2018,4,24,22,7,16.186,0.5119,-0.5372,-0.066,-0.6669
-0.315,0.042,-0.336,13,-9.7,-106.4,0,2018,4,24,22,7,16.205,0.523,-0.5404,-0.0572,-0.6565
-0.28,0.097,-0.291,9.6,-11.3,-114.2,0,2018,4,24,22,7,16.228,0.5345,-0.5437,-0.0465,-0.6453
-0.24,0.161,-0.263,7.1,-12.4,-117,0,2018,4,24,22,7,16.247,0.5462,-0.5465,-0.0348,-0.6337
-0.208,0.238,-0.255,7.7,-10.1,-114.4,0,2018,4,24,22,7,16.265,0.5578,-0.549,-0.0232,-0.6218
-0.175,0.312,-0.229,9,-7.7,-107.5,0,2018,4,24,22,7,16.287,0.5689,-0.5511,-0.0124,-0.6101
-0.153,0.337,-0.216,11.8,-2.8,-97.3,0,2018,4,24,22,7,16.304,0.5792,-0.5529,-0.0029,-0.5989
-0.13,0.385,-0.193,14.4,6.8,-83.8,1023,2018,4,24,22,7,16.322,0.5888,-0.5541,0.0042,-0.5884
-0.117,0.429,-0.171,17.1,13.8,-67.4,1023,2018,4,24,22,7,16.347,0.5975,-0.5545,0.0087,-0.5791
-0.105,0.468,-0.148,19.4,19.6,-48.6,1023,2018,4,24,22,7,16.364,0.605,-0.5544,0.0107,-0.5712
-0.087,0.492,-0.143,20.8,23.7,-27.3,1023,2018,4,24,22,7,16.388,0.6109,-0.5541,0.01,-0.5653
-0.089,0.521,-0.136,21.8,26,-4.3,1023,2018,4,24,22,7,16.405,0.6148,-0.5535,0.0067,-0.5616
-0.094,0.535,-0.163,23.4,24.1,19.3,1023,2018,4,24,22,7,16.429,0.6165,-0.5529,0.001,-0.5604
-0.115,0.538,-0.194,27.2,17.7,42.9,1023,2018,4,24,22,7,16.446,0.6154,-0.5531,-0.0067,-0.5613
-0.15,0.536,-0.216,32.2,10.2,66.1,1023,2018,4,24,22,7,16.469,0.6113,-0.5544,-0.0166,-0.5643
-0.208,0.527,-0.206,36.5,4.9,89.2,1023,2018,4,24,22,7,16.504,0.6041,-0.5568,-0.0286,-0.5693
-0.318,0.508,-0.209,39.7,1.2,114.5,0,2018,4,24,22,7,16.527,0.5939,-0.5596,-0.0428,-0.5762
-0.422,0.485,-0.242,43.5,-1.9,140.9,0,2018,4,24,22,7,16.532,0.5805,-0.5627,-0.0597,-0.5853
-0.466,0.458,-0.27,50.2,-9.7,164.7,0,2018,4,24,22,7,16.548,0.5635,-0.5663,-0.0789,-0.5962
-0.464,0.409,-0.242,60,-17.3,185.1,0,2018,4,24,22,7,16.571,0.5428,-0.5707,-0.1002,-0.6079
-0.467,0.354,-0.106,65.5,-20,202.1,0,2018,4,24,22,7,16.588,0.5187,-0.5755,-0.1235,-0.6199
-0.426,0.271,0.029,63.7,-17.2,214,0,2018,4,24,22,7,16.605,0.4924,-0.5793,-0.1482,-0.6323
-0.381,0.178,0.097,57.1,-8.6,220.3,0,2018,4,24,22,7,16.648,0.4651,-0.581,-0.1739,-0.6447
-0.311,0.102,0.054,49.4,1.3,220.4,0,2018,4,24,22,7,16.65,0.4379,-0.58,-0.2001,-0.6569
-0.275,0.06,-0.016,48,8.5,213.5,0,2018,4,24,22,7,16.685,0.4112,-0.5771,-0.2268,-0.6681
-0.293,0.023,0.002,47.2,4.6,202.1,0,2018,4,24,22,7,16.705,0.3853,-0.5736,-0.2522,-0.6773
-0.326,0.005,0.049,44.9,-10.7,184.8,0,2018,4,24,22,7,16.707,0.3599,-0.5704,-0.2742,-0.6853
-0.334,-0.013,0.067,40.2,-40.4,162.5,0,2018,4,24,22,7,16.745,0.3346,-0.5685,-0.2907,-0.6929
-0.325,-0.148,0.1,35.7,-78.6,134.7,0,2018,4,24,22,7,16.769,0.3093,-0.569,-0.2993,-0.7006
-0.27,-0.275,0.113,29.1,-109,106.9,0,2018,4,24,22,7,16.773,0.2836,-0.5717,-0.3009,-0.7086
-0.207,-0.286,0.082,23,-121.3,81.6,0,2018,4,24,22,7,16.792,0.259,-0.5755,-0.297,-0.7165
-0.131,-0.302,0.035,14.4,-133,58.1,0,2018,4,24,22,7,16.808,0.2365,-0.5799,-0.2887,-0.7241
-0.058,-0.43,0.033,4.9,-144.2,37.8,0,2018,4,24,22,7,16.827,0.2159,-0.5842,-0.2762,-0.7319
0,-0.48,0.035,-0.8,-154.5,21.7,0,2018,4,24,22,7,16.85,0.1965,-0.5885,-0.2601,-0.7397
0.059,-0.481,0.038,-5,-158.3,14.1,0,2018,4,24,22,7,16.867,0.1782,-0.5926,-0.2414,-0.7475
0.096,-0.463,0.007,-8.6,-149.2,10.9,0,2018,4,24,22,7,16.889,0.1607,-0.5958,-0.2221,-0.7548
0.161,-0.434,-0.038,-10.3,-133.4,10.5,0,2018,4,24,22,7,16.907,0.1449,-0.5978,-0.2043,-0.7614
0.201,-0.489,-0.047,-10.8,-110.7,10.7,0,2018,4,24,22,7,16.93,0.1308,-0.5991,-0.189,-0.7669
0.206,-0.499,-0.035,-8.1,-89.7,11.4,0,2018,4,24,22,7,16.949,0.1188,-0.5996,-0.1767,-0.7713
0.176,-0.48,0.024,-3.7,-72,9.6,0,2018,4,24,22,7,16.97,0.1087,-0.6002,-0.1671,-0.7745
0.141,-0.506,0.039,-2,-51.2,5.5,0,2018,4,24,22,7,17.007,0.1009,-0.6008,-0.1598,-0.7766
0.111,-0.467,0.013,1.9,-32.6,-2.9,0,2018,4,24,22,7,17.007,0.096,-0.6015,-0.1545,-0.7778
0.093,-0.481,0.024,4.6,-14,-14.9,0,2018,4,24,22,7,17.029,0.0944,-0.6026,-0.1506,-0.7779
0.074,-0.493,0.076,6.6,4.1,-29.6,1023,2018,4,24,22,7,17.047,0.0965,-0.6041,-0.1479,-0.777
0.071,-0.438,0.125,6.7,18.2,-44.3,1023,2018,4,24,22,7,17.069,0.1023,-0.6058,-0.1458,-0.7753
0.065,-0.368,0.161,5.7,29.7,-56.7,1023,2018,4,24,22,7,17.105,0.1112,-0.6075,-0.144,-0.773
0.067,-0.322,0.141,4.3,38,-67.1,1023,2018,4,24,22,7,17.128,0.123,-0.6091,-0.1422,-0.7704
0.053,-0.281,0.122,4.5,40.1,-73.6,1023,2018,4,24,22,7,17.133,0.1365,-0.6105,-0.1402,-0.7673
0.023,-0.231,0.102,4.9,40.8,-77.6,1023,2018,4,24,22,7,17.152,0.1507,-0.612,-0.1377,-0.7639
-0.005,-0.205,0.101,3.3,42.1,-81.4,1023,2018,4,24,22,7,17.19,0.1656,-0.6134,-0.1348,-0.7603
-0.029,-0.172,0.089,1.5,42.4,-84.3,1023,2018,4,24,22,7,17.19,0.1811,-0.6143,-0.1316,-0.7565
-0.098,-0.106,0.057,1.2,39.7,-85.5,1023,2018,4,24,22,7,17.215,0.1973,-0.615,-0.1273,-0.7527
-0.267,-0.04,0.021,3.4,34.4,-83.2,1023,2018,4,24,22,7,17.232,0.2128,-0.616,-0.1224,-0.7484
-0.424,0.003,-0.002,4.6,31.5,-78.9,0,2018,4,24,22,7,17.255,0.2269,-0.6174,-0.118,-0.7438
-0.468,0.035,-0.011,3.9,29.8,-76.1,0,2018,4,24,22,7,17.273,0.2399,-0.6187,-0.1139,-0.7392
-0.431,0.049,-0.021,3.1,28.7,-74,0,2018,4,24,22,7,17.297,0.2523,-0.6199,-0.1101,-0.7347
-0.381,0.066,-0.047,1,31.3,-73.9,0,2018,4,24,22,7,17.311,0.2645,-0.6207,-0.1064,-0.7303
-0.274,0.109,-0.05,-1.1,34.6,-78.9,0,2018,4,24,22,7,17.331,0.2778,-0.6205,-0.1024,-0.7261
-0.164,0.118,-0.031,-4.1,36.8,-88,0,2018,4,24,22,7,17.352,0.2923,-0.6198,-0.0977,-0.7216
-0.094,0.126,-0.033,-7.2,42.3,-98.6,0,2018,4,24,22,7,17.388,0.3083,-0.6186,-0.0924,-0.7166
-0.101,0.154,-0.055,-11.1,47.4,-107.8,0,2018,4,24,22,7,17.411,0.3262,-0.6166,-0.0863,-0.7112
-0.175,0.193,-0.074,-15.6,52.6,-114.1,0,2018,4,24,22,7,17.416,0.3456,-0.6136,-0.0798,-0.7054
-0.259,0.258,-0.113,-21.4,56.4,-116.6,0,2018,4,24,22,7,17.433,0.3659,-0.6094,-0.073,-0.6994
-0.309,0.309,-0.144,-27.2,54.6,-115.3,0,2018,4,24,22,7,17.454,0.3863,-0.6042,-0.0659,-0.6937
-0.348,0.368,-0.168,-32.2,44.2,-111.4,0,2018,4,24,22,7,17.474,0.4055,-0.5983,-0.0579,-0.6885
-0.355,0.429,-0.188,-35.6,25.7,-105.5,0,2018,4,24,22,7,17.497,0.4225,-0.5927,-0.0484,-0.6839
-0.328,0.463,-0.202,-36.4,3.2,-97.5,0,2018,4,24,22,7,17.514,0.4362,-0.5881,-0.0369,-0.6799
-0.281,0.463,-0.204,-35.6,-17.5,-88.8,0,2018,4,24,22,7,17.53,0.4466,-0.5849,-0.0236,-0.6765
-0.238,0.456,-0.21,-34.2,-32.3,-79.6,0,2018,4,24,22,7,17.55,0.454,-0.5831,-0.0093,-0.6735
-0.188,0.458,-0.228,-32,-41.1,-69.1,0,2018,4,24,22,7,17.59,0.4589,-0.5822,0.0052,-0.671
-0.15,0.449,-0.231,-28.2,-40.8,-57.1,0,2018,4,24,22,7,17.613,0.4619,-0.5819,0.0189,-0.669
-0.125,0.453,-0.213,-24.8,-33.8,-43.8,0,2018,4,24,22,7,17.617,0.4639,-0.5816,0.0305,-0.6674
-0.128,0.448,-0.185,-22.9,-23.7,-30,0,2018,4,24,22,7,17.651,0.4651,-0.5809,0.0395,-0.6667
-0.128,0.473,-0.165,-22.7,-18.4,-16,0,2018,4,24,22,7,17.674,0.4655,-0.5798,0.046,-0.667
-0.118,0.476,-0.161,-22.2,-19.8,-1.5,0,2018,4,24,22,7,17.679,0.4644,-0.5786,0.0509,-0.6684
-0.099,0.49,-0.162,-21.4,-27.6,13.8,0,2018,4,24,22,7,17.695,0.4611,-0.578,0.0547,-0.6709
-0.117,0.447,-0.139,-22.1,-37.5,30.6,0,2018,4,24,22,7,17.719,0.4549,-0.5783,0.0581,-0.6746
-0.158,0.383,-0.097,-25.9,-44.5,48.1,0,2018,4,24,22,7,17.735,0.4458,-0.5792,0.0608,-0.6797
-0.191,0.344,-0.086,-32.6,-48.6,64.1,1023,2018,4,24,22,7,17.752,0.434,-0.5799,0.0629,-0.6865
-0.186,0.3,-0.109,-39.9,-51.6,78.5,1023,2018,4,24,22,7,17.775,0.4197,-0.5801,0.0645,-0.695
-0.218,0.2,-0.116,-48.1,-47.5,89.2,1023,2018,4,24,22,7,17.793,0.4038,-0.5792,0.0652,-0.705
-0.283,0.105,-0.099,-59.2,-45,93.5,1023,2018,4,24,22,7,17.813,0.3872,-0.5768,0.0653,-0.7162
-0.312,0.021,-0.114,-70.9,-44.3,93.3,1023,2018,4,24,22,7,17.852,0.3701,-0.5725,0.0659,-0.7285
-0.3,-0.049,-0.086,-80.8,-53,88,1023,2018,4,24,22,7,17.875,0.3528,-0.5668,0.0677,-0.7413
-0.329,-0.126,0.003,-91.4,-74.2,79.1,1023,2018,4,24,22,7,17.879,0.3345,-0.5607,0.073,-0.7538
-0.332,-0.129,0.043,-108.4,-96.5,73.8,1023,2018,4,24,22,7,17.898,0.3144,-0.554,0.0828,-0.7663
-0.285,-0.109,-0.021,-127.5,-114.5,72.1,1023,2018,4,24,22,7,17.916,0.2923,-0.5455,0.0966,-0.7794
-0.231,-0.107,-0.125,-142.7,-128.3,71.4,1023,2018,4,24,22,7,17.939,0.2684,-0.5343,0.1132,-0.7934
-0.233,-0.099,-0.199,-154.3,-139.3,70.2,0,2018,4,24,22,7,17.958,0.2429,-0.521,0.1321,-0.8074
-0.342,-0.114,-0.248,-164.2,-147.8,73.1,0,2018,4,24,22,7,17.996,0.2159,-0.5058,0.1526,-0.821
-0.404,-0.117,-0.314,-170.9,-153.7,79.8,0,2018,4,24,22,7,17.996,0.187,-0.4891,0.1738,-0.834
-0.351,-0.072,-0.373,-173.4,-160.1,86.1,0,2018,4,24,22,7,18.019,0.156,-0.4711,0.1949,-0.8459
-0.251,-0.025,-0.387,-171.4,-175.8,86.9,0,2018,4,24,22,7,18.038,0.1232,-0.4527,0.217,-0.856
-0.182,0.007,-0.406,-166.8,-192.5,83.8,0,2018,4,24,22,7,18.056,0.0888,-0.4341,0.2412,-0.8633
-0.105,0.021,-0.431,-159.7,-197.5,81,0,2018,4,24,22,7,18.095,0.0545,-0.4155,0.2668,-0.8678
-0.036,-0.009,-0.436,-149.4,-184.1,80,0,2018,4,24,22,7,18.118,0.0214,-0.3973,0.2914,-0.8698
0.009,-0.024,-0.368,-136.2,-154.4,81.9,0,2018,4,24,22,7,18.122,-0.0097,-0.3801,0.3119,-0.8706
-0.002,-0.001,-0.297,-125.8,-117.4,85.6,0,2018,4,24,22,7,18.14,-0.0385,-0.3644,0.3264,-0.8712
0.008,0.06,-0.303,-116.3,-89.1,87.5,0,2018,4,24,22,7,18.157,-0.065,-0.3501,0.3353,-0.8721
0.028,0.114,-0.354,-107.8,-75.1,86.8,0,2018,4,24,22,7,18.178,-0.0897,-0.3372,0.3408,-0.8729
0.027,0.139,-0.377,-98.9,-74.4,86.9,0,2018,4,24,22,7,18.216,-0.1134,-0.3253,0.3452,-0.8729
0.011,0.151,-0.383,-90.5,-84.7,90.9,0,2018,4,24,22,7,18.216,-0.137,-0.3146,0.3502,-0.8714
-0.014,0.158,-0.378,-82,-101.3,98,0,2018,4,24,22,7,18.238,-0.1618,-0.3049,0.3571,-0.8679
-0.018,0.136,-0.388,-72.1,-114,105.8,0,2018,4,24,22,7,18.256,-0.1877,-0.2965,0.3657,-0.8619
-0.013,0.09,-0.382,-62.4,-125.5,110.8,0,2018,4,24,22,7,18.28,-0.2145,-0.2892,0.3758,-0.8538
0.011,0.099,-0.367,-50.8,-135.8,113.7,0,2018,4,24,22,7,18.295,-0.2415,-0.2832,0.3873,-0.8434
0.033,0.097,-0.349,-39.4,-143.6,117,0,2018,4,24,22,7,18.318,-0.2682,-0.2783,0.4002,-0.8308
0.049,0.097,-0.329,-28.4,-144.3,122.5,0,2018,4,24,22,7,18.337,-0.2948,-0.2749,0.4135,-0.8163
0.074,0.094,-0.308,-18.9,-139.4,130,0,2018,4,24,22,7,18.36,-0.3211,-0.2733,0.4263,-0.8002
0.057,0.062,-0.278,-11,-126.9,139.1,0,2018,4,24,22,7,18.379,-0.3472,-0.2737,0.4374,-0.783
0.018,0.007,-0.265,-4.5,-110.1,148.1,0,2018,4,24,22,7,18.399,-0.3729,-0.2763,0.446,-0.7652
0,0.015,-0.268,2.7,-96.8,155.3,0,2018,4,24,22,7,18.417,-0.398,-0.2812,0.4521,-0.7469
0.012,0.066,-0.311,10.8,-85.6,162.8,0,2018,4,24,22,7,18.435,-0.4224,-0.2883,0.4564,-0.728
-0.015,0.086,-0.319,19.4,-78.8,169.4,0,2018,4,24,22,7,18.458,-0.4462,-0.2973,0.4593,-0.7081
-0.057,0.055,-0.274,27.1,-80.1,174.7,1023,2018,4,24,22,7,18.476,-0.4694,-0.3078,0.4617,-0.6867
-0.095,0.008,-0.23,34.6,-85.7,181.3,1023,2018,4,24,22,7,18.499,-0.4924,-0.3188,0.4643,-0.6634
-0.136,-0.034,-0.19,43,-92,188.6,1023,2018,4,24,22,7,18.518,-0.5153,-0.3305,0.4674,-0.6377
-0.177,-0.071,-0.144,51.1,-99.4,194.2,1023,2018,4,24,22,7,18.541,-0.5379,-0.3425,0.4709,-0.6094
-0.236,-0.146,-0.081,56,-101.5,196,1023,2018,4,24,22,7,18.56,-0.5599,-0.3545,0.4747,-0.579
-0.297,-0.233,-0.024,55.5,-89.4,192.7,1023,2018,4,24,22,7,18.583,-0.5804,-0.3667,0.4776,-0.5481
-0.281,-0.321,0.003,51.4,-63.9,183.9,1023,2018,4,24,22,7,18.601,-0.5985,-0.3795,0.478,-0.5188
-0.238,-0.371,0.015,48.8,-40,167.4,1023,2018,4,24,22,7,18.621,-0.6133,-0.3932,0.4759,-0.4926
-0.196,-0.432,0.023,48.2,-25.8,144.6,1023,2018,4,24,22,7,18.659,-0.6246,-0.4067,0.4729,-0.4697
-0.156,-0.456,0.055,49.1,-19.6,119,0,2018,4,24,22,7,18.659,-0.6327,-0.419,0.4706,-0.45
-0.129,-0.463,0.088,50.2,-23.1,92.4,0,2018,4,24,22,7,18.682,-0.6382,-0.4292,0.4699,-0.433
-0.129,-0.445,0.123,50.8,-32.6,67.8,0,2018,4,24,22,7,18.698,-0.642,-0.4363,0.4717,-0.418
-0.141,-0.434,0.149,49.7,-47.1,46.9,0,2018,4,24,22,7,18.72,-0.645,-0.4401,0.4759,-0.4045
-0.145,-0.464,0.139,47.4,-60.7,31.1,0,2018,4,24,22,7,18.757,-0.6478,-0.4405,0.4822,-0.3919
-0.113,-0.516,0.123,43.8,-65.6,20.2,0,2018,4,24,22,7,18.781,-0.6505,-0.4384,0.4898,-0.3801
-0.072,-0.535,0.148,40.4,-65.3,11.5,0,2018,4,24,22,7,18.784,-0.6529,-0.4351,0.4977,-0.3695
-0.036,-0.528,0.175,36.1,-65.7,3.9,0,2018,4,24,22,7,18.804,-0.655,-0.4307,0.5057,-0.36
0.018,-0.519,0.191,31.9,-66.7,-3.3,0,2018,4,24,22,7,18.822,-0.657,-0.4252,0.5136,-0.3515
0.038,-0.539,0.227,29.1,-64.3,-10.8,0,2018,4,24,22,7,18.845,-0.6586,-0.4188,0.5217,-0.3442
0.019,-0.556,0.27,25.6,-57.5,-18.5,0,2018,4,24,22,7,18.863,-0.6596,-0.4121,0.5295,-0.3383
-0.031,-0.558,0.292,20.8,-47.7,-27.8,0,2018,4,24,22,7,18.883,-0.6599,-0.4052,0.537,-0.3344
-0.112,-0.541,0.313,14.3,-36.1,-38.8,0,2018,4,24,22,7,18.904,-0.6592,-0.3983,0.5437,-0.3331
-0.167,-0.49,0.307,7.4,-27.6,-52.1,0,2018,4,24,22,7,18.922,-0.6577,-0.3909,0.5499,-0.3346
-0.171,-0.435,0.303,1,-20.5,-66.6,0,2018,4,24,22,7,18.943,-0.6554,-0.3826,0.5559,-0.3389
-0.155,-0.382,0.296,-5.2,-15.1,-81.2,0,2018,4,24,22,7,18.961,-0.6523,-0.3732,0.5616,-0.3458
-0.122,-0.32,0.29,-12.8,-12.9,-94.6,0,2018,4,24,22,7,18.984,-0.6487,-0.3624,0.567,-0.3551
-0.104,-0.259,0.262,-20.9,-13.5,-105.7,0,2018,4,24,22,7,19.003,-0.6449,-0.3498,0.5722,-0.3662
-0.138,-0.21,0.226,-28.1,-14.1,-113,0,2018,4,24,22,7,19.025,-0.6411,-0.3356,0.5769,-0.3787
-0.193,-0.173,0.175,-34.8,-11.7,-116.8,0,2018,4,24,22,7,19.044,-0.6373,-0.3203,0.5808,-0.392
-0.248,-0.119,0.138,-40,-9.8,-117.8,0,2018,4,24,22,7,19.079,-0.6335,-0.3045,0.5838,-0.4062
-0.285,-0.087,0.148,-45.7,-8.1,-116.8,0,2018,4,24,22,7,19.103,-0.6301,-0.288,0.5855,-0.4207
-0.283,-0.025,0.123,-52.5,-8.9,-115,0,2018,4,24,22,7,19.107,-0.6272,-0.2715,0.586,-0.4351
-0.248,0.025,0.054,-56.3,-17.3,-114.1,0,2018,4,24,22,7,19.122,-0.6249,-0.2547,0.586,-0.4485
-0.224,0.048,-0.001,-57.3,-28,-114.7,0,2018,4,24,22,7,19.14,-0.6228,-0.2368,0.5864,-0.4604
-0.193,0.067,-0.023,-57,-38,-117,0,2018,4,24,22,7,19.163,-0.6207,-0.2178,0.5877,-0.4709
-0.192,0.07,-0.017,-57.3,-45.6,-120.5,0,2018,4,24,22,7,19.181,-0.6184,-0.1974,0.5895,-0.4805
-0.175,0.097,-0.063,-57.3,-48.3,-123.6,1023,2018,4,24,22,7,19.203,-0.6157,-0.1759,0.5915,-0.4898
-0.168,0.103,-0.111,-55.5,-48.7,-125.5,1023,2018,4,24,22,7,19.239,-0.6121,-0.1529,0.5933,-0.4998
-0.147,0.097,-0.153,-52.3,-40.7,-125.6,1023,2018,4,24,22,7,19.262,-0.6077,-0.1302,0.5946,-0.5098
-0.142,0.108,-0.14,-49.8,-26.5,-123.4,1023,2018,4,24,22,7,19.267,-0.6025,-0.1092,0.5949,-0.5206
-0.124,0.16,-0.124,-49.4,-12.5,-118.9,1023,2018,4,24,22,7,19.286,-0.5968,-0.0901,0.5935,-0.5322
-0.096,0.213,-0.125,-49.5,-4.7,-111.5,1023,2018,4,24,22,7,19.309,-0.5913,-0.0727,0.5908,-0.544
-0.066,0.234,-0.149,-47.7,-3.1,-102.2,1023,2018,4,24,22,7,19.328,-0.586,-0.0567,0.5873,-0.5552
-0.051,0.263,-0.141,-45.1,-6.4,-91.7,1023,2018,4,24,22,7,19.363,-0.5813,-0.0418,0.5839,-0.565
-0.033,0.28,-0.132,-42.3,-10.8,-80.9,1023,2018,4,24,22,7,19.386,-0.5773,-0.0278,0.5809,-0.5731
-0.029,0.286,-0.12,-40.1,-13.5,-69.2,0,2018,4,24,22,7,19.388,-0.5739,-0.0148,0.5783,-0.5795
-0.023,0.273,-0.114,-38.1,-14.2,-56.9,0,2018,4,24,22,7,19.403,-0.5715,-0.0031,0.5759,-0.5844
-0.034,0.268,-0.114,-36.7,-11.6,-44.4,0,2018,4,24,22,7,19.44,-0.5701,0.007,0.5735,-0.5881
-0.034,0.275,-0.128,-34.9,-9.8,-31.1,0,2018,4,24,22,7,19.464,-0.5698,0.0155,0.5709,-0.5907
-0.046,0.278,-0.121,-33,-8,-16.9,0,2018,4,24,22,7,19.469,-0.5707,0.0222,0.5684,-0.5921
-0.054,0.278,-0.101,-31.4,-7.5,-1.9,0,2018,4,24,22,7,19.485,-0.5729,0.0272,0.5659,-0.5921
-0.051,0.281,-0.056,-30.5,-9.4,12.8,0,2018,4,24,22,7,19.51,-0.5765,0.0307,0.5637,-0.5905
-0.043,0.257,-0.033,-31.5,-10.4,26.9,0,2018,4,24,22,7,19.527,-0.5816,0.0329,0.5618,-0.5873
-0.044,0.253,-0.063,-32.8,-11.2,40.1,0,2018,4,24,22,7,19.564,-0.5881,0.034,0.5597,-0.5826
-0.101,0.261,-0.159,-30.3,-16.9,56.1,0,2018,4,24,22,7,19.587,-0.596,0.0339,0.5582,-0.5761
-0.189,0.239,-0.217,-26.2,-21.4,75.3,0,2018,4,24,22,7,19.591,-0.6053,0.0324,0.5575,-0.5671
-0.211,0.231,-0.236,-20.5,-24.7,94.6,0,2018,4,24,22,7,19.605,-0.6158,0.0288,0.5578,-0.5556
-0.213,0.182,-0.228,-12.5,-27.3,111.3,0,2018,4,24,22,7,19.623,-0.6272,0.0231,0.559,-0.5417
-0.171,0.144,-0.205,-5.2,-27.3,122.5,0,2018,4,24,22,7,19.647,-0.6389,0.0155,0.561,-0.526
-0.08,0.134,-0.187,0.1,-26.1,128.1,0,2018,4,24,22,7,19.664,-0.6505,0.0064,0.5634,-0.5091
0.027,0.14,-0.201,5.8,-21.7,130.4,0,2018,4,24,22,7,19.687,-0.6615,-0.0039,0.5659,-0.492
0.073,0.153,-0.229,14.4,-18.5,131.5,0,2018,4,24,22,7,19.705,-0.6715,-0.0154,0.5686,-0.4747
0.05,0.143,-0.225,22.3,-16.3,135,0,2018,4,24,22,7,19.727,-0.6805,-0.0281,0.5717,-0.4572
-0.008,0.111,-0.202,27.6,-10,141.8,0,2018,4,24,22,7,19.746,-0.6889,-0.0423,0.5749,-0.4392
-0.054,0.094,-0.181,30.8,-4.1,149.1,0,2018,4,24,22,7,19.77,-0.6969,-0.0584,0.5777,-0.4207
-0.084,0.068,-0.156,32.4,-2.5,155.3,0,2018,4,24,22,7,19.804,-0.7046,-0.0758,0.5801,-0.4013
-0.096,0.066,-0.125,32.5,-7.2,158.9,0,2018,4,24,22,7,19.827,-0.7121,-0.0934,0.5821,-0.3809
-0.126,0.053,-0.094,32.6,-23.9,158.9,0,2018,4,24,22,7,19.831,-0.7193,-0.11,0.5844,-0.3588
-0.16,0.02,-0.065,32.9,-48.7,155.2,0,2018,4,24,22,7,19.847,-0.7259,-0.1244,0.5882,-0.3337
-0.17,-0.053,-0.042,32.9,-74.4,148,0,2018,4,24,22,7,19.867,-0.7321,-0.1345,0.5931,-0.3067
-0.163,-0.156,-0.009,32.3,-89.4,137.5,0,2018,4,24,22,7,19.889,-0.7375,-0.1402,0.5987,-0.2789
-0.125,-0.249,0.017,30.8,-90.9,123.2,1023,2018,4,24,22,7,19.906,-0.7424,-0.1434,0.6039,-0.2518
-0.09,-0.322,0.045,29.1,-78.3,106,1023,2018,4,24,22,7,19.927,-0.7462,-0.1457,0.6085,-0.2271
-0.049,-0.346,0.065,27.1,-61.1,87.9,1023,2018,4,24,22,7,19.966,-0.7486,-0.148,0.6123,-0.2064
-0.027,-0.342,0.087,25.9,-47,71.2,1023,2018,4,24,22,7,19.99,-0.7499,-0.1504,0.6156,-0.1897
-0.027,-0.342,0.098,24,-35.8,57.5,1023,2018,4,24,22,7,19.994,-0.7503,-0.1528,0.6185,-0.1763
-0.006,-0.321,0.105,21.8,-35.8,46.7,1023,2018,4,24,22,7,20.01,-0.7503,-0.1545,0.6211,-0.1652
0.016,-0.312,0.121,20.5,-42.6,38.8,1023,2018,4,24,22,7,20.033,-0.7502,-0.1546,0.6238,-0.1548
0.042,-0.33,0.136,19.1,-50.4,33.2,1023,2018,4,24,22,7,20.051,-0.7502,-0.1528,0.6267,-0.1444
0.077,-0.355,0.148,18.3,-53.7,28.9,1023,2018,4,24,22,7,20.074,-0.7503,-0.1498,0.6296,-0.1341
0.101,-0.39,0.153,18,-49.4,25.6,1023,2018,4,24,22,7,20.092,-0.7503,-0.1463,0.6325,-0.1244
0.124,-0.415,0.158,17.9,-38.7,22.5,0,2018,4,24,22,7,20.115,-0.7499,-0.1435,0.6351,-0.1159
0.13,-0.448,0.174,18.1,-22.6,20.1,0,2018,4,24,22,7,20.132,-0.7491,-0.1422,0.6376,-0.1092
0.114,-0.47,0.188,17.4,-1.3,17.8,0,2018,4,24,22,7,20.15,-0.7478,-0.1431,0.6397,-0.105
0.082,-0.476,0.184,15.7,20.5,15.1,0,2018,4,24,22,7,20.168,-0.746,-0.1466,0.6412,-0.1036
0.045,-0.471,0.176,13.5,38.2,11,0,2018,4,24,22,7,20.191,-0.7438,-0.1523,0.6422,-0.1049
0,-0.458,0.167,10.7,50,4.4,0,2018,4,24,22,7,20.209,-0.7413,-0.1592,0.6428,-0.1085
-0.026,-0.433,0.152,8,55,-5.4,0,2018,4,24,22,7,20.232,-0.7388,-0.1662,0.6429,-0.1143
-0.062,-0.404,0.13,7.1,51.2,-18.3,0,2018,4,24,22,7,20.27,-0.7361,-0.1719,0.6431,-0.1217
-0.211,-0.408,0.131,7,46.5,-30.7,0,2018,4,24,22,7,20.27,-0.7333,-0.1754,0.6438,-0.1301
-0.336,-0.406,0.139,4.1,47.9,-41.6,0,2018,4,24,22,7,20.293,-0.7303,-0.1775,0.6445,-0.1399
-0.389,-0.403,0.117,1,53.4,-50.2,0,2018,4,24,22,7,20.311,-0.7273,-0.1788,0.645,-0.1514
-0.432,-0.395,0.099,-2,62.3,-56.4,0,2018,4,24,22,7,20.329,-0.7241,-0.18,0.645,-0.1646
-0.426,-0.376,0.09,-7.4,74.7,-61.1,0,2018,4,24,22,7,20.352,-0.7207,-0.1819,0.6442,-0.18
-0.311,-0.326,0.076,-14.1,83.6,-67.4,0,2018,4,24,22,7,20.369,-0.7172,-0.1843,0.6422,-0.1974
-0.169,-0.288,0.042,-19.5,91.1,-76.8,0,2018,4,24,22,7,20.39,-0.7137,-0.1866,0.6393,-0.2168
-0.066,-0.246,0.015,-25,97.6,-88,0,2018,4,24,22,7,20.429,-0.7098,-0.1882,0.6354,-0.2383
-0.046,-0.208,-0.024,-31.3,104.7,-98.2,0,2018,4,24,22,7,20.45,-0.7055,-0.1892,0.6306,-0.262
-0.118,-0.16,-0.069,-38.3,112.3,-104.2,0,2018,4,24,22,7,20.454,-0.7008,-0.1897,0.6245,-0.2876
-0.217,-0.105,-0.116,-46.7,113.7,-107.2,0,2018,4,24,22,7,20.472,-0.6961,-0.1899,0.6168,-0.3143
-0.283,-0.017,-0.158,-54.4,103,-109,0,2018,4,24,22,7,20.495,-0.6911,-0.189,0.6089,-0.3403
-0.269,0.035,-0.207,-59,80.5,-111.6,0,2018,4,24,22,7,20.513,-0.6872,-0.185,0.6001,-0.3651
-0.226,0.055,-0.242,-59.7,54.3,-115,0,2018,4,24,22,7,20.537,-0.6838,-0.1773,0.5921,-0.3875
-0.197,0.083,-0.264,-58,29.3,-119.3,0,2018,4,24,22,7,20.553,-0.6805,-0.166,0.5858,-0.4075
-0.171,0.099,-0.278,-54.7,8.5,-123.2,0,2018,4,24,22,7,20.57,-0.6769,-0.1516,0.5812,-0.4252
-0.143,0.121,-0.298,-50.5,-7,-125.5,0,2018,4,24,22,7,20.593,-0.6728,-0.135,0.5782,-0.4412
-0.114,0.12,-0.32,-45.7,-15.6,-125.7,1023,2018,4,24,22,7,20.63,-0.6681,-0.1171,0.5762,-0.4558
-0.088,0.139,-0.352,-39.7,-18.9,-124.1,1023,2018,4,24,22,7,20.654,-0.6626,-0.099,0.5751,-0.4694
-0.066,0.163,-0.381,-32.6,-15.8,-120.3,1023,2018,4,24,22,7,20.656,-0.6563,-0.0817,0.5743,-0.4822
-0.06,0.175,-0.396,-25.5,-3.9,-113.5,1023,2018,4,24,22,7,20.675,-0.6494,-0.0663,0.5734,-0.4949
-0.063,0.179,-0.388,-20,13.8,-104.7,1023,2018,4,24,22,7,20.693,-0.642,-0.054,0.5716,-0.508
-0.076,0.2,-0.386,-15.3,32.4,-94.3,1023,2018,4,24,22,7,20.716,-0.6346,-0.0452,0.5683,-0.5216
-0.086,0.249,-0.393,-10.2,43.7,-83.2,1023,2018,4,24,22,7,20.734,-0.6274,-0.0396,0.5639,-0.5353
-0.087,0.287,-0.371,-3.9,46.3,-72.1,1023,2018,4,24,22,7,20.755,-0.6205,-0.0363,0.5594,-0.5483
-0.081,0.296,-0.349,1.5,44.9,-60,0,2018,4,24,22,7,20.792,-0.6139,-0.0348,0.5552,-0.5599
-0.068,0.303,-0.324,6.1,41.5,-47.4,0,2018,4,24,22,7,20.792,-0.608,-0.0346,0.5517,-0.5697
-0.052,0.308,-0.315,10.2,37.3,-35.5,0,2018,4,24,22,7,20.816,-0.6028,-0.0356,0.5489,-0.5778
-0.048,0.311,-0.298,14.6,32.6,-23.7,0,2018,4,24,22,7,20.831,-0.5984,-0.0378,0.5469,-0.5841
-0.046,0.315,-0.255,17.9,29.8,-13,0,2018,4,24,22,7,20.855,-0.5948,-0.041,0.5455,-0.5889
-0.051,0.313,-0.209,19.2,28.4,-2.5,0,2018,4,24,22,7,20.873,-0.592,-0.0452,0.5445,-0.5922
-0.054,0.317,-0.18,19.4,27.4,8,0,2018,4,24,22,7,20.896,-0.5903,-0.0504,0.5436,-0.5944
-0.048,0.326,-0.173,20.7,25.8,19.9,0,2018,4,24,22,7,20.914,-0.5896,-0.0566,0.5428,-0.5953
-0.049,0.328,-0.17,24,22.4,33.5,0,2018,4,24,22,7,20.936,-0.59,-0.0639,0.5422,-0.5946
-0.103,0.344,-0.197,30.4,16,49.2,0,2018,4,24,22,7,20.972,-0.5915,-0.0727,0.5425,-0.5919
-0.218,0.331,-0.198,38.9,10.1,69.7,0,2018,4,24,22,7,20.995,-0.5942,-0.0832,0.544,-0.5864
-0.285,0.297,-0.161,46.9,7.7,92.2,0,2018,4,24,22,7,21,-0.5982,-0.0963,0.5464,-0.5781
-0.268,0.264,-0.122,55.7,7.1,112.1,0,2018,4,24,22,7,21.016,-0.6035,-0.112,0.5491,-0.567
-0.213,0.215,-0.071,65.8,10.4,127,0,2018,4,24,22,7,21.034,-0.6092,-0.1304,0.5522,-0.5538
-0.16,0.149,-0.013,74.4,20.8,136.6,0,2018,4,24,22,7,21.058,-0.6146,-0.1516,0.5551,-0.5394
-0.074,0.094,0.035,78.7,39.4,139.2,0,2018,4,24,22,7,21.074,-0.6194,-0.1761,0.5565,-0.5248
-0.016,0.031,0.082,78.1,65.7,135.7,0,2018,4,24,22,7,21.112,-0.623,-0.203,0.5553,-0.512
0.018,0.007,0.118,74,91.9,128.1,0,2018,4,24,22,7,21.134,-0.6247,-0.2313,0.5509,-0.5025
0.008,-0.005,0.092,67.9,115,120.2,0,2018,4,24,22,7,21.138,-0.6247,-0.2607,0.5435,-0.4962
-0.046,0.04,0.089,64,109.8,111.4,0,2018,4,24,22,7,21.155,-0.6233,-0.29,0.5346,-0.4913
-0.11,0.068,0.128,61.5,69.5,101.1,0,2018,4,24,22,7,21.177,-0.6223,-0.3155,0.5274,-0.4846
-0.146,0.05,0.205,56.9,15.4,91.2,0,2018,4,24,22,7,21.214,-0.6231,-0.334,0.5242,-0.4746
-0.195,-0.025,0.297,50.8,-42.5,80.3,0,2018,4,24,22,7,21.214,-0.6261,-0.3445,0.5263,-0.4606
-0.188,-0.132,0.307,41.8,-86.1,69.4,0,2018,4,24,22,7,21.237,-0.6317,-0.3477,0.5321,-0.4435
-0.147,-0.258,0.251,33.8,-107.3,59.2,0,2018,4,24,22,7,21.255,-0.6391,-0.3455,0.5399,-0.4248
-0.087,-0.38,0.224,26.3,-100.4,50.4,0,2018,4,24,22,7,21.277,-0.6466,-0.341,0.5477,-0.4068
-0.018,-0.479,0.208,19.3,-67.2,43.3,1023,2018,4,24,22,7,21.311,-0.6527,-0.3374,0.5534,-0.3921
0.047,-0.512,0.189,13.2,-19.1,36.9,1023,2018,4,24,22,7,21.335,-0.6563,-0.3375,0.5558,-0.3825
0.095,-0.497,0.168,8.9,29.9,32.2,1023,2018,4,24,22,7,21.339,-0.6571,-0.3423,0.5546,-0.3786
0.108,-0.457,0.158,6.9,66.9,28.6,1023,2018,4,24,22,7,21.354,-0.6553,-0.3515,0.5503,-0.3795
0.091,-0.438,0.158,5.8,96,26.4,1023,2018,4,24,22,7,21.377,-0.6513,-0.3641,0.5438,-0.3839
0.062,-0.415,0.158,4.6,113.8,24.7,1023,2018,4,24,22,7,21.413,-0.6457,-0.3789,0.5355,-0.3906
0.027,-0.412,0.129,4.1,125.5,21.8,1023,2018,4,24,22,7,21.434,-0.6388,-0.3948,0.5261,-0.3988
-0.003,-0.425,0.082,4.7,135.1,16.2,1023,2018,4,24,22,7,21.439,-0.6305,-0.4113,0.5161,-0.4083
-0.022,-0.437,0.056,4.6,148.1,6.7,1023,2018,4,24,22,7,21.477,-0.6205,-0.4282,0.5056,-0.4193
0.011,-0.415,0.038,3.4,161.6,-5.5,1023,2018,4,24,22,7,21.501,-0.6083,-0.4452,0.4944,-0.4325
0.06,-0.377,0.019,1.7,172.1,-18.9,0,2018,4,24,22,7,21.505,-0.5939,-0.4619,0.4828,-0.4479
0.087,-0.334,0.016,0,175.8,-31.1,0,2018,4,24,22,7,21.519,-0.5774,-0.4778,0.471,-0.465
0.093,-0.289,0.011,-1.7,171.7,-41.1,0,2018,4,24,22,7,21.537,-0.5597,-0.492,0.4596,-0.4829
0.089,-0.259,0.008,-3.4,161.2,-48.8,0,2018,4,24,22,7,21.56,-0.5415,-0.5042,0.449,-0.5008
0.055,-0.242,-0.023,-4.3,148.5,-53.2,0,2018,4,24,22,7,21.577,-0.5235,-0.5143,0.4395,-0.5179
-0.025,-0.234,-0.037,-4.2,137.8,-54.1,0,2018,4,24,22,7,21.6,-0.5059,-0.5226,0.4308,-0.534
-0.111,-0.216,-0.042,-4.5,128.5,-51.5,0,2018,4,24,22,7,21.618,-0.489,-0.5298,0.4228,-0.5489
-0.2,-0.218,-0.03,-6.7,124.3,-46.4,0,2018,4,24,22,7,21.639,-0.4729,-0.5362,0.4147,-0.5627
-0.241,-0.231,-0.026,-12.3,125.5,-37.9,0,2018,4,24,22,7,21.682,-0.4577,-0.5424,0.4055,-0.576
-0.2,-0.246,-0.046,-19.3,129.3,-29.1,0,2018,4,24,22,7,21.684,-0.4432,-0.5485,0.3944,-0.589
-0.158,-0.255,-0.111,-25,131.8,-21.8,0,2018,4,24,22,7,21.701,-0.4296,-0.5544,0.3815,-0.602
-0.147,-0.249,-0.173,-30.2,135.4,-17.2,0,2018,4,24,22,7,21.72,-0.4164,-0.56,0.3672,-0.6148
-0.128,-0.254,-0.197,-35.6,142.6,-15.8,0,2018,4,24,22,7,21.738,-0.403,-0.5654,0.3513,-0.628
-0.1,-0.251,-0.199,-41.7,148.1,-16.7,0,2018,4,24,22,7,21.758,-0.3891,-0.5702,0.334,-0.6417
-0.087,-0.25,-0.219,-47.8,149.4,-18.6,0,2018,4,24,22,7,21.795,-0.3747,-0.5741,0.3159,-0.6558
-0.107,-0.235,-0.262,-52,142,-20.7,0,2018,4,24,22,7,21.818,-0.3604,-0.5766,0.2976,-0.67
-0.129,-0.226,-0.322,-53.6,126.4,-23.5,0,2018,4,24,22,7,21.823,-0.3469,-0.5775,0.2807,-0.6835
-0.126,-0.214,-0.346,-53,107.9,-26.6,0,2018,4,24,22,7,21.841,-0.3347,-0.5768,0.266,-0.696
-0.115,-0.214,-0.355,-51.2,88.6,-29.6,0,2018,4,24,22,7,21.863,-0.3237,-0.5747,0.2539,-0.7073
-0.097,-0.216,-0.359,-49.1,72.2,-31.9,0,2018,4,24,22,7,21.88,-0.3141,-0.5716,0.2443,-0.7175
-0.072,-0.224,-0.364,-46.1,57.4,-33.1,0,2018,4,24,22,7,21.904,-0.3056,-0.5677,0.2368,-0.7267
-0.046,-0.239,-0.367,-43,46,-33.9,0,2018,4,24,22,7,21.921,-0.2981,-0.5633,0.2313,-0.7349
-0.032,-0.253,-0.389,-39.5,40.4,-33.5,0,2018,4,24,22,7,21.938,-0.2912,-0.5589,0.227,-0.7424
-0.023,-0.263,-0.422,-35.8,40.7,-32.6,0,2018,4,24,22,7,21.961,-0.2845,-0.5547,0.223,-0.7493
-0.038,-0.271,-0.462,-31.2,45.1,-31.6,1023,2018,4,24,22,7,21.979,-0.2774,-0.5511,0.2189,-0.7558
-0.075,-0.276,-0.509,-24.8,53.5,-31,1023,2018,4,24,22,7,22.002,-0.2696,-0.5486,0.214,-0.7618
-0.089,-0.282,-0.53,-17.8,68.6,-31.6,1023,2018,4,24,22,7,22.02,-0.2604,-0.5475,0.2079,-0.7675
-0.092,-0.283,-0.534,-11.5,87.5,-33.2,1023,2018,4,24,22,7,22.042,-0.2491,-0.5479,0.1998,-0.7731
-0.094,-0.281,-0.534,-5.9,107,-36.5,1023,2018,4,24,22,7,22.063,-0.2353,-0.5496,0.1895,-0.7787
-0.098,-0.257,-0.52,-0.8,122.6,-42.1,1023,2018,4,24,22,7,22.082,-0.2189,-0.5525,0.1774,-0.7843
-0.098,-0.215,-0.501,4,125.3,-50,1023,2018,4,24,22,7,22.102,-0.2004,-0.556,0.1647,-0.7896
-0.097,-0.192,-0.487,9.1,122.9,-59.2,1023,2018,4,24,22,7,22.141,-0.1805,-0.5595,0.1531,-0.7942
-0.093,-0.167,-0.463,13.6,115.5,-68.2,1023,2018,4,24,22,7,22.162,-0.1597,-0.563,0.1431,-0.798
-0.089,-0.149,-0.453,17.4,108.5,-76,0,2018,4,24,22,7,22.169,-0.1381,-0.5664,0.1351,-0.8011
-0.087,-0.124,-0.432,20.7,103.6,-81.9,0,2018,4,24,22,7,22.187,-0.1161,-0.5696,0.1285,-0.8034
-0.091,-0.095,-0.415,23.1,100.6,-86.3,0,2018,4,24,22,7,22.203,-0.0936,-0.5727,0.123,-0.805
-0.095,-0.064,-0.394,25.4,98,-89.1,0,2018,4,24,22,7,22.24,-0.0704,-0.5757,0.1184,-0.8059
-0.091,-0.034,-0.381,27.9,95.8,-90.6,0,2018,4,24,22,7,22.263,-0.0471,-0.5787,0.1142,-0.806
-0.09,-0.01,-0.359,30.2,93.6,-90.8,0,2018,4,24,22,7,22.267,-0.024,-0.5816,0.1103,-0.8055
-0.107,0.02,-0.345,32.9,91.7,-89.6,0,2018,4,24,22,7,22.283,-0.0016,-0.5845,0.1065,-0.8043
-0.129,0.041,-0.322,35.4,90.9,-87.1,0,2018,4,24,22,7,22.322,0.0203,-0.5876,0.1025,-0.8023
-0.161,0.045,-0.309,37.8,90.6,-83.7,0,2018,4,24,22,7,22.322,0.0419,-0.5907,0.0983,-0.7997
-0.222,0.049,-0.302,41.3,89.3,-81,0,2018,4,24,22,7,22.345,0.0633,-0.594,0.0939,-0.7964
-0.29,0.046,-0.277,45.4,89.5,-79.1,0,2018,4,24,22,7,22.383,0.0843,-0.5976,0.0893,-0.7922
-0.303,0.049,-0.242,48.3,91.5,-80,0,2018,4,24,22,7,22.406,0.1055,-0.6014,0.0844,-0.7874
-0.269,0.065,-0.194,49.7,94.4,-84.2,0,2018,4,24,22,7,22.41,0.1272,-0.605,0.0793,-0.7819
-0.223,0.067,-0.147,49.1,101.3,-89.6,0,2018,4,24,22,7,22.422,0.1501,-0.6083,0.074,-0.7758
-0.199,0.093,-0.095,45.5,106.3,-95,0,2018,4,24,22,7,22.46,0.1742,-0.6106,0.0684,-0.7694
-0.211,0.133,-0.066,40.2,107.3,-99.2,0,2018,4,24,22,7,22.481,0.1992,-0.6117,0.0631,-0.7629
-0.216,0.186,-0.049,35.7,104.9,-100.4,0,2018,4,24,22,7,22.485,0.2242,-0.6117,0.0583,-0.7563
-0.232,0.224,-0.025,31.8,101.1,-98.5,0,2018,4,24,22,7,22.522,0.2486,-0.611,0.054,-0.7496
-0.211,0.264,0.016,26.2,99.9,-94.1,0,2018,4,24,22,7,22.545,0.2721,-0.6093,0.0499,-0.743
-0.154,0.311,0.048,18.9,98.2,-89,0,2018,4,24,22,7,22.549,0.2946,-0.6065,0.0457,-0.7369
-0.122,0.375,0.053,11.8,93.7,-83.5,0,2018,4,24,22,7,22.565,0.316,-0.6027,0.0417,-0.7315
-0.115,0.449,0.033,7.1,81.9,-76.6,0,2018,4,24,22,7,22.587,0.3354,-0.5982,0.0383,-0.7266
-0.108,0.527,0.009,6.5,60.5,-67.2,0,2018,4,24,22,7,22.624,0.352,-0.5943,0.0364,-0.7221
-0.095,0.558,0.02,10,36.6,-54.9,0,2018,4,24,22,7,22.624,0.3647,-0.5919,0.0362,-0.7177
-0.063,0.546,0.058,14.8,18.8,-39.7,1023,2018,4,24,22,7,22.647,0.3734,-0.5915,0.037,-0.7136
-0.026,0.504,0.102,17.8,14.9,-22.5,1023,2018,4,24,22,7,22.665,0.3789,-0.5924,0.0371,-0.7099
0.023,0.473,0.101,19.1,20.1,-3.9,1023,2018,4,24,22,7,22.683,0.3824,-0.5934,0.0351,-0.7072
0.068,0.454,0.066,21,29,15.1,1023,2018,4,24,22,7,22.706,0.3844,-0.5943,0.0301,-0.7057
0.084,0.451,0.021,23.8,37.6,34.7,1023,2018,4,24,22,7,22.724,0.3848,-0.5949,0.0218,-0.7052
0.074,0.454,0,26.5,41.8,53.8,1023,2018,4,24,22,7,22.747,0.3836,-0.5954,0.0105,-0.7057
0.039,0.433,0.001,29.1,40.2,71.7,1023,2018,4,24,22,7,22.765,0.3801,-0.5961,-0.003,-0.7071
0.016,0.402,0.003,30.7,32.4,87.8,1023,2018,4,24,22,7,22.788,0.3739,-0.5973,-0.0179,-0.7092
-0.007,0.348,-0.019,32.2,22.3,101.6,1023,2018,4,24,22,7,22.806,0.3648,-0.599,-0.0333,-0.712
-0.034,0.311,-0.038,34.3,9,113.1,1023,2018,4,24,22,7,22.829,0.3527,-0.6013,-0.0486,-0.7151
-0.067,0.255,-0.069,36.4,-4.7,122.5,0,2018,4,24,22,7,22.848,0.3377,-0.6045,-0.0634,-0.7186
-0.06,0.203,-0.076,38.9,-14.7,129.8,0,2018,4,24,22,7,22.871,0.3203,-0.6083,-0.0776,-0.722
-0.054,0.134,-0.069,41.8,-19.8,135.4,0,2018,4,24,22,7,22.89,0.301,-0.6124,-0.0917,-0.7252
-0.055,0.042,-0.034,43.3,-15.9,139.4,0,2018,4,24,22,7,22.909,0.2805,-0.6166,-0.1067,-0.7278
-0.072,-0.053,0.016,42.9,-3.9,142.2,0,2018,4,24,22,7,22.927,0.2607,-0.6199,-0.1224,-0.7298
-0.068,-0.114,0.052,40.7,13,142.8,0,2018,4,24,22,7,22.965,0.2428,-0.6217,-0.1395,-0.7314
-0.049,-0.144,0.079,38.6,27.3,140.9,0,2018,4,24,22,7,22.989,0.2266,-0.6221,-0.1584,-0.7324
-0.043,-0.174,0.097,37.7,31.6,135.8,0,2018,4,24,22,7,22.993,0.2111,-0.6218,-0.1787,-0.7326
-0.034,-0.221,0.118,36.8,29.2,127.7,0,2018,4,24,22,7,23.009,0.1963,-0.621,-0.1983,-0.7323
-0.045,-0.28,0.16,35.3,20.8,116.9,0,2018,4,24,22,7,23.028,0.1821,-0.6204,-0.216,-0.7315
-0.061,-0.356,0.195,32.6,11.9,102.7,0,2018,4,24,22,7,23.051,0.1685,-0.62,-0.231,-0.7306
-0.063,-0.428,0.221,28.2,6.4,85.1,0,2018,4,24,22,7,23.07,0.1562,-0.6197,-0.2431,-0.7296
-0.044,-0.475,0.223,23.7,4.8,64.3,0,2018,4,24,22,7,23.092,0.1461,-0.6196,-0.2526,-0.7285
-0.027,-0.492,0.211,20,4.8,41.4,0,2018,4,24,22,7,23.111,0.1386,-0.62,-0.2596,-0.7272
-0.074,-0.487,0.17,18.7,6.6,18.9,0,2018,4,24,22,7,23.134,0.1344,-0.621,-0.264,-0.7255
-0.229,-0.491,0.194,15.1,12.6,-1.3,0,2018,4,24,22,7,23.149,0.1334,-0.6227,-0.2667,-0.7233
-0.318,-0.488,0.193,8.7,14.9,-18.1,0,2018,4,24,22,7,23.186,0.1354,-0.6244,-0.2677,-0.7211
-0.353,-0.473,0.186,1.9,17.3,-31.8,0,2018,4,24,22,7,23.21,0.1401,-0.6258,-0.2671,-0.7192
-0.322,-0.447,0.175,-4.5,17.5,-43.7,0,2018,4,24,22,7,23.214,0.1469,-0.627,-0.2651,-0.7176
-0.267,-0.408,0.156,-10.3,17,-56,0,2018,4,24,22,7,23.23,0.1554,-0.6279,-0.2616,-0.7163
-0.213,-0.381,0.144,-15.6,18,-68.1,0,2018,4,24,22,7,23.268,0.1657,-0.6286,-0.2565,-0.7152
-0.139,-0.435,0.106,-24.5,40.5,-78.2,0,2018,4,24,22,7,23.291,0.1787,-0.6285,-0.2511,-0.714
-0.057,-0.461,0.068,-36.4,85.8,-86.3,0,2018,4,24,22,7,23.295,0.1972,-0.6262,-0.2489,-0.7119
-0.008,-0.427,0.005,-48.5,131.4,-93.9,0,2018,4,24,22,7,23.315,0.222,-0.6209,-0.2509,-0.7086
-0.023,-0.222,-0.021,-56.1,159.1,-100.1,1023,2018,4,24,22,7,23.331,0.2525,-0.6125,-0.2567,-0.7036
-0.068,-0.086,-0.056,-59.4,162.7,-102.3,1023,2018,4,24,22,7,23.354,0.2849,-0.6028,-0.2626,-0.6974
-0.19,-0.113,-0.077,-67.7,176.9,-98,1023,2018,4,24,22,7,23.37,0.318,-0.5917,-0.2685,-0.6903
-0.25,-0.006,-0.071,-76.6,175.8,-93.6,1023,2018,4,24,22,7,23.389,0.3514,-0.5776,-0.2758,-0.6831
-0.266,0.05,-0.105,-80.1,150.1,-91.1,1023,2018,4,24,22,7,23.408,0.3822,-0.563,-0.2813,-0.6765
-0.253,0.065,-0.15,-79.1,111.7,-90,1023,2018,4,24,22,7,23.447,0.4093,-0.5492,-0.2825,-0.6715
-0.218,0.078,-0.204,-76.2,73.3,-91.8,1023,2018,4,24,22,7,23.468,0.4324,-0.5378,-0.2788,-0.6677
-0.185,0.112,-0.238,-71,31.3,-95,1023,2018,4,24,22,7,23.469,0.4516,-0.5297,-0.2705,-0.6649
-0.162,0.138,-0.252,-63.3,-14.9,-100.4,0,2018,4,24,22,7,23.508,0.4666,-0.526,-0.2568,-0.6629
-0.162,0.145,-0.253,-56.7,-53.3,-106.1,0,2018,4,24,22,7,23.529,0.4779,-0.5265,-0.2383,-0.6614
-0.152,0.159,-0.273,-52.3,-82.2,-111.5,0,2018,4,24,22,7,23.531,0.4862,-0.5304,-0.2157,-0.66
-0.135,0.163,-0.309,-48,-100,-115.8,0,2018,4,24,22,7,23.568,0.4925,-0.5366,-0.1901,-0.6582
-0.126,0.166,-0.341,-42.6,-103.4,-118.3,0,2018,4,24,22,7,23.591,0.4976,-0.5439,-0.1633,-0.6555
-0.113,0.171,-0.345,-37.7,-92.7,-117.8,0,2018,4,24,22,7,23.595,0.5027,-0.5511,-0.1372,-0.6516
-0.099,0.194,-0.335,-34.4,-73.1,-114.1,0,2018,4,24,22,7,23.61,0.5086,-0.5569,-0.1134,-0.6466
-0.102,0.207,-0.319,-31.6,-51.1,-106.9,0,2018,4,24,22,7,23.631,0.5156,-0.5607,-0.0928,-0.6411
-0.081,0.246,-0.293,-28.5,-31.2,-97.8,0,2018,4,24,22,7,23.667,0.5235,-0.5625,-0.0755,-0.6354
-0.063,0.291,-0.266,-25.2,-14.2,-86.1,0,2018,4,24,22,7,23.688,0.5318,-0.5626,-0.0616,-0.6298
-0.048,0.335,-0.235,-21.8,-2.8,-72.7,0,2018,4,24,22,7,23.693,0.54,-0.5616,-0.0508,-0.6248
-0.053,0.369,-0.223,-17.7,2.5,-57.4,0,2018,4,24,22,7,23.729,0.5472,-0.5599,-0.0426,-0.6205
-0.072,0.4,-0.213,-13.6,1.6,-40.8,0,2018,4,24,22,7,23.752,0.5528,-0.5583,-0.0367,-0.6174
-0.08,0.425,-0.207,-8.6,-5.9,-23.9,0,2018,4,24,22,7,23.757,0.5561,-0.5575,-0.0323,-0.6154
-0.067,0.433,-0.177,-3.4,-14.1,-6.9,0,2018,4,24,22,7,23.774,0.5568,-0.558,-0.0291,-0.6145
-0.05,0.421,-0.117,0.3,-20,9.7,0,2018,4,24,22,7,23.797,0.5549,-0.5595,-0.0273,-0.6149
-0.039,0.418,-0.096,2.5,-21.9,25.9,0,2018,4,24,22,7,23.811,0.5509,-0.5617,-0.027,-0.6166
-0.094,0.426,-0.153,6.9,-23.9,45.3,0,2018,4,24,22,7,23.83,0.5447,-0.5642,-0.0284,-0.6197
-0.187,0.413,-0.18,12.6,-24.1,68,0,2018,4,24,22,7,23.854,0.5361,-0.5673,-0.0324,-0.6242
-0.216,0.384,-0.195,18.5,-24.1,90,0,2018,4,24,22,7,23.871,0.5248,-0.5707,-0.0391,-0.6302
-0.242,0.368,-0.156,25.3,-26.6,109.4,0,2018,4,24,22,7,23.891,0.511,-0.5747,-0.0483,-0.6373
-0.295,0.336,-0.121,31.2,-28.7,126,0,2018,4,24,22,7,23.93,0.4947,-0.5792,-0.0597,-0.6451
-0.325,0.292,-0.093,34.9,-26.3,140.4,0,2018,4,24,22,7,23.954,0.4763,-0.5838,-0.0729,-0.6533
-0.296,0.239,-0.092,37,-17.8,150.2,0,2018,4,24,22,7,23.958,0.4567,-0.5877,-0.0882,-0.6618
-0.243,0.207,-0.088,38.3,-6.7,154.4,0,2018,4,24,22,7,23.976,0.437,-0.5905,-0.1055,-0.6701
-0.186,0.186,-0.071,38.2,3,152.9,1023,2018,4,24,22,7,23.994,0.418,-0.592,-0.1241,-0.6776
-0.153,0.181,-0.067,36.8,4,147.8,1023,2018,4,24,22,7,24.018,0.3997,-0.5926,-0.1429,-0.6844
-0.165,0.175,-0.063,35.6,-6.2,141.7,1023,2018,4,24,22,7,24.036,0.3813,-0.5931,-0.1603,-0.6906
-0.187,0.123,-0.048,34.3,-25.1,135,1023,2018,4,24,22,7,24.057,0.3619,-0.5943,-0.175,-0.6964
-0.188,0.073,-0.005,32.9,-47.5,127.8,1023,2018,4,24,22,7,24.076,0.3407,-0.5966,-0.1866,-0.7021
-0.167,-0.004,0.027,30.4,-68.7,120.2,1023,2018,4,24,22,7,24.093,0.3181,-0.5998,-0.1942,-0.7079
-0.128,-0.088,0.045,26.9,-81.1,111.9,1023,2018,4,24,22,7,24.116,0.2951,-0.6035,-0.198,-0.7137
-0.093,-0.136,0.039,23.4,-87.2,102.4,1023,2018,4,24,22,7,24.133,0.2727,-0.6072,-0.199,-0.7191
-0.047,-0.179,0.042,20.3,-88.7,92.4,0,2018,4,24,22,7,24.156,0.2511,-0.6107,-0.1982,-0.7242
0,-0.216,0.042,18.1,-86.7,82.5,0,2018,4,24,22,7,24.193,0.23,-0.6138,-0.1972,-0.7289
0.023,-0.251,0.043,16.5,-82.9,73,0,2018,4,24,22,7,24.216,0.2101,-0.6167,-0.1954,-0.7329
0.047,-0.27,0.045,14.5,-77.8,63.9,0,2018,4,24,22,7,24.218,0.1919,-0.6193,-0.1932,-0.7363
0.063,-0.286,0.039,13,-73,56.1,0,2018,4,24,22,7,24.238,0.1751,-0.6215,-0.1906,-0.7393
0.078,-0.295,0.031,12.5,-69.3,49.5,0,2018,4,24,22,7,24.275,0.1599,-0.6236,-0.1877,-0.7417
0.075,-0.312,0.038,12.9,-65.8,44.2,0,2018,4,24,22,7,24.298,0.1457,-0.6256,-0.1845,-0.7438
0.065,-0.328,0.059,13.5,-61.7,39.7,0,2018,4,24,22,7,24.304,0.1326,-0.6276,-0.1812,-0.7454
0.064,-0.336,0.066,14.1,-57.5,34.9,0,2018,4,24,22,7,24.317,0.1206,-0.6295,-0.1779,-0.7465
0.103,-0.345,0.065,15.9,-54.1,28.9,0,2018,4,24,22,7,24.335,0.1097,-0.6316,-0.1745,-0.7472
0.12,-0.357,0.077,18.8,-48.7,21.7,0,2018,4,24,22,7,24.358,0.1003,-0.6341,-0.1709,-0.7473
0.138,-0.376,0.11,21.1,-39.5,13.6,0,2018,4,24,22,7,24.376,0.0926,-0.6369,-0.1674,-0.7467
0.125,-0.379,0.149,22.9,-27.6,5.5,0,2018,4,24,22,7,24.4,0.0872,-0.64,-0.1643,-0.7454
0.102,-0.377,0.178,22.7,-14.7,-1.8,0,2018,4,24,22,7,24.417,0.0841,-0.6433,-0.1621,-0.7435
0.085,-0.369,0.198,21.7,-1.8,-8.9,0,2018,4,24,22,7,24.44,0.0835,-0.6464,-0.1607,-0.7411
0.057,-0.353,0.214,19.6,10,-15.7,0,2018,4,24,22,7,24.457,0.0853,-0.6493,-0.16,-0.7385
0.009,-0.321,0.238,15.8,19.1,-23.5,0,2018,4,24,22,7,24.479,0.0893,-0.6519,-0.1599,-0.7358
-0.015,-0.266,0.236,11.2,21.2,-32.3,0,2018,4,24,22,7,24.517,0.0951,-0.654,-0.1595,-0.7332
-0.1,-0.208,0.215,8.7,13.9,-40.3,0,2018,4,24,22,7,24.517,0.1018,-0.6559,-0.1577,-0.731
-0.229,-0.189,0.21,6.2,3.7,-45.2,0,2018,4,24,22,7,24.541,0.1082,-0.6579,-0.154,-0.7291
-0.304,-0.198,0.224,1.6,-2.7,-48.5,0,2018,4,24,22,7,24.558,0.1141,-0.6596,-0.1486,-0.7278
-0.325,-0.195,0.22,-3.4,-3.9,-51.4,0,2018,4,24,22,7,24.595,0.1201,-0.6608,-0.1423,-0.727
-0.279,-0.195,0.198,-7.8,-0.4,-55.3,0,2018,4,24,22,7,24.618,0.1268,-0.6614,-0.1357,-0.7266
-0.218,-0.194,0.175,-11.3,10.2,-60.5,0,2018,4,24,22,7,24.623,0.1349,-0.6614,-0.1294,-0.7263
-0.166,-0.182,0.171,-15.8,27.3,-66.8,0,2018,4,24,22,7,24.639,0.1454,-0.6606,-0.1241,-0.7259
-0.108,-0.159,0.162,-22,47.9,-73.9,1023,2018,4,24,22,7,24.678,0.159,-0.6587,-0.1204,-0.7254
-0.096,-0.099,0.14,-29.2,62.9,-81.6,1023,2018,4,24,22,7,24.678,0.1757,-0.6554,-0.1178,-0.7249
-0.136,-0.051,0.102,-39.7,77.7,-89.5,1023,2018,4,24,22,7,24.702,0.1956,-0.65,-0.1153,-0.7251
-0.191,0,0.024,-51.3,91.6,-96.1,1023,2018,4,24,22,7,24.719,0.2178,-0.6428,-0.1139,-0.7254
-0.268,0.095,-0.037,-59.9,92.6,-102.2,1023,2018,4,24,22,7,24.743,0.2414,-0.6342,-0.1129,-0.7257
-0.348,0.178,-0.084,-66.5,81.6,-107.4,1023,2018,4,24,22,7,24.758,0.2655,-0.6243,-0.1097,-0.7263
-0.385,0.23,-0.137,-70.8,62.6,-112.3,1023,2018,4,24,22,7,24.796,0.2885,-0.6141,-0.1037,-0.7271
-0.396,0.267,-0.169,-72.3,39.1,-116.3,1023,2018,4,24,22,7,24.819,0.3097,-0.6043,-0.0942,-0.7279
-0.365,0.297,-0.181,-73.3,14,-120,0,2018,4,24,22,7,24.824,0.3286,-0.5954,-0.081,-0.7285
-0.329,0.338,-0.2,-73.1,-13.5,-124.1,0,2018,4,24,22,7,24.839,0.345,-0.5877,-0.064,-0.7289
-0.273,0.38,-0.242,-71.2,-39.4,-126.7,0,2018,4,24,22,7,24.858,0.3589,-0.5813,-0.0433,-0.7289
-0.215,0.401,-0.289,-65.7,-61.6,-125.9,0,2018,4,24,22,7,24.881,0.3701,-0.5766,-0.0195,-0.728
-0.177,0.419,-0.315,-58.8,-72.5,-121,0,2018,4,24,22,7,24.9,0.379,-0.5733,0.0055,-0.7262
-0.151,0.429,-0.315,-51.7,-73.2,-111.9,0,2018,4,24,22,7,24.923,0.3863,-0.5709,0.0302,-0.7237
-0.132,0.431,-0.311,-45.2,-63.1,-99.2,0,2018,4,24,22,7,24.942,0.3924,-0.5688,0.0527,-0.7208
-0.136,0.434,-0.307,-40.2,-46.7,-83.5,0,2018,4,24,22,7,24.979,0.3979,-0.5662,0.0715,-0.7182
-0.138,0.455,-0.299,-36.1,-29.1,-66.3,0,2018,4,24,22,7,24.979,0.4031,-0.563,0.0862,-0.7162
-0.123,0.503,-0.305,-32,-18.4,-48.5,0,2018,4,24,22,7,25.003,0.4074,-0.5594,0.0971,-0.7152
-0.102,0.541,-0.314,-25.8,-17,-30,0,2018,4,24,22,7,25.021,0.4101,-0.5564,0.105,-0.7149
-0.091,0.547,-0.317,-18.3,-22.8,-10.7,0,2018,4,24,22,7,25.056,0.4103,-0.5547,0.111,-0.7152
-0.084,0.547,-0.298,-11,-30.7,9.6,0,2018,4,24,22,7,25.08,0.4074,-0.5548,0.1154,-0.7161
-0.084,0.536,-0.288,-4.2,-39.9,30.3,0,2018,4,24,22,7,25.083,0.4012,-0.5568,0.1183,-0.7175
-0.117,0.499,-0.27,0.7,-48.3,51.6,0,2018,4,24,22,7,25.101,0.3916,-0.5606,0.12,-0.7196
-0.137,0.482,-0.248,4.1,-54.2,72.2,0,2018,4,24,22,7,25.124,0.3787,-0.5657,0.1201,-0.7225
-0.177,0.408,-0.23,4.4,-50.9,92.8,0,2018,4,24,22,7,25.141,0.3629,-0.5716,0.1185,-0.7262
-0.219,0.234,-0.194,-0.2,-14.1,114.7,0,2018,4,24,22,7,25.164,0.3463,-0.576,0.1122,-0.7318
-0.328,0.192,-0.065,-12.2,36.9,134.2,0,2018,4,24,22,7,25.2,0.3314,-0.5768,0.0982,-0.74
-0.376,0.236,0.007,-27.6,52.2,143.9,0,2018,4,24,22,7,25.2,0.3177,-0.5736,0.079,-0.7508
-0.389,0.209,-0.016,-39.2,35.3,145,0,2018,4,24,22,7,25.224,0.3027,-0.5683,0.0604,-0.7626
-0.41,0.245,-0.104,-44.1,-8.4,142.8,0,2018,4,24,22,7,25.241,0.2844,-0.5632,0.0465,-0.7744
-0.523,0.255,-0.161,-45.3,-66.2,141.6,0,2018,4,24,22,7,25.279,0.261,-0.56,0.0399,-0.7852
-0.56,0.177,-0.137,-50.2,-119.2,140,0,2018,4,24,22,7,25.302,0.232,-0.5584,0.0413,-0.7953
-0.496,0.08,-0.11,-57.2,-156.4,139.3,0,2018,4,24,22,7,25.306,0.1984,-0.5573,0.0493,-0.8047
-0.413,0.038,-0.089,-63.6,-185.6,141,1023,2018,4,24,22,7,25.322,0.1611,-0.5555,0.0619,-0.8133
-0.321,0.009,-0.11,-70,-209.1,143.1,1023,2018,4,24,22,7,25.343,0.1202,-0.5525,0.0778,-0.821
-0.229,-0.005,-0.182,-74.5,-228.1,144.6,1023,2018,4,24,22,7,25.379,0.077,-0.5481,0.0966,-0.8272
-0.166,-0.004,-0.264,-76.2,-244.3,144.7,1023,2018,4,24,22,7,25.403,0.0322,-0.5421,0.1179,-0.8313
-0.091,-0.025,-0.342,-75.4,-262.1,143.7,1023,2018,4,24,22,7,25.407,-0.0139,-0.5348,0.1414,-0.8329
-0.037,-0.062,-0.394,-73.3,-276.1,141.1,1023,2018,4,24,22,7,25.425,-0.0616,-0.526,0.167,-0.8315
-0.017,-0.12,-0.421,-71.2,-281.3,137.1,1023,2018,4,24,22,7,25.448,-0.1095,-0.5158,0.1938,-0.8272
-0.022,-0.151,-0.422,-69.2,-273.8,132.5,1023,2018,4,24,22,7,25.463,-0.1562,-0.5041,0.2202,-0.8203
-0.033,-0.166,-0.432,-68.6,-253.9,128.5,1023,2018,4,24,22,7,25.482,-0.2005,-0.4915,0.2443,-0.8114
-0.05,-0.195,-0.449,-68.3,-224.4,125.7,1023,2018,4,24,22,7,25.502,-0.2417,-0.4783,0.2646,-0.8017
-0.068,-0.188,-0.48,-66.3,-189.4,123.6,0,2018,4,24,22,7,25.541,-0.2792,-0.4655,0.28,-0.7917
-0.064,-0.157,-0.509,-60.9,-157.6,120.6,0,2018,4,24,22,7,25.564,-0.3129,-0.4539,0.2905,-0.782
-0.06,-0.126,-0.515,-51.1,-137.4,115.4,0,2018,4,24,22,7,25.568,-0.3433,-0.444,0.2977,-0.7721
-0.052,-0.095,-0.498,-38.6,-132,106.6,0,2018,4,24,22,7,25.586,-0.3707,-0.4356,0.3043,-0.7616
-0.039,-0.081,-0.456,-25.6,-131.7,95.5,0,2018,4,24,22,7,25.608,-0.3957,-0.428,0.312,-0.7502
-0.005,-0.08,-0.418,-14.1,-133.2,83.5,0,2018,4,24,22,7,25.625,-0.4182,-0.421,0.3212,-0.738
0.021,-0.089,-0.386,-4.2,-131.6,72,0,2018,4,24,22,7,25.649,-0.4382,-0.4143,0.3318,-0.7253
0.045,-0.108,-0.368,3.8,-124,63.1,0,2018,4,24,22,7,25.684,-0.4558,-0.4083,0.3431,-0.7125
0.063,-0.111,-0.347,10.1,-110.5,58,0,2018,4,24,22,7,25.705,-0.4711,-0.4034,0.3539,-0.6999
0.071,-0.106,-0.328,16,-94.4,56.6,0,2018,4,24,22,7,25.71,-0.4843,-0.4,0.3634,-0.6879
0.077,-0.099,-0.316,22.2,-80.7,58,0,2018,4,24,22,7,25.725,-0.496,-0.3986,0.3714,-0.6761
0.08,-0.094,-0.285,29.6,-71.6,61.3,0,2018,4,24,22,7,25.744,-0.5065,-0.3989,0.3783,-0.6641
0.079,-0.094,-0.246,36.8,-68.6,66.2,0,2018,4,24,22,7,25.767,-0.5164,-0.4008,0.3849,-0.6514
0.058,-0.103,-0.194,43.7,-69.4,72.1,0,2018,4,24,22,7,25.785,-0.5263,-0.4038,0.3914,-0.6376
0.04,-0.115,-0.141,49.5,-71.9,78.6,0,2018,4,24,22,7,25.808,-0.5364,-0.4076,0.3982,-0.6224
0.023,-0.141,-0.105,54.5,-73.9,84.9,0,2018,4,24,22,7,25.825,-0.5467,-0.4121,0.4051,-0.6058
0.014,-0.18,-0.058,59.1,-74.5,90,0,2018,4,24,22,7,25.848,-0.5572,-0.4171,0.412,-0.5879
-0.004,-0.225,-0.01,62.1,-72,93.9,0,2018,4,24,22,7,25.866,-0.5675,-0.4227,0.4186,-0.5691
-0.027,-0.271,0.049,64,-66.7,95.4,0,2018,4,24,22,7,25.89,-0.5773,-0.4289,0.4247,-0.5498
-0.047,-0.313,0.1,64.2,-58.6,94.1,0,2018,4,24,22,7,25.905,-0.5861,-0.4357,0.4299,-0.5306
-0.073,-0.343,0.146,63.7,-50.8,89.4,0,2018,4,24,22,7,25.925,-0.5938,-0.4429,0.4344,-0.5121
-0.094,-0.376,0.184,62.1,-45.9,81.4,0,2018,4,24,22,7,25.947,-0.6003,-0.4499,0.4385,-0.4947
-0.13,-0.398,0.221,60.1,-43.3,70.6,0,2018,4,24,22,7,25.965,-0.6056,-0.4563,0.4427,-0.4784
-0.159,-0.425,0.25,56.6,-43.8,57.9,0,2018,4,24,22,7,25.99,-0.6098,-0.4615,0.4474,-0.4636
-0.169,-0.436,0.273,52.4,-44.9,43.8,0,2018,4,24,22,7,26.006,-0.6131,-0.4651,0.4526,-0.4503
-0.157,-0.454,0.276,47.4,-46.7,29.1,1023,2018,4,24,22,7,26.025,-0.6157,-0.4669,0.4586,-0.4387
-0.127,-0.469,0.283,41.7,-45.5,15,1023,2018,4,24,22,7,26.047,-0.6176,-0.467,0.4651,-0.429
-0.084,-0.479,0.306,35.4,-42.5,1.5,1023,2018,4,24,22,7,26.086,-0.6186,-0.4657,0.4719,-0.4214
-0.063,-0.485,0.329,28.7,-37.5,-10.3,1023,2018,4,24,22,7,26.108,-0.6189,-0.4633,0.4787,-0.416
-0.069,-0.483,0.353,21.2,-31,-20.8,1023,2018,4,24,22,7,26.113,-0.6184,-0.46,0.4851,-0.4128
-0.101,-0.48,0.354,13.3,-21.8,-30.2,1023,2018,4,24,22,7,26.128,-0.6172,-0.4562,0.491,-0.412
-0.119,-0.449,0.343,4.6,-10.9,-39.9,1023,2018,4,24,22,7,26.152,-0.6152,-0.4521,0.4959,-0.4137
-0.107,-0.393,0.329,-5,-2.9,-50.4,1023,2018,4,24,22,7,26.169,-0.6124,-0.4474,0.4998,-0.418
-0.082,-0.335,0.307,-14.8,2,-61.3,0,2018,4,24,22,7,26.184,-0.6092,-0.4418,0.5031,-0.4248
-0.072,-0.266,0.271,-24.3,-1.4,-71.1,0,2018,4,24,22,7,26.207,-0.6058,-0.4345,0.506,-0.4335
-0.086,-0.214,0.225,-32.7,-9.6,-78.8,0,2018,4,24,22,7,26.245,-0.603,-0.425,0.509,-0.4432
-0.137,-0.186,0.174,-39.4,-16.7,-83.3,0,2018,4,24,22,7,26.268,-0.6009,-0.4135,0.5123,-0.4532
-0.206,-0.173,0.151,-46.2,-19.7,-85.1,0,2018,4,24,22,7,26.272,-0.5993,-0.4005,0.5153,-0.4634
-0.249,-0.141,0.12,-53.6,-23.7,-86.4,0,2018,4,24,22,7,26.289,-0.5983,-0.3863,0.5177,-0.474
-0.237,-0.118,0.08,-59.4,-29.7,-88.7,0,2018,4,24,22,7,26.312,-0.5976,-0.3702,0.52,-0.4849
-0.204,-0.075,0.034,-62.5,-39.4,-93.2,0,2018,4,24,22,7,26.348,-0.5973,-0.3529,0.5226,-0.4953
-0.18,-0.043,0.015,-63.6,-52.5,-100.3,0,2018,4,24,22,7,26.37,-0.5972,-0.3337,0.5262,-0.5049
-0.158,-0.007,-0.021,-64,-64.8,-108.7,0,2018,4,24,22,7,26.375,-0.5969,-0.3126,0.5311,-0.5136
-0.135,0.015,-0.071,-63.1,-71.9,-115.8,0,2018,4,24,22,7,26.388,-0.596,-0.2898,0.5371,-0.5217
-0.113,0.036,-0.101,-61.5,-72.5,-120.5,0,2018,4,24,22,7,26.406,-0.5942,-0.2663,0.5437,-0.5293
-0.095,0.065,-0.136,-59.2,-66,-122.1,0,2018,4,24,22,7,26.43,-0.5917,-0.2422,0.5496,-0.5377
-0.084,0.098,-0.15,-57,-52.8,-120,0,2018,4,24,22,7,26.448,-0.5882,-0.2189,0.5541,-0.5467
-0.055,0.151,-0.183,-54.1,-37.2,-114.1,0,2018,4,24,22,7,26.472,-0.5839,-0.1976,0.557,-0.5564
-0.033,0.199,-0.209,-49.8,-22.3,-104.8,0,2018,4,24,22,7,26.49,-0.5792,-0.1788,0.5582,-0.5664
-0.021,0.25,-0.212,-45,-10.5,-92.6,0,2018,4,24,22,7,26.513,-0.5744,-0.1629,0.5579,-0.5762
-0.013,0.294,-0.204,-40.2,-1.5,-77.7,0,2018,4,24,22,7,26.531,-0.5701,-0.1497,0.5566,-0.5853
-0.002,0.338,-0.195,-35.5,1.9,-61.2,0,2018,4,24,22,7,26.554,-0.5666,-0.1392,0.5545,-0.5933
0.015,0.361,-0.206,-30,0.7,-43.2,0,2018,4,24,22,7,26.572,-0.5643,-0.131,0.5523,-0.5993
0.034,0.383,-0.217,-23.1,-3.1,-24.7,0,2018,4,24,22,7,26.589,-0.5634,-0.1249,0.5506,-0.6031
0.042,0.391,-0.222,-14.8,-7.8,-5,0,2018,4,24,22,7,26.607,-0.5638,-0.121,0.5496,-0.6043
0.038,0.386,-0.218,-7,-10.2,13,0,2018,4,24,22,7,26.63,-0.5655,-0.1194,0.5495,-0.6032
0.011,0.37,-0.204,0,-9.5,30.5,0,2018,4,24,22,7,26.648,-0.5684,-0.1201,0.5497,-0.6001
-0.033,0.35,-0.198,6.3,-7.8,47.2,0,2018,4,24,22,7,26.671,-0.5723,-0.1234,0.5502,-0.5953
-0.078,0.329,-0.189,11.9,-5.8,63,0,2018,4,24,22,7,26.713,-0.5773,-0.1291,0.5506,-0.5888
-0.115,0.305,-0.178,16.8,-4.7,77.3,1023,2018,4,24,22,7,26.714,-0.5833,-0.1368,0.5509,-0.5808
-0.129,0.289,-0.162,21.1,-6.4,89.1,1023,2018,4,24,22,7,26.749,-0.59,-0.1463,0.5514,-0.5713
-0.157,0.266,-0.151,24.6,-11.1,99.3,1023,2018,4,24,22,7,26.749,-0.5973,-0.1568,0.5521,-0.56
-0.234,0.24,-0.154,28,-17.7,109.7,1023,2018,4,24,22,7,26.771,-0.6053,-0.1679,0.5534,-0.5469
-0.344,0.214,-0.153,30.8,-26.1,121.9,1023,2018,4,24,22,7,26.791,-0.614,-0.1795,0.5551,-0.5315
-0.42,0.187,-0.142,32.5,-35.6,134.5,1023,2018,4,24,22,7,26.814,-0.6236,-0.1916,0.5572,-0.5135
-0.417,0.142,-0.119,33.5,-46.1,145.5,1023,2018,4,24,22,7,26.833,-0.6342,-0.2037,0.5596,-0.493
-0.365,0.07,-0.066,34.9,-55.1,152.7,1023,2018,4,24,22,7,26.854,-0.6453,-0.2155,0.5622,-0.47
-0.277,-0.003,-0.005,33.5,-59.3,155.1,1023,2018,4,24,22,7,26.871,-0.6563,-0.2276,0.5651,-0.4448
-0.149,-0.078,0.05,28,-57.8,151.7,1023,2018,4,24,22,7,26.895,-0.6671,-0.2386,0.5671,-0.4198
-0.013,-0.133,0.075,19.7,-54.4,142.5,0,2018,4,24,22,7,26.93,-0.6776,-0.2479,0.5676,-0.3963
0.067,-0.161,0.045,12.6,-55,130.1,0,2018,4,24,22,7,26.952,-0.6876,-0.2559,0.5672,-0.374
0.051,-0.181,-0.004,8.5,-58.4,115.8,0,2018,4,24,22,7,26.956,-0.6969,-0.2619,0.5665,-0.3531
-0.018,-0.184,-0.034,4.1,-67.1,100,0,2018,4,24,22,7,26.975,-0.7056,-0.2653,0.566,-0.3335
-0.066,-0.18,-0.056,-1.4,-83.7,83.1,0,2018,4,24,22,7,26.993,-0.7141,-0.2651,0.5662,-0.3147
-0.075,-0.196,-0.082,-6.1,-109.1,66.1,0,2018,4,24,22,7,27.016,-0.7229,-0.2601,0.5674,-0.296
-0.07,-0.21,-0.099,-9,-138.9,49.1,0,2018,4,24,22,7,27.035,-0.7321,-0.2496,0.5701,-0.2767
-0.061,-0.223,-0.126,-10,-169.3,33.8,0,2018,4,24,22,7,27.058,-0.7415,-0.2333,0.5743,-0.2564
-0.054,-0.237,-0.149,-9.8,-197.1,20.6,0,2018,4,24,22,7,27.076,-0.7508,-0.2115,0.5799,-0.2347
-0.009,-0.267,-0.185,-8,-212.6,10.1,0,2018,4,24,22,7,27.099,-0.7595,-0.1855,0.5862,-0.2121
0.039,-0.303,-0.211,-4.8,-212.7,3.3,0,2018,4,24,22,7,27.115,-0.7668,-0.1574,0.5926,-0.1894
0.076,-0.327,-0.207,-1.2,-194.7,-0.3,0,2018,4,24,22,7,27.133,-0.7722,-0.1299,0.5986,-0.1681
0.123,-0.336,-0.201,2.4,-161.7,-1.1,0,2018,4,24,22,7,27.156,-0.7758,-0.1057,0.6037,-0.1495
0.169,-0.334,-0.186,6.6,-119.5,1.3,0,2018,4,24,22,7,27.174,-0.7777,-0.0868,0.6078,-0.1346
0.187,-0.317,-0.159,11.4,-74.4,6.6,0,2018,4,24,22,7,27.212,-0.7782,-0.0744,0.6111,-0.1238
0.192,-0.271,-0.12,16.9,-38.9,12.8,0,2018,4,24,22,7,27.235,-0.7775,-0.0683,0.6141,-0.1164
0.181,-0.255,-0.065,22.8,-10.1,19.7,0,2018,4,24,22,7,27.24,-0.776,-0.0674,0.617,-0.1114
0.18,-0.229,-0.022,28.2,7.4,25,0,2018,4,24,22,7,27.257,-0.7736,-0.0703,0.6202,-0.1081
0.165,-0.221,0.034,34.2,16.3,28,0,2018,4,24,22,7,27.293,-0.7705,-0.0755,0.6239,-0.1054
0.14,-0.226,0.1,38.9,20.6,28.9,0,2018,4,24,22,7,27.315,-0.7668,-0.0818,0.6281,-0.1031
0.111,-0.241,0.169,41.1,24.6,28.3,0,2018,4,24,22,7,27.32,-0.7625,-0.0888,0.6327,-0.1012
0.089,-0.257,0.213,40.6,28.5,25.9,0,2018,4,24,22,7,27.334,-0.758,-0.096,0.6372,-0.0999
0.073,-0.267,0.235,39,33.1,22.5,0,2018,4,24,22,7,27.37,-0.7534,-0.1035,0.6415,-0.0995
0.037,-0.28,0.239,36.3,39.1,18.6,0,2018,4,24,22,7,27.394,-0.7489,-0.1112,0.6455,-0.1002
-0.005,-0.282,0.235,31.8,45.4,13.7,1023,2018,4,24,22,7,27.398,-0.7445,-0.1192,0.6488,-0.1022
-0.037,-0.277,0.217,26.8,49,7.1,1023,2018,4,24,22,7,27.415,-0.7403,-0.127,0.6515,-0.1056
-0.056,-0.26,0.205,22.2,48.2,-1.6,1023,2018,4,24,22,7,27.438,-0.7365,-0.1341,0.6537,-0.1103
-0.094,-0.252,0.194,18.4,42.4,-11.9,1023,2018,4,24,22,7,27.455,-0.7329,-0.1396,0.6555,-0.1159
-0.187,-0.263,0.198,15.9,36.1,-20.7,1023,2018,4,24,22,7,27.478,-0.7297,-0.143,0.6573,-0.1221
-0.26,-0.276,0.201,13.3,27.7,-27,1023,2018,4,24,22,7,27.495,-0.7266,-0.1446,0.6591,-0.1284
-0.326,-0.305,0.199,10.5,25.9,-31.1,1023,2018,4,24,22,7,27.518,-0.7239,-0.1448,0.6608,-0.1349
-0.352,-0.324,0.19,5.9,29.3,-34.9,1023,2018,4,24,22,7,27.555,-0.7215,-0.1446,0.662,-0.142
-0.339,-0.336,0.173,1,37.3,-39.4,1023,2018,4,24,22,7,27.578,-0.7193,-0.1446,0.6625,-0.1504
-0.279,-0.327,0.153,-4.5,49,-46.2,1023,2018,4,24,22,7,27.582,-0.7172,-0.145,0.6622,-0.1609
-0.157,-0.308,0.125,-10.2,63.7,-55.5,0,2018,4,24,22,7,27.598,-0.7152,-0.146,0.6609,-0.174
-0.037,-0.277,0.103,-16.8,79.7,-66.9,0,2018,4,24,22,7,27.617,-0.713,-0.1474,0.6585,-0.1903
0.03,-0.24,0.062,-23.3,92.7,-77.7,0,2018,4,24,22,7,27.638,-0.7105,-0.1492,0.6548,-0.2098
-0.004,-0.183,0.026,-29.8,100.4,-86.4,0,2018,4,24,22,7,27.656,-0.7078,-0.1508,0.6499,-0.2319
-0.094,-0.122,-0.006,-37.4,98.8,-91.8,0,2018,4,24,22,7,27.678,-0.7049,-0.1511,0.644,-0.2557
-0.197,-0.072,-0.054,-44.8,86.5,-94.6,0,2018,4,24,22,7,27.697,-0.7023,-0.1499,0.6374,-0.2788
-0.264,-0.038,-0.124,-50.6,66.1,-95.8,0,2018,4,24,22,7,27.717,-0.7002,-0.1465,0.631,-0.2998
-0.264,-0.036,-0.187,-53.9,45.6,-97.2,0,2018,4,24,22,7,27.755,-0.6988,-0.1402,0.6248,-0.3186
-0.217,-0.029,-0.224,-54.9,27.6,-100.7,0,2018,4,24,22,7,27.778,-0.6982,-0.1307,0.6184,-0.3358
-0.167,-0.015,-0.235,-53.9,14.1,-105.2,0,2018,4,24,22,7,27.783,-0.6974,-0.1188,0.6128,-0.3517
-0.143,0.004,-0.237,-53,3.6,-111.3,0,2018,4,24,22,7,27.798,-0.6962,-0.1049,0.6079,-0.3669
-0.125,0.034,-0.263,-51.4,-4.3,-117.1,0,2018,4,24,22,7,27.816,-0.6942,-0.0893,0.6036,-0.3816
-0.114,0.062,-0.304,-48.3,-10.7,-121.6,0,2018,4,24,22,7,27.84,-0.6914,-0.0724,0.5998,-0.3959
-0.086,0.096,-0.347,-43.1,-13.6,-123.4,0,2018,4,24,22,7,27.873,-0.6877,-0.0548,0.5966,-0.4099
-0.062,0.123,-0.381,-36.5,-9.7,-121.6,0,2018,4,24,22,7,27.896,-0.6829,-0.0378,0.5937,-0.4237
-0.045,0.154,-0.393,-29.6,-0.8,-117,0,2018,4,24,22,7,27.901,-0.6774,-0.0223,0.5908,-0.4375
-0.035,0.184,-0.388,-22.8,12.1,-109.8,0,2018,4,24,22,7,27.937,-0.6713,-0.0092,0.5876,-0.4515
-0.035,0.236,-0.377,-16.2,24.2,-100.5,0,2018,4,24,22,7,27.96,-0.6648,0.0008,0.5839,-0.4657
-0.025,0.278,-0.369,-10.3,33,-88.5,0,2018,4,24,22,7,27.965,-0.6584,0.0081,0.5799,-0.4795
-0.012,0.307,-0.354,-4.4,39.9,-73.5,0,2018,4,24,22,7,27.984,-0.6523,0.0127,0.5758,-0.4925
0,0.328,-0.346,0.9,44.1,-56.3,0,2018,4,24,22,7,28,-0.6469,0.0145,0.5718,-0.5041
0.012,0.342,-0.339,6.6,45.6,-37.7,0,2018,4,24,22,7,28.021,-0.6425,0.0137,0.5681,-0.5139
0.022,0.365,-0.341,13.1,44.4,-18.9,0,2018,4,24,22,7,28.038,-0.6391,0.0105,0.5651,-0.5215
0.02,0.383,-0.332,19.9,40.5,-0.3,1023,2018,4,24,22,7,28.061,-0.6367,0.0051,0.563,-0.5267
0.011,0.386,-0.313,27,35.5,17.4,1023,2018,4,24,22,7,28.081,-0.6352,-0.0021,0.5622,-0.5295
-0.006,0.385,-0.292,34.2,29.8,34.2,1023,2018,4,24,22,7,28.118,-0.6345,-0.0111,0.5625,-0.5297
-0.014,0.376,-0.275,41.8,24.6,50.5,1023,2018,4,24,22,7,28.142,-0.6347,-0.0219,0.5641,-0.5275
-0.025,0.362,-0.245,50.3,21.6,66.7,1023,2018,4,24,22,7,28.145,-0.6354,-0.0345,0.5669,-0.523
-0.066,0.338,-0.173,57.3,23.8,83.5,1023,2018,4,24,22,7,28.163,-0.6367,-0.0493,0.5703,-0.5165
-0.175,0.303,-0.123,61.8,31.8,102.4,1023,2018,4,24,22,7,28.2,-0.6387,-0.067,0.5736,-0.5083
-0.34,0.27,-0.083,66.6,44.4,123.8,1023,2018,4,24,22,7,28.222,-0.6417,-0.0884,0.5759,-0.4985
-0.474,0.228,-0.017,71.1,60.6,144.6,1023,2018,4,24,22,7,28.225,-0.6454,-0.1138,0.5768,-0.4874
-0.521,0.179,0.073,73.5,75.5,160.5,1023,2018,4,24,22,7,28.242,-0.6495,-0.1431,0.5758,-0.4754
-0.465,0.135,0.175,71.9,85.8,166.8,0,2018,4,24,22,7,28.265,-0.6533,-0.1749,0.5729,-0.4628
-0.305,0.098,0.268,65,86.9,163.1,0,2018,4,24,22,7,28.283,-0.6568,-0.2068,0.5682,-0.4503
-0.127,0.058,0.324,55,76.9,149.6,0,2018,4,24,22,7,28.306,-0.6598,-0.2364,0.5627,-0.4381
0.001,0.039,0.303,43.3,57.5,128.3,0,2018,4,24,22,7,28.323,-0.6626,-0.2615,0.5572,-0.4266
0.047,0.041,0.237,35.3,33.3,106.3,0,2018,4,24,22,7,28.36,-0.6652,-0.2809,0.5529,-0.4156
0.004,0.027,0.173,28.4,7.9,86.4,0,2018,4,24,22,7,28.382,-0.6681,-0.2946,0.5503,-0.4048
-0.046,0.011,0.14,19.6,-15.5,69.4,0,2018,4,24,22,7,28.387,-0.6721,-0.3031,0.5484,-0.3943
-0.073,-0.003,0.105,10.2,-46.3,54.6,0,2018,4,24,22,7,28.403,-0.6771,-0.3062,0.5483,-0.3834
-0.094,-0.039,0.085,2.6,-79.9,42.9,0,2018,4,24,22,7,28.426,-0.6833,-0.3034,0.5503,-0.3714
-0.079,-0.087,0.047,-1.9,-114.2,33.5,0,2018,4,24,22,7,28.444,-0.6909,-0.2949,0.5545,-0.3577
-0.054,-0.152,0.029,-4.4,-143.2,26.4,0,2018,4,24,22,7,28.465,-0.6994,-0.2812,0.5609,-0.3421
-0.015,-0.229,0.024,-6.7,-160.1,22,0,2018,4,24,22,7,28.486,-0.7086,-0.2643,0.568,-0.3245
0.04,-0.304,0.008,-8.1,-161,21.1,0,2018,4,24,22,7,28.5,-0.7177,-0.2458,0.575,-0.306
0.086,-0.366,-0.023,-7.5,-144.1,22.8,0,2018,4,24,22,7,28.523,-0.726,-0.2283,0.5811,-0.2881
0.117,-0.406,-0.051,-4.9,-110.5,25.6,0,2018,4,24,22,7,28.559,-0.7328,-0.2142,0.5856,-0.2722
0.125,-0.44,-0.072,-1,-63.1,29.6,0,2018,4,24,22,7,28.582,-0.7375,-0.2058,0.5882,-0.2599
0.118,-0.458,-0.083,3.5,-8.3,33.3,0,2018,4,24,22,7,28.586,-0.7401,-0.2046,0.5888,-0.2522
0.081,-0.477,-0.084,8.2,49.6,35.8,0,2018,4,24,22,7,28.602,-0.7401,-0.2114,0.5874,-0.2498
0.051,-0.479,-0.059,11.8,95.6,35.7,0,2018,4,24,22,7,28.625,-0.7378,-0.2252,0.584,-0.2524
0.022,-0.486,-0.029,13.8,132.6,31.8,0,2018,4,24,22,7,28.643,-0.7332,-0.2441,0.5791,-0.2593
0.01,-0.466,0.005,13.8,153.4,23.6,0,2018,4,24,22,7,28.667,-0.7266,-0.266,0.573,-0.2697
0.016,-0.443,0.034,13.5,162,11.7,0,2018,4,24,22,7,28.684,-0.7184,-0.2885,0.5662,-0.2826
0.013,-0.423,0.055,12.5,162.1,-2.1,0,2018,4,24,22,7,28.704,-0.7089,-0.3099,0.5594,-0.2973
0.008,-0.401,0.075,10.4,158.5,-16.4,0,2018,4,24,22,7,28.722,-0.6982,-0.3293,0.5528,-0.3135
0.003,-0.39,0.084,7.7,154.4,-29.9,0,2018,4,24,22,7,28.759,-0.6868,-0.3464,0.5465,-0.3308
0,-0.386,0.089,4.1,153.3,-42,1023,2018,4,24,22,7,28.78,-0.6746,-0.3616,0.5403,-0.3493
0.002,-0.361,0.095,-0.6,155.8,-52.1,1023,2018,4,24,22,7,28.785,-0.6615,-0.3753,0.5339,-0.3693
0.003,-0.326,0.099,-6.2,158.5,-60.8,1023,2018,4,24,22,7,28.822,-0.6476,-0.3878,0.5268,-0.3906
-0.008,-0.285,0.09,-11.9,159.3,-67.6,1023,2018,4,24,22,7,28.845,-0.633,-0.399,0.519,-0.413
-0.056,-0.245,0.065,-15.6,156.2,-73.1,1023,2018,4,24,22,7,28.85,-0.6178,-0.4089,0.5108,-0.4359
-0.192,-0.219,0.045,-19.1,151.3,-76,1023,2018,4,24,22,7,28.866,-0.6024,-0.4173,0.5023,-0.4587
-0.314,-0.184,0.03,-25.2,146.5,-75.9,1023,2018,4,24,22,7,28.887,-0.5867,-0.4239,0.4939,-0.4816
-0.347,-0.151,0.001,-33.3,139,-74.1,1023,2018,4,24,22,7,28.925,-0.5714,-0.429,0.4851,-0.504
-0.294,-0.127,-0.05,-41.7,129.2,-71.8,1023,2018,4,24,22,7,28.948,-0.5572,-0.4325,0.4756,-0.5254
-0.218,-0.104,-0.134,-48.7,117.3,-69.6,0,2018,4,24,22,7,28.952,-0.5448,-0.4343,0.4653,-0.5458
-0.162,-0.072,-0.215,-53.5,102.9,-68,0,2018,4,24,22,7,28.971,-0.5339,-0.4341,0.455,-0.565
-0.141,-0.055,-0.286,-56.4,87.3,-67.5,0,2018,4,24,22,7,28.987,-0.5243,-0.432,0.4456,-0.5829
-0.134,-0.026,-0.345,-58,69.9,-67.5,0,2018,4,24,22,7,29.021,-0.5159,-0.428,0.4373,-0.5994
-0.127,-0.011,-0.389,-58,51.2,-67.5,0,2018,4,24,22,7,29.044,-0.5086,-0.4221,0.4308,-0.6143
-0.121,0,-0.426,-56.6,34,-67.2,0,2018,4,24,22,7,29.049,-0.5025,-0.4146,0.4261,-0.6276
-0.113,0.008,-0.454,-53.6,19,-65.5,0,2018,4,24,22,7,29.067,-0.4974,-0.4058,0.4232,-0.6393
-0.104,0.017,-0.481,-50.2,5.4,-62,0,2018,4,24,22,7,29.105,-0.4932,-0.3963,0.4218,-0.6493
-0.103,0.011,-0.515,-46.1,-3.5,-55.5,0,2018,4,24,22,7,29.105,-0.49,-0.3865,0.4217,-0.6576
-0.106,0.015,-0.56,-40.1,-9.1,-47,0,2018,4,24,22,7,29.128,-0.4877,-0.3772,0.4222,-0.6644
-0.11,0.012,-0.606,-32.1,-11.7,-37.3,0,2018,4,24,22,7,29.146,-0.4862,-0.369,0.4232,-0.6695
-0.09,-0.002,-0.624,-23.4,-8.1,-27.3,0,2018,4,24,22,7,29.169,-0.4851,-0.3624,0.4241,-0.6732
-0.079,-0.016,-0.639,-12.4,0.2,-17.8,0,2018,4,24,22,7,29.206,-0.4841,-0.3583,0.4245,-0.6759
-0.071,-0.033,-0.636,-2.2,16.1,-9.8,0,2018,4,24,22,7,29.206,-0.4825,-0.3572,0.4238,-0.6781
-0.054,-0.06,-0.637,7.4,38.5,-3.7,0,2018,4,24,22,7,29.228,-0.4798,-0.3594,0.4212,-0.6805
-0.046,-0.072,-0.632,17.4,63.8,0.1,0,2018,4,24,22,7,29.246,-0.4754,-0.3651,0.4161,-0.6836
-0.051,-0.085,-0.616,27.1,90.2,1.3,0,2018,4,24,22,7,29.269,-0.4689,-0.3743,0.4086,-0.6877
-0.069,-0.09,-0.595,36.5,112.5,-0.3,0,2018,4,24,22,7,29.288,-0.4599,-0.3865,0.3988,-0.6927
-0.103,-0.11,-0.563,44.8,131.6,-4.4,0,2018,4,24,22,7,29.309,-0.4484,-0.4011,0.3874,-0.6985
-0.115,-0.128,-0.523,51.2,148.6,-11,0,2018,4,24,22,7,29.327,-0.4341,-0.4173,0.3744,-0.705
-0.117,-0.136,-0.497,55.7,163.5,-19,0,2018,4,24,22,7,29.349,-0.4172,-0.4346,0.3601,-0.7122
-0.111,-0.142,-0.473,58.8,176.6,-27.7,0,2018,4,24,22,7,29.368,-0.3975,-0.4525,0.3447,-0.7199
-0.107,-0.135,-0.442,60.7,188,-36.4,0,2018,4,24,22,7,29.391,-0.3751,-0.4705,0.3283,-0.728
-0.112,-0.128,-0.411,61.2,196.5,-44.6,0,2018,4,24,22,7,29.407,-0.3503,-0.4883,0.3109,-0.7362
-0.11,-0.112,-0.379,60.9,201.3,-51.4,0,2018,4,24,22,7,29.443,-0.3235,-0.5054,0.2929,-0.7442
-0.104,-0.093,-0.34,59.3,201.5,-56.5,0,2018,4,24,22,7,29.466,-0.2953,-0.5215,0.2747,-0.7518
-0.097,-0.08,-0.304,57.1,198.5,-60.3,1023,2018,4,24,22,7,29.471,-0.2664,-0.5363,0.2566,-0.7586
-0.108,-0.073,-0.258,54.4,193.2,-62.8,1023,2018,4,24,22,7,29.491,-0.2372,-0.5497,0.2388,-0.7645
-0.156,-0.078,-0.207,49.2,190.5,-64.4,1023,2018,4,24,22,7,29.508,-0.208,-0.5615,0.2214,-0.7696
-0.159,-0.068,-0.182,41.9,188.8,-66.4,1023,2018,4,24,22,7,29.531,-0.1787,-0.5717,0.2038,-0.7743
-0.155,-0.058,-0.184,34.7,187.1,-68.4,1023,2018,4,24,22,7,29.549,-0.1493,-0.5799,0.1862,-0.7788
-0.165,-0.05,-0.186,27.7,185.2,-70.3,1023,2018,4,24,22,7,29.572,-0.1199,-0.5864,0.1686,-0.7831
-0.225,-0.054,-0.182,20.5,183.7,-72,1023,2018,4,24,22,7,29.591,-0.0902,-0.5911,0.1511,-0.787
-0.294,-0.018,-0.192,13.7,177.8,-74.6,1023,2018,4,24,22,7,29.613,-0.0607,-0.594,0.1341,-0.7908
-0.335,0.011,-0.208,8.5,164.3,-78.5,1023,2018,4,24,22,7,29.631,-0.032,-0.5953,0.1185,-0.794
-0.331,0.03,-0.188,4.1,148.2,-84.3,1023,2018,4,24,22,7,29.653,-0.0045,-0.5951,0.1052,-0.7967
-0.239,0.052,-0.163,0,128.1,-93.5,0,2018,4,24,22,7,29.687,0.0217,-0.5935,0.0951,-0.7988
-0.139,0.073,-0.167,-2.3,106.9,-104.9,0,2018,4,24,22,7,29.711,0.0476,-0.591,0.089,-0.8002
-0.105,0.09,-0.19,-2.3,88.2,-116.6,0,2018,4,24,22,7,29.715,0.0731,-0.588,0.0869,-0.8008
-0.153,0.11,-0.218,-0.2,74.1,-125.8,0,2018,4,24,22,7,29.731,0.0983,-0.5847,0.0882,-0.8003
-0.204,0.13,-0.226,1.3,67.4,-130,0,2018,4,24,22,7,29.767,0.1233,-0.5814,0.0915,-0.7989
-0.222,0.163,-0.222,2.7,68.2,-129.1,0,2018,4,24,22,7,29.788,0.1483,-0.578,0.0952,-0.7967
-0.206,0.192,-0.213,3.8,73.8,-124.6,0,2018,4,24,22,7,29.792,0.1731,-0.5743,0.0981,-0.794
-0.162,0.245,-0.219,4.7,78.7,-118,0,2018,4,24,22,7,29.828,0.1976,-0.5703,0.0995,-0.791
-0.155,0.3,-0.215,7,78.8,-110.5,0,2018,4,24,22,7,29.851,0.2213,-0.5662,0.0997,-0.7876
-0.167,0.359,-0.219,9.9,73.7,-101,0,2018,4,24,22,7,29.856,0.2435,-0.5625,0.0992,-0.7838
-0.165,0.405,-0.199,14.2,64.4,-89,0,2018,4,24,22,7,29.874,0.2634,-0.5594,0.0986,-0.7796
-0.117,0.442,-0.174,19.7,53.3,-75.1,0,2018,4,24,22,7,29.892,0.2805,-0.5576,0.0978,-0.775
-0.048,0.457,-0.152,27.4,41.9,-60.2,0,2018,4,24,22,7,29.916,0.2946,-0.5573,0.0968,-0.7702
0.004,0.445,-0.116,35.9,36.1,-44,0,2018,4,24,22,7,29.932,0.3058,-0.5587,0.0951,-0.765
0.044,0.436,-0.091,43.5,39.3,-26.6,0,2018,4,24,22,7,29.968,0.3147,-0.5614,0.0914,-0.7598
0.068,0.434,-0.077,50.6,48.7,-8.2,0,2018,4,24,22,7,29.991,0.322,-0.5649,0.0846,-0.7549
0.08,0.433,-0.068,56.8,60.1,10.8,0,2018,4,24,22,7,29.996,0.3279,-0.5689,0.0742,-0.7504
0.088,0.422,-0.052,62.6,70.2,29.6,0,2018,4,24,22,7,30.015,0.3325,-0.5732,0.0601,-0.7464
0.086,0.416,-0.037,67.1,75.7,47.7,0,2018,4,24,22,7,30.033,0.3353,-0.5777,0.0427,-0.7428
0.074,0.404,-0.027,70.8,76.2,65.6,0,2018,4,24,22,7,30.052,0.3361,-0.5825,0.023,-0.7396
0.056,0.383,-0.012,73.2,71.7,82.1,0,2018,4,24,22,7,30.074,0.3342,-0.5876,0.0016,-0.7367
0.031,0.341,-0.005,74.9,66.6,97.7,0,2018,4,24,22,7,30.092,0.3296,-0.593,-0.0207,-0.7342
0,0.29,0.012,75.4,62.6,112.1,0,2018,4,24,22,7,30.115,0.3224,-0.5984,-0.0442,-0.7321
-0.023,0.239,0.044,75.4,59.3,124.7,0,2018,4,24,22,7,30.132,0.3128,-0.6034,-0.0687,-0.7301
-0.056,0.18,0.079,73.7,56.5,134.4,0,2018,4,24,22,7,30.17,0.3013,-0.608,-0.0938,-0.7284
-0.074,0.119,0.118,70.5,54.4,141.1,0,2018,4,24,22,7,30.193,0.2883,-0.6117,-0.1193,-0.7268
-0.086,0.055,0.144,66.3,51.3,144.4,0,2018,4,24,22,7,30.198,0.2743,-0.6144,-0.1447,-0.7254
-0.093,-0.014,0.174,60.7,48.5,144.4,1023,2018,4,24,22,7,30.214,0.2599,-0.6151,-0.1693,-0.7248
-0.097,-0.078,0.202,54.3,44.6,140.4,1023,2018,4,24,22,7,30.232,0.2454,-0.6151,-0.1926,-0.724
-0.115,-0.139,0.231,46.8,40.1,132.8,1023,2018,4,24,22,7,30.255,0.2309,-0.6148,-0.2148,-0.7227
-0.122,-0.209,0.24,38.5,33,121.3,1023,2018,4,24,22,7,30.274,0.2171,-0.6138,-0.2347,-0.7217
-0.126,-0.279,0.252,29.7,25.4,105.4,1023,2018,4,24,22,7,30.297,0.2045,-0.6121,-0.2517,-0.721
-0.106,-0.345,0.248,21.2,16.3,85,1023,2018,4,24,22,7,30.316,0.1936,-0.6103,-0.2654,-0.7207
-0.076,-0.39,0.216,14.3,6.5,59.8,1023,2018,4,24,22,7,30.338,0.1849,-0.6087,-0.275,-0.7207
-0.049,-0.408,0.177,9.5,-2.4,32.2,1023,2018,4,24,22,7,30.375,0.1788,-0.6079,-0.2805,-0.7209
-0.061,-0.385,0.148,7.4,-13.4,5.8,1023,2018,4,24,22,7,30.375,0.175,-0.6084,-0.2818,-0.7209
-0.163,-0.391,0.136,5.8,-23.1,-15.8,0,2018,4,24,22,7,30.399,0.1732,-0.6101,-0.2791,-0.7209
-0.23,-0.412,0.119,3.2,-29.2,-31.9,0,2018,4,24,22,7,30.414,0.1732,-0.6127,-0.2732,-0.721
-0.269,-0.417,0.105,0.2,-29.8,-42.8,0,2018,4,24,22,7,30.451,0.1747,-0.6156,-0.2654,-0.721
-0.27,-0.421,0.073,-2.3,-26.7,-48.8,0,2018,4,24,22,7,30.474,0.1775,-0.6184,-0.2568,-0.721
-0.236,-0.422,0.064,-5.1,-17.3,-51.6,0,2018,4,24,22,7,30.478,0.1817,-0.6209,-0.2484,-0.7209
-0.179,-0.407,0.074,-8,-3.9,-53.6,0,2018,4,24,22,7,30.497,0.1874,-0.6226,-0.2412,-0.7203
-0.08,-0.366,0.105,-13,10,-56.6,0,2018,4,24,22,7,30.515,0.1952,-0.6234,-0.2353,-0.7195
0.026,-0.31,0.082,-17.5,18.1,-61.9,0,2018,4,24,22,7,30.539,0.2049,-0.6234,-0.2301,-0.7185
0.068,-0.29,0.024,-19.7,26.8,-67.8,0,2018,4,24,22,7,30.555,0.2162,-0.6228,-0.2252,-0.7173
0.014,-0.292,0,-22.3,40,-73.5,0,2018,4,24,22,7,30.579,0.2295,-0.6216,-0.2208,-0.7155
-0.108,-0.266,0.01,-28.4,57.4,-78.6,0,2018,4,24,22,7,30.597,0.2453,-0.6194,-0.2176,-0.7132
-0.205,-0.224,-0.009,-36.7,74,-83.3,0,2018,4,24,22,7,30.618,0.2638,-0.6154,-0.2156,-0.7107
-0.269,-0.169,-0.048,-44.7,84.3,-88.5,0,2018,4,24,22,7,30.635,0.2845,-0.6097,-0.2144,-0.7079
-0.307,-0.111,-0.082,-50.9,82.4,-95.3,0,2018,4,24,22,7,30.658,0.3068,-0.6034,-0.2123,-0.7046
-0.309,-0.07,-0.101,-55,70.4,-104.3,0,2018,4,24,22,7,30.677,0.3291,-0.5972,-0.2081,-0.7011
-0.295,-0.027,-0.126,-57.5,53.4,-114.5,0,2018,4,24,22,7,30.695,0.3507,-0.5916,-0.2011,-0.6974
-0.279,0.004,-0.15,-58.3,35.3,-125.8,0,2018,4,24,22,7,30.719,0.3718,-0.5861,-0.1904,-0.6941
-0.272,0.028,-0.165,-59.3,19.1,-136.4,0,2018,4,24,22,7,30.754,0.3922,-0.5814,-0.1763,-0.6905
-0.271,0.031,-0.179,-59.7,7.1,-145.8,0,2018,4,24,22,7,30.777,0.4122,-0.5776,-0.1593,-0.6862
-0.274,0.056,-0.207,-60.1,-1,-153.5,0,2018,4,24,22,7,30.782,0.4319,-0.5741,-0.1401,-0.6811
-0.257,0.096,-0.241,-59.8,-7.1,-159.2,0,2018,4,24,22,7,30.798,0.4514,-0.5709,-0.1193,-0.6752
-0.232,0.136,-0.274,-57.8,-8.7,-162.4,0,2018,4,24,22,7,30.819,0.4706,-0.5677,-0.0975,-0.6683
-0.217,0.166,-0.275,-55,-4.8,-161.9,0,2018,4,24,22,7,30.838,0.4895,-0.5642,-0.0759,-0.6603
-0.192,0.222,-0.287,-53.2,3.5,-157.7,0,2018,4,24,22,7,30.857,0.5084,-0.5599,-0.0554,-0.6517
-0.147,0.282,-0.296,-50.9,11.2,-149.6,1023,2018,4,24,22,7,30.88,0.527,-0.5546,-0.0366,-0.6428
-0.101,0.339,-0.307,-47.6,15.9,-137.2,1023,2018,4,24,22,7,30.9,0.5445,-0.5485,-0.0198,-0.6341
-0.069,0.367,-0.309,-43.5,20.2,-121.1,1023,2018,4,24,22,7,30.917,0.5605,-0.5419,-0.0051,-0.626
-0.067,0.371,-0.298,-39.8,22.9,-103.9,1023,2018,4,24,22,7,30.937,0.5748,-0.5352,0.0071,-0.6188
-0.088,0.391,-0.299,-36.3,24.6,-85.3,1023,2018,4,24,22,7,30.975,0.587,-0.5285,0.0172,-0.6128
-0.106,0.417,-0.299,-31.9,25.7,-65.2,1023,2018,4,24,22,7,30.996,0.5972,-0.522,0.0248,-0.6083
-0.143,0.437,-0.292,-27.2,26.3,-45.7,1023,2018,4,24,22,7,31,0.6053,-0.5159,0.0301,-0.6054
-0.159,0.455,-0.261,-23.4,24.9,-28,1023,2018,4,24,22,7,31.034,0.6113,-0.5102,0.0333,-0.6039
-0.212,0.488,-0.284,-18.9,17.6,-9.3,1023,2018,4,24,22,7,31.056,0.615,-0.5055,0.035,-0.6039
-0.313,0.507,-0.321,-10.4,6,14.6,1023,2018,4,24,22,7,31.06,0.6157,-0.5028,0.0351,-0.6056
-0.33,0.517,-0.281,-2,-6.7,42.3,0,2018,4,24,22,7,31.097,0.6125,-0.5024,0.0332,-0.6092
-0.307,0.506,-0.22,6,-21.6,69.2,0,2018,4,24,22,7,31.097,0.6052,-0.5044,0.0296,-0.615
-0.286,0.461,-0.166,14.7,-35.8,94.8,0,2018,4,24,22,7,31.118,0.5937,-0.509,0.0243,-0.6226
-0.254,0.425,-0.131,21.9,-44.4,116.9,0,2018,4,24,22,7,31.157,0.5784,-0.5157,0.0173,-0.6317
-0.167,0.425,-0.134,28.6,-47.5,134.1,0,2018,4,24,22,7,31.178,0.5602,-0.5234,0.0085,-0.6418
-0.117,0.405,-0.156,36.9,-41.8,145.7,0,2018,4,24,22,7,31.182,0.5402,-0.5316,-0.0024,-0.6523
-0.145,0.374,-0.134,44.3,-30.5,152.6,0,2018,4,24,22,7,31.216,0.5196,-0.5394,-0.016,-0.6624
-0.2,0.364,-0.093,47.8,-19.8,158.3,0,2018,4,24,22,7,31.238,0.4989,-0.5463,-0.0321,-0.6719
-0.257,0.385,-0.076,48.7,-17.5,165.3,0,2018,4,24,22,7,31.242,0.4778,-0.5523,-0.0497,-0.6812
-0.327,0.432,-0.057,45.8,-30.1,174.4,0,2018,4,24,22,7,31.262,0.4547,-0.5581,-0.0674,-0.6907
-0.345,0.523,-0.117,38.7,-71.6,181,0,2018,4,24,22,7,31.282,0.4276,-0.5647,-0.082,-0.7009
-0.352,0.378,-0.113,29.6,-132,182.5,0,2018,4,24,22,7,31.318,0.3944,-0.5735,-0.0899,-0.7122
-0.356,0.285,-0.115,20.8,-190.8,181.3,0,2018,4,24,22,7,31.318,0.3546,-0.5846,-0.0894,-0.7241
-0.349,0.065,-0.105,7.6,-231.1,178.1,0,2018,4,24,22,7,31.341,0.3093,-0.5961,-0.0814,-0.7364
-0.287,-0.119,-0.084,-2.3,-243.4,171.1,0,2018,4,24,22,7,31.361,0.2613,-0.6065,-0.0686,-0.7476
-0.254,-0.288,-0.022,-11.1,-223.6,168.1,0,2018,4,24,22,7,31.38,0.214,-0.6136,-0.0554,-0.7579
-0.19,-0.351,0.018,-17,-190.2,165.5,0,2018,4,24,22,7,31.401,0.1698,-0.6172,-0.0454,-0.7668
-0.137,-0.281,-0.009,-18,-164.8,160.4,0,2018,4,24,22,7,31.439,0.1289,-0.6182,-0.0388,-0.7743
-0.098,-0.301,-0.075,-15.5,-141.1,151.6,0,2018,4,24,22,7,31.462,0.0912,-0.6178,-0.0346,-0.7801
-0.051,-0.424,-0.092,-11.9,-112,139.2,0,2018,4,24,22,7,31.467,0.0574,-0.6168,-0.0331,-0.7843
-0.006,-0.481,-0.122,-4.9,-85.1,123.6,0,2018,4,24,22,7,31.485,0.0285,-0.6156,-0.0339,-0.7867
0.037,-0.531,-0.148,1.8,-59.2,107.5,0,2018,4,24,22,7,31.503,0.005,-0.6149,-0.0364,-0.7877
0.084,-0.486,-0.156,9.9,-38.6,93.6,0,2018,4,24,22,7,31.525,-0.0137,-0.6151,-0.0405,-0.7872
0.094,-0.452,-0.164,15.4,-18.9,80.8,0,2018,4,24,22,7,31.541,-0.0285,-0.6161,-0.0457,-0.7857
0.114,-0.425,-0.184,19.1,0.8,69.2,0,2018,4,24,22,7,31.56,-0.0394,-0.6178,-0.0524,-0.7835
0.12,-0.451,-0.197,23.7,18.5,58,1023,2018,4,24,22,7,31.582,-0.0467,-0.6202,-0.0603,-0.7807
0.109,-0.502,-0.158,27.4,34.9,45.3,1023,2018,4,24,22,7,31.619,-0.0507,-0.6233,-0.0692,-0.7772
0.066,-0.495,-0.081,28.7,43.2,31,1023,2018,4,24,22,7,31.643,-0.0515,-0.627,-0.0785,-0.7732
0.022,-0.426,-0.028,26.6,35.2,15.5,1023,2018,4,24,22,7,31.647,-0.0499,-0.6308,-0.086,-0.7695
-0.018,-0.333,0.01,26.2,5.5,0.6,1023,2018,4,24,22,7,31.662,-0.0487,-0.6344,-0.0893,-0.7662
-0.162,-0.255,0.072,27.9,-37.9,-13.2,1023,2018,4,24,22,7,31.685,-0.0497,-0.638,-0.086,-0.7635
-0.312,-0.245,0.128,25.8,-83.7,-25.8,1023,2018,4,24,22,7,31.703,-0.0541,-0.6413,-0.0752,-0.7616
-0.32,-0.286,0.154,21.6,-121.2,-39.3,1023,2018,4,24,22,7,31.748,-0.0615,-0.6437,-0.0573,-0.7605
-0.267,-0.331,0.171,18.5,-141.1,-53.1,1023,2018,4,24,22,7,31.75,-0.0699,-0.6452,-0.0339,-0.76
-0.183,-0.371,0.181,16.6,-136.7,-67.1,0,2018,4,24,22,7,31.765,-0.0772,-0.6459,-0.008,-0.7593
-0.136,-0.392,0.225,13.7,-113.4,-80.3,0,2018,4,24,22,7,31.8,-0.0811,-0.6461,0.0173,-0.7586
-0.107,-0.358,0.253,9.7,-75,-90.2,0,2018,4,24,22,7,31.822,-0.0797,-0.6459,0.0398,-0.7581
-0.068,-0.297,0.291,4.3,-34.7,-96.7,0,2018,4,24,22,7,31.823,-0.0728,-0.6454,0.0578,-0.7581
-0.036,-0.226,0.286,-2.3,2.6,-101.4,0,2018,4,24,22,7,31.858,-0.061,-0.6442,0.0709,-0.759
-0.051,-0.134,0.273,-9.2,27.4,-105.7,0,2018,4,24,22,7,31.88,-0.0452,-0.6422,0.0804,-0.7609
-0.118,-0.034,0.225,-16,38.9,-109.9,0,2018,4,24,22,7,31.884,-0.0272,-0.6391,0.0878,-0.7635
-0.22,0.029,0.174,-22,40.1,-113,0,2018,4,24,22,7,31.92,-0.0084,-0.6339,0.0945,-0.7675
-0.31,0.079,0.121,-27.1,36.8,-115.3,0,2018,4,24,22,7,31.943,0.0099,-0.6282,0.1012,-0.7713
-0.346,0.134,0.056,-31.2,30.8,-117.1,0,2018,4,24,22,7,31.948,0.0276,-0.622,0.1084,-0.7749
-0.376,0.163,0.043,-35.5,26.1,-118.1,0,2018,4,24,22,7,31.966,0.0453,-0.6149,0.1172,-0.7784
-0.361,0.187,0.02,-41.1,23,-120,0,2018,4,24,22,7,31.989,0.0631,-0.6069,0.1269,-0.7819
-0.274,0.228,-0.011,-45.7,18.7,-121.6,0,2018,4,24,22,7,32.007,0.0809,-0.5979,0.1373,-0.7855
-0.209,0.26,-0.037,-47.7,13.3,-122.2,0,2018,4,24,22,7,32.031,0.0981,-0.5881,0.1485,-0.7889
-0.161,0.293,-0.063,-49.3,10.8,-121,0,2018,4,24,22,7,32.046,0.1148,-0.5779,0.1602,-0.7919
-0.116,0.32,-0.098,-49.4,10.2,-116.5,0,2018,4,24,22,7,32.065,0.1309,-0.5673,0.1717,-0.7946
-0.095,0.344,-0.112,-48.8,12.4,-108.7,0,2018,4,24,22,7,32.086,0.1461,-0.5567,0.1824,-0.797
-0.068,0.374,-0.128,-47.8,14.6,-97.5,0,2018,4,24,22,7,32.124,0.1602,-0.5463,0.1917,-0.7994
-0.071,0.397,-0.133,-46.8,14.8,-83.7,0,2018,4,24,22,7,32.145,0.1727,-0.5361,0.1995,-0.8017
-0.064,0.43,-0.137,-46.3,10.5,-68.4,0,2018,4,24,22,7,32.148,0.1829,-0.5265,0.2062,-0.8042
-0.051,0.461,-0.167,-45,-0.9,-51.3,0,2018,4,24,22,7,32.182,0.1901,-0.5177,0.2124,-0.8066
-0.037,0.468,-0.197,-42.2,-15.1,-33,0,2018,4,24,22,7,32.205,0.1935,-0.5103,0.2188,-0.8088
-0.034,0.454,-0.193,-39.8,-28,-14.4,0,2018,4,24,22,7,32.21,0.1933,-0.5043,0.2253,-0.8108
-0.04,0.433,-0.18,-38.3,-39.1,3.2,0,2018,4,24,22,7,32.226,0.1895,-0.4997,0.2319,-0.8127
-0.064,0.412,-0.189,-37.3,-48.7,20.8,0,2018,4,24,22,7,32.244,0.1823,-0.4963,0.2384,-0.8145
-0.082,0.393,-0.189,-37.1,-55.6,37.8,0,2018,4,24,22,7,32.268,0.1719,-0.4939,0.2444,-0.8164
-0.099,0.366,-0.18,-37.2,-60.8,53.6,0,2018,4,24,22,7,32.286,0.1587,-0.4923,0.2499,-0.8185
-0.121,0.329,-0.181,-37.8,-66,68.5,1023,2018,4,24,22,7,32.309,0.1428,-0.4913,0.2547,-0.8205
-0.154,0.276,-0.16,-38.6,-71.2,81.8,1023,2018,4,24,22,7,32.327,0.1243,-0.4908,0.2589,-0.8224
-0.19,0.221,-0.125,-41.1,-75.5,93.3,1023,2018,4,24,22,7,32.35,0.1035,-0.4906,0.2628,-0.8242
-0.221,0.168,-0.087,-46.4,-79.7,101.9,1023,2018,4,24,22,7,32.368,0.0805,-0.49,0.2662,-0.826
-0.239,0.124,-0.075,-54.3,-84.5,107.4,1023,2018,4,24,22,7,32.391,0.0556,-0.4886,0.2696,-0.8278
-0.272,0.105,-0.111,-62.6,-93.6,111.1,1023,2018,4,24,22,7,32.413,0.0291,-0.4859,0.2735,-0.8295
-0.353,0.104,-0.19,-69.1,-107.6,115.7,1023,2018,4,24,22,7,32.43,0.001,-0.4821,0.2787,-0.8305
-0.437,0.091,-0.242,-75.4,-122.9,121,1023,2018,4,24,22,7,32.448,-0.029,-0.4772,0.2854,-0.8305
-0.402,0.071,-0.248,-82.2,-141.4,123,1023,2018,4,24,22,7,32.471,-0.0615,-0.4709,0.2939,-0.8294
-0.3,0.06,-0.241,-85.8,-162.8,121.9,0,2018,4,24,22,7,32.489,-0.0961,-0.463,0.3048,-0.8266
-0.237,0.055,-0.242,-88.8,-182.5,119.2,0,2018,4,24,22,7,32.512,-0.1321,-0.4535,0.3183,-0.8218
-0.178,0.043,-0.282,-90.1,-197.6,116.4,0,2018,4,24,22,7,32.53,-0.169,-0.4424,0.3341,-0.8148
-0.104,0.025,-0.33,-88.5,-203,114.9,0,2018,4,24,22,7,32.548,-0.206,-0.4301,0.3508,-0.8058
-0.031,0.006,-0.361,-83.6,-199.2,115.5,0,2018,4,24,22,7,32.571,-0.2424,-0.4174,0.3671,-0.795
0.015,-0.017,-0.365,-76.4,-185.3,117.8,0,2018,4,24,22,7,32.589,-0.2775,-0.4053,0.3816,-0.7829
0.031,-0.037,-0.343,-69,-161.7,121.3,0,2018,4,24,22,7,32.612,-0.3107,-0.3947,0.3931,-0.77
0.018,-0.035,-0.306,-63.2,-132,125.5,0,2018,4,24,22,7,32.63,-0.3417,-0.3861,0.4005,-0.7573
-0.003,0.008,-0.3,-59.5,-110.5,129.2,0,2018,4,24,22,7,32.667,-0.3707,-0.3796,0.4039,-0.7451
-0.036,0.063,-0.344,-55.3,-105.6,132.1,0,2018,4,24,22,7,32.691,-0.3986,-0.3743,0.4051,-0.7326
-0.072,0.074,-0.402,-48.3,-112.1,134.9,0,2018,4,24,22,7,32.695,-0.4263,-0.3693,0.4064,-0.7187
-0.108,0.076,-0.419,-40.3,-127.8,136.4,0,2018,4,24,22,7,32.71,-0.4539,-0.3644,0.4092,-0.7026
-0.132,0.062,-0.421,-32.5,-147.8,135.2,0,2018,4,24,22,7,32.727,-0.4817,-0.3584,0.4144,-0.6838
-0.134,0.022,-0.416,-25.3,-163.7,131.7,0,2018,4,24,22,7,32.75,-0.5092,-0.3513,0.422,-0.6626
-0.114,-0.008,-0.413,-18.1,-174,126.5,0,2018,4,24,22,7,32.768,-0.5357,-0.343,0.4315,-0.6395
-0.079,-0.048,-0.399,-10.8,-174.4,121.1,0,2018,4,24,22,7,32.792,-0.5607,-0.3341,0.442,-0.6152
-0.067,-0.09,-0.379,-3.5,-165,116.6,0,2018,4,24,22,7,32.81,-0.5835,-0.3257,0.4523,-0.5905
-0.059,-0.129,-0.354,2.5,-146.8,114.1,0,2018,4,24,22,7,32.833,-0.6039,-0.3187,0.4616,-0.5661
-0.048,-0.155,-0.326,7.6,-123.8,113.1,0,2018,4,24,22,7,32.85,-0.6219,-0.314,0.4689,-0.5427
-0.038,-0.171,-0.302,12.3,-102.5,112.5,0,2018,4,24,22,7,32.873,-0.6377,-0.3119,0.4743,-0.5206
-0.045,-0.175,-0.285,17.6,-89.3,111.9,0,2018,4,24,22,7,32.891,-0.6516,-0.3119,0.4783,-0.4992
-0.068,-0.185,-0.274,23.7,-82.5,111.2,0,2018,4,24,22,7,32.914,-0.664,-0.3132,0.4819,-0.4782
-0.084,-0.197,-0.247,30.4,-83,109.9,0,2018,4,24,22,7,32.931,-0.6752,-0.3151,0.4857,-0.4568
-0.096,-0.222,-0.197,36.9,-87.2,108,0,2018,4,24,22,7,32.949,-0.6855,-0.317,0.4903,-0.4348
-0.092,-0.263,-0.148,42.2,-93.3,105.6,0,2018,4,24,22,7,32.971,-0.695,-0.3182,0.4959,-0.4119
-0.077,-0.306,-0.106,46.3,-98.1,102.4,1023,2018,4,24,22,7,33.008,-0.7037,-0.3186,0.5022,-0.3884
-0.063,-0.363,-0.076,49.2,-98.8,98.7,1023,2018,4,24,22,7,33.031,-0.7116,-0.3184,0.5091,-0.3646
-0.052,-0.41,-0.04,50.9,-95,94.2,1023,2018,4,24,22,7,33.036,-0.7184,-0.318,0.516,-0.3411
-0.049,-0.46,-0.008,52.2,-86.4,88.9,1023,2018,4,24,22,7,33.052,-0.724,-0.3179,0.5226,-0.3184
-0.043,-0.502,0.021,52.7,-74.8,82.6,1023,2018,4,24,22,7,33.074,-0.7283,-0.3183,0.5289,-0.2973
-0.043,-0.538,0.065,52.9,-60.5,75,1023,2018,4,24,22,7,33.091,-0.7311,-0.3197,0.5346,-0.278
-0.05,-0.568,0.099,52.9,-46.6,66.7,1023,2018,4,24,22,7,33.114,-0.7324,-0.3221,0.5399,-0.261
-0.062,-0.606,0.157,52.7,-32.8,57.4,0,2018,4,24,22,7,33.151,-0.7324,-0.3253,0.5449,-0.2464
-0.083,-0.639,0.233,51,-19.3,46.4,0,2018,4,24,22,7,33.171,-0.7311,-0.3291,0.5497,-0.2343
-0.114,-0.666,0.306,47.2,-7.6,33.7,0,2018,4,24,22,7,33.176,-0.7287,-0.3333,0.5541,-0.2251
-0.144,-0.678,0.359,41.7,2.4,19.1,0,2018,4,24,22,7,33.193,-0.7255,-0.3372,0.5584,-0.219
-0.163,-0.681,0.392,34.4,11.9,2.3,0,2018,4,24,22,7,33.23,-0.7218,-0.3407,0.5623,-0.2161
-0.16,-0.653,0.399,26.3,21.8,-16.2,0,2018,4,24,22,7,33.253,-0.7175,-0.3433,0.5658,-0.2169
-0.141,-0.583,0.383,18,27.5,-36.3,0,2018,4,24,22,7,33.255,-0.7128,-0.3446,0.5692,-0.2214
-0.12,-0.502,0.361,10.4,28.3,-55.9,0,2018,4,24,22,7,33.275,-0.7078,-0.3441,0.5727,-0.2292
-0.111,-0.449,0.353,2.8,26.6,-73.3,0,2018,4,24,22,7,33.292,-0.7028,-0.3411,0.5763,-0.2396
-0.122,-0.401,0.353,-5.1,26.9,-87.8,0,2018,4,24,22,7,33.315,-0.6979,-0.3361,0.5798,-0.2522
-0.142,-0.359,0.347,-14.6,29.7,-99.1,0,2018,4,24,22,7,33.334,-0.693,-0.3296,0.5828,-0.2671
-0.157,-0.312,0.331,-24,34,-107.5,0,2018,4,24,22,7,33.358,-0.6882,-0.3219,0.5848,-0.284
-0.163,-0.248,0.315,-33.9,37.2,-113.9,0,2018,4,24,22,7,33.393,-0.6835,-0.3134,0.5856,-0.3026
-0.167,-0.194,0.275,-44.1,35.4,-119.1,0,2018,4,24,22,7,33.393,-0.6792,-0.3036,0.5852,-0.3223
-0.174,-0.142,0.194,-52.4,30.2,-123.3,0,2018,4,24,22,7,33.417,-0.6754,-0.2923,0.5839,-0.3426
-0.216,-0.082,0.115,-57.9,20.6,-125.8,0,2018,4,24,22,7,33.434,-0.6722,-0.2789,0.5818,-0.3629
-0.288,-0.053,0.063,-62.2,10.8,-126.6,0,2018,4,24,22,7,33.453,-0.6694,-0.2637,0.5797,-0.3823
-0.36,-0.035,0.011,-67.5,4.8,-126.3,0,2018,4,24,22,7,33.473,-0.6668,-0.2475,0.5774,-0.4006
-0.392,-0.005,-0.044,-72.7,-2,-126.6,0,2018,4,24,22,7,33.512,-0.6645,-0.2305,0.5749,-0.4179
-0.381,0.024,-0.094,-74.7,-12,-128.3,0,2018,4,24,22,7,33.535,-0.6624,-0.212,0.5722,-0.4342
-0.356,0.062,-0.135,-74.3,-26.2,-133,0,2018,4,24,22,7,33.539,-0.6605,-0.191,0.5697,-0.45
-0.321,0.115,-0.165,-71.6,-43.4,-139.6,0,2018,4,24,22,7,33.557,-0.6579,-0.1676,0.5684,-0.4646
-0.286,0.157,-0.182,-67.8,-57.9,-146.4,0,2018,4,24,22,7,33.576,-0.6544,-0.1417,0.5685,-0.4778
-0.245,0.192,-0.205,-63,-67.6,-151.2,0,2018,4,24,22,7,33.611,-0.6497,-0.1142,0.5698,-0.4899
-0.196,0.212,-0.23,-57.5,-69.9,-152.7,0,2018,4,24,22,7,33.611,-0.6437,-0.0859,0.5717,-0.5012
-0.145,0.229,-0.249,-51.5,-61.1,-149.7,0,2018,4,24,22,7,33.634,-0.6366,-0.0585,0.5734,-0.5122
-0.105,0.255,-0.252,-45.9,-43.5,-142.3,0,2018,4,24,22,7,33.672,-0.6287,-0.0337,0.574,-0.5235
-0.07,0.279,-0.242,-41.4,-20.1,-130.7,1023,2018,4,24,22,7,33.695,-0.6205,-0.0126,0.5727,-0.5354
-0.044,0.319,-0.234,-38.1,3,-115.9,1023,2018,4,24,22,7,33.699,-0.6128,0.0042,0.5692,-0.548
-0.035,0.368,-0.243,-34.6,17.4,-98.7,1023,2018,4,24,22,7,33.716,-0.6061,0.0171,0.564,-0.5604
-0.021,0.416,-0.243,-30.2,24.5,-79.5,1023,2018,4,24,22,7,33.754,-0.6006,0.0267,0.5581,-0.5718
0,0.443,-0.245,-25.5,23,-59.6,1023,2018,4,24,22,7,33.776,-0.5964,0.0337,0.5524,-0.5812
0.008,0.446,-0.246,-19.8,16.3,-39.7,1023,2018,4,24,22,7,33.78,-0.5937,0.0387,0.5477,-0.5881
-0.008,0.441,-0.234,-13.7,8.3,-19.8,1023,2018,4,24,22,7,33.796,-0.5924,0.0419,0.5445,-0.5922
-0.041,0.426,-0.224,-8.1,3.1,0.3,1023,2018,4,24,22,7,33.817,-0.5925,0.0434,0.5428,-0.5935
-0.064,0.411,-0.214,-3.4,2.3,20.9,1023,2018,4,24,22,7,33.855,-0.5942,0.0427,0.5421,-0.5926
-0.09,0.389,-0.203,0.9,4.8,41.6,1023,2018,4,24,22,7,33.878,-0.5976,0.0394,0.5418,-0.5896
-0.11,0.374,-0.206,5.3,9.9,61.2,0,2018,4,24,22,7,33.883,-0.6026,0.0334,0.5417,-0.5849
-0.148,0.356,-0.21,10.9,13.9,79.5,0,2018,4,24,22,7,33.897,-0.6091,0.0246,0.5417,-0.5786
-0.226,0.344,-0.24,18.8,14.5,98.2,0,2018,4,24,22,7,33.934,-0.6167,0.0131,0.5421,-0.5704
-0.298,0.32,-0.247,28.3,14.8,117.9,0,2018,4,24,22,7,33.934,-0.6252,-0.001,0.5433,-0.5601
-0.316,0.312,-0.213,39,11.2,135.7,0,2018,4,24,22,7,33.958,-0.6343,-0.0179,0.5456,-0.5473
-0.298,0.267,-0.155,48.2,8,151.1,0,2018,4,24,22,7,33.992,-0.6436,-0.0369,0.5489,-0.5319
-0.274,0.238,-0.096,55.3,5.1,163.8,0,2018,4,24,22,7,34.016,-0.6529,-0.0576,0.553,-0.5143
-0.226,0.201,-0.061,57.6,3.4,173.1,0,2018,4,24,22,7,34.02,-0.6622,-0.0794,0.5571,-0.4946
-0.141,0.173,-0.058,55.9,3.5,178.1,0,2018,4,24,22,7,34.057,-0.6715,-0.1019,0.5607,-0.4735
-0.082,0.135,-0.043,54.1,3,178.8,0,2018,4,24,22,7,34.078,-0.6804,-0.1242,0.5634,-0.4517
-0.077,0.111,-0.039,52.1,-1.7,176,0,2018,4,24,22,7,34.08,-0.6888,-0.146,0.5655,-0.4293
-0.243,-0.027,0.015,22.2,-114.8,133.8,0,2018,4,24,22,7,34.096,-0.7288,-0.2172,0.5743,-0.303
-0.22,-0.125,0.006,18.5,-154.8,116.7,0,2018,4,24,22,7,34.117,-0.7379,-0.213,0.5794,-0.2725
-0.156,-0.216,0,15.7,-182.8,97.1,0,2018,4,24,22,7,34.154,-0.7469,-0.2021,0.5857,-0.241
-0.095,-0.301,-0.004,12.7,-189,77.9,0,2018,4,24,22,7,34.177,-0.7553,-0.187,0.5919,-0.2098
-0.033,-0.36,-0.018,9.5,-178.5,61.1,0,2018,4,24,22,7,34.181,-0.7622,-0.1701,0.5976,-0.1812
0.012,-0.381,-0.046,6.8,-158.5,47.3,0,2018,4,24,22,7,34.197,-0.7677,-0.1535,0.6021,-0.1561
0.048,-0.379,-0.085,5.2,-134.2,37.7,0,2018,4,24,22,7,34.218,-0.7719,-0.1384,0.6055,-0.135
0.078,-0.364,-0.102,4.9,-111.3,32.2,0,2018,4,24,22,7,34.255,-0.775,-0.1257,0.608,-0.1173
0.094,-0.344,-0.096,5.8,-93.8,29.6,0,2018,4,24,22,7,34.277,-0.7771,-0.1153,0.6101,-0.1022
0.117,-0.329,-0.086,8,-81.2,29.1,0,2018,4,24,22,7,34.282,-0.7786,-0.1068,0.6119,-0.0888
0.151,-0.325,-0.079,12.1,-74.1,30.6,0,2018,4,24,22,7,34.319,-0.7793,-0.0996,0.6138,-0.0763
0.167,-0.342,-0.066,18,-67.3,33.1,0,2018,4,24,22,7,34.319,-0.7793,-0.0936,0.6162,-0.0641
0.166,-0.375,-0.03,24.1,-58.5,35.7,0,2018,4,24,22,7,34.341,-0.7783,-0.089,0.6192,-0.0523
0.155,-0.404,0.011,29.8,-44,38,0,2018,4,24,22,7,34.358,-0.7765,-0.0862,0.6227,-0.0413
0.137,-0.434,0.053,34.4,-24.8,39.4,1023,2018,4,24,22,7,34.379,-0.7737,-0.086,0.6268,-0.0318
0.116,-0.47,0.085,37.9,-1.8,38.9,1023,2018,4,24,22,7,34.416,-0.7701,-0.0888,0.6311,-0.0245
0.081,-0.513,0.124,39.9,23.9,36.1,1023,2018,4,24,22,7,34.437,-0.7657,-0.0947,0.6358,-0.0201
0.042,-0.544,0.165,39.3,50.7,29.7,1023,2018,4,24,22,7,34.439,-0.7607,-0.1035,0.6404,-0.0193
0.008,-0.535,0.2,37.1,73.3,19.3,1023,2018,4,24,22,7,34.477,-0.7553,-0.1148,0.6447,-0.0223
-0.013,-0.51,0.205,34.7,87.1,4.2,1023,2018,4,24,22,7,34.499,-0.7496,-0.127,0.6488,-0.0293
-0.192,-0.498,0.237,33.4,94.9,-10.7,1023,2018,4,24,22,7,34.502,-0.7436,-0.1386,0.6529,-0.0393
-0.339,-0.48,0.268,26.6,98.8,-25.1,1023,2018,4,24,22,7,34.519,-0.7375,-0.1494,0.6564,-0.0521
-0.409,-0.484,0.25,18.9,100.3,-39.7,1023,2018,4,24,22,7,34.542,-0.7319,-0.1586,0.6592,-0.0671
-0.478,-0.487,0.236,10.1,111.4,-54.7,1023,2018,4,24,22,7,34.58,-0.7266,-0.1667,0.661,-0.0849
-0.455,-0.414,0.228,-1.8,119.3,-70.3,1023,2018,4,24,22,7,34.601,-0.7216,-0.1743,0.6615,-0.1061
-0.385,-0.345,0.218,-13.4,120.5,-86.2,1023,2018,4,24,22,7,34.605,-0.7172,-0.1801,0.6604,-0.1302
-0.269,-0.267,0.202,-24.4,118,-100.9,0,2018,4,24,22,7,34.62,-0.7132,-0.1837,0.658,-0.1563
-0.171,-0.21,0.17,-34.4,110.4,-113.5,0,2018,4,24,22,7,34.654,-0.7097,-0.1847,0.6544,-0.1837
-0.13,-0.157,0.122,-43.8,98.9,-123.2,0,2018,4,24,22,7,34.676,-0.7068,-0.1827,0.6497,-0.2117
-0.171,-0.114,0.063,-52,85.2,-128.5,0,2018,4,24,22,7,34.68,-0.7044,-0.1774,0.644,-0.2396
-0.27,-0.081,0.011,-60.6,69.8,-129.9,0,2018,4,24,22,7,34.714,-0.7026,-0.1695,0.6376,-0.2662
-0.352,-0.072,-0.046,-69.8,56,-128.6,0,2018,4,24,22,7,34.735,-0.7014,-0.1596,0.6307,-0.2908
-0.373,-0.056,-0.127,-77.8,44.5,-128.5,0,2018,4,24,22,7,34.745,-0.7008,-0.148,0.6232,-0.3137
-0.354,-0.03,-0.194,-82.3,28.1,-132.1,0,2018,4,24,22,7,34.763,-0.7009,-0.1341,0.615,-0.3353
-0.327,-0.005,-0.25,-83,7.6,-140.1,0,2018,4,24,22,7,34.787,-0.7011,-0.1167,0.6068,-0.3557
-0.305,0.051,-0.28,-81,-11.9,-150.8,0,2018,4,24,22,7,34.804,-0.7005,-0.0958,0.5996,-0.3747
-0.292,0.093,-0.31,-77,-28.1,-162.1,0,2018,4,24,22,7,34.825,-0.6985,-0.0716,0.5937,-0.3929
-0.288,0.116,-0.346,-71.9,-39.5,-171.8,0,2018,4,24,22,7,34.844,-0.6948,-0.0449,0.5887,-0.4104
-0.287,0.11,-0.393,-65.7,-42.8,-177.8,0,2018,4,24,22,7,34.862,-0.6892,-0.0168,0.5845,-0.4277
-0.273,0.143,-0.42,-58.6,-36.8,-179.3,0,2018,4,24,22,7,34.884,-0.6819,0.0108,0.5802,-0.445
-0.227,0.206,-0.443,-51.1,-23.4,-176,0,2018,4,24,22,7,34.902,-0.6732,0.0367,0.5754,-0.4628
-0.18,0.268,-0.463,-43.5,-8.8,-168.6,0,2018,4,24,22,7,34.925,-0.6635,0.0597,0.5697,-0.481
-0.157,0.319,-0.465,-34.9,4.3,-156.6,0,2018,4,24,22,7,34.943,-0.6535,0.0793,0.5634,-0.4991
-0.135,0.357,-0.459,-25.8,12.7,-141.6,0,2018,4,24,22,7,34.966,-0.6433,0.0955,0.5569,-0.5164
-0.11,0.418,-0.442,-15.7,16.8,-124.3,0,2018,4,24,22,7,35.003,-0.6334,0.1085,0.5509,-0.5323
-0.077,0.45,-0.423,-5.6,16.1,-104.4,0,2018,4,24,22,7,35.026,-0.624,0.1185,0.5459,-0.5462
-0.043,0.476,-0.406,4.4,12.9,-82.1,0,2018,4,24,22,7,35.031,-0.6154,0.1258,0.5424,-0.5577
-0.022,0.464,-0.398,14.9,10.9,-58,0,2018,4,24,22,7,35.04,-0.6079,0.1302,0.5408,-0.5664
