ax,ay,az,dpitch,droll,dyaw,heart,time_1,time_2,time_3,time_4,time_5,time_6,w,x,y,z
0.049,0.069,-0.031,16.6,-11.1,16.3,0,2018,4,13,16,47,26.474,-0.0583,-0.2189,0.3459,-0.9104
-0.037,0.123,0.222,11.9,-8.8,12.3,0,2018,4,13,16,47,26.499,-0.0598,-0.222,0.3457,-0.9096
-0.071,0.161,0.321,-3.6,-47.3,14,0,2018,4,13,16,47,26.536,-0.0627,-0.2232,0.3499,-0.9076
-0.144,0.085,0.458,-27.4,-91.6,16.3,0,2018,4,13,16,47,26.536,-0.0689,-0.2209,0.3603,-0.9036
-0.145,-0.094,0.413,-48.8,-103.5,15.2,0,2018,4,13,16,47,26.559,-0.0779,-0.2144,0.3752,-0.8983
-0.106,-0.16,0.325,-62.3,-98.2,6.3,0,2018,4,13,16,47,26.593,-0.0872,-0.2046,0.3891,-0.8939
-0.065,-0.235,0.238,-68.1,-86.5,-4.2,0,2018,4,13,16,47,26.615,-0.095,-0.1923,0.4022,-0.89
-0.041,-0.241,0.153,-66.7,-59,-11.1,0,2018,4,13,16,47,26.619,-0.1006,-0.1794,0.4128,-0.8872
-0.02,-0.207,0.061,-62.2,-23.8,-14.7,0,2018,4,13,16,47,26.656,-0.1041,-0.1673,0.4188,-0.8863
0.027,-0.172,-0.016,-55.6,11.4,-17,0,2018,4,13,16,47,26.677,-0.1057,-0.1565,0.4199,-0.8876
0.035,-0.113,-0.017,-48.8,41.9,-19.8,0,2018,4,13,16,47,26.682,-0.1054,-0.1471,0.416,-0.8911
0.029,-0.067,-0.021,-45.6,67.6,-21.2,0,2018,4,13,16,47,26.696,-0.1038,-0.1389,0.4076,-0.8965
0.038,-0.016,-0.013,-43.7,82.8,-21.1,0,2018,4,13,16,47,26.719,-0.1016,-0.1315,0.3957,-0.9031
0.047,0.062,0.011,-41.8,78.7,-19.4,0,2018,4,13,16,47,26.757,-0.0993,-0.1244,0.3822,-0.9102
0.051,-0.049,-0.019,-46.1,65.8,-20.3,0,2018,4,13,16,47,26.778,-0.0974,-0.1169,0.3706,-0.9162
0.006,0.019,0.023,-52.8,55.6,-19.3,0,2018,4,13,16,47,26.782,-0.096,-0.1085,0.3604,-0.9214
-0.031,0.101,0.048,-59.8,16.2,-17.8,0,2018,4,13,16,47,26.818,-0.096,-0.099,0.353,-0.9253
-0.024,0.051,-0.03,-61.7,-23.5,-17.3,0,2018,4,13,16,47,26.839,-0.0973,-0.0883,0.3526,-0.9264
-0.053,0.009,-0.12,-58.8,-47.8,-17.8,0,2018,4,13,16,47,26.844,-0.0989,-0.0773,0.3583,-0.9251
-0.076,-0.025,-0.181,-52.2,-51.5,-19.5,0,2018,4,13,16,47,26.877,-0.1001,-0.0663,0.3659,-0.9228
-0.087,-0.007,-0.25,-43,-37.1,-19.8,0,2018,4,13,16,47,26.877,-0.1004,-0.0565,0.3725,-0.9207
-0.06,0.088,-0.37,-29.7,-25.1,-17.6,0,2018,4,13,16,47,26.9,-0.1001,-0.0489,0.3769,-0.9195
-0.054,0.097,-0.435,-13.1,-10.1,-15.1,0,2018,4,13,16,47,26.917,-0.099,-0.0441,0.3796,-0.9187
-0.064,0.085,-0.401,3.8,14.5,-13.4,0,2018,4,13,16,47,26.938,-0.097,-0.0425,0.3792,-0.9192
-0.043,0.11,-0.383,18.5,30.6,-13.1,0,2018,4,13,16,47,26.976,-0.0939,-0.044,0.3755,-0.9209
-0.032,0.115,-0.339,27.1,33.7,-14.8,0,2018,4,13,16,47,26.996,-0.0899,-0.0474,0.3708,-0.9231
-0.024,0.057,-0.321,30,35,-16.5,0,2018,4,13,16,47,27.001,-0.0851,-0.0516,0.3658,-0.9253
0.042,0.058,-0.288,32.1,31.2,-17.2,0,2018,4,13,16,47,27.035,-0.08,-0.056,0.361,-0.9274
0.093,0.093,-0.194,32.9,32.1,-15.2,0,2018,4,13,16,47,27.057,-0.0748,-0.0604,0.3574,-0.9289
0.1,0.031,-0.111,30.2,38.7,-11.3,0,2018,4,13,16,47,27.062,-0.0699,-0.0643,0.3528,-0.9308
0.107,0.056,-0.034,28.4,39.8,-6.7,1023,2018,4,13,16,47,27.096,-0.0659,-0.0681,0.3467,-0.9331
0.094,0.061,0.013,26.9,9.7,-2.1,1023,2018,4,13,16,47,27.121,-0.0629,-0.0717,0.3424,-0.9346
0.095,0.032,0,28.6,-20.2,2.6,1023,2018,4,13,16,47,27.125,-0.0611,-0.0752,0.3436,-0.934
0.084,-0.009,-0.012,33.3,-35.4,6.2,1023,2018,4,13,16,47,27.142,-0.0601,-0.0794,0.3486,-0.9319
0.051,-0.036,-0.076,40,-29.6,8.5,1023,2018,4,13,16,47,27.159,-0.0593,-0.0848,0.355,-0.9291
0.003,-0.148,-0.039,44.7,-5.8,7.8,1023,2018,4,13,16,47,27.182,-0.0581,-0.0919,0.3595,-0.9267
-0.021,-0.086,0.136,43.9,25.1,1.8,1023,2018,4,13,16,47,27.217,-0.0557,-0.0994,0.3585,-0.9265
-0.023,-0.001,0.179,37.9,40.6,-0.3,1023,2018,4,13,16,47,27.238,-0.0527,-0.1063,0.3525,-0.9282
-0.027,0.05,0.133,33.8,39.2,-1.1,0,2018,4,13,16,47,27.242,-0.0497,-0.1124,0.3452,-0.9304
-0.041,0.053,0.083,32.1,33.3,0.4,0,2018,4,13,16,47,27.277,-0.0471,-0.1181,0.3386,-0.9322
-0.032,0.064,0.108,31.6,25.8,0.4,0,2018,4,13,16,47,27.299,-0.045,-0.1238,0.3331,-0.9336
-0.029,0.033,0.142,29.7,21.3,-0.8,0,2018,4,13,16,47,27.304,-0.0428,-0.129,0.3286,-0.9346
-0.036,0.012,0.122,26.4,21.5,-1.3,0,2018,4,13,16,47,27.337,-0.0407,-0.1337,0.3244,-0.9355
-0.047,0.021,0.074,24.3,21.5,-0.5,0,2018,4,13,16,47,27.36,-0.0387,-0.1381,0.3204,-0.9363
-0.057,0.019,0.045,23,19,0.4,0,2018,4,13,16,47,27.364,-0.0371,-0.1424,0.3169,-0.9369
-0.08,0.029,0.101,19.1,15.2,-0.4,0,2018,4,13,16,47,27.398,-0.0357,-0.1464,0.3135,-0.9375
-0.081,0.054,0.041,6.6,-11.5,-6.7,0,2018,4,13,16,47,27.42,-0.0314,-0.1554,0.3132,-0.9363
-0.073,0.07,0.019,5.1,-12.6,-5.6,0,2018,4,13,16,47,27.424,-0.0307,-0.1566,0.3147,-0.9356
-0.076,0.04,-0.026,5,-6.7,-4.5,0,2018,4,13,16,47,27.442,-0.0302,-0.1578,0.3161,-0.935
-0.092,0.044,-0.021,3.9,2.7,-1.2,0,2018,4,13,16,47,27.464,-0.0298,-0.1593,0.3164,-0.9346
-0.09,0.111,0.043,0.5,-2.1,4,0,2018,4,13,16,47,27.5,-0.03,-0.1601,0.3156,-0.9347
-0.112,0.261,0.157,-10.5,-61.6,7.8,0,2018,4,13,16,47,27.524,-0.032,-0.1593,0.3205,-0.9331
-0.106,0.127,0.181,-20.2,-92.5,12.4,0,2018,4,13,16,47,27.528,-0.0368,-0.1568,0.3339,-0.9287
-0.097,0.079,0.091,-23.4,-90.9,11.1,0,2018,4,13,16,47,27.561,-0.0427,-0.1533,0.3483,-0.9237
-0.041,-0.066,-0.172,-17,-77.1,9.1,0,2018,4,13,16,47,27.585,-0.0479,-0.1503,0.3616,-0.9188
-0.008,-0.038,-0.281,-2,-56.6,10.5,0,2018,4,13,16,47,27.59,-0.0519,-0.1487,0.3717,-0.9148
-0.008,-0.148,-0.226,8.9,-28.4,7.9,0,2018,4,13,16,47,27.604,-0.0543,-0.1497,0.3786,-0.9117
-0.004,-0.137,-0.13,11.8,22,2.4,0,2018,4,13,16,47,27.64,-0.0544,-0.1517,0.3788,-0.9113
0,-0.044,-0.137,8.9,49.4,0.7,0,2018,4,13,16,47,27.661,-0.0528,-0.154,0.3736,-0.9131
0.025,0.083,-0.155,10.4,48.1,-1.2,0,2018,4,13,16,47,27.665,-0.0507,-0.1563,0.3663,-0.9158
0.079,0.165,-0.141,12.8,6.3,-0.4,0,2018,4,13,16,47,27.7,-0.049,-0.1586,0.3621,-0.9172
0.044,0.097,0.002,15.3,-50.8,-3.7,0,2018,4,13,16,47,27.723,-0.0484,-0.1603,0.365,-0.9157
0.113,-0.058,-0.236,18,-20.5,4.8,0,2018,4,13,16,47,27.727,-0.0482,-0.1621,0.3732,-0.9121
0.142,0.238,-0.244,26.3,31.2,24.3,0,2018,4,13,16,47,27.765,-0.049,-0.1668,0.3708,-0.9122
0.099,0.17,-0.148,36.4,21.5,34.1,0,2018,4,13,16,47,27.765,-0.0509,-0.1739,0.365,-0.9131
-0.101,-0.089,0.007,34.3,-51.5,29.3,0,2018,4,13,16,47,27.787,-0.0586,-0.1907,0.3683,-0.908
-0.066,-0.24,-0.039,29.2,-47.9,16.3,0,2018,4,13,16,47,27.801,-0.062,-0.1968,0.3769,-0.9029
-0.028,-0.21,0.064,33.5,-12.1,2.2,0,2018,4,13,16,47,27.824,-0.0623,-0.2018,0.3817,-0.8997
-0.083,0.059,0.393,34.9,4.2,-10.8,0,2018,4,13,16,47,27.859,-0.0591,-0.2069,0.3823,-0.8986
-0.185,0.372,0.504,14.5,-14.8,-9.7,0,2018,4,13,16,47,27.881,-0.0556,-0.21,0.3833,-0.8976
-0.141,0.519,0.52,-13.1,-82.4,5.4,0,2018,4,13,16,47,27.885,-0.057,-0.2094,0.391,-0.8944
-0.168,0.03,0.257,-25.4,-86.9,12.1,0,2018,4,13,16,47,27.921,-0.0634,-0.2059,0.4048,-0.8886
-0.157,-0.032,0.068,-25.8,-57.3,15.7,1023,2018,4,13,16,47,27.944,-0.0702,-0.2029,0.4142,-0.8844
-0.153,-0.15,0.122,-28.6,-26.4,18.8,1023,2018,4,13,16,47,27.949,-0.0765,-0.2,0.42,-0.8818
-0.134,-0.034,0.218,-41.7,32.8,23.7,1023,2018,4,13,16,47,27.983,-0.0825,-0.1965,0.4178,-0.8831
-0.074,0.171,0.211,-54.5,88.9,39.4,1023,2018,4,13,16,47,28.007,-0.0887,-0.1921,0.4061,-0.8889
-0.052,0.365,0.205,-59.2,109,61.7,1023,2018,4,13,16,47,28.012,-0.0972,-0.1883,0.3873,-0.8972
-0.057,0.362,0.197,-56.4,91.5,83.2,1023,2018,4,13,16,47,28.027,-0.1092,-0.1857,0.3679,-0.9045
-0.178,0.105,0.148,-56.7,78.1,96.2,1023,2018,4,13,16,47,28.05,-0.1245,-0.1843,0.3507,-0.9096
-0.188,-0.01,0.018,-60.8,88.7,99.6,1023,2018,4,13,16,47,28.067,-0.141,-0.1826,0.333,-0.9142
-0.055,-0.052,-0.121,-55.6,92.1,98.2,1023,2018,4,13,16,47,28.103,-0.1573,-0.1812,0.3135,-0.9187
0.032,-0.115,-0.151,-41.1,63.3,89,0,2018,4,13,16,47,28.126,-0.1724,-0.1807,0.2964,-0.9217
-0.006,-0.343,-0.128,-30.6,32.2,75.5,0,2018,4,13,16,47,28.13,-0.1862,-0.1806,0.2855,-0.9225
-0.005,-0.631,-0.173,-28.3,43.7,56.5,0,2018,4,13,16,47,28.165,-0.1976,-0.1802,0.2766,-0.9229
0.152,-0.635,-0.239,-22.4,71.2,34.8,0,2018,4,13,16,47,28.165,-0.2047,-0.18,0.2646,-0.9249
0.196,-0.6,-0.181,-11.7,85.7,13.3,0,2018,4,13,16,47,28.19,-0.2072,-0.1811,0.2501,-0.9282
0.146,-0.497,-0.106,-6.4,73.3,-7.2,0,2018,4,13,16,47,28.207,-0.2055,-0.1828,0.2363,-0.9319
0.13,-0.465,-0.121,-8.6,31.8,-26.8,0,2018,4,13,16,47,28.228,-0.2012,-0.1828,0.228,-0.9349
0.144,-0.505,-0.144,-14.2,-5.2,-44.8,0,2018,4,13,16,47,28.263,-0.1954,-0.1798,0.227,-0.9369
0.184,-0.516,-0.148,-18.1,-17,-60.4,0,2018,4,13,16,47,28.286,-0.1877,-0.1746,0.2302,-0.9387
0.202,-0.459,-0.185,-16.9,-19.6,-74.8,0,2018,4,13,16,47,28.29,-0.1778,-0.1683,0.2347,-0.9407
0.185,-0.4,-0.236,-11.9,-24.9,-86.7,0,2018,4,13,16,47,28.325,-0.1657,-0.1618,0.2403,-0.9426
0.157,-0.273,-0.235,-4.4,-36.2,-95.6,0,2018,4,13,16,47,28.346,-0.1518,-0.1557,0.2474,-0.9441
0.157,-0.123,-0.205,4.5,-62.5,-99.4,0,2018,4,13,16,47,28.351,-0.1369,-0.1502,0.2582,-0.9444
0.157,-0.163,-0.217,12.9,-82.3,-102.2,0,2018,4,13,16,47,28.386,-0.1218,-0.1453,0.2734,-0.943
0.136,-0.206,-0.206,18.3,-56.4,-102.5,0,2018,4,13,16,47,28.408,-0.1059,-0.1414,0.2881,-0.9411
0.101,0.002,-0.207,23.9,-28.7,-94.6,0,2018,4,13,16,47,28.412,-0.0896,-0.1391,0.2975,-0.9402
0.069,0.087,-0.198,35.7,-18.5,-87.2,0,2018,4,13,16,47,28.446,-0.0735,-0.1387,0.3047,-0.9394
0.01,0.068,-0.141,49.1,-1.1,-80.6,0,2018,4,13,16,47,28.469,-0.0577,-0.1413,0.3096,-0.9385
-0.097,0.121,-0.035,59.7,27.7,-72.3,0,2018,4,13,16,47,28.473,-0.042,-0.1468,0.3096,-0.9385
-0.154,0.207,0.114,59.9,45.7,-61.7,0,2018,4,13,16,47,28.487,-0.0267,-0.1534,0.3054,-0.9393
-0.21,0.252,0.168,52.5,42.6,-51.1,0,2018,4,13,16,47,28.521,-0.0133,-0.1599,0.2996,-0.9404
-0.22,0.292,0.149,43,40.3,-38.3,0,2018,4,13,16,47,28.546,-0.0024,-0.1655,0.2942,-0.9412
-0.253,0.177,0.22,34.1,43.8,-28.7,0,2018,4,13,16,47,28.551,0.006,-0.1701,0.2883,-0.9422
-0.256,0.164,0.224,28.3,39.1,-27,0,2018,4,13,16,47,28.585,0.0134,-0.1738,0.282,-0.9434
-0.247,0.032,0.183,24.1,32.2,-28.3,0,2018,4,13,16,47,28.607,0.0202,-0.1766,0.2771,-0.9442
-0.299,-0.014,0.167,19.5,47.3,-29,0,2018,4,13,16,47,28.611,0.0272,-0.1786,0.2715,-0.9452
-0.15,0.082,0.072,18.5,63.8,-30,0,2018,4,13,16,47,28.646,0.0347,-0.18,0.2632,-0.9471
-0.086,0.105,-0.023,22.9,79.4,-30.1,0,2018,4,13,16,47,28.668,0.0429,-0.1815,0.252,-0.9495
-0.076,0.13,-0.094,32.3,90.3,-26.8,0,2018,4,13,16,47,28.673,0.0516,-0.1841,0.2385,-0.9521
-0.042,0.134,-0.131,39.9,100.8,-21.3,0,2018,4,13,16,47,28.689,0.0601,-0.1883,0.223,-0.9545
0.008,0.192,-0.125,48.3,97.4,-14.7,0,2018,4,13,16,47,28.723,0.0681,-0.1939,0.2064,-0.9566
-0.015,0.144,-0.088,54.9,89.5,-11.6,0,2018,4,13,16,47,28.747,0.0752,-0.201,0.1906,-0.9578
-0.074,0.16,0.012,52.9,78.4,-10.5,0,2018,4,13,16,47,28.751,0.0819,-0.2086,0.1763,-0.9584
-0.133,0.28,0.147,40.2,56.7,-9.5,1023,2018,4,13,16,47,28.786,0.0876,-0.2152,0.1645,-0.9586
-0.163,0.193,0.379,13.4,17.2,-6.7,1023,2018,4,13,16,47,28.808,0.091,-0.2186,0.1582,-0.9585
-0.211,0.354,0.365,-9.8,-41.5,2.7,1023,2018,4,13,16,47,28.812,0.0907,-0.2189,0.161,-0.958
-0.203,0.559,0.27,-27.2,-110.9,11.5,1023,2018,4,13,16,47,28.848,0.0859,-0.2171,0.1737,-0.9566
-0.256,0.398,0.169,-47.7,-163.7,23.7,1023,2018,4,13,16,47,28.872,0.0763,-0.2133,0.1972,-0.9538
-0.311,0.729,0.155,-63.4,-231.8,33.1,1023,2018,4,13,16,47,28.876,0.0624,-0.2073,0.2288,-0.949
-0.274,0.317,-0.118,-80.6,-324.7,37.2,1023,2018,4,13,16,47,28.91,0.0429,-0.1996,0.2758,-0.9392
-0.227,-0.17,-0.161,-88.1,-276.2,30.3,1023,2018,4,13,16,47,28.91,0.0224,-0.1892,0.3251,-0.9262
-0.148,-0.226,-0.123,-86.3,-198.8,22.1,1023,2018,4,13,16,47,28.933,0.0055,-0.1773,0.362,-0.9151
-0.068,0.026,-0.152,-83.5,-156.9,19.7,1023,2018,4,13,16,47,28.969,-0.0084,-0.1651,0.3888,-0.9063
0.001,-0.049,-0.263,-77.8,-139.1,20,0,2018,4,13,16,47,28.969,-0.0213,-0.1534,0.4114,-0.8981
0.11,-0.27,-0.374,-66,-75.7,21.9,0,2018,4,13,16,47,28.991,-0.0328,-0.1432,0.4278,-0.8918
0.142,-0.182,-0.328,-48.4,2.8,25.4,0,2018,4,13,16,47,29.027,-0.0416,-0.1358,0.432,-0.8905
0.137,0.014,-0.325,-32,34.9,29,0,2018,4,13,16,47,29.049,-0.0483,-0.1319,0.4272,-0.8931
0.145,0.07,-0.264,-21.1,17.6,30.7,0,2018,4,13,16,47,29.053,-0.0542,-0.1304,0.4219,-0.8955
0.123,-0.011,-0.204,-17.8,-6,29.5,0,2018,4,13,16,47,29.088,-0.0603,-0.1296,0.4203,-0.896
0.09,-0.048,-0.155,-18.2,-22.2,26.9,0,2018,4,13,16,47,29.111,-0.0663,-0.1287,0.4218,-0.895
0.097,-0.114,-0.185,-17.2,-26.9,23.2,0,2018,4,13,16,47,29.116,-0.0722,-0.1274,0.4251,-0.8931
0.129,-0.138,-0.176,-11,-21.6,17.8,0,2018,4,13,16,47,29.15,-0.077,-0.1264,0.4282,-0.8914
0.145,-0.116,-0.179,-1.1,-17.6,12.4,0,2018,4,13,16,47,29.172,-0.0802,-0.1263,0.4308,-0.8899
0.111,-0.116,-0.116,7.2,-14.6,9.5,0,2018,4,13,16,47,29.177,-0.082,-0.1275,0.4331,-0.8884
0.076,-0.119,-0.06,11.6,-10.1,7.8,0,2018,4,13,16,47,29.192,-0.0828,-0.1295,0.435,-0.8871
0.068,-0.083,-0.028,11.8,-9.5,5.1,0,2018,4,13,16,47,29.216,-0.0828,-0.1313,0.4369,-0.8859
0.073,-0.062,-0.038,12.1,-12.7,3,0,2018,4,13,16,47,29.231,-0.0823,-0.1326,0.4394,-0.8845
0.026,-0.03,-0.024,12.9,-15.4,1.5,0,2018,4,13,16,47,29.254,-0.0817,-0.134,0.4422,-0.883
-0.022,-0.02,0.011,12.2,-21.9,1.7,0,2018,4,13,16,47,29.292,-0.0814,-0.1358,0.4455,-0.8811
-0.039,-0.03,-0.003,11.2,-20.2,2.4,0,2018,4,13,16,47,29.313,-0.0814,-0.1377,0.4491,-0.879
-0.055,-0.008,0.062,10.5,-20.1,0.4,0,2018,4,13,16,47,29.317,-0.0814,-0.1395,0.452,-0.8772
-0.059,0.018,0.077,4.7,-19.6,-0.9,0,2018,4,13,16,47,29.334,-0.0815,-0.1407,0.4548,-0.8756
-0.066,0.06,0.094,-1.7,-18.3,-0.1,0,2018,4,13,16,47,29.357,-0.0821,-0.1409,0.4568,-0.8744
-0.069,0.072,0.076,-7.4,-26,1.6,0,2018,4,13,16,47,29.394,-0.0836,-0.1405,0.459,-0.8732
-0.049,0.048,0.065,-10.2,-33.5,2.3,0,2018,4,13,16,47,29.394,-0.0858,-0.1393,0.4626,-0.8713
-0.049,-0.008,0.059,-9.4,-63.5,-0.4,0,2018,4,13,16,47,29.416,-0.0882,-0.1375,0.4687,-0.868
0.065,-0.227,-0.14,-5.3,-77.8,-4.1,0,2018,4,13,16,47,29.451,-0.0902,-0.1349,0.4814,-0.8613
0.041,0.258,0.135,-10.2,-27.8,8,0,2018,4,13,16,47,29.472,-0.0921,-0.1333,0.488,-0.8576
0.078,0.188,0.23,-21,-68.7,3.6,0,2018,4,13,16,47,29.477,-0.0956,-0.1307,0.4946,-0.8538
0.092,0.075,0.076,-26,-91.2,3,0,2018,4,13,16,47,29.513,-0.1004,-0.1256,0.5064,-0.8471
0.089,-0.009,-0.103,-20.8,-88.5,4.8,0,2018,4,13,16,47,29.535,-0.105,-0.12,0.5194,-0.8394
0.066,-0.054,-0.186,-13.7,-61.3,8.8,0,2018,4,13,16,47,29.54,-0.1092,-0.1166,0.53,-0.8327
0.071,-0.083,-0.219,-4.2,-20.6,11.2,0,2018,4,13,16,47,29.554,-0.1125,-0.1154,0.5354,-0.829
0.073,0.011,-0.232,8.1,3,11.6,0,2018,4,13,16,47,29.577,-0.114,-0.1168,0.5359,-0.8283
0.069,0.104,-0.251,21.5,-15.1,13.5,0,2018,4,13,16,47,29.614,-0.1145,-0.1201,0.5365,-0.8273
0.041,-0.006,-0.203,31.7,-32.8,12.7,0,2018,4,13,16,47,29.614,-0.1144,-0.1248,0.5405,-0.824
0.062,-0.088,-0.288,38.6,-25.5,12,0,2018,4,13,16,47,29.635,-0.1135,-0.1304,0.5455,-0.82
0.043,-0.091,-0.214,43.3,4.3,12.6,1023,2018,4,13,16,47,29.673,-0.1116,-0.1372,0.5475,-0.8178
0.002,0.04,-0.102,45.8,16.7,14.3,1023,2018,4,13,16,47,29.695,-0.109,-0.1452,0.5462,-0.8176
-0.069,0.086,-0.073,47.9,-10.4,14.3,1023,2018,4,13,16,47,29.699,-0.1071,-0.1539,0.5464,-0.8162
-0.095,-0.036,-0.053,47.1,-23.9,13.8,1023,2018,4,13,16,47,29.735,-0.1058,-0.1623,0.5501,-0.8122
-0.122,-0.065,0.207,35.8,0,10.7,1023,2018,4,13,16,47,29.735,-0.1045,-0.1693,0.5523,-0.8095
-0.153,-0.005,0.258,21.3,35.3,7.3,1023,2018,4,13,16,47,29.756,-0.1028,-0.1743,0.5493,-0.8106
-0.079,0.054,-0.022,21.7,40.6,5.2,1023,2018,4,13,16,47,29.79,-0.1011,-0.1791,0.5431,-0.814
-0.125,-0.1,0.285,17.4,32.3,1.8,1023,2018,4,13,16,47,29.815,-0.0994,-0.1827,0.5394,-0.8158
-0.11,-0.34,0.133,-3.3,122.6,-6.1,1023,2018,4,13,16,47,29.819,-0.0964,-0.1843,0.5278,-0.8234
-0.068,-0.079,0.118,-12.5,149,-13.4,0,2018,4,13,16,47,29.858,-0.091,-0.1842,0.5068,-0.8371
-0.058,0.002,0.044,-18.3,118.9,-13.7,0,2018,4,13,16,47,29.879,-0.0863,-0.183,0.487,-0.8496
-0.033,-0.062,-0.045,-20.6,124.3,-11.7,0,2018,4,13,16,47,29.883,-0.0823,-0.181,0.4694,-0.8602
0.016,0.132,-0.083,-18.6,83.8,-10.8,0,2018,4,13,16,47,29.898,-0.0789,-0.1789,0.4534,-0.8695
0.058,0.124,-0.147,-12,37.2,-3.4,0,2018,4,13,16,47,29.931,-0.0773,-0.177,0.4449,-0.8744
0.122,0.209,-0.207,1.4,-0.2,2.3,0,2018,4,13,16,47,29.954,-0.077,-0.1766,0.4426,-0.8757
0.183,0.129,-0.235,18.3,-43.2,5.7,0,2018,4,13,16,47,29.959,-0.0775,-0.178,0.4467,-0.8733
0.149,-0.157,-0.029,26.1,-50.7,6.7,0,2018,4,13,16,47,29.994,-0.0781,-0.1815,0.4554,-0.868
0.096,-0.038,0.202,17.7,0.1,5.5,0,2018,4,13,16,47,30.017,-0.0779,-0.1851,0.4582,-0.8658
0.077,0.007,0.288,5.2,-26.2,4.5,0,2018,4,13,16,47,30.021,-0.0781,-0.187,0.4599,-0.8644
0.066,0.046,0.15,-2.7,-56.4,9.5,0,2018,4,13,16,47,30.038,-0.0805,-0.187,0.4662,-0.8609
0.051,-0.175,-0.008,-2.5,-55.8,11.6,0,2018,4,13,16,47,30.061,-0.0842,-0.1863,0.475,-0.8558
0.045,-0.242,-0.178,0,13.6,8.7,0,2018,4,13,16,47,30.097,-0.0867,-0.1867,0.4778,-0.8539
-0.061,-0.094,-0.03,-11.9,140.8,14.3,0,2018,4,13,16,47,30.097,-0.086,-0.1876,0.4663,-0.8601
-0.029,0.541,0.169,-24.9,183.1,31.7,0,2018,4,13,16,47,30.12,-0.0852,-0.1899,0.4369,-0.875
-0.069,0.696,0.288,-35,-47.1,29.7,0,2018,4,13,16,47,30.154,-0.0898,-0.1887,0.4235,-0.8814
0.007,0.239,-0.073,-30.7,-304.3,17.3,0,2018,4,13,16,47,30.177,-0.1022,-0.182,0.4515,-0.8674
0.063,-0.264,-0.278,-22.5,-360.7,12.8,0,2018,4,13,16,47,30.182,-0.1176,-0.1726,0.5036,-0.8382
0.123,-0.857,-0.407,-3.5,-169.9,8.9,0,2018,4,13,16,47,30.215,-0.1289,-0.1659,0.5421,-0.8135
0.157,-0.427,-0.398,21.2,13.7,-3.2,0,2018,4,13,16,47,30.237,-0.1301,-0.1659,0.5513,-0.8071
0.092,-0.361,-0.211,39.2,100.5,-9.2,0,2018,4,13,16,47,30.242,-0.1242,-0.1711,0.5429,-0.8126
0.018,-0.156,-0.092,49,145.8,-16.5,0,2018,4,13,16,47,30.276,-0.1142,-0.1789,0.5258,-0.8236
0.027,0.194,0.311,43.5,73.7,-26.1,0,2018,4,13,16,47,30.299,-0.1032,-0.1862,0.51,-0.8333
-0.201,-0.065,0.888,0.8,43.8,-21.7,0,2018,4,13,16,47,30.304,-0.0964,-0.1878,0.5051,-0.8367
-0.109,0.154,0.432,-19.7,73.3,-19.8,0,2018,4,13,16,47,30.317,-0.0923,-0.1853,0.4957,-0.8434
-0.009,0.361,0.13,-12.9,38.9,-6.9,0,2018,4,13,16,47,30.34,-0.0899,-0.1824,0.4877,-0.8489
-0.053,0.34,0.045,-5.8,28.2,10.8,0,2018,4,13,16,47,30.375,-0.09,-0.1819,0.4827,-0.8519
-0.075,0.288,-0.032,-3.4,22.8,21.4,0,2018,4,13,16,47,30.398,-0.0921,-0.1831,0.4786,-0.8537
-0.106,0.1,-0.015,-4.5,37.8,23.2,0,2018,4,13,16,47,30.402,-0.0949,-0.1849,0.4734,-0.8559
-0.128,0.024,-0.047,-5.5,105.3,32.7,0,2018,4,13,16,47,30.436,-0.0973,-0.1874,0.4628,-0.8609
-0.046,0.556,-0.38,14.1,200,50.7,0,2018,4,13,16,47,30.458,-0.0981,-0.1938,0.4369,-0.8728
-0.064,0.747,-0.347,31,176.8,63.8,1023,2018,4,13,16,47,30.462,-0.0985,-0.2052,0.4052,-0.8854
-0.351,0.584,0.497,13,79.7,64.4,1023,2018,4,13,16,47,30.497,-0.1022,-0.216,0.3827,-0.8924
-0.38,0.616,0.82,-38.3,-77.1,67.7,1023,2018,4,13,16,47,30.521,-0.1131,-0.2181,0.3802,-0.8916
-0.101,0.127,0.177,-67,-166.6,75.5,1023,2018,4,13,16,47,30.526,-0.1332,-0.2112,0.3976,-0.8829
-0.079,-0.28,-0.037,-64.6,-97.5,79.7,1023,2018,4,13,16,47,30.559,-0.1552,-0.2031,0.4146,-0.8733
-0.212,-0.112,0.059,-62.2,-41.3,80.4,1023,2018,4,13,16,47,30.559,-0.1743,-0.1979,0.419,-0.8687
-0.101,-0.131,0.05,-64.2,-78.3,80.6,1023,2018,4,13,16,47,30.581,-0.1933,-0.193,0.4231,-0.8638
-0.06,-0.421,-0.114,-63.8,-78,78.2,1023,2018,4,13,16,47,30.618,-0.2127,-0.1864,0.4312,-0.8567
0.002,-0.377,-0.349,-52.8,-44.6,72.9,0,2018,4,13,16,47,30.639,-0.23,-0.1813,0.4356,-0.8511
0.034,-0.462,-0.305,-41.1,-18.4,59.5,0,2018,4,13,16,47,30.644,-0.2442,-0.1783,0.4362,-0.8474
0.041,-0.441,-0.295,-33.8,1,42.3,0,2018,4,13,16,47,30.678,-0.2547,-0.1763,0.4342,-0.8458
0.076,-0.429,-0.258,-26.3,15.5,24,0,2018,4,13,16,47,30.702,-0.2616,-0.1748,0.4305,-0.8459
0.095,-0.422,-0.192,-19.9,35.8,7.3,0,2018,4,13,16,47,30.707,-0.2647,-0.1737,0.4253,-0.8478
0.115,-0.369,-0.128,-16.7,53.7,-9.1,0,2018,4,13,16,47,30.722,-0.2644,-0.1731,0.4174,-0.8519
0.138,-0.252,-0.095,-14.8,37.3,-22.9,0,2018,4,13,16,47,30.745,-0.2617,-0.1718,0.4101,-0.8566
0.136,-0.228,-0.11,-13.8,11.7,-34.2,0,2018,4,13,16,47,30.779,-0.2576,-0.1686,0.4068,-0.86
0.153,-0.243,-0.141,-12.5,3,-39.5,0,2018,4,13,16,47,30.802,-0.2528,-0.1642,0.4065,-0.8624
0.145,-0.3,-0.146,-9.7,11.6,-45.7,0,2018,4,13,16,47,30.806,-0.247,-0.1598,0.4062,-0.8651
0.132,-0.262,-0.122,-6.4,22.6,-51.9,0,2018,4,13,16,47,30.82,-0.2394,-0.1561,0.4044,-0.8687
0.129,-0.209,-0.108,-3.6,20.5,-58.6,0,2018,4,13,16,47,30.842,-0.2304,-0.1525,0.4025,-0.8726
0.142,-0.171,-0.171,0.6,15.9,-62.5,0,2018,4,13,16,47,30.877,-0.2203,-0.149,0.4014,-0.8764
0.14,-0.164,-0.203,5.3,11.9,-64.7,0,2018,4,13,16,47,30.9,-0.2096,-0.1457,0.4012,-0.8796
0.134,-0.109,-0.165,12.4,5.1,-68.4,0,2018,4,13,16,47,30.905,-0.1983,-0.1428,0.4018,-0.8824
0.129,-0.112,-0.127,18.7,-2.9,-71.1,0,2018,4,13,16,47,30.939,-0.1864,-0.1403,0.404,-0.8844
0.115,-0.107,-0.139,24.4,0.1,-72,0,2018,4,13,16,47,30.961,-0.1739,-0.1385,0.4068,-0.886
0.104,-0.028,-0.138,28.5,8.4,-69.4,0,2018,4,13,16,47,30.966,-0.1611,-0.1376,0.4085,-0.8878
0.087,0.016,-0.108,31.3,14.4,-65,0,2018,4,13,16,47,31,-0.1483,-0.1373,0.4096,-0.8895
0.112,0.082,-0.087,36.7,22.5,-60.3,0,2018,4,13,16,47,31,-0.1353,-0.1379,0.4094,-0.8916
0.077,0.052,-0.082,39.4,28.9,-53.1,0,2018,4,13,16,47,31.023,-0.123,-0.1399,0.4079,-0.8937
0.038,0.084,-0.074,41.1,45,-44.6,0,2018,4,13,16,47,31.06,-0.1114,-0.1434,0.4043,-0.8963
0.021,0.123,-0.054,41.9,49.5,-33.7,0,2018,4,13,16,47,31.082,-0.1013,-0.1482,0.3984,-0.8994
-0.018,0.1,0.004,42.3,66.2,-23.6,0,2018,4,13,16,47,31.086,-0.0926,-0.1541,0.3902,-0.9029
-0.04,0.19,0.013,40.7,77.6,-13.9,0,2018,4,13,16,47,31.122,-0.0851,-0.1608,0.3794,-0.9071
-0.052,0.285,-0.042,40.8,74.6,-1.5,0,2018,4,13,16,47,31.144,-0.0791,-0.1678,0.3679,-0.9111
-0.032,0.284,-0.129,47.3,54.2,8.2,0,2018,4,13,16,47,31.148,-0.075,-0.1758,0.3579,-0.9139
-0.018,0.147,-0.271,63,37.3,16.4,0,2018,4,13,16,47,31.167,-0.0722,-0.1859,0.3514,-0.9147
-0.007,0.156,-0.322,86.9,45.3,27.9,0,2018,4,13,16,47,31.203,-0.0698,-0.1998,0.3452,-0.9143
-0.169,0.141,-0.114,102.2,70.2,36.3,0,2018,4,13,16,47,31.226,-0.0673,-0.2178,0.3359,-0.9138
-0.237,0.107,0.073,98,97.8,32.8,0,2018,4,13,16,47,31.232,-0.0636,-0.2371,0.3221,-0.9142
-0.204,0.065,0.047,80.2,113.3,23.2,0,2018,4,13,16,47,31.246,-0.0587,-0.254,0.3045,-0.9161
-0.165,0.159,-0.042,58.2,90.6,10.5,0,2018,4,13,16,47,31.264,-0.0527,-0.2672,0.2878,-0.9181
-0.256,0.351,0.433,25.2,23.7,-1.2,1023,2018,4,13,16,47,31.287,-0.0486,-0.2744,0.2779,-0.9192
-0.155,0.352,0.421,-1,-62.1,1.8,1023,2018,4,13,16,47,31.322,-0.0493,-0.2756,0.2825,-0.9174
-0.071,0.175,0.152,-5.5,-78.4,6.3,1023,2018,4,13,16,47,31.345,-0.0536,-0.2746,0.2939,-0.9139
-0.085,0.185,0.112,-4.8,-79.6,13.9,1023,2018,4,13,16,47,31.349,-0.0593,-0.2734,0.306,-0.9099
-0.079,0.045,0.117,-5.5,-74.8,17.1,1023,2018,4,13,16,47,31.383,-0.066,-0.2727,0.3174,-0.9057
-0.051,-0.073,0.069,-6.7,-40.8,17.5,1023,2018,4,13,16,47,31.407,-0.072,-0.2721,0.3257,-0.9025
0.007,0.039,0.009,-6.4,-8.5,20.2,1023,2018,4,13,16,47,31.41,-0.0764,-0.2717,0.3278,-0.9015
0.086,-0.044,-0.215,6.1,10,25.3,1023,2018,4,13,16,47,31.445,-0.0799,-0.2728,0.327,-0.9012
0.03,-0.144,-0.216,27.3,49.6,32,1023,2018,4,13,16,47,31.467,-0.0821,-0.2777,0.3211,-0.9016
-0.126,-0.227,0.006,33,86.7,26.8,1023,2018,4,13,16,47,31.472,-0.0816,-0.2856,0.3088,-0.9035
-0.052,-0.106,0.066,19.3,75.5,16.3,0,2018,4,13,16,47,31.506,-0.079,-0.292,0.2952,-0.9062
0.006,-0.166,0.019,8.6,24.2,6.2,0,2018,4,13,16,47,31.522,-0.0773,-0.2948,0.2879,-0.9078
0.022,-0.083,-0.057,7.1,8.5,1.3,0,2018,4,13,16,47,31.553,-0.0765,-0.2962,0.2861,-0.908
0.021,0.005,0.023,6.6,2.7,0.4,0,2018,4,13,16,47,31.554,-0.0759,-0.2974,0.2856,-0.9078
0.017,0.006,0.085,0.6,4.9,-1.4,0,2018,4,13,16,47,31.567,-0.0754,-0.2975,0.285,-0.908
0.011,0.087,0.021,-1.9,-2.1,-2,0,2018,4,13,16,47,31.589,-0.0752,-0.2971,0.2841,-0.9084
0,0.004,-0.004,-1.7,0.9,-0.9,0,2018,4,13,16,47,31.624,-0.0752,-0.2967,0.2845,-0.9084
-0.026,0.036,0.043,-1.1,4.9,0.4,0,2018,4,13,16,47,31.647,-0.0752,-0.2966,0.2836,-0.9087
-0.025,0.161,0.05,3.8,-3.4,1.5,0,2018,4,13,16,47,31.651,-0.0754,-0.297,0.283,-0.9088
-0.04,0.231,0.089,4.1,-16.9,5.7,0,2018,4,13,16,47,31.686,-0.0762,-0.2978,0.2845,-0.908
-0.082,0.429,0.242,-3.6,-123,11,0,2018,4,13,16,47,31.708,-0.0805,-0.2973,0.2932,-0.905
-0.167,0.144,-0.097,-14.6,-290,27.1,0,2018,4,13,16,47,31.712,-0.0954,-0.2935,0.327,-0.8931
-0.124,-0.46,0.131,-29.9,-188.6,16.5,0,2018,4,13,16,47,31.728,-0.1131,-0.2871,0.3644,-0.8785
-0.074,-0.239,0.024,-27.4,-63.5,0,0,2018,4,13,16,47,31.749,-0.122,-0.2804,0.3817,-0.8722
-0.254,-0.257,0.617,-28.5,-77.6,-29.2,0,2018,4,13,16,47,31.784,-0.1241,-0.2755,0.3882,-0.8705
-0.036,-0.331,0.043,-27.5,-56,-46.5,0,2018,4,13,16,47,31.807,-0.1239,-0.2657,0.4026,-0.8671
0.038,-0.243,0.154,-27.8,-28.2,-52.7,0,2018,4,13,16,47,31.811,-0.12,-0.257,0.411,-0.8663
0.095,-0.093,0.033,-26.4,19.3,-48.3,0,2018,4,13,16,47,31.845,-0.1145,-0.2489,0.4135,-0.8682
0.096,0.056,-0.085,-20.6,62.5,-36.7,0,2018,4,13,16,47,31.868,-0.1074,-0.2425,0.4085,-0.8733
0.066,0.127,-0.149,-16.4,88.5,-27.2,0,2018,4,13,16,47,31.873,-0.1005,-0.2388,0.3982,-0.8798
0.107,0.303,-0.253,-7.7,96.6,-15,0,2018,4,13,16,47,31.906,-0.0944,-0.2375,0.3845,-0.887
0.068,0.232,-0.264,-3.4,104.8,-4.7,0,2018,4,13,16,47,31.931,-0.089,-0.2377,0.3691,-0.894
0.033,0.183,-0.259,-1.1,119,6.5,0,2018,4,13,16,47,31.935,-0.0847,-0.2391,0.3514,-0.9011
0,0.134,-0.221,3.3,123.9,12.6,0,2018,4,13,16,47,31.948,-0.0811,-0.2417,0.3313,-0.9084
0.029,0.157,-0.294,14.9,67.7,12,0,2018,4,13,16,47,31.983,-0.0784,-0.2452,0.3151,-0.9134
0.089,0.129,-0.363,26.1,9.2,14,0,2018,4,13,16,47,32.005,-0.0778,-0.2497,0.3097,-0.9141
0.133,0.089,-0.345,32.4,19.8,22.2,0,2018,4,13,16,47,32.011,-0.0787,-0.2556,0.3077,-0.913
0.089,-0.088,-0.173,30.8,58.2,22,0,2018,4,13,16,47,32.046,-0.0787,-0.2623,0.3008,-0.9134
0.107,0.01,-0.093,30,66.2,24.5,0,2018,4,13,16,47,32.068,-0.0776,-0.2691,0.2895,-0.9152
0.102,0.131,-0.101,29.3,9.2,23.8,0,2018,4,13,16,47,32.072,-0.0779,-0.275,0.282,-0.9158
0.093,-0.041,-0.174,33,-30.2,26.9,0,2018,4,13,16,47,32.106,-0.0815,-0.2813,0.2831,-0.9132
0.01,-0.138,-0.021,30.4,-25.6,22.2,0,2018,4,13,16,47,32.131,-0.0852,-0.2875,0.2869,-0.9098
-0.122,-0.169,0.403,9.7,-47,14.1,0,2018,4,13,16,47,32.135,-0.0885,-0.2905,0.2925,-0.9067
-0.04,0.078,0.338,-0.5,-63,15,0,2018,4,13,16,47,32.149,-0.0932,-0.2906,0.2997,-0.9038
0.012,-0.043,0.169,4.7,-88.7,14,1023,2018,4,13,16,47,32.183,-0.0996,-0.29,0.3116,-0.8993
-0.077,-0.135,0.268,9.7,-41,12.1,1023,2018,4,13,16,47,32.205,-0.1045,-0.2898,0.3215,-0.8953
-0.098,-0.076,0.323,9.7,10.9,4.8,1023,2018,4,13,16,47,32.212,-0.1055,-0.2909,0.3223,-0.8945
-0.072,-0.102,0.295,2.2,11.2,-8.7,1023,2018,4,13,16,47,32.246,-0.104,-0.2912,0.3195,-0.8956
-0.107,0.098,0.446,-7.8,-33.2,-17,1023,2018,4,13,16,47,32.268,-0.1024,-0.2898,0.3211,-0.8957
-0.178,0.001,0.386,-26.6,-96.2,-25.4,0,2018,4,13,16,47,32.273,-0.1035,-0.2846,0.3325,-0.8931
-0.162,-0.148,0.347,-46.1,-115.1,-34.5,0,2018,4,13,16,47,32.308,-0.1065,-0.2748,0.3502,-0.889
-0.146,-0.082,0.272,-59.7,-101.1,-41.6,0,2018,4,13,16,47,32.332,-0.1091,-0.2616,0.367,-0.8859
-0.05,-0.054,0.091,-58.9,-79.8,-41,0,2018,4,13,16,47,32.336,-0.1108,-0.2475,0.3812,-0.8837
-0.015,-0.079,-0.043,-48.2,-21.6,-32.5,0,2018,4,13,16,47,32.371,-0.1108,-0.2356,0.3903,-0.883
-0.019,0.012,-0.172,-36.1,49.9,-20.1,0,2018,4,13,16,47,32.393,-0.1089,-0.2281,0.3885,-0.886
0.005,0.069,-0.25,-23.5,92.1,-11.6,0,2018,4,13,16,47,32.397,-0.1056,-0.2239,0.3767,-0.8926
-0.004,0.018,-0.267,-11.9,80.6,-11.5,0,2018,4,13,16,47,32.411,-0.1015,-0.2221,0.3628,-0.8992
-0.019,-0.009,-0.329,-4.5,66.4,-13.9,0,2018,4,13,16,47,32.449,-0.0971,-0.2213,0.352,-0.9042
-0.014,0.086,-0.318,-0.4,56.5,-12.5,0,2018,4,13,16,47,32.47,-0.0928,-0.2211,0.3428,-0.9082
0.026,0.052,-0.398,3.5,55.7,-12.5,0,2018,4,13,16,47,32.474,-0.0886,-0.2215,0.3345,-0.9116
0.076,0.094,-0.431,12.1,60.9,-13.8,0,2018,4,13,16,47,32.508,-0.0837,-0.2228,0.3257,-0.9149
0.094,0.102,-0.382,21,47.2,-14.7,0,2018,4,13,16,47,32.531,-0.0783,-0.2255,0.3177,-0.9176
0.131,0.11,-0.365,27.5,29.3,-12,0,2018,4,13,16,47,32.537,-0.0733,-0.2292,0.3125,-0.9188
0.109,0.09,-0.268,31,20.8,-8.6,0,2018,4,13,16,47,32.571,-0.069,-0.2338,0.3094,-0.9191
0.146,0.092,-0.285,35,2.9,-6.2,0,2018,4,13,16,47,32.593,-0.0655,-0.2388,0.3079,-0.9185
0.131,-0.04,-0.215,37.3,-18.1,-0.3,0,2018,4,13,16,47,32.598,-0.0634,-0.2444,0.3099,-0.9166
0.096,-0.074,-0.146,39.4,-21.7,7,0,2018,4,13,16,47,32.612,-0.0628,-0.2505,0.3137,-0.9136
0.052,-0.053,-0.082,39.1,-14.3,13.7,0,2018,4,13,16,47,32.646,-0.0629,-0.2571,0.3169,-0.9107
-0.026,-0.008,0.006,33,-24.4,17.2,0,2018,4,13,16,47,32.67,-0.064,-0.2635,0.3197,-0.9078
-0.071,0.339,0.452,12,-107.6,17,0,2018,4,13,16,47,32.675,-0.0677,-0.2679,0.3277,-0.9034
-0.118,0.038,0.486,-9.7,-198.2,16,0,2018,4,13,16,47,32.708,-0.078,-0.2666,0.3537,-0.8931
-0.122,-0.415,0.348,-12.4,-87.6,19.6,0,2018,4,13,16,47,32.731,-0.0885,-0.2631,0.3762,-0.8839
-0.112,-0.058,0.399,-5.3,-4.7,17.8,0,2018,4,13,16,47,32.736,-0.0933,-0.2619,0.3802,-0.882
-0.037,-0.221,0.378,-4.2,9.9,7.3,0,2018,4,13,16,47,32.769,-0.0956,-0.2621,0.3794,-0.8821
-0.007,-0.13,0.442,-4.9,52.5,-4.3,0,2018,4,13,16,47,32.792,-0.0943,-0.2621,0.3739,-0.8846
-0.052,0.009,0.354,-11.4,35.7,-8.3,0,2018,4,13,16,47,32.797,-0.0916,-0.2612,0.3669,-0.888
-0.001,0.085,0.087,-14.6,36.6,-5.3,0,2018,4,13,16,47,32.831,-0.09,-0.2593,0.3611,-0.8911
-0.072,0.013,0.236,-33.2,17.2,-9,0,2018,4,13,16,47,32.831,-0.0892,-0.2555,0.3558,-0.8944
-0.019,-0.004,0.114,-47.4,-17.4,-11.8,0,2018,4,13,16,47,32.854,-0.0902,-0.2479,0.3557,-0.8965
-0.028,0.026,-0.094,-44.2,-0.9,-2.2,0,2018,4,13,16,47,32.889,-0.0926,-0.2398,0.3573,-0.8978
-0.009,0.006,-0.286,-29.9,18.5,2.1,0,2018,4,13,16,47,32.912,-0.0946,-0.2344,0.355,-0.8999
-0.102,0.153,0.138,-19.4,-31,-1.2,0,2018,4,13,16,47,32.917,-0.0958,-0.2318,0.3529,-0.9013
-0.182,-0.081,0.322,-60.7,-157.9,-12.9,0,2018,4,13,16,47,32.951,-0.1016,-0.2213,0.3728,-0.8953
0.178,-0.278,0.006,-54.4,-62.9,-12.3,0,2018,4,13,16,47,32.975,-0.1079,-0.209,0.3891,-0.8906
0.034,-0.402,-0.128,-35.9,53.9,-15.4,0,2018,4,13,16,47,32.98,-0.109,-0.201,0.3895,-0.8921
-0.005,0.001,-0.299,-14.5,140.5,-12.5,1023,2018,4,13,16,47,33.013,-0.1045,-0.1983,0.3723,-0.9006
-0.102,0.004,-0.215,-8,96.8,-19,1023,2018,4,13,16,47,33.035,-0.0986,-0.198,0.353,-0.909
-0.108,-0.013,-0.223,-6.7,43.4,-33.2,1023,2018,4,13,16,47,33.039,-0.0925,-0.1963,0.3433,-0.9137
-0.07,-0.093,-0.292,1,37.6,-41.9,1023,2018,4,13,16,47,33.073,-0.0853,-0.1941,0.3386,-0.9167
-0.09,-0.066,-0.319,11.1,47.6,-46.7,1023,2018,4,13,16,47,33.073,-0.0763,-0.1931,0.3334,-0.9196
-0.027,0.02,-0.463,25.7,61.5,-45.8,1023,2018,4,13,16,47,33.096,-0.0658,-0.194,0.3264,-0.9227
0.037,0.031,-0.503,44.7,79.2,-44.7,1023,2018,4,13,16,47,33.13,-0.0542,-0.198,0.317,-0.9259
0.01,-0.095,-0.409,61,118.7,-43.6,1023,2018,4,13,16,47,33.154,-0.0407,-0.205,0.3031,-0.9297
-0.085,-0.178,-0.277,73,163,-52.5,0,2018,4,13,16,47,33.159,-0.0242,-0.2145,0.2819,-0.9348
-0.018,-0.07,-0.21,67,198.9,-56,0,2018,4,13,16,47,33.194,-0.0048,-0.2241,0.2542,-0.9407
0.049,0.308,-0.087,54.6,198.1,-48.1,0,2018,4,13,16,47,33.218,0.0145,-0.2319,0.2226,-0.9467
0.264,0.543,-0.068,44.5,116.9,-25.6,0,2018,4,13,16,47,33.223,0.029,-0.2381,0.1976,-0.9504
0.241,0.36,0.053,38.4,41.6,-2.5,0,2018,4,13,16,47,33.239,0.0356,-0.2441,0.1856,-0.9511
0.062,0.189,0.237,26.3,4.5,15.9,0,2018,4,13,16,47,33.273,0.0362,-0.2497,0.182,-0.9503
-0.067,0.239,0.4,7,-21.2,28.8,0,2018,4,13,16,47,33.297,0.0327,-0.2532,0.1819,-0.9495
-0.076,0.192,0.281,-7.9,-66,34,0,2018,4,13,16,47,33.301,0.0253,-0.2541,0.1877,-0.9484
-0.083,0.145,0.139,-7.8,-115.7,32.5,0,2018,4,13,16,47,33.314,0.0153,-0.2541,0.2017,-0.9457
-0.123,0.002,0.181,-4.6,-120.9,24.7,0,2018,4,13,16,47,33.337,0.0045,-0.2545,0.2201,-0.9416
-0.104,-0.055,0.106,3,-86.2,14.6,0,2018,4,13,16,47,33.372,-0.0033,-0.2552,0.2357,-0.9376
-0.1,-0.008,0.106,4.9,-72.3,8.5,0,2018,4,13,16,47,33.396,-0.0085,-0.2567,0.2476,-0.9341
-0.118,0.055,0.201,-3.2,-75.5,3.8,0,2018,4,13,16,47,33.401,-0.013,-0.2573,0.2582,-0.931
-0.096,0.141,0.235,-17.7,-93.2,0.4,0,2018,4,13,16,47,33.435,-0.0175,-0.2554,0.2715,-0.9277
-0.143,0.036,0.209,-35.5,-121.5,-4.4,0,2018,4,13,16,47,33.459,-0.0235,-0.2506,0.2886,-0.9237
-0.132,-0.064,0.192,-54.1,-127.1,-8.3,0,2018,4,13,16,47,33.463,-0.0306,-0.2424,0.3085,-0.9192
-0.083,-0.04,0.114,-65.6,-105.4,-9.8,0,2018,4,13,16,47,33.497,-0.0375,-0.2316,0.3266,-0.9155
-0.014,0.029,0.004,-66.1,-103,-8.8,0,2018,4,13,16,47,33.52,-0.0441,-0.2198,0.3425,-0.9123
0.053,-0.053,-0.109,-53.2,-92.3,-5.1,0,2018,4,13,16,47,33.525,-0.0503,-0.2089,0.3586,-0.9083
0.08,-0.113,-0.233,-34.2,-51,2.3,0,2018,4,13,16,47,33.539,-0.0554,-0.2012,0.3701,-0.9052
0.085,-0.15,-0.334,-16.1,8.3,9.1,0,2018,4,13,16,47,33.573,-0.0586,-0.1975,0.3728,-0.9047
0.105,-0.145,-0.412,-0.8,58.6,14.1,0,2018,4,13,16,47,33.595,-0.0598,-0.1974,0.3667,-0.9071
0.099,-0.061,-0.36,10.8,95.6,16.6,0,2018,4,13,16,47,33.6,-0.0592,-0.2002,0.3534,-0.9118
0.047,-0.035,-0.247,14.6,98,14.4,0,2018,4,13,16,47,33.635,-0.0574,-0.2043,0.3372,-0.9171
0.077,0.027,-0.279,16.8,83.2,13.8,0,2018,4,13,16,47,33.659,-0.0554,-0.2085,0.322,-0.9217
0.09,0.105,-0.334,21,41.4,13.5,0,2018,4,13,16,47,33.664,-0.0543,-0.213,0.3116,-0.9244
0.095,0.037,-0.3,25.6,-8,7.9,0,2018,4,13,16,47,33.698,-0.0542,-0.2175,0.3091,-0.9242
0.129,-0.073,-0.329,32.2,-27.8,2,0,2018,4,13,16,47,33.72,-0.0541,-0.2222,0.3125,-0.9219
0.138,-0.103,-0.316,40.2,-20.8,0.2,0,2018,4,13,16,47,33.724,-0.0533,-0.2278,0.3169,-0.9191
0.132,-0.053,-0.321,51.8,-21.9,-0.4,0,2018,4,13,16,47,33.739,-0.0515,-0.235,0.3205,-0.9161
0.06,-0.13,-0.315,57.6,-1.3,0.3,0,2018,4,13,16,47,33.772,-0.0491,-0.2439,0.3236,-0.9128
-0.047,0.423,0.597,34.3,-22.3,11.7,0,2018,4,13,16,47,33.795,-0.0469,-0.2523,0.3241,-0.9105
-0.166,0.25,0.847,-4.9,-64.8,17.1,0,2018,4,13,16,47,33.801,-0.0504,-0.255,0.3315,-0.9069
-0.124,0.194,0.432,-20,-76.1,19.1,0,2018,4,13,16,47,33.837,-0.0571,-0.2532,0.3405,-0.9036
-0.04,0.197,0.229,-8.2,-141.2,22.8,1023,2018,4,13,16,47,33.861,-0.0661,-0.2509,0.3571,-0.8972
-0.05,0.012,0.218,0.3,-139,23,1023,2018,4,13,16,47,33.865,-0.0765,-0.2501,0.3787,-0.8877
-0.098,-0.448,0.185,-8,-75.5,12.6,1023,2018,4,13,16,47,33.899,-0.0842,-0.2489,0.3943,-0.8805
-0.065,-0.36,-0.043,-15.5,-12,-1.5,1023,2018,4,13,16,47,33.922,-0.0874,-0.2469,0.3996,-0.8784
-0.023,-0.217,-0.005,-23.1,-15.5,-10.4,1023,2018,4,13,16,47,33.927,-0.088,-0.2432,0.4013,-0.8786
-0.057,0.178,0.058,-32.9,-54.6,-10.6,1023,2018,4,13,16,47,33.941,-0.0898,-0.2373,0.4067,-0.8775
-0.075,0.029,0.357,-60.2,-156.5,-15.5,1023,2018,4,13,16,47,33.965,-0.0957,-0.2273,0.4231,-0.8718
-0.023,-0.217,0.127,-71.7,-147.4,-15.6,1023,2018,4,13,16,47,34,-0.1046,-0.2125,0.4467,-0.8627
0.07,-0.237,-0.101,-56.6,-72.7,-13.1,1023,2018,4,13,16,47,34,-0.1115,-0.1992,0.4625,-0.8566
0.023,-0.16,-0.128,-32.1,-0.4,-7.6,0,2018,4,13,16,47,34.022,-0.1146,-0.1911,0.4671,-0.8556
0.001,-0.083,-0.242,-10.4,61.9,-2.6,0,2018,4,13,16,47,34.055,-0.1146,-0.1883,0.4618,-0.8591
-0.015,-0.051,-0.279,5,101.4,-1.9,0,2018,4,13,16,47,34.079,-0.1118,-0.1895,0.4489,-0.866
0.028,0.079,-0.344,17.1,114,-3.7,0,2018,4,13,16,47,34.084,-0.1068,-0.193,0.4326,-0.8741
0.036,0.143,-0.355,28.8,105.5,-5.4,0,2018,4,13,16,47,34.118,-0.1006,-0.1983,0.4161,-0.8816
0.01,0.054,-0.401,39.7,97.6,-7.3,0,2018,4,13,16,47,34.141,-0.0936,-0.2049,0.4014,-0.8877
0.028,0.054,-0.376,47.1,93,-8.5,0,2018,4,13,16,47,34.145,-0.0858,-0.2127,0.3876,-0.8927
0.03,0.002,-0.264,49.7,96.8,-9.3,0,2018,4,13,16,47,34.178,-0.0776,-0.2211,0.3739,-0.8973
0.063,-0.026,-0.227,51.3,105.3,-14,0,2018,4,13,16,47,34.202,-0.0686,-0.2296,0.3591,-0.9019
0.04,0.111,-0.247,52.2,90.1,-19.5,0,2018,4,13,16,47,34.207,-0.0586,-0.238,0.3446,-0.9061
-0.002,0.455,0.596,24.9,1.2,-15.6,0,2018,4,13,16,47,34.223,-0.0508,-0.2443,0.3371,-0.9077
-0.196,-0.035,0.734,-12.7,-32.1,-7.4,0,2018,4,13,16,47,34.258,-0.0498,-0.2444,0.3423,-0.9058
-0.058,0.08,0.415,-29.4,3,-5.9,0,2018,4,13,16,47,34.282,-0.0504,-0.2402,0.3431,-0.9066
0.027,0.049,0.085,-30.1,-39.9,0.5,0,2018,4,13,16,47,34.286,-0.0527,-0.2349,0.346,-0.9067
0.05,-0.141,-0.065,-18.7,-18.6,1.8,0,2018,4,13,16,47,34.32,-0.0557,-0.2305,0.3514,-0.9056
0.065,-0.134,0.005,-9.4,15.4,0.9,0,2018,4,13,16,47,34.344,-0.0565,-0.2282,0.3514,-0.9061
0.046,-0.072,0.02,-5,11.7,-1.7,0,2018,4,13,16,47,34.348,-0.0559,-0.2267,0.3492,-0.9074
0.063,-0.124,-0.018,-5,7.3,-4,0,2018,4,13,16,47,34.363,-0.055,-0.2252,0.3487,-0.908
0.133,-0.217,-0.158,0.3,41.9,-1.4,0,2018,4,13,16,47,34.385,-0.0539,-0.2248,0.3451,-0.9096
0.085,-0.132,-0.073,6,74.8,-0.4,0,2018,4,13,16,47,34.419,-0.0513,-0.2259,0.3353,-0.9131
0.034,-0.017,-0.008,8.2,83.9,-1.3,0,2018,4,13,16,47,34.442,-0.0472,-0.2275,0.3229,-0.9174
0.012,0.02,0.054,6.8,71.9,-3.1,0,2018,4,13,16,47,34.446,-0.0432,-0.229,0.3103,-0.9215
0,0.034,0.074,2.9,63.7,-4.7,0,2018,4,13,16,47,34.463,-0.0397,-0.2298,0.2991,-0.9252
-0.005,0.065,0.004,0,50.8,-5.9,0,2018,4,13,16,47,34.485,-0.0365,-0.2301,0.2893,-0.9284
0.003,-0.014,-0.135,3.1,47.4,-4.8,0,2018,4,13,16,47,34.522,-0.0338,-0.2305,0.2819,-0.9306
-0.026,-0.04,-0.095,6.2,47,-7.7,0,2018,4,13,16,47,34.543,-0.0305,-0.2319,0.2752,-0.9324
-0.023,-0.123,-0.05,6.6,47,-12.2,0,2018,4,13,16,47,34.548,-0.0266,-0.2331,0.2692,-0.934
-0.016,-0.041,-0.062,8.7,56.9,-14,0,2018,4,13,16,47,34.583,-0.0218,-0.2342,0.2614,-0.936
-0.035,0.011,0.007,6.3,43.9,-16.6,0,2018,4,13,16,47,34.606,-0.0169,-0.2353,0.2536,-0.938
-0.01,-0.18,-0.063,2.6,51.1,-19.4,0,2018,4,13,16,47,34.61,-0.0119,-0.2354,0.2476,-0.9397
0.037,-0.069,-0.087,7.4,79.5,-18.7,0,2018,4,13,16,47,34.645,-0.0056,-0.2354,0.2383,-0.9421
0.018,0.037,0.024,12.7,90.2,-18.2,0,2018,4,13,16,47,34.645,0.0015,-0.2362,0.2249,-0.9452
-0.006,-0.018,0.095,9.9,91.2,-16.7,0,2018,4,13,16,47,34.667,0.0083,-0.2372,0.2106,-0.9482
0.003,0.022,0.078,4.5,101.6,-17.9,0,2018,4,13,16,47,34.701,0.0155,-0.2371,0.1949,-0.9515
-0.015,0.014,-0.053,4.7,103.4,-18.8,0,2018,4,13,16,47,34.724,0.023,-0.2368,0.1783,-0.9547
-0.055,0.07,-0.115,8,107.6,-18.8,1023,2018,4,13,16,47,34.728,0.0305,-0.2376,0.1612,-0.9573
-0.083,0.126,-0.057,6.9,98,-19,1023,2018,4,13,16,47,34.763,0.0382,-0.2379,0.1447,-0.9596
-0.101,0.074,0.072,-1.1,89,-22.5,1023,2018,4,13,16,47,34.785,0.0456,-0.2373,0.1296,-0.9616
-0.068,0.101,-0.059,-6.5,69.8,-22,1023,2018,4,13,16,47,34.789,0.0523,-0.2359,0.1166,-0.9633
0.013,0.143,-0.179,-2.5,45,-14.9,1023,2018,4,13,16,47,34.825,0.0577,-0.234,0.1079,-0.9644
0.055,0.11,-0.173,8.3,28.8,-7.2,1023,2018,4,13,16,47,34.848,0.0608,-0.2343,0.1017,-0.9648
0.003,0.065,0.013,14.3,17.5,-1.5,1023,2018,4,13,16,47,34.852,0.0624,-0.2362,0.0971,-0.9648
-0.016,0.041,0.082,11.3,18.5,1,1023,2018,4,13,16,47,34.868,0.0633,-0.2381,0.0934,-0.9646
-0.015,0.022,0.047,5.1,10.2,3.8,0,2018,4,13,16,47,34.889,0.0635,-0.2391,0.0904,-0.9646
0.019,-0.027,-0.042,4.7,6.7,5.3,0,2018,4,13,16,47,34.906,0.0631,-0.2399,0.0889,-0.9646
0.022,-0.056,-0.052,8.4,7.4,4.8,0,2018,4,13,16,47,34.929,0.0628,-0.241,0.0881,-0.9644
0.015,-0.065,-0.012,10.7,18.4,2,0,2018,4,13,16,47,34.962,0.0631,-0.2426,0.0864,-0.9641
-0.013,-0.035,0.011,9.7,27.8,0.7,0,2018,4,13,16,47,34.986,0.0642,-0.2441,0.0827,-0.964
-0.027,-0.046,-0.015,5.2,24.8,0.9,0,2018,4,13,16,47,34.99,0.0653,-0.2453,0.0784,-0.964
0.009,-0.036,-0.07,1.6,25.9,2.4,0,2018,4,13,16,47,35.023,0.0662,-0.2459,0.0746,-0.9641
0.023,-0.046,-0.003,1,27.3,-0.4,0,2018,4,13,16,47,35.047,0.0673,-0.2457,0.0705,-0.9644
0.033,0.01,-0.054,6.4,20.8,-2.5,0,2018,4,13,16,47,35.052,0.0688,-0.2459,0.0666,-0.9645
0.019,-0.019,-0.068,10.3,13.6,-1.4,0,2018,4,13,16,47,35.085,0.07,-0.2472,0.0639,-0.9642
0.043,0.033,-0.056,13.3,11.9,-0.6,0,2018,4,13,16,47,35.109,0.0708,-0.2491,0.0618,-0.9638
0.038,0.102,-0.008,16.1,2.5,2.1,0,2018,4,13,16,47,35.114,0.0711,-0.2513,0.0596,-0.9634
0.005,0.119,0.081,12.8,-9.6,4.6,0,2018,4,13,16,47,35.127,0.0704,-0.2536,0.0593,-0.9628
-0.023,0.041,0.079,5.7,-14.7,7.5,0,2018,4,13,16,47,35.161,0.0686,-0.2551,0.0604,-0.9625
0.024,0.263,0.228,1,-91.6,5.4,0,2018,4,13,16,47,35.184,0.0655,-0.2569,0.0668,-0.9618
-0.027,-0.216,0.247,-18.8,-126.9,3.2,0,2018,4,13,16,47,35.19,0.0592,-0.2564,0.0873,-0.9607
-0.021,-0.187,0.28,-37.9,-101.5,-1.8,0,2018,4,13,16,47,35.224,0.0536,-0.2527,0.1067,-0.9601
-0.022,-0.14,0.244,-50.7,-81.1,-7.5,0,2018,4,13,16,47,35.247,0.0497,-0.2454,0.1226,-0.9603
0.024,-0.102,0.094,-51.4,-72.3,-10.4,0,2018,4,13,16,47,35.251,0.0471,-0.2364,0.1369,-0.9607
-0.014,-0.145,0.074,-47.2,-56,-17.1,0,2018,4,13,16,47,35.286,0.0458,-0.228,0.1496,-0.9609
-0.048,-0.038,0.09,-46.6,-36.9,-22,0,2018,4,13,16,47,35.307,0.0463,-0.2199,0.159,-0.9613
-0.058,0.02,0.037,-44.8,-27.3,-22.6,0,2018,4,13,16,47,35.311,0.0475,-0.2119,0.1652,-0.962
-0.121,0.019,-0.028,-43.3,-13.2,-21,0,2018,4,13,16,47,35.327,0.049,-0.2048,0.1697,-0.9627
-0.168,0.115,-0.08,-40.9,8.4,-17.8,0,2018,4,13,16,47,35.348,0.0508,-0.1974,0.171,-0.9639
-0.196,0.271,-0.092,-40,14.1,-11.9,0,2018,4,13,16,47,35.382,0.0527,-0.1901,0.1694,-0.9655
-0.213,0.339,-0.1,-41.9,-15.4,-1.9,0,2018,4,13,16,47,35.405,0.0527,-0.183,0.1699,-0.9668
-0.195,0.431,-0.167,-42.2,-57.3,13.2,0,2018,4,13,16,47,35.41,0.0493,-0.1764,0.1764,-0.9671
-0.146,0.326,-0.325,-38.8,-69.9,28.7,0,2018,4,13,16,47,35.444,0.0422,-0.1707,0.1878,-0.9663
-0.099,0.359,-0.446,-24.2,-43.4,41.6,0,2018,4,13,16,47,35.469,0.0334,-0.1669,0.1965,-0.9655
-0.087,0.261,-0.399,-7,-21.8,49.3,0,2018,4,13,16,47,35.473,0.0242,-0.1661,0.2006,-0.9651
-0.051,0.197,-0.246,7.3,-18.7,53.8,0,2018,4,13,16,47,35.507,0.015,-0.1683,0.2024,-0.9646
-0.065,0.163,-0.013,8.9,0.9,59.9,0,2018,4,13,16,47,35.53,0.0055,-0.1718,0.2021,-0.9641
-0.061,0.128,0.011,0,3.1,68.5,0,2018,4,13,16,47,35.535,-0.005,-0.1748,0.1995,-0.9641
0.053,0.229,0.038,-6,-32.9,79.6,0,2018,4,13,16,47,35.552,-0.018,-0.1768,0.1992,-0.9636
-0.045,-0.21,0.228,-33.8,-139.6,76.7,1023,2018,4,13,16,47,35.568,-0.0521,-0.1745,0.2248,-0.9572
-0.011,-0.311,0.091,-48.1,-163.8,65.5,1023,2018,4,13,16,47,35.589,-0.0702,-0.1686,0.2483,-0.9512
0.056,-0.371,-0.071,-51.9,-173.4,51.2,1023,2018,4,13,16,47,35.624,-0.0871,-0.1605,0.2741,-0.9441
0.097,-0.399,-0.113,-45.2,-163,34.6,1023,2018,4,13,16,47,35.646,-0.1011,-0.1518,0.2999,-0.9363
0.114,-0.401,-0.146,-33,-126.5,19.7,1023,2018,4,13,16,47,35.652,-0.1114,-0.1442,0.3223,-0.9289
0.152,-0.341,-0.186,-19.4,-65.2,8.3,1023,2018,4,13,16,47,35.688,-0.1173,-0.1389,0.3369,-0.9237
0.186,-0.261,-0.232,-4.6,-5.1,1.4,1023,2018,4,13,16,47,35.71,-0.1196,-0.1366,0.3418,-0.922
0.172,-0.144,-0.235,11.6,33.6,-1.1,1023,2018,4,13,16,47,35.714,-0.1189,-0.1375,0.3391,-0.9229
0.109,-0.089,-0.174,25.5,60,-2,1023,2018,4,13,16,47,35.75,-0.1163,-0.1416,0.3318,-0.9253
0.018,-0.17,-0.136,30.5,87.6,-5,1023,2018,4,13,16,47,35.772,-0.1122,-0.1476,0.3205,-0.9288
0.001,-0.074,-0.084,27.2,112,-9.5,0,2018,4,13,16,47,35.776,-0.1067,-0.1539,0.3049,-0.9337
0.027,0.04,-0.03,20.8,103.9,-12.3,0,2018,4,13,16,47,35.811,-0.1005,-0.1593,0.2879,-0.9389
0.023,0.051,0.034,15.3,71.7,-16.2,0,2018,4,13,16,47,35.833,-0.0949,-0.1628,0.2736,-0.9431
0.006,0.028,0.052,10.4,43.7,-17.8,0,2018,4,13,16,47,35.837,-0.0898,-0.1649,0.2645,-0.9459
-0.018,0.027,0.058,4.6,22.1,-18.4,0,2018,4,13,16,47,35.854,-0.0856,-0.1657,0.2593,-0.9475
-0.018,0.029,0.011,0.5,8.5,-17.4,0,2018,4,13,16,47,35.887,-0.0823,-0.1655,0.2572,-0.9484
-0.003,0.027,-0.078,3,1.7,-15.1,0,2018,4,13,16,47,35.909,-0.0794,-0.1654,0.2568,-0.9488
-0.02,-0.007,-0.083,4.3,17.2,-14,0,2018,4,13,16,47,35.914,-0.0766,-0.166,0.2565,-0.949
-0.047,-0.015,-0.03,2.9,27.2,-12.3,0,2018,4,13,16,47,35.949,-0.0736,-0.1668,0.2534,-0.9499
-0.037,0.061,-0.005,-1.2,39.4,-7.9,0,2018,4,13,16,47,35.971,-0.071,-0.1674,0.248,-0.9515
-0.023,0.13,-0.003,-3.9,34.4,-2.3,0,2018,4,13,16,47,35.975,-0.0695,-0.1677,0.2408,-0.9534
0,0.142,0.013,-2.9,16.1,2.1,0,2018,4,13,16,47,36.009,-0.0691,-0.1676,0.2354,-0.9548
-0.004,0.095,0.053,-1.6,-4.4,5.5,0,2018,4,13,16,47,36.031,-0.0701,-0.1675,0.2333,-0.9552
0.014,0.044,0.065,0,-11.9,6.7,0,2018,4,13,16,47,36.035,-0.0715,-0.1673,0.2339,-0.955
0.023,-0.046,0.009,1.9,-1.6,8.4,0,2018,4,13,16,47,36.07,-0.073,-0.1673,0.2348,-0.9547
0.031,-0.195,-0.058,1.1,34.1,8.4,0,2018,4,13,16,47,36.092,-0.0738,-0.1679,0.2326,-0.955
0.062,-0.051,-0.027,2.9,74.2,10.1,0,2018,4,13,16,47,36.096,-0.0735,-0.1692,0.2232,-0.9571
0.081,0.068,0.046,5.7,78.1,10.7,0,2018,4,13,16,47,36.13,-0.0726,-0.1705,0.2094,-0.96
0.054,0.109,0.106,5.4,49.3,12.6,0,2018,4,13,16,47,36.152,-0.0724,-0.1726,0.1983,-0.962
0.032,-0.1,0.048,-7.5,64.6,19.1,0,2018,4,13,16,47,36.156,-0.0734,-0.1732,0.1891,-0.9637
0.073,-0.551,-0.143,-21.9,192.9,23.2,0,2018,4,13,16,47,36.193,-0.0739,-0.1723,0.1661,-0.9681
0.104,0.019,-0.088,-5.8,247.7,17.3,0,2018,4,13,16,47,36.214,-0.0705,-0.1734,0.1256,-0.9742
0.101,0.275,0.026,3.5,170.4,20.5,0,2018,4,13,16,47,36.218,-0.0672,-0.1758,0.0886,-0.9781
0.026,0.224,0.066,5.8,67.1,21.1,0,2018,4,13,16,47,36.254,-0.0672,-0.1784,0.068,-0.9792
-0.003,0.071,0.025,7.7,-10.4,19.7,0,2018,4,13,16,47,36.254,-0.07,-0.18,0.063,-0.9791
-0.026,0.001,-0.011,11.9,-57.4,17.4,0,2018,4,13,16,47,36.277,-0.0743,-0.1815,0.0685,-0.9781
-0.068,-0.08,-0.055,11,-80.9,11.6,0,2018,4,13,16,47,36.295,-0.0789,-0.1833,0.0811,-0.9765
-0.056,-0.169,-0.085,8.7,-58.6,1.4,0,2018,4,13,16,47,36.318,-0.0821,-0.1841,0.0935,-0.9749
-0.091,-0.203,-0.061,6.9,-13.8,-9.3,0,2018,4,13,16,47,36.334,-0.0825,-0.1849,0.0997,-0.9741
-0.094,-0.09,0.005,3.4,9.7,-17.5,0,2018,4,13,16,47,36.358,-0.0799,-0.1857,0.1002,-0.9742
-0.067,-0.02,0.017,-2.5,13.3,-20.2,0,2018,4,13,16,47,36.375,-0.0761,-0.1862,0.0991,-0.9745
-0.048,-0.116,-0.027,-12.7,36,-19.8,0,2018,4,13,16,47,36.398,-0.0721,-0.1852,0.0965,-0.9752
-0.02,-0.058,-0.039,-11.7,66.1,-19.1,0,2018,4,13,16,47,36.434,-0.0671,-0.1837,0.0888,-0.9766
0,0.049,-0.039,-8.1,68.4,-17.7,1023,2018,4,13,16,47,36.457,-0.0619,-0.1828,0.0775,-0.9781
0.017,0.104,-0.038,-5.4,45.5,-14.2,1023,2018,4,13,16,47,36.462,-0.0576,-0.1822,0.0673,-0.9792
0.009,0.077,-0.054,-3.3,28.9,-9.8,1023,2018,4,13,16,47,36.475,-0.0547,-0.1818,0.0607,-0.9799
0,0.022,-0.044,-1.4,28.1,-5.4,1023,2018,4,13,16,47,36.51,-0.0526,-0.1818,0.0559,-0.9803
-0.002,0.02,-0.044,2.6,32.3,-2.3,1023,2018,4,13,16,47,36.534,-0.0511,-0.1823,0.0505,-0.9806
-0.072,0.016,0.092,0.7,17.6,-4.2,1023,2018,4,13,16,47,36.561,-0.0464,-0.1873,0.0273,-0.9808
-0.035,0.11,0.078,2.7,-16.3,-6,1023,2018,4,13,16,47,36.589,-0.0456,-0.1877,0.0262,-0.9808
-0.035,0.006,0.112,-5.2,-62.3,-8.6,1023,2018,4,13,16,47,36.593,-0.0458,-0.1873,0.033,-0.9806
0.023,-0.019,0.135,-12.9,-104,-9.5,1023,2018,4,13,16,47,36.599,-0.0469,-0.1845,0.0477,-0.9805
0.08,-0.062,0.1,-15.5,-141.1,-9.9,0,2018,4,13,16,47,36.634,-0.0493,-0.18,0.0693,-0.9799
0.097,-0.113,0.049,-16.4,-174.3,-14.2,0,2018,4,13,16,47,36.655,-0.0525,-0.1754,0.0968,-0.9783
0.114,-0.224,0.009,-19.9,-191.1,-17.9,0,2018,4,13,16,47,36.659,-0.0556,-0.1702,0.1287,-0.9753
0.125,-0.422,-0.096,-23.5,-162.1,-23.9,0,2018,4,13,16,47,36.694,-0.0579,-0.164,0.1597,-0.9716
0.147,-0.42,-0.209,-17.8,-103.4,-32.5,0,2018,4,13,16,47,36.719,-0.0575,-0.1583,0.1826,-0.9686
0.149,-0.236,-0.242,-8.1,-64.8,-39.4,0,2018,4,13,16,47,36.724,-0.0539,-0.154,0.1969,-0.9667
0.134,-0.144,-0.266,5.4,-57.3,-47,0,2018,4,13,16,47,36.739,-0.0482,-0.1518,0.2081,-0.965
0.071,-0.05,-0.209,18.5,-58.2,-52.6,0,2018,4,13,16,47,36.756,-0.0408,-0.1516,0.2192,-0.9629
0.001,-0.041,-0.155,28.4,-49,-54,0,2018,4,13,16,47,36.779,-0.0322,-0.1533,0.2311,-0.9602
-0.067,-0.027,-0.12,35.4,-36.6,-55.1,0,2018,4,13,16,47,36.814,-0.0228,-0.1569,0.2408,-0.9575
-0.082,0,-0.047,37.5,-8.3,-51.5,0,2018,4,13,16,47,36.838,-0.013,-0.1609,0.2464,-0.9556
-0.063,0.117,-0.001,43.2,14.3,-46.6,0,2018,4,13,16,47,36.843,-0.0031,-0.1662,0.2471,-0.9546
-0.033,0.203,-0.09,46.1,41.9,-38.6,0,2018,4,13,16,47,36.876,0.0066,-0.1717,0.2439,-0.9544
-0.064,0.293,-0.221,54.7,59.6,-28,0,2018,4,13,16,47,36.9,0.0158,-0.1788,0.2359,-0.955
-0.064,0.302,-0.205,58.4,80.1,-17.3,0,2018,4,13,16,47,36.904,0.0241,-0.1871,0.2249,-0.9559
-0.105,0.36,-0.046,58.4,107.7,-4.9,0,2018,4,13,16,47,36.92,0.0313,-0.1961,0.2092,-0.9574
-0.132,0.361,0.111,51.3,131.2,6.1,0,2018,4,13,16,47,36.943,0.0374,-0.2045,0.1884,-0.9598
-0.263,0.779,0.34,41.6,97,18.8,0,2018,4,13,16,47,36.96,0.0412,-0.2119,0.167,-0.962
-0.254,0.846,0.626,9.4,-146.2,34.4,0,2018,4,13,16,47,36.995,0.0365,-0.2176,0.1699,-0.9604
-0.172,-0.544,0.286,-15.3,-152.9,17.1,0,2018,4,13,16,47,37.018,0.0255,-0.2188,0.1986,-0.9549
0.014,-0.667,0.222,-42.8,1.8,10.4,0,2018,4,13,16,47,37.023,0.0189,-0.2136,0.2118,-0.9534
-0.02,0.27,0.1,-37.5,59.1,20.6,0,2018,4,13,16,47,37.057,0.0163,-0.2073,0.2027,-0.9568
0.009,0.309,0.094,-31.7,25.9,31.1,0,2018,4,13,16,47,37.078,0.0123,-0.2021,0.1948,-0.9596
-0.013,0.214,0.193,-25.3,-47.6,39.8,0,2018,4,13,16,47,37.082,0.0049,-0.1987,0.1956,-0.9603
-0.055,-0.129,0.08,-24.1,-71.6,42,0,2018,4,13,16,47,37.118,-0.0052,-0.1959,0.2053,-0.9588
-0.011,-0.182,-0.064,-19.6,-59,37.1,0,2018,4,13,16,47,37.139,-0.0148,-0.1937,0.2153,-0.957
0.006,-0.219,-0.141,-14.7,-45.1,28.9,0,2018,4,13,16,47,37.144,-0.0227,-0.192,0.2228,-0.9554
0.038,-0.219,-0.156,-9.7,-25.5,20,0,2018,4,13,16,47,37.159,-0.0284,-0.1908,0.2278,-0.9543
0.051,-0.207,-0.155,-7.4,-9.9,12.8,0,2018,4,13,16,47,37.194,-0.032,-0.1899,0.23,-0.9539
0.08,-0.173,-0.156,-6.7,-1.3,7.4,0,2018,4,13,16,47,37.218,-0.0341,-0.1891,0.2304,-0.9538
0.101,-0.128,-0.156,-6.2,8,4.4,0,2018,4,13,16,47,37.222,-0.0352,-0.1883,0.2296,-0.9542
0.13,-0.075,-0.139,-3.5,11.5,1.1,0,2018,4,13,16,47,37.256,-0.0355,-0.1877,0.2277,-0.9547
0.098,-0.065,-0.096,-2.8,10.5,-0.1,0,2018,4,13,16,47,37.279,-0.0353,-0.1873,0.2259,-0.9553
0.081,-0.036,-0.062,-3.4,12.5,-0.9,0,2018,4,13,16,47,37.285,-0.0346,-0.1863,0.2246,-0.9558
0.069,-0.013,-0.057,-3.8,6.1,-1.1,1023,2018,4,13,16,47,37.319,-0.0341,-0.1852,0.2234,-0.9563
0.067,0.014,-0.051,-5,-3.7,0.7,1023,2018,4,13,16,47,37.342,-0.0341,-0.1839,0.2235,-0.9565
0.014,0.006,-0.024,-6.1,-8.7,1.4,1023,2018,4,13,16,47,37.346,-0.0346,-0.1827,0.2247,-0.9564
0,0.017,-0.015,-6.4,-16.1,1.5,1023,2018,4,13,16,47,37.382,-0.0355,-0.1816,0.2266,-0.9562
-0.007,0.007,-0.014,-4.9,-21.2,1.8,1023,2018,4,13,16,47,37.403,-0.0367,-0.1807,0.2296,-0.9556
-0.023,-0.017,0.004,-1.8,-22.5,2,1023,2018,4,13,16,47,37.407,-0.0378,-0.1802,0.2333,-0.9547
-0.047,-0.037,0.03,1,-17.2,2.7,1023,2018,4,13,16,47,37.421,-0.0389,-0.1803,0.2368,-0.9538
-0.063,-0.009,0.021,4.4,-9.9,3.7,1023,2018,4,13,16,47,37.459,-0.0398,-0.1812,0.2389,-0.9531
-0.08,0.027,0.029,6.6,-15.2,3.2,1023,2018,4,13,16,47,37.481,-0.0408,-0.1828,0.2405,-0.9523
-0.097,0.004,0.078,2.7,-21.3,1.9,1023,2018,4,13,16,47,37.486,-0.0418,-0.1842,0.2432,-0.9513
-0.098,-0.015,0.096,-4.1,-23.4,0.7,0,2018,4,13,16,47,37.521,-0.043,-0.1845,0.2466,-0.9503
-0.039,0.072,0.112,-12.2,-12.4,2.6,0,2018,4,13,16,47,37.542,-0.0439,-0.1837,0.2495,-0.9497
-0.071,0.183,0.252,-19.9,-27.1,6.1,0,2018,4,13,16,47,37.547,-0.0462,-0.1809,0.252,-0.9495
0.007,0.128,0.005,-18.1,-94,-0.4,0,2018,4,13,16,47,37.564,-0.0494,-0.1773,0.2615,-0.9474
0.06,-0.01,-0.103,-15.8,-147.8,-1.3,0,2018,4,13,16,47,37.586,-0.054,-0.1732,0.2817,-0.9421
0.078,-0.234,-0.108,-16.2,-121.4,-7.3,0,2018,4,13,16,47,37.622,-0.0583,-0.169,0.3048,-0.9354
0.127,-0.186,-0.122,-18.1,-58,-9.2,0,2018,4,13,16,47,37.643,-0.0604,-0.1647,0.3193,-0.9312
0.17,0.003,-0.119,-16.4,-22.4,-7.9,0,2018,4,13,16,47,37.648,-0.061,-0.161,0.325,-0.9298
0.176,0.122,-0.09,-13.6,-36.8,-6.1,0,2018,4,13,16,47,37.662,-0.0614,-0.1579,0.3294,-0.9288
0.179,0.084,-0.087,-12.2,-62.1,-1.7,0,2018,4,13,16,47,37.685,-0.0629,-0.155,0.3377,-0.9262
0.156,0.012,-0.138,-9.4,-59.1,2.1,0,2018,4,13,16,47,37.719,-0.0653,-0.1525,0.3477,-0.9227
0.128,-0.054,-0.17,-3.4,-43.5,2.4,0,2018,4,13,16,47,37.741,-0.0675,-0.151,0.3557,-0.9198
0.093,-0.035,-0.051,1.3,-34,0.1,0,2018,4,13,16,47,37.748,-0.0687,-0.1505,0.3618,-0.9174
0.059,-0.005,0.013,0.9,-30.7,-3.1,0,2018,4,13,16,47,37.782,-0.0689,-0.1496,0.3671,-0.9154
0.049,0.031,-0.033,-0.9,-35.9,-5.3,0,2018,4,13,16,47,37.806,-0.0689,-0.1484,0.3724,-0.9134
0.029,0.018,-0.068,-1.3,-45.7,-4.6,0,2018,4,13,16,47,37.81,-0.0691,-0.1473,0.3793,-0.9108
-0.026,-0.014,-0.069,-1.5,-47.9,-2.5,0,2018,4,13,16,47,37.843,-0.0698,-0.1464,0.3875,-0.9074
-0.077,-0.037,-0.048,-0.8,-30.7,0.3,0,2018,4,13,16,47,37.864,-0.0709,-0.1462,0.3945,-0.9043
-0.111,-0.015,-0.025,0,-5.6,3.9,0,2018,4,13,16,47,37.868,-0.072,-0.1469,0.3975,-0.9028
-0.096,0.033,-0.067,3.8,10.8,6.4,0,2018,4,13,16,47,37.885,-0.073,-0.1486,0.3969,-0.9027
-0.096,0.082,-0.101,10.4,13.2,9,0,2018,4,13,16,47,37.92,-0.0735,-0.1506,0.3947,-0.9033
-0.105,0.108,-0.041,16.9,5.5,12.7,0,2018,4,13,16,47,37.943,-0.0739,-0.1538,0.393,-0.9035
-0.073,0.562,0.107,9.9,-113.3,10.1,0,2018,4,13,16,47,37.947,-0.0757,-0.1563,0.4008,-0.8995
-0.123,-0.326,0.16,-3.8,-88.8,14.8,0,2018,4,13,16,47,37.981,-0.0811,-0.156,0.4187,-0.8909
0.022,-0.161,0.027,-5.3,4.8,15.1,0,2018,4,13,16,47,38.004,-0.0847,-0.1556,0.4245,-0.8879
-0.003,-0.126,-0.046,5.3,47.3,11.3,0,2018,4,13,16,47,38.009,-0.0858,-0.1569,0.4191,-0.8901
-0.027,-0.043,-0.122,18.5,19.9,4,0,2018,4,13,16,47,38.026,-0.085,-0.1602,0.4144,-0.8918
-0.109,-0.09,-0.047,28.8,-14.5,-14.7,0,2018,4,13,16,47,38.048,-0.0826,-0.1642,0.4152,-0.8909
-0.052,-0.537,-0.17,32.2,-15.2,-42.6,0,2018,4,13,16,47,38.069,-0.0764,-0.1667,0.4197,-0.8888
0,-0.516,-0.114,27.3,36.5,-63.4,0,2018,4,13,16,47,38.086,-0.0654,-0.1675,0.4201,-0.8894
0.11,-0.178,-0.075,22.6,74.4,-66.3,0,2018,4,13,16,47,38.121,-0.0516,-0.1671,0.4129,-0.8938
0.203,0.036,-0.121,20.2,62.9,-57.3,0,2018,4,13,16,47,38.144,-0.0383,-0.1665,0.4037,-0.8987
0.208,0.046,-0.096,23.6,43,-47.3,0,2018,4,13,16,47,38.149,-0.0271,-0.1666,0.3972,-0.902
0.152,0.05,-0.003,23,48,-35.1,1023,2018,4,13,16,47,38.18,-0.0177,-0.1677,0.3917,-0.9044
0.124,0.108,0.001,17.2,65.3,-22.8,1023,2018,4,13,16,47,38.204,-0.0101,-0.1691,0.3836,-0.9077
0.069,0.08,-0.073,14.3,96.8,-13.9,1023,2018,4,13,16,47,38.209,-0.0037,-0.1699,0.371,-0.9128
0.039,0.235,-0.069,12.5,118.7,-2.5,1023,2018,4,13,16,47,38.242,0.0016,-0.1715,0.3532,-0.9196
-0.016,0.357,0.126,9.1,87.6,4.3,1023,2018,4,13,16,47,38.264,0.0052,-0.1733,0.3357,-0.9258
-0.078,0.258,0.205,2.1,40.3,9.3,1023,2018,4,13,16,47,38.269,0.0063,-0.1746,0.3253,-0.9293
-0.086,0.174,0.189,-2,5.8,13.5,1023,2018,4,13,16,47,38.303,0.005,-0.1753,0.3217,-0.9304
-0.064,0.146,0.221,-2.5,-11.9,10.5,1023,2018,4,13,16,47,38.325,0.0028,-0.1755,0.3219,-0.9303
-0.059,0.06,0.205,-0.3,-12.3,7.6,1023,2018,4,13,16,47,38.331,0.0008,-0.1757,0.3237,-0.9296
-0.045,0.066,0.148,1.1,-10.5,8,1023,2018,4,13,16,47,38.367,-0.0007,-0.1763,0.3252,-0.929
-0.018,0.031,0.094,0.8,3.3,12.3,0,2018,4,13,16,47,38.373,-0.0025,-0.1769,0.3245,-0.9291
0.074,-0.036,-0.093,4.9,9,19.9,0,2018,4,13,16,47,38.388,-0.0047,-0.1781,0.323,-0.9294
0.088,-0.043,-0.168,10.2,14.3,29.8,0,2018,4,13,16,47,38.423,-0.008,-0.1807,0.3203,-0.9298
0.059,-0.057,-0.175,10.7,2.3,34.3,0,2018,4,13,16,47,38.445,-0.0124,-0.1842,0.3177,-0.93
0.104,-0.06,-0.251,13.7,-19.7,37.1,0,2018,4,13,16,47,38.452,-0.0178,-0.1882,0.3181,-0.929
0.066,0.019,-0.178,20.8,-30.2,37.2,0,2018,4,13,16,47,38.487,-0.0238,-0.193,0.3214,-0.9267
-0.107,-0.112,0.156,18.4,-20.2,29.6,0,2018,4,13,16,47,38.487,-0.029,-0.198,0.325,-0.9242
-0.55,-0.545,0.384,-12.7,88.9,18.7,0,2018,4,13,16,47,38.509,-0.0319,-0.2007,0.3208,-0.925
-0.413,-0.426,0.139,-46.1,402.2,14.7,0,2018,4,13,16,47,38.545,-0.0279,-0.1974,0.2799,-0.939
-0.111,1.579,-0.068,-21,488.1,22.3,0,2018,4,13,16,47,38.568,-0.0153,-0.1939,0.1967,-0.9609
-0.242,2.461,0.247,-16.6,110.6,66.2,0,2018,4,13,16,47,38.572,-0.0129,-0.1935,0.1427,-0.9705
-0.345,-0.395,-0.038,-71.5,-154.1,125.8,0,2018,4,13,16,47,38.588,-0.0597,-0.1815,0.1808,-0.9647
0.08,-0.611,-0.307,-55.4,33.3,119.1,0,2018,4,13,16,47,38.609,-0.0844,-0.1737,0.1851,-0.9635
0.17,-0.226,-0.244,-16.1,110,110.2,0,2018,4,13,16,47,38.645,-0.1021,-0.1727,0.1662,-0.9654
0.094,-0.441,-0.165,7.4,75.5,100.2,0,2018,4,13,16,47,38.669,-0.1171,-0.1771,0.1471,-0.966
0.135,-0.704,-0.173,13.2,45.9,78.9,0,2018,4,13,16,47,38.673,-0.1301,-0.1825,0.1347,-0.9651
0.205,-0.805,-0.211,14.9,29.8,51,0,2018,4,13,16,47,38.69,-0.1394,-0.1872,0.1267,-0.964
0.245,-0.846,-0.22,16.2,9,24.9,0,2018,4,13,16,47,38.713,-0.1447,-0.191,0.1227,-0.963
0.234,-0.795,-0.186,16.4,-8.7,1.3,0,2018,4,13,16,47,38.748,-0.1464,-0.1941,0.1228,-0.9621
0.227,-0.638,-0.143,10.3,-30.5,-20.4,0,2018,4,13,16,47,38.772,-0.145,-0.1957,0.1268,-0.9615
0.197,-0.495,-0.125,0.2,-56.1,-37.8,0,2018,4,13,16,47,38.777,-0.1414,-0.1947,0.1354,-0.961
0.16,-0.394,-0.155,-4.5,-73.2,-52,0,2018,4,13,16,47,38.79,-0.136,-0.1915,0.1478,-0.9606
0.112,-0.356,-0.191,-1.3,-93.8,-63.9,0,2018,4,13,16,47,38.825,-0.1292,-0.1874,0.1639,-0.9598
0.081,-0.233,-0.254,13,-98,-70.9,0,2018,4,13,16,47,38.848,-0.1208,-0.1841,0.1824,-0.9582
-0.001,-0.067,-0.162,27.6,-97.4,-77.5,0,2018,4,13,16,47,38.852,-0.1107,-0.1832,0.2015,-0.9557
-0.091,-0.057,0.017,31.1,-76.2,-81.5,0,2018,4,13,16,47,38.886,-0.0993,-0.1842,0.2204,-0.9526
-0.406,-0.412,0.399,-4.4,119.6,-79.5,0,2018,4,13,16,47,38.908,-0.085,-0.1844,0.2235,-0.9532
-0.469,-0.796,0.216,-17.4,478.9,-104.3,0,2018,4,13,16,47,38.912,-0.0611,-0.182,0.1735,-0.9659
-0.193,1.154,-0.391,31.1,503.4,-126.5,0,2018,4,13,16,47,38.948,-0.0232,-0.185,0.0864,-0.9786
-0.193,2.075,-0.44,37.7,197,-85,0,2018,4,13,16,47,38.973,0.0073,-0.1911,0.0305,-0.981
-0.124,1.542,0.006,26.9,-36.6,-14.6,0,2018,4,13,16,47,38.977,0.0177,-0.1961,0.0213,-0.9801
-0.133,0.637,0.157,9.1,-91.5,42.3,1023,2018,4,13,16,47,38.991,0.0122,-0.1998,0.0345,-0.9791
0.021,0.119,0.095,-4.8,-18.7,72.1,1023,2018,4,13,16,47,39.028,-0.0001,-0.2002,0.0419,-0.9788
0.186,0.057,0.002,0,13.3,80.7,1023,2018,4,13,16,47,39.052,-0.0133,-0.2001,0.0383,-0.9789
0.221,-0.201,0.018,15.6,-8.3,73.4,1023,2018,4,13,16,47,39.057,-0.0264,-0.202,0.035,-0.9783
0.118,-0.512,0.126,25.8,-38.4,55,1023,2018,4,13,16,47,39.072,-0.0381,-0.206,0.0367,-0.9771
0.123,-0.631,0.063,24.7,-87.8,29.9,1023,2018,4,13,16,47,39.106,-0.0474,-0.2103,0.0461,-0.9753
0.148,-0.645,-0.011,17.4,-136.5,6.3,1023,2018,4,13,16,47,39.128,-0.0544,-0.213,0.0653,-0.9733
0.173,-0.595,-0.04,8.3,-158,-14.6,1023,2018,4,13,16,47,39.134,-0.059,-0.2136,0.091,-0.9708
0.217,-0.373,-0.115,3.5,-182.1,-26.4,1023,2018,4,13,16,47,39.17,-0.0614,-0.2123,0.1202,-0.9678
0.194,-0.214,-0.141,-1.9,-216.3,-26,1023,2018,4,13,16,47,39.193,-0.0643,-0.2096,0.1554,-0.9632
0.076,-0.141,-0.047,-8.5,-218.7,-21.4,0,2018,4,13,16,47,39.197,-0.0685,-0.2054,0.1931,-0.9569
0.004,-0.273,-0.128,-13.1,-177.4,-23.6,0,2018,4,13,16,47,39.231,-0.0725,-0.2001,0.2276,-0.9501
-0.012,0.025,-0.192,-0.3,-118.3,-24.8,0,2018,4,13,16,47,39.255,-0.0738,-0.1963,0.2528,-0.9444
-0.058,-0.049,-0.191,15,-48.8,-28,0,2018,4,13,16,47,39.259,-0.0719,-0.1952,0.2672,-0.9408
-0.116,0.138,-0.124,28.5,-28.7,-24.4,0,2018,4,13,16,47,39.272,-0.0676,-0.1974,0.2742,-0.9387
-0.181,0.131,-0.104,35.1,-12.2,-22,0,2018,4,13,16,47,39.308,-0.0627,-0.2015,0.2789,-0.9368
-0.179,0.527,0.448,18.1,2,-9,0,2018,4,13,16,47,39.331,-0.0585,-0.2054,0.2798,-0.9359
-0.259,0.265,0.538,-5.2,0.4,-4.5,0,2018,4,13,16,47,39.335,-0.0573,-0.2059,0.2801,-0.9358
-0.063,0.316,0.193,-10.3,-23,0.8,0,2018,4,13,16,47,39.371,-0.0577,-0.2042,0.2816,-0.9357
0.035,0.083,-0.017,-4.1,-36.3,6.2,0,2018,4,13,16,47,39.394,-0.06,-0.2027,0.2866,-0.9344
0.126,0.158,-0.048,11.6,-16.8,7.6,0,2018,4,13,16,47,39.398,-0.0619,-0.203,0.29,-0.9331
0.083,0.068,0.017,18.4,-3.8,10.8,0,2018,4,13,16,47,39.415,-0.0629,-0.2052,0.2908,-0.9323
0.03,0.308,0.125,18.6,-40.7,16.2,0,2018,4,13,16,47,39.436,-0.0647,-0.2088,0.2933,-0.9306
0.007,0.176,0.136,9.8,-92.5,21.4,0,2018,4,13,16,47,39.473,-0.0697,-0.2113,0.3041,-0.9262
0.005,-0.075,0.049,4.1,-119,18.8,0,2018,4,13,16,47,39.494,-0.0768,-0.212,0.3215,-0.9196
0.064,-0.2,-0.024,2.7,-67.6,14.6,0,2018,4,13,16,47,39.499,-0.0827,-0.2119,0.3362,-0.9138
0.007,-0.178,-0.081,3.5,-40.1,11.9,0,2018,4,13,16,47,39.514,-0.0864,-0.2121,0.3443,-0.9104
-0.127,-0.247,0.102,-9,35.3,15,0,2018,4,13,16,47,39.537,-0.0889,-0.2121,0.3456,-0.9097
-0.005,0.338,0.159,-19.4,61.5,20.9,0,2018,4,13,16,47,39.573,-0.0901,-0.212,0.3343,-0.9138
-0.017,0.409,0.186,-33.3,-47.5,30.4,0,2018,4,13,16,47,39.595,-0.0953,-0.2093,0.3317,-0.9148
-0.03,0.029,0.02,-43.8,-113.8,38,0,2018,4,13,16,47,39.6,-0.1067,-0.2035,0.3441,-0.9103
-0.029,-0.294,-0.1,-42.4,-94.4,32.6,0,2018,4,13,16,47,39.633,-0.1189,-0.1967,0.3593,-0.9044
0.009,-0.328,-0.266,-27.9,-49.8,19.3,0,2018,4,13,16,47,39.656,-0.1277,-0.1911,0.3691,-0.9004
0.063,-0.287,-0.33,-7.5,1.7,11.5,0,2018,4,13,16,47,39.66,-0.1318,-0.1889,0.3716,-0.8993
0.08,-0.213,-0.257,9.6,34.2,10.4,0,2018,4,13,16,47,39.696,-0.1327,-0.1903,0.3682,-0.9002
0.002,-0.167,-0.126,18.9,51.5,9.6,0,2018,4,13,16,47,39.696,-0.1319,-0.1945,0.361,-0.9024
0.029,-0.079,-0.179,27.6,41.2,4.3,0,2018,4,13,16,47,39.717,-0.1299,-0.1996,0.3538,-0.9044
0.08,-0.198,-0.322,41,39.9,-4.2,0,2018,4,13,16,47,39.734,-0.1266,-0.206,0.3486,-0.9055
-0.001,-0.174,-0.17,43,76.7,-16.7,0,2018,4,13,16,47,39.755,-0.1201,-0.2134,0.3408,-0.9076
-0.002,0.029,-0.154,42.9,88.3,-28.7,0,2018,4,13,16,47,39.789,-0.1106,-0.2207,0.3288,-0.9115
0.031,0.229,-0.086,39.9,69,-28.1,0,2018,4,13,16,47,39.813,-0.1006,-0.228,0.318,-0.9147
0.025,0.492,0.306,19.7,-14.1,-14.4,1023,2018,4,13,16,47,39.818,-0.0944,-0.2321,0.315,-0.9153
-0.009,0.069,0.229,2.3,-34.7,-5.8,1023,2018,4,13,16,47,39.854,-0.0938,-0.2326,0.321,-0.9132
-0.004,0.065,0.138,-3.9,-5.8,2,1023,2018,4,13,16,47,39.875,-0.0941,-0.2313,0.3236,-0.9126
0.044,0.171,0.087,1.1,-34.5,7.4,1023,2018,4,13,16,47,39.879,-0.0958,-0.2312,0.326,-0.9116
0.117,-0.052,0.065,0.2,-44,11.5,1023,2018,4,13,16,47,39.914,-0.0987,-0.2303,0.3327,-0.9091
0.113,-0.039,0.063,0,1.4,21.7,1023,2018,4,13,16,47,39.936,-0.1022,-0.2306,0.3355,-0.9075
-0.025,0.114,0.206,-0.6,0.4,28.4,1023,2018,4,13,16,47,39.941,-0.1059,-0.2323,0.3334,-0.9075
-0.032,0.004,0.154,-6.6,-3.8,34.9,1023,2018,4,13,16,47,39.955,-0.1114,-0.2338,0.3326,-0.9067
-0.095,0.321,0.299,-21.9,-5.3,47,1023,2018,4,13,16,47,39.978,-0.1188,-0.2341,0.3306,-0.9065
-0.238,0.293,0.387,-40,-67.2,49.6,1023,2018,4,13,16,47,40.013,-0.1298,-0.2312,0.3336,-0.9046
-0.145,0.059,0.085,-46.4,-104.1,41.6,1023,2018,4,13,16,47,40.035,-0.1434,-0.2246,0.3452,-0.8998
-0.131,-0.051,-0.026,-41.6,-86,32.6,0,2018,4,13,16,47,40.039,-0.1559,-0.2183,0.3578,-0.8943
-0.095,-0.107,-0.14,-30,-56.9,23.2,0,2018,4,13,16,47,40.074,-0.1652,-0.2127,0.3669,-0.8903
-0.039,-0.103,-0.177,-14.5,-19.8,13.4,0,2018,4,13,16,47,40.097,-0.1712,-0.2091,0.3714,-0.8882
0.012,-0.111,-0.197,-2.8,23.3,8.9,0,2018,4,13,16,47,40.101,-0.1737,-0.2084,0.3702,-0.8883
0.047,-0.094,-0.189,6,54.2,8.2,0,2018,4,13,16,47,40.135,-0.1736,-0.2104,0.3633,-0.8907
0.104,-0.111,-0.154,12,62.9,8.3,0,2018,4,13,16,47,40.159,-0.1725,-0.214,0.3538,-0.8939
0.135,-0.124,-0.134,14.6,67.8,9.5,0,2018,4,13,16,47,40.164,-0.171,-0.2185,0.3435,-0.8972
0.127,-0.146,-0.152,13.9,71.7,10.5,0,2018,4,13,16,47,40.196,-0.1693,-0.2233,0.3324,-0.9005
0.116,-0.114,-0.207,13.8,74.5,11.7,0,2018,4,13,16,47,40.196,-0.1675,-0.2283,0.3208,-0.9038
0.078,-0.113,-0.227,12.2,71.7,10,0,2018,4,13,16,47,40.218,-0.1656,-0.2331,0.3091,-0.907
0.034,-0.07,-0.196,9.9,54.8,6.1,0,2018,4,13,16,47,40.254,-0.1636,-0.2371,0.2988,-0.9097
0.025,-0.034,-0.194,10.6,22.1,0.4,0,2018,4,13,16,47,40.278,-0.162,-0.24,0.2929,-0.9112
0.01,-0.049,-0.177,13.9,-6.6,-6,0,2018,4,13,16,47,40.283,-0.1607,-0.2419,0.2925,-0.911
-0.018,-0.067,-0.143,18.5,-16.9,-12.7,0,2018,4,13,16,47,40.316,-0.1589,-0.2436,0.2955,-0.9099
0,-0.069,-0.113,23.6,-12.8,-19.7,0,2018,4,13,16,47,40.339,-0.1559,-0.2457,0.2993,-0.9086
0.03,-0.073,-0.061,29.4,5,-23.6,0,2018,4,13,16,47,40.345,-0.1509,-0.2488,0.3025,-0.9076
-0.012,-0.078,0.021,30.8,28.6,-26.1,0,2018,4,13,16,47,40.379,-0.1443,-0.2526,0.3024,-0.9076
-0.004,-0.015,0.064,28.5,43.6,-25.1,0,2018,4,13,16,47,40.403,-0.1368,-0.2566,0.2985,-0.9089
0.046,0.034,0.09,25.4,53.8,-21.1,0,2018,4,13,16,47,40.407,-0.1295,-0.2604,0.2919,-0.9111
0.059,0.087,0.158,22.1,49.5,-15.6,0,2018,4,13,16,47,40.419,-0.123,-0.2641,0.2844,-0.9133
0.056,0.134,0.226,16.6,34,-9.6,0,2018,4,13,16,47,40.452,-0.1181,-0.2674,0.2786,-0.9147
0.044,0.141,0.261,9.2,0.4,-4.8,0,2018,4,13,16,47,40.476,-0.1155,-0.2695,0.2765,-0.9151
0.017,0.035,0.259,1.5,-29,0,0,2018,4,13,16,47,40.482,-0.1157,-0.2699,0.2792,-0.9141
-0.001,-0.007,0.234,-4.6,-50.5,4.1,0,2018,4,13,16,47,40.519,-0.1181,-0.2689,0.2857,-0.9121
0.004,-0.047,0.214,-10.2,-59.6,5.1,0,2018,4,13,16,47,40.542,-0.1219,-0.2659,0.2936,-0.91
0.037,-0.111,0.179,-13.9,-54.9,2.7,0,2018,4,13,16,47,40.546,-0.1257,-0.2618,0.3021,-0.9079
0.055,-0.137,0.109,-15,-34.9,0.2,0,2018,4,13,16,47,40.58,-0.1285,-0.2577,0.309,-0.9063
0.058,-0.12,0.045,-14.7,-15.6,-1.9,0,2018,4,13,16,47,40.603,-0.1302,-0.2548,0.3125,-0.9057
0.063,-0.097,0.022,-13.4,-2.3,-3.6,0,2018,4,13,16,47,40.608,-0.1305,-0.2514,0.3143,-0.906
0.08,-0.103,0.014,-12.1,8.3,-4.8,0,2018,4,13,16,47,40.621,-0.1302,-0.2489,0.3139,-0.9069
0.061,-0.078,-0.001,-11.7,15.1,-6,0,2018,4,13,16,47,40.657,-0.1291,-0.2466,0.3122,-0.9082
0.062,-0.059,-0.068,-11,18.6,-4.8,1023,2018,4,13,16,47,40.679,-0.1277,-0.2443,0.3103,-0.9097
0.061,-0.057,-0.111,-8.3,24.6,-2.5,1023,2018,4,13,16,47,40.685,-0.1264,-0.2429,0.3078,-0.9111
0.038,-0.011,-0.092,-6.9,25,-2.3,1023,2018,4,13,16,47,40.719,-0.125,-0.242,0.3046,-0.9126
0.018,0.024,-0.06,-7.8,12,-1.7,1023,2018,4,13,16,47,40.742,-0.1241,-0.2413,0.3019,-0.9138
0.02,0.038,-0.125,-6.6,-5.4,0.9,1023,2018,4,13,16,47,40.748,-0.1245,-0.2404,0.3016,-0.9141
0.009,-0.003,-0.159,-1.1,-14.9,2.7,1023,2018,4,13,16,47,40.761,-0.1254,-0.2403,0.304,-0.9132
0.003,-0.051,-0.125,4.3,-6.2,3.7,1023,2018,4,13,16,47,40.785,-0.1261,-0.2411,0.3068,-0.912
-0.013,-0.034,-0.134,7.8,17.9,2.8,1023,2018,4,13,16,47,40.819,-0.126,-0.2425,0.306,-0.9119
-0.026,0.017,-0.155,11,44,3.7,1023,2018,4,13,16,47,40.841,-0.1246,-0.2452,0.3015,-0.9128
-0.016,0.125,-0.126,14.9,48.1,5.1,1023,2018,4,13,16,47,40.845,-0.1228,-0.2493,0.2941,-0.9144
-0.048,0.106,-0.042,16.6,44.2,5.7,0,2018,4,13,16,47,40.881,-0.121,-0.2535,0.2867,-0.9158
-0.14,-0.015,0.102,10.9,45.7,2.9,0,2018,4,13,16,47,40.903,-0.1192,-0.2573,0.2792,-0.9173
-0.123,0.053,0.154,3.8,20.5,0.1,0,2018,4,13,16,47,40.907,-0.1177,-0.2594,0.2731,-0.9187
-0.013,0.134,0.065,-3.9,-31.3,8.2,0,2018,4,13,16,47,40.922,-0.1187,-0.2594,0.2738,-0.9184
0.024,-0.042,-0.057,-2.6,-45.2,9.2,0,2018,4,13,16,47,40.944,-0.1226,-0.2581,0.2801,-0.9164
0.026,-0.073,-0.177,8.2,-1.1,10.2,0,2018,4,13,16,47,40.978,-0.1251,-0.2583,0.2847,-0.9146
-0.065,-0.042,0.062,8.8,48.7,7.3,0,2018,4,13,16,47,41.002,-0.1248,-0.2608,0.2801,-0.9153
-0.056,0.058,0.161,4.7,56.4,4.6,0,2018,4,13,16,47,41.006,-0.1229,-0.2635,0.2702,-0.9178
-0.008,0.062,0.042,6.5,43.7,0.9,0,2018,4,13,16,47,41.038,-0.121,-0.2655,0.2615,-0.9199
-0.009,0.059,0.013,11,16.4,-2.3,0,2018,4,13,16,47,41.062,-0.1193,-0.2678,0.2562,-0.921
-0.012,0.11,0.008,10.7,8.4,-4.8,0,2018,4,13,16,47,41.067,-0.118,-0.2697,0.2544,-0.9211
-0.048,0.217,0.054,8.6,2.6,-3.2,0,2018,4,13,16,47,41.103,-0.1167,-0.2715,0.2535,-0.921
-0.156,0.128,0.073,-2.1,-18.5,-4.5,0,2018,4,13,16,47,41.125,-0.1163,-0.2717,0.2551,-0.9206
-0.125,0.236,0.161,-14.2,-59.4,-1.4,0,2018,4,13,16,47,41.129,-0.118,-0.2694,0.2611,-0.9193
-0.148,0.092,0.191,-24.1,-80.1,0.2,0,2018,4,13,16,47,41.144,-0.1223,-0.2646,0.2727,-0.9168
-0.12,0.066,0.044,-26.8,-66.9,0.9,0,2018,4,13,16,47,41.166,-0.1271,-0.2589,0.2841,-0.9143
-0.11,0.006,-0.057,-26.3,-37.4,-0.6,0,2018,4,13,16,47,41.201,-0.1311,-0.2543,0.2918,-0.9126
-0.064,0.008,-0.11,-23.2,-11,-0.8,0,2018,4,13,16,47,41.224,-0.1334,-0.2509,0.2953,-0.9121
-0.087,0.013,0.102,-24.6,-10.4,-0.4,0,2018,4,13,16,47,41.228,-0.1347,-0.2479,0.2956,-0.9126
-0.109,-0.059,0.421,-46.7,-60.3,-2.9,0,2018,4,13,16,47,41.264,-0.138,-0.2405,0.3018,-0.9121
0.05,-0.196,0.1,-45.5,-16.4,1.8,0,2018,4,13,16,47,41.288,-0.1422,-0.2313,0.3068,-0.9121
0.09,-0.099,-0.249,-29.4,35.1,9.4,0,2018,4,13,16,47,41.292,-0.1446,-0.2262,0.304,-0.914
0.11,-0.037,-0.282,-17.3,67.9,8.4,0,2018,4,13,16,47,41.307,-0.1452,-0.2243,0.2942,-0.9175
0.16,-0.014,-0.319,-4.7,69.1,6.5,0,2018,4,13,16,47,41.328,-0.1443,-0.2247,0.2824,-0.9213
0.167,-0.082,-0.385,8.9,51.7,0.4,0,2018,4,13,16,47,41.345,-0.1423,-0.2269,0.2727,-0.924
0.148,-0.093,-0.385,16.4,52.8,-4.3,0,2018,4,13,16,47,41.367,-0.1393,-0.2302,0.265,-0.9259
0.165,-0.007,-0.221,19.8,58.1,-8.9,0,2018,4,13,16,47,41.403,-0.1351,-0.2343,0.2564,-0.9279
0.121,0.046,-0.025,17.6,39.7,-9.9,0,2018,4,13,16,47,41.427,-0.1304,-0.2374,0.2492,-0.9297
0.086,0.082,0.08,13.6,3.6,-7.6,0,2018,4,13,16,47,41.431,-0.1273,-0.2394,0.2458,-0.9305
0.095,0.032,0.088,10.3,-34.5,-4.7,0,2018,4,13,16,47,41.447,-0.1266,-0.2406,0.249,-0.9295
0.117,-0.061,0.038,9.6,-53.5,-1.5,0,2018,4,13,16,47,41.468,-0.1274,-0.2401,0.2569,-0.9274
0.12,-0.171,-0.001,11.3,-36.3,1.6,0,2018,4,13,16,47,41.502,-0.129,-0.2407,0.2647,-0.9248
0.098,-0.193,-0.003,11,-6.5,1.6,1023,2018,4,13,16,47,41.526,-0.1296,-0.2422,0.2682,-0.9233
0.135,0.007,-0.067,9.1,-6.8,7.1,1023,2018,4,13,16,47,41.53,-0.1298,-0.2437,0.269,-0.9226
0.119,-0.074,-0.166,10.7,-1.6,14.4,1023,2018,4,13,16,47,41.564,-0.1313,-0.2455,0.2699,-0.9217
0.047,-0.108,-0.066,12.5,11.2,12.1,1023,2018,4,13,16,47,41.579,-0.1327,-0.2481,0.2689,-0.9211
0.011,-0.129,-0.114,15.4,30.1,0.3,1023,2018,4,13,16,47,41.614,-0.1321,-0.2509,0.2663,-0.9212
0,-0.09,-0.214,25.2,37.6,-14.2,1023,2018,4,13,16,47,41.617,-0.1283,-0.2547,0.2614,-0.9221
-0.107,-0.08,-0.019,21.9,33.9,-17.4,1023,2018,4,13,16,47,41.628,-0.1228,-0.2592,0.2577,-0.9226
-0.177,0.734,0.727,-4.1,-7.1,0,1023,2018,4,13,16,47,41.662,-0.1201,-0.2609,0.2538,-0.9236
-0.119,0.109,0.322,-21.1,-78,0.4,1023,2018,4,13,16,47,41.686,-0.1234,-0.2571,0.263,-0.9216
-0.078,0.115,0.092,-7.4,-51.9,3.9,1023,2018,4,13,16,47,41.69,-0.1274,-0.2536,0.2719,-0.9194
-0.089,-0.026,0.008,5.8,-39.1,0.3,0,2018,4,13,16,47,41.726,-0.13,-0.2533,0.2788,-0.9171
-0.014,-0.133,-0.062,11.1,-31.3,-6.8,0,2018,4,13,16,47,41.747,-0.1306,-0.2542,0.2856,-0.9147
0.008,-0.194,-0.1,5.4,10.3,-13.4,0,2018,4,13,16,47,41.752,-0.129,-0.2547,0.2879,-0.914
0.05,-0.078,-0.063,3.8,34.7,-17.9,0,2018,4,13,16,47,41.77,-0.125,-0.2551,0.2848,-0.9155
0.035,0.053,0.076,4.7,30.2,-18,0,2018,4,13,16,47,41.791,-0.1202,-0.2553,0.2804,-0.9174
-0.055,0.009,0.25,-2.5,23.9,-15.6,0,2018,4,13,16,47,41.827,-0.1163,-0.2552,0.2769,-0.919
-0.06,0.181,0.275,-18.3,10,-10.6,0,2018,4,13,16,47,41.827,-0.1137,-0.2532,0.274,-0.9207
-0.013,0.24,0.259,-31.6,-41.9,-2.5,0,2018,4,13,16,47,41.85,-0.1146,-0.2484,0.2763,-0.9212
-0.045,0.058,0.235,-41.7,-70.1,0.2,0,2018,4,13,16,47,41.885,-0.1189,-0.2412,0.2852,-0.9199
-0.067,-0.047,0.031,-42.7,-63.8,1.3,0,2018,4,13,16,47,41.908,-0.1242,-0.2328,0.295,-0.9182
-0.015,-0.14,-0.065,-39.1,-33.7,0.2,0,2018,4,13,16,47,41.912,-0.1284,-0.2254,0.3025,-0.9171
-0.046,-0.122,-0.072,-35.2,3,-0.4,0,2018,4,13,16,47,41.946,-0.1309,-0.2191,0.3039,-0.9178
-0.015,-0.094,-0.174,-28.1,25.5,-1.3,0,2018,4,13,16,47,41.968,-0.1318,-0.2143,0.3006,-0.9199
0.027,-0.079,-0.292,-16.7,31.3,-2.8,0,2018,4,13,16,47,41.973,-0.1315,-0.2113,0.2954,-0.9223
0.02,-0.083,-0.371,-4.1,29.8,-8.2,0,2018,4,13,16,47,42.009,-0.13,-0.2101,0.2903,-0.9244
0.032,-0.107,-0.419,9,28.6,-13.4,0,2018,4,13,16,47,42.03,-0.127,-0.2106,0.2862,-0.926
0.067,-0.078,-0.421,21,34.8,-16.8,0,2018,4,13,16,47,42.034,-0.1226,-0.2131,0.282,-0.9273
0.052,-0.02,-0.313,28,39.7,-18.8,0,2018,4,13,16,47,42.049,-0.1171,-0.2171,0.277,-0.9286
0.071,0.014,-0.247,33.8,27,-21.8,0,2018,4,13,16,47,42.07,-0.1109,-0.2218,0.2729,-0.9295
0.09,-0.02,-0.116,38.9,19.1,-20.4,0,2018,4,13,16,47,42.105,-0.0988,-0.2323,0.27,-0.9291
0.11,-0.177,-0.193,38.9,33.4,-18.8,0,2018,4,13,16,47,42.127,-0.0928,-0.2381,0.2684,-0.9287
-0.013,0.463,0.443,21.6,30.9,-3.7,0,2018,4,13,16,47,42.131,-0.0874,-0.2432,0.2624,-0.9296
-0.126,0.312,0.528,-2.6,-37.7,2,0,2018,4,13,16,47,42.165,-0.0874,-0.2444,0.2639,-0.9289
-0.064,0.19,0.324,-11.1,-77.2,9.8,0,2018,4,13,16,47,42.188,-0.0913,-0.2425,0.2732,-0.9263
0.015,0.025,0.101,-5.2,-84.3,10.5,0,2018,4,13,16,47,42.195,-0.0971,-0.2401,0.2861,-0.9225
0.04,-0.086,-0.003,1.7,-60.1,10.2,0,2018,4,13,16,47,42.229,-0.1017,-0.2386,0.2975,-0.9187
0.042,-0.256,-0.098,7.4,-27.1,6.6,0,2018,4,13,16,47,42.252,-0.1046,-0.2391,0.3041,-0.9161
0.056,-0.183,-0.094,8.6,-0.1,3.7,0,2018,4,13,16,47,42.257,-0.1054,-0.2404,0.3059,-0.9151
0.06,-0.122,-0.004,11.1,0.1,0,0,2018,4,13,16,47,42.272,-0.1051,-0.2421,0.3058,-0.9147
0.034,-0.079,0.099,11.2,-1.8,0,0,2018,4,13,16,47,42.308,-0.1042,-0.2432,0.3066,-0.9142
-0.007,-0.113,0.189,5.7,10.2,1.3,0,2018,4,13,16,47,42.332,-0.1035,-0.2439,0.3066,-0.9141
-0.036,-0.038,0.241,-4.1,30.3,2.7,1023,2018,4,13,16,47,42.336,-0.1027,-0.2438,0.3024,-0.9156
-0.034,-0.101,0.235,-7.9,36.9,2,1023,2018,4,13,16,47,42.369,-0.1021,-0.2427,0.2961,-0.9181
-0.035,-0.08,0.203,-8.6,72.2,2.1,1023,2018,4,13,16,47,42.393,-0.1003,-0.242,0.2875,-0.9212
-0.151,0.055,0.295,-19.4,86.9,1,1023,2018,4,13,16,47,42.398,-0.0978,-0.2414,0.2734,-0.9259
-0.119,0.195,0.224,-30,47.3,-3,1023,2018,4,13,16,47,42.413,-0.0958,-0.2384,0.2616,-0.9303
-0.091,0.037,0.022,-32.9,7.9,-6.6,1023,2018,4,13,16,47,42.435,-0.0956,-0.2335,0.2576,-0.9327
-0.069,0.024,-0.144,-29.2,15.5,-9.2,1023,2018,4,13,16,47,42.47,-0.0954,-0.2289,0.2559,-0.9343
-0.042,0.005,-0.277,-20.6,32.2,-10.9,1023,2018,4,13,16,47,42.493,-0.0939,-0.2248,0.2518,-0.9365
-0.031,0.004,-0.342,-12.2,43.1,-11.7,1023,2018,4,13,16,47,42.497,-0.0912,-0.2223,0.2457,-0.939
-0.005,0.003,-0.342,-6.4,48.9,-12.4,1023,2018,4,13,16,47,42.531,-0.0878,-0.2211,0.2383,-0.9415
0.03,-0.038,-0.258,-3.6,34.3,-13.9,0,2018,4,13,16,47,42.531,-0.0842,-0.2205,0.2317,-0.9437
0.093,0.061,-0.241,8.3,-12.1,-14.9,0,2018,4,13,16,47,42.554,-0.081,-0.2206,0.2304,-0.9442
0.193,-0.031,-0.417,27.7,-54.3,-16.9,0,2018,4,13,16,47,42.589,-0.0792,-0.2226,0.2381,-0.942
0.118,-0.182,-0.242,39.9,-32,-19.7,0,2018,4,13,16,47,42.612,-0.0764,-0.227,0.2468,-0.9389
0.093,-0.127,-0.042,34.7,3,-18.6,0,2018,4,13,16,47,42.617,-0.072,-0.2323,0.2502,-0.9371
-0.045,-0.139,0.297,16.8,4,-14.4,0,2018,4,13,16,47,42.652,-0.0678,-0.2363,0.2504,-0.9363
0.15,0.08,-0.139,23.7,46.5,-16.4,0,2018,4,13,16,47,42.673,-0.0626,-0.2397,0.2466,-0.9368
0.03,0.209,0.115,14.6,2.6,-14.4,0,2018,4,13,16,47,42.677,-0.0582,-0.2425,0.2432,-0.9373
-0.044,0.237,0.289,-2.4,-45.2,-7,0,2018,4,13,16,47,42.711,-0.0571,-0.2428,0.2475,-0.9361
-0.052,0.264,0.321,-18.8,-63.6,5.3,0,2018,4,13,16,47,42.733,-0.0599,-0.2402,0.2566,-0.9342
-0.051,0.324,0.19,-23.3,-98.9,12.8,0,2018,4,13,16,47,42.738,-0.0659,-0.2362,0.269,-0.9313
-0.041,0.182,0.038,-21.9,-127.6,16.7,0,2018,4,13,16,47,42.753,-0.0742,-0.2318,0.2871,-0.9264
-0.079,0.07,0.017,-20.5,-128.8,20.2,0,2018,4,13,16,47,42.776,-0.0837,-0.228,0.3064,-0.9203
-0.089,-0.002,-0.004,-24.5,-132.9,19.8,0,2018,4,13,16,47,42.811,-0.0937,-0.2243,0.3257,-0.9136
-0.027,-0.174,-0.091,-22.9,-124.8,10.2,0,2018,4,13,16,47,42.832,-0.1027,-0.2194,0.346,-0.9063
0.03,-0.27,-0.21,-13.9,-97.3,0,0,2018,4,13,16,47,42.836,-0.1088,-0.2146,0.3632,-0.9
0.082,-0.349,-0.316,1.9,-40.2,-6.4,0,2018,4,13,16,47,42.871,-0.1114,-0.2121,0.3741,-0.8958
0.153,-0.33,-0.305,16.7,48.8,-5.8,0,2018,4,13,16,47,42.893,-0.1095,-0.2132,0.3737,-0.896
0.172,-0.134,-0.179,30.5,99.6,-6.7,0,2018,4,13,16,47,42.898,-0.1039,-0.2181,0.3618,-0.9003
0.176,-0.068,-0.128,48.7,120.5,-7.2,0,2018,4,13,16,47,42.931,-0.096,-0.2259,0.3452,-0.9058
0.047,-0.007,0.064,59.1,131.9,-7.6,0,2018,4,13,16,47,42.955,-0.0863,-0.2361,0.3259,-0.9113
-0.069,0.124,0.383,50,84.1,-8.1,0,2018,4,13,16,47,42.959,-0.0772,-0.246,0.3096,-0.9152
-0.077,0.086,0.421,25.3,56.2,-4.9,0,2018,4,13,16,47,42.976,-0.0713,-0.2526,0.2996,-0.9172
-0.014,0.061,0.249,6,39.7,-2.5,0,2018,4,13,16,47,43.011,-0.0679,-0.2551,0.2924,-0.9191
0.017,-0.003,0.034,0.4,29.5,-1.5,0,2018,4,13,16,47,43.032,-0.066,-0.2554,0.2869,-0.9208
-0.002,-0.124,-0.014,-2.3,45.1,-1.5,0,2018,4,13,16,47,43.037,-0.064,-0.2554,0.2817,-0.9226
-0.008,-0.031,0.056,-6.8,52.6,-3.7,0,2018,4,13,16,47,43.073,-0.0613,-0.2549,0.2741,-0.9252
-0.018,-0.022,0.089,-14.7,53.2,-5.4,0,2018,4,13,16,47,43.094,-0.0585,-0.2531,0.2656,-0.9283
-0.02,0.021,0.087,-24.2,48.6,-2.8,0,2018,4,13,16,47,43.101,-0.0566,-0.25,0.2568,-0.9318
-0.059,0.086,0.146,-30,33.2,-0.7,0,2018,4,13,16,47,43.135,-0.0559,-0.2457,0.2491,-0.935
-0.046,0.116,0.029,-30.6,15.6,2.7,0,2018,4,13,16,47,43.158,-0.0566,-0.241,0.2445,-0.9374
-0.072,0.078,0.022,-31.7,7.2,2.4,0,2018,4,13,16,47,43.163,-0.0582,-0.2365,0.2416,-0.9392
-0.103,0.053,-0.054,-31.8,6.7,3.4,1023,2018,4,13,16,47,43.179,-0.0599,-0.2317,0.24,-0.9407
-0.106,0.068,-0.108,-32.4,9.5,2.7,1023,2018,4,13,16,47,43.196,-0.0614,-0.2269,0.238,-0.9423
-0.075,0.052,-0.186,-29.9,0.3,2.5,1023,2018,4,13,16,47,43.217,-0.063,-0.2219,0.2366,-0.9437
0.005,0.028,-0.311,-21.3,-8.5,1.2,1023,2018,4,13,16,47,43.252,-0.0646,-0.2176,0.2371,-0.9445
0.102,0.146,-0.468,-3.8,2.5,-0.5,1023,2018,4,13,16,47,43.276,-0.0654,-0.2155,0.2381,-0.9447
0.139,0.245,0.327,-1.1,-26.9,-2.6,1023,2018,4,13,16,47,43.28,-0.0657,-0.2143,0.239,-0.9447
0.131,-0.158,0.005,16.7,-14.3,-6.1,1023,2018,4,13,16,47,43.313,-0.066,-0.2148,0.2444,-0.9432
0.051,-0.058,-0.076,36,38.8,-9.4,1023,2018,4,13,16,47,43.338,-0.0628,-0.2191,0.2429,-0.9428
0.018,-0.064,-0.042,42.4,66.5,-8.3,1023,2018,4,13,16,47,43.342,-0.0572,-0.2258,0.2354,-0.9435
0.008,-0.005,-0.037,40,83.4,-7.9,0,2018,4,13,16,47,43.377,-0.051,-0.2331,0.2239,-0.9449
0.022,0.109,-0.024,35.7,59.8,-8.4,0,2018,4,13,16,47,43.4,-0.0452,-0.2397,0.2119,-0.9463
0.013,0.178,0.029,25,2.5,-6.7,0,2018,4,13,16,47,43.405,-0.0417,-0.2449,0.2067,-0.9463
0.025,0.1,0.056,11.6,-54.3,-8.3,0,2018,4,13,16,47,43.422,-0.0411,-0.2474,0.2117,-0.9445
0.064,-0.066,-0.05,1.8,-82.3,-10.6,0,2018,4,13,16,47,43.443,-0.0424,-0.2471,0.2239,-0.9417
0.088,-0.106,-0.174,-2,-100,-13.9,0,2018,4,13,16,47,43.457,-0.0443,-0.2457,0.2396,-0.9381
0.13,-0.079,-0.147,-3.2,-110.1,-14.7,0,2018,4,13,16,47,43.481,-0.0466,-0.2438,0.2575,-0.9338
0.137,-0.217,-0.097,-1.7,-111.6,-20.3,0,2018,4,13,16,47,43.515,-0.0487,-0.2415,0.2768,-0.9287
0.169,-0.319,-0.182,6.1,-67.8,-22.9,0,2018,4,13,16,47,43.539,-0.0489,-0.24,0.2926,-0.9243
0.129,-0.305,-0.243,14.9,-5.6,-22.8,0,2018,4,13,16,47,43.544,-0.0459,-0.2403,0.2994,-0.9221
0.081,0.095,0.021,14.4,43.1,-17,0,2018,4,13,16,47,43.56,-0.0406,-0.2419,0.296,-0.9231
0.028,0.108,0.238,2.5,37.5,-11.5,0,2018,4,13,16,47,43.583,-0.0363,-0.2428,0.2905,-0.9248
-0.035,0.212,0.276,-7.1,26.4,-4.7,0,2018,4,13,16,47,43.619,-0.0336,-0.2422,0.2853,-0.9267
-0.033,0.216,0.163,-12.7,-9.6,3.3,0,2018,4,13,16,47,43.642,-0.0337,-0.2405,0.2838,-0.9276
-0.006,0.075,-0.017,-9.9,-32.9,9.4,0,2018,4,13,16,47,43.648,-0.0365,-0.2388,0.2871,-0.9268
0.004,-0.037,-0.095,-1,-26.6,11.8,0,2018,4,13,16,47,43.661,-0.0399,-0.2385,0.292,-0.9253
0,-0.065,-0.09,9.2,-14.6,10.3,0,2018,4,13,16,47,43.695,-0.0422,-0.24,0.2958,-0.9236
-0.037,-0.145,-0.012,13.3,-23.4,4.3,0,2018,4,13,16,47,43.717,-0.0432,-0.2424,0.2996,-0.9217
-0.038,-0.178,0.004,14.1,-42.1,-2.1,0,2018,4,13,16,47,43.722,-0.0438,-0.2444,0.3057,-0.9191
0.008,-0.297,-0.112,17.4,-65.1,-10.8,0,2018,4,13,16,47,43.758,-0.0443,-0.2462,0.315,-0.9155
0.118,-0.075,-0.102,24.3,-38.4,-5,0,2018,4,13,16,47,43.78,-0.0439,-0.2486,0.3243,-0.9116
0.091,0.025,0.035,28.9,-21.7,1.4,0,2018,4,13,16,47,43.784,-0.0433,-0.2519,0.3295,-0.9088
-0.033,-0.075,0.146,28.6,2.8,3.8,0,2018,4,13,16,47,43.819,-0.0422,-0.256,0.3307,-0.9073
-0.138,-0.077,0.328,18.7,7.8,0.7,0,2018,4,13,16,47,43.842,-0.041,-0.2597,0.329,-0.9069
-0.165,0.014,0.366,3.4,27.5,-2,0,2018,4,13,16,47,43.846,-0.0395,-0.2614,0.3263,-0.9075
-0.16,0.026,0.249,-6.9,46.7,-5,0,2018,4,13,16,47,43.858,-0.0374,-0.261,0.3203,-0.9098
-0.232,0.152,0.342,-17.5,25.5,-16.2,0,2018,4,13,16,47,43.882,-0.0345,-0.2587,0.3142,-0.9127
-0.281,0.167,0.308,-30.9,-47.3,-28.1,0,2018,4,13,16,47,43.916,-0.0328,-0.2536,0.3168,-0.9133
-0.349,-0.016,0.139,-44.8,-87.1,-42,0,2018,4,13,16,47,43.939,-0.0325,-0.2451,0.3299,-0.911
-0.282,-0.122,-0.125,-47.8,-56.1,-52.2,0,2018,4,13,16,47,43.943,-0.031,-0.2342,0.3437,-0.9088
-0.179,-0.065,-0.41,-30.3,6.1,-58.3,0,2018,4,13,16,47,43.98,-0.0255,-0.2244,0.3495,-0.9092
-0.097,-0.044,-0.458,-8,83.8,-57.8,0,2018,4,13,16,47,44.003,-0.0155,-0.218,0.3448,-0.9128
0.006,0.149,-0.624,11.8,162.8,-46.5,0,2018,4,13,16,47,44.007,-0.0021,-0.2154,0.3265,-0.9202
-0.019,0.662,0.237,8.2,68.3,-48.5,0,2018,4,13,16,47,44.023,0.0113,-0.2161,0.3043,-0.9276
0.024,-0.02,0.323,-16.2,-36.3,-31.5,1023,2018,4,13,16,47,44.043,0.0174,-0.2133,0.3074,-0.9271
0.198,0.087,0.029,-26.3,-23.2,-23.3,1023,2018,4,13,16,47,44.078,0.0196,-0.2082,0.313,-0.9264
0.316,0.113,-0.101,-22.4,-25.2,-7.3,1023,2018,4,13,16,47,44.102,0.0198,-0.2034,0.3176,-0.9258
0.317,0.103,-0.117,-14.4,-21.7,4.9,1023,2018,4,13,16,47,44.107,0.018,-0.2005,0.3214,-0.9252
0.248,0.022,-0.092,-4.8,-7.4,22.6,1023,2018,4,13,16,47,44.138,0.0113,-0.1998,0.3258,-0.9239
0.09,-0.11,-0.074,4,-23.2,25.3,1023,2018,4,13,16,47,44.163,-0.0091,-0.2054,0.3333,-0.9201
0.047,-0.132,-0.014,4.3,-9.8,20.1,1023,2018,4,13,16,47,44.167,-0.013,-0.2073,0.3353,-0.9188
0.023,-0.102,0.005,2.7,1.8,16,1023,2018,4,13,16,47,44.2,-0.0154,-0.2085,0.3359,-0.9183
0.006,-0.084,-0.004,1.6,-1.1,11.2,1023,2018,4,13,16,47,44.223,-0.0172,-0.2094,0.3358,-0.9181
0.019,-0.104,-0.028,3.9,-10.1,6.2,0,2018,4,13,16,47,44.228,-0.0184,-0.2102,0.3373,-0.9174
0.016,-0.106,0,6.1,-1.2,2.6,0,2018,4,13,16,47,44.261,-0.0187,-0.211,0.3392,-0.9165
0.002,-0.062,-0.003,7.1,20.5,1.2,0,2018,4,13,16,47,44.283,-0.0181,-0.2121,0.3381,-0.9166
0,-0.02,0.012,6.8,35.5,-0.9,0,2018,4,13,16,47,44.287,-0.0165,-0.2132,0.3337,-0.918
0.021,-0.006,0.028,8,41.8,-0.8,0,2018,4,13,16,47,44.323,-0.0143,-0.2143,0.3274,-0.9201
0.011,0,0.075,8.6,49.8,0,0,2018,4,13,16,47,44.345,-0.012,-0.2153,0.3199,-0.9225
-0.015,0.049,0.093,7.1,57.7,2.1,0,2018,4,13,16,47,44.349,-0.0097,-0.2165,0.3105,-0.9255
-0.022,0.078,0.075,4,54.9,4.3,0,2018,4,13,16,47,44.365,-0.008,-0.2176,0.3001,-0.9286
-0.02,0.083,0.046,2.4,35.8,4.6,0,2018,4,13,16,47,44.386,-0.0071,-0.2185,0.2916,-0.9311
-0.009,0.053,0.043,2.8,22.4,4.1,0,2018,4,13,16,47,44.421,-0.0068,-0.2192,0.2862,-0.9327
-0.033,0.026,0.036,2.5,13.4,4.1,0,2018,4,13,16,47,44.444,-0.0069,-0.2199,0.2827,-0.9335
-0.037,0.018,-0.005,3,12.6,3.5,0,2018,4,13,16,47,44.45,-0.007,-0.2208,0.2803,-0.9341
-0.026,0.048,-0.083,6.6,10.6,3.4,0,2018,4,13,16,47,44.465,-0.007,-0.2223,0.2781,-0.9344
-0.045,0.001,-0.123,11.5,11,1.5,0,2018,4,13,16,47,44.488,-0.0068,-0.2247,0.2767,-0.9342
-0.067,-0.024,-0.107,15.9,19.5,-2.4,0,2018,4,13,16,47,44.524,-0.0055,-0.2273,0.2745,-0.9342
-0.088,0.024,-0.083,18.8,25.5,-6.5,0,2018,4,13,16,47,44.545,-0.003,-0.2305,0.2711,-0.9345
-0.047,0.087,-0.103,21.5,15.1,-8.1,0,2018,4,13,16,47,44.55,-0.0003,-0.2344,0.2677,-0.9345
-0.069,0.057,-0.008,21,6.7,-7.9,0,2018,4,13,16,47,44.564,0.002,-0.2386,0.2661,-0.9339
-0.101,0.101,0.097,9.3,-14.9,-9,0,2018,4,13,16,47,44.587,0.0039,-0.2409,0.2667,-0.9331
-0.026,0.025,0.096,-3.1,-22.7,-7.3,0,2018,4,13,16,47,44.621,0.0043,-0.2409,0.2698,-0.9322
0.021,-0.024,0.038,-8.6,-15.2,-5.8,0,2018,4,13,16,47,44.643,0.0042,-0.2393,0.2729,-0.9317
0.025,-0.036,0.011,-8.9,-9.8,-5.1,0,2018,4,13,16,47,44.647,0.0043,-0.2372,0.2753,-0.9316
0.034,-0.163,0.011,-7.7,-6.2,-5,0,2018,4,13,16,47,44.683,0.0046,-0.2353,0.2773,-0.9315
0.036,-0.137,0.024,-6,-6.9,-7.5,0,2018,4,13,16,47,44.704,0.0053,-0.2335,0.2793,-0.9313
0.047,-0.179,-0.031,-2.8,4.8,-11.9,0,2018,4,13,16,47,44.708,0.0066,-0.2322,0.2801,-0.9314
0.045,-0.121,-0.049,1.1,15.6,-16.9,0,2018,4,13,16,47,44.744,0.0094,-0.2314,0.2788,-0.9319
0.062,-0.088,-0.067,3.8,23.2,-18,0,2018,4,13,16,47,44.767,0.0136,-0.2306,0.2775,-0.9325
0.054,-0.109,-0.07,6.4,47.2,-17.3,0,2018,4,13,16,47,44.773,0.0181,-0.2304,0.2728,-0.9338
0.06,-0.019,-0.061,10.8,74.7,-14.5,0,2018,4,13,16,47,44.786,0.024,-0.2305,0.2641,-0.9362
0.025,0.139,0.021,12.3,76.4,-11,0,2018,4,13,16,47,44.82,0.0297,-0.2313,0.2513,-0.9393
-0.004,0.119,0.062,9.3,63.4,-8.3,0,2018,4,13,16,47,44.844,0.0345,-0.2323,0.2397,-0.9419
-0.001,0.099,0.055,6,46.9,-6.7,0,2018,4,13,16,47,44.848,0.038,-0.2328,0.2297,-0.9442
0.028,0.074,0.051,3.8,35.5,-4.8,0,2018,4,13,16,47,44.882,0.0406,-0.2328,0.2223,-0.9458
0.067,0.06,0.017,2.9,27.5,0.1,0,2018,4,13,16,47,44.906,0.0424,-0.2325,0.2166,-0.9471
0.059,0.013,-0.006,2.9,33.1,4.5,1023,2018,4,13,16,47,44.91,0.0432,-0.2323,0.2111,-0.9484
0.016,-0.088,0.009,4.5,40.7,1.6,1023,2018,4,13,16,47,44.943,0.0445,-0.2324,0.2051,-0.9496
0,-0.121,0.018,4.3,47.2,-2.9,1023,2018,4,13,16,47,44.968,0.0465,-0.2326,0.1988,-0.9508
0.022,0.349,0.16,7.8,9.8,-11.2,1023,2018,4,13,16,47,44.972,0.0494,-0.2328,0.193,-0.9518
-0.043,0.317,0.142,5,-123,-24.2,1023,2018,4,13,16,47,45.009,0.0503,-0.234,0.2032,-0.9494
-0.072,-0.173,-0.042,-3.8,-213.6,-37.2,1023,2018,4,13,16,47,45.03,0.0481,-0.2347,0.234,-0.9422
-0.081,-0.547,-0.119,-11.9,-191.6,-46.2,1023,2018,4,13,16,47,45.034,0.0459,-0.2333,0.2705,-0.9328
-0.093,-0.505,-0.018,-21.1,-79.3,-55.3,1023,2018,4,13,16,47,45.05,0.048,-0.2292,0.2946,-0.9264
-0.051,0.037,0.096,-29.7,-17.5,-55.1,1023,2018,4,13,16,47,45.067,0.0541,-0.2224,0.3036,-0.9248
-0.103,0.263,0.201,-38.2,-14.5,-46.5,0,2018,4,13,16,47,45.09,0.06,-0.2143,0.3079,-0.9249
-0.136,0.366,0.205,-49.5,-39.4,-33.6,0,2018,4,13,16,47,45.124,0.0632,-0.2053,0.314,-0.9247
-0.125,0.34,0.095,-57.5,-59.9,-17.2,0,2018,4,13,16,47,45.147,0.0624,-0.1957,0.3238,-0.9235
-0.125,0.27,0.019,-58.5,-63.5,-3.7,0,2018,4,13,16,47,45.152,0.0586,-0.1864,0.335,-0.9217
-0.116,0.224,-0.027,-55.6,-47.7,8.9,0,2018,4,13,16,47,45.186,0.0529,-0.178,0.3446,-0.9201
-0.116,0.228,-0.062,-48.7,-17.4,22,0,2018,4,13,16,47,45.209,0.0462,-0.1708,0.3499,-0.9199
-0.143,0.19,-0.1,-40,18.3,34.8,0,2018,4,13,16,47,45.213,0.0388,-0.1655,0.3491,-0.9215
-0.13,0.162,-0.166,-29.1,41.4,44.1,0,2018,4,13,16,47,45.246,0.0312,-0.1621,0.3431,-0.9246
-0.1,0.115,-0.227,-16.7,54.9,52.2,0,2018,4,13,16,47,45.246,0.0234,-0.161,0.3339,-0.9284
-0.077,0.085,-0.284,-1.9,61.9,57.2,0,2018,4,13,16,47,45.269,0.0156,-0.1625,0.3227,-0.9322
-0.045,0.047,-0.333,10.7,69.6,59,0,2018,4,13,16,47,45.304,0.0082,-0.1664,0.3102,-0.9359
0.017,0.003,-0.32,22.4,62.2,55,0,2018,4,13,16,47,45.326,0.0018,-0.1722,0.2974,-0.939
0.077,-0.043,-0.276,31.7,31.9,50.4,0,2018,4,13,16,47,45.33,-0.0039,-0.1794,0.288,-0.9406
0.106,-0.094,-0.207,35.5,7,47.9,0,2018,4,13,16,47,45.365,-0.0097,-0.1875,0.2837,-0.9403
0.143,-0.15,-0.159,37.1,3.3,45.4,0,2018,4,13,16,47,45.388,-0.0154,-0.1958,0.2816,-0.9391
0.172,-0.14,-0.164,40.5,9.7,44,0,2018,4,13,16,47,45.393,-0.0207,-0.2043,0.279,-0.938
0.176,-0.122,-0.11,46,-3.9,37.3,0,2018,4,13,16,47,45.427,-0.025,-0.2134,0.2769,-0.9365
0.113,-0.049,0.077,45.2,-40.1,31.4,0,2018,4,13,16,47,45.451,-0.0292,-0.2225,0.2795,-0.9335
0.056,-0.094,0.183,33.9,-67.4,25.5,0,2018,4,13,16,47,45.456,-0.0338,-0.2293,0.2877,-0.9292
-0.008,-0.014,0.319,13.9,-95.5,19.8,0,2018,4,13,16,47,45.47,-0.0392,-0.2334,0.2993,-0.9243
-0.059,-0.156,0.361,-10.2,-137.3,14.1,0,2018,4,13,16,47,45.494,-0.0469,-0.2333,0.3183,-0.9175
0.016,-0.169,0.162,-19.4,-98.4,11.6,0,2018,4,13,16,47,45.509,-0.0544,-0.2293,0.337,-0.9114
0.022,-0.1,0.055,-15,-61.8,11.2,0,2018,4,13,16,47,45.532,-0.06,-0.2257,0.349,-0.9075
-0.044,-0.041,0.112,-8.4,-55,8.6,0,2018,4,13,16,47,45.566,-0.0643,-0.2236,0.357,-0.9046
-0.046,-0.019,0.083,-5,-72.7,6.8,0,2018,4,13,16,47,45.589,-0.0687,-0.2223,0.3663,-0.9009
-0.035,-0.064,0.044,-4.1,-67.9,5.9,0,2018,4,13,16,47,45.593,-0.0727,-0.2211,0.3773,-0.8963
-0.016,-0.12,-0.002,-2.4,-43.2,4.8,0,2018,4,13,16,47,45.628,-0.0759,-0.2202,0.3863,-0.8924
0.001,-0.063,-0.042,2.8,-6.6,5.9,0,2018,4,13,16,47,45.65,-0.0772,-0.2201,0.3905,-0.8905
-0.024,0.072,-0.04,5.8,3.1,9.7,0,2018,4,13,16,47,45.654,-0.0781,-0.2217,0.3903,-0.8901
-0.027,0.125,-0.065,4.9,-10.5,15.5,0,2018,4,13,16,47,45.669,-0.0802,-0.224,0.3897,-0.8896
0.001,0.035,-0.209,11.9,-14.6,22.2,0,2018,4,13,16,47,45.692,-0.0835,-0.2267,0.3915,-0.8878
-0.009,-0.102,-0.362,27,6.6,19.9,0,2018,4,13,16,47,45.729,-0.0858,-0.2311,0.3914,-0.8865
-0.063,-0.122,-0.258,32.2,9.1,12.8,1023,2018,4,13,16,47,45.75,-0.0856,-0.237,0.39,-0.8856
-0.13,-0.003,-0.117,23.6,5.4,7.8,1023,2018,4,13,16,47,45.754,-0.085,-0.2422,0.3887,-0.8848
-0.009,0.111,-0.132,19.1,-23.7,0.2,1023,2018,4,13,16,47,45.789,-0.0846,-0.2457,0.3901,-0.8833
0.002,0.035,0.037,13,-31.8,-7,1023,2018,4,13,16,47,45.811,-0.0845,-0.2478,0.3955,-0.8803
-0.054,0.148,0.14,6.1,-20.6,-10.3,1023,2018,4,13,16,47,45.816,-0.0836,-0.2482,0.3995,-0.8784
-0.025,0.202,0.159,1.4,-35.9,-9.4,1023,2018,4,13,16,47,45.851,-0.0829,-0.2476,0.4041,-0.8765
0.004,0.09,0.136,-2.4,-54.6,-9.1,1023,2018,4,13,16,47,45.873,-0.0836,-0.2461,0.4117,-0.8734
0.052,-0.061,0.149,-3.8,-41.7,-7,1023,2018,4,13,16,47,45.877,-0.0848,-0.2441,0.4196,-0.8701
0.081,-0.119,0.108,-3.4,-14.7,-5.8,1023,2018,4,13,16,47,45.912,-0.0853,-0.2426,0.4238,-0.8684
0.076,-0.163,0.117,-5.2,-9.2,-5.8,0,2018,4,13,16,47,45.935,-0.0846,-0.2404,0.4257,-0.8681
0.087,-0.146,0.091,-7.9,-13.6,-5.1,0,2018,4,13,16,47,45.939,-0.0848,-0.2388,0.4275,-0.8677
0.112,-0.131,0.049,-8.9,-19.8,-4,0,2018,4,13,16,47,45.952,-0.0855,-0.2369,0.4302,-0.8668
0.134,-0.153,0.003,-2.8,-6.9,-2,0,2018,4,13,16,47,45.976,-0.086,-0.2355,0.4324,-0.866
0.017,-0.017,0.066,0.7,22.1,0.7,0,2018,4,13,16,47,46.011,-0.0855,-0.2353,0.4313,-0.8667
-0.004,0.032,0.179,-3.7,14,2.4,0,2018,4,13,16,47,46.035,-0.085,-0.2356,0.4277,-0.8684
-0.025,-0.05,0.114,-9.3,12,1.5,0,2018,4,13,16,47,46.04,-0.0854,-0.2346,0.425,-0.87
-0.016,-0.052,0.062,-11.9,10.9,-0.2,0,2018,4,13,16,47,46.072,-0.0858,-0.2328,0.4228,-0.8715
-0.025,-0.133,0.052,-12.5,21.7,-5.6,0,2018,4,13,16,47,46.094,-0.0855,-0.2308,0.4206,-0.8731
-0.049,-0.135,0.15,-16.6,56.4,-10.1,0,2018,4,13,16,47,46.098,-0.0837,-0.2282,0.415,-0.8767
-0.135,-0.047,0.283,-28.1,91.1,-17.9,0,2018,4,13,16,47,46.133,-0.08,-0.2246,0.4029,-0.8835
-0.162,0.112,0.355,-42.5,69.4,-27.6,0,2018,4,13,16,47,46.157,-0.0755,-0.2186,0.3901,-0.8911
-0.1,0.024,0.104,-50.3,20.5,-34.9,0,2018,4,13,16,47,46.161,-0.0722,-0.2096,0.3842,-0.8962
-0.039,0.029,0.074,-49.3,-2.8,-32.6,0,2018,4,13,16,47,46.176,-0.0702,-0.1998,0.3831,-0.899
-0.039,-0.12,0.033,-52.4,15.3,-23.9,0,2018,4,13,16,47,46.211,-0.069,-0.1899,0.3831,-0.9012
0.044,-0.094,-0.221,-49.4,57.2,-10.6,0,2018,4,13,16,47,46.233,-0.0684,-0.181,0.3775,-0.9055
0.146,-0.045,-0.496,-35.2,66.3,0.9,0,2018,4,13,16,47,46.238,-0.0686,-0.1748,0.3668,-0.9111
0.169,0.019,-0.538,-12.3,54.4,4.1,0,2018,4,13,16,47,46.272,-0.0687,-0.1719,0.3566,-0.9157
0.07,-0.057,-0.444,6.1,39,5.2,0,2018,4,13,16,47,46.295,-0.0682,-0.1725,0.3493,-0.9184
0.028,-0.091,-0.44,17.9,42.6,4.6,0,2018,4,13,16,47,46.3,-0.067,-0.1753,0.3428,-0.9204
0.025,-0.129,-0.482,29.6,46.9,0.2,0,2018,4,13,16,47,46.335,-0.0647,-0.1798,0.3357,-0.9223
0.023,-0.146,-0.419,39.4,58.5,-5.7,0,2018,4,13,16,47,46.358,-0.0606,-0.1858,0.328,-0.9242
0.016,-0.039,-0.338,45.9,79.4,-12.3,0,2018,4,13,16,47,46.361,-0.0543,-0.1929,0.3174,-0.9268
-0.037,0.202,-0.092,40.5,74.9,-11.4,0,2018,4,13,16,47,46.375,-0.0472,-0.2,0.3052,-0.9298
-0.158,0.707,0.583,6.7,8.4,2.6,0,2018,4,13,16,47,46.414,-0.0433,-0.2043,0.2975,-0.9315
-0.261,0.327,0.535,-23.3,-63.4,15.7,0,2018,4,13,16,47,46.436,-0.0472,-0.2025,0.3033,-0.9298
-0.041,0.362,0.048,-29.9,-104.4,24,0,2018,4,13,16,47,46.441,-0.0549,-0.1983,0.3158,-0.9262
0.029,0.139,-0.185,-16,-138.4,25,0,2018,4,13,16,47,46.457,-0.0648,-0.1948,0.3349,-0.9195
0.012,-0.037,-0.149,1.3,-146.5,22,0,2018,4,13,16,47,46.478,-0.0739,-0.1942,0.3579,-0.9103
-0.02,-0.29,0.031,-2.2,-79.8,19.3,0,2018,4,13,16,47,46.514,-0.0808,-0.1943,0.3764,-0.9022
-0.066,-0.183,0.208,-26,-21,12.6,1023,2018,4,13,16,47,46.535,-0.0855,-0.192,0.3828,-0.8995
0.074,0,0.062,-35,-34.6,12.4,1023,2018,4,13,16,47,46.539,-0.0904,-0.1868,0.3848,-0.8993
0.102,-0.039,-0.095,-20.9,-72.7,14.6,1023,2018,4,13,16,47,46.574,-0.096,-0.1815,0.3927,-0.8964
0.017,-0.398,-0.309,2.5,-58.4,10.4,1023,2018,4,13,16,47,46.598,-0.1009,-0.1798,0.4033,-0.8915
-0.039,-0.471,-0.239,23.3,9.7,-4.8,1023,2018,4,13,16,47,46.626,-0.1011,-0.1818,0.4072,-0.8893
0.025,-0.186,-0.071,26.6,50.1,-21.2,1023,2018,4,13,16,47,46.643,-0.0956,-0.1858,0.4025,-0.8912
-0.01,-0.063,0.427,0.2,40.3,-20.3,1023,2018,4,13,16,47,46.646,-0.09,-0.1869,0.3976,-0.8937
0.014,0.211,0.228,-8.1,46.4,-16.1,1023,2018,4,13,16,47,46.658,-0.0858,-0.1855,0.3898,-0.8979
-0.002,0.062,0.035,-2.5,19.3,-6.5,1023,2018,4,13,16,47,46.693,-0.0837,-0.1841,0.3858,-0.9001
-0.018,0.013,-0.019,5.3,40.7,-3.4,1023,2018,4,13,16,47,46.714,-0.082,-0.1847,0.3809,-0.9022
-0.034,0.035,-0.006,10.4,39.4,-4.4,0,2018,4,13,16,47,46.72,-0.0796,-0.1866,0.3745,-0.9047
-0.018,0.026,-0.004,9.6,36.9,-3.2,0,2018,4,13,16,47,46.757,-0.0772,-0.1888,0.3686,-0.9068
0.009,-0.077,-0.049,7.4,37.9,-1.4,0,2018,4,13,16,47,46.778,-0.0751,-0.1906,0.3632,-0.9089
0.002,-0.105,-0.107,4.9,44.8,-3.8,0,2018,4,13,16,47,46.783,-0.0728,-0.1919,0.3573,-0.9111
0,-0.039,-0.104,5.5,37.3,-8,0,2018,4,13,16,47,46.817,-0.07,-0.1931,0.3516,-0.9133
-0.011,-0.036,-0.067,5.5,31.6,-11.7,0,2018,4,13,16,47,46.84,-0.0667,-0.194,0.3475,-0.9149
0.001,0.027,-0.014,3,32.2,-9.5,0,2018,4,13,16,47,46.845,-0.0637,-0.1946,0.3432,-0.9166
0.006,0.09,0.011,0.1,47.4,-4.7,0,2018,4,13,16,47,46.879,-0.0611,-0.1948,0.3366,-0.9192
0.014,0.195,0.017,-0.5,25,0.7,0,2018,4,13,16,47,46.879,-0.0596,-0.1951,0.3299,-0.9216
0.015,0.119,0.023,0.4,-9.4,5,0,2018,4,13,16,47,46.901,-0.06,-0.1954,0.3286,-0.922
0,0.012,0.029,2.1,-11.6,7.8,0,2018,4,13,16,47,46.937,-0.0615,-0.1958,0.3299,-0.9214
-0.023,0.022,0.067,1.9,-3,11.3,0,2018,4,13,16,47,46.958,-0.0632,-0.1966,0.3303,-0.9209
0.003,0.13,0.08,1.2,-18.5,13.5,0,2018,4,13,16,47,46.963,-0.0657,-0.1974,0.3304,-0.9205
0.032,0.081,-0.06,3.9,-42.7,13,0,2018,4,13,16,47,46.998,-0.069,-0.1983,0.335,-0.9185
0.019,0.013,-0.106,5.6,-25.9,14.5,0,2018,4,13,16,47,47.02,-0.072,-0.1995,0.341,-0.9157
-0.05,0.072,-0.075,11.1,-17.8,15.2,0,2018,4,13,16,47,47.024,-0.0747,-0.2021,0.3439,-0.9139
-0.123,0.16,0.072,10.7,-24.7,13.2,0,2018,4,13,16,47,47.058,-0.0772,-0.2048,0.3469,-0.9119
-0.167,0.002,0.179,-2.4,-0.3,6.7,0,2018,4,13,16,47,47.082,-0.0791,-0.2058,0.3494,-0.9106
-0.261,-0.01,0.224,-18.6,69.4,6.3,0,2018,4,13,16,47,47.087,-0.0795,-0.2049,0.3439,-0.9128
-0.256,0.44,0.285,-32.8,108,15.3,0,2018,4,13,16,47,47.102,-0.0791,-0.2028,0.3271,-0.9195
-0.166,0.606,0.164,-38.5,24.5,24,0,2018,4,13,16,47,47.137,-0.082,-0.1989,0.314,-0.9246
0.057,0.276,-0.107,-10.5,-86.7,22.5,0,2018,4,13,16,47,47.16,-0.0889,-0.1953,0.3192,-0.923
-0.225,-0.455,0.036,10.7,-37.9,17.1,0,2018,4,13,16,47,47.164,-0.0945,-0.1958,0.3307,-0.9183
-0.135,-0.539,-0.138,12.2,101,8.2,0,2018,4,13,16,47,47.198,-0.0944,-0.1991,0.3247,-0.9197
0.072,-0.014,-0.093,5.1,139,10.4,0,2018,4,13,16,47,47.223,-0.0906,-0.2032,0.303,-0.9266
0.229,0.208,-0.122,-1.6,31.5,14,0,2018,4,13,16,47,47.226,-0.0892,-0.2052,0.288,-0.9311
0.302,-0.152,-0.164,-4.2,-66.9,20.9,0,2018,4,13,16,47,47.243,-0.0933,-0.2051,0.2917,-0.9295
0.284,-0.457,-0.164,-8.8,-64.8,21.8,0,2018,4,13,16,47,47.266,-0.0998,-0.204,0.3026,-0.9256
0.274,-0.386,-0.225,-11.9,-24.8,16.8,0,2018,4,13,16,47,47.301,-0.105,-0.2026,0.3087,-0.9233
0.235,-0.269,-0.251,-11.9,-16.8,9.6,1023,2018,4,13,16,47,47.301,-0.1084,-0.201,0.3108,-0.9225
0.191,-0.213,-0.23,-8.6,-32.5,1.2,1023,2018,4,13,16,47,47.325,-0.1107,-0.1991,0.3144,-0.9215
0.126,-0.236,-0.204,-5.2,-41.6,-7.2,1023,2018,4,13,16,47,47.358,-0.1119,-0.1971,0.3206,-0.9196
0.064,-0.222,-0.193,-1.3,-37.2,-14,1023,2018,4,13,16,47,47.382,-0.1117,-0.1952,0.3273,-0.9177
0,-0.158,-0.155,2.4,-33.2,-19.7,1023,2018,4,13,16,47,47.386,-0.1101,-0.1936,0.3334,-0.916
-0.031,-0.093,-0.111,5.2,-36,-23.6,1023,2018,4,13,16,47,47.421,-0.1075,-0.1923,0.3397,-0.9143
-0.037,-0.076,-0.099,8.8,-37.2,-25.4,1023,2018,4,13,16,47,47.443,-0.1043,-0.1916,0.3475,-0.9119
-0.059,-0.038,-0.048,12.5,-25.9,-25.6,1023,2018,4,13,16,47,47.447,-0.1006,-0.1916,0.3545,-0.9096
-0.055,0.072,-0.049,15.8,-6.5,-21.7,1023,2018,4,13,16,47,47.481,-0.0966,-0.1928,0.3582,-0.9083
0.015,0.122,-0.058,17.8,-5.1,-15.3,1023,2018,4,13,16,47,47.504,-0.0931,-0.1949,0.3592,-0.9078
0.031,0.157,0.085,18.6,-16.9,-7.5,0,2018,4,13,16,47,47.509,-0.0908,-0.1972,0.3608,-0.9069
0.008,0.004,0.147,17.3,-30.3,-8.5,0,2018,4,13,16,47,47.543,-0.0892,-0.199,0.365,-0.905
-0.059,0,0.235,11.8,-9,-6.7,0,2018,4,13,16,47,47.566,-0.088,-0.2001,0.368,-0.9037
-0.069,0.112,0.264,8.2,16.8,-4.7,0,2018,4,13,16,47,47.57,-0.0863,-0.2013,0.3677,-0.9037
-0.085,0.072,0.199,9.3,38.6,-3.6,0,2018,4,13,16,47,47.583,-0.0841,-0.2028,0.3634,-0.9053
-0.128,0.094,0.227,8,51.3,-4,0,2018,4,13,16,47,47.619,-0.0813,-0.2047,0.3564,-0.9079
-0.132,0.311,0.305,-2.5,69,2,0,2018,4,13,16,47,47.643,-0.0787,-0.2059,0.3469,-0.9115
-0.132,0.34,0.265,-14.8,75.6,9.5,0,2018,4,13,16,47,47.648,-0.0775,-0.2058,0.3348,-0.9162
-0.077,0.363,0.151,-18.9,42.3,18.3,0,2018,4,13,16,47,47.681,-0.0786,-0.2046,0.324,-0.9203
0.001,0.224,0.073,-16,-27.6,27.2,0,2018,4,13,16,47,47.705,-0.083,-0.2031,0.3218,-0.9209
0.03,0.018,0.04,-13.2,-88.5,32,0,2018,4,13,16,47,47.708,-0.0909,-0.2015,0.3303,-0.9175
0.082,-0.306,-0.057,-13.8,-94,31.1,0,2018,4,13,16,47,47.742,-0.1001,-0.1994,0.3446,-0.9118
0.154,-0.42,-0.175,-12,-57.6,23.4,0,2018,4,13,16,47,47.763,-0.1079,-0.1976,0.3555,-0.9071
0.163,-0.396,-0.206,-7.2,-23,13.9,0,2018,4,13,16,47,47.768,-0.1127,-0.1965,0.3606,-0.9047
0.105,-0.293,-0.18,-5,-16.2,5.9,0,2018,4,13,16,47,47.782,-0.1152,-0.1959,0.3629,-0.9036
0.05,-0.221,-0.165,-5.2,-29,-1.6,0,2018,4,13,16,47,47.805,-0.1166,-0.1948,0.3662,-0.9023
0.046,-0.176,-0.155,-4.4,-43.5,-11.1,0,2018,4,13,16,47,47.839,-0.1172,-0.1928,0.3722,-0.9002
0.059,-0.124,-0.115,-0.8,-45.7,-21.5,0,2018,4,13,16,47,47.863,-0.1163,-0.1903,0.3799,-0.8977
0,-0.119,-0.093,2.3,-31,-29.5,0,2018,4,13,16,47,47.867,-0.1135,-0.1879,0.3869,-0.8955
-0.047,-0.087,-0.078,5.2,-4.8,-34,0,2018,4,13,16,47,47.901,-0.1087,-0.1861,0.3912,-0.8946
-0.029,-0.039,-0.047,7.1,21.9,-34.7,0,2018,4,13,16,47,47.924,-0.1025,-0.1852,0.3917,-0.8953
0.02,0.008,-0.005,10.6,49.8,-32.7,0,2018,4,13,16,47,47.928,-0.0954,-0.185,0.3874,-0.898
0.014,0.035,-0.004,14.1,76.6,-27.8,0,2018,4,13,16,47,47.963,-0.0877,-0.1858,0.3785,-0.9024
-0.036,0.053,0.028,15.5,101.6,-22.5,0,2018,4,13,16,47,47.985,-0.08,-0.188,0.3649,-0.9083
-0.027,0.058,0.043,15.5,109.9,-18.4,0,2018,4,13,16,47,47.99,-0.0725,-0.191,0.348,-0.9149
-0.018,0.041,0.043,15.1,125.5,-13.6,0,2018,4,13,16,47,48.005,-0.0653,-0.1941,0.3295,-0.9216
-0.051,0.139,0.034,12,142,-5.2,0,2018,4,13,16,47,48.028,-0.0587,-0.1974,0.3072,-0.929
-0.023,0.25,-0.006,11.8,127.2,1.3,0,2018,4,13,16,47,48.063,-0.053,-0.2006,0.2851,-0.9357
-0.025,0.236,-0.005,11.3,88,5.1,0,2018,4,13,16,47,48.087,-0.0492,-0.2037,0.2674,-0.9405
0.012,0.151,-0.016,9.4,51.1,7.6,0,2018,4,13,16,47,48.091,-0.0475,-0.2063,0.2562,-0.9431
-0.001,0.106,-0.031,7.5,39.2,8.8,1023,2018,4,13,16,47,48.107,-0.0472,-0.2086,0.2478,-0.9448
0.003,0.092,-0.035,4.2,36.7,9.3,1023,2018,4,13,16,47,48.128,-0.0473,-0.2106,0.2407,-0.9462
0.037,0.1,-0.101,1.8,29.1,9.7,1023,2018,4,13,16,47,48.165,-0.0477,-0.212,0.2341,-0.9475
0.087,0.086,-0.137,2.5,9.7,8.8,1023,2018,4,13,16,47,48.186,-0.0486,-0.2128,0.2303,-0.9482
0.088,-0.038,-0.145,6.8,18.4,10.7,1023,2018,4,13,16,47,48.191,-0.0493,-0.2138,0.2288,-0.9484
0.066,-0.031,-0.129,10.3,56.8,12.3,1023,2018,4,13,16,47,48.226,-0.0492,-0.2159,0.2233,-0.9492
0.076,0.031,-0.075,13.3,71.8,10.9,1023,2018,4,13,16,47,48.247,-0.0479,-0.2186,0.2121,-0.9512
0.076,0.044,-0.001,15.8,47.2,8.7,1023,2018,4,13,16,47,48.252,-0.0466,-0.2214,0.2015,-0.9529
0.044,0.013,0.023,18.1,21.7,9.3,1023,2018,4,13,16,47,48.289,-0.0461,-0.2243,0.1955,-0.9535
0.023,-0.024,0.004,17.4,3.9,11.8,0,2018,4,13,16,47,48.293,-0.0468,-0.2273,0.1932,-0.9532
0.03,-0.013,-0.062,18.5,-10,13.8,0,2018,4,13,16,47,48.31,-0.0484,-0.2306,0.1938,-0.9523
0.037,-0.037,-0.056,20.4,-15.1,14.4,0,2018,4,13,16,47,48.331,-0.0505,-0.2341,0.1962,-0.9508
-0.006,-0.056,-0.03,20,-15.2,13.3,0,2018,4,13,16,47,48.366,-0.0526,-0.2378,0.1989,-0.9492
