ax,ay,az,dpitch,droll,dyaw,heart,time_1,time_2,time_3,time_4,time_5,time_6,w,x,y,z
-0.047,0.008,-0.015,-41.4,-5.1,36.5,0,2018,4,25,16,36,30.819,-0.7981,-0.0998,-0.4422,0.3967
-0.019,0.026,-0.033,-39.5,-9.2,36.3,0,2018,4,25,16,36,30.842,-0.7926,-0.099,-0.4488,0.4005
0.043,0.014,-0.064,-37.7,-12,35,0,2018,4,25,16,36,30.846,-0.7871,-0.0975,-0.456,0.4037
0.052,0.052,-0.064,-36.3,-14.1,34,0,2018,4,25,16,36,30.864,-0.7817,-0.0962,-0.4631,0.4063
0.049,0.064,-0.053,-35.6,-16.6,32.9,0,2018,4,25,16,36,30.903,-0.7765,-0.0946,-0.4701,0.4085
0.053,0.073,-0.033,-37.1,-17.9,33.9,0,2018,4,25,16,36,30.924,-0.7714,-0.0929,-0.4771,0.4106
0.122,0.136,-0.062,-39.3,-21.5,38.2,0,2018,4,25,16,36,30.928,-0.7659,-0.0903,-0.4843,0.413
0.1,0.163,-0.075,-40.4,-30.4,45.1,0,2018,4,25,16,36,30.945,-0.7599,-0.0862,-0.4921,0.4157
0.04,0.158,-0.035,-40.6,-33.7,50.6,0,2018,4,25,16,36,30.967,-0.7533,-0.0806,-0.5006,0.4186
0.1,0.16,0.026,-42.8,-24.9,53.1,0,2018,4,25,16,36,30.988,-0.7462,-0.0751,-0.509,0.4223
0.338,0.253,0.02,-37.5,-18.1,55.9,0,2018,4,25,16,36,31.008,-0.7388,-0.0706,-0.5165,0.4269
0.434,0.298,0.01,-32.3,-19.4,62,0,2018,4,25,16,36,31.028,-0.7314,-0.0656,-0.523,0.4324
0.417,0.333,0.035,-31.6,-23.9,68.9,0,2018,4,25,16,36,31.066,-0.7238,-0.0592,-0.5294,0.4384
0.515,0.342,-0.017,-27.8,-28.5,75,0,2018,4,25,16,36,31.07,-0.7157,-0.0515,-0.5359,0.4448
0.705,0.408,-0.064,-19.9,-35.1,84.1,0,2018,4,25,16,36,31.087,-0.7075,-0.0419,-0.542,0.4514
0.804,0.523,-0.114,-18,-50.5,101.8,0,2018,4,25,16,36,31.104,-0.6986,-0.0294,-0.5482,0.4587
0.814,0.441,-0.122,-18.2,-71.2,122.5,0,2018,4,25,16,36,31.142,-0.6879,-0.0126,-0.5558,0.4664
0.638,0.272,-0.231,-14.4,-86.3,142.1,0,2018,4,25,16,36,31.163,-0.6755,0.0085,-0.5644,0.4743
0.456,0.089,-0.413,-4.5,-66.9,163.9,0,2018,4,25,16,36,31.168,-0.6613,0.0324,-0.5718,0.4842
0.136,-0.19,-0.446,10,17.7,187.6,0,2018,4,25,16,36,31.189,-0.6464,0.0535,-0.5723,0.5016
-0.222,-0.233,-0.238,23.3,85.8,197.8,0,2018,4,25,16,36,31.209,-0.6312,0.0678,-0.563,0.529
-0.559,-0.173,-0.143,28.5,80.2,193.2,0,2018,4,25,16,36,31.229,-0.6161,0.0795,-0.5492,0.5588
-0.735,-0.11,-0.164,25.1,54.5,186.4,0,2018,4,25,16,36,31.247,-0.6007,0.0933,-0.537,0.5847
-0.703,-0.088,-0.192,28.5,59.7,168.2,0,2018,4,25,16,36,31.266,-0.5855,0.1068,-0.5255,0.6079
-0.553,-0.042,-0.194,38.9,73.7,135.6,0,2018,4,25,16,36,31.285,-0.5735,0.1174,-0.5118,0.6287
-0.369,0.033,-0.162,51.2,77.2,99.6,0,2018,4,25,16,36,31.305,-0.5661,0.1251,-0.4962,0.6462
-0.206,0.172,-0.171,58.8,64.1,64,1023,2018,4,25,16,36,31.341,-0.5632,0.1312,-0.4809,0.6589
-0.116,0.331,-0.126,65.6,41.1,41.7,1023,2018,4,25,16,36,31.362,-0.5638,0.1377,-0.467,0.667
-0.065,0.326,-0.043,68.6,14.4,38.9,1023,2018,4,25,16,36,31.366,-0.5654,0.1461,-0.4562,0.6714
-0.172,0.286,-0.032,66.6,-2.7,45.6,0,2018,4,25,16,36,31.388,-0.5659,0.1569,-0.4478,0.6741
-0.138,0.218,-0.02,62.8,-4.6,55.3,0,2018,4,25,16,36,31.407,-0.5648,0.169,-0.4407,0.6767
-0.227,0.198,-0.06,60.3,10.5,69.6,0,2018,4,25,16,36,31.428,-0.5621,0.1808,-0.4324,0.6812
-0.308,0.172,-0.042,59.2,22.5,78.1,0,2018,4,25,16,36,31.448,-0.5582,0.1918,-0.422,0.688
-0.273,0.139,0.055,52.8,24,70.6,0,2018,4,25,16,36,31.488,-0.554,0.2018,-0.4111,0.6951
-0.243,0.285,-0.011,46.3,4.2,52.4,0,2018,4,25,16,36,31.507,-0.5506,0.2106,-0.4021,0.7005
-0.301,0.328,-0.206,41.4,-29.6,35.3,0,2018,4,25,16,36,31.511,-0.5477,0.2202,-0.3982,0.702
-0.233,0.342,-0.212,45.2,-43.7,27.5,0,2018,4,25,16,36,31.526,-0.5455,0.2312,-0.3975,0.7005
-0.228,0.147,-0.125,50.3,-49,28.6,0,2018,4,25,16,36,31.546,-0.5435,0.2436,-0.3977,0.6978
-0.271,0.05,-0.112,52.5,-24.6,41.8,0,2018,4,25,16,36,31.57,-0.5412,0.2558,-0.3959,0.6962
-0.065,0.107,0.039,51.7,-0.2,61.5,0,2018,4,25,16,36,31.605,-0.538,0.2668,-0.3899,0.698
-0.009,0.166,0.026,49.6,10.6,80.8,0,2018,4,25,16,36,31.626,-0.5333,0.2767,-0.38,0.7032
-0.054,0.146,-0.071,48.6,-0.2,99.4,0,2018,4,25,16,36,31.63,-0.5257,0.2877,-0.3694,0.7101
-0.099,-0.093,-0.1,47.7,17,109.5,0,2018,4,25,16,36,31.651,-0.5157,0.3002,-0.359,0.7175
-0.012,-0.089,0.024,51.8,66.2,111.5,0,2018,4,25,16,36,31.671,-0.5069,0.3099,-0.3435,0.7272
-0.064,-0.091,-0.014,54.6,114.5,112,0,2018,4,25,16,36,31.69,-0.5005,0.3154,-0.3211,0.7394
-0.11,-0.186,-0.078,61.7,150.7,104,0,2018,4,25,16,36,31.708,-0.4967,0.3174,-0.2926,0.7528
-0.105,-0.158,-0.059,73.7,174.9,92,0,2018,4,25,16,36,31.728,-0.4962,0.3168,-0.2593,0.7655
-0.128,-0.213,-0.114,85.4,194.2,77.8,0,2018,4,25,16,36,31.748,-0.4983,0.315,-0.2228,0.7763
-0.152,-0.149,-0.14,101,193.9,60.4,0,2018,4,25,16,36,31.77,-0.5029,0.3132,-0.1842,0.7841
-0.218,-0.074,0.018,109.1,165.8,40.9,1023,2018,4,25,16,36,31.789,-0.509,0.3133,-0.1469,0.788
-0.215,0.079,0.045,98.2,109.8,26,1023,2018,4,25,16,36,31.809,-0.5146,0.3159,-0.1167,0.7884
-0.157,0.017,-0.086,85.7,51.5,22.5,1023,2018,4,25,16,36,31.829,-0.5173,0.3219,-0.0967,0.7869
-0.154,-0.07,-0.18,83.8,25.7,23.7,1023,2018,4,25,16,36,31.849,-0.5174,0.3307,-0.083,0.7848
0.111,-0.046,-0.096,95.2,28.7,18.7,1023,2018,4,25,16,36,31.869,-0.5171,0.3408,-0.0704,0.7819
0.053,-0.036,-0.04,113.6,29.4,15.9,1023,2018,4,25,16,36,31.907,-0.518,0.3526,-0.0562,0.7772
-0.13,-0.567,-0.045,118.8,18.4,7.3,1023,2018,4,25,16,36,31.928,-0.5184,0.3671,-0.0424,0.771
-0.378,-1.201,0.073,116.4,182.2,-36.8,1023,2018,4,25,16,36,31.93,-0.527,0.3737,-0.0202,0.7629
-0.052,0.554,0.321,108,158.6,-55.6,1023,2018,4,25,16,36,31.953,-0.5468,0.3701,0.0135,0.7507
-0.031,0.59,0.164,95.6,-35.5,-36.5,1023,2018,4,25,16,36,31.973,-0.5558,0.3783,0.0272,0.7396
-0.163,0.487,0.059,81.6,-106,-5.9,1023,2018,4,25,16,36,31.996,-0.5526,0.398,0.0234,0.7318
-0.133,0.108,0.007,76.7,-91,18.3,1023,2018,4,25,16,36,32.015,-0.5435,0.4182,0.0183,0.7274
-0.193,0.149,0.344,72,-41,18.6,1023,2018,4,25,16,36,32.032,-0.5366,0.4326,0.02,0.7242
-0.063,0.172,0.086,63.9,-94.2,15.9,1023,2018,4,25,16,36,32.069,-0.529,0.4473,0.0187,0.7208
0.005,0.098,0.067,64.8,-100.7,30,1023,2018,4,25,16,36,32.091,-0.5177,0.4643,0.0138,0.7183
0.144,0.056,-0.686,82.1,-86.1,47.3,1023,2018,4,25,16,36,32.095,-0.5045,0.4823,0.0114,0.7159
-0.011,-0.505,0.035,79.7,8.4,52.5,1023,2018,4,25,16,36,32.131,-0.4944,0.4958,0.018,0.7136
0.18,0.111,0.045,75.8,11,50,1023,2018,4,25,16,36,32.151,-0.49,0.5032,0.0317,0.711
0.143,-0.054,-0.163,68.8,-26.9,66.1,1023,2018,4,25,16,36,32.155,-0.4812,0.5131,0.0412,0.7094
0.061,-0.21,-0.211,83.4,6.2,72.5,0,2018,4,25,16,36,32.175,-0.4711,0.5226,0.0527,0.7085
-0.028,0.089,0.212,81.1,3.4,74.2,0,2018,4,25,16,36,32.195,-0.462,0.5313,0.067,0.7069
-0.093,0.077,0.138,71.1,-14.8,80.5,0,2018,4,25,16,36,32.214,-0.4507,0.5401,0.0791,0.7063
0.007,0.199,0.114,72.6,-18,89,0,2018,4,25,16,36,32.234,-0.4376,0.5491,0.0903,0.7062
-0.232,-0.054,-0.002,72.5,6.4,94.3,0,2018,4,25,16,36,32.27,-0.4238,0.5571,0.1039,0.7064
-0.303,0.149,-0.094,74.1,24.3,98.1,0,2018,4,25,16,36,32.275,-0.4122,0.5632,0.1211,0.7058
-0.288,-0.013,0.124,73.4,33.2,97.5,0,2018,4,25,16,36,32.291,-0.4013,0.568,0.1402,0.7046
0.014,-0.142,0.204,61.5,17.5,86.9,0,2018,4,25,16,36,32.333,-0.3908,0.572,0.157,0.7037
0.05,-0.213,0.06,54.7,34.1,79.9,0,2018,4,25,16,36,32.352,-0.3815,0.5751,0.1723,0.7028
-0.012,-0.018,0.083,47.9,35.3,72.8,0,2018,4,25,16,36,32.356,-0.3747,0.5762,0.188,0.7015
-0.008,0.108,-0.146,45,11.7,78.4,0,2018,4,25,16,36,32.375,-0.3659,0.5779,0.2012,0.7011
-0.057,0.254,-0.052,46.7,-0.7,89.6,0,2018,4,25,16,36,32.395,-0.3545,0.58,0.2131,0.7016
-0.092,-0.091,0.149,37.3,-3,91.1,0,2018,4,25,16,36,32.435,-0.3413,0.5813,0.2241,0.7037
0.01,-0.146,0.243,28.5,-9.5,82.8,0,2018,4,25,16,36,32.454,-0.3289,0.582,0.2337,0.7059
-0.019,-0.028,0.053,25.3,-14.1,77.3,0,2018,4,25,16,36,32.458,-0.317,0.5825,0.2416,0.7083
-0.135,-0.051,0.03,25.4,-17.2,78.7,0,2018,4,25,16,36,32.495,-0.3048,0.5831,0.2487,0.7106
-0.177,-0.087,0.149,15.9,-27.6,73.9,0,2018,4,25,16,36,32.5,-0.2928,0.5834,0.2542,0.7135
-0.208,-0.086,0.108,2.4,-24.8,64.6,1023,2018,4,25,16,36,32.516,-0.2809,0.5829,0.2575,0.7175
-0.248,0.139,0.299,-12.1,-44.2,54.2,1023,2018,4,25,16,36,32.536,-0.2712,0.5806,0.2601,0.7221
-0.302,0.053,0.29,-36.4,-96.9,37.8,1023,2018,4,25,16,36,32.556,-0.2592,0.5784,0.2539,0.7305
-0.283,0.069,0.266,-57.5,-144.5,19.8,1023,2018,4,25,16,36,32.576,-0.2456,0.5755,0.2393,0.7423
-0.244,0.25,0.187,-78.4,-220.4,5.4,1023,2018,4,25,16,36,32.595,-0.2283,0.5736,0.2135,0.757
-0.373,0.628,0.057,-103,-358,-7.1,1023,2018,4,25,16,36,32.615,-0.2032,0.5725,0.1719,0.7754
-0.393,0.553,-0.379,-123.4,-502.4,-16.7,1023,2018,4,25,16,36,32.655,-0.1636,0.5708,0.1064,0.7974
-0.448,-0.216,-0.722,-119.9,-483.2,-49.6,1023,2018,4,25,16,36,32.676,-0.1183,0.5665,0.0279,0.815
-0.407,-0.591,-0.56,-97.2,-292.3,-104.7,1023,2018,4,25,16,36,32.68,-0.0915,0.5581,-0.0372,0.8238
-0.449,-0.331,-0.251,-91,-122.1,-143,1023,2018,4,25,16,36,32.699,-0.0898,0.5463,-0.0791,0.8289
-0.506,0.06,0.002,-99.9,-39.6,-159.6,1023,2018,4,25,16,36,32.721,-0.1038,0.5313,-0.1056,0.8341
-0.523,0.356,0.135,-118.3,-35.5,-156,1023,2018,4,25,16,36,32.741,-0.1219,0.5127,-0.1268,0.8403
-0.424,0.43,0.067,-137,-84.1,-144.6,1023,2018,4,25,16,36,32.762,-0.1358,0.4914,-0.1517,0.8467
-0.294,0.348,-0.012,-146.8,-119.9,-130.9,1023,2018,4,25,16,36,32.798,-0.1431,0.4688,-0.1824,0.8522
-0.258,0.354,-0.057,-152.4,-126.8,-115.9,1023,2018,4,25,16,36,32.817,-0.1463,0.4453,-0.2148,0.8568
-0.219,0.402,-0.119,-154.6,-119,-97.1,1023,2018,4,25,16,36,32.821,-0.1467,0.4211,-0.2453,0.8607
-0.204,0.417,-0.188,-154.9,-98.9,-75.4,1023,2018,4,25,16,36,32.837,-0.1448,0.3966,-0.2719,0.8647
-0.192,0.447,-0.245,-153,-78,-53.5,1023,2018,4,25,16,36,32.876,-0.141,0.3723,-0.2933,0.8691
-0.167,0.492,-0.284,-150.7,-66.1,-29.7,0,2018,4,25,16,36,32.896,-0.1348,0.3487,-0.3103,0.8739
-0.16,0.522,-0.322,-149.5,-67.1,-4.6,0,2018,4,25,16,36,32.901,-0.1252,0.3264,-0.3247,0.8787
-0.206,0.542,-0.357,-149.4,-81.2,19.4,0,2018,4,25,16,36,32.921,-0.1112,0.3054,-0.3387,0.8829
-0.24,0.5,-0.38,-151.3,-104.1,38.7,0,2018,4,25,16,36,32.94,-0.0927,0.2857,-0.3542,0.8855
-0.266,0.387,-0.364,-155.7,-119.6,50.6,0,2018,4,25,16,36,32.979,-0.0704,0.2664,-0.3718,0.8864
-0.239,0.385,-0.346,-158.4,-129.1,56.9,0,2018,4,25,16,36,33,-0.0457,0.2469,-0.3901,0.8858
-0.257,0.388,-0.403,-161.9,-145.4,61.6,0,2018,4,25,16,36,33.004,-0.0196,0.227,-0.4098,0.8832
-0.296,0.385,-0.47,-161.8,-165.8,67.9,0,2018,4,25,16,36,33.023,0.0077,0.2072,-0.4314,0.8779
-0.335,0.322,-0.491,-160.5,-181.6,74.8,0,2018,4,25,16,36,33.039,0.0371,0.1876,-0.4551,0.8696
-0.283,0.21,-0.459,-158.9,-181.4,79.5,0,2018,4,25,16,36,33.059,0.0675,0.1681,-0.4788,0.8589
-0.204,0.19,-0.432,-154,-176.6,81.7,0,2018,4,25,16,36,33.08,0.0979,0.1492,-0.5009,0.8468
-0.078,0.187,-0.409,-147.2,-168.2,83,0,2018,4,25,16,36,33.119,0.1276,0.1311,-0.5212,0.8335
0.007,0.205,-0.377,-136.9,-161.2,84.5,0,2018,4,25,16,36,33.138,0.1564,0.1143,-0.5396,0.8192
0.063,0.176,-0.369,-125.8,-150.5,89.1,0,2018,4,25,16,36,33.143,0.1841,0.0994,-0.5562,0.8042
0.095,0.151,-0.313,-115.6,-142.3,95.7,0,2018,4,25,16,36,33.162,0.2111,0.0868,-0.5708,0.7886
0.121,0.128,-0.304,-108.1,-147.7,103.6,0,2018,4,25,16,36,33.182,0.238,0.076,-0.5846,0.7718
0.096,0.114,-0.312,-102.4,-169.3,111.1,0,2018,4,25,16,36,33.218,0.2651,0.0663,-0.5997,0.752
0.075,0.011,-0.288,-99.9,-183.8,114.6,0,2018,4,25,16,36,33.239,0.2924,0.0566,-0.6166,0.7286
0.08,-0.074,-0.264,-97.2,-174.5,114.2,1023,2018,4,25,16,36,33.243,0.3191,0.0472,-0.6329,0.7037
0.058,-0.111,-0.244,-91.9,-149.6,112.5,1023,2018,4,25,16,36,33.26,0.3446,0.039,-0.6462,0.6797
0.043,-0.137,-0.21,-85.8,-114.4,111,1023,2018,4,25,16,36,33.297,0.3686,0.0332,-0.6553,0.6583
0.06,-0.094,-0.208,-77.7,-85.5,109.3,1023,2018,4,25,16,36,33.317,0.391,0.0302,-0.6604,0.6403
0.082,-0.05,-0.186,-68.8,-74.7,107.9,1023,2018,4,25,16,36,33.321,0.4118,0.0291,-0.6634,0.6239
0.131,-0.055,-0.167,-59.4,-62.5,107.6,1023,2018,4,25,16,36,33.359,0.4311,0.0297,-0.6656,0.6084
0.137,-0.048,-0.157,-50,-41.3,110.3,1023,2018,4,25,16,36,33.379,0.4491,0.0326,-0.6662,0.5943
0.139,-0.048,-0.151,-41,-18.5,115.5,1023,2018,4,25,16,36,33.383,0.4661,0.0388,-0.6649,0.5821
0.127,-0.051,-0.109,-35.7,-1.5,120.7,1023,2018,4,25,16,36,33.401,0.4825,0.0479,-0.6618,0.5716
0.104,-0.053,-0.119,-32.7,12.5,127.2,1023,2018,4,25,16,36,33.436,0.4986,0.0593,-0.6572,0.562
0.041,-0.068,-0.142,-27.5,24.4,135.3,1023,2018,4,25,16,36,33.46,0.5147,0.0731,-0.6511,0.5528
-0.011,-0.116,-0.152,-19.6,37.8,141.6,1023,2018,4,25,16,36,33.464,0.5302,0.0893,-0.644,0.544
-0.036,-0.181,-0.07,-11.7,56.3,142.3,1023,2018,4,25,16,36,33.487,0.5445,0.1083,-0.6357,0.5362
-0.076,-0.234,0.04,-11.7,80.5,136.1,1023,2018,4,25,16,36,33.506,0.5567,0.1285,-0.6257,0.5309
-0.096,-0.213,0.036,-12.4,99.4,126.4,0,2018,4,25,16,36,33.528,0.5674,0.1495,-0.613,0.5289
-0.125,-0.171,0,-8.7,97.8,115.7,0,2018,4,25,16,36,33.547,0.5764,0.1707,-0.5996,0.5281
-0.116,-0.151,0,-1.9,77.7,103.4,0,2018,4,25,16,36,33.564,0.5838,0.19,-0.5879,0.5266
-0.115,-0.152,0.04,5,50,88.1,0,2018,4,25,16,36,33.583,0.5898,0.2058,-0.5793,0.5235
-0.1,-0.143,0.073,10.5,19.5,70.1,0,2018,4,25,16,36,33.604,0.5946,0.2174,-0.5742,0.5189
-0.037,-0.173,0.075,16,-7.1,51.9,0,2018,4,25,16,36,33.64,0.5983,0.2243,-0.5729,0.5132
0.02,-0.224,0.058,21.6,-19.4,36.4,0,2018,4,25,16,36,33.661,0.6009,0.2288,-0.5745,0.5063
0.036,-0.279,0.032,26.9,-11.3,27.2,0,2018,4,25,16,36,33.665,0.6018,0.2323,-0.5773,0.5004
0.054,-0.309,0.034,29.1,8.4,22.5,0,2018,4,25,16,36,33.687,0.6011,0.2371,-0.5794,0.4965
0.069,-0.309,0.043,27.2,26.4,20,0,2018,4,25,16,36,33.705,0.5993,0.2437,-0.5798,0.495
0.096,-0.275,0.029,22.5,31.1,17.9,0,2018,4,25,16,36,33.724,0.5971,0.2509,-0.579,0.495
0.125,-0.251,-0.004,17.8,28.4,15.7,0,2018,4,25,16,36,33.745,0.5952,0.2574,-0.5778,0.4954
0.141,-0.241,-0.02,13.8,23,13.5,0,2018,4,25,16,36,33.782,0.5937,0.2629,-0.5765,0.4958
0.139,-0.263,-0.031,9.7,18.4,11.2,0,2018,4,25,16,36,33.785,0.5927,0.2673,-0.5754,0.496
0.095,-0.29,-0.009,6.2,19.4,8.7,0,2018,4,25,16,36,33.802,0.5919,0.2709,-0.5741,0.4965
0.032,-0.311,0.006,2.4,23.7,3.7,0,2018,4,25,16,36,33.841,0.5909,0.2742,-0.5724,0.4978
-0.016,-0.303,-0.003,-1.8,25.5,-3.7,0,2018,4,25,16,36,33.861,0.5897,0.2768,-0.5702,0.5003
-0.035,-0.279,-0.033,-5.1,23.2,-13.8,0,2018,4,25,16,36,33.867,0.5881,0.2781,-0.5681,0.5038
-0.067,-0.273,-0.028,-8.6,19.1,-25.4,0,2018,4,25,16,36,33.887,0.586,0.2777,-0.5665,0.5083
-0.138,-0.245,-0.026,-12.2,13.7,-40.3,0,2018,4,25,16,36,33.909,0.5833,0.2752,-0.5656,0.5138
-0.141,-0.183,-0.046,-15.6,3.9,-56.7,0,2018,4,25,16,36,33.929,0.5798,0.27,-0.5657,0.5203
-0.126,-0.142,-0.069,-17.5,-7.1,-72.9,1023,2018,4,25,16,36,33.947,0.5756,0.2618,-0.5672,0.5275
-0.129,-0.08,-0.084,-18.8,-17.6,-88.3,1023,2018,4,25,16,36,33.985,0.57,0.2507,-0.5708,0.535
-0.129,-0.03,-0.106,-19.6,-26.6,-99.9,1023,2018,4,25,16,36,34.006,0.5634,0.2375,-0.5759,0.5425
-0.121,0.006,-0.127,-18.8,-30.2,-107.3,1023,2018,4,25,16,36,34.01,0.5563,0.2227,-0.5815,0.5501
-0.124,0.031,-0.142,-17.5,-29.5,-110.8,1023,2018,4,25,16,36,34.026,0.5487,0.2068,-0.5868,0.5583
-0.115,0.07,-0.148,-16.4,-25.7,-110.4,1023,2018,4,25,16,36,34.065,0.5405,0.1911,-0.5917,0.5665
-0.084,0.12,-0.154,-15.7,-21.5,-107,1023,2018,4,25,16,36,34.084,0.5321,0.176,-0.5961,0.5748
-0.07,0.166,-0.161,-14.3,-18.8,-100,1023,2018,4,25,16,36,34.088,0.5237,0.1618,-0.5998,0.5828
-0.089,0.206,-0.166,-12.7,-18.5,-90.1,1023,2018,4,25,16,36,34.109,0.5159,0.1488,-0.603,0.5898
-0.087,0.239,-0.169,-11.3,-20.3,-77.8,1023,2018,4,25,16,36,34.128,0.509,0.137,-0.606,0.5956
-0.044,0.262,-0.176,-9.1,-22.6,-64,1023,2018,4,25,16,36,34.148,0.5032,0.1265,-0.609,0.5998
-0.021,0.272,-0.171,-5.6,-22.2,-48.8,1023,2018,4,25,16,36,34.171,0.4986,0.1177,-0.612,0.6024
-0.036,0.28,-0.163,-1.5,-19.6,-33.1,1023,2018,4,25,16,36,34.189,0.4951,0.1112,-0.6147,0.6037
-0.034,0.289,-0.156,2.9,-16.3,-16.5,1023,2018,4,25,16,36,34.211,0.4927,0.1071,-0.6171,0.6039
-0.028,0.281,-0.146,8.1,-12.3,0.9,1023,2018,4,25,16,36,34.232,0.4916,0.1057,-0.6193,0.6029
-0.013,0.269,-0.118,13.6,-7.1,17.8,1023,2018,4,25,16,36,34.251,0.4917,0.1071,-0.621,0.6008
0.009,0.255,-0.104,18.6,-1.6,32.4,1023,2018,4,25,16,36,34.271,0.4927,0.1112,-0.6224,0.5978
0.029,0.224,-0.097,24.3,5.1,44.5,1023,2018,4,25,16,36,34.294,0.4943,0.1179,-0.6233,0.5942
0.014,0.191,-0.09,29.8,14.3,55.9,1023,2018,4,25,16,36,34.312,0.4964,0.127,-0.6236,0.5903
0.003,0.157,-0.066,32.5,25.7,67,0,2018,4,25,16,36,34.33,0.4988,0.1387,-0.6228,0.5864
-0.017,0.143,-0.039,34,34.6,78.1,0,2018,4,25,16,36,34.368,0.5022,0.1538,-0.6207,0.5819
-0.043,0.107,-0.012,33.3,38,87.9,0,2018,4,25,16,36,34.372,0.5065,0.1704,-0.6175,0.5769
-0.065,0.07,0.01,31.9,35.9,95.7,0,2018,4,25,16,36,34.39,0.5116,0.1877,-0.6136,0.5713
-0.102,0.019,0.034,29.3,31.1,99.9,0,2018,4,25,16,36,34.428,0.5173,0.2048,-0.6094,0.5647
-0.111,-0.032,0.056,26.3,27.2,98.2,0,2018,4,25,16,36,34.448,0.5233,0.2209,-0.6052,0.5576
-0.11,-0.065,0.051,23.8,24.8,91.7,0,2018,4,25,16,36,34.452,0.529,0.2357,-0.6009,0.5507
-0.09,-0.1,0.06,22.4,23.3,81.6,0,2018,4,25,16,36,34.489,0.5338,0.2489,-0.597,0.5445
-0.076,-0.132,0.074,21.1,23.3,69,0,2018,4,25,16,36,34.511,0.5375,0.2603,-0.5934,0.5394
-0.059,-0.154,0.075,19.5,23.7,55.5,0,2018,4,25,16,36,34.515,0.5399,0.27,-0.5902,0.5357
-0.045,-0.165,0.081,17.8,22.5,42.1,0,2018,4,25,16,36,34.534,0.5411,0.278,-0.5875,0.5335
-0.033,-0.171,0.087,15.5,19.4,29.3,0,2018,4,25,16,36,34.551,0.5415,0.2844,-0.5854,0.532
-0.015,-0.176,0.09,12.7,14.5,18.2,0,2018,4,25,16,36,34.572,0.5414,0.2897,-0.584,0.5308
-0.001,-0.174,0.088,9.4,9.1,8.8,1023,2018,4,25,16,36,34.593,0.5409,0.2932,-0.5833,0.5302
0.002,-0.169,0.099,6.1,3.6,1,1023,2018,4,25,16,36,34.61,0.5402,0.295,-0.5832,0.53
0.019,-0.165,0.092,2.7,0,-4.5,1023,2018,4,25,16,36,34.632,0.5395,0.2953,-0.5836,0.5301
0.025,-0.16,0.087,0,-2,-8.6,1023,2018,4,25,16,36,34.672,0.5388,0.2946,-0.5841,0.5306
0.029,-0.151,0.079,-2.9,-3.1,-12.2,1023,2018,4,25,16,36,34.691,0.5381,0.2931,-0.5848,0.5314
0.022,-0.138,0.072,-5.8,-4,-15.7,1023,2018,4,25,16,36,34.695,0.5374,0.2909,-0.5854,0.5326
0.024,-0.116,0.058,-8.3,-5.5,-19.5,1023,2018,4,25,16,36,34.715,0.5365,0.287,-0.5861,0.5349
0.011,-0.093,0.042,-10,-7.7,-23.6,1023,2018,4,25,16,36,34.735,0.5355,0.2824,-0.587,0.5374
0,-0.079,0.031,-11.3,-9.4,-27.1,1023,2018,4,25,16,36,34.771,0.5344,0.2773,-0.5881,0.5399
-0.003,-0.068,0.025,-12.1,-9.3,-30.4,1023,2018,4,25,16,36,34.79,0.5331,0.2718,-0.5894,0.5426
-0.004,-0.049,0.017,-12.8,-8.8,-33.5,1023,2018,4,25,16,36,34.793,0.5316,0.2661,-0.5906,0.5455
0,-0.031,0.002,-12.7,-8,-36.3,1023,2018,4,25,16,36,34.831,0.5299,0.2602,-0.5919,0.5487
-0.007,-0.013,-0.004,-12.3,-6.2,-38.4,0,2018,4,25,16,36,34.852,0.5278,0.2543,-0.5932,0.552
-0.002,0.008,-0.022,-11.8,-4.3,-39.7,0,2018,4,25,16,36,34.856,0.5254,0.2487,-0.5944,0.5555
0.005,0.028,-0.032,-11,-2.9,-39.6,0,2018,4,25,16,36,34.874,0.5228,0.2433,-0.5956,0.5591
0.014,0.044,-0.039,-9.9,-1.5,-38.1,0,2018,4,25,16,36,34.894,0.5202,0.2383,-0.5966,0.5626
0.021,0.056,-0.049,-8.7,-0.1,-36,0,2018,4,25,16,36,34.914,0.5175,0.2339,-0.5975,0.5659
0.014,0.069,-0.045,-7.8,0.5,-32.9,0,2018,4,25,16,36,34.934,0.5151,0.23,-0.5983,0.5689
0.013,0.082,-0.054,-6.9,0,-29,0,2018,4,25,16,36,34.975,0.5129,0.2266,-0.5989,0.5716
0,0.09,-0.057,-5.7,-0.4,-24.5,0,2018,4,25,16,36,34.994,0.5111,0.2238,-0.5996,0.5736
-0.015,0.085,-0.05,-4.6,-0.2,-19.1,0,2018,4,25,16,36,34.998,0.5096,0.2218,-0.6002,0.5751
-0.032,0.09,-0.053,-3.6,0.1,-14.6,0,2018,4,25,16,36,35.036,0.5086,0.2204,-0.6005,0.5761
-0.02,0.091,-0.052,-2.3,-0.4,-10.4,0,2018,4,25,16,36,35.056,0.5079,0.2196,-0.6009,0.5767
-0.012,0.089,-0.056,-0.2,0.4,-7.3,0,2018,4,25,16,36,35.06,0.5074,0.2194,-0.6012,0.5768
-0.013,0.084,-0.046,2.1,2.8,-4.9,0,2018,4,25,16,36,35.076,0.5069,0.2198,-0.6015,0.5769
-0.02,0.078,-0.037,4.3,5.9,-3.1,0,2018,4,25,16,36,35.096,0.5062,0.2208,-0.6015,0.577
-0.019,0.082,-0.037,6,7.9,-1.7,0,2018,4,25,16,36,35.117,0.5054,0.2224,-0.6014,0.5773
-0.016,0.082,-0.029,7.1,8.7,-0.6,0,2018,4,25,16,36,35.137,0.5045,0.2244,-0.6011,0.5775
-0.022,0.079,-0.019,7.8,8.6,0.4,0,2018,4,25,16,36,35.156,0.5037,0.2266,-0.6008,0.5777
-0.018,0.074,-0.01,8.1,7.5,1.6,0,2018,4,25,16,36,35.175,0.503,0.2288,-0.6006,0.5777
-0.001,0.065,0.006,8.8,7.6,2.9,0,2018,4,25,16,36,35.214,0.5024,0.2311,-0.6002,0.5777
0,0.056,0.013,9.6,9.6,4.8,0,2018,4,25,16,36,35.235,0.5018,0.2336,-0.5998,0.5777
0,0.045,0.024,10.5,11.1,7.5,1023,2018,4,25,16,36,35.239,0.5013,0.2364,-0.599,0.5778
0.01,0.031,0.035,10.8,12.8,10.9,1023,2018,4,25,16,36,35.276,0.5009,0.2396,-0.598,0.5778
0.013,0.015,0.051,10.8,15.6,14.5,1023,2018,4,25,16,36,35.297,0.5008,0.2433,-0.5966,0.5778
0.035,0.009,0.076,10.1,16.3,17.6,1023,2018,4,25,16,36,35.301,0.5009,0.2473,-0.5947,0.578
0.036,-0.012,0.081,8.5,13.1,20.4,1023,2018,4,25,16,36,35.315,0.5015,0.2512,-0.5927,0.5779
0.021,-0.038,0.088,6.8,8.5,23,1023,2018,4,25,16,36,35.356,0.5026,0.2546,-0.5908,0.5774
0.013,-0.057,0.086,4.7,-1.2,23.6,1023,2018,4,25,16,36,35.375,0.5043,0.2574,-0.5895,0.576
0.03,-0.08,0.084,2.6,-11.6,22.6,1023,2018,4,25,16,36,35.379,0.5065,0.2588,-0.5891,0.5738
0.067,-0.125,0.078,1.3,-17,20.4,1023,2018,4,25,16,36,35.397,0.5091,0.2594,-0.5896,0.5707
0.08,-0.172,0.066,0.9,-13.8,17.4,1023,2018,4,25,16,36,35.417,0.5116,0.26,-0.5905,0.5673
0.068,-0.211,0.034,1.4,-3.2,15.1,1023,2018,4,25,16,36,35.438,0.5135,0.261,-0.5907,0.5648
0.065,-0.23,0.015,2.4,10.5,12.5,1023,2018,4,25,16,36,35.477,0.5145,0.263,-0.5899,0.5639
0.073,-0.233,-0.006,3.9,21.7,8.8,1023,2018,4,25,16,36,35.497,0.5144,0.2659,-0.588,0.5645
0.101,-0.258,-0.018,6.8,30.2,3.5,1023,2018,4,25,16,36,35.501,0.5132,0.2694,-0.5856,0.5664
0.105,-0.267,-0.027,11.1,38.1,-1.7,1023,2018,4,25,16,36,35.521,0.5108,0.2735,-0.583,0.5694
0.107,-0.289,-0.055,15.5,45.1,-8.1,0,2018,4,25,16,36,35.541,0.5069,0.278,-0.5803,0.5735
0.116,-0.291,-0.086,19.9,54.7,-15.3,0,2018,4,25,16,36,35.578,0.5014,0.283,-0.5774,0.5787
0.118,-0.281,-0.114,24.4,64.2,-22.4,0,2018,4,25,16,36,35.599,0.4943,0.2886,-0.5742,0.5852
0.101,-0.261,-0.129,28.6,71.4,-28.1,0,2018,4,25,16,36,35.603,0.4855,0.2946,-0.5707,0.5929
0.094,-0.249,-0.148,31.7,76.6,-31.7,0,2018,4,25,16,36,35.619,0.4755,0.301,-0.5671,0.6012
0.1,-0.243,-0.145,34.2,82.2,-33.6,0,2018,4,25,16,36,35.655,0.4645,0.3079,-0.5632,0.61
0.105,-0.239,-0.18,36,87,-34.9,0,2018,4,25,16,36,35.677,0.4527,0.3151,-0.5587,0.6192
0.096,-0.221,-0.192,37.4,89.9,-37,0,2018,4,25,16,36,35.681,0.4403,0.3225,-0.5539,0.6286
0.083,-0.203,-0.225,37.7,88.6,-38.4,0,2018,4,25,16,36,35.701,0.4274,0.3298,-0.5491,0.6379
0.067,-0.142,-0.283,39.1,86.9,-38.4,0,2018,4,25,16,36,35.72,0.4142,0.3369,-0.5443,0.6469
0.051,-0.099,-0.36,39.1,81.2,-37.4,0,2018,4,25,16,36,35.742,0.4013,0.3436,-0.5399,0.6552
0.016,-0.212,-0.343,40,91.6,-39.2,0,2018,4,25,16,36,35.761,0.3879,0.3507,-0.5351,0.6634
-0.047,-0.333,-0.202,39.6,101.4,-48.4,0,2018,4,25,16,36,35.801,0.373,0.3578,-0.5289,0.673
-0.072,-0.135,-0.159,36.6,84.7,-53.7,0,2018,4,25,16,36,35.806,0.3576,0.3635,-0.5234,0.6826
-0.03,-0.154,-0.106,29.5,64.1,-61.3,0,2018,4,25,16,36,35.819,0.3429,0.3668,-0.5202,0.6906
-0.017,-0.144,-0.151,27.5,48.9,-69.3,0,2018,4,25,16,36,35.858,0.3288,0.3676,-0.5193,0.6978
-0.005,-0.111,-0.189,27.3,35.6,-76.2,1023,2018,4,25,16,36,35.86,0.3147,0.3666,-0.5204,0.7039
-0.032,-0.107,-0.216,28.3,35.6,-80.3,1023,2018,4,25,16,36,35.896,0.3003,0.3647,-0.5227,0.7095
-0.052,-0.087,-0.216,29.2,44.6,-80.1,1023,2018,4,25,16,36,35.918,0.2851,0.363,-0.5243,0.7154
-0.084,-0.042,-0.152,28.2,48.9,-79.8,1023,2018,4,25,16,36,35.922,0.2694,0.3616,-0.5248,0.7218
-0.087,-0.003,-0.089,21.1,43.4,-79,1023,2018,4,25,16,36,35.943,0.2541,0.3601,-0.5254,0.7277
-0.029,0.031,-0.091,15,33.4,-77,1023,2018,4,25,16,36,35.963,0.2402,0.3575,-0.5266,0.7328
0.001,0.051,-0.097,13.4,28.4,-73.8,1023,2018,4,25,16,36,35.998,0.2275,0.3543,-0.5284,0.7371
-0.002,0.107,-0.14,17.7,33.7,-67.7,1023,2018,4,25,16,36,36.018,0.2151,0.3511,-0.5296,0.7415
-0.048,0.078,-0.114,22.7,51,-57.2,1023,2018,4,25,16,36,36.024,0.2025,0.3495,-0.5287,0.7464
-0.104,0.103,-0.093,27.9,67.5,-42.7,1023,2018,4,25,16,36,36.061,0.1899,0.3503,-0.5247,0.7521
-0.11,0.132,-0.088,33.3,73.6,-28.2,1023,2018,4,25,16,36,36.083,0.1782,0.3534,-0.5185,0.7579
-0.03,0.157,-0.09,39.8,72.3,-18.9,1023,2018,4,25,16,36,36.088,0.1673,0.3585,-0.5113,0.7628
0.06,0.165,-0.073,46.6,75.4,-15.9,1023,2018,4,25,16,36,36.102,0.1568,0.3652,-0.5038,0.7669
0.061,0.141,-0.062,52.6,90.8,-15.3,0,2018,4,25,16,36,36.141,0.1455,0.3734,-0.4949,0.7709
-0.002,0.145,-0.076,56.7,113.9,-11,0,2018,4,25,16,36,36.162,0.1327,0.3829,-0.483,0.7761
-0.109,0.136,-0.109,58.9,127.6,-0.7,0,2018,4,25,16,36,36.166,0.1187,0.393,-0.468,0.7824
-0.149,0.154,-0.109,61.3,123.1,11.8,0,2018,4,25,16,36,36.186,0.1059,0.4042,-0.4514,0.7883
-0.096,0.157,-0.08,63.1,104.6,20.5,0,2018,4,25,16,36,36.206,0.0951,0.4162,-0.4356,0.7923
-0.009,0.124,-0.041,65.2,98,25,0,2018,4,25,16,36,36.244,0.0861,0.4289,-0.4211,0.7945
0.029,0.078,-0.013,63,119.5,28.3,0,2018,4,25,16,36,36.263,0.0772,0.4419,-0.4048,0.7967
0.049,0.129,0.042,56,153,34.3,0,2018,4,25,16,36,36.268,0.0671,0.4542,-0.3835,0.8013
0.022,0.181,0.036,47.6,164.3,42.9,0,2018,4,25,16,36,36.286,0.0563,0.4656,-0.3582,0.8072
0.063,0.251,-0.062,48,155.1,51.8,0,2018,4,25,16,36,36.306,0.0472,0.4765,-0.3319,0.8127
0.114,0.21,-0.041,47.2,129.9,58.9,0,2018,4,25,16,36,36.325,0.0409,0.4874,-0.3072,0.8162
0.093,0.106,0.026,46,131.2,64,0,2018,4,25,16,36,36.343,0.0372,0.4979,-0.2832,0.8188
0.019,0.054,0.034,45.4,163.6,67,0,2018,4,25,16,36,36.383,0.0319,0.5081,-0.2561,0.8216
-0.006,0.043,-0.009,43.7,194.6,67.6,0,2018,4,25,16,36,36.403,0.0239,0.5182,-0.2239,0.825
-0.035,0.006,-0.049,46.8,211.3,60.3,0,2018,4,25,16,36,36.407,0.0128,0.5281,-0.1884,0.8279
-0.125,0.051,-0.018,47.9,184.3,43.4,0,2018,4,25,16,36,36.426,0.0006,0.5373,-0.1543,0.8291
-0.2,0.046,-0.055,52.2,131.1,18.7,0,2018,4,25,16,36,36.448,-0.0105,0.5461,-0.1282,0.8277
-0.28,-0.01,-0.094,55.8,108.3,-3.5,1023,2018,4,25,16,36,36.47,-0.0215,0.5545,-0.1106,0.8244
-0.259,0.145,-0.02,56.1,105.2,-16.9,1023,2018,4,25,16,36,36.49,-0.0347,0.5621,-0.0961,0.8207
-0.227,0.242,-0.011,55.3,53.6,-26,1023,2018,4,25,16,36,36.525,-0.0467,0.569,-0.086,0.8164
-0.321,0.19,-0.13,50.1,-19.6,-31.6,1023,2018,4,25,16,36,36.545,-0.0529,0.5759,-0.0866,0.8111
-0.301,0.119,-0.012,45.4,-48.3,-38.1,1023,2018,4,25,16,36,36.549,-0.0545,0.5824,-0.0953,0.8053
-0.17,-0.014,-0.021,44.4,-38.4,-51.5,1023,2018,4,25,16,36,36.569,-0.0567,0.5889,-0.1054,0.7992
-0.03,0,-0.019,41.1,-15.6,-56.4,1023,2018,4,25,16,36,36.59,-0.0624,0.5945,-0.1144,0.7934
-0.054,0.227,0.198,28.7,-9.5,-51.3,1023,2018,4,25,16,36,36.606,-0.0693,0.5985,-0.1212,0.7888
-0.102,0.258,0.227,6.9,2.1,-40,1023,2018,4,25,16,36,36.626,-0.0754,0.6,-0.1263,0.7863
0.034,0.376,0.29,-7.3,37.6,-23.1,1023,2018,4,25,16,36,36.663,-0.082,0.5989,-0.1268,0.7863
-0.158,0.365,0.631,-25.7,76.1,-0.1,1023,2018,4,25,16,36,36.684,-0.0896,0.5956,-0.1194,0.7892
-0.289,0.428,0.283,-43.5,9.4,4.6,1023,2018,4,25,16,36,36.688,-0.0935,0.5901,-0.1135,0.7937
-0.086,0.201,-0.04,-40.8,10.5,12,1023,2018,4,25,16,36,36.709,-0.0914,0.5841,-0.1134,0.7984
-0.09,0.121,-0.063,-35.7,16.7,7.8,0,2018,4,25,16,36,36.729,-0.091,0.5789,-0.1103,0.8027
-0.075,0.193,-0.133,-30.8,34.4,11.1,0,2018,4,25,16,36,36.767,-0.0915,0.5739,-0.1068,0.8066
0.11,0.332,-0.236,-17,30.6,23.1,0,2018,4,25,16,36,36.772,-0.0922,0.5704,-0.1005,0.8098
0.196,0.164,-0.29,-12.5,60.9,22.3,0,2018,4,25,16,36,36.789,-0.0928,0.5681,-0.0924,0.8124
0.21,0.292,-0.317,-8.4,88.1,19.9,0,2018,4,25,16,36,36.823,-0.0974,0.5656,-0.0794,0.815
0.117,0.329,-0.352,-1.6,85,17.2,0,2018,4,25,16,36,36.847,-0.1034,0.5635,-0.065,0.8169
0.032,0.224,-0.332,6.2,69.6,10.9,0,2018,4,25,16,36,36.851,-0.1089,0.5626,-0.0526,0.8177
0.006,0.152,-0.307,12.9,60.6,-1.7,0,2018,4,25,16,36,36.869,-0.1148,0.5628,-0.0426,0.8174
0.005,0.06,-0.302,17.1,54.5,-17.5,0,2018,4,25,16,36,36.905,-0.122,0.5638,-0.035,0.816
-0.03,0.043,-0.369,24.7,28.7,-34.2,0,2018,4,25,16,36,36.925,-0.13,0.5656,-0.0312,0.8137
-0.001,0.033,-0.268,38.8,11.9,-49.4,0,2018,4,25,16,36,36.929,-0.1383,0.5694,-0.0316,0.8096
0.035,0.104,-0.037,39.4,-16.8,-61.3,0,2018,4,25,16,36,36.969,-0.1459,0.5752,-0.0364,0.804
-0.008,0.218,-0.093,28.5,-60,-68.4,0,2018,4,25,16,36,36.99,-0.1511,0.5806,-0.0474,0.7986
-0.043,0.196,-0.245,16.3,-79.3,-69.5,0,2018,4,25,16,36,36.994,-0.1534,0.5849,-0.0641,0.7938
-0.074,0.082,-0.256,3.5,-68.5,-72.3,0,2018,4,25,16,36,37.011,-0.1556,0.5874,-0.0814,0.7899
-0.205,-0.013,-0.059,-13.1,-25.2,-77.4,0,2018,4,25,16,36,37.048,-0.1609,0.5873,-0.0956,0.7874
-0.249,0.137,-0.035,-34.7,-3.3,-81.3,0,2018,4,25,16,36,37.052,-0.1701,0.5831,-0.1057,0.7872
-0.219,0.143,-0.085,-53.6,8.3,-80.4,1023,2018,4,25,16,36,37.069,-0.1806,0.5753,-0.115,0.7893
-0.161,0.098,-0.184,-70.3,17.3,-79.9,1023,2018,4,25,16,36,37.107,-0.1917,0.5645,-0.123,0.7933
-0.032,0.033,-0.216,-79.1,12,-79.8,1023,2018,4,25,16,36,37.129,-0.2026,0.5517,-0.1315,0.7982
0.077,0.042,-0.213,-84.3,5.2,-76.6,1023,2018,4,25,16,36,37.133,-0.2125,0.5381,-0.1407,0.8033
0.146,-0.01,-0.24,-84.6,-18,-74.5,1023,2018,4,25,16,36,37.152,-0.2204,0.5244,-0.1516,0.8083
0.257,-0.07,-0.31,-81.7,-37.8,-72.5,1023,2018,4,25,16,36,37.172,-0.2257,0.5118,-0.1659,0.8121
0.339,-0.07,-0.241,-76.8,-43.3,-70.9,1023,2018,4,25,16,36,37.192,-0.2299,0.5,-0.1811,0.815
0.311,-0.019,-0.182,-78.2,-64.4,-68.1,1023,2018,4,25,16,36,37.213,-0.2327,0.4889,-0.1978,0.817
0.352,-0.088,-0.227,-77,-80,-66,1023,2018,4,25,16,36,37.252,-0.2333,0.4782,-0.217,0.8183
0.314,-0.099,-0.232,-70.3,-94.1,-67.4,0,2018,4,25,16,36,37.271,-0.2326,0.4687,-0.2382,0.8182
0.286,-0.191,-0.206,-67.7,-87.6,-70.3,0,2018,4,25,16,36,37.276,-0.232,0.4596,-0.2595,0.8169
0.298,-0.315,0.012,-73.3,-69.3,-78.4,0,2018,4,25,16,36,37.294,-0.233,0.4493,-0.2797,0.8157
0.157,-0.242,0.12,-74.6,-53.1,-82,0,2018,4,25,16,36,37.315,-0.2364,0.4369,-0.2971,0.8153
0.158,-0.179,0.05,-71.4,-91.2,-83.4,0,2018,4,25,16,36,37.331,-0.2389,0.425,-0.3164,0.8136
0.181,-0.293,-0.021,-60.9,-123.2,-88.6,0,2018,4,25,16,36,37.351,-0.2392,0.4153,-0.3412,0.8085
0.239,-0.325,-0.028,-47.8,-110.2,-90.9,0,2018,4,25,16,36,37.39,-0.2398,0.4071,-0.3669,0.8012
0.212,-0.236,-0.004,-30.4,-71.5,-92,0,2018,4,25,16,36,37.409,-0.2437,0.3996,-0.3875,0.7941
0.182,-0.189,0.157,-23.8,-54.6,-91.4,0,2018,4,25,16,36,37.414,-0.2504,0.3922,-0.4033,0.7879
0.09,-0.194,0.21,-21.6,-70.5,-94.9,0,2018,4,25,16,36,37.434,-0.2573,0.385,-0.419,0.7809
0.061,-0.24,0.186,-18.2,-82.5,-97.8,0,2018,4,25,16,36,37.452,-0.2636,0.3788,-0.4371,0.7719
0.056,-0.232,0.168,-14.9,-62.9,-99.2,0,2018,4,25,16,36,37.491,-0.2707,0.3723,-0.4542,0.7626
0.056,-0.124,0.126,-10.5,-45.7,-99.3,0,2018,4,25,16,36,37.511,-0.2798,0.3647,-0.4681,0.7546
0.077,-0.064,0.139,-6.8,-45.9,-96.8,0,2018,4,25,16,36,37.515,-0.2897,0.3571,-0.4806,0.7466
0.067,-0.148,0.216,-9.5,-49.3,-99.5,0,2018,4,25,16,36,37.532,-0.2986,0.3502,-0.4934,0.738
0.061,-0.213,0.227,-16.2,-43,-104,0,2018,4,25,16,36,37.57,-0.3077,0.3421,-0.5063,0.7292
0.047,-0.142,0.146,-18.5,-18.7,-106.5,0,2018,4,25,16,36,37.591,-0.3179,0.3316,-0.5172,0.722
0.104,-0.106,0.181,-18,-9.1,-109.5,0,2018,4,25,16,36,37.596,-0.3294,0.3198,-0.5256,0.7161
0.12,-0.074,0.244,-15.8,-21.4,-113.4,0,2018,4,25,16,36,37.615,-0.3409,0.3083,-0.5347,0.709
0.116,-0.21,0.218,-13.3,3,-111.6,0,2018,4,25,16,36,37.635,-0.3527,0.2967,-0.5432,0.7016
0.065,-0.134,0.159,-9.5,53.3,-110.3,1023,2018,4,25,16,36,37.674,-0.3669,0.2825,-0.5455,0.6984
0.056,-0.152,0.122,-14.1,70.5,-111.3,1023,2018,4,25,16,36,37.695,-0.3829,0.2658,-0.5433,0.6981
0.036,-0.145,0.149,-21.9,68.4,-115.2,1023,2018,4,25,16,36,37.699,-0.3985,0.2476,-0.5405,0.6982
0,-0.134,0.096,-29.6,55.9,-119.2,1023,2018,4,25,16,36,37.718,-0.4132,0.2287,-0.5393,0.6971
-0.077,-0.149,0.063,-37.2,51.3,-122,1023,2018,4,25,16,36,37.738,-0.4264,0.2097,-0.5397,0.6948
-0.172,-0.135,0.024,-41.3,39,-129.9,1023,2018,4,25,16,36,37.757,-0.4392,0.19,-0.5411,0.6913
-0.179,-0.112,-0.03,-46,19.7,-136.9,1023,2018,4,25,16,36,37.778,-0.452,0.17,-0.5455,0.6848
-0.158,-0.151,-0.052,-49.6,30.2,-141.3,1023,2018,4,25,16,36,37.798,-0.4646,0.1491,-0.5506,0.6772
-0.147,-0.013,-0.083,-50.7,45.1,-144.8,1023,2018,4,25,16,36,37.815,-0.4775,0.1261,-0.5536,0.6704
-0.186,0.031,-0.096,-58.3,40.3,-149.6,1023,2018,4,25,16,36,37.836,-0.4903,0.1018,-0.5559,0.6634
-0.19,0.064,-0.172,-65.9,18.1,-153.4,1023,2018,4,25,16,36,37.874,-0.5022,0.0771,-0.5602,0.6541
0.24,0.045,-0.238,-54.3,-5.8,-144.3,0,2018,4,25,16,36,37.894,-0.5131,0.055,-0.5669,0.642
0.607,-0.24,0.002,-30.3,-8.5,-132.1,0,2018,4,25,16,36,37.898,-0.5243,0.0378,-0.5727,0.6288
0.345,-0.265,0.207,-16.9,2.3,-128.9,0,2018,4,25,16,36,37.917,-0.5365,0.0223,-0.5756,0.6166
-0.137,-0.198,0.208,-29.2,-8.2,-133.8,0,2018,4,25,16,36,37.937,-0.5484,0.0069,-0.5779,0.6042
-0.316,0.074,-0.166,-42.5,-40.9,-135.1,0,2018,4,25,16,36,37.959,-0.5588,-0.0083,-0.5838,0.5888
-0.305,-0.132,-0.5,-27,-29,-130.6,0,2018,4,25,16,36,37.978,-0.5687,-0.0222,-0.5917,0.5708
-0.393,0.002,-0.385,-23.5,5.4,-131.7,0,2018,4,25,16,36,37.998,-0.5793,-0.0376,-0.5939,0.5568
-0.323,0.015,-0.194,-19,-1.2,-118.4,0,2018,4,25,16,36,38.02,-0.5891,-0.0529,-0.595,0.544
-0.14,0.077,-0.045,-13.7,-4.6,-106.5,0,2018,4,25,16,36,38.041,-0.5978,-0.0656,-0.5958,0.5321
0.092,0.087,-0.019,-8.3,-18.2,-98.8,0,2018,4,25,16,36,38.059,-0.6065,-0.0768,-0.5968,0.5195
0.118,0.026,-0.129,-1.1,-13.7,-92.7,0,2018,4,25,16,36,38.076,-0.6149,-0.0858,-0.598,0.5067
-0.074,0.074,-0.099,5.5,6.9,-90.8,0,2018,4,25,16,36,38.116,-0.623,-0.0949,-0.5969,0.4963
-0.136,0.06,-0.088,5.7,13.4,-85.7,0,2018,4,25,16,36,38.136,-0.6307,-0.105,-0.5944,0.4875
-0.035,0.11,-0.083,5.3,11.2,-83.8,0,2018,4,25,16,36,38.14,-0.638,-0.1151,-0.5914,0.4793
0.232,0.021,-0.142,11,2.3,-78.2,0,2018,4,25,16,36,38.178,-0.6454,-0.1234,-0.5885,0.4709
0.137,0.055,-0.122,20.3,6.9,-73.4,0,2018,4,25,16,36,38.198,-0.6531,-0.1305,-0.5848,0.4629
0.044,0.018,-0.041,26.1,14.6,-70.7,0,2018,4,25,16,36,38.202,-0.6608,-0.1375,-0.58,0.4559
-0.012,0.033,-0.009,27,23.7,-68.1,0,2018,4,25,16,36,38.219,-0.6685,-0.1449,-0.5738,0.4502
-0.082,0.061,0.01,26.4,34.4,-64.3,0,2018,4,25,16,36,38.257,-0.6758,-0.153,-0.5664,0.446
-0.089,0.096,-0.004,26.1,41.7,-56.8,0,2018,4,25,16,36,38.261,-0.6824,-0.1618,-0.5581,0.4432
-0.072,0.135,-0.02,25.6,44.7,-48.5,1023,2018,4,25,16,36,38.277,-0.6881,-0.1709,-0.5498,0.4414
-0.026,0.148,0.015,25.7,51.9,-41,1023,2018,4,25,16,36,38.315,-0.6926,-0.1791,-0.5416,0.4412
0.127,0.123,0.009,25.8,68,-37.2,1023,2018,4,25,16,36,38.336,-0.6964,-0.1886,-0.5324,0.4425
0.059,0.184,-0.066,31.1,80.8,-29.1,1023,2018,4,25,16,36,38.34,-0.699,-0.1987,-0.5219,0.4464
-0.035,0.239,-0.065,37.7,73.2,-14.7,1023,2018,4,25,16,36,38.359,-0.7011,-0.2076,-0.5107,0.4521
-0.046,0.205,0.001,41.7,52.5,3.1,1023,2018,4,25,16,36,38.4,-0.7028,-0.2126,-0.5006,0.4584
-0.116,0.099,0.09,38.8,35.9,22.5,1023,2018,4,25,16,36,38.421,-0.7036,-0.2134,-0.4926,0.4653
-0.165,-0.007,0.164,28.2,35.7,36,1023,2018,4,25,16,36,38.425,-0.7027,-0.2123,-0.4868,0.4732
-0.137,-0.044,0.122,16,46,41.2,1023,2018,4,25,16,36,38.461,-0.6998,-0.2121,-0.4822,0.4823
-0.075,-0.057,0.045,8.2,62.1,42.6,1023,2018,4,25,16,36,38.481,-0.6952,-0.214,-0.4776,0.4926
-0.051,0.043,-0.026,3.2,58.7,47.3,1023,2018,4,25,16,36,38.485,-0.6895,-0.2171,-0.4729,0.5036
-0.031,0.06,-0.04,0.3,45.3,52.6,1023,2018,4,25,16,36,38.504,-0.6833,-0.2194,-0.47,0.5137
-0.076,-0.044,0.015,-5.2,34.8,55.7,0,2018,4,25,16,36,38.523,-0.6767,-0.2199,-0.4687,0.5233
-0.1,-0.158,0.031,-14.2,32.3,56.1,0,2018,4,25,16,36,38.542,-0.6695,-0.2199,-0.4689,0.5323
-0.079,-0.228,-0.006,-22.2,39.4,52.2,0,2018,4,25,16,36,38.56,-0.6614,-0.2212,-0.47,0.5408
-0.093,-0.19,-0.076,-23.9,56,40.4,0,2018,4,25,16,36,38.581,-0.6532,-0.2252,-0.4699,0.5492
-0.159,-0.095,-0.124,-21.2,70.8,27.8,0,2018,4,25,16,36,38.601,-0.6455,-0.2319,-0.4676,0.5574
-0.046,0.02,-0.142,-16.4,65.4,22.8,0,2018,4,25,16,36,38.62,-0.6385,-0.2398,-0.4644,0.5648
0.127,0.016,-0.07,-8.6,55.9,17,0,2018,4,25,16,36,38.659,-0.6326,-0.2467,-0.4614,0.5709
0.281,0.006,0.117,-8,56.7,3.3,0,2018,4,25,16,36,38.68,-0.6285,-0.2534,-0.4572,0.5758
0.25,0.028,0.176,-19.7,56.2,-11.5,0,2018,4,25,16,36,38.684,-0.6256,-0.2616,-0.4525,0.579
0.061,0.129,0.102,-32.7,45.1,-26.5,0,2018,4,25,16,36,38.704,-0.6232,-0.2716,-0.449,0.5797
-0.011,0.175,-0.02,-36.3,30.3,-39,0,2018,4,25,16,36,38.726,-0.6221,-0.2818,-0.4475,0.5772
0.012,0.192,-0.104,-32.5,24.6,-48.7,0,2018,4,25,16,36,38.762,-0.6225,-0.2917,-0.4464,0.5727
0.054,0.227,-0.111,-25.1,20.4,-52.9,0,2018,4,25,16,36,38.766,-0.6241,-0.3011,-0.4446,0.5674
0.061,0.238,-0.107,-14.7,10.2,-51.8,0,2018,4,25,16,36,38.781,-0.627,-0.3088,-0.4424,0.5618
0.011,0.228,-0.108,-4.9,-4.6,-46.6,0,2018,4,25,16,36,38.802,-0.6309,-0.3138,-0.4405,0.5561
-0.026,0.197,-0.093,2.2,-19.8,-40.3,0,2018,4,25,16,36,38.82,-0.6357,-0.3158,-0.4394,0.5503
-0.022,0.161,-0.094,7.2,-30.2,-33.2,0,2018,4,25,16,36,38.857,-0.641,-0.3153,-0.4393,0.5445
0.015,0.116,-0.082,7.4,-33.1,-25.7,0,2018,4,25,16,36,38.88,-0.6462,-0.3132,-0.4399,0.5391
0.045,0.087,-0.1,7.7,-35.4,-18.4,0,2018,4,25,16,36,38.884,-0.6506,-0.3103,-0.4411,0.5344
0.045,0.052,-0.12,7.7,-33.3,-12.2,1023,2018,4,25,16,36,38.903,-0.6545,-0.3069,-0.4427,0.5304
0.052,0.033,-0.131,7.4,-26.6,-7.3,1023,2018,4,25,16,36,38.926,-0.6571,-0.3046,-0.4448,0.5267
0.044,-0.01,-0.138,7.8,-20.3,-4.2,1023,2018,4,25,16,36,38.944,-0.6589,-0.3024,-0.4467,0.5241
0.034,-0.038,-0.142,11,-10.8,-4.5,1023,2018,4,25,16,36,38.964,-0.6602,-0.3005,-0.4477,0.5226
0.029,-0.028,-0.127,16.7,-1.8,-7,1023,2018,4,25,16,36,39.002,-0.6616,-0.2994,-0.4472,0.522
0.005,-0.018,-0.073,21,1.2,-10.4,1023,2018,4,25,16,36,39.023,-0.6634,-0.2986,-0.4453,0.5217
0.002,0.004,-0.035,23.5,-3.3,-12.1,1023,2018,4,25,16,36,39.027,-0.666,-0.2976,-0.4425,0.5214
-0.005,-0.002,-0.013,25.7,-12.3,-12.6,1023,2018,4,25,16,36,39.043,-0.6694,-0.2955,-0.4398,0.5205
-0.02,-0.004,-0.011,27.7,-23.2,-12.5,1023,2018,4,25,16,36,39.081,-0.6735,-0.2919,-0.4378,0.519
-0.037,-0.012,0.001,29.2,-33.8,-13.2,1023,2018,4,25,16,36,39.102,-0.6783,-0.2868,-0.4363,0.5168
0.001,-0.012,0.014,29.4,-48.4,-13.3,1023,2018,4,25,16,36,39.106,-0.6838,-0.2802,-0.4358,0.5137
-0.026,-0.055,-0.002,29.9,-60.2,-12.9,1023,2018,4,25,16,36,39.126,-0.6898,-0.2715,-0.4366,0.5095
0.069,-0.085,0.032,28.5,-64.3,-12.7,0,2018,4,25,16,36,39.145,-0.6959,-0.2618,-0.4384,0.5048
-0.009,-0.116,0.044,27.5,-64.4,-11.1,0,2018,4,25,16,36,39.184,-0.7018,-0.2517,-0.4405,0.5
-0.093,-0.163,0.049,23.9,-51,-13.5,0,2018,4,25,16,36,39.205,-0.7073,-0.2432,-0.4418,0.4952
-0.032,-0.176,0.076,18.9,-40.4,-15.1,0,2018,4,25,16,36,39.209,-0.7121,-0.2369,-0.4425,0.4907
-0.042,-0.2,0.087,17.2,-20.2,-19,0,2018,4,25,16,36,39.228,-0.7162,-0.2328,-0.4421,0.487
-0.061,-0.144,0.083,13.8,-1.5,-23.5,0,2018,4,25,16,36,39.247,-0.7196,-0.2319,-0.4401,0.4842
-0.054,-0.062,0.047,12.4,7.3,-25.9,0,2018,4,25,16,36,39.288,-0.7226,-0.2328,-0.4371,0.4821
-0.078,-0.03,0.036,9.7,7.3,-27.2,0,2018,4,25,16,36,39.292,-0.7255,-0.2342,-0.4336,0.4802
-0.065,-0.008,0.011,8.1,-0.8,-28.9,0,2018,4,25,16,36,39.306,-0.7286,-0.2356,-0.4307,0.4775
-0.017,-0.028,-0.003,9.2,-4.6,-31.6,0,2018,4,25,16,36,39.326,-0.7319,-0.2364,-0.4286,0.4739
-0.003,-0.02,-0.033,15.8,-2.5,-35.7,0,2018,4,25,16,36,39.347,-0.7356,-0.2373,-0.4261,0.4699
-0.001,0.026,-0.072,22.8,-2,-39.6,0,2018,4,25,16,36,39.385,-0.74,-0.2385,-0.4225,0.4656
0,0.069,-0.066,29.4,-5.2,-42.6,0,2018,4,25,16,36,39.407,-0.7453,-0.2396,-0.418,0.4607
-0.02,0.05,-0.088,33.6,-12.1,-45.4,0,2018,4,25,16,36,39.411,-0.7515,-0.2399,-0.4128,0.4552
-0.027,0.077,-0.114,37.2,-5.2,-45.4,0,2018,4,25,16,36,39.427,-0.7579,-0.2395,-0.4072,0.4497
-0.039,0.134,-0.048,38.9,20.4,-41.2,0,2018,4,25,16,36,39.448,-0.7636,-0.241,-0.3999,0.4457
-0.098,-0.011,0.042,31.3,89.2,-36.7,0,2018,4,25,16,36,39.47,-0.7669,-0.2482,-0.3892,0.4457
0.003,0.471,0.098,21.9,98.4,-27.4,0,2018,4,25,16,36,39.49,-0.7667,-0.2621,-0.376,0.4494
0.015,0.375,0.029,14,57.9,-14.3,0,2018,4,25,16,36,39.509,-0.7658,-0.2724,-0.3667,0.4524
-0.003,0.351,0.017,13,9.8,-1.3,0,2018,4,25,16,36,39.527,-0.7656,-0.2763,-0.3618,0.4542
-0.032,0.171,0.022,13.1,-8.9,8.4,0,2018,4,25,16,36,39.566,-0.7662,-0.2744,-0.3607,0.4553
-0.038,0.077,-0.008,14.8,-11.8,12.5,0,2018,4,25,16,36,39.586,-0.7669,-0.2716,-0.3598,0.4566
-0.045,-0.019,-0.013,16,-9.8,13.4,1023,2018,4,25,16,36,39.591,-0.7675,-0.2681,-0.3591,0.4582
-0.033,0.001,0,16.4,3.2,14,1023,2018,4,25,16,36,39.607,-0.7676,-0.2654,-0.3577,0.4607
-0.024,-0.019,-0.062,21.1,2.5,11.8,1023,2018,4,25,16,36,39.645,-0.7675,-0.2635,-0.3556,0.4635
0.003,-0.01,-0.134,27.8,3.7,8.1,1023,2018,4,25,16,36,39.666,-0.7677,-0.2616,-0.3533,0.4661
0.044,-0.045,-0.141,33.9,6.7,4.6,1023,2018,4,25,16,36,39.67,-0.7684,-0.2597,-0.3499,0.4685
0.054,0.175,-0.086,40.6,-18.1,1.8,1023,2018,4,25,16,36,39.692,-0.7702,-0.2568,-0.3454,0.4705
-0.027,0.229,-0.003,44.6,-93.6,7.7,1023,2018,4,25,16,36,39.711,-0.7751,-0.2449,-0.3445,0.4694
0.018,0.373,-0.05,48.3,-176.4,16.9,1023,2018,4,25,16,36,39.75,-0.7825,-0.2219,-0.3495,0.4649
0.042,0.027,-0.168,49.9,-215.7,24.8,1023,2018,4,25,16,36,39.77,-0.7911,-0.1884,-0.36,0.457
-0.044,0.061,-0.047,48.4,-195.9,32.5,1023,2018,4,25,16,36,39.774,-0.7979,-0.1548,-0.3708,0.4491
-0.101,-0.035,0.02,42.2,-180.7,37.2,1023,2018,4,25,16,36,39.79,-0.8029,-0.1224,-0.3795,0.4429
-0.145,-0.081,0.143,31.8,-156.4,38.2,1023,2018,4,25,16,36,39.809,-0.8056,-0.0933,-0.3878,0.4378
-0.109,-0.215,0.231,15,-140.7,34.6,1023,2018,4,25,16,36,39.848,-0.8065,-0.068,-0.3965,0.433
-0.091,-0.307,0.198,3.9,-96,27.9,0,2018,4,25,16,36,39.868,-0.806,-0.0485,-0.4045,0.4293
-0.088,-0.277,0.124,-1.6,-49.8,19.1,0,2018,4,25,16,36,39.871,-0.8048,-0.0368,-0.4099,0.4276
-0.098,-0.201,0.061,-4.5,-21.9,11.6,0,2018,4,25,16,36,39.909,-0.8036,-0.0313,-0.4129,0.4274
-0.064,-0.199,0.017,-6.2,-0.8,4.9,0,2018,4,25,16,36,39.93,-0.8026,-0.0296,-0.4146,0.4276
-0.017,-0.105,-0.015,-5.7,16.2,-0.1,0,2018,4,25,16,36,39.934,-0.8019,-0.0309,-0.4148,0.4287
0.004,-0.08,-0.024,-5.6,29.8,-2.7,0,2018,4,25,16,36,39.953,-0.8012,-0.0339,-0.4143,0.4303
-0.005,-0.001,-0.014,-4.7,39.3,-4.3,0,2018,4,25,16,36,39.973,-0.8007,-0.0393,-0.4125,0.4325
-0.012,0.06,-0.004,-4.1,36.9,-4.2,0,2018,4,25,16,36,39.993,-0.8005,-0.0456,-0.4101,0.4345
-0.019,0.099,0.001,-3.5,28.3,-2.8,0,2018,4,25,16,36,40.009,-0.8005,-0.0514,-0.4077,0.4361
-0.018,0.105,0.008,-3.1,16.2,-0.8,0,2018,4,25,16,36,40.048,-0.8005,-0.0557,-0.406,0.4371
-0.015,0.068,-0.001,-3,4.7,0.7,0,2018,4,25,16,36,40.067,-0.8005,-0.058,-0.4052,0.4376
-0.01,0.016,-0.005,-2.3,0.7,1.6,0,2018,4,25,16,36,40.071,-0.8003,-0.0586,-0.4053,0.4378
-0.011,-0.001,-0.014,-1.4,3.6,1.8,0,2018,4,25,16,36,40.107,-0.8,-0.059,-0.4054,0.4382
-0.018,-0.002,-0.015,-0.5,6.6,1.8,0,2018,4,25,16,36,40.128,-0.7997,-0.0596,-0.4052,0.4388
-0.021,0.004,-0.008,-0.1,7.8,1.8,0,2018,4,25,16,36,40.132,-0.7995,-0.0604,-0.4047,0.4396
-0.019,0,0.001,-0.1,7.2,1.8,0,2018,4,25,16,36,40.17,-0.7993,-0.0613,-0.404,0.4404
-0.012,-0.002,0.002,0.2,8,2,0,2018,4,25,16,36,40.191,-0.7991,-0.0621,-0.4033,0.4413
-0.016,0.002,0.012,0.1,5.1,1.6,0,2018,4,25,16,36,40.195,-0.799,-0.0629,-0.4026,0.442
-0.023,0.003,0.006,0,2.2,1.2,0,2018,4,25,16,36,40.211,-0.7989,-0.0633,-0.4021,0.4426
-0.018,-0.001,0.002,-0.1,0.8,0.4,0,2018,4,25,16,36,40.232,-0.7989,-0.0633,-0.4019,0.4428
-0.017,-0.002,0.006,0,1,0,0,2018,4,25,16,36,40.251,-0.7989,-0.0633,-0.4018,0.443
-0.015,0.001,0,0.3,2.2,-0.4,0,2018,4,25,16,36,40.29,-0.7989,-0.0635,-0.4015,0.4431
-0.022,0.015,0.003,0.3,2.2,-0.5,0,2018,4,25,16,36,40.309,-0.799,-0.0638,-0.4011,0.4432
-0.018,0.013,0,0.2,1.5,-0.3,0,2018,4,25,16,36,40.313,-0.7991,-0.0641,-0.4007,0.4433
-0.022,0.019,0.001,0.5,1.7,-0.1,0,2018,4,25,16,36,40.334,-0.7992,-0.0644,-0.4003,0.4434
-0.018,0.019,0.002,0.6,0.9,0.1,0,2018,4,25,16,36,40.353,-0.7994,-0.0647,-0.4,0.4435
-0.016,0.02,0.002,0.7,0.3,0.6,1023,2018,4,25,16,36,40.389,-0.7995,-0.0648,-0.3996,0.4436
-0.017,0.015,0,1,0.1,0.9,1023,2018,4,25,16,36,40.409,-0.7995,-0.0648,-0.3994,0.4437
-0.02,0.012,0.011,0.8,0.3,0.8,1023,2018,4,25,16,36,40.415,-0.7996,-0.0647,-0.399,0.4439
-0.018,0.011,0.014,0.5,-0.2,0.9,1023,2018,4,25,16,36,40.435,-0.7997,-0.0646,-0.3987,0.444
-0.018,0.002,0.011,0.3,0.4,0.8,1023,2018,4,25,16,36,40.453,-0.7997,-0.0645,-0.3985,0.4442
-0.022,0.004,0.01,0.2,1.2,0.6,1023,2018,4,25,16,36,40.491,-0.7997,-0.0645,-0.3982,0.4444
-0.023,0.007,0.005,0,2.2,0.4,1023,2018,4,25,16,36,40.51,-0.7997,-0.0646,-0.3979,0.4447
-0.018,0.003,0.006,-0.1,2.3,0.4,1023,2018,4,25,16,36,40.513,-0.7997,-0.0649,-0.3975,0.445
-0.016,0.006,0,0,2.3,0.4,1023,2018,4,25,16,36,40.533,-0.7997,-0.0652,-0.3972,0.4452
-0.018,0.009,-0.005,0,2.5,0.7,1023,2018,4,25,16,36,40.553,-0.7997,-0.0655,-0.3969,0.4455
-0.016,0.012,-0.008,0,1.5,1,1023,2018,4,25,16,36,40.593,-0.7997,-0.0657,-0.3967,0.4458
-0.012,0.013,0.003,0.1,0.9,1,1023,2018,4,25,16,36,40.614,-0.7996,-0.0659,-0.3965,0.446
-0.011,0.016,-0.006,0.1,1.1,1.1,1023,2018,4,25,16,36,40.619,-0.7996,-0.066,-0.3963,0.4462
-0.014,0.018,0.001,0.3,0.3,1.1,1023,2018,4,25,16,36,40.655,-0.7996,-0.0661,-0.396,0.4464
-0.011,0.002,-0.002,0.2,0.1,1.1,1023,2018,4,25,16,36,40.675,-0.7996,-0.066,-0.3959,0.4465
-0.013,0.013,-0.004,0.5,0.3,0.9,0,2018,4,25,16,36,40.679,-0.7995,-0.066,-0.3958,0.4467
-0.005,0.003,-0.004,0.6,-0.4,1.1,0,2018,4,25,16,36,40.717,-0.7995,-0.0659,-0.3957,0.4469
-0.011,0.008,0.003,0.6,-0.5,1.4,0,2018,4,25,16,36,40.736,-0.7995,-0.0657,-0.3955,0.447
-0.019,-0.001,-0.003,0.4,-0.9,1.4,0,2018,4,25,16,36,40.741,-0.7995,-0.0654,-0.3954,0.4472
-0.022,-0.001,-0.003,0.5,0.3,1.1,0,2018,4,25,16,36,40.755,-0.7994,-0.0651,-0.3953,0.4474
-0.015,0.009,0.005,0.6,0.8,0.8,0,2018,4,25,16,36,40.775,-0.7994,-0.0651,-0.3951,0.4476
-0.014,0.009,0.004,0.4,-0.1,0.7,0,2018,4,25,16,36,40.798,-0.7995,-0.065,-0.3949,0.4478
-0.012,0.005,0.006,0.5,0.5,0.8,0,2018,4,25,16,36,40.817,-0.7995,-0.065,-0.3947,0.4479
-0.013,0.004,-0.006,0.4,0.1,0.8,0,2018,4,25,16,36,40.838,-0.7995,-0.0649,-0.3945,0.4481
-0.016,0.008,0.004,0.2,-0.4,0.6,0,2018,4,25,16,36,40.857,-0.7995,-0.0649,-0.3944,0.4482
-0.008,0.009,-0.003,0.3,0.3,0.8,0,2018,4,25,16,36,40.883,-0.7995,-0.0648,-0.3942,0.4483
-0.016,0.015,0.002,0.4,-0.1,0.7,0,2018,4,25,16,36,40.895,-0.7995,-0.0648,-0.394,0.4485
-0.016,0.005,0.001,0.3,-0.2,0.7,0,2018,4,25,16,36,40.934,-0.7995,-0.0647,-0.3939,0.4486
-0.015,0.014,-0.003,0.3,0.1,0.7,0,2018,4,25,16,36,40.956,-0.7996,-0.0646,-0.3937,0.4487
-0.012,0.008,0,0.4,-0.3,0.9,0,2018,4,25,16,36,40.96,-0.7996,-0.0645,-0.3936,0.4488
-0.015,0.004,0.001,0.5,0.1,1,0,2018,4,25,16,36,40.978,-0.7995,-0.0644,-0.3935,0.449
-0.008,0.01,-0.007,0.5,0.8,1.1,0,2018,4,25,16,36,40.998,-0.7995,-0.0643,-0.3933,0.4492
-0.015,0.013,-0.005,0.5,-0.5,1.1,0,2018,4,25,16,36,41.017,-0.7995,-0.0643,-0.3932,0.4493
-0.011,0.006,-0.001,0.1,-0.2,1,0,2018,4,25,16,36,41.057,-0.7995,-0.0642,-0.3931,0.4495
-0.009,0.001,0,0.2,0.1,0.9,0,2018,4,25,16,36,41.076,-0.7994,-0.064,-0.3931,0.4496
-0.012,0.007,-0.005,0.3,0.5,0.6,0,2018,4,25,16,36,41.081,-0.7994,-0.064,-0.3929,0.4498
-0.013,0.009,-0.003,0.3,0.4,0.7,0,2018,4,25,16,36,41.099,-0.7994,-0.064,-0.3928,0.4499
-0.012,0.009,0,0.2,-0.2,0.7,0,2018,4,25,16,36,41.12,-0.7994,-0.0639,-0.3926,0.45
-0.011,0.009,0,0.3,-0.5,0.9,0,2018,4,25,16,36,41.139,-0.7994,-0.0638,-0.3925,0.4501
-0.013,0.003,0.002,0.4,0,0.9,0,2018,4,25,16,36,41.163,-0.7994,-0.0637,-0.3924,0.4503
-0.012,0.01,-0.003,0.5,0.3,0.8,0,2018,4,25,16,36,41.182,-0.7994,-0.0636,-0.3922,0.4504
-0.015,0.012,0.003,0.3,0.9,0.7,0,2018,4,25,16,36,41.197,-0.7994,-0.0636,-0.392,0.4506
-0.011,0.004,-0.001,0.3,0,0.7,1023,2018,4,25,16,36,41.238,-0.7994,-0.0636,-0.3919,0.4507
-0.011,0,-0.005,0.5,0.7,0.9,1023,2018,4,25,16,36,41.257,-0.7994,-0.0635,-0.3918,0.4508
-0.013,0.011,-0.006,0.2,0.6,1,1023,2018,4,25,16,36,41.261,-0.7994,-0.0636,-0.3916,0.451
-0.014,0.007,-0.003,0.5,-0.3,1.1,1023,2018,4,25,16,36,41.297,-0.7994,-0.0635,-0.3915,0.4512
-0.01,0.007,0,0.2,0,0.9,1023,2018,4,25,16,36,41.317,-0.7993,-0.0634,-0.3914,0.4513
-0.012,0.012,0.001,0.3,0.5,0.5,1023,2018,4,25,16,36,41.321,-0.7993,-0.0634,-0.3912,0.4514
-0.01,0.006,-0.006,0,-0.5,0.6,1023,2018,4,25,16,36,41.34,-0.7994,-0.0634,-0.3911,0.4515
-0.011,0.002,-0.005,0,-0.2,0.6,1023,2018,4,25,16,36,41.379,-0.7994,-0.0633,-0.3911,0.4516
-0.011,0.008,-0.002,0.1,-0.2,0.5,1023,2018,4,25,16,36,41.399,-0.7993,-0.0632,-0.391,0.4516
-0.009,0.007,-0.005,0,0,0,1023,2018,4,25,16,36,41.403,-0.7994,-0.0632,-0.391,0.4517
-0.013,0.01,-0.003,0.3,0.1,0.5,1023,2018,4,25,16,36,41.442,-0.7994,-0.0632,-0.3909,0.4517
-0.011,0.01,-0.012,0.5,0.1,0.6,1023,2018,4,25,16,36,41.461,-0.7994,-0.0632,-0.3908,0.4518
-0.009,0.01,-0.006,0.3,-0.2,0.7,1023,2018,4,25,16,36,41.466,-0.7994,-0.0632,-0.3907,0.4519
-0.011,0.009,0,0.3,-0.2,0.9,1023,2018,4,25,16,36,41.481,-0.7994,-0.0631,-0.3906,0.452
-0.01,0.004,0.002,0.2,-0.5,0.9,1023,2018,4,25,16,36,41.519,-0.7994,-0.063,-0.3905,0.4521
-0.014,0,0,0.2,-0.4,0.8,0,2018,4,25,16,36,41.539,-0.7994,-0.0628,-0.3904,0.4522
-0.013,0.002,-0.004,0,0,0,0,2018,4,25,16,36,41.543,-0.7993,-0.0626,-0.3904,0.4523
-0.007,0.004,-0.013,0.2,0.5,0.4,0,2018,4,25,16,36,41.562,-0.7993,-0.0626,-0.3904,0.4523
-0.017,0.016,-0.001,0,0,0,0,2018,4,25,16,36,41.582,-0.7993,-0.0627,-0.3902,0.4524
-0.011,0.003,-0.004,0,-0.4,0.5,0,2018,4,25,16,36,41.619,-0.7994,-0.0626,-0.3902,0.4524
-0.009,0.007,-0.006,0,0,0,0,2018,4,25,16,36,41.639,-0.7994,-0.0626,-0.3901,0.4524
-0.011,0.008,-0.002,0.3,-0.1,0.6,0,2018,4,25,16,36,41.643,-0.7994,-0.0626,-0.39,0.4525
-0.013,0.007,-0.001,0.1,-0.4,0.6,0,2018,4,25,16,36,41.683,-0.7994,-0.0626,-0.39,0.4525
-0.012,0.005,-0.007,0.3,0.1,0.6,0,2018,4,25,16,36,41.687,-0.7994,-0.0625,-0.3899,0.4526
-0.008,0.004,-0.005,0.1,0.3,0.6,0,2018,4,25,16,36,41.703,-0.7994,-0.0625,-0.3898,0.4527
-0.013,0.007,-0.002,0,0,0,0,2018,4,25,16,36,41.721,-0.7994,-0.0625,-0.3897,0.4528
-0.011,0.005,-0.005,0,0,0,0,2018,4,25,16,36,41.759,-0.7994,-0.0625,-0.3897,0.4528
-0.008,0.006,-0.002,0,0,0,0,2018,4,25,16,36,41.779,-0.7994,-0.0625,-0.3896,0.4528
-0.01,0.006,-0.005,0,0,0,0,2018,4,25,16,36,41.781,-0.7995,-0.0625,-0.3895,0.4528
-0.011,0.006,-0.005,0,0,0,0,2018,4,25,16,36,41.821,-0.7995,-0.0625,-0.3895,0.4528
-0.011,0.009,-0.004,0,0,0,0,2018,4,25,16,36,41.841,-0.7995,-0.0626,-0.3894,0.4528
-0.01,0.004,-0.011,0,0,0,0,2018,4,25,16,36,41.845,-0.7995,-0.0626,-0.3894,0.4528
-0.012,0.005,-0.008,0,0,0,0,2018,4,25,16,36,41.866,-0.7996,-0.0626,-0.3893,0.4528
-0.011,0.005,-0.007,0,0,0,0,2018,4,25,16,36,41.903,-0.7996,-0.0626,-0.3893,0.4528
-0.012,0.009,-0.005,0.3,0.5,0.3,0,2018,4,25,16,36,41.927,-0.7996,-0.0626,-0.3892,0.4529
-0.01,0.01,0,0,0,0,0,2018,4,25,16,36,41.931,-0.7996,-0.0626,-0.3891,0.4529
-0.007,0.004,-0.003,0,-0.1,0.6,0,2018,4,25,16,36,41.944,-0.7996,-0.0626,-0.389,0.4529
-0.013,0.004,-0.006,0,0.5,0.6,0,2018,4,25,16,36,41.981,-0.7996,-0.0626,-0.389,0.453
-0.012,0.009,-0.001,0,0,0,0,2018,4,25,16,36,42,-0.7996,-0.0626,-0.3889,0.453
-0.013,0.006,-0.002,0,0,0,0,2018,4,25,16,36,42.004,-0.7996,-0.0626,-0.3889,0.453
-0.014,0.001,-0.001,0,0,0,0,2018,4,25,16,36,42.026,-0.7997,-0.0626,-0.3888,0.4531
-0.014,0,-0.008,0,0,0,1023,2018,4,25,16,36,42.046,-0.7997,-0.0625,-0.3888,0.4531
-0.01,0.006,-0.01,0.4,0.7,0.2,1023,2018,4,25,16,36,42.066,-0.7997,-0.0625,-0.3888,0.4531
-0.003,0.012,-0.002,0,0,0,1023,2018,4,25,16,36,42.087,-0.7997,-0.0626,-0.3886,0.4532
-0.01,0.009,-0.005,-0.3,-0.9,0.5,1023,2018,4,25,16,36,42.107,-0.7997,-0.0626,-0.3886,0.4531
-0.004,0.004,-0.006,0,-0.5,0.3,1023,2018,4,25,16,36,42.127,-0.7997,-0.0625,-0.3887,0.4531
-0.008,0.007,-0.009,0,0,0,1023,2018,4,25,16,36,42.162,-0.7997,-0.0626,-0.3887,0.4531
-0.008,0.005,-0.005,0,0,0,1023,2018,4,25,16,36,42.182,-0.7997,-0.0626,-0.3886,0.4531
-0.013,0.008,-0.003,0,0,0,1023,2018,4,25,16,36,42.186,-0.7997,-0.0626,-0.3886,0.4531
-0.013,0.005,-0.005,0,0,0,1023,2018,4,25,16,36,42.223,-0.7998,-0.0625,-0.3886,0.4531
-0.01,0.005,-0.011,0,0,0,1023,2018,4,25,16,36,42.244,-0.7998,-0.0625,-0.3886,0.4531
-0.012,0.009,-0.007,0,0,0,1023,2018,4,25,16,36,42.248,-0.7998,-0.0625,-0.3886,0.4531
-0.014,0.007,-0.006,0,0,0,0,2018,4,25,16,36,42.285,-0.7998,-0.0626,-0.3885,0.4531
-0.009,0.002,-0.003,0,-0.7,0.2,0,2018,4,25,16,36,42.304,-0.7998,-0.0625,-0.3885,0.4531
-0.008,-0.001,0,-0.3,-0.7,0,0,2018,4,25,16,36,42.308,-0.7998,-0.0624,-0.3886,0.4531
-0.011,-0.002,-0.001,0,0,0,0,2018,4,25,16,36,42.346,-0.7998,-0.0623,-0.3886,0.4531
-0.01,0.002,-0.002,-0.5,0.4,-0.2,0,2018,4,25,16,36,42.366,-0.7998,-0.0623,-0.3886,0.4531
-0.009,0.005,-0.005,-0.5,0.4,-0.2,0,2018,4,25,16,36,42.371,-0.7998,-0.0624,-0.3886,0.4531
-0.01,0.009,-0.008,-0.5,0.4,-0.4,0,2018,4,25,16,36,42.39,-0.7998,-0.0626,-0.3886,0.4531
-0.012,0.014,-0.006,0,0,0,0,2018,4,25,16,36,42.409,-0.7998,-0.0627,-0.3885,0.4531
-0.011,0.013,-0.01,-0.5,-0.5,-0.2,0,2018,4,25,16,36,42.426,-0.7998,-0.0628,-0.3885,0.453
-0.008,0.007,-0.009,-0.5,-0.7,0,0,2018,4,25,16,36,42.447,-0.7998,-0.0629,-0.3886,0.4529
-0.006,0.004,-0.008,-0.4,-0.5,0,0,2018,4,25,16,36,42.466,-0.7998,-0.0628,-0.3887,0.4529
-0.007,0.003,-0.006,0,0,0,0,2018,4,25,16,36,42.507,-0.7998,-0.0628,-0.3888,0.4528
-0.009,0.005,-0.007,0,0,0,0,2018,4,25,16,36,42.527,-0.7998,-0.0628,-0.3887,0.4528
-0.008,0.006,-0.004,0,0,0,0,2018,4,25,16,36,42.532,-0.7998,-0.0628,-0.3887,0.4528
-0.009,0.004,-0.011,0,0,0,0,2018,4,25,16,36,42.549,-0.7998,-0.0628,-0.3887,0.4528
-0.009,0.007,-0.001,0,0,0,0,2018,4,25,16,36,42.588,-0.7998,-0.0628,-0.3887,0.4528
-0.011,0.006,-0.005,0,0,0,0,2018,4,25,16,36,42.608,-0.7999,-0.0629,-0.3886,0.4528
-0.008,0.006,-0.003,-0.5,-0.2,0,0,2018,4,25,16,36,42.613,-0.7999,-0.0629,-0.3886,0.4528
-0.011,0.003,-0.007,0,0,0,0,2018,4,25,16,36,42.629,-0.7999,-0.0629,-0.3886,0.4528
-0.008,0.008,-0.009,-0.5,-0.2,-0.1,0,2018,4,25,16,36,42.647,-0.7999,-0.0629,-0.3886,0.4528
-0.007,0.005,-0.012,0,-0.9,-0.1,0,2018,4,25,16,36,42.668,-0.7999,-0.0629,-0.3887,0.4528
-0.006,0.013,-0.009,0.6,-2,0,0,2018,4,25,16,36,42.704,-0.7999,-0.0627,-0.3887,0.4527
-0.002,0.005,-0.006,0.4,-2.3,0,0,2018,4,25,16,36,42.724,-0.8,-0.0624,-0.3888,0.4525
-0.003,-0.001,-0.002,0,-1.6,-0.3,0,2018,4,25,16,36,42.728,-0.8001,-0.0621,-0.3889,0.4524
-0.009,-0.006,-0.008,0,0,0,0,2018,4,25,16,36,42.768,-0.8001,-0.0619,-0.389,0.4523
-0.012,0.002,0,-0.7,0.4,-0.3,0,2018,4,25,16,36,42.786,-0.8001,-0.062,-0.389,0.4523
-0.012,0.019,-0.005,-0.8,0.9,0,0,2018,4,25,16,36,42.791,-0.8001,-0.0622,-0.3889,0.4523
-0.008,0.005,-0.016,-0.5,0.1,0.1,0,2018,4,25,16,36,42.83,-0.8,-0.0624,-0.389,0.4523
-0.008,0.01,-0.003,-0.5,-0.1,-0.1,0,2018,4,25,16,36,42.852,-0.8,-0.0625,-0.389,0.4523
-0.003,-0.001,-0.007,-0.6,-0.8,-0.4,0,2018,4,25,16,36,42.856,-0.8,-0.0625,-0.3892,0.4522
-0.005,0,-0.004,-0.3,-0.5,-0.7,1023,2018,4,25,16,36,42.869,-0.8,-0.0625,-0.3893,0.4521
-0.009,0.004,-0.011,-0.2,-0.1,-0.5,1023,2018,4,25,16,36,42.907,-0.8,-0.0625,-0.3894,0.452
-0.008,0.011,-0.011,0,0,0,1023,2018,4,25,16,36,42.927,-0.8001,-0.0625,-0.3894,0.4519
-0.013,0.008,-0.004,-0.7,-0.4,-0.1,1023,2018,4,25,16,36,42.931,-0.8001,-0.0626,-0.3894,0.4519
-0.01,0.01,0.002,-1,-0.2,-0.3,1023,2018,4,25,16,36,42.969,-0.8001,-0.0626,-0.3894,0.4518
-0.008,0.002,-0.004,-1,0.1,-0.4,1023,2018,4,25,16,36,42.989,-0.8,-0.0627,-0.3895,0.4518
-0.007,0.007,-0.02,-0.3,3.6,-0.1,1023,2018,4,25,16,36,42.993,-0.8,-0.063,-0.3895,0.4518
-0.008,0.031,-0.029,0,5.5,0.1,1023,2018,4,25,16,36,43.032,-0.7999,-0.064,-0.3892,0.4521
-0.004,0.027,-0.004,-0.3,4.5,1.1,1023,2018,4,25,16,36,43.051,-0.7999,-0.0649,-0.3888,0.4524
-0.004,0.001,0.01,-1.1,6.7,1.8,1023,2018,4,25,16,36,43.055,-0.7997,-0.0657,-0.3884,0.4529
-0.007,0.027,-0.001,-1.4,9.6,2.2,1023,2018,4,25,16,36,43.072,-0.7994,-0.067,-0.3878,0.4538
-0.008,0.026,-0.018,-1.4,8.2,3.2,1023,2018,4,25,16,36,43.111,-0.799,-0.0684,-0.3873,0.4547
-0.006,0.034,-0.016,-1.2,6.1,4.2,1023,2018,4,25,16,36,43.131,-0.7986,-0.0695,-0.3869,0.4556
-0.002,0.024,-0.01,-0.7,2,5.1,1023,2018,4,25,16,36,43.135,-0.7981,-0.0701,-0.3867,0.4565
-0.002,0.002,0,-1.1,-3,5.5,1023,2018,4,25,16,36,43.152,-0.7977,-0.0698,-0.387,0.4571
0.003,-0.036,-0.01,-1.3,-2.1,4.8,1023,2018,4,25,16,36,43.189,-0.7971,-0.0689,-0.3875,0.4577
-0.015,-0.036,-0.02,-0.7,0.7,2.9,1023,2018,4,25,16,36,43.21,-0.7966,-0.0684,-0.388,0.4583
-0.023,-0.004,-0.027,-0.2,0.9,1.4,0,2018,4,25,16,36,43.214,-0.7963,-0.0682,-0.3881,0.4587
-0.013,0.002,-0.021,0.6,1.6,1.1,0,2018,4,25,16,36,43.252,-0.7962,-0.0682,-0.3882,0.459
0,0.025,-0.008,1.7,1,1.5,0,2018,4,25,16,36,43.272,-0.7961,-0.0683,-0.3879,0.4592
0.011,-0.002,-0.004,1,0.8,1.8,0,2018,4,25,16,36,43.276,-0.7961,-0.0683,-0.3877,0.4594
0.002,-0.005,0.007,0,5.6,1.2,0,2018,4,25,16,36,43.295,-0.7959,-0.0686,-0.3874,0.4599
-0.027,0.01,0.009,-1.3,8.1,0.7,0,2018,4,25,16,36,43.317,-0.7958,-0.0696,-0.3868,0.4605
-0.022,0.047,0.002,-1.9,7.2,0.7,0,2018,4,25,16,36,43.338,-0.7957,-0.0709,-0.3862,0.4611
-0.022,0.039,0,-2.1,4.7,1.2,0,2018,4,25,16,36,43.357,-0.7955,-0.0721,-0.3857,0.4615
-0.035,0.025,0.003,-1.4,5.5,1.2,0,2018,4,25,16,36,43.376,-0.7953,-0.0729,-0.3853,0.462
-0.023,0.015,0.017,-1.8,5.3,0.3,0,2018,4,25,16,36,43.396,-0.7952,-0.0738,-0.3848,0.4625
0.018,0.002,0.018,-2.5,7.3,-1.6,0,2018,4,25,16,36,43.413,-0.7951,-0.0749,-0.3845,0.4628
0.026,0,0.02,-3,14.1,-3.1,0,2018,4,25,16,36,43.453,-0.795,-0.0769,-0.384,0.4631
-0.015,-0.004,0.014,-4.5,18.2,-4.1,0,2018,4,25,16,36,43.458,-0.7948,-0.0797,-0.383,0.4637
-0.023,-0.054,0,-7,26.1,-3.7,0,2018,4,25,16,36,43.473,-0.7945,-0.0831,-0.382,0.4646
-0.019,0.011,-0.026,-5.3,28.9,-2.3,0,2018,4,25,16,36,43.513,-0.7939,-0.0877,-0.3805,0.466
-0.041,0,-0.021,-4.4,23.9,-0.3,0,2018,4,25,16,36,43.533,-0.7932,-0.0918,-0.379,0.4675
-0.015,0.024,-0.039,-2.6,9.1,2.5,0,2018,4,25,16,36,43.537,-0.7926,-0.0944,-0.3781,0.4687
-0.012,-0.033,-0.058,-0.6,-2,4.5,0,2018,4,25,16,36,43.557,-0.7921,-0.0947,-0.3784,0.4693
-0.013,-0.061,-0.039,1.3,0.3,4.8,0,2018,4,25,16,36,43.576,-0.7915,-0.0937,-0.3791,0.47
-0.027,-0.067,0.004,1.4,1,3.9,1023,2018,4,25,16,36,43.598,-0.791,-0.0929,-0.3791,0.4709
-0.022,-0.085,0.021,0.2,-0.1,1.8,1023,2018,4,25,16,36,43.616,-0.7908,-0.0919,-0.379,0.4716
-0.008,-0.092,0.034,-1.4,2.6,-0.6,1023,2018,4,25,16,36,43.635,-0.7905,-0.0913,-0.3791,0.4721
-0.021,-0.096,0.06,-3.7,5.9,-3.3,1023,2018,4,25,16,36,43.655,-0.7903,-0.0914,-0.3791,0.4724
-0.037,-0.102,0.065,-8.2,10.8,-4.9,1023,2018,4,25,16,36,43.693,-0.7901,-0.0923,-0.379,0.4727
-0.03,-0.104,0.039,-12.1,21,-6.8,1023,2018,4,25,16,36,43.716,-0.7896,-0.0956,-0.379,0.4728
-0.041,-0.075,0.019,-13.4,28.9,-8,1023,2018,4,25,16,36,43.72,-0.7888,-0.0999,-0.3786,0.4736
-0.038,-0.065,0.032,-15.9,39.5,-9.1,1023,2018,4,25,16,36,43.739,-0.7879,-0.1057,-0.3775,0.4747
-0.029,-0.014,0.054,-20.7,54.9,-9.1,1023,2018,4,25,16,36,43.758,-0.7866,-0.1137,-0.3756,0.4764
-0.003,0.106,0.041,-25,61.7,-6.5,1023,2018,4,25,16,36,43.779,-0.7849,-0.1246,-0.3731,0.4786
-0.019,0.208,-0.01,-25.1,45,-1,1023,2018,4,25,16,36,43.798,-0.7824,-0.1345,-0.3718,0.481
-0.061,0.223,-0.021,-27.3,25.2,8.4,1023,2018,4,25,16,36,43.836,-0.7795,-0.1412,-0.3726,0.4832
-0.033,0.149,-0.027,-28.3,14.5,18.2,1023,2018,4,25,16,36,43.857,-0.776,-0.1452,-0.3752,0.4855
-0.002,0.14,0.017,-27.4,19,24.5,1023,2018,4,25,16,36,43.861,-0.7721,-0.1489,-0.3778,0.4886
0.037,0.238,0.048,-29.6,8.3,28.6,1023,2018,4,25,16,36,43.88,-0.7676,-0.1517,-0.3809,0.4925
0.096,0.224,-0.085,-29.4,-17.9,32.4,1023,2018,4,25,16,36,43.9,-0.7631,-0.1515,-0.3863,0.4954
0.019,0.619,0.055,-30.8,-95.8,44.2,1023,2018,4,25,16,36,43.939,-0.7591,-0.1444,-0.3957,0.496
-0.018,0.199,-0.027,-38.9,-154.6,50.5,1023,2018,4,25,16,36,43.943,-0.7556,-0.1263,-0.4132,0.4921
-0.069,0.002,-0.028,-44.3,-136.6,53.5,1023,2018,4,25,16,36,43.958,-0.7512,-0.1068,-0.4324,0.487
-0.068,-0.021,-0.049,-47.2,-93.3,54.3,1023,2018,4,25,16,36,43.979,-0.7449,-0.0911,-0.4491,0.4846
-0.028,-0.004,-0.067,-46.5,-47.1,56.4,1023,2018,4,25,16,36,43.999,-0.7374,-0.0815,-0.4621,0.4857
0.021,0.092,-0.051,-42.7,-18.9,59.3,0,2018,4,25,16,36,44.04,-0.7291,-0.0772,-0.4714,0.4899
0.037,0.139,-0.07,-38.6,-18.3,60.9,0,2018,4,25,16,36,44.059,-0.7209,-0.0736,-0.4788,0.4955
-0.015,0.134,-0.069,-36.9,-17,60.2,0,2018,4,25,16,36,44.064,-0.7127,-0.0699,-0.4858,0.5009
0.049,0.151,-0.068,-35.3,-17.1,62.1,0,2018,4,25,16,36,44.082,-0.7045,-0.0657,-0.4926,0.5065
0.125,0.185,-0.114,-30.2,-20,69,0,2018,4,25,16,36,44.12,-0.6961,-0.0608,-0.4989,0.5126
0.155,0.195,-0.102,-26.6,-27,75.8,0,2018,4,25,16,36,44.14,-0.6873,-0.054,-0.5051,0.519
0.293,0.147,-0.04,-28,-34.6,72.8,0,2018,4,25,16,36,44.144,-0.6783,-0.0462,-0.5118,0.525
0.487,0.164,-0.086,-31.3,-49.1,65.6,0,2018,4,25,16,36,44.163,-0.6696,-0.0378,-0.5196,0.5292
0.488,0.238,-0.185,-38.8,-81.8,62.1,0,2018,4,25,16,36,44.184,-0.6608,-0.0277,-0.53,0.5305
0.534,0.158,-0.147,-48.8,-132.7,60.4,0,2018,4,25,16,36,44.201,-0.6514,-0.0136,-0.5454,0.5272
0.726,0.024,-0.098,-47.8,-160.5,56.4,0,2018,4,25,16,36,44.221,-0.6414,0.0044,-0.5648,0.5191
0.806,-0.224,-0.102,-32.4,-132.9,55,0,2018,4,25,16,36,44.24,-0.6319,0.0232,-0.5828,0.5101
0.732,-0.238,-0.092,-6.1,-62.1,53.9,0,2018,4,25,16,36,44.262,-0.6247,0.0376,-0.593,0.5064
0.472,-0.097,-0.092,18.9,-15.2,64.6,0,2018,4,25,16,36,44.281,-0.6199,0.0481,-0.595,0.5091
0.36,-0.18,-0.079,41.7,29.5,77.5,0,2018,4,25,16,36,44.304,-0.6168,0.0576,-0.5903,0.5173
0.218,-0.197,-0.113,64.1,88.1,83.7,0,2018,4,25,16,36,44.342,-0.6155,0.064,-0.578,0.5318
-0.022,0.242,-0.134,83.2,55.9,87.2,0,2018,4,25,16,36,44.362,-0.6159,0.0713,-0.5615,0.5478
-0.121,0.217,-0.088,89.7,-9.1,96.3,0,2018,4,25,16,36,44.366,-0.6158,0.0864,-0.5491,0.5583
-0.218,-0.016,-0.127,90.8,-10.5,95.9,0,2018,4,25,16,36,44.381,-0.6144,0.1062,-0.5392,0.566
-0.273,0.089,-0.147,96.1,1,90.3,1023,2018,4,25,16,36,44.421,-0.6138,0.1246,-0.5277,0.5737
-0.242,0.199,-0.064,101.3,11.8,86.8,1023,2018,4,25,16,36,44.425,-0.614,0.142,-0.5145,0.5813
-0.245,0.207,-0.091,98.8,15.5,89.8,1023,2018,4,25,16,36,44.441,-0.6143,0.1587,-0.5,0.5893
-0.3,0.197,-0.058,97.8,28.6,89.6,1023,2018,4,25,16,36,44.48,-0.614,0.1741,-0.4845,0.5982
-0.379,0.154,-0.015,99.8,24.2,88.9,1023,2018,4,25,16,36,44.501,-0.6136,0.1891,-0.4684,0.6068
-0.455,0.182,-0.009,102.4,24.2,84.6,0,2018,4,25,16,36,44.505,-0.6133,0.2042,-0.4519,0.6146
-0.434,0.225,-0.009,100.8,18.2,82.1,0,2018,4,25,16,36,44.523,-0.613,0.2193,-0.4357,0.6214
-0.348,0.285,-0.003,97.5,11.6,83.3,0,2018,4,25,16,36,44.545,-0.612,0.2346,-0.4201,0.6275
-0.275,0.227,0.006,91.1,9.5,84.7,0,2018,4,25,16,36,44.581,-0.61,0.25,-0.4054,0.6332
-0.139,0.138,-0.008,82.2,15.7,85.3,0,2018,4,25,16,36,44.601,-0.607,0.2643,-0.3911,0.6391
-0.134,0.125,-0.07,75.8,17.2,86.3,0,2018,4,25,16,36,44.605,-0.6035,0.277,-0.3769,0.6456
-0.079,0.131,-0.087,72.2,11.1,91.2,0,2018,4,25,16,36,44.625,-0.5987,0.2901,-0.3625,0.6526
-0.06,0.025,-0.082,71.3,9.3,94.2,0,2018,4,25,16,36,44.645,-0.5925,0.3037,-0.3489,0.6593
-0.062,-0.022,-0.062,72.1,12,88.7,0,2018,4,25,16,36,44.682,-0.5863,0.3172,-0.3354,0.6655
-0.138,-0.02,-0.032,70.5,8.3,79,0,2018,4,25,16,36,44.701,-0.5811,0.3298,-0.322,0.6706
-0.212,0.008,-0.017,62,-8.8,72.1,0,2018,4,25,16,36,44.705,-0.5759,0.3417,-0.3109,0.6743
-0.267,0.001,-0.002,48.6,-32.6,65.6,0,2018,4,25,16,36,44.745,-0.5695,0.354,-0.3037,0.6767
-0.22,-0.02,-0.036,35.8,-52.4,57.1,0,2018,4,25,16,36,44.765,-0.5616,0.3666,-0.3009,0.6778
-0.146,-0.004,-0.084,27.1,-60,47.6,0,2018,4,25,16,36,44.769,-0.5533,0.3785,-0.3013,0.6779
-0.1,0.054,-0.112,20.1,-62.2,44.5,0,2018,4,25,16,36,44.787,-0.5451,0.3896,-0.3033,0.6774
-0.094,0.062,-0.136,13.3,-61.2,46.8,0,2018,4,25,16,36,44.826,-0.5363,0.3999,-0.3059,0.6772
-0.074,0.075,-0.147,8,-61,50.3,0,2018,4,25,16,36,44.845,-0.5268,0.4093,-0.3087,0.6778
-0.062,0.029,-0.148,3,-64.5,52,0,2018,4,25,16,36,44.849,-0.5165,0.4185,-0.3119,0.6787
-0.09,-0.038,-0.146,-3.1,-62.3,50.3,0,2018,4,25,16,36,44.865,-0.5057,0.427,-0.3157,0.6798
-0.136,-0.1,-0.153,-12.3,-57.3,44.2,0,2018,4,25,16,36,44.886,-0.4951,0.4339,-0.3199,0.6812
-0.168,-0.144,-0.212,-25.7,-49.6,35.5,0,2018,4,25,16,36,44.905,-0.4852,0.4384,-0.3249,0.6831
-0.077,-0.109,-0.263,-33.9,-43.4,29.8,0,2018,4,25,16,36,44.941,-0.4761,0.4404,-0.3305,0.6855
0.009,-0.074,-0.268,-35.3,-40.2,31.6,0,2018,4,25,16,36,44.961,-0.4672,0.4414,-0.3361,0.6883
0.051,-0.055,-0.195,-33.8,-43.9,37.2,0,2018,4,25,16,36,44.968,-0.4578,0.4426,-0.3412,0.6913
0.081,-0.048,-0.101,-33,-46.9,44.9,0,2018,4,25,16,36,45.004,-0.4473,0.4447,-0.3463,0.6943
0.069,-0.051,-0.049,-31.7,-49.5,57,1023,2018,4,25,16,36,45.024,-0.4355,0.4477,-0.3517,0.6972
0.041,-0.068,-0.024,-32.9,-50.7,71,1023,2018,4,25,16,36,45.029,-0.422,0.4513,-0.3558,0.701
0.031,-0.103,0.001,-35.5,-51.5,78.4,1023,2018,4,25,16,36,45.049,-0.4068,0.4554,-0.3591,0.7057
0.064,-0.111,0.042,-40.2,-53.5,84.2,1023,2018,4,25,16,36,45.069,-0.3905,0.4591,-0.3623,0.7108
0.077,-0.076,0.046,-45.7,-62.6,90.2,1023,2018,4,25,16,36,45.107,-0.3727,0.4625,-0.3657,0.7164
0.105,-0.104,0.034,-49.1,-62.5,96.1,1023,2018,4,25,16,36,45.127,-0.3534,0.4659,-0.3697,0.722
0.112,-0.133,0.05,-49.6,-53.8,97.9,1023,2018,4,25,16,36,45.132,-0.3337,0.4688,-0.3726,0.7279
0.066,-0.04,0.092,-56.4,-52.5,101.4,1023,2018,4,25,16,36,45.149,-0.3137,0.4711,-0.3743,0.7344
0.047,-0.009,0.076,-66.4,-63.8,109.2,1023,2018,4,25,16,36,45.187,-0.2917,0.4723,-0.3763,0.7416
0.04,-0.081,0.028,-73.3,-82.1,115.1,1023,2018,4,25,16,36,45.207,-0.2667,0.4736,-0.38,0.7483
0.057,-0.183,-0.014,-74.3,-89.2,116.2,1023,2018,4,25,16,36,45.211,-0.24,0.475,-0.3858,0.7535
0.099,-0.295,-0.068,-70.2,-81.3,113.9,1023,2018,4,25,16,36,45.229,-0.2127,0.4766,-0.3907,0.7581
0.154,-0.306,-0.076,-60.8,-72.7,107.5,1023,2018,4,25,16,36,45.268,-0.1872,0.4782,-0.3938,0.7622
0.169,-0.353,-0.056,-52.2,-59.7,95.1,1023,2018,4,25,16,36,45.288,-0.1642,0.4797,-0.3959,0.7655
0.104,-0.272,-0.05,-47,-43.7,84.1,1023,2018,4,25,16,36,45.292,-0.1446,0.4807,-0.3966,0.7685
0.023,-0.152,-0.051,-44.3,-32.7,78.5,1023,2018,4,25,16,36,45.31,-0.1275,0.481,-0.3961,0.7716
0.023,-0.078,-0.077,-38.4,-23.3,78.6,1023,2018,4,25,16,36,45.347,-0.1121,0.4814,-0.395,0.7743
-0.07,-0.195,-0.117,-25.3,-5.2,73.7,1023,2018,4,25,16,36,45.368,-0.0983,0.4826,-0.3912,0.7773
-0.155,-0.202,-0.131,-6.3,19.1,62.4,1023,2018,4,25,16,36,45.372,-0.0887,0.485,-0.3846,0.7803
-0.23,-0.047,-0.081,10.8,23.5,51.1,0,2018,4,25,16,36,45.392,-0.0833,0.4888,-0.3765,0.7824
-0.255,0.052,-0.03,21.6,8.4,39.4,0,2018,4,25,16,36,45.429,-0.0796,0.4939,-0.3702,0.7827
-0.326,0.045,0.046,25.1,-4.3,24.8,0,2018,4,25,16,36,45.433,-0.0768,0.4992,-0.367,0.7811
-0.326,0.128,0.145,19.6,-4.3,10.8,0,2018,4,25,16,36,45.45,-0.0756,0.5035,-0.3657,0.779
-0.25,0.322,0.173,8.6,-19.5,4.9,0,2018,4,25,16,36,45.469,-0.0747,0.506,-0.3664,0.7771
-0.253,0.414,0.136,-4.8,-50.3,7.1,0,2018,4,25,16,36,45.49,-0.0709,0.5071,-0.3706,0.7748
-0.237,0.227,0.086,-11.4,-66.7,10.6,0,2018,4,25,16,36,45.527,-0.0636,0.5071,-0.3782,0.7717
-0.237,0.126,0.108,-13.6,-59.6,9.4,0,2018,4,25,16,36,45.547,-0.0557,0.5068,-0.386,0.7687
-0.19,0.138,0.102,-18.5,-53.4,8.7,0,2018,4,25,16,36,45.551,-0.0485,0.5057,-0.3928,0.7664
-0.147,0.164,0.109,-25.5,-52.8,7.2,0,2018,4,25,16,36,45.592,-0.0412,0.5037,-0.3993,0.7648
-0.108,0.196,0.08,-34.5,-63.7,4.7,0,2018,4,25,16,36,45.61,-0.0333,0.5005,-0.4067,0.7635
-0.094,0.176,0.023,-43.5,-81.9,0.8,0,2018,4,25,16,36,45.614,-0.0237,0.4958,-0.4164,0.7616
-0.033,0.098,-0.008,-49.8,-89.6,-4.3,0,2018,4,25,16,36,45.652,-0.0124,0.4901,-0.4278,0.7593
-0.014,0.101,-0.02,-51.9,-88.5,-10.4,0,2018,4,25,16,36,45.656,-0.0013,0.4834,-0.4398,0.7568
0.034,0.158,-0.032,-51,-89.7,-18.7,0,2018,4,25,16,36,45.673,0.0087,0.4759,-0.4523,0.7541
0.05,0.255,-0.022,-52.6,-100.4,-24.3,1023,2018,4,25,16,36,45.692,0.0185,0.4675,-0.4659,0.7509
0.035,0.227,-0.023,-57.8,-110.2,-25.6,1023,2018,4,25,16,36,45.711,0.0289,0.4577,-0.4814,0.7468
0.022,0.158,-0.025,-63.3,-100.8,-29.5,1023,2018,4,25,16,36,45.731,0.0399,0.4475,-0.4965,0.7426
-0.026,0.12,-0.028,-67.4,-88.4,-38.1,1023,2018,4,25,16,36,45.771,0.0493,0.436,-0.5103,0.7395
-0.016,0.224,-0.027,-70.7,-88.5,-46.1,1023,2018,4,25,16,36,45.792,0.057,0.4232,-0.5237,0.737
-0.023,0.272,-0.034,-76.4,-101.6,-47.7,1023,2018,4,25,16,36,45.796,0.0644,0.4086,-0.5385,0.734
-0.048,0.215,-0.076,-84.6,-109,-45.8,1023,2018,4,25,16,36,45.813,0.0732,0.3927,-0.5545,0.7299
-0.052,0.126,-0.148,-88.9,-107.6,-44.9,1023,2018,4,25,16,36,45.853,0.0833,0.3757,-0.5702,0.7257
-0.027,0.098,-0.17,-87.4,-97.4,-46.4,1023,2018,4,25,16,36,45.873,0.093,0.3583,-0.5847,0.7217
-0.02,0.133,-0.189,-82.8,-98,-47.6,1023,2018,4,25,16,36,45.877,0.1018,0.3411,-0.5983,0.7178
-0.045,0.131,-0.254,-77.4,-105,-50,1023,2018,4,25,16,36,45.916,0.1101,0.324,-0.6123,0.7126
-0.044,0.044,-0.249,-73.9,-101.6,-55,1023,2018,4,25,16,36,45.936,0.1176,0.3069,-0.6267,0.7064
-0.051,0.04,-0.209,-74.6,-91.8,-63.7,1023,2018,4,25,16,36,45.952,0.1235,0.2892,-0.6401,0.7009
-0.091,0.135,-0.178,-79.7,-92.1,-71.3,1023,2018,4,25,16,36,45.955,0.1283,0.2702,-0.6527,0.6959
-0.13,0.209,-0.187,-85,-101.3,-76,1023,2018,4,25,16,36,45.973,0.1332,0.2495,-0.6659,0.6902
-0.17,0.188,-0.201,-91.3,-115.4,-77,1023,2018,4,25,16,36,45.993,0.1389,0.2273,-0.68,0.683
-0.212,0.036,-0.222,-94.3,-118.2,-79.8,0,2018,4,25,16,36,46.03,0.1453,0.2038,-0.6947,0.6743
-0.139,0.034,-0.192,-93.5,-115.7,-79.7,0,2018,4,25,16,36,46.049,0.1513,0.18,-0.7085,0.6653
-0.08,-0.084,-0.179,-94.1,-109,-78.7,0,2018,4,25,16,36,46.051,0.1572,0.1563,-0.7214,0.656
-0.045,-0.105,-0.127,-95.9,-95.3,-77.5,0,2018,4,25,16,36,46.089,0.1629,0.1328,-0.7328,0.6471
0.07,-0.003,-0.086,-94.8,-84.3,-73.7,0,2018,4,25,16,36,46.108,0.1681,0.1096,-0.7422,0.6393
0.226,0.048,-0.076,-90.7,-81.2,-66.3,0,2018,4,25,16,36,46.116,0.1738,0.0876,-0.7499,0.6321
0.325,0.094,-0.051,-85.8,-78.2,-54.6,0,2018,4,25,16,36,46.152,0.1798,0.0676,-0.7566,0.6248
0.379,0.017,-0.07,-79,-73.5,-43.5,0,2018,4,25,16,36,46.176,0.1863,0.0497,-0.7628,0.617
0.391,-0.024,-0.061,-69.3,-58.8,-36.3,0,2018,4,25,16,36,46.18,0.1925,0.0343,-0.7677,0.6101
0.326,-0.096,-0.042,-59.9,-43.7,-34.7,0,2018,4,25,16,36,46.194,0.1976,0.0211,-0.7711,0.6047
0.234,-0.129,-0.011,-55.5,-23.7,-37.2,0,2018,4,25,16,36,46.216,0.2016,0.0091,-0.7727,0.6017
0.205,-0.046,-0.014,-55.6,-14.8,-38.6,0,2018,4,25,16,36,46.238,0.2051,-0.0024,-0.7726,0.6007
0.19,0.065,-0.038,-56,-25.6,-37.4,0,2018,4,25,16,36,46.257,0.2086,-0.0141,-0.7725,0.5994
0.2,0.092,-0.033,-54.1,-41.8,-36.3,0,2018,4,25,16,36,46.278,0.2121,-0.0261,-0.774,0.5959
0.195,0.064,0,-51.7,-51.2,-36.1,0,2018,4,25,16,36,46.298,0.2152,-0.0382,-0.7767,0.5905
0.196,0.03,0.002,-51,-51.6,-36.2,0,2018,4,25,16,36,46.336,0.218,-0.0504,-0.7799,0.5844
0.214,0.022,-0.005,-51.1,-41.7,-35.7,0,2018,4,25,16,36,46.358,0.2209,-0.0622,-0.7823,0.5789
0.22,0.02,-0.037,-50.5,-33.7,-32.9,1023,2018,4,25,16,36,46.362,0.224,-0.0735,-0.7837,0.5745
0.211,0.024,-0.061,-46.1,-29.4,-28.6,1023,2018,4,25,16,36,46.38,0.2271,-0.0838,-0.7845,0.5708
0.204,0.024,-0.057,-39.6,-32.4,-23.5,1023,2018,4,25,16,36,46.399,0.2299,-0.0929,-0.7854,0.567
0.172,-0.064,-0.035,-33.8,-32.6,-20.5,1023,2018,4,25,16,36,46.421,0.2322,-0.1007,-0.7868,0.5627
0.14,-0.109,-0.034,-27.7,-23.7,-19.1,1023,2018,4,25,16,36,46.438,0.2336,-0.108,-0.788,0.5592
0.122,-0.083,-0.035,-22.2,-19.6,-15.7,1023,2018,4,25,16,36,46.458,0.2338,-0.1145,-0.7887,0.5568
0.097,-0.096,-0.045,-16.1,-17.6,-10.3,1023,2018,4,25,16,36,46.478,0.2339,-0.1196,-0.7895,0.5546
0.07,-0.181,-0.003,-10.2,-10.4,-6,1023,2018,4,25,16,36,46.498,0.2338,-0.1232,-0.7901,0.5529
0.057,-0.171,0.044,-6.1,6.2,-6.8,1023,2018,4,25,16,36,46.517,0.2338,-0.1253,-0.7894,0.5535
0.049,-0.122,0.069,-4.5,16.6,-8.5,1023,2018,4,25,16,36,46.555,0.2337,-0.1268,-0.7872,0.5562
0.073,-0.043,0.085,-4.9,15.5,-10.8,1023,2018,4,25,16,36,46.574,0.2335,-0.1283,-0.7846,0.5598
0.061,0.003,0.084,-7.1,6.9,-10.9,1023,2018,4,25,16,36,46.578,0.2332,-0.1302,-0.7824,0.5625
0.052,0.005,0.039,-9.3,0.5,-10.5,1023,2018,4,25,16,36,46.617,0.2331,-0.1327,-0.7811,0.5638
0.062,0,0.012,-9.3,2.2,-11.3,0,2018,4,25,16,36,46.636,0.2331,-0.1354,-0.7802,0.5644
0.084,0.053,-0.003,-7.8,4.4,-11,0,2018,4,25,16,36,46.64,0.2327,-0.138,-0.7791,0.5653
0.076,0.114,-0.001,-6.5,3,-8.1,0,2018,4,25,16,36,46.679,0.2322,-0.1404,-0.7783,0.5661
0.072,0.098,-0.048,-6.9,-3.1,-3.7,0,2018,4,25,16,36,46.699,0.2319,-0.1422,-0.7782,0.5659
0.074,0.058,-0.115,-6.9,-6.1,2,0,2018,4,25,16,36,46.703,0.2323,-0.1435,-0.7786,0.5648
0.059,-0.022,-0.161,-5.9,-4,5.5,0,2018,4,25,16,36,46.719,0.2335,-0.1437,-0.779,0.5637
0.051,-0.081,-0.168,-4.2,2.2,3.7,0,2018,4,25,16,36,46.757,0.2346,-0.1436,-0.779,0.5632
0.064,-0.047,-0.138,-2.4,3.7,-1.9,0,2018,4,25,16,36,46.777,0.2352,-0.1436,-0.7786,0.5637
0.07,0.018,-0.106,-1.4,-4.5,-6.7,0,2018,4,25,16,36,46.781,0.235,-0.1444,-0.7784,0.5638
0.064,0.007,-0.074,-1.8,-12.4,-10.1,0,2018,4,25,16,36,46.82,0.2335,-0.1466,-0.7794,0.5624
0.044,0.013,-0.03,-3.6,-12.7,-13.1,0,2018,4,25,16,36,46.839,0.2319,-0.1493,-0.7805,0.5609
0.044,0.02,-0.009,-6,-9.9,-15.4,0,2018,4,25,16,36,46.843,0.2304,-0.1526,-0.7811,0.5598
0.041,0.067,-0.015,-8.8,-10.1,-14.5,0,2018,4,25,16,36,46.862,0.2292,-0.1561,-0.7815,0.5588
0.023,0.055,-0.005,-12.8,-9.2,-10.3,0,2018,4,25,16,36,46.902,0.229,-0.1594,-0.7818,0.5574
0.001,0.025,0,-17.6,-6.6,-8.2,0,2018,4,25,16,36,46.921,0.2299,-0.1625,-0.7818,0.5562
-0.022,0.021,-0.014,-22.1,-5.4,-8.6,0,2018,4,25,16,36,46.925,0.2317,-0.1657,-0.7815,0.555
-0.043,0.062,-0.031,-26.1,-8.8,-8.2,0,2018,4,25,16,36,46.942,0.2342,-0.1693,-0.7811,0.5534
-0.046,0.112,-0.004,-31.4,-21.5,-5.7,0,2018,4,25,16,36,46.961,0.2374,-0.1733,-0.7815,0.5502
-0.055,0.133,0.059,-39.3,-32.9,-1.7,0,2018,4,25,16,36,46.981,0.2416,-0.1779,-0.7826,0.5453
-0.038,0.195,0.092,-49.4,-53.8,4.1,1023,2018,4,25,16,36,47.003,0.2472,-0.1833,-0.7848,0.5378
0.019,0.23,0.084,-60.9,-67.2,12.1,1023,2018,4,25,16,36,47.021,0.2542,-0.1896,-0.7883,0.5271
0.019,0.237,0.067,-70.2,-73.6,23.1,1023,2018,4,25,16,36,47.045,0.2629,-0.196,-0.7926,0.5139
-0.005,0.104,0.032,-79,-52.9,32,1023,2018,4,25,16,36,47.064,0.2737,-0.2016,-0.7959,0.5008
-0.008,0.049,0.047,-87.1,-18.2,36.6,1023,2018,4,25,16,36,47.102,0.2872,-0.2056,-0.796,0.4914
-0.026,0.079,0.008,-93.4,3.9,41.4,1023,2018,4,25,16,36,47.122,0.3032,-0.208,-0.7932,0.4852
-0.01,0.093,-0.04,-96.9,20.2,48.6,1023,2018,4,25,16,36,47.126,0.3207,-0.2089,-0.789,0.4805
0.055,0.187,-0.086,-97.1,42.4,58.5,1023,2018,4,25,16,36,47.165,0.3397,-0.2078,-0.7831,0.4776
0.004,0.231,-0.136,-95.3,46.9,69.2,1023,2018,4,25,16,36,47.185,0.3598,-0.2043,-0.7759,0.476
0.022,0.211,-0.181,-88.2,45.6,83.1,1023,2018,4,25,16,36,47.189,0.3802,-0.1988,-0.7689,0.474
0.033,0.104,-0.259,-78.6,50.1,94.6,1023,2018,4,25,16,36,47.203,0.4003,-0.1905,-0.7624,0.4712
-0.022,-0.109,-0.179,-68.5,86.3,99.5,1023,2018,4,25,16,36,47.222,0.42,-0.1788,-0.755,0.4706
0.033,-0.06,-0.034,-65.2,134.6,100,1023,2018,4,25,16,36,47.243,0.4396,-0.1632,-0.7439,0.476
0.019,0.202,0,-66.3,126.4,113.3,1023,2018,4,25,16,36,47.28,0.4606,-0.1442,-0.7303,0.4832
-0.013,0.311,-0.077,-65.2,81.7,127.6,1023,2018,4,25,16,36,47.302,0.4818,-0.1257,-0.719,0.4847
-0.027,0.275,-0.186,-59.2,33.9,139.7,0,2018,4,25,16,36,47.306,0.502,-0.1095,-0.7117,0.4788
-0.044,0.166,-0.219,-51.3,8,149.9,0,2018,4,25,16,36,47.327,0.5212,-0.0944,-0.7079,0.4671
-0.092,0.034,-0.203,-44.7,5.8,155.6,0,2018,4,25,16,36,47.345,0.5394,-0.0789,-0.7054,0.4528
-0.118,-0.062,-0.191,-41.3,20,157.9,0,2018,4,25,16,36,47.385,0.557,-0.0617,-0.7023,0.4388
-0.149,-0.076,-0.156,-40.2,34.1,158,0,2018,4,25,16,36,47.405,0.5742,-0.0427,-0.6976,0.4263
-0.152,-0.092,-0.12,-39.5,46.7,155.9,0,2018,4,25,16,36,47.409,0.5905,-0.0224,-0.6919,0.4146
-0.135,-0.105,-0.095,-38,64.8,152.7,0,2018,4,25,16,36,47.427,0.6057,-0.0008,-0.6849,0.4048
-0.108,-0.121,-0.087,-35.2,87.5,149,0,2018,4,25,16,36,47.446,0.6198,0.0225,-0.6761,0.3976
-0.192,-0.178,-0.065,-30.1,110.4,143.7,0,2018,4,25,16,36,47.467,0.6325,0.048,-0.6653,0.3935
-0.275,-0.207,-0.056,-23.9,126.5,129.8,0,2018,4,25,16,36,47.485,0.6431,0.0749,-0.6532,0.3923
-0.231,-0.183,-0.075,-15.2,125.4,111.7,0,2018,4,25,16,36,47.506,0.6509,0.1013,-0.6411,0.3934
-0.165,-0.172,-0.096,-4.6,108.1,90.1,0,2018,4,25,16,36,47.526,0.6565,0.1251,-0.6301,0.3952
-0.101,-0.192,-0.08,6.3,86.4,67.1,0,2018,4,25,16,36,47.544,0.6595,0.1448,-0.6217,0.3968
-0.098,-0.231,-0.051,13.8,69.9,43.9,0,2018,4,25,16,36,47.585,0.6601,0.1604,-0.6161,0.3985
-0.067,-0.235,-0.033,19.1,55.9,20.6,0,2018,4,25,16,36,47.605,0.6587,0.1722,-0.6127,0.4011
-0.038,-0.237,-0.03,22.4,44.6,0.6,0,2018,4,25,16,36,47.609,0.6556,0.1804,-0.6113,0.4046
-0.001,-0.235,-0.027,24.1,37.5,-15.4,0,2018,4,25,16,36,47.647,0.6512,0.1858,-0.6114,0.4091
0.007,-0.232,-0.012,24.5,35.8,-27.9,0,2018,4,25,16,36,47.667,0.6458,0.1893,-0.6123,0.4147
0.011,-0.211,0.007,23.5,37,-37.8,1023,2018,4,25,16,36,47.671,0.6396,0.1916,-0.6134,0.4216
0.018,-0.182,0.015,21.9,37,-45.4,1023,2018,4,25,16,36,47.686,0.6328,0.1929,-0.6146,0.4294
0.025,-0.149,0.023,20.3,35.6,-51,1023,2018,4,25,16,36,47.725,0.6253,0.1925,-0.616,0.4385
0.021,-0.112,0.032,18,33.6,-54.9,1023,2018,4,25,16,36,47.747,0.6176,0.1911,-0.6173,0.4481
0.01,-0.08,0.039,15.7,31.4,-57.5,1023,2018,4,25,16,36,47.751,0.6101,0.1891,-0.6183,0.4578
-0.003,-0.052,0.041,13,28.3,-59,1023,2018,4,25,16,36,47.769,0.6028,0.1865,-0.6192,0.4672
-0.021,-0.02,0.047,10.2,24.6,-60,1023,2018,4,25,16,36,47.788,0.5958,0.1835,-0.6199,0.4762
-0.021,0.01,0.043,7.7,19.9,-59.6,1023,2018,4,25,16,36,47.81,0.5894,0.1801,-0.6206,0.4847
-0.024,0.032,0.03,4.9,15,-58.9,1023,2018,4,25,16,36,47.828,0.5834,0.1761,-0.6213,0.4924
-0.019,0.06,0.027,2.7,10.5,-57.3,1023,2018,4,25,16,36,47.849,0.5779,0.1718,-0.622,0.4994
-0.024,0.076,0.014,0.8,7.3,-54.8,1023,2018,4,25,16,36,47.87,0.5729,0.1672,-0.6228,0.5057
-0.038,0.095,0.008,-0.5,4.9,-51.1,1023,2018,4,25,16,36,47.907,0.5685,0.1627,-0.6235,0.5113
-0.041,0.112,0.005,-1.9,2.7,-46.7,1023,2018,4,25,16,36,47.928,0.5647,0.1584,-0.6241,0.5161
-0.024,0.123,-0.008,-3,1.4,-40.9,1023,2018,4,25,16,36,47.932,0.5615,0.1545,-0.6246,0.5201
-0.013,0.131,-0.011,-3.2,0.8,-34,1023,2018,4,25,16,36,47.971,0.559,0.1512,-0.625,0.5233
-0.009,0.136,-0.019,-3.1,1,-26.2,0,2018,4,25,16,36,47.976,0.5571,0.1487,-0.6252,0.5258
0.005,0.142,-0.019,-2.6,1.3,-18.5,0,2018,4,25,16,36,47.991,0.5559,0.1472,-0.6252,0.5275
0.023,0.14,-0.02,-1.6,2.7,-10,0,2018,4,25,16,36,48.009,0.5553,0.1466,-0.625,0.5285
0.03,0.133,-0.022,-0.8,4.5,-1.1,0,2018,4,25,16,36,48.03,0.5553,0.1471,-0.6245,0.5289
0.012,0.127,-0.022,-0.5,5.8,7.8,0,2018,4,25,16,36,48.05,0.556,0.1488,-0.6238,0.5286
0.009,0.124,-0.026,-1,5.5,15.6,0,2018,4,25,16,36,48.071,0.5575,0.1514,-0.6227,0.5275
0.014,0.114,-0.025,-1.6,3.7,22.6,0,2018,4,25,16,36,48.11,0.5597,0.1547,-0.6216,0.5256
0.016,0.092,-0.027,-1.6,2.5,28.6,0,2018,4,25,16,36,48.132,0.5625,0.1583,-0.6204,0.5229
0.008,0.074,-0.026,-2.1,1.5,33.6,0,2018,4,25,16,36,48.136,0.5657,0.1623,-0.6192,0.5197
0.004,0.053,-0.022,-2.7,0.8,37.8,0,2018,4,25,16,36,48.155,0.5694,0.1665,-0.6178,0.516
0.007,0.036,-0.027,-2.9,0,41.5,0,2018,4,25,16,36,48.174,0.5734,0.171,-0.6163,0.5118
0.008,0.012,-0.024,-3.2,-0.5,44.3,0,2018,4,25,16,36,48.195,0.5775,0.1755,-0.6149,0.5074
0.001,-0.01,-0.024,-3.3,-0.1,46.4,0,2018,4,25,16,36,48.212,0.5818,0.1801,-0.6133,0.5028
-0.008,-0.025,-0.021,-4,-0.2,46.8,0,2018,4,25,16,36,48.231,0.5861,0.1847,-0.6116,0.4981
-0.009,-0.038,-0.023,-4.6,-1.8,46,0,2018,4,25,16,36,48.252,0.5904,0.189,-0.61,0.4934
-0.005,-0.062,-0.03,-4.5,-3,44.2,0,2018,4,25,16,36,48.271,0.5945,0.1929,-0.6086,0.4887
-0.001,-0.08,-0.027,-4.2,-3.3,41.4,0,2018,4,25,16,36,48.292,0.5983,0.1963,-0.6073,0.4842
-0.003,-0.097,-0.019,-3.9,-3.2,37.9,0,2018,4,25,16,36,48.312,0.6017,0.1993,-0.6062,0.4801
-0.002,-0.109,-0.025,-3.5,-3.2,33.6,0,2018,4,25,16,36,48.332,0.6047,0.2018,-0.6052,0.4765
0.008,-0.115,-0.03,-3,-3.1,28.2,1023,2018,4,25,16,36,48.37,0.6072,0.2038,-0.6045,0.4734
0.007,-0.125,-0.027,-2.3,-3.2,22.2,1023,2018,4,25,16,36,48.393,0.609,0.2052,-0.6041,0.471
0.005,-0.126,-0.025,-1.6,-3.5,15.9,1023,2018,4,25,16,36,48.397,0.6103,0.2059,-0.604,0.4691
0.004,-0.125,-0.026,-0.9,-3.6,9.8,1023,2018,4,25,16,36,48.415,0.611,0.206,-0.6043,0.4679
0.009,-0.124,-0.03,-0.2,-3.6,3.4,1023,2018,4,25,16,36,48.453,0.6111,0.2055,-0.6048,0.4673
0.013,-0.118,-0.024,0.7,-3.3,-1.9,1023,2018,4,25,16,36,48.457,0.6106,0.2044,-0.6056,0.4673
0.004,-0.107,-0.02,1.3,-3.2,-6.7,1023,2018,4,25,16,36,48.473,0.6097,0.203,-0.6067,0.4678
0.011,-0.093,-0.022,1.9,-3.3,-11,1023,2018,4,25,16,36,48.494,0.6084,0.2012,-0.6079,0.4688
0.014,-0.081,-0.026,2.5,-3,-14.7,1023,2018,4,25,16,36,48.514,0.6067,0.1991,-0.6092,0.4701
0.01,-0.068,-0.025,3,-2.5,-17.8,1023,2018,4,25,16,36,48.535,0.6047,0.1968,-0.6107,0.4717
0.009,-0.058,-0.02,3.6,-1.5,-20.3,1023,2018,4,25,16,36,48.555,0.6025,0.1944,-0.6122,0.4736
0.018,-0.042,-0.018,4.2,-0.3,-22.1,1023,2018,4,25,16,36,48.594,0.6,0.192,-0.6137,0.4757
0.008,-0.03,-0.014,4.6,0.1,-23.2,1023,2018,4,25,16,36,48.615,0.5974,0.1897,-0.6152,0.4781
0,-0.021,-0.017,5.2,0.5,-23.5,1023,2018,4,25,16,36,48.619,0.5947,0.1875,-0.6166,0.4804
-0.001,-0.009,-0.004,5.5,1.4,-23.3,1023,2018,4,25,16,36,48.637,0.5919,0.1854,-0.618,0.4828
0,0.001,-0.002,5.7,2.6,-23,1023,2018,4,25,16,36,48.673,0.5893,0.1836,-0.6192,0.4852
0,0.007,-0.001,6.4,4.4,-22.4,0,2018,4,25,16,36,48.693,0.5866,0.1821,-0.6203,0.4878
-0.002,0.015,0,6.5,6.2,-21.7,0,2018,4,25,16,36,48.697,0.5839,0.1808,-0.6211,0.4904
-0.001,0.029,0.004,6.4,7.3,-20.4,0,2018,4,25,16,36,48.736,0.5812,0.18,-0.6218,0.493
0.008,0.037,0.008,6,7.6,-18.3,0,2018,4,25,16,36,48.741,0.5788,0.1794,-0.6222,0.4954
0.007,0.042,0.005,5.3,7.5,-15.9,0,2018,4,25,16,36,48.758,0.5767,0.179,-0.6225,0.4977
0.005,0.05,0.009,4.4,6.4,-12.8,0,2018,4,25,16,36,48.776,0.5749,0.1789,-0.6226,0.4996
0.002,0.052,0.01,3.3,5.6,-9.6,0,2018,4,25,16,36,48.795,0.5736,0.1789,-0.6227,0.5011
0.008,0.051,0.003,2.5,5,-6.1,0,2018,4,25,16,36,48.815,0.5727,0.1791,-0.6226,0.5022
0,0.05,0.004,1.4,4.7,-2.8,0,2018,4,25,16,36,48.853,0.5721,0.1796,-0.6224,0.5029
-0.002,0.047,-0.003,0.6,3.7,0,0,2018,4,25,16,36,48.875,0.572,0.1804,-0.622,0.5032
0,0.043,-0.004,0.3,2.9,2.5,0,2018,4,25,16,36,48.879,0.5722,0.1812,-0.6216,0.5032
0.001,0.037,-0.007,0,3,4.8,0,2018,4,25,16,36,48.9,0.5726,0.1822,-0.6212,0.5029
-0.003,0.028,-0.006,-0.3,3.5,7,0,2018,4,25,16,36,48.92,0.5731,0.1834,-0.6206,0.5025
0,0.024,-0.006,-0.8,3.3,8.7,0,2018,4,25,16,36,48.936,0.5739,0.1847,-0.62,0.502
0,0.019,-0.012,-1.1,2.6,10,0,2018,4,25,16,36,48.975,0.5747,0.1861,-0.6194,0.5012
0,0.014,-0.01,-1.5,1.6,10.9,0,2018,4,25,16,36,48.994,0.5757,0.1875,-0.6188,0.5003
-0.002,0.008,-0.015,-1.8,0.7,11.6,0,2018,4,25,16,36,48.999,0.5769,0.1888,-0.6182,0.4992
0,0,-0.019,-1.9,0.3,12.3,1023,2018,4,25,16,36,49.017,0.5781,0.19,-0.6177,0.498
0.004,-0.008,-0.02,-2,-0.4,12.5,1023,2018,4,25,16,36,49.036,0.5793,0.1912,-0.6172,0.4968
0.001,-0.012,-0.021,-2,-1.1,12.2,1023,2018,4,25,16,36,49.071,0.5804,0.1922,-0.6168,0.4955
0.006,-0.021,-0.021,-1.7,-1.5,11.4,1023,2018,4,25,16,36,49.092,0.5815,0.1931,-0.6165,0.4942
0.003,-0.025,-0.015,-1.6,-1.3,10.4,1023,2018,4,25,16,36,49.1,0.5825,0.1939,-0.6163,0.493
0.008,-0.025,-0.023,-1.3,-1.3,9,1023,2018,4,25,16,36,49.119,0.5833,0.1945,-0.6162,0.492
0.007,-0.032,-0.021,-1,-1.5,7.5,1023,2018,4,25,16,36,49.14,0.5839,0.195,-0.6162,0.4911
0.009,-0.033,-0.021,-0.6,-1.8,5.9,1023,2018,4,25,16,36,49.176,0.5844,0.1953,-0.6163,0.4903
0.007,-0.037,-0.02,-0.1,-2.1,4.5,1023,2018,4,25,16,36,49.195,0.5847,0.1954,-0.6165,0.4897
-0.001,-0.035,-0.02,0,-2.1,2.6,1023,2018,4,25,16,36,49.202,0.5848,0.1953,-0.6167,0.4891
0.004,-0.037,-0.029,0.5,-1.8,0.7,1023,2018,4,25,16,36,49.222,0.5848,0.1951,-0.6171,0.4888
0.006,-0.037,-0.023,1.2,-0.4,-0.9,1023,2018,4,25,16,36,49.242,0.5844,0.1949,-0.6176,0.4888
-0.007,-0.032,-0.014,1.4,-0.5,-2.1,1023,2018,4,25,16,36,49.26,0.5839,0.1945,-0.618,0.4889
-0.004,-0.028,-0.015,1.6,-1.8,-3.2,1023,2018,4,25,16,36,49.279,0.5834,0.1941,-0.6185,0.489
0.009,-0.027,-0.006,2.2,-2.4,-4.2,1023,2018,4,25,16,36,49.318,0.5828,0.1935,-0.6192,0.4892
0.023,-0.028,-0.006,2.8,-1.2,-5.6,0,2018,4,25,16,36,49.338,0.5819,0.1928,-0.62,0.4895
0.022,-0.025,0,3.6,0.1,-6.7,0,2018,4,25,16,36,49.342,0.5809,0.1921,-0.6206,0.4902
0.014,-0.021,0,3.9,1.1,-7.5,0,2018,4,25,16,36,49.361,0.5798,0.1915,-0.6213,0.491
0.012,-0.016,0,3.4,1.1,-7.6,0,2018,4,25,16,36,49.379,0.5786,0.191,-0.6218,0.4919
0.012,-0.012,0.009,3,0.5,-7.6,0,2018,4,25,16,36,49.417,0.5774,0.1904,-0.6223,0.4928
0.011,-0.013,0.011,2.2,-3.8,-7.9,0,2018,4,25,16,36,49.438,0.5765,0.1895,-0.6229,0.4934
0,-0.017,0.006,2.1,-14.9,-9.6,0,2018,4,25,16,36,49.442,0.5758,0.1877,-0.6242,0.4934
-0.003,-0.031,0.007,2.4,-26,-12.5,0,2018,4,25,16,36,49.482,0.5752,0.1844,-0.6266,0.4923
-0.01,-0.054,0.006,3.6,-36.4,-17,0,2018,4,25,16,36,49.487,0.5744,0.1796,-0.6302,0.4903
0,-0.088,-0.003,4.6,-42.2,-21.8,0,2018,4,25,16,36,49.503,0.5733,0.1733,-0.6348,0.488
0.015,-0.091,-0.016,6.4,-43,-27,0,2018,4,25,16,36,49.521,0.5714,0.1662,-0.64,0.4859
0.028,-0.101,-0.042,9.2,-42.3,-31.1,0,2018,4,25,16,36,49.56,0.5687,0.1587,-0.6456,0.4841
0.041,-0.1,-0.047,12.5,-39.6,-33,0,2018,4,25,16,36,49.579,0.5651,0.1512,-0.6516,0.4827
0.039,-0.097,-0.037,17.4,-14.1,-38.1,0,2018,4,25,16,36,49.583,0.5556,0.1386,-0.6618,0.4837
0.026,-0.027,-0.033,19.6,-19,-38.9,0,2018,4,25,16,36,49.604,0.55,0.1339,-0.6662,0.4853
0.01,-0.05,-0.009,21,-26,-40.1,0,2018,4,25,16,36,49.624,0.5445,0.1285,-0.6712,0.486
0.004,-0.036,-0.021,22.8,-35.7,-42.9,0,2018,4,25,16,36,49.662,0.5388,0.1222,-0.677,0.4861
0.011,-0.032,-0.039,25.9,-47.8,-44.9,0,2018,4,25,16,36,49.684,0.5327,0.1149,-0.6841,0.4846
0.004,-0.043,-0.048,29.9,-55.4,-47.6,1023,2018,4,25,16,36,49.689,0.5261,0.1067,-0.6923,0.4821
-0.008,-0.006,-0.064,34.7,-71.8,-50.4,1023,2018,4,25,16,36,49.702,0.5187,0.0976,-0.7019,0.4781
-0.008,-0.035,-0.032,37.7,-83,-51.5,1023,2018,4,25,16,36,49.724,0.511,0.0872,-0.7128,0.4722
-0.001,-0.081,-0.032,39.9,-82.5,-53.5,1023,2018,4,25,16,36,49.744,0.5026,0.0762,-0.724,0.4661
0.021,-0.093,-0.076,40.9,-72.3,-52.4,1023,2018,4,25,16,36,49.764,0.4935,0.0655,-0.7349,0.4604
0.02,-0.053,-0.093,43.9,-60.2,-51.3,1023,2018,4,25,16,36,49.784,0.4838,0.0561,-0.7449,0.4559
0.013,-0.065,-0.104,49.1,-48.3,-51.8,1023,2018,4,25,16,36,49.823,0.4733,0.0483,-0.754,0.4526
-0.027,-0.105,-0.03,52.7,-37.4,-55,1023,2018,4,25,16,36,49.843,0.462,0.0414,-0.7624,0.4509
-0.045,-0.043,0.018,52.6,-32.9,-57.6,1023,2018,4,25,16,36,49.847,0.4507,0.0351,-0.7696,0.4507
-0.039,-0.054,0.003,51.6,-36,-58.6,1023,2018,4,25,16,36,49.866,0.4394,0.0286,-0.7767,0.4503
-0.046,-0.02,-0.005,51.8,-36.5,-58.4,1023,2018,4,25,16,36,49.885,0.4279,0.022,-0.7836,0.4498
-0.028,-0.034,0.009,53.6,-39.8,-58.7,1023,2018,4,25,16,36,49.905,0.4164,0.0153,-0.7906,0.4485
-0.016,-0.099,0.067,55.1,-28.2,-57.9,1023,2018,4,25,16,36,49.928,0.4044,0.0088,-0.7971,0.4482
-0.032,-0.114,0.059,53.5,-0.5,-55.5,0,2018,4,25,16,36,49.948,0.3925,0.0037,-0.8015,0.4509
-0.052,-0.051,-0.005,52.9,34,-48.7,0,2018,4,25,16,36,49.968,0.3811,0.0016,-0.8034,0.4573
-0.027,-0.007,-0.088,58.7,82.6,-38.8,0,2018,4,25,16,36,49.99,0.3696,0.0039,-0.8025,0.4683
-0.069,0.036,-0.106,68.8,116.3,-35.4,0,2018,4,25,16,36,50.005,0.3574,0.011,-0.7984,0.4843
-0.119,0.054,-0.014,72.8,126.2,-35.1,0,2018,4,25,16,36,50.043,0.3445,0.0204,-0.7926,0.5025
-0.063,0.134,0.028,71.1,130.6,-33.1,0,2018,4,25,16,36,50.063,0.3318,0.0306,-0.7854,0.5215
0.007,0.244,0.088,66,110.9,-27.9,0,2018,4,25,16,36,50.068,0.319,0.0399,-0.7781,0.5394
0.085,0.224,0.138,57.9,82.6,-21.3,0,2018,4,25,16,36,50.086,0.3076,0.0477,-0.7726,0.5532
0.132,0.187,0.08,48.8,53,-12,0,2018,4,25,16,36,50.124,0.2985,0.0543,-0.7686,0.5631
0.096,-0.054,-0.061,43.7,51.7,-6.3,0,2018,4,25,16,36,50.146,0.2905,0.0597,-0.7664,0.5697
0.082,-0.169,-0.067,43.1,78.3,-7,0,2018,4,25,16,36,50.15,0.2833,0.0665,-0.7621,0.5782
0.072,-0.147,-0.064,41.3,95.8,-10.8,0,2018,4,25,16,36,50.17,0.2755,0.0738,-0.7553,0.59
0.061,-0.067,-0.092,40.3,90.5,-13.5,0,2018,4,25,16,36,50.188,0.2668,0.0803,-0.7479,0.6024
0.055,-0.094,-0.131,40.4,76.2,-15.9,0,2018,4,25,16,36,50.209,0.2588,0.0865,-0.7412,0.6132
0.046,-0.17,-0.166,44.4,80.7,-18.7,0,2018,4,25,16,36,50.225,0.2503,0.0922,-0.735,0.6233
0.022,-0.125,-0.182,51,80.9,-22.3,0,2018,4,25,16,36,50.265,0.2405,0.0984,-0.7284,0.6339
0.031,-0.101,-0.165,56.3,71.7,-23.8,0,2018,4,25,16,36,50.284,0.2298,0.1045,-0.7225,0.6435
0.044,-0.078,-0.162,61.2,70.5,-24.2,0,2018,4,25,16,36,50.288,0.2183,0.1109,-0.7173,0.6522
0.002,-0.042,-0.129,66.7,71.2,-24.1,1023,2018,4,25,16,36,50.308,0.206,0.1179,-0.7122,0.6605
0.015,-0.029,-0.132,71.1,75.3,-23.2,1023,2018,4,25,16,36,50.328,0.1928,0.1255,-0.7075,0.6681
0.029,0.027,-0.1,75.6,78.5,-22.4,1023,2018,4,25,16,36,50.369,0.1789,0.1339,-0.7022,0.6759
0.02,0.078,-0.087,78.8,75.8,-20.5,1023,2018,4,25,16,36,50.389,0.1649,0.1429,-0.6966,0.6834
-0.032,0.075,-0.054,81,69.5,-17.1,1023,2018,4,25,16,36,50.393,0.1512,0.1526,-0.6911,0.69
-0.049,0.034,0.01,81.4,69.4,-14.8,1023,2018,4,25,16,36,50.412,0.138,0.1628,-0.6853,0.6962
-0.033,0.021,-0.002,77.4,69.5,-11.4,1023,2018,4,25,16,36,50.431,0.1252,0.1729,-0.6788,0.7025
-0.044,-0.01,-0.071,74.1,68.9,-5,1023,2018,4,25,16,36,50.452,0.1133,0.1829,-0.6723,0.7082
-0.063,-0.048,-0.077,74.2,67.2,-0.1,1023,2018,4,25,16,36,50.486,0.1023,0.1936,-0.6658,0.7132
-0.064,-0.088,-0.016,74.6,62,0.2,1023,2018,4,25,16,36,50.491,0.0917,0.2043,-0.6593,0.7177
-0.052,-0.074,0.033,72.1,62,-1.5,0,2018,4,25,16,36,50.508,0.081,0.2145,-0.6526,0.7221
-0.075,-0.05,0,68.7,58.1,-4.2,0,2018,4,25,16,36,50.546,0.0706,0.224,-0.6458,0.7264
-0.061,-0.026,-0.055,68.3,56.9,-4.1,0,2018,4,25,16,36,50.566,0.0604,0.2333,-0.6395,0.7299
-0.027,0.032,-0.031,72.9,57.1,-5.4,0,2018,4,25,16,36,50.57,0.0499,0.2427,-0.6333,0.733
0.098,0.116,0.03,80.6,57,-7,0,2018,4,25,16,36,50.591,0.0381,0.2522,-0.6268,0.7361
0.154,0.15,0.057,86.5,54.6,-5.7,0,2018,4,25,16,36,50.61,0.0253,0.2621,-0.6202,0.7388
0.176,0.169,0.032,88.1,49.7,-0.3,0,2018,4,25,16,36,50.648,0.0129,0.2733,-0.6139,0.7404
0.14,0.112,-0.033,87.2,42.7,10.2,0,2018,4,25,16,36,50.668,0.0013,0.2845,-0.6079,0.7412
0.075,0.047,-0.065,87.1,39.4,21.1,0,2018,4,25,16,36,50.673,-0.0085,0.2975,-0.6023,0.7406
0.084,-0.014,-0.08,91,39.2,27.7,0,2018,4,25,16,36,50.693,-0.0176,0.3116,-0.5965,0.7394
0.099,-0.063,-0.078,96.3,48.2,31,0,2018,4,25,16,36,50.711,-0.0263,0.3268,-0.5891,0.7385
0.102,-0.025,-0.063,102.2,61.6,32.8,0,2018,4,25,16,36,50.728,-0.0363,0.3423,-0.58,0.7382
0.115,0.026,-0.083,106.7,64.4,37.1,0,2018,4,25,16,36,50.77,-0.0466,0.3584,-0.5696,0.7381
0.141,0.029,-0.114,112.3,70.6,42.6,0,2018,4,25,16,36,50.79,-0.0562,0.3757,-0.5574,0.7381
0.123,-0.008,-0.089,115.7,85.9,47,0,2018,4,25,16,36,50.794,-0.0663,0.3938,-0.5431,0.7385
0.097,0.016,-0.063,115.6,98.1,46.9,0,2018,4,25,16,36,50.812,-0.0779,0.4119,-0.5266,0.7395
0.08,0.076,-0.065,111.9,94.9,47,0,2018,4,25,16,36,50.851,-0.0896,0.4294,-0.5095,0.7402
0.054,0.139,-0.101,106.3,84.6,49.1,0,2018,4,25,16,36,50.872,-0.0997,0.4466,-0.4928,0.74
0.062,0.163,-0.153,99.7,71.2,51.1,0,2018,4,25,16,36,50.875,-0.1079,0.4629,-0.477,0.7392
0.042,0.099,-0.18,94.6,72.9,51.4,0,2018,4,25,16,36,50.893,-0.1149,0.4782,-0.4619,0.7379
0,0.095,-0.189,90.4,92.4,48.9,1023,2018,4,25,16,36,50.914,-0.1228,0.4924,-0.4451,0.7377
-0.02,0.141,-0.187,86.9,112.5,44,1023,2018,4,25,16,36,50.93,-0.1325,0.5051,-0.4257,0.7389
-0.055,0.25,-0.186,81.1,118.4,40.1,1023,2018,4,25,16,36,50.963,-0.1437,0.5161,-0.4048,0.7409
-0.077,0.356,-0.193,75.1,103.6,36.6,1023,2018,4,25,16,36,50.97,-0.1543,0.5259,-0.3848,0.7426
-0.103,0.351,-0.232,70.8,83.3,32.8,1023,2018,4,25,16,36,51.007,-0.1631,0.5351,-0.3675,0.7428
-0.133,0.323,-0.231,67.6,69.4,29.6,1023,2018,4,25,16,36,51.028,-0.1706,0.5438,-0.3527,0.742
-0.183,0.259,-0.178,60.2,56.9,27.8,1023,2018,4,25,16,36,51.031,-0.1767,0.5519,-0.3399,0.7405
-0.18,0.191,-0.181,51.5,51,27.6,1023,2018,4,25,16,36,51.051,-0.1815,0.5591,-0.3286,0.7391
-0.108,0.167,-0.171,48.8,51.7,25.7,1023,2018,4,25,16,36,51.073,-0.1859,0.5653,-0.3178,0.738
-0.043,0.182,-0.15,49.6,49.4,23.5,1023,2018,4,25,16,36,51.092,-0.1904,0.5713,-0.3072,0.7367
-0.052,0.201,-0.122,49.3,43.9,21.7,1023,2018,4,25,16,36,51.112,-0.1948,0.5773,-0.2973,0.735
-0.078,0.174,-0.136,47.2,38.6,21.9,1023,2018,4,25,16,36,51.152,-0.1986,0.5832,-0.2882,0.7329
-0.101,0.12,-0.169,44.7,41.9,21.5,1023,2018,4,25,16,36,51.172,-0.2021,0.5888,-0.2793,0.7309
-0.147,0.102,-0.145,42.8,50.5,18.6,1023,2018,4,25,16,36,51.176,-0.2065,0.5937,-0.2698,0.7293
-0.203,0.12,-0.105,39.3,55.9,13.1,1023,2018,4,25,16,36,51.197,-0.212,0.5977,-0.2597,0.7281
-0.214,0.167,-0.08,33.9,56.4,8.3,1023,2018,4,25,16,36,51.219,-0.2182,0.6007,-0.2501,0.7272
-0.237,0.211,-0.095,25.8,51.2,6.3,0,2018,4,25,16,36,51.233,-0.2242,0.6027,-0.2413,0.7267
-0.276,0.223,-0.079,18,45.4,6.3,0,2018,4,25,16,36,51.271,-0.2294,0.6038,-0.2337,0.7266
-0.262,0.188,-0.064,13.9,42.8,3.4,0,2018,4,25,16,36,51.292,-0.234,0.6042,-0.227,0.727
-0.223,0.176,-0.041,12.2,40.4,-1.1,0,2018,4,25,16,36,51.296,-0.2387,0.6042,-0.2211,0.7273
-0.196,0.196,-0.019,9.9,35.6,-4.8,0,2018,4,25,16,36,51.333,-0.2436,0.6038,-0.2161,0.7274
-0.159,0.156,-0.042,8.1,26.9,-7.8,0,2018,4,25,16,36,51.355,-0.248,0.6034,-0.2125,0.7274
-0.126,0.093,-0.071,10.5,27.3,-11.5,0,2018,4,25,16,36,51.358,-0.2523,0.6031,-0.2098,0.727
-0.112,0.066,-0.058,14.7,34.6,-16.7,0,2018,4,25,16,36,51.375,-0.2579,0.6027,-0.2067,0.7261
-0.053,0.082,-0.042,19.4,36.2,-24,0,2018,4,25,16,36,51.395,-0.2642,0.6032,-0.2029,0.7246
-0.006,0.086,-0.05,22.4,35.1,-31.8,0,2018,4,25,16,36,51.418,-0.2716,0.6037,-0.1998,0.7223
-0.004,0.109,-0.081,22.8,35.9,-40.6,0,2018,4,25,16,36,51.437,-0.2801,0.6042,-0.1976,0.7192
-0.008,0.104,-0.135,23.8,37.1,-50.2,0,2018,4,25,16,36,51.453,-0.2904,0.6038,-0.1967,0.7157
-0.061,0.092,-0.139,23.3,44.1,-59.9,0,2018,4,25,16,36,51.493,-0.3024,0.6027,-0.1962,0.7118
-0.151,0.081,-0.14,20.1,45.8,-71.7,0,2018,4,25,16,36,51.515,-0.3161,0.6007,-0.1963,0.7074
-0.237,0.027,-0.179,15,46,-82.6,0,2018,4,25,16,36,51.52,-0.331,0.5977,-0.1978,0.7028
-0.306,0.033,-0.19,9.5,51.2,-92,0,2018,4,25,16,36,51.537,-0.3473,0.5932,-0.2002,0.698
-0.327,0.031,-0.169,4.1,53,-99.4,1023,2018,4,25,16,36,51.558,-0.3645,0.5874,-0.2034,0.6932
-0.346,0.143,-0.126,-2.2,48.7,-104,1023,2018,4,25,16,36,51.578,-0.3822,0.5804,-0.2074,0.6883
-0.316,0.191,-0.123,-11,25.5,-102.8,1023,2018,4,25,16,36,51.599,-0.3982,0.5732,-0.2139,0.6833
-0.274,0.076,-0.164,-18.2,6.3,-97.4,1023,2018,4,25,16,36,51.619,-0.4109,0.5666,-0.2232,0.6783
-0.252,-0.098,-0.206,-21.1,8.4,-93.8,1023,2018,4,25,16,36,51.639,-0.4219,0.56,-0.2334,0.6736
-0.238,-0.217,-0.184,-22.8,26.6,-93.7,1023,2018,4,25,16,36,51.661,-0.4337,0.5522,-0.242,0.6695
-0.156,-0.206,-0.123,-25.1,44.5,-93.4,1023,2018,4,25,16,36,51.679,-0.4471,0.5426,-0.2486,0.6661
-0.096,-0.084,-0.084,-28.8,47.3,-89.2,0,2018,4,25,16,36,51.7,-0.4608,0.5322,-0.2538,0.6632
0,0.02,-0.07,-31.6,30.9,-81.1,0,2018,4,25,16,36,51.716,-0.4724,0.5223,-0.2596,0.6606
0.111,-0.011,-0.069,-30.6,21.3,-76.9,0,2018,4,25,16,36,51.753,-0.4823,0.5132,-0.2671,0.6576
0.226,0.006,-0.044,-26.6,22.2,-75.3,0,2018,4,25,16,36,51.772,-0.4916,0.5046,-0.274,0.6546
0.276,-0.023,-0.005,-18.1,40.5,-74,0,2018,4,25,16,36,51.776,-0.5016,0.4958,-0.279,0.6516
0.273,-0.001,0.057,-8.3,77.2,-73.8,0,2018,4,25,16,36,51.816,-0.5144,0.4854,-0.2796,0.6491
0.261,0.102,0.078,-0.8,96.4,-74.9,0,2018,4,25,16,36,51.835,-0.5302,0.4731,-0.2761,0.647
0.203,0.236,0.095,0.3,77.8,-72.1,0,2018,4,25,16,36,51.839,-0.5458,0.4613,-0.272,0.6444
0.146,0.21,0.084,-1,48.9,-68.8,0,2018,4,25,16,36,51.86,-0.5586,0.4518,-0.2707,0.6406
0.085,0.159,0.089,-6.9,20.8,-65.4,0,2018,4,25,16,36,51.881,-0.5685,0.445,-0.2726,0.6358
0.017,0.033,0.064,-14.1,15.6,-66.2,0,2018,4,25,16,36,51.917,-0.5767,0.4387,-0.2766,0.6311
-0.021,-0.021,-0.033,-23.4,20.4,-66.5,0,2018,4,25,16,36,51.935,-0.5845,0.4314,-0.2816,0.6267
-0.006,-0.079,-0.162,-26.7,25.5,-66.7,0,2018,4,25,16,36,51.94,-0.5919,0.4236,-0.2871,0.6227
0.005,-0.127,-0.162,-24.5,28.6,-68.1,0,2018,4,25,16,36,51.958,-0.5998,0.4146,-0.2917,0.6189
-0.001,-0.184,-0.111,-19.1,37.6,-73.5,0,2018,4,25,16,36,51.997,-0.6086,0.4051,-0.2955,0.6148
0.028,-0.078,-0.082,-12.4,42.4,-80,0,2018,4,25,16,36,52.018,-0.6187,0.3955,-0.2988,0.6093
0.049,0.004,-0.089,-7.1,36.9,-82.6,0,2018,4,25,16,36,52.022,-0.6294,0.3863,-0.3019,0.6027
0.061,0.048,-0.103,-5.3,30.6,-81,0,2018,4,25,16,36,52.041,-0.6399,0.3778,-0.3053,0.5953
0.001,0,-0.084,-6.3,35.6,-78.9,0,2018,4,25,16,36,52.08,-0.6497,0.3696,-0.3086,0.5881
-0.039,0.051,-0.059,-9.8,47,-79,0,2018,4,25,16,36,52.1,-0.6598,0.3603,-0.3103,0.5817
-0.038,0.073,-0.044,-15.8,46.2,-77.2,0,2018,4,25,16,36,52.104,-0.6698,0.3495,-0.3116,0.5761
-0.059,0.053,-0.071,-20.7,40.9,-73.8,0,2018,4,25,16,36,52.123,-0.6788,0.3387,-0.3137,0.5709
-0.139,0.01,-0.086,-22.9,42.8,-70.8,1023,2018,4,25,16,36,52.143,-0.687,0.328,-0.3163,0.5659
-0.213,-0.012,-0.024,-26.6,54.8,-70,1023,2018,4,25,16,36,52.16,-0.6952,0.3158,-0.3184,0.5615
-0.196,0.061,0.01,-34.4,58.3,-69.8,1023,2018,4,25,16,36,52.181,-0.7035,0.3019,-0.3203,0.5578
-0.175,0.153,-0.013,-43.4,46.1,-66.8,1023,2018,4,25,16,36,52.201,-0.7107,0.2877,-0.3235,0.5543
-0.162,0.127,-0.033,-51.3,26.4,-60.6,1023,2018,4,25,16,36,52.219,-0.7159,0.2751,-0.3291,0.5508
-0.142,0.016,-0.021,-56.9,19.3,-55.6,1023,2018,4,25,16,36,52.241,-0.7192,0.2638,-0.3366,0.5474
-0.12,-0.101,0.03,-64.4,29.2,-58.1,1023,2018,4,25,16,36,52.281,-0.722,0.2518,-0.3446,0.5444
-0.066,-0.021,0.042,-71.5,40.5,-64.6,1023,2018,4,25,16,36,52.3,-0.7251,0.2374,-0.352,0.542
-0.029,0.095,-0.014,-78,34.7,-67.4,1023,2018,4,25,16,36,52.304,-0.7284,0.2212,-0.36,0.5392
-0.034,0.152,-0.063,-81.9,21.2,-65.4,1023,2018,4,25,16,36,52.323,-0.7308,0.2054,-0.3698,0.5355
-0.049,0.105,-0.089,-83.2,15,-62.6,1023,2018,4,25,16,36,52.361,-0.7321,0.1911,-0.3809,0.5313
-0.093,0.061,-0.062,-84.4,15.4,-62.5,1023,2018,4,25,16,36,52.381,-0.7327,0.1774,-0.392,0.5272
-0.089,0.027,-0.036,-87.6,26.8,-62.3,0,2018,4,25,16,36,52.385,-0.7329,0.163,-0.4025,0.5235
-0.027,0.086,-0.055,-89.9,29.5,-61.8,0,2018,4,25,16,36,52.406,-0.733,0.1468,-0.4128,0.5202
0.049,0.102,-0.045,-89.3,24.2,-61,0,2018,4,25,16,36,52.426,-0.7329,0.1301,-0.4235,0.5162
0.059,0.088,-0.053,-86.5,22.8,-61.3,0,2018,4,25,16,36,52.441,-0.7325,0.1138,-0.4344,0.5115
0.062,0.028,-0.029,-86.7,28,-62.5,0,2018,4,25,16,36,52.463,-0.7318,0.0976,-0.445,0.5067
0.089,0.027,0.032,-85.9,39.6,-64.3,0,2018,4,25,16,36,52.483,-0.7313,0.08,-0.4542,0.5023
0.111,0.041,0.071,-83,50.8,-66.4,0,2018,4,25,16,36,52.502,-0.7311,0.0608,-0.4618,0.4984
0.106,0.096,0.081,-77.7,52.3,-68.1,0,2018,4,25,16,36,52.522,-0.7312,0.0407,-0.4679,0.4945
0.117,0.049,0.113,-75.3,49.9,-69.3,0,2018,4,25,16,36,52.561,-0.7314,0.0218,-0.4735,0.4902
0.099,-0.003,0.134,-78,56.4,-73.5,0,2018,4,25,16,36,52.582,-0.7316,0.002,-0.4784,0.4855
0.04,0.075,0.089,-85.2,53.6,-76.2,0,2018,4,25,16,36,52.586,-0.7315,-0.0188,-0.4833,0.4805
1.283,-0.257,0.254,-47.5,56.4,-80.6,0,2018,4,25,16,36,52.606,-0.7317,-0.038,-0.4878,0.4744
1.365,-0.697,0.428,7.5,136.5,-97.8,0,2018,4,25,16,36,52.626,-0.7371,-0.0587,-0.4808,0.471
-0.039,-0.039,0.531,-12.2,124.4,-119.2,0,2018,4,25,16,36,52.644,-0.7445,-0.0866,-0.467,0.469
-0.46,0.187,0.005,-58,6.9,-108.4,0,2018,4,25,16,36,52.662,-0.7499,-0.1064,-0.4651,0.458
-0.64,0.108,-0.246,-74.4,22,-96.8,0,2018,4,25,16,36,52.702,-0.7522,-0.1215,-0.471,0.4443
-0.191,0.277,-0.267,-85.9,3.3,-79.5,0,2018,4,25,16,36,52.723,-0.7517,-0.1374,-0.4786,0.4322
0.121,0.144,-0.214,-61.6,-36.2,-57.9,0,2018,4,25,16,36,52.727,-0.7509,-0.146,-0.4882,0.4198
0.204,0.026,-0.113,-36.8,-44.7,-44,0,2018,4,25,16,36,52.746,-0.7515,-0.1483,-0.4962,0.4085
0.114,-0.182,-0.131,-23.8,-29.1,-43.4,1023,2018,4,25,16,36,52.767,-0.753,-0.1487,-0.5017,0.3987
-0.039,-0.103,-0.166,-23,12.6,-48.4,1023,2018,4,25,16,36,52.785,-0.7544,-0.1535,-0.5039,0.3914
-0.042,0.058,-0.24,-21.7,29.1,-49.4,1023,2018,4,25,16,36,52.808,-0.7551,-0.1625,-0.504,0.3863
0.038,0.103,-0.26,-15,32,-43.9,1023,2018,4,25,16,36,52.845,-0.7557,-0.1719,-0.5031,0.3823
0.055,0.081,-0.178,-5.9,35.7,-36.5,1023,2018,4,25,16,36,52.866,-0.7564,-0.1806,-0.501,0.3796
0.083,0.029,-0.07,0.2,41.7,-30.9,1023,2018,4,25,16,36,52.87,-0.7568,-0.1893,-0.4983,0.3782
0.017,0.073,-0.021,3.3,41,-27.8,1023,2018,4,25,16,36,52.889,-0.7573,-0.1981,-0.4944,0.3777
0.016,0.065,-0.033,4.1,36.1,-24.2,1023,2018,4,25,16,36,52.91,-0.758,-0.2057,-0.4906,0.3772
-0.053,0.048,-0.024,3.8,34.1,-18.7,1023,2018,4,25,16,36,52.925,-0.7586,-0.2124,-0.4868,0.3773
-0.026,0.027,-0.022,3,31.5,-11,1023,2018,4,25,16,36,52.964,-0.7587,-0.2181,-0.4836,0.3779
-0.001,-0.011,-0.036,6.3,33.5,-4.8,1023,2018,4,25,16,36,52.985,-0.7582,-0.2228,-0.4807,0.3797
-0.011,-0.022,-0.048,11,35.7,-0.5,1023,2018,4,25,16,36,52.989,-0.7575,-0.227,-0.4775,0.3827
-0.037,-0.018,-0.031,13,36.2,1.9,0,2018,4,25,16,36,53.006,-0.7569,-0.2308,-0.4737,0.3864
0.001,-0.01,-0.012,12.5,31.7,4.1,0,2018,4,25,16,36,53.027,-0.7562,-0.2342,-0.4699,0.3902
0.01,-0.038,-0.01,13,26.8,6.2,0,2018,4,25,16,36,53.047,-0.7556,-0.2365,-0.4667,0.3939
0.037,-0.064,-0.015,14.9,25.1,8,0,2018,4,25,16,36,53.083,-0.755,-0.2381,-0.4638,0.3976
-0.042,-0.06,0,16.1,27.2,9.2,0,2018,4,25,16,36,53.104,-0.7543,-0.2393,-0.4605,0.4018
-0.034,-0.044,0.034,14.2,22.9,9.8,0,2018,4,25,16,36,53.108,-0.7538,-0.2404,-0.4571,0.406
-0.006,-0.084,0.021,13.1,20.4,9.3,0,2018,4,25,16,36,53.149,-0.7533,-0.2407,-0.4543,0.4099
-0.014,-0.091,0.008,13,22.5,6.7,0,2018,4,25,16,36,53.169,-0.7527,-0.2412,-0.4516,0.4137
0,-0.104,0.015,13.5,26.4,3.1,0,2018,4,25,16,36,53.173,-0.7522,-0.2423,-0.4486,0.4173
-0.015,-0.11,0.022,13.9,32.5,0.2,0,2018,4,25,16,36,53.189,-0.7517,-0.2441,-0.445,0.4209
-0.041,-0.067,0.024,12.9,36.4,-1.2,0,2018,4,25,16,36,53.207,-0.7512,-0.247,-0.4407,0.4246
-0.015,-0.022,0.009,10.3,32.5,0.9,0,2018,4,25,16,36,53.246,-0.7507,-0.2503,-0.4365,0.428
-0.027,-0.017,-0.012,11.1,28,4,0,2018,4,25,16,36,53.266,-0.7499,-0.2531,-0.433,0.4311
-0.022,0.011,-0.028,11.2,20.1,7.6,0,2018,4,25,16,36,53.27,-0.7492,-0.255,-0.4299,0.4343
-0.006,-0.021,-0.024,13.6,11.7,9.8,0,2018,4,25,16,36,53.291,-0.7487,-0.2555,-0.4277,0.4371
-0.005,-0.046,-0.006,15.8,6.7,9.3,0,2018,4,25,16,36,53.311,-0.7486,-0.2545,-0.4257,0.4398
-0.012,-0.067,0.005,18.1,3,7.3,0,2018,4,25,16,36,53.348,-0.7488,-0.2528,-0.4238,0.4422
-0.036,-0.08,0.019,19.1,2,3.9,0,2018,4,25,16,36,53.368,-0.7496,-0.2505,-0.4216,0.4444
-0.063,-0.082,0.039,19.8,0.6,-0.3,0,2018,4,25,16,36,53.372,-0.7508,-0.2482,-0.4189,0.4461
-0.049,-0.072,0.041,19.8,-1.4,-4.5,0,2018,4,25,16,36,53.389,-0.7526,-0.2459,-0.4161,0.4471
-0.042,-0.09,0.04,20,-0.7,-8.2,1023,2018,4,25,16,36,53.409,-0.7546,-0.2437,-0.4133,0.4474
-0.045,-0.079,0.05,19.7,5.7,-11.2,1023,2018,4,25,16,36,53.427,-0.7568,-0.2422,-0.4099,0.4476
-0.058,-0.047,0.051,18.3,11.7,-12.9,1023,2018,4,25,16,36,53.468,-0.7589,-0.242,-0.4059,0.4479
-0.04,-0.031,0.036,17.1,18.3,-13.6,1023,2018,4,25,16,36,53.486,-0.7607,-0.2429,-0.4015,0.4483
-0.032,-0.014,0.018,16.2,25.8,-13.8,1023,2018,4,25,16,36,53.491,-0.7621,-0.2451,-0.3967,0.4489
-0.025,0.012,-0.009,16.8,34.4,-13.8,1023,2018,4,25,16,36,53.529,-0.7631,-0.2488,-0.3914,0.4499
-0.036,0.036,-0.034,19.1,41.4,-13.2,1023,2018,4,25,16,36,53.55,-0.7638,-0.2536,-0.3853,0.4513
-0.027,0.056,-0.048,22.6,44.3,-12.1,1023,2018,4,25,16,36,53.554,-0.7643,-0.2591,-0.3783,0.4531
-0.02,0.07,-0.056,26,46.7,-10.3,1023,2018,4,25,16,36,53.57,-0.7648,-0.2647,-0.3708,0.4554
-0.009,0.076,-0.062,29.2,48.4,-7.8,1023,2018,4,25,16,36,53.61,-0.7651,-0.2702,-0.3628,0.4581
-0.008,0.107,-0.061,31.9,43.6,-4.8,1023,2018,4,25,16,36,53.63,-0.7653,-0.2748,-0.3546,0.4614
-0.012,0.125,-0.042,33.3,35.6,-0.7,1023,2018,4,25,16,36,53.634,-0.7656,-0.2779,-0.3468,0.465
-0.003,0.148,0.016,31.1,21.5,4.4,0,2018,4,25,16,36,53.672,-0.766,-0.279,-0.3402,0.4685
0.008,0.139,0.052,26.6,8.4,9.5,0,2018,4,25,16,36,53.676,-0.7664,-0.2781,-0.3354,0.4717
0.012,0.101,0.047,21.1,-1,13.7,0,2018,4,25,16,36,53.693,-0.7669,-0.2764,-0.332,0.4744
0.021,0.07,0.036,14.8,-9.7,16.4,0,2018,4,25,16,36,53.73,-0.7672,-0.2737,-0.3302,0.4767
0.039,0.03,0.014,9.5,-16.4,17.5,0,2018,4,25,16,36,53.751,-0.7672,-0.2703,-0.3304,0.4786
0.035,-0.019,-0.011,5.6,-22.2,16.4,0,2018,4,25,16,36,53.756,-0.767,-0.2662,-0.332,0.4801
0.037,-0.07,-0.033,2.1,-24.4,13.4,0,2018,4,25,16,36,53.775,-0.7668,-0.2617,-0.3348,0.481
0.049,-0.099,-0.042,-0.7,-21.5,8.7,0,2018,4,25,16,36,53.794,-0.7666,-0.2575,-0.3379,0.4813
0.017,-0.13,-0.061,-0.5,-12.7,3,0,2018,4,25,16,36,53.815,-0.7668,-0.2549,-0.3398,0.481
-0.005,-0.109,-0.038,1.1,0.6,-1.8,0,2018,4,25,16,36,53.851,-0.767,-0.254,-0.3403,0.4808
-0.028,-0.046,-0.008,2.2,5,-4.9,0,2018,4,25,16,36,53.871,-0.7671,-0.2541,-0.34,0.4809
-0.013,-0.046,0.012,1.9,4.7,-6.5,0,2018,4,25,16,36,53.875,-0.7675,-0.2545,-0.3392,0.4806
-0.01,-0.057,0.032,0.9,11.1,-7.9,0,2018,4,25,16,36,53.89,-0.7678,-0.2553,-0.3381,0.4804
-0.016,-0.052,0.039,-0.2,16,-9.5,0,2018,4,25,16,36,53.914,-0.768,-0.2571,-0.3364,0.4804
-0.014,-0.044,0.028,-2.4,20.1,-11.2,0,2018,4,25,16,36,53.935,-0.768,-0.2597,-0.3346,0.4803
-0.021,-0.034,0.011,-3.9,22.5,-12.3,0,2018,4,25,16,36,53.955,-0.7678,-0.2631,-0.3327,0.48
-0.027,-0.035,0.003,-5.2,27,-13.2,0,2018,4,25,16,36,53.974,-0.7675,-0.2672,-0.3306,0.4796
-0.005,-0.02,0.004,-6.1,29.5,-13.8,0,2018,4,25,16,36,53.993,-0.767,-0.272,-0.3284,0.4793
-0.014,-0.018,0.008,-6.3,31.5,-14.3,0,2018,4,25,16,36,54.032,-0.7664,-0.2772,-0.326,0.4789
-0.014,-0.002,-0.002,-6.1,32.8,-15.4,0,2018,4,25,16,36,54.052,-0.7657,-0.2828,-0.3234,0.4785
-0.018,0.018,-0.014,-6.1,33.8,-15.6,0,2018,4,25,16,36,54.056,-0.765,-0.2887,-0.3206,0.478
-0.018,0.036,-0.022,-5.2,31.8,-15.1,0,2018,4,25,16,36,54.075,-0.7643,-0.2947,-0.3176,0.4773
-0.017,0.073,-0.018,-5.3,26.6,-12.7,1023,2018,4,25,16,36,54.096,-0.7638,-0.3003,-0.3149,0.4765
-0.007,0.065,-0.005,-4.8,19.5,-10.6,1023,2018,4,25,16,36,54.113,-0.7634,-0.305,-0.3127,0.4757
-0.019,0.059,-0.021,-4.2,16.9,-8.2,1023,2018,4,25,16,36,54.152,-0.7631,-0.3087,-0.311,0.4749
-0.029,0.078,-0.028,-2.7,15.2,-5.9,1023,2018,4,25,16,36,54.172,-0.7627,-0.3121,-0.3094,0.4743
-0.022,0.099,-0.036,-1.1,9.8,-3.5,1023,2018,4,25,16,36,54.176,-0.7624,-0.315,-0.3078,0.4738
-0.008,0.099,-0.048,0.6,3.4,-1.1,1023,2018,4,25,16,36,54.197,-0.7624,-0.3169,-0.3068,0.4734
-0.009,0.065,-0.037,2,-1.8,0.6,1023,2018,4,25,16,36,54.216,-0.7625,-0.3177,-0.3063,0.473
0.002,0.04,-0.016,3,-6.3,2.3,1023,2018,4,25,16,36,54.254,-0.7627,-0.3174,-0.3062,0.4729
-0.006,0.02,0.01,3.5,-11,4.5,1023,2018,4,25,16,36,54.274,-0.7631,-0.316,-0.3065,0.473
-0.01,-0.021,0.026,2.7,-14.7,6.1,1023,2018,4,25,16,36,54.278,-0.7637,-0.3135,-0.3073,0.4732
-0.011,-0.058,0.034,1.2,-14.1,6,1023,2018,4,25,16,36,54.316,-0.7641,-0.3106,-0.3086,0.4736
-0.01,-0.076,0.02,0.5,-9.1,4.3,1023,2018,4,25,16,36,54.337,-0.7644,-0.308,-0.3099,0.474
-0.011,-0.077,0,0,-3.6,1.8,1023,2018,4,25,16,36,54.341,-0.7644,-0.3063,-0.3109,0.4744
-0.009,-0.059,-0.008,0,0,0,1023,2018,4,25,16,36,54.358,-0.7643,-0.3055,-0.3114,0.4747
0.002,-0.03,-0.016,-0.2,1.4,-1.2,0,2018,4,25,16,36,54.396,-0.7642,-0.3055,-0.3116,0.4748
0.003,-0.019,-0.017,0,1.6,-1.1,0,2018,4,25,16,36,54.417,-0.7641,-0.3057,-0.3116,0.4748
-0.001,-0.019,-0.011,0.6,1.4,-0.8,0,2018,4,25,16,36,54.421,-0.764,-0.3059,-0.3116,0.4748
-0.005,-0.017,-0.003,1,1.7,-0.9,0,2018,4,25,16,36,54.438,-0.764,-0.306,-0.3114,0.4749
-0.009,-0.005,0.001,1.3,2.3,-1,0,2018,4,25,16,36,54.457,-0.7641,-0.3061,-0.311,0.475
-0.007,0.003,0.001,1.1,1.8,-0.9,0,2018,4,25,16,36,54.477,-0.7641,-0.3063,-0.3105,0.4751
-0.004,-0.003,0.001,0.5,2.6,-0.7,0,2018,4,25,16,36,54.498,-0.7642,-0.3065,-0.3102,0.4751
-0.009,0.003,-0.009,0.3,4.4,-0.7,0,2018,4,25,16,36,54.519,-0.7641,-0.307,-0.3097,0.4753
-0.014,0.009,-0.017,0.5,3.7,-0.7,0,2018,4,25,16,36,54.556,-0.7639,-0.3076,-0.3092,0.4754
-0.01,0.007,-0.012,0.6,2.3,-0.7,0,2018,4,25,16,36,54.575,-0.7639,-0.3081,-0.3089,0.4754
-0.01,0.009,-0.008,1.6,2.4,-0.9,0,2018,4,25,16,36,54.579,-0.7639,-0.3084,-0.3084,0.4754
-0.011,0.02,0.001,1.4,1.1,-0.4,0,2018,4,25,16,36,54.617,-0.764,-0.3087,-0.3079,0.4754
-0.005,0.017,0.003,1.1,0,0,0,2018,4,25,16,36,54.621,-0.7641,-0.3088,-0.3075,0.4754
-0.016,0.007,-0.001,1,-0.9,0.5,0,2018,4,25,16,36,54.64,-0.7642,-0.3086,-0.3073,0.4755
-0.008,-0.001,0,0.9,-1,0.7,0,2018,4,25,16,36,54.658,-0.7643,-0.3084,-0.3072,0.4755
-0.008,-0.009,0.006,0.6,-1,0.7,0,2018,4,25,16,36,54.679,-0.7644,-0.3081,-0.3072,0.4757
-0.011,-0.014,0.006,0.2,-0.5,0.5,0,2018,4,25,16,36,54.717,-0.7644,-0.3078,-0.3072,0.4758
-0.01,-0.018,0.007,0,0,0,0,2018,4,25,16,36,54.736,-0.7644,-0.3075,-0.3072,0.4759
-0.01,-0.019,0.004,-0.1,0.8,0,0,2018,4,25,16,36,54.74,-0.7644,-0.3074,-0.3072,0.476
-0.009,-0.014,0,-0.2,1.5,0,0,2018,4,25,16,36,54.759,-0.7643,-0.3074,-0.3072,0.4761
-0.012,-0.011,0.005,0,1.7,-0.1,0,2018,4,25,16,36,54.781,-0.7643,-0.3075,-0.3071,0.4763
-0.01,-0.005,0.002,-0.5,1.4,0,0,2018,4,25,16,36,54.8,-0.7642,-0.3077,-0.3069,0.4764
-0.004,-0.002,-0.01,-0.3,2.1,-0.1,0,2018,4,25,16,36,54.82,-0.7641,-0.308,-0.3068,0.4764
-0.009,0.001,-0.012,-0.1,1.6,-0.3,0,2018,4,25,16,36,54.838,-0.764,-0.3083,-0.3067,0.4765
-0.011,0.003,-0.017,0,1.6,-0.6,0,2018,4,25,16,36,54.858,-0.7639,-0.3086,-0.3066,0.4765
-0.009,0.007,-0.011,0.2,1.1,-0.4,1023,2018,4,25,16,36,54.897,-0.7639,-0.3089,-0.3064,0.4765
-0.006,0.002,-0.005,0.4,0.8,-0.3,1023,2018,4,25,16,36,54.918,-0.7639,-0.3091,-0.3062,0.4764
-0.009,0,-0.001,0.6,0.7,-0.1,1023,2018,4,25,16,36,54.922,-0.7639,-0.3092,-0.306,0.4765
-0.008,0.005,-0.005,0.8,0.1,0.1,1023,2018,4,25,16,36,54.96,-0.7639,-0.3093,-0.3058,0.4765
-0.007,0,0.001,0.6,-0.4,0.3,1023,2018,4,25,16,36,54.979,-0.764,-0.3091,-0.3057,0.4766
-0.009,-0.005,-0.007,0.5,-0.1,0.3,1023,2018,4,25,16,36,54.983,-0.764,-0.309,-0.3056,0.4766
-0.011,-0.007,-0.01,0.6,0,0.1,1023,2018,4,25,16,36,55.001,-0.764,-0.3089,-0.3056,0.4767
-0.01,0.001,-0.008,0.9,-0.1,0,1023,2018,4,25,16,36,55.041,-0.7641,-0.3088,-0.3055,0.4767
-0.01,-0.005,-0.01,1.1,0.3,0.1,1023,2018,4,25,16,36,55.059,-0.7641,-0.3088,-0.3054,0.4768
-0.011,-0.005,-0.006,1.4,1.1,0,1023,2018,4,25,16,36,55.063,-0.7641,-0.3088,-0.3052,0.4769
-0.012,0.003,-0.001,1.5,1,-0.1,1023,2018,4,25,16,36,55.103,-0.7641,-0.3088,-0.3049,0.4771
-0.015,0.008,0.003,1.4,0,0,1023,2018,4,25,16,36,55.122,-0.7643,-0.3088,-0.3045,0.4771
-0.009,0.011,0.007,1.1,-1.4,0.4,1023,2018,4,25,16,36,55.126,-0.7644,-0.3085,-0.3043,0.4772
-0.007,-0.003,0.006,0.8,-2.1,0.6,1023,2018,4,25,16,36,55.138,-0.7646,-0.3081,-0.3042,0.4772
-0.009,-0.005,0.003,0.5,-1.3,0.5,1023,2018,4,25,16,36,55.175,-0.7647,-0.3077,-0.3043,0.4773
-0.014,-0.012,-0.003,0.2,-0.5,0.2,0,2018,4,25,16,36,55.194,-0.7647,-0.3074,-0.3044,0.4773
-0.01,-0.003,-0.006,0,0,0,0,2018,4,25,16,36,55.202,-0.7647,-0.3074,-0.3044,0.4774
-0.01,0,-0.004,0,0,0,0,2018,4,25,16,36,55.241,-0.7647,-0.3074,-0.3044,0.4774
-0.009,0.003,-0.005,0,0,0,0,2018,4,25,16,36,55.26,-0.7648,-0.3074,-0.3043,0.4774
-0.007,0.003,-0.007,0,0,0,0,2018,4,25,16,36,55.264,-0.7648,-0.3074,-0.3043,0.4773
-0.007,0.003,0.002,0.3,-0.6,0.6,0,2018,4,25,16,36,55.302,-0.7648,-0.3074,-0.3042,0.4774
-0.009,0,0,0.1,-0.9,0.6,0,2018,4,25,16,36,55.325,-0.7648,-0.3072,-0.3042,0.4774
-0.011,-0.009,-0.007,0,-0.7,0.5,0,2018,4,25,16,36,55.329,-0.7649,-0.307,-0.3043,0.4775
-0.009,-0.008,-0.012,0,0,0,0,2018,4,25,16,36,55.346,-0.7648,-0.3069,-0.3044,0.4775
-0.008,-0.006,-0.006,0,0,0,0,2018,4,25,16,36,55.363,-0.7648,-0.3069,-0.3044,0.4775
-0.006,0.002,-0.004,0.5,-0.3,0,0,2018,4,25,16,36,55.401,-0.7649,-0.3068,-0.3043,0.4775
-0.011,-0.004,-0.002,0.3,-0.7,0,0,2018,4,25,16,36,55.42,-0.7649,-0.3067,-0.3043,0.4775
-0.01,0,0.002,0,0,0,0,2018,4,25,16,36,55.424,-0.765,-0.3066,-0.3043,0.4775
-0.006,-0.001,-0.001,0,0,0,0,2018,4,25,16,36,55.445,-0.765,-0.3065,-0.3042,0.4775
-0.007,0.003,-0.002,0,0,0,0,2018,4,25,16,36,55.465,-0.765,-0.3066,-0.3042,0.4775
-0.011,-0.002,-0.011,0,0,0,0,2018,4,25,16,36,55.504,-0.765,-0.3066,-0.3041,0.4775
-0.006,0,-0.014,0,0,0,0,2018,4,25,16,36,55.524,-0.7651,-0.3066,-0.3041,0.4775
-0.007,0.005,-0.011,0.3,-0.5,0,0,2018,4,25,16,36,55.528,-0.7651,-0.3066,-0.3041,0.4775
-0.007,0,-0.007,0.3,-0.7,0.1,0,2018,4,25,16,36,55.546,-0.7651,-0.3065,-0.3041,0.4775
-0.008,-0.001,0,0.3,-0.5,0.2,0,2018,4,25,16,36,55.564,-0.7652,-0.3064,-0.3041,0.4775
-0.007,-0.002,-0.005,0,0,0,0,2018,4,25,16,36,55.583,-0.7652,-0.3063,-0.3041,0.4775
-0.008,-0.005,-0.004,0.5,-0.2,0,0,2018,4,25,16,36,55.602,-0.7652,-0.3062,-0.304,0.4775
-0.009,-0.002,-0.004,0.3,-0.5,0.1,0,2018,4,25,16,36,55.642,-0.7652,-0.3062,-0.304,0.4775
-0.008,-0.001,0,0,0,0,0,2018,4,25,16,36,55.663,-0.7653,-0.3061,-0.304,0.4775
-0.01,-0.001,-0.009,0,0,0,0,2018,4,25,16,36,55.667,-0.7653,-0.3061,-0.304,0.4775
-0.01,0.001,-0.008,0,0,0,0,2018,4,25,16,36,55.687,-0.7653,-0.3061,-0.3039,0.4775
-0.011,0,-0.006,0.5,-0.4,0,1023,2018,4,25,16,36,55.707,-0.7653,-0.3061,-0.3039,0.4775
-0.01,-0.002,0.001,0.3,-0.5,0.3,1023,2018,4,25,16,36,55.726,-0.7654,-0.306,-0.3039,0.4775
-0.005,-0.007,0,0,0,0,1023,2018,4,25,16,36,55.749,-0.7654,-0.3059,-0.3039,0.4776
-0.011,-0.005,-0.007,0.3,0.5,0,1023,2018,4,25,16,36,55.769,-0.7654,-0.3059,-0.3038,0.4776
-0.01,0.003,-0.002,0,0,0,1023,2018,4,25,16,36,55.789,-0.7654,-0.3059,-0.3037,0.4776
-0.013,0.003,-0.001,0,0,0,1023,2018,4,25,16,36,55.827,-0.7654,-0.306,-0.3037,0.4776
-0.007,0.004,0.003,0,-0.5,0,1023,2018,4,25,16,36,55.831,-0.7655,-0.3059,-0.3036,0.4776
-0.008,-0.003,0,0,0,0,1023,2018,4,25,16,36,55.847,-0.7655,-0.3058,-0.3036,0.4776
-0.009,-0.003,-0.009,0,0,0,1023,2018,4,25,16,36,55.866,-0.7656,-0.3058,-0.3036,0.4776
-0.011,-0.005,-0.008,0,0,0,1023,2018,4,25,16,36,55.886,-0.7656,-0.3058,-0.3036,0.4776
-0.01,0.002,-0.01,0,0,0,1023,2018,4,25,16,36,55.926,-0.7656,-0.3058,-0.3035,0.4776
-0.009,0.008,-0.009,0,0,0,1023,2018,4,25,16,36,55.945,-0.7656,-0.3058,-0.3035,0.4776
-0.007,0.003,-0.008,0,0,0,1023,2018,4,25,16,36,55.949,-0.7656,-0.3059,-0.3034,0.4775
-0.009,0.002,-0.004,0,0,0,1023,2018,4,25,16,36,55.968,-0.7656,-0.3059,-0.3034,0.4775
-0.012,0.004,-0.001,0,-0.3,0.5,1023,2018,4,25,16,36,55.994,-0.7656,-0.3059,-0.3033,0.4775
-0.009,0,0.001,0,0,0,0,2018,4,25,16,36,56.015,-0.7656,-0.3059,-0.3033,0.4775
-0.01,-0.005,-0.005,0,-0.1,0.6,0,2018,4,25,16,36,56.03,-0.7656,-0.3058,-0.3033,0.4776
-0.009,-0.005,-0.008,0,0,0,0,2018,4,25,16,36,56.051,-0.7656,-0.3058,-0.3034,0.4777
-0.007,-0.001,-0.005,0,0,0,0,2018,4,25,16,36,56.071,-0.7656,-0.3058,-0.3034,0.4777
-0.008,0.002,0.006,0,0,0,0,2018,4,25,16,36,56.09,-0.7656,-0.3058,-0.3034,0.4777
-0.01,-0.002,0.008,0,0,0,0,2018,4,25,16,36,56.109,-0.7656,-0.3057,-0.3033,0.4777
-0.012,-0.002,0,0,0,0,0,2018,4,25,16,36,56.13,-0.7656,-0.3057,-0.3033,0.4777
-0.011,-0.001,-0.008,-0.7,0.4,0.1,0,2018,4,25,16,36,56.148,-0.7656,-0.3057,-0.3033,0.4777
-0.007,0,-0.012,-0.5,0.4,0,0,2018,4,25,16,36,56.186,-0.7655,-0.3058,-0.3033,0.4777
-0.009,0.008,-0.012,-0.3,0.5,0,0,2018,4,25,16,36,56.206,-0.7655,-0.306,-0.3033,0.4777
-0.01,0.005,-0.012,0,0,0,0,2018,4,25,16,36,56.21,-0.7654,-0.3061,-0.3033,0.4777
-0.008,0.005,-0.008,0,0,0,0,2018,4,25,16,36,56.25,-0.7655,-0.3062,-0.3033,0.4777
-0.01,0,-0.005,0,0,0,0,2018,4,25,16,36,56.27,-0.7655,-0.3062,-0.3032,0.4777
-0.007,0,-0.009,0,0,0,0,2018,4,25,16,36,56.274,-0.7655,-0.3062,-0.3032,0.4777
-0.004,-0.003,-0.005,0,0,0,0,2018,4,25,16,36,56.293,-0.7655,-0.3062,-0.3032,0.4777
-0.011,-0.003,0,0,0,0,0,2018,4,25,16,36,56.31,-0.7655,-0.3062,-0.3032,0.4777
-0.013,-0.004,-0.007,-0.2,0.7,0,0,2018,4,25,16,36,56.328,-0.7655,-0.3062,-0.3032,0.4777
-0.007,0,-0.008,-0.3,0.8,0,0,2018,4,25,16,36,56.348,-0.7654,-0.3063,-0.3031,0.4778
-0.008,0.003,-0.003,-0.2,0.6,0,0,2018,4,25,16,36,56.387,-0.7654,-0.3065,-0.3031,0.4778
-0.007,0.002,-0.007,0,0,0,0,2018,4,25,16,36,56.392,-0.7653,-0.3066,-0.303,0.4778
-0.009,0,-0.008,0,0,0,0,2018,4,25,16,36,56.411,-0.7654,-0.3066,-0.303,0.4778
-0.011,0,-0.002,0,0,0,0,2018,4,25,16,36,56.431,-0.7654,-0.3066,-0.303,0.4778
-0.007,0.003,-0.002,0,0,0,0,2018,4,25,16,36,56.449,-0.7654,-0.3066,-0.3029,0.4778
-0.007,-0.005,-0.012,0,0,0,0,2018,4,25,16,36,56.491,-0.7654,-0.3066,-0.3029,0.4778
-0.009,-0.001,-0.011,-0.1,0.8,0,0,2018,4,25,16,36,56.495,-0.7653,-0.3067,-0.3029,0.4778
-0.011,0.007,-0.003,-0.2,0.8,0.1,0,2018,4,25,16,36,56.514,-0.7652,-0.3069,-0.3029,0.4778
-0.004,-0.004,-0.009,-0.2,1.2,0.1,0,2018,4,25,16,36,56.53,-0.7652,-0.307,-0.3028,0.4779
-0.006,0,-0.003,0.1,1.8,0.1,0,2018,4,25,16,36,56.569,-0.7651,-0.3072,-0.3027,0.478
-0.013,0.001,0.002,-0.1,1.6,-0.2,1023,2018,4,25,16,36,56.573,-0.765,-0.3074,-0.3025,0.4781
-0.013,0.004,0.001,-0.3,1.6,-0.3,1023,2018,4,25,16,36,56.589,-0.765,-0.3077,-0.3023,0.4781
-0.007,0.004,0,-0.3,0.8,-0.1,1023,2018,4,25,16,36,56.627,-0.7649,-0.3079,-0.3022,0.4781
-0.003,0,-0.002,-0.2,0.5,0.1,1023,2018,4,25,16,36,56.647,-0.7649,-0.308,-0.3022,0.4781
-0.005,-0.004,-0.007,-0.2,0.5,0.3,1023,2018,4,25,16,36,56.651,-0.7649,-0.308,-0.3022,0.4781
-0.01,0,-0.009,0,0.8,0.3,1023,2018,4,25,16,36,56.672,-0.7648,-0.3081,-0.3022,0.4782
-0.009,0,-0.009,-0.2,0.7,0,1023,2018,4,25,16,36,56.692,-0.7647,-0.3082,-0.3021,0.4782
-0.006,0.011,-0.008,-0.2,1,-0.2,1023,2018,4,25,16,36,56.731,-0.7647,-0.3085,-0.302,0.4782
-0.006,0.009,-0.014,-0.3,0.7,0,1023,2018,4,25,16,36,56.752,-0.7646,-0.3087,-0.302,0.4782
-0.008,0.007,-0.01,0,0,0,1023,2018,4,25,16,36,56.756,-0.7646,-0.3088,-0.3019,0.4781
-0.01,0.003,-0.003,0,0,0,1023,2018,4,25,16,36,56.776,-0.7646,-0.3089,-0.3019,0.4781
-0.009,-0.001,0.001,-0.3,-0.4,0.6,1023,2018,4,25,16,36,56.797,-0.7646,-0.3088,-0.3019,0.4782
-0.006,-0.006,-0.001,-0.3,-0.1,0.5,1023,2018,4,25,16,36,56.817,-0.7646,-0.3087,-0.302,0.4782
-0.008,-0.003,-0.009,-0.2,0.5,0.5,1023,2018,4,25,16,36,56.833,-0.7646,-0.3087,-0.302,0.4783
-0.012,-0.002,-0.011,0,0,0,0,2018,4,25,16,36,56.855,-0.7645,-0.3087,-0.302,0.4783
-0.008,0,-0.005,0,0,0,0,2018,4,25,16,36,56.875,-0.7645,-0.3088,-0.302,0.4783
-0.008,0,0,0,0,0,0,2018,4,25,16,36,56.914,-0.7645,-0.3088,-0.302,0.4783
-0.009,0,-0.004,0,0,0,0,2018,4,25,16,36,56.918,-0.7645,-0.3087,-0.3019,0.4783
-0.009,-0.001,-0.002,-0.5,0.2,0.3,0,2018,4,25,16,36,56.934,-0.7645,-0.3087,-0.3019,0.4784
-0.011,0.001,-0.01,0,0,0,0,2018,4,25,16,36,56.971,-0.7645,-0.3088,-0.3019,0.4783
-0.008,0.001,-0.014,0,0,0,0,2018,4,25,16,36,56.99,-0.7645,-0.3088,-0.302,0.4783
-0.01,0.006,-0.013,-0.2,0.6,-0.1,0,2018,4,25,16,36,56.994,-0.7645,-0.3089,-0.3019,0.4783
-0.011,0.007,-0.012,0,0,0,0,2018,4,25,16,36,57.032,-0.7645,-0.3091,-0.3019,0.4783
-0.01,0.006,-0.009,0,0,0,0,2018,4,25,16,36,57.053,-0.7645,-0.3091,-0.3019,0.4782
-0.005,0.002,-0.008,0,0,0,0,2018,4,25,16,36,57.057,-0.7645,-0.3092,-0.3018,0.4782
-0.006,0.001,-0.009,0,0,0,0,2018,4,25,16,36,57.073,-0.7645,-0.3092,-0.3019,0.4782
-0.009,-0.007,-0.001,0,0,0,0,2018,4,25,16,36,57.112,-0.7645,-0.3092,-0.3019,0.4782
-0.009,-0.002,-0.005,0,0,0,0,2018,4,25,16,36,57.132,-0.7645,-0.3091,-0.3019,0.4782
-0.009,-0.001,-0.004,0,0,0,0,2018,4,25,16,36,57.136,-0.7645,-0.3091,-0.3019,0.4783
-0.006,0.002,-0.004,0,0,0,0,2018,4,25,16,36,57.155,-0.7645,-0.3091,-0.3018,0.4782
-0.01,0.005,-0.006,0,0,0,0,2018,4,25,16,36,57.196,-0.7645,-0.3092,-0.3018,0.4782
-0.011,0.001,-0.005,0,-0.6,0.3,0,2018,4,25,16,36,57.217,-0.7645,-0.3091,-0.3018,0.4782
-0.011,0,-0.001,0,0,0,0,2018,4,25,16,36,57.221,-0.7645,-0.3091,-0.3018,0.4782
-0.008,0,0,0,0,0,0,2018,4,25,16,36,57.239,-0.7645,-0.3091,-0.3018,0.4782
-0.005,-0.002,-0.004,0,0,0,0,2018,4,25,16,36,57.259,-0.7645,-0.3091,-0.3018,0.4782
-0.005,0,-0.006,0,0,0,0,2018,4,25,16,36,57.277,-0.7645,-0.3091,-0.3018,0.4782
-0.006,0.001,-0.013,0,0,0,0,2018,4,25,16,36,57.296,-0.7645,-0.3092,-0.3018,0.4782
-0.009,0.007,-0.013,0.5,0,0.2,0,2018,4,25,16,36,57.315,-0.7645,-0.3093,-0.3018,0.4781
-0.007,0.014,-0.002,0,-0.7,0.4,0,2018,4,25,16,36,57.337,-0.7646,-0.3093,-0.3017,0.4781
-0.007,-0.005,0,0.1,-0.3,0.6,0,2018,4,25,16,36,57.356,-0.7646,-0.3091,-0.3018,0.4782
-0.009,-0.005,-0.001,0,0,0,0,2018,4,25,16,36,57.377,-0.7646,-0.3091,-0.3018,0.4782
-0.018,-0.004,-0.003,0,0,0,0,2018,4,25,16,36,57.397,-0.7646,-0.309,-0.3017,0.4782
-0.01,-0.003,0,0,0,0,1023,2018,4,25,16,36,57.436,-0.7646,-0.309,-0.3017,0.4782
-0.008,-0.001,-0.003,0,-0.5,0,1023,2018,4,25,16,36,57.458,-0.7646,-0.309,-0.3017,0.4782
-0.003,-0.003,-0.003,0,0,0,1023,2018,4,25,16,36,57.462,-0.7646,-0.3089,-0.3017,0.4782
-0.006,-0.003,-0.004,0,0,0,1023,2018,4,25,16,36,57.48,-0.7646,-0.3089,-0.3017,0.4782
-0.009,0,-0.009,0,0,0,1023,2018,4,25,16,36,57.519,-0.7646,-0.3089,-0.3017,0.4782
-0.008,0.006,-0.01,0,0,0,1023,2018,4,25,16,36,57.522,-0.7646,-0.309,-0.3017,0.4782
-0.006,0.008,-0.008,0,0,0,1023,2018,4,25,16,36,57.539,-0.7646,-0.309,-0.3017,0.4782
-0.006,0.007,-0.011,0,-0.5,0.3,1023,2018,4,25,16,36,57.575,-0.7646,-0.3091,-0.3016,0.4781
-0.01,0,-0.009,0.2,-0.6,0.3,1023,2018,4,25,16,36,57.595,-0.7647,-0.309,-0.3016,0.4781
-0.008,0.001,-0.006,0.3,-0.7,0.4,1023,2018,4,25,16,36,57.598,-0.7647,-0.3089,-0.3017,0.4781
-0.011,-0.001,0,0.1,-0.8,0.4,1023,2018,4,25,16,36,57.638,-0.7647,-0.3087,-0.3017,0.4782
-0.006,-0.001,-0.008,0.1,-0.5,0.4,1023,2018,4,25,16,36,57.657,-0.7648,-0.3086,-0.3017,0.4782
-0.009,-0.004,-0.006,0,0,0,1023,2018,4,25,16,36,57.66,-0.7648,-0.3086,-0.3017,0.4782
-0.008,-0.002,-0.006,0,0,0,1023,2018,4,25,16,36,57.697,-0.7648,-0.3086,-0.3017,0.4782
-0.009,-0.001,-0.005,0.3,-0.6,0.2,1023,2018,4,25,16,36,57.718,-0.7648,-0.3085,-0.3017,0.4782
-0.008,0,-0.001,0.5,-0.9,0,1023,2018,4,25,16,36,57.721,-0.7648,-0.3084,-0.3017,0.4783
-0.006,0.002,-0.02,0.9,-1.2,0,1023,2018,4,25,16,36,57.74,-0.7649,-0.3082,-0.3017,0.4782
-0.007,-0.008,-0.025,1.6,-0.9,-0.2,1023,2018,4,25,16,36,57.76,-0.765,-0.308,-0.3017,0.4782
-0.01,0.007,-0.02,2.2,-0.8,-0.4,0,2018,4,25,16,36,57.798,-0.7651,-0.3079,-0.3016,0.4782
-0.009,0.018,-0.018,2.6,-0.9,0,0,2018,4,25,16,36,57.818,-0.7653,-0.3077,-0.3013,0.4782
-0.005,0.009,-0.025,3.4,-1.5,0.5,0,2018,4,25,16,36,57.821,-0.7655,-0.3074,-0.301,0.4782
-0.009,0.003,-0.024,4.6,-1.4,0.6,0,2018,4,25,16,36,57.839,-0.7657,-0.307,-0.3006,0.4784
-0.007,-0.001,-0.013,5.5,-1.3,0.7,0,2018,4,25,16,36,57.86,-0.766,-0.3065,-0.3002,0.4786
-0.006,0.004,0.002,5,-1.6,0.8,0,2018,4,25,16,36,57.879,-0.7663,-0.3058,-0.2996,0.4789
-0.009,-0.002,0.018,4.4,-1.7,1,0,2018,4,25,16,36,57.901,-0.7666,-0.3051,-0.299,0.4792
-0.01,-0.01,0.026,3,-1.5,0.8,0,2018,4,25,16,36,57.939,-0.7669,-0.3043,-0.2985,0.4795
