ax,ay,az,dpitch,droll,dyaw,heart,time_1,time_2,time_3,time_4,time_5,time_6,w,x,y,z
-0.274,0.339,0.704,160.7,-129.8,-157.8,1023,2018,4,25,16,19,31.155,-0.0697,0.0129,0.3748,-0.9243
-0.189,1.456,1.575,81.4,-69.8,-94.2,1023,2018,4,25,16,19,31.173,-0.0455,-0.0007,0.3962,-0.917
-0.004,1.726,1.561,-29.9,-5.3,-1.4,1023,2018,4,25,16,19,31.18,-0.0412,-0.0039,0.4062,-0.9128
0.001,0.98,0.963,-128.6,61.2,89.2,1023,2018,4,25,16,19,31.22,-0.0608,0.0029,0.4046,-0.9124
-0.141,-0.087,-0.058,-163.4,103,131.1,1023,2018,4,25,16,19,31.241,-0.0942,0.0162,0.3922,-0.9148
-0.197,-0.876,-0.696,-129.1,96.2,116.1,0,2018,4,25,16,19,31.245,-0.1283,0.0268,0.3761,-0.9172
-0.139,-1.403,-1.249,-48.3,43.4,49.1,0,2018,4,25,16,19,31.266,-0.1507,0.0313,0.3656,-0.9179
-0.078,-1.288,-1.511,67.8,-30.8,-44.5,0,2018,4,25,16,19,31.286,-0.1525,0.0267,0.3675,-0.917
-0.161,-0.716,-0.839,161.3,-115.4,-121.4,0,2018,4,25,16,19,31.324,-0.1326,0.0122,0.3852,-0.9131
-0.232,-0.087,0.242,176.3,-124.6,-145.4,0,2018,4,25,16,19,31.328,-0.101,-0.0064,0.4119,-0.9055
-0.163,1.05,1.384,118,-82.4,-105.5,0,2018,4,25,16,19,31.344,-0.0737,-0.0218,0.4346,-0.8973
-0.049,1.582,1.793,2.3,-18.5,-22.1,0,2018,4,25,16,19,31.364,-0.0635,-0.0277,0.4475,-0.8915
-0.02,1.223,1.228,-110,62,68.5,0,2018,4,25,16,19,31.384,-0.0763,-0.0231,0.447,-0.8909
-0.19,0.372,0.411,-178.9,129.6,130.1,0,2018,4,25,16,19,31.404,-0.1078,-0.0111,0.432,-0.8953
-0.253,-0.584,-0.644,-162.3,117.9,138.7,0,2018,4,25,16,19,31.425,-0.1459,0.0024,0.4102,-0.9002
-0.177,-1.35,-1.315,-76.8,67.4,80.7,0,2018,4,25,16,19,31.445,-0.1747,0.0089,0.3947,-0.9019
-0.084,-1.469,-1.702,59,-0.5,-19.4,0,2018,4,25,16,19,31.464,-0.1818,0.0051,0.3919,-0.9018
-0.175,-0.746,-1.039,169.1,-103.3,-101.7,0,2018,4,25,16,19,31.484,-0.1642,-0.0094,0.4058,-0.8989
-0.257,-0.235,-0.076,193.5,-143.3,-129.2,0,2018,4,25,16,19,31.506,-0.1336,-0.0285,0.4341,-0.8904
-0.234,0.57,1.044,151.5,-107.7,-98.6,0,2018,4,25,16,19,31.522,-0.105,-0.0455,0.4616,-0.8796
-0.115,1.308,1.723,48.6,-46.3,-34.6,0,2018,4,25,16,19,31.557,-0.0901,-0.0559,0.4785,-0.8716
0.002,1.197,1.366,-63.5,3.3,41,0,2018,4,25,16,19,31.577,-0.0963,-0.0557,0.4852,-0.8672
-0.063,0.578,0.668,-138.5,55.6,97.5,0,2018,4,25,16,19,31.584,-0.1196,-0.0476,0.4811,-0.8671
-0.215,-0.221,-0.193,-165.5,73,117.3,0,2018,4,25,16,19,31.605,-0.1517,-0.0357,0.4693,-0.8691
-0.193,-0.915,-0.905,-118.8,65.5,89.2,0,2018,4,25,16,19,31.626,-0.1809,-0.0254,0.4561,-0.8709
-0.011,-1.125,-1.461,-19.9,13.7,22.1,0,2018,4,25,16,19,31.646,-0.1961,-0.0218,0.4487,-0.8715
-0.005,-0.885,-1.466,108,-74.2,-54.5,1023,2018,4,25,16,19,31.666,-0.1905,-0.0276,0.4568,-0.8684
-0.095,-0.47,-0.705,189.4,-141.5,-101.8,1023,2018,4,25,16,19,31.703,-0.1671,-0.0421,0.4816,-0.8592
-0.173,0.104,0.419,183.7,-142.5,-98.6,1023,2018,4,25,16,19,31.724,-0.1377,-0.0588,0.5114,-0.8461
-0.161,0.777,1.353,114.4,-94.8,-60.5,1023,2018,4,25,16,19,31.728,-0.1157,-0.0722,0.5364,-0.8328
-0.051,1.025,1.638,-1.9,-17.5,-5.5,1023,2018,4,25,16,19,31.749,-0.1094,-0.077,0.549,-0.825
-0.013,0.813,1.157,-108.1,53.1,51.8,1023,2018,4,25,16,19,31.786,-0.1212,-0.072,0.5473,-0.8249
-0.18,0.164,0.408,-175.2,87.8,91.7,1023,2018,4,25,16,19,31.79,-0.1478,-0.0604,0.5352,-0.8294
-0.161,-0.519,-0.629,-169.5,100.8,91.3,1023,2018,4,25,16,19,31.806,-0.1792,-0.0467,0.5174,-0.8354
-0.058,-0.883,-1.234,-88.9,79.8,49.8,1023,2018,4,25,16,19,31.826,-0.2019,-0.0377,0.5005,-0.8409
0.047,-0.8,-1.509,33.7,-9.9,-17,1023,2018,4,25,16,19,31.846,-0.2069,-0.0374,0.4954,-0.8427
-0.039,-0.593,-1.107,140.5,-112.3,-71.8,1023,2018,4,25,16,19,31.885,-0.1931,-0.0455,0.5103,-0.8367
-0.167,-0.318,-0.278,184.2,-122.5,-96.5,1023,2018,4,25,16,19,31.905,-0.167,-0.0588,0.5366,-0.8249
-0.227,0.332,0.809,160.7,-89.4,-88.3,1023,2018,4,25,16,19,31.909,-0.1387,-0.0731,0.5593,-0.8139
-0.189,0.919,1.765,65.9,-36,-44.9,0,2018,4,25,16,19,31.928,-0.1204,-0.0822,0.5744,-0.8054
-0.095,1.049,1.663,-61.7,27,19.1,0,2018,4,25,16,19,31.947,-0.1213,-0.0814,0.5777,-0.803
-0.117,0.58,0.917,-161.1,92.3,75.4,0,2018,4,25,16,19,31.966,-0.1416,-0.072,0.5683,-0.8073
-0.157,-0.208,-0.335,-190,126.3,101,0,2018,4,25,16,19,31.988,-0.1731,-0.0577,0.5476,-0.8165
-0.042,-0.898,-1.215,-126,128.3,75.4,0,2018,4,25,16,19,32.009,-0.2016,-0.0478,0.5246,-0.8257
0.11,-1.123,-1.889,14.1,60.8,0.7,0,2018,4,25,16,19,32.049,-0.2123,-0.0471,0.5089,-0.8328
-0.082,-0.684,-1.474,159.3,-80.5,-78.2,0,2018,4,25,16,19,32.053,-0.1983,-0.0573,0.5153,-0.8317
-0.33,-0.415,-0.417,221.2,-165.4,-115.4,0,2018,4,25,16,19,32.069,-0.1676,-0.0731,0.5445,-0.8185
-0.401,0.114,0.878,192.7,-139.9,-99.7,0,2018,4,25,16,19,32.089,-0.1346,-0.0884,0.5761,-0.8012
-0.359,0.968,2.01,85,-52.2,-46.9,0,2018,4,25,16,19,32.107,-0.1132,-0.0991,0.5963,-0.7885
-0.202,1.289,1.969,-66.1,17.8,34.8,0,2018,4,25,16,19,32.147,-0.1148,-0.0995,0.6012,-0.7844
-0.217,0.795,1.197,-186.5,71,108.7,0,2018,4,25,16,19,32.166,-0.1406,-0.0904,0.5933,-0.7873
-0.255,-0.231,-0.308,-232.8,120.5,142.7,0,2018,4,25,16,19,32.171,-0.1818,-0.0765,0.5745,-0.7943
-0.06,-0.896,-1.197,-167.4,172.9,115.4,0,2018,4,25,16,19,32.19,-0.2194,-0.0666,0.5457,-0.8059
0.24,-0.941,-1.796,-35.4,86.8,45.9,0,2018,4,25,16,19,32.211,-0.2393,-0.0657,0.5217,-0.8161
0.109,-0.79,-1.728,120.2,-98.9,-36.4,0,2018,4,25,16,19,32.247,-0.2356,-0.0726,0.5256,-0.8141
-0.167,-0.801,-0.996,215.5,-206.1,-89.7,0,2018,4,25,16,19,32.267,-0.2118,-0.0844,0.5576,-0.7981
-0.472,-0.27,0.137,223,-172.4,-95.5,0,2018,4,25,16,19,32.271,-0.1793,-0.0994,0.5948,-0.7772
-0.496,0.651,1.303,158.1,-113.3,-62.6,0,2018,4,25,16,19,32.289,-0.1514,-0.1131,0.6223,-0.7596
-0.39,1.144,1.922,31.3,-67.4,7.5,0,2018,4,25,16,19,32.31,-0.1409,-0.1203,0.6394,-0.7461
-0.286,1.071,1.588,-106.6,-13.1,80.7,0,2018,4,25,16,19,32.33,-0.1548,-0.1191,0.6449,-0.7388
-0.345,0.621,0.879,-208.1,28,140.5,0,2018,4,25,16,19,32.35,-0.1895,-0.111,0.6386,-0.7374
-0.506,0.311,0.161,-252.8,28,172.5,1023,2018,4,25,16,19,32.37,-0.2366,-0.0995,0.6241,-0.7378
-0.378,0.015,-0.913,-231.1,-54.6,162.6,1023,2018,4,25,16,19,32.39,-0.2855,-0.0854,0.6123,-0.7322
-0.035,-0.356,-1.583,-152,-135.7,125.6,1023,2018,4,25,16,19,32.43,-0.3257,-0.0715,0.6109,-0.7179
0.101,-0.316,-1.922,-64.9,-311.6,88.4,1023,2018,4,25,16,19,32.45,-0.3537,-0.0586,0.627,-0.6915
0.212,-1.158,-1.739,15,-395.5,46.8,1023,2018,4,25,16,19,32.454,-0.368,-0.0448,0.6632,-0.65
0.252,-1.281,-1.11,74.4,-266,8.3,1023,2018,4,25,16,19,32.473,-0.3678,-0.0379,0.6984,-0.6127
0.256,-0.129,-0.923,113.3,-192.7,-23.7,1023,2018,4,25,16,19,32.492,-0.3556,-0.0411,0.7219,-0.592
0.263,0.212,-0.397,128.3,-300.5,-30,1023,2018,4,25,16,19,32.532,-0.3371,-0.0423,0.7516,-0.5653
0.174,-0.322,0.205,131.4,-291.2,-44.8,1023,2018,4,25,16,19,32.536,-0.3149,-0.038,0.7847,-0.5324
0.073,-0.226,0.888,95.5,-224.1,-58.9,1023,2018,4,25,16,19,32.552,-0.295,-0.0346,0.8112,-0.5035
0,0.127,0.807,49.2,-215.7,-61.8,1023,2018,4,25,16,19,32.57,-0.2795,-0.0293,0.8306,-0.4805
-0.138,0.217,0.844,21.1,-260.6,-42.5,1023,2018,4,25,16,19,32.59,-0.2695,-0.0203,0.8508,-0.4504
-0.314,-0.336,1.128,0.3,-151.9,-18.5,1023,2018,4,25,16,19,32.627,-0.2632,-0.0135,0.8679,-0.4209
-0.355,0.057,1.122,-27.6,45.1,13.5,1023,2018,4,25,16,19,32.647,-0.2629,-0.0178,0.8693,-0.4179
-0.385,0.505,0.858,-66.1,-3.8,52.3,0,2018,4,25,16,19,32.651,-0.2706,-0.0291,0.8625,-0.4264
-0.274,-0.798,-0.013,-90.5,-150.6,60.7,0,2018,4,25,16,19,32.673,-0.2845,-0.0351,0.8649,-0.4119
-0.065,-2.355,-0.559,-71.6,-31.9,2.8,0,2018,4,25,16,19,32.691,-0.2954,-0.0347,0.8689,-0.3956
0.046,-1.771,-0.844,-25.7,122.7,-88.7,0,2018,4,25,16,19,32.713,-0.2931,-0.0329,0.8637,-0.4085
0.105,-0.558,-0.779,10.2,89.4,-153.2,0,2018,4,25,16,19,32.733,-0.2782,-0.0249,0.857,-0.433
-0.06,0.667,-0.251,28,62,-151.3,0,2018,4,25,16,19,32.772,-0.2581,-0.0131,0.8534,-0.4525
-0.231,1.677,0.128,33.5,62.5,-90.1,0,2018,4,25,16,19,32.791,-0.2405,-0.0079,0.849,-0.4702
-0.286,1.933,0.492,21.6,42.6,10.6,0,2018,4,25,16,19,32.796,-0.2318,-0.0152,0.8442,-0.483
-0.277,1.375,0.538,7.4,35.9,100.5,0,2018,4,25,16,19,32.812,-0.2345,-0.0351,0.8385,-0.4904
-0.245,0.475,0.214,-16.3,-15.3,143.7,0,2018,4,25,16,19,32.832,-0.2457,-0.0625,0.8329,-0.4918
-0.004,-1.429,-0.183,-36.2,-45.6,110.3,0,2018,4,25,16,19,32.854,-0.2594,-0.0859,0.8314,-0.4836
0.321,-2.103,-0.497,-29.1,35,5.2,0,2018,4,25,16,19,32.893,-0.2667,-0.0995,0.8274,-0.484
0.367,-1.132,-0.618,-14.8,43,-93.4,0,2018,4,25,16,19,32.911,-0.2615,-0.1003,0.8217,-0.4962
0.155,-0.043,-0.465,6.7,23.9,-130,0,2018,4,25,16,19,32.915,-0.248,-0.0926,0.8186,-0.5096
-0.082,0.469,-0.13,35.9,23.5,-114.8,0,2018,4,25,16,19,32.952,-0.2305,-0.0858,0.8175,-0.5206
-0.225,1.068,0.251,51.7,15.5,-65.4,0,2018,4,25,16,19,32.971,-0.214,-0.0862,0.8152,-0.5311
-0.309,1.136,0.707,39.5,0,8.8,0,2018,4,25,16,19,32.974,-0.2045,-0.095,0.8134,-0.5361
-0.348,0.941,0.914,6.4,26.2,74.8,0,2018,4,25,16,19,33.01,-0.2058,-0.1118,0.808,-0.5404
-0.243,0.841,0.71,-39.7,26.7,122,0,2018,4,25,16,19,33.03,-0.2179,-0.1332,0.7978,-0.546
-0.214,-0.02,0.049,-79.1,-12.4,140.9,0,2018,4,25,16,19,33.034,-0.2389,-0.1539,0.7872,-0.5471
0.035,-1.568,-0.825,-66.5,25.9,99.1,0,2018,4,25,16,19,33.072,-0.2594,-0.1716,0.7765,-0.5478
0.159,-1.862,-1.451,-4.4,42.8,5.2,0,2018,4,25,16,19,33.091,-0.2648,-0.1852,0.7657,-0.5559
0.296,-1.236,-1.339,63.5,-11.8,-88.4,1023,2018,4,25,16,19,33.095,-0.2523,-0.1907,0.7641,-0.5621
0.027,-0.411,-0.647,111.3,-40.2,-133.9,1023,2018,4,25,16,19,33.133,-0.2271,-0.1908,0.7709,-0.5635
-0.329,0.287,0.307,123.9,-10.5,-134.5,1023,2018,4,25,16,19,33.153,-0.1971,-0.1911,0.7784,-0.5644
-0.439,1.182,1.043,89.7,4.8,-95.4,1023,2018,4,25,16,19,33.157,-0.1703,-0.1933,0.781,-0.5688
-0.413,1.628,1.372,20.2,-3.2,-18.8,1023,2018,4,25,16,19,33.179,-0.1584,-0.1971,0.7799,-0.5724
-0.37,1.618,1.296,-49,-0.8,74.3,1023,2018,4,25,16,19,33.199,-0.1648,-0.2048,0.7742,-0.5757
-0.337,1.117,0.813,-100,0,150.8,1023,2018,4,25,16,19,33.219,-0.1876,-0.2184,0.7628,-0.5789
-0.229,0.126,0.025,-128,-20.7,180.1,1023,2018,4,25,16,19,33.239,-0.2207,-0.2354,0.748,-0.5799
0.022,-1.742,-0.843,-106.6,-0.9,138.9,1023,2018,4,25,16,19,33.277,-0.2522,-0.251,0.7323,-0.5804
0.131,-2.576,-1.453,-47.8,24.9,20.5,1023,2018,4,25,16,19,33.281,-0.2666,-0.2618,0.7194,-0.5854
0.377,-1.771,-1.386,20,8.7,-104.3,1023,2018,4,25,16,19,33.298,-0.2583,-0.2629,0.7153,-0.5936
0.189,-0.648,-0.862,73.5,-8.7,-167,1023,2018,4,25,16,19,33.318,-0.2335,-0.2577,0.72,-0.6004
-0.129,0.441,-0.077,108.9,-8.4,-173.7,1023,2018,4,25,16,19,33.337,-0.201,-0.2528,0.7276,-0.6051
-0.331,1.265,0.705,108,-19.4,-128.1,1023,2018,4,25,16,19,33.375,-0.1696,-0.2516,0.7344,-0.6069
-0.418,1.873,1.249,65.3,-15.5,-36.8,0,2018,4,25,16,19,33.394,-0.1499,-0.2557,0.7378,-0.6064
-0.446,1.72,1.271,2.1,8.7,69.3,0,2018,4,25,16,19,33.398,-0.1483,-0.2665,0.7337,-0.607
-0.451,1.285,1.009,-49.8,34.8,154.2,0,2018,4,25,16,19,33.42,-0.1635,-0.2834,0.72,-0.6118
-0.374,0.35,0.319,-89.9,-26.6,192.9,0,2018,4,25,16,19,33.458,-0.1919,-0.3024,0.7036,-0.6136
-0.007,-0.94,-0.454,-95.5,-30.7,170.2,0,2018,4,25,16,19,33.477,-0.2243,-0.3195,0.6881,-0.6115
0.112,-2.171,-1.317,-63.9,-5.2,86.2,0,2018,4,25,16,19,33.481,-0.2459,-0.3327,0.6745,-0.6113
0.223,-2.235,-1.54,-3.9,20.1,-38.5,0,2018,4,25,16,19,33.501,-0.2467,-0.339,0.6661,-0.6168
0.328,-1.074,-1.278,63.8,13.7,-134.2,0,2018,4,25,16,19,33.522,-0.2273,-0.3395,0.666,-0.624
0.031,-0.058,-0.59,117.6,-30.7,-164.2,0,2018,4,25,16,19,33.538,-0.1969,-0.3381,0.6746,-0.6258
-0.38,0.51,0.35,135.2,-33.5,-150.2,0,2018,4,25,16,19,33.574,-0.1637,-0.3377,0.6868,-0.6223
-0.569,1.226,1.268,95.8,-21.8,-94.5,0,2018,4,25,16,19,33.592,-0.1369,-0.3399,0.6953,-0.6182
-0.567,1.495,1.668,14.3,-0.4,-8.8,0,2018,4,25,16,19,33.597,-0.1257,-0.3431,0.6969,-0.617
-0.584,1.281,1.596,-71.1,37.8,73.6,0,2018,4,25,16,19,33.637,-0.1323,-0.3472,0.6881,-0.6232
-0.544,0.699,1.092,-146,9.5,132.3,0,2018,4,25,16,19,33.657,-0.1556,-0.3509,0.6723,-0.6328
-0.3,-0.709,0.126,-183.6,-12.4,137.8,0,2018,4,25,16,19,33.661,-0.1911,-0.3521,0.6547,-0.6408
0.22,-1.767,-1.205,-156.3,70.9,71,0,2018,4,25,16,19,33.681,-0.2191,-0.3509,0.6334,-0.6538
0.501,-1.378,-2.002,-82.1,61.6,-18.7,0,2018,4,25,16,19,33.703,-0.2276,-0.3486,0.6122,-0.672
0.59,-0.556,-2.042,20,-20.7,-86,0,2018,4,25,16,19,33.721,-0.2202,-0.3457,0.6068,-0.6809
0.276,0.243,-1.393,124.7,-60.4,-97.7,0,2018,4,25,16,19,33.742,-0.2012,-0.3485,0.615,-0.678
-0.147,0.947,-0.673,192.4,-74.5,-65.6,0,2018,4,25,16,19,33.76,-0.1757,-0.3617,0.6278,-0.6663
-0.447,1.192,-0.069,210,-142.3,-3.7,0,2018,4,25,16,19,33.78,-0.1544,-0.3832,0.6432,-0.6445
-0.713,0.293,1.236,189.4,-85.5,49.9,0,2018,4,25,16,19,33.801,-0.1425,-0.4096,0.6559,-0.6177
-0.747,-0.151,1.881,107.5,34.7,63,0,2018,4,25,16,19,33.82,-0.1322,-0.4358,0.6525,-0.6055
-0.627,-0.498,2.06,-14.7,55.9,52,1023,2018,4,25,16,19,33.84,-0.1287,-0.451,0.6397,-0.6088
-0.405,-0.786,1.496,-128.4,-29.4,17,1023,2018,4,25,16,19,33.879,-0.1396,-0.4487,0.6308,-0.6173
-0.153,-1.443,0.62,-200.7,-33.5,-35.1,1023,2018,4,25,16,19,33.901,-0.1611,-0.4298,0.6292,-0.6271
-0.078,-1.225,-0.205,-213.6,160.7,-89.2,1023,2018,4,25,16,19,33.905,-0.1718,-0.4047,0.6159,-0.6536
-0.02,0.088,-1.044,-195.2,208.9,-108.3,1023,2018,4,25,16,19,33.921,-0.1659,-0.3797,0.5874,-0.6951
0.254,0.785,-1.587,-137.4,93.3,-96.6,1023,2018,4,25,16,19,33.961,-0.159,-0.3561,0.5658,-0.7264
0.348,1.149,-1.891,-45.6,1.7,-61.3,1023,2018,4,25,16,19,33.966,-0.1543,-0.3409,0.5584,-0.7403
0.304,1.304,-1.711,63.4,-22.9,-5.3,1023,2018,4,25,16,19,33.984,-0.1491,-0.3417,0.5581,-0.7412
0.093,1.338,-1.034,147.7,-54.9,50.1,1023,2018,4,25,16,19,34.004,-0.1431,-0.3603,0.5596,-0.7324
-0.09,1.011,-0.717,186.4,-146.8,93.6,1023,2018,4,25,16,19,34.021,-0.1417,-0.3897,0.5673,-0.7114
-0.27,0.052,-0.146,198.9,-180.4,112.8,1023,2018,4,25,16,19,34.059,-0.1466,-0.4227,0.5814,-0.6794
-0.49,-0.881,0.752,179.9,-116.6,98.1,1023,2018,4,25,16,19,34.079,-0.1502,-0.4548,0.5918,-0.6482
-0.613,-1.369,1.451,106.4,-28,47.7,1023,2018,4,25,16,19,34.083,-0.1484,-0.4792,0.5933,-0.6294
-0.549,-1.356,1.554,4.6,-46.8,-14.8,1023,2018,4,25,16,19,34.103,-0.1466,-0.4882,0.5934,-0.6228
-0.469,-1.258,1.323,-83.8,-45,-69,0,2018,4,25,16,19,34.123,-0.1512,-0.4799,0.5978,-0.6239
-0.456,-0.853,0.853,-142.3,37.5,-96.7,0,2018,4,25,16,19,34.16,-0.1543,-0.4602,0.5984,-0.6372
-0.323,-0.299,0.384,-168.2,97.1,-97.4,0,2018,4,25,16,19,34.181,-0.1535,-0.4362,0.5898,-0.6619
-0.073,0.172,-0.068,-166,100.5,-84.9,0,2018,4,25,16,19,34.185,-0.1499,-0.4108,0.5762,-0.6903
0.111,0.366,-0.629,-141.8,91,-67.4,0,2018,4,25,16,19,34.224,-0.1491,-0.3895,0.5616,-0.7144
0.146,0.421,-1.047,-92.3,116.6,-46.5,0,2018,4,25,16,19,34.228,-0.1458,-0.3745,0.545,-0.7357
0.167,0.637,-1.094,-33,95.9,-24.5,0,2018,4,25,16,19,34.244,-0.1391,-0.3681,0.5275,-0.7528
0.175,0.855,-0.913,19.6,28.9,-1.2,0,2018,4,25,16,19,34.261,-0.1331,-0.3699,0.5165,-0.7606
0.155,0.92,-0.634,55.2,-26.6,29.5,0,2018,4,25,16,19,34.299,-0.1309,-0.3783,0.5135,-0.7589
0.026,0.829,-0.219,74.5,-47.2,61.6,0,2018,4,25,16,19,34.32,-0.1328,-0.3922,0.5136,-0.7513
-0.038,0.68,-0.056,78,-59,88.7,0,2018,4,25,16,19,34.324,-0.1386,-0.4099,0.5134,-0.741
-0.105,0.33,-0.043,78,-86.5,110.7,0,2018,4,25,16,19,34.363,-0.1495,-0.4292,0.5135,-0.7277
-0.161,-0.444,0.156,77.6,-64.8,109,0,2018,4,25,16,19,34.384,-0.1608,-0.4478,0.5135,-0.714
-0.287,-1.338,0.155,69.2,-29.4,70,0,2018,4,25,16,19,34.388,-0.1682,-0.4662,0.51,-0.7029
-0.336,-1.648,0.297,43.9,9.2,-2.9,0,2018,4,25,16,19,34.407,-0.1665,-0.4788,0.505,-0.6984
-0.28,-1.384,0.328,4.4,-12,-79.5,0,2018,4,25,16,19,34.428,-0.1579,-0.4807,0.5044,-0.6996
-0.141,-0.859,0.23,-31.6,-3.2,-133.8,0,2018,4,25,16,19,34.447,-0.1458,-0.4712,0.5103,-0.7044
-0.156,-0.125,0.117,-47.7,47,-150.1,0,2018,4,25,16,19,34.466,-0.1296,-0.4549,0.5153,-0.7145
-0.155,0.752,0.099,-45.3,87.4,-128.7,0,2018,4,25,16,19,34.485,-0.1099,-0.439,0.5136,-0.7289
0.053,1.617,0.042,-37,59.7,-70.1,0,2018,4,25,16,19,34.504,-0.0945,-0.427,0.5083,-0.7418
0.18,1.729,-0.032,-19.1,29.2,13.5,0,2018,4,25,16,19,34.543,-0.0904,-0.422,0.5035,-0.7484
0.111,1.446,-0.011,3,39.6,94.5,0,2018,4,25,16,19,34.564,-0.0959,-0.4272,0.4933,-0.7516
-0.027,0.982,0.034,16.1,33.4,146.1,1023,2018,4,25,16,19,34.568,-0.1079,-0.4406,0.4769,-0.7528
-0.145,0.45,-0.047,14.1,-50.6,165.9,1023,2018,4,25,16,19,34.584,-0.1277,-0.4563,0.4639,-0.7484
-0.22,-0.978,-0.178,2.1,-78.5,146.5,1023,2018,4,25,16,19,34.623,-0.1526,-0.4682,0.4587,-0.7395
-0.197,-2.298,-0.295,2.8,3.1,69,1023,2018,4,25,16,19,34.643,-0.1691,-0.4779,0.4507,-0.7346
-0.117,-2.173,-0.364,3.1,27.2,-49.5,1023,2018,4,25,16,19,34.647,-0.1661,-0.4825,0.4416,-0.7378
0.038,-1.383,-0.307,1.1,-14.3,-147.2,1023,2018,4,25,16,19,34.667,-0.1511,-0.4769,0.4456,-0.7423
-0.056,-0.585,-0.143,6.8,-11.4,-192.7,1023,2018,4,25,16,19,34.687,-0.1288,-0.4649,0.4585,-0.7463
-0.24,0.561,0.171,17.8,15.9,-192.3,1023,2018,4,25,16,19,34.728,-0.101,-0.4519,0.4711,-0.7507
-0.159,1.763,0.348,22.6,1.3,-129.3,1023,2018,4,25,16,19,34.748,-0.0767,-0.4418,0.4811,-0.7532
-0.129,2.179,0.495,20.9,-12.1,-18.2,1023,2018,4,25,16,19,34.752,-0.0657,-0.4386,0.4876,-0.7519
-0.178,1.642,0.493,11.6,13.2,94,1023,2018,4,25,16,19,34.768,-0.0699,-0.4445,0.4842,-0.7502
-0.3,1.117,0.403,1.8,41.8,169.2,1023,2018,4,25,16,19,34.788,-0.0846,-0.4575,0.4683,-0.751
-0.348,0.407,0.221,-17.1,-23.3,195.3,1023,2018,4,25,16,19,34.808,-0.1085,-0.4721,0.4506,-0.7498
-0.263,-1.022,-0.074,-40,-51.4,172.5,0,2018,4,25,16,19,34.827,-0.1392,-0.4821,0.4391,-0.7451
-0.143,-2.285,-0.47,-44,1.7,87.2,0,2018,4,25,16,19,34.848,-0.1611,-0.487,0.427,-0.7446
0.008,-2.368,-0.656,-36.1,19.8,-39.3,0,2018,4,25,16,19,34.868,-0.1643,-0.4856,0.4177,-0.75
0.099,-1.423,-0.492,-25.3,6.2,-145.3,0,2018,4,25,16,19,34.887,-0.1512,-0.4766,0.4194,-0.7576
-0.04,-0.478,-0.236,-9.1,20,-191.5,0,2018,4,25,16,19,34.926,-0.1276,-0.4629,0.4286,-0.7652
-0.202,0.45,0.046,9,23.4,-190.4,0,2018,4,25,16,19,34.945,-0.0977,-0.4481,0.4392,-0.7723
-0.144,1.381,0.19,18.9,16.8,-139.2,0,2018,4,25,16,19,34.949,-0.072,-0.4379,0.4484,-0.7758
-0.11,2.307,0.374,24.1,-23.7,-38.3,0,2018,4,25,16,19,34.972,-0.0581,-0.434,0.4552,-0.7752
-0.19,2.052,0.443,21.2,-17.5,88.9,0,2018,4,25,16,19,34.991,-0.0622,-0.4392,0.4565,-0.7711
-0.326,1.361,0.407,15.4,48,187.3,0,2018,4,25,16,19,35.007,-0.0788,-0.4534,0.4428,-0.7694
-0.345,0.781,0.217,-0.4,-1.7,230,0,2018,4,25,16,19,35.043,-0.104,-0.4712,0.4207,-0.7681
-0.229,-1.144,-0.219,-24.2,-76,208.1,0,2018,4,25,16,19,35.064,-0.1391,-0.4849,0.4066,-0.7615
-0.075,-2.897,-0.702,-20.3,-17.4,96.2,0,2018,4,25,16,19,35.068,-0.1654,-0.4926,0.3964,-0.7567
0.179,-2.531,-0.758,0.5,22.6,-57.9,0,2018,4,25,16,19,35.106,-0.1658,-0.4949,0.3885,-0.7593
0.213,-1.137,-0.504,18.4,-4.8,-161.9,0,2018,4,25,16,19,35.127,-0.1467,-0.4905,0.3933,-0.7636
-0.047,-0.025,-0.114,38.3,5,-190.7,0,2018,4,25,16,19,35.131,-0.1197,-0.483,0.4062,-0.7663
-0.214,1.094,0.14,51.4,-12.7,-161.5,0,2018,4,25,16,19,35.17,-0.091,-0.4761,0.4205,-0.7668
-0.221,1.911,0.346,59.6,-53.9,-69.5,0,2018,4,25,16,19,35.19,-0.0738,-0.4746,0.435,-0.7615
-0.27,2.166,0.431,60,-94.9,47.6,0,2018,4,25,16,19,35.194,-0.0743,-0.4809,0.4466,-0.7507
-0.408,1.504,0.278,56.1,-95.7,154.6,0,2018,4,25,16,19,35.21,-0.092,-0.4954,0.4513,-0.7364
-0.553,0.538,0.371,42.4,-98.3,214.8,0,2018,4,25,16,19,35.229,-0.121,-0.515,0.4476,-0.7209
-0.315,-0.796,0.371,15.7,-88.9,208.2,0,2018,4,25,16,19,35.25,-0.154,-0.5336,0.4383,-0.7065
-0.061,-2.064,0.169,-17.3,-96.7,122.4,1023,2018,4,25,16,19,35.27,-0.1829,-0.5452,0.4302,-0.6957
0.216,-2.355,0.169,-54,-92.4,-17.4,1023,2018,4,25,16,19,35.29,-0.1992,-0.5443,0.4302,-0.692
0.246,-1.626,0.142,-84.1,-45.6,-138.7,1023,2018,4,25,16,19,35.329,-0.1988,-0.5302,0.4382,-0.698
-0.039,-0.629,-0.046,-100.5,27.7,-199.7,1023,2018,4,25,16,19,35.35,-0.1834,-0.5081,0.446,-0.7136
-0.243,0.329,-0.257,-94,89.7,-207.3,1023,2018,4,25,16,19,35.354,-0.1578,-0.4836,0.4479,-0.7351
-0.244,1.223,-0.642,-62.7,63.6,-162,1023,2018,4,25,16,19,35.372,-0.1318,-0.4623,0.4472,-0.7542
-0.108,1.634,-0.962,-13.2,-8.8,-74.1,1023,2018,4,25,16,19,35.41,-0.1165,-0.4496,0.45,-0.7626
-0.017,1.481,-0.928,53.4,-21.2,22.5,1023,2018,4,25,16,19,35.432,-0.1129,-0.4509,0.4531,-0.7606
-0.16,1.166,-0.607,115.3,-0.2,105.6,1023,2018,4,25,16,19,35.436,-0.1152,-0.4686,0.4483,-0.7523
-0.334,0.733,-0.351,146,-62,155.1,1023,2018,4,25,16,19,35.473,-0.1241,-0.4966,0.4415,-0.7368
-0.371,-0.598,0.44,139.4,-69.7,154,1023,2018,4,25,16,19,35.491,-0.1391,-0.5258,0.4384,-0.7154
-0.297,-1.46,1.102,92.8,-5,95.4,1023,2018,4,25,16,19,35.496,-0.1488,-0.5501,0.4317,-0.6991
-0.146,-1.645,1.471,6.6,28.7,5.7,1023,2018,4,25,16,19,35.512,-0.1487,-0.5615,0.4233,-0.6951
-0.013,-1.252,1.215,-87.8,20,-80.6,1023,2018,4,25,16,19,35.55,-0.1436,-0.5548,0.4205,-0.7033
-0.116,-0.651,0.621,-152.1,23.5,-134.8,0,2018,4,25,16,19,35.571,-0.1367,-0.5322,0.4236,-0.72
-0.183,-0.002,-0.225,-160.3,94.1,-150.1,0,2018,4,25,16,19,35.575,-0.1244,-0.5027,0.4238,-0.743
-0.105,0.893,-0.991,-115.8,107.4,-114.2,0,2018,4,25,16,19,35.595,-0.1071,-0.4772,0.4161,-0.7665
0.066,1.417,-1.434,-36.4,40,-43.5,0,2018,4,25,16,19,35.615,-0.0954,-0.4628,0.4101,-0.78
0.076,1.49,-1.4,53.5,-51.5,37.7,0,2018,4,25,16,19,35.649,-0.095,-0.4645,0.4103,-0.7789
-0.159,1.016,-0.952,124.4,-93.4,108.6,0,2018,4,25,16,19,35.67,-0.1049,-0.4816,0.4152,-0.7645
-0.329,0.552,-0.455,155.8,-117.4,148.3,0,2018,4,25,16,19,35.675,-0.1206,-0.5086,0.4188,-0.7424
-0.315,-0.562,0.436,148.9,-98.5,142.8,0,2018,4,25,16,19,35.695,-0.1386,-0.5374,0.4215,-0.7171
-0.19,-1.186,1.17,100.9,-25.1,87.1,0,2018,4,25,16,19,35.715,-0.149,-0.561,0.4184,-0.6985
0.005,-1.389,1.557,16.6,15.6,6.2,0,2018,4,25,16,19,35.734,-0.15,-0.5724,0.4128,-0.6923
0.102,-0.961,1.377,-73,24.9,-67.6,0,2018,4,25,16,19,35.753,-0.1451,-0.568,0.4091,-0.6992
0.112,-0.595,0.848,-134.3,0.5,-117.5,0,2018,4,25,16,19,35.792,-0.1391,-0.5492,0.4115,-0.7138
-0.039,-0.603,0.253,-155.2,76.2,-145.4,0,2018,4,25,16,19,35.813,-0.13,-0.5222,0.4146,-0.7337
-0.2,0.071,-0.313,-147.5,187.8,-147.1,0,2018,4,25,16,19,35.817,-0.1081,-0.4952,0.404,-0.7614
-0.183,0.713,-0.92,-119.6,151.8,-116.8,0,2018,4,25,16,19,35.835,-0.0841,-0.4711,0.3875,-0.7878
-0.184,0.999,-1.305,-62.5,40.8,-65.9,0,2018,4,25,16,19,35.855,-0.0698,-0.4535,0.3804,-0.8029
-0.191,0.895,-1.48,16.5,-15.9,-3.5,0,2018,4,25,16,19,35.892,-0.0663,-0.4482,0.382,-0.8054
-0.232,0.801,-1.335,100.2,-25.4,59.5,0,2018,4,25,16,19,35.912,-0.0679,-0.4587,0.3827,-0.7989
-0.309,0.69,-0.986,163.7,-79.6,106.9,0,2018,4,25,16,19,35.916,-0.0748,-0.4827,0.384,-0.7834
-0.342,-0.168,-0.15,196.7,-114.2,121.8,0,2018,4,25,16,19,35.934,-0.0876,-0.5139,0.391,-0.7584
-0.221,-0.895,0.919,181.6,-61.9,90.6,1023,2018,4,25,16,19,35.954,-0.0968,-0.5451,0.3957,-0.7326
0.067,-1.076,1.832,105.8,6.6,24.3,1023,2018,4,25,16,19,35.99,-0.096,-0.567,0.3958,-0.7159
0.284,-0.768,1.963,0.6,3.9,-37.4,1023,2018,4,25,16,19,36.009,-0.0907,-0.5726,0.3981,-0.7109
0.247,-0.406,1.491,-90.6,-12.1,-80.8,1023,2018,4,25,16,19,36.014,-0.0872,-0.5616,0.406,-0.7155
0.068,-0.381,0.762,-140.4,30.7,-102.3,1023,2018,4,25,16,19,36.053,-0.0844,-0.5395,0.4153,-0.7274
-0.105,-0.224,-0.075,-150.2,165,-107.8,1023,2018,4,25,16,19,36.071,-0.0725,-0.5137,0.4111,-0.7494
-0.222,0.388,-0.883,-134.4,161.2,-90.5,1023,2018,4,25,16,19,36.074,-0.0537,-0.4892,0.3953,-0.7754
-0.279,0.369,-1.545,-86.9,38.2,-65.5,1023,2018,4,25,16,19,36.113,-0.0428,-0.4691,0.3885,-0.7918
-0.301,0.151,-1.858,1,-14,-39.7,1023,2018,4,25,16,19,36.135,-0.0387,-0.4594,0.3934,-0.7953
-0.333,0.424,-1.703,102,-6.9,-6.2,1023,2018,4,25,16,19,36.14,-0.0325,-0.4651,0.3975,-0.7902
-0.383,0.777,-1.131,179.1,-69,32.5,1023,2018,4,25,16,19,36.16,-0.0273,-0.4856,0.4026,-0.7754
-0.383,0.193,-0.036,208.8,-110.9,61.3,1023,2018,4,25,16,19,36.183,-0.0284,-0.5142,0.4147,-0.7501
-0.26,-0.444,1.261,178.9,-42.1,52.6,1023,2018,4,25,16,19,36.199,-0.0295,-0.5433,0.4234,-0.7243
-0.053,-0.476,2.042,93.3,23.7,18.9,1023,2018,4,25,16,19,36.219,-0.0246,-0.5627,0.4241,-0.709
0.137,-0.325,2.056,-20.4,23.9,-14.2,0,2018,4,25,16,19,36.24,-0.0203,-0.5666,0.4245,-0.7058
0.116,-0.185,1.455,-119.6,-16,-37.8,0,2018,4,25,16,19,36.257,-0.0229,-0.5548,0.4305,-0.7115
-0.047,-0.458,0.569,-174.7,-9.5,-56.9,0,2018,4,25,16,19,36.294,-0.0316,-0.5315,0.4404,-0.7228
-0.195,-0.444,-0.531,-175.2,94.2,-74.5,0,2018,4,25,16,19,36.314,-0.0334,-0.5031,0.4423,-0.7416
-0.254,0.125,-1.412,-128.9,102.5,-64.5,0,2018,4,25,16,19,36.318,-0.0268,-0.4775,0.4348,-0.7629
-0.143,0.582,-2.005,-39.1,-5,-38.7,0,2018,4,25,16,19,36.356,-0.0223,-0.4621,0.4333,-0.7733
-0.174,0.551,-1.983,76.5,-91.8,3.8,0,2018,4,25,16,19,36.374,-0.0235,-0.463,0.4443,-0.7665
-0.303,0.555,-1.393,175.3,-83,50.2,0,2018,4,25,16,19,36.379,-0.0246,-0.482,0.4558,-0.7478
-0.407,0.464,-0.331,224,-84.1,79.8,0,2018,4,25,16,19,36.419,-0.024,-0.5131,0.4627,-0.7224
-0.379,-0.252,0.937,206.3,-75.6,79.8,0,2018,4,25,16,19,36.44,-0.0248,-0.5461,0.4689,-0.6936
-0.192,-0.769,1.904,135.6,12.2,45,0,2018,4,25,16,19,36.444,-0.022,-0.5713,0.4706,-0.6719
-0.058,-0.592,2.251,17.6,57.8,-1.9,0,2018,4,25,16,19,36.456,-0.0145,-0.5814,0.4681,-0.6652
0,-0.3,1.76,-106.5,-5.5,-37.7,0,2018,4,25,16,19,36.496,-0.0141,-0.5734,0.4714,-0.6698
-0.093,-0.563,0.928,-191.8,-41,-66.6,0,2018,4,25,16,19,36.517,-0.0256,-0.5499,0.4849,-0.6794
-0.208,-0.558,-0.149,-209.3,83.7,-95.5,0,2018,4,25,16,19,36.521,-0.0325,-0.5176,0.4927,-0.6987
-0.184,0.25,-1.098,-172.2,130.7,-87.1,0,2018,4,25,16,19,36.541,-0.0269,-0.4855,0.4867,-0.7256
-0.06,0.737,-1.84,-85.2,29.4,-50.3,0,2018,4,25,16,19,36.561,-0.0222,-0.4629,0.4824,-0.7432
-0.062,0.687,-2.076,33,-56.9,0.9,0,2018,4,25,16,19,36.599,-0.0232,-0.4574,0.4882,-0.7428
-0.26,0.618,-1.715,145,-60.5,55,0,2018,4,25,16,19,36.618,-0.0241,-0.4716,0.4947,-0.7294
-0.418,0.5,-0.843,215.2,-80.3,90.6,0,2018,4,25,16,19,36.622,-0.0233,-0.501,0.4985,-0.707
-0.462,-0.122,0.43,220.2,-93.8,94.3,1023,2018,4,25,16,19,36.661,-0.0233,-0.5349,0.5038,-0.6777
-0.305,-0.732,1.556,163.6,-39.2,61.8,1023,2018,4,25,16,19,36.681,-0.0225,-0.5637,0.5078,-0.6509
-0.082,-0.704,2.186,57.8,23.3,12,1023,2018,4,25,16,19,36.685,-0.0177,-0.5786,0.5087,-0.6371
0,-0.438,1.952,-63.9,26.1,-30.1,1023,2018,4,25,16,19,36.7,-0.0147,-0.5765,0.5106,-0.6376
-0.056,-0.213,1.242,-164.2,-11.7,-58.1,1023,2018,4,25,16,19,36.72,-0.0205,-0.5583,0.5185,-0.6472
-0.183,-0.581,0.303,-213.8,35.9,-79,1023,2018,4,25,16,19,36.74,-0.0316,-0.5289,0.528,-0.6635
-0.201,-0.098,-0.754,-198.2,138.2,-86.4,1023,2018,4,25,16,19,36.778,-0.0325,-0.4961,0.5247,-0.6909
-0.073,0.525,-1.66,-124.3,82.6,-60.1,1023,2018,4,25,16,19,36.799,-0.0283,-0.4694,0.5165,-0.7155
-0.005,0.61,-2.002,-5.1,-7.6,-14.7,1023,2018,4,25,16,19,36.803,-0.0271,-0.458,0.5159,-0.7233
-0.133,0.62,-1.683,114.7,-16.8,35.4,1023,2018,4,25,16,19,36.822,-0.0244,-0.4663,0.5178,-0.7167
-0.347,0.655,-0.933,190.8,-46.3,77.8,1023,2018,4,25,16,19,36.843,-0.0199,-0.4909,0.5181,-0.7
-0.545,0.154,0.255,209.2,-38.7,101.1,1023,2018,4,25,16,19,36.863,-0.0171,-0.5233,0.5181,-0.6762
-0.567,-0.281,1.378,169.4,51,96.4,1023,2018,4,25,16,19,36.884,-0.0112,-0.5543,0.5111,-0.6567
-0.445,-0.29,2.019,72.4,133.7,78.2,1023,2018,4,25,16,19,36.903,-0.0013,-0.5754,0.4953,-0.6507
-0.325,-0.063,1.956,-48.8,159.8,71.4,0,2018,4,25,16,19,36.924,0.0054,-0.5819,0.4754,-0.6597
-0.31,0.254,1.336,-149.5,140.6,83.4,0,2018,4,25,16,19,36.962,0.0018,-0.5751,0.4553,-0.6795
-0.266,-0.146,0.63,-213.5,140.1,102.8,0,2018,4,25,16,19,36.982,-0.0127,-0.5594,0.4352,-0.7053
-0.052,-0.782,0.048,-224.4,288.4,112.6,0,2018,4,25,16,19,36.986,-0.0239,-0.5395,0.4016,-0.7396
0.116,-1.275,-0.268,-198.3,529.8,114,0,2018,4,25,16,19,37.002,-0.015,-0.5197,0.3373,-0.7847
0.095,-0.972,-0.505,-162.4,618.4,103.3,0,2018,4,25,16,19,37.039,0.0125,-0.5002,0.2466,-0.8299
0.184,-1.081,-1.028,-138.4,590.1,85.4,0,2018,4,25,16,19,37.057,0.0432,-0.4786,0.154,-0.8633
0.308,-1.756,-1.059,-114.3,579.8,36.5,0,2018,4,25,16,19,37.063,0.0767,-0.4553,0.067,-0.8844
0.251,-1.471,-0.717,-79.6,560.3,-23.8,0,2018,4,25,16,19,37.099,0.1185,-0.4323,-0.0163,-0.8937
-0.117,-0.39,-0.553,-71.8,357.9,-107.6,0,2018,4,25,16,19,37.12,0.1621,-0.4124,-0.0764,-0.8931
-0.197,-0.03,-0.654,-54,49.4,-184.7,0,2018,4,25,16,19,37.124,0.1976,-0.401,-0.0869,-0.8902
-0.289,-0.475,-0.627,-13.6,-93.7,-237.6,0,2018,4,25,16,19,37.145,0.225,-0.4029,-0.0563,-0.8853
-0.49,-0.164,-0.185,21.2,-59.7,-275.1,0,2018,4,25,16,19,37.165,0.2564,-0.4117,-0.0182,-0.8742
-0.558,1.054,0.403,18.5,-65.2,-258.7,0,2018,4,25,16,19,37.203,0.2903,-0.4207,0.0167,-0.8593
-0.484,2.022,0.764,-21.5,-111.2,-181.5,0,2018,4,25,16,19,37.207,0.3142,-0.4265,0.0547,-0.8463
-0.263,1.64,0.662,-74.3,-80.7,-61.4,0,2018,4,25,16,19,37.223,0.3205,-0.4261,0.0906,-0.8411
-0.157,1.108,0.111,-94.9,83.7,46.1,0,2018,4,25,16,19,37.26,0.3166,-0.4153,0.1033,-0.8464
0.001,0.801,-0.115,-99.7,208.7,131.2,0,2018,4,25,16,19,37.28,0.3093,-0.3957,0.0866,-0.8603
-0.123,0.045,-0.004,-97.2,225.5,182.7,0,2018,4,25,16,19,37.284,0.2956,-0.3728,0.0547,-0.8778
-0.093,-0.817,-0.221,-80.1,209.8,175.6,0,2018,4,25,16,19,37.305,0.2779,-0.3496,0.0213,-0.8944
-0.134,-1.095,-0.534,-38.4,174.2,107.9,1023,2018,4,25,16,19,37.327,0.2643,-0.3334,-0.0078,-0.9049
-0.124,-1.191,-0.606,18.5,72,12.8,1023,2018,4,25,16,19,37.346,0.2597,-0.3288,-0.024,-0.9076
-0.288,-1.1,-0.412,76,-58.3,-91.3,1023,2018,4,25,16,19,37.387,0.2643,-0.3392,-0.0174,-0.9026
-0.282,-0.882,-0.296,118.2,-154.8,-170.7,1023,2018,4,25,16,19,37.407,0.2763,-0.3623,0.011,-0.89
-0.317,-0.058,-0.029,142.1,-193.5,-209.8,1023,2018,4,25,16,19,37.411,0.2928,-0.3921,0.0519,-0.8704
-0.125,1.045,0.645,119.2,-216.9,-189.5,1023,2018,4,25,16,19,37.429,0.3085,-0.4222,0.0974,-0.8467
0.03,1.631,1.231,40.2,-213,-93.8,1023,2018,4,25,16,19,37.45,0.3121,-0.445,0.1438,-0.8269
0.112,1.178,0.966,-52.1,-81.2,14,1023,2018,4,25,16,19,37.465,0.3023,-0.4527,0.1768,-0.8199
0.118,0.768,0.288,-108.2,135.1,102.5,1023,2018,4,25,16,19,37.484,0.2913,-0.4421,0.179,-0.8292
-0.026,0.379,-0.02,-136.4,246.7,164.2,1023,2018,4,25,16,19,37.506,0.2805,-0.4188,0.152,-0.8501
-0.071,-0.68,-0.064,-134.1,251.5,170.7,1023,2018,4,25,16,19,37.544,0.2669,-0.39,0.1154,-0.8736
-0.047,-1.328,-0.443,-95.5,195.1,117.1,1023,2018,4,25,16,19,37.565,0.2554,-0.3656,0.0822,-0.8912
-0.158,-1.418,-1.134,-1.8,68.9,0,1023,2018,4,25,16,19,37.569,0.2515,-0.3545,0.0666,-0.8981
-0.32,-0.879,-0.81,91.7,-94,-124.5,1023,2018,4,25,16,19,37.588,0.2608,-0.3633,0.0762,-0.8911
-0.348,-0.453,-0.231,146.6,-244.5,-188.6,0,2018,4,25,16,19,37.607,0.2745,-0.3893,0.1149,-0.8716
-0.294,0.135,0.335,144.1,-282.3,-186.7,0,2018,4,25,16,19,37.628,0.2862,-0.4212,0.1681,-0.8439
-0.22,1.083,1.075,86.4,-228.5,-123.4,0,2018,4,25,16,19,37.648,0.2921,-0.4466,0.2175,-0.8172
-0.023,1.593,1.288,-7.2,-151.8,-18.6,0,2018,4,25,16,19,37.688,0.2871,-0.4596,0.2541,-0.801
-0.01,1.096,0.753,-95.8,-33.8,80.1,0,2018,4,25,16,19,37.709,0.2702,-0.459,0.2735,-0.8008
-0.043,0.247,0.197,-142.3,175.8,143.7,0,2018,4,25,16,19,37.713,0.2522,-0.4439,0.2653,-0.8178
-0.073,-0.008,0.103,-155.5,286.1,181.7,0,2018,4,25,16,19,37.728,0.2391,-0.4177,0.2288,-0.8461
-0.083,-0.634,-0.336,-139.6,247.3,176.1,0,2018,4,25,16,19,37.766,0.2245,-0.3901,0.1856,-0.8734
0.038,-1.447,-1.01,-69.3,169.2,92.5,0,2018,4,25,16,19,37.787,0.2122,-0.3702,0.1537,-0.8912
-0.076,-1.041,-1.175,44.2,50.6,-35.2,0,2018,4,25,16,19,37.791,0.214,-0.3654,0.1388,-0.8951
-0.157,-0.778,-0.711,128.8,-148,-133.8,0,2018,4,25,16,19,37.811,0.2259,-0.3799,0.1542,-0.8836
-0.218,-0.707,-0.238,167.1,-266.4,-178.4,0,2018,4,25,16,19,37.83,0.2389,-0.4074,0.1972,-0.859
-0.295,-0.207,0.241,158.1,-250.9,-179.9,0,2018,4,25,16,19,37.867,0.2515,-0.4363,0.2475,-0.8276
-0.192,0.838,0.851,109.1,-194.5,-143.2,0,2018,4,25,16,19,37.89,0.2627,-0.4578,0.2908,-0.7979
-0.082,1.548,1.235,27.1,-151.3,-67.6,0,2018,4,25,16,19,37.894,0.2662,-0.4694,0.3247,-0.7767
-0.043,1.277,1.082,-63,-101,23.8,0,2018,4,25,16,19,37.912,0.2559,-0.4713,0.3498,-0.768
-0.087,0.557,0.546,-131,40,100.6,0,2018,4,25,16,19,37.928,0.2369,-0.4633,0.3578,-0.7753
-0.097,0.003,0.054,-163.1,201.1,147.9,0,2018,4,25,16,19,37.968,0.2202,-0.4437,0.3399,-0.7993
-0.074,-0.39,-0.184,-161.8,247.6,166.2,0,2018,4,25,16,19,37.988,0.207,-0.4162,0.3043,-0.8314
0.058,-0.926,-0.792,-133.3,176.4,142.5,0,2018,4,25,16,19,37.992,0.1905,-0.3941,0.2702,-0.8574
0.019,-1.582,-1.546,-24.3,88.2,47.5,1023,2018,4,25,16,19,38.011,0.1799,-0.3821,0.2499,-0.8712
-0.096,-1.199,-1.121,90.4,-48.3,-79.9,1023,2018,4,25,16,19,38.031,0.186,-0.3861,0.2487,-0.8685
-0.274,-0.897,-0.645,162.1,-260.4,-163.3,1023,2018,4,25,16,19,38.051,0.1994,-0.405,0.2801,-0.8471
-0.52,-0.427,-0.032,197.7,-329.9,-204.3,1023,2018,4,25,16,19,38.073,0.2133,-0.4325,0.335,-0.8093
-0.499,0.735,1.079,152.7,-314.4,-177.2,1023,2018,4,25,16,19,38.092,0.2262,-0.4565,0.3903,-0.7668
-0.341,1.399,1.988,56.7,-236.6,-84,1023,2018,4,25,16,19,38.129,0.2278,-0.4715,0.4367,-0.7314
-0.181,1.603,1.806,-63.8,-95.1,25.3,1023,2018,4,25,16,19,38.149,0.2168,-0.4745,0.4626,-0.7166
-0.068,0.82,0.856,-158.5,90.1,118.4,1023,2018,4,25,16,19,38.153,0.1971,-0.4652,0.4637,-0.7277
0.062,0.144,0.123,-188.7,216.2,165.7,1023,2018,4,25,16,19,38.192,0.1767,-0.4475,0.4389,-0.7588
0.015,-0.666,-0.276,-171.8,224.4,165.1,1023,2018,4,25,16,19,38.197,0.1588,-0.426,0.4024,-0.7945
0.091,-1.478,-1.013,-115.2,153.7,99.5,1023,2018,4,25,16,19,38.214,0.1431,-0.4089,0.3714,-0.8211
-0.036,-1.49,-1.442,8.4,56.5,-35.9,1023,2018,4,25,16,19,38.232,0.1424,-0.4005,0.3565,-0.8319
-0.206,-0.932,-0.928,113.8,-111.9,-155.7,1023,2018,4,25,16,19,38.251,0.1596,-0.4043,0.3672,-0.8222
-0.39,-0.46,-0.339,168,-233,-206.9,0,2018,4,25,16,19,38.286,0.1822,-0.4175,0.4044,-0.7929
-0.498,0.203,0.479,154.4,-232.8,-196.3,0,2018,4,25,16,19,38.309,0.2048,-0.432,0.4479,-0.7554
-0.451,1.144,1.429,98,-160.4,-132.5,0,2018,4,25,16,19,38.313,0.2213,-0.442,0.4835,-0.7223
-0.289,1.864,1.682,0,-82.1,-32.9,0,2018,4,25,16,19,38.352,0.2266,-0.445,0.5045,-0.7042
-0.138,1.201,0.93,-101.6,27.4,79.4,0,2018,4,25,16,19,38.371,0.2159,-0.4412,0.5108,-0.7055
-0.14,0.557,0.295,-156.3,139.6,156.9,0,2018,4,25,16,19,38.376,0.1957,-0.4313,0.4965,-0.7273
-0.101,-0.246,-0.322,-161,160.2,185.8,0,2018,4,25,16,19,38.395,0.1707,-0.419,0.47,-0.7578
0.01,-1.121,-0.966,-124.6,98.4,149.6,0,2018,4,25,16,19,38.432,0.1446,-0.4093,0.4456,-0.7828
0.136,-1.853,-1.591,-5.2,53.8,42.5,0,2018,4,25,16,19,38.454,0.1314,-0.4055,0.4309,-0.7952
-0.078,-0.996,-1.385,117.4,-62.7,-74.5,0,2018,4,25,16,19,38.458,0.1393,-0.4124,0.4309,-0.7904
-0.198,-0.525,-0.714,186.8,-244.5,-139.6,0,2018,4,25,16,19,38.474,0.1551,-0.4289,0.4576,-0.7631
-0.364,-0.564,-0.056,184.2,-295.9,-150.3,0,2018,4,25,16,19,38.511,0.1689,-0.4489,0.5006,-0.7205
-0.427,-0.214,0.715,166.6,-167.3,-128.8,0,2018,4,25,16,19,38.531,0.1821,-0.465,0.5375,-0.6793
-0.471,1.27,1.489,105.9,-20.2,-80.7,0,2018,4,25,16,19,38.535,0.2016,-0.4731,0.5519,-0.6563
-0.333,1.781,1.633,-3,19.2,9,0,2018,4,25,16,19,38.573,0.2109,-0.4745,0.5544,-0.6503
-0.247,1.078,1.08,-97.1,98,105.7,0,2018,4,25,16,19,38.594,0.2027,-0.4715,0.5476,-0.6607
-0.179,0.266,0.446,-139,272.1,174.8,0,2018,4,25,16,19,38.598,0.1888,-0.4633,0.5205,-0.6918
-0.068,-0.103,0.046,-131.9,355.3,214,0,2018,4,25,16,19,38.617,0.1791,-0.4509,0.47,-0.7373
0.117,-0.909,-0.182,-110.4,294.9,197.7,0,2018,4,25,16,19,38.637,0.1671,-0.4404,0.4158,-0.7778
0.193,-1.867,-0.409,-82.7,180.3,106.2,0,2018,4,25,16,19,38.656,0.1568,-0.4307,0.3758,-0.8053
0.251,-2.077,-0.61,-40,83.2,-35.3,0,2018,4,25,16,19,38.674,0.1575,-0.4204,0.3584,-0.8184
0.13,-1.359,-0.507,-8.6,-54.9,-152.8,1023,2018,4,25,16,19,38.695,0.1714,-0.4101,0.366,-0.8175
-0.14,-0.599,-0.37,12.5,-166.9,-220,1023,2018,4,25,16,19,38.715,0.1902,-0.4012,0.3978,-0.8028
-0.423,0.39,0.002,24.7,-200.1,-235.1,1023,2018,4,25,16,19,38.735,0.2112,-0.3922,0.4407,-0.7793
-0.519,1.203,0.375,23.5,-174.4,-194,1023,2018,4,25,16,19,38.773,0.2294,-0.3849,0.481,-0.7534
-0.528,1.535,0.561,5.8,-102.2,-107.5,1023,2018,4,25,16,19,38.793,0.2406,-0.3793,0.5099,-0.7335
-0.529,1.52,0.481,-11.6,23.7,-6.7,1023,2018,4,25,16,19,38.797,0.2448,-0.3751,0.5197,-0.7274
-0.474,1.369,0.325,-19.5,132.2,91.1,1023,2018,4,25,16,19,38.818,0.2429,-0.3728,0.5079,-0.7375
-0.426,0.869,0.231,-7,187,162.8,1023,2018,4,25,16,19,38.836,0.235,-0.375,0.48,-0.7573
-0.267,0.204,0.323,3.8,199.7,197.8,1023,2018,4,25,16,19,38.874,0.2232,-0.3814,0.4431,-0.7799
0.026,-0.546,0.049,3.9,179.8,201.3,1023,2018,4,25,16,19,38.894,0.2083,-0.3893,0.4047,-0.8007
0.192,-1.395,-0.254,3.1,145.3,160.9,1023,2018,4,25,16,19,38.898,0.1932,-0.3962,0.3713,-0.8171
0.351,-1.922,-0.315,6,112.9,66.8,1023,2018,4,25,16,19,38.937,0.1857,-0.3993,0.3462,-0.8283
0.313,-1.448,-0.27,9.1,-9.8,-45.7,1023,2018,4,25,16,19,38.957,0.1891,-0.3987,0.3387,-0.8309
0.128,-1.067,-0.469,20.3,-174.5,-138.1,0,2018,4,25,16,19,38.961,0.1965,-0.3978,0.3614,-0.82
-0.118,-0.363,-0.197,43.1,-224.1,-199.2,0,2018,4,25,16,19,38.978,0.2087,-0.3978,0.4029,-0.7973
-0.348,0.652,0.325,45.3,-220.7,-196.7,0,2018,4,25,16,19,38.997,0.2253,-0.3958,0.4469,-0.7699
-0.474,1.4,0.787,23,-184.1,-136.3,0,2018,4,25,16,19,39.037,0.2363,-0.3946,0.4852,-0.7435
-0.501,1.576,0.864,-9.8,-83.2,-43.6,0,2018,4,25,16,19,39.057,0.2389,-0.3929,0.5097,-0.727
-0.406,1.434,0.55,-31.8,44.8,52.4,0,2018,4,25,16,19,39.062,0.235,-0.3908,0.513,-0.7271
-0.283,1.081,0.34,-38.2,125.9,134.8,0,2018,4,25,16,19,39.08,0.2257,-0.3906,0.4969,-0.7412
-0.162,0.257,0.191,-43.1,145.6,190.5,0,2018,4,25,16,19,39.1,0.2095,-0.3938,0.4706,-0.7612
-0.067,-0.505,-0.13,-36.4,168.7,207.9,0,2018,4,25,16,19,39.12,0.19,-0.3986,0.4373,-0.7834
0.188,-1.375,-0.542,-20.5,181.9,170.9,0,2018,4,25,16,19,39.14,0.1732,-0.4027,0.4014,-0.8041
0.271,-1.647,-0.412,1.4,133.3,71.3,0,2018,4,25,16,19,39.161,0.167,-0.4044,0.3708,-0.8191
0.246,-1.6,-0.453,16.9,-5.6,-41.9,0,2018,4,25,16,19,39.179,0.17,-0.4044,0.3622,-0.8223
0.083,-1.246,-0.547,39.7,-123.8,-148.7,0,2018,4,25,16,19,39.201,0.1809,-0.4039,0.3797,-0.8123
-0.13,-0.549,-0.346,69.4,-191.3,-219.1,0,2018,4,25,16,19,39.22,0.1996,-0.4036,0.4152,-0.7904
-0.362,0.43,0.173,83.6,-219.5,-236.6,0,2018,4,25,16,19,39.241,0.2232,-0.4026,0.4578,-0.7604
-0.493,1.204,0.791,61.8,-227.9,-186.3,0,2018,4,25,16,19,39.26,0.2415,-0.4032,0.5006,-0.7269
-0.505,1.484,1.148,14.4,-148.4,-91.2,0,2018,4,25,16,19,39.279,0.2485,-0.4034,0.5338,-0.7003
-0.439,1.477,0.968,-36.2,-7.7,12.7,0,2018,4,25,16,19,39.319,0.2463,-0.4014,0.5471,-0.6919
-0.263,1.107,0.614,-76.1,126.5,108.3,0,2018,4,25,16,19,39.339,0.2375,-0.3972,0.5382,-0.7042
-0.161,0.625,0.404,-98.5,198.9,181.5,1023,2018,4,25,16,19,39.343,0.2225,-0.3924,0.5111,-0.7315
-0.095,-0.148,0.009,-108.9,208.9,225.8,1023,2018,4,25,16,19,39.362,0.201,-0.3877,0.4745,-0.7642
0,-1.163,-0.537,-96.3,197,211.8,1023,2018,4,25,16,19,39.381,0.1756,-0.3842,0.4362,-0.7944
0.113,-1.68,-0.873,-51.1,172,122.3,1023,2018,4,25,16,19,39.401,0.1588,-0.3804,0.401,-0.818
0.178,-1.544,-0.824,11.3,70.8,-2.3,1023,2018,4,25,16,19,39.42,0.1576,-0.3782,0.3797,-0.8294
0.061,-1.089,-0.611,57,-110.5,-108.2,1023,2018,4,25,16,19,39.44,0.1674,-0.3799,0.3863,-0.8236
-0.172,-0.787,-0.501,94.4,-219,-175.8,1023,2018,4,25,16,19,39.461,0.1815,-0.3859,0.4193,-0.8013
-0.423,-0.071,0.04,114.7,-212.4,-206,1023,2018,4,25,16,19,39.481,0.2017,-0.3928,0.4595,-0.7705
-0.527,0.999,0.821,97.5,-199.5,-177.6,1023,2018,4,25,16,19,39.5,0.2227,-0.3981,0.4962,-0.7386
-0.495,1.634,1.357,43.1,-184.1,-92.8,1023,2018,4,25,16,19,39.536,0.2327,-0.4024,0.528,-0.7106
-0.38,1.514,1.229,-24.6,-122.6,11,1023,2018,4,25,16,19,39.556,0.2271,-0.4057,0.5504,-0.6934
-0.291,0.996,0.687,-73.8,-9.8,100.4,1023,2018,4,25,16,19,39.56,0.2099,-0.4076,0.5566,-0.6926
-0.102,0.205,0.067,-91.5,161.7,157.5,1023,2018,4,25,16,19,39.599,0.1912,-0.4066,0.541,-0.7108
-0.085,0.033,-0.131,-79.4,238.6,188.4,1023,2018,4,25,16,19,39.619,0.1766,-0.404,0.5046,-0.7422
-0.141,-0.212,-0.351,-55.2,180.6,182.3,0,2018,4,25,16,19,39.623,0.163,-0.4016,0.4648,-0.772
-0.341,-0.339,-0.954,-5.7,9.2,150.3,0,2018,4,25,16,19,39.644,0.1447,-0.4076,0.4411,-0.7862
-0.535,-0.299,-1.528,83.8,-180.1,116.7,0,2018,4,25,16,19,39.682,0.123,-0.4253,0.4429,-0.7795
-0.725,0.036,-1.65,175.3,-390.2,109.4,0,2018,4,25,16,19,39.702,0.0964,-0.4577,0.47,-0.7485
-0.828,-0.068,-1.049,221.6,-538.5,111.9,0,2018,4,25,16,19,39.706,0.0607,-0.4998,0.5162,-0.6927
-0.379,0.126,-1.044,221.7,-643.3,140.8,0,2018,4,25,16,19,39.724,0.0135,-0.542,0.5702,-0.617
-0.058,-0.351,-0.952,186.7,-658.8,169.9,0,2018,4,25,16,19,39.745,-0.0452,-0.5787,0.619,-0.5288
0.504,-1.739,-0.297,147.4,-511.8,137,0,2018,4,25,16,19,39.763,-0.1013,-0.605,0.6523,-0.4449
0.795,-1.756,0.904,113.2,-337.1,84.5,0,2018,4,25,16,19,39.784,-0.1378,-0.6225,0.6688,-0.3821
0.864,-1.37,0.786,85,-248.5,7.1,0,2018,4,25,16,19,39.805,-0.1547,-0.6306,0.6802,-0.34
0.738,-1.263,0.746,59.8,-199.2,-63.4,0,2018,4,25,16,19,39.825,-0.1591,-0.6277,0.6962,-0.3096
0.554,-0.799,0.62,38.6,-166.5,-116.9,0,2018,4,25,16,19,39.845,-0.1579,-0.6171,0.7155,-0.2866
0.106,-0.86,0.499,14.1,-131.4,-150.3,0,2018,4,25,16,19,39.866,-0.1583,-0.6021,0.735,-0.2682
-0.348,-0.863,0.521,-11.6,-83.4,-187.8,0,2018,4,25,16,19,39.885,-0.1561,-0.5833,0.7535,-0.2598
-0.58,-0.603,0.367,-38.5,-34.9,-222.5,0,2018,4,25,16,19,39.901,-0.1529,-0.5592,0.7718,-0.2611
-0.806,-0.112,0.186,-62.5,-10.4,-233.8,0,2018,4,25,16,19,39.923,-0.149,-0.5309,0.789,-0.2708
-0.876,0.233,0.152,-81.1,-6.8,-218.4,0,2018,4,25,16,19,39.944,-0.1467,-0.5014,0.8044,-0.2827
-0.797,0.372,0.026,-87.9,-2.4,-187.1,0,2018,4,25,16,19,39.982,-0.1473,-0.4745,0.8157,-0.296
-0.547,0.306,-0.171,-78,52.5,-149.1,0,2018,4,25,16,19,40.002,-0.1451,-0.4521,0.8229,-0.3117
-0.342,0.843,-0.199,-62.5,115.8,-94.9,1023,2018,4,25,16,19,40.006,-0.1393,-0.4388,0.822,-0.3349
-0.094,1.375,-0.278,-40.6,96.4,-20.4,1023,2018,4,25,16,19,40.027,-0.1333,-0.436,0.8148,-0.3579
0.183,1.663,-0.267,-12.8,43.9,63.6,1023,2018,4,25,16,19,40.064,-0.1314,-0.4448,0.8045,-0.3707
0.225,1.431,-0.235,22.3,12.6,146.3,1023,2018,4,25,16,19,40.085,-0.1342,-0.4661,0.7911,-0.3724
0.098,0.92,-0.183,54.7,22.4,201.4,1023,2018,4,25,16,19,40.09,-0.1369,-0.4987,0.7724,-0.3686
-0.222,-0.152,-0.1,70,21.4,218.6,1023,2018,4,25,16,19,40.109,-0.1376,-0.5366,0.7497,-0.3617
-0.304,-1.836,0.041,75.8,35.2,163.9,1023,2018,4,25,16,19,40.127,-0.1354,-0.5723,0.7269,-0.3544
-0.209,-2.789,0.175,59.9,41,26.2,1023,2018,4,25,16,19,40.165,-0.126,-0.5943,0.7125,-0.3509
-0.035,-1.781,0.399,15.6,-20.5,-110.3,1023,2018,4,25,16,19,40.186,-0.1146,-0.5954,0.7138,-0.3503
-0.122,-0.953,0.352,-36.2,-52.3,-186.2,1023,2018,4,25,16,19,40.19,-0.1096,-0.5785,0.7286,-0.3497
-0.326,-0.352,0.305,-62.1,11.1,-216.8,1023,2018,4,25,16,19,40.206,-0.1046,-0.5528,0.7457,-0.3568
-0.393,0.4,0.074,-66,69.6,-209.7,1023,2018,4,25,16,19,40.24,-0.0939,-0.5253,0.7584,-0.3741
-0.286,1.262,-0.138,-45.7,60.6,-162.6,0,2018,4,25,16,19,40.261,-0.0814,-0.5018,0.7663,-0.3927
-0.075,1.981,-0.259,-15.8,3.7,-68.8,0,2018,4,25,16,19,40.265,-0.0733,-0.4885,0.7705,-0.4026
-0.008,2.074,-0.211,19.5,-24.7,53.6,0,2018,4,25,16,19,40.302,-0.073,-0.4918,0.7693,-0.401
-0.126,1.541,-0.047,54.6,58.1,165.5,0,2018,4,25,16,19,40.322,-0.0739,-0.5136,0.756,-0.3989
-0.304,1.196,-0.174,86.6,98.7,234.2,0,2018,4,25,16,19,40.326,-0.0693,-0.5497,0.7286,-0.4025
-0.47,0.199,0.142,84.3,-1.7,255.3,0,2018,4,25,16,19,40.365,-0.0695,-0.5904,0.6984,-0.3983
-0.383,-2.254,0.288,57.9,-63,192.4,0,2018,4,25,16,19,40.385,-0.0813,-0.625,0.6756,-0.3822
-0.101,-3.41,0.268,28.2,37.1,31.1,0,2018,4,25,16,19,40.389,-0.084,-0.644,0.6613,-0.3752
0.193,-1.869,0.405,-23.2,16.1,-124.7,0,2018,4,25,16,19,40.427,-0.0742,-0.6413,0.6618,-0.381
0.132,-0.899,0.276,-80.7,-33.8,-209.6,0,2018,4,25,16,19,40.432,-0.0702,-0.6199,0.6783,-0.388
-0.201,-0.023,0.248,-101.8,-10.1,-246.3,0,2018,4,25,16,19,40.447,-0.0672,-0.5877,0.7007,-0.3986
-0.285,1.141,-0.058,-98.8,5.3,-226.7,0,2018,4,25,16,19,40.484,-0.0614,-0.554,0.7202,-0.4129
-0.2,2.124,-0.159,-78.9,-34.9,-141.2,0,2018,4,25,16,19,40.503,-0.0594,-0.5269,0.7352,-0.4222
-0.081,2.321,-0.412,-45,-46.6,-13.1,0,2018,4,25,16,19,40.508,-0.0651,-0.5153,0.7419,-0.4239
-0.156,1.718,-0.549,19.9,-0.5,114.9,0,2018,4,25,16,19,40.545,-0.0723,-0.5248,0.7356,-0.4221
-0.392,1.221,-0.495,87.2,20.7,202.7,0,2018,4,25,16,19,40.567,-0.074,-0.5535,0.7164,-0.418
-0.485,0.561,-0.639,125.2,-63.2,246.1,0,2018,4,25,16,19,40.571,-0.0777,-0.5925,0.6933,-0.4026
-0.553,-0.839,-0.46,145.5,-111.8,240.9,0,2018,4,25,16,19,40.589,-0.088,-0.6324,0.673,-0.3731
-0.465,-1.91,-0.064,154.7,-60.7,166.8,0,2018,4,25,16,19,40.61,-0.092,-0.6669,0.6549,-0.343
-0.197,-2.185,0.585,126.6,-41.5,50,1023,2018,4,25,16,19,40.65,-0.0864,-0.6889,0.6446,-0.3197
0.088,-1.667,1.015,55.2,-59.1,-61.4,1023,2018,4,25,16,19,40.654,-0.0809,-0.6941,0.6475,-0.3038
0.127,-1.041,1.078,-28.9,-71.4,-141.4,1023,2018,4,25,16,19,40.67,-0.0823,-0.6832,0.6619,-0.2968
-0.061,-0.297,0.892,-94.4,-52.9,-187.8,1023,2018,4,25,16,19,40.691,-0.0882,-0.6609,0.682,-0.3003
-0.168,0.312,0.371,-124.9,-15.8,-198.7,1023,2018,4,25,16,19,40.711,-0.095,-0.6327,0.7019,-0.3127
-0.213,1.208,-0.2,-119.9,1.9,-165.9,1023,2018,4,25,16,19,40.749,-0.0994,-0.6051,0.7175,-0.3301
-0.064,2.01,-0.877,-74.4,-57.1,-76.8,1023,2018,4,25,16,19,40.77,-0.1062,-0.5863,0.7274,-0.3402
-0.099,1.692,-0.991,8,-60.7,45.4,1023,2018,4,25,16,19,40.774,-0.1155,-0.5845,0.7294,-0.3359
-0.271,1.429,-0.947,88.9,-17.7,152.5,1023,2018,4,25,16,19,40.794,-0.1174,-0.603,0.719,-0.3248
-0.379,0.726,-0.509,131.7,-18.7,211.8,1023,2018,4,25,16,19,40.813,-0.1141,-0.6353,0.6991,-0.3073
-0.392,-0.406,0.247,135.6,-40.7,214.2,1023,2018,4,25,16,19,40.852,-0.111,-0.6701,0.6766,-0.2839
-0.25,-1.75,0.82,100,3.4,152.4,1023,2018,4,25,16,19,40.872,-0.1081,-0.6994,0.6553,-0.2639
-0.09,-2.464,1.088,42.3,56.8,33.6,0,2018,4,25,16,19,40.876,-0.0994,-0.7156,0.6414,-0.2578
0.041,-1.926,1.266,-37.4,33.2,-100.7,0,2018,4,25,16,19,40.894,-0.0909,-0.7135,0.6424,-0.2643
-0.027,-1.157,0.882,-111.4,9.6,-192.8,0,2018,4,25,16,19,40.915,-0.0906,-0.6936,0.658,-0.2785
-0.339,-0.244,0.352,-154.1,27.9,-236.6,0,2018,4,25,16,19,40.934,-0.0931,-0.6628,0.6793,-0.3008
-0.446,0.579,-0.281,-161.4,42.5,-228.4,0,2018,4,25,16,19,40.951,-0.0943,-0.6275,0.6997,-0.3278
-0.218,1.526,-1.036,-116.1,47.2,-163.1,0,2018,4,25,16,19,40.99,-0.0941,-0.5976,0.7136,-0.3529
-0.044,2.113,-1.413,-25.7,-5.1,-47.4,0,2018,4,25,16,19,41.011,-0.0932,-0.5831,0.7193,-0.3656
-0.156,1.941,-1.265,72.1,-45.4,85.4,0,2018,4,25,16,19,41.015,-0.0932,-0.5901,0.7166,-0.3598
-0.402,1.252,-0.893,138.6,-52.3,181.1,0,2018,4,25,16,19,41.032,-0.0926,-0.6159,0.7045,-0.34
-0.603,0.502,-0.218,161.9,-60,222.7,0,2018,4,25,16,19,41.071,-0.0908,-0.651,0.6852,-0.3135
-0.504,-0.504,0.414,149,-46.5,212.5,0,2018,4,25,16,19,41.092,-0.0897,-0.686,0.663,-0.2855
-0.339,-1.66,0.884,110.6,-9.6,147.8,0,2018,4,25,16,19,41.096,-0.0869,-0.714,0.6426,-0.2636
-0.123,-2.118,1.23,43.3,12,33.7,0,2018,4,25,16,19,41.116,-0.0813,-0.7283,0.6313,-0.2535
0.081,-1.866,1.233,-42.9,-8.8,-84.8,0,2018,4,25,16,19,41.136,-0.08,-0.7251,0.6348,-0.2544
0.001,-1.204,0.806,-115.3,-17,-175.6,0,2018,4,25,16,19,41.153,-0.0853,-0.7065,0.6504,-0.2653
-0.229,-0.442,0.267,-151.7,16.2,-224.9,0,2018,4,25,16,19,41.173,-0.0915,-0.6769,0.6723,-0.2852
-0.329,0.368,-0.341,-145.7,49.5,-223.7,0,2018,4,25,16,19,41.193,-0.093,-0.6439,0.6927,-0.3112
-0.236,1.321,-0.962,-100,14.1,-169.5,0,2018,4,25,16,19,41.229,-0.0923,-0.6149,0.7086,-0.3334
-0.102,1.793,-1.232,-15.5,-38.2,-69.3,0,2018,4,25,16,19,41.231,-0.0936,-0.5983,0.7194,-0.3398
-0.228,1.862,-0.912,69.3,-30.4,58.3,1023,2018,4,25,16,19,41.268,-0.0926,-0.6015,0.7203,-0.3325
-0.468,1.53,-0.539,124.8,-23.5,170.4,1023,2018,4,25,16,19,41.291,-0.0889,-0.624,0.7086,-0.3169
-0.692,0.894,0.055,136,-39.5,235.5,1023,2018,4,25,16,19,41.295,-0.0864,-0.6579,0.6872,-0.2955
-0.715,-0.233,0.709,111.9,-22.6,249.5,1023,2018,4,25,16,19,41.315,-0.088,-0.6937,0.6606,-0.2729
-0.574,-1.147,1.29,67.3,67.5,214.9,1023,2018,4,25,16,19,41.353,-0.0858,-0.7258,0.6307,-0.2606
-0.358,-1.602,1.247,8.3,166.2,149.2,1023,2018,4,25,16,19,41.374,-0.0744,-0.7493,0.6015,-0.2665
-0.276,-1.484,1.274,-59.1,227.7,80,1023,2018,4,25,16,19,41.378,-0.0555,-0.7617,0.5767,-0.2898
-0.173,-1.057,1.024,-128.8,228.5,29.5,1023,2018,4,25,16,19,41.398,-0.0371,-0.7633,0.5569,-0.325
-0.072,-0.833,0.614,-183.6,220.5,0.5,1023,2018,4,25,16,19,41.418,-0.0233,-0.7558,0.5414,-0.3673
0.027,-1.199,0.159,-224.1,307.4,-21.8,1023,2018,4,25,16,19,41.435,-0.0093,-0.7414,0.5254,-0.4173
0.033,-1.451,-0.377,-231.9,562.6,-40,1023,2018,4,25,16,19,41.475,0.0278,-0.7194,0.4954,-0.4859
-0.063,-0.986,-0.9,-228.4,703.6,-39.6,1023,2018,4,25,16,19,41.479,0.0927,-0.688,0.4429,-0.5672
-0.049,-1.017,-1.244,-215.2,741.2,-37.4,1023,2018,4,25,16,19,41.494,0.1646,-0.6451,0.3759,-0.6444
-0.073,-0.828,-1.342,-189.1,701.4,-33.5,0,2018,4,25,16,19,41.534,0.2343,-0.5937,0.3023,-0.7078
-0.114,-0.725,-1.068,-174.9,652.2,-55.5,0,2018,4,25,16,19,41.555,0.2984,-0.5359,0.2306,-0.7552
-0.202,-0.16,-0.908,-157.1,496.1,-85.1,0,2018,4,25,16,19,41.559,0.3537,-0.4771,0.1702,-0.7862
-0.313,-0.098,-0.797,-130,244.2,-104.9,0,2018,4,25,16,19,41.578,0.3911,-0.4305,0.1405,-0.8011
-0.345,-0.433,-0.865,-84.6,85.3,-150.2,0,2018,4,25,16,19,41.597,0.416,-0.4014,0.1404,-0.8037
-0.352,-0.21,-0.853,-25.3,5.6,-201.7,0,2018,4,25,16,19,41.618,0.442,-0.3854,0.1542,-0.7951
-0.305,0.219,-0.613,29.1,-98.5,-231.8,0,2018,4,25,16,19,41.639,0.4687,-0.3829,0.1789,-0.7756
-0.173,0.87,-0.354,66.7,-212,-220.1,0,2018,4,25,16,19,41.657,0.4897,-0.3945,0.2147,-0.7472
-0.091,1.012,-0.01,85.2,-221.9,-175.3,0,2018,4,25,16,19,41.677,0.5023,-0.4152,0.2538,-0.7146
0.021,0.978,0.421,64.5,-126,-98.5,0,2018,4,25,16,19,41.715,0.5092,-0.4335,0.2824,-0.6876
0.075,1.171,0.547,21.3,17.9,-13.7,0,2018,4,25,16,19,41.736,0.5143,-0.4396,0.2912,-0.6762
0.02,0.919,0.397,-25.7,110.2,66.9,0,2018,4,25,16,19,41.74,0.5159,-0.4338,0.2841,-0.6817
-0.07,0.257,0.393,-65.6,167.6,120.8,0,2018,4,25,16,19,41.758,0.5125,-0.4195,0.267,-0.6999
-0.138,-0.295,0.329,-98.3,207.8,147.3,0,2018,4,25,16,19,41.778,0.5054,-0.3977,0.2443,-0.7257
-0.157,-0.64,-0.012,-112.9,204,144,0,2018,4,25,16,19,41.816,0.4959,-0.371,0.2198,-0.7536
-0.162,-0.941,-0.442,-95.6,144.7,105,0,2018,4,25,16,19,41.839,0.486,-0.3458,0.2006,-0.7771
-0.135,-1.179,-0.739,-41.4,76.6,27.2,0,2018,4,25,16,19,41.843,0.4806,-0.3288,0.1901,-0.7903
-0.144,-0.867,-0.721,28.4,-21.1,-64.2,0,2018,4,25,16,19,41.86,0.485,-0.3242,0.1903,-0.7895
-0.189,-0.577,-0.657,91.1,-164.6,-129.1,0,2018,4,25,16,19,41.879,0.4951,-0.3369,0.2068,-0.7736
-0.201,-0.347,-0.397,136.3,-235.8,-162.4,0,2018,4,25,16,19,41.899,0.5065,-0.3642,0.2358,-0.745
-0.133,0.269,0.146,145.6,-236.5,-161.3,1023,2018,4,25,16,19,41.919,0.5187,-0.3945,0.267,-0.7098
-0.108,1.337,0.95,100.8,-217.9,-115.3,1023,2018,4,25,16,19,41.956,0.5259,-0.4231,0.295,-0.6762
-0.009,1.333,1.295,7.8,-168.2,-21.6,1023,2018,4,25,16,19,41.977,0.5217,-0.4432,0.3205,-0.6546
0.005,0.537,0.838,-79.8,1.2,62.5,1023,2018,4,25,16,19,41.981,0.5095,-0.4477,0.3349,-0.6539
-0.024,0.466,0.351,-128.5,214.4,122.5,1023,2018,4,25,16,19,41.999,0.5017,-0.4293,0.3249,-0.6769
-0.062,0.138,0.067,-146.6,262.5,163.7,1023,2018,4,25,16,19,42.037,0.4945,-0.3975,0.2984,-0.7129
-0.1,-0.71,-0.503,-124.6,211.4,157,1023,2018,4,25,16,19,42.057,0.4838,-0.3642,0.2716,-0.7479
-0.048,-1.324,-1.069,-49.8,155.3,78.6,1023,2018,4,25,16,19,42.061,0.4748,-0.342,0.2497,-0.7714
-0.11,-1.044,-0.939,48.8,52,-32.3,1023,2018,4,25,16,19,42.083,0.4784,-0.3336,0.2357,-0.7772
-0.2,-0.654,-0.539,115.4,-132,-117.2,1023,2018,4,25,16,19,42.102,0.4902,-0.345,0.241,-0.7632
-0.196,-0.57,-0.239,146.4,-246.3,-157.5,1023,2018,4,25,16,19,42.121,0.5019,-0.3731,0.2665,-0.7332
-0.212,0.015,0.296,139.7,-230,-159,0,2018,4,25,16,19,42.142,0.5125,-0.4046,0.2971,-0.6965
-0.082,1.042,0.927,81.5,-176,-117.5,0,2018,4,25,16,19,42.16,0.521,-0.4278,0.3229,-0.6641
-0.004,1.358,1.022,-4.5,-113.5,-33.2,0,2018,4,25,16,19,42.179,0.5207,-0.4404,0.344,-0.6453
0.009,1.084,0.709,-81,14.6,51.8,0,2018,4,25,16,19,42.2,0.5128,-0.4397,0.3548,-0.6462
-0.031,0.504,0.282,-128.9,162.1,119.3,0,2018,4,25,16,19,42.239,0.503,-0.4238,0.3486,-0.6675
-0.101,0.069,-0.039,-142.3,222.5,161.3,0,2018,4,25,16,19,42.261,0.4927,-0.3967,0.328,-0.7015
-0.116,-0.747,-0.39,-118.4,200.5,156,0,2018,4,25,16,19,42.265,0.4807,-0.3677,0.3037,-0.7358
-0.128,-1.192,-0.883,-47.1,125.8,85.4,0,2018,4,25,16,19,42.284,0.4705,-0.3485,0.2828,-0.7596
-0.275,-1.044,-0.928,53.8,-6.6,-34.2,0,2018,4,25,16,19,42.305,0.4711,-0.3448,0.2742,-0.7641
-0.282,-0.908,-0.633,133.5,-185.2,-132.1,0,2018,4,25,16,19,42.324,0.4814,-0.3613,0.2864,-0.7454
-0.302,-0.677,-0.204,180.8,-264.7,-183.1,0,2018,4,25,16,19,42.344,0.4946,-0.393,0.3152,-0.7081
-0.286,0.343,0.532,172.1,-239.3,-184.8,0,2018,4,25,16,19,42.363,0.5093,-0.4254,0.3446,-0.6639
-0.177,1.596,1.356,104.3,-228.4,-125.5,0,2018,4,25,16,19,42.383,0.5184,-0.4516,0.371,-0.6241
0.027,1.499,1.481,-1.9,-171.3,-17.8,0,2018,4,25,16,19,42.401,0.5127,-0.4703,0.3957,-0.5993
0.033,0.765,0.781,-91.4,35.6,72.5,0,2018,4,25,16,19,42.439,0.4999,-0.4728,0.4066,-0.6008
-0.01,0.614,0.311,-144.5,231.4,137.1,0,2018,4,25,16,19,42.46,0.4922,-0.4537,0.3936,-0.63
-0.143,0.004,0.001,-164.7,267,179.2,0,2018,4,25,16,19,42.464,0.4838,-0.4229,0.3661,-0.6729
-0.197,-1.019,-0.614,-134.4,210.3,164.4,0,2018,4,25,16,19,42.483,0.4712,-0.3928,0.3388,-0.7132
-0.165,-1.489,-1.222,-40.1,130.9,74.8,0,2018,4,25,16,19,42.504,0.462,-0.3739,0.3172,-0.7389
-0.294,-1.053,-1.153,78,-13.4,-46.1,0,2018,4,25,16,19,42.523,0.4661,-0.3719,0.3074,-0.7415
-0.28,-0.75,-0.656,160.3,-203.7,-130,0,2018,4,25,16,19,42.543,0.4771,-0.3919,0.3197,-0.7186
-0.302,-0.591,-0.316,193.3,-265.1,-160.1,0,2018,4,25,16,19,42.585,0.4881,-0.4257,0.3465,-0.6785
-0.302,0.218,0.416,177.7,-243.2,-147.9,1023,2018,4,25,16,19,42.604,0.4985,-0.4588,0.3726,-0.6339
-0.148,1.233,1.281,114.6,-206,-95.7,1023,2018,4,25,16,19,42.608,0.5036,-0.4855,0.395,-0.5954
0.087,1.539,1.681,5.2,-147.4,-11.5,1023,2018,4,25,16,19,42.621,0.4979,-0.5028,0.4141,-0.5724
0.201,1.001,1.023,-92.5,-10.4,63.6,1023,2018,4,25,16,19,42.661,0.4842,-0.5066,0.4253,-0.5726
0.155,0.428,0.41,-150.3,172.3,107.4,1023,2018,4,25,16,19,42.683,0.4738,-0.4922,0.4204,-0.597
0.088,-0.12,0.224,-178.2,300.9,126.1,1023,2018,4,25,16,19,42.687,0.4698,-0.4614,0.3991,-0.6379
-0.049,-0.28,0.071,-172,292.6,130.3,1023,2018,4,25,16,19,42.703,0.4673,-0.4235,0.3688,-0.6826
-0.186,-0.822,-0.61,-140,191.7,97.5,1023,2018,4,25,16,19,42.742,0.4604,-0.3912,0.3452,-0.7181
-0.191,-1.269,-1.019,-66.4,119.7,17.3,1023,2018,4,25,16,19,42.763,0.457,-0.3688,0.3314,-0.7383
-0.174,-1.008,-0.82,8.9,4.2,-61.8,1023,2018,4,25,16,19,42.767,0.4632,-0.3583,0.3271,-0.7416
-0.202,-0.804,-0.735,64.2,-158.5,-114,1023,2018,4,25,16,19,42.788,0.472,-0.3644,0.3409,-0.7267
-0.284,-0.68,-0.612,109.4,-240.1,-151.3,1023,2018,4,25,16,19,42.808,0.4805,-0.3842,0.369,-0.6965
-0.383,-0.084,-0.129,131.6,-239.5,-164.8,1023,2018,4,25,16,19,42.828,0.4922,-0.4067,0.3994,-0.6578
-0.397,0.667,0.515,119.7,-238.7,-142.3,0,2018,4,25,16,19,42.848,0.5014,-0.4301,0.4268,-0.6175
-0.458,1.185,1.12,76.6,-207.9,-80.9,0,2018,4,25,16,19,42.867,0.5035,-0.4514,0.4507,-0.5825
-0.381,1.119,1.302,10.3,-124.6,0.2,0,2018,4,25,16,19,42.887,0.497,-0.4674,0.4676,-0.5618
-0.217,0.842,0.923,-42.1,50.5,70.2,0,2018,4,25,16,19,42.904,0.4889,-0.4713,0.47,-0.5637
-0.036,0.827,0.565,-75,172.6,135.2,0,2018,4,25,16,19,42.927,0.4837,-0.4627,0.4549,-0.5872
-0.067,0.418,0.374,-102.4,200.3,189.3,0,2018,4,25,16,19,42.947,0.4749,-0.4495,0.4296,-0.6227
-0.143,-0.318,0.016,-119.7,201.6,210.5,0,2018,4,25,16,19,42.967,0.4595,-0.4344,0.4011,-0.6626
0.057,-1.116,-0.638,-104.9,193,179.3,0,2018,4,25,16,19,42.988,0.4427,-0.4182,0.3728,-0.7
0.125,-1.229,-0.833,-60.1,149.2,99.1,0,2018,4,25,16,19,43.027,0.433,-0.4025,0.3475,-0.7277
0.135,-1.195,-0.844,-5.8,4.2,2.8,0,2018,4,25,16,19,43.047,0.4301,-0.3948,0.3375,-0.7382
0.04,-1.083,-0.756,52.6,-143.8,-91.7,0,2018,4,25,16,19,43.051,0.4325,-0.4005,0.3494,-0.7282
-0.086,-0.869,-0.73,104.7,-219,-157.4,0,2018,4,25,16,19,43.068,0.4402,-0.4167,0.3768,-0.7004
-0.311,-0.213,-0.127,141.9,-195.3,-194.9,0,2018,4,25,16,19,43.104,0.4547,-0.4354,0.4056,-0.6625
-0.388,0.953,0.705,127.7,-205.5,-178.4,0,2018,4,25,16,19,43.123,0.4713,-0.4522,0.432,-0.6217
-0.435,1.741,1.491,63.5,-214.1,-98.1,0,2018,4,25,16,19,43.128,0.4766,-0.4691,0.4581,-0.5854
-0.288,1.518,1.468,-27.3,-132.3,12.5,0,2018,4,25,16,19,43.146,0.4669,-0.4816,0.4784,-0.5666
-0.105,0.61,0.691,-93.9,84.5,100.4,0,2018,4,25,16,19,43.167,0.453,-0.482,0.4817,-0.5746
-0.108,0.468,0.388,-128.3,244.8,165.3,0,2018,4,25,16,19,43.207,0.4452,-0.4666,0.4606,-0.6096
-0.083,-0.182,-0.03,-141.5,220.5,190.7,0,2018,4,25,16,19,43.226,0.4349,-0.4451,0.4306,-0.6535
0.025,-1.518,-0.711,-119.9,141.3,140.7,0,2018,4,25,16,19,43.23,0.4183,-0.4286,0.4075,-0.6893
0.175,-1.903,-1.376,-23.1,117.5,16.7,1023,2018,4,25,16,19,43.25,0.4131,-0.4155,0.3914,-0.7095
0.006,-1.016,-1.029,72.2,-31.4,-105.1,1023,2018,4,25,16,19,43.27,0.4252,-0.4118,0.3865,-0.7072
-0.122,-0.733,-0.759,132.7,-236.3,-175.6,1023,2018,4,25,16,19,43.29,0.4394,-0.4252,0.4075,-0.6782
-0.324,-0.823,-0.436,167.5,-267.7,-204.9,1023,2018,4,25,16,19,43.311,0.4521,-0.4493,0.4416,-0.6313
-0.534,0.414,0.587,166.3,-181.3,-210.5,1023,2018,4,25,16,19,43.333,0.4711,-0.4677,0.4678,-0.5834
-0.538,1.859,1.598,97.1,-181.5,-138.8,1023,2018,4,25,16,19,43.352,0.4852,-0.4807,0.4891,-0.5423
-0.399,1.853,1.676,-10.8,-156.3,-22.6,1023,2018,4,25,16,19,43.369,0.4811,-0.4925,0.5089,-0.5165
-0.273,0.788,0.951,-96,19.3,80.3,1023,2018,4,25,16,19,43.407,0.4661,-0.4966,0.518,-0.5173
-0.155,0.585,0.46,-133.2,224.7,154.1,1023,2018,4,25,16,19,43.425,0.456,-0.4851,0.5046,-0.5494
-0.235,0.216,0.27,-154.4,256.4,203.9,1023,2018,4,25,16,19,43.43,0.4464,-0.466,0.4756,-0.5976
-0.126,-0.73,-0.272,-151.3,183.4,196.3,1023,2018,4,25,16,19,43.449,0.4294,-0.4484,0.4474,-0.6436
0.111,-1.605,-1.061,-105.6,137.3,122.9,1023,2018,4,25,16,19,43.468,0.4124,-0.4337,0.427,-0.6777
0.227,-1.64,-1.412,-3.8,88.4,1.7,1023,2018,4,25,16,19,43.51,0.41,-0.423,0.4123,-0.6948
0.063,-0.951,-0.978,81.6,-89.8,-110.3,0,2018,4,25,16,19,43.529,0.4208,-0.4236,0.4131,-0.6875
-0.105,-0.727,-0.814,141,-272.8,-173.2,0,2018,4,25,16,19,43.533,0.4317,-0.4406,0.4386,-0.6534
-0.368,-0.641,-0.371,182.5,-284.5,-202.8,0,2018,4,25,16,19,43.571,0.4422,-0.4659,0.4739,-0.6021
-0.581,0.235,0.672,176.5,-212.9,-204.9,0,2018,4,25,16,19,43.591,0.4586,-0.4851,0.5016,-0.55
-0.695,1.467,1.759,110.8,-188.3,-142.9,0,2018,4,25,16,19,43.595,0.4715,-0.4989,0.5229,-0.5052
-0.49,1.732,1.913,1.4,-161.9,-36.6,0,2018,4,25,16,19,43.614,0.4684,-0.5099,0.5417,-0.4764
-0.349,1.056,1.343,-95.3,-51.4,66.4,0,2018,4,25,16,19,43.63,0.4519,-0.5165,0.5536,-0.4715
-0.193,0.391,0.581,-152,143.7,136.8,0,2018,4,25,16,19,43.668,0.4349,-0.5117,0.5502,-0.4961
-0.23,0.178,0.12,-174.7,241.7,185.1,0,2018,4,25,16,19,43.69,0.4228,-0.4962,0.5296,-0.5425
-0.154,-0.443,-0.385,-165.1,192,189.4,0,2018,4,25,16,19,43.694,0.4092,-0.4783,0.5038,-0.5915
0.165,-1.539,-1.127,-115.5,150.5,125.7,0,2018,4,25,16,19,43.713,0.3926,-0.4651,0.4835,-0.629
0.234,-1.57,-1.543,-0.9,114.1,13.8,0,2018,4,25,16,19,43.732,0.3913,-0.4551,0.4663,-0.6497
0.05,-0.859,-1.146,94.5,-34.8,-89.6,0,2018,4,25,16,19,43.752,0.404,-0.4546,0.461,-0.6461
-0.132,-0.548,-0.759,159.7,-205.8,-149.2,0,2018,4,25,16,19,43.79,0.4177,-0.4683,0.476,-0.616
-0.363,-0.444,-0.108,177.8,-221.6,-171.5,0,2018,4,25,16,19,43.81,0.4305,-0.4896,0.5006,-0.5694
-0.459,0.357,1.03,148.3,-134.4,-156.8,0,2018,4,25,16,19,43.814,0.4457,-0.504,0.5198,-0.5263
-0.457,1.61,1.738,59.4,-67.1,-87.8,0,2018,4,25,16,19,43.833,0.458,-0.5095,0.5309,-0.4985
-0.324,1.638,1.406,-47,-40.7,10.9,0,2018,4,25,16,19,43.853,0.4567,-0.5105,0.5388,-0.4901
-0.175,0.793,0.849,-123.8,53.6,95.3,0,2018,4,25,16,19,43.873,0.4433,-0.508,0.5408,-0.5028
-0.142,0.335,0.388,-160.3,199.1,153.9,0,2018,4,25,16,19,43.892,0.4298,-0.4962,0.529,-0.5376
-0.236,0.045,0.11,-171.6,250.2,188.6,0,2018,4,25,16,19,43.93,0.4177,-0.4779,0.5034,-0.5862
-0.15,-0.671,-0.397,-160.5,189.4,180.5,0,2018,4,25,16,19,43.95,0.4017,-0.4596,0.4761,-0.6328
0.146,-1.379,-1.147,-108.2,155.1,117,1023,2018,4,25,16,19,43.954,0.3859,-0.4448,0.4552,-0.6677
0.199,-1.453,-1.396,-0.3,127.6,10.9,1023,2018,4,25,16,19,43.973,0.3858,-0.4336,0.4362,-0.6876
0.022,-0.886,-0.945,84.7,-10.2,-89.2,1023,2018,4,25,16,19,43.993,0.3996,-0.4317,0.4282,-0.6859
-0.084,-0.528,-0.731,138.5,-204.4,-149.6,1023,2018,4,25,16,19,44.032,0.414,-0.444,0.4432,-0.6594
-0.224,-0.665,-0.552,178.1,-259.4,-181,1023,2018,4,25,16,19,44.053,0.4257,-0.4666,0.4722,-0.6147
-0.429,-0.221,0.221,179.6,-191.5,-201.9,1023,2018,4,25,16,19,44.057,0.4426,-0.4856,0.4974,-0.5662
-0.499,1.041,1.193,144.1,-193.7,-175.3,1023,2018,4,25,16,19,44.075,0.4594,-0.499,0.5187,-0.5203
-0.529,1.843,1.907,56,-248.7,-88,1023,2018,4,25,16,19,44.099,0.4609,-0.5132,0.5416,-0.4802
-0.453,1.666,1.734,-47.3,-254.4,26.5,1023,2018,4,25,16,19,44.113,0.4394,-0.5313,0.5651,-0.4528
-0.349,0.466,0.893,-136,-95.6,108.2,1023,2018,4,25,16,19,44.149,0.4062,-0.5452,0.5801,-0.4484
-0.189,-0.064,0.274,-174.7,177.3,150,1023,2018,4,25,16,19,44.169,0.3841,-0.542,0.5749,-0.4774
-0.152,-0.229,-0.101,-180.3,308.6,178.4,1023,2018,4,25,16,19,44.177,0.3764,-0.525,0.5481,-0.5311
-0.081,-0.841,-0.438,-159.9,251.9,167.4,0,2018,4,25,16,19,44.196,0.3697,-0.5054,0.515,-0.5852
0.185,-1.609,-1.069,-107.5,145.6,93.7,0,2018,4,25,16,19,44.216,0.3599,-0.4903,0.492,-0.6227
0.193,-1.511,-1.643,-4,17.2,-23.6,0,2018,4,25,16,19,44.237,0.3586,-0.4819,0.4834,-0.6366
-0.005,-1,-1.453,98.8,-155.1,-127.8,0,2018,4,25,16,19,44.257,0.3658,-0.4853,0.495,-0.6209
-0.225,-0.654,-0.803,183,-237,-187.5,0,2018,4,25,16,19,44.293,0.3779,-0.5,0.521,-0.5793
-0.457,-0.17,0.157,195.1,-196.3,-198.2,0,2018,4,25,16,19,44.313,0.3956,-0.5159,0.5463,-0.528
-0.652,1.168,1.38,162,-161.8,-157.5,0,2018,4,25,16,19,44.317,0.4135,-0.5269,0.5653,-0.4814
-0.6,1.887,1.963,57.6,-148.8,-59.6,0,2018,4,25,16,19,44.336,0.4188,-0.5363,0.5801,-0.4476
-0.455,1.466,1.535,-48.8,-87.1,47.6,0,2018,4,25,16,19,44.356,0.4074,-0.5449,0.5898,-0.4348
-0.225,0.53,0.753,-118.4,74.2,124.5,0,2018,4,25,16,19,44.375,0.3901,-0.5482,0.5882,-0.4484
-0.093,0.265,0.479,-131.6,221.9,171.8,0,2018,4,25,16,19,44.415,0.3804,-0.542,0.5692,-0.4872
-0.072,-0.078,0.31,-141.2,208.3,188.3,0,2018,4,25,16,19,44.434,0.3722,-0.5327,0.5408,-0.5339
-0.013,-0.592,-0.36,-143.7,118.5,164.2,0,2018,4,25,16,19,44.438,0.3566,-0.5245,0.518,-0.5738
0.088,-0.984,-1.293,-102.4,52.8,110.1,0,2018,4,25,16,19,44.458,0.3381,-0.5189,0.5053,-0.6007
0.116,-1.176,-1.498,-1.1,35.4,32.4,0,2018,4,25,16,19,44.478,0.3302,-0.5169,0.4971,-0.6136
-0.028,-0.928,-1.165,84.8,-39.4,-50,0,2018,4,25,16,19,44.497,0.3355,-0.5212,0.4949,-0.6088
-0.126,-0.722,-0.79,142.5,-131.8,-110.3,0,2018,4,25,16,19,44.518,0.3461,-0.5316,0.5048,-0.5853
-0.19,-0.41,-0.59,182.8,-170.1,-143.9,0,2018,4,25,16,19,44.558,0.3587,-0.5459,0.5227,-0.5477
-0.271,-0.305,-0.45,218.8,-127.3,-159.4,0,2018,4,25,16,19,44.562,0.3769,-0.5599,0.5387,-0.504
-0.506,0.44,0.178,235.4,-83.3,-144.6,0,2018,4,25,16,19,44.578,0.4029,-0.5707,0.5468,-0.4613
-0.507,1.099,0.993,199.6,-86.1,-98.7,0,2018,4,25,16,19,44.596,0.4256,-0.5815,0.5495,-0.4226
-0.479,1.316,1.517,114,-80.4,-19.9,0,2018,4,25,16,19,44.616,0.4362,-0.5932,0.5502,-0.3935
-0.337,1.042,1.484,15.5,-74.9,52.1,1023,2018,4,25,16,19,44.657,0.4332,-0.6049,0.5486,-0.3811
-0.143,0.648,1.216,-78.2,-77,112.1,1023,2018,4,25,16,19,44.677,0.416,-0.6165,0.5471,-0.384
-0.037,0.158,0.774,-152.8,-31.2,138.6,1023,2018,4,25,16,19,44.681,0.3892,-0.6249,0.5457,-0.4001
-0.097,-0.779,0.297,-199.3,128.6,135,1023,2018,4,25,16,19,44.699,0.3669,-0.6217,0.539,-0.4337
-0.132,-0.633,-0.408,-185.2,238.9,125.7,1023,2018,4,25,16,19,44.736,0.3598,-0.6056,0.5212,-0.4816
0.01,-0.635,-1.039,-127.6,190.7,87.6,1023,2018,4,25,16,19,44.757,0.3597,-0.5872,0.4999,-0.5251
0.065,-0.718,-1.234,-42.5,62.4,15.3,1023,2018,4,25,16,19,44.761,0.3602,-0.5758,0.4882,-0.5479
0.038,-0.741,-1.23,56.4,-50.4,-62.2,1023,2018,4,25,16,19,44.78,0.3635,-0.5744,0.4903,-0.5453
-0.187,-0.325,-1,140.1,-111.6,-102.3,1023,2018,4,25,16,19,44.8,0.3718,-0.5819,0.5008,-0.5216
-0.41,0.376,-0.244,171.9,-84.7,-110.5,1023,2018,4,25,16,19,44.838,0.385,-0.5937,0.5106,-0.4882
-0.485,1.184,0.492,162.6,-138.5,-71.4,1023,2018,4,25,16,19,44.843,0.3967,-0.607,0.5173,-0.4543
-0.428,1.368,0.662,122.7,-207.2,-19.8,1023,2018,4,25,16,19,44.861,0.396,-0.6244,0.525,-0.4212
-0.736,1.32,0.758,22.8,-278.3,88,0,2018,4,25,16,19,44.88,0.3726,-0.6498,0.5341,-0.3918
-0.66,1.04,1.189,-88.3,-299.1,172.3,0,2018,4,25,16,19,44.899,0.3269,-0.6777,0.5396,-0.3774
-0.649,0.749,0.961,-189.4,-376.2,219.2,0,2018,4,25,16,19,44.938,0.2596,-0.7047,0.5444,-0.3734
-0.6,0.048,0.056,-269.1,-481.2,203.2,0,2018,4,25,16,19,44.958,0.168,-0.7268,0.5544,-0.3687
-0.016,-1.679,-0.685,-271,-363.6,129.7,0,2018,4,25,16,19,44.962,0.0751,-0.7345,0.5664,-0.3658
0.063,-2.146,-1.28,-208.5,-199.6,25,0,2018,4,25,16,19,44.983,0.011,-0.7288,0.5762,-0.3696
0.428,-1.855,-1.338,-117.2,-52.5,-76.1,0,2018,4,25,16,19,45.004,-0.0186,-0.7152,0.5874,-0.3782
0.43,-0.711,-1.354,-32.9,-67.3,-142.1,0,2018,4,25,16,19,45.022,-0.0239,-0.6983,0.6045,-0.3823
0.298,-0.284,-0.852,31.9,-105.8,-172.9,0,2018,4,25,16,19,45.061,-0.0242,-0.6807,0.63,-0.3728
0.109,-0.078,-0.417,81,-77.9,-185.1,0,2018,4,25,16,19,45.065,-0.0174,-0.6638,0.6575,-0.3556
-0.104,0.207,0.001,103.9,-19.6,-185.4,0,2018,4,25,16,19,45.081,0.0014,-0.6474,0.6823,-0.3393
-0.258,0.697,0.42,101.3,-7.1,-170.7,0,2018,4,25,16,19,45.1,0.0235,-0.6318,0.7026,-0.3262
-0.309,1.146,0.612,80.3,-41.6,-134,0,2018,4,25,16,19,45.12,0.0409,-0.6179,0.7202,-0.3124
-0.313,1.384,0.863,46.4,-67.4,-70.3,0,2018,4,25,16,19,45.157,0.0483,-0.6088,0.7337,-0.2975
-0.309,1.247,0.9,8.3,-40.3,6.7,0,2018,4,25,16,19,45.176,0.0467,-0.6068,0.7398,-0.2866
-0.287,1.009,0.82,-28.2,55.8,78.7,0,2018,4,25,16,19,45.182,0.044,-0.612,0.7346,-0.2893
-0.278,1.035,0.549,-53.4,82.1,136.4,0,2018,4,25,16,19,45.202,0.0417,-0.6232,0.7189,-0.305
-0.159,0.753,0.07,-73.3,2.5,176.4,0,2018,4,25,16,19,45.224,0.0299,-0.6391,0.6993,-0.3186
-0.085,-0.421,-0.355,-78,-52.2,182.8,0,2018,4,25,16,19,45.261,0.0058,-0.6569,0.6808,-0.3237
-0.031,-2.323,-0.84,-39.9,75.6,124.5,0,2018,4,25,16,19,45.282,-0.01,-0.6721,0.6622,-0.331
-0.041,-2.112,-1.09,22.4,124.8,-4.8,0,2018,4,25,16,19,45.286,0.0006,-0.6787,0.6476,-0.3462
0.191,-1.263,-0.785,57,-56.3,-120.9,1023,2018,4,25,16,19,45.301,0.0137,-0.6733,0.6539,-0.3447
0.112,-1.001,-0.39,78,-90.4,-180.1,1023,2018,4,25,16,19,45.337,0.0197,-0.6594,0.6774,-0.3252
-0.244,-0.133,0.229,88.9,11.1,-204.9,1023,2018,4,25,16,19,45.357,0.0367,-0.6406,0.7013,-0.3103
-0.431,1.014,0.654,74.8,21.3,-184.2,1023,2018,4,25,16,19,45.361,0.0606,-0.6202,0.721,-0.3028
-0.365,1.9,1.035,41.6,-41.9,-108.8,1023,2018,4,25,16,19,45.401,0.0749,-0.6045,0.7367,-0.2934
-0.378,1.964,1.175,-7.2,-73.3,1.7,1023,2018,4,25,16,19,45.423,0.0727,-0.5994,0.7454,-0.2824
-0.413,1.373,1.033,-49,6.7,111.5,1023,2018,4,25,16,19,45.427,0.0615,-0.6063,0.7412,-0.2812
-0.38,1.036,0.802,-77.8,103.4,189.1,1023,2018,4,25,16,19,45.446,0.0524,-0.6222,0.7219,-0.2979
-0.454,0.794,0.328,-105,44.2,231.8,1023,2018,4,25,16,19,45.467,0.0392,-0.643,0.6943,-0.3205
-0.314,-0.813,-0.515,-119.6,-78.5,224,1023,2018,4,25,16,19,45.487,0.0094,-0.664,0.6701,-0.3314
-0.111,-3.127,-1.256,-80,20.9,116.4,1023,2018,4,25,16,19,45.507,-0.0179,-0.6783,0.652,-0.3382
-0.023,-2.487,-1.415,-11.4,78,-38.8,1023,2018,4,25,16,19,45.527,-0.0159,-0.6799,0.6434,-0.3513
0.31,-0.996,-1.122,33.2,-54.3,-156.3,0,2018,4,25,16,19,45.546,-0.0061,-0.6683,0.6557,-0.351
0.17,-0.478,-0.636,73.7,-89,-194.3,0,2018,4,25,16,19,45.566,0.0007,-0.6505,0.6817,-0.3346
-0.159,0.086,-0.074,110.6,-25.8,-200.4,0,2018,4,25,16,19,45.604,0.0182,-0.6314,0.7075,-0.3168
-0.364,1.046,0.58,118.5,-7.1,-170.9,0,2018,4,25,16,19,45.624,0.0432,-0.6139,0.728,-0.3019
-0.325,1.779,1.166,96.1,-44.6,-93.2,0,2018,4,25,16,19,45.628,0.0613,-0.6026,0.7426,-0.2855
-0.344,1.924,1.397,44.1,-43.2,17.5,0,2018,4,25,16,19,45.646,0.0668,-0.6018,0.7481,-0.2712
-0.42,1.397,1.272,-10.5,41.5,123,0,2018,4,25,16,19,45.683,0.065,-0.6122,0.7402,-0.2701
-0.45,1.186,1.072,-60.3,82.7,196.7,0,2018,4,25,16,19,45.702,0.0604,-0.6306,0.7191,-0.2854
-0.432,0.734,0.574,-115.7,3.4,234.3,0,2018,4,25,16,19,45.706,0.0432,-0.6525,0.693,-0.3032
-0.271,-0.621,-0.209,-139.7,-28.2,226.8,0,2018,4,25,16,19,45.727,0.012,-0.6733,0.6678,-0.317
-0.078,-1.989,-1.095,-103.4,75.9,160.7,0,2018,4,25,16,19,45.748,-0.0111,-0.6889,0.6432,-0.3339
-0.127,-2.234,-1.607,-39.1,93.4,43.6,0,2018,4,25,16,19,45.769,-0.0125,-0.6961,0.6246,-0.3537
0.156,-1.563,-1.62,29.4,-43.7,-80.4,0,2018,4,25,16,19,45.789,-0.0081,-0.6934,0.6258,-0.3568
0.295,-0.918,-1.326,97.1,-113.5,-149.6,0,2018,4,25,16,19,45.804,-0.0046,-0.6837,0.6461,-0.339
0.044,-0.279,-0.563,165,-60.5,-172,0,2018,4,25,16,19,45.841,0.0092,-0.6725,0.6706,-0.3127
-0.351,0.194,0.354,191,-16.6,-173.4,0,2018,4,25,16,19,45.86,0.0372,-0.6611,0.6922,-0.2867
-0.522,0.724,1.321,163.5,-12.1,-150.8,0,2018,4,25,16,19,45.867,0.0658,-0.6497,0.71,-0.2632
-0.506,0.967,1.811,88.9,-11.9,-99.4,0,2018,4,25,16,19,45.906,0.0857,-0.6398,0.7231,-0.2453
-0.532,0.944,1.886,-8.1,41.4,-36.3,0,2018,4,25,16,19,45.925,0.0948,-0.6328,0.7294,-0.2415
-0.493,0.947,1.467,-100.8,78.4,26.7,0,2018,4,25,16,19,45.929,0.0948,-0.6288,0.7278,-0.2564
-0.37,0.287,0.876,-168.1,78.7,71.5,0,2018,4,25,16,19,45.947,0.0831,-0.6278,0.7205,-0.2823
-0.262,-0.462,0.068,-196,102.5,68.3,1023,2018,4,25,16,19,45.985,0.0659,-0.6262,0.7102,-0.3147
-0.064,-0.611,-0.623,-192.8,99.4,32.2,1023,2018,4,25,16,19,46.006,0.0507,-0.6198,0.7004,-0.3502
0.138,-0.667,-1.409,-151,9.4,-15.6,1023,2018,4,25,16,19,46.01,0.035,-0.6092,0.6974,-0.3756
0.253,-0.761,-1.505,-74.3,-41.7,-62.8,1023,2018,4,25,16,19,46.025,0.0213,-0.5968,0.704,-0.3843
0.265,-0.691,-1.562,20.4,-8.1,-102,1023,2018,4,25,16,19,46.046,0.0212,-0.5848,0.7145,-0.3833
0.125,-0.33,-0.954,99.3,11.7,-126.8,1023,2018,4,25,16,19,46.07,0.0374,-0.5745,0.7254,-0.377
-0.167,-0.019,-0.184,135.1,-0.3,-141.2,1023,2018,4,25,16,19,46.088,0.0624,-0.5651,0.7375,-0.3643
-0.428,0.659,0.558,125.8,1.5,-132,1023,2018,4,25,16,19,46.109,0.0908,-0.5546,0.7497,-0.3493
-0.517,1.431,1.129,80,-45.8,-82.5,1023,2018,4,25,16,19,46.13,0.1092,-0.5467,0.7596,-0.3346
-0.473,1.763,1.177,12.3,-77.2,7.9,1023,2018,4,25,16,19,46.167,0.1109,-0.5456,0.7662,-0.3205
-0.351,1.509,0.85,-40,-13.5,110.6,1023,2018,4,25,16,19,46.188,0.1002,-0.5539,0.7633,-0.3166
-0.295,1.289,0.52,-61.3,59.4,196.9,0,2018,4,25,16,19,46.193,0.0871,-0.5713,0.7471,-0.3283
-0.242,1.191,0.011,-55.2,19.5,253.7,0,2018,4,25,16,19,46.21,0.0711,-0.5964,0.7216,-0.3441
-0.211,-0.122,-0.472,-37.7,-60.5,271.9,0,2018,4,25,16,19,46.249,0.0456,-0.6269,0.6955,-0.3481
-0.088,-1.731,-0.574,-0.8,-10.6,226.7,0,2018,4,25,16,19,46.273,0.0231,-0.6562,0.6697,-0.3467
-0.109,-3.059,-0.882,37,70.6,102,0,2018,4,25,16,19,46.291,0.0194,-0.6768,0.6477,-0.3492
0.097,-2.378,-0.573,57.2,-6.1,-69.3,0,2018,4,25,16,19,46.293,0.0298,-0.6811,0.6433,-0.3482
0.195,-1.645,-0.249,47.9,-98,-194.4,0,2018,4,25,16,19,46.308,0.0361,-0.6685,0.6636,-0.3334
-0.219,-0.668,0.251,43,-25.7,-254.6,0,2018,4,25,16,19,46.345,0.0465,-0.6441,0.6938,-0.3184
-0.561,0.54,0.547,34,38,-251.2,0,2018,4,25,16,19,46.366,0.0674,-0.6143,0.7208,-0.3136
-0.566,1.564,0.609,8.6,-14.2,-193.8,0,2018,4,25,16,19,46.369,0.0843,-0.5865,0.7432,-0.3105
-0.416,2.049,0.689,-9.1,-82.1,-95.7,0,2018,4,25,16,19,46.409,0.0865,-0.5681,0.7607,-0.3016
-0.38,1.765,0.815,-24,-77.4,27,0,2018,4,25,16,19,46.429,0.077,-0.5642,0.7687,-0.2908
-0.281,1.299,0.755,-36.9,41.9,135.3,0,2018,4,25,16,19,46.433,0.0665,-0.5745,0.7616,-0.2921
-0.136,1.12,0.492,-48.8,149.2,208.6,0,2018,4,25,16,19,46.453,0.0623,-0.5942,0.7385,-0.3123
-0.338,1.003,0.205,-62.7,79.7,250.6,0,2018,4,25,16,19,46.471,0.0559,-0.619,0.7071,-0.337
-0.36,-0.368,-0.202,-79.1,-80.8,248.6,0,2018,4,25,16,19,46.494,0.0317,-0.6452,0.6803,-0.3461
-0.153,-3.128,-0.952,-61.1,-6.6,157.4,0,2018,4,25,16,19,46.511,0.0026,-0.6654,0.6606,-0.3473
0.033,-2.842,-1.103,-4.7,117.6,-4.2,0,2018,4,25,16,19,46.531,0.0036,-0.6721,0.6471,-0.3597
0.283,-1.315,-0.77,24.1,9.1,-140.3,0,2018,4,25,16,19,46.551,0.0184,-0.6637,0.652,-0.366
0.192,-0.838,-0.336,41.6,-47.6,-203.2,0,2018,4,25,16,19,46.588,0.0293,-0.6452,0.6747,-0.3571
-0.116,0.025,0.164,58,30.8,-219.1,0,2018,4,25,16,19,46.609,0.0478,-0.6225,0.6986,-0.3492
-0.284,0.986,0.391,57.5,25.2,-195.2,1023,2018,4,25,16,19,46.613,0.072,-0.5997,0.7181,-0.3454
-0.34,1.384,0.393,45,-44.3,-139.7,1023,2018,4,25,16,19,46.633,0.0874,-0.5816,0.7354,-0.3363
-0.446,1.377,0.198,34.6,-78.5,-58.9,1023,2018,4,25,16,19,46.653,0.0913,-0.5721,0.7487,-0.3219
-0.562,1.086,0.134,35.2,-18.6,31.2,1023,2018,4,25,16,19,46.672,0.0909,-0.5734,0.7524,-0.311
-0.394,1.065,-0.188,49.2,83.3,109.3,1023,2018,4,25,16,19,46.713,0.0962,-0.5846,0.7421,-0.3132
-0.298,1.076,-0.253,69.6,77.2,168.4,1023,2018,4,25,16,19,46.734,0.1055,-0.6044,0.7213,-0.3212
-0.221,0.525,0.137,80.2,-12.3,200.3,1023,2018,4,25,16,19,46.738,0.1075,-0.6315,0.6979,-0.3201
-0.043,-0.349,0.594,65.3,-35.9,189.3,1023,2018,4,25,16,19,46.756,0.1023,-0.6599,0.6758,-0.3118
0.124,-0.996,1.274,19.6,-43.6,137.4,1023,2018,4,25,16,19,46.772,0.094,-0.6822,0.6577,-0.305
0.363,-1.287,1.275,-63.5,-82.8,52.7,1023,2018,4,25,16,19,46.794,0.0789,-0.6927,0.65,-0.3019
0.454,-1.397,0.803,-136.9,-88.7,-42,1023,2018,4,25,16,19,46.814,0.0558,-0.6886,0.6557,-0.3043
0.048,-1.144,0.242,-173.3,-27.9,-119.3,1023,2018,4,25,16,19,46.834,0.0346,-0.6707,0.6703,-0.3153
-0.225,-0.412,-0.881,-158.6,72.6,-164,0,2018,4,25,16,19,46.854,0.0256,-0.6434,0.6866,-0.3373
-0.363,0.494,-1.502,-89.1,82.5,-146.1,0,2018,4,25,16,19,46.875,0.0298,-0.616,0.6993,-0.3612
-0.303,1.126,-1.854,20,-17.4,-88.5,0,2018,4,25,16,19,46.912,0.0371,-0.5991,0.7098,-0.3684
-0.307,0.899,-1.568,139.5,-80.9,-11.5,0,2018,4,25,16,19,46.931,0.0443,-0.5987,0.718,-0.352
-0.388,0.634,-0.667,221.5,-62.1,50.1,0,2018,4,25,16,19,46.935,0.0587,-0.6133,0.7182,-0.3233
-0.382,0.247,0.604,230.1,-55.1,71.6,0,2018,4,25,16,19,46.976,0.0783,-0.6346,0.7114,-0.2915
-0.2,-0.514,1.908,153.9,-24.4,50.3,0,2018,4,25,16,19,46.995,0.0943,-0.6526,0.7035,-0.2649
0.072,-0.531,2.215,30.1,32.6,2.4,0,2018,4,25,16,19,46.999,0.1054,-0.6598,0.6985,-0.256
0.054,-0.13,1.866,-98.6,20.5,-37.1,0,2018,4,25,16,19,47.013,0.1052,-0.655,0.7,-0.2641
-0.096,0.01,0.948,-189.7,-35.2,-59.7,0,2018,4,25,16,19,47.053,0.0878,-0.6418,0.7088,-0.279
-0.256,-0.245,-0.224,-215.1,26.6,-67.5,0,2018,4,25,16,19,47.072,0.063,-0.6233,0.7195,-0.2995
-0.219,0.448,-1.413,-153.8,118.9,-44.1,0,2018,4,25,16,19,47.076,0.0515,-0.6045,0.723,-0.33
-0.164,0.675,-2.219,-33.7,53.2,12.1,0,2018,4,25,16,19,47.096,0.0505,-0.5963,0.7198,-0.3516
-0.136,0.296,-2.13,101.6,-50.2,52.1,0,2018,4,25,16,19,47.133,0.0525,-0.6032,0.7161,-0.347
-0.194,-0.053,-1.15,195.9,-74.3,62.5,0,2018,4,25,16,19,47.154,0.0614,-0.6206,0.7121,-0.3222
-0.238,-0.215,0.256,211.2,-69.6,45.3,0,2018,4,25,16,19,47.158,0.0764,-0.6395,0.7075,-0.2908
-0.17,-0.379,1.454,161.9,-37.3,14.2,0,2018,4,25,16,19,47.176,0.0922,-0.6531,0.704,-0.263
-0.107,-0.392,2.154,62.4,12.7,-19.7,0,2018,4,25,16,19,47.197,0.105,-0.6579,0.703,-0.2486
-0.034,0.094,1.973,-58.7,31,-42.6,0,2018,4,25,16,19,47.212,0.1096,-0.6532,0.7056,-0.2516
-0.123,0.401,1.277,-161.4,-26.5,-43.8,0,2018,4,25,16,19,47.253,0.0977,-0.6423,0.7127,-0.2643
-0.217,-0.071,0.362,-212,-11.8,-36.9,1023,2018,4,25,16,19,47.274,0.0714,-0.6285,0.7217,-0.2808
-0.137,0.003,-0.585,-188.3,118.3,-29.2,1023,2018,4,25,16,19,47.278,0.0536,-0.613,0.7246,-0.3101
-0.015,0.31,-1.52,-112,108.2,-3.4,1023,2018,4,25,16,19,47.297,0.0489,-0.6012,0.7204,-0.3421
0.061,0.351,-2.022,-1.8,-20.2,18.6,1023,2018,4,25,16,19,47.336,0.0461,-0.5985,0.7172,-0.3538
-0.027,-0.024,-1.727,110.4,-92.3,31.5,1023,2018,4,25,16,19,47.356,0.0445,-0.6058,0.7183,-0.339
-0.106,0.08,-1.027,190.3,-75.4,38.7,1023,2018,4,25,16,19,47.36,0.053,-0.6199,0.7179,-0.3121
-0.235,0.023,0.147,214.6,-75.8,35.3,1023,2018,4,25,16,19,47.38,0.0706,-0.6357,0.7158,-0.2799
-0.238,-0.342,1.332,175.3,-31.9,14.3,1023,2018,4,25,16,19,47.417,0.0877,-0.6489,0.7129,-0.2507
-0.203,-0.362,2.086,87.1,58.2,-15.1,1023,2018,4,25,16,19,47.439,0.106,-0.6541,0.7102,-0.2375
-0.184,0.28,2.013,-31,83.6,-26.7,1023,2018,4,25,16,19,47.443,0.1195,-0.6506,0.709,-0.244
-0.232,0.579,1.462,-146.9,1.6,-13.8,1023,2018,4,25,16,19,47.461,0.1138,-0.6429,0.7114,-0.2598
-0.301,-0.072,0.688,-221.3,-19.9,-2.8,1023,2018,4,25,16,19,47.48,0.0876,-0.6335,0.7167,-0.2777
-0.187,-0.248,-0.229,-219.6,101.6,-4.8,1023,2018,4,25,16,19,47.52,0.0638,-0.6209,0.718,-0.3077
-0.092,0.013,-1.215,-164.1,110.2,2.6,0,2018,4,25,16,19,47.54,0.0528,-0.6085,0.7131,-0.3438
0.104,0.02,-1.89,-72.4,-12.7,3.7,0,2018,4,25,16,19,47.544,0.0431,-0.6013,0.7106,-0.3626
0.084,-0.292,-2.069,46.3,-78.7,-1.3,0,2018,4,25,16,19,47.559,0.0354,-0.601,0.7143,-0.3565
-0.054,0.081,-1.497,158.3,-62.4,4.8,0,2018,4,25,16,19,47.58,0.0415,-0.6081,0.7178,-0.3363
-0.225,0.449,-0.578,216.1,-77.9,20.8,0,2018,4,25,16,19,47.6,0.0578,-0.6211,0.7185,-0.3073
-0.317,0.345,0.279,219,-107.4,33.4,0,2018,4,25,16,19,47.636,0.0737,-0.6369,0.7177,-0.2712
-0.357,-0.258,1.447,180.2,-53.8,31.9,0,2018,4,25,16,19,47.657,0.0874,-0.6515,0.715,-0.2377
-0.288,-0.418,2.095,92.1,80.5,8.7,0,2018,4,25,16,19,47.661,0.1058,-0.6592,0.7097,-0.2246
-0.304,0.301,2.047,-32.8,64.8,-1.2,0,2018,4,25,16,19,47.682,0.1195,-0.659,0.7052,-0.2323
-0.195,0.306,1.447,-149.4,-59.3,-0.4,0,2018,4,25,16,19,47.704,0.1077,-0.6548,0.7072,-0.2436
-0.208,-0.265,0.628,-220.2,-101.9,-10.7,0,2018,4,25,16,19,47.74,0.073,-0.6475,0.715,-0.2532
-0.212,-0.698,-0.294,-223.5,56.9,-32.3,0,2018,4,25,16,19,47.744,0.0422,-0.6345,0.721,-0.2749
-0.072,0.048,-1.328,-164.4,161,-29.2,0,2018,4,25,16,19,47.761,0.0333,-0.6195,0.7193,-0.3124
0.096,0.454,-1.988,-62.2,54.7,-7.3,0,2018,4,25,16,19,47.78,0.0327,-0.61,0.7151,-0.3394
0.109,0.175,-2.019,62.1,-71.8,11.1,0,2018,4,25,16,19,47.801,0.0307,-0.6107,0.7161,-0.3364
-0.21,0.326,-0.243,211.7,-72,45.3,0,2018,4,25,16,19,47.821,0.0494,-0.6362,0.7162,-0.2824
-0.309,0.165,0.813,195.8,-67.9,47.8,0,2018,4,25,16,19,47.843,0.0652,-0.6525,0.7121,-0.2506
-0.268,-0.33,1.751,127.3,-5.5,32,0,2018,4,25,16,19,47.861,0.079,-0.6649,0.707,-0.2274
-0.221,-0.183,2.089,17.8,44.1,7.7,0,2018,4,25,16,19,47.881,0.0905,-0.6696,0.7026,-0.2226
-0.173,0.075,1.702,-110.2,6.9,-8.8,0,2018,4,25,16,19,47.921,0.0885,-0.667,0.7023,-0.2322
-0.196,-0.079,1.016,-206.9,-49.8,-19.6,1023,2018,4,25,16,19,47.941,0.0656,-0.6587,0.7073,-0.2476
-0.126,-0.324,-0.045,-228.7,13.4,-37.9,1023,2018,4,25,16,19,47.945,0.0358,-0.6451,0.7139,-0.2696
-0.061,0.065,-0.992,-180.2,85.3,-33.5,1023,2018,4,25,16,19,47.964,0.0184,-0.6298,0.7162,-0.3
0.142,0.325,-1.734,-81.7,42.8,-8.8,1023,2018,4,25,16,19,47.982,0.0107,-0.6198,0.715,-0.3232
0.145,0.288,-1.835,35.9,-32.4,16.7,1023,2018,4,25,16,19,48.001,0.0082,-0.6192,0.7144,-0.3255
0.009,0.246,-1.343,130.2,-61.4,38.2,1023,2018,4,25,16,19,48.037,0.012,-0.6278,0.7141,-0.3094
-0.18,0.339,-0.542,177.4,-63.5,55.3,1023,2018,4,25,16,19,48.057,0.0223,-0.6421,0.7116,-0.2841
-0.288,-0.038,0.483,180.4,-45.7,55.7,1023,2018,4,25,16,19,48.061,0.0366,-0.658,0.707,-0.2563
-0.279,-0.195,1.25,131.7,2.3,35.6,1023,2018,4,25,16,19,48.101,0.0519,-0.6706,0.7013,-0.2358
-0.24,0.034,1.68,44.2,8.9,17.8,1023,2018,4,25,16,19,48.12,0.0629,-0.6771,0.6971,-0.227
-0.215,0.162,1.505,-52.8,-17.4,12.4,1023,2018,4,25,16,19,48.124,0.061,-0.6786,0.6956,-0.2276
-0.26,-0.104,1.034,-134.3,-24.3,12.9,1023,2018,4,25,16,19,48.145,0.0455,-0.6764,0.6961,-0.236
-0.178,-0.215,0.35,-164.4,39.1,8,1023,2018,4,25,16,19,48.166,0.0268,-0.671,0.6955,-0.2552
-0.112,-0.183,-0.365,-148.6,85.5,11.7,1023,2018,4,25,16,19,48.184,0.015,-0.6644,0.6919,-0.2819
0.025,-0.11,-0.885,-96.1,72.2,16,1023,2018,4,25,16,19,48.203,0.0092,-0.6596,0.6863,-0.3062
0.129,-0.25,-1.152,-28.8,43.4,19.2,0,2018,4,25,16,19,48.244,0.007,-0.6583,0.6813,-0.3198
0.122,-0.237,-0.924,45.4,75.8,18.2,0,2018,4,25,16,19,48.264,0.0136,-0.6612,0.6758,-0.3253
0.052,-0.172,-0.272,87.8,141.7,19.3,0,2018,4,25,16,19,48.268,0.0333,-0.667,0.6672,-0.3297
-0.027,0.243,0.288,86,191.1,22.7,0,2018,4,25,16,19,48.285,0.0655,-0.6724,0.6546,-0.3389
-0.088,0.493,0.459,57.2,190.1,30.6,0,2018,4,25,16,19,48.303,0.0948,-0.6773,0.6386,-0.3525
-0.077,0.436,0.675,8.5,217.3,49.6,0,2018,4,25,16,19,48.341,0.119,-0.68,0.6208,-0.3713
-0.141,0.162,0.361,-28,328.9,60.7,0,2018,4,25,16,19,48.362,0.1464,-0.6788,0.596,-0.403
-0.056,-0.011,-0.134,-42.4,437.3,74.2,0,2018,4,25,16,19,48.366,0.1858,-0.6708,0.5605,-0.4485
0.038,-0.643,-0.167,-38.1,474.2,61.4,0,2018,4,25,16,19,48.387,0.2305,-0.6573,0.515,-0.4995
0.272,-0.616,-0.124,-39.9,410.8,26.1,0,2018,4,25,16,19,48.407,0.2738,-0.6377,0.4708,-0.5446
0.391,-0.418,-0.288,-37.5,247.8,-18.8,0,2018,4,25,16,19,48.445,0.3064,-0.6176,0.4403,-0.5751
0.303,-0.52,-0.41,-22.7,106.9,-78.5,0,2018,4,25,16,19,48.464,0.3268,-0.6014,0.4303,-0.5883
0.207,-0.555,-0.456,10.6,52.9,-137.9,0,2018,4,25,16,19,48.468,0.3457,-0.5877,0.4346,-0.5883
-0.071,-0.414,-0.369,41.6,31.7,-168.7,0,2018,4,25,16,19,48.484,0.3674,-0.5761,0.4453,-0.5785
-0.388,0.136,0.095,53.9,50,-187.8,0,2018,4,25,16,19,48.506,0.3937,-0.5641,0.4558,-0.5646
-0.493,0.905,0.528,32,27.3,-171,0,2018,4,25,16,19,48.525,0.4191,-0.5507,0.4667,-0.5505
-0.501,1.387,0.776,-13.3,-9.6,-112.5,0,2018,4,25,16,19,48.563,0.4342,-0.5392,0.4791,-0.5394
-0.462,1.444,0.728,-59.3,-22.3,-30.9,0,2018,4,25,16,19,48.583,0.4358,-0.5312,0.4905,-0.5358
-0.368,0.961,0.408,-93,42.4,44.8,0,2018,4,25,16,19,48.587,0.4285,-0.5241,0.4954,-0.5441
-0.224,0.695,0.091,-99.6,131.5,102.3,1023,2018,4,25,16,19,48.607,0.4211,-0.5141,0.4871,-0.5666
-0.071,0.326,-0.086,-94.2,149.3,142.8,1023,2018,4,25,16,19,48.644,0.4134,-0.5036,0.4682,-0.5967
0.201,-0.332,-0.59,-76.4,93,147.8,1023,2018,4,25,16,19,48.664,0.4013,-0.4974,0.4485,-0.6247
0.278,-1.233,-0.865,-38.6,76.2,96.5,1023,2018,4,25,16,19,48.668,0.3895,-0.4952,0.4333,-0.6444
0.283,-1.466,-0.811,13.4,75.1,7.8,1023,2018,4,25,16,19,48.707,0.3896,-0.4924,0.4207,-0.6547
0.14,-0.886,-0.561,52.9,-5.8,-84.7,1023,2018,4,25,16,19,48.727,0.4006,-0.4905,0.4172,-0.6516
-0.047,-0.516,-0.344,62.9,-124.9,-139.2,1023,2018,4,25,16,19,48.731,0.4118,-0.4935,0.4314,-0.6329
-0.21,-0.109,0.016,65.7,-159,-163.4,1023,2018,4,25,16,19,48.746,0.4205,-0.4994,0.4565,-0.6043
-0.333,0.565,0.444,58.3,-126.8,-156.2,1023,2018,4,25,16,19,48.766,0.4298,-0.5033,0.4808,-0.5749
-0.403,1.37,0.877,27.5,-95.9,-101.6,1023,2018,4,25,16,19,48.785,0.4369,-0.5046,0.4999,-0.5517
-0.408,1.735,0.973,-22.5,-64.1,-12,1023,2018,4,25,16,19,48.825,0.4353,-0.5058,0.5125,-0.5401
-0.346,1.364,0.729,-67,-9.9,75.4,1023,2018,4,25,16,19,48.847,0.4243,-0.5076,0.5166,-0.5434
-0.171,0.652,0.351,-87.9,106.2,141.7,0,2018,4,25,16,19,48.851,0.4105,-0.5062,0.5078,-0.5632
-0.027,0.116,0.114,-93.7,146.7,178.7,0,2018,4,25,16,19,48.868,0.3983,-0.5013,0.4861,-0.5946
0.142,-0.862,-0.35,-82.2,115.3,164.7,0,2018,4,25,16,19,48.908,0.3852,-0.4955,0.4634,-0.6255
0.184,-1.704,-0.875,-42.5,83.9,80.3,0,2018,4,25,16,19,48.928,0.3745,-0.492,0.4461,-0.6469
0.166,-1.654,-0.996,24.1,48.6,-39.9,0,2018,4,25,16,19,48.932,0.378,-0.4877,0.4372,-0.6542
0.024,-0.976,-0.711,72.5,-68.7,-132.7,0,2018,4,25,16,19,48.951,0.3917,-0.487,0.4426,-0.6429
-0.182,-0.497,-0.441,100.2,-151.5,-179.2,0,2018,4,25,16,19,48.971,0.4059,-0.4926,0.4633,-0.6146
-0.354,0.183,0.106,107.9,-135.5,-189.3,0,2018,4,25,16,19,48.989,0.4214,-0.4988,0.4871,-0.5798
-0.421,1.063,0.659,90.9,-100.1,-157.9,0,2018,4,25,16,19,49.026,0.4374,-0.5023,0.5063,-0.5476
-0.409,1.657,1.075,41.9,-65.6,-82.5,0,2018,4,25,16,19,49.046,0.4476,-0.5041,0.5195,-0.5248
-0.339,1.576,1.023,-19.8,0.3,15.3,0,2018,4,25,16,19,49.05,0.4484,-0.5046,0.5248,-0.5184
-0.245,1.094,0.627,-64.3,89.5,103.3,0,2018,4,25,16,19,49.069,0.4425,-0.5026,0.5185,-0.5316
-0.095,0.544,0.279,-82.2,151.2,161.3,0,2018,4,25,16,19,49.091,0.4339,-0.4978,0.5004,-0.5598
-0.019,-0.114,-0.022,-87.1,152.7,187,0,2018,4,25,16,19,49.13,0.4241,-0.4906,0.4761,-0.5938
0.027,-0.891,-0.42,-75.8,128.1,165.3,0,2018,4,25,16,19,49.149,0.4101,-0.4861,0.4519,-0.6254
0.116,-1.454,-0.745,-42.8,109.5,90.9,0,2018,4,25,16,19,49.153,0.401,-0.481,0.4322,-0.6488
0.182,-1.3,-0.696,-0.8,53.6,-6.8,0,2018,4,25,16,19,49.173,0.4023,-0.4753,0.4206,-0.6597
0.106,-0.926,-0.579,29.7,-66,-87.7,0,2018,4,25,16,19,49.192,0.4088,-0.4737,0.425,-0.654
-0.056,-0.584,-0.541,57.1,-143.9,-142,0,2018,4,25,16,19,49.21,0.4158,-0.4778,0.4447,-0.6331
-0.241,-0.163,-0.198,80.8,-126.7,-171.7,0,2018,4,25,16,19,49.228,0.4269,-0.4831,0.468,-0.6043
-0.389,0.639,0.38,83.3,-89.6,-165.1,0,2018,4,25,16,19,49.249,0.4438,-0.4845,0.4871,-0.5752
-0.443,1.355,0.872,52.1,-79.8,-109.6,1023,2018,4,25,16,19,49.269,0.4564,-0.486,0.5013,-0.5513
-0.439,1.536,0.998,2.2,-57.7,-26.6,1023,2018,4,25,16,19,49.307,0.459,-0.4884,0.5117,-0.5374
-0.329,1.197,0.715,-40.2,4,55.4,1023,2018,4,25,16,19,49.328,0.453,-0.4903,0.5147,-0.5379
-0.231,0.771,0.408,-60.3,93.1,118,1023,2018,4,25,16,19,49.332,0.4442,-0.4892,0.506,-0.5542
-0.002,0.256,0.141,-70.8,123.9,158.8,1023,2018,4,25,16,19,49.352,0.4342,-0.486,0.4877,-0.5807
0.212,-0.415,-0.319,-68.1,95.6,166.4,1023,2018,4,25,16,19,49.372,0.423,-0.4814,0.4681,-0.6083
0.304,-1.361,-0.792,-51,56.5,120.2,1023,2018,4,25,16,19,49.412,0.4081,-0.4814,0.4528,-0.6297
0.246,-1.682,-1.042,1.1,66.6,15.7,1023,2018,4,25,16,19,49.432,0.4039,-0.4793,0.4418,-0.6417
0.129,-1.164,-0.772,47.7,-16.4,-88.9,1023,2018,4,25,16,19,49.436,0.4134,-0.4768,0.4398,-0.6389
-0.036,-0.815,-0.577,73.3,-137.9,-156.9,1023,2018,4,25,16,19,49.455,0.4252,-0.4798,0.4551,-0.6178
-0.276,-0.453,-0.213,90.1,-160.8,-197.7,1023,2018,4,25,16,19,49.491,0.4373,-0.486,0.4807,-0.5842
-0.492,0.43,0.431,94.7,-121.5,-206.4,1023,2018,4,25,16,19,49.512,0.4541,-0.4885,0.5045,-0.5481
-0.63,1.548,1.087,58.6,-101.6,-144.6,1023,2018,4,25,16,19,49.516,0.4685,-0.4885,0.5235,-0.5173
-0.531,1.864,1.249,-3,-73.2,-41.3,0,2018,4,25,16,19,49.533,0.4713,-0.49,0.5371,-0.4991
-0.387,1.511,0.857,-53.5,6.5,63.7,0,2018,4,25,16,19,49.571,0.4641,-0.4916,0.5414,-0.4997
-0.237,0.956,0.339,-74.5,106.3,146.1,0,2018,4,25,16,19,49.592,0.4531,-0.4912,0.532,-0.5198
-0.043,0.371,0.082,-75.2,152,197,0,2018,4,25,16,19,49.596,0.4415,-0.4895,0.5098,-0.5526
0.094,-0.515,-0.133,-71.3,133.7,202.1,0,2018,4,25,16,19,49.615,0.4292,-0.4867,0.4839,-0.587
0.141,-1.355,-0.568,-52.7,100.8,147.9,0,2018,4,25,16,19,49.635,0.4151,-0.4862,0.4614,-0.615
0.12,-1.723,-0.873,-14.3,78.1,42.4,0,2018,4,25,16,19,49.654,0.4096,-0.4835,0.446,-0.6319
0.082,-1.354,-0.674,26.9,0.1,-67.1,0,2018,4,25,16,19,49.691,0.4157,-0.4801,0.4419,-0.6334
0,-0.835,-0.573,58.1,-109.6,-145.4,0,2018,4,25,16,19,49.711,0.4264,-0.4804,0.4545,-0.6169
-0.179,-0.294,-0.347,83.8,-160.5,-186,0,2018,4,25,16,19,49.715,0.4379,-0.4852,0.4786,-0.5861
-0.318,0.375,0.122,92.4,-143.4,-191,0,2018,4,25,16,19,49.733,0.4534,-0.4878,0.5032,-0.5505
-0.413,1.205,0.726,71.5,-127.7,-143.7,0,2018,4,25,16,19,49.772,0.4652,-0.4914,0.5234,-0.5176
-0.409,1.571,0.922,25,-105.7,-60.5,0,2018,4,25,16,19,49.792,0.4684,-0.4961,0.5384,-0.4943
-0.382,1.425,0.85,-20.3,-41.8,27,0,2018,4,25,16,19,49.796,0.4631,-0.501,0.546,-0.4861
-0.275,1.035,0.571,-50.2,23.9,100.5,0,2018,4,25,16,19,49.816,0.4533,-0.5047,0.5435,-0.4942
-0.124,0.435,0.33,-67.6,67.6,150.3,0,2018,4,25,16,19,49.836,0.4407,-0.5075,0.5325,-0.5142
0.095,-0.395,-0.032,-73.4,89.9,160.9,0,2018,4,25,16,19,49.874,0.4274,-0.5084,0.517,-0.5398
0.267,-1.203,-0.443,-53.1,105.3,122.8,0,2018,4,25,16,19,49.894,0.4164,-0.5078,0.4992,-0.5651
0.362,-1.577,-0.775,-16.6,107.8,32.6,0,2018,4,25,16,19,49.899,0.4151,-0.5031,0.484,-0.5832
0.177,-1.247,-0.664,20.3,57.8,-67.9,0,2018,4,25,16,19,49.917,0.4255,-0.4951,0.4762,-0.5889
-0.061,-0.639,-0.314,31.5,-66.3,-143.2,0,2018,4,25,16,19,49.938,0.4386,-0.4892,0.4843,-0.5775
-0.284,-0.085,-0.027,29.4,-131.2,-174.2,1023,2018,4,25,16,19,49.955,0.4483,-0.4864,0.5066,-0.5527
-0.378,0.472,0.235,26,-84.3,-161.1,1023,2018,4,25,16,19,49.975,0.4573,-0.4824,0.5295,-0.5268
-0.382,1.347,0.48,9.2,-38.8,-106.3,1023,2018,4,25,16,19,49.994,0.4664,-0.4764,0.5443,-0.5089
-0.379,1.627,0.49,-15.5,-12.6,-19.2,1023,2018,4,25,16,19,50.035,0.4694,-0.4724,0.5516,-0.5021
-0.36,1.326,0.286,-28.7,25.8,68.7,1023,2018,4,25,16,19,50.055,0.4647,-0.473,0.5505,-0.507
-0.308,0.894,0.121,-20.8,85.6,131.1,1023,2018,4,25,16,19,50.059,0.4576,-0.4762,0.5385,-0.5232
-0.363,0.426,0.334,-9.6,111.1,164.1,1023,2018,4,25,16,19,50.077,0.4507,-0.4808,0.5173,-0.5458
-0.203,-0.202,0.466,-11.8,110.3,169.8,1023,2018,4,25,16,19,50.113,0.4426,-0.4862,0.493,-0.5696
0.126,-0.998,0.192,-28.8,127.3,144,1023,2018,4,25,16,19,50.134,0.4348,-0.4883,0.4692,-0.5934
0.264,-1.238,-0.243,-31.8,137,87.7,1023,2018,4,25,16,19,50.141,0.4315,-0.4841,0.4473,-0.6157
0.343,-1.076,-0.386,-32.7,76.7,17.3,1023,2018,4,25,16,19,50.161,0.433,-0.476,0.4333,-0.6309
0.258,-1.008,-0.543,-25.7,-10.8,-55.6,0,2018,4,25,16,19,50.181,0.4354,-0.4689,0.4342,-0.6339
0.051,-0.656,-0.484,-5.8,-54.9,-117.5,0,2018,4,25,16,19,50.202,0.4411,-0.463,0.447,-0.6254
-0.14,0.028,-0.241,11.3,-88.9,-152.6,0,2018,4,25,16,19,50.222,0.4505,-0.4581,0.4654,-0.6086
-0.278,0.595,0.18,12.9,-120,-149.7,0,2018,4,25,16,19,50.238,0.4591,-0.4554,0.4877,-0.5864
-0.372,1.035,0.559,-1,-106.1,-109.1,0,2018,4,25,16,19,50.256,0.4636,-0.4543,0.509,-0.5652
-0.39,1.35,0.665,-24.5,-58,-42,0,2018,4,25,16,19,50.276,0.4631,-0.4532,0.5237,-0.5529
-0.302,1.22,0.391,-42.7,6.4,35.2,0,2018,4,25,16,19,50.315,0.4578,-0.4521,0.5289,-0.5532
-0.227,0.845,0.117,-43.8,79.8,99.4,0,2018,4,25,16,19,50.335,0.4504,-0.4508,0.5223,-0.5665
-0.007,0.34,-0.252,-33.3,127.8,143.2,0,2018,4,25,16,19,50.341,0.4428,-0.4495,0.5044,-0.5892
0.054,-0.064,-0.466,-14.6,111,156.9,0,2018,4,25,16,19,50.38,0.4344,-0.4507,0.4813,-0.6135
0.022,-0.471,-0.646,10.5,49,131.9,0,2018,4,25,16,19,50.4,0.4247,-0.4564,0.4608,-0.6315
0.076,-0.812,-0.819,42.1,-17,75.4,0,2018,4,25,16,19,50.404,0.4162,-0.4665,0.4493,-0.638
0.004,-0.476,-0.924,86.7,-100.1,21.1,0,2018,4,25,16,19,50.42,0.4117,-0.4813,0.4473,-0.6314
-0.12,0.292,-0.823,129.9,-228.5,-3.3,0,2018,4,25,16,19,50.439,0.4055,-0.5056,0.4566,-0.6093
-0.288,0.947,-0.347,141.9,-378.1,5.8,0,2018,4,25,16,19,50.458,0.3889,-0.541,0.4788,-0.5715
-0.496,0.828,-0.16,120.1,-527.3,56.5,0,2018,4,25,16,19,50.496,0.3519,-0.5866,0.5113,-0.52
-0.411,0.605,-0.146,76.2,-568.1,125.3,0,2018,4,25,16,19,50.515,0.2931,-0.6357,0.5434,-0.4631
-0.162,0.136,0.013,27.5,-506.9,162.8,0,2018,4,25,16,19,50.519,0.2245,-0.6786,0.5653,-0.4116
-0.121,-0.423,0.393,-17.8,-468,162.5,0,2018,4,25,16,19,50.557,0.156,-0.7112,0.5776,-0.3689
-0.036,-1.278,0.04,-62.1,-477.4,114,0,2018,4,25,16,19,50.577,0.0825,-0.7331,0.5895,-0.3288
0.294,-2.498,-0.32,-70,-343.8,15.8,0,2018,4,25,16,19,50.581,0.0181,-0.7398,0.6043,-0.2949
0.476,-1.118,0.031,-57.4,-252.3,-80.6,0,2018,4,25,16,19,50.617,-0.0226,-0.7327,0.6227,-0.2734
0.473,-0.83,-0.41,-40.5,-294.2,-136.7,1023,2018,4,25,16,19,50.637,-0.0586,-0.7156,0.6496,-0.2495
0.313,-0.703,-0.304,3.8,-166,-167.8,1023,2018,4,25,16,19,50.641,-0.0838,-0.6939,0.6783,-0.2263
0.061,-0.051,-0.354,46.5,-39.9,-170.9,1023,2018,4,25,16,19,50.659,-0.0849,-0.6729,0.7027,-0.2146
-0.113,0.48,-0.311,78.1,-5,-149,1023,2018,4,25,16,19,50.697,-0.0728,-0.6549,0.7229,-0.2074
-0.327,0.698,-0.277,98.8,-33.8,-113.7,1023,2018,4,25,16,19,50.717,-0.0586,-0.6412,0.7393,-0.1966
-0.382,0.426,0.059,108.1,-56.6,-81.1,1023,2018,4,25,16,19,50.721,-0.0474,-0.6316,0.7526,-0.1795
-0.408,0.151,0.366,103.9,-6.6,-57.8,1023,2018,4,25,16,19,50.742,-0.0351,-0.6256,0.7619,-0.1635
-0.44,0.322,0.709,83.1,53.8,-39.8,1023,2018,4,25,16,19,50.763,-0.0179,-0.6219,0.7669,-0.1573
-0.387,0.591,0.954,46.4,52.6,-12.3,1023,2018,4,25,16,19,50.781,-0.0021,-0.6202,0.7683,-0.1581
-0.256,0.647,1.093,-5.6,19.9,25.1,1023,2018,4,25,16,19,50.82,0.0041,-0.6216,0.7665,-0.1607
-0.134,0.506,0.917,-57.4,24.4,62,1023,2018,4,25,16,19,50.841,0.0002,-0.6267,0.7611,-0.1668
-0.071,0.434,0.58,-93.5,65.6,90.8,1023,2018,4,25,16,19,50.845,-0.0071,-0.6346,0.7511,-0.1815
0.032,0.252,0.101,-107.5,72.5,108.9,1023,2018,4,25,16,19,50.866,-0.0159,-0.6444,0.7372,-0.2022
0.088,-0.201,-0.486,-92.2,42.4,108.4,0,2018,4,25,16,19,50.884,-0.026,-0.655,0.722,-0.221
0.034,-1.321,-1.002,-52.6,0,62.9,0,2018,4,25,16,19,50.92,-0.0367,-0.6634,0.7106,-0.2312
0.104,-1.65,-1.01,0.6,-17.5,-31.2,0,2018,4,25,16,19,50.94,-0.0417,-0.6642,0.7091,-0.2328
0.184,-0.981,-0.761,47.2,-10.1,-110.6,0,2018,4,25,16,19,50.944,-0.0371,-0.6557,0.7187,-0.2282
0.026,-0.105,-0.306,72,-5.8,-143.4,0,2018,4,25,16,19,50.964,-0.0247,-0.6414,0.7341,-0.2212
-0.155,0.37,0.159,79.4,-30.8,-139.8,0,2018,4,25,16,19,50.984,-0.0113,-0.6256,0.751,-0.2107
-0.206,0.51,0.577,74.7,-27.3,-114.6,0,2018,4,25,16,19,51.004,0,-0.6114,0.7661,-0.198
-0.277,0.641,0.766,53.9,27.6,-77.9,0,2018,4,25,16,19,51.024,0.0119,-0.6006,0.7763,-0.1908
-0.44,1.089,1.086,11.6,84.8,-19,0,2018,4,25,16,19,51.043,0.0242,-0.5947,0.7793,-0.1954
-0.282,0.932,0.802,-28.8,44.8,30.4,0,2018,4,25,16,19,51.082,0.0307,-0.5949,0.7761,-0.2067
-0.141,0.637,0.563,-63.5,21.4,70,0,2018,4,25,16,19,51.103,0.0249,-0.6001,0.7698,-0.2155
0.026,0.248,0.052,-74.8,78.2,95.8,0,2018,4,25,16,19,51.107,0.0165,-0.6085,0.7594,-0.2292
0.065,0.342,-0.055,-61.3,133.7,112,0,2018,4,25,16,19,51.125,0.0155,-0.619,0.7436,-0.2521
-0.046,0.121,-0.151,-50.2,75.2,118.9,0,2018,4,25,16,19,51.148,0.0152,-0.6312,0.7259,-0.2726
-0.075,-0.657,-0.42,-36.7,6.7,97.6,0,2018,4,25,16,19,51.167,0.0081,-0.6429,0.712,-0.282
-0.073,-1.332,-0.524,-16.3,-16,43.9,0,2018,4,25,16,19,51.184,0.0004,-0.6505,0.7043,-0.2842
0.007,-1.355,-0.478,8.3,-21.3,-31.2,0,2018,4,25,16,19,51.204,-0.0023,-0.6509,0.7046,-0.2823
0.032,-0.932,-0.265,24.7,-31.9,-94.3,0,2018,4,25,16,19,51.223,0,-0.6436,0.7134,-0.2769
-0.042,-0.508,0.054,31.2,-49.8,-135.4,0,2018,4,25,16,19,51.261,0.0045,-0.6302,0.7284,-0.2684
-0.207,-0.388,0.357,29.5,-37.7,-158.5,0,2018,4,25,16,19,51.28,0.0102,-0.6125,0.7468,-0.2585
-0.285,-0.012,0.589,15.4,-1,-163.8,1023,2018,4,25,16,19,51.303,0.0187,-0.592,0.7647,-0.2535
-0.253,0.564,0.563,-4.5,15.8,-147.5,1023,2018,4,25,16,19,51.318,0.0275,-0.571,0.7801,-0.2538
-0.039,1.359,0.41,-25.2,-7.9,-103.8,1023,2018,4,25,16,19,51.325,0.0314,-0.5528,0.7925,-0.2555
0.06,1.691,0.28,-35.5,-7.7,-29.8,1023,2018,4,25,16,19,51.362,0.0286,-0.5421,0.7997,-0.256
0.053,1.656,0.175,-30.8,65.2,59.1,1023,2018,4,25,16,19,51.382,0.0259,-0.5427,0.797,-0.2634
-0.011,1.552,-0.202,-13.2,77.2,139,1023,2018,4,25,16,19,51.384,0.0258,-0.5555,0.7834,-0.2773
-0.119,0.851,-0.227,2.8,3.6,187.6,1023,2018,4,25,16,19,51.421,0.0208,-0.5777,0.7649,-0.2837
-0.14,-0.014,-0.32,21.1,-19.2,198.3,1023,2018,4,25,16,19,51.441,0.0111,-0.6042,0.7454,-0.2811
-0.195,-0.744,-0.334,44.2,6.9,177.5,1023,2018,4,25,16,19,51.445,0.0052,-0.6302,0.7252,-0.2769
-0.241,-1.297,-0.099,66.6,27.4,125,1023,2018,4,25,16,19,51.483,0.0075,-0.652,0.7071,-0.2734
-0.252,-1.714,0.171,66.3,2.6,43.2,1023,2018,4,25,16,19,51.504,0.0136,-0.6655,0.6966,-0.2675
-0.155,-1.609,0.494,41.9,-21.8,-45.5,1023,2018,4,25,16,19,51.508,0.0192,-0.6675,0.6975,-0.2596
-0.1,-1.19,0.611,3.3,-10.1,-117,1023,2018,4,25,16,19,51.529,0.0238,-0.6581,0.7081,-0.2545
-0.115,-0.48,0.581,-34.6,7.3,-161.7,0,2018,4,25,16,19,51.549,0.0282,-0.6395,0.7242,-0.2561
-0.111,0.108,0.327,-59.6,-9.3,-178.3,0,2018,4,25,16,19,51.569,0.0295,-0.6152,0.7434,-0.2605
-0.041,0.551,-0.055,-62.4,-1,-170.2,0,2018,4,25,16,19,51.587,0.0282,-0.5891,0.7627,-0.265
-0.017,1.331,-0.309,-43,22.8,-127.1,0,2018,4,25,16,19,51.608,0.0294,-0.5662,0.7776,-0.2715
0.006,1.793,-0.338,-8.9,31.7,-45.7,0,2018,4,25,16,19,51.644,0.0327,-0.553,0.7849,-0.2773
-0.1,1.84,-0.259,22.5,16.8,50.7,0,2018,4,25,16,19,51.664,0.0363,-0.5539,0.7831,-0.2801
-0.208,1.267,-0.2,41.7,-5.4,131.4,0,2018,4,25,16,19,51.669,0.0364,-0.5685,0.7734,-0.2779
-0.251,0.674,0.029,48.3,-6.9,176,0,2018,4,25,16,19,51.689,0.0345,-0.5918,0.7574,-0.2735
-0.289,0.085,0.115,47.4,-38,190,0,2018,4,25,16,19,51.708,0.0297,-0.6185,0.7385,-0.2666
-0.208,-0.795,0.11,41.4,-46.4,169.3,0,2018,4,25,16,19,51.729,0.0218,-0.6439,0.7203,-0.2568
-0.188,-1.766,0.228,39.7,-9.3,105.3,0,2018,4,25,16,19,51.749,0.0174,-0.6632,0.7056,-0.2488
-0.161,-2.082,0.38,21.4,12,1.3,0,2018,4,25,16,19,51.787,0.0199,-0.671,0.6991,-0.246
0.027,-1.487,0.494,-13.3,-21.2,-99.2,0,2018,4,25,16,19,51.808,0.0225,-0.6645,0.7055,-0.2451
0.029,-0.918,0.431,-49.3,-25.5,-164.4,0,2018,4,25,16,19,51.812,0.0208,-0.6462,0.7224,-0.2448
-0.145,-0.153,0.258,-63.9,7.2,-195.8,0,2018,4,25,16,19,51.831,0.0201,-0.6202,0.7434,-0.2495
-0.191,0.518,0.028,-61.8,38,-187.4,0,2018,4,25,16,19,51.851,0.0228,-0.5916,0.7631,-0.2587
-0.144,1.477,-0.183,-48.2,23.9,-139.8,0,2018,4,25,16,19,51.87,0.0268,-0.5665,0.7785,-0.2685
-0.096,1.968,-0.171,-26,-19.5,-52.4,0,2018,4,25,16,19,51.891,0.0261,-0.5517,0.7881,-0.2714
-0.087,1.751,-0.078,-1.7,8.5,60,0,2018,4,25,16,19,51.908,0.0227,-0.5522,0.7881,-0.2709
-0.159,1.516,-0.102,22.6,60.6,151.6,0,2018,4,25,16,19,51.944,0.0231,-0.5676,0.7752,-0.276
-0.249,0.886,0.03,33.9,23.4,204.7,1023,2018,4,25,16,19,51.966,0.0228,-0.5933,0.7543,-0.2798
-0.278,-0.27,0.128,32.5,-24,210.9,1023,2018,4,25,16,19,51.97,0.0166,-0.6225,0.7318,-0.2765
-0.295,-1.865,0.095,25.6,-22.1,155.1,1023,2018,4,25,16,19,52.009,0.0079,-0.6476,0.7124,-0.2699
-0.151,-2.535,0.047,17.2,36.9,31.5,1023,2018,4,25,16,19,52.028,0.0075,-0.6602,0.7011,-0.269
0.006,-1.742,0.147,-5.3,-5,-91.9,1023,2018,4,25,16,19,52.033,0.0128,-0.656,0.7042,-0.271
0.082,-0.974,0.106,-27.7,-38.5,-171.2,1023,2018,4,25,16,19,52.052,0.0138,-0.638,0.7212,-0.2692
-0.028,-0.285,0.092,-26.1,-7.4,-204.5,1023,2018,4,25,16,19,52.073,0.0163,-0.6122,0.7434,-0.2687
-0.178,0.561,-0.021,-11.3,9,-199.4,1023,2018,4,25,16,19,52.093,0.0269,-0.5837,0.7651,-0.2702
-0.16,1.462,-0.039,0.9,-26,-149,1023,2018,4,25,16,19,52.113,0.0339,-0.5595,0.7831,-0.2689
-0.082,1.947,0.072,16.7,-60.2,-59.9,1023,2018,4,25,16,19,52.134,0.0354,-0.5459,0.7954,-0.2607
-0.102,1.837,0.206,27.7,-17.1,45.8,1023,2018,4,25,16,19,52.153,0.0347,-0.5465,0.7977,-0.2523
-0.177,1.451,0.147,39.5,59.4,142.3,1023,2018,4,25,16,19,52.192,0.0374,-0.5615,0.7869,-0.253
-0.278,1.127,0.164,43.1,65.7,202.7,0,2018,4,25,16,19,52.196,0.0425,-0.5869,0.7656,-0.2598
-0.344,0.439,0.099,37.4,-16,230.2,0,2018,4,25,16,19,52.21,0.0404,-0.6174,0.7411,-0.2605
-0.295,-0.958,-0.043,38.8,-35.4,212.6,0,2018,4,25,16,19,52.232,0.031,-0.648,0.7175,-0.2532
-0.294,-2.459,0.05,42.9,37.6,127.9,0,2018,4,25,16,19,52.25,0.0282,-0.6713,0.6973,-0.2491
-0.236,-2.45,0.034,35.2,53.4,-14,0,2018,4,25,16,19,52.292,0.0378,-0.6794,0.6881,-0.2516
0.001,-1.642,0.305,-4.6,-37.6,-135.7,0,2018,4,25,16,19,52.312,0.0441,-0.6702,0.6974,-0.2498
-0.033,-0.954,0.369,-40.6,-41.6,-208.5,0,2018,4,25,16,19,52.316,0.0431,-0.6475,0.7201,-0.2453
-0.275,-0.01,0.466,-54.9,11.8,-234.5,0,2018,4,25,16,19,52.332,0.0449,-0.6164,0.7461,-0.2473
-0.272,1.064,0.215,-58.6,30.5,-207.6,0,2018,4,25,16,19,52.372,0.0498,-0.5839,0.769,-0.255
-0.178,2.102,0.016,-51.4,-4.4,-126.6,0,2018,4,25,16,19,52.393,0.0515,-0.5582,0.7857,-0.2612
-0.074,2.312,-0.031,-26.8,-20.9,-3.5,0,2018,4,25,16,19,52.395,0.0469,-0.5477,0.7932,-0.2617
-0.162,1.919,-0.007,5,33.6,129.8,0,2018,4,25,16,19,52.412,0.0427,-0.5565,0.7867,-0.2636
