ax,ay,az,dpitch,droll,dyaw,heart,time_1,time_2,time_3,time_4,time_5,time_6,w,x,y,z
0.253,-0.023,-0.007,-2.1,-23.7,-0.9,0,2018,4,25,16,27,56.44,-0.0691,0.1049,0.3821,-0.9155
0.318,-0.119,-0.012,-3.2,-28.7,-1.3,0,2018,4,25,16,27,56.457,-0.0685,0.1057,0.3867,-0.9135
0.416,-0.102,-0.058,0.8,-1.9,-2.5,0,2018,4,25,16,27,56.47,-0.0681,0.1062,0.3891,-0.9124
0.459,-0.039,-0.024,3.9,12.3,-6.7,0,2018,4,25,16,27,56.489,-0.0673,0.106,0.3878,-0.9131
0.44,-0.049,0.052,2.1,4.3,-11.8,0,2018,4,25,16,27,56.511,-0.0658,0.106,0.3862,-0.9138
0.388,-0.045,0.066,-0.2,3.7,-14.5,0,2018,4,25,16,27,56.529,-0.0636,0.1068,0.3855,-0.9142
0.283,0.023,0.036,-0.1,6.6,-14.3,0,2018,4,25,16,27,56.548,-0.0614,0.1077,0.3843,-0.9148
0.165,-0.005,-0.029,0.2,4.2,-11.8,0,2018,4,25,16,27,56.568,-0.0594,0.1086,0.3831,-0.9153
-0.027,-0.007,0,-1.1,4.8,-9.6,0,2018,4,25,16,27,56.588,-0.0576,0.1097,0.3824,-0.9156
-0.139,0.022,-0.02,-5.4,11.1,-6.8,0,2018,4,25,16,27,56.628,-0.0571,0.1098,0.381,-0.9162
-0.171,0.061,-0.101,-4.9,22.2,-3.4,0,2018,4,25,16,27,56.648,-0.057,0.1109,0.378,-0.9173
-0.148,0.09,-0.181,1,22.3,1.1,0,2018,4,25,16,27,56.651,-0.0574,0.1111,0.3743,-0.9188
-0.087,0.154,-0.124,9.2,0.5,8.1,0,2018,4,25,16,27,56.668,-0.0583,0.1093,0.3724,-0.9197
-0.059,0.043,-0.045,13.6,-38,11.1,0,2018,4,25,16,27,56.689,-0.059,0.1065,0.3758,-0.9186
-0.008,-0.074,-0.081,21.7,-57.9,6.8,1023,2018,4,25,16,27,56.729,-0.0585,0.1034,0.3848,-0.9152
0.036,-0.102,-0.058,32.2,-47.9,-2.6,1023,2018,4,25,16,27,56.75,-0.0561,0.0995,0.3949,-0.9115
0.113,-0.193,0.05,38.1,-26.6,-15.3,1023,2018,4,25,16,27,56.752,-0.0513,0.0955,0.4018,-0.9092
0.168,-0.168,0.139,30.6,-4.8,-25,1023,2018,4,25,16,27,56.767,-0.0449,0.0923,0.4044,-0.9087
0.203,-0.126,0.272,15.3,11.6,-32.5,1023,2018,4,25,16,27,56.803,-0.0385,0.091,0.4032,-0.9097
0.178,-0.012,0.308,-4.3,7.8,-32.6,1023,2018,4,25,16,27,56.826,-0.0331,0.0924,0.4009,-0.9108
0.138,-0.03,0.24,-21.3,7,-29.2,1023,2018,4,25,16,27,56.829,-0.0293,0.0968,0.3994,-0.9111
0.106,0.006,0.191,-29.6,12.7,-26.4,1023,2018,4,25,16,27,56.868,-0.0268,0.1029,0.3971,-0.9115
0.057,0.057,0.121,-32.4,13.8,-22.6,0,2018,4,25,16,27,56.888,-0.0252,0.1097,0.3938,-0.9122
0.013,0.1,0.027,-30.3,11.7,-17.9,0,2018,4,25,16,27,56.891,-0.0242,0.1164,0.3903,-0.9129
-0.047,0.177,-0.081,-23.8,13.8,-10.8,0,2018,4,25,16,27,56.929,-0.0239,0.1216,0.3871,-0.9136
-0.095,0.164,-0.134,-13.9,19.6,-2,0,2018,4,25,16,27,56.948,-0.0246,0.1246,0.384,-0.9145
-0.193,0.116,-0.119,-4,37,5.6,0,2018,4,25,16,27,56.95,-0.0263,0.1255,0.3794,-0.9162
-0.24,0.193,-0.147,5.2,35.7,11.9,0,2018,4,25,16,27,56.989,-0.0286,0.1246,0.3733,-0.9188
-0.29,0.166,-0.195,14.3,11.5,13.4,0,2018,4,25,16,27,57.008,-0.0305,0.122,0.3698,-0.9205
-0.33,0.164,-0.24,25.6,-13.7,13.7,0,2018,4,25,16,27,57.011,-0.0314,0.1178,0.3706,-0.9207
-0.387,0.014,-0.229,36.2,-14.3,10.2,0,2018,4,25,16,27,57.03,-0.031,0.1121,0.3737,-0.9201
-0.43,0,-0.19,46.5,-3.3,3.7,0,2018,4,25,16,27,57.05,-0.0293,0.105,0.3754,-0.9204
-0.398,0.039,-0.205,54.4,-4.7,-2.3,0,2018,4,25,16,27,57.09,-0.0259,0.0968,0.3761,-0.9211
-0.367,0.035,-0.185,59.7,-17.9,-7.1,0,2018,4,25,16,27,57.111,-0.0212,0.0879,0.378,-0.9213
-0.396,-0.078,-0.097,59.2,-36,-14.2,0,2018,4,25,16,27,57.116,-0.0151,0.0791,0.3825,-0.9204
-0.395,-0.245,-0.107,54.9,-20.6,-20.8,0,2018,4,25,16,27,57.135,-0.008,0.0713,0.3876,-0.9189
-0.389,-0.167,-0.04,60.5,12.5,-32.4,0,2018,4,25,16,27,57.155,0.0001,0.0638,0.3875,-0.9196
-0.353,-0.08,0.159,58.3,-2.5,-45.7,0,2018,4,25,16,27,57.173,0.0103,0.0568,0.3855,-0.9208
-0.075,-0.074,0.175,46.4,-40.7,-53.3,0,2018,4,25,16,27,57.211,0.0222,0.0517,0.3887,-0.9196
0.128,-0.074,0.084,42.9,-47.9,-49.2,0,2018,4,25,16,27,57.231,0.0342,0.0482,0.3955,-0.9165
0.169,-0.066,0.195,40,-16.5,-42.3,0,2018,4,25,16,27,57.235,0.0448,0.0452,0.4001,-0.9142
0.154,0.053,0.415,27.2,9.1,-37.4,0,2018,4,25,16,27,57.253,0.0536,0.0424,0.3996,-0.9141
0.274,0.262,0.495,3.5,9.8,-28.4,0,2018,4,25,16,27,57.272,0.0599,0.0423,0.3974,-0.9146
0.372,0.219,0.489,-28.5,6.9,-13.3,0,2018,4,25,16,27,57.295,0.0623,0.0459,0.3962,-0.9148
0.339,0.237,0.472,-59.7,15.6,4.7,0,2018,4,25,16,27,57.331,0.0597,0.0535,0.3949,-0.9151
0.242,0.228,0.388,-85.8,29.9,23.4,0,2018,4,25,16,27,57.351,0.052,0.0646,0.392,-0.9162
0.168,0.257,0.219,-102.1,21.6,37.3,0,2018,4,25,16,27,57.355,0.0402,0.078,0.3887,-0.9171
0.142,0.196,0.053,-106.3,12,45.6,0,2018,4,25,16,27,57.39,0.0261,0.0921,0.3876,-0.9168
0.062,0.085,-0.063,-99.9,20.5,50.6,0,2018,4,25,16,27,57.411,0.0112,0.1056,0.3863,-0.9161
-0.026,0.067,-0.129,-86.7,43.6,55.6,0,2018,4,25,16,27,57.415,-0.0039,0.1174,0.3825,-0.9164
-0.058,0.095,-0.213,-68.2,58.3,60.6,1023,2018,4,25,16,27,57.433,-0.0197,0.1258,0.3759,-0.9178
-0.094,0.136,-0.297,-45.4,34.8,61.1,1023,2018,4,25,16,27,57.472,-0.0344,0.1306,0.3699,-0.9191
-0.199,-0.058,-0.3,-26.8,4.2,56.1,1023,2018,4,25,16,27,57.492,-0.0465,0.1324,0.3685,-0.9189
-0.239,-0.178,-0.279,-6.1,17.2,46.7,1023,2018,4,25,16,27,57.497,-0.056,0.1316,0.3681,-0.9186
-0.258,-0.173,-0.261,12.1,30.9,34.8,1023,2018,4,25,16,27,57.516,-0.0629,0.1281,0.3649,-0.92
-0.267,-0.145,-0.222,23.1,17.5,22.1,1023,2018,4,25,16,27,57.534,-0.0668,0.123,0.3616,-0.9217
-0.246,-0.176,-0.163,28.3,4.7,10.8,1023,2018,4,25,16,27,57.554,-0.0679,0.1177,0.3608,-0.9226
-0.23,-0.18,-0.114,30,9.5,2.8,1023,2018,4,25,16,27,57.593,-0.0672,0.1125,0.3603,-0.9235
-0.204,-0.126,-0.069,30,20.5,-4.8,0,2018,4,25,16,27,57.614,-0.0654,0.1075,0.358,-0.9251
-0.18,-0.099,-0.029,27.6,16.9,-11.8,0,2018,4,25,16,27,57.617,-0.0626,0.1032,0.355,-0.927
-0.119,-0.099,-0.016,25.8,6.9,-16.7,0,2018,4,25,16,27,57.638,-0.0588,0.0997,0.3532,-0.9283
-0.063,-0.084,0.015,25.7,-6.4,-19.2,0,2018,4,25,16,27,57.658,-0.0544,0.0961,0.3533,-0.9289
-0.01,-0.056,0.008,23.5,-18.9,-21.3,0,2018,4,25,16,27,57.679,-0.0496,0.0931,0.3558,-0.9285
0.034,-0.058,-0.023,24.9,-16.8,-21.9,0,2018,4,25,16,27,57.699,-0.0442,0.091,0.3592,-0.9277
0.091,0.02,0.027,25.2,-11.9,-20.4,0,2018,4,25,16,27,57.717,-0.0387,0.0889,0.3614,-0.9273
0.213,0.103,0.085,22.2,-8,-17.9,0,2018,4,25,16,27,57.735,-0.0338,0.0864,0.3626,-0.9272
0.294,0.135,0.058,14.9,-12.1,-10.7,0,2018,4,25,16,27,57.771,-0.0302,0.0844,0.3642,-0.9269
0.317,0.126,0.046,7.9,-14.8,-2.3,0,2018,4,25,16,27,57.791,-0.0282,0.0831,0.3663,-0.9263
0.283,0.1,0.057,1.8,-23.5,2.6,0,2018,4,25,16,27,57.795,-0.0277,0.0824,0.3694,-0.9251
0.297,0.034,-0.062,1,-29.4,3.7,0,2018,4,25,16,27,57.832,-0.0278,0.0822,0.3738,-0.9234
0.307,0.001,-0.148,9.6,-28.8,-0.9,0,2018,4,25,16,27,57.852,-0.0274,0.0814,0.3786,-0.9215
0.248,-0.036,-0.105,22.8,-27.4,-9.9,0,2018,4,25,16,27,57.859,-0.025,0.0792,0.3831,-0.9199
0.139,-0.069,0.003,31.8,-27.8,-20.1,0,2018,4,25,16,27,57.879,-0.0203,0.0758,0.3875,-0.9185
0.08,-0.091,0.003,34.6,-27.9,-27.4,0,2018,4,25,16,27,57.9,-0.0134,0.0729,0.3921,-0.9169
0.034,-0.056,0.004,32.7,-17.4,-30.3,0,2018,4,25,16,27,57.916,-0.0059,0.0699,0.396,-0.9155
0.021,0.025,0.057,29.1,4.8,-29,0,2018,4,25,16,27,57.935,0.0011,0.0673,0.3965,-0.9155
-0.005,0.184,0.131,20.5,14.7,-22.9,0,2018,4,25,16,27,57.955,0.007,0.0651,0.3938,-0.9168
-0.056,0.186,0.219,7,12,-12.9,0,2018,4,25,16,27,57.994,0.0106,0.0641,0.3914,-0.9179
-0.099,0.105,0.272,-9.6,24.8,-0.1,0,2018,4,25,16,27,58.014,0.0114,0.0648,0.3888,-0.9189
-0.132,0.236,0.275,-30.8,53.7,17.5,0,2018,4,25,16,27,58.018,0.0082,0.0676,0.3824,-0.9214
-0.151,0.317,0.21,-52,59.7,37.4,0,2018,4,25,16,27,58.056,0.0001,0.0725,0.3731,-0.9249
-0.19,0.192,0.24,-69.8,30.6,51.5,0,2018,4,25,16,27,58.076,-0.0118,0.0796,0.3661,-0.927
-0.243,0.075,0.179,-80.7,-15.1,55.8,0,2018,4,25,16,27,58.081,-0.0255,0.0884,0.3657,-0.9261
-0.262,-0.182,0.002,-79.3,-10.9,50.1,0,2018,4,25,16,27,58.117,-0.0392,0.0983,0.3689,-0.9233
-0.269,-0.228,-0.131,-61.7,17.5,37.7,0,2018,4,25,16,27,58.121,-0.0508,0.1069,0.3686,-0.9219
-0.245,-0.048,-0.139,-43.5,22.9,25.8,0,2018,4,25,16,27,58.139,-0.0596,0.1129,0.365,-0.9221
-0.201,-0.101,-0.137,-27.4,25.2,15.5,1023,2018,4,25,16,27,58.158,-0.0657,0.1171,0.3612,-0.9227
-0.116,-0.076,-0.19,-13.5,24.2,8.9,1023,2018,4,25,16,27,58.195,-0.0693,0.1193,0.3573,-0.9237
-0.045,-0.128,-0.273,1.1,38.6,5.1,1023,2018,4,25,16,27,58.217,-0.0714,0.1195,0.3525,-0.9253
0.021,-0.025,-0.191,14.6,58.7,1.5,1023,2018,4,25,16,27,58.222,-0.0724,0.1172,0.3446,-0.9285
0.092,0.054,-0.096,19.2,50.1,-0.9,1023,2018,4,25,16,27,58.239,-0.0723,0.1143,0.3359,-0.9321
0.185,0.103,-0.103,17.4,18.9,1.6,1023,2018,4,25,16,27,58.277,-0.0719,0.1109,0.3305,-0.9344
0.225,0.091,-0.139,16.1,-3.9,5.1,1023,2018,4,25,16,27,58.298,-0.0717,0.1079,0.3298,-0.935
0.254,0.05,-0.122,18.6,-27.7,3.4,1023,2018,4,25,16,27,58.302,-0.0711,0.105,0.3327,-0.9344
0.214,-0.026,-0.022,20.1,-47.6,-3.2,1023,2018,4,25,16,27,58.322,-0.0693,0.1022,0.3395,-0.9324
0.175,-0.174,0.017,25,-44.3,-14.8,0,2018,4,25,16,27,58.343,-0.0656,0.0997,0.3472,-0.9301
0.097,-0.174,-0.002,28.5,-29.8,-23.8,0,2018,4,25,16,27,58.381,-0.0601,0.0969,0.3532,-0.9285
0.053,-0.016,0.042,26.7,-27.7,-30,0,2018,4,25,16,27,58.401,-0.0532,0.0949,0.3576,-0.9274
0.044,-0.133,0.132,18.7,-37.3,-35.7,0,2018,4,25,16,27,58.405,-0.0458,0.0939,0.3627,-0.926
-0.003,-0.053,0.203,8,-37.7,-36.7,0,2018,4,25,16,27,58.419,-0.0384,0.0942,0.3679,-0.9242
0.007,0.067,0.127,1.4,-36.8,-33.2,0,2018,4,25,16,27,58.458,-0.0318,0.0958,0.3723,-0.9225
-0.002,0.116,0.076,-2.7,-38.8,-28.7,0,2018,4,25,16,27,58.479,-0.0262,0.098,0.3766,-0.9207
-0.018,0.016,-0.014,-2.4,-34.8,-25.3,0,2018,4,25,16,27,58.483,-0.0214,0.1003,0.3814,-0.9186
-0.059,0.027,-0.035,5.5,-3.6,-21.5,0,2018,4,25,16,27,58.502,-0.0174,0.1015,0.3845,-0.9173
-0.097,0.194,-0.01,10.9,16.1,-14.5,0,2018,4,25,16,27,58.522,-0.0142,0.1008,0.3824,-0.9183
-0.12,0.213,-0.021,13.4,10.3,-5.7,0,2018,4,25,16,27,58.56,-0.0121,0.0995,0.38,-0.9195
-0.185,0.124,-0.018,15.3,12.3,2.1,0,2018,4,25,16,27,58.58,-0.011,0.0973,0.3784,-0.9204
-0.241,0.064,-0.017,17.4,26.4,6.7,0,2018,4,25,16,27,58.585,-0.0111,0.0943,0.3753,-0.922
-0.295,0.008,0.028,18.3,29.1,6.2,0,2018,4,25,16,27,58.604,-0.0115,0.0909,0.3707,-0.9241
-0.311,0.014,0.024,16.9,18.6,3.7,0,2018,4,25,16,27,58.622,-0.0115,0.0877,0.3669,-0.926
-0.276,0.007,-0.049,17.7,3.7,0.9,0,2018,4,25,16,27,58.64,-0.0109,0.0847,0.3652,-0.9269
-0.235,-0.066,-0.073,18.6,-12,-2.7,0,2018,4,25,16,27,58.66,-0.0095,0.0818,0.366,-0.9269
-0.16,-0.083,-0.106,25,-7.3,-5.7,0,2018,4,25,16,27,58.699,-0.0073,0.0786,0.3676,-0.9265
-0.115,-0.076,-0.04,29.5,-7.8,-8.7,0,2018,4,25,16,27,58.719,-0.0042,0.0745,0.3687,-0.9265
-0.075,-0.053,0.005,28.5,-13.8,-11.6,0,2018,4,25,16,27,58.724,-0.0006,0.0701,0.3705,-0.9261
0.033,-0.054,-0.008,23.9,-17.2,-11.9,0,2018,4,25,16,27,58.763,0.003,0.0665,0.3733,-0.9252
0.135,0,0.018,20.2,-12.1,-11.3,0,2018,4,25,16,27,58.782,0.0068,0.0645,0.3757,-0.9244
0.166,-0.009,0.092,12.7,-7.3,-10.3,0,2018,4,25,16,27,58.786,0.0097,0.0626,0.3772,-0.9239
0.197,0.025,0.108,3.8,-2.4,-7.8,0,2018,4,25,16,27,58.804,0.0119,0.0618,0.3778,-0.9237
0.186,0.087,0.116,-7.9,-2.6,-2.7,0,2018,4,25,16,27,58.823,0.0126,0.0624,0.378,-0.9235
0.173,0.069,0.101,-19,-2.9,3.2,0,2018,4,25,16,27,58.843,0.0116,0.0647,0.3785,-0.9232
0.138,0.089,0.051,-27.1,-2.9,9.6,0,2018,4,25,16,27,58.864,0.009,0.068,0.3792,-0.9227
0.142,0.106,-0.025,-29.8,-4.9,14.5,1023,2018,4,25,16,27,58.883,0.0052,0.0718,0.38,-0.9221
0.162,0.109,-0.054,-26.8,-3.8,16.7,1023,2018,4,25,16,27,58.902,0.0008,0.0754,0.3809,-0.9215
0.143,0.046,-0.065,-21.4,-0.4,16.8,1023,2018,4,25,16,27,58.936,-0.0035,0.0782,0.3814,-0.921
0.126,0.023,-0.076,-12.2,-1.8,14.6,1023,2018,4,25,16,27,58.956,-0.0072,0.0799,0.3817,-0.9207
0.151,0,-0.132,-3.2,-18.8,11.1,1023,2018,4,25,16,27,58.966,-0.0096,0.0802,0.3835,-0.9199
0.147,-0.055,-0.205,8.6,-23.1,6.3,1023,2018,4,25,16,27,58.984,-0.0105,0.0792,0.3873,-0.9184
0.088,-0.125,-0.179,23,-14.4,-1.5,1023,2018,4,25,16,27,59.004,-0.0095,0.0765,0.3904,-0.9173
0.008,-0.11,-0.038,32.8,-13.2,-11.5,1023,2018,4,25,16,27,59.04,-0.0063,0.0724,0.3928,-0.9167
-0.084,-0.05,0.007,35.5,-21.6,-19.1,0,2018,4,25,16,27,59.059,-0.0014,0.0675,0.396,-0.9157
-0.137,-0.196,0.011,32.1,-27.5,-25.1,0,2018,4,25,16,27,59.066,0.0045,0.0632,0.4002,-0.9142
-0.246,-0.143,0.105,27.5,-15.1,-29,0,2018,4,25,16,27,59.087,0.0113,0.0602,0.4033,-0.913
-0.36,-0.102,0.179,16.3,-8.1,-31.3,0,2018,4,25,16,27,59.104,0.0177,0.0588,0.4047,-0.9123
-0.369,-0.092,0.166,2.2,-9.4,-34.6,0,2018,4,25,16,27,59.123,0.0237,0.0597,0.4057,-0.9117
-0.378,-0.048,0.189,-9.4,-3.6,-36,0,2018,4,25,16,27,59.163,0.0291,0.0628,0.4064,-0.911
-0.335,0.059,0.159,-18.6,13,-33.5,0,2018,4,25,16,27,59.185,0.0336,0.0677,0.4054,-0.9109
-0.257,0.178,0.104,-23.3,30.3,-27,0,2018,4,25,16,27,59.189,0.0367,0.0734,0.4015,-0.9121
-0.237,0.253,0.098,-25.4,34.1,-15.5,0,2018,4,25,16,27,59.208,0.038,0.0791,0.396,-0.914
-0.225,0.194,0.109,-26.4,36.9,-2.8,0,2018,4,25,16,27,59.227,0.0371,0.0842,0.3905,-0.9159
-0.179,0.23,0.037,-24.6,42.2,10.2,0,2018,4,25,16,27,59.265,0.0341,0.0883,0.3842,-0.9183
-0.107,0.067,-0.093,-20.8,63,19.8,0,2018,4,25,16,27,59.287,0.0292,0.091,0.3767,-0.9213
-0.025,0.208,-0.081,-10.2,101.2,28.4,0,2018,4,25,16,27,59.291,0.0228,0.0919,0.3631,-0.9269
0.068,0.237,-0.053,-5.9,86.8,38.6,0,2018,4,25,16,27,59.305,0.0153,0.0915,0.3475,-0.933
0.155,0.073,-0.042,-6.4,58.8,48.3,0,2018,4,25,16,27,59.324,0.0066,0.0901,0.3365,-0.9373
0.226,0.013,-0.096,-7.1,46.7,54,0,2018,4,25,16,27,59.344,-0.003,0.0883,0.329,-0.9401
0.255,-0.038,-0.158,-3.6,39.8,51.7,0,2018,4,25,16,27,59.383,-0.0127,0.086,0.3226,-0.9424
0.259,-0.042,-0.153,0.6,24.2,43.7,0,2018,4,25,16,27,59.403,-0.0211,0.0835,0.318,-0.9441
0.266,-0.063,-0.121,5,3.2,34,0,2018,4,25,16,27,59.407,-0.0276,0.0808,0.3164,-0.9447
0.259,-0.117,-0.095,7.8,-14.6,22.5,0,2018,4,25,16,27,59.427,-0.0317,0.0783,0.3181,-0.9442
0.22,-0.125,-0.084,11.1,-25.8,10.7,0,2018,4,25,16,27,59.449,-0.0336,0.0759,0.3217,-0.9431
0.173,-0.195,-0.074,13.7,-26.5,-0.7,0,2018,4,25,16,27,59.467,-0.0333,0.0738,0.3264,-0.9417
0.117,-0.143,-0.048,15.3,-26,-11.3,0,2018,4,25,16,27,59.504,-0.031,0.0718,0.3306,-0.9404
0.082,-0.11,-0.005,14.9,-38,-21.1,0,2018,4,25,16,27,59.524,-0.027,0.0706,0.3358,-0.9388
0.04,-0.037,0.044,13.8,-58.8,-28.7,0,2018,4,25,16,27,59.529,-0.0212,0.0704,0.3438,-0.9361
0.018,-0.053,-0.004,16.3,-84,-33.7,0,2018,4,25,16,27,59.547,-0.0143,0.0704,0.3551,-0.932
-0.073,-0.139,-0.019,18.8,-74.1,-35.4,0,2018,4,25,16,27,59.587,-0.0065,0.0697,0.3692,-0.9266
-0.124,-0.02,0.004,25.5,-22.6,-33.3,0,2018,4,25,16,27,59.607,0.0009,0.0682,0.3763,-0.9239
-0.22,0.092,0.076,25.7,-2.4,-31.3,1023,2018,4,25,16,27,59.611,0.0079,0.066,0.3774,-0.9236
-0.244,0.19,0.129,21.9,-14.5,-27.8,1023,2018,4,25,16,27,59.629,0.0144,0.064,0.378,-0.9234
-0.218,0.16,0.089,19.7,-44.4,-22.8,1023,2018,4,25,16,27,59.649,0.0201,0.0623,0.3825,-0.9216
-0.237,0.021,0.059,19.3,-49,-18.2,1023,2018,4,25,16,27,59.67,0.0253,0.0605,0.3902,-0.9183
-0.226,0.136,0.079,20,-33.3,-9.9,1023,2018,4,25,16,27,59.69,0.0293,0.058,0.3965,-0.9156
-0.216,0.112,0.082,18.1,-19.9,-3.7,1023,2018,4,25,16,27,59.709,0.0319,0.0553,0.4005,-0.914
-0.191,-0.009,0.092,10,-11.5,0.9,1023,2018,4,25,16,27,59.747,0.0333,0.0531,0.4031,-0.9129
-0.147,-0.012,0.061,4.4,4.9,5.7,0,2018,4,25,16,27,59.768,0.0333,0.0515,0.4036,-0.9128
-0.042,0.011,0.013,3.6,45,10.6,0,2018,4,25,16,27,59.772,0.0317,0.05,0.3998,-0.9146
-0.064,0.176,0.07,-0.2,50.5,16.7,0,2018,4,25,16,27,59.789,0.0291,0.0487,0.3912,-0.9185
-0.042,0.024,0.08,-8.8,41.5,22,0,2018,4,25,16,27,59.826,0.0252,0.0481,0.3839,-0.9217
-0.026,0.064,0.091,-15.5,47.3,28.6,0,2018,4,25,16,27,59.846,0.0198,0.0482,0.3762,-0.925
0.009,0.056,0.056,-19.6,66,35.1,0,2018,4,25,16,27,59.85,0.0129,0.0492,0.3665,-0.929
0.039,0.053,0.022,-23,62.8,39.2,0,2018,4,25,16,27,59.889,0.005,0.0506,0.3554,-0.9332
0.078,0.045,-0.033,-25,39.3,40.9,0,2018,4,25,16,27,59.909,-0.0031,0.0527,0.347,-0.9363
0.113,-0.024,-0.128,-22.8,24.1,39.4,0,2018,4,25,16,27,59.913,-0.0114,0.0547,0.3425,-0.9378
0.129,-0.06,-0.141,-16.2,15.7,34.2,0,2018,4,25,16,27,59.932,-0.0188,0.0556,0.3396,-0.9387
0.155,-0.06,-0.142,-9.3,0.6,25,0,2018,4,25,16,27,59.953,-0.0245,0.0558,0.3384,-0.9389
0.182,-0.071,-0.157,-1.4,-22.7,14.4,0,2018,4,25,16,27,59.974,-0.0279,0.0556,0.3403,-0.9382
0.185,-0.177,-0.174,6.3,-45.1,3.9,0,2018,4,25,16,27,59.995,-0.0288,0.0548,0.3465,-0.9359
0.185,-0.158,-0.185,14.2,-27.9,-5.3,0,2018,4,25,16,28,0.007,-0.0277,0.0533,0.3527,-0.9337
0.171,-0.088,-0.126,18.8,-15.1,-15.7,0,2018,4,25,16,28,0.045,-0.0247,0.0513,0.3559,-0.9327
0.168,-0.018,-0.051,17.6,-23.3,-23.1,0,2018,4,25,16,28,0.064,-0.0201,0.0496,0.3587,-0.9318
0.159,0,-0.016,14.4,-34.3,-26.2,0,2018,4,25,16,28,0.069,-0.0148,0.0487,0.3634,-0.9302
0.155,-0.036,-0.043,15.6,-42.1,-27.6,0,2018,4,25,16,28,0.109,-0.0091,0.0481,0.3694,-0.9279
0.107,-0.04,-0.003,18.1,-46.6,-30.4,0,2018,4,25,16,28,0.128,-0.0028,0.0475,0.3766,-0.9251
0.047,0.028,0.025,18.5,-44.7,-31.5,0,2018,4,25,16,28,0.131,0.004,0.0472,0.3837,-0.9222
-0.004,0.061,0.071,17.7,-37.2,-32,0,2018,4,25,16,28,0.171,0.0108,0.0466,0.3894,-0.9198
-0.078,0.014,0.176,11.9,-29.4,-32.6,0,2018,4,25,16,28,0.19,0.0171,0.0461,0.3937,-0.9178
-0.133,0.042,0.227,2.5,-32.7,-29.8,0,2018,4,25,16,28,0.193,0.0229,0.0469,0.3983,-0.9157
-0.166,0.08,0.129,-7.1,-38.9,-24.6,0,2018,4,25,16,28,0.209,0.0275,0.049,0.404,-0.913
-0.149,-0.008,0.094,-17.3,-24.3,-19.9,0,2018,4,25,16,28,0.248,0.0303,0.0525,0.4091,-0.9104
-0.126,0.032,0.111,-20.8,-9.8,-15.2,0,2018,4,25,16,28,0.267,0.0319,0.0567,0.4115,-0.909
-0.089,0.087,0.069,-21,-0.5,-9,0,2018,4,25,16,28,0.272,0.0323,0.0609,0.4122,-0.9084
-0.061,0.103,0.012,-18.3,2.2,-3.5,1023,2018,4,25,16,28,0.291,0.0317,0.0644,0.4118,-0.9083
-0.035,0.091,-0.044,-11.3,6.8,-1,1023,2018,4,25,16,28,0.313,0.0308,0.0666,0.4108,-0.9087
-0.02,0.034,-0.059,-2.5,22.2,-1,1023,2018,4,25,16,28,0.335,0.0302,0.0676,0.4086,-0.9096
-0.02,0.104,-0.043,7.2,32.3,-0.9,1023,2018,4,25,16,28,0.355,0.0302,0.0674,0.4039,-0.9117
-0.02,0.112,-0.023,13.3,28.3,0.9,1023,2018,4,25,16,28,0.375,0.0306,0.0657,0.3983,-0.9143
-0.032,0.13,-0.04,16.9,13.9,4.2,1023,2018,4,25,16,28,0.392,0.031,0.063,0.3942,-0.9162
-0.036,0.094,-0.1,21.6,-6.2,6.7,1023,2018,4,25,16,28,0.428,0.0314,0.0594,0.3933,-0.9169
-0.073,-0.026,-0.066,22.2,-12.7,6.8,1023,2018,4,25,16,28,0.448,0.0317,0.0549,0.3956,-0.9161
-0.056,-0.073,0.08,15.2,-6.1,4.2,0,2018,4,25,16,28,0.455,0.0319,0.0508,0.3973,-0.9156
-0.002,-0.143,0.18,-0.7,-2.1,0.3,0,2018,4,25,16,28,0.471,0.032,0.049,0.3978,-0.9155
0.066,-0.069,0.157,-15.3,0.3,0,0,2018,4,25,16,28,0.491,0.0314,0.0505,0.3975,-0.9156
0.094,-0.001,0.078,-23.9,-3.1,0.9,0,2018,4,25,16,28,0.512,0.0302,0.0543,0.3973,-0.9155
0.113,0.025,0.028,-24.6,-5.7,0.3,0,2018,4,25,16,28,0.549,0.0289,0.0592,0.3978,-0.915
0.109,0.049,0.047,-21.8,-4.1,-0.7,0,2018,4,25,16,28,0.57,0.0275,0.0631,0.3987,-0.9144
0.153,0.031,0.07,-18.4,9.1,-1.8,0,2018,4,25,16,28,0.574,0.0263,0.0665,0.3985,-0.9143
0.18,0.218,0.04,-12.9,12.4,1.5,0,2018,4,25,16,28,0.595,0.0252,0.0691,0.3965,-0.915
0.116,0.154,0.026,-16,10.4,9.7,0,2018,4,25,16,28,0.615,0.0231,0.0709,0.395,-0.9156
0.101,0.173,0.137,-21.6,18.8,14.5,0,2018,4,25,16,28,0.636,0.0197,0.0731,0.3927,-0.9165
0.171,0.189,0.217,-34.5,12,20.9,0,2018,4,25,16,28,0.658,0.0147,0.0764,0.3905,-0.9172
0.189,0.169,0.151,-46,-2.6,26.5,0,2018,4,25,16,28,0.674,0.008,0.0813,0.39,-0.9171
0.101,0.058,0.103,-58.6,-16.2,32.3,0,2018,4,25,16,28,0.693,0,0.0876,0.3926,-0.9154
0.03,-0.005,0.073,-65.1,9.5,37.3,0,2018,4,25,16,28,0.714,-0.0097,0.0955,0.3932,-0.9143
-0.025,-0.034,0.034,-66.4,19.5,39.1,0,2018,4,25,16,28,0.733,-0.0207,0.1033,0.3907,-0.9144
-0.022,0.016,-0.065,-64.9,-5.5,40,0,2018,4,25,16,28,0.751,-0.0318,0.1108,0.3899,-0.9135
-0.045,-0.13,-0.157,-63.9,-26.4,38.5,0,2018,4,25,16,28,0.79,-0.0421,0.1184,0.3944,-0.9102
-0.056,-0.221,-0.16,-55,35.7,38.2,0,2018,4,25,16,28,0.81,-0.0523,0.1253,0.3943,-0.9088
-0.125,0.174,-0.088,-51.1,62.8,44.7,0,2018,4,25,16,28,0.813,-0.0638,0.1299,0.3857,-0.9111
-0.099,0.127,-0.132,-49.5,23.9,50.7,0,2018,4,25,16,28,0.848,-0.0761,0.1338,0.3788,-0.9125
-0.07,0.075,-0.139,-42.2,-26.1,51.2,0,2018,4,25,16,28,0.869,-0.0876,0.1372,0.3803,-0.9103
-0.084,-0.201,-0.203,-32.8,-26.1,49,0,2018,4,25,16,28,0.875,-0.0974,0.1403,0.3865,-0.9062
-0.135,-0.161,-0.214,-16.6,20.3,41.7,0,2018,4,25,16,28,0.893,-0.1062,0.141,0.3874,-0.9048
-0.157,-0.117,-0.177,-4.9,29.5,29.5,0,2018,4,25,16,28,0.93,-0.1132,0.1397,0.3834,-0.9058
-0.125,-0.117,-0.132,2.2,7.2,16.5,0,2018,4,25,16,28,0.949,-0.1173,0.1379,0.381,-0.9066
-0.106,-0.093,-0.116,9.7,-16.2,4.5,0,2018,4,25,16,28,0.953,-0.1184,0.1364,0.3822,-0.9062
-0.095,-0.138,-0.144,17.4,-32,-5.7,1023,2018,4,25,16,28,0.991,-0.1167,0.1348,0.3866,-0.9048
-0.073,-0.117,-0.114,28.3,-30.4,-15.3,1023,2018,4,25,16,28,1.011,-0.1126,0.1326,0.3919,-0.9033
-0.093,-0.052,-0.07,35.9,-28,-21.3,1023,2018,4,25,16,28,1.013,-0.1067,0.1293,0.3967,-0.9024
-0.092,-0.063,-0.07,39.1,-16,-23.3,1023,2018,4,25,16,28,1.051,-0.1,0.1253,0.4005,-0.9021
-0.106,-0.013,-0.053,42.4,14.1,-22.8,1023,2018,4,25,16,28,1.071,-0.0935,0.1205,0.4007,-0.9033
-0.21,0.066,0.097,40,23.4,-21.2,1023,2018,4,25,16,28,1.075,-0.0877,0.1147,0.3976,-0.906
-0.292,0.054,0.177,29.7,13.1,-19.2,1023,2018,4,25,16,28,1.115,-0.0824,0.1102,0.3948,-0.9083
-0.338,0.003,0.145,16.6,15.8,-17.6,0,2018,4,25,16,28,1.135,-0.0782,0.1077,0.3928,-0.9099
-0.341,0.036,0.054,9.2,24.4,-17.3,0,2018,4,25,16,28,1.137,-0.075,0.1066,0.3893,-0.9118
-0.309,0.079,0.033,4.6,30.6,-15.8,0,2018,4,25,16,28,1.153,-0.0724,0.1063,0.3845,-0.914
-0.288,0.061,0.075,0.3,37.7,-12.3,0,2018,4,25,16,28,1.175,-0.0705,0.1065,0.3789,-0.9165
-0.158,-0.088,0.021,-6.6,67.1,-7.1,0,2018,4,25,16,28,1.213,-0.07,0.1071,0.371,-0.9197
0.032,0.175,-0.008,-4.8,100.6,-0.1,0,2018,4,25,16,28,1.233,-0.0716,0.1069,0.3561,-0.9255
0.168,0.246,-0.003,-6.2,68.3,8,0,2018,4,25,16,28,1.235,-0.0743,0.1063,0.3418,-0.9307
0.336,0.076,0.013,-9.6,7,10.8,0,2018,4,25,16,28,1.271,-0.077,0.1066,0.3361,-0.9325
0.431,0,0.021,-7.2,-35.5,10.3,0,2018,4,25,16,28,1.292,-0.079,0.1076,0.3389,-0.9312
0.439,-0.028,-0.011,-6,-54.3,5.5,0,2018,4,25,16,28,1.296,-0.0799,0.1089,0.3467,-0.9281
0.411,-0.05,-0.04,-3.2,-60.2,-2.6,0,2018,4,25,16,28,1.333,-0.0793,0.1104,0.3559,-0.9245
0.349,-0.054,-0.033,0.8,-71,-10.7,0,2018,4,25,16,28,1.353,-0.0769,0.1119,0.3663,-0.9205
0.265,-0.273,-0.038,2.8,-79.9,-19.8,0,2018,4,25,16,28,1.355,-0.0727,0.1136,0.3786,-0.9156
0.181,-0.267,-0.031,9,-55.4,-24.6,0,2018,4,25,16,28,1.394,-0.0673,0.115,0.3892,-0.9114
0.099,-0.086,-0.032,10.8,-22.2,-24.6,0,2018,4,25,16,28,1.415,-0.0619,0.1155,0.3948,-0.9093
0.043,0.089,-0.031,10.6,-12.8,-22.3,0,2018,4,25,16,28,1.417,-0.0568,0.1163,0.3968,-0.9087
-0.032,0.118,-0.02,11.1,-18.9,-17.7,0,2018,4,25,16,28,1.454,-0.0524,0.1163,0.3984,-0.9082
-0.115,0.079,-0.026,12.8,-16.7,-12.6,0,2018,4,25,16,28,1.476,-0.0491,0.115,0.4008,-0.9075
-0.169,-0.013,-0.03,17.2,-4.4,-8.4,0,2018,4,25,16,28,1.477,-0.0465,0.1127,0.4026,-0.9071
-0.214,0.113,-0.006,19.6,8.4,-3.7,0,2018,4,25,16,28,1.515,-0.0443,0.1101,0.402,-0.9078
-0.254,0.099,-0.038,17.3,7.2,0,0,2018,4,25,16,28,1.534,-0.0429,0.1072,0.4009,-0.9087
-0.287,0.084,-0.028,17.4,15.8,1.7,0,2018,4,25,16,28,1.542,-0.042,0.1043,0.3992,-0.9099
-0.319,0.057,0,16,15.6,2.7,0,2018,4,25,16,28,1.58,-0.0416,0.1013,0.3968,-0.9113
-0.324,0.114,-0.023,15,2.2,3.2,0,2018,4,25,16,28,1.584,-0.0412,0.0986,0.3954,-0.9122
-0.316,0.016,-0.036,13.4,-5.4,0.6,0,2018,4,25,16,28,1.6,-0.0405,0.0963,0.3961,-0.9122
-0.273,-0.074,-0.057,13.7,9.3,-3.7,0,2018,4,25,16,28,1.62,-0.0393,0.0943,0.3959,-0.9125
-0.159,-0.032,-0.068,17.7,19.4,-8.8,0,2018,4,25,16,28,1.64,-0.0375,0.0921,0.3933,-0.9139
-0.058,0.066,-0.069,20.9,5.1,-11.6,0,2018,4,25,16,28,1.66,-0.0349,0.0891,0.3913,-0.9152
0.041,0.027,-0.016,22.1,-9.7,-12.8,1023,2018,4,25,16,28,1.68,-0.0314,0.0866,0.3918,-0.9153
0.103,-0.077,0.009,20.8,-6.3,-11.8,1023,2018,4,25,16,28,1.7,-0.0275,0.0848,0.3933,-0.915
0.154,-0.013,0.053,17.7,10,-9.7,1023,2018,4,25,16,28,1.72,-0.024,0.0832,0.393,-0.9154
0.218,0.027,0.119,5.3,11.7,-5.8,1023,2018,4,25,16,28,1.758,-0.0221,0.0818,0.3909,-0.9165
0.247,0.058,0.144,-8.5,-2.6,-1.2,1023,2018,4,25,16,28,1.78,-0.0217,0.0824,0.39,-0.9168
0.238,0.025,0.086,-17.2,-13,3.2,1023,2018,4,25,16,28,1.784,-0.0227,0.0844,0.3916,-0.9159
0.195,0.028,0.065,-21,-2.1,7.1,1023,2018,4,25,16,28,1.804,-0.0248,0.0872,0.3929,-0.915
0.148,0.054,0.037,-21.6,7,10.9,0,2018,4,25,16,28,1.823,-0.0278,0.0901,0.3923,-0.9149
0.124,0.022,-0.01,-18.8,7.8,13.8,0,2018,4,25,16,28,1.839,-0.0311,0.0928,0.3912,-0.915
0.108,0.062,-0.012,-14.4,4.1,15.6,0,2018,4,25,16,28,1.88,-0.0344,0.0951,0.39,-0.9151
0.082,0.043,-0.051,-8.2,-8.3,15.6,0,2018,4,25,16,28,1.898,-0.0373,0.0967,0.3904,-0.9147
0.034,0.016,-0.106,1.6,-20.6,12.3,0,2018,4,25,16,28,1.903,-0.0392,0.0971,0.3934,-0.9133
-0.065,-0.056,-0.071,9.1,-21.7,3.8,0,2018,4,25,16,28,1.921,-0.0399,0.0956,0.398,-0.9114
-0.108,-0.076,-0.031,15.1,-14.8,-5.9,0,2018,4,25,16,28,1.941,-0.0387,0.0934,0.4016,-0.9101
-0.147,-0.054,0.038,16.2,-10.7,-14.7,0,2018,4,25,16,28,1.98,-0.0357,0.0917,0.4035,-0.9096
-0.175,-0.035,0.011,15.5,-18,-17.8,0,2018,4,25,16,28,2.001,-0.0317,0.0905,0.4055,-0.909
-0.202,-0.013,-0.038,16.1,-17.9,-16.6,0,2018,4,25,16,28,2.005,-0.0274,0.0893,0.4083,-0.908
-0.247,0.002,0.01,8.3,-7.3,-12.1,0,2018,4,25,16,28,2.026,-0.024,0.0883,0.4104,-0.9072
-0.253,0.103,0.089,1.3,12.2,-8.5,0,2018,4,25,16,28,2.045,-0.0221,0.0882,0.4097,-0.9076
-0.173,0.13,0.046,-6.9,24.8,-3.8,0,2018,4,25,16,28,2.06,-0.0217,0.0891,0.4064,-0.909
-0.078,0.181,0.07,-13.9,20.6,2.8,0,2018,4,25,16,28,2.081,-0.0228,0.0907,0.4025,-0.9105
-0.023,0.174,0.073,-19,-1.2,11.2,0,2018,4,25,16,28,2.101,-0.0253,0.0929,0.401,-0.9109
-0.023,-0.016,0.05,-21.7,2.6,18.2,0,2018,4,25,16,28,2.14,-0.0291,0.095,0.4011,-0.9106
-0.001,0.112,0.059,-20,20.6,23.7,0,2018,4,25,16,28,2.161,-0.0342,0.0965,0.3985,-0.9114
0.02,0.108,-0.007,-17.2,22.2,27.5,0,2018,4,25,16,28,2.165,-0.0399,0.0977,0.3942,-0.9129
-0.024,0.027,0.025,-13.9,24.5,28.2,0,2018,4,25,16,28,2.185,-0.0458,0.0981,0.3905,-0.9141
-0.055,0.074,0.034,-13.5,18.2,28.8,0,2018,4,25,16,28,2.204,-0.0517,0.0976,0.3867,-0.9155
-0.058,-0.05,-0.041,-12.7,22.8,30,0,2018,4,25,16,28,2.224,-0.0579,0.0971,0.384,-0.9163
-0.085,-0.068,-0.001,-12.2,43.6,29.8,0,2018,4,25,16,28,2.247,-0.0642,0.0965,0.3793,-0.9179
-0.112,0.001,0.052,-19,37.2,30.3,0,2018,4,25,16,28,2.263,-0.071,0.0959,0.3728,-0.9201
-0.091,-0.048,-0.03,-22.8,18.1,28.7,0,2018,4,25,16,28,2.301,-0.078,0.0961,0.3688,-0.9212
-0.003,-0.078,-0.114,-20.2,0.9,27.6,0,2018,4,25,16,28,2.322,-0.0843,0.0975,0.3684,-0.9206
0.056,-0.107,-0.123,-15.1,-20.2,23.4,0,2018,4,25,16,28,2.326,-0.0894,0.099,0.3708,-0.919
0.098,-0.176,-0.146,-9.1,-30.1,13.8,0,2018,4,25,16,28,2.346,-0.0927,0.1001,0.3754,-0.9167
0.136,-0.193,-0.178,1.3,-8.7,2.1,1023,2018,4,25,16,28,2.365,-0.0938,0.1006,0.3787,-0.9152
0.184,-0.152,-0.175,10.9,-0.8,-9.8,1023,2018,4,25,16,28,2.386,-0.0927,0.0998,0.3791,-0.9152
0.227,-0.115,-0.112,18.7,-3.7,-19.6,1023,2018,4,25,16,28,2.404,-0.0892,0.0984,0.3795,-0.9155
0.245,-0.019,-0.033,22.4,-12.3,-25.9,1023,2018,4,25,16,28,2.444,-0.084,0.0967,0.3806,-0.9158
0.265,0.02,-0.025,22.8,-28.4,-28.6,1023,2018,4,25,16,28,2.465,-0.0777,0.0952,0.3837,-0.9152
0.271,0.073,-0.036,24.6,-45.8,-28.4,1023,2018,4,25,16,28,2.469,-0.0709,0.0938,0.3896,-0.9134
0.205,-0.114,-0.065,25.5,-46.6,-26.7,1023,2018,4,25,16,28,2.486,-0.064,0.0923,0.3975,-0.9106
0.105,0.062,0.046,26.7,-17.7,-24.3,0,2018,4,25,16,28,2.507,-0.0575,0.0904,0.4023,-0.9092
-0.029,0.068,0.133,18.6,-4,-19.7,0,2018,4,25,16,28,2.528,-0.0523,0.0882,0.4028,-0.9094
-0.127,-0.066,0.227,3.1,6,-17.9,0,2018,4,25,16,28,2.545,-0.0486,0.0876,0.402,-0.9101
-0.139,-0.022,0.19,-13.4,12.6,-12.8,0,2018,4,25,16,28,2.58,-0.0466,0.0895,0.4003,-0.9107
-0.123,0.122,0.128,-24,18.1,-7,0,2018,4,25,16,28,2.6,-0.0467,0.0932,0.3972,-0.9117
-0.111,0.118,0.047,-30.3,5.3,-0.3,0,2018,4,25,16,28,2.604,-0.0482,0.0978,0.395,-0.9121
-0.079,0.062,-0.011,-30.1,17.3,4.1,0,2018,4,25,16,28,2.626,-0.0511,0.1021,0.3933,-0.9122
-0.053,0.089,-0.006,-26.3,46.3,7.9,0,2018,4,25,16,28,2.646,-0.0548,0.1052,0.3874,-0.9142
0,0.108,-0.035,-18.1,56.6,9.5,0,2018,4,25,16,28,2.687,-0.0588,0.1074,0.3782,-0.9175
0.043,0.1,-0.072,-10,35.4,9.2,0,2018,4,25,16,28,2.706,-0.0619,0.1089,0.3702,-0.9204
0.076,0.106,-0.134,0.5,9.3,8.2,0,2018,4,25,16,28,2.71,-0.0636,0.1097,0.3668,-0.9215
0.076,0.062,-0.147,9.6,-7.3,6.2,0,2018,4,25,16,28,2.729,-0.0643,0.1089,0.3672,-0.9214
0.043,-0.032,-0.12,17.1,-14.8,2.9,0,2018,4,25,16,28,2.746,-0.0638,0.1068,0.3697,-0.9207
0.046,-0.136,-0.129,25.3,-5.1,-2.1,0,2018,4,25,16,28,2.783,-0.0622,0.1036,0.3718,-0.9203
0.042,-0.058,-0.112,29.9,0.8,-6,0,2018,4,25,16,28,2.804,-0.0597,0.0995,0.3725,-0.9207
0.035,-0.051,-0.033,30.7,-4.8,-9.2,0,2018,4,25,16,28,2.808,-0.0563,0.0956,0.3736,-0.9208
-0.008,-0.053,0.03,29.4,-16.2,-12.4,0,2018,4,25,16,28,2.827,-0.0524,0.0916,0.3758,-0.9206
-0.064,-0.113,0.052,25.3,-33.2,-17.1,0,2018,4,25,16,28,2.865,-0.048,0.0881,0.3801,-0.9194
-0.1,-0.212,-0.012,22.7,-27.1,-24.6,0,2018,4,25,16,28,2.885,-0.0426,0.0859,0.3852,-0.9178
-0.111,-0.151,-0.006,20.5,-6.9,-31.2,0,2018,4,25,16,28,2.888,-0.0364,0.0845,0.3876,-0.9171
-0.122,-0.053,0.078,16.1,7.3,-35.7,0,2018,4,25,16,28,2.929,-0.03,0.0831,0.3871,-0.9177
-0.12,0.036,0.07,11.1,3,-37.4,0,2018,4,25,16,28,2.948,-0.0233,0.0834,0.3855,-0.9186
-0.099,0.057,0.006,9.1,-10.2,-35.2,0,2018,4,25,16,28,2.952,-0.0169,0.084,0.3855,-0.9186
-0.09,0.127,-0.02,11.6,-22.7,-31.7,0,2018,4,25,16,28,2.967,-0.0108,0.0839,0.3873,-0.918
-0.111,0.092,0.018,11.7,-22.5,-26.5,0,2018,4,25,16,28,2.986,-0.005,0.084,0.3908,-0.9165
-0.115,0.085,0.039,12.4,-3.4,-19.7,0,2018,4,25,16,28,3.006,-0.0003,0.0835,0.3927,-0.9158
-0.117,0.116,0.008,11.2,21.6,-11,0,2018,4,25,16,28,3.046,0.0028,0.0827,0.3909,-0.9166
-0.078,0.22,-0.017,9.4,48,0.5,0,2018,4,25,16,28,3.067,0.0037,0.0815,0.3849,-0.9193
-0.049,0.289,0.044,5.6,47.2,13.4,1023,2018,4,25,16,28,3.071,0.0024,0.0798,0.377,-0.9227
-0.053,0.205,0.083,-2.2,22.6,24.6,1023,2018,4,25,16,28,3.089,-0.0011,0.0782,0.3717,-0.925
-0.02,0.08,0.061,-9.1,9.1,33.4,1023,2018,4,25,16,28,3.109,-0.0064,0.0771,0.3692,-0.926
0.019,0.031,0.037,-12.4,21,40.2,1023,2018,4,25,16,28,3.147,-0.0134,0.0764,0.3668,-0.927
0.089,0.074,-0.04,-13,19.9,44.3,1023,2018,4,25,16,28,3.17,-0.0212,0.0762,0.3631,-0.9283
0.165,-0.022,-0.065,-16,0.6,47.2,1023,2018,4,25,16,28,3.174,-0.0296,0.0763,0.3622,-0.9284
0.232,-0.039,-0.114,-15.5,-22.8,43.4,1023,2018,4,25,16,28,3.193,-0.0378,0.076,0.3645,-0.9272
0.236,-0.111,-0.116,-12.1,-36.8,35.1,0,2018,4,25,16,28,3.213,-0.0447,0.076,0.3702,-0.9247
0.218,-0.181,-0.132,-6.9,-29.9,22.3,0,2018,4,25,16,28,3.229,-0.0494,0.076,0.376,-0.9221
0.213,-0.189,-0.115,-0.9,-17.7,10.3,0,2018,4,25,16,28,3.268,-0.052,0.0757,0.3799,-0.9204
0.201,-0.09,-0.09,4.5,-16,0.6,0,2018,4,25,16,28,3.287,-0.0524,0.0752,0.3825,-0.9193
0.162,-0.092,-0.077,10,-26.3,-5.7,0,2018,4,25,16,28,3.291,-0.0511,0.0744,0.386,-0.918
0.082,-0.027,-0.032,13.8,-32.7,-9,0,2018,4,25,16,28,3.311,-0.0486,0.0734,0.3908,-0.9162
-0.064,-0.058,0.041,13.9,-36.5,-11.8,0,2018,4,25,16,28,3.333,-0.0456,0.0722,0.3967,-0.9139
-0.166,0.007,0.082,13.7,-44.1,-14.5,0,2018,4,25,16,28,3.369,-0.0422,0.0706,0.4028,-0.9115
-0.211,0.012,0.084,10.7,-56.9,-18.4,0,2018,4,25,16,28,3.389,-0.0381,0.0702,0.4108,-0.9081
-0.209,-0.154,-0.029,12.1,-58.9,-24,0,2018,4,25,16,28,3.394,-0.0333,0.0703,0.4203,-0.904
-0.226,-0.165,-0.088,18.4,-21,-28.7,0,2018,4,25,16,28,3.413,-0.0274,0.0701,0.4264,-0.9013
-0.155,0.036,-0.017,16.9,5.2,-27.4,0,2018,4,25,16,28,3.433,-0.0214,0.0694,0.4268,-0.9013
-0.082,0.123,0.088,9.7,2.6,-22.8,0,2018,4,25,16,28,3.451,-0.0165,0.0691,0.4255,-0.9021
-0.012,0.146,0.068,3,-14.6,-15.3,0,2018,4,25,16,28,3.472,-0.013,0.0696,0.4259,-0.9019
0.066,0.183,0.011,4.2,-27,-9.5,0,2018,4,25,16,28,3.491,-0.0106,0.0701,0.4286,-0.9006
0.063,0.142,-0.025,11,-33.3,-4.7,0,2018,4,25,16,28,3.529,-0.0085,0.0694,0.4335,-0.8984
0.034,0.084,-0.003,15.5,-25.5,-1.7,0,2018,4,25,16,28,3.549,-0.0063,0.0681,0.4377,-0.8964
0.027,0.057,0,17.1,-14,1.1,0,2018,4,25,16,28,3.553,-0.0046,0.0659,0.4402,-0.8954
0.026,0.002,0.037,16.4,-6.2,4.3,0,2018,4,25,16,28,3.574,-0.0034,0.0633,0.4417,-0.8949
-0.025,-0.008,0.092,9.7,7.8,7.9,0,2018,4,25,16,28,3.592,-0.0034,0.0606,0.4412,-0.8953
-0.067,0.034,0.068,2.7,14.4,10.1,0,2018,4,25,16,28,3.632,-0.0046,0.0585,0.4388,-0.8966
-0.082,0.046,0.01,-3.7,14.1,12.5,0,2018,4,25,16,28,3.635,-0.007,0.0571,0.4362,-0.898
-0.107,-0.042,0.067,-11.7,-1.5,10.9,0,2018,4,25,16,28,3.65,-0.0097,0.0565,0.435,-0.8985
-0.102,-0.174,0.06,-16.1,24.3,8.8,0,2018,4,25,16,28,3.688,-0.0126,0.0576,0.4342,-0.8988
-0.091,0.041,0.052,-17.4,58.9,10.6,0,2018,4,25,16,28,3.711,-0.0162,0.0586,0.427,-0.9021
-0.084,0.074,0.087,-22.1,58.5,13.1,0,2018,4,25,16,28,3.715,-0.0202,0.0607,0.4175,-0.9064
-0.08,0.073,0.088,-25.1,42.7,16,0,2018,4,25,16,28,3.732,-0.0248,0.0633,0.4094,-0.9097
-0.049,0.013,0.013,-28.8,41.7,20.5,1023,2018,4,25,16,28,3.752,-0.0302,0.0658,0.403,-0.9123
-0.016,0.005,0,-27.2,54.4,24.8,1023,2018,4,25,16,28,3.774,-0.0364,0.0681,0.3955,-0.9151
0.012,0.043,-0.012,-24.6,57.7,28.4,1023,2018,4,25,16,28,3.812,-0.0432,0.07,0.3861,-0.9187
0.009,0.028,-0.023,-26.6,46,32,1023,2018,4,25,16,28,3.834,-0.0504,0.0717,0.3779,-0.9216
0.032,-0.019,-0.046,-27.6,41.1,33.1,1023,2018,4,25,16,28,3.836,-0.058,0.0738,0.3713,-0.9237
0.064,0.016,-0.101,-22.1,31.7,32.1,1023,2018,4,25,16,28,3.854,-0.0651,0.0759,0.3659,-0.9252
0.09,-0.016,-0.108,-18.8,8.1,28.2,1023,2018,4,25,16,28,3.874,-0.0715,0.0772,0.3629,-0.9258
0.112,-0.089,-0.122,-16.3,-17.9,23.1,0,2018,4,25,16,28,3.89,-0.0767,0.0785,0.364,-0.9248
0.102,-0.263,-0.126,-15,4.9,15.7,0,2018,4,25,16,28,3.93,-0.0807,0.0802,0.3657,-0.9237
0.08,-0.102,-0.089,-11.6,33.4,10.3,0,2018,4,25,16,28,3.951,-0.0839,0.0812,0.362,-0.9247
0.086,-0.001,-0.123,-10,21.2,4,0,2018,4,25,16,28,3.954,-0.0862,0.0819,0.3571,-0.9264
0.097,0,-0.089,-8.7,-10.6,-0.6,0,2018,4,25,16,28,3.972,-0.0871,0.0833,0.3563,-0.9265
0.089,0,-0.102,-1.6,-41.6,-6,0,2018,4,25,16,28,3.992,-0.0864,0.0848,0.3605,-0.9248
0.092,0.037,-0.174,8.5,-57.6,-9.4,0,2018,4,25,16,28,4.032,-0.0842,0.0856,0.3688,-0.9217
0.057,-0.042,-0.155,18.6,-54.1,-12.4,0,2018,4,25,16,28,4.051,-0.0806,0.0849,0.3781,-0.9183
0.031,-0.027,-0.08,25.6,-38.8,-12.1,0,2018,4,25,16,28,4.055,-0.0763,0.083,0.386,-0.9155
0.015,-0.108,-0.076,30.7,-19.6,-12.9,0,2018,4,25,16,28,4.078,-0.0718,0.08,0.3921,-0.9135
0.008,0.004,-0.054,30.3,-6.2,-11.2,0,2018,4,25,16,28,4.097,-0.0675,0.0762,0.3947,-0.9131
-0.015,-0.03,-0.008,28.3,14.1,-11.7,0,2018,4,25,16,28,4.114,-0.0638,0.0723,0.3948,-0.9136
-0.004,0.066,-0.007,27.4,12.5,-11.7,0,2018,4,25,16,28,4.134,-0.0603,0.0684,0.3921,-0.9153
0.034,0.044,-0.037,26.1,-7.3,-12.3,0,2018,4,25,16,28,4.154,-0.0565,0.0651,0.3917,-0.916
0.091,-0.023,-0.043,25.2,-18.6,-12.4,0,2018,4,25,16,28,4.174,-0.0523,0.0627,0.3944,-0.9152
0.131,-0.053,-0.039,25.8,-12.3,-13,0,2018,4,25,16,28,4.213,-0.0482,0.0597,0.3972,-0.9145
0.169,-0.031,-0.04,27.7,-4.3,-14.6,0,2018,4,25,16,28,4.232,-0.0441,0.0565,0.3983,-0.9144
0.188,0.006,-0.024,27.1,-14.1,-17,0,2018,4,25,16,28,4.236,-0.0396,0.0532,0.3997,-0.9142
0.186,0.005,-0.016,25.5,-27.5,-20.8,0,2018,4,25,16,28,4.256,-0.0345,0.0505,0.4032,-0.913
0.152,-0.045,0,24.4,-22.6,-25.7,0,2018,4,25,16,28,4.275,-0.0288,0.0483,0.4073,-0.9115
0.114,-0.006,0.036,23.8,-18,-30.1,0,2018,4,25,16,28,4.299,-0.0221,0.0473,0.4102,-0.9104
0.087,0.026,0.096,23,-20.7,-35,0,2018,4,25,16,28,4.318,-0.0147,0.0468,0.4126,-0.9095
0.037,0.037,0.139,22.4,-36.6,-38.4,0,2018,4,25,16,28,4.334,-0.0068,0.0461,0.4162,-0.908
-0.01,0,0.201,17.8,-52.3,-40.6,0,2018,4,25,16,28,4.353,0.0012,0.0458,0.4219,-0.9054
-0.005,0,0.267,5.1,-52.9,-40,0,2018,4,25,16,28,4.395,0.009,0.0468,0.4301,-0.9015
0.011,0.039,0.315,-6.9,-21.3,-37.3,0,2018,4,25,16,28,4.413,0.0153,0.0497,0.4351,-0.8988
0.003,0.104,0.394,-25,6.9,-32.4,1023,2018,4,25,16,28,4.416,0.0196,0.0549,0.4357,-0.8981
0.033,0.176,0.436,-45.6,21.1,-23.5,1023,2018,4,25,16,28,4.455,0.0212,0.0627,0.4331,-0.8989
0.097,0.213,0.405,-64.1,27.2,-11.8,1023,2018,4,25,16,28,4.476,0.0194,0.0728,0.4292,-0.9
0.139,0.211,0.28,-75.2,36.7,-0.6,1023,2018,4,25,16,28,4.479,0.0147,0.0845,0.4243,-0.9014
0.168,0.255,0.138,-77.8,39.7,11.7,1023,2018,4,25,16,28,4.497,0.0074,0.0963,0.4184,-0.903
0.185,0.234,0.013,-73.4,29,24.8,1023,2018,4,25,16,28,4.518,-0.0015,0.107,0.4133,-0.9042
0.128,0.16,-0.072,-66,32.8,37.7,1023,2018,4,25,16,28,4.54,-0.0121,0.1157,0.4094,-0.9048
0.046,0.147,-0.065,-52.8,39.5,47.7,1023,2018,4,25,16,28,4.559,-0.0239,0.1219,0.404,-0.9062
-0.066,0.114,-0.093,-44.5,16.8,54.8,0,2018,4,25,16,28,4.581,-0.036,0.1258,0.3997,-0.9072
-0.121,-0.153,-0.212,-40.7,20,58.9,0,2018,4,25,16,28,4.596,-0.0484,0.1283,0.3988,-0.9066
-0.196,-0.304,-0.22,-27.4,70.3,58.6,0,2018,4,25,16,28,4.633,-0.0611,0.1291,0.3927,-0.9084
-0.341,0.126,-0.098,-26.1,75.2,60.7,0,2018,4,25,16,28,4.653,-0.0751,0.1285,0.3806,-0.9126
-0.317,-0.015,-0.123,-37.8,24.1,57.6,0,2018,4,25,16,28,4.656,-0.0893,0.1298,0.3731,-0.9142
-0.277,-0.317,-0.211,-40.5,-2.9,49.9,0,2018,4,25,16,28,4.694,-0.1018,0.1331,0.3725,-0.9127
-0.254,-0.27,-0.176,-35.5,25.1,41.6,0,2018,4,25,16,28,4.714,-0.113,0.1366,0.3708,-0.9116
-0.21,-0.191,-0.176,-27.7,36.1,27.8,0,2018,4,25,16,28,4.717,-0.1223,0.1391,0.3652,-0.9122
-0.14,-0.169,-0.195,-19.5,21.8,13.1,0,2018,4,25,16,28,4.754,-0.1288,0.1415,0.36,-0.913
-0.09,-0.093,-0.177,-10.5,8.6,2.1,0,2018,4,25,16,28,4.775,-0.1321,0.1435,0.3572,-0.9134
-0.03,-0.015,-0.2,2,-5.5,-3.7,0,2018,4,25,16,28,4.778,-0.1331,0.1446,0.3565,-0.9133
-0.028,-0.071,-0.153,10,-13.2,-6.7,0,2018,4,25,16,28,4.815,-0.1324,0.1445,0.3578,-0.9129
-0.028,-0.056,-0.107,13.9,-7,-7.2,0,2018,4,25,16,28,4.835,-0.1313,0.1438,0.3603,-0.9122
-0.019,-0.032,-0.071,16,5,-6.2,0,2018,4,25,16,28,4.837,-0.1303,0.1424,0.3613,-0.9122
-0.026,0.014,-0.035,16.2,1.7,-7,0,2018,4,25,16,28,4.874,-0.1295,0.1404,0.3607,-0.9128
-0.018,0,0.001,14.1,-11.8,-7.4,0,2018,4,25,16,28,4.894,-0.1281,0.1388,0.3616,-0.9129
-0.02,-0.027,0.02,9.9,-8.8,-6.5,0,2018,4,25,16,28,4.897,-0.1269,0.1377,0.3635,-0.9125
0.019,0.011,-0.011,5.6,-7.6,-4.7,0,2018,4,25,16,28,4.934,-0.1262,0.1374,0.3642,-0.9124
0.063,0.004,-0.056,4.7,-19,-2.6,0,2018,4,25,16,28,4.955,-0.1257,0.1381,0.3662,-0.9115
0.036,-0.023,-0.025,7.7,-31.9,-4,0,2018,4,25,16,28,4.958,-0.125,0.1389,0.3702,-0.9099
0.024,-0.066,-0.026,13.3,-38,-10.4,0,2018,4,25,16,28,4.995,-0.1233,0.1393,0.376,-0.9077
-0.012,0.001,0.045,19.2,-46.5,-16.6,0,2018,4,25,16,28,5.017,-0.12,0.1389,0.3824,-0.9055
-0.043,0.025,0.082,20.5,-55.4,-19.7,0,2018,4,25,16,28,5.02,-0.1154,0.138,0.3898,-0.9031
-0.057,0.037,0.072,17.4,-45.4,-19.8,0,2018,4,25,16,28,5.037,-0.1108,0.1373,0.3971,-0.9006
-0.08,0.077,0.093,14.9,-26,-18.6,0,2018,4,25,16,28,5.057,-0.1067,0.1367,0.4017,-0.8991
-0.122,0.001,0.092,12.7,-17.1,-17.9,0,2018,4,25,16,28,5.094,-0.1033,0.1366,0.4045,-0.8983
-0.161,0.051,0.101,8.5,-3.9,-15.3,0,2018,4,25,16,28,5.115,-0.1005,0.1367,0.4055,-0.8981
-0.169,0.079,0.131,-1.3,1,-9.8,1023,2018,4,25,16,28,5.12,-0.0988,0.1373,0.4054,-0.8983
-0.156,-0.088,0.099,-10.8,36.6,-4,1023,2018,4,25,16,28,5.16,-0.0995,0.1389,0.4021,-0.8994
-0.183,0.164,0.103,-16.2,79.9,1.8,1023,2018,4,25,16,28,5.181,-0.1024,0.1404,0.3916,-0.9035
-0.129,0.261,0.088,-28.6,51.8,7.6,1023,2018,4,25,16,28,5.185,-0.1074,0.1428,0.38,-0.9075
-0.077,-0.059,0.008,-36.4,16.7,9.4,1023,2018,4,25,16,28,5.204,-0.1127,0.147,0.3744,-0.9085
0.109,0.128,-0.063,-26,37.3,21.2,1023,2018,4,25,16,28,5.224,-0.1323,0.1572,0.3522,-0.913
0.116,0.182,-0.101,-17.6,13.2,25.9,1023,2018,4,25,16,28,5.262,-0.1388,0.1589,0.3481,-0.9133
0.085,0.019,-0.156,-6.2,-0.1,28.2,0,2018,4,25,16,28,5.282,-0.1446,0.1594,0.3477,-0.9125
0.013,-0.029,-0.158,7.2,1.9,27.6,0,2018,4,25,16,28,5.286,-0.1498,0.1579,0.3483,-0.9117
-0.077,-0.077,-0.094,14.2,2,23.2,0,2018,4,25,16,28,5.303,-0.1539,0.1548,0.3497,-0.911
-0.069,-0.118,-0.109,18,6,15.9,0,2018,4,25,16,28,5.322,-0.1565,0.1511,0.3499,-0.9111
-0.099,-0.156,-0.064,18.3,8.2,7.9,0,2018,4,25,16,28,5.342,-0.1579,0.1475,0.3494,-0.9117
-0.168,-0.168,-0.029,17.1,6.9,-1.5,0,2018,4,25,16,28,5.38,-0.1581,0.1445,0.3484,-0.9125
-0.152,-0.143,-0.112,20.5,4,-11.6,0,2018,4,25,16,28,5.399,-0.1566,0.142,0.3476,-0.9134
-0.033,-0.059,-0.134,27.5,-7.1,-19.6,0,2018,4,25,16,28,5.403,-0.153,0.1394,0.3479,-0.9143
0.053,-0.028,-0.08,30.1,-17.8,-21.3,0,2018,4,25,16,28,5.423,-0.1482,0.1371,0.3512,-0.9142
0.135,-0.03,-0.031,27.8,-16.8,-18.5,0,2018,4,25,16,28,5.443,-0.143,0.1349,0.3545,-0.9141
0.224,0.041,-0.01,26.4,-14.8,-14.9,0,2018,4,25,16,28,5.483,-0.1389,0.1322,0.3569,-0.9141
0.277,0.054,0,22.4,-30.4,-11.5,0,2018,4,25,16,28,5.487,-0.1352,0.1299,0.3606,-0.9136
0.309,-0.056,0,18.1,-35.9,-10.6,0,2018,4,25,16,28,5.503,-0.132,0.1286,0.3663,-0.912
0.289,-0.136,-0.036,19.2,-24.2,-12.1,0,2018,4,25,16,28,5.542,-0.1291,0.1274,0.371,-0.9107
0.241,-0.104,0.006,22.2,-7.9,-15.4,0,2018,4,25,16,28,5.56,-0.1258,0.1255,0.3734,-0.9104
0.186,-0.02,0.052,23,-8.8,-19.8,0,2018,4,25,16,28,5.565,-0.1219,0.1234,0.3744,-0.9108
0.153,0.019,0.087,20.2,-25.1,-22.3,0,2018,4,25,16,28,5.583,-0.1175,0.122,0.3767,-0.9106
0.112,-0.058,0.091,14.9,-30.2,-24.2,0,2018,4,25,16,28,5.606,-0.1126,0.1221,0.3809,-0.9095
0.069,-0.072,0.096,11.8,-22.4,-27.6,0,2018,4,25,16,28,5.626,-0.1075,0.123,0.3844,-0.9085
0.059,-0.147,0.073,7.4,-11.5,-30.4,0,2018,4,25,16,28,5.646,-0.1025,0.1245,0.3867,-0.9079
0.044,-0.01,0.134,2,-5.1,-32.6,0,2018,4,25,16,28,5.682,-0.0977,0.1266,0.3868,-0.9081
0.033,0.035,0.135,-6.6,-15.2,-30.8,0,2018,4,25,16,28,5.686,-0.0935,0.1298,0.3864,-0.9083
0.042,0.023,0.112,-12.5,-21.7,-29.4,0,2018,4,25,16,28,5.702,-0.0897,0.1342,0.3874,-0.9076
0.042,-0.003,0.045,-14.6,-16.3,-26.5,0,2018,4,25,16,28,5.741,-0.0866,0.1393,0.3889,-0.9065
0.065,0.003,-0.002,-12.3,1.9,-23.2,0,2018,4,25,16,28,5.762,-0.084,0.1441,0.389,-0.9059
0.039,0.097,-0.006,-7.1,14.3,-18.7,0,2018,4,25,16,28,5.766,-0.0822,0.1478,0.3862,-0.9067
0.003,0.169,-0.022,-2.6,12.5,-11.7,1023,2018,4,25,16,28,5.786,-0.0812,0.1501,0.3825,-0.908
-0.023,0.202,-0.081,3.5,5,-2.4,1023,2018,4,25,16,28,5.806,-0.0812,0.151,0.3797,-0.909
-0.073,0.181,-0.12,10.2,-2.6,6.8,1023,2018,4,25,16,28,5.844,-0.0821,0.15,0.3789,-0.9094
-0.17,0.088,-0.11,15.5,4.8,14.4,1023,2018,4,25,16,28,5.861,-0.0843,0.147,0.3792,-0.9096
-0.215,0.1,-0.084,18.6,15.7,17.2,1023,2018,4,25,16,28,5.864,-0.0869,0.1434,0.3776,-0.9106
-0.265,0.065,-0.059,17.2,13.5,17.7,1023,2018,4,25,16,28,5.9,-0.0898,0.1395,0.3756,-0.9117
-0.312,0.025,-0.051,14.9,5.3,14.6,1023,2018,4,25,16,28,5.921,-0.0925,0.1362,0.3744,-0.9125
-0.318,0.024,-0.113,14.8,2,11.1,1023,2018,4,25,16,28,5.925,-0.0945,0.1334,0.3742,-0.9127
-0.342,-0.036,-0.12,16.4,4.7,5.3,0,2018,4,25,16,28,5.962,-0.0957,0.1307,0.3738,-0.9132
-0.338,-0.046,-0.135,19.2,6.9,-2,0,2018,4,25,16,28,5.965,-0.0956,0.128,0.3728,-0.914
-0.257,-0.021,-0.138,22.4,8.4,-5.1,0,2018,4,25,16,28,5.985,-0.0946,0.1252,0.3717,-0.9149
-0.179,0.036,-0.134,27.2,14.7,-4.9,0,2018,4,25,16,28,6.021,-0.0933,0.1218,0.3697,-0.9163
-0.153,0.074,-0.088,31.7,7,-3.2,0,2018,4,25,16,28,6.041,-0.0919,0.1175,0.3678,-0.9178
-0.192,0.033,-0.011,31.2,-12.1,-4.3,0,2018,4,25,16,28,6.045,-0.0902,0.1131,0.3683,-0.9183
-0.155,-0.035,0.005,29.6,-13.8,-6.3,0,2018,4,25,16,28,6.081,-0.088,0.1093,0.3708,-0.918
-0.054,-0.013,0.024,30,-17.7,-7.7,0,2018,4,25,16,28,6.102,-0.0858,0.105,0.3732,-0.9177
0.021,0.008,0.024,26.7,-37.9,-6.6,0,2018,4,25,16,28,6.106,-0.0832,0.1015,0.3778,-0.9165
0.053,-0.098,0.022,23.5,-38,-4.6,0,2018,4,25,16,28,6.143,-0.0806,0.0993,0.3845,-0.9141
0.021,-0.127,0.073,21.4,-19.4,-4.9,0,2018,4,25,16,28,6.164,-0.0787,0.097,0.3896,-0.9124
-0.012,-0.086,0.174,14.4,-10.9,-8.1,0,2018,4,25,16,28,6.166,-0.0772,0.0949,0.3917,-0.9119
0.125,0.05,0.16,2.7,-24.4,-8.1,0,2018,4,25,16,28,6.203,-0.0756,0.0946,0.3937,-0.9111
0.22,0.013,0.125,-12.3,-38.3,-4.3,0,2018,4,25,16,28,6.223,-0.0753,0.0967,0.3983,-0.9089
0.189,-0.067,0.133,-31.3,-23.8,4.2,0,2018,4,25,16,28,6.226,-0.0771,0.1011,0.4032,-0.9061
0.169,0.082,0.238,-53.3,4.8,12.8,0,2018,4,25,16,28,6.261,-0.082,0.1078,0.4036,-0.9048
0.188,0.209,0.218,-75.1,-11.6,23,0,2018,4,25,16,28,6.282,-0.0898,0.1169,0.4029,-0.9032
0.222,0.159,0.034,-83.3,-40.1,30.6,0,2018,4,25,16,28,6.286,-0.0995,0.1283,0.4064,-0.8991
0.21,0.15,-0.037,-75.9,-48.5,35.3,0,2018,4,25,16,28,6.323,-0.1095,0.1394,0.4128,-0.8933
0.129,-0.162,-0.139,-58.3,-18.5,35.5,0,2018,4,25,16,28,6.344,-0.1188,0.148,0.4182,-0.8882
0.07,-0.034,-0.116,-32.5,34.2,32.3,0,2018,4,25,16,28,6.348,-0.1274,0.1521,0.4165,-0.8871
0.04,0.196,-0.161,-11.1,39.7,31,0,2018,4,25,16,28,6.382,-0.1343,0.1527,0.4109,-0.8886
-0.073,-0.002,-0.166,0.1,22.5,30.3,0,2018,4,25,16,28,6.403,-0.1398,0.1506,0.4079,-0.8895
-0.178,-0.091,-0.04,3.9,47,29.3,0,2018,4,25,16,28,6.405,-0.1447,0.1471,0.4039,-0.8911
-0.242,-0.062,0.033,-3.6,64.6,26.8,0,2018,4,25,16,28,6.444,-0.1502,0.1433,0.3955,-0.8946
-0.182,-0.021,-0.007,-14.4,38.7,21.4,1023,2018,4,25,16,28,6.464,-0.1556,0.1414,0.3875,-0.8975
-0.111,-0.202,-0.092,-23.5,8.3,14.7,1023,2018,4,25,16,28,6.466,-0.1599,0.1427,0.3847,-0.8977
-0.021,-0.104,-0.094,-19.1,19.2,8.5,1023,2018,4,25,16,28,6.499,-0.1632,0.1448,0.3827,-0.8976
0.026,-0.124,-0.05,-15.8,35,3.4,1023,2018,4,25,16,28,6.51,-0.1656,0.1465,0.3796,-0.8983
0.06,0.001,-0.041,-13,34.4,1.8,1023,2018,4,25,16,28,6.528,-0.1674,0.1478,0.3742,-0.9
0.07,0.033,-0.084,-7.8,10.1,0.2,1023,2018,4,25,16,28,6.548,-0.1682,0.1493,0.3707,-0.901
0.066,0.032,-0.109,-1.6,-24.3,-3,1023,2018,4,25,16,28,6.587,-0.1674,0.1511,0.3725,-0.9001
0.052,-0.04,-0.099,4.8,-38.5,-7.4,1023,2018,4,25,16,28,6.605,-0.165,0.1528,0.3787,-0.8977
-0.027,-0.189,-0.031,11.8,-22.6,-12.9,0,2018,4,25,16,28,6.611,-0.1616,0.1532,0.3848,-0.8956
-0.123,-0.227,0.064,16.2,22.9,-20,0,2018,4,25,16,28,6.65,-0.1578,0.1519,0.3848,-0.8965
-0.116,0.063,0.019,13.1,28.3,-22.1,0,2018,4,25,16,28,6.654,-0.1539,0.1499,0.3802,-0.8995
-0.095,0.083,-0.002,8.6,14.7,-23.1,0,2018,4,25,16,28,6.67,-0.1503,0.1486,0.3765,-0.9019
-0.07,0.111,0.041,6.1,12.1,-20.3,0,2018,4,25,16,28,6.69,-0.147,0.1481,0.3739,-0.9036
-0.006,0.055,0.034,3.2,6.2,-16.2,0,2018,4,25,16,28,6.711,-0.1441,0.1479,0.3717,-0.905
0.073,0.106,0,-0.5,-7.4,-10.9,0,2018,4,25,16,28,6.729,-0.1416,0.1486,0.3708,-0.9057
0.15,0.088,0.006,-2.1,-19.8,-7.1,0,2018,4,25,16,28,6.75,-0.14,0.1498,0.3727,-0.905
0.202,0.053,-0.004,-2.9,-32.5,-5.6,0,2018,4,25,16,28,6.79,-0.1385,0.1514,0.3767,-0.9032
0.269,0.068,-0.058,1.2,-34.4,-5.1,0,2018,4,25,16,28,6.81,-0.137,0.1528,0.3819,-0.9011
0.248,0.036,-0.052,2.8,-25.6,-4,0,2018,4,25,16,28,6.814,-0.1354,0.1535,0.3867,-0.8991
0.187,0.025,-0.033,6.8,-5,-3.8,0,2018,4,25,16,28,6.832,-0.1341,0.1533,0.3889,-0.8984
0.114,-0.058,-0.062,11.3,0.8,-4.7,0,2018,4,25,16,28,6.851,-0.1327,0.1522,0.3892,-0.8986
0.037,-0.082,-0.021,12.7,11.1,-7.2,0,2018,4,25,16,28,6.869,-0.1309,0.1509,0.389,-0.8992
-0.025,-0.053,0.024,9,17.5,-6.4,0,2018,4,25,16,28,6.89,-0.1295,0.1492,0.387,-0.9006
-0.091,-0.013,0.028,5.9,24.5,-6,0,2018,4,25,16,28,6.927,-0.129,0.1474,0.384,-0.9022
-0.095,0.054,-0.039,3,17.8,-3.7,0,2018,4,25,16,28,6.946,-0.129,0.1458,0.3807,-0.9039
-0.096,0.06,-0.094,5.1,10,-1.3,0,2018,4,25,16,28,6.95,-0.1292,0.1444,0.3789,-0.9048
-0.108,0.09,-0.079,11.5,-2.1,-0.4,0,2018,4,25,16,28,6.988,-0.1293,0.1423,0.3789,-0.9052
-0.161,0.042,-0.031,17.4,-16.2,-1.7,0,2018,4,25,16,28,7.009,-0.1284,0.1396,0.381,-0.9048
-0.216,-0.025,0.063,19.2,-21.7,-4.3,0,2018,4,25,16,28,7.013,-0.1264,0.1373,0.3843,-0.9041
-0.174,-0.013,-0.001,17.7,-34.9,-7.3,0,2018,4,25,16,28,7.033,-0.1237,0.1355,0.389,-0.9027
-0.096,-0.054,-0.076,18.9,-24.8,-9.5,0,2018,4,25,16,28,7.053,-0.1205,0.1341,0.3942,-0.9011
-0.076,0.036,-0.026,22.7,-8.1,-9.6,0,2018,4,25,16,28,7.069,-0.1176,0.1315,0.397,-0.9006
-0.017,0.011,0.03,18.5,0.6,-8.3,0,2018,4,25,16,28,7.11,-0.1152,0.1286,0.3977,-0.901
0.033,0.074,0.069,10.7,-2.4,-4.1,1023,2018,4,25,16,28,7.13,-0.1135,0.1268,0.3972,-0.9017
0.051,0.034,0.033,2.1,-5.9,1.9,1023,2018,4,25,16,28,7.134,-0.1129,0.1265,0.3974,-0.9018
0.076,0.056,0.048,-3.6,5.1,6.2,1023,2018,4,25,16,28,7.153,-0.1137,0.127,0.397,-0.9018
0.097,0.103,0.066,-8.9,5,9.2,1023,2018,4,25,16,28,7.173,-0.1156,0.1276,0.3958,-0.902
0.141,0.08,0.029,-6.9,-14.1,8.9,1023,2018,4,25,16,28,7.193,-0.118,0.1286,0.3963,-0.9013
0.131,0.013,-0.041,-1.1,-17.6,8.8,1023,2018,4,25,16,28,7.213,-0.1194,0.129,0.3992,-0.8998
0.109,-0.039,-0.017,4.5,7,7.9,1023,2018,4,25,16,28,7.255,-0.1206,0.1285,0.4002,-0.8992
0.048,-0.054,0.043,4.6,18.5,5.8,1023,2018,4,25,16,28,7.27,-0.1215,0.1275,0.3984,-0.9
0.033,0.04,0.008,2.5,10.1,4.6,0,2018,4,25,16,28,7.273,-0.1225,0.1265,0.396,-0.9011
0.025,0.015,-0.044,0,-6.2,5.3,0,2018,4,25,16,28,7.304,-0.1231,0.1263,0.3958,-0.9011
0.021,-0.065,-0.084,3,0.1,2.3,0,2018,4,25,16,28,7.324,-0.1236,0.1263,0.3975,-0.9004
-0.019,-0.06,-0.015,6,5.5,-1.3,0,2018,4,25,16,28,7.334,-0.1236,0.1257,0.3978,-0.9003
-0.188,-0.253,0.13,6.3,9.5,-6.3,0,2018,4,25,16,28,7.35,-0.1229,0.1245,0.3972,-0.9008
-0.281,0,0.128,3.8,13,-8.9,0,2018,4,25,16,28,7.374,-0.1217,0.124,0.3947,-0.9021
-0.211,-0.018,-0.119,-0.4,-4.6,-11.1,0,2018,4,25,16,28,7.392,-0.1204,0.1245,0.3941,-0.9025
-0.174,-0.003,-0.125,4.7,12.4,-14.3,0,2018,4,25,16,28,7.413,-0.1185,0.1251,0.3933,-0.903
-0.195,-0.12,0.029,-0.3,36.6,-11.8,0,2018,4,25,16,28,7.449,-0.1168,0.1252,0.3895,-0.9049
-0.126,0.176,0.101,-7.3,68,-3.3,0,2018,4,25,16,28,7.469,-0.1172,0.1251,0.3802,-0.9088
0.017,0.162,0.049,-21.3,54.4,7.8,0,2018,4,25,16,28,7.474,-0.1202,0.1262,0.37,-0.9125
0.115,-0.029,-0.061,-26.4,66.6,18.6,0,2018,4,25,16,28,7.51,-0.1254,0.1285,0.3606,-0.9152
0.124,-0.033,-0.005,-22.7,105.6,22.8,0,2018,4,25,16,28,7.53,-0.1325,0.1293,0.3466,-0.9195
0.17,0.201,0.016,-14.8,122.1,24.4,0,2018,4,25,16,28,7.534,-0.1401,0.1289,0.3274,-0.9254
0.194,0.351,-0.167,-10.7,60.1,26.2,0,2018,4,25,16,28,7.552,-0.1473,0.1271,0.3124,-0.9297
0.221,0.019,-0.124,-2.9,10.4,22.5,0,2018,4,25,16,28,7.591,-0.1524,0.1263,0.308,-0.9305
0.164,-0.099,-0.004,2.5,-10.8,16.8,0,2018,4,25,16,28,7.612,-0.156,0.1254,0.3086,-0.9298
0.132,-0.117,-0.016,7.8,-26.2,7.1,0,2018,4,25,16,28,7.617,-0.1574,0.1244,0.3119,-0.9286
0.08,-0.104,-0.026,8.9,-54.9,-3.7,0,2018,4,25,16,28,7.653,-0.1563,0.1246,0.3192,-0.9263
0.117,-0.166,-0.097,12.1,-78.2,-14.9,0,2018,4,25,16,28,7.675,-0.1528,0.1255,0.3302,-0.9229
0.12,-0.175,-0.121,19,-93.3,-23.9,0,2018,4,25,16,28,7.679,-0.147,0.1266,0.344,-0.9186
0.08,-0.113,-0.064,23.1,-96,-27.8,0,2018,4,25,16,28,7.697,-0.1395,0.1272,0.3594,-0.9138
0.006,-0.087,0.013,18.1,-72.9,-27.3,0,2018,4,25,16,28,7.718,-0.1319,0.1281,0.3737,-0.9091
0.004,0.03,-0.021,19.2,-29.2,-25.9,0,2018,4,25,16,28,7.738,-0.1256,0.1283,0.3815,-0.9067
-0.068,-0.045,0.013,12.1,-2.8,-26.9,0,2018,4,25,16,28,7.76,-0.1204,0.1275,0.3838,-0.9065
-0.062,-0.023,0.176,2.3,1.4,-26.9,0,2018,4,25,16,28,7.78,-0.1161,0.1276,0.3831,-0.9074
-0.048,0.105,0.188,-10.3,-7.3,-19.6,1023,2018,4,25,16,28,7.795,-0.113,0.1301,0.3828,-0.9075
-0.02,0.127,0.082,-17.1,-4.2,-11.8,1023,2018,4,25,16,28,7.817,-0.1116,0.1336,0.3828,-0.9072
-0.013,0.092,0.005,-16.4,-3.5,-6.6,1023,2018,4,25,16,28,7.837,-0.1115,0.1368,0.3819,-0.9071
0.015,0.014,-0.02,-13,8.5,-2.8,1023,2018,4,25,16,28,7.859,-0.1119,0.1395,0.3809,-0.907
0.009,0.07,-0.029,-5.2,31.4,0.7,1023,2018,4,25,16,28,7.879,-0.1131,0.141,0.3775,-0.9081
-0.01,0.095,-0.037,0.7,29.2,3.6,1023,2018,4,25,16,28,7.915,-0.1147,0.1407,0.3718,-0.9103
-0.011,0.186,-0.12,9.9,6.7,4.8,1023,2018,4,25,16,28,7.934,-0.1156,0.1393,0.3685,-0.9117
-0.026,0.027,-0.161,17.3,-1,4.2,1023,2018,4,25,16,28,7.937,-0.1158,0.1372,0.3694,-0.9117
-0.039,-0.046,-0.108,23.8,6.8,2.4,1023,2018,4,25,16,28,7.975,-0.1154,0.1337,0.3706,-0.9118
-0.056,-0.04,-0.006,25.9,3.3,-0.4,0,2018,4,25,16,28,7.996,-0.1145,0.1291,0.3707,-0.9125
-0.062,-0.015,-0.009,24.1,-24.2,-5.5,0,2018,4,25,16,28,8.001,-0.1125,0.1249,0.3731,-0.9124
-0.047,-0.078,0.018,20.5,-58.2,-11.8,0,2018,4,25,16,28,8.039,-0.1095,0.1225,0.3804,-0.91
-0.044,0.025,0.066,15.2,-95.1,-16.9,0,2018,4,25,16,28,8.043,-0.1045,0.1216,0.3928,-0.9055
-0.017,-0.342,-0.027,4.9,-99.4,-24.5,0,2018,4,25,16,28,8.06,-0.0987,0.1231,0.4094,-0.8985
0.039,-0.312,-0.004,1.4,-8.2,-27.1,0,2018,4,25,16,28,8.079,-0.0935,0.1257,0.4176,-0.8949
0.061,0.038,0.097,-3.2,44.1,-26.7,0,2018,4,25,16,28,8.1,-0.0898,0.1275,0.413,-0.8972
0.071,0.174,0.087,-11.4,24.1,-23,0,2018,4,25,16,28,8.119,-0.0875,0.1301,0.4062,-0.9001
0.045,0.12,0.061,-17.1,-6.7,-17,0,2018,4,25,16,28,8.138,-0.0856,0.1337,0.4045,-0.9005
0.022,-0.006,-0.001,-17.1,4.3,-11.5,0,2018,4,25,16,28,8.178,-0.0846,0.138,0.4044,-0.9001
0.013,0.004,-0.028,-12,60.3,-6.5,0,2018,4,25,16,28,8.197,-0.0851,0.1408,0.3991,-0.9019
-0.046,0.164,0.01,-6.9,75.9,-2.6,0,2018,4,25,16,28,8.201,-0.0872,0.1414,0.3867,-0.907
-0.086,0.237,0.007,-7.5,48,3,0,2018,4,25,16,28,8.222,-0.0896,0.1417,0.3765,-0.9111
-0.136,-0.043,-0.024,-6.9,44.7,6.4,0,2018,4,25,16,28,8.241,-0.0922,0.1417,0.3699,-0.9135
-0.15,0.062,-0.042,1.4,64.4,7.6,0,2018,4,25,16,28,8.259,-0.095,0.1407,0.3608,-0.917
-0.201,0.174,-0.102,8.5,45.4,8.5,0,2018,4,25,16,28,8.278,-0.0974,0.1384,0.3519,-0.9205
-0.234,0.115,-0.135,12.5,-0.7,6.7,0,2018,4,25,16,28,8.302,-0.0985,0.1358,0.3488,-0.922
-0.235,-0.039,-0.122,16.1,-28.2,3.6,0,2018,4,25,16,28,8.32,-0.0981,0.1335,0.3522,-0.9211
-0.22,-0.129,-0.054,21,-15.2,-1.8,0,2018,4,25,16,28,8.356,-0.0965,0.1308,0.3561,-0.9201
-0.175,-0.032,-0.016,19.7,-15.8,-6.4,0,2018,4,25,16,28,8.377,-0.0942,0.1279,0.3585,-0.9198
-0.04,0.011,-0.015,18.1,-33.6,-8.2,0,2018,4,25,16,28,8.382,-0.0915,0.1253,0.3627,-0.9188
0.102,0.077,-0.034,18.6,-61.9,-6.6,0,2018,4,25,16,28,8.402,-0.0879,0.124,0.3706,-0.9162
0.135,-0.044,-0.082,15.8,-79,-5,0,2018,4,25,16,28,8.441,-0.0841,0.1226,0.3827,-0.9117
0.189,-0.191,-0.044,14.1,-32.3,-4.2,0,2018,4,25,16,28,8.46,-0.0813,0.1215,0.392,-0.9082
0.186,0.012,0.122,8.7,10.3,-2.4,0,2018,4,25,16,28,8.464,-0.0797,0.1199,0.3931,-0.9081
0.214,0.111,0.149,-1.6,5.2,0.1,0,2018,4,25,16,28,8.48,-0.0795,0.1193,0.3914,-0.9089
0.222,0.048,0.067,-10.3,-13.4,4.2,1023,2018,4,25,16,28,8.498,-0.0803,0.1203,0.3923,-0.9083
0.177,-0.021,0.017,-12.2,-8.3,6.7,1023,2018,4,25,16,28,8.517,-0.0821,0.1221,0.3942,-0.9071
0.095,-0.061,0.048,-11.3,13.8,6,1023,2018,4,25,16,28,8.56,-0.084,0.1243,0.3938,-0.9068
0.058,0.026,0.067,-10.8,11.5,3.7,1023,2018,4,25,16,28,8.58,-0.0858,0.126,0.3909,-0.9076
0.018,-0.008,0.019,-12,0.3,2.6,1023,2018,4,25,16,28,8.584,-0.0873,0.1279,0.3896,-0.9078
0.005,-0.011,0.001,-10.4,4.1,1.4,1023,2018,4,25,16,28,8.602,-0.0887,0.1298,0.3894,-0.9075
-0.041,0.019,-0.036,-6.1,13.9,2.8,1023,2018,4,25,16,28,8.62,-0.0899,0.1307,0.3881,-0.9078
-0.098,0.008,-0.024,-1.5,22.5,3.3,0,2018,4,25,16,28,8.66,-0.0917,0.1303,0.3854,-0.9088
-0.139,0.058,-0.019,3,20.1,3,0,2018,4,25,16,28,8.681,-0.0932,0.1289,0.3821,-0.9102
-0.179,0.08,-0.019,6.7,3.4,1.3,0,2018,4,25,16,28,8.685,-0.0937,0.1279,0.3802,-0.9111
-0.226,0.073,-0.042,9.6,-9.9,-1,0,2018,4,25,16,28,8.707,-0.0931,0.1266,0.381,-0.911
-0.199,0.039,-0.092,13.6,-14.1,-1.6,0,2018,4,25,16,28,8.726,-0.0918,0.1251,0.3832,-0.9104
-0.197,-0.004,-0.096,18.4,-9.1,-3.1,0,2018,4,25,16,28,8.744,-0.0902,0.1229,0.3853,-0.91
-0.206,0.004,-0.024,19,-9.8,-3.5,0,2018,4,25,16,28,8.78,-0.0883,0.1203,0.3869,-0.9099
-0.196,0.017,0.012,17.1,-16.5,-3.3,0,2018,4,25,16,28,8.802,-0.0862,0.1179,0.3891,-0.9095
-0.177,-0.042,0.028,14.4,-15.8,-3.8,0,2018,4,25,16,28,8.806,-0.0842,0.1159,0.3921,-0.9086
-0.161,-0.038,0.035,9.1,-2.5,-4.1,0,2018,4,25,16,28,8.822,-0.0825,0.1144,0.3937,-0.9082
-0.093,-0.009,-0.007,4.5,14.4,-2.9,0,2018,4,25,16,28,8.844,-0.082,0.1128,0.3928,-0.9089
-0.047,-0.015,0.06,-4.5,18.3,-1.5,0,2018,4,25,16,28,8.864,-0.0822,0.112,0.3902,-0.9101
0.013,0.043,0.116,-16.7,17.4,5.4,0,2018,4,25,16,28,8.902,-0.0837,0.1131,0.3866,-0.9114
0.077,0.138,0.074,-25.4,16.7,16.3,0,2018,4,25,16,28,8.921,-0.0872,0.1156,0.3831,-0.9122
0.145,0.094,0.005,-30.7,19.2,27,0,2018,4,25,16,28,8.924,-0.0929,0.1185,0.3804,-0.9124
0.166,0.143,-0.02,-33.3,24.2,37.9,0,2018,4,25,16,28,8.941,-0.1008,0.121,0.377,-0.9127
0.192,0.122,-0.061,-31.9,26.1,44.6,0,2018,4,25,16,28,8.963,-0.1102,0.1231,0.3732,-0.9128
0.176,0.009,-0.065,-28,42.8,46.9,0,2018,4,25,16,28,8.998,-0.1206,0.1245,0.3682,-0.9134
0.165,0.019,-0.076,-22.4,59.4,47.8,0,2018,4,25,16,28,9.018,-0.1311,0.1244,0.3602,-0.9151
0.128,-0.014,-0.094,-13.3,69.2,45.8,0,2018,4,25,16,28,9.024,-0.1415,0.1229,0.3502,-0.9177
0.037,-0.014,-0.027,-7.8,53.1,39.4,0,2018,4,25,16,28,9.046,-0.1505,0.1208,0.3407,-0.9201
0.018,-0.124,-0.068,-3.4,28.4,28.7,0,2018,4,25,16,28,9.066,-0.1573,0.1193,0.336,-0.9209
0.036,-0.221,-0.138,2.3,12.6,16.1,0,2018,4,25,16,28,9.087,-0.1615,0.1178,0.3341,-0.921
0.055,-0.121,-0.132,13.3,8,3.7,0,2018,4,25,16,28,9.107,-0.1628,0.1156,0.3327,-0.9216
0.065,-0.117,-0.082,18.6,-9,-7.1,0,2018,4,25,16,28,9.141,-0.1616,0.1131,0.3332,-0.9219
0.091,-0.099,-0.011,19.6,-28.3,-15.3,0,2018,4,25,16,28,9.145,-0.1582,0.1119,0.3372,-0.9212
0.11,-0.077,0.005,18.6,-39.1,-20,1023,2018,4,25,16,28,9.164,-0.1533,0.1119,0.3435,-0.9197
0.1,-0.01,0.008,18.1,-40.6,-22.3,1023,2018,4,25,16,28,9.204,-0.148,0.1124,0.35,-0.9181
0.096,-0.01,-0.014,19.4,-40.4,-25.1,1023,2018,4,25,16,28,9.222,-0.1423,0.1129,0.3563,-0.9165
0.059,-0.065,-0.03,23.2,-43.2,-28.7,1023,2018,4,25,16,28,9.227,-0.1359,0.1131,0.3633,-0.9146
0.017,0.025,0.051,25.2,-42.4,-29.5,1023,2018,4,25,16,28,9.245,-0.1287,0.1124,0.3703,-0.913
-0.038,0.084,0.083,24.4,-55.6,-26.9,1023,2018,4,25,16,28,9.281,-0.1221,0.1112,0.377,-0.9113
-0.12,-0.12,0.048,15.4,-40.2,-25.4,1023,2018,4,25,16,28,9.302,-0.1163,0.1102,0.385,-0.9088
-0.094,0.041,0.043,11,-0.4,-22.3,1023,2018,4,25,16,28,9.306,-0.1118,0.1096,0.3876,-0.9083
-0.126,0.159,0.083,2,8.1,-18.4,0,2018,4,25,16,28,9.329,-0.1086,0.11,0.3861,-0.9093
-0.115,-0.011,0.088,-6.8,-0.5,-16,0,2018,4,25,16,28,9.349,-0.1066,0.1116,0.3851,-0.9098
-0.12,0.036,0.148,-14.1,12.3,-12.1,0,2018,4,25,16,28,9.386,-0.1054,0.1143,0.3839,-0.9101
-0.098,0.095,0.137,-18.5,20.3,-6.4,0,2018,4,25,16,28,9.406,-0.1058,0.1174,0.3804,-0.9112
-0.087,-0.072,0.063,-20.8,48.5,-3.1,0,2018,4,25,16,28,9.411,-0.1076,0.12,0.375,-0.9128
-0.086,0.16,0.086,-21.3,66.6,2.1,0,2018,4,25,16,28,9.427,-0.1104,0.122,0.3646,-0.9164
-0.085,-0.015,0.042,-25.2,78.3,7.3,0,2018,4,25,16,28,9.464,-0.1146,0.1239,0.353,-0.9202
-0.112,0.123,0.056,-25.7,92.2,12.8,0,2018,4,25,16,28,9.485,-0.1198,0.1253,0.3385,-0.9248
-0.123,0.252,-0.087,-26.7,65.8,21.9,0,2018,4,25,16,28,9.489,-0.126,0.1266,0.3251,-0.9286
-0.051,0.059,-0.181,-22,46.7,26.8,0,2018,4,25,16,28,9.526,-0.1327,0.1277,0.3169,-0.9303
0.002,0.015,-0.165,-13,55,29.3,0,2018,4,25,16,28,9.547,-0.1396,0.1281,0.3101,-0.9316
0.045,0.03,-0.109,-4.3,51.2,30.4,0,2018,4,25,16,28,9.551,-0.1462,0.1271,0.3021,-0.9333
0.095,0.049,-0.123,2,30.4,31,0,2018,4,25,16,28,9.568,-0.1522,0.1253,0.2963,-0.9345
0.11,0.088,-0.109,9.1,0.8,30.5,0,2018,4,25,16,28,9.606,-0.1573,0.1224,0.2945,-0.9345
0.118,0.16,-0.084,15.1,-37.8,30,0,2018,4,25,16,28,9.625,-0.1612,0.1193,0.2987,-0.933
0.055,0.016,-0.014,17.7,-63.3,26.5,0,2018,4,25,16,28,9.629,-0.1638,0.1171,0.3082,-0.9297
0.017,-0.267,-0.015,15.4,-41.2,18.6,0,2018,4,25,16,28,9.648,-0.1658,0.1154,0.3188,-0.9259
0.01,-0.299,-0.067,22.7,-4.1,9.6,0,2018,4,25,16,28,9.669,-0.167,0.1121,0.3228,-0.9248
-0.057,-0.113,0.059,20.5,17,1.4,0,2018,4,25,16,28,9.706,-0.1669,0.1079,0.3223,-0.9254
-0.049,0.003,0.115,10.2,4.9,-1.1,0,2018,4,25,16,28,9.726,-0.1669,0.1045,0.3204,-0.9265
-0.01,-0.038,0.021,4.6,-0.9,-1.9,0,2018,4,25,16,28,9.731,-0.1667,0.1032,0.3201,-0.9268
-0.03,0.06,0.012,2.1,11.9,1.2,0,2018,4,25,16,28,9.749,-0.1668,0.1024,0.3195,-0.9271
-0.021,0.124,0.027,0.2,14.5,5.7,0,2018,4,25,16,28,9.769,-0.1681,0.1013,0.3162,-0.9281
-0.016,0.026,0.039,-2.3,8.7,8.5,0,2018,4,25,16,28,9.81,-0.1699,0.1005,0.3137,-0.9287
-0.003,0.001,0.046,-2.2,12.7,9.3,0,2018,4,25,16,28,9.829,-0.172,0.1,0.3118,-0.929
0,0.026,0.002,-1.6,13.8,9.8,0,2018,4,25,16,28,9.833,-0.174,0.0993,0.3096,-0.9294
0.036,0.012,-0.029,-1.4,6.2,8.9,0,2018,4,25,16,28,9.848,-0.1759,0.0991,0.308,-0.9296
0.052,-0.003,-0.027,0.3,2.7,7.6,0,2018,4,25,16,28,9.868,-0.1775,0.0991,0.3075,-0.9295
0.046,-0.08,-0.044,1.2,3.8,4.6,1023,2018,4,25,16,28,9.889,-0.1786,0.0993,0.3077,-0.9292
0.061,-0.062,-0.047,1.4,7,-0.4,1023,2018,4,25,16,28,9.928,-0.1791,0.0995,0.3074,-0.9292
0.091,-0.018,-0.048,1.4,-0.9,-5,1023,2018,4,25,16,28,9.949,-0.1786,0.1001,0.3072,-0.9293
0.114,0.007,-0.064,2,-20.9,-7.6,1023,2018,4,25,16,28,9.953,-0.1773,0.101,0.3089,-0.9289
0.12,-0.009,-0.057,0.1,-39.1,-9.1,1023,2018,4,25,16,28,9.971,-0.1755,0.1029,0.314,-0.9273
0.097,-0.003,-0.073,0.3,-37.7,-10.2,1023,2018,4,25,16,28,9.991,-0.1734,0.1048,0.3202,-0.9253
0.09,-0.055,-0.123,3,-22.6,-12.6,1023,2018,4,25,16,28,10.01,-0.171,0.1061,0.3249,-0.924
0.064,0.019,-0.056,5.2,-11.5,-14.6,1023,2018,4,25,16,28,10.048,-0.1683,0.1071,0.3274,-0.9235
0.067,0.06,-0.057,5.9,-23.6,-14.9,0,2018,4,25,16,28,10.067,-0.1651,0.1082,0.3298,-0.9231
0.069,0.034,-0.07,8.7,-28.8,-13.4,0,2018,4,25,16,28,10.071,-0.1616,0.1095,0.3343,-0.9219
0.045,0.03,-0.035,11.8,-18.5,-11,0,2018,4,25,16,28,10.113,-0.1585,0.1098,0.3383,-0.921
0.016,0.063,-0.054,15.4,-16.8,-9.1,0,2018,4,25,16,28,10.117,-0.1557,0.109,0.341,-0.9206
-0.01,0.017,-0.034,18,-22.5,-9.2,0,2018,4,25,16,28,10.131,-0.1529,0.1074,0.3445,-0.9199
-0.011,-0.005,-0.01,20.2,-25.2,-10.3,0,2018,4,25,16,28,10.151,-0.1499,0.1056,0.349,-0.9189
-0.019,-0.025,0.011,21.3,-23.9,-12,0,2018,4,25,16,28,10.171,-0.1466,0.1035,0.3534,-0.918
-0.032,-0.009,0.033,22.3,-32.7,-14.5,0,2018,4,25,16,28,10.212,-0.1428,0.1012,0.3582,-0.917
-0.036,-0.026,0.051,24.1,-54.8,-19.1,0,2018,4,25,16,28,10.23,-0.1382,0.0993,0.3654,-0.9151
-0.029,-0.038,0.037,25.3,-85.8,-24.6,0,2018,4,25,16,28,10.235,-0.1321,0.0981,0.3771,-0.9114
-0.03,-0.139,0.039,27.2,-66,-29.8,0,2018,4,25,16,28,10.255,-0.1249,0.0975,0.3905,-0.9068
-0.079,0.003,0.098,28.2,-34.6,-32.6,0,2018,4,25,16,28,10.274,-0.1177,0.0957,0.3981,-0.9046
-0.06,0.007,0.091,22.6,-29.6,-33.4,0,2018,4,25,16,28,10.313,-0.1105,0.0945,0.4025,-0.9037
-0.078,-0.042,0.095,16.4,-30.6,-31.9,0,2018,4,25,16,28,10.335,-0.1036,0.0938,0.4072,-0.9025
-0.103,0.103,0.092,8.4,-18.8,-24.6,0,2018,4,25,16,28,10.339,-0.0982,0.0942,0.4107,-0.9015
-0.092,0.067,0.1,0.6,-3.1,-19.1,0,2018,4,25,16,28,10.353,-0.0945,0.0954,0.412,-0.9011
-0.104,0.114,0.111,-5.9,0.3,-13.5,0,2018,4,25,16,28,10.372,-0.0923,0.0971,0.4117,-0.9013
-0.092,0.057,0.071,-10.9,8.8,-7.8,0,2018,4,25,16,28,10.39,-0.0916,0.0994,0.4106,-0.9016
-0.097,0.05,0.039,-10.8,25.6,-3.2,0,2018,4,25,16,28,10.431,-0.092,0.1013,0.4076,-0.9027
-0.088,0.116,0.034,-10,37.9,2.7,0,2018,4,25,16,28,10.448,-0.0936,0.1024,0.4021,-0.9049
-0.078,0.127,0.009,-11.1,44,9.6,0,2018,4,25,16,28,10.451,-0.0965,0.1031,0.3954,-0.9075
-0.103,0.088,0.012,-12.2,55.3,15.4,0,2018,4,25,16,28,10.489,-0.1004,0.1034,0.3875,-0.9104
-0.096,0.079,0.016,-12.6,59.8,19.6,0,2018,4,25,16,28,10.509,-0.1055,0.1033,0.3781,-0.9138
-0.063,0.09,0.001,-13.3,52.6,24.6,0,2018,4,25,16,28,10.514,-0.1115,0.1022,0.3687,-0.9171
-0.023,0.05,-0.007,-13.8,46.6,29.1,0,2018,4,25,16,28,10.529,-0.118,0.1014,0.3607,-0.9195
0.022,0.034,-0.027,-12.3,43.2,31.9,0,2018,4,25,16,28,10.566,-0.1247,0.1008,0.3536,-0.9215
0.064,-0.041,-0.077,-12.2,35.8,31.8,0,2018,4,25,16,28,10.587,-0.1315,0.1005,0.3479,-0.9227
0.107,-0.029,-0.091,-8.3,36.6,28.6,1023,2018,4,25,16,28,10.591,-0.1378,0.0997,0.3425,-0.9239
0.124,-0.03,-0.075,-4.4,35.3,24,1023,2018,4,25,16,28,10.629,-0.1433,0.0984,0.3369,-0.9253
0.138,0.001,-0.085,-0.6,25.3,19.3,1023,2018,4,25,16,28,10.65,-0.1476,0.0968,0.3322,-0.9265
0.152,-0.095,-0.118,3.6,16.6,14,1023,2018,4,25,16,28,10.653,-0.1507,0.0952,0.3293,-0.9272
0.141,-0.069,-0.095,7.8,16.7,8.7,1023,2018,4,25,16,28,10.69,-0.1528,0.0932,0.3268,-0.9279
0.134,-0.065,-0.084,10.3,9.2,2.9,1023,2018,4,25,16,28,10.711,-0.1537,0.0911,0.3248,-0.9287
0.114,-0.061,-0.055,10.7,-2.9,-2.8,1023,2018,4,25,16,28,10.715,-0.1535,0.0895,0.3245,-0.929
0.092,-0.038,-0.063,11.2,-15.9,-7.5,1023,2018,4,25,16,28,10.754,-0.1521,0.0884,0.3262,-0.9287
0.077,-0.064,-0.06,11.1,-24.4,-12,0,2018,4,25,16,28,10.776,-0.1497,0.088,0.3298,-0.9279
0.081,-0.105,-0.046,11.6,-26.3,-17.1,0,2018,4,25,16,28,10.78,-0.1465,0.0882,0.3343,-0.9267
0.069,-0.068,-0.032,13.9,-22.2,-22.3,0,2018,4,25,16,28,10.801,-0.1423,0.0884,0.3384,-0.9259
0.048,-0.022,-0.024,15.2,-26.1,-26.3,0,2018,4,25,16,28,10.814,-0.1372,0.0887,0.3426,-0.9251
-0.002,-0.083,0.03,15.3,-31.5,-30.9,0,2018,4,25,16,28,10.854,-0.1315,0.0891,0.3474,-0.9241
-0.017,-0.057,0.038,14.8,-39.9,-35.7,0,2018,4,25,16,28,10.875,-0.125,0.0894,0.3533,-0.9227
-0.015,-0.067,-0.002,16.7,-38.2,-39.8,0,2018,4,25,16,28,10.879,-0.1177,0.0901,0.3597,-0.9211
-0.036,-0.01,0.007,18.8,-33.7,-41.8,0,2018,4,25,16,28,10.897,-0.1097,0.0904,0.3655,-0.9198
-0.046,0.059,0.046,19.1,-36.3,-41.1,0,2018,4,25,16,28,10.936,-0.1014,0.0902,0.3705,-0.9188
-0.055,0.103,0.077,18,-43.2,-38.5,0,2018,4,25,16,28,10.955,-0.0933,0.09,0.3759,-0.9175
-0.06,0.166,0.082,16.1,-52.9,-32.8,0,2018,4,25,16,28,10.959,-0.0859,0.0904,0.3833,-0.9151
-0.073,0.188,0.069,13.7,-61.5,-26.3,0,2018,4,25,16,28,10.978,-0.0793,0.0909,0.3922,-0.9118
-0.087,0.077,0.037,12.2,-61.2,-21.7,0,2018,4,25,16,28,10.999,-0.0739,0.0915,0.4019,-0.908
-0.072,-0.053,0.034,12.9,-44.6,-19.3,0,2018,4,25,16,28,11.014,-0.0693,0.0909,0.4102,-0.9047
-0.069,0.067,0.084,7.8,-19.6,-13.8,0,2018,4,25,16,28,11.052,-0.0659,0.0903,0.4148,-0.9029
-0.067,0.133,0.144,-0.7,-5.4,-7.9,0,2018,4,25,16,28,11.072,-0.0639,0.0907,0.4164,-0.9023
-0.049,0.102,0.18,-11.8,-3.3,-2.6,0,2018,4,25,16,28,11.076,-0.0638,0.0922,0.4167,-0.902
-0.017,0.1,0.135,-21.6,-5.5,3.4,0,2018,4,25,16,28,11.113,-0.0654,0.0951,0.417,-0.9015
-0.003,0.117,0.11,-26.4,1.7,9.5,0,2018,4,25,16,28,11.134,-0.0687,0.0984,0.4157,-0.9014
0.017,0.113,0.091,-27.1,9,13.4,0,2018,4,25,16,28,11.138,-0.0729,0.1017,0.4132,-0.9019
0.03,0.113,0.089,-25.8,13.1,16.2,0,2018,4,25,16,28,11.157,-0.0775,0.105,0.41,-0.9026
0.013,0.169,0.136,-26.2,14.1,20,0,2018,4,25,16,28,11.179,-0.0826,0.1077,0.4074,-0.903
0.063,0.161,0.123,-29.7,25.1,26.2,0,2018,4,25,16,28,11.217,-0.0887,0.1103,0.4044,-0.9035
0.118,0.207,0.111,-34.6,24.4,34,0,2018,4,25,16,28,11.237,-0.0965,0.1129,0.4001,-0.9043
0.158,0.181,0.143,-43.3,2.5,40.6,0,2018,4,25,16,28,11.241,-0.1056,0.1162,0.3979,-0.9038
0.163,0.06,0.145,-53.6,-22.1,42.7,0,2018,4,25,16,28,11.255,-0.1153,0.1212,0.3996,-0.9012
0.206,-0.069,0.086,-63,-27.7,40.9,0,2018,4,25,16,28,11.295,-0.1252,0.1279,0.4038,-0.8971
0.26,-0.123,0.038,-62.8,-2,36.1,0,2018,4,25,16,28,11.315,-0.1351,0.1354,0.4057,-0.8937
0.216,-0.079,0.018,-60.7,8.7,32.6,1023,2018,4,25,16,28,11.319,-0.1446,0.1422,0.4042,-0.8918
0.101,-0.069,0.009,-61,-4.3,30.6,1023,2018,4,25,16,28,11.338,-0.1534,0.1496,0.4031,-0.8896
0.028,-0.05,-0.067,-60.5,-23,29.5,1023,2018,4,25,16,28,11.358,-0.1617,0.1579,0.4051,-0.8858
0.031,-0.121,-0.161,-56.2,-7.4,28.5,1023,2018,4,25,16,28,11.397,-0.1698,0.1658,0.4076,-0.8817
-0.03,-0.064,-0.17,-46.1,8,26.8,1023,2018,4,25,16,28,11.416,-0.1778,0.1715,0.4065,-0.8795
-0.066,0.014,-0.202,-37.1,-4.8,25.1,1023,2018,4,25,16,28,11.421,-0.1848,0.1759,0.4055,-0.8777
-0.072,-0.011,-0.222,-27.1,-23.2,23.5,1023,2018,4,25,16,28,11.46,-0.1903,0.1796,0.4075,-0.8748
-0.107,-0.069,-0.163,-17.5,-28.2,19,1023,2018,4,25,16,28,11.479,-0.1942,0.1823,0.4117,-0.8714
-0.09,-0.141,-0.148,-10,-5.9,13.9,0,2018,4,25,16,28,11.483,-0.1971,0.1839,0.4146,-0.8691
-0.142,-0.107,-0.144,-1.6,20.1,7,0,2018,4,25,16,28,11.498,-0.1994,0.1836,0.4133,-0.8692
-0.164,-0.035,-0.107,3.8,22.6,0.8,0,2018,4,25,16,28,11.538,-0.2006,0.1823,0.41,-0.8708
-0.174,-0.095,-0.081,7,14,-4.5,0,2018,4,25,16,28,11.54,-0.2005,0.181,0.4073,-0.8724
-0.168,-0.112,-0.102,11.2,21.3,-6.8,0,2018,4,25,16,28,11.576,-0.1994,0.1795,0.405,-0.874
-0.203,-0.081,-0.044,9.5,45.9,-5.1,0,2018,4,25,16,28,11.597,-0.1987,0.1772,0.4001,-0.8768
-0.204,0.131,-0.002,8,56.6,-4.1,0,2018,4,25,16,28,11.598,-0.199,0.1742,0.3919,-0.8811
-0.205,0.125,-0.01,2.2,41.9,-0.6,0,2018,4,25,16,28,11.638,-0.1998,0.1719,0.3844,-0.8846
-0.211,0.123,-0.023,0.8,24,3.7,0,2018,4,25,16,28,11.658,-0.2009,0.1704,0.3794,-0.8868
-0.22,0.03,-0.034,-1,12.9,6.8,0,2018,4,25,16,28,11.662,-0.2023,0.1695,0.377,-0.8877
-0.203,0.103,-0.057,1.8,15,8.9,0,2018,4,25,16,28,11.684,-0.2039,0.1684,0.375,-0.8884
-0.176,0.073,-0.131,6.7,8.1,8.4,0,2018,4,25,16,28,11.704,-0.2054,0.1668,0.3736,-0.8889
-0.152,0.044,-0.181,18.5,-4.3,4.7,0,2018,4,25,16,28,11.72,-0.2057,0.1643,0.3739,-0.8892
-0.143,-0.034,-0.144,28.3,-18.9,-1.2,0,2018,4,25,16,28,11.741,-0.204,0.1609,0.3769,-0.889
-0.068,-0.115,-0.06,36.6,-7.5,-9.2,0,2018,4,25,16,28,11.76,-0.2006,0.1567,0.3802,-0.8891
0.058,-0.097,-0.026,36.6,0.2,-12.2,0,2018,4,25,16,28,11.78,-0.1962,0.1519,0.3826,-0.8899
0.161,0.04,0.048,27.7,3,-9.3,0,2018,4,25,16,28,11.802,-0.1921,0.148,0.3831,-0.8912
0.244,0.031,0.157,14.2,-5.1,-3.8,0,2018,4,25,16,28,11.822,-0.1897,0.1453,0.3838,-0.8919
0.259,0.025,0.248,-2.3,-5.2,3.2,0,2018,4,25,16,28,11.841,-0.1891,0.1446,0.3849,-0.8917
0.245,0.071,0.262,-19.7,-8.7,10.7,0,2018,4,25,16,28,11.882,-0.1908,0.1461,0.3856,-0.8907
0.234,0.043,0.197,-30.9,-20.2,16.1,0,2018,4,25,16,28,11.901,-0.1944,0.1498,0.3874,-0.8886
0.17,0.042,0.153,-38,-32.7,20.4,0,2018,4,25,16,28,11.905,-0.1989,0.1548,0.3909,-0.8852
0.107,-0.053,0.075,-40.6,-31.2,20.7,0,2018,4,25,16,28,11.921,-0.2038,0.1609,0.395,-0.8811
0.056,-0.051,0.014,-37.1,-22.6,18.5,0,2018,4,25,16,28,11.939,-0.2085,0.1671,0.3982,-0.8774
0.016,-0.031,-0.062,-31.6,-26.2,15.3,0,2018,4,25,16,28,11.961,-0.2127,0.1724,0.4013,-0.874
0,-0.047,-0.149,-20.8,-32.1,10.9,0,2018,4,25,16,28,12.001,-0.2155,0.1771,0.4063,-0.87
-0.052,-0.025,-0.185,-5.3,-37.4,4.9,0,2018,4,25,16,28,12.021,-0.2166,0.1799,0.4117,-0.8667
-0.096,0.022,-0.175,11,-50.9,-3.3,0,2018,4,25,16,28,12.025,-0.215,0.1809,0.4185,-0.8636
-0.118,0.013,-0.152,23.5,-62.2,-10.5,1023,2018,4,25,16,28,12.044,-0.2108,0.1809,0.4276,-0.8601
-0.12,-0.1,-0.166,31.9,-44.8,-15.5,1023,2018,4,25,16,28,12.082,-0.2049,0.1798,0.4367,-0.8572
-0.131,-0.058,-0.136,40,-0.9,-17.9,1023,2018,4,25,16,28,12.099,-0.1988,0.1764,0.4408,-0.8573
-0.16,-0.024,-0.066,43.1,29.1,-19.3,1023,2018,4,25,16,28,12.104,-0.1933,0.171,0.4391,-0.8605
-0.154,0.141,-0.01,39.2,30.3,-18,1023,2018,4,25,16,28,12.144,-0.1882,0.1651,0.4351,-0.8648
-0.164,0.128,0.051,31.9,15.3,-14.3,1023,2018,4,25,16,28,12.164,-0.1837,0.1602,0.4323,-0.8681
-0.203,0.095,0.085,24.3,2.5,-11.7,1023,2018,4,25,16,28,12.168,-0.1799,0.1566,0.4316,-0.8699
-0.217,-0.019,0.072,15.9,4.9,-10.3,1023,2018,4,25,16,28,12.182,-0.1767,0.1544,0.4318,-0.8708
-0.206,-0.025,0.04,14.3,21.6,-10.7,1023,2018,4,25,16,28,12.202,-0.1745,0.1525,0.4298,-0.8726
-0.234,-0.008,0.048,11,38.2,-12,0,2018,4,25,16,28,12.222,-0.1725,0.1505,0.4253,-0.8755
-0.233,0.065,0.051,7.4,49.4,-12.4,0,2018,4,25,16,28,12.26,-0.1711,0.1486,0.4184,-0.8795
-0.124,-0.062,0.017,-0.6,72.2,-12.9,0,2018,4,25,16,28,12.282,-0.1704,0.1472,0.409,-0.8842
-0.018,-0.148,-0.006,-5.2,106.2,-11.6,0,2018,4,25,16,28,12.286,-0.1709,0.1452,0.3956,-0.8905
0.068,-0.171,-0.029,-13,181.9,-6.5,0,2018,4,25,16,28,12.305,-0.1736,0.1436,0.3741,-0.8995
0.045,0.213,0.082,-12.7,195,0.3,0,2018,4,25,16,28,12.344,-0.1783,0.1397,0.3422,-0.9118
0.097,0.375,0.124,-26.9,103.6,10,0,2018,4,25,16,28,12.363,-0.1838,0.1376,0.3174,-0.92
0.172,0.21,0.063,-38.4,4.5,19.3,0,2018,4,25,16,28,12.367,-0.1892,0.1408,0.309,-0.9213
0.191,0.06,-0.036,-35.8,-25.6,25.2,0,2018,4,25,16,28,12.387,-0.1947,0.1463,0.311,-0.9186
0.137,-0.09,-0.093,-30.6,0.3,26.4,0,2018,4,25,16,28,12.409,-0.2003,0.1506,0.3132,-0.916
0.111,-0.015,-0.093,-19.4,50.7,24.4,0,2018,4,25,16,28,12.424,-0.2064,0.1521,0.3081,-0.9161
0.115,0.112,-0.068,-12.3,19.1,17.5,0,2018,4,25,16,28,12.446,-0.2113,0.1521,0.3016,-0.9171
0.162,0.017,-0.071,-9.4,-38.9,9.5,0,2018,4,25,16,28,12.466,-0.2136,0.1536,0.3036,-0.9157
0.167,-0.101,-0.089,0,-69.3,1.4,0,2018,4,25,16,28,12.503,-0.2128,0.1562,0.313,-0.9123
0.153,-0.015,-0.101,12.9,-79.6,-3.8,0,2018,4,25,16,28,12.523,-0.2098,0.1578,0.3251,-0.9084
0.147,0.033,-0.086,21.2,-102.8,-7.8,0,2018,4,25,16,28,12.528,-0.2049,0.1585,0.3402,-0.9039
0.101,-0.014,-0.099,25.7,-107.2,-8.6,0,2018,4,25,16,28,12.547,-0.1988,0.1589,0.358,-0.8983
0.032,-0.074,-0.096,28.6,-80.1,-8.2,0,2018,4,25,16,28,12.583,-0.1929,0.1587,0.3741,-0.893
-0.043,-0.145,-0.065,32.4,-31.3,-10.6,0,2018,4,25,16,28,12.602,-0.1879,0.1565,0.3847,-0.89
-0.107,-0.152,0.028,33.9,3.2,-16.2,0,2018,4,25,16,28,12.608,-0.1832,0.1526,0.3872,-0.8906
-0.129,0,0.112,28,12.6,-17.8,0,2018,4,25,16,28,12.625,-0.1788,0.1482,0.3863,-0.8926
-0.146,0.089,0.158,19.1,7.8,-15.3,0,2018,4,25,16,28,12.664,-0.1747,0.1453,0.385,-0.8944
-0.155,0.121,0.103,11.8,1.2,-11.7,0,2018,4,25,16,28,12.684,-0.1714,0.1435,0.3845,-0.8956
-0.145,0.043,0.003,9.3,-1.6,-8.5,0,2018,4,25,16,28,12.688,-0.1688,0.1426,0.385,-0.896
-0.144,-0.125,-0.051,9.1,37.8,-6.7,0,2018,4,25,16,28,12.708,-0.167,0.1411,0.3828,-0.8975
-0.15,0.116,0.112,9.7,76.8,-7.2,0,2018,4,25,16,28,12.728,-0.1664,0.1379,0.3732,-0.9021
-0.118,0.197,0.16,1.4,60.3,-3.7,0,2018,4,25,16,28,12.764,-0.1667,0.1352,0.362,-0.907
-0.076,-0.038,0.046,-8.9,52.8,0.4,0,2018,4,25,16,28,12.784,-0.168,0.1343,0.3537,-0.9102
-0.024,0.066,0.007,-6.9,68.8,5.6,1023,2018,4,25,16,28,12.788,-0.1705,0.133,0.3436,-0.9138
-0.026,0.122,0.01,-11.4,58.9,12.8,1023,2018,4,25,16,28,12.809,-0.174,0.1316,0.3325,-0.9174
0.013,0.113,0.024,-15.6,41.7,17.2,1023,2018,4,25,16,28,12.829,-0.1785,0.1311,0.3233,-0.92
0.042,-0.03,0.008,-19.1,18.5,17.8,1023,2018,4,25,16,28,12.869,-0.1829,0.1322,0.3182,-0.9207
0.076,0.022,-0.042,-16,14.2,18.7,1023,2018,4,25,16,28,12.873,-0.1869,0.1341,0.3155,-0.9206
0.081,0.006,-0.076,-12.1,0,16.8,1023,2018,4,25,16,28,12.89,-0.1903,0.136,0.3144,-0.9199
0.082,0.076,-0.071,-6.8,-31.9,13.2,1023,2018,4,25,16,28,12.909,-0.1925,0.1381,0.3168,-0.9183
0.124,0.049,-0.063,-1.9,-79.6,7.1,1023,2018,4,25,16,28,12.927,-0.1927,0.1405,0.3259,-0.9147
0.135,0.071,-0.039,6.3,-118.2,2.2,1023,2018,4,25,16,28,12.965,-0.1905,0.1432,0.3423,-0.9088
0.113,0.094,-0.061,12.3,-145.1,1.4,0,2018,4,25,16,28,12.985,-0.1866,0.1458,0.3639,-0.9007
0.073,0.025,-0.083,16.8,-144,1.1,0,2018,4,25,16,28,12.988,-0.1812,0.1489,0.3877,-0.8914
0.072,-0.248,-0.104,21.4,-95.8,-1.5,0,2018,4,25,16,28,13.027,-0.1765,0.1499,0.4074,-0.8833
0.004,-0.212,0.014,23.2,-23.5,-5.7,0,2018,4,25,16,28,13.05,-0.1728,0.1485,0.4174,-0.8796
-0.041,0.021,0.149,16,7.3,-8.2,0,2018,4,25,16,28,13.054,-0.1702,0.1457,0.4181,-0.8803
-0.053,0.086,0.176,1,-8.9,-7.9,0,2018,4,25,16,28,13.073,-0.1684,0.1449,0.418,-0.8808
-0.057,0.027,0.167,-12.3,-27.1,-6.6,0,2018,4,25,16,28,13.094,-0.1672,0.1471,0.4207,-0.8794
-0.049,-0.076,0.112,-21.1,-11.5,-4.7,0,2018,4,25,16,28,13.109,-0.1673,0.1503,0.4231,-0.8776
-0.052,-0.017,0.103,-22.1,25.9,-4.2,0,2018,4,25,16,28,13.129,-0.1687,0.1533,0.4209,-0.8779
-0.05,0.113,0.106,-20.8,30.8,-1.8,0,2018,4,25,16,28,13.149,-0.1708,0.1554,0.4149,-0.88
0,0.11,0.074,-21.8,12.8,1.2,0,2018,4,25,16,28,13.169,-0.173,0.1579,0.4102,-0.8813
0.021,0.055,0.018,-22.7,6.2,4.7,0,2018,4,25,16,28,13.191,-0.1751,0.1608,0.4077,-0.8815
0.054,0,-0.04,-18.8,37.8,7.2,0,2018,4,25,16,28,13.211,-0.1781,0.1634,0.404,-0.8822
0.041,0.028,-0.05,-13,59.1,8.2,0,2018,4,25,16,28,13.23,-0.1816,0.1641,0.396,-0.8849
0.015,0.072,-0.048,-9.9,51.3,9.6,0,2018,4,25,16,28,13.269,-0.1851,0.1638,0.387,-0.8882
-0.008,0.06,-0.053,-8.8,37.2,10.9,0,2018,4,25,16,28,13.289,-0.1886,0.1633,0.3802,-0.8905
-0.032,-0.107,-0.099,-8.5,31.7,9.5,0,2018,4,25,16,28,13.293,-0.1917,0.1628,0.3759,-0.8918
-0.049,-0.118,-0.099,-3.5,56.8,4.9,0,2018,4,25,16,28,13.309,-0.1944,0.1618,0.369,-0.8943
-0.068,-0.046,-0.072,1.1,62,-0.7,0,2018,4,25,16,28,13.347,-0.1967,0.1594,0.3602,-0.8978
-0.04,0.054,-0.087,5.2,38.6,-5.1,0,2018,4,25,16,28,13.367,-0.1973,0.1567,0.3528,-0.9011
0.02,0.022,-0.085,5.5,3.4,-5.4,0,2018,4,25,16,28,13.371,-0.1963,0.1556,0.3502,-0.9024
0.055,-0.038,-0.105,7,-5,-5.1,0,2018,4,25,16,28,13.392,-0.1947,0.1557,0.3516,-0.9023
0.073,-0.045,-0.066,8.6,0.9,-5.9,0,2018,4,25,16,28,13.412,-0.1928,0.1549,0.3524,-0.9025
0.095,0.015,0,9.1,4.5,-9.5,0,2018,4,25,16,28,13.433,-0.1907,0.1545,0.3522,-0.9031
0.128,0.028,-0.007,7.2,-1,-11.8,0,2018,4,25,16,28,13.453,-0.1877,0.1547,0.3517,-0.9038
0.169,0.037,0.028,4.4,-1.9,-13.2,0,2018,4,25,16,28,13.489,-0.185,0.1545,0.352,-0.9044
0.174,0.041,0.084,0,-6.6,-12.4,0,2018,4,25,16,28,13.511,-0.1824,0.1549,0.3525,-0.9046
0.156,0.063,0.086,-4.4,-9.3,-10.1,0,2018,4,25,16,28,13.515,-0.1802,0.1561,0.3535,-0.9045
0.117,0.066,0.072,-8.4,-12.7,-8.2,1023,2018,4,25,16,28,13.531,-0.1787,0.1579,0.3549,-0.9039
0.094,0.073,0.057,-10,-14.8,-6.9,1023,2018,4,25,16,28,13.551,-0.1773,0.1601,0.3568,-0.9031
0.056,0.023,0.02,-9.5,-9.5,-5.8,1023,2018,4,25,16,28,13.57,-0.1761,0.1627,0.358,-0.9023
0.001,0.02,0.009,-7.2,5.5,-4.2,1023,2018,4,25,16,28,13.61,-0.1753,0.1645,0.3579,-0.9022
-0.048,0.074,0.029,-5.5,9.5,-2.4,1023,2018,4,25,16,28,13.631,-0.1753,0.1649,0.3557,-0.903
-0.039,0.086,0.006,-5.8,-8.4,-0.5,1023,2018,4,25,16,28,13.635,-0.1753,0.1651,0.3548,-0.9033
-0.043,0.05,-0.032,-4.7,-25.4,1,1023,2018,4,25,16,28,13.654,-0.1751,0.166,0.3574,-0.9021
-0.055,0.032,-0.044,-1.6,-26.9,2.6,0,2018,4,25,16,28,13.674,-0.1748,0.1668,0.3618,-0.9003
-0.121,-0.076,-0.016,1.3,-13.8,2.4,0,2018,4,25,16,28,13.694,-0.1747,0.1668,0.3656,-0.8988
-0.159,-0.016,-0.005,4.4,-3.7,-0.2,0,2018,4,25,16,28,13.715,-0.1743,0.1664,0.367,-0.8984
-0.164,0.008,-0.026,6.4,-7.9,-2.9,0,2018,4,25,16,28,13.752,-0.1732,0.1656,0.368,-0.8983
-0.182,-0.037,-0.032,6.9,-3.1,-4.2,0,2018,4,25,16,28,13.773,-0.1717,0.1649,0.3694,-0.8982
-0.176,0.006,-0.041,8.9,8.5,-3.6,0,2018,4,25,16,28,13.777,-0.1704,0.1637,0.3691,-0.8987
-0.164,0.067,-0.05,13.3,14.7,-1.7,0,2018,4,25,16,28,13.792,-0.1693,0.1616,0.3674,-0.9
-0.176,0.102,-0.077,16.3,2.8,1.1,0,2018,4,25,16,28,13.831,-0.1682,0.1588,0.3667,-0.9011
-0.17,0.025,-0.084,21,-0.4,1.1,0,2018,4,25,16,28,13.852,-0.1669,0.1556,0.3673,-0.9016
-0.163,-0.05,-0.041,23.6,2.3,-0.4,0,2018,4,25,16,28,13.856,-0.1652,0.1519,0.368,-0.9022
-0.15,-0.057,0,26.1,4.2,-4.1,0,2018,4,25,16,28,13.875,-0.1632,0.1478,0.3681,-0.9032
-0.132,-0.018,-0.03,30.5,-0.7,-7.8,0,2018,4,25,16,28,13.914,-0.1605,0.1437,0.3684,-0.9043
-0.12,-0.038,-0.061,36,-9.2,-10.6,0,2018,4,25,16,28,13.933,-0.1567,0.1393,0.37,-0.905
-0.111,-0.05,-0.051,42.4,-18,-12.3,0,2018,4,25,16,28,13.937,-0.1521,0.1341,0.3728,-0.9054
-0.107,-0.074,-0.021,45.7,-18.3,-13.5,0,2018,4,25,16,28,13.974,-0.1467,0.1285,0.3767,-0.9055
-0.067,-0.078,0.07,45.2,-10.1,-15.9,0,2018,4,25,16,28,13.995,-0.1414,0.122,0.38,-0.9058
0.005,0.037,0.103,37.8,-16.7,-16.9,0,2018,4,25,16,28,13.999,-0.1362,0.1164,0.3822,-0.9065
0.085,0.063,0.11,28,-27.1,-14.8,0,2018,4,25,16,28,14.013,-0.1311,0.113,0.3854,-0.9063
0.172,0.071,0.146,15.9,-32.3,-9.6,0,2018,4,25,16,28,14.033,-0.1272,0.1112,0.3903,-0.905
0.266,0.09,0.138,2.7,-22.7,-3.5,0,2018,4,25,16,28,14.053,-0.125,0.1108,0.3949,-0.9033
0.276,0.078,0.151,-10.9,-8.4,0,0,2018,4,25,16,28,14.091,-0.1248,0.112,0.3971,-0.9022
0.282,0.079,0.152,-24.9,-3.2,2.3,0,2018,4,25,16,28,14.112,-0.1263,0.115,0.3975,-0.9015
0.268,0.107,0.112,-35.5,-3.7,5.3,0,2018,4,25,16,28,14.116,-0.1289,0.1196,0.3974,-0.9006
0.227,0.104,0.048,-40.1,-5.5,8,0,2018,4,25,16,28,14.137,-0.1325,0.1252,0.3974,-0.8993
0.174,0.077,-0.022,-38.6,-5.2,8.9,0,2018,4,25,16,28,14.157,-0.1364,0.131,0.3977,-0.8977
0.097,0.054,-0.062,-31.4,1.1,9.5,0,2018,4,25,16,28,14.177,-0.14,0.1363,0.3972,-0.8966
0.029,-0.003,-0.103,-22.5,2.8,8.4,0,2018,4,25,16,28,14.197,-0.1428,0.1405,0.3968,-0.8957
-0.04,-0.023,-0.088,-11.9,9.1,5.5,0,2018,4,25,16,28,14.216,-0.145,0.1426,0.3965,-0.8951
-0.067,0.033,-0.097,-1.3,4.5,1.8,1023,2018,4,25,16,28,14.234,-0.1463,0.1427,0.396,-0.8951
-0.053,0.04,-0.109,7.4,-9,-2.8,1023,2018,4,25,16,28,14.274,-0.1459,0.1419,0.3972,-0.8948
-0.033,-0.064,-0.089,10.5,-17.6,-7,1023,2018,4,25,16,28,14.295,-0.1442,0.1407,0.4004,-0.8938
0.017,-0.103,-0.023,11.8,-12.4,-9.9,1023,2018,4,25,16,28,14.299,-0.1415,0.1401,0.404,-0.8928
0.033,-0.043,0.011,8.8,-8,-10.3,1023,2018,4,25,16,28,14.317,-0.1388,0.1397,0.4058,-0.8924
0.046,0.007,0.033,5.3,-8.5,-12.4,1023,2018,4,25,16,28,14.355,-0.136,0.1398,0.4069,-0.8923
0.066,-0.048,-0.019,5.3,-12.7,-16.4,1023,2018,4,25,16,28,14.375,-0.1328,0.1406,0.4083,-0.892
0.035,-0.138,-0.025,7.4,0.6,-20.3,1023,2018,4,25,16,28,14.379,-0.1289,0.1416,0.4099,-0.8917
0.002,-0.073,0.021,11.6,27.6,-23.7,0,2018,4,25,16,28,14.399,-0.1251,0.1415,0.4077,-0.8933
-0.074,0.019,0.07,11.2,44.2,-24.3,0,2018,4,25,16,28,14.435,-0.1215,0.1401,0.4015,-0.8968
-0.063,0.143,0.042,7.8,28.1,-21.9,0,2018,4,25,16,28,14.456,-0.1183,0.1394,0.3949,-0.9003
-0.019,0.08,-0.037,6.1,11.1,-17.5,0,2018,4,25,16,28,14.46,-0.1153,0.1391,0.3911,-0.9023
-0.01,-0.009,-0.06,8.5,24.5,-14.6,0,2018,4,25,16,28,14.476,-0.1129,0.1388,0.3886,-0.9038
0.017,0.103,-0.064,16.1,46.1,-10,0,2018,4,25,16,28,14.497,-0.1114,0.1373,0.3825,-0.9068
0.014,0.257,-0.106,21.4,24.8,-4.4,0,2018,4,25,16,28,14.516,-0.11,0.1341,0.3765,-0.91
0,0.182,-0.029,23.1,-9.8,-0.6,0,2018,4,25,16,28,14.537,-0.1085,0.1309,0.3748,-0.9113
-0.019,0.021,0.006,20.5,-31.1,1.6,0,2018,4,25,16,28,14.558,-0.107,0.1278,0.3781,-0.9106
-0.059,-0.099,0.057,16.2,-17,0.1,0,2018,4,25,16,28,14.595,-0.1058,0.125,0.3827,-0.9092
-0.085,-0.073,0.074,12.1,-3.4,-3.4,0,2018,4,25,16,28,14.616,-0.105,0.1226,0.3844,-0.9089
-0.107,-0.024,0.063,6.6,-4.9,-7.9,0,2018,4,25,16,28,14.62,-0.1041,0.1206,0.3847,-0.9091
-0.139,-0.144,0.073,3.3,-14.1,-12.9,0,2018,4,25,16,28,14.639,-0.1023,0.1204,0.3864,-0.9086
-0.217,-0.088,0.15,-0.5,-14.6,-15.6,0,2018,4,25,16,28,14.66,-0.0996,0.1214,0.3883,-0.908
-0.262,-0.061,0.143,-7.8,-13.5,-19.8,0,2018,4,25,16,28,14.698,-0.097,0.1235,0.3901,-0.9072
-0.214,-0.064,0.053,-13.3,-12.9,-24.1,0,2018,4,25,16,28,14.702,-0.094,0.1271,0.3916,-0.9064
-0.134,-0.059,-0.029,-14.3,-1.6,-25.3,0,2018,4,25,16,28,14.716,-0.0908,0.1312,0.3923,-0.9058
-0.093,0.088,-0.017,-10.1,27.5,-21.2,0,2018,4,25,16,28,14.738,-0.0888,0.134,0.3893,-0.9069
-0.086,0.118,-0.007,-9.1,30.5,-13.2,0,2018,4,25,16,28,14.759,-0.0876,0.1358,0.3837,-0.9091
-0.096,0.146,0.052,-12.9,40,-1,0,2018,4,25,16,28,14.78,-0.0881,0.1371,0.3778,-0.9113
-0.067,0.253,0.046,-17.5,53.1,14.5,0,2018,4,25,16,28,14.802,-0.0914,0.1383,0.37,-0.914
-0.029,0.15,-0.042,-21.1,57.8,26.1,0,2018,4,25,16,28,14.838,-0.0974,0.1391,0.361,-0.9169
0.001,0.195,-0.019,-17.8,50.8,34.6,0,2018,4,25,16,28,14.858,-0.1049,0.1393,0.3513,-0.9198
0.036,0.08,-0.111,-14.5,41.4,37.5,0,2018,4,25,16,28,14.862,-0.1129,0.1393,0.3441,-0.9216
0.069,0.056,-0.137,-5.3,33.8,37,0,2018,4,25,16,28,14.883,-0.1202,0.1387,0.3388,-0.9227
0.098,-0.001,-0.086,1.4,19.6,34.2,0,2018,4,25,16,28,14.902,-0.1267,0.1362,0.3354,-0.9235
0.112,-0.053,-0.046,6.2,9.9,27.8,0,2018,4,25,16,28,14.918,-0.1322,0.1336,0.3337,-0.9237
0.125,-0.087,-0.078,11.6,-4.4,18.4,1023,2018,4,25,16,28,14.94,-0.1358,0.1309,0.3339,-0.9235
0.113,-0.12,-0.079,17.6,-13.6,8,1023,2018,4,25,16,28,14.959,-0.1369,0.1281,0.3361,-0.9229
0.087,-0.099,-0.029,22.9,-19.9,-1.5,1023,2018,4,25,16,28,14.999,-0.1359,0.1251,0.3394,-0.9222
0.048,-0.102,-0.001,25.6,-26.6,-9.9,1023,2018,4,25,16,28,15.003,-0.133,0.1228,0.3443,-0.9212
0.02,-0.072,0.037,26.9,-34.5,-18.5,1023,2018,4,25,16,28,15.022,-0.1286,0.1205,0.3498,-0.92
0.025,-0.058,0.017,26.7,-48,-25.6,1023,2018,4,25,16,28,15.059,-0.1225,0.1186,0.3568,-0.9184
0.036,-0.083,0.003,26.2,-48,-31.3,1023,2018,4,25,16,28,15.078,-0.1155,0.1176,0.365,-0.9162
0.013,-0.016,0.092,26.4,-37.4,-33.6,1023,2018,4,25,16,28,15.083,-0.1078,0.1166,0.3716,-0.9146
0.014,0.122,0.195,23.5,-42.7,-33.8,0,2018,4,25,16,28,15.121,-0.1001,0.1154,0.3766,-0.9136
0.004,0.257,0.225,14.7,-82.6,-30.4,0,2018,4,25,16,28,15.141,-0.0926,0.1156,0.3861,-0.9104
0.03,0.171,0.181,6.6,-122.6,-26.3,0,2018,4,25,16,28,15.146,-0.0855,0.1177,0.4023,-0.9038
0.058,0.045,0.098,4.9,-106.5,-21.5,0,2018,4,25,16,28,15.183,-0.0789,0.1206,0.4198,-0.896
0.043,-0.003,0.126,-2.1,-49.8,-16.2,0,2018,4,25,16,28,15.187,-0.0741,0.1231,0.4308,-0.8908
0.093,0.068,0.213,-5.7,23.7,-14,0,2018,4,25,16,28,15.203,-0.072,0.1252,0.431,-0.8906
0.132,0.297,0.377,-21.6,34.4,-7.2,0,2018,4,25,16,28,15.222,-0.0723,0.1277,0.4252,-0.893
0.204,0.277,0.416,-45.5,9.1,1.6,0,2018,4,25,16,28,15.241,-0.0752,0.1331,0.4213,-0.8938
0.275,0.092,0.339,-67.2,10.8,7.3,0,2018,4,25,16,28,15.278,-0.0806,0.1417,0.4196,-0.8929
0.276,0.042,0.235,-77.7,39.1,12,0,2018,4,25,16,28,15.297,-0.0885,0.1523,0.4147,-0.8927
0.223,0.101,0.112,-81.5,50.5,17.8,0,2018,4,25,16,28,15.301,-0.098,0.163,0.4064,-0.8936
0.135,0.117,0.079,-84.1,46.9,26.7,0,2018,4,25,16,28,15.344,-0.1086,0.1734,0.3979,-0.8942
0.062,0.153,-0.019,-83.5,51.5,38.6,0,2018,4,25,16,28,15.363,-0.1211,0.1833,0.3897,-0.8943
0.031,0.207,-0.125,-75.6,57,52.1,0,2018,4,25,16,28,15.367,-0.1353,0.1915,0.3808,-0.8943
-0.072,0.159,-0.172,-64.5,41.7,65.3,0,2018,4,25,16,28,15.383,-0.1504,0.1975,0.373,-0.8939
-0.206,0.051,-0.184,-53.7,11.3,70.3,0,2018,4,25,16,28,15.403,-0.1656,0.2013,0.3702,-0.8915
-0.266,-0.016,-0.206,-40.5,1.2,70.2,0,2018,4,25,16,28,15.422,-0.1794,0.2038,0.3708,-0.8881
-0.281,-0.166,-0.277,-24.6,17.8,64.2,0,2018,4,25,16,28,15.461,-0.1922,0.2042,0.3709,-0.8853
-0.32,-0.131,-0.254,-8.9,28.4,54.3,0,2018,4,25,16,28,15.481,-0.2033,0.2019,0.3684,-0.8843
-0.331,-0.103,-0.215,0.9,16.7,43.9,0,2018,4,25,16,28,15.485,-0.2119,0.1985,0.3664,-0.8839
-0.353,-0.129,-0.162,7.2,3.4,33.1,0,2018,4,25,16,28,15.504,-0.2178,0.195,0.3665,-0.8832
-0.371,-0.202,-0.158,10.6,8,22.7,0,2018,4,25,16,28,15.524,-0.2216,0.1916,0.3673,-0.8827
-0.339,-0.147,-0.155,14.3,25.7,12.9,0,2018,4,25,16,28,15.564,-0.2241,0.1878,0.3655,-0.8836
-0.32,-0.059,-0.118,16.3,19.6,3.3,0,2018,4,25,16,28,15.585,-0.2251,0.184,0.3626,-0.8854
-0.237,-0.024,-0.105,18.1,-0.8,-3.8,0,2018,4,25,16,28,15.589,-0.2243,0.181,0.3618,-0.8865
-0.138,-0.012,-0.056,22.1,-12.6,-9.5,0,2018,4,25,16,28,15.604,-0.2216,0.1786,0.3637,-0.8869
-0.025,0.004,-0.032,24.7,-15.9,-11.3,0,2018,4,25,16,28,15.623,-0.2181,0.1758,0.367,-0.8869
0.088,-0.03,-0.002,24.6,-12.6,-10.2,1023,2018,4,25,16,28,15.642,-0.2143,0.1736,0.37,-0.8871
0.179,0.029,0.065,20.1,-16.7,-8.8,1023,2018,4,25,16,28,15.683,-0.2107,0.1717,0.3725,-0.8872
0.25,-0.022,0.133,10.2,-24.6,-6,1023,2018,4,25,16,28,15.702,-0.2079,0.1706,0.3762,-0.8865
0.277,-0.046,0.195,0,-23.3,-4.2,1023,2018,4,25,16,28,15.706,-0.2061,0.1711,0.3799,-0.8853
0.292,-0.049,0.185,-8.6,-16.6,-2.4,1023,2018,4,25,16,28,15.726,-0.2053,0.1728,0.3828,-0.8839
0.256,0.002,0.128,-13.2,-10.5,-1.9,1023,2018,4,25,16,28,15.765,-0.2054,0.1751,0.3843,-0.8828
0.19,0.011,0.081,-13.9,-7.7,-1.5,1023,2018,4,25,16,28,15.784,-0.2058,0.1777,0.3851,-0.8818
0.113,0.001,0.063,-12.5,-5.2,-2.1,0,2018,4,25,16,28,15.788,-0.2061,0.1802,0.3855,-0.8811
0.04,0.016,0.052,-10,-3.8,-2.9,0,2018,4,25,16,28,15.824,-0.2061,0.1827,0.3851,-0.8807
-0.029,0.002,0.006,-6.3,0.1,-4,0,2018,4,25,16,28,15.845,-0.2061,0.1842,0.3848,-0.8806
-0.071,0.03,-0.034,-1.7,2.8,-4.6,0,2018,4,25,16,28,15.849,-0.2059,0.1846,0.3844,-0.8807
-0.11,0.059,-0.052,2.6,0.5,-4.5,0,2018,4,25,16,28,15.866,-0.2056,0.184,0.3843,-0.8809
-0.151,0.067,-0.081,7.7,-4,-4.6,0,2018,4,25,16,28,15.904,-0.2048,0.1829,0.3849,-0.8811
-0.185,0.045,-0.093,12.8,-9.9,-6.2,0,2018,4,25,16,28,15.925,-0.2031,0.1819,0.3862,-0.8811
-0.213,-0.105,-0.099,18.8,-0.4,-10.4,0,2018,4,25,16,28,15.929,-0.2005,0.1803,0.3876,-0.8814
-0.184,-0.026,-0.047,21.5,24.8,-13.7,0,2018,4,25,16,28,15.947,-0.1976,0.1774,0.3859,-0.8834
-0.122,0.153,-0.029,20.9,21.6,-14.6,0,2018,4,25,16,28,15.984,-0.1947,0.1741,0.3819,-0.8864
-0.05,0.047,-0.05,14.5,-7,-13.1,0,2018,4,25,16,28,16.005,-0.1917,0.1719,0.3812,-0.8878
0.008,-0.025,-0.034,13.1,-0.9,-11.1,0,2018,4,25,16,28,16.009,-0.1888,0.1708,0.3828,-0.888
0.103,0.03,0.041,11.6,11.2,-9.3,0,2018,4,25,16,28,16.047,-0.1861,0.1696,0.3817,-0.8892
0.174,0.05,0.083,7.5,2.7,-7.3,0,2018,4,25,16,28,16.068,-0.1843,0.1684,0.3806,-0.8903
0.185,0.054,0.085,4.9,-4.3,-4.9,0,2018,4,25,16,28,16.072,-0.1828,0.1678,0.3808,-0.8907
0.158,0.016,0.075,2.4,-16.9,-2.9,0,2018,4,25,16,28,16.088,-0.1814,0.1678,0.3827,-0.8901
0.145,-0.048,0.064,2.2,-10.9,-3.7,0,2018,4,25,16,28,16.124,-0.1798,0.1682,0.3851,-0.8893
0.119,-0.034,0.073,2.7,-1.9,-6,0,2018,4,25,16,28,16.146,-0.178,0.1691,0.3855,-0.8894
0.072,-0.06,0.037,3.8,-6,-9,0,2018,4,25,16,28,16.15,-0.1761,0.1697,0.3856,-0.8896
0.025,-0.032,0.035,3.9,-8.8,-9.2,0,2018,4,25,16,28,16.168,-0.1736,0.1701,0.3869,-0.8894
-0.047,0.069,0.04,1.4,-14.3,-6.6,0,2018,4,25,16,28,16.206,-0.1715,0.1701,0.3882,-0.8892
-0.112,0.083,0.058,-4.3,-27.7,-4.4,0,2018,4,25,16,28,16.225,-0.1699,0.1708,0.3911,-0.8882
-0.191,-0.015,0.058,-11.9,-30.7,-4.5,0,2018,4,25,16,28,16.229,-0.1685,0.1731,0.3958,-0.8859
-0.26,-0.046,0.036,-16.3,-16.3,-7.3,0,2018,4,25,16,28,16.269,-0.1676,0.1763,0.3989,-0.884
-0.311,-0.015,0.03,-18.9,-9.3,-12,0,2018,4,25,16,28,16.287,-0.1666,0.1798,0.4,-0.883
-0.356,-0.015,-0.004,-21.8,-7.3,-16.6,0,2018,4,25,16,28,16.292,-0.1654,0.1842,0.4004,-0.8821
-0.318,0.018,-0.092,-21.6,7.1,-18.4,1023,2018,4,25,16,28,16.307,-0.1641,0.1888,0.3993,-0.8819
-0.232,0.097,-0.15,-17.2,16.1,-18.2,1023,2018,4,25,16,28,16.327,-0.1627,0.1926,0.3965,-0.8827
-0.183,0.016,-0.137,-10.5,43.9,-16.5,1023,2018,4,25,16,28,16.346,-0.162,0.1952,0.391,-0.8847
-0.199,-0.019,-0.054,-6.1,72.7,-14.9,1023,2018,4,25,16,28,16.388,-0.1617,0.1955,0.3813,-0.8889
-0.156,0.123,-0.054,0,97.7,-10,1023,2018,4,25,16,28,16.392,-0.1627,0.1942,0.3671,-0.8949
-0.025,0.274,-0.093,3.4,76.9,-3.1,1023,2018,4,25,16,28,16.408,-0.1645,0.1916,0.3527,-0.9009
0.081,0.187,-0.112,7,52.2,4.4,1023,2018,4,25,16,28,16.449,-0.1665,0.189,0.3429,-0.9049
0.077,0.085,-0.071,11.4,34,11.1,1023,2018,4,25,16,28,16.468,-0.1685,0.186,0.3368,-0.9074
0.091,0.079,-0.062,17.5,29.5,16.8,0,2018,4,25,16,28,16.472,-0.1708,0.1829,0.3321,-0.9093
0.126,0.103,-0.081,21.9,8.7,20,0,2018,4,25,16,28,16.511,-0.1733,0.1786,0.3297,-0.9106
0.188,0.135,-0.063,24.8,-40.1,20.4,0,2018,4,25,16,28,16.531,-0.1748,0.1742,0.3334,-0.9098
0.22,-0.058,-0.054,26.6,-68.9,18.5,0,2018,4,25,16,28,16.535,-0.1745,0.1708,0.3443,-0.9064
0.192,-0.001,-0.014,29.7,-61.9,18.1,0,2018,4,25,16,28,16.569,-0.1736,0.1671,0.3562,-0.9027
0.166,0.035,-0.04,28.9,-60.7,18.4,0,2018,4,25,16,28,16.571,-0.1727,0.1631,0.3672,-0.8992
0.13,-0.035,0.028,23.9,-68.3,15.8,0,2018,4,25,16,28,16.589,-0.1716,0.1602,0.3785,-0.8952
0.084,-0.144,0.015,19.9,-67.7,12.6,0,2018,4,25,16,28,16.609,-0.1698,0.1587,0.3907,-0.8906
0.019,-0.266,0.055,21.3,-35,6.4,0,2018,4,25,16,28,16.648,-0.168,0.1566,0.4006,-0.8869
-0.06,-0.13,0.138,21,-2.4,-0.5,0,2018,4,25,16,28,16.667,-0.1663,0.153,0.4044,-0.8861
-0.056,0.037,0.165,15.2,-5.9,-4.5,0,2018,4,25,16,28,16.669,-0.1644,0.15,0.4051,-0.8867
-0.032,-0.022,0.155,10,-15.5,-8.3,0,2018,4,25,16,28,16.705,-0.1621,0.1483,0.4067,-0.8866
-0.019,0.011,0.135,4,-4,-7.6,0,2018,4,25,16,28,16.725,-0.16,0.1476,0.4077,-0.8867
-0.001,0.061,0.093,3.5,8.4,-5.4,0,2018,4,25,16,28,16.729,-0.1585,0.1469,0.4063,-0.8877
-0.019,0.043,0.076,0.6,19.2,-1.8,0,2018,4,25,16,28,16.766,-0.158,0.1459,0.4035,-0.8893
-0.012,0.133,0.105,-1.5,22.3,1.7,0,2018,4,25,16,28,16.787,-0.1584,0.1449,0.3989,-0.8914
-0.009,0.06,0.077,-5.5,13.5,4.1,0,2018,4,25,16,28,16.789,-0.1593,0.1442,0.3951,-0.8931
-0.002,-0.017,0.025,-10.3,22.9,6.6,0,2018,4,25,16,28,16.809,-0.1611,0.1443,0.392,-0.8941
0.03,-0.008,-0.004,-9.4,53.5,9,0,2018,4,25,16,28,16.829,-0.1636,0.1443,0.386,-0.8962
0.033,0.059,0.013,-10.2,58.7,10.9,0,2018,4,25,16,28,16.866,-0.1669,0.1435,0.3765,-0.8998
0.035,0.097,0.008,-12.8,37.8,13.4,0,2018,4,25,16,28,16.887,-0.1703,0.1432,0.368,-0.9027
0.04,0.06,-0.04,-13.3,13.2,15.7,0,2018,4,25,16,28,16.891,-0.1737,0.1438,0.3638,-0.9037
0.034,-0.043,-0.095,-12.5,7.7,15.6,0,2018,4,25,16,28,16.929,-0.177,0.1451,0.3628,-0.9032
0.02,-0.075,-0.052,-10,22.2,12.8,0,2018,4,25,16,28,16.949,-0.1801,0.1459,0.3614,-0.9031
0.006,-0.038,0.003,-9.1,21.6,8.9,0,2018,4,25,16,28,16.953,-0.1829,0.1462,0.3579,-0.9038
-0.015,-0.017,0.018,-10.8,1.4,4.9,1023,2018,4,25,16,28,16.991,-0.1847,0.1467,0.3561,-0.9041
-0.009,-0.009,-0.03,-10.1,-22.2,0.7,1023,2018,4,25,16,28,16.993,-0.1853,0.1485,0.3578,-0.903
-0.011,-0.043,-0.021,-7.5,-33.6,-3.4,1023,2018,4,25,16,28,17.009,-0.1848,0.1509,0.3626,-0.9008
-0.016,0.016,0.02,-4.4,-51.2,-7.7,1023,2018,4,25,16,28,17.03,-0.183,0.1532,0.3688,-0.8983
-0.042,0.029,0.006,-4.6,-76.3,-9.8,1023,2018,4,25,16,28,17.069,-0.1799,0.156,0.3787,-0.8943
-0.034,0.034,-0.008,-7,-83.1,-9.2,1023,2018,4,25,16,28,17.089,-0.1764,0.1596,0.3909,-0.8891
-0.036,-0.061,-0.072,-8.9,-61.1,-7.8,1023,2018,4,25,16,28,17.091,-0.1735,0.1636,0.4024,-0.8838
-0.012,-0.03,-0.103,-4.6,-15.2,-6.8,1023,2018,4,25,16,28,17.131,-0.1716,0.1662,0.4086,-0.8808
-0.012,-0.001,-0.063,-5.2,14.7,-3.8,0,2018,4,25,16,28,17.151,-0.171,0.1673,0.4089,-0.8806
-0.03,0.059,0.004,-3.9,39.5,0,0,2018,4,25,16,28,17.153,-0.1719,0.1672,0.4042,-0.8826
-0.047,0.062,0.033,-4.6,50.1,4,0,2018,4,25,16,28,17.19,-0.174,0.1658,0.3967,-0.8859
-0.063,0.108,0.015,-4.5,39.9,7.6,0,2018,4,25,16,28,17.212,-0.1766,0.1639,0.3889,-0.8891
-0.074,0.065,-0.052,-3.9,17,10.3,0,2018,4,25,16,28,17.216,-0.179,0.1623,0.3846,-0.8908
-0.101,-0.055,-0.066,-2.4,28.4,10,0,2018,4,25,16,28,17.236,-0.1815,0.161,0.3821,-0.8916
-0.092,-0.003,-0.026,1.3,49.6,8.6,0,2018,4,25,16,28,17.253,-0.1841,0.1584,0.3766,-0.8939
-0.102,-0.063,0.011,-1.6,61.4,5.9,0,2018,4,25,16,28,17.274,-0.1868,0.1556,0.3684,-0.8973
-0.101,-0.064,0.036,-3.6,72.9,2.5,0,2018,4,25,16,28,17.293,-0.1895,0.1526,0.3583,-0.9013
-0.067,0.052,-0.021,-1.8,56.7,0.4,0,2018,4,25,16,28,17.311,-0.1917,0.1497,0.3478,-0.9054
0.019,-0.004,-0.073,0.5,22.7,-3.7,0,2018,4,25,16,28,17.349,-0.1924,0.1485,0.3419,-0.9077
0.096,-0.028,-0.067,7,6.2,-7,0,2018,4,25,16,28,17.371,-0.1914,0.1484,0.3402,-0.9085
0.103,-0.031,-0.013,11.3,-2.6,-8.7,0,2018,4,25,16,28,17.375,-0.1893,0.1477,0.3402,-0.9091
0.079,-0.003,-0.03,15,-19.1,-10.7,0,2018,4,25,16,28,17.412,-0.1862,0.1473,0.3421,-0.9091
0.094,-0.041,-0.021,16.1,-26.9,-13.5,0,2018,4,25,16,28,17.431,-0.1823,0.1471,0.3465,-0.9082
0.111,-0.075,-0.038,14.3,0,-15.5,0,2018,4,25,16,28,17.433,-0.1783,0.1467,0.3493,-0.908
0.114,0.066,0.029,12.4,27.6,-16.7,0,2018,4,25,16,28,17.451,-0.175,0.1454,0.3465,-0.9099
0.087,0.181,0.103,5.2,11.3,-12.5,0,2018,4,25,16,28,17.487,-0.1728,0.1442,0.3427,-0.912
0.071,0.152,0.061,2.2,-34,-9.7,0,2018,4,25,16,28,17.509,-0.1706,0.1447,0.3444,-0.9117
0.039,-0.006,-0.01,2.1,-55.1,-7.7,0,2018,4,25,16,28,17.513,-0.1677,0.1466,0.3518,-0.9091
0.013,-0.02,0.011,6.7,-35.8,-7.6,0,2018,4,25,16,28,17.551,-0.165,0.1479,0.3592,-0.9065
-0.023,0.085,0.018,7.1,-20,-6,0,2018,4,25,16,28,17.572,-0.1627,0.1479,0.3631,-0.9053
-0.06,0.063,0.04,5.5,-34.1,-6.2,0,2018,4,25,16,28,17.576,-0.1608,0.1474,0.3663,-0.9045
-0.09,0.089,0.04,5.2,-72.3,-7.3,0,2018,4,25,16,28,17.614,-0.1582,0.1482,0.3744,-0.9015
-0.105,0.051,-0.022,5.8,-109.4,-7.1,0,2018,4,25,16,28,17.634,-0.1543,0.1501,0.3891,-0.8956
-0.108,-0.106,-0.129,11.7,-99.8,-9.9,0,2018,4,25,16,28,17.636,-0.1497,0.1519,0.4063,-0.8884
-0.094,-0.203,-0.138,20.6,-46.8,-13.8,0,2018,4,25,16,28,17.674,-0.1445,0.1521,0.4179,-0.8838
-0.066,-0.137,-0.11,24.7,19.2,-13.5,1023,2018,4,25,16,28,17.676,-0.14,0.1497,0.4202,-0.8839
-0.029,0.175,-0.054,26.4,53.9,-9.1,1023,2018,4,25,16,28,17.694,-0.1373,0.1452,0.4142,-0.8879
-0.029,0.215,-0.038,23.3,40.5,-1.2,1023,2018,4,25,16,28,17.715,-0.1358,0.1401,0.406,-0.8927
-0.074,0.006,-0.023,17.4,29.4,5.7,1023,2018,4,25,16,28,17.754,-0.1356,0.1355,0.401,-0.8957
-0.1,-0.045,0.029,17.9,52.6,6.5,1023,2018,4,25,16,28,17.773,-0.1368,0.1305,0.3956,-0.8987
-0.088,0.038,0.005,17.1,50.5,4.6,1023,2018,4,25,16,28,17.775,-0.138,0.1252,0.3875,-0.9027
-0.058,0.081,-0.003,15,14,4,1023,2018,4,25,16,28,17.812,-0.1386,0.1208,0.3824,-0.9054
-0.046,0.043,-0.004,14.6,-22.9,4.8,1023,2018,4,25,16,28,17.832,-0.1386,0.118,0.3835,-0.9054
-0.049,-0.109,0.014,13.9,-26.8,2.5,0,2018,4,25,16,28,17.836,-0.1382,0.1159,0.3886,-0.9035
-0.006,-0.073,-0.006,16.6,-2.9,0.1,0,2018,4,25,16,28,17.873,-0.1374,0.1137,0.3917,-0.9026
0.01,-0.014,-0.005,16.4,2.8,-0.6,0,2018,4,25,16,28,17.893,-0.1363,0.1111,0.3921,-0.9029
0.016,0.06,0.058,14.7,-6,0.1,0,2018,4,25,16,28,17.897,-0.1351,0.1087,0.3922,-0.9033
0.029,0.048,0.131,7.6,-21,1.5,0,2018,4,25,16,28,17.934,-0.1342,0.1073,0.3935,-0.903
0.064,0.037,0.145,-0.1,-29.4,2,0,2018,4,25,16,28,17.935,-0.1338,0.1074,0.3966,-0.9017
0.101,0.013,0.1,-10.8,-22.1,3.2,0,2018,4,25,16,28,17.957,-0.1339,0.1092,0.3998,-0.9001
0.125,0.012,0.08,-20.2,-16.9,4.3,0,2018,4,25,16,28,17.993,-0.1352,0.1118,0.4024,-0.8984
0.12,0.005,0.059,-27.6,-9.2,5.9,0,2018,4,25,16,28,18.014,-0.1371,0.116,0.4037,-0.897
0.094,-0.002,0.093,-35.9,-8.4,7.5,0,2018,4,25,16,28,18.018,-0.14,0.1214,0.4038,-0.8958
0.049,-0.081,0.062,-44.7,-3.9,8.2,0,2018,4,25,16,28,18.055,-0.1435,0.1277,0.4037,-0.8944
0.003,-0.103,0.017,-47,21.9,7,0,2018,4,25,16,28,18.075,-0.148,0.1343,0.4017,-0.8936
-0.034,0.024,-0.035,-44.7,29.1,7.2,0,2018,4,25,16,28,18.079,-0.1528,0.14,0.3965,-0.8942
-0.065,0.083,-0.111,-41.9,8.4,8.7,0,2018,4,25,16,28,18.116,-0.1573,0.1451,0.3929,-0.8943
-0.043,0.033,-0.16,-36.6,0.8,10.1,0,2018,4,25,16,28,18.135,-0.1614,0.1502,0.3926,-0.8928
-0.053,-0.032,-0.129,-28.8,12,10.9,0,2018,4,25,16,28,18.137,-0.1653,0.1542,0.3924,-0.8915
0.038,0.066,-0.101,-20,30.1,11.4,0,2018,4,25,16,28,18.176,-0.1691,0.1565,0.3893,-0.8917
0.096,0.149,-0.13,-11.4,29.6,11.5,0,2018,4,25,16,28,18.194,-0.1721,0.158,0.3842,-0.8931
0.158,0.209,-0.186,-0.3,17.9,14,0,2018,4,25,16,28,18.196,-0.175,0.1573,0.3806,-0.8942
0.13,0.136,-0.191,8.4,14,19.6,0,2018,4,25,16,28,18.234,-0.1775,0.1549,0.3793,-0.8947
0.085,-0.027,-0.068,13.1,51,23.4,0,2018,4,25,16,28,18.255,-0.1808,0.1506,0.3753,-0.8965
0.046,0.074,0.028,13.4,81.1,25,0,2018,4,25,16,28,18.259,-0.1849,0.1451,0.3653,-0.9006
0.033,0.222,0.045,10.3,52.5,28.6,0,2018,4,25,16,28,18.297,-0.1899,0.139,0.355,-0.9047
-0.034,0.101,0.08,1.9,-11.3,30,0,2018,4,25,16,28,18.318,-0.1944,0.1352,0.3526,-0.9052
-0.052,-0.121,0.062,-1.9,-48.5,26.3,0,2018,4,25,16,28,18.322,-0.1981,0.1342,0.3585,-0.9022
-0.068,-0.249,0.029,0.5,-33.8,19,0,2018,4,25,16,28,18.342,-0.2005,0.1341,0.3666,-0.8985
-0.089,-0.207,0.035,6,0.5,8.2,0,2018,4,25,16,28,18.364,-0.202,0.1332,0.3694,-0.8971
-0.056,-0.054,-0.017,10,3.8,0.1,1023,2018,4,25,16,28,18.379,-0.2023,0.1312,0.3695,-0.8973
-0.036,-0.058,-0.036,14.3,-7.4,-5.7,1023,2018,4,25,16,28,18.416,-0.2012,0.1292,0.3708,-0.8973
-0.047,-0.026,-0.005,16.7,-9.6,-8,1023,2018,4,25,16,28,18.437,-0.1989,0.1272,0.3731,-0.8971
0.003,-0.004,-0.007,17.9,-6.6,-9.1,1023,2018,4,25,16,28,18.439,-0.1961,0.1251,0.3751,-0.8972
0.044,0.045,0.015,15.8,-4.4,-8.5,1023,2018,4,25,16,28,18.479,-0.193,0.1232,0.3762,-0.8977
0.067,0.047,0.028,12.7,-0.7,-6.5,1023,2018,4,25,16,28,18.499,-0.1903,0.1217,0.3764,-0.8984
0.077,0.047,0.021,9.2,-5.8,-4.9,1023,2018,4,25,16,28,18.501,-0.188,0.1209,0.3766,-0.8989
0.086,0.047,0,7.2,-10.5,-4.3,1023,2018,4,25,16,28,18.54,-0.186,0.1207,0.3776,-0.8989
0.091,0.019,0.016,5.1,-8.8,-5.1,1023,2018,4,25,16,28,18.561,-0.1841,0.1211,0.3789,-0.8987
0.107,0,-0.003,4,-2.1,-5.4,0,2018,4,25,16,28,18.563,-0.1821,0.1216,0.3796,-0.8988
0.086,-0.01,-0.011,4.9,5.1,-7.2,0,2018,4,25,16,28,18.602,-0.1802,0.1221,0.3793,-0.8992
0.067,-0.019,-0.008,4.8,3.6,-9.2,0,2018,4,25,16,28,18.622,-0.178,0.1222,0.3786,-0.8999
0.042,-0.06,0.008,2.8,1.1,-11.2,0,2018,4,25,16,28,18.624,-0.1757,0.1226,0.3785,-0.9004
0.024,-0.054,0,1.3,7.5,-13.4,0,2018,4,25,16,28,18.64,-0.1732,0.1231,0.3779,-0.901
0.021,-0.022,-0.016,0.3,9.1,-15.1,0,2018,4,25,16,28,18.66,-0.1707,0.1238,0.3765,-0.902
0.013,0,-0.026,-0.8,1.7,-15.8,0,2018,4,25,16,28,18.698,-0.1682,0.1249,0.3753,-0.9028
0,0.01,-0.033,-0.9,-6,-15.7,0,2018,4,25,16,28,18.72,-0.1653,0.1261,0.3756,-0.9031
-0.028,-0.002,-0.022,0,-11,-16,0,2018,4,25,16,28,18.724,-0.1625,0.1273,0.3768,-0.9029
-0.045,0.003,-0.03,2.8,-14.3,-17,0,2018,4,25,16,28,18.762,-0.1595,0.1283,0.3788,-0.9025
-0.062,0.009,-0.054,7.5,-19.7,-18.2,0,2018,4,25,16,28,18.782,-0.1561,0.1286,0.3815,-0.9019
-0.076,0.027,-0.071,13.8,-28,-19.6,0,2018,4,25,16,28,18.786,-0.1521,0.1283,0.3856,-0.9009
-0.103,0.017,-0.021,18.6,-31.6,-20.4,0,2018,4,25,16,28,18.806,-0.1476,0.1272,0.3907,-0.8996
-0.101,0.027,0.017,20.2,-26.9,-20.3,0,2018,4,25,16,28,18.828,-0.1429,0.1254,0.3954,-0.8986
-0.087,0.055,0.011,19.6,-22.8,-17.9,0,2018,4,25,16,28,18.843,-0.1383,0.1232,0.3991,-0.8979
-0.072,0.039,-0.021,19.3,-22.8,-15.3,0,2018,4,25,16,28,18.88,-0.1341,0.1211,0.4026,-0.8973
-0.059,0.038,0.001,18.3,-19.4,-12.9,0,2018,4,25,16,28,18.901,-0.1302,0.1189,0.4062,-0.8965
-0.068,0.014,0.097,13.9,-9.3,-11.3,0,2018,4,25,16,28,18.905,-0.1271,0.1168,0.4082,-0.8963
-0.084,0.035,0.113,8.6,-0.2,-9.3,0,2018,4,25,16,28,18.926,-0.1246,0.1153,0.4083,-0.8968
-0.039,0.043,0.069,2.1,-5.8,-6.1,0,2018,4,25,16,28,18.944,-0.1232,0.1147,0.4083,-0.8971
-0.021,0.052,0.04,-1.4,-6.5,-3.1,0,2018,4,25,16,28,18.985,-0.1225,0.1148,0.4086,-0.897
-0.015,0.041,0.06,-4.5,-4.5,-0.5,0,2018,4,25,16,28,18.989,-0.1224,0.1153,0.4088,-0.8969
-0.013,0.069,0.091,-8.4,-4.4,2.1,0,2018,4,25,16,28,19.007,-0.1229,0.116,0.4085,-0.8969
0.013,0.064,0.073,-13.5,-2.3,6,0,2018,4,25,16,28,19.026,-0.1242,0.1173,0.408,-0.8968
0.029,0.131,0.061,-17.1,1.1,10.6,0,2018,4,25,16,28,19.066,-0.1265,0.1192,0.4068,-0.8968
0.025,0.141,0.103,-23.2,2.3,16.6,0,2018,4,25,16,28,19.071,-0.1301,0.1214,0.406,-0.8963
0.004,0.112,0.122,-33.2,4.5,24.5,0,2018,4,25,16,28,19.087,-0.1353,0.1241,0.405,-0.8956
0.032,0.185,0.088,-43,8.5,33.4,1023,2018,4,25,16,28,19.105,-0.1427,0.1278,0.4033,-0.8947
0.047,0.158,0.057,-51.1,3.7,40.8,1023,2018,4,25,16,28,19.143,-0.1518,0.1323,0.402,-0.8932
0.07,0.135,0.067,-55.3,-10.5,46,1023,2018,4,25,16,28,19.164,-0.1623,0.1377,0.4021,-0.8904
0.066,0.035,0.072,-56.9,-21,48,1023,2018,4,25,16,28,19.168,-0.1729,0.1437,0.404,-0.8866
0.06,-0.122,-0.041,-54.3,-6.8,45.4,1023,2018,4,25,16,28,19.186,-0.1834,0.15,0.406,-0.8825
0.048,-0.09,-0.089,-43.6,26.2,40.2,1023,2018,4,25,16,28,19.208,-0.1937,0.1543,0.404,-0.8805
0.012,-0.099,-0.064,-35,40.9,34.2,1023,2018,4,25,16,28,19.228,-0.2029,0.1569,0.399,-0.8802
0,-0.078,-0.098,-27,45.4,28.7,1023,2018,4,25,16,28,19.249,-0.211,0.1583,0.3931,-0.8808
-0.015,-0.068,-0.131,-18.6,50.1,24.5,0,2018,4,25,16,28,19.286,-0.2178,0.1586,0.3868,-0.8818
-0.031,-0.088,-0.125,-8.9,49,19.2,0,2018,4,25,16,28,19.306,-0.2235,0.1575,0.3804,-0.8834
-0.053,-0.043,-0.141,-2.2,34.9,14.6,0,2018,4,25,16,28,19.311,-0.2276,0.1555,0.3753,-0.8849
-0.056,-0.095,-0.147,4.2,28.1,8.4,0,2018,4,25,16,28,19.327,-0.2302,0.1534,0.3708,-0.8865
-0.045,-0.033,-0.15,10.7,14.4,3.4,0,2018,4,25,16,28,19.365,-0.2312,0.151,0.3679,-0.8879
-0.041,-0.03,-0.114,13.6,-4.8,-1.4,0,2018,4,25,16,28,19.386,-0.2307,0.1488,0.369,-0.8879
0.016,-0.008,-0.105,15.4,-23,-5.1,0,2018,4,25,16,28,19.39,-0.2288,0.1475,0.3725,-0.8871
0.054,-0.043,-0.092,17.6,-35.1,-9.1,0,2018,4,25,16,28,19.408,-0.2256,0.1473,0.3784,-0.8855
0.083,-0.047,-0.02,16.6,-36.5,-12,0,2018,4,25,16,28,19.427,-0.2215,0.1475,0.385,-0.8836
0.114,-0.045,0.03,11.7,-29.1,-12.6,0,2018,4,25,16,28,19.451,-0.2173,0.1484,0.3903,-0.8822
0.114,-0.015,0.033,7.7,-14.6,-11.9,0,2018,4,25,16,28,19.469,-0.2138,0.1494,0.3933,-0.8815
0.12,-0.011,0.005,6.2,-7.6,-12,0,2018,4,25,16,28,19.49,-0.2109,0.1506,0.3943,-0.8816
0.071,-0.021,0.003,3.3,-1.9,-10.4,0,2018,4,25,16,28,19.511,-0.2082,0.1516,0.3949,-0.8818
0.028,0.035,0.044,-2.1,11.1,-7.6,0,2018,4,25,16,28,19.53,-0.2067,0.1524,0.3936,-0.8826
-0.018,0.03,0.08,-7.4,14.1,-5.8,0,2018,4,25,16,28,19.548,-0.2064,0.1529,0.3905,-0.884
-0.054,0.05,0.073,-10.5,8,-4.9,0,2018,4,25,16,28,19.567,-0.2067,0.1537,0.3875,-0.8851
-0.067,0.021,0.026,-11.4,-7,-4.8,0,2018,4,25,16,28,19.587,-0.2071,0.1551,0.3865,-0.8852
-0.071,-0.058,-0.052,-9.3,-6.8,-6,0,2018,4,25,16,28,19.609,-0.2069,0.1568,0.3877,-0.8844
-0.061,-0.033,-0.062,-2.4,11.4,-7.9,0,2018,4,25,16,28,19.629,-0.2066,0.1577,0.3878,-0.8843
-0.065,0.025,-0.014,3.3,20.8,-9.5,0,2018,4,25,16,28,19.65,-0.2059,0.1571,0.3852,-0.8857
-0.062,0.068,0.006,6.4,13.3,-9.6,0,2018,4,25,16,28,19.67,-0.2048,0.1557,0.3821,-0.8875
-0.053,0.064,-0.017,9.5,2.3,-8.2,0,2018,4,25,16,28,19.707,-0.2033,0.1543,0.3808,-0.8887
-0.056,0.074,-0.026,12.9,-5.9,-5.4,0,2018,4,25,16,28,19.728,-0.2016,0.1525,0.3811,-0.8892
-0.069,0.079,-0.009,13.8,-6.3,-2,0,2018,4,25,16,28,19.732,-0.2002,0.1502,0.3823,-0.8894
-0.063,0.076,-0.031,12.5,-7.7,1.1,0,2018,4,25,16,28,19.749,-0.1994,0.1478,0.3835,-0.8895
-0.039,0.07,-0.073,14.6,-10.6,3.1,0,2018,4,25,16,28,19.767,-0.1988,0.1454,0.3854,-0.8892
