time_1,time_2,time_3,time_4,time_5,time_6,w,x,y,z,droll,dpitch,dyaw,ax,ay,az,heart
2018,5,10,16,21,53.121,-0.5375,0.2744,0.0435,0.7961,0,0,0,0.002,0.002,-0.005,0
2018,5,10,16,21,53.159,-0.5376,0.2743,0.0435,0.7961,0.3,-0.6,0.2,0.004,0,-0.005,0
2018,5,10,16,21,53.178,-0.5377,0.2742,0.0436,0.796,0,0,0,0,0.004,-0.009,0
2018,5,10,16,21,53.181,-0.5377,0.2742,0.0436,0.796,0,0,0,0.003,0.003,-0.005,0
2018,5,10,16,21,53.197,-0.5377,0.2741,0.0436,0.796,0.2,-0.5,0.1,0.003,0.003,-0.006,0
2018,5,10,16,21,53.234,-0.5378,0.2741,0.0437,0.796,0,0,0,0.002,0.003,-0.009,0
2018,5,10,16,21,53.253,-0.5377,0.2741,0.0438,0.796,0,0,0,0.001,0.002,-0.002,0
2018,5,10,16,21,53.26,-0.5377,0.2742,0.0439,0.796,0,0,0,0,0.001,-0.004,0
2018,5,10,16,21,53.296,-0.5378,0.2741,0.0439,0.796,-0.3,-0.5,-0.2,0.002,0.003,-0.006,1023
2018,5,10,16,21,53.317,-0.5379,0.2741,0.0438,0.7959,-0.3,-0.6,-0.3,0.001,0,-0.004,1023
2018,5,10,16,21,53.32,-0.538,0.2741,0.0437,0.7959,-0.2,-0.6,-0.2,0.004,0.001,-0.003,1023
2018,5,10,16,21,53.356,-0.5382,0.2739,0.0436,0.7958,0,0,0,0.005,0,-0.005,1023
2018,5,10,16,21,53.377,-0.5382,0.2739,0.0436,0.7958,0,0,0,0.006,-0.002,-0.005,1023
2018,5,10,16,21,53.382,-0.5383,0.2739,0.0436,0.7957,0.5,-0.3,0.2,0.002,-0.002,-0.008,1023
2018,5,10,16,21,53.419,-0.5384,0.2737,0.0436,0.7957,0.8,-0.1,0.5,0.004,0.003,-0.009,1023
2018,5,10,16,21,53.461,-0.5387,0.2734,0.0436,0.7956,0.7,0.1,0.4,0.003,0.004,-0.005,1023
2018,5,10,16,21,53.463,-0.5388,0.2733,0.0437,0.7956,0,0,0,0,0.003,-0.003,1023
2018,5,10,16,21,53.466,-0.5388,0.2734,0.0438,0.7956,0,0,0,0,0.001,-0.005,1023
2018,5,10,16,21,53.48,-0.5387,0.2735,0.0439,0.7955,0,0,0,0,0,-0.007,1023
2018,5,10,16,21,53.52,-0.5389,0.2733,0.0439,0.7955,0.6,0,0.2,0.003,0,-0.006,1023
2018,5,10,16,21,53.539,-0.5389,0.2733,0.044,0.7955,0.8,-0.2,0.3,0.004,0,-0.004,0
2018,5,10,16,21,53.542,-0.539,0.2731,0.0441,0.7954,0.6,-0.2,0.3,0.001,0.002,-0.009,0
2018,5,10,16,21,53.58,-0.5393,0.2728,0.044,0.7954,0.6,-0.6,0.3,0,0.003,-0.004,0
2018,5,10,16,21,53.599,-0.5395,0.2726,0.0441,0.7953,0.5,-0.7,0.1,0,0.005,-0.004,0
2018,5,10,16,21,53.602,-0.5397,0.2723,0.044,0.7953,0,-0.8,0,0.004,0.006,-0.002,0
2018,5,10,16,21,53.64,-0.54,0.2721,0.0438,0.7952,-0.3,-0.6,-0.2,0.006,0.001,-0.005,0
2018,5,10,16,21,53.66,-0.54,0.2721,0.0438,0.7952,-0.4,-0.6,-0.4,0.002,0.005,-0.008,0
2018,5,10,16,21,53.664,-0.5401,0.272,0.0436,0.7951,-0.6,-0.2,-0.3,0.004,0.003,0,0
2018,5,10,16,21,53.683,-0.5402,0.272,0.0435,0.795,-0.5,-0.2,-0.3,0.005,0,-0.001,0
2018,5,10,16,21,53.702,-0.5404,0.272,0.0433,0.7949,-0.8,0,-0.2,0,0.005,-0.004,0
2018,5,10,16,21,53.742,-0.5406,0.272,0.0432,0.7948,-0.7,-0.1,-0.3,0.003,0,-0.009,0
2018,5,10,16,21,53.762,-0.5409,0.272,0.043,0.7947,0,0,0,0,0.001,-0.007,0
2018,5,10,16,21,53.766,-0.5409,0.272,0.043,0.7946,0,0,0,0.002,-0.001,0,0
2018,5,10,16,21,53.783,-0.5409,0.2721,0.0431,0.7946,0,0,0,0.003,0,-0.007,0
2018,5,10,16,21,53.806,-0.5409,0.2722,0.0432,0.7946,0,0,0,-0.001,0.002,-0.006,0
2018,5,10,16,21,53.842,-0.5408,0.2722,0.0433,0.7946,0,0,0,0.004,0.001,-0.007,0
2018,5,10,16,21,53.862,-0.5408,0.2723,0.0434,0.7946,0,0,0,0,0.003,-0.007,0
2018,5,10,16,21,53.866,-0.5408,0.2724,0.0435,0.7946,0,0,0,0.001,0,-0.003,0
2018,5,10,16,21,53.907,-0.5407,0.2724,0.0435,0.7946,0,0,0,0.001,0.002,0,0
2018,5,10,16,21,53.911,-0.5407,0.2725,0.0436,0.7946,0,0,0,0.004,0,-0.008,0
2018,5,10,16,21,53.927,-0.5407,0.2726,0.0437,0.7945,0,0,0,0.003,0.001,0,0
2018,5,10,16,21,53.946,-0.5406,0.2726,0.0438,0.7945,0,0,0,0.001,0.004,-0.002,0
2018,5,10,16,21,53.967,-0.5406,0.2727,0.0439,0.7945,0,0,0,0.001,0.005,-0.008,0
2018,5,10,16,21,53.987,-0.5406,0.2727,0.044,0.7946,0,0,0,0.003,0.001,0,0
2018,5,10,16,21,54.023,-0.5405,0.2727,0.0441,0.7946,0,0,0,0.003,0.003,-0.002,0
2018,5,10,16,21,54.044,-0.5405,0.2728,0.0442,0.7946,0,0,0,0.002,0.002,-0.007,0
2018,5,10,16,21,54.048,-0.5405,0.2728,0.0443,0.7945,0,0,0,0.001,0,-0.004,1023
2018,5,10,16,21,54.067,-0.5406,0.2728,0.0443,0.7945,0,0,0,0.002,0,-0.004,1023
2018,5,10,16,21,54.105,-0.5406,0.2728,0.0443,0.7945,0,0,0,0.005,0,-0.004,1023
2018,5,10,16,21,54.125,-0.5406,0.2728,0.0443,0.7945,0,0,0,0.005,0,-0.002,1023
2018,5,10,16,21,54.13,-0.5406,0.2729,0.0444,0.7945,0,0,0,0.003,-0.001,-0.007,1023
2018,5,10,16,21,54.146,-0.5405,0.2729,0.0444,0.7945,0,0,0,0.003,-0.001,-0.011,1023
2018,5,10,16,21,54.183,-0.5405,0.273,0.0445,0.7944,0,0,0,0.004,0,-0.009,1023
2018,5,10,16,21,54.202,-0.5406,0.273,0.0446,0.7944,0.7,0.1,0.5,0,0.001,-0.005,1023
2018,5,10,16,21,54.206,-0.5407,0.2728,0.0447,0.7944,0.5,0,0.5,0,0.003,-0.005,1023
2018,5,10,16,21,54.244,-0.5409,0.2727,0.0447,0.7943,0.5,0.3,0.3,0.002,0.004,-0.006,1023
2018,5,10,16,21,54.264,-0.5409,0.2727,0.0448,0.7943,0.5,0.3,0.2,0,0.004,0.002,1023
2018,5,10,16,21,54.268,-0.5409,0.2727,0.0448,0.7943,0,0,0,0.005,0,-0.005,0
2018,5,10,16,21,54.289,-0.5409,0.2728,0.0449,0.7943,0,0,0,0.001,-0.001,-0.005,0
2018,5,10,16,21,54.308,-0.541,0.2727,0.045,0.7942,0.5,-0.3,0.2,0.001,0.001,-0.006,0
2018,5,10,16,21,54.344,-0.5411,0.2726,0.0451,0.7942,0,0,0,0.001,0.003,-0.002,0
2018,5,10,16,21,54.365,-0.5411,0.2726,0.0451,0.7942,0,0,0,0,0.003,-0.004,0
2018,5,10,16,21,54.37,-0.5412,0.2725,0.0451,0.7941,-0.3,-0.5,-0.1,0.008,0.004,0.001,0
2018,5,10,16,21,54.409,-0.5413,0.2724,0.045,0.7941,-0.6,-0.6,-0.2,0.005,0.001,-0.002,0
2018,5,10,16,21,54.413,-0.5415,0.2723,0.0448,0.794,-0.6,-0.4,-0.3,0.005,0.002,-0.002,0
2018,5,10,16,21,54.429,-0.5418,0.2721,0.0446,0.7939,0,0,0,0.002,0.002,-0.004,0
2018,5,10,16,21,54.448,-0.5418,0.2721,0.0446,0.7939,0,0,0,0.007,0.001,-0.003,0
2018,5,10,16,21,54.471,-0.5419,0.2722,0.0446,0.7938,-0.5,0,-0.2,0.003,0.001,-0.005,0
2018,5,10,16,21,54.489,-0.5419,0.2722,0.0446,0.7938,0,0,0,0.002,-0.001,-0.005,0
2018,5,10,16,21,54.527,-0.542,0.2723,0.0446,0.7937,0,0,0,0,-0.001,-0.004,0
2018,5,10,16,21,54.548,-0.5419,0.2723,0.0446,0.7937,0,0,0,0.002,-0.001,-0.005,0
2018,5,10,16,21,54.552,-0.5419,0.2724,0.0447,0.7937,0,0,0,0.001,0,-0.012,0
2018,5,10,16,21,54.589,-0.5419,0.2725,0.0448,0.7937,0.5,-0.2,0.3,0.001,0,-0.005,0
2018,5,10,16,21,54.61,-0.5419,0.2725,0.0448,0.7937,0,0,0,0.003,0.001,-0.007,0
2018,5,10,16,21,54.614,-0.542,0.2723,0.0449,0.7936,0.7,-0.1,0.2,0.005,0.002,-0.004,0
2018,5,10,16,21,54.63,-0.5423,0.2721,0.0448,0.7935,0,0,0,0.003,0.003,-0.009,0
2018,5,10,16,21,54.648,-0.5423,0.2721,0.0449,0.7935,0,0,0,0.003,0.005,-0.006,0
2018,5,10,16,21,54.687,-0.5422,0.2721,0.045,0.7936,0,0,0,0.002,0.001,-0.005,0
2018,5,10,16,21,54.706,-0.5422,0.2722,0.0451,0.7935,0,0,0,0,0,-0.007,0
2018,5,10,16,21,54.71,-0.5422,0.2723,0.0452,0.7935,0,0,0,-0.001,0.002,-0.013,0
2018,5,10,16,21,54.748,-0.5421,0.2723,0.0453,0.7935,0,0,0,0.003,0.003,-0.002,0
2018,5,10,16,21,54.77,-0.5421,0.2724,0.0454,0.7935,0,0,0,0.004,0.005,-0.007,0
2018,5,10,16,21,54.774,-0.5421,0.2724,0.0455,0.7935,0,0,0,0.003,0.003,-0.005,1023
2018,5,10,16,21,54.793,-0.5421,0.2724,0.0456,0.7935,0,0,0,0.001,0,-0.006,1023
2018,5,10,16,21,54.814,-0.542,0.2725,0.0457,0.7935,0,0,0,0,-0.001,-0.007,1023
2018,5,10,16,21,54.835,-0.5422,0.2724,0.0456,0.7935,-0.5,-0.2,-0.3,0.001,0.004,-0.007,1023
2018,5,10,16,21,54.854,-0.5424,0.2723,0.0453,0.7934,0,0,0,0.002,0.003,-0.007,1023
2018,5,10,16,21,54.872,-0.5425,0.2723,0.0453,0.7933,0,0,0,0.004,0,-0.005,1023
2018,5,10,16,21,54.893,-0.5424,0.2724,0.0454,0.7933,0,0,0,0.004,0,-0.002,1023
2018,5,10,16,21,54.912,-0.5424,0.2724,0.0454,0.7933,0,0,0,0.005,0,-0.005,1023
2018,5,10,16,21,54.932,-0.5424,0.2725,0.0455,0.7933,0,0,0,0.001,-0.005,-0.012,1023
2018,5,10,16,21,54.951,-0.5424,0.2726,0.0455,0.7933,0,0,0,0.001,-0.002,-0.007,1023
2018,5,10,16,21,54.989,-0.5424,0.2726,0.0456,0.7933,0,0,0,0.001,0.002,-0.002,1023
2018,5,10,16,21,55.01,-0.5424,0.2726,0.0457,0.7933,0,0,0,0.001,0.004,-0.004,0
2018,5,10,16,21,55.014,-0.5423,0.2727,0.0458,0.7933,0,0,0,0.002,0.003,-0.004,0
2018,5,10,16,21,55.035,-0.5423,0.2727,0.0458,0.7933,0,0,0,0.004,0,-0.005,0
2018,5,10,16,21,55.055,-0.5423,0.2728,0.0459,0.7933,0,0,0,0.003,0.001,-0.004,0
2018,5,10,16,21,55.091,-0.5423,0.2728,0.0459,0.7932,0,0,0,0.002,0,-0.005,0
2018,5,10,16,21,55.111,-0.5423,0.2729,0.046,0.7932,0,0,0,0.001,0.001,-0.003,0
2018,5,10,16,21,55.115,-0.5422,0.2729,0.0461,0.7932,0,0,0,0,0.002,-0.005,0
2018,5,10,16,21,55.133,-0.5422,0.273,0.0462,0.7932,0,0,0,0.003,0.003,0.001,0
2018,5,10,16,21,55.168,-0.5423,0.2729,0.0461,0.7932,-0.6,-0.1,-0.3,0.002,0.006,0.001,0
2018,5,10,16,21,55.188,-0.5426,0.2727,0.0458,0.793,-0.8,0,-0.3,0,0,-0.004,0
2018,5,10,16,21,55.191,-0.5429,0.2727,0.0456,0.7929,-0.5,0.1,-0.3,0.002,0,-0.005,0
2018,5,10,16,21,55.231,-0.543,0.2727,0.0454,0.7928,-0.5,0.3,-0.3,0.005,0,-0.005,0
2018,5,10,16,21,55.251,-0.5431,0.2727,0.0454,0.7927,-0.5,0.5,-0.3,0.002,0,-0.002,0
2018,5,10,16,21,55.254,-0.5435,0.2727,0.0452,0.7925,-0.2,0.8,-0.2,0.003,-0.002,-0.006,0
2018,5,10,16,21,55.292,-0.5435,0.2729,0.0452,0.7924,-0.5,0.7,-0.2,-0.001,-0.003,-0.005,0
2018,5,10,16,21,55.31,-0.5439,0.2728,0.045,0.7922,-0.3,0.8,0,0,-0.003,-0.007,0
2018,5,10,16,21,55.315,-0.544,0.2729,0.045,0.7921,0,0.5,0,0.001,0,-0.01,0
2018,5,10,16,21,55.334,-0.544,0.273,0.0451,0.7921,0,0.5,0.2,0.001,0,-0.004,0
2018,5,10,16,21,55.354,-0.544,0.273,0.0452,0.792,0,0,0,0.001,0,-0.002,0
2018,5,10,16,21,55.392,-0.5439,0.2731,0.0453,0.792,0,0,0,0.001,0,-0.005,0
2018,5,10,16,21,55.411,-0.5439,0.2732,0.0453,0.792,0,0,0,0.002,0.003,-0.003,0
2018,5,10,16,21,55.415,-0.5439,0.2732,0.0454,0.792,0,0,0,0.003,0.002,-0.004,0
2018,5,10,16,21,55.454,-0.5439,0.2733,0.0455,0.792,0.2,0.5,0.1,0.002,0,-0.006,0
2018,5,10,16,21,55.475,-0.5438,0.2734,0.0456,0.792,0,0,0,0.001,0,-0.005,0
2018,5,10,16,21,55.479,-0.5438,0.2734,0.0457,0.792,0,0,0,0,0.003,-0.01,0
2018,5,10,16,21,55.495,-0.5438,0.2735,0.0458,0.792,0,0,0,0.001,0.006,-0.007,0
2018,5,10,16,21,55.536,-0.5438,0.2736,0.0459,0.792,0,0,0,0,0.004,-0.007,0
2018,5,10,16,21,55.541,-0.5437,0.2736,0.046,0.792,0,0,0,0.001,0.004,-0.003,1023
2018,5,10,16,21,55.557,-0.5437,0.2736,0.046,0.792,0,0,0,0,0.001,-0.007,1023
2018,5,10,16,21,55.593,-0.5437,0.2737,0.0461,0.792,0,0,0,0.001,0.004,-0.009,1023
2018,5,10,16,21,55.613,-0.5439,0.2737,0.046,0.7918,-0.8,0.1,-0.3,0,0.002,-0.008,1023
2018,5,10,16,21,55.617,-0.5441,0.2736,0.0458,0.7917,-0.8,0.2,-0.3,0,0,-0.008,1023
2018,5,10,16,21,55.656,-0.5442,0.2737,0.0456,0.7916,-0.7,0.1,-0.1,0.004,0,-0.006,1023
2018,5,10,16,21,55.675,-0.5442,0.2738,0.0456,0.7916,0,0,0,0.001,-0.002,-0.004,1023
2018,5,10,16,21,55.679,-0.5442,0.2739,0.0456,0.7916,0,0,0,0.002,-0.006,-0.008,1023
2018,5,10,16,21,55.699,-0.5443,0.2738,0.0456,0.7915,0.7,0.2,0.3,0.006,0,-0.009,1023
2018,5,10,16,21,55.72,-0.5444,0.2738,0.0458,0.7914,0.6,0.3,0.3,0.004,0.005,-0.002,1023
2018,5,10,16,21,55.738,-0.5447,0.2736,0.0458,0.7913,0.2,0.8,0.2,0.002,0.003,-0.002,1023
2018,5,10,16,21,55.758,-0.5448,0.2737,0.046,0.7912,0,0.9,0.3,-0.001,0,-0.004,1023
2018,5,10,16,21,55.797,-0.5448,0.2738,0.0461,0.7912,0,0.6,0.1,-0.003,0.002,-0.008,0
2018,5,10,16,21,55.817,-0.545,0.2738,0.046,0.791,0,0,0,0,-0.002,-0.004,0
2018,5,10,16,21,55.821,-0.545,0.2738,0.0461,0.791,0,0,0,0.001,0.003,-0.003,0
2018,5,10,16,21,55.837,-0.545,0.2738,0.0462,0.791,0,0,0,-0.001,0.001,-0.005,0
2018,5,10,16,21,55.856,-0.5451,0.2738,0.0462,0.7909,0,0,0,-0.001,0.003,-0.006,0
2018,5,10,16,21,55.897,-0.5452,0.2738,0.0463,0.7909,0.2,-0.6,0,0,0.008,-0.003,0
2018,5,10,16,21,55.917,-0.5454,0.2736,0.0462,0.7908,-0.1,-0.6,-0.1,0.004,0.006,-0.002,0
2018,5,10,16,21,55.921,-0.5455,0.2734,0.0461,0.7908,-0.7,-0.7,-0.2,0.004,0.005,0,0
2018,5,10,16,21,55.938,-0.5457,0.2733,0.0459,0.7907,-0.6,-0.7,-0.2,0.004,0.001,-0.003,0
2018,5,10,16,21,55.96,-0.5458,0.2733,0.0457,0.7907,-0.5,-0.6,-0.5,0.003,0,-0.009,0
2018,5,10,16,21,55.98,-0.5459,0.2733,0.0456,0.7906,0,0,0,0.003,0,-0.008,0
2018,5,10,16,21,56.001,-0.5459,0.2733,0.0456,0.7906,0,0,0,0.001,0.002,-0.003,0
2018,5,10,16,21,56.039,-0.5459,0.2734,0.0457,0.7906,0,0,0,0,0,-0.007,0
2018,5,10,16,21,56.059,-0.5459,0.2735,0.0458,0.7906,0,0,0,0.002,0,-0.006,0
2018,5,10,16,21,56.063,-0.5458,0.2736,0.0458,0.7905,0,0,0,0.002,-0.002,-0.012,0
2018,5,10,16,21,56.079,-0.5458,0.2737,0.0459,0.7905,0,0,0,0.002,0,-0.005,0
2018,5,10,16,21,56.119,-0.5458,0.2737,0.0459,0.7905,0,0,0,0.002,0,-0.006,0
2018,5,10,16,21,56.124,-0.5459,0.2737,0.0459,0.7904,0.5,-0.2,0.3,0,-0.001,-0.005,0
2018,5,10,16,21,56.14,-0.546,0.2736,0.0461,0.7904,0.7,-0.2,0.3,0.001,0.001,-0.002,0
2018,5,10,16,21,56.178,-0.5461,0.2734,0.0462,0.7904,0.5,-0.2,0.4,0.001,0.004,-0.008,0
2018,5,10,16,21,56.198,-0.5461,0.2733,0.0463,0.7904,0.7,-0.4,0.3,0,0,-0.009,0
2018,5,10,16,21,56.201,-0.546,0.2733,0.0465,0.7905,0,0,0,0,0.003,-0.005,0
2018,5,10,16,21,56.235,-0.5461,0.2733,0.0465,0.7904,0,0,0,0.002,0.003,-0.003,0
2018,5,10,16,21,56.257,-0.5461,0.2733,0.0466,0.7904,0.5,-0.5,0,0,0.001,-0.004,0
2018,5,10,16,21,56.259,-0.546,0.2733,0.0467,0.7905,0,0,0,0.001,0.006,-0.002,0
2018,5,10,16,21,56.278,-0.5462,0.2731,0.0467,0.7904,0,0,0,0.001,0.002,-0.002,0
2018,5,10,16,21,56.298,-0.5461,0.2731,0.0467,0.7904,0,-0.7,-0.3,0.004,0.005,-0.005,0
2018,5,10,16,21,56.334,-0.5462,0.273,0.0466,0.7904,-0.4,-0.6,-0.4,0,0.002,-0.001,1023
2018,5,10,16,21,56.357,-0.5464,0.273,0.0464,0.7903,-0.7,-0.6,-0.5,0.002,0.002,-0.007,1023
2018,5,10,16,21,56.361,-0.5465,0.2729,0.0463,0.7903,-0.4,-0.5,-0.2,0.006,-0.003,-0.002,1023
2018,5,10,16,21,56.383,-0.5465,0.273,0.0463,0.7903,0,0,0,0.004,-0.001,-0.004,1023
2018,5,10,16,21,56.402,-0.5465,0.273,0.0463,0.7903,0,0,0,0.004,-0.005,-0.007,1023
2018,5,10,16,21,56.422,-0.5465,0.2731,0.0464,0.7902,0,0,0,0,-0.003,-0.008,1023
2018,5,10,16,21,56.444,-0.5466,0.273,0.0464,0.7902,0.7,0,0.3,0.003,0,-0.005,1023
2018,5,10,16,21,56.48,-0.5465,0.273,0.0466,0.7902,0,0,0,0,0.002,-0.009,1023
2018,5,10,16,21,56.5,-0.5465,0.2731,0.0467,0.7902,0,0,0,0.003,0.001,-0.005,1023
2018,5,10,16,21,56.504,-0.5465,0.2731,0.0468,0.7902,0,0,0,0.001,0,-0.004,1023
2018,5,10,16,21,56.544,-0.5466,0.2731,0.0468,0.7901,0.5,0.1,0.3,0,0.002,-0.004,1023
2018,5,10,16,21,56.564,-0.5467,0.273,0.047,0.7901,0.8,0,0.4,0,0.001,-0.005,1023
2018,5,10,16,21,56.568,-0.5468,0.2728,0.047,0.79,0.9,-0.1,0.3,0,0.001,-0.005,0
2018,5,10,16,21,56.584,-0.547,0.2726,0.0471,0.79,0.7,-0.4,0.3,0,0.001,-0.007,0
2018,5,10,16,21,56.602,-0.5471,0.2725,0.0472,0.79,0.6,-0.6,0.2,0,0.005,-0.004,0
2018,5,10,16,21,56.622,-0.547,0.2724,0.0474,0.79,0.2,-0.7,0,0.002,0.005,-0.003,0
2018,5,10,16,21,56.662,-0.5471,0.2722,0.0473,0.79,-0.1,-0.7,0,0.005,0.007,-0.002,0
2018,5,10,16,21,56.682,-0.5472,0.2721,0.0472,0.79,-0.5,-0.6,-0.2,0.002,0.002,-0.002,0
2018,5,10,16,21,56.687,-0.5474,0.272,0.047,0.7899,-0.3,-0.6,-0.4,0.003,0.004,-0.005,0
2018,5,10,16,21,56.705,-0.5476,0.2719,0.0469,0.7899,-0.3,-0.6,-0.3,0.006,0,-0.005,0
2018,5,10,16,21,56.725,-0.5476,0.2719,0.0468,0.7898,-0.5,-0.2,-0.4,0.004,0.003,-0.005,0
2018,5,10,16,21,56.763,-0.5478,0.2719,0.0467,0.7898,-0.5,0,-0.2,0.004,0.001,-0.006,0
2018,5,10,16,21,56.767,-0.5479,0.2718,0.0466,0.7896,-0.6,0,-0.1,0.004,0,-0.008,0
2018,5,10,16,21,56.784,-0.5479,0.2719,0.0466,0.7896,0,0,0,0.007,-0.001,-0.006,0
2018,5,10,16,21,56.803,-0.5479,0.272,0.0466,0.7896,0,0,0,0.002,-0.002,-0.006,0
2018,5,10,16,21,56.824,-0.5479,0.272,0.0467,0.7896,0,0,0,0.002,-0.002,-0.003,0
2018,5,10,16,21,56.844,-0.5479,0.2721,0.0468,0.7896,0,0,0,0.002,0.001,-0.005,0
2018,5,10,16,21,56.865,-0.5479,0.2722,0.0468,0.7896,0,0,0,0.002,0.001,-0.008,0
2018,5,10,16,21,56.902,-0.5479,0.2722,0.0469,0.7895,0.5,-0.1,0,0.004,0.002,-0.009,0
2018,5,10,16,21,56.922,-0.5478,0.2722,0.047,0.7895,0,0,0,0,0.004,-0.006,0
2018,5,10,16,21,56.926,-0.5478,0.2723,0.0471,0.7895,0,0,0,0.005,0.005,-0.008,0
2018,5,10,16,21,56.964,-0.5478,0.2723,0.0472,0.7895,0,0,0,0.001,0.001,-0.008,0
2018,5,10,16,21,56.984,-0.5478,0.2724,0.0473,0.7895,0,0,0,0,0.001,-0.006,0
2018,5,10,16,21,56.988,-0.5477,0.2724,0.0474,0.7895,0,0,0,0.001,0.001,-0.005,0
2018,5,10,16,21,57.005,-0.5477,0.2725,0.0474,0.7895,0,0,0,0.003,0,-0.003,0
2018,5,10,16,21,57.025,-0.5477,0.2725,0.0475,0.7895,0,0,0,0.004,0.005,-0.002,0
2018,5,10,16,21,57.046,-0.5477,0.2726,0.0476,0.7895,0,0,0,0.001,0.004,-0.006,0
2018,5,10,16,21,57.066,-0.5476,0.2726,0.0477,0.7895,0,0,0,0.001,0.003,-0.003,0
2018,5,10,16,21,57.086,-0.5476,0.2726,0.0477,0.7895,-0.5,-0.2,-0.3,0.003,0.002,-0.002,1023
2018,5,10,16,21,57.106,-0.5476,0.2727,0.0477,0.7895,-0.6,-0.2,-0.2,0,-0.002,-0.006,1023
2018,5,10,16,21,57.126,-0.5476,0.2728,0.0477,0.7895,0,0,0,0.003,-0.002,-0.002,1023
2018,5,10,16,21,57.148,-0.5476,0.2728,0.0477,0.7895,0,0,0,0.006,0,-0.012,1023
2018,5,10,16,21,57.168,-0.5476,0.2728,0.0477,0.7895,0,0,0,0.003,-0.002,-0.003,1023
2018,5,10,16,21,57.205,-0.5476,0.2729,0.0477,0.7895,0,0,0,0.004,0,-0.009,1023
2018,5,10,16,21,57.224,-0.5476,0.2729,0.0478,0.7895,0,0,0,0.005,-0.003,-0.006,1023
2018,5,10,16,21,57.228,-0.5476,0.2729,0.0479,0.7895,0.6,0.1,0.4,0.001,0,-0.006,1023
2018,5,10,16,21,57.267,-0.5478,0.2727,0.048,0.7894,0.5,0.1,0.5,0.001,0.004,-0.006,1023
2018,5,10,16,21,57.27,-0.5478,0.2727,0.0481,0.7894,0.5,0.3,0.4,0.001,0.001,-0.004,1023
2018,5,10,16,21,57.287,-0.5479,0.2726,0.0482,0.7893,0.5,0.3,0.4,0.003,0.002,-0.003,0
2018,5,10,16,21,57.324,-0.5478,0.2726,0.0483,0.7893,0,0,0,0.004,0,-0.003,0
2018,5,10,16,21,57.345,-0.548,0.2725,0.0483,0.7893,0.5,0,0.3,0.001,-0.001,-0.003,0
2018,5,10,16,21,57.347,-0.5482,0.2723,0.0483,0.7892,0,0,0,0,0,-0.007,0
2018,5,10,16,21,57.385,-0.5484,0.2722,0.0483,0.7891,0.5,-0.2,0,0.001,0.004,-0.007,0
2018,5,10,16,21,57.405,-0.5484,0.2722,0.0483,0.7891,0,-0.6,0,0.003,0.007,-0.005,0
2018,5,10,16,21,57.407,-0.5485,0.2721,0.0483,0.7891,-0.2,-0.5,-0.2,0.004,0.002,-0.007,0
2018,5,10,16,21,57.445,-0.5486,0.272,0.0482,0.789,-0.7,-0.4,-0.2,0.007,0.002,-0.002,0
2018,5,10,16,21,57.465,-0.5487,0.272,0.048,0.789,-0.8,-0.4,-0.3,0.006,0.001,-0.01,0
2018,5,10,16,21,57.469,-0.5488,0.2719,0.0478,0.7889,0,0,0,0.003,-0.001,-0.004,0
2018,5,10,16,21,57.487,-0.549,0.2719,0.0477,0.7889,0,0,0,0.005,0,-0.004,0
2018,5,10,16,21,57.528,-0.549,0.2719,0.0477,0.7888,-0.5,0,0,0.004,-0.002,-0.004,0
2018,5,10,16,21,57.547,-0.5491,0.2719,0.0477,0.7888,0,0,0,0.002,0.003,-0.008,0
2018,5,10,16,21,57.552,-0.549,0.272,0.0478,0.7888,0,0,0,0.002,0,-0.003,0
2018,5,10,16,21,57.572,-0.549,0.2721,0.0478,0.7888,0,0,0,0.001,0,-0.008,0
2018,5,10,16,21,57.592,-0.549,0.2722,0.0479,0.7887,0,0,0,0.002,0,-0.004,0
2018,5,10,16,21,57.61,-0.5489,0.2722,0.0479,0.7887,0,0,0,0.001,-0.002,-0.007,0
2018,5,10,16,21,57.63,-0.549,0.2723,0.0479,0.7887,0.5,-0.2,0.2,0.001,-0.001,-0.007,0
2018,5,10,16,21,57.651,-0.549,0.2722,0.048,0.7887,0.6,-0.1,0.3,0.002,0.003,-0.01,0
2018,5,10,16,21,57.671,-0.5491,0.2721,0.048,0.7886,0,0,0,0.004,0.003,-0.006,0
2018,5,10,16,21,57.689,-0.5491,0.2721,0.0481,0.7886,0,0,0,0.002,0.003,-0.007,0
2018,5,10,16,21,57.728,-0.5491,0.2721,0.0482,0.7886,0,0,0,0.001,0.004,-0.005,0
2018,5,10,16,21,57.747,-0.5491,0.2722,0.0482,0.7886,0,0,0,0.001,0.001,-0.006,0
2018,5,10,16,21,57.752,-0.549,0.2722,0.0483,0.7886,0,0,0,0.003,0.002,-0.005,0
2018,5,10,16,21,57.77,-0.549,0.2723,0.0484,0.7886,0,0,0,0.002,0.002,-0.005,0
2018,5,10,16,21,57.809,-0.549,0.2723,0.0484,0.7886,0,0,0,0.004,0.002,-0.001,0
2018,5,10,16,21,57.828,-0.549,0.2723,0.0485,0.7886,0,0,0,0.003,0.002,-0.003,1023
2018,5,10,16,21,57.832,-0.549,0.2723,0.0485,0.7886,0,0,0,0.001,0.001,-0.004,1023
2018,5,10,16,21,57.851,-0.5489,0.2724,0.0486,0.7886,0,0,0,0.002,0.001,-0.003,1023
2018,5,10,16,21,57.873,-0.5489,0.2724,0.0486,0.7886,0,0,0,0.002,0.002,-0.012,1023
2018,5,10,16,21,57.893,-0.549,0.2725,0.0486,0.7885,-0.5,0.2,-0.2,-0.001,0.001,-0.005,1023
2018,5,10,16,21,57.931,-0.549,0.2726,0.0485,0.7885,0,0,0,0.001,0,0,1023
2018,5,10,16,21,57.951,-0.549,0.2727,0.0486,0.7885,0,0,0,0.004,0.001,-0.004,1023
2018,5,10,16,21,57.955,-0.549,0.2727,0.0486,0.7885,0,0,0,0.003,0,-0.005,1023
2018,5,10,16,21,57.972,-0.549,0.2727,0.0486,0.7885,0,0,0,0.004,-0.002,-0.007,1023
2018,5,10,16,21,57.993,-0.549,0.2728,0.0486,0.7884,0,0,0,0.004,0,-0.005,1023
2018,5,10,16,21,58.012,-0.5491,0.2727,0.0487,0.7884,0.7,0.4,0.3,0,0.002,-0.005,1023
2018,5,10,16,21,58.052,-0.5492,0.2727,0.0488,0.7883,0.5,0.4,0.2,0,0.005,-0.005,0
2018,5,10,16,21,58.072,-0.5492,0.2727,0.0489,0.7883,0,0.6,0.1,0,0.004,0,0
2018,5,10,16,21,58.076,-0.5491,0.2729,0.0492,0.7883,-0.2,0.5,0.2,0,0.001,-0.007,0
2018,5,10,16,21,58.093,-0.5492,0.273,0.0492,0.7882,0.2,0.7,0,0.003,0,-0.002,0
2018,5,10,16,21,58.133,-0.5493,0.2729,0.0492,0.7882,0.3,0.5,0.2,0.001,0.002,-0.005,0
2018,5,10,16,21,58.154,-0.5493,0.273,0.0493,0.7881,0,0,0,0,0.002,-0.004,0
2018,5,10,16,21,58.158,-0.5493,0.273,0.0494,0.7881,0,0,0,0.002,0.001,-0.007,0
2018,5,10,16,21,58.176,-0.5493,0.2731,0.0494,0.7881,0,0,0,-0.001,0.001,-0.009,0
2018,5,10,16,21,58.197,-0.5492,0.2731,0.0495,0.7881,0,0,0,0.001,0.004,-0.003,0
2018,5,10,16,21,58.211,-0.5492,0.2731,0.0496,0.7881,0,0,0,0,0.002,-0.002,0
2018,5,10,16,21,58.25,-0.5493,0.2731,0.0495,0.7881,-0.5,-0.1,0,0.002,0.003,-0.005,0
2018,5,10,16,21,58.27,-0.5492,0.2732,0.0495,0.7881,-0.5,0,-0.1,0.002,-0.003,-0.001,0
2018,5,10,16,21,58.272,-0.5492,0.2733,0.0496,0.7881,0,0,0,0.004,0.003,-0.003,0
2018,5,10,16,21,58.31,-0.5492,0.2733,0.0496,0.7881,0,0,0,0.005,0,-0.005,0
2018,5,10,16,21,58.329,-0.5492,0.2733,0.0496,0.7881,-0.4,0.5,0,0.001,0,-0.006,0
2018,5,10,16,21,58.332,-0.5493,0.2734,0.0496,0.788,-0.5,0.6,0,0,-0.001,-0.008,0
2018,5,10,16,21,58.371,-0.5494,0.2735,0.0495,0.7879,0,0.6,0,0.001,0,-0.008,0
2018,5,10,16,21,58.389,-0.5495,0.2735,0.0495,0.7878,0,0,0,0,-0.001,-0.007,0
2018,5,10,16,21,58.394,-0.5495,0.2736,0.0495,0.7878,0,0,0,0.002,0,-0.006,0
2018,5,10,16,21,58.412,-0.5494,0.2736,0.0496,0.7878,0,0,0,0.001,0,-0.006,0
2018,5,10,16,21,58.432,-0.5494,0.2737,0.0496,0.7878,0,0,0,-0.001,0,-0.002,0
2018,5,10,16,21,58.473,-0.5494,0.2738,0.0497,0.7878,0,0,0,0,0.004,-0.007,0
2018,5,10,16,21,58.475,-0.5494,0.2738,0.0498,0.7878,0,0,0,0.002,0.003,-0.003,0
2018,5,10,16,21,58.512,-0.5494,0.2738,0.0498,0.7878,0,0,0,0.005,0,-0.008,0
2018,5,10,16,21,58.532,-0.5493,0.2739,0.0499,0.7878,0,0,0,0,0.001,-0.009,0
2018,5,10,16,21,58.535,-0.5493,0.2739,0.0499,0.7878,0,0,0,0.001,0.004,-0.007,0
2018,5,10,16,21,58.576,-0.5493,0.2739,0.05,0.7878,0,0,0,0,0.003,-0.004,1023
2018,5,10,16,21,58.597,-0.5493,0.274,0.05,0.7878,0,0,0,0,0.004,-0.006,1023
2018,5,10,16,21,58.6,-0.5493,0.274,0.05,0.7877,0,0,0,0,0.004,-0.008,1023
2018,5,10,16,21,58.618,-0.5493,0.274,0.0501,0.7877,-0.5,0,-0.3,0.002,0.002,-0.009,1023
2018,5,10,16,21,58.66,-0.5494,0.274,0.05,0.7876,-0.5,0,-0.4,0,0.004,-0.005,1023
2018,5,10,16,21,58.664,-0.5496,0.274,0.0498,0.7875,-0.8,0,-0.5,0.001,0,-0.002,1023
2018,5,10,16,21,58.68,-0.5499,0.2739,0.0496,0.7874,-0.7,-0.2,-0.2,0.002,-0.001,-0.008,1023
2018,5,10,16,21,58.697,-0.5498,0.274,0.0495,0.7874,0,0,0,0.005,-0.003,-0.004,1023
2018,5,10,16,21,58.733,-0.5498,0.274,0.0495,0.7874,0,0,0,0,-0.005,-0.009,1023
2018,5,10,16,21,58.753,-0.5498,0.2741,0.0495,0.7874,0.5,-0.2,0.2,0.002,0,-0.007,1023
2018,5,10,16,21,58.757,-0.5498,0.274,0.0496,0.7874,0.7,0,0.4,0.003,0.004,-0.006,1023
2018,5,10,16,21,58.777,-0.55,0.2738,0.0496,0.7874,0,0,0,0.002,0.002,-0.004,1023
2018,5,10,16,21,58.799,-0.55,0.2738,0.0497,0.7873,0.2,0.1,0.5,0,0.001,-0.005,0
2018,5,10,16,21,58.82,-0.55,0.2738,0.0498,0.7873,0,0,0,0,-0.002,-0.009,0
2018,5,10,16,21,58.84,-0.55,0.2739,0.0498,0.7873,0,0,0,0,0,-0.005,0
2018,5,10,16,21,58.877,-0.5501,0.2738,0.0498,0.7872,0.6,-0.2,0.3,0.001,0.002,-0.008,0
2018,5,10,16,21,58.899,-0.5503,0.2736,0.0498,0.7872,0.7,-0.4,0.4,0,0,-0.006,0
2018,5,10,16,21,58.904,-0.5505,0.2733,0.0498,0.7872,0.6,-0.7,0.2,-0.001,0,-0.001,0
2018,5,10,16,21,58.916,-0.5504,0.2732,0.0499,0.7872,0.8,-0.7,0.1,-0.001,0.002,-0.008,0
2018,5,10,16,21,58.955,-0.5505,0.273,0.05,0.7872,0.3,-0.9,0,0,0.008,0,0
2018,5,10,16,21,58.975,-0.5507,0.2728,0.0499,0.7872,-0.1,-0.7,-0.1,0.001,0.005,-0.004,0
2018,5,10,16,21,58.979,-0.5509,0.2726,0.0496,0.7871,-0.5,-0.6,-0.2,0.002,0.005,-0.006,0
2018,5,10,16,21,59,-0.551,0.2725,0.0495,0.7871,-0.5,-0.6,-0.3,0.002,0.003,-0.002,0
2018,5,10,16,21,59.02,-0.551,0.2725,0.0495,0.7871,0,0,0,0,0.001,-0.005,0
2018,5,10,16,21,59.057,-0.5511,0.2725,0.0495,0.787,0,0,0,0.004,0,-0.004,0
2018,5,10,16,21,59.077,-0.5511,0.2726,0.0495,0.787,0,0,0,0.004,0.001,-0.01,0
2018,5,10,16,21,59.081,-0.551,0.2726,0.0495,0.787,-0.5,0,-0.1,0,-0.002,-0.005,0
2018,5,10,16,21,59.119,-0.551,0.2727,0.0496,0.787,0,0,0,0.002,-0.003,-0.005,0
2018,5,10,16,21,59.123,-0.551,0.2728,0.0496,0.787,0,0,0,0.003,0,-0.005,0
2018,5,10,16,21,59.137,-0.551,0.2729,0.0497,0.787,0,0,0,0.003,0,-0.004,0
2018,5,10,16,21,59.16,-0.551,0.2729,0.0497,0.787,0,0,0,0.002,0.001,-0.004,0
2018,5,10,16,21,59.199,-0.5509,0.273,0.0498,0.787,0,0,0,0,0,-0.005,0
2018,5,10,16,21,59.217,-0.5509,0.273,0.0498,0.787,0,0,0,0.002,0.003,-0.005,0
2018,5,10,16,21,59.221,-0.5509,0.273,0.0499,0.787,0,0,0,0.004,0,-0.007,0
2018,5,10,16,21,59.242,-0.5509,0.2731,0.0499,0.787,0,0,0,0.002,-0.001,-0.008,0
2018,5,10,16,21,59.261,-0.5509,0.2731,0.05,0.7869,0,0,0,0,0,0,0
2018,5,10,16,21,59.297,-0.5509,0.2732,0.05,0.7869,0,0,0,0.005,0,-0.008,0
2018,5,10,16,21,59.318,-0.5508,0.2732,0.0501,0.7869,0,0,0,0,0,-0.005,0
2018,5,10,16,21,59.32,-0.5508,0.2732,0.0501,0.7869,0,0,0,0.001,0.002,-0.003,0
2018,5,10,16,21,59.337,-0.5508,0.2732,0.0502,0.7869,0,-0.5,-0.2,0.004,0.002,-0.006,1023
2018,5,10,16,21,59.36,-0.5508,0.2732,0.0502,0.7869,0,0,0,0.001,0.002,-0.007,1023
2018,5,10,16,21,59.395,-0.5509,0.2732,0.0501,0.7869,-0.6,-0.4,-0.3,0.004,0,0,1023
2018,5,10,16,21,59.416,-0.5509,0.2732,0.05,0.7869,0,0,0,0.002,0,0,1023
2018,5,10,16,21,59.421,-0.5509,0.2732,0.05,0.7869,0,0,0,0.007,-0.002,-0.004,1023
2018,5,10,16,21,59.455,-0.5509,0.2732,0.05,0.7869,0,0,0,0.004,0.004,-0.001,1023
2018,5,10,16,21,59.476,-0.5509,0.2732,0.0501,0.7869,0,0,0,0.004,0,-0.008,1023
2018,5,10,16,21,59.481,-0.5509,0.2733,0.0501,0.7869,0,0,0,0.005,0,-0.009,1023
2018,5,10,16,21,59.519,-0.551,0.2732,0.0501,0.7868,0.7,0.1,0.3,0.003,0,-0.001,1023
2018,5,10,16,21,59.538,-0.551,0.2731,0.0502,0.7868,0.6,0.3,0.3,0,0.003,-0.007,1023
2018,5,10,16,21,59.543,-0.5512,0.273,0.0502,0.7867,0,0,0,-0.002,0.002,-0.004,1023
2018,5,10,16,21,59.58,-0.5512,0.273,0.0502,0.7867,0,0,0,0.002,0,-0.002,0
2018,5,10,16,21,59.601,-0.5512,0.273,0.0503,0.7867,0,0,0,0.003,0,-0.003,0
2018,5,10,16,21,59.603,-0.5512,0.273,0.0503,0.7867,0,0,0,0.004,0.001,-0.009,0
2018,5,10,16,21,59.624,-0.5512,0.273,0.0504,0.7867,0.5,-0.1,0.3,0.004,0.002,-0.005,0
2018,5,10,16,21,59.642,-0.5513,0.2729,0.0504,0.7867,0.6,-0.2,0.2,0,0.003,-0.007,0
2018,5,10,16,21,59.662,-0.5513,0.2729,0.0505,0.7867,0.5,-0.2,0.1,-0.001,0.001,-0.005,0
2018,5,10,16,21,59.7,-0.5513,0.2729,0.0506,0.7867,0.2,-0.6,0,0.002,0.006,-0.001,0
2018,5,10,16,21,59.718,-0.5513,0.2728,0.0506,0.7867,-0.3,-0.6,-0.1,0.004,0.003,-0.003,0
2018,5,10,16,21,59.72,-0.5515,0.2726,0.0504,0.7867,-0.5,-0.3,-0.4,0.003,0.001,-0.004,0
2018,5,10,16,21,59.756,-0.5516,0.2726,0.0502,0.7866,-0.7,-0.3,-0.3,0,0.002,-0.003,0
2018,5,10,16,21,59.776,-0.5516,0.2726,0.0501,0.7866,0,0,0,0.004,0.002,-0.003,0
2018,5,10,16,21,59.784,-0.5518,0.2725,0.05,0.7865,0,0,0,0.006,0.002,-0.005,1023
2018,5,10,16,21,59.818,-0.552,0.2725,0.0498,0.7864,-0.5,0,-0.2,0.005,0.004,-0.007,1023
2018,5,10,16,21,59.838,-0.5521,0.2724,0.0497,0.7863,-0.5,0.1,-0.2,0.001,-0.001,-0.005,1023
2018,5,10,16,21,59.849,-0.5522,0.2725,0.0497,0.7863,0,0,0,0.003,-0.003,-0.007,1023
2018,5,10,16,21,59.867,-0.5522,0.2725,0.0497,0.7863,0,0,0,0.001,0,-0.009,1023
2018,5,10,16,21,59.886,-0.5521,0.2726,0.0497,0.7863,0,0,0,0.005,0.002,-0.002,1023
2018,5,10,16,21,59.906,-0.5521,0.2726,0.0498,0.7863,0,0,0,0.003,0,-0.003,1023
2018,5,10,16,21,59.925,-0.5521,0.2726,0.0498,0.7863,0.5,0,0.3,0.005,0,-0.005,1023
2018,5,10,16,21,59.946,-0.5522,0.2726,0.0499,0.7862,0.7,0.1,0.1,0.001,0,-0.004,1023
2018,5,10,16,21,59.966,-0.5522,0.2725,0.05,0.7862,0.5,0,0.2,0,0.007,-0.007,1023
2018,5,10,16,21,59.988,-0.5522,0.2725,0.0501,0.7862,0,0,0,0.002,0.002,-0.007,0
2018,5,10,16,22,0.008,-0.5522,0.2725,0.0502,0.7862,0,0,0,0.002,0.002,-0.005,0
2018,5,10,16,22,0.028,-0.5522,0.2726,0.0502,0.7862,0,0,0,0.002,0.002,-0.005,0
2018,5,10,16,22,0.048,-0.5522,0.2726,0.0503,0.7862,0,0,0,0.003,0,-0.011,0
2018,5,10,16,22,0.067,-0.5521,0.2726,0.0503,0.7862,0,0,0,0.002,0.004,0,0
2018,5,10,16,22,0.104,-0.5521,0.2726,0.0504,0.7862,0,0,0,0.004,0.006,-0.007,0
2018,5,10,16,22,0.125,-0.5521,0.2726,0.0505,0.7862,0,0,0,0.004,0.002,-0.007,0
2018,5,10,16,22,0.129,-0.5521,0.2727,0.0505,0.7862,0,0,0,0.001,0.002,-0.002,0
2018,5,10,16,22,0.147,-0.5521,0.2727,0.0505,0.7862,0,0,0,0.001,0,-0.002,0
2018,5,10,16,22,0.167,-0.5521,0.2727,0.0505,0.7862,-0.5,0,-0.1,0.004,0,-0.003,0
2018,5,10,16,22,0.189,-0.5521,0.2727,0.0506,0.7862,0,0,0,0.002,0.001,0,0
2018,5,10,16,22,0.209,-0.5521,0.2727,0.0506,0.7862,0,0,0,0.004,0.002,0,0
2018,5,10,16,22,0.246,-0.5521,0.2728,0.0506,0.7862,0,0,0,0.001,-0.002,-0.01,0
2018,5,10,16,22,0.251,-0.552,0.2728,0.0506,0.7862,0,0,0,0.005,-0.001,-0.005,0
2018,5,10,16,22,0.266,-0.5521,0.2728,0.0506,0.7862,0.6,-0.1,0.2,0,0,-0.009,0
2018,5,10,16,22,0.304,-0.5521,0.2727,0.0507,0.7861,0.5,0,0.3,0,0.001,-0.004,0
2018,5,10,16,22,0.323,-0.5522,0.2727,0.0507,0.7861,0,0,0,0.001,0.004,-0.001,0
2018,5,10,16,22,0.329,-0.5522,0.2727,0.0508,0.7861,0,0,0,0,0.001,-0.003,0
2018,5,10,16,22,0.345,-0.5522,0.2727,0.0509,0.7861,0,0,0,0.002,0.002,-0.004,0
2018,5,10,16,22,0.368,-0.5521,0.2727,0.0509,0.7861,0,0,0,0,0.001,-0.008,0
2018,5,10,16,22,0.387,-0.5521,0.2727,0.0509,0.7861,0,0,0,0.001,0.002,-0.009,0
2018,5,10,16,22,0.407,-0.5521,0.2728,0.051,0.7861,0,0,0,-0.002,0,-0.006,0
2018,5,10,16,22,0.441,-0.5522,0.2728,0.051,0.7861,0.1,-0.6,-0.4,-0.002,0.005,-0.005,0
2018,5,10,16,22,0.462,-0.5523,0.2727,0.051,0.786,0.1,-1,-0.5,-0.001,0.003,-0.004,0
2018,5,10,16,22,0.468,-0.5523,0.2726,0.051,0.7861,0.2,-1.3,-0.3,0,-0.002,-0.009,0
2018,5,10,16,22,0.506,-0.5524,0.2725,0.0509,0.786,1.1,-1,-0.2,0.001,-0.008,-0.008,0
2018,5,10,16,22,0.526,-0.5526,0.2722,0.0509,0.786,1.5,-0.8,0,0.002,-0.001,-0.005,0
2018,5,10,16,22,0.53,-0.5529,0.2718,0.051,0.7859,2.1,-0.7,0.3,0.006,-0.002,-0.004,0
2018,5,10,16,22,0.546,-0.5531,0.2713,0.0512,0.7859,3.2,-0.3,1.2,0.008,0,-0.012,0
2018,5,10,16,22,0.585,-0.5533,0.2709,0.0515,0.7859,3.3,0.4,2.4,-0.004,-0.007,-0.005,0
2018,5,10,16,22,0.606,-0.553,0.2709,0.0522,0.7861,2.1,1.8,3.9,-0.016,-0.017,0,0
2018,5,10,16,22,0.61,-0.5525,0.2712,0.0529,0.7863,3,3.6,6.1,-0.024,-0.028,-0.023,0
2018,5,10,16,22,0.629,-0.5517,0.2717,0.0543,0.7865,7.4,6.1,8.5,-0.016,-0.045,-0.026,0
2018,5,10,16,22,0.649,-0.5508,0.272,0.0568,0.7869,15.4,8.9,12.6,0,-0.053,-0.005,1023
2018,5,10,16,22,0.687,-0.5496,0.2717,0.0609,0.7876,21.9,11.4,18.4,0.05,-0.053,-0.003,1023
2018,5,10,16,22,0.708,-0.548,0.2707,0.066,0.7886,31,13,24.6,0.037,-0.068,0.021,1023
2018,5,10,16,22,0.712,-0.5456,0.2688,0.0731,0.7903,38.3,15.7,33.1,0.029,-0.034,0.035,1023
2018,5,10,16,22,0.732,-0.5424,0.2667,0.0817,0.7924,43.9,19,41,0.003,-0.07,0.021,1023
2018,5,10,16,22,0.751,-0.5376,0.265,0.0916,0.7951,29.9,21.5,51.5,0.022,0.25,-0.002,1023
2018,5,10,16,22,0.789,-0.5296,0.2669,0.0975,0.7991,9.4,28.4,61.6,-0.007,-0.095,-0.032,1023
2018,5,10,16,22,0.812,-0.519,0.2705,0.1028,0.8042,-45,30.8,81.9,-0.226,0.133,0.014,1023
2018,5,10,16,22,0.816,-0.5038,0.2801,0.1024,0.8106,-42.7,56.4,87.9,-0.114,-0.308,-0.025,1023
2018,5,10,16,22,0.83,-0.4893,0.287,0.1091,0.8162,1.2,50,93,-0.295,-0.158,0.039,1023
2018,5,10,16,22,0.851,-0.4756,0.2911,0.1204,0.8212,33.9,54.2,97.3,-0.241,-0.243,-0.001,1023
2018,5,10,16,22,0.872,-0.463,0.2929,0.1373,0.8251,64.1,60.6,98.5,-0.231,-0.155,-0.087,1023
2018,5,10,16,22,0.892,-0.4512,0.2938,0.1577,0.8277,78.9,65.7,96.3,-0.23,-0.059,-0.006,1023
2018,5,10,16,22,0.911,-0.4402,0.2928,0.1812,0.8292,107.5,63,98.2,-0.263,-0.114,0.043,1023
2018,5,10,16,22,0.952,-0.4299,0.2893,0.2083,0.8294,128.7,60.7,100.5,-0.298,-0.053,0.098,1023
2018,5,10,16,22,0.97,-0.42,0.2837,0.2376,0.8286,147.8,51.2,99.4,-0.321,-0.058,0.168,1023
2018,5,10,16,22,0.975,-0.4111,0.2749,0.2685,0.8265,165.7,44.2,97.5,-0.296,-0.156,0.088,1023
2018,5,10,16,22,0.995,-0.4038,0.2624,0.3031,0.8222,215.7,34.5,96.8,-0.337,-0.197,0.103,1023
2018,5,10,16,22,1.014,-0.3994,0.2439,0.3454,0.8133,287.8,24.9,92.7,-0.411,-0.3,0.082,1023
2018,5,10,16,22,1.053,-0.3989,0.217,0.3973,0.7973,374.2,8.4,89.5,-0.477,-0.314,0.054,0
2018,5,10,16,22,1.073,-0.4002,0.1838,0.4551,0.7738,401.5,4.4,84.5,-0.684,-0.142,-0.083,0
2018,5,10,16,22,1.077,-0.4001,0.1506,0.5089,0.747,362.1,4.7,82.4,-0.741,-0.043,-0.207,0
2018,5,10,16,22,1.115,-0.3952,0.1203,0.5533,0.7232,284.6,13.9,105.8,-0.765,0.164,-0.284,0
2018,5,10,16,22,1.119,-0.381,0.0957,0.5846,0.7098,149.9,32.1,148.5,-0.875,0.471,-0.274,0
2018,5,10,16,22,1.135,-0.3555,0.0767,0.5978,0.7143,-16.3,36.5,215.2,-1.103,0.555,0.011,0
2018,5,10,16,22,1.154,-0.3193,0.061,0.5903,0.7387,-168.1,27.9,277.4,-1.527,0.23,0.041,0
2018,5,10,16,22,1.174,-0.275,0.0427,0.5641,0.7773,-256.8,-9.8,341.9,-1.971,-0.382,-0.143,0
2018,5,10,16,22,1.195,-0.2246,0.0116,0.529,0.8182,-233.8,-72.8,418.8,-2.39,-0.908,-0.394,0
2018,5,10,16,22,1.215,-0.1666,-0.0377,0.495,0.8518,-162.8,-131.3,504.2,-2.654,-1.248,-0.74,0
2018,5,10,16,22,1.251,-0.0973,-0.102,0.4692,0.8717,-82.5,-150.9,580.2,-2.952,-1.105,-0.758,0
2018,5,10,16,22,1.27,-0.0177,-0.1758,0.4431,0.8788,-32.1,-179.5,648.9,-3.629,-1.443,-1.1,0
2018,5,10,16,22,1.276,0.0744,-0.2546,0.4226,0.8665,82.7,-174.1,719.7,-3.936,-1.659,-1.378,0
2018,5,10,16,22,1.315,0.1807,-0.3294,0.4052,0.8333,139.7,-137.4,777.1,-4.249,-1.808,-1.192,0
2018,5,10,16,22,1.336,0.2919,-0.3957,0.3756,0.7854,74.2,-103.7,804,-4.967,-2.101,-0.883,0
2018,5,10,16,22,1.34,0.3941,-0.4564,0.3246,0.7285,-22.1,-94.9,805.1,-5.429,-2.786,-1.446,0
2018,5,10,16,22,1.354,0.4796,-0.5148,0.258,0.662,-90.2,-116.7,780.4,-4.545,-3.543,-2.011,0
2018,5,10,16,22,1.391,0.5496,-0.5625,0.1874,0.5884,-59.5,-78.3,720.5,-4.305,-3.609,-1.546,0
2018,5,10,16,22,1.411,0.6062,-0.5923,0.119,0.5171,-86.7,-35.2,621.9,-4.566,-3.826,-1.644,0
2018,5,10,16,22,1.415,0.6489,-0.6069,0.0561,0.4554,7.3,25.5,513.4,-2.83,-4.469,-1.741,0
2018,5,10,16,22,1.455,0.6903,-0.5968,0.0037,0.4088,99.5,114.2,420.3,-1.882,-2.354,-1.374,0
2018,5,10,16,22,1.475,0.7255,-0.5748,-0.045,0.3756,82.1,128.6,352.9,-2.699,-0.956,-0.248,0
2018,5,10,16,22,1.479,0.7554,-0.5502,-0.0911,0.3437,109.7,143.1,370.5,-1.401,0.258,0.169,1023
2018,5,10,16,22,1.497,0.7926,-0.5575,-0.1484,0.197,-1726.7,-1126.1,1907.4,0.639,-15.053,-2.212,1023
2018,5,10,16,22,1.517,0.8177,-0.4766,-0.0381,0.3203,92.3,16.4,-476.5,0.875,16.78,-2.386,1023
2018,5,10,16,22,1.538,0.6572,-0.66,-0.0404,0.3615,-1563.4,-121.2,-388.7,-3.616,-8.118,0.307,1023
2018,5,10,16,22,1.559,0.5843,-0.7213,-0.004,0.3716,279.1,-338.3,-388.9,-4.459,1.041,1.244,1023
2018,5,10,16,22,1.594,0.6222,-0.6948,0.0865,0.3499,375.3,-312.7,-86.1,-3.053,6.685,-0.618,1023
2018,5,10,16,22,1.616,0.6229,-0.7043,0.1232,0.3172,-168,-248.8,60.8,-1.248,3.322,-1.134,1023
2018,5,10,16,22,1.62,0.5928,-0.7449,0.1192,0.2816,-227.2,-214.3,165.9,-0.794,-1.513,0.214,1023
2018,5,10,16,22,1.64,0.5785,-0.7721,0.1107,0.2384,-47.4,-191.3,93.6,-0.251,-3.161,-0.93,1023
2018,5,10,16,22,1.659,0.5734,-0.7831,0.1144,0.2114,-97.6,-117.1,-5.2,-0.328,-1.558,-2.024,1023
2018,5,10,16,22,1.695,0.5367,-0.8076,0.1203,0.2123,-277.8,-14.6,-125.5,0.494,-1.028,-1.822,1023
2018,5,10,16,22,1.715,0.4991,-0.8243,0.1292,0.2336,-134.4,53.4,-163,0.359,-0.99,-0.698,1023
2018,5,10,16,22,1.719,0.4886,-0.8211,0.1423,0.258,-5.5,52.1,-147.7,0.043,0.015,0.364,1023
2018,5,10,16,22,1.739,0.4863,-0.8147,0.1578,0.2733,54.8,35.2,-120.1,-0.975,1.456,0.083,1023
2018,5,10,16,22,1.759,0.4778,-0.8115,0.173,0.2883,-61.9,9,-78.8,0.3,1.789,-0.011,1023
2018,5,10,16,22,1.794,0.4568,-0.8175,0.1774,0.3022,-105.3,10.3,-20.4,0.999,0.737,-0.127,1023
2018,5,10,16,22,1.814,0.45,-0.8189,0.1727,0.3113,25.7,41.5,23.9,0.661,0.024,0.108,0
2018,5,10,16,22,1.821,0.4734,-0.8057,0.1662,0.3144,167.4,65.9,51.2,-0.899,0.52,0.629,0
2018,5,10,16,22,1.86,0.5101,-0.7873,0.1572,0.3082,160.5,25.8,82,-1.644,0.666,1.004,0
2018,5,10,16,22,1.864,0.5055,-0.8119,0.1074,0.2713,-183.5,-23.4,94.4,0.344,0.181,-0.384,0
2018,5,10,16,22,1.88,0.4778,-0.8314,0.0891,0.269,-183.3,-16.3,103,1.252,-0.122,-0.477,0
2018,5,10,16,22,1.901,0.4693,-0.8396,0.0671,0.2647,-34.6,37.8,100.7,0.072,-0.251,-0.255,0
2018,5,10,16,22,1.921,0.4706,-0.8408,0.0468,0.2631,-32.8,44.3,98,-0.051,-0.098,-0.052,0
2018,5,10,16,22,1.941,0.4717,-0.8417,0.0247,0.2615,-17.3,51.9,101.3,-0.151,-0.16,-0.092,0
2018,5,10,16,22,1.961,0.4789,-0.8389,0.0021,0.2582,24.2,49,105.6,-0.493,0.065,0.192,0
2018,5,10,16,22,1.981,0.4952,-0.8317,-0.0173,0.2503,82.1,10.1,92.8,-0.724,-0.075,0.272,0
2018,5,10,16,22,2.021,0.5155,-0.8228,-0.0304,0.2372,87.9,-24.7,89,-0.475,0.091,0.047,0
2018,5,10,16,22,2.042,0.5263,-0.8193,-0.0398,0.2238,19.9,-34.1,89.2,0.035,0.287,-0.218,0
2018,5,10,16,22,2.046,0.523,-0.8237,-0.0519,0.2125,-69.2,-19.3,98.6,0.27,0.225,-0.287,0
2018,5,10,16,22,2.064,0.5113,-0.832,-0.0697,0.2034,-106.6,7.9,99.1,0.189,0.04,-0.242,0
2018,5,10,16,22,2.084,0.4972,-0.8399,-0.0911,0.1974,-112.2,32.3,99.9,0.09,0.075,-0.137,1023
2018,5,10,16,22,2.1,0.4823,-0.8468,-0.1148,0.1925,-119.7,33,105.2,-0.053,0.036,0.006,1023
2018,5,10,16,22,2.12,0.4706,-0.8514,-0.1396,0.1844,-98.8,21.3,111.1,-0.184,-0.097,0.147,1023
2018,5,10,16,22,2.158,0.465,-0.8522,-0.1627,0.1757,-49.6,16.3,111.3,-0.133,-0.162,0.117,1023
2018,5,10,16,22,2.179,0.4658,-0.849,-0.1838,0.1681,-11.3,15.1,111.9,-0.085,-0.056,0.024,1023
2018,5,10,16,22,2.183,0.4664,-0.8452,-0.2049,0.1607,-25.8,20.7,117.6,-0.026,0.133,-0.144,1023
2018,5,10,16,22,2.203,0.4603,-0.8441,-0.2285,0.1524,-65.5,28.3,125.5,-0.028,0.105,-0.25,1023
2018,5,10,16,22,2.224,0.4506,-0.8435,-0.2545,0.1433,-76.6,34.7,129.4,-0.101,-0.087,-0.201,1023
2018,5,10,16,22,2.245,0.443,-0.8408,-0.2802,0.1349,-48.6,33.5,125.5,-0.131,-0.244,-0.138,1023
2018,5,10,16,22,2.264,0.4425,-0.834,-0.3031,0.1289,6.9,30.3,116.1,-0.106,-0.474,-0.188,1023
2018,5,10,16,22,2.284,0.4562,-0.8206,-0.3189,0.1288,150.8,15,76.4,0.027,-1.196,-0.061,1023
2018,5,10,16,22,2.303,0.483,-0.8006,-0.3252,0.1407,174.1,34,20.4,-0.162,-0.321,0.066,0
2018,5,10,16,22,2.342,0.505,-0.7845,-0.3257,0.1524,125.3,21.3,-4.4,0.015,-0.048,0.163,0
2018,5,10,16,22,2.363,0.5171,-0.7749,-0.3249,0.1624,57.4,21.7,-13.8,0.019,0.251,0.216,0
2018,5,10,16,22,2.364,0.5198,-0.7714,-0.3254,0.169,9.2,19.9,-5.8,0.068,0.206,0.179,0
2018,5,10,16,22,2.381,0.5205,-0.7691,-0.3279,0.173,-1.5,15.7,7.7,0.059,0.171,0.244,0
2018,5,10,16,22,2.401,0.5197,-0.7677,-0.3317,0.1743,-27.5,9.5,15.9,0.037,0.12,0.224,0
2018,5,10,16,22,2.436,0.5161,-0.7684,-0.3369,0.1721,-46.9,2.6,18.8,-0.019,-0.056,0.139,0
2018,5,10,16,22,2.456,0.5113,-0.7702,-0.3418,0.1684,-48.2,-0.9,13.8,-0.04,-0.198,0.032,0
2018,5,10,16,22,2.463,0.5061,-0.7728,-0.3454,0.1649,-50.1,-3.5,1.8,-0.004,-0.166,-0.002,0
2018,5,10,16,22,2.5,0.4996,-0.7768,-0.3471,0.1623,-58.7,-3.1,-9.7,0,-0.039,0.043,0
2018,5,10,16,22,2.523,0.4903,-0.7827,-0.3484,0.1591,-82,-3,-15.5,-0.025,0.051,0.072,0
2018,5,10,16,22,2.526,0.4785,-0.7903,-0.3499,0.1546,-92.2,-5.2,-14.6,-0.032,0.038,0.061,0
2018,5,10,16,22,2.561,0.4664,-0.7978,-0.3513,0.1497,-86.9,-7.4,-11.3,0.013,0.026,0.037,0
2018,5,10,16,22,2.583,0.455,-0.8047,-0.3527,0.1448,-81.1,-8.7,-8.8,0.043,0.031,-0.008,0
2018,5,10,16,22,2.588,0.4436,-0.8112,-0.3542,0.1399,-79.7,-8.1,-7.2,0.04,0.042,-0.052,0
2018,5,10,16,22,2.604,0.4319,-0.8176,-0.3559,0.1348,-80.2,-6.3,-6.6,0.031,0.033,-0.064,0
2018,5,10,16,22,2.624,0.4207,-0.8234,-0.3576,0.1301,-73.6,-5.1,-5.7,0.022,-0.031,-0.04,0
2018,5,10,16,22,2.643,0.4116,-0.8279,-0.3591,0.1263,-55,-4.4,-5.3,0.02,-0.028,-0.027,0
2018,5,10,16,22,2.681,0.405,-0.831,-0.3604,0.1235,-37.2,-3.5,-4.8,0.022,0.004,-0.051,0
2018,5,10,16,22,2.702,0.4008,-0.8328,-0.3615,0.1222,-16.9,-1.5,-3,0.028,0.02,-0.051,0
2018,5,10,16,22,2.706,0.3991,-0.8332,-0.3626,0.1221,-2.7,0.3,-1,0.03,0.025,-0.039,0
2018,5,10,16,22,2.727,0.3989,-0.8327,-0.3638,0.1228,5.5,1.3,1.1,0.013,0.004,-0.016,0
2018,5,10,16,22,2.748,0.4003,-0.8312,-0.3653,0.1238,13,2,3.6,-0.003,-0.012,0.015,1023
2018,5,10,16,22,2.767,0.4027,-0.8291,-0.3668,0.1253,17.7,2.3,4.7,-0.001,-0.018,0.024,1023
2018,5,10,16,22,2.807,0.4053,-0.8269,-0.3683,0.1269,14.9,2.3,4.2,-0.002,-0.019,0.029,1023
2018,5,10,16,22,2.827,0.4073,-0.8251,-0.3697,0.1282,9.1,1.7,2.4,-0.006,-0.02,0.042,1023
2018,5,10,16,22,2.831,0.4084,-0.8239,-0.3709,0.1292,4.4,0,1.4,0.005,-0.016,0.038,1023
2018,5,10,16,22,2.846,0.409,-0.8231,-0.3718,0.1298,0.9,-1.2,0.3,0.022,-0.001,0.03,1023
2018,5,10,16,22,2.883,0.4089,-0.8227,-0.3727,0.1301,-3.8,-2.3,-0.3,0.016,0.004,0.029,1023
2018,5,10,16,22,2.903,0.408,-0.8228,-0.3735,0.1299,-8.6,-2.5,-0.8,0.015,0.007,0.009,1023
2018,5,10,16,22,2.907,0.4065,-0.8232,-0.3745,0.1296,-11,-1.6,-1,0.042,0.013,0,1023
2018,5,10,16,22,2.946,0.4046,-0.8237,-0.3755,0.1293,-11,-0.4,-1,0.021,0.009,-0.007,1023
2018,5,10,16,22,2.967,0.4031,-0.8239,-0.3766,0.1293,-6.5,0.2,0,0.017,0.005,0,1023
2018,5,10,16,22,2.972,0.4023,-0.8237,-0.3778,0.1296,-1.1,0.4,0.7,0.02,0,-0.001,1023
2018,5,10,16,22,2.988,0.4021,-0.8232,-0.3788,0.1302,2.7,0.7,1,0.012,0.006,0,0
2018,5,10,16,22,3.009,0.4025,-0.8224,-0.3799,0.131,4.4,0.5,0.7,0.013,0.011,0.002,0
2018,5,10,16,22,3.029,0.4028,-0.8217,-0.3808,0.1319,2.8,-0.2,0.6,0.027,0.004,0.01,0
2018,5,10,16,22,3.049,0.4029,-0.8212,-0.3816,0.1326,2.2,0.1,0.3,0.013,-0.003,0.01,0
2018,5,10,16,22,3.071,0.4033,-0.8204,-0.3826,0.1333,3.8,0.3,0.8,0.003,-0.011,0.012,0
2018,5,10,16,22,3.086,0.4038,-0.8196,-0.3835,0.1341,3.5,0.5,0.9,0.001,0,0.017,0
2018,5,10,16,22,3.122,0.404,-0.8189,-0.3845,0.1346,1.2,0.1,0.4,-0.007,0.003,0.008,0
2018,5,10,16,22,3.143,0.4038,-0.8186,-0.3853,0.1352,0.9,0.5,-0.8,0.004,0.001,0.002,0
2018,5,10,16,22,3.149,0.4036,-0.8182,-0.386,0.1359,1.3,0,-0.7,0.009,0.006,0.009,0
2018,5,10,16,22,3.187,0.4035,-0.8178,-0.3868,0.1365,0,0,0,0.019,0.012,0.013,0
2018,5,10,16,22,3.209,0.4032,-0.8174,-0.3877,0.1371,-0.5,0,0.8,0.013,-0.002,0.014,0
2018,5,10,16,22,3.213,0.403,-0.817,-0.3887,0.1375,-1.4,-0.4,1,0.008,0,0.015,0
2018,5,10,16,22,3.231,0.4026,-0.8166,-0.3897,0.1377,-2.2,-0.5,0.3,0.004,0.002,0.008,0
2018,5,10,16,22,3.268,0.402,-0.8165,-0.3905,0.138,-3,-0.4,0,0.006,0,0.014,0
2018,5,10,16,22,3.288,0.4014,-0.8164,-0.3914,0.1382,-3.9,-0.6,0,0.008,0,0.013,0
2018,5,10,16,22,3.292,0.4006,-0.8163,-0.3923,0.1383,-4,-0.2,-0.6,0.003,0.002,0.012,0
2018,5,10,16,22,3.308,0.3998,-0.8163,-0.3931,0.1386,-3.3,-0.2,-0.8,0.009,0.004,0.004,0
2018,5,10,16,22,3.347,0.3991,-0.8162,-0.3938,0.1389,-1.4,-0.1,-0.3,0.015,0.001,-0.003,0
2018,5,10,16,22,3.366,0.3988,-0.8159,-0.3946,0.1394,1.1,0,0,0.007,0.004,0.003,0
2018,5,10,16,22,3.369,0.3988,-0.8153,-0.3955,0.14,2.8,0.3,0.1,0.01,0.003,0.009,0
2018,5,10,16,22,3.406,0.399,-0.8148,-0.3962,0.1408,3.3,0,0.8,0.012,0.003,0.002,0
2018,5,10,16,22,3.427,0.3992,-0.8141,-0.397,0.1415,3.4,0.3,1.1,0.008,0.002,0.006,0
2018,5,10,16,22,3.429,0.3993,-0.8135,-0.3979,0.1421,2.2,0.3,0.2,0.004,-0.001,0.016,1023
2018,5,10,16,22,3.468,0.3992,-0.8131,-0.3987,0.1427,0,0,0,0.01,-0.001,0.012,1023
2018,5,10,16,22,3.489,0.3989,-0.8128,-0.3995,0.1432,-1.1,-0.6,0,0.005,0.004,0.011,1023
2018,5,10,16,22,3.506,0.3985,-0.8126,-0.4002,0.1435,-1.9,-0.6,-0.2,0.007,0.006,0.008,1023
2018,5,10,16,22,3.524,0.3979,-0.8124,-0.4009,0.1438,-1.4,-0.1,-0.2,0.003,0.006,0.001,1023
2018,5,10,16,22,3.534,0.3975,-0.8122,-0.4016,0.1442,0,0,0,0.006,0.003,0.004,1023
2018,5,10,16,22,3.572,0.3972,-0.8119,-0.4024,0.1447,1.3,0.1,0,0.009,0.001,0.002,1023
2018,5,10,16,22,3.574,0.3972,-0.8114,-0.4031,0.1453,2.1,0,0.3,0.009,0,0.005,1023
2018,5,10,16,22,3.591,0.3972,-0.8109,-0.404,0.1459,1.6,0.3,0,0.004,0.002,0.01,1023
2018,5,10,16,22,3.61,0.397,-0.8105,-0.4047,0.1465,0,0,0,0.008,-0.001,0.007,0
2018,5,10,16,22,3.63,0.3967,-0.8103,-0.4053,0.147,0.3,-0.7,0.3,0.008,0,0.007,0
2018,5,10,16,22,3.667,0.3966,-0.8099,-0.4061,0.1474,0.6,-0.2,0.4,0,0.007,0.007,0
2018,5,10,16,22,3.688,0.3963,-0.8096,-0.4068,0.1478,0.5,0.4,-0.1,0.008,0.002,0.003,0
2018,5,10,16,22,3.691,0.396,-0.8092,-0.4076,0.1483,0.7,0.1,0,0.009,-0.001,0.007,0
2018,5,10,16,22,3.728,0.3958,-0.8089,-0.4082,0.1489,0.7,-0.1,0,0.003,0.004,0.009,0
2018,5,10,16,22,3.749,0.3956,-0.8086,-0.4089,0.1494,0,0,0,0.007,0.004,0.006,0
2018,5,10,16,22,3.752,0.3953,-0.8083,-0.4097,0.1498,-0.8,0,0.4,0.007,0.003,0.01,0
2018,5,10,16,22,3.791,0.3948,-0.808,-0.4105,0.1501,-1.2,0,0.5,0.002,0.004,0.007,0
2018,5,10,16,22,3.793,0.3943,-0.8078,-0.4113,0.1505,-0.9,0,0,0.003,0.004,0,0
2018,5,10,16,22,3.811,0.394,-0.8075,-0.412,0.1509,0,0,0,0.008,0.004,0.007,0
2018,5,10,16,22,3.85,0.3937,-0.8072,-0.4128,0.1513,0,0,0,0.005,0.003,0.005,0
2018,5,10,16,22,3.872,0.3933,-0.8069,-0.4135,0.1517,0,0,0,0.005,0.003,0.008,0
2018,5,10,16,22,3.874,0.393,-0.8066,-0.4142,0.1522,0,0,0,0.005,0.004,0.006,0
2018,5,10,16,22,3.893,0.3927,-0.8064,-0.4148,0.1527,0,0,0,0.006,0.003,0.008,0
2018,5,10,16,22,3.913,0.3924,-0.806,-0.4156,0.1531,0,0,0,0.004,0.005,0.003,0
2018,5,10,16,22,3.952,0.3921,-0.8058,-0.4162,0.1535,0,0,0,0.004,0.003,0.006,0
2018,5,10,16,22,3.973,0.3917,-0.8055,-0.4169,0.154,0.5,0,0,0.005,0.003,0.006,0
2018,5,10,16,22,3.977,0.3915,-0.8052,-0.4175,0.1544,0.8,-0.2,-0.2,0.005,0.001,0.008,0
2018,5,10,16,22,3.992,0.3912,-0.8049,-0.4181,0.1549,0,0,0,0.005,0.004,0.004,0
2018,5,10,16,22,4.028,0.3909,-0.8047,-0.4188,0.1554,0,0,0,0.004,0.006,0.006,0
2018,5,10,16,22,4.049,0.3906,-0.8044,-0.4195,0.1558,0,0,0,0.006,0.001,0.008,0
2018,5,10,16,22,4.054,0.3903,-0.8041,-0.4202,0.1562,0.5,0,0,0.003,0.005,0.006,0
2018,5,10,16,22,4.074,0.39,-0.8038,-0.4208,0.1567,0,0,0,0.003,0.005,0.01,1023
2018,5,10,16,22,4.094,0.3897,-0.8036,-0.4214,0.1571,0,0,0,0.005,0.003,0.008,1023
2018,5,10,16,22,4.133,0.3894,-0.8033,-0.422,0.1576,0,0,0,0.002,0.002,0.009,1023
2018,5,10,16,22,4.152,0.389,-0.8031,-0.4226,0.158,-0.5,0,0,0.001,0.002,0.008,1023
2018,5,10,16,22,4.156,0.3886,-0.8029,-0.4232,0.1584,0,0,0,0.004,0.004,0.004,1023
2018,5,10,16,22,4.178,0.3882,-0.8026,-0.4239,0.1589,0.5,-0.1,0.3,0.01,0.003,0.003,1023
2018,5,10,16,22,4.197,0.388,-0.8023,-0.4246,0.1593,0.5,0.1,0.5,0.001,0.007,0.002,1023
2018,5,10,16,22,4.234,0.3876,-0.802,-0.4252,0.1597,-1.5,0,-0.1,0.003,0.015,0.002,1023
2018,5,10,16,22,4.256,0.3873,-0.8017,-0.426,0.16,0,0,0,0.006,-0.002,0,1023
2018,5,10,16,22,4.26,0.387,-0.8015,-0.4266,0.1604,0.5,-0.4,0,0.003,0.004,0.01,1023
2018,5,10,16,22,4.28,0.3867,-0.8012,-0.4272,0.1608,0,0,0,0.002,0.002,0.007,1023
2018,5,10,16,22,4.3,0.3863,-0.801,-0.4278,0.1612,-0.8,0,0.1,0.005,0.002,0.005,0
2018,5,10,16,22,4.317,0.3859,-0.8008,-0.4285,0.1615,-0.5,0,0,0,0.005,0.003,0
2018,5,10,16,22,4.337,0.3855,-0.8006,-0.4291,0.1619,0,0,0,0.002,0.006,0.009,0
2018,5,10,16,22,4.374,0.3851,-0.8004,-0.4296,0.1623,0,0,0,0.003,0.002,0.004,0
2018,5,10,16,22,4.394,0.3848,-0.8001,-0.4302,0.1627,0.5,0.1,0.3,0.004,0,0.003,0
2018,5,10,16,22,4.397,0.3846,-0.7998,-0.4309,0.1632,0.8,0.1,0,0,0.003,0.006,0
2018,5,10,16,22,4.435,0.3844,-0.7995,-0.4314,0.1637,1,0.3,0.1,0,0.005,0.008,0
2018,5,10,16,22,4.455,0.3841,-0.7992,-0.432,0.1642,0,0,0,0.005,0.004,0.006,0
2018,5,10,16,22,4.458,0.3838,-0.7989,-0.4327,0.1646,0,0,0,0.002,0.003,0.007,0
2018,5,10,16,22,4.496,0.3835,-0.7987,-0.4333,0.165,0,0,0,0.002,0.002,0.007,0
2018,5,10,16,22,4.499,0.383,-0.7985,-0.4338,0.1653,-0.8,-0.1,0,0.005,0.004,0.004,0
2018,5,10,16,22,4.518,0.3826,-0.7984,-0.4343,0.1656,-0.7,-0.1,0,0.001,0.002,0.003,0
2018,5,10,16,22,4.555,0.3822,-0.7982,-0.4348,0.166,0,0,0,0.004,0.004,0.003,0
2018,5,10,16,22,4.576,0.3819,-0.798,-0.4354,0.1664,0.8,0,-0.1,0.005,0.002,0.007,0
2018,5,10,16,22,4.58,0.3817,-0.7977,-0.4359,0.1669,1.1,0,0.2,0.002,0.002,0.007,0
2018,5,10,16,22,4.599,0.3815,-0.7974,-0.4365,0.1673,0.6,-0.1,0.2,0,0.002,0.008,0
2018,5,10,16,22,4.619,0.3812,-0.7971,-0.437,0.1677,0,0,0,0.002,0.003,0.007,0
2018,5,10,16,22,4.639,0.3809,-0.7969,-0.4376,0.168,0,0,0,0.001,0.002,0.009,0
2018,5,10,16,22,4.66,0.3805,-0.7967,-0.4381,0.1684,-1,-0.2,0,0.002,0.004,0.008,0
2018,5,10,16,22,4.68,0.38,-0.7966,-0.4387,0.1687,0,0,0,0,0.006,0.003,0
2018,5,10,16,22,4.72,0.3797,-0.7963,-0.4393,0.169,0,0,0,0.002,0.008,0,0
2018,5,10,16,22,4.724,0.3794,-0.796,-0.4399,0.1694,0.6,0.1,0.3,0.001,0.003,0.006,0
2018,5,10,16,22,4.739,0.3791,-0.7957,-0.4405,0.1698,0,0,0,0,0.003,0.005,1023
2018,5,10,16,22,4.76,0.3789,-0.7955,-0.4411,0.1701,0,0,0,0.001,0.004,0.008,1023
2018,5,10,16,22,4.78,0.3785,-0.7952,-0.4416,0.1705,0,0,0,0.003,0.007,0.003,1023
2018,5,10,16,22,4.818,0.3782,-0.795,-0.4422,0.1709,0,0,0,0,0.004,0.003,1023
2018,5,10,16,22,4.837,0.3779,-0.7948,-0.4427,0.1712,0,0,0,0.003,0.001,0,1023
2018,5,10,16,22,4.842,0.3775,-0.7946,-0.4433,0.1716,0,0,0,0.001,0.006,0,1023
2018,5,10,16,22,4.88,0.3772,-0.7944,-0.4438,0.1719,0,0,0,0.001,0.008,0.011,1023
2018,5,10,16,22,4.885,0.3768,-0.7942,-0.4444,0.1722,-0.5,-0.1,0.2,0.01,-0.004,0.008,1023
2018,5,10,16,22,4.901,0.3765,-0.794,-0.4449,0.1726,0,0,0,0,0.005,0.006,1023
2018,5,10,16,22,4.936,0.3762,-0.7938,-0.4454,0.1729,0,0,0,0.001,0.004,0.008,1023
2018,5,10,16,22,4.958,0.3758,-0.7936,-0.4458,0.1733,0,0,0,0,0.006,0.01,1023
2018,5,10,16,22,4.962,0.3754,-0.7934,-0.4464,0.1736,0,0,0,0.005,0.003,0.004,1023
2018,5,10,16,22,5.001,0.3751,-0.7932,-0.4469,0.1739,-0.6,-0.6,0.3,0.002,0.005,0.001,0
2018,5,10,16,22,5.022,0.3747,-0.793,-0.4475,0.1741,0,0,0,0.002,0.007,0.003,0
2018,5,10,16,22,5.026,0.3745,-0.7928,-0.448,0.1744,0.6,0,0.3,0.001,0.003,0.006,0
2018,5,10,16,22,5.041,0.3743,-0.7925,-0.4485,0.1748,0.8,0.1,0,0.002,0.003,0.006,0
2018,5,10,16,22,5.079,0.3741,-0.7921,-0.4491,0.1752,0.5,0.1,0,0.004,0.003,0.001,0
2018,5,10,16,22,5.099,0.3739,-0.7919,-0.4496,0.1755,0.5,-0.1,0,-0.001,0.004,0.004,0
2018,5,10,16,22,5.103,0.3736,-0.7916,-0.4502,0.1759,0.5,0.1,0,0.004,0.004,0.007,0
2018,5,10,16,22,5.124,0.3733,-0.7914,-0.4507,0.1762,0,0,0,0,0.005,0.002,0
2018,5,10,16,22,5.144,0.3731,-0.7911,-0.4512,0.1766,0,0,0,0.002,0.004,0.002,0
2018,5,10,16,22,5.181,0.3728,-0.7909,-0.4517,0.1769,0,0,0,0,0.009,0.008,0
2018,5,10,16,22,5.202,0.3724,-0.7907,-0.4523,0.1771,-0.5,0,0,0.013,-0.008,0.001,0
2018,5,10,16,22,5.206,0.372,-0.7906,-0.4527,0.1775,0,0,0,0.001,0.004,0.003,0
2018,5,10,16,22,5.222,0.3717,-0.7904,-0.4531,0.1778,0,0,0,0.003,0.004,0.007,0
2018,5,10,16,22,5.242,0.3714,-0.7902,-0.4536,0.1781,0,0,0,0.006,0.003,0.003,0
2018,5,10,16,22,5.262,0.371,-0.79,-0.4541,0.1785,0,0,0,0.004,0.003,0.005,0
2018,5,10,16,22,5.282,0.3707,-0.7898,-0.4545,0.1787,-0.3,-0.6,0.5,0,0.004,0.005,0
2018,5,10,16,22,5.303,0.3704,-0.7896,-0.455,0.179,0,0,0,-0.001,0.005,0.003,0
2018,5,10,16,22,5.341,0.3701,-0.7894,-0.4555,0.1793,0,0,0,-0.001,0.003,0.003,0
2018,5,10,16,22,5.362,0.3697,-0.7893,-0.456,0.1796,0,0,0,0.001,0.002,0.005,0
2018,5,10,16,22,5.365,0.3694,-0.7891,-0.4564,0.1799,0,0,0,0.003,0.007,0.011,0
2018,5,10,16,22,5.384,0.3691,-0.7889,-0.4569,0.1803,0.5,0,0,0.001,0.004,0.003,0
2018,5,10,16,22,5.421,0.3689,-0.7886,-0.4574,0.1806,0,0,0,0,0.005,0.001,1023
2018,5,10,16,22,5.44,0.3686,-0.7884,-0.4578,0.1809,0,0,0,0,0.004,0.002,1023
2018,5,10,16,22,5.444,0.3683,-0.7882,-0.4583,0.1812,0,0,0,0.001,0.003,0.006,1023
2018,5,10,16,22,5.462,0.368,-0.788,-0.4587,0.1815,0,0,0,0,0.007,0.011,1023
2018,5,10,16,22,5.482,0.3678,-0.7878,-0.4592,0.1818,-0.5,-0.1,-0.1,0.002,0.008,0.005,1023
2018,5,10,16,22,5.519,0.3674,-0.7876,-0.4597,0.182,-0.5,-0.2,0,0,0.006,0.002,1023
2018,5,10,16,22,5.539,0.3671,-0.7874,-0.4602,0.1823,-0.8,-0.1,0,0.002,0.005,0.009,1023
2018,5,10,16,22,5.543,0.3666,-0.7874,-0.4606,0.1825,-1,-0.4,0,0.007,0.002,0.001,1023
2018,5,10,16,22,5.581,0.3662,-0.7873,-0.461,0.1827,-0.5,-0.4,0,0,0.009,0.004,1023
2018,5,10,16,22,5.6,0.3659,-0.7871,-0.4615,0.183,0,0,0,-0.002,0.004,0.005,1023
2018,5,10,16,22,5.605,0.3656,-0.7869,-0.4619,0.1833,0,0,0,-0.003,0.007,0.003,0
2018,5,10,16,22,5.642,0.3653,-0.7867,-0.4623,0.1835,0,0,0,0.01,0.007,0.006,0
2018,5,10,16,22,5.662,0.365,-0.7866,-0.4627,0.1839,0,0,0,-0.001,0.005,0.007,0
2018,5,10,16,22,5.666,0.3647,-0.7864,-0.4631,0.1842,0.5,-0.2,0,-0.001,0.003,0.002,0
2018,5,10,16,22,5.688,0.3644,-0.7862,-0.4635,0.1846,0.7,0.1,0,0.001,0.005,0.002,0
2018,5,10,16,22,5.707,0.3643,-0.7859,-0.4639,0.1849,0,0,0,0,0.004,0.002,0
2018,5,10,16,22,5.724,0.364,-0.7858,-0.4644,0.1852,0,0,0,0,0.002,0.004,0
2018,5,10,16,22,5.747,0.3636,-0.7856,-0.4648,0.1855,0,0,0,0.004,0.004,0.003,0
2018,5,10,16,22,5.766,0.3633,-0.7854,-0.4652,0.1858,0,0,0,0.003,0.005,0.007,0
2018,5,10,16,22,5.787,0.363,-0.7853,-0.4656,0.1861,0,0,0,0.001,0.005,0.007,0
2018,5,10,16,22,5.807,0.3627,-0.7851,-0.466,0.1864,-0.5,-0.1,0,0,0.004,0.003,0
2018,5,10,16,22,5.847,0.3623,-0.785,-0.4664,0.1866,-1,-0.1,0,0.003,0.004,0.004,0
2018,5,10,16,22,5.866,0.362,-0.7848,-0.4669,0.1868,-0.9,-0.1,0,0.002,0.001,0.011,0
2018,5,10,16,22,5.87,0.3616,-0.7847,-0.4673,0.187,0,0,0,0,0.005,0.003,0
2018,5,10,16,22,5.89,0.3613,-0.7845,-0.4677,0.1873,0,0,0,0.003,0.005,0.008,0
2018,5,10,16,22,5.91,0.361,-0.7844,-0.468,0.1876,0,0,0,0.002,0.002,0.004,0
2018,5,10,16,22,5.926,0.3607,-0.7842,-0.4685,0.1879,0,0,0,-0.001,0.005,0.004,0
2018,5,10,16,22,5.946,0.3604,-0.784,-0.4688,0.1882,0,0,0,-0.001,0.005,0.004,0
2018,5,10,16,22,5.965,0.3601,-0.7839,-0.4693,0.1884,-0.7,-0.2,0.2,0.001,0.005,0.003,0
2018,5,10,16,22,5.987,0.3598,-0.7837,-0.4698,0.1885,-0.8,-0.4,0.2,0,0.006,0.006,0
2018,5,10,16,22,6.007,0.3595,-0.7835,-0.4702,0.1887,0,0,0,0.001,0.003,0.005,0
2018,5,10,16,22,6.044,0.3592,-0.7833,-0.4706,0.1889,0,0,0,0.001,0.007,0.005,0
2018,5,10,16,22,6.065,0.3589,-0.7832,-0.471,0.1892,0,0,0,0.001,0.007,0.007,1023
2018,5,10,16,22,6.069,0.3587,-0.783,-0.4714,0.1895,0,0,0,0,0.006,0.006,1023
2018,5,10,16,22,6.092,0.3584,-0.7828,-0.4718,0.1898,0,0,0,0,0.005,0.008,1023
2018,5,10,16,22,6.111,0.3583,-0.7825,-0.4723,0.1901,0,0,0,0.001,0.004,0.009,1023
2018,5,10,16,22,6.13,0.3581,-0.7823,-0.4727,0.1903,0,0,0,0.002,0.001,0.005,1023
2018,5,10,16,22,6.152,0.3578,-0.7821,-0.4731,0.1906,0,0,0,0.002,0.004,0.004,1023
2018,5,10,16,22,6.171,0.3576,-0.7819,-0.4735,0.1908,0,0,0,0,0.002,0.004,1023
2018,5,10,16,22,6.193,0.3573,-0.7816,-0.474,0.1911,0,0,0,0.002,0.001,0,1023
2018,5,10,16,22,6.209,0.3571,-0.7814,-0.4744,0.1914,0.5,0.1,0,0.002,0.007,0.005,1023
2018,5,10,16,22,6.246,0.3569,-0.7812,-0.4747,0.1917,0.7,0,0.4,0.002,0.006,0.005,1023
2018,5,10,16,22,6.265,0.3567,-0.781,-0.4751,0.192,0,0,0,0.002,0.001,0.008,1023
2018,5,10,16,22,6.269,0.3565,-0.7808,-0.4755,0.1922,0,0,0,0,0.007,0.009,0
2018,5,10,16,22,6.308,0.3562,-0.7806,-0.476,0.1925,0,0,0,0.002,0.006,0.007,0
2018,5,10,16,22,6.328,0.356,-0.7804,-0.4763,0.1927,0,-0.5,0.2,-0.002,0.005,0.005,0
2018,5,10,16,22,6.332,0.3558,-0.7802,-0.4767,0.1929,0,0,0,0.002,0.004,0.003,0
2018,5,10,16,22,6.352,0.3555,-0.78,-0.4771,0.1932,0,0,0,0,0.001,0.007,0
2018,5,10,16,22,6.372,0.3552,-0.7799,-0.4774,0.1935,0,0,0,0,0.001,0.003,0
2018,5,10,16,22,6.408,0.355,-0.7798,-0.4778,0.1937,0,0,0,0,0.006,0.004,0
2018,5,10,16,22,6.43,0.3547,-0.7796,-0.4782,0.194,0,0,0,0.002,0.002,0,0
2018,5,10,16,22,6.434,0.3545,-0.7794,-0.4785,0.1942,0,0,0,0.001,0.003,0.005,0
2018,5,10,16,22,6.45,0.3543,-0.7792,-0.4789,0.1944,0,0,0,0,0.006,0.01,0
2018,5,10,16,22,6.472,0.354,-0.779,-0.4793,0.1947,-0.5,0,0,0,0.005,0.004,0
2018,5,10,16,22,6.491,0.3537,-0.7789,-0.4796,0.1949,-0.7,-0.1,0,0.003,0.005,0.001,0
2018,5,10,16,22,6.531,0.3534,-0.7787,-0.48,0.1951,0,0,0,-0.001,0.004,0.004,0
2018,5,10,16,22,6.552,0.3531,-0.7786,-0.4803,0.1953,0,0,0,0.002,0.001,0.007,0
2018,5,10,16,22,6.556,0.3529,-0.7784,-0.4807,0.1956,0,0,0,0,0.006,0.002,0
2018,5,10,16,22,6.576,0.3527,-0.7782,-0.4811,0.1958,0,0,0,0.001,0.004,0.007,0
2018,5,10,16,22,6.595,0.3524,-0.7781,-0.4814,0.1961,0,0,0,0,0.004,0.003,0
2018,5,10,16,22,6.615,0.3522,-0.7779,-0.4818,0.1963,0,0,0,0.001,0.006,0.005,0
2018,5,10,16,22,6.634,0.3519,-0.7778,-0.4821,0.1965,-0.7,-0.1,0,0.002,0.002,0.005,0
2018,5,10,16,22,6.652,0.3516,-0.7777,-0.4825,0.1966,-0.5,-0.2,0,0.001,0.001,0.001,0
2018,5,10,16,22,6.69,0.3513,-0.7776,-0.4827,0.1969,0,0,0,0,0.006,0,0
2018,5,10,16,22,6.695,0.3511,-0.7774,-0.4831,0.1971,0.5,0.1,0.2,0,0.005,0.007,0
2018,5,10,16,22,6.711,0.3509,-0.7772,-0.4835,0.1974,0,0,0,-0.001,0.004,0.005,1023
2018,5,10,16,22,6.748,0.3506,-0.777,-0.4838,0.1976,0,0,0,-0.001,0.005,0.003,1023
2018,5,10,16,22,6.769,0.3504,-0.7769,-0.4841,0.1978,0,0,0,0,0.007,0.006,1023
2018,5,10,16,22,6.773,0.3502,-0.7767,-0.4844,0.1981,0,0,0,0.002,0.002,0.007,1023
2018,5,10,16,22,6.795,0.3499,-0.7766,-0.4848,0.1982,-0.5,0,0,0.001,0.003,0.005,1023
2018,5,10,16,22,6.816,0.3496,-0.7764,-0.4851,0.1985,0,0,0,-0.001,0.003,0.005,1023
2018,5,10,16,22,6.835,0.3494,-0.7763,-0.4855,0.1987,0.5,0.1,0,0,0.006,0.002,1023
2018,5,10,16,22,6.856,0.3493,-0.776,-0.4859,0.199,0.6,0.1,0,0.001,0.005,0.006,1023
2018,5,10,16,22,6.896,0.349,-0.7759,-0.4861,0.1992,0,0,0,0.003,0.004,0.003,1023
2018,5,10,16,22,6.915,0.3488,-0.7758,-0.4864,0.1995,0,0,0,0.004,0.005,0.005,1023
2018,5,10,16,22,6.919,0.3486,-0.7756,-0.4867,0.1997,0,0,0,-0.001,0.007,0.008,1023
2018,5,10,16,22,6.935,0.3483,-0.7754,-0.487,0.1999,0,0,0,0.004,0.002,0.006,0
2018,5,10,16,22,6.956,0.3481,-0.7753,-0.4873,0.2002,0,0,0,0.003,0.004,0.005,0
2018,5,10,16,22,6.975,0.3479,-0.7752,-0.4876,0.2004,0,0,0,-0.002,0.003,0.005,0
2018,5,10,16,22,6.994,0.3476,-0.7751,-0.4878,0.2006,0,0,0,0.002,0.004,0.006,0
2018,5,10,16,22,7.017,0.3474,-0.7749,-0.4881,0.2009,0,0,0,-0.001,0.003,0.006,0
2018,5,10,16,22,7.036,0.3471,-0.7748,-0.4884,0.2011,0,0,0,0.001,0.002,0.008,0
2018,5,10,16,22,7.056,0.347,-0.7746,-0.4888,0.2013,0,0,0,0.001,0.004,0.011,0
2018,5,10,16,22,7.094,0.3465,-0.7747,-0.4888,0.2016,0,0,0,0.001,0.002,0.004,0
2018,5,10,16,22,7.116,0.3461,-0.7749,-0.4887,0.2019,0,0,0,0,0.007,0.004,0
2018,5,10,16,22,7.121,0.3456,-0.7751,-0.4886,0.2022,0,0,0,0,0.006,0.006,0
2018,5,10,16,22,7.138,0.3452,-0.7752,-0.4887,0.2024,-0.5,0,0.1,0,0.005,0.006,0
2018,5,10,16,22,7.172,0.3449,-0.7751,-0.489,0.2025,-0.6,-0.1,0,-0.003,0.004,0.008,0
2018,5,10,16,22,7.193,0.3446,-0.7749,-0.4893,0.2026,-0.6,0,0,-0.003,0.008,0.008,0
2018,5,10,16,22,7.197,0.3444,-0.7748,-0.4897,0.2027,-0.7,0,0,0.001,0,0,0
2018,5,10,16,22,7.215,0.3441,-0.7747,-0.49,0.2029,0,0,0,0,0.003,0,0
2018,5,10,16,22,7.235,0.3436,-0.775,-0.4898,0.2032,0,0,0,0,0.004,0.003,0
2018,5,10,16,22,7.274,0.3431,-0.7752,-0.4897,0.2035,0,0,0,-0.002,0.006,0.007,0
2018,5,10,16,22,7.294,0.3427,-0.7754,-0.4896,0.2038,0,0,0,-0.002,0.007,0,0
2018,5,10,16,22,7.298,0.3422,-0.7756,-0.4895,0.204,0,0,0,0.002,0.006,0.003,0
2018,5,10,16,22,7.336,0.3418,-0.7757,-0.4894,0.2043,0,0,0,-0.002,0.005,0.001,0
2018,5,10,16,22,7.356,0.3414,-0.7759,-0.4893,0.2046,0,0,0,-0.001,0.004,0.004,0
2018,5,10,16,22,7.36,0.3409,-0.7761,-0.4892,0.2048,0,0,0,-0.001,0.006,0,0
2018,5,10,16,22,7.377,0.3405,-0.7763,-0.489,0.2051,0,0,0,0,0.001,0.003,1023
2018,5,10,16,22,7.397,0.3401,-0.7765,-0.4889,0.2053,0,0,0,0,0.005,0.005,1023
2018,5,10,16,22,7.416,0.3397,-0.7766,-0.4888,0.2056,0,0,0,0,0.003,0.012,1023
2018,5,10,16,22,7.453,0.3394,-0.7767,-0.4888,0.2058,-0.5,0,0,0.001,0.004,0.005,1023
2018,5,10,16,22,7.473,0.3391,-0.7768,-0.4889,0.206,0,0,0,0,0.003,0.006,1023
2018,5,10,16,22,7.476,0.3387,-0.7769,-0.4888,0.2062,0,0,0,0,0.005,0.004,1023
2018,5,10,16,22,7.514,0.3384,-0.7771,-0.4887,0.2065,0,0,0,0.001,0.004,0.008,1023
2018,5,10,16,22,7.535,0.338,-0.7772,-0.4886,0.2067,0,0,0,0,0.002,0.004,1023
2018,5,10,16,22,7.54,0.3377,-0.7774,-0.4885,0.2069,0,0,0,-0.002,0.005,0.011,1023
2018,5,10,16,22,7.559,0.3374,-0.7774,-0.4887,0.207,-0.8,0,0.2,0.001,0.005,0.006,1023
2018,5,10,16,22,7.598,0.3371,-0.7774,-0.4888,0.2071,0,0,0,0,0.004,0.004,1023
2018,5,10,16,22,7.619,0.3368,-0.7775,-0.4888,0.2073,0,0,0,0,0.004,0.003,0
2018,5,10,16,22,7.623,0.3364,-0.7777,-0.4887,0.2075,0,-0.2,0.5,0.001,0.008,0.01,0
2018,5,10,16,22,7.643,0.3361,-0.7778,-0.4886,0.2077,0,0,0,-0.004,0.003,0.004,0
2018,5,10,16,22,7.663,0.3358,-0.7779,-0.4886,0.2079,0,0,0,0,0.004,0.003,0
2018,5,10,16,22,7.681,0.3355,-0.778,-0.4885,0.2081,0,0,0,0,0.003,0.003,0
2018,5,10,16,22,7.7,0.3352,-0.7782,-0.4884,0.2083,0,0,0,0.002,0.006,0,0
2018,5,10,16,22,7.721,0.3349,-0.7783,-0.4883,0.2085,0,0,0,0.002,0.006,0.004,0
2018,5,10,16,22,7.741,0.3346,-0.7784,-0.4882,0.2087,0,0,0,0.001,0.006,0.01,0
2018,5,10,16,22,7.761,0.3343,-0.7785,-0.4882,0.2089,0,0,0,-0.001,0.002,0.002,0
2018,5,10,16,22,7.782,0.334,-0.7787,-0.4881,0.209,0,0,0,-0.002,0.005,0.003,0
2018,5,10,16,22,7.817,0.3338,-0.7788,-0.488,0.2092,0,0,0,0.001,0.005,0.004,0
2018,5,10,16,22,7.839,0.3335,-0.7789,-0.4879,0.2094,0,0,0,0,0.002,0.01,0
2018,5,10,16,22,7.843,0.3332,-0.779,-0.4879,0.2095,-0.6,-0.1,0,0,0.005,0.007,0
2018,5,10,16,22,7.86,0.333,-0.7791,-0.4879,0.2096,0,0,0,0,0.004,0.002,0
2018,5,10,16,22,7.899,0.3327,-0.7792,-0.4879,0.2098,0,0,0,0.002,0,0,0
2018,5,10,16,22,7.919,0.3324,-0.7793,-0.4878,0.2099,0,0,0,0,0.004,0.003,0
2018,5,10,16,22,7.923,0.3322,-0.7794,-0.4877,0.2101,0.5,0,0,-0.001,0.002,0.007,0
2018,5,10,16,22,7.942,0.332,-0.7795,-0.4876,0.2103,0,0,0,-0.002,0.003,0.006,0
2018,5,10,16,22,7.962,0.3318,-0.7796,-0.4876,0.2104,0,0,0,-0.001,0.004,0.005,0
2018,5,10,16,22,7.983,0.3315,-0.7797,-0.4875,0.2106,0,0,0,0,0.007,0.006,0
2018,5,10,16,22,8.001,0.3313,-0.7798,-0.4875,0.2107,0,0,0,-0.001,0.004,0.006,0
2018,5,10,16,22,8.024,0.3311,-0.7799,-0.4874,0.2109,0,0,0,0,0.003,0.007,0
2018,5,10,16,22,8.046,0.3308,-0.78,-0.4873,0.211,0,0,0,-0.001,0.004,0.006,0
2018,5,10,16,22,8.065,0.3306,-0.7801,-0.4872,0.2112,0,0,0,0,0.004,0.004,1023
2018,5,10,16,22,8.086,0.3304,-0.7801,-0.4872,0.2113,0,0,0,0,0.002,0.006,1023
2018,5,10,16,22,8.102,0.3302,-0.7802,-0.4871,0.2115,0,0,0,-0.001,0.001,0.002,1023
2018,5,10,16,22,8.123,0.33,-0.7803,-0.4871,0.2116,0,0,0,0,0.009,0.006,1023
2018,5,10,16,22,8.142,0.3298,-0.7804,-0.487,0.2117,0,0,0,0,0.004,0.006,1023
2018,5,10,16,22,8.163,0.3296,-0.7805,-0.487,0.2119,0,0,0,0,0.003,0.005,1023
2018,5,10,16,22,8.182,0.3294,-0.7806,-0.4869,0.212,0.5,0,0,0,0.003,0.007,1023
2018,5,10,16,22,8.223,0.3292,-0.7806,-0.4868,0.2121,0,0,0,0,0.004,0.006,1023
2018,5,10,16,22,8.242,0.329,-0.7807,-0.4868,0.2123,0,0,0,0.002,0.001,0.003,1023
2018,5,10,16,22,8.246,0.3289,-0.7808,-0.4867,0.2124,0,0,0,-0.001,0.006,0.005,1023
2018,5,10,16,22,8.266,0.3287,-0.7809,-0.4867,0.2125,0,0,0,0,0.004,0.003,1023
2018,5,10,16,22,8.284,0.3285,-0.7809,-0.4866,0.2127,0.6,0.3,0,0.001,0.003,0.005,0
2018,5,10,16,22,8.305,0.3285,-0.7809,-0.4866,0.2128,0.7,-0.3,0.2,0,0.003,0.006,0
2018,5,10,16,22,8.343,0.3284,-0.781,-0.4865,0.2129,0.9,-0.1,0.1,0,0.003,0.003,0
2018,5,10,16,22,8.363,0.3284,-0.781,-0.4864,0.2131,1.2,0.1,0,0,0.002,0.001,0
2018,5,10,16,22,8.367,0.3283,-0.781,-0.4864,0.2134,0.8,0.4,0,0,0.006,0.005,0
2018,5,10,16,22,8.384,0.3282,-0.781,-0.4863,0.2136,0,0,0,0,0.006,0.01,0
2018,5,10,16,22,8.405,0.3281,-0.7811,-0.4863,0.2137,0,0,0,0.001,0.004,0.008,0
2018,5,10,16,22,8.425,0.328,-0.7811,-0.4862,0.2138,0,0,0,0.001,0.007,0.007,0
2018,5,10,16,22,8.464,0.3278,-0.7812,-0.4862,0.2139,0,0,0,-0.001,0.003,0.005,0
2018,5,10,16,22,8.484,0.3277,-0.7812,-0.4861,0.214,0,0,0,0,0.003,0.006,0
2018,5,10,16,22,8.487,0.3275,-0.7813,-0.4861,0.2141,0,0,0,0.001,0.006,0.01,0
2018,5,10,16,22,8.523,0.3274,-0.7814,-0.4861,0.2142,0,0,0,0.001,0.004,0.004,0
2018,5,10,16,22,8.555,0.3272,-0.7814,-0.486,0.2143,0,0,0,0,0.002,0.005,0
2018,5,10,16,22,8.557,0.3271,-0.7815,-0.486,0.2144,0,0,0,0.001,0.005,0.002,0
2018,5,10,16,22,8.566,0.327,-0.7815,-0.4859,0.2145,0.5,0,0.5,0,0.006,-0.001,0
2018,5,10,16,22,8.602,0.3269,-0.7815,-0.4859,0.2146,0.5,0.3,0.2,-0.002,0.003,0.005,0
2018,5,10,16,22,8.623,0.3268,-0.7816,-0.4859,0.2146,0,0,0,0,0,0.006,0
2018,5,10,16,22,8.625,0.3267,-0.7816,-0.4859,0.2147,0,0,0,0,0.005,0.009,0
2018,5,10,16,22,8.661,0.3265,-0.7817,-0.4858,0.2148,0,0,0,0.001,0.006,0.007,0
2018,5,10,16,22,8.685,0.3264,-0.7818,-0.4858,0.2148,0,0,0,-0.002,0.002,0.002,0
2018,5,10,16,22,8.689,0.3262,-0.7818,-0.4858,0.2149,0.5,0.3,0,-0.001,0.006,0.001,0
2018,5,10,16,22,8.706,0.3262,-0.7818,-0.4857,0.2151,0.6,0.2,0.2,-0.001,0.004,0.008,0
2018,5,10,16,22,8.744,0.3262,-0.7818,-0.4857,0.2152,0,0,0,0.002,0.004,0.003,0
2018,5,10,16,22,8.763,0.3261,-0.7818,-0.4857,0.2152,-1,-0.4,0,-0.028,0.045,0.012,0
2018,5,10,16,22,8.767,0.3257,-0.782,-0.4857,0.2151,0,0,0,0,0.004,0.007,1023
2018,5,10,16,22,8.808,0.3256,-0.7821,-0.4857,0.2152,0,0,0,0.003,0.004,0.001,1023
2018,5,10,16,22,8.812,0.3255,-0.7821,-0.4857,0.2152,0,0,0,0,0.005,0.002,1023
2018,5,10,16,22,8.828,0.3254,-0.7821,-0.4856,0.2153,0,0,0,-0.002,0.006,0.01,1023
2018,5,10,16,22,8.845,0.3253,-0.7822,-0.4856,0.2154,0,0,0,0.001,0.002,0.007,1023
2018,5,10,16,22,8.881,0.3251,-0.7822,-0.4856,0.2154,-0.5,-0.1,0,-0.001,0.005,0.002,1023
2018,5,10,16,22,8.901,0.325,-0.7823,-0.4856,0.2154,0,0,0,-0.003,0.003,0.004,1023
2018,5,10,16,22,8.905,0.3249,-0.7823,-0.4855,0.2155,0,0,0,-0.001,0.007,0.004,1023
2018,5,10,16,22,8.937,0.3248,-0.7824,-0.4855,0.2156,0,0,0,0,0.003,0.005,1023
2018,5,10,16,22,8.956,0.3247,-0.7824,-0.4855,0.2156,0,0,0,0,0.003,0.004,1023
2018,5,10,16,22,8.968,0.3246,-0.7825,-0.4855,0.2157,0,0,0,0,0.004,0.002,0
2018,5,10,16,22,9.007,0.3245,-0.7825,-0.4854,0.2157,0,0,0,-0.004,0.006,0.007,0
2018,5,10,16,22,9.026,0.3245,-0.7825,-0.4854,0.2157,0,0,0,0,0.006,0,0
2018,5,10,16,22,9.03,0.3244,-0.7826,-0.4854,0.2158,0,0,0,-0.001,0.003,0.007,0
2018,5,10,16,22,9.05,0.3243,-0.7826,-0.4854,0.2159,0,0,0,0.003,0.005,0.004,0
2018,5,10,16,22,9.07,0.3242,-0.7826,-0.4854,0.2159,0,0,0,0,0.007,0.007,0
2018,5,10,16,22,9.088,0.3241,-0.7827,-0.4853,0.216,0,0,0,0.001,0.002,0.008,0
2018,5,10,16,22,9.108,0.324,-0.7827,-0.4853,0.216,-0.5,-0.1,0,-0.002,0.003,0.002,0
2018,5,10,16,22,9.148,0.3239,-0.7828,-0.4853,0.216,-0.5,-0.1,0,0,0.007,0.004,0
2018,5,10,16,22,9.167,0.3238,-0.7828,-0.4853,0.216,0,0,0,0,0.007,0.003,0
2018,5,10,16,22,9.171,0.3237,-0.7829,-0.4853,0.2161,0,0,0,0.002,0.004,0.004,0
2018,5,10,16,22,9.193,0.3236,-0.7829,-0.4852,0.2161,0,0,0,0,0.004,0.003,0
2018,5,10,16,22,9.212,0.3235,-0.7829,-0.4852,0.2162,0,0,0,0,0.003,0.005,0
2018,5,10,16,22,9.25,0.3235,-0.783,-0.4852,0.2162,0,0,0,0,0.008,0.007,0
2018,5,10,16,22,9.269,0.3234,-0.783,-0.4852,0.2163,0,0,0,0,0.004,0.005,0
2018,5,10,16,22,9.274,0.3234,-0.783,-0.4852,0.2163,0,0,0,0.001,0.001,0.005,0
2018,5,10,16,22,9.289,0.3232,-0.7831,-0.4851,0.2163,-0.5,-0.2,0,-0.001,0.005,0.002,0
2018,5,10,16,22,9.328,0.3231,-0.7831,-0.4852,0.2163,0,0,0,0,0.005,0.003,0
2018,5,10,16,22,9.348,0.323,-0.7832,-0.4851,0.2163,0,0,0,0.001,0.004,0.004,0
2018,5,10,16,22,9.352,0.323,-0.7832,-0.4851,0.2163,0,0,0,0,0.005,0,0
2018,5,10,16,22,9.372,0.3229,-0.7832,-0.4851,0.2163,0,0,0,-0.001,0.002,0.007,0
2018,5,10,16,22,9.392,0.3228,-0.7832,-0.4851,0.2164,0,0,0,0.001,0.005,0.01,0
2018,5,10,16,22,9.412,0.3228,-0.7833,-0.4851,0.2164,0,0,0,0,0.003,0.004,0
2018,5,10,16,22,9.43,0.3227,-0.7833,-0.4851,0.2165,0,0,0,0,0.004,0.006,0
2018,5,10,16,22,9.451,0.3227,-0.7833,-0.485,0.2165,0,0,0,0,0.005,0.005,0
2018,5,10,16,22,9.49,0.3226,-0.7833,-0.485,0.2166,0,0,0,0.002,0.004,0.006,1023
2018,5,10,16,22,9.513,0.3226,-0.7833,-0.485,0.2166,0,0,0,0,0.003,0,1023
2018,5,10,16,22,9.517,0.3225,-0.7834,-0.485,0.2166,0,0,0,0,0.004,0.007,1023
2018,5,10,16,22,9.532,0.3225,-0.7834,-0.485,0.2167,0,0,0,-0.001,0.005,0.011,1023
2018,5,10,16,22,9.57,0.3224,-0.7834,-0.4849,0.2167,0,0,0,-0.001,0.008,0.003,1023
2018,5,10,16,22,9.591,0.3223,-0.7834,-0.4849,0.2167,0,0,0,0,0.004,0.001,1023
2018,5,10,16,22,9.595,0.3223,-0.7835,-0.4849,0.2168,0,0,0,0.001,0.007,0.004,1023
2018,5,10,16,22,9.612,0.3222,-0.7835,-0.4849,0.2168,0,0,0,0.001,0.004,0.006,1023
2018,5,10,16,22,9.65,0.3222,-0.7835,-0.4849,0.2168,0,0,0,0.001,0.004,0.002,1023
2018,5,10,16,22,9.67,0.3221,-0.7835,-0.4849,0.2169,0,0,0,0.001,0.004,0.002,1023
2018,5,10,16,22,9.675,0.3221,-0.7835,-0.4849,0.2169,0.7,0,-0.1,-0.001,0.005,0.003,1023
2018,5,10,16,22,9.694,0.3221,-0.7835,-0.4848,0.217,0.5,0,-0.2,0,0.004,0.008,1023
2018,5,10,16,22,9.732,0.3221,-0.7835,-0.4847,0.2171,0.5,0.1,0,0.002,0.004,0.006,0
2018,5,10,16,22,9.752,0.3221,-0.7836,-0.4847,0.2172,0,0,0,0,0.003,0.007,0
2018,5,10,16,22,9.757,0.322,-0.7836,-0.4847,0.2172,0,0,0,0.001,0.006,0.003,0
2018,5,10,16,22,9.794,0.322,-0.7836,-0.4847,0.2172,0,0,0,-0.001,0.005,0.005,0
2018,5,10,16,22,9.798,0.322,-0.7836,-0.4847,0.2172,0,0,0,0,0.004,0.008,0
2018,5,10,16,22,9.815,0.3219,-0.7836,-0.4847,0.2173,0,0,0,0,0.004,0.004,0
2018,5,10,16,22,9.834,0.3219,-0.7836,-0.4847,0.2173,0,0,0,-0.003,0.006,0.001,0
2018,5,10,16,22,9.854,0.3219,-0.7837,-0.4847,0.2173,0,0,0,-0.001,0.005,0.005,0
2018,5,10,16,22,9.892,0.3218,-0.7837,-0.4847,0.2173,0,0,0,0.001,0.007,0.004,0
2018,5,10,16,22,9.913,0.3218,-0.7837,-0.4846,0.2174,0,0,0,0.001,0.007,0.004,0
2018,5,10,16,22,9.917,0.3217,-0.7837,-0.4846,0.2174,0,0,0,0.001,0.002,0.006,0
2018,5,10,16,22,9.937,0.3217,-0.7837,-0.4846,0.2174,0,0,0,0.001,0.004,0.008,0
2018,5,10,16,22,9.957,0.3217,-0.7837,-0.4846,0.2174,0,0,0,-0.003,0.006,0.006,0
2018,5,10,16,22,9.996,0.3216,-0.7837,-0.4846,0.2175,0,0,0,0.001,0.003,0.004,0
2018,5,10,16,22,10.017,0.3216,-0.7838,-0.4846,0.2175,0,0,0,0,0.006,0.008,0
2018,5,10,16,22,10.021,0.3216,-0.7838,-0.4846,0.2175,0,0,0,0.002,0.004,0,0
2018,5,10,16,22,10.033,0.3215,-0.7838,-0.4846,0.2175,0,0,0,0,0.004,0.004,0
2018,5,10,16,22,10.074,0.3215,-0.7838,-0.4846,0.2175,0,0,0,-0.001,0.004,0.006,0
2018,5,10,16,22,10.092,0.3215,-0.7838,-0.4845,0.2176,0,0,0,0,0.004,0.008,0
2018,5,10,16,22,10.096,0.3215,-0.7838,-0.4845,0.2176,0,0,0,0,0.006,0.007,0
2018,5,10,16,22,10.115,0.3214,-0.7838,-0.4845,0.2176,-0.5,0,-0.1,0,0.005,0.004,0
2018,5,10,16,22,10.136,0.3214,-0.7838,-0.4845,0.2176,0,0,0,0.002,0.005,0.006,0
2018,5,10,16,22,10.156,0.3214,-0.7838,-0.4845,0.2176,0,0,0,-0.001,0.006,0.01,0
2018,5,10,16,22,10.177,0.3213,-0.7839,-0.4845,0.2176,0,0,0,0,0.002,0.005,0
2018,5,10,16,22,10.215,0.3213,-0.7839,-0.4845,0.2177,0,0,0,0,0.007,0.009,1023
2018,5,10,16,22,10.235,0.3213,-0.7839,-0.4845,0.2177,0,0,0,0,0.005,0.002,1023
2018,5,10,16,22,10.24,0.3213,-0.7839,-0.4845,0.2177,0,0,0,-0.001,0.004,0.01,1023
2018,5,10,16,22,10.254,0.3212,-0.7839,-0.4845,0.2177,0,0,0,0.001,0.003,0.005,1023
2018,5,10,16,22,10.276,0.3212,-0.7839,-0.4845,0.2177,0,0,0,-0.001,0.005,0.008,1023
2018,5,10,16,22,10.296,0.3212,-0.7839,-0.4845,0.2177,0,0,0,0,0.005,0.004,1023
2018,5,10,16,22,10.334,0.3212,-0.7839,-0.4845,0.2178,0,0,0,0,0.008,0.006,1023
2018,5,10,16,22,10.355,0.3212,-0.7839,-0.4844,0.2178,0,0,0,0.002,0.003,0.006,1023
2018,5,10,16,22,10.359,0.3211,-0.7839,-0.4844,0.2178,0,0,0,-0.002,0.005,0.004,1023
2018,5,10,16,22,10.379,0.3211,-0.784,-0.4844,0.2178,0.7,0.1,-0.5,0,0.004,0.002,1023
2018,5,10,16,22,10.399,0.3212,-0.784,-0.4843,0.218,0.5,0.3,-0.2,0.001,0.006,0.005,1023
2018,5,10,16,22,10.42,0.3212,-0.7839,-0.4843,0.2181,0.8,0.4,0,0.001,0.005,0.009,1023
2018,5,10,16,22,10.441,0.3212,-0.7839,-0.4843,0.2182,0.5,-0.1,0,0,0.006,0.004,0
2018,5,10,16,22,10.46,0.3212,-0.7839,-0.4843,0.2182,0,0,0,0.001,0.006,0.003,0
2018,5,10,16,22,10.497,0.3212,-0.7839,-0.4843,0.2182,0,0,0,0,0.004,0.008,0
2018,5,10,16,22,10.519,0.3212,-0.7839,-0.4843,0.2182,0,0,0,-0.001,0.003,0.003,0
