time_1,time_2,time_3,time_4,time_5,time_6,w,x,y,z,droll,dpitch,dyaw,ax,ay,az,heart
2018,5,10,15,36,20.379,0.0702,-0.4866,-0.2601,0.8309,0,0,0,-0.006,0,-0.005,0
2018,5,10,15,36,20.398,0.0702,-0.4866,-0.2601,0.8309,0,0,0,0,0,-0.009,0
2018,5,10,15,36,20.419,0.0702,-0.4866,-0.2602,0.8309,0,0,0,-0.002,0.001,0,0
2018,5,10,15,36,20.44,0.0702,-0.4867,-0.2602,0.8309,0,0,0,-0.001,0,-0.002,0
2018,5,10,15,36,20.461,0.0702,-0.4867,-0.2601,0.8309,0,0,0,-0.002,0.006,-0.003,0
2018,5,10,15,36,20.479,0.0701,-0.4867,-0.2601,0.8309,0,0,0,0.002,0.009,0,1023
2018,5,10,15,36,20.52,0.0701,-0.4867,-0.2601,0.8309,0,0,0,-0.001,0.002,-0.003,1023
2018,5,10,15,36,20.524,0.0701,-0.4867,-0.2601,0.8309,0,0,0,-0.004,0,0.002,1023
2018,5,10,15,36,20.54,0.0701,-0.4867,-0.2601,0.8309,0,0,0,-0.008,0,0.001,1023
2018,5,10,15,36,20.561,0.0702,-0.4867,-0.2601,0.8309,0,0,0,-0.004,0,-0.001,1023
2018,5,10,15,36,20.579,0.0702,-0.4867,-0.2601,0.8309,0,0,0,-0.002,0.004,-0.005,1023
2018,5,10,15,36,20.599,0.0701,-0.4867,-0.2601,0.8309,0,0,0,0,0.002,-0.004,1023
2018,5,10,15,36,20.619,0.0701,-0.4868,-0.2601,0.8309,0,0,0,0.001,-0.003,-0.003,1023
2018,5,10,15,36,20.655,0.0702,-0.4867,-0.2601,0.8309,0,0,0,-0.003,-0.002,-0.002,1023
2018,5,10,15,36,20.676,0.0702,-0.4867,-0.2602,0.8309,0,0,0,-0.002,0,-0.003,1023
2018,5,10,15,36,20.68,0.0702,-0.4867,-0.2602,0.8309,0,0,0,-0.004,0.004,-0.001,1023
2018,5,10,15,36,20.718,0.0702,-0.4867,-0.2602,0.8309,0,0,0,-0.005,0.005,0.001,1023
2018,5,10,15,36,20.723,0.0702,-0.4867,-0.2602,0.8309,0,0,0,-0.004,0.003,-0.001,0
2018,5,10,15,36,20.739,0.0702,-0.4867,-0.2602,0.8309,0,0,0,-0.003,0.001,0,0
2018,5,10,15,36,20.778,0.0702,-0.4867,-0.2602,0.8309,0,0,0,-0.004,0.002,-0.002,0
2018,5,10,15,36,20.799,0.0702,-0.4867,-0.2601,0.8309,0,0,0,-0.003,0.003,0.002,0
2018,5,10,15,36,20.803,0.0702,-0.4867,-0.2601,0.8309,0,0,0,-0.002,0.004,0.001,0
2018,5,10,15,36,20.824,0.0702,-0.4867,-0.2601,0.8309,0,0,0,-0.004,0.002,-0.001,0
2018,5,10,15,36,20.842,0.0702,-0.4867,-0.2601,0.8309,0,0,0,-0.005,0.001,-0.003,0
2018,5,10,15,36,20.861,0.0702,-0.4867,-0.2601,0.8309,0,0,0,-0.001,0,0,0
2018,5,10,15,36,20.882,0.0702,-0.4866,-0.2601,0.8309,0,0,0,-0.002,0,-0.001,0
2018,5,10,15,36,20.921,0.0702,-0.4866,-0.2602,0.8309,0,0,0,-0.001,0,-0.001,0
2018,5,10,15,36,20.942,0.0702,-0.4866,-0.2602,0.8309,0,0,0,-0.005,-0.002,-0.002,0
2018,5,10,15,36,20.946,0.0702,-0.4866,-0.2602,0.8309,0,0,0,-0.003,0,-0.009,0
2018,5,10,15,36,20.961,0.0703,-0.4866,-0.2602,0.8309,0,0,0,-0.007,0.002,0.003,0
2018,5,10,15,36,21.001,0.0703,-0.4866,-0.2602,0.8309,0,0,0,-0.005,0.004,0,0
2018,5,10,15,36,21.021,0.0703,-0.4866,-0.2602,0.8309,0,0,0,-0.002,0.001,0,0
2018,5,10,15,36,21.025,0.0702,-0.4866,-0.2602,0.8309,0,0,0,-0.002,0.001,0,0
2018,5,10,15,36,21.042,0.0703,-0.4866,-0.2602,0.8309,0,0,0,-0.002,-0.003,-0.001,0
2018,5,10,15,36,21.061,0.0703,-0.4866,-0.2602,0.8309,0,0,0,-0.005,0,0.002,0
2018,5,10,15,36,21.1,0.0703,-0.4866,-0.2602,0.8309,0,0,0,-0.002,0.005,0.001,0
2018,5,10,15,36,21.119,0.0703,-0.4866,-0.2602,0.8309,0,0,0,-0.002,0.001,0.004,0
2018,5,10,15,36,21.123,0.0703,-0.4866,-0.2602,0.8309,0,0,0,-0.003,0,-0.003,0
2018,5,10,15,36,21.161,0.0703,-0.4865,-0.2602,0.8309,0,0,0,-0.003,0.004,0.001,0
2018,5,10,15,36,21.182,0.0703,-0.4865,-0.2602,0.831,0,0,0,-0.007,0,-0.004,0
2018,5,10,15,36,21.187,0.0703,-0.4865,-0.2602,0.831,0,0,0,-0.006,0.001,-0.001,0
2018,5,10,15,36,21.204,0.0703,-0.4865,-0.2602,0.831,0,0,0,-0.006,0,-0.002,0
2018,5,10,15,36,21.245,0.0703,-0.4864,-0.2603,0.831,0,0,0,-0.006,0,-0.002,0
2018,5,10,15,36,21.265,0.0703,-0.4864,-0.2603,0.831,0,0,0,-0.003,0.001,-0.004,0
2018,5,10,15,36,21.269,0.0704,-0.4864,-0.2603,0.831,0,0,0,-0.007,0,-0.003,0
2018,5,10,15,36,21.283,0.0704,-0.4864,-0.2603,0.831,0,0,0,-0.003,-0.001,0.001,0
2018,5,10,15,36,21.302,0.0704,-0.4864,-0.2603,0.831,0,0,0,-0.001,0.001,-0.006,1023
2018,5,10,15,36,21.324,0.0704,-0.4864,-0.2603,0.831,0,0,0,-0.006,0.004,-0.002,1023
2018,5,10,15,36,21.359,0.0704,-0.4864,-0.2603,0.831,0,0,0,-0.003,0.006,0,1023
2018,5,10,15,36,21.381,0.0703,-0.4864,-0.2602,0.831,0,0,0,-0.001,0.004,-0.004,1023
2018,5,10,15,36,21.385,0.0703,-0.4864,-0.2602,0.831,0,0,0,-0.003,0,0,1023
2018,5,10,15,36,21.406,0.0704,-0.4864,-0.2603,0.831,0,0,0,-0.005,-0.002,-0.002,1023
2018,5,10,15,36,21.425,0.0704,-0.4864,-0.2603,0.831,0,0,0,-0.006,0.001,-0.004,1023
2018,5,10,15,36,21.461,0.0704,-0.4864,-0.2603,0.831,0,0,0,-0.005,0.004,-0.004,1023
2018,5,10,15,36,21.481,0.0704,-0.4864,-0.2603,0.831,0,0,0,-0.003,0.001,0,1023
2018,5,10,15,36,21.485,0.0704,-0.4864,-0.2603,0.831,0,0,0,-0.003,-0.002,0,1023
2018,5,10,15,36,21.525,0.0704,-0.4863,-0.2603,0.831,0,0,0,-0.006,-0.003,-0.001,1023
2018,5,10,15,36,21.546,0.0705,-0.4863,-0.2604,0.831,0,0,0,-0.004,0.002,0,1023
2018,5,10,15,36,21.55,0.0705,-0.4863,-0.2604,0.831,0,0,0,-0.006,0.004,0.004,0
2018,5,10,15,36,21.566,0.0705,-0.4863,-0.2603,0.831,0,0,0,-0.007,0.005,0.005,0
2018,5,10,15,36,21.586,0.0704,-0.4862,-0.2603,0.8311,0,0,0,-0.004,0.004,0,0
2018,5,10,15,36,21.605,0.0704,-0.4862,-0.2603,0.8311,0,0,0,-0.001,0.005,0.003,0
2018,5,10,15,36,21.643,0.0704,-0.4862,-0.2603,0.8311,0,0,0,-0.007,0.005,-0.001,0
2018,5,10,15,36,21.664,0.0705,-0.4862,-0.2603,0.8311,0,0,0,-0.002,0.002,0,0
2018,5,10,15,36,21.668,0.0705,-0.4862,-0.2603,0.8311,0,-0.5,-0.1,-0.005,0.003,0,0
2018,5,10,15,36,21.687,0.0704,-0.4862,-0.2603,0.8311,0,0,0,-0.004,0.001,-0.003,0
2018,5,10,15,36,21.707,0.0704,-0.4863,-0.2602,0.8311,0,0,0,-0.005,0.002,-0.002,0
2018,5,10,15,36,21.745,0.0704,-0.4863,-0.2602,0.8311,0,0,0,-0.004,0.003,0.001,0
2018,5,10,15,36,21.763,0.0705,-0.4863,-0.2602,0.8311,0,0,0,-0.001,-0.001,-0.002,0
2018,5,10,15,36,21.767,0.0705,-0.4863,-0.2603,0.8311,0,0,0,-0.002,0,-0.006,0
2018,5,10,15,36,21.786,0.0705,-0.4863,-0.2603,0.831,0,0,0,-0.003,0,0.001,0
2018,5,10,15,36,21.805,0.0705,-0.4863,-0.2603,0.831,0,0,0,0,0.003,-0.006,0
2018,5,10,15,36,21.825,0.0705,-0.4863,-0.2603,0.831,0,0,0,-0.001,-0.001,-0.002,0
2018,5,10,15,36,21.865,0.0705,-0.4863,-0.2603,0.831,0,0,0,-0.003,-0.005,-0.008,0
2018,5,10,15,36,21.886,0.0705,-0.4863,-0.2604,0.831,0,0,0,-0.001,0,-0.004,0
2018,5,10,15,36,21.89,0.0705,-0.4863,-0.2604,0.831,0,0,0,-0.008,0.005,0.002,0
2018,5,10,15,36,21.91,0.0705,-0.4863,-0.2603,0.831,0,0,0,-0.001,0.009,-0.007,0
2018,5,10,15,36,21.93,0.0705,-0.4863,-0.2603,0.831,0,0,0,-0.002,0.008,-0.004,0
2018,5,10,15,36,21.949,0.0705,-0.4863,-0.2603,0.831,0,0,0,0,0.002,-0.006,0
2018,5,10,15,36,21.984,0.0705,-0.4863,-0.2603,0.831,0,0,0,-0.002,0,0.003,0
2018,5,10,15,36,22.005,0.0705,-0.4863,-0.2603,0.831,0,0,0,-0.003,0,0,0
2018,5,10,15,36,22.009,0.0705,-0.4863,-0.2603,0.8311,0,0,0,-0.008,0,0.004,0
2018,5,10,15,36,22.027,0.0705,-0.4862,-0.2603,0.8311,0,0,-0.5,-0.004,0.001,0.004,0
2018,5,10,15,36,22.05,0.0705,-0.4862,-0.2602,0.8311,0,0,0,-0.005,0,0.008,0
2018,5,10,15,36,22.068,0.0705,-0.4861,-0.2603,0.8311,0,0,0,-0.007,0.002,0,0
2018,5,10,15,36,22.088,0.0705,-0.4862,-0.2603,0.8311,0,0,0,-0.004,0.002,-0.005,0
2018,5,10,15,36,22.127,0.0705,-0.4862,-0.2603,0.8311,0,0,0,-0.003,0,-0.005,0
2018,5,10,15,36,22.147,0.0705,-0.4862,-0.2603,0.8311,0,0,0,-0.003,0.001,0.001,0
2018,5,10,15,36,22.151,0.0705,-0.4862,-0.2603,0.8311,0,0,0,-0.003,0.002,0.003,0
2018,5,10,15,36,22.17,0.0705,-0.4861,-0.2602,0.8311,0,0,0,-0.004,0.001,0.003,1023
2018,5,10,15,36,22.209,0.0705,-0.4861,-0.2602,0.8312,0,0,0,-0.004,0.004,-0.002,1023
2018,5,10,15,36,22.213,0.0705,-0.4861,-0.2602,0.8312,0,0,0,-0.004,0.001,0,1023
2018,5,10,15,36,22.23,0.0705,-0.4861,-0.2602,0.8312,0,0,0,-0.002,0.001,-0.007,1023
2018,5,10,15,36,22.25,0.0705,-0.4861,-0.2602,0.8312,0,0,0,-0.003,0.002,0.002,1023
2018,5,10,15,36,22.269,0.0705,-0.4861,-0.2602,0.8312,0,0,0,0,0.004,0,1023
2018,5,10,15,36,22.308,0.0705,-0.4861,-0.2602,0.8312,0,0,0,-0.003,0.001,-0.003,1023
2018,5,10,15,36,22.331,0.0705,-0.4862,-0.2602,0.8311,0,0,0,0,0,-0.005,1023
2018,5,10,15,36,22.335,0.0705,-0.4862,-0.2603,0.8311,0,0,0,-0.005,-0.005,-0.006,1023
2018,5,10,15,36,22.351,0.0705,-0.4862,-0.2603,0.8311,0,0,0,-0.005,0.001,0,1023
2018,5,10,15,36,22.39,0.0705,-0.4862,-0.2603,0.8311,0,0,0,-0.005,0.006,0,1023
2018,5,10,15,36,22.412,0.0705,-0.4861,-0.2603,0.8311,0,0,0,-0.004,0.005,0.001,1023
2018,5,10,15,36,22.416,0.0705,-0.4861,-0.2602,0.8312,0,0,0,-0.004,0.003,-0.002,1023
2018,5,10,15,36,22.433,0.0705,-0.4861,-0.2602,0.8312,0,0,0,-0.005,0.002,-0.003,0
2018,5,10,15,36,22.468,0.0705,-0.4861,-0.2602,0.8312,0,0,0,-0.003,0.005,0,0
2018,5,10,15,36,22.488,0.0705,-0.4861,-0.2602,0.8312,0,0,0,-0.002,0.004,0,0
2018,5,10,15,36,22.492,0.0705,-0.4861,-0.2602,0.8312,0,0,0,-0.004,0.002,-0.002,0
2018,5,10,15,36,22.527,0.0705,-0.4861,-0.2602,0.8312,0,0,0,-0.005,0.003,-0.001,0
2018,5,10,15,36,22.547,0.0705,-0.4861,-0.2602,0.8312,0,0,0,-0.004,0.001,-0.003,0
2018,5,10,15,36,22.549,0.0705,-0.4861,-0.2602,0.8312,0,0,0,-0.005,0,-0.003,0
2018,5,10,15,36,22.583,0.0705,-0.4861,-0.2602,0.8312,0,0,0,-0.003,0.001,-0.003,0
2018,5,10,15,36,22.602,0.0705,-0.4861,-0.2603,0.8311,0,0,0,-0.002,0.001,-0.003,0
2018,5,10,15,36,22.611,0.0705,-0.4861,-0.2603,0.8311,0,0,0,-0.003,0,-0.001,0
2018,5,10,15,36,22.644,0.0705,-0.4861,-0.2603,0.8311,0,0,0,-0.005,0.002,-0.003,0
2018,5,10,15,36,22.666,0.0705,-0.4861,-0.2603,0.8311,0,0,0,-0.006,0.002,-0.006,0
2018,5,10,15,36,22.674,0.0705,-0.4862,-0.2603,0.8311,0,0,0,-0.002,0,0,0
2018,5,10,15,36,22.693,0.0705,-0.4862,-0.2603,0.8311,0,0,0,-0.003,0.003,0.001,0
2018,5,10,15,36,22.716,0.0706,-0.4861,-0.2603,0.8311,0,0,0,-0.004,-0.001,0.001,0
2018,5,10,15,36,22.732,0.0706,-0.4861,-0.2603,0.8311,0,0,0,-0.004,0.005,0.004,0
2018,5,10,15,36,22.769,0.0705,-0.4861,-0.2603,0.8311,0,0,0,-0.002,0.005,0,0
2018,5,10,15,36,22.789,0.0705,-0.4861,-0.2603,0.8312,0,0,0,-0.001,0.003,-0.002,0
2018,5,10,15,36,22.792,0.0705,-0.4861,-0.2602,0.8311,0,0,0,0.003,0.002,-0.003,0
2018,5,10,15,36,22.825,0.0705,-0.4861,-0.2603,0.8311,0,0,0,-0.001,0,-0.003,0
2018,5,10,15,36,22.847,0.0705,-0.4861,-0.2603,0.8311,0.5,0.2,0,-0.001,0.005,-0.004,0
2018,5,10,15,36,22.852,0.0705,-0.4861,-0.2602,0.8311,0,0,0,-0.003,0.001,0.002,0
2018,5,10,15,36,22.886,0.0705,-0.4861,-0.2602,0.8312,0,0,0,-0.003,0.001,0.004,0
2018,5,10,15,36,22.905,0.0706,-0.4861,-0.2602,0.8312,0,0,0,-0.006,0,0.005,0
2018,5,10,15,36,22.908,0.0706,-0.486,-0.2603,0.8312,0,0,0,-0.006,0,-0.002,0
2018,5,10,15,36,22.943,0.0706,-0.4861,-0.2603,0.8312,0,0,0,-0.003,0,-0.002,0
2018,5,10,15,36,22.965,0.0706,-0.4861,-0.2603,0.8312,0,0,0,-0.003,0.003,-0.004,0
2018,5,10,15,36,22.974,0.0706,-0.4861,-0.2603,0.8311,0,-0.6,-0.2,0,0.006,0,0
2018,5,10,15,36,23.01,0.0705,-0.4862,-0.2602,0.8311,0,0,0,-0.001,0.004,0,0
2018,5,10,15,36,23.03,0.0705,-0.4862,-0.2602,0.8311,0,0,0,0,0.005,0.001,1023
2018,5,10,15,36,23.032,0.0705,-0.4862,-0.2602,0.8311,0,0,0,0,0.004,-0.001,1023
2018,5,10,15,36,23.067,0.0705,-0.4862,-0.2602,0.8312,0,0,0,-0.001,0.001,-0.004,1023
2018,5,10,15,36,23.087,0.0705,-0.4862,-0.2602,0.8311,0,0,0,0,0,-0.006,1023
2018,5,10,15,36,23.094,0.0705,-0.4862,-0.2602,0.8311,0,0,0,-0.004,0.002,-0.002,1023
2018,5,10,15,36,23.129,0.0705,-0.4862,-0.2602,0.8311,0,0,0,-0.005,0,-0.004,1023
2018,5,10,15,36,23.149,0.0705,-0.4862,-0.2602,0.8311,0,0,0,-0.002,0,0,1023
2018,5,10,15,36,23.154,0.0705,-0.4862,-0.2602,0.8311,0,0,0,-0.002,-0.001,0.003,1023
2018,5,10,15,36,23.192,0.0706,-0.4862,-0.2603,0.8311,0,0,0,-0.001,-0.002,-0.005,1023
2018,5,10,15,36,23.21,0.0706,-0.4862,-0.2603,0.8311,0,0,0,-0.002,0,-0.001,1023
2018,5,10,15,36,23.215,0.0706,-0.4862,-0.2603,0.8311,0,0,0,-0.004,0.003,-0.003,1023
2018,5,10,15,36,23.253,0.0705,-0.4862,-0.2603,0.8311,0,0,0,-0.002,0,-0.003,1023
2018,5,10,15,36,23.273,0.0706,-0.4862,-0.2603,0.8311,0,0,0,-0.004,0.003,-0.005,1023
2018,5,10,15,36,23.276,0.0706,-0.4862,-0.2603,0.8311,0,0,0,-0.002,0.005,-0.001,0
2018,5,10,15,36,23.31,0.0705,-0.4862,-0.2602,0.8311,0,0,0,-0.001,0.006,0.001,0
2018,5,10,15,36,23.33,0.0705,-0.4862,-0.2602,0.8311,0,0,0,-0.002,0.007,0,0
2018,5,10,15,36,23.336,0.0705,-0.4862,-0.2602,0.8311,0,0,0,-0.002,0.003,-0.004,0
2018,5,10,15,36,23.368,0.0705,-0.4863,-0.2602,0.8311,0,0,0,0,0.001,-0.001,0
2018,5,10,15,36,23.389,0.0705,-0.4863,-0.2602,0.8311,0,0,0,-0.002,0.001,-0.002,0
2018,5,10,15,36,23.396,0.0705,-0.4863,-0.2602,0.8311,0,0,0,-0.001,0.002,-0.006,0
2018,5,10,15,36,23.435,0.0705,-0.4863,-0.2602,0.8311,0,0,0,-0.003,0.002,-0.003,0
2018,5,10,15,36,23.439,0.0705,-0.4863,-0.2602,0.831,0,0,0,-0.004,0,-0.002,0
2018,5,10,15,36,23.456,0.0705,-0.4863,-0.2602,0.831,0,0,0,-0.003,-0.001,0.001,0
2018,5,10,15,36,23.498,0.0705,-0.4863,-0.2603,0.831,0,0,0,-0.005,0.003,-0.003,0
2018,5,10,15,36,23.502,0.0705,-0.4863,-0.2603,0.831,0,0,0,-0.003,0.002,-0.003,0
2018,5,10,15,36,23.518,0.0705,-0.4863,-0.2603,0.831,0,0,0,-0.007,0.003,-0.008,0
2018,5,10,15,36,23.54,0.0705,-0.4864,-0.2603,0.831,0,0,0,-0.002,0,-0.002,0
2018,5,10,15,36,23.56,0.0705,-0.4864,-0.2603,0.831,0,0,0,-0.003,0.004,0,0
2018,5,10,15,36,23.599,0.0705,-0.4863,-0.2603,0.831,0,0,0,-0.001,0.004,0,0
2018,5,10,15,36,23.618,0.0705,-0.4863,-0.2603,0.831,0,0,0,-0.002,0.004,0.001,0
2018,5,10,15,36,23.622,0.0705,-0.4863,-0.2602,0.831,0,0,0,-0.003,0.006,0,0
2018,5,10,15,36,23.639,0.0705,-0.4863,-0.2602,0.8311,0,0,0,-0.004,0.002,-0.001,0
2018,5,10,15,36,23.658,0.0705,-0.4863,-0.2602,0.831,0,0,0,0,0,-0.002,0
2018,5,10,15,36,23.678,0.0705,-0.4863,-0.2602,0.831,0,0,0,-0.001,0.001,0,0
2018,5,10,15,36,23.715,0.0705,-0.4863,-0.2602,0.831,0,0,0,-0.003,0.003,-0.002,0
2018,5,10,15,36,23.734,0.0705,-0.4863,-0.2602,0.831,0,0,0,-0.005,0.002,0,0
2018,5,10,15,36,23.735,0.0705,-0.4863,-0.2602,0.8311,0,0,0,-0.009,0,0,0
2018,5,10,15,36,23.77,0.0705,-0.4863,-0.2602,0.8311,0,0,0,-0.006,0,0.001,0
2018,5,10,15,36,23.789,0.0706,-0.4862,-0.2602,0.8311,0,0,0,-0.006,0,-0.002,0
2018,5,10,15,36,23.799,0.0706,-0.4863,-0.2603,0.8311,0,0,0,-0.004,0.003,-0.007,0
2018,5,10,15,36,23.833,0.0705,-0.4863,-0.2603,0.831,0,0,0,0,0.003,-0.002,0
2018,5,10,15,36,23.854,0.0705,-0.4863,-0.2602,0.831,0,0,0,0,0.004,-0.003,1023
2018,5,10,15,36,23.861,0.0705,-0.4863,-0.2602,0.831,0,0,0,0,0.006,0.004,1023
2018,5,10,15,36,23.88,0.0705,-0.4863,-0.2602,0.831,0,0,0,0,0.006,-0.002,1023
2018,5,10,15,36,23.898,0.0705,-0.4863,-0.2601,0.8311,0,0,0,-0.002,0.002,-0.002,1023
2018,5,10,15,36,23.935,0.0705,-0.4863,-0.2601,0.8311,0,0,0,-0.003,0,-0.001,1023
2018,5,10,15,36,23.955,0.0705,-0.4863,-0.2602,0.8311,0,0,0,-0.001,0,-0.004,1023
2018,5,10,15,36,23.957,0.0705,-0.4864,-0.2602,0.831,0,0,0,-0.002,0.004,0,1023
2018,5,10,15,36,23.992,0.0705,-0.4864,-0.2602,0.831,0,0,0,-0.002,0.004,-0.002,1023
2018,5,10,15,36,24.011,0.0705,-0.4864,-0.2602,0.831,0,0,0,-0.002,0,0.001,1023
2018,5,10,15,36,24.021,0.0705,-0.4863,-0.2602,0.831,0,0,0,-0.001,-0.002,-0.001,1023
2018,5,10,15,36,24.055,0.0705,-0.4863,-0.2602,0.831,0,0,0,-0.002,-0.006,0,1023
2018,5,10,15,36,24.075,0.0705,-0.4863,-0.2602,0.831,0,0,0,-0.004,0.001,0,1023
2018,5,10,15,36,24.08,0.0705,-0.4863,-0.2602,0.8311,0,0,0,-0.003,0.002,-0.002,0
2018,5,10,15,36,24.118,0.0705,-0.4863,-0.2602,0.8311,0,0,0,0,0.003,-0.002,0
2018,5,10,15,36,24.139,0.0705,-0.4863,-0.2602,0.831,0,0,0,-0.004,0.001,0,0
2018,5,10,15,36,24.147,0.0705,-0.4863,-0.2602,0.831,0,0,0,-0.003,0.004,0,0
2018,5,10,15,36,24.162,0.0705,-0.4863,-0.2602,0.8311,0,0,0,-0.005,0.004,0.001,0
2018,5,10,15,36,24.199,0.0705,-0.4863,-0.2602,0.8311,0,0,0,-0.005,0.005,0,0
2018,5,10,15,36,24.219,0.0705,-0.4863,-0.2602,0.8311,0,0,0,-0.003,0.002,-0.004,0
2018,5,10,15,36,24.223,0.0705,-0.4863,-0.2602,0.8311,0,0,0,-0.001,0.001,0,0
2018,5,10,15,36,24.262,0.0705,-0.4863,-0.2602,0.8311,-0.1,-0.5,0.1,-0.002,-0.001,-0.003,0
2018,5,10,15,36,24.282,0.0705,-0.4863,-0.2602,0.8311,0,0,0,0,-0.002,-0.002,0
2018,5,10,15,36,24.287,0.0705,-0.4863,-0.2602,0.831,0,0,0,-0.003,0,0,0
2018,5,10,15,36,24.303,0.0705,-0.4863,-0.2603,0.831,0,0,0,-0.003,-0.001,-0.003,0
2018,5,10,15,36,24.323,0.0706,-0.4863,-0.2603,0.831,0,0,0,-0.004,0.002,-0.002,0
2018,5,10,15,36,24.355,0.0706,-0.4863,-0.2603,0.831,0,0,0,-0.006,0.001,0,0
2018,5,10,15,36,24.377,0.0706,-0.4863,-0.2603,0.831,0,0,0,-0.004,0.001,-0.003,0
2018,5,10,15,36,24.379,0.0706,-0.4863,-0.2603,0.831,0,0,0,-0.001,0,0,0
2018,5,10,15,36,24.413,0.0706,-0.4863,-0.2603,0.831,0,0,0,-0.002,0,0,0
2018,5,10,15,36,24.436,0.0706,-0.4863,-0.2603,0.831,0,0,0,-0.005,0,0.005,0
2018,5,10,15,36,24.444,0.0706,-0.4862,-0.2603,0.831,0,0,0,-0.003,0.005,0,0
2018,5,10,15,36,24.482,0.0706,-0.4862,-0.2603,0.8311,0,0,0,-0.005,0.003,0.004,0
2018,5,10,15,36,24.502,0.0706,-0.4862,-0.2603,0.8311,0,0,0,-0.004,0.008,0,0
2018,5,10,15,36,24.506,0.0706,-0.4862,-0.2603,0.8311,0,0,0,-0.003,0.002,-0.002,0
2018,5,10,15,36,24.541,0.0706,-0.4862,-0.2603,0.8311,0,0,0,-0.001,0,0.001,0
2018,5,10,15,36,24.56,0.0706,-0.4862,-0.2603,0.8311,0,0,0,-0.003,0.003,0,0
2018,5,10,15,36,24.565,0.0706,-0.4862,-0.2603,0.8311,0.3,0.5,-0.1,-0.006,0,0,0
2018,5,10,15,36,24.58,0.0707,-0.4861,-0.2603,0.8311,0,0,0,-0.01,-0.002,0.003,0
2018,5,10,15,36,24.602,0.0707,-0.4861,-0.2603,0.8312,0,0,0,-0.008,-0.001,0.002,0
2018,5,10,15,36,24.636,0.0707,-0.486,-0.2604,0.8312,0,0,0,-0.006,0.003,-0.007,0
2018,5,10,15,36,24.656,0.0707,-0.486,-0.2604,0.8311,0,0,0,-0.005,0.002,-0.01,1023
2018,5,10,15,36,24.664,0.0707,-0.4861,-0.2604,0.8311,0,0,0,-0.003,0,-0.005,1023
2018,5,10,15,36,24.699,0.0707,-0.4861,-0.2604,0.8311,0,0,0,-0.002,-0.001,0.001,1023
2018,5,10,15,36,24.721,0.0707,-0.4861,-0.2604,0.8311,0,0,0,-0.001,0.001,0.002,1023
2018,5,10,15,36,24.726,0.0707,-0.4861,-0.2604,0.8311,0,0,0,-0.001,0.004,0,1023
2018,5,10,15,36,24.762,0.0707,-0.4861,-0.2604,0.8311,0,0,0,0,0.004,0,1023
2018,5,10,15,36,24.781,0.0707,-0.486,-0.2603,0.8312,0,0,0,-0.001,0,-0.004,1023
2018,5,10,15,36,24.784,0.0707,-0.4861,-0.2603,0.8312,0,0,0,0,0,-0.004,1023
2018,5,10,15,36,24.818,0.0707,-0.486,-0.2604,0.8311,0,0,0,-0.006,0.001,-0.004,1023
2018,5,10,15,36,24.84,0.0707,-0.4861,-0.2604,0.8311,0,0,0,-0.003,0.002,-0.003,1023
2018,5,10,15,36,24.847,0.0707,-0.4861,-0.2604,0.8311,0,0,0,-0.005,-0.001,-0.003,1023
2018,5,10,15,36,24.88,0.0708,-0.4861,-0.2605,0.8311,0,0,0,-0.005,0,-0.004,1023
2018,5,10,15,36,24.901,0.0708,-0.4861,-0.2605,0.8311,0,0,0,-0.004,-0.004,0.002,1023
2018,5,10,15,36,24.904,0.0708,-0.486,-0.2605,0.8311,0,0,0,-0.004,-0.004,-0.004,1023
2018,5,10,15,36,24.935,0.0708,-0.486,-0.2605,0.8311,0,0,0,-0.007,0,0,0
2018,5,10,15,36,24.957,0.0708,-0.486,-0.2605,0.8311,0,0,0,-0.006,0,0.001,0
2018,5,10,15,36,24.966,0.0708,-0.486,-0.2605,0.8311,0,0,0,-0.003,0.003,-0.001,0
2018,5,10,15,36,25.001,0.0708,-0.4859,-0.2605,0.8311,0,0,0,-0.005,0.004,0,0
2018,5,10,15,36,25.02,0.0708,-0.4859,-0.2605,0.8312,0,0,0,-0.005,0,-0.001,0
2018,5,10,15,36,25.027,0.0708,-0.4859,-0.2605,0.8312,0,0,0,-0.003,0.002,0.005,0
2018,5,10,15,36,25.062,0.0708,-0.4859,-0.2605,0.8312,0,0,0,-0.003,0.004,-0.003,0
2018,5,10,15,36,25.081,0.0708,-0.4859,-0.2604,0.8312,0,0,0,0,0.005,-0.001,0
2018,5,10,15,36,25.09,0.0708,-0.4859,-0.2604,0.8312,0,0,0,-0.005,0,-0.003,0
2018,5,10,15,36,25.125,0.0708,-0.4859,-0.2604,0.8312,0,0,0,-0.005,0.002,0,0
2018,5,10,15,36,25.144,0.0708,-0.4859,-0.2604,0.8312,0,0,0,-0.005,0.001,-0.004,0
2018,5,10,15,36,25.146,0.0708,-0.4859,-0.2604,0.8312,0,0,0,-0.003,0,-0.003,0
2018,5,10,15,36,25.182,0.0708,-0.4859,-0.2605,0.8312,0,0,0,-0.006,0.001,-0.007,0
2018,5,10,15,36,25.202,0.0708,-0.4859,-0.2605,0.8312,0,0,0,-0.006,0,-0.004,0
2018,5,10,15,36,25.208,0.0708,-0.4859,-0.2605,0.8312,0,0,0,-0.007,0.001,-0.002,0
2018,5,10,15,36,25.246,0.0708,-0.4859,-0.2605,0.8312,0,0,0,-0.005,0,-0.003,0
2018,5,10,15,36,25.267,0.0709,-0.4859,-0.2606,0.8312,0,0,0,-0.004,0.001,0,0
2018,5,10,15,36,25.27,0.0709,-0.4859,-0.2606,0.8312,0,0,0,-0.007,0.003,-0.001,0
2018,5,10,15,36,25.306,0.0709,-0.4859,-0.2606,0.8312,0,0,0,-0.005,0.005,-0.001,0
2018,5,10,15,36,25.321,0.0709,-0.4859,-0.2605,0.8312,-0.2,-0.8,-0.2,0.002,0.012,-0.007,0
2018,5,10,15,36,25.334,0.0708,-0.486,-0.2605,0.8311,-0.4,-0.6,-0.1,-0.001,0,-0.004,0
2018,5,10,15,36,25.345,0.0708,-0.4861,-0.2606,0.8311,0,0,0,0,-0.004,0,0
2018,5,10,15,36,25.381,0.0709,-0.486,-0.2605,0.8311,0.5,0,-0.2,-0.004,0.002,-0.002,0
2018,5,10,15,36,25.4,0.0709,-0.486,-0.2604,0.8311,0,0,0,-0.007,0.004,0.004,0
2018,5,10,15,36,25.41,0.0708,-0.486,-0.2604,0.8312,0,0,0,-0.008,0.004,0.001,0
2018,5,10,15,36,25.443,0.0708,-0.4859,-0.2604,0.8312,0,0,0,-0.003,0,0,0
2018,5,10,15,36,25.465,0.0708,-0.4859,-0.2604,0.8312,0,0,0,-0.003,0.003,-0.002,0
2018,5,10,15,36,25.469,0.0708,-0.4859,-0.2604,0.8312,0,0,0,-0.001,0.001,0,1023
2018,5,10,15,36,25.506,0.0708,-0.486,-0.2604,0.8312,0,0,0,0,0.002,0,1023
2018,5,10,15,36,25.528,0.0708,-0.486,-0.2604,0.8312,0,0,0,-0.002,0.001,0,1023
2018,5,10,15,36,25.535,0.0708,-0.486,-0.2603,0.8312,0,-0.5,-0.4,-0.001,0.005,-0.003,1023
2018,5,10,15,36,25.553,0.0707,-0.4861,-0.2603,0.8312,-0.1,-0.4,-0.5,0,0.006,0,1023
2018,5,10,15,36,25.573,0.0707,-0.4861,-0.2603,0.8311,0,0,0,-0.003,0.002,-0.004,1023
2018,5,10,15,36,25.59,0.0707,-0.4861,-0.2603,0.8311,0,0,0,-0.002,-0.001,-0.004,1023
2018,5,10,15,36,25.61,0.0707,-0.4861,-0.2603,0.8311,0,0,0,-0.002,-0.001,-0.001,1023
2018,5,10,15,36,25.645,0.0707,-0.4861,-0.2604,0.8311,0,0,0,-0.006,0,-0.001,1023
2018,5,10,15,36,25.665,0.0707,-0.4861,-0.2604,0.8311,0,0,0,-0.004,0.003,0.001,1023
2018,5,10,15,36,25.671,0.0708,-0.4861,-0.2604,0.8311,0,0,0,-0.003,0.005,-0.004,1023
2018,5,10,15,36,25.705,0.0708,-0.4861,-0.2604,0.8311,0,0,0,-0.002,0,0,1023
2018,5,10,15,36,25.727,0.0708,-0.4861,-0.2604,0.8311,0,0,0,-0.004,-0.003,-0.001,1023
2018,5,10,15,36,25.734,0.0708,-0.4861,-0.2604,0.8311,0,0,0,-0.005,0.001,-0.002,0
2018,5,10,15,36,25.77,0.0708,-0.4861,-0.2604,0.8311,0,0,0,-0.005,0.008,0,0
2018,5,10,15,36,25.791,0.0708,-0.4861,-0.2604,0.8311,0,0,0,-0.004,0.008,-0.002,0
2018,5,10,15,36,25.795,0.0708,-0.486,-0.2604,0.8311,0,0,0,-0.002,0.002,0.005,0
2018,5,10,15,36,25.83,0.0708,-0.486,-0.2603,0.8312,0,0,0,0,0.005,0,0
2018,5,10,15,36,25.832,0.0707,-0.486,-0.2603,0.8312,0,0,0,-0.005,0.007,0,0
2018,5,10,15,36,25.851,0.0707,-0.4861,-0.2603,0.8312,0,0,0,0.001,0.004,-0.003,0
2018,5,10,15,36,25.883,0.0707,-0.4861,-0.2603,0.8311,0,0,0,-0.004,0.001,-0.004,0
2018,5,10,15,36,25.903,0.0707,-0.4862,-0.2603,0.8311,0,0,0,-0.002,0.001,-0.008,0
2018,5,10,15,36,25.912,0.0707,-0.4862,-0.2603,0.8311,0,0,0,-0.004,0.002,-0.003,0
2018,5,10,15,36,25.946,0.0707,-0.4862,-0.2603,0.8311,0,0,0,-0.002,0.001,0,0
2018,5,10,15,36,25.966,0.0707,-0.4862,-0.2603,0.8311,0,0,0,-0.001,0.001,0,0
2018,5,10,15,36,25.974,0.0707,-0.4862,-0.2603,0.8311,0,0,0,-0.001,0.001,-0.004,0
2018,5,10,15,36,26.01,0.0707,-0.4862,-0.2603,0.831,0,0,0,0.001,0.003,-0.003,0
2018,5,10,15,36,26.031,0.0707,-0.4863,-0.2603,0.831,0,0,0,-0.001,0.002,-0.001,0
2018,5,10,15,36,26.033,0.0707,-0.4863,-0.2603,0.831,0,0,0,-0.002,0.005,0.001,0
2018,5,10,15,36,26.052,0.0707,-0.4862,-0.2603,0.8311,0,0,0,-0.004,0.009,0,0
2018,5,10,15,36,26.072,0.0707,-0.4863,-0.2602,0.8311,0,0,0,-0.003,0.003,0,0
2018,5,10,15,36,26.113,0.0706,-0.4863,-0.2602,0.8311,0,0,0,0,0.001,-0.002,0
2018,5,10,15,36,26.134,0.0706,-0.4863,-0.2602,0.831,0,0,0,0,0.004,0,0
2018,5,10,15,36,26.139,0.0706,-0.4863,-0.2602,0.831,0,0,0,-0.002,0.003,-0.001,0
2018,5,10,15,36,26.156,0.0706,-0.4863,-0.2602,0.831,0,0,0,-0.005,0,0.001,0
2018,5,10,15,36,26.174,0.0706,-0.4863,-0.2602,0.8311,0,0,0,-0.006,0.004,0.001,0
2018,5,10,15,36,26.208,0.0707,-0.4862,-0.2602,0.8311,0,0,0,-0.007,0,0,0
2018,5,10,15,36,26.229,0.0707,-0.4863,-0.2602,0.8311,0,0,0,-0.001,0.005,-0.006,0
2018,5,10,15,36,26.237,0.0707,-0.4863,-0.2602,0.8311,0,0,0,-0.003,0.003,-0.001,0
2018,5,10,15,36,26.27,0.0706,-0.4863,-0.2603,0.831,0,0,0,0,0.004,-0.006,0
2018,5,10,15,36,26.291,0.0706,-0.4863,-0.2602,0.831,0,0,0,-0.003,0.004,0,1023
2018,5,10,15,36,26.292,0.0706,-0.4863,-0.2602,0.831,0,0,0,0,0.004,0.001,1023
2018,5,10,15,36,26.33,0.0706,-0.4863,-0.2602,0.8311,0,0,0,-0.001,0.006,0.001,1023
2018,5,10,15,36,26.35,0.0706,-0.4863,-0.2601,0.8311,0,0,0,0,0.002,-0.003,1023
2018,5,10,15,36,26.355,0.0706,-0.4864,-0.2601,0.8311,0,0,0,0,0,-0.002,1023
2018,5,10,15,36,26.393,0.0706,-0.4864,-0.2601,0.831,0,0,0,-0.002,0,-0.003,1023
2018,5,10,15,36,26.412,0.0706,-0.4864,-0.2601,0.831,0,0,0,-0.003,0.003,-0.008,1023
2018,5,10,15,36,26.417,0.0706,-0.4864,-0.2601,0.831,0,0,0,-0.003,0.007,-0.005,1023
2018,5,10,15,36,26.453,0.0705,-0.4864,-0.2601,0.831,0,0,0,-0.003,0.002,-0.002,1023
2018,5,10,15,36,26.472,0.0705,-0.4864,-0.2601,0.831,0,0,0,0,0.001,-0.005,1023
2018,5,10,15,36,26.476,0.0706,-0.4864,-0.2602,0.831,0,0,0,0,-0.002,-0.003,1023
2018,5,10,15,36,26.51,0.0706,-0.4864,-0.2602,0.831,0,0,0,-0.004,0,-0.005,1023
2018,5,10,15,36,26.531,0.0706,-0.4864,-0.2602,0.831,0,0,0,-0.001,0.003,0.005,1023
2018,5,10,15,36,26.538,0.0706,-0.4864,-0.2602,0.831,0,0,0,-0.003,0.004,-0.001,1023
2018,5,10,15,36,26.573,0.0706,-0.4864,-0.2601,0.831,0,0,0,-0.001,0.003,0,0
2018,5,10,15,36,26.596,0.0705,-0.4864,-0.2601,0.831,0,0,0,-0.005,0.005,0.002,0
2018,5,10,15,36,26.597,0.0705,-0.4864,-0.2601,0.831,0,0,0,-0.001,0.006,0.004,0
2018,5,10,15,36,26.634,0.0705,-0.4864,-0.2601,0.831,0,0,0,-0.003,0.004,0.002,0
2018,5,10,15,36,26.654,0.0705,-0.4864,-0.2601,0.831,0,0,0,-0.004,0.003,0,0
2018,5,10,15,36,26.659,0.0705,-0.4865,-0.2601,0.831,0,0,0,-0.002,0,-0.003,0
2018,5,10,15,36,26.695,0.0705,-0.4865,-0.2601,0.831,0,0,0,0,0.001,-0.001,0
2018,5,10,15,36,26.714,0.0705,-0.4866,-0.2601,0.831,0,0,0,-0.003,0.003,-0.004,0
2018,5,10,15,36,26.719,0.0705,-0.4866,-0.2601,0.8309,0,0,0,0.001,-0.001,-0.003,0
2018,5,10,15,36,26.755,0.0705,-0.4866,-0.2601,0.8309,0,0,0,-0.003,0.001,-0.007,0
2018,5,10,15,36,26.773,0.0705,-0.4866,-0.2601,0.8309,0,0,0,-0.003,0.002,0,0
2018,5,10,15,36,26.775,0.0705,-0.4866,-0.2601,0.8309,0,0,0,-0.004,0,-0.004,0
2018,5,10,15,36,26.805,0.0705,-0.4866,-0.2601,0.8309,0,0,0,-0.003,0.003,-0.004,0
2018,5,10,15,36,26.827,0.0705,-0.4867,-0.2601,0.8309,0,0,0,-0.005,0.004,-0.003,0
2018,5,10,15,36,26.838,0.0705,-0.4867,-0.2601,0.8309,0,0,0,-0.002,0.001,-0.002,0
2018,5,10,15,36,26.876,0.0705,-0.4866,-0.2601,0.8309,0,0,0,-0.003,0.001,0,0
2018,5,10,15,36,26.895,0.0705,-0.4866,-0.2601,0.8309,0,0,0,-0.003,0.003,0,0
2018,5,10,15,36,26.899,0.0705,-0.4866,-0.2601,0.8309,0,0,0,0,0.004,-0.003,0
2018,5,10,15,36,26.94,0.0705,-0.4866,-0.26,0.8309,0,0,0,0.001,0,0,0
2018,5,10,15,36,26.961,0.0705,-0.4866,-0.2601,0.8309,0,0,0,0,0,0,0
2018,5,10,15,36,26.966,0.0705,-0.4866,-0.26,0.8309,0,0,0,-0.002,0.001,0.005,0
2018,5,10,15,36,26.983,0.0705,-0.4866,-0.26,0.8309,0,0,0,-0.007,0,-0.003,0
2018,5,10,15,36,27.003,0.0705,-0.4866,-0.26,0.831,0,0,0,-0.006,0.001,-0.003,0
2018,5,10,15,36,27.021,0.0705,-0.4865,-0.26,0.831,0,0,0,-0.001,0.003,-0.003,0
2018,5,10,15,36,27.04,0.0705,-0.4865,-0.26,0.831,0,0,0,-0.004,0.002,-0.006,0
2018,5,10,15,36,27.076,0.0705,-0.4866,-0.26,0.831,0,0,0,-0.002,0.002,-0.007,0
2018,5,10,15,36,27.094,0.0705,-0.4866,-0.26,0.8309,0,0,0,-0.001,0.004,-0.002,1023
2018,5,10,15,36,27.099,0.0705,-0.4866,-0.26,0.8309,0,0,0,0,0.003,-0.004,1023
2018,5,10,15,36,27.133,0.0705,-0.4866,-0.26,0.8309,0,0,0,0,0.003,-0.001,1023
2018,5,10,15,36,27.155,0.0704,-0.4866,-0.26,0.8309,0,0,0,0,0.005,0,1023
2018,5,10,15,36,27.162,0.0704,-0.4866,-0.26,0.8309,0,0,0,-0.002,0.002,0,1023
2018,5,10,15,36,27.199,0.0704,-0.4866,-0.26,0.8309,0,0,0,-0.003,-0.001,-0.004,1023
2018,5,10,15,36,27.218,0.0705,-0.4866,-0.26,0.8309,0,0,0,-0.004,-0.005,-0.002,1023
2018,5,10,15,36,27.224,0.0705,-0.4866,-0.2601,0.8309,0,0,0,-0.006,0.002,-0.003,1023
2018,5,10,15,36,27.26,0.0705,-0.4866,-0.2601,0.8309,0,0,0,-0.006,0.002,-0.002,1023
2018,5,10,15,36,27.28,0.0705,-0.4866,-0.2601,0.8309,0,0,0,-0.004,0.001,-0.001,1023
2018,5,10,15,36,27.282,0.0705,-0.4866,-0.2601,0.8309,0,0,0,-0.002,-0.002,-0.004,1023
2018,5,10,15,36,27.316,0.0705,-0.4866,-0.2601,0.8309,0,0,0,-0.003,-0.002,-0.001,1023
2018,5,10,15,36,27.337,0.0705,-0.4866,-0.2601,0.8309,0,0,0,-0.002,0,0.003,1023
2018,5,10,15,36,27.341,0.0705,-0.4866,-0.2601,0.8309,0,0,0,-0.002,0.002,-0.002,1023
2018,5,10,15,36,27.379,0.0705,-0.4866,-0.2601,0.8309,0,0,0,-0.004,0.002,0.004,1023
2018,5,10,15,36,27.4,0.0705,-0.4866,-0.2601,0.8309,0,0,0,-0.002,0.003,0,1023
2018,5,10,15,36,27.404,0.0705,-0.4866,-0.2601,0.8309,0,0,0,-0.003,0.003,-0.001,1023
2018,5,10,15,36,27.44,0.0705,-0.4866,-0.2601,0.831,0,0,0,-0.006,0.006,-0.002,1023
2018,5,10,15,36,27.46,0.0705,-0.4865,-0.2601,0.831,0,0,0,-0.004,0.006,-0.001,1023
2018,5,10,15,36,27.466,0.0705,-0.4865,-0.26,0.831,0,0,0,-0.003,0.002,-0.003,0
2018,5,10,15,36,27.5,0.0705,-0.4865,-0.26,0.831,0,0,0,-0.005,0.001,0,0
2018,5,10,15,36,27.52,0.0705,-0.4866,-0.26,0.831,0,0,0,-0.003,0,0,0
2018,5,10,15,36,27.526,0.0705,-0.4866,-0.2601,0.8309,0,0,0,-0.004,0,-0.006,0
2018,5,10,15,36,27.543,0.0705,-0.4866,-0.2601,0.8309,0,0,0,-0.001,-0.003,0,0
2018,5,10,15,36,27.565,0.0705,-0.4866,-0.2601,0.8309,0,0,0,-0.006,-0.002,-0.004,0
2018,5,10,15,36,27.598,0.0706,-0.4866,-0.2601,0.8309,0,0,0,-0.003,0,-0.002,0
2018,5,10,15,36,27.621,0.0706,-0.4866,-0.2602,0.8309,0,0,0,-0.003,-0.001,-0.002,0
2018,5,10,15,36,27.626,0.0706,-0.4865,-0.2602,0.8309,0,0,0,-0.003,0.001,-0.003,0
2018,5,10,15,36,27.661,0.0706,-0.4865,-0.2602,0.8309,0,0,0,-0.004,0.002,0.003,1023
2018,5,10,15,36,27.681,0.0706,-0.4865,-0.2602,0.8309,0,0,0,-0.001,0,0.001,1023
2018,5,10,15,36,27.686,0.0706,-0.4865,-0.2602,0.831,0,0,0,-0.005,0.003,-0.001,1023
2018,5,10,15,36,27.725,0.0706,-0.4864,-0.2601,0.831,0,0,0,-0.006,0.005,0.004,1023
2018,5,10,15,36,27.745,0.0706,-0.4864,-0.2601,0.831,0,0,0,-0.007,0.003,0,1023
2018,5,10,15,36,27.748,0.0706,-0.4864,-0.2601,0.831,0,0,0,-0.006,0,0,1023
2018,5,10,15,36,27.788,0.0706,-0.4864,-0.2601,0.831,0,0,0,-0.007,0.003,-0.003,0
2018,5,10,15,36,27.808,0.0706,-0.4864,-0.2601,0.831,0,0,0,0,0.002,-0.003,0
2018,5,10,15,36,27.812,0.0706,-0.4864,-0.2602,0.831,-0.6,-0.1,-0.4,0,0,-0.003,0
2018,5,10,15,36,27.827,0.0705,-0.4865,-0.2602,0.831,0,0,0,0.003,-0.004,-0.001,0
2018,5,10,15,36,27.866,0.0705,-0.4865,-0.2602,0.8309,0,0,0,0.003,-0.002,0.002,0
2018,5,10,15,36,27.888,0.0705,-0.4865,-0.2602,0.8309,0,0,0,-0.002,0,-0.001,0
2018,5,10,15,36,27.892,0.0706,-0.4864,-0.2602,0.831,0.5,0.5,0,-0.006,0,-0.002,0
2018,5,10,15,36,27.909,0.0706,-0.4863,-0.2602,0.8311,0,0,0,-0.012,0.005,-0.001,0
2018,5,10,15,36,27.928,0.0706,-0.4863,-0.2602,0.8311,0,0,0,-0.012,0.006,0,0
2018,5,10,15,36,27.968,0.0706,-0.4862,-0.2601,0.8311,0,0,0,-0.015,0.007,0.006,0
2018,5,10,15,36,27.99,0.0707,-0.4862,-0.2602,0.8311,0,-0.8,-0.2,-0.011,0.001,0.004,0
2018,5,10,15,36,27.995,0.0707,-0.4863,-0.2601,0.8311,0,-1.1,0,-0.01,0.002,0.013,0
2018,5,10,15,36,28.013,0.0708,-0.4864,-0.2601,0.831,-0.2,-1.9,0,-0.014,0.002,0.011,0
2018,5,10,15,36,28.03,0.071,-0.4865,-0.2601,0.8309,-0.1,-2.2,-0.3,-0.015,-0.007,0.007,0
2018,5,10,15,36,28.051,0.0711,-0.4867,-0.2601,0.8308,0.7,-2.5,-0.2,-0.022,-0.005,0.017,0
2018,5,10,15,36,28.071,0.0714,-0.4869,-0.2599,0.8307,0.6,-3.3,0.1,-0.028,0,0.018,0
2018,5,10,15,36,28.09,0.0718,-0.4871,-0.2598,0.8306,0.1,-4.6,0.2,-0.034,-0.002,0.03,0
2018,5,10,15,36,28.13,0.0723,-0.4874,-0.2597,0.8304,0.4,-6.1,0.2,-0.053,-0.013,0.053,0
2018,5,10,15,36,28.15,0.073,-0.4877,-0.2597,0.8302,0.6,-8.1,0,-0.063,-0.014,0.055,0
2018,5,10,15,36,28.154,0.0737,-0.4883,-0.2595,0.8298,0.1,-10.1,0.3,-0.067,-0.009,0.069,0
2018,5,10,15,36,28.189,0.0746,-0.4892,-0.2594,0.8293,-0.1,-11.8,0.6,-0.064,-0.006,0.06,0
2018,5,10,15,36,28.211,0.0756,-0.4902,-0.2594,0.8286,-0.3,-13.9,0.7,-0.076,-0.011,0.079,0
2018,5,10,15,36,28.215,0.0767,-0.4915,-0.2593,0.8277,-0.8,-17.2,1.1,-0.073,0.012,0.079,1023
2018,5,10,15,36,28.235,0.0777,-0.4935,-0.2593,0.8264,-6.5,-22,3.2,-0.07,0.07,0.107,1023
2018,5,10,15,36,28.255,0.0784,-0.4966,-0.2605,0.8242,-14.4,-26.6,4.4,-0.05,0.057,0.063,1023
2018,5,10,15,36,28.268,0.0787,-0.5003,-0.2628,0.8212,-22.1,-28.2,4.9,-0.052,0.035,0.004,1023
2018,5,10,15,36,28.31,0.0789,-0.5041,-0.2664,0.8176,-19.9,-27.1,2.5,-0.061,-0.1,-0.002,1023
2018,5,10,15,36,28.33,0.0795,-0.5076,-0.2692,0.8145,-13.6,-26.3,-0.7,-0.057,-0.11,0.003,0
2018,5,10,15,36,28.334,0.08,-0.5113,-0.27,0.8119,-1.3,-25.7,-2.7,-0.068,-0.103,0.006,0
2018,5,10,15,36,28.353,0.0814,-0.5146,-0.2699,0.8097,1,-27.1,-3.1,-0.054,-0.061,0.03,0
2018,5,10,15,36,28.372,0.083,-0.5184,-0.2696,0.8072,-1.6,-32.2,-1.1,-0.083,-0.081,0.071,0
2018,5,10,15,36,28.394,0.0842,-0.5233,-0.27,0.8038,-6,-38,-0.3,-0.087,-0.126,0.054,0
2018,5,10,15,36,28.413,0.086,-0.5288,-0.2695,0.8001,1.3,-41.8,-0.4,-0.096,-0.138,0.065,0
2018,5,10,15,36,28.452,0.089,-0.5346,-0.2674,0.7966,22,-43.9,0.7,-0.055,-0.031,0.12,0
2018,5,10,15,36,28.472,0.0934,-0.5394,-0.2633,0.7943,35.6,-32.5,-3.2,0.002,-0.133,-0.037,0
2018,5,10,15,36,28.477,0.0995,-0.5426,-0.2557,0.7938,70.1,-32.1,-2.7,-0.303,-0.204,0.239,0
2018,5,10,15,36,28.492,0.1107,-0.5454,-0.2423,0.7946,112.4,-38.8,16.4,-0.442,0.042,0.187,0
2018,5,10,15,36,28.531,0.1285,-0.5474,-0.2251,0.7956,153.7,-42,29.6,-0.426,0.01,0.149,0
2018,5,10,15,36,28.55,0.1498,-0.5485,-0.2055,0.7964,152.7,-47.2,36.7,-0.531,0.047,0.326,1023
2018,5,10,15,36,28.554,0.1717,-0.5498,-0.1859,0.7959,156.2,-53,42.1,-0.419,0.211,0.466,1023
2018,5,10,15,36,28.572,0.1944,-0.552,-0.1687,0.793,134.7,-66.6,55.5,-0.486,0.316,0.388,1023
2018,5,10,15,36,28.595,0.2174,-0.5554,-0.1538,0.7877,126,-75.1,65.2,-0.48,0.366,0.201,1023
2018,5,10,15,36,28.633,0.2404,-0.5603,-0.1424,0.7796,98.6,-92.4,78.5,-0.483,0.301,0.224,1023
2018,5,10,15,36,28.653,0.2631,-0.5691,-0.1346,0.7672,76,-122.6,94.4,-0.405,0.201,0.249,1023
2018,5,10,15,36,28.657,0.2869,-0.5816,-0.1291,0.75,65.4,-151.7,109.9,-0.39,0.099,0.193,1023
2018,5,10,15,36,28.677,0.3122,-0.5971,-0.1243,0.7283,62.6,-177.1,124.6,-0.386,0.042,0.118,1023
2018,5,10,15,36,28.696,0.3397,-0.6141,-0.1192,0.7022,70.6,-200.2,137.5,-0.485,-0.058,0.062,0
2018,5,10,15,36,28.716,0.3696,-0.6316,-0.1124,0.6721,96.7,-219.3,143.6,-0.544,-0.399,-0.07,0
2018,5,10,15,36,28.753,0.405,-0.6454,-0.0991,0.6399,161,-223.6,145,-0.488,-0.542,-0.182,0
2018,5,10,15,36,28.757,0.4465,-0.6528,-0.0785,0.6068,223.9,-221.3,147.3,-0.466,-0.519,-0.172,0
2018,5,10,15,36,28.775,0.494,-0.6523,-0.0514,0.5724,282.1,-218.8,155.8,-0.475,-0.371,-0.114,0
2018,5,10,15,36,28.813,0.5468,-0.6436,-0.02,0.5349,343.6,-214.6,171.7,-0.535,-0.223,0.023,0
2018,5,10,15,36,28.835,0.6017,-0.628,0.011,0.4932,335.3,-205.5,199.2,-0.518,0.182,0.003,0
2018,5,10,15,36,28.839,0.6521,-0.6111,0.034,0.4472,278.8,-185.8,233,-0.583,0.365,-0.081,0
2018,5,10,15,36,28.855,0.6961,-0.5955,0.0473,0.3981,254.3,-166.7,255.6,-0.842,0.015,0.003,0
2018,5,10,15,36,28.895,0.7374,-0.5771,0.0563,0.3462,226.1,-158.6,274,-1.023,-0.01,0.165,0
2018,5,10,15,36,28.916,0.7692,-0.5655,0.0585,0.2914,124.5,-161.8,292.8,-1.018,0.069,0.092,0
2018,5,10,15,36,28.92,0.7892,-0.5651,0.0551,0.2337,35.3,-167.3,303.5,-0.927,0.149,-0.011,0
2018,5,10,15,36,28.937,0.7955,-0.5782,0.0473,0.1745,-98.2,-176.8,308,-0.903,0.337,-0.196,0
2018,5,10,15,36,28.955,0.787,-0.6052,0.0387,0.113,-154.5,-214.3,310.4,-1.047,0.051,-0.277,0
2018,5,10,15,36,28.976,0.7797,-0.6232,0.0338,0.0492,-43.4,-205.4,296.4,-0.924,-0.877,-0.343,0
2018,5,10,15,36,28.995,0.7807,-0.624,0.029,-0.0101,56.8,-179.1,275.7,-0.667,-0.745,-0.263,0
2018,5,10,15,36,29.033,0.787,-0.613,0.0222,-0.0652,90.9,-156.3,258.9,-0.546,-0.482,-0.045,0
2018,5,10,15,36,29.053,0.7903,-0.6013,0.0153,-0.1159,51.2,-152.5,243.1,-0.749,-0.022,0.028,0
2018,5,10,15,36,29.057,0.7868,-0.5943,0.0129,-0.1655,7,-182.7,224.1,-0.785,-0.396,-0.154,0
2018,5,10,15,36,29.078,0.7796,-0.5876,0.019,-0.2152,-8.9,-214.4,194.5,-0.271,-0.922,-0.815,0
2018,5,10,15,36,29.097,0.7687,-0.5838,0.0302,-0.2592,-42.1,-189.9,145.6,0.07,-0.627,-0.967,0
2018,5,10,15,36,29.135,0.7562,-0.5847,0.0459,-0.29,-69.4,-158.5,62.2,-0.145,-0.476,-0.411,0
2018,5,10,15,36,29.155,0.7535,-0.5771,0.0639,-0.308,56.7,-143.2,-15,-0.231,-0.337,-0.439,1023
2018,5,10,15,36,29.159,0.7607,-0.5595,0.0805,-0.3187,75.7,-130.2,-28,0.466,1.144,-0.678,1023
2018,5,10,15,36,29.197,0.7636,-0.5463,0.0963,-0.3301,13.5,-125.2,2.1,-0.216,0.958,-1.455,1023
2018,5,10,15,36,29.201,0.7617,-0.5382,0.1079,-0.3439,-46.1,-93.8,-2.7,-1.667,-1.938,0.809,1023
2018,5,10,15,36,29.218,0.7583,-0.5376,0.162,-0.3309,81.3,-53.3,-345.9,1.252,2.528,-1.598,1023
2018,5,10,15,36,29.254,0.791,-0.4925,0.1903,-0.309,300.2,-133.9,-231.1,0.338,-2.299,0.524,1023
2018,5,10,15,36,29.273,0.8152,-0.4424,0.2149,-0.3054,110.7,-203,-111,0.919,1.686,2.493,1023
2018,5,10,15,36,29.277,0.81,-0.4333,0.2438,-0.3108,-99.3,-115,-9.8,0.998,1.254,-1.518,1023
2018,5,10,15,36,29.298,0.7961,-0.4533,0.2454,-0.3167,-60.5,70.5,91.4,-0.693,-1.108,-0.757,1023
2018,5,10,15,36,29.318,0.803,-0.4518,0.2276,-0.3147,136.5,97,-25,-0.618,0.777,0.974,1023
2018,5,10,15,36,29.356,0.8087,-0.4493,0.2219,-0.3078,-76.5,16.7,-40.5,-0.136,0.455,0.576,1023
2018,5,10,15,36,29.377,0.8034,-0.4617,0.229,-0.298,-89.5,5.6,-25.8,-0.069,-0.025,-0.244,1023
2018,5,10,15,36,29.381,0.7993,-0.4691,0.2313,-0.2955,5.6,-4.7,21.2,0.34,-0.137,-0.634,1023
2018,5,10,15,36,29.401,0.7993,-0.4652,0.2286,-0.3037,42.3,-29.8,52.8,0.433,-0.056,0.073,1023
2018,5,10,15,36,29.42,0.7928,-0.4667,0.2297,-0.3172,-62.6,-51.2,81.3,0.323,0.213,0.275,0
2018,5,10,15,36,29.46,0.7839,-0.4747,0.2322,-0.3256,-45.7,-25,41.9,-0.41,-0.204,-0.106,0
2018,5,10,15,36,29.481,0.7795,-0.4778,0.2324,-0.3314,4.4,-7.4,34.7,-0.118,-0.381,-0.431,0
2018,5,10,15,36,29.485,0.7807,-0.4743,0.2277,-0.3369,59.3,2,25.9,0.382,-0.167,-0.221,0
2018,5,10,15,36,29.499,0.7836,-0.4669,0.2242,-0.3429,47.3,-26,18.8,0.532,0.026,-0.183,0
2018,5,10,15,36,29.519,0.7848,-0.4597,0.2247,-0.3493,47.6,-29.7,13,0.281,-0.068,-0.173,0
2018,5,10,15,36,29.539,0.7872,-0.4529,0.2231,-0.354,30.8,-1.5,8.2,-0.171,-0.025,0.068,0
2018,5,10,15,36,29.58,0.7854,-0.4559,0.2238,-0.3536,-63.7,-2.4,3.3,-0.306,0.339,0.145,0
2018,5,10,15,36,29.601,0.7768,-0.4674,0.2306,-0.3534,-97.6,-36.3,25.5,-0.427,0.105,-0.017,0
2018,5,10,15,36,29.605,0.7651,-0.4764,0.2412,-0.3595,-67.6,-79.3,36.9,-0.149,-0.196,-0.315,0
2018,5,10,15,36,29.622,0.7557,-0.4781,0.2532,-0.3688,-19.1,-87.5,19.1,-0.077,-0.068,-0.088,0
2018,5,10,15,36,29.643,0.7544,-0.4701,0.2595,-0.3774,80.6,-50.6,-2.9,0.042,-0.078,0.219,0
2018,5,10,15,36,29.663,0.7639,-0.4521,0.2544,-0.3836,139.3,5.2,-4.7,0.102,0.752,0.612,0
2018,5,10,15,36,29.685,0.7724,-0.4382,0.2447,-0.389,56.2,1.6,15.5,0.058,1.203,0.973,0
2018,5,10,15,36,29.704,0.7703,-0.4398,0.2455,-0.3908,-41.5,-11.1,16.1,0.18,-0.133,0.554,0
2018,5,10,15,36,29.721,0.7669,-0.4427,0.2478,-0.3928,-7.3,-14.1,7.6,-0.19,-0.22,0.029,0
2018,5,10,15,36,29.74,0.7658,-0.4427,0.2498,-0.3935,-12.9,-13.5,-6.9,-0.367,0.117,-0.253,0
2018,5,10,15,36,29.78,0.7644,-0.4441,0.2542,-0.392,-32,-13.6,-18,-0.022,0.333,-0.105,0
2018,5,10,15,36,29.799,0.7623,-0.4469,0.2594,-0.3895,-54.3,-16,-1,0.077,-0.076,0.232,1023
2018,5,10,15,36,29.803,0.7533,-0.4559,0.2678,-0.391,-100.4,-55.5,33,-0.161,-0.03,0.05,1023
2018,5,10,15,36,29.823,0.7365,-0.4698,0.2828,-0.3957,-146.8,-80,44.2,-0.084,-0.428,-0.457,1023
2018,5,10,15,36,29.843,0.7191,-0.4824,0.2981,-0.4015,-94.9,-75.4,38.7,-0.028,-0.428,-0.44,1023
2018,5,10,15,36,29.863,0.71,-0.4842,0.3064,-0.4091,21.7,-53.9,26,0.011,-0.254,-0.383,1023
2018,5,10,15,36,29.886,0.7131,-0.4732,0.3039,-0.4185,117.8,-19.3,13.3,0.055,-0.108,-0.233,1023
2018,5,10,15,36,29.902,0.723,-0.4566,0.2938,-0.4269,126.4,6.7,4.6,0.035,0.144,0.14,1023
2018,5,10,15,36,29.942,0.7317,-0.4447,0.2845,-0.431,81.3,17.2,-3.3,-0.033,0.272,0.218,1023
2018,5,10,15,36,29.962,0.7379,-0.4377,0.2781,-0.4317,48.2,19.2,-10.2,-0.005,0.047,0.029,1023
2018,5,10,15,36,29.967,0.7439,-0.4322,0.2723,-0.4307,63.7,26.8,-16.1,0.006,-0.02,-0.087,1023
2018,5,10,15,36,29.982,0.7513,-0.426,0.265,-0.4285,46.4,36.6,-24.2,-0.056,0.155,0.099,1023
2018,5,10,15,36,30.019,0.7571,-0.4242,0.2602,-0.4231,5.8,36.6,-31.7,-0.13,0.295,0.253,0
2018,5,10,15,36,30.037,0.7596,-0.4273,0.2595,-0.4157,-37.3,29,-30.2,-0.008,0.257,0.213,0
2018,5,10,15,36,30.041,0.7585,-0.4356,0.2621,-0.4076,-72.9,24.7,-23.2,0.005,0.11,0.129,0
2018,5,10,15,36,30.082,0.7554,-0.4459,0.2654,-0.3999,-79.4,23.1,-17.8,-0.055,0.044,0.059,0
2018,5,10,15,36,30.102,0.7517,-0.4567,0.2683,-0.3928,-69.2,23.1,-13.9,-0.183,-0.057,0.065,0
2018,5,10,15,36,30.106,0.7484,-0.4658,0.2704,-0.3869,-55.4,16.7,-13.4,-0.122,-0.044,0.021,0
2018,5,10,15,36,30.127,0.746,-0.4724,0.2715,-0.3826,-29.9,14.2,-10.4,-0.156,-0.037,0.026,0
2018,5,10,15,36,30.145,0.7459,-0.475,0.2716,-0.3796,-8.2,11.7,-7.4,-0.194,0.019,0.088,0
2018,5,10,15,36,30.168,0.7463,-0.4759,0.2713,-0.3779,-2,3.9,-4.3,-0.172,0.022,0.076,0
2018,5,10,15,36,30.189,0.7463,-0.4758,0.2716,-0.3778,-2.7,-5.8,-1.6,-0.081,0.035,0.021,0
2018,5,10,15,36,30.208,0.7454,-0.4757,0.2733,-0.3784,-10.2,-15.2,1,0.083,0.06,0,0
2018,5,10,15,36,30.225,0.7436,-0.4757,0.277,-0.3792,-9,-21.5,4.6,0.117,-0.088,-0.005,0
2018,5,10,15,36,30.244,0.7421,-0.4746,0.2796,-0.3818,6.9,-20.8,8.3,0.176,0.055,-0.029,0
2018,5,10,15,36,30.267,0.7415,-0.4722,0.2805,-0.3852,14.1,-18.5,9.6,0.181,0.04,-0.027,0
2018,5,10,15,36,30.288,0.7409,-0.4701,0.2815,-0.3883,5.1,-16.8,7.7,0.158,-0.018,-0.078,0
2018,5,10,15,36,30.307,0.7396,-0.4696,0.2829,-0.3902,-8.3,-12.1,5.2,0.111,0.023,-0.117,0
2018,5,10,15,36,30.326,0.7369,-0.4724,0.2855,-0.3899,-43.7,-5.8,0.4,0.079,0.041,-0.101,0
2018,5,10,15,36,30.366,0.7319,-0.4795,0.2902,-0.3872,-67.5,-2.4,-3.3,0.113,-0.006,-0.142,0
2018,5,10,15,36,30.368,0.7268,-0.4873,0.2949,-0.3837,-41.5,0.4,-2.1,0.012,-0.066,-0.075,0
2018,5,10,15,36,30.388,0.7249,-0.4905,0.2962,-0.3821,-3.2,5.2,-0.3,-0.001,-0.07,-0.033,0
2018,5,10,15,36,30.408,0.7256,-0.4904,0.295,-0.3818,13.2,7,-0.3,-0.003,-0.04,-0.052,1023
2018,5,10,15,36,30.423,0.7269,-0.4896,0.2936,-0.3814,13.2,8.3,-2.3,-0.003,-0.053,-0.041,1023
2018,5,10,15,36,30.46,0.7288,-0.488,0.2918,-0.3812,18.3,5.8,-2.2,0.013,0.03,0.007,1023
2018,5,10,15,36,30.482,0.7306,-0.4858,0.2903,-0.3819,17.5,0.5,1.1,0.003,0.013,0.015,1023
2018,5,10,15,36,30.486,0.732,-0.4835,0.2887,-0.3832,18.6,-0.5,2.7,-0.012,0.012,0.011,1023
2018,5,10,15,36,30.526,0.7334,-0.4812,0.2873,-0.3845,18.1,-0.7,1.2,-0.014,0.003,0.005,1023
2018,5,10,15,36,30.544,0.7349,-0.4788,0.2859,-0.3856,20.9,0.6,-0.1,-0.004,0.017,0.002,1023
2018,5,10,15,36,30.549,0.7369,-0.4759,0.2842,-0.3867,22.5,0.8,0.2,0.008,0.026,0.002,1023
2018,5,10,15,36,30.568,0.739,-0.4728,0.2824,-0.388,25.8,1.4,2.2,0.005,0.025,0.005,1023
2018,5,10,15,36,30.606,0.7412,-0.4695,0.28,-0.3895,28.3,2.5,1.6,-0.008,0.011,-0.003,1023
2018,5,10,15,36,30.628,0.7438,-0.4659,0.2773,-0.3907,30.1,5.5,-1,-0.015,0.002,0.013,1023
2018,5,10,15,36,30.632,0.7466,-0.4624,0.2745,-0.3914,25.5,6.3,-2.7,0,0.06,0.04,0
2018,5,10,15,36,30.65,0.7491,-0.4593,0.2723,-0.392,10.9,1.9,-0.4,0.002,0.122,0.101,0
2018,5,10,15,36,30.672,0.7496,-0.4582,0.2717,-0.3927,-7.3,-4.1,3.2,-0.008,0.074,0.068,0
2018,5,10,15,36,30.693,0.7481,-0.4595,0.2729,-0.3931,-23.1,-7.4,2.8,-0.017,0.044,0.044,0
2018,5,10,15,36,30.712,0.7455,-0.4625,0.2753,-0.3928,-30.5,-7.6,1,-0.013,0.019,0.011,0
2018,5,10,15,36,30.73,0.7427,-0.4661,0.2782,-0.3919,-27.4,-4.4,-0.7,0.001,-0.012,-0.023,0
2018,5,10,15,36,30.75,0.7406,-0.469,0.2804,-0.3908,-17.5,-1.6,-0.7,0.019,-0.027,-0.047,0
2018,5,10,15,36,30.77,0.7393,-0.4709,0.2817,-0.39,-8.4,0.6,0.1,0.006,-0.02,-0.027,0
2018,5,10,15,36,30.806,0.7389,-0.4718,0.2818,-0.3897,-1.5,1.9,0,-0.007,0,-0.008,0
2018,5,10,15,36,30.826,0.739,-0.472,0.2815,-0.3894,2.5,2.9,-1,-0.006,-0.014,-0.02,0
2018,5,10,15,36,30.83,0.7395,-0.4717,0.281,-0.3892,5.4,3.2,-1.6,-0.003,0.011,0.01,0
2018,5,10,15,36,30.852,0.7404,-0.4707,0.2802,-0.3893,3.6,0.4,-0.8,-0.001,0.114,0.057,0
2018,5,10,15,36,30.872,0.7406,-0.4702,0.28,-0.3896,-7.9,-2.8,1,0.009,0.032,0.056,0
2018,5,10,15,36,30.91,0.7395,-0.4713,0.281,-0.3897,-12.7,-4.1,1.9,0.001,0.012,0.003,0
2018,5,10,15,36,30.914,0.7382,-0.4726,0.2821,-0.3897,-9.1,-4.3,2.6,0,-0.017,-0.017,0
2018,5,10,15,36,30.931,0.7371,-0.4736,0.283,-0.3901,-4.5,-3.3,3.3,-0.001,-0.017,-0.025,0
2018,5,10,15,36,30.95,0.7365,-0.474,0.2832,-0.3904,1,-0.5,1.4,-0.007,-0.006,-0.019,0
2018,5,10,15,36,30.968,0.7368,-0.4739,0.2828,-0.3905,5.2,3.1,-1.4,-0.011,-0.001,-0.011,0
2018,5,10,15,36,31.007,0.7377,-0.4732,0.2819,-0.3901,6.8,4.6,-3.7,0,0.016,0.005,0
2018,5,10,15,36,31.026,0.7387,-0.4724,0.2812,-0.3897,5.5,3.6,-2.5,0.009,0.022,0.012,1023
2018,5,10,15,36,31.03,0.7395,-0.4718,0.2806,-0.3895,4.9,1.9,0,0,0.018,0.008,1023
2018,5,10,15,36,31.069,0.7399,-0.4712,0.28,-0.3899,4.5,0.2,0.8,-0.008,0.016,0.005,1023
2018,5,10,15,36,31.089,0.7402,-0.4706,0.2795,-0.3902,5.3,0.4,0.2,-0.004,0.003,-0.004,1023
2018,5,10,15,36,31.093,0.7408,-0.4698,0.279,-0.3904,9.7,1,-0.3,0,-0.001,-0.016,1023
2018,5,10,15,36,31.112,0.7419,-0.4684,0.2779,-0.3908,16.9,3.1,-0.2,0.006,-0.012,-0.021,1023
2018,5,10,15,36,31.135,0.7437,-0.4662,0.2761,-0.3914,21.5,5.3,-0.7,0,-0.006,-0.014,1023
2018,5,10,15,36,31.155,0.7457,-0.464,0.274,-0.3916,18.5,6.6,-2.2,-0.007,0.013,0.01,1023
2018,5,10,15,36,31.175,0.7476,-0.4621,0.272,-0.3917,14.9,6.4,-2.6,-0.009,0.03,0.016,1023
2018,5,10,15,36,31.19,0.7493,-0.4603,0.2703,-0.3917,13.4,4.9,-2.3,-0.01,0.039,0.018,1023
2018,5,10,15,36,31.228,0.7507,-0.4588,0.2689,-0.3917,9.7,3.9,-1.7,-0.007,0.025,0.013,1023
2018,5,10,15,36,31.248,0.7518,-0.4577,0.2678,-0.3917,10.3,3.6,-1.7,0.014,-0.001,0,0
2018,5,10,15,36,31.252,0.7528,-0.4568,0.2668,-0.3915,4.7,4.5,-2.5,0.009,-0.005,0.005,0
2018,5,10,15,36,31.273,0.7535,-0.4564,0.2659,-0.3911,4.2,4.6,-2.3,0.018,0.002,0.005,0
2018,5,10,15,36,31.293,0.7544,-0.4557,0.2652,-0.3907,8,3.9,-2,0.024,-0.004,0.009,0
2018,5,10,15,36,31.328,0.7554,-0.4547,0.2641,-0.3907,6.8,3.6,-0.6,-0.004,-0.004,0.001,0
2018,5,10,15,36,31.349,0.7566,-0.4531,0.2629,-0.3911,14.3,2.5,0,0.002,0.018,0.005,0
2018,5,10,15,36,31.354,0.7577,-0.4516,0.2617,-0.3915,9.1,2.5,-0.3,-0.001,0.019,0.013,0
2018,5,10,15,36,31.394,0.7585,-0.4506,0.2608,-0.3917,5.9,2,-0.5,-0.005,0.025,0.011,0
2018,5,10,15,36,31.413,0.7592,-0.4498,0.26,-0.3918,6.3,1.6,-0.3,-0.005,0.014,0.003,0
2018,5,10,15,36,31.417,0.7598,-0.4491,0.2594,-0.3919,5.3,1.3,-0.3,-0.003,0.012,0.002,0
2018,5,10,15,36,31.435,0.7603,-0.4484,0.2588,-0.3921,4.2,1.4,-0.5,-0.004,0.019,0.009,0
2018,5,10,15,36,31.452,0.7606,-0.4482,0.2585,-0.3919,-1.8,2,-0.8,0.023,-0.073,0.008,0
2018,5,10,15,36,31.491,0.7608,-0.448,0.2583,-0.3918,1.2,1,-0.7,0.002,0.023,0.008,0
2018,5,10,15,36,31.51,0.761,-0.4478,0.2581,-0.3918,1.6,0.7,-0.1,-0.002,0.013,0.002,0
2018,5,10,15,36,31.514,0.7612,-0.4476,0.2579,-0.3919,2.6,0.5,-0.1,-0.001,0.01,-0.002,0
2018,5,10,15,36,31.551,0.7615,-0.4472,0.2575,-0.3919,2.6,0.8,-0.5,0,0.013,0.002,0
2018,5,10,15,36,31.572,0.7618,-0.4469,0.2573,-0.3919,2,0.8,-0.6,-0.003,0.016,0.003,0
2018,5,10,15,36,31.576,0.7621,-0.4466,0.257,-0.3919,1.2,1.1,-0.6,0,0.015,-0.003,0
2018,5,10,15,36,31.597,0.7622,-0.4465,0.2568,-0.3918,-1.2,1.5,-0.3,-0.05,0.124,-0.011,0
2018,5,10,15,36,31.617,0.7623,-0.4466,0.2567,-0.3916,1.6,0.8,-0.9,0.002,0.022,0.002,1023
2018,5,10,15,36,31.637,0.7625,-0.4464,0.2566,-0.3916,1.2,0.5,-0.3,0.002,0.011,0.001,1023
2018,5,10,15,36,31.656,0.7626,-0.4462,0.2564,-0.3916,1.1,0.2,0.1,-0.002,0.011,-0.003,1023
2018,5,10,15,36,31.675,0.7628,-0.446,0.2563,-0.3917,1.1,0,0.2,0,0.016,0.002,1023
2018,5,10,15,36,31.696,0.7628,-0.4459,0.2561,-0.3917,0.6,-0.1,0,-0.002,0.012,0,1023
2018,5,10,15,36,31.715,0.7629,-0.4458,0.256,-0.3918,0.9,0.2,0,-0.002,0.014,0.001,1023
2018,5,10,15,36,31.755,0.763,-0.4457,0.2559,-0.3918,0,0,0,0,0.015,0,1023
2018,5,10,15,36,31.775,0.763,-0.4457,0.2559,-0.3918,-0.7,0,-0.2,0,0.014,-0.002,1023
2018,5,10,15,36,31.779,0.763,-0.4457,0.2559,-0.3918,0,0,0,-0.003,0.011,-0.002,1023
2018,5,10,15,36,31.8,0.763,-0.4457,0.2559,-0.3918,0,0,0,-0.003,0.01,-0.002,1023
2018,5,10,15,36,31.82,0.7631,-0.4456,0.2558,-0.3918,0.9,0.1,-0.1,-0.001,0.01,-0.004,1023
2018,5,10,15,36,31.838,0.7632,-0.4455,0.2557,-0.3918,0.6,0.2,0,-0.002,0.011,0,1023
2018,5,10,15,36,31.876,0.7633,-0.4454,0.2556,-0.3919,0.9,0.2,-0.1,-0.001,0.014,-0.003,0
2018,5,10,15,36,31.896,0.7634,-0.4452,0.2554,-0.3919,0.7,0.1,-0.1,0,0.011,-0.002,0
2018,5,10,15,36,31.9,0.7634,-0.4452,0.2554,-0.3919,0,0,0,-0.001,0.016,0.001,0
2018,5,10,15,36,31.919,0.7634,-0.4451,0.2554,-0.3919,0,0,0,0,0.009,-0.002,0
2018,5,10,15,36,31.936,0.7634,-0.4452,0.2554,-0.3919,0,0,0,0,0.008,-0.006,0
2018,5,10,15,36,31.97,0.7634,-0.4452,0.2553,-0.392,0,0,0,-0.001,0.01,-0.005,0
2018,5,10,15,36,31.99,0.7634,-0.4451,0.2553,-0.392,0,0,0,-0.003,0.016,-0.002,0
2018,5,10,15,36,31.999,0.7635,-0.4451,0.2553,-0.392,0,0,0,-0.001,0.012,0,0
2018,5,10,15,36,32.018,0.7635,-0.4451,0.2553,-0.392,0.6,0,0,0,0.01,-0.001,0
2018,5,10,15,36,32.037,0.7635,-0.445,0.2552,-0.3921,0.6,-0.1,-0.2,-0.001,0.011,-0.002,0
2018,5,10,15,36,32.076,0.7636,-0.4449,0.2551,-0.3921,0.9,0,0,-0.001,0.009,-0.001,0
2018,5,10,15,36,32.097,0.7637,-0.4447,0.255,-0.3921,0.8,0,0,-0.002,0.01,-0.002,0
2018,5,10,15,36,32.101,0.7638,-0.4446,0.2549,-0.3922,0,0,0,-0.002,0.013,0.004,0
2018,5,10,15,36,32.121,0.7638,-0.4446,0.2549,-0.3922,-0.5,0,0,-0.002,0.009,-0.002,0
2018,5,10,15,36,32.139,0.7638,-0.4446,0.2548,-0.3922,0,0,0,0,0.009,-0.005,0
2018,5,10,15,36,32.158,0.7638,-0.4446,0.2548,-0.3922,0,0,0,0,0.01,-0.005,0
2018,5,10,15,36,32.198,0.7639,-0.4445,0.2548,-0.3922,0.9,0.1,-0.1,0,0.008,-0.004,0
2018,5,10,15,36,32.218,0.764,-0.4443,0.2547,-0.3923,1.5,0,0,0,0.007,-0.004,0
2018,5,10,15,36,32.222,0.7641,-0.4441,0.2545,-0.3923,0.5,0.3,-0.2,-0.004,0.015,0.002,1023
2018,5,10,15,36,32.241,0.7641,-0.4441,0.2545,-0.3924,0,0,0,-0.001,0.017,-0.002,1023
2018,5,10,15,36,32.261,0.7641,-0.4441,0.2545,-0.3924,-0.7,-0.1,0,-0.002,0.013,-0.003,1023
2018,5,10,15,36,32.299,0.7641,-0.4441,0.2545,-0.3924,0,0,0,0,0.008,-0.006,1023
2018,5,10,15,36,32.32,0.7641,-0.4442,0.2545,-0.3924,0.6,0,0,0,0.004,-0.01,1023
2018,5,10,15,36,32.324,0.7642,-0.444,0.2544,-0.3924,0.9,0,-0.2,0,0.014,-0.003,1023
2018,5,10,15,36,32.343,0.7643,-0.4439,0.2543,-0.3924,0.6,0,-0.1,0,0.015,0,1023
2018,5,10,15,36,32.361,0.7643,-0.4438,0.2542,-0.3925,0,0,0,0,0.013,-0.002,1023
2018,5,10,15,36,32.401,0.7643,-0.4438,0.2542,-0.3925,0,0,0,-0.002,0.008,-0.001,1023
2018,5,10,15,36,32.421,0.7643,-0.4438,0.2542,-0.3925,0,0,0,0,0.008,-0.004,1023
2018,5,10,15,36,32.425,0.7643,-0.4438,0.2542,-0.3925,0.5,0,0,-0.003,0.006,-0.008,1023
2018,5,10,15,36,32.439,0.7644,-0.4437,0.2541,-0.3925,1.1,0.1,0,-0.001,0.007,-0.004,1023
2018,5,10,15,36,32.459,0.7645,-0.4436,0.254,-0.3926,0.8,0.1,0,-0.002,0.011,-0.001,0
2018,5,10,15,36,32.498,0.7645,-0.4435,0.2539,-0.3926,0,0,0,0,0.015,-0.001,0
2018,5,10,15,36,32.519,0.7645,-0.4435,0.2539,-0.3926,0,0,0,0,0.01,0,0
2018,5,10,15,36,32.523,0.7646,-0.4435,0.2539,-0.3926,0,0,0,-0.001,0.008,-0.001,0
2018,5,10,15,36,32.542,0.7646,-0.4435,0.2539,-0.3926,0,0,0,0,0.01,-0.008,0
2018,5,10,15,36,32.565,0.7645,-0.4435,0.2539,-0.3926,0,0,0,0,0.008,-0.004,0
2018,5,10,15,36,32.585,0.7646,-0.4434,0.2539,-0.3926,0.6,0.2,0,0,0.011,-0.004,0
2018,5,10,15,36,32.604,0.7646,-0.4434,0.2538,-0.3926,0,0,0,-0.002,0.012,0,0
2018,5,10,15,36,32.639,0.7646,-0.4434,0.2538,-0.3927,0,0,0,-0.002,0.014,-0.004,0
2018,5,10,15,36,32.66,0.7646,-0.4434,0.2538,-0.3927,0,0,0,0.001,0.009,-0.002,0
2018,5,10,15,36,32.664,0.7646,-0.4434,0.2538,-0.3927,0.5,0,0,-0.003,0.008,-0.006,0
2018,5,10,15,36,32.682,0.7647,-0.4433,0.2537,-0.3927,0.6,0,0,-0.002,0.011,-0.002,0
2018,5,10,15,36,32.703,0.7647,-0.4432,0.2536,-0.3928,0.5,0,-0.1,0,0.012,-0.006,0
2018,5,10,15,36,32.723,0.7648,-0.4431,0.2536,-0.3928,0,0,0,0,0.014,-0.006,0
2018,5,10,15,36,32.743,0.7648,-0.4431,0.2536,-0.3928,0,0,0,-0.001,0.009,-0.002,0
2018,5,10,15,36,32.781,0.7648,-0.4431,0.2536,-0.3928,0,0,0,0,0.012,-0.003,0
2018,5,10,15,36,32.803,0.7648,-0.4431,0.2536,-0.3928,0,0,0,-0.001,0.012,0,0
2018,5,10,15,36,32.807,0.7648,-0.443,0.2535,-0.3928,0.9,0.1,-0.1,-0.001,0.006,-0.005,0
2018,5,10,15,36,32.826,0.7649,-0.4429,0.2534,-0.3928,1,0.2,0,0,0.011,-0.005,1023
2018,5,10,15,36,32.847,0.765,-0.4428,0.2534,-0.3928,0,0,0,-0.001,0.015,0.002,1023
2018,5,10,15,36,32.885,0.765,-0.4428,0.2533,-0.3929,0,0,0,0,0.012,-0.005,1023
2018,5,10,15,36,32.889,0.765,-0.4428,0.2533,-0.3929,0,0,0,0,0.011,-0.004,1023
2018,5,10,15,36,32.907,0.765,-0.4428,0.2533,-0.3929,0,0,0,0,0.008,-0.001,1023
2018,5,10,15,36,32.924,0.765,-0.4428,0.2533,-0.3929,0,0,0,-0.001,0.012,-0.006,1023
2018,5,10,15,36,32.945,0.765,-0.4428,0.2533,-0.3929,0,0,0,-0.001,0.011,-0.005,1023
2018,5,10,15,36,32.966,0.765,-0.4428,0.2533,-0.3929,0,0,0,-0.001,0.014,0,1023
2018,5,10,15,36,33.003,0.765,-0.4427,0.2533,-0.3929,0,0,0,-0.001,0.01,-0.008,1023
2018,5,10,15,36,33.023,0.765,-0.4428,0.2533,-0.3929,0,0,0,0,0.009,-0.001,1023
2018,5,10,15,36,33.026,0.765,-0.4428,0.2533,-0.3929,0,0,0,-0.003,0.008,-0.007,1023
2018,5,10,15,36,33.044,0.765,-0.4428,0.2532,-0.3929,0,0,0,0,0.009,-0.001,1023
2018,5,10,15,36,33.079,0.765,-0.4427,0.2532,-0.3929,0,0,0,0.001,0.01,-0.006,0
2018,5,10,15,36,33.098,0.765,-0.4427,0.2532,-0.3929,0,0,0,-0.001,0.012,-0.002,0
2018,5,10,15,36,33.105,0.765,-0.4427,0.2532,-0.3929,0,0,0,0.001,0.011,-0.005,0
2018,5,10,15,36,33.14,0.765,-0.4427,0.2532,-0.3929,0,0,0,0,0.007,-0.004,0
2018,5,10,15,36,33.163,0.765,-0.4427,0.2532,-0.3929,0,0,0,-0.002,0.008,-0.005,0
2018,5,10,15,36,33.167,0.765,-0.4427,0.2532,-0.3929,0,0,0,0,0.01,-0.004,0
2018,5,10,15,36,33.184,0.7651,-0.4427,0.2532,-0.393,0,0,0,-0.002,0.012,-0.005,0
2018,5,10,15,36,33.206,0.7651,-0.4427,0.2532,-0.393,0,0,0,0,0.009,0.001,0
2018,5,10,15,36,33.227,0.7651,-0.4427,0.2531,-0.393,0,0,0,0,0.013,-0.005,0
2018,5,10,15,36,33.247,0.7651,-0.4427,0.2531,-0.393,0,0,0,-0.001,0.009,-0.002,0
2018,5,10,15,36,33.287,0.7651,-0.4427,0.2531,-0.393,0,0,0,-0.001,0.009,-0.004,0
2018,5,10,15,36,33.307,0.7651,-0.4427,0.2531,-0.393,0,0,0,-0.002,0.009,-0.005,0
2018,5,10,15,36,33.311,0.765,-0.4427,0.2531,-0.393,0,0,0,0,0.008,-0.005,0
2018,5,10,15,36,33.33,0.765,-0.4427,0.2531,-0.393,0,0,0,0,0.01,-0.004,0
2018,5,10,15,36,33.349,0.765,-0.4427,0.2531,-0.393,0,0,0,-0.002,0.01,-0.007,0
2018,5,10,15,36,33.366,0.765,-0.4427,0.2531,-0.393,0,0,0,-0.001,0.012,-0.004,0
2018,5,10,15,36,33.386,0.7651,-0.4427,0.2531,-0.393,0.5,0,-0.1,0.001,0.01,-0.005,0
2018,5,10,15,36,33.426,0.7651,-0.4427,0.2531,-0.393,0.5,0,-0.1,-0.001,0.013,-0.004,0
2018,5,10,15,36,33.445,0.7651,-0.4427,0.2531,-0.393,0,0,0,-0.001,0.009,-0.006,0
2018,5,10,15,36,33.45,0.7651,-0.4426,0.2531,-0.393,0,0,0,0,0.012,0,1023
2018,5,10,15,36,33.468,0.7651,-0.4426,0.253,-0.393,0,0,0,-0.001,0.012,-0.003,1023
2018,5,10,15,36,33.506,0.7651,-0.4426,0.2531,-0.393,0,0,0,0,0.007,-0.005,1023
2018,5,10,15,36,33.526,0.7651,-0.4426,0.2531,-0.393,0,0,0,0,0.009,-0.009,1023
2018,5,10,15,36,33.53,0.7651,-0.4427,0.2531,-0.393,0,0,0,0,0.009,-0.008,1023
2018,5,10,15,36,33.55,0.7651,-0.4427,0.2531,-0.393,0,0,0,-0.002,0.009,-0.004,1023
2018,5,10,15,36,33.569,0.7651,-0.4426,0.253,-0.393,0,0,0,0,0.014,-0.002,1023
2018,5,10,15,36,33.59,0.7651,-0.4426,0.253,-0.393,0,0,0,-0.001,0.009,0,1023
2018,5,10,15,36,33.61,0.7651,-0.4426,0.253,-0.393,0,0,0,0,0.01,-0.006,1023
2018,5,10,15,36,33.652,0.7651,-0.4426,0.253,-0.393,0,0,0,0.001,0.009,-0.007,1023
2018,5,10,15,36,33.671,0.7651,-0.4426,0.253,-0.393,0,0,0,-0.003,0.012,-0.001,1023
2018,5,10,15,36,33.675,0.7651,-0.4426,0.253,-0.393,0,0,0,0,0.01,-0.002,0
2018,5,10,15,36,33.689,0.7651,-0.4426,0.253,-0.393,0,0,0,0,0.013,-0.009,0
2018,5,10,15,36,33.71,0.7652,-0.4425,0.253,-0.3931,0.5,0,0,-0.001,0.008,-0.001,0
2018,5,10,15,36,33.732,0.7652,-0.4425,0.2529,-0.3931,0.5,0,-0.3,0,0.008,-0.003,0
2018,5,10,15,36,33.753,0.7653,-0.4424,0.2529,-0.3931,0,0,0,-0.001,0.014,-0.005,0
2018,5,10,15,36,33.773,0.7653,-0.4424,0.2529,-0.3931,0,0,0,-0.002,0.011,-0.002,0
2018,5,10,15,36,33.81,0.7653,-0.4424,0.2529,-0.3931,0,0,0,0,0.01,-0.004,0
2018,5,10,15,36,33.83,0.7653,-0.4424,0.2529,-0.3931,0,0,0,-0.001,0.009,-0.003,0
2018,5,10,15,36,33.834,0.7653,-0.4424,0.2529,-0.3931,0,0,0,-0.001,0.008,-0.003,0
2018,5,10,15,36,33.853,0.7653,-0.4424,0.2528,-0.3931,0,0,0,-0.002,0.01,0.001,0
2018,5,10,15,36,33.869,0.7653,-0.4424,0.2528,-0.3931,0,0,0,-0.002,0.007,-0.006,0
2018,5,10,15,36,33.89,0.7653,-0.4424,0.2528,-0.3931,0,0,0,0,0.01,-0.007,0
2018,5,10,15,36,33.908,0.7653,-0.4424,0.2528,-0.3931,0,0,0,-0.002,0.008,0,0
2018,5,10,15,36,33.948,0.7653,-0.4424,0.2528,-0.3931,0,0,0,0,0.01,-0.006,0
2018,5,10,15,36,33.968,0.7653,-0.4424,0.2528,-0.3931,0,0,0,-0.001,0.01,-0.004,0
2018,5,10,15,36,33.972,0.7653,-0.4423,0.2528,-0.3931,0,0,0,0,0.009,-0.002,0
2018,5,10,15,36,34.012,0.7653,-0.4423,0.2528,-0.3931,0,0,0,-0.001,0.01,-0.001,0
2018,5,10,15,36,34.031,0.7653,-0.4423,0.2528,-0.3931,0,0,0,0,0.01,-0.004,0
2018,5,10,15,36,34.035,0.7653,-0.4423,0.2528,-0.3931,0,0,0,0,0.009,-0.004,0
2018,5,10,15,36,34.055,0.7653,-0.4423,0.2528,-0.3932,0,0,0,-0.002,0.012,0,1023
2018,5,10,15,36,34.076,0.7653,-0.4423,0.2527,-0.3932,0,0,0,0,0.014,-0.001,1023
2018,5,10,15,36,34.094,0.7654,-0.4423,0.2527,-0.3932,0,0,0,0,0.01,-0.003,1023
2018,5,10,15,36,34.115,0.7654,-0.4423,0.2527,-0.3932,0,0,0,0,0.012,-0.009,1023
2018,5,10,15,36,34.133,0.7654,-0.4423,0.2527,-0.3932,0,0,0,0,0.011,-0.007,1023
2018,5,10,15,36,34.154,0.7653,-0.4423,0.2527,-0.3932,0,0,0,0,0.01,-0.005,1023
2018,5,10,15,36,34.173,0.7653,-0.4423,0.2527,-0.3932,0,0,0,-0.003,0.008,-0.005,1023
2018,5,10,15,36,34.193,0.7654,-0.4423,0.2527,-0.3932,0,0,0,0,0.009,-0.008,1023
2018,5,10,15,36,34.233,0.7654,-0.4423,0.2527,-0.3932,0,0,0,0,0.011,-0.01,1023
2018,5,10,15,36,34.253,0.7653,-0.4423,0.2527,-0.3932,0,0,0,-0.002,0.008,-0.005,1023
2018,5,10,15,36,34.257,0.7653,-0.4423,0.2527,-0.3932,0,0,0,-0.002,0.007,-0.008,1023
2018,5,10,15,36,34.277,0.7654,-0.4423,0.2527,-0.3932,0,0,0,0.001,0.013,-0.004,0
2018,5,10,15,36,34.296,0.7654,-0.4423,0.2527,-0.3932,0,0,0,-0.001,0.009,-0.004,0
2018,5,10,15,36,34.316,0.7654,-0.4423,0.2526,-0.3932,0.5,0,0,-0.003,0.012,-0.004,0
2018,5,10,15,36,34.354,0.7654,-0.4422,0.2526,-0.3932,0,0,0,-0.001,0.01,-0.001,0
2018,5,10,15,36,34.373,0.7654,-0.4422,0.2526,-0.3932,0,0,0,0,0.009,-0.003,0
2018,5,10,15,36,34.378,0.7654,-0.4422,0.2526,-0.3932,0,0,0,0,0.011,-0.004,0
2018,5,10,15,36,34.395,0.7654,-0.4422,0.2526,-0.3932,-0.5,0,0,0,0.012,-0.003,0
2018,5,10,15,36,34.414,0.7654,-0.4422,0.2526,-0.3932,-0.5,0,-0.1,0.001,0.013,-0.002,0
2018,5,10,15,36,34.434,0.7653,-0.4423,0.2527,-0.3932,-0.5,0,-0.2,0,0.012,-0.006,0
2018,5,10,15,36,34.475,0.7653,-0.4423,0.2527,-0.3932,0,0,0,-0.002,0.009,-0.006,0
2018,5,10,15,36,34.493,0.7653,-0.4423,0.2527,-0.3932,0,0,0,-0.002,0.01,-0.002,0
2018,5,10,15,36,34.497,0.7653,-0.4423,0.2527,-0.3932,0,0,0,-0.002,0.004,-0.004,0
2018,5,10,15,36,34.517,0.7653,-0.4423,0.2527,-0.3932,0.6,0,0,0,0.011,-0.009,0
2018,5,10,15,36,34.538,0.7654,-0.4422,0.2526,-0.3932,0.5,0,-0.2,-0.001,0.01,0,0
2018,5,10,15,36,34.558,0.7654,-0.4422,0.2526,-0.3932,0,0,0,-0.001,0.011,0,0
2018,5,10,15,36,34.578,0.7654,-0.4422,0.2526,-0.3932,0,0,0,0,0.009,-0.003,0
2018,5,10,15,36,34.597,0.7654,-0.4422,0.2526,-0.3932,0,0,0,-0.002,0.013,-0.007,0
2018,5,10,15,36,34.614,0.7654,-0.4422,0.2526,-0.3932,0,0,0,0,0.011,-0.005,0
2018,5,10,15,36,34.651,0.7654,-0.4422,0.2526,-0.3932,0,0,0,0.003,0.008,-0.005,0
2018,5,10,15,36,34.673,0.7654,-0.4422,0.2526,-0.3932,0,0,0,0,0.01,-0.003,0
2018,5,10,15,36,34.677,0.7655,-0.4422,0.2525,-0.3932,0,0,0,-0.004,0.011,-0.002,1023
2018,5,10,15,36,34.697,0.7654,-0.4422,0.2525,-0.3932,-0.6,0,-0.1,0,0.01,-0.003,1023
2018,5,10,15,36,34.716,0.7654,-0.4422,0.2526,-0.3932,-0.6,-0.2,0,-0.001,0.008,-0.005,1023
2018,5,10,15,36,34.738,0.7654,-0.4423,0.2526,-0.3932,-0.6,-0.2,0,-0.001,0.008,-0.004,1023
2018,5,10,15,36,34.759,0.7653,-0.4423,0.2527,-0.3932,0,0,0,-0.003,0.004,-0.007,1023
2018,5,10,15,36,34.78,0.7653,-0.4423,0.2527,-0.3932,0,0,0,0,0.007,-0.005,1023
2018,5,10,15,36,34.799,0.7653,-0.4423,0.2527,-0.3932,0,0,0,-0.001,0.014,0,1023
2018,5,10,15,36,34.82,0.7653,-0.4423,0.2527,-0.3932,0,0,0,-0.002,0.01,-0.003,1023
2018,5,10,15,36,34.84,0.7653,-0.4423,0.2527,-0.3932,0,0,0,-0.001,0.01,-0.005,1023
2018,5,10,15,36,34.879,0.7653,-0.4423,0.2526,-0.3932,0,0,0,0,0.01,-0.01,1023
2018,5,10,15,36,34.883,0.7653,-0.4423,0.2527,-0.3932,0,0,0,-0.001,0.008,-0.009,1023
2018,5,10,15,36,34.901,0.7653,-0.4423,0.2527,-0.3932,0,0,0,-0.001,0.01,-0.007,0
2018,5,10,15,36,34.917,0.7653,-0.4423,0.2527,-0.3932,0,0,0,-0.001,0.008,-0.007,0
2018,5,10,15,36,34.955,0.7653,-0.4423,0.2527,-0.3932,0,0,0,-0.001,0.009,-0.003,0
2018,5,10,15,36,34.976,0.7653,-0.4423,0.2527,-0.3932,0,0,0,-0.002,0.008,-0.006,0
2018,5,10,15,36,34.98,0.7653,-0.4423,0.2527,-0.3932,0,0,0,0,0.008,-0.007,0
2018,5,10,15,36,35,0.7653,-0.4423,0.2527,-0.3932,0,0,0,-0.002,0.01,-0.007,0
2018,5,10,15,36,35.017,0.7653,-0.4423,0.2527,-0.3932,0,0,0,-0.001,0.01,-0.004,0
2018,5,10,15,36,35.057,0.7653,-0.4423,0.2526,-0.3932,0,0,0,0,0.011,-0.002,0
2018,5,10,15,36,35.077,0.7654,-0.4423,0.2526,-0.3932,0,0,0,0,0.008,-0.003,0
2018,5,10,15,36,35.081,0.7653,-0.4423,0.2526,-0.3932,0,0,0,-0.001,0.009,-0.007,0
2018,5,10,15,36,35.1,0.7653,-0.4423,0.2526,-0.3932,0,0,0,0,0.009,-0.004,0
2018,5,10,15,36,35.118,0.7653,-0.4423,0.2526,-0.3932,0,0,0,-0.002,0.01,-0.003,0
2018,5,10,15,36,35.139,0.7653,-0.4423,0.2526,-0.3932,0,0,0,0,0.011,-0.004,0
2018,5,10,15,36,35.174,0.7653,-0.4423,0.2526,-0.3932,0,0,0,0,0.01,-0.002,0
2018,5,10,15,36,35.197,0.7653,-0.4423,0.2526,-0.3932,0.6,0,0,-0.002,0.01,-0.004,0
2018,5,10,15,36,35.201,0.7654,-0.4422,0.2526,-0.3932,0.8,-0.1,-0.2,0,0.009,-0.003,0
2018,5,10,15,36,35.221,0.7655,-0.4421,0.2525,-0.3933,0.9,0,0,0,0.009,0,0
2018,5,10,15,36,35.259,0.7656,-0.4419,0.2525,-0.3933,0.9,0,0,-0.001,0.011,0,0
2018,5,10,15,36,35.279,0.7656,-0.4418,0.2524,-0.3934,0.5,0,0,-0.002,0.01,-0.001,0
2018,5,10,15,36,35.284,0.7657,-0.4418,0.2523,-0.3934,0,0,0,-0.001,0.011,-0.003,0
2018,5,10,15,36,35.305,0.7657,-0.4418,0.2523,-0.3934,0,0,0,-0.002,0.011,0,1023
2018,5,10,15,36,35.323,0.7657,-0.4417,0.2523,-0.3934,0,0,0,-0.001,0.011,-0.003,1023
2018,5,10,15,36,35.341,0.7657,-0.4417,0.2523,-0.3934,0,0,0,-0.001,0.009,-0.007,1023
2018,5,10,15,36,35.379,0.7657,-0.4417,0.2523,-0.3934,0,0,0,-0.001,0.009,-0.008,1023
2018,5,10,15,36,35.402,0.7657,-0.4418,0.2523,-0.3934,0,0,0,0,0.009,-0.008,1023
2018,5,10,15,36,35.417,0.7657,-0.4418,0.2523,-0.3934,0,0,0,0,0.009,-0.006,1023
2018,5,10,15,36,35.42,0.7657,-0.4418,0.2523,-0.3934,0,0,0,0,0.009,-0.005,1023
2018,5,10,15,36,35.457,0.7657,-0.4417,0.2523,-0.3934,0,0,0,0,0.01,-0.004,1023
2018,5,10,15,36,35.477,0.7657,-0.4417,0.2523,-0.3934,0.5,0,0,0,0.011,-0.008,1023
2018,5,10,15,36,35.479,0.7657,-0.4416,0.2522,-0.3935,0,0,0,0,0.013,-0.002,1023
2018,5,10,15,36,35.52,0.7657,-0.4416,0.2522,-0.3935,0,0,0,-0.001,0.01,-0.007,1023
2018,5,10,15,36,35.54,0.7657,-0.4416,0.2522,-0.3935,0,0,0,0,0.011,-0.008,1023
2018,5,10,15,36,35.544,0.7657,-0.4416,0.2522,-0.3935,0.6,0,0,-0.002,0.01,-0.01,0
2018,5,10,15,36,35.583,0.7658,-0.4415,0.2522,-0.3935,0.8,0,-0.2,0,0.009,-0.011,0
2018,5,10,15,36,35.604,0.7659,-0.4414,0.2521,-0.3935,0.6,0,0,-0.002,0.011,-0.004,0
2018,5,10,15,36,35.608,0.7659,-0.4413,0.2521,-0.3936,0,0,0,0,0.012,-0.003,0
2018,5,10,15,36,35.621,0.7659,-0.4413,0.2521,-0.3936,0,0,0,0,0.008,-0.005,0
2018,5,10,15,36,35.66,0.7659,-0.4413,0.2521,-0.3936,0,0,0,0,0.01,-0.007,0
2018,5,10,15,36,35.682,0.7659,-0.4413,0.2521,-0.3936,0,0,0,0,0.007,-0.005,0
2018,5,10,15,36,35.686,0.7659,-0.4413,0.2521,-0.3936,0,0,0,-0.002,0.007,-0.006,0
2018,5,10,15,36,35.704,0.7659,-0.4413,0.2521,-0.3936,0.5,0,0,-0.001,0.009,-0.007,0
2018,5,10,15,36,35.742,0.766,-0.4412,0.252,-0.3936,0.8,-0.1,0.1,-0.001,0.012,-0.005,0
2018,5,10,15,36,35.763,0.766,-0.441,0.2519,-0.3937,1.1,0,0,0,0.008,-0.006,0
2018,5,10,15,36,35.767,0.7661,-0.4409,0.2518,-0.3938,1.1,0,0,0,0.01,-0.005,0
2018,5,10,15,36,35.788,0.7662,-0.4407,0.2517,-0.3938,1.1,0,0,-0.001,0.01,0,0
2018,5,10,15,36,35.808,0.7663,-0.4406,0.2516,-0.3939,0.9,0.1,0,-0.001,0.009,-0.004,0
2018,5,10,15,36,35.822,0.7664,-0.4405,0.2516,-0.3939,0.8,0,-0.2,-0.003,0.008,-0.003,0
2018,5,10,15,36,35.862,0.7665,-0.4403,0.2515,-0.3939,0.9,0,-0.1,0,0.01,-0.003,0
2018,5,10,15,36,35.866,0.7666,-0.4402,0.2514,-0.394,0.8,0,-0.1,0.002,0.009,-0.006,0
2018,5,10,15,36,35.883,0.7666,-0.4401,0.2514,-0.394,0.9,0,-0.2,-0.003,0.01,-0.006,0
2018,5,10,15,36,35.922,0.7667,-0.44,0.2513,-0.394,0.5,0,0,-0.003,0.013,-0.005,0
2018,5,10,15,36,35.941,0.7667,-0.4399,0.2513,-0.394,0,0,0,0,0.011,-0.008,0
2018,5,10,15,36,35.945,0.7667,-0.4399,0.2513,-0.394,0,0,0,0,0.009,-0.004,1023
2018,5,10,15,36,35.981,0.7667,-0.4399,0.2513,-0.394,0,0,0,-0.001,0.009,-0.005,1023
2018,5,10,15,36,36.002,0.7667,-0.4399,0.2513,-0.394,0,0,0,-0.001,0.009,-0.004,1023
2018,5,10,15,36,36.006,0.7667,-0.4399,0.2513,-0.3941,0,0,0,-0.001,0.011,-0.002,1023
2018,5,10,15,36,36.045,0.7668,-0.4399,0.2513,-0.3941,0.6,0,-0.1,-0.003,0.009,-0.006,1023
2018,5,10,15,36,36.065,0.7668,-0.4398,0.2512,-0.3941,0.8,0,0,-0.002,0.007,-0.002,1023
2018,5,10,15,36,36.067,0.7669,-0.4397,0.2511,-0.3941,1.1,-0.1,0,-0.006,0.007,-0.007,1023
2018,5,10,15,36,36.083,0.767,-0.4394,0.251,-0.3943,3.6,0.3,0.1,-0.002,-0.004,-0.01,1023
2018,5,10,15,36,36.122,0.7673,-0.439,0.2507,-0.3944,3.1,0.3,0,-0.006,0.01,0,1023
2018,5,10,15,36,36.143,0.7675,-0.4386,0.2504,-0.3945,2.5,0.4,0,-0.002,0.01,-0.001,1023
2018,5,10,15,36,36.147,0.7678,-0.4383,0.2502,-0.3945,1.9,0.2,0,0,0.016,-0.003,1023
2018,5,10,15,36,36.187,0.7679,-0.4381,0.2501,-0.3946,0.5,-0.1,-0.2,-0.001,0.011,0.001,0
2018,5,10,15,36,36.191,0.7679,-0.4381,0.2501,-0.3946,0,0,0,0.001,0.01,-0.012,0
2018,5,10,15,36,36.207,0.7679,-0.438,0.25,-0.3946,0.9,0.1,0,-0.001,0.007,-0.001,0
2018,5,10,15,36,36.241,0.768,-0.4378,0.25,-0.3947,1.2,0,0,0,0.011,-0.002,0
2018,5,10,15,36,36.264,0.7681,-0.4377,0.2498,-0.3947,1.4,0,0,0,0.009,-0.005,0
2018,5,10,15,36,36.271,0.7683,-0.4375,0.2497,-0.3948,1.1,0.1,0,-0.002,0.011,-0.001,0
2018,5,10,15,36,36.31,0.7683,-0.4373,0.2496,-0.3948,0.6,0,0,-0.002,0.012,-0.004,0
2018,5,10,15,36,36.329,0.7684,-0.4373,0.2496,-0.3948,0.8,0,0,0,0.009,-0.005,0
2018,5,10,15,36,36.333,0.7684,-0.4372,0.2496,-0.3949,0.5,0,0,-0.001,0.008,-0.001,0
2018,5,10,15,36,36.347,0.7684,-0.4372,0.2496,-0.3949,0,0,0,-0.002,0.013,-0.001,0
2018,5,10,15,36,36.386,0.7685,-0.4371,0.2495,-0.3949,0,0,0,0.001,0.011,0,0
2018,5,10,15,36,36.405,0.7685,-0.4371,0.2495,-0.3949,0,0,0,0,0.008,0,0
2018,5,10,15,36,36.409,0.7685,-0.4371,0.2495,-0.3949,0,0,0,-0.001,0.011,-0.006,0
2018,5,10,15,36,36.43,0.7685,-0.4371,0.2495,-0.3949,0.5,-0.1,0,0,0.011,-0.004,0
2018,5,10,15,36,36.448,0.7685,-0.437,0.2495,-0.395,0,0,0,-0.004,0.01,0,0
2018,5,10,15,36,36.488,0.7686,-0.437,0.2494,-0.395,0,0,0,-0.003,0.012,-0.003,0
2018,5,10,15,36,36.508,0.7686,-0.4369,0.2494,-0.395,0,0,0,-0.003,0.013,-0.003,0
2018,5,10,15,36,36.512,0.7686,-0.4369,0.2494,-0.395,0,0,0,0,0.011,-0.008,0
2018,5,10,15,36,36.528,0.7686,-0.4369,0.2494,-0.395,0,0,0,0.001,0.011,-0.007,0
2018,5,10,15,36,36.548,0.7686,-0.4369,0.2494,-0.395,0,0,0,-0.001,0.008,-0.005,0
2018,5,10,15,36,36.569,0.7686,-0.4369,0.2493,-0.395,0,0,0,0,0.011,-0.007,0
2018,5,10,15,36,36.609,0.7686,-0.4369,0.2493,-0.395,0,0,0,-0.001,0.012,-0.007,1023
2018,5,10,15,36,36.63,0.7686,-0.4369,0.2493,-0.395,0,0,0,-0.001,0.008,-0.002,1023
2018,5,10,15,36,36.634,0.7686,-0.4369,0.2493,-0.395,0,0,0,0.002,0.011,-0.011,1023
2018,5,10,15,36,36.652,0.7686,-0.4369,0.2493,-0.395,0,0,0,0,0.009,-0.007,1023
2018,5,10,15,36,36.689,0.7686,-0.4369,0.2493,-0.395,0,0,0,-0.003,0.011,-0.004,1023
2018,5,10,15,36,36.709,0.7686,-0.4369,0.2493,-0.395,0,0,0,-0.002,0.008,-0.008,1023
2018,5,10,15,36,36.713,0.7686,-0.4369,0.2493,-0.395,0,0,0,0,0.011,-0.006,1023
2018,5,10,15,36,36.732,0.7686,-0.4369,0.2493,-0.395,0,0,0,0,0.01,0,1023
2018,5,10,15,36,36.77,0.7686,-0.4369,0.2493,-0.395,0,0,0,-0.003,0.009,-0.009,1023
2018,5,10,15,36,36.791,0.7686,-0.4369,0.2493,-0.3951,0,0,0,-0.002,0.01,-0.004,1023
2018,5,10,15,36,36.796,0.7686,-0.4369,0.2493,-0.3951,0,0,0,-0.001,0.007,-0.004,1023
2018,5,10,15,36,36.815,0.7686,-0.4369,0.2493,-0.3951,0,0,0,-0.002,0.008,-0.002,0
2018,5,10,15,36,36.83,0.7686,-0.4369,0.2492,-0.3951,0,0,0,0,0.01,0,0
2018,5,10,15,36,36.87,0.7686,-0.4368,0.2492,-0.3951,0,0,0,0,0.009,-0.002,0
2018,5,10,15,36,36.891,0.7686,-0.4368,0.2492,-0.3951,0,0,0,0,0.01,-0.007,0
2018,5,10,15,36,36.895,0.7686,-0.4368,0.2492,-0.3951,0,0,0,0,0.012,-0.006,0
2018,5,10,15,36,36.914,0.7686,-0.4368,0.2492,-0.3951,0,0,0,-0.001,0.011,-0.003,0
2018,5,10,15,36,36.933,0.7686,-0.4368,0.2492,-0.3951,0,0,0,0.001,0.01,-0.008,0
2018,5,10,15,36,36.971,0.7686,-0.4368,0.2492,-0.3951,0,0,0,-0.001,0.013,-0.005,0
2018,5,10,15,36,36.992,0.7686,-0.4369,0.2492,-0.3951,0,0,0,0,0.011,-0.001,0
2018,5,10,15,36,36.996,0.7686,-0.4368,0.2492,-0.3951,0,0,0,-0.001,0.009,-0.006,0
2018,5,10,15,36,37.016,0.7686,-0.4368,0.2492,-0.3951,0,0,0,0,0.005,-0.007,0
2018,5,10,15,36,37.033,0.7686,-0.4368,0.2492,-0.3951,0,0,0,0.001,0.009,-0.008,0
2018,5,10,15,36,37.072,0.7686,-0.4368,0.2492,-0.3951,0,0,0,0,0.007,-0.008,0
2018,5,10,15,36,37.092,0.7686,-0.4368,0.2492,-0.3951,0,0,0,-0.003,0.011,0,0
2018,5,10,15,36,37.096,0.7686,-0.4368,0.2492,-0.3951,0,0,0,0,0.012,-0.005,0
2018,5,10,15,36,37.115,0.7686,-0.4368,0.2492,-0.3951,0,0,0,-0.003,0.012,-0.006,0
2018,5,10,15,36,37.135,0.7686,-0.4368,0.2492,-0.3951,0,0,0,0,0.009,-0.005,0
2018,5,10,15,36,37.155,0.7686,-0.4368,0.2491,-0.3951,0,0,0,-0.002,0.011,-0.006,0
2018,5,10,15,36,37.174,0.7686,-0.4368,0.2491,-0.3951,0,0,0,0,0.011,-0.005,0
2018,5,10,15,36,37.196,0.7686,-0.4368,0.2492,-0.3951,-0.5,0,-0.2,-0.003,0.008,-0.004,1023
2018,5,10,15,36,37.215,0.7686,-0.4369,0.2492,-0.3951,-0.5,0,0,-0.002,0.01,-0.004,1023
2018,5,10,15,36,37.255,0.7686,-0.437,0.2492,-0.395,-0.5,-0.1,-0.2,-0.003,0.005,-0.006,1023
2018,5,10,15,36,37.274,0.7685,-0.437,0.2493,-0.395,0,0,0,0,0.006,-0.002,1023
2018,5,10,15,36,37.279,0.7685,-0.437,0.2493,-0.395,0,0,0,-0.001,0.01,-0.003,1023
2018,5,10,15,36,37.293,0.7686,-0.437,0.2492,-0.395,0.5,0.1,-0.1,-0.001,0.01,-0.005,1023
2018,5,10,15,36,37.315,0.7686,-0.437,0.2492,-0.395,0,0,0,-0.002,0.011,0,1023
2018,5,10,15,36,37.336,0.7686,-0.437,0.2492,-0.395,0,0,0,0,0.01,-0.003,1023
2018,5,10,15,36,37.354,0.7686,-0.4369,0.2492,-0.395,0,0,0,0,0.011,-0.007,1023
2018,5,10,15,36,37.376,0.7686,-0.437,0.2492,-0.395,0,0,0,0,0.012,-0.003,1023
2018,5,10,15,36,37.399,0.7686,-0.437,0.2492,-0.3951,0,0,0,0,0.009,-0.004,1023
2018,5,10,15,36,37.418,0.7686,-0.437,0.2492,-0.395,0,0,0,-0.001,0.009,-0.004,1023
2018,5,10,15,36,37.438,0.7686,-0.437,0.2492,-0.395,0,0,0,-0.001,0.006,-0.005,0
2018,5,10,15,36,37.474,0.7686,-0.437,0.2492,-0.395,0,0,0,-0.001,0.011,-0.001,0
2018,5,10,15,36,37.495,0.7686,-0.437,0.2492,-0.3951,0,0,0,-0.001,0.011,-0.002,0
2018,5,10,15,36,37.5,0.7686,-0.4369,0.2492,-0.3951,0,0,0,0,0.011,-0.004,0
2018,5,10,15,36,37.518,0.7686,-0.4369,0.2492,-0.3951,0,0,0,0.001,0.01,-0.002,0
2018,5,10,15,36,37.539,0.7685,-0.437,0.2493,-0.3951,-0.5,-0.2,0.2,-0.002,0.006,-0.005,0
2018,5,10,15,36,37.557,0.7685,-0.4371,0.2493,-0.3951,-0.6,0,0,0,0.009,-0.01,0
2018,5,10,15,36,37.577,0.7684,-0.4372,0.2494,-0.395,-0.6,0,0,0,0.007,-0.009,0
2018,5,10,15,36,37.597,0.7684,-0.4372,0.2494,-0.395,0,0,0,0,0.009,-0.005,0
2018,5,10,15,36,37.637,0.7684,-0.4372,0.2494,-0.395,0,0,0,0,0.008,-0.003,0
2018,5,10,15,36,37.641,0.7684,-0.4372,0.2494,-0.395,0,0,0,-0.001,0.009,-0.005,0
2018,5,10,15,36,37.657,0.7684,-0.4372,0.2495,-0.395,0,0,0,0,0.004,-0.005,0
2018,5,10,15,36,37.698,0.7683,-0.4373,0.2495,-0.395,0,0,0,0,0.008,-0.002,0
2018,5,10,15,36,37.702,0.7684,-0.4372,0.2495,-0.395,0,0,0,-0.001,0.01,-0.008,0
2018,5,10,15,36,37.719,0.7684,-0.4372,0.2494,-0.395,0,0,0,-0.001,0.009,-0.001,0
2018,5,10,15,36,37.74,0.7684,-0.4372,0.2494,-0.395,0,0,0,0,0.014,-0.011,0
2018,5,10,15,36,37.757,0.7684,-0.4372,0.2495,-0.395,0,0,0,0.001,0.01,-0.006,0
2018,5,10,15,36,37.778,0.7684,-0.4373,0.2495,-0.395,0,0,0,-0.002,0.008,-0.006,0
2018,5,10,15,36,37.798,0.7683,-0.4373,0.2494,-0.395,0,0,0,-0.001,0.009,-0.008,0
2018,5,10,15,36,37.817,0.7683,-0.4373,0.2494,-0.395,0,0,0,-0.001,0.01,-0.008,0
2018,5,10,15,36,37.838,0.7683,-0.4373,0.2494,-0.395,0,0,0,0,0.009,-0.004,1023
2018,5,10,15,36,37.86,0.7684,-0.4372,0.2494,-0.395,0,0,0,-0.002,0.007,-0.007,1023
2018,5,10,15,36,37.88,0.7683,-0.4373,0.2494,-0.395,0,0,0,-0.002,0.011,-0.003,1023
2018,5,10,15,36,37.919,0.7683,-0.4373,0.2494,-0.395,0,0,0,-0.001,0.01,-0.008,1023
2018,5,10,15,36,37.94,0.7683,-0.4373,0.2495,-0.395,0,0,0,0,0.007,-0.004,1023
2018,5,10,15,36,37.944,0.7683,-0.4373,0.2495,-0.395,0,0,0,0,0.007,-0.007,1023
2018,5,10,15,36,37.963,0.7683,-0.4373,0.2495,-0.395,0.5,-0.1,0,-0.001,0.008,-0.003,1023
2018,5,10,15,36,37.983,0.7683,-0.4373,0.2495,-0.395,0,0,0,-0.001,0.008,-0.004,1023
2018,5,10,15,36,38.019,0.7683,-0.4373,0.2495,-0.395,0,0,0,0,0.009,-0.008,1023
2018,5,10,15,36,38.04,0.7683,-0.4373,0.2495,-0.395,0,0,0,0,0.008,-0.006,1023
2018,5,10,15,36,38.044,0.7683,-0.4373,0.2495,-0.395,0,0,0,0.002,0.007,-0.004,1023
2018,5,10,15,36,38.057,0.7683,-0.4373,0.2495,-0.395,0,0,0,-0.002,0.005,-0.005,1023
2018,5,10,15,36,38.093,0.7683,-0.4374,0.2495,-0.395,0,0,0,0.001,0.009,-0.007,1023
2018,5,10,15,36,38.113,0.7683,-0.4374,0.2496,-0.395,0.5,0,0,0.001,0.01,-0.005,0
2018,5,10,15,36,38.117,0.7683,-0.4373,0.2495,-0.395,0,0,0,-0.001,0.011,-0.005,0
2018,5,10,15,36,38.158,0.7683,-0.4373,0.2495,-0.395,0,0,0,-0.002,0.008,-0.001,0
2018,5,10,15,36,38.178,0.7683,-0.4373,0.2495,-0.395,0,0,0,0,0.006,-0.003,0
2018,5,10,15,36,38.182,0.7683,-0.4373,0.2495,-0.395,0,0,0,-0.001,0.008,-0.008,0
2018,5,10,15,36,38.206,0.7683,-0.4374,0.2496,-0.395,0,0,0,-0.001,0.01,-0.007,0
2018,5,10,15,36,38.225,0.7683,-0.4374,0.2496,-0.395,0,0,0,0,0.007,-0.008,0
2018,5,10,15,36,38.245,0.7683,-0.4374,0.2496,-0.395,0,0,0,0,0.011,0,0
2018,5,10,15,36,38.265,0.7683,-0.4374,0.2496,-0.395,0,0,0,-0.001,0.009,-0.003,0
2018,5,10,15,36,38.281,0.7683,-0.4374,0.2496,-0.3949,0,0,0,-0.001,0.008,-0.007,0
2018,5,10,15,36,38.302,0.7683,-0.4374,0.2496,-0.3949,0,0,0,-0.001,0.008,-0.009,0
2018,5,10,15,36,38.322,0.7682,-0.4374,0.2496,-0.3949,0,0,0,-0.002,0.009,-0.004,0
2018,5,10,15,36,38.343,0.7682,-0.4374,0.2496,-0.395,0.5,0,0.2,-0.001,0.007,-0.008,0
2018,5,10,15,36,38.362,0.7683,-0.4374,0.2496,-0.395,0.8,-0.1,0,-0.001,0.01,-0.008,0
2018,5,10,15,36,38.402,0.7683,-0.4373,0.2495,-0.395,0.5,0,0,-0.002,0.008,-0.007,0
2018,5,10,15,36,38.423,0.7684,-0.4372,0.2495,-0.395,0,0,0,0,0.009,0,0
2018,5,10,15,36,38.427,0.7684,-0.4372,0.2495,-0.395,0,0,0,0,0.012,-0.003,0
2018,5,10,15,36,38.445,0.7684,-0.4372,0.2495,-0.395,0,0,0,-0.002,0.012,-0.009,0
2018,5,10,15,36,38.464,0.7684,-0.4372,0.2495,-0.395,0,0,0,0,0.01,-0.007,0
2018,5,10,15,36,38.482,0.7683,-0.4372,0.2495,-0.395,0,0,0,-0.002,0.009,-0.008,0
2018,5,10,15,36,38.502,0.7683,-0.4372,0.2495,-0.395,0,0,0,-0.001,0.009,-0.006,1023
2018,5,10,15,36,38.541,0.7683,-0.4372,0.2495,-0.395,0,0,0,0,0.007,-0.007,1023
2018,5,10,15,36,38.563,0.7683,-0.4373,0.2495,-0.395,0,0,0,0,0.009,-0.009,1023
2018,5,10,15,36,38.567,0.7683,-0.4373,0.2495,-0.395,0,0,0,0,0.01,-0.007,1023
2018,5,10,15,36,38.583,0.7683,-0.4373,0.2495,-0.395,0,0,0,-0.002,0.009,-0.002,1023
2018,5,10,15,36,38.621,0.7683,-0.4373,0.2496,-0.395,0,0,0,-0.001,0.007,-0.006,1023
2018,5,10,15,36,38.641,0.7683,-0.4373,0.2495,-0.395,0,0,0,0,0.011,-0.007,1023
2018,5,10,15,36,38.645,0.7683,-0.4373,0.2496,-0.395,0,0,0,0.002,0.008,-0.008,1023
2018,5,10,15,36,38.667,0.7683,-0.4373,0.2496,-0.395,0,0,0,0,0.009,-0.007,1023
2018,5,10,15,36,38.686,0.7683,-0.4373,0.2496,-0.395,0,0,0,-0.004,0.01,-0.005,1023
2018,5,10,15,36,38.724,0.7683,-0.4373,0.2496,-0.395,0.5,0,0,0,0.008,-0.006,1023
2018,5,10,15,36,38.746,0.7684,-0.4372,0.2495,-0.395,0,0,0,0,0.011,-0.004,1023
2018,5,10,15,36,38.75,0.7684,-0.4372,0.2495,-0.395,0.5,0,0,0.001,0.009,-0.009,1023
2018,5,10,15,36,38.77,0.7684,-0.4372,0.2495,-0.395,0,0,0,0,0.009,-0.004,1023
2018,5,10,15,36,38.788,0.7684,-0.4372,0.2495,-0.395,0,0,0,-0.001,0.01,-0.007,0
2018,5,10,15,36,38.807,0.7684,-0.4372,0.2495,-0.395,0,0,0,-0.003,0.008,-0.003,0
2018,5,10,15,36,38.827,0.7684,-0.4372,0.2495,-0.395,0,0,0,-0.004,0.009,-0.005,0
2018,5,10,15,36,38.847,0.7684,-0.4372,0.2495,-0.395,0,0,0,0,0.009,-0.009,0
2018,5,10,15,36,38.867,0.7684,-0.4372,0.2495,-0.395,0,0,0,-0.002,0.01,-0.005,0
2018,5,10,15,36,38.887,0.7684,-0.4372,0.2495,-0.395,0,0,0,-0.001,0.008,-0.008,0
2018,5,10,15,36,38.909,0.7684,-0.4372,0.2495,-0.395,0,0,0,-0.001,0.009,-0.003,0
2018,5,10,15,36,38.929,0.7684,-0.4372,0.2495,-0.395,0,0,0,0,0.011,-0.006,0
2018,5,10,15,36,38.968,0.7684,-0.4372,0.2495,-0.395,0,0,0,0,0.009,-0.003,0
2018,5,10,15,36,38.987,0.7684,-0.4372,0.2495,-0.395,0,0,0,-0.001,0.003,-0.004,0
