ax,ay,az,dpitch,droll,dyaw,heart,time_1,time_2,time_3,time_4,time_5,time_6,w,x,y,z
-0.048,-0.03,-0.051,-14.4,93.6,-1.6,0,2018,5,10,16,11,51.987,0.9075,-0.2214,-0.1805,-0.3077
-0.002,-0.075,-0.089,-17.4,129.1,0.8,1023,2018,5,10,16,11,52.006,0.9124,-0.2024,-0.1838,-0.3044
0.01,0.102,-0.068,-10.8,116.3,1.5,1023,2018,5,10,16,11,52.045,0.9171,-0.1806,-0.1885,-0.301
0.016,0.046,-0.115,-8.4,73.1,-1.3,1023,2018,5,10,16,11,52.066,0.9202,-0.1644,-0.1923,-0.2984
0.012,-0.104,-0.144,-8.4,74.1,-7.2,1023,2018,5,10,16,11,52.068,0.9225,-0.1534,-0.1946,-0.2956
0.016,-0.118,-0.139,-6.8,114.1,-16.4,1023,2018,5,10,16,11,52.086,0.9259,-0.1379,-0.1979,-0.2906
0.009,0.114,-0.094,0.4,112.8,-22.1,1023,2018,5,10,16,11,52.127,0.9296,-0.1191,-0.2033,-0.2832
-0.03,0.242,-0.028,2.1,72.2,-16.3,1023,2018,5,10,16,11,52.145,0.9323,-0.1048,-0.2078,-0.2766
-0.025,0.24,-0.026,-0.6,21.9,-5.3,1023,2018,5,10,16,11,52.15,0.9336,-0.0979,-0.2098,-0.2732
-0.024,0.176,-0.05,-1.5,-6.6,-0.2,0,2018,5,10,16,11,52.186,0.9338,-0.0971,-0.2098,-0.2727
-0.081,0.063,-0.05,-1.4,-2.2,0,0,2018,5,10,16,11,52.206,0.9337,-0.098,-0.2094,-0.273
-0.152,0.129,-0.015,0.7,11.4,1.6,0,2018,5,10,16,11,52.211,0.9337,-0.0968,-0.2101,-0.2729
-0.183,0.138,-0.023,-1.6,3.3,10.2,0,2018,5,10,16,11,52.229,0.9336,-0.0953,-0.2105,-0.2736
-0.122,0.308,-0.013,-2.5,-20.5,22.6,0,2018,5,10,16,11,52.27,0.9327,-0.0958,-0.2101,-0.2766
-0.071,0.31,-0.076,-0.9,-38.8,33.3,0,2018,5,10,16,11,52.292,0.9309,-0.0998,-0.2087,-0.2824
-0.092,0.239,-0.051,1.8,-45.3,39.9,0,2018,5,10,16,11,52.296,0.9283,-0.1053,-0.2073,-0.29
-0.083,0.177,0.05,0.8,-54.1,44.1,0,2018,5,10,16,11,52.315,0.9251,-0.1119,-0.2058,-0.2985
-0.023,0.198,0.064,3.9,-77.8,46.1,0,2018,5,10,16,11,52.334,0.9213,-0.1207,-0.2038,-0.3082
-0.055,-0.248,0.109,-5.6,-109.4,35.1,0,2018,5,10,16,11,52.351,0.917,-0.1351,-0.1988,-0.3182
0.007,-0.397,0.183,-16.7,-68.5,32.6,0,2018,5,10,16,11,52.389,0.9133,-0.1475,-0.1926,-0.3269
-0.003,-0.359,0.217,-33.5,-18.5,40.5,0,2018,5,10,16,11,52.393,0.911,-0.1518,-0.1867,-0.3347
0.129,0.005,-0.049,-32.7,32.5,50.7,0,2018,5,10,16,11,52.412,0.9097,-0.1465,-0.1831,-0.3426
0.155,0.145,-0.108,-23.8,-23.6,41.6,0,2018,5,10,16,11,52.449,0.9079,-0.1417,-0.1804,-0.3505
0.094,-0.122,-0.03,-19.3,-60.4,30.7,0,2018,5,10,16,11,52.469,0.9053,-0.1468,-0.1744,-0.3582
0.055,-0.236,0.026,-17.7,-37.2,23,0,2018,5,10,16,11,52.474,0.9029,-0.1529,-0.1689,-0.3644
0.058,-0.191,0.022,-15.6,-2.2,17.5,0,2018,5,10,16,11,52.493,0.9016,-0.1541,-0.1656,-0.3685
0.066,-0.175,-0.007,-13.4,18.5,12.4,0,2018,5,10,16,11,52.513,0.9013,-0.1512,-0.1644,-0.371
0.067,-0.111,-0.035,-11,15.2,5.4,0,2018,5,10,16,11,52.53,0.9016,-0.1469,-0.1639,-0.3721
0.071,-0.137,-0.011,-9.8,1.7,-1.6,0,2018,5,10,16,11,52.551,0.9021,-0.1447,-0.1628,-0.3724
0.074,-0.181,0.007,-10.1,-4.6,-5.5,0,2018,5,10,16,11,52.571,0.9026,-0.1446,-0.1609,-0.3721
0.075,-0.19,0,-10.5,6.1,-7.3,0,2018,5,10,16,11,52.609,0.9033,-0.1441,-0.1591,-0.3713
0.091,-0.119,-0.006,-10.6,11.9,-9.7,0,2018,5,10,16,11,52.627,0.9044,-0.1421,-0.1579,-0.3699
0.114,-0.067,0.005,-10.4,7.4,-12.8,1023,2018,5,10,16,11,52.63,0.9057,-0.14,-0.1566,-0.368
0.136,-0.081,0.008,-8.1,-7.4,-17.3,1023,2018,5,10,16,11,52.67,0.9069,-0.1398,-0.1547,-0.3658
0.166,-0.098,0.043,-5.7,-15.7,-17.6,1023,2018,5,10,16,11,52.69,0.908,-0.1417,-0.1524,-0.3635
0.147,-0.095,0.106,-5.7,-7.7,-15.4,1023,2018,5,10,16,11,52.694,0.9089,-0.1438,-0.1502,-0.3614
0.105,-0.06,0.126,-8.9,12.2,-12.1,1023,2018,5,10,16,11,52.731,0.91,-0.1432,-0.1488,-0.3593
0.071,0.002,0.088,-10.9,19.7,-11.7,1023,2018,5,10,16,11,52.752,0.9117,-0.1396,-0.1469,-0.3572
0.021,0.041,0.085,-10.5,9.2,-13.3,1023,2018,5,10,16,11,52.756,0.9133,-0.1363,-0.1453,-0.3551
-0.038,0.09,0.103,-11,-8.9,-14.6,1023,2018,5,10,16,11,52.794,0.9145,-0.1352,-0.1432,-0.3533
-0.096,0.013,0.113,-12.2,-12.6,-16.9,1023,2018,5,10,16,11,52.814,0.9154,-0.1365,-0.1406,-0.3515
-0.121,0.026,0.107,-13,4.3,-19.5,0,2018,5,10,16,11,52.818,0.9167,-0.1365,-0.1384,-0.349
-0.125,0.071,0.048,-15.1,22.2,-21.4,0,2018,5,10,16,11,52.832,0.9186,-0.1331,-0.1373,-0.3457
-0.076,0.12,0.014,-16,22.2,-21.6,0,2018,5,10,16,11,52.87,0.9209,-0.1285,-0.1357,-0.342
-0.061,0.159,0.043,-15.6,0.2,-19,0,2018,5,10,16,11,52.891,0.9227,-0.1262,-0.1334,-0.3387
-0.023,0.128,-0.007,-17,-19.4,-11.9,0,2018,5,10,16,11,52.895,0.9238,-0.1271,-0.1299,-0.3368
0.083,0.138,-0.11,-16.2,-43.5,-4.7,0,2018,5,10,16,11,52.914,0.924,-0.1302,-0.1255,-0.3368
0.138,0.179,-0.19,-7,-94.4,1.1,0,2018,5,10,16,11,52.936,0.9228,-0.1402,-0.1196,-0.3382
0.12,0.221,-0.242,3.6,-173.5,5.2,0,2018,5,10,16,11,52.971,0.9191,-0.1615,-0.1115,-0.3415
0.097,0.173,-0.317,14.3,-262.4,5.7,0,2018,5,10,16,11,52.99,0.9117,-0.197,-0.1,-0.3462
0.098,0.089,-0.401,28.9,-342.8,3.9,0,2018,5,10,16,11,52.994,0.8991,-0.2468,-0.0854,-0.3512
0.068,0.067,-0.431,45.4,-414.9,1.9,0,2018,5,10,16,11,53.035,0.8799,-0.3084,-0.0678,-0.3549
-0.02,0.093,-0.283,49.5,-451.7,2.5,0,2018,5,10,16,11,53.039,0.853,-0.3777,-0.0481,-0.3567
-0.062,0.011,-0.139,40.7,-435,9.2,0,2018,5,10,16,11,53.055,0.8202,-0.4458,-0.0272,-0.3572
-0.063,0.003,-0.169,31.7,-386.7,15.3,0,2018,5,10,16,11,53.093,0.7853,-0.5054,-0.0077,-0.3573
-0.1,0.116,-0.209,28.7,-345.7,17.7,0,2018,5,10,16,11,53.097,0.7504,-0.5563,0.0095,-0.3568
-0.144,0.101,-0.084,27.4,-305.8,21.7,0,2018,5,10,16,11,53.114,0.7162,-0.5999,0.0241,-0.3556
-0.188,-0.076,0.018,28.6,-243.4,23.1,0,2018,5,10,16,11,53.152,0.6848,-0.6357,0.0347,-0.3543
-0.167,-0.251,-0.05,23.7,-143.9,19.4,0,2018,5,10,16,11,53.173,0.6614,-0.6605,0.0406,-0.3528
-0.108,-0.089,-0.103,19.5,-67.5,22.5,0,2018,5,10,16,11,53.177,0.6481,-0.6739,0.0415,-0.352
-0.108,-0.078,-0.054,17.5,-31.7,30,0,2018,5,10,16,11,53.198,0.6405,-0.6811,0.039,-0.3525
-0.098,-0.191,-0.088,16.3,8.2,21.6,0,2018,5,10,16,11,53.219,0.6366,-0.6844,0.0343,-0.3535
-0.047,-0.342,-0.14,19.3,58.5,13.3,0,2018,5,10,16,11,53.234,0.6388,-0.6827,0.0286,-0.3533
-0.057,-0.37,-0.029,22.8,131.4,3.9,0,2018,5,10,16,11,53.271,0.6497,-0.6734,0.0195,-0.352
-0.05,-0.377,0.09,19.5,172.8,-6,1023,2018,5,10,16,11,53.292,0.6677,-0.6572,0.0085,-0.3493
-0.038,-0.284,0.071,15.8,211.7,-10.3,1023,2018,5,10,16,11,53.296,0.6902,-0.6353,-0.0036,-0.3461
-0.02,-0.314,0.012,13.1,261.6,-12.7,1023,2018,5,10,16,11,53.315,0.7165,-0.6075,-0.0176,-0.3422
0.016,-0.088,-0.06,12.2,295.6,-13.8,1023,2018,5,10,16,11,53.335,0.7461,-0.5728,-0.034,-0.3374
0.024,0.063,-0.074,12.3,289.1,-14.3,1023,2018,5,10,16,11,53.373,0.775,-0.5351,-0.0514,-0.332
0.05,0.101,-0.094,10,271.5,-14.5,1023,2018,5,10,16,11,53.393,0.8006,-0.4979,-0.0678,-0.3262
0.026,0.111,-0.082,7.4,253.1,-17.1,1023,2018,5,10,16,11,53.398,0.8232,-0.4617,-0.0826,-0.3198
0.01,0.032,-0.098,3.6,241.7,-18.8,1023,2018,5,10,16,11,53.419,0.8429,-0.4268,-0.0959,-0.3131
0.037,-0.008,-0.102,2.1,243.6,-19.8,1023,2018,5,10,16,11,53.438,0.8609,-0.392,-0.1079,-0.3056
0.016,0.156,0.027,-0.2,218.2,-19.4,0,2018,5,10,16,11,53.479,0.8772,-0.3571,-0.1189,-0.298
0.011,0.212,0.047,-3.7,176.4,-18.9,0,2018,5,10,16,11,53.498,0.8898,-0.3274,-0.1276,-0.2909
-0.006,0.099,0.006,-12.4,165.2,-15.9,0,2018,5,10,16,11,53.502,0.9001,-0.3009,-0.134,-0.2849
0.029,-0.034,-0.055,-19.4,191.3,-9.8,0,2018,5,10,16,11,53.517,0.9101,-0.272,-0.1393,-0.2794
0.071,0.122,-0.082,-17.9,203,-3.9,0,2018,5,10,16,11,53.554,0.9201,-0.2386,-0.1454,-0.2742
0.094,0.264,-0.098,-6.4,166.1,-2.7,0,2018,5,10,16,11,53.575,0.928,-0.2072,-0.1522,-0.2694
0.01,0.101,-0.008,-3.5,106,-6.3,0,2018,5,10,16,11,53.579,0.9329,-0.1853,-0.1575,-0.2653
-0.001,-0.129,-0.067,-2.1,106.4,-3.3,0,2018,5,10,16,11,53.599,0.9363,-0.1691,-0.1616,-0.2616
0.004,-0.04,-0.071,1.2,128.1,-3.7,0,2018,5,10,16,11,53.619,0.9398,-0.15,-0.1668,-0.2576
-0.027,0.102,0,3.5,109.1,-6.7,0,2018,5,10,16,11,53.638,0.9429,-0.1298,-0.1728,-0.2532
-0.05,0.089,0.001,3.4,66.6,-11.6,0,2018,5,10,16,11,53.678,0.945,-0.115,-0.1776,-0.2492
-0.025,0.086,-0.029,3.6,38.7,-10.3,0,2018,5,10,16,11,53.699,0.9463,-0.1062,-0.1807,-0.2459
-0.043,0.06,-0.023,3.6,24.5,-7.5,0,2018,5,10,16,11,53.703,0.947,-0.101,-0.1831,-0.2436
-0.052,0.056,0.039,0.6,17.5,-4.2,0,2018,5,10,16,11,53.718,0.9475,-0.0974,-0.1847,-0.2419
-0.045,0.077,0.03,-3.2,8.7,-0.2,0,2018,5,10,16,11,53.738,0.9478,-0.0943,-0.1855,-0.2414
-0.021,0.101,0.001,-3.7,-10.7,1.6,0,2018,5,10,16,11,53.758,0.9478,-0.0935,-0.1853,-0.2418
0.001,0.063,-0.099,-1.8,-22.6,6,0,2018,5,10,16,11,53.797,0.9474,-0.0953,-0.1846,-0.2433
0.002,-0.045,-0.036,-2.6,-14.5,6.5,0,2018,5,10,16,11,53.817,0.9468,-0.0983,-0.1836,-0.245
-0.017,0.071,0.051,-1.3,-17.9,9.2,0,2018,5,10,16,11,53.822,0.9463,-0.1004,-0.1828,-0.2468
0.037,-0.103,-0.072,-1.3,-1.1,8.2,0,2018,5,10,16,11,53.859,0.9458,-0.1018,-0.1821,-0.2486
0.009,0,-0.042,1.5,-9.1,4.6,0,2018,5,10,16,11,53.88,0.9454,-0.102,-0.1821,-0.2499
0.033,-0.025,-0.027,4.8,-12.8,-1.8,0,2018,5,10,16,11,53.884,0.9451,-0.1043,-0.1819,-0.2503
0.047,-0.05,0.038,4.8,-9.2,-4.9,0,2018,5,10,16,11,53.902,0.945,-0.1067,-0.1817,-0.2499
0.051,-0.047,0.036,5.9,-6.2,-5.1,0,2018,5,10,16,11,53.922,0.945,-0.1086,-0.1814,-0.2491
0.049,0.02,0.047,5.1,-9.9,-4.6,1023,2018,5,10,16,11,53.941,0.9451,-0.11,-0.1813,-0.2484
0.055,0.003,0.044,3.8,-21.7,-4.2,1023,2018,5,10,16,11,53.959,0.945,-0.1126,-0.1806,-0.2481
0.05,-0.017,0.043,3.9,-19.2,-1.7,1023,2018,5,10,16,11,53.979,0.9447,-0.1162,-0.1796,-0.2482
0.026,0.013,0.059,4.6,-16.7,0.7,1023,2018,5,10,16,11,53.998,0.9444,-0.1191,-0.179,-0.2486
0,0.003,0.013,6.4,-15.8,2.8,1023,2018,5,10,16,11,54.039,0.9438,-0.1217,-0.179,-0.2493
-0.014,0.006,-0.015,7.1,-15.3,3.6,1023,2018,5,10,16,11,54.061,0.9431,-0.1244,-0.1797,-0.2503
-0.02,0.018,-0.011,6.2,-11.8,3.3,1023,2018,5,10,16,11,54.065,0.9424,-0.1267,-0.1805,-0.2512
-0.019,-0.005,-0.009,3.9,-11.6,1.9,1023,2018,5,10,16,11,54.083,0.9418,-0.1287,-0.1811,-0.2519
-0.03,-0.015,-0.013,1.9,-11.4,2.1,0,2018,5,10,16,11,54.103,0.9413,-0.1307,-0.1813,-0.2525
-0.012,-0.006,-0.038,1.3,-19,2,0,2018,5,10,16,11,54.122,0.9408,-0.1333,-0.1811,-0.2533
0,-0.009,-0.038,1.8,-27.7,1.4,0,2018,5,10,16,11,54.161,0.9401,-0.1375,-0.1805,-0.2543
0.005,0.005,-0.014,2.6,-33.1,1.6,0,2018,5,10,16,11,54.182,0.9392,-0.1425,-0.1796,-0.2554
0.005,0.031,-0.055,3.1,-34.2,2,0,2018,5,10,16,11,54.186,0.9381,-0.1481,-0.1786,-0.2567
0.005,-0.029,-0.034,1.4,-26.1,1.7,0,2018,5,10,16,11,54.201,0.9371,-0.1532,-0.1778,-0.258
0.019,-0.011,0.007,1.8,-11.7,2.7,0,2018,5,10,16,11,54.241,0.9365,-0.1564,-0.1771,-0.2588
0.013,0.006,0.026,2.6,-7.8,4.6,0,2018,5,10,16,11,54.245,0.9361,-0.1577,-0.1769,-0.2596
0.01,0.031,-0.001,3.1,-13.9,5,0,2018,5,10,16,11,54.261,0.9355,-0.159,-0.177,-0.2607
-0.003,-0.044,0.003,1.1,-16.9,4.4,0,2018,5,10,16,11,54.298,0.9349,-0.1615,-0.1767,-0.2619
0.005,-0.035,0.007,-0.4,-9,4,0,2018,5,10,16,11,54.318,0.9343,-0.1639,-0.1761,-0.2629
0.014,-0.016,0.006,-1.3,-2.1,2.7,0,2018,5,10,16,11,54.322,0.9341,-0.1645,-0.1755,-0.2636
0.022,-0.011,0.007,-1.5,-2.7,1.8,0,2018,5,10,16,11,54.362,0.934,-0.1647,-0.175,-0.264
0.03,0.003,0.008,-1.2,-8.1,1.1,0,2018,5,10,16,11,54.382,0.9339,-0.1654,-0.1743,-0.2644
0.023,0.025,-0.009,0.1,-13.5,0.7,0,2018,5,10,16,11,54.386,0.9336,-0.1669,-0.1735,-0.2649
0.012,-0.001,0.005,0,-15.2,0.6,0,2018,5,10,16,11,54.406,0.9332,-0.1692,-0.1727,-0.2655
0.016,0.036,0.011,0,-18.9,1.4,0,2018,5,10,16,11,54.427,0.9327,-0.1716,-0.1718,-0.2662
0.008,0.052,0.006,0.7,-29.4,2.2,0,2018,5,10,16,11,54.441,0.932,-0.175,-0.1708,-0.2673
0.005,0.06,-0.005,2.3,-44.2,3.1,0,2018,5,10,16,11,54.482,0.9308,-0.1801,-0.1695,-0.2689
-0.009,0.044,-0.021,4.2,-60,3.6,0,2018,5,10,16,11,54.5,0.9288,-0.1883,-0.1678,-0.2711
-0.1,0.074,-0.026,5.9,-62.7,7.1,0,2018,5,10,16,11,54.504,0.9263,-0.198,-0.1663,-0.2738
-0.026,0.084,-0.042,7.5,-76.9,5.2,0,2018,5,10,16,11,54.544,0.9234,-0.2082,-0.165,-0.2767
-0.014,0.063,0.03,4.6,-110.2,4.7,0,2018,5,10,16,11,54.563,0.9196,-0.2227,-0.1618,-0.28
-0.001,0.094,0.014,4.3,-147.9,6.2,0,2018,5,10,16,11,54.567,0.914,-0.2427,-0.1564,-0.2846
-0.003,0.047,-0.009,5.6,-181.7,5.5,1023,2018,5,10,16,11,54.587,0.9063,-0.2684,-0.1495,-0.2899
0.004,0.071,-0.102,10,-222.1,4.3,1023,2018,5,10,16,11,54.606,0.8958,-0.3002,-0.1409,-0.2956
-0.003,-0.023,-0.16,10.3,-242.5,0.8,1023,2018,5,10,16,11,54.644,0.882,-0.3379,-0.1309,-0.3011
-0.008,-0.131,-0.131,7,-206.9,0.3,1023,2018,5,10,16,11,54.664,0.8677,-0.3731,-0.1201,-0.3056
-0.011,-0.249,-0.099,6.2,-133.3,0.3,1023,2018,5,10,16,11,54.668,0.8562,-0.3987,-0.112,-0.3087
0.01,-0.175,-0.107,7.6,-68.4,-2.5,1023,2018,5,10,16,11,54.683,0.8492,-0.4135,-0.1077,-0.3099
0.044,-0.071,-0.137,11.2,-31.6,-4.4,1023,2018,5,10,16,11,54.723,0.8457,-0.4212,-0.1063,-0.3096
0.053,-0.114,-0.089,10,-20.5,-11.2,1023,2018,5,10,16,11,54.744,0.8442,-0.4254,-0.1061,-0.308
0.036,-0.031,0.02,9.2,-41.1,-14,1023,2018,5,10,16,11,54.748,0.8423,-0.4314,-0.1044,-0.3056
0.021,0.003,0.135,6.8,-62.5,-11.1,0,2018,5,10,16,11,54.784,0.839,-0.4396,-0.1014,-0.304
0.019,0.05,0.195,2,-58.9,-2.5,0,2018,5,10,16,11,54.804,0.8344,-0.4492,-0.0981,-0.3038
0.03,0.436,0.244,-1.2,-90.2,6.1,0,2018,5,10,16,11,54.808,0.8286,-0.4594,-0.0946,-0.3055
-0.089,0.334,0.159,1.5,-192.8,4.9,0,2018,5,10,16,11,54.844,0.8167,-0.4795,-0.0877,-0.3085
-0.097,0.131,0.077,-6.3,-253.6,16.2,0,2018,5,10,16,11,54.865,0.7961,-0.5121,-0.0755,-0.3132
-0.17,0.212,0.179,-21.5,-260.9,31.4,0,2018,5,10,16,11,54.869,0.771,-0.5463,-0.0616,-0.3212
-0.003,-0.17,-0.248,-28.8,-206.3,23,0,2018,5,10,16,11,54.888,0.7467,-0.5754,-0.0479,-0.33
0.168,-0.099,-0.39,-21.8,-178.6,16.6,0,2018,5,10,16,11,54.908,0.7265,-0.5979,-0.0354,-0.3367
-0.011,-0.595,-0.177,-17.7,-133.6,2.8,0,2018,5,10,16,11,54.927,0.709,-0.6167,-0.0249,-0.341
0.023,-0.378,-0.094,-18.8,-56,-1.3,0,2018,5,10,16,11,54.965,0.699,-0.6269,-0.0172,-0.3435
0.005,-0.366,-0.164,-22.3,23.8,-6.1,0,2018,5,10,16,11,54.987,0.6974,-0.6276,-0.0134,-0.3455
0.007,-0.388,-0.38,-8.8,106.6,-16.1,0,2018,5,10,16,11,54.991,0.7058,-0.6181,-0.0145,-0.3454
-0.012,-0.507,-0.444,-0.2,214.4,-19.3,0,2018,5,10,16,11,55.008,0.7237,-0.5982,-0.0217,-0.3432
-0.028,0.001,-0.466,13.2,301.3,-30.9,0,2018,5,10,16,11,55.028,0.7524,-0.564,-0.0361,-0.3382
-0.045,-0.073,-0.009,8.5,319.4,-35.2,0,2018,5,10,16,11,55.049,0.7835,-0.5237,-0.0525,-0.3301
0.005,0.488,0.183,-9.1,287.3,-28.8,0,2018,5,10,16,11,55.068,0.8128,-0.48,-0.0675,-0.3228
0.016,0.098,-0.022,-13.6,196.7,-31.5,0,2018,5,10,16,11,55.088,0.8335,-0.4461,-0.0765,-0.3166
0.007,0.073,-0.17,-12.8,215.2,-24.7,0,2018,5,10,16,11,55.129,0.8499,-0.4173,-0.0831,-0.3106
0.034,0.659,-0.047,-8.8,186.9,-13.3,0,2018,5,10,16,11,55.133,0.8658,-0.3854,-0.0917,-0.3055
-0.044,0.491,-0.017,3.4,72.3,-1.7,0,2018,5,10,16,11,55.148,0.8744,-0.3663,-0.0976,-0.3025
0.099,0.195,-0.391,2.6,27.4,9.4,0,2018,5,10,16,11,55.168,0.8768,-0.3598,-0.1012,-0.3021
0.124,-0.024,-0.073,-0.9,78.2,24.4,0,2018,5,10,16,11,55.189,0.8788,-0.3526,-0.1047,-0.3039
0.015,0.392,0.094,4.5,49.2,28.1,0,2018,5,10,16,11,55.207,0.8819,-0.34,-0.111,-0.3068
0.027,-0.462,-0.473,7.2,39.8,15.8,0,2018,5,10,16,11,55.247,0.8822,-0.3364,-0.1145,-0.3088
0.13,0.223,-0.383,28.4,124.6,21.2,1023,2018,5,10,16,11,55.267,0.8864,-0.3218,-0.1237,-0.3088
0.043,0.258,-0.305,46.4,56.6,17.7,1023,2018,5,10,16,11,55.271,0.8896,-0.3088,-0.1358,-0.3077
-0.046,0.018,-0.235,57.2,1.4,7,1023,2018,5,10,16,11,55.292,0.8889,-0.3077,-0.146,-0.3061
-0.141,0.049,0.035,54.4,-22.4,3.7,1023,2018,5,10,16,11,55.313,0.8867,-0.312,-0.1544,-0.304
-0.192,-0.056,0.334,33.3,-26.8,5.3,1023,2018,5,10,16,11,55.331,0.8839,-0.3178,-0.1602,-0.3032
-0.126,0.033,0.366,13.2,-32.7,5.8,1023,2018,5,10,16,11,55.352,0.8814,-0.3229,-0.1627,-0.3036
-0.072,-0.03,0.098,6.6,-19,9.8,1023,2018,5,10,16,11,55.371,0.8793,-0.3268,-0.1629,-0.3054
-0.088,-0.056,0.073,4.5,14.2,11.1,1023,2018,5,10,16,11,55.408,0.8786,-0.3267,-0.1642,-0.3069
-0.06,-0.138,0.027,6.1,42.7,11.9,1023,2018,5,10,16,11,55.429,0.8794,-0.3226,-0.1674,-0.3073
-0.036,-0.056,0.15,3.5,45.9,9.1,0,2018,5,10,16,11,55.433,0.8814,-0.3153,-0.1712,-0.307
-0.041,-0.025,0.056,-2.1,44.2,9.7,0,2018,5,10,16,11,55.451,0.8834,-0.3077,-0.1741,-0.3073
0.057,0.026,-0.12,-0.2,55.6,9.2,0,2018,5,10,16,11,55.471,0.8855,-0.2998,-0.1773,-0.3072
-0.001,-0.101,0.037,-0.6,54.7,3.3,0,2018,5,10,16,11,55.491,0.8881,-0.2914,-0.1802,-0.3062
0,0.052,0.121,-1.3,49.9,5.3,0,2018,5,10,16,11,55.51,0.8909,-0.2823,-0.1827,-0.3052
0.001,0.066,0.086,-4.2,45.9,9.2,0,2018,5,10,16,11,55.549,0.8931,-0.2736,-0.1849,-0.3052
-0.034,0.037,0.067,-6.3,55.7,12.1,0,2018,5,10,16,11,55.569,0.8953,-0.2641,-0.1873,-0.3057
-0.006,0.044,-0.008,-6.3,66.9,15.5,0,2018,5,10,16,11,55.573,0.8977,-0.2527,-0.1904,-0.3063
-0.022,0.051,0.099,-9.1,72.8,18,0,2018,5,10,16,11,55.592,0.9004,-0.2395,-0.1936,-0.307
-0.018,0.133,0.006,-7.7,67.3,24.4,0,2018,5,10,16,11,55.613,0.9027,-0.2255,-0.1971,-0.3085
0.011,0.198,-0.087,-4.2,23.6,28.2,0,2018,5,10,16,11,55.629,0.9034,-0.2164,-0.1997,-0.3114
0.01,0.043,-0.155,-2.9,0,31,0,2018,5,10,16,11,55.67,0.9021,-0.2139,-0.2011,-0.316
0.014,-0.017,-0.034,-3.3,20.7,36,0,2018,5,10,16,11,55.689,0.9005,-0.2114,-0.2027,-0.3211
0.023,-0.015,0.096,-3.2,30.4,34.9,0,2018,5,10,16,11,55.693,0.8999,-0.205,-0.2046,-0.3257
-0.019,0.083,0.128,-4,-58.2,27.4,0,2018,5,10,16,11,55.714,0.8981,-0.2049,-0.2042,-0.331
-0.028,-0.218,-0.138,-8.4,-96.6,28.3,0,2018,5,10,16,11,55.733,0.8934,-0.2172,-0.1989,-0.3389
0.023,-0.251,-0.083,-9.4,-44.9,18.2,0,2018,5,10,16,11,55.754,0.8898,-0.2265,-0.1941,-0.3452
-0.016,-0.2,0.014,-12.3,-15.5,7,0,2018,5,10,16,11,55.773,0.8884,-0.2295,-0.1912,-0.3484
-0.009,-0.058,0.062,-15.2,-2.1,6.7,0,2018,5,10,16,11,55.808,0.8882,-0.2299,-0.1887,-0.3499
0.003,0.069,0.116,-21.1,-22.2,12.7,0,2018,5,10,16,11,55.829,0.8879,-0.2296,-0.1853,-0.3526
0.089,0.098,-0.09,-23.4,-42.1,18.8,0,2018,5,10,16,11,55.833,0.8865,-0.232,-0.1801,-0.3573
0.07,0.129,-0.003,-24.9,-28.2,30.2,0,2018,5,10,16,11,55.852,0.8845,-0.2344,-0.1749,-0.3634
0.053,0.129,-0.006,-19.3,-22.1,35.7,0,2018,5,10,16,11,55.871,0.8821,-0.2348,-0.1714,-0.3703
0.016,0.024,-0.015,-11.2,-29.6,36.1,0,2018,5,10,16,11,55.892,0.8792,-0.2363,-0.1689,-0.3774
0.018,-0.038,-0.031,-1.8,-31.4,32.8,0,2018,5,10,16,11,55.912,0.8759,-0.2397,-0.1672,-0.3838
0.039,-0.176,-0.18,5.1,-21.4,29.4,1023,2018,5,10,16,11,55.934,0.8725,-0.2435,-0.1668,-0.3892
-0.041,-0.233,-0.051,5.4,8.2,26.3,1023,2018,5,10,16,11,55.954,0.8701,-0.2442,-0.1686,-0.3934
-0.033,-0.167,-0.041,4.7,21.4,22.1,1023,2018,5,10,16,11,55.993,0.8689,-0.2413,-0.1716,-0.3964
-0.035,-0.187,-0.063,6.2,10,13.8,1023,2018,5,10,16,11,56.011,0.8681,-0.2388,-0.1743,-0.3985
-0.019,-0.197,-0.096,8.8,4.6,5.8,1023,2018,5,10,16,11,56.016,0.8674,-0.2383,-0.1763,-0.3994
-0.042,-0.178,-0.051,9.2,14.1,-0.7,1023,2018,5,10,16,11,56.054,0.8673,-0.2377,-0.1785,-0.3991
-0.062,-0.119,-0.045,7,22.5,-5,1023,2018,5,10,16,11,56.073,0.8679,-0.2357,-0.1811,-0.3977
-0.078,-0.035,0.006,2.9,20.5,-8.3,1023,2018,5,10,16,11,56.078,0.8691,-0.2332,-0.1833,-0.3956
-0.056,0.068,0.024,-1,-5.5,-12.1,1023,2018,5,10,16,11,56.096,0.8699,-0.2323,-0.1842,-0.3939
-0.036,0.02,-0.032,-1.5,-32.4,-17.8,0,2018,5,10,16,11,56.113,0.87,-0.2357,-0.1826,-0.3925
-0.036,-0.01,0.03,-4.7,-34,-17.5,0,2018,5,10,16,11,56.151,0.8697,-0.2418,-0.1791,-0.3909
-0.009,0.106,0.048,-5.7,-41.3,-15.3,0,2018,5,10,16,11,56.171,0.8695,-0.2467,-0.1756,-0.3901
0,0.074,0,-4.5,-71.7,-16.1,0,2018,5,10,16,11,56.175,0.8682,-0.2549,-0.1706,-0.3899
0.004,-0.032,-0.026,-3.7,-71.6,-13.9,0,2018,5,10,16,11,56.196,0.8658,-0.2667,-0.1644,-0.39
0.019,0.009,-0.035,-1.7,-54,-10.4,0,2018,5,10,16,11,56.215,0.8635,-0.2768,-0.1593,-0.3901
0.027,-0.068,-0.005,-2.8,-37.1,-7.1,0,2018,5,10,16,11,56.253,0.862,-0.2839,-0.1551,-0.39
0.047,-0.05,-0.005,-2.4,-29.1,-5.3,0,2018,5,10,16,11,56.273,0.8609,-0.2892,-0.1517,-0.3899
0.016,0.031,0.004,-1.5,-42.5,-5,0,2018,5,10,16,11,56.278,0.8596,-0.2945,-0.1485,-0.39
0.006,0.02,0.001,-3.4,-56.4,-5.5,0,2018,5,10,16,11,56.298,0.8575,-0.3017,-0.1445,-0.3908
0.012,0,0,-4.6,-71.9,-6.8,0,2018,5,10,16,11,56.314,0.8544,-0.3114,-0.1392,-0.3917
0.003,-0.05,-0.01,-3.7,-89.6,-11,0,2018,5,10,16,11,56.333,0.8507,-0.3235,-0.1322,-0.3924
0.005,-0.029,-0.047,-2.4,-111.2,-16.7,0,2018,5,10,16,11,56.354,0.8457,-0.3391,-0.1239,-0.3927
0.018,-0.003,-0.123,-0.1,-119.4,-19.6,0,2018,5,10,16,11,56.39,0.8396,-0.3574,-0.1147,-0.3924
0.072,-0.034,-0.101,3.7,-136.1,-28,0,2018,5,10,16,11,56.411,0.8329,-0.3771,-0.1046,-0.3912
0.068,0.014,-0.047,9.1,-170.8,-29.9,0,2018,5,10,16,11,56.415,0.8244,-0.4009,-0.0923,-0.3886
0.045,-0.072,-0.102,12.8,-174.1,-25,0,2018,5,10,16,11,56.456,0.813,-0.4281,-0.0796,-0.3864
-0.001,-0.116,-0.072,12.9,-134.3,-23.3,0,2018,5,10,16,11,56.477,0.8027,-0.4509,-0.0693,-0.3839
-0.019,-0.018,-0.019,11.1,-114.2,-17.4,0,2018,5,10,16,11,56.481,0.7937,-0.4697,-0.061,-0.3814
-0.013,0.029,-0.038,11.1,-100.3,-13.3,0,2018,5,10,16,11,56.498,0.7855,-0.4856,-0.0544,-0.3795
-0.024,0.049,-0.078,13.7,-91,-12.9,0,2018,5,10,16,11,56.514,0.7775,-0.5002,-0.0492,-0.3777
-0.055,-0.059,-0.07,13.3,-61.1,-11.9,0,2018,5,10,16,11,56.553,0.7708,-0.5126,-0.0451,-0.3755
-0.043,-0.103,-0.06,11.9,-7.4,-9.1,0,2018,5,10,16,11,56.573,0.7678,-0.5188,-0.0438,-0.373
-0.016,-0.026,-0.067,10.3,29.4,-7.4,0,2018,5,10,16,11,56.578,0.7692,-0.5184,-0.0454,-0.3706
-0.018,-0.015,-0.081,9.9,38.5,-7.2,0,2018,5,10,16,11,56.597,0.7722,-0.5153,-0.0486,-0.3684
-0.024,-0.021,-0.046,10.1,46.8,-6.4,0,2018,5,10,16,11,56.617,0.7758,-0.511,-0.0522,-0.3661
0.018,0.009,-0.057,10.8,50.9,-7.9,0,2018,5,10,16,11,56.657,0.7801,-0.5057,-0.0562,-0.3638
0.07,-0.001,-0.135,12.4,48.5,-5.6,1023,2018,5,10,16,11,56.674,0.7845,-0.5004,-0.0601,-0.361
0.077,-0.024,-0.151,14.5,42.2,-4.4,1023,2018,5,10,16,11,56.677,0.7883,-0.4954,-0.0645,-0.3589
0.016,-0.018,-0.134,17.6,41.6,-3.3,1023,2018,5,10,16,11,56.717,0.7916,-0.4913,-0.069,-0.3565
-0.012,0.048,-0.093,21.6,45.6,-1.1,1023,2018,5,10,16,11,56.736,0.7946,-0.4875,-0.0745,-0.3538
-0.023,0.049,-0.028,22.8,41.5,-1.9,1023,2018,5,10,16,11,56.741,0.7978,-0.4831,-0.0806,-0.3514
-0.035,0.128,0.017,22.8,30.7,-2.4,1023,2018,5,10,16,11,56.76,0.8005,-0.4793,-0.0864,-0.349
-0.041,0.121,0.034,22.1,12.9,-1.4,1023,2018,5,10,16,11,56.782,0.802,-0.4776,-0.091,-0.3468
-0.038,0.08,0.028,20.3,5.7,0.7,1023,2018,5,10,16,11,56.798,0.8023,-0.4772,-0.0951,-0.3454
-0.05,0.057,0.052,16.7,-0.7,1.7,0,2018,5,10,16,11,56.82,0.8022,-0.4775,-0.0985,-0.3444
-0.031,0.174,0.263,4,-14.9,7,0,2018,5,10,16,11,56.839,0.8013,-0.4787,-0.1001,-0.3444
-0.054,0.133,0.191,-2.4,-48.4,6.9,0,2018,5,10,16,11,56.878,0.7982,-0.4829,-0.0988,-0.346
-0.035,0.013,0.033,-5.7,-57.3,7.8,0,2018,5,10,16,11,56.898,0.793,-0.4902,-0.0956,-0.3485
-0.022,0.024,-0.029,-1.8,-47.2,11,0,2018,5,10,16,11,56.902,0.7879,-0.4971,-0.0929,-0.3512
-0.007,0.012,-0.036,2.2,-41.9,12.5,0,2018,5,10,16,11,56.921,0.7831,-0.5031,-0.0915,-0.3537
-0.022,0.023,-0.013,2.7,-42.5,11.1,0,2018,5,10,16,11,56.94,0.7784,-0.509,-0.0906,-0.3559
-0.019,0.027,-0.034,0.4,-42.7,9.1,0,2018,5,10,16,11,56.961,0.7737,-0.5149,-0.0893,-0.3579
0.012,0.067,-0.063,-2,-47.5,8.7,0,2018,5,10,16,11,56.982,0.7688,-0.5211,-0.0875,-0.36
0.026,0.145,-0.083,-0.2,-67.8,10.2,0,2018,5,10,16,11,57.002,0.7627,-0.5287,-0.0851,-0.3625
0.035,0.154,-0.099,2.5,-102.8,12.7,0,2018,5,10,16,11,57.04,0.7535,-0.5402,-0.0815,-0.3655
0.034,0.033,-0.05,6,-126,13,0,2018,5,10,16,11,57.043,0.7411,-0.5559,-0.0762,-0.3685
0.031,-0.097,-0.047,3.9,-121.9,12.2,0,2018,5,10,16,11,57.059,0.7276,-0.5727,-0.0695,-0.3708
0.038,-0.25,-0.088,2.6,-72,12.2,0,2018,5,10,16,11,57.079,0.7167,-0.5854,-0.0648,-0.3731
0.031,-0.164,-0.113,4.7,-22.7,11.3,0,2018,5,10,16,11,57.115,0.7114,-0.591,-0.0635,-0.3748
0.032,-0.133,-0.165,10.5,1,9.8,0,2018,5,10,16,11,57.135,0.7095,-0.5927,-0.065,-0.3754
0.053,-0.127,-0.216,16.8,17.4,6.9,0,2018,5,10,16,11,57.139,0.7095,-0.5925,-0.0683,-0.375
0.059,-0.08,-0.197,21.4,24.7,3.7,0,2018,5,10,16,11,57.182,0.7112,-0.5911,-0.0727,-0.3734
0.038,-0.04,-0.045,24.9,18.3,1.6,0,2018,5,10,16,11,57.2,0.7128,-0.5901,-0.0773,-0.3709
0.013,-0.013,0.2,21,-1.1,-2.7,0,2018,5,10,16,11,57.205,0.7135,-0.5904,-0.0805,-0.3682
-0.012,0.059,0.38,6.9,-28.5,-4.4,0,2018,5,10,16,11,57.22,0.7119,-0.5933,-0.0809,-0.3666
-0.018,-0.031,0.249,-3.3,-29.1,-2.8,0,2018,5,10,16,11,57.239,0.7085,-0.5977,-0.0785,-0.3665
-0.02,-0.05,0.094,-7.3,1.2,1.7,0,2018,5,10,16,11,57.26,0.7074,-0.5987,-0.0768,-0.3674
-0.025,-0.038,-0.008,-7,15.2,5,0,2018,5,10,16,11,57.281,0.7084,-0.5968,-0.0769,-0.3686
-0.015,-0.04,-0.083,-5.5,13.6,4.1,0,2018,5,10,16,11,57.302,0.7094,-0.595,-0.0776,-0.3695
0.016,-0.012,-0.121,-4.8,10.2,2.9,0,2018,5,10,16,11,57.341,0.7099,-0.5941,-0.0779,-0.3699
0.026,0.009,-0.121,-3.9,5.2,2.1,0,2018,5,10,16,11,57.36,0.7101,-0.5937,-0.078,-0.3701
-0.007,0.012,-0.066,-1.5,-0.3,1.2,1023,2018,5,10,16,11,57.364,0.7097,-0.5941,-0.0781,-0.3703
-0.019,-0.002,0.001,0,0,0,1023,2018,5,10,16,11,57.4,0.7095,-0.5942,-0.0781,-0.3704
-0.002,0.011,0.021,0.3,5.9,-0.7,1023,2018,5,10,16,11,57.421,0.7099,-0.5937,-0.0783,-0.3704
-0.006,0.013,0.036,-0.4,19.8,-0.3,1023,2018,5,10,16,11,57.425,0.7115,-0.5918,-0.0791,-0.3703
-0.017,0.042,0.055,-1.3,20.1,0.3,1023,2018,5,10,16,11,57.445,0.7137,-0.5888,-0.0806,-0.3705
-0.029,0.011,0.041,-2.9,12.3,-0.7,1023,2018,5,10,16,11,57.461,0.7155,-0.5863,-0.0815,-0.3708
-0.015,-0.01,0.039,-4.2,9.3,-4.6,1023,2018,5,10,16,11,57.481,0.717,-0.5845,-0.0815,-0.3709
0.007,-0.013,0,-6.5,8.3,-6.3,0,2018,5,10,16,11,57.501,0.7183,-0.583,-0.0807,-0.3707
0,0.047,-0.022,-6.8,4.7,-6.4,0,2018,5,10,16,11,57.521,0.7196,-0.5817,-0.0797,-0.3706
-0.005,0.026,-0.027,-6,-5.6,-7.8,0,2018,5,10,16,11,57.562,0.7196,-0.5818,-0.0784,-0.3706
-0.008,0.01,-0.017,-6.2,-8.6,-10,0,2018,5,10,16,11,57.583,0.7193,-0.5826,-0.0764,-0.3703
0.039,0.033,-0.03,-7,-9.2,-11.6,0,2018,5,10,16,11,57.587,0.7192,-0.5835,-0.0738,-0.3697
0.054,0.062,-0.053,-5.4,-13.1,-11.9,0,2018,5,10,16,11,57.606,0.7188,-0.5848,-0.071,-0.3688
0.052,0.046,-0.04,-3.7,-17.4,-10.9,0,2018,5,10,16,11,57.643,0.7179,-0.5869,-0.0681,-0.3679
0.058,0.021,-0.057,-2.4,-16.9,-9.2,0,2018,5,10,16,11,57.663,0.7166,-0.5894,-0.0653,-0.367
0.067,0.03,-0.081,-0.6,-11.1,-8.1,0,2018,5,10,16,11,57.668,0.7154,-0.5917,-0.0629,-0.3659
0.078,0.046,-0.111,2,-4.9,-4.1,0,2018,5,10,16,11,57.683,0.7147,-0.5935,-0.0616,-0.3648
0.059,0.031,-0.087,4.7,-2.2,-0.1,0,2018,5,10,16,11,57.72,0.7141,-0.5948,-0.0613,-0.3638
-0.001,0.003,-0.012,5.3,-4.7,0.9,0,2018,5,10,16,11,57.739,0.7136,-0.5958,-0.0617,-0.3632
-0.009,-0.019,0.001,3.1,-8.8,-0.8,0,2018,5,10,16,11,57.743,0.7128,-0.5968,-0.0617,-0.3629
-0.009,-0.012,-0.014,2.2,-12.9,-4.1,0,2018,5,10,16,11,57.762,0.7118,-0.5985,-0.061,-0.3623
-0.001,0.01,-0.028,3.4,-17.3,-5.1,0,2018,5,10,16,11,57.785,0.7105,-0.6006,-0.0598,-0.3615
-0.006,0,0,4.7,-18.9,-3.4,0,2018,5,10,16,11,57.824,0.7085,-0.6035,-0.0588,-0.3609
0,-0.015,0.017,4.7,-17.1,-3.1,0,2018,5,10,16,11,57.845,0.7068,-0.606,-0.0579,-0.3602
0.009,-0.024,0.019,3.7,-8.8,-2.8,0,2018,5,10,16,11,57.849,0.7056,-0.6078,-0.0571,-0.3595
0.026,-0.019,0.004,2.8,-2.5,-2.5,0,2018,5,10,16,11,57.865,0.7054,-0.6085,-0.0565,-0.3588
0.018,-0.009,-0.005,3.3,-1,-1.7,0,2018,5,10,16,11,57.903,0.7055,-0.6089,-0.0563,-0.3581
0.013,-0.038,-0.001,3.6,0.6,-1.1,0,2018,5,10,16,11,57.908,0.7056,-0.6091,-0.0564,-0.3574
0.013,-0.045,0.006,2.5,5.4,-2.1,0,2018,5,10,16,11,57.925,0.7059,-0.6091,-0.0565,-0.3568
0.021,-0.037,-0.021,1.4,10.5,-3.2,0,2018,5,10,16,11,57.945,0.7072,-0.6082,-0.0566,-0.3559
0.015,-0.031,-0.025,1.5,15.8,-4.1,0,2018,5,10,16,11,57.963,0.7087,-0.6069,-0.0569,-0.3549
0.018,-0.041,0,1.9,20.3,-4.9,0,2018,5,10,16,11,58.001,0.711,-0.6049,-0.0575,-0.3537
0.021,-0.044,0.018,1.2,26.9,-5.9,0,2018,5,10,16,11,58.023,0.714,-0.6021,-0.0583,-0.3524
0.017,-0.016,0.027,-0.1,33.9,-5.4,1023,2018,5,10,16,11,58.028,0.7176,-0.5982,-0.0593,-0.3513
-0.01,-0.036,0.05,-1.5,45.4,-3.3,1023,2018,5,10,16,11,58.047,0.7223,-0.593,-0.061,-0.3504
-0.05,-0.085,0.064,-2.4,63.2,-2.9,1023,2018,5,10,16,11,58.066,0.7283,-0.5857,-0.0637,-0.3497
-0.062,-0.091,0.044,-4.8,80.9,-3.5,1023,2018,5,10,16,11,58.086,0.7359,-0.5761,-0.0674,-0.349
-0.024,-0.047,-0.03,-6,98.9,-3.5,1023,2018,5,10,16,11,58.11,0.745,-0.5645,-0.0718,-0.348
-0.038,-0.076,-0.045,-8.4,120.3,-3.1,1023,2018,5,10,16,11,58.13,0.7556,-0.5502,-0.0773,-0.3467
0.013,-0.085,-0.038,-6,138.2,-8.5,1023,2018,5,10,16,11,58.149,0.7681,-0.533,-0.0834,-0.3447
0.061,0.019,-0.099,-0.8,140.5,-10,1023,2018,5,10,16,11,58.17,0.7813,-0.5146,-0.09,-0.3412
0.044,-0.031,-0.043,-2.6,127.3,-11.6,0,2018,5,10,16,11,58.186,0.7934,-0.4971,-0.0964,-0.3376
0.04,-0.025,-0.008,-2.4,136.1,-10,0,2018,5,10,16,11,58.207,0.8052,-0.4792,-0.1024,-0.3337
0.037,-0.03,0.038,-1.8,143.4,-11.7,0,2018,5,10,16,11,58.226,0.8175,-0.4593,-0.1089,-0.3297
0.041,-0.029,0.1,-4.5,139.6,-14.4,0,2018,5,10,16,11,58.264,0.8297,-0.4387,-0.115,-0.3252
0.045,-0.035,0.04,-2.3,141.9,-15.4,0,2018,5,10,16,11,58.286,0.8414,-0.418,-0.1206,-0.3203
0.082,-0.025,0.038,-0.3,144.5,-16.6,0,2018,5,10,16,11,58.289,0.8528,-0.3968,-0.1265,-0.3148
0.073,0.024,-0.039,4.1,133.5,-16.6,0,2018,5,10,16,11,58.311,0.8635,-0.376,-0.1325,-0.3087
0.066,0.009,-0.134,5.3,127,-15.5,0,2018,5,10,16,11,58.33,0.8726,-0.3571,-0.1386,-0.3026
0.001,0.013,-0.032,1.7,121.7,-16.8,0,2018,5,10,16,11,58.368,0.8811,-0.3383,-0.1446,-0.2968
0.009,-0.012,-0.046,1.5,120.8,-14.2,0,2018,5,10,16,11,58.39,0.8889,-0.32,-0.1501,-0.2912
0.052,0.125,-0.005,2.3,101,-12.5,0,2018,5,10,16,11,58.394,0.896,-0.3019,-0.155,-0.2861
0.022,0.226,0.028,0.4,73.4,-6.2,0,2018,5,10,16,11,58.408,0.9011,-0.2878,-0.1591,-0.2823
-0.015,0.243,0.063,-3.9,6.1,-6,0,2018,5,10,16,11,58.429,0.9036,-0.2813,-0.1605,-0.2802
-0.005,0.234,0.039,-5.1,-79.1,-4.2,0,2018,5,10,16,11,58.448,0.9021,-0.2872,-0.1576,-0.2807
0.035,0.239,-0.056,-2.6,-164,-1,0,2018,5,10,16,11,58.488,0.8959,-0.3064,-0.1506,-0.2839
0.026,0.279,-0.132,0.8,-256,0.3,0,2018,5,10,16,11,58.508,0.8841,-0.3392,-0.1398,-0.2891
0.029,0.219,-0.24,3.7,-306.1,10.3,0,2018,5,10,16,11,58.512,0.8658,-0.3828,-0.1258,-0.2964
-0.003,-0.103,-0.307,5.6,-273.3,11.9,0,2018,5,10,16,11,58.53,0.8442,-0.4268,-0.1118,-0.3041
-0.025,-0.192,-0.295,8.6,-194.9,12.1,0,2018,5,10,16,11,58.551,0.8253,-0.4612,-0.1012,-0.3096
0.005,-0.023,-0.106,6.5,-119.2,16.1,0,2018,5,10,16,11,58.57,0.812,-0.4829,-0.0953,-0.3134
-0.052,-0.114,-0.073,6.4,-71.3,17.4,0,2018,5,10,16,11,58.587,0.8024,-0.497,-0.0928,-0.3168
-0.081,0.107,-0.048,7,-48.2,15.3,0,2018,5,10,16,11,58.627,0.7963,-0.5052,-0.0927,-0.3194
-0.051,0.09,-0.058,7.2,-76,17.3,0,2018,5,10,16,11,58.645,0.7894,-0.5142,-0.0919,-0.3222
-0.067,0.048,-0.055,10.4,-89.9,18.3,0,2018,5,10,16,11,58.65,0.7802,-0.5262,-0.0906,-0.3255
-0.082,0.011,-0.033,10.6,-103,17.8,0,2018,5,10,16,11,58.668,0.7695,-0.5401,-0.089,-0.3289
-0.083,-0.093,-0.038,6.8,-85.5,17.6,0,2018,5,10,16,11,58.707,0.7585,-0.5538,-0.0866,-0.332
-0.114,-0.222,0.016,4.5,-18.6,19.7,0,2018,5,10,16,11,58.727,0.752,-0.5613,-0.0861,-0.3344
-0.12,-0.151,0.025,2.9,52.2,18.3,1023,2018,5,10,16,11,58.731,0.7524,-0.559,-0.0897,-0.3363
-0.086,0.034,0.014,3.8,83.5,14,1023,2018,5,10,16,11,58.77,0.7583,-0.5494,-0.0965,-0.3372
-0.071,0.081,0.03,3.9,57.7,9.6,1023,2018,5,10,16,11,58.789,0.7641,-0.5397,-0.1033,-0.3378
-0.064,-0.008,-0.012,2.3,45.8,7.8,1023,2018,5,10,16,11,58.793,0.7677,-0.5332,-0.108,-0.3382
-0.075,-0.103,-0.017,-2.3,55.3,3.9,1023,2018,5,10,16,11,58.83,0.7718,-0.5267,-0.1117,-0.3381
-0.097,-0.125,0.03,-12.3,65.5,1,0,2018,5,10,16,11,58.851,0.777,-0.5186,-0.1144,-0.3377
-0.099,-0.092,0.085,-26.5,89.9,1.4,0,2018,5,10,16,11,58.855,0.7842,-0.5067,-0.1167,-0.3384
0.034,0.402,0.025,-30.6,55.6,4.6,0,2018,5,10,16,11,58.869,0.7914,-0.494,-0.1174,-0.34
0.121,0.301,-0.069,-19.9,-26.2,-1,0,2018,5,10,16,11,58.907,0.7927,-0.4911,-0.1148,-0.3422
0.079,-0.019,0.036,-18.7,-40.2,0.6,0,2018,5,10,16,11,58.926,0.7901,-0.4951,-0.1092,-0.3443
0.038,-0.032,0.015,-16,-6.3,3.3,0,2018,5,10,16,11,58.93,0.7886,-0.4969,-0.1052,-0.3464
0.002,0.03,0.069,-15.9,-4.4,-0.9,0,2018,5,10,16,11,58.952,0.789,-0.4958,-0.1027,-0.3477
-0.023,-0.073,0.139,-18.8,-19.6,-1.1,0,2018,5,10,16,11,58.971,0.7885,-0.4959,-0.0992,-0.3496
-0.052,-0.079,0.09,-20.6,-13.1,-3.6,0,2018,5,10,16,11,58.992,0.7879,-0.4965,-0.0949,-0.3514
-0.07,-0.002,0.1,-21.1,-13.4,-4.9,0,2018,5,10,16,11,59.026,0.7875,-0.4969,-0.091,-0.3529
-0.037,-0.059,0.132,-17.8,-14.2,-8,0,2018,5,10,16,11,59.047,0.7872,-0.497,-0.0871,-0.3544
-0.058,-0.078,0.156,-16.8,-7.8,-12.7,0,2018,5,10,16,11,59.051,0.7874,-0.4971,-0.0829,-0.3547
-0.094,-0.067,0.195,-21.5,0.7,-14.5,0,2018,5,10,16,11,59.09,0.7884,-0.496,-0.079,-0.3549
-0.107,-0.041,0.205,-29.7,4.9,-16.7,0,2018,5,10,16,11,59.109,0.7906,-0.493,-0.0746,-0.3553
-0.083,-0.027,0.125,-35.2,-15,-23.8,0,2018,5,10,16,11,59.113,0.7921,-0.491,-0.0684,-0.3559
-0.038,0,0.054,-39.1,-36.6,-26.7,0,2018,5,10,16,11,59.134,0.792,-0.4921,-0.0595,-0.3562
-0.055,-0.067,-0.006,-40.5,-55.5,-32.2,0,2018,5,10,16,11,59.154,0.7899,-0.4967,-0.0488,-0.3561
-0.085,-0.143,-0.03,-44.3,-55.8,-34.2,0,2018,5,10,16,11,59.174,0.7868,-0.503,-0.0366,-0.3556
-0.113,-0.188,-0.07,-48.7,-34.6,-37.3,0,2018,5,10,16,11,59.194,0.7848,-0.5073,-0.0243,-0.355
-0.114,-0.226,-0.123,-49.4,0.9,-40.2,0,2018,5,10,16,11,59.214,0.7857,-0.507,-0.013,-0.3541
-0.111,-0.206,-0.129,-47.2,47.7,-43.4,0,2018,5,10,16,11,59.234,0.7904,-0.5007,-0.0043,-0.3527
-0.143,-0.069,-0.083,-47.4,69.7,-46.4,0,2018,5,10,16,11,59.271,0.7985,-0.4892,0.0022,-0.3506
-0.143,0.024,-0.021,-47.2,66.1,-50,0,2018,5,10,16,11,59.29,0.8071,-0.4767,0.0087,-0.348
-0.121,0.069,-0.007,-47.1,41,-53.4,0,2018,5,10,16,11,59.294,0.8144,-0.4663,0.0163,-0.3448
-0.099,0.102,-0.004,-49.5,17.8,-53,0,2018,5,10,16,11,59.314,0.8197,-0.4592,0.0258,-0.3411
-0.074,0.06,0.007,-47.7,-8.9,-57.9,0,2018,5,10,16,11,59.334,0.8229,-0.4555,0.0365,-0.3375
-0.058,-0.035,-0.002,-46.5,-25.2,-63.1,0,2018,5,10,16,11,59.355,0.8247,-0.4548,0.0487,-0.3325
-0.034,-0.042,0.021,-47.6,-28.9,-63.7,0,2018,5,10,16,11,59.374,0.8255,-0.4557,0.0619,-0.3269
-0.038,-0.062,0.058,-46.2,-24.7,-64.2,0,2018,5,10,16,11,59.411,0.8264,-0.4562,0.0753,-0.3211
-0.058,-0.099,0.096,-44.5,-5.5,-64.1,1023,2018,5,10,16,11,59.431,0.828,-0.4552,0.0876,-0.3153
0.024,-0.067,0.087,-46.3,20.4,-62.6,1023,2018,5,10,16,11,59.436,0.8315,-0.4501,0.0987,-0.3099
0.037,0,0.054,-46.5,30.8,-60.3,1023,2018,5,10,16,11,59.457,0.8364,-0.442,0.1091,-0.3049
0.088,0.026,0.022,-45.2,31,-55.5,1023,2018,5,10,16,11,59.477,0.8412,-0.4333,0.1191,-0.3004
0.102,0.015,-0.052,-41.6,34.2,-48.3,1023,2018,5,10,16,11,59.515,0.8456,-0.4248,0.1287,-0.2962
0.094,-0.044,-0.075,-36.8,49.7,-41.8,1023,2018,5,10,16,11,59.519,0.8501,-0.4155,0.1357,-0.2934
0.109,-0.034,-0.074,-32.9,55.1,-37.9,0,2018,5,10,16,11,59.536,0.8552,-0.4047,0.1409,-0.2914
0.123,-0.024,-0.093,-30.9,44.1,-34.9,0,2018,5,10,16,11,59.554,0.8598,-0.3946,0.1457,-0.2893
0.145,-0.001,-0.113,-29.1,26.1,-32,0,2018,5,10,16,11,59.594,0.8631,-0.3869,0.1507,-0.2872
0.163,-0.119,-0.084,-30.1,27.5,-32.1,0,2018,5,10,16,11,59.613,0.8656,-0.3808,0.1561,-0.285
0.233,-0.178,-0.076,-30.9,45.8,-34.9,0,2018,5,10,16,11,59.617,0.8688,-0.3727,0.1611,-0.2829
0.223,-0.158,-0.117,-30.1,56.9,-39.3,0,2018,5,10,16,11,59.635,0.8733,-0.362,0.1656,-0.2806
0.2,-0.134,-0.188,-25.9,58.6,-43,0,2018,5,10,16,11,59.654,0.8781,-0.3505,0.1696,-0.2777
0.208,-0.137,-0.209,-19.5,59.1,-45.2,0,2018,5,10,16,11,59.694,0.8833,-0.3388,0.173,-0.2738
0.211,-0.198,-0.162,-11.6,67,-48.5,0,2018,5,10,16,11,59.715,0.8888,-0.3268,0.1751,-0.2692
0.165,-0.209,-0.154,-5.8,80.9,-54.2,0,2018,5,10,16,11,59.719,0.8951,-0.3132,0.1758,-0.2639
0.123,-0.151,-0.172,-2,86.1,-58.7,0,2018,5,10,16,11,59.734,0.9023,-0.2977,0.1756,-0.2575
0.125,-0.105,-0.192,0.8,79.2,-60.7,0,2018,5,10,16,11,59.771,0.9092,-0.2826,0.1751,-0.2505
0.149,-0.084,-0.22,6.6,73.4,-62.7,0,2018,5,10,16,11,59.792,0.9157,-0.2686,0.1742,-0.2425
0.115,-0.077,-0.238,13.8,78,-65.1,0,2018,5,10,16,11,59.796,0.9223,-0.2548,0.1723,-0.2338
0.101,-0.046,-0.255,19.2,87.8,-67.4,0,2018,5,10,16,11,59.817,0.9291,-0.2399,0.1691,-0.2246
0.082,-0.007,-0.296,24.3,98.5,-66.5,0,2018,5,10,16,11,59.837,0.9362,-0.2234,0.1647,-0.2153
0.059,0.038,-0.327,28.9,107.1,-64,0,2018,5,10,16,11,59.873,0.9433,-0.2054,0.159,-0.2062
0.055,0.033,-0.307,31.1,123.1,-61.4,0,2018,5,10,16,11,59.895,0.9504,-0.1856,0.1521,-0.1977
0.047,0.057,-0.295,32.1,146.7,-60,0,2018,5,10,16,11,59.899,0.9574,-0.1624,0.1441,-0.1899
0.057,0.115,-0.31,32.3,167.5,-58,0,2018,5,10,16,11,59.918,0.9643,-0.1352,0.1351,-0.183
0.04,0.201,-0.365,35.1,164.6,-54.4,0,2018,5,10,16,11,59.938,0.9704,-0.1064,0.1254,-0.1764
0.025,0.229,-0.388,39.3,142.4,-49.5,0,2018,5,10,16,11,59.956,0.9753,-0.0802,0.1153,-0.1701
-0.015,0.204,-0.386,43.9,119.1,-44.9,0,2018,5,10,16,11,59.976,0.9791,-0.0582,0.1049,-0.164
-0.07,0.199,-0.381,46.5,99.7,-40.8,0,2018,5,10,16,11,59.998,0.982,-0.0402,0.0944,-0.1582
-0.085,0.243,-0.34,46.5,81,-35.7,0,2018,5,10,16,12,0.017,0.9843,-0.0253,0.0842,-0.1527
-0.014,0.292,-0.356,48.7,48.8,-26.1,1023,2018,5,10,16,12,0.038,0.986,-0.0149,0.0744,-0.1482
0.019,0.242,-0.359,54.5,13.4,-18.1,1023,2018,5,10,16,12,0.074,0.9872,-0.0108,0.0648,-0.1447
-0.07,0.178,-0.31,55.4,-7.8,-11.9,1023,2018,5,10,16,12,0.094,0.9882,-0.0119,0.0552,-0.1421
-0.088,0.183,-0.328,54.2,-27.5,-6.7,1023,2018,5,10,16,12,0.098,0.9889,-0.0161,0.0463,-0.1402
-0.14,0.194,-0.384,62.1,-54.7,2.4,1023,2018,5,10,16,12,0.118,0.9892,-0.0249,0.0373,-0.1393
-0.156,0.119,-0.315,70.6,-63.5,11.9,1023,2018,5,10,16,12,0.138,0.989,-0.0371,0.0273,-0.1399
-0.222,0.089,-0.212,75.2,-56.3,16,1023,2018,5,10,16,12,0.174,0.9885,-0.0495,0.0159,-0.1416
-0.206,0.125,-0.154,74.8,-51.6,18.2,0,2018,5,10,16,12,0.196,0.9877,-0.0603,0.0041,-0.1438
-0.182,0.181,-0.143,78.4,-75.5,21.6,0,2018,5,10,16,12,0.201,0.9865,-0.073,-0.0076,-0.1463
-0.172,0.129,-0.099,81,-101.4,25.5,0,2018,5,10,16,12,0.218,0.9844,-0.0906,-0.0194,-0.1495
-0.197,0.09,-0.059,77.9,-109.2,28,0,2018,5,10,16,12,0.239,0.9814,-0.1108,-0.0308,-0.1532
-0.16,0.115,-0.063,73.1,-116.9,32.1,0,2018,5,10,16,12,0.275,0.9777,-0.132,-0.0413,-0.1574
-0.169,0.135,-0.107,73.7,-132.7,38.8,0,2018,5,10,16,12,0.297,0.9731,-0.1549,-0.051,-0.1626
-0.132,0.061,-0.048,74.8,-142.4,43.9,0,2018,5,10,16,12,0.301,0.9671,-0.18,-0.0608,-0.1688
-0.114,-0.097,0.009,73.7,-118.7,45.7,0,2018,5,10,16,12,0.321,0.9603,-0.2042,-0.0718,-0.1754
-0.078,-0.082,0.061,70.9,-87.3,48.6,0,2018,5,10,16,12,0.341,0.9539,-0.2234,-0.0831,-0.1819
-0.043,-0.013,0.084,64.5,-75.2,50.1,0,2018,5,10,16,12,0.361,0.9482,-0.2376,-0.0941,-0.1885
0.021,0.032,-0.018,62.3,-81.1,49.8,0,2018,5,10,16,12,0.383,0.9422,-0.2511,-0.104,-0.1954
0.023,-0.027,-0.135,67.3,-83.5,48.2,0,2018,5,10,16,12,0.402,0.9356,-0.266,-0.1139,-0.2019
-0.033,-0.005,-0.046,70.4,-91.5,42.8,0,2018,5,10,16,12,0.425,0.9283,-0.2819,-0.1244,-0.2076
-0.084,-0.003,0.07,67.7,-113,40.3,0,2018,5,10,16,12,0.439,0.92,-0.2998,-0.1345,-0.2131
-0.037,-0.06,0.052,69,-125.6,42.2,0,2018,5,10,16,12,0.459,0.9103,-0.3206,-0.1432,-0.2189
-0.085,-0.22,0.036,67.5,-95.2,45.7,0,2018,5,10,16,12,0.498,0.9003,-0.3403,-0.1521,-0.2246
-0.168,-0.2,0.115,63.9,-50.5,42.9,0,2018,5,10,16,12,0.502,0.8924,-0.3527,-0.1625,-0.2293
-0.195,-0.076,0.196,59.3,-41.1,38.9,0,2018,5,10,16,12,0.519,0.8863,-0.3604,-0.1734,-0.2331
-0.183,-0.044,0.2,55.3,-56.1,35.8,0,2018,5,10,16,12,0.541,0.8801,-0.368,-0.1831,-0.2371
-0.183,-0.123,0.292,45.5,-60.2,30,0,2018,5,10,16,12,0.561,0.8734,-0.3774,-0.1909,-0.2411
-0.229,-0.015,0.358,40.3,-51.5,23,0,2018,5,10,16,12,0.602,0.8674,-0.3859,-0.1971,-0.2442
-0.255,-0.065,0.339,28.6,-72.1,17.7,0,2018,5,10,16,12,0.621,0.8613,-0.3958,-0.2009,-0.2469
-0.27,-0.032,0.244,17.9,-71.4,19.2,0,2018,5,10,16,12,0.625,0.8546,-0.4069,-0.2025,-0.2507
-0.156,-0.086,0.07,16.7,-61.8,15.2,0,2018,5,10,16,12,0.639,0.8483,-0.4169,-0.2038,-0.2547
-0.121,-0.239,0.159,12.2,-39.7,11.1,0,2018,5,10,16,12,0.677,0.8436,-0.4243,-0.2047,-0.2574
-0.124,-0.317,0.172,9.5,-22.5,-2.2,1023,2018,5,10,16,12,0.697,0.841,-0.4291,-0.2047,-0.2578
-0.059,-0.172,0.093,10.3,-14.2,-8.5,1023,2018,5,10,16,12,0.701,0.8398,-0.4326,-0.2043,-0.2564
0.066,-0.111,0.077,13.3,-0.4,-7.8,1023,2018,5,10,16,12,0.722,0.8393,-0.4348,-0.2043,-0.2542
0.114,-0.076,0.199,11.9,17.7,-6.4,1023,2018,5,10,16,12,0.742,0.84,-0.4342,-0.2059,-0.2517
0.116,-0.017,0.203,6.4,22.1,-4.9,1023,2018,5,10,16,12,0.764,0.8415,-0.4317,-0.2077,-0.2494
0.114,0.024,0.121,3.8,16.9,-0.1,1023,2018,5,10,16,12,0.784,0.843,-0.4289,-0.209,-0.2479
0.109,0.026,0.071,5.3,12.1,4.6,1023,2018,5,10,16,12,0.805,0.8439,-0.4268,-0.2105,-0.2474
0.092,-0.032,0.058,6.1,22.2,9.4,1023,2018,5,10,16,12,0.824,0.845,-0.424,-0.2119,-0.2472
0.079,-0.023,0.067,4,35.3,12.8,0,2018,5,10,16,12,0.862,0.847,-0.4192,-0.2138,-0.2471
0.071,0.063,0.066,2,33.8,14.1,0,2018,5,10,16,12,0.882,0.8495,-0.4126,-0.2161,-0.2474
0.049,0.09,0.003,0.3,17.5,14.1,0,2018,5,10,16,12,0.886,0.8511,-0.4075,-0.2181,-0.2486
0.013,0.035,-0.084,1.4,0.5,20,0,2018,5,10,16,12,0.903,0.851,-0.4054,-0.22,-0.2509
-0.039,-0.128,-0.08,-3.5,8.1,25.2,0,2018,5,10,16,12,0.923,0.85,-0.4045,-0.2216,-0.2541
-0.068,0.046,-0.073,-7.1,29.8,29.4,0,2018,5,10,16,12,0.942,0.8502,-0.4003,-0.2241,-0.2578
-0.031,0.182,-0.154,-3.4,19.9,24.8,0,2018,5,10,16,12,0.982,0.851,-0.3947,-0.2268,-0.2614
-0.021,0.164,-0.183,-0.6,-5.8,11.3,0,2018,5,10,16,12,1.001,0.8507,-0.3932,-0.2279,-0.2639
-0.009,-0.14,-0.205,2.8,-3.3,-2.8,0,2018,5,10,16,12,1.005,0.85,-0.3941,-0.228,-0.2647
0.061,-0.279,-0.142,12.3,46.7,-19.7,0,2018,5,10,16,12,1.025,0.854,-0.3877,-0.2314,-0.2582
0.064,-0.304,-0.062,12,32.1,-35.1,0,2018,5,10,16,12,1.045,0.8575,-0.3831,-0.2333,-0.2516
0.102,-0.186,0.005,10.9,-0.4,-47.7,0,2018,5,10,16,12,1.084,0.86,-0.383,-0.2327,-0.2439
0.093,-0.286,-0.028,11.2,-21.3,-58.7,0,2018,5,10,16,12,1.104,0.8609,-0.3876,-0.2302,-0.2357
0.053,-0.385,-0.001,9.8,-1.2,-68.4,0,2018,5,10,16,12,1.108,0.8622,-0.3924,-0.2269,-0.2258
-0.043,-0.258,-0.004,6.5,25.2,-68.3,0,2018,5,10,16,12,1.123,0.8655,-0.3933,-0.2239,-0.2143
-0.059,-0.066,-0.068,5.4,48.7,-57.6,0,2018,5,10,16,12,1.143,0.8705,-0.3893,-0.222,-0.2029
0.005,0.025,-0.007,1.2,42.6,-45,0,2018,5,10,16,12,1.162,0.8751,-0.3846,-0.2208,-0.1933
-0.036,0.235,0.093,4.8,54,-30.7,0,2018,5,10,16,12,1.184,0.8797,-0.3781,-0.2206,-0.1854
-0.084,0.319,0.147,1.1,30.1,-20.6,0,2018,5,10,16,12,1.207,0.8833,-0.3723,-0.2208,-0.1797
-0.14,0.33,0.148,-4.8,9.6,-13.1,0,2018,5,10,16,12,1.226,0.8852,-0.3697,-0.22,-0.1765
-0.183,0.294,0.078,-11.5,12.5,-5.2,0,2018,5,10,16,12,1.245,0.8865,-0.3682,-0.2185,-0.1752
-0.19,0.156,0.035,-14.9,27.7,4.1,0,2018,5,10,16,12,1.266,0.8885,-0.3641,-0.2171,-0.1753
-0.187,0.158,0.014,-14.6,28.8,8.8,0,2018,5,10,16,12,1.287,0.8909,-0.3583,-0.2162,-0.1763
-0.187,0.103,-0.036,-13.8,19.6,5.8,0,2018,5,10,16,12,1.308,0.8929,-0.3534,-0.2151,-0.1774
-0.156,0.082,-0.079,-14.7,33.5,7.2,0,2018,5,10,16,12,1.324,0.8949,-0.3484,-0.214,-0.1785
-0.125,0.113,-0.102,-10.9,37.4,4.2,1023,2018,5,10,16,12,1.36,0.8976,-0.3415,-0.2135,-0.1787
-0.042,0.11,-0.082,-4.4,32.6,3.2,1023,2018,5,10,16,12,1.382,0.8999,-0.3354,-0.2138,-0.1784
0.017,0.12,-0.058,1.5,7.2,1.7,1023,2018,5,10,16,12,1.386,0.9011,-0.3312,-0.2152,-0.1784
0.051,0.038,-0.023,2.3,-12.7,1.4,1023,2018,5,10,16,12,1.406,0.9009,-0.3314,-0.2156,-0.1787
0.116,-0.031,-0.049,1.5,-19.1,0.3,1023,2018,5,10,16,12,1.425,0.8999,-0.3342,-0.2149,-0.1791
0.199,-0.145,-0.027,4.3,-7.1,1.2,1023,2018,5,10,16,12,1.461,0.8992,-0.3359,-0.2149,-0.1796
0.273,-0.172,0.102,8.7,12,4.6,1023,2018,5,10,16,12,1.482,0.8992,-0.3352,-0.2162,-0.1795
0.268,-0.111,0.186,10.7,19.9,7.2,1023,2018,5,10,16,12,1.486,0.8998,-0.332,-0.2187,-0.1792
0.183,-0.071,0.183,6.5,10.7,11.3,0,2018,5,10,16,12,1.527,0.9003,-0.3287,-0.2211,-0.1796
0.143,-0.079,0.104,3.8,1.6,13.9,0,2018,5,10,16,12,1.545,0.9001,-0.3274,-0.2229,-0.1811
0.083,-0.207,0.061,0.3,24.7,13.2,0,2018,5,10,16,12,1.55,0.9004,-0.3248,-0.2243,-0.1827
0.021,-0.134,0.051,-0.1,52.9,9.6,0,2018,5,10,16,12,1.57,0.9025,-0.3176,-0.2261,-0.1828
-0.005,-0.014,0.044,-0.4,53.8,4.8,0,2018,5,10,16,12,1.586,0.9054,-0.3086,-0.2279,-0.1814
0.016,0.024,0.039,-1.1,38.9,1.9,0,2018,5,10,16,12,1.624,0.908,-0.3006,-0.2293,-0.1801
0.04,0.07,0.029,-2.4,23.5,1.4,0,2018,5,10,16,12,1.645,0.9099,-0.2949,-0.2297,-0.1792
0.035,0.059,-0.021,-4.5,7.4,0.3,0,2018,5,10,16,12,1.649,0.911,-0.2917,-0.2297,-0.179
0.028,0.001,-0.063,-6.2,2.1,0,0,2018,5,10,16,12,1.668,0.9113,-0.2913,-0.2289,-0.1791
0.033,0.045,-0.092,-4.7,9.9,2.1,0,2018,5,10,16,12,1.689,0.9118,-0.2903,-0.2284,-0.1792
0.034,0.056,-0.098,-1.7,12.5,3.1,0,2018,5,10,16,12,1.726,0.9123,-0.2883,-0.2287,-0.1792
-0.022,0.049,-0.034,0.5,5.8,4.7,0,2018,5,10,16,12,1.746,0.9127,-0.2863,-0.2295,-0.1796
-0.055,-0.01,-0.001,1.9,8.7,7.4,0,2018,5,10,16,12,1.751,0.9126,-0.2852,-0.2306,-0.1802
-0.013,0.019,-0.065,7,18.5,10.1,0,2018,5,10,16,12,1.771,0.9127,-0.2828,-0.2327,-0.1808
0.058,-0.016,-0.113,10.9,34.6,10.3,0,2018,5,10,16,12,1.791,0.913,-0.2793,-0.2357,-0.1807
0.027,-0.068,-0.073,10,65.8,8.2,0,2018,5,10,16,12,1.809,0.9145,-0.2721,-0.2394,-0.1793
0.02,-0.084,-0.058,7.3,84.9,2.2,0,2018,5,10,16,12,1.827,0.9174,-0.2606,-0.2434,-0.1761
0.022,-0.112,0.001,7.8,96.1,-0.5,0,2018,5,10,16,12,1.848,0.921,-0.2472,-0.2471,-0.1715
-0.007,-0.212,0.048,-0.6,138.4,0.2,0,2018,5,10,16,12,1.869,0.9257,-0.2287,-0.2509,-0.1662
0.009,-0.064,0.028,-1.5,150,-7.1,0,2018,5,10,16,12,1.889,0.9316,-0.2048,-0.2546,-0.1589
-0.02,-0.02,0.076,-6.2,121.7,-14,0,2018,5,10,16,12,1.908,0.9367,-0.1831,-0.2571,-0.1511
-0.005,-0.051,0.043,-13.7,117.7,-17.6,0,2018,5,10,16,12,1.929,0.9412,-0.1646,-0.2576,-0.1432
-0.007,0.106,0.03,-16.4,109.9,-16.4,0,2018,5,10,16,12,1.967,0.9455,-0.1459,-0.2573,-0.1357
-0.014,0.181,0.015,-17.9,83.3,-12.7,0,2018,5,10,16,12,1.987,0.949,-0.1298,-0.2563,-0.1294
-0.039,0.138,0.011,-17.4,46.3,-10.7,0,2018,5,10,16,12,1.991,0.9514,-0.1194,-0.2546,-0.125
-0.028,0.113,-0.012,-17.9,26.1,-6.5,1023,2018,5,10,16,12,2.012,0.953,-0.1134,-0.2524,-0.1225
0.011,0.084,-0.051,-13.5,16.7,-5.8,1023,2018,5,10,16,12,2.028,0.9542,-0.1092,-0.2505,-0.1212
0.002,0.121,-0.048,-8.5,5.3,-5.7,1023,2018,5,10,16,12,2.073,0.955,-0.1068,-0.2491,-0.1201
-0.027,0.211,-0.034,-5.6,-20.8,-0.8,1023,2018,5,10,16,12,2.076,0.9552,-0.1079,-0.2479,-0.1199
-0.008,0.239,-0.046,-5.5,-57.5,5.7,1023,2018,5,10,16,12,2.087,0.9546,-0.1144,-0.2461,-0.1222
0,0.193,-0.08,-3.6,-80.3,11.4,1023,2018,5,10,16,12,2.123,0.9531,-0.1258,-0.244,-0.1269
0.008,0.11,-0.097,0.1,-80,14.9,1023,2018,5,10,16,12,2.145,0.951,-0.1385,-0.2422,-0.1326
0.002,0.118,-0.062,6.3,-86.4,18.5,1023,2018,5,10,16,12,2.149,0.9483,-0.1509,-0.2419,-0.139
-0.031,0.132,0.014,8.6,-98.5,22.6,1023,2018,5,10,16,12,2.187,0.9449,-0.1649,-0.2418,-0.1463
-0.015,0.144,0.004,6.5,-113.9,27.2,0,2018,5,10,16,12,2.205,0.9407,-0.1816,-0.241,-0.1547
0.016,0.051,-0.018,7.5,-113.8,32.1,0,2018,5,10,16,12,2.21,0.9357,-0.199,-0.2401,-0.1644
-0.008,-0.003,-0.003,8.3,-93.9,35.9,0,2018,5,10,16,12,2.25,0.9306,-0.2149,-0.2396,-0.174
-0.003,-0.007,-0.034,7.9,-77.7,39.1,0,2018,5,10,16,12,2.269,0.9257,-0.2276,-0.2399,-0.1832
-0.012,-0.124,-0.084,3.6,-47.2,42.5,0,2018,5,10,16,12,2.273,0.9214,-0.2367,-0.2406,-0.1922
0.025,-0.061,-0.038,5.8,-19.3,41,0,2018,5,10,16,12,2.29,0.9186,-0.2397,-0.242,-0.1999
-0.008,-0.025,0.038,5.5,-29.2,36.2,0,2018,5,10,16,12,2.327,0.9161,-0.2421,-0.2436,-0.2066
-0.019,-0.13,0.037,2.8,-40.3,31.1,0,2018,5,10,16,12,2.347,0.9132,-0.2467,-0.2441,-0.2131
-0.005,-0.211,0.002,-0.7,-28,22.1,0,2018,5,10,16,12,2.351,0.9107,-0.2513,-0.244,-0.2187
0.037,-0.213,-0.005,-1.2,-9.9,9.9,0,2018,5,10,16,12,2.373,0.9093,-0.2535,-0.2437,-0.2221
0.046,-0.147,-0.023,-1.3,4.7,-1.2,0,2018,5,10,16,12,2.393,0.9093,-0.2531,-0.2437,-0.2228
0.037,-0.119,0.045,-3.8,2.5,-12.7,0,2018,5,10,16,12,2.413,0.9099,-0.2526,-0.243,-0.2215
0.015,-0.231,0.058,-10.5,-0.5,-22.4,0,2018,5,10,16,12,2.433,0.911,-0.2532,-0.2407,-0.2188
0.046,-0.156,0.072,-14.9,17.4,-35,0,2018,5,10,16,12,2.455,0.9153,-0.2511,-0.2346,-0.2098
0.045,-0.075,0.076,-17.7,20.3,-37.5,0,2018,5,10,16,12,2.474,0.9184,-0.2487,-0.2303,-0.2036
0.046,-0.152,0.054,-18.9,10.4,-46,0,2018,5,10,16,12,2.495,0.9215,-0.2472,-0.2255,-0.1968
0.067,-0.135,0.069,-17.7,13.2,-47.2,0,2018,5,10,16,12,2.512,0.9244,-0.2462,-0.2209,-0.1895
0.059,-0.085,0.065,-17.3,15.2,-46,0,2018,5,10,16,12,2.55,0.9274,-0.2449,-0.2161,-0.182
0.055,0.019,0.035,-17.4,19.8,-42.1,0,2018,5,10,16,12,2.571,0.9305,-0.2429,-0.2111,-0.1747
0.044,-0.069,-0.02,-15.7,27.9,-41,0,2018,5,10,16,12,2.575,0.9334,-0.2402,-0.207,-0.1677
0.051,-0.059,-0.002,-12.8,31.9,-42.8,0,2018,5,10,16,12,2.594,0.9364,-0.237,-0.2033,-0.1599
0.029,0.005,-0.002,-11.3,26.6,-40.5,0,2018,5,10,16,12,2.615,0.9392,-0.2336,-0.2001,-0.1523
0.016,-0.037,-0.032,-12.8,24.6,-36.7,0,2018,5,10,16,12,2.633,0.9416,-0.2307,-0.197,-0.1454
0.019,0.048,-0.071,-11.3,17.7,-33.5,0,2018,5,10,16,12,2.655,0.9437,-0.2283,-0.1942,-0.1392
0.031,0.102,-0.146,-8.1,-7.6,-33,1023,2018,5,10,16,12,2.675,0.9451,-0.2277,-0.1919,-0.1341
0.014,0.032,-0.147,-5.8,-30,-35,1023,2018,5,10,16,12,2.696,0.9452,-0.232,-0.1895,-0.1294
0.031,0.016,-0.13,-1.8,-32.2,-33.9,1023,2018,5,10,16,12,2.716,0.9446,-0.2385,-0.1872,-0.1247
0.047,0.109,-0.104,4.5,-41,-29.4,1023,2018,5,10,16,12,2.734,0.9437,-0.2455,-0.1856,-0.1205
0.032,0.189,-0.099,10.1,-56.1,-20.5,1023,2018,5,10,16,12,2.753,0.942,-0.2539,-0.185,-0.1177
0.035,0.298,-0.056,13.1,-89.5,-8,1023,2018,5,10,16,12,2.772,0.9388,-0.266,-0.1847,-0.1171
0.053,0.387,-0.049,18.8,-143.7,5,1023,2018,5,10,16,12,2.793,0.9329,-0.2844,-0.1851,-0.1198
0.056,0.514,0.003,23.6,-240.3,13.8,0,2018,5,10,16,12,2.832,0.9222,-0.315,-0.1851,-0.1265
-0.01,0.323,-0.012,19.8,-352.2,14.6,0,2018,5,10,16,12,2.854,0.9034,-0.3626,-0.1827,-0.1372
-0.04,0.07,-0.038,8.9,-400,18.2,0,2018,5,10,16,12,2.858,0.8763,-0.4219,-0.1767,-0.1508
-0.071,-0.023,-0.023,-4.3,-394.1,18.3,0,2018,5,10,16,12,2.879,0.844,-0.4814,-0.1682,-0.1657
-0.02,-0.126,-0.006,-18.1,-342.2,25.4,0,2018,5,10,16,12,2.899,0.8102,-0.5349,-0.1572,-0.1805
-0.019,0.128,0.014,-19.1,-282.5,28.5,0,2018,5,10,16,12,2.919,0.7798,-0.5765,-0.1471,-0.1943
-0.035,-0.157,-0.07,-18.2,-224.6,26,0,2018,5,10,16,12,2.938,0.7524,-0.6098,-0.1387,-0.2065
-0.087,-0.261,-0.119,-14.8,-116.7,33.3,0,2018,5,10,16,12,2.957,0.7327,-0.6313,-0.1335,-0.2158
-0.04,-0.072,-0.05,-9,-37.8,35.5,0,2018,5,10,16,12,2.978,0.7234,-0.6396,-0.1333,-0.2231
-0.05,0.028,-0.019,-1.9,-9.2,37.1,0,2018,5,10,16,12,2.995,0.7191,-0.6417,-0.1362,-0.229
-0.104,-0.12,0.003,0.5,8,28.7,0,2018,5,10,16,12,3.015,0.7168,-0.6417,-0.1406,-0.2333
-0.067,0.071,0.15,-5.2,21.8,24.2,0,2018,5,10,16,12,3.036,0.7174,-0.6391,-0.1443,-0.2366
-0.051,0.061,0.196,-13.1,3.3,19.4,0,2018,5,10,16,12,3.055,0.718,-0.6366,-0.1461,-0.2401
-0.004,0.002,0.029,-13,-4.6,21.6,0,2018,5,10,16,12,3.092,0.7168,-0.6362,-0.1464,-0.2444
0.041,-0.056,-0.126,-13.2,36.6,30.3,0,2018,5,10,16,12,3.111,0.7169,-0.6343,-0.1479,-0.2485
0.015,-0.096,-0.047,-11.5,129.2,32.2,0,2018,5,10,16,12,3.116,0.7252,-0.6219,-0.154,-0.2518
-0.048,0.039,0.144,-5.9,10.8,2.5,0,2018,5,10,16,12,3.153,0.7334,-0.6106,-0.159,-0.2526
0.072,-0.616,-0.138,-5.6,-2.9,-5,0,2018,5,10,16,12,3.173,0.7316,-0.613,-0.1569,-0.2536
0.107,-0.448,-0.13,-3.4,96,-11.1,0,2018,5,10,16,12,3.178,0.7372,-0.6068,-0.1575,-0.2516
0.07,-0.216,0.054,-0.1,137.4,-16,0,2018,5,10,16,12,3.197,0.7507,-0.5913,-0.1611,-0.2465
0.014,-0.131,0.114,-0.9,182.3,-16.4,0,2018,5,10,16,12,3.236,0.7674,-0.571,-0.1657,-0.2396
-0.005,-0.116,-0.072,-5.1,261.9,-15.5,0,2018,5,10,16,12,3.24,0.7898,-0.5414,-0.1724,-0.2306
-0.087,-0.297,-0.19,-7.6,339.4,-25,0,2018,5,10,16,12,3.256,0.8181,-0.4995,-0.1817,-0.219
-0.105,-0.285,-0.221,-7.9,409.8,-33.8,0,2018,5,10,16,12,3.296,0.8504,-0.4457,-0.1919,-0.203
-0.081,-0.335,-0.351,-10.9,490.3,-37.4,0,2018,5,10,16,12,3.315,0.8842,-0.3787,-0.2032,-0.1827
-0.057,-0.181,-0.367,-12.8,572,-38.5,1023,2018,5,10,16,12,3.319,0.9173,-0.2952,-0.2151,-0.1578
-0.064,0.017,-0.286,-19.8,559.7,-42.9,1023,2018,5,10,16,12,3.338,0.9439,-0.2034,-0.2251,-0.1299
0.022,0.297,-0.235,-24.5,493.9,-39.7,1023,2018,5,10,16,12,3.376,0.9605,-0.1165,-0.2308,-0.1026
0.093,0.412,-0.358,-17.6,403.2,-33.3,1023,2018,5,10,16,12,3.397,0.9682,-0.0417,-0.2337,-0.0786
0.133,0.569,-0.349,-0.9,275.1,-27,1023,2018,5,10,16,12,3.401,0.9697,0.0143,-0.2363,-0.0596
0.087,0.551,-0.219,11.4,152.2,-16.9,1023,2018,5,10,16,12,3.437,0.9685,0.0485,-0.2393,-0.0472
0.012,0.228,-0.187,20.8,90.6,-10.6,1023,2018,5,10,16,12,3.459,0.9668,0.067,-0.243,-0.0404
-0.018,0.172,-0.136,29.6,76,-1.7,1023,2018,5,10,16,12,3.464,0.9647,0.0802,-0.2481,-0.0361
-0.048,0.241,-0.095,36.3,59.9,8.5,1023,2018,5,10,16,12,3.477,0.9622,0.0919,-0.254,-0.0342
-0.041,0.212,-0.089,38.5,28.7,18.6,0,2018,5,10,16,12,3.517,0.9597,0.0997,-0.2603,-0.0352
-0.029,0.227,-0.132,46,10.4,25.9,0,2018,5,10,16,12,3.537,0.9573,0.1035,-0.2669,-0.0389
-0.069,0.25,-0.049,54.4,-16.2,30.4,0,2018,5,10,16,12,3.541,0.9547,0.104,-0.2749,-0.0447
-0.116,0.107,0.058,51.8,-21.5,36,0,2018,5,10,16,12,3.56,0.9522,0.1016,-0.2832,-0.0523
-0.141,0.09,0.111,46.7,-2.3,45.3,0,2018,5,10,16,12,3.598,0.9493,0.1016,-0.2909,-0.0606
-0.137,0.165,0.096,42.5,1,48,0,2018,5,10,16,12,3.618,0.9463,0.1044,-0.298,-0.0692
-0.12,0.149,0.042,36.8,-8.6,50.7,0,2018,5,10,16,12,3.622,0.9434,0.1064,-0.3039,-0.0784
-0.085,0.167,0.042,31.2,-22.5,52.5,0,2018,5,10,16,12,3.643,0.9411,0.1062,-0.3084,-0.0884
-0.059,0.026,0.078,24.3,-28.9,52.7,0,2018,5,10,16,12,3.663,0.9391,0.1044,-0.3116,-0.0992
-0.031,0.035,0.138,20.3,-25.9,52.6,0,2018,5,10,16,12,3.679,0.9376,0.1023,-0.3136,-0.1096
-0.032,-0.003,0.158,15,-33.2,52.5,0,2018,5,10,16,12,3.716,0.9363,0.0997,-0.3144,-0.1201
-0.001,-0.054,0.11,9.9,-29.3,51.7,0,2018,5,10,16,12,3.736,0.9353,0.0963,-0.3142,-0.1305
0.042,-0.059,0.028,9.5,-23.8,49.5,0,2018,5,10,16,12,3.74,0.9343,0.094,-0.3138,-0.1402
0.046,-0.103,0.032,8.4,-24.4,44.8,0,2018,5,10,16,12,3.761,0.9333,0.0915,-0.3133,-0.1492
0.077,-0.147,0.034,7.6,-11.1,42.2,0,2018,5,10,16,12,3.78,0.932,0.0907,-0.3134,-0.1574
0.083,-0.148,0.07,9.1,-1.7,40.5,0,2018,5,10,16,12,3.819,0.9305,0.0919,-0.3139,-0.1645
0.089,-0.071,0.049,11.3,-9.4,41.8,0,2018,5,10,16,12,3.839,0.9288,0.0932,-0.3147,-0.1715
0.094,-0.104,-0.051,11.1,-25.1,45.6,0,2018,5,10,16,12,3.844,0.9275,0.0914,-0.3145,-0.1797
0.131,-0.167,-0.106,13.7,-18.4,48.2,0,2018,5,10,16,12,3.863,0.9259,0.0893,-0.3146,-0.1887
0.097,-0.161,-0.058,20.1,-6.4,45.4,0,2018,5,10,16,12,3.879,0.9235,0.0895,-0.3162,-0.1972
0.057,-0.087,0.003,24.8,-20,37.9,0,2018,5,10,16,12,3.918,0.9211,0.0888,-0.3187,-0.2049
0.006,-0.316,0.082,15.3,-30,24.1,0,2018,5,10,16,12,3.937,0.9194,0.085,-0.3202,-0.2117
0.012,-0.345,0.153,5.4,-28.3,10.1,0,2018,5,10,16,12,3.942,0.9186,0.0809,-0.3206,-0.2162
0.004,-0.356,0.161,-3.7,-12.5,-1.9,0,2018,5,10,16,12,3.961,0.9188,0.0777,-0.3197,-0.2179
0.023,-0.127,0.179,-11.2,-5.8,-7.5,0,2018,5,10,16,12,3.98,0.9195,0.0766,-0.3183,-0.2173
0.04,-0.035,0.073,-18.4,-23.8,-9.6,1023,2018,5,10,16,12,4.02,0.921,0.074,-0.3149,-0.2166
0.05,-0.083,0.017,-22,-37.3,-15.3,1023,2018,5,10,16,12,4.04,0.9233,0.0685,-0.3099,-0.216
0.011,-0.151,0.036,-22.9,-31.6,-24.2,1023,2018,5,10,16,12,4.044,0.9257,0.0621,-0.305,-0.2144
-0.021,-0.106,0.082,-25.4,-19.9,-34.3,1023,2018,5,10,16,12,4.064,0.9284,0.0572,-0.3004,-0.2106
-0.019,-0.049,0.064,-29.4,-21.5,-43.6,1023,2018,5,10,16,12,4.086,0.9317,0.052,-0.2951,-0.2048
0.005,-0.001,-0.014,-29,-39.4,-53.4,1023,2018,5,10,16,12,4.105,0.9353,0.0454,-0.2896,-0.1979
0.03,-0.059,-0.078,-27.9,-64.8,-68.3,1023,2018,5,10,16,12,4.124,0.9391,0.0343,-0.2837,-0.1903
0.015,-0.202,-0.1,-23.9,-75.3,-83.6,1023,2018,5,10,16,12,4.146,0.9432,0.019,-0.2776,-0.1811
-0.052,-0.26,-0.028,-24.4,-64.2,-95.2,0,2018,5,10,16,12,4.165,0.9473,0.0038,-0.2717,-0.1695
-0.094,-0.139,0.058,-28.1,-55.3,-94.6,0,2018,5,10,16,12,4.184,0.9512,-0.0097,-0.2657,-0.1564
-0.07,0.036,0.114,-32.6,-61.8,-89.2,0,2018,5,10,16,12,4.205,0.9548,-0.0229,-0.2591,-0.1436
-0.01,0.067,0.05,-36,-86.2,-86.4,0,2018,5,10,16,12,4.225,0.958,-0.0381,-0.251,-0.1326
-0.009,0.091,0.021,-34.7,-102.2,-80.1,0,2018,5,10,16,12,4.243,0.9606,-0.0562,-0.2423,-0.1231
-0.004,0.118,-0.004,-33.2,-110,-71.3,0,2018,5,10,16,12,4.263,0.9624,-0.0758,-0.2337,-0.1155
0.077,0.139,-0.05,-28.5,-106.2,-59.1,0,2018,5,10,16,12,4.305,0.9633,-0.0955,-0.2254,-0.1095
0.137,0.18,-0.011,-21.8,-92.5,-47.2,0,2018,5,10,16,12,4.324,0.9634,-0.1138,-0.2183,-0.105
0.156,0.242,0.052,-15.4,-67.2,-29.8,0,2018,5,10,16,12,4.328,0.9631,-0.1285,-0.2129,-0.1019
0.208,0.333,0.043,-11,-40.8,-6.3,0,2018,5,10,16,12,4.346,0.9628,-0.1374,-0.2094,-0.1011
0.25,0.264,-0.035,-5.4,-41.3,17.4,0,2018,5,10,16,12,4.365,0.9619,-0.1441,-0.2075,-0.1037
0.171,0.336,-0.022,5.6,-73.8,37.8,0,2018,5,10,16,12,4.383,0.9599,-0.152,-0.2075,-0.1105
0.139,0.262,-0.007,12.9,-118.3,49.9,0,2018,5,10,16,12,4.421,0.956,-0.1669,-0.2083,-0.1213
-0.016,0.085,0.064,14.2,-151,49.5,0,2018,5,10,16,12,4.441,0.9501,-0.188,-0.2092,-0.1343
-0.107,-0.017,0.085,8.3,-157,41.9,0,2018,5,10,16,12,4.445,0.9431,-0.2119,-0.2092,-0.1473
-0.108,-0.045,0.022,-1.5,-153.4,31.6,0,2018,5,10,16,12,4.466,0.9357,-0.2365,-0.2075,-0.1589
-0.081,0.02,-0.064,-6.3,-149.5,24.9,0,2018,5,10,16,12,4.485,0.9284,-0.26,-0.2045,-0.1691
-0.062,0.07,-0.129,-6.8,-149.6,19.9,0,2018,5,10,16,12,4.527,0.9207,-0.2828,-0.201,-0.1785
-0.053,0.103,-0.18,-2.6,-159.1,17.2,0,2018,5,10,16,12,4.531,0.9124,-0.3064,-0.1964,-0.187
-0.05,0.134,-0.247,4,-175,17.8,0,2018,5,10,16,12,4.546,0.9026,-0.3319,-0.1918,-0.1954
-0.109,0.179,-0.249,10.2,-188.9,19.7,0,2018,5,10,16,12,4.585,0.891,-0.3595,-0.1876,-0.2041
-0.06,0.203,-0.29,16.1,-200,24.1,0,2018,5,10,16,12,4.589,0.877,-0.3894,-0.1837,-0.2129
-0.089,0.24,-0.263,21.8,-207.2,30.4,0,2018,5,10,16,12,4.605,0.861,-0.4199,-0.181,-0.2221
-0.1,0.269,-0.173,23.2,-216.9,36.1,0,2018,5,10,16,12,4.641,0.8429,-0.4511,-0.1786,-0.2321
-0.11,0.232,-0.159,22.3,-255.8,28.8,0,2018,5,10,16,12,4.662,0.8218,-0.4849,-0.175,-0.2424
-0.121,0.055,-0.216,22,-295.8,25.9,1023,2018,5,10,16,12,4.666,0.7952,-0.5247,-0.1683,-0.2526
-0.105,-0.088,-0.216,18.4,-280.3,22.5,1023,2018,5,10,16,12,4.686,0.7658,-0.5646,-0.1602,-0.2625
-0.094,-0.068,-0.059,14.8,-250,15.2,1023,2018,5,10,16,12,4.709,0.7376,-0.5995,-0.1522,-0.2706
-0.039,-0.191,-0.013,16.2,-215.2,6.8,1023,2018,5,10,16,12,4.727,0.7113,-0.63,-0.144,-0.2762
-0.045,-0.263,-0.131,20.9,-150.3,2.4,1023,2018,5,10,16,12,4.748,0.6898,-0.6537,-0.1377,-0.2787
-0.034,-0.29,-0.125,19.1,-84.1,-1,1023,2018,5,10,16,12,4.768,0.6758,-0.6687,-0.1346,-0.279
-0.038,-0.056,0.053,16.1,-54.4,-0.3,1023,2018,5,10,16,12,4.788,0.6681,-0.677,-0.1334,-0.2781
-0.047,-0.221,0.026,16.1,-53.5,-9.2,1023,2018,5,10,16,12,4.808,0.6613,-0.6843,-0.1322,-0.2771
-0.027,-0.235,-0.015,15.8,-49.9,-21.7,0,2018,5,10,16,12,4.846,0.6558,-0.6914,-0.1291,-0.2739
0.021,-0.3,0.061,17,-52.2,-26.6,0,2018,5,10,16,12,4.848,0.6501,-0.6993,-0.1247,-0.2696
0.017,-0.348,0.122,16.8,-11.7,-23.2,0,2018,5,10,16,12,4.866,0.6468,-0.7043,-0.1221,-0.2655
0.044,-0.339,0.056,15.9,37.5,-23.7,0,2018,5,10,16,12,4.903,0.6492,-0.704,-0.1217,-0.2605
0.067,-0.341,0.025,18.2,85.9,-24,0,2018,5,10,16,12,4.924,0.6574,-0.6983,-0.1236,-0.2544
0.109,-0.311,-0.003,21.2,148.1,-19.7,0,2018,5,10,16,12,4.928,0.672,-0.6862,-0.1284,-0.2469
0.096,-0.144,0.066,20.4,190.5,-14.2,0,2018,5,10,16,12,4.949,0.6926,-0.6669,-0.1363,-0.2383
0.052,0.199,0.214,11.1,154.2,-21.8,0,2018,5,10,16,12,4.969,0.714,-0.6454,-0.1438,-0.2299
0.058,-0.076,0.075,3.4,120.5,-15,0,2018,5,10,16,12,4.991,0.7284,-0.6305,-0.1473,-0.2238
0.106,-0.338,-0.004,-1.5,206.8,-7.5,0,2018,5,10,16,12,5.011,0.7461,-0.6105,-0.152,-0.2177
0.039,0.029,0.076,-5.9,260.5,-5.4,0,2018,5,10,16,12,5.029,0.7718,-0.5783,-0.1594,-0.2105
0.042,0.152,0,-4.9,264.9,4.8,0,2018,5,10,16,12,5.068,0.7979,-0.5417,-0.1681,-0.2035
0.027,0.199,-0.07,-4.6,260.5,9.1,0,2018,5,10,16,12,5.072,0.8216,-0.5041,-0.1778,-0.1977
0.02,0.137,-0.222,0.9,274.3,14.7,0,2018,5,10,16,12,5.088,0.8434,-0.4652,-0.1881,-0.1913
-0.038,0.039,-0.154,-2.2,293.3,17.3,0,2018,5,10,16,12,5.109,0.865,-0.4222,-0.1987,-0.1842
-0.067,0.298,-0.057,-2.4,236.3,13.7,0,2018,5,10,16,12,5.128,0.8836,-0.38,-0.208,-0.1772
-0.045,0.262,-0.1,-1.6,123,8.2,0,2018,5,10,16,12,5.168,0.8948,-0.3518,-0.2138,-0.1724
-0.046,0.119,-0.127,-1.7,58.1,10,0,2018,5,10,16,12,5.186,0.8999,-0.3377,-0.2165,-0.1707
-0.042,0.147,-0.116,0,3.8,9.6,0,2018,5,10,16,12,5.19,0.9015,-0.3323,-0.218,-0.1712
-0.025,-0.022,-0.156,0.6,-5.1,7,0,2018,5,10,16,12,5.21,0.9009,-0.3327,-0.2185,-0.1727
0.001,0.002,-0.116,0.8,-3.3,0,0,2018,5,10,16,12,5.23,0.9002,-0.3337,-0.2192,-0.1733
0.029,0.076,-0.071,3.3,-14.4,-3.5,0,2018,5,10,16,12,5.27,0.8997,-0.335,-0.2195,-0.173
0.022,0.091,-0.095,7.4,-36.5,-2.1,0,2018,5,10,16,12,5.274,0.8982,-0.3386,-0.2198,-0.1734
-0.001,0.022,-0.088,8.8,-58.8,-2.7,0,2018,5,10,16,12,5.291,0.8948,-0.3468,-0.2199,-0.1744
-0.045,-0.005,0.015,4,-74.6,-1.4,1023,2018,5,10,16,12,5.31,0.8905,-0.3574,-0.2192,-0.1765
-0.041,0.015,0.072,-2,-83,-4.4,1023,2018,5,10,16,12,5.33,0.8857,-0.3693,-0.2169,-0.179
-0.026,0.031,0.048,-4.6,-103,-6.4,1023,2018,5,10,16,12,5.369,0.8801,-0.3831,-0.2131,-0.1821
-0.03,0.089,0.082,-4.9,-122.8,-6.1,1023,2018,5,10,16,12,5.388,0.873,-0.3995,-0.2085,-0.1859
-0.058,-0.005,0.066,-4.6,-130.8,-6.6,1023,2018,5,10,16,12,5.392,0.8645,-0.4183,-0.2033,-0.1901
-0.066,0.06,-0.002,-6.1,-137.7,-4.4,1023,2018,5,10,16,12,5.411,0.8549,-0.4381,-0.1981,-0.1947
-0.054,-0.031,-0.04,-5.7,-101,3,1023,2018,5,10,16,12,5.431,0.8453,-0.4563,-0.1933,-0.1993
-0.011,-0.096,-0.034,-2.2,-62.2,3.9,1023,2018,5,10,16,12,5.47,0.8387,-0.4681,-0.1905,-0.2028
-0.023,-0.082,-0.071,3.9,-39.1,2.1,0,2018,5,10,16,12,5.492,0.8342,-0.4757,-0.1892,-0.2044
-0.028,-0.002,-0.095,10.1,-41.5,0.6,0,2018,5,10,16,12,5.496,0.8305,-0.4819,-0.1891,-0.2049
0.015,0.047,-0.093,12.8,-62.2,3.5,0,2018,5,10,16,12,5.515,0.8252,-0.4904,-0.1897,-0.206
0.073,0.016,-0.021,13.7,-78.2,3,0,2018,5,10,16,12,5.531,0.8183,-0.5014,-0.1893,-0.2074
0.077,-0.143,0.054,10.3,-65.2,2.9,0,2018,5,10,16,12,5.55,0.8114,-0.5125,-0.1878,-0.2086
0.059,-0.143,0.134,4,-35.8,2.4,0,2018,5,10,16,12,5.57,0.8069,-0.5196,-0.1866,-0.2095
0.099,-0.007,0.215,-2.9,-38.9,-0.5,0,2018,5,10,16,12,5.608,0.8038,-0.5243,-0.1855,-0.2108
0.059,-0.107,0.167,-7.4,-51.2,-0.7,0,2018,5,10,16,12,5.629,0.7995,-0.531,-0.1828,-0.2126
0.109,-0.152,0.095,-7.4,-22.6,1.9,0,2018,5,10,16,12,5.633,0.7963,-0.5358,-0.1804,-0.2146
0.083,-0.118,0.078,-6.3,6.4,2.5,0,2018,5,10,16,12,5.653,0.7959,-0.5363,-0.1794,-0.2158
0.063,-0.086,0.061,-6.6,13.1,2.6,0,2018,5,10,16,12,5.674,0.7974,-0.5344,-0.1782,-0.2159
0.043,-0.07,0.021,-6.2,10,2.1,0,2018,5,10,16,12,5.695,0.7987,-0.5328,-0.1773,-0.216
-0.008,0.017,0.109,-8.4,12.6,5.4,0,2018,5,10,16,12,5.715,0.7999,-0.531,-0.1768,-0.2164
-0.105,0.013,0.008,-7.6,45.2,14.6,0,2018,5,10,16,12,5.734,0.8015,-0.5275,-0.1775,-0.2183
0.094,-0.247,-0.297,2.8,90.6,2.5,0,2018,5,10,16,12,5.751,0.8077,-0.517,-0.181,-0.2177
0.06,0.474,0.216,-7,19.6,-2.5,0,2018,5,10,16,12,5.788,0.8134,-0.5084,-0.1831,-0.2152
-0.056,0.051,0.138,-8.5,13.6,4.7,0,2018,5,10,16,12,5.809,0.8142,-0.5066,-0.1825,-0.2166
0.072,0.108,-0.094,-13.6,57.2,6.1,0,2018,5,10,16,12,5.814,0.8176,-0.5007,-0.1828,-0.2175
0.059,0.034,-0.04,-10.1,57.2,7.6,0,2018,5,10,16,12,5.852,0.8227,-0.4919,-0.1838,-0.2171
-0.026,0.137,-0.021,-3.3,30.7,12,0,2018,5,10,16,12,5.856,0.826,-0.4853,-0.1858,-0.2178
-0.024,0.154,0.001,-4.7,7.8,16.3,0,2018,5,10,16,12,5.875,0.8272,-0.4819,-0.1873,-0.2197
0.01,0.008,-0.045,-6.1,1,15.7,0,2018,5,10,16,12,5.912,0.827,-0.4805,-0.1883,-0.2227
0.016,-0.03,-0.101,-5.6,2.1,9.4,0,2018,5,10,16,12,5.932,0.8263,-0.4807,-0.1885,-0.2247
-0.013,0.04,-0.066,-4.8,-2.6,7.9,1023,2018,5,10,16,12,5.936,0.8258,-0.4807,-0.1888,-0.2261
-0.007,0.168,-0.066,-6.9,-24.4,14.3,1023,2018,5,10,16,12,5.956,0.8241,-0.4821,-0.1891,-0.2291
0,0.25,-0.105,-5.7,-63.3,12.4,1023,2018,5,10,16,12,5.976,0.8202,-0.4873,-0.1875,-0.2333
0,0.03,-0.217,-0.1,-77.2,9.3,1023,2018,5,10,16,12,5.993,0.8137,-0.4969,-0.185,-0.2377
-0.028,0.063,-0.144,2.9,-98.7,4.2,1023,2018,5,10,16,12,6.033,0.8059,-0.509,-0.1821,-0.2411
-0.038,0.044,-0.099,3.9,-119.7,4,1023,2018,5,10,16,12,6.051,0.7954,-0.5245,-0.1787,-0.2451
0.032,0,-0.158,5.6,-130.8,-4.9,1023,2018,5,10,16,12,6.056,0.7829,-0.5429,-0.1743,-0.2484
0.061,-0.165,-0.18,8.9,-109.3,-9.9,1023,2018,5,10,16,12,6.075,0.7711,-0.5603,-0.1692,-0.2503
0.04,-0.047,-0.007,4.7,-83.2,-7.2,1023,2018,5,10,16,12,6.095,0.762,-0.5735,-0.165,-0.251
0.079,-0.004,0.018,1.2,-87.5,-4.6,0,2018,5,10,16,12,6.115,0.7537,-0.585,-0.1608,-0.2523
0.09,-0.163,-0.044,0,-73,-4.1,0,2018,5,10,16,12,6.154,0.7453,-0.5965,-0.1558,-0.2534
0.124,-0.194,0.023,2.3,-15.3,0.3,0,2018,5,10,16,12,6.174,0.7408,-0.6023,-0.1538,-0.2543
0.089,-0.148,0.086,1.9,29.5,1.9,0,2018,5,10,16,12,6.178,0.7417,-0.6011,-0.1548,-0.254
0.064,-0.137,0.038,1.4,64.2,4.7,0,2018,5,10,16,12,6.197,0.7466,-0.595,-0.1568,-0.2526
0.042,-0.101,0.041,2,90.6,6.1,0,2018,5,10,16,12,6.238,0.7544,-0.585,-0.1604,-0.2505
0.014,-0.197,0.002,6.8,126.6,2.5,0,2018,5,10,16,12,6.242,0.7651,-0.5711,-0.1654,-0.2469
0.01,-0.164,-0.027,10.5,152,-3.9,0,2018,5,10,16,12,6.257,0.7786,-0.5531,-0.1721,-0.2411
-0.084,-0.049,0.118,9.5,143.8,-13.8,0,2018,5,10,16,12,6.276,0.7928,-0.5334,-0.1787,-0.2339
-0.07,0.011,0.121,6.6,123.9,-12.8,0,2018,5,10,16,12,6.299,0.8056,-0.515,-0.1841,-0.2274
-0.016,0.071,0.059,8.3,128.8,-8.6,0,2018,5,10,16,12,6.316,0.8169,-0.4977,-0.1891,-0.2214
-0.021,0.007,0.057,8.9,154.1,-9.6,0,2018,5,10,16,12,6.355,0.8293,-0.4774,-0.1949,-0.2149
-0.038,-0.043,-0.052,9.3,175.7,-12.3,0,2018,5,10,16,12,6.375,0.8429,-0.4538,-0.2015,-0.2068
-0.027,0.102,-0.133,12.8,169.6,-11.8,0,2018,5,10,16,12,6.379,0.8562,-0.4291,-0.2087,-0.1978
-0.081,0.033,-0.047,5.5,148.5,-8.9,0,2018,5,10,16,12,6.398,0.8674,-0.4063,-0.2154,-0.1899
-0.031,0.046,-0.056,2.8,124.4,-10.5,0,2018,5,10,16,12,6.436,0.8768,-0.3861,-0.2206,-0.1829
-0.027,0.14,-0.033,-1.2,84.8,-9.9,0,2018,5,10,16,12,6.455,0.8839,-0.37,-0.2241,-0.1775
-0.074,-0.012,-0.038,-6.3,84.9,-7.9,0,2018,5,10,16,12,6.46,0.8894,-0.3572,-0.226,-0.1735
-0.002,-0.345,-0.279,-2.1,111.5,-13.5,0,2018,5,10,16,12,6.478,0.896,-0.3419,-0.2278,-0.1681
-0.075,0.67,0.13,-3.9,30.8,-6,0,2018,5,10,16,12,6.498,0.9014,-0.3287,-0.2297,-0.1631
-0.097,-0.218,0.048,-19.3,12.8,-2.5,0,2018,5,10,16,12,6.518,0.9023,-0.3277,-0.2274,-0.1629
-0.002,-0.054,0.002,-19.1,16.8,-3.4,0,2018,5,10,16,12,6.538,0.9044,-0.3237,-0.2251,-0.1627
0.001,-0.112,0.122,-16.7,4.9,-8.8,0,2018,5,10,16,12,6.558,0.9056,-0.323,-0.2216,-0.162
0.097,0.166,0.148,-17.2,8.9,-7.2,0,2018,5,10,16,12,6.598,0.9072,-0.321,-0.2185,-0.1615
0.107,-0.07,-0.038,-11.9,32.6,-6.5,1023,2018,5,10,16,12,6.619,0.9089,-0.3183,-0.2159,-0.1604
0.025,-0.162,0.084,-12.9,74.4,-9.4,1023,2018,5,10,16,12,6.623,0.9127,-0.3095,-0.2151,-0.1574
-0.001,-0.128,0.251,-22.8,81.9,-11.1,1023,2018,5,10,16,12,6.643,0.9183,-0.2964,-0.2128,-0.1534
0.059,-0.103,-0.096,-22.7,86.2,-15.9,1023,2018,5,10,16,12,6.663,0.9239,-0.2827,-0.2101,-0.1491
0.006,-0.286,-0.037,-23.7,118.1,-22.2,1023,2018,5,10,16,12,6.682,0.93,-0.2666,-0.2081,-0.1432
-0.078,-0.186,0.232,-37.3,205.8,-19.4,1023,2018,5,10,16,12,6.698,0.939,-0.2395,-0.2061,-0.1351
-0.179,-0.045,0.341,-75.1,227.2,-31.7,1023,2018,5,10,16,12,6.719,0.9604,-0.1627,-0.195,-0.1141
-0.07,0.23,0.017,-82.3,200.5,-31.3,0,2018,5,10,16,12,6.739,0.9691,-0.1254,-0.185,-0.1037
0.101,0.548,-0.271,-63.5,105.2,-35.8,0,2018,5,10,16,12,6.758,0.9751,-0.0982,-0.1746,-0.0948
0.101,0.391,-0.138,-49.7,19,-32.6,0,2018,5,10,16,12,6.78,0.9782,-0.0887,-0.1655,-0.0881
0.049,0.282,0.013,-37.7,-51.8,-24.5,0,2018,5,10,16,12,6.799,0.9796,-0.0916,-0.1573,-0.0845
0.187,0.365,-0.483,-13.7,-79.9,-9.9,0,2018,5,10,16,12,6.837,0.9793,-0.1039,-0.1513,-0.0844
0.162,0.583,-0.146,0.9,-166.4,2.1,0,2018,5,10,16,12,6.856,0.9772,-0.1241,-0.1484,-0.0867
0.097,0.333,-0.237,12,-171.6,20,0,2018,5,10,16,12,6.86,0.9726,-0.154,-0.1468,-0.0931
0.075,0.235,-0.299,16.4,-147.7,30.7,0,2018,5,10,16,12,6.901,0.9671,-0.1806,-0.1474,-0.1012
0.152,0.237,-0.305,27.8,-151.1,41.8,0,2018,5,10,16,12,6.92,0.961,-0.2042,-0.1498,-0.1103
-0.028,0.352,-0.322,44.5,-157.2,54.1,0,2018,5,10,16,12,6.924,0.9532,-0.2293,-0.1549,-0.1215
0.011,0.535,-0.037,53.1,-286.9,49.8,0,2018,5,10,16,12,6.939,0.9415,-0.2642,-0.1607,-0.1337
-0.182,0.044,-0.079,44.4,-366.1,51.7,0,2018,5,10,16,12,6.978,0.9214,-0.3197,-0.1629,-0.149
-0.193,0,-0.181,20.8,-341.7,52,0,2018,5,10,16,12,6.999,0.8973,-0.3757,-0.1614,-0.1655
-0.144,-0.174,-0.389,7.3,-286.1,47.7,0,2018,5,10,16,12,7.003,0.8734,-0.4236,-0.1573,-0.1813
-0.184,-0.406,-0.38,4.8,-181.1,36.3,0,2018,5,10,16,12,7.023,0.8541,-0.4575,-0.1536,-0.1935
-0.126,-0.083,-0.273,10.8,-88.8,25.9,0,2018,5,10,16,12,7.042,0.8432,-0.4745,-0.153,-0.2009
-0.167,-0.155,-0.167,12.8,-142.9,5.5,0,2018,5,10,16,12,7.082,0.8329,-0.4909,-0.1521,-0.2049
-0.144,-0.383,-0.105,8.1,-159.2,0.1,0,2018,5,10,16,12,7.106,0.8187,-0.5139,-0.1481,-0.2084
-0.001,-0.078,-0.112,5.1,-158.6,-5.8,0,2018,5,10,16,12,7.119,0.8045,-0.5362,-0.1431,-0.2113
0.023,0.16,-0.07,4.5,-201.1,-10.4,0,2018,5,10,16,12,7.121,0.7874,-0.5614,-0.1369,-0.2141
-0.005,0.237,-0.046,2.5,-248.3,-11.7,0,2018,5,10,16,12,7.137,0.765,-0.5922,-0.1283,-0.2177
0.041,0.458,-0.06,4.7,-335.3,-3.5,0,2018,5,10,16,12,7.159,0.7338,-0.6311,-0.1165,-0.2226
0.106,0.493,-0.293,20.6,-410,8.3,0,2018,5,10,16,12,7.196,0.6904,-0.6782,-0.1034,-0.229
0.036,-0.343,-0.033,12.8,-404.1,4.6,0,2018,5,10,16,12,7.217,0.6374,-0.7285,-0.0893,-0.2342
0.014,-0.104,0.025,2.9,-307.5,5.6,0,2018,5,10,16,12,7.222,0.5916,-0.7661,-0.0762,-0.2388
-0.115,-0.584,-0.024,-13.8,-167.2,17.8,1023,2018,5,10,16,12,7.242,0.5579,-0.7908,-0.0656,-0.2428
0.073,-0.467,-0.001,-20.7,-24.6,17.4,1023,2018,5,10,16,12,7.28,0.5458,-0.7977,-0.0633,-0.2483
-0.018,-0.358,-0.073,-17.9,32.1,15.8,1023,2018,5,10,16,12,7.302,0.5465,-0.796,-0.0637,-0.2522
-0.062,-0.422,-0.129,-9.3,79.5,8.6,1023,2018,5,10,16,12,7.306,0.5542,-0.7899,-0.066,-0.2537
-0.102,-0.442,0,-10.4,126.1,2.8,1023,2018,5,10,16,12,7.325,0.5684,-0.7794,-0.0698,-0.2539
-0.147,-0.608,0.035,-15.9,194.8,-8.5,1023,2018,5,10,16,12,7.363,0.59,-0.7628,-0.075,-0.2534
-0.179,-0.351,0.212,-30,256.9,-10.3,1023,2018,5,10,16,12,7.385,0.6206,-0.7379,-0.0814,-0.2523
-0.165,-0.18,0.144,-35.5,273.2,-15,0,2018,5,10,16,12,7.389,0.6551,-0.7069,-0.088,-0.2516
-0.113,-0.045,-0.078,-26.5,249.7,-16.7,0,2018,5,10,16,12,7.404,0.6872,-0.6757,-0.0941,-0.2494
-0.072,0.138,-0.115,-16,207.1,-18.3,0,2018,5,10,16,12,7.423,0.7145,-0.6472,-0.0996,-0.2459
-0.042,0.242,-0.027,-7.3,174.1,-19.1,0,2018,5,10,16,12,7.442,0.7364,-0.6232,-0.1045,-0.2415
-0.036,0.128,0.138,-10.6,109.1,-22.9,0,2018,5,10,16,12,7.463,0.7523,-0.6052,-0.1069,-0.237
-0.016,0.075,0.068,-18.8,81,-17.7,0,2018,5,10,16,12,7.483,0.7628,-0.593,-0.1067,-0.2343
0.084,0.069,-0.069,-27,78.3,-11.7,0,2018,5,10,16,12,7.521,0.7718,-0.5819,-0.1051,-0.2334
0.099,0.021,-0.102,-32.8,86.7,-5.8,0,2018,5,10,16,12,7.542,0.7806,-0.5706,-0.103,-0.2332
0.094,0.1,-0.012,-36,78.3,2.2,0,2018,5,10,16,12,7.546,0.7893,-0.5582,-0.1011,-0.2344
0.077,0.096,-0.051,-35.6,56.5,7.7,0,2018,5,10,16,12,7.565,0.7963,-0.5474,-0.099,-0.2373
0.045,0.169,-0.048,-34.5,29.4,13.5,0,2018,5,10,16,12,7.585,0.8004,-0.5399,-0.0969,-0.2415
0.061,0.138,-0.124,-31.2,23.5,17.5,0,2018,5,10,16,12,7.605,0.8022,-0.5351,-0.0951,-0.2466
0.117,0.136,-0.139,-26,19.4,16.1,0,2018,5,10,16,12,7.624,0.8038,-0.531,-0.0936,-0.2511
0.102,0.08,-0.109,-20.7,8,15.8,0,2018,5,10,16,12,7.661,0.8043,-0.5287,-0.0919,-0.2548
0.047,0.019,-0.06,-19.3,6.4,17.9,0,2018,5,10,16,12,7.679,0.8042,-0.5273,-0.0906,-0.2585
0.029,0.06,-0.086,-19.6,16.4,23.3,0,2018,5,10,16,12,7.683,0.8043,-0.5251,-0.0902,-0.2629
0.069,0.079,-0.094,-19.6,21.1,24.5,0,2018,5,10,16,12,7.725,0.8049,-0.5216,-0.0908,-0.2678
0.091,0.032,-0.088,-15.6,20.6,21.9,0,2018,5,10,16,12,7.743,0.8057,-0.5182,-0.0909,-0.272
0.101,0,-0.117,-8.8,26.3,20.5,0,2018,5,10,16,12,7.747,0.8067,-0.5147,-0.0917,-0.2754
0.111,0.032,-0.091,-3.1,17.3,18.4,0,2018,5,10,16,12,7.768,0.8077,-0.5116,-0.0931,-0.2777
0.105,-0.022,-0.008,-0.7,-3.6,16,0,2018,5,10,16,12,7.789,0.8075,-0.5107,-0.094,-0.2795
0.101,-0.101,-0.024,-0.9,-11.1,16.3,0,2018,5,10,16,12,7.807,0.8059,-0.512,-0.0941,-0.2816
0.127,0.028,-0.056,1.7,-15.2,14.5,0,2018,5,10,16,12,7.825,0.8043,-0.5135,-0.0943,-0.2835
0.089,0.05,-0.048,4.9,-35.2,12.4,0,2018,5,10,16,12,7.844,0.8015,-0.5171,-0.0941,-0.285
0.061,-0.042,-0.044,7.2,-48.6,11,0,2018,5,10,16,12,7.882,0.7968,-0.5237,-0.0932,-0.2863
0.018,-0.023,-0.028,8,-44.1,12,1023,2018,5,10,16,12,7.902,0.7916,-0.5309,-0.0927,-0.2876
-0.023,-0.041,-0.007,6.6,-29.1,14,1023,2018,5,10,16,12,7.905,0.7872,-0.5365,-0.093,-0.2892
-0.041,0.044,-0.025,6.7,-17.5,15.4,1023,2018,5,10,16,12,7.943,0.7841,-0.5398,-0.0944,-0.2911
-0.053,0.065,-0.026,9,-18.2,14.3,1023,2018,5,10,16,12,7.964,0.7812,-0.5424,-0.0967,-0.2931
-0.099,0.019,-0.008,11.5,-15.9,11.7,1023,2018,5,10,16,12,7.968,0.7784,-0.5453,-0.0991,-0.2946
-0.113,0.013,-0.025,13.1,1.1,10.3,1023,2018,5,10,16,12,7.986,0.7764,-0.547,-0.1023,-0.2955
-0.166,0.045,0.011,13.6,13,7.1,1023,2018,5,10,16,12,8.027,0.7764,-0.5463,-0.1062,-0.2956
-0.116,0.032,0.003,14.3,24.1,1.3,0,2018,5,10,16,12,8.046,0.7773,-0.5446,-0.1099,-0.2949
-0.022,0.028,-0.068,19.1,41.9,-2.3,0,2018,5,10,16,12,8.05,0.7799,-0.5411,-0.1143,-0.2928
0.012,0.021,-0.018,16.7,50.4,-8.8,0,2018,5,10,16,12,8.071,0.784,-0.536,-0.119,-0.2892
0.013,0.014,0.083,10.6,36.6,-12,0,2018,5,10,16,12,8.091,0.7886,-0.5306,-0.1218,-0.2856
0.033,0.054,0.084,5.9,15.1,-9,0,2018,5,10,16,12,8.108,0.7919,-0.5268,-0.1231,-0.283
0.089,0.053,0.003,5.8,-1.1,-5.8,0,2018,5,10,16,12,8.127,0.7929,-0.526,-0.1232,-0.2814
0.045,-0.038,0.086,1.1,-17.1,-9.4,0,2018,5,10,16,12,8.167,0.7928,-0.5272,-0.122,-0.28
0.023,0,0.135,-2.4,-49.7,-13.9,0,2018,5,10,16,12,8.187,0.791,-0.5312,-0.1187,-0.2791
0.03,0.035,0.041,-2.6,-89.2,-13.5,0,2018,5,10,16,12,8.191,0.7856,-0.5404,-0.1132,-0.279
0.043,0.017,-0.022,-1.2,-112.6,-13.2,0,2018,5,10,16,12,8.21,0.7767,-0.5543,-0.1066,-0.2793
0.033,-0.047,0.025,-4.8,-134.9,-18.1,0,2018,5,10,16,12,8.231,0.7653,-0.5713,-0.0984,-0.2794
0.007,0.055,0.08,-9.9,-165.7,-16.8,0,2018,5,10,16,12,8.251,0.7516,-0.5906,-0.0878,-0.2802
0.028,-0.089,0.103,-16.8,-156.9,-14.6,0,2018,5,10,16,12,8.271,0.7356,-0.611,-0.0761,-0.2823
0.061,-0.125,0.007,-15.7,-98.2,-13.3,0,2018,5,10,16,12,8.287,0.723,-0.6266,-0.0653,-0.2834
0.028,-0.033,-0.082,-8.8,-37.3,-3.9,0,2018,5,10,16,12,8.309,0.7161,-0.6349,-0.059,-0.2837
-0.036,0.053,0.067,-3.8,13.2,8,0,2018,5,10,16,12,8.327,0.7149,-0.6358,-0.058,-0.285
-0.034,-0.086,-0.049,1.1,66.2,10.6,0,2018,5,10,16,12,8.346,0.7187,-0.6305,-0.0616,-0.2863
0.075,-0.157,-0.265,11.4,107.1,13.1,0,2018,5,10,16,12,8.367,0.7277,-0.6195,-0.0681,-0.2862
-0.044,0.01,-0.178,21.6,100.5,17,0,2018,5,10,16,12,8.405,0.7381,-0.6065,-0.0773,-0.285
-0.064,-0.089,-0.086,22.2,131.4,25.9,0,2018,5,10,16,12,8.426,0.748,-0.5933,-0.0881,-0.2839
0.019,0.121,-0.147,23,133.2,16.1,0,2018,5,10,16,12,8.43,0.7599,-0.5767,-0.1005,-0.2822
0.02,0.042,-0.165,24,109.2,10.2,0,2018,5,10,16,12,8.452,0.7706,-0.5619,-0.1107,-0.2795
0.019,-0.094,-0.109,25.8,122.2,4.2,0,2018,5,10,16,12,8.472,0.7806,-0.5477,-0.1203,-0.2758
-0.03,0.036,0.004,25.3,128.9,2.3,0,2018,5,10,16,12,8.508,0.7917,-0.5316,-0.1303,-0.2709
0.028,0.138,0.004,25.9,90.8,0,0,2018,5,10,16,12,8.512,0.8015,-0.5167,-0.1396,-0.2665
-0.023,-0.109,-0.063,24,67.4,-3.9,1023,2018,5,10,16,12,8.529,0.8072,-0.5081,-0.1464,-0.2622
0.05,-0.132,-0.136,24.8,103,-4.3,1023,2018,5,10,16,12,8.568,0.8142,-0.4972,-0.1533,-0.2573
-0.014,-0.002,-0.015,21.1,140.6,1.6,1023,2018,5,10,16,12,8.573,0.824,-0.481,-0.162,-0.2516
0.037,0.197,0.056,18.3,127.4,-2.1,1023,2018,5,10,16,12,8.589,0.8349,-0.4613,-0.1711,-0.2462
-0.042,0.077,0.084,13.1,86.8,-8.6,1023,2018,5,10,16,12,8.611,0.8431,-0.4468,-0.1774,-0.2408
-0.095,0.005,0.088,12.5,79.6,-10.7,1023,2018,5,10,16,12,8.631,0.8495,-0.435,-0.1821,-0.2362
-0.099,0.096,0.125,10.4,63.3,-13.2,1023,2018,5,10,16,12,8.669,0.8554,-0.4241,-0.1863,-0.2316
-0.116,0.015,0.116,6.4,45.8,-20,1023,2018,5,10,16,12,8.69,0.8598,-0.4165,-0.1887,-0.227
-0.089,0.029,0.064,4.2,47,-26.6,1023,2018,5,10,16,12,8.696,0.864,-0.4098,-0.1901,-0.2219
-0.058,0.026,0.062,2.5,50,-30.2,0,2018,5,10,16,12,8.713,0.8686,-0.4028,-0.1908,-0.2161
-0.067,0.064,0.025,6.7,44.9,-35.5,0,2018,5,10,16,12,8.734,0.8733,-0.3959,-0.1914,-0.2095
-0.164,-0.087,-0.096,7.2,54.3,-35.8,0,2018,5,10,16,12,8.754,0.8776,-0.3896,-0.1923,-0.2021
-0.043,0.078,0.027,4.2,73.3,-29.3,0,2018,5,10,16,12,8.773,0.8829,-0.3808,-0.1935,-0.1944
0.028,0.171,0.039,-0.1,66.4,-20.4,0,2018,5,10,16,12,8.793,0.8883,-0.3708,-0.1944,-0.1883
0.036,0.328,0.028,-0.2,26.8,-13.7,0,2018,5,10,16,12,8.812,0.892,-0.3639,-0.195,-0.1839
0.12,0.304,0.046,2,-1.5,-1.1,0,2018,5,10,16,12,8.832,0.893,-0.362,-0.1949,-0.1825
0.131,0.229,0.038,5.3,-36.3,7.1,0,2018,5,10,16,12,8.872,0.8915,-0.365,-0.1952,-0.1835
0.114,0.028,0.052,3.9,-45,14.2,0,2018,5,10,16,12,8.877,0.8885,-0.3711,-0.1951,-0.1862
0.098,0.116,0.032,3.8,-46.7,26.9,0,2018,5,10,16,12,8.894,0.885,-0.3768,-0.1956,-0.1907
0.06,0.181,0.005,6.7,-85.6,29.4,0,2018,5,10,16,12,8.93,0.8802,-0.3845,-0.1959,-0.1971
-0.031,0.188,-0.001,5,-150.8,28.9,0,2018,5,10,16,12,8.952,0.8709,-0.4018,-0.1945,-0.2053
-0.076,0.069,-0.112,1.8,-178.9,31,0,2018,5,10,16,12,8.956,0.8575,-0.4262,-0.1913,-0.2153
-0.08,0.004,-0.187,-2.1,-156.9,32.4,0,2018,5,10,16,12,8.994,0.8434,-0.45,-0.1871,-0.2258
-0.121,-0.124,-0.128,-5.4,-101.4,26.7,0,2018,5,10,16,12,8.998,0.832,-0.4679,-0.1836,-0.2346
-0.18,-0.045,-0.069,-1.2,-36.4,18.8,0,2018,5,10,16,12,9.014,0.8258,-0.4763,-0.1823,-0.2403
-0.195,0.146,-0.051,4.1,-29.7,6.6,0,2018,5,10,16,12,9.051,0.823,-0.4798,-0.1825,-0.2428
-0.204,-0.009,-0.113,4.4,-50.2,-6.8,0,2018,5,10,16,12,9.055,0.8193,-0.4861,-0.1813,-0.2437
-0.159,-0.247,-0.111,1.7,-16.3,-13.5,0,2018,5,10,16,12,9.071,0.8167,-0.4916,-0.1793,-0.243
-0.089,-0.088,-0.05,5.1,22.1,-17.4,0,2018,5,10,16,12,9.111,0.8175,-0.4918,-0.1789,-0.2402
-0.078,-0.04,-0.024,5.9,26.4,-24.9,0,2018,5,10,16,12,9.13,0.82,-0.4895,-0.1793,-0.2358
-0.08,0.075,0.011,8.6,17.2,-28.2,0,2018,5,10,16,12,9.134,0.8226,-0.4873,-0.1797,-0.2311
-0.029,-0.01,-0.057,10,17.8,-29.5,0,2018,5,10,16,12,9.172,0.8245,-0.4863,-0.18,-0.2261
0.051,-0.067,-0.009,10.9,41.8,-29.8,0,2018,5,10,16,12,9.193,0.8276,-0.4841,-0.1798,-0.2194
0.049,-0.009,0.044,10.6,54.9,-24.9,1023,2018,5,10,16,12,9.198,0.8327,-0.4782,-0.1804,-0.2127
0.078,0.046,0.026,9.8,59.1,-19.1,1023,2018,5,10,16,12,9.218,0.8383,-0.4705,-0.1818,-0.2065
0.115,0.096,0.052,6.2,35,-12.5,1023,2018,5,10,16,12,9.232,0.8427,-0.464,-0.1831,-0.2022
0.119,-0.018,0.076,3.1,40.2,-6.6,1023,2018,5,10,16,12,9.271,0.8457,-0.4594,-0.1841,-0.1993
0.098,-0.059,0.042,2.6,76.1,-0.7,1023,2018,5,10,16,12,9.293,0.8506,-0.4509,-0.1855,-0.1964
0.129,0.033,0.072,3.1,89.6,-2.3,1023,2018,5,10,16,12,9.297,0.8577,-0.4378,-0.1881,-0.1928
0.124,0.106,0.088,5.6,78.7,2.7,1023,2018,5,10,16,12,9.315,0.8639,-0.4252,-0.1915,-0.1898
0.097,0.136,0.161,4,61.1,4.1,1023,2018,5,10,16,12,9.336,0.8688,-0.4145,-0.1949,-0.1876
0.055,0.256,0.245,-3.4,13.5,15.3,0,2018,5,10,16,12,9.355,0.8712,-0.4085,-0.1969,-0.1875
0.142,0.176,0.153,-12.6,-9.4,37.6,0,2018,5,10,16,12,9.39,0.8708,-0.4069,-0.1975,-0.1923
0.184,0.102,0.05,-15.9,-26.7,52.4,0,2018,5,10,16,12,9.411,0.8685,-0.4075,-0.1979,-0.2009
0.067,0.052,0.028,-12.7,-29.6,69.4,0,2018,5,10,16,12,9.418,0.8648,-0.4091,-0.1987,-0.2123
-0.023,0.38,-0.072,1.5,-79.7,74.1,0,2018,5,10,16,12,9.455,0.8585,-0.414,-0.2012,-0.2257
-0.167,-0.105,-0.11,4.4,-113,52.1,0,2018,5,10,16,12,9.475,0.8484,-0.427,-0.2023,-0.2383
-0.221,-0.171,0.01,-6,-70.5,18.5,0,2018,5,10,16,12,9.48,0.831,-0.4518,-0.2001,-0.2553
-0.174,-0.134,-0.107,-8.7,-53.8,2.7,0,2018,5,10,16,12,9.496,0.8258,-0.4602,-0.1972,-0.2594
-0.13,-0.226,-0.18,-5.4,-29.1,-7.4,0,2018,5,10,16,12,9.516,0.8229,-0.4657,-0.1941,-0.261
-0.096,-0.114,-0.128,-0.6,15.2,-12.3,0,2018,5,10,16,12,9.536,0.8232,-0.4663,-0.1927,-0.2599
-0.121,0.11,-0.01,0.4,2.7,-15.5,0,2018,5,10,16,12,9.557,0.8248,-0.4649,-0.1923,-0.2576
-0.077,0.043,-0.03,-2.4,-5.3,-17.8,0,2018,5,10,16,12,9.578,0.8251,-0.4661,-0.1912,-0.2556
-0.042,0.134,-0.055,-2.6,-12,-14.6,0,2018,5,10,16,12,9.615,0.8251,-0.4673,-0.1898,-0.2541
-0.029,0.068,-0.035,-1.5,-26.5,-14.3,0,2018,5,10,16,12,9.634,0.8239,-0.4706,-0.1882,-0.2533
-0.059,-0.06,-0.041,-0.7,-32.8,-18.5,0,2018,5,10,16,12,9.638,0.8219,-0.4756,-0.1859,-0.2521
-0.057,-0.037,-0.01,-2.4,-31.5,-21.7,0,2018,5,10,16,12,9.677,0.8198,-0.4813,-0.1829,-0.2504
-0.033,-0.078,-0.002,-4.9,-14.1,-23.8,0,2018,5,10,16,12,9.696,0.8187,-0.4856,-0.1794,-0.248
-0.026,0.004,0.015,-7.6,0.8,-23.7,0,2018,5,10,16,12,9.7,0.8195,-0.4868,-0.1763,-0.2453
-0.007,0.059,-0.031,-6.2,3.5,-22.7,0,2018,5,10,16,12,9.717,0.8208,-0.4869,-0.1736,-0.2426
0.053,0.07,-0.134,0.1,27.2,-18.9,0,2018,5,10,16,12,9.753,0.8228,-0.4856,-0.1722,-0.2396
0.073,-0.107,-0.208,4.7,58.8,-24.2,0,2018,5,10,16,12,9.773,0.827,-0.4804,-0.1728,-0.2349
0.069,-0.172,-0.049,1.4,97.1,-30.4,0,2018,5,10,16,12,9.778,0.8346,-0.4699,-0.1743,-0.2282
0.12,-0.024,-0.119,7.5,108.9,-23.8,0,2018,5,10,16,12,9.798,0.8441,-0.4555,-0.1767,-0.2205
0.185,-0.103,-0.054,2.2,125.5,-15.3,0,2018,5,10,16,12,9.818,0.8536,-0.4393,-0.1803,-0.2137
0.169,0.064,0.145,0.5,133.2,-11,0,2018,5,10,16,12,9.857,0.8642,-0.4195,-0.1845,-0.2073
0.09,0.239,0.208,-2.2,78.6,-6.3,1023,2018,5,10,16,12,9.877,0.8723,-0.4033,-0.1875,-0.2027
0.096,0.226,0.107,2.3,17.8,1,1023,2018,5,10,16,12,9.881,0.8758,-0.3961,-0.1888,-0.2008
0.041,-0.224,0.001,0.1,43.3,9.9,1023,2018,5,10,16,12,9.901,0.8768,-0.3932,-0.1899,-0.2007
-0.071,0.235,0.159,-3.1,107.5,16.4,1023,2018,5,10,16,12,9.921,0.8903,-0.3578,-0.1994,-0.1986
-0.108,-0.175,0.071,-12.3,133.3,16.4,1023,2018,5,10,16,12,9.939,0.8968,-0.3395,-0.2031,-0.1978
-0.077,-0.375,-0.017,-15.9,252.7,22.8,1023,2018,5,10,16,12,9.977,0.9078,-0.3073,-0.2086,-0.1945
-0.037,0.051,-0.033,-10.2,301.7,17,0,2018,5,10,16,12,9.981,0.9218,-0.2599,-0.2175,-0.1879
-0.106,0.215,0.123,-13.5,258.3,1.8,0,2018,5,10,16,12,9.998,0.9336,-0.2132,-0.2252,-0.1789
-0.044,0.249,0.079,-16.1,187.4,-5.3,0,2018,5,10,16,12,10.019,0.9419,-0.1762,-0.2294,-0.1703
-0.012,0.087,-0.021,-18.1,125.6,-9.2,0,2018,5,10,16,12,10.039,0.9471,-0.1509,-0.2309,-0.1634
0,0.072,-0.074,-16.7,103.9,-5.6,0,2018,5,10,16,12,10.08,0.9507,-0.1319,-0.2313,-0.1583
0.003,0.084,-0.113,-10.9,99.4,-2.4,0,2018,5,10,16,12,10.099,0.9534,-0.1146,-0.2323,-0.154
0.021,0.133,-0.101,-4.1,82.7,-0.5,0,2018,5,10,16,12,10.103,0.9554,-0.0987,-0.2339,-0.1502
0.029,0.16,-0.062,0.8,45.6,0.6,0,2018,5,10,16,12,10.121,0.9565,-0.0877,-0.2353,-0.1476
0.017,0.13,-0.045,3.7,-6,1.4,0,2018,5,10,16,12,10.143,0.9567,-0.0843,-0.2363,-0.1471
0.025,0.076,-0.068,7.1,-49.1,3.7,0,2018,5,10,16,12,10.164,0.9559,-0.0886,-0.2367,-0.149
0.012,0.041,-0.045,7.6,-73.6,5,0,2018,5,10,16,12,10.181,0.9544,-0.0989,-0.2367,-0.1522
0.007,-0.008,-0.006,4,-75.6,7.7,0,2018,5,10,16,12,10.201,0.9526,-0.1116,-0.2357,-0.1564
-0.005,-0.028,0.078,-0.1,-61.1,9.4,0,2018,5,10,16,12,10.221,0.9508,-0.123,-0.2342,-0.1605
0.011,-0.109,-0.023,-8.2,-20.2,10.8,0,2018,5,10,16,12,10.242,0.9499,-0.1303,-0.232,-0.1638
0.078,-0.002,-0.218,-5.4,31.4,15.8,0,2018,5,10,16,12,10.262,0.9498,-0.1294,-0.2316,-0.1656
0.047,-0.085,-0.023,-1.5,74.2,11.9,0,2018,5,10,16,12,10.281,0.9506,-0.1204,-0.2329,-0.1658
-0.025,-0.144,0.027,6.7,84.6,-0.5,0,2018,5,10,16,12,10.302,0.952,-0.107,-0.2357,-0.1631
-0.024,0.001,-0.028,10.6,58.4,-1,0,2018,5,10,16,12,10.321,0.9528,-0.0966,-0.2395,-0.159
-0.029,0.042,0.086,7.6,48.8,-1.7,0,2018,5,10,16,12,10.343,0.9532,-0.0877,-0.2428,-0.1568
-0.005,0.019,0.097,4.3,28.7,-5.7,0,2018,5,10,16,12,10.36,0.9538,-0.0814,-0.2445,-0.1543
-0.038,0.071,0.091,2.7,21.4,-4,0,2018,5,10,16,12,10.399,0.9541,-0.0776,-0.2454,-0.1524
-0.048,0.139,0.098,-0.5,19.6,0.7,0,2018,5,10,16,12,10.403,0.9544,-0.0732,-0.2463,-0.1515
-0.043,0.168,0.12,-4,15.3,4.7,0,2018,5,10,16,12,10.42,0.9546,-0.07,-0.2465,-0.1513
-0.049,0.234,0.123,-4.3,19,11.4,0,2018,5,10,16,12,10.458,0.9548,-0.0667,-0.2462,-0.1521
-0.085,0.332,0.179,-5.9,17.2,19.6,0,2018,5,10,16,12,10.48,0.9548,-0.0629,-0.2462,-0.1539
-0.096,0.314,0.176,-12.1,25,31.1,0,2018,5,10,16,12,10.484,0.9547,-0.058,-0.2455,-0.1574
-0.082,0.32,0.173,-19.5,31.5,42,1023,2018,5,10,16,12,10.502,0.9547,-0.0512,-0.2439,-0.1624
-0.033,0.507,0.123,-22.5,23,54.1,1023,2018,5,10,16,12,10.524,0.9544,-0.0436,-0.2417,-0.1694
-0.083,0.471,0.115,-26.3,-0.4,67.8,1023,2018,5,10,16,12,10.561,0.9536,-0.0385,-0.2383,-0.1793
-0.121,0.416,0.1,-30.3,-27.8,82.3,1023,2018,5,10,16,12,10.579,0.9523,-0.0369,-0.2336,-0.1927
-0.155,0.176,0.106,-37.1,-37.1,90.5,1023,2018,5,10,16,12,10.584,0.9504,-0.038,-0.2272,-0.2088
-0.117,0.065,0.105,-39.7,-29.6,90.2,1023,2018,5,10,16,12,10.624,0.9481,-0.0382,-0.2205,-0.2255
-0.069,0.003,0.052,-40.9,-29.4,85,1023,2018,5,10,16,12,10.628,0.9458,-0.0379,-0.2138,-0.2414
-0.044,-0.07,-0.001,-41.6,-33.7,81.1,1023,2018,5,10,16,12,10.644,0.9434,-0.0389,-0.2064,-0.2564
-0.04,-0.175,-0.033,-42.1,-28,77.9,1023,2018,5,10,16,12,10.664,0.941,-0.0398,-0.1987,-0.2708
-0.027,-0.18,-0.058,-41.8,-16.7,73.5,0,2018,5,10,16,12,10.684,0.9386,-0.0388,-0.1912,-0.2843
0.028,-0.146,-0.129,-39.2,-11.9,67.7,0,2018,5,10,16,12,10.724,0.9363,-0.0366,-0.1844,-0.2965
0.061,-0.159,-0.193,-33.5,-14.9,63.2,0,2018,5,10,16,12,10.742,0.9339,-0.0348,-0.1781,-0.3078
0.071,-0.233,-0.222,-25.2,-7.6,62.3,0,2018,5,10,16,12,10.746,0.9313,-0.0332,-0.173,-0.3186
0.061,-0.225,-0.159,-16.8,-3,58.5,0,2018,5,10,16,12,10.765,0.9285,-0.0309,-0.1698,-0.3286
0.075,-0.244,-0.133,-12.3,-6.6,51.1,0,2018,5,10,16,12,10.784,0.9257,-0.0293,-0.1674,-0.3377
0.109,-0.227,-0.143,-7.2,-7.4,44.8,0,2018,5,10,16,12,10.822,0.9232,-0.028,-0.1655,-0.3455
0.085,-0.214,-0.135,-3.2,-2,41.5,0,2018,5,10,16,12,10.843,0.9207,-0.027,-0.1646,-0.3526
0.06,-0.148,-0.119,0.4,-4.1,39.1,0,2018,5,10,16,12,10.847,0.9182,-0.0261,-0.1645,-0.3591
0.054,-0.185,-0.109,2.9,-13,35,0,2018,5,10,16,12,10.864,0.9159,-0.0262,-0.1642,-0.3652
0.045,-0.235,-0.108,5.4,-13.8,31,0,2018,5,10,16,12,10.884,0.9136,-0.0276,-0.164,-0.3708
0.012,-0.181,-0.047,7.5,-10.6,26,0,2018,5,10,16,12,10.906,0.9115,-0.029,-0.1645,-0.3756
-0.005,-0.165,-0.073,7.3,-15.5,19.9,0,2018,5,10,16,12,10.925,0.9097,-0.0309,-0.165,-0.3796
0,-0.165,-0.091,8.7,-15.5,12.4,0,2018,5,10,16,12,10.944,0.9084,-0.0332,-0.1651,-0.3825
-0.02,-0.172,-0.072,11.1,-8.6,4.2,0,2018,5,10,16,12,10.984,0.9075,-0.0352,-0.1659,-0.3841
-0.016,-0.212,-0.066,13.4,-2.1,-6.6,0,2018,5,10,16,12,11.003,0.9072,-0.037,-0.1675,-0.3839
-0.018,-0.127,-0.014,13.5,2.8,-11.1,0,2018,5,10,16,12,11.008,0.9075,-0.038,-0.1695,-0.3822
-0.02,-0.057,-0.005,10.8,-3.9,-14.9,0,2018,5,10,16,12,11.027,0.9081,-0.0402,-0.1713,-0.3799
-0.022,-0.028,-0.035,8.9,-9.9,-16.2,0,2018,5,10,16,12,11.046,0.9088,-0.0427,-0.1723,-0.3773
-0.012,-0.021,-0.017,8.3,-17.8,-20.1,0,2018,5,10,16,12,11.065,0.9097,-0.0459,-0.1727,-0.3746
-0.016,-0.1,-0.014,4.7,-18.3,-24.2,0,2018,5,10,16,12,11.084,0.9108,-0.0509,-0.1722,-0.3715
0.009,-0.074,-0.047,4.7,-9.1,-26.5,0,2018,5,10,16,12,11.124,0.9123,-0.0549,-0.1716,-0.3676
-0.012,-0.054,0,4.6,-18.8,-32.8,0,2018,5,10,16,12,11.128,0.914,-0.0584,-0.1711,-0.363
0.036,-0.083,-0.044,5.9,-33.9,-38.3,0,2018,5,10,16,12,11.144,0.9159,-0.0647,-0.1695,-0.3577
0.07,-0.084,-0.023,12.5,-57.4,-43.3,0,2018,5,10,16,12,11.183,0.9177,-0.0747,-0.1671,-0.3523
0.073,-0.193,-0.095,16.1,-53.3,-45.5,0,2018,5,10,16,12,11.203,0.9193,-0.0862,-0.165,-0.3465
0.068,-0.133,-0.092,20.9,-41,-48.3,1023,2018,5,10,16,12,11.207,0.9208,-0.096,-0.1646,-0.3401
0.039,-0.099,-0.058,26,-54,-54.7,1023,2018,5,10,16,12,11.244,0.9225,-0.1065,-0.1643,-0.3324
0.069,-0.061,-0.028,31.4,-81.2,-58.9,1023,2018,5,10,16,12,11.264,0.9237,-0.1217,-0.1634,-0.3243
0.061,-0.049,-0.013,35.2,-106.1,-58.2,1023,2018,5,10,16,12,11.268,0.924,-0.141,-0.1614,-0.3166
0.059,-0.012,-0.1,42.6,-127.8,-57.1,1023,2018,5,10,16,12,11.306,0.9229,-0.1641,-0.1593,-0.3094
0.037,-0.03,-0.141,47,-145,-56.9,1023,2018,5,10,16,12,11.326,0.9205,-0.1907,-0.1574,-0.3024
0.043,0.067,-0.107,53.6,-172.4,-55.6,1023,2018,5,10,16,12,11.33,0.9163,-0.2205,-0.1553,-0.2958
0.031,0.015,-0.082,61.1,-200.7,-55.2,0,2018,5,10,16,12,11.347,0.9098,-0.2549,-0.1527,-0.2896
-0.024,-0.015,-0.016,63.1,-205.9,-51.8,0,2018,5,10,16,12,11.387,0.9009,-0.2921,-0.1499,-0.2834
0,0.028,-0.011,65.3,-209.8,-47.2,0,2018,5,10,16,12,11.406,0.8904,-0.329,-0.1472,-0.2776
0.012,0.047,-0.076,69.4,-211.7,-43.5,0,2018,5,10,16,12,11.411,0.878,-0.366,-0.145,-0.272
-0.041,0.092,-0.056,72.9,-205.3,-36.6,0,2018,5,10,16,12,11.43,0.8641,-0.4019,-0.1439,-0.2665
-0.09,0.033,-0.004,73.9,-200.6,-34.6,0,2018,5,10,16,12,11.449,0.8488,-0.4363,-0.144,-0.2613
-0.152,-0.09,0.054,72,-180,-31.6,0,2018,5,10,16,12,11.489,0.8332,-0.4684,-0.144,-0.2557
-0.195,-0.181,0.149,66.3,-132,-24.4,0,2018,5,10,16,12,11.509,0.8193,-0.4949,-0.1453,-0.25
-0.181,-0.181,0.183,58.8,-55.2,-17.1,0,2018,5,10,16,12,11.513,0.8107,-0.5108,-0.1486,-0.2442
-0.151,-0.029,0.241,51.9,10,-12.4,0,2018,5,10,16,12,11.532,0.8083,-0.5157,-0.1546,-0.238
-0.174,-0.022,0.254,45,36.8,-16.2,0,2018,5,10,16,12,11.548,0.8098,-0.5146,-0.1613,-0.2309
-0.178,0.015,0.22,39.4,49.2,-18.8,0,2018,5,10,16,12,11.568,0.8132,-0.5105,-0.1673,-0.2233
-0.152,0.013,0.093,36.7,61.1,-19.4,0,2018,5,10,16,12,11.589,0.8177,-0.5047,-0.1733,-0.2157
-0.111,0.034,0.06,34.5,73.9,-19.1,0,2018,5,10,16,12,11.608,0.8232,-0.4965,-0.18,-0.2082
-0.099,0.089,0.054,30.6,103,-14.7,0,2018,5,10,16,12,11.644,0.8303,-0.4849,-0.1871,-0.2005
-0.06,0.176,0.115,27.8,115.4,-12.5,0,2018,5,10,16,12,11.664,0.8392,-0.4699,-0.194,-0.1925
-0.005,0.167,0.051,27.3,113.2,-12.5,0,2018,5,10,16,12,11.672,0.8481,-0.454,-0.2008,-0.1845
0.029,0.148,0.036,29,100.7,-9.3,0,2018,5,10,16,12,11.69,0.8558,-0.4395,-0.2075,-0.1768
0.017,0.299,0.114,26.3,78.8,-0.7,0,2018,5,10,16,12,11.728,0.8619,-0.4268,-0.214,-0.1706
0.003,0.214,0.191,19.4,41.8,3.6,0,2018,5,10,16,12,11.749,0.8654,-0.4182,-0.2195,-0.1669
0.083,0.2,0.21,9.1,14.6,13.3,0,2018,5,10,16,12,11.753,0.8665,-0.4144,-0.2228,-0.1661
0.025,0.018,0.223,-0.1,21.5,26,0,2018,5,10,16,12,11.769,0.867,-0.411,-0.2255,-0.1682
0.062,-0.1,0.196,-8.9,53.6,40.1,0,2018,5,10,16,12,11.788,0.8691,-0.4034,-0.2282,-0.172
0.077,-0.252,0.067,-23.5,98.9,57.4,0,2018,5,10,16,12,11.809,0.8735,-0.3894,-0.2315,-0.1778
0.157,-0.077,-0.02,-29.5,145,64.7,0,2018,5,10,16,12,11.848,0.8811,-0.3664,-0.2355,-0.1839
0.147,0.302,-0.021,-20.9,121,71.5,0,2018,5,10,16,12,11.87,0.8887,-0.341,-0.24,-0.1901
0.044,0.301,-0.051,-10.2,41.1,80.5,0,2018,5,10,16,12,11.874,0.8915,-0.3247,-0.2448,-0.1995
-0.035,0.231,-0.029,-8.3,-12.8,79.9,0,2018,5,10,16,12,11.891,0.8895,-0.3194,-0.2483,-0.2123
-0.124,0.069,0.01,-8.1,-19.9,73.2,1023,2018,5,10,16,12,11.931,0.8859,-0.3185,-0.2505,-0.2255
-0.16,-0.021,0.054,-7.8,-4.1,60.3,1023,2018,5,10,16,12,11.936,0.8828,-0.3166,-0.2533,-0.237
-0.163,-0.013,0.047,-7.8,0,42.4,1023,2018,5,10,16,12,11.953,0.8807,-0.3139,-0.2556,-0.2456
-0.17,-0.069,0.01,-7.5,-1.5,24.8,1023,2018,5,10,16,12,11.992,0.8793,-0.3123,-0.2571,-0.2512
-0.175,-0.131,0.05,-7.1,-6.4,7.7,1023,2018,5,10,16,12,12.012,0.8782,-0.3127,-0.2573,-0.2541
-0.181,-0.199,0.095,-10,-4.7,-8.1,1023,2018,5,10,16,12,12.016,0.8781,-0.314,-0.256,-0.2544
-0.156,-0.189,0.117,-13.2,6.1,-20.9,0,2018,5,10,16,12,12.03,0.8791,-0.3147,-0.2534,-0.2524
-0.104,-0.125,0.112,-16.2,11.9,-31.1,0,2018,5,10,16,12,12.069,0.8813,-0.3143,-0.25,-0.2485
-0.084,-0.116,0.125,-19.3,17.8,-39.7,0,2018,5,10,16,12,12.09,0.8845,-0.313,-0.2458,-0.2431
-0.056,-0.07,0.114,-20.6,16.3,-47.2,0,2018,5,10,16,12,12.094,0.8883,-0.3113,-0.2408,-0.2365
-0.063,-0.028,0.091,-21.8,11,-53.7,0,2018,5,10,16,12,12.129,0.8921,-0.3101,-0.2352,-0.2292
-0.065,-0.019,0.109,-24.6,7.5,-57.9,0,2018,5,10,16,12,12.131,0.8958,-0.3098,-0.2289,-0.2214
-0.063,-0.027,0.15,-28.1,8.8,-60,0,2018,5,10,16,12,12.168,0.8997,-0.3094,-0.2219,-0.2133
-0.086,-0.026,0.161,-33.1,6.1,-62.9,0,2018,5,10,16,12,12.186,0.9038,-0.3085,-0.2139,-0.205
-0.101,0.005,0.111,-35.4,-5.5,-67.1,0,2018,5,10,16,12,12.193,0.9074,-0.3092,-0.2052,-0.1967
-0.056,-0.011,0.031,-33.7,-17.8,-68.9,0,2018,5,10,16,12,12.211,0.9103,-0.312,-0.196,-0.1883
-0.049,-0.064,0.018,-31.3,-5.2,-67.8,0,2018,5,10,16,12,12.231,0.9128,-0.3155,-0.1869,-0.1795
-0.081,-0.084,0.064,-31.5,29.9,-66.3,0,2018,5,10,16,12,12.271,0.9163,-0.3151,-0.1788,-0.1701
-0.072,-0.011,0.099,-33.8,60,-65.5,0,2018,5,10,16,12,12.292,0.9218,-0.3085,-0.1715,-0.1598
-0.045,0.032,0.079,-35.6,75.7,-63.2,0,2018,5,10,16,12,12.296,0.9285,-0.2974,-0.1646,-0.1492
-0.021,0.066,0.066,-36.5,81.9,-59.2,0,2018,5,10,16,12,12.315,0.9352,-0.2845,-0.1578,-0.139
-0.026,0.084,0.063,-38.7,85.3,-54.1,0,2018,5,10,16,12,12.335,0.9418,-0.2707,-0.1511,-0.1294
0,0.117,0.029,-42.4,87.5,-49.2,0,2018,5,10,16,12,12.373,0.9482,-0.2557,-0.144,-0.1207
0.038,0.155,-0.029,-43.8,85.3,-42.5,0,2018,5,10,16,12,12.393,0.9544,-0.2401,-0.1367,-0.1129
0.075,0.175,-0.055,-44.1,76.9,-32.4,0,2018,5,10,16,12,12.397,0.9597,-0.2254,-0.1294,-0.1065
0.09,0.168,-0.081,-45.6,71.1,-21,0,2018,5,10,16,12,12.416,0.964,-0.2125,-0.1222,-0.102
0.098,0.194,-0.159,-44.2,70.5,-9.4,0,2018,5,10,16,12,12.432,0.9679,-0.1996,-0.1153,-0.0996
0.091,0.246,-0.2,-40.4,47.6,0,0,2018,5,10,16,12,12.468,0.9709,-0.1883,-0.1091,-0.099
0.099,0.203,-0.168,-37.9,4.4,9.2,0,2018,5,10,16,12,12.488,0.9724,-0.1831,-0.1031,-0.1006
0.088,0.089,-0.121,-35.8,-28.2,13.3,0,2018,5,10,16,12,12.493,0.9725,-0.1842,-0.0965,-0.104
0.077,0.006,-0.099,-32.7,-45.6,11.6,1023,2018,5,10,16,12,12.53,0.9717,-0.19,-0.0899,-0.1077
0.08,-0.038,-0.062,-31.4,-53.5,8.5,1023,2018,5,10,16,12,12.551,0.9703,-0.198,-0.0832,-0.1109
0.099,-0.044,-0.1,-29.9,-49.6,5.2,1023,2018,5,10,16,12,12.556,0.9687,-0.2066,-0.0766,-0.1135
0.113,-0.06,-0.144,-27.9,-26.1,2.1,1023,2018,5,10,16,12,12.576,0.9677,-0.212,-0.0711,-0.1155
0.086,-0.074,-0.095,-28,-2.8,-1.7,1023,2018,5,10,16,12,12.596,0.9677,-0.2133,-0.0661,-0.1165
0.093,-0.104,-0.032,-28.2,10.9,-4,1023,2018,5,10,16,12,12.617,0.9684,-0.2115,-0.0614,-0.1168
0.109,-0.139,0.015,-27.1,19.8,-5.5,1023,2018,5,10,16,12,12.637,0.9694,-0.2079,-0.0569,-0.1167
0.081,-0.158,0.056,-28.4,34.4,-8,1023,2018,5,10,16,12,12.658,0.9709,-0.2025,-0.0525,-0.1162
0.033,-0.122,0.065,-32.9,54.7,-13.6,0,2018,5,10,16,12,12.695,0.9728,-0.195,-0.0475,-0.1149
0.013,-0.041,0.02,-38.8,69.9,-19.2,0,2018,5,10,16,12,12.699,0.9754,-0.1844,-0.0418,-0.1126
-0.014,0.006,-0.025,-44.3,76.6,-21.6,0,2018,5,10,16,12,12.718,0.9784,-0.1713,-0.0355,-0.1097
-0.008,0.066,-0.049,-48.5,75.3,-21.6,0,2018,5,10,16,12,12.753,0.9813,-0.1572,-0.0285,-0.1067
-0.03,0.123,-0.045,-52.4,69.9,-17,0,2018,5,10,16,12,12.773,0.9839,-0.1429,-0.0211,-0.1042
-0.038,0.157,-0.061,-55.6,61,-9.3,0,2018,5,10,16,12,12.778,0.986,-0.13,-0.0129,-0.103
-0.013,0.193,-0.087,-54.1,44.9,-1,0,2018,5,10,16,12,12.797,0.9874,-0.1194,-0.0043,-0.1031
-0.017,0.205,-0.091,-48.5,22.2,7.2,0,2018,5,10,16,12,12.832,0.9881,-0.1124,0.0038,-0.1044
-0.043,0.188,-0.078,-44.4,8,15.6,0,2018,5,10,16,12,12.853,0.9881,-0.109,0.0113,-0.1072
-0.05,0.165,-0.047,-40.9,0.5,20.7,0,2018,5,10,16,12,12.857,0.9877,-0.1074,0.0182,-0.1112
-0.033,0.178,-0.076,-35,-7.5,24.7,0,2018,5,10,16,12,12.878,0.9871,-0.1073,0.0244,-0.1157
0.014,0.161,-0.118,-28.2,-13.1,33.2,0,2018,5,10,16,12,12.9,0.9863,-0.1071,0.0294,-0.121
-0.006,0.15,-0.118,-21.3,-21.6,44.2,0,2018,5,10,16,12,12.915,0.9852,-0.1085,0.0332,-0.1279
-0.02,0.101,-0.131,-16.5,-30,53.4,0,2018,5,10,16,12,12.953,0.9836,-0.1119,0.0357,-0.1364
-0.023,0.103,-0.163,-9.3,-40.2,60.3,0,2018,5,10,16,12,12.958,0.9816,-0.1171,0.0374,-0.146
-0.022,0.103,-0.214,-1.1,-60.1,67.4,0,2018,5,10,16,12,12.979,0.9788,-0.1257,0.038,-0.1567
-0.048,0.067,-0.216,5.8,-76.9,72.1,0,2018,5,10,16,12,12.999,0.9753,-0.1381,0.0374,-0.1681
-0.075,0.011,-0.193,11,-80.7,73.1,0,2018,5,10,16,12,13.015,0.971,-0.153,0.0358,-0.1796
