time_1,time_2,time_3,time_4,time_5,time_6,w,x,y,z,droll,dpitch,dyaw,ax,ay,az,heart
2018,4,25,17,30,20.482,-0.87,-0.2642,0.415,-0.0312,0,0,0,0.005,-0.003,-0.002,0
2018,4,25,17,30,20.5,-0.87,-0.2642,0.415,-0.0312,0,0,0,0.001,0.001,-0.001,0
2018,4,25,17,30,20.509,-0.87,-0.2642,0.415,-0.0312,0,0,0,0.002,0.002,0.004,0
2018,4,25,17,30,20.545,-0.87,-0.2642,0.4149,-0.0312,0,0,0,0,0.002,0.002,0
2018,4,25,17,30,20.565,-0.87,-0.2642,0.4149,-0.0312,0,0,0,-0.002,0,0.004,0
2018,4,25,17,30,20.569,-0.87,-0.2642,0.4149,-0.0312,0,0,0,-0.005,-0.001,0.006,1023
2018,4,25,17,30,20.606,-0.87,-0.2642,0.415,-0.0312,0.6,0.4,-0.1,-0.003,-0.003,0.001,1023
2018,4,25,17,30,20.626,-0.8699,-0.2643,0.4151,-0.0313,0.9,0.6,-0.1,0,0.001,-0.002,1023
2018,4,25,17,30,20.632,-0.8698,-0.2644,0.4152,-0.0313,0.6,0.6,0,0,0.002,0.001,1023
2018,4,25,17,30,20.67,-0.8697,-0.2645,0.4153,-0.0313,0.2,0.5,0,-0.003,0.005,-0.003,1023
2018,4,25,17,30,20.689,-0.8697,-0.2645,0.4154,-0.0313,0,0,0,-0.004,0,0,1023
2018,4,25,17,30,20.691,-0.8697,-0.2645,0.4154,-0.0313,0,0,0,-0.003,0,0.002,0
2018,4,25,17,30,20.728,-0.8697,-0.2645,0.4154,-0.0313,0,0,0,-0.003,0,0,0
2018,4,25,17,30,20.749,-0.8697,-0.2645,0.4154,-0.0313,0,0,0,-0.003,0,0.001,0
2018,4,25,17,30,20.751,-0.8697,-0.2645,0.4154,-0.0313,0,0,0,0,0,0,0
2018,4,25,17,30,20.788,-0.8696,-0.2646,0.4155,-0.0313,0,0,0,0,0.001,-0.001,0
2018,4,25,17,30,20.809,-0.8696,-0.2646,0.4155,-0.0313,0,0,0,0,0,0,0
2018,4,25,17,30,20.813,-0.8696,-0.2646,0.4155,-0.0313,0,0,0,-0.001,0,-0.001,0
2018,4,25,17,30,20.851,-0.8696,-0.2646,0.4155,-0.0313,0,0,0,-0.002,-0.001,-0.001,0
2018,4,25,17,30,20.872,-0.8696,-0.2645,0.4155,-0.0314,0,0,0,0,-0.002,0.005,0
2018,4,25,17,30,20.874,-0.8696,-0.2645,0.4155,-0.0314,0,0,0,-0.002,0,0,0
2018,4,25,17,30,20.912,-0.8696,-0.2645,0.4155,-0.0314,0,0,0,-0.001,0.001,-0.002,0
2018,4,25,17,30,20.914,-0.8696,-0.2645,0.4155,-0.0314,0,0,0,0,0.002,0.003,0
2018,4,25,17,30,20.932,-0.8696,-0.2645,0.4155,-0.0314,0,0,0,-0.004,-0.001,0,0
2018,4,25,17,30,20.967,-0.8696,-0.2645,0.4155,-0.0314,0,0,0,-0.001,-0.002,-0.001,0
2018,4,25,17,30,20.986,-0.8696,-0.2645,0.4155,-0.0314,0,0,0,0,-0.002,0,0
2018,4,25,17,30,20.993,-0.8696,-0.2645,0.4155,-0.0314,0,0,0,-0.006,0,0.004,0
2018,4,25,17,30,21.03,-0.8696,-0.2645,0.4156,-0.0314,0,0,0,-0.004,-0.003,0,0
2018,4,25,17,30,21.051,-0.8696,-0.2645,0.4156,-0.0314,0,0,0,-0.002,0,-0.002,0
2018,4,25,17,30,21.055,-0.8696,-0.2644,0.4156,-0.0314,0,0,0,-0.004,0.002,-0.005,0
2018,4,25,17,30,21.092,-0.8696,-0.2645,0.4156,-0.0314,0,0,0,0.001,0.005,0,0
2018,4,25,17,30,21.114,-0.8696,-0.2645,0.4156,-0.0314,0,0,0,-0.001,0.005,-0.001,0
2018,4,25,17,30,21.117,-0.8696,-0.2645,0.4156,-0.0314,-0.5,-0.5,0.2,-0.002,0,-0.001,0
2018,4,25,17,30,21.134,-0.8697,-0.2644,0.4155,-0.0313,-1.1,-0.6,0.2,-0.002,0,-0.001,0
2018,4,25,17,30,21.154,-0.8698,-0.2642,0.4154,-0.0312,-1.1,-0.4,0.2,-0.003,-0.002,0.005,0
2018,4,25,17,30,21.194,-0.8699,-0.264,0.4153,-0.0311,-0.9,-0.2,0.2,-0.002,-0.005,0.007,0
2018,4,25,17,30,21.214,-0.8699,-0.264,0.4153,-0.0311,0,0,0,0.002,-0.003,-0.002,0
2018,4,25,17,30,21.218,-0.8699,-0.264,0.4153,-0.0311,1.3,0.1,0.5,0.001,-0.005,-0.001,0
2018,4,25,17,30,21.235,-0.8698,-0.2643,0.4153,-0.0312,1.6,0,0.2,-0.002,0.001,-0.002,0
2018,4,25,17,30,21.273,-0.8697,-0.2645,0.4153,-0.0313,1,-0.1,-0.1,-0.003,0.004,0.003,0
2018,4,25,17,30,21.294,-0.8697,-0.2647,0.4153,-0.0313,0,0,0,-0.005,0.01,0,0
2018,4,25,17,30,21.297,-0.8696,-0.2648,0.4153,-0.0313,0,0,0,-0.005,0.01,-0.003,0
2018,4,25,17,30,21.334,-0.8697,-0.2647,0.4153,-0.0311,-1.2,-0.4,0.5,-0.006,0.003,0,0
2018,4,25,17,30,21.337,-0.8698,-0.2645,0.4152,-0.031,-1.1,-0.4,0.3,0.001,-0.001,0.002,0
2018,4,25,17,30,21.352,-0.8698,-0.2644,0.4152,-0.0309,-0.9,-0.2,0,0.003,-0.002,0.001,0
2018,4,25,17,30,21.388,-0.8699,-0.2643,0.4151,-0.0309,0,0,0,0.002,-0.004,0.004,0
2018,4,25,17,30,21.409,-0.8699,-0.2643,0.4151,-0.0309,0,0,0,0.004,-0.001,-0.001,0
2018,4,25,17,30,21.412,-0.8699,-0.2643,0.4151,-0.0309,0,0,0,0.001,0.002,0.002,0
2018,4,25,17,30,21.451,-0.8699,-0.2643,0.415,-0.0309,0,0,0,0,0.005,0.007,0
2018,4,25,17,30,21.471,-0.87,-0.2643,0.415,-0.0309,0,0,0,-0.001,0,0.004,0
2018,4,25,17,30,21.478,-0.87,-0.2642,0.415,-0.0309,0,0,0,0,-0.004,-0.002,0
2018,4,25,17,30,21.515,-0.87,-0.2642,0.415,-0.0309,0,0,0,-0.006,0,0.005,0
2018,4,25,17,30,21.534,-0.87,-0.2642,0.415,-0.031,0.5,0.3,-0.1,-0.004,-0.001,0.002,0
2018,4,25,17,30,21.538,-0.8699,-0.2643,0.4151,-0.031,0.8,0.3,0,-0.001,0.001,-0.001,1023
2018,4,25,17,30,21.556,-0.8699,-0.2644,0.4151,-0.031,0,0,0,0.001,0.003,-0.003,1023
2018,4,25,17,30,21.575,-0.8698,-0.2644,0.4152,-0.031,0,0,0,-0.002,0,-0.002,1023
2018,4,25,17,30,21.595,-0.8698,-0.2644,0.4152,-0.031,0,0,0,-0.004,-0.001,-0.002,1023
2018,4,25,17,30,21.634,-0.8698,-0.2644,0.4152,-0.031,0,0,0,-0.002,0,0,1023
2018,4,25,17,30,21.654,-0.8698,-0.2644,0.4152,-0.031,0,0,0,0,0,-0.004,1023
2018,4,25,17,30,21.658,-0.8698,-0.2644,0.4152,-0.031,0,0,0,0,0.001,-0.003,0
2018,4,25,17,30,21.68,-0.8698,-0.2644,0.4152,-0.031,0,0,0,0,0,0.003,0
2018,4,25,17,30,21.697,-0.8698,-0.2644,0.4152,-0.031,0,0,0,-0.002,0,0.001,0
2018,4,25,17,30,21.718,-0.8698,-0.2644,0.4152,-0.031,0,0,0,0.001,0.002,-0.001,0
2018,4,25,17,30,21.739,-0.8698,-0.2644,0.4152,-0.031,0,0,0,0.003,0.001,0.001,0
2018,4,25,17,30,21.775,-0.8698,-0.2644,0.4152,-0.031,0,0,0,0.001,-0.001,0.004,0
2018,4,25,17,30,21.797,-0.8698,-0.2644,0.4152,-0.031,0,0,0,0.002,0,0,0
2018,4,25,17,30,21.8,-0.8698,-0.2644,0.4152,-0.031,0,0,0,0.003,-0.002,0,0
2018,4,25,17,30,21.818,-0.8698,-0.2644,0.4152,-0.031,0,0,0,-0.001,0.001,0.006,0
2018,4,25,17,30,21.839,-0.8699,-0.2644,0.4151,-0.031,0,0,0,-0.002,0,0.002,0
2018,4,25,17,30,21.858,-0.8699,-0.2644,0.4151,-0.031,0,0,0,0,0,0.002,0
2018,4,25,17,30,21.88,-0.8699,-0.2644,0.4151,-0.031,0,0,0,-0.001,0,0.002,0
2018,4,25,17,30,21.901,-0.8699,-0.2644,0.4151,-0.031,0,0,0,-0.001,-0.001,0.001,0
2018,4,25,17,30,21.919,-0.8699,-0.2643,0.4151,-0.031,0,0,0,-0.002,-0.002,0.005,0
2018,4,25,17,30,21.94,-0.8699,-0.2643,0.4151,-0.0311,0,0,0,-0.002,-0.002,0.001,0
2018,4,25,17,30,21.98,-0.8699,-0.2643,0.4152,-0.0311,0,0,0,-0.001,0,0.004,0
2018,4,25,17,30,21.997,-0.8698,-0.2643,0.4152,-0.0311,0,0,0,-0.004,0,0,0
2018,4,25,17,30,22.002,-0.8698,-0.2643,0.4152,-0.0311,0,0,0,-0.001,0.005,-0.003,0
2018,4,25,17,30,22.021,-0.8698,-0.2644,0.4152,-0.031,0,0,0,0.002,0.007,0,0
2018,4,25,17,30,22.038,-0.8698,-0.2644,0.4152,-0.031,-0.6,-0.4,0.2,0.001,0.003,-0.002,0
2018,4,25,17,30,22.056,-0.8699,-0.2643,0.4151,-0.0309,-1.3,-0.6,0.3,0,0,0.001,0
2018,4,25,17,30,22.096,-0.87,-0.2641,0.415,-0.0308,-1.6,-0.5,0.2,-0.002,0.001,0.006,0
2018,4,25,17,30,22.117,-0.8702,-0.2638,0.4148,-0.0307,-1.4,-0.4,0,0,0,0.008,0
2018,4,25,17,30,22.121,-0.8703,-0.2636,0.4147,-0.0306,-0.7,0,0.2,0.002,-0.005,0.006,0
2018,4,25,17,30,22.16,-0.8703,-0.2635,0.4147,-0.0306,0.6,0,0,0.001,-0.009,0.003,0
2018,4,25,17,30,22.179,-0.8703,-0.2637,0.4147,-0.0307,1.5,0,0,0.001,-0.005,0,0
2018,4,25,17,30,22.183,-0.8702,-0.2639,0.4147,-0.0309,1.4,0.1,0,0.001,-0.002,-0.004,0
2018,4,25,17,30,22.202,-0.8701,-0.2641,0.4147,-0.031,1,0,-0.1,0,0.01,0.001,0
2018,4,25,17,30,22.222,-0.8701,-0.2643,0.4147,-0.031,0,0,0,-0.002,0.009,0,0
2018,4,25,17,30,22.24,-0.8701,-0.2643,0.4147,-0.0309,-0.7,-0.1,0.2,-0.004,0.005,0,0
2018,4,25,17,30,22.278,-0.8701,-0.2642,0.4147,-0.0308,-1.3,-0.2,0.4,-0.003,0,0.004,0
2018,4,25,17,30,22.298,-0.8702,-0.2641,0.4146,-0.0307,-1,-0.3,0.2,-0.003,-0.002,-0.001,0
2018,4,25,17,30,22.302,-0.8703,-0.2639,0.4146,-0.0306,0,0,0,0.001,-0.003,0,0
2018,4,25,17,30,22.339,-0.8703,-0.2639,0.4146,-0.0306,0,0,0,0,-0.003,0,0
2018,4,25,17,30,22.361,-0.8703,-0.2639,0.4145,-0.0306,0,0,0,0.003,0,0,0
2018,4,25,17,30,22.365,-0.8703,-0.2639,0.4145,-0.0306,0,0,0,0,0.001,0.002,0
2018,4,25,17,30,22.382,-0.8704,-0.2638,0.4144,-0.0306,0,0,0,0,0,0.003,0
2018,4,25,17,30,22.422,-0.8704,-0.2637,0.4143,-0.0306,0,0,0,-0.004,0,0.006,0
2018,4,25,17,30,22.442,-0.8705,-0.2637,0.4143,-0.0306,0,0,0,-0.003,0,-0.002,0
2018,4,25,17,30,22.446,-0.8705,-0.2637,0.4143,-0.0306,0,0,0,-0.002,-0.002,0.005,0
2018,4,25,17,30,22.46,-0.8705,-0.2637,0.4143,-0.0306,0,0,0,0.003,-0.001,-0.001,0
2018,4,25,17,30,22.499,-0.8705,-0.2636,0.4143,-0.0306,0,0,0,0,0.002,0.005,0
2018,4,25,17,30,22.518,-0.8705,-0.2637,0.4143,-0.0306,0,0,0,0.001,0.003,-0.002,1023
2018,4,25,17,30,22.522,-0.8705,-0.2637,0.4143,-0.0306,0,0,0,-0.001,0.002,0.005,1023
2018,4,25,17,30,22.562,-0.8705,-0.2637,0.4143,-0.0306,0,0,0,0,0.001,-0.001,1023
2018,4,25,17,30,22.583,-0.8705,-0.2637,0.4143,-0.0306,0,0,0,0,0.002,-0.002,1023
2018,4,25,17,30,22.587,-0.8705,-0.2637,0.4143,-0.0306,0,0,0,0,0.002,0.002,1023
2018,4,25,17,30,22.606,-0.8705,-0.2637,0.4143,-0.0306,0,0,0,0.002,0.003,-0.002,0
2018,4,25,17,30,22.626,-0.8705,-0.2637,0.4143,-0.0306,0,0,0,0.001,0,0,0
2018,4,25,17,30,22.647,-0.8705,-0.2637,0.4143,-0.0306,0,0,0,0.001,0,0,0
2018,4,25,17,30,22.666,-0.8705,-0.2637,0.4143,-0.0306,0,0,0,-0.002,-0.001,0.007,0
2018,4,25,17,30,22.681,-0.8705,-0.2637,0.4142,-0.0306,0,0,0,0,0,0.001,0
2018,4,25,17,30,22.722,-0.8705,-0.2637,0.4142,-0.0306,0,0,0,-0.001,-0.002,0.001,0
2018,4,25,17,30,22.726,-0.8705,-0.2637,0.4142,-0.0306,0,0,0,0,-0.002,0.005,0
2018,4,25,17,30,22.743,-0.8705,-0.2637,0.4142,-0.0306,0,0,0,0.003,0,0.002,0
2018,4,25,17,30,22.781,-0.8705,-0.2637,0.4142,-0.0306,0,0,0,0,0.001,0.001,0
2018,4,25,17,30,22.802,-0.8705,-0.2637,0.4142,-0.0306,0,0,0,0,0.001,0.003,0
2018,4,25,17,30,22.806,-0.8706,-0.2637,0.4141,-0.0306,0,0,0,0,-0.001,0.003,0
2018,4,25,17,30,22.826,-0.8706,-0.2637,0.4141,-0.0306,0,0,0,0,0.001,0.001,0
2018,4,25,17,30,22.847,-0.8706,-0.2637,0.4141,-0.0306,0,0,0,0,0,0.002,0
2018,4,25,17,30,22.866,-0.8706,-0.2636,0.4141,-0.0306,0,0,0,0,-0.001,0.002,0
2018,4,25,17,30,22.886,-0.8706,-0.2636,0.4141,-0.0306,0,0,0,-0.003,-0.002,0.004,0
2018,4,25,17,30,22.903,-0.8706,-0.2636,0.4141,-0.0306,0,0,0,-0.002,0,0.002,0
2018,4,25,17,30,22.94,-0.8706,-0.2636,0.4141,-0.0306,0,0,0,-0.002,0,-0.003,0
2018,4,25,17,30,22.962,-0.8706,-0.2636,0.4141,-0.0306,0,0,0,-0.003,-0.001,0,0
2018,4,25,17,30,22.966,-0.8706,-0.2636,0.4141,-0.0306,0,0,0,-0.001,0.004,-0.002,0
2018,4,25,17,30,22.986,-0.8706,-0.2636,0.4141,-0.0306,0,0,0,0.005,0.004,-0.001,0
2018,4,25,17,30,23.007,-0.8706,-0.2637,0.4141,-0.0306,-0.6,0,0.2,0,0.001,0.001,0
2018,4,25,17,30,23.026,-0.8706,-0.2636,0.414,-0.0305,-0.7,-0.3,0.2,0,0.003,-0.003,0
2018,4,25,17,30,23.049,-0.8707,-0.2635,0.414,-0.0304,-1,-0.5,0.3,0,0,0.006,0
2018,4,25,17,30,23.066,-0.8708,-0.2632,0.4138,-0.0303,-1.1,-0.4,0.1,-0.001,0,0.003,0
2018,4,25,17,30,23.105,-0.8708,-0.2634,0.4138,-0.0302,-0.8,-0.1,0.2,0,-0.002,0.008,0
2018,4,25,17,30,23.109,-0.8709,-0.2633,0.4137,-0.0302,0.5,0.1,0.1,0,-0.008,0.003,0
2018,4,25,17,30,23.126,-0.8708,-0.2634,0.4138,-0.0303,1.3,0.4,0.3,0.002,-0.008,0.001,0
2018,4,25,17,30,23.163,-0.8708,-0.2636,0.4138,-0.0304,1.3,0.2,0,0.001,0,0,0
2018,4,25,17,30,23.182,-0.8707,-0.2638,0.4138,-0.0305,0.7,0,-0.1,0.001,0.005,0,0
2018,4,25,17,30,23.186,-0.8707,-0.2639,0.4138,-0.0305,0,0,0,-0.001,0.006,0,0
2018,4,25,17,30,23.222,-0.8706,-0.2639,0.4138,-0.0305,0,0,0,-0.003,0.006,0.001,0
2018,4,25,17,30,23.242,-0.8706,-0.264,0.4138,-0.0305,0,0,0,0,0.006,-0.001,0
2018,4,25,17,30,23.246,-0.8707,-0.264,0.4137,-0.0304,-0.7,0,0,-0.001,0.003,0.001,0
2018,4,25,17,30,23.284,-0.8707,-0.2639,0.4137,-0.0304,0,0,0,0.001,-0.002,0.002,0
2018,4,25,17,30,23.307,-0.8707,-0.2639,0.4137,-0.0304,0,0,0,0.003,-0.002,0.001,0
2018,4,25,17,30,23.311,-0.8707,-0.2639,0.4137,-0.0304,0,0,0,0.005,0.001,-0.001,0
2018,4,25,17,30,23.327,-0.8707,-0.2639,0.4137,-0.0304,0,0,0,0.001,0,0,0
2018,4,25,17,30,23.345,-0.8708,-0.2638,0.4136,-0.0303,-0.6,0.2,-0.2,0.003,0.002,0.004,0
2018,4,25,17,30,23.383,-0.8708,-0.2637,0.4136,-0.0303,0,0,0,-0.001,0,0.006,0
2018,4,25,17,30,23.403,-0.8708,-0.2637,0.4136,-0.0303,0,0,0,0,-0.002,0.006,0
2018,4,25,17,30,23.405,-0.8708,-0.2637,0.4136,-0.0304,0.5,0.4,-0.1,-0.002,-0.001,0.002,0
2018,4,25,17,30,23.445,-0.8708,-0.2637,0.4136,-0.0305,0.8,0.2,-0.1,0,-0.001,0.001,0
2018,4,25,17,30,23.464,-0.8707,-0.2638,0.4137,-0.0305,0.8,0.4,0,0,0,0.003,0
2018,4,25,17,30,23.466,-0.8706,-0.264,0.4138,-0.0305,0.5,0.6,-0.1,0.001,0.003,-0.003,1023
2018,4,25,17,30,23.504,-0.8706,-0.264,0.4139,-0.0306,0.1,0.6,-0.1,0,0.003,0,1023
2018,4,25,17,30,23.524,-0.8705,-0.264,0.4139,-0.0306,0,0,0,0,0.002,0,1023
2018,4,25,17,30,23.527,-0.8705,-0.264,0.414,-0.0306,0,0,0,-0.004,-0.003,-0.005,1023
2018,4,25,17,30,23.568,-0.8705,-0.264,0.414,-0.0306,0,0,0,-0.002,0.001,0.007,1023
2018,4,25,17,30,23.572,-0.8705,-0.264,0.414,-0.0306,0,0,0,0.002,0.003,0,1023
2018,4,25,17,30,23.586,-0.8705,-0.264,0.414,-0.0306,0,0,0,0.001,0.003,0.002,0
2018,4,25,17,30,23.609,-0.8705,-0.264,0.414,-0.0306,0,0,0,-0.001,-0.001,-0.001,0
2018,4,25,17,30,23.627,-0.8705,-0.264,0.414,-0.0306,0,0,0,0,0,0,0
2018,4,25,17,30,23.648,-0.8705,-0.264,0.4139,-0.0306,0,0,0,0.001,0,0.001,0
2018,4,25,17,30,23.668,-0.8705,-0.264,0.4139,-0.0306,0,0,0,0.002,0,0,0
2018,4,25,17,30,23.705,-0.8706,-0.264,0.4139,-0.0306,0,0,0,0,0,0.002,0
2018,4,25,17,30,23.725,-0.8706,-0.264,0.4139,-0.0306,0,0,0,-0.001,0,0,0
2018,4,25,17,30,23.729,-0.8706,-0.264,0.4139,-0.0306,0,0,0,0,0,0.002,0
2018,4,25,17,30,23.751,-0.8706,-0.264,0.4139,-0.0306,0,0,0,-0.001,0.002,-0.003,0
2018,4,25,17,30,23.769,-0.8706,-0.264,0.4139,-0.0306,0,0,0,-0.002,0.001,-0.002,0
2018,4,25,17,30,23.788,-0.8706,-0.264,0.4139,-0.0306,0,0,0,-0.002,-0.001,0,0
2018,4,25,17,30,23.809,-0.8706,-0.264,0.4139,-0.0306,0,0,0,-0.002,0,-0.001,0
2018,4,25,17,30,23.829,-0.8706,-0.264,0.4139,-0.0306,0,0,0,-0.002,0,0.004,0
2018,4,25,17,30,23.851,-0.8706,-0.264,0.4139,-0.0306,0,0,0,-0.002,-0.002,0,0
2018,4,25,17,30,23.871,-0.8706,-0.264,0.414,-0.0306,0,0,0,-0.002,-0.001,0,0
2018,4,25,17,30,23.89,-0.8705,-0.264,0.414,-0.0306,0.6,0.3,-0.1,-0.002,-0.003,-0.001,0
2018,4,25,17,30,23.912,-0.8705,-0.264,0.414,-0.0306,0,0,0,0,0.001,-0.001,0
2018,4,25,17,30,23.932,-0.8705,-0.264,0.414,-0.0307,0,0,0,-0.002,0.001,-0.006,0
2018,4,25,17,30,23.951,-0.8705,-0.2641,0.4141,-0.0306,0,0,0,0,0.003,-0.002,0
2018,4,25,17,30,23.972,-0.8705,-0.2641,0.4141,-0.0306,0,0,0,0.002,0.004,-0.003,0
2018,4,25,17,30,23.992,-0.8704,-0.2641,0.4141,-0.0306,-0.6,0,0,0,0.005,-0.001,0
2018,4,25,17,30,24.01,-0.8705,-0.264,0.4141,-0.0305,-1.2,-0.2,0,0,0.002,0.001,0
2018,4,25,17,30,24.028,-0.8706,-0.2638,0.414,-0.0305,-1.2,-0.1,0.2,-0.005,-0.006,0,0
2018,4,25,17,30,24.069,-0.8707,-0.2636,0.414,-0.0304,0,0,0,-0.003,-0.004,0.005,0
2018,4,25,17,30,24.089,-0.8707,-0.2635,0.414,-0.0304,0.6,0.6,0,-0.002,-0.008,0.003,0
2018,4,25,17,30,24.094,-0.8706,-0.2636,0.4141,-0.0305,1.3,0.6,0.1,0.001,-0.004,0,0
2018,4,25,17,30,24.113,-0.8705,-0.2639,0.4142,-0.0306,1.5,0.4,-0.1,-0.002,0.002,-0.005,0
2018,4,25,17,30,24.133,-0.8704,-0.2641,0.4143,-0.0307,1.2,0.1,-0.1,0,0.004,0,0
2018,4,25,17,30,24.171,-0.8703,-0.2643,0.4143,-0.0308,0.6,0.1,-0.2,0,0.011,-0.004,0
2018,4,25,17,30,24.193,-0.8703,-0.2644,0.4143,-0.0307,0,0,0,-0.003,0.011,-0.003,0
2018,4,25,17,30,24.198,-0.8702,-0.2644,0.4143,-0.0307,-0.5,0,0.1,-0.004,0.004,0.001,0
2018,4,25,17,30,24.208,-0.8702,-0.2644,0.4144,-0.0307,-0.6,0,-0.1,-0.001,0,0,0
2018,4,25,17,30,24.249,-0.8703,-0.2643,0.4144,-0.0306,0,0,0,0.003,-0.002,-0.002,0
2018,4,25,17,30,24.269,-0.8703,-0.2643,0.4144,-0.0306,0,0,0,0.004,-0.004,0.002,0
2018,4,25,17,30,24.274,-0.8703,-0.2642,0.4144,-0.0306,0,0,0,0.004,-0.002,-0.001,0
2018,4,25,17,30,24.292,-0.8703,-0.2642,0.4143,-0.0306,0,0,0,0,0,0,0
2018,4,25,17,30,24.33,-0.8703,-0.2642,0.4143,-0.0306,-0.2,0,-0.5,0,0,0.006,0
2018,4,25,17,30,24.351,-0.8703,-0.2642,0.4143,-0.0307,0,0,0,-0.001,-0.001,0.002,0
2018,4,25,17,30,24.355,-0.8703,-0.2642,0.4143,-0.0307,0,0,0,-0.004,-0.001,0.005,0
2018,4,25,17,30,24.371,-0.8703,-0.2641,0.4143,-0.0307,0,0,0,-0.005,0,-0.002,0
2018,4,25,17,30,24.393,-0.8703,-0.2641,0.4144,-0.0307,0,0,0,-0.004,-0.001,0.003,0
2018,4,25,17,30,24.41,-0.8703,-0.2641,0.4144,-0.0307,0,0,0,-0.005,-0.002,-0.003,1023
2018,4,25,17,30,24.431,-0.8703,-0.2641,0.4144,-0.0308,0,0,0,-0.005,0,-0.001,1023
2018,4,25,17,30,24.451,-0.8703,-0.2641,0.4145,-0.0308,0,0,0,-0.004,0.002,0.001,1023
2018,4,25,17,30,24.485,-0.8702,-0.2641,0.4145,-0.0308,0,0,0,-0.004,0.001,0.002,1023
2018,4,25,17,30,24.506,-0.8702,-0.2641,0.4145,-0.0308,0,0,0,-0.002,0.003,-0.005,1023
2018,4,25,17,30,24.513,-0.8702,-0.2641,0.4145,-0.0308,-0.2,-0.5,0,-0.002,0,0.001,1023
2018,4,25,17,30,24.534,-0.8702,-0.2642,0.4146,-0.0308,-0.3,-0.5,0.2,-0.003,0,0.001,1023
2018,4,25,17,30,24.554,-0.8702,-0.2642,0.4146,-0.0308,0,0,0,-0.001,0.004,0,0
2018,4,25,17,30,24.576,-0.8702,-0.2642,0.4145,-0.0307,0,0,0,0.002,-0.002,0.001,0
2018,4,25,17,30,24.596,-0.8702,-0.2641,0.4145,-0.0307,0,0,0,0,-0.002,0.001,0
2018,4,25,17,30,24.616,-0.8702,-0.2641,0.4145,-0.0307,0,0,0,0.001,0.001,-0.002,0
2018,4,25,17,30,24.636,-0.8702,-0.2641,0.4145,-0.0307,0,0,0,0,-0.002,0.002,0
2018,4,25,17,30,24.656,-0.8703,-0.2641,0.4145,-0.0307,0,0,0,0.001,-0.001,0.004,0
2018,4,25,17,30,24.676,-0.8703,-0.2641,0.4145,-0.0307,0,0,0,0,0,0.004,0
2018,4,25,17,30,24.692,-0.8703,-0.2641,0.4145,-0.0307,0,0,0,-0.001,-0.001,0.001,0
2018,4,25,17,30,24.712,-0.8703,-0.2641,0.4145,-0.0307,0,0,0,0,0.001,0.001,0
2018,4,25,17,30,24.753,-0.8703,-0.2641,0.4145,-0.0307,0,0,0,-0.001,0,-0.002,0
2018,4,25,17,30,24.771,-0.8703,-0.2641,0.4145,-0.0307,0,0,0,-0.002,0,0.004,0
2018,4,25,17,30,24.776,-0.8703,-0.2641,0.4145,-0.0307,0,0,0,-0.002,0,0.003,0
2018,4,25,17,30,24.795,-0.8703,-0.2641,0.4145,-0.0307,0,0,0,0,-0.002,0.003,0
2018,4,25,17,30,24.816,-0.8703,-0.2641,0.4145,-0.0308,0,0,0,0,-0.001,0.002,0
2018,4,25,17,30,24.854,-0.8703,-0.2641,0.4145,-0.0308,0,0,0,-0.001,0,0.002,0
2018,4,25,17,30,24.876,-0.8703,-0.2641,0.4145,-0.0308,0,0,0,-0.002,0,-0.003,0
2018,4,25,17,30,24.88,-0.8703,-0.2641,0.4145,-0.0308,0,0,0,-0.002,0.002,0,0
2018,4,25,17,30,24.895,-0.8702,-0.2641,0.4145,-0.0308,0,0,0,-0.002,0.001,-0.002,0
2018,4,25,17,30,24.914,-0.8702,-0.2641,0.4145,-0.0308,0,0,0,0.003,0.006,-0.004,0
2018,4,25,17,30,24.934,-0.8702,-0.2642,0.4145,-0.0308,0,0,0,0,0.004,0,0
2018,4,25,17,30,24.971,-0.8703,-0.2641,0.4145,-0.0307,-1,-0.5,0.3,-0.002,0.003,-0.002,0
2018,4,25,17,30,24.991,-0.8704,-0.2639,0.4144,-0.0306,-1.5,-0.7,0.3,-0.003,-0.001,0.002,0
2018,4,25,17,30,24.996,-0.8704,-0.264,0.4142,-0.0305,-1.2,-0.4,0.2,-0.003,-0.001,0.006,0
2018,4,25,17,30,25.016,-0.8705,-0.2638,0.4142,-0.0304,-0.6,-0.1,0,0.001,-0.002,0.009,0
2018,4,25,17,30,25.036,-0.8705,-0.2637,0.4141,-0.0304,0.6,0,0,0.002,-0.006,0.003,0
2018,4,25,17,30,25.074,-0.8705,-0.2639,0.4141,-0.0305,1.5,0,0.1,0.001,-0.003,0.001,0
2018,4,25,17,30,25.094,-0.8704,-0.2641,0.4141,-0.0306,1.5,0,-0.1,-0.001,0,0.001,0
2018,4,25,17,30,25.098,-0.8704,-0.2643,0.4141,-0.0307,0.9,-0.1,-0.2,-0.003,0.006,-0.003,0
2018,4,25,17,30,25.116,-0.8703,-0.2644,0.4141,-0.0308,0,0,0,-0.003,0.01,0,0
2018,4,25,17,30,25.137,-0.8703,-0.2645,0.4142,-0.0307,-0.5,-0.2,0.1,-0.004,0.009,-0.004,0
2018,4,25,17,30,25.156,-0.8703,-0.2644,0.4141,-0.0306,-1,-0.1,0.2,-0.003,0,0.003,0
2018,4,25,17,30,25.194,-0.8704,-0.2642,0.4141,-0.0305,-1.1,-0.4,0.3,0,-0.001,0.001,0
2018,4,25,17,30,25.214,-0.8705,-0.264,0.414,-0.0304,-0.6,-0.2,0,0.001,0,0,0
2018,4,25,17,30,25.218,-0.8705,-0.264,0.414,-0.0304,0,0,0,0.003,-0.001,0.004,0
2018,4,25,17,30,25.255,-0.8705,-0.264,0.414,-0.0304,0,0,0,0.001,0,-0.002,0
2018,4,25,17,30,25.276,-0.8706,-0.264,0.414,-0.0304,0,0,0,0.002,0.002,0,0
2018,4,25,17,30,25.281,-0.8706,-0.264,0.4139,-0.0304,0,0,0,-0.001,0.003,0.001,0
2018,4,25,17,30,25.299,-0.8706,-0.2639,0.4139,-0.0304,0,0,0,0,0.001,0,0
2018,4,25,17,30,25.315,-0.8706,-0.2639,0.4139,-0.0304,0,0,0,-0.004,0,0.001,0
2018,4,25,17,30,25.337,-0.8706,-0.2638,0.4139,-0.0304,0,0,0,-0.003,0,0,0
2018,4,25,17,30,25.356,-0.8706,-0.2638,0.4139,-0.0305,0,0,0,-0.001,-0.001,0,0
2018,4,25,17,30,25.394,-0.8706,-0.2638,0.4139,-0.0304,0,0,0,0,-0.001,0,0
2018,4,25,17,30,25.414,-0.8706,-0.2638,0.4139,-0.0304,0,0,0,0,0.002,-0.001,0
2018,4,25,17,30,25.419,-0.8706,-0.2638,0.4139,-0.0304,0,0,0,0,0.003,-0.002,1023
2018,4,25,17,30,25.458,-0.8706,-0.2638,0.4139,-0.0304,0,0,0,-0.003,0.001,0,1023
2018,4,25,17,30,25.478,-0.8706,-0.2638,0.4139,-0.0305,0,0,0,-0.002,0,0,1023
2018,4,25,17,30,25.482,-0.8706,-0.2638,0.4139,-0.0305,0,0,0,-0.003,0.001,-0.003,1023
2018,4,25,17,30,25.519,-0.8707,-0.2638,0.4139,-0.0304,-0.1,-0.5,0.2,-0.004,0.005,-0.002,1023
2018,4,25,17,30,25.522,-0.8707,-0.2638,0.4138,-0.0304,0,0,0,0,0,0,1023
2018,4,25,17,30,25.539,-0.8707,-0.2638,0.4138,-0.0304,-0.6,0,0,0.001,0.002,-0.001,1023
2018,4,25,17,30,25.577,-0.8707,-0.2637,0.4138,-0.0303,-0.6,-0.1,0,0.003,-0.002,0.007,0
2018,4,25,17,30,25.578,-0.8708,-0.2636,0.4137,-0.0303,0,0,0,0.004,-0.001,0.002,0
2018,4,25,17,30,25.599,-0.8708,-0.2636,0.4137,-0.0303,0,0,0,0.002,0,-0.003,0
2018,4,25,17,30,25.618,-0.8708,-0.2636,0.4137,-0.0303,0,0,0,0,0,0.004,0
2018,4,25,17,30,25.639,-0.8708,-0.2636,0.4137,-0.0303,0,0,0,0.001,0.002,0,0
2018,4,25,17,30,25.662,-0.8708,-0.2636,0.4137,-0.0303,0,0,0,0,0.002,0.002,0
2018,4,25,17,30,25.682,-0.8708,-0.2636,0.4136,-0.0303,0,0,0,0,0.002,0.004,0
2018,4,25,17,30,25.701,-0.8708,-0.2636,0.4137,-0.0303,0,0,0,0,0.002,0.002,0
2018,4,25,17,30,25.721,-0.8708,-0.2636,0.4137,-0.0303,0,0,0,0,0.001,-0.002,0
2018,4,25,17,30,25.759,-0.8708,-0.2636,0.4136,-0.0303,-0.5,0,0,-0.002,0.003,0,0
2018,4,25,17,30,25.779,-0.8708,-0.2636,0.4136,-0.0303,0,0,0,0.002,0.001,0.005,0
2018,4,25,17,30,25.783,-0.8709,-0.2636,0.4136,-0.0303,0,0,0,0,0.001,0.005,0
2018,4,25,17,30,25.799,-0.8709,-0.2636,0.4136,-0.0303,0,0,0,-0.001,0.001,0,0
2018,4,25,17,30,25.837,-0.8709,-0.2635,0.4136,-0.0303,0,0,0,0,-0.003,-0.003,0
2018,4,25,17,30,25.857,-0.8709,-0.2635,0.4136,-0.0303,0,0,0,0,0.001,-0.003,0
2018,4,25,17,30,25.861,-0.8709,-0.2635,0.4136,-0.0303,0,0,0,-0.003,0.001,0.002,0
2018,4,25,17,30,25.88,-0.8709,-0.2635,0.4136,-0.0303,0,0,0,0.003,0.003,-0.004,0
2018,4,25,17,30,25.9,-0.8709,-0.2636,0.4136,-0.0303,0,0,0,0,0.004,-0.001,0
2018,4,25,17,30,25.937,-0.8709,-0.2636,0.4136,-0.0303,0,0,0,0,0.002,0.001,0
2018,4,25,17,30,25.958,-0.8709,-0.2636,0.4136,-0.0303,0,0,0,-0.005,0.003,-0.002,0
2018,4,25,17,30,25.962,-0.871,-0.2635,0.4135,-0.0302,-1.1,-0.5,0.2,-0.002,0,0.007,0
2018,4,25,17,30,26.001,-0.8711,-0.2633,0.4133,-0.0301,-1.2,-0.4,0,0,0,0.006,0
2018,4,25,17,30,26.005,-0.8712,-0.2631,0.4132,-0.0301,-0.6,-0.1,0,0,-0.004,0.008,0
2018,4,25,17,30,26.02,-0.8712,-0.263,0.4132,-0.0301,0,0,0,0.004,-0.006,0.007,0
2018,4,25,17,30,26.039,-0.8712,-0.2631,0.4132,-0.0302,1.3,0,0.1,0.001,-0.005,0,0
2018,4,25,17,30,26.078,-0.8711,-0.2633,0.4132,-0.0303,1.2,0.2,-0.1,0.001,-0.003,-0.001,0
2018,4,25,17,30,26.099,-0.8711,-0.2634,0.4133,-0.0304,0.7,0.1,-0.1,0,0.008,0.004,0
2018,4,25,17,30,26.102,-0.871,-0.2635,0.4133,-0.0304,0,0,0,-0.002,0.008,0.003,0
2018,4,25,17,30,26.139,-0.871,-0.2636,0.4133,-0.0304,0,0,0,-0.003,0.009,0,0
2018,4,25,17,30,26.159,-0.871,-0.2636,0.4133,-0.0303,-0.5,-0.2,0.2,-0.001,0.002,0.002,0
2018,4,25,17,30,26.163,-0.8711,-0.2635,0.4132,-0.0302,-0.6,0,0.2,-0.001,0.001,0.002,0
2018,4,25,17,30,26.202,-0.871,-0.2636,0.4132,-0.0302,0,0,0,0.002,-0.001,0,0
2018,4,25,17,30,26.207,-0.8711,-0.2636,0.4132,-0.0302,0,0,0,0.005,0,0,0
2018,4,25,17,30,26.222,-0.8711,-0.2636,0.4131,-0.0302,0,0,0,0.005,0,0.005,0
2018,4,25,17,30,26.241,-0.8711,-0.2636,0.4131,-0.0301,0,0,0,0.002,0.001,0.003,0
2018,4,25,17,30,26.26,-0.8711,-0.2635,0.413,-0.0302,-0.6,-0.1,-0.2,0,0.002,0.006,0
2018,4,25,17,30,26.299,-0.8712,-0.2635,0.413,-0.0302,0,0,0,-0.001,0,0.005,0
2018,4,25,17,30,26.321,-0.8712,-0.2635,0.413,-0.0302,0,0,0,-0.003,0.001,0,0
2018,4,25,17,30,26.325,-0.8712,-0.2634,0.413,-0.0302,0,0,0,0,-0.001,0.003,0
2018,4,25,17,30,26.346,-0.8712,-0.2634,0.413,-0.0302,0,0,0,0,-0.001,0.003,0
2018,4,25,17,30,26.365,-0.8712,-0.2634,0.413,-0.0302,0,0,0,0,-0.001,0,1023
2018,4,25,17,30,26.404,-0.8712,-0.2634,0.413,-0.0302,0,0,0,0,0.001,0.002,1023
2018,4,25,17,30,26.422,-0.8712,-0.2634,0.413,-0.0302,0,0,0,0,0.001,-0.004,1023
2018,4,25,17,30,26.427,-0.8712,-0.2634,0.413,-0.0302,0,0,0,0,0.001,-0.003,1023
2018,4,25,17,30,26.443,-0.8712,-0.2634,0.413,-0.0302,0,0,0,-0.006,0.002,0,1023
2018,4,25,17,30,26.463,-0.8712,-0.2634,0.413,-0.0302,0,0,0,-0.003,0.002,0.005,1023
2018,4,25,17,30,26.482,-0.8712,-0.2634,0.413,-0.0302,0,0,0,-0.001,0.001,0,1023
2018,4,25,17,30,26.519,-0.8712,-0.2634,0.413,-0.0302,0,0,0,0,0.003,-0.001,1023
2018,4,25,17,30,26.54,-0.8712,-0.2634,0.413,-0.0302,0,0,0,0.003,0.001,0.001,0
2018,4,25,17,30,26.544,-0.8712,-0.2634,0.413,-0.0302,0,0,0,0,0.002,0.005,0
2018,4,25,17,30,26.565,-0.8712,-0.2634,0.4129,-0.0302,0,0,0,0,0.001,0.002,0
2018,4,25,17,30,26.586,-0.8712,-0.2634,0.4129,-0.0302,0,0,0,0.003,-0.001,-0.001,0
2018,4,25,17,30,26.623,-0.8712,-0.2634,0.4129,-0.0302,0,0,0,0,0,0.002,0
2018,4,25,17,30,26.643,-0.8713,-0.2634,0.4129,-0.0302,0,0,0,0,0.001,0.006,0
2018,4,25,17,30,26.648,-0.8713,-0.2634,0.4129,-0.0302,0,0,0,0,0.001,0,0
2018,4,25,17,30,26.667,-0.8713,-0.2634,0.4129,-0.0302,0,0,0,0.002,0,-0.001,0
2018,4,25,17,30,26.687,-0.8713,-0.2634,0.4129,-0.0302,0,0,0,0,0,-0.002,0
2018,4,25,17,30,26.723,-0.8713,-0.2634,0.4129,-0.0302,0,0,0,-0.003,0.001,-0.001,0
2018,4,25,17,30,26.744,-0.8713,-0.2634,0.4129,-0.0302,0,0,0,0.001,0.001,0.005,0
2018,4,25,17,30,26.748,-0.8713,-0.2634,0.4129,-0.0302,0,0,0,-0.004,0,0.002,0
2018,4,25,17,30,26.767,-0.8713,-0.2633,0.4129,-0.0302,0,0,0,-0.002,0.001,0.003,0
2018,4,25,17,30,26.786,-0.8713,-0.2633,0.4129,-0.0302,0,0,0,-0.005,0.002,-0.001,0
2018,4,25,17,30,26.805,-0.8713,-0.2633,0.4129,-0.0302,0,0,0,-0.001,0,-0.001,0
2018,4,25,17,30,26.826,-0.8713,-0.2633,0.4129,-0.0302,0,0,0,0.003,-0.001,0,0
2018,4,25,17,30,26.848,-0.8713,-0.2633,0.4129,-0.0302,0,0,0,0,0,0,0
2018,4,25,17,30,26.865,-0.8712,-0.2634,0.4129,-0.0302,0,0,0,-0.004,0,-0.004,0
2018,4,25,17,30,26.887,-0.8712,-0.2634,0.413,-0.0302,0,0,0,-0.001,0.004,-0.004,0
2018,4,25,17,30,26.906,-0.8712,-0.2634,0.4129,-0.0302,0,0,0,0.001,0.005,0.001,0
2018,4,25,17,30,26.926,-0.8712,-0.2635,0.4129,-0.0301,0,0,0,0,0.002,-0.004,0
2018,4,25,17,30,26.947,-0.8712,-0.2634,0.4129,-0.0301,-0.9,-0.2,0,-0.004,0,0.001,0
2018,4,25,17,30,26.966,-0.8713,-0.2632,0.4128,-0.03,-1.1,-0.2,0.1,-0.003,-0.001,0.005,0
2018,4,25,17,30,26.986,-0.8714,-0.2631,0.4128,-0.03,-0.5,0.1,0.1,-0.003,-0.003,0.005,0
2018,4,25,17,30,27.026,-0.8714,-0.263,0.4128,-0.03,0,0,0,0.001,-0.006,0.002,1023
2018,4,25,17,30,27.046,-0.8714,-0.263,0.4128,-0.03,0.9,0.3,0,0,-0.007,-0.003,1023
2018,4,25,17,30,27.05,-0.8713,-0.2632,0.4129,-0.0301,1.5,0.3,0,0,-0.002,-0.003,1023
2018,4,25,17,30,27.071,-0.8712,-0.2634,0.413,-0.0302,1.3,0.3,-0.1,-0.001,0,-0.002,1023
2018,4,25,17,30,27.109,-0.8711,-0.2636,0.4131,-0.0303,0.8,0.1,0,-0.004,0.009,-0.005,1023
2018,4,25,17,30,27.128,-0.871,-0.2638,0.4131,-0.0303,0,0,0,-0.002,0.008,-0.004,1023
2018,4,25,17,30,27.132,-0.871,-0.2638,0.4131,-0.0303,0,0,0,-0.004,0.007,0,0
2018,4,25,17,30,27.149,-0.871,-0.2639,0.4131,-0.0303,-0.5,0.1,0.3,-0.003,0.002,0,0
2018,4,25,17,30,27.186,-0.871,-0.2638,0.4131,-0.0302,-0.6,0.1,0,-0.002,0.002,0.001,0
2018,4,25,17,30,27.207,-0.871,-0.2637,0.4132,-0.0302,0,0,0,0.001,-0.004,-0.003,0
2018,4,25,17,30,27.211,-0.871,-0.2637,0.4132,-0.0302,0,0,0,0.004,0,0.003,0
2018,4,25,17,30,27.231,-0.871,-0.2637,0.4131,-0.0301,0,0,0,0.002,0.004,0.001,0
2018,4,25,17,30,27.251,-0.8711,-0.2637,0.4131,-0.0301,0,0,0,-0.002,0.002,0.002,0
2018,4,25,17,30,27.272,-0.8711,-0.2637,0.4131,-0.0301,0,0,0,-0.003,0.002,0.004,1023
2018,4,25,17,30,27.289,-0.8711,-0.2637,0.4131,-0.0302,0.1,0.2,-0.5,-0.002,0,-0.001,1023
2018,4,25,17,30,27.309,-0.8711,-0.2636,0.4131,-0.0302,0,0,0,-0.003,0.001,0,1023
2018,4,25,17,30,27.349,-0.871,-0.2636,0.4132,-0.0302,0.6,0.4,-0.2,-0.002,0,-0.002,1023
2018,4,25,17,30,27.369,-0.871,-0.2637,0.4133,-0.0303,0.4,0.6,-0.2,0,0,-0.001,0
2018,4,25,17,30,27.373,-0.8709,-0.2637,0.4134,-0.0303,0.4,0.7,-0.2,0,0,-0.002,0
2018,4,25,17,30,27.39,-0.8708,-0.2638,0.4135,-0.0303,0,0,0,0,0.003,-0.002,0
2018,4,25,17,30,27.427,-0.8708,-0.2639,0.4135,-0.0303,0,0,0,-0.001,0.001,0.002,0
2018,4,25,17,30,27.449,-0.8708,-0.2639,0.4136,-0.0304,0,0,0,-0.003,0,-0.002,0
2018,4,25,17,30,27.453,-0.8708,-0.2639,0.4136,-0.0304,0,0,0,-0.003,0,0.001,0
2018,4,25,17,30,27.471,-0.8707,-0.2639,0.4136,-0.0304,0,0,0,-0.004,0.001,-0.005,0
2018,4,25,17,30,27.491,-0.8707,-0.2639,0.4136,-0.0304,0,0,0,-0.001,0.001,-0.004,0
2018,4,25,17,30,27.513,-0.8707,-0.264,0.4137,-0.0304,0,0,0,-0.002,0,0,0
2018,4,25,17,30,27.531,-0.8707,-0.264,0.4137,-0.0304,0,0,0,-0.004,0.002,0,0
2018,4,25,17,30,27.569,-0.8707,-0.264,0.4137,-0.0304,0,0,0,-0.002,0.001,-0.001,0
2018,4,25,17,30,27.589,-0.8707,-0.264,0.4137,-0.0304,0,0,0,-0.002,0,0,0
2018,4,25,17,30,27.593,-0.8707,-0.2639,0.4137,-0.0304,0,0,0,0.001,0,0.001,0
2018,4,25,17,30,27.61,-0.8707,-0.2639,0.4137,-0.0304,0,0,0,0.001,0,-0.001,0
2018,4,25,17,30,27.629,-0.8707,-0.2639,0.4137,-0.0304,0,0,0,0,0,0.004,0
2018,4,25,17,30,27.65,-0.8707,-0.2639,0.4137,-0.0304,0,0,0,-0.003,0,0.004,0
2018,4,25,17,30,27.688,-0.8707,-0.2639,0.4137,-0.0304,0,0,0,0,-0.002,0.002,0
2018,4,25,17,30,27.709,-0.8707,-0.2639,0.4137,-0.0304,0,0,0,-0.003,0.002,-0.002,0
2018,4,25,17,30,27.713,-0.8707,-0.2639,0.4137,-0.0304,0,0,0,0,0,0,0
2018,4,25,17,30,27.732,-0.8707,-0.2639,0.4138,-0.0304,0,0,0,-0.003,0.003,0.002,0
2018,4,25,17,30,27.752,-0.8707,-0.2639,0.4138,-0.0304,0,0,0,-0.002,-0.001,0.002,1023
2018,4,25,17,30,27.772,-0.8707,-0.2639,0.4138,-0.0304,0,0,0,-0.004,0.001,0,0
2018,4,25,17,30,27.795,-0.8707,-0.2639,0.4138,-0.0304,0,0,0,-0.004,-0.004,-0.004,0
2018,4,25,17,30,27.815,-0.8706,-0.2639,0.4139,-0.0304,0,0,0,-0.004,0.004,-0.005,0
2018,4,25,17,30,27.832,-0.8706,-0.2639,0.4139,-0.0303,-0.5,0,0.3,0.001,0.005,-0.003,0
2018,4,25,17,30,27.852,-0.8706,-0.2639,0.4139,-0.0302,-1.1,0.4,-0.1,0.019,0.019,-0.006,0
2018,4,25,17,30,27.891,-0.8706,-0.2639,0.4139,-0.0299,-1.8,1.4,-0.8,0.019,0.017,-0.003,0
2018,4,25,17,30,27.91,-0.8706,-0.2636,0.4141,-0.0298,-2.6,2,-1.7,0.027,0.019,0,0
2018,4,25,17,30,27.914,-0.8707,-0.2632,0.4143,-0.0296,-3.7,2.1,-2.6,0.027,0.023,0.007,0
2018,4,25,17,30,27.934,-0.8708,-0.2625,0.4146,-0.0295,-4.8,2.5,-3.4,0.029,0.02,0.007,0
2018,4,25,17,30,27.954,-0.8709,-0.2615,0.4149,-0.0294,-5.6,2.6,-4.1,0.03,0.022,0.009,0
2018,4,25,17,30,27.992,-0.871,-0.2604,0.4153,-0.0293,-6.7,2.9,-5,0.029,0.022,0.011,0
2018,4,25,17,30,28.014,-0.8711,-0.2592,0.4159,-0.0294,-7.2,3.8,-6.9,0.033,0.022,0,0
2018,4,25,17,30,28.017,-0.8711,-0.2577,0.4168,-0.0298,-6.6,5,-10.1,0.047,0.029,-0.008,0
2018,4,25,17,30,28.031,-0.8709,-0.2563,0.4179,-0.0306,-5.4,6.4,-14.9,0.07,0.048,-0.02,0
2018,4,25,17,30,28.05,-0.8706,-0.2551,0.4192,-0.0323,-1.7,7.2,-20.5,0.093,0.074,0.007,0
2018,4,25,17,30,28.071,-0.8698,-0.2542,0.4211,-0.0357,7.9,6.2,-26.6,0.119,0.077,0.05,0
2018,4,25,17,30,28.094,-0.8686,-0.2538,0.4233,-0.0409,15,6.2,-33.4,0.157,0.098,0.084,0
2018,4,25,17,30,28.113,-0.8672,-0.2538,0.4256,-0.0476,20,4.1,-40.2,0.18,0.089,0.124,1023
2018,4,25,17,30,28.151,-0.8655,-0.254,0.4278,-0.0558,24,1.8,-47.1,0.183,0.057,0.133,1023
2018,4,25,17,30,28.17,-0.8638,-0.2542,0.4298,-0.0654,28.2,-1.3,-53.2,0.203,0.017,0.119,1023
2018,4,25,17,30,28.173,-0.862,-0.2543,0.4316,-0.0763,29.3,-3.7,-61.5,0.227,-0.002,0.086,1023
2018,4,25,17,30,28.21,-0.8601,-0.2535,0.4334,-0.0885,26.9,-4.1,-69.7,0.24,-0.009,0.067,1023
2018,4,25,17,30,28.231,-0.8581,-0.2516,0.4358,-0.1017,22.4,-2.6,-78.5,0.24,-0.017,0.046,1023
2018,4,25,17,30,28.234,-0.8559,-0.248,0.4387,-0.1155,14.9,-1.6,-85,0.259,-0.002,-0.008,1023
2018,4,25,17,30,28.272,-0.8536,-0.2429,0.4421,-0.1293,6.5,0.6,-87.9,0.271,0.005,-0.04,1023
2018,4,25,17,30,28.293,-0.8511,-0.2366,0.4462,-0.1426,0.6,5.1,-88.3,0.244,0.006,-0.051,1023
2018,4,25,17,30,28.296,-0.8485,-0.2302,0.4504,-0.155,0.4,12.5,-88.2,0.197,-0.015,-0.076,0
2018,4,25,17,30,28.312,-0.8446,-0.2242,0.4562,-0.1676,5.5,24.2,-91.7,0.153,-0.008,-0.056,0
2018,4,25,17,30,28.332,-0.8388,-0.2191,0.4639,-0.1816,19.8,40.8,-102.8,0.082,-0.033,0.04,0
2018,4,25,17,30,28.368,-0.8306,-0.2152,0.4734,-0.1985,35.6,51.7,-120.1,-0.03,0.001,0.121,0
2018,4,25,17,30,28.388,-0.8205,-0.2117,0.4836,-0.2187,39.8,50.7,-139.3,-0.242,0.156,0.197,0
2018,4,25,17,30,28.395,-0.8102,-0.2065,0.4931,-0.2401,38.3,38.6,-136.6,-0.1,-0.015,0.184,0
2018,4,25,17,30,28.434,-0.8006,-0.2029,0.4994,-0.2614,52.2,20.9,-124.6,-0.059,0.075,0.221,0
2018,4,25,17,30,28.453,-0.7921,-0.2004,0.5026,-0.2822,48.2,3.1,-111.8,0,0.17,0.195,0
2018,4,25,17,30,28.454,-0.7864,-0.1953,0.5037,-0.2994,16.8,-16.9,-95.8,-0.03,0.114,0.153,0
2018,4,25,17,30,28.49,-0.7841,-0.1863,0.5027,-0.3124,-13.8,-36.5,-78.8,0.039,0.22,0.036,0
2018,4,25,17,30,28.511,-0.7854,-0.1723,0.5008,-0.32,-63.9,-52.3,-64.4,0.118,0.278,-0.096,0
2018,4,25,17,30,28.515,-0.7893,-0.1519,0.4996,-0.3226,-102.9,-59.3,-60.5,0.19,0.181,-0.086,0
2018,4,25,17,30,28.534,-0.7936,-0.1271,0.4998,-0.3225,-126.6,-53.4,-64.9,0.248,0.137,0.014,0
2018,4,25,17,30,28.553,-0.7965,-0.1001,0.5021,-0.3215,-133.2,-39.6,-74,0.32,0.142,0.078,0
2018,4,25,17,30,28.594,-0.7964,-0.0733,0.5066,-0.3219,-123.4,-18.4,-89.3,0.417,0.18,0.062,0
2018,4,25,17,30,28.614,-0.7923,-0.0492,0.5131,-0.3262,-89.9,8,-109.4,0.532,0.145,0,0
2018,4,25,17,30,28.618,-0.7837,-0.0317,0.5203,-0.3374,-21.4,34.8,-130.3,0.661,0.029,0.083,0
2018,4,25,17,30,28.639,-0.7708,-0.0253,0.5255,-0.359,73.8,54.8,-152.7,0.839,0.028,0.262,0
2018,4,25,17,30,28.66,-0.7537,-0.0297,0.5266,-0.3919,153.7,62.8,-180.9,1.144,0.397,0.449,0
2018,4,25,17,30,28.679,-0.7334,-0.0393,0.5225,-0.433,192.3,47,-203.1,1.519,0.674,0.417,0
2018,4,25,17,30,28.701,-0.7123,-0.0489,0.5121,-0.4773,214.6,15.1,-209,2.017,0.526,-0.004,0
2018,4,25,17,30,28.72,-0.6922,-0.0603,0.4929,-0.5235,262,-17.4,-199.6,2.324,0.474,-0.406,0
2018,4,25,17,30,28.735,-0.6746,-0.0762,0.4631,-0.5697,307.1,-50.7,-157.2,2.236,0.669,-0.921,0
2018,4,25,17,30,28.774,-0.6625,-0.0949,0.4261,-0.6086,284.5,-71.3,-92.7,1.977,0.414,-0.902,0
2018,4,25,17,30,28.795,-0.6579,-0.1249,0.3583,-0.6504,181.5,-102.1,63,0.686,-0.984,-0.62,0
2018,4,25,17,30,28.799,-0.6759,-0.1305,0.3332,-0.6441,-29.3,-102.6,151.6,-1.225,-1.766,-0.224,0
2018,4,25,17,30,28.837,-0.7008,-0.1023,0.3395,-0.6188,-335,-102.6,100.1,-1.909,-2.1,-1.316,0
2018,4,25,17,30,28.856,-0.7227,-0.0293,0.3092,-0.6173,20.7,-666.4,-236.2,-3.051,1.014,3.889,0
2018,4,25,17,30,28.86,-0.7336,0.0409,0.2602,-0.6263,-260.7,-422.1,-173.3,-0.682,1.071,0.075,1023
2018,4,25,17,30,28.879,-0.735,0.0946,0.2207,-0.634,10,-310.3,-46.6,-2.129,1.602,0,1023
2018,4,25,17,30,28.9,-0.7387,0.1367,0.1932,-0.631,-172.8,-255.6,-75.4,0.155,-0.026,1.41,1023
2018,4,25,17,30,28.92,-0.7247,0.198,0.1949,-0.6305,-327.8,-102.4,-138.2,0.721,0.827,-1.028,1023
2018,4,25,17,30,28.943,-0.696,0.2328,0.2248,-0.6408,-167.1,143,-151.5,0.667,0.062,-1.532,1023
2018,4,25,17,30,28.962,-0.6686,0.2303,0.2493,-0.6615,-130.1,165,-144.6,0.383,1.355,1.436,1023
2018,4,25,17,30,29,-0.6377,0.2506,0.2902,-0.6679,-305.7,102.2,-106.7,-0.35,-0.45,-0.12,1023
2018,4,25,17,30,29.004,-0.6103,0.2735,0.3212,-0.6704,-193.5,38.3,-103.3,-0.424,-0.89,-0.332,1023
2018,4,25,17,30,29.02,-0.591,0.2983,0.336,-0.6698,-168.7,-47.3,-80.4,-0.379,0.179,-0.279,0
2018,4,25,17,30,29.041,-0.5818,0.3237,0.3434,-0.6622,-99,-69,-22.6,-0.056,-0.043,-0.669,0
2018,4,25,17,30,29.06,-0.5799,0.337,0.3445,-0.6567,-47.6,-39.3,-8,0.141,-0.03,-0.045,0
2018,4,25,17,30,29.095,-0.5785,0.3458,0.3476,-0.6518,-52.9,-18.9,5.3,0.231,0.08,0.321,0
2018,4,25,17,30,29.117,-0.5763,0.3526,0.3538,-0.6467,-73.5,-4.9,8.6,0.266,0.003,-0.043,0
2018,4,25,17,30,29.121,-0.5724,0.3593,0.3632,-0.6412,-65.1,9.4,7.3,0.233,-0.19,-0.413,0
2018,4,25,17,30,29.159,-0.5677,0.3634,0.3708,-0.6387,-61.2,19.4,-12.8,0.066,-0.034,-0.169,0
2018,4,25,17,30,29.179,-0.5578,0.3703,0.3823,-0.6367,-113.4,38.1,-25.9,-0.122,-0.137,-0.342,0
2018,4,25,17,30,29.183,-0.5401,0.3806,0.403,-0.6331,-188,76.5,-32.9,-0.071,0.226,-0.592,0
2018,4,25,17,30,29.204,-0.519,0.3906,0.4291,-0.6275,-152.9,79,-11.9,0.303,0.273,-0.217,0
2018,4,25,17,30,29.223,-0.5114,0.3897,0.4424,-0.6251,18.4,30.8,33.7,0.216,-0.279,0.829,0
2018,4,25,17,30,29.239,-0.5166,0.3817,0.4419,-0.6261,14.3,7.8,29,-0.067,0,0.434,0
2018,4,25,17,30,29.259,-0.5173,0.3815,0.445,-0.6234,-27.9,-4.1,6.5,-0.139,-0.063,-0.131,0
2018,4,25,17,30,29.279,-0.5168,0.3842,0.4464,-0.6211,-18.8,-11.7,-2.3,-0.036,0.202,0.039,0
2018,4,25,17,30,29.318,-0.5164,0.3873,0.4473,-0.6189,-29.6,-11.5,2.6,0.075,-0.02,0.008,0
2018,4,25,17,30,29.338,-0.5152,0.3906,0.4503,-0.6156,-29,-1.7,6.4,0.121,-0.111,-0.149,0
2018,4,25,17,30,29.342,-0.5139,0.3922,0.4535,-0.6133,-18.9,4.8,3,0.04,-0.057,-0.134,0
2018,4,25,17,30,29.363,-0.5124,0.3931,0.4556,-0.6125,-3.7,4.4,-0.7,0,-0.01,-0.041,0
2018,4,25,17,30,29.402,-0.5125,0.3927,0.4557,-0.6126,6.6,-1.6,3.2,0.003,0.031,0.018,0
2018,4,25,17,30,29.422,-0.514,0.3919,0.4546,-0.6126,7.9,-5.9,6.3,0,0.006,0.024,0
2018,4,25,17,30,29.426,-0.5157,0.3916,0.4536,-0.6122,9.9,-7.7,4.7,-0.001,-0.025,-0.062,0
2018,4,25,17,30,29.439,-0.5174,0.3912,0.4521,-0.6121,19,-7.9,3.9,0.017,-0.023,-0.092,0
2018,4,25,17,30,29.477,-0.5197,0.3901,0.4494,-0.6128,28.1,-6.5,4.1,0.017,-0.001,-0.066,0
2018,4,25,17,30,29.497,-0.5226,0.3877,0.4459,-0.6144,31.2,-4.9,4.3,0.006,0.035,0.01,0
2018,4,25,17,30,29.502,-0.5255,0.385,0.4423,-0.6163,25.4,-3.9,3.7,0.01,0.051,0.06,0
2018,4,25,17,30,29.523,-0.5277,0.3831,0.4397,-0.6175,10.6,-5,2.2,-0.004,0.076,0.076,0
2018,4,25,17,30,29.544,-0.5289,0.383,0.4383,-0.6175,-0.1,-8.1,0.7,0,0.037,0.033,0
2018,4,25,17,30,29.581,-0.5294,0.3841,0.4376,-0.6168,-9.3,-8.2,0.3,0.014,0.063,0.039,1023
2018,4,25,17,30,29.601,-0.5292,0.3862,0.438,-0.6155,-14.1,-7.6,-0.2,0.026,0.01,-0.012,1023
2018,4,25,17,30,29.606,-0.5286,0.3884,0.4388,-0.614,-10.5,-5.6,0.6,0.037,-0.014,-0.043,1023
2018,4,25,17,30,29.625,-0.5281,0.39,0.4394,-0.613,-4,-1.7,2,0.033,-0.004,-0.06,1023
2018,4,25,17,30,29.661,-0.528,0.3902,0.4396,-0.6128,5.4,1.4,3.6,0.019,-0.003,-0.019,1023
2018,4,25,17,30,29.683,-0.5287,0.389,0.4391,-0.6133,7.8,2.5,2.9,0.02,-0.012,-0.005,1023
2018,4,25,17,30,29.687,-0.5293,0.3885,0.4389,-0.6133,0.3,-3,2.7,-0.007,0.022,-0.023,1023
2018,4,25,17,30,29.704,-0.5298,0.3889,0.4387,-0.6127,1.4,-5.3,2.5,-0.048,0.01,-0.014,1023
2018,4,25,17,30,29.724,-0.5307,0.3888,0.4382,-0.6124,-0.6,-1.6,2.2,0.07,-0.003,-0.003,0
2018,4,25,17,30,29.763,-0.5305,0.3899,0.4386,-0.6116,-7.1,-2.8,4.5,0.026,-0.006,-0.031,0
2018,4,25,17,30,29.767,-0.5304,0.3905,0.4396,-0.6105,-4.5,0.4,3.7,0.013,-0.006,-0.046,0
2018,4,25,17,30,29.786,-0.5305,0.3903,0.4404,-0.61,2.1,2.8,2.2,-0.069,0.069,-0.018,0
2018,4,25,17,30,29.822,-0.5301,0.3899,0.4407,-0.6103,-3.7,4.9,-0.2,0.049,-0.019,0,0
2018,4,25,17,30,29.843,-0.529,0.3904,0.4418,-0.6102,-9.9,4,1.6,0.056,-0.002,-0.018,0
2018,4,25,17,30,29.847,-0.5288,0.391,0.443,-0.6092,-5,-3.4,4.9,-0.049,0.053,-0.012,0
2018,4,25,17,30,29.883,-0.529,0.3918,0.4439,-0.6078,-6.2,-5.2,2,-0.015,-0.018,-0.038,0
2018,4,25,17,30,29.905,-0.5291,0.393,0.4442,-0.6067,-5.3,-5.5,1.6,0.02,-0.006,-0.031,0
2018,4,25,17,30,29.909,-0.5292,0.3941,0.4444,-0.6058,-4.2,-4.5,1.8,0.014,0.003,-0.029,0
2018,4,25,17,30,29.924,-0.5295,0.3948,0.4446,-0.6049,-3.9,-5.5,1.9,-0.018,0.011,0.007,0
2018,4,25,17,30,29.962,-0.5298,0.3958,0.4448,-0.6039,-7.7,-7.4,1,-0.009,0.013,-0.002,0
2018,4,25,17,30,29.981,-0.5298,0.3975,0.4452,-0.6025,-11.2,-7.4,1.2,0.022,0.009,-0.024,0
2018,4,25,17,30,29.985,-0.5293,0.3995,0.4459,-0.601,-12.6,-4.9,1.6,0.039,-0.006,-0.025,0
2018,4,25,17,30,30.006,-0.5286,0.4012,0.447,-0.5997,-11.1,-1.2,1.3,0.034,-0.014,-0.033,0
2018,4,25,17,30,30.026,-0.528,0.4022,0.4479,-0.5988,-5.8,0,1.1,0.015,0.003,-0.024,0
2018,4,25,17,30,30.048,-0.5277,0.4027,0.4484,-0.5984,-3.6,-0.1,0.5,0.002,0.016,-0.001,0
2018,4,25,17,30,30.067,-0.5275,0.4031,0.4489,-0.598,-5.6,-1.1,0,-0.003,0.025,-0.004,0
2018,4,25,17,30,30.106,-0.5271,0.4039,0.4495,-0.5974,-7.9,-1.3,0,0.01,0.007,-0.011,0
2018,4,25,17,30,30.125,-0.5264,0.4049,0.4502,-0.5967,-8.5,0,-0.1,0.024,0.001,-0.017,0
2018,4,25,17,30,30.129,-0.5256,0.4058,0.4511,-0.5961,-6,0.9,-0.3,0.016,0.004,-0.024,0
2018,4,25,17,30,30.146,-0.5251,0.4063,0.4516,-0.5959,-1.9,0.1,-0.7,-0.003,0,-0.018,0
2018,4,25,17,30,30.183,-0.5249,0.4065,0.4517,-0.5958,-2.6,-0.5,-1.5,-0.003,0.02,0,0
2018,4,25,17,30,30.203,-0.5248,0.4069,0.452,-0.5954,-6.5,-2.4,-0.2,-0.036,0.084,0.025,0
2018,4,25,17,30,30.207,-0.5237,0.4083,0.4528,-0.5949,-12.7,-1,-1.2,0.053,-0.012,-0.01,0
2018,4,25,17,30,30.227,-0.5228,0.4096,0.4538,-0.5939,-9.7,-1,0,0,-0.004,-0.027,0
2018,4,25,17,30,30.248,-0.522,0.4107,0.4546,-0.5933,-5,0.9,-1,0.02,0.006,-0.031,0
2018,4,25,17,30,30.285,-0.5214,0.4111,0.4551,-0.5932,-2.8,2,-1,0.011,-0.001,-0.022,1023
2018,4,25,17,30,30.306,-0.5209,0.4113,0.4554,-0.5933,-1.2,2.1,-0.8,0.007,0.011,-0.001,1023
2018,4,25,17,30,30.31,-0.5205,0.4114,0.4556,-0.5934,-2.1,1.1,-0.4,0.005,0.015,-0.006,1023
2018,4,25,17,30,30.33,-0.5201,0.4116,0.456,-0.5932,-3.9,0.6,-0.5,0.002,0.015,-0.015,1023
2018,4,25,17,30,30.349,-0.5197,0.412,0.4563,-0.593,-2.7,0.8,-0.4,0.007,0.008,-0.013,1023
2018,4,25,17,30,30.367,-0.5193,0.4123,0.4567,-0.593,-2.1,1.6,-0.8,0.01,0.005,-0.015,1023
2018,4,25,17,30,30.387,-0.5187,0.4124,0.457,-0.5931,-2,2.6,-1.2,0.007,0.014,-0.007,1023
2018,4,25,17,30,30.407,-0.5183,0.4125,0.4573,-0.5932,-1.6,1.6,-0.7,0.004,0.013,-0.007,0
2018,4,25,17,30,30.427,-0.5179,0.4127,0.4577,-0.5932,-3.7,1.4,-0.4,0.006,0.018,-0.006,0
2018,4,25,17,30,30.448,-0.5174,0.4131,0.4582,-0.5929,-4.9,1.4,-0.1,0.007,0.008,-0.011,0
2018,4,25,17,30,30.471,-0.5168,0.4134,0.4589,-0.5927,-4.5,2.2,-0.6,0.008,0.005,-0.014,0
2018,4,25,17,30,30.49,-0.5161,0.4137,0.4595,-0.5926,-3.1,2,-0.7,0.001,0.01,-0.009,0
2018,4,25,17,30,30.509,-0.5157,0.4138,0.4598,-0.5926,-1,1.2,-0.5,0.002,0.008,-0.011,0
2018,4,25,17,30,30.544,-0.5155,0.4139,0.46,-0.5926,-1.8,0.8,-0.7,0.003,0.014,-0.005,0
2018,4,25,17,30,30.549,-0.5151,0.4142,0.4603,-0.5925,-3.8,0.6,-0.6,0.006,0.009,-0.011,0
2018,4,25,17,30,30.586,-0.5146,0.4146,0.4607,-0.5923,-3.8,1,-0.5,0.01,0.006,-0.013,0
2018,4,25,17,30,30.588,-0.5141,0.4149,0.4612,-0.5921,-2.7,1.5,-0.6,0.004,0.011,-0.018,0
2018,4,25,17,30,30.606,-0.5138,0.4151,0.4615,-0.5921,-1.1,0.8,-0.5,0.01,0.004,-0.013,0
2018,4,25,17,30,30.643,-0.5135,0.4152,0.4616,-0.5921,-0.3,0.6,0,0.01,0.007,-0.006,0
2018,4,25,17,30,30.663,-0.5134,0.4152,0.4617,-0.5921,-0.5,1.1,0,0.007,0.007,-0.005,0
2018,4,25,17,30,30.667,-0.5132,0.4152,0.4619,-0.5922,-0.7,1.3,0,0.005,0.013,-0.008,0
2018,4,25,17,30,30.704,-0.5129,0.4152,0.4622,-0.5922,-1.2,1.8,-0.1,0.004,0.012,-0.007,0
2018,4,25,17,30,30.724,-0.5126,0.4153,0.4625,-0.5922,-1.2,1.4,-0.2,0.004,0.012,-0.009,0
2018,4,25,17,30,30.728,-0.5124,0.4152,0.4626,-0.5923,0.6,0.8,0.2,0.006,0.005,-0.008,0
2018,4,25,17,30,30.76,-0.5124,0.4151,0.4627,-0.5924,-0.1,0.9,0.2,0.001,0.015,-0.004,0
2018,4,25,17,30,30.781,-0.5122,0.4151,0.4628,-0.5924,-1.1,0.9,0,-0.001,0.014,-0.01,0
2018,4,25,17,30,30.79,-0.512,0.4151,0.4631,-0.5923,-1.5,1,-0.6,0.003,0.009,-0.011,0
2018,4,25,17,30,30.807,-0.5117,0.4153,0.4633,-0.5924,-1,1.2,-0.7,0.006,0.007,-0.009,0
2018,4,25,17,30,30.827,-0.5114,0.4153,0.4634,-0.5925,0,1.6,-0.5,0.003,0.01,-0.011,0
2018,4,25,17,30,30.862,-0.5113,0.4152,0.4635,-0.5926,1.3,0.9,0,0.001,0.014,-0.008,0
2018,4,25,17,30,30.882,-0.5114,0.415,0.4634,-0.5927,2,-0.1,0.2,0,0.009,-0.004,0
2018,4,25,17,30,30.889,-0.5115,0.4149,0.4632,-0.5929,0.6,-0.1,-0.1,0.003,0.012,-0.001,0
2018,4,25,17,30,30.925,-0.5114,0.4149,0.4632,-0.5929,-0.5,0.6,-0.2,0.006,0.009,-0.005,1023
2018,4,25,17,30,30.945,-0.5113,0.415,0.4633,-0.5929,0,0.8,-0.1,0.001,0.01,-0.004,1023
2018,4,25,17,30,30.95,-0.5112,0.4149,0.4633,-0.593,0.1,0.8,-0.1,0.001,0.012,-0.004,1023
2018,4,25,17,30,30.989,-0.5111,0.4149,0.4634,-0.5931,0,0.8,-0.3,0.005,0.009,-0.01,1023
2018,4,25,17,30,31.012,-0.5109,0.4149,0.4634,-0.5932,-0.3,1.3,-0.4,0.004,0.009,-0.009,1023
2018,4,25,17,30,31.016,-0.5106,0.4148,0.4636,-0.5933,-0.6,2.2,-0.5,0.006,0.012,-0.008,1023
2018,4,25,17,30,31.034,-0.5103,0.4147,0.4638,-0.5935,0.1,2.5,-0.5,0.002,0.007,-0.006,1023
2018,4,25,17,30,31.054,-0.51,0.4145,0.464,-0.5938,-0.4,2.6,-0.8,-0.003,0.017,-0.001,0
2018,4,25,17,30,31.074,-0.5097,0.4144,0.4642,-0.594,-1.4,2,-1.1,0,0.008,-0.007,0
2018,4,25,17,30,31.091,-0.5094,0.4144,0.4644,-0.5941,0,1.1,-0.9,0.003,0.008,-0.01,0
2018,4,25,17,30,31.11,-0.5092,0.4144,0.4644,-0.5942,0.3,0.8,-0.4,0.002,0.013,-0.006,0
2018,4,25,17,30,31.148,-0.509,0.4144,0.4644,-0.5944,0,1.1,-0.5,0.004,0.009,-0.007,0
2018,4,25,17,30,31.168,-0.5088,0.4144,0.4645,-0.5944,-0.7,1.2,-0.4,0.002,0.01,-0.006,0
2018,4,25,17,30,31.172,-0.5086,0.4144,0.4647,-0.5945,-0.8,0.9,-0.4,0.002,0.009,-0.007,0
2018,4,25,17,30,31.192,-0.5084,0.4145,0.4648,-0.5945,-0.6,0,-0.2,0,0.01,-0.003,0
2018,4,25,17,30,31.215,-0.5084,0.4145,0.4648,-0.5945,0,-0.5,-0.1,0.002,0.011,-0.008,0
2018,4,25,17,30,31.254,-0.5083,0.4147,0.4648,-0.5945,0,0,0,0.011,0.008,-0.012,0
2018,4,25,17,30,31.273,-0.5083,0.4147,0.4648,-0.5945,0.9,0.1,0.2,0.004,0.012,-0.007,0
2018,4,25,17,30,31.277,-0.5084,0.4146,0.4647,-0.5946,1.7,0.4,0.3,0.004,0.009,-0.01,0
2018,4,25,17,30,31.293,-0.5085,0.4144,0.4646,-0.5947,2.2,0.2,0.5,0.003,0.004,-0.009,0
2018,4,25,17,30,31.311,-0.5087,0.4141,0.4644,-0.5949,2.8,0.3,0.3,0.001,0.013,-0.004,0
2018,4,25,17,30,31.332,-0.5089,0.4138,0.4641,-0.5952,2.4,0.3,0,-0.004,0.014,0.002,0
2018,4,25,17,30,31.371,-0.509,0.4136,0.4639,-0.5953,1.4,-0.4,-0.5,0.001,0.011,-0.005,0
2018,4,25,17,30,31.393,-0.509,0.4137,0.4637,-0.5954,0.9,-0.6,-0.7,0.009,0.005,-0.014,0
2018,4,25,17,30,31.397,-0.509,0.4138,0.4635,-0.5955,2.2,-0.2,-0.1,0.007,0.001,-0.01,0
2018,4,25,17,30,31.414,-0.5092,0.4136,0.4632,-0.5957,3.9,-0.2,-0.1,-0.003,0.005,-0.004,0
2018,4,25,17,30,31.434,-0.5096,0.4133,0.4627,-0.596,3.5,-1.3,-0.7,-0.013,0.014,-0.004,0
2018,4,25,17,30,31.457,-0.5099,0.4132,0.4622,-0.5962,3.9,-1.8,-0.9,-0.002,-0.003,-0.01,0
2018,4,25,17,30,31.476,-0.5102,0.4132,0.4616,-0.5965,3.2,-1.4,-0.7,0.007,0.017,0,0
2018,4,25,17,30,31.495,-0.5103,0.4131,0.4614,-0.5966,5.4,-0.5,-0.4,0.014,0.013,0.012,0
2018,4,25,17,30,31.514,-0.5105,0.4126,0.4607,-0.5972,4.6,1.1,0,0.006,0.014,-0.008,0
2018,4,25,17,30,31.534,-0.5108,0.4121,0.4603,-0.5977,6.3,0.9,0.2,0.001,0.006,-0.021,0
2018,4,25,17,30,31.553,-0.5111,0.4114,0.4597,-0.5983,7.8,1.4,0.2,0.004,0.006,-0.006,0
2018,4,25,17,30,31.593,-0.5116,0.4104,0.4592,-0.5989,4.9,3.6,2,0.001,-0.006,-0.034,0
2018,4,25,17,30,31.613,-0.5121,0.4093,0.4586,-0.5998,6.6,2.5,1.7,0.062,-0.073,0.032,1023
2018,4,25,17,30,31.615,-0.5125,0.4084,0.4581,-0.6004,5.1,2,1.6,0.016,0.013,0.002,1023
2018,4,25,17,30,31.652,-0.5127,0.4078,0.4579,-0.6008,3,1.5,0.6,0,0.009,-0.003,1023
2018,4,25,17,30,31.672,-0.5129,0.4073,0.4578,-0.6011,2.9,1.2,0.3,-0.006,0.013,-0.001,1023
2018,4,25,17,30,31.675,-0.5131,0.4068,0.4576,-0.6014,2.9,0.8,0.3,-0.013,0.025,0.006,1023
2018,4,25,17,30,31.712,-0.5134,0.4063,0.4573,-0.6016,1.4,-0.1,0,-0.008,0.03,0.016,1023
2018,4,25,17,30,31.73,-0.5134,0.4063,0.4573,-0.6017,-2.1,0.1,-0.5,0,0.021,0,1023
2018,4,25,17,30,31.736,-0.513,0.4066,0.4575,-0.6016,-2.9,0.8,-1.2,0.009,0.008,-0.008,1023
2018,4,25,17,30,31.755,-0.5126,0.407,0.4578,-0.6015,-2.6,1.2,-0.5,0.007,0.009,-0.011,0
2018,4,25,17,30,31.775,-0.5123,0.4071,0.4582,-0.6015,-1.4,0.8,0,-0.006,0.011,-0.006,0
2018,4,25,17,30,31.797,-0.5121,0.4071,0.4583,-0.6014,-1.5,0,-0.3,-0.001,0.008,0.001,0
2018,4,25,17,30,31.815,-0.512,0.4073,0.4585,-0.6013,-2,0.3,-0.1,0.006,0.013,0.002,0
2018,4,25,17,30,31.854,-0.5117,0.4075,0.4587,-0.6012,-2.3,1.2,0.2,0.003,0.017,0,0
2018,4,25,17,30,31.876,-0.5114,0.4075,0.4591,-0.6011,-2.3,1.3,-0.1,-0.005,0.011,-0.005,0
2018,4,25,17,30,31.88,-0.5112,0.4077,0.4594,-0.601,-2.1,0.3,-0.2,-0.003,0.008,-0.007,0
2018,4,25,17,30,31.898,-0.511,0.4079,0.4597,-0.6009,-1.9,0.3,-0.3,0.001,0.01,-0.011,0
2018,4,25,17,30,31.917,-0.5107,0.4081,0.4599,-0.6008,-1.4,0.6,-0.1,0.004,0.01,0,0
2018,4,25,17,30,31.939,-0.5105,0.4081,0.4601,-0.6007,-1.5,1,-0.2,0.001,0.015,-0.003,0
2018,4,25,17,30,31.959,-0.5102,0.4082,0.4604,-0.6007,-1.9,1.3,-0.4,0.001,0.011,-0.006,0
2018,4,25,17,30,31.978,-0.5099,0.4083,0.4607,-0.6007,-1.1,1,-0.5,0,0.006,-0.005,0
2018,4,25,17,30,32.017,-0.5097,0.4083,0.4608,-0.6007,-0.3,0.9,-0.2,0.001,0.01,-0.001,0
2018,4,25,17,30,32.021,-0.5096,0.4083,0.461,-0.6008,-0.4,1,-0.2,0,0.01,-0.004,0
2018,4,25,17,30,32.038,-0.5095,0.4082,0.461,-0.6008,0,0.9,-0.1,0,0.011,-0.001,0
2018,4,25,17,30,32.06,-0.5094,0.4082,0.4611,-0.6009,0,0,0,0,0.009,-0.009,0
2018,4,25,17,30,32.079,-0.5094,0.4082,0.4611,-0.6009,0.1,0.5,0,-0.002,0.01,0,0
2018,4,25,17,30,32.099,-0.5094,0.4082,0.4611,-0.6009,0,0,0,0,0.014,0.003,0
2018,4,25,17,30,32.119,-0.5093,0.4082,0.4612,-0.6009,-0.6,0.6,-0.1,0,0.011,-0.009,0
2018,4,25,17,30,32.139,-0.5092,0.4082,0.4612,-0.6009,0,0,0,0.005,0.009,-0.007,0
2018,4,25,17,30,32.177,-0.5092,0.4083,0.4613,-0.6009,0,0,0,0,0.01,-0.003,0
2018,4,25,17,30,32.182,-0.5092,0.4083,0.4613,-0.6009,-0.6,0.5,0.1,-0.003,0.011,0,0
2018,4,25,17,30,32.197,-0.5091,0.4082,0.4614,-0.6009,-0.8,0.4,0,-0.003,0.012,-0.001,0
2018,4,25,17,30,32.235,-0.509,0.4083,0.4615,-0.6009,-0.9,0.3,-0.2,0,0.007,-0.005,0
2018,4,25,17,30,32.255,-0.5089,0.4084,0.4616,-0.6008,-0.5,0.2,-0.3,0,0.011,-0.005,0
2018,4,25,17,30,32.26,-0.5087,0.4085,0.4618,-0.6008,-2.1,0.3,-0.2,0.009,0.009,-0.015,1023
2018,4,25,17,30,32.279,-0.5085,0.4087,0.4619,-0.6007,0,0.7,-0.1,0.002,0.012,-0.005,1023
2018,4,25,17,30,32.298,-0.5084,0.4086,0.462,-0.6008,-0.6,0.8,-0.4,-0.003,0.013,-0.004,1023
2018,4,25,17,30,32.338,-0.5082,0.4086,0.4622,-0.6007,-0.9,0.3,-0.2,0,0.01,-0.008,1023
2018,4,25,17,30,32.36,-0.5081,0.4087,0.4623,-0.6007,-0.9,0.1,-0.4,0.001,0.008,-0.007,1023
2018,4,25,17,30,32.364,-0.508,0.4088,0.4623,-0.6007,0,0,0,0.001,0.013,-0.004,1023
2018,4,25,17,30,32.381,-0.508,0.4088,0.4623,-0.6007,0,0,0,0,0.018,-0.002,1023
2018,4,25,17,30,32.418,-0.508,0.4088,0.4623,-0.6007,-0.5,0.3,0,0,0.011,-0.002,1023
2018,4,25,17,30,32.436,-0.508,0.4088,0.4624,-0.6007,0,0,0,0,0.009,-0.007,1023
2018,4,25,17,30,32.443,-0.5079,0.4089,0.4624,-0.6007,-0.5,0.2,0,0,0.01,-0.003,0
2018,4,25,17,30,32.459,-0.5078,0.4089,0.4625,-0.6007,-0.6,0.1,-0.1,0,0.007,-0.006,0
2018,4,25,17,30,32.48,-0.5078,0.4089,0.4625,-0.6006,0,0,0,0.001,0.009,-0.003,0
2018,4,25,17,30,32.498,-0.5078,0.409,0.4625,-0.6006,0,0,0,0.002,0.01,-0.004,0
2018,4,25,17,30,32.534,-0.5078,0.409,0.4625,-0.6006,0,0,0,-0.003,0.011,-0.006,0
2018,4,25,17,30,32.555,-0.5078,0.409,0.4626,-0.6006,0,0,0,-0.001,0.012,-0.003,0
2018,4,25,17,30,32.558,-0.5077,0.409,0.4626,-0.6006,-0.7,0.1,-0.2,-0.001,0.013,-0.003,0
2018,4,25,17,30,32.596,-0.5076,0.4091,0.4627,-0.6006,-0.7,0.1,-0.2,-0.001,0.005,-0.005,0
2018,4,25,17,30,32.614,-0.5075,0.4092,0.4628,-0.6005,0,0,0,0,0.008,-0.006,0
2018,4,25,17,30,32.62,-0.5075,0.4092,0.4628,-0.6005,0,0,0,0.002,0.009,-0.001,0
2018,4,25,17,30,32.659,-0.5075,0.4092,0.4628,-0.6005,0,0,0,0,0.009,0,0
2018,4,25,17,30,32.661,-0.5075,0.4093,0.4628,-0.6005,0,0,0,0.001,0.012,-0.002,0
2018,4,25,17,30,32.679,-0.5075,0.4092,0.4628,-0.6005,-0.5,0.1,-0.2,-0.002,0.01,0,0
2018,4,25,17,30,32.717,-0.5074,0.4093,0.4629,-0.6005,0,0,0,0,0.01,-0.009,0
2018,4,25,17,30,32.738,-0.5074,0.4093,0.4629,-0.6005,0,0,0,0.002,0.01,-0.008,0
2018,4,25,17,30,32.74,-0.5074,0.4093,0.4629,-0.6005,0,0,0,0,0.011,-0.003,0
2018,4,25,17,30,32.78,-0.5073,0.4094,0.4629,-0.6005,-0.6,0.3,-0.1,0.001,0.012,-0.005,0
2018,4,25,17,30,32.8,-0.5072,0.4094,0.4631,-0.6004,-0.6,0.2,0,0,0.008,-0.005,0
2018,4,25,17,30,32.803,-0.5072,0.4094,0.4631,-0.6004,0,0,0,0.002,0.009,-0.007,0
2018,4,25,17,30,32.84,-0.5072,0.4094,0.4631,-0.6004,0,0,0,-0.001,0.014,-0.004,0
2018,4,25,17,30,32.863,-0.5071,0.4095,0.4632,-0.6004,0,0,0,0.004,0.013,-0.007,0
2018,4,25,17,30,32.865,-0.5071,0.4095,0.4632,-0.6004,0,0,0,0.001,0.009,0,0
2018,4,25,17,30,32.88,-0.5071,0.4095,0.4632,-0.6004,0,0,0,0,0.008,-0.006,0
2018,4,25,17,30,32.901,-0.5071,0.4095,0.4632,-0.6003,0,0,0,-0.001,0.009,-0.006,0
2018,4,25,17,30,32.921,-0.5071,0.4095,0.4632,-0.6003,0,0,0,0.001,0.011,-0.001,0
2018,4,25,17,30,32.943,-0.5071,0.4095,0.4632,-0.6003,0,0,0,-0.003,0.013,-0.001,0
2018,4,25,17,30,32.963,-0.507,0.4096,0.4632,-0.6003,-0.7,-0.1,-0.2,0,0.01,-0.004,1023
2018,4,25,17,30,32.985,-0.507,0.4096,0.4633,-0.6003,0,0,0,-0.001,0.008,0,1023
2018,4,25,17,30,33.005,-0.507,0.4096,0.4633,-0.6003,0,0,0,0.001,0.011,-0.007,1023
2018,4,25,17,30,33.043,-0.507,0.4097,0.4633,-0.6003,0,0,0,0.002,0.01,-0.004,1023
2018,4,25,17,30,33.062,-0.507,0.4097,0.4633,-0.6003,0,0,0,-0.001,0.011,-0.002,1023
2018,4,25,17,30,33.066,-0.507,0.4097,0.4633,-0.6003,0,0,0,-0.003,0.013,-0.004,1023
2018,4,25,17,30,33.085,-0.507,0.4097,0.4633,-0.6003,0,0,0,0,0.011,-0.004,1023
2018,4,25,17,30,33.106,-0.507,0.4097,0.4633,-0.6003,0,0,0,0,0.012,-0.007,1023
2018,4,25,17,30,33.146,-0.507,0.4097,0.4633,-0.6003,0,0,0,0,0.009,-0.001,1023
2018,4,25,17,30,33.166,-0.5069,0.4097,0.4633,-0.6003,0,0,0,0.002,0.01,-0.006,1023
2018,4,25,17,30,33.17,-0.5069,0.4097,0.4633,-0.6003,0,0,0,0.002,0.01,-0.008,0
2018,4,25,17,30,33.184,-0.5069,0.4097,0.4633,-0.6003,0,0,0,-0.001,0.012,0,0
2018,4,25,17,30,33.222,-0.5069,0.4098,0.4633,-0.6002,0,0,0,0,0.009,-0.004,0
2018,4,25,17,30,33.242,-0.5069,0.4098,0.4633,-0.6002,0,0,0,0,0.013,0,0
2018,4,25,17,30,33.247,-0.5069,0.4098,0.4634,-0.6002,-0.5,-0.1,-0.2,0.001,0.01,-0.003,0
2018,4,25,17,30,33.268,-0.5068,0.4098,0.4634,-0.6002,0,0,0,0,0.01,-0.005,0
2018,4,25,17,30,33.287,-0.5068,0.4099,0.4634,-0.6002,0,0,0,0.002,0.011,-0.005,0
2018,4,25,17,30,33.322,-0.5068,0.4099,0.4634,-0.6002,0,0,0,0,0.009,-0.004,0
2018,4,25,17,30,33.344,-0.5068,0.4099,0.4634,-0.6002,0,0,0,0.002,0.011,-0.004,0
2018,4,25,17,30,33.348,-0.5068,0.4099,0.4634,-0.6002,0,0,0,-0.002,0.013,-0.002,0
2018,4,25,17,30,33.364,-0.5068,0.4099,0.4634,-0.6002,0,0,0,0,0.006,-0.006,0
2018,4,25,17,30,33.385,-0.5068,0.4099,0.4634,-0.6002,0,0,0,0.001,0.01,-0.007,0
2018,4,25,17,30,33.405,-0.5067,0.4099,0.4635,-0.6001,0,0,0,0,0.01,-0.002,0
2018,4,25,17,30,33.443,-0.5067,0.41,0.4635,-0.6001,-0.7,0.1,0,-0.001,0.01,-0.008,0
2018,4,25,17,30,33.466,-0.5066,0.4101,0.4636,-0.6001,0,0,0,0.001,0.011,-0.005,0
2018,4,25,17,30,33.47,-0.5066,0.4101,0.4635,-0.6001,0,0,0,-0.001,0.013,-0.001,0
2018,4,25,17,30,33.487,-0.5066,0.4101,0.4636,-0.6001,0,0,0,-0.004,0.009,-0.003,0
2018,4,25,17,30,33.527,-0.5066,0.4101,0.4636,-0.6001,-0.6,-0.1,-0.1,-0.004,0.011,-0.001,0
2018,4,25,17,30,33.532,-0.5066,0.4102,0.4636,-0.6,0,0,0,0.001,0.01,-0.005,0
2018,4,25,17,30,33.545,-0.5066,0.4102,0.4636,-0.6,0,0,0,0.001,0.015,-0.001,0
2018,4,25,17,30,33.584,-0.5066,0.4102,0.4636,-0.6,0,0,0,-0.002,0.008,-0.001,0
2018,4,25,17,30,33.587,-0.5065,0.4102,0.4637,-0.6,0,0,0,0.002,0.013,-0.005,0
2018,4,25,17,30,33.606,-0.5065,0.4102,0.4637,-0.6,0,0,0,0.003,0.01,-0.004,0
2018,4,25,17,30,33.644,-0.5065,0.4102,0.4637,-0.6,0,0,0,-0.002,0.011,0,0
2018,4,25,17,30,33.664,-0.5065,0.4102,0.4637,-0.6,0,0,0,0.001,0.009,-0.002,0
2018,4,25,17,30,33.668,-0.5065,0.4102,0.4637,-0.6,0,0,0,-0.002,0.009,0.001,0
2018,4,25,17,30,33.687,-0.5065,0.4102,0.4637,-0.6,0,0,0,0,0.009,0,1023
2018,4,25,17,30,33.707,-0.5065,0.4103,0.4637,-0.6,0,0,0,0,0.008,-0.011,1023
2018,4,25,17,30,33.744,-0.5065,0.4103,0.4637,-0.6,0,0,0,0.001,0.013,-0.004,1023
2018,4,25,17,30,33.764,-0.5065,0.4103,0.4637,-0.5999,0,0,0,0,0.01,-0.003,1023
2018,4,25,17,30,33.768,-0.5064,0.4103,0.4637,-0.5999,0,0,0,-0.002,0.009,-0.007,1023
2018,4,25,17,30,33.808,-0.5064,0.4103,0.4637,-0.5999,0,0,0,0,0.011,-0.007,1023
2018,4,25,17,30,33.829,-0.5064,0.4103,0.4638,-0.5999,0,0,0,-0.001,0.01,-0.002,1023
2018,4,25,17,30,33.832,-0.5064,0.4103,0.4638,-0.5999,0,0,0,0,0.011,-0.004,1023
2018,4,25,17,30,33.853,-0.5064,0.4104,0.4638,-0.5999,0,0,0,0.001,0.01,-0.008,1023
2018,4,25,17,30,33.869,-0.5064,0.4104,0.4638,-0.5999,0,0,0,0,0.009,-0.002,1023
2018,4,25,17,30,33.904,-0.5064,0.4104,0.4638,-0.5999,-0.5,-0.2,0,0,0.012,-0.005,0
2018,4,25,17,30,33.925,-0.5063,0.4105,0.4638,-0.5999,0,0,0,0,0.011,-0.003,0
2018,4,25,17,30,33.93,-0.5063,0.4106,0.4639,-0.5998,-0.5,-0.1,-0.1,0.004,0.01,-0.008,0
2018,4,25,17,30,33.951,-0.5062,0.4106,0.4639,-0.5998,0,0,0,0.002,0.01,-0.01,0
2018,4,25,17,30,33.971,-0.5062,0.4106,0.4639,-0.5998,0,0,0,0,0.009,-0.002,0
2018,4,25,17,30,33.991,-0.5062,0.4106,0.4639,-0.5998,0,0,0,0.001,0.012,-0.002,0
2018,4,25,17,30,34.011,-0.5062,0.4107,0.4639,-0.5998,0,0,0,0.001,0.011,-0.003,0
2018,4,25,17,30,34.032,-0.5062,0.4107,0.4639,-0.5998,0,0,0,0,0.008,-0.003,0
2018,4,25,17,30,34.051,-0.5062,0.4107,0.4639,-0.5998,0,0,0,0,0.014,-0.002,0
2018,4,25,17,30,34.091,-0.5062,0.4107,0.4639,-0.5998,0,0,0,-0.002,0.012,-0.003,0
2018,4,25,17,30,34.095,-0.5062,0.4107,0.4639,-0.5998,0,0,0,0.001,0.012,-0.008,0
2018,4,25,17,30,34.112,-0.5061,0.4107,0.4639,-0.5998,0,0,0,-0.001,0.013,-0.006,0
2018,4,25,17,30,34.131,-0.5061,0.4107,0.4639,-0.5998,0,0,0,0,0.009,-0.004,0
2018,4,25,17,30,34.151,-0.5061,0.4108,0.4639,-0.5998,0,0,0,-0.001,0.011,-0.003,0
2018,4,25,17,30,34.189,-0.5061,0.4108,0.4639,-0.5997,-0.6,0.1,-0.1,0,0.011,-0.002,0
2018,4,25,17,30,34.207,-0.506,0.4109,0.464,-0.5997,0,0,0,0.002,0.008,-0.006,0
2018,4,25,17,30,34.211,-0.506,0.4109,0.464,-0.5997,0,0,0,0.002,0.01,-0.006,0
2018,4,25,17,30,34.233,-0.506,0.4109,0.464,-0.5997,0,0,0,-0.002,0.012,-0.002,0
2018,4,25,17,30,34.254,-0.506,0.4109,0.464,-0.5997,0,0,0,0.001,0.009,-0.004,0
2018,4,25,17,30,34.294,-0.506,0.4109,0.4641,-0.5997,0,0,0,0.003,0.011,-0.011,0
2018,4,25,17,30,34.298,-0.5059,0.411,0.4641,-0.5996,0,0,0,0,0.012,-0.001,0
2018,4,25,17,30,34.312,-0.506,0.4109,0.4641,-0.5996,0,0,0,-0.002,0.011,0,0
2018,4,25,17,30,34.331,-0.506,0.411,0.4641,-0.5997,0,0,0,0.002,0.012,-0.002,0
2018,4,25,17,30,34.351,-0.5059,0.411,0.464,-0.5997,0,0,0,0.001,0.009,-0.004,0
2018,4,25,17,30,34.387,-0.5059,0.411,0.4641,-0.5996,0,0,0,0.001,0.009,-0.004,0
2018,4,25,17,30,34.408,-0.5059,0.411,0.4641,-0.5996,0,0,0,0,0.011,0.002,0
2018,4,25,17,30,34.412,-0.5059,0.411,0.4641,-0.5996,0,0,0,0,0.01,-0.005,0
2018,4,25,17,30,34.452,-0.5059,0.411,0.4641,-0.5996,0,0,0,0,0.014,0,1023
2018,4,25,17,30,34.472,-0.5059,0.411,0.4641,-0.5996,0,0,0,0.003,0.014,-0.005,1023
2018,4,25,17,30,34.476,-0.5059,0.411,0.4641,-0.5996,0,0,0,0,0.008,-0.009,1023
2018,4,25,17,30,34.496,-0.5059,0.411,0.4641,-0.5996,0,0,0,0,0.015,-0.003,1023
2018,4,25,17,30,34.515,-0.5059,0.411,0.4641,-0.5996,0,0,0,0,0.014,-0.003,1023
2018,4,25,17,30,34.536,-0.5059,0.4111,0.4641,-0.5996,-0.7,-0.2,-0.2,0.002,0.012,-0.004,1023
2018,4,25,17,30,34.556,-0.5058,0.4112,0.4642,-0.5995,-0.6,0,-0.1,0.003,0.009,-0.007,1023
2018,4,25,17,30,34.57,-0.5057,0.4113,0.4643,-0.5995,-0.5,0.1,0,0,0.009,-0.007,1023
2018,4,25,17,30,34.61,-0.5057,0.4113,0.4643,-0.5995,0,0,0,-0.001,0.011,-0.005,1023
2018,4,25,17,30,34.629,-0.5057,0.4113,0.4643,-0.5994,0,0,0,0,0.012,-0.005,1023
2018,4,25,17,30,34.633,-0.5057,0.4114,0.4643,-0.5994,0,0,0,0.003,0.01,-0.002,0
2018,4,25,17,30,34.672,-0.5056,0.4114,0.4643,-0.5994,0,0,0,-0.003,0.012,-0.007,0
2018,4,25,17,30,34.692,-0.5056,0.4114,0.4643,-0.5994,0,0,0,0,0.01,-0.003,0
2018,4,25,17,30,34.694,-0.5056,0.4114,0.4643,-0.5994,0,0,0,0,0.011,-0.004,0
2018,4,25,17,30,34.735,-0.5056,0.4114,0.4643,-0.5994,0,0,0,0,0.01,-0.005,0
2018,4,25,17,30,34.74,-0.5056,0.4114,0.4643,-0.5994,0,0,0,-0.002,0.011,0,0
2018,4,25,17,30,34.756,-0.5056,0.4114,0.4643,-0.5994,0,0,0,-0.002,0.017,0,0
2018,4,25,17,30,34.791,-0.5056,0.4114,0.4643,-0.5994,0,0,0,0.002,0.011,-0.01,0
2018,4,25,17,30,34.81,-0.5056,0.4114,0.4643,-0.5994,0,0,0,0.003,0.011,-0.003,0
2018,4,25,17,30,34.815,-0.5056,0.4115,0.4644,-0.5994,0,0,0,0.001,0.01,-0.003,0
2018,4,25,17,30,34.854,-0.5056,0.4115,0.4644,-0.5994,0,0,0,0.003,0.009,0.001,0
2018,4,25,17,30,34.875,-0.5056,0.4115,0.4644,-0.5994,0,0,0,0,0.011,-0.008,0
2018,4,25,17,30,34.879,-0.5056,0.4115,0.4644,-0.5994,0,0,0,0,0.01,-0.002,0
2018,4,25,17,30,34.896,-0.5056,0.4115,0.4644,-0.5994,0,0,0,0.001,0.009,-0.004,0
2018,4,25,17,30,34.934,-0.5056,0.4115,0.4644,-0.5994,0,0,0,-0.001,0.012,-0.004,0
2018,4,25,17,30,34.957,-0.5055,0.4115,0.4644,-0.5994,0,0,0,0,0.01,-0.005,0
2018,4,25,17,30,34.96,-0.5055,0.4115,0.4644,-0.5994,0,0,0,0,0.01,-0.007,0
2018,4,25,17,30,34.98,-0.5055,0.4115,0.4644,-0.5993,0,0,0,0,0.011,-0.002,0
2018,4,25,17,30,34.999,-0.5055,0.4115,0.4644,-0.5993,0,0,0,0,0.008,-0.001,0
2018,4,25,17,30,35.016,-0.5055,0.4116,0.4644,-0.5993,0,0,0,0,0.012,-0.006,0
2018,4,25,17,30,35.053,-0.5055,0.4116,0.4644,-0.5993,0,0,0,-0.002,0.013,-0.001,0
2018,4,25,17,30,35.074,-0.5055,0.4116,0.4644,-0.5993,0,0,0,0.001,0.013,-0.001,0
2018,4,25,17,30,35.078,-0.5055,0.4116,0.4644,-0.5993,0,0,0,0.001,0.01,-0.006,0
2018,4,25,17,30,35.096,-0.5055,0.4116,0.4644,-0.5993,0,0,0,0,0.013,-0.008,0
2018,4,25,17,30,35.137,-0.5055,0.4116,0.4644,-0.5993,0,0,0,0,0.016,-0.004,0
2018,4,25,17,30,35.157,-0.5055,0.4116,0.4645,-0.5993,0,0,0,0,0.013,-0.009,0
2018,4,25,17,30,35.161,-0.5054,0.4116,0.4645,-0.5993,0,0,0,0,0.016,0,0
2018,4,25,17,30,35.179,-0.5054,0.4117,0.4645,-0.5993,-0.6,0,0,0,0.011,-0.007,0
2018,4,25,17,30,35.218,-0.5054,0.4117,0.4645,-0.5992,0,0,0,-0.002,0.006,-0.01,0
2018,4,25,17,30,35.222,-0.5054,0.4117,0.4645,-0.5992,0,0,0,-0.001,0.012,-0.002,1023
2018,4,25,17,30,35.238,-0.5054,0.4117,0.4646,-0.5992,0,0,0,0,0.014,-0.006,1023
2018,4,25,17,30,35.275,-0.5054,0.4117,0.4646,-0.5992,0,0,0,-0.002,0.008,-0.003,1023
2018,4,25,17,30,35.295,-0.5053,0.4118,0.4646,-0.5992,0,0,0,0.004,0.01,-0.002,1023
2018,4,25,17,30,35.299,-0.5053,0.4118,0.4646,-0.5992,0,0,0,0,0.012,-0.007,1023
2018,4,25,17,30,35.317,-0.5053,0.4118,0.4646,-0.5992,0,0,0,-0.001,0.011,0,1023
2018,4,25,17,30,35.355,-0.5053,0.4118,0.4646,-0.5992,0,0,0,0,0.008,0,1023
2018,4,25,17,30,35.376,-0.5053,0.4118,0.4646,-0.5992,0,0,0,0.002,0.011,-0.002,1023
2018,4,25,17,30,35.38,-0.5053,0.4118,0.4646,-0.5992,0,0,0,-0.002,0.008,-0.001,1023
2018,4,25,17,30,35.419,-0.5053,0.4118,0.4646,-0.5992,0,0,0,0,0.014,-0.003,1023
2018,4,25,17,30,35.44,-0.5053,0.4118,0.4646,-0.5992,0,0,0,0,0.009,-0.003,0
2018,4,25,17,30,35.444,-0.5053,0.4118,0.4646,-0.5992,0,0,0,0.001,0.012,-0.003,0
2018,4,25,17,30,35.461,-0.5053,0.4118,0.4646,-0.5992,0,0,0,-0.001,0.01,-0.009,0
2018,4,25,17,30,35.5,-0.5053,0.4118,0.4646,-0.5992,0,0,0,-0.001,0.018,0.002,0
2018,4,25,17,30,35.504,-0.5053,0.4118,0.4646,-0.5992,0,0,0,-0.001,0.011,-0.005,0
2018,4,25,17,30,35.521,-0.5053,0.4118,0.4646,-0.5992,0,0,0,0,0.012,-0.007,0
2018,4,25,17,30,35.541,-0.5053,0.4118,0.4647,-0.5991,0,0,0,-0.002,0.006,-0.006,0
2018,4,25,17,30,35.567,-0.5053,0.4118,0.4647,-0.5991,0,0,0,0,0.014,-0.001,0
2018,4,25,17,30,35.585,-0.5053,0.4118,0.4647,-0.5991,0,0,0,-0.001,0.011,-0.007,0
2018,4,25,17,30,35.599,-0.5053,0.4118,0.4647,-0.5991,0,0,0,0,0.011,-0.006,0
2018,4,25,17,30,35.636,-0.5053,0.4118,0.4647,-0.5991,0,0,0,0,0.013,-0.003,0
2018,4,25,17,30,35.657,-0.5053,0.4118,0.4647,-0.5991,0,0,0,0.002,0.013,-0.004,0
2018,4,25,17,30,35.661,-0.5053,0.4118,0.4647,-0.5991,0,0,0,-0.001,0.012,-0.004,0
2018,4,25,17,30,35.698,-0.5053,0.4118,0.4647,-0.5991,0,0,0,0,0.01,-0.002,0
2018,4,25,17,30,35.7,-0.5053,0.4118,0.4647,-0.5991,0,0,0,0,0.013,0.003,0
2018,4,25,17,30,35.719,-0.5053,0.4118,0.4647,-0.5991,0,0,0,0.003,0.011,-0.001,0
2018,4,25,17,30,35.755,-0.5053,0.4118,0.4647,-0.5991,0,0,0,0,0.015,0,0
2018,4,25,17,30,35.774,-0.5053,0.4119,0.4647,-0.5991,0,0,0,0,0.013,-0.003,0
2018,4,25,17,30,35.78,-0.5053,0.4119,0.4647,-0.5991,0,0,0,0.004,0.009,-0.007,0
2018,4,25,17,30,35.819,-0.5053,0.4119,0.4647,-0.5991,0,0,0,-0.001,0.011,0.002,0
2018,4,25,17,30,35.841,-0.5053,0.4119,0.4647,-0.5991,0,0,0,-0.001,0.014,-0.002,0
2018,4,25,17,30,35.845,-0.5053,0.4119,0.4647,-0.5991,0,0,0,0,0.009,0,0
2018,4,25,17,30,35.865,-0.5053,0.4119,0.4647,-0.5991,-0.5,-0.1,0,0.002,0.011,-0.006,0
2018,4,25,17,30,35.885,-0.5052,0.4119,0.4648,-0.5991,-0.7,0.1,-0.1,-0.001,0.01,-0.002,0
2018,4,25,17,30,35.922,-0.5052,0.412,0.4648,-0.599,0,0,0,0,0.011,-0.003,0
2018,4,25,17,30,35.926,-0.5052,0.412,0.4649,-0.599,0,0,0,0,0.009,-0.006,0
2018,4,25,17,30,35.942,-0.5052,0.412,0.4649,-0.599,0,0,0,0,0.011,-0.002,0
2018,4,25,17,30,35.96,-0.5052,0.412,0.4649,-0.599,0,0,0,0,0.012,-0.003,0
2018,4,25,17,30,35.982,-0.5052,0.412,0.4649,-0.599,0,0,0,0,0.012,-0.003,0
2018,4,25,17,30,36.001,-0.5051,0.412,0.4649,-0.599,0,0,0,0,0.008,-0.004,0
2018,4,25,17,30,36.038,-0.5051,0.412,0.4649,-0.599,0,0,0,0.002,0.013,-0.002,1023
2018,4,25,17,30,36.059,-0.5051,0.412,0.4649,-0.599,0,0,0,0,0.011,-0.004,1023
2018,4,25,17,30,36.063,-0.5051,0.4121,0.4649,-0.599,0,0,0,0,0.012,-0.006,1023
2018,4,25,17,30,36.102,-0.5051,0.4121,0.4649,-0.599,0,0,0,-0.001,0.013,-0.005,1023
2018,4,25,17,30,36.123,-0.5051,0.4121,0.4649,-0.5989,0,0,0,0.001,0.013,-0.006,1023
2018,4,25,17,30,36.127,-0.505,0.4121,0.465,-0.5989,0,0,0,0,0.011,-0.003,1023
2018,4,25,17,30,36.145,-0.505,0.4122,0.465,-0.5989,0,0,0,0.001,0.01,-0.007,1023
2018,4,25,17,30,36.166,-0.505,0.4122,0.465,-0.5989,0,0,0,0,0.011,0,1023
2018,4,25,17,30,36.186,-0.505,0.4122,0.465,-0.5989,0,0,0,0.001,0.01,0.003,1023
2018,4,25,17,30,36.202,-0.505,0.4122,0.465,-0.5989,0,0,0,0.002,0.011,-0.005,1023
2018,4,25,17,30,36.24,-0.505,0.4122,0.465,-0.5989,0,0,0,-0.001,0.005,-0.004,1023
2018,4,25,17,30,36.261,-0.505,0.4122,0.465,-0.5989,0,0,0,0,0.014,0,0
2018,4,25,17,30,36.266,-0.505,0.4122,0.465,-0.5989,0,0,0,0.001,0.013,-0.001,0
2018,4,25,17,30,36.287,-0.505,0.4122,0.465,-0.5989,0,0,0,0,0.013,-0.001,0
2018,4,25,17,30,36.306,-0.505,0.4122,0.465,-0.5989,0,0,0,0,0.011,0,0
2018,4,25,17,30,36.346,-0.505,0.4122,0.465,-0.5989,0,0,0,0,0.011,-0.003,0
2018,4,25,17,30,36.364,-0.505,0.4122,0.465,-0.5989,0,0,0,0,0.013,-0.004,0
2018,4,25,17,30,36.369,-0.505,0.4122,0.465,-0.5989,0,0,0,0,0.008,0,0
2018,4,25,17,30,36.387,-0.505,0.4123,0.465,-0.5989,0,0,0,0,0.01,-0.007,0
2018,4,25,17,30,36.408,-0.505,0.4123,0.465,-0.5989,0,0,0,0.002,0.01,-0.005,0
2018,4,25,17,30,36.424,-0.5049,0.4123,0.465,-0.5988,0,0,0,0,0.01,-0.006,0
2018,4,25,17,30,36.461,-0.5049,0.4123,0.465,-0.5988,0,0,0,-0.001,0.01,-0.008,0
2018,4,25,17,30,36.482,-0.5049,0.4123,0.4651,-0.5988,0,0,0,0,0.012,-0.004,0
2018,4,25,17,30,36.486,-0.5049,0.4123,0.4651,-0.5988,0,0,0,0,0.012,-0.006,0
2018,4,25,17,30,36.506,-0.5049,0.4123,0.4651,-0.5988,0,0,0,0,0.014,-0.004,0
2018,4,25,17,30,36.527,-0.5049,0.4123,0.4651,-0.5988,0,0,0,-0.001,0.01,-0.004,0
2018,4,25,17,30,36.548,-0.5049,0.4123,0.4651,-0.5988,0,0,0,0,0.013,-0.005,0
2018,4,25,17,30,36.567,-0.5049,0.4123,0.4651,-0.5988,0,0,0,0,0.013,-0.008,0
2018,4,25,17,30,36.604,-0.5049,0.4123,0.4651,-0.5988,0,0,0,-0.002,0.014,-0.002,0
2018,4,25,17,30,36.625,-0.5049,0.4124,0.4651,-0.5988,0,0,0,-0.003,0.008,-0.003,0
2018,4,25,17,30,36.628,-0.5049,0.4124,0.4652,-0.5987,0,0,0,-0.001,0.005,-0.008,0
2018,4,25,17,30,36.646,-0.5048,0.4124,0.4652,-0.5987,1,-0.4,-0.2,-0.001,0.003,-0.013,0
2018,4,25,17,30,36.666,-0.5049,0.4124,0.4651,-0.5988,1.6,-0.1,0,0.002,0.009,-0.003,0
2018,4,25,17,30,36.703,-0.505,0.4123,0.4649,-0.5989,1.1,-0.2,0.2,-0.003,0.013,-0.019,0
2018,4,25,17,30,36.723,-0.5051,0.4123,0.4648,-0.5989,3.2,-0.8,-0.2,-0.002,0.012,-0.013,0
2018,4,25,17,30,36.726,-0.5054,0.412,0.4644,-0.5991,3.5,-0.4,-0.5,-0.001,0.018,0.007,0
2018,4,25,17,30,36.762,-0.5056,0.4118,0.4639,-0.5995,1.5,0.3,-0.7,0.007,0.022,0.012,0
2018,4,25,17,30,36.783,-0.5055,0.4117,0.4638,-0.5997,-1.8,0.7,-1,0.001,0.025,0.019,0
2018,4,25,17,30,36.786,-0.5051,0.4119,0.464,-0.5997,-4.6,1.2,-1.5,0,0.011,0.008,0
2018,4,25,17,30,36.823,-0.5045,0.4124,0.4646,-0.5995,-5.3,0.6,-1,-0.005,0.008,-0.007,1023
2018,4,25,17,30,36.844,-0.5041,0.4128,0.4651,-0.5992,-3.4,0.1,-1.2,0.002,0.008,-0.017,1023
2018,4,25,17,30,36.848,-0.5035,0.4134,0.4654,-0.5991,-4.4,0,-0.5,0,0.018,-0.002,1023
2018,4,25,17,30,36.868,-0.5032,0.4137,0.4658,-0.5987,-1.5,-0.5,-0.2,-0.001,-0.003,-0.016,1023
2018,4,25,17,30,36.887,-0.5031,0.4139,0.4658,-0.5986,-0.8,0,-0.2,0.005,0.013,-0.003,1023
2018,4,25,17,30,36.926,-0.503,0.414,0.4659,-0.5986,0,0,0,0.003,0.009,-0.011,1023
2018,4,25,17,30,36.945,-0.503,0.4139,0.4659,-0.5987,1.1,0.6,0.5,0.002,0.012,-0.002,1023
2018,4,25,17,30,36.948,-0.5031,0.4137,0.4658,-0.5988,1.5,0.9,0.7,0,0.013,0,1023
2018,4,25,17,30,36.985,-0.5033,0.4134,0.4658,-0.5989,0.9,0.2,0.6,-0.002,0.01,0,1023
2018,4,25,17,30,37.006,-0.5033,0.4133,0.4658,-0.5989,0,0,0,-0.002,0.01,-0.007,1023
2018,4,25,17,30,37.011,-0.5033,0.4133,0.4658,-0.5989,0,0,0,0,0.006,-0.008,1023
2018,4,25,17,30,37.031,-0.5034,0.4133,0.4658,-0.5989,1.1,-0.3,0.2,-0.002,0.013,-0.007,0
2018,4,25,17,30,37.051,-0.5035,0.4132,0.4657,-0.5989,1.1,-0.2,0.1,0,0.012,-0.005,0
2018,4,25,17,30,37.072,-0.5036,0.4131,0.4655,-0.599,0.7,-0.2,0,0.001,0.016,0.002,0
2018,4,25,17,30,37.092,-0.5036,0.4131,0.4655,-0.599,0,0,0,0.002,0.015,-0.002,0
2018,4,25,17,30,37.13,-0.5036,0.4131,0.4655,-0.599,0,0,0,0,0.009,-0.003,0
2018,4,25,17,30,37.134,-0.5037,0.4131,0.4655,-0.599,0.5,0,0.3,-0.001,0.012,-0.005,0
2018,4,25,17,30,37.151,-0.5037,0.4131,0.4655,-0.599,0,0,0,-0.001,0.01,-0.005,0
2018,4,25,17,30,37.17,-0.5037,0.4131,0.4655,-0.599,0,0,0,0,0.012,-0.003,0
2018,4,25,17,30,37.19,-0.5037,0.413,0.4655,-0.599,0,0,0,-0.002,0.014,-0.001,0
2018,4,25,17,30,37.212,-0.5037,0.413,0.4655,-0.599,0,0,0,-0.001,0.014,0,0
2018,4,25,17,30,37.233,-0.5037,0.413,0.4655,-0.599,0,0,0,0.001,0.011,0,0
2018,4,25,17,30,37.251,-0.5037,0.413,0.4655,-0.599,0,0,0,0.002,0.01,0,0
2018,4,25,17,30,37.273,-0.5037,0.413,0.4655,-0.599,0,0,0,0.001,0.014,0,0
2018,4,25,17,30,37.31,-0.5037,0.413,0.4655,-0.599,0,0,0,-0.002,0.013,0,0
2018,4,25,17,30,37.329,-0.5037,0.413,0.4655,-0.599,0,0,0,-0.002,0.012,-0.008,0
2018,4,25,17,30,37.333,-0.5037,0.413,0.4655,-0.599,0,0,0,0,0.01,-0.003,0
2018,4,25,17,30,37.351,-0.5037,0.4131,0.4655,-0.599,0,0,0,-0.001,0.011,-0.005,0
2018,4,25,17,30,37.372,-0.5037,0.4131,0.4655,-0.599,0,0,0,0,0.008,-0.001,0
2018,4,25,17,30,37.391,-0.5037,0.4131,0.4655,-0.599,0,0,0,0,0.014,-0.003,0
2018,4,25,17,30,37.412,-0.5037,0.4131,0.4656,-0.5989,0,0,0,0,0.01,-0.006,0
2018,4,25,17,30,37.432,-0.5037,0.4131,0.4656,-0.5989,0,0,0,-0.001,0.014,0,0
2018,4,25,17,30,37.47,-0.5037,0.4131,0.4656,-0.5989,-0.5,0,-0.1,-0.001,0.013,-0.001,0
2018,4,25,17,30,37.491,-0.5036,0.4132,0.4656,-0.5989,-0.7,-0.1,0,0,0.009,-0.005,0
2018,4,25,17,30,37.496,-0.5036,0.4132,0.4657,-0.5988,0,0,0,0,0.012,0,0
2018,4,25,17,30,37.515,-0.5036,0.4132,0.4657,-0.5988,0,0,0,0.001,0.014,-0.008,0
2018,4,25,17,30,37.535,-0.5036,0.4132,0.4657,-0.5988,0,0,0,-0.001,0.007,-0.007,0
2018,4,25,17,30,37.551,-0.5036,0.4132,0.4657,-0.5988,0,0,0,-0.001,0.009,-0.003,0
2018,4,25,17,30,37.59,-0.5036,0.4132,0.4657,-0.5988,0,0,0,0,0.009,-0.004,0
2018,4,25,17,30,37.611,-0.5036,0.4132,0.4657,-0.5988,0,0,0,0.001,0.011,0,0
2018,4,25,17,30,37.615,-0.5036,0.4132,0.4657,-0.5988,0,0,0,-0.003,0.01,0,0
2018,4,25,17,30,37.63,-0.5036,0.4132,0.4658,-0.5988,-0.5,-0.1,-0.2,0,0.011,-0.005,1023
2018,4,25,17,30,37.651,-0.5035,0.4133,0.4658,-0.5987,0,0,0,0,0.009,-0.005,1023
2018,4,25,17,30,37.689,-0.5035,0.4133,0.4658,-0.5987,0,0,0,-0.001,0.008,-0.002,1023
2018,4,25,17,30,37.709,-0.5035,0.4133,0.4658,-0.5987,0,0,0,0,0.015,0,1023
2018,4,25,17,30,37.714,-0.5035,0.4133,0.4658,-0.5987,0,0,0,-0.001,0.014,-0.003,1023
2018,4,25,17,30,37.754,-0.5035,0.4133,0.4659,-0.5987,0,0,0,0.001,0.01,-0.01,1023
