ax,ay,az,dpitch,droll,dyaw,heart,time_1,time_2,time_3,time_4,time_5,time_6,w,x,y,z
0.666,-0.52,-0.143,41.4,33.6,185.3,0,2018,5,17,22,31,43.008,-0.0009,-0.5925,-0.5784,0.5606
0.67,-0.423,-0.009,81.7,65.8,125.7,0,2018,5,17,22,31,43.031,0.0141,-0.5705,-0.588,0.573
0.656,-0.299,0.112,116.2,9.4,64.4,0,2018,5,17,22,31,43.039,0.0166,-0.5508,-0.5931,0.5868
0.294,-0.341,0.083,138.5,-16.9,27,0,2018,5,17,22,31,43.077,0.0072,-0.533,-0.5984,0.598
0.103,-0.708,-0.207,160.2,-17.1,-25.6,0,2018,5,17,22,31,43.077,-0.01,-0.5167,-0.6002,0.6102
0.192,-0.667,-0.039,157.2,27.7,-65,0,2018,5,17,22,31,43.1,-0.0318,-0.5045,-0.5949,0.6248
0.033,-0.379,0.15,140.2,67.9,-98.4,0,2018,5,17,22,31,43.119,-0.0517,-0.4969,-0.5808,0.6426
-0.109,-0.097,0.087,129.3,73.6,-118.8,0,2018,5,17,22,31,43.143,-0.0713,-0.4935,-0.5615,0.6602
0.055,-0.065,-0.08,121.7,62.1,-127.1,0,2018,5,17,22,31,43.16,-0.0915,-0.4916,-0.5415,0.6757
0.014,-0.067,0.129,113.8,48.2,-124,0,2018,5,17,22,31,43.176,-0.1125,-0.4902,-0.522,0.6887
-0.19,0.055,0.281,103.8,9.4,-124.6,0,2018,5,17,22,31,43.199,-0.1346,-0.4888,-0.5051,0.6983
-0.048,0.035,0.233,93.8,-30.5,-121.1,0,2018,5,17,22,31,43.237,-0.1593,-0.4871,-0.4934,0.7027
0.181,0.004,0.13,87.3,-53.8,-118.6,0,2018,5,17,22,31,43.26,-0.1854,-0.4851,-0.4853,0.7033
0.123,-0.137,0.098,86.4,-60.3,-112.2,0,2018,5,17,22,31,43.265,-0.2118,-0.482,-0.4798,0.7017
-0.104,-0.183,0.204,78.9,-55.7,-110.3,1023,2018,5,17,22,31,43.282,-0.2374,-0.4787,-0.4742,0.6996
-0.14,-0.277,0.174,68.3,-37.2,-105.7,1023,2018,5,17,22,31,43.299,-0.2606,-0.4767,-0.4676,0.6972
-0.194,-0.367,0.077,61.5,-12.7,-101.9,1023,2018,5,17,22,31,43.322,-0.2805,-0.476,-0.4586,0.6958
-0.22,-0.47,0.057,50.7,19.9,-101.4,1023,2018,5,17,22,31,43.34,-0.2969,-0.4774,-0.4468,0.6958
-0.405,-0.48,0.007,35.9,63.4,-103.8,1023,2018,5,17,22,31,43.364,-0.3089,-0.4823,-0.4306,0.6974
-0.506,-0.371,-0.112,20,94.5,-106.3,1023,2018,5,17,22,31,43.385,-0.3171,-0.4911,-0.4103,0.6998
-0.573,-0.368,-0.237,12.5,115,-114.6,1023,2018,5,17,22,31,43.401,-0.3227,-0.5027,-0.3866,0.7025
-0.548,-0.296,-0.303,9.6,141.7,-114.1,1023,2018,5,17,22,31,43.438,-0.326,-0.5161,-0.3599,0.7054
-0.527,-0.246,-0.257,2.4,165.4,-108.5,1023,2018,5,17,22,31,43.461,-0.3258,-0.5308,-0.33,0.7092
-0.559,0.067,-0.068,-16.1,150,-99.9,1023,2018,5,17,22,31,43.466,-0.3234,-0.5464,-0.3007,0.7116
-0.622,0.099,-0.002,-33.8,114,-85.4,1023,2018,5,17,22,31,43.481,-0.3208,-0.5615,-0.2766,0.7107
-0.561,0.117,0.13,-59.6,107.7,-57.9,1023,2018,5,17,22,31,43.519,-0.3167,-0.5766,-0.2588,0.7071
-0.49,0.088,0.142,-83.3,108.2,-33,1023,2018,5,17,22,31,43.541,-0.308,-0.5934,-0.2446,0.7021
-0.312,0.023,-0.191,-104.2,77.1,-19.6,1023,2018,5,17,22,31,43.545,-0.2973,-0.6111,-0.2353,0.6947
-0.213,0.046,-0.451,-113.3,52.4,2.1,1023,2018,5,17,22,31,43.563,-0.2872,-0.6279,-0.2326,0.6849
-0.28,0.012,-0.231,-121.6,78.9,44.1,1023,2018,5,17,22,31,43.582,-0.2731,-0.6437,-0.2337,0.6755
-0.153,0.107,-0.121,-138.7,132.5,87.5,0,2018,5,17,22,31,43.602,-0.2471,-0.6614,-0.2343,0.6682
-0.038,0.226,-0.169,-149.1,137.5,123.2,0,2018,5,17,22,31,43.641,-0.2127,-0.6794,-0.2365,0.6611
-0.017,0.212,-0.304,-144.9,114.4,149.1,0,2018,5,17,22,31,43.665,-0.1755,-0.6949,-0.2436,0.6532
-0.044,0.198,-0.331,-132.2,105.4,172.4,0,2018,5,17,22,31,43.669,-0.1382,-0.7066,-0.2549,0.6454
-0.084,0.288,-0.232,-122.5,109.1,199.9,0,2018,5,17,22,31,43.683,-0.0981,-0.7144,-0.2685,0.6385
0.012,0.286,-0.301,-121.8,85,221.8,0,2018,5,17,22,31,43.72,-0.0565,-0.7191,-0.2859,0.6307
-0.011,0.238,-0.379,-114.4,59.1,230,0,2018,5,17,22,31,43.743,-0.0167,-0.7207,-0.3074,0.621
0.025,0.226,-0.387,-105.3,48.7,240.3,0,2018,5,17,22,31,43.747,0.0212,-0.7194,-0.3312,0.61
0.089,0.109,-0.404,-87.8,35.8,246.7,0,2018,5,17,22,31,43.765,0.0584,-0.7146,-0.3566,0.5989
0.335,0.233,-0.386,-66.8,-4.4,237.2,0,2018,5,17,22,31,43.783,0.0904,-0.7068,-0.3838,0.5872
0.362,0.455,-0.231,-49,-42.6,233,0,2018,5,17,22,31,43.804,0.1146,-0.6968,-0.4141,0.5742
0.255,0.281,-0.216,-34.4,-34.2,227.8,0,2018,5,17,22,31,43.843,0.1355,-0.6845,-0.4452,0.5611
0.375,0.18,-0.32,-4.1,-6.1,204.6,0,2018,5,17,22,31,43.865,0.1558,-0.6695,-0.4721,0.5517
0.298,-0.191,-0.373,33.6,-12.2,179,0,2018,5,17,22,31,43.87,0.1721,-0.6519,-0.4953,0.5476
0.348,0.069,-0.3,61.9,-43.2,158.2,0,2018,5,17,22,31,43.884,0.1805,-0.6333,-0.5183,0.5455
0.289,0.068,-0.298,81.1,-47.9,135,0,2018,5,17,22,31,43.902,0.182,-0.6147,-0.5408,0.5443
0.245,-0.051,-0.317,99.3,-20.8,118.5,0,2018,5,17,22,31,43.924,0.1816,-0.5953,-0.5601,0.5466
0.141,-0.211,-0.443,124.3,-26.1,93.3,1023,2018,5,17,22,31,43.942,0.1784,-0.5747,-0.5759,0.5532
0.144,-0.08,-0.367,146.9,-62.7,76.3,1023,2018,5,17,22,31,43.965,0.1682,-0.5543,-0.5926,0.5596
0.145,-0.158,-0.222,159.2,-75.6,56.6,1023,2018,5,17,22,31,44.001,0.1514,-0.5345,-0.6102,0.5647
0.079,-0.275,-0.178,165.6,-53.1,40.1,1023,2018,5,17,22,31,44.022,0.1324,-0.5151,-0.6258,0.5704
0.09,-0.309,-0.001,167.4,-41.1,6.8,1023,2018,5,17,22,31,44.029,0.1133,-0.4964,-0.636,0.5798
0.087,-0.248,0.221,159.2,-79.5,-23,1023,2018,5,17,22,31,44.045,0.0889,-0.4815,-0.6443,0.5874
0.225,-0.533,0.233,132.1,-73.7,-54.9,1023,2018,5,17,22,31,44.069,0.0615,-0.4722,-0.6514,0.5906
0.206,-0.554,0.22,115.6,-16.1,-87.7,1023,2018,5,17,22,31,44.086,0.0363,-0.4681,-0.6513,0.596
0.081,-0.485,0.225,108.3,35.4,-111.4,1023,2018,5,17,22,31,44.109,0.0144,-0.4676,-0.6422,0.607
0.147,-0.485,0.146,106,21.8,-134.3,1023,2018,5,17,22,31,44.145,-0.0079,-0.47,-0.6289,0.6192
0.135,-0.412,0.096,102.8,-12.5,-154.7,1023,2018,5,17,22,31,44.167,-0.0347,-0.4745,-0.616,0.6277
-0.029,-0.414,0.098,109.7,-25.1,-166,1023,2018,5,17,22,31,44.172,-0.0657,-0.4798,-0.6042,0.6327
-0.147,-0.427,0.2,106.2,9.5,-171.1,1023,2018,5,17,22,31,44.187,-0.0966,-0.4852,-0.5894,0.6385
-0.053,-0.392,0.149,87.7,26.6,-177.5,1023,2018,5,17,22,31,44.224,-0.1242,-0.4924,-0.5699,0.6459
-0.027,-0.241,-0.107,78,-15,-177.7,1023,2018,5,17,22,31,44.246,-0.1517,-0.5008,-0.5513,0.6496
-0.301,-0.249,-0.025,75.5,-59.5,-167.1,1023,2018,5,17,22,31,44.251,-0.1825,-0.5074,-0.5384,0.6475
-0.527,-0.494,-0.039,68,-28.8,-156.6,1023,2018,5,17,22,31,44.269,-0.2117,-0.5125,-0.527,0.6439
-0.582,-0.498,-0.325,58.6,25,-153.8,0,2018,5,17,22,31,44.287,-0.2344,-0.5196,-0.5101,0.644
-0.614,-0.302,-0.461,56.4,35.9,-150.3,0,2018,5,17,22,31,44.311,-0.2536,-0.528,-0.4896,0.6457
-0.666,-0.286,-0.371,60.8,40.8,-143.2,0,2018,5,17,22,31,44.328,-0.272,-0.5353,-0.469,0.6475
-0.676,-0.207,-0.308,54.5,89.9,-129.2,0,2018,5,17,22,31,44.351,-0.2858,-0.5427,-0.4458,0.6517
-0.665,-0.085,-0.389,43.7,116.3,-122.8,0,2018,5,17,22,31,44.369,-0.2933,-0.552,-0.4188,0.6586
-0.463,0.15,-0.426,33,96,-120.8,0,2018,5,17,22,31,44.392,-0.2998,-0.5619,-0.3924,0.6635
-0.422,0.108,-0.262,26.1,77,-116.3,0,2018,5,17,22,31,44.41,-0.3073,-0.5706,-0.3693,0.6659
-0.516,0.24,0.03,1.9,90.6,-102.1,0,2018,5,17,22,31,44.429,-0.3128,-0.5802,-0.3475,0.6668
-0.529,0.143,0.144,-23.8,103.5,-83,0,2018,5,17,22,31,44.446,-0.3125,-0.5924,-0.3268,0.6667
-0.329,0.275,0.073,-44.4,77,-59.1,0,2018,5,17,22,31,44.469,-0.3095,-0.6056,-0.3103,0.6641
-0.221,0.323,-0.115,-58,35.5,-13.8,0,2018,5,17,22,31,44.488,-0.3051,-0.6163,-0.3025,0.6598
-0.296,0.189,-0.001,-90.1,33.3,38.8,0,2018,5,17,22,31,44.51,-0.2967,-0.6254,-0.3044,0.6542
-0.241,0.213,-0.29,-138.6,76.5,117.2,0,2018,5,17,22,31,44.548,-0.2535,-0.6489,-0.3209,0.6415
-0.171,0.291,-0.411,-150.5,60.5,151.5,0,2018,5,17,22,31,44.569,-0.2218,-0.6602,-0.3344,0.6347
-0.135,0.334,-0.401,-157.1,16,173.7,0,2018,5,17,22,31,44.571,-0.19,-0.6688,-0.3544,0.6252
-0.118,0.245,-0.321,-156.2,-14.6,188.6,0,2018,5,17,22,31,44.607,-0.1608,-0.674,-0.3806,0.6123
-0.141,0.14,-0.219,-154.3,-2.2,206.9,0,2018,5,17,22,31,44.631,-0.1307,-0.6763,-0.409,0.5983
-0.036,0.209,-0.138,-163.3,26.1,227.1,0,2018,5,17,22,31,44.634,-0.095,-0.6769,-0.4362,0.5851
0.066,0.245,-0.281,-165.1,23.8,247.1,0,2018,5,17,22,31,44.651,-0.0547,-0.6753,-0.4636,0.5709
0.082,0.252,-0.34,-141.4,-12.1,249.9,1023,2018,5,17,22,31,44.667,-0.0165,-0.6698,-0.4929,0.555
0.077,0.158,-0.21,-112.1,-32.1,255.3,1023,2018,5,17,22,31,44.69,0.0154,-0.6594,-0.5247,0.538
0.117,-0.227,-0.317,-94.6,-1.1,252.6,1023,2018,5,17,22,31,44.728,0.0466,-0.6449,-0.5549,0.5234
0.296,-0.099,-0.343,-67.4,7.8,229.3,1023,2018,5,17,22,31,44.75,0.076,-0.6287,-0.5805,0.5116
0.29,-0.119,-0.255,-41.5,18.2,216.4,1023,2018,5,17,22,31,44.755,0.1032,-0.6102,-0.6025,0.5038
0.276,0,-0.091,-17.4,26.4,199.4,1023,2018,5,17,22,31,44.773,0.1264,-0.5901,-0.6217,0.4991
0.301,0.096,-0.154,4.4,22.9,184.4,1023,2018,5,17,22,31,44.791,0.1466,-0.569,-0.6385,0.4968
0.264,-0.133,-0.439,48,-51.7,145.2,1023,2018,5,17,22,31,44.814,0.1565,-0.5486,-0.6562,0.4937
0.25,-0.329,-0.321,84.2,-94.6,115.4,1023,2018,5,17,22,31,44.831,0.1518,-0.53,-0.6773,0.487
0.309,-0.271,-0.222,100.2,-64.2,92.7,1023,2018,5,17,22,31,44.853,0.1414,-0.512,-0.6962,0.4827
0.5,-0.256,-0.296,120.3,-30.5,65,1023,2018,5,17,22,31,44.89,0.1306,-0.494,-0.7095,0.4851
0.52,-0.357,-0.268,148,-22.4,29.6,1023,2018,5,17,22,31,44.91,0.1155,-0.477,-0.719,0.4919
0.373,-0.44,0.004,159.1,6.8,-6.6,1023,2018,5,17,22,31,44.917,0.0956,-0.4623,-0.7241,0.5027
0.278,-0.385,0.052,161.7,60.4,-39.9,1023,2018,5,17,22,31,44.953,0.0759,-0.4503,-0.7215,0.5203
0.431,-0.283,0.026,162.7,72.2,-73.8,1023,2018,5,17,22,31,44.977,0.0558,-0.4416,-0.7125,0.5422
0.357,-0.319,0.108,170.4,54.3,-107.4,1023,2018,5,17,22,31,44.982,0.031,-0.4361,-0.7012,0.5631
0.1,-0.349,0.284,161.3,59.4,-133.2,0,2018,5,17,22,31,44.995,0.0025,-0.4338,-0.6874,0.5824
0.159,-0.305,0.113,140.3,96.1,-144.7,0,2018,5,17,22,31,45.029,-0.0239,-0.4347,-0.6687,0.6026
0.021,-0.775,0.283,103.8,159.3,-165.8,0,2018,5,17,22,31,45.052,-0.0448,-0.4398,-0.6431,0.6252
-0.076,-0.317,0.272,79.1,181.6,-205.9,0,2018,5,17,22,31,45.057,-0.0608,-0.4524,-0.607,0.6504
-0.071,-0.132,0.178,68.2,58.9,-211,0,2018,5,17,22,31,45.074,-0.0837,-0.4672,-0.5762,0.6652
0.134,-0.005,-0.035,69.6,-10.8,-208,0,2018,5,17,22,31,45.096,-0.1132,-0.4801,-0.5552,0.6696
0.132,0.119,0.003,81,-104.9,-192.7,0,2018,5,17,22,31,45.114,-0.149,-0.4895,-0.5436,0.6652
-0.145,-0.023,0.083,94.1,-149.4,-167.2,0,2018,5,17,22,31,45.137,-0.1902,-0.4924,-0.5407,0.6549
-0.346,-0.259,0.075,86.3,-78.6,-138.6,0,2018,5,17,22,31,45.155,-0.2266,-0.492,-0.5376,0.6461
-0.426,-0.351,-0.187,67.2,2.5,-112.5,0,2018,5,17,22,31,45.178,-0.2503,-0.4936,-0.5271,0.6447
-0.508,-0.304,-0.168,59.9,0.7,-98.3,0,2018,5,17,22,31,45.193,-0.2673,-0.4964,-0.5144,0.646
-0.656,-0.471,-0.148,58.8,-14.4,-95.2,0,2018,5,17,22,31,45.232,-0.2843,-0.4978,-0.5042,0.6457
-0.736,-0.536,-0.192,49.6,-3.4,-104.5,0,2018,5,17,22,31,45.254,-0.3011,-0.4998,-0.4935,0.6449
-0.688,-0.439,-0.303,40,5,-109.7,0,2018,5,17,22,31,45.258,-0.317,-0.5039,-0.4813,0.6432
-0.649,-0.453,-0.307,28.4,74.5,-107.1,0,2018,5,17,22,31,45.275,-0.329,-0.5111,-0.4656,0.6431
-0.647,-0.285,-0.244,19.5,128.8,-110.2,0,2018,5,17,22,31,45.314,-0.3328,-0.5234,-0.4417,0.6481
-0.602,0.069,-0.17,11.4,103.9,-102,0,2018,5,17,22,31,45.314,-0.3349,-0.5367,-0.417,0.6524
-0.379,0.147,-0.349,7.2,60.3,-88.6,0,2018,5,17,22,31,45.336,-0.3393,-0.547,-0.3985,0.6532
-0.381,0.057,-0.221,-4.1,71.5,-73.2,1023,2018,5,17,22,31,45.374,-0.343,-0.5558,-0.3835,0.6528
-0.531,0.34,0.168,-29.8,64.7,-49.6,1023,2018,5,17,22,31,45.394,-0.3413,-0.5664,-0.3698,0.6525
-0.505,0.177,0.125,-63.3,28.1,-14.2,1023,2018,5,17,22,31,45.397,-0.3373,-0.5763,-0.3644,0.649
-0.116,0.297,-0.414,-91,24,16.4,1023,2018,5,17,22,31,45.434,-0.3298,-0.5865,-0.3664,0.6425
-0.064,-0.015,-0.729,-96.2,50.2,34.7,1023,2018,5,17,22,31,45.437,-0.3174,-0.5972,-0.3706,0.6365
-0.173,0.053,-0.13,-111.1,128,47.7,1023,2018,5,17,22,31,45.454,-0.2966,-0.6109,-0.3699,0.6339
-0.305,0.202,0.296,-150,163,72.3,1023,2018,5,17,22,31,45.475,-0.2655,-0.6289,-0.366,0.6324
-0.215,0.273,-0.053,-183.5,146.1,94.2,1023,2018,5,17,22,31,45.513,-0.2279,-0.649,-0.3651,0.6272
-0.124,0.286,-0.368,-188.8,112.5,119.7,1023,2018,5,17,22,31,45.535,-0.1896,-0.6672,-0.37,0.6179
0.007,0.19,-0.424,-185.5,79.3,141.8,1023,2018,5,17,22,31,45.538,-0.1524,-0.6812,-0.3812,0.606
0.016,0.162,-0.325,-185.4,78.1,159.1,1023,2018,5,17,22,31,45.573,-0.115,-0.6921,-0.3954,0.5927
0.047,0.158,-0.341,-186.2,86.1,176,1023,2018,5,17,22,31,45.594,-0.075,-0.7006,-0.4104,0.5787
0.116,0.173,-0.348,-187.7,118,193.1,1023,2018,5,17,22,31,45.597,-0.0306,-0.7068,-0.4244,0.565
0.178,0.221,-0.43,-177.2,148.8,210.7,1023,2018,5,17,22,31,45.634,0.0195,-0.7097,-0.4362,0.5528
0.282,0.315,-0.448,-151.9,151.4,218.8,1023,2018,5,17,22,31,45.654,0.0715,-0.7075,-0.447,0.5425
0.377,0.275,-0.592,-122.3,156.2,218.3,1023,2018,5,17,22,31,45.66,0.1214,-0.7006,-0.457,0.5343
0.471,0.203,-0.396,-92.8,148.1,204.9,1023,2018,5,17,22,31,45.697,0.1683,-0.6895,-0.4655,0.5286
0.502,0.309,-0.205,-54.5,119.7,201.1,1023,2018,5,17,22,31,45.718,0.2088,-0.6754,-0.4747,0.5242
0.374,0.061,-0.094,-3.7,58,173.4,0,2018,5,17,22,31,45.72,0.2386,-0.6588,-0.487,0.5213
0.453,0.06,0.03,27,-5.5,135.9,0,2018,5,17,22,31,45.756,0.2531,-0.6439,-0.5026,0.5181
0.423,0,0.032,49.6,-21.8,112.7,0,2018,5,17,22,31,45.777,0.2582,-0.6305,-0.5191,0.5159
0.163,-0.145,0.174,47.2,-17.5,93.5,0,2018,5,17,22,31,45.781,0.2598,-0.618,-0.5343,0.5147
-0.003,-0.852,0.171,35,27.2,44.9,0,2018,5,17,22,31,45.798,0.2627,-0.6075,-0.5429,0.5167
0.152,-0.588,0.069,23.4,81.3,4.3,0,2018,5,17,22,31,45.817,0.2681,-0.6002,-0.5415,0.5239
0.129,-0.441,0.024,10.7,117.7,-19.3,0,2018,5,17,22,31,45.856,0.2769,-0.5939,-0.5318,0.5363
0.086,-0.15,0.037,-4.2,136.1,-32.4,0,2018,5,17,22,31,45.878,0.2886,-0.5891,-0.5165,0.5501
-0.046,-0.247,-0.042,1.8,93.3,-46.6,0,2018,5,17,22,31,45.882,0.2973,-0.5866,-0.5011,0.5623
-0.109,-0.157,0.017,0.9,52,-50.8,0,2018,5,17,22,31,45.919,0.3006,-0.5863,-0.4903,0.5704
-0.098,-0.255,0.007,-7.9,70.2,-55.3,0,2018,5,17,22,31,45.941,0.3024,-0.5875,-0.4797,0.5771
-0.003,-0.11,-0.073,-11.9,115.2,-54.4,0,2018,5,17,22,31,45.946,0.3084,-0.5874,-0.4646,0.5863
-0.011,0.136,-0.05,-10.3,120.9,-50,0,2018,5,17,22,31,45.962,0.3165,-0.5864,-0.4464,0.5971
-0.006,0.207,-0.01,-0.2,73.2,-45.7,0,2018,5,17,22,31,45.978,0.3215,-0.5856,-0.4308,0.6066
-0.084,0.025,-0.031,3.8,56.1,-36.4,0,2018,5,17,22,31,46.017,0.323,-0.5851,-0.4208,0.6132
-0.097,-0.043,-0.001,-4.7,92.8,-32.4,0,2018,5,17,22,31,46.017,0.3278,-0.583,-0.4102,0.6199
-0.037,0.1,-0.037,-19.1,110.2,-29.7,0,2018,5,17,22,31,46.04,0.3363,-0.5803,-0.3954,0.6274
-0.064,0.126,-0.083,-22.1,90.8,-27,0,2018,5,17,22,31,46.077,0.345,-0.5789,-0.38,0.6334
-0.171,0.095,-0.073,-21.4,42.8,-25.5,1023,2018,5,17,22,31,46.1,0.3501,-0.5793,-0.3683,0.6372
-0.184,0.047,-0.042,-15,-21.1,-27.5,1023,2018,5,17,22,31,46.105,0.3492,-0.5827,-0.3633,0.6375
-0.13,0.088,-0.066,-6.3,-69.4,-27.1,1023,2018,5,17,22,31,46.123,0.3421,-0.5885,-0.3655,0.6347
-0.117,0.154,-0.079,1.9,-91,-21.4,1023,2018,5,17,22,31,46.147,0.3313,-0.5954,-0.3729,0.6296
-0.104,0.207,-0.057,6.9,-82.9,-9.2,1023,2018,5,17,22,31,46.164,0.32,-0.6014,-0.382,0.6244
-0.118,0.138,-0.019,6.3,-45.2,7.3,1023,2018,5,17,22,31,46.202,0.3132,-0.6042,-0.3901,0.6201
-0.049,0.12,-0.05,9.4,-21,21,1023,2018,5,17,22,31,46.226,0.3114,-0.6041,-0.3956,0.6176
-0.017,0.036,-0.085,10.6,-30.6,25.2,1023,2018,5,17,22,31,46.23,0.3106,-0.6031,-0.4016,0.6151
-0.007,-0.002,-0.086,12.5,-42.2,21.7,1023,2018,5,17,22,31,46.244,0.3084,-0.6026,-0.4092,0.6116
-0.002,-0.041,-0.037,12.1,-37.9,17,1023,2018,5,17,22,31,46.26,0.3054,-0.6022,-0.417,0.6083
0.001,-0.022,-0.012,10.2,-26.4,12.2,1023,2018,5,17,22,31,46.283,0.3031,-0.6016,-0.4227,0.606
0.025,0.01,-0.03,9.6,-24.8,8.7,1023,2018,5,17,22,31,46.321,0.301,-0.6013,-0.427,0.6044
0.036,0.003,-0.049,10.7,-25.6,7.2,1023,2018,5,17,22,31,46.345,0.2983,-0.6013,-0.4311,0.6029
0.056,0.039,-0.05,8.6,-26.4,6.6,1023,2018,5,17,22,31,46.349,0.2952,-0.6015,-0.4351,0.6013
0.051,0.112,-0.051,8.3,-36.2,6,1023,2018,5,17,22,31,46.365,0.2917,-0.6022,-0.4394,0.5992
0.023,0.118,0.002,10,-54.6,5,1023,2018,5,17,22,31,46.384,0.2862,-0.6037,-0.445,0.5962
0.079,0.186,0,15.4,-79.8,4.3,1023,2018,5,17,22,31,46.404,0.278,-0.6059,-0.4523,0.5923
0.128,0.258,-0.091,22.5,-122.5,4.4,1023,2018,5,17,22,31,46.443,0.266,-0.6085,-0.4636,0.5864
0.139,0.441,0.059,19.9,-192.5,7.5,0,2018,5,17,22,31,46.465,0.2479,-0.6132,-0.4809,0.5754
0.03,0.237,0.152,16.5,-249.9,8.5,0,2018,5,17,22,31,46.47,0.2227,-0.62,-0.5045,0.5579
-0.047,-0.027,0.08,11.6,-276,4.1,0,2018,5,17,22,31,46.486,0.1931,-0.6277,-0.5308,0.5355
0.006,-0.189,-0.078,3.6,-241.9,5.7,0,2018,5,17,22,31,46.508,0.1646,-0.6344,-0.5558,0.5113
0.091,-0.09,-0.094,-5.5,-194.6,1.2,0,2018,5,17,22,31,46.525,0.1419,-0.6398,-0.575,0.4896
0.068,0.076,-0.074,-9.4,-193.3,-7.3,0,2018,5,17,22,31,46.543,0.1204,-0.6457,-0.5901,0.4692
0.049,0.044,-0.051,-4.4,-213.4,-8.2,0,2018,5,17,22,31,46.565,0.0966,-0.6516,-0.6053,0.4466
0.056,-0.021,-0.03,0.3,-207.3,-2.9,0,2018,5,17,22,31,46.603,0.0719,-0.6557,-0.6208,0.4235
0.139,0.142,-0.036,-2.8,-194.9,-0.8,0,2018,5,17,22,31,46.626,0.049,-0.6582,-0.6348,0.4016
0.161,0.284,-0.081,-5.2,-207.8,8.2,0,2018,5,17,22,31,46.63,0.0267,-0.6594,-0.6487,0.3788
0.024,0.057,-0.222,-2.9,-201.4,21.6,0,2018,5,17,22,31,46.647,0.0041,-0.6584,-0.664,0.3541
-0.017,-0.236,-0.354,1,-132,24.6,0,2018,5,17,22,31,46.686,-0.0132,-0.6559,-0.6772,0.3331
-0.037,-0.146,-0.218,-2,-33.3,23.2,0,2018,5,17,22,31,46.709,-0.0202,-0.6528,-0.6845,0.3237
-0.059,-0.034,-0.175,2.5,3,21.6,0,2018,5,17,22,31,46.713,-0.019,-0.6501,-0.6881,0.3216
-0.048,-0.024,-0.153,10.5,0.3,16.7,0,2018,5,17,22,31,46.726,-0.0176,-0.6476,-0.6904,0.3217
-0.054,-0.065,-0.076,18,-8.9,15.3,0,2018,5,17,22,31,46.744,-0.0182,-0.6449,-0.6928,0.3219
-0.056,-0.08,-0.025,20.2,-2.9,15.5,0,2018,5,17,22,31,46.767,-0.0194,-0.6418,-0.6951,0.323
-0.084,-0.05,0.013,16.4,5.2,15.5,0,2018,5,17,22,31,46.804,-0.0194,-0.6387,-0.697,0.3251
-0.095,-0.02,0.023,11.9,6,12.8,0,2018,5,17,22,31,46.827,-0.0184,-0.636,-0.6986,0.3271
-0.055,-0.013,-0.005,9.8,8.5,8.6,0,2018,5,17,22,31,46.832,-0.0176,-0.6341,-0.6996,0.3287
-0.051,0.015,0.01,8.1,18,5.9,0,2018,5,17,22,31,46.85,-0.0162,-0.6327,-0.6998,0.3308
-0.01,0.037,0.01,7.7,23.9,4.9,1023,2018,5,17,22,31,46.869,-0.0141,-0.6318,-0.6993,0.3339
0.019,0.112,0.057,4.7,20.5,5.7,1023,2018,5,17,22,31,46.892,-0.0123,-0.631,-0.6984,0.3372
0.064,0.108,0.02,1,10.3,6,1023,2018,5,17,22,31,46.909,-0.0108,-0.6302,-0.6981,0.3393
0.08,0.047,-0.091,1.5,7.7,4.2,1023,2018,5,17,22,31,46.929,-0.0102,-0.6298,-0.6981,0.3402
0.039,0.107,-0.14,7.7,-5.3,3.6,1023,2018,5,17,22,31,46.968,-0.0109,-0.6294,-0.6983,0.3404
0.043,0.055,-0.177,15.6,-17.6,5.4,1023,2018,5,17,22,31,46.968,-0.0137,-0.6283,-0.6995,0.3399
0.039,-0.017,-0.162,23.1,-3.6,5.3,1023,2018,5,17,22,31,46.99,-0.0173,-0.6268,-0.7009,0.3397
0.016,-0.048,-0.1,29.1,15.8,5.6,1023,2018,5,17,22,31,47.009,-0.0191,-0.6247,-0.7011,0.343
-0.043,-0.083,0.013,32.2,20,7.8,1023,2018,5,17,22,31,47.046,-0.0198,-0.6219,-0.7008,0.3487
-0.087,-0.125,0.134,29.3,22,8,1023,2018,5,17,22,31,47.046,-0.0208,-0.6191,-0.7001,0.3549
-0.105,-0.08,0.239,20.5,36.4,10.5,1023,2018,5,17,22,31,47.069,-0.0204,-0.6166,-0.6991,0.3613
-0.069,-0.035,0.285,7.8,64.7,15.5,1023,2018,5,17,22,31,47.107,-0.0161,-0.6144,-0.697,0.3692
-0.026,0.011,0.331,-10,98.2,20.7,1023,2018,5,17,22,31,47.129,-0.0059,-0.6124,-0.6934,0.3794
-0.02,0.191,0.292,-26,93.7,20.2,1023,2018,5,17,22,31,47.134,0.0082,-0.6113,-0.6886,0.3898
0.005,0.311,0.237,-40.7,44.1,24.7,1023,2018,5,17,22,31,47.149,0.0211,-0.6108,-0.686,0.3945
0.083,0.162,0.031,-47,6.8,28,1023,2018,5,17,22,31,47.172,0.0305,-0.6107,-0.687,0.3924
0.036,0.119,-0.119,-44.3,-0.1,28.9,1023,2018,5,17,22,31,47.209,0.038,-0.6105,-0.6895,0.3876
-0.032,0.146,-0.148,-38.2,-13.1,29.2,1023,2018,5,17,22,31,47.232,0.0444,-0.6098,-0.6926,0.3825
-0.089,0.033,-0.144,-27.2,-39.1,24.1,0,2018,5,17,22,31,47.237,0.0471,-0.609,-0.697,0.3755
-0.11,-0.051,-0.151,-20.8,-38.9,19.4,0,2018,5,17,22,31,47.253,0.0468,-0.6084,-0.7015,0.368
-0.063,-0.082,-0.16,-18.6,-13.8,15.7,0,2018,5,17,22,31,47.276,0.0476,-0.6077,-0.705,0.3623
-0.013,0,-0.098,-17.1,4.6,11.4,0,2018,5,17,22,31,47.292,0.051,-0.6072,-0.7067,0.3592
-0.006,0.033,-0.1,-13.5,-12.1,4.6,0,2018,5,17,22,31,47.31,0.0533,-0.6074,-0.7078,0.3564
0.01,0.005,-0.132,-9.6,-38.6,-2.1,0,2018,5,17,22,31,47.332,0.0519,-0.6085,-0.7097,0.3509
0.084,-0.053,-0.209,-4.4,-43.6,-8,0,2018,5,17,22,31,47.351,0.0477,-0.6102,-0.7119,0.3441
0.116,-0.056,-0.221,3.8,-34.6,-13,0,2018,5,17,22,31,47.372,0.0425,-0.6122,-0.713,0.3387
0.099,-0.058,-0.162,13.4,-23.8,-12.8,0,2018,5,17,22,31,47.407,0.0371,-0.6138,-0.7133,0.3359
0.097,-0.035,-0.151,18.7,-14,-12.5,0,2018,5,17,22,31,47.431,0.0321,-0.6147,-0.7132,0.3351
0.086,-0.056,-0.145,23.5,-11.9,-15.8,0,2018,5,17,22,31,47.436,0.027,-0.6155,-0.7124,0.3356
0.046,-0.132,-0.072,29.1,-3.9,-17.3,0,2018,5,17,22,31,47.455,0.0219,-0.6161,-0.7112,0.3376
-0.034,-0.127,0.045,31.6,8.5,-14.8,0,2018,5,17,22,31,47.473,0.0183,-0.616,-0.7094,0.3417
-0.103,-0.128,0.129,31,20.7,-13.2,0,2018,5,17,22,31,47.495,0.0151,-0.6159,-0.7069,0.3473
-0.129,-0.082,0.168,27.8,28.7,-14.2,0,2018,5,17,22,31,47.513,0.0132,-0.6157,-0.7038,0.3538
-0.056,0.003,0.144,21.6,35.6,-16.1,0,2018,5,17,22,31,47.532,0.013,-0.6159,-0.7001,0.3609
0.002,0.091,0.128,13.8,43.3,-13.2,0,2018,5,17,22,31,47.555,0.0141,-0.6165,-0.6958,0.3679
-0.007,0.116,0.125,7.5,56.1,-6.9,0,2018,5,17,22,31,47.573,0.0172,-0.617,-0.6914,0.3753
-0.022,0.2,0.092,3.4,51,-1.7,0,2018,5,17,22,31,47.596,0.0219,-0.6172,-0.6871,0.3825
-0.005,0.246,0.03,-1,16.6,1.2,1023,2018,5,17,22,31,47.614,0.0255,-0.617,-0.6848,0.3867
0.025,0.109,-0.091,-3.5,-8,1.9,1023,2018,5,17,22,31,47.636,0.0258,-0.6171,-0.6847,0.3867
-0.015,-0.002,-0.078,-5.3,13.9,3.2,1023,2018,5,17,22,31,47.654,0.0264,-0.6173,-0.6852,0.3854
-0.046,-0.021,-0.066,-4.5,48.9,4.1,1023,2018,5,17,22,31,47.677,0.0313,-0.6172,-0.6836,0.388
-0.002,0.021,-0.049,0,56.8,1.3,1023,2018,5,17,22,31,47.695,0.0382,-0.6167,-0.6804,0.3938
0.045,0.065,-0.016,3.9,38.5,-0.5,1023,2018,5,17,22,31,47.717,0.0428,-0.6166,-0.6771,0.3992
0.013,0.013,-0.012,6.8,42.4,3.3,1023,2018,5,17,22,31,47.736,0.0458,-0.616,-0.6746,0.4041
-0.014,-0.031,-0.009,4.4,74.9,7.7,1023,2018,5,17,22,31,47.759,0.0521,-0.6144,-0.6711,0.4114
0.011,0.042,0.006,-0.8,100.2,13.5,1023,2018,5,17,22,31,47.777,0.0626,-0.6121,-0.6658,0.4218
-0.004,0.17,0.049,-1.9,84.3,15.5,1023,2018,5,17,22,31,47.794,0.0734,-0.6098,-0.6602,0.4321
-0.039,0.152,0.066,-3.4,59.1,23.6,1023,2018,5,17,22,31,47.816,0.0818,-0.6074,-0.6568,0.4392
-0.059,0.121,0.003,0.3,48.9,29.4,1023,2018,5,17,22,31,47.834,0.0897,-0.6039,-0.6556,0.4441
-0.045,0.224,-0.003,5.1,23.6,35.4,1023,2018,5,17,22,31,47.857,0.0956,-0.5996,-0.6561,0.4479
-0.046,0.251,0.012,6.7,-20.6,41.8,1023,2018,5,17,22,31,47.893,0.0978,-0.5948,-0.66,0.4482
-0.132,0.115,-0.214,12.5,-54.1,45.5,1023,2018,5,17,22,31,47.916,0.096,-0.5898,-0.6677,0.4438
-0.124,-0.043,-0.351,27.2,-27.1,56.8,1023,2018,5,17,22,31,47.921,0.0925,-0.5832,-0.6766,0.4398
-0.072,0.059,-0.271,43.2,26.9,64.3,1023,2018,5,17,22,31,47.938,0.0933,-0.5732,-0.6828,0.4432
-0.077,0.021,-0.232,57.1,22.2,56.7,1023,2018,5,17,22,31,47.96,0.0949,-0.5615,-0.6872,0.4509
-0.233,-0.17,-0.322,72.6,-10.5,43.7,1023,2018,5,17,22,31,47.978,0.0914,-0.5503,-0.6926,0.4571
-0.304,-0.315,-0.467,89.2,-12.2,27.4,0,2018,5,17,22,31,48.001,0.0824,-0.5399,-0.6983,0.4625
-0.142,-0.361,-0.304,93.3,39.7,20.8,0,2018,5,17,22,31,48.037,0.0734,-0.5296,-0.7007,0.4722
-0.047,0.27,0.406,55.8,21.6,-2.2,0,2018,5,17,22,31,48.083,0.0699,-0.5219,-0.6991,0.4836
0.148,-0.709,-0.108,77.5,15.2,-19.5,0,2018,5,17,22,31,48.086,0.0606,-0.5174,-0.6983,0.4907
0.425,-0.312,0.402,52,111.9,-28,0,2018,5,17,22,31,48.088,0.0557,-0.5141,-0.691,0.5049
0.441,-0.143,0.298,43.5,149.1,-48.7,0,2018,5,17,22,31,48.098,0.0603,-0.513,-0.6753,0.5263
0.323,0.226,0.538,22.4,163.7,-25.7,0,2018,5,17,22,31,48.135,0.0665,-0.5125,-0.658,0.5475
0.235,0.211,0.646,-1.7,159.3,-32.9,0,2018,5,17,22,31,48.155,0.0774,-0.5129,-0.6393,0.5675
0.19,0.344,0.464,-15.3,79.3,-33.3,0,2018,5,17,22,31,48.157,0.0866,-0.5153,-0.6239,0.5809
0.151,0.396,-0.075,-31.4,3.4,-42.4,0,2018,5,17,22,31,48.195,0.0884,-0.5212,-0.6163,0.5836
-0.1,0.448,-0.352,-23,10.1,10,0,2018,5,17,22,31,48.216,0.0897,-0.5276,-0.614,0.58
-0.648,0.744,-0.516,-5.8,-55.3,21.2,0,2018,5,17,22,31,48.219,0.0923,-0.5275,-0.6167,0.5768
-0.195,0.285,-0.774,39.7,-94.9,71.7,0,2018,5,17,22,31,48.257,0.086,-0.5228,-0.6298,0.5678
-0.649,-0.083,-0.913,82.8,-48.1,85.7,0,2018,5,17,22,31,48.257,0.0808,-0.5088,-0.6443,0.5651
-0.558,-0.323,-0.427,106.3,-117.1,57.7,0,2018,5,17,22,31,48.279,0.0704,-0.4916,-0.6596,0.5639
0.049,-0.818,-0.302,104.7,-69.7,34,0,2018,5,17,22,31,48.314,0.0545,-0.4782,-0.6745,0.5597
0.061,-0.541,0.477,88.9,-34.1,4.9,0,2018,5,17,22,31,48.334,0.0403,-0.4668,-0.6811,0.5625
0.258,-1.322,0.764,58.7,116.5,-16.9,1023,2018,5,17,22,31,48.338,0.0333,-0.4594,-0.6779,0.5728
0.486,-0.141,0.587,34.9,144.6,-63.7,1023,2018,5,17,22,31,48.375,0.0352,-0.4599,-0.6603,0.5925
0.263,0.007,0.798,20.6,83.5,-73.4,1023,2018,5,17,22,31,48.395,0.0343,-0.4636,-0.643,0.6085
0.225,-0.181,0.615,-4.5,65.2,-86.9,1023,2018,5,17,22,31,48.4,0.0299,-0.4715,-0.629,0.6172
0.296,0.24,0.33,-23.5,62.1,-93.3,1023,2018,5,17,22,31,48.436,0.0268,-0.4829,-0.6138,0.6239
-0.025,0.405,0.251,-51.7,87.1,-80.3,1023,2018,5,17,22,31,48.458,0.0276,-0.4956,-0.5976,0.6295
0.541,1.211,-0.556,-65,30.7,-66,1023,2018,5,17,22,31,48.461,0.032,-0.5101,-0.5821,0.6322
-0.638,1.278,-0.619,-28.6,-22.9,9.6,1023,2018,5,17,22,31,48.496,0.0356,-0.5168,-0.5791,0.6293
-0.438,0.771,-1.051,19.5,-127.4,81,1023,2018,5,17,22,31,48.518,0.032,-0.5137,-0.5922,0.6199
-0.648,0.145,-1.197,64.7,-52.5,144.7,1023,2018,5,17,22,31,48.524,0.0296,-0.4977,-0.6138,0.612
-0.73,0.108,-1.047,111.3,-45.2,113.9,1023,2018,5,17,22,31,48.561,0.032,-0.4734,-0.6284,0.6163
-0.555,-0.207,-0.211,119.2,-183.3,81.1,1023,2018,5,17,22,31,48.564,0.019,-0.4501,-0.6496,0.6123
-0.105,-1.124,0.537,73.4,-170.7,38.6,1023,2018,5,17,22,31,48.581,-0.0022,-0.4337,-0.6755,0.5962
0.148,-0.954,0.505,36.5,-41.2,1.4,1023,2018,5,17,22,31,48.618,-0.0139,-0.4263,-0.6873,0.5878
0.529,-1.46,0.359,29.9,136.5,-23.7,1023,2018,5,17,22,31,48.641,-0.0146,-0.424,-0.681,0.5966
0.868,-0.556,0.731,22.4,112.1,-66.1,1023,2018,5,17,22,31,48.643,-0.015,-0.4283,-0.6646,0.6119
0.518,-0.204,0.869,5,115.8,-87.8,1023,2018,5,17,22,31,48.681,-0.0167,-0.4355,-0.6472,0.6254
0.35,-0.375,0.609,-11.3,161.6,-95.7,1023,2018,5,17,22,31,48.703,-0.0168,-0.4466,-0.6256,0.6393
0.481,0.092,0.169,-17.8,227.5,-100.7,1023,2018,5,17,22,31,48.705,-0.0095,-0.4596,-0.5948,0.6594
0.553,0.691,-0.233,-11.2,192.8,-101.8,0,2018,5,17,22,31,48.724,0,-0.4716,-0.5607,0.6805
-0.158,1.009,-0.018,-29.5,108.7,-63,0,2018,5,17,22,31,48.746,0.0057,-0.4807,-0.537,0.6931
-0.367,1.123,-0.565,-33,-25.6,-4.3,0,2018,5,17,22,31,48.764,0.004,-0.4891,-0.5302,0.6924
-0.689,0.737,-1.079,0.6,-85.7,20.2,0,2018,5,17,22,31,48.785,0.0002,-0.4912,-0.5383,0.6847
-0.891,0.351,-1.249,46.7,-59.4,82.2,0,2018,5,17,22,31,48.822,-0.0021,-0.4825,-0.5529,0.6792
-0.931,-0.049,-0.837,71,16.8,115.5,0,2018,5,17,22,31,48.822,0.0026,-0.4653,-0.5633,0.6826
-0.761,0.093,-0.846,117.8,17.8,105.5,0,2018,5,17,22,31,48.844,0.0085,-0.4429,-0.5691,0.6926
-0.658,0.073,-0.158,111.4,-111.6,77.1,0,2018,5,17,22,31,48.862,0.0037,-0.4199,-0.5816,0.6966
-0.129,-0.827,0.093,82.7,-98.1,66.1,0,2018,5,17,22,31,48.885,-0.0048,-0.4012,-0.6002,0.6918
-0.074,-0.562,0.267,51.4,-60.2,43,0,2018,5,17,22,31,48.903,-0.0107,-0.3879,-0.6126,0.6884
0.399,-1.183,0.469,29.3,71.9,8.6,0,2018,5,17,22,31,48.926,-0.0112,-0.3803,-0.6137,0.6917
0.839,-0.475,0.907,22.1,101.4,-33.3,0,2018,5,17,22,31,48.964,-0.01,-0.3801,-0.6009,0.703
0.745,-0.32,1.209,2.6,86.7,-50.6,0,2018,5,17,22,31,48.984,-0.0103,-0.3832,-0.5869,0.7131
0.35,-0.389,1.046,-16.9,84.2,-73.2,0,2018,5,17,22,31,48.989,-0.0121,-0.3906,-0.5724,0.7208
0.339,-0.351,0.554,-37.9,147.5,-93.3,0,2018,5,17,22,31,49.006,-0.011,-0.4027,-0.5517,0.7301
0.292,0.078,0.252,-50,150.8,-95.5,0,2018,5,17,22,31,49.028,-0.0081,-0.4181,-0.5252,0.741
0.195,0.336,-0.009,-56.8,124,-85.7,0,2018,5,17,22,31,49.044,-0.0053,-0.4335,-0.5001,0.7495
-0.466,0.569,-0.1,-76,113.9,-44.7,0,2018,5,17,22,31,49.08,-0.0014,-0.4481,-0.4804,0.7538
-0.551,0.936,-0.56,-95.2,91,-20.7,1023,2018,5,17,22,31,49.103,0.0097,-0.4629,-0.4633,0.7555
-0.737,0.974,-0.758,-72.4,-46.8,7.2,1023,2018,5,17,22,31,49.107,0.0204,-0.4752,-0.4586,0.7505
-0.446,0.352,-1.109,-24.9,-265.3,17.7,1023,2018,5,17,22,31,49.125,0.0117,-0.4816,-0.4816,0.732
-0.944,-0.148,-1.108,9.7,-159.9,98.9,1023,2018,5,17,22,31,49.147,-0.0011,-0.4774,-0.5165,0.7107
-0.546,0.296,-1.103,48.2,23,134.2,1023,2018,5,17,22,31,49.165,0.0074,-0.4631,-0.5318,0.7088
-0.571,0.13,-0.51,85.8,-13.3,129.3,1023,2018,5,17,22,31,49.188,0.0194,-0.441,-0.5396,0.7168
-0.306,-0.304,0.201,83.8,-134.6,126.6,1023,2018,5,17,22,31,49.206,0.0205,-0.4171,-0.5597,0.7157
-0.15,-0.365,0.101,76.4,-237.5,82.1,1023,2018,5,17,22,31,49.229,0.0107,-0.3978,-0.5922,0.7005
0.123,-1.615,0.213,30.2,-105,55.3,1023,2018,5,17,22,31,49.25,-0.0005,-0.3845,-0.6205,0.6834
0.803,-0.762,0.318,16.4,35.8,-4.3,1023,2018,5,17,22,31,49.267,-0.0013,-0.3798,-0.6241,0.6827
0.724,-0.409,0.964,-3.4,65.5,-29.6,1023,2018,5,17,22,31,49.291,0.0003,-0.3807,-0.6158,0.6898
0.295,-0.12,1.158,-19.8,13.9,-54.7,1023,2018,5,17,22,31,49.308,-0.0019,-0.3869,-0.6083,0.6929
0.125,0.076,1.025,-47.1,27.4,-62.5,1023,2018,5,17,22,31,49.331,-0.0047,-0.3974,-0.6024,0.6921
0.188,-0.111,0.731,-81.5,83.7,-59.4,1023,2018,5,17,22,31,49.349,-0.0015,-0.4117,-0.5919,0.6928
0.324,-0.186,0.052,-82.7,140.6,-83.9,1023,2018,5,17,22,31,49.367,0.0072,-0.429,-0.5723,0.6987
0.243,0.452,-0.187,-74.1,128.3,-58.6,1023,2018,5,17,22,31,49.391,0.0157,-0.4457,-0.5498,0.7061
-0.004,0.622,-0.307,-72.1,68.7,-30.8,1023,2018,5,17,22,31,49.408,0.0243,-0.4584,-0.5342,0.7097
-0.817,0.639,-0.073,-67.6,-24.2,-30.5,1023,2018,5,17,22,31,49.431,0.031,-0.4685,-0.5284,0.7072
-1.038,0.088,-0.343,-62,-9.7,26.1,1023,2018,5,17,22,31,49.449,0.038,-0.4789,-0.531,0.6979
-0.047,0.5,-0.981,-14.6,-188,7.1,1023,2018,5,17,22,31,49.471,0.034,-0.4839,-0.543,0.6853
-0.29,0.46,-0.876,36.9,-218.9,86.9,0,2018,5,17,22,31,49.489,0.0192,-0.4793,-0.573,0.6644
-0.65,-0.056,-0.688,54.2,-142.2,104.4,0,2018,5,17,22,31,49.512,0.0096,-0.4635,-0.6026,0.6494
-0.403,-0.325,-0.046,40.8,-103.3,105.3,0,2018,5,17,22,31,49.548,0.0083,-0.4469,-0.623,0.6418
-0.113,-0.427,-0.271,42.5,-95.8,76.6,0,2018,5,17,22,31,49.571,0.0065,-0.4321,-0.6407,0.6345
-0.194,-0.182,-0.051,58,-124.7,60.3,0,2018,5,17,22,31,49.576,-0.0003,-0.4184,-0.658,0.626
0,-0.951,0.211,41.5,-86.9,43.8,0,2018,5,17,22,31,49.592,-0.01,-0.4071,-0.675,0.615
0.039,-0.354,0.556,22.4,-41.9,-2.4,0,2018,5,17,22,31,49.615,-0.0151,-0.4016,-0.6819,0.6111
0.205,-0.43,0.556,3,-21.1,-21.1,0,2018,5,17,22,31,49.63,-0.0196,-0.4016,-0.6841,0.6084
0.195,0.041,0.906,-19.3,-112.7,-58.5,0,2018,5,17,22,31,49.649,-0.0279,-0.4073,-0.688,0.5998
0.158,-0.308,0.692,-45,-159.2,-83.1,0,2018,5,17,22,31,49.671,-0.0415,-0.4183,-0.6984,0.5791
0.135,-0.309,0.486,-68.2,-113.2,-105.4,0,2018,5,17,22,31,49.69,-0.0545,-0.4347,-0.7056,0.5568
0.151,-0.1,0.19,-66.3,-90.3,-121.6,0,2018,5,17,22,31,49.712,-0.0639,-0.4543,-0.7065,0.5388
0.208,0.252,-0.095,-37,-152.9,-140.7,0,2018,5,17,22,31,49.73,-0.078,-0.4739,-0.7069,0.5191
0.081,-0.178,-0.457,-9.1,-197,-139,0,2018,5,17,22,31,49.753,-0.1051,-0.4906,-0.7119,0.4913
0.032,-0.388,-0.371,-10,-35.6,-114.1,0,2018,5,17,22,31,49.771,-0.1252,-0.5044,-0.7112,0.4732
-0.012,0.112,-0.011,-36.4,97.8,-101.9,0,2018,5,17,22,31,49.794,-0.1271,-0.5205,-0.6992,0.4732
-0.012,0.325,-0.335,-44.4,150.8,-86.9,0,2018,5,17,22,31,49.812,-0.1174,-0.5382,-0.6806,0.4829
0.096,0.426,-0.734,-26,156.3,-64.7,0,2018,5,17,22,31,49.831,-0.1048,-0.5534,-0.6608,0.4959
0.044,0.578,-0.703,16.7,126.3,-33.5,0,2018,5,17,22,31,49.851,-0.0944,-0.5619,-0.6437,0.5107
0.033,0.921,-0.029,46.4,43.8,-8.3,1023,2018,5,17,22,31,49.873,-0.0914,-0.5623,-0.6335,0.5234
0.077,0.491,-0.09,63.8,-0.8,11.7,1023,2018,5,17,22,31,49.892,-0.0956,-0.5573,-0.6314,0.5305
0.312,0.316,-0.168,94,-5,24.9,1023,2018,5,17,22,31,49.914,-0.1032,-0.5477,-0.6328,0.5373
0.446,0.279,-0.049,124.7,-22.8,33.2,1023,2018,5,17,22,31,49.932,-0.1136,-0.5336,-0.6345,0.5474
0.62,0.001,0.089,134.9,-55.6,18.3,1023,2018,5,17,22,31,49.955,-0.1297,-0.517,-0.6386,0.555
0.423,-0.16,0.4,135.2,-21.3,2.1,1023,2018,5,17,22,31,49.976,-0.1476,-0.5018,-0.6405,0.5622
0.187,-0.4,0.417,133.8,50.7,-13.3,1023,2018,5,17,22,31,50.01,-0.1617,-0.4896,-0.6346,0.5755
0.336,-0.448,0.276,126,98.9,-40.2,1023,2018,5,17,22,31,50.032,-0.1721,-0.4815,-0.6206,0.5942
0.386,-0.375,0.147,124.1,78.9,-66.4,1023,2018,5,17,22,31,50.037,-0.1834,-0.4772,-0.6023,0.613
0.183,-0.51,0.309,109.9,49.6,-88,1023,2018,5,17,22,31,50.073,-0.1991,-0.4744,-0.5854,0.6264
0.003,-0.552,0.14,94.1,75,-108.6,1023,2018,5,17,22,31,50.096,-0.2149,-0.4754,-0.5669,0.6373
0.109,-0.246,-0.097,86,67.2,-121.7,1023,2018,5,17,22,31,50.098,-0.2301,-0.4797,-0.545,0.6479
-0.064,-0.207,-0.257,96.1,-29.6,-138.2,1023,2018,5,17,22,31,50.113,-0.2517,-0.4825,-0.5278,0.652
-0.3,-0.292,-0.317,107.2,-99.3,-138.8,1023,2018,5,17,22,31,50.134,-0.2832,-0.4801,-0.5197,0.6473
-0.362,-0.542,-0.455,109.1,-46.1,-135.7,1023,2018,5,17,22,31,50.153,-0.3153,-0.4759,-0.5116,0.642
-0.516,-0.378,-0.411,97.6,78.7,-131.5,1023,2018,5,17,22,31,50.176,-0.3378,-0.4771,-0.4923,0.6448
-0.733,-0.252,-0.245,81,137.1,-129.4,1023,2018,5,17,22,31,50.193,-0.3503,-0.4848,-0.4626,0.6543
-0.805,-0.154,-0.099,59.4,125.9,-135,1023,2018,5,17,22,31,50.216,-0.3593,-0.4954,-0.4312,0.6628
-0.853,-0.108,0.006,38.4,90.4,-130.3,1023,2018,5,17,22,31,50.234,-0.3691,-0.5062,-0.4037,0.6665
-0.93,-0.126,0.005,15.8,69.2,-114.6,0,2018,5,17,22,31,50.257,-0.3781,-0.5167,-0.3816,0.6666
-0.868,0,-0.018,-7.7,51.2,-88.5,0,2018,5,17,22,31,50.294,-0.3848,-0.5269,-0.3653,0.6639
-0.664,0.067,-0.105,-31.5,27.7,-67.4,0,2018,5,17,22,31,50.294,-0.3886,-0.5368,-0.3549,0.6593
-0.583,0.036,-0.056,-59.6,5,-49.9,0,2018,5,17,22,31,50.318,-0.3906,-0.5472,-0.3511,0.6516
-0.591,0.03,0.004,-97.7,8.5,-29.4,0,2018,5,17,22,31,50.337,-0.3897,-0.5584,-0.3521,0.642
-0.512,0.044,-0.24,-131.4,47.5,0.7,0,2018,5,17,22,31,50.36,-0.3812,-0.5739,-0.3559,0.6313
-0.243,0.064,-0.544,-152.5,100.3,42.5,0,2018,5,17,22,31,50.375,-0.3621,-0.5931,-0.359,0.623
-0.15,0.436,-0.278,-172.2,126.9,92.5,0,2018,5,17,22,31,50.397,-0.3321,-0.6135,-0.3631,0.6175
-0.166,0.458,-0.136,-193.4,133.3,151.1,0,2018,5,17,22,31,50.415,-0.2932,-0.6323,-0.3725,0.6126
-0.034,0.53,-0.271,-203,128.3,212.4,0,2018,5,17,22,31,50.438,-0.2455,-0.6477,-0.388,0.6079
0.369,0.584,-0.693,-191.1,67.3,252.2,0,2018,5,17,22,31,50.458,-0.1952,-0.6562,-0.4119,0.6011
0.434,0.472,-0.691,-154.9,-4.5,258.9,0,2018,5,17,22,31,50.477,-0.1523,-0.6559,-0.4438,0.5912
0.302,0.384,-0.218,-122.1,-46.9,256.1,0,2018,5,17,22,31,50.5,-0.1185,-0.6484,-0.4792,0.5794
0.147,0.249,0.012,-108.8,-57.1,255.7,0,2018,5,17,22,31,50.518,-0.0893,-0.6365,-0.5154,0.5666
0.409,0.037,-0.133,-97,-42.7,241.1,0,2018,5,17,22,31,50.537,-0.0609,-0.6228,-0.5489,0.554
0.725,0.018,-0.108,-66.3,-54.2,213,0,2018,5,17,22,31,50.558,-0.0358,-0.6081,-0.5782,0.5426
0.547,-0.066,0.024,-32.7,-46.1,192.1,0,2018,5,17,22,31,50.596,-0.0176,-0.5914,-0.6048,0.5328
0.465,-0.335,0.125,-7.2,-1.4,161.4,0,2018,5,17,22,31,50.596,-0.0018,-0.5743,-0.6251,0.5285
0.536,-0.371,-0.012,24.9,22.7,119.9,0,2018,5,17,22,31,50.619,0.0115,-0.5579,-0.6376,0.5309
0.477,-0.258,-0.065,55.9,-4.9,85.2,0,2018,5,17,22,31,50.637,0.0175,-0.5426,-0.6465,0.5359
0.343,-0.342,-0.064,74.4,-31.6,49.2,1023,2018,5,17,22,31,50.674,0.0138,-0.5288,-0.6552,0.5391
0.247,-0.458,-0.09,84.8,15.5,22.5,1023,2018,5,17,22,31,50.695,0.007,-0.517,-0.6597,0.5453
0.177,-0.508,-0.173,96.6,67.6,-8.5,1023,2018,5,17,22,31,50.7,0.0024,-0.5067,-0.6562,0.5589
0.229,-0.374,-0.11,106.7,57.1,-37.7,1023,2018,5,17,22,31,50.719,-0.0049,-0.499,-0.6481,0.5751
0.059,-0.33,-0.002,113,21.7,-63.9,1023,2018,5,17,22,31,50.742,-0.0188,-0.4931,-0.6401,0.5887
-0.016,-0.358,0.001,110.5,38.8,-83.6,1023,2018,5,17,22,31,50.778,-0.0368,-0.4899,-0.6306,0.6007
0.078,-0.246,-0.048,107.3,69.8,-96.3,1023,2018,5,17,22,31,50.799,-0.0527,-0.4883,-0.6163,0.6154
0.005,-0.154,-0.038,107.9,61.4,-108.5,1023,2018,5,17,22,31,50.801,-0.0686,-0.4878,-0.5998,0.6303
-0.114,-0.106,0.039,103.1,55.6,-113.4,1023,2018,5,17,22,31,50.838,-0.0862,-0.4878,-0.5832,0.6436
-0.002,-0.14,-0.027,91.4,72.4,-117,1023,2018,5,17,22,31,50.859,-0.1026,-0.4887,-0.565,0.6566
0.132,-0.098,-0.002,93.3,67.3,-126.7,1023,2018,5,17,22,31,50.862,-0.1192,-0.4916,-0.5449,0.6687
-0.001,-0.133,-0.121,109.6,38,-132.8,1023,2018,5,17,22,31,50.877,-0.1392,-0.4929,-0.5259,0.679
-0.134,0.03,-0.123,110.2,31.8,-123.5,1023,2018,5,17,22,31,50.899,-0.1619,-0.4921,-0.5075,0.6884
-0.254,0.15,-0.056,94.7,24,-105.9,1023,2018,5,17,22,31,50.936,-0.1819,-0.4907,-0.4915,0.696
-0.284,0.125,-0.033,75.2,2.9,-97.3,1023,2018,5,17,22,31,50.957,-0.1996,-0.4897,-0.4791,0.7005
-0.408,0.03,0.068,57.2,-0.2,-87.4,1023,2018,5,17,22,31,50.96,-0.2162,-0.489,-0.4692,0.7027
-0.432,0.076,0.105,31.6,5.9,-79.5,1023,2018,5,17,22,31,50.998,-0.2297,-0.4905,-0.4601,0.7034
-0.356,0.002,-0.09,8.9,12.3,-73.9,1023,2018,5,17,22,31,51.018,-0.2397,-0.4946,-0.4515,0.7027
-0.346,0.051,-0.188,-1.6,10.3,-69.6,0,2018,5,17,22,31,51.022,-0.2478,-0.5004,-0.4434,0.701
-0.467,0.162,-0.276,-7.8,-6.3,-57.7,0,2018,5,17,22,31,51.055,-0.255,-0.5062,-0.4375,0.698
-0.472,0.213,-0.555,3.7,-21.4,-30.9,0,2018,5,17,22,31,51.078,-0.2613,-0.5093,-0.4353,0.6947
-0.263,0.278,-0.494,22,-30.5,-9.6,0,2018,5,17,22,31,51.083,-0.2669,-0.5079,-0.4362,0.6931
-0.001,0.346,-0.253,35.5,-55.3,6.1,0,2018,5,17,22,31,51.12,-0.2731,-0.5024,-0.4393,0.6927
-0.129,0.242,-0.084,27.1,-88.1,16.3,0,2018,5,17,22,31,51.142,-0.2809,-0.4939,-0.4474,0.6905
-0.091,0.004,0.105,2,-60.3,34.2,0,2018,5,17,22,31,51.145,-0.2857,-0.4865,-0.4583,0.6866
-0.12,-0.225,0.376,-18,27.4,50.3,0,2018,5,17,22,31,51.16,-0.2812,-0.4831,-0.4641,0.6869
0.121,-0.054,0.515,-31.9,54.1,50.5,0,2018,5,17,22,31,51.196,-0.2687,-0.4847,-0.463,0.6916
0.491,0.003,0.489,-28.7,-21.3,42.9,0,2018,5,17,22,31,51.219,-0.2588,-0.4856,-0.4659,0.6927
0.725,-0.056,0.415,-12.5,-58.7,13.5,0,2018,5,17,22,31,51.222,-0.2579,-0.4836,-0.4752,0.6882
0.713,0.022,0.43,3,-17.2,-6.1,0,2018,5,17,22,31,51.256,-0.2608,-0.4821,-0.4799,0.6848
0.546,0.063,0.313,13.9,27.7,-14.4,0,2018,5,17,22,31,51.279,-0.2622,-0.4823,-0.4773,0.686
0.37,0.196,0.151,13.9,30.8,-16.2,0,2018,5,17,22,31,51.285,-0.2627,-0.4833,-0.4711,0.6894
0.085,0.312,-0.067,1.6,21,0.7,0,2018,5,17,22,31,51.322,-0.2626,-0.4841,-0.4667,0.6919
-0.388,-0.025,-0.442,-10.2,21.4,23.7,0,2018,5,17,22,31,51.344,-0.2583,-0.4846,-0.4653,0.694
-0.773,-0.544,-0.622,-15.9,25.8,22.3,0,2018,5,17,22,31,51.348,-0.2522,-0.4852,-0.465,0.6961
-0.919,-0.608,-0.741,4.1,-4.9,-21.6,1023,2018,5,17,22,31,51.361,-0.2504,-0.4869,-0.4632,0.6968
-0.745,-0.207,-0.636,24.7,-40.3,-28.6,1023,2018,5,17,22,31,51.398,-0.2576,-0.486,-0.4633,0.6947
-0.466,-0.065,-0.379,31,-12.3,-21.4,1023,2018,5,17,22,31,51.419,-0.2653,-0.4831,-0.4629,0.6941
-0.21,0.064,0.043,19.5,-5.6,-12.9,1023,2018,5,17,22,31,51.424,-0.2698,-0.481,-0.4605,0.6954
0.152,0.142,0.38,3.4,-39.3,-6,1023,2018,5,17,22,31,51.459,-0.2738,-0.479,-0.4618,0.6944
0.543,0.078,0.659,-11.1,-41.2,-5.9,1023,2018,5,17,22,31,51.48,-0.2778,-0.4777,-0.4669,0.6903
0.643,0.077,0.89,-11.8,22.4,-16.8,1023,2018,5,17,22,31,51.485,-0.2791,-0.4795,-0.4672,0.6882
0.829,0.238,0.646,-11.7,75.7,-26.4,1023,2018,5,17,22,31,51.522,-0.2761,-0.4854,-0.4592,0.6907
0.828,0.44,0.316,-6.3,71.2,-35.4,1023,2018,5,17,22,31,51.543,-0.2727,-0.4928,-0.4474,0.6946
0.539,0.39,0.067,1.7,49.7,-30.1,1023,2018,5,17,22,31,51.545,-0.2715,-0.4985,-0.437,0.6976
0.224,0.343,-0.089,15.8,20.2,-20.5,1023,2018,5,17,22,31,51.58,-0.2721,-0.5011,-0.4297,0.7
-0.103,0.197,-0.307,30.1,-43.6,-2.5,1023,2018,5,17,22,31,51.603,-0.2762,-0.4986,-0.4289,0.7007
-0.359,-0.21,-0.574,40.1,-92.2,14.2,1023,2018,5,17,22,31,51.608,-0.2845,-0.4901,-0.4368,0.6985
-0.662,-0.663,-0.634,44.4,-70.6,17.8,1023,2018,5,17,22,31,51.643,-0.2929,-0.4791,-0.4462,0.6967
-0.882,-0.685,-0.527,47.2,-16.7,-1.3,1023,2018,5,17,22,31,51.666,-0.2989,-0.4706,-0.4491,0.6981
-0.831,-0.478,0.005,21.5,39,-15.3,1023,2018,5,17,22,31,51.669,-0.3019,-0.4674,-0.4449,0.7016
-0.517,-0.207,0.141,-2.6,63.2,-26.4,1023,2018,5,17,22,31,51.702,-0.3012,-0.4706,-0.4359,0.7054
-0.097,0.057,0.343,-28.9,56.1,-26.1,1023,2018,5,17,22,31,51.726,-0.2979,-0.4781,-0.4267,0.7074
0.308,0.274,0.315,-38.5,30,-24.7,0,2018,5,17,22,31,51.728,-0.295,-0.4865,-0.4211,0.7063
0.697,0.506,0.24,-32.9,15.5,-25.9,0,2018,5,17,22,31,51.762,-0.2937,-0.494,-0.4179,0.7035
0.679,0.623,0.141,-26.4,14.1,-23.8,0,2018,5,17,22,31,51.785,-0.2938,-0.5,-0.4157,0.7005
0.597,0.631,-0.019,-9.3,38.3,-10.1,0,2018,5,17,22,31,51.787,-0.2923,-0.5049,-0.4115,0.7001
0.378,0.458,0.076,8.5,42.4,6.5,0,2018,5,17,22,31,51.823,-0.2886,-0.507,-0.4059,0.7033
0.178,0.378,0.111,16.4,-11.3,14.9,0,2018,5,17,22,31,51.846,-0.2866,-0.5055,-0.4036,0.7066
-0.032,0.068,-0.006,17.7,-87.8,18.3,0,2018,5,17,22,31,51.848,-0.2903,-0.4997,-0.4104,0.7053
-0.295,-0.326,-0.216,19.7,-138.6,8.7,0,2018,5,17,22,31,51.882,-0.2998,-0.4903,-0.425,0.6992
-0.598,-0.736,-0.4,17.1,-143,-7.8,0,2018,5,17,22,31,51.903,-0.3137,-0.4801,-0.4417,0.6898
-0.716,-0.818,-0.38,9.6,-42.8,-27.4,0,2018,5,17,22,31,51.905,-0.3251,-0.4744,-0.4509,0.6824
-0.638,-0.528,-0.3,-1,84.7,-39.5,0,2018,5,17,22,31,51.943,-0.3274,-0.4784,-0.4443,0.6829
-0.506,-0.407,-0.202,-12,168.8,-38.3,0,2018,5,17,22,31,51.964,-0.3202,-0.4898,-0.425,0.6905
-0.156,0.169,-0.096,-27,179.5,-30.1,0,2018,5,17,22,31,51.969,-0.3075,-0.5046,-0.4011,0.6998
0.149,0.335,-0.139,-44.4,141.3,-28.7,0,2018,5,17,22,31,52.005,-0.2942,-0.5194,-0.3805,0.7062
0.416,0.645,-0.138,-42.9,107.1,-22.5,0,2018,5,17,22,31,52.025,-0.2831,-0.5331,-0.365,0.7087
0.676,0.821,0.058,-17.5,93,-8.9,0,2018,5,17,22,31,52.03,-0.274,-0.5426,-0.3529,0.7112
0.979,0.994,0.325,6.6,86.7,-2.1,0,2018,5,17,22,31,52.066,-0.2655,-0.5478,-0.3411,0.7162
0.687,0.801,0.399,27.1,31.6,3.4,0,2018,5,17,22,31,52.089,-0.2606,-0.5482,-0.3323,0.7218
0.393,0.391,0.257,37.4,-19.6,19.8,1023,2018,5,17,22,31,52.092,-0.2614,-0.5433,-0.3317,0.7255
-0.016,0.016,-0.071,44.8,-20.8,50,1023,2018,5,17,22,31,52.129,-0.2613,-0.5352,-0.3357,0.7297
-0.411,-0.239,-0.373,53,-28.9,55.3,1023,2018,5,17,22,31,52.15,-0.2596,-0.5243,-0.3415,0.7354
-0.896,-0.843,-0.349,52.1,-36.1,35,1023,2018,5,17,22,31,52.153,-0.2597,-0.5129,-0.3476,0.7406
-0.845,-0.858,-0.171,29.2,-31.8,-9.4,1023,2018,5,17,22,31,52.167,-0.2657,-0.5049,-0.3518,0.742
-0.559,-0.514,-0.128,-4.9,90.6,-16.6,1023,2018,5,17,22,31,52.188,-0.2658,-0.5056,-0.346,0.7442
-0.251,-0.172,-0.28,-35.8,200.5,-10.7,1023,2018,5,17,22,31,52.226,-0.2528,-0.5162,-0.3256,0.7507
-0.081,0.089,-0.366,-51.6,257.2,-1,1023,2018,5,17,22,31,52.247,-0.2297,-0.5326,-0.2958,0.7589
-0.078,0.441,-0.304,-44.7,211.1,27.9,1023,2018,5,17,22,31,52.25,-0.2029,-0.5475,-0.2666,0.7667
-0.131,0.416,0.018,-45.5,220.5,65.2,1023,2018,5,17,22,31,52.287,-0.1748,-0.5582,-0.2443,0.7733
0.238,0.866,-0.052,-22.7,222.2,93.9,1023,2018,5,17,22,31,52.308,-0.1393,-0.5668,-0.2202,0.7815
0.553,0.751,-0.133,9.7,39.3,103.2,1023,2018,5,17,22,31,52.313,-0.1114,-0.5669,-0.2117,0.7882
0.664,0.378,0.207,30.3,-103.8,69.2,1023,2018,5,17,22,31,52.349,-0.105,-0.5595,-0.2263,0.7903
0.762,0.276,0.58,25.8,-103.6,33.8,1023,2018,5,17,22,31,52.371,-0.1101,-0.5514,-0.2456,0.7895
0.685,0.112,0.394,17.2,-53.7,3,1023,2018,5,17,22,31,52.375,-0.1162,-0.5462,-0.2571,0.7886
0.333,-0.157,0.011,10.6,-22.9,-9.6,1023,2018,5,17,22,31,52.409,-0.121,-0.544,-0.2613,0.788
-0.162,-0.525,-0.13,5.4,11,-6.6,1023,2018,5,17,22,31,52.432,-0.1231,-0.5432,-0.2612,0.7883
-0.581,-0.665,-0.224,7,5.6,-23.9,1023,2018,5,17,22,31,52.434,-0.1241,-0.5434,-0.2573,0.7893
-0.635,-0.459,-0.344,11,-14.7,-38.9,1023,2018,5,17,22,31,52.47,-0.1298,-0.5434,-0.2549,0.7892
-0.56,-0.127,-0.3,9,22.6,-28,1023,2018,5,17,22,31,52.493,-0.1352,-0.5435,-0.2511,0.7894
-0.422,0.187,-0.181,5.4,67.8,-3.9,1023,2018,5,17,22,31,52.495,-0.133,-0.5446,-0.2422,0.7918
-0.315,0.382,-0.111,6.6,46.6,28,0,2018,5,17,22,31,52.512,-0.1256,-0.5446,-0.2344,0.7953
-0.257,0.446,0.034,10.8,-26.5,65.3,0,2018,5,17,22,31,52.533,-0.1184,-0.5416,-0.2371,0.7977
-0.141,0.622,0.177,10.2,-93.5,115,0,2018,5,17,22,31,52.569,-0.1129,-0.535,-0.2541,0.7977
0.22,0.693,0.234,6.3,-131.1,159.2,0,2018,5,17,22,31,52.592,-0.1041,-0.5251,-0.2823,0.796
0.892,0.37,0.221,4.4,-196.9,146.4,0,2018,5,17,22,31,52.596,-0.0972,-0.5133,-0.319,0.7907
1.305,0.096,0.498,11.6,-273.1,75.5,0,2018,5,17,22,31,52.615,-0.1036,-0.5015,-0.3613,0.7791
0.752,-0.062,0.545,13.6,-289.4,17.2,0,2018,5,17,22,31,52.638,-0.1229,-0.4911,-0.4031,0.7623
1.001,-0.284,0.098,17.3,-296.2,-62.7,0,2018,5,17,22,31,52.656,-0.1525,-0.4841,-0.4388,0.7414
0.769,-0.857,-0.296,28.6,-218.2,-95.5,0,2018,5,17,22,31,52.679,-0.1872,-0.4801,-0.4648,0.7199
0.227,-1.172,-0.416,40.3,-27.1,-125.4,0,2018,5,17,22,31,52.694,-0.2125,-0.4801,-0.4691,0.71
-0.231,-0.707,-0.586,45.8,51,-157.1,0,2018,5,17,22,31,52.713,-0.2315,-0.4877,-0.4522,0.7099
-0.702,-0.485,-0.504,55.2,14.8,-171.7,0,2018,5,17,22,31,52.736,-0.2533,-0.4953,-0.4315,0.71
-1.008,-0.206,-0.301,52.7,-21.1,-164.7,0,2018,5,17,22,31,52.754,-0.2788,-0.5007,-0.4148,0.7066
-1.154,-0.223,-0.32,41,31.4,-141.4,0,2018,5,17,22,31,52.777,-0.3011,-0.5059,-0.3988,0.7029
-1.118,0.022,-0.195,26.1,104.8,-99.7,1023,2018,5,17,22,31,52.794,-0.3115,-0.5139,-0.377,0.7047
-1.005,0.239,-0.029,2.5,101.9,-55.1,1023,2018,5,17,22,31,52.817,-0.3119,-0.5231,-0.3558,0.7088
-0.798,0.183,-0.009,-21.2,52.2,-12.6,1023,2018,5,17,22,31,52.834,-0.3084,-0.5305,-0.344,0.7106
-0.483,0.056,-0.105,-39.3,18.3,20.9,1023,2018,5,17,22,31,52.857,-0.303,-0.5355,-0.3421,0.7101
-0.281,0.129,-0.173,-57.8,34.2,64.6,1023,2018,5,17,22,31,52.874,-0.2916,-0.5407,-0.3463,0.7088
-0.208,0.478,-0.241,-79.5,34.9,118.1,1023,2018,5,17,22,31,52.899,-0.2724,-0.5455,-0.3536,0.7092
0.204,1.082,-0.195,-98.4,-59.6,166.3,1023,2018,5,17,22,31,52.936,-0.2497,-0.5472,-0.3721,0.7068
0.448,0.706,-0.147,-106.1,-123.2,192.8,1023,2018,5,17,22,31,52.936,-0.2301,-0.543,-0.4065,0.6977
1.029,0.573,-0.133,-90.6,-101.7,188.9,1023,2018,5,17,22,31,52.958,-0.2099,-0.5365,-0.4419,0.6875
1.481,0.334,-0.003,-39.8,-98.3,145.8,1023,2018,5,17,22,31,52.976,-0.1933,-0.5274,-0.4717,0.6795
1.412,-0.133,0.645,23,-111.4,79,1023,2018,5,17,22,31,53.014,-0.1898,-0.5152,-0.4947,0.6735
0.896,-0.581,0.564,58.1,-26.5,33.6,1023,2018,5,17,22,31,53.037,-0.1936,-0.503,-0.5069,0.6726
0.82,-0.679,0.059,74.9,29.4,-16.6,1023,2018,5,17,22,31,53.042,-0.1975,-0.4946,-0.5044,0.6795
0.413,-0.791,-0.113,87.2,24.9,-58.9,1023,2018,5,17,22,31,53.059,-0.2062,-0.4888,-0.4957,0.6875
-0.101,-1.146,-0.104,94.5,11.3,-121.7,1023,2018,5,17,22,31,53.104,-0.2237,-0.486,-0.4825,0.6934
-0.474,-0.882,-0.173,79.7,67.5,-152.5,1023,2018,5,17,22,31,53.106,-0.2449,-0.4882,-0.4628,0.698
-0.739,-0.61,-0.244,57.6,140.9,-172.4,1023,2018,5,17,22,31,53.121,-0.2612,-0.4975,-0.4326,0.7049
-0.937,-0.399,-0.239,37.5,190,-177.8,1023,2018,5,17,22,31,53.138,-0.2715,-0.5122,-0.3939,0.7131
-1.028,0.036,-0.067,10.7,165.2,-166,1023,2018,5,17,22,31,53.159,-0.2778,-0.5294,-0.3538,0.7192
-1.06,0.184,-0.167,-9.8,93.8,-131.9,1023,2018,5,17,22,31,53.198,-0.2846,-0.5445,-0.3239,0.7193
-0.899,0.258,-0.284,-31.8,57.3,-91.9,0,2018,5,17,22,31,53.22,-0.291,-0.5567,-0.3053,0.7155
-0.691,0.28,-0.32,-53.9,81.9,-41.6,0,2018,5,17,22,31,53.225,-0.2905,-0.5689,-0.2924,0.7116
-0.447,0.246,-0.517,-66.1,109.7,2.5,0,2018,5,17,22,31,53.243,-0.2794,-0.5824,-0.2812,0.7096
-0.268,0.57,-0.485,-58.8,89.6,54.7,0,2018,5,17,22,31,53.262,-0.2624,-0.5938,-0.2743,0.7093
-0.009,0.862,-0.43,-41.6,-4.3,101.4,0,2018,5,17,22,31,53.281,-0.2452,-0.5981,-0.2789,0.7101
0.109,1.075,-0.33,-29.1,-113.5,161.1,0,2018,5,17,22,31,53.299,-0.2341,-0.593,-0.3018,0.7087
0.314,0.93,-0.266,-30,-164,228.1,0,2018,5,17,22,31,53.322,-0.2228,-0.5796,-0.341,0.7056
0.624,0.542,-0.003,-13.3,-174.8,247.4,0,2018,5,17,22,31,53.339,-0.2088,-0.5606,-0.3869,0.7016
0.942,-0.195,0.614,14.6,-124.7,208.4,0,2018,5,17,22,31,53.362,-0.1955,-0.5384,-0.4275,0.6992
0.963,-0.559,0.734,44.6,-37.8,137.2,0,2018,5,17,22,31,53.398,-0.1845,-0.5189,-0.4516,0.7019
0.815,-0.682,0.533,57.5,-23.6,62.5,0,2018,5,17,22,31,53.419,-0.1788,-0.504,-0.4616,0.7076
0.574,-1.061,0.191,64.6,-32.8,-13.2,0,2018,5,17,22,31,53.425,-0.1836,-0.4935,-0.4657,0.7111
0.223,-1.271,0.03,59.8,36,-87.5,0,2018,5,17,22,31,53.442,-0.1958,-0.4897,-0.4597,0.7144
-0.121,-0.933,-0.084,41.3,138.6,-148.3,0,2018,5,17,22,31,53.464,-0.2071,-0.4961,-0.436,0.7216
-0.398,-0.381,-0.237,24.2,172,-176.1,0,2018,5,17,22,31,53.482,-0.2159,-0.5101,-0.3995,0.7304
-0.596,-0.012,-0.224,9.6,143.5,-179.6,1023,2018,5,17,22,31,53.501,-0.2258,-0.526,-0.362,0.7356
-0.759,0.122,-0.343,1.3,120.4,-160.3,1023,2018,5,17,22,31,53.524,-0.2361,-0.5409,-0.3288,0.7371
-0.844,0.254,-0.564,-4.1,110.8,-112.4,1023,2018,5,17,22,31,53.542,-0.2426,-0.5537,-0.301,0.7375
-0.977,0.234,-0.623,5.2,117,-45,1023,2018,5,17,22,31,53.56,-0.2418,-0.5622,-0.2787,0.74
-0.857,0.37,-0.36,-2.7,137.7,27.1,1023,2018,5,17,22,31,53.582,-0.2304,-0.5674,-0.2612,0.746
-0.511,0.614,-0.291,-1.8,90.7,88.6,1023,2018,5,17,22,31,53.62,-0.2105,-0.5697,-0.2514,0.7535
-0.308,0.588,-0.372,6.2,9.3,144.2,1023,2018,5,17,22,31,53.62,-0.1901,-0.566,-0.2565,0.7599
-0.236,0.367,-0.226,18,-46.3,198.5,1023,2018,5,17,22,31,53.644,-0.1704,-0.5551,-0.2768,0.7655
0.198,0.288,0.505,15.5,-19,233.9,1023,2018,5,17,22,31,53.662,-0.1451,-0.5407,-0.3016,0.7716
0.775,0.182,0.633,6.4,-7.2,214.4,1023,2018,5,17,22,31,53.684,-0.1151,-0.5266,-0.3231,0.7777
1.082,-0.234,0.635,2.2,-99.2,141,1023,2018,5,17,22,31,53.722,-0.0956,-0.5145,-0.3466,0.7783
1.126,-0.467,0.411,13.6,-166.7,43.3,1023,2018,5,17,22,31,53.744,-0.0965,-0.5057,-0.373,0.7717
0.796,-0.712,0.282,11,-124.2,-29,1023,2018,5,17,22,31,53.748,-0.1109,-0.5007,-0.3938,0.7628
0.259,-1.065,-0.002,7.5,59.6,-83.7,1023,2018,5,17,22,31,53.765,-0.1217,-0.5025,-0.3931,0.7602
-0.039,-0.706,-0.232,3.6,185,-127,1023,2018,5,17,22,31,53.787,-0.1246,-0.512,-0.3648,0.7675
-0.391,-0.226,-0.331,10.4,169.7,-141.5,1023,2018,5,17,22,31,53.805,-0.1264,-0.5236,-0.3272,0.7763
-0.744,0.03,-0.289,18.7,124.1,-131.3,1023,2018,5,17,22,31,53.823,-0.1331,-0.5321,-0.2946,0.7824
-0.806,0.132,-0.105,9.9,151.6,-83.4,1023,2018,5,17,22,31,53.845,-0.1364,-0.5385,-0.2659,0.7878
-0.763,0.317,0.025,-8.5,210.5,-19.9,1023,2018,5,17,22,31,53.882,-0.1262,-0.545,-0.2357,0.7946
-0.619,0.453,0.185,-32.5,238.7,45.2,0,2018,5,17,22,31,53.882,-0.1014,-0.5518,-0.2054,0.8018
-0.518,0.463,0.396,-50.9,251.6,112.5,0,2018,5,17,22,31,53.904,-0.0647,-0.5584,-0.1793,0.8073
-0.308,0.554,0.579,-66.3,184.9,150.7,0,2018,5,17,22,31,53.943,-0.0218,-0.5646,-0.1606,0.8092
-0.255,0.173,0.435,-81.8,75.7,176.2,0,2018,5,17,22,31,53.966,0.0156,-0.5705,-0.1594,0.8054
-0.189,-0.047,0.223,-92.8,-10.2,175.3,0,2018,5,17,22,31,53.97,0.0462,-0.5776,-0.1724,0.7965
-0.167,-0.246,0.004,-103,-82.3,157.6,0,2018,5,17,22,31,53.986,0.0671,-0.5863,-0.1954,0.7832
0.024,-0.41,-0.295,-107.2,-76.1,138.9,0,2018,5,17,22,31,54.01,0.0823,-0.5964,-0.2211,0.7671
0.113,-0.534,-0.592,-110.3,1.9,104.2,0,2018,5,17,22,31,54.029,0.0986,-0.6065,-0.2373,0.7523
0.306,-0.239,-0.604,-95.7,66.9,74.2,0,2018,5,17,22,31,54.047,0.1187,-0.6157,-0.2392,0.7413
0.335,0.08,-0.583,-68.8,37.4,57.7,0,2018,5,17,22,31,54.065,0.1367,-0.6223,-0.2363,0.7336
0.456,0.275,-0.596,-40.4,-63.3,44.7,0,2018,5,17,22,31,54.088,0.1441,-0.6273,-0.2421,0.7259
0.446,0.089,-0.628,-21.1,-116.5,36.7,0,2018,5,17,22,31,54.106,0.139,-0.6318,-0.2583,0.7174
0.352,0.08,-0.498,-8.6,-74.6,29.8,0,2018,5,17,22,31,54.129,0.1325,-0.6345,-0.2738,0.7104
0.292,0.21,-0.337,6.4,-23,21,0,2018,5,17,22,31,54.146,0.1306,-0.6346,-0.2816,0.7076
0.207,0.168,-0.221,26.7,-16.6,13.7,0,2018,5,17,22,31,54.17,0.1298,-0.632,-0.2858,0.7084
0.108,0.143,-0.091,38.8,-23.6,12.3,0,2018,5,17,22,31,54.191,0.1274,-0.6277,-0.2903,0.7109
0.05,0.154,-0.007,41.7,-23.6,16,0,2018,5,17,22,31,54.209,0.1243,-0.6226,-0.2954,0.7138
-0.004,-0.01,0.058,35.5,-18.7,19.1,0,2018,5,17,22,31,54.227,0.1222,-0.6173,-0.3008,0.7165
-0.12,-0.096,0.152,28.9,-17.5,16.7,0,2018,5,17,22,31,54.25,0.1213,-0.6124,-0.3056,0.7188
-0.135,-0.11,0.221,18.3,-20.8,17.1,0,2018,5,17,22,31,54.268,0.12,-0.609,-0.31,0.72
-0.133,-0.096,0.204,7.7,-22.4,16.6,0,2018,5,17,22,31,54.286,0.1191,-0.6071,-0.3144,0.7199
-0.126,-0.065,0.161,-0.2,-27.6,17.1,0,2018,5,17,22,31,54.309,0.1181,-0.6064,-0.3189,0.7186
-0.094,-0.027,0.095,-5.3,-31,20.7,0,2018,5,17,22,31,54.327,0.1174,-0.6065,-0.3242,0.7164
0.038,0.073,-0.054,-4.1,-50.8,21.1,1023,2018,5,17,22,31,54.349,0.1167,-0.6066,-0.3315,0.713
0.102,0.131,-0.151,-1.7,-95.9,17.6,1023,2018,5,17,22,31,54.367,0.1113,-0.6075,-0.3423,0.7079
0.068,0.055,-0.174,7.6,-123.8,11.4,1023,2018,5,17,22,31,54.391,0.1009,-0.6085,-0.3575,0.7011
0.019,-0.007,-0.112,17,-116,8,1023,2018,5,17,22,31,54.408,0.088,-0.6088,-0.3736,0.6942
0.019,0.023,-0.103,28.1,-73.8,11,1023,2018,5,17,22,31,54.43,0.078,-0.6073,-0.3873,0.6891
0.035,0.184,-0.093,37.1,-39,15,1023,2018,5,17,22,31,54.448,0.0715,-0.6033,-0.3954,0.6888
0.043,0.262,0.02,34.9,-21.4,22.8,1023,2018,5,17,22,31,54.471,0.0681,-0.598,-0.4009,0.6905
0.159,0.275,-0.032,23.7,-20.2,28.3,1023,2018,5,17,22,31,54.507,0.0671,-0.5929,-0.406,0.6921
0.228,0.239,-0.107,13.9,-38.9,32.8,1023,2018,5,17,22,31,54.531,0.0664,-0.5889,-0.4128,0.6915
0.178,0.05,-0.13,14.2,-58,34.1,1023,2018,5,17,22,31,54.535,0.0645,-0.5854,-0.4221,0.689
0.064,-0.075,-0.072,17.9,-68.1,29.5,1023,2018,5,17,22,31,54.551,0.0607,-0.5822,-0.4338,0.6849
-0.037,-0.043,-0.013,21.1,-62.6,28,1023,2018,5,17,22,31,54.568,0.0567,-0.5782,-0.4456,0.6809
-0.053,-0.102,-0.015,22.7,-57.7,26.1,0,2018,5,17,22,31,54.591,0.0532,-0.5738,-0.4566,0.6777
-0.083,-0.175,-0.019,22.4,-48.7,26.1,0,2018,5,17,22,31,54.61,0.0506,-0.5689,-0.4671,0.6748
-0.105,-0.19,0.003,19.2,-35.7,28.5,0,2018,5,17,22,31,54.632,0.0482,-0.5645,-0.4752,0.6731
-0.124,-0.185,0.027,14.6,-21.8,30.5,0,2018,5,17,22,31,54.651,0.0476,-0.5602,-0.4815,0.6722
-0.145,-0.148,0.062,10.3,-12.2,30,0,2018,5,17,22,31,54.673,0.0483,-0.5564,-0.4865,0.6717
-0.161,-0.072,0.08,5.7,0,32.7,0,2018,5,17,22,31,54.692,0.0509,-0.5528,-0.4903,0.6717
-0.14,-0.027,0.078,0,2.3,32.6,0,2018,5,17,22,31,54.715,0.0547,-0.5496,-0.4933,0.6719
-0.081,0.01,0.063,-6.5,-0.2,33.3,0,2018,5,17,22,31,54.733,0.0595,-0.5468,-0.4967,0.6713
-0.001,0.036,0,-8.6,-8.5,33.5,0,2018,5,17,22,31,54.756,0.0645,-0.5446,-0.5008,0.6696
0.079,0.078,-0.046,-3.1,-30.3,30.9,0,2018,5,17,22,31,54.771,0.0669,-0.5431,-0.5065,0.6662
0.12,0.021,-0.069,3,-42.7,28.9,0,2018,5,17,22,31,54.79,0.0665,-0.5416,-0.514,0.6618
0.206,-0.008,-0.144,11.3,-49.9,24,0,2018,5,17,22,31,54.813,0.0643,-0.5392,-0.5222,0.6575
0.325,0.096,-0.237,33,-57.1,14.4,0,2018,5,17,22,31,54.848,0.0596,-0.5356,-0.5302,0.6544
0.382,0.11,-0.245,61.6,-72.4,3.2,0,2018,5,17,22,31,54.871,0.0501,-0.5299,-0.5389,0.6528
0.434,0.14,-0.243,88,-91.3,-12.1,0,2018,5,17,22,31,54.876,0.035,-0.5223,-0.5483,0.652
0.402,0.152,-0.242,112.2,-119.7,-22.7,0,2018,5,17,22,31,54.893,0.0137,-0.513,-0.5595,0.6508
0.36,0.254,-0.229,141.4,-174,-25.3,0,2018,5,17,22,31,54.915,-0.0143,-0.5008,-0.5739,0.6476
0.41,0.391,-0.232,171.3,-275.8,-34.4,0,2018,5,17,22,31,54.933,-0.0528,-0.4849,-0.5956,0.6381
0.339,0.12,-0.304,208.6,-369.3,-27.4,0,2018,5,17,22,31,54.955,-0.1041,-0.4628,-0.6267,0.6181
0.505,0.179,-0.353,230.6,-400.3,-29.1,0,2018,5,17,22,31,54.973,-0.1624,-0.4341,-0.6601,0.591
0.52,0.074,-0.175,249.2,-395,-7.5,0,2018,5,17,22,31,54.991,-0.2218,-0.3984,-0.6912,0.5605
0.316,-0.151,-0.059,252.3,-336.2,1.9,0,2018,5,17,22,31,55.029,-0.2779,-0.359,-0.7152,0.5313
0.211,-0.463,-0.072,239.4,-253,4.5,0,2018,5,17,22,31,55.029,-0.3262,-0.3206,-0.7295,0.5083
0.208,-0.279,0.019,211,-149.6,-13.6,1023,2018,5,17,22,31,55.053,-0.3655,-0.2901,-0.7326,0.4953
-0.143,-0.089,0.096,176.7,-122.9,-24.7,1023,2018,5,17,22,31,55.071,-0.3982,-0.2674,-0.73,0.4867
-0.449,0.034,-0.016,135,-142.4,-26.3,1023,2018,5,17,22,31,55.094,-0.4261,-0.2483,-0.7287,0.4749
-0.696,-0.124,-0.244,99.5,-154.3,-20.3,1023,2018,5,17,22,31,55.132,-0.4492,-0.2299,-0.7316,0.4582
-0.965,-0.297,-0.606,71.1,-107.3,-19.2,1023,2018,5,17,22,31,55.132,-0.4665,-0.2149,-0.7348,0.4428
-1.148,-0.053,-0.51,48.6,-72.5,-11.3,1023,2018,5,17,22,31,55.156,-0.4787,-0.2054,-0.7358,0.4325
-1.278,-0.193,-0.273,19.7,-66.9,-7.1,1023,2018,5,17,22,31,55.192,-0.4862,-0.1981,-0.7381,0.4235
-1.143,-0.339,-0.172,-20.4,-43,-3.5,1023,2018,5,17,22,31,55.214,-0.488,-0.1941,-0.7421,0.4163
-0.948,-0.573,-0.084,-68.5,-3.8,-6.4,1023,2018,5,17,22,31,55.219,-0.4836,-0.1956,-0.7477,0.4107
-0.701,-0.482,-0.007,-119.4,41.5,-15.8,1023,2018,5,17,22,31,55.235,-0.471,-0.206,-0.7538,0.409
-0.352,-0.423,-0.024,-162.1,54.1,-28.2,1023,2018,5,17,22,31,55.258,-0.4518,-0.2231,-0.761,0.4084
-0.006,-0.244,-0.139,-191.9,54,-41.7,1023,2018,5,17,22,31,55.276,-0.4282,-0.2449,-0.7695,0.4053
0.423,-0.187,-0.275,-205.3,76.8,-45.2,1023,2018,5,17,22,31,55.291,-0.4008,-0.2698,-0.778,0.4013
1.109,0.027,-0.318,-187.9,106.6,-39,1023,2018,5,17,22,31,55.314,-0.3723,-0.2961,-0.7831,0.4003
1.701,0.566,-0.363,-130.7,137.6,-39,1023,2018,5,17,22,31,55.353,-0.3459,-0.3207,-0.7824,0.4065
1.512,0.863,-0.243,-35.6,117.6,-43.8,1023,2018,5,17,22,31,55.375,-0.3302,-0.3401,-0.7754,0.417
1.009,0.942,0.011,53.9,64.4,-21.8,1023,2018,5,17,22,31,55.381,-0.329,-0.349,-0.7659,0.4281
0.751,0.899,0.195,115,1.1,10.8,1023,2018,5,17,22,31,55.398,-0.3392,-0.3447,-0.7582,0.4372
0.529,0.8,0.219,154.2,-60.8,33.8,0,2018,5,17,22,31,55.436,-0.3574,-0.329,-0.7538,0.4423
0.126,0.545,0.254,164.4,-86.2,62.4,0,2018,5,17,22,31,55.436,-0.3793,-0.305,-0.7524,0.4437
0.006,0.495,0.162,147.7,-100.7,86.3,0,2018,5,17,22,31,55.459,-0.3986,-0.2766,-0.7529,0.4445
-0.245,0.181,-0.018,124.6,-119.6,91.9,0,2018,5,17,22,31,55.477,-0.4147,-0.2459,-0.7562,0.4422
-0.617,-0.286,-0.142,94.6,-113.7,81.1,0,2018,5,17,22,31,55.499,-0.4272,-0.2174,-0.7609,0.4372
-0.79,-0.282,-0.176,60.5,-100.9,55.9,0,2018,5,17,22,31,55.535,-0.4362,-0.1943,-0.7658,0.4304
-0.788,-0.325,-0.421,32.1,-98.2,24.7,0,2018,5,17,22,31,55.535,-0.4424,-0.1781,-0.7711,0.4217
-0.814,-0.398,-0.564,16.6,-93.1,-5.2,0,2018,5,17,22,31,55.555,-0.4479,-0.1676,-0.7766,0.4099
-0.896,-0.526,-0.443,-0.5,-58.6,-32.7,0,2018,5,17,22,31,55.589,-0.4527,-0.1637,-0.7809,0.3979
-0.855,-0.606,-0.294,-25.1,-9.8,-59.5,0,2018,5,17,22,31,55.61,-0.4551,-0.1683,-0.7828,0.3894
-0.703,-0.393,-0.277,-56.6,9.4,-80.2,0,2018,5,17,22,31,55.618,-0.4541,-0.1813,-0.7837,0.3828
-0.475,-0.401,-0.243,-84.7,15,-87,0,2018,5,17,22,31,55.656,-0.4497,-0.1983,-0.786,0.3747
-0.381,-0.445,-0.175,-119.3,71.1,-88.1,0,2018,5,17,22,31,55.676,-0.4398,-0.2202,-0.7883,0.3695
-0.285,-0.27,-0.245,-153,131.3,-88.9,0,2018,5,17,22,31,55.677,-0.4222,-0.2493,-0.7884,0.3713
-0.045,0.006,-0.258,-174.2,147.7,-85.2,0,2018,5,17,22,31,55.715,-0.3984,-0.2823,-0.787,0.3769
0.084,0.023,-0.227,-183.3,147.4,-87.3,0,2018,5,17,22,31,55.735,-0.3719,-0.3159,-0.785,0.3814
0.161,0.011,-0.229,-188.2,173,-96.9,0,2018,5,17,22,31,55.737,-0.3427,-0.3512,-0.7814,0.3853
0.125,0.208,-0.149,-188.8,189.4,-102.5,0,2018,5,17,22,31,55.774,-0.312,-0.3881,-0.7735,0.3918
0.138,0.42,-0.026,-187.5,178.3,-103,0,2018,5,17,22,31,55.794,-0.2805,-0.4245,-0.7635,0.3975
0.401,0.644,0.02,-183.7,160.4,-95,1023,2018,5,17,22,31,55.796,-0.2498,-0.4585,-0.7529,0.4005
0.553,0.768,-0.004,-172.9,164.7,-79.2,1023,2018,5,17,22,31,55.832,-0.2192,-0.489,-0.7419,0.4028
0.651,0.75,-0.127,-147.5,171.8,-60.5,1023,2018,5,17,22,31,55.851,-0.1885,-0.5153,-0.7296,0.4079
0.821,0.75,-0.22,-110.5,185.5,-32.2,1023,2018,5,17,22,31,55.859,-0.1591,-0.5358,-0.7167,0.4169
0.872,0.748,-0.301,-66.5,200.1,-0.3,1023,2018,5,17,22,31,55.894,-0.1309,-0.5491,-0.7034,0.4317
0.806,0.509,-0.359,-4.2,211.3,18.5,1023,2018,5,17,22,31,55.916,-0.1055,-0.5546,-0.6894,0.4537
0.65,0.294,-0.176,66.6,182.4,27.5,1023,2018,5,17,22,31,55.92,-0.0884,-0.5524,-0.6752,0.4807
0.504,0.136,-0.106,114.6,139.3,20.6,1023,2018,5,17,22,31,55.957,-0.0817,-0.5438,-0.6625,0.5084
0.56,-0.134,-0.333,139,130.3,8.2,1023,2018,5,17,22,31,55.977,-0.0827,-0.5322,-0.6504,0.5354
0.494,-0.265,-0.283,182.1,119.3,-28.9,1023,2018,5,17,22,31,55.98,-0.0908,-0.5198,-0.635,0.564
0.178,-0.389,-0.081,193,141.9,-58.8,1023,2018,5,17,22,31,56.015,-0.104,-0.5077,-0.6153,0.5939
0.167,-0.359,-0.081,181,171.3,-89.1,1023,2018,5,17,22,31,56.038,-0.1167,-0.4981,-0.5888,0.6256
0.257,-0.194,-0.01,166.4,162.8,-119.5,1023,2018,5,17,22,31,56.046,-0.1304,-0.4927,-0.5574,0.6553
0.059,-0.017,0.175,148.8,81.8,-140.3,1023,2018,5,17,22,31,56.06,-0.1503,-0.4898,-0.5276,0.6775
-0.226,-0.13,0.207,128.1,30.4,-144.9,1023,2018,5,17,22,31,56.08,-0.1757,-0.4876,-0.5053,0.6898
-0.364,-0.018,0.101,97.1,9.8,-128.6,1023,2018,5,17,22,31,56.102,-0.2006,-0.4866,-0.4874,0.6966
-0.581,0.036,0.073,64.6,-16.7,-95.8,1023,2018,5,17,22,31,56.139,-0.2212,-0.4862,-0.475,0.6992
-0.888,-0.072,0.086,34,-40.3,-59.9,1023,2018,5,17,22,31,56.139,-0.2374,-0.4854,-0.4705,0.6975
-1.01,-0.35,-0.144,12.7,-30.1,-43,0,2018,5,17,22,31,56.164,-0.2484,-0.4851,-0.4697,0.6943
-0.955,-0.53,-0.368,3.6,5.4,-45,0,2018,5,17,22,31,56.2,-0.2551,-0.4873,-0.4671,0.6922
-0.874,-0.304,-0.212,-5.3,34.2,-38.5,0,2018,5,17,22,31,56.22,-0.2586,-0.4918,-0.4604,0.6922
-0.828,-0.21,0.037,-26.2,46.1,-27.1,0,2018,5,17,22,31,56.227,-0.2579,-0.4981,-0.4531,0.6927
-0.694,-0.29,0.023,-45.8,63.1,-17.7,0,2018,5,17,22,31,56.243,-0.2529,-0.5067,-0.446,0.693
-0.463,-0.263,0.022,-65.2,91.8,-2,0,2018,5,17,22,31,56.282,-0.2425,-0.5177,-0.4378,0.6938
-0.253,0.135,0.066,-79.6,64.6,22.2,0,2018,5,17,22,31,56.304,-0.2285,-0.5292,-0.4313,0.6939
0.257,0.622,-0.073,-97.2,-27.8,66,0,2018,5,17,22,31,56.309,-0.2144,-0.5372,-0.4364,0.6891
0.9,0.661,-0.124,-98.2,-110.4,87.8,0,2018,5,17,22,31,56.323,-0.2043,-0.54,-0.4567,0.6767
1.11,0.571,-0.046,-69.4,-75.7,79.6,0,2018,5,17,22,31,56.361,-0.1974,-0.5395,-0.4795,0.6632
1.463,0.696,0.23,-28.1,-18.9,60.3,0,2018,5,17,22,31,56.384,-0.1889,-0.5377,-0.492,0.658
1.353,0.639,0.264,15.6,-20.4,42.3,0,2018,5,17,22,31,56.388,-0.1846,-0.5336,-0.4991,0.6572
0.849,-0.214,0.202,69.4,6,11.7,0,2018,5,17,22,31,56.404,-0.1862,-0.5255,-0.5014,0.6615
0.669,-0.7,-0.059,96.4,22.7,-45.6,0,2018,5,17,22,31,56.427,-0.1935,-0.5175,-0.4949,0.6705
0.338,-0.749,-0.292,104.9,-9.1,-101.6,0,2018,5,17,22,31,56.445,-0.2107,-0.5123,-0.4835,0.6777
-0.233,-0.976,-0.279,100.9,4.2,-141,0,2018,5,17,22,31,56.468,-0.235,-0.5096,-0.4697,0.6814
-0.664,-1.132,-0.324,85.1,134.2,-177.7,0,2018,5,17,22,31,56.486,-0.2557,-0.5142,-0.4433,0.6881
-0.855,-0.421,-0.269,60.6,226.6,-183,1023,2018,5,17,22,31,56.508,-0.2659,-0.5277,-0.3997,0.7006
-0.984,0.149,-0.221,40.7,186.7,-153.7,1023,2018,5,17,22,31,56.525,-0.2703,-0.5429,-0.3551,0.7113
-1.181,0.383,-0.188,27.9,118.2,-90.7,1023,2018,5,17,22,31,56.542,-0.2733,-0.5528,-0.3227,0.7179
-1.159,0.622,-0.066,2.1,63.5,-15.4,1023,2018,5,17,22,31,56.565,-0.2719,-0.5579,-0.3054,0.722
-0.821,0.813,-0.189,-33.1,-18.5,57.7,1023,2018,5,17,22,31,56.601,-0.266,-0.5598,-0.3057,0.7226
-0.452,0.712,-0.495,-57.3,-69.9,126.4,1023,2018,5,17,22,31,56.625,-0.2566,-0.5582,-0.3231,0.7197
-0.271,0.817,-0.509,-76.5,-82.1,196,1023,2018,5,17,22,31,56.631,-0.2393,-0.5537,-0.3512,0.716
0.254,1.034,-0.776,-88.2,-168.1,228.8,1023,2018,5,17,22,31,56.648,-0.2183,-0.5455,-0.39,0.7088
0.579,0.636,-0.455,-48.5,-285.2,223.9,1023,2018,5,17,22,31,56.666,-0.2074,-0.5288,-0.4429,0.6935
0.52,-0.385,0.36,-15.1,-213,200.9,1023,2018,5,17,22,31,56.69,-0.2039,-0.505,-0.4948,0.677
0.791,-0.712,0.53,16.7,-52.8,161,1023,2018,5,17,22,31,56.707,-0.1942,-0.4841,-0.525,0.6724
0.981,-0.662,0.231,48.1,-4.4,103.3,1023,2018,5,17,22,31,56.73,-0.1827,-0.4676,-0.5362,0.6784
0.622,-1.155,0.383,64.7,-55.3,45.1,1023,2018,5,17,22,31,56.748,-0.1825,-0.4526,-0.5444,0.6821
0.157,-1.671,0.32,58,-3.3,-43.2,1023,2018,5,17,22,31,56.771,-0.1915,-0.4439,-0.5468,0.6835
-0.052,-1.405,-0.042,41.6,101.6,-130,1023,2018,5,17,22,31,56.789,-0.2026,-0.4483,-0.5317,0.6893
-0.182,-0.669,-0.167,21.6,199.3,-162.4,1023,2018,5,17,22,31,56.812,-0.211,-0.4637,-0.4995,0.7006
-0.332,-0.186,-0.233,3.8,220.6,-173.3,1023,2018,5,17,22,31,56.83,-0.2149,-0.4846,-0.4583,0.7133
-0.542,0.26,-0.327,3,167.8,-169.6,1023,2018,5,17,22,31,56.852,-0.2198,-0.5049,-0.4183,0.7222
-0.693,0.558,-0.392,8.7,92.4,-137.3,1023,2018,5,17,22,31,56.869,-0.2285,-0.52,-0.3881,0.7257
-0.72,0.59,-0.479,14.6,53.2,-81.6,0,2018,5,17,22,31,56.887,-0.237,-0.5284,-0.3689,0.7269
-0.736,0.588,-0.405,12.8,66.3,-10,0,2018,5,17,22,31,56.91,-0.2385,-0.5318,-0.3565,0.7301
-0.546,0.753,-0.307,-9.6,67.8,57.2,0,2018,5,17,22,31,56.927,-0.2283,-0.5328,-0.3498,0.7358
-0.307,0.769,-0.462,-18.2,8.8,98.9,0,2018,5,17,22,31,56.949,-0.2132,-0.5315,-0.3523,0.7401
-0.236,0.622,-0.35,-17.1,-76.9,142.1,0,2018,5,17,22,31,56.968,-0.1997,-0.5248,-0.3688,0.7406
-0.113,0.419,-0.272,-25.1,-134.9,169.1,0,2018,5,17,22,31,56.991,-0.1881,-0.5133,-0.3978,0.7367
0.407,0.396,0.015,-35.5,-172,176.9,0,2018,5,17,22,31,57.01,-0.177,-0.4996,-0.4339,0.7284
0.732,-0.028,0.385,-31,-182.2,137.7,0,2018,5,17,22,31,57.033,-0.1698,-0.4859,-0.4716,0.7159
0.916,-0.734,0.659,-7.9,-121.3,67.5,0,2018,5,17,22,31,57.053,-0.1686,-0.4749,-0.5005,0.7038
0.947,-0.569,0.702,19.6,-46.6,2.5,0,2018,5,17,22,31,57.071,-0.1721,-0.469,-0.5122,0.6985
0.657,-0.4,0.546,28.8,-15.6,-27.4,0,2018,5,17,22,31,57.088,-0.1786,-0.4664,-0.5136,0.6976
0.353,-0.782,0.017,44.8,9.1,-61.3,0,2018,5,17,22,31,57.111,-0.1871,-0.4657,-0.5092,0.699
0.282,-0.591,-0.076,56.2,29,-97.9,0,2018,5,17,22,31,57.128,-0.2002,-0.4673,-0.4986,0.702
0.133,-0.33,-0.057,62,26.4,-122.5,0,2018,5,17,22,31,57.151,-0.2164,-0.4706,-0.4834,0.7056
-0.05,-0.072,-0.105,62,10.9,-135.8,0,2018,5,17,22,31,57.169,-0.2364,-0.4744,-0.468,0.707
-0.201,0.197,-0.099,53.9,3.4,-119.9,0,2018,5,17,22,31,57.189,-0.2563,-0.4782,-0.4544,0.7064
-0.459,0.258,-0.144,39.4,14.3,-85.7,0,2018,5,17,22,31,57.228,-0.2722,-0.4808,-0.4426,0.7062
-0.668,0.171,-0.255,21.1,50.3,-52.2,0,2018,5,17,22,31,57.249,-0.2801,-0.4839,-0.4311,0.7081
-0.786,0.27,-0.232,4.3,59.9,-14.7,1023,2018,5,17,22,31,57.255,-0.2802,-0.4877,-0.4202,0.712
-0.893,0.18,-0.108,-12.9,36,21.7,1023,2018,5,17,22,31,57.272,-0.275,-0.4903,-0.4144,0.7156
-0.717,0.142,-0.062,-24.1,-5.3,47.4,1023,2018,5,17,22,31,57.295,-0.2679,-0.4908,-0.4164,0.7168
-0.348,0.156,-0.078,-39.9,-33.8,69.3,1023,2018,5,17,22,31,57.31,-0.2596,-0.4894,-0.4261,0.7151
-0.036,0.071,-0.055,-59.7,-31.6,82.2,1023,2018,5,17,22,31,57.329,-0.2491,-0.489,-0.4396,0.7109
0.316,-0.103,0.022,-54.9,-1.7,80.5,1023,2018,5,17,22,31,57.351,-0.2354,-0.4898,-0.4517,0.7075
0.628,-0.416,0.316,-43.6,25,54.2,1023,2018,5,17,22,31,57.369,-0.222,-0.4906,-0.4582,0.7071
0.949,-0.115,0.223,-26.5,21.9,7.9,1023,2018,5,17,22,31,57.391,-0.2129,-0.4938,-0.4585,0.7074
0.909,0.112,0.037,3.1,-3.1,-28.3,1023,2018,5,17,22,31,57.429,-0.2132,-0.4965,-0.4568,0.7066
0.728,0.164,-0.007,29.3,10.2,-46.9,1023,2018,5,17,22,31,57.452,-0.2194,-0.4975,-0.4525,0.7067
0.475,0.277,-0.036,49.5,19.7,-49.2,1023,2018,5,17,22,31,57.456,-0.2272,-0.4971,-0.4442,0.7098
0.052,0.225,-0.211,55,3.8,-33.7,1023,2018,5,17,22,31,57.472,-0.2356,-0.4941,-0.4369,0.7136
-0.4,0.062,-0.336,45.6,7.6,-13.8,1023,2018,5,17,22,31,57.494,-0.2424,-0.4896,-0.4321,0.7174
-0.733,-0.137,-0.487,37.9,24.3,-7.7,1023,2018,5,17,22,31,57.531,-0.245,-0.4858,-0.4272,0.722
-0.86,-0.147,-0.43,32.2,35.5,-16,1023,2018,5,17,22,31,57.553,-0.2465,-0.4836,-0.4204,0.727
-0.897,-0.164,-0.14,15.4,40.2,-22.2,1023,2018,5,17,22,31,57.558,-0.2478,-0.4835,-0.4127,0.731
-0.803,-0.149,0.054,-18.6,75.8,-20.6,1023,2018,5,17,22,31,57.594,-0.246,-0.4876,-0.4035,0.734
-0.6,-0.06,0.059,-66.4,150.1,-1.6,1023,2018,5,17,22,31,57.616,-0.2345,-0.4987,-0.3892,0.738
-0.267,0.484,-0.044,-91.8,118.3,7.9,1023,2018,5,17,22,31,57.621,-0.2155,-0.5151,-0.3735,0.7406
0.179,0.566,-0.154,-85.5,-59.4,25.2,1023,2018,5,17,22,31,57.635,-0.205,-0.5268,-0.3741,0.7351
0.404,0.279,0.158,-72.7,-128.8,62.3,0,2018,5,17,22,31,57.67,-0.2044,-0.5299,-0.3951,0.7219
0.854,0.251,0.381,-63.8,-50.1,75.1,0,2018,5,17,22,31,57.693,-0.1991,-0.53,-0.4153,0.7119
1.343,0.482,0.251,-35.7,7.1,74.9,0,2018,5,17,22,31,57.697,-0.1871,-0.5304,-0.4255,0.7088
1.212,0.316,0.21,13.5,-25,54.5,0,2018,5,17,22,31,57.716,-0.1788,-0.5266,-0.4325,0.7096
0.959,-0.011,0.239,48.9,-47.5,28.2,0,2018,5,17,22,31,57.754,-0.1803,-0.518,-0.44,0.7109
0.516,-0.469,-0.047,62.8,-15.9,4.1,0,2018,5,17,22,31,57.778,-0.1857,-0.5085,-0.4442,0.7138
0.082,-0.711,-0.318,63.8,54.5,-22.2,0,2018,5,17,22,31,57.781,-0.19,-0.502,-0.4387,0.7206
-0.406,-0.904,-0.278,55.5,100.8,-57.5,0,2018,5,17,22,31,57.798,-0.1922,-0.5,-0.4228,0.7309
-0.772,-0.741,-0.134,39,102.4,-109.1,0,2018,5,17,22,31,57.816,-0.1978,-0.5036,-0.4004,0.7394
-0.867,-0.405,-0.079,16.3,88.2,-137.4,0,2018,5,17,22,31,57.839,-0.2074,-0.512,-0.3756,0.744
-0.998,-0.197,-0.108,-4.7,92.4,-133.6,0,2018,5,17,22,31,57.856,-0.2179,-0.5234,-0.3514,0.7449
-1.071,0.034,-0.101,-27.7,111.6,-101,0,2018,5,17,22,31,57.875,-0.2228,-0.5365,-0.3274,0.7451
-0.828,0.429,-0.094,-48.4,98.5,-54.3,0,2018,5,17,22,31,57.897,-0.2203,-0.5501,-0.3069,0.7446
-0.529,0.706,-0.18,-65.9,33.3,-1.2,0,2018,5,17,22,31,57.915,-0.2145,-0.5615,-0.2974,0.7417
-0.197,0.879,-0.361,-82.8,-34.2,54.2,0,2018,5,17,22,31,57.937,-0.2072,-0.5697,-0.3032,0.7351
0.16,0.928,-0.523,-81.3,-109.1,101.3,0,2018,5,17,22,31,57.955,-0.1998,-0.5733,-0.3234,0.7257
0.689,0.844,-0.483,-53.2,-138.9,131.4,1023,2018,5,17,22,31,57.977,-0.1938,-0.5705,-0.3538,0.7153
1.346,0.518,-0.099,-4,-118.4,120.5,1023,2018,5,17,22,31,57.998,-0.1888,-0.5612,-0.384,0.7083
1.322,0.143,0.342,52.2,-64.3,90.6,1023,2018,5,17,22,31,58.02,-0.1867,-0.5478,-0.4041,0.7082
1.102,0.002,0.519,82.8,-50.8,62.7,1023,2018,5,17,22,31,58.039,-0.1873,-0.5322,-0.4156,0.7133
0.732,-0.341,0.4,101,-65.4,38,1023,2018,5,17,22,31,58.058,-0.1934,-0.5147,-0.4243,0.7194
0.246,-0.765,0.186,93.1,-26.5,17.9,1023,2018,5,17,22,31,58.08,-0.2018,-0.4984,-0.4296,0.7253
-0.167,-1.131,-0.102,74.9,30.8,-23.8,1023,2018,5,17,22,31,58.099,-0.2078,-0.488,-0.4259,0.7328
-0.53,-1.161,-0.213,61,62.5,-85.6,1023,2018,5,17,22,31,58.146,-0.216,-0.4854,-0.4122,0.74
-0.768,-0.82,-0.304,50.9,78.7,-134.1,1023,2018,5,17,22,31,58.148,-0.2284,-0.4887,-0.3909,0.7457
-0.874,-0.453,-0.219,32.4,107,-154.2,1023,2018,5,17,22,31,58.157,-0.2426,-0.4967,-0.3643,0.7494
-0.958,-0.201,-0.202,8.3,153.4,-151.4,1023,2018,5,17,22,31,58.195,-0.2527,-0.5091,-0.3324,0.7526
-1.002,0.077,-0.266,-19.9,186.9,-123,1023,2018,5,17,22,31,58.216,-0.2549,-0.5253,-0.2971,0.7554
-0.91,0.334,-0.322,-40,176.4,-83.2,1023,2018,5,17,22,31,58.218,-0.2495,-0.5426,-0.264,0.7573
-0.701,0.632,-0.228,-55.3,126,-29.6,1023,2018,5,17,22,31,58.254,-0.2404,-0.558,-0.2404,0.7569
-0.535,0.634,-0.332,-66,70.9,30,1023,2018,5,17,22,31,58.275,-0.2284,-0.57,-0.2303,0.7548
-0.055,0.795,-0.558,-64.2,12.2,88.8,1023,2018,5,17,22,31,58.279,-0.2133,-0.578,-0.2329,0.7523
0.136,0.887,-0.596,-60.4,-72.8,142.9,1023,2018,5,17,22,31,58.317,-0.1984,-0.5799,-0.2512,0.749
0.312,0.71,-0.273,-59.9,-133.8,177.9,0,2018,5,17,22,31,58.338,-0.1852,-0.5765,-0.2838,0.7433
0.922,0.552,0.165,-44.6,-148.1,173.4,0,2018,5,17,22,31,58.34,-0.1738,-0.5694,-0.3219,0.7361
1.57,0.276,0.372,-10.5,-124.6,133.6,0,2018,5,17,22,31,58.377,-0.1663,-0.5597,-0.3556,0.7297
1.342,-0.098,0.572,23.8,-63.9,94.9,0,2018,5,17,22,31,58.399,-0.1615,-0.5487,-0.3779,0.7279
1.061,-0.253,0.361,48.1,-20.3,55.2,0,2018,5,17,22,31,58.4,-0.1581,-0.5381,-0.3885,0.731
0.641,-0.546,-0.001,68.1,-34.9,8.3,0,2018,5,17,22,31,58.437,-0.16,-0.5277,-0.3933,0.7356
0.156,-1.057,-0.229,82.7,-34,-40.9,0,2018,5,17,22,31,58.459,-0.1713,-0.518,-0.3944,0.7394
-0.325,-1.117,-0.304,78.7,33.3,-93,0,2018,5,17,22,31,58.461,-0.1859,-0.5121,-0.3859,0.7444
-0.739,-0.798,-0.304,66.4,94.2,-138.1,0,2018,5,17,22,31,58.497,-0.2,-0.5126,-0.3636,0.7516
-0.972,-0.219,-0.245,51.6,100.3,-152.9,0,2018,5,17,22,31,58.519,-0.2142,-0.5176,-0.3347,0.7577
-1.133,-0.056,-0.27,29.9,99.4,-132.4,0,2018,5,17,22,31,58.521,-0.2269,-0.5239,-0.3068,0.7614
-1.207,-0.099,-0.167,-5.8,168.8,-86.1,0,2018,5,17,22,31,58.553,-0.2303,-0.5331,-0.2792,0.7646
-0.993,0.138,-0.2,-35.7,251.6,-31.8,0,2018,5,17,22,31,58.575,-0.2166,-0.5473,-0.2456,0.7701
-0.718,0.248,-0.189,-49.3,287.8,33.3,0,2018,5,17,22,31,58.584,-0.1881,-0.563,-0.2101,0.7768
-0.476,0.626,-0.189,-42.6,253.3,110.3,0,2018,5,17,22,31,58.622,-0.149,-0.5752,-0.1809,0.7836
-0.192,0.601,-0.35,-19.6,167.8,185.6,0,2018,5,17,22,31,58.622,-0.1065,-0.5798,-0.168,0.79
0.094,0.604,-0.218,6.3,58.3,231.7,0,2018,5,17,22,31,58.643,-0.0657,-0.5763,-0.1732,0.7959
0.494,0.33,0.03,12.8,-37.5,257.4,0,2018,5,17,22,31,58.68,-0.031,-0.5666,-0.1972,0.7993
0.795,0.16,-0.035,11.8,-90.8,239.6,0,2018,5,17,22,31,58.701,-0.0031,-0.5552,-0.2311,0.7988
1.425,-0.231,-0.243,16.9,-150.6,162.1,0,2018,5,17,22,31,58.703,0.0134,-0.545,-0.2672,0.7945
1.621,-0.52,-0.281,39.9,-179.2,39.7,1023,2018,5,17,22,31,58.741,0.009,-0.5366,-0.3001,0.7885
0.939,-0.49,0.223,61.7,-107.4,-64.2,1023,2018,5,17,22,31,58.741,-0.0102,-0.5306,-0.3184,0.7854
0.384,-0.316,0.532,50.4,-4.4,-116.9,1023,2018,5,17,22,31,58.765,-0.0312,-0.5277,-0.3159,0.7878
0.035,-0.477,0.136,33,60,-142.6,1023,2018,5,17,22,31,58.802,-0.0487,-0.5294,-0.2993,0.7922
-0.27,-0.343,-0.165,33,96,-152.1,1023,2018,5,17,22,31,58.824,-0.0636,-0.5334,-0.2735,0.7978
-0.627,-0.017,-0.212,42.1,91.4,-134.4,1023,2018,5,17,22,31,58.826,-0.0761,-0.5358,-0.2456,0.8041
-0.746,0.453,-0.178,50.9,33.5,-102.9,1023,2018,5,17,22,31,58.862,-0.0888,-0.5349,-0.2245,0.8096
-0.654,0.604,-0.133,48.3,-36.9,-40.7,1023,2018,5,17,22,31,58.883,-0.1017,-0.5305,-0.2174,0.8129
-0.667,0.658,0.006,37.2,-57.7,37.5,1023,2018,5,17,22,31,58.885,-0.1082,-0.5233,-0.2234,0.8151
-0.717,0.392,0.209,10.7,-29.6,109.2,1023,2018,5,17,22,31,58.904,-0.1027,-0.5159,-0.2364,0.8169
-0.611,0.256,0.303,-13,16.4,156.1,1023,2018,5,17,22,31,58.923,-0.0831,-0.5104,-0.2484,0.819
-0.317,-0.083,0.35,-24.9,-20.8,169.7,1023,2018,5,17,22,31,58.959,-0.0583,-0.5061,-0.2629,0.8193
0.248,-0.206,0.228,-28.5,-120.3,145.2,1023,2018,5,17,22,31,58.98,-0.0402,-0.5015,-0.2869,0.8151
0.861,-0.394,-0.047,-36.4,-205,89.6,1023,2018,5,17,22,31,58.982,-0.0365,-0.4989,-0.3219,0.8037
1.112,-0.501,-0.369,-37.2,-173,23.1,1023,2018,5,17,22,31,59.019,-0.0438,-0.4996,-0.3547,0.789
1.036,-0.286,-0.419,-26.7,-73.7,-60.2,1023,2018,5,17,22,31,59.043,-0.0552,-0.5045,-0.3694,0.7784
0.783,-0.143,-0.386,0.1,-19.2,-111.3,1023,2018,5,17,22,31,59.047,-0.0701,-0.5118,-0.3666,0.7737
0.537,-0.103,-0.285,29.4,-12.6,-135.5,1023,2018,5,17,22,31,59.066,-0.0891,-0.5174,-0.3569,0.7725
0.228,0.008,-0.085,50.9,-28.3,-145.9,1023,2018,5,17,22,31,59.086,-0.1127,-0.5201,-0.3461,0.7726
-0.157,0.099,0.012,55.2,-38,-133,0,2018,5,17,22,31,59.123,-0.138,-0.5208,-0.3372,0.7719
-0.562,0.16,0.037,42.8,-33.6,-97.4,0,2018,5,17,22,31,59.146,-0.1596,-0.5198,-0.3305,0.7713
-0.904,0.038,0.075,25.6,-20.3,-55,0,2018,5,17,22,31,59.15,-0.1742,-0.5187,-0.3265,0.7706
-1.026,-0.094,0.041,10.3,8.2,-20.9,0,2018,5,17,22,31,59.171,-0.1805,-0.5182,-0.3232,0.7709
-0.933,-0.244,0.173,-8.8,29,-0.8,0,2018,5,17,22,31,59.188,-0.1796,-0.5192,-0.3197,0.7719
-0.779,-0.01,0.147,-20.2,11.4,26.9,0,2018,5,17,22,31,59.205,-0.1748,-0.5211,-0.3177,0.7725
-0.514,-0.089,0.021,-32.1,2.1,65.3,0,2018,5,17,22,31,59.228,-0.1669,-0.522,-0.3224,0.7717
-0.156,-0.039,-0.049,-34.7,28.7,93.8,0,2018,5,17,22,31,59.247,-0.152,-0.5225,-0.3285,0.7719
0.757,0.107,-0.127,-20.7,-29.1,84.3,0,2018,5,17,22,31,59.269,-0.1368,-0.5213,-0.3368,0.7719
1.623,0.128,-0.049,-8,-135.5,18.6,0,2018,5,17,22,31,59.287,-0.1367,-0.5178,-0.354,0.7666
0.931,0.13,0.149,6.1,-91.1,-35.2,0,2018,5,17,22,31,59.311,-0.1503,-0.5155,-0.3699,0.7581
0.774,0.321,0.186,20,43.9,-79.6,0,2018,5,17,22,31,59.328,-0.1606,-0.5172,-0.3663,0.7565
0.617,0.568,0.153,30.2,49,-88.4,0,2018,5,17,22,31,59.352,-0.1687,-0.521,-0.3496,0.7601
0.248,0.407,-0.05,36,-23.1,-54.2,0,2018,5,17,22,31,59.369,-0.1794,-0.5212,-0.3403,0.7617
-0.217,0.351,-0.047,30.9,-60.2,-4.2,0,2018,5,17,22,31,59.392,-0.1895,-0.5167,-0.3426,0.7613
-0.771,-0.079,-0.117,13.3,-43,51.9,1023,2018,5,17,22,31,59.407,-0.1921,-0.5105,-0.3518,0.7606
-1.139,-0.68,-0.424,7.2,-26.5,49.6,1023,2018,5,17,22,31,59.426,-0.1882,-0.5048,-0.3597,0.7617
-1.104,-1.041,-0.088,-15.6,-37.1,10.6,1023,2018,5,17,22,31,59.449,-0.1855,-0.5027,-0.3661,0.7607
-0.763,-0.358,-0.085,-17.3,-47.4,-5.9,1023,2018,5,17,22,31,59.467,-0.1884,-0.5031,-0.3724,0.7567
-0.418,-0.089,-0.009,-35.4,-3.1,13.3,1023,2018,5,17,22,31,59.491,-0.1886,-0.5053,-0.3773,0.7527
-0.299,-0.227,0.115,-59.7,90.8,30.8,1023,2018,5,17,22,31,59.527,-0.1787,-0.5116,-0.3747,0.7522
-0.048,0.163,0.353,-82.1,95.1,39.4,1023,2018,5,17,22,31,59.527,-0.1595,-0.5218,-0.3662,0.7536
0.119,0.098,0.483,-97.8,11,39.2,1023,2018,5,17,22,31,59.549,-0.144,-0.5324,-0.3659,0.7495
0.163,0.002,0.397,-118.9,25.5,40.7,1023,2018,5,17,22,31,59.586,-0.1311,-0.5443,-0.3707,0.741
0.145,-0.005,0.288,-136.4,97.7,52.5,1023,2018,5,17,22,31,59.611,-0.1109,-0.5592,-0.3695,0.7337
0.2,0.092,-0.053,-138.1,147.4,65.3,1023,2018,5,17,22,31,59.616,-0.0818,-0.5754,-0.361,0.7292
0.514,0.312,-0.32,-132.8,106.8,61.4,1023,2018,5,17,22,31,59.631,-0.0513,-0.5901,-0.3522,0.7245
0.461,0.413,-0.375,-121.3,31.3,40.8,1023,2018,5,17,22,31,59.653,-0.0302,-0.6035,-0.3498,0.7157
0.276,0.228,-0.343,-108.6,9.7,26.4,1023,2018,5,17,22,31,59.689,-0.018,-0.6157,-0.352,0.7047
0.145,0.04,-0.38,-93.5,42,17.2,1023,2018,5,17,22,31,59.711,-0.0065,-0.627,-0.3513,0.6952
0.083,-0.247,-0.363,-72.2,79.3,4.9,0,2018,5,17,22,31,59.717,0.0068,-0.6362,-0.3448,0.69
0.019,-0.079,-0.088,-53.8,81.2,-1.2,0,2018,5,17,22,31,59.731,0.0195,-0.6435,-0.3351,0.6878
-0.087,-0.078,0.091,-50.1,75.2,-2.5,0,2018,5,17,22,31,59.752,0.0316,-0.6492,-0.3259,0.6864
-0.102,-0.094,0.064,-48.1,74.3,-0.2,0,2018,5,17,22,31,59.77,0.0425,-0.6547,-0.3163,0.6851
-0.082,0.107,0.122,-48.3,65.3,8,0,2018,5,17,22,31,59.792,0.0543,-0.6594,-0.3078,0.6837
0.012,0.22,0.041,-40.4,7.9,13.1,0,2018,5,17,22,31,59.811,0.0626,-0.6636,-0.3038,0.6806
0.082,0.203,-0.064,-40.7,-72.1,10.6,0,2018,5,17,22,31,59.834,0.0621,-0.6683,-0.3087,0.6738
0.065,0.136,-0.214,-37.4,-119.3,7.8,0,2018,5,17,22,31,59.851,0.0534,-0.6734,-0.3211,0.6636
0.009,0.175,-0.221,-30.5,-115.8,0.6,0,2018,5,17,22,31,59.874,0.0413,-0.6782,-0.3346,0.6528
0.046,0.388,-0.148,-26.3,-110.1,-2.5,0,2018,5,17,22,31,59.912,0.0294,-0.6823,-0.3463,0.643
0.159,0.37,-0.162,-22.2,-129.4,-1.2,0,2018,5,17,22,31,59.912,0.0161,-0.6856,-0.3593,0.6328
0.124,0.318,-0.148,-17.7,-134.6,9.2,0,2018,5,17,22,31,59.934,0.0015,-0.6878,-0.374,0.6221
0.099,0.271,-0.104,-19.1,-112.7,22.1,0,2018,5,17,22,31,59.954,-0.0104,-0.6886,-0.3892,0.6116
0.025,0.072,-0.066,-22.4,-78,37.2,0,2018,5,17,22,31,59.972,-0.0172,-0.6885,-0.4032,0.6024
-0.005,-0.004,-0.071,-24.1,-41,47,0,2018,5,17,22,31,59.992,-0.0171,-0.6881,-0.4151,0.5948
0,-0.001,-0.036,-22.7,-24.3,52.6,0,2018,5,17,22,32,0.015,-0.0132,-0.6871,-0.425,0.589
-0.008,-0.014,-0.012,-19.3,-24.6,56.3,0,2018,5,17,22,32,0.033,-0.008,-0.6851,-0.4348,0.5842
-0.028,-0.161,-0.104,-13.3,-31.8,57.4,0,2018,5,17,22,32,0.053,-0.003,-0.6823,-0.4457,0.5793
0.002,-0.285,-0.114,-8.3,-18.8,54.2,1023,2018,5,17,22,32,0.092,0.0001,-0.679,-0.4549,0.5761
-0.002,-0.17,-0.08,-5.3,13.2,51.2,1023,2018,5,17,22,32,0.115,0.006,-0.6754,-0.4617,0.5748
-0.026,0.046,0.009,-3.5,43,50,1023,2018,5,17,22,32,0.119,0.0159,-0.6717,-0.4655,0.576
-0.011,0.209,0.05,-3.8,41.9,48,1023,2018,5,17,22,32,0.135,0.0266,-0.668,-0.4667,0.5788
0.09,0.261,-0.11,-2.5,5.2,50.7,1023,2018,5,17,22,32,0.158,0.0345,-0.6643,-0.4699,0.5801
0.148,0.214,-0.195,4.1,-24.4,56.1,1023,2018,5,17,22,32,0.174,0.0385,-0.6599,-0.4772,0.5789
0.193,0.154,-0.199,12.5,-37,59.2,1023,2018,5,17,22,32,0.192,0.0399,-0.6544,-0.4872,0.5767
0.167,0.086,-0.149,23.4,-32.1,59.3,1023,2018,5,17,22,32,0.214,0.0403,-0.6476,-0.4978,0.5753
0.157,0.053,-0.101,29.1,-14.2,59.7,1023,2018,5,17,22,32,0.232,0.0409,-0.64,-0.507,0.5757
0.11,-0.164,-0.071,36.6,9.1,48.6,1023,2018,5,17,22,32,0.255,0.0436,-0.6321,-0.5141,0.578
0.297,-0.323,-0.158,44.5,19.6,14.3,1023,2018,5,17,22,32,0.292,0.046,-0.6246,-0.517,0.5833
0.65,-0.246,-0.402,66,0,-30.1,1023,2018,5,17,22,32,0.317,0.0418,-0.6198,-0.5156,0.59
0.538,-0.197,-0.332,100.6,-34.9,-70.3,1023,2018,5,17,22,32,0.319,0.0264,-0.6159,-0.5129,0.5973
0.295,-0.442,-0.297,131.9,-1.4,-98.5,1023,2018,5,17,22,32,0.339,0.0051,-0.6115,-0.5073,0.6071
0.318,-0.198,-0.397,150.6,52.2,-126,1023,2018,5,17,22,32,0.357,-0.016,-0.606,-0.4926,0.6242
0.541,0.407,-0.566,168.6,8.6,-147.8,1023,2018,5,17,22,32,0.38,-0.0402,-0.6002,-0.4728,0.6437
0.13,0.648,-0.613,224.4,-131.9,-142.4,0,2018,5,17,22,32,0.398,-0.0799,-0.5893,-0.463,0.6572
-0.381,0.433,-0.504,264.6,-218,-84,0,2018,5,17,22,32,0.42,-0.1321,-0.5667,-0.4687,0.6646
-0.741,0.613,-0.255,282.5,-210,11.3,0,2018,5,17,22,32,0.439,-0.1799,-0.5314,-0.483,0.6722
-1.011,0.68,0.037,266.1,-201.6,109,0,2018,5,17,22,32,0.461,-0.2144,-0.486,-0.5035,0.6813
-1.163,0.179,0,224.6,-199.4,166.9,0,2018,5,17,22,32,0.478,-0.2349,-0.4358,-0.5288,0.6893
-1.272,-0.506,-0.054,167.7,-220.1,165.4,0,2018,5,17,22,32,0.496,-0.2478,-0.3871,-0.5579,0.6909
-1.331,-1.112,0.098,96.7,-205.7,136.4,0,2018,5,17,22,32,0.519,-0.2568,-0.3464,-0.5883,0.6839
-0.921,-1.58,0.26,23.1,-93.6,58.3,0,2018,5,17,22,32,0.539,-0.2599,-0.3224,-0.6094,0.676
-0.611,-1.467,0.572,-58.5,50,-18.2,0,2018,5,17,22,32,0.56,-0.257,-0.3221,-0.6129,0.6741
-0.217,-0.86,0.853,-150.8,157.5,-66.1,0,2018,5,17,22,32,0.577,-0.2447,-0.3447,-0.6019,0.6774
0.337,-0.221,0.458,-208.3,171.5,-94,0,2018,5,17,22,32,0.617,-0.2241,-0.3822,-0.5839,0.6802
0.985,0.241,-0.065,-208.4,121.8,-116.2,0,2018,5,17,22,32,0.639,-0.2047,-0.4236,-0.567,0.6759
1.165,0.709,-0.247,-159.3,48.3,-152.3,0,2018,5,17,22,32,0.643,-0.1955,-0.4613,-0.5533,0.6654
0.84,0.816,-0.561,-76.4,12.3,-182.1,0,2018,5,17,22,32,0.659,-0.202,-0.4918,-0.5406,0.6519
0.766,1.067,-0.694,-0.6,26.7,-165.2,0,2018,5,17,22,32,0.682,-0.2172,-0.5133,-0.5243,0.6436
0.714,1.384,-0.702,68.5,3.3,-112.1,0,2018,5,17,22,32,0.697,-0.2338,-0.5226,-0.5081,0.6433
0.337,1.296,-0.584,129.7,-84.6,-36.1,0,2018,5,17,22,32,0.716,-0.2548,-0.5158,-0.5019,0.6457
-0.358,0.894,-0.258,145.1,-143.4,56.3,0,2018,5,17,22,32,0.739,-0.2765,-0.493,-0.5102,0.6481
-0.907,0.288,-0.322,129.9,-142.6,125.2,1023,2018,5,17,22,32,0.776,-0.2903,-0.4613,-0.5282,0.6509
-1.006,-0.148,-0.535,114.5,-158.5,145.8,1023,2018,5,17,22,32,0.776,-0.2971,-0.4269,-0.5496,0.6536
-1.117,-0.862,-0.214,99,-161.9,127.1,1023,2018,5,17,22,32,0.8,-0.3035,-0.3923,-0.5726,0.6526
-1.064,-1.29,0.098,57.3,-92.6,74.1,1023,2018,5,17,22,32,0.836,-0.3085,-0.3661,-0.5901,0.6499
-0.792,-1.218,0.43,4.9,-14,7.9,1023,2018,5,17,22,32,0.86,-0.31,-0.356,-0.5964,0.649
-0.458,-0.776,0.595,-49,-13.7,-43.9,1023,2018,5,17,22,32,0.864,-0.3104,-0.3606,-0.5973,0.6454
-0.101,-0.903,0.473,-84.4,-8.3,-66.1,1023,2018,5,17,22,32,0.881,-0.311,-0.3732,-0.5995,0.6359
0.204,-0.393,0.532,-124.5,79.7,-64.6,1023,2018,5,17,22,32,0.903,-0.3047,-0.3938,-0.5965,0.6293
0.682,0.231,0.279,-150,105.1,-67.6,1023,2018,5,17,22,32,0.92,-0.2902,-0.4211,-0.5884,0.6261
1.154,0.792,-0.382,-129.7,83.2,-78,1023,2018,5,17,22,32,0.944,-0.2762,-0.449,-0.5796,0.6213
1.041,0.921,-0.655,-45.4,13.8,-92,1023,2018,5,17,22,32,0.96,-0.2725,-0.4696,-0.5718,0.6148
0.465,0.894,-0.37,31.2,-16.4,-62.7,1023,2018,5,17,22,32,0.998,-0.2814,-0.4776,-0.5659,0.6102
0.061,0.866,-0.392,75.5,-9.7,-2.4,1023,2018,5,17,22,32,1.02,-0.291,-0.4741,-0.5621,0.6119
-0.187,0.949,-0.327,104.1,-65.3,55.2,1023,2018,5,17,22,32,1.026,-0.2996,-0.4599,-0.5632,0.6175
-0.656,0.519,-0.251,117.7,-157.7,112.9,1023,2018,5,17,22,32,1.044,-0.3107,-0.4328,-0.5768,0.6191
-0.961,-0.047,-0.149,82.1,-157.7,138.9,1023,2018,5,17,22,32,1.06,-0.3189,-0.3995,-0.5985,0.6167
-1.06,-0.644,-0.14,41.6,-121.2,122.4,1023,2018,5,17,22,32,1.083,-0.3199,-0.3713,-0.6191,0.6134
-0.949,-1.118,0.023,17.9,-84.5,80,1023,2018,5,17,22,32,1.102,-0.319,-0.3514,-0.635,0.6094
-0.779,-0.953,0.337,-19.2,-39.9,32.1,1023,2018,5,17,22,32,1.124,-0.3169,-0.342,-0.6447,0.6056
-0.538,-0.821,0.34,-67.2,-32.3,-5.5,0,2018,5,17,22,32,1.141,-0.3127,-0.3434,-0.6513,0.6
-0.262,-0.838,0.493,-129.5,6.4,-27.4,0,2018,5,17,22,32,1.164,-0.304,-0.3548,-0.6572,0.5912
0.218,-0.577,0.233,-179.6,73.6,-61.1,0,2018,5,17,22,32,1.183,-0.2877,-0.3784,-0.6583,0.5835
0.621,-0.095,-0.087,-187.1,108.5,-85,0,2018,5,17,22,32,1.205,-0.2672,-0.4107,-0.6525,0.5779
1.336,0.574,-0.357,-156.6,74.3,-104.6,0,2018,5,17,22,32,1.224,-0.2497,-0.4432,-0.6438,0.5714
1.444,1.057,-0.552,-80.5,9.9,-141.1,0,2018,5,17,22,32,1.247,-0.2445,-0.4705,-0.6355,0.561
0.573,0.456,-0.093,-4.7,-10.3,-165.4,0,2018,5,17,22,32,1.265,-0.2572,-0.491,-0.6259,0.5485
0.336,0.828,-0.208,45.6,81.1,-128.1,0,2018,5,17,22,32,1.282,-0.2698,-0.5068,-0.6076,0.5486
0.412,1.424,-0.277,81.4,30.3,-65.2,0,2018,5,17,22,32,1.305,-0.2803,-0.5137,-0.5897,0.5564
0.145,1.369,-0.229,104.3,-81.7,13.4,0,2018,5,17,22,32,1.323,-0.2948,-0.5055,-0.586,0.5603
-0.373,0.802,-0.054,101,-131.6,90.7,0,2018,5,17,22,32,1.347,-0.3104,-0.4835,-0.5967,0.56
-0.734,0.315,-0.069,77.5,-112.6,146.4,0,2018,5,17,22,32,1.364,-0.3179,-0.455,-0.6141,0.5609
-0.974,0.167,-0.068,41.6,-107.1,176,0,2018,5,17,22,32,1.386,-0.3164,-0.4254,-0.634,0.5628
-0.986,0.106,-0.196,15.6,-141,194.8,0,2018,5,17,22,32,1.404,-0.3098,-0.3949,-0.6582,0.5609
-1.085,-0.573,-0.075,-11.9,-149.7,181.6,0,2018,5,17,22,32,1.427,-0.3015,-0.3641,-0.6854,0.5537
-1.118,-1.074,-0.072,-51.3,-75.8,148.8,0,2018,5,17,22,32,1.445,-0.289,-0.341,-0.7085,0.5459
-0.911,-1.342,-0.001,-99.1,83.5,116.3,0,2018,5,17,22,32,1.463,-0.2669,-0.3317,-0.7195,0.5485
-0.763,-1.193,0.356,-163,232.5,74.9,0,2018,5,17,22,32,1.486,-0.2313,-0.3399,-0.7147,0.5657
-0.528,-0.563,0.514,-220.7,270.2,46.4,0,2018,5,17,22,32,1.504,-0.185,-0.362,-0.6988,0.5884
-0.293,0.047,0.487,-251.5,137.1,30.3,1023,2018,5,17,22,32,1.528,-0.1384,-0.3882,-0.6865,0.5989
-0.119,-0.146,0.13,-268.1,-22.3,5.4,1023,2018,5,17,22,32,1.545,-0.1018,-0.4141,-0.6882,0.5869
0.215,-0.093,-0.335,-270.8,-129.4,-24.3,1023,2018,5,17,22,32,1.568,-0.0761,-0.4412,-0.7004,0.5557
0.359,-0.459,-0.531,-255.2,-123.8,-46.7,1023,2018,5,17,22,32,1.587,-0.0578,-0.4686,-0.7137,0.5172
0.53,-0.621,-0.66,-240.9,6.8,-75.7,1023,2018,5,17,22,32,1.605,-0.0368,-0.4975,-0.7171,0.4865
0.512,-0.165,-0.567,-212.5,148.4,-100.6,1023,2018,5,17,22,32,1.627,-0.0084,-0.5284,-0.7029,0.4759
0.477,0.343,-0.713,-176.3,161.1,-106.1,1023,2018,5,17,22,32,1.648,0.0226,-0.5569,-0.6791,0.4776
0.634,0.739,-0.744,-106.9,75.7,-98.7,1023,2018,5,17,22,32,1.666,0.0418,-0.5803,-0.6582,0.4777
0.529,0.563,-0.53,-53.9,36.4,-72.1,1023,2018,5,17,22,32,1.689,0.0485,-0.5954,-0.6452,0.4761
0.287,0.406,-0.224,-33.9,63.5,-55.5,1023,2018,5,17,22,32,1.707,0.0536,-0.6057,-0.6348,0.4766
0.25,0.246,-0.245,-4.3,122.7,-37.7,1023,2018,5,17,22,32,1.73,0.0622,-0.6119,-0.6215,0.4851
0.36,0.24,-0.735,69.1,130.6,-13.8,1023,2018,5,17,22,32,1.746,0.0709,-0.6099,-0.6074,0.5038
0.364,0.415,-0.784,131.1,54.7,-0.7,1023,2018,5,17,22,32,1.764,0.0692,-0.6002,-0.5997,0.5245
0.204,0.311,-0.51,174.6,22.1,16.4,1023,2018,5,17,22,32,1.787,0.057,-0.5844,-0.5992,0.5441
-0.056,0.161,-0.172,194.1,24.7,22.8,1023,2018,5,17,22,32,1.805,0.0417,-0.5638,-0.6008,0.565
-0.129,0.084,0.105,185.8,24.8,16.7,1023,2018,5,17,22,32,1.829,0.0266,-0.5423,-0.602,0.5854
-0.185,0.066,0.418,154.6,25.8,10.3,1023,2018,5,17,22,32,1.866,0.0124,-0.5229,-0.6011,0.6041
-0.285,0.196,0.611,102.2,16,12.3,1023,2018,5,17,22,32,1.888,0.002,-0.5081,-0.5997,0.6181
-0.393,0.182,0.508,54.6,-11.5,20.8,0,2018,5,17,22,32,1.893,-0.0039,-0.4981,-0.6008,0.6251
-0.435,0.244,0.474,16.3,-38.9,31.1,0,2018,5,17,22,32,1.908,-0.0073,-0.4917,-0.6058,0.6253
-0.514,0.099,0.717,-37.5,-10.9,54.4,0,2018,5,17,22,32,1.93,-0.004,-0.4883,-0.6125,0.6215
-0.509,0.056,0.673,-97.8,72.3,78.6,0,2018,5,17,22,32,1.968,0.013,-0.4887,-0.6147,0.6189
-0.442,0.02,0.383,-135,138.8,101.4,0,2018,5,17,22,32,1.968,0.0457,-0.4913,-0.6095,0.6204
-0.285,0.294,0.118,-138.5,83.2,103.6,0,2018,5,17,22,32,1.993,0.0813,-0.4943,-0.6039,0.6198
-0.184,-0.003,0.079,-144.6,36.8,130.2,0,2018,5,17,22,32,2.011,0.1141,-0.4958,-0.6064,0.6109
-0.33,-0.506,0.145,-169.7,101.4,132,0,2018,5,17,22,32,2.03,0.1501,-0.4969,-0.6077,0.6009
-0.355,-0.51,0.089,-181.9,171.3,103.2,0,2018,5,17,22,32,2.05,0.1941,-0.4987,-0.5971,0.5974
-0.101,-0.205,-0.076,-173.5,94.8,69.1,0,2018,5,17,22,32,2.069,0.2337,-0.5032,-0.5831,0.5932
0.053,-0.238,-0.151,-166,-8.3,43.8,0,2018,5,17,22,32,2.092,0.2602,-0.5133,-0.5775,0.5789
0.012,-0.188,-0.305,-147.9,-66.3,22,0,2018,5,17,22,32,2.108,0.2756,-0.5277,-0.5777,0.5583
-0.05,-0.156,-0.376,-126.6,-83.5,-4.1,0,2018,5,17,22,32,2.131,0.2826,-0.5449,-0.5794,0.5359
0.085,-0.119,-0.404,-106.1,-46.1,-15.1,0,2018,5,17,22,32,2.149,0.2869,-0.5592,-0.5786,0.5196
0.289,0.065,-0.479,-77.1,-53.6,-21.1,0,2018,5,17,22,32,2.169,0.2902,-0.5722,-0.5758,0.5067
0.403,0.105,-0.527,-48.7,-70.9,-12.7,0,2018,5,17,22,32,2.208,0.2883,-0.5822,-0.5765,0.4953
0.332,0.009,-0.459,-17.4,-48.3,-6,0,2018,5,17,22,32,2.208,0.2841,-0.5894,-0.5794,0.4859
0.277,0.148,-0.326,3.2,-20.6,-0.6,0,2018,5,17,22,32,2.231,0.2811,-0.5918,-0.5812,0.4824
0.281,0.346,-0.204,21.2,-29.2,2.4,0,2018,5,17,22,32,2.249,0.2776,-0.5918,-0.5834,0.4817
0.27,0.326,-0.249,34.9,-64.9,3.4,1023,2018,5,17,22,32,2.271,0.2699,-0.5915,-0.5888,0.4799
0.304,0.184,-0.154,50.8,-109.2,0.9,1023,2018,5,17,22,32,2.292,0.2565,-0.5919,-0.5982,0.4752
0.393,0.248,0.05,61.9,-159.9,-2.5,1023,2018,5,17,22,32,2.309,0.2364,-0.5931,-0.6115,0.4671
0.445,0.376,-0.028,63.2,-207.8,1.7,1023,2018,5,17,22,32,2.332,0.21,-0.5954,-0.629,0.4535
0.509,0.037,-0.373,71.2,-231.9,-4.2,1023,2018,5,17,22,32,2.35,0.1789,-0.5982,-0.6485,0.4352
0.541,-0.083,-0.3,77.2,-120.7,17.7,1023,2018,5,17,22,32,2.372,0.1512,-0.5976,-0.6647,0.4219
0.426,0.043,-0.089,67.5,53.9,47.4,1023,2018,5,17,22,32,2.41,0.1426,-0.5888,-0.6721,0.4255
0.324,0.337,0.149,62.5,92.7,43.5,1023,2018,5,17,22,32,2.432,0.1483,-0.5759,-0.6716,0.4418
0.252,0.46,0.41,57.8,-27.8,44.1,1023,2018,5,17,22,32,2.437,0.1476,-0.5656,-0.6746,0.4506
0.197,-0.12,0.238,41,-88.6,61.7,1023,2018,5,17,22,32,2.452,0.1386,-0.5572,-0.6866,0.4458
-0.116,-0.643,0.115,6.9,1.1,89.4,1023,2018,5,17,22,32,2.474,0.1369,-0.5471,-0.6986,0.4401
-0.415,-0.506,0.012,-12.1,25.3,61.1,1023,2018,5,17,22,32,2.513,0.1461,-0.5374,-0.7033,0.4416
-0.452,0.238,0.384,-19.3,-157,26.3,1023,2018,5,17,22,32,2.513,0.1458,-0.5353,-0.7112,0.4315
-0.338,-0.048,0.119,-15.5,-304.5,15,1023,2018,5,17,22,32,2.534,0.1261,-0.54,-0.7305,0.3984
-0.179,-0.175,-0.297,-19.3,-234.5,13.3,1023,2018,5,17,22,32,2.552,0.1019,-0.5453,-0.7501,0.3597
-0.264,-0.165,-0.291,-31.2,-33.5,32.5,1023,2018,5,17,22,32,2.575,0.094,-0.5457,-0.7601,0.3397
-0.278,0.021,-0.197,-39.3,77.2,17.3,1023,2018,5,17,22,32,2.592,0.1044,-0.5439,-0.7594,0.3412
-0.246,0.27,-0.191,-22.2,23.9,6,1023,2018,5,17,22,32,2.614,0.1148,-0.5433,-0.7564,0.3455
-0.149,0.263,-0.152,-1,-39.1,6.6,1023,2018,5,17,22,32,2.649,0.1148,-0.5436,-0.7576,0.3424
0.003,0.213,0.015,-1.1,-5.3,25.3,1023,2018,5,17,22,32,2.673,0.1129,-0.5422,-0.7607,0.3384
0.061,0,0.051,-9,77.2,43.8,1023,2018,5,17,22,32,2.679,0.1189,-0.5372,-0.7617,0.342
-0.129,0.18,0.069,-7.3,53.5,46.2,0,2018,5,17,22,32,2.698,0.1303,-0.5299,-0.761,0.3506
-0.361,-0.674,0.32,-20.2,5.2,11.2,0,2018,5,17,22,32,2.719,0.1342,-0.5276,-0.7622,0.35
-0.025,0.165,-0.042,-21.2,30.1,-2.8,0,2018,5,17,22,32,2.753,0.1403,-0.528,-0.7602,0.3514
-0.024,-0.054,-0.159,-10.6,18.4,3,0,2018,5,17,22,32,2.776,0.1441,-0.5286,-0.7589,0.3517
-0.014,0.106,-0.102,-0.8,11.6,7.7,0,2018,5,17,22,32,2.78,0.1469,-0.5279,-0.7587,0.3522
-0.007,-0.055,-0.008,0,0.8,6.4,0,2018,5,17,22,32,2.796,0.1477,-0.5268,-0.7596,0.3516
-0.02,-0.021,0.005,-5,9.9,-0.1,0,2018,5,17,22,32,2.831,0.1495,-0.5263,-0.7594,0.3519
0.04,-0.014,-0.037,-4.7,8.3,-1.5,0,2018,5,17,22,32,2.854,0.1514,-0.5264,-0.7587,0.3524
0.068,0.002,-0.009,-1.3,-3.9,-3.6,0,2018,5,17,22,32,2.859,0.1518,-0.5268,-0.7584,0.3521
0.03,-0.005,0.029,1.2,-17.8,-7.2,0,2018,5,17,22,32,2.876,0.1504,-0.5279,-0.7588,0.3505
0.009,-0.026,-0.021,2.3,-10.5,-8.8,0,2018,5,17,22,32,2.898,0.1482,-0.5294,-0.7589,0.3488
0.021,-0.023,-0.053,2.1,10.7,-3.5,0,2018,5,17,22,32,2.916,0.1478,-0.5301,-0.7585,0.3488
0.035,0.003,-0.035,2.7,18.4,-0.7,0,2018,5,17,22,32,2.938,0.149,-0.5298,-0.7575,0.3509
0.038,0.026,-0.032,7.7,-2,-4.3,0,2018,5,17,22,32,2.975,0.1489,-0.5297,-0.757,0.3523
-0.037,-0.02,-0.052,12,-18.8,-5.4,1023,2018,5,17,22,32,2.975,0.146,-0.5302,-0.7577,0.3512
-0.037,-0.018,-0.021,13.8,-3,-4.3,1023,2018,5,17,22,32,2.998,0.1433,-0.5302,-0.7586,0.3502
-0.03,0.054,-0.028,16.7,7.8,-6.8,1023,2018,5,17,22,32,3.015,0.1419,-0.5298,-0.7585,0.3516
0.028,0.107,0.033,17.2,1.5,-5.8,1023,2018,5,17,22,32,3.037,0.1396,-0.5296,-0.7584,0.3532
0.055,0.109,0.036,16.3,-19.1,-8.6,1023,2018,5,17,22,32,3.056,0.1355,-0.5301,-0.7586,0.3534
0.045,0.031,0.036,12.9,-26.4,-9.6,1023,2018,5,17,22,32,3.078,0.1302,-0.5312,-0.7598,0.3513
0.057,-0.072,-0.028,8.6,-4.9,-9.2,1023,2018,5,17,22,32,3.115,0.1267,-0.5322,-0.7601,0.3504
0.071,0.007,-0.045,6.3,4.6,-8.2,1023,2018,5,17,22,32,3.137,0.1253,-0.533,-0.7591,0.3517
0.1,0.057,-0.067,13.5,-26.4,-9.4,1023,2018,5,17,22,32,3.14,0.1222,-0.534,-0.7591,0.3514
0.104,-0.076,-0.066,18.8,-46.3,-12.5,1023,2018,5,17,22,32,3.176,0.1152,-0.5355,-0.7609,0.3477
0.071,-0.145,-0.015,18.1,-18.1,-16.5,1023,2018,5,17,22,32,3.177,0.1086,-0.5369,-0.7616,0.3459
0.046,-0.081,0.021,15.3,14.9,-16.7,1023,2018,5,17,22,32,3.216,0.1057,-0.538,-0.7601,0.3485
0.031,0.001,0.014,12.8,28.9,-14.9,1023,2018,5,17,22,32,3.236,0.1054,-0.5387,-0.7574,0.3534
0.026,0.054,0.07,11.1,13.5,-13.3,1023,2018,5,17,22,32,3.24,0.1051,-0.5394,-0.755,0.3574
0,0.035,0.134,8.8,1.5,-10.7,1023,2018,5,17,22,32,3.279,0.1037,-0.5402,-0.7537,0.3595
-0.034,0.034,0.146,1.9,8,-6.7,1023,2018,5,17,22,32,3.3,0.1033,-0.5407,-0.7526,0.3611
-0.086,0.092,0.086,-4.3,10.7,-3.9,1023,2018,5,17,22,32,3.303,0.1052,-0.541,-0.7515,0.3624
-0.089,0.197,0.072,-6.4,-22.3,-1.7,1023,2018,5,17,22,32,3.338,0.1055,-0.5419,-0.7516,0.3608
-0.073,0.159,0.062,-5.7,-43.3,5,0,2018,5,17,22,32,3.338,0.1031,-0.5428,-0.754,0.3549
-0.069,0.139,0.035,-6,-15.6,20.8,0,2018,5,17,22,32,3.36,0.1016,-0.5422,-0.7578,0.3482
-0.125,0.087,0.055,-9.7,41,39.2,0,2018,5,17,22,32,3.396,0.1059,-0.5386,-0.76,0.3477
-0.188,0.141,0.013,-14.3,79.7,49.1,0,2018,5,17,22,32,3.417,0.117,-0.5319,-0.7597,0.3551
-0.132,0.302,0.018,-12.4,38.7,48.1,0,2018,5,17,22,32,3.419,0.1277,-0.525,-0.7597,0.3616
-0.062,0.071,0.1,-13.9,-7.7,41.9,0,2018,5,17,22,32,3.455,0.1331,-0.5197,-0.763,0.3602
-0.045,-0.165,-0.134,-17.1,10.8,26.7,0,2018,5,17,22,32,3.476,0.1384,-0.5156,-0.7661,0.3575
-0.08,-0.118,-0.205,-16.8,29.7,14.6,0,2018,5,17,22,32,3.481,0.144,-0.5136,-0.7664,0.3577
0.092,-0.04,0.019,-18.3,27.1,1.3,0,2018,5,17,22,32,3.52,0.1499,-0.513,-0.7646,0.3599
0.207,-0.068,0.06,-18.3,17.2,-6.9,0,2018,5,17,22,32,3.54,0.1539,-0.5141,-0.7624,0.3615
0.249,0.025,-0.033,-19.3,4.2,-1.3,0,2018,5,17,22,32,3.543,0.157,-0.5157,-0.7605,0.3617
0.185,0.01,-0.057,-14.3,-16.7,9.2,0,2018,5,17,22,32,3.561,0.1587,-0.5166,-0.7608,0.3592
0.127,-0.07,0,-8.6,-15.2,12.8,0,2018,5,17,22,32,3.582,0.1589,-0.5165,-0.7623,0.356
0.111,-0.089,-0.13,1.6,-18.1,13.5,0,2018,5,17,22,32,3.618,0.1583,-0.5156,-0.7641,0.3536
0.006,-0.138,-0.27,16.5,-32,8,0,2018,5,17,22,32,3.639,0.1551,-0.5146,-0.7669,0.3504
-0.059,-0.263,-0.378,35.3,-16.2,0.1,0,2018,5,17,22,32,3.643,0.1495,-0.5133,-0.77,0.348
-0.09,-0.232,-0.285,48.8,43.6,-9.9,0,2018,5,17,22,32,3.676,0.1454,-0.5107,-0.7702,0.353
-0.092,-0.08,-0.132,55.2,94.4,-22.7,0,2018,5,17,22,32,3.699,0.1446,-0.5075,-0.7659,0.3671
-0.164,0.061,-0.16,66.1,90.5,-30.6,0,2018,5,17,22,32,3.704,0.1439,-0.5047,-0.7586,0.3858
-0.271,0.064,-0.218,84.9,32.4,-33.2,1023,2018,5,17,22,32,3.739,0.1365,-0.5024,-0.7534,0.4014
-0.187,0.093,0.027,82.9,34.2,-25.6,1023,2018,5,17,22,32,3.762,0.1255,-0.4997,-0.7507,0.4132
-0.064,0.203,0.053,71.1,69.5,-17.8,1023,2018,5,17,22,32,3.765,0.1189,-0.4956,-0.7469,0.4268
-0.041,0.353,-0.152,68.4,25.3,-22.6,1023,2018,5,17,22,32,3.8,0.1137,-0.4922,-0.7426,0.4396
-0.185,0.016,-0.31,74.6,-58.4,-18.5,1023,2018,5,17,22,32,3.8,0.1004,-0.4899,-0.7439,0.4431
-0.119,-0.291,-0.027,80.2,-55.5,-24.7,1023,2018,5,17,22,32,3.824,0.0832,-0.4879,-0.748,0.442
0.217,-0.231,0.121,90.4,-14.4,-34.1,1023,2018,5,17,22,32,3.842,0.0671,-0.4856,-0.7492,0.4452
0.352,-0.193,0.012,99.6,17.9,-47.8,1023,2018,5,17,22,32,3.863,0.0514,-0.4834,-0.7466,0.454
0.512,-0.377,-0.214,106.4,72.7,-59,1023,2018,5,17,22,32,3.9,0.0373,-0.4818,-0.7392,0.4688
0.556,-0.291,-0.055,119.3,126.4,-71.6,1023,2018,5,17,22,32,3.922,0.0268,-0.4802,-0.7253,0.4924
0.451,-0.241,0.257,134.1,105.8,-93.3,1023,2018,5,17,22,32,3.928,0.0136,-0.4787,-0.7084,0.5184
0.52,0.001,0.311,141.5,61.8,-119.8,1023,2018,5,17,22,32,3.944,-0.0064,-0.4788,-0.6918,0.5403
0.402,0.096,0.339,143.4,17.8,-139.7,1023,2018,5,17,22,32,3.966,-0.033,-0.4811,-0.6765,0.5565
0.18,-0.03,0.312,139.6,25.6,-143.4,1023,2018,5,17,22,32,3.984,-0.0618,-0.4839,-0.6615,0.5695
-0.01,0.07,0.405,126.3,36.7,-143.2,1023,2018,5,17,22,32,4.007,-0.0884,-0.4871,-0.644,0.5831
