ax,ay,az,dpitch,droll,dyaw,heart,time_1,time_2,time_3,time_4,time_5,time_6,w,x,y,z
-0.1,0.087,-0.103,-78.4,39.7,40.4,0,2018,5,17,19,38,8.281,-0.1103,0.6213,-0.3364,0.6989
-0.138,0.185,-0.153,-91.6,39.2,43.3,0,2018,5,17,19,38,8.299,-0.1041,0.6124,-0.3284,0.7114
-0.136,0.244,-0.215,-101.8,19.8,48.1,0,2018,5,17,19,38,8.319,-0.0959,0.6022,-0.3214,0.7243
-0.225,0.283,-0.266,-109.7,-12.4,57.5,0,2018,5,17,19,38,8.339,-0.0835,0.5915,-0.3171,0.7365
-0.367,0.284,-0.324,-116.4,-52.9,71.1,0,2018,5,17,19,38,8.359,-0.0652,0.5807,-0.3162,0.7472
-0.486,0.262,-0.345,-121,-99.4,85.2,0,2018,5,17,19,38,8.379,-0.0402,0.5701,-0.3194,0.7557
-0.473,0.203,-0.353,-123.5,-145.8,93,0,2018,5,17,19,38,8.417,-0.0088,0.5594,-0.3275,0.7613
-0.324,0.143,-0.351,-121.7,-181.3,88.3,0,2018,5,17,19,38,8.435,0.0264,0.5481,-0.3405,0.7634
-0.182,0.116,-0.325,-116.7,-202.4,72.8,0,2018,5,17,19,38,8.44,0.0626,0.5357,-0.3578,0.7622
-0.112,0.135,-0.3,-110.3,-210.2,54.9,0,2018,5,17,19,38,8.46,0.0974,0.5217,-0.3779,0.7585
-0.082,0.133,-0.281,-102.6,-203.2,40.2,0,2018,5,17,19,38,8.48,0.1294,0.5068,-0.399,0.753
-0.1,0.133,-0.255,-95.5,-189.4,33.3,0,2018,5,17,19,38,8.501,0.1583,0.4915,-0.419,0.7468
-0.124,0.099,-0.247,-90.6,-177.3,33.1,0,2018,5,17,19,38,8.52,0.1847,0.4765,-0.4373,0.7399
-0.1,0.077,-0.226,-87.9,-166.3,37.7,0,2018,5,17,19,38,8.541,0.2101,0.462,-0.4534,0.7326
-0.029,0.072,-0.194,-87.7,-157.5,44.6,0,2018,5,17,19,38,8.562,0.2349,0.448,-0.4674,0.7249
0.046,0.05,-0.168,-89.7,-150.3,48.9,0,2018,5,17,19,38,8.581,0.2599,0.4343,-0.4793,0.7169
0.115,0.04,-0.155,-93.3,-146,50.5,0,2018,5,17,19,38,8.621,0.2846,0.4202,-0.4897,0.7088
0.175,0.046,-0.162,-97.1,-144.7,48.8,0,2018,5,17,19,38,8.639,0.309,0.4055,-0.4991,0.7005
0.227,0.082,-0.171,-99.4,-150.8,46.7,0,2018,5,17,19,38,8.644,0.3333,0.3898,-0.5083,0.6916
0.266,0.104,-0.195,-99.6,-166.1,44.7,0,2018,5,17,19,38,8.659,0.3579,0.3727,-0.5184,0.6813
0.266,0.094,-0.214,-98.8,-187,43,0,2018,5,17,19,38,8.698,0.383,0.3539,-0.5302,0.6684
0.249,0.034,-0.241,-97.2,-201,39.7,0,2018,5,17,19,38,8.718,0.4084,0.3332,-0.5437,0.653
0.183,0.002,-0.265,-95.5,-204.5,37.4,0,2018,5,17,19,38,8.722,0.433,0.3115,-0.5575,0.636
0.095,-0.024,-0.297,-94.6,-204.7,39.4,0,2018,5,17,19,38,8.742,0.4569,0.2893,-0.5707,0.6178
-0.047,-0.082,-0.371,-94.1,-202.4,48.5,0,2018,5,17,19,38,8.761,0.4805,0.2674,-0.5828,0.5981
-0.17,-0.207,-0.424,-94.4,-179.1,60.3,1023,2018,5,17,19,38,8.783,0.5042,0.2473,-0.5921,0.5779
-0.136,-0.234,-0.439,-95.5,-149.9,65.8,1023,2018,5,17,19,38,8.802,0.5268,0.2303,-0.5973,0.559
-0.077,-0.194,-0.471,-94.7,-137.4,62,1023,2018,5,17,19,38,8.822,0.5484,0.2148,-0.5995,0.5418
-0.059,-0.129,-0.507,-90.7,-138.7,50.9,1023,2018,5,17,19,38,8.841,0.5681,0.199,-0.6013,0.5252
-0.057,-0.043,-0.504,-84.6,-154.1,40,1023,2018,5,17,19,38,8.862,0.5861,0.1815,-0.6043,0.5082
-0.105,-0.033,-0.488,-79.1,-171.7,35.6,1023,2018,5,17,19,38,8.883,0.6027,0.1615,-0.609,0.4894
-0.184,-0.123,-0.467,-73.6,-178.7,36.3,1023,2018,5,17,19,38,8.922,0.6184,0.1403,-0.6148,0.4687
-0.206,-0.205,-0.422,-69.9,-167.8,38.1,1023,2018,5,17,19,38,8.926,0.633,0.1197,-0.6201,0.4474
-0.162,-0.183,-0.384,-66.4,-153.3,40.1,1023,2018,5,17,19,38,8.942,0.6464,0.101,-0.6241,0.4269
-0.08,-0.141,-0.369,-61.6,-139.6,41.9,1023,2018,5,17,19,38,8.962,0.6587,0.0845,-0.6268,0.4072
-0.003,-0.133,-0.357,-54.5,-126.4,41.8,0,2018,5,17,19,38,8.982,0.6697,0.0699,-0.6289,0.3885
0.043,-0.148,-0.331,-46.9,-108.6,41.3,0,2018,5,17,19,38,9.002,0.6793,0.0576,-0.6303,0.3712
0.029,-0.144,-0.279,-41,-92.8,41.2,0,2018,5,17,19,38,9.022,0.6876,0.0477,-0.6311,0.3557
0,-0.162,-0.278,-35.8,-83.3,42.9,0,2018,5,17,19,38,9.06,0.695,0.0394,-0.6315,0.3413
-0.032,-0.16,-0.247,-30.9,-75.8,47.6,0,2018,5,17,19,38,9.08,0.7018,0.0329,-0.6317,0.3273
-0.053,-0.214,-0.201,-26.8,-68.8,50.5,0,2018,5,17,19,38,9.084,0.7081,0.0276,-0.632,0.3134
-0.072,-0.222,-0.157,-24.7,-65.8,52.3,0,2018,5,17,19,38,9.123,0.714,0.0238,-0.6321,0.2998
-0.081,-0.197,-0.167,-21.7,-71.7,52.2,0,2018,5,17,19,38,9.142,0.7195,0.0196,-0.6325,0.2859
-0.094,-0.239,-0.167,-18.8,-80.6,53.1,0,2018,5,17,19,38,9.146,0.7246,0.0145,-0.6335,0.2707
-0.043,-0.247,-0.102,-17.2,-80.9,51.9,0,2018,5,17,19,38,9.163,0.7292,0.009,-0.6348,0.2552
0.011,-0.172,-0.037,-16,-90.2,49.6,0,2018,5,17,19,38,9.183,0.7333,0.003,-0.6362,0.2394
0.116,-0.118,-0.033,-13.1,-111.8,45.8,0,2018,5,17,19,38,9.202,0.7367,-0.0058,-0.6385,0.2225
0.202,-0.177,-0.075,-7.5,-130.3,43,0,2018,5,17,19,38,9.24,0.7392,-0.0175,-0.6417,0.2032
0.252,-0.293,-0.059,-3.1,-105.2,39.8,0,2018,5,17,19,38,9.262,0.7407,-0.0287,-0.6453,0.1843
0.347,-0.218,-0.005,-0.1,-65.3,38.5,0,2018,5,17,19,38,9.266,0.7416,-0.0353,-0.6479,0.1699
0.395,-0.069,0.018,3.2,-50.5,37.2,0,2018,5,17,19,38,9.285,0.7422,-0.0382,-0.6499,0.1589
0.39,-0.027,0.003,7.6,-64.1,38,0,2018,5,17,19,38,9.305,0.7422,-0.0413,-0.6523,0.1478
0.291,-0.152,-0.035,9.8,-66,40.2,0,2018,5,17,19,38,9.326,0.7416,-0.0457,-0.6554,0.1351
0.264,-0.16,-0.032,10.6,-58.5,41,0,2018,5,17,19,38,9.365,0.7407,-0.049,-0.6585,0.1229
0.303,-0.125,-0.033,8.3,-49.5,39.3,0,2018,5,17,19,38,9.369,0.74,-0.0513,-0.6612,0.1117
0.372,-0.012,-0.037,9.1,-58.9,34.5,0,2018,5,17,19,38,9.384,0.7392,-0.054,-0.6635,0.1015
0.321,-0.221,-0.081,10.2,-67,24.5,0,2018,5,17,19,38,9.405,0.7378,-0.0597,-0.6662,0.0902
0.33,-0.296,-0.099,11.1,-43.8,9.1,0,2018,5,17,19,38,9.425,0.7362,-0.065,-0.6685,0.082
0.333,-0.198,-0.095,10.8,-28,-7.5,1023,2018,5,17,19,38,9.445,0.7344,-0.0695,-0.6704,0.0782
0.279,-0.14,-0.144,9.2,-29.9,-21.9,1023,2018,5,17,19,38,9.466,0.7327,-0.0751,-0.6719,0.077
0.167,-0.233,-0.138,6.1,-26.4,-37.9,1023,2018,5,17,19,38,9.502,0.7309,-0.0822,-0.6729,0.0778
0.1,-0.251,-0.122,4.5,-24.7,-52.5,1023,2018,5,17,19,38,9.523,0.7293,-0.0909,-0.6732,0.0808
0.044,-0.226,-0.135,5.9,-23.4,-61.4,1023,2018,5,17,19,38,9.528,0.7275,-0.1006,-0.6732,0.0854
0.018,-0.241,-0.157,9.9,-25,-65.8,1023,2018,5,17,19,38,9.565,0.725,-0.1113,-0.6735,0.0908
-0.063,-0.269,-0.164,12.8,-20.7,-62.5,1023,2018,5,17,19,38,9.585,0.7221,-0.1215,-0.6741,0.0963
-0.162,-0.169,0.118,8.2,-23.8,-60.1,1023,2018,5,17,19,38,9.589,0.7193,-0.1306,-0.6744,0.1026
-0.688,-0.694,1.149,-36.5,-43.8,-56.1,1023,2018,5,17,19,38,9.608,0.7185,-0.1422,-0.6726,0.1049
-0.442,-0.362,1.05,-92.5,2.8,-58.9,1023,2018,5,17,19,38,9.629,0.7251,-0.1514,-0.6628,0.1087
-0.129,0.137,0.291,-121.3,-51.4,-49.6,0,2018,5,17,19,38,9.648,0.7359,-0.1632,-0.6478,0.11
0.033,0.26,-0.021,-120.9,-67.5,-26.2,0,2018,5,17,19,38,9.667,0.747,-0.1777,-0.6321,0.1038
-0.138,-0.143,-0.015,-108.9,-40.6,-20.8,0,2018,5,17,19,38,9.687,0.7571,-0.1893,-0.6177,0.0968
-0.214,-0.239,0.16,-104.2,-11.4,-32.4,0,2018,5,17,19,38,9.708,0.7671,-0.1977,-0.6027,0.0948
-0.151,0.001,0.197,-109.5,-1,-35.4,0,2018,5,17,19,38,9.748,0.7779,-0.2039,-0.5866,0.0956
-0.057,0.228,0.153,-115.5,-12.7,-29.9,0,2018,5,17,19,38,9.768,0.7885,-0.2098,-0.57,0.0956
0.022,0.193,0.078,-116.3,-37.5,-23.6,0,2018,5,17,19,38,9.772,0.7986,-0.2178,-0.5533,0.0923
0.101,0.005,0.077,-113.3,-49,-18.9,0,2018,5,17,19,38,9.79,0.8077,-0.2277,-0.5369,0.0863
0.082,-0.109,0.151,-109.3,-33,-17.7,0,2018,5,17,19,38,9.81,0.816,-0.2369,-0.521,0.0805
0.069,-0.133,0.165,-105,-13.8,-17.9,0,2018,5,17,19,38,9.85,0.8244,-0.2432,-0.5052,0.0765
-0.01,-0.12,0.138,-98.8,-13.5,-15.2,0,2018,5,17,19,38,9.854,0.8325,-0.2478,-0.4898,0.0735
-0.035,-0.096,0.086,-89,-9.5,-9.3,0,2018,5,17,19,38,9.871,0.84,-0.2521,-0.475,0.0707
-0.09,-0.113,0.064,-76.3,-7.9,-4.7,0,2018,5,17,19,38,9.888,0.8463,-0.2556,-0.4623,0.0677
-0.084,-0.15,-0.018,-57.8,-3.9,-3,0,2018,5,17,19,38,9.907,0.851,-0.2585,-0.4524,0.065
-0.069,-0.205,-0.028,-38.3,10.4,-6.2,0,2018,5,17,19,38,9.947,0.8547,-0.2592,-0.4451,0.0639
0.021,-0.035,-0.007,-22.2,25.8,-7.7,0,2018,5,17,19,38,9.966,0.8576,-0.2574,-0.4402,0.0654
0.084,0.029,0.027,-10.5,21.1,-5.9,0,2018,5,17,19,38,9.97,0.86,-0.2546,-0.4369,0.0676
0.095,0.05,0.051,-4.3,28,-4.8,0,2018,5,17,19,38,9.99,0.8619,-0.2514,-0.4345,0.0701
0.162,0.084,0.036,-3.1,33.5,-4.7,0,2018,5,17,19,38,10.011,0.8639,-0.2469,-0.4326,0.0732
0.106,0.112,0,-3.6,28.9,-4.5,0,2018,5,17,19,38,10.05,0.8659,-0.242,-0.4308,0.0762
0.088,0.093,-0.026,-6.3,14.8,-0.5,0,2018,5,17,19,38,10.07,0.8675,-0.2386,-0.4293,0.0779
0.013,0.069,-0.005,-12.4,8.8,0,0,2018,5,17,19,38,10.074,0.8688,-0.2366,-0.4277,0.0782
-0.001,0.072,-0.025,-21.1,3.8,-0.9,0,2018,5,17,19,38,10.088,0.8704,-0.2356,-0.4251,0.0778
-0.05,0.079,-0.001,-31.6,-0.7,-2.1,0,2018,5,17,19,38,10.109,0.8723,-0.2355,-0.4214,0.0767
-0.107,0.011,-0.007,-39.7,-3.8,-4.9,0,2018,5,17,19,38,10.129,0.8747,-0.2363,-0.4162,0.0753
-0.14,-0.02,-0.031,-45.2,-10.6,-8.5,1023,2018,5,17,19,38,10.166,0.8771,-0.2383,-0.4103,0.0737
-0.175,-0.103,-0.075,-46.3,-3,-14.1,1023,2018,5,17,19,38,10.186,0.8797,-0.2409,-0.4032,0.0728
-0.131,-0.072,-0.08,-42.1,-0.8,-20,1023,2018,5,17,19,38,10.19,0.8825,-0.243,-0.3957,0.0736
-0.077,-0.023,-0.055,-36.7,-1.9,-21.3,1023,2018,5,17,19,38,10.229,0.8844,-0.2455,-0.3897,0.0749
-0.035,0.034,-0.011,-30.9,-4.7,-17.9,1023,2018,5,17,19,38,10.249,0.886,-0.2479,-0.3842,0.0762
0.014,0.041,-0.001,-27.1,-6.4,-11.4,1023,2018,5,17,19,38,10.253,0.8875,-0.2499,-0.3793,0.0767
0.049,0.041,0.019,-23.1,-9.4,-6.2,1023,2018,5,17,19,38,10.29,0.8888,-0.2518,-0.375,0.0764
0.091,0.045,-0.008,-18.9,-17.7,-2.5,1023,2018,5,17,19,38,10.312,0.8898,-0.2542,-0.3712,0.0753
0.115,0,-0.012,-12.5,-19.9,-2.2,1023,2018,5,17,19,38,10.316,0.89,-0.2582,-0.3682,0.0739
0.116,-0.038,0.016,-7.4,0.4,-3.1,1023,2018,5,17,19,38,10.332,0.8903,-0.2608,-0.3657,0.0737
0.106,0.021,0.04,-3.2,15.4,-3.8,0,2018,5,17,19,38,10.35,0.8913,-0.26,-0.3636,0.0751
0.08,0.076,0.042,-1.2,16.3,-3.2,0,2018,5,17,19,38,10.389,0.8925,-0.2576,-0.362,0.0769
0.062,0.117,0.045,-1.2,6.9,-0.2,0,2018,5,17,19,38,10.41,0.8932,-0.2557,-0.3613,0.0779
0.029,0.114,0.048,-2.4,-2.2,3.1,0,2018,5,17,19,38,10.414,0.8934,-0.2555,-0.361,0.0777
0.002,0.074,0.01,-4.6,-7.8,6.3,0,2018,5,17,19,38,10.434,0.8937,-0.2556,-0.3605,0.0762
-0.021,0.039,-0.027,-6,-7.6,8,0,2018,5,17,19,38,10.452,0.8938,-0.2562,-0.3603,0.0741
-0.035,0.037,-0.065,-6,-9.2,8.6,0,2018,5,17,19,38,10.49,0.8938,-0.257,-0.3603,0.0718
-0.042,0.023,-0.06,-5.5,-12.8,8.4,0,2018,5,17,19,38,10.51,0.8934,-0.2585,-0.3606,0.0693
-0.033,0.008,-0.039,-6.1,-14.4,9.1,0,2018,5,17,19,38,10.514,0.893,-0.2605,-0.3608,0.0666
-0.033,-0.006,-0.027,-6.8,-15,9.9,0,2018,5,17,19,38,10.535,0.8926,-0.2626,-0.3608,0.0638
-0.019,-0.032,-0.015,-6.4,-10,9.4,0,2018,5,17,19,38,10.55,0.8923,-0.2645,-0.3605,0.0612
-0.017,-0.032,-0.013,-5.2,-7.3,8.3,0,2018,5,17,19,38,10.588,0.8921,-0.2659,-0.3603,0.0591
-0.005,0.028,0.021,-5,-7.4,8.2,0,2018,5,17,19,38,10.609,0.892,-0.2668,-0.36,0.0573
-0.003,-0.01,0.003,-4.9,-14.9,7.8,0,2018,5,17,19,38,10.613,0.8918,-0.2685,-0.3597,0.055
0.015,-0.016,-0.02,-3,-9.4,6.1,0,2018,5,17,19,38,10.632,0.8914,-0.2705,-0.3595,0.053
0.024,-0.008,-0.016,-1.1,-4.7,5,0,2018,5,17,19,38,10.652,0.8912,-0.2717,-0.3594,0.0518
0.025,0.004,-0.015,-0.5,-3.1,4.7,0,2018,5,17,19,38,10.691,0.891,-0.2722,-0.3595,0.0509
0.03,0.015,-0.025,-0.3,-4.7,3.9,0,2018,5,17,19,38,10.711,0.891,-0.2725,-0.3596,0.0499
0.035,0.026,-0.022,-0.1,-8,3.5,0,2018,5,17,19,38,10.715,0.8907,-0.2734,-0.3597,0.049
0.032,0.004,-0.019,-0.6,-10,3.3,0,2018,5,17,19,38,10.734,0.8903,-0.2748,-0.3598,0.0479
0.023,-0.001,-0.014,-1.3,-6.7,2.4,0,2018,5,17,19,38,10.776,0.8899,-0.2763,-0.3597,0.047
0.008,-0.004,-0.015,-1.2,-6.7,1.7,0,2018,5,17,19,38,10.78,0.8896,-0.2775,-0.3596,0.0463
-0.002,0.005,-0.008,-0.8,-5.8,1.5,0,2018,5,17,19,38,10.797,0.8892,-0.2787,-0.3597,0.0456
-0.006,0.003,0,-0.5,-5.2,1.3,0,2018,5,17,19,38,10.813,0.889,-0.2796,-0.3597,0.045
-0.011,0,0.002,-0.1,-3.8,0.7,0,2018,5,17,19,38,10.851,0.8887,-0.2804,-0.3598,0.0445
-0.011,0.013,0,0.4,-2.6,-0.2,0,2018,5,17,19,38,10.871,0.8885,-0.2809,-0.3599,0.0442
-0.009,0.022,-0.008,0.6,-2.4,-0.3,1023,2018,5,17,19,38,10.876,0.8882,-0.2815,-0.3602,0.044
-0.01,0.016,-0.013,1.3,-2.8,-0.6,1023,2018,5,17,19,38,10.896,0.888,-0.282,-0.3605,0.0439
-0.008,0.01,-0.008,1.9,-0.5,-0.7,1023,2018,5,17,19,38,10.916,0.8877,-0.2824,-0.3609,0.0439
-0.006,0.014,-0.015,2.2,1.7,-0.8,1023,2018,5,17,19,38,10.937,0.8874,-0.2825,-0.3613,0.0441
-0.001,0.028,-0.007,2.4,0.9,-1,1023,2018,5,17,19,38,10.957,0.8873,-0.2824,-0.3617,0.0444
-0.001,0.029,-0.005,1.9,-0.6,-0.3,1023,2018,5,17,19,38,10.977,0.8872,-0.2823,-0.362,0.0445
-0.001,0.024,-0.011,1.8,-2,0.3,1023,2018,5,17,19,38,11,0.8869,-0.2826,-0.3624,0.0444
-0.006,0.013,-0.005,1.4,-1.4,1.1,1023,2018,5,17,19,38,11.017,0.8867,-0.2828,-0.3628,0.0442
-0.009,0,-0.01,1.4,0.8,1.1,1023,2018,5,17,19,38,11.057,0.8865,-0.283,-0.3632,0.044
-0.004,0.006,-0.006,1,0.8,1,1023,2018,5,17,19,38,11.061,0.8864,-0.2829,-0.3636,0.0439
-0.003,0.016,-0.003,1.1,0.6,1,1023,2018,5,17,19,38,11.077,0.8863,-0.2828,-0.3639,0.0438
-0.001,0.023,-0.016,0.8,-0.5,1.1,0,2018,5,17,19,38,11.095,0.8863,-0.2825,-0.3641,0.0436
-0.001,0.019,-0.016,0.6,-1.2,1.3,0,2018,5,17,19,38,11.115,0.8862,-0.2825,-0.3644,0.0433
0,0.007,-0.011,1,-0.2,1.4,0,2018,5,17,19,38,11.153,0.8861,-0.2825,-0.3647,0.0429
0,0.012,-0.015,1.1,0.7,1.3,0,2018,5,17,19,38,11.171,0.886,-0.2824,-0.3651,0.0428
0.003,0.014,-0.008,1,0,1.4,0,2018,5,17,19,38,11.178,0.8859,-0.2823,-0.3654,0.0426
0,0.011,-0.013,0.8,-1.1,1.5,0,2018,5,17,19,38,11.218,0.8859,-0.2821,-0.3656,0.0423
0,0.014,-0.014,0.1,-2.2,1.4,0,2018,5,17,19,38,11.238,0.8858,-0.2821,-0.3659,0.0419
0,0.01,-0.016,0,-2.7,1.1,0,2018,5,17,19,38,11.242,0.8856,-0.2826,-0.3661,0.0415
0,0.015,-0.014,-0.3,-2.7,0.6,0,2018,5,17,19,38,11.261,0.8854,-0.283,-0.3662,0.0411
-0.005,0.01,-0.018,-0.3,-3.1,0.5,0,2018,5,17,19,38,11.281,0.8852,-0.2835,-0.3663,0.0408
0,0.011,-0.013,-0.6,-2.8,0.2,0,2018,5,17,19,38,11.296,0.885,-0.2843,-0.3664,0.0404
0.001,0.012,-0.008,-0.9,-2.8,0.2,0,2018,5,17,19,38,11.316,0.8847,-0.285,-0.3664,0.0402
0.003,0.018,-0.006,-1,-4.1,0.4,0,2018,5,17,19,38,11.335,0.8846,-0.2857,-0.3663,0.0398
0.008,0.017,-0.001,-1.1,-4.1,0.4,0,2018,5,17,19,38,11.374,0.8844,-0.2863,-0.3662,0.0393
0.007,0.014,-0.012,-0.7,-3.7,0.6,0,2018,5,17,19,38,11.395,0.8843,-0.2868,-0.3661,0.0389
0.003,0.006,-0.008,-0.6,-2.1,0.5,0,2018,5,17,19,38,11.399,0.8842,-0.2874,-0.366,0.0385
0.002,0.005,-0.014,-0.2,-1,0.6,0,2018,5,17,19,38,11.419,0.8841,-0.2876,-0.3661,0.0383
-0.002,0.007,-0.009,0,0,0,0,2018,5,17,19,38,11.438,0.8841,-0.2876,-0.3661,0.0381
0,0.011,-0.003,0,0,0,0,2018,5,17,19,38,11.478,0.8841,-0.2875,-0.3661,0.0379
0.002,0.02,-0.012,-0.2,-0.9,0.3,0,2018,5,17,19,38,11.482,0.8841,-0.2875,-0.3662,0.0378
0,0.019,-0.014,0,-0.8,0.5,0,2018,5,17,19,38,11.5,0.8841,-0.2876,-0.3662,0.0376
0,0.015,-0.012,0,-0.7,0.6,0,2018,5,17,19,38,11.519,0.884,-0.2878,-0.3664,0.0373
0.002,0.014,-0.013,0.2,0,0.6,0,2018,5,17,19,38,11.538,0.8838,-0.2881,-0.3665,0.0372
0.001,0.009,-0.007,0.1,0,0.5,0,2018,5,17,19,38,11.56,0.8838,-0.288,-0.3666,0.037
-0.001,0.015,-0.011,0,0,0,1023,2018,5,17,19,38,11.58,0.8838,-0.2879,-0.3667,0.0369
-0.003,0.016,-0.012,0,0,0,1023,2018,5,17,19,38,11.601,0.8839,-0.2876,-0.3668,0.0367
0,0.017,-0.013,-0.5,-1,0.2,1023,2018,5,17,19,38,11.622,0.8838,-0.2879,-0.3668,0.0366
0.006,0.017,-0.015,-0.2,-1.1,0.4,1023,2018,5,17,19,38,11.64,0.8837,-0.2881,-0.3669,0.0364
0.006,0.011,-0.011,-0.1,-0.8,0.6,1023,2018,5,17,19,38,11.661,0.8837,-0.288,-0.3669,0.0361
0.003,0.008,-0.009,0,0,0,1023,2018,5,17,19,38,11.699,0.8837,-0.2881,-0.367,0.036
0,0.007,-0.001,0,0,0,1023,2018,5,17,19,38,11.719,0.8837,-0.2879,-0.367,0.0359
0.002,0.011,-0.007,0,-0.5,0.3,1023,2018,5,17,19,38,11.723,0.8838,-0.2877,-0.367,0.0358
0.001,0.004,-0.005,0,0,0,1023,2018,5,17,19,38,11.743,0.8837,-0.2879,-0.3671,0.0357
0.004,0.011,-0.012,0,0,0,1023,2018,5,17,19,38,11.764,0.8837,-0.2878,-0.3671,0.0356
0.007,0.012,-0.011,0.2,-0.2,0.6,0,2018,5,17,19,38,11.781,0.8837,-0.2878,-0.3671,0.0355
0.008,0.014,-0.01,0.2,0.7,0.8,0,2018,5,17,19,38,11.8,0.8837,-0.2877,-0.3673,0.0353
0.001,0.017,-0.012,0.1,0.6,0.6,0,2018,5,17,19,38,11.82,0.8837,-0.2876,-0.3673,0.0353
0.001,0.012,-0.011,0,0,0,0,2018,5,17,19,38,11.858,0.8837,-0.2877,-0.3674,0.0351
0,0.014,-0.007,-0.5,-0.7,0.2,0,2018,5,17,19,38,11.88,0.8837,-0.2875,-0.3675,0.035
0.002,0.015,-0.017,-0.5,-0.8,0,0,2018,5,17,19,38,11.885,0.8836,-0.2878,-0.3675,0.0349
0.003,0.009,-0.019,-0.3,-0.5,0.1,0,2018,5,17,19,38,11.902,0.8835,-0.2882,-0.3675,0.0348
0.004,0.009,-0.009,0,0,0,0,2018,5,17,19,38,11.924,0.8835,-0.288,-0.3676,0.0347
0.001,0.013,-0.008,-0.5,0,0,0,2018,5,17,19,38,11.961,0.8835,-0.2879,-0.3676,0.0346
0.004,0.016,-0.009,-0.8,-1,0,0,2018,5,17,19,38,11.981,0.8835,-0.288,-0.3675,0.0344
0.003,0.014,-0.016,-0.6,-1.3,0,0,2018,5,17,19,38,11.985,0.8836,-0.288,-0.3674,0.0342
0.003,0.008,-0.011,0,0,0,0,2018,5,17,19,38,12.001,0.8836,-0.2881,-0.3674,0.0341
0.006,0.011,-0.009,-0.6,0,0,0,2018,5,17,19,38,12.04,0.8836,-0.2882,-0.3673,0.034
0.006,0.01,-0.004,0,0,0,0,2018,5,17,19,38,12.061,0.8837,-0.288,-0.3673,0.034
0.011,0.009,-0.007,-0.5,0,0.1,0,2018,5,17,19,38,12.065,0.8837,-0.2879,-0.3672,0.0339
0.004,0.012,-0.01,0,0,0,0,2018,5,17,19,38,12.082,0.8837,-0.288,-0.3671,0.0338
0.005,0.011,-0.018,-0.6,0,0,0,2018,5,17,19,38,12.121,0.8837,-0.2882,-0.3671,0.0338
0.007,0.01,-0.012,0,0,0,0,2018,5,17,19,38,12.141,0.8837,-0.2881,-0.3671,0.0337
0.005,0.01,-0.012,0,0,0,0,2018,5,17,19,38,12.145,0.8837,-0.288,-0.3671,0.0336
0.007,0.009,-0.01,-0.1,0.8,-0.4,0,2018,5,17,19,38,12.164,0.8838,-0.2879,-0.3671,0.0336
0.006,0.013,-0.004,0,0.7,-0.4,0,2018,5,17,19,38,12.185,0.8838,-0.2879,-0.3671,0.0337
0.006,0.013,-0.003,0,0,0,0,2018,5,17,19,38,12.203,0.8838,-0.2877,-0.3671,0.0337
0.007,0.014,-0.009,0,0,0,0,2018,5,17,19,38,12.221,0.8839,-0.2876,-0.3671,0.0336
0.008,0.012,-0.008,0,0,0,0,2018,5,17,19,38,12.24,0.884,-0.2874,-0.367,0.0335
0.002,0.012,-0.004,0.1,0.5,0,0,2018,5,17,19,38,12.283,0.884,-0.2872,-0.3671,0.0335
0.003,0.008,-0.008,0,0,0,0,2018,5,17,19,38,12.302,0.884,-0.2871,-0.3671,0.0334
0.006,0.009,-0.005,0,0,0,1023,2018,5,17,19,38,12.306,0.8841,-0.287,-0.3671,0.0334
0.009,0.007,-0.006,0,0,0,1023,2018,5,17,19,38,12.324,0.8841,-0.2869,-0.3671,0.0333
0.009,0.008,-0.01,0,0,0,1023,2018,5,17,19,38,12.344,0.8842,-0.2867,-0.3671,0.0332
0.009,0.008,-0.006,0,0,0,1023,2018,5,17,19,38,12.38,0.8842,-0.2866,-0.3672,0.0332
0.009,0.014,-0.011,0,-0.5,-0.1,1023,2018,5,17,19,38,12.401,0.8842,-0.2864,-0.3672,0.0331
0.007,0.01,-0.01,-0.2,-0.7,-0.1,1023,2018,5,17,19,38,12.405,0.8842,-0.2866,-0.3672,0.033
0.001,0.006,-0.007,0,-0.6,0,1023,2018,5,17,19,38,12.443,0.8841,-0.2868,-0.3672,0.033
0.003,0.004,-0.004,0,0,0,1023,2018,5,17,19,38,12.464,0.8841,-0.2868,-0.3672,0.0329
0.006,0.01,-0.001,0,0,0,1023,2018,5,17,19,38,12.469,0.8842,-0.2867,-0.3672,0.0329
0.008,0.009,0,0.1,-0.7,-0.1,1023,2018,5,17,19,38,12.485,0.8842,-0.2866,-0.3672,0.0328
0.012,0.008,-0.009,0.2,-0.5,0,0,2018,5,17,19,38,12.505,0.884,-0.287,-0.3672,0.0328
0.006,0.008,-0.012,0,0,0,0,2018,5,17,19,38,12.524,0.884,-0.287,-0.3672,0.0328
0.005,0.008,-0.014,0,0,0,0,2018,5,17,19,38,12.562,0.8841,-0.2869,-0.3673,0.0327
0.003,0.013,-0.014,0,0,0,0,2018,5,17,19,38,12.583,0.8841,-0.2868,-0.3673,0.0326
0.003,0.01,-0.011,0,0,0,0,2018,5,17,19,38,12.587,0.8841,-0.2867,-0.3674,0.0326
0.005,0.009,-0.006,-0.2,-0.5,-0.2,0,2018,5,17,19,38,12.626,0.8841,-0.2868,-0.3674,0.0325
0.004,0.007,-0.01,-0.4,-0.8,-0.4,0,2018,5,17,19,38,12.646,0.8839,-0.2872,-0.3673,0.0325
0.008,0.009,-0.01,-0.3,-0.5,-0.5,0,2018,5,17,19,38,12.651,0.8839,-0.2875,-0.3673,0.0325
0.01,0.01,-0.011,-0.5,-0.3,-0.5,0,2018,5,17,19,38,12.671,0.8839,-0.2876,-0.3673,0.0324
0.007,0.011,-0.011,-0.6,-0.5,-0.4,0,2018,5,17,19,38,12.684,0.8839,-0.2876,-0.3672,0.0324
0.007,0.008,-0.006,-0.6,-0.6,-0.5,0,2018,5,17,19,38,12.722,0.8838,-0.2879,-0.3671,0.0324
0.005,0.009,-0.011,-0.5,-0.5,-0.5,0,2018,5,17,19,38,12.743,0.8838,-0.2881,-0.3671,0.0324
0.008,0.006,-0.001,-0.6,-1,-0.5,0,2018,5,17,19,38,12.747,0.8838,-0.2883,-0.3669,0.0323
0.009,0.007,-0.008,-0.8,-1,-0.4,0,2018,5,17,19,38,12.766,0.8838,-0.2884,-0.3667,0.0323
0.006,0.005,-0.004,-0.6,-0.5,-0.5,0,2018,5,17,19,38,12.789,0.8838,-0.2887,-0.3666,0.0322
0.005,0.01,-0.009,-0.6,-0.6,-0.5,0,2018,5,17,19,38,12.808,0.8838,-0.2889,-0.3665,0.0322
0.004,0.011,-0.013,-0.6,-0.5,-0.7,0,2018,5,17,19,38,12.829,0.8838,-0.289,-0.3663,0.0322
0.006,0.011,-0.009,-0.7,-0.8,-0.7,0,2018,5,17,19,38,12.848,0.8838,-0.2892,-0.3662,0.0322
0.005,0.009,-0.017,-0.6,-1,-0.8,0,2018,5,17,19,38,12.868,0.8838,-0.2894,-0.3661,0.0322
0.007,0.002,-0.008,-0.8,-0.9,-0.7,0,2018,5,17,19,38,12.905,0.8837,-0.2898,-0.366,0.0322
0.005,0.006,-0.009,-0.9,-0.8,-0.5,0,2018,5,17,19,38,12.924,0.8836,-0.2901,-0.3658,0.0322
0.005,0.009,-0.004,-1,-1,-0.4,0,2018,5,17,19,38,12.929,0.8836,-0.2906,-0.3656,0.0321
0.006,0.009,-0.011,-1.2,-1.6,-0.4,0,2018,5,17,19,38,12.946,0.8835,-0.2909,-0.3654,0.032
0.006,0.006,-0.005,-1,-1.4,-0.3,0,2018,5,17,19,38,12.984,0.8835,-0.2913,-0.3652,0.0319
0.008,0.01,-0.007,-0.9,-1,-0.4,0,2018,5,17,19,38,13.005,0.8834,-0.2918,-0.3651,0.0318
0.009,0.009,-0.008,-0.8,-0.8,-0.5,0,2018,5,17,19,38,13.009,0.8834,-0.2921,-0.3649,0.0318
0.001,0.01,-0.01,-0.6,-0.8,-0.5,0,2018,5,17,19,38,13.03,0.8834,-0.2922,-0.3648,0.0317
0.002,0.007,-0.013,-0.5,-0.9,-0.4,1023,2018,5,17,19,38,13.05,0.8833,-0.2924,-0.3648,0.0316
0.003,0.007,-0.01,-0.5,-1,-0.5,1023,2018,5,17,19,38,13.088,0.8832,-0.2929,-0.3647,0.0316
0.007,0.003,-0.012,-0.3,-0.5,-0.5,1023,2018,5,17,19,38,13.108,0.8831,-0.2932,-0.3646,0.0316
0.008,0.003,-0.004,-0.3,-0.5,-0.5,1023,2018,5,17,19,38,13.112,0.8831,-0.2935,-0.3645,0.0316
0.006,0.005,-0.007,-0.1,-0.6,-0.6,1023,2018,5,17,19,38,13.133,0.8831,-0.2934,-0.3644,0.0316
0.009,0.003,-0.002,0,0,0,1023,2018,5,17,19,38,13.148,0.8831,-0.2936,-0.3644,0.0316
0.008,0.007,-0.007,-0.2,-0.5,-0.3,1023,2018,5,17,19,38,13.187,0.8831,-0.2937,-0.3643,0.0316
0.011,0.006,-0.012,0,0,0,1023,2018,5,17,19,38,13.208,0.8831,-0.2936,-0.3642,0.0315
0.009,0.008,-0.006,0,0.4,-0.5,1023,2018,5,17,19,38,13.212,0.8832,-0.2935,-0.3642,0.0315
0.008,0.014,-0.012,0,0,0,0,2018,5,17,19,38,13.229,0.8832,-0.2934,-0.3642,0.0315
0.009,0.014,-0.011,0,0,0,0,2018,5,17,19,38,13.27,0.8833,-0.2932,-0.3642,0.0314
0.006,0.006,-0.012,-0.2,-0.6,-0.2,0,2018,5,17,19,38,13.29,0.8833,-0.2931,-0.3643,0.0313
0.007,0.007,-0.009,0,0,0,0,2018,5,17,19,38,13.294,0.8834,-0.293,-0.3643,0.0312
0.005,0.008,-0.012,0,0,0,0,2018,5,17,19,38,13.332,0.8834,-0.2929,-0.3643,0.0312
0.002,0.006,-0.013,-0.3,-0.5,-0.2,0,2018,5,17,19,38,13.335,0.8834,-0.293,-0.3643,0.0311
0.006,0.012,-0.008,0,0,0,0,2018,5,17,19,38,13.352,0.8834,-0.2928,-0.3643,0.0311
0.007,0.009,-0.006,-0.3,-0.6,-0.4,0,2018,5,17,19,38,13.373,0.8834,-0.2929,-0.3643,0.031
0.009,0.009,-0.007,-0.2,-0.8,-0.4,0,2018,5,17,19,38,13.388,0.8833,-0.2932,-0.3642,0.031
0.014,0.006,-0.011,0,-0.5,-0.2,0,2018,5,17,19,38,13.428,0.8833,-0.2934,-0.3642,0.031
0.011,0.006,-0.004,0,0,0,0,2018,5,17,19,38,13.45,0.8833,-0.2933,-0.3641,0.0309
0.008,0.002,-0.002,0,0,0,0,2018,5,17,19,38,13.454,0.8834,-0.2931,-0.3641,0.0309
0.007,0.005,-0.005,0,0,0,0,2018,5,17,19,38,13.473,0.8835,-0.293,-0.3641,0.0308
0.008,0.005,-0.01,0,0,0,0,2018,5,17,19,38,13.492,0.8835,-0.2928,-0.3641,0.0308
0.004,0.004,-0.008,0,0,0,0,2018,5,17,19,38,13.529,0.8836,-0.2927,-0.3641,0.0308
0.006,0.007,-0.007,0.2,0.7,-0.1,0,2018,5,17,19,38,13.548,0.8835,-0.2927,-0.3641,0.0308
0.005,0.009,-0.004,0,0,0,0,2018,5,17,19,38,13.552,0.8836,-0.2926,-0.3641,0.0308
0.007,0.007,-0.008,0,0,0,0,2018,5,17,19,38,13.573,0.8836,-0.2925,-0.3641,0.0307
0.007,0.009,-0.013,0,0,0,0,2018,5,17,19,38,13.594,0.8836,-0.2924,-0.3642,0.0307
0.005,0.009,-0.009,0,0,0,0,2018,5,17,19,38,13.612,0.8837,-0.2922,-0.3642,0.0306
0.006,0.008,-0.012,0,0,0,0,2018,5,17,19,38,13.632,0.8837,-0.2921,-0.3642,0.0305
0.005,0.008,-0.008,0,0,0,0,2018,5,17,19,38,13.652,0.8837,-0.292,-0.3642,0.0305
0.004,0.011,-0.005,0,0,0,0,2018,5,17,19,38,13.672,0.8838,-0.2918,-0.3643,0.0304
0.007,0.007,-0.012,0,0,0,0,2018,5,17,19,38,13.709,0.8838,-0.2917,-0.3643,0.0304
-0.002,-0.006,-0.022,0,0,-0.5,1023,2018,5,17,19,38,13.729,0.8837,-0.292,-0.3643,0.0304
-0.026,-0.041,-0.033,0,1.8,-3.2,1023,2018,5,17,19,38,13.734,0.8835,-0.2923,-0.3644,0.0308
-0.044,-0.059,-0.027,-0.2,3.2,-7.5,1023,2018,5,17,19,38,13.753,0.8833,-0.2928,-0.3645,0.0318
-0.057,-0.031,-0.008,-1.1,7.7,-12.8,1023,2018,5,17,19,38,13.793,0.8833,-0.293,-0.3641,0.0337
-0.05,-0.021,0,-2.1,9.9,-17.1,1023,2018,5,17,19,38,13.813,0.8836,-0.2927,-0.3634,0.0364
-0.033,0.05,0.001,-2.1,12.4,-19.8,1023,2018,5,17,19,38,13.817,0.8842,-0.292,-0.3623,0.0398
-0.01,0.08,0.008,-2.2,8.9,-20,1023,2018,5,17,19,38,13.855,0.8848,-0.2912,-0.361,0.0431
0.008,0.098,0.008,-2.3,9.4,-18.8,1023,2018,5,17,19,38,13.873,0.8854,-0.2904,-0.3597,0.0463
0.014,0.095,0.012,-2,3.4,-16.3,1023,2018,5,17,19,38,13.877,0.886,-0.2899,-0.3584,0.049
0.019,0.041,0.01,-1.5,-1.7,-14.6,1023,2018,5,17,19,38,13.894,0.8862,-0.2903,-0.3573,0.051
0.022,0.017,0.008,-0.6,0.4,-14.5,1023,2018,5,17,19,38,13.931,0.8861,-0.2914,-0.3562,0.0532
0.029,0.004,0.003,1.3,-0.2,-14.6,0,2018,5,17,19,38,13.952,0.886,-0.2925,-0.3553,0.0555
0.047,0.004,-0.003,3.6,-1,-14.3,0,2018,5,17,19,38,13.956,0.8856,-0.2939,-0.3547,0.058
0.065,0.011,-0.02,6.1,-1.1,-12.7,0,2018,5,17,19,38,13.995,0.8852,-0.295,-0.3544,0.0604
0.078,0.008,-0.02,9.3,-2.8,-10.1,0,2018,5,17,19,38,13.999,0.8845,-0.2963,-0.3546,0.0626
0.088,0.003,-0.023,13.5,-5.8,-7.2,0,2018,5,17,19,38,14.015,0.8835,-0.2977,-0.3556,0.0644
0.093,-0.02,-0.036,18.9,-2.5,-4.1,0,2018,5,17,19,38,14.055,0.8822,-0.2991,-0.3573,0.0662
0.064,-0.023,-0.014,24.9,0.7,-0.2,0,2018,5,17,19,38,14.073,0.8808,-0.2995,-0.3601,0.0679
0.061,0.009,0.008,30.8,1.4,5.6,0,2018,5,17,19,38,14.077,0.8793,-0.299,-0.364,0.0694
0.071,-0.007,0.024,36,-1.6,13.8,0,2018,5,17,19,38,14.098,0.8773,-0.2984,-0.3692,0.0697
0.096,-0.007,0.057,40.5,-2.8,21.1,0,2018,5,17,19,38,14.114,0.8752,-0.2971,-0.3752,0.0692
0.115,-0.04,0.072,44.3,-2.8,27,0,2018,5,17,19,38,14.154,0.8726,-0.2959,-0.3823,0.0677
0.123,-0.026,0.049,48.8,0,31.2,0,2018,5,17,19,38,14.173,0.8698,-0.2937,-0.3909,0.0657
0.107,-0.039,0.026,54.8,-3.8,33.9,0,2018,5,17,19,38,14.178,0.8668,-0.2914,-0.3994,0.0637
0.116,-0.052,0.009,60.7,-6.5,35.8,0,2018,5,17,19,38,14.196,0.863,-0.2895,-0.4091,0.0614
0.156,-0.022,0.019,66.6,-6,39.6,0,2018,5,17,19,38,14.214,0.8585,-0.2872,-0.4207,0.0586
0.175,-0.03,0.027,71.3,-9.6,44.9,0,2018,5,17,19,38,14.253,0.8534,-0.2842,-0.4332,0.0551
0.18,-0.02,0.04,77.7,-20.4,53,0,2018,5,17,19,38,14.273,0.8474,-0.2819,-0.4469,0.0504
0.167,-0.106,0.105,82.5,-35.2,63.1,0,2018,5,17,19,38,14.277,0.8401,-0.2809,-0.4619,0.0435
0.11,-0.348,0.202,84,-29.5,65,0,2018,5,17,19,38,14.315,0.832,-0.2801,-0.4775,0.0353
-0.168,-0.65,0.398,77.1,5.8,52.8,0,2018,5,17,19,38,14.319,0.8248,-0.2764,-0.4923,0.0296
-0.237,-0.474,0.409,64.7,26.5,29,0,2018,5,17,19,38,14.336,0.8198,-0.2699,-0.5041,0.0287
0.224,0.251,-0.233,78.6,2.7,25.8,0,2018,5,17,19,38,14.357,0.8146,-0.2647,-0.515,0.0301
0.156,0.144,-0.161,96.3,-4.6,40.7,0,2018,5,17,19,38,14.377,0.8063,-0.2622,-0.5292,0.0289
-0.023,-0.159,0.289,94.5,31.1,42,0,2018,5,17,19,38,14.416,0.7982,-0.2557,-0.5446,0.0286
-0.094,-0.144,0.331,84.3,37.3,37,0,2018,5,17,19,38,14.437,0.7915,-0.2461,-0.5585,0.0306
0.004,0.003,0.032,82.9,27,40.3,1023,2018,5,17,19,38,14.442,0.7851,-0.2375,-0.571,0.0319
-0.041,-0.067,-0.123,89.4,39.1,46.7,1023,2018,5,17,19,38,14.459,0.7776,-0.2286,-0.5847,0.0325
-0.146,-0.063,-0.073,93.2,70,48.7,1023,2018,5,17,19,38,14.478,0.7703,-0.2157,-0.599,0.0353
-0.265,0.067,0.04,88.9,81.3,50.4,1023,2018,5,17,19,38,14.499,0.7635,-0.1991,-0.613,0.0399
-0.336,0.036,0.063,78.6,77.8,52.8,1023,2018,5,17,19,38,14.52,0.7575,-0.1816,-0.6254,0.0434
-0.331,0.015,0.013,68.9,82.1,49.2,1023,2018,5,17,19,38,14.54,0.7523,-0.1639,-0.6362,0.047
-0.344,-0.019,-0.086,64.4,68.3,37.5,1023,2018,5,17,19,38,14.579,0.747,-0.1479,-0.646,0.0509
-0.399,-0.19,0.062,48.6,74.7,19.7,1023,2018,5,17,19,38,14.583,0.7423,-0.1354,-0.6537,0.0563
-0.309,-0.093,0.119,30.5,91.8,4.1,1023,2018,5,17,19,38,14.599,0.7402,-0.1227,-0.6577,0.0658
-0.183,-0.069,0.125,14.3,82.4,-6.3,1023,2018,5,17,19,38,14.618,0.7399,-0.1112,-0.6589,0.0765
-0.055,-0.04,0.126,3.3,66.9,-14.6,0,2018,5,17,19,38,14.638,0.7409,-0.1025,-0.658,0.0869
0.026,0.014,0.147,-7.1,40.2,-17.7,0,2018,5,17,19,38,14.679,0.7427,-0.0972,-0.6556,0.0952
0.084,0.036,0.168,-17.2,12.2,-17.5,0,2018,5,17,19,38,14.697,0.7444,-0.0958,-0.6531,0.1001
0.139,0.05,0.15,-26.8,-9.5,-16.7,0,2018,5,17,19,38,14.702,0.7466,-0.0981,-0.65,0.1019
0.2,0.056,0.133,-35.5,-23.4,-13.3,0,2018,5,17,19,38,14.72,0.7496,-0.1025,-0.6459,0.1013
0.254,0.08,0.081,-40.9,-39.6,-11.6,0,2018,5,17,19,38,14.741,0.7532,-0.1087,-0.6411,0.0987
0.299,0.052,0.018,-41.9,-53.8,-9.3,0,2018,5,17,19,38,14.781,0.7574,-0.1168,-0.6353,0.0941
0.314,0.028,-0.034,-39.6,-54.3,-7.7,0,2018,5,17,19,38,14.801,0.761,-0.1261,-0.6301,0.0887
0.301,-0.001,-0.07,-35.3,-43.9,-4.7,0,2018,5,17,19,38,14.805,0.7638,-0.135,-0.6255,0.084
0.264,-0.033,-0.089,-29.9,-25,1.3,0,2018,5,17,19,38,14.819,0.7663,-0.1408,-0.6216,0.08
0.23,-0.068,-0.096,-25.4,0.7,9.7,0,2018,5,17,19,38,14.857,0.769,-0.1424,-0.6182,0.0774
0.197,-0.109,-0.083,-23,31.8,19.7,0,2018,5,17,19,38,14.878,0.7722,-0.1391,-0.6151,0.0767
0.186,-0.135,-0.066,-22.9,63.5,28.5,0,2018,5,17,19,38,14.882,0.776,-0.1306,-0.6119,0.0782
0.183,-0.139,-0.063,-24.6,87.4,34.4,0,2018,5,17,19,38,14.918,0.7806,-0.1174,-0.6083,0.0816
0.19,-0.114,-0.085,-25.9,101.4,38.1,0,2018,5,17,19,38,14.938,0.7856,-0.1011,-0.6041,0.0864
0.177,-0.117,-0.107,-26.5,105,39.6,0,2018,5,17,19,38,14.942,0.7906,-0.0837,-0.5995,0.0917
0.161,-0.14,-0.138,-26.5,102.7,39.7,0,2018,5,17,19,38,14.962,0.7954,-0.0658,-0.5946,0.0968
0.142,-0.193,-0.157,-26.9,99.6,37.8,0,2018,5,17,19,38,14.981,0.7998,-0.0486,-0.5895,0.1016
0.121,-0.215,-0.178,-26.9,95.4,35.7,0,2018,5,17,19,38,15.019,0.8039,-0.032,-0.5841,0.1064
0.064,-0.237,-0.18,-26,89,35.7,0,2018,5,17,19,38,15.023,0.8077,-0.0162,-0.5788,0.1108
-0.023,-0.273,-0.179,-24.7,83,38.6,0,2018,5,17,19,38,15.041,0.8111,-0.001,-0.5735,0.1142
-0.252,-0.311,-0.191,-21.7,72.2,46.9,0,2018,5,17,19,38,15.06,0.8142,0.0135,-0.5686,0.1161
-0.547,-0.377,-0.209,-16.2,57.4,61.5,0,2018,5,17,19,38,15.08,0.817,0.0272,-0.5643,0.1149
-0.643,-0.415,-0.158,-12.2,41.1,73.3,0,2018,5,17,19,38,15.102,0.8194,0.0405,-0.561,0.1101
-0.418,-0.447,-0.112,-10,20.1,70.2,1023,2018,5,17,19,38,15.121,0.8216,0.0514,-0.5582,0.1028
-0.157,-0.462,-0.098,-6.1,2.3,48,1023,2018,5,17,19,38,15.162,0.8234,0.0582,-0.5563,0.0952
0.058,-0.451,-0.072,-1,4.6,13.1,1023,2018,5,17,19,38,15.182,0.8242,0.0612,-0.5555,0.0911
0.206,-0.407,-0.067,1.4,31.3,-23.1,1023,2018,5,17,19,38,15.186,0.8239,0.0626,-0.5553,0.0937
0.305,-0.394,-0.138,2.5,72.7,-56.9,1023,2018,5,17,19,38,15.205,0.8224,0.0658,-0.5552,0.1048
0.318,-0.393,-0.223,4,117.9,-85.9,1023,2018,5,17,19,38,15.226,0.8195,0.0723,-0.5546,0.1245
0.22,-0.324,-0.286,7.5,152.2,-107.7,1023,2018,5,17,19,38,15.263,0.8147,0.0823,-0.5534,0.1518
0.067,-0.25,-0.297,10.3,163.9,-120.4,1023,2018,5,17,19,38,15.283,0.808,0.094,-0.5517,0.1835
-0.022,-0.182,-0.252,10.5,163.7,-121.8,0,2018,5,17,19,38,15.287,0.7999,0.1055,-0.5496,0.2163
-0.048,-0.118,-0.188,7.8,154.5,-114.8,0,2018,5,17,19,38,15.302,0.7911,0.1167,-0.5467,0.2479
-0.023,-0.077,-0.15,3.9,135,-103.8,0,2018,5,17,19,38,15.341,0.7826,0.1263,-0.5431,0.2766
0.021,-0.067,-0.15,1.6,111.5,-92.5,0,2018,5,17,19,38,15.361,0.7747,0.1337,-0.5394,0.3015
0.044,-0.079,-0.181,2.5,91.5,-83.5,0,2018,5,17,19,38,15.365,0.7673,0.139,-0.5363,0.3227
0.035,-0.085,-0.22,6.7,79.3,-76.9,0,2018,5,17,19,38,15.385,0.7602,0.143,-0.5339,0.3411
-0.002,-0.1,-0.257,13.9,79.6,-72.4,0,2018,5,17,19,38,15.404,0.7527,0.1471,-0.5324,0.358
-0.034,-0.115,-0.273,21.8,91.6,-69.6,0,2018,5,17,19,38,15.443,0.7443,0.1528,-0.5312,0.3746
-0.037,-0.123,-0.274,29.3,111.4,-68.6,0,2018,5,17,19,38,15.464,0.7345,0.1614,-0.5296,0.3923
0.026,-0.076,-0.284,41.2,151,-71.5,0,2018,5,17,19,38,15.468,0.7096,0.1877,-0.5237,0.4322
0.08,-0.046,-0.289,46.6,161.8,-74.7,0,2018,5,17,19,38,15.487,0.6945,0.2039,-0.5195,0.4539
0.123,-0.023,-0.289,51.3,167.1,-78.2,0,2018,5,17,19,38,15.502,0.6777,0.2209,-0.5148,0.4762
0.139,-0.011,-0.29,56.2,168.5,-80.5,0,2018,5,17,19,38,15.541,0.6592,0.2383,-0.5101,0.4983
0.098,-0.024,-0.29,60.9,169.6,-80.2,0,2018,5,17,19,38,15.562,0.6394,0.2557,-0.5054,0.5198
-0.01,-0.049,-0.282,66.1,175.2,-76.9,0,2018,5,17,19,38,15.566,0.6184,0.2739,-0.5001,0.5406
-0.142,-0.077,-0.269,71.3,184.9,-70.2,0,2018,5,17,19,38,15.603,0.5962,0.2935,-0.4939,0.5606
-0.283,-0.112,-0.241,75.5,199.5,-61.9,0,2018,5,17,19,38,15.623,0.5729,0.3151,-0.4858,0.5799
-0.355,-0.101,-0.212,76.6,211.3,-54,0,2018,5,17,19,38,15.627,0.5487,0.3384,-0.4754,0.5986
-0.385,-0.098,-0.198,75.8,215,-48.9,0,2018,5,17,19,38,15.646,0.5238,0.3624,-0.463,0.6162
-0.332,-0.09,-0.192,73.3,213.1,-49.7,0,2018,5,17,19,38,15.669,0.4984,0.386,-0.4495,0.6328
-0.198,-0.078,-0.195,69.5,209.2,-57.6,0,2018,5,17,19,38,15.689,0.4722,0.4077,-0.4357,0.6486
-0.069,-0.048,-0.204,64.2,206.9,-70,0,2018,5,17,19,38,15.709,0.4447,0.4273,-0.4219,0.6645
-0.008,-0.005,-0.219,57.4,203.8,-80.8,0,2018,5,17,19,38,15.724,0.4158,0.4443,-0.4081,0.6805
0.002,0.07,-0.218,46.8,190.5,-84.8,0,2018,5,17,19,38,15.762,0.3865,0.4586,-0.3945,0.6961
0.053,0.1,-0.231,34.3,164.2,-79.8,1023,2018,5,17,19,38,15.782,0.3593,0.4693,-0.382,0.7103
0.096,0.094,-0.25,24.4,132.1,-68.8,1023,2018,5,17,19,38,15.786,0.3363,0.4768,-0.3713,0.7222
0.115,0.082,-0.251,17.5,100.2,-53.2,1023,2018,5,17,19,38,15.807,0.318,0.4819,-0.3628,0.7313
0.12,0.042,-0.25,13.5,73.8,-36.7,1023,2018,5,17,19,38,15.825,0.3045,0.4854,-0.3563,0.7379
0.067,-0.001,-0.267,10.6,57.4,-18.6,1023,2018,5,17,19,38,15.863,0.2951,0.4885,-0.3508,0.7423
-0.007,-0.059,-0.285,8.9,50.4,0,1023,2018,5,17,19,38,15.885,0.2891,0.4917,-0.3451,0.7452
-0.06,-0.137,-0.302,7.8,52.9,16.4,1023,2018,5,17,19,38,15.889,0.2857,0.4958,-0.338,0.7471
-0.091,-0.191,-0.33,8,61.8,27.8,1023,2018,5,17,19,38,15.909,0.2836,0.5008,-0.3288,0.7487
-0.123,-0.208,-0.356,11,70.4,32.9,1023,2018,5,17,19,38,15.93,0.2817,0.5068,-0.3177,0.7501
-0.181,-0.215,-0.357,16.9,74.8,31.3,0,2018,5,17,19,38,15.951,0.2791,0.5138,-0.3058,0.7513
-0.25,-0.225,-0.332,24.1,77,25.8,0,2018,5,17,19,38,15.969,0.275,0.5216,-0.2942,0.752
-0.282,-0.222,-0.276,30.7,82.3,17.2,0,2018,5,17,19,38,15.988,0.2691,0.5301,-0.2831,0.7525
-0.239,-0.232,-0.222,35.4,89.1,7,0,2018,5,17,19,38,16.009,0.2614,0.5389,-0.2722,0.753
-0.184,-0.251,-0.181,38.6,101.5,-5,0,2018,5,17,19,38,16.035,0.2508,0.5481,-0.2612,0.7538
-0.115,-0.255,-0.166,39.9,117.7,-18.5,0,2018,5,17,19,38,16.055,0.2368,0.5575,-0.2496,0.7554
-0.055,-0.229,-0.149,38.9,133.2,-32.4,0,2018,5,17,19,38,16.068,0.2195,0.5666,-0.2371,0.7579
0.002,-0.179,-0.135,36.1,144.7,-45.6,0,2018,5,17,19,38,16.106,0.1988,0.5751,-0.2238,0.7612
0.067,-0.133,-0.127,32.5,150.7,-57.7,0,2018,5,17,19,38,16.125,0.1756,0.5825,-0.2105,0.7651
0.096,-0.078,-0.121,28.6,150.5,-67.2,0,2018,5,17,19,38,16.132,0.1506,0.5887,-0.1975,0.7692
0.049,-0.03,-0.112,24.7,142.9,-72.6,0,2018,5,17,19,38,16.148,0.1248,0.5937,-0.186,0.7728
-0.044,-0.002,-0.092,20.3,131.1,-73.4,0,2018,5,17,19,38,16.17,0.0995,0.5979,-0.1761,0.7755
-0.131,0.036,-0.053,14.1,116.4,-69.9,0,2018,5,17,19,38,16.207,0.0763,0.6007,-0.1673,0.7779
-0.187,0.054,-0.045,7.5,96.8,-63,0,2018,5,17,19,38,16.211,0.056,0.6022,-0.1598,0.7801
-0.177,0.06,-0.036,2.6,77,-55.1,0,2018,5,17,19,38,16.229,0.0391,0.6027,-0.154,0.7819
-0.121,0.063,-0.026,-0.2,59.3,-49.3,0,2018,5,17,19,38,16.266,0.0252,0.6024,-0.15,0.7834
-0.056,0.071,-0.025,-1.1,46.7,-46.5,0,2018,5,17,19,38,16.286,0.0135,0.6017,-0.1475,0.7847
-0.001,0.076,-0.033,-0.2,40.6,-47.1,0,2018,5,17,19,38,16.29,0.0029,0.6009,-0.1462,0.7857
0.04,0.068,-0.051,1.6,42,-50.5,0,2018,5,17,19,38,16.309,-0.0078,0.6002,-0.1455,0.7864
0.073,0.076,-0.048,3.3,49.9,-55.1,0,2018,5,17,19,38,16.329,-0.0197,0.5995,-0.1446,0.7869
0.102,0.099,-0.053,4.3,58.1,-60.2,0,2018,5,17,19,38,16.368,-0.0332,0.5986,-0.143,0.7874
0.141,0.138,-0.061,4.8,63.9,-64.5,0,2018,5,17,19,38,16.391,-0.0479,0.5976,-0.1406,0.7878
0.144,0.167,-0.063,6,64.6,-66.5,0,2018,5,17,19,38,16.395,-0.0632,0.5965,-0.1378,0.7881
0.123,0.199,-0.067,7.7,60.5,-64.9,0,2018,5,17,19,38,16.409,-0.0789,0.5952,-0.1358,0.788
0.08,0.216,-0.064,9.7,53.8,-59.4,1023,2018,5,17,19,38,16.449,-0.0936,0.5941,-0.1343,0.7875
0.034,0.228,-0.053,12.3,45.8,-50.4,1023,2018,5,17,19,38,16.469,-0.1066,0.5934,-0.133,0.7865
-0.011,0.224,-0.054,16,38,-38,1023,2018,5,17,19,38,16.473,-0.1173,0.5935,-0.1316,0.7852
-0.05,0.202,-0.039,21,33.3,-24.8,1023,2018,5,17,19,38,16.491,-0.1256,0.5946,-0.1296,0.7834
-0.053,0.18,-0.005,26.4,34.2,-12.9,1023,2018,5,17,19,38,16.527,-0.1321,0.5967,-0.1264,0.7813
-0.029,0.167,0.009,31.5,39.1,-4.3,1023,2018,5,17,19,38,16.548,-0.1377,0.5996,-0.1216,0.7788
-0.008,0.146,0.032,36.7,47.6,0.5,1023,2018,5,17,19,38,16.552,-0.1431,0.6031,-0.115,0.7761
-0.021,0.119,0.045,41.3,60.3,2,1023,2018,5,17,19,38,16.588,-0.1493,0.6071,-0.1065,0.7731
-0.057,0.09,0.07,44.6,77.3,2.8,1023,2018,5,17,19,38,16.608,-0.1566,0.6108,-0.0951,0.7702
-0.085,0.088,0.09,46,93.9,4.4,1023,2018,5,17,19,38,16.612,-0.1658,0.6142,-0.0812,0.7672
-0.115,0.07,0.105,43.5,105.5,6.4,0,2018,5,17,19,38,16.652,-0.1764,0.6172,-0.0659,0.7638
-0.093,0.057,0.155,35.7,109.9,8,0,2018,5,17,19,38,16.672,-0.1875,0.6192,-0.0494,0.7608
-0.037,0.081,0.167,24.8,112.5,7.7,0,2018,5,17,19,38,16.676,-0.1988,0.6195,-0.0327,0.7586
0.039,0.158,0.135,15,94.1,9.1,0,2018,5,17,19,38,16.692,-0.2091,0.6183,-0.0172,0.7573
0.085,0.174,0.087,7.9,61.3,10.6,0,2018,5,17,19,38,16.712,-0.2161,0.6169,-0.0055,0.7566
0.106,0.187,0.041,3.5,27.2,12.7,0,2018,5,17,19,38,16.733,-0.2193,0.616,0.0016,0.7565
0.088,0.134,0.008,0,2.8,15.5,0,2018,5,17,19,38,16.752,-0.2187,0.6156,0.0051,0.7569
0.031,0.084,-0.007,-2.7,-9.1,18.5,0,2018,5,17,19,38,16.774,-0.2156,0.6154,0.0068,0.758
-0.031,0.047,-0.007,-5.5,-11.7,22.1,0,2018,5,17,19,38,16.794,-0.2115,0.6152,0.0077,0.7593
-0.076,0.019,-0.003,-8.2,-10.6,26.1,0,2018,5,17,19,38,16.814,-0.2069,0.6148,0.0087,0.7609
-0.112,0.018,-0.004,-9.9,-9.2,29.4,0,2018,5,17,19,38,16.835,-0.2021,0.614,0.0102,0.7628
-0.139,0.017,-0.008,-9.9,-12.7,31,0,2018,5,17,19,38,16.854,-0.1967,0.6132,0.0119,0.7648
-0.144,0.012,0,-9.3,-20.2,30.2,0,2018,5,17,19,38,16.875,-0.1907,0.6127,0.0129,0.7668
-0.11,0.005,-0.002,-8.7,-27.9,26.3,0,2018,5,17,19,38,16.895,-0.1841,0.6124,0.0124,0.7686
-0.051,0,-0.007,-7.9,-33.1,19.9,0,2018,5,17,19,38,16.93,-0.1777,0.6123,0.0104,0.7702
0.01,-0.011,-0.03,-6.6,-33.8,12.1,0,2018,5,17,19,38,16.949,-0.1721,0.6125,0.0072,0.7714
0.053,-0.015,-0.047,-4.9,-29.2,4.2,0,2018,5,17,19,38,16.953,-0.1679,0.6128,0.0032,0.7721
0.079,-0.019,-0.054,-2.9,-21.7,-1.8,0,2018,5,17,19,38,16.991,-0.1653,0.6133,-0.0006,0.7722
0.071,-0.009,-0.052,-1.6,-14.2,-4.9,0,2018,5,17,19,38,17.01,-0.1642,0.6138,-0.0038,0.7721
0.061,0.001,-0.037,-0.2,-7.8,-4.6,0,2018,5,17,19,38,17.014,-0.1639,0.6142,-0.0061,0.7718
0.045,0.015,-0.036,1,-5.5,-1,0,2018,5,17,19,38,17.034,-0.1638,0.6147,-0.0075,0.7715
0.029,0.019,-0.029,2.4,-7.1,4.5,0,2018,5,17,19,38,17.055,-0.1629,0.6152,-0.0081,0.7712
0.024,0.012,-0.025,3.8,-10.6,10.9,1023,2018,5,17,19,38,17.074,-0.1609,0.616,-0.0085,0.7709
0.018,-0.002,-0.023,5.7,-12.9,17,1023,2018,5,17,19,38,17.095,-0.1578,0.6172,-0.0086,0.7707
0.022,-0.02,-0.017,7.7,-12.5,22,1023,2018,5,17,19,38,17.134,-0.1539,0.6186,-0.0083,0.7703
0.035,-0.036,-0.01,9.6,-9.4,25.1,1023,2018,5,17,19,38,17.156,-0.1499,0.6201,-0.0074,0.7699
0.047,-0.045,-0.005,11.3,-5.6,25.7,1023,2018,5,17,19,38,17.16,-0.146,0.6217,-0.0058,0.7694
0.048,-0.046,0.008,12.8,-2.3,24.3,1023,2018,5,17,19,38,17.175,-0.1427,0.6233,-0.0039,0.7687
0.04,-0.055,0.017,14,0.5,21.4,1023,2018,5,17,19,38,17.196,-0.14,0.625,-0.0018,0.7679
0.022,-0.062,0.039,14.7,3.3,17.9,1023,2018,5,17,19,38,17.217,-0.1382,0.6266,0.0003,0.7669
0.006,-0.068,0.056,14.3,6.1,14,1023,2018,5,17,19,38,17.237,-0.1371,0.6281,0.0024,0.7659
0,-0.063,0.063,13.4,7.1,10,1023,2018,5,17,19,38,17.256,-0.1368,0.6293,0.0043,0.7649
0.003,-0.058,0.066,12.3,6,6.4,0,2018,5,17,19,38,17.296,-0.137,0.6304,0.0059,0.7639
0,-0.051,0.073,11.3,4,2.8,0,2018,5,17,19,38,17.315,-0.1374,0.6313,0.0068,0.7631
-0.007,-0.051,0.083,10.4,1,-0.6,0,2018,5,17,19,38,17.319,-0.138,0.6321,0.007,0.7623
-0.003,-0.052,0.101,9.1,-1,-3.7,0,2018,5,17,19,38,17.339,-0.1388,0.6328,0.0064,0.7616
0.002,-0.051,0.102,7.7,-1.2,-6.4,0,2018,5,17,19,38,17.36,-0.1398,0.6332,0.0054,0.7611
0.012,-0.046,0.098,6.1,0.1,-8.8,0,2018,5,17,19,38,17.397,-0.1413,0.6334,0.0042,0.7607
0.017,-0.038,0.104,4.6,1.6,-11,0,2018,5,17,19,38,17.401,-0.1432,0.6333,0.0029,0.7604
0.019,-0.029,0.11,2.8,5.2,-13.2,0,2018,5,17,19,38,17.417,-0.1456,0.6329,0.0017,0.7603
0.015,-0.018,0.115,0.6,8.6,-14.5,0,2018,5,17,19,38,17.456,-0.1486,0.6321,0.0009,0.7604
0.017,0.002,0.112,-1.7,11.4,-15.1,0,2018,5,17,19,38,17.476,-0.152,0.6308,0.0004,0.7608
0.016,0.021,0.103,-4.6,12,-15.8,0,2018,5,17,19,38,17.48,-0.1556,0.6292,0.0001,0.7614
0.017,0.032,0.096,-6.9,10.4,-16.1,0,2018,5,17,19,38,17.499,-0.159,0.6274,-0.0001,0.7622
0,0.041,0.086,-8.9,5.8,-15.8,0,2018,5,17,19,38,17.521,-0.162,0.6254,-0.0008,0.7632
-0.014,0.037,0.071,-10.8,0.7,-15.8,0,2018,5,17,19,38,17.539,-0.1643,0.6234,-0.0021,0.7643
-0.015,0.03,0.053,-12.2,-2.5,-15.3,0,2018,5,17,19,38,17.575,-0.1662,0.6214,-0.0042,0.7655
-0.009,0.035,0.032,-13.2,-3.9,-14.8,0,2018,5,17,19,38,17.596,-0.1677,0.6195,-0.0064,0.7668
-0.004,0.033,0.023,-13.5,-5.5,-14.5,0,2018,5,17,19,38,17.6,-0.1691,0.6176,-0.0088,0.768
-0.002,0.026,0.013,-13.3,-4.5,-13.9,0,2018,5,17,19,38,17.636,-0.1703,0.6158,-0.0113,0.7691
0.004,0.035,0,-12.8,-2.3,-13.3,0,2018,5,17,19,38,17.656,-0.1716,0.614,-0.0135,0.7702
0.011,0.037,-0.01,-12.3,-0.2,-12.4,0,2018,5,17,19,38,17.66,-0.1731,0.6123,-0.0152,0.7712
0.015,0.045,-0.021,-11.7,1.6,-11.1,0,2018,5,17,19,38,17.696,-0.1745,0.6107,-0.0165,0.7721
0.012,0.047,-0.03,-10.6,3.1,-9.6,0,2018,5,17,19,38,17.716,-0.176,0.6092,-0.0174,0.7729
0.003,0.047,-0.031,-9.7,3.9,-7.6,0,2018,5,17,19,38,17.72,-0.1772,0.6079,-0.0179,0.7737
0.001,0.048,-0.036,-8.9,4.1,-5.2,1023,2018,5,17,19,38,17.739,-0.1782,0.6067,-0.018,0.7744
0.005,0.051,-0.048,-8,3.5,-3.2,1023,2018,5,17,19,38,17.779,-0.1789,0.6058,-0.0179,0.775
-0.001,0.049,-0.05,-6.7,1.6,-1.2,1023,2018,5,17,19,38,17.799,-0.1791,0.605,-0.0177,0.7755
-0.003,0.044,-0.047,-5.3,1.1,0.1,1023,2018,5,17,19,38,17.804,-0.1791,0.6045,-0.0174,0.7759
-0.001,0.037,-0.053,-3.9,1.6,1,1023,2018,5,17,19,38,17.822,-0.1788,0.6043,-0.0171,0.7762
0.002,0.035,-0.051,-2.8,2.3,1.4,1023,2018,5,17,19,38,17.842,-0.1787,0.6041,-0.0166,0.7763
0.011,0.034,-0.056,-1.6,2.5,1.9,1023,2018,5,17,19,38,17.881,-0.1785,0.6041,-0.016,0.7764
0.017,0.035,-0.055,-0.5,2.4,1.8,1023,2018,5,17,19,38,17.886,-0.1783,0.6043,-0.0153,0.7763
0.006,0.033,-0.047,0.5,1.4,1.8,1023,2018,5,17,19,38,17.903,-0.178,0.6046,-0.0146,0.7761
-0.004,0.029,-0.041,1.6,0,2.5,0,2018,5,17,19,38,17.921,-0.1776,0.6051,-0.0141,0.7758
-0.005,0.028,-0.043,2.6,-1.1,3.5,0,2018,5,17,19,38,17.941,-0.1769,0.6058,-0.0136,0.7755
0,0.021,-0.04,3.6,-2,4.3,0,2018,5,17,19,38,17.963,-0.1761,0.6066,-0.0131,0.7751
0.008,0.023,-0.029,4.8,-2.5,4.7,0,2018,5,17,19,38,17.983,-0.1751,0.6075,-0.0127,0.7746
0.011,0.015,-0.023,5.8,-2.3,4.5,0,2018,5,17,19,38,18.003,-0.1741,0.6085,-0.0124,0.774
0.006,0.012,-0.017,6.7,-1.5,4.3,0,2018,5,17,19,38,18.023,-0.1733,0.6095,-0.0119,0.7734
0.002,0.011,-0.007,7.4,-0.4,4.2,0,2018,5,17,19,38,18.043,-0.1726,0.6106,-0.0113,0.7727
0.008,0.01,0,7.5,0.4,4.3,0,2018,5,17,19,38,18.082,-0.172,0.6116,-0.0106,0.7721
0.006,0.011,0.013,7.8,0.7,4.4,0,2018,5,17,19,38,18.087,-0.1715,0.6126,-0.0098,0.7714
0.008,0.009,0.016,7.4,0.4,4.3,0,2018,5,17,19,38,18.103,-0.171,0.6134,-0.009,0.7709
0.008,0.009,0.024,7.1,-0.1,4.2,0,2018,5,17,19,38,18.123,-0.1704,0.6142,-0.0082,0.7704
0.008,0.008,0.027,6.3,-1,4,0,2018,5,17,19,38,18.141,-0.1699,0.6149,-0.0077,0.7699
0.004,0.004,0.034,5.4,-1.3,3.6,0,2018,5,17,19,38,18.161,-0.1693,0.6155,-0.0072,0.7696
0.004,0.004,0.035,4.7,-1.5,4,0,2018,5,17,19,38,18.182,-0.1687,0.6159,-0.0069,0.7694
0.006,0,0.037,3.8,-1.9,3.8,0,2018,5,17,19,38,18.22,-0.1681,0.6163,-0.0066,0.7693
0.012,0.004,0.039,2.7,-2.3,3.8,0,2018,5,17,19,38,18.24,-0.1674,0.6165,-0.0064,0.7693
0.012,0.003,0.038,2.1,-2.8,3.5,0,2018,5,17,19,38,18.245,-0.1667,0.6165,-0.0063,0.7694
0.013,-0.003,0.034,1.2,-2.9,3,0,2018,5,17,19,38,18.284,-0.1661,0.6165,-0.0064,0.7695
0.013,-0.005,0.036,0,-2.5,2.9,0,2018,5,17,19,38,18.304,-0.1655,0.6164,-0.0065,0.7697
0.013,-0.005,0.032,-0.2,-1.9,2.9,0,2018,5,17,19,38,18.308,-0.165,0.6162,-0.0066,0.77
0.013,-0.006,0.033,-1,-1.4,2.8,0,2018,5,17,19,38,18.322,-0.1646,0.6158,-0.0067,0.7704
0.009,-0.006,0.024,-1.6,-1.4,2.5,0,2018,5,17,19,38,18.363,-0.1642,0.6155,-0.0067,0.7707
0.011,-0.007,0.021,-1.9,-1.5,2.4,0,2018,5,17,19,38,18.365,-0.1638,0.6151,-0.0068,0.7711
0.006,-0.008,0.014,-2.5,-1.4,1.9,0,2018,5,17,19,38,18.38,-0.1634,0.6146,-0.007,0.7716
0.012,-0.008,0.016,-2.8,-1.4,1.4,1023,2018,5,17,19,38,18.418,-0.1632,0.6142,-0.0072,0.772
0.01,-0.01,0.007,-2.8,-1.3,0.7,1023,2018,5,17,19,38,18.439,-0.163,0.6138,-0.0075,0.7724
0.006,-0.01,0.007,-2.5,-0.7,0,1023,2018,5,17,19,38,18.442,-0.1629,0.6134,-0.0078,0.7727
0.008,-0.008,0.003,-2.5,0,-0.4,1023,2018,5,17,19,38,18.483,-0.163,0.613,-0.0081,0.773
0.01,-0.006,-0.001,-2.6,0.2,-0.8,1023,2018,5,17,19,38,18.504,-0.1632,0.6126,-0.0083,0.7732
0.012,-0.005,-0.01,-2.5,-0.3,-1,1023,2018,5,17,19,38,18.508,-0.1634,0.6123,-0.0086,0.7734
0.011,-0.003,-0.013,-2.3,-0.6,-1.1,1023,2018,5,17,19,38,18.526,-0.1635,0.612,-0.0089,0.7736
0.008,-0.005,-0.007,-1.7,-0.3,-1.1,1023,2018,5,17,19,38,18.548,-0.1637,0.6118,-0.0093,0.7738
0.007,0,-0.011,-1.3,0.2,-1.3,1023,2018,5,17,19,38,18.568,-0.1639,0.6116,-0.0095,0.7739
0.007,-0.002,-0.013,-0.9,0.6,-1.4,1023,2018,5,17,19,38,18.605,-0.1642,0.6115,-0.0097,0.7739
0.005,0.001,-0.008,-0.3,0.8,-1.6,0,2018,5,17,19,38,18.609,-0.1645,0.6114,-0.0098,0.7738
0.011,0.001,-0.01,0,1,-2.1,0,2018,5,17,19,38,18.625,-0.1649,0.6115,-0.0099,0.7738
0.005,0.004,-0.009,0.1,0.8,-2.5,0,2018,5,17,19,38,18.663,-0.1653,0.6115,-0.0101,0.7736
0.008,0.008,-0.001,0.4,0.5,-2.6,0,2018,5,17,19,38,18.683,-0.1657,0.6115,-0.0102,0.7735
0.011,0.01,0,0.5,0,-2.7,0,2018,5,17,19,38,18.687,-0.1661,0.6115,-0.0104,0.7734
0.017,0.012,0,0.2,-0.2,-2.4,0,2018,5,17,19,38,18.726,-0.1664,0.6116,-0.0107,0.7733
0.017,0.013,0.001,0.4,-0.3,-2.1,0,2018,5,17,19,38,18.745,-0.1667,0.6116,-0.0109,0.7733
0.012,0.013,0.002,0.6,-0.2,-1.6,0,2018,5,17,19,38,18.749,-0.1668,0.6116,-0.0111,0.7732
0.005,0.011,0.002,0.7,0.4,-0.8,0,2018,5,17,19,38,18.768,-0.167,0.6117,-0.0112,0.7731
0.003,0.01,0.006,0.9,1.1,-0.2,0,2018,5,17,19,38,18.787,-0.1671,0.6117,-0.011,0.7731
0.001,0.01,0.012,1.1,1.3,0.2,0,2018,5,17,19,38,18.805,-0.1672,0.6117,-0.0108,0.773
0.006,0.013,0.007,0.8,0.8,0.3,0,2018,5,17,19,38,18.825,-0.1673,0.6117,-0.0105,0.773
0.009,0.01,0.012,0.8,0.3,0.2,0,2018,5,17,19,38,18.86,-0.1672,0.6117,-0.0103,0.773
0.011,0.009,0.011,0.6,0.2,0.2,0,2018,5,17,19,38,18.879,-0.1673,0.6117,-0.0102,0.7731
0.011,0.009,0.015,0,0,0,0,2018,5,17,19,38,18.888,-0.1672,0.6115,-0.0102,0.7732
0.009,0.009,0.01,0,0,0,0,2018,5,17,19,38,18.908,-0.1672,0.6114,-0.0101,0.7733
0.012,0.008,0.014,-0.2,-0.2,0.5,0,2018,5,17,19,38,18.927,-0.1672,0.6113,-0.0101,0.7734
0.01,0.003,0.016,-0.3,0,1.1,0,2018,5,17,19,38,18.948,-0.1671,0.6112,-0.01,0.7735
0.011,0.005,0.012,-0.6,0.5,1.4,0,2018,5,17,19,38,18.984,-0.1669,0.611,-0.0098,0.7737
0.009,0.001,0.01,-0.7,0.6,1.4,0,2018,5,17,19,38,19.004,-0.1668,0.6108,-0.0096,0.7739
0.008,0.003,0.006,-0.9,0.1,1.1,0,2018,5,17,19,38,19.008,-0.1667,0.6106,-0.0095,0.7741
0.004,0.001,0,-1,-0.2,1.1,0,2018,5,17,19,38,19.028,-0.1666,0.6104,-0.0094,0.7742
0.004,-0.002,0.004,-1.3,-0.3,0.6,0,2018,5,17,19,38,19.063,-0.1664,0.6102,-0.0094,0.7744
0.005,-0.003,0.001,-1.3,0,0.6,0,2018,5,17,19,38,19.085,-0.1664,0.61,-0.0095,0.7746
0.01,-0.001,0.001,-1.4,0.4,0,1023,2018,5,17,19,38,19.089,-0.1664,0.6098,-0.0095,0.7747
0.015,-0.002,-0.004,-1,0.5,-0.3,1023,2018,5,17,19,38,19.107,-0.1665,0.6097,-0.0095,0.7748
0.015,0,-0.005,-1,0.7,-0.5,1023,2018,5,17,19,38,19.129,-0.1667,0.6095,-0.0095,0.7749
0.014,0.002,-0.001,-0.8,0.7,-1,1023,2018,5,17,19,38,19.165,-0.1669,0.6093,-0.0096,0.775
0.009,-0.001,-0.01,-1,0.4,-0.7,1023,2018,5,17,19,38,19.187,-0.1671,0.6092,-0.0097,0.7751
0.006,-0.007,-0.007,-0.7,0.2,-0.7,1023,2018,5,17,19,38,19.191,-0.1672,0.6091,-0.0098,0.7751
0.007,0,-0.005,-0.5,0.4,-0.8,1023,2018,5,17,19,38,19.21,-0.1674,0.6091,-0.0099,0.7751
0.002,0.001,-0.009,-0.3,0.1,-1.1,1023,2018,5,17,19,38,19.23,-0.1676,0.609,-0.01,0.7751
0.002,0,-0.009,0,0,-1.6,1023,2018,5,17,19,38,19.252,-0.1678,0.6091,-0.0101,0.775
0.003,0,-0.003,0.4,0.3,-2.1,0,2018,5,17,19,38,19.29,-0.1681,0.6091,-0.0103,0.7749
0.012,0.004,-0.001,0.3,0.5,-2.4,0,2018,5,17,19,38,19.309,-0.1684,0.6092,-0.0105,0.7748
0.011,0.009,-0.004,0.6,0.3,-2.5,0,2018,5,17,19,38,19.313,-0.1688,0.6092,-0.0107,0.7747
0.011,0.007,0.002,0.7,0.7,-2.5,0,2018,5,17,19,38,19.329,-0.1692,0.6093,-0.0108,0.7745
0.01,0.012,0.002,0.7,1,-2.1,0,2018,5,17,19,38,19.349,-0.1696,0.6093,-0.0109,0.7744
0.012,0.01,0.002,0.3,1.1,-1.3,0,2018,5,17,19,38,19.369,-0.1699,0.6093,-0.0108,0.7744
0.007,0.015,0.003,0.3,1,-0.7,0,2018,5,17,19,38,19.391,-0.1701,0.6092,-0.0107,0.7744
0.011,0.011,0,0.2,0.7,-0.3,0,2018,5,17,19,38,19.41,-0.1702,0.6092,-0.0105,0.7744
0.002,0.012,0.002,0,1,-0.4,0,2018,5,17,19,38,19.447,-0.1704,0.6091,-0.0104,0.7744
0,0.009,0.004,0.1,1.4,-0.2,0,2018,5,17,19,38,19.469,-0.1705,0.6091,-0.0102,0.7744
0,0.009,0.005,0,1.7,-0.4,0,2018,5,17,19,38,19.473,-0.1707,0.609,-0.01,0.7745
0.006,0.011,-0.001,0,1.6,-0.5,0,2018,5,17,19,38,19.492,-0.1709,0.6089,-0.0097,0.7745
0.011,0.006,-0.004,0,1.2,-0.4,0,2018,5,17,19,38,19.512,-0.1711,0.6088,-0.0095,0.7745
0.01,0.011,0,-0.1,0.6,-0.3,0,2018,5,17,19,38,19.547,-0.1712,0.6087,-0.0094,0.7746
0.004,0.009,-0.004,0,0,0,0,2018,5,17,19,38,19.569,-0.1712,0.6087,-0.0093,0.7746
0.004,0.007,-0.001,0,0.5,0,0,2018,5,17,19,38,19.573,-0.1712,0.6086,-0.0092,0.7746
0.009,0.005,-0.001,0.2,1,0.3,0,2018,5,17,19,38,19.592,-0.1712,0.6086,-0.0091,0.7746
0.01,0.006,-0.001,0.3,1.6,0.2,0,2018,5,17,19,38,19.612,-0.1713,0.6087,-0.0088,0.7746
0.01,0.009,-0.003,0.7,1.9,0.1,0,2018,5,17,19,38,19.632,-0.1714,0.6087,-0.0085,0.7745
0.009,0.008,0,0.6,1.8,0.2,0,2018,5,17,19,38,19.654,-0.1716,0.6087,-0.0082,0.7745
0.003,0.006,0,0.5,1.5,0.2,0,2018,5,17,19,38,19.674,-0.1717,0.6087,-0.0079,0.7744
0.004,0.01,0.002,0.3,0.9,0.3,0,2018,5,17,19,38,19.695,-0.1718,0.6087,-0.0076,0.7744
0.004,0.004,-0.003,0.3,0.4,0.5,0,2018,5,17,19,38,19.716,-0.1718,0.6088,-0.0074,0.7744
0.007,0.005,-0.003,0.2,0.5,0.3,0,2018,5,17,19,38,19.732,-0.1717,0.6088,-0.0074,0.7744
0.007,0.003,0.003,0.3,0.6,0.2,1023,2018,5,17,19,38,19.751,-0.1718,0.6088,-0.0072,0.7744
0.009,0.003,0.001,0,0.7,0.3,1023,2018,5,17,19,38,19.77,-0.1718,0.6088,-0.0071,0.7744
0.01,0.003,0,0.2,0.5,0,1023,2018,5,17,19,38,19.791,-0.1718,0.6088,-0.007,0.7744
0.013,0.003,0,0.2,0.8,0,1023,2018,5,17,19,38,19.83,-0.1719,0.6087,-0.0069,0.7744
0.007,0.006,-0.002,0.3,0.7,0,1023,2018,5,17,19,38,19.85,-0.172,0.6087,-0.0067,0.7744
0.006,0.006,-0.002,0.2,0.8,0,1023,2018,5,17,19,38,19.854,-0.1721,0.6087,-0.0066,0.7744
0.006,0.006,0.006,0.1,1.1,0,1023,2018,5,17,19,38,19.891,-0.1722,0.6087,-0.0065,0.7744
0.007,0.006,0,-0.1,0.7,0.3,0,2018,5,17,19,38,19.913,-0.1722,0.6086,-0.0063,0.7744
0.007,0.003,-0.003,0,0,0,0,2018,5,17,19,38,19.917,-0.1722,0.6086,-0.0062,0.7744
0.006,0.001,-0.004,0,0,0,0,2018,5,17,19,38,19.935,-0.1722,0.6086,-0.0062,0.7744
0.003,0.005,0,0,0.8,-0.3,0,2018,5,17,19,38,19.956,-0.1723,0.6086,-0.0061,0.7744
0.007,0.006,0,0,0.4,-0.5,0,2018,5,17,19,38,19.971,-0.1724,0.6086,-0.006,0.7744
0.007,0.01,-0.003,0,0,-0.5,0,2018,5,17,19,38,20.011,-0.1725,0.6086,-0.006,0.7744
0.01,0.005,-0.002,0,0,0,0,2018,5,17,19,38,20.031,-0.1725,0.6085,-0.0061,0.7744
0.009,0.005,-0.001,0,0,0,0,2018,5,17,19,38,20.035,-0.1725,0.6085,-0.0061,0.7745
0.009,0.005,-0.005,-0.5,0,0.2,0,2018,5,17,19,38,20.071,-0.1725,0.6085,-0.0061,0.7745
0.011,0.007,-0.002,0,0,0,0,2018,5,17,19,38,20.091,-0.1724,0.6085,-0.006,0.7745
0.006,0.004,-0.007,0,0,0,0,2018,5,17,19,38,20.095,-0.1724,0.6085,-0.006,0.7745
0.004,0,-0.002,0,0,0,0,2018,5,17,19,38,20.114,-0.1724,0.6085,-0.006,0.7745
0.001,-0.003,-0.001,0,0.7,0,0,2018,5,17,19,38,20.136,-0.1725,0.6085,-0.006,0.7745
0.004,0.003,-0.007,-0.2,0.5,0,0,2018,5,17,19,38,20.176,-0.1725,0.6085,-0.0059,0.7745
0.005,0.003,-0.008,0,0,0,0,2018,5,17,19,38,20.195,-0.1725,0.6085,-0.0059,0.7745
0.01,0.003,-0.001,-0.2,-0.6,-0.4,0,2018,5,17,19,38,20.199,-0.1725,0.6085,-0.006,0.7745
0.013,0.003,-0.004,0,-0.5,-0.6,0,2018,5,17,19,38,20.214,-0.1726,0.6085,-0.0061,0.7745
0.007,0,-0.005,0,-0.1,-0.5,0,2018,5,17,19,38,20.234,-0.1726,0.6085,-0.0063,0.7745
0.004,0.002,-0.003,0.2,0.5,0,0,2018,5,17,19,38,20.255,-0.1726,0.6085,-0.0063,0.7744
0.006,-0.001,0,0.3,1.1,0.3,0,2018,5,17,19,38,20.274,-0.1727,0.6085,-0.0061,0.7744
0.007,0.002,0,0.3,1.6,0.3,0,2018,5,17,19,38,20.296,-0.1728,0.6085,-0.0059,0.7744
0.005,0.001,0.001,0.2,1.1,0,0,2018,5,17,19,38,20.316,-0.1729,0.6084,-0.0057,0.7744
0.004,0,0,0,0.6,-0.4,0,2018,5,17,19,38,20.337,-0.173,0.6084,-0.0056,0.7744
0.006,0.001,0.003,-0.3,0.5,-0.7,0,2018,5,17,19,38,20.355,-0.1732,0.6084,-0.0056,0.7744
0.008,0.003,0.005,-0.3,0.6,-0.6,0,2018,5,17,19,38,20.396,-0.1734,0.6083,-0.0056,0.7745
0.012,0.002,-0.002,-0.6,0.6,-0.4,0,2018,5,17,19,38,20.401,-0.1735,0.6081,-0.0056,0.7745
0.012,0.001,-0.001,-0.7,0.7,-0.1,0,2018,5,17,19,38,20.416,-0.1736,0.608,-0.0056,0.7746
0.011,0,-0.005,-0.6,0.7,0,1023,2018,5,17,19,38,20.436,-0.1737,0.6079,-0.0055,0.7747
0.007,0,-0.002,-0.6,0.8,-0.1,1023,2018,5,17,19,38,20.454,-0.1738,0.6078,-0.0054,0.7748
0.005,0,-0.008,-0.4,1.4,-0.2,1023,2018,5,17,19,38,20.495,-0.174,0.6077,-0.0053,0.7748
0.006,0,-0.003,-0.5,1.3,-0.4,1023,2018,5,17,19,38,20.513,-0.1742,0.6075,-0.0052,0.7748
0.003,0.007,-0.005,-0.6,0.7,-0.5,1023,2018,5,17,19,38,20.518,-0.1744,0.6074,-0.0051,0.7749
0.003,0.004,-0.009,-0.6,0,-0.5,1023,2018,5,17,19,38,20.538,-0.1745,0.6074,-0.0051,0.7749
0.008,0.006,-0.009,-0.7,-0.2,-0.4,1023,2018,5,17,19,38,20.557,-0.1745,0.6073,-0.0052,0.775
0.009,0.002,-0.01,0,0,0,1023,2018,5,17,19,38,20.595,-0.1745,0.6073,-0.0052,0.775
0.006,0.006,-0.013,0,0,0,1023,2018,5,17,19,38,20.616,-0.1745,0.6073,-0.0052,0.7749
0.008,0.007,-0.009,0,0.5,-0.4,1023,2018,5,17,19,38,20.62,-0.1746,0.6073,-0.0051,0.7749
0.008,0.008,-0.006,0,0,0,0,2018,5,17,19,38,20.66,-0.1746,0.6074,-0.0051,0.7749
0.003,0.008,-0.008,0,0,0,0,2018,5,17,19,38,20.679,-0.1746,0.6074,-0.005,0.7748
0.009,0.008,-0.003,0,0,0,0,2018,5,17,19,38,20.683,-0.1746,0.6075,-0.005,0.7748
0.015,0.01,-0.007,0,-1,0.6,0,2018,5,17,19,38,20.696,-0.1744,0.6075,-0.005,0.7748
0.019,0.005,-0.004,-0.1,-1.3,0.8,0,2018,5,17,19,38,20.731,-0.1741,0.6075,-0.0051,0.7749
0.013,0.006,-0.002,-0.2,-1.3,0.6,0,2018,5,17,19,38,20.752,-0.1739,0.6075,-0.0052,0.7749
0.008,0,-0.003,0,-0.7,1,0,2018,5,17,19,38,20.758,-0.1737,0.6075,-0.0052,0.775
0.004,0.001,-0.008,0,-0.3,1.3,0,2018,5,17,19,38,20.796,-0.1735,0.6076,-0.0052,0.775
0.004,0,0.001,0.2,0,1.5,0,2018,5,17,19,38,20.817,-0.1733,0.6076,-0.0051,0.775
0,-0.001,0.002,0,-0.1,1.6,0,2018,5,17,19,38,20.821,-0.1731,0.6076,-0.0049,0.775
-0.002,0,0.003,0,-0.8,1.4,0,2018,5,17,19,38,20.841,-0.1728,0.6076,-0.0048,0.7751
0.005,-0.002,0.001,-0.2,-1.3,0.9,0,2018,5,17,19,38,20.861,-0.1725,0.6076,-0.0049,0.7751
0.017,0.004,0.003,-0.8,-2.1,0.6,0,2018,5,17,19,38,20.88,-0.1723,0.6075,-0.0051,0.7753
0.031,0.005,-0.001,-1,-4,0.5,0,2018,5,17,19,38,20.898,-0.1719,0.6074,-0.0055,0.7754
0.029,-0.001,-0.009,-1,-5,0.8,0,2018,5,17,19,38,20.919,-0.1713,0.6074,-0.0061,0.7756
0.012,-0.014,-0.004,-0.6,-4.3,1.8,0,2018,5,17,19,38,20.939,-0.1707,0.6074,-0.0068,0.7757
0.001,-0.015,-0.001,-0.6,-2.3,2.9,0,2018,5,17,19,38,20.961,-0.1702,0.6074,-0.0072,0.7758
0.003,-0.016,-0.005,-0.6,-1.4,4.1,0,2018,5,17,19,38,20.98,-0.1696,0.6074,-0.0071,0.776
0.031,-0.008,-0.014,-0.8,-3.3,4.7,0,2018,5,17,19,38,21.018,-0.1688,0.6074,-0.0071,0.7761
0.05,-0.009,-0.012,-0.5,-6.2,4.5,0,2018,5,17,19,38,21.036,-0.1678,0.6075,-0.0075,0.7763
0.04,-0.021,-0.015,0.3,-7.8,4.2,0,2018,5,17,19,38,21.041,-0.1666,0.6077,-0.0082,0.7764
0.019,-0.038,-0.005,1.2,-6,4.5,0,2018,5,17,19,38,21.062,-0.1654,0.6081,-0.009,0.7763
0.008,-0.057,-0.007,1.6,-1,4.7,0,2018,5,17,19,38,21.082,-0.1647,0.6084,-0.0094,0.7762
0.002,-0.053,-0.002,1.4,3.4,4.7,1023,2018,5,17,19,38,21.104,-0.1645,0.6087,-0.009,0.776
-0.012,-0.046,0.002,0.8,2.9,4.9,1023,2018,5,17,19,38,21.123,-0.1645,0.6088,-0.0084,0.7759
-0.03,-0.045,0.012,-0.1,-1.7,5.3,1023,2018,5,17,19,38,21.138,-0.1641,0.6088,-0.0081,0.776
-0.045,-0.063,0.022,-1.7,-9.2,5.8,1023,2018,5,17,19,38,21.159,-0.163,0.6088,-0.0086,0.7762
-0.04,-0.088,0.028,-3.6,-13.9,4.5,1023,2018,5,17,19,38,21.179,-0.1614,0.6087,-0.0102,0.7766
-0.033,-0.094,0.021,-4.4,-16.2,2.7,1023,2018,5,17,19,38,21.217,-0.1597,0.6086,-0.0127,0.7771
-0.024,-0.111,0.006,-5.2,-13.8,0.8,1023,2018,5,17,19,38,21.238,-0.1584,0.6083,-0.0154,0.7775
-0.008,-0.105,0.01,-5.3,-8.8,-0.7,1023,2018,5,17,19,38,21.242,-0.1577,0.6079,-0.0179,0.7779
0.005,-0.08,0.018,-5.8,-4.1,-2.2,1023,2018,5,17,19,38,21.262,-0.1578,0.6072,-0.0197,0.7784
0.051,-0.047,0.034,-7,-2.7,-5.3,0,2018,5,17,19,38,21.283,-0.1584,0.6062,-0.0212,0.779
0.124,-0.018,0.033,-9.9,-4.9,-10.7,0,2018,5,17,19,38,21.323,-0.1594,0.6046,-0.0232,0.78
0.18,0.023,0.012,-12.4,-10.8,-18,0,2018,5,17,19,38,21.343,-0.1609,0.6026,-0.0264,0.7811
0.137,0.044,-0.021,-12.3,-14.4,-24.9,0,2018,5,17,19,38,21.347,-0.1625,0.6008,-0.031,0.782
-0.04,0.094,0.084,-12.2,-9.3,-24.7,0,2018,5,17,19,38,21.365,-0.1645,0.599,-0.0353,0.7828
-0.171,0.06,0.176,-14.2,-7.7,-20.5,0,2018,5,17,19,38,21.382,-0.1666,0.5973,-0.0393,0.7834
-0.24,0.091,0.192,-18,12.4,-9.1,0,2018,5,17,19,38,21.403,-0.1688,0.5949,-0.041,0.7847
-0.171,0.205,0.214,-19.4,15.7,0.6,0,2018,5,17,19,38,21.421,-0.171,0.5918,-0.0396,0.7866
-0.051,0.194,0.179,-25,-3.6,7.1,0,2018,5,17,19,38,21.442,-0.1708,0.5886,-0.039,0.7891
0.092,0.198,0.091,-27.5,-33.1,8.3,0,2018,5,17,19,38,21.463,-0.1677,0.5855,-0.0414,0.792
0.129,0.084,0.061,-31.4,-58.3,4.8,0,2018,5,17,19,38,21.482,-0.1615,0.5829,-0.0483,0.7948
0.18,0.022,0.029,-36.5,-55.3,-1.9,0,2018,5,17,19,38,21.521,-0.1553,0.5789,-0.0572,0.7984
0.192,0.041,-0.033,-42.3,-53.5,-10,0,2018,5,17,19,38,21.541,-0.1506,0.574,-0.0664,0.802
0.15,-0.036,-0.072,-47.2,-58.5,-22.1,0,2018,5,17,19,38,21.545,-0.147,0.5689,-0.0775,0.8054
0.133,-0.069,-0.115,-51.3,-62.2,-37.9,0,2018,5,17,19,38,21.566,-0.1447,0.5631,-0.0907,0.8085
0.042,-0.176,-0.084,-55.8,-61,-57.5,0,2018,5,17,19,38,21.586,-0.1445,0.5562,-0.1054,0.8114
-0.044,-0.161,-0.028,-62.3,-59.7,-79,0,2018,5,17,19,38,21.6,-0.1473,0.548,-0.122,0.8142
-0.117,-0.127,0,-67.8,-72,-98.5,0,2018,5,17,19,38,21.64,-0.1528,0.5385,-0.1421,0.8163
-0.126,-0.096,-0.025,-70.8,-91,-111.3,0,2018,5,17,19,38,21.661,-0.1584,0.5283,-0.1661,0.8173
-0.07,-0.045,-0.047,-71.9,-104.1,-112.1,0,2018,5,17,19,38,21.665,-0.1632,0.5179,-0.1927,0.8172
-0.065,0.043,-0.049,-71.7,-112,-104.1,0,2018,5,17,19,38,21.684,-0.1662,0.5076,-0.2198,0.8163
-0.082,0.081,-0.01,-72.8,-120.5,-84.5,0,2018,5,17,19,38,21.704,-0.1658,0.4974,-0.2464,0.815
-0.1,0.084,0.009,-77.9,-119.2,-60,0,2018,5,17,19,38,21.743,-0.1616,0.4875,-0.271,0.814
-0.157,0.089,-0.035,-85.4,-119.9,-33.9,0,2018,5,17,19,38,21.763,-0.1536,0.4772,-0.2936,0.8138
-0.179,0.094,-0.093,-93.6,-122.4,-10.2,0,2018,5,17,19,38,21.767,-0.1419,0.4665,-0.315,0.8141
-0.213,0.15,-0.141,-101.8,-121.4,10.1,1023,2018,5,17,19,38,21.804,-0.1264,0.4555,-0.3346,0.8151
-0.203,0.233,-0.18,-108.4,-130.2,27.2,1023,2018,5,17,19,38,21.824,-0.1075,0.4442,-0.3531,0.8163
-0.161,0.282,-0.188,-112.8,-145.8,39.7,1023,2018,5,17,19,38,21.829,-0.0849,0.4328,-0.372,0.8166
-0.115,0.275,-0.18,-116,-157.6,47.5,1023,2018,5,17,19,38,21.844,-0.0592,0.4213,-0.3917,0.8157
-0.112,0.27,-0.193,-117.5,-166.9,56,1023,2018,5,17,19,38,21.879,-0.0315,0.4095,-0.4119,0.8134
-0.13,0.227,-0.21,-116.7,-170.6,65.2,1023,2018,5,17,19,38,21.9,-0.002,0.3977,-0.4318,0.8094
-0.163,0.144,-0.251,-113.6,-168.5,76.2,1023,2018,5,17,19,38,21.904,0.0287,0.3865,-0.4506,0.8041
-0.192,0.064,-0.254,-108.9,-157.3,87.8,1023,2018,5,17,19,38,21.942,0.06,0.3763,-0.467,0.7978
-0.212,-0.028,-0.201,-108.3,-138.1,95,1023,2018,5,17,19,38,21.961,0.0914,0.3669,-0.4801,0.7914
-0.177,-0.034,-0.201,-109.7,-120.6,97.7,0,2018,5,17,19,38,21.965,0.1219,0.3578,-0.4896,0.7857
-0.131,-0.021,-0.271,-109.1,-114.5,98.4,0,2018,5,17,19,38,21.987,0.1517,0.3486,-0.4969,0.78
-0.109,-0.014,-0.331,-106.3,-119,98.1,0,2018,5,17,19,38,22.007,0.1813,0.3393,-0.5037,0.7734
-0.104,-0.035,-0.372,-104.3,-125.1,100.3,0,2018,5,17,19,38,22.045,0.2108,0.3299,-0.5109,0.7652
-0.112,-0.076,-0.397,-104.1,-129.3,104,0,2018,5,17,19,38,22.065,0.2408,0.3204,-0.518,0.7556
-0.109,-0.121,-0.45,-104.7,-136.2,106.3,0,2018,5,17,19,38,22.069,0.2712,0.3105,-0.525,0.7444
-0.094,-0.171,-0.46,-106.1,-139.3,108.3,0,2018,5,17,19,38,22.086,0.3017,0.3003,-0.5321,0.7317
-0.075,-0.178,-0.459,-109.2,-134.5,107,0,2018,5,17,19,38,22.106,0.3322,0.2894,-0.538,0.7185
-0.051,-0.138,-0.47,-112.8,-135.3,105.7,0,2018,5,17,19,38,22.124,0.3622,0.2777,-0.5429,0.7048
-0.046,-0.098,-0.485,-114.7,-143.5,104.5,0,2018,5,17,19,38,22.162,0.3921,0.265,-0.5475,0.69
-0.029,-0.115,-0.513,-115.6,-160,105.4,0,2018,5,17,19,38,22.181,0.4221,0.2509,-0.5529,0.673
-0.034,-0.226,-0.503,-117.5,-163,107,0,2018,5,17,19,38,22.187,0.4522,0.2358,-0.5588,0.6538
-0.062,-0.296,-0.424,-120.6,-142,108.2,0,2018,5,17,19,38,22.225,0.4818,0.2209,-0.5622,0.6347
-0.033,-0.263,-0.37,-121.7,-129.4,106.8,0,2018,5,17,19,38,22.246,0.51,0.2071,-0.5625,0.6167
0.003,-0.217,-0.346,-119.8,-142.5,103.8,0,2018,5,17,19,38,22.25,0.5376,0.1926,-0.5622,0.5981
0.009,-0.179,-0.375,-116.1,-175.2,101.6,0,2018,5,17,19,38,22.288,0.5646,0.1756,-0.5639,0.5764
-0.029,-0.259,-0.448,-109.8,-203.9,103.5,0,2018,5,17,19,38,22.308,0.5911,0.1557,-0.5687,0.5503
-0.04,-0.355,-0.424,-101,-205.5,105.7,0,2018,5,17,19,38,22.312,0.6164,0.135,-0.5744,0.5212
-0.033,-0.399,-0.275,-93.8,-195.1,105.6,0,2018,5,17,19,38,22.328,0.6398,0.1154,-0.5793,0.4915
0.055,-0.364,-0.178,-89.6,-181.5,98.3,0,2018,5,17,19,38,22.366,0.6609,0.0972,-0.5828,0.4625
0.157,-0.277,-0.173,-85.8,-181.9,89.4,0,2018,5,17,19,38,22.385,0.6798,0.0791,-0.5854,0.4344
0.21,-0.269,-0.192,-81.6,-178.6,80.6,0,2018,5,17,19,38,22.39,0.6968,0.0601,-0.5877,0.4066
0.239,-0.285,-0.191,-77.8,-161.2,72.9,0,2018,5,17,19,38,22.41,0.7117,0.0417,-0.589,0.3804
0.242,-0.289,-0.168,-75.2,-139.9,67.8,0,2018,5,17,19,38,22.429,0.7248,0.0255,-0.5888,0.3566
0.203,-0.201,-0.115,-74.7,-122,64.2,0,2018,5,17,19,38,22.466,0.7368,0.0115,-0.5869,0.3351
0.201,-0.15,-0.114,-75.6,-119.8,61.8,1023,2018,5,17,19,38,22.489,0.7482,-0.0015,-0.584,0.3147
0.2,-0.13,-0.121,-77.4,-128,62.2,1023,2018,5,17,19,38,22.493,0.759,-0.0155,-0.5806,0.2939
0.208,-0.115,-0.162,-79.4,-136.5,63.8,1023,2018,5,17,19,38,22.512,0.7695,-0.0306,-0.5769,0.2718
0.201,-0.149,-0.203,-76.7,-144.5,65.4,1023,2018,5,17,19,38,22.533,0.7794,-0.0466,-0.5732,0.2484
0.176,-0.202,-0.211,-69.7,-143.8,66.7,1023,2018,5,17,19,38,22.55,0.788,-0.0626,-0.5698,0.2241
0.165,-0.216,-0.201,-61.1,-138.3,68.1,1023,2018,5,17,19,38,22.588,0.7953,-0.0777,-0.5669,0.2
0.165,-0.219,-0.186,-51.1,-128.9,69.4,1023,2018,5,17,19,38,22.609,0.8011,-0.0916,-0.5645,0.1764
0.163,-0.219,-0.172,-41.1,-113.1,70,1023,2018,5,17,19,38,22.613,0.8055,-0.1032,-0.5627,0.154
0.158,-0.217,-0.19,-28.9,-102.5,70.1,1023,2018,5,17,19,38,22.632,0.8087,-0.1126,-0.5617,0.1331
0.14,-0.224,-0.188,-14.9,-96.7,68.1,1023,2018,5,17,19,38,22.651,0.8102,-0.1206,-0.5621,0.1132
0.18,-0.183,-0.163,-0.5,-97.5,63.1,1023,2018,5,17,19,38,22.672,0.81,-0.1284,-0.5642,0.0943
0.219,-0.196,-0.149,10.5,-90,55.1,0,2018,5,17,19,38,22.693,0.8081,-0.1363,-0.5678,0.0769
0.278,-0.2,-0.13,17.8,-63.9,44,0,2018,5,17,19,38,22.712,0.8053,-0.1424,-0.572,0.0626
0.297,-0.09,-0.093,22.2,-44.2,31.6,0,2018,5,17,19,38,22.75,0.8022,-0.1461,-0.5763,0.0528
0.314,-0.019,-0.057,23.8,-54.4,18.8,0,2018,5,17,19,38,22.773,0.7988,-0.1505,-0.5806,0.0454
0.331,-0.077,-0.07,23.5,-70.6,5.5,0,2018,5,17,19,38,22.777,0.7947,-0.1584,-0.5846,0.0379
0.339,-0.27,-0.107,22.1,-49,-7.6,0,2018,5,17,19,38,22.795,0.7904,-0.1677,-0.5881,0.0322
0.293,-0.325,-0.082,24.6,21.4,-20,0,2018,5,17,19,38,22.816,0.7875,-0.1711,-0.591,0.0335
0.154,-0.257,0.034,28.2,77.2,-26.6,0,2018,5,17,19,38,22.832,0.7861,-0.1663,-0.5935,0.0434
-0.016,-0.122,0.139,28.2,92.3,-24,0,2018,5,17,19,38,22.851,0.7855,-0.1567,-0.5959,0.0572
-0.101,-0.147,0.164,27.5,51.1,-20.9,0,2018,5,17,19,38,22.889,0.7842,-0.1491,-0.5983,0.0685
-0.088,-0.22,0.188,16.7,21.3,-19.9,0,2018,5,17,19,38,22.91,0.7824,-0.1463,-0.6005,0.0753
-0.004,-0.091,0.166,3.6,-3.1,-22.7,0,2018,5,17,19,38,22.914,0.7813,-0.1471,-0.6012,0.0795
0.031,-0.057,0.091,-8.4,-37.9,-25.2,0,2018,5,17,19,38,22.933,0.7811,-0.1528,-0.5999,0.0806
0.057,-0.112,0.083,-14.2,-43.6,-26.9,0,2018,5,17,19,38,22.953,0.7811,-0.162,-0.5976,0.0799
-0.024,-0.097,0.357,-18.9,-74.7,-29.4,0,2018,5,17,19,38,22.992,0.7808,-0.1724,-0.5953,0.0775
-0.24,-0.22,0.765,-44.1,-148.5,-33.7,0,2018,5,17,19,38,23.012,0.7797,-0.1919,-0.5919,0.0688
-0.215,-0.923,0.794,-101.1,-26.2,-44.3,0,2018,5,17,19,38,23.016,0.7829,-0.2116,-0.5818,0.0603
0.102,0.035,0.243,-109.4,14.5,-39.8,0,2018,5,17,19,38,23.033,0.7934,-0.215,-0.5657,0.0641
0.077,0.047,-0.15,-77.1,55.9,-29.7,0,2018,5,17,19,38,23.053,0.8123,-0.2181,-0.536,0.0721
-0.127,-0.065,0.178,-77.4,35.4,-19.6,0,2018,5,17,19,38,23.073,0.8291,-0.2092,-0.512,0.0814
-0.211,-0.119,0.114,-94.3,33.5,-30.9,0,2018,5,17,19,38,23.092,0.8465,-0.2053,-0.483,0.0884
-0.182,-0.027,0.03,-109.2,49.4,-36.4,0,2018,5,17,19,38,23.131,0.8726,-0.2004,-0.4329,0.104
-0.182,-0.01,-0.025,-107.8,19.8,-23,0,2018,5,17,19,38,23.152,0.881,-0.199,-0.4154,0.107
-0.236,-0.155,-0.075,-96.6,-12.7,-4.6,0,2018,5,17,19,38,23.156,0.8881,-0.2015,-0.3992,0.1054
-0.209,-0.178,0.084,-79.3,-16.9,9.7,0,2018,5,17,19,38,23.175,0.8933,-0.2057,-0.3866,0.1005
-0.102,-0.024,0.199,-57.9,-8.9,17,0,2018,5,17,19,38,23.195,0.8976,-0.2079,-0.3768,0.0949
0.23,0.254,0.165,-30.7,-18.8,19.3,0,2018,5,17,19,38,23.233,0.903,-0.2096,-0.3651,0.0846
0.348,0.23,-0.003,-18.9,-35.5,13.6,1023,2018,5,17,19,38,23.237,0.9038,-0.2136,-0.3622,0.0793
0.353,0.126,-0.003,-8.8,-26,1.1,1023,2018,5,17,19,38,23.254,0.9034,-0.2184,-0.3609,0.0756
0.286,0.073,0.044,-6.6,0.1,-11.7,1023,2018,5,17,19,38,23.273,0.9033,-0.2211,-0.3597,0.0755
0.201,0.043,0.061,-9.5,23.4,-21,1023,2018,5,17,19,38,23.31,0.904,-0.2205,-0.3576,0.0787
0.085,0.019,0.083,-15.4,27.6,-28,1023,2018,5,17,19,38,23.331,0.9055,-0.2181,-0.3541,0.0838
0.027,0.01,0.022,-22.2,29.1,-33.8,1023,2018,5,17,19,38,23.335,0.9075,-0.2159,-0.3488,0.09
-0.027,-0.039,-0.042,-24.4,29.2,-37.2,1023,2018,5,17,19,38,23.356,0.9093,-0.2141,-0.3433,0.0965
-0.044,0.017,-0.069,-23,27.8,-36.3,1023,2018,5,17,19,38,23.383,0.9108,-0.2127,-0.3382,0.1033
-0.069,0.027,-0.051,-19.2,15.3,-31.3,1023,2018,5,17,19,38,23.403,0.912,-0.2114,-0.3339,0.1088
-0.047,-0.036,0.043,-9.2,2.7,-16.1,1023,2018,5,17,19,38,23.415,0.9128,-0.2132,-0.3284,0.1158
-0.023,-0.037,0.082,-6,1,-8.5,1023,2018,5,17,19,38,23.453,0.9131,-0.2137,-0.3266,0.1176
0.02,-0.005,0.085,-3.1,-5.3,-0.2,1023,2018,5,17,19,38,23.472,0.9134,-0.214,-0.3253,0.1181
0.044,0.041,0.063,-1.2,-12.9,6.7,0,2018,5,17,19,38,23.481,0.9135,-0.215,-0.3246,0.117
0.045,0.03,0.031,-1.7,-17.8,12.4,0,2018,5,17,19,38,23.5,0.9135,-0.2165,-0.3245,0.1145
0.058,0.02,-0.015,-3.3,-15.9,15.6,0,2018,5,17,19,38,23.519,0.9135,-0.2183,-0.3246,0.1112
0.044,0,-0.06,-3.9,-13.6,15.2,0,2018,5,17,19,38,23.537,0.9134,-0.2199,-0.3247,0.1078
0.03,0.016,-0.049,-4.2,-13.1,13.5,0,2018,5,17,19,38,23.558,0.9134,-0.2215,-0.3249,0.1047
0.012,0.064,-0.04,-5.6,-14.9,11.3,0,2018,5,17,19,38,23.576,0.9133,-0.2231,-0.325,0.1018
0.004,0.096,-0.024,-7.9,-19.6,10,0,2018,5,17,19,38,23.613,0.9133,-0.2249,-0.3247,0.0986
0.009,0.063,-0.023,-10.6,-25.6,8.5,0,2018,5,17,19,38,23.635,0.9132,-0.2279,-0.324,0.0953
-0.001,-0.016,-0.001,-11.9,-21,5.8,0,2018,5,17,19,38,23.639,0.913,-0.2313,-0.323,0.0922
-0.004,-0.003,0.015,-12.4,-15.4,2.8,0,2018,5,17,19,38,23.677,0.913,-0.2341,-0.3215,0.0901
-0.009,-0.023,0.011,-11.4,-17.2,0.5,0,2018,5,17,19,38,23.698,0.913,-0.2368,-0.3199,0.0885
0.02,0.016,0.014,-9.1,-16.1,1.1,0,2018,5,17,19,38,23.702,0.9128,-0.2401,-0.3185,0.0872
-0.007,-0.048,0.034,-8.5,-26.6,1.3,0,2018,5,17,19,38,23.72,0.9124,-0.2439,-0.3173,0.0854
0.019,-0.095,-0.023,-6.2,-17.7,0.9,0,2018,5,17,19,38,23.737,0.9116,-0.2484,-0.3163,0.0838
0.022,-0.083,-0.042,-2.7,-7.5,0.4,0,2018,5,17,19,38,23.758,0.911,-0.2514,-0.3158,0.0832
0.025,-0.045,-0.032,-0.4,-2.3,0.9,0,2018,5,17,19,38,23.778,0.9107,-0.253,-0.3156,0.083
0.026,-0.025,-0.019,0.5,-1.1,1.5,0,2018,5,17,19,38,23.814,0.9104,-0.254,-0.3156,0.0829
0.023,0,-0.007,0.4,-0.6,2,0,2018,5,17,19,38,23.835,0.9104,-0.2542,-0.3156,0.0827
0.019,0.002,-0.01,0.7,1,1.9,0,2018,5,17,19,38,23.839,0.9103,-0.2543,-0.3157,0.0825
-0.001,0.002,0.002,0.8,1.2,1.1,0,2018,5,17,19,38,23.859,0.9104,-0.2542,-0.3157,0.0824
0.01,0.04,0.006,0.3,1.3,0.7,0,2018,5,17,19,38,23.879,0.9105,-0.2536,-0.3158,0.0824
0.003,0.026,-0.003,0,0,0,0,2018,5,17,19,38,23.918,0.9106,-0.2532,-0.3158,0.0822
-0.005,0.035,-0.013,0,0,0,0,2018,5,17,19,38,23.939,0.9107,-0.253,-0.3159,0.0821
-0.018,0.01,-0.017,0,0,0,0,2018,5,17,19,38,23.943,0.9106,-0.2532,-0.3161,0.082
-0.021,0.014,-0.008,-0.2,2.2,-0.7,0,2018,5,17,19,38,23.959,0.9105,-0.2532,-0.3162,0.0821
-0.017,0.022,-0.006,-0.1,1.4,-0.6,0,2018,5,17,19,38,23.997,0.9106,-0.2529,-0.3163,0.0822
-0.009,0.025,0.002,0.2,1,0,1023,2018,5,17,19,38,24.018,0.9106,-0.2527,-0.3163,0.0822
-0.004,0.024,0.004,0.3,1.1,0.8,1023,2018,5,17,19,38,24.022,0.9107,-0.2524,-0.3164,0.0821
-0.005,0.027,0.005,0.4,1.1,1.6,1023,2018,5,17,19,38,24.057,0.9108,-0.2519,-0.3165,0.082
-0.005,0.025,-0.009,0.7,0.7,2.5,1023,2018,5,17,19,38,24.079,0.9108,-0.2516,-0.3167,0.0816
0,0.021,-0.005,0.7,0.4,2.8,1023,2018,5,17,19,38,24.083,0.9108,-0.2515,-0.317,0.0812
0.007,0.005,-0.017,1.2,-0.5,3.1,1023,2018,5,17,19,38,24.1,0.9108,-0.2512,-0.3174,0.0807
0.007,0.004,-0.006,1.8,1.7,2.7,1023,2018,5,17,19,38,24.14,0.9106,-0.2513,-0.3178,0.0804
0.011,0.011,0.002,1.4,1.3,2.5,1023,2018,5,17,19,38,24.161,0.9107,-0.2509,-0.318,0.0801
0.013,0.013,0,0.8,0,2.1,1023,2018,5,17,19,38,24.165,0.9106,-0.251,-0.3182,0.0799
0.013,0.013,-0.011,0.3,-0.5,2,1023,2018,5,17,19,38,24.184,0.9106,-0.251,-0.3183,0.0795
0.013,0.004,-0.021,0.3,-0.1,1.7,1023,2018,5,17,19,38,24.204,0.9105,-0.2512,-0.3184,0.0792
0.013,0.004,-0.013,0.9,2,1.3,0,2018,5,17,19,38,24.224,0.9105,-0.2513,-0.3186,0.0791
0.006,0.016,-0.003,0.9,1.8,1.1,0,2018,5,17,19,38,24.238,0.9104,-0.2513,-0.3187,0.0791
0.009,0.012,0.004,0.3,0.5,1.1,0,2018,5,17,19,38,24.279,0.9105,-0.2509,-0.3188,0.079
0.007,0.012,-0.003,-0.2,-0.5,1.2,0,2018,5,17,19,38,24.299,0.9106,-0.2509,-0.3187,0.0787
0.009,0.012,-0.011,-0.3,-0.8,1.4,0,2018,5,17,19,38,24.303,0.9105,-0.251,-0.3187,0.0784
0.002,0.015,-0.007,-0.2,0,1.6,0,2018,5,17,19,38,24.34,0.9105,-0.2512,-0.3187,0.0781
0,0.016,-0.007,-0.2,0,1.9,0,2018,5,17,19,38,24.361,0.9106,-0.2509,-0.3188,0.0778
-0.001,0.023,-0.003,0.2,0.7,2,0,2018,5,17,19,38,24.365,0.9107,-0.2505,-0.319,0.0774
0,0.024,-0.002,0.2,0,2.2,0,2018,5,17,19,38,24.384,0.9107,-0.2503,-0.3191,0.077
0.002,0.021,-0.001,0,-0.6,2,0,2018,5,17,19,38,24.403,0.9108,-0.2501,-0.3192,0.0766
0.006,0.018,-0.002,0.2,-0.6,2,0,2018,5,17,19,38,24.442,0.9108,-0.2501,-0.3193,0.0762
0.004,0.014,-0.013,0.3,-0.4,1.6,0,2018,5,17,19,38,24.446,0.9108,-0.25,-0.3195,0.0759
0.004,0.015,-0.006,0.8,0.3,1.2,0,2018,5,17,19,38,24.462,0.9108,-0.2498,-0.3197,0.0756
0.003,0.016,-0.002,1,-0.1,1.1,0,2018,5,17,19,38,24.483,0.9108,-0.2497,-0.3199,0.0754
0.003,0.016,-0.008,0.8,-0.2,1.1,0,2018,5,17,19,38,24.503,0.9107,-0.2497,-0.32,0.0752
0.003,0.015,-0.005,0.8,-0.7,1,0,2018,5,17,19,38,24.523,0.9106,-0.2498,-0.3202,0.075
0.006,0.006,-0.011,0.6,-0.8,0.9,0,2018,5,17,19,38,24.561,0.9105,-0.25,-0.3204,0.0748
0.009,0.007,-0.006,0.7,0,0.6,0,2018,5,17,19,38,24.58,0.9105,-0.2501,-0.3206,0.0747
0.006,0.012,-0.008,0.6,0.1,0.5,0,2018,5,17,19,38,24.584,0.9104,-0.2501,-0.3207,0.0746
0.011,0.016,-0.009,0.3,-0.5,0.3,0,2018,5,17,19,38,24.605,0.9105,-0.2499,-0.3207,0.0745
0.009,0.015,-0.014,0.2,-0.9,0.3,0,2018,5,17,19,38,24.625,0.9104,-0.25,-0.3208,0.0744
0.009,0.005,-0.008,0.3,-0.8,0.2,0,2018,5,17,19,38,24.644,0.9104,-0.2501,-0.3208,0.0743
0.008,0.002,-0.006,0.6,0,-0.2,0,2018,5,17,19,38,24.665,0.9104,-0.2501,-0.3209,0.0742
0.008,0.01,-0.004,0.7,0.2,-0.5,0,2018,5,17,19,38,24.684,0.9104,-0.25,-0.321,0.0743
0.005,0.014,-0.002,0.7,-0.2,-0.7,0,2018,5,17,19,38,24.723,0.9104,-0.25,-0.321,0.0744
0.009,0.01,-0.005,0.6,-0.8,-0.8,1023,2018,5,17,19,38,24.727,0.9103,-0.25,-0.3211,0.0745
0.008,0.008,-0.007,0.5,-0.6,-0.9,1023,2018,5,17,19,38,24.741,0.9103,-0.2502,-0.3212,0.0746
0.01,0.009,-0.009,0.4,-0.5,-1,1023,2018,5,17,19,38,24.781,0.9102,-0.2504,-0.3212,0.0747
0.003,0.013,-0.011,0.2,0,-1.1,1023,2018,5,17,19,38,24.802,0.9101,-0.2506,-0.3212,0.0749
-0.001,0.017,-0.011,0,0,-1,1023,2018,5,17,19,38,24.806,0.9101,-0.2504,-0.3213,0.075
-0.002,0.018,-0.007,-0.2,-0.6,-1,1023,2018,5,17,19,38,24.825,0.9101,-0.2505,-0.3212,0.0751
-0.003,0.015,-0.011,-0.5,-1,-0.7,1023,2018,5,17,19,38,24.848,0.9101,-0.2506,-0.3212,0.0751
0,0.014,-0.008,-0.8,-1,-0.5,1023,2018,5,17,19,38,24.868,0.9101,-0.2506,-0.3212,0.075
0.002,0.012,-0.007,-0.8,-0.6,-0.7,1023,2018,5,17,19,38,24.889,0.9101,-0.2507,-0.3211,0.075
0.004,0.017,-0.008,-0.8,-0.9,-0.4,1023,2018,5,17,19,38,24.925,0.9101,-0.2508,-0.321,0.0749
0.005,0.018,-0.006,-0.6,-1.7,-0.2,1023,2018,5,17,19,38,24.945,0.9101,-0.251,-0.3209,0.0748
0.012,0.01,-0.009,-0.4,-1.7,0,0,2018,5,17,19,38,24.949,0.91,-0.2514,-0.3208,0.0746
0.007,0.003,-0.009,-0.2,-0.5,-0.1,0,2018,5,17,19,38,24.965,0.91,-0.2516,-0.3208,0.0746
0.009,0.008,-0.007,0,0,0,0,2018,5,17,19,38,24.985,0.91,-0.2515,-0.3207,0.0745
0.004,0.009,-0.011,-0.4,-0.6,-0.2,0,2018,5,17,19,38,25.004,0.9101,-0.2515,-0.3207,0.0745
0.01,0.006,-0.015,-0.5,-1.1,-0.1,0,2018,5,17,19,38,25.044,0.91,-0.2516,-0.3206,0.0745
0.01,0.006,-0.011,-0.2,-0.8,0.1,0,2018,5,17,19,38,25.065,0.91,-0.2517,-0.3206,0.0744
0.009,0.006,-0.013,-0.3,-0.5,-0.1,0,2018,5,17,19,38,25.069,0.91,-0.252,-0.3205,0.0743
0.01,0.005,-0.007,0,0,0,0,2018,5,17,19,38,25.088,0.91,-0.2519,-0.3205,0.0743
0.007,0.012,-0.001,0,0,0,0,2018,5,17,19,38,25.109,0.9101,-0.2518,-0.3204,0.0743
0.009,0.01,-0.007,-0.4,-0.6,-0.3,0,2018,5,17,19,38,25.128,0.9101,-0.2519,-0.3204,0.0743
0.008,0.007,-0.009,-0.3,-0.6,0,0,2018,5,17,19,38,25.167,0.9101,-0.252,-0.3203,0.0742
0.007,0.008,-0.012,0,0,0,0,2018,5,17,19,38,25.171,0.9101,-0.2521,-0.3203,0.0742
0.009,0.008,-0.006,0,0,0,0,2018,5,17,19,38,25.187,0.9101,-0.252,-0.3202,0.0742
0.007,0.009,-0.005,0,0,0,0,2018,5,17,19,38,25.226,0.9101,-0.2519,-0.3202,0.0741
0.006,0.006,-0.009,0,0,0,0,2018,5,17,19,38,25.245,0.9102,-0.2518,-0.3202,0.0741
0.004,0.006,-0.01,0,0,0,0,2018,5,17,19,38,25.249,0.9102,-0.2517,-0.3202,0.0741
0.002,0.006,-0.013,0,0,0,0,2018,5,17,19,38,25.268,0.9102,-0.2517,-0.3202,0.074
0.004,0.006,-0.017,0,0,0,0,2018,5,17,19,38,25.308,0.9102,-0.2516,-0.3203,0.074
0.006,0.004,-0.017,0,0,0,0,2018,5,17,19,38,25.312,0.9102,-0.2516,-0.3204,0.074
0.006,0.006,-0.009,0,0.5,0,0,2018,5,17,19,38,25.329,0.9101,-0.2518,-0.3204,0.074
0.007,0.01,-0.007,0,0,0,0,2018,5,17,19,38,25.365,0.9101,-0.2518,-0.3203,0.074
0.009,0.014,-0.009,-0.8,0.1,0,0,2018,5,17,19,38,25.37,0.9102,-0.2517,-0.3202,0.074
0.01,0.012,-0.007,-0.5,0.1,0.1,0,2018,5,17,19,38,25.387,0.9102,-0.2518,-0.3201,0.0739
0.01,0.013,-0.007,0,0,0,0,2018,5,17,19,38,25.425,0.9102,-0.2519,-0.32,0.0738
0.01,0.011,-0.007,0,0,0,0,2018,5,17,19,38,25.445,0.9103,-0.2517,-0.32,0.0738
0.004,0.011,-0.006,0,0,0,0,2018,5,17,19,38,25.449,0.9104,-0.2516,-0.3199,0.0737
0.002,0.012,-0.002,-0.2,0,0.6,0,2018,5,17,19,38,25.471,0.9104,-0.2515,-0.3199,0.0737
0.004,0.006,0,-0.2,0.1,0.6,0,2018,5,17,19,38,25.49,0.9104,-0.2516,-0.3199,0.0736
0.009,0.01,-0.004,0,0.4,0.7,0,2018,5,17,19,38,25.509,0.9104,-0.2516,-0.3198,0.0735
0.013,0.016,-0.006,0.1,0.5,0.8,0,2018,5,17,19,38,25.531,0.9105,-0.2513,-0.3198,0.0734
0.011,0.017,-0.013,0.2,0,0.8,1023,2018,5,17,19,38,25.553,0.9106,-0.2509,-0.3199,0.0732
0.007,0.013,-0.008,0.2,-0.2,0.8,1023,2018,5,17,19,38,25.573,0.9106,-0.251,-0.32,0.0731
0.003,0.01,-0.015,0,-0.2,0.7,1023,2018,5,17,19,38,25.593,0.9105,-0.2511,-0.32,0.0729
0.001,0.007,-0.018,0,-0.1,0.5,1023,2018,5,17,19,38,25.613,0.9105,-0.2511,-0.3201,0.0728
0,0.005,-0.011,0,0,0,1023,2018,5,17,19,38,25.629,0.9105,-0.2512,-0.3202,0.0727
0.005,0.006,-0.01,0,0,0,1023,2018,5,17,19,38,25.65,0.9105,-0.2511,-0.3202,0.0726
0.005,0.008,-0.006,0,0,0,1023,2018,5,17,19,38,25.671,0.9105,-0.251,-0.3202,0.0726
0.012,0.005,-0.008,-0.2,-0.5,0.3,1023,2018,5,17,19,38,25.692,0.9105,-0.2511,-0.3202,0.0725
0.011,0.009,-0.007,0,0,0,1023,2018,5,17,19,38,25.71,0.9106,-0.251,-0.3201,0.0724
0.013,0.008,-0.011,0,0,0,1023,2018,5,17,19,38,25.73,0.9106,-0.2509,-0.3201,0.0724
0.008,0.011,-0.01,0,0,0,1023,2018,5,17,19,38,25.75,0.9106,-0.2508,-0.3201,0.0724
0.006,0.009,-0.006,0,0,0,1023,2018,5,17,19,38,25.79,0.9106,-0.2507,-0.3201,0.0723
0.005,0.007,-0.005,0,0,0,0,2018,5,17,19,38,25.811,0.9107,-0.2506,-0.3201,0.0723
0.007,0.009,-0.005,0,0,0,0,2018,5,17,19,38,25.815,0.9107,-0.2505,-0.3201,0.0723
0.009,0.007,-0.006,0,0,0,0,2018,5,17,19,38,25.853,0.9108,-0.2504,-0.3201,0.0722
0.009,0.01,-0.007,0,0,0,0,2018,5,17,19,38,25.872,0.9108,-0.2503,-0.3201,0.0722
0.006,0.013,-0.005,0,0,0,0,2018,5,17,19,38,25.876,0.9108,-0.2502,-0.3201,0.0722
0.003,0.013,-0.009,0,0,0,0,2018,5,17,19,38,25.893,0.9109,-0.2501,-0.3201,0.0721
0.004,0.013,-0.013,0,0,0,0,2018,5,17,19,38,25.912,0.9109,-0.2499,-0.3201,0.0721
0.002,0.012,-0.013,0,0,0,0,2018,5,17,19,38,25.93,0.9109,-0.2498,-0.3202,0.072
0.005,0.013,-0.009,0,0,0,0,2018,5,17,19,38,25.97,0.9109,-0.2497,-0.3202,0.072
0.001,0.011,-0.006,0,0,0,0,2018,5,17,19,38,25.989,0.911,-0.2496,-0.3202,0.0719
0.003,0.011,-0.009,-0.5,-0.6,-0.1,0,2018,5,17,19,38,25.993,0.911,-0.2497,-0.3201,0.0719
0.004,0.011,-0.005,-0.5,-0.5,0,0,2018,5,17,19,38,26.03,0.9109,-0.2499,-0.32,0.0718
0.007,0.01,-0.005,-0.5,-0.6,0,0,2018,5,17,19,38,26.051,0.9109,-0.2504,-0.3199,0.0718
0.008,0.008,-0.01,0,0,0,0,2018,5,17,19,38,26.055,0.9109,-0.2505,-0.3198,0.0717
0.007,0.006,-0.011,-0.3,-0.5,-0.1,0,2018,5,17,19,38,26.074,0.9109,-0.2505,-0.3198,0.0717
0.007,0.005,-0.013,0,0,0,0,2018,5,17,19,38,26.092,0.9108,-0.2507,-0.3197,0.0717
0.008,0.007,-0.013,0,0,0,0,2018,5,17,19,38,26.112,0.9109,-0.2506,-0.3197,0.0716
0.009,0.002,-0.009,0,0,0,0,2018,5,17,19,38,26.132,0.9109,-0.2506,-0.3197,0.0716
0.008,0.009,-0.01,0,0,0,0,2018,5,17,19,38,26.171,0.9109,-0.2505,-0.3197,0.0716
0.007,0.008,-0.008,0,0,0,0,2018,5,17,19,38,26.192,0.9109,-0.2504,-0.3197,0.0716
0.007,0.011,-0.006,0,-0.1,-0.5,0,2018,5,17,19,38,26.196,0.9109,-0.2505,-0.3197,0.0716
0.008,0.01,-0.006,0.1,-0.2,-0.6,0,2018,5,17,19,38,26.232,0.9109,-0.2506,-0.3196,0.0716
0.004,0.006,0.002,0,0,0,0,2018,5,17,19,38,26.254,0.9109,-0.2506,-0.3196,0.0716
0.004,0.001,-0.009,0,0,0,0,2018,5,17,19,38,26.258,0.911,-0.2505,-0.3196,0.0716
0.011,0.005,-0.011,0,0,0,0,2018,5,17,19,38,26.278,0.911,-0.2504,-0.3196,0.0716
0.009,0.009,-0.011,0,0,0,0,2018,5,17,19,38,26.297,0.911,-0.2503,-0.3196,0.0715
0.009,0.009,-0.01,-0.3,-0.6,-0.3,0,2018,5,17,19,38,26.312,0.911,-0.2503,-0.3195,0.0715
0.009,0.006,-0.015,0,0,0,1023,2018,5,17,19,38,26.35,0.911,-0.2503,-0.3196,0.0715
0.006,0.006,-0.014,-0.2,-0.1,-0.5,1023,2018,5,17,19,38,26.371,0.911,-0.2505,-0.3195,0.0715
0.002,0.008,-0.003,-0.4,-0.2,-0.5,1023,2018,5,17,19,38,26.376,0.911,-0.2505,-0.3195,0.0716
0.004,0.006,-0.015,-0.6,-0.6,-0.4,1023,2018,5,17,19,38,26.395,0.911,-0.2507,-0.3194,0.0716
0,-0.01,-0.025,-0.3,-1.1,-0.8,1023,2018,5,17,19,38,26.414,0.9108,-0.2513,-0.3194,0.0716
0.006,-0.001,-0.046,1,-0.3,-2.1,1023,2018,5,17,19,38,26.453,0.9105,-0.252,-0.3196,0.0718
-0.022,-0.051,-0.039,1.3,4.3,-5,1023,2018,5,17,19,38,26.475,0.9102,-0.2526,-0.3199,0.0726
-0.03,-0.035,-0.021,1,6.8,-7.7,1023,2018,5,17,19,38,26.479,0.9101,-0.2525,-0.32,0.074
-0.028,-0.023,-0.005,0,8.6,-10.6,1023,2018,5,17,19,38,26.498,0.9101,-0.2522,-0.3198,0.076
-0.032,-0.017,0.002,-0.9,11.6,-13.1,1023,2018,5,17,19,38,26.516,0.9102,-0.2516,-0.3192,0.0784
-0.031,-0.01,-0.007,-1.1,14.3,-15.4,0,2018,5,17,19,38,26.557,0.9105,-0.2505,-0.3185,0.0813
-0.005,0.03,-0.017,-0.9,12.9,-16.4,0,2018,5,17,19,38,26.578,0.911,-0.249,-0.3176,0.0844
-0.033,0.032,-0.011,0.7,15.9,-18.2,0,2018,5,17,19,38,26.582,0.9113,-0.2476,-0.3169,0.0879
-0.037,0.056,0,1.9,10.8,-18.9,0,2018,5,17,19,38,26.595,0.9115,-0.2459,-0.3165,0.0914
-0.011,0.077,0.005,3,5.9,-19.1,0,2018,5,17,19,38,26.633,0.9116,-0.2449,-0.3161,0.0947
0.024,0.099,0.003,4.4,-0.9,-18.5,0,2018,5,17,19,38,26.653,0.9113,-0.245,-0.3158,0.0978
0.063,0.096,0,6.5,-7.2,-17.3,0,2018,5,17,19,38,26.657,0.9109,-0.2458,-0.3156,0.1005
0.089,0.094,-0.008,9.4,-12,-14.9,0,2018,5,17,19,38,26.696,0.9101,-0.2474,-0.3159,0.1028
0.108,0.084,-0.01,13,-18.2,-11,0,2018,5,17,19,38,26.717,0.909,-0.2495,-0.3167,0.1045
0.132,0.058,-0.012,17.3,-25.8,-6.4,0,2018,5,17,19,38,26.721,0.9074,-0.2529,-0.3182,0.1055
0.137,0.011,-0.011,21.4,-31.6,-1.1,0,2018,5,17,19,38,26.739,0.9053,-0.2574,-0.3207,0.1056
0.137,-0.045,-0.005,26.1,-28.6,2.5,0,2018,5,17,19,38,26.777,0.9026,-0.2621,-0.3247,0.105
0.133,-0.076,0.012,31.4,-19,5.2,0,2018,5,17,19,38,26.798,0.8999,-0.2652,-0.3299,0.1043
0.122,-0.014,0.04,35.5,-16.9,8.9,0,2018,5,17,19,38,26.802,0.8974,-0.267,-0.3353,0.104
0.099,0.011,0.041,39.6,-24.1,14.7,0,2018,5,17,19,38,26.817,0.8947,-0.2691,-0.3411,0.1031
0.085,-0.004,0.05,44.7,-27.2,20.8,0,2018,5,17,19,38,26.837,0.8915,-0.2717,-0.348,0.101
0.084,0.015,0.046,50.2,-25.9,25.9,0,2018,5,17,19,38,26.857,0.888,-0.2735,-0.3561,0.0983
0.095,0.007,0.051,56.1,-24.6,29.9,0,2018,5,17,19,38,26.877,0.8844,-0.2745,-0.3651,0.0951
0.082,-0.036,0.046,63.3,-24,34.1,0,2018,5,17,19,38,26.898,0.8802,-0.2755,-0.3753,0.0918
0.036,-0.062,0.026,73.2,-20.9,38.5,0,2018,5,17,19,38,26.922,0.8753,-0.2757,-0.3872,0.0884
-0.007,-0.069,0.09,82.5,-23.6,41,0,2018,5,17,19,38,26.941,0.8697,-0.275,-0.4008,0.0847
0.045,-0.026,0.075,90.8,-23.6,41.4,0,2018,5,17,19,38,26.961,0.8633,-0.2743,-0.4156,0.0812
0.116,0.055,0.024,101.3,-27.7,40.6,0,2018,5,17,19,38,26.982,0.8559,-0.2738,-0.4315,0.078
0.155,0.057,0.042,111.4,-30.1,43.5,0,2018,5,17,19,38,27.002,0.847,-0.2736,-0.4494,0.0747
0.128,0.001,0.128,118.6,-26.1,46.2,0,2018,5,17,19,38,27.021,0.837,-0.2727,-0.4689,0.0713
0.125,-0.039,0.199,122.1,-24.5,45.1,0,2018,5,17,19,38,27.037,0.8263,-0.2707,-0.4889,0.0683
0.081,-0.158,0.198,120.9,-24.1,39.3,0,2018,5,17,19,38,27.076,0.815,-0.2692,-0.5087,0.0658
-0.034,-0.262,0.199,114.4,-11.5,29.2,0,2018,5,17,19,38,27.096,0.8038,-0.2675,-0.5272,0.0648
-0.037,0.095,0.034,103.2,-13.3,28,1023,2018,5,17,19,38,27.1,0.7939,-0.2645,-0.5434,0.0653
0.028,0.156,-0.23,99.7,-34.5,38.3,1023,2018,5,17,19,38,27.137,0.7833,-0.2638,-0.5592,0.0628
-0.103,-0.216,-0.071,97.3,-26.3,44.2,1023,2018,5,17,19,38,27.159,0.7724,-0.2632,-0.575,0.0581
-0.143,-0.195,0.047,89.8,0.7,41.1,1023,2018,5,17,19,38,27.163,0.7628,-0.2597,-0.5893,0.0562
-0.046,-0.031,-0.03,87.6,-0.2,45.8,1023,2018,5,17,19,38,27.181,0.754,-0.2546,-0.6029,0.0548
-0.039,-0.054,0.079,87.3,-4.2,48.5,1023,2018,5,17,19,38,27.22,0.7451,-0.2489,-0.6165,0.052
-0.034,-0.013,0.166,81.7,-3,51.6,1023,2018,5,17,19,38,27.239,0.7368,-0.2429,-0.6289,0.0489
-0.073,-0.034,0.201,72.5,-2.5,55,1023,2018,5,17,19,38,27.244,0.7286,-0.2367,-0.6411,0.045
-0.126,-0.031,0.137,64.4,-1.7,57.9,1023,2018,5,17,19,38,27.263,0.7217,-0.2299,-0.6516,0.0401
-0.153,-0.026,-0.01,57.8,15.6,60.4,1023,2018,5,17,19,38,27.282,0.7156,-0.222,-0.6613,0.0356
-0.194,-0.039,-0.08,55.7,56.1,63.7,1023,2018,5,17,19,38,27.301,0.7104,-0.2099,-0.6708,0.034
-0.313,-0.089,-0.025,52.8,93,64.2,1023,2018,5,17,19,38,27.321,0.7067,-0.1923,-0.6798,0.0368
-0.355,-0.025,0.003,45.7,115.5,63.2,1023,2018,5,17,19,38,27.343,0.7046,-0.1713,-0.6872,0.043
-0.312,0.027,-0.004,39.5,111.3,64.6,0,2018,5,17,19,38,27.363,0.7033,-0.148,-0.6934,0.0494
-0.35,-0.158,0.023,32.7,107.9,59.3,0,2018,5,17,19,38,27.383,0.7021,-0.1269,-0.6984,0.0556
-0.317,-0.233,0.088,23.5,121.4,51,0,2018,5,17,19,38,27.422,0.7018,-0.1062,-0.7014,0.0641
-0.23,-0.172,0.162,7.1,120.1,40.5,0,2018,5,17,19,38,27.427,0.7025,-0.0857,-0.7025,0.074
-0.094,-0.107,0.175,-9.7,105.8,29.7,0,2018,5,17,19,38,27.445,0.7048,-0.0674,-0.7012,0.0835
0.009,-0.059,0.141,-23,80.5,21.1,0,2018,5,17,19,38,27.463,0.7082,-0.0531,-0.6979,0.0916
0.071,-0.014,0.103,-30.9,55,14.5,0,2018,5,17,19,38,27.481,0.713,-0.0432,-0.6929,0.0976
0.095,0.019,0.1,-35.6,26,12.1,0,2018,5,17,19,38,27.52,0.7182,-0.0371,-0.6874,0.1007
0.127,0.002,0.083,-39.1,-6.2,11.9,0,2018,5,17,19,38,27.538,0.7238,-0.0353,-0.6817,0.1002
0.158,0.001,0.049,-41.9,-27,17.2,0,2018,5,17,19,38,27.541,0.7292,-0.0366,-0.6764,0.0961
0.191,-0.037,0.026,-44.6,-40.8,22.5,0,2018,5,17,19,38,27.581,0.7348,-0.0397,-0.671,0.0895
0.226,-0.089,-0.014,-46.1,-44.4,26.9,0,2018,5,17,19,38,27.6,0.7403,-0.0439,-0.6657,0.0817
0.253,-0.136,-0.052,-47.3,-39.1,31.7,0,2018,5,17,19,38,27.604,0.7458,-0.047,-0.6604,0.073
0.285,-0.191,-0.084,-47.1,-24.7,34.4,0,2018,5,17,19,38,27.624,0.7513,-0.0481,-0.6549,0.0645
0.316,-0.235,-0.108,-45,-1.1,36.4,0,2018,5,17,19,38,27.645,0.7568,-0.0465,-0.6493,0.0581
0.317,-0.27,-0.104,-42.7,30.5,36.5,0,2018,5,17,19,38,27.666,0.7622,-0.0411,-0.6436,0.0547
0.289,-0.294,-0.1,-41.3,64,36.5,0,2018,5,17,19,38,27.684,0.7675,-0.0314,-0.6378,0.0551
0.225,-0.313,-0.109,-40.5,94.3,37,0,2018,5,17,19,38,27.705,0.7727,-0.0173,-0.6316,0.059
0.132,-0.327,-0.119,-41.1,121.2,39,0,2018,5,17,19,38,27.727,0.7778,0.0008,-0.625,0.0659
0.009,-0.333,-0.12,-43,137.9,44.1,0,2018,5,17,19,38,27.742,0.7826,0.0225,-0.6175,0.0746
-0.156,-0.337,-0.137,-44.7,140.4,51.9,0,2018,5,17,19,38,27.78,0.7871,0.046,-0.6093,0.0835
-0.382,-0.345,-0.156,-44.6,127,61.5,0,2018,5,17,19,38,27.801,0.7914,0.0694,-0.6005,0.0904
-0.492,-0.38,-0.13,-43.5,103.5,66.3,0,2018,5,17,19,38,27.805,0.7954,0.091,-0.5916,0.0942
-0.373,-0.383,-0.081,-43.9,68.8,57.7,0,2018,5,17,19,38,27.843,0.7995,0.1084,-0.583,0.0952
-0.145,-0.379,-0.046,-45.1,25.2,34.1,0,2018,5,17,19,38,27.847,0.8038,0.1185,-0.5751,0.0943
0.087,-0.373,-0.043,-47.2,-11.3,-1,0,2018,5,17,19,38,27.863,0.8086,0.1199,-0.5682,0.0935
0.245,-0.34,-0.073,-49.2,-23.6,-38.9,0,2018,5,17,19,38,27.903,0.8135,0.1142,-0.5621,0.0955
0.346,-0.316,-0.159,-48.3,-12.6,-72.4,0,2018,5,17,19,38,27.923,0.8177,0.1048,-0.5565,0.1027
0.378,-0.313,-0.258,-43.9,10.2,-100.3,1023,2018,5,17,19,38,27.927,0.8205,0.095,-0.5514,0.116
0.286,-0.294,-0.35,-36.6,40.8,-120.5,1023,2018,5,17,19,38,27.948,0.8216,0.087,-0.5468,0.1351
0.08,-0.256,-0.398,-26.9,68.9,-130,1023,2018,5,17,19,38,27.968,0.8206,0.082,-0.5427,0.1591
-0.15,-0.229,-0.392,-16.7,92.8,-129.6,1023,2018,5,17,19,38,27.983,0.8175,0.0806,-0.539,0.1858
-0.359,-0.208,-0.299,-10.2,116.4,-118,1023,2018,5,17,19,38,28.023,0.8129,0.0836,-0.5352,0.2136
-0.353,-0.16,-0.174,-11.5,128.4,-101.1,1023,2018,5,17,19,38,28.045,0.8076,0.0905,-0.5305,0.2408
-0.205,-0.085,-0.126,-16.3,112.2,-87.9,1023,2018,5,17,19,38,28.05,0.8028,0.0984,-0.5246,0.2655
-0.059,-0.054,-0.158,-18.9,74.6,-82.8,1023,2018,5,17,19,38,28.067,0.7987,0.1029,-0.5191,0.2862
0.053,0.002,-0.244,-14.8,35.5,-85.2,1023,2018,5,17,19,38,28.104,0.795,0.1019,-0.5154,0.303
0.106,0.034,-0.315,-4.4,4.7,-91.4,0,2018,5,17,19,38,28.125,0.7908,0.096,-0.5146,0.317
0.106,0.041,-0.354,9.8,-6.1,-97.7,0,2018,5,17,19,38,28.129,0.7852,0.0873,-0.5167,0.3297
0.089,0.025,-0.365,25.3,1.9,-103.5,0,2018,5,17,19,38,28.149,0.7777,0.0788,-0.5208,0.343
0.07,-0.01,-0.364,40.2,26.1,-107.1,0,2018,5,17,19,38,28.168,0.768,0.0731,-0.5259,0.358
0.067,-0.009,-0.357,54,62.6,-107.5,0,2018,5,17,19,38,28.206,0.7561,0.0722,-0.5307,0.3759
0.077,0.025,-0.332,67.1,97.4,-104.4,0,2018,5,17,19,38,28.227,0.7422,0.0772,-0.5346,0.3965
0.091,0.07,-0.304,78.8,122.7,-98.8,0,2018,5,17,19,38,28.231,0.7265,0.0873,-0.5375,0.419
0.094,0.088,-0.269,88.6,140.8,-91.4,0,2018,5,17,19,38,28.248,0.7092,0.1014,-0.5396,0.442
0.074,0.105,-0.232,97.1,154.4,-83,0,2018,5,17,19,38,28.267,0.6906,0.119,-0.541,0.4648
0.007,0.09,-0.199,104.3,164.8,-74.8,0,2018,5,17,19,38,28.286,0.6707,0.1392,-0.5416,0.487
-0.107,0.052,-0.173,109.6,177.5,-67,0,2018,5,17,19,38,28.307,0.6499,0.1618,-0.541,0.5085
-0.219,0.01,-0.131,112.4,196.8,-59.4,0,2018,5,17,19,38,28.347,0.6279,0.187,-0.5385,0.5298
-0.293,-0.01,-0.103,111.6,220.2,-53.9,0,2018,5,17,19,38,28.366,0.6047,0.2149,-0.5328,0.5515
-0.383,-0.021,-0.092,108.4,241.4,-50.2,0,2018,5,17,19,38,28.37,0.5801,0.2449,-0.5235,0.5738
-0.45,-0.014,-0.068,102.3,259.6,-48.3,0,2018,5,17,19,38,28.39,0.5541,0.2761,-0.5105,0.5966
-0.412,0.032,-0.033,91.8,265.7,-50,0,2018,5,17,19,38,28.417,0.5269,0.3071,-0.4941,0.6195
-0.262,0.104,-0.014,78,254.6,-54.3,0,2018,5,17,19,38,28.44,0.4991,0.3356,-0.4759,0.6416
-0.072,0.173,-0.038,63.5,224.4,-57.8,0,2018,5,17,19,38,28.445,0.4721,0.3596,-0.4581,0.6616
0.08,0.212,-0.088,51.9,184.5,-57.7,0,2018,5,17,19,38,28.484,0.4475,0.3783,-0.4426,0.6787
0.151,0.211,-0.143,45.2,144.3,-51.4,0,2018,5,17,19,38,28.505,0.4261,0.3924,-0.4305,0.692
0.152,0.178,-0.158,41.8,108.8,-38.9,0,2018,5,17,19,38,28.509,0.4085,0.4035,-0.4217,0.7016
0.115,0.123,-0.15,39.3,82,-22.7,0,2018,5,17,19,38,28.529,0.395,0.4129,-0.4152,0.7078
0.089,0.065,-0.121,37,64.7,-1.6,0,2018,5,17,19,38,28.55,0.3854,0.4224,-0.4099,0.7105
0.058,-0.014,-0.087,33.8,57.5,20.2,0,2018,5,17,19,38,28.569,0.3793,0.4321,-0.4046,0.711
0.028,-0.088,-0.059,28.9,58.2,39.9,0,2018,5,17,19,38,28.59,0.376,0.4421,-0.398,0.7104
-0.012,-0.17,-0.057,23.2,65,54.9,0,2018,5,17,19,38,28.609,0.3752,0.4525,-0.3887,0.7094
-0.041,-0.218,-0.09,18,74.7,64.6,0,2018,5,17,19,38,28.648,0.3757,0.4636,-0.3766,0.7085
-0.068,-0.253,-0.134,14.7,84.3,69,0,2018,5,17,19,38,28.652,0.3763,0.4752,-0.3623,0.7079
-0.079,-0.268,-0.152,13.1,92.2,69.1,1023,2018,5,17,19,38,28.668,0.3768,0.487,-0.3463,0.7077
-0.092,-0.289,-0.139,12.4,96.6,65.8,1023,2018,5,17,19,38,28.707,0.3763,0.4987,-0.3296,0.7077
-0.103,-0.307,-0.109,10.4,97.1,57.7,1023,2018,5,17,19,38,28.728,0.3748,0.5099,-0.3128,0.7081
-0.106,-0.315,-0.127,7.7,91.6,46.4,1023,2018,5,17,19,38,28.732,0.3723,0.5199,-0.297,0.709
-0.092,-0.311,-0.163,6.8,80.2,33.8,1023,2018,5,17,19,38,28.75,0.3691,0.5284,-0.2831,0.7101
-0.074,-0.329,-0.161,7.5,69,20.2,1023,2018,5,17,19,38,28.787,0.3652,0.5353,-0.2719,0.7113
-0.082,-0.33,-0.154,9.3,60.1,7.2,1023,2018,5,17,19,38,28.809,0.3605,0.541,-0.2632,0.7127
-0.094,-0.345,-0.123,10.7,51.3,-4.3,1023,2018,5,17,19,38,28.813,0.3549,0.5458,-0.2568,0.7141
-0.047,-0.357,-0.099,11.1,48.8,-15.5,1023,2018,5,17,19,38,28.851,0.3487,0.5496,-0.2522,0.7159
-0.065,-0.357,-0.092,12.4,49.1,-26.3,1023,2018,5,17,19,38,28.872,0.341,0.553,-0.2489,0.7182
-0.124,-0.365,-0.086,14.8,58.4,-36.1,0,2018,5,17,19,38,28.876,0.3315,0.5564,-0.246,0.721
-0.182,-0.352,-0.045,16.9,75.5,-45.4,0,2018,5,17,19,38,28.895,0.3193,0.5604,-0.2424,0.7246
-0.175,-0.31,-0.003,15.3,92.7,-55.4,0,2018,5,17,19,38,28.913,0.3041,0.5648,-0.2374,0.7293
-0.063,-0.262,0.014,11.3,102.1,-68.8,0,2018,5,17,19,38,28.934,0.2861,0.569,-0.2316,0.7352
0.057,-0.185,0.009,5.8,109.7,-84.4,0,2018,5,17,19,38,28.95,0.2655,0.572,-0.2258,0.7424
0.127,-0.121,0.005,-0.3,108.5,-101.7,0,2018,5,17,19,38,28.985,0.2426,0.5735,-0.2209,0.7505
0.131,-0.037,-0.01,-6.6,100.5,-117.3,0,2018,5,17,19,38,29.005,0.2173,0.5725,-0.2186,0.7596
0.081,0.034,-0.032,-11.4,84.6,-128.8,0,2018,5,17,19,38,29.01,0.1918,0.5698,-0.2184,0.7685
0.004,0.084,-0.05,-14.9,64.2,-133.9,0,2018,5,17,19,38,29.05,0.1676,0.5656,-0.2208,0.7765
-0.066,0.091,0.039,-17.9,50.9,-131.2,0,2018,5,17,19,38,29.07,0.1451,0.5604,-0.2253,0.7836
-0.131,-0.092,-0.084,-22.7,117.8,-124.6,0,2018,5,17,19,38,29.074,0.1206,0.5541,-0.2264,0.7918
-0.062,0.735,-0.084,-20.5,88,-94.4,0,2018,5,17,19,38,29.093,0.0947,0.5492,-0.2198,0.8006
-0.018,0.276,-0.095,-16.4,11.9,-76.2,0,2018,5,17,19,38,29.129,0.0798,0.5438,-0.2216,0.8053
-0.034,0.228,-0.037,-13,-15.3,-66.4,0,2018,5,17,19,38,29.149,0.0705,0.5391,-0.2285,0.8075
0,0.177,-0.019,-12.4,-49.1,-57.9,0,2018,5,17,19,38,29.154,0.0655,0.5343,-0.2388,0.8081
0.029,0.14,-0.036,-7.8,-68.5,-53.5,0,2018,5,17,19,38,29.173,0.0641,0.53,-0.2521,0.807
0.047,0.146,-0.072,-0.8,-58.6,-51.7,0,2018,5,17,19,38,29.194,0.0637,0.5268,-0.2655,0.8048
0.04,0.161,-0.086,8.1,-23.9,-50.5,0,2018,5,17,19,38,29.231,0.0603,0.5245,-0.276,0.803
0.019,0.164,-0.074,17.6,17.4,-49.7,0,2018,5,17,19,38,29.251,0.0529,0.5239,-0.281,0.8022
0.013,0.203,-0.056,25.4,49.7,-48.3,0,2018,5,17,19,38,29.255,0.0417,0.5249,-0.2807,0.8024
0,0.246,-0.028,31.6,69.8,-44.7,0,2018,5,17,19,38,29.275,0.028,0.527,-0.2765,0.803
-0.028,0.289,-0.011,36.9,74.8,-37.5,0,2018,5,17,19,38,29.313,0.0138,0.5301,-0.2701,0.8035
-0.079,0.3,0.009,42.2,70.5,-25.4,0,2018,5,17,19,38,29.332,0.0008,0.5343,-0.2628,0.8033
-0.164,0.287,0.031,46.2,65.2,-9.4,0,2018,5,17,19,38,29.337,-0.0099,0.5397,-0.255,0.8022
-0.232,0.237,0.06,48,66,10.4,0,2018,5,17,19,38,29.355,-0.018,0.5462,-0.2457,0.8005
-0.203,0.193,0.1,45.7,71.6,28.5,0,2018,5,17,19,38,29.373,-0.0237,0.5534,-0.2339,0.7989
-0.081,0.184,0.107,39.2,75.3,40,0,2018,5,17,19,38,29.392,-0.0277,0.5604,-0.22,0.7979
0.049,0.183,0.086,30.3,71.7,43.8,0,2018,5,17,19,38,29.415,-0.0304,0.5664,-0.2053,0.7975
0.172,0.212,0.047,22.1,59.6,43.1,0,2018,5,17,19,38,29.435,-0.0318,0.5711,-0.1916,0.7974
0.218,0.236,0.003,16.4,35.5,42.1,1023,2018,5,17,19,38,29.455,-0.0312,0.5749,-0.1806,0.7973
0.178,0.204,-0.021,12.7,10.6,42.8,1023,2018,5,17,19,38,29.475,-0.028,0.5781,-0.1733,0.7968
0.076,0.14,-0.034,10.9,-5.2,45.6,1023,2018,5,17,19,38,29.496,-0.0219,0.5812,-0.1679,0.7959
-0.045,0.086,-0.002,9,-19.8,50.5,1023,2018,5,17,19,38,29.514,-0.0136,0.5843,-0.164,0.7946
-0.172,0.022,0.026,6.6,-32,57.4,1023,2018,5,17,19,38,29.535,-0.0033,0.5872,-0.1617,0.793
-0.239,-0.027,0.051,3.8,-42,64.5,1023,2018,5,17,19,38,29.573,0.009,0.5898,-0.1603,0.7913
-0.245,-0.065,0.065,1,-51.6,68.5,1023,2018,5,17,19,38,29.593,0.023,0.5919,-0.16,0.7895
