ax,ay,az,dpitch,droll,dyaw,heart,time_1,time_2,time_3,time_4,time_5,time_6,w,x,y,z
-0.147,-0.029,0.069,-20.5,-110.2,-35.7,1023,2018,5,17,19,22,31.987,0.8343,-0.2616,-0.3968,0.2793
-0.124,-0.07,0.025,-22.9,-147.1,-43.9,1023,2018,5,17,19,22,32.005,0.8278,-0.2836,-0.3983,0.2748
-0.114,-0.233,-0.01,-25,-181.6,-57.3,1023,2018,5,17,19,22,32.019,0.8179,-0.3128,-0.4009,0.2688
-0.062,-0.512,0.032,-27.2,-136.8,-74.2,1023,2018,5,17,19,22,32.039,0.8073,-0.3419,-0.4011,0.2651
-0.073,-0.538,0.16,-31.8,-77.6,-95,1023,2018,5,17,19,22,32.059,0.7991,-0.3636,-0.3966,0.268
-0.03,-0.51,0.19,-36.5,-63.6,-120.5,1023,2018,5,17,19,22,32.099,0.792,-0.3819,-0.3878,0.2763
0.008,-0.516,0.161,-39.2,-81,-144.3,1023,2018,5,17,19,22,32.119,0.7827,-0.4033,-0.3765,0.2877
0.025,-0.579,0.155,-39.1,-76.9,-168.9,1023,2018,5,17,19,22,32.124,0.7713,-0.4265,-0.3639,0.301
-0.022,-0.61,0.148,-41.1,-32.4,-193.1,1023,2018,5,17,19,22,32.144,0.7594,-0.4479,-0.3476,0.319
-0.013,-0.473,0.151,-44.5,-3.5,-217.7,1023,2018,5,17,19,22,32.164,0.7487,-0.4647,-0.326,0.3421
-0.083,-0.442,0.117,-45.8,-13.4,-244.6,1023,2018,5,17,19,22,32.183,0.7361,-0.4812,-0.3014,0.368
-0.099,-0.501,0.064,-45,-7,-267.9,1023,2018,5,17,19,22,32.204,0.7199,-0.4993,-0.2752,0.3957
-0.15,-0.294,0.067,-43.5,32.5,-284.7,0,2018,5,17,19,22,32.241,0.7032,-0.5133,-0.245,0.4264
-0.218,-0.086,0.006,-42.8,42.2,-301.8,0,2018,5,17,19,22,32.261,0.6859,-0.5233,-0.2099,0.4598
-0.184,0.031,-0.071,-38.1,21.1,-309.9,0,2018,5,17,19,22,32.265,0.6646,-0.5333,-0.1743,0.4933
-0.164,0.115,-0.142,-26.5,14.9,-314.4,0,2018,5,17,19,22,32.287,0.6391,-0.5429,-0.1398,0.5264
-0.224,0.105,-0.159,-16,38,-310,0,2018,5,17,19,22,32.307,0.6123,-0.5488,-0.1054,0.5591
-0.248,0.264,-0.162,-7.3,61.6,-302.4,0,2018,5,17,19,22,32.323,0.5868,-0.5492,-0.0698,0.5907
-0.271,0.333,-0.152,0.8,38,-292,0,2018,5,17,19,22,32.359,0.5606,-0.5467,-0.0355,0.6208
-0.242,0.346,-0.192,8.9,-2.4,-276.6,0,2018,5,17,19,22,32.379,0.5304,-0.5453,-0.0066,0.6489
-0.172,0.25,-0.149,18.5,-24.3,-254.6,0,2018,5,17,19,22,32.384,0.4983,-0.5449,0.0154,0.6741
-0.206,0.208,-0.071,24.6,-19,-233.5,0,2018,5,17,19,22,32.406,0.4666,-0.5429,0.0347,0.6972
-0.147,0.152,0.01,24.4,-22.3,-217.4,0,2018,5,17,19,22,32.426,0.4372,-0.5394,0.0516,0.7177
-0.144,0.127,-0.021,21.8,-29.1,-202.2,0,2018,5,17,19,22,32.448,0.4084,-0.536,0.0664,0.7357
-0.149,0.187,-0.091,23.2,-48.1,-187.3,0,2018,5,17,19,22,32.467,0.3796,-0.5331,0.0784,0.7519
-0.19,0.156,-0.112,25.6,-45.6,-167.9,0,2018,5,17,19,22,32.488,0.3515,-0.5304,0.0871,0.7664
-0.194,0.129,-0.067,25.5,-24.7,-146.9,0,2018,5,17,19,22,32.509,0.3271,-0.5262,0.0963,0.7789
-0.261,0.123,-0.022,21.2,-16.4,-125.9,0,2018,5,17,19,22,32.524,0.3072,-0.5214,0.1052,0.789
-0.285,0.079,-0.045,15.2,-28.7,-103.9,0,2018,5,17,19,22,32.546,0.2896,-0.5179,0.1115,0.7971
-0.375,-0.035,-0.119,12.4,-35,-82.5,0,2018,5,17,19,22,32.566,0.274,-0.5152,0.1143,0.8039
-0.433,-0.107,-0.146,11.4,-12.7,-67.7,0,2018,5,17,19,22,32.604,0.2615,-0.5131,0.1171,0.809
-0.56,0.081,-0.09,8.4,-11.4,-49.3,0,2018,5,17,19,22,32.624,0.2527,-0.5107,0.1208,0.8127
-0.569,0.273,0.056,-3.9,-69,-17.1,0,2018,5,17,19,22,32.628,0.2444,-0.5115,0.1178,0.8152
-0.544,-0.109,-0.149,-10.7,-49.2,6.9,0,2018,5,17,19,22,32.648,0.2377,-0.5155,0.1089,0.8159
-0.402,-0.128,-0.243,-5.3,1.2,18,0,2018,5,17,19,22,32.668,0.2378,-0.5178,0.1053,0.8149
-0.264,-0.088,-0.186,2.2,9.3,23.9,0,2018,5,17,19,22,32.688,0.2415,-0.518,0.1046,0.8138
-0.128,0.041,-0.118,6.3,-15.7,29.6,1023,2018,5,17,19,22,32.726,0.2453,-0.5183,0.1017,0.8128
0.052,-0.023,-0.004,9.1,-20.8,31.3,1023,2018,5,17,19,22,32.747,0.2478,-0.5191,0.0954,0.8123
0.207,0.104,0.206,6.7,-2.7,29.6,1023,2018,5,17,19,22,32.751,0.2512,-0.5186,0.091,0.8121
0.331,0.16,0.244,1.4,4,26.1,1023,2018,5,17,19,22,32.766,0.2553,-0.5184,0.0884,0.8112
0.4,0.167,0.241,-2.4,0,20.4,1023,2018,5,17,19,22,32.785,0.2589,-0.5187,0.0868,0.81
0.387,0.066,0.203,-4.2,-11.6,11.7,1023,2018,5,17,19,22,32.805,0.2603,-0.5195,0.0852,0.8093
0.298,-0.059,0.122,-5,-10.8,0.8,1023,2018,5,17,19,22,32.827,0.2597,-0.5209,0.0833,0.8088
0.174,-0.065,0.095,-5.8,1,-8.5,1023,2018,5,17,19,22,32.849,0.2587,-0.5219,0.0831,0.8084
0.085,0.022,0.071,-8.8,-1.6,-12.1,1023,2018,5,17,19,22,32.868,0.2573,-0.5226,0.0846,0.8083
0.006,-0.051,0.003,-11,-22.6,-14.8,1023,2018,5,17,19,22,32.889,0.254,-0.5243,0.0845,0.8082
-0.053,-0.033,-0.042,-11.9,-34.2,-15.8,1023,2018,5,17,19,22,32.909,0.2492,-0.5271,0.0821,0.8082
-0.143,-0.104,-0.13,-10.3,-31.6,-17.9,1023,2018,5,17,19,22,32.928,0.2436,-0.5302,0.0789,0.8082
-0.22,-0.062,-0.177,-5.5,-16.6,-18.8,1023,2018,5,17,19,22,32.969,0.2387,-0.5321,0.0776,0.8085
-0.275,-0.068,-0.24,1.4,-4.4,-17.1,1023,2018,5,17,19,22,32.988,0.2352,-0.5326,0.0779,0.8092
-0.294,0,-0.254,8.6,12.1,-11.1,1023,2018,5,17,19,22,32.992,0.2337,-0.5314,0.0797,0.8102
-0.309,0.078,-0.206,13.2,17.7,-0.6,0,2018,5,17,19,22,33.012,0.2344,-0.5296,0.0823,0.811
-0.257,0.1,-0.135,14.1,4.9,11.7,0,2018,5,17,19,22,33.032,0.236,-0.5274,0.0836,0.8118
-0.176,0.094,-0.055,12.1,-7.8,23,0,2018,5,17,19,22,33.049,0.2379,-0.5257,0.0819,0.8125
-0.058,-0.017,0.015,8.8,6,28.7,0,2018,5,17,19,22,33.069,0.2415,-0.5243,0.0787,0.8127
0.133,0.013,0.103,6.3,28.9,27.1,0,2018,5,17,19,22,33.088,0.2476,-0.5226,0.0784,0.812
0.273,0.093,0.212,1.8,18.2,21.1,0,2018,5,17,19,22,33.109,0.2531,-0.5207,0.0803,0.8113
0.365,0.089,0.283,-3.4,-0.5,13,0,2018,5,17,19,22,33.129,0.256,-0.5203,0.0803,0.8106
0.368,0.042,0.267,-8.1,-6,2.5,0,2018,5,17,19,22,33.149,0.2563,-0.521,0.0797,0.8102
0.329,-0.001,0.168,-9.9,-4.2,-7.4,0,2018,5,17,19,22,33.188,0.255,-0.5222,0.0801,0.8098
0.242,-0.015,0.101,-9,-0.7,-14.4,0,2018,5,17,19,22,33.21,0.253,-0.5235,0.0816,0.8094
0.152,-0.078,0.047,-7.7,-2,-19.9,0,2018,5,17,19,22,33.214,0.2504,-0.5247,0.0832,0.8093
0.019,-0.129,0.012,-8,0.2,-25.8,0,2018,5,17,19,22,33.234,0.2473,-0.5257,0.0847,0.8094
-0.057,-0.107,-0.067,-7.1,-4.1,-30.7,0,2018,5,17,19,22,33.25,0.2436,-0.5267,0.0867,0.8097
-0.135,-0.049,-0.142,-5.3,-13.7,-31.3,0,2018,5,17,19,22,33.269,0.2382,-0.5275,0.0886,0.8106
-0.215,0.014,-0.129,-2.9,-22.5,-25.6,0,2018,5,17,19,22,33.289,0.2324,-0.529,0.0885,0.8113
-0.292,0.011,-0.117,-1.8,-20.2,-17.6,0,2018,5,17,19,22,33.326,0.2272,-0.5299,0.0874,0.8123
-0.332,-0.025,-0.197,0,8.4,-9.6,0,2018,5,17,19,22,33.346,0.2249,-0.5302,0.0873,0.8127
-0.342,0.011,-0.204,5.5,28.6,2,0,2018,5,17,19,22,33.35,0.2266,-0.5296,0.0901,0.8123
-0.316,0.054,-0.167,9.9,16.8,14,0,2018,5,17,19,22,33.373,0.2301,-0.528,0.0926,0.8121
-0.255,0.03,-0.159,11.8,-4.9,26.3,0,2018,5,17,19,22,33.393,0.2334,-0.5269,0.0913,0.812
-0.166,0.028,-0.102,12.2,-11.7,36.5,0,2018,5,17,19,22,33.413,0.2372,-0.5264,0.0864,0.8118
-0.056,-0.016,-0.041,11.3,-5.8,43.1,1023,2018,5,17,19,22,33.432,0.242,-0.5259,0.0808,0.8113
0.063,0.074,0.138,7.1,7.6,44.8,1023,2018,5,17,19,22,33.472,0.2487,-0.5247,0.0769,0.8104
0.218,0.056,0.227,0.1,5.5,42.8,1023,2018,5,17,19,22,33.492,0.2555,-0.5244,0.0736,0.8088
0.322,0.065,0.251,-5.2,3.9,35.9,1023,2018,5,17,19,22,33.496,0.2613,-0.5244,0.0714,0.8071
0.367,0.04,0.236,-8.1,-2.2,25.4,1023,2018,5,17,19,22,33.512,0.2652,-0.5252,0.0697,0.8055
0.391,0.006,0.201,-9.1,-0.8,13,1023,2018,5,17,19,22,33.531,0.2673,-0.5265,0.0685,0.804
0.344,-0.019,0.163,-9.4,5.5,0.6,1023,2018,5,17,19,22,33.551,0.2681,-0.5277,0.0691,0.8029
0.254,-0.06,0.139,-10.3,4.7,-11.7,1023,2018,5,17,19,22,33.572,0.2676,-0.5287,0.071,0.8023
0.18,-0.117,0.077,-10.8,5.2,-22.9,1023,2018,5,17,19,22,33.593,0.2656,-0.5298,0.0734,0.802
0.122,-0.137,0.007,-8.7,8.9,-32.5,1023,2018,5,17,19,22,33.613,0.2626,-0.5309,0.0768,0.802
0.058,-0.125,-0.026,-5,14.5,-39.9,1023,2018,5,17,19,22,33.633,0.2589,-0.5314,0.0813,0.8024
-0.007,-0.061,-0.036,-1.9,16.3,-44.9,1023,2018,5,17,19,22,33.674,0.2548,-0.531,0.0871,0.8034
-0.07,-0.072,-0.063,0.2,12.4,-47.7,0,2018,5,17,19,22,33.693,0.2499,-0.5301,0.0928,0.8048
-0.118,-0.012,-0.102,2,2.1,-47.7,0,2018,5,17,19,22,33.697,0.2441,-0.5293,0.0979,0.8066
-0.174,0.018,-0.122,3.9,-4.7,-45,0,2018,5,17,19,22,33.715,0.2374,-0.5286,0.1017,0.8085
-0.246,0.083,-0.114,5.2,-4.5,-36.1,0,2018,5,17,19,22,33.756,0.231,-0.5276,0.1048,0.8106
-0.315,0.184,-0.08,3.2,-7.7,-19,0,2018,5,17,19,22,33.776,0.2267,-0.5267,0.1066,0.8122
-0.348,0.064,-0.114,1.1,-5.4,-3,0,2018,5,17,19,22,33.78,0.2244,-0.5264,0.1064,0.813
-0.319,-0.007,-0.199,1.3,-2.7,9.1,0,2018,5,17,19,22,33.794,0.2248,-0.5265,0.1054,0.813
-0.284,0.009,-0.223,4.9,-13.3,20.2,0,2018,5,17,19,22,33.814,0.2263,-0.5276,0.1028,0.8122
-0.228,-0.032,-0.175,8.8,-26,27.7,0,2018,5,17,19,22,33.852,0.228,-0.5288,0.0972,0.8116
-0.193,-0.091,-0.092,10.8,-20.6,31.7,0,2018,5,17,19,22,33.874,0.2305,-0.5295,0.0896,0.8114
-0.079,-0.018,-0.041,9.7,0.9,35.6,0,2018,5,17,19,22,33.878,0.2352,-0.5289,0.0842,0.811
0.003,0.052,0.015,6.5,-7,37,0,2018,5,17,19,22,33.897,0.2403,-0.5283,0.0806,0.8103
0.096,0.079,0.098,2.3,-32.7,36.7,0,2018,5,17,19,22,33.915,0.2433,-0.5286,0.0747,0.8097
0.173,0.047,0.176,-3.1,-37.2,34.2,0,2018,5,17,19,22,33.937,0.2447,-0.5302,0.0666,0.809
0.234,0.053,0.232,-8.9,-20.3,29.7,0,2018,5,17,19,22,33.957,0.2462,-0.5321,0.06,0.8078
0.306,0.063,0.202,-11.6,7.3,24.4,0,2018,5,17,19,22,33.975,0.2491,-0.5335,0.0577,0.8061
0.356,0.062,0.167,-9,17.3,16.9,0,2018,5,17,19,22,34.013,0.2528,-0.5343,0.0592,0.8044
0.343,0.002,0.146,-4.7,17,6.3,0,2018,5,17,19,22,34.017,0.2556,-0.5345,0.0615,0.8031
0.292,-0.07,0.147,-2.2,16,-5,0,2018,5,17,19,22,34.035,0.257,-0.5343,0.064,0.8026
0.221,-0.079,0.124,-1.8,17.7,-16.6,0,2018,5,17,19,22,34.056,0.2572,-0.5335,0.0674,0.8028
0.17,-0.091,0.082,-0.2,18.9,-27.4,0,2018,5,17,19,22,34.095,0.2559,-0.5327,0.0717,0.8034
0.09,-0.039,0.084,0.3,18.7,-35,0,2018,5,17,19,22,34.114,0.2535,-0.5313,0.077,0.8046
0.037,-0.005,0.026,1,13.8,-37.2,0,2018,5,17,19,22,34.118,0.2499,-0.5297,0.0825,0.8062
-0.012,-0.028,-0.059,2.7,11.8,-37.9,0,2018,5,17,19,22,34.138,0.2459,-0.5286,0.0876,0.8076
-0.062,-0.002,-0.064,4.4,1.8,-37.9,0,2018,5,17,19,22,34.158,0.2411,-0.5277,0.0919,0.8092
-0.136,-0.028,-0.067,4.8,-2.5,-37.9,1023,2018,5,17,19,22,34.179,0.2359,-0.5266,0.0949,0.8111
-0.22,-0.02,-0.067,4.1,-1.5,-35.8,1023,2018,5,17,19,22,34.2,0.2309,-0.5254,0.0972,0.813
-0.267,0.115,-0.049,0.3,-11.4,-26.1,1023,2018,5,17,19,22,34.216,0.226,-0.5245,0.0993,0.8148
-0.257,0.009,-0.11,-2.7,-23.1,-17.1,1023,2018,5,17,19,22,34.236,0.2212,-0.5248,0.0987,0.8159
-0.262,-0.026,-0.157,-3.1,-18.6,-9.6,1023,2018,5,17,19,22,34.256,0.2175,-0.5261,0.0965,0.8164
-0.252,0.005,-0.2,-2,-9.4,-1,1023,2018,5,17,19,22,34.296,0.2156,-0.5276,0.0948,0.8161
-0.225,0.057,-0.195,0,-13.4,9.7,1023,2018,5,17,19,22,34.316,0.215,-0.5289,0.0934,0.8156
-0.198,0.042,-0.138,1.6,-17.7,19.1,1023,2018,5,17,19,22,34.321,0.2154,-0.5303,0.09,0.8149
-0.175,0.022,-0.088,2,-17.7,28.2,1023,2018,5,17,19,22,34.339,0.2169,-0.5312,0.0854,0.8144
-0.14,0.051,-0.047,0.7,-10.1,36.9,1023,2018,5,17,19,22,34.359,0.2202,-0.5319,0.0805,0.8136
0.03,0.032,-0.029,0.3,-6.4,42.4,1023,2018,5,17,19,22,34.38,0.2251,-0.5328,0.076,0.8121
0.158,-0.003,0.065,1.6,-14.2,40.3,1023,2018,5,17,19,22,34.399,0.2298,-0.5338,0.0709,0.8106
0.249,-0.047,0.212,0,-7.9,32.3,1023,2018,5,17,19,22,34.44,0.2339,-0.5343,0.0656,0.8096
0.319,-0.035,0.276,-3.2,11.4,21.4,1023,2018,5,17,19,22,34.444,0.2379,-0.5341,0.0634,0.8087
0.352,0.021,0.232,-4.5,21.8,9.1,1023,2018,5,17,19,22,34.463,0.2417,-0.5335,0.065,0.8079
0.35,0.054,0.145,-2.4,11.8,-1.5,0,2018,5,17,19,22,34.482,0.2434,-0.533,0.0679,0.8074
0.282,-0.013,0.099,0,2.4,-9.6,0,2018,5,17,19,22,34.499,0.2428,-0.5329,0.0699,0.8074
0.158,-0.114,0.061,1.3,2.5,-18.2,0,2018,5,17,19,22,34.519,0.2411,-0.5328,0.0711,0.8079
0.014,-0.14,0.02,0.5,3.5,-25,0,2018,5,17,19,22,34.539,0.2388,-0.5324,0.0728,0.8087
-0.1,-0.163,-0.048,-0.2,10.3,-29.2,0,2018,5,17,19,22,34.56,0.2356,-0.5318,0.0761,0.8098
-0.192,-0.078,-0.096,0.6,17.5,-29.6,0,2018,5,17,19,22,34.58,0.2329,-0.5308,0.0809,0.8107
-0.263,0.074,-0.071,1.6,11.3,-21.5,0,2018,5,17,19,22,34.602,0.2308,-0.5295,0.085,0.8118
-0.296,0.101,-0.041,0.5,1.7,-8.1,0,2018,5,17,19,22,34.639,0.2292,-0.5289,0.0871,0.8124
-0.241,0.008,-0.08,2.1,1.5,-0.3,0,2018,5,17,19,22,34.659,0.229,-0.5282,0.0876,0.8129
-0.175,-0.051,-0.112,4.1,6.1,1.4,0,2018,5,17,19,22,34.663,0.2298,-0.5278,0.0874,0.8129
-0.111,-0.002,-0.127,5.2,6,2.5,0,2018,5,17,19,22,34.683,0.231,-0.5275,0.0876,0.8128
-0.085,0.043,-0.073,5,-4.6,4.2,0,2018,5,17,19,22,34.704,0.2314,-0.5273,0.0875,0.8128
0,0.058,-0.002,3.3,-1.1,6.3,0,2018,5,17,19,22,34.723,0.2316,-0.527,0.0866,0.813
0.061,0.096,0.053,0.8,8.2,7.7,0,2018,5,17,19,22,34.741,0.2326,-0.5265,0.0871,0.813
0.115,0.125,0.083,-1.1,8.7,8.6,0,2018,5,17,19,22,34.761,0.2341,-0.5259,0.0885,0.8128
0.164,0.147,0.096,-3.3,7.4,11.1,0,2018,5,17,19,22,34.78,0.2358,-0.5257,0.0897,0.8123
0.219,0.121,0.081,-3,-3.1,12.2,0,2018,5,17,19,22,34.82,0.2369,-0.5261,0.0901,0.8117
0.212,-0.009,0.04,-0.4,-7.4,8.3,0,2018,5,17,19,22,34.841,0.2375,-0.5269,0.0889,0.8111
0.161,-0.056,0.01,2.6,-3.6,1.2,0,2018,5,17,19,22,34.845,0.2376,-0.5275,0.0876,0.8108
0.073,-0.065,0.005,4.4,-3.9,-4,0,2018,5,17,19,22,34.863,0.2373,-0.5274,0.0868,0.811
-0.031,-0.069,0.009,4,-14.9,-7.5,0,2018,5,17,19,22,34.901,0.236,-0.5272,0.0855,0.8117
-0.1,-0.102,0.035,0.8,-21,-9.6,0,2018,5,17,19,22,34.921,0.2332,-0.5274,0.083,0.8126
-0.143,-0.178,-0.001,-3.1,-6.3,-12.7,1023,2018,5,17,19,22,34.925,0.2303,-0.528,0.0819,0.8132
-0.219,-0.04,-0.063,-2.7,5.3,-14,1023,2018,5,17,19,22,34.941,0.2285,-0.5282,0.0833,0.8135
-0.22,0.068,-0.075,0.3,6.9,-4.9,1023,2018,5,17,19,22,34.962,0.2278,-0.5277,0.0851,0.8138
-0.196,0.063,-0.061,4.3,9.1,5.2,1023,2018,5,17,19,22,34.982,0.2283,-0.5266,0.0865,0.8142
-0.115,0.027,-0.057,8.8,24.4,14.3,1023,2018,5,17,19,22,35.002,0.2311,-0.525,0.0879,0.8143
-0.09,0.044,-0.013,11,53.6,21.3,1023,2018,5,17,19,22,35.041,0.2374,-0.5221,0.0915,0.8139
-0.133,0.054,0.049,9.6,73.3,27.9,1023,2018,5,17,19,22,35.06,0.2469,-0.5176,0.0983,0.8132
-0.145,0.017,-0.013,7.5,77.8,35.5,1023,2018,5,17,19,22,35.064,0.2585,-0.5126,0.1061,0.8118
-0.099,-0.047,-0.033,5.8,82.9,40.7,1023,2018,5,17,19,22,35.085,0.2714,-0.5087,0.1133,0.809
-0.148,-0.031,-0.008,5.8,94.1,46.4,1023,2018,5,17,19,22,35.104,0.286,-0.5042,0.1211,0.8057
-0.222,0.096,0.044,4.4,81.6,53.8,1023,2018,5,17,19,22,35.125,0.3014,-0.4993,0.129,0.8019
-0.313,0.15,0.038,0,50.3,69.8,1023,2018,5,17,19,22,35.144,0.3156,-0.4969,0.1325,0.7973
-0.361,0.258,0.046,-6,31,94.9,1023,2018,5,17,19,22,35.18,0.3303,-0.4971,0.131,0.7915
-0.379,0.185,-0.026,-10,45.8,128.7,1023,2018,5,17,19,22,35.202,0.3486,-0.4987,0.1265,0.7833
-0.407,0.211,-0.056,-9.1,87.5,165.3,1023,2018,5,17,19,22,35.207,0.3743,-0.499,0.1234,0.7717
-0.45,0.269,-0.082,-1.4,120.6,202.3,0,2018,5,17,19,22,35.244,0.4081,-0.4965,0.1219,0.7563
-0.434,0.376,-0.144,13.3,124.2,238.7,0,2018,5,17,19,22,35.249,0.4479,-0.491,0.1188,0.7376
-0.388,0.302,-0.136,29.7,94.8,265.6,0,2018,5,17,19,22,35.266,0.49,-0.4842,0.1094,0.7164
-0.406,0.265,-0.098,44.9,49.3,285.3,0,2018,5,17,19,22,35.303,0.5306,-0.4781,0.0917,0.6937
-0.422,0.231,-0.11,57,9.9,301.1,0,2018,5,17,19,22,35.322,0.5686,-0.4734,0.0656,0.6694
-0.311,0.231,-0.196,69.1,-20.4,314.9,0,2018,5,17,19,22,35.326,0.604,-0.4693,0.033,0.6432
-0.184,0.152,-0.21,79.1,-40.9,326,0,2018,5,17,19,22,35.346,0.6367,-0.4655,-0.0049,0.6146
-0.089,0.075,-0.28,91,-42.2,331.1,0,2018,5,17,19,22,35.367,0.667,-0.4605,-0.046,0.5837
-0.071,-0.102,-0.225,102.2,-5.3,326.9,0,2018,5,17,19,22,35.386,0.6965,-0.4501,-0.0864,0.5519
-0.063,-0.171,-0.07,112,43.5,313.9,0,2018,5,17,19,22,35.407,0.726,-0.4316,-0.1227,0.5209
-0.043,-0.369,0.042,121,86.6,285.3,0,2018,5,17,19,22,35.445,0.7547,-0.4053,-0.1537,0.4923
-0.002,-0.129,-0.086,135.9,91.6,260.2,0,2018,5,17,19,22,35.465,0.7796,-0.3749,-0.1823,0.4673
-0.093,-0.466,-0.177,150.6,117.5,237,0,2018,5,17,19,22,35.471,0.8006,-0.3414,-0.2099,0.4452
-0.189,-0.631,-0.018,164.9,177.2,203.4,0,2018,5,17,19,22,35.487,0.8195,-0.2997,-0.2335,0.4289
-0.33,-0.534,0.3,166.9,201.1,159.3,0,2018,5,17,19,22,35.506,0.8351,-0.2513,-0.2519,0.4192
-0.29,-0.22,0.335,156.4,136.3,125.2,0,2018,5,17,19,22,35.528,0.8449,-0.2075,-0.2693,0.4128
-0.224,-0.111,0.169,145.5,47.1,106.6,0,2018,5,17,19,22,35.546,0.8488,-0.1773,-0.2898,0.4049
-0.169,-0.108,0.089,137.1,-16.7,96.6,0,2018,5,17,19,22,35.585,0.8486,-0.1603,-0.3138,0.3943
-0.161,-0.066,0.094,126.4,-48.1,97.4,0,2018,5,17,19,22,35.605,0.8466,-0.1509,-0.3391,0.3813
-0.179,-0.133,0.129,115,-51.6,103.5,0,2018,5,17,19,22,35.609,0.8444,-0.144,-0.3633,0.3662
-0.371,-1.963,0.658,66.3,110.5,61,0,2018,5,17,19,22,35.628,0.844,-0.132,-0.3785,0.356
-0.306,-0.801,0.777,48.7,353.2,2.9,0,2018,5,17,19,22,35.666,0.847,-0.0873,-0.3709,0.3704
-0.157,0.11,0.61,17.4,253.2,-23.9,1023,2018,5,17,19,22,35.687,0.8476,-0.039,-0.3542,0.393
0.031,0.515,0.202,-0.3,62.1,-30.5,1023,2018,5,17,19,22,35.691,0.8459,-0.0174,-0.3443,0.4068
0.116,0.484,-0.164,5.3,-92.7,-21.9,1023,2018,5,17,19,22,35.707,0.8438,-0.0228,-0.3462,0.4092
0.066,0.278,-0.154,17.3,-151.6,-10.7,1023,2018,5,17,19,22,35.743,0.8412,-0.0427,-0.3573,0.4035
-0.011,0.031,-0.049,19.7,-111.8,-2.5,1023,2018,5,17,19,22,35.765,0.8383,-0.0618,-0.3698,0.3957
-0.064,-0.073,-0.012,15.2,-21.9,2.3,1023,2018,5,17,19,22,35.769,0.8362,-0.0705,-0.3774,0.3915
-0.073,0.079,-0.024,12.7,43,6.6,1023,2018,5,17,19,22,35.787,0.8357,-0.0665,-0.3788,0.3919
-0.084,0.167,-0.004,10.5,53.6,12.4,1023,2018,5,17,19,22,35.828,0.8362,-0.0576,-0.377,0.394
-0.115,0.066,0.053,7.9,46.5,10.4,1023,2018,5,17,19,22,35.848,0.8369,-0.0487,-0.3751,0.3956
-0.117,0.04,0.083,3.9,33,5,1023,2018,5,17,19,22,35.853,0.8374,-0.0411,-0.3734,0.3968
-0.115,0.137,0.074,-1,12.9,1.4,1023,2018,5,17,19,22,35.872,0.8378,-0.037,-0.372,0.3977
-0.092,0.167,0.065,-6,-12.8,1,1023,2018,5,17,19,22,35.908,0.8381,-0.0376,-0.3713,0.3976
-0.053,0.139,0.048,-10.2,-32.1,2.2,1023,2018,5,17,19,22,35.929,0.8386,-0.0418,-0.3716,0.3958
-0.02,0.084,0.022,-12,-45.3,4.5,1023,2018,5,17,19,22,35.934,0.8395,-0.0478,-0.3725,0.3925
0.009,0.025,0.005,-12.7,-52.8,5.2,1023,2018,5,17,19,22,35.953,0.8404,-0.0553,-0.3738,0.3883
0.029,-0.021,-0.017,-12.1,-53.1,5.3,0,2018,5,17,19,22,35.973,0.841,-0.0639,-0.3756,0.3839
0.038,-0.041,-0.025,-11,-48.1,5,0,2018,5,17,19,22,35.988,0.8414,-0.0722,-0.3773,0.3799
0.037,-0.047,-0.02,-10.3,-44.1,4.4,0,2018,5,17,19,22,36.012,0.8417,-0.0803,-0.3787,0.3762
0.037,-0.037,-0.015,-10.1,-37.5,4.5,0,2018,5,17,19,22,36.032,0.842,-0.0873,-0.3798,0.3729
0.043,-0.042,-0.033,-8.9,-24.5,5.1,0,2018,5,17,19,22,36.051,0.8423,-0.0926,-0.3805,0.3701
0.043,-0.025,-0.037,-6.1,-9.3,5.3,0,2018,5,17,19,22,36.071,0.8427,-0.0957,-0.3806,0.3683
0.028,-0.014,-0.013,-3.3,0.4,4.9,0,2018,5,17,19,22,36.093,0.8432,-0.0966,-0.3802,0.3673
0.017,-0.005,0.021,-1.3,4.7,2.8,0,2018,5,17,19,22,36.111,0.8437,-0.0964,-0.3795,0.367
0.005,0.016,0.028,-0.5,6.9,1.3,0,2018,5,17,19,22,36.15,0.8441,-0.0954,-0.3788,0.3672
0.004,0.051,0.026,-0.1,4.4,0.2,0,2018,5,17,19,22,36.171,0.8444,-0.0944,-0.378,0.3674
0.001,0.066,0.008,0.7,0.4,0.2,0,2018,5,17,19,22,36.175,0.8446,-0.0937,-0.3777,0.3675
0,0.064,-0.001,1.4,-3,0.6,0,2018,5,17,19,22,36.195,0.8448,-0.0932,-0.3778,0.3672
-0.008,0.035,0.004,1,-5.8,0.6,0,2018,5,17,19,22,36.216,0.8448,-0.0936,-0.3781,0.3667
-0.007,0.008,0.005,0.3,-6.8,0.6,0,2018,5,17,19,22,36.231,0.8447,-0.0944,-0.3786,0.3661
-0.005,0.004,-0.003,-0.2,-6.1,0.2,0,2018,5,17,19,22,36.269,0.8447,-0.0952,-0.3791,0.3655
-0.001,0.006,-0.01,-0.6,-4.3,0.3,0,2018,5,17,19,22,36.291,0.8446,-0.0959,-0.3794,0.3651
0.004,0.01,-0.007,-1.1,-2.9,0.7,0,2018,5,17,19,22,36.295,0.8447,-0.0963,-0.3795,0.3647
0.005,0.002,-0.003,-1.4,-2.2,0.5,0,2018,5,17,19,22,36.314,0.8448,-0.0968,-0.3795,0.3644
0.005,0.001,0,-1.3,-0.4,0.2,0,2018,5,17,19,22,36.333,0.8449,-0.0972,-0.3793,0.3642
0.006,0.011,0,-1.3,1.6,-0.1,0,2018,5,17,19,22,36.374,0.845,-0.0971,-0.3791,0.3643
0.006,0.019,0.001,-1.1,1.7,-0.2,0,2018,5,17,19,22,36.393,0.8452,-0.0967,-0.3787,0.3643
0.007,0.019,-0.002,-0.8,1.6,0,0,2018,5,17,19,22,36.397,0.8453,-0.0966,-0.3783,0.3644
0,0.018,0.007,-0.9,1.3,0,1023,2018,5,17,19,22,36.416,0.8455,-0.0962,-0.378,0.3645
0.004,0.014,0.001,-1.3,0,-0.4,1023,2018,5,17,19,22,36.436,0.8456,-0.096,-0.3778,0.3645
0.003,0.015,-0.009,-1.4,0,-0.5,1023,2018,5,17,19,22,36.453,0.8457,-0.096,-0.3775,0.3645
0.001,0.019,-0.006,-1.3,0,-0.5,1023,2018,5,17,19,22,36.471,0.8458,-0.096,-0.3773,0.3645
-0.004,0.007,-0.002,-1.2,-0.5,-0.7,1023,2018,5,17,19,22,36.493,0.8459,-0.0962,-0.3771,0.3645
-0.003,0.004,0.001,-1.3,-0.2,0,1023,2018,5,17,19,22,36.531,0.8459,-0.0964,-0.3769,0.3645
0.003,0.009,0.004,-1.4,0.8,0.2,1023,2018,5,17,19,22,36.551,0.8461,-0.0963,-0.3767,0.3644
0.007,0.013,0,-1.4,1.4,0.2,1023,2018,5,17,19,22,36.556,0.8463,-0.0961,-0.3763,0.3644
0.009,0.016,0.006,-1.3,1,0,1023,2018,5,17,19,22,36.575,0.8465,-0.0959,-0.376,0.3644
0.006,0.017,-0.003,-1.2,0.4,0.2,1023,2018,5,17,19,22,36.594,0.8466,-0.0956,-0.3757,0.3644
0.003,0.01,-0.002,-0.6,0.9,0.4,1023,2018,5,17,19,22,36.634,0.8468,-0.0954,-0.3755,0.3643
0.007,0.016,-0.004,-0.2,1,0.6,1023,2018,5,17,19,22,36.655,0.8469,-0.0951,-0.3753,0.3642
0.005,0.013,-0.003,0,0.7,0.7,1023,2018,5,17,19,22,36.659,0.847,-0.0948,-0.3752,0.3642
0.003,0.01,-0.002,-0.2,0.7,0.4,1023,2018,5,17,19,22,36.678,0.8471,-0.0947,-0.3752,0.3641
0.003,0.006,-0.001,-0.2,1.2,0.2,1023,2018,5,17,19,22,36.699,0.8472,-0.0945,-0.3751,0.3641
0.004,0.008,-0.001,-0.3,1.2,0,1023,2018,5,17,19,22,36.719,0.8472,-0.0942,-0.3749,0.3641
0.003,0.016,-0.005,-0.3,1.1,0.2,0,2018,5,17,19,22,36.739,0.8474,-0.0938,-0.3748,0.3641
0.004,0.006,0,0,0,0,0,2018,5,17,19,22,36.756,0.8474,-0.0936,-0.3746,0.3641
0.009,0.012,-0.007,0,0.5,0,0,2018,5,17,19,22,36.793,0.8475,-0.0935,-0.3745,0.3641
0.008,0.007,-0.001,0.1,1.1,0,0,2018,5,17,19,22,36.813,0.8475,-0.0935,-0.3744,0.3642
0.009,0.013,-0.002,0,1.1,0,0,2018,5,17,19,22,36.817,0.8476,-0.0932,-0.3742,0.3643
0.009,0.011,0,-0.1,1,0,0,2018,5,17,19,22,36.836,0.8476,-0.093,-0.3741,0.3644
0.008,0.013,-0.001,0,0.8,0.2,0,2018,5,17,19,22,36.859,0.8477,-0.0929,-0.3739,0.3644
0.006,0.011,0,0,0,0,0,2018,5,17,19,22,36.895,0.8478,-0.0927,-0.3738,0.3644
0.003,0.013,-0.001,0,0,0,0,2018,5,17,19,22,36.915,0.8478,-0.0926,-0.3737,0.3644
0,0.014,-0.004,0.1,0.6,0,0,2018,5,17,19,22,36.919,0.8479,-0.0924,-0.3737,0.3643
0,0.015,-0.007,0,0,0,0,2018,5,17,19,22,36.938,0.8479,-0.0921,-0.3737,0.3643
0.002,0.012,-0.002,0,0,0,0,2018,5,17,19,22,36.957,0.848,-0.092,-0.3737,0.3643
0.005,0.013,-0.004,0,0,0,0,2018,5,17,19,22,36.976,0.848,-0.0918,-0.3737,0.3642
0.005,0.008,-0.004,0,0,0,0,2018,5,17,19,22,36.994,0.848,-0.0918,-0.3736,0.3642
0.005,0.012,0,-0.1,0.5,-0.3,0,2018,5,17,19,22,37.039,0.8481,-0.0917,-0.3736,0.3642
0.007,0.016,-0.006,0,0,0,0,2018,5,17,19,22,37.041,0.8481,-0.0916,-0.3735,0.3642
0.006,0.019,-0.002,0,0,0,0,2018,5,17,19,22,37.056,0.8482,-0.0914,-0.3735,0.3642
0.005,0.024,0,0,-1.8,-0.1,0,2018,5,17,19,22,37.078,0.8482,-0.0914,-0.3735,0.3641
0.004,0.018,0.006,-0.4,-3.3,-0.2,0,2018,5,17,19,22,37.112,0.8482,-0.0916,-0.3735,0.3639
-0.008,0.008,0.015,-0.7,-6.3,-0.6,0,2018,5,17,19,22,37.133,0.8482,-0.0925,-0.3735,0.3636
-0.01,0.021,0.007,-1.7,-10.3,-1.3,0,2018,5,17,19,22,37.137,0.8482,-0.0936,-0.3738,0.3632
-0.016,0.049,0,-2.5,-16,-1.9,0,2018,5,17,19,22,37.172,0.8481,-0.0954,-0.3743,0.3624
-0.016,0.045,0.001,-3.8,-21.8,-2.1,0,2018,5,17,19,22,37.192,0.848,-0.0981,-0.375,0.3612
-0.017,0.037,0.017,-5.4,-28.6,-2.4,1023,2018,5,17,19,22,37.198,0.8479,-0.1017,-0.3758,0.3596
-0.028,0.023,0.021,-7.5,-36.2,-2.8,1023,2018,5,17,19,22,37.217,0.8477,-0.1067,-0.3768,0.3576
-0.043,0.006,0.008,-9.9,-45.2,-4.6,1023,2018,5,17,19,22,37.236,0.8473,-0.1132,-0.3781,0.3552
-0.027,0.009,-0.022,-11,-46.3,-4.9,1023,2018,5,17,19,22,37.271,0.8467,-0.1208,-0.3797,0.3524
-0.045,0.022,-0.003,-11.7,-43.5,-5.8,1023,2018,5,17,19,22,37.29,0.8461,-0.1282,-0.381,0.3498
-0.079,0.046,0.07,-17.2,-43,-7.3,1023,2018,5,17,19,22,37.298,0.8458,-0.1351,-0.3815,0.3474
-0.107,0.014,0.082,-24.6,-55,-10.3,1023,2018,5,17,19,22,37.319,0.8457,-0.1434,-0.3812,0.3447
-0.101,0.031,0.072,-31.3,-75,-12,1023,2018,5,17,19,22,37.339,0.8454,-0.1545,-0.3807,0.341
-0.113,0.05,0.039,-34.1,-103,-15.6,1023,2018,5,17,19,22,37.378,0.8445,-0.1696,-0.381,0.3358
-0.2,0.004,0.115,-37.9,-143.3,-23.2,1023,2018,5,17,19,22,37.398,0.842,-0.1907,-0.3824,0.329
-0.199,-0.052,0.104,-45.3,-185.4,-38,1023,2018,5,17,19,22,37.402,0.8372,-0.2187,-0.385,0.3206
-0.148,-0.191,0.048,-50.3,-211.6,-53.8,1023,2018,5,17,19,22,37.424,0.8295,-0.2536,-0.3878,0.3114
-0.041,-0.359,0.046,-50.3,-199,-67.7,1023,2018,5,17,19,22,37.443,0.8196,-0.2908,-0.389,0.3037
0.02,-0.331,0.011,-47.4,-175.3,-80.1,1023,2018,5,17,19,22,37.464,0.8089,-0.325,-0.3879,0.2991
0.002,-0.38,0.027,-45.4,-140.8,-94,1023,2018,5,17,19,22,37.481,0.798,-0.3555,-0.3844,0.298
0.02,-0.344,0.061,-45.1,-113.6,-108.6,0,2018,5,17,19,22,37.501,0.7878,-0.3818,-0.3781,0.3008
0.065,-0.271,0.089,-46.3,-116.3,-123.6,0,2018,5,17,19,22,37.521,0.7766,-0.4079,-0.3692,0.3067
0.129,-0.226,0.038,-45.3,-126,-135,0,2018,5,17,19,22,37.561,0.7632,-0.4356,-0.3596,0.3134
0.122,-0.296,-0.022,-40.3,-124.2,-148,0,2018,5,17,19,22,37.579,0.7481,-0.4634,-0.3498,0.321
0.088,-0.415,-0.093,-32.2,-96,-163.3,0,2018,5,17,19,22,37.583,0.732,-0.4894,-0.3386,0.3313
0.062,-0.304,-0.054,-25.1,-56.7,-179.4,0,2018,5,17,19,22,37.602,0.7169,-0.5105,-0.3244,0.3464
0.091,-0.175,0.038,-22.5,-37.4,-190.2,0,2018,5,17,19,22,37.623,0.7021,-0.5285,-0.3072,0.365
0.067,-0.114,0.055,-21.6,-33.9,-200.1,0,2018,5,17,19,22,37.663,0.6872,-0.5443,-0.2878,0.3852
-0.003,-0.114,-0.061,-14.4,-46.3,-212.2,0,2018,5,17,19,22,37.682,0.6697,-0.5606,-0.2685,0.406
0.047,-0.006,-0.089,-4.1,-50.3,-213.7,0,2018,5,17,19,22,37.687,0.6493,-0.5772,-0.25,0.4273
0.016,0.009,-0.063,6.6,-49.4,-215.8,0,2018,5,17,19,22,37.7,0.627,-0.5925,-0.2321,0.4492
-0.074,-0.037,-0.042,16.3,-33.5,-218.3,0,2018,5,17,19,22,37.739,0.6046,-0.6047,-0.2145,0.4718
-0.128,-0.017,-0.036,21.7,-2,-220,0,2018,5,17,19,22,37.76,0.5838,-0.6127,-0.1956,0.4954
-0.125,0.132,-0.023,24.8,12.6,-220.4,0,2018,5,17,19,22,37.764,0.5646,-0.6168,-0.1744,0.5197
-0.095,0.254,-0.051,29.5,8.3,-212.1,0,2018,5,17,19,22,37.784,0.5451,-0.6192,-0.1525,0.5441
-0.137,0.192,-0.092,37.1,3.7,-200.9,0,2018,5,17,19,22,37.804,0.5245,-0.6208,-0.1325,0.5672
-0.162,0.184,-0.056,42.3,14.6,-188.8,0,2018,5,17,19,22,37.841,0.5048,-0.6204,-0.1144,0.589
-0.179,0.121,-0.054,44.3,15.4,-177.8,0,2018,5,17,19,22,37.862,0.487,-0.6177,-0.0971,0.6096
-0.14,0.114,-0.035,43.7,-2.9,-170.6,0,2018,5,17,19,22,37.866,0.4684,-0.6151,-0.0818,0.6288
-0.123,0.176,0.067,40.8,-14.6,-160.1,0,2018,5,17,19,22,37.888,0.4485,-0.613,-0.0685,0.6467
-0.087,0.115,0.069,37.7,-10.9,-147.9,0,2018,5,17,19,22,37.907,0.429,-0.6113,-0.0567,0.6625
-0.065,0.028,0,37.8,6,-141.1,0,2018,5,17,19,22,37.924,0.4118,-0.6078,-0.0443,0.6774
-0.029,-0.014,-0.098,40,6.1,-138.5,0,2018,5,17,19,22,37.944,0.3957,-0.6038,-0.0313,0.6912
-0.074,0.05,-0.087,41.8,-12.1,-135.2,1023,2018,5,17,19,22,37.965,0.3784,-0.6003,-0.0202,0.7042
-0.085,0.089,-0.026,40.5,-37.4,-126.6,1023,2018,5,17,19,22,37.984,0.359,-0.5973,-0.0122,0.7169
-0.068,0.035,0.004,38.8,-31.2,-118,1023,2018,5,17,19,22,38.004,0.3396,-0.5946,-0.0065,0.7286
-0.059,0.037,-0.023,36.9,2.4,-110,1023,2018,5,17,19,22,38.042,0.3237,-0.5905,0.0011,0.7392
-0.074,0.106,-0.08,36.1,24.4,-103,1023,2018,5,17,19,22,38.062,0.3112,-0.5849,0.0125,0.7488
-0.09,0.139,-0.099,36.4,14.6,-94.4,1023,2018,5,17,19,22,38.066,0.3,-0.5791,0.024,0.7576
-0.135,0.078,-0.039,34.5,-11.8,-86.8,1023,2018,5,17,19,22,38.085,0.288,-0.5738,0.0321,0.766
-0.068,0.031,-0.035,31.4,-34.2,-81.6,1023,2018,5,17,19,22,38.123,0.2744,-0.5699,0.0359,0.7736
-0.085,-0.016,-0.071,31.4,-35,-79,1023,2018,5,17,19,22,38.142,0.2601,-0.5672,0.037,0.7805
-0.102,-0.044,-0.078,32,-1.2,-76.8,1023,2018,5,17,19,22,38.15,0.2479,-0.5637,0.0399,0.7868
-0.109,-0.024,-0.065,30.5,34.6,-76.9,1023,2018,5,17,19,22,38.168,0.2398,-0.5583,0.0483,0.7927
-0.139,0.105,-0.037,26.9,38.2,-72.5,1023,2018,5,17,19,22,38.188,0.2334,-0.5519,0.0601,0.7982
-0.143,0.137,0.015,21.8,21.4,-61.7,1023,2018,5,17,19,22,38.226,0.227,-0.5465,0.0697,0.803
-0.193,0.055,0.01,17,16.3,-50.9,1023,2018,5,17,19,22,38.23,0.221,-0.5419,0.0766,0.8071
-0.323,0.336,0.215,4.1,-0.6,-27.7,1023,2018,5,17,19,22,38.248,0.2167,-0.5394,0.0815,0.8095
-0.351,0.072,0.2,-10.3,-23.9,-10.6,1023,2018,5,17,19,22,38.286,0.2126,-0.5403,0.0811,0.81
-0.351,-0.14,-0.057,-17.2,-5.8,-0.6,0,2018,5,17,19,22,38.306,0.2102,-0.5429,0.0798,0.809
-0.282,-0.174,-0.253,-11.9,7.9,3.5,0,2018,5,17,19,22,38.31,0.2105,-0.545,0.0806,0.8075
-0.228,-0.176,-0.338,0.5,9.5,6.4,0,2018,5,17,19,22,38.329,0.2119,-0.5455,0.0815,0.8066
-0.175,-0.025,-0.244,10.9,11,11.6,0,2018,5,17,19,22,38.349,0.2144,-0.5444,0.082,0.8067
-0.138,0.051,-0.081,15,19.8,19.2,0,2018,5,17,19,22,38.386,0.2178,-0.5427,0.0821,0.8069
-0.094,0.126,0.044,13.3,47.3,27.7,0,2018,5,17,19,22,38.406,0.2245,-0.5394,0.0845,0.8071
0.044,0.163,0.043,9.7,46.6,33.4,0,2018,5,17,19,22,38.41,0.2338,-0.5362,0.0882,0.8061
0.134,0.164,0.057,6.6,13.2,35.6,0,2018,5,17,19,22,38.429,0.2417,-0.5343,0.0889,0.805
0.234,0.068,0.121,3.3,-5.6,33.9,0,2018,5,17,19,22,38.449,0.2463,-0.534,0.0862,0.8041
0.3,0.035,0.173,-0.5,4.2,26,0,2018,5,17,19,22,38.466,0.2501,-0.534,0.0836,0.8032
0.293,0.01,0.165,-3,6.6,14.9,0,2018,5,17,19,22,38.506,0.2534,-0.534,0.0831,0.8022
0.252,-0.001,0.118,-3.7,-3.5,1.9,0,2018,5,17,19,22,38.526,0.2545,-0.5344,0.0831,0.8016
0.177,-0.055,0.099,-3,-15.3,-6.9,0,2018,5,17,19,22,38.53,0.253,-0.5353,0.082,0.8016
0.117,-0.052,0.064,-0.3,-9.9,-14.6,0,2018,5,17,19,22,38.55,0.2504,-0.536,0.081,0.8021
0.073,0.011,0.071,2.4,-4.5,-18.4,0,2018,5,17,19,22,38.569,0.2474,-0.5357,0.0815,0.8031
0.029,0.096,0.084,2.7,1.3,-16.7,0,2018,5,17,19,22,38.609,0.2447,-0.5346,0.0833,0.8045
0.011,0.039,0.06,1.4,-2.7,-14.9,0,2018,5,17,19,22,38.627,0.2423,-0.5336,0.0849,0.8057
-0.001,-0.009,0.061,0.2,2.5,-16.8,0,2018,5,17,19,22,38.631,0.2401,-0.5329,0.0862,0.8067
-0.015,0.027,0.079,-2.5,3.2,-18.7,0,2018,5,17,19,22,38.67,0.238,-0.532,0.0885,0.8077
0.007,0.038,0.034,-5.3,-1.6,-19.4,0,2018,5,17,19,22,38.674,0.2352,-0.5317,0.0907,0.8085
0.051,0.058,-0.015,-6.7,-5.7,-19.6,0,2018,5,17,19,22,38.69,0.2317,-0.5324,0.0926,0.8088
-0.009,-0.005,-0.05,-6.9,-7,-20.5,1023,2018,5,17,19,22,38.709,0.228,-0.5336,0.0939,0.8089
-0.033,0.021,-0.068,-7.1,-7.5,-20.8,1023,2018,5,17,19,22,38.726,0.2242,-0.5349,0.0953,0.8089
-0.08,0.025,-0.061,-7.4,-8.8,-18.4,1023,2018,5,17,19,22,38.763,0.2203,-0.5362,0.0964,0.809
-0.149,-0.004,-0.087,-7.6,-6.3,-14.3,1023,2018,5,17,19,22,38.784,0.2171,-0.5375,0.0973,0.809
-0.207,-0.027,-0.13,-6.5,-0.5,-10.9,1023,2018,5,17,19,22,38.79,0.215,-0.5388,0.0978,0.8086
-0.256,-0.034,-0.194,-3.8,0.7,-6,1023,2018,5,17,19,22,38.828,0.214,-0.5398,0.0986,0.808
-0.226,0.002,-0.242,1.7,-8.1,1.9,1023,2018,5,17,19,22,38.849,0.2134,-0.5401,0.0984,0.808
-0.2,-0.03,-0.192,8,-11.7,9.3,1023,2018,5,17,19,22,38.854,0.2133,-0.5399,0.0961,0.8085
-0.174,-0.043,-0.068,9.9,2.5,15.2,1023,2018,5,17,19,22,38.874,0.215,-0.5394,0.0932,0.8087
-0.145,0.018,0.011,7.2,22.9,19.4,1023,2018,5,17,19,22,38.894,0.2192,-0.5375,0.0929,0.8089
-0.101,0.081,-0.035,4.7,17.5,24.5,1023,2018,5,17,19,22,38.931,0.2244,-0.5355,0.094,0.8086
-0.007,0.064,-0.069,3.9,1.7,29.5,1023,2018,5,17,19,22,38.952,0.2287,-0.5353,0.0932,0.8076
0.051,0.05,-0.008,4.8,2,32.2,1023,2018,5,17,19,22,38.956,0.2329,-0.5354,0.0907,0.8066
0.112,0.05,0.097,4.4,6.2,31.2,1023,2018,5,17,19,22,38.971,0.2376,-0.535,0.0886,0.8058
0.219,0.052,0.189,0.1,8.6,27,1023,2018,5,17,19,22,39.007,0.2422,-0.5342,0.0872,0.8051
0.273,0.028,0.192,-5,5.6,20.6,0,2018,5,17,19,22,39.028,0.2461,-0.534,0.0865,0.8041
0.291,-0.002,0.162,-7.6,-0.7,11.5,0,2018,5,17,19,22,39.032,0.2483,-0.5347,0.0859,0.8031
0.279,-0.023,0.117,-6.3,1,2.2,0,2018,5,17,19,22,39.053,0.249,-0.5358,0.0857,0.8021
0.234,-0.016,0.085,-3.1,3.3,-5.2,0,2018,5,17,19,22,39.073,0.2488,-0.5364,0.0866,0.8017
0.156,-0.028,0.065,-0.6,1.9,-12.1,0,2018,5,17,19,22,39.109,0.2477,-0.5364,0.0879,0.8019
0.083,-0.03,0.04,0.7,3.1,-17.1,0,2018,5,17,19,22,39.13,0.2459,-0.5361,0.0895,0.8025
0.015,0.034,0.038,0.8,-1.4,-18.2,0,2018,5,17,19,22,39.134,0.2435,-0.5354,0.0914,0.8034
-0.032,0.036,0.012,-1.3,-7.7,-15.9,0,2018,5,17,19,22,39.156,0.2405,-0.5351,0.0926,0.8044
-0.07,0.011,-0.027,-3.5,-3.5,-13.4,0,2018,5,17,19,22,39.174,0.2377,-0.5353,0.0933,0.805
-0.099,-0.016,-0.047,-5,6.6,-11.8,0,2018,5,17,19,22,39.192,0.2361,-0.5356,0.0947,0.8051
-0.113,-0.052,-0.097,-5,14,-12.3,0,2018,5,17,19,22,39.232,0.2356,-0.536,0.0972,0.8047
-0.115,-0.075,-0.166,-2.6,17.6,-15.2,0,2018,5,17,19,22,39.253,0.2353,-0.5357,0.1009,0.8046
-0.131,-0.034,-0.161,-0.8,9.1,-16.3,0,2018,5,17,19,22,39.257,0.2343,-0.5352,0.1043,0.8047
-0.161,0.001,-0.164,0,2.2,-14.1,0,2018,5,17,19,22,39.294,0.2326,-0.5358,0.1064,0.8046
-0.174,0.05,-0.119,0,1.4,-7.8,0,2018,5,17,19,22,39.314,0.231,-0.5361,0.1079,0.8046
-0.192,0.058,-0.085,-1.1,3.5,0,0,2018,5,17,19,22,39.318,0.2303,-0.5361,0.109,0.8047
-0.179,0.045,-0.077,-1.8,5.2,8.6,0,2018,5,17,19,22,39.335,0.2312,-0.5361,0.1098,0.8043
-0.143,0.032,-0.093,-1.1,-8.4,15.4,0,2018,5,17,19,22,39.355,0.2327,-0.5366,0.1089,0.8037
-0.135,-0.042,-0.114,0.7,-22.2,20.5,0,2018,5,17,19,22,39.394,0.2336,-0.5382,0.1047,0.8029
-0.116,-0.073,-0.05,2.8,-7.8,24.1,0,2018,5,17,19,22,39.416,0.2357,-0.5394,0.0994,0.8021
-0.039,-0.039,-0.016,4.6,17,24.9,0,2018,5,17,19,22,39.42,0.2402,-0.5392,0.0971,0.8012
0,0.08,-0.004,6.6,14.1,26,0,2018,5,17,19,22,39.434,0.2455,-0.538,0.0973,0.8004
0.11,0.056,0.055,7.5,-6.7,27.6,0,2018,5,17,19,22,39.472,0.2492,-0.5373,0.0954,0.8
0.217,0.032,0.128,7.2,-10.5,25.2,1023,2018,5,17,19,22,39.494,0.2518,-0.5369,0.0916,0.7999
0.281,0.031,0.206,6.1,1.4,18.4,1023,2018,5,17,19,22,39.498,0.2544,-0.536,0.0889,0.7999
0.333,0.061,0.221,5.2,6.4,9.5,1023,2018,5,17,19,22,39.515,0.2566,-0.5347,0.0885,0.8002
0.316,0.045,0.196,3.7,2.2,0,1023,2018,5,17,19,22,39.554,0.2574,-0.5334,0.0892,0.8007
0.264,-0.008,0.165,2.9,-1.2,-7.6,1023,2018,5,17,19,22,39.573,0.2568,-0.5325,0.0896,0.8014
0.192,-0.037,0.146,2.2,1.2,-15.7,1023,2018,5,17,19,22,39.577,0.2552,-0.5317,0.0906,0.8024
0.125,-0.015,0.121,0.1,-5,-21.6,1023,2018,5,17,19,22,39.618,0.2524,-0.5308,0.0921,0.8036
0.076,-0.038,0.048,-0.7,-6,-26.3,1023,2018,5,17,19,22,39.622,0.2486,-0.5306,0.0932,0.8048
0.008,0.026,0.052,-2.5,-5.1,-25.6,1023,2018,5,17,19,22,39.637,0.2445,-0.5304,0.0949,0.806
-0.019,0.013,0.019,-3.9,-7.7,-24.2,1023,2018,5,17,19,22,39.678,0.2403,-0.5304,0.0966,0.8071
-0.055,-0.001,-0.021,-4.4,-2,-23,1023,2018,5,17,19,22,39.698,0.2364,-0.5307,0.0981,0.8079
-0.067,0,-0.036,-4.5,-0.4,-22.2,1023,2018,5,17,19,22,39.702,0.2331,-0.531,0.1003,0.8084
-0.067,-0.026,-0.095,-2.8,0.8,-22.7,1023,2018,5,17,19,22,39.717,0.23,-0.5314,0.1024,0.8087
-0.121,-0.017,-0.128,-0.8,-2.8,-23.2,1023,2018,5,17,19,22,39.755,0.2268,-0.532,0.1043,0.809
-0.16,-0.021,-0.132,0,-10.6,-21.4,1023,2018,5,17,19,22,39.76,0.223,-0.5326,0.1053,0.8095
-0.178,-0.01,-0.128,-0.6,-7.4,-18.2,1023,2018,5,17,19,22,39.776,0.2194,-0.5333,0.1055,0.81
-0.221,-0.015,-0.106,-1.1,6.5,-12.1,0,2018,5,17,19,22,39.816,0.2173,-0.5335,0.1065,0.8103
-0.213,0.034,-0.104,-1.6,14.1,-4,0,2018,5,17,19,22,39.838,0.2172,-0.5332,0.1091,0.8102
-0.217,0.035,-0.112,-1.6,9.7,4.5,0,2018,5,17,19,22,39.842,0.2182,-0.533,0.1112,0.8098
-0.154,0.015,-0.129,-1.4,0.2,13,0,2018,5,17,19,22,39.86,0.2198,-0.5335,0.1113,0.809
-0.104,0,-0.086,-0.5,-5.6,17.7,0,2018,5,17,19,22,39.898,0.2216,-0.5346,0.1095,0.808
-0.062,-0.028,-0.039,1.2,2.4,20.3,0,2018,5,17,19,22,39.919,0.2242,-0.5352,0.1071,0.8072
-0.071,-0.014,-0.022,2.5,18.5,21.2,0,2018,5,17,19,22,39.923,0.2285,-0.5349,0.1064,0.8063
-0.032,0.002,-0.045,3.5,17.3,21.9,0,2018,5,17,19,22,39.939,0.2334,-0.5342,0.107,0.8053
0.043,0.045,-0.008,4.7,3.3,21.1,0,2018,5,17,19,22,39.959,0.2374,-0.5338,0.1066,0.8045
0.041,0.028,0.05,4.1,-19.1,20.8,0,2018,5,17,19,22,39.98,0.2393,-0.5338,0.1035,0.8043
0.002,0.026,0.081,0.5,-19,22,0,2018,5,17,19,22,40.019,0.2403,-0.5342,0.0986,0.8044
0.089,0.032,0.078,-2.2,-0.8,25.3,0,2018,5,17,19,22,40.039,0.2426,-0.5347,0.0951,0.8038
0.141,0.028,0.115,-3.3,18.5,25.3,0,2018,5,17,19,22,40.043,0.247,-0.5347,0.0946,0.8025
0.191,0.057,0.114,-2.8,11.6,21.9,0,2018,5,17,19,22,40.061,0.2516,-0.5344,0.0953,0.8012
0.243,-0.006,0.091,-1.2,-0.7,14.5,0,2018,5,17,19,22,40.099,0.2543,-0.5347,0.0946,0.8002
0.239,-0.071,0.083,0.6,1.1,4.4,0,2018,5,17,19,22,40.119,0.2556,-0.5351,0.0935,0.7996
0.177,-0.06,0.066,2.8,6,-5.7,0,2018,5,17,19,22,40.123,0.256,-0.5348,0.0939,0.7997
0.118,-0.041,0.011,4.4,10.8,-13.8,0,2018,5,17,19,22,40.144,0.2555,-0.534,0.0956,0.8002
0.043,-0.003,-0.01,4.8,12.5,-17,0,2018,5,17,19,22,40.164,0.2546,-0.5328,0.0986,0.8009
-0.031,-0.022,-0.008,3.6,6.6,-16.7,0,2018,5,17,19,22,40.18,0.2532,-0.5315,0.1013,0.8018
-0.103,-0.026,-0.004,0.3,-0.1,-14.3,0,2018,5,17,19,22,40.215,0.2515,-0.5307,0.1028,0.8027
-0.148,-0.077,-0.021,-2.4,-0.3,-12.9,0,2018,5,17,19,22,40.235,0.25,-0.5305,0.1032,0.8033
-0.186,-0.091,-0.032,-4.5,2.9,-12.2,0,2018,5,17,19,22,40.24,0.2485,-0.5306,0.1042,0.8035
-0.211,0.007,-0.03,-6.1,2.4,-8.8,1023,2018,5,17,19,22,40.278,0.2475,-0.5307,0.1056,0.8036
-0.198,0.013,-0.049,-6.6,1,-2.9,1023,2018,5,17,19,22,40.3,0.2469,-0.5309,0.1063,0.8035
-0.14,0.015,-0.067,-6.2,-4.6,2.4,1023,2018,5,17,19,22,40.304,0.2467,-0.5317,0.1064,0.8031
-0.092,0.026,-0.062,-4.8,-9.2,6.1,1023,2018,5,17,19,22,40.322,0.2465,-0.533,0.1053,0.8024
-0.056,0.031,-0.02,-4.5,-7.8,10.1,1023,2018,5,17,19,22,40.358,0.2465,-0.5343,0.1037,0.8018
-0.038,0.028,0.064,-7.9,0.1,12.3,1023,2018,5,17,19,22,40.379,0.2476,-0.5351,0.1025,0.8011
-0.001,0.025,0.071,-12.8,-2.5,12.8,1023,2018,5,17,19,22,40.384,0.2492,-0.5361,0.1018,0.8
0.012,-0.003,0.048,-17.8,-6.6,13.4,1023,2018,5,17,19,22,40.406,0.2503,-0.5383,0.1005,0.7983
0.014,0.034,0.041,-22.2,-10.6,15.6,1023,2018,5,17,19,22,40.426,0.251,-0.5414,0.099,0.7962
0.005,0.002,0.02,-25.1,-4.4,18.5,1023,2018,5,17,19,22,40.444,0.2522,-0.5452,0.0973,0.7934
0.03,-0.001,0,-26.8,5.8,21.6,1023,2018,5,17,19,22,40.463,0.2547,-0.5491,0.0967,0.79
0.054,0.009,0.019,-27.8,11.1,23.3,1023,2018,5,17,19,22,40.483,0.2581,-0.5529,0.0971,0.7862
0.055,-0.007,0.015,-27.5,11.9,23.9,1023,2018,5,17,19,22,40.523,0.262,-0.5566,0.0977,0.7822
0.034,0.011,0.022,-26.3,14.1,24.4,1023,2018,5,17,19,22,40.527,0.266,-0.5601,0.0985,0.7783
0,0.019,0.008,-24.5,17.4,25.3,1023,2018,5,17,19,22,40.543,0.2705,-0.563,0.0994,0.7744
0.015,0.031,-0.031,-21.9,17.4,26.9,0,2018,5,17,19,22,40.578,0.2752,-0.5659,0.1006,0.7706
-0.007,0.056,-0.045,-17.9,12.6,29.5,0,2018,5,17,19,22,40.599,0.2798,-0.5685,0.1013,0.7669
-0.068,0.032,-0.047,-14.7,8.8,32.7,0,2018,5,17,19,22,40.606,0.2844,-0.5709,0.1007,0.7635
-0.153,0.002,-0.046,-13,16.3,37.5,0,2018,5,17,19,22,40.625,0.2901,-0.5728,0.0993,0.76
-0.259,0.053,-0.025,-13.9,25.9,46.3,0,2018,5,17,19,22,40.644,0.2977,-0.5739,0.0985,0.7564
-0.328,0.125,-0.026,-17,34,62.1,0,2018,5,17,19,22,40.683,0.3078,-0.5746,0.0979,0.7519
-0.259,0.137,-0.049,-21.1,37.1,81.6,0,2018,5,17,19,22,40.687,0.3203,-0.5762,0.0966,0.7456
-0.266,0.165,-0.053,-24.4,39.2,101.3,0,2018,5,17,19,22,40.704,0.3354,-0.5782,0.0942,0.7377
-0.326,0.219,-0.037,-25.2,35.5,123.3,0,2018,5,17,19,22,40.723,0.3533,-0.5809,0.0891,0.7278
-0.387,0.253,-0.042,-25.2,30.7,147.6,0,2018,5,17,19,22,40.744,0.3733,-0.584,0.081,0.7161
-0.411,0.257,-0.091,-23.2,28.1,173.9,0,2018,5,17,19,22,40.766,0.3959,-0.5872,0.0698,0.7024
-0.362,0.23,-0.171,-17.4,28.8,200.5,0,2018,5,17,19,22,40.784,0.421,-0.5898,0.0559,0.6867
-0.343,0.137,-0.245,-5.6,39.4,222.6,0,2018,5,17,19,22,40.823,0.4493,-0.5906,0.0389,0.669
-0.306,0.135,-0.218,9.2,62.1,245.1,0,2018,5,17,19,22,40.843,0.4815,-0.5874,0.0204,0.65
-0.308,0.191,-0.167,25.6,88.3,265.5,0,2018,5,17,19,22,40.847,0.5179,-0.5793,0.0012,0.6293
-0.195,0.208,-0.075,58.5,109.1,294.7,0,2018,5,17,19,22,40.887,0.5982,-0.5479,-0.0422,0.583
-0.128,0.209,-0.101,79.2,109.3,301,0,2018,5,17,19,22,40.906,0.6376,-0.5262,-0.0669,0.5585
-0.111,0.095,-0.118,101.8,126.9,304.4,0,2018,5,17,19,22,40.91,0.6757,-0.5,-0.0938,0.5334
-0.08,-0.208,-0.019,119.4,164.4,292.7,0,2018,5,17,19,22,40.924,0.7131,-0.4669,-0.1202,0.5088
-0.001,-0.241,0.076,138.2,215.7,265.6,0,2018,5,17,19,22,40.962,0.7492,-0.4248,-0.1421,0.4876
0.032,-0.191,0.037,152.1,249.9,240.8,0,2018,5,17,19,22,40.981,0.7825,-0.3752,-0.1602,0.4702
0.031,-0.084,0.029,172.4,283.6,214,0,2018,5,17,19,22,40.987,0.812,-0.3188,-0.1751,0.4564
-0.153,-0.256,0.26,181.6,270.7,174.9,0,2018,5,17,19,22,41.008,0.8357,-0.2584,-0.1889,0.4461
-0.247,-0.254,0.385,177,219.7,140.5,1023,2018,5,17,19,22,41.028,0.8515,-0.2025,-0.2037,0.4386
-0.27,-0.175,0.413,164.4,134.3,114.6,1023,2018,5,17,19,22,41.048,0.8604,-0.1577,-0.2206,0.4313
-0.242,-0.108,0.306,149.6,42.7,95.9,1023,2018,5,17,19,22,41.067,0.8641,-0.1284,-0.241,0.4226
-0.254,-0.286,0.277,131.8,-11.7,83.3,1023,2018,5,17,19,22,41.109,0.8645,-0.1126,-0.2643,0.4122
-0.229,-0.28,0.239,116.6,-17.2,67.5,1023,2018,5,17,19,22,41.128,0.8635,-0.1027,-0.2859,0.4025
-0.164,-0.262,0.157,101.4,-17.1,60.9,1023,2018,5,17,19,22,41.133,0.8616,-0.0955,-0.3055,0.3938
-0.181,-0.696,0.356,80.7,52.5,41.9,1023,2018,5,17,19,22,41.151,0.8603,-0.0848,-0.3192,0.3881
-0.14,-0.562,0.559,56.9,149.7,10.6,1023,2018,5,17,19,22,41.168,0.8597,-0.0622,-0.3218,0.3915
-0.121,-0.043,0.659,31.9,112,-3.3,1023,2018,5,17,19,22,41.206,0.8586,-0.0383,-0.3188,0.3995
-0.009,0.273,0.457,5,26,-2.5,1023,2018,5,17,19,22,41.226,0.8577,-0.0269,-0.3166,0.404
0.089,0.272,0.135,-10.9,-62.8,2.8,1023,2018,5,17,19,22,41.23,0.8579,-0.031,-0.3175,0.4026
0.124,0.193,-0.016,-13.3,-102.1,8.9,1023,2018,5,17,19,22,41.249,0.8585,-0.0448,-0.3216,0.3968
0.109,0.09,-0.094,-9.4,-107.4,13.6,1023,2018,5,17,19,22,41.269,0.859,-0.0611,-0.3271,0.3889
0.067,0.053,-0.096,-4.3,-81.4,13.5,1023,2018,5,17,19,22,41.291,0.8593,-0.0749,-0.3323,0.3813
0.041,0.014,-0.082,1.2,-52.5,9.4,1023,2018,5,17,19,22,41.311,0.8592,-0.0843,-0.3367,0.3756
0.012,-0.04,-0.021,6.3,-19.2,5.4,1023,2018,5,17,19,22,41.331,0.8588,-0.0892,-0.3399,0.3725
-0.023,-0.108,0.011,9.1,11.6,-1.3,0,2018,5,17,19,22,41.351,0.8582,-0.0895,-0.3416,0.3723
-0.025,-0.114,-0.02,11.4,43.4,-7.4,0,2018,5,17,19,22,41.372,0.8574,-0.0856,-0.3417,0.375
-0.03,-0.06,-0.045,15.3,62.1,-12.6,0,2018,5,17,19,22,41.41,0.8564,-0.0777,-0.3406,0.38
-0.024,0.017,-0.04,18.8,65.8,-15.4,0,2018,5,17,19,22,41.43,0.855,-0.0677,-0.3393,0.3861
-0.042,0.07,-0.011,19.3,57.4,-14.6,0,2018,5,17,19,22,41.434,0.8535,-0.0575,-0.3381,0.392
-0.034,0.085,0.018,16.9,45.1,-12,0,2018,5,17,19,22,41.45,0.8522,-0.0488,-0.3371,0.397
-0.022,0.105,0.043,12.7,30.2,-8.1,0,2018,5,17,19,22,41.469,0.8512,-0.0418,-0.3363,0.4006
-0.025,0.108,0.057,7.1,11.3,-3.1,0,2018,5,17,19,22,41.49,0.8507,-0.0376,-0.3358,0.4025
-0.021,0.109,0.032,1.6,-7.2,1.7,0,2018,5,17,19,22,41.529,0.8508,-0.0366,-0.3357,0.4025
-0.02,0.098,0.013,-2.5,-21.6,6.6,0,2018,5,17,19,22,41.548,0.8513,-0.0381,-0.3363,0.4007
-0.03,0.067,0.014,-6,-30,9.7,0,2018,5,17,19,22,41.552,0.8522,-0.0415,-0.3372,0.3977
-0.033,0.045,0.02,-8.5,-31.1,12.3,0,2018,5,17,19,22,41.573,0.8533,-0.0452,-0.3383,0.3939
-0.018,0.029,0.019,-10.7,-28.8,12.3,0,2018,5,17,19,22,41.593,0.8546,-0.0491,-0.3389,0.3901
-0.011,-0.001,-0.009,-10.6,-27.4,10.5,0,2018,5,17,19,22,41.613,0.8558,-0.0532,-0.3395,0.3865
-0.028,-0.036,-0.021,-8.4,-24.7,7.8,0,2018,5,17,19,22,41.633,0.8566,-0.0575,-0.3402,0.3834
-0.015,-0.017,-0.004,-6.2,-16.7,4.4,0,2018,5,17,19,22,41.651,0.8571,-0.0607,-0.3408,0.3812
-0.018,-0.02,-0.011,-3.8,-10.9,1.6,0,2018,5,17,19,22,41.672,0.8574,-0.0631,-0.3412,0.3799
-0.001,0.007,-0.011,-2.1,-3.3,-0.4,0,2018,5,17,19,22,41.691,0.8575,-0.0644,-0.3413,0.3794
0.005,0.016,-0.001,-0.8,-0.6,-1.6,0,2018,5,17,19,22,41.712,0.8575,-0.0646,-0.3411,0.3794
0.011,0.011,-0.006,0,0.2,-2.5,0,2018,5,17,19,22,41.731,0.8574,-0.0646,-0.341,0.3797
0.014,0.012,0.002,0.3,0.4,-2.5,0,2018,5,17,19,22,41.752,0.8573,-0.0646,-0.3409,0.3801
0.012,0.016,0.009,0,-1.3,-1.6,1023,2018,5,17,19,22,41.79,0.8572,-0.0647,-0.3408,0.3804
0.015,0.013,0.005,-0.6,-3.6,-0.5,1023,2018,5,17,19,22,41.81,0.8572,-0.065,-0.3408,0.3804
0.018,0.008,0,-1.4,-5.3,0.5,1023,2018,5,17,19,22,41.814,0.8573,-0.0657,-0.3408,0.3801
0.015,0.001,-0.002,-2,-6,1.3,1023,2018,5,17,19,22,41.835,0.8574,-0.0666,-0.3409,0.3796
0.015,0.001,-0.012,-2.2,-5,1.7,1023,2018,5,17,19,22,41.853,0.8576,-0.0675,-0.3409,0.379
0.007,0.003,-0.004,-1.9,-2.9,1.6,1023,2018,5,17,19,22,41.875,0.8577,-0.0682,-0.3409,0.3785
0.007,0.003,0.003,-1.6,-1.6,1.7,1023,2018,5,17,19,22,41.895,0.858,-0.0685,-0.3407,0.3781
0.013,0.005,0.003,-1.1,-1.4,1.5,1023,2018,5,17,19,22,41.914,0.8582,-0.0687,-0.3406,0.3777
0.005,0.007,0,-1,-1.5,1.1,1023,2018,5,17,19,22,41.932,0.8583,-0.0688,-0.3405,0.3774
0.008,0.012,0,-0.7,-2.3,0.8,1023,2018,5,17,19,22,41.972,0.8585,-0.069,-0.3404,0.3771
0.008,0.017,-0.001,-0.6,-2.9,0.8,1023,2018,5,17,19,22,41.991,0.8586,-0.0693,-0.3404,0.3768
0.003,0.02,-0.001,-0.5,-5.3,0.5,1023,2018,5,17,19,22,41.995,0.8587,-0.0697,-0.3405,0.3765
-0.009,-0.002,0.028,-0.4,-11,-0.4,1023,2018,5,17,19,22,42.015,0.8586,-0.0708,-0.3409,0.376
-0.028,0.046,0.059,-1.5,-22.2,-1.7,1023,2018,5,17,19,22,42.036,0.8585,-0.0731,-0.3417,0.3751
-0.06,0.149,0.104,-6,-38.5,-1.8,1023,2018,5,17,19,22,42.058,0.8584,-0.0773,-0.3428,0.3735
-0.101,0.212,0.193,-16.4,-82.4,0.1,1023,2018,5,17,19,22,42.078,0.8582,-0.087,-0.345,0.3699
-0.15,0.176,0.243,-29.2,-144.7,0.2,0,2018,5,17,19,22,42.096,0.8577,-0.1054,-0.3487,0.3626
-0.275,0.084,0.402,-43.6,-238.8,-9,0,2018,5,17,19,22,42.115,0.8556,-0.1366,-0.3552,0.3506
-0.421,-0.176,0.473,-70.2,-325.9,-32.4,0,2018,5,17,19,22,42.155,0.85,-0.1838,-0.3632,0.3339
-0.447,-0.316,0.264,-93.3,-359.2,-66.6,0,2018,5,17,19,22,42.176,0.8393,-0.2435,-0.3691,0.316
-0.314,-0.869,0.258,-107,-304.9,-104.1,0,2018,5,17,19,22,42.18,0.8247,-0.3042,-0.3691,0.3014
-0.125,-0.816,0.355,-109.8,-179.5,-144.7,0,2018,5,17,19,22,42.194,0.8115,-0.3518,-0.3587,0.2981
-0.046,-0.746,0.404,-120.1,-111.4,-173,0,2018,5,17,19,22,42.234,0.8011,-0.3875,-0.3393,0.3046
0.015,-0.497,0.387,-124.7,-89.3,-198.1,0,2018,5,17,19,22,42.255,0.7912,-0.4184,-0.3136,0.3169
0.025,-0.513,0.347,-124.9,-94.8,-226.7,0,2018,5,17,19,22,42.259,0.7788,-0.4491,-0.2849,0.3322
0.041,-0.686,0.269,-120.1,-74.2,-258.9,0,2018,5,17,19,22,42.276,0.7629,-0.4799,-0.2534,0.3511
-0.007,-0.627,0.183,-112.6,-16.7,-290.5,0,2018,5,17,19,22,42.314,0.7461,-0.5048,-0.2172,0.3756
-0.058,-0.391,0.126,-108.7,34,-311.8,0,2018,5,17,19,22,42.334,0.7303,-0.5213,-0.1757,0.4047
-0.142,-0.388,0.067,-102.7,63.4,-329.9,0,2018,5,17,19,22,42.339,0.7145,-0.5311,-0.1295,0.4366
-0.211,-0.188,-0.039,-92.8,69.1,-342.1,0,2018,5,17,19,22,42.359,0.6959,-0.5366,-0.0806,0.4703
-0.273,-0.187,-0.124,-79.9,59.1,-347.4,0,2018,5,17,19,22,42.38,0.6733,-0.5397,-0.0325,0.5042
-0.33,-0.005,-0.157,-67.6,62.1,-345.5,0,2018,5,17,19,22,42.394,0.6476,-0.5398,0.0142,0.5375
-0.323,0.04,-0.241,-55.1,53.3,-332.9,0,2018,5,17,19,22,42.433,0.6199,-0.537,0.0586,0.5689
-0.342,0.121,-0.259,-40.3,42.4,-317.5,0,2018,5,17,19,22,42.453,0.5904,-0.5324,0.0988,0.5984
-0.311,0.234,-0.252,-26.6,25,-297.3,0,2018,5,17,19,22,42.457,0.5601,-0.5262,0.1346,0.6254
-0.175,0.111,-0.41,-8.6,-3.2,-273.1,0,2018,5,17,19,22,42.478,0.5287,-0.5199,0.1632,0.6507
-0.072,0.034,-0.394,13.2,4.6,-247.3,1023,2018,5,17,19,22,42.498,0.4986,-0.5117,0.1861,0.6743
-0.02,0.029,-0.314,28.2,16.1,-222.9,1023,2018,5,17,19,22,42.536,0.4724,-0.5,0.2065,0.6957
-0.131,0,-0.335,37.4,6.5,-199.3,1023,2018,5,17,19,22,42.556,0.4489,-0.4869,0.2236,0.715
-0.222,-0.02,-0.353,44.8,-27.2,-176.9,1023,2018,5,17,19,22,42.56,0.426,-0.4748,0.2349,0.7333
-0.273,-0.01,-0.394,52.8,-71.5,-153.6,1023,2018,5,17,19,22,42.581,0.4025,-0.4654,0.2383,0.7513
-0.293,-0.075,-0.372,63.9,-90.3,-127.2,1023,2018,5,17,19,22,42.599,0.3795,-0.4576,0.2343,0.7691
-0.413,-0.208,-0.401,76.3,-59.2,-109.3,1023,2018,5,17,19,22,42.619,0.3603,-0.4484,0.2284,0.7854
-0.455,-0.087,-0.414,87.2,-38,-93,1023,2018,5,17,19,22,42.656,0.346,-0.4358,0.2249,0.7997
-0.544,-0.038,-0.351,92.3,-7.7,-78.3,1023,2018,5,17,19,22,42.676,0.3359,-0.4211,0.2226,0.8125
-0.599,0.095,-0.235,92.7,-0.1,-58.6,1023,2018,5,17,19,22,42.68,0.3296,-0.4053,0.222,0.8232
-0.59,0.092,-0.168,90,17.2,-40.8,1023,2018,5,17,19,22,42.699,0.3265,-0.3897,0.2212,0.8321
-0.391,0.034,-0.043,73.5,64.6,-9.7,1023,2018,5,17,19,22,42.734,0.3344,-0.3421,0.2322,0.8468
-0.413,0.245,0.457,48.2,76.2,3.3,1023,2018,5,17,19,22,42.755,0.3414,-0.328,0.2405,0.8472
-0.355,0.053,0.381,10.8,29.7,10.7,1023,2018,5,17,19,22,42.759,0.346,-0.3215,0.2451,0.8466
-0.118,-0.06,-0.072,-7.4,41.6,6.3,1023,2018,5,17,19,22,42.798,0.3494,-0.3198,0.2499,0.8444
0.052,0.021,-0.386,-3.7,41.6,2,0,2018,5,17,19,22,42.818,0.352,-0.3186,0.2563,0.8418
0.135,-0.085,-0.524,14.5,47.5,-4.7,0,2018,5,17,19,22,42.823,0.3545,-0.3152,0.2623,0.8402
0.061,-0.061,-0.259,29.3,56.6,-14.6,0,2018,5,17,19,22,42.861,0.3569,-0.308,0.2692,0.8397
-0.014,0.399,-0.029,28.4,28.2,-10.7,0,2018,5,17,19,22,42.879,0.3588,-0.3001,0.2749,0.8399
-0.067,0.355,0.121,20.8,7.2,6,0,2018,5,17,19,22,42.884,0.3603,-0.2955,0.2753,0.8408
-0.042,0.251,0.049,15.7,21.8,20.8,0,2018,5,17,19,22,42.903,0.3641,-0.2926,0.2758,0.84
0.046,0.037,0.008,16.1,16.9,28.1,0,2018,5,17,19,22,42.942,0.3694,-0.2903,0.2765,0.8383
0.147,-0.16,0.013,16.5,28.8,23.4,0,2018,5,17,19,22,42.946,0.3752,-0.2879,0.2771,0.8363
0.105,0.027,0.089,13.5,18.5,19.1,0,2018,5,17,19,22,42.963,0.3804,-0.2852,0.2787,0.8343
0.023,-0.027,0.075,12.4,-19.8,17.5,0,2018,5,17,19,22,42.981,0.3837,-0.2844,0.2764,0.8338
0.026,-0.088,-0.142,16.2,-29.1,11.9,0,2018,5,17,19,22,43.001,0.3853,-0.2853,0.2706,0.8347
0.006,-0.166,-0.291,27,-2.4,2.8,0,2018,5,17,19,22,43.024,0.3865,-0.2836,0.2663,0.8361
-0.022,-0.509,-0.115,35.3,55.4,-13.6,0,2018,5,17,19,22,43.043,0.3885,-0.277,0.2679,0.8369
-0.046,-0.007,0.145,27,63.6,-27.2,0,2018,5,17,19,22,43.08,0.3902,-0.2664,0.2769,0.8366
-0.048,0.096,0.058,17.8,20.2,-28.6,0,2018,5,17,19,22,43.097,0.3888,-0.2588,0.2821,0.8379
-0.081,0.212,-0.118,17.4,27.3,-22.6,0,2018,5,17,19,22,43.104,0.3867,-0.2533,0.2856,0.8394
-0.11,0.239,0.004,18.5,33.3,-12.6,0,2018,5,17,19,22,43.143,0.3864,-0.2477,0.2896,0.8398
-0.052,0.33,0.111,12.4,43.3,-1.4,0,2018,5,17,19,22,43.147,0.3878,-0.2422,0.2946,0.839
0.004,0.447,0.108,5.5,-3,18,0,2018,5,17,19,22,43.163,0.3905,-0.2398,0.2971,0.8376
0.033,0.042,0.17,-1,-12.3,30.3,0,2018,5,17,19,22,43.18,0.3936,-0.2416,0.2934,0.8369
0.034,0.047,-0.014,-5.2,0.5,32.2,0,2018,5,17,19,22,43.203,0.398,-0.2436,0.2921,0.8347
0.053,-0.196,-0.286,5.3,-22.9,25,1023,2018,5,17,19,22,43.24,0.4017,-0.2464,0.2892,0.8331
0.07,-0.283,-0.226,17.8,-7.4,13.3,1023,2018,5,17,19,22,43.26,0.4043,-0.2467,0.2848,0.8333
0.028,-0.501,-0.078,25.7,43.2,-3.2,1023,2018,5,17,19,22,43.264,0.4068,-0.2427,0.2852,0.8331
-0.032,-0.262,0.135,23.2,107.5,-21.3,1023,2018,5,17,19,22,43.285,0.4095,-0.2325,0.2957,0.831
-0.077,0.011,0.293,9.7,116.6,-28.5,1023,2018,5,17,19,22,43.305,0.4112,-0.2204,0.3123,0.8274
-0.081,0.151,0.198,-3.9,102.9,-28,1023,2018,5,17,19,22,43.344,0.4112,-0.2106,0.3291,0.8234
-0.033,0.321,0.053,-8.8,67.6,-18,1023,2018,5,17,19,22,43.364,0.4106,-0.2041,0.3427,0.8198
-0.011,0.251,0.013,-9,65,-5.4,1023,2018,5,17,19,22,43.368,0.4105,-0.2003,0.3526,0.8166
0.017,0.227,-0.063,-3.8,77.2,7,1023,2018,5,17,19,22,43.386,0.4129,-0.196,0.3635,0.8117
0.079,0.07,-0.04,1.6,87.1,14.5,1023,2018,5,17,19,22,43.423,0.4171,-0.191,0.3749,0.8055
0.101,-0.039,0.019,3.5,104.7,13.2,1023,2018,5,17,19,22,43.444,0.4227,-0.1853,0.3877,0.7978
0.115,0.106,0.185,-3.5,111.6,14,1023,2018,5,17,19,22,43.448,0.4282,-0.1781,0.4023,0.7893
0.123,0.079,0.224,-14.2,96,11.1,1023,2018,5,17,19,22,43.466,0.4326,-0.1721,0.4164,0.7808
0.182,-0.113,0.176,-20.6,78.3,0.8,1023,2018,5,17,19,22,43.487,0.435,-0.1687,0.4287,0.7736
0.18,-0.263,0.123,-22.9,64.1,-15.4,1023,2018,5,17,19,22,43.523,0.4343,-0.1658,0.4401,0.7681
0.158,-0.262,-0.027,-22.7,51.1,-37.5,0,2018,5,17,19,22,43.546,0.4306,-0.1624,0.4505,0.7649
0.102,-0.386,-0.147,-13.1,31.9,-59.9,0,2018,5,17,19,22,43.55,0.4237,-0.1579,0.4585,0.7649
0.055,-0.574,-0.21,-4.5,52.3,-85.1,0,2018,5,17,19,22,43.568,0.4144,-0.1503,0.4662,0.7669
-0.022,-0.44,-0.256,-1.3,114.4,-104.4,0,2018,5,17,19,22,43.586,0.4033,-0.1367,0.4799,0.7669
-0.112,-0.197,-0.318,8.2,194.9,-116,0,2018,5,17,19,22,43.624,0.3924,-0.1155,0.5034,0.7609
-0.175,0.147,-0.253,14.1,181.6,-116.2,0,2018,5,17,19,22,43.645,0.3815,-0.0901,0.5307,0.7514
-0.244,0.214,-0.282,23.3,104.4,-110.7,0,2018,5,17,19,22,43.649,0.3704,-0.0675,0.5498,0.7455
-0.195,0.083,-0.319,38.3,26.8,-105.3,0,2018,5,17,19,22,43.668,0.3601,-0.049,0.557,0.7467
-0.183,0.089,-0.03,37,5.8,-93.5,0,2018,5,17,19,22,43.687,0.3508,-0.0335,0.5561,0.7526
-0.222,0.35,0.283,12.1,115.4,-58.8,0,2018,5,17,19,22,43.723,0.3435,-0.0194,0.5625,0.7517
-0.155,0.951,0.203,-9.5,73.2,-22.1,0,2018,5,17,19,22,43.745,0.3384,-0.0087,0.5774,0.7428
-0.057,0.495,-0.023,-20,-13.1,6.9,0,2018,5,17,19,22,43.75,0.3361,-0.0088,0.5812,0.7409
-0.006,0.146,-0.247,-21.3,-40,22.7,0,2018,5,17,19,22,43.769,0.336,-0.0151,0.5785,0.743
0.052,-0.278,-0.323,-10.2,-13.3,18.6,0,2018,5,17,19,22,43.806,0.3372,-0.0212,0.5755,0.7446
0.029,-0.302,-0.06,-4.3,28,0.7,0,2018,5,17,19,22,43.827,0.3379,-0.0223,0.5773,0.7429
0.015,-0.169,0.083,-10,4.4,-12,0,2018,5,17,19,22,43.831,0.3364,-0.0213,0.5804,0.7412
-0.016,-0.072,0.082,-14.6,-13.1,-22.2,0,2018,5,17,19,22,43.849,0.3329,-0.0218,0.5798,0.7432
-0.064,0.122,0.012,-13.9,-15.3,-23.5,0,2018,5,17,19,22,43.89,0.3281,-0.0215,0.5786,0.7463
-0.072,0.065,-0.042,-9.4,-29.2,-17.4,0,2018,5,17,19,22,43.894,0.3235,-0.0215,0.5768,0.7497
-0.079,0.005,0.038,-8.1,-29.5,-13.5,0,2018,5,17,19,22,43.91,0.3201,-0.0221,0.5733,0.7538
-0.028,0.166,0.005,-8.1,-18.9,-1.4,1023,2018,5,17,19,22,43.929,0.3178,-0.0231,0.5705,0.7569
0.027,0.195,-0.075,-2.5,-28.3,13,1023,2018,5,17,19,22,43.965,0.3177,-0.0255,0.5678,0.7588
0.054,-0.012,-0.054,2.8,15.8,19.1,1023,2018,5,17,19,22,43.985,0.3199,-0.0278,0.5674,0.7581
0.081,0.095,0.078,7.1,19.1,17.2,1023,2018,5,17,19,22,43.99,0.3232,-0.0278,0.5703,0.7545
0.128,-0.087,0.227,-2.5,-14.7,11,1023,2018,5,17,19,22,44.009,0.3256,-0.029,0.5699,0.7538
0.117,-0.187,0.084,-12.2,-10.2,-2.9,1023,2018,5,17,19,22,44.03,0.3252,-0.0313,0.5684,0.755
0.136,-0.159,-0.109,-10.2,-1,-19.4,1023,2018,5,17,19,22,44.05,0.3224,-0.0321,0.5686,0.756
0.095,0.022,-0.191,-0.8,-7,-29.2,1023,2018,5,17,19,22,44.071,0.3185,-0.0305,0.5686,0.7577
0,0.088,-0.128,6.3,-10,-28.8,1023,2018,5,17,19,22,44.09,0.3148,-0.0277,0.5672,0.7604
-0.095,0.013,0.042,10,-4.2,-25.8,1023,2018,5,17,19,22,44.11,0.3117,-0.0236,0.5662,0.7626
-0.086,0.075,0.063,5.3,6.4,-14.3,1023,2018,5,17,19,22,44.149,0.3095,-0.02,0.5657,0.764
-0.097,0.233,-0.027,-0.2,-0.3,1.9,1023,2018,5,17,19,22,44.17,0.3086,-0.0184,0.5662,0.764
-0.055,0.059,-0.115,-0.2,11,10.8,1023,2018,5,17,19,22,44.174,0.3096,-0.0191,0.5667,0.7632
-0.023,0.036,-0.042,6.1,-3,14.1,1023,2018,5,17,19,22,44.193,0.3115,-0.0195,0.5676,0.7617
0.021,-0.2,0.062,3.8,-4.4,8,1023,2018,5,17,19,22,44.214,0.3137,-0.0202,0.5663,0.7618
0.067,-0.207,0.003,1.6,-12.7,-2.8,0,2018,5,17,19,22,44.231,0.3142,-0.0205,0.5651,0.7625
0.045,-0.247,0.075,-3.1,18.6,-16.4,0,2018,5,17,19,22,44.27,0.3129,-0.0196,0.5651,0.7631
0.016,0.048,-0.011,-8.3,32.2,-23,0,2018,5,17,19,22,44.291,0.3097,-0.0169,0.5694,0.7612
0.061,0.047,-0.173,-4.9,17,-26.7,0,2018,5,17,19,22,44.295,0.3057,-0.014,0.5735,0.7598
0.006,-0.022,-0.105,0.2,3.9,-28.6,0,2018,5,17,19,22,44.314,0.3017,-0.0111,0.5749,0.7604
-0.076,0.074,0.157,-2.7,14.9,-25.5,0,2018,5,17,19,22,44.333,0.298,-0.0078,0.5761,0.761
-0.081,0.209,0.097,-9.4,12.4,-12.9,0,2018,5,17,19,22,44.369,0.2946,-0.0057,0.5784,0.7605
-0.032,0.262,-0.053,-9.8,0.9,2.7,0,2018,5,17,19,22,44.39,0.2927,-0.0058,0.5798,0.7603
0.044,0.297,-0.102,-5.2,-8.9,17.4,0,2018,5,17,19,22,44.394,0.2933,-0.008,0.5798,0.76
0.065,0.027,-0.065,1.1,-12.9,23.1,0,2018,5,17,19,22,44.412,0.2959,-0.0112,0.5787,0.7598
0.079,-0.114,0.107,4.1,-7.4,17.4,0,2018,5,17,19,22,44.43,0.2992,-0.0139,0.5772,0.7595
0.074,-0.341,0.154,-1.6,-6.9,0.8,0,2018,5,17,19,22,44.45,0.3007,-0.0151,0.5759,0.7599
0.006,-0.495,0.001,-11.6,26.4,-20.9,0,2018,5,17,19,22,44.489,0.2987,-0.0146,0.5775,0.7596
-0.034,-0.316,-0.115,-15.5,54.2,-41,0,2018,5,17,19,22,44.51,0.2931,-0.0109,0.5842,0.7566
-0.066,-0.168,-0.133,-17,34.8,-50.8,0,2018,5,17,19,22,44.514,0.2853,-0.0063,0.5917,0.7538
-0.19,-0.033,-0.041,-18.6,23.5,-51.1,0,2018,5,17,19,22,44.533,0.2764,-0.0016,0.5966,0.7533
-0.295,0.097,0.075,-23.2,36.6,-40.1,0,2018,5,17,19,22,44.553,0.2681,0.0018,0.6013,0.7526
-0.353,0.198,0.064,-35.7,53.2,-20.5,0,2018,5,17,19,22,44.575,0.2611,0.0034,0.6089,0.7489
-0.325,0.15,0.036,-57.1,34.6,-1.7,0,2018,5,17,19,22,44.594,0.2547,0.0005,0.6169,0.7446
-0.201,0.231,-0.102,-80.3,-15.2,20.8,0,2018,5,17,19,22,44.634,0.2485,-0.0091,0.6213,0.7429
-0.122,0.611,-0.175,-92.9,-89.9,45.1,1023,2018,5,17,19,22,44.638,0.2432,-0.0261,0.6186,0.7465
-0.136,0.668,-0.302,-100.2,-220.9,70.1,1023,2018,5,17,19,22,44.655,0.2394,-0.0519,0.6011,0.7606
-0.038,0.4,-0.336,-110.2,-254.9,88.1,1023,2018,5,17,19,22,44.674,0.2365,-0.0845,0.5711,0.7814
0.131,0.284,-0.331,-112.1,-226.4,98.1,1023,2018,5,17,19,22,44.709,0.2343,-0.1191,0.5406,0.799
0.212,0.087,-0.207,-99.4,-150.6,97.3,1023,2018,5,17,19,22,44.73,0.2337,-0.1509,0.5158,0.8102
0.246,0.456,-0.232,-81.4,-109.6,104,1023,2018,5,17,19,22,44.734,0.2365,-0.1775,0.4997,0.814
0.331,0.444,-0.352,-54.1,-156.3,113.1,1023,2018,5,17,19,22,44.756,0.2419,-0.2019,0.4801,0.8186
0.293,0.101,-0.48,-26,-191.5,115.1,1023,2018,5,17,19,22,44.773,0.2485,-0.2246,0.452,0.8266
0.183,-0.342,-0.386,8.9,-170.8,106.5,1023,2018,5,17,19,22,44.812,0.2564,-0.2424,0.4207,0.8357
0.085,-0.399,-0.348,39.4,-116.3,94.4,1023,2018,5,17,19,22,44.832,0.2668,-0.2521,0.3947,0.8422
-0.088,-0.565,-0.222,60.3,-89.9,74.9,1023,2018,5,17,19,22,44.836,0.2784,-0.255,0.3737,0.8472
-0.232,-0.738,0.014,63.9,-99.3,47.6,1023,2018,5,17,19,22,44.875,0.2873,-0.2541,0.354,0.8529
-0.132,-0.97,0.16,49.4,-72.5,10.8,1023,2018,5,17,19,22,44.896,0.2907,-0.2519,0.3358,0.8597
-0.178,-0.376,0.856,10.9,46.1,-6.6,1023,2018,5,17,19,22,44.9,0.2924,-0.2474,0.333,0.8615
-0.301,0.391,0.633,-29,-7.9,-7.3,1023,2018,5,17,19,22,44.918,0.2914,-0.2472,0.3382,0.8599
-0.006,0.245,0.122,-43.8,-9.9,9,1023,2018,5,17,19,22,44.957,0.2885,-0.2541,0.3374,0.8592
0.123,0.136,-0.255,-33,35.5,21,0,2018,5,17,19,22,44.961,0.2892,-0.2602,0.3408,0.8558
0.171,0.168,-0.28,-16,48.8,29.2,0,2018,5,17,19,22,44.976,0.2936,-0.263,0.3477,0.8506
0.18,0.173,-0.199,-1.3,32.1,35.7,0,2018,5,17,19,22,44.997,0.2999,-0.264,0.3528,0.846
0.19,0.054,-0.182,11.1,-6.9,37.7,0,2018,5,17,19,22,45.018,0.3064,-0.2649,0.3527,0.8434
0.083,-0.533,-0.222,24.9,-49.4,19.4,0,2018,5,17,19,22,45.038,0.3105,-0.2658,0.3457,0.8446
0.008,-0.683,-0.216,38.5,-56.8,-19.9,0,2018,5,17,19,22,45.057,0.3097,-0.2637,0.3358,0.8495
-0.142,-0.54,0.153,35.1,-1,-39.2,0,2018,5,17,19,22,45.097,0.3054,-0.2582,0.3295,0.8552
-0.255,-0.262,0.496,11,104,-55,0,2018,5,17,19,22,45.118,0.3025,-0.2488,0.3394,0.8551
-0.19,0.325,0.486,-18.5,101.1,-59.4,0,2018,5,17,19,22,45.122,0.298,-0.2401,0.3586,0.8514
-0.056,0.725,0.19,-33.7,37.9,-32.2,0,2018,5,17,19,22,45.14,0.2921,-0.2376,0.3725,0.8481
0.021,0.538,-0.158,-29.2,-20.5,2.5,0,2018,5,17,19,22,45.178,0.288,-0.2414,0.3751,0.8473
0.106,0.557,-0.298,-14.8,-18.1,35.6,0,2018,5,17,19,22,45.182,0.2886,-0.2471,0.3722,0.8467
0.108,0.372,-0.309,6.4,-11.4,63.8,0,2018,5,17,19,22,45.197,0.2953,-0.2518,0.3678,0.845
-0.005,-0.062,-0.224,23.6,-5.9,73.4,0,2018,5,17,19,22,45.217,0.3065,-0.2543,0.363,0.8423
-0.059,-0.55,-0.221,39,-45.4,50,0,2018,5,17,19,22,45.256,0.3167,-0.2549,0.3547,0.8419
-0.084,-0.408,-0.101,40.7,-91.1,22,0,2018,5,17,19,22,45.278,0.321,-0.2549,0.3401,0.8462
-0.109,-0.729,0.175,28.4,-20.2,1.3,0,2018,5,17,19,22,45.282,0.3217,-0.2542,0.3274,0.8512
-0.132,-0.185,0.429,5,100.5,-20.7,0,2018,5,17,19,22,45.299,0.3235,-0.2481,0.335,0.8494
-0.044,0.236,0.34,-17.4,67.5,-26.9,0,2018,5,17,19,22,45.339,0.323,-0.2425,0.3498,0.8452
0.045,0.265,0.014,-23.8,42.8,-12.9,0,2018,5,17,19,22,45.358,0.3208,-0.2416,0.3596,0.8422
-0.021,0.512,-0.117,-16.6,16.9,11.3,0,2018,5,17,19,22,45.363,0.3206,-0.2429,0.3653,0.8394
-0.044,0.542,-0.153,-3.6,3.4,43,0,2018,5,17,19,22,45.379,0.3243,-0.2458,0.3657,0.837
-0.077,0.293,-0.073,7.4,12.4,70.3,0,2018,5,17,19,22,45.398,0.3333,-0.2487,0.3641,0.8332
-0.131,0.041,0.114,12.4,16.4,82,1023,2018,5,17,19,22,45.419,0.3459,-0.2511,0.3624,0.8281
-0.216,-0.138,0.2,8.6,-5.1,79.3,1023,2018,5,17,19,22,45.438,0.3586,-0.2543,0.359,0.8232
-0.127,-0.548,0.205,1.2,20,69.1,1023,2018,5,17,19,22,45.458,0.3696,-0.2582,0.3555,0.8186
0.023,-0.544,0.222,-8,101.8,48.1,1023,2018,5,17,19,22,45.498,0.3806,-0.2582,0.3619,0.8107
0.093,-0.13,0.266,-20.2,99.4,29.4,1023,2018,5,17,19,22,45.519,0.3899,-0.2552,0.3766,0.8005
0.174,-0.029,0.253,-35.8,65.6,14,1023,2018,5,17,19,22,45.523,0.3945,-0.255,0.3889,0.7924
0.24,0.094,0.11,-48.6,28.8,6.9,1023,2018,5,17,19,22,45.541,0.3951,-0.2585,0.3974,0.7867
0.378,0.079,-0.149,-47.6,11.8,0,1023,2018,5,17,19,22,45.561,0.3931,-0.2644,0.4032,0.7828
0.39,0.246,-0.014,-46.7,-14.9,-7.4,1023,2018,5,17,19,22,45.598,0.3893,-0.2703,0.4068,0.7808
0.413,0.178,-0.109,-45.2,-60.5,-8.3,1023,2018,5,17,19,22,45.62,0.3828,-0.279,0.4045,0.7822
0.435,0.02,-0.232,-36.1,-48.1,-13.7,1023,2018,5,17,19,22,45.624,0.3757,-0.2876,0.4,0.7848
0.444,0.072,-0.286,-19.6,-38.1,-22.5,1023,2018,5,17,19,22,45.644,0.3691,-0.2928,0.3971,0.7875
0.347,0.151,-0.254,-2.4,-36.2,-31,1023,2018,5,17,19,22,45.664,0.3629,-0.2946,0.3942,0.7912
0.19,0.048,-0.224,11.1,-56.4,-33.2,0,2018,5,17,19,22,45.681,0.3564,-0.2946,0.3892,0.7966
0.036,-0.263,-0.418,27.8,-63.5,-41.6,0,2018,5,17,19,22,45.72,0.3493,-0.2932,0.3814,0.804
-0.256,-0.341,-0.332,70.2,-69,-59.4,0,2018,5,17,19,22,45.739,0.3338,-0.2807,0.3597,0.8248
-0.382,-0.268,-0.218,79.1,-42.9,-63.6,0,2018,5,17,19,22,45.743,0.3267,-0.2691,0.3502,0.8355
-0.445,-0.108,-0.2,83.3,-18.3,-61.5,0,2018,5,17,19,22,45.762,0.321,-0.2549,0.3442,0.8446
-0.459,-0.083,-0.142,84.1,9.1,-52.4,0,2018,5,17,19,22,45.782,0.3173,-0.2394,0.3412,0.8517
-0.506,0.152,0.494,65,55.5,-35.9,0,2018,5,17,19,22,45.823,0.3165,-0.2237,0.3435,0.8553
-0.567,0.629,1.142,4.7,34.9,-9.9,0,2018,5,17,19,22,45.827,0.3175,-0.214,0.3506,0.8546
-0.363,0.173,0.434,-33.6,2,25,0,2018,5,17,19,22,45.844,0.318,-0.2167,0.3522,0.8531
0.003,-0.116,-0.36,-35.6,48.2,34.3,0,2018,5,17,19,22,45.883,0.3215,-0.2226,0.3572,0.8481
0.229,0.021,-0.276,-17.5,40.3,30.2,0,2018,5,17,19,22,45.903,0.3266,-0.2257,0.3648,0.8421
0.181,-0.037,0,-9.2,12.2,21.5,0,2018,5,17,19,22,45.907,0.3304,-0.228,0.3678,0.8387
0.254,-0.041,-0.224,-3.8,10.9,11.3,0,2018,5,17,19,22,45.921,0.3328,-0.2294,0.3692,0.8367
0.305,-0.04,-0.504,18.4,1.9,4.9,0,2018,5,17,19,22,45.96,0.3346,-0.2286,0.3696,0.8361
0.163,-0.043,-0.436,50.8,-9.2,-1.5,0,2018,5,17,19,22,45.98,0.3369,-0.2238,0.3667,0.8377
-0.013,-0.14,-0.122,75.3,-1.5,-8.3,0,2018,5,17,19,22,45.984,0.3403,-0.2142,0.3621,0.8409
-0.217,0.289,0.817,43,33.9,1.1,0,2018,5,17,19,22,46.005,0.3441,-0.2034,0.3612,0.8424
-0.332,0.137,0.692,0.2,33.1,15.9,0,2018,5,17,19,22,46.024,0.3481,-0.1989,0.3647,0.8403
-0.14,-0.072,0.175,-27.1,56.1,19,0,2018,5,17,19,22,46.046,0.3512,-0.1997,0.3719,0.8356
-0.047,-0.17,-0.209,-29.8,52.5,15.8,1023,2018,5,17,19,22,46.066,0.354,-0.202,0.3807,0.8299
-0.039,-0.227,-0.312,-18,49.9,7.3,1023,2018,5,17,19,22,46.084,0.3559,-0.2031,0.389,0.825
0,-0.071,-0.209,-8.2,58.6,-2.7,1023,2018,5,17,19,22,46.12,0.3573,-0.2016,0.3979,0.8205
0.075,0.165,-0.192,0,3,-6.6,1023,2018,5,17,19,22,46.14,0.3574,-0.1996,0.4033,0.8183
0.103,0.009,-0.206,11.1,-42,-9.1,1023,2018,5,17,19,22,46.144,0.3558,-0.1998,0.3995,0.8208
0.013,0,0.006,14.5,-33.4,-11.5,1023,2018,5,17,19,22,46.164,0.3539,-0.1998,0.3934,0.8246
-0.075,0.121,0.239,5,-19.1,-9.5,1023,2018,5,17,19,22,46.203,0.3521,-0.1988,0.3893,0.8275
-0.027,0.062,0.217,-11.5,-1.1,-2.4,1023,2018,5,17,19,22,46.222,0.3506,-0.1996,0.3882,0.8285
-0.038,0.063,0.114,-23.5,4.2,1.6,1023,2018,5,17,19,22,46.226,0.3494,-0.2014,0.3896,0.8279
-0.055,0.039,0.009,-27.8,-8,2.9,1023,2018,5,17,19,22,46.245,0.3477,-0.2047,0.3908,0.8272
-0.043,-0.042,-0.079,-25.5,-9.7,4.4,1023,2018,5,17,19,22,46.265,0.3458,-0.2093,0.3909,0.8268
-0.011,-0.045,-0.096,-20,2.9,5.3,1023,2018,5,17,19,22,46.302,0.3449,-0.2135,0.3919,0.8257
0,-0.054,0.001,-15.9,21,4.8,1023,2018,5,17,19,22,46.323,0.3451,-0.2162,0.3945,0.8236
0,-0.006,0.098,-18.3,23.5,2,1023,2018,5,17,19,22,46.327,0.3456,-0.2172,0.3983,0.8213
0.032,-0.013,0.072,-25,20,0,1023,2018,5,17,19,22,46.348,0.3452,-0.219,0.402,0.8192
0.003,0.034,0.047,-30.7,13.8,0.5,1023,2018,5,17,19,22,46.368,0.3439,-0.2218,0.406,0.817
-0.032,0.014,0.009,-34.7,9.6,2.8,1023,2018,5,17,19,22,46.409,0.3422,-0.2257,0.4094,0.815
-0.124,0.042,0.008,-39.4,1.3,6.4,0,2018,5,17,19,22,46.427,0.3401,-0.2303,0.4124,0.8131
-0.215,0.038,-0.022,-45.2,-10,13.9,0,2018,5,17,19,22,46.431,0.3382,-0.2373,0.4138,0.8111
-0.313,0.061,-0.101,-48.8,-21.3,25.9,0,2018,5,17,19,22,46.446,0.3369,-0.2463,0.4135,0.8091
-0.362,0.089,-0.147,-50.2,-35.9,41.3,0,2018,5,17,19,22,46.466,0.3369,-0.2574,0.411,0.8069
-0.321,0.086,-0.244,-50.5,-57.4,56,0,2018,5,17,19,22,46.487,0.3381,-0.2707,0.4051,0.805
-0.374,0.015,-0.258,-54.2,-71.6,71.6,0,2018,5,17,19,22,46.523,0.3402,-0.2865,0.3957,0.8034
-0.41,0.029,-0.298,-61.2,-74.2,89.4,0,2018,5,17,19,22,46.544,0.3438,-0.3044,0.3849,0.8005
-0.421,0.083,-0.26,-68.6,-96,111.1,0,2018,5,17,19,22,46.548,0.3488,-0.3251,0.3716,0.7965
-0.342,0.155,-0.274,-78.8,-129.4,136.2,0,2018,5,17,19,22,46.586,0.3547,-0.3502,0.3531,0.7916
-0.35,0.157,-0.311,-88.3,-147.7,161.6,0,2018,5,17,19,22,46.606,0.3612,-0.3795,0.3293,0.7854
-0.395,0.204,-0.373,-95.8,-153.4,188.1,0,2018,5,17,19,22,46.61,0.3697,-0.4113,0.3027,0.7761
-0.281,0.231,-0.503,-97.1,-162.8,213.2,0,2018,5,17,19,22,46.631,0.38,-0.4449,0.2727,0.7636
-0.106,0.191,-0.602,-87.6,-157.5,235.1,0,2018,5,17,19,22,46.648,0.3924,-0.4781,0.2395,0.7483
0.026,0.134,-0.613,-69.6,-142.4,257.6,0,2018,5,17,19,22,46.685,0.4083,-0.5081,0.2045,0.7301
-0.013,0.018,-0.557,-48.8,-140,276.2,0,2018,5,17,19,22,46.706,0.4274,-0.5343,0.1669,0.7098
0.032,-0.059,-0.571,-28.9,-158.8,281.4,0,2018,5,17,19,22,46.711,0.4463,-0.5576,0.1249,0.6886
0.207,-0.12,-0.597,5.8,-143.5,279.9,0,2018,5,17,19,22,46.729,0.4638,-0.5764,0.0796,0.668
0.361,-0.192,-0.43,56.4,-81.7,279.5,1023,2018,5,17,19,22,46.766,0.4846,-0.585,0.0353,0.6493
0.45,-0.286,-0.33,110,-7.7,260.8,1023,2018,5,17,19,22,46.787,0.511,-0.5797,-0.0042,0.6346
0.316,-0.255,-0.375,158.7,31.9,231.6,1023,2018,5,17,19,22,46.791,0.539,-0.5623,-0.0396,0.6258
0.261,-0.267,-0.334,194,48.9,203.5,1023,2018,5,17,19,22,46.811,0.5648,-0.5367,-0.0731,0.6224
0.35,-0.468,-0.194,213.5,74.8,168.3,1023,2018,5,17,19,22,46.834,0.5872,-0.5053,-0.1041,0.6236
0.247,-0.92,-0.109,219.2,108.5,120.3,1023,2018,5,17,19,22,46.855,0.6065,-0.4689,-0.1289,0.6289
0,-0.84,-0.025,216.5,129.3,65.3,1023,2018,5,17,19,22,46.891,0.6206,-0.4295,-0.1462,0.6393
0.024,-0.678,0.078,200.7,137.7,23.9,1023,2018,5,17,19,22,46.911,0.6296,-0.3901,-0.1568,0.6532
0.063,-0.593,0.107,181.9,121.1,-8.6,1023,2018,5,17,19,22,46.915,0.6333,-0.3536,-0.1633,0.6686
-0.068,-0.613,0.121,163.9,138.5,-28.5,1023,2018,5,17,19,22,46.936,0.6333,-0.32,-0.1664,0.6846
-0.289,-0.357,0.176,148.4,184.6,-44.3,1023,2018,5,17,19,22,46.951,0.6329,-0.2841,-0.1618,0.7017
-0.42,0.073,0.159,134.4,201.5,-51.6,1023,2018,5,17,19,22,46.972,0.6321,-0.2461,-0.1504,0.7191
-0.573,0.557,0.197,114.2,107.8,-45.2,1023,2018,5,17,19,22,47.01,0.6291,-0.2137,-0.1422,0.7336
-0.864,0.451,1.129,54.8,112.5,2.4,1023,2018,5,17,19,22,47.029,0.6277,-0.1913,-0.1383,0.7416
-1.224,0.942,2.427,-50.4,-172.4,-5.8,1023,2018,5,17,19,22,47.033,0.6259,-0.195,-0.143,0.7413
-1.138,-1.596,0.869,-144.4,-88,-10.4,1023,2018,5,17,19,22,47.071,0.6224,-0.2284,-0.1531,0.7327
-0.188,-0.543,-0.21,-135.5,36.3,-59.9,0,2018,5,17,19,22,47.092,0.621,-0.2473,-0.1355,0.7312
0.013,-0.68,-0.717,-89.3,-17.3,-98.9,0,2018,5,17,19,22,47.118,0.6137,-0.2628,-0.1188,0.7349
-0.031,-0.6,-0.671,-33.7,5.2,-144.3,0,2018,5,17,19,22,47.136,0.5985,-0.2739,-0.1082,0.7449
-0.03,-0.084,-0.485,3.5,17.5,-172.9,0,2018,5,17,19,22,47.138,0.5785,-0.2762,-0.0967,0.7613
-0.015,0.031,-0.249,14.4,7,-173,0,2018,5,17,19,22,47.153,0.5551,-0.2771,-0.088,0.7792
-0.044,0.386,0.031,15.8,-73.1,-168.6,0,2018,5,17,19,22,47.191,0.53,-0.2798,-0.0851,0.7958
-0.066,0.619,0.11,9.1,-90.9,-145.1,0,2018,5,17,19,22,47.192,0.5031,-0.2886,-0.091,0.8094
-0.37,1.085,0.392,-4.7,-54.9,-99.6,0,2018,5,17,19,22,47.213,0.482,-0.2968,-0.0955,0.8187
-0.436,0.883,0.112,-8.5,52.9,-51.3,0,2018,5,17,19,22,47.249,0.4715,-0.2997,-0.0913,0.8243
-0.424,1.525,-0.145,15,101,6,0,2018,5,17,19,22,47.27,0.4728,-0.292,-0.077,0.8277
-0.413,1.327,-0.186,38.9,57.9,68.8,0,2018,5,17,19,22,47.271,0.482,-0.2811,-0.0705,0.8267
-0.518,0.736,-0.166,53.6,72.4,112.9,0,2018,5,17,19,22,47.307,0.4976,-0.2681,-0.0704,0.8219
-0.514,0.726,-0.054,60.1,140.2,156,0,2018,5,17,19,22,47.328,0.521,-0.2487,-0.0663,0.8137
-0.206,0.544,-0.04,61.7,167.4,190.9,0,2018,5,17,19,22,47.336,0.5516,-0.2235,-0.0572,0.8015
0.049,0.404,0.122,60.2,170,207.5,0,2018,5,17,19,22,47.356,0.5852,-0.1955,-0.0461,0.7855
0.068,0.106,0.454,45.7,13.2,222.5,0,2018,5,17,19,22,47.374,0.6172,-0.1764,-0.0465,0.7652
-0.072,-1.094,0.257,13.1,-66.2,214.7,0,2018,5,17,19,22,47.397,0.6444,-0.1761,-0.0635,0.7413
0.347,-1.146,-0.18,13.8,24.5,204.2,0,2018,5,17,19,22,47.417,0.6701,-0.1754,-0.0754,0.7172
0.439,-0.544,-0.31,33.5,95.4,172.8,1023,2018,5,17,19,22,47.435,0.6951,-0.1609,-0.075,0.6966
0.154,-0.338,-0.272,48.9,66.8,167.7,1023,2018,5,17,19,22,47.454,0.7166,-0.1439,-0.0755,0.6782
0.14,-0.078,-0.307,65.7,37.7,166.6,1023,2018,5,17,19,22,47.492,0.7369,-0.127,-0.0801,0.659
-0.042,-0.303,-0.079,65.7,-51.9,157.2,1023,2018,5,17,19,22,47.513,0.7541,-0.1182,-0.093,0.6392
-0.318,-0.995,0.127,51.1,-77.7,131.6,1023,2018,5,17,19,22,47.515,0.7675,-0.1195,-0.1124,0.6195
-0.685,-1.355,0.656,18,-14.5,76.2,1023,2018,5,17,19,22,47.536,0.7768,-0.1201,-0.1245,0.6053
-0.763,-0.902,0.762,-20.3,-39.1,-1.4,1023,2018,5,17,19,22,47.557,0.7805,-0.1213,-0.1262,0.6
-0.629,-0.705,0.419,-45.2,-118.7,-67.6,1023,2018,5,17,19,22,47.577,0.7753,-0.1378,-0.1297,0.6024
-0.472,-0.766,0.116,-49.1,-113.6,-125.7,1023,2018,5,17,19,22,47.598,0.7631,-0.161,-0.133,0.6115
-0.475,-0.752,0.037,-47.1,-139.5,-179.1,1023,2018,5,17,19,22,47.635,0.7436,-0.1863,-0.1355,0.6275
-0.324,-0.947,-0.095,-42.7,-117.2,-220.7,1023,2018,5,17,19,22,47.658,0.7174,-0.2138,-0.1379,0.6484
-0.22,-0.5,-0.027,-41.1,-48,-242.2,1023,2018,5,17,19,22,47.662,0.6884,-0.2334,-0.1325,0.6737
-0.203,-0.115,-0.071,-44.5,-51.3,-251.6,1023,2018,5,17,19,22,47.68,0.6578,-0.2491,-0.1223,0.7001
-0.268,-0.195,-0.155,-44.8,-20.8,-259.6,1023,2018,5,17,19,22,47.7,0.625,-0.2648,-0.1111,0.7258
-0.114,0.077,-0.358,-36.5,18,-263.3,0,2018,5,17,19,22,47.715,0.5924,-0.2741,-0.0933,0.7517
-0.097,0.343,-0.395,-28,-12.3,-246.8,0,2018,5,17,19,22,47.755,0.5588,-0.2821,-0.077,0.7759
-0.135,0.549,-0.127,-16.1,-110.8,-237.1,0,2018,5,17,19,22,47.776,0.5226,-0.2934,-0.0708,0.7973
-0.109,0.058,-0.154,-15.4,-38.1,-222.6,0,2018,5,17,19,22,47.78,0.4858,-0.3065,-0.0709,0.8154
-0.221,1.517,0.229,-16.3,-39.2,-179.1,0,2018,5,17,19,22,47.797,0.4552,-0.3122,-0.0609,0.8315
-0.327,1.589,0.284,-28.1,-119.3,-111.3,0,2018,5,17,19,22,47.819,0.4305,-0.3237,-0.0639,0.84
-0.576,0.955,0.459,-40.4,-97.5,-63.8,0,2018,5,17,19,22,47.838,0.4107,-0.3396,-0.0753,0.8427
-0.326,0.87,-0.044,-18.7,84.3,-10.4,0,2018,5,17,19,22,47.875,0.4058,-0.3449,-0.0712,0.8433
-0.202,1.247,-0.152,25.9,145.8,47,0,2018,5,17,19,22,47.896,0.4164,-0.3346,-0.0535,0.8436
-0.282,0.872,-0.078,62.4,135.1,85,0,2018,5,17,19,22,47.901,0.4342,-0.3169,-0.0401,0.8422
-0.333,0.581,0.088,78.5,119.5,118.6,0,2018,5,17,19,22,47.92,0.4554,-0.2959,-0.0328,0.8389
-0.274,0.611,0.16,84.5,126.3,152.7,0,2018,5,17,19,22,47.941,0.4812,-0.273,-0.0281,0.8325
-0.167,0.555,0.227,81.3,106.7,184.9,0,2018,5,17,19,22,47.96,0.5106,-0.2501,-0.0263,0.8221
-0.004,0.276,0.181,76.8,115.8,197.1,0,2018,5,17,19,22,47.978,0.5422,-0.2278,-0.0257,0.8083
0.049,-0.167,0.163,71.1,105.2,195.8,0,2018,5,17,19,22,47.998,0.5737,-0.2056,-0.0248,0.7923
0.132,-0.381,0,71.6,178,189.1,0,2018,5,17,19,22,48.021,0.6042,-0.1817,-0.0196,0.7755
0.165,0.417,0.073,66.9,91.2,189.9,0,2018,5,17,19,22,48.058,0.634,-0.1551,-0.0115,0.7574
0.017,0.207,0.125,52.8,-89.1,185.5,0,2018,5,17,19,22,48.076,0.6588,-0.1474,-0.0223,0.7373
-0.102,-0.503,-0.176,29.4,-103.3,189.9,0,2018,5,17,19,22,48.08,0.6794,-0.1566,-0.0469,0.7152
0.034,-0.335,-0.406,30.9,-42.8,168.6,0,2018,5,17,19,22,48.12,0.6999,-0.1589,-0.0625,0.6934
-0.207,-0.152,-0.42,34.7,-30.1,176.9,1023,2018,5,17,19,22,48.141,0.7189,-0.1581,-0.0763,0.6725
0.005,0.196,-0.688,63.9,3.8,178.5,1023,2018,5,17,19,22,48.145,0.7388,-0.15,-0.0877,0.651
-0.556,-0.667,0.096,51.1,-82.6,155.9,1023,2018,5,17,19,22,48.159,0.7555,-0.1467,-0.1057,0.6296
-0.589,-0.713,0.426,25.3,-72.8,111.5,1023,2018,5,17,19,22,48.196,0.7669,-0.1499,-0.1225,0.6118
-0.481,-0.501,0.327,-7.7,-117.7,80.6,1023,2018,5,17,19,22,48.217,0.7742,-0.1596,-0.1361,0.597
-0.222,-0.43,0.157,-24.9,-98.5,50.4,1023,2018,5,17,19,22,48.221,0.7779,-0.175,-0.1472,0.5851
-0.091,-0.252,0.148,-40.1,-88.8,42.3,1023,2018,5,17,19,22,48.239,0.7803,-0.1897,-0.1535,0.5756
0.048,0.015,-0.031,-49.7,-48.5,50.8,1023,2018,5,17,19,22,48.278,0.7837,-0.2031,-0.1561,0.5658
0.051,0.28,-0.053,-50.9,-58,66.1,1023,2018,5,17,19,22,48.298,0.7892,-0.2126,-0.1553,0.5547
0.077,0.372,0,-45.8,-179.1,82.8,1023,2018,5,17,19,22,48.302,0.7932,-0.2312,-0.1626,0.5393
-0.076,-0.491,-0.244,-25.3,-270.5,62.5,1023,2018,5,17,19,22,48.342,0.7912,-0.2652,-0.1826,0.5198
-0.428,-1.038,-0.044,16.1,-258,-4.1,1023,2018,5,17,19,22,48.361,0.7806,-0.3016,-0.2074,0.5065
-0.808,-0.516,0.214,33.8,-230,-60.3,1023,2018,5,17,19,22,48.365,0.7628,-0.3334,-0.2306,0.5035
-0.629,-0.915,-0.16,51.4,-114.7,-108.7,1023,2018,5,17,19,22,48.385,0.7428,-0.3566,-0.2468,0.5098
-0.644,-0.597,-0.344,73.2,16.2,-142.8,1023,2018,5,17,19,22,48.405,0.726,-0.3615,-0.2503,0.5286
-0.596,-0.055,-0.184,78.9,21.4,-164.9,1023,2018,5,17,19,22,48.425,0.7093,-0.3577,-0.2478,0.5544
-0.483,0.12,-0.076,72.4,-32.3,-163.8,0,2018,5,17,19,22,48.462,0.6895,-0.3576,-0.2472,0.5791
-0.146,0.005,-0.091,60.8,-83.3,-152.7,0,2018,5,17,19,22,48.483,0.6663,-0.3652,-0.2516,0.5994
0.113,-0.032,-0.039,47.3,-44.7,-139.1,0,2018,5,17,19,22,48.488,0.6436,-0.3745,-0.2561,0.6162
0.228,0.349,0.068,28.6,23.1,-119.3,0,2018,5,17,19,22,48.503,0.6272,-0.3771,-0.2527,0.6327
0.286,0.707,0.077,16.9,46.4,-93.9,0,2018,5,17,19,22,48.541,0.617,-0.3749,-0.2436,0.6475
0.59,0.635,-0.012,13.2,78.5,-67.1,0,2018,5,17,19,22,48.56,0.6111,-0.3705,-0.2332,0.6594
0.751,1.745,0.55,-5.5,27.4,-17.6,0,2018,5,17,19,22,48.564,0.6102,-0.3637,-0.2229,0.6675
0.683,1.24,0.529,-30.4,-12.1,42.6,0,2018,5,17,19,22,48.601,0.6119,-0.3667,-0.223,0.6642
0.584,1.023,0.234,-34.5,42.4,88.9,0,2018,5,17,19,22,48.623,0.6224,-0.366,-0.2215,0.6552
0.533,0.53,0.155,-21.1,94.7,116.9,0,2018,5,17,19,22,48.627,0.6393,-0.3582,-0.2178,0.6444
0.432,0.554,0.187,-4.5,149.7,136,0,2018,5,17,19,22,48.647,0.662,-0.3397,-0.2092,0.6343
0.158,0.596,0.309,-0.1,21.5,161.1,0,2018,5,17,19,22,48.668,0.6836,-0.3239,-0.2078,0.62
0.158,0.473,0.208,-1.4,38,196.4,0,2018,5,17,19,22,48.688,0.7044,-0.3144,-0.2151,0.5988
-0.162,-0.01,0.34,-10.5,-25.3,209.2,0,2018,5,17,19,22,48.703,0.7259,-0.3065,-0.2248,0.5731
-0.274,-0.9,-0.068,-4.4,110.5,204.1,0,2018,5,17,19,22,48.74,0.7486,-0.2944,-0.2309,0.5472
-0.419,-0.261,0.005,12,212.5,182.4,0,2018,5,17,19,22,48.76,0.7748,-0.2627,-0.2243,0.5293
-0.429,-0.502,0.143,13.6,187.7,157.7,0,2018,5,17,19,22,48.764,0.7991,-0.2268,-0.2144,0.5137
-0.571,-0.07,0.288,7.2,-53.2,140.4,0,2018,5,17,19,22,48.804,0.8148,-0.2092,-0.2151,0.4959
-0.478,-0.111,0.117,-6.8,-225.6,108.6,1023,2018,5,17,19,22,48.822,0.819,-0.2269,-0.2332,0.4724
-0.546,-0.278,-0.254,-37.8,-263.4,102.4,1023,2018,5,17,19,22,48.826,0.8171,-0.2626,-0.256,0.4446
-0.342,-0.765,-0.508,-31.8,-116.9,66.7,1023,2018,5,17,19,22,48.864,0.8163,-0.2879,-0.2688,0.4222
-0.322,-0.923,-0.612,-4.6,15.2,17.8,1023,2018,5,17,19,22,48.884,0.8178,-0.2941,-0.2714,0.4133
-0.465,-0.396,-0.329,18.9,45.7,-30.5,1023,2018,5,17,19,22,48.888,0.8189,-0.2876,-0.2694,0.417
-0.462,-0.163,0.014,17.3,-25.3,-63.9,1023,2018,5,17,19,22,48.907,0.815,-0.2867,-0.2689,0.4256
-0.396,-0.033,-0.031,8.8,-121.9,-79.2,1023,2018,5,17,19,22,48.944,0.8054,-0.2993,-0.2723,0.4329
-0.459,-0.868,-0.391,14.1,-120.7,-118.3,1023,2018,5,17,19,22,48.948,0.7897,-0.3235,-0.2792,0.4401
-0.455,-0.87,-0.617,43.8,13.8,-159.6,1023,2018,5,17,19,22,48.967,0.7743,-0.335,-0.2788,0.4586
-0.479,-0.092,-0.469,71,111.2,-167,1023,2018,5,17,19,22,49.004,0.7621,-0.3276,-0.2709,0.4881
-0.574,-0.047,-0.125,70.3,62.1,-174.5,1023,2018,5,17,19,22,49.025,0.7492,-0.3171,-0.2626,0.5186
-0.572,0.333,0.198,54.2,-50.1,-181.4,1023,2018,5,17,19,22,49.03,0.7302,-0.3178,-0.2602,0.5459
-0.342,0.049,-0.027,42.7,-181.4,-185.8,1023,2018,5,17,19,22,49.047,0.7032,-0.3373,-0.2674,0.5657
-0.152,-0.576,-0.483,59.2,-168.5,-190.2,1023,2018,5,17,19,22,49.086,0.6707,-0.3633,-0.2806,0.5824
-0.109,-0.759,-0.129,66.2,18.1,-186.2,1023,2018,5,17,19,22,49.106,0.643,-0.3755,-0.2839,0.6039
-0.186,0.321,0.276,61,86.3,-188.3,0,2018,5,17,19,22,49.11,0.6243,-0.3691,-0.2708,0.6329
-0.025,0.715,0.403,33.4,-35.3,-178.5,0,2018,5,17,19,22,49.149,0.6032,-0.3692,-0.261,0.6568
0.227,0.146,0.005,32.4,-45.6,-171.4,0,2018,5,17,19,22,49.168,0.5776,-0.3795,-0.2595,0.6744
0.23,0.054,0.149,27.1,-13,-165.7,0,2018,5,17,19,22,49.172,0.5543,-0.3868,-0.2548,0.6914
0.322,0.3,-0.009,37.7,74.7,-157.9,0,2018,5,17,19,22,49.191,0.5352,-0.3868,-0.2425,0.7106
0.171,0.33,0.057,30.4,89.3,-149.6,0,2018,5,17,19,22,49.207,0.5203,-0.3813,-0.225,0.7302
0.13,0.854,0.079,27.1,93.6,-129,0,2018,5,17,19,22,49.242,0.5075,-0.3738,-0.2055,0.7485
0.156,1.207,0.11,19.6,-6.7,-91.3,0,2018,5,17,19,22,49.263,0.4948,-0.3709,-0.1952,0.7612
0.071,1.232,0.217,10.6,-62.4,-48.7,0,2018,5,17,19,22,49.268,0.4829,-0.374,-0.1961,0.767
0.196,0.871,0.042,7.1,-58.3,2.8,0,2018,5,17,19,22,49.306,0.4753,-0.3796,-0.2049,0.7667
0.195,1.248,0.042,10,63.2,61.3,0,2018,5,17,19,22,49.327,0.4798,-0.3768,-0.2069,0.7648
0.071,1.013,0.202,8.1,103.1,108.2,0,2018,5,17,19,22,49.331,0.4968,-0.3651,-0.202,0.7609
0.262,0.569,0.233,7.8,169.8,132.3,0,2018,5,17,19,22,49.351,0.5217,-0.3473,-0.1912,0.7553
0.165,0.428,0.295,5.2,82.5,142.8,0,2018,5,17,19,22,49.389,0.5476,-0.3291,-0.1823,0.7473
0.1,0.143,0.402,-3.7,18.6,152.6,0,2018,5,17,19,22,49.411,0.5689,-0.3201,-0.1852,0.7345
0.017,0.412,0.148,-14.5,-102.8,169.8,0,2018,5,17,19,22,49.415,0.5874,-0.3201,-0.1986,0.7162
-0.243,-0.514,0.251,-24,-73.8,141.4,0,2018,5,17,19,22,49.429,0.603,-0.3264,-0.2158,0.695
-0.157,-0.578,0.173,-45.1,-319.5,127,0,2018,5,17,19,22,49.449,0.6096,-0.3458,-0.2431,0.6704
-0.135,-0.535,-0.338,-50.9,-455,91.2,0,2018,5,17,19,22,49.469,0.5985,-0.3879,-0.2902,0.638
-0.433,-0.995,-0.09,-47,-497.4,46,1023,2018,5,17,19,22,49.507,0.5726,-0.4397,-0.3432,0.6006
-0.589,0.165,-0.81,-43.9,-538.3,-1,1023,2018,5,17,19,22,49.528,0.5365,-0.4929,-0.3921,0.5615
-0.472,-0.852,-1.879,-2.1,-547.5,-62.1,1023,2018,5,17,19,22,49.532,0.4838,-0.548,-0.4399,0.5215
-0.126,-0.477,-1.63,72.7,-362.5,-61.8,1023,2018,5,17,19,22,49.552,0.4293,-0.5866,-0.477,0.4939
-0.109,-0.448,-1.273,144.1,-194.9,-41,1023,2018,5,17,19,22,49.572,0.387,-0.6007,-0.5029,0.4862
-0.445,0.096,-0.448,179.6,-83.5,-25.4,1023,2018,5,17,19,22,49.612,0.3553,-0.5982,-0.5213,0.4939
-0.584,0.366,0.379,170.5,-57.5,-12.6,1023,2018,5,17,19,22,49.632,0.3316,-0.5875,-0.5353,0.508
-0.543,0.098,0.496,145.5,-110.6,-14,1023,2018,5,17,19,22,49.636,0.3064,-0.5795,-0.5508,0.5164
-0.198,-0.129,0.063,137.5,-115,-9.2,1023,2018,5,17,19,22,49.655,0.2799,-0.5744,-0.5671,0.5196
-0.11,0.072,0.127,141.3,-61.7,0.3,1023,2018,5,17,19,22,49.691,0.258,-0.5652,-0.5812,0.5254
-0.014,0.143,0.202,138.1,-47.7,4.9,1023,2018,5,17,19,22,49.711,0.2386,-0.5542,-0.5924,0.5336
0.001,0.3,0.5,121.3,-6,10.2,0,2018,5,17,19,22,49.715,0.2236,-0.5418,-0.6006,0.5437
-0.008,0.154,0.849,87.1,-14.7,5.8,0,2018,5,17,19,22,49.73,0.2126,-0.5312,-0.6061,0.5524
0.185,0.187,0.813,45.9,-50.7,9.7,0,2018,5,17,19,22,49.768,0.2032,-0.5254,-0.6123,0.5546
0.204,-0.081,0.438,10.3,-105.3,7.8,0,2018,5,17,19,22,49.789,0.194,-0.5245,-0.622,0.5478
0.218,-0.394,0.058,9.4,-49.7,-4.1,0,2018,5,17,19,22,49.793,0.1851,-0.5266,-0.6307,0.5389
0.196,-0.251,-0.036,20.2,49.5,-8.3,0,2018,5,17,19,22,49.813,0.1832,-0.5257,-0.6297,0.5417
0.197,-0.049,0.122,23.3,90.7,-10.8,0,2018,5,17,19,22,49.833,0.1864,-0.5222,-0.622,0.5527
0.054,0.327,0.341,8.6,73.6,-2.8,0,2018,5,17,19,22,49.855,0.1915,-0.5186,-0.6136,0.5636
-0.129,0.25,0.149,-10.6,31.1,8.8,0,2018,5,17,19,22,49.874,0.1969,-0.5166,-0.6088,0.5688
-0.16,0.076,-0.122,-14.2,32.1,13.3,0,2018,5,17,19,22,49.896,0.2023,-0.5156,-0.6066,0.5701
-0.183,0.112,0.04,-14.6,34.7,10.4,0,2018,5,17,19,22,49.915,0.2081,-0.5143,-0.6038,0.5722
-0.118,0.357,0.18,-32.9,12.7,7,0,2018,5,17,19,22,49.932,0.2135,-0.5149,-0.6012,0.5725
0.022,0.458,0.395,-63.6,-0.5,15.5,0,2018,5,17,19,22,49.952,0.22,-0.5184,-0.5999,0.5682
0.287,0.15,0.168,-101.7,19.1,34.9,0,2018,5,17,19,22,49.972,0.2448,-0.5288,-0.5971,0.5511
0.262,-0.05,0.19,-119,11.6,35.2,0,2018,5,17,19,22,50.009,0.2614,-0.5349,-0.5934,0.5416
0.022,-0.354,0.113,-125,-65.8,11.1,0,2018,5,17,19,22,50.03,0.274,-0.545,-0.5921,0.5264
-0.103,-0.596,0.165,-123.7,-145,-16.8,0,2018,5,17,19,22,50.034,0.276,-0.5618,-0.5958,0.5029
-0.049,-0.585,-0.043,-111,-123.2,-52.4,0,2018,5,17,19,22,50.072,0.2709,-0.5826,-0.5987,0.4781
-0.281,0.126,-0.239,-104.2,-100.2,-53.1,0,2018,5,17,19,22,50.094,0.2668,-0.602,-0.5963,0.459
-0.612,-0.342,-0.903,-58,-73.8,-50.8,0,2018,5,17,19,22,50.098,0.2616,-0.6181,-0.5943,0.4427
-0.791,0.35,-1.136,9.2,-43,-11.2,0,2018,5,17,19,22,50.118,0.2555,-0.6261,-0.5938,0.4359
-0.761,0.295,-0.722,63.7,75,19.7,0,2018,5,17,19,22,50.137,0.2533,-0.6218,-0.5949,0.4417
-0.614,0.322,-0.252,88.1,152.9,45.7,1023,2018,5,17,19,22,50.155,0.261,-0.6065,-0.5926,0.4612
-0.449,0.353,0.119,91.1,154.4,57.3,1023,2018,5,17,19,22,50.174,0.2728,-0.5859,-0.589,0.485
-0.398,0.413,0.382,71.3,78.6,56.4,1023,2018,5,17,19,22,50.194,0.2812,-0.5672,-0.5886,0.5027
-0.355,0.093,0.394,36.4,34.3,51.9,1023,2018,5,17,19,22,50.233,0.2852,-0.5545,-0.5923,0.5101
-0.239,-0.035,0.334,2.8,75.2,46.9,1023,2018,5,17,19,22,50.253,0.2924,-0.5452,-0.5934,0.5147
-0.105,-0.104,0.267,-26.8,150.4,48,1023,2018,5,17,19,22,50.257,0.3088,-0.5356,-0.5869,0.5226
0.026,-0.29,0.314,-54.1,238.9,45.3,1023,2018,5,17,19,22,50.277,0.3357,-0.5234,-0.5705,0.5363
0.09,0.27,0.539,-87.1,220.1,43.2,1023,2018,5,17,19,22,50.297,0.3685,-0.5112,-0.5471,0.5508
0.029,0.343,0.577,-123.4,102.5,56,1023,2018,5,17,19,22,50.317,0.3973,-0.5062,-0.529,0.553
0.093,0.225,0.302,-151.7,47.5,72.1,1023,2018,5,17,19,22,50.337,0.4221,-0.5089,-0.5183,0.5422
0.229,-0.099,0.035,-163.2,57.2,87.4,1023,2018,5,17,19,22,50.375,0.4482,-0.5129,-0.509,0.5262
0.274,-0.362,-0.188,-160.3,110.9,93.3,1023,2018,5,17,19,22,50.396,0.4782,-0.5128,-0.4963,0.5116
0.303,-0.264,-0.25,-146.2,146.5,94.4,1023,2018,5,17,19,22,50.4,0.5112,-0.5072,-0.4799,0.5009
0.282,-0.107,-0.132,-130.3,203.3,102.7,1023,2018,5,17,19,22,50.418,0.5462,-0.4949,-0.4607,0.4942
0.272,0.084,-0.063,-120.3,243.5,118.9,1023,2018,5,17,19,22,50.44,0.5849,-0.4744,-0.4381,0.4905
0.202,0.096,-0.083,-107.7,237.5,129.1,1023,2018,5,17,19,22,50.479,0.6237,-0.4493,-0.4155,0.4862
0.128,-0.025,-0.163,-90,237,132.3,1023,2018,5,17,19,22,50.482,0.6597,-0.4218,-0.3944,0.4807
0.077,0.063,-0.143,-71.8,230.5,131.3,0,2018,5,17,19,22,50.498,0.6926,-0.3921,-0.3748,0.4752
0.067,0.087,-0.127,-53.3,202.7,129.5,0,2018,5,17,19,22,50.518,0.7211,-0.363,-0.358,0.4689
-0.012,-0.046,-0.09,-34.2,133.8,122.7,0,2018,5,17,19,22,50.537,0.7441,-0.3377,-0.3467,0.4604
-0.096,-0.192,-0.18,-22.7,62.6,116.7,0,2018,5,17,19,22,50.576,0.7603,-0.3208,-0.3432,0.4484
-0.043,-0.248,-0.294,-3.5,60.1,104.5,0,2018,5,17,19,22,50.598,0.7728,-0.3075,-0.343,0.4364
-0.069,-0.206,-0.263,12,75.2,94.6,0,2018,5,17,19,22,50.601,0.7834,-0.292,-0.3438,0.4272
-0.07,-0.091,-0.17,22.7,79.7,86.8,0,2018,5,17,19,22,50.621,0.793,-0.2742,-0.3449,0.4205
-0.055,-0.009,-0.18,28.9,71.4,85.5,0,2018,5,17,19,22,50.642,0.801,-0.2569,-0.3471,0.4143
-0.026,-0.186,-0.193,34.5,94.9,86.7,0,2018,5,17,19,22,50.679,0.809,-0.2378,-0.3493,0.4085
-0.019,-0.071,-0.172,44.3,101.6,82.5,0,2018,5,17,19,22,50.683,0.8165,-0.2155,-0.3511,0.4043
0.024,0.086,-0.214,53.8,85.8,86.8,0,2018,5,17,19,22,50.7,0.8227,-0.1933,-0.3545,0.3999
0.014,0.206,-0.237,65.8,55,93.5,0,2018,5,17,19,22,50.72,0.8275,-0.1734,-0.3612,0.3932
-0.017,0.267,-0.233,78.2,20.2,101.7,0,2018,5,17,19,22,50.758,0.8305,-0.1569,-0.372,0.3835
-0.054,0.167,-0.168,86.1,-5,112,0,2018,5,17,19,22,50.779,0.8322,-0.1436,-0.3865,0.3705
-0.305,-1.131,0.394,62.6,63.3,103.1,0,2018,5,17,19,22,50.783,0.8341,-0.1291,-0.4002,0.3569
-0.19,-1.638,0.654,38.9,331.9,27.8,0,2018,5,17,19,22,50.8,0.839,-0.0917,-0.3951,0.3624
-0.132,0.09,0.734,32.1,260.2,-10,0,2018,5,17,19,22,50.838,0.8403,-0.0415,-0.38,0.3842
0.065,0.701,0.312,3.3,43.9,-12.5,0,2018,5,17,19,22,50.859,0.8391,-0.0198,-0.3719,0.3962
0.261,0.252,-0.003,5.2,-55.4,-1.6,0,2018,5,17,19,22,50.863,0.8385,-0.0233,-0.3736,0.3959
-0.217,0.594,0.235,-29.3,-154.1,-15.2,1023,2018,5,17,19,22,50.884,0.8378,-0.0392,-0.3785,0.3913
0.494,-0.084,-0.025,43.2,-100.8,30.3,1023,2018,5,17,19,22,50.906,0.8368,-0.0576,-0.3909,0.3789
-0.03,-0.053,0.145,28.9,-31.6,28.9,1023,2018,5,17,19,22,50.92,0.8355,-0.0617,-0.4001,0.3713
-1.655,-0.266,0.279,-7.5,17.3,-15.8,1023,2018,5,17,19,22,50.956,0.8355,-0.0587,-0.4035,0.3681
-0.169,0.158,0.092,37.1,43.9,47.8,1023,2018,5,17,19,22,50.977,0.8365,-0.0478,-0.4057,0.3649
-0.022,0.073,0.119,23.4,18.5,57,1023,2018,5,17,19,22,50.982,0.8379,-0.0377,-0.4085,0.3597
-0.1,-0.037,0.093,19.7,15,60,1023,2018,5,17,19,22,51.001,0.8404,-0.0301,-0.4104,0.3524
0.038,0.059,-0.046,7.2,-9,50.5,1023,2018,5,17,19,22,51.02,0.8429,-0.0248,-0.4127,0.3441
-0.056,-0.026,-0.114,0.8,-19.5,49.7,1023,2018,5,17,19,22,51.06,0.8454,-0.0232,-0.415,0.3353
-0.05,-0.047,-0.117,2.8,3.6,33.6,1023,2018,5,17,19,22,51.08,0.8475,-0.0217,-0.416,0.3287
-0.029,0.037,-0.018,3.9,18.7,24,1023,2018,5,17,19,22,51.084,0.8487,-0.0177,-0.4165,0.3253
-0.074,0.06,-0.053,-3.3,23.2,20.6,1023,2018,5,17,19,22,51.104,0.8497,-0.0126,-0.4157,0.3237
0.054,-0.053,-0.084,-3.1,47.1,18.9,1023,2018,5,17,19,22,51.124,0.851,-0.0071,-0.4135,0.3235
-0.027,-0.021,-0.012,2.2,84.4,13.3,1023,2018,5,17,19,22,51.163,0.8517,0.0033,-0.4103,0.3257
-0.131,0.131,0.061,-1.1,84.3,16.1,1023,2018,5,17,19,22,51.183,0.8522,0.0176,-0.4055,0.3299
-0.215,0.062,0.014,-1.6,105,18.1,1023,2018,5,17,19,22,51.187,0.8529,0.0327,-0.3998,0.3338
-0.316,0.08,0.138,-6.7,105.5,25.3,0,2018,5,17,19,22,51.225,0.8537,0.0498,-0.3928,0.338
-0.258,0.034,0.137,-15,108.3,27.7,0,2018,5,17,19,22,51.229,0.8549,0.0673,-0.385,0.3409
-0.257,0.076,0.258,-23,118.9,24.9,0,2018,5,17,19,22,51.245,0.8562,0.0855,-0.3752,0.3444
-0.167,0.164,0.292,-32.6,128.1,23.3,0,2018,5,17,19,22,51.266,0.8575,0.1047,-0.3627,0.3492
-0.109,0.245,0.209,-43.8,107.2,23.7,0,2018,5,17,19,22,51.285,0.859,0.1217,-0.3491,0.3539
-0.034,0.244,0.076,-52.1,60,23.3,0,2018,5,17,19,22,51.304,0.8614,0.1324,-0.3362,0.3566
0.071,0.211,0.046,-55.6,14.9,26.7,0,2018,5,17,19,22,51.323,0.8654,0.1354,-0.325,0.3563
0.085,0.134,-0.011,-59.4,-28.2,30.5,0,2018,5,17,19,22,51.363,0.8706,0.1321,-0.3161,0.3529
0.147,0.06,-0.203,-60.8,-60.5,31.7,0,2018,5,17,19,22,51.385,0.8769,0.1234,-0.3087,0.3468
0.173,-0.123,-0.5,-49.9,-73.4,38.5,0,2018,5,17,19,22,51.389,0.8835,0.1103,-0.3036,0.339
0.178,-0.166,-0.233,-26.1,-48.5,38.6,0,2018,5,17,19,22,51.406,0.8888,0.1009,-0.301,0.3303
0.125,-0.228,-0.165,-20.1,-24.2,43.6,0,2018,5,17,19,22,51.446,0.8931,0.096,-0.2988,0.3221
0.064,-0.119,-0.044,-13.1,31.2,38.9,0,2018,5,17,19,22,51.45,0.896,0.0993,-0.2953,0.316
-0.088,-0.087,-0.093,-12.1,20.8,39.1,0,2018,5,17,19,22,51.464,0.8983,0.1044,-0.2911,0.3119
0.304,-0.063,-0.297,-6.1,7.7,30.9,0,2018,5,17,19,22,51.484,0.9004,0.1074,-0.288,0.3076
0.081,-0.025,-0.253,3.9,-12.8,26.6,0,2018,5,17,19,22,51.505,0.9017,0.1087,-0.2886,0.3029
0.178,-0.151,-0.234,7.6,-19.1,26.5,0,2018,5,17,19,22,51.526,0.9029,0.1076,-0.2908,0.2975
-0.13,-0.024,-0.105,12.4,-32.3,22.9,0,2018,5,17,19,22,51.546,0.904,0.106,-0.2933,0.2922
-0.205,-0.104,-0.141,6.9,-66.5,22.1,0,2018,5,17,19,22,51.565,0.9053,0.0997,-0.2977,0.2859
-0.151,-0.201,-0.175,8.7,-58.6,19.9,1023,2018,5,17,19,22,51.603,0.907,0.0908,-0.3017,0.279
-0.204,-0.149,-0.046,11,-25.6,13.5,1023,2018,5,17,19,22,51.624,0.9079,0.0857,-0.3052,0.274
-0.123,-0.065,0.005,12.4,-6.4,7.8,1023,2018,5,17,19,22,51.629,0.9078,0.0843,-0.308,0.2715
-0.137,-0.03,0.017,8.2,-4.2,1.6,1023,2018,5,17,19,22,51.648,0.9073,0.0842,-0.3107,0.2703
-0.123,-0.04,-0.009,6.8,6.8,-3,1023,2018,5,17,19,22,51.688,0.9064,0.0847,-0.3128,0.2705
-0.125,-0.044,0.049,4.1,6.9,-5.7,1023,2018,5,17,19,22,51.692,0.9055,0.086,-0.3145,0.2714
-0.118,0.014,0.101,0,12.9,-9.7,1023,2018,5,17,19,22,51.709,0.9046,0.0875,-0.3149,0.2732
0.016,0.053,0.09,-4.9,17.9,-11.9,1023,2018,5,17,19,22,51.727,0.9041,0.0894,-0.3137,0.2758
0.054,0.08,0.053,-7.1,18.5,-10.1,1023,2018,5,17,19,22,51.746,0.9039,0.092,-0.3111,0.2785
0.022,0.076,0.032,-7.4,7.9,-6.4,1023,2018,5,17,19,22,51.768,0.9039,0.0939,-0.3087,0.2805
-0.053,0.11,0.102,-7.4,-4.5,0.2,1023,2018,5,17,19,22,51.805,0.9042,0.0945,-0.3072,0.2809
-0.011,0.081,0.173,-8.8,-18.6,6,1023,2018,5,17,19,22,51.824,0.9053,0.093,-0.3058,0.2795
0.066,0.047,0.186,-14.1,-28.2,9.9,1023,2018,5,17,19,22,51.828,0.9067,0.0894,-0.3048,0.2771
0.068,0.068,-0.074,-20.5,-51.2,6.9,1023,2018,5,17,19,22,51.851,0.9089,0.0828,-0.3032,0.2737
0.068,0.02,-0.141,-23.6,-69.9,5.6,1023,2018,5,17,19,22,51.87,0.911,0.0732,-0.303,0.2696
0.085,-0.001,-0.189,-18.5,-73.8,0.4,0,2018,5,17,19,22,51.89,0.913,0.0609,-0.3035,0.2654
0.085,-0.12,-0.049,-8.6,-36.1,5.6,0,2018,5,17,19,22,51.93,0.9143,0.0507,-0.3043,0.2623
-0.078,-0.125,-0.002,-4.9,8.5,10,0,2018,5,17,19,22,51.95,0.915,0.0492,-0.3036,0.2607
0.053,-0.104,0.036,-1.3,27.9,13.4,0,2018,5,17,19,22,51.955,0.9155,0.0527,-0.3024,0.2597
0.023,0.113,-0.078,-1.7,15.7,16.1,0,2018,5,17,19,22,51.968,0.9161,0.0579,-0.3007,0.2585
0.015,-0.099,-0.151,3.3,21.5,13,0,2018,5,17,19,22,52.003,0.9167,0.0611,-0.3001,0.2564
0.094,0.036,-0.019,3,-4.2,8.8,0,2018,5,17,19,22,52.027,0.9168,0.0635,-0.3,0.2557
0.207,0.069,0.041,-1.3,-25.6,0.8,0,2018,5,17,19,22,52.03,0.9171,0.0617,-0.3006,0.2543
0.058,0.061,-0.06,2.5,-31.3,1.4,0,2018,5,17,19,22,52.07,0.9175,0.0573,-0.3016,0.2526
-0.024,0.038,-0.065,5.7,-41.5,4.7,0,2018,5,17,19,22,52.074,0.9179,0.052,-0.3036,0.25
0.109,-0.126,-0.077,6.6,-38.7,10.5,0,2018,5,17,19,22,52.09,0.9183,0.0456,-0.3062,0.2464
-0.09,0.039,0.007,12.2,-31.1,10.4,0,2018,5,17,19,22,52.129,0.9182,0.0416,-0.3096,0.2432
-0.109,-0.028,-0.046,9.9,-35.1,12.4,0,2018,5,17,19,22,52.156,0.9181,0.0374,-0.3134,0.2392
-0.078,-0.078,-0.065,9.3,-29.7,12.4,0,2018,5,17,19,22,52.175,0.9183,0.0335,-0.3164,0.2353
-0.216,-0.025,0.027,13.5,-7.2,10.5,0,2018,5,17,19,22,52.177,0.918,0.0312,-0.3195,0.2326
-0.094,-0.037,0.109,8.6,-5.5,6.6,0,2018,5,17,19,22,52.186,0.9175,0.0311,-0.3222,0.2306
-0.101,-0.021,0.104,6,-4.7,4.7,0,2018,5,17,19,22,52.223,0.9173,0.0312,-0.3238,0.2293
-0.13,-0.053,0.092,1.1,5,0,0,2018,5,17,19,22,52.243,0.9171,0.0313,-0.3247,0.229
-0.059,-0.053,0.083,-5.5,7.1,-6,0,2018,5,17,19,22,52.247,0.9169,0.0317,-0.3245,0.2298
-0.024,0.013,0.109,-13,6.4,-13.7,0,2018,5,17,19,22,52.285,0.9171,0.0321,-0.3225,0.232
-0.052,0.03,0.091,-21,-4.8,-21.6,1023,2018,5,17,19,22,52.305,0.9174,0.0308,-0.3195,0.2349
-0.055,0.095,0.074,-26.1,-34.8,-27.9,1023,2018,5,17,19,22,52.312,0.9178,0.0262,-0.3165,0.2378
0.021,0.05,0.046,-29.6,-64.1,-29.7,1023,2018,5,17,19,22,52.334,0.9185,0.0158,-0.3139,0.2395
0,-0.041,-0.033,-34.1,-76.1,-33.5,1023,2018,5,17,19,22,52.353,0.9191,0.0014,-0.3118,0.2407
0.1,-0.051,-0.083,-31.6,-64.1,-38.3,1023,2018,5,17,19,22,52.372,0.9192,-0.014,-0.3094,0.2429
0.064,-0.169,-0.115,-25.8,-20.7,-36.4,1023,2018,5,17,19,22,52.395,0.919,-0.0244,-0.3067,0.2464
0.103,-0.024,-0.003,-19.6,20.7,-36.4,1023,2018,5,17,19,22,52.414,0.9186,-0.0266,-0.3028,0.2524
0.034,0.062,-0.091,-18.8,21.9,-32.7,1023,2018,5,17,19,22,52.454,0.9183,-0.0257,-0.298,0.2591
0,-0.131,-0.007,-11,9.4,-20.8,1023,2018,5,17,19,22,52.458,0.9179,-0.0263,-0.2951,0.2636
0.158,0.045,-0.056,-9.6,-0.3,-17,1023,2018,5,17,19,22,52.474,0.9176,-0.0269,-0.2929,0.2673
-0.108,0.032,-0.072,-6.9,-0.2,-12.4,1023,2018,5,17,19,22,52.493,0.9172,-0.0284,-0.2915,0.2697
-0.025,0.034,0.042,-6.7,-0.3,-6.4,1023,2018,5,17,19,22,52.514,0.9172,-0.0289,-0.2905,0.271
0.101,0.063,-0.012,-5.3,-9.1,-3.3,1023,2018,5,17,19,22,52.535,0.9173,-0.0301,-0.2893,0.2717
0,0.112,-0.052,-0.5,-5.4,-1.1,1023,2018,5,17,19,22,52.554,0.9175,-0.0309,-0.2885,0.2718
0.098,0.07,-0.048,1.5,-17,4.6,1023,2018,5,17,19,22,52.574,0.9177,-0.0319,-0.2887,0.2707
0.084,0.078,-0.073,6.1,-16.7,10.1,0,2018,5,17,19,22,52.595,0.9179,-0.0338,-0.2897,0.2686
0.103,-0.003,-0.05,8.9,-21.3,18.8,0,2018,5,17,19,22,52.633,0.9182,-0.036,-0.2917,0.2651
0.033,0.046,-0.019,10.3,-20.2,25.3,0,2018,5,17,19,22,52.654,0.9186,-0.0374,-0.2946,0.2605
-0.024,0.052,0.024,14.7,-14.6,30.6,0,2018,5,17,19,22,52.658,0.9192,-0.038,-0.2975,0.255
-0.128,0.043,0.088,12.7,-22.7,34.9,0,2018,5,17,19,22,52.696,0.9198,-0.0379,-0.301,0.2486
-0.156,0.004,-0.046,4,-46.6,34.9,0,2018,5,17,19,22,52.701,0.9205,-0.0411,-0.3044,0.2411
-0.078,-0.078,-0.077,5.7,-37.5,29.2,0,2018,5,17,19,22,52.716,0.9211,-0.0466,-0.3078,0.2334
-0.109,-0.068,0.05,3.5,-20.5,19.1,0,2018,5,17,19,22,52.753,0.9213,-0.0499,-0.3107,0.2281
-0.107,-0.068,0.081,-0.8,-5.6,9.3,0,2018,5,17,19,22,52.772,0.9215,-0.0514,-0.3121,0.2251
-0.09,-0.054,0.069,-3.8,9.1,3.4,0,2018,5,17,19,22,52.777,0.9217,-0.0509,-0.312,0.2244
-0.033,-0.015,0.043,-7.3,6.4,0.6,0,2018,5,17,19,22,52.793,0.9221,-0.0496,-0.3109,0.2245
-0.037,0.009,0.085,-10.3,-1.5,0,0,2018,5,17,19,22,52.833,0.9227,-0.0495,-0.3093,0.2245
0.002,0.015,0.096,-14.4,-12.8,1,0,2018,5,17,19,22,52.851,0.9235,-0.0507,-0.3072,0.2239
-0.01,0.008,0.081,-18.6,-28.2,-0.2,0,2018,5,17,19,22,52.855,0.9243,-0.0545,-0.3049,0.2225
0.01,0.022,0.003,-24,-53.9,-5.2,0,2018,5,17,19,22,52.892,0.9251,-0.0619,-0.3027,0.2205
-0.06,-0.008,0.004,-18.5,-74.8,4.5,0,2018,5,17,19,22,52.914,0.9251,-0.1098,-0.2987,0.2067
-0.012,0.014,-0.067,-18.5,-108.4,2.6,0,2018,5,17,19,22,52.918,0.9244,-0.1253,-0.299,0.2007
0.038,-0.035,-0.038,-16.7,-128.9,0.2,0,2018,5,17,19,22,52.935,0.9226,-0.1457,-0.3001,0.1935
-0.003,-0.061,-0.024,-19.6,-141.2,-2.9,0,2018,5,17,19,22,52.972,0.9196,-0.1685,-0.3017,0.1864
0.047,-0.047,-0.039,-17.2,-136.1,-7.4,0,2018,5,17,19,22,52.989,0.916,-0.192,-0.3029,0.1794
0.04,-0.08,-0.091,-16.9,-134.5,-9.5,1023,2018,5,17,19,22,52.994,0.9115,-0.2155,-0.3043,0.1732
