ax,ay,az,dpitch,droll,dyaw,heart,time_1,time_2,time_3,time_4,time_5,time_6,w,x,y,z
0.001,-0.003,-0.011,2.6,-0.4,0.8,0,2018,5,1,18,49,41.322,-0.1368,-0.5406,0.2308,-0.7973
0.006,0.006,-0.001,3.1,0,0.6,0,2018,5,1,18,49,41.342,-0.1368,-0.5411,0.2309,-0.7969
0.005,0.005,0.002,2.9,-0.4,0.5,0,2018,5,1,18,49,41.357,-0.1367,-0.5415,0.2309,-0.7966
0.007,0.005,0.003,2.6,-0.8,0.4,0,2018,5,1,18,49,41.377,-0.1367,-0.5419,0.2311,-0.7963
0.01,0.003,0.007,2.3,-0.7,0.7,0,2018,5,1,18,49,41.397,-0.1368,-0.5422,0.2312,-0.7961
0.01,0.007,0.009,1.8,-1.3,1.4,0,2018,5,1,18,49,41.432,-0.1371,-0.5423,0.2311,-0.7959
0.008,0.003,0.005,1.3,-2.6,1.1,0,2018,5,1,18,49,41.452,-0.1375,-0.5425,0.2313,-0.7957
0.008,-0.002,0.001,1,-2.7,0.9,0,2018,5,1,18,49,41.456,-0.1378,-0.5426,0.2316,-0.7955
0.005,-0.007,0.003,0.9,-1.5,1,0,2018,5,1,18,49,41.474,-0.1382,-0.5426,0.2319,-0.7953
0.006,-0.001,0.005,1,-0.2,0.7,0,2018,5,1,18,49,41.493,-0.1384,-0.5427,0.2319,-0.7952
0.001,-0.001,0.005,1,-0.4,0.6,0,2018,5,1,18,49,41.532,-0.1386,-0.5428,0.2319,-0.7951
0.004,-0.003,0.007,0.7,-0.7,0.2,0,2018,5,1,18,49,41.553,-0.1386,-0.5429,0.232,-0.795
0,-0.001,0.001,0.6,-0.9,0.2,0,2018,5,1,18,49,41.558,-0.1388,-0.5429,0.2321,-0.795
0.004,0,0.007,0,-0.7,0,1023,2018,5,1,18,49,41.577,-0.1389,-0.5429,0.2323,-0.7949
0.008,-0.001,0.003,0,-1,-0.2,1023,2018,5,1,18,49,41.597,-0.1391,-0.5428,0.2324,-0.7949
0.005,0,0.001,0.1,-1,-0.5,1023,2018,5,1,18,49,41.636,-0.1392,-0.5427,0.2326,-0.7949
0.006,0.003,-0.002,0.1,-0.7,-0.6,1023,2018,5,1,18,49,41.656,-0.1392,-0.5426,0.2328,-0.7949
0.005,0,-0.003,0,0,0,1023,2018,5,1,18,49,41.66,-0.1393,-0.5426,0.2329,-0.7948
0.006,0.003,0.001,0,0,0,1023,2018,5,1,18,49,41.679,-0.1393,-0.5426,0.2329,-0.7948
0.004,0,0.001,0.6,-0.5,0.4,1023,2018,5,1,18,49,41.717,-0.1394,-0.5426,0.2329,-0.7948
0.006,-0.003,0,0.6,-0.2,0.4,1023,2018,5,1,18,49,41.737,-0.1394,-0.5427,0.233,-0.7947
0.006,-0.005,0,0.6,0.6,0.3,1023,2018,5,1,18,49,41.741,-0.1394,-0.5427,0.233,-0.7947
0.008,-0.004,0,0.4,1.7,0,1023,2018,5,1,18,49,41.757,-0.1392,-0.5428,0.2329,-0.7947
0.012,-0.002,0.003,0.2,1.5,0,1023,2018,5,1,18,49,41.779,-0.1391,-0.5428,0.2327,-0.7948
0.011,0,0.003,0,0.7,0,1023,2018,5,1,18,49,41.8,-0.139,-0.5427,0.2325,-0.7949
0.012,-0.002,0.004,-0.7,0.6,0.1,1023,2018,5,1,18,49,41.818,-0.1389,-0.5426,0.2325,-0.795
0.011,-0.008,0.007,-0.8,0.9,-0.1,1023,2018,5,1,18,49,41.857,-0.1389,-0.5424,0.2324,-0.7952
0.007,-0.004,-0.001,-1.4,0.9,-0.6,1023,2018,5,1,18,49,41.877,-0.1388,-0.5422,0.2323,-0.7954
0.006,-0.01,-0.004,-1.4,0.7,-1.1,1023,2018,5,1,18,49,41.881,-0.1386,-0.542,0.2324,-0.7955
0.002,-0.01,-0.002,-1.5,1,-1.6,1023,2018,5,1,18,49,41.902,-0.1383,-0.5417,0.2325,-0.7957
0.001,-0.006,-0.004,-1.8,1.4,-2,1023,2018,5,1,18,49,41.92,-0.138,-0.5414,0.2325,-0.796
0,-0.003,-0.009,-1.7,1.4,-2.7,1023,2018,5,1,18,49,41.961,-0.1376,-0.5411,0.2326,-0.7962
-0.002,-0.003,-0.01,-1.9,1.2,-3,0,2018,5,1,18,49,41.982,-0.1371,-0.5408,0.2328,-0.7965
-0.007,0,-0.01,-1.9,0.7,-3.1,0,2018,5,1,18,49,41.986,-0.1367,-0.5405,0.2329,-0.7967
0,0.007,-0.015,-2.1,-0.2,-3.3,0,2018,5,1,18,49,42.021,-0.1363,-0.5402,0.2332,-0.7969
0.007,0.008,-0.014,-1.9,-0.9,-3.5,0,2018,5,1,18,49,42.025,-0.1359,-0.5399,0.2336,-0.797
0.009,0.016,-0.019,-1.7,-0.4,-3.4,0,2018,5,1,18,49,42.04,-0.1356,-0.5397,0.234,-0.7972
0.01,0.017,-0.019,-1.2,0.4,-3.1,0,2018,5,1,18,49,42.061,-0.1352,-0.5395,0.2343,-0.7973
0.009,0.025,-0.016,-0.8,0.4,-1.9,0,2018,5,1,18,49,42.083,-0.135,-0.5394,0.2343,-0.7973
0.004,0.028,-0.015,-0.3,-0.2,-0.9,0,2018,5,1,18,49,42.102,-0.1349,-0.5394,0.2343,-0.7973
0.001,0.019,-0.017,0,-0.7,0,0,2018,5,1,18,49,42.121,-0.1351,-0.5395,0.2343,-0.7972
0,0.02,-0.018,0.6,-0.6,0.5,0,2018,5,1,18,49,42.142,-0.1354,-0.5397,0.2343,-0.797
0,0.015,-0.021,0.7,-0.2,0.5,0,2018,5,1,18,49,42.181,-0.1356,-0.54,0.2343,-0.7968
-0.001,0.015,-0.019,1.3,-0.3,0.5,0,2018,5,1,18,49,42.2,-0.1357,-0.5403,0.2343,-0.7966
-0.003,0.012,-0.01,1.8,0.6,1,0,2018,5,1,18,49,42.204,-0.1358,-0.5407,0.2342,-0.7963
0.003,0.015,-0.004,2,1.1,1.1,0,2018,5,1,18,49,42.241,-0.1358,-0.5411,0.234,-0.7961
0.006,0.016,-0.006,2,0.2,1.5,0,2018,5,1,18,49,42.245,-0.1361,-0.5415,0.2336,-0.7959
0.005,0.013,-0.001,1.7,-0.4,1.6,0,2018,5,1,18,49,42.262,-0.1363,-0.5419,0.2335,-0.7956
0.008,0.007,0.001,1.7,0.3,2.2,0,2018,5,1,18,49,42.297,-0.1365,-0.5423,0.2334,-0.7954
0.013,0.008,0.003,1.4,0.2,2.8,0,2018,5,1,18,49,42.317,-0.1368,-0.5426,0.2331,-0.7952
0.008,0.007,0.003,1.4,-0.6,3,0,2018,5,1,18,49,42.321,-0.1371,-0.5429,0.2329,-0.795
0.002,-0.005,0.001,1,-1.3,2.8,0,2018,5,1,18,49,42.359,-0.1376,-0.5431,0.2328,-0.7948
0.003,-0.011,0.002,0.7,-0.4,2.7,0,2018,5,1,18,49,42.379,-0.1381,-0.5433,0.2328,-0.7946
0.004,-0.009,0.006,0.8,0.2,2,0,2018,5,1,18,49,42.385,-0.1385,-0.5434,0.2326,-0.7945
0.003,-0.007,0.003,0.8,0,1.7,0,2018,5,1,18,49,42.403,-0.1387,-0.5435,0.2325,-0.7944
0.007,-0.011,0.002,0.7,0,1.1,0,2018,5,1,18,49,42.425,-0.1388,-0.5436,0.2325,-0.7943
0.011,-0.012,0.006,0.3,0.3,0.7,1023,2018,5,1,18,49,42.44,-0.1389,-0.5437,0.2325,-0.7943
0.01,-0.008,0.002,0,0,0,1023,2018,5,1,18,49,42.479,-0.139,-0.5436,0.2324,-0.7943
0.013,-0.007,0.008,0,0,0,1023,2018,5,1,18,49,42.499,-0.1389,-0.5435,0.2325,-0.7944
0.009,-0.009,0.006,0,0,0,1023,2018,5,1,18,49,42.503,-0.1389,-0.5435,0.2325,-0.7944
0.004,-0.01,0.004,-0.4,-0.1,-0.8,1023,2018,5,1,18,49,42.54,-0.1388,-0.5433,0.2327,-0.7945
0.001,-0.008,0.003,-0.7,0.4,-1.5,1023,2018,5,1,18,49,42.561,-0.1388,-0.5431,0.2328,-0.7946
0.003,-0.003,-0.003,-1,0,-1.6,1023,2018,5,1,18,49,42.565,-0.1386,-0.5429,0.2329,-0.7948
0.006,0.001,-0.004,-1.1,-0.7,-2.2,1023,2018,5,1,18,49,42.584,-0.1385,-0.5426,0.2332,-0.7949
0.01,0.005,-0.009,-1.4,-1,-2.5,1023,2018,5,1,18,49,42.602,-0.1384,-0.5423,0.2335,-0.795
0.012,0.006,-0.01,-1.1,0,-2.7,1023,2018,5,1,18,49,42.641,-0.1381,-0.5421,0.2339,-0.7951
0.014,0.01,-0.013,-0.4,1.4,-2.5,1023,2018,5,1,18,49,42.661,-0.1378,-0.5419,0.234,-0.7953
0.011,0.015,-0.016,0,1.7,-1.9,1023,2018,5,1,18,49,42.665,-0.1374,-0.5419,0.2339,-0.7954
0.011,0.014,-0.017,0.6,1.9,-1.2,1023,2018,5,1,18,49,42.704,-0.1372,-0.542,0.2337,-0.7954
0.005,0.01,-0.016,1.2,2.5,-0.7,1023,2018,5,1,18,49,42.723,-0.137,-0.5422,0.2335,-0.7953
0,0.011,-0.014,1.4,2.6,-0.7,1023,2018,5,1,18,49,42.728,-0.1367,-0.5425,0.2332,-0.7952
-0.005,0.012,-0.009,1.7,2.5,-0.6,1023,2018,5,1,18,49,42.764,-0.1362,-0.5429,0.233,-0.7951
-0.001,0.011,-0.008,1.7,2,-0.8,0,2018,5,1,18,49,42.784,-0.136,-0.5433,0.2327,-0.795
0.003,0.01,-0.01,1.4,1.5,-0.9,0,2018,5,1,18,49,42.788,-0.1355,-0.5436,0.2326,-0.7949
0.006,0.012,-0.005,1.4,1.2,-0.8,0,2018,5,1,18,49,42.808,-0.1352,-0.5439,0.2325,-0.7948
0.011,0.012,-0.003,1.2,0.9,-0.4,0,2018,5,1,18,49,42.826,-0.135,-0.5441,0.2324,-0.7947
0.01,0.013,-0.006,1.2,0.3,0.2,0,2018,5,1,18,49,42.864,-0.135,-0.5443,0.2323,-0.7946
0.011,0.012,0,1,0,0.8,0,2018,5,1,18,49,42.882,-0.1351,-0.5445,0.2322,-0.7945
0.019,0.012,-0.005,0.7,-0.7,1.1,0,2018,5,1,18,49,42.89,-0.1354,-0.5446,0.2321,-0.7944
0.029,0.013,0.003,0.6,-1.7,1.3,0,2018,5,1,18,49,42.908,-0.1357,-0.5447,0.2321,-0.7942
0.036,0.016,0.003,0.2,-2.8,1,0,2018,5,1,18,49,42.946,-0.1361,-0.5447,0.2323,-0.7941
0.04,0.014,0.001,-0.1,-4.2,1.4,0,2018,5,1,18,49,42.966,-0.1367,-0.5446,0.2327,-0.794
0.014,0.012,0.007,-0.4,-4.5,2.7,0,2018,5,1,18,49,42.971,-0.1372,-0.5445,0.2331,-0.7939
-0.025,0.018,0.007,-1.1,-7.3,5,0,2018,5,1,18,49,42.987,-0.1384,-0.5444,0.2334,-0.7936
-0.039,0.014,0.011,-2,-13.7,7.5,0,2018,5,1,18,49,43.024,-0.1405,-0.5442,0.234,-0.7932
-0.028,0,0.012,-3,-20.2,8.8,0,2018,5,1,18,49,43.046,-0.1434,-0.5439,0.2355,-0.7925
-0.011,-0.002,0.014,-4.5,-27.7,8.6,0,2018,5,1,18,49,43.05,-0.1471,-0.5431,0.2378,-0.7917
-0.017,0.047,0.069,-7.3,-50.2,7.6,0,2018,5,1,18,49,43.067,-0.152,-0.5415,0.2418,-0.7906
-0.018,0.244,0.142,-12,-143,4.8,0,2018,5,1,18,49,43.108,-0.1619,-0.5379,0.2533,-0.7875
-0.031,0.194,0.07,-22.8,-265.3,4.6,0,2018,5,1,18,49,43.129,-0.1827,-0.5295,0.2812,-0.7791
-0.02,0.058,-0.007,-31.8,-330.4,3.3,0,2018,5,1,18,49,43.133,-0.2126,-0.5157,0.3204,-0.7655
-0.002,0.021,-0.047,-39.3,-366.3,-0.6,0,2018,5,1,18,49,43.15,-0.2458,-0.4976,0.3651,-0.7474
-0.016,0.01,-0.093,-48.1,-396.5,-6,0,2018,5,1,18,49,43.17,-0.2804,-0.4747,0.4128,-0.7248
-0.009,-0.105,-0.165,-51.4,-394.6,-12.7,0,2018,5,1,18,49,43.188,-0.3149,-0.4476,0.461,-0.6984
-0.005,-0.191,-0.138,-52.7,-343.3,-22.3,0,2018,5,1,18,49,43.208,-0.3449,-0.4187,0.5036,-0.6722
0.019,-0.139,-0.151,-53.5,-303.3,-32.8,1023,2018,5,1,18,49,43.247,-0.369,-0.3902,0.5392,-0.6486
0.011,-0.211,-0.137,-39.4,-235.1,-47.5,1023,2018,5,1,18,49,43.266,-0.4029,-0.336,0.5979,-0.6059
0.002,-0.258,-0.136,-29.8,-158,-52.9,1023,2018,5,1,18,49,43.27,-0.412,-0.3134,0.6191,-0.5904
0.019,-0.089,-0.186,-17.1,-101.7,-55.1,1023,2018,5,1,18,49,43.29,-0.4151,-0.2967,0.633,-0.582
-0.018,-0.004,-0.079,-6,-101.9,-56.5,1023,2018,5,1,18,49,43.326,-0.415,-0.2828,0.6454,-0.5753
-0.024,-0.009,-0.037,-3.4,-118.5,-59.5,1023,2018,5,1,18,49,43.346,-0.4147,-0.2683,0.6595,-0.5665
0,-0.034,-0.1,-1,-121.6,-63.6,1023,2018,5,1,18,49,43.35,-0.4138,-0.2526,0.6745,-0.5566
-0.012,-0.026,-0.06,3.1,-123.9,-71.3,1023,2018,5,1,18,49,43.373,-0.4115,-0.2361,0.69,-0.5464
-0.072,0.002,0.083,2.2,-142.4,-79.4,1023,2018,5,1,18,49,43.391,-0.409,-0.2182,0.7056,-0.5357
-0.086,0.029,0.121,-5.6,-185.4,-86.4,1023,2018,5,1,18,49,43.427,-0.4073,-0.1963,0.7238,-0.521
-0.049,-0.058,0.052,-8.2,-213.8,-89.5,1023,2018,5,1,18,49,43.449,-0.4071,-0.1701,0.744,-0.5017
-0.037,-0.168,0.035,-4,-193.8,-91.4,1023,2018,5,1,18,49,43.453,-0.4056,-0.1426,0.7636,-0.4815
-0.02,-0.151,0.054,3,-140.6,-89.7,1023,2018,5,1,18,49,43.476,-0.4016,-0.1185,0.7794,-0.4659
-0.016,-0.053,0.143,9.3,-95.4,-80.9,1023,2018,5,1,18,49,43.496,-0.3958,-0.0992,0.7907,-0.4562
0.019,-0.007,0.248,8.7,-64.2,-69.4,1023,2018,5,1,18,49,43.51,-0.3897,-0.0846,0.799,-0.4499
0.091,0.065,0.224,6.7,-32,-57.3,1023,2018,5,1,18,49,43.531,-0.3842,-0.0734,0.8042,-0.4474
0.112,0.037,0.202,4.7,-4.9,-44.8,1023,2018,5,1,18,49,43.552,-0.3796,-0.0655,0.8066,-0.448
0.116,-0.032,0.039,4.8,33.1,-36.6,1023,2018,5,1,18,49,43.574,-0.3755,-0.0611,0.8063,-0.4528
0.089,-0.011,-0.032,6.8,67.6,-33.7,0,2018,5,1,18,49,43.592,-0.3704,-0.0599,0.8031,-0.4627
0.058,0.016,-0.103,6.4,86.8,-33.7,0,2018,5,1,18,49,43.632,-0.3653,-0.0603,0.7979,-0.4755
-0.017,0.133,0.019,4.5,103.3,-36.1,0,2018,5,1,18,49,43.651,-0.3603,-0.0628,0.7906,-0.4909
-0.076,0.038,0.004,0.7,87.5,-39.9,0,2018,5,1,18,49,43.655,-0.3563,-0.0643,0.7828,-0.5058
-0.119,-0.066,-0.082,-0.4,92.9,-48.1,0,2018,5,1,18,49,43.674,-0.3516,-0.0646,0.7756,-0.52
-0.131,-0.175,-0.147,1.7,117.4,-60.6,0,2018,5,1,18,49,43.694,-0.3452,-0.0637,0.767,-0.537
-0.101,-0.173,-0.191,5,152.3,-71.8,0,2018,5,1,18,49,43.734,-0.3363,-0.0633,0.7556,-0.5584
-0.11,-0.196,-0.178,7.3,183.9,-83.9,0,2018,5,1,18,49,43.754,-0.3256,-0.0636,0.7402,-0.5847
-0.134,-0.189,-0.12,5.6,213.9,-97.5,0,2018,5,1,18,49,43.758,-0.3126,-0.0638,0.7213,-0.6147
-0.106,-0.072,-0.108,1.6,221.8,-107.4,0,2018,5,1,18,49,43.774,-0.2982,-0.0635,0.6988,-0.647
-0.092,-0.012,-0.046,-5,195.2,-114.8,0,2018,5,1,18,49,43.792,-0.2834,-0.0611,0.676,-0.6774
-0.075,0.02,-0.009,-12.8,159,-120.5,0,2018,5,1,18,49,43.829,-0.2688,-0.0553,0.6557,-0.7033
-0.023,0.019,0.054,-24.2,134.7,-120.6,0,2018,5,1,18,49,43.85,-0.2549,-0.0464,0.6375,-0.7255
0.01,-0.031,0.055,-36.5,123.9,-115.1,0,2018,5,1,18,49,43.854,-0.242,-0.0352,0.6203,-0.7452
0.018,-0.058,0.035,-48.1,119.1,-104.7,0,2018,5,1,18,49,43.875,-0.2312,-0.0228,0.6031,-0.763
0.084,-0.09,0.05,-56.5,112.3,-90.3,0,2018,5,1,18,49,43.894,-0.2227,-0.0098,0.5855,-0.7793
0.03,-0.147,0.102,-64.6,96.9,-78.1,0,2018,5,1,18,49,43.933,-0.2168,0.0035,0.5686,-0.7934
-0.007,-0.182,0.105,-73.5,89.5,-72.7,0,2018,5,1,18,49,43.953,-0.213,0.0174,0.5527,-0.8054
-0.048,-0.123,0.089,-82.8,81.6,-74.7,0,2018,5,1,18,49,43.957,-0.2104,0.0321,0.5373,-0.816
-0.075,-0.131,0.03,-89.7,77.4,-81.5,0,2018,5,1,18,49,43.973,-0.2078,0.0485,0.5224,-0.8255
-0.07,0.037,-0.064,-89.2,61.3,-90.1,0,2018,5,1,18,49,44.013,-0.2042,0.0661,0.5085,-0.8338
-0.043,0.115,-0.084,-84.7,28.1,-93.7,1023,2018,5,1,18,49,44.032,-0.1991,0.0846,0.4983,-0.8395
-0.07,0.06,-0.035,-80.9,2.2,-98,1023,2018,5,1,18,49,44.036,-0.1924,0.1038,0.4924,-0.8424
-0.076,-0.003,-0.018,-79,7,-97.5,1023,2018,5,1,18,49,44.056,-0.185,0.1231,0.4877,-0.8441
-0.08,0.062,-0.068,-75.4,22.7,-92.9,1023,2018,5,1,18,49,44.076,-0.1781,0.1412,0.4812,-0.8465
-0.094,0.14,-0.114,-69.3,13.5,-85.8,1023,2018,5,1,18,49,44.114,-0.1715,0.158,0.4745,-0.8487
-0.106,0.103,-0.092,-64.3,-3.4,-79.7,1023,2018,5,1,18,49,44.135,-0.1653,0.1737,0.4698,-0.8494
-0.113,0.07,-0.049,-63.6,-1,-75.5,1023,2018,5,1,18,49,44.139,-0.1592,0.1886,0.4667,-0.8492
-0.124,-0.006,-0.058,-68.7,34,-73.8,1023,2018,5,1,18,49,44.158,-0.154,0.2036,0.4606,-0.85
-0.078,0.097,-0.142,-72.8,76.9,-70,1023,2018,5,1,18,49,44.179,-0.1512,0.218,0.4481,-0.8536
-0.073,0.19,-0.204,-73.9,100.7,-60.1,1023,2018,5,1,18,49,44.216,-0.1505,0.2316,0.4309,-0.859
-0.089,0.298,-0.195,-74.6,97.6,-46.3,1023,2018,5,1,18,49,44.237,-0.152,0.2442,0.4117,-0.8646
-0.078,0.353,-0.202,-74.8,75.1,-29.4,1023,2018,5,1,18,49,44.241,-0.1552,0.2563,0.394,-0.8688
-0.081,0.396,-0.253,-72,48.1,-7.2,1023,2018,5,1,18,49,44.261,-0.1603,0.2672,0.3817,-0.8701
-0.146,0.292,-0.261,-69.5,28.9,13.2,1023,2018,5,1,18,49,44.276,-0.1672,0.2769,0.3739,-0.8691
-0.167,0.194,-0.253,-68.4,32.5,30.2,1023,2018,5,1,18,49,44.314,-0.1768,0.2852,0.3688,-0.8667
-0.175,0.167,-0.21,-71.2,38.2,43.5,1023,2018,5,1,18,49,44.334,-0.1888,0.2923,0.3628,-0.8644
-0.134,0.129,-0.184,-74.3,28.2,51.4,1023,2018,5,1,18,49,44.338,-0.2028,0.299,0.3581,-0.8609
-0.111,0.169,-0.17,-77.6,8.1,57.3,1023,2018,5,1,18,49,44.375,-0.2169,0.3063,0.3559,-0.8558
-0.085,0.103,-0.207,-79.6,-2.7,60.1,1023,2018,5,1,18,49,44.395,-0.2307,0.3147,0.3563,-0.8489
-0.017,0.056,-0.214,-79.9,2.8,63.3,1023,2018,5,1,18,49,44.398,-0.2449,0.3228,0.3563,-0.8418
0.02,0.04,-0.17,-79.3,7.8,65.6,0,2018,5,1,18,49,44.435,-0.2596,0.3303,0.3555,-0.8348
0.01,0.061,-0.12,-81,5.9,67.6,0,2018,5,1,18,49,44.456,-0.2745,0.3381,0.3546,-0.8273
0.017,0.121,-0.163,-83.3,-1,67.3,0,2018,5,1,18,49,44.461,-0.2892,0.3464,0.3541,-0.819
0.03,0.167,-0.224,-83.2,-11.4,65.5,0,2018,5,1,18,49,44.482,-0.3035,0.3546,0.3546,-0.8101
0.062,0.182,-0.243,-80.6,-21.8,63.2,0,2018,5,1,18,49,44.503,-0.3166,0.3632,0.3563,-0.8004
0.062,0.088,-0.225,-79,-19.5,58.7,0,2018,5,1,18,49,44.523,-0.3287,0.3719,0.3585,-0.7905
0.072,0.082,-0.204,-77.8,-5,53.4,0,2018,5,1,18,49,44.543,-0.3405,0.3798,0.3594,-0.7814
0.096,0.135,-0.188,-76,-5.1,47.9,0,2018,5,1,18,49,44.557,-0.3519,0.3875,0.3582,-0.773
0.096,0.179,-0.181,-72.9,-15.6,44.8,0,2018,5,1,18,49,44.599,-0.3621,0.3953,0.358,-0.7644
0.076,0.131,-0.15,-69.7,-32.5,42.7,0,2018,5,1,18,49,44.618,-0.3707,0.4036,0.3596,-0.7551
0.077,0.026,-0.124,-66.1,-36.8,41.5,0,2018,5,1,18,49,44.622,-0.3779,0.4124,0.3628,-0.7452
0.006,-0.079,-0.109,-62.8,-17.8,36.5,0,2018,5,1,18,49,44.662,-0.3847,0.4206,0.3655,-0.7358
-0.039,-0.068,-0.089,-60.6,6.4,29,0,2018,5,1,18,49,44.666,-0.3924,0.4272,0.3651,-0.728
-0.039,0.06,-0.053,-58.1,8.8,24.2,0,2018,5,1,18,49,44.681,-0.4002,0.4326,0.3622,-0.722
-0.014,0.104,-0.022,-55.6,-10.1,23.5,0,2018,5,1,18,49,44.72,-0.4066,0.4384,0.3599,-0.7161
-0.018,0.092,-0.064,-54.4,-19.2,25.8,0,2018,5,1,18,49,44.739,-0.4117,0.4449,0.3599,-0.7091
0.02,0.048,-0.108,-51.6,-20.2,27.4,0,2018,5,1,18,49,44.744,-0.4164,0.452,0.3604,-0.7016
0.1,-0.007,-0.092,-47.4,-19.9,31.1,0,2018,5,1,18,49,44.76,-0.4212,0.4582,0.3616,-0.6941
0.133,-0.097,-0.049,-41.2,-14,31.9,0,2018,5,1,18,49,44.799,-0.4264,0.463,0.3629,-0.687
0.116,-0.141,-0.041,-36.6,-1,27.9,0,2018,5,1,18,49,44.818,-0.4312,0.4672,0.363,-0.681
0.117,-0.089,-0.085,-31.5,4,20.9,0,2018,5,1,18,49,44.822,-0.436,0.4701,0.3622,-0.6764
0.135,-0.099,-0.079,-24.4,-3,14.7,1023,2018,5,1,18,49,44.842,-0.4399,0.4723,0.3613,-0.6728
0.107,-0.197,0,-20.1,-1.2,9.6,1023,2018,5,1,18,49,44.861,-0.442,0.475,0.361,-0.6697
0.087,-0.21,0.036,-18,14.3,5.1,1023,2018,5,1,18,49,44.9,-0.4443,0.4767,0.3591,-0.6679
0.058,-0.191,0.027,-17.1,22.6,0,1023,2018,5,1,18,49,44.918,-0.4472,0.4774,0.3556,-0.6674
0.045,-0.158,0.031,-14.5,23,-4.7,1023,2018,5,1,18,49,44.923,-0.4498,0.4778,0.3514,-0.6676
0.06,-0.149,0.08,-11.2,15.1,-6.6,1023,2018,5,1,18,49,44.961,-0.4515,0.4781,0.3476,-0.6682
0.049,-0.177,0.127,-6.7,9.3,-6,1023,2018,5,1,18,49,44.982,-0.4524,0.4784,0.3448,-0.6689
0.053,-0.214,0.136,-2.3,11.1,-5.6,1023,2018,5,1,18,49,44.986,-0.4531,0.478,0.3427,-0.6698
0.067,-0.275,0.14,4.5,20.3,-6.1,1023,2018,5,1,18,49,45.005,-0.4539,0.4766,0.3405,-0.6714
0.086,-0.265,0.167,14.3,28.1,-7.8,1023,2018,5,1,18,49,45.025,-0.4548,0.4735,0.3378,-0.6743
0.104,-0.193,0.203,25.7,28.2,-12.9,1023,2018,5,1,18,49,45.045,-0.455,0.4689,0.3347,-0.6788
0.115,-0.131,0.201,36.8,19.9,-21.8,1023,2018,5,1,18,49,45.064,-0.4532,0.4636,0.3325,-0.6848
0.094,-0.127,0.199,46.4,14.5,-31.4,1023,2018,5,1,18,49,45.084,-0.449,0.4582,0.331,-0.6919
0.04,-0.134,0.202,52.3,28.1,-41.6,0,2018,5,1,18,49,45.103,-0.4436,0.4519,0.3293,-0.7003
-0.001,-0.028,0.19,56,48.3,-52.1,0,2018,5,1,18,49,45.124,-0.438,0.444,0.3247,-0.7109
-0.05,0.106,0.181,56,56.4,-60,0,2018,5,1,18,49,45.145,-0.4319,0.4359,0.3183,-0.7225
-0.077,0.22,0.144,53.2,49.7,-61.8,0,2018,5,1,18,49,45.183,-0.4252,0.4282,0.3109,-0.7342
-0.075,0.279,0.109,49.3,31.6,-56.6,0,2018,5,1,18,49,45.204,-0.4178,0.4217,0.3052,-0.7445
-0.08,0.234,0.091,46.7,17.2,-47.8,0,2018,5,1,18,49,45.208,-0.4102,0.4163,0.3023,-0.7529
-0.103,0.054,0.068,43.5,26.8,-41.5,0,2018,5,1,18,49,45.227,-0.4034,0.4112,0.2998,-0.7603
-0.112,0.001,0.063,38.2,49.8,-37,0,2018,5,1,18,49,45.246,-0.3989,0.4048,0.295,-0.768
-0.118,0.055,0.083,31.8,56.4,-32.3,0,2018,5,1,18,49,45.265,-0.3963,0.3979,0.2878,-0.7756
-0.098,0.11,0.073,26.4,36.9,-28,0,2018,5,1,18,49,45.285,-0.3941,0.3922,0.2811,-0.7821
-0.077,0.137,0.061,24,0.4,-25,0,2018,5,1,18,49,45.323,-0.3905,0.3888,0.2787,-0.7865
-0.052,0.02,0.001,22.2,-21.7,-24.4,0,2018,5,1,18,49,45.345,-0.3852,0.387,0.2804,-0.7893
-0.039,-0.169,-0.017,18.2,6.9,-27.8,0,2018,5,1,18,49,45.349,-0.3802,0.3859,0.2824,-0.7916
-0.038,-0.144,-0.028,11.9,51.2,-31.4,0,2018,5,1,18,49,45.368,-0.3776,0.3832,0.2782,-0.7956
-0.04,-0.023,-0.059,6,70.1,-33.3,0,2018,5,1,18,49,45.388,-0.377,0.3793,0.2687,-0.801
-0.067,0.053,-0.066,0.7,59.1,-31.1,0,2018,5,1,18,49,45.408,-0.3767,0.376,0.258,-0.8062
-0.101,0.084,-0.06,-3.7,36,-28.1,0,2018,5,1,18,49,45.428,-0.3758,0.374,0.2496,-0.8102
-0.134,0.002,-0.052,-9.6,21.3,-26.1,0,2018,5,1,18,49,45.449,-0.3743,0.3737,0.2445,-0.8125
-0.141,-0.07,-0.053,-15.8,36.9,-26.8,0,2018,5,1,18,49,45.464,-0.3729,0.3748,0.2382,-0.8145
-0.145,-0.035,-0.071,-18.6,67,-29.5,0,2018,5,1,18,49,45.487,-0.3731,0.3749,0.2279,-0.8174
-0.121,0.054,-0.055,-18.9,80.6,-34.1,0,2018,5,1,18,49,45.505,-0.3745,0.3735,0.2143,-0.8211
-0.078,0.144,-0.039,-17.4,73.9,-37.4,0,2018,5,1,18,49,45.543,-0.3752,0.3716,0.1994,-0.8253
-0.04,0.164,-0.026,-14.1,61,-39.7,0,2018,5,1,18,49,45.563,-0.3743,0.3704,0.1853,-0.8296
-0.037,0.128,-0.021,-12.1,57,-42.7,0,2018,5,1,18,49,45.568,-0.3723,0.3693,0.1726,-0.8337
-0.062,0.128,-0.037,-12.9,54,-45.4,0,2018,5,1,18,49,45.607,-0.3696,0.3683,0.1603,-0.8378
-0.092,0.062,-0.019,-18.9,52.4,-47.2,0,2018,5,1,18,49,45.626,-0.3666,0.3678,0.1485,-0.8415
-0.132,-0.027,0.008,-30.8,62.5,-49.2,0,2018,5,1,18,49,45.631,-0.3641,0.3681,0.136,-0.8446
-0.142,-0.009,-0.046,-44.1,70.7,-51.3,1023,2018,5,1,18,49,45.649,-0.3619,0.3703,0.1207,-0.8468
-0.151,0.046,-0.058,-55.3,64.1,-52.6,1023,2018,5,1,18,49,45.668,-0.36,0.3738,0.1046,-0.8483
-0.114,0.073,-0.031,-63.3,51.2,-53.3,1023,2018,5,1,18,49,45.69,-0.3571,0.3791,0.089,-0.8489
-0.048,0.094,-0.041,-66.6,39.8,-52.4,1023,2018,5,1,18,49,45.71,-0.3532,0.3863,0.0743,-0.8487
0.021,0.099,-0.041,-66,31.2,-51.3,1023,2018,5,1,18,49,45.726,-0.3483,0.3947,0.0608,-0.848
0.075,0.085,-0.006,-63.8,32.2,-50.5,1023,2018,5,1,18,49,45.763,-0.3431,0.4032,0.0478,-0.8469
0.069,0.103,0.009,-60.4,34.9,-49,1023,2018,5,1,18,49,45.784,-0.3381,0.411,0.0341,-0.8458
0.036,0.131,-0.007,-58.2,32.1,-47.6,1023,2018,5,1,18,49,45.788,-0.3338,0.4179,0.0222,-0.8446
-0.022,0.12,0,-60.8,24.3,-48,1023,2018,5,1,18,49,45.809,-0.3287,0.4251,0.0101,-0.8432
-0.131,0.103,0.066,-69.5,16.4,-49.5,1023,2018,5,1,18,49,45.831,-0.323,0.4335,-0.0005,-0.8412
-0.197,0.119,0.045,-82.1,6.7,-50.3,1023,2018,5,1,18,49,45.85,-0.3164,0.4439,-0.0102,-0.8382
1.442,-0.155,0.008,-46.7,17.4,-47.5,1023,2018,5,1,18,49,45.869,-0.3097,0.4539,-0.0191,-0.8352
1.401,-0.296,0.412,13.2,107.2,-58.1,1023,2018,5,1,18,49,45.908,-0.3067,0.4516,-0.0331,-0.8371
0.27,0.091,0.149,4.6,137.7,-58.2,1023,2018,5,1,18,49,45.929,-0.308,0.4432,-0.0573,-0.8398
-0.58,0.295,0.01,-22.3,70.5,-34.4,1023,2018,5,1,18,49,45.933,-0.3091,0.4382,-0.0773,-0.8404
-0.535,0.294,-0.16,-39.6,12.3,-11.9,0,2018,5,1,18,49,45.952,-0.3081,0.441,-0.0863,-0.8384
-0.343,0.126,-0.098,-34,-0.6,-4.4,0,2018,5,1,18,49,45.991,-0.3068,0.4465,-0.0897,-0.8357
0.009,-0.095,0.098,-20.1,30.9,-10.8,0,2018,5,1,18,49,46.011,-0.3065,0.4492,-0.0935,-0.8339
0.309,-0.01,0.204,-11.8,84.2,-22.9,0,2018,5,1,18,49,46.015,-0.3086,0.4478,-0.1043,-0.8326
0.357,0.158,0.084,-8.4,109.3,-28,0,2018,5,1,18,49,46.03,-0.3122,0.4435,-0.1221,-0.8311
-0.007,0.315,-0.052,-14,77.7,-17.1,0,2018,5,1,18,49,46.049,-0.316,0.4391,-0.1387,-0.8294
-0.125,0.379,-0.137,-24.8,24.1,-2.4,0,2018,5,1,18,49,46.069,-0.3179,0.4391,-0.1477,-0.8271
0.051,0.216,-0.14,-26.5,3.6,-2.2,0,2018,5,1,18,49,46.108,-0.3178,0.4423,-0.1507,-0.8249
0.197,0.123,-0.139,-30.6,17,-12.9,0,2018,5,1,18,49,46.128,-0.3167,0.4458,-0.1544,-0.8228
0.226,0.196,-0.222,-33.7,32.3,-25.4,0,2018,5,1,18,49,46.132,-0.315,0.4485,-0.1615,-0.8206
0.017,0.335,-0.26,-34.6,21.7,-21.6,0,2018,5,1,18,49,46.154,-0.3127,0.451,-0.1696,-0.8184
-0.011,0.33,-0.296,-29.4,-3.7,-8.4,0,2018,5,1,18,49,46.174,-0.3103,0.4549,-0.1737,-0.8164
0.002,0.222,-0.181,-20.5,-5.2,1.6,0,2018,5,1,18,49,46.194,-0.3085,0.4587,-0.1742,-0.8148
0.005,0.182,-0.007,-23.2,15.1,9,0,2018,5,1,18,49,46.212,-0.3091,0.4615,-0.1755,-0.8127
0.041,0.216,0.066,-32,30.9,18.5,0,2018,5,1,18,49,46.25,-0.3122,0.4646,-0.1795,-0.8089
0.049,0.281,0.018,-39.5,33.2,27.4,0,2018,5,1,18,49,46.268,-0.317,0.4686,-0.1843,-0.8036
0.063,0.334,-0.085,-35.9,21.9,38.2,0,2018,5,1,18,49,46.273,-0.3226,0.4735,-0.188,-0.7976
-0.022,0.209,-0.119,-22.1,5,50.2,0,2018,5,1,18,49,46.291,-0.3289,0.4783,-0.1875,-0.7923
-0.214,-0.095,0.029,-13.2,15.4,56.5,0,2018,5,1,18,49,46.31,-0.3364,0.4817,-0.1854,-0.7876
-0.106,-0.31,0.175,-4.9,51.1,52.9,0,2018,5,1,18,49,46.349,-0.3464,0.4828,-0.1856,-0.7825
-0.113,-0.277,0.282,-4.3,91.7,44.7,0,2018,5,1,18,49,46.375,-0.3591,0.4803,-0.1918,-0.7768
0.095,-0.096,0.261,-10.3,82.7,37.4,0,2018,5,1,18,49,46.388,-0.3721,0.4768,-0.2014,-0.7704
0.101,-0.005,0.176,-14,31.5,32,0,2018,5,1,18,49,46.392,-0.3812,0.4753,-0.2065,-0.7655
-0.08,0.018,0.061,-19.4,-15.2,31.6,0,2018,5,1,18,49,46.429,-0.3854,0.4775,-0.2056,-0.7623
-0.01,-0.036,-0.082,-20.5,-50.7,26.2,1023,2018,5,1,18,49,46.431,-0.3857,0.4837,-0.1997,-0.7597
0.133,-0.126,-0.07,-16.7,-52.5,11.6,1023,2018,5,1,18,49,46.449,-0.3829,0.4908,-0.192,-0.7586
-0.008,-0.112,0.057,-20.1,-32.6,2.1,1023,2018,5,1,18,49,46.481,-0.3797,0.4962,-0.1868,-0.758
-0.15,-0.087,0.013,-35.5,-34.5,6.7,1023,2018,5,1,18,49,46.504,-0.3765,0.5022,-0.1842,-0.7563
0.02,-0.147,-0.076,-33.8,-28.7,7.7,1023,2018,5,1,18,49,46.514,-0.3736,0.5096,-0.1809,-0.7535
0,-0.194,-0.063,-19.9,8.1,5.5,1023,2018,5,1,18,49,46.535,-0.3728,0.514,-0.1808,-0.751
-0.041,-0.151,-0.013,-11.5,33.4,0.4,1023,2018,5,1,18,49,46.569,-0.3748,0.5145,-0.1846,-0.7487
-0.009,-0.03,-0.014,-5.4,36.9,-4.4,1023,2018,5,1,18,49,46.59,-0.3779,0.5135,-0.1894,-0.7466
0.017,0.034,-0.051,-4,31,-8.8,1023,2018,5,1,18,49,46.597,-0.3799,0.5117,-0.1949,-0.7454
0.102,0.095,-0.115,-5.7,9.7,-9.6,1023,2018,5,1,18,49,46.617,-0.3801,0.5108,-0.1993,-0.7448
0.047,0.103,-0.184,-2.6,-17,-10.6,1023,2018,5,1,18,49,46.635,-0.3782,0.5114,-0.1999,-0.7452
0.014,0.055,-0.184,1.7,-31.8,-12.3,1023,2018,5,1,18,49,46.674,-0.3744,0.5127,-0.1975,-0.7468
-0.029,0.002,-0.143,4.5,-31.2,-13.6,1023,2018,5,1,18,49,46.694,-0.3696,0.5146,-0.1947,-0.7487
-0.014,-0.008,-0.132,5.8,-23.2,-14.2,1023,2018,5,1,18,49,46.698,-0.3652,0.5163,-0.1923,-0.7503
0.078,-0.009,-0.155,11.1,-9.3,-17.6,0,2018,5,1,18,49,46.717,-0.3615,0.5168,-0.1915,-0.7519
0.162,0.02,-0.208,21.4,-3.2,-21.3,0,2018,5,1,18,49,46.734,-0.359,0.5146,-0.1917,-0.7546
0.101,0.058,-0.229,36.3,-9.9,-22.9,0,2018,5,1,18,49,46.772,-0.3564,0.5104,-0.1911,-0.7588
-0.024,0.045,-0.189,47.3,-20.4,-23.4,0,2018,5,1,18,49,46.777,-0.3534,0.505,-0.1887,-0.7644
-0.096,-0.007,-0.098,49.6,-28.8,-27.3,0,2018,5,1,18,49,46.795,-0.3491,0.4998,-0.1849,-0.7707
-0.025,-0.031,-0.02,44.8,-30.7,-36.6,0,2018,5,1,18,49,46.834,-0.3438,0.4944,-0.1805,-0.7776
0.178,0.01,-0.002,39,-38.7,-45.9,0,2018,5,1,18,49,46.856,-0.3364,0.4899,-0.1772,-0.7844
0.172,0.044,0.011,35.1,-46.7,-53.8,0,2018,5,1,18,49,46.86,-0.3266,0.4863,-0.1739,-0.7915
0.026,0.073,-0.039,28.2,-51,-58.7,0,2018,5,1,18,49,46.879,-0.3151,0.4831,-0.1707,-0.7988
-0.04,0.045,-0.096,20.7,-45.6,-58.8,0,2018,5,1,18,49,46.916,-0.303,0.481,-0.1682,-0.8052
-0.088,0.08,-0.067,16.5,-37.3,-55.4,0,2018,5,1,18,49,46.935,-0.2915,0.479,-0.1669,-0.8109
-0.058,0.148,-0.037,13.2,-37.4,-45,0,2018,5,1,18,49,46.939,-0.2813,0.477,-0.1664,-0.8157
-0.003,0.166,0.023,12.2,-54.2,-29,0,2018,5,1,18,49,46.955,-0.2726,0.4765,-0.1623,-0.8198
0.027,0.123,0.017,18.2,-72.7,-12.7,0,2018,5,1,18,49,46.992,-0.2646,0.4767,-0.1546,-0.8238
0.029,0.037,0.026,27.5,-71,2.7,0,2018,5,1,18,49,47.012,-0.2579,0.4766,-0.1441,-0.8279
-0.018,-0.047,0.091,35.8,-43.9,13,0,2018,5,1,18,49,47.017,-0.2552,0.4744,-0.1335,-0.8318
-0.072,-0.101,0.17,34.4,-8.1,14.5,0,2018,5,1,18,49,47.057,-0.2561,0.4704,-0.127,-0.8347
-0.152,-0.041,0.195,24.1,13.5,10.2,0,2018,5,1,18,49,47.078,-0.2591,0.4662,-0.1257,-0.8364
-0.224,0.025,0.177,10.4,12.3,3.1,0,2018,5,1,18,49,47.082,-0.2616,0.4632,-0.1266,-0.8371
-0.205,0.053,0.144,-2.4,-5.4,-1.9,0,2018,5,1,18,49,47.099,-0.262,0.4626,-0.1272,-0.8373
-0.044,0.021,0.124,-10.7,-26.1,-6.4,0,2018,5,1,18,49,47.119,-0.2599,0.4641,-0.1256,-0.8373
0.117,-0.068,0.121,-14.6,-37.1,-12.8,0,2018,5,1,18,49,47.156,-0.2556,0.4668,-0.122,-0.8377
0.196,-0.116,0.072,-14.8,-29.7,-19.4,0,2018,5,1,18,49,47.16,-0.2505,0.4705,-0.1186,-0.8377
0.119,-0.088,-0.004,-11.4,-18.2,-24.7,1023,2018,5,1,18,49,47.177,-0.2454,0.4736,-0.1172,-0.8376
-0.013,-0.04,-0.058,-6.7,-15.1,-28,1023,2018,5,1,18,49,47.214,-0.2402,0.4757,-0.1173,-0.8379
-0.044,-0.075,-0.089,-2.1,-10.1,-30.3,1023,2018,5,1,18,49,47.236,-0.2348,0.477,-0.1178,-0.8386
-0.053,-0.073,-0.082,2.8,7,-30.2,1023,2018,5,1,18,49,47.24,-0.2306,0.477,-0.1198,-0.8395
-0.039,-0.042,-0.05,4.9,27.3,-28.3,1023,2018,5,1,18,49,47.26,-0.2281,0.4755,-0.1242,-0.8404
-0.004,0.067,-0.033,4.8,31.8,-22.8,1023,2018,5,1,18,49,47.279,-0.227,0.4731,-0.1312,-0.841
0.001,0.109,-0.049,7.5,19.9,-14.1,1023,2018,5,1,18,49,47.314,-0.2261,0.471,-0.1376,-0.8414
0.013,0.107,-0.04,11.6,2.5,-7.5,1023,2018,5,1,18,49,47.335,-0.2254,0.469,-0.1404,-0.8422
0.016,0.061,-0.035,14.6,-14,-3.1,1023,2018,5,1,18,49,47.339,-0.224,0.4673,-0.1402,-0.8436
0.005,0.001,-0.056,17.6,-18.8,-0.9,1023,2018,5,1,18,49,47.377,-0.2225,0.466,-0.1377,-0.8451
0.02,-0.068,-0.065,21.5,-9.9,-1.3,1023,2018,5,1,18,49,47.397,-0.2216,0.4643,-0.1349,-0.8467
0.013,-0.101,-0.074,27.1,7.7,-3.6,1023,2018,5,1,18,49,47.401,-0.2221,0.4613,-0.1338,-0.8484
-0.001,-0.12,-0.032,35.6,35.4,-10.7,1023,2018,5,1,18,49,47.44,-0.2235,0.4557,-0.1363,-0.8507
-0.032,-0.04,0.032,43.1,56.9,-18.3,1023,2018,5,1,18,49,47.461,-0.2265,0.4475,-0.1427,-0.8532
-0.048,0.052,0.052,47.8,57.6,-22.5,1023,2018,5,1,18,49,47.464,-0.2291,0.4373,-0.1513,-0.8563
-0.043,0.112,0.038,51.3,42.9,-23.4,0,2018,5,1,18,49,47.479,-0.2307,0.4267,-0.1592,-0.8598
-0.039,0.116,0.017,52.3,23.7,-20,0,2018,5,1,18,49,47.499,-0.2312,0.4169,-0.1639,-0.8636
-0.012,0.077,0.001,49.4,12.8,-12.8,0,2018,5,1,18,49,47.518,-0.2311,0.4077,-0.1665,-0.8675
0.01,0.067,0.007,43.2,12.5,-4.1,0,2018,5,1,18,49,47.558,-0.2318,0.3997,-0.1681,-0.8707
-0.009,0.058,0.002,34.6,8.9,3,0,2018,5,1,18,49,47.579,-0.2335,0.3932,-0.1686,-0.8731
-0.048,0.05,-0.024,24.1,-3.7,8.7,0,2018,5,1,18,49,47.583,-0.2353,0.3885,-0.1682,-0.8748
-0.058,0.021,-0.054,13.2,-16.5,11.9,0,2018,5,1,18,49,47.621,-0.2367,0.3862,-0.1655,-0.8759
-0.044,0.001,-0.053,0.9,-22.9,13.3,0,2018,5,1,18,49,47.643,-0.2374,0.3865,-0.1617,-0.8763
-0.033,0.022,-0.026,-14.3,-22.1,13.7,0,2018,5,1,18,49,47.647,-0.2377,0.3889,-0.1579,-0.8759
0.086,0.032,-0.036,-26.2,-25.1,13.2,0,2018,5,1,18,49,47.666,-0.2375,0.3937,-0.1548,-0.8743
0.265,-0.025,0.002,-14.7,-11.9,4.5,0,2018,5,1,18,49,47.685,-0.237,0.3993,-0.1525,-0.8724
0.213,-0.006,0.046,-2.2,9.8,-4.9,0,2018,5,1,18,49,47.7,-0.2368,0.4015,-0.153,-0.8713
0.058,0.075,0.036,5,16.4,-11.7,0,2018,5,1,18,49,47.739,-0.2364,0.4006,-0.1561,-0.8712
-0.089,0.13,0.021,5.1,8.9,-11.6,0,2018,5,1,18,49,47.759,-0.2354,0.3987,-0.1591,-0.8718
-0.163,0.143,0.003,0.9,1.6,-6.1,0,2018,5,1,18,49,47.763,-0.2345,0.3978,-0.1604,-0.8723
-0.124,0.126,-0.02,-2.3,-2.1,-0.2,0,2018,5,1,18,49,47.782,-0.2339,0.398,-0.1608,-0.8723
-0.04,0.107,-0.033,-2.3,-7.9,5.2,0,2018,5,1,18,49,47.802,-0.2339,0.3986,-0.1605,-0.8721
0.041,0.038,-0.022,0.4,-12.2,7.9,0,2018,5,1,18,49,47.823,-0.2339,0.3994,-0.1591,-0.8719
0.066,0.009,-0.007,5.3,-15.4,9,0,2018,5,1,18,49,47.844,-0.2343,0.4002,-0.1569,-0.8719
0.044,-0.02,0.013,10.2,-19.8,9.3,0,2018,5,1,18,49,47.88,-0.2347,0.4002,-0.1532,-0.8724
0.009,-0.059,0.021,12.1,-20.6,9.6,0,2018,5,1,18,49,47.899,-0.2353,0.3997,-0.1486,-0.8733
-0.013,-0.083,0.02,11.2,-17,8,1023,2018,5,1,18,49,47.905,-0.236,0.3989,-0.144,-0.8742
-0.023,-0.053,0.03,8.4,-16.8,5.9,1023,2018,5,1,18,49,47.921,-0.2366,0.3982,-0.1402,-0.875
-0.031,-0.048,0.041,5.3,-14.9,3.6,1023,2018,5,1,18,49,47.942,-0.2367,0.3977,-0.1365,-0.8758
-0.039,-0.052,0.043,2.5,-8.9,1.1,1023,2018,5,1,18,49,47.961,-0.2366,0.3973,-0.1337,-0.8764
-0.043,-0.018,0.066,0.4,2.3,-0.9,1023,2018,5,1,18,49,47.999,-0.2367,0.3967,-0.1326,-0.8769
-0.033,0.024,0.071,-0.8,8.7,-1.7,1023,2018,5,1,18,49,48.02,-0.237,0.3957,-0.1333,-0.8771
-0.031,0.041,0.039,-1,13.7,-0.9,1023,2018,5,1,18,49,48.025,-0.2375,0.3947,-0.1354,-0.8771
-0.032,0.061,0.006,-0.2,11,1.1,1023,2018,5,1,18,49,48.046,-0.2383,0.3938,-0.1379,-0.8769
-0.027,0.052,-0.013,0.4,3.4,3,1023,2018,5,1,18,49,48.066,-0.2389,0.3932,-0.1392,-0.8768
-0.031,0.029,-0.015,0.4,-1.3,4.1,1023,2018,5,1,18,49,48.088,-0.2394,0.393,-0.1395,-0.8767
-0.018,0.029,-0.008,-0.3,-2.1,5.4,1023,2018,5,1,18,49,48.107,-0.24,0.393,-0.1393,-0.8766
0.028,0.036,-0.016,-2.4,-2.8,6.5,1023,2018,5,1,18,49,48.146,-0.2406,0.3935,-0.1391,-0.8762
0.07,0.048,-0.027,-4.1,-6.1,6.8,1023,2018,5,1,18,49,48.166,-0.2411,0.3947,-0.1386,-0.8756
0.088,0.028,-0.031,-4.1,-8.7,5.4,1023,2018,5,1,18,49,48.17,-0.2413,0.3963,-0.1374,-0.875
0.073,0.003,-0.039,-3.5,-9.6,2.9,1023,2018,5,1,18,49,48.189,-0.241,0.398,-0.1361,-0.8745
0.052,-0.001,-0.049,-2.7,-6.1,0.7,0,2018,5,1,18,49,48.209,-0.2407,0.3995,-0.1352,-0.8741
0.027,-0.003,-0.049,-1.8,-5,0,0,2018,5,1,18,49,48.226,-0.2403,0.4007,-0.1349,-0.8737
0.013,0.001,-0.049,-0.1,-5.2,-0.3,0,2018,5,1,18,49,48.265,-0.2399,0.4015,-0.134,-0.8736
0.008,0.016,-0.016,1.4,-6.7,-0.1,0,2018,5,1,18,49,48.285,-0.2395,0.4019,-0.1334,-0.8736
-0.004,-0.011,0.007,2.1,-11.5,0,0,2018,5,1,18,49,48.289,-0.2389,0.4019,-0.1318,-0.874
-0.017,-0.025,0.035,1.5,-10.6,0.1,0,2018,5,1,18,49,48.306,-0.2383,0.4019,-0.1299,-0.8744
-0.026,-0.033,0.044,1.6,-4,0.9,0,2018,5,1,18,49,48.345,-0.2381,0.4016,-0.1281,-0.8749
-0.009,-0.023,0.037,1.7,1.3,1.8,0,2018,5,1,18,49,48.366,-0.2386,0.4012,-0.1275,-0.8751
0.006,-0.031,0.028,1.4,0.6,2.1,0,2018,5,1,18,49,48.37,-0.2392,0.4007,-0.1269,-0.8752
0.014,-0.037,0.018,-0.2,2.6,0.7,0,2018,5,1,18,49,48.39,-0.2397,0.4006,-0.1265,-0.8752
0.011,-0.026,0.007,-1.3,7.8,-1.4,0,2018,5,1,18,49,48.409,-0.2402,0.4006,-0.1272,-0.8749
0.001,0.004,-0.008,-1.4,12.1,-3.1,0,2018,5,1,18,49,48.447,-0.2406,0.4003,-0.1289,-0.8747
-0.001,0.031,-0.029,-0.5,12.3,-3.3,0,2018,5,1,18,49,48.451,-0.2409,0.3999,-0.1311,-0.8744
0.001,0.051,-0.04,0.9,8.7,-2.5,0,2018,5,1,18,49,48.467,-0.2411,0.3995,-0.1333,-0.8743
0.002,0.066,-0.027,2.4,3.9,-0.9,0,2018,5,1,18,49,48.486,-0.241,0.3991,-0.135,-0.8742
-0.003,0.054,-0.007,3.9,-2,0.7,0,2018,5,1,18,49,48.505,-0.2409,0.3984,-0.1354,-0.8745
-0.006,0.025,0.011,4.6,-3.1,2.4,0,2018,5,1,18,49,48.543,-0.2409,0.3977,-0.135,-0.8749
-0.005,0.008,0.007,4.6,-1.3,3.6,0,2018,5,1,18,49,48.564,-0.2413,0.397,-0.1339,-0.8752
0.007,-0.002,-0.012,5.1,-1.4,4.4,0,2018,5,1,18,49,48.569,-0.2421,0.3964,-0.1331,-0.8754
0.012,-0.037,0,5.1,-3.4,3,0,2018,5,1,18,49,48.606,-0.2427,0.3959,-0.1318,-0.8757
0.008,-0.051,0.013,4.5,-1.5,0.4,1023,2018,5,1,18,49,48.626,-0.2431,0.3954,-0.1308,-0.8759
-0.006,-0.036,0.025,3.4,3,-2.3,1023,2018,5,1,18,49,48.63,-0.2433,0.3947,-0.1301,-0.8763
-0.008,0,0.03,2.4,6.7,-4.2,1023,2018,5,1,18,49,48.668,-0.2434,0.3938,-0.1306,-0.8766
-0.014,0.023,0.037,0.7,6.8,-4.5,1023,2018,5,1,18,49,48.689,-0.2432,0.3927,-0.1319,-0.8769
-0.011,0.046,0.017,-0.7,4.4,-3.9,1023,2018,5,1,18,49,48.693,-0.2429,0.392,-0.1332,-0.8772
-0.009,0.039,0.006,-1.2,3.7,-2.9,1023,2018,5,1,18,49,48.709,-0.2424,0.3917,-0.1344,-0.8773
-0.003,0.058,-0.003,-1,-0.9,-0.9,1023,2018,5,1,18,49,48.746,-0.242,0.3915,-0.1353,-0.8773
-0.008,0.021,-0.009,-0.3,-5.7,-0.1,1023,2018,5,1,18,49,48.767,-0.2416,0.3916,-0.1352,-0.8774
-0.01,-0.006,0.001,-0.3,-6.8,1,1023,2018,5,1,18,49,48.771,-0.2412,0.3919,-0.1344,-0.8775
-0.01,-0.013,0.005,0,-8.5,1.3,1023,2018,5,1,18,49,48.792,-0.2409,0.3922,-0.1332,-0.8776
-0.01,-0.033,0.012,-0.1,-5.2,1.1,1023,2018,5,1,18,49,48.813,-0.2408,0.3925,-0.1317,-0.8777
-0.015,-0.024,0.017,-0.6,0.4,0,1023,2018,5,1,18,49,48.831,-0.2409,0.3926,-0.1309,-0.8778
-0.017,0.013,0.007,-1.1,4.2,-0.3,1023,2018,5,1,18,49,48.851,-0.2411,0.3924,-0.1313,-0.8778
-0.015,0.033,0,-1.2,3.6,-0.2,1023,2018,5,1,18,49,48.872,-0.2413,0.3922,-0.1321,-0.8777
-0.003,0.033,-0.01,-1.7,1.1,0.2,1023,2018,5,1,18,49,48.892,-0.2413,0.3922,-0.1327,-0.8776
0.001,0.033,-0.016,-1.2,-1,0.8,0,2018,5,1,18,49,48.911,-0.2413,0.3925,-0.1331,-0.8774
0.007,0.018,-0.006,-0.7,-3.5,1.2,0,2018,5,1,18,49,48.95,-0.2412,0.3928,-0.1332,-0.8773
0.004,-0.003,-0.002,-0.6,-2.5,0.5,0,2018,5,1,18,49,48.97,-0.2411,0.3931,-0.1328,-0.8772
0.002,-0.011,-0.003,-0.7,0.1,0.3,0,2018,5,1,18,49,48.974,-0.2411,0.3933,-0.1325,-0.8772
0.007,-0.012,-0.001,-0.3,1,0,0,2018,5,1,18,49,48.992,-0.2413,0.3935,-0.1325,-0.8771
0.003,-0.008,0.013,-0.5,2,0,0,2018,5,1,18,49,49.03,-0.2414,0.3935,-0.1326,-0.877
0.012,0.009,0.013,0.6,1.7,0,0,2018,5,1,18,49,49.049,-0.2416,0.3934,-0.1331,-0.8769
0.004,0.007,0.009,0.6,-5.6,0,0,2018,5,1,18,49,49.053,-0.2416,0.3934,-0.133,-0.877
0,-0.015,0.022,0.3,-9.3,-0.2,0,2018,5,1,18,49,49.091,-0.241,0.3935,-0.1314,-0.8773
0.001,-0.022,0.001,-0.4,-4.7,-1.1,0,2018,5,1,18,49,49.112,-0.2406,0.3938,-0.1301,-0.8775
-0.004,-0.01,0.009,-2.1,-1.2,-1.4,0,2018,5,1,18,49,49.116,-0.2402,0.394,-0.1297,-0.8775
0.002,-0.005,-0.008,-2.6,-0.9,-1.7,0,2018,5,1,18,49,49.135,-0.2399,0.3944,-0.1298,-0.8774
0.009,-0.015,-0.013,-1.9,0.7,-2,0,2018,5,1,18,49,49.155,-0.2396,0.3949,-0.1298,-0.8773
0.015,-0.001,-0.004,-0.9,2.6,-2.5,0,2018,5,1,18,49,49.176,-0.2394,0.3951,-0.1301,-0.8772
0.02,0.014,0.003,-0.4,4.9,-2.7,0,2018,5,1,18,49,49.194,-0.2393,0.395,-0.1311,-0.8771
0.02,0.014,-0.021,0,5.3,-3.1,0,2018,5,1,18,49,49.214,-0.2391,0.3949,-0.1322,-0.8771
0.002,0.017,-0.023,0,10.3,-3.8,0,2018,5,1,18,49,49.234,-0.239,0.3947,-0.134,-0.8769
-0.01,0.035,-0.025,0,9,-3.3,0,2018,5,1,18,49,49.252,-0.239,0.3942,-0.136,-0.8768
-0.025,0.004,-0.014,0.5,8.6,-2.6,0,2018,5,1,18,49,49.294,-0.2392,0.3937,-0.1376,-0.8768
-0.009,0.003,-0.008,1.8,6.3,-2.1,0,2018,5,1,18,49,49.314,-0.2393,0.393,-0.1389,-0.8768
-0.014,-0.014,0.011,1,13.9,-1.3,1023,2018,5,1,18,49,49.318,-0.2399,0.3923,-0.1404,-0.8767
-0.02,0.014,0.02,0.1,17.8,-1.4,1023,2018,5,1,18,49,49.336,-0.2409,0.3912,-0.1428,-0.8766
-0.008,0.018,0.053,0.1,13.6,-1.3,1023,2018,5,1,18,49,49.374,-0.2417,0.3901,-0.1453,-0.8764
-0.033,-0.074,0.095,-3.8,15.7,-1.9,1023,2018,5,1,18,49,49.395,-0.2423,0.3893,-0.1469,-0.8764
0.015,0.09,0.013,-1.9,4.8,-0.2,1023,2018,5,1,18,49,49.399,-0.2433,0.3889,-0.1499,-0.8757
-0.016,-0.024,-0.009,-1.4,3.1,-0.5,1023,2018,5,1,18,49,49.417,-0.2431,0.3892,-0.1497,-0.8757
-0.049,-0.107,0.008,-3.9,-3.8,-5.6,1023,2018,5,1,18,49,49.436,-0.2428,0.3894,-0.1496,-0.8757
-0.035,-0.184,-0.024,-4.9,7.2,-8.9,1023,2018,5,1,18,49,49.456,-0.2416,0.39,-0.1505,-0.8756
-0.007,-0.073,-0.035,-3.3,16.4,-12,1023,2018,5,1,18,49,49.475,-0.2409,0.3899,-0.1529,-0.8755
0.038,0.004,-0.016,-5.1,28.1,-12.6,1023,2018,5,1,18,49,49.513,-0.2405,0.3896,-0.1572,-0.8749
0.069,0.114,0.046,-4.8,25.9,-13.5,1023,2018,5,1,18,49,49.534,-0.2402,0.3888,-0.1632,-0.8743
0.076,0.075,0.031,-5.3,6.9,-12.6,1023,2018,5,1,18,49,49.538,-0.2388,0.3883,-0.1674,-0.8741
0.026,0.005,0.059,-7,1.9,-13.2,1023,2018,5,1,18,49,49.556,-0.2367,0.3887,-0.1692,-0.8741
0,-0.04,0.039,-10.1,3.4,-15.2,0,2018,5,1,18,49,49.576,-0.2347,0.3892,-0.1707,-0.8741
-0.007,-0.009,0.1,-13.7,-4,-18.1,0,2018,5,1,18,49,49.611,-0.2321,0.3902,-0.1723,-0.8741
-0.038,-0.005,0.081,-16.6,-26.8,-20.3,0,2018,5,1,18,49,49.63,-0.2276,0.392,-0.1712,-0.8747
-0.019,0.085,0.027,-16.6,-49.2,-19.8,0,2018,5,1,18,49,49.635,-0.2212,0.3947,-0.1679,-0.8757
-0.018,-0.008,0.063,-16.9,-65.7,-18.9,0,2018,5,1,18,49,49.671,-0.2137,0.3986,-0.1616,-0.877
-0.041,-0.048,-0.019,-14.9,-87.1,-20.2,0,2018,5,1,18,49,49.691,-0.205,0.4029,-0.1517,-0.8789
-0.047,-0.177,-0.065,-12.8,-79.8,-27.3,0,2018,5,1,18,49,49.692,-0.195,0.4076,-0.1408,-0.8808
0.008,0.015,-0.085,-8.2,-97.3,-30,0,2018,5,1,18,49,49.729,-0.1842,0.4116,-0.13,-0.8829
0.059,-0.188,-0.07,-5.2,-87.7,-37,0,2018,5,1,18,49,49.75,-0.1722,0.4153,-0.1184,-0.8852
0.107,-0.013,0.001,-5.2,-94.8,-43.4,0,2018,5,1,18,49,49.755,-0.1595,0.4183,-0.1078,-0.8876
0.095,-0.07,0.016,-5.5,-91.8,-47.8,0,2018,5,1,18,49,49.792,-0.1456,0.4214,-0.096,-0.8899
0.048,0.156,-0.007,-3,-104.9,-47.1,0,2018,5,1,18,49,49.814,-0.1308,0.4239,-0.0851,-0.8921
0.055,0.166,-0.148,5.3,-121.1,-38.6,0,2018,5,1,18,49,49.818,-0.1156,0.4257,-0.0704,-0.8946
0.042,0.135,-0.266,18.4,-111.3,-26.6,0,2018,5,1,18,49,49.854,-0.102,0.4257,-0.0544,-0.8974
-0.054,0.173,-0.208,29,-103.6,-15.4,0,2018,5,1,18,49,49.875,-0.091,0.4236,-0.039,-0.9004
-0.173,0.054,-0.059,30.9,-83,-3.9,0,2018,5,1,18,49,49.877,-0.0825,0.4199,-0.0243,-0.9034
-0.097,-0.118,0.369,11.8,-2.6,-1.5,0,2018,5,1,18,49,49.91,-0.0786,0.4168,-0.0162,-0.9054
0.059,0.318,0.252,-2.8,56.4,4.3,0,2018,5,1,18,49,49.929,-0.082,0.4157,-0.0229,-0.9054
0.099,0.293,0.099,-2.1,-4.7,13.3,0,2018,5,1,18,49,49.934,-0.0854,0.4157,-0.0264,-0.905
0.014,0.072,-0.022,-2.1,-14.9,18.9,0,2018,5,1,18,49,49.968,-0.0867,0.4164,-0.0232,-0.9047
-0.006,-0.035,-0.13,0.7,-1.6,21.5,0,2018,5,1,18,49,49.991,-0.0891,0.4174,-0.0202,-0.9041
-0.044,-0.02,-0.113,4.3,20.3,20.8,1023,2018,5,1,18,49,49.998,-0.0935,0.4176,-0.0197,-0.9035
-0.036,-0.015,-0.047,4.7,25.3,19,1023,2018,5,1,18,49,50.036,-0.0985,0.4169,-0.0217,-0.9033
-0.033,-0.01,0.022,3.5,15.4,17.6,1023,2018,5,1,18,49,50.055,-0.103,0.4157,-0.023,-0.9033
-0.014,-0.042,0.071,1.6,4.1,15.4,1023,2018,5,1,18,49,50.06,-0.1065,0.4147,-0.0226,-0.9033
-0.006,-0.06,0.072,1.5,-2.5,12.1,1023,2018,5,1,18,49,50.096,-0.1089,0.414,-0.0206,-0.9034
-0.003,-0.088,0.061,0.1,-7.1,8.5,1023,2018,5,1,18,49,50.115,-0.1104,0.4136,-0.0181,-0.9035
-0.007,-0.114,0.01,-0.9,-2.7,4.4,1023,2018,5,1,18,49,50.117,-0.1114,0.4136,-0.0157,-0.9034
-0.012,-0.083,-0.027,-0.3,-0.9,0.2,1023,2018,5,1,18,49,50.15,-0.1121,0.4137,-0.0144,-0.9033
-0.002,-0.072,-0.017,-0.9,3.4,-2.7,1023,2018,5,1,18,49,50.17,-0.1123,0.414,-0.0134,-0.9032
0.013,-0.027,-0.007,-1.5,6.7,-4.7,1023,2018,5,1,18,49,50.181,-0.1123,0.4142,-0.0139,-0.903
0.028,-0.006,-0.002,-1.6,8.8,-5.5,1023,2018,5,1,18,49,50.196,-0.1121,0.4144,-0.015,-0.903
0.022,0.017,-0.008,-1.1,8.7,-5.5,1023,2018,5,1,18,49,50.215,-0.1118,0.4146,-0.0169,-0.9029
0.017,0.026,0.002,-0.9,6.9,-4.5,1023,2018,5,1,18,49,50.253,-0.1114,0.4147,-0.0184,-0.9029
0.001,0.039,-0.005,-0.6,4.4,-2.9,1023,2018,5,1,18,49,50.273,-0.1111,0.4147,-0.0198,-0.9029
-0.006,0.035,-0.012,-0.3,1.8,-1.5,0,2018,5,1,18,49,50.282,-0.1108,0.4147,-0.0206,-0.9029
-0.004,0.033,0,0,0,0,0,2018,5,1,18,49,50.32,-0.1106,0.4147,-0.0208,-0.9029
-0.003,0.024,-0.002,0,-0.9,0.2,0,2018,5,1,18,49,50.342,-0.1105,0.4147,-0.0209,-0.9029
0,0.019,-0.002,-0.1,-1,0.2,0,2018,5,1,18,49,50.346,-0.1103,0.4147,-0.0205,-0.903
0,0.014,0.003,-0.3,-0.9,0.1,0,2018,5,1,18,49,50.364,-0.1102,0.4147,-0.0203,-0.903
0.003,0.006,0.003,-0.4,-1.3,0,0,2018,5,1,18,49,50.384,-0.1101,0.4147,-0.0199,-0.903
0.004,0.002,-0.005,0,0,0,0,2018,5,1,18,49,50.402,-0.11,0.4148,-0.0196,-0.903
0.001,0.002,-0.004,0,0,0,0,2018,5,1,18,49,50.443,-0.1099,0.4148,-0.0197,-0.9029
0.002,0,-0.006,0,0,0,0,2018,5,1,18,49,50.447,-0.11,0.4149,-0.0199,-0.9029
0.003,0.003,0.001,0,0,0,0,2018,5,1,18,49,50.463,-0.11,0.4149,-0.0199,-0.9029
0.004,0.002,-0.002,0,0,0,0,2018,5,1,18,49,50.498,-0.1099,0.4149,-0.02,-0.9029
0,0,0,0,0,0,0,2018,5,1,18,49,50.517,-0.1099,0.4149,-0.02,-0.9029
0.002,-0.003,-0.002,-0.1,-0.1,-0.5,0,2018,5,1,18,49,50.519,-0.1099,0.4149,-0.02,-0.9029
0,-0.003,-0.003,-0.1,0.3,-0.6,0,2018,5,1,18,49,50.551,-0.1099,0.4149,-0.0199,-0.9029
0.001,0,-0.001,-0.4,0.9,-0.9,0,2018,5,1,18,49,50.572,-0.1098,0.415,-0.0199,-0.9029
0.002,0.003,-0.001,-0.1,1.1,-1.2,0,2018,5,1,18,49,50.581,-0.1097,0.415,-0.02,-0.9029
0.002,0.008,-0.002,-0.5,1.1,-1,0,2018,5,1,18,49,50.621,-0.1095,0.4151,-0.0203,-0.9029
0.001,0.01,-0.002,-0.1,0.9,-1.2,0,2018,5,1,18,49,50.64,-0.1093,0.4151,-0.0206,-0.9029
0,0.018,-0.004,0,0.9,-0.9,0,2018,5,1,18,49,50.641,-0.1092,0.4151,-0.0212,-0.9028
-0.002,0.017,0.001,0,0.3,-0.6,0,2018,5,1,18,49,50.678,-0.109,0.4151,-0.0215,-0.9029
0,0.014,0.004,-0.4,-0.8,-0.3,0,2018,5,1,18,49,50.697,-0.1089,0.4151,-0.0215,-0.9029
0.006,0.002,-0.009,0,0,0,1023,2018,5,1,18,49,50.7,-0.1087,0.4151,-0.0211,-0.9029
0,0,-0.001,0,0,0,1023,2018,5,1,18,49,50.735,-0.1087,0.4152,-0.0211,-0.9029
-0.002,0.005,0.002,0,0.6,-0.2,1023,2018,5,1,18,49,50.757,-0.1087,0.4152,-0.0212,-0.9029
-0.001,0.003,-0.008,0.1,0.6,0,1023,2018,5,1,18,49,50.764,-0.1087,0.4152,-0.0212,-0.9029
-0.005,0.007,0,-0.1,0.6,0.1,1023,2018,5,1,18,49,50.8,-0.1087,0.4151,-0.0212,-0.9029
-0.004,0.007,0.002,0,0.9,0,1023,2018,5,1,18,49,50.819,-0.1087,0.4151,-0.0212,-0.903
-0.003,0.005,-0.012,0.3,0.6,0.1,1023,2018,5,1,18,49,50.822,-0.1087,0.415,-0.0212,-0.903
-0.007,0.007,-0.001,0.5,-0.1,0.4,1023,2018,5,1,18,49,50.855,-0.1088,0.415,-0.0212,-0.903
0.001,0.006,0.011,0,-1.7,0.2,1023,2018,5,1,18,49,50.874,-0.1087,0.4149,-0.021,-0.903
0.006,-0.003,0.008,-0.3,-2.1,-0.2,1023,2018,5,1,18,49,50.885,-0.1085,0.4149,-0.0204,-0.9031
0.005,-0.011,0.004,-0.4,-1.2,-0.5,1023,2018,5,1,18,49,50.918,-0.1084,0.415,-0.0201,-0.9031
0.001,-0.014,-0.005,-0.4,0.4,-0.9,1023,2018,5,1,18,49,50.94,-0.1082,0.4151,-0.0199,-0.903
-0.001,-0.001,-0.008,-0.4,1.7,-0.8,1023,2018,5,1,18,49,50.948,-0.1082,0.4152,-0.0197,-0.903
-0.005,0.013,-0.001,0,1.5,-0.4,1023,2018,5,1,18,49,50.964,-0.1081,0.4152,-0.0201,-0.903
-0.002,0.02,0.002,0,0.6,-0.1,1023,2018,5,1,18,49,51.005,-0.1081,0.4151,-0.0202,-0.903
-0.004,0.012,-0.005,0,0,0,0,2018,5,1,18,49,51.024,-0.108,0.4151,-0.0205,-0.903
0.001,0.013,-0.005,0.1,-0.7,0.3,0,2018,5,1,18,49,51.027,-0.1079,0.4151,-0.0205,-0.9031
0.002,0.007,-0.009,0.2,-0.9,0.4,0,2018,5,1,18,49,51.061,-0.1078,0.4151,-0.0203,-0.9031
0.006,0.007,0.004,0,-1.4,0.1,0,2018,5,1,18,49,51.081,-0.1077,0.4151,-0.0199,-0.9031
0,-0.003,-0.004,0.1,-1,0.1,0,2018,5,1,18,49,51.085,-0.1076,0.4151,-0.0193,-0.9031
0.004,-0.003,-0.002,0,0,0,0,2018,5,1,18,49,51.118,-0.1075,0.4151,-0.0193,-0.9031
-0.004,0,-0.001,0,0,0,0,2018,5,1,18,49,51.139,-0.1075,0.4152,-0.0193,-0.9031
-0.004,0,-0.002,0.6,-0.5,0.1,0,2018,5,1,18,49,51.146,-0.1075,0.4151,-0.0193,-0.9031
-0.002,-0.002,0,0.4,-0.9,0.1,0,2018,5,1,18,49,51.181,-0.1074,0.415,-0.0189,-0.9032
-0.001,0,0.004,0.2,-1,0.1,0,2018,5,1,18,49,51.202,-0.1073,0.4149,-0.0186,-0.9032
0,-0.004,0.003,0,0,0,0,2018,5,1,18,49,51.207,-0.1073,0.4149,-0.0183,-0.9033
-0.003,-0.001,0.003,0,0,0,0,2018,5,1,18,49,51.246,-0.1073,0.4149,-0.0183,-0.9033
-0.002,0.004,0.002,0,0,0,0,2018,5,1,18,49,51.25,-0.1072,0.4148,-0.0184,-0.9033
0,0.006,0.002,0,0,0,0,2018,5,1,18,49,51.27,-0.1072,0.4148,-0.0185,-0.9033
0.002,0.003,-0.001,0,0,0,0,2018,5,1,18,49,51.289,-0.1071,0.4148,-0.0186,-0.9033
-0.001,0.002,0,0,0,0,0,2018,5,1,18,49,51.309,-0.1071,0.4149,-0.0187,-0.9033
-0.001,0.006,0,0,0,0,0,2018,5,1,18,49,51.347,-0.107,0.4149,-0.0188,-0.9033
-0.003,0.007,-0.001,0,0,0,0,2018,5,1,18,49,51.367,-0.107,0.4149,-0.019,-0.9033
-0.003,0.007,0.003,0.3,-1.2,0.4,0,2018,5,1,18,49,51.373,-0.1069,0.4149,-0.0188,-0.9033
0.002,-0.003,0,0.2,-1.7,0.4,0,2018,5,1,18,49,51.393,-0.1068,0.4148,-0.0182,-0.9033
0.002,-0.012,-0.011,0.4,-0.6,0.2,0,2018,5,1,18,49,51.407,-0.1067,0.4149,-0.0179,-0.9033
0,-0.004,-0.004,0.6,0.3,-0.1,0,2018,5,1,18,49,51.44,-0.1068,0.4149,-0.0179,-0.9033
-0.001,0,-0.001,0.4,0.6,-0.1,0,2018,5,1,18,49,51.461,-0.1068,0.4148,-0.0179,-0.9034
-0.005,0.004,-0.001,0.3,0.6,-0.1,0,2018,5,1,18,49,51.466,-0.1067,0.4147,-0.0178,-0.9034
-0.003,0.009,0.007,0,0,0,0,2018,5,1,18,49,51.501,-0.1067,0.4146,-0.0179,-0.9035
-0.003,0.001,-0.013,0.3,0,0.5,1023,2018,5,1,18,49,51.52,-0.1067,0.4146,-0.018,-0.9035
-0.012,0.007,-0.015,0.9,0.2,0.9,1023,2018,5,1,18,49,51.529,-0.1068,0.4145,-0.0181,-0.9035
-0.006,0.004,0.007,0.8,-0.9,1,1023,2018,5,1,18,49,51.565,-0.1069,0.4143,-0.018,-0.9036
-0.001,0.001,0.01,0.5,-2,0.7,1023,2018,5,1,18,49,51.585,-0.1068,0.4141,-0.0175,-0.9037
0.006,-0.007,0.003,0.3,-1.5,0.4,1023,2018,5,1,18,49,51.591,-0.1068,0.4141,-0.0168,-0.9037
0.009,-0.006,0,0,-0.6,0.2,1023,2018,5,1,18,49,51.625,-0.1067,0.4141,-0.0163,-0.9037
0.001,-0.004,-0.003,0,0,0,1023,2018,5,1,18,49,51.646,-0.1067,0.4141,-0.0162,-0.9037
-0.004,0.003,-0.004,0,0,0,1023,2018,5,1,18,49,51.65,-0.1067,0.4141,-0.0163,-0.9037
-0.003,0.002,0.004,0,0,0,1023,2018,5,1,18,49,51.685,-0.1067,0.4141,-0.0163,-0.9037
0.001,-0.001,0.004,0,-0.7,0.4,1023,2018,5,1,18,49,51.705,-0.1066,0.4141,-0.016,-0.9037
0.002,-0.004,-0.002,0,0,0,1023,2018,5,1,18,49,51.707,-0.1066,0.4141,-0.0161,-0.9037
0,0.003,-0.006,0.1,0.9,-0.1,1023,2018,5,1,18,49,51.74,-0.1066,0.4141,-0.0161,-0.9038
-0.002,0.015,-0.003,0,0.7,0.1,1023,2018,5,1,18,49,51.761,-0.1066,0.4141,-0.0162,-0.9038
0,0.013,0,0.2,-0.7,0.4,1023,2018,5,1,18,49,51.769,-0.1065,0.414,-0.0163,-0.9038
0,0.002,-0.004,0.2,-1.2,0.8,1023,2018,5,1,18,49,51.805,-0.1064,0.414,-0.0161,-0.9038
0,-0.003,-0.005,0.4,-0.7,0.9,1023,2018,5,1,18,49,51.825,-0.1065,0.414,-0.0158,-0.9038
-0.003,-0.01,0,0.4,-0.2,0.7,1023,2018,5,1,18,49,51.833,-0.1065,0.414,-0.0154,-0.9038
-0.003,-0.003,0.001,0.3,-0.6,0.6,0,2018,5,1,18,49,51.869,-0.1066,0.4139,-0.0153,-0.9039
-0.004,-0.003,0.004,0,-0.7,0.4,0,2018,5,1,18,49,51.888,-0.1066,0.4138,-0.0151,-0.9039
0,-0.011,0.003,0.3,-1,0.4,0,2018,5,1,18,49,51.894,-0.1066,0.4138,-0.015,-0.9039
0,-0.005,0.002,0,0,0,0,2018,5,1,18,49,51.927,-0.1066,0.4137,-0.0148,-0.9039
-0.001,-0.008,0.007,0,0,0,0,2018,5,1,18,49,51.947,-0.1066,0.4137,-0.0148,-0.9039
0,-0.001,0.002,0,0,0,0,2018,5,1,18,49,51.949,-0.1066,0.4137,-0.0149,-0.904
-0.002,0.003,-0.004,0,0,0,0,2018,5,1,18,49,51.985,-0.1066,0.4137,-0.015,-0.904
0,0.003,-0.004,0,0,0,0,2018,5,1,18,49,52.005,-0.1065,0.4137,-0.0151,-0.904
-0.002,0.007,-0.005,0,0,0,0,2018,5,1,18,49,52.01,-0.1065,0.4137,-0.0152,-0.9039
-0.001,0.009,0,0,0,0,0,2018,5,1,18,49,52.047,-0.1064,0.4137,-0.0154,-0.904
-0.001,0.008,-0.006,0.4,-1,0.4,0,2018,5,1,18,49,52.066,-0.1063,0.4137,-0.0152,-0.904
0.001,0.003,-0.003,0.4,-0.5,0.6,0,2018,5,1,18,49,52.073,-0.1063,0.4136,-0.0148,-0.904
0,-0.004,0.004,0.2,-1.2,0.5,0,2018,5,1,18,49,52.11,-0.1063,0.4136,-0.0146,-0.9041
0.002,-0.009,0,0.3,-0.4,0.8,0,2018,5,1,18,49,52.131,-0.1063,0.4135,-0.0142,-0.9041
0,-0.009,-0.008,0.6,1.1,0.4,0,2018,5,1,18,49,52.134,-0.1064,0.4135,-0.0142,-0.9041
-0.003,0.002,-0.004,0.5,1.1,0.2,0,2018,5,1,18,49,52.172,-0.1065,0.4134,-0.0139,-0.9041
-0.002,0.003,0.005,0,0,0,0,2018,5,1,18,49,52.191,-0.1065,0.4133,-0.0137,-0.9042
-0.003,0,0.001,0.5,-0.1,0.3,0,2018,5,1,18,49,52.194,-0.1065,0.4132,-0.0137,-0.9042
-0.005,0,0.008,0,0,0,0,2018,5,1,18,49,52.228,-0.1064,0.4132,-0.0138,-0.9042
-0.004,0.001,-0.002,0,0,0,0,2018,5,1,18,49,52.248,-0.1064,0.4131,-0.0139,-0.9043
-0.005,0,-0.007,0.8,0.7,0.3,0,2018,5,1,18,49,52.253,-0.1065,0.413,-0.0137,-0.9043
-0.005,0.003,0.004,0.7,0,0.4,0,2018,5,1,18,49,52.288,-0.1065,0.4128,-0.0134,-0.9044
-0.001,0.006,0.015,0.1,-1,0.4,0,2018,5,1,18,49,52.31,-0.1065,0.4126,-0.0134,-0.9045
0.005,0,0.002,0,-0.7,0.5,0,2018,5,1,18,49,52.314,-0.1064,0.4126,-0.0128,-0.9045
0.005,-0.003,-0.001,0,0,0,0,2018,5,1,18,49,52.35,-0.1064,0.4126,-0.0127,-0.9045
0,0.031,0,-0.3,5.7,1.1,0,2018,5,1,18,49,52.369,-0.1068,0.4126,-0.0131,-0.9044
-0.005,-0.003,-0.004,0,-2.4,1.3,0,2018,5,1,18,49,52.373,-0.1069,0.4126,-0.0132,-0.9044
-0.008,-0.019,-0.002,0,-0.6,0.7,0,2018,5,1,18,49,52.411,-0.107,0.4126,-0.0124,-0.9044
-0.003,-0.004,0,0.2,0.5,0.2,1023,2018,5,1,18,49,52.432,-0.1071,0.4126,-0.0124,-0.9044
-0.002,0.006,-0.001,0.1,0.6,0.1,1023,2018,5,1,18,49,52.434,-0.1071,0.4125,-0.0124,-0.9045
-0.004,0.007,-0.004,0.1,0.5,0.3,1023,2018,5,1,18,49,52.472,-0.107,0.4125,-0.0125,-0.9045
0.003,0.007,0,0,0,0,1023,2018,5,1,18,49,52.493,-0.107,0.4125,-0.0127,-0.9045
0.004,0.006,0.001,0.3,-0.7,0.5,1023,2018,5,1,18,49,52.497,-0.107,0.4125,-0.0125,-0.9045
0,0.003,-0.002,0.1,-0.6,0.5,1023,2018,5,1,18,49,52.535,-0.107,0.4125,-0.0123,-0.9045
-0.003,-0.005,-0.001,0.3,-0.7,0.5,1023,2018,5,1,18,49,52.555,-0.107,0.4125,-0.0123,-0.9045
-0.005,-0.004,-0.002,0.5,-0.2,0.2,1023,2018,5,1,18,49,52.557,-0.107,0.4124,-0.0121,-0.9045
-0.004,-0.007,0.007,0.3,-1,0.1,1023,2018,5,1,18,49,52.59,-0.107,0.4123,-0.012,-0.9046
0,-0.008,0.008,0,-0.8,0,1023,2018,5,1,18,49,52.609,-0.1069,0.4122,-0.0117,-0.9046
-0.003,-0.011,0.001,0,0,0,1023,2018,5,1,18,49,52.618,-0.1068,0.4122,-0.0114,-0.9047
0,-0.008,-0.002,0,0,0,1023,2018,5,1,18,49,52.652,-0.1068,0.4122,-0.0114,-0.9047
-0.002,-0.003,-0.001,-0.1,0.7,-0.2,1023,2018,5,1,18,49,52.673,-0.1068,0.4122,-0.0116,-0.9047
-0.004,0.002,0,-0.1,0.8,-0.1,1023,2018,5,1,18,49,52.674,-0.1068,0.4122,-0.0118,-0.9047
0,0.006,0,0,0,0,1023,2018,5,1,18,49,52.711,-0.1068,0.4122,-0.0119,-0.9047
0,0.003,-0.003,0,0,0,1023,2018,5,1,18,49,52.731,-0.1067,0.4122,-0.0121,-0.9047
0,0.008,0.001,0,0,0,1023,2018,5,1,18,49,52.738,-0.1067,0.4122,-0.0122,-0.9047
0.001,0.006,-0.004,0,0,0,1023,2018,5,1,18,49,52.775,-0.1066,0.4122,-0.0123,-0.9047
-0.002,0.002,0,0.2,-0.7,0.4,1023,2018,5,1,18,49,52.794,-0.1065,0.4122,-0.0125,-0.9047
-0.003,-0.004,0,0.3,-0.8,0.5,1023,2018,5,1,18,49,52.798,-0.1065,0.4122,-0.0125,-0.9047
0,-0.009,0.002,0.3,-0.5,0.7,0,2018,5,1,18,49,52.833,-0.1066,0.4122,-0.0121,-0.9047
0,-0.009,0.004,0,0.3,0.5,0,2018,5,1,18,49,52.852,-0.1067,0.4121,-0.0121,-0.9047
0.005,0.03,0.012,0.2,2.3,0.3,0,2018,5,1,18,49,52.859,-0.1069,0.412,-0.0121,-0.9047
-0.001,-0.011,0.002,0,0,0,0,2018,5,1,18,49,52.894,-0.1069,0.412,-0.0121,-0.9047
-0.002,0.002,0.002,0.3,0.5,-0.1,0,2018,5,1,18,49,52.915,-0.1069,0.412,-0.0122,-0.9047
-0.002,0,0.001,0,0,0,0,2018,5,1,18,49,52.92,-0.1069,0.4119,-0.0123,-0.9048
-0.004,0.002,-0.002,0,0,0,0,2018,5,1,18,49,52.957,-0.1069,0.4119,-0.0124,-0.9048
0,0.003,0.002,0,0,0,0,2018,5,1,18,49,52.978,-0.1068,0.4119,-0.0125,-0.9048
-0.001,0.001,0.003,0,-1,-0.1,0,2018,5,1,18,49,52.979,-0.1067,0.4118,-0.0125,-0.9048
0,-0.002,0.006,-0.1,-0.6,0,0,2018,5,1,18,49,53.012,-0.1066,0.4118,-0.012,-0.9048
-0.001,-0.004,-0.001,0,0,0,0,2018,5,1,18,49,53.033,-0.1066,0.4118,-0.012,-0.9048
-0.003,-0.003,0,0,0,0,0,2018,5,1,18,49,53.038,-0.1066,0.4118,-0.0121,-0.9049
-0.009,-0.002,-0.012,0.3,1.4,0.3,0,2018,5,1,18,49,53.075,-0.1067,0.4118,-0.0125,-0.9048
-0.008,0.011,0,0.3,0.4,0.5,0,2018,5,1,18,49,53.095,-0.1068,0.4117,-0.0125,-0.9049
0.001,0.009,0.009,0.3,-1.1,0.6,0,2018,5,1,18,49,53.1,-0.1068,0.4115,-0.0122,-0.905
0.006,-0.002,0.004,0.3,-2.3,0.6,0,2018,5,1,18,49,53.136,-0.1067,0.4115,-0.0118,-0.905
0.009,-0.016,0.007,-0.1,-1.5,0.1,0,2018,5,1,18,49,53.155,-0.1066,0.4116,-0.0113,-0.905
0.005,-0.015,-0.001,0,0,0,0,2018,5,1,18,49,53.159,-0.1066,0.4116,-0.0109,-0.905
-0.003,-0.018,-0.001,-0.1,1,-0.5,0,2018,5,1,18,49,53.194,-0.1066,0.4116,-0.0108,-0.905
-0.011,0.002,0.006,-0.1,0.7,-0.3,0,2018,5,1,18,49,53.214,-0.1066,0.4116,-0.0107,-0.905
-0.005,0.008,0.003,0,0,0,0,2018,5,1,18,49,53.22,-0.1065,0.4115,-0.0108,-0.905
-0.004,0.005,0,0,0,0,0,2018,5,1,18,49,53.258,-0.1065,0.4115,-0.0109,-0.905
0,0.008,0.001,0,0,0,0,2018,5,1,18,49,53.277,-0.1064,0.4115,-0.0111,-0.905
-0.001,0.009,0,0,0,0,0,2018,5,1,18,49,53.281,-0.1063,0.4114,-0.0112,-0.9051
-0.001,0.007,0.003,-0.1,-0.6,0.1,0,2018,5,1,18,49,53.315,-0.1063,0.4114,-0.0113,-0.9051
-0.003,-0.001,-0.001,-0.1,-1.3,0.2,0,2018,5,1,18,49,53.334,-0.1062,0.4114,-0.0113,-0.9051
-0.001,-0.008,-0.007,-0.1,-0.7,0.2,0,2018,5,1,18,49,53.343,-0.1062,0.4115,-0.0111,-0.9051
-0.005,-0.008,0.002,0,0,0,1023,2018,5,1,18,49,53.378,-0.1062,0.4115,-0.0109,-0.9051
-0.004,-0.005,0.004,0,0,0,1023,2018,5,1,18,49,53.397,-0.1062,0.4114,-0.0109,-0.9051
0,-0.005,0.008,0,0,0,1023,2018,5,1,18,49,53.398,-0.1062,0.4114,-0.0109,-0.9051
0.002,-0.012,0.006,-0.5,-0.1,-0.3,1023,2018,5,1,18,49,53.433,-0.1061,0.4114,-0.0108,-0.9051
0,-0.012,-0.002,-0.4,0.7,-0.6,1023,2018,5,1,18,49,53.452,-0.1061,0.4114,-0.0107,-0.9051
0,-0.005,0.002,-0.4,1.4,-0.9,1023,2018,5,1,18,49,53.461,-0.1061,0.4114,-0.0106,-0.9051
-0.003,0.005,0,-0.4,1.4,-0.9,1023,2018,5,1,18,49,53.5,-0.106,0.4115,-0.0107,-0.9051
-0.002,0.008,0,-0.3,1.3,-0.8,1023,2018,5,1,18,49,53.519,-0.1059,0.4115,-0.011,-0.9051
-0.003,0.007,0.002,-0.4,0.4,-0.6,1023,2018,5,1,18,49,53.524,-0.1058,0.4115,-0.0113,-0.9051
-0.001,0.005,-0.004,0,0,0,1023,2018,5,1,18,49,53.56,-0.1057,0.4116,-0.0116,-0.9051
0,0.002,0.002,-0.2,0.1,-0.5,1023,2018,5,1,18,49,53.583,-0.1056,0.4116,-0.0118,-0.9051
-0.002,0.006,-0.002,0,0,0,1023,2018,5,1,18,49,53.587,-0.1055,0.4116,-0.012,-0.9051
0.001,0.002,-0.002,0,0,0,1023,2018,5,1,18,49,53.606,-0.1055,0.4116,-0.0121,-0.9051
-0.001,-0.002,-0.005,0,0,0,1023,2018,5,1,18,49,53.624,-0.1054,0.4116,-0.0122,-0.9051
0,-0.003,-0.003,0,0,0,1023,2018,5,1,18,49,53.659,-0.1054,0.4117,-0.0122,-0.9051
0,-0.007,0.001,0,0,0,1023,2018,5,1,18,49,53.679,-0.1054,0.4117,-0.0122,-0.9051
-0.001,-0.007,0.002,0,0,0,1023,2018,5,1,18,49,53.682,-0.1054,0.4117,-0.0122,-0.9051
0,-0.007,0,0,0,0,1023,2018,5,1,18,49,53.714,-0.1054,0.4116,-0.0122,-0.9051
-0.001,-0.002,0.002,-0.3,0.6,-0.6,1023,2018,5,1,18,49,53.734,-0.1054,0.4116,-0.0121,-0.9051
-0.001,-0.002,0,-0.3,0.6,-0.8,0,2018,5,1,18,49,53.746,-0.1053,0.4117,-0.0121,-0.9051
-0.003,0,0,-0.4,0.6,-0.7,0,2018,5,1,18,49,53.784,-0.1052,0.4117,-0.0122,-0.9051
0,0,0.003,-0.6,0.4,-0.7,0,2018,5,1,18,49,53.803,-0.1051,0.4117,-0.0124,-0.9051
0,0.003,-0.001,-0.7,0.4,-0.8,0,2018,5,1,18,49,53.806,-0.1049,0.4118,-0.0125,-0.9051
-0.005,0.001,0.001,-0.5,0.5,-0.8,0,2018,5,1,18,49,53.844,-0.1048,0.4118,-0.0124,-0.905
-0.001,0.002,0.001,-0.5,0.3,-0.7,0,2018,5,1,18,49,53.864,-0.1046,0.4119,-0.0125,-0.9051
-0.004,0.003,-0.006,-0.5,0.5,-0.6,0,2018,5,1,18,49,53.867,-0.1045,0.412,-0.0123,-0.905
-0.002,0.005,-0.002,-0.4,0.6,-0.8,0,2018,5,1,18,49,53.9,-0.1044,0.4121,-0.0128,-0.905
-0.002,0.004,0.004,-0.4,0,-0.5,0,2018,5,1,18,49,53.92,-0.1043,0.4121,-0.0128,-0.905
0.005,0,0.002,-0.6,-0.3,-0.3,0,2018,5,1,18,49,53.922,-0.1042,0.4122,-0.013,-0.905
0.001,-0.006,-0.005,-0.3,0.5,-0.2,0,2018,5,1,18,49,53.955,-0.1042,0.4122,-0.013,-0.9049
0,0.003,0.001,-0.6,0.9,-0.3,0,2018,5,1,18,49,53.976,-0.1041,0.4123,-0.0132,-0.9049
-0.004,0,-0.011,-0.2,1.4,-0.2,0,2018,5,1,18,49,53.986,-0.1041,0.4124,-0.0135,-0.9049
-0.009,0.003,-0.01,0.3,0.9,0,0,2018,5,1,18,49,54.021,-0.1042,0.4124,-0.0136,-0.9049
-0.001,0.006,0.012,-0.1,-1,0,0,2018,5,1,18,49,54.042,-0.1041,0.4123,-0.0136,-0.9049
0.001,-0.009,0.008,-0.3,-1.8,-0.2,0,2018,5,1,18,49,54.05,-0.1039,0.4123,-0.0132,-0.9049
0.006,-0.018,0.005,-0.4,-0.6,-0.6,0,2018,5,1,18,49,54.07,-0.1038,0.4124,-0.0127,-0.9049
0.002,-0.016,-0.003,-0.6,0.7,-1,0,2018,5,1,18,49,54.092,-0.1036,0.4125,-0.0124,-0.9049
-0.002,-0.006,-0.003,-0.6,1.8,-1,0,2018,5,1,18,49,54.127,-0.1036,0.4126,-0.0128,-0.9048
-0.006,0,0,-0.5,1.4,-0.8,0,2018,5,1,18,49,54.129,-0.1035,0.4127,-0.0132,-0.9048
-0.002,0.01,0,-0.3,0.7,-0.5,0,2018,5,1,18,49,54.147,-0.1035,0.4127,-0.0137,-0.9048
-0.002,0.004,-0.007,-0.5,0.5,-0.6,0,2018,5,1,18,49,54.181,-0.1034,0.4128,-0.0138,-0.9048
-0.001,0.007,-0.006,-0.4,0.7,-0.6,0,2018,5,1,18,49,54.201,-0.1033,0.4128,-0.0141,-0.9047
0.001,0.007,-0.001,-0.4,0.7,-0.6,0,2018,5,1,18,49,54.206,-0.1031,0.4129,-0.014,-0.9047
-0.002,0.009,0.003,0,0,0,0,2018,5,1,18,49,54.24,-0.1031,0.413,-0.0144,-0.9047
0,0.002,0.003,-0.3,-0.7,-0.2,0,2018,5,1,18,49,54.26,-0.103,0.413,-0.0143,-0.9047
-0.003,-0.003,0,-0.5,-0.6,-0.1,0,2018,5,1,18,49,54.269,-0.1028,0.413,-0.014,-0.9047
-0.004,-0.008,-0.006,0,0,0,0,2018,5,1,18,49,54.304,-0.1028,0.4131,-0.0139,-0.9047
-0.003,-0.01,0.003,0,0,0,1023,2018,5,1,18,49,54.325,-0.1028,0.4131,-0.0139,-0.9047
-0.002,-0.008,0.003,0,0,0,1023,2018,5,1,18,49,54.329,-0.1028,0.413,-0.0139,-0.9047
-0.001,-0.011,0.001,-0.4,0,-0.5,1023,2018,5,1,18,49,54.367,-0.1028,0.413,-0.0139,-0.9047
-0.002,-0.01,-0.003,-0.6,0.9,-0.7,1023,2018,5,1,18,49,54.386,-0.1028,0.4131,-0.0138,-0.9047
-0.001,-0.001,0,-0.6,1.1,-0.8,1023,2018,5,1,18,49,54.391,-0.1027,0.4131,-0.0141,-0.9047
-0.001,0.003,-0.004,-0.7,1,-0.8,1023,2018,5,1,18,49,54.429,-0.1026,0.4132,-0.0144,-0.9046
0.001,0.006,-0.001,-0.6,0.4,-0.8,1023,2018,5,1,18,49,54.447,-0.1025,0.4133,-0.0147,-0.9046
-0.001,0.002,0,-0.7,0,-0.6,1023,2018,5,1,18,49,54.45,-0.1023,0.4134,-0.0148,-0.9046
-0.003,0.006,-0.004,-0.4,0.1,-0.5,1023,2018,5,1,18,49,54.486,-0.1022,0.4135,-0.015,-0.9046
-0.001,0.006,0,-0.2,0.2,-0.6,1023,2018,5,1,18,49,54.505,-0.1021,0.4135,-0.0151,-0.9045
-0.002,0.002,-0.005,0,0,0,1023,2018,5,1,18,49,54.511,-0.102,0.4136,-0.0153,-0.9045
0,0.004,0.002,0,0,0,1023,2018,5,1,18,49,54.546,-0.102,0.4136,-0.0154,-0.9045
-0.001,0,0,0,0,0,1023,2018,5,1,18,49,54.566,-0.1019,0.4136,-0.0155,-0.9045
0.001,-0.002,-0.006,0,0,0,1023,2018,5,1,18,49,54.574,-0.1019,0.4136,-0.0155,-0.9045
0,-0.008,0,0,0,0,1023,2018,5,1,18,49,54.612,-0.1019,0.4136,-0.0155,-0.9045
-0.001,-0.005,0,0,0,0,1023,2018,5,1,18,49,54.633,-0.1019,0.4136,-0.0155,-0.9045
-0.004,-0.002,-0.001,0,0,0,1023,2018,5,1,18,49,54.638,-0.1019,0.4136,-0.0155,-0.9045
0,-0.004,0,0,0,0,1023,2018,5,1,18,49,54.657,-0.1019,0.4136,-0.0155,-0.9045
-0.002,-0.001,0.001,-0.3,0.1,-0.5,1023,2018,5,1,18,49,54.678,-0.1018,0.4136,-0.0156,-0.9045
-0.002,0,0.003,-0.3,0.3,-0.5,1023,2018,5,1,18,49,54.692,-0.1017,0.4136,-0.0154,-0.9045
-0.001,0.002,0.003,-0.3,0.1,-0.6,0,2018,5,1,18,49,54.729,-0.1016,0.4136,-0.0152,-0.9046
0,0.001,-0.002,-0.6,0.3,-0.3,0,2018,5,1,18,49,54.75,-0.1015,0.4136,-0.0152,-0.9046
-0.002,0,0,0,0,0,0,2018,5,1,18,49,54.754,-0.1015,0.4137,-0.0152,-0.9046
0,0,0,0,0,0,0,2018,5,1,18,49,54.795,-0.1014,0.4137,-0.0153,-0.9045
0.003,0.002,0,0,0,0,0,2018,5,1,18,49,54.799,-0.1014,0.4137,-0.0155,-0.9045
0,0.001,-0.008,-0.4,0.5,-0.5,0,2018,5,1,18,49,54.814,-0.1013,0.4138,-0.0156,-0.9045
0,0.001,-0.007,-0.5,0.8,-0.6,0,2018,5,1,18,49,54.852,-0.1012,0.4139,-0.0158,-0.9045
-0.001,0.002,-0.004,-0.3,0.6,-0.6,0,2018,5,1,18,49,54.872,-0.1011,0.4139,-0.0158,-0.9045
0.002,0.004,-0.001,0,0,0,0,2018,5,1,18,49,54.876,-0.101,0.414,-0.0159,-0.9044
-0.001,0,-0.001,0,0,0,0,2018,5,1,18,49,54.912,-0.1009,0.414,-0.0159,-0.9044
0.001,0.001,0,-0.3,0.6,-0.2,0,2018,5,1,18,49,54.933,-0.1009,0.414,-0.016,-0.9044
0,0.001,-0.012,-0.1,0.7,-0.2,0,2018,5,1,18,49,54.937,-0.1009,0.4141,-0.0162,-0.9044
-0.01,0.002,-0.007,0.4,0.7,-0.1,0,2018,5,1,18,49,54.955,-0.1009,0.414,-0.0163,-0.9044
-0.004,0.007,0.009,0.1,-0.9,0,0,2018,5,1,18,49,54.974,-0.1008,0.414,-0.0164,-0.9045
0.006,-0.011,0.009,-0.2,-1.7,-0.2,0,2018,5,1,18,49,55.014,-0.1007,0.4139,-0.0162,-0.9045
0.005,-0.017,0.002,-0.4,-0.4,-0.5,0,2018,5,1,18,49,55.034,-0.1006,0.414,-0.0161,-0.9045
0,-0.013,-0.006,-0.6,0.7,-0.8,0,2018,5,1,18,49,55.038,-0.1005,0.4141,-0.016,-0.9044
-0.004,0.003,-0.005,-0.5,1.7,-0.8,0,2018,5,1,18,49,55.058,-0.1005,0.4142,-0.0163,-0.9044
-0.005,0.009,0,-0.4,1.6,-0.6,0,2018,5,1,18,49,55.078,-0.1004,0.4143,-0.0165,-0.9044
-0.004,0.011,0.001,0,0,0,0,2018,5,1,18,49,55.114,-0.1003,0.4143,-0.0167,-0.9044
0,0.006,0.002,0,0,0,0,2018,5,1,18,49,55.118,-0.1003,0.4143,-0.0168,-0.9044
-0.001,0.003,-0.006,0,0,0,0,2018,5,1,18,49,55.136,-0.1002,0.4143,-0.0169,-0.9044
0.001,0.006,-0.007,0,0,0,0,2018,5,1,18,49,55.176,-0.1002,0.4143,-0.017,-0.9044
0.001,0.006,0.001,-0.4,-0.5,0,0,2018,5,1,18,49,55.193,-0.1001,0.4143,-0.0171,-0.9044
0.004,0.001,0.006,-0.6,-0.8,0,0,2018,5,1,18,49,55.198,-0.1,0.4144,-0.0171,-0.9044
0,-0.013,-0.004,0,0,0,0,2018,5,1,18,49,55.219,-0.1,0.4145,-0.0167,-0.9043
-0.004,-0.008,-0.004,0,0,0,0,2018,5,1,18,49,55.238,-0.1,0.4145,-0.0167,-0.9043
-0.004,-0.005,0.002,0,0,0,0,2018,5,1,18,49,55.259,-0.1,0.4145,-0.0167,-0.9043
-0.003,-0.003,0.003,0,0,0,0,2018,5,1,18,49,55.279,-0.1,0.4145,-0.0167,-0.9043
0.001,-0.003,0.001,0,0,0,1023,2018,5,1,18,49,55.316,-0.1,0.4145,-0.0167,-0.9043
-0.001,-0.002,0.001,0,0,0,1023,2018,5,1,18,49,55.337,-0.1,0.4145,-0.0167,-0.9043
0,-0.001,-0.004,-0.4,0.6,-0.5,1023,2018,5,1,18,49,55.341,-0.0999,0.4146,-0.0172,-0.9042
0.001,0.002,0.001,-0.6,0.5,-0.6,1023,2018,5,1,18,49,55.357,-0.0999,0.4147,-0.0174,-0.9042
0,0.003,0,-0.3,0.2,-0.5,1023,2018,5,1,18,49,55.376,-0.0997,0.4148,-0.0176,-0.9042
0,0.002,-0.002,0,0,0,1023,2018,5,1,18,49,55.399,-0.0996,0.4148,-0.0177,-0.9042
0,0.004,-0.002,0,0.5,-0.3,1023,2018,5,1,18,49,55.418,-0.0996,0.4148,-0.0178,-0.9042
-0.004,0.01,-0.003,0,0,0,1023,2018,5,1,18,49,55.437,-0.0995,0.4149,-0.018,-0.9042
-0.003,0.007,-0.001,0,0,0,1023,2018,5,1,18,49,55.459,-0.0995,0.4149,-0.0181,-0.9042
-0.002,0.006,0,0.1,-0.7,0.3,1023,2018,5,1,18,49,55.48,-0.0994,0.4149,-0.018,-0.9042
0.003,0,0.001,0.1,-1.1,0.2,1023,2018,5,1,18,49,55.499,-0.0994,0.4149,-0.0179,-0.9042
0.004,-0.005,-0.002,0,-0.8,0.4,1023,2018,5,1,18,49,55.521,-0.0993,0.4149,-0.0177,-0.9042
0,-0.007,0.001,0,-0.5,0.1,1023,2018,5,1,18,49,55.557,-0.0993,0.4149,-0.0174,-0.9042
0,-0.01,0.001,0,0,0,1023,2018,5,1,18,49,55.578,-0.0993,0.4149,-0.0173,-0.9042
-0.003,-0.005,0.001,0,0.6,-0.4,0,2018,5,1,18,49,55.582,-0.0993,0.4149,-0.0173,-0.9042
-0.002,0,0.002,0,0,0,0,2018,5,1,18,49,55.6,-0.0993,0.4149,-0.0174,-0.9042
-0.001,0.004,-0.002,0,0,0,0,2018,5,1,18,49,55.62,-0.0993,0.4148,-0.0175,-0.9042
-0.004,0.003,-0.001,0,0,0,0,2018,5,1,18,49,55.636,-0.0993,0.4148,-0.0175,-0.9042
0,0.003,0,0,0,0,0,2018,5,1,18,49,55.658,-0.0992,0.4148,-0.0176,-0.9042
0.001,0.002,-0.005,0,0,0,0,2018,5,1,18,49,55.695,-0.0992,0.4148,-0.0177,-0.9042
0.001,0.003,-0.007,0,0,0,0,2018,5,1,18,49,55.716,-0.0992,0.4149,-0.0178,-0.9042
-0.002,0.007,0.001,0,0,0,0,2018,5,1,18,49,55.721,-0.0991,0.4149,-0.0178,-0.9042
0.002,0.006,-0.004,0,0,0,0,2018,5,1,18,49,55.759,-0.0991,0.4149,-0.0179,-0.9042
-0.001,0,-0.003,0,0,0,0,2018,5,1,18,49,55.779,-0.099,0.4148,-0.0177,-0.9042
-0.006,0,0.001,0,0,0,0,2018,5,1,18,49,55.783,-0.099,0.4148,-0.0176,-0.9043
-0.005,-0.004,0.008,0.1,-1.3,0.5,0,2018,5,1,18,49,55.802,-0.099,0.4147,-0.0173,-0.9043
-0.003,-0.009,-0.002,0,0,0,0,2018,5,1,18,49,55.824,-0.099,0.4147,-0.0172,-0.9043
-0.002,-0.002,0.008,0,0,0,0,2018,5,1,18,49,55.843,-0.099,0.4146,-0.0172,-0.9043
-0.005,0.001,0.006,-0.5,-0.1,0.3,0,2018,5,1,18,49,55.859,-0.099,0.4146,-0.0174,-0.9044
-0.009,-0.001,-0.011,-0.1,0.9,0.2,0,2018,5,1,18,49,55.899,-0.099,0.4147,-0.0174,-0.9043
-0.006,0.011,0.004,0,0.7,0.4,0,2018,5,1,18,49,55.921,-0.0991,0.4146,-0.0174,-0.9043
-0.001,0.011,-0.005,-0.1,2,0.8,0,2018,5,1,18,49,55.925,-0.0993,0.4146,-0.0175,-0.9043
0,0.032,0.008,-0.6,0.3,1.1,0,2018,5,1,18,49,55.943,-0.0994,0.4147,-0.018,-0.9043
-0.019,-0.005,0.015,-1.8,-2.5,1.1,0,2018,5,1,18,49,55.962,-0.0994,0.4148,-0.0181,-0.9042
0.012,-0.004,-0.015,-1.8,-1.7,1,0,2018,5,1,18,49,55.984,-0.0994,0.4152,-0.0177,-0.904
0.014,-0.038,-0.018,-1.3,-0.6,1,0,2018,5,1,18,49,56.004,-0.0995,0.4156,-0.017,-0.9038
-0.038,-0.06,-0.009,-0.4,7.6,-0.5,0,2018,5,1,18,49,56.024,-0.1,0.416,-0.0168,-0.9036
0.004,-0.066,-0.004,-0.5,14.4,-2.7,0,2018,5,1,18,49,56.045,-0.1008,0.4159,-0.0179,-0.9036
-0.012,-0.123,0.005,-1.2,27.6,-5.3,0,2018,5,1,18,49,56.068,-0.102,0.4156,-0.0204,-0.9035
-0.064,-0.123,0.06,-3.6,39,-7.4,0,2018,5,1,18,49,56.081,-0.1038,0.4151,-0.0259,-0.9034
0.007,-0.036,0.017,-4.6,58.5,-9.5,0,2018,5,1,18,49,56.119,-0.1062,0.4149,-0.0344,-0.9029
-0.008,-0.035,0.032,-7.9,65.7,-10.3,0,2018,5,1,18,49,56.139,-0.1092,0.4145,-0.0449,-0.9023
0.016,0.003,0.022,-8.4,68.3,-10.9,0,2018,5,1,18,49,56.143,-0.1125,0.4143,-0.0566,-0.9013
0.008,-0.022,0.006,-9.8,66.7,-10.4,0,2018,5,1,18,49,56.164,-0.1157,0.4142,-0.0684,-0.9001
0,-0.051,-0.015,-11.5,71.4,-11.1,0,2018,5,1,18,49,56.183,-0.1188,0.4146,-0.0801,-0.8986
-0.013,-0.014,-0.018,-12.6,96.1,-10.8,1023,2018,5,1,18,49,56.22,-0.1231,0.4147,-0.0944,-0.8965
-0.011,0.043,-0.02,-13.8,115.1,-8.6,1023,2018,5,1,18,49,56.242,-0.1289,0.4144,-0.1125,-0.8938
-0.002,0.154,-0.022,-12.3,117.8,-3.7,1023,2018,5,1,18,49,56.246,-0.136,0.4135,-0.1326,-0.8904
-0.019,0.265,-0.037,-9.2,96.5,5.1,1023,2018,5,1,18,49,56.266,-0.1436,0.4126,-0.1498,-0.8869
-0.033,0.232,-0.053,-5.3,67.8,14.7,1023,2018,5,1,18,49,56.286,-0.1509,0.4119,-0.1618,-0.8839
-0.019,0.167,-0.063,-1.9,55.3,23,1023,2018,5,1,18,49,56.324,-0.158,0.4114,-0.1699,-0.8813
0.002,0.177,-0.083,2.6,51.6,30.4,1023,2018,5,1,18,49,56.345,-0.1661,0.4107,-0.1766,-0.8788
-0.004,0.202,-0.076,7.9,29.7,36.8,1023,2018,5,1,18,49,56.349,-0.1745,0.4097,-0.1807,-0.8769
-0.003,0.177,-0.093,13.1,-1,40.8,1023,2018,5,1,18,49,56.365,-0.1818,0.4089,-0.18,-0.8759
-0.005,0.113,-0.088,17.1,-28.6,44.3,1023,2018,5,1,18,49,56.402,-0.1876,0.4085,-0.174,-0.8761
-0.036,0.031,-0.024,15.3,-33.2,46.4,1023,2018,5,1,18,49,56.422,-0.1924,0.4083,-0.1658,-0.8767
0,0.04,0.005,11.8,-15.8,50,1023,2018,5,1,18,49,56.448,-0.1983,0.4083,-0.1586,-0.8767
-0.009,0.043,0.031,10.4,-10.9,52.2,1023,2018,5,1,18,49,56.465,-0.2054,0.4082,-0.1533,-0.8761
-0.025,0.089,0.026,10.6,-18.6,56,1023,2018,5,1,18,49,56.467,-0.2127,0.408,-0.1476,-0.8754
-0.033,0.049,0.017,8.8,-34,58.5,1023,2018,5,1,18,49,56.502,-0.2195,0.4085,-0.1397,-0.8748
-0.038,0.006,-0.008,10.9,-44.5,60.9,1023,2018,5,1,18,49,56.523,-0.2259,0.4097,-0.1293,-0.8742
-0.052,-0.041,0.009,11,-45.9,66,1023,2018,5,1,18,49,56.526,-0.2327,0.411,-0.1171,-0.8735
-0.037,-0.004,0.036,9.7,-42.9,69.4,1023,2018,5,1,18,49,56.562,-0.2403,0.4122,-0.1051,-0.8724
0.003,0.025,0.067,8.3,-53.6,70.2,1023,2018,5,1,18,49,56.582,-0.2478,0.4136,-0.0928,-0.8711
0.018,0.038,0.031,8.9,-79.9,69.3,0,2018,5,1,18,49,56.587,-0.2537,0.4159,-0.0775,-0.8698
0.064,-0.023,0.061,5.7,-122.7,68.2,0,2018,5,1,18,49,56.629,-0.2565,0.42,-0.0569,-0.8686
0.078,-0.088,0.023,-2.8,-107,55.5,0,2018,5,1,18,49,56.632,-0.2577,0.4313,-0.0102,-0.8644
0.042,-0.098,0,-6.9,-77.4,50.8,0,2018,5,1,18,49,56.647,-0.259,0.4366,0.0085,-0.8614
0.021,0.003,-0.009,-8.7,-55.4,51.6,0,2018,5,1,18,49,56.682,-0.2618,0.4408,0.0222,-0.8582
-0.03,0.01,-0.005,-10.6,-32,58.9,0,2018,5,1,18,49,56.704,-0.2667,0.4439,0.0328,-0.8547
-0.035,0.136,0.017,-12.7,-29,73.5,0,2018,5,1,18,49,56.708,-0.2744,0.4462,0.0413,-0.8507
-0.063,0.069,0.023,-19.8,-45.1,93.2,0,2018,5,1,18,49,56.731,-0.2839,0.4493,0.0524,-0.8453
-0.105,0.084,-0.015,-31.2,-59.9,115.4,0,2018,5,1,18,49,56.751,-0.2954,0.454,0.0671,-0.8378
-0.193,0.07,-0.09,-48,-74.1,135.1,0,2018,5,1,18,49,56.769,-0.3091,0.4609,0.085,-0.8274
-0.319,-0.014,-0.124,-62.5,-86.9,151.9,0,2018,5,1,18,49,56.789,-0.3242,0.4708,0.1061,-0.8135
-0.447,-0.29,0.051,-77.8,-39.8,169.8,0,2018,5,1,18,49,56.828,-0.3422,0.4814,0.1259,-0.797
-0.287,-0.21,0.038,-90.3,83.4,187.6,0,2018,5,1,18,49,56.848,-0.3712,0.4872,0.1321,-0.7792
-0.442,0.004,0.117,-109.9,127.7,210.8,0,2018,5,1,18,49,56.852,-0.4098,0.4884,0.1272,-0.7597
-0.591,0.116,0.126,-129.6,142.3,237.7,0,2018,5,1,18,49,56.87,-0.4535,0.4886,0.1199,-0.7355
-0.603,0.146,-0.089,-139.6,119.4,256.1,0,2018,5,1,18,49,56.889,-0.4989,0.4898,0.1131,-0.7059
-0.517,0.06,-0.22,-135.7,92.7,260.8,0,2018,5,1,18,49,56.908,-0.5417,0.4918,0.1107,-0.6725
-0.463,-0.132,-0.189,-122.6,113.3,261,0,2018,5,1,18,49,56.928,-0.5825,0.4918,0.1094,-0.6377
-0.541,-0.102,-0.026,-100.5,172.6,260.3,0,2018,5,1,18,49,56.967,-0.6249,0.4838,0.1046,-0.6035
-0.638,-0.195,-0.142,-58.9,226.2,260.2,0,2018,5,1,18,49,56.986,-0.67,0.4644,0.0965,-0.5709
-0.531,-0.275,-0.106,4.5,252.8,250.8,0,2018,5,1,18,49,56.99,-0.7142,0.4335,0.0904,-0.5419
-0.33,-0.481,0.217,48.9,275.8,229.4,0,2018,5,1,18,49,57.027,-0.7551,0.3932,0.0867,-0.5173
-0.238,-0.121,0.289,91.8,241.8,216.1,0,2018,5,1,18,49,57.047,-0.7906,0.3478,0.0875,-0.4962
-0.266,-0.073,0.193,119.2,139,209.6,0,2018,5,1,18,49,57.051,-0.8178,0.3085,0.0988,-0.4755
-0.329,-0.341,-0.055,143.4,59.7,191.5,0,2018,5,1,18,49,57.068,-0.8365,0.2801,0.1207,-0.455
-0.342,-0.654,-0.379,181.8,36.2,153.7,1023,2018,5,1,18,49,57.107,-0.8482,0.2571,0.1495,-0.4381
-0.272,-1.097,-0.617,204.3,50.6,97,1023,2018,5,1,18,49,57.129,-0.8534,0.2337,0.1818,-0.4288
-0.003,-1.317,0.539,211.7,186.1,56.9,1023,2018,5,1,18,49,57.133,-0.856,0.197,0.209,-0.4297
0.795,0.551,0.359,226.7,92.5,17.4,1023,2018,5,1,18,49,57.152,-0.8551,0.1533,0.2289,-0.439
0.934,0.419,-0.421,211.2,-79.6,65.2,1023,2018,5,1,18,49,57.172,-0.8486,0.1384,0.2643,-0.4367
1.668,0.601,-0.421,199.7,67.8,111.8,1023,2018,5,1,18,49,57.194,-0.8453,0.1194,0.2968,-0.4278
1.44,-0.639,2.672,122.9,-11.2,23.2,1023,2018,5,1,18,49,57.214,-0.8435,0.0929,0.3186,-0.422
0.87,-0.028,0.842,67.3,-69.3,51.8,1023,2018,5,1,18,49,57.234,-0.8407,0.0891,0.3339,-0.4166
-0.266,-0.329,-0.229,54.5,-104.3,43.6,1023,2018,5,1,18,49,57.253,-0.8392,0.0992,0.3513,-0.4029
-0.733,0.349,0.157,49.6,-8.7,33.5,1023,2018,5,1,18,49,57.294,-0.8378,0.0997,0.3622,-0.3959
-0.753,0.035,-0.445,66.7,-20.1,29.1,1023,2018,5,1,18,49,57.298,-0.836,0.0965,0.3725,-0.3909
-0.037,0.057,0.275,75.1,-10.9,2.6,1023,2018,5,1,18,49,57.314,-0.8319,0.0919,0.3844,-0.3893
0.052,-0.12,-0.032,69.6,-20.4,11.9,1023,2018,5,1,18,49,57.351,-0.8272,0.0891,0.3962,-0.3883
-0.129,0.019,-0.041,59.7,2,10.5,1023,2018,5,1,18,49,57.373,-0.8231,0.0848,0.4065,-0.3871
-0.029,-0.078,0,50,-1.8,13.5,1023,2018,5,1,18,49,57.378,-0.8201,0.08,0.4148,-0.3859
-0.01,0.026,-0.08,43.4,0.8,15.4,0,2018,5,1,18,49,57.395,-0.8174,0.0759,0.4221,-0.3845
-0.005,-0.088,0.007,37,0.6,19.1,0,2018,5,1,18,49,57.43,-0.8153,0.0722,0.4283,-0.3825
0,-0.018,-0.013,32.6,0.4,24.1,0,2018,5,1,18,49,57.45,-0.814,0.0686,0.4337,-0.38
0.011,0.053,-0.061,31.8,3.9,24,0,2018,5,1,18,49,57.454,-0.8132,0.0643,0.4384,-0.3772
-0.054,0.014,-0.04,33.9,5.2,22.8,0,2018,5,1,18,49,57.476,-0.8124,0.0592,0.443,-0.3743
-0.085,-0.008,0.008,36.7,5.6,23.1,0,2018,5,1,18,49,57.495,-0.8112,0.0538,0.4481,-0.3716
0.028,-0.002,0.06,40,2.8,25.3,0,2018,5,1,18,49,57.534,-0.8098,0.0485,0.4537,-0.3686
-0.009,0.002,0.005,40.5,6.1,27.3,0,2018,5,1,18,49,57.538,-0.8084,0.0433,0.4589,-0.3659
0.009,-0.021,0.033,39.2,7,29.4,0,2018,5,1,18,49,57.554,-0.8072,0.0377,0.4638,-0.363
0.011,0,-0.007,38.8,3.6,33.1,0,2018,5,1,18,49,57.594,-0.806,0.032,0.4693,-0.3591
0.031,0.085,-0.074,42.5,2.6,37.6,0,2018,5,1,18,49,57.598,-0.8047,0.0262,0.4753,-0.3546
-0.025,0.025,0.024,45.9,4.2,40.1,0,2018,5,1,18,49,57.614,-0.8034,0.0197,0.4815,-0.3496
0.028,0.047,-0.045,47.4,-2,42.1,0,2018,5,1,18,49,57.633,-0.802,0.0126,0.4881,-0.3437
0.039,-0.026,0.016,51.9,-2.9,43.4,0,2018,5,1,18,49,57.671,-0.8004,0.0062,0.4953,-0.3374
-0.047,0.018,0.033,56.4,2.4,42.1,0,2018,5,1,18,49,57.691,-0.7982,-0.0009,0.5028,-0.3315
0.017,0.003,0.018,60.2,-0.7,42,0,2018,5,1,18,49,57.695,-0.7955,-0.0085,0.5108,-0.3255
0.067,0.03,0.006,67.7,-3.4,46.5,0,2018,5,1,18,49,57.733,-0.7923,-0.0157,0.5197,-0.3191
-0.001,-0.016,0.038,72.4,-1.5,49.2,0,2018,5,1,18,49,57.754,-0.7886,-0.0232,0.529,-0.3122
0.01,0.048,-0.02,77.1,-2.9,51.2,0,2018,5,1,18,49,57.759,-0.7844,-0.0319,0.5392,-0.3047
-0.062,0,0,80.7,2.7,50.7,0,2018,5,1,18,49,57.778,-0.7796,-0.041,0.5496,-0.2972
-0.032,0.032,-0.035,83.9,1.2,51,0,2018,5,1,18,49,57.798,-0.7741,-0.0508,0.5605,-0.2896
0.015,0.001,0.013,88.9,-1.2,51.6,0,2018,5,1,18,49,57.816,-0.7681,-0.0604,0.5716,-0.2818
0,-0.036,0.069,95.6,1.8,51.4,0,2018,5,1,18,49,57.836,-0.7615,-0.0697,0.5831,-0.2741
-0.044,0.003,0.087,101.5,4.7,51.9,0,2018,5,1,18,49,57.856,-0.754,-0.0799,0.5948,-0.2666
-0.002,0.048,-0.018,106,2.8,51.6,0,2018,5,1,18,49,57.895,-0.7457,-0.0908,0.6071,-0.2588
-0.016,0.022,0.027,112.5,4.3,49.4,0,2018,5,1,18,49,57.914,-0.7363,-0.1018,0.6201,-0.2506
0.025,0.048,0.086,122.6,4.6,47.7,1023,2018,5,1,18,49,57.918,-0.7257,-0.113,0.6338,-0.2423
-0.041,-0.023,0.088,130.4,14.2,46.5,1023,2018,5,1,18,49,57.937,-0.7137,-0.1247,0.6479,-0.2347
-0.089,0.045,0.066,137.8,19.5,46.9,1023,2018,5,1,18,49,57.96,-0.7001,-0.1379,0.6625,-0.2275
0.166,0.439,-0.167,157.6,-40.2,34.6,1023,2018,5,1,18,49,57.977,-0.6848,-0.1504,0.6782,-0.2198
-0.463,-0.108,0.314,161.2,49.7,48.6,1023,2018,5,1,18,49,58.016,-0.667,-0.1612,0.696,-0.211
-0.346,0.26,0.08,147.4,27.8,43,1023,2018,5,1,18,49,58.036,-0.6489,-0.1766,0.7108,-0.2056
-0.339,0.051,0.131,145.3,64.6,36.5,1023,2018,5,1,18,49,58.04,-0.6306,-0.1926,0.7238,-0.2028
-0.163,0.11,0.22,133.6,51.4,25.7,1023,2018,5,1,18,49,58.06,-0.6119,-0.2078,0.7357,-0.2023
-0.115,0.08,0.248,128.7,53.2,23.5,1023,2018,5,1,18,49,58.076,-0.5941,-0.2208,0.7466,-0.2019
-0.185,0.088,0.263,122.6,56.2,26.7,1023,2018,5,1,18,49,58.096,-0.5762,-0.2339,0.7566,-0.2016
-0.221,0.023,0.206,115.1,73.1,28.4,1023,2018,5,1,18,49,58.116,-0.5586,-0.2481,0.765,-0.2023
-0.278,0.026,0.208,103.8,103.6,25.1,1023,2018,5,1,18,49,58.154,-0.541,-0.2644,0.771,-0.207
-0.309,0.132,0.306,82.8,111.2,26.9,1023,2018,5,1,18,49,58.175,-0.5241,-0.2814,0.7744,-0.2149
-0.165,0.137,0.379,56.7,100.6,26.4,1023,2018,5,1,18,49,58.179,-0.5103,-0.2974,0.7752,-0.2236
-0.068,0.167,0.491,26.7,80.3,25,1023,2018,5,1,18,49,58.201,-0.501,-0.3105,0.7739,-0.2311
-0.007,0.063,0.662,-10.8,33,9.7,0,2018,5,1,18,49,58.219,-0.4975,-0.3183,0.7712,-0.237
-0.022,0.036,0.676,-46.1,-16.6,2.8,0,2018,5,1,18,49,58.258,-0.5014,-0.3182,0.7681,-0.2391
-0.011,0.125,0.53,-70.3,-71.2,7.7,0,2018,5,1,18,49,58.279,-0.5121,-0.3125,0.7643,-0.2362
0.073,0.306,0.278,-71.5,-160.6,22.7,0,2018,5,1,18,49,58.283,-0.5285,-0.3011,0.7615,-0.2234
-0.008,0.11,0.11,-64.3,-252.9,27.6,0,2018,5,1,18,49,58.301,-0.5492,-0.2822,0.7616,-0.1962
-0.168,-0.055,0.189,-69.5,-287.1,36.3,0,2018,5,1,18,49,58.339,-0.5724,-0.2575,0.7618,-0.1598
-0.186,-0.186,0.22,-87.1,-273.7,37.9,0,2018,5,1,18,49,58.343,-0.5959,-0.2321,0.7589,-0.1221
-0.228,-0.235,0.169,-101.5,-288.7,17.4,0,2018,5,1,18,49,58.359,-0.6195,-0.2048,0.7529,-0.0856
-0.254,-0.42,0.07,-111.5,-284.6,-15.9,0,2018,5,1,18,49,58.379,-0.6431,-0.1717,0.7444,-0.0509
-0.292,-0.427,0.14,-120.4,-241.9,-54.2,0,2018,5,1,18,49,58.398,-0.6647,-0.1365,0.734,-0.0239
-0.312,-0.401,0.183,-138.9,-188.6,-88.5,0,2018,5,1,18,49,58.436,-0.6856,-0.1018,0.7207,-0.008
-0.229,-0.326,0.042,-151.7,-143.3,-118.1,0,2018,5,1,18,49,58.456,-0.7072,-0.0673,0.7037,-0.0023
-0.175,-0.289,-0.09,-147.5,-119.7,-142.3,0,2018,5,1,18,49,58.46,-0.7256,-0.0369,0.687,-0.0041
-0.164,-0.224,-0.177,-131.7,-101.6,-166.7,0,2018,5,1,18,49,58.499,-0.7431,-0.0024,0.669,-0.0118
-0.128,-0.174,-0.174,-119.2,-72.4,-183,0,2018,5,1,18,49,58.52,-0.756,0.0281,0.6534,-0.0239
-0.123,-0.073,-0.187,-110.4,-32.9,-190.6,0,2018,5,1,18,49,58.525,-0.7674,0.0569,0.6371,-0.0423
-0.13,0.006,-0.233,-104.5,-1.5,-190.4,0,2018,5,1,18,49,58.54,-0.7772,0.081,0.6205,-0.065
-0.139,0.09,-0.301,-97.6,17.5,-188,0,2018,5,1,18,49,58.559,-0.7856,0.1013,0.6035,-0.0903
-0.134,0.177,-0.358,-87.8,29.1,-182.1,0,2018,5,1,18,49,58.581,-0.7923,0.119,0.5868,-0.1165
-0.124,0.254,-0.386,-76.2,38.3,-173.2,0,2018,5,1,18,49,58.6,-0.7973,0.1341,0.5707,-0.1428
-0.153,0.315,-0.398,-64.1,43.1,-161.7,0,2018,5,1,18,49,58.62,-0.8006,0.1469,0.5557,-0.1685
-0.154,0.351,-0.421,-52,44.7,-149.7,0,2018,5,1,18,49,58.661,-0.8025,0.1574,0.5421,-0.193
-0.128,0.383,-0.448,-37.5,46,-137.2,1023,2018,5,1,18,49,58.681,-0.8028,0.1664,0.5301,-0.2161
-0.093,0.398,-0.465,-20.9,50.4,-123.7,1023,2018,5,1,18,49,58.686,-0.8017,0.1729,0.5202,-0.2379
-0.06,0.412,-0.474,-2.8,59,-108.3,1023,2018,5,1,18,49,58.704,-0.7993,0.1765,0.5126,-0.2587
-0.019,0.409,-0.476,16.4,71.4,-91.3,1023,2018,5,1,18,49,58.724,-0.796,0.1762,0.5074,-0.2787
0.016,0.404,-0.478,36.2,85.8,-73.4,1023,2018,5,1,18,49,58.743,-0.7919,0.1713,0.5046,-0.2979
0.072,0.399,-0.47,55.7,96.3,-55.3,1023,2018,5,1,18,49,58.78,-0.7871,0.1619,0.5042,-0.3161
0.117,0.379,-0.459,74.6,104.5,-38.6,1023,2018,5,1,18,49,58.8,-0.7814,0.1487,0.5061,-0.3332
0.149,0.354,-0.446,92.9,113.1,-22.6,1023,2018,5,1,18,49,58.804,-0.7748,0.1318,0.5102,-0.349
0.164,0.324,-0.432,110.7,123.4,-6.9,1023,2018,5,1,18,49,58.823,-0.7672,0.111,0.5163,-0.3638
0.156,0.289,-0.409,127,136.1,8.7,1023,2018,5,1,18,49,58.84,-0.7587,0.0862,0.5237,-0.3775
0.148,0.245,-0.383,141.4,152.7,24.6,1023,2018,5,1,18,49,58.878,-0.7493,0.0567,0.5319,-0.3903
0.118,0.201,-0.334,153.5,171.4,38.9,1023,2018,5,1,18,49,58.899,-0.7388,0.0224,0.5401,-0.4024
0.068,0.148,-0.284,162.2,191.9,51.1,1023,2018,5,1,18,49,58.904,-0.727,-0.0164,0.5474,-0.4139
-0.033,0.101,-0.222,167.3,211.4,59.9,1023,2018,5,1,18,49,58.926,-0.714,-0.0592,0.5529,-0.4253
-0.132,0.029,-0.15,166.2,231.6,66.1,1023,2018,5,1,18,49,58.946,-0.6993,-0.1055,0.556,-0.4365
-0.216,-0.044,-0.114,160.8,254.3,68.4,1023,2018,5,1,18,49,58.967,-0.6831,-0.1539,0.5554,-0.4484
-0.293,-0.116,-0.095,154.3,277.6,67.9,1023,2018,5,1,18,49,58.986,-0.6646,-0.2045,0.5511,-0.461
-0.435,-0.211,0.005,143.3,308.2,63.1,0,2018,5,1,18,49,59.024,-0.6439,-0.2564,0.5416,-0.4754
-0.627,-0.299,0.155,117.2,347.3,50.2,0,2018,5,1,18,49,59.046,-0.6197,-0.3086,0.5261,-0.4938
-0.495,-0.259,0.113,82.9,364.8,25.7,0,2018,5,1,18,49,59.05,-0.5912,-0.3604,0.502,-0.5181
-0.248,-0.126,0.017,54.6,331,-1.6,0,2018,5,1,18,49,59.067,-0.5624,-0.4025,0.4762,-0.5429
-0.086,-0.023,-0.029,34.4,263.5,-25.5,0,2018,5,1,18,49,59.086,-0.5353,-0.4339,0.4531,-0.5653
-0.024,0.021,-0.018,19.2,193.7,-43.6,0,2018,5,1,18,49,59.105,-0.512,-0.4549,0.4358,-0.5838
-0.009,-0.023,0.019,8.3,145.6,-54.3,0,2018,5,1,18,49,59.124,-0.4923,-0.4673,0.4239,-0.5995
0.018,-0.065,0.029,0.3,120.9,-56.7,0,2018,5,1,18,49,59.144,-0.4761,-0.4739,0.4154,-0.6132
0.019,-0.123,0.044,-6.8,103.9,-53.1,0,2018,5,1,18,49,59.166,-0.4607,-0.478,0.408,-0.6265
0.002,-0.185,0.043,-13,93.4,-46.9,0,2018,5,1,18,49,59.202,-0.4476,-0.4811,0.4007,-0.6383
-0.02,-0.208,0.041,-18.5,87,-39.8,0,2018,5,1,18,49,59.222,-0.4361,-0.4834,0.393,-0.6493
-0.033,-0.199,0.016,-23.3,82.8,-31.4,0,2018,5,1,18,49,59.226,-0.4262,-0.485,0.3848,-0.6595
-0.047,-0.172,-0.029,-26.9,76,-23.8,0,2018,5,1,18,49,59.263,-0.4177,-0.4863,0.3761,-0.6689
-0.046,-0.166,-0.087,-29.9,67.7,-18.6,0,2018,5,1,18,49,59.284,-0.4109,-0.4869,0.3674,-0.6775
-0.028,-0.179,-0.141,-32.1,59.7,-16.4,0,2018,5,1,18,49,59.288,-0.4055,-0.4866,0.359,-0.6854
-0.073,-0.182,-0.15,-35.4,51.4,-17.7,0,2018,5,1,18,49,59.307,-0.4008,-0.4854,0.3514,-0.6929
-0.097,-0.197,-0.198,-39.5,45.3,-21.4,0,2018,5,1,18,49,59.328,-0.3967,-0.483,0.3446,-0.7003
-0.151,-0.168,-0.22,-42.8,37.1,-27.8,0,2018,5,1,18,49,59.348,-0.3927,-0.4792,0.3387,-0.708
-0.152,-0.155,-0.256,-45.3,26.1,-36.3,0,2018,5,1,18,49,59.367,-0.3887,-0.474,0.3344,-0.7157
-0.135,-0.137,-0.276,-45.4,15.7,-45.6,0,2018,5,1,18,49,59.404,-0.3845,-0.4672,0.3322,-0.7234
-0.118,-0.121,-0.302,-43.1,6.4,-54.5,0,2018,5,1,18,49,59.424,-0.3796,-0.4595,0.332,-0.731
-0.132,-0.113,-0.328,-38.7,1.8,-62.8,0,2018,5,1,18,49,59.428,-0.3742,-0.451,0.3335,-0.7383
-0.097,-0.092,-0.324,-33.4,0,-70.6,1023,2018,5,1,18,49,59.466,-0.3677,-0.4424,0.3364,-0.7455
-0.066,-0.065,-0.336,-28.9,3.6,-77.4,1023,2018,5,1,18,49,59.488,-0.3597,-0.434,0.3399,-0.7527
-0.016,-0.028,-0.333,-24,10.6,-83.8,1023,2018,5,1,18,49,59.492,-0.3501,-0.4262,0.3434,-0.7601
-0.018,0.031,-0.313,-20.1,23.2,-86.4,1023,2018,5,1,18,49,59.51,-0.3388,-0.4191,0.3462,-0.7678
-0.014,0.132,-0.309,-18.2,43,-82,1023,2018,5,1,18,49,59.546,-0.3261,-0.4133,0.3467,-0.7762
-0.034,0.257,-0.302,-14.3,53.7,-68.1,1023,2018,5,1,18,49,59.551,-0.3133,-0.4092,0.3444,-0.7846
-0.099,0.269,-0.273,-9.7,53.2,-49.2,1023,2018,5,1,18,49,59.566,-0.302,-0.4071,0.3405,-0.7918
-0.146,0.292,-0.243,-5.4,40.1,-30.5,1023,2018,5,1,18,49,59.605,-0.2937,-0.4062,0.3363,-0.7972
-0.147,0.329,-0.112,-7.4,25.1,-10.8,1023,2018,5,1,18,49,59.625,-0.2889,-0.4058,0.333,-0.8005
-0.021,0.379,-0.099,-13.5,2.8,6.6,1023,2018,5,1,18,49,59.629,-0.2882,-0.405,0.3305,-0.8022
0.104,0.392,-0.204,-9.3,-42.8,17.8,1023,2018,5,1,18,49,59.668,-0.292,-0.4031,0.3318,-0.8012
0.139,0.282,-0.164,-1.1,-78.6,25.5,1023,2018,5,1,18,49,59.688,-0.2998,-0.4004,0.3391,-0.7966
0.104,0.198,-0.061,7.6,-81,29.3,1023,2018,5,1,18,49,59.692,-0.309,-0.3983,0.3488,-0.79
0.001,0.172,-0.041,17.1,-67.3,32.5,1023,2018,5,1,18,49,59.71,-0.3175,-0.3979,0.3575,-0.7828
-0.023,0.14,-0.057,26.2,-52.5,35.4,1023,2018,5,1,18,49,59.731,-0.3246,-0.3999,0.3647,-0.7756
-0.052,0.083,-0.009,35,-32.9,39.3,0,2018,5,1,18,49,59.768,-0.3309,-0.4045,0.3693,-0.7683
-0.049,0.038,0.057,42.8,-9.5,44.4,0,2018,5,1,18,49,59.788,-0.3358,-0.4117,0.3708,-0.7616
0.005,0.011,0.064,50.6,11.7,48.8,0,2018,5,1,18,49,59.792,-0.339,-0.4209,0.3695,-0.7558
0.077,-0.009,0.031,59.2,27.8,52.7,0,2018,5,1,18,49,59.831,-0.3405,-0.4323,0.366,-0.7503
0.113,-0.056,0.014,69.5,42.1,54.6,0,2018,5,1,18,49,59.835,-0.3406,-0.4457,0.3613,-0.7448
0.113,-0.122,0.039,78.6,65.3,53.2,0,2018,5,1,18,49,59.851,-0.3385,-0.4616,0.3546,-0.7392
0.099,-0.197,0.08,84.3,100.3,47.9,0,2018,5,1,18,49,59.886,-0.3332,-0.4802,0.3447,-0.7345
0.076,-0.26,0.114,85.4,147,37.6,0,2018,5,1,18,49,59.906,-0.323,-0.5007,0.33,-0.732
0.055,-0.293,0.131,82.4,196,22.7,0,2018,5,1,18,49,59.911,-0.3067,-0.5226,0.3098,-0.7326
0.019,-0.288,0.127,76,232.5,4,0,2018,5,1,18,49,59.932,-0.2841,-0.5446,0.2849,-0.7357
-0.043,-0.264,0.146,66.4,253.7,-16.1,0,2018,5,1,18,49,59.952,-0.2564,-0.565,0.2573,-0.7407
-0.099,-0.201,0.187,53.9,255.3,-35.2,0,2018,5,1,18,49,59.974,-0.225,-0.5823,0.2291,-0.7467
-0.18,-0.117,0.241,38.2,238.5,-51,0,2018,5,1,18,49,59.992,-0.1905,-0.5963,0.2015,-0.7532
-0.256,-0.042,0.299,21.4,210.1,-60.6,0,2018,5,1,18,50,0.033,-0.1587,-0.6052,0.1786,-0.7593
-0.271,0.064,0.374,1.4,175.4,-63.1,0,2018,5,1,18,50,0.052,-0.13,-0.6096,0.1601,-0.7653
-0.172,0.16,0.282,-17.3,167.2,-52.9,0,2018,5,1,18,50,0.056,-0.1049,-0.6102,0.1436,-0.7719
-0.062,0.236,0.166,-33,195.9,-44.2,0,2018,5,1,18,50,0.072,-0.0798,-0.6085,0.1236,-0.7797
0.018,0.373,0.121,-47.4,199.8,-40.3,0,2018,5,1,18,50,0.092,-0.0535,-0.6044,0.0999,-0.7885
0.096,0.513,0.212,-60.4,97.3,-42.7,0,2018,5,1,18,50,0.113,-0.0323,-0.5974,0.0823,-0.797
0.126,0.369,0.152,-67,-44.6,-43.4,0,2018,5,1,18,50,0.151,-0.0254,-0.5878,0.0837,-0.8042
0.062,0.219,0.134,-69.4,-156.8,-44.7,0,2018,5,1,18,50,0.171,-0.0311,-0.5769,0.1027,-0.8096
-0.009,0.072,0.064,-72.6,-215.1,-42.8,1023,2018,5,1,18,50,0.175,-0.0456,-0.5645,0.134,-0.8131
-0.072,-0.032,-0.023,-73.4,-210.8,-36.1,1023,2018,5,1,18,50,0.21,-0.0623,-0.5518,0.166,-0.8148
-0.092,-0.095,-0.121,-74.8,-182.4,-29.9,1023,2018,5,1,18,50,0.23,-0.0798,-0.5375,0.198,-0.8157
-0.094,-0.089,-0.159,-73.1,-139.9,-23.4,1023,2018,5,1,18,50,0.235,-0.094,-0.5234,0.222,-0.8172
-0.059,-0.032,-0.194,-68.5,-99.4,-15,1023,2018,5,1,18,50,0.274,-0.1046,-0.511,0.2384,-0.8191
-0.008,0.036,-0.215,-61.2,-74.9,-8,1023,2018,5,1,18,50,0.293,-0.1141,-0.4989,0.2508,-0.8216
0.031,0.06,-0.215,-51.8,-64.1,-3.6,1023,2018,5,1,18,50,0.297,-0.122,-0.489,0.2599,-0.8236
0.055,0.067,-0.218,-42.2,-58.9,-0.5,1023,2018,5,1,18,50,0.314,-0.1289,-0.4812,0.2674,-0.8247
0.048,0.051,-0.217,-31,-48.9,1,1023,2018,5,1,18,50,0.333,-0.1357,-0.4744,0.2746,-0.8252
0.036,0.053,-0.213,-21.5,-35.6,2.1,1023,2018,5,1,18,50,0.37,-0.1405,-0.4699,0.2796,-0.8253
0.002,0.044,-0.221,-11.7,-17.5,3.8,1023,2018,5,1,18,50,0.391,-0.1444,-0.4668,0.2828,-0.8253
-0.033,0.047,-0.228,-3,1.5,5.7,1023,2018,5,1,18,50,0.396,-0.1461,-0.4658,0.2833,-0.8254
-0.049,0.056,-0.228,4.2,16.1,8.6,1023,2018,5,1,18,50,0.417,-0.1464,-0.4665,0.2813,-0.8257
-0.061,0.071,-0.227,10.3,21.7,11.5,1023,2018,5,1,18,50,0.436,-0.146,-0.4685,0.2777,-0.8258
-0.055,0.078,-0.208,15.4,17.2,14.2,1023,2018,5,1,18,50,0.476,-0.1457,-0.4715,0.2741,-0.8253
-0.044,0.072,-0.196,20.4,9,16.3,1023,2018,5,1,18,50,0.48,-0.1462,-0.4751,0.2713,-0.8241
-0.029,0.052,-0.177,25.6,2.6,18.4,0,2018,5,1,18,50,0.495,-0.1472,-0.4794,0.2697,-0.822
-0.016,0.029,-0.157,30.7,3.2,19.4,0,2018,5,1,18,50,0.537,-0.1485,-0.4843,0.2685,-0.8192
-0.015,0.013,-0.142,36.4,9.3,19.7,0,2018,5,1,18,50,0.557,-0.1492,-0.4908,0.267,-0.8157
-0.012,0.015,-0.099,40.8,17.2,19.7,0,2018,5,1,18,50,0.561,-0.1492,-0.4985,0.2646,-0.8118
-0.02,0.011,-0.059,42.9,22.6,19.9,0,2018,5,1,18,50,0.576,-0.1485,-0.5065,0.2612,-0.8081
-0.021,0.008,-0.029,43.9,26.3,20.2,0,2018,5,1,18,50,0.596,-0.1476,-0.5145,0.257,-0.8046
-0.023,0.009,0.002,44.1,24.3,20.4,0,2018,5,1,18,50,0.617,-0.1463,-0.5224,0.2527,-0.8011
-0.025,-0.005,0.026,43.9,23.9,20.1,0,2018,5,1,18,50,0.637,-0.1451,-0.5301,0.2485,-0.7975
-0.023,-0.009,0.076,42,22,18.9,0,2018,5,1,18,50,0.656,-0.144,-0.5371,0.2444,-0.7942
-0.01,-0.02,0.111,38.8,18.9,16.8,0,2018,5,1,18,50,0.695,-0.1433,-0.5433,0.2406,-0.7914
-0.01,0.006,0.149,35.6,18.8,15.2,0,2018,5,1,18,50,0.698,-0.1424,-0.5487,0.2371,-0.7889
-0.01,-0.013,0.165,29.9,15.6,13,0,2018,5,1,18,50,0.717,-0.1418,-0.5531,0.2337,-0.7869
0.011,0.004,0.163,24.4,6.5,11.2,0,2018,5,1,18,50,0.738,-0.1416,-0.5564,0.2312,-0.7854
0.016,-0.013,0.158,20,-1.2,10.5,0,2018,5,1,18,50,0.758,-0.1424,-0.5587,0.2299,-0.784
0.013,-0.027,0.163,15,-2.3,8.9,0,2018,5,1,18,50,0.78,-0.1436,-0.5604,0.2294,-0.7827
0.021,-0.014,0.183,9.4,-3.6,8.5,0,2018,5,1,18,50,0.799,-0.1448,-0.5623,0.2292,-0.7812
0.017,-0.018,0.179,3.5,-9,8.7,0,2018,5,1,18,50,0.817,-0.1465,-0.5633,0.2293,-0.7801
0.022,-0.078,0.141,-1,-2.9,9,0,2018,5,1,18,50,0.855,-0.1487,-0.5635,0.2295,-0.7795
0.019,-0.06,0.134,-5.4,9,7.9,0,2018,5,1,18,50,0.874,-0.1498,-0.5631,0.2279,-0.78
0.019,-0.038,0.134,-8.9,8.6,6.9,0,2018,5,1,18,50,0.878,-0.1501,-0.5615,0.2257,-0.7817
0.02,-0.03,0.11,-12,3.1,5.7,0,2018,5,1,18,50,0.899,-0.1509,-0.5595,0.2239,-0.7835
0.015,-0.05,0.081,-14.8,-0.5,4.1,1023,2018,5,1,18,50,0.918,-0.1521,-0.557,0.223,-0.7853
0.009,-0.065,0.06,-17.3,-0.6,2.6,1023,2018,5,1,18,50,0.959,-0.1529,-0.5542,0.2227,-0.7872
0.004,-0.066,0.043,-19.3,0.1,0.7,1023,2018,5,1,18,50,0.977,-0.1536,-0.5512,0.2225,-0.7892
0.004,-0.061,0.017,-20.6,0.7,-1.3,1023,2018,5,1,18,50,0.981,-0.154,-0.5481,0.2223,-0.7914
0.001,-0.057,0.005,-21.1,0.9,-3.5,1023,2018,5,1,18,50,1.001,-0.1543,-0.5449,0.2223,-0.7936
-0.007,-0.054,-0.016,-21.4,0.4,-5.5,1023,2018,5,1,18,50,1.024,-0.1543,-0.5416,0.2225,-0.7957
-0.008,-0.053,-0.022,-21.4,0,-7.3,1023,2018,5,1,18,50,1.041,-0.1541,-0.5383,0.223,-0.7978
-0.007,-0.046,-0.038,-21.2,0.1,-9.2,1023,2018,5,1,18,50,1.059,-0.1538,-0.5351,0.2237,-0.7999
-0.008,-0.037,-0.053,-21,-0.6,-11.5,1023,2018,5,1,18,50,1.079,-0.1532,-0.5319,0.2246,-0.8019
-0.009,-0.033,-0.064,-20.2,-1.9,-13.4,1023,2018,5,1,18,50,1.099,-0.1523,-0.5288,0.2258,-0.8038
-0.008,-0.027,-0.081,-19.2,-2.4,-15.3,1023,2018,5,1,18,50,1.139,-0.1511,-0.5258,0.2274,-0.8055
-0.003,-0.02,-0.09,-18,-3,-17.1,1023,2018,5,1,18,50,1.16,-0.1497,-0.5231,0.2293,-0.807
-0.002,-0.005,-0.097,-16.2,-4.9,-18.5,1023,2018,5,1,18,50,1.165,-0.1482,-0.5204,0.2315,-0.8084
-0.002,-0.006,-0.106,-14.3,-5.7,-19.9,1023,2018,5,1,18,50,1.182,-0.1465,-0.518,0.2341,-0.8095
-0.005,0.003,-0.11,-11.7,-5.7,-20.7,0,2018,5,1,18,50,1.201,-0.1445,-0.516,0.2369,-0.8103
-0.006,0.006,-0.115,-8.1,-3.4,-20.6,0,2018,5,1,18,50,1.239,-0.1423,-0.5146,0.2396,-0.8108
-0.006,0.01,-0.11,-4.9,0.8,-20,0,2018,5,1,18,50,1.259,-0.1399,-0.5136,0.2418,-0.8112
-0.005,0.024,-0.108,-1.7,5.3,-19.1,0,2018,5,1,18,50,1.263,-0.137,-0.5132,0.2433,-0.8115
-0.002,0.035,-0.1,1,8.4,-18.3,0,2018,5,1,18,50,1.284,-0.1339,-0.5134,0.2441,-0.8116
-0.001,0.044,-0.089,4.2,9.5,-17.2,0,2018,5,1,18,50,1.305,-0.1306,-0.5141,0.2445,-0.8116
0,0.047,-0.087,6.5,11.1,-16.1,0,2018,5,1,18,50,1.321,-0.1275,-0.5151,0.2446,-0.8114
-0.004,0.054,-0.075,8.9,11.8,-14.8,0,2018,5,1,18,50,1.34,-0.1246,-0.5164,0.2444,-0.8111
-0.007,0.057,-0.062,10.6,13.2,-13.4,0,2018,5,1,18,50,1.362,-0.1215,-0.5181,0.2439,-0.8107
-0.006,0.066,-0.053,12,13.4,-11.9,0,2018,5,1,18,50,1.401,-0.1185,-0.52,0.2431,-0.8101
-0.009,0.064,-0.042,13.5,13.5,-10.2,0,2018,5,1,18,50,1.422,-0.1158,-0.5221,0.2421,-0.8095
-0.006,0.067,-0.028,15,14.4,-8.3,0,2018,5,1,18,50,1.426,-0.113,-0.5244,0.241,-0.8087
-0.002,0.063,-0.017,15.8,15.6,-6.3,0,2018,5,1,18,50,1.444,-0.1105,-0.5269,0.2394,-0.8079
-0.001,0.066,-0.002,16.4,16.4,-4.4,0,2018,5,1,18,50,1.467,-0.1082,-0.5295,0.2375,-0.8071
0.002,0.065,0.008,16.4,16.6,-2.5,0,2018,5,1,18,50,1.482,-0.1061,-0.5321,0.2353,-0.8063
0.002,0.067,0.011,15.9,16.4,-0.8,0,2018,5,1,18,50,1.522,-0.1043,-0.5346,0.2329,-0.8056
0.002,0.063,0.025,14.8,15.2,0.8,0,2018,5,1,18,50,1.524,-0.1028,-0.537,0.2304,-0.8049
-0.002,0.063,0.035,13.7,13.6,2.6,0,2018,5,1,18,50,1.542,-0.1018,-0.5392,0.2278,-0.8042
0,0.059,0.041,12.5,11.5,4.7,0,2018,5,1,18,50,1.581,-0.1013,-0.5412,0.2254,-0.8037
0.003,0.053,0.046,11.4,8.6,6.8,0,2018,5,1,18,50,1.6,-0.1012,-0.5431,0.2231,-0.803
0.004,0.043,0.045,9.8,5.7,9,1023,2018,5,1,18,50,1.604,-0.1018,-0.5447,0.221,-0.8024
0.007,0.033,0.049,8.4,4.3,10.7,1023,2018,5,1,18,50,1.642,-0.1028,-0.5461,0.2192,-0.8018
0.008,0.027,0.053,6.7,3.6,12.2,1023,2018,5,1,18,50,1.662,-0.1042,-0.5474,0.2173,-0.8013
0.008,0.018,0.046,5.1,2.5,13.6,1023,2018,5,1,18,50,1.666,-0.1059,-0.5483,0.2154,-0.801
0.007,0.01,0.048,3.4,1.3,14.7,1023,2018,5,1,18,50,1.704,-0.1077,-0.5492,0.2137,-0.8006
0.005,0.002,0.04,2,-0.8,15.6,1023,2018,5,1,18,50,1.723,-0.1099,-0.5498,0.2122,-0.8003
0.011,-0.006,0.04,0.9,-2.6,16,1023,2018,5,1,18,50,1.728,-0.1124,-0.5502,0.2109,-0.8
0.011,-0.013,0.037,-0.4,-3.7,15.6,1023,2018,5,1,18,50,1.765,-0.115,-0.5503,0.2099,-0.7998
0.009,-0.024,0.027,-1.2,-3.8,14.9,1023,2018,5,1,18,50,1.786,-0.1176,-0.5504,0.2091,-0.7996
0.008,-0.038,0.024,-1.9,-3.4,14,1023,2018,5,1,18,50,1.79,-0.12,-0.5503,0.2084,-0.7995
0.002,-0.039,0.017,-2.8,-1.7,12.6,1023,2018,5,1,18,50,1.809,-0.1221,-0.5501,0.2078,-0.7995
0.001,-0.044,0.018,-3.5,-0.3,11.1,1023,2018,5,1,18,50,1.829,-0.1237,-0.5499,0.2071,-0.7996
0.002,-0.044,0.011,-4.3,-0.6,9.5,1023,2018,5,1,18,50,1.846,-0.1251,-0.5495,0.2064,-0.7998
0.01,-0.044,0.009,-5.2,-1.7,7.5,1023,2018,5,1,18,50,1.864,-0.1263,-0.5489,0.2061,-0.8001
0.01,-0.044,0.001,-6,-3.2,5.4,1023,2018,5,1,18,50,1.904,-0.1275,-0.5481,0.2061,-0.8004
0.007,-0.048,-0.002,-6.7,-4.3,3.3,0,2018,5,1,18,50,1.924,-0.1284,-0.5472,0.2065,-0.8008
0.009,-0.051,-0.008,-6.8,-4,1.2,0,2018,5,1,18,50,1.928,-0.1292,-0.5461,0.2073,-0.8012
0.005,-0.05,-0.019,-6.7,-3.1,-0.4,0,2018,5,1,18,50,1.948,-0.1295,-0.545,0.2081,-0.8017
0.003,-0.047,-0.02,-6.3,-2,-2.2,0,2018,5,1,18,50,1.967,-0.1297,-0.5439,0.2089,-0.8022
0.004,-0.041,-0.024,-5.9,-1.4,-3.6,0,2018,5,1,18,50,1.988,-0.1294,-0.543,0.2098,-0.8026
0.005,-0.037,-0.027,-5.3,-1,-5.1,0,2018,5,1,18,50,2.028,-0.1291,-0.542,0.2107,-0.8031
0.008,-0.031,-0.032,-4.8,-0.4,-6.4,0,2018,5,1,18,50,2.047,-0.1285,-0.5411,0.2116,-0.8036
0.002,-0.026,-0.032,-4,0.1,-7.9,0,2018,5,1,18,50,2.051,-0.1275,-0.5404,0.2126,-0.804
0.005,-0.017,-0.033,-3.3,0.6,-9.1,0,2018,5,1,18,50,2.068,-0.1265,-0.5397,0.2136,-0.8044
0.003,-0.012,-0.031,-2.8,1,-10.2,0,2018,5,1,18,50,2.086,-0.1252,-0.539,0.2145,-0.8047
0.003,-0.004,-0.027,-2,1.1,-11.1,0,2018,5,1,18,50,2.125,-0.1236,-0.5385,0.2156,-0.8051
0,-0.001,-0.025,-1.2,1.7,-11.5,0,2018,5,1,18,50,2.146,-0.122,-0.538,0.2166,-0.8053
0.002,0.006,-0.021,-0.6,2,-11.6,0,2018,5,1,18,50,2.15,-0.1204,-0.5377,0.2175,-0.8056
0.007,0.014,-0.023,0.1,2.2,-11.4,0,2018,5,1,18,50,2.168,-0.1187,-0.5374,0.2183,-0.8058
0.005,0.019,-0.023,0.9,2.6,-11.1,0,2018,5,1,18,50,2.189,-0.1172,-0.5372,0.219,-0.8059
0.004,0.023,-0.013,1.5,3,-10.4,0,2018,5,1,18,50,2.209,-0.1158,-0.5371,0.2195,-0.8061
0.003,0.03,-0.017,2.3,3.9,-9.8,0,2018,5,1,18,50,2.247,-0.1141,-0.5372,0.22,-0.8061
-0.001,0.034,-0.005,2.8,5,-8.8,0,2018,5,1,18,50,2.269,-0.1125,-0.5374,0.2202,-0.8062
0.004,0.032,0.002,3.1,5.7,-7.7,0,2018,5,1,18,50,2.273,-0.111,-0.5377,0.2201,-0.8062
0.011,0.04,0.001,3,6,-6.4,0,2018,5,1,18,50,2.287,-0.1095,-0.538,0.2198,-0.8063
0.014,0.042,0.001,2.9,5.3,-5.4,1023,2018,5,1,18,50,2.307,-0.1084,-0.5383,0.2193,-0.8063
0.011,0.043,0.001,2.9,4.8,-4.4,1023,2018,5,1,18,50,2.328,-0.1074,-0.5386,0.2189,-0.8064
0.009,0.04,0.007,2.5,4.7,-3.3,1023,2018,5,1,18,50,2.366,-0.1066,-0.539,0.2184,-0.8064
0.007,0.037,0.013,2.3,4.8,-1.5,1023,2018,5,1,18,50,2.385,-0.106,-0.5393,0.2177,-0.8064
0.005,0.039,0.01,2,4.4,-0.1,1023,2018,5,1,18,50,2.39,-0.1057,-0.5397,0.2169,-0.8065
0.001,0.038,0.011,1.3,2.8,1.5,1023,2018,5,1,18,50,2.426,-0.1055,-0.54,0.2161,-0.8064
0,0.031,0.006,1,1.4,2.7,1023,2018,5,1,18,50,2.447,-0.1061,-0.5402,0.2154,-0.8064
0,0.022,0.005,0.6,0.4,3.8,1023,2018,5,1,18,50,2.451,-0.1068,-0.5405,0.2148,-0.8063
0.003,0.016,0.002,0.6,0.4,4.1,1023,2018,5,1,18,50,2.491,-0.1075,-0.5407,0.2143,-0.8062
0.005,0.013,0.002,0.7,1.1,4.3,1023,2018,5,1,18,50,2.51,-0.1082,-0.541,0.2138,-0.8061
0.002,0.007,-0.001,0.9,2.5,4.5,1023,2018,5,1,18,50,2.515,-0.1088,-0.5413,0.2132,-0.8059
0.007,0.004,0.002,0.7,3.7,4.6,1023,2018,5,1,18,50,2.533,-0.1093,-0.5416,0.2123,-0.8059
0.006,0.007,-0.004,0.3,3.6,5.3,1023,2018,5,1,18,50,2.552,-0.1097,-0.5419,0.2114,-0.8059
0.009,0.005,0.001,-0.3,1.3,5.6,1023,2018,5,1,18,50,2.59,-0.1103,-0.5422,0.2106,-0.8058
0.005,0.002,0,-0.8,-1.2,5.9,1023,2018,5,1,18,50,2.594,-0.1111,-0.5423,0.2101,-0.8058
0.009,-0.006,-0.007,-1.3,-2.7,5.8,1023,2018,5,1,18,50,2.61,-0.1123,-0.5423,0.2099,-0.8057
0.009,-0.009,-0.016,-1.7,-3.4,5.5,0,2018,5,1,18,50,2.648,-0.1133,-0.5423,0.21,-0.8055
0.003,-0.014,-0.015,-1.5,-3.6,4.8,0,2018,5,1,18,50,2.669,-0.1144,-0.5422,0.2102,-0.8053
0.002,-0.021,-0.019,-1.2,-3.2,4.2,0,2018,5,1,18,50,2.673,-0.1154,-0.5421,0.2105,-0.8052
0.004,-0.018,-0.013,-1.2,-2.4,3.3,0,2018,5,1,18,50,2.693,-0.1162,-0.5421,0.2108,-0.805
0,-0.019,-0.021,-1.3,-2.2,2.4,0,2018,5,1,18,50,2.714,-0.1169,-0.542,0.211,-0.8049
0.001,-0.018,-0.014,-1.3,-2.4,1.3,0,2018,5,1,18,50,2.75,-0.1175,-0.5419,0.2114,-0.8048
-0.001,-0.013,-0.014,-1.3,-3.2,0.4,0,2018,5,1,18,50,2.77,-0.118,-0.5417,0.2119,-0.8047
-0.003,-0.013,-0.02,-1.5,-3.9,-0.6,0,2018,5,1,18,50,2.773,-0.1184,-0.5415,0.2126,-0.8046
0.002,-0.01,-0.019,-1.2,-4.5,-1.4,0,2018,5,1,18,50,2.81,-0.1187,-0.5413,0.2135,-0.8045
0.005,-0.006,-0.017,-1.2,-4.6,-1.9,0,2018,5,1,18,50,2.83,-0.1189,-0.541,0.2145,-0.8044
0.005,0,-0.015,-0.6,-4.5,-2.3,0,2018,5,1,18,50,2.834,-0.119,-0.5408,0.2155,-0.8042
0.007,0,-0.018,-0.4,-4.4,-2,0,2018,5,1,18,50,2.853,-0.1193,-0.5406,0.2165,-0.804
0.01,0.001,-0.01,0,-3.8,-1.6,0,2018,5,1,18,50,2.873,-0.1194,-0.5405,0.2173,-0.8039
0.005,0.006,-0.006,0.4,-3.6,-1.2,0,2018,5,1,18,50,2.892,-0.1195,-0.5405,0.2181,-0.8036
0.005,0.007,-0.007,0.6,-3.5,-0.8,0,2018,5,1,18,50,2.93,-0.1199,-0.5405,0.2188,-0.8034
0.005,0.005,-0.005,0.9,-2.9,-0.5,0,2018,5,1,18,50,2.95,-0.1202,-0.5406,0.2193,-0.8032
0.005,0.009,0,1.2,-2.3,-0.1,0,2018,5,1,18,50,2.954,-0.1205,-0.5406,0.2198,-0.8029
0.007,0.012,0.001,1.3,-1.6,0.1,0,2018,5,1,18,50,2.992,-0.1208,-0.5407,0.2201,-0.8028
0.009,0.01,0.009,1.3,-1.4,0,0,2018,5,1,18,50,3.012,-0.1211,-0.5408,0.2203,-0.8026
0.008,0.012,0.006,1.4,-1.2,0.2,0,2018,5,1,18,50,3.016,-0.1212,-0.541,0.2205,-0.8024
0.006,0.011,0.01,1.2,-0.6,0.4,1023,2018,5,1,18,50,3.034,-0.1214,-0.5411,0.2206,-0.8023
0.006,0.012,0.011,1.3,0,1,1023,2018,5,1,18,50,3.053,-0.1215,-0.5413,0.2206,-0.8021
0.005,0.013,0.01,1.1,0.2,1,1023,2018,5,1,18,50,3.073,-0.1216,-0.5414,0.2205,-0.802
0.009,0.009,0.011,0.9,0.4,1.2,1023,2018,5,1,18,50,3.094,-0.1219,-0.5415,0.2203,-0.802
0.007,0.006,0.011,0.8,0.9,1.4,1023,2018,5,1,18,50,3.131,-0.1221,-0.5416,0.22,-0.802
0.003,0.007,0.015,0.6,1.4,1.8,1023,2018,5,1,18,50,3.153,-0.1222,-0.5417,0.2197,-0.802
0.001,0.009,0.013,0.7,1.8,2,1023,2018,5,1,18,50,3.157,-0.1224,-0.5419,0.2193,-0.802
0.004,0.001,0.011,0.7,2.2,2.2,1023,2018,5,1,18,50,3.178,-0.1226,-0.542,0.2189,-0.802
0.006,0,0.014,0.9,2.8,2.4,1023,2018,5,1,18,50,3.198,-0.1228,-0.5422,0.2183,-0.802
0.008,-0.001,0.014,1,4,2.3,1023,2018,5,1,18,50,3.236,-0.1228,-0.5423,0.2177,-0.802
0.014,-0.002,0.016,0.7,4.5,1.9,1023,2018,5,1,18,50,3.256,-0.1227,-0.5425,0.2169,-0.8021
0.012,-0.004,0.011,0,4.2,1.7,1023,2018,5,1,18,50,3.26,-0.1226,-0.5425,0.2162,-0.8023
0.007,-0.001,0.021,-0.4,3.7,1.8,1023,2018,5,1,18,50,3.278,-0.1224,-0.5425,0.2156,-0.8025
0.01,-0.003,0.009,-1.1,3,1.7,1023,2018,5,1,18,50,3.3,-0.1224,-0.5424,0.215,-0.8028
0.012,-0.008,0.008,-1.6,2,1.6,1023,2018,5,1,18,50,3.321,-0.1223,-0.5422,0.2146,-0.803
0.009,-0.01,0.007,-2,1.1,1,0,2018,5,1,18,50,3.34,-0.1225,-0.5419,0.2143,-0.8032
0.007,-0.012,-0.001,-2.3,1.1,0.6,0,2018,5,1,18,50,3.355,-0.1225,-0.5416,0.2142,-0.8035
0.003,-0.016,-0.007,-2.3,1.9,0,0,2018,5,1,18,50,3.394,-0.1223,-0.5413,0.2142,-0.8037
0,-0.012,-0.011,-1.9,2.7,-0.6,0,2018,5,1,18,50,3.417,-0.122,-0.5411,0.214,-0.804
0,-0.011,-0.01,-1.9,2.9,-1.3,0,2018,5,1,18,50,3.421,-0.1216,-0.5409,0.2139,-0.8042
0.002,-0.006,-0.009,-1.5,2.7,-1.8,0,2018,5,1,18,50,3.439,-0.1211,-0.5407,0.2137,-0.8044
0.006,-0.008,-0.017,-1.6,2.7,-2.7,0,2018,5,1,18,50,3.46,-0.1206,-0.5405,0.2137,-0.8047
0.005,-0.001,-0.019,-1.4,2.9,-2.8,0,2018,5,1,18,50,3.481,-0.1201,-0.5403,0.2137,-0.8049
0.012,0.002,-0.018,-1.4,2.6,-2.8,0,2018,5,1,18,50,3.5,-0.1196,-0.5401,0.2136,-0.8051
0.011,0.005,-0.016,-1,1.8,-3,0,2018,5,1,18,50,3.519,-0.119,-0.54,0.2137,-0.8053
0.008,0.005,-0.019,-0.9,0.9,-3,0,2018,5,1,18,50,3.558,-0.1185,-0.5399,0.2138,-0.8054
0.005,0.007,-0.018,-0.9,0.1,-2.7,0,2018,5,1,18,50,3.562,-0.1181,-0.5398,0.2141,-0.8054
0,0.008,-0.017,-0.4,-0.1,-2.2,0,2018,5,1,18,50,3.579,-0.118,-0.5397,0.2143,-0.8054
0,0.01,-0.015,0,-0.1,-2.2,0,2018,5,1,18,50,3.598,-0.1178,-0.5397,0.2146,-0.8054
0.001,0.008,-0.016,0.1,0,-2.2,0,2018,5,1,18,50,3.619,-0.1178,-0.5397,0.2148,-0.8053
0.002,0.011,-0.013,0.4,0.2,-2,0,2018,5,1,18,50,3.638,-0.1175,-0.5398,0.215,-0.8052
0.003,0.017,-0.013,0.3,0,-2,0,2018,5,1,18,50,3.66,-0.1172,-0.54,0.2152,-0.8051
0.002,0.019,-0.008,0.3,-0.1,-1.7,0,2018,5,1,18,50,3.679,-0.1172,-0.54,0.2153,-0.8051
0.006,0.019,-0.009,0.4,-1.1,-1.4,0,2018,5,1,18,50,3.716,-0.1172,-0.5401,0.2155,-0.805
0.001,0.021,-0.006,0.3,-2,-0.8,0,2018,5,1,18,50,3.738,-0.1174,-0.5401,0.2157,-0.8049
0.005,0.017,-0.005,0.6,-2.4,-0.2,1023,2018,5,1,18,50,3.742,-0.1178,-0.5401,0.216,-0.8047
0.009,0.016,0,0.8,-1.5,0.4,1023,2018,5,1,18,50,3.759,-0.1182,-0.5402,0.2162,-0.8045
0.012,0.016,0,0.7,-0.4,1,1023,2018,5,1,18,50,3.781,-0.1186,-0.5403,0.2162,-0.8044
0.004,0.015,0.006,0.7,-0.1,1.5,1023,2018,5,1,18,50,3.818,-0.1189,-0.5404,0.2161,-0.8043
0.004,0.012,0.004,0.1,-1.2,1.9,1023,2018,5,1,18,50,3.822,-0.1192,-0.5406,0.216,-0.8042
0.001,0.012,0.004,-0.6,-2.7,2.2,1023,2018,5,1,18,50,3.839,-0.1198,-0.5405,0.216,-0.8041
-0.002,0.005,0.007,-1,-3.8,2.3,1023,2018,5,1,18,50,3.877,-0.1205,-0.5404,0.2162,-0.8041
0.005,0.003,0.004,-1.7,-4.3,2.2,1023,2018,5,1,18,50,3.897,-0.1213,-0.5402,0.2166,-0.804
0.001,0.003,0.002,-1.8,-4.5,1.9,1023,2018,5,1,18,50,3.901,-0.1222,-0.5399,0.217,-0.804
0,0.002,0.003,-1.7,-4,1.7,1023,2018,5,1,18,50,3.921,-0.123,-0.5396,0.2175,-0.8039
0.007,0.002,0.006,-1.7,-3.2,1.3,1023,2018,5,1,18,50,3.941,-0.1237,-0.5393,0.2178,-0.8039
0.007,0.003,0.006,-1.7,-2.8,0.8,1023,2018,5,1,18,50,3.962,-0.1243,-0.5389,0.2181,-0.804
0.005,0.004,-0.002,-1.9,-2.9,0.8,1023,2018,5,1,18,50,3.981,-0.1248,-0.5386,0.2185,-0.804
0.007,0.005,0.003,-2,-2.5,1.3,1023,2018,5,1,18,50,4.021,-0.1254,-0.5383,0.2188,-0.804
0.009,0.004,0.006,-2.2,-2.8,1.6,1023,2018,5,1,18,50,4.041,-0.1258,-0.538,0.219,-0.8041
0.008,0.006,-0.005,-2.3,-4,1.9,0,2018,5,1,18,50,4.045,-0.1264,-0.5377,0.2193,-0.8041
0.008,0,-0.006,-2.3,-4.6,1.7,0,2018,5,1,18,50,4.064,-0.1273,-0.5373,0.2198,-0.8041
0.007,-0.004,-0.009,-2.1,-3.8,1.4,0,2018,5,1,18,50,4.085,-0.1279,-0.537,0.2203,-0.8041
0.008,-0.006,-0.011,-1.9,-2,1.1,0,2018,5,1,18,50,4.102,-0.1283,-0.5367,0.2207,-0.8041
0.005,-0.001,-0.006,-1,-1.3,1.1,0,2018,5,1,18,50,4.122,-0.1287,-0.5366,0.2209,-0.8041
0.005,-0.005,-0.008,-0.7,-1.3,1.3,0,2018,5,1,18,50,4.141,-0.1289,-0.5365,0.2211,-0.804
0.012,-0.004,-0.007,-0.7,-1.3,1.1,0,2018,5,1,18,50,4.182,-0.1292,-0.5364,0.2213,-0.804
0.011,-0.007,-0.008,-0.6,-1.4,0.8,0,2018,5,1,18,50,4.203,-0.1295,-0.5364,0.2216,-0.8039
0.008,-0.01,-0.003,-0.3,-0.8,0.5,0,2018,5,1,18,50,4.207,-0.1297,-0.5363,0.2218,-0.8039
0.011,-0.003,-0.007,0,-1,0.4,0,2018,5,1,18,50,4.242,-0.1298,-0.5362,0.222,-0.8038
0.008,-0.006,-0.008,0.1,-1.2,0,0,2018,5,1,18,50,4.262,-0.13,-0.5362,0.2223,-0.8037
0,-0.007,-0.006,0.2,-0.9,0.1,0,2018,5,1,18,50,4.266,-0.1301,-0.5362,0.2226,-0.8036
0.001,-0.005,0,0.2,-0.7,0,0,2018,5,1,18,50,4.305,-0.1301,-0.5362,0.2228,-0.8035
0.002,-0.003,0,0.3,-0.8,-0.4,0,2018,5,1,18,50,4.309,-0.1301,-0.5362,0.223,-0.8035
0,-0.005,0.007,0.1,-1.4,-0.8,0,2018,5,1,18,50,4.324,-0.1301,-0.5362,0.2233,-0.8034
0.003,-0.001,0.003,-0.3,-1.8,-1.4,0,2018,5,1,18,50,4.344,-0.1301,-0.536,0.2237,-0.8034
0.004,0.007,0.01,-0.7,-1.7,-2.3,0,2018,5,1,18,50,4.364,-0.13,-0.5357,0.2242,-0.8035
0.012,0.013,0.008,-1.4,-1.3,-2.5,0,2018,5,1,18,50,4.402,-0.1301,-0.5353,0.2245,-0.8037
0.014,0.016,0.013,-1.6,-1.1,-2,0,2018,5,1,18,50,4.422,-0.1301,-0.5349,0.2248,-0.8039
0.014,0.018,0.007,-1.9,-1,-1.1,0,2018,5,1,18,50,4.426,-0.13,-0.5345,0.225,-0.8041
0.012,0.02,0.01,-2,-1.1,0,1023,2018,5,1,18,50,4.465,-0.1303,-0.5341,0.225,-0.8044
0.009,0.011,0.005,-1.9,-0.9,1.2,1023,2018,5,1,18,50,4.485,-0.1306,-0.5338,0.225,-0.8045
0.008,0.01,-0.001,-1.7,-0.4,1.9,1023,2018,5,1,18,50,4.489,-0.1311,-0.5335,0.2248,-0.8046
0.002,0.004,-0.004,-1.7,0.4,1.9,1023,2018,5,1,18,50,4.507,-0.1315,-0.5334,0.2246,-0.8047
0,0,-0.004,-1.6,1.4,1.8,1023,2018,5,1,18,50,4.529,-0.1316,-0.5333,0.2244,-0.8048
-0.006,0,-0.005,-1.5,1.7,1.3,1023,2018,5,1,18,50,4.548,-0.1317,-0.5332,0.224,-0.8049
0.001,-0.003,-0.009,-1.4,1.5,0.8,1023,2018,5,1,18,50,4.569,-0.1317,-0.5332,0.2238,-0.8051
0.003,-0.004,-0.011,-1.3,1.4,0.4,1023,2018,5,1,18,50,4.586,-0.1317,-0.5331,0.2236,-0.8051
0.005,-0.001,-0.006,-1.2,1.3,-0.1,1023,2018,5,1,18,50,4.605,-0.1317,-0.533,0.2234,-0.8053
-0.001,-0.002,-0.018,-0.6,0.9,-0.3,1023,2018,5,1,18,50,4.626,-0.1315,-0.533,0.2234,-0.8053
0.002,-0.004,-0.018,-0.3,1.5,-0.7,1023,2018,5,1,18,50,4.664,-0.1313,-0.5331,0.2234,-0.8053
0.011,0,-0.014,0.1,2.3,-1.1,1023,2018,5,1,18,50,4.686,-0.131,-0.5331,0.2233,-0.8053
0.014,0.005,-0.02,0.2,2.2,-1.3,1023,2018,5,1,18,50,4.69,-0.1305,-0.5333,0.2232,-0.8053
0.009,0.005,-0.011,0.6,1.6,-1.1,1023,2018,5,1,18,50,4.708,-0.1302,-0.5334,0.2232,-0.8053
0.005,0.007,-0.005,0.5,1.4,-0.6,1023,2018,5,1,18,50,4.745,-0.1299,-0.5335,0.2231,-0.8053
0.006,0.008,-0.002,0,0,0,0,2018,5,1,18,50,4.767,-0.1299,-0.5336,0.223,-0.8053
-0.002,0.011,-0.001,-0.9,-4.5,-1.3,0,2018,5,1,18,50,4.772,-0.1302,-0.5334,0.2236,-0.8052
0,0.005,-0.002,-1.1,-4.1,-1.6,0,2018,5,1,18,50,4.791,-0.1306,-0.5331,0.2244,-0.8051
0.005,0.014,0,-0.5,-1.3,-0.7,0,2018,5,1,18,50,4.809,-0.1307,-0.5327,0.2254,-0.8051
0.007,-0.003,-0.002,-0.4,-1.2,1.6,0,2018,5,1,18,50,4.831,-0.133,-0.5323,0.2254,-0.805
0.002,-0.002,-0.003,-0.6,-0.5,1.3,0,2018,5,1,18,50,4.846,-0.1336,-0.5322,0.2255,-0.8049
0,-0.005,-0.005,-0.6,-0.6,1.1,0,2018,5,1,18,50,4.886,-0.1338,-0.5322,0.2256,-0.8049
0.004,-0.008,-0.004,-0.5,-1,0.8,0,2018,5,1,18,50,4.905,-0.1341,-0.5322,0.2257,-0.8048
0.004,-0.007,-0.011,-0.3,-1.2,0.3,0,2018,5,1,18,50,4.91,-0.1342,-0.5321,0.2259,-0.8047
0.007,-0.008,-0.011,-0.2,-0.7,-0.3,0,2018,5,1,18,50,4.946,-0.1344,-0.5321,0.2262,-0.8047
0.007,-0.003,-0.013,0.1,0,-0.6,0,2018,5,1,18,50,4.967,-0.1344,-0.5321,0.2263,-0.8047
0.01,-0.003,-0.01,0.4,0.4,-0.5,0,2018,5,1,18,50,4.971,-0.1343,-0.5321,0.2264,-0.8046
0.008,0,-0.005,0.7,0.5,-0.2,0,2018,5,1,18,50,5.007,-0.1341,-0.5323,0.2265,-0.8045
0.01,0,-0.007,1,0.5,0,0,2018,5,1,18,50,5.026,-0.134,-0.5325,0.2265,-0.8044
0.008,-0.003,-0.006,1.5,1,0.3,0,2018,5,1,18,50,5.031,-0.1339,-0.5327,0.2265,-0.8043
0.003,-0.002,-0.01,1.8,1.8,0.4,0,2018,5,1,18,50,5.048,-0.1339,-0.5329,0.2263,-0.8041
0.008,0.001,0.006,1.8,2,0.6,0,2018,5,1,18,50,5.088,-0.1337,-0.5333,0.2261,-0.804
0.008,-0.002,-0.002,1.5,1.4,0.6,0,2018,5,1,18,50,5.106,-0.1334,-0.5336,0.226,-0.8039
0.011,-0.005,0,1.2,0.9,0.2,0,2018,5,1,18,50,5.11,-0.1333,-0.5337,0.2258,-0.8038
0.013,-0.003,0.001,1.1,0.7,0.1,0,2018,5,1,18,50,5.148,-0.1331,-0.5339,0.2258,-0.8038
0.013,-0.003,0.005,1.1,0.7,0,1023,2018,5,1,18,50,5.168,-0.133,-0.534,0.2258,-0.8037
0.015,-0.005,-0.002,1.2,0.7,-0.2,1023,2018,5,1,18,50,5.172,-0.133,-0.5341,0.2258,-0.8037
0.001,-0.011,-0.001,1.5,1.7,-0.4,1023,2018,5,1,18,50,5.21,-0.1327,-0.5343,0.2258,-0.8036
-0.002,-0.007,0.003,1.7,3.1,-0.8,1023,2018,5,1,18,50,5.23,-0.1323,-0.5345,0.2256,-0.8036
-0.004,-0.001,0.004,1.5,3.8,-1.1,1023,2018,5,1,18,50,5.234,-0.1317,-0.5348,0.2253,-0.8036
0,0.001,0.011,0.9,2.8,-1.6,1023,2018,5,1,18,50,5.252,-0.1313,-0.5349,0.225,-0.8037
0.009,0.004,0.008,0.2,1.1,-2.3,1023,2018,5,1,18,50,5.293,-0.1309,-0.5349,0.2249,-0.8038
0.02,0.004,0.004,0,0.3,-3.1,1023,2018,5,1,18,50,5.313,-0.1304,-0.5347,0.2251,-0.8039
0.027,0.011,0.004,-0.7,0.7,-3.3,1023,2018,5,1,18,50,5.317,-0.13,-0.5345,0.2253,-0.8041
0.022,0.017,0.001,-0.8,0.6,-2.8,1023,2018,5,1,18,50,5.33,-0.1296,-0.5342,0.2254,-0.8043
0.018,0.021,0,-1.1,-1.2,-1.6,1023,2018,5,1,18,50,5.369,-0.1294,-0.5339,0.2256,-0.8044
0.021,0.03,0.007,-2,-5.6,0,1023,2018,5,1,18,50,5.39,-0.1297,-0.5336,0.226,-0.8045
0.008,0.061,0.021,-4.5,-16.8,1.6,1023,2018,5,1,18,50,5.394,-0.1312,-0.5329,0.2269,-0.8045
0.007,0.076,0.013,-8.5,-36.7,3.6,1023,2018,5,1,18,50,5.412,-0.1348,-0.5314,0.2297,-0.804
0.012,0.085,0.02,-12.2,-60.6,5.4,1023,2018,5,1,18,50,5.449,-0.141,-0.529,0.2352,-0.803
0.008,0.099,0.028,-16.7,-90.1,7.2,1023,2018,5,1,18,50,5.47,-0.15,-0.5253,0.2441,-0.8011
-0.003,0.16,0.02,-18.7,-134.4,8.7,1023,2018,5,1,18,50,5.474,-0.1624,-0.5203,0.2579,-0.7977
-0.016,0.147,0.015,-21.7,-185.7,11.5,0,2018,5,1,18,50,5.514,-0.1792,-0.5132,0.2787,-0.7916
-0.017,0.179,0.034,-23.5,-242.2,11.9,0,2018,5,1,18,50,5.534,-0.2012,-0.5039,0.306,-0.7822
-0.028,0.111,-0.003,-28.4,-282.6,14.1,0,2018,5,1,18,50,5.538,-0.2275,-0.4915,0.3398,-0.7688
0.003,-0.003,-0.081,-31.9,-271.8,16.5,0,2018,5,1,18,50,5.556,-0.2552,-0.4773,0.3744,-0.7528
0.018,-0.028,-0.09,-32.7,-239.5,16.5,0,2018,5,1,18,50,5.576,-0.2797,-0.463,0.4055,-0.7368
0.011,-0.062,-0.047,-33.4,-204,15.8,0,2018,5,1,18,50,5.595,-0.3011,-0.449,0.4313,-0.7222
-0.014,-0.025,-0.009,-37.9,-175.7,15.4,0,2018,5,1,18,50,5.614,-0.3197,-0.4357,0.4522,-0.7094
-0.001,-0.019,-0.05,-40.6,-150.6,15.2,0,2018,5,1,18,50,5.653,-0.3365,-0.423,0.4691,-0.6983
0,-0.069,-0.083,-40.1,-124.2,15.8,0,2018,5,1,18,50,5.657,-0.351,-0.4116,0.4829,-0.6885
-0.024,-0.21,-0.114,-37.9,-89.8,14.3,0,2018,5,1,18,50,5.673,-0.3635,-0.4017,0.4925,-0.681
-0.025,-0.159,-0.119,-35.7,-36,10.8,0,2018,5,1,18,50,5.712,-0.3721,-0.3947,0.4968,-0.6774
-0.02,0.017,-0.075,-33.3,4.9,8.7,0,2018,5,1,18,50,5.734,-0.3766,-0.3909,0.4958,-0.6777
-0.033,0.11,-0.049,-31.6,18,13,0,2018,5,1,18,50,5.738,-0.3799,-0.39,0.4912,-0.6797
-0.007,0.004,-0.045,-29.6,20.4,15.4,0,2018,5,1,18,50,5.757,-0.3831,-0.3896,0.4859,-0.682
-0.019,-0.018,-0.058,-27.6,28.1,16.3,0,2018,5,1,18,50,5.777,-0.3852,-0.3896,0.4807,-0.6845
-0.004,0.069,-0.065,-27,45.6,17.1,0,2018,5,1,18,50,5.798,-0.3866,-0.3909,0.4737,-0.6879
0.034,0.109,-0.091,-24.8,65.5,21.5,0,2018,5,1,18,50,5.819,-0.3873,-0.3943,0.4637,-0.6923
0.018,0.024,-0.108,-23.7,79.3,25.1,0,2018,5,1,18,50,5.833,-0.3866,-0.3992,0.4522,-0.6975
-0.016,0.099,-0.06,-22.8,100.9,31.2,0,2018,5,1,18,50,5.872,-0.3851,-0.4057,0.4379,-0.7036
-0.025,0.138,-0.06,-21.8,104.7,38.5,0,2018,5,1,18,50,5.893,-0.3834,-0.413,0.421,-0.7106
-0.028,0.114,-0.04,-20.5,95.7,42.4,1023,2018,5,1,18,50,5.898,-0.3827,-0.421,0.4041,-0.7161
0.001,0.081,-0.054,-18.1,102.3,45.8,1023,2018,5,1,18,50,5.918,-0.3826,-0.4291,0.3868,-0.7209
0.029,0.109,-0.143,-7.6,103.2,44.6,1023,2018,5,1,18,50,5.938,-0.3809,-0.4383,0.3694,-0.7253
-0.02,0.065,-0.074,-0.6,96.2,44.9,1023,2018,5,1,18,50,5.956,-0.379,-0.4476,0.3531,-0.7288
-0.044,0.12,-0.008,5.3,75.4,42.2,1023,2018,5,1,18,50,5.978,-0.3773,-0.4573,0.3384,-0.7306
-0.03,0.179,-0.005,6.7,28.1,45,1023,2018,5,1,18,50,5.997,-0.3783,-0.4644,0.3286,-0.7301
-0.011,0.156,0.07,6.3,-34.2,45.3,1023,2018,5,1,18,50,6.034,-0.3836,-0.4678,0.3259,-0.7264
0.047,0.121,0.078,2.2,-105.9,42.9,1023,2018,5,1,18,50,6.053,-0.3945,-0.4662,0.3317,-0.7189
0.128,0.074,-0.07,4.6,-168.4,42.4,1023,2018,5,1,18,50,6.06,-0.411,-0.4595,0.3456,-0.7073
0.126,-0.094,-0.075,4.2,-208.2,40.8,1023,2018,5,1,18,50,6.099,-0.4306,-0.4491,0.3663,-0.6917
0.091,-0.208,-0.041,-1.4,-197.9,37.4,0,2018,5,1,18,50,6.103,-0.4508,-0.4362,0.3882,-0.675
0.081,-0.151,-0.087,-8.7,-168.6,33.6,0,2018,5,1,18,50,6.12,-0.4687,-0.4238,0.4064,-0.6598
0.062,-0.212,-0.08,-11.6,-135.3,23.3,0,2018,5,1,18,50,6.138,-0.4837,-0.412,0.4208,-0.6473
0.019,-0.417,-0.076,-13.5,-96.3,3.8,0,2018,5,1,18,50,6.159,-0.4941,-0.4021,0.4318,-0.6384
0.032,-0.331,-0.056,-9.9,-67.1,-15.7,0,2018,5,1,18,50,6.179,-0.4994,-0.3936,0.4402,-0.6338
0.016,-0.472,0.007,-10.4,-36.3,-36.8,0,2018,5,1,18,50,6.218,-0.5006,-0.3861,0.4469,-0.6327
0.013,-0.421,-0.011,-9.9,-15.5,-54.7,0,2018,5,1,18,50,6.238,-0.4977,-0.3794,0.4519,-0.6355
-0.011,-0.451,-0.032,-5.8,-0.9,-73.1,0,2018,5,1,18,50,6.242,-0.4916,-0.3728,0.4562,-0.641
-0.026,-0.268,0.034,2.3,0.5,-83.4,0,2018,5,1,18,50,6.261,-0.4824,-0.3667,0.4613,-0.6479
-0.07,-0.235,0.061,4.9,-6.1,-85.1,0,2018,5,1,18,50,6.283,-0.4727,-0.3599,0.4677,-0.6544
-0.031,-0.161,0.006,7.8,5.5,-79.8,0,2018,5,1,18,50,6.296,-0.4621,-0.3539,0.4735,-0.6609
0.015,-0.124,-0.175,15.8,8,-65.6,0,2018,5,1,18,50,6.335,-0.4519,-0.3496,0.4785,-0.6666
-0.01,-0.086,-0.182,31.4,15.6,-51.9,0,2018,5,1,18,50,6.357,-0.4421,-0.3486,0.4826,-0.6707
-0.131,-0.099,-0.05,35.9,30.6,-36.3,0,2018,5,1,18,50,6.361,-0.4323,-0.351,0.4859,-0.6735
-0.191,-0.066,0.008,32.8,52.4,-25.8,0,2018,5,1,18,50,6.38,-0.4226,-0.3559,0.4859,-0.6771
-0.119,0.148,-0.175,30.5,66.8,-12.5,0,2018,5,1,18,50,6.4,-0.4136,-0.3629,0.4824,-0.6814
-0.026,0.377,-0.215,33.2,34.8,-6.1,0,2018,5,1,18,50,6.42,-0.4062,-0.3705,0.4783,-0.6846
-0.157,0.114,0.068,22.4,-34.2,-12.1,0,2018,5,1,18,50,6.457,-0.4026,-0.3731,0.4818,-0.6829
-0.172,0.045,0.207,3,-57.6,-16.4,0,2018,5,1,18,50,6.478,-0.4028,-0.3701,0.4895,-0.6789
-0.136,0.132,0.147,-14.6,-69,-16.7,0,2018,5,1,18,50,6.482,-0.4051,-0.3636,0.4979,-0.6749
-0.118,0.116,0.079,-27.9,-76.9,-10,0,2018,5,1,18,50,6.52,-0.4099,-0.3548,0.506,-0.6707
-0.097,0.064,0.077,-35.7,-82.8,-6.9,0,2018,5,1,18,50,6.522,-0.4169,-0.3452,0.5129,-0.6661
-0.07,0.022,0.092,-44.1,-92.6,-8.2,0,2018,5,1,18,50,6.538,-0.4253,-0.3336,0.52,-0.6613
-0.034,-0.014,0.057,-51.2,-85.7,-12.7,0,2018,5,1,18,50,6.573,-0.4339,-0.3204,0.5269,-0.6567
-0.01,-0.03,0.039,-58.2,-71.8,-20.3,0,2018,5,1,18,50,6.595,-0.4412,-0.3066,0.5323,-0.6541
0.022,-0.025,0.038,-63.8,-76.3,-28.6,1023,2018,5,1,18,50,6.599,-0.4477,-0.2915,0.5369,-0.6528
0.012,-0.028,0.043,-69.1,-90.7,-34.2,1023,2018,5,1,18,50,6.637,-0.4542,-0.2742,0.5428,-0.6509
-0.044,-0.072,0.063,-77.5,-94.2,-38.8,1023,2018,5,1,18,50,6.657,-0.4611,-0.2547,0.5492,-0.6486
-0.067,-0.127,0.027,-88.8,-73.3,-44.1,1023,2018,5,1,18,50,6.659,-0.4675,-0.2343,0.5539,-0.6477
-0.037,-0.084,-0.027,-98.8,-60.5,-51.7,1023,2018,5,1,18,50,6.698,-0.4732,-0.2136,0.5558,-0.6491
-0.003,-0.033,-0.05,-105.4,-58.3,-58.7,1023,2018,5,1,18,50,6.718,-0.4782,-0.1918,0.5567,-0.6515
0.028,-0.029,-0.054,-113.3,-47.1,-59.8,1023,2018,5,1,18,50,6.722,-0.4831,-0.1693,0.5561,-0.6546
0.044,0.008,-0.095,-118.9,-31.4,-57.6,1023,2018,5,1,18,50,6.762,-0.4882,-0.147,0.553,-0.6588
0.065,0.002,-0.127,-128.9,-9.6,-53.4,1023,2018,5,1,18,50,6.781,-0.4933,-0.1258,0.5472,-0.6642
0.145,0.031,-0.17,-134.6,28.4,-45.4,1023,2018,5,1,18,50,6.786,-0.4996,-0.107,0.5359,-0.672
0.208,0.116,-0.216,-134,50.7,-37.2,1023,2018,5,1,18,50,6.802,-0.5063,-0.0911,0.5199,-0.6818
0.215,0.106,-0.233,-133.4,60.7,-26.4,1023,2018,5,1,18,50,6.822,-0.5135,-0.0775,0.5019,-0.6915
0.19,0.12,-0.206,-130.9,60.6,-16.5,1023,2018,5,1,18,50,6.844,-0.5211,-0.0656,0.483,-0.7005
0.158,0.076,-0.199,-131,51.1,-4.4,1023,2018,5,1,18,50,6.863,-0.5294,-0.0534,0.4655,-0.7071
0.12,0.099,-0.228,-128.8,37.7,2.7,0,2018,5,1,18,50,6.901,-0.5386,-0.0412,0.4486,-0.7119
0.093,0.125,-0.247,-129,13.2,6,0,2018,5,1,18,50,6.921,-0.5484,-0.0282,0.4344,-0.7139
0.084,0.071,-0.262,-128.5,-3.1,9.3,0,2018,5,1,18,50,6.926,-0.5586,-0.0135,0.4223,-0.7137
0.09,0.033,-0.253,-125.5,5.1,14.1,0,2018,5,1,18,50,6.944,-0.569,0.001,0.41,-0.7127
0.095,0.02,-0.211,-120.5,4,18.5,0,2018,5,1,18,50,6.965,-0.5795,0.0141,0.3974,-0.7112
0.066,-0.021,-0.182,-116.9,4.3,21,0,2018,5,1,18,50,7.006,-0.5899,0.027,0.3854,-0.709
0.044,-0.046,-0.145,-114.2,11.4,21.4,0,2018,5,1,18,50,7.01,-0.6,0.0389,0.3727,-0.7066
0.03,-0.047,-0.123,-112.3,9.6,21.9,0,2018,5,1,18,50,7.024,-0.6094,0.0509,0.3606,-0.7041
-0.028,-0.08,-0.073,-110.5,12.7,23.8,0,2018,5,1,18,50,7.043,-0.6188,0.0625,0.3485,-0.7012
-0.06,-0.097,-0.01,-110.4,16.9,24.3,0,2018,5,1,18,50,7.062,-0.6281,0.073,0.3358,-0.698
-0.09,-0.184,0.047,-112.2,19.7,23,0,2018,5,1,18,50,7.084,-0.6373,0.0833,0.3225,-0.6948
-0.081,-0.192,0.059,-109.8,22.5,21.5,0,2018,5,1,18,50,7.104,-0.646,0.0934,0.3088,-0.6917
-0.081,-0.118,0.023,-108.2,12.7,19.7,0,2018,5,1,18,50,7.123,-0.6543,0.1036,0.2954,-0.6883
-0.055,-0.099,-0.037,-106.9,10.4,17.1,0,2018,5,1,18,50,7.163,-0.6619,0.1148,0.2829,-0.6845
-0.063,-0.081,-0.019,-108.4,17.2,12.3,0,2018,5,1,18,50,7.184,-0.669,0.1257,0.2698,-0.681
-0.025,-0.015,-0.026,-109.7,29.4,8.5,0,2018,5,1,18,50,7.188,-0.6756,0.1356,0.2548,-0.6783
-0.025,-0.02,0.03,-113,41.5,6.5,0,2018,5,1,18,50,7.224,-0.6821,0.1443,0.2375,-0.6762
0.016,0.021,0.043,-112.8,41.8,8.5,0,2018,5,1,18,50,7.247,-0.6886,0.1523,0.2186,-0.6743
0.071,0.02,0.058,-107,34.7,14,0,2018,5,1,18,50,7.251,-0.695,0.1606,0.2004,-0.6715
0.086,-0.036,0.175,-97.3,42.3,19.8,0,2018,5,1,18,50,7.265,-0.7014,0.1677,0.1832,-0.668
0.128,-0.047,0.246,-84.9,49.5,22.4,0,2018,5,1,18,50,7.302,-0.7079,0.1723,0.1661,-0.6644
0.129,0.001,0.323,-68.8,37.3,21.1,0,2018,5,1,18,50,7.324,-0.714,0.1751,0.1515,-0.6606
0.085,-0.009,0.377,-54.5,20.9,12.7,0,2018,5,1,18,50,7.328,-0.7184,0.1782,0.1408,-0.6574
-0.012,-0.085,0.442,-49.8,22.9,-5.6,0,2018,5,1,18,50,7.347,-0.7209,0.1808,0.1313,-0.6559
-0.002,-0.01,0.344,-51.1,31.4,-33.6,0,2018,5,1,18,50,7.368,-0.7207,0.1825,0.1207,-0.6577
0.003,0.13,0.155,-51.3,23.3,-59.5,0,2018,5,1,18,50,7.386,-0.7173,0.1851,0.1084,-0.6628
0.035,0.208,-0.009,-50.4,18.6,-77.4,1023,2018,5,1,18,50,7.424,-0.7107,0.1894,0.0973,-0.6704
0.001,0.11,-0.078,-52,50.3,-87,1023,2018,5,1,18,50,7.444,-0.7029,0.1926,0.0839,-0.6795
-0.064,0.101,-0.08,-55.6,84,-92.7,1023,2018,5,1,18,50,7.449,-0.6951,0.1914,0.0652,-0.6897
-0.09,0.19,-0.156,-61.2,80.4,-91.7,1023,2018,5,1,18,50,7.487,-0.6873,0.1888,0.0443,-0.6999
-0.126,0.09,-0.229,-67.2,61.8,-87.4,1023,2018,5,1,18,50,7.506,-0.679,0.1886,0.0249,-0.7089
-0.159,-0.012,-0.205,-71.1,56,-82.7,1023,2018,5,1,18,50,7.51,-0.6706,0.1906,0.0069,-0.7168
-0.151,0.034,-0.206,-72.8,46.1,-76.3,1023,2018,5,1,18,50,7.526,-0.6624,0.1935,-0.0104,-0.7235
-0.128,0.051,-0.261,-69.5,27.4,-71.2,1023,2018,5,1,18,50,7.564,-0.6543,0.1982,-0.0256,-0.7293
-0.119,-0.052,-0.218,-57.2,33.3,-61.9,1023,2018,5,1,18,50,7.584,-0.6385,0.2094,-0.0502,-0.7388
-0.102,0.041,-0.154,-47.6,37,-59.6,1023,2018,5,1,18,50,7.588,-0.6317,0.2118,-0.0627,-0.743
-0.1,0.082,-0.075,-40,25.2,-60,1023,2018,5,1,18,50,7.61,-0.6246,0.213,-0.0743,-0.7475
-0.092,0.091,-0.024,-36.2,22.6,-64.1,1023,2018,5,1,18,50,7.629,-0.6169,0.2138,-0.0843,-0.7526
-0.078,0.125,-0.008,-34,36.3,-68.3,1023,2018,5,1,18,50,7.667,-0.6087,0.2138,-0.095,-0.758
-0.054,0.191,0.032,-36,44.9,-70.8,1023,2018,5,1,18,50,7.687,-0.6005,0.213,-0.1072,-0.7631
0,0.198,0.055,-40.4,40.8,-70.3,0,2018,5,1,18,50,7.691,-0.5919,0.2123,-0.1199,-0.7681
0.01,0.2,0.114,-48.7,37.5,-66.6,0,2018,5,1,18,50,7.726,-0.5832,0.213,-0.1324,-0.7726
0.014,0.173,0.089,-59.6,44.5,-59.7,0,2018,5,1,18,50,7.748,-0.5749,0.2149,-0.1458,-0.7758
0.008,0.165,-0.022,-68.7,60.4,-53,0,2018,5,1,18,50,7.752,-0.5676,0.217,-0.1619,-0.7774
0.025,0.19,-0.168,-71.3,59.5,-47.7,0,2018,5,1,18,50,7.768,-0.5611,0.219,-0.1792,-0.7778
-0.002,0.081,-0.1,-73.1,52.9,-45.9,0,2018,5,1,18,50,7.789,-0.5546,0.2219,-0.1957,-0.7776
-0.023,0.113,-0.016,-76.6,51.7,-43.1,0,2018,5,1,18,50,7.808,-0.5476,0.2252,-0.2129,-0.7771
-0.007,0.09,-0.028,-80.6,52.9,-39.5,0,2018,5,1,18,50,7.829,-0.5408,0.2288,-0.2302,-0.7759
0.009,0.092,-0.088,-83.3,47.2,-36.8,0,2018,5,1,18,50,7.851,-0.534,0.2335,-0.2474,-0.7739
0.151,0.152,-0.09,-84.8,29.7,-26.8,0,2018,5,1,18,50,7.869,-0.5275,0.2398,-0.2622,-0.7715
-0.022,0.266,-0.011,-88.7,-5.2,-8.8,0,2018,5,1,18,50,7.889,-0.5217,0.2499,-0.2727,-0.7687
0.104,0.325,0.039,-99.2,-44,16.9,0,2018,5,1,18,50,7.928,-0.5167,0.2653,-0.2778,-0.7651
-0.053,0.112,0.057,-118.6,-62.9,33.2,0,2018,5,1,18,50,7.947,-0.5122,0.2861,-0.2788,-0.7602
0.054,-0.083,-0.214,-122.8,-52.2,37.1,0,2018,5,1,18,50,7.954,-0.5083,0.31,-0.2807,-0.7527
1.32,0.481,0.255,-48.5,-15.1,-31.4,0,2018,5,1,18,50,7.972,-0.5023,0.326,-0.2829,-0.7491
0.088,-0.279,0.223,-19.3,28.4,-46.2,0,2018,5,1,18,50,7.99,-0.4944,0.3259,-0.2888,-0.7522
0.039,0.048,-0.019,-19.9,72.8,-41.5,0,2018,5,1,18,50,8.01,-0.4912,0.3208,-0.3016,-0.7514
0.096,0.031,0.102,-5.2,25.4,-5.9,0,2018,5,1,18,50,8.047,-0.4898,0.3167,-0.3109,-0.7503
0.077,-0.292,0.115,-25.3,21.5,11.3,0,2018,5,1,18,50,8.067,-0.4912,0.318,-0.314,-0.7476
0.07,0.092,-0.146,-30.6,35,-1.1,0,2018,5,1,18,50,8.071,-0.4919,0.3195,-0.3207,-0.7436
0.054,0.17,-0.29,-28.6,20.6,-6.4,0,2018,5,1,18,50,8.11,-0.4912,0.3207,-0.3272,-0.7407
-0.014,0.102,-0.196,-27,22,-5.9,0,2018,5,1,18,50,8.131,-0.4899,0.3222,-0.3323,-0.7386
-0.121,0.049,-0.041,-25.3,46.9,-3.9,0,2018,5,1,18,50,8.135,-0.4894,0.3223,-0.3399,-0.7354
-0.017,0.129,0.109,-25.9,54.8,-2.7,0,2018,5,1,18,50,8.153,-0.4903,0.3202,-0.3495,-0.7312
0.024,0.14,0.063,-38.4,40.9,-2.5,0,2018,5,1,18,50,8.172,-0.4907,0.3198,-0.3585,-0.7268
0.125,0.236,-0.145,-52.6,16.1,3.5,0,2018,5,1,18,50,8.189,-0.4893,0.3231,-0.3663,-0.7224
0.192,0.052,-0.292,-52.1,7.7,5.5,1023,2018,5,1,18,50,8.226,-0.487,0.3296,-0.3714,-0.7184
0.153,-0.074,-0.136,-47.6,49.8,-4.5,1023,2018,5,1,18,50,8.247,-0.4855,0.3335,-0.379,-0.7136
-0.077,0.049,-0.118,-49,85,-5.9,1023,2018,5,1,18,50,8.251,-0.4854,0.3333,-0.3929,-0.7062
-0.078,0.156,-0.219,-41.7,63.9,6.8,1023,2018,5,1,18,50,8.27,-0.4867,0.3325,-0.4063,-0.6981
-0.041,0.095,-0.138,-27.3,33.1,9.4,1023,2018,5,1,18,50,8.292,-0.4882,0.3333,-0.4142,-0.692
0.02,0.035,-0.101,-22.3,31.6,3.8,1023,2018,5,1,18,50,8.331,-0.4886,0.3342,-0.4199,-0.6878
0.051,0.025,-0.152,-14.9,48.4,7.8,1023,2018,5,1,18,50,8.351,-0.4899,0.334,-0.4268,-0.6828
0.027,0.067,-0.073,-8.5,42.1,14.4,1023,2018,5,1,18,50,8.355,-0.4929,0.3322,-0.4333,-0.6773
-0.032,0.04,-0.005,-6.8,16.1,13.3,1023,2018,5,1,18,50,8.376,-0.4954,0.3315,-0.4372,-0.6734
-0.045,0.028,-0.006,-6.9,-20.7,10.3,1023,2018,5,1,18,50,8.395,-0.4957,0.333,-0.4369,-0.6725
-0.017,-0.086,-0.037,-5.5,-30.5,11.1,1023,2018,5,1,18,50,8.434,-0.4949,0.3373,-0.4334,-0.6732
0.054,-0.144,-0.079,-3.6,-9.8,8.5,1023,2018,5,1,18,50,8.454,-0.4946,0.3409,-0.4305,-0.6736
0.117,-0.112,-0.078,3.5,19.2,3.6,1023,2018,5,1,18,50,8.458,-0.4957,0.3408,-0.431,-0.6725
0.08,-0.115,-0.029,8.9,41.5,-1.3,1023,2018,5,1,18,50,8.477,-0.4981,0.3373,-0.434,-0.6705
0.077,0.029,-0.028,6.7,47.4,-0.6,1023,2018,5,1,18,50,8.497,-0.5014,0.3327,-0.439,-0.6671
0.052,0.098,-0.039,3.3,26.2,9.4,1023,2018,5,1,18,50,8.517,-0.5039,0.3292,-0.4434,-0.664
0.008,-0.029,-0.011,3.9,27.3,16.1,1023,2018,5,1,18,50,8.534,-0.5068,0.328,-0.4454,-0.6611
-0.026,-0.024,-0.018,6,47.2,15.1,0,2018,5,1,18,50,8.552,-0.5114,0.3255,-0.4483,-0.6568
-0.087,0.013,-0.048,8.2,44.8,7.3,0,2018,5,1,18,50,8.575,-0.5159,0.3211,-0.4528,-0.6523
-0.095,0.012,-0.05,9.2,26.1,-0.1,0,2018,5,1,18,50,8.612,-0.5185,0.317,-0.4563,-0.6498
-0.121,0.009,-0.046,11.9,9,-1,0,2018,5,1,18,50,8.633,-0.5199,0.3139,-0.4576,-0.6493
-0.074,-0.046,-0.022,13.3,4.7,-6.9,0,2018,5,1,18,50,8.637,-0.5207,0.3117,-0.4572,-0.65
-0.06,-0.002,-0.002,18,11.7,-18,0,2018,5,1,18,50,8.658,-0.5213,0.3081,-0.4574,-0.6512
-0.074,0.007,0.003,21.1,0.5,-25.9,0,2018,5,1,18,50,8.678,-0.5205,0.3031,-0.4575,-0.654
-0.124,-0.048,0.012,23.2,-7.8,-29.2,0,2018,5,1,18,50,8.715,-0.519,0.2984,-0.4561,-0.6583
-0.111,-0.062,-0.041,21.7,-10.2,-33.6,0,2018,5,1,18,50,8.734,-0.5169,0.294,-0.4542,-0.6632
-0.068,-0.02,-0.106,24.6,-16.7,-33.4,0,2018,5,1,18,50,8.738,-0.514,0.2901,-0.4528,-0.6682
0.006,-0.046,-0.057,28.5,-34.3,-31.1,0,2018,5,1,18,50,8.756,-0.5108,0.2872,-0.4493,-0.6742
0.118,-0.125,-0.019,29.6,-34.8,-34.7,0,2018,5,1,18,50,8.776,-0.5076,0.2849,-0.444,-0.6811
0.151,-0.108,-0.011,29,-12.7,-41.8,0,2018,5,1,18,50,8.797,-0.504,0.2805,-0.4405,-0.6878
0.112,-0.038,0.006,26.5,-0.8,-40.5,0,2018,5,1,18,50,8.833,-0.5011,0.275,-0.4394,-0.6928
0.128,0.021,0.068,23.6,-17,-31.6,0,2018,5,1,18,50,8.851,-0.4984,0.2702,-0.438,-0.6975
0.081,-0.041,0.075,18.7,-29.5,-24.7,0,2018,5,1,18,50,8.855,-0.4958,0.2681,-0.4341,-0.7026
0.02,-0.089,0.055,13.2,-37.4,-27,0,2018,5,1,18,50,8.897,-0.4925,0.2673,-0.4291,-0.7083
-0.017,-0.07,0.038,15.1,-11.3,-32.1,0,2018,5,1,18,50,8.917,-0.4893,0.266,-0.4254,-0.7132
