ax,ay,az,dpitch,droll,dyaw,heart,time_1,time_2,time_3,time_4,time_5,time_6,w,x,y,z
-0.018,0.152,0.121,-3.1,60.6,-8.3,0,2018,5,1,22,19,19.896,-0.5652,0.3975,-0.1525,0.7065
0.056,0.449,0.186,-6.9,46.5,0.1,0,2018,5,1,22,19,19.916,-0.5697,0.3908,-0.146,0.708
0.097,0.386,0.265,-7.9,8.6,4.9,0,2018,5,1,22,19,19.92,-0.571,0.3873,-0.1431,0.7094
0.126,0.342,0.254,-10.6,-29.6,16.4,0,2018,5,1,22,19,19.959,-0.5686,0.3876,-0.1448,0.7109
0.129,0.185,0.132,-12.3,-56.5,28,0,2018,5,1,22,19,19.98,-0.5625,0.3912,-0.1502,0.7126
0.106,-0.062,0.016,-15.6,-48.1,35.7,0,2018,5,1,22,19,19.985,-0.5544,0.3956,-0.1565,0.7152
0.123,-0.129,-0.072,-18.7,-17,40.3,0,2018,5,1,22,19,20.004,-0.5469,0.3975,-0.1597,0.7192
0.083,-0.113,-0.052,-18.8,12.7,42.6,0,2018,5,1,22,19,20.022,-0.5412,0.3962,-0.1586,0.7244
0.063,0.006,-0.023,-16.3,16.4,44.2,0,2018,5,1,22,19,20.044,-0.5368,0.3932,-0.1557,0.7299
-0.026,-0.022,-0.018,-13.1,-20.3,41.9,0,2018,5,1,22,19,20.064,-0.5307,0.3928,-0.1541,0.7349
-0.045,-0.104,-0.093,-6.9,-40.6,34.9,0,2018,5,1,22,19,20.084,-0.5231,0.3962,-0.1569,0.738
-0.064,-0.162,-0.164,0.1,-45.9,27.2,0,2018,5,1,22,19,20.1,-0.5159,0.4007,-0.161,0.7397
-0.058,-0.206,-0.226,8.4,-28.7,18.1,0,2018,5,1,22,19,20.12,-0.5106,0.4053,-0.164,0.7403
-0.1,-0.167,-0.222,15.6,-9.9,10.2,0,2018,5,1,22,19,20.142,-0.508,0.4088,-0.1643,0.74
-0.111,-0.145,-0.2,19.3,8.3,1.6,0,2018,5,1,22,19,20.179,-0.5078,0.4113,-0.1624,0.7392
-0.108,-0.138,-0.189,21.7,32.3,-7.1,0,2018,5,1,22,19,20.2,-0.5101,0.4121,-0.1581,0.7381
-0.089,-0.068,-0.169,22.2,59.4,-14.2,0,2018,5,1,22,19,20.204,-0.5156,0.4104,-0.151,0.7367
-0.075,0.006,-0.193,23.7,90.8,-18,0,2018,5,1,22,19,20.222,-0.5238,0.4059,-0.1404,0.7355
-0.091,0.072,-0.157,27.2,103.6,-21.3,0,2018,5,1,22,19,20.257,-0.5338,0.3998,-0.1266,0.7342
-0.071,0.129,-0.024,24.7,112.6,-21.1,0,2018,5,1,22,19,20.278,-0.5443,0.3926,-0.1116,0.7328
-0.094,0.053,0.022,21.2,109.3,-20.4,0,2018,5,1,22,19,20.286,-0.5546,0.3848,-0.0964,0.7314
-0.045,0.123,0.013,19,130.1,-18.9,0,2018,5,1,22,19,20.302,-0.5652,0.3753,-0.0796,0.7302
-0.035,0.149,0.05,18.9,109.6,-15,1023,2018,5,1,22,19,20.34,-0.5753,0.3657,-0.0632,0.7288
0.007,-0.054,0.038,25,78.2,-17.2,1023,2018,5,1,22,19,20.36,-0.5831,0.3587,-0.0496,0.7271
-0.023,-0.12,0.216,14.3,79.5,-15.3,1023,2018,5,1,22,19,20.364,-0.5903,0.3535,-0.0394,0.7245
0.094,0.368,0.516,6.9,44.8,-3.8,1023,2018,5,1,22,19,20.384,-0.5959,0.3473,-0.0299,0.7233
0.093,0.19,0.7,-12.3,-44.9,3.6,1023,2018,5,1,22,19,20.404,-0.5954,0.3476,-0.0307,0.7235
0.176,0.101,0.555,-29.4,-105.5,8.3,1023,2018,5,1,22,19,20.425,-0.5897,0.3531,-0.0426,0.725
0.179,-0.155,0.257,-42,-97.2,7.5,1023,2018,5,1,22,19,20.444,-0.5814,0.3596,-0.0593,0.7273
0.157,-0.285,0.161,-53.2,-39.5,-4.9,1023,2018,5,1,22,19,20.481,-0.5763,0.3603,-0.0727,0.7298
0.148,-0.147,0.104,-57.3,-4.5,-15.9,1023,2018,5,1,22,19,20.502,-0.5758,0.3549,-0.0814,0.7319
0.124,-0.047,-0.04,-53.7,12.3,-22.5,1023,2018,5,1,22,19,20.506,-0.5776,0.347,-0.0875,0.7336
0.069,-0.128,-0.078,-49.5,30.5,-27.9,1023,2018,5,1,22,19,20.527,-0.5815,0.3379,-0.0916,0.7343
-0.009,-0.055,-0.059,-48,68.5,-32.2,0,2018,5,1,22,19,20.547,-0.5871,0.3269,-0.0926,0.7346
0.003,0.14,-0.131,-44.6,119.6,-35.3,0,2018,5,1,22,19,20.587,-0.5958,0.3111,-0.0864,0.7353
0.035,0.151,-0.174,-37.5,129,-30.1,0,2018,5,1,22,19,20.591,-0.606,0.2919,-0.0752,0.736
0.044,0.131,-0.158,-27.7,106.9,-20,0,2018,5,1,22,19,20.607,-0.6146,0.2746,-0.0638,0.7366
-0.037,-0.047,-0.192,-22.4,96.8,-17.1,0,2018,5,1,22,19,20.625,-0.6211,0.2611,-0.0546,0.7368
-0.034,-0.026,-0.301,-12.9,106.6,-14.4,0,2018,5,1,22,19,20.645,-0.6277,0.2474,-0.0441,0.7367
-0.043,0.244,-0.27,-2.1,82.9,-5,0,2018,5,1,22,19,20.663,-0.6333,0.2354,-0.0327,0.7364
-0.101,0.092,-0.266,4,35.6,2.6,0,2018,5,1,22,19,20.703,-0.6357,0.2292,-0.0255,0.7366
-0.103,0.009,-0.184,9.2,8.8,11.1,0,2018,5,1,22,19,20.724,-0.6358,0.2274,-0.0217,0.7371
-0.178,-0.161,-0.117,12.9,-25.4,14.1,0,2018,5,1,22,19,20.728,-0.6338,0.2303,-0.0216,0.738
-0.087,-0.062,-0.166,17.5,-26.3,13.6,0,2018,5,1,22,19,20.748,-0.6312,0.2348,-0.0227,0.7388
-0.08,0.064,-0.16,25.8,-56.6,12.8,0,2018,5,1,22,19,20.769,-0.628,0.2423,-0.0251,0.739
-0.034,0.15,-0.067,30.6,-82,16.3,0,2018,5,1,22,19,20.789,-0.6234,0.2536,-0.0306,0.7389
-0.034,0.119,0.052,34.9,-119.1,19.5,0,2018,5,1,22,19,20.807,-0.6169,0.2688,-0.0392,0.7386
0.001,0.185,0.059,36.4,-144.8,23.9,0,2018,5,1,22,19,20.826,-0.6079,0.2875,-0.0512,0.7382
0.029,0.04,-0.033,45.9,-189.4,20.6,0,2018,5,1,22,19,20.847,-0.5968,0.3101,-0.0669,0.7369
-0.006,-0.013,-0.022,42.5,-210.6,21.4,0,2018,5,1,22,19,20.869,-0.5834,0.3374,-0.0876,0.7334
0.009,-0.052,-0.111,40.9,-195.2,20.1,0,2018,5,1,22,19,20.889,-0.5687,0.3641,-0.1084,0.7294
-0.053,-0.385,-0.195,32.2,-120.8,7.4,0,2018,5,1,22,19,20.907,-0.5571,0.3852,-0.125,0.7249
-0.039,-0.193,-0.078,24.7,-3.7,-0.9,0,2018,5,1,22,19,20.945,-0.5536,0.3943,-0.1293,0.7219
-0.053,-0.017,0.128,4.2,85.6,-7.2,0,2018,5,1,22,19,20.965,-0.5577,0.3918,-0.1227,0.7213
0.037,0.09,0.125,-10.1,136.1,-6.9,0,2018,5,1,22,19,20.969,-0.5665,0.3794,-0.1087,0.7233
0.062,0.112,0.124,-14.6,134,-5.2,0,2018,5,1,22,19,21.007,-0.5759,0.364,-0.0929,0.7259
0.094,-0.002,0.167,-9,103.4,-7.2,0,2018,5,1,22,19,21.011,-0.5841,0.3499,-0.0792,0.728
0.095,-0.149,0.074,0,68.3,-8.7,0,2018,5,1,22,19,21.028,-0.5904,0.3408,-0.07,0.7282
0.126,0.208,0.066,1.3,58.6,3.9,0,2018,5,1,22,19,21.063,-0.5948,0.3338,-0.0618,0.7286
0.087,0.308,0.146,-0.3,-1.3,18.8,1023,2018,5,1,22,19,21.085,-0.5949,0.331,-0.0573,0.7301
0.061,0.063,0.113,-1.3,-40.5,20.3,1023,2018,5,1,22,19,21.089,-0.5909,0.3336,-0.0596,0.732
0.007,-0.053,0.073,3.9,-40.9,18.2,1023,2018,5,1,22,19,21.108,-0.5861,0.3378,-0.064,0.7335
0.002,-0.163,0.042,7.9,-39.3,10.6,1023,2018,5,1,22,19,21.128,-0.5821,0.3427,-0.068,0.7341
0.004,-0.078,0.101,8.1,-27.4,10.1,1023,2018,5,1,22,19,21.167,-0.5793,0.3475,-0.0711,0.7338
0.046,0.1,0.169,-1,-56.8,16.3,1023,2018,5,1,22,19,21.188,-0.5751,0.3519,-0.0751,0.7345
0.09,0.04,0.066,-1.4,-73.2,15.7,1023,2018,5,1,22,19,21.192,-0.569,0.358,-0.0827,0.7356
0.04,0.053,0.044,-2.4,-80.6,15,1023,2018,5,1,22,19,21.213,-0.5624,0.365,-0.0921,0.7361
0.037,0.013,-0.088,4.5,-91,13.7,1023,2018,5,1,22,19,21.232,-0.5548,0.3739,-0.102,0.7361
-0.053,-0.044,-0.055,-2.7,-67,9.9,1023,2018,5,1,22,19,21.251,-0.5478,0.3827,-0.1114,0.7354
-0.119,-0.097,0.008,-14.4,-33.1,5.8,1023,2018,5,1,22,19,21.289,-0.5431,0.3874,-0.1182,0.7354
-0.145,-0.111,0.041,-22.6,-14.2,1.7,0,2018,5,1,22,19,21.309,-0.5406,0.3879,-0.1223,0.7363
-0.118,0.031,0.025,-31.3,-6,0.8,0,2018,5,1,22,19,21.313,-0.539,0.3856,-0.1252,0.7382
-0.099,-0.022,-0.056,-26.4,-38.1,-5.7,0,2018,5,1,22,19,21.33,-0.537,0.3844,-0.1301,0.7395
-0.11,-0.064,-0.083,-27.1,-48.8,-9.2,0,2018,5,1,22,19,21.349,-0.534,0.3853,-0.1393,0.7394
-0.011,-0.119,-0.145,-20.4,-29.1,-18.8,0,2018,5,1,22,19,21.369,-0.5327,0.3855,-0.1475,0.7387
0.036,-0.166,-0.06,-19.9,6.8,-24.6,0,2018,5,1,22,19,21.409,-0.5343,0.3835,-0.1525,0.7376
0.152,0.061,0.078,-21.8,42.7,-22.8,0,2018,5,1,22,19,21.429,-0.5392,0.3771,-0.1524,0.7374
0.223,0.048,0.138,-22.6,21.2,-22.3,0,2018,5,1,22,19,21.433,-0.5438,0.3704,-0.1517,0.7375
0.248,-0.034,0.114,-23.4,-4,-19.7,0,2018,5,1,22,19,21.472,-0.5464,0.3663,-0.1547,0.737
0.234,-0.02,0.132,-23.7,-10.9,-16.3,0,2018,5,1,22,19,21.49,-0.5478,0.3635,-0.1592,0.7364
0.225,-0.016,0.141,-28.9,-8.1,-14.4,0,2018,5,1,22,19,21.494,-0.5485,0.3606,-0.1641,0.7363
0.216,0.021,0.063,-30.8,-4.2,-11.1,0,2018,5,1,22,19,21.509,-0.5492,0.3566,-0.1686,0.7366
0.173,-0.004,-0.012,-25.8,-17.7,-9.1,0,2018,5,1,22,19,21.544,-0.5494,0.3536,-0.1736,0.7368
0.13,0.09,-0.004,-23.8,-19.8,-2.7,0,2018,5,1,22,19,21.565,-0.5486,0.3515,-0.1791,0.737
0.083,0.081,-0.044,-21.7,-24.6,1.5,0,2018,5,1,22,19,21.573,-0.547,0.3502,-0.1844,0.7375
0.064,0.076,-0.081,-20.1,-18.4,7.2,0,2018,5,1,22,19,21.591,-0.5447,0.3495,-0.1892,0.7384
0.036,0.082,-0.098,-15.8,-14.4,11.8,0,2018,5,1,22,19,21.629,-0.5422,0.3489,-0.1925,0.7397
0,0.042,-0.112,-12,-7.9,15.5,0,2018,5,1,22,19,21.649,-0.5393,0.349,-0.1945,0.7412
-0.046,0.017,-0.088,-9,7.5,16.3,0,2018,5,1,22,19,21.653,-0.5367,0.3489,-0.1945,0.7431
-0.068,0.034,-0.113,-5.6,11.1,15.2,0,2018,5,1,22,19,21.689,-0.5349,0.3481,-0.1927,0.7452
-0.092,0.035,-0.159,3.3,-4.8,11.1,0,2018,5,1,22,19,21.71,-0.5337,0.3478,-0.1916,0.7466
-0.136,-0.059,-0.16,10.3,-14,5.5,0,2018,5,1,22,19,21.714,-0.5323,0.3501,-0.192,0.7464
-0.178,-0.091,-0.143,16.3,-6.5,-4.3,0,2018,5,1,22,19,21.729,-0.5322,0.3528,-0.1923,0.7451
-0.173,-0.076,-0.129,20,2.8,-14.1,0,2018,5,1,22,19,21.769,-0.5343,0.3549,-0.1915,0.7428
-0.163,0.012,-0.11,22.8,7.8,-20.2,0,2018,5,1,22,19,21.79,-0.5378,0.3563,-0.1899,0.74
-0.127,0.04,-0.157,29.2,-6,-25.3,0,2018,5,1,22,19,21.794,-0.5422,0.3584,-0.1888,0.736
-0.118,-0.025,-0.085,30.2,-8.1,-26.1,1023,2018,5,1,22,19,21.812,-0.5461,0.3624,-0.189,0.7311
-0.034,-0.042,-0.113,27,20.8,-21.6,1023,2018,5,1,22,19,21.834,-0.5502,0.3655,-0.1872,0.7269
0.01,0.417,0.107,22.4,42.6,-8,1023,2018,5,1,22,19,21.853,-0.5556,0.3643,-0.1807,0.7251
0.041,0.156,0.111,18.1,12.5,-5.5,1023,2018,5,1,22,19,21.875,-0.559,0.3641,-0.1762,0.7237
0.113,0.076,0.045,21.7,14.6,1,1023,2018,5,1,22,19,21.911,-0.561,0.3652,-0.173,0.7224
0.161,0.157,0.143,24.2,1,10.3,1023,2018,5,1,22,19,21.93,-0.562,0.3671,-0.1692,0.7215
0.164,0.095,0.222,20,-14,16.3,1023,2018,5,1,22,19,21.934,-0.5606,0.371,-0.1673,0.721
0.209,0.158,0.288,12,-26.6,27.4,1023,2018,5,1,22,19,21.974,-0.5573,0.3754,-0.1669,0.7214
0.165,0.078,0.354,4,-53.7,34.8,1023,2018,5,1,22,19,21.994,-0.551,0.3813,-0.1693,0.7226
0.136,0.01,0.358,-8.8,-49.8,39.7,1023,2018,5,1,22,19,21.998,-0.5426,0.3872,-0.1739,0.7247
0.122,0.071,0.305,-22.3,-43.9,44.1,1023,2018,5,1,22,19,22.015,-0.5339,0.3905,-0.1784,0.7283
0.1,0.017,0.174,-27.3,-57.9,42.7,1023,2018,5,1,22,19,22.033,-0.5243,0.3932,-0.1843,0.7324
0.078,-0.103,0.131,-29.2,-56.9,37.9,0,2018,5,1,22,19,22.054,-0.5142,0.3962,-0.192,0.7359
0.071,-0.146,0.087,-28.7,-41.2,29.2,0,2018,5,1,22,19,22.092,-0.5063,0.3972,-0.1992,0.739
0.115,-0.115,-0.007,-24.7,-32.4,24,0,2018,5,1,22,19,22.112,-0.4999,0.3975,-0.2046,0.7417
0.12,-0.123,-0.09,-18.4,-41.2,21.9,0,2018,5,1,22,19,22.116,-0.4938,0.3986,-0.2097,0.7437
0.069,-0.253,-0.178,-8.8,-44.8,13.2,0,2018,5,1,22,19,22.138,-0.4881,0.4012,-0.2156,0.7444
0.014,-0.418,-0.308,0.7,-13.2,-1.8,0,2018,5,1,22,19,22.159,-0.485,0.4035,-0.2196,0.744
-0.005,-0.404,-0.358,12.6,36.2,-18.5,0,2018,5,1,22,19,22.178,-0.4879,0.4027,-0.218,0.743
-0.011,-0.264,-0.297,22,59.3,-31.2,0,2018,5,1,22,19,22.196,-0.4958,0.3996,-0.2117,0.7413
-0.028,-0.201,-0.149,23.9,54.6,-41.7,0,2018,5,1,22,19,22.239,-0.5056,0.3961,-0.2047,0.7385
-0.04,-0.08,-0.074,21.8,36.3,-49.4,0,2018,5,1,22,19,22.243,-0.5157,0.3936,-0.2003,0.734
-0.029,-0.013,-0.078,17.6,26.2,-54.9,0,2018,5,1,22,19,22.259,-0.5249,0.3925,-0.1986,0.7286
-0.024,0.058,-0.114,17.3,31.7,-60.1,0,2018,5,1,22,19,22.275,-0.5345,0.3909,-0.1971,0.7228
-0.03,0,-0.052,15.2,49,-63.7,0,2018,5,1,22,19,22.313,-0.5452,0.3878,-0.1944,0.7172
-0.07,0.068,0.09,6.9,118.2,-53.8,0,2018,5,1,22,19,22.333,-0.5584,0.3795,-0.187,0.7135
-0.117,0.605,0.319,-22.6,172.1,-23.2,0,2018,5,1,22,19,22.338,-0.5727,0.3616,-0.1713,0.7154
0.011,0.902,0.284,-11.9,19.2,-22,0,2018,5,1,22,19,22.358,-0.5823,0.3465,-0.1598,0.7177
-0.131,0.11,0.042,-6.3,-99.3,-13,0,2018,5,1,22,19,22.377,-0.5808,0.3513,-0.17,0.7143
-0.15,0.147,-0.026,-6.7,-84.9,-0.7,0,2018,5,1,22,19,22.416,-0.5756,0.3598,-0.1829,0.711
-0.122,0.163,-0.058,-11.7,-28.2,11,0,2018,5,1,22,19,22.435,-0.5711,0.3645,-0.1908,0.7102
-0.125,0.126,-0.126,-13.1,9.3,14.2,0,2018,5,1,22,19,22.439,-0.5691,0.3636,-0.1918,0.712
-0.095,0.139,-0.135,-7.4,8.7,16.5,0,2018,5,1,22,19,22.455,-0.5677,0.3614,-0.1904,0.7146
-0.069,0.098,-0.089,2.4,-24.9,18.6,0,2018,5,1,22,19,22.492,-0.5651,0.3627,-0.1905,0.716
-0.053,0.083,0.001,8.6,-61.5,20.7,0,2018,5,1,22,19,22.513,-0.5596,0.3689,-0.193,0.7165
-0.013,-0.057,-0.018,10.8,-83.5,21.8,0,2018,5,1,22,19,22.516,-0.5522,0.3786,-0.1996,0.7154
0.042,-0.156,-0.139,12,-61.2,20.1,0,2018,5,1,22,19,22.554,-0.5449,0.3883,-0.2068,0.7137
0.087,-0.156,-0.123,15.3,-14,13.2,1023,2018,5,1,22,19,22.576,-0.541,0.394,-0.2091,0.7129
0.128,-0.068,0.021,18.3,19.6,7,1023,2018,5,1,22,19,22.579,-0.541,0.3959,-0.206,0.7127
0.198,0.054,0.183,14.4,21.8,8.5,1023,2018,5,1,22,19,22.6,-0.5424,0.396,-0.201,0.713
0.245,0.092,0.262,7.3,3.4,13.9,1023,2018,5,1,22,19,22.619,-0.5425,0.3964,-0.1978,0.7137
0.293,0.116,0.308,-2.6,-20.4,23.9,1023,2018,5,1,22,19,22.656,-0.5397,0.3981,-0.1975,0.7149
0.303,0.002,0.268,-11.9,-27.3,32.6,1023,2018,5,1,22,19,22.676,-0.534,0.4007,-0.1996,0.7171
0.302,-0.033,0.241,-18.1,-6.6,37.2,1023,2018,5,1,22,19,22.681,-0.528,0.4015,-0.2008,0.7208
0.249,-0.082,0.25,-21.7,14.9,36.9,1023,2018,5,1,22,19,22.72,-0.5233,0.3995,-0.1996,0.7256
0.184,-0.09,0.191,-24.1,21.8,36,1023,2018,5,1,22,19,22.725,-0.5194,0.396,-0.1968,0.7311
0.142,-0.098,0.103,-24.4,24.5,33.9,1023,2018,5,1,22,19,22.742,-0.5159,0.3918,-0.1936,0.7366
0.106,-0.099,0.02,-21.3,18.3,31.1,0,2018,5,1,22,19,22.758,-0.5127,0.3878,-0.1908,0.7417
0.064,-0.084,-0.043,-17.3,7.5,28.8,0,2018,5,1,22,19,22.795,-0.5092,0.3851,-0.1893,0.7459
0.005,-0.128,-0.097,-12.3,3.7,24.5,0,2018,5,1,22,19,22.815,-0.5057,0.384,-0.1888,0.749
-0.057,-0.198,-0.152,-7.6,14.4,17,0,2018,5,1,22,19,22.819,-0.5036,0.3825,-0.1874,0.7516
-0.101,-0.187,-0.172,-2,22.2,7.8,0,2018,5,1,22,19,22.857,-0.5034,0.3803,-0.1845,0.7535
-0.126,-0.183,-0.211,5.4,11.5,-4.3,0,2018,5,1,22,19,22.878,-0.5047,0.379,-0.1821,0.7539
-0.135,-0.162,-0.2,10.3,8.4,-15.9,0,2018,5,1,22,19,22.883,-0.507,0.3788,-0.181,0.7526
-0.144,-0.145,-0.16,13.5,14,-26.9,0,2018,5,1,22,19,22.903,-0.5112,0.3787,-0.1802,0.7501
-0.134,-0.027,-0.169,16.3,13.1,-36.2,0,2018,5,1,22,19,22.923,-0.5171,0.3781,-0.1789,0.7466
-0.076,0.009,-0.121,14.8,6,-39.1,0,2018,5,1,22,19,22.939,-0.5231,0.3782,-0.179,0.7423
0,0.085,-0.049,12.9,12,-39.2,0,2018,5,1,22,19,22.976,-0.5288,0.3786,-0.1786,0.7382
0.094,0.142,0.059,11,17.8,-37,0,2018,5,1,22,19,22.995,-0.5351,0.3772,-0.1775,0.7346
0.157,0.247,0.144,11.8,14.5,-32.7,0,2018,5,1,22,19,22.999,-0.5413,0.3759,-0.1766,0.731
0.191,0.237,0.156,12.9,4,-25.3,0,2018,5,1,22,19,23.039,-0.5463,0.3756,-0.1764,0.7275
0.223,0.294,0.153,12.8,5.1,-13.1,0,2018,5,1,22,19,23.062,-0.5495,0.3762,-0.1761,0.7248
0.228,0.325,0.19,13.6,8.6,0.5,0,2018,5,1,22,19,23.066,-0.5513,0.3769,-0.1744,0.7235
0.173,0.257,0.186,13.4,8.9,14.2,0,2018,5,1,22,19,23.084,-0.5514,0.3779,-0.1716,0.7235
0.047,0.095,0.188,10.9,16.8,22.8,0,2018,5,1,22,19,23.12,-0.5503,0.3788,-0.1677,0.7248
-0.022,-0.007,0.143,8.1,32.1,25.6,0,2018,5,1,22,19,23.142,-0.5492,0.378,-0.1616,0.7275
-0.068,-0.07,0.093,5.6,42.3,21.8,0,2018,5,1,22,19,23.146,-0.5488,0.3757,-0.1541,0.7306
-0.082,-0.077,0.02,6.9,39,15.2,0,2018,5,1,22,19,23.162,-0.5492,0.3734,-0.1465,0.733
-0.094,-0.146,0.013,8.6,4.6,7.2,0,2018,5,1,22,19,23.182,-0.5492,0.3733,-0.142,0.7339
-0.105,-0.243,0.125,-1.3,-0.6,-0.7,0,2018,5,1,22,19,23.201,-0.5487,0.375,-0.1422,0.7334
-0.056,-0.069,0.111,-9,-14.2,-3.3,0,2018,5,1,22,19,23.238,-0.5486,0.3748,-0.1432,0.7334
0.036,0.01,-0.088,-7.3,-50.2,-4.7,0,2018,5,1,22,19,23.259,-0.5467,0.3769,-0.1485,0.7327
0.054,0.128,-0.151,-0.6,-84.7,-5.9,1023,2018,5,1,22,19,23.263,-0.5425,0.3834,-0.1578,0.7305
0.096,0.049,-0.067,4.2,-107.9,-12.8,1023,2018,5,1,22,19,23.285,-0.537,0.3928,-0.1703,0.7267
0.099,-0.218,0.066,-5.4,-103.3,-15.9,1023,2018,5,1,22,19,23.306,-0.5314,0.4027,-0.1856,0.7217
0.206,-0.145,0.06,-17.6,-41.5,-12.5,1023,2018,5,1,22,19,23.342,-0.528,0.4071,-0.1971,0.7186
0.228,0.014,0.043,-24.1,-8.5,-7.6,1023,2018,5,1,22,19,23.362,-0.5274,0.4058,-0.2023,0.7184
0.243,0.056,0.058,-27.1,-8.5,-3.3,1023,2018,5,1,22,19,23.366,-0.5268,0.4029,-0.2063,0.7193
0.229,0.055,0.007,-24.2,-12.1,-0.2,1023,2018,5,1,22,19,23.385,-0.5258,0.4003,-0.2102,0.7204
0.17,-0.122,-0.088,-15,-9.3,-1.9,1023,2018,5,1,22,19,23.407,-0.5247,0.3988,-0.2139,0.7209
0.102,-0.143,-0.102,-9.5,24.7,-1.6,1023,2018,5,1,22,19,23.422,-0.5252,0.3963,-0.2144,0.7217
0.024,-0.087,-0.06,-2.7,57.8,-5.2,1023,2018,5,1,22,19,23.459,-0.5288,0.3915,-0.2101,0.723
-0.008,0.005,-0.046,3.8,58.1,-9.6,1023,2018,5,1,22,19,23.48,-0.5339,0.3861,-0.2031,0.7242
-0.031,0.043,-0.058,11.1,37.1,-14.1,0,2018,5,1,22,19,23.484,-0.5387,0.3828,-0.1968,0.7241
-0.044,0.052,-0.049,17.8,21.4,-16.7,0,2018,5,1,22,19,23.521,-0.5429,0.382,-0.1922,0.7227
-0.096,0.037,-0.029,15.8,20.3,-14.4,0,2018,5,1,22,19,23.542,-0.5464,0.3828,-0.1885,0.7206
-0.092,0.157,0.07,8.6,31.5,-9.1,0,2018,5,1,22,19,23.544,-0.5502,0.3815,-0.1844,0.7194
-0.076,0.214,0.099,0.4,23.7,-4.7,0,2018,5,1,22,19,23.58,-0.5534,0.3787,-0.1809,0.7193
-0.015,0.222,0.089,-2.4,7,0.3,0,2018,5,1,22,19,23.6,-0.5549,0.3769,-0.1795,0.7195
-0.029,0.14,0.068,0.1,-7.4,6.3,0,2018,5,1,22,19,23.602,-0.5547,0.3768,-0.1799,0.7196
-0.049,0.213,0.146,2,-25.4,13.6,0,2018,5,1,22,19,23.644,-0.5528,0.3787,-0.181,0.7197
0.033,0.177,0.023,1.1,-30.1,20,0,2018,5,1,22,19,23.664,-0.5488,0.3823,-0.1838,0.7202
0.026,0.177,-0.003,1.5,-30.1,26.6,0,2018,5,1,22,19,23.668,-0.5445,0.3857,-0.1856,0.7212
0.053,0.107,0.051,-3,-17.9,33.9,0,2018,5,1,22,19,23.687,-0.5391,0.3885,-0.1861,0.7236
0.043,0.096,0.081,-8.1,-15.7,37.8,0,2018,5,1,22,19,23.706,-0.5335,0.39,-0.186,0.727
0.052,0.011,0.055,-10.4,-28.5,37.4,0,2018,5,1,22,19,23.725,-0.5272,0.3913,-0.1865,0.7307
0.034,-0.069,0.022,-11.8,-36.9,33.6,0,2018,5,1,22,19,23.76,-0.5202,0.3939,-0.1895,0.7336
0.036,-0.11,-0.022,-10.8,-40.4,27.5,0,2018,5,1,22,19,23.78,-0.5134,0.397,-0.1937,0.7356
0.055,-0.199,-0.038,-13.7,-37,21.9,0,2018,5,1,22,19,23.787,-0.5069,0.4004,-0.1988,0.7369
0.112,-0.191,-0.002,-13.1,-25.6,14.5,0,2018,5,1,22,19,23.823,-0.5023,0.4018,-0.2028,0.7382
0.142,-0.193,0,-12.3,-15.9,8.6,0,2018,5,1,22,19,23.844,-0.4991,0.4022,-0.2059,0.7393
0.17,-0.192,0.013,-8.5,-7.6,1.8,0,2018,5,1,22,19,23.849,-0.4975,0.402,-0.208,0.7399
0.175,-0.14,0.034,-4,-2,-1,0,2018,5,1,22,19,23.864,-0.4973,0.4013,-0.2093,0.74
0.191,-0.055,0.014,0.5,-18.9,-2.7,0,2018,5,1,22,19,23.9,-0.497,0.4018,-0.2108,0.7395
0.224,-0.072,-0.094,5.9,-39.5,-3.5,0,2018,5,1,22,19,23.92,-0.4955,0.4047,-0.2148,0.7378
0.214,-0.202,-0.175,14.6,-18.8,-7.5,0,2018,5,1,22,19,23.925,-0.4945,0.4086,-0.2187,0.7352
0.145,-0.155,-0.071,21.5,25.1,-14.7,0,2018,5,1,22,19,23.964,-0.4973,0.41,-0.2173,0.7329
0.109,-0.016,0.012,24.9,45.5,-19.4,1023,2018,5,1,22,19,23.984,-0.5035,0.4088,-0.212,0.7309
0.086,0.168,0.148,23.3,49.2,-17.5,1023,2018,5,1,22,19,23.988,-0.5105,0.4067,-0.205,0.7292
0.072,0.418,0.351,14.5,16.6,-3.5,1023,2018,5,1,22,19,24.029,-0.5154,0.4053,-0.1993,0.7281
0.131,0.551,0.301,8.7,-0.8,13.3,1023,2018,5,1,22,19,24.046,-0.5159,0.4056,-0.1971,0.7282
-0.03,0.229,0.324,0.5,-36.2,22.8,1023,2018,5,1,22,19,24.051,-0.5121,0.4091,-0.1989,0.7284
-0.059,0.196,0.314,-3.8,-30.6,24.5,1023,2018,5,1,22,19,24.089,-0.5068,0.4124,-0.2014,0.7296
-0.122,0.158,0.319,-11,-52.6,25.3,1023,2018,5,1,22,19,24.093,-0.5005,0.4159,-0.2056,0.7308
-0.107,0.176,0.218,-10.4,-67.1,22.9,1023,2018,5,1,22,19,24.109,-0.4931,0.4205,-0.2128,0.7312
-0.065,0.177,0.089,-12.1,-75.9,26.5,1023,2018,5,1,22,19,24.146,-0.4842,0.426,-0.2215,0.7313
-0.093,-0.028,0.12,-20.5,-59.5,26.2,1023,2018,5,1,22,19,24.167,-0.475,0.431,-0.2291,0.7321
-0.112,-0.071,0.385,-44.5,-31.8,29,1023,2018,5,1,22,19,24.171,-0.467,0.4314,-0.2351,0.7351
-0.119,-0.03,0.242,-78.8,-4.5,34.7,0,2018,5,1,22,19,24.191,-0.4591,0.4263,-0.2405,0.7413
0.044,-0.11,0.286,-120.4,55,42.4,0,2018,5,1,22,19,24.211,-0.4522,0.412,-0.2416,0.7531
0.137,0.069,0.34,-129.9,60.4,54.4,0,2018,5,1,22,19,24.23,-0.4454,0.3917,-0.2402,0.7683
0.042,0.019,-0.077,-106.2,0.6,51.2,0,2018,5,1,22,19,24.267,-0.4357,0.3751,-0.2412,0.7818
0.072,-0.496,-0.515,-70.1,-27.6,28.6,0,2018,5,1,22,19,24.288,-0.4253,0.3667,-0.2488,0.789
0.054,-0.437,-0.629,-40.6,42,10.1,0,2018,5,1,22,19,24.292,-0.4212,0.3595,-0.2508,0.7939
0.051,-0.24,-0.431,-26.8,58.4,-1,0,2018,5,1,22,19,24.312,-0.4232,0.3508,-0.2452,0.7984
0.036,-0.173,-0.336,-19.3,26.8,-8.4,0,2018,5,1,22,19,24.331,-0.4259,0.3442,-0.2415,0.801
0.039,-0.219,-0.411,-8.3,-0.2,-17.1,0,2018,5,1,22,19,24.351,-0.428,0.3408,-0.2419,0.8012
0.047,-0.173,-0.381,3.5,-5.4,-23.7,0,2018,5,1,22,19,24.369,-0.4306,0.34,-0.2439,0.7996
0.067,-0.08,-0.28,11.9,-2.5,-27.6,0,2018,5,1,22,19,24.39,-0.4349,0.3401,-0.2456,0.7967
0.072,-0.004,-0.159,16.7,-8.1,-27.5,0,2018,5,1,22,19,24.412,-0.4394,0.3413,-0.247,0.7933
0.065,0.033,-0.088,18.7,-16.7,-25.5,0,2018,5,1,22,19,24.43,-0.4433,0.344,-0.2494,0.7892
0.053,0.037,-0.063,19.7,-24.5,-22.9,0,2018,5,1,22,19,24.449,-0.4465,0.3473,-0.2525,0.7849
0.053,0.02,-0.075,21.7,-27.1,-21.1,0,2018,5,1,22,19,24.491,-0.4488,0.3515,-0.2558,0.7806
0.045,-0.059,-0.102,24.5,-19,-21,0,2018,5,1,22,19,24.495,-0.4512,0.3561,-0.259,0.7761
0.028,-0.051,-0.062,27.2,-3.2,-21.8,0,2018,5,1,22,19,24.511,-0.4548,0.36,-0.2605,0.7717
0.055,0.006,-0.018,31.5,-4.5,-23.9,0,2018,5,1,22,19,24.548,-0.4593,0.3631,-0.2599,0.7677
0.068,0.002,0.03,35.4,-11.3,-23.9,0,2018,5,1,22,19,24.568,-0.4638,0.367,-0.2598,0.7632
0.12,0.056,0.024,40.1,-17.7,-21.9,0,2018,5,1,22,19,24.573,-0.4681,0.3716,-0.2601,0.7582
0.118,0.006,-0.003,45.3,-22.7,-18,0,2018,5,1,22,19,24.587,-0.472,0.3776,-0.2613,0.7524
0.134,0.076,0.037,49.4,-24,-12.3,0,2018,5,1,22,19,24.626,-0.4751,0.3848,-0.2616,0.7467
0.125,0.129,0.163,47.8,-29.8,-6.3,0,2018,5,1,22,19,24.646,-0.4771,0.3928,-0.2617,0.7412
0.124,0.196,0.196,43.5,-37.9,3.4,0,2018,5,1,22,19,24.653,-0.4775,0.4012,-0.2625,0.7361
0.099,0.219,0.213,39.3,-78.1,14.2,1023,2018,5,1,22,19,24.671,-0.4744,0.4117,-0.2659,0.7311
0.04,0.206,0.211,30.6,-109.2,26.9,1023,2018,5,1,22,19,24.692,-0.4667,0.4249,-0.2739,0.7256
-0.036,0.077,0.116,21.7,-111.8,32.4,1023,2018,5,1,22,19,24.73,-0.4557,0.4387,-0.284,0.7204
-0.058,-0.042,0.01,14.4,-83.4,29.1,1023,2018,5,1,22,19,24.752,-0.445,0.4503,-0.2918,0.7169
-0.084,-0.117,-0.076,17.8,-57.9,21.3,1023,2018,5,1,22,19,24.756,-0.437,0.4598,-0.2973,0.7135
-0.225,-0.119,-0.035,11.6,-18.5,16.3,1023,2018,5,1,22,19,24.773,-0.4325,0.4656,-0.2995,0.7115
-0.245,0.002,0.174,6.1,13.3,3.2,1023,2018,5,1,22,19,24.816,-0.432,0.4674,-0.2979,0.7113
-0.237,0.117,0.437,-5.7,2.7,-5.2,1023,2018,5,1,22,19,24.82,-0.4336,0.466,-0.2966,0.7118
-0.195,0.248,0.306,-12.9,-52.4,-7.2,1023,2018,5,1,22,19,24.835,-0.4324,0.4662,-0.3014,0.7104
-0.147,0.249,0.127,-19.6,-80.8,4,1023,2018,5,1,22,19,24.856,-0.4261,0.4697,-0.3119,0.7074
-0.135,-0.024,0.354,-46.9,-41.6,13.9,1023,2018,5,1,22,19,24.876,-0.4181,0.4709,-0.3216,0.707
0.078,0.114,0.308,-66.3,-4.9,17,1023,2018,5,1,22,19,24.894,-0.4117,0.4657,-0.327,0.7117
0.326,0.121,0.073,-59.3,-34.9,20.1,0,2018,5,1,22,19,24.936,-0.405,0.4596,-0.3322,0.717
0.449,-0.1,-0.149,-40.2,-47,24.9,0,2018,5,1,22,19,24.939,-0.3955,0.458,-0.3401,0.7197
0.449,-0.181,-0.249,-24.3,-19,26.8,0,2018,5,1,22,19,24.953,-0.388,0.4577,-0.3442,0.722
0.383,-0.222,-0.212,-13.1,-6,21.7,0,2018,5,1,22,19,24.99,-0.383,0.4577,-0.3448,0.7244
0.337,-0.317,-0.205,-4.3,-8.1,11.3,0,2018,5,1,22,19,25.013,-0.3801,0.458,-0.345,0.7256
0.32,-0.286,-0.195,4.1,-9.8,4.7,0,2018,5,1,22,19,25.016,-0.3789,0.459,-0.3456,0.7254
0.308,-0.312,-0.208,12.6,-17.9,-3.4,0,2018,5,1,22,19,25.034,-0.3782,0.4611,-0.3468,0.7238
0.28,-0.278,-0.204,20,-17.6,-9.6,0,2018,5,1,22,19,25.055,-0.3791,0.4638,-0.3487,0.7206
0.21,-0.258,-0.189,25.7,-8.8,-14.7,0,2018,5,1,22,19,25.092,-0.3813,0.4668,-0.3501,0.7169
0.126,-0.202,-0.082,28.6,10.3,-19.7,0,2018,5,1,22,19,25.096,-0.3857,0.469,-0.3498,0.7133
0.069,-0.061,0.01,28.9,14.9,-21.6,0,2018,5,1,22,19,25.114,-0.3915,0.4703,-0.348,0.7101
0.038,0.018,0.052,26.4,12.2,-20,0,2018,5,1,22,19,25.154,-0.397,0.4713,-0.3459,0.7074
0.049,0.003,0.053,24,18.4,-17.5,0,2018,5,1,22,19,25.174,-0.4021,0.472,-0.3433,0.7053
0.037,-0.029,0.057,21.8,42.7,-14.9,0,2018,5,1,22,19,25.179,-0.4084,0.4714,-0.3392,0.7041
0.011,0.006,0.094,20.6,73.7,-16,0,2018,5,1,22,19,25.198,-0.4167,0.4684,-0.3309,0.7052
0.046,0.079,0.13,17.9,81.5,-15,0,2018,5,1,22,19,25.215,-0.4266,0.4636,-0.3204,0.7073
0.116,0.131,0.14,17.2,74.5,-9.7,0,2018,5,1,22,19,25.257,-0.4359,0.459,-0.3105,0.7091
0.161,0.118,0.079,18.1,66.2,-2.8,0,2018,5,1,22,19,25.261,-0.4435,0.4553,-0.3013,0.7107
0.096,-0.028,0.031,18.6,70.2,2.1,0,2018,5,1,22,19,25.277,-0.45,0.4524,-0.2917,0.7124
-0.031,0.002,0.17,13.6,106.4,6.2,0,2018,5,1,22,19,25.294,-0.4577,0.4471,-0.2787,0.716
-0.168,0.122,0.333,-0.9,121.5,6.4,0,2018,5,1,22,19,25.331,-0.4666,0.4388,-0.263,0.7214
-0.156,0.328,0.368,-13.2,96.1,11.3,0,2018,5,1,22,19,25.35,-0.4739,0.4287,-0.2488,0.7277
-0.137,0.549,0.372,-19.3,14.7,18.2,1023,2018,5,1,22,19,25.354,-0.4756,0.4223,-0.2421,0.7326
-0.352,0.397,0.207,-27.1,-76.2,22.1,1023,2018,5,1,22,19,25.392,-0.4696,0.4236,-0.2471,0.734
-0.247,-0.181,0.103,-55.9,-8.3,18.9,1023,2018,5,1,22,19,25.413,-0.4607,0.4238,-0.256,0.7365
0.137,0.323,0.083,-66.8,95.5,23.4,1023,2018,5,1,22,19,25.417,-0.4591,0.4121,-0.2518,0.7455
0.236,0.612,0.182,-44,18.4,35.3,1023,2018,5,1,22,19,25.439,-0.4583,0.4,-0.2451,0.7547
0.06,-0.076,-0.166,-25,-128.9,42.4,1023,2018,5,1,22,19,25.461,-0.4468,0.4031,-0.2542,0.757
0.001,-0.872,-0.638,-22.2,-23.8,29.4,1023,2018,5,1,22,19,25.479,-0.4348,0.4086,-0.2658,0.7571
0.116,-0.329,-0.394,-12.3,81.7,8.6,1023,2018,5,1,22,19,25.498,-0.4354,0.4034,-0.2595,0.7617
0.133,-0.278,-0.16,-5.1,22.6,-6,1023,2018,5,1,22,19,25.537,-0.4392,0.3979,-0.2529,0.7646
0.145,-0.378,-0.254,1,-1.5,-16.1,1023,2018,5,1,22,19,25.557,-0.4412,0.3967,-0.2536,0.7639
0.11,-0.231,-0.175,7.1,16.7,-24.4,1023,2018,5,1,22,19,25.561,-0.4449,0.3957,-0.2538,0.7621
0.066,-0.023,-0.004,10,19.2,-26.9,0,2018,5,1,22,19,25.599,-0.4503,0.3942,-0.2523,0.7602
0.048,0.087,0.103,8.4,4.7,-23.5,0,2018,5,1,22,19,25.603,-0.4552,0.3929,-0.2511,0.7584
0.04,0.138,0.137,5.2,-5.2,-18.9,0,2018,5,1,22,19,25.619,-0.4584,0.3929,-0.2523,0.7561
0.049,0.144,0.115,1.9,-8.5,-14.7,0,2018,5,1,22,19,25.655,-0.4604,0.3932,-0.2543,0.754
0.028,0.125,0.083,0.9,-5.8,-10.9,0,2018,5,1,22,19,25.676,-0.4619,0.3933,-0.2561,0.7525
0.021,0.07,0.021,-0.6,6.4,-8,0,2018,5,1,22,19,25.68,-0.4633,0.3926,-0.2559,0.752
0.035,0.076,0.009,-0.6,19.3,-6.4,0,2018,5,1,22,19,25.702,-0.4655,0.3909,-0.2538,0.7523
0.077,0.056,0.006,1.2,25.4,-4.9,0,2018,5,1,22,19,25.722,-0.468,0.3885,-0.2506,0.753
0.13,-0.024,-0.048,6.8,30.1,-5.9,0,2018,5,1,22,19,25.74,-0.4712,0.3859,-0.2469,0.7536
0.1,-0.096,-0.035,12.8,27,-6.4,0,2018,5,1,22,19,25.762,-0.4747,0.3848,-0.2433,0.7531
0.094,-0.042,-0.036,15.4,32.9,-4.5,0,2018,5,1,22,19,25.782,-0.4784,0.3837,-0.2388,0.7527
0.087,-0.062,-0.01,15.6,28.6,-4.3,0,2018,5,1,22,19,25.801,-0.4821,0.383,-0.2342,0.7522
0.104,-0.06,0.026,16.2,21.8,-6.7,0,2018,5,1,22,19,25.819,-0.4855,0.3825,-0.2304,0.7514
0.099,-0.051,0.076,15.6,18.7,-9,0,2018,5,1,22,19,25.84,-0.4889,0.3821,-0.2272,0.7505
0.054,-0.027,0.133,14,12.4,-9.1,0,2018,5,1,22,19,25.86,-0.4924,0.3816,-0.2244,0.7493
0.047,0.075,0.166,10.1,6,-5.5,0,2018,5,1,22,19,25.88,-0.4945,0.382,-0.2226,0.7482
0.052,0.115,0.102,7,-3.8,-1.4,0,2018,5,1,22,19,25.899,-0.4954,0.3828,-0.222,0.7474
0.051,0.14,0.064,7.6,-10,2.2,0,2018,5,1,22,19,25.941,-0.4952,0.3841,-0.222,0.7469
0.019,0.216,0.058,11.2,-22.1,6.3,0,2018,5,1,22,19,25.96,-0.4941,0.3867,-0.2227,0.746
0.001,0.143,0.06,10.4,-28.1,10.5,0,2018,5,1,22,19,25.964,-0.4917,0.3908,-0.2251,0.7448
-0.05,0.149,0.066,11.2,-20.6,12.9,0,2018,5,1,22,19,25.982,-0.4891,0.3946,-0.2265,0.744
-0.105,0.118,0.106,10,-20.6,13.2,0,2018,5,1,22,19,26.022,-0.4867,0.3981,-0.2274,0.7434
-0.192,0.083,0.09,10.6,-32.9,9.2,0,2018,5,1,22,19,26.026,-0.4841,0.402,-0.2293,0.7425
-0.276,-0.083,0.049,14.8,-43.8,-1.3,1023,2018,5,1,22,19,26.042,-0.4814,0.4071,-0.2332,0.7402
-0.367,-0.067,0.04,19.5,-38.9,-19.1,1023,2018,5,1,22,19,26.079,-0.4806,0.4123,-0.2379,0.7364
-0.223,0.001,0.11,15.2,-56.9,-34.3,1023,2018,5,1,22,19,26.1,-0.4816,0.4169,-0.2442,0.731
0.05,0.233,-0.054,14.5,-107,-30.4,1023,2018,5,1,22,19,26.104,-0.4805,0.4247,-0.2559,0.7233
0.306,0.206,0.102,-5,-107.6,-10.1,1023,2018,5,1,22,19,26.122,-0.4749,0.4336,-0.2706,0.7163
0.471,0.136,0.144,-31.1,-50.1,19.9,1023,2018,5,1,22,19,26.142,-0.4675,0.4379,-0.2821,0.7141
0.567,0.212,-0.016,-41.3,0.4,43.2,1023,2018,5,1,22,19,26.181,-0.4605,0.4357,-0.2848,0.7189
0.487,0.021,-0.085,-29.8,-29.8,51.5,1023,2018,5,1,22,19,26.202,-0.4519,0.4344,-0.2856,0.7248
0.3,-0.257,-0.159,-12.3,-62,44.4,1023,2018,5,1,22,19,26.206,-0.4414,0.4379,-0.29,0.7274
0.172,-0.449,-0.189,-0.9,-57.3,29.4,1023,2018,5,1,22,19,26.226,-0.4319,0.4437,-0.2956,0.7273
0.093,-0.487,-0.16,3.6,-31.3,11.7,1023,2018,5,1,22,19,26.245,-0.4264,0.4482,-0.2997,0.7261
0.068,-0.368,-0.124,4.6,-11.1,-2.4,0,2018,5,1,22,19,26.264,-0.4247,0.4504,-0.3016,0.725
0.043,-0.225,-0.075,6,-2.5,-12.2,0,2018,5,1,22,19,26.285,-0.4257,0.451,-0.3027,0.7236
0.025,-0.094,-0.034,8.4,-3.7,-18.3,0,2018,5,1,22,19,26.304,-0.4281,0.4515,-0.3041,0.7213
0.004,0.032,0.009,12,-4,-20.7,0,2018,5,1,22,19,26.323,-0.4308,0.4523,-0.3052,0.7187
-0.057,0.114,0.202,10.8,13.1,-20.3,0,2018,5,1,22,19,26.361,-0.4344,0.4523,-0.3052,0.7164
0.005,0.319,0.335,13.7,5.5,-17,0,2018,5,1,22,19,26.384,-0.439,0.4518,-0.3044,0.7144
0.11,0.959,0.323,10.1,-38.5,18.2,0,2018,5,1,22,19,26.388,-0.4388,0.4543,-0.3053,0.7125
-0.09,-0.001,0.127,-30.1,19.3,50.2,0,2018,5,1,22,19,26.405,-0.4317,0.4573,-0.3065,0.7144
-0.123,0.193,0.428,-60.1,157.6,71.3,0,2018,5,1,22,19,26.444,-0.4298,0.4464,-0.2914,0.7286
-0.2,0.438,0.808,-59.1,-9.7,56.9,0,2018,5,1,22,19,26.465,-0.4258,0.4347,-0.2789,0.7428
-0.06,-0.315,-0.2,-31,-157.1,29.6,0,2018,5,1,22,19,26.469,-0.4098,0.4391,-0.294,0.7434
0.08,-0.664,-0.653,-16.4,-19.1,19.9,0,2018,5,1,22,19,26.487,-0.3985,0.444,-0.3059,0.7418
0.103,-0.247,-0.379,-10.2,36.5,0.7,0,2018,5,1,22,19,26.507,-0.3989,0.4412,-0.3032,0.7444
0.163,-0.252,-0.325,-1.3,20.6,-8.4,0,2018,5,1,22,19,26.524,-0.402,0.4379,-0.3004,0.7458
0.193,-0.236,-0.321,5.1,-2.3,-13.1,0,2018,5,1,22,19,26.544,-0.4046,0.437,-0.3002,0.745
0.211,-0.227,-0.288,10.9,-9.9,-18.7,0,2018,5,1,22,19,26.563,-0.4068,0.4377,-0.3021,0.7426
0.206,-0.123,-0.185,16,-7.7,-21.7,0,2018,5,1,22,19,26.584,-0.41,0.4388,-0.3039,0.7394
0.204,-0.026,-0.084,19.5,-14.1,-22.6,0,2018,5,1,22,19,26.604,-0.4134,0.4407,-0.3059,0.7357
0.174,0.015,-0.048,24.7,-25.6,-21.6,0,2018,5,1,22,19,26.624,-0.416,0.4437,-0.3087,0.7312
0.093,0.141,0.052,30.3,-32.4,-15.9,0,2018,5,1,22,19,26.665,-0.4181,0.4478,-0.3117,0.7261
0.02,0.212,0.264,34.7,-40.4,-8.1,0,2018,5,1,22,19,26.686,-0.4189,0.4539,-0.315,0.7205
-0.113,0.389,0.643,23.8,-41.6,11.2,0,2018,5,1,22,19,26.69,-0.4173,0.4608,-0.318,0.7157
-0.054,0.41,0.41,5.9,4.7,31.7,0,2018,5,1,22,19,26.709,-0.414,0.4651,-0.3181,0.7148
-0.046,0.508,0.413,-15.2,42.7,59.4,1023,2018,5,1,22,19,26.729,-0.4105,0.4651,-0.3114,0.7197
-0.228,0.172,0.943,-52.3,14.7,69.5,1023,2018,5,1,22,19,26.745,-0.4034,0.4618,-0.3042,0.7289
-0.148,-0.165,0.194,-54.7,-64,48.7,1023,2018,5,1,22,19,26.765,-0.3909,0.4593,-0.3065,0.7363
0.054,-0.648,-0.599,-38.3,-59.4,26.1,1023,2018,5,1,22,19,26.785,-0.3779,0.4602,-0.3165,0.7383
0.195,-0.428,-0.667,-17.8,-8.8,1,1023,2018,5,1,22,19,26.821,-0.3727,0.4592,-0.3208,0.7397
0.266,-0.318,-0.556,-0.3,-19.5,-11.1,1023,2018,5,1,22,19,26.842,-0.3726,0.4584,-0.3236,0.739
0.284,-0.203,-0.484,14.7,-42.3,-15.9,1023,2018,5,1,22,19,26.846,-0.3727,0.4606,-0.3284,0.7355
0.263,-0.111,-0.328,27.8,-46.7,-18.1,1023,2018,5,1,22,19,26.887,-0.3726,0.4654,-0.3347,0.7296
0.198,-0.077,-0.162,32.2,-14.8,-16.4,1023,2018,5,1,22,19,26.905,-0.3744,0.4703,-0.3384,0.7239
0.11,0.017,0.072,29.8,9.1,-13.3,1023,2018,5,1,22,19,26.91,-0.3786,0.4732,-0.3377,0.72
0.021,0.041,0.196,23.7,16.8,-10.2,1023,2018,5,1,22,19,26.929,-0.383,0.4749,-0.3352,0.7177
-0.021,0.073,0.257,16.4,22,-7.8,0,2018,5,1,22,19,26.95,-0.3875,0.4755,-0.3323,0.7163
-0.022,0.102,0.247,9,24.7,-5,0,2018,5,1,22,19,26.971,-0.3912,0.475,-0.3292,0.716
0.011,0.111,0.191,2.8,29.2,-0.7,0,2018,5,1,22,19,26.989,-0.3944,0.4736,-0.3258,0.7168
0.025,0.066,0.128,0.3,27.9,3,0,2018,5,1,22,19,27.01,-0.397,0.4718,-0.3221,0.7182
0.027,0.001,0.047,1,32.9,3.3,0,2018,5,1,22,19,27.029,-0.3989,0.4697,-0.317,0.7208
0.045,-0.018,0.022,2.5,38.1,1.1,0,2018,5,1,22,19,27.048,-0.4018,0.4675,-0.3118,0.7229
0.071,-0.022,-0.014,3.3,35.5,-0.3,0,2018,5,1,22,19,27.069,-0.4051,0.4652,-0.3066,0.7248
0.096,-0.05,-0.065,4.4,31.4,0,0,2018,5,1,22,19,27.106,-0.408,0.4636,-0.3023,0.726
0.122,-0.061,-0.073,5.5,31.5,-0.7,0,2018,5,1,22,19,27.127,-0.4112,0.462,-0.2984,0.7268
0.122,-0.114,-0.064,7.3,32.3,-3.3,0,2018,5,1,22,19,27.132,-0.4147,0.4603,-0.2943,0.7275
0.14,-0.136,-0.047,9.7,37.6,-8.1,0,2018,5,1,22,19,27.151,-0.4191,0.4584,-0.2899,0.728
0.119,-0.112,-0.003,11.5,41.5,-12.4,0,2018,5,1,22,19,27.171,-0.4244,0.4563,-0.2849,0.7282
0.098,-0.101,0.002,11.7,34.4,-16,0,2018,5,1,22,19,27.192,-0.4301,0.454,-0.2803,0.7281
0.11,-0.1,0.007,10.9,18.1,-18.8,0,2018,5,1,22,19,27.231,-0.4351,0.4526,-0.2777,0.727
0.11,-0.103,0.005,12.7,17.2,-21.4,0,2018,5,1,22,19,27.235,-0.4395,0.4518,-0.2762,0.7254
0.106,-0.107,0.009,12.6,22.5,-24.1,0,2018,5,1,22,19,27.251,-0.4445,0.4509,-0.2746,0.7235
0.092,-0.041,0.048,14.5,33.3,-26.2,0,2018,5,1,22,19,27.27,-0.4506,0.4491,-0.272,0.7219
0.062,-0.015,0.053,15,44.3,-26,0,2018,5,1,22,19,27.289,-0.4579,0.4463,-0.2678,0.7206
0.038,0.04,0.064,13.7,51.2,-24.6,0,2018,5,1,22,19,27.326,-0.4654,0.4427,-0.2617,0.7202
0.039,0.147,0.033,14.9,41.8,-21.8,0,2018,5,1,22,19,27.347,-0.4727,0.4392,-0.2552,0.72
0.032,0.112,0.009,14.6,28.8,-18,0,2018,5,1,22,19,27.351,-0.4782,0.4373,-0.2499,0.7194
0.056,0.089,0.035,14.3,27.2,-14.6,0,2018,5,1,22,19,27.37,-0.4829,0.4359,-0.2455,0.7186
0.021,0.027,0.08,11.4,33.1,-11.8,0,2018,5,1,22,19,27.39,-0.4873,0.4342,-0.2408,0.7182
0.004,-0.024,0.098,7,49.7,-10.8,0,2018,5,1,22,19,27.431,-0.4921,0.4311,-0.2349,0.7188
0.095,-0.002,0.054,6.3,70.7,-9.9,1023,2018,5,1,22,19,27.435,-0.4984,0.4257,-0.2269,0.7202
0.161,0.015,0.068,9.8,73.6,-9.7,1023,2018,5,1,22,19,27.454,-0.5053,0.4199,-0.2177,0.7217
0.173,0.012,0.117,10.4,81,-10.7,1023,2018,5,1,22,19,27.47,-0.5124,0.4141,-0.2079,0.7229
0.166,0.017,0.102,6.4,96.5,-10,1023,2018,5,1,22,19,27.511,-0.5205,0.4067,-0.1966,0.7245
0.172,0.052,0.074,6.9,97.3,-8.8,1023,2018,5,1,22,19,27.515,-0.529,0.3981,-0.1841,0.7264
0.145,0.085,0.035,8.9,81.1,-3.4,1023,2018,5,1,22,19,27.529,-0.536,0.3906,-0.1724,0.7281
0.107,0.149,-0.011,13.3,59.7,3.9,1023,2018,5,1,22,19,27.568,-0.541,0.3853,-0.1621,0.7297
0.049,0.176,-0.022,17.2,32.3,11.4,1023,2018,5,1,22,19,27.588,-0.5433,0.3827,-0.153,0.7313
-0.007,0.152,-0.038,21.2,6.4,19,1023,2018,5,1,22,19,27.591,-0.5426,0.3841,-0.1469,0.7323
-0.052,0.096,-0.067,22.8,1,24.5,1023,2018,5,1,22,19,27.629,-0.5397,0.388,-0.1413,0.7335
-0.097,0.014,-0.038,21.4,11.9,26.7,1023,2018,5,1,22,19,27.648,-0.5365,0.3922,-0.1355,0.7348
-0.075,0.019,-0.005,20.4,13.9,24.1,1023,2018,5,1,22,19,27.65,-0.534,0.3951,-0.1289,0.7362
-0.091,-0.048,0.027,18,4.2,18.2,0,2018,5,1,22,19,27.689,-0.5317,0.3979,-0.1234,0.7373
-0.068,-0.032,0.056,14.3,-3.8,11.4,0,2018,5,1,22,19,27.709,-0.5299,0.4008,-0.1202,0.7376
-0.027,0.039,0.021,13.3,-19.9,8.9,0,2018,5,1,22,19,27.711,-0.5277,0.4042,-0.1189,0.7375
0.042,0.098,0.009,13,-42.9,10,0,2018,5,1,22,19,27.747,-0.5242,0.4089,-0.1202,0.7372
0.063,0.078,-0.007,13.4,-63.1,13.8,0,2018,5,1,22,19,27.766,-0.5189,0.4157,-0.1242,0.7365
0.072,0.045,0.048,11.2,-74.8,19.4,0,2018,5,1,22,19,27.77,-0.5119,0.4234,-0.1304,0.7359
0.064,0.037,0.041,11.8,-96.8,23,0,2018,5,1,22,19,27.809,-0.5029,0.4326,-0.1381,0.7353
0.057,0.02,-0.01,13.6,-126.2,23.1,0,2018,5,1,22,19,27.831,-0.4916,0.4444,-0.1493,0.7337
0.06,-0.074,-0.016,12.3,-126.2,21.8,0,2018,5,1,22,19,27.833,-0.4787,0.4578,-0.1631,0.7311
-0.021,-0.377,0.062,5,-81,14.4,0,2018,5,1,22,19,27.87,-0.4678,0.4688,-0.1747,0.7284
0.055,-0.309,0.11,-1,16.7,5.8,0,2018,5,1,22,19,27.89,-0.4645,0.4714,-0.1776,0.7281
0.053,-0.204,0.117,-2.1,54.9,-6.7,0,2018,5,1,22,19,27.894,-0.4682,0.4677,-0.1725,0.7294
0.05,-0.141,0.231,-4.9,44.2,-18.5,0,2018,5,1,22,19,27.933,-0.4741,0.4626,-0.1674,0.7301
0.084,-0.092,0.32,-12.8,40.4,-22,0,2018,5,1,22,19,27.953,-0.48,0.4574,-0.1646,0.7301
0.104,-0.101,0.434,-26.8,46.4,-22.7,0,2018,5,1,22,19,27.957,-0.4858,0.4505,-0.1626,0.731
0.143,-0.061,0.431,-40.2,25.9,-24.5,0,2018,5,1,22,19,27.975,-0.4909,0.4423,-0.1622,0.7328
0.183,-0.176,0.259,-54.5,13.6,-23.3,0,2018,5,1,22,19,27.996,-0.4939,0.4339,-0.1663,0.7348
0.228,-0.153,0.011,-62,42.3,-13.8,0,2018,5,1,22,19,28.016,-0.4967,0.4234,-0.1694,0.7384
0.166,-0.192,-0.088,-57,83.7,-14,0,2018,5,1,22,19,28.034,-0.5015,0.4095,-0.1672,0.7435
0.131,-0.402,0.001,-62.9,132.5,-20.4,0,2018,5,1,22,19,28.074,-0.5097,0.3918,-0.1601,0.7489
0.129,-0.085,-0.001,-67,163.9,-22.4,0,2018,5,1,22,19,28.094,-0.521,0.3689,-0.1471,0.7554
0.172,-0.079,-0.118,-63.1,162.5,-25.7,0,2018,5,1,22,19,28.098,-0.533,0.3442,-0.1329,0.7613
0.133,-0.108,-0.091,-53.3,136.8,-34.7,1023,2018,5,1,22,19,28.117,-0.5447,0.3216,-0.1204,0.765
0.105,-0.17,-0.139,-44.6,132.2,-49.8,1023,2018,5,1,22,19,28.135,-0.5568,0.3015,-0.1099,0.766
0.079,-0.04,-0.215,-32.6,134.2,-58.2,1023,2018,5,1,22,19,28.176,-0.5705,0.2819,-0.0984,0.765
0.071,0.106,-0.227,-24.3,115.2,-59.8,1023,2018,5,1,22,19,28.197,-0.5839,0.2652,-0.0876,0.7621
0.133,0.216,-0.291,-17.1,113.3,-56.1,1023,2018,5,1,22,19,28.201,-0.5964,0.2501,-0.0764,0.7588
0.147,0.21,-0.172,-4.7,88.4,-48.9,1023,2018,5,1,22,19,28.214,-0.6078,0.2367,-0.0657,0.7551
-0.071,-0.398,0.009,-15.3,99.7,-41.8,1023,2018,5,1,22,19,28.238,-0.6169,0.2268,-0.0582,0.7513
0.056,0.8,-0.122,-1.1,129,-11.9,1023,2018,5,1,22,19,28.257,-0.6258,0.2106,-0.0418,0.7498
0.046,0.536,-0.313,9.8,-1.4,15,0,2018,5,1,22,19,28.278,-0.6274,0.205,-0.0343,0.7503
-0.073,0.014,-0.294,25.3,-19.2,22.8,0,2018,5,1,22,19,28.298,-0.6244,0.2091,-0.0337,0.7517
-0.188,-0.18,-0.181,30.3,-2.5,14.4,0,2018,5,1,22,19,28.336,-0.6219,0.2139,-0.0316,0.7525
-0.201,-0.114,-0.092,29.2,13.6,5.6,0,2018,5,1,22,19,28.356,-0.6213,0.217,-0.0273,0.7524
-0.136,0.025,-0.09,27.8,2,3,0,2018,5,1,22,19,28.36,-0.6213,0.2195,-0.0228,0.7517
-0.075,0.109,-0.121,33.2,-52.4,7.1,0,2018,5,1,22,19,28.38,-0.62,0.2259,-0.0225,0.7509
-0.074,0.05,-0.077,33.7,-110.4,14.6,0,2018,5,1,22,19,28.4,-0.6153,0.2401,-0.0299,0.7501
0.007,-0.111,-0.071,28.9,-71.2,18.8,0,2018,5,1,22,19,28.436,-0.6091,0.2548,-0.0384,0.7499
0.022,-0.013,0.02,29.7,-30.6,17.9,0,2018,5,1,22,19,28.438,-0.6048,0.2643,-0.0407,0.75
0.03,0.138,0.15,28.8,-32.4,15.2,0,2018,5,1,22,19,28.456,-0.6017,0.2708,-0.0402,0.7502
0.051,0.168,0.207,33.1,-90.6,14.1,0,2018,5,1,22,19,28.494,-0.5974,0.2809,-0.0442,0.7498
0.103,0.19,0.184,39.7,-169.3,14.9,0,2018,5,1,22,19,28.512,-0.5894,0.2991,-0.0572,0.7481
0.006,-0.3,0.026,28.7,-190,11.6,0,2018,5,1,22,19,28.514,-0.5773,0.3241,-0.0783,0.7452
0.106,-0.582,-0.014,16.2,-45.1,-0.3,0,2018,5,1,22,19,28.547,-0.5699,0.339,-0.0915,0.7428
0.171,-0.132,0.176,13.1,55.3,-10.7,0,2018,5,1,22,19,28.567,-0.5723,0.3386,-0.0879,0.7415
0.173,0.153,0.303,8.3,38.9,-14.6,0,2018,5,1,22,19,28.578,-0.5774,0.3345,-0.0809,0.7403
0.189,0.21,0.235,4.6,-8,-9.5,0,2018,5,1,22,19,28.611,-0.5798,0.3337,-0.0791,0.7389
0.138,-0.047,0.159,-3.3,-16,-4.3,0,2018,5,1,22,19,28.634,-0.5794,0.3359,-0.0819,0.738
0.202,-0.087,0.038,-3.2,38.3,-3.3,0,2018,5,1,22,19,28.638,-0.5807,0.3337,-0.0809,0.738
0.19,-0.033,0.041,0,62.6,-2.5,0,2018,5,1,22,19,28.657,-0.5841,0.328,-0.0743,0.7386
0.162,0.038,0.081,8.8,34.4,-0.2,0,2018,5,1,22,19,28.677,-0.5873,0.3234,-0.0672,0.7387
0.145,0.23,0.172,4.3,-11.6,11,0,2018,5,1,22,19,28.699,-0.5873,0.3232,-0.0646,0.7391
0.109,0.152,0.14,-1.5,-63.1,19.3,0,2018,5,1,22,19,28.718,-0.5832,0.3276,-0.069,0.7401
0.111,0.02,-0.014,-1.4,-73.7,23.3,0,2018,5,1,22,19,28.758,-0.5764,0.3345,-0.0773,0.7415
0.119,0.076,-0.082,8.7,-84.5,25,1023,2018,5,1,22,19,28.762,-0.5687,0.3427,-0.0854,0.7428
0.067,0.135,-0.055,16.5,-117,27.2,1023,2018,5,1,22,19,28.781,-0.5594,0.3544,-0.095,0.7432
0.022,0.111,-0.062,26.1,-152.3,29,1023,2018,5,1,22,19,28.799,-0.5473,0.3708,-0.1077,0.7424
-0.023,0.168,-0.05,26.5,-174.8,36,1023,2018,5,1,22,19,28.82,-0.5322,0.3909,-0.1236,0.7406
-0.027,0.221,-0.042,23.9,-182.7,42.4,1023,2018,5,1,22,19,28.857,-0.5151,0.4115,-0.1417,0.7383
0.011,0.152,-0.072,24.7,-187.7,42.7,1023,2018,5,1,22,19,28.877,-0.4966,0.4322,-0.1601,0.7354
-0.028,0.025,0,25.2,-184.9,39.3,1023,2018,5,1,22,19,28.879,-0.4774,0.4528,-0.1779,0.7316
-0.073,-0.14,0.104,20.8,-169.1,32.5,1023,2018,5,1,22,19,28.914,-0.4591,0.4719,-0.1954,0.7268
-0.025,-0.181,0.185,14.1,-141.6,28.3,1023,2018,5,1,22,19,28.937,-0.4432,0.487,-0.2108,0.7224
0.061,-0.069,0.174,6.2,-118.4,28.9,1023,2018,5,1,22,19,28.938,-0.4295,0.4988,-0.2239,0.7186
0.109,0.051,0.172,-0.9,-127.9,33.2,1023,2018,5,1,22,19,28.977,-0.4156,0.5091,-0.2364,0.7156
0.056,-0.139,0.147,-11.9,-148.9,33.5,1023,2018,5,1,22,19,28.996,-0.3989,0.5198,-0.2515,0.7122
0.055,-0.494,0.038,-29.6,-68.3,30.5,1023,2018,5,1,22,19,29,-0.3837,0.5263,-0.2645,0.7111
0.094,-0.392,0.041,-42.9,32.5,20.9,0,2018,5,1,22,19,29.036,-0.378,0.5237,-0.2662,0.7154
0.144,-0.284,0.125,-49.1,64.6,5,0,2018,5,1,22,19,29.054,-0.3798,0.5146,-0.2612,0.7228
0.181,-0.349,0.179,-56.1,45.1,-10.5,0,2018,5,1,22,19,29.06,-0.3832,0.5039,-0.2581,0.7297
0.154,-0.441,0.078,-65.9,45.9,-18.6,0,2018,5,1,22,19,29.094,-0.3863,0.4928,-0.2586,0.7354
0.143,-0.648,-0.153,-77.4,133.4,-27.6,0,2018,5,1,22,19,29.113,-0.3937,0.4764,-0.2546,0.7437
0.203,-0.398,-0.201,-76.1,207.7,-37.8,0,2018,5,1,22,19,29.122,-0.4094,0.4522,-0.2394,0.7553
0.19,-0.182,-0.074,-69.2,201.7,-47.2,0,2018,5,1,22,19,29.157,-0.4283,0.4255,-0.2201,0.7661
0.117,-0.205,-0.094,-67.6,177.5,-56.3,0,2018,5,1,22,19,29.178,-0.4464,0.4003,-0.2044,0.7736
0.14,-0.248,-0.192,-63.6,200.6,-62.3,0,2018,5,1,22,19,29.179,-0.465,0.3742,-0.1883,0.7798
0.151,-0.22,-0.258,-52.1,207.6,-71,0,2018,5,1,22,19,29.218,-0.4855,0.3471,-0.1693,0.7842
0.193,-0.186,-0.388,-31.5,243.6,-86.1,0,2018,5,1,22,19,29.237,-0.5085,0.3192,-0.1468,0.786
0.182,-0.085,-0.432,-9,275.9,-96.6,0,2018,5,1,22,19,29.239,-0.5345,0.2909,-0.118,0.7846
0.106,0.049,-0.331,0.6,318.3,-101.9,0,2018,5,1,22,19,29.275,-0.5622,0.2609,-0.083,0.7802
0.165,0.055,-0.318,15.6,368.6,-102.9,0,2018,5,1,22,19,29.297,-0.5914,0.2246,-0.039,0.7734
0.186,-0.05,-0.383,44.6,245.3,-110.1,0,2018,5,1,22,19,29.304,-0.6173,0.1957,0.002,0.7619
-0.115,-0.207,-0.201,57.9,166.9,-101.5,0,2018,5,1,22,19,29.341,-0.6377,0.1819,0.0296,0.7478
-0.051,0.729,-0.006,54.8,148.4,-66.3,0,2018,5,1,22,19,29.361,-0.6535,0.1707,0.0551,0.7352
-0.105,0.46,0.073,31.2,36.2,-28.2,0,2018,5,1,22,19,29.364,-0.6613,0.1668,0.0693,0.7279
-0.157,-0.127,0.018,18.8,42.7,-25,0,2018,5,1,22,19,29.379,-0.665,0.1667,0.0754,0.724
-0.13,0.085,0.016,14.5,56.2,-35.1,0,2018,5,1,22,19,29.401,-0.6701,0.1637,0.0838,0.719
-0.15,0.219,0.019,8.1,11.5,-32,0,2018,5,1,22,19,29.434,-0.6753,0.1615,0.0884,0.7141
-0.133,0.177,-0.023,-1.6,-8.2,-21.2,0,2018,5,1,22,19,29.455,-0.6786,0.1623,0.0878,0.7108
-0.068,0.218,-0.092,-6.9,-22.1,-8,1023,2018,5,1,22,19,29.462,-0.6801,0.1637,0.0847,0.7095
-0.03,0.209,-0.158,-5.2,-33.4,6.6,1023,2018,5,1,22,19,29.495,-0.6795,0.1661,0.0804,0.7099
0.016,0.191,-0.167,0.9,-34.6,18.6,1023,2018,5,1,22,19,29.515,-0.6771,0.1694,0.076,0.712
-0.04,0.155,-0.09,7.4,-44.3,27.1,1023,2018,5,1,22,19,29.521,-0.6732,0.174,0.0722,0.715
0.022,0.243,0.014,9.9,-50.1,31.3,1023,2018,5,1,22,19,29.558,-0.6681,0.1799,0.0681,0.7187
0.016,0.084,0.016,11,-60.2,28.9,1023,2018,5,1,22,19,29.579,-0.6622,0.1873,0.0632,0.7226
0.042,-0.103,-0.05,15.8,-52.5,20.8,1023,2018,5,1,22,19,29.585,-0.657,0.1959,0.0585,0.7256
0.073,-0.014,0.126,19.6,-29.8,16.8,1023,2018,5,1,22,19,29.622,-0.6532,0.2023,0.0559,0.7274
0.13,-0.139,0.066,19.2,-31,13.5,1023,2018,5,1,22,19,29.642,-0.6501,0.2079,0.0544,0.7287
0.112,-0.077,0.107,18.7,-20.1,13.8,1023,2018,5,1,22,19,29.647,-0.6475,0.2125,0.0539,0.7297
0.172,0.122,0.006,22.9,-5.1,14.7,1023,2018,5,1,22,19,29.662,-0.6452,0.2158,0.0557,0.7306
0.135,-0.004,-0.039,26.7,-26.2,14.7,0,2018,5,1,22,19,29.702,-0.6425,0.2206,0.0566,0.7315
0.149,-0.038,0.078,27,-11.2,12.8,0,2018,5,1,22,19,29.722,-0.6398,0.226,0.0576,0.7322
0.17,-0.033,0.227,21.6,1.1,11,0,2018,5,1,22,19,29.724,-0.6378,0.2295,0.0604,0.7326
0.184,0.013,0.188,18.6,-9.9,12,0,2018,5,1,22,19,29.763,-0.6359,0.2323,0.0627,0.7331
0.168,-0.026,0.174,15,-32.1,11.5,0,2018,5,1,22,19,29.783,-0.6333,0.2369,0.0625,0.734
0.148,-0.033,0.2,7,-32.6,11.4,0,2018,5,1,22,19,29.786,-0.6302,0.2421,0.0599,0.7352
0.159,-0.022,0.148,2.7,-26.1,12.4,0,2018,5,1,22,19,29.82,-0.6274,0.2456,0.0572,0.7367
0.137,-0.087,0.021,4.8,-23.6,10.2,0,2018,5,1,22,19,29.841,-0.6246,0.2488,0.0548,0.7381
0.089,-0.096,0.032,8.1,-12.1,4.2,0,2018,5,1,22,19,29.845,-0.6229,0.2516,0.0535,0.7387
0.054,0.012,0.063,9.4,-2.4,-1.2,0,2018,5,1,22,19,29.88,-0.6224,0.2533,0.0536,0.7385
0.04,0.03,0.065,8.6,2.8,-2.4,0,2018,5,1,22,19,29.899,-0.6226,0.2541,0.0548,0.738
0.032,0.061,0.109,6.8,9.7,-3.2,0,2018,5,1,22,19,29.905,-0.6231,0.2541,0.057,0.7374
0.022,0.008,0.111,2.9,11.5,-3.3,0,2018,5,1,22,19,29.942,-0.6239,0.2531,0.0591,0.7369
0.023,0,0.129,-1,28.1,-6.6,0,2018,5,1,22,19,29.961,-0.6254,0.2508,0.0618,0.7362
0.011,0.033,0.106,-6.2,44.9,-11.1,0,2018,5,1,22,19,29.964,-0.6282,0.2461,0.066,0.7351
0.052,0.035,0.035,-8.5,58.7,-12.5,0,2018,5,1,22,19,30,-0.632,0.2392,0.0717,0.7335
0.046,0.133,0.05,-8.6,51,-9.7,0,2018,5,1,22,19,30.02,-0.6359,0.2316,0.0779,0.7319
0.056,0.042,0.063,-11,33.1,-8,0,2018,5,1,22,19,30.027,-0.6388,0.2258,0.0817,0.7308
0.048,0.016,-0.006,-11.7,45.7,-9.8,0,2018,5,1,22,19,30.063,-0.6417,0.2203,0.0852,0.7296
0.067,0.039,0.044,-14.3,26.1,-12.7,0,2018,5,1,22,19,30.084,-0.6447,0.2141,0.0884,0.7284
0.031,0.002,0.13,-17.1,10.1,-11.7,0,2018,5,1,22,19,30.086,-0.6472,0.2098,0.0887,0.7274
-0.017,0.092,0.261,-27,-17.4,-4.7,0,2018,5,1,22,19,30.12,-0.6486,0.2073,0.0857,0.7272
-0.053,-0.039,0.289,-49,-24.9,2.1,0,2018,5,1,22,19,30.139,-0.6483,0.2048,0.0784,0.729
0.082,0.065,0.061,-56.4,-1.4,7.9,1023,2018,5,1,22,19,30.147,-0.6478,0.1988,0.0707,0.7319
0.132,0.149,-0.089,-45.6,-6,1.1,1023,2018,5,1,22,19,30.181,-0.6477,0.1922,0.0651,0.7342
0.049,0.054,-0.009,-34.5,-35.2,-7.2,1023,2018,5,1,22,19,30.203,-0.648,0.1894,0.0579,0.7354
-0.053,-0.149,0.178,-39.6,-33.4,-14.7,1023,2018,5,1,22,19,30.205,-0.6484,0.1895,0.0487,0.7357
0.025,-0.107,0.197,-51.3,-8.4,-19.1,1023,2018,5,1,22,19,30.242,-0.6505,0.1866,0.0396,0.7351
0.179,0.076,0.06,-55.3,-3,-15.5,1023,2018,5,1,22,19,30.262,-0.6531,0.1796,0.0321,0.7348
0.223,0.093,-0.035,-49.7,-27.1,-12.5,1023,2018,5,1,22,19,30.269,-0.6547,0.1746,0.0237,0.735
0.201,0.133,-0.035,-40.6,-51.5,-12.2,1023,2018,5,1,22,19,30.302,-0.6553,0.1732,0.0131,0.735
0.134,-0.033,0.027,-39.2,-61.4,-9.6,1023,2018,5,1,22,19,30.322,-0.6551,0.1748,0.0001,0.735
0.191,-0.053,-0.033,-39.5,-25.6,-3.6,1023,2018,5,1,22,19,30.329,-0.6547,0.1746,-0.0103,0.7353
0.251,0.095,-0.17,-31.7,1.4,3.5,1023,2018,5,1,22,19,30.362,-0.6545,0.1708,-0.0158,0.7362
0.285,0.245,-0.289,-15.7,-12.4,13.7,0,2018,5,1,22,19,30.383,-0.6534,0.1678,-0.0188,0.7378
0.24,0.061,-0.354,2,-31.8,21.7,0,2018,5,1,22,19,30.386,-0.6503,0.17,-0.0223,0.74
0.152,-0.123,-0.312,17,-10.8,26.7,0,2018,5,1,22,19,30.425,-0.6466,0.1738,-0.0237,0.7423
0.089,-0.155,-0.176,27,17.6,25.8,0,2018,5,1,22,19,30.443,-0.6435,0.1761,-0.0197,0.7446
0.081,-0.056,-0.264,39.4,25.8,19.7,0,2018,5,1,22,19,30.449,-0.6414,0.1778,-0.0122,0.7461
0.037,0.122,-0.27,56.1,7.1,21.7,0,2018,5,1,22,19,30.486,-0.6395,0.1827,-0.0037,0.7466
-0.064,0.315,-0.198,68.9,-56.7,32.1,0,2018,5,1,22,19,30.507,-0.6355,0.1931,0.0011,0.7474
-0.16,0.157,-0.133,68.4,-120.5,42.7,0,2018,5,1,22,19,30.509,-0.6273,0.2125,-0.0024,0.7491
-0.175,0.042,-0.026,60.7,-139.8,47.9,0,2018,5,1,22,19,30.543,-0.6164,0.2352,-0.0111,0.7513
-0.175,0.044,0.024,51.5,-147.5,46.6,0,2018,5,1,22,19,30.564,-0.6041,0.258,-0.0221,0.7536
-0.149,0.043,-0.001,47.5,-149.7,40.2,0,2018,5,1,22,19,30.572,-0.5918,0.28,-0.0348,0.755
-0.125,0.227,0.075,42.8,-167.3,38.8,0,2018,5,1,22,19,30.607,-0.5794,0.3021,-0.049,0.7553
-0.147,0.011,0.038,37.9,-201.6,42.1,0,2018,5,1,22,19,30.625,-0.5639,0.3268,-0.0674,0.7553
-0.169,-0.136,0.065,24.3,-177.4,38.2,0,2018,5,1,22,19,30.627,-0.5472,0.3511,-0.0865,0.7547
-0.141,-0.068,0.093,13.3,-174.6,41.6,0,2018,5,1,22,19,30.661,-0.5308,0.3714,-0.1046,0.7544
-0.074,-0.054,-0.021,10,-222,38.2,0,2018,5,1,22,19,30.68,-0.5126,0.3919,-0.126,0.7534
-0.072,-0.222,-0.101,2.4,-286.8,30.5,0,2018,5,1,22,19,30.691,-0.4896,0.4168,-0.1569,0.7495
0.156,-0.257,-0.182,7.5,-311.9,20.8,0,2018,5,1,22,19,30.728,-0.4639,0.443,-0.1939,0.7421
0.15,-0.753,-0.299,4.7,-242.6,2.8,0,2018,5,1,22,19,30.747,-0.4399,0.4669,-0.23,0.7317
0.294,-0.604,-0.243,10,-93.2,-12.2,0,2018,5,1,22,19,30.753,-0.4278,0.4799,-0.2509,0.7236
0.326,-0.206,-0.142,20.1,13.7,-13.8,0,2018,5,1,22,19,30.789,-0.4278,0.4833,-0.2552,0.7197
0.264,-0.06,-0.084,25.4,60,-14.3,1023,2018,5,1,22,19,30.812,-0.4346,0.4823,-0.2495,0.7184
0.285,-0.047,-0.029,27.1,85,-2.9,1023,2018,5,1,22,19,30.813,-0.4434,0.4794,-0.2393,0.7184
0.205,0.056,0.031,32.8,125.9,11.6,1023,2018,5,1,22,19,30.848,-0.4531,0.4751,-0.2236,0.7203
0.21,0.496,0.528,18.5,146.7,28.8,1023,2018,5,1,22,19,30.866,-0.4633,0.4671,-0.2014,0.7256
-0.098,0.029,0.515,2.4,14.9,29.8,1023,2018,5,1,22,19,30.871,-0.4667,0.4635,-0.1884,0.7292
-0.014,-0.274,0.245,-12.7,112.6,25.7,1023,2018,5,1,22,19,30.905,-0.4671,0.4587,-0.1805,0.7339
-0.054,0.098,0.143,-0.5,142,13.2,1023,2018,5,1,22,19,30.926,-0.4758,0.447,-0.1612,0.74
0.023,0.639,0.194,13.6,24,10.3,1023,2018,5,1,22,19,30.932,-0.4817,0.4403,-0.1481,0.743
-0.142,0.454,0.325,5.9,-143.2,9.2,1023,2018,5,1,22,19,30.967,-0.4757,0.4476,-0.1551,0.7411
-0.104,0.151,0.197,-5.6,-215.5,9.7,1023,2018,5,1,22,19,30.986,-0.4597,0.4633,-0.1788,0.7361
0.071,0.309,-0.03,5.3,-298.9,2.3,1023,2018,5,1,22,19,30.995,-0.4382,0.483,-0.2104,0.7281
0.019,0.115,0.042,2.5,-448.2,0,1023,2018,5,1,22,19,31.03,-0.4052,0.5118,-0.2577,0.7122
-0.012,-0.322,-0.018,-20.1,-415.6,-2.2,0,2018,5,1,22,19,31.049,-0.3634,0.541,-0.3143,0.6902
0.25,-0.393,-0.588,-21,-128.3,3.9,0,2018,5,1,22,19,31.056,-0.3361,0.5549,-0.3484,0.6764
0.172,-0.204,-0.476,6.3,56.5,6.4,0,2018,5,1,22,19,31.093,-0.3341,0.555,-0.3496,0.6767
0.091,-0.167,-0.154,23.2,62.3,-1,0,2018,5,1,22,19,31.112,-0.3417,0.5532,-0.3404,0.6791
0.119,-0.173,0.004,16.2,6.1,-8.3,0,2018,5,1,22,19,31.113,-0.3473,0.5532,-0.3357,0.6786
0.192,-0.072,-0.016,5.9,-25.9,-7.9,0,2018,5,1,22,19,31.15,-0.3478,0.5547,-0.3377,0.6761
0.178,-0.085,-0.071,3.6,-18.7,-6,0,2018,5,1,22,19,31.169,-0.3466,0.5563,-0.3411,0.6737
0.132,-0.077,-0.024,5.8,-1.5,-4.3,0,2018,5,1,22,19,31.174,-0.3469,0.557,-0.3424,0.6723
0.071,-0.067,0.052,6.2,-1.5,-3.9,0,2018,5,1,22,19,31.209,-0.3483,0.5571,-0.3428,0.6713
0.035,-0.051,0.112,2.9,-4.6,-3.8,0,2018,5,1,22,19,31.228,-0.3494,0.557,-0.3431,0.6706
0.019,-0.013,0.082,-0.1,-11.8,-3.6,0,2018,5,1,22,19,31.235,-0.3495,0.557,-0.344,0.6702
0.006,-0.034,0.036,-2.7,-10.1,-3.9,0,2018,5,1,22,19,31.268,-0.3491,0.5571,-0.3456,0.6694
0.023,-0.034,-0.001,-3.2,7.7,-5.3,0,2018,5,1,22,19,31.288,-0.3496,0.5564,-0.3463,0.6694
0.068,0.023,-0.014,-1,17,-4.4,0,2018,5,1,22,19,31.297,-0.3513,0.5551,-0.3452,0.6702
0.086,0.057,0.004,0.3,20.2,-0.2,0,2018,5,1,22,19,31.33,-0.3537,0.5537,-0.3432,0.6711
0.083,0.059,0.01,1.3,8.6,3.4,0,2018,5,1,22,19,31.352,-0.3555,0.5527,-0.341,0.6721
0.112,0.108,-0.04,5,-13.1,6.5,0,2018,5,1,22,19,31.353,-0.3548,0.5534,-0.3404,0.6721
0.1,0.035,-0.083,7.1,-32.2,8.5,0,2018,5,1,22,19,31.392,-0.3517,0.5566,-0.3425,0.6701
0.07,-0.042,-0.026,4,-25.9,9.9,0,2018,5,1,22,19,31.411,-0.3479,0.5599,-0.3453,0.6679
0.048,-0.044,-0.033,3.5,-26.2,7.3,0,2018,5,1,22,19,31.416,-0.3452,0.5622,-0.347,0.6664
0.062,-0.054,-0.065,9.2,-49.9,4.6,0,2018,5,1,22,19,31.451,-0.3412,0.5658,-0.3509,0.6634
0.057,-0.108,-0.13,12.2,-51.6,3.1,0,2018,5,1,22,19,31.472,-0.3364,0.5706,-0.3563,0.6589
0.043,-0.178,-0.075,9.2,-12,0.3,0,2018,5,1,22,19,31.476,-0.3337,0.574,-0.3595,0.6556
0.037,-0.102,-0.065,9.2,34.8,-4.5,0,2018,5,1,22,19,31.509,-0.3364,0.574,-0.3579,0.6551
0.04,-0.036,-0.038,11.2,34.5,-3.9,1023,2018,5,1,22,19,31.529,-0.3417,0.573,-0.3537,0.6555
0.047,0.068,0.073,9.7,10.8,-1.9,1023,2018,5,1,22,19,31.534,-0.3454,0.5724,-0.3505,0.6558
0.018,-0.002,0.054,5.9,-4.8,0.9,1023,2018,5,1,22,19,31.569,-0.3459,0.573,-0.3495,0.6555
0.041,-0.045,0.059,2.1,17.3,1.2,1023,2018,5,1,22,19,31.591,-0.3467,0.573,-0.3485,0.6556
0.04,-0.046,0.036,2.8,57.3,1.4,1023,2018,5,1,22,19,31.595,-0.3511,0.5705,-0.3437,0.658
0.039,0.07,0.025,8.4,59.5,1.4,1023,2018,5,1,22,19,31.632,-0.3575,0.5672,-0.3359,0.6614
0.005,0.044,0.089,10.8,32,0.7,1023,2018,5,1,22,19,31.653,-0.3625,0.5653,-0.3292,0.6637
-0.017,-0.031,0.085,6,8.9,-0.7,1023,2018,5,1,22,19,31.656,-0.365,0.5648,-0.326,0.6643
-0.006,-0.068,0.083,-1,30.3,-5.5,1023,2018,5,1,22,19,31.69,-0.3676,0.5632,-0.3237,0.6654
0.037,0.04,-0.028,0.6,46.2,-8,1023,2018,5,1,22,19,31.712,-0.3728,0.5598,-0.3195,0.6673
-0.009,0.006,0.027,2.1,20,-9.6,1023,2018,5,1,22,19,31.719,-0.3773,0.5576,-0.3159,0.6684
-0.073,0.019,0.146,-1,-2.9,-12.8,1023,2018,5,1,22,19,31.753,-0.3796,0.5563,-0.3156,0.6683
-0.073,0.023,0.125,-3.6,-28.7,-18.2,0,2018,5,1,22,19,31.774,-0.3801,0.5561,-0.3194,0.6663
-0.077,0.077,0.085,-4.5,-56.3,-21.1,0,2018,5,1,22,19,31.78,-0.3784,0.5574,-0.3268,0.6626
-0.026,0.25,0.129,-9.3,-75.8,-17.9,0,2018,5,1,22,19,31.814,-0.3741,0.5598,-0.3368,0.658
-0.017,0.133,0.446,-22.6,-125.4,-17.8,0,2018,5,1,22,19,31.835,-0.3656,0.563,-0.3508,0.6527
0.165,0.219,0.331,-22.9,-241.3,-21.1,0,2018,5,1,22,19,31.836,-0.3483,0.5706,-0.3753,0.6419
0.441,0.326,-0.061,-23.7,-249.3,-4.2,0,2018,5,1,22,19,31.872,-0.3224,0.5822,-0.407,0.6255
0.466,0.067,-0.191,-31.6,-149.9,27.4,0,2018,5,1,22,19,31.892,-0.2989,0.591,-0.4289,0.6142
0.162,-0.26,-0.271,-30.2,-64.6,34.1,0,2018,5,1,22,19,31.9,-0.2824,0.5953,-0.4383,0.6112
0.119,-0.41,-0.406,-18.9,4.4,20.9,0,2018,5,1,22,19,31.94,-0.2748,0.5961,-0.4393,0.6132
0.124,-0.367,-0.439,-3.4,30.8,7.7,0,2018,5,1,22,19,31.96,-0.2748,0.5948,-0.436,0.6167
0.127,-0.277,-0.424,14.8,28.4,-1.4,0,2018,5,1,22,19,31.963,-0.2782,0.5942,-0.4321,0.6185
0.066,-0.268,-0.272,27.6,30,-8.9,0,2018,5,1,22,19,32,-0.2836,0.5949,-0.4286,0.6179
-0.023,-0.217,-0.094,32.9,33.3,-19.2,0,2018,5,1,22,19,32.019,-0.291,0.5956,-0.4251,0.6162
-0.074,-0.13,0.094,29.8,30.5,-28.5,0,2018,5,1,22,19,32.02,-0.2993,0.5955,-0.4224,0.6141
-0.077,0.061,0.266,19.7,31.2,-31.4,0,2018,5,1,22,19,32.055,-0.3081,0.5941,-0.421,0.6121
-0.017,0.469,0.316,11.2,24.2,-16.3,0,2018,5,1,22,19,32.075,-0.3153,0.5922,-0.4194,0.6114
-0.035,0.538,0.573,-0.1,-44.3,3,0,2018,5,1,22,19,32.078,-0.3159,0.5928,-0.4204,0.6098
-0.085,0.402,0.696,-32,-121.2,20.3,0,2018,5,1,22,19,32.112,-0.3041,0.5969,-0.4295,0.6054
-0.088,0.148,0.398,-64.6,-115.7,28.4,0,2018,5,1,22,19,32.133,-0.2845,0.6,-0.4426,0.6025
-0.146,-0.104,-0.005,-75.4,-71.5,23.5,0,2018,5,1,22,19,32.142,-0.2662,0.599,-0.4528,0.6042
-0.098,-0.15,-0.346,-59.9,-29.8,12.1,0,2018,5,1,22,19,32.176,-0.2533,0.5956,-0.4592,0.6084
0.089,-0.193,-0.602,-27.6,7.3,3.3,0,2018,5,1,22,19,32.197,-0.248,0.592,-0.4613,0.6124
0.271,-0.162,-0.674,0.6,24.5,-1.4,0,2018,5,1,22,19,32.202,-0.2488,0.59,-0.4599,0.6151
0.293,-0.129,-0.578,19,24,-4.3,1023,2018,5,1,22,19,32.237,-0.2528,0.5897,-0.4568,0.616
0.273,-0.166,-0.41,29.3,4.7,-12.2,1023,2018,5,1,22,19,32.258,-0.2571,0.5911,-0.455,0.6142
0.258,-0.147,-0.221,35.3,-8,-18.4,1023,2018,5,1,22,19,32.262,-0.2611,0.5935,-0.4555,0.6099
0.214,-0.052,0.037,35.6,-11.7,-18.6,1023,2018,5,1,22,19,32.296,-0.2649,0.5963,-0.4569,0.6044
0.139,0.035,0.272,25,-8.9,-12.2,1023,2018,5,1,22,19,32.318,-0.268,0.5988,-0.4582,0.5996
0.03,0.08,0.508,4.3,-14.4,-4.1,1023,2018,5,1,22,19,32.321,-0.269,0.6002,-0.4593,0.5969
-0.053,0.087,0.49,-22.1,-50.4,0,1023,2018,5,1,22,19,32.357,-0.2651,0.6005,-0.4632,0.5953
-0.003,-0.015,0.264,-43.5,-56.1,8.9,1023,2018,5,1,22,19,32.376,-0.2557,0.6,-0.4703,0.5944
-0.055,-0.127,-0.007,-44.1,-31.6,11.7,1023,2018,5,1,22,19,32.382,-0.2462,0.5979,-0.4755,0.5964
-0.078,-0.157,-0.229,-24.8,-9.8,5.2,1023,2018,5,1,22,19,32.415,-0.2399,0.5962,-0.4782,0.5985
0.01,-0.095,-0.282,-3.4,14.8,-2.1,1023,2018,5,1,22,19,32.438,-0.239,0.5947,-0.4782,0.6003
0.09,-0.049,-0.195,10.8,30.6,-8.8,0,2018,5,1,22,19,32.444,-0.2424,0.5938,-0.4762,0.6014
0.155,0.04,-0.149,14,44.5,-10.1,0,2018,5,1,22,19,32.483,-0.2487,0.5927,-0.4725,0.6028
0.206,0.034,-0.129,13.3,44.8,-5.6,0,2018,5,1,22,19,32.505,-0.2554,0.5914,-0.468,0.6048
0.222,-0.078,-0.082,14.7,51.3,-0.8,0,2018,5,1,22,19,32.509,-0.2616,0.5905,-0.4628,0.607
0.177,-0.213,-0.024,16.4,76.1,-1.3,0,2018,5,1,22,19,32.546,-0.2695,0.5893,-0.4553,0.6105
0.123,-0.271,0.079,14.2,98.9,-7.1,0,2018,5,1,22,19,32.55,-0.2803,0.5863,-0.4455,0.6156
0.103,-0.259,0.121,7.3,117.7,-11.6,0,2018,5,1,22,19,32.565,-0.2932,0.5813,-0.4342,0.6223
0.109,-0.138,0.135,-1.1,133.1,-13.7,0,2018,5,1,22,19,32.601,-0.3078,0.5741,-0.4216,0.6306
0.133,-0.121,0.147,-11,162.4,-12.5,0,2018,5,1,22,19,32.621,-0.3236,0.5643,-0.4069,0.6412
0.113,-0.039,0.113,-16,175.8,-10.7,0,2018,5,1,22,19,32.622,-0.3409,0.5519,-0.3894,0.6537
0.114,-0.016,0.045,-15.2,162.5,-9.1,0,2018,5,1,22,19,32.656,-0.3572,0.539,-0.3717,0.666
0.042,-0.059,-0.038,-12.3,157.4,-7,0,2018,5,1,22,19,32.677,-0.3725,0.5267,-0.355,0.6765
0.062,-0.113,-0.034,-16.4,165.8,-3.8,0,2018,5,1,22,19,32.684,-0.387,0.5141,-0.3378,0.6867
0.124,-0.051,-0.081,-14.1,175.8,-3,0,2018,5,1,22,19,32.721,-0.4023,0.5001,-0.3185,0.6975
0.157,0.115,-0.129,-7.1,150,1.4,0,2018,5,1,22,19,32.741,-0.4163,0.487,-0.2997,0.7067
0.102,0.126,-0.138,0.1,111.4,7.4,0,2018,5,1,22,19,32.744,-0.4264,0.4778,-0.2837,0.7136
0.012,0.058,-0.029,-1.2,85.3,13.5,0,2018,5,1,22,19,32.78,-0.4331,0.4717,-0.2711,0.7185
0.044,0.122,-0.05,-1.3,101.3,16.6,0,2018,5,1,22,19,32.8,-0.4387,0.4653,-0.2578,0.7242
0.016,0.123,-0.052,2.5,93.4,13.3,0,2018,5,1,22,19,32.804,-0.4447,0.4586,-0.2433,0.7298
-0.058,0.096,0.035,3.9,60.4,11.2,0,2018,5,1,22,19,32.838,-0.4493,0.4538,-0.2313,0.7338
-0.064,0.08,0.091,3.4,34.5,3.6,0,2018,5,1,22,19,32.858,-0.4521,0.4508,-0.2233,0.7364
-0.037,0.124,0.174,1.2,12.9,-2.7,0,2018,5,1,22,19,32.866,-0.4545,0.4492,-0.2204,0.7368
-0.043,0.276,0.362,-5.9,-14,-3.9,0,2018,5,1,22,19,32.9,-0.4555,0.4486,-0.2212,0.7363
0.003,0.706,0.522,-22,-83.3,8,1023,2018,5,1,22,19,32.919,-0.4518,0.4504,-0.228,0.7355
0.024,0.221,0.285,-62.9,-122.8,28,1023,2018,5,1,22,19,32.926,-0.4388,0.4547,-0.2451,0.7352
0.272,0.051,-0.055,-85.1,-4.3,52.7,1023,2018,5,1,22,19,32.959,-0.4249,0.4516,-0.2564,0.7413
0.029,0.018,0.153,-75.3,88.6,60.9,1023,2018,5,1,22,19,32.979,-0.4183,0.4389,-0.2506,0.7546
-0.132,-0.121,-0.398,-38.2,-11.8,43.6,1023,2018,5,1,22,19,32.988,-0.4126,0.4308,-0.245,0.7642
-0.221,-0.842,-0.758,-24.3,-1.7,9.6,1023,2018,5,1,22,19,33.024,-0.4066,0.4295,-0.2484,0.767
-0.024,-0.452,-0.533,-11.6,62.9,-21.4,1023,2018,5,1,22,19,33.042,-0.4105,0.4237,-0.245,0.7693
0.094,-0.119,-0.389,3.3,22,-31.6,1023,2018,5,1,22,19,33.044,-0.4179,0.4185,-0.2416,0.7692
0.157,-0.011,-0.348,22.5,-4.6,-26.7,1023,2018,5,1,22,19,33.077,-0.4231,0.4187,-0.2421,0.7661
0.061,-0.028,-0.103,30.9,1.2,-21.7,1023,2018,5,1,22,19,33.098,-0.4272,0.4218,-0.2425,0.762
0.055,0.058,0.171,27.6,16.7,-19.4,1023,2018,5,1,22,19,33.108,-0.4323,0.4238,-0.2403,0.7586
0.074,0.135,0.301,18.4,6.7,-14.3,1023,2018,5,1,22,19,33.143,-0.4368,0.4251,-0.2382,0.7561
0.093,0.095,0.285,11,3,-9.6,0,2018,5,1,22,19,33.162,-0.4396,0.4261,-0.2378,0.754
0.077,0.054,0.224,7.3,7.2,-6.7,0,2018,5,1,22,19,33.169,-0.4418,0.4264,-0.2372,0.7527
0.087,0.047,0.147,6.7,12.9,-4.9,0,2018,5,1,22,19,33.202,-0.4441,0.426,-0.2359,0.752
0.078,0.032,0.141,5.5,14,-3.2,0,2018,5,1,22,19,33.222,-0.4462,0.4255,-0.2341,0.7516
0.051,-0.032,0.104,2.6,12.5,-2.1,0,2018,5,1,22,19,33.229,-0.448,0.4247,-0.2323,0.7515
0.045,-0.092,0.049,0.3,15.4,-6.3,0,2018,5,1,22,19,33.268,-0.45,0.4233,-0.2306,0.7517
0.064,-0.098,0.078,1,19.2,-16.3,0,2018,5,1,22,19,33.269,-0.4532,0.4212,-0.2295,0.7512
0.168,0.091,0.086,1.5,6.1,-20.8,0,2018,5,1,22,19,33.287,-0.4574,0.419,-0.2291,0.75
0.367,0.31,-0.079,17.5,-55.2,-3.9,0,2018,5,1,22,19,33.321,-0.4582,0.4219,-0.2329,0.7467
0.212,0.189,0.284,2.1,-42.4,39.9,0,2018,5,1,22,19,33.343,-0.4522,0.4287,-0.2379,0.745
0.12,0.131,0.021,-16.2,13.3,57.1,0,2018,5,1,22,19,33.347,-0.445,0.4297,-0.2363,0.7492
0.083,0.179,0.097,-7.3,-9,57.9,0,2018,5,1,22,19,33.381,-0.4376,0.4297,-0.2321,0.7549
-0.14,-0.2,-0.027,0.5,-44.5,43.1,0,2018,5,1,22,19,33.401,-0.4281,0.4342,-0.2328,0.7575
-0.149,-0.339,-0.169,0.1,17.1,18.8,0,2018,5,1,22,19,33.41,-0.4234,0.4365,-0.2325,0.7589
-0.032,-0.165,-0.074,-1.1,35.8,-2.5,0,2018,5,1,22,19,33.448,-0.4254,0.4341,-0.2279,0.7606
0.045,-0.134,-0.125,-0.1,11.4,-10.7,0,2018,5,1,22,19,33.468,-0.4285,0.4318,-0.2256,0.7608
0.088,-0.158,-0.152,2.4,-0.9,-12.7,0,2018,5,1,22,19,33.473,-0.4308,0.4311,-0.2261,0.7598
0.085,-0.172,-0.119,6.8,-5.7,-15,0,2018,5,1,22,19,33.49,-0.4327,0.4313,-0.2274,0.7581
0.098,-0.024,-0.029,11.2,-12.4,-15.3,0,2018,5,1,22,19,33.51,-0.4348,0.4325,-0.2291,0.7558
0.101,0.001,0,11.6,-25.9,-14.8,0,2018,5,1,22,19,33.552,-0.4363,0.4347,-0.2324,0.7526
0.103,0.075,0.021,10.9,-27.9,-11.4,0,2018,5,1,22,19,33.571,-0.4368,0.4371,-0.2358,0.7499
0.08,0.042,0.001,9.2,-19.2,-8,0,2018,5,1,22,19,33.575,-0.4371,0.4394,-0.239,0.7474
0.07,0.024,-0.016,10.3,-8.7,-6.6,1023,2018,5,1,22,19,33.595,-0.4377,0.4412,-0.2403,0.7456
0.033,0.024,-0.009,12.3,-3,-5.1,1023,2018,5,1,22,19,33.615,-0.4385,0.4429,-0.2403,0.7441
0.021,0.048,0.016,13.9,-4.6,-4.1,1023,2018,5,1,22,19,33.633,-0.4396,0.4445,-0.2394,0.7428
0.027,-0.017,-0.022,15.3,-12.8,-4.2,1023,2018,5,1,22,19,33.654,-0.4399,0.4472,-0.2396,0.7409
0.031,0.039,-0.02,14.8,-18.2,-1.6,1023,2018,5,1,22,19,33.692,-0.4397,0.4504,-0.2403,0.7388
0.039,0,-0.075,15.7,-15.2,-1.1,1023,2018,5,1,22,19,33.713,-0.4392,0.454,-0.2415,0.7365
0.044,-0.006,-0.041,17.9,-11.5,-0.6,1023,2018,5,1,22,19,33.717,-0.439,0.4576,-0.2421,0.7342
0.03,0.039,-0.026,21.2,-16.6,-0.3,1023,2018,5,1,22,19,33.736,-0.4387,0.4613,-0.2421,0.732
0.048,0.043,-0.025,24.4,-28.1,-2.2,1023,2018,5,1,22,19,33.752,-0.438,0.4661,-0.243,0.7291
0.039,0.043,0.021,26.7,-44.6,-5.3,1023,2018,5,1,22,19,33.792,-0.4364,0.4721,-0.2457,0.7253
0.021,0.031,0.025,27.9,-61.3,-6.4,1023,2018,5,1,22,19,33.811,-0.4339,0.4793,-0.2503,0.7205
0.021,-0.003,0.027,25.6,-69.3,-4.7,1023,2018,5,1,22,19,33.816,-0.4304,0.4873,-0.2567,0.715
0.036,-0.146,0.015,18.7,-43.1,-1.8,0,2018,5,1,22,19,33.854,-0.4269,0.4942,-0.2628,0.7101
0.029,-0.23,0.044,11.8,13.6,-0.6,0,2018,5,1,22,19,33.873,-0.4269,0.4973,-0.2643,0.7074
0.053,0.009,0.13,8.6,49.2,-7.5,0,2018,5,1,22,19,33.878,-0.4319,0.4948,-0.2593,0.708
0.029,0.055,0.202,5.9,-2,-10.8,0,2018,5,1,22,19,33.897,-0.4357,0.4933,-0.2566,0.7077
0.011,-0.08,0.122,5.5,-35,-12.9,0,2018,5,1,22,19,33.916,-0.4357,0.4951,-0.26,0.7051
0.077,-0.076,0.107,0,-0.1,-11,0,2018,5,1,22,19,33.956,-0.436,0.4959,-0.2634,0.7032
0.111,0.002,0.129,-1.5,31.4,-9.2,0,2018,5,1,22,19,33.975,-0.4389,0.4937,-0.262,0.7034
0.08,0.056,0.101,-0.9,29,-8.8,0,2018,5,1,22,19,33.979,-0.4429,0.4907,-0.2591,0.7041
0.096,-0.011,0.079,-2.3,23.7,-7.7,0,2018,5,1,22,19,33.995,-0.4463,0.4879,-0.2568,0.7047
0.121,-0.037,0.052,-6,32.8,-2.8,0,2018,5,1,22,19,34.031,-0.4497,0.4847,-0.2544,0.7057
0.156,-0.032,0.033,-9.9,48.1,1.6,0,2018,5,1,22,19,34.048,-0.453,0.4803,-0.2501,0.7081
0.203,-0.075,0.017,-6.3,48.6,0.5,0,2018,5,1,22,19,34.055,-0.4569,0.4752,-0.2447,0.7109
0.228,-0.06,0,1.4,37.2,-0.6,0,2018,5,1,22,19,34.094,-0.4606,0.4713,-0.2395,0.7128
0.187,-0.113,-0.002,5.9,25.3,-0.6,0,2018,5,1,22,19,34.114,-0.4636,0.4694,-0.2358,0.7134
0.155,-0.082,0.01,5.2,36.7,2.2,0,2018,5,1,22,19,34.118,-0.466,0.4677,-0.2313,0.7144
0.13,-0.089,0.02,3.6,45,0.7,0,2018,5,1,22,19,34.156,-0.4696,0.4649,-0.2257,0.7157
0.12,-0.043,0.04,3.9,44,-2,0,2018,5,1,22,19,34.176,-0.4738,0.4614,-0.2199,0.717
0.052,-0.041,0.089,0.9,37.6,-3.5,0,2018,5,1,22,19,34.181,-0.4774,0.4582,-0.2149,0.7181
-0.002,-0.071,0.059,-9.5,78,-5.5,0,2018,5,1,22,19,34.196,-0.4824,0.4526,-0.2085,0.7203
0.068,-0.004,-0.037,-11.6,109,-12.1,0,2018,5,1,22,19,34.217,-0.4906,0.4429,-0.1981,0.7237
0.079,0.106,0.074,-12.3,124,-12.7,0,2018,5,1,22,19,34.237,-0.5012,0.4302,-0.1848,0.7276
0.068,0.226,0.143,-10.9,82.8,-7.7,0,2018,5,1,22,19,34.256,-0.51,0.4191,-0.1731,0.7308
0.056,0.076,0.051,-6,39.2,-2.3,1023,2018,5,1,22,19,34.278,-0.5145,0.4125,-0.1667,0.7329
0.041,0.131,0.08,-5.7,17.6,6.6,1023,2018,5,1,22,19,34.297,-0.5162,0.4089,-0.1628,0.7346
0.047,0.24,0.105,-4.5,-28.9,13.5,1023,2018,5,1,22,19,34.319,-0.5144,0.409,-0.1632,0.7357
0.023,0.104,0.073,-5.2,-65.7,14,1023,2018,5,1,22,19,34.339,-0.5089,0.4133,-0.1692,0.7358
0.028,0.06,0.051,-5.7,-61.2,16.6,1023,2018,5,1,22,19,34.358,-0.5023,0.4182,-0.1762,0.7359
0.041,0.057,0.02,-4.3,-66,17.5,1023,2018,5,1,22,19,34.397,-0.4952,0.4233,-0.1826,0.7362
0.068,0.03,-0.008,-2.8,-69.6,18.5,1023,2018,5,1,22,19,34.416,-0.4878,0.4291,-0.1901,0.736
0.08,-0.029,-0.048,-0.4,-69,19.7,1023,2018,5,1,22,19,34.42,-0.48,0.4356,-0.198,0.7352
0.093,0.01,-0.035,4,-66.5,20.5,1023,2018,5,1,22,19,34.44,-0.4728,0.4421,-0.2053,0.734
0.038,-0.098,0.015,1.1,-72.2,18.4,1023,2018,5,1,22,19,34.459,-0.4652,0.4488,-0.2129,0.7326
0.076,-0.071,0.051,-0.5,-44,13.8,1023,2018,5,1,22,19,34.479,-0.4589,0.4539,-0.2193,0.7315
0.08,-0.053,0.067,-2.7,-53.1,10.8,1023,2018,5,1,22,19,34.499,-0.4538,0.4574,-0.2244,0.731
0.102,-0.067,0.043,-2.6,-54.2,7.6,1023,2018,5,1,22,19,34.519,-0.4487,0.4611,-0.2313,0.7296
0.089,-0.058,0.001,-0.9,-52.7,6.3,1023,2018,5,1,22,19,34.54,-0.4439,0.4648,-0.2381,0.728
0.088,-0.063,-0.034,0.9,-54.9,6.3,1023,2018,5,1,22,19,34.58,-0.4393,0.4691,-0.2452,0.7257
0.069,-0.067,-0.052,1.6,-40.1,6.6,0,2018,5,1,22,19,34.599,-0.4347,0.4734,-0.2512,0.7236
0.037,-0.065,-0.03,1.6,-27.9,4.6,0,2018,5,1,22,19,34.603,-0.4313,0.4767,-0.2553,0.7221
0.015,-0.097,-0.033,0.6,-10.6,1.8,0,2018,5,1,22,19,34.623,-0.4295,0.4787,-0.2578,0.7209
0.035,-0.051,-0.031,1.3,4.5,-1.7,0,2018,5,1,22,19,34.642,-0.4295,0.4792,-0.2584,0.7204
0.065,-0.03,-0.014,3.2,12.6,-4.2,0,2018,5,1,22,19,34.678,-0.431,0.4788,-0.2576,0.7201
0.077,-0.062,-0.011,5.5,12.3,-4.9,0,2018,5,1,22,19,34.698,-0.4331,0.4781,-0.2565,0.7196
0.084,-0.015,0.028,5.1,18.6,-3.5,0,2018,5,1,22,19,34.701,-0.4355,0.4772,-0.2547,0.7194
0.094,-0.023,0.127,-0.7,22.9,-1.4,0,2018,5,1,22,19,34.719,-0.4379,0.4754,-0.2522,0.72
0.089,-0.025,0.157,-5.1,14.7,-1.9,0,2018,5,1,22,19,34.74,-0.4398,0.4733,-0.2502,0.7209
0.073,-0.101,0.128,-6.7,9.5,-3.2,0,2018,5,1,22,19,34.776,-0.441,0.4715,-0.2495,0.7216
0.069,-0.034,0.162,-10.4,6.5,-4.3,0,2018,5,1,22,19,34.798,-0.4422,0.4695,-0.2496,0.7222
0.056,-0.008,0.166,-16.2,5.9,-5,0,2018,5,1,22,19,34.8,-0.4427,0.4672,-0.2503,0.7231
0.077,-0.035,0.109,-22.5,13.9,-5,0,2018,5,1,22,19,34.837,-0.4434,0.4638,-0.2512,0.7246
0.046,-0.078,0.068,-30,43.1,-4.4,0,2018,5,1,22,19,34.857,-0.4453,0.4578,-0.2502,0.7276
0.043,-0.076,0.039,-37,84.5,-5.4,0,2018,5,1,22,19,34.861,-0.4499,0.4478,-0.2452,0.7326
0.058,-0.008,0.039,-39.8,106.4,-7.7,0,2018,5,1,22,19,34.897,-0.4571,0.4344,-0.2362,0.7392
0.038,-0.05,0.025,-48.1,114.5,-10.3,0,2018,5,1,22,19,34.917,-0.4649,0.4192,-0.2262,0.7462
0.136,0.046,0.077,-46.2,104.5,-12.7,0,2018,5,1,22,19,34.921,-0.4731,0.403,-0.2163,0.7529
0.114,0.045,0.115,-44.9,67.2,-13.1,0,2018,5,1,22,19,34.941,-0.4791,0.3894,-0.2098,0.758
0.077,-0.059,-0.006,-45,49,-14.5,0,2018,5,1,22,19,34.96,-0.4832,0.378,-0.2072,0.7619
0.082,-0.121,-0.114,-39.9,48.3,-15.1,0,2018,5,1,22,19,34.99,-0.487,0.3677,-0.2057,0.765
0.092,-0.092,-0.133,-33.4,49.7,-15.8,1023,2018,5,1,22,19,34.999,-0.491,0.358,-0.2034,0.7676
0.105,0.016,-0.143,-24.6,50.9,-15.1,1023,2018,5,1,22,19,35.036,-0.4954,0.3492,-0.2001,0.7697
0.097,0.081,-0.118,-16,37.9,-11,1023,2018,5,1,22,19,35.057,-0.4994,0.3422,-0.1971,0.7711
0.09,0.13,-0.144,-5.7,18.2,-6.7,1023,2018,5,1,22,19,35.061,-0.502,0.3379,-0.1948,0.7718
0.079,0.226,-0.225,10.4,-12,0.3,1023,2018,5,1,22,19,35.085,-0.5026,0.338,-0.1937,0.7716
0.054,0.276,-0.26,28.7,-63.2,8.4,1023,2018,5,1,22,19,35.104,-0.5003,0.3444,-0.1963,0.7697
-0.023,0.206,-0.133,39.7,-108.4,17.8,1023,2018,5,1,22,19,35.142,-0.4944,0.3573,-0.2044,0.7655
-0.109,0.084,-0.05,42.8,-131.7,25.9,1023,2018,5,1,22,19,35.161,-0.4852,0.3742,-0.2158,0.7601
-0.118,0.036,-0.06,37.6,-125.1,31.8,1023,2018,5,1,22,19,35.166,-0.4743,0.3914,-0.2275,0.755
-0.084,0.043,-0.094,34.5,-128.7,33.3,1023,2018,5,1,22,19,35.201,-0.4628,0.4076,-0.2389,0.75
-0.053,0.049,-0.037,35.3,-152,29.1,1023,2018,5,1,22,19,35.222,-0.4496,0.4253,-0.2514,0.744
-0.06,-0.06,0.101,31.8,-174.2,21.8,1023,2018,5,1,22,19,35.226,-0.4351,0.4439,-0.2676,0.7361
-0.093,-0.21,0.188,22.1,-147.7,14.5,1023,2018,5,1,22,19,35.244,-0.4212,0.4603,-0.2847,0.7276
-0.011,-0.165,0.084,17.3,-105.5,8.3,0,2018,5,1,22,19,35.263,-0.4113,0.4719,-0.2983,0.7204
-0.007,-0.159,0.01,10.1,-43.5,9.2,0,2018,5,1,22,19,35.302,-0.405,0.4793,-0.3065,0.7156
-0.002,-0.022,0.01,10.6,17.9,8.2,0,2018,5,1,22,19,35.323,-0.4041,0.4817,-0.3062,0.7147
0.049,0.035,0.111,8.1,5.4,3.9,0,2018,5,1,22,19,35.327,-0.4057,0.4817,-0.3029,0.7152
0.005,-0.176,0.191,-5.7,16.7,3.8,0,2018,5,1,22,19,35.347,-0.4061,0.4816,-0.3016,0.7155
0.073,-0.162,0.126,-16.8,75,0,0,2018,5,1,22,19,35.368,-0.4096,0.4766,-0.2966,0.7189
0.143,-0.177,0.107,-23.8,109.5,-4.6,0,2018,5,1,22,19,35.387,-0.417,0.4669,-0.2864,0.7252
0.164,-0.207,0.133,-24.5,108.4,-14.9,0,2018,5,1,22,19,35.407,-0.4263,0.4551,-0.2748,0.7317
0.144,-0.296,0.114,-29.8,116.2,-21.9,0,2018,5,1,22,19,35.445,-0.4361,0.4425,-0.2645,0.7375
0.131,-0.419,0.081,-41,172,-28,0,2018,5,1,22,19,35.466,-0.4486,0.4258,-0.251,0.7444
0.2,-0.26,0.11,-43.4,212,-35.5,0,2018,5,1,22,19,35.47,-0.4656,0.4031,-0.2308,0.7532
0.223,-0.159,0.09,-42.7,190.5,-42.7,0,2018,5,1,22,19,35.486,-0.4834,0.3788,-0.2101,0.7606
0.186,-0.242,0.002,-43.1,182,-50,0,2018,5,1,22,19,35.522,-0.4998,0.3557,-0.1927,0.7657
0.161,-0.133,0.044,-36.5,168.3,-58.1,0,2018,5,1,22,19,35.542,-0.5165,0.3331,-0.1756,0.7689
0.156,-0.171,-0.052,-31.8,175,-69.9,0,2018,5,1,22,19,35.546,-0.5336,0.311,-0.16,0.7699
0.149,-0.038,-0.201,-17.6,196.9,-80,0,2018,5,1,22,19,35.586,-0.5532,0.2878,-0.1413,0.7688
0.049,-0.051,-0.059,-5.5,189.7,-88.3,0,2018,5,1,22,19,35.605,-0.5738,0.2653,-0.1204,0.7654
-0.12,-0.156,0.008,-3.5,163.7,-94.2,0,2018,5,1,22,19,35.609,-0.5937,0.246,-0.1024,0.7592
-0.011,0.126,-0.278,2.2,162.4,-87.2,0,2018,5,1,22,19,35.628,-0.6125,0.2275,-0.0842,0.7523
-0.023,0.332,-0.483,13.7,128.7,-76.1,0,2018,5,1,22,19,35.648,-0.6289,0.2115,-0.0676,0.745
-0.133,0.454,-0.462,27.6,94.5,-61.1,0,2018,5,1,22,19,35.666,-0.6421,0.2012,-0.0536,0.7377
-0.167,0.376,-0.372,35.9,70.8,-44.9,1023,2018,5,1,22,19,35.687,-0.652,0.1955,-0.0415,0.7312
-0.136,0.24,-0.234,38.9,50.5,-33.5,1023,2018,5,1,22,19,35.726,-0.6593,0.1932,-0.0309,0.7259
-0.098,0.196,-0.132,38.3,33.9,-25.2,1023,2018,5,1,22,19,35.746,-0.6647,0.1929,-0.0221,0.7214
-0.097,0.255,-0.051,36.1,-0.4,-12,1023,2018,5,1,22,19,35.751,-0.6679,0.1953,-0.0163,0.7179
-0.117,0.172,-0.025,30,-34.9,0.5,1023,2018,5,1,22,19,35.768,-0.668,0.2017,-0.0154,0.716
-0.109,0.089,-0.062,25.8,-50.3,9.1,1023,2018,5,1,22,19,35.789,-0.6659,0.2101,-0.0174,0.7155
-0.125,-0.077,-0.083,20.9,-46.4,10.8,1023,2018,5,1,22,19,35.811,-0.6627,0.2194,-0.0207,0.7156
-0.066,-0.007,-0.034,18.1,-9,9.9,1023,2018,5,1,22,19,35.83,-0.6604,0.2255,-0.0211,0.7158
-0.007,0.174,0.024,16.3,3.3,11.9,1023,2018,5,1,22,19,35.869,-0.6591,0.2276,-0.018,0.7164
0.05,0.252,0.078,17,-18.7,18.9,1023,2018,5,1,22,19,35.89,-0.6571,0.2303,-0.0164,0.7174
0.054,0.132,0.115,17.6,-48.5,23.8,1023,2018,5,1,22,19,35.894,-0.6531,0.2365,-0.018,0.7191
0.037,-0.025,0.126,16.2,-54.8,23.8,1023,2018,5,1,22,19,35.911,-0.648,0.2441,-0.0217,0.721
0.061,-0.104,0.14,12.5,-36.7,17.5,0,2018,5,1,22,19,35.947,-0.6436,0.2511,-0.0256,0.7224
0.081,-0.034,0.12,11.8,-28.2,13.3,0,2018,5,1,22,19,35.968,-0.6406,0.2557,-0.0279,0.7234
0.135,-0.043,0.08,15.3,-34.6,10.5,0,2018,5,1,22,19,35.972,-0.6379,0.2604,-0.0302,0.724
0.12,-0.05,0.064,17.6,-33.7,9.4,0,2018,5,1,22,19,35.988,-0.635,0.2666,-0.0323,0.7242
0.118,-0.107,0.051,17.9,-15.1,6.9,0,2018,5,1,22,19,36.027,-0.6329,0.2716,-0.0332,0.7241
0.087,-0.007,0.119,15.6,3.4,4.5,0,2018,5,1,22,19,36.049,-0.6321,0.2741,-0.0316,0.724
0.081,0.08,0.171,9.7,-6,4.5,0,2018,5,1,22,19,36.053,-0.6317,0.2756,-0.0299,0.7239
0.084,-0.001,0.149,4.3,-12.3,4.6,0,2018,5,1,22,19,36.072,-0.6306,0.2777,-0.0303,0.724
0.118,-0.003,0.112,2.3,-7.2,4.4,0,2018,5,1,22,19,36.11,-0.6296,0.2792,-0.031,0.7243
0.13,0.027,0.097,1.7,-4.9,3,0,2018,5,1,22,19,36.13,-0.6287,0.2801,-0.0312,0.7246
0.116,0.057,0.077,1.4,-7.1,2.6,0,2018,5,1,22,19,36.134,-0.6282,0.2808,-0.0317,0.7248
0.089,0.099,0.039,1.9,-13.5,4,0,2018,5,1,22,19,36.154,-0.6276,0.282,-0.0328,0.7248
0.059,0.095,0.029,2.9,-16.5,6.3,0,2018,5,1,22,19,36.175,-0.6261,0.2833,-0.0336,0.7256
0.035,0.059,0.013,4.8,-19.5,8.3,0,2018,5,1,22,19,36.19,-0.6242,0.2854,-0.0346,0.7263
0.003,0.052,-0.003,4.7,-15.1,9.4,0,2018,5,1,22,19,36.229,-0.6221,0.2878,-0.0352,0.7271
-0.025,0.037,0.023,3.1,-10.8,8.9,0,2018,5,1,22,19,36.248,-0.62,0.2899,-0.0351,0.7281
-0.026,0.03,0.01,1.2,-11.3,6.4,0,2018,5,1,22,19,36.252,-0.6182,0.2916,-0.0349,0.729
-0.007,0.011,-0.002,0.8,-11.4,4.9,0,2018,5,1,22,19,36.29,-0.6166,0.2935,-0.0354,0.7296
0.001,0.02,0.031,-0.7,-14.9,3.1,0,2018,5,1,22,19,36.31,-0.6152,0.295,-0.0363,0.7301
-0.028,-0.065,0.062,-5.2,-9,1.1,0,2018,5,1,22,19,36.314,-0.6142,0.2963,-0.0381,0.7303
-0.011,0.002,0.074,-12,-4.5,-1.1,0,2018,5,1,22,19,36.351,-0.6138,0.2959,-0.0395,0.7307
0.028,0.083,0.044,-16.6,-14.8,-0.1,0,2018,5,1,22,19,36.371,-0.6133,0.2945,-0.0418,0.7315
0.062,0.057,-0.016,-18.4,-27,4.8,1023,2018,5,1,22,19,36.375,-0.6116,0.2944,-0.046,0.7328
0.116,0.088,-0.09,-12,-43.1,10,1023,2018,5,1,22,19,36.396,-0.6088,0.2955,-0.051,0.7344
0.149,0.05,-0.101,-8.1,-46.1,16.9,1023,2018,5,1,22,19,36.415,-0.6046,0.2992,-0.0578,0.7358
0.181,0.111,-0.055,-2.2,-49.9,22.8,1023,2018,5,1,22,19,36.431,-0.5995,0.3035,-0.0634,0.7378
0.176,0.149,-0.05,7.6,-74.2,30.4,1023,2018,5,1,22,19,36.472,-0.593,0.3103,-0.0694,0.7397
0.157,0.03,-0.039,17.7,-122.5,32.3,1023,2018,5,1,22,19,36.492,-0.5836,0.3225,-0.0794,0.7409
0.134,-0.055,-0.02,24.3,-159.1,32.4,1023,2018,5,1,22,19,36.496,-0.5716,0.3402,-0.0941,0.7406
0.109,-0.091,0.037,22.3,-168.9,30.5,1023,2018,5,1,22,19,36.514,-0.5578,0.3602,-0.1113,0.7393
0.052,-0.186,0.09,14.3,-157.5,25.7,1023,2018,5,1,22,19,36.535,-0.5439,0.3792,-0.129,0.7373
0.044,-0.233,0.069,6.7,-116.8,21.6,1023,2018,5,1,22,19,36.555,-0.5318,0.3939,-0.144,0.7356
0,-0.118,0.052,4.2,-87.3,17.7,1023,2018,5,1,22,19,36.594,-0.5227,0.4041,-0.1553,0.7343
0.061,0.004,0.024,6.3,-116.6,11.3,1023,2018,5,1,22,19,36.615,-0.5141,0.414,-0.1668,0.7323
0.064,0.009,0.009,12.9,-139.4,9.2,0,2018,5,1,22,19,36.619,-0.5039,0.4264,-0.1818,0.7287
0.017,0.019,-0.005,16.3,-153.4,9.9,0,2018,5,1,22,19,36.655,-0.492,0.4416,-0.1983,0.7235
0.022,-0.054,-0.034,19.4,-166.4,8.6,0,2018,5,1,22,19,36.677,-0.4787,0.458,-0.2162,0.7171
-0.004,-0.05,0.003,22.8,-172.3,7.8,0,2018,5,1,22,19,36.681,-0.4648,0.4752,-0.2351,0.709
0.004,0.262,0.098,26.7,-211.2,12.2,0,2018,5,1,22,19,36.695,-0.4489,0.493,-0.255,0.7001
-0.079,0.236,0.076,21.5,-267.4,17.3,0,2018,5,1,22,19,36.714,-0.4265,0.5158,-0.2819,0.6873
-0.051,0.034,0.043,12,-246.2,13.5,0,2018,5,1,22,19,36.735,-0.4017,0.5374,-0.3097,0.6736
-0.043,-0.133,0.059,-2,-179.9,6.7,0,2018,5,1,22,19,36.772,-0.3804,0.553,-0.3333,0.662
-0.006,0.04,-0.043,-3.7,-117.4,3.6,0,2018,5,1,22,19,36.792,-0.3656,0.5624,-0.3494,0.654
-0.01,-0.081,-0.089,-5.7,-59.8,1.1,0,2018,5,1,22,19,36.797,-0.3561,0.5682,-0.36,0.6485
0.011,-0.03,-0.081,-6.7,4.5,1.4,0,2018,5,1,22,19,36.817,-0.3532,0.5695,-0.3634,0.6471
0.032,-0.047,-0.068,-4.9,57.5,2.4,0,2018,5,1,22,19,36.838,-0.3562,0.5672,-0.3603,0.6492
0.039,-0.044,0.034,-1.8,90,2.9,0,2018,5,1,22,19,36.859,-0.3636,0.5622,-0.3519,0.654
0.011,-0.118,0.104,-3.7,114.2,-1.7,0,2018,5,1,22,19,36.894,-0.3738,0.5549,-0.3402,0.6607
-0.015,-0.226,0.022,-14.4,161.1,-3.2,0,2018,5,1,22,19,36.898,-0.3873,0.5442,-0.3254,0.6692
0.055,-0.139,-0.042,-14.5,206.3,-7.8,0,2018,5,1,22,19,36.917,-0.405,0.529,-0.3054,0.6802
0.097,0.03,0.047,-16.4,199.4,-7.9,0,2018,5,1,22,19,36.954,-0.4245,0.5115,-0.283,0.6913
0.133,0.282,0.195,-17.5,155.1,-2.5,0,2018,5,1,22,19,36.974,-0.4405,0.4954,-0.2627,0.701
0.103,0.198,0.238,-22.3,83.3,1.9,0,2018,5,1,22,19,36.978,-0.4496,0.4839,-0.2503,0.7077
0.116,0.158,0.134,-22.6,45.4,7.1,0,2018,5,1,22,19,36.999,-0.4535,0.4762,-0.2441,0.7126
0.105,0.117,0.064,-20.2,14.7,14,0,2018,5,1,22,19,37.018,-0.4537,0.4716,-0.2414,0.7164
0.054,0.174,0.081,-10.6,-31.4,18.1,1023,2018,5,1,22,19,37.057,-0.4506,0.4709,-0.2421,0.7186
0.03,0.207,0.156,-5.7,-98.2,18.8,1023,2018,5,1,22,19,37.076,-0.4427,0.4758,-0.2494,0.7178
0.007,0.251,0.098,-0.2,-187.6,19.1,1023,2018,5,1,22,19,37.08,-0.428,0.4874,-0.2662,0.7129
0.025,0.164,-0.176,5.4,-232.4,18.8,1023,2018,5,1,22,19,37.118,-0.4071,0.5042,-0.2908,0.7038
-0.021,-0.14,-0.292,9.8,-241.8,14.4,1023,2018,5,1,22,19,37.122,-0.3841,0.5232,-0.3181,0.6909
0.036,0,-0.167,16,-249.8,5.8,1023,2018,5,1,22,19,37.138,-0.3621,0.5402,-0.3447,0.6768
-0.176,-0.058,-0.09,11,-296.7,9.9,1023,2018,5,1,22,19,37.156,-0.3353,0.5595,-0.3759,0.658
-0.017,-0.224,-0.034,10.9,-234.3,5.3,1023,2018,5,1,22,19,37.176,-0.3082,0.5768,-0.4054,0.6385
0.057,-0.031,-0.166,13.7,-128.7,5,1023,2018,5,1,22,19,37.214,-0.2908,0.5879,-0.4245,0.6241
0.098,-0.187,-0.153,11.4,-34.2,5.4,1023,2018,5,1,22,19,37.235,-0.2836,0.5936,-0.4319,0.6169
0.09,-0.067,-0.04,12.8,22.2,5.3,1023,2018,5,1,22,19,37.238,-0.2844,0.5953,-0.431,0.6155
0.118,-0.036,-0.044,14.6,30.6,3.8,0,2018,5,1,22,19,37.276,-0.2889,0.5954,-0.4273,0.6158
0.132,-0.005,-0.013,15.9,9.3,3,0,2018,5,1,22,19,37.298,-0.2924,0.5961,-0.4245,0.6154
0.099,-0.11,-0.017,14.2,-2.6,2.4,0,2018,5,1,22,19,37.302,-0.2942,0.5976,-0.424,0.6135
0.07,-0.124,-0.086,12.6,6.8,0.8,0,2018,5,1,22,19,37.32,-0.2957,0.5989,-0.4233,0.6119
0.051,-0.08,-0.011,9.8,28.6,0.2,0,2018,5,1,22,19,37.34,-0.2988,0.5992,-0.4212,0.6116
0.033,-0.07,0.053,4.5,51.2,-0.8,0,2018,5,1,22,19,37.362,-0.3043,0.5975,-0.4165,0.6138
0.016,-0.083,0.046,1.5,62.6,-1.5,0,2018,5,1,22,19,37.38,-0.3111,0.594,-0.4102,0.618
0.034,-0.015,0.012,0.3,65.2,-1.1,0,2018,5,1,22,19,37.399,-0.3184,0.5902,-0.4035,0.6224
0.002,-0.01,0.077,-1.3,60,1.5,0,2018,5,1,22,19,37.418,-0.3249,0.5865,-0.3964,0.627
0.024,-0.027,-0.007,-2.5,76.2,-0.3,0,2018,5,1,22,19,37.44,-0.3322,0.582,-0.3887,0.6322
0.024,-0.036,-0.129,-2.3,111.2,1.7,0,2018,5,1,22,19,37.46,-0.3415,0.5765,-0.3787,0.6383
-0.012,-0.001,-0.048,-0.2,131.7,0.9,0,2018,5,1,22,19,37.499,-0.3533,0.5695,-0.3647,0.6462
0,0.069,0.022,0.9,134.5,0.7,0,2018,5,1,22,19,37.518,-0.3668,0.5612,-0.3491,0.6546
0.023,0.206,0.117,2.5,70.1,3.2,0,2018,5,1,22,19,37.522,-0.3772,0.5546,-0.3365,0.6609
0.001,0.143,0.19,-0.7,-14,8.2,0,2018,5,1,22,19,37.543,-0.3792,0.5535,-0.3334,0.6623
0.009,0.088,0.134,-2.9,-39,11.2,0,2018,5,1,22,19,37.561,-0.3751,0.5558,-0.3361,0.6612
-0.015,0.011,0.065,-6.5,-36.3,11.6,0,2018,5,1,22,19,37.602,-0.3699,0.5582,-0.3395,0.6605
-0.061,-0.059,0.047,-9.9,2.5,6.9,0,2018,5,1,22,19,37.622,-0.3667,0.5588,-0.3408,0.6611
-0.037,0.002,-0.013,-9,27.5,3.5,0,2018,5,1,22,19,37.626,-0.3672,0.557,-0.3385,0.6635
-0.032,0.084,-0.032,-2.9,32.9,1.1,0,2018,5,1,22,19,37.639,-0.3693,0.5549,-0.3345,0.6661
-0.013,0.137,-0.092,5.8,28.1,-0.3,0,2018,5,1,22,19,37.679,-0.3719,0.5536,-0.33,0.6679
-0.016,-0.026,-0.061,3.9,36.6,0,1023,2018,5,1,22,19,37.699,-0.3749,0.5527,-0.3264,0.6687
0.004,-0.03,-0.013,2.5,63.7,0,1023,2018,5,1,22,19,37.704,-0.3799,0.55,-0.3202,0.6711
-0.007,-0.002,-0.074,2,88.1,-1.9,1023,2018,5,1,22,19,37.723,-0.3875,0.5453,-0.3112,0.6748
0.039,0.017,-0.086,7.8,86.3,-2.2,1023,2018,5,1,22,19,37.745,-0.3961,0.5405,-0.3007,0.6785
0.084,-0.003,0.011,9,92.8,-0.9,1023,2018,5,1,22,19,37.763,-0.4054,0.5354,-0.2902,0.6816
0.153,-0.09,0.115,-5.8,131.7,2.3,1023,2018,5,1,22,19,37.802,-0.4156,0.5277,-0.277,0.687
0.203,-0.109,0.151,-16.7,201.8,2.3,1023,2018,5,1,22,19,37.821,-0.43,0.5139,-0.2573,0.6961
0.261,0.02,0.168,-20.1,212.7,2.5,1023,2018,5,1,22,19,37.826,-0.4482,0.495,-0.2324,0.707
0.231,0.094,0.25,-17.6,153.5,6.1,1023,2018,5,1,22,19,37.844,-0.4629,0.4779,-0.2105,0.7161
0.144,0.013,0.322,-16.3,75,9,1023,2018,5,1,22,19,37.864,-0.4705,0.4671,-0.1974,0.722
0.083,-0.038,0.316,-20,28.6,8.4,1023,2018,5,1,22,19,37.903,-0.4727,0.4612,-0.1921,0.7258
0.081,0.009,0.155,-19.6,20.3,6.1,1023,2018,5,1,22,19,37.923,-0.4728,0.4569,-0.1902,0.729
0.056,0.066,0.038,-17.3,8.6,4.7,1023,2018,5,1,22,19,37.927,-0.4726,0.4531,-0.1892,0.7317
0.037,0.098,0.014,-14.1,2.2,4,0,2018,5,1,22,19,37.942,-0.4721,0.4503,-0.1889,0.7338
-0.003,0.096,-0.043,-3.8,-5.4,5.2,0,2018,5,1,22,19,37.983,-0.471,0.4493,-0.1889,0.7351
-0.067,0.151,-0.012,0.6,-28.8,10.2,0,2018,5,1,22,19,38.003,-0.4683,0.4511,-0.1899,0.7355
-0.12,0.186,0.034,3.4,-51,13,0,2018,5,1,22,19,38.008,-0.4636,0.4551,-0.1939,0.735
-0.242,0.203,-0.048,8.4,-87,6.3,0,2018,5,1,22,19,38.027,-0.4572,0.4618,-0.2016,0.7327
-0.55,-0.273,0.116,-10.3,-80.2,-17,0,2018,5,1,22,19,38.063,-0.4505,0.4685,-0.213,0.7293
-0.352,-0.124,0.333,-38,-76.2,-35.3,0,2018,5,1,22,19,38.084,-0.447,0.4701,-0.2273,0.7262
0.025,0.137,0.162,-40.1,-129.2,-41.9,0,2018,5,1,22,19,38.088,-0.4424,0.4713,-0.2464,0.722
0.328,0.251,-0.11,-34.7,-126.1,-23.7,0,2018,5,1,22,19,38.108,-0.4338,0.4752,-0.2691,0.7165
0.428,0.219,-0.225,-22.9,-71.7,-3.6,0,2018,5,1,22,19,38.127,-0.4258,0.4783,-0.2848,0.7131
0.295,0.132,-0.207,-8.5,-35.4,10,0,2018,5,1,22,19,38.145,-0.4203,0.4804,-0.2917,0.7122
0.242,-0.062,-0.107,-1.2,-8.6,15.4,0,2018,5,1,22,19,38.165,-0.4169,0.482,-0.2936,0.7124
0.186,-0.15,-0.1,5.9,-7.4,15.3,0,2018,5,1,22,19,38.185,-0.4149,0.4835,-0.293,0.7127
0.151,-0.189,-0.112,11,-5.9,11.1,0,2018,5,1,22,19,38.206,-0.4132,0.4858,-0.2922,0.7126
0.102,-0.263,-0.03,10.9,4.3,3.6,0,2018,5,1,22,19,38.225,-0.4128,0.4876,-0.291,0.712
0.086,-0.2,0.024,9.8,9.3,-3.6,0,2018,5,1,22,19,38.247,-0.4146,0.4882,-0.2894,0.7112
0.056,-0.112,0.099,6.7,10.8,-7.4,0,2018,5,1,22,19,38.266,-0.4174,0.4877,-0.2884,0.7103
0.031,-0.02,0.152,1.4,5.9,-7.3,0,2018,5,1,22,19,38.306,-0.4196,0.4869,-0.2878,0.7098
0.042,0.136,0.095,0.4,-8.7,-3.3,0,2018,5,1,22,19,38.325,-0.4204,0.4867,-0.2884,0.7093
0.006,0.148,0.012,2.8,-24.5,2.2,0,2018,5,1,22,19,38.33,-0.4192,0.4882,-0.2901,0.7082
-0.038,0.127,0.08,0.9,-14.5,7.2,1023,2018,5,1,22,19,38.345,-0.417,0.4901,-0.2914,0.7077
-0.084,0.074,0.105,-7.4,-1.5,10.5,1023,2018,5,1,22,19,38.384,-0.4152,0.4906,-0.2919,0.7082
-0.178,0.121,0.064,-5.2,-17.3,6.2,1023,2018,5,1,22,19,38.404,-0.4136,0.4906,-0.2922,0.709
-0.32,-0.072,0.034,-8.4,-55.3,-10.3,1023,2018,5,1,22,19,38.409,-0.4104,0.4923,-0.2979,0.7073
0.036,0.06,-0.124,-7.3,-58.6,-13.5,1023,2018,5,1,22,19,38.426,-0.4065,0.4951,-0.3075,0.7035
0.16,0.15,-0.054,-3.7,-11.2,0.7,1023,2018,5,1,22,19,38.445,-0.4042,0.4969,-0.3132,0.701
0.046,0.079,0.152,-13.7,19.4,12.2,1023,2018,5,1,22,19,38.483,-0.4043,0.4949,-0.3119,0.703
0.114,0.035,0.038,-10.7,-25.4,11.3,1023,2018,5,1,22,19,38.504,-0.4024,0.4939,-0.312,0.7047
0.132,-0.128,-0.057,-5,-53,8.3,1023,2018,5,1,22,19,38.508,-0.3975,0.4963,-0.3175,0.7033
0.119,-0.212,-0.102,-3.4,-17.3,3,1023,2018,5,1,22,19,38.547,-0.3935,0.4987,-0.3221,0.7018
0.123,-0.134,-0.037,-1.8,15.4,-3,1023,2018,5,1,22,19,38.568,-0.3939,0.4981,-0.3219,0.7021
0.129,-0.095,0.004,0,6.2,-6.1,0,2018,5,1,22,19,38.572,-0.3957,0.4968,-0.321,0.7024
0.146,-0.086,0.014,1.3,-0.7,-6.1,0,2018,5,1,22,19,38.591,-0.3969,0.4964,-0.3214,0.7018
0.129,-0.048,0.016,2.6,-3.8,-6,0,2018,5,1,22,19,38.611,-0.3982,0.496,-0.3226,0.7008
0.109,-0.011,0.013,4.4,2.7,-4.8,0,2018,5,1,22,19,38.63,-0.3997,0.4957,-0.3234,0.6998
0.073,0.031,0.044,5.6,5.5,-3.5,0,2018,5,1,22,19,38.649,-0.4016,0.4952,-0.323,0.6993
0.036,0.049,0.056,5.6,4.5,-1.1,0,2018,5,1,22,19,38.668,-0.403,0.495,-0.3219,0.6991
0.045,0.077,0.043,4.6,8.7,1.8,0,2018,5,1,22,19,38.689,-0.4041,0.4947,-0.3202,0.6994
0.061,0.086,0.038,4.2,10.3,5.3,0,2018,5,1,22,19,38.71,-0.4051,0.4943,-0.3179,0.7002
0.077,0.056,0.02,6.7,13.2,8,0,2018,5,1,22,19,38.75,-0.406,0.4941,-0.3154,0.701
0.061,0.019,-0.024,9,24.2,10.3,0,2018,5,1,22,19,38.769,-0.4071,0.4941,-0.3117,0.702
0.058,0.019,-0.006,9.4,32,12.2,0,2018,5,1,22,19,38.773,-0.409,0.4938,-0.3066,0.7034
0.054,0.037,-0.018,10.4,31.7,12.5,0,2018,5,1,22,19,38.792,-0.4111,0.4932,-0.3008,0.7051
0.039,-0.057,0.001,8.1,30.1,12.5,0,2018,5,1,22,19,38.814,-0.4127,0.4929,-0.2956,0.7065
0.017,-0.111,0.053,6.1,31.1,8,0,2018,5,1,22,19,38.831,-0.4149,0.4919,-0.2905,0.708
0.046,-0.057,0.009,7.5,25.4,6.3,0,2018,5,1,22,19,38.852,-0.417,0.4908,-0.2861,0.7093
0.032,-0.05,0.03,5.8,18.3,3.5,0,2018,5,1,22,19,38.869,-0.4187,0.4902,-0.2826,0.7101
0.049,-0.068,0.035,6.4,18.1,-0.2,0,2018,5,1,22,19,38.905,-0.4208,0.4895,-0.2801,0.7104
0.04,-0.012,0.061,5.6,20.9,-1,0,2018,5,1,22,19,38.925,-0.4234,0.4883,-0.2774,0.7107
0.023,0.026,0.067,4.5,12.2,-1,0,2018,5,1,22,19,38.929,-0.4257,0.4872,-0.2747,0.7112
0.029,0.003,0.034,0.9,18.9,-0.2,0,2018,5,1,22,19,38.968,-0.4272,0.4861,-0.2726,0.7119
0.028,0.042,0.022,0.2,31.2,0.8,0,2018,5,1,22,19,38.991,-0.4295,0.484,-0.269,0.7133
0.018,0.066,0.04,0.6,29.2,1.9,1023,2018,5,1,22,19,38.995,-0.4322,0.4815,-0.2645,0.715
0.017,0.081,0.043,0.3,26.5,3.1,1023,2018,5,1,22,19,39.011,-0.4342,0.4793,-0.2602,0.7168
-0.086,0.027,0.075,0.8,26.7,2.5,1023,2018,5,1,22,19,39.05,-0.4361,0.4773,-0.2556,0.7186
-0.176,0.045,0.044,3.2,11.2,-3.1,1023,2018,5,1,22,19,39.07,-0.4377,0.4762,-0.252,0.7197
-0.242,0.058,-0.01,7.4,-15.7,-15.2,1023,2018,5,1,22,19,39.074,-0.4389,0.4767,-0.2528,0.7183
-0.215,0.087,-0.089,10.2,-35.6,-24.7,1023,2018,5,1,22,19,39.112,-0.4398,0.4791,-0.2572,0.7146
-0.053,0.102,0,6.1,-37,-18,1023,2018,5,1,22,19,39.117,-0.4394,0.4822,-0.2627,0.7108
0.095,0.237,-0.005,5.9,-26.6,0.6,1023,2018,5,1,22,19,39.132,-0.4379,0.485,-0.2665,0.7084
0.228,0.263,-0.075,13.7,-28.5,19.7,1023,2018,5,1,22,19,39.151,-0.435,0.4884,-0.2679,0.7073
0.23,0.162,-0.103,23.9,-50.4,30,1023,2018,5,1,22,19,39.187,-0.4296,0.495,-0.2694,0.7054
0.128,-0.076,-0.041,24.3,-37.7,30.6,1023,2018,5,1,22,19,39.209,-0.4228,0.5031,-0.2707,0.7033
0.113,-0.192,0.072,15.6,3.1,23.3,0,2018,5,1,22,19,39.214,-0.4193,0.5079,-0.2687,0.7027
0.132,-0.189,0.126,7,1.6,15,0,2018,5,1,22,19,39.235,-0.4182,0.5096,-0.2655,0.7033
0.139,-0.232,0.14,0.8,-15.8,9.1,0,2018,5,1,22,19,39.255,-0.4165,0.5111,-0.2653,0.7034
0.131,-0.275,0.137,-3.2,-21,2.8,0,2018,5,1,22,19,39.292,-0.414,0.5127,-0.2674,0.7029
0.061,-0.288,0.155,-7.1,-7.9,-6,0,2018,5,1,22,19,39.311,-0.4129,0.5129,-0.2699,0.7024
-0.022,-0.23,0.177,-10.1,8.1,-16,0,2018,5,1,22,19,39.315,-0.4139,0.5113,-0.2714,0.7025
-0.041,0.044,0.129,-6,1.1,-23.1,0,2018,5,1,22,19,39.336,-0.4168,0.508,-0.2724,0.7027
-0.023,0.073,-0.021,-2.6,-14.1,-24.8,0,2018,5,1,22,19,39.356,-0.4184,0.5075,-0.2756,0.7009
0.062,0.207,0,-6.6,15,-12.8,0,2018,5,1,22,19,39.392,-0.4204,0.506,-0.2771,0.7002
0.04,0.24,0.143,-12.3,20.4,0.7,0,2018,5,1,22,19,39.411,-0.4227,0.5029,-0.2755,0.7017
0.033,0.288,0.094,-6.9,-42.7,7.3,0,2018,5,1,22,19,39.415,-0.4212,0.5023,-0.2768,0.7025
0.047,0.02,0.005,-2.4,-104.7,12.3,0,2018,5,1,22,19,39.435,-0.4126,0.5082,-0.2862,0.6996
0.01,-0.19,-0.11,-1.8,-59,10.5,0,2018,5,1,22,19,39.457,-0.4034,0.5149,-0.2961,0.6959
0.035,-0.196,-0.087,-7.2,5.9,-1.7,0,2018,5,1,22,19,39.476,-0.401,0.516,-0.2988,0.6953
0.097,-0.119,-0.008,-8.8,14,-9.6,0,2018,5,1,22,19,39.495,-0.4029,0.5136,-0.299,0.6959
0.154,-0.13,0.018,-6.7,8.6,-12.3,0,2018,5,1,22,19,39.535,-0.4051,0.5113,-0.2993,0.6963
0.165,-0.188,0.034,-5.7,9.1,-17.1,0,2018,5,1,22,19,39.556,-0.4074,0.5092,-0.3001,0.696
0.16,-0.19,0.043,-6.5,23.6,-23.6,0,2018,5,1,22,19,39.56,-0.4113,0.5061,-0.3006,0.6958
0.166,-0.165,0.052,-8.4,45.1,-28.1,0,2018,5,1,22,19,39.573,-0.4173,0.5013,-0.2993,0.6962
0.181,-0.135,0.076,-10.2,67.4,-30.2,0,2018,5,1,22,19,39.595,-0.4255,0.4944,-0.2957,0.6978
0.176,-0.096,0.066,-9.7,88.3,-29.9,0,2018,5,1,22,19,39.614,-0.4356,0.4856,-0.2895,0.7003
0.168,-0.058,0.044,-10.2,101.8,-27.5,0,2018,5,1,22,19,39.634,-0.4469,0.4755,-0.2811,0.7035
0.158,-0.031,-0.013,-6.8,122.3,-23.6,1023,2018,5,1,22,19,39.656,-0.4592,0.4642,-0.2702,0.7075
0.071,-0.008,-0.014,-3.7,134.9,-19.1,1023,2018,5,1,22,19,39.675,-0.4723,0.4519,-0.2566,0.7119
0.085,0.04,-0.046,-2.1,135.2,-17.4,1023,2018,5,1,22,19,39.695,-0.4851,0.4393,-0.2413,0.7165
0.089,0.089,-0.057,1.4,130.4,-11.3,1023,2018,5,1,22,19,39.732,-0.4969,0.4274,-0.2259,0.7205
0.06,0.086,-0.109,4,140.9,-5.5,1023,2018,5,1,22,19,39.753,-0.5079,0.4157,-0.2092,0.7247
0.051,0.206,-0.109,10.6,123.2,-0.2,1023,2018,5,1,22,19,39.757,-0.5178,0.4048,-0.191,0.7289
0.038,0.22,-0.102,17.3,90.6,6.6,1023,2018,5,1,22,19,39.777,-0.5252,0.397,-0.1751,0.7319
0.045,0.201,-0.071,22.4,67.2,13.6,1023,2018,5,1,22,19,39.797,-0.5297,0.3927,-0.1616,0.7341
0.04,0.19,-0.055,26.6,57.5,21.9,1023,2018,5,1,22,19,39.818,-0.5321,0.3904,-0.149,0.7363
-0.031,0.165,-0.033,27.8,56.6,29.2,1023,2018,5,1,22,19,39.837,-0.5331,0.3892,-0.1367,0.7385
-0.093,0.099,-0.001,26.4,57.8,33.8,0,2018,5,1,22,19,39.857,-0.5335,0.3882,-0.1246,0.7409
-0.114,0.016,0.001,23.8,64.1,32,0,2018,5,1,22,19,39.877,-0.5338,0.3866,-0.1116,0.7436
-0.137,-0.049,0.05,21.8,69.5,23.8,0,2018,5,1,22,19,39.912,-0.5347,0.3845,-0.0981,0.7459
-0.153,0.044,0.14,16.5,62.9,15.5,0,2018,5,1,22,19,39.931,-0.5363,0.3817,-0.0851,0.7478
-0.105,0.207,0.115,12.8,35.9,9.5,0,2018,5,1,22,19,39.937,-0.5385,0.3787,-0.0763,0.7488
-0.142,0.37,0.222,6.4,-32.9,8.7,0,2018,5,1,22,19,39.958,-0.5377,0.3799,-0.0744,0.7489
-0.129,0.308,0.209,-13.3,-105.6,18.8,0,2018,5,1,22,19,39.996,-0.5312,0.3867,-0.0835,0.7491
-0.042,-0.028,0.219,-46,-94.6,31.6,0,2018,5,1,22,19,40.016,-0.52,0.3928,-0.0987,0.7519
0.102,-0.064,0.331,-56.5,-56,31.9,0,2018,5,1,22,19,40.043,-0.51,0.3922,-0.1103,0.7574
0.133,-0.06,-0.104,-27.9,-92.3,19.4,0,2018,5,1,22,19,40.056,-0.5008,0.3932,-0.1217,0.7613
0.108,-0.41,-0.398,-8.8,-99.3,11.3,0,2018,5,1,22,19,40.058,-0.491,0.4008,-0.1366,0.7612
0.124,-0.441,-0.329,-0.9,25.3,7.4,0,2018,5,1,22,19,40.075,-0.4873,0.4034,-0.1411,0.7614
0.061,-0.064,-0.08,0.8,33.4,1.4,0,2018,5,1,22,19,40.095,-0.4898,0.4,-0.1351,0.7627
0.047,-0.189,-0.08,-0.8,-12.5,-3.9,0,2018,5,1,22,19,40.133,-0.4904,0.3998,-0.135,0.7625
0.054,-0.197,-0.112,-0.9,-11,-12.3,0,2018,5,1,22,19,40.154,-0.4905,0.4005,-0.1374,0.7615
0.051,-0.121,-0.061,0.5,1.1,-21,0,2018,5,1,22,19,40.156,-0.4925,0.4005,-0.1393,0.7599
0.065,0.011,-0.001,2.7,9,-25.3,0,2018,5,1,22,19,40.197,-0.4963,0.3997,-0.1405,0.7576
0.075,0.085,0.007,4.3,7.1,-23.9,0,2018,5,1,22,19,40.217,-0.5004,0.3984,-0.1407,0.7556
0.09,0.124,0.005,5,8,-19.6,0,2018,5,1,22,19,40.221,-0.504,0.3972,-0.1402,0.7539
0.114,0.119,0.041,5.4,15.8,-14.7,0,2018,5,1,22,19,40.241,-0.5074,0.3957,-0.1391,0.7526
0.135,0.164,0.114,8.5,24.3,-9.7,0,2018,5,1,22,19,40.261,-0.5108,0.3943,-0.1366,0.7515
0.085,0.25,0.217,8,12.6,0.7,0,2018,5,1,22,19,40.279,-0.5132,0.3935,-0.1337,0.7508
0.106,0.44,0.122,8.9,-27.6,14.6,1023,2018,5,1,22,19,40.298,-0.5121,0.3952,-0.1331,0.7508
0.011,0.166,0.037,0.6,-50.9,26.2,1023,2018,5,1,22,19,40.338,-0.5065,0.4004,-0.137,0.7512
0.113,-0.087,0.105,-8.7,-8.1,34.4,1023,2018,5,1,22,19,40.356,-0.5,0.4033,-0.1399,0.7534
-0.032,0.035,0.292,-5.2,12.1,38,1023,2018,5,1,22,19,40.361,-0.4957,0.4021,-0.1362,0.7575
-0.01,-0.071,-0.002,5.4,-43.2,27.7,1023,2018,5,1,22,19,40.38,-0.4903,0.4042,-0.136,0.76
-0.019,-0.344,-0.146,10,-24.8,24.7,1023,2018,5,1,22,19,40.4,-0.484,0.4098,-0.1392,0.7605
-0.039,-0.242,-0.082,10,22,13.2,1023,2018,5,1,22,19,40.436,-0.4819,0.4112,-0.1362,0.7615
-0.037,-0.179,-0.036,6.7,11.3,0.8,1023,2018,5,1,22,19,40.456,-0.4828,0.4108,-0.1327,0.7618
-0.014,-0.135,-0.006,2.9,4.9,-10.2,1023,2018,5,1,22,19,40.462,-0.4842,0.4112,-0.1323,0.7608
0.031,-0.04,-0.029,0.4,5.3,-17.8,1023,2018,5,1,22,19,40.5,-0.4865,0.4111,-0.133,0.7593
0.079,0.073,-0.015,-0.7,6.2,-17.2,1023,2018,5,1,22,19,40.522,-0.4894,0.41,-0.1334,0.7579
0.103,0.139,0.017,-1.5,-3.8,-13.6,1023,2018,5,1,22,19,40.527,-0.4918,0.4087,-0.1341,0.757
0.1,0.116,-0.018,-1.3,-10.4,-9.7,1023,2018,5,1,22,19,40.543,-0.4928,0.4083,-0.1357,0.7562
0.082,0.108,-0.02,-1.5,-8.4,-5.8,0,2018,5,1,22,19,40.582,-0.4934,0.4081,-0.1372,0.7557
0.077,0.066,-0.022,-0.7,-8.1,-3.3,0,2018,5,1,22,19,40.586,-0.4935,0.4081,-0.1384,0.7554
0.062,0.027,-0.027,1.5,-0.5,-1.8,0,2018,5,1,22,19,40.602,-0.4934,0.4083,-0.139,0.7552
0.056,0.024,-0.019,3.7,2.2,0.7,0,2018,5,1,22,19,40.624,-0.4937,0.4085,-0.1387,0.755
0.024,-0.001,0.006,4.5,4.7,2,0,2018,5,1,22,19,40.643,-0.494,0.4086,-0.1377,0.7549
0.001,-0.088,-0.011,4.5,7.8,1.1,0,2018,5,1,22,19,40.678,-0.4943,0.409,-0.1366,0.7547
0.003,-0.043,0.003,4.7,14.2,-0.3,0,2018,5,1,22,19,40.697,-0.4952,0.4089,-0.135,0.7544
0.036,0.002,0.014,4,15.3,-2.2,0,2018,5,1,22,19,40.704,-0.4965,0.4081,-0.1327,0.7544
0.019,-0.028,-0.012,4.3,11.5,-3.1,0,2018,5,1,22,19,40.724,-0.498,0.4076,-0.131,0.754
0.029,-0.012,0.006,4.5,16.3,-3.6,0,2018,5,1,22,19,40.745,-0.4996,0.4069,-0.1291,0.7536
0.016,-0.02,0.021,4.7,17.9,-5.8,0,2018,5,1,22,19,40.783,-0.5016,0.4059,-0.1267,0.7533
0.016,0.015,0.028,3.9,14.7,-7.4,0,2018,5,1,22,19,40.787,-0.5039,0.4047,-0.1246,0.7527
0.029,0.009,0.003,3.6,13.9,-9.4,0,2018,5,1,22,19,40.802,-0.5061,0.4036,-0.1229,0.7521
0.065,0.028,0.043,3.9,12.5,-10.2,0,2018,5,1,22,19,40.822,-0.5087,0.4023,-0.1215,0.7513
0.085,0.058,0.094,2.8,5.5,-8.8,0,2018,5,1,22,19,40.842,-0.511,0.4011,-0.1205,0.7505
0.118,0.039,0.077,2.4,-2.7,-6.1,0,2018,5,1,22,19,40.863,-0.5122,0.4012,-0.1209,0.7496
0.132,0.034,0.072,2.8,-2.2,-2.5,0,2018,5,1,22,19,40.883,-0.5126,0.4017,-0.1212,0.749
0.129,0.03,0.072,4,0.3,0.3,0,2018,5,1,22,19,40.92,-0.5128,0.4021,-0.1211,0.7487
0.111,-0.011,0.062,5.7,0.5,2.7,0,2018,5,1,22,19,40.941,-0.5128,0.4028,-0.1206,0.7484
0.111,-0.013,0.041,5.3,9.8,5.7,0,2018,5,1,22,19,40.946,-0.5132,0.4024,-0.1196,0.7485
0.118,0.035,0.07,6.5,17.2,7.4,0,2018,5,1,22,19,40.966,-0.5135,0.4018,-0.1168,0.749
0.093,0.079,0.062,8,1.5,12.2,0,2018,5,1,22,19,40.984,-0.5131,0.402,-0.114,0.7496
0.125,0.074,-0.044,14,-29.5,17.7,1023,2018,5,1,22,19,41.004,-0.5106,0.4043,-0.1139,0.7501
0.111,-0.05,-0.105,17.2,-13.7,27.8,1023,2018,5,1,22,19,41.023,-0.5064,0.4093,-0.1148,0.7501
0.053,0.181,0.194,12,6.2,39.3,1023,2018,5,1,22,19,41.062,-0.5026,0.4118,-0.1109,0.7519
