ax,ay,az,dpitch,droll,dyaw,heart,time_1,time_2,time_3,time_4,time_5,time_6,w,x,y,z
0.218,0.045,0.111,-24.9,203.2,-29.1,0,2018,5,1,22,18,46.206,-0.3756,0.5867,-0.3731,0.6126
0.283,0.165,0.121,-29.1,190.3,-24.5,0,2018,5,1,22,18,46.227,-0.3966,0.5687,-0.3562,0.6263
0.309,0.253,0.033,-25.9,161.2,-15.8,0,2018,5,1,22,18,46.246,-0.4145,0.5518,-0.3407,0.6383
0.303,0.324,-0.021,-11.3,84.3,-3.1,0,2018,5,1,22,18,46.266,-0.4263,0.5401,-0.3289,0.6467
0.186,0.23,0.013,1.3,7.5,8.5,0,2018,5,1,22,18,46.305,-0.4296,0.5366,-0.3241,0.6498
0.009,-0.376,-0.029,-2.4,23.8,9.4,0,2018,5,1,22,18,46.325,-0.429,0.537,-0.3237,0.6502
-0.011,-0.507,-0.029,-9.1,158.9,0.7,0,2018,5,1,22,18,46.328,-0.4368,0.5292,-0.3128,0.6566
-0.006,-0.155,-0.083,-6,243.2,-7.7,0,2018,5,1,22,18,46.365,-0.4559,0.5118,-0.2895,0.668
0.029,0.146,-0.067,-0.4,245.9,-11.9,0,2018,5,1,22,18,46.385,-0.4787,0.4908,-0.2613,0.6793
-0.002,0.333,0.02,7.7,178.1,-11.6,0,2018,5,1,22,18,46.388,-0.4983,0.4725,-0.2361,0.6874
-0.057,0.393,0.139,13.6,76.1,-6,0,2018,5,1,22,18,46.427,-0.5101,0.4625,-0.2207,0.6907
-0.054,0.165,0.16,14.8,5.5,-4.8,0,2018,5,1,22,18,46.43,-0.5139,0.4612,-0.216,0.6902
-0.004,0.479,0.251,20.2,-47.4,6.6,0,2018,5,1,22,18,46.447,-0.5132,0.4647,-0.2163,0.6882
-0.029,0.475,0.218,17,-145.9,21.6,0,2018,5,1,22,18,46.485,-0.5038,0.4766,-0.2255,0.6841
-0.049,0.289,0.08,12.9,-195.6,33.6,0,2018,5,1,22,18,46.506,-0.4861,0.4949,-0.2428,0.6779
-0.111,-0.098,-0.018,4.4,-179,36.4,0,2018,5,1,22,18,46.51,-0.465,0.5136,-0.2614,0.6719
-0.164,-0.322,-0.072,-2.9,-123.7,28.7,0,2018,5,1,22,18,46.531,-0.4469,0.5282,-0.2762,0.6669
-0.183,-0.316,-0.02,-11.5,-63.4,15.2,0,2018,5,1,22,18,46.551,-0.4353,0.5361,-0.2858,0.6642
-0.079,-0.19,0.022,-21,-36.2,2.3,0,2018,5,1,22,18,46.588,-0.4291,0.5384,-0.2918,0.6639
-0.011,-0.132,-0.014,-27.1,-34.5,-5.1,1023,2018,5,1,22,18,46.607,-0.4249,0.5381,-0.2983,0.6639
-0.016,-0.155,-0.068,-31,-17.6,-8.8,1023,2018,5,1,22,18,46.611,-0.4216,0.5367,-0.305,0.6641
0.036,-0.062,-0.115,-29.4,-2.3,-11.6,1023,2018,5,1,22,18,46.632,-0.4205,0.5333,-0.3096,0.6654
0.081,-0.049,-0.142,-23.4,5.3,-11.6,1023,2018,5,1,22,18,46.653,-0.4205,0.5295,-0.3125,0.667
0.121,0.004,-0.135,-12.5,17.8,-9.3,1023,2018,5,1,22,18,46.67,-0.4219,0.5259,-0.3133,0.6686
0.106,0.016,-0.194,1.5,24,-5.5,1023,2018,5,1,22,18,46.69,-0.4244,0.5233,-0.3119,0.6697
0.063,-0.143,-0.234,12.7,51.5,-4.4,1023,2018,5,1,22,18,46.711,-0.4286,0.5213,-0.3076,0.6706
0.024,-0.325,-0.236,21.4,100.9,-9.2,1023,2018,5,1,22,18,46.748,-0.4371,0.5174,-0.298,0.6725
0.021,-0.189,-0.033,21.5,160.6,-16.4,1023,2018,5,1,22,18,46.768,-0.4519,0.5089,-0.2817,0.6763
0.067,-0.077,0.101,21.5,181.2,-21.7,0,2018,5,1,22,18,46.772,-0.4708,0.496,-0.2618,0.6808
0.082,0.1,0.145,19,185.6,-22.6,0,2018,5,1,22,18,46.79,-0.4904,0.4817,-0.2397,0.6854
0.015,0.044,0.14,12.8,157.3,-19.9,0,2018,5,1,22,18,46.81,-0.5076,0.4681,-0.2198,0.689
0.03,0.012,0.103,8.7,149.8,-20.8,0,2018,5,1,22,18,46.849,-0.5232,0.4539,-0.2017,0.6923
0.042,-0.019,0.094,8.9,140,-25.5,0,2018,5,1,22,18,46.87,-0.538,0.4398,-0.1851,0.6947
0.009,-0.014,0.122,8.4,129.5,-31.4,0,2018,5,1,22,18,46.875,-0.5523,0.4265,-0.1701,0.6957
-0.1,-0.12,0.185,1.3,125.7,-38.9,0,2018,5,1,22,18,46.892,-0.5661,0.4132,-0.1567,0.6957
-0.147,-0.079,0.226,-6.6,112,-47.8,0,2018,5,1,22,18,46.913,-0.5799,0.3995,-0.1449,0.6949
-0.144,0.129,0.346,-10.1,52.3,-53.7,0,2018,5,1,22,18,46.929,-0.5919,0.388,-0.1383,0.6927
-0.212,-0.101,0.534,-11.1,-70.5,-67.6,0,2018,5,1,22,18,46.967,-0.5983,0.3863,-0.1445,0.6869
-0.371,-0.467,0.575,-23.2,-166.1,-96.1,0,2018,5,1,22,18,46.986,-0.5988,0.3953,-0.1668,0.6762
-0.493,-0.867,0.591,-39.6,-224,-140.5,0,2018,5,1,22,18,46.991,-0.5973,0.4088,-0.2011,0.6599
-0.604,-0.685,0.649,-40.1,-353.4,-198.1,0,2018,5,1,22,18,47.029,-0.594,0.4272,-0.2492,0.6343
-0.545,-0.245,0.106,-1.2,-526.9,-271.4,0,2018,5,1,22,18,47.049,-0.5837,0.4584,-0.3174,0.5901
0.088,0.289,-0.52,84.1,-727.4,-315.1,0,2018,5,1,22,18,47.052,-0.5618,0.5069,-0.3996,0.5173
0.272,-0.334,-0.591,176.6,-779.6,-325.1,0,2018,5,1,22,18,47.09,-0.5259,0.5666,-0.4797,0.4148
-0.279,-1.28,-0.205,227.5,-603.2,-322.2,0,2018,5,1,22,18,47.11,-0.4904,0.6143,-0.5396,0.3012
-0.663,-0.827,0.192,210.8,-219,-307.8,0,2018,5,1,22,18,47.112,-0.4823,0.6273,-0.5737,0.2112
-0.621,0.389,0.468,172.3,79.3,-258.8,0,2018,5,1,22,18,47.132,-0.5055,0.6086,-0.5899,0.1612
-0.482,1.318,0.565,139.2,162.3,-186.3,0,2018,5,1,22,18,47.151,-0.5416,0.5768,-0.5952,0.1396
-0.332,1.308,0.327,119.8,100.8,-109.3,1023,2018,5,1,22,18,47.17,-0.5715,0.5516,-0.594,0.1269
-0.149,0.819,0.1,110.1,72.8,-56,1023,2018,5,1,22,18,47.193,-0.5925,0.5379,-0.5882,0.1161
-0.103,0.591,0.302,90.9,95.3,-28.9,1023,2018,5,1,22,18,47.211,-0.6113,0.5271,-0.5797,0.1109
-0.081,0.675,0.433,64.5,113.2,-10.7,1023,2018,5,1,22,18,47.231,-0.6293,0.5149,-0.571,0.1126
-0.052,0.67,0.333,42,79,6.6,1023,2018,5,1,22,18,47.27,-0.6432,0.5049,-0.5633,0.1176
-0.079,0.427,0.195,26.2,56.3,17.2,1023,2018,5,1,22,18,47.291,-0.6518,0.4997,-0.5571,0.1224
-0.049,0.373,0.08,17.3,48.1,20.2,1023,2018,5,1,22,18,47.294,-0.659,0.4955,-0.5514,0.1266
-0.014,0.297,-0.018,14.3,23.9,21.6,1023,2018,5,1,22,18,47.332,-0.6637,0.4934,-0.5467,0.13
-0.034,0.157,-0.105,15.8,10.9,20,1023,2018,5,1,22,18,47.353,-0.6668,0.4936,-0.5424,0.1315
-0.038,0.113,-0.076,18.4,8.1,15.3,0,2018,5,1,22,18,47.355,-0.6693,0.4943,-0.5387,0.1315
-0.043,0.079,-0.079,19.5,4.7,10.6,0,2018,5,1,22,18,47.393,-0.6716,0.4951,-0.5354,0.1303
-0.026,0.063,-0.041,18.9,0.1,7,0,2018,5,1,22,18,47.395,-0.6735,0.496,-0.5325,0.1285
-0.038,0.062,0.005,15.1,-3.1,5.4,0,2018,5,1,22,18,47.413,-0.6755,0.4968,-0.5298,0.1264
-0.054,0.018,0.051,9.7,-2.8,4.5,0,2018,5,1,22,18,47.453,-0.6771,0.4976,-0.5274,0.1246
-0.068,0.004,0.03,3.1,2,2.5,0,2018,5,1,22,18,47.472,-0.6786,0.4978,-0.5256,0.1239
-0.058,-0.018,0.01,-1,4.5,-0.2,0,2018,5,1,22,18,47.475,-0.6796,0.4975,-0.5246,0.1236
-0.045,-0.053,-0.02,-4.3,7.3,-5.3,0,2018,5,1,22,18,47.494,-0.6806,0.4965,-0.5244,0.1233
-0.029,-0.064,-0.002,-6.7,12.7,-10.7,0,2018,5,1,22,18,47.515,-0.6816,0.4946,-0.5249,0.1231
-0.009,-0.067,0.02,-9.2,23.9,-14.1,0,2018,5,1,22,18,47.553,-0.6833,0.4911,-0.5259,0.1232
-0.006,-0.062,0.026,-11.1,43.6,-15.5,0,2018,5,1,22,18,47.573,-0.6862,0.4854,-0.5271,0.1246
-0.003,0.035,0.027,-12.1,62,-14.7,0,2018,5,1,22,18,47.576,-0.6909,0.4768,-0.528,0.1281
0.007,0.076,0.05,-12.3,66.6,-11.4,0,2018,5,1,22,18,47.613,-0.6962,0.4669,-0.5288,0.1323
0.011,0.184,0.081,-11.6,51.8,-6.4,0,2018,5,1,22,18,47.615,-0.7011,0.4577,-0.5293,0.1366
-0.007,0.093,0.074,-11.9,41.1,-0.8,0,2018,5,1,22,18,47.633,-0.7043,0.4513,-0.5297,0.1402
-0.01,-0.012,-0.005,-11.6,57.2,3.1,0,2018,5,1,22,18,47.673,-0.7076,0.4449,-0.5294,0.1447
0.011,-0.086,-0.027,-11.5,100.5,6,0,2018,5,1,22,18,47.693,-0.7128,0.4354,-0.5281,0.1526
0.032,-0.021,0.004,-13,143.8,7.7,0,2018,5,1,22,18,47.696,-0.7211,0.4202,-0.5255,0.1651
0.06,0.078,0.093,-14.2,158.2,10.5,0,2018,5,1,22,18,47.732,-0.7314,0.4004,-0.5216,0.1801
0.076,0.242,0.198,-14.4,122.9,12.6,0,2018,5,1,22,18,47.751,-0.7404,0.382,-0.5177,0.1943
0.081,0.237,0.191,-12.1,53.4,15.2,0,2018,5,1,22,18,47.756,-0.7452,0.3709,-0.5152,0.2037
0.118,0.088,0.085,-7.1,-21,12.9,1023,2018,5,1,22,18,47.794,-0.7455,0.3697,-0.5148,0.2059
0.127,-0.107,0.028,-2.9,-40.1,6.4,1023,2018,5,1,22,18,47.813,-0.7429,0.3746,-0.5161,0.2031
0.104,-0.139,0.023,-1.2,-17.6,-1.9,1023,2018,5,1,22,18,47.818,-0.7411,0.3785,-0.5171,0.1998
0.09,0.014,0.045,0,-0.8,-8.4,1023,2018,5,1,22,18,47.855,-0.7414,0.3784,-0.5176,0.1976
0.06,0.146,0.049,3.1,-20.7,-10.2,1023,2018,5,1,22,18,47.858,-0.7421,0.3778,-0.5183,0.1942
0.049,0.126,0.027,6.2,-50.2,-8.2,1023,2018,5,1,22,18,47.874,-0.7411,0.3814,-0.5194,0.1881
0.032,0.081,-0.031,8.2,-54.3,-5,1023,2018,5,1,22,18,47.911,-0.7387,0.3875,-0.5209,0.1804
0.016,0.062,-0.054,8.7,-34.8,-3.2,1023,2018,5,1,22,18,47.931,-0.7368,0.393,-0.5218,0.174
-0.005,0.102,-0.052,9,-19.1,0.5,1023,2018,5,1,22,18,47.935,-0.7359,0.3963,-0.5219,0.1696
-0.023,0.121,-0.019,8.1,-14.1,5.6,0,2018,5,1,22,18,47.974,-0.7358,0.3986,-0.5212,0.1668
-0.035,0.131,-0.009,7.3,-20.1,9.4,0,2018,5,1,22,18,47.994,-0.7355,0.4014,-0.5202,0.1647
-0.036,0.054,-0.019,5.3,-27.7,10.8,0,2018,5,1,22,18,47.998,-0.7342,0.4057,-0.5194,0.1625
-0.039,-0.01,-0.005,2.7,-25.5,10.7,0,2018,5,1,22,18,48.037,-0.7324,0.4106,-0.5187,0.1606
-0.032,-0.041,0.036,-0.2,-18.1,9.2,0,2018,5,1,22,18,48.056,-0.7309,0.4145,-0.518,0.1596
-0.028,-0.048,0.054,-3.6,-11.1,8.3,0,2018,5,1,22,18,48.058,-0.7299,0.4173,-0.5173,0.1592
-0.011,-0.036,0.047,-5.9,-9.6,7.1,0,2018,5,1,22,18,48.096,-0.7291,0.4191,-0.5169,0.1593
0.007,-0.059,0.07,-7.8,-13.1,5.7,0,2018,5,1,22,18,48.098,-0.728,0.421,-0.517,0.1593
0.016,-0.08,0.059,-9.9,-11.3,3.2,0,2018,5,1,22,18,48.118,-0.7266,0.4228,-0.5175,0.159
0.027,-0.058,0.042,-10,-7.1,2.2,0,2018,5,1,22,18,48.154,-0.7256,0.4238,-0.5182,0.1587
0.023,-0.071,0.033,-8.3,2,3.2,0,2018,5,1,22,18,48.174,-0.7247,0.4244,-0.5188,0.1591
0.034,-0.004,0.04,-6.8,8.6,4.6,0,2018,5,1,22,18,48.18,-0.7248,0.4237,-0.5189,0.1604
0.062,-0.004,0.031,-5.6,7.6,4.6,0,2018,5,1,22,18,48.2,-0.7252,0.4227,-0.5188,0.1615
0.052,-0.026,-0.02,-3.3,7.5,2.6,0,2018,5,1,22,18,48.238,-0.7253,0.422,-0.5189,0.1623
0.042,0.029,-0.008,-0.8,5.1,-1.4,0,2018,5,1,22,18,48.258,-0.7256,0.4212,-0.5191,0.1626
0.026,0.089,0.017,1,-6.1,-4.2,0,2018,5,1,22,18,48.263,-0.726,0.4208,-0.5193,0.1612
-0.015,0.184,0.014,2.2,-23.7,-2.7,0,2018,5,1,22,18,48.282,-0.7257,0.4218,-0.5198,0.1581
-0.043,0.234,-0.007,3,-32.4,4.2,0,2018,5,1,22,18,48.303,-0.7242,0.4251,-0.5205,0.1541
-0.063,0.309,-0.02,3.6,-32.7,17.2,0,2018,5,1,22,18,48.318,-0.7221,0.4296,-0.5206,0.1509
-0.061,0.38,-0.016,4.7,-32.3,35.2,0,2018,5,1,22,18,48.356,-0.7198,0.4358,-0.5189,0.1502
-0.047,0.432,-0.017,4.6,-44.2,54.1,0,2018,5,1,22,18,48.375,-0.7166,0.4444,-0.5156,0.1513
-0.084,0.486,0.02,3.3,-64.2,74.9,0,2018,5,1,22,18,48.38,-0.7114,0.4569,-0.5113,0.1535
-0.135,0.511,0.118,-3.2,-82.3,97.8,1023,2018,5,1,22,18,48.399,-0.7035,0.4735,-0.506,0.1568
-0.193,0.534,0.224,-17.8,-85.8,123.7,1023,2018,5,1,22,18,48.422,-0.6928,0.4931,-0.5001,0.163
-0.226,0.582,0.303,-38.2,-79.5,152.5,1023,2018,5,1,22,18,48.459,-0.6794,0.514,-0.4936,0.1743
-0.232,0.629,0.307,-61.5,-62.6,183.4,1023,2018,5,1,22,18,48.482,-0.6636,0.535,-0.4862,0.1919
-0.24,0.644,0.247,-81.8,-27.4,217.7,1023,2018,5,1,22,18,48.486,-0.6464,0.5543,-0.4769,0.2175
-0.24,0.63,0.183,-95.6,31.9,251.6,1023,2018,5,1,22,18,48.504,-0.63,0.5695,-0.4635,0.2523
-0.253,0.465,0.277,-105.8,109.8,280.8,1023,2018,5,1,22,18,48.54,-0.6166,0.5781,-0.4443,0.2968
-0.197,0.281,0.347,-114.2,206.4,301.4,1023,2018,5,1,22,18,48.56,-0.6085,0.5765,-0.4174,0.3506
-0.106,0.106,0.189,-107.7,324.1,319.7,1023,2018,5,1,22,18,48.565,-0.6073,0.562,-0.3803,0.4129
-0.051,0.631,0.035,-72.3,309.4,336.9,0,2018,5,1,22,18,48.581,-0.6088,0.5398,-0.3323,0.4768
-0.452,-0.389,-0.067,-49.6,273.3,344.2,0,2018,5,1,22,18,48.603,-0.6018,0.5233,-0.282,0.5332
-0.687,-1.718,0.201,-56.8,473.4,287.1,0,2018,5,1,22,18,48.622,-0.6012,0.4939,-0.2239,0.5868
-0.233,-1.147,0.057,-19.9,625.7,209.4,0,2018,5,1,22,18,48.657,-0.6204,0.4365,-0.1466,0.6347
-0.269,0.225,0.246,39.4,480.7,167.6,0,2018,5,1,22,18,48.677,-0.6412,0.3773,-0.0664,0.6648
-0.423,0.479,0.387,58.5,74.8,144.3,0,2018,5,1,22,18,48.685,-0.6406,0.3539,-0.0187,0.681
-0.515,-0.46,0.35,46,-167.2,110.9,0,2018,5,1,22,18,48.721,-0.6209,0.3691,-0.0142,0.6913
-0.473,-1.017,0.347,17.2,-149.8,73.4,0,2018,5,1,22,18,48.742,-0.5989,0.3912,-0.0261,0.6982
-0.269,-0.706,0.234,-2.1,-41.3,39.4,0,2018,5,1,22,18,48.746,-0.586,0.4016,-0.0332,0.7029
-0.113,-0.155,0.161,-8.3,-2,18,0,2018,5,1,22,18,48.764,-0.5819,0.4024,-0.0336,0.7058
-0.06,0.053,0.125,-6.6,-32,8.9,0,2018,5,1,22,18,48.785,-0.579,0.4031,-0.0347,0.7077
-0.055,0.023,0.063,-4.1,-54.9,5.8,0,2018,5,1,22,18,48.803,-0.5746,0.4071,-0.0394,0.7088
-0.069,-0.059,0.051,-5.6,-40.7,4.1,0,2018,5,1,22,18,48.842,-0.5701,0.412,-0.0452,0.7092
-0.072,-0.049,0.064,-7.7,-14.7,-0.5,0,2018,5,1,22,18,48.862,-0.5677,0.4143,-0.0486,0.7096
-0.097,0.012,0.084,-11.5,-1,-5.5,0,2018,5,1,22,18,48.866,-0.5675,0.4139,-0.0498,0.7099
-0.065,0.092,0.084,-16.2,-6.2,-6.3,0,2018,5,1,22,18,48.884,-0.5677,0.4124,-0.0507,0.7106
-0.019,0.101,0.06,-19.9,-26.5,-2.8,0,2018,5,1,22,18,48.918,-0.567,0.4116,-0.0547,0.7113
-0.023,0.02,0.051,-24.3,-42,-0.1,0,2018,5,1,22,18,48.94,-0.5643,0.4121,-0.0605,0.7127
-0.046,-0.066,0.044,-30.3,-46.7,-1.2,0,2018,5,1,22,18,48.945,-0.5606,0.4134,-0.0684,0.7141
0.009,-0.048,-0.015,-31.6,-44.6,-2.6,0,2018,5,1,22,18,48.985,-0.5572,0.4144,-0.0773,0.7153
0.031,-0.006,-0.027,-28.8,-34.9,-5.9,0,2018,5,1,22,18,48.989,-0.5546,0.4146,-0.0855,0.7163
0.072,0.04,0.008,-25.2,-39.6,-6.8,0,2018,5,1,22,18,49.006,-0.5525,0.4146,-0.0931,0.7169
0.103,0.062,0.023,-21.2,-48.4,-2.9,0,2018,5,1,22,18,49.025,-0.5499,0.4154,-0.101,0.7174
0.083,-0.008,0.017,-20.1,-42.9,-0.3,1023,2018,5,1,22,18,49.044,-0.5466,0.4169,-0.1091,0.7179
0.109,0.008,0.012,-20.6,-24.1,3.3,1023,2018,5,1,22,18,49.082,-0.5441,0.4172,-0.1154,0.7186
0.079,0.004,0.013,-21.9,-8.7,4.6,1023,2018,5,1,22,18,49.1,-0.5424,0.4157,-0.1192,0.7202
0.093,0.058,-0.001,-21.7,-10.9,7.2,1023,2018,5,1,22,18,49.105,-0.541,0.4134,-0.1219,0.722
0.107,0.045,-0.016,-19.5,-21.7,10.4,1023,2018,5,1,22,18,49.145,-0.5388,0.412,-0.1253,0.7239
0.079,0.001,0.005,-18.2,-30.2,12.5,1023,2018,5,1,22,18,49.166,-0.5355,0.4121,-0.1298,0.7256
0.057,-0.056,0.012,-19.1,-23.5,13,1023,2018,5,1,22,18,49.17,-0.532,0.4122,-0.1346,0.7272
0.053,-0.05,0,-19,-12,13.1,1023,2018,5,1,22,18,49.187,-0.529,0.4116,-0.1381,0.729
0.044,-0.019,-0.012,-17.6,-1.6,13.5,1023,2018,5,1,22,18,49.208,-0.5267,0.4103,-0.1399,0.7311
0.043,0.003,0.015,-15.1,-4.1,15.1,0,2018,5,1,22,18,49.229,-0.5245,0.4088,-0.1406,0.7334
0.052,0.079,0.054,-14.4,-15.7,17.6,0,2018,5,1,22,18,49.25,-0.5217,0.4076,-0.1417,0.7358
0.042,0.029,0.063,-13.1,-31,16.1,0,2018,5,1,22,18,49.27,-0.5178,0.408,-0.1445,0.7379
0.015,-0.051,0.065,-15.6,-29.4,12.2,0,2018,5,1,22,18,49.287,-0.5137,0.409,-0.1486,0.7393
0.015,0.049,0.068,-15.7,-37.4,8.5,0,2018,5,1,22,18,49.324,-0.5103,0.4091,-0.1529,0.7407
0.021,0.016,0.018,-12.9,-47.4,5.3,0,2018,5,1,22,18,49.344,-0.5063,0.411,-0.1592,0.7411
0.013,0.034,-0.012,-9.3,-55,4.6,0,2018,5,1,22,18,49.348,-0.5018,0.4143,-0.1661,0.7408
0.021,0.021,-0.019,-7.3,-53.8,4,0,2018,5,1,22,18,49.368,-0.4972,0.4182,-0.1734,0.7401
0.017,-0.013,-0.055,-4.2,-41.9,2.2,0,2018,5,1,22,18,49.387,-0.4933,0.4221,-0.1799,0.7389
0,-0.085,-0.048,-3.4,-25.5,0.3,0,2018,5,1,22,18,49.409,-0.4905,0.4251,-0.1846,0.7378
0.025,-0.074,-0.027,-1.1,-13.5,-1.1,0,2018,5,1,22,18,49.428,-0.4896,0.4267,-0.1878,0.7367
0.036,-0.059,-0.02,0.3,-3.7,-1,0,2018,5,1,22,18,49.449,-0.4895,0.4276,-0.1894,0.7358
0.036,-0.068,0.005,2.9,2.2,-1.1,0,2018,5,1,22,18,49.469,-0.4902,0.4279,-0.1899,0.7351
0.041,-0.046,0.018,0.2,11.5,-0.3,0,2018,5,1,22,18,49.507,-0.4915,0.4273,-0.1893,0.7347
0.036,0.033,0.025,-0.4,9.7,0.5,0,2018,5,1,22,18,49.511,-0.4929,0.426,-0.1878,0.7349
0.016,0.053,0.032,-4.1,2.8,3,0,2018,5,1,22,18,49.527,-0.4935,0.4248,-0.1867,0.7355
-0.011,0.044,0.048,-7.7,-5.9,2.5,0,2018,5,1,22,18,49.567,-0.4932,0.424,-0.1865,0.7362
-0.016,0.036,0.069,-9.1,-27.9,-0.3,0,2018,5,1,22,18,49.587,-0.4918,0.424,-0.1886,0.7366
-0.037,-0.022,0.108,-13.3,-50.4,-3.2,0,2018,5,1,22,18,49.591,-0.4888,0.4259,-0.1944,0.736
-0.084,-0.094,0.127,-22,-44.2,-4.1,0,2018,5,1,22,18,49.61,-0.4852,0.4276,-0.2019,0.7354
-0.059,-0.181,0.118,-35.6,-2.8,-9,0,2018,5,1,22,18,49.629,-0.4836,0.4254,-0.2081,0.736
-0.035,-0.039,0.041,-39.6,18.1,-12.5,0,2018,5,1,22,18,49.651,-0.485,0.4192,-0.2108,0.7379
0.022,0.078,-0.01,-39.5,21.7,-8,1023,2018,5,1,22,18,49.67,-0.4866,0.4119,-0.2118,0.7406
0.161,0.109,0.015,-38.1,7.4,-3,1023,2018,5,1,22,18,49.69,-0.4872,0.4051,-0.2133,0.7435
0.168,0.14,-0.023,-31,-1.8,5.2,1023,2018,5,1,22,18,49.727,-0.4865,0.4002,-0.2161,0.7458
0.196,0.1,-0.106,-22.9,-15.3,9.7,1023,2018,5,1,22,18,49.748,-0.4847,0.3973,-0.2196,0.7475
0.224,0.068,-0.213,-9.7,-14.6,14.2,1023,2018,5,1,22,18,49.752,-0.4821,0.3967,-0.2225,0.7487
0.186,-0.002,-0.267,5.4,-10.5,17.1,1023,2018,5,1,22,18,49.77,-0.4796,0.3978,-0.2235,0.7494
0.194,0.05,-0.242,22.9,-19.9,18.2,1023,2018,5,1,22,18,49.79,-0.4774,0.4013,-0.2229,0.7491
0.183,0.104,-0.206,40.4,-64.4,21.9,1023,2018,5,1,22,18,49.811,-0.4737,0.4095,-0.2246,0.7465
0.105,-0.038,-0.177,53.4,-92.4,23.2,1023,2018,5,1,22,18,49.832,-0.4672,0.4231,-0.23,0.7414
0.004,-0.15,-0.169,62,-92.4,17.8,1023,2018,5,1,22,18,49.85,-0.4604,0.4389,-0.2361,0.7345
-0.066,-0.148,-0.174,67.7,-80.6,8.9,0,2018,5,1,22,18,49.869,-0.4552,0.4544,-0.2412,0.7266
-0.105,-0.064,-0.152,74,-86.1,-0.2,0,2018,5,1,22,18,49.912,-0.4518,0.4697,-0.2457,0.7174
-0.195,-0.096,-0.038,68.7,-91.3,-6.1,0,2018,5,1,22,18,49.93,-0.4483,0.4855,-0.2518,0.7069
-0.196,-0.05,0.089,55.9,-92.6,-10.6,0,2018,5,1,22,18,49.935,-0.4443,0.5004,-0.2579,0.6968
-0.198,-0.061,0.122,37.2,-107.4,-11.1,0,2018,5,1,22,18,49.952,-0.4385,0.5136,-0.2663,0.6876
-0.12,0.013,0.072,21.7,-94.8,-9.6,0,2018,5,1,22,18,49.99,-0.4316,0.5244,-0.276,0.6799
-0.05,0.01,0.02,9.3,-66.8,-4.7,0,2018,5,1,22,18,49.993,-0.4253,0.5323,-0.2842,0.6744
-0.012,-0.027,0.027,0.5,-17.2,-0.4,0,2018,5,1,22,18,50.01,-0.422,0.536,-0.2886,0.6717
-0.032,-0.036,0.054,-8.1,34.7,5.1,0,2018,5,1,22,18,50.049,-0.4227,0.5349,-0.2871,0.6727
0.051,0.064,0.063,-14.1,83.7,11.6,0,2018,5,1,22,18,50.067,-0.4275,0.529,-0.2794,0.6776
0.016,-0.012,0.032,-16.8,109.8,14.1,0,2018,5,1,22,18,50.07,-0.4345,0.5201,-0.2671,0.685
0.007,0.019,-0.016,-9.3,125.3,9.6,0,2018,5,1,22,18,50.091,-0.4436,0.5097,-0.2523,0.6925
0.015,0.081,0.004,0.1,104.2,6,0,2018,5,1,22,18,50.112,-0.453,0.5005,-0.2373,0.6984
-0.02,0.05,0.024,9.3,67.9,0.7,0,2018,5,1,22,18,50.149,-0.4601,0.4946,-0.2254,0.7019
-0.07,0.078,0.113,15.1,24.8,-7.4,0,2018,5,1,22,18,50.169,-0.4653,0.4922,-0.2183,0.7024
-0.072,-0.125,0.157,8.4,-8.8,-12.2,0,2018,5,1,22,18,50.172,-0.4676,0.4929,-0.2177,0.7006
0.035,0.017,0.218,-3.2,38.1,-3.8,0,2018,5,1,22,18,50.21,-0.4706,0.4914,-0.2168,0.6999
0.04,0.123,0.292,-12,30.6,1.7,0,2018,5,1,22,18,50.212,-0.4743,0.4868,-0.2127,0.7019
0.059,-0.007,0.181,-14,4.3,-1.8,0,2018,5,1,22,18,50.229,-0.4757,0.4835,-0.2122,0.7033
0.012,-0.07,0.134,-13.5,-33.1,-6.9,0,2018,5,1,22,18,50.269,-0.4748,0.4827,-0.2156,0.7035
0.036,-0.236,0.024,-12.1,-37.4,-15.5,0,2018,5,1,22,18,50.288,-0.473,0.4836,-0.2227,0.7019
0.057,-0.245,-0.024,-7.4,-26.6,-24.1,0,2018,5,1,22,18,50.293,-0.4728,0.4841,-0.2291,0.6996
0.076,-0.245,-0.05,-2.6,-10.7,-32.5,1023,2018,5,1,22,18,50.333,-0.475,0.4837,-0.2345,0.6966
0.069,-0.219,-0.058,1.7,14.5,-39.3,1023,2018,5,1,22,18,50.353,-0.4799,0.4818,-0.2375,0.6935
0.06,-0.103,-0.048,5.4,27.8,-43.8,1023,2018,5,1,22,18,50.357,-0.4874,0.4786,-0.2381,0.6903
0.065,-0.036,-0.042,7.5,32.2,-43.5,1023,2018,5,1,22,18,50.376,-0.496,0.4751,-0.2381,0.6866
0.058,0.006,-0.029,10.1,29,-42.6,1023,2018,5,1,22,18,50.395,-0.5043,0.4719,-0.2373,0.683
0.004,-0.084,0.011,10.7,26.3,-43.4,1023,2018,5,1,22,18,50.417,-0.5121,0.4693,-0.2367,0.6792
-0.007,-0.096,0.068,9.2,34.8,-47.4,1023,2018,5,1,22,18,50.437,-0.5204,0.4661,-0.2358,0.6754
0.001,-0.074,0.099,4.6,40.1,-49.6,1023,2018,5,1,22,18,50.476,-0.5296,0.4613,-0.2343,0.6721
0.026,-0.013,0.076,0.8,41.1,-51.7,1023,2018,5,1,22,18,50.495,-0.5393,0.4553,-0.2329,0.6689
0.014,-0.065,0.037,-2.7,26.2,-50.7,1023,2018,5,1,22,18,50.5,-0.5482,0.4498,-0.2329,0.6654
-0.03,-0.201,0.035,-6.8,29.5,-56.9,0,2018,5,1,22,18,50.516,-0.5562,0.4448,-0.2347,0.6614
-0.102,-0.325,0.065,-11.2,41,-69.5,0,2018,5,1,22,18,50.534,-0.5657,0.4384,-0.2365,0.657
-0.106,-0.313,0.099,-14.1,43.8,-84.1,0,2018,5,1,22,18,50.554,-0.5771,0.43,-0.2387,0.6518
-0.174,-0.26,0.123,-13.2,14.4,-99.4,0,2018,5,1,22,18,50.594,-0.5892,0.422,-0.2432,0.6445
-0.224,-0.314,0.165,-12.7,-37.7,-115.2,0,2018,5,1,22,18,50.615,-0.5994,0.4179,-0.253,0.6339
-0.332,-0.46,0.226,-13,-86.8,-139.2,0,2018,5,1,22,18,50.619,-0.6077,0.4185,-0.2698,0.6186
-0.36,-0.535,0.238,-16.6,-111.4,-170.2,0,2018,5,1,22,18,50.636,-0.6163,0.42,-0.2935,0.5979
-0.367,-0.493,0.12,-12.1,-139.2,-203.8,0,2018,5,1,22,18,50.673,-0.6258,0.4216,-0.3218,0.5717
-0.24,-0.195,-0.023,5.4,-184.8,-228.5,0,2018,5,1,22,18,50.695,-0.6348,0.4261,-0.3542,0.5384
-0.139,-0.138,-0.118,34.5,-231,-245.3,0,2018,5,1,22,18,50.699,-0.6421,0.4358,-0.389,0.4962
-0.07,-0.046,-0.047,60,-236.6,-248.6,0,2018,5,1,22,18,50.715,-0.6474,0.4495,-0.4219,0.448
-0.237,-0.13,-0.107,82.3,-199.7,-253.5,0,2018,5,1,22,18,50.735,-0.6536,0.4612,-0.45,0.3968
-0.145,0.185,-0.043,98.2,-156.9,-246.6,0,2018,5,1,22,18,50.775,-0.6633,0.4667,-0.4709,0.3468
-0.157,0.325,-0.001,110.8,-139.3,-227.9,0,2018,5,1,22,18,50.794,-0.6724,0.4715,-0.486,0.2987
-0.181,0.36,0.108,112.6,-93.9,-203.5,0,2018,5,1,22,18,50.798,-0.6828,0.4726,-0.4956,0.2543
-0.244,0.441,0.135,103.6,-37.6,-176.6,0,2018,5,1,22,18,50.818,-0.6945,0.4687,-0.5009,0.2166
-0.222,0.657,0.113,90.5,5.6,-145.2,0,2018,5,1,22,18,50.838,-0.7079,0.4593,-0.5025,0.188
-0.111,0.941,0.177,78.3,6.8,-108.9,0,2018,5,1,22,18,50.878,-0.7202,0.4492,-0.5017,0.1664
-0.098,0.86,0.179,65.6,-23.7,-68.9,0,2018,5,1,22,18,50.896,-0.7281,0.4449,-0.4997,0.1485
-0.104,0.612,0.164,47.6,-11.8,-36,0,2018,5,1,22,18,50.901,-0.733,0.4444,-0.4968,0.1353
-0.09,0.493,0.074,30.4,24.7,-12.2,0,2018,5,1,22,18,50.915,-0.7376,0.4422,-0.4934,0.1296
-0.073,0.483,0.089,18.1,42.3,4.1,0,2018,5,1,22,18,50.951,-0.7426,0.4376,-0.4897,0.1302
-0.071,0.439,0.128,5.9,30.9,15.7,0,2018,5,1,22,18,50.97,-0.7467,0.4335,-0.4863,0.1335
-0.07,0.284,0.062,-4.4,9.9,21.3,0,2018,5,1,22,18,50.975,-0.7478,0.4326,-0.4844,0.1373
-0.042,0.146,-0.037,-10.1,1.8,21.9,1023,2018,5,1,22,18,51.012,-0.7471,0.4335,-0.4837,0.1407
-0.014,0.046,-0.051,-12,2.3,18.6,1023,2018,5,1,22,18,51.032,-0.7454,0.4352,-0.4838,0.1439
0.016,0.045,-0.04,-12.8,3.6,13.2,1023,2018,5,1,22,18,51.037,-0.744,0.4362,-0.4842,0.1469
0.043,0.016,-0.029,-12.2,-4.9,8,1023,2018,5,1,22,18,51.076,-0.7423,0.4373,-0.4853,0.1488
0.061,0.009,-0.01,-10.5,-11.5,3.5,1023,2018,5,1,22,18,51.095,-0.7404,0.4387,-0.4868,0.1492
0.074,-0.042,0.014,-9.9,-11.4,0.2,1023,2018,5,1,22,18,51.098,-0.7383,0.4405,-0.4884,0.149
0.074,-0.051,0.048,-9.1,-2.6,-1.3,1023,2018,5,1,22,18,51.136,-0.737,0.4412,-0.4897,0.1489
0.064,-0.024,0.063,-8.5,4,-1.1,1023,2018,5,1,22,18,51.156,-0.7366,0.4407,-0.4907,0.1493
0.052,-0.001,0.061,-6.1,0.8,0.4,1023,2018,5,1,22,18,51.159,-0.7366,0.4398,-0.4913,0.1498
0.051,-0.015,0.026,-2.4,-4.9,1.6,1023,2018,5,1,22,18,51.196,-0.7362,0.4401,-0.4916,0.1497
0.049,-0.027,0.03,1,-5.2,1.3,0,2018,5,1,22,18,51.216,-0.7357,0.4411,-0.4916,0.1492
0.051,0.003,0.031,2.9,-6.8,0.1,0,2018,5,1,22,18,51.221,-0.7355,0.4421,-0.4913,0.1485
0.05,0.008,0.026,4.2,-8.2,0.3,0,2018,5,1,22,18,51.267,-0.7353,0.4432,-0.4909,0.1473
0.028,0.023,0.032,4.7,-3.6,0.3,0,2018,5,1,22,18,51.269,-0.7353,0.4442,-0.4904,0.1462
0.027,0.039,0.021,4.5,-4,0.5,0,2018,5,1,22,18,51.28,-0.7354,0.4449,-0.4898,0.1454
0.02,0.035,0.016,3.7,-4.4,0,0,2018,5,1,22,18,51.316,-0.7355,0.4457,-0.4892,0.1445
0.017,0.038,0.027,2.8,-5.4,-1.4,0,2018,5,1,22,18,51.338,-0.7356,0.4463,-0.4889,0.1433
0.028,0.05,0.03,1.7,-4.6,-2.7,0,2018,5,1,22,18,51.341,-0.7356,0.4468,-0.4887,0.142
0.015,0.072,0.032,-0.2,-2.5,-2.5,0,2018,5,1,22,18,51.38,-0.7356,0.4469,-0.4889,0.141
0.024,0.085,0.029,-2.4,-0.2,-1.6,0,2018,5,1,22,18,51.398,-0.7357,0.4466,-0.4893,0.1403
0.032,0.114,0.019,-3.7,-2.1,-0.1,0,2018,5,1,22,18,51.401,-0.7356,0.4463,-0.4899,0.1399
0.038,0.061,-0.001,-2.6,-8.2,1.1,0,2018,5,1,22,18,51.418,-0.7349,0.4468,-0.4906,0.1391
0.033,0.052,0.018,-1.8,-6.7,0.7,0,2018,5,1,22,18,51.439,-0.734,0.4479,-0.4911,0.1386
0.031,0.06,0.002,-1.5,-5.1,1,0,2018,5,1,22,18,51.462,-0.7335,0.4487,-0.4915,0.1379
0.021,0.082,0.022,-1.9,1.1,2.7,0,2018,5,1,22,18,51.481,-0.7332,0.449,-0.4917,0.1375
0.016,0.157,0.022,-3,2.6,7.1,0,2018,5,1,22,18,51.501,-0.7334,0.4486,-0.4917,0.138
0.006,0.178,0.004,-3.8,-3.3,12.8,0,2018,5,1,22,18,51.522,-0.733,0.449,-0.4916,0.1388
-0.003,0.179,0.001,-5.2,-8.3,19.6,0,2018,5,1,22,18,51.543,-0.7319,0.4507,-0.4914,0.1399
-0.014,0.231,0.004,-7.1,-8.8,27.5,0,2018,5,1,22,18,51.561,-0.7302,0.4532,-0.491,0.1418
-0.021,0.306,0.005,-9.9,-10.1,38.3,0,2018,5,1,22,18,51.601,-0.7281,0.4567,-0.4898,0.1454
-0.029,0.388,0.024,-13.1,-15.5,53.2,0,2018,5,1,22,18,51.62,-0.7253,0.4616,-0.4878,0.1505
-0.053,0.414,0.06,-17.8,-22.9,70,0,2018,5,1,22,18,51.624,-0.7209,0.4689,-0.4852,0.1575
-0.079,0.384,0.025,-23.8,-26.3,87.1,0,2018,5,1,22,18,51.642,-0.715,0.4781,-0.482,0.1667
-0.1,0.364,0.038,-30.4,-12.9,103.7,0,2018,5,1,22,18,51.662,-0.7082,0.4878,-0.4779,0.1789
-0.109,0.392,0.02,-36.3,-3.5,119.9,1023,2018,5,1,22,18,51.682,-0.7014,0.4966,-0.4726,0.1947
-0.138,0.423,0.091,-42,5.7,137.5,1023,2018,5,1,22,18,51.701,-0.6939,0.5054,-0.466,0.2136
-0.166,0.415,0.087,-48.8,13.5,156.2,1023,2018,5,1,22,18,51.723,-0.6854,0.5143,-0.458,0.2362
-0.169,0.423,0.097,-55.3,34.9,176.4,1023,2018,5,1,22,18,51.76,-0.6762,0.5224,-0.4481,0.2624
-0.141,0.483,0.081,-60.2,66.9,200.8,1023,2018,5,1,22,18,51.779,-0.6675,0.5279,-0.435,0.2937
-0.147,0.527,0.037,-60.4,98.1,227.5,1023,2018,5,1,22,18,51.783,-0.6593,0.5309,-0.4177,0.33
-0.175,0.509,0.015,-55.2,132.2,254.6,1023,2018,5,1,22,18,51.823,-0.6514,0.5313,-0.3948,0.3707
-0.209,0.272,-0.007,-48.6,213,277.2,1023,2018,5,1,22,18,51.843,-0.6458,0.5259,-0.3642,0.4166
-0.111,-0.045,-0.115,-37.1,329.6,292.2,1023,2018,5,1,22,18,51.848,-0.6465,0.5081,-0.3219,0.4691
-0.232,-0.261,-0.252,7.8,322.6,278.9,1023,2018,5,1,22,18,51.866,-0.6502,0.4839,-0.2695,0.5199
-0.416,-0.048,0.096,39.5,305.6,271.6,0,2018,5,1,22,18,51.887,-0.6515,0.4619,-0.214,0.5624
-0.48,-0.411,0.415,51.1,230.1,230.3,0,2018,5,1,22,18,51.903,-0.6487,0.4445,-0.1616,0.596
-0.503,-0.717,0.484,52.6,167.5,183.3,0,2018,5,1,22,18,51.94,-0.6429,0.4335,-0.1182,0.6202
-0.471,-0.601,0.379,44.5,114.5,137.5,0,2018,5,1,22,18,51.96,-0.6363,0.4273,-0.0855,0.6364
-0.435,-0.508,0.339,33.8,56.1,98.9,0,2018,5,1,22,18,51.964,-0.6296,0.4247,-0.0627,0.6473
-0.286,-0.29,0.279,31.1,-31.6,64.9,0,2018,5,1,22,18,52,-0.6215,0.4279,-0.0511,0.6541
-0.186,-0.358,0.311,15.2,-107.9,46.1,0,2018,5,1,22,18,52.021,-0.6094,0.4397,-0.0539,0.6574
-0.104,-0.369,0.297,8.1,-78.4,21.6,0,2018,5,1,22,18,52.024,-0.5985,0.4515,-0.0612,0.6588
-0.038,-0.209,0.272,-4.1,-53.5,14.3,0,2018,5,1,22,18,52.062,-0.5915,0.4585,-0.0674,0.6597
0.015,-0.072,0.216,-13.2,-28.5,11.3,0,2018,5,1,22,18,52.084,-0.5868,0.4615,-0.0719,0.6613
0.033,0.003,0.115,-16.7,-19.3,8.1,0,2018,5,1,22,18,52.088,-0.5838,0.462,-0.0753,0.6633
0.043,0.057,0.039,-14.9,-13.8,7.8,0,2018,5,1,22,18,52.106,-0.5814,0.4615,-0.0778,0.6654
0.017,0.05,0.019,-11.3,-12.6,7.7,0,2018,5,1,22,18,52.127,-0.5791,0.4613,-0.0794,0.6674
-0.001,0.053,0.009,-8.7,-11.4,6.8,0,2018,5,1,22,18,52.145,-0.5768,0.4615,-0.0805,0.669
0.012,0.052,-0.009,-6.8,-11.4,6.8,0,2018,5,1,22,18,52.183,-0.5749,0.462,-0.0814,0.6703
0.017,0.035,-0.029,-5.3,-10.1,7.2,0,2018,5,1,22,18,52.203,-0.5728,0.4628,-0.0822,0.6714
0.024,0.015,-0.027,-4.1,-4.8,7.5,0,2018,5,1,22,18,52.208,-0.5711,0.4634,-0.0826,0.6724
0.013,0.008,-0.02,-3.7,-0.8,7.2,0,2018,5,1,22,18,52.228,-0.5699,0.4637,-0.0825,0.6733
0.015,0.015,-0.02,-3.5,0.1,8,0,2018,5,1,22,18,52.248,-0.5688,0.4636,-0.082,0.6743
0.03,0.01,-0.01,-3.2,-0.2,9.9,0,2018,5,1,22,18,52.287,-0.5675,0.4637,-0.0813,0.6754
0.017,-0.019,0.011,-3.3,0.7,10.4,0,2018,5,1,22,18,52.306,-0.5661,0.4636,-0.0805,0.6767
0.018,-0.026,0.036,-4.1,0.9,9.4,0,2018,5,1,22,18,52.31,-0.5651,0.4632,-0.08,0.6779
0.024,-0.03,0.046,-5.8,-4.3,7.1,0,2018,5,1,22,18,52.324,-0.5641,0.4627,-0.0798,0.6791
0.024,-0.027,0.037,-6.8,-7.7,5.2,1023,2018,5,1,22,18,52.363,-0.5631,0.4624,-0.0808,0.68
0.023,-0.027,0.042,-8.7,-13.9,3.2,1023,2018,5,1,22,18,52.383,-0.5616,0.4626,-0.0824,0.681
0.015,-0.051,0.031,-11.1,-12.3,0.9,1023,2018,5,1,22,18,52.387,-0.5601,0.4628,-0.085,0.6817
0.008,-0.042,0.019,-13.6,-6.3,-0.6,1023,2018,5,1,22,18,52.424,-0.5592,0.4623,-0.0874,0.6824
0.007,-0.019,-0.009,-14.9,-1.9,-1.1,1023,2018,5,1,22,18,52.445,-0.5589,0.4611,-0.0894,0.6833
0.034,0.057,-0.016,-16,0.3,0.6,1023,2018,5,1,22,18,52.449,-0.5586,0.4594,-0.0905,0.6845
0.034,0.06,-0.009,-16.5,-9.1,2.8,1023,2018,5,1,22,18,52.469,-0.5577,0.4579,-0.0921,0.686
0.021,0.03,-0.005,-15.7,-13.9,4.7,1023,2018,5,1,22,18,52.49,-0.5558,0.4574,-0.0944,0.6876
0.04,0.039,0.005,-14.6,-16.3,5.6,1023,2018,5,1,22,18,52.509,-0.5537,0.457,-0.097,0.6892
0.03,0.017,-0.033,-10.4,-14.3,5.3,0,2018,5,1,22,18,52.53,-0.5519,0.457,-0.0996,0.6903
0.015,0.025,0.021,-8.2,-20.8,6,0,2018,5,1,22,18,52.549,-0.5499,0.4575,-0.1018,0.6912
0.021,0.002,0.065,-8.5,-29,4.6,0,2018,5,1,22,18,52.568,-0.5472,0.4588,-0.1049,0.692
0.037,0.021,0.068,-9.6,-38.8,3.2,0,2018,5,1,22,18,52.609,-0.5441,0.4605,-0.1093,0.6927
0.046,-0.002,0.011,-9.3,-40.6,3.2,0,2018,5,1,22,18,52.613,-0.5406,0.4629,-0.1149,0.693
0.034,-0.035,-0.017,-8.5,-31.7,2,0,2018,5,1,22,18,52.629,-0.5373,0.4652,-0.12,0.693
0.04,-0.059,-0.007,-8.3,-27.6,1.1,0,2018,5,1,22,18,52.649,-0.5348,0.4672,-0.1246,0.6928
0.03,-0.026,0.001,-7,-21.6,-0.1,0,2018,5,1,22,18,52.67,-0.533,0.4684,-0.1285,0.6927
0.042,-0.025,0.01,-6,-22.4,-1.4,0,2018,5,1,22,18,52.69,-0.5312,0.4697,-0.1319,0.6925
0.03,-0.031,0.006,-4.6,-18.3,-2.6,0,2018,5,1,22,18,52.71,-0.53,0.4708,-0.1353,0.692
0.025,0.002,-0.01,-3.9,-15.3,-1,0,2018,5,1,22,18,52.748,-0.529,0.4718,-0.1379,0.6916
0.022,-0.017,0.001,-4.1,-10.9,-0.5,0,2018,5,1,22,18,52.768,-0.5278,0.4727,-0.1399,0.6915
0.014,-0.011,0.001,-4.8,-6.2,-0.6,0,2018,5,1,22,18,52.772,-0.527,0.4731,-0.1414,0.6916
0.011,0.001,-0.014,-4,-0.9,-0.7,0,2018,5,1,22,18,52.793,-0.5269,0.4728,-0.1422,0.6917
-0.019,-0.024,-0.004,-3.6,2.5,-1.7,0,2018,5,1,22,18,52.813,-0.5268,0.4726,-0.1423,0.6919
-0.026,-0.023,0.013,-5,5.3,-4.1,0,2018,5,1,22,18,52.829,-0.5274,0.4719,-0.1423,0.6919
-0.051,-0.025,0.057,-8.5,6.6,-5.5,0,2018,5,1,22,18,52.866,-0.5284,0.4704,-0.1424,0.6921
-0.091,-0.014,0.127,-17.3,7.1,-5,0,2018,5,1,22,18,52.885,-0.5295,0.4678,-0.1427,0.693
-0.132,-0.017,0.174,-32.3,11,-2.7,0,2018,5,1,22,18,52.89,-0.5303,0.4634,-0.1434,0.6952
-0.178,-0.06,0.144,-48.4,25.6,-2.1,0,2018,5,1,22,18,52.927,-0.531,0.4564,-0.1443,0.6991
-0.146,0.092,0.102,-56.7,37.9,-1.6,0,2018,5,1,22,18,52.948,-0.5328,0.4465,-0.1446,0.704
-0.074,0.237,0.059,-60,18,2.7,0,2018,5,1,22,18,52.952,-0.5339,0.4362,-0.1466,0.7092
-0.042,0.213,0.039,-58.3,-10,9.1,0,2018,5,1,22,18,52.989,-0.5319,0.4288,-0.1514,0.7142
-0.082,-0.085,0.015,-61.2,5.8,11.6,1023,2018,5,1,22,18,53.008,-0.5282,0.4226,-0.1566,0.7196
-0.073,-0.186,-0.035,-63.1,70.1,9.6,1023,2018,5,1,22,18,53.011,-0.5278,0.4118,-0.1568,0.726
0.03,0.006,-0.078,-58.5,105.4,11.8,1023,2018,5,1,22,18,53.048,-0.5313,0.3964,-0.1502,0.7334
0.129,0.145,-0.096,-48.8,95.7,15.6,1023,2018,5,1,22,18,53.051,-0.5352,0.3802,-0.1407,0.741
0.222,0.174,-0.115,-32.7,39,17.5,1023,2018,5,1,22,18,53.07,-0.5367,0.3685,-0.1344,0.7469
0.263,-0.002,-0.19,-14.9,-15.4,16.1,1023,2018,5,1,22,18,53.089,-0.5346,0.365,-0.1346,0.7501
0.273,-0.214,-0.202,-1.1,-41.8,8,1023,2018,5,1,22,18,53.109,-0.5309,0.3673,-0.1388,0.7509
0.237,-0.339,-0.156,7.2,-28.5,-0.7,1023,2018,5,1,22,18,53.147,-0.5282,0.3713,-0.1432,0.75
0.222,-0.213,-0.108,10,-6,-4.4,1023,2018,5,1,22,18,53.168,-0.5281,0.3737,-0.1447,0.7486
0.215,-0.073,-0.112,11.7,2.3,-4.4,1023,2018,5,1,22,18,53.171,-0.5289,0.375,-0.1442,0.7474
0.199,0.029,-0.099,15,-8,-2.3,0,2018,5,1,22,18,53.211,-0.5298,0.3768,-0.1434,0.7461
0.162,0.037,-0.072,18.4,-26.1,-0.2,0,2018,5,1,22,18,53.23,-0.5292,0.3805,-0.1442,0.7444
0.127,0.022,-0.069,22.5,-45.2,1.3,0,2018,5,1,22,18,53.234,-0.5275,0.3862,-0.1476,0.742
0.102,0.029,-0.083,28.1,-57.6,3,0,2018,5,1,22,18,53.254,-0.5246,0.3942,-0.1523,0.739
0.069,0.021,-0.079,34.3,-63.7,3.5,0,2018,5,1,22,18,53.274,-0.5209,0.4041,-0.1575,0.7351
0.049,0.093,-0.062,42,-76,5.1,0,2018,5,1,22,18,53.312,-0.5165,0.4155,-0.1625,0.7307
0.031,0.1,-0.052,46.9,-94.3,9.4,0,2018,5,1,22,18,53.316,-0.5106,0.4292,-0.1684,0.7256
0.008,0.057,-0.015,49.3,-106.1,15.7,0,2018,5,1,22,18,53.333,-0.5026,0.4447,-0.1754,0.7202
-0.045,-0.043,0.023,48.1,-109,19.4,0,2018,5,1,22,18,53.372,-0.4932,0.4611,-0.183,0.7144
-0.041,-0.006,0.044,47,-108.2,21,0,2018,5,1,22,18,53.392,-0.4834,0.477,-0.1903,0.7088
-0.088,-0.072,0.082,41,-97.3,20.6,0,2018,5,1,22,18,53.396,-0.4734,0.4919,-0.1972,0.7035
-0.112,0.001,0.1,35.3,-92.7,17.1,0,2018,5,1,22,18,53.414,-0.4644,0.5047,-0.2032,0.6987
-0.118,0.085,0.106,30.4,-111.6,15.8,0,2018,5,1,22,18,53.453,-0.4545,0.5173,-0.2109,0.6936
-0.109,0.078,0.049,25.8,-128.5,14.2,0,2018,5,1,22,18,53.473,-0.4427,0.5307,-0.2218,0.6877
-0.127,-0.02,0.015,22.2,-129.2,14.5,0,2018,5,1,22,18,53.477,-0.4289,0.5445,-0.233,0.6819
-0.157,-0.15,-0.012,18,-104.6,7.5,0,2018,5,1,22,18,53.495,-0.4167,0.5566,-0.244,0.6759
-0.169,-0.19,-0.041,14.4,-66.3,-2.5,0,2018,5,1,22,18,53.516,-0.4082,0.5654,-0.2524,0.6706
-0.143,-0.136,-0.053,11.4,-26.5,-11.1,0,2018,5,1,22,18,53.535,-0.4045,0.5707,-0.2574,0.6665
-0.134,-0.205,-0.052,8.3,18,-19,0,2018,5,1,22,18,53.554,-0.4058,0.5722,-0.2586,0.664
-0.159,-0.385,-0.087,1.1,90,-31.4,0,2018,5,1,22,18,53.573,-0.414,0.5682,-0.2549,0.6638
-0.132,-0.271,-0.032,-5.8,178.1,-44.1,0,2018,5,1,22,18,53.596,-0.4319,0.556,-0.2428,0.6671
0.051,0.007,-0.069,-15.3,242,-50,0,2018,5,1,22,18,53.613,-0.4568,0.5365,-0.224,0.6732
0.083,0.462,0.012,-15.5,216.5,-37.1,0,2018,5,1,22,18,53.634,-0.4836,0.5131,-0.2008,0.6799
0.199,0.584,-0.004,0.9,99.5,-26.4,1023,2018,5,1,22,18,53.674,-0.5015,0.4972,-0.1852,0.6832
0.179,0.338,-0.034,8.4,-0.7,-5.8,1023,2018,5,1,22,18,53.695,-0.5074,0.4937,-0.1816,0.6824
0.173,0.191,0.091,7.2,-24.7,11.1,1023,2018,5,1,22,18,53.699,-0.5059,0.4964,-0.1828,0.6812
0.189,0.176,0.109,1.9,-14,21.2,1023,2018,5,1,22,18,53.718,-0.5026,0.499,-0.1832,0.6816
0.178,0.199,0.058,-0.6,-43.3,30.6,1023,2018,5,1,22,18,53.74,-0.4976,0.5019,-0.1841,0.683
0.062,-0.14,0.015,0.1,-64.7,32.5,1023,2018,5,1,22,18,53.776,-0.4886,0.5079,-0.1885,0.6838
0.024,-0.348,-0.022,-2.6,-20.6,21.6,1023,2018,5,1,22,18,53.797,-0.4815,0.5124,-0.1917,0.6846
0.008,-0.194,0.107,-6.2,10.8,9.4,1023,2018,5,1,22,18,53.801,-0.4801,0.5121,-0.1911,0.686
0.019,-0.161,0.118,-9.6,-1,-0.8,1023,2018,5,1,22,18,53.815,-0.4805,0.5102,-0.1912,0.687
0.052,-0.066,0.13,-12,-1.6,-4.9,1023,2018,5,1,22,18,53.854,-0.4806,0.5087,-0.1928,0.6877
0.056,-0.031,0.066,-9.9,1.8,-8,0,2018,5,1,22,18,53.874,-0.4812,0.5067,-0.1944,0.6883
0.062,0.072,-0.007,-3.3,-26.7,-8.3,0,2018,5,1,22,18,53.879,-0.4814,0.506,-0.1969,0.6879
0.046,0.069,-0.026,5.6,-57.6,-7.8,0,2018,5,1,22,18,53.898,-0.4787,0.5095,-0.2026,0.6856
0.047,0.014,-0.029,11.9,-73.6,-7.3,0,2018,5,1,22,18,53.934,-0.474,0.516,-0.2106,0.6815
0.017,-0.11,-0.033,14.2,-59.1,-9.4,0,2018,5,1,22,18,53.953,-0.4695,0.5231,-0.2187,0.6767
0.025,-0.155,-0.031,17.3,-30.1,-15.4,0,2018,5,1,22,18,53.96,-0.4679,0.5282,-0.2245,0.6719
0.019,-0.137,-0.015,21.4,-20.7,-19.4,0,2018,5,1,22,18,53.998,-0.4689,0.532,-0.228,0.6671
0.024,-0.144,0.008,25.8,-16.5,-22.8,0,2018,5,1,22,18,54.018,-0.4706,0.5356,-0.2308,0.6619
0.001,-0.186,0.066,24.5,6.6,-25.8,0,2018,5,1,22,18,54.022,-0.4744,0.5379,-0.2323,0.6568
-0.012,-0.132,0.139,17.8,37.4,-28.7,0,2018,5,1,22,18,54.035,-0.4809,0.5368,-0.2304,0.6537
-0.023,-0.02,0.161,14.5,32.8,-35.3,0,2018,5,1,22,18,54.074,-0.4896,0.5331,-0.2273,0.6514
-0.048,-0.11,0.165,13.8,1.5,-38.7,0,2018,5,1,22,18,54.094,-0.4965,0.531,-0.2273,0.6478
-0.081,-0.173,0.149,12.9,-9.2,-45.6,0,2018,5,1,22,18,54.096,-0.5017,0.5308,-0.2306,0.6428
-0.098,-0.272,0.084,10.4,8.1,-54.9,0,2018,5,1,22,18,54.134,-0.5078,0.53,-0.2343,0.6373
-0.109,-0.24,0.101,9.9,12.8,-67.1,0,2018,5,1,22,18,54.154,-0.5165,0.5275,-0.2379,0.631
-0.118,-0.244,0.177,8.7,-0.9,-78.5,0,2018,5,1,22,18,54.156,-0.5257,0.5246,-0.2427,0.6239
-0.236,-0.431,0.221,4,-27.8,-96.9,0,2018,5,1,22,18,54.194,-0.5343,0.5227,-0.2513,0.6148
-0.357,-0.66,0.163,0,-45.4,-127.8,0,2018,5,1,22,18,54.215,-0.5428,0.5215,-0.265,0.6024
-0.466,-0.712,0.048,2.8,-65.2,-169.7,0,2018,5,1,22,18,54.221,-0.5531,0.5202,-0.2842,0.5852
-0.4,-0.568,-0.01,11.7,-110.3,-211,0,2018,5,1,22,18,54.237,-0.5651,0.5192,-0.3094,0.5614
-0.336,-0.491,-0.129,30.6,-182.1,-246.7,0,2018,5,1,22,18,54.277,-0.5751,0.5226,-0.3423,0.528
-0.328,-0.531,-0.208,50,-178.2,-278.8,0,2018,5,1,22,18,54.296,-0.5835,0.5289,-0.3796,0.4852
-0.241,-0.236,-0.209,63.2,-108.9,-298.9,0,2018,5,1,22,18,54.3,-0.5981,0.5279,-0.4118,0.4403
-0.201,0.287,-0.163,74.8,-66.6,-293.5,1023,2018,5,1,22,18,54.338,-0.6175,0.5196,-0.4379,0.396
-0.234,0.489,-0.088,86.6,-61.9,-277.7,1023,2018,5,1,22,18,54.359,-0.6371,0.5092,-0.4587,0.3525
-0.328,0.54,-0.032,91.8,-44.8,-250.1,1023,2018,5,1,22,18,54.363,-0.6546,0.4994,-0.4752,0.3101
-0.323,0.79,0.018,87.9,5.2,-214.7,1023,2018,5,1,22,18,54.381,-0.6725,0.4865,-0.4856,0.274
-0.282,0.899,0.003,83.1,9.8,-177.9,1023,2018,5,1,22,18,54.402,-0.6896,0.4722,-0.4913,0.2446
-0.215,0.936,0.145,76.9,-10.9,-138.5,1023,2018,5,1,22,18,54.421,-0.703,0.4619,-0.4944,0.2188
-0.173,0.866,0.254,64.6,-46.6,-98.6,1023,2018,5,1,22,18,54.442,-0.7112,0.4578,-0.496,0.1959
-0.146,0.71,0.214,48.9,-53.8,-62.3,1023,2018,5,1,22,18,54.481,-0.7146,0.4594,-0.497,0.1764
-0.103,0.497,0.091,31.3,-27.7,-33.4,1023,2018,5,1,22,18,54.502,-0.7162,0.4617,-0.497,0.1633
-0.04,0.417,0.071,17,7.8,-11.9,0,2018,5,1,22,18,54.506,-0.7184,0.4613,-0.496,0.1577
0.005,0.374,0.105,6.7,15.4,4.8,0,2018,5,1,22,18,54.521,-0.7208,0.4595,-0.4943,0.1575
0.02,0.28,0.162,-3,1.8,15.3,0,2018,5,1,22,18,54.558,-0.7214,0.4593,-0.493,0.1594
0.037,0.127,0.121,-11.5,-8,20.2,0,2018,5,1,22,18,54.578,-0.7199,0.4612,-0.4926,0.162
0.05,0.023,0.032,-15.1,-4.7,22.3,0,2018,5,1,22,18,54.582,-0.7178,0.4632,-0.4927,0.165
0.054,-0.089,-0.074,-13.2,0.5,19.6,0,2018,5,1,22,18,54.603,-0.7155,0.4652,-0.4931,0.1684
0.057,-0.131,-0.019,-8.7,9.8,13.3,0,2018,5,1,22,18,54.622,-0.714,0.4662,-0.4931,0.1717
0.057,-0.122,0.064,-6.9,17.6,6.7,0,2018,5,1,22,18,54.658,-0.7142,0.4653,-0.4926,0.1749
0.059,-0.04,0.079,-4.9,15.4,1.7,0,2018,5,1,22,18,54.678,-0.7154,0.4631,-0.4921,0.1773
0.059,-0.004,0.042,-2.3,5.1,0.4,0,2018,5,1,22,18,54.686,-0.7162,0.4615,-0.492,0.1784
0.048,0.002,0.009,0,2.9,0.9,0,2018,5,1,22,18,54.704,-0.7165,0.461,-0.492,0.1785
0.024,0.006,0.029,0.1,8.2,1.2,0,2018,5,1,22,18,54.726,-0.7172,0.4602,-0.4917,0.1786
0.014,0.01,0.031,0.1,11.1,1,0,2018,5,1,22,18,54.741,-0.7183,0.459,-0.491,0.1793
0.014,0.054,0.036,0.6,5.2,0.9,0,2018,5,1,22,18,54.762,-0.7191,0.4578,-0.4905,0.1801
0.013,0.028,0.026,0.8,-1.2,1.1,0,2018,5,1,22,18,54.781,-0.7194,0.4577,-0.4903,0.1802
0.007,0.031,0.003,0.4,-0.5,1.1,0,2018,5,1,22,18,54.82,-0.7194,0.458,-0.4901,0.1799
0.006,0.041,0.008,0.2,1.2,1.9,0,2018,5,1,22,18,54.84,-0.7194,0.4581,-0.4899,0.1799
0.008,0.065,0.031,-0.4,0.4,2.8,0,2018,5,1,22,18,54.844,-0.7198,0.4579,-0.4896,0.1798
0,0.041,0.007,-1.2,-1,2.8,0,2018,5,1,22,18,54.864,-0.7197,0.4581,-0.4894,0.18
0.001,0.026,-0.004,-1.6,0.8,2.8,0,2018,5,1,22,18,54.885,-0.7196,0.4584,-0.4893,0.1802
0.006,0.014,0,-2.3,3.1,1.3,0,2018,5,1,22,18,54.923,-0.7195,0.4584,-0.4893,0.1807
0.01,0.046,0.017,-2.3,-1.2,0,0,2018,5,1,22,18,54.927,-0.7195,0.4581,-0.4895,0.1808
0.018,0.034,0.007,-2.3,-5.9,-0.7,0,2018,5,1,22,18,54.944,-0.7192,0.4584,-0.4899,0.1801
0.014,0.02,-0.006,-2.4,-5.5,-0.9,1023,2018,5,1,22,18,54.962,-0.7186,0.459,-0.4905,0.1793
0.019,0.019,-0.005,-2.6,-3.7,-1.7,1023,2018,5,1,22,18,54.984,-0.7181,0.4594,-0.4911,0.1787
0.023,0.02,-0.005,-2.3,-4.3,-2.8,1023,2018,5,1,22,18,55.004,-0.7177,0.4596,-0.4918,0.1779
0.025,0.029,0.006,-2,-5.4,-3.6,1023,2018,5,1,22,18,55.042,-0.7174,0.4598,-0.4926,0.1766
0.019,0.026,0.011,-1.6,-5.7,-3.4,1023,2018,5,1,22,18,55.062,-0.7169,0.4601,-0.4933,0.1755
0.018,0.035,0.008,-1.6,-3.5,-2.5,1023,2018,5,1,22,18,55.065,-0.7167,0.4602,-0.4938,0.1744
0.017,0.059,0.016,-1.7,-2,-1.2,1023,2018,5,1,22,18,55.102,-0.7167,0.4602,-0.4943,0.1737
0.009,0.094,0.039,-2.5,-2.5,1.6,1023,2018,5,1,22,18,55.122,-0.7167,0.46,-0.4945,0.1731
0.006,0.131,0.047,-4.6,-4.4,5.7,1023,2018,5,1,22,18,55.125,-0.7165,0.4601,-0.4948,0.1729
0.003,0.157,0.037,-7,-7.1,11.3,1023,2018,5,1,22,18,55.165,-0.716,0.4607,-0.4949,0.1732
-0.005,0.18,0.025,-9,-9.7,17.9,0,2018,5,1,22,18,55.187,-0.7145,0.4622,-0.4952,0.1744
-0.016,0.218,0.053,-11.2,-12.4,26.3,0,2018,5,1,22,18,55.191,-0.7123,0.4648,-0.4951,0.1767
-0.015,0.295,0.1,-15.3,-14.2,37.2,0,2018,5,1,22,18,55.209,-0.7093,0.4687,-0.4945,0.1803
-0.029,0.39,0.155,-22.1,-18.2,52.8,0,2018,5,1,22,18,55.245,-0.7049,0.474,-0.4936,0.1859
-0.049,0.461,0.193,-31.9,-16.9,73,0,2018,5,1,22,18,55.263,-0.6991,0.4807,-0.4922,0.1941
-0.085,0.403,0.1,-41.3,-17.9,93.4,0,2018,5,1,22,18,55.268,-0.6917,0.4886,-0.4902,0.2057
-0.112,0.344,0.023,-46.5,-11.5,111.1,0,2018,5,1,22,18,55.287,-0.6831,0.4973,-0.4872,0.2201
-0.114,0.378,0.059,-51.5,10.4,131.5,0,2018,5,1,22,18,55.305,-0.6746,0.5052,-0.4823,0.2384
-0.113,0.451,0.096,-57.7,32.9,152.8,0,2018,5,1,22,18,55.344,-0.6661,0.512,-0.475,0.2615
-0.114,0.57,0.073,-61.5,32.8,175.7,0,2018,5,1,22,18,55.365,-0.6565,0.5185,-0.4654,0.2888
-0.173,0.589,0.047,-62.4,23.8,203.9,0,2018,5,1,22,18,55.369,-0.644,0.5273,-0.4536,0.3182
-0.168,0.52,0.027,-64,36.7,230.9,0,2018,5,1,22,18,55.389,-0.629,0.5374,-0.4388,0.3504
-0.287,0.193,-0.069,-64.8,77.2,252.2,0,2018,5,1,22,18,55.425,-0.6138,0.5455,-0.4192,0.387
-0.235,-0.312,-0.213,-62.5,219.8,263.9,0,2018,5,1,22,18,55.429,-0.6044,0.5442,-0.3912,0.4304
-0.146,-0.652,-0.471,-41.7,413.5,255.8,0,2018,5,1,22,18,55.445,-0.6101,0.5226,-0.3465,0.4841
-0.087,-0.044,-0.51,17.1,464,238.9,0,2018,5,1,22,18,55.484,-0.6277,0.4858,-0.2851,0.5371
-0.188,0.013,-0.278,56.2,441.8,231.4,0,2018,5,1,22,18,55.504,-0.6433,0.4498,-0.2173,0.5801
-0.419,-0.311,0.186,74.2,406.7,191.1,0,2018,5,1,22,18,55.507,-0.6555,0.4152,-0.1492,0.6128
-0.402,-0.124,0.506,94.9,310.8,132.8,0,2018,5,1,22,18,55.528,-0.6655,0.3854,-0.0885,0.6329
-0.392,0.106,0.571,95.8,108.8,92.7,0,2018,5,1,22,18,55.547,-0.6684,0.3732,-0.0468,0.6416
-0.266,-0.097,0.365,87.3,-62.2,76.8,0,2018,5,1,22,18,55.569,-0.6605,0.3824,-0.0293,0.6453
-0.199,-0.156,0.232,77.4,-146.8,66.6,0,2018,5,1,22,18,55.588,-0.6449,0.4046,-0.0273,0.6477
-0.179,-0.257,0.36,50.8,-185.7,62.9,0,2018,5,1,22,18,55.626,-0.6255,0.4309,-0.0343,0.6494
-0.121,-0.519,0.297,24.8,-123.3,46.6,1023,2018,5,1,22,18,55.645,-0.607,0.4529,-0.0445,0.6514
-0.055,-0.378,0.241,6.9,-45.7,32,1023,2018,5,1,22,18,55.65,-0.5963,0.4631,-0.0487,0.6538
-0.021,-0.179,0.201,-6.3,-17.1,25.8,1023,2018,5,1,22,18,55.669,-0.5908,0.466,-0.0499,0.6566
0.015,-0.054,0.124,-12.2,5.1,22.3,1023,2018,5,1,22,18,55.688,-0.5881,0.465,-0.0501,0.6597
0.045,0.095,0.065,-13.1,6.8,22.2,1023,2018,5,1,22,18,55.728,-0.5865,0.462,-0.0484,0.6634
0.054,0.115,0.009,-9.6,-7.5,23.5,1023,2018,5,1,22,18,55.747,-0.5838,0.4602,-0.0473,0.667
0.048,0.1,-0.035,-4.8,-12,26.7,1023,2018,5,1,22,18,55.752,-0.58,0.4604,-0.0467,0.6703
0.034,0.1,-0.062,-1,-7.1,31.5,1023,2018,5,1,22,18,55.77,-0.5755,0.4613,-0.0451,0.6736
-0.03,0.084,0,-0.1,-5.3,34.9,1023,2018,5,1,22,18,55.792,-0.5709,0.4622,-0.0421,0.6771
-0.043,-0.091,0.005,0.3,-24.9,31.2,1023,2018,5,1,22,18,55.811,-0.5654,0.4644,-0.0411,0.6803
-0.058,-0.223,0.068,-2,-22.9,22.8,0,2018,5,1,22,18,55.831,-0.5602,0.4675,-0.0424,0.6824
-0.005,-0.315,0.054,-3.2,-3.4,8.7,0,2018,5,1,22,18,55.869,-0.5572,0.4687,-0.0434,0.6839
0.004,-0.23,0.034,-2.6,18.7,-3.1,0,2018,5,1,22,18,55.891,-0.5577,0.4675,-0.0424,0.6845
0.023,-0.086,0.031,-0.9,30.3,-9.9,0,2018,5,1,22,18,55.895,-0.5609,0.4647,-0.0405,0.6839
0.035,0.065,0.034,-0.6,23.4,-9.7,0,2018,5,1,22,18,55.913,-0.5644,0.4617,-0.038,0.6831
0.038,0.121,0.028,-2.3,9.8,-5.6,0,2018,5,1,22,18,55.932,-0.5666,0.4593,-0.0361,0.683
0.046,0.185,0.029,-4.9,-1.5,1,0,2018,5,1,22,18,55.95,-0.5672,0.4583,-0.036,0.6832
0.027,0.17,0.05,-7.4,-27.2,6.5,0,2018,5,1,22,18,55.988,-0.5657,0.4589,-0.038,0.6839
0.02,0.09,0.038,-9.2,-50.4,10,0,2018,5,1,22,18,56.009,-0.5616,0.4615,-0.0427,0.6853
0.011,0,0.012,-10.9,-61.7,10.2,0,2018,5,1,22,18,56.013,-0.5557,0.4657,-0.0494,0.6868
0.012,-0.057,-0.006,-12.3,-62.4,9.2,0,2018,5,1,22,18,56.051,-0.5494,0.4706,-0.0574,0.688
0.006,-0.073,-0.032,-12.3,-53.8,7.1,0,2018,5,1,22,18,56.071,-0.5435,0.4751,-0.0653,0.6888
0.006,-0.067,-0.031,-12.2,-44.1,6,0,2018,5,1,22,18,56.075,-0.5386,0.4788,-0.0723,0.6894
0.007,-0.061,-0.022,-11.8,-33.4,4.5,0,2018,5,1,22,18,56.092,-0.5346,0.4815,-0.0779,0.69
0.004,-0.053,-0.011,-11.6,-23.6,2.2,0,2018,5,1,22,18,56.13,-0.5318,0.483,-0.0824,0.6906
-0.004,-0.067,-0.008,-11.9,-13.9,-1.1,0,2018,5,1,22,18,56.134,-0.5302,0.4834,-0.086,0.6911
-0.002,-0.021,-0.006,-10.4,-7.3,-4.6,0,2018,5,1,22,18,56.152,-0.5297,0.4832,-0.0887,0.6913
0.003,-0.019,0.011,-9.7,0.8,-8.3,0,2018,5,1,22,18,56.171,-0.5302,0.4822,-0.0906,0.6914
-0.006,-0.032,0.015,-9.8,7.2,-13.3,0,2018,5,1,22,18,56.192,-0.5318,0.4805,-0.092,0.6911
-0.002,0.009,0.045,-8.5,7.7,-15.8,0,2018,5,1,22,18,56.213,-0.5342,0.4784,-0.0929,0.6906
-0.047,-0.105,0.123,-10.9,1.1,-19.4,0,2018,5,1,22,18,56.251,-0.5366,0.4765,-0.0948,0.6898
-0.114,-0.093,0.165,-20.1,17.8,-20.5,0,2018,5,1,22,18,56.27,-0.5398,0.4731,-0.097,0.6894
-0.107,-0.009,0.156,-28.9,49.8,-17.5,0,2018,5,1,22,18,56.297,-0.5446,0.466,-0.0956,0.6906
-0.112,0.021,0.134,-39.8,59,-17.4,1023,2018,5,1,22,18,56.314,-0.5506,0.4558,-0.0929,0.693
-0.134,0.062,0.102,-49.4,75.6,-13.5,1023,2018,5,1,22,18,56.315,-0.557,0.4433,-0.0894,0.6965
-0.118,0.133,0.074,-57.3,77.6,-10.8,1023,2018,5,1,22,18,56.335,-0.5637,0.4288,-0.0861,0.7005
-0.056,0.23,0.025,-60.2,67.4,-4.4,1023,2018,5,1,22,18,56.354,-0.5695,0.4139,-0.0837,0.7051
0.008,0.268,-0.023,-57,36.1,3.4,1023,2018,5,1,22,18,56.371,-0.5726,0.4014,-0.0832,0.7099
0.055,0.188,-0.022,-51.6,-1.6,11.4,1023,2018,5,1,22,18,56.393,-0.5722,0.393,-0.0863,0.7145
0.036,0.003,-0.027,-49.9,-15.1,12.8,1023,2018,5,1,22,18,56.429,-0.5692,0.3878,-0.0915,0.7191
0.075,-0.065,-0.054,-48.6,-13.6,12.2,1023,2018,5,1,22,18,56.45,-0.5658,0.3835,-0.0979,0.7232
0.137,-0.062,-0.109,-43.4,-13.5,10.8,1023,2018,5,1,22,18,56.452,-0.5628,0.3792,-0.1035,0.727
0.199,-0.072,-0.16,-34.4,-19.7,9.9,1023,2018,5,1,22,18,56.49,-0.5599,0.3759,-0.1089,0.7302
0.235,-0.098,-0.195,-21.1,-34.4,7.7,0,2018,5,1,22,18,56.51,-0.5567,0.3749,-0.1146,0.7323
0.242,-0.124,-0.195,-9.1,-47,7.5,0,2018,5,1,22,18,56.512,-0.5529,0.3773,-0.121,0.7329
0.228,-0.123,-0.169,-0.7,-45.5,7.7,0,2018,5,1,22,18,56.551,-0.5489,0.3812,-0.1271,0.7329
0.193,-0.186,-0.145,4.4,-32.2,4.8,0,2018,5,1,22,18,56.571,-0.5456,0.3853,-0.1316,0.7323
0.163,-0.158,-0.128,7.8,-15.5,2.1,0,2018,5,1,22,18,56.575,-0.5439,0.3883,-0.1338,0.7317
0.142,-0.122,-0.123,11.7,-3.2,1,0,2018,5,1,22,18,56.614,-0.5433,0.3905,-0.1339,0.7309
0.116,-0.063,-0.105,15.9,2.1,0.7,0,2018,5,1,22,18,56.634,-0.5439,0.392,-0.1326,0.7299
0.129,0.067,-0.101,21.8,-6.4,2.9,0,2018,5,1,22,18,56.636,-0.5445,0.3944,-0.1315,0.7283
0.12,0.187,-0.099,30.8,-45.7,7.7,0,2018,5,1,22,18,56.653,-0.5432,0.3996,-0.1316,0.7265
0.074,0.201,-0.083,39.2,-100.6,15.3,0,2018,5,1,22,18,56.672,-0.5373,0.4109,-0.136,0.7237
0.052,0.099,-0.067,46.1,-142.5,21.6,0,2018,5,1,22,18,56.709,-0.5267,0.4283,-0.1454,0.7196
-0.031,-0.022,-0.048,49.2,-165.1,23.1,0,2018,5,1,22,18,56.73,-0.5133,0.4494,-0.1588,0.7136
-0.082,-0.091,-0.021,46.4,-168,20.9,0,2018,5,1,22,18,56.734,-0.4984,0.4714,-0.1736,0.7064
-0.118,-0.141,0.01,39,-154.1,15.8,0,2018,5,1,22,18,56.772,-0.4838,0.4919,-0.1883,0.6988
-0.122,-0.171,0.045,29,-117,9.6,0,2018,5,1,22,18,56.792,-0.4715,0.5082,-0.2009,0.692
-0.114,-0.107,0.043,20.7,-79.3,2.4,0,2018,5,1,22,18,56.796,-0.4633,0.5193,-0.2099,0.6867
-0.127,-0.122,0.008,15.4,-55.3,-5,0,2018,5,1,22,18,56.835,-0.4577,0.5271,-0.2161,0.6825
-0.117,-0.132,0.007,12.4,-23.5,-11.7,0,2018,5,1,22,18,56.837,-0.4554,0.532,-0.2203,0.6788
-0.063,-0.034,0.06,13.1,0,-16,0,2018,5,1,22,18,56.855,-0.4569,0.5339,-0.2216,0.676
-0.041,0.033,0.122,12.5,3.8,-16.6,0,2018,5,1,22,18,56.891,-0.46,0.534,-0.2211,0.6739
-0.031,0.057,0.146,11,0.4,-14.9,0,2018,5,1,22,18,56.911,-0.4628,0.5346,-0.2215,0.6714
0.009,0.03,0.108,8.6,3.6,-10.1,0,2018,5,1,22,18,56.915,-0.465,0.535,-0.2217,0.6695
-0.006,-0.049,0.047,6.5,25.5,-6.3,1023,2018,5,1,22,18,56.952,-0.4678,0.5339,-0.22,0.669
-0.036,-0.079,0.003,7.9,46.5,-4.6,1023,2018,5,1,22,18,56.973,-0.4723,0.5315,-0.2155,0.6692
0.022,-0.053,-0.04,10.9,62.1,-5,1023,2018,5,1,22,18,56.976,-0.4787,0.528,-0.2091,0.6695
-0.004,0.013,0.094,12.9,49.3,-8.1,1023,2018,5,1,22,18,57.012,-0.4855,0.5242,-0.2017,0.6698
-0.008,-0.025,0.137,11.8,30.9,-13,1023,2018,5,1,22,18,57.031,-0.4913,0.5213,-0.1967,0.6693
-0.018,-0.01,0.104,6.8,25.8,-17.6,1023,2018,5,1,22,18,57.037,-0.4966,0.5186,-0.1936,0.6684
-0.053,-0.105,0.08,0.6,18.5,-22.5,1023,2018,5,1,22,18,57.075,-0.5012,0.5162,-0.1923,0.6672
-0.04,-0.093,0.047,-1.1,14.9,-29.1,1023,2018,5,1,22,18,57.095,-0.506,0.5137,-0.1927,0.6655
-0.006,-0.082,0.008,1.8,14.8,-36.6,1023,2018,5,1,22,18,57.099,-0.5113,0.5114,-0.1941,0.6627
-0.007,-0.101,0.026,5.7,9.8,-42.9,1023,2018,5,1,22,18,57.116,-0.5176,0.5093,-0.196,0.6589
0.003,-0.119,0.023,12.6,-4.8,-49.4,0,2018,5,1,22,18,57.137,-0.5237,0.5085,-0.1993,0.6536
0.018,-0.234,0.031,20.6,-25.2,-55.3,0,2018,5,1,22,18,57.174,-0.5291,0.5102,-0.2049,0.6462
0.049,-0.271,0.032,29.7,-33.3,-61.7,0,2018,5,1,22,18,57.198,-0.5341,0.5138,-0.2114,0.6371
0.076,-0.219,0.028,34.6,-20.5,-67.1,0,2018,5,1,22,18,57.202,-0.5403,0.5173,-0.2172,0.627
-0.02,-0.232,0.04,34.9,-28.2,-71.6,0,2018,5,1,22,18,57.239,-0.5473,0.5207,-0.2234,0.6158
-0.021,-0.314,0.055,29.2,-0.3,-77.5,0,2018,5,1,22,18,57.258,-0.5554,0.5227,-0.2294,0.6046
-0.097,-0.278,0.088,23.5,28.7,-93.4,0,2018,5,1,22,18,57.262,-0.5668,0.5206,-0.2332,0.5942
-0.093,-0.075,0.08,23.5,5.9,-109.4,0,2018,5,1,22,18,57.283,-0.5802,0.5167,-0.2375,0.5829
-0.066,0,0.093,25.2,-48.7,-117.6,0,2018,5,1,22,18,57.301,-0.5907,0.5164,-0.2467,0.5686
-0.122,-0.181,0.04,28.3,-93.6,-130.8,0,2018,5,1,22,18,57.324,-0.597,0.5215,-0.2618,0.5504
-0.144,-0.336,-0.002,31.2,-97.9,-149.4,0,2018,5,1,22,18,57.338,-0.6023,0.5286,-0.2805,0.5282
-0.219,-0.462,-0.037,35.3,-92.3,-172.1,0,2018,5,1,22,18,57.377,-0.6093,0.5341,-0.3005,0.503
-0.223,-0.256,0.017,42.9,-112.4,-198.6,0,2018,5,1,22,18,57.397,-0.6177,0.5383,-0.3217,0.4743
-0.129,-0.097,-0.037,59.9,-188.8,-220.3,0,2018,5,1,22,18,57.401,-0.6229,0.5471,-0.3471,0.4383
-0.134,-0.219,-0.16,85,-253.7,-237.3,0,2018,5,1,22,18,57.419,-0.6221,0.5626,-0.3776,0.3919
-0.153,-0.168,-0.28,116.3,-283.7,-252.8,0,2018,5,1,22,18,57.441,-0.6179,0.5813,-0.4083,0.3367
-0.198,-0.08,-0.273,151.3,-290.2,-261.9,0,2018,5,1,22,18,57.462,-0.6115,0.6007,-0.436,0.2738
-0.161,-0.015,-0.003,173.1,-265.1,-257.7,0,2018,5,1,22,18,57.48,-0.6057,0.6169,-0.4579,0.2067
-0.311,0.071,0.318,165.6,-184.6,-234.2,0,2018,5,1,22,18,57.52,-0.6024,0.6261,-0.4736,0.1438
-0.419,0.305,0.352,139.6,-64,-203.7,0,2018,5,1,22,18,57.541,-0.6064,0.6237,-0.484,0.094
-0.351,0.795,0.456,110.3,10.4,-162.4,0,2018,5,1,22,18,57.545,-0.6174,0.6117,-0.4908,0.0596
-0.235,0.968,0.619,79.4,12.2,-111.6,0,2018,5,1,22,18,57.559,-0.6285,0.599,-0.4947,0.036
-0.197,0.761,0.554,45.4,1.2,-61.3,0,2018,5,1,22,18,57.598,-0.6348,0.5914,-0.4967,0.0207
-0.158,0.477,0.288,15.8,27,-24.3,0,2018,5,1,22,18,57.617,-0.6387,0.5866,-0.4975,0.014
-0.09,0.442,0.162,-3.4,55.1,0.2,1023,2018,5,1,22,18,57.621,-0.6439,0.5806,-0.4979,0.016
-0.048,0.432,0.102,-12.1,42.5,18.4,1023,2018,5,1,22,18,57.658,-0.6484,0.5756,-0.4975,0.0223
-0.033,0.296,0.039,-15,6.6,29,1023,2018,5,1,22,18,57.679,-0.6498,0.5748,-0.4964,0.0283
-0.023,0.043,-0.047,-14.7,-4.7,29.6,1023,2018,5,1,22,18,57.683,-0.6477,0.5778,-0.4954,0.0324
0.007,-0.042,-0.083,-13.9,8,22.5,1023,2018,5,1,22,18,57.702,-0.6457,0.5805,-0.4946,0.0371
0.053,0.037,-0.051,-11.3,15.4,13.5,1023,2018,5,1,22,18,57.725,-0.6453,0.5808,-0.4944,0.0413
0.081,0.172,0.013,-8.3,-5.1,9.3,1023,2018,5,1,22,18,57.743,-0.645,0.5807,-0.4947,0.0435
0.087,0.136,0.02,-6,-25.9,8.4,1023,2018,5,1,22,18,57.781,-0.6426,0.5834,-0.4947,0.0435
0.064,0.029,-0.038,-5.4,-23.8,8,1023,2018,5,1,22,18,57.803,-0.6392,0.5868,-0.4952,0.0418
0.044,0.037,0.043,-4.3,-15.2,6,0,2018,5,1,22,18,57.807,-0.6367,0.5894,-0.4953,0.0412
0.034,0.051,0.083,-4.6,-22.1,4.9,0,2018,5,1,22,18,57.824,-0.6349,0.5914,-0.4954,0.0401
0.029,0.003,0.045,-5,-28.4,4.3,0,2018,5,1,22,18,57.842,-0.6321,0.5944,-0.4955,0.0384
0.03,-0.021,0.03,-5.9,-23.8,4.3,0,2018,5,1,22,18,57.88,-0.6291,0.5975,-0.4956,0.037
0.031,-0.034,0.013,-6.5,-15.1,4.9,0,2018,5,1,22,18,57.899,-0.6266,0.6,-0.4959,0.0365
0.025,-0.06,-0.001,-6.6,-7.7,5.7,0,2018,5,1,22,18,57.903,-0.6248,0.6018,-0.496,0.0369
0.019,-0.053,0.027,-7,0.8,4.8,0,2018,5,1,22,18,57.942,-0.6239,0.6026,-0.4959,0.0383
0.007,-0.033,0.037,-7.2,0,3.7,0,2018,5,1,22,18,57.962,-0.6236,0.6028,-0.496,0.0396
0.002,-0.019,0.066,-8.2,0.2,2.4,0,2018,5,1,22,18,57.966,-0.6232,0.603,-0.4961,0.0408
0.004,-0.002,0.051,-11.2,5.6,2.9,0,2018,5,1,22,18,57.987,-0.623,0.6028,-0.4966,0.0425
0.004,0.06,0.042,-15.1,14.8,5.2,0,2018,5,1,22,18,58.007,-0.6233,0.6017,-0.4973,0.0451
0.005,0.092,0.033,-16.8,14.4,9.3,0,2018,5,1,22,18,58.027,-0.6234,0.6004,-0.4984,0.0484
-0.001,0.099,0.044,-19.6,19,13.9,0,2018,5,1,22,18,58.048,-0.6236,0.5993,-0.4991,0.0525
0.004,0.17,0.083,-22.7,20,19.3,0,2018,5,1,22,18,58.065,-0.624,0.5979,-0.4997,0.0577
0.004,0.207,0.074,-27,14.5,27.5,0,2018,5,1,22,18,58.083,-0.6237,0.5973,-0.5001,0.0634
-0.004,0.248,0.035,-32.1,12.3,38.4,0,2018,5,1,22,18,58.106,-0.6223,0.5982,-0.4997,0.0708
-0.023,0.302,-0.003,-34.6,9.7,49.3,0,2018,5,1,22,18,58.125,-0.6201,0.6003,-0.4985,0.0801
-0.023,0.368,0.048,-34.2,-19.3,61.6,0,2018,5,1,22,18,58.162,-0.6159,0.605,-0.4964,0.0895
-0.004,0.27,0.085,-35.6,-47.8,73,0,2018,5,1,22,18,58.183,-0.6081,0.6141,-0.4934,0.097
-0.035,0.167,0.108,-43.6,-41.8,82.8,0,2018,5,1,22,18,58.188,-0.5987,0.6248,-0.4899,0.1052
-0.056,0.09,0.093,-51.6,-18.7,89.2,0,2018,5,1,22,18,58.208,-0.5899,0.6342,-0.4858,0.1169
-0.062,0.068,0.027,-56.7,3.9,93,0,2018,5,1,22,18,58.226,-0.5828,0.6414,-0.481,0.132
-0.049,0.106,0.064,-57.9,8.4,94.9,0,2018,5,1,22,18,58.246,-0.5765,0.6472,-0.4758,0.1488
-0.042,0.154,0.165,-61.5,-2.7,97.4,0,2018,5,1,22,18,58.265,-0.57,0.653,-0.4704,0.1654
-0.038,0.199,0.214,-70.1,-11.6,102.4,1023,2018,5,1,22,18,58.284,-0.5609,0.6598,-0.4656,0.1819
-0.048,0.17,0.152,-81.3,-7.8,109.5,1023,2018,5,1,22,18,58.305,-0.5505,0.6666,-0.4607,0.2001
-0.089,0.078,0.049,-88.6,28.1,116.5,1023,2018,5,1,22,18,58.328,-0.5405,0.672,-0.4549,0.2219
-0.092,0.033,0.016,-94.8,99.3,121,1023,2018,5,1,22,18,58.347,-0.5358,0.6718,-0.4462,0.2496
-0.03,0.048,0.035,-100.3,164.1,128.5,1023,2018,5,1,22,18,58.384,-0.5381,0.6645,-0.4341,0.2833
0.004,0.251,0.12,-103.7,196.2,141.8,1023,2018,5,1,22,18,58.405,-0.5447,0.6516,-0.4183,0.3218
0.018,0.261,0.088,-105.7,204,158.3,1023,2018,5,1,22,18,58.409,-0.5515,0.6363,-0.3989,0.3628
-0.011,0.175,0.001,-101.5,207.3,172.7,1023,2018,5,1,22,18,58.445,-0.5557,0.621,-0.3768,0.4042
-0.017,-0.023,-0.084,-92.7,225.4,181.3,1023,2018,5,1,22,18,58.467,-0.5591,0.6045,-0.3509,0.4458
0,0.029,-0.061,-79.3,237.9,183.6,1023,2018,5,1,22,18,58.471,-0.563,0.586,-0.3215,0.4859
0.016,0.161,-0.04,-64,232.9,191.9,1023,2018,5,1,22,18,58.489,-0.5662,0.5668,-0.2887,0.5241
-0.009,0.109,-0.048,-48.6,224.2,199.4,0,2018,5,1,22,18,58.511,-0.5668,0.5486,-0.2529,0.56
-0.257,-0.697,-0.138,-38.7,255.4,182.4,0,2018,5,1,22,18,58.53,-0.5674,0.5295,-0.2153,0.5925
-0.294,-0.796,-0.023,-25.2,358,149.7,0,2018,5,1,22,18,58.547,-0.5769,0.5005,-0.1707,0.6224
-0.22,-0.249,0.128,-3.4,362.3,120.5,0,2018,5,1,22,18,58.587,-0.5928,0.4649,-0.1199,0.6464
-0.145,0.137,0.234,15,273.8,100.5,0,2018,5,1,22,18,58.607,-0.6056,0.4338,-0.0733,0.6629
-0.091,0.227,0.303,30.5,118.5,88,0,2018,5,1,22,18,58.611,-0.6097,0.4165,-0.0413,0.673
-0.063,0.111,0.261,41.4,-29.4,81.6,0,2018,5,1,22,18,58.63,-0.6029,0.4173,-0.027,0.6793
-0.157,-0.258,0.156,35.5,-79.1,74.2,0,2018,5,1,22,18,58.65,-0.589,0.4292,-0.025,0.6842
-0.131,-0.444,0.061,25,-22.9,63.6,0,2018,5,1,22,18,58.671,-0.5768,0.4386,-0.0235,0.6886
-0.227,-0.424,0.156,16,42.3,49,0,2018,5,1,22,18,58.688,-0.5711,0.4399,-0.0153,0.6927
-0.026,-0.431,0.219,1.2,60,28.3,0,2018,5,1,22,18,58.727,-0.5706,0.4358,-0.0054,0.6959
-0.004,-0.316,0.187,-1.8,72.5,11.8,0,2018,5,1,22,18,58.747,-0.5735,0.4289,0.004,0.6978
0.042,-0.058,0.13,-2.6,65.6,1.3,0,2018,5,1,22,18,58.749,-0.5786,0.4211,0.0126,0.6983
0.063,0.101,0.068,-2.1,34,0.3,0,2018,5,1,22,18,58.769,-0.5824,0.415,0.0184,0.6986
0.063,0.16,0.031,-1.3,-3.7,3.7,0,2018,5,1,22,18,58.788,-0.5834,0.4131,0.0201,0.6988
0.053,0.119,0.042,-1.9,-29.5,7.4,0,2018,5,1,22,18,58.826,-0.5816,0.4147,0.0179,0.6995
0.046,0.099,0.051,-3.9,-39.6,10.1,0,2018,5,1,22,18,58.846,-0.5781,0.4177,0.0139,0.7007
0.042,0.074,0.03,-6.7,-48.1,12.6,0,2018,5,1,22,18,58.848,-0.5736,0.4206,0.0093,0.7027
0.034,0.012,0.006,-6.8,-58.2,14,0,2018,5,1,22,18,58.888,-0.5682,0.4247,0.0032,0.7047
0.032,-0.039,-0.003,-5.6,-60.4,13.1,0,2018,5,1,22,18,58.907,-0.5623,0.4297,-0.004,0.7064
0.027,-0.071,-0.004,-4.9,-55.6,10.5,0,2018,5,1,22,18,58.91,-0.5569,0.4348,-0.0114,0.7075
0.029,-0.078,-0.01,-4,-47.1,7.4,0,2018,5,1,22,18,58.952,-0.5522,0.4395,-0.0181,0.7081
0.026,-0.072,-0.015,-3.2,-37.4,4.7,0,2018,5,1,22,18,58.956,-0.5485,0.4434,-0.0238,0.7085
0.032,-0.053,-0.019,-2.3,-27.4,3,0,2018,5,1,22,18,58.972,-0.5459,0.4463,-0.0283,0.7084
0.03,-0.036,-0.017,-2.1,-18.4,2.7,1023,2018,5,1,22,18,58.992,-0.544,0.4483,-0.0315,0.7084
0.032,-0.029,-0.004,-2.3,-12,2.5,1023,2018,5,1,22,18,59.012,-0.5427,0.4496,-0.0337,0.7085
0.032,-0.017,-0.001,-2.3,-7.8,2.2,1023,2018,5,1,22,18,59.031,-0.542,0.4501,-0.0352,0.7087
0.031,-0.014,0.002,-2.3,-6.2,1.7,1023,2018,5,1,22,18,59.05,-0.5412,0.4505,-0.0361,0.709
0.026,-0.006,-0.001,-1.7,-5.1,1.2,1023,2018,5,1,22,18,59.088,-0.5406,0.4509,-0.037,0.7092
0.027,-0.008,0.009,-1.5,-4.5,0.3,1023,2018,5,1,22,18,59.109,-0.5403,0.4511,-0.0377,0.7092
0.02,-0.008,0,-1.4,-4.5,-0.1,1023,2018,5,1,22,18,59.113,-0.5402,0.4512,-0.0386,0.7092
0.025,0,0.009,-1.8,-5.1,-0.1,1023,2018,5,1,22,18,59.134,-0.54,0.4514,-0.0393,0.7092
0.028,-0.001,0.004,-1.8,-6.5,0.2,0,2018,5,1,22,18,59.153,-0.5396,0.4516,-0.0403,0.7093
0.037,-0.012,0.006,-2,-6.8,0.4,0,2018,5,1,22,18,59.174,-0.5392,0.4519,-0.0414,0.7093
0.034,-0.016,0.003,-2.1,-6.2,0.1,0,2018,5,1,22,18,59.195,-0.5387,0.4523,-0.0425,0.7094
0.034,-0.024,0.004,-1.6,-4.9,-0.2,0,2018,5,1,22,18,59.233,-0.5384,0.4526,-0.0435,0.7094
0.036,-0.024,0.002,-1.1,-2.3,-0.5,0,2018,5,1,22,18,59.237,-0.5384,0.4527,-0.0444,0.7092
0.035,-0.022,0.004,-0.7,-0.3,-0.7,0,2018,5,1,22,18,59.253,-0.5385,0.4527,-0.0449,0.7091
0.036,-0.011,0.009,-0.6,0.3,-0.7,0,2018,5,1,22,18,59.273,-0.5389,0.4525,-0.0453,0.709
0.036,-0.003,0.009,-0.2,-0.9,-0.5,0,2018,5,1,22,18,59.292,-0.5391,0.4523,-0.0455,0.7089
0.029,0.002,0.002,-0.2,-2.1,-0.4,0,2018,5,1,22,18,59.331,-0.539,0.4525,-0.0457,0.7089
0.022,-0.006,0.008,-0.2,-3.1,-0.4,0,2018,5,1,22,18,59.353,-0.539,0.4526,-0.0461,0.7088
0.009,-0.032,0.006,-0.7,-1.5,-1.2,0,2018,5,1,22,18,59.357,-0.5392,0.4527,-0.0468,0.7085
0.01,-0.023,0.005,-0.9,1.2,-2.4,0,2018,5,1,22,18,59.376,-0.5396,0.4526,-0.0472,0.7082
0.012,-0.013,0.007,-1.2,1.5,-3.4,0,2018,5,1,22,18,59.395,-0.5402,0.4523,-0.0475,0.7079
0.011,-0.011,0.025,-2.5,1.1,-4.7,0,2018,5,1,22,18,59.432,-0.5409,0.4519,-0.0478,0.7077
0.003,-0.011,0.034,-5.3,-0.6,-6.8,0,2018,5,1,22,18,59.436,-0.5416,0.4513,-0.0485,0.7074
-0.009,-0.034,0.033,-9.7,-1.2,-9.4,0,2018,5,1,22,18,59.453,-0.5425,0.4503,-0.0499,0.7073
-0.022,-0.071,0.006,-12.7,4,-13.7,0,2018,5,1,22,18,59.49,-0.544,0.4489,-0.052,0.7069
-0.042,-0.037,0.01,-13.9,12.2,-15.9,0,2018,5,1,22,18,59.511,-0.5465,0.4466,-0.0535,0.7063
-0.068,-0.009,0.046,-14.8,7.5,-15.3,0,2018,5,1,22,18,59.515,-0.5493,0.4436,-0.0545,0.7059
-0.059,-0.021,0.083,-17.2,-3.2,-14.2,0,2018,5,1,22,18,59.534,-0.5511,0.4413,-0.0567,0.7058
-0.118,-0.04,0.114,-20.8,-10.4,-17.7,0,2018,5,1,22,18,59.556,-0.5523,0.4393,-0.0601,0.7058
-0.156,-0.063,0.148,-33.2,0.1,-17.7,0,2018,5,1,22,18,59.574,-0.5535,0.4367,-0.0645,0.7061
-0.049,0.145,0.139,-41.6,17.3,-14.1,0,2018,5,1,22,18,59.594,-0.5563,0.4303,-0.0677,0.7076
-0.011,0.261,0.088,-44.6,-5.6,-7.9,0,2018,5,1,22,18,59.615,-0.558,0.4238,-0.0719,0.7097
0,0.234,0.043,-43.4,-40.6,-2.8,0,2018,5,1,22,18,59.635,-0.5566,0.4203,-0.0797,0.712
-0.011,0.112,0,-39.9,-69.1,-1,0,2018,5,1,22,18,59.652,-0.552,0.4205,-0.0905,0.7142
-0.009,-0.027,-0.04,-37.5,-76,-1.4,1023,2018,5,1,22,18,59.672,-0.5458,0.423,-0.1031,0.7158
0.025,-0.175,-0.097,-37.7,-42.2,-5.3,1023,2018,5,1,22,18,59.694,-0.5411,0.424,-0.1148,0.717
0.052,-0.179,-0.122,-37.1,-5.2,-9.9,1023,2018,5,1,22,18,59.732,-0.54,0.4212,-0.1218,0.7183
0.106,-0.139,-0.109,-34.9,26.4,-13.1,1023,2018,5,1,22,18,59.753,-0.5416,0.4151,-0.1245,0.7201
0.145,-0.057,-0.102,-33.1,42.1,-11.6,1023,2018,5,1,22,18,59.757,-0.5451,0.4072,-0.1242,0.7221
0.201,0.042,-0.1,-28.2,43.7,-6.8,1023,2018,5,1,22,18,59.775,-0.5491,0.3987,-0.1224,0.7242
0.222,0.066,-0.107,-22.1,34.1,-0.5,1023,2018,5,1,22,18,59.796,-0.5519,0.3915,-0.1201,0.7263
0.223,0.039,-0.113,-14.8,20.6,3.8,1023,2018,5,1,22,18,59.817,-0.5534,0.3864,-0.1185,0.7281
0.22,0.006,-0.125,-6.2,5.4,6.1,1023,2018,5,1,22,18,59.84,-0.5536,0.3838,-0.1177,0.7295
0.182,-0.069,-0.115,1.3,-9,5.8,1023,2018,5,1,22,18,59.857,-0.5527,0.3839,-0.1179,0.7301
0.163,-0.089,-0.094,7.6,-6.7,3.8,0,2018,5,1,22,18,59.892,-0.5518,0.3853,-0.1183,0.73
0.154,-0.081,-0.081,12.5,-1.3,3.2,0,2018,5,1,22,18,59.913,-0.5515,0.3869,-0.1177,0.7294
0.147,-0.05,-0.077,17.1,2.1,3.1,0,2018,5,1,22,18,59.92,-0.5519,0.3886,-0.1162,0.7285
0.157,0.039,-0.073,23.9,-7.3,4.6,0,2018,5,1,22,18,59.936,-0.5522,0.3911,-0.1144,0.7273
0.163,0.076,-0.078,32.3,-35.2,8.2,0,2018,5,1,22,18,59.956,-0.5512,0.3962,-0.1147,0.7252
0.157,0.077,-0.077,41.3,-66.5,13,0,2018,5,1,22,18,59.994,-0.5476,0.4054,-0.1175,0.7224
0.13,0.054,-0.033,46.7,-85.9,18.9,0,2018,5,1,22,19,0.014,-0.5414,0.4182,-0.1224,0.719
0.053,-0.028,0.006,46.9,-96,21.1,0,2018,5,1,22,19,0.018,-0.5333,0.4328,-0.1284,0.7152
0.012,-0.021,0.008,45.9,-104,23.2,0,2018,5,1,22,19,0.038,-0.5241,0.4484,-0.135,0.7113
0.04,0.018,0.004,45.5,-112,26.3,0,2018,5,1,22,19,0.059,-0.5137,0.4643,-0.1422,0.7072
0.009,0.038,-0.005,45,-122.9,31.1,0,2018,5,1,22,19,0.078,-0.5017,0.4809,-0.1501,0.703
0.015,0.057,0.007,43.2,-133.8,34.7,0,2018,5,1,22,19,0.1,-0.4879,0.4983,-0.1589,0.6987
-0.036,0.036,0.001,39.5,-142,38.2,0,2018,5,1,22,19,0.139,-0.4723,0.516,-0.1685,0.6943
-0.055,-0.011,-0.017,34.5,-136.5,41.6,0,2018,5,1,22,19,0.159,-0.4556,0.5333,-0.1783,0.6899
-0.133,-0.23,-0.069,26.8,-101.6,37,0,2018,5,1,22,19,0.163,-0.4403,0.5484,-0.1869,0.6858
-0.164,-0.298,-0.109,24.4,-38.4,22.9,0,2018,5,1,22,19,0.179,-0.4313,0.5575,-0.1905,0.6832
-0.184,-0.293,-0.058,22.3,18.6,7.2,0,2018,5,1,22,19,0.198,-0.4299,0.5612,-0.1882,0.6817
-0.191,-0.201,0.005,17.3,55.1,-9.2,0,2018,5,1,22,19,0.22,-0.4346,0.5613,-0.1824,0.6802
-0.166,-0.058,0.042,10,84.7,-20.6,0,2018,5,1,22,19,0.257,-0.4441,0.5571,-0.174,0.6797
-0.178,-0.012,0.048,3.9,75.9,-31.3,0,2018,5,1,22,19,0.278,-0.4551,0.5509,-0.1653,0.6797
-0.16,-0.052,0.045,1.1,55.1,-41.3,0,2018,5,1,22,19,0.282,-0.4656,0.545,-0.1602,0.6784
-0.126,0.045,0.098,0,17.9,-47.4,0,2018,5,1,22,19,0.302,-0.4743,0.5408,-0.1591,0.6761
-0.076,0.085,0.117,-0.2,-19.3,-51.6,1023,2018,5,1,22,19,0.319,-0.4803,0.5394,-0.1641,0.6717
-0.007,0.117,0.087,1,-57,-50.8,1023,2018,5,1,22,19,0.34,-0.4827,0.5412,-0.1736,0.6662
0.044,0.178,0.055,5.4,-90.8,-45.3,1023,2018,5,1,22,19,0.381,-0.4815,0.5462,-0.1866,0.6594
0.082,0.221,0.051,10,-124.9,-37,1023,2018,5,1,22,19,0.401,-0.4763,0.5547,-0.2025,0.6513
0.111,0.161,0.007,13.4,-141.8,-29.2,1023,2018,5,1,22,19,0.405,-0.4677,0.5656,-0.2198,0.6425
0.122,0.124,-0.017,13.6,-139.3,-19.2,1023,2018,5,1,22,19,0.419,-0.4573,0.5772,-0.2367,0.6337
0.118,-0.002,-0.031,9.2,-121.9,-7.3,1023,2018,5,1,22,19,0.438,-0.446,0.5884,-0.2521,0.6254
0.142,-0.114,-0.035,2.1,-52.8,2.2,1023,2018,5,1,22,19,0.459,-0.4377,0.5957,-0.2619,0.6203
0.106,-0.084,-0.003,-6.8,18.1,7.6,1023,2018,5,1,22,19,0.495,-0.4357,0.5966,-0.2634,0.6202
0.085,-0.043,-0.004,-10.9,57.1,10,0,2018,5,1,22,19,0.517,-0.4393,0.5926,-0.2593,0.6233
0.033,-0.013,-0.005,-9.1,61.1,10.3,0,2018,5,1,22,19,0.521,-0.4444,0.5871,-0.2525,0.6277
-0.021,-0.019,0.007,-2.6,31.5,6.6,0,2018,5,1,22,19,0.542,-0.4482,0.5832,-0.2467,0.6309
-0.074,-0.111,0.019,3.7,-4.6,-4.9,0,2018,5,1,22,19,0.564,-0.4495,0.5824,-0.2451,0.6313
-0.103,-0.23,0.005,9.3,-41.3,-21,0,2018,5,1,22,19,0.582,-0.4489,0.5847,-0.2485,0.6283
-0.12,-0.323,-0.002,14,-61.6,-40.7,0,2018,5,1,22,19,0.602,-0.4474,0.5891,-0.2569,0.6218
-0.066,-0.358,-0.004,17.3,-64.1,-57.7,0,2018,5,1,22,19,0.642,-0.4473,0.5936,-0.2684,0.6127
-0.01,-0.275,0.005,20,-54.1,-68.4,0,2018,5,1,22,19,0.646,-0.4494,0.597,-0.2805,0.6022
-0.013,-0.341,-0.017,23.7,-48.7,-78.8,0,2018,5,1,22,19,0.662,-0.4535,0.5994,-0.2924,0.591
-0.08,-0.442,-0.002,29.4,-36.9,-94.1,0,2018,5,1,22,19,0.682,-0.4597,0.6011,-0.3044,0.5783
-0.093,-0.471,0.019,32.8,-10.2,-110,0,2018,5,1,22,19,0.701,-0.4693,0.6006,-0.3154,0.5651
-0.171,-0.48,-0.019,40,-7.7,-129.6,0,2018,5,1,22,19,0.722,-0.4826,0.598,-0.3256,0.5507
-0.201,-0.44,-0.037,53,-46.3,-150.5,0,2018,5,1,22,19,0.743,-0.496,0.5966,-0.3385,0.5323
-0.188,-0.415,0.038,71.8,-110.2,-178.7,0,2018,5,1,22,19,0.78,-0.5061,0.5995,-0.3568,0.5069
-0.172,-0.504,-0.042,95.6,-204.8,-207.1,0,2018,5,1,22,19,0.802,-0.5115,0.6081,-0.3828,0.471
-0.155,-0.462,-0.301,134.7,-290.5,-236.6,0,2018,5,1,22,19,0.806,-0.5092,0.6247,-0.4162,0.4208
-0.13,-0.744,-0.481,170.9,-250.9,-257.2,0,2018,5,1,22,19,0.824,-0.5059,0.6421,-0.4493,0.3601
-0.216,-0.624,-0.25,182.1,-84.5,-269.8,0,2018,5,1,22,19,0.841,-0.5166,0.6461,-0.4731,0.3027
-0.437,-0.07,0,167.8,87.5,-269.9,0,2018,5,1,22,19,0.862,-0.5454,0.6311,-0.4869,0.2587
-0.477,0.573,0.1,141.7,180.2,-258.8,0,2018,5,1,22,19,0.881,-0.5856,0.6004,-0.4941,0.2285
-0.417,0.958,0.188,121.7,171.7,-232.5,0,2018,5,1,22,19,0.918,-0.6246,0.5649,-0.4986,0.205
-0.281,1.091,0.337,103.6,117.2,-194.4,0,2018,5,1,22,19,0.94,-0.6555,0.5338,-0.5016,0.1833
-0.185,1.016,0.384,86.8,42.8,-151.8,1023,2018,5,1,22,19,0.945,-0.6761,0.5125,-0.504,0.1616
-0.169,0.795,0.202,73.6,-2.2,-111.3,1023,2018,5,1,22,19,0.982,-0.6878,0.5013,-0.5056,0.1405
-0.134,0.633,0.068,63.4,-11.8,-78.2,1023,2018,5,1,22,19,1.002,-0.6952,0.4958,-0.5057,0.1222
-0.12,0.504,0.074,53,-5.3,-50.8,1023,2018,5,1,22,19,1.006,-0.701,0.4924,-0.5042,0.1084
-0.103,0.477,0.144,40.3,-2.4,-27.9,1023,2018,5,1,22,19,1.024,-0.7057,0.49,-0.5018,0.0993
-0.072,0.378,0.111,28.9,-11.5,-9.2,1023,2018,5,1,22,19,1.047,-0.7086,0.4898,-0.4991,0.0932
-0.066,0.231,0.025,19.3,-9.8,3.4,1023,2018,5,1,22,19,1.067,-0.7099,0.4913,-0.4965,0.0896
-0.067,0.113,-0.035,11.4,3.7,8.9,1023,2018,5,1,22,19,1.086,-0.7107,0.4925,-0.4944,0.0883
-0.057,0.103,0.002,4.8,12.6,9.9,1023,2018,5,1,22,19,1.107,-0.7118,0.4925,-0.4925,0.0896
-0.053,0.103,0.028,-0.4,8.3,8.6,1023,2018,5,1,22,19,1.125,-0.7129,0.4919,-0.4911,0.0914
-0.026,0.064,-0.002,-2.6,-9.5,7.3,0,2018,5,1,22,19,1.142,-0.7126,0.4926,-0.4907,0.0924
-0.008,0.001,-0.028,-2.4,-14.9,6.1,0,2018,5,1,22,19,1.162,-0.7109,0.4951,-0.4907,0.0922
0.013,0.012,-0.012,-2,-12.4,4.7,0,2018,5,1,22,19,1.183,-0.7092,0.4976,-0.4908,0.0916
0.038,0.051,0.024,-2.1,-14.6,4.9,0,2018,5,1,22,19,1.22,-0.7078,0.4995,-0.491,0.0911
0.054,0.058,0.02,-2,-23.6,5.8,0,2018,5,1,22,19,1.242,-0.7061,0.5019,-0.4912,0.0896
0.032,-0.018,0.001,-1.4,-25.3,6.1,0,2018,5,1,22,19,1.246,-0.7037,0.5055,-0.4913,0.088
0.035,-0.047,0.017,-1,-14.4,4.2,0,2018,5,1,22,19,1.283,-0.7018,0.5084,-0.4912,0.0869
0.033,-0.025,0.023,0,-7.2,3.1,0,2018,5,1,22,19,1.302,-0.701,0.51,-0.4909,0.0864
0.039,-0.017,0.023,2.2,-8.5,2.4,0,2018,5,1,22,19,1.317,-0.7005,0.511,-0.4905,0.0858
0.045,-0.027,0.03,3.9,-7.2,1.3,0,2018,5,1,22,19,1.331,-0.7002,0.5122,-0.4899,0.0848
0.036,-0.011,0.049,3.6,-1.5,0.7,0,2018,5,1,22,19,1.343,-0.7004,0.5127,-0.4892,0.0841
0.029,0.017,0.07,2.6,1.7,0.3,0,2018,5,1,22,19,1.38,-0.7011,0.5124,-0.4885,0.0839
0.022,0.004,0.04,1.4,2.3,-0.5,0,2018,5,1,22,19,1.398,-0.7018,0.5119,-0.4881,0.0838
0.015,0.006,0.011,1.4,5.1,-1.7,0,2018,5,1,22,19,1.403,-0.7023,0.5114,-0.4878,0.0839
0.03,0.03,0.018,2.5,2.3,-3,0,2018,5,1,22,19,1.426,-0.7028,0.5107,-0.4878,0.0837
0.033,0.043,0.012,3.1,0.4,-3,0,2018,5,1,22,19,1.447,-0.7032,0.5103,-0.4879,0.0829
0.019,0.064,0.035,2.9,1.9,-2.3,0,2018,5,1,22,19,1.487,-0.7036,0.5098,-0.4879,0.0822
0.002,0.052,0.026,1.3,1.9,-1.7,0,2018,5,1,22,19,1.506,-0.7042,0.5092,-0.4878,0.0816
0.001,0.009,0.001,0.4,3.3,-2.8,0,2018,5,1,22,19,1.51,-0.7045,0.5088,-0.4879,0.0813
0.017,0.031,0.007,0.1,3.8,-4.4,0,2018,5,1,22,19,1.528,-0.705,0.508,-0.4881,0.081
0.02,0.055,0.021,-0.1,0.1,-5.1,0,2018,5,1,22,19,1.548,-0.7053,0.5072,-0.4886,0.0803
0.02,0.047,0.017,0.1,-4.6,-4.8,0,2018,5,1,22,19,1.566,-0.7052,0.5069,-0.4892,0.0791
0.012,0.05,0.014,0.1,-3.2,-3.4,0,2018,5,1,22,19,1.587,-0.7049,0.5069,-0.4897,0.0781
0.013,0.059,0.026,-0.2,-2.3,-1.9,1023,2018,5,1,22,19,1.606,-0.7048,0.5069,-0.4901,0.0772
0.011,0.055,0.031,-1,-3.5,-0.2,1023,2018,5,1,22,19,1.645,-0.7047,0.5069,-0.4903,0.0764
0.011,0.046,0.005,-2,-3.7,1.1,1023,2018,5,1,22,19,1.665,-0.7043,0.5072,-0.4906,0.0761
0.011,0.068,0.005,-2.1,-3.7,2.7,1023,2018,5,1,22,19,1.669,-0.7038,0.5077,-0.4909,0.0761
0.005,0.068,-0.013,-0.9,-6.6,4.8,1023,2018,5,1,22,19,1.688,-0.7028,0.5088,-0.4911,0.076
0.003,0.11,0.018,0,-7.9,8,1023,2018,5,1,22,19,1.708,-0.7021,0.51,-0.491,0.0759
-0.008,0.154,0.027,-0.7,-13.2,14.1,1023,2018,5,1,22,19,1.747,-0.7011,0.5119,-0.4904,0.0757
-0.029,0.197,0.023,-2.6,-12.8,23.6,1023,2018,5,1,22,19,1.767,-0.6996,0.5147,-0.4896,0.0764
-0.057,0.276,0.047,-6,-7,36.4,1023,2018,5,1,22,19,1.771,-0.6981,0.5179,-0.4879,0.0789
-0.094,0.311,0.025,-11.6,0.8,53.3,1023,2018,5,1,22,19,1.809,-0.6965,0.5219,-0.485,0.0848
-0.12,0.328,0.015,-17.7,12.2,71.6,0,2018,5,1,22,19,1.829,-0.6949,0.5256,-0.4816,0.0935
-0.106,0.351,0.013,-24.3,25,89.4,0,2018,5,1,22,19,1.833,-0.6935,0.5293,-0.477,0.1059
-0.099,0.39,0.04,-31.4,39.3,108.4,0,2018,5,1,22,19,1.85,-0.6923,0.5326,-0.4711,0.1225
-0.101,0.457,0.056,-37.7,45.6,128.4,0,2018,5,1,22,19,1.869,-0.6908,0.5361,-0.4631,0.1437
-0.125,0.47,0.044,-41.8,45,148.9,0,2018,5,1,22,19,1.889,-0.6883,0.5406,-0.4536,0.1676
-0.169,0.45,0.051,-44.6,50.6,169.9,0,2018,5,1,22,19,1.909,-0.6847,0.5458,-0.442,0.1945
-0.196,0.401,0.039,-45.6,55.4,188.6,0,2018,5,1,22,19,1.929,-0.6803,0.5509,-0.4279,0.2245
-0.214,0.348,0.034,-44,38.2,200.1,0,2018,5,1,22,19,1.969,-0.6733,0.5581,-0.4119,0.2556
-0.214,0.219,0.134,-44,35,210.3,0,2018,5,1,22,19,1.989,-0.664,0.5664,-0.3952,0.2862
-0.176,0.164,0.179,-47.9,60.4,220.9,0,2018,5,1,22,19,1.994,-0.6542,0.5731,-0.3765,0.3187
-0.14,0.149,0.191,-53.1,97.7,230.2,0,2018,5,1,22,19,2.013,-0.6458,0.5755,-0.355,0.3543
-0.16,0.014,0.1,-52.2,122.6,233.3,0,2018,5,1,22,19,2.034,-0.6388,0.5733,-0.3302,0.3924
-0.187,-0.167,0.14,-52,160.6,232.2,0,2018,5,1,22,19,2.05,-0.6336,0.5666,-0.3025,0.431
-0.16,-0.254,0.129,-48.8,195.4,223.6,0,2018,5,1,22,19,2.088,-0.6307,0.5541,-0.2708,0.4709
-0.209,-0.319,0.145,-39,199.8,213.5,0,2018,5,1,22,19,2.108,-0.6291,0.5378,-0.2367,0.5087
-0.234,-0.386,0.165,-28.8,149.9,192.8,0,2018,5,1,22,19,2.112,-0.6252,0.5237,-0.2048,0.5411
-0.196,-0.417,0.211,-20.5,108.7,170.5,0,2018,5,1,22,19,2.131,-0.6184,0.5136,-0.1784,0.5672
-0.176,-0.484,0.169,-18.8,92.6,142.4,0,2018,5,1,22,19,2.17,-0.6109,0.5058,-0.1569,0.5883
-0.143,-0.418,0.097,-12.4,74.2,117.5,0,2018,5,1,22,19,2.189,-0.6047,0.4988,-0.1389,0.6051
-0.132,-0.311,0.068,-5.6,33.5,96.2,0,2018,5,1,22,19,2.192,-0.5979,0.4951,-0.1254,0.6177
-0.095,-0.301,0.083,-1.5,-1.8,79.8,0,2018,5,1,22,19,2.229,-0.5893,0.4959,-0.1174,0.6268
-0.075,-0.362,0.062,-1.6,13.6,63,0,2018,5,1,22,19,2.251,-0.582,0.4971,-0.1119,0.6336
-0.085,-0.296,0.04,-1.8,35.6,45.7,1023,2018,5,1,22,19,2.255,-0.5783,0.496,-0.1054,0.639
-0.065,-0.178,0.035,-0.5,40.7,32.5,1023,2018,5,1,22,19,2.269,-0.5775,0.4929,-0.0982,0.6432
-0.053,-0.099,0.051,0.6,26.7,21.6,1023,2018,5,1,22,19,2.309,-0.5775,0.4901,-0.0923,0.6462
-0.031,-0.069,0.084,0.6,6.8,12,1023,2018,5,1,22,19,2.328,-0.5772,0.4887,-0.089,0.648
-0.029,-0.059,0.096,-0.4,-7.4,4.6,1023,2018,5,1,22,19,2.333,-0.5763,0.4887,-0.0884,0.6489
-0.013,-0.041,0.052,-1.2,-14.3,-0.4,1023,2018,5,1,22,19,2.351,-0.5752,0.4896,-0.0896,0.649
0.013,0.002,0.026,-1.2,-15.2,-2,1023,2018,5,1,22,19,2.372,-0.574,0.4909,-0.0914,0.6488
0.026,0.02,0.024,-0.9,-13.2,-1.4,1023,2018,5,1,22,19,2.392,-0.5729,0.4921,-0.0932,0.6486
0.02,0.022,0.03,-1.8,-8.7,0,1023,2018,5,1,22,19,2.412,-0.5722,0.4928,-0.0946,0.6486
0.011,0.026,0.018,-2.9,-3.1,1,1023,2018,5,1,22,19,2.452,-0.5717,0.4929,-0.0952,0.6489
0.017,0.041,-0.004,-3.5,1.4,2.2,0,2018,5,1,22,19,2.472,-0.5714,0.4925,-0.0953,0.6494
0.025,0.06,-0.013,-3,2.4,4.2,0,2018,5,1,22,19,2.476,-0.5712,0.4918,-0.0949,0.6501
0.028,0.063,-0.02,-1.5,-1,6.3,0,2018,5,1,22,19,2.495,-0.5707,0.4915,-0.0942,0.651
0.027,0.052,-0.011,-0.1,-3,8.4,0,2018,5,1,22,19,2.515,-0.5694,0.4918,-0.0937,0.6518
0.023,0.041,-0.005,0.3,-1.6,10.1,0,2018,5,1,22,19,2.535,-0.5681,0.4922,-0.0929,0.6529
0.02,0.023,-0.008,0,1.7,11.5,0,2018,5,1,22,19,2.556,-0.5668,0.4924,-0.0918,0.654
0.009,0.023,-0.012,0.5,2.5,12.1,0,2018,5,1,22,19,2.573,-0.5657,0.4924,-0.0903,0.6551
0.016,0.021,-0.006,1.3,1.1,12.5,0,2018,5,1,22,19,2.608,-0.5645,0.4925,-0.0889,0.6563
0.013,0.012,-0.009,1.4,-0.7,12.4,0,2018,5,1,22,19,2.628,-0.5631,0.4929,-0.0875,0.6574
0.008,-0.009,-0.001,1.2,0.9,12.3,0,2018,5,1,22,19,2.632,-0.5618,0.4932,-0.0864,0.6584
0,-0.026,0.003,0.1,7,11,0,2018,5,1,22,19,2.672,-0.5609,0.4931,-0.0849,0.6595
0.006,-0.021,0.003,-0.1,11,9.4,0,2018,5,1,22,19,2.692,-0.5605,0.4924,-0.083,0.6605
0.011,0.005,0.019,0.4,8.9,8.6,0,2018,5,1,22,19,2.697,-0.5605,0.4915,-0.081,0.6615
0,0,0.043,-0.2,2.7,7.6,0,2018,5,1,22,19,2.717,-0.5601,0.4908,-0.0795,0.6625
0.004,-0.001,0.042,-0.9,-3.7,5.7,0,2018,5,1,22,19,2.738,-0.5594,0.4906,-0.079,0.6633
0.004,-0.023,0.03,-3.8,-1.8,4.2,0,2018,5,1,22,19,2.753,-0.5587,0.4905,-0.0792,0.6639
0.014,-0.043,0.011,-6,14,2.6,0,2018,5,1,22,19,2.795,-0.559,0.4893,-0.079,0.6646
0.01,-0.004,0.019,-6.5,25.3,2.2,0,2018,5,1,22,19,2.8,-0.5606,0.4864,-0.0771,0.6656
0.007,0.026,0.049,-7,26.4,1.9,0,2018,5,1,22,19,2.814,-0.5627,0.4828,-0.0744,0.6668
0.015,-0.016,0.065,-10.8,33.3,1.9,0,2018,5,1,22,19,2.848,-0.565,0.4785,-0.0717,0.6682
0.038,0.014,0.055,-12.2,45,2.2,0,2018,5,1,22,19,2.869,-0.5681,0.4727,-0.068,0.67
0.032,0.026,0.052,-12.4,48.3,4.1,0,2018,5,1,22,19,2.876,-0.5717,0.466,-0.0634,0.6721
0.027,0.012,0.037,-13.5,44.3,4.9,1023,2018,5,1,22,19,2.897,-0.5751,0.4594,-0.0588,0.6742
0.016,-0.066,0.018,-15.2,50.8,5.8,1023,2018,5,1,22,19,2.919,-0.5783,0.4527,-0.0544,0.6764
-0.008,-0.142,0.032,-20,72.6,5.5,1023,2018,5,1,22,19,2.956,-0.5822,0.445,-0.0494,0.6785
0.019,0.024,0.034,-22.8,98.4,7.8,1023,2018,5,1,22,19,2.976,-0.5883,0.4333,-0.0409,0.6814
0.001,0.098,0.041,-24.4,87.4,9.1,1023,2018,5,1,22,19,2.981,-0.5942,0.42,-0.0307,0.6851
-0.076,-0.06,0.07,-32.6,82.8,9.6,1023,2018,5,1,22,19,3.001,-0.5989,0.4079,-0.0228,0.6886
-0.255,-0.24,0.161,-45.2,87.8,0.9,1023,2018,5,1,22,19,3.02,-0.6037,0.3952,-0.0162,0.692
-0.198,-0.032,0.184,-54.5,95.6,-6.3,1023,2018,5,1,22,19,3.036,-0.6101,0.3795,-0.0098,0.6953
-0.112,0.208,0.096,-58.4,62.6,-6.2,1023,2018,5,1,22,19,3.073,-0.6163,0.3636,-0.0063,0.6984
-0.131,0.266,0.023,-57.4,2.5,-1.8,1023,2018,5,1,22,19,3.093,-0.6188,0.353,-0.0089,0.7016
-0.111,0,0.005,-64.5,-15.8,-1.1,0,2018,5,1,22,19,3.097,-0.6181,0.347,-0.0169,0.7051
-0.025,0.042,0.013,-66.3,-2.5,-1.2,0,2018,5,1,22,19,3.136,-0.6173,0.3401,-0.0248,0.7089
0.012,0.175,-0.026,-65.4,-2.7,3,0,2018,5,1,22,19,3.158,-0.617,0.3316,-0.0315,0.7129
0.077,0.239,-0.076,-60.4,-27.9,11.4,0,2018,5,1,22,19,3.162,-0.6152,0.3251,-0.0399,0.717
0.159,0.202,-0.111,-51.6,-51.6,21.1,0,2018,5,1,22,19,3.179,-0.6106,0.3224,-0.0504,0.7215
0.209,0.126,-0.155,-44,-53.5,27.9,0,2018,5,1,22,19,3.2,-0.6041,0.3222,-0.0611,0.7262
0.216,0.044,-0.194,-35.2,-46.2,31.6,0,2018,5,1,22,19,3.24,-0.5972,0.3226,-0.0701,0.7309
0.26,0.006,-0.232,-22.1,-43.6,31.7,0,2018,5,1,22,19,3.26,-0.5904,0.3237,-0.0771,0.7352
0.28,-0.077,-0.224,-6.4,-49.8,29.8,0,2018,5,1,22,19,3.264,-0.5839,0.3269,-0.0829,0.7383
0.242,-0.18,-0.158,7.2,-53.8,25.2,0,2018,5,1,22,19,3.277,-0.5776,0.3326,-0.0882,0.7401
0.186,-0.252,-0.077,15.1,-44.2,17.6,0,2018,5,1,22,19,3.314,-0.5724,0.3393,-0.0924,0.7407
0.181,-0.21,-0.045,19.2,-29.1,11.3,0,2018,5,1,22,19,3.333,-0.5689,0.3453,-0.0946,0.7403
0.178,-0.079,-0.034,24.5,-30.6,7.7,0,2018,5,1,22,19,3.342,-0.5666,0.3508,-0.0956,0.7393
0.189,0.06,-0.055,31.7,-55.3,8.5,0,2018,5,1,22,19,3.36,-0.5637,0.3585,-0.0979,0.7375
0.198,0.185,-0.094,44,-104.6,14.2,0,2018,5,1,22,19,3.379,-0.5582,0.3712,-0.1039,0.7346
0.115,0.132,-0.099,53.4,-158.8,21.4,0,2018,5,1,22,19,3.419,-0.5482,0.3903,-0.115,0.7305
0.069,0.084,-0.106,60.8,-197.4,26.3,0,2018,5,1,22,19,3.438,-0.5341,0.4149,-0.1308,0.7248
0.048,0.107,-0.113,68.4,-231.5,33.1,0,2018,5,1,22,19,3.442,-0.5157,0.4439,-0.1497,0.7173
-0.001,0.082,-0.122,72.3,-257.3,41.4,0,2018,5,1,22,19,3.457,-0.4931,0.476,-0.1707,0.7078
-0.036,0.029,-0.115,71.3,-270.6,48.3,0,2018,5,1,22,19,3.496,-0.4667,0.5094,-0.1932,0.6965
-0.046,-0.038,-0.071,67.4,-265.9,53.2,0,2018,5,1,22,19,3.517,-0.4381,0.5416,-0.2155,0.6842
-0.084,-0.053,-0.039,61.8,-246.4,56.3,1023,2018,5,1,22,19,3.521,-0.4092,0.5711,-0.2358,0.6713
-0.188,-0.252,-0.022,51.8,-195.7,57.9,1023,2018,5,1,22,19,3.558,-0.382,0.596,-0.2518,0.6597
-0.156,-0.293,-0.005,37.9,-101.6,47.2,1023,2018,5,1,22,19,3.578,-0.3629,0.6131,-0.2603,0.6515
-0.141,-0.288,0.001,28.7,-28.8,35.2,1023,2018,5,1,22,19,3.582,-0.3534,0.6226,-0.2613,0.6473
-0.091,-0.163,-0.003,24,25.3,23.3,1023,2018,5,1,22,19,3.603,-0.3518,0.6268,-0.2566,0.646
-0.073,-0.022,0.047,22.2,51,15.4,1023,2018,5,1,22,19,3.622,-0.3553,0.6277,-0.2484,0.6465
-0.09,-0.001,0.113,18.6,57.5,11.4,1023,2018,5,1,22,19,3.642,-0.3608,0.6268,-0.2388,0.6478
-0.078,0.062,0.13,12.8,60.4,8.3,1023,2018,5,1,22,19,3.661,-0.367,0.6251,-0.2299,0.6492
-0.064,0.109,0.109,7.8,50.9,6.1,1023,2018,5,1,22,19,3.7,-0.3729,0.6229,-0.2221,0.6507
-0.072,0.071,0.07,3.7,37.5,3.4,1023,2018,5,1,22,19,3.722,-0.3772,0.6209,-0.2162,0.6521
-0.067,0.079,0.048,0.9,27.2,-2.2,0,2018,5,1,22,19,3.725,-0.3806,0.6189,-0.2114,0.6536
-0.053,0.072,0.01,0.8,13.9,-5.6,0,2018,5,1,22,19,3.738,-0.3831,0.6175,-0.2087,0.6544
-0.095,-0.099,-0.021,-2.5,14.9,-10.7,0,2018,5,1,22,19,3.777,-0.3852,0.6165,-0.2077,0.6543
-0.122,-0.082,-0.024,-6.9,34,-19.3,0,2018,5,1,22,19,3.797,-0.3893,0.614,-0.2068,0.6546
-0.067,0.02,-0.08,-3.7,41.9,-27.4,0,2018,5,1,22,19,3.8,-0.3958,0.6104,-0.2049,0.6547
-0.079,0.018,-0.043,0,9.3,-33.2,0,2018,5,1,22,19,3.839,-0.4016,0.6079,-0.2046,0.6535
-0.053,-0.211,-0.089,-1.2,-7.5,-36.3,0,2018,5,1,22,19,3.861,-0.4048,0.6075,-0.2088,0.6506
-0.071,0.062,0.138,-0.9,-19,-38.2,0,2018,5,1,22,19,3.865,-0.4084,0.6065,-0.2136,0.6477
-0.032,-0.177,0.074,-5.5,-19,-45.1,0,2018,5,1,22,19,3.884,-0.4108,0.6059,-0.2212,0.6442
0.024,0.038,0.088,-6.1,-22.9,-44.6,0,2018,5,1,22,19,3.904,-0.4143,0.6042,-0.2284,0.6411
0.113,0.077,0.024,-3.5,-26.8,-40.1,0,2018,5,1,22,19,3.945,-0.4165,0.6033,-0.2359,0.6378
0.219,0.103,-0.038,0.6,-32.3,-28.1,0,2018,5,1,22,19,3.963,-0.4176,0.6036,-0.2435,0.6339
0.25,0.089,0.005,3.1,-21.6,-13.6,0,2018,5,1,22,19,3.967,-0.4175,0.6049,-0.2489,0.6306
0.243,0.1,0.107,-2.1,14.2,0,0,2018,5,1,22,19,3.982,-0.4181,0.6048,-0.2501,0.6298
0.222,0.096,0.082,-5.2,40.3,8,0,2018,5,1,22,19,4.002,-0.4206,0.6024,-0.2465,0.6319
0.16,0.259,0.115,-4.5,18.9,16.8,0,2018,5,1,22,19,4.02,-0.4229,0.5996,-0.2417,0.6348
0.128,0.12,0.201,-8.8,-49,29.6,0,2018,5,1,22,19,4.061,-0.4181,0.6012,-0.2418,0.6364
0.033,-0.231,0.092,-14.2,-55.9,26.7,0,2018,5,1,22,19,4.082,-0.4085,0.6052,-0.246,0.6373
-0.075,-0.502,-0.024,-15.6,-24.4,13.1,0,2018,5,1,22,19,4.086,-0.4013,0.6073,-0.2499,0.6384
-0.064,-0.385,0,-10.9,15.9,-12.3,0,2018,5,1,22,19,4.106,-0.4009,0.6058,-0.2511,0.6396
-0.079,-0.16,-0.025,0.8,-11.2,-29.7,0,2018,5,1,22,19,4.125,-0.4043,0.6038,-0.2535,0.6384
-0.017,-0.176,-0.001,12.9,-48.7,-37.7,0,2018,5,1,22,19,4.164,-0.4051,0.6056,-0.2607,0.6333
-0.071,-0.349,0.013,20.2,-65.6,-48.8,0,2018,5,1,22,19,4.168,-0.4045,0.6097,-0.2712,0.6252
-0.1,-0.424,0.012,22.4,-33.8,-64.9,1023,2018,5,1,22,19,4.185,-0.4066,0.6129,-0.282,0.6159
-0.039,-0.317,-0.057,25.3,12.6,-76.7,1023,2018,5,1,22,19,4.202,-0.4149,0.6124,-0.2897,0.6072
-0.039,-0.201,-0.047,32.3,30.6,-88.7,1023,2018,5,1,22,19,4.222,-0.428,0.6096,-0.2941,0.5987
-0.04,-0.168,0.02,36,32,-96.4,1023,2018,5,1,22,19,4.258,-0.4429,0.6061,-0.2985,0.5892
-0.113,-0.516,-0.007,28.5,74,-106.9,1023,2018,5,1,22,19,4.278,-0.46,0.6004,-0.3021,0.5801
-0.178,-0.626,-0.089,13.6,183.4,-125.1,1023,2018,5,1,22,19,4.283,-0.4863,0.586,-0.2998,0.5745
-0.226,-0.341,-0.096,2.5,262.3,-148,1023,2018,5,1,22,19,4.318,-0.5238,0.5592,-0.2899,0.5734
-0.134,0.204,0.112,4.8,150.3,-154.4,1023,2018,5,1,22,19,4.341,-0.5599,0.5315,-0.2821,0.5693
-0.269,0.029,0.191,14.3,-34.6,-169.2,1023,2018,5,1,22,19,4.346,-0.5813,0.5191,-0.2907,0.5549
-0.297,-0.5,0.129,27.9,-181.5,-201,0,2018,5,1,22,19,4.385,-0.5892,0.5233,-0.316,0.5281
-0.3,-0.56,-0.007,49.5,-252.4,-236,0,2018,5,1,22,19,4.404,-0.5894,0.5377,-0.3519,0.4893
-0.147,-0.189,-0.133,82.4,-287.7,-264.4,0,2018,5,1,22,19,4.408,-0.5885,0.5544,-0.391,0.4397
-0.047,0.096,-0.182,125.5,-336.3,-272.1,0,2018,5,1,22,19,4.428,-0.5845,0.5746,-0.429,0.3795
-0.052,-0.086,-0.076,156.6,-328.9,-262.7,0,2018,5,1,22,19,4.448,-0.5762,0.5976,-0.4626,0.3109
-0.264,-0.232,0.062,161.4,-191.2,-249.7,0,2018,5,1,22,19,4.467,-0.5737,0.611,-0.4863,0.2468
-0.397,0.093,0.145,145.1,-21.5,-232.4,0,2018,5,1,22,19,4.485,-0.5855,0.6063,-0.5005,0.1975
-0.313,0.833,0.375,124.4,44.9,-204.2,0,2018,5,1,22,19,4.507,-0.6069,0.5883,-0.5086,0.1634
-0.231,0.98,0.462,107.6,-9.1,-163.8,0,2018,5,1,22,19,4.526,-0.6239,0.5728,-0.5143,0.134
-0.209,0.694,0.356,90.7,-39.6,-124.4,0,2018,5,1,22,19,4.549,-0.6326,0.5656,-0.5183,0.1055
-0.177,0.518,0.264,68.2,2.8,-91.5,0,2018,5,1,22,19,4.586,-0.6394,0.5596,-0.5204,0.084
-0.157,0.457,0.127,44.9,70.1,-61.1,0,2018,5,1,22,19,4.605,-0.6493,0.5491,-0.5209,0.0736
-0.114,0.617,0.191,29,92.6,-34.7,0,2018,5,1,22,19,4.61,-0.6617,0.5351,-0.52,0.0727
-0.077,0.541,0.229,17,53.6,-13.3,0,2018,5,1,22,19,4.648,-0.671,0.5246,-0.5185,0.0745
-0.076,0.261,0.089,6.8,28.1,0.3,0,2018,5,1,22,19,4.668,-0.6757,0.5197,-0.5171,0.0759
-0.072,0.106,0.016,1.1,34,7.2,0,2018,5,1,22,19,4.672,-0.6789,0.5164,-0.5159,0.0784
-0.053,0.089,0.009,-1.8,35.3,9.4,0,2018,5,1,22,19,4.689,-0.6819,0.513,-0.5146,0.0827
-0.023,0.049,0.001,-2.6,20.7,9.3,0,2018,5,1,22,19,4.709,-0.6841,0.5104,-0.5136,0.0865
0.023,0.001,0.016,-1.5,1,7.4,0,2018,5,1,22,19,4.729,-0.6849,0.5098,-0.5129,0.0882
0.031,-0.037,0.033,-0.1,-6.4,3.3,0,2018,5,1,22,19,4.767,-0.6844,0.5109,-0.5124,0.0884
0.033,-0.02,0.059,0,-6.5,1.1,0,2018,5,1,22,19,4.786,-0.6841,0.5117,-0.5121,0.088
0.023,0.009,0.078,-1.5,-3.6,0.2,0,2018,5,1,22,19,4.791,-0.6841,0.512,-0.5119,0.0875
0.022,0.008,0.059,-3.5,-5.2,0,0,2018,5,1,22,19,4.809,-0.6838,0.5123,-0.512,0.0874
0.023,-0.008,0.056,-4.6,-4.3,-0.4,0,2018,5,1,22,19,4.846,-0.6836,0.5124,-0.5123,0.087
0.012,-0.032,0.046,-4.3,0.8,-0.9,1023,2018,5,1,22,19,4.867,-0.6834,0.5123,-0.5126,0.0871
0.025,-0.006,0.034,-2.9,0.9,-1.9,1023,2018,5,1,22,19,4.871,-0.6835,0.5118,-0.5129,0.0873
0.021,-0.013,-0.005,-0.8,-2.1,-2.2,1023,2018,5,1,22,19,4.887,-0.6834,0.5116,-0.5133,0.0871
0.025,0.003,0.01,1.9,0.4,-2.6,1023,2018,5,1,22,19,4.924,-0.6834,0.5115,-0.5134,0.0864
0.026,0.053,0.035,3.2,-2.1,-2.2,1023,2018,5,1,22,19,4.945,-0.6839,0.5112,-0.5133,0.0855
0.014,0.037,0.042,2.6,-5.2,-1,1023,2018,5,1,22,19,4.949,-0.6841,0.5113,-0.5132,0.0843
0.01,0.036,0.059,1.5,0.1,0,1023,2018,5,1,22,19,4.988,-0.6844,0.5113,-0.5128,0.0837
0.009,0.03,0.037,0.8,-0.7,0.9,1023,2018,5,1,22,19,5.009,-0.6848,0.5111,-0.5125,0.0834
0.004,0.025,0.032,0.4,0.9,0.9,1023,2018,5,1,22,19,5.013,-0.685,0.5111,-0.5123,0.0834
0.008,0.039,0.019,0,0,0,1023,2018,5,1,22,19,5.031,-0.6853,0.5108,-0.5121,0.0833
0,0.043,0.035,-0.4,-1.3,0.2,0,2018,5,1,22,19,5.071,-0.6855,0.5108,-0.512,0.0828
0.006,0.077,0.053,-2.3,-3.4,1.1,0,2018,5,1,22,19,5.09,-0.6856,0.5107,-0.512,0.0824
0.011,0.08,0.068,-4.2,-1.8,3.5,0,2018,5,1,22,19,5.094,-0.6854,0.5108,-0.5122,0.0824
0.002,0.083,0.067,-7.8,2,6.8,0,2018,5,1,22,19,5.112,-0.6854,0.5106,-0.5123,0.0831
0.011,0.07,0.038,-10.6,5.5,9.2,0,2018,5,1,22,19,5.132,-0.6852,0.5102,-0.5126,0.0848
-0.007,0.065,0.025,-11.7,11.3,11.4,0,2018,5,1,22,19,5.15,-0.685,0.5097,-0.5129,0.0876
-0.002,0.107,0.039,-12.1,14.2,14.7,0,2018,5,1,22,19,5.188,-0.6851,0.5089,-0.513,0.0911
-0.002,0.176,0.059,-13.5,9.8,20.9,0,2018,5,1,22,19,5.208,-0.6852,0.5082,-0.5129,0.0949
0,0.219,0.096,-16.3,7.4,30,0,2018,5,1,22,19,5.212,-0.6842,0.5092,-0.5123,0.0999
-0.02,0.198,0.051,-19.8,4.3,40.1,0,2018,5,1,22,19,5.232,-0.6825,0.5113,-0.5112,0.1062
-0.042,0.164,0.026,-22.9,10.3,49.1,0,2018,5,1,22,19,5.252,-0.6807,0.5136,-0.5098,0.1134
-0.053,0.198,0.015,-24.8,17.2,56.6,0,2018,5,1,22,19,5.29,-0.6786,0.5159,-0.5079,0.1229
-0.079,0.255,0.103,-28.8,22.9,66.6,0,2018,5,1,22,19,5.311,-0.6769,0.5181,-0.5052,0.134
-0.091,0.338,0.198,-38.5,33.4,81,0,2018,5,1,22,19,5.315,-0.6747,0.5204,-0.5018,0.1482
-0.068,0.464,0.241,-51.2,39,101.8,0,2018,5,1,22,19,5.353,-0.6719,0.5226,-0.4977,0.1661
-0.111,0.45,0.16,-60.4,24.7,122.5,0,2018,5,1,22,19,5.374,-0.6665,0.5269,-0.4929,0.1871
-0.183,0.331,0.035,-64.9,8.7,142.8,0,2018,5,1,22,19,5.378,-0.6583,0.534,-0.4871,0.21
-0.236,0.172,-0.044,-65.2,7,153.9,0,2018,5,1,22,19,5.393,-0.6475,0.5436,-0.4802,0.2334
-0.191,0.201,0.04,-68.4,36.4,165.7,0,2018,5,1,22,19,5.412,-0.6371,0.5518,-0.4711,0.2597
-0.138,0.337,0.124,-74.1,61.7,179.1,0,2018,5,1,22,19,5.432,-0.6282,0.5568,-0.4595,0.2898
-0.13,0.421,0.045,-74.2,55.2,195,0,2018,5,1,22,19,5.471,-0.6185,0.5608,-0.4457,0.3226
-0.157,0.367,0.007,-69.6,38.3,211.5,0,2018,5,1,22,19,5.491,-0.6053,0.5675,-0.4301,0.3555
-0.277,0.073,-0.095,-64.7,25.8,218,0,2018,5,1,22,19,5.495,-0.5893,0.5762,-0.4136,0.3866
-0.22,-0.228,-0.114,-62.2,76.1,219.3,0,2018,5,1,22,19,5.513,-0.5745,0.5822,-0.3945,0.4185
-0.162,-0.367,-0.057,-57.4,157.5,207.4,0,2018,5,1,22,19,5.534,-0.5661,0.5804,-0.3696,0.4538
0,-0.112,0,-46.9,198.1,201.4,1023,2018,5,1,22,19,5.571,-0.5643,0.571,-0.3389,0.4904
-0.005,-0.015,-0.059,-29.2,183.8,200.2,1023,2018,5,1,22,19,5.591,-0.5636,0.5601,-0.3059,0.5244
-0.142,-0.28,-0.083,-12.3,167.3,192.2,1023,2018,5,1,22,19,5.595,-0.5604,0.552,-0.2724,0.554
-0.25,-0.617,0.071,-7.3,192.5,165.3,1023,2018,5,1,22,19,5.613,-0.5588,0.5426,-0.2388,0.5797
-0.101,-0.287,0.156,3.1,195.1,142.4,1023,2018,5,1,22,19,5.632,-0.562,0.5287,-0.2042,0.6023
-0.099,-0.058,0.121,15.1,116.6,125.7,1023,2018,5,1,22,19,5.653,-0.5628,0.5181,-0.1739,0.62
-0.129,-0.178,0.125,23.7,40.2,112.1,1023,2018,5,1,22,19,5.672,-0.5571,0.5164,-0.1528,0.632
-0.16,-0.429,0.154,22.1,21.1,92.7,1023,2018,5,1,22,19,5.714,-0.5488,0.5192,-0.1389,0.6401
-0.187,-0.33,0.239,15.9,36.8,70.8,1023,2018,5,1,22,19,5.735,-0.5434,0.5199,-0.1268,0.6466
-0.175,-0.543,0.245,1.7,4.3,44.5,1023,2018,5,1,22,19,5.739,-0.5389,0.5204,-0.1198,0.6514
-0.081,-0.139,0.217,0.8,19.9,25.5,0,2018,5,1,22,19,5.756,-0.5371,0.5191,-0.1148,0.6547
-0.02,-0.06,0.162,-0.2,-17.5,15.1,0,2018,5,1,22,19,5.794,-0.5352,0.5187,-0.1127,0.657
-0.026,-0.108,0.12,-2.2,-37.6,8.8,0,2018,5,1,22,19,5.812,-0.5313,0.521,-0.1152,0.6579
0,-0.127,0.087,-4.8,-19.7,3.3,0,2018,5,1,22,19,5.817,-0.5281,0.5232,-0.1188,0.6581
0.025,-0.033,0.051,-5.7,-3.1,0.8,0,2018,5,1,22,19,5.857,-0.5272,0.5231,-0.1204,0.6585
0.032,-0.007,0.02,-4.3,-4.3,-0.7,0,2018,5,1,22,19,5.861,-0.5271,0.5226,-0.1214,0.6589
0.042,-0.012,0.003,-2.4,-2.9,-1.3,0,2018,5,1,22,19,5.876,-0.5268,0.5224,-0.1223,0.6591
0.048,0.013,0.002,-1.5,1.3,-1.9,0,2018,5,1,22,19,5.896,-0.527,0.5222,-0.1229,0.659
0.045,0.018,0.004,-1.1,5.1,-1.7,0,2018,5,1,22,19,5.917,-0.5278,0.5215,-0.1229,0.6589
0.051,0.032,0.015,-0.7,5.9,-0.4,0,2018,5,1,22,19,5.937,-0.5288,0.5205,-0.1225,0.659
0.048,0.02,-0.014,-0.4,6.2,0.2,0,2018,5,1,22,19,5.957,-0.5293,0.5198,-0.1219,0.6592
0.047,0.023,-0.019,0,0.3,2.7,0,2018,5,1,22,19,5.994,-0.5295,0.5195,-0.1214,0.6594
0.051,0.015,-0.019,0.9,1.7,3.7,0,2018,5,1,22,19,6.015,-0.5297,0.5194,-0.1212,0.6594
0.057,0.006,-0.007,1,6.2,6.1,0,2018,5,1,22,19,6.019,-0.5296,0.5192,-0.1204,0.6598
0.048,0.004,-0.017,1.1,12.3,8,0,2018,5,1,22,19,6.039,-0.5297,0.5186,-0.1187,0.6604
0.031,-0.032,-0.013,0.5,21.1,8.6,0,2018,5,1,22,19,6.059,-0.5304,0.5174,-0.1162,0.6613
0.014,-0.059,-0.002,0.1,30,8.5,0,2018,5,1,22,19,6.075,-0.5319,0.5154,-0.1127,0.6623
0.023,-0.056,-0.005,-0.3,42.6,7.4,0,2018,5,1,22,19,6.113,-0.5344,0.5123,-0.1082,0.6635
0.033,-0.023,-0.028,1.1,55.8,6.6,0,2018,5,1,22,19,6.134,-0.5381,0.5079,-0.1021,0.6647
0.02,0.002,-0.018,2.2,62.4,5.7,0,2018,5,1,22,19,6.138,-0.5426,0.5029,-0.0945,0.666
-0.015,0.007,0.012,1.8,62.2,6.4,0,2018,5,1,22,19,6.158,-0.5476,0.4972,-0.0864,0.6674
-0.031,0.01,0.058,-2,62.4,5.1,0,2018,5,1,22,19,6.178,-0.5522,0.4912,-0.0784,0.6689
-0.024,0.027,0.068,-6.6,71.6,6.9,0,2018,5,1,22,19,6.218,-0.5571,0.484,-0.0701,0.671
-0.032,0.051,0.035,-10.7,84.1,6.7,1023,2018,5,1,22,19,6.238,-0.5627,0.475,-0.0606,0.6737
-0.043,0.08,0.002,-12.1,90.7,6.4,1023,2018,5,1,22,19,6.242,-0.5687,0.4651,-0.05,0.6765
-0.06,0.094,0.018,-14.5,89.2,6.6,1023,2018,5,1,22,19,6.259,-0.5747,0.4545,-0.039,0.6793
-0.125,0.039,0.087,-20.4,87.8,5.1,1023,2018,5,1,22,19,6.282,-0.5806,0.4433,-0.0287,0.6822
-0.159,0.043,0.115,-23.4,67.2,-0.8,1023,2018,5,1,22,19,6.3,-0.586,0.4328,-0.0207,0.6846
-0.122,0.085,0.067,-30.2,62,-1,1023,2018,5,1,22,19,6.32,-0.5905,0.4232,-0.0156,0.6869
-0.102,0.175,0.041,-34.1,54.2,0.2,1023,2018,5,1,22,19,6.363,-0.5947,0.4132,-0.0119,0.6894
-0.084,0.199,0.039,-37.6,32,1.9,1023,2018,5,1,22,19,6.365,-0.5978,0.4042,-0.0104,0.6921
-0.128,0.024,0.088,-43.7,3.7,-1,1023,2018,5,1,22,19,6.378,-0.5989,0.3974,-0.0124,0.6951
-0.132,-0.063,0.075,-48.1,-1,-3,1023,2018,5,1,22,19,6.416,-0.5988,0.392,-0.0168,0.6981
-0.081,-0.033,0.046,-48.5,-5.7,-6.1,0,2018,5,1,22,19,6.434,-0.599,0.3866,-0.0223,0.7008
-0.015,0.01,0.044,-50.7,-7.6,-5.1,0,2018,5,1,22,19,6.437,-0.5991,0.3812,-0.0285,0.7034
0.052,0.017,0.033,-51,-16.2,-1.9,0,2018,5,1,22,19,6.473,-0.5988,0.3756,-0.0356,0.7064
0.104,-0.009,0.014,-54.1,-7,2.1,0,2018,5,1,22,19,6.493,-0.5982,0.3696,-0.0431,0.7096
0.12,-0.012,-0.001,-54.5,1.2,5.7,0,2018,5,1,22,19,6.499,-0.5977,0.3624,-0.0498,0.7133
0.191,0.036,-0.044,-48.7,-4,10.9,0,2018,5,1,22,19,6.538,-0.5965,0.3557,-0.0551,0.7173
0.231,0.007,-0.081,-39.8,-22.2,14.1,0,2018,5,1,22,19,6.559,-0.5939,0.3514,-0.0607,0.7211
0.266,-0.034,-0.106,-31.6,-37.7,15.2,0,2018,5,1,22,19,6.561,-0.5899,0.3501,-0.0675,0.7244
0.286,-0.083,-0.116,-22.2,-50.9,13.4,0,2018,5,1,22,19,6.578,-0.5851,0.3515,-0.0752,0.7269
0.335,-0.06,-0.114,-11.7,-54.6,11.2,0,2018,5,1,22,19,6.598,-0.5804,0.3546,-0.083,0.7283
0.293,-0.111,-0.092,-2.4,-65.7,9.4,0,2018,5,1,22,19,6.634,-0.5754,0.3599,-0.0911,0.7286
0.276,-0.129,-0.083,3.3,-58.2,9,0,2018,5,1,22,19,6.654,-0.5705,0.3663,-0.0985,0.7283
0.214,-0.139,-0.085,6.8,-39.1,7.9,0,2018,5,1,22,19,6.658,-0.5667,0.3718,-0.1039,0.7278
0.183,-0.098,-0.088,11.4,-22.7,6.7,0,2018,5,1,22,19,6.696,-0.5642,0.3758,-0.1064,0.7272
0.185,0.008,-0.082,18.9,-23.1,6.3,0,2018,5,1,22,19,6.715,-0.5625,0.3799,-0.1074,0.7263
0.187,0.175,-0.095,32.5,-51.4,11.4,0,2018,5,1,22,19,6.719,-0.5598,0.3865,-0.1088,0.7247
0.197,0.226,-0.11,46.9,-99.1,20.2,0,2018,5,1,22,19,6.756,-0.5536,0.3992,-0.1137,0.7218
0.157,0.225,-0.13,59.8,-136.6,32.2,0,2018,5,1,22,19,6.779,-0.5432,0.4172,-0.1214,0.7183
0.058,0.082,-0.102,65.8,-153.1,41.9,0,2018,5,1,22,19,6.781,-0.529,0.4396,-0.1308,0.7139
-0.054,-0.031,-0.053,67.2,-146.7,47.2,0,2018,5,1,22,19,6.817,-0.513,0.4633,-0.1398,0.7088
-0.089,-0.062,-0.044,64.2,-134,49.7,0,2018,5,1,22,19,6.838,-0.4968,0.4858,-0.1472,0.7038
-0.131,-0.078,-0.034,59.8,-112.2,48.6,0,2018,5,1,22,19,6.841,-0.4813,0.506,-0.1525,0.6991
-0.168,-0.136,-0.008,54.3,-82.4,42.1,0,2018,5,1,22,19,6.878,-0.4684,0.523,-0.1553,0.6948
-0.211,-0.158,-0.006,48.9,-58.9,30.2,0,2018,5,1,22,19,6.898,-0.4588,0.5365,-0.1561,0.6907
-0.246,-0.194,0.048,41.3,-34.7,17,1023,2018,5,1,22,19,6.902,-0.4526,0.5469,-0.1556,0.6868
-0.266,-0.191,0.095,30.8,-7.3,0,1023,2018,5,1,22,19,6.94,-0.4507,0.5532,-0.1541,0.6833
-0.261,-0.107,0.111,21.1,6,-16.1,1023,2018,5,1,22,19,6.96,-0.4524,0.556,-0.1523,0.6803
-0.197,-0.017,0.082,14.6,8.5,-26.6,1023,2018,5,1,22,19,6.962,-0.456,0.5569,-0.1511,0.6774
-0.173,-0.054,0.012,7.2,26.5,-34.3,1023,2018,5,1,22,19,6.997,-0.4611,0.5564,-0.1507,0.6745
-0.158,-0.126,0.016,-1.8,73.4,-49.1,1023,2018,5,1,22,19,7.017,-0.4709,0.5517,-0.148,0.6721
-0.07,-0.013,0.004,-6.8,84,-55.9,1023,2018,5,1,22,19,7.023,-0.4848,0.5433,-0.1436,0.6701
0.046,0.178,0.032,-6.9,66.8,-50.1,1023,2018,5,1,22,19,7.06,-0.498,0.5345,-0.1397,0.6683
0.11,0.225,0.098,-7.1,31.1,-36,1023,2018,5,1,22,19,7.08,-0.5076,0.5283,-0.1388,0.6662
0.174,0.11,0.106,-11.3,-3.2,-21.7,1023,2018,5,1,22,19,7.082,-0.5118,0.5254,-0.1409,0.6648
0.217,0.266,0.131,-11.5,-17.3,-6,1023,2018,5,1,22,19,7.118,-0.5124,0.5243,-0.144,0.6645
0.227,0.103,0.006,-8.2,-30.8,3.2,0,2018,5,1,22,19,7.139,-0.51,0.5255,-0.1484,0.6645
0.199,0.127,-0.078,0.2,-34.1,15,0,2018,5,1,22,19,7.143,-0.5063,0.5279,-0.1519,0.6646
0.171,0.092,-0.065,7,-28.8,25.6,0,2018,5,1,22,19,7.181,-0.5016,0.5315,-0.154,0.6649
0.098,0.01,-0.004,11.1,-19.9,27.5,0,2018,5,1,22,19,7.203,-0.4972,0.5351,-0.154,0.6653
0.048,-0.007,0.059,12,-20.9,28.3,0,2018,5,1,22,19,7.207,-0.493,0.5383,-0.1529,0.666
0.024,0.002,0.081,12.1,-39.1,28.2,0,2018,5,1,22,19,7.225,-0.4878,0.5424,-0.1526,0.6666
-0.025,-0.179,0.033,8.5,-40.5,24.2,0,2018,5,1,22,19,7.246,-0.4811,0.5478,-0.1543,0.6667
-0.071,-0.306,0.057,4.8,-13.1,12.3,0,2018,5,1,22,19,7.283,-0.4771,0.5513,-0.1557,0.6664
-0.043,-0.283,0.044,3.7,0.2,-4.4,0,2018,5,1,22,19,7.285,-0.477,0.5522,-0.1567,0.6654
-0.034,-0.196,0.08,5.7,0.1,-19.2,0,2018,5,1,22,19,7.304,-0.4794,0.5521,-0.1579,0.6635
-0.071,-0.22,0.128,5.2,-15.7,-30,0,2018,5,1,22,19,7.325,-0.4821,0.5524,-0.161,0.6605
-0.071,-0.294,0.126,3.6,-22,-45.2,0,2018,5,1,22,19,7.347,-0.4852,0.5532,-0.1671,0.6561
-0.112,-0.399,0.108,-0.7,-14,-62.8,0,2018,5,1,22,19,7.365,-0.49,0.5532,-0.1751,0.6504
