time_1,time_2,time_3,time_4,time_5,time_6,w,x,y,z,droll,dpitch,dyaw,ax,ay,az,heart
2018,4,25,20,48,21.823,0.8011,-0.0413,-0.4494,0.3929,-0.1,0,0.5,0.011,0,-0.003,0
2018,4,25,20,48,21.843,0.8011,-0.0414,-0.4493,0.3932,-0.2,0.1,0.7,0.01,0,-0.004,0
2018,4,25,20,48,21.847,0.801,-0.0414,-0.4493,0.3933,-0.3,0.3,0.5,0.01,0.003,-0.004,0
2018,4,25,20,48,21.867,0.8008,-0.0413,-0.4494,0.3935,-0.2,0.3,0.6,0.01,0,-0.007,0
2018,4,25,20,48,21.888,0.8007,-0.0411,-0.4494,0.3937,-0.1,0.4,0.8,0.007,0.002,-0.002,0
2018,4,25,20,48,21.91,0.8006,-0.0409,-0.4495,0.3939,0,0.1,0.8,0.01,0.001,0,0
2018,4,25,20,48,21.93,0.8005,-0.0407,-0.4495,0.3941,0.1,0.1,0.7,0.01,-0.001,-0.005,0
2018,4,25,20,48,21.945,0.8004,-0.0407,-0.4495,0.3943,0.1,-0.1,0.6,0.008,0.001,-0.004,0
2018,4,25,20,48,21.967,0.8003,-0.0406,-0.4494,0.3946,0.4,0,0.7,0.007,0,-0.004,0
2018,4,25,20,48,21.988,0.8003,-0.0406,-0.4493,0.3948,0.1,-0.1,0.5,0.01,0,-0.001,0
2018,4,25,20,48,22.026,0.8002,-0.0404,-0.4492,0.3951,-0.1,0,0.6,0.012,0.003,-0.006,0
2018,4,25,20,48,22.046,0.8001,-0.0402,-0.4492,0.3953,0,-0.1,0.6,0.012,0.002,-0.003,0
2018,4,25,20,48,22.05,0.8,-0.0401,-0.4492,0.3955,0,0,0,0.012,0,0.003,0
2018,4,25,20,48,22.086,0.7999,-0.04,-0.4492,0.3957,-0.1,0.1,0.7,0.008,0.003,0,0
2018,4,25,20,48,22.107,0.7998,-0.0399,-0.4492,0.396,0,0,0,0.012,0.004,-0.002,0
2018,4,25,20,48,22.111,0.7997,-0.0399,-0.4492,0.3962,0,0,0,0.013,0,-0.004,0
2018,4,25,20,48,22.15,0.7996,-0.0399,-0.4491,0.3965,-0.3,0,0.5,0.009,-0.002,-0.002,0
2018,4,25,20,48,22.154,0.7995,-0.04,-0.4491,0.3968,0,0,0,0.012,0.001,0,0
2018,4,25,20,48,22.17,0.7993,-0.0398,-0.4492,0.397,-0.1,0.1,0.5,0.008,0,-0.005,0
2018,4,25,20,48,22.188,0.7991,-0.0395,-0.4493,0.3972,-0.2,0.2,0.5,0.012,0,-0.005,0
2018,4,25,20,48,22.225,0.799,-0.0393,-0.4494,0.3974,-0.3,0,0.5,0.011,-0.001,0,0
2018,4,25,20,48,22.244,0.7989,-0.0392,-0.4494,0.3976,0,0,0.5,0.008,0.002,-0.003,0
2018,4,25,20,48,22.248,0.7988,-0.0392,-0.4493,0.3978,-0.1,0,0.5,0.013,0.005,-0.001,0
2018,4,25,20,48,22.284,0.7988,-0.0391,-0.4493,0.398,-0.2,0.2,0.7,0.011,0.001,0,0
2018,4,25,20,48,22.304,0.7986,-0.0391,-0.4493,0.3982,0,0,0,0.007,0.001,-0.006,0
2018,4,25,20,48,22.312,0.7985,-0.039,-0.4493,0.3985,-0.4,0,0.5,0.009,0,-0.002,1023
2018,4,25,20,48,22.328,0.7984,-0.039,-0.4493,0.3988,0,0,0,0.009,-0.004,-0.004,1023
2018,4,25,20,48,22.369,0.7982,-0.039,-0.4492,0.3991,0,-0.2,0.5,0.014,0,0,1023
2018,4,25,20,48,22.389,0.7981,-0.0389,-0.4492,0.3994,0,0,0,0.01,0.005,0,1023
2018,4,25,20,48,22.393,0.798,-0.0388,-0.4492,0.3996,-0.1,0.2,0.7,0.01,0.003,-0.008,1023
2018,4,25,20,48,22.41,0.7979,-0.0387,-0.4492,0.3998,-0.2,0.5,0.7,0.008,0.002,-0.005,1023
2018,4,25,20,48,22.43,0.7978,-0.0386,-0.4493,0.4,-0.2,0.4,0.5,0.007,0.002,-0.005,1023
2018,4,25,20,48,22.469,0.7977,-0.0385,-0.4493,0.4002,-0.2,0.1,0.7,0.009,0,-0.002,1023
2018,4,25,20,48,22.488,0.7976,-0.0385,-0.4493,0.4004,0,0,0,0.008,0.002,0,1023
2018,4,25,20,48,22.493,0.7975,-0.0384,-0.4493,0.4007,-0.1,-0.2,0.5,0.012,0.002,-0.004,1023
2018,4,25,20,48,22.512,0.7973,-0.0383,-0.4493,0.401,0,0,0,0.012,0,-0.002,1023
2018,4,25,20,48,22.551,0.7972,-0.0383,-0.4492,0.4013,0,0,0,0.015,0.004,0,1023
2018,4,25,20,48,22.57,0.7971,-0.0383,-0.4491,0.4015,0,0,0.7,0.011,0,-0.003,0
2018,4,25,20,48,22.572,0.797,-0.0382,-0.4491,0.4018,0,0.1,0.5,0.008,0.002,0,0
2018,4,25,20,48,22.592,0.797,-0.0382,-0.449,0.402,-0.2,0.2,0.5,0.012,0.002,-0.002,0
2018,4,25,20,48,22.611,0.7969,-0.0382,-0.449,0.4022,-0.4,0,0.6,0.01,0.001,-0.001,0
2018,4,25,20,48,22.65,0.7968,-0.0382,-0.449,0.4024,-0.2,0,0.5,0.012,0.002,-0.004,0
2018,4,25,20,48,22.67,0.7967,-0.0382,-0.449,0.4026,-0.3,0.1,0.6,0.01,0.004,0,0
2018,4,25,20,48,22.674,0.7966,-0.0382,-0.449,0.4028,-0.4,0.3,0.5,0.008,-0.001,0,0
2018,4,25,20,48,22.692,0.7965,-0.0381,-0.4491,0.403,-0.4,0.3,0.5,0.009,0.001,-0.005,0
2018,4,25,20,48,22.731,0.7964,-0.0381,-0.4491,0.4031,-0.4,0.3,0.5,0.012,0,-0.001,0
2018,4,25,20,48,22.751,0.7962,-0.0379,-0.4492,0.4033,-0.2,0.2,0.6,0.01,0,0,0
2018,4,25,20,48,22.755,0.7961,-0.0377,-0.4493,0.4035,-0.1,0.1,0.7,0.006,0.002,-0.002,0
2018,4,25,20,48,22.775,0.796,-0.0377,-0.4493,0.4037,0,0,0.7,0.01,0.002,-0.003,0
2018,4,25,20,48,22.796,0.7959,-0.0374,-0.4494,0.4038,-0.1,0.3,0.7,0.014,0.003,-0.003,0
2018,4,25,20,48,22.814,0.7957,-0.0372,-0.4495,0.404,-0.1,0.3,0.7,0.009,0,-0.001,0
2018,4,25,20,48,22.837,0.7957,-0.0371,-0.4495,0.4042,-0.2,0.3,0.8,0.008,0.001,-0.004,0
2018,4,25,20,48,22.857,0.7955,-0.037,-0.4496,0.4043,-0.3,0.2,0.6,0.007,0.001,-0.003,0
2018,4,25,20,48,22.878,0.7954,-0.0369,-0.4496,0.4045,-0.2,0.3,0.6,0.011,0.002,0,0
2018,4,25,20,48,22.895,0.7953,-0.0368,-0.4497,0.4047,-0.5,0.4,0.5,0.011,0.001,-0.001,0
2018,4,25,20,48,22.913,0.7952,-0.0368,-0.4497,0.4048,-0.5,0.4,0.6,0.01,0.005,-0.005,0
2018,4,25,20,48,22.951,0.7951,-0.0368,-0.4497,0.405,-0.5,0.2,0.5,0.014,0.002,-0.003,0
2018,4,25,20,48,22.97,0.795,-0.0369,-0.4497,0.4052,-0.5,0.1,0.5,0.013,0.001,-0.002,0
2018,4,25,20,48,22.974,0.7949,-0.0369,-0.4497,0.4054,0,0,0,0.011,0.001,-0.002,0
2018,4,25,20,48,23.012,0.7948,-0.0369,-0.4498,0.4056,-0.7,0.6,0.5,0.01,0.001,-0.001,0
2018,4,25,20,48,23.033,0.7947,-0.0368,-0.4499,0.4057,-0.4,0.4,0.6,0.008,0.002,-0.001,0
2018,4,25,20,48,23.037,0.7945,-0.0368,-0.45,0.4059,-0.5,0.3,0.7,0.01,0,-0.008,0
2018,4,25,20,48,23.055,0.7944,-0.0368,-0.45,0.4061,-0.2,0.3,0.8,0.008,-0.001,-0.003,0
2018,4,25,20,48,23.074,0.7943,-0.0367,-0.45,0.4062,-0.3,0.3,0.6,0.009,0.001,-0.001,0
2018,4,25,20,48,23.094,0.7942,-0.0367,-0.45,0.4064,-0.9,0.6,0.6,0.011,0.004,0,1023
2018,4,25,20,48,23.116,0.7941,-0.0367,-0.4501,0.4066,-0.9,0.6,0.5,0.011,0.001,-0.004,1023
2018,4,25,20,48,23.135,0.7939,-0.0367,-0.4502,0.4067,-0.8,0.5,0.5,0.007,-0.002,-0.002,1023
2018,4,25,20,48,23.173,0.7938,-0.0367,-0.4503,0.4069,-0.1,0,0.6,0.01,-0.004,0,1023
2018,4,25,20,48,23.193,0.7938,-0.0367,-0.4503,0.4071,0,0.2,0.7,0.014,0,-0.001,1023
2018,4,25,20,48,23.197,0.7937,-0.0365,-0.4503,0.4072,-0.2,0.5,0.9,0.014,0.002,0.001,1023
2018,4,25,20,48,23.217,0.7936,-0.0363,-0.4504,0.4074,-0.6,0.9,0.9,0.011,0.005,0,1023
2018,4,25,20,48,23.237,0.7934,-0.0362,-0.4506,0.4075,-0.6,1.2,0.8,0.01,0,-0.007,1023
2018,4,25,20,48,23.258,0.7932,-0.0361,-0.4508,0.4076,-0.6,0.9,0.8,0.006,0,-0.002,1023
2018,4,25,20,48,23.295,0.7931,-0.036,-0.4509,0.4077,-0.6,0.6,0.5,0.007,0.002,-0.005,1023
2018,4,25,20,48,23.315,0.793,-0.0359,-0.451,0.4079,-0.4,0.1,0.5,0.008,0,-0.004,1023
2018,4,25,20,48,23.319,0.7928,-0.0358,-0.451,0.4081,0,0,0,0.011,0,-0.004,1023
2018,4,25,20,48,23.338,0.7927,-0.0357,-0.451,0.4084,0,0,0,0.012,0,-0.002,1023
2018,4,25,20,48,23.362,0.7926,-0.0358,-0.4509,0.4086,-0.3,0.1,0.5,0.012,0,-0.003,0
2018,4,25,20,48,23.377,0.7925,-0.0358,-0.4509,0.4088,-0.2,0.3,0.7,0.011,0,0,0
2018,4,25,20,48,23.396,0.7924,-0.0359,-0.4509,0.409,-0.4,0.5,0.6,0.009,0,-0.002,0
2018,4,25,20,48,23.433,0.7923,-0.0359,-0.451,0.4091,-0.8,0.6,0.6,0.01,0.001,-0.001,0
2018,4,25,20,48,23.454,0.7922,-0.0358,-0.4511,0.4093,-0.9,0.5,0.6,0.012,0,0.002,0
2018,4,25,20,48,23.458,0.7921,-0.0358,-0.4512,0.4094,-0.7,0.7,0.7,0.012,0,-0.002,0
2018,4,25,20,48,23.478,0.7919,-0.0357,-0.4514,0.4095,-1.1,0.9,0.7,0.015,0.001,-0.002,0
2018,4,25,20,48,23.5,0.7918,-0.0358,-0.4515,0.4096,-0.9,1,0.6,0.01,0.003,-0.007,0
2018,4,25,20,48,23.537,0.7916,-0.0358,-0.4517,0.4098,-1,0.8,0.7,0.008,0.002,-0.002,0
2018,4,25,20,48,23.559,0.7914,-0.0357,-0.4519,0.4098,-0.8,0.9,0.6,0.008,0.001,-0.004,0
2018,4,25,20,48,23.563,0.7913,-0.0356,-0.4521,0.41,-0.8,0.5,0.7,0.006,0,-0.001,0
2018,4,25,20,48,23.597,0.7911,-0.0354,-0.4523,0.4101,-0.7,0.2,0.5,0.008,0,-0.001,0
2018,4,25,20,48,23.599,0.791,-0.0355,-0.4524,0.4102,-0.8,0,0.3,0.009,-0.006,-0.003,0
2018,4,25,20,48,23.618,0.7909,-0.0354,-0.4524,0.4104,0,0,0,0.011,0,-0.002,0
2018,4,25,20,48,23.656,0.7907,-0.0353,-0.4524,0.4107,0,0,0,0.014,-0.003,-0.002,0
2018,4,25,20,48,23.678,0.7906,-0.0354,-0.4523,0.411,0,0,0,0.013,0.003,-0.002,0
2018,4,25,20,48,23.682,0.7905,-0.0352,-0.4523,0.4113,0,0,0,0.014,0.001,-0.005,0
2018,4,25,20,48,23.7,0.7904,-0.0352,-0.4523,0.4115,-0.4,0.4,0.5,0.01,0.001,-0.004,0
2018,4,25,20,48,23.719,0.7902,-0.0352,-0.4523,0.4118,-0.2,0.1,0.6,0.012,0.001,-0.002,0
2018,4,25,20,48,23.74,0.7901,-0.0352,-0.4523,0.412,0,0,0,0.011,0.002,-0.001,0
2018,4,25,20,48,23.761,0.79,-0.0351,-0.4523,0.4122,0,0,0,0.009,0,-0.001,0
2018,4,25,20,48,23.781,0.7899,-0.0351,-0.4522,0.4125,-0.2,-0.2,0.5,0.01,0,-0.001,0
2018,4,25,20,48,23.795,0.7899,-0.0351,-0.4521,0.4127,0,-0.4,0.5,0.009,0,-0.001,0
2018,4,25,20,48,23.817,0.7898,-0.035,-0.4521,0.4129,0,-0.2,0.6,0.008,0,-0.003,0
2018,4,25,20,48,23.838,0.7898,-0.035,-0.452,0.4131,0,-0.3,0.6,0.01,0.003,-0.004,0
2018,4,25,20,48,23.875,0.7897,-0.035,-0.4519,0.4133,-0.3,0,0.5,0.014,0.003,-0.004,0
2018,4,25,20,48,23.896,0.7896,-0.035,-0.4519,0.4135,-0.5,0.1,0.3,0.011,0.002,-0.005,1023
2018,4,25,20,48,23.9,0.7895,-0.035,-0.4519,0.4137,-0.5,-0.1,0.4,0.008,0.001,-0.009,1023
2018,4,25,20,48,23.94,0.7893,-0.035,-0.4519,0.414,0,0,0,0.003,-0.006,-0.004,1023
2018,4,25,20,48,23.959,0.7893,-0.035,-0.4518,0.4142,0.3,-0.9,0.3,0.011,0,-0.005,1023
2018,4,25,20,48,23.963,0.7893,-0.035,-0.4516,0.4145,0.3,-0.4,0.5,0.011,0.005,0,1023
2018,4,25,20,48,23.983,0.7892,-0.0349,-0.4514,0.4147,-0.2,-0.1,0.5,0.013,0.003,0,1023
2018,4,25,20,48,24.003,0.7891,-0.0349,-0.4514,0.4148,-0.2,0.3,0.5,0.011,-0.001,-0.004,1023
2018,4,25,20,48,24.025,0.7891,-0.0349,-0.4514,0.415,0,0.1,0.7,0.006,0.003,0.003,1023
2018,4,25,20,48,24.045,0.789,-0.0349,-0.4514,0.4151,-0.2,-0.2,0.7,0.007,0.001,-0.005,1023
2018,4,25,20,48,24.064,0.7888,-0.0346,-0.4515,0.4154,0.1,-0.4,0.5,0.01,0.002,-0.001,1023
2018,4,25,20,48,24.083,0.7888,-0.0345,-0.4514,0.4156,-0.1,-0.4,0.6,0.011,0.008,-0.004,1023
2018,4,25,20,48,24.103,0.7887,-0.0346,-0.4513,0.4158,0.3,-0.5,0.4,0.014,0.001,0,1023
2018,4,25,20,48,24.123,0.7886,-0.0345,-0.4512,0.4161,0,0,0,0.013,0.001,-0.002,1023
2018,4,25,20,48,24.141,0.7886,-0.0344,-0.4511,0.4163,0.1,-0.1,0.5,0.011,-0.001,-0.001,0
2018,4,25,20,48,24.162,0.7885,-0.0342,-0.4511,0.4165,0.1,-0.2,0.6,0.01,0.001,-0.003,0
2018,4,25,20,48,24.202,0.7885,-0.0343,-0.4509,0.4167,0.2,-0.2,0.5,0.01,0.001,-0.005,0
2018,4,25,20,48,24.207,0.7885,-0.0344,-0.4508,0.4169,0.1,-0.4,0.5,0.011,-0.001,-0.007,0
2018,4,25,20,48,24.226,0.7884,-0.0343,-0.4507,0.4171,0,0,0,0.01,-0.001,-0.005,0
2018,4,25,20,48,24.264,0.7883,-0.0343,-0.4506,0.4174,0,0,0,0.009,0.002,0.002,0
2018,4,25,20,48,24.283,0.7882,-0.0342,-0.4506,0.4176,-0.1,0,0.5,0.008,0.001,-0.005,0
2018,4,25,20,48,24.288,0.788,-0.0341,-0.4506,0.4179,0,0,0.5,0.008,0.002,-0.006,0
2018,4,25,20,48,24.308,0.788,-0.0341,-0.4505,0.4181,0.1,0,0.5,0.011,0.001,0,0
2018,4,25,20,48,24.327,0.7879,-0.0342,-0.4504,0.4184,0,0,0,0.009,-0.001,-0.003,0
2018,4,25,20,48,24.342,0.7878,-0.0342,-0.4504,0.4186,0,0,0,0.01,0,-0.002,0
2018,4,25,20,48,24.363,0.7876,-0.0341,-0.4504,0.4189,0,0,0,0.008,0,-0.004,0
2018,4,25,20,48,24.383,0.7875,-0.034,-0.4504,0.4191,0,0,0,0.01,0.002,-0.003,0
2018,4,25,20,48,24.403,0.7874,-0.0337,-0.4505,0.4193,0.2,-0.4,0.5,0.008,0.003,-0.003,0
2018,4,25,20,48,24.443,0.7873,-0.0335,-0.4505,0.4195,0.2,-0.4,0.6,0.011,0.001,-0.002,0
2018,4,25,20,48,24.463,0.7872,-0.0333,-0.4504,0.4197,0.3,-0.3,0.6,0.009,0,-0.002,0
2018,4,25,20,48,24.467,0.7871,-0.0331,-0.4504,0.4199,0.3,-0.3,0.7,0.009,0.003,-0.004,0
2018,4,25,20,48,24.485,0.7871,-0.0329,-0.4503,0.4201,0.3,-0.1,0.6,0.014,0.001,-0.001,0
2018,4,25,20,48,24.506,0.787,-0.0327,-0.4503,0.4203,0.1,0,0.6,0.012,0.001,0.001,0
2018,4,25,20,48,24.526,0.7869,-0.0326,-0.4502,0.4205,0,0,0.5,0.014,0.003,0,0
2018,4,25,20,48,24.546,0.7868,-0.0325,-0.4502,0.4208,-0.2,0,0.5,0.009,0.002,-0.003,0
2018,4,25,20,48,24.566,0.7867,-0.0325,-0.4501,0.421,0,-0.1,0.5,0.012,0,-0.005,0
2018,4,25,20,48,24.585,0.7866,-0.0324,-0.4501,0.4212,-0.1,-0.2,0.5,0.008,0.001,-0.001,0
2018,4,25,20,48,24.604,0.7865,-0.0323,-0.4501,0.4214,0,0,0,0.013,0,-0.001,0
2018,4,25,20,48,24.625,0.7864,-0.0321,-0.4501,0.4216,0,-0.5,0.5,0.008,0,-0.003,0
2018,4,25,20,48,24.665,0.7864,-0.0321,-0.45,0.4218,0,0,0,0.013,0.002,-0.005,0
2018,4,25,20,48,24.686,0.7863,-0.032,-0.4499,0.422,-0.4,0,0.5,0.012,0.002,0.002,0
2018,4,25,20,48,24.69,0.7863,-0.032,-0.4498,0.4222,0,0,0,0.01,0.002,-0.001,1023
2018,4,25,20,48,24.708,0.7862,-0.032,-0.4498,0.4224,0,0,0,0.008,-0.001,0,1023
2018,4,25,20,48,24.729,0.7861,-0.032,-0.4497,0.4227,0.1,-0.6,0.3,0.014,0,0,1023
2018,4,25,20,48,24.767,0.786,-0.0318,-0.4496,0.4229,0.3,-0.5,0.5,0.011,0.001,-0.001,1023
2018,4,25,20,48,24.788,0.7859,-0.0317,-0.4496,0.4231,0.1,-0.2,0.7,0.012,0.001,-0.002,1023
2018,4,25,20,48,24.792,0.7858,-0.0314,-0.4496,0.4233,0.2,0.1,0.7,0.01,-0.002,-0.007,1023
2018,4,25,20,48,24.806,0.7857,-0.0313,-0.4496,0.4235,0.1,0.1,0.7,0.012,0.002,-0.003,1023
2018,4,25,20,48,24.825,0.7856,-0.0312,-0.4496,0.4236,0,0.2,0.7,0.006,0.002,-0.003,1023
2018,4,25,20,48,24.845,0.7856,-0.0311,-0.4496,0.4238,0.2,0,0.5,0.006,0,-0.005,1023
2018,4,25,20,48,24.885,0.7855,-0.031,-0.4495,0.424,0,-0.1,0.5,0.009,0,0,1023
2018,4,25,20,48,24.904,0.7855,-0.031,-0.4494,0.4242,0,0,0,0.01,0,-0.004,1023
2018,4,25,20,48,24.908,0.7854,-0.031,-0.4493,0.4245,0,0,0,0.013,0.003,-0.005,1023
2018,4,25,20,48,24.945,0.7854,-0.031,-0.4491,0.4247,0,-0.4,0.5,0.013,0.002,-0.001,1023
2018,4,25,20,48,24.965,0.7853,-0.0309,-0.4491,0.4249,-0.1,-0.1,0.6,0.009,0.003,-0.002,0
2018,4,25,20,48,24.969,0.7852,-0.0308,-0.449,0.425,0,0,0.6,0.011,0.005,0,0
2018,4,25,20,48,24.991,0.7852,-0.0308,-0.449,0.4252,-0.5,0.1,0.5,0.014,0,-0.004,0
2018,4,25,20,48,25.011,0.7851,-0.0308,-0.4489,0.4254,0,0,0,0.013,-0.001,0.001,0
2018,4,25,20,48,25.05,0.785,-0.0308,-0.4489,0.4256,-0.2,0.1,0.5,0.009,0,0.005,0
2018,4,25,20,48,25.054,0.7849,-0.0308,-0.4488,0.4258,-0.4,0,0.5,0.013,0,-0.001,0
2018,4,25,20,48,25.069,0.7849,-0.0308,-0.4488,0.4259,-0.6,0.1,0.5,0.01,0.001,-0.001,0
2018,4,25,20,48,25.089,0.7847,-0.0307,-0.4489,0.4261,-0.4,0.3,0.5,0.009,0,-0.006,0
2018,4,25,20,48,25.108,0.7846,-0.0305,-0.449,0.4262,-0.3,0.4,0.6,0.009,0.001,-0.004,0
2018,4,25,20,48,25.13,0.7845,-0.0304,-0.4491,0.4263,-0.2,0.1,0.5,0.012,0,-0.001,0
2018,4,25,20,48,25.15,0.7844,-0.0302,-0.4492,0.4265,0,0,0.5,0.009,0,-0.003,0
2018,4,25,20,48,25.169,0.7843,-0.0301,-0.4491,0.4267,0,-0.2,0.5,0.009,-0.001,-0.005,0
2018,4,25,20,48,25.189,0.7842,-0.0302,-0.449,0.4269,0,0,0,0.012,0,0,0
2018,4,25,20,48,25.21,0.7841,-0.0302,-0.449,0.4272,0,0,0,0.011,0.002,0.001,0
2018,4,25,20,48,25.23,0.784,-0.03,-0.449,0.4275,0,0,0,0.014,0.003,-0.004,0
2018,4,25,20,48,25.271,0.7839,-0.03,-0.4489,0.4277,0,0,0,0.008,0,-0.005,0
2018,4,25,20,48,25.275,0.7838,-0.0302,-0.4488,0.428,0,0,0,0.011,0.002,-0.002,0
2018,4,25,20,48,25.29,0.7837,-0.0301,-0.4488,0.4282,-0.1,0.1,0.5,0.012,0.004,0.001,0
2018,4,25,20,48,25.308,0.7836,-0.0301,-0.4487,0.4284,0,0,0,0.009,0.004,-0.005,0
2018,4,25,20,48,25.347,0.7835,-0.0301,-0.4486,0.4286,-0.1,0,0.5,0.008,0,0,0
2018,4,25,20,48,25.368,0.7834,-0.03,-0.4486,0.4288,-0.2,0,0.7,0.008,0.002,-0.002,0
2018,4,25,20,48,25.373,0.7834,-0.0299,-0.4486,0.4289,-0.3,0,0.6,0.008,0,-0.006,0
2018,4,25,20,48,25.393,0.7833,-0.0298,-0.4487,0.4291,0,0,0,0.012,0.001,-0.003,0
2018,4,25,20,48,25.414,0.7832,-0.0298,-0.4486,0.4293,0,-0.1,0.5,0.009,0.001,-0.005,0
2018,4,25,20,48,25.432,0.7831,-0.0296,-0.4486,0.4294,-0.1,-0.1,0.6,0.013,0.004,-0.004,0
2018,4,25,20,48,25.47,0.7831,-0.0295,-0.4486,0.4296,-0.4,0,0.5,0.011,0.003,0,0
2018,4,25,20,48,25.49,0.783,-0.0296,-0.4486,0.4297,-0.5,0.1,0.4,0.01,0,0,1023
2018,4,25,20,48,25.494,0.7829,-0.0295,-0.4485,0.43,0,0,0,0.009,0.003,-0.001,1023
2018,4,25,20,48,25.511,0.7828,-0.0296,-0.4484,0.4302,0,0,0,0.01,0,0.001,1023
2018,4,25,20,48,25.531,0.7827,-0.0297,-0.4484,0.4304,-0.1,-0.4,0.5,0.01,-0.002,-0.001,1023
2018,4,25,20,48,25.55,0.7827,-0.0297,-0.4482,0.4307,-0.1,-0.1,0.5,0.011,0.002,-0.001,1023
2018,4,25,20,48,25.572,0.7826,-0.0296,-0.4482,0.4308,-0.1,0,0.7,0.013,0.001,0.001,1023
2018,4,25,20,48,25.591,0.7826,-0.0296,-0.4481,0.431,-0.1,0.1,0.7,0.01,0,-0.004,1023
2018,4,25,20,48,25.611,0.7825,-0.0295,-0.4482,0.4311,-0.3,0.4,0.8,0.006,0.001,-0.003,1023
2018,4,25,20,48,25.652,0.7824,-0.0294,-0.4483,0.4312,-0.2,0.3,0.7,0.007,0.003,0,1023
2018,4,25,20,48,25.672,0.7823,-0.0293,-0.4483,0.4313,-0.1,0,0.7,0.01,0.003,-0.004,1023
2018,4,25,20,48,25.676,0.7822,-0.0293,-0.4483,0.4315,0,0,0,0.01,0.002,-0.004,1023
2018,4,25,20,48,25.696,0.7821,-0.0292,-0.4483,0.4317,0,0,0,0.011,0,-0.004,1023
2018,4,25,20,48,25.714,0.782,-0.0292,-0.4481,0.432,0,0,0,0.009,0.003,-0.005,1023
2018,4,25,20,48,25.736,0.7819,-0.0292,-0.4481,0.4322,0,0,0,0.008,0.001,-0.005,0
2018,4,25,20,48,25.757,0.7818,-0.0291,-0.4481,0.4324,0.1,0.1,0.5,0.009,0.001,-0.004,0
2018,4,25,20,48,25.773,0.7818,-0.029,-0.448,0.4325,-0.1,0,0.6,0.009,0,-0.004,0
2018,4,25,20,48,25.809,0.7817,-0.029,-0.4481,0.4326,-0.6,0,0.6,0.008,0.001,-0.004,0
2018,4,25,20,48,25.831,0.7816,-0.0289,-0.4481,0.4328,0,0,0,0.012,0.002,-0.001,0
2018,4,25,20,48,25.835,0.7815,-0.0288,-0.4481,0.433,-0.3,0.2,0.5,0.014,0.001,0.001,0
2018,4,25,20,48,25.855,0.7814,-0.0287,-0.4482,0.4331,-0.4,0.4,0.5,0.011,0.001,-0.001,0
2018,4,25,20,48,25.876,0.7813,-0.0286,-0.4482,0.4333,-0.3,0.3,0.5,0.012,0,-0.008,0
2018,4,25,20,48,25.914,0.7812,-0.0286,-0.4483,0.4334,-0.4,0.2,0.7,0.01,0,-0.005,0
2018,4,25,20,48,25.934,0.7811,-0.0286,-0.4483,0.4336,-0.2,0.1,0.7,0.009,0,-0.004,0
2018,4,25,20,48,25.938,0.781,-0.0285,-0.4483,0.4337,-0.2,0,0.5,0.005,0,-0.002,0
2018,4,25,20,48,25.957,0.7809,-0.0285,-0.4483,0.4339,-0.1,0,0.5,0.007,0,-0.007,0
2018,4,25,20,48,25.978,0.7808,-0.0285,-0.4482,0.434,0,0,0,0.009,0,-0.007,0
2018,4,25,20,48,25.995,0.7808,-0.0284,-0.4482,0.4342,0,-0.2,0.5,0.011,0.004,-0.004,0
2018,4,25,20,48,26.013,0.7807,-0.0284,-0.4481,0.4344,0,0,0,0.008,0.003,-0.002,0
2018,4,25,20,48,26.033,0.7806,-0.0284,-0.448,0.4346,-0.3,0,0.5,0.011,0,-0.005,0
2018,4,25,20,48,26.072,0.7805,-0.0282,-0.4481,0.4348,0,0,0,0.01,0.004,-0.004,0
2018,4,25,20,48,26.092,0.7804,-0.0281,-0.4481,0.435,-0.4,0.2,0.5,0.009,0.001,0,0
2018,4,25,20,48,26.096,0.7803,-0.028,-0.4482,0.4351,-0.3,0.1,0.5,0.011,-0.001,-0.004,0
2018,4,25,20,48,26.115,0.7802,-0.028,-0.4482,0.4353,-0.3,0,0.5,0.008,0.001,-0.004,0
2018,4,25,20,48,26.137,0.7801,-0.0278,-0.4483,0.4354,-0.4,0,0.6,0.01,0.001,0.001,0
2018,4,25,20,48,26.158,0.78,-0.0277,-0.4484,0.4355,-0.2,-0.1,0.6,0.008,0.003,-0.004,0
2018,4,25,20,48,26.177,0.7799,-0.0278,-0.4483,0.4357,-0.1,0,0.5,0.013,0.002,0,0
2018,4,25,20,48,26.194,0.7799,-0.0276,-0.4483,0.4358,0,-0.1,0.7,0.01,0.001,-0.001,0
2018,4,25,20,48,26.214,0.7798,-0.0276,-0.4482,0.436,0,-0.1,0.6,0.008,0,-0.005,0
2018,4,25,20,48,26.24,0.7797,-0.0274,-0.4482,0.4361,0,-0.1,0.6,0.009,0.003,-0.003,0
2018,4,25,20,48,26.256,0.7796,-0.0273,-0.4482,0.4363,-0.3,0,0.5,0.013,0.002,-0.004,0
2018,4,25,20,48,26.275,0.7796,-0.0274,-0.4481,0.4364,-0.2,0.2,0.5,0.011,0.002,-0.004,1023
2018,4,25,20,48,26.294,0.7795,-0.0273,-0.4482,0.4366,0,0,0,0.012,0.002,-0.003,1023
2018,4,25,20,48,26.315,0.7794,-0.0274,-0.4481,0.4369,0,0,0,0.009,0,-0.004,1023
2018,4,25,20,48,26.336,0.7793,-0.0273,-0.4481,0.4371,0,0,0,0.01,0,-0.004,1023
2018,4,25,20,48,26.373,0.7792,-0.0272,-0.448,0.4373,0.2,-0.1,0.7,0.009,0.005,0.003,1023
2018,4,25,20,48,26.393,0.7791,-0.0272,-0.448,0.4375,-0.1,0.1,0.7,0.011,0,-0.004,1023
2018,4,25,20,48,26.399,0.7791,-0.027,-0.448,0.4376,0,0.2,1,0.009,0.001,-0.002,1023
2018,4,25,20,48,26.418,0.7789,-0.0268,-0.4481,0.4377,0,0.4,0.6,0.007,-0.001,-0.008,1023
2018,4,25,20,48,26.441,0.7789,-0.0268,-0.4481,0.4378,-0.1,0.1,0.7,0.009,0.001,0,1023
2018,4,25,20,48,26.459,0.7788,-0.0267,-0.4481,0.4379,-0.1,-0.1,0.7,0.01,0.001,-0.004,1023
2018,4,25,20,48,26.48,0.7788,-0.0268,-0.448,0.4381,-0.3,-0.1,0.6,0.011,0.002,-0.008,1023
2018,4,25,20,48,26.497,0.7787,-0.0268,-0.4479,0.4384,0,0,0,0.01,0.002,0,1023
2018,4,25,20,48,26.518,0.7786,-0.0267,-0.4479,0.4386,0,0,0,0.011,0.001,-0.004,0
2018,4,25,20,48,26.538,0.7785,-0.0267,-0.4478,0.4388,0,-0.1,0.5,0.01,0.005,0,0
2018,4,25,20,48,26.577,0.7785,-0.0268,-0.4477,0.439,0,0,0.7,0.011,0.002,-0.004,0
2018,4,25,20,48,26.598,0.7784,-0.0265,-0.4478,0.4391,-0.2,0.1,0.7,0.008,0.002,0.003,0
2018,4,25,20,48,26.602,0.7783,-0.0264,-0.4478,0.4392,-0.4,0.1,0.6,0.012,0.003,-0.004,0
2018,4,25,20,48,26.62,0.7782,-0.0265,-0.4478,0.4394,-0.5,0,0.4,0.011,0,-0.009,0
2018,4,25,20,48,26.657,0.7781,-0.0264,-0.4478,0.4395,-0.3,0.1,0.5,0.013,0.002,-0.001,0
2018,4,25,20,48,26.677,0.778,-0.0264,-0.4478,0.4396,-0.4,0.2,0.5,0.009,0,-0.004,0
2018,4,25,20,48,26.681,0.7779,-0.0264,-0.4478,0.4398,-0.4,0.3,0.5,0.007,-0.002,-0.005,0
2018,4,25,20,48,26.72,0.7779,-0.0265,-0.4478,0.4399,-0.2,0.4,0.8,0.012,-0.002,-0.007,0
2018,4,25,20,48,26.724,0.7778,-0.0264,-0.4479,0.44,-0.2,0.2,0.6,0.008,0,-0.001,0
2018,4,25,20,48,26.739,0.7777,-0.0264,-0.4478,0.4401,-0.2,0,0.5,0.012,0,-0.001,0
2018,4,25,20,48,26.757,0.7776,-0.0264,-0.4478,0.4403,-0.1,0,0.5,0.008,0,-0.005,0
2018,4,25,20,48,26.78,0.7775,-0.0262,-0.4479,0.4404,-0.1,-0.2,0.5,0.011,0.001,-0.003,0
2018,4,25,20,48,26.8,0.7775,-0.0262,-0.4479,0.4406,0,0,0,0.008,0.004,-0.002,0
2018,4,25,20,48,26.838,0.7774,-0.0262,-0.4477,0.4408,0,-0.1,0.5,0.011,0.003,-0.007,0
2018,4,25,20,48,26.858,0.7773,-0.0262,-0.4477,0.441,-0.1,-0.1,0.5,0.01,0.001,-0.002,0
2018,4,25,20,48,26.862,0.7772,-0.0261,-0.4477,0.4411,-0.2,0,0.5,0.013,0,-0.001,0
2018,4,25,20,48,26.88,0.7772,-0.0261,-0.4477,0.4413,-0.3,0.1,0.7,0.01,0.002,-0.004,0
2018,4,25,20,48,26.902,0.7771,-0.0261,-0.4477,0.4414,-0.3,0.2,0.5,0.008,0.001,-0.004,0
2018,4,25,20,48,26.92,0.777,-0.026,-0.4477,0.4415,-0.3,0,0.5,0.008,-0.003,-0.001,0
2018,4,25,20,48,26.956,0.7769,-0.0259,-0.4477,0.4416,-0.1,0,0.6,0.011,0,-0.006,0
2018,4,25,20,48,26.976,0.7769,-0.0258,-0.4478,0.4418,-0.1,0,0.5,0.009,0,-0.005,0
2018,4,25,20,48,26.98,0.7768,-0.0258,-0.4477,0.4419,-0.1,-0.1,0.6,0.01,0.002,-0.003,0
2018,4,25,20,48,27.001,0.7768,-0.0258,-0.4476,0.4421,-0.1,-0.1,0.5,0.012,0.004,-0.007,0
2018,4,25,20,48,27.023,0.7767,-0.0256,-0.4477,0.4422,0.1,-0.2,0.7,0.007,0.002,-0.005,1023
2018,4,25,20,48,27.06,0.7766,-0.0255,-0.4477,0.4423,0,0,0,0.01,0.002,0.001,1023
2018,4,25,20,48,27.081,0.7765,-0.0254,-0.4477,0.4425,-0.4,0.3,0.5,0.011,0.004,-0.002,1023
2018,4,25,20,48,27.085,0.7765,-0.0254,-0.4477,0.4426,-0.6,0.1,0.5,0.008,0.001,-0.005,1023
2018,4,25,20,48,27.104,0.7763,-0.0254,-0.4477,0.4428,0,0,0,0.01,0,-0.001,1023
2018,4,25,20,48,27.124,0.7762,-0.0254,-0.4477,0.443,0,0,0,0.011,0,0,1023
2018,4,25,20,48,27.161,0.7761,-0.0253,-0.4476,0.4432,0,0,0,0.011,-0.001,-0.001,1023
2018,4,25,20,48,27.182,0.7761,-0.0253,-0.4475,0.4434,-0.2,0,0.7,0.012,0.002,-0.002,1023
2018,4,25,20,48,27.186,0.776,-0.0254,-0.4475,0.4435,-0.2,0.3,0.8,0.009,0.002,-0.009,1023
2018,4,25,20,48,27.203,0.7759,-0.0252,-0.4476,0.4436,-0.4,0.6,0.7,0.007,0.002,-0.003,1023
2018,4,25,20,48,27.221,0.7759,-0.0253,-0.4476,0.4437,-0.4,0.3,0.7,0.007,0,0,1023
2018,4,25,20,48,27.242,0.7758,-0.0252,-0.4477,0.4438,-0.2,0.2,0.5,0.01,0.001,-0.004,1023
2018,4,25,20,48,27.281,0.7757,-0.0252,-0.4477,0.4439,-0.4,-0.1,0.5,0.01,0.002,-0.002,1023
2018,4,25,20,48,27.301,0.7756,-0.0252,-0.4476,0.4442,0,0,0,0.011,0.004,-0.004,0
2018,4,25,20,48,27.305,0.7755,-0.0251,-0.4476,0.4444,-0.5,-0.3,0.3,0.011,0,0.003,0
2018,4,25,20,48,27.344,0.7754,-0.025,-0.4476,0.4446,0,0,0,0.013,0.002,0,0
2018,4,25,20,48,27.363,0.7754,-0.0251,-0.4475,0.4448,-0.1,0,0.5,0.011,0.001,-0.003,0
2018,4,25,20,48,27.367,0.7753,-0.025,-0.4475,0.4449,-0.2,0.1,0.7,0.007,0.001,-0.002,0
2018,4,25,20,48,27.405,0.7752,-0.0249,-0.4476,0.445,-0.4,0,0.6,0.013,0,0.001,0
2018,4,25,20,48,27.426,0.7751,-0.0249,-0.4475,0.4451,-0.4,0,0.5,0.013,-0.002,-0.001,0
2018,4,25,20,48,27.43,0.775,-0.025,-0.4474,0.4453,-0.2,-0.1,0.5,0.013,-0.001,-0.002,0
2018,4,25,20,48,27.445,0.775,-0.0251,-0.4473,0.4455,-0.2,0.3,0.6,0.01,0.002,-0.004,0
2018,4,25,20,48,27.464,0.7749,-0.0252,-0.4473,0.4456,-0.4,0.1,0.6,0.01,0.002,-0.003,0
2018,4,25,20,48,27.484,0.7748,-0.025,-0.4474,0.4457,-0.4,0.4,0.7,0.012,0.003,-0.002,0
2018,4,25,20,48,27.506,0.7747,-0.0249,-0.4475,0.4458,-0.3,0.3,0.7,0.009,0,-0.003,0
2018,4,25,20,48,27.543,0.7746,-0.0247,-0.4477,0.4459,-0.1,0.3,0.5,0.008,0.004,-0.006,0
2018,4,25,20,48,27.563,0.7745,-0.0245,-0.4477,0.446,-0.2,0,0.6,0.005,0.003,-0.001,0
2018,4,25,20,48,27.567,0.7745,-0.0245,-0.4477,0.4461,-0.1,-0.1,0.5,0.009,0.002,-0.002,0
2018,4,25,20,48,27.604,0.7743,-0.0244,-0.4477,0.4463,-0.2,-0.2,0.5,0.008,-0.001,-0.007,0
2018,4,25,20,48,27.626,0.7743,-0.0245,-0.4476,0.4465,-0.2,-0.1,0.5,0.013,0.001,-0.002,0
2018,4,25,20,48,27.632,0.7743,-0.0245,-0.4475,0.4467,0,0,0,0.013,0.002,-0.001,0
2018,4,25,20,48,27.644,0.7742,-0.0245,-0.4475,0.4468,-0.4,0.5,0.5,0.01,0.001,-0.004,0
2018,4,25,20,48,27.665,0.7741,-0.0244,-0.4477,0.4468,-0.6,0.5,0.7,0.01,0.001,-0.003,0
2018,4,25,20,48,27.685,0.774,-0.0244,-0.4477,0.4469,-0.5,0.6,0.7,0.011,0,-0.004,0
2018,4,25,20,48,27.722,0.7739,-0.0243,-0.4478,0.447,-0.6,0.4,0.6,0.01,0.001,-0.005,0
2018,4,25,20,48,27.743,0.7738,-0.0242,-0.4479,0.4471,-0.5,0.2,0.7,0.008,0.001,-0.004,0
2018,4,25,20,48,27.747,0.7737,-0.0242,-0.448,0.4472,-0.6,0.3,0.6,0.008,0.003,-0.003,1023
2018,4,25,20,48,27.785,0.7735,-0.0241,-0.4481,0.4473,0,0,0,0.01,0,-0.007,1023
2018,4,25,20,48,27.806,0.7735,-0.0242,-0.4481,0.4475,-0.5,0.1,0.5,0.011,0,-0.001,1023
2018,4,25,20,48,27.81,0.7734,-0.0241,-0.4481,0.4476,-0.4,0,0.5,0.007,-0.004,-0.006,1023
2018,4,25,20,48,27.827,0.7733,-0.024,-0.4482,0.4477,-0.4,0.1,0.7,0.01,0.003,-0.003,1023
2018,4,25,20,48,27.866,0.7732,-0.024,-0.4483,0.4477,-0.7,0.8,0.7,0.014,0.005,0,1023
2018,4,25,20,48,27.886,0.7731,-0.0239,-0.4484,0.4478,-1,0.6,0.6,0.009,-0.001,-0.003,1023
2018,4,25,20,48,27.89,0.7729,-0.0238,-0.4486,0.4478,-0.9,0.6,0.5,0.01,0.002,-0.003,1023
2018,4,25,20,48,27.91,0.7728,-0.0237,-0.4488,0.4479,-0.7,0.4,0.6,0.008,-0.002,-0.005,1023
2018,4,25,20,48,27.926,0.7727,-0.0237,-0.4488,0.448,-0.3,0.1,0.6,0.009,0,-0.01,1023
2018,4,25,20,48,27.947,0.7727,-0.0237,-0.4488,0.4481,-0.3,0.3,0.8,0.015,0.002,-0.001,1023
2018,4,25,20,48,27.969,0.7726,-0.0236,-0.4489,0.4482,-0.3,0.8,0.9,0.012,0.002,-0.002,1023
2018,4,25,20,48,27.987,0.7725,-0.0236,-0.449,0.4483,-0.6,0.9,0.9,0.01,0.003,-0.003,1023
2018,4,25,20,48,28.008,0.7723,-0.0235,-0.4492,0.4483,-0.6,1,0.8,0.007,0,-0.001,1023
2018,4,25,20,48,28.031,0.7722,-0.0234,-0.4493,0.4484,-0.4,0.6,0.6,0.007,0.002,-0.007,1023
2018,4,25,20,48,28.051,0.7721,-0.0233,-0.4494,0.4485,-0.5,0.4,0.5,0.006,0.001,-0.005,1023
2018,4,25,20,48,28.07,0.7721,-0.0233,-0.4494,0.4486,-0.1,0.1,0.6,0.009,0,-0.003,1023
2018,4,25,20,48,28.091,0.7721,-0.0236,-0.4492,0.4488,-0.2,0,0.5,0.013,0,-0.003,1023
2018,4,25,20,48,28.127,0.772,-0.0236,-0.4492,0.4489,-0.2,-0.1,0.5,0.015,0,-0.002,1023
2018,4,25,20,48,28.147,0.772,-0.0237,-0.449,0.4491,-0.1,0.2,0.5,0.014,0.002,-0.005,1023
2018,4,25,20,48,28.151,0.7719,-0.0236,-0.4491,0.4491,-0.4,0.6,0.7,0.009,0.002,-0.003,1023
2018,4,25,20,48,28.191,0.7718,-0.0236,-0.4492,0.4492,-0.6,0.6,0.5,0.009,0.001,-0.004,0
2018,4,25,20,48,28.212,0.7717,-0.0236,-0.4493,0.4493,-0.7,0.6,0.6,0.011,0.002,-0.004,0
2018,4,25,20,48,28.216,0.7716,-0.0236,-0.4494,0.4494,-0.6,0.8,0.6,0.013,0.001,-0.002,0
2018,4,25,20,48,28.232,0.7715,-0.0237,-0.4494,0.4495,-0.9,1,0.6,0.014,0.006,-0.002,0
2018,4,25,20,48,28.249,0.7714,-0.0236,-0.4497,0.4495,-1.1,1.2,0.7,0.01,0.003,-0.004,0
2018,4,25,20,48,28.288,0.7712,-0.0237,-0.4499,0.4495,-1.3,1.1,0.6,0.01,0.002,-0.007,0
2018,4,25,20,48,28.308,0.7711,-0.0236,-0.4501,0.4496,-1.4,0.8,0.4,0.009,0.001,-0.002,0
2018,4,25,20,48,28.312,0.7709,-0.0236,-0.4504,0.4496,-0.9,0.6,0.4,0.008,-0.002,-0.003,1023
2018,4,25,20,48,28.331,0.7708,-0.0235,-0.4505,0.4497,-0.7,0.4,0.5,0.009,-0.001,-0.001,1023
2018,4,25,20,48,28.353,0.7707,-0.0235,-0.4506,0.4498,-0.5,0.4,0.5,0.006,0.003,0,0
2018,4,25,20,48,28.373,0.7706,-0.0234,-0.4507,0.4499,-0.4,0.3,0.5,0.009,0,-0.003,0
2018,4,25,20,48,28.396,0.7705,-0.0234,-0.4507,0.45,-0.4,0.3,0.6,0.009,0,-0.003,0
2018,4,25,20,48,28.414,0.7704,-0.0235,-0.4506,0.4502,-0.1,0.1,0.6,0.012,-0.002,0,0
2018,4,25,20,48,28.454,0.7703,-0.0234,-0.4507,0.4503,-0.6,0.1,0.5,0.008,-0.002,-0.002,0
2018,4,25,20,48,28.473,0.7703,-0.0234,-0.4507,0.4504,-0.2,0.1,0.5,0.009,0.001,-0.006,0
2018,4,25,20,48,28.477,0.7702,-0.0234,-0.4507,0.4505,-0.4,0.2,0.6,0.011,0,-0.005,0
2018,4,25,20,48,28.493,0.7701,-0.0232,-0.4508,0.4506,-0.4,0.6,0.6,0.011,0.002,-0.004,0
2018,4,25,20,48,28.529,0.77,-0.0232,-0.4509,0.4506,-0.7,0.4,0.6,0.013,0,-0.001,0
2018,4,25,20,48,28.549,0.7699,-0.0232,-0.451,0.4507,-0.6,0.4,0.7,0.01,0,0,0
2018,4,25,20,48,28.553,0.7698,-0.023,-0.4511,0.4508,-0.3,0.3,0.7,0.007,0,0,0
2018,4,25,20,48,28.572,0.7698,-0.0231,-0.4511,0.4509,-0.1,0.1,0.5,0.007,-0.001,-0.002,0
2018,4,25,20,48,28.592,0.7697,-0.023,-0.4511,0.451,-0.2,0.2,0.6,0.007,0.003,-0.004,0
2018,4,25,20,48,28.631,0.7696,-0.023,-0.4511,0.4511,-0.8,0.3,0.3,0.011,0.005,0.001,0
2018,4,25,20,48,28.652,0.7695,-0.0229,-0.4513,0.4511,-0.9,0.4,0.3,0.011,0.002,-0.006,0
2018,4,25,20,48,28.656,0.7694,-0.0229,-0.4514,0.4512,-0.9,0,0.2,0.009,-0.004,-0.006,0
2018,4,25,20,48,28.677,0.7692,-0.023,-0.4514,0.4514,0,-0.1,0.5,0.009,-0.003,-0.007,0
2018,4,25,20,48,28.696,0.7692,-0.0229,-0.4514,0.4516,0.1,-0.1,0.5,0.013,0.002,-0.004,0
2018,4,25,20,48,28.714,0.7691,-0.0229,-0.4513,0.4518,-0.1,0,0.7,0.015,0.004,0,0
2018,4,25,20,48,28.752,0.769,-0.0227,-0.4514,0.4519,-0.2,0.4,0.8,0.009,0.002,-0.003,0
2018,4,25,20,48,28.756,0.7689,-0.0226,-0.4515,0.4519,-0.4,0.3,0.7,0.008,0,-0.003,0
2018,4,25,20,48,28.775,0.7688,-0.0224,-0.4517,0.452,0,0.3,0.8,0.008,0,-0.007,0
2018,4,25,20,48,28.812,0.7687,-0.0223,-0.4517,0.4521,-0.1,-0.1,0.5,0.005,0,-0.006,0
2018,4,25,20,48,28.832,0.7686,-0.0223,-0.4516,0.4523,0,0,0,0.012,0.001,0,0
2018,4,25,20,48,28.836,0.7686,-0.0223,-0.4516,0.4525,-0.1,-0.7,0.3,0.009,0,-0.001,1023
2018,4,25,20,48,28.875,0.7685,-0.0222,-0.4515,0.4526,-0.1,-0.6,0.2,0.013,0.001,0,1023
2018,4,25,20,48,28.894,0.7684,-0.0221,-0.4515,0.4528,0,0,0,0.013,0.006,-0.002,1023
2018,4,25,20,48,28.899,0.7683,-0.022,-0.4515,0.453,-0.5,-0.4,0.4,0.009,0.002,-0.007,1023
2018,4,25,20,48,28.917,0.7683,-0.0222,-0.4514,0.4532,0,0,0,0.008,-0.005,-0.004,1023
2018,4,25,20,48,28.939,0.7681,-0.022,-0.4515,0.4533,0,0,0,0.011,0,-0.005,1023
2018,4,25,20,48,28.957,0.768,-0.022,-0.4514,0.4535,-0.6,-0.1,0.3,0.013,0,-0.004,1023
2018,4,25,20,48,28.976,0.768,-0.0221,-0.4514,0.4536,-0.7,0.1,0.4,0.011,0.001,0,1023
2018,4,25,20,48,29.015,0.7679,-0.022,-0.4515,0.4537,-0.6,0.2,0.4,0.011,0,-0.005,1023
2018,4,25,20,48,29.035,0.7678,-0.0221,-0.4515,0.4539,-0.3,0.3,0.5,0.008,0.001,-0.002,1023
2018,4,25,20,48,29.039,0.7677,-0.0223,-0.4514,0.454,-0.5,0,0.3,0.008,0,-0.006,1023
2018,4,25,20,48,29.057,0.7676,-0.0221,-0.4515,0.4542,0,0,0,0.011,0.003,-0.005,1023
2018,4,25,20,48,29.079,0.7675,-0.0221,-0.4514,0.4544,0,0,0,0.008,0.002,-0.001,1023
2018,4,25,20,48,29.098,0.7674,-0.0221,-0.4514,0.4546,0,0,0,0.01,0,-0.003,1023
2018,4,25,20,48,29.12,0.7673,-0.0221,-0.4513,0.4548,0,0,0,0.012,0.001,-0.008,1023
2018,4,25,20,48,29.159,0.7673,-0.0221,-0.4511,0.455,0.4,0,0.7,0.016,0.002,0.002,1023
2018,4,25,20,48,29.179,0.7673,-0.0221,-0.451,0.4551,-0.1,0.8,0.7,0.019,0.007,0,1023
2018,4,25,20,48,29.183,0.7673,-0.0222,-0.451,0.4553,-0.8,2.8,0.7,0.024,0.014,0.001,1023
2018,4,25,20,48,29.201,0.767,-0.022,-0.4515,0.4553,-3.1,5.8,0,0.03,0.008,0.016,0
2018,4,25,20,48,29.24,0.7662,-0.0221,-0.4526,0.4555,-4.8,9,-2.9,0.022,-0.003,0.009,0
2018,4,25,20,48,29.26,0.7649,-0.0223,-0.4542,0.4561,-6.8,12.3,-7.5,0.021,-0.001,0.014,0
2018,4,25,20,48,29.264,0.7626,-0.0232,-0.4565,0.4576,-0.6,15.7,-17.4,-0.005,-0.099,-0.016,1023
2018,4,25,20,48,29.279,0.7587,-0.0235,-0.4581,0.4625,16.6,19,-34.9,-0.024,-0.094,0.048,1023
2018,4,25,20,48,29.315,0.7541,-0.0235,-0.4579,0.47,15.6,9.8,-47.5,-0.012,-0.045,0.212,1023
2018,4,25,20,48,29.336,0.7489,-0.0268,-0.4597,0.4764,-33.5,18.8,-55.8,-0.04,0.072,0.307,1023
2018,4,25,20,48,29.34,0.7413,-0.0382,-0.4682,0.4792,-82.6,31.4,-67.3,-0.139,0.093,0.359,1023
2018,4,25,20,48,29.38,0.7314,-0.0494,-0.4782,0.4835,-38.8,43.3,-83.6,-0.274,-0.084,0.566,1023
2018,4,25,20,48,29.398,0.7195,-0.0528,-0.4827,0.4963,51.3,42.5,-102.2,0.06,0.149,0.459,1023
2018,4,25,20,48,29.402,0.7056,-0.0468,-0.4801,0.5189,95,58.9,-129.4,0.157,0.513,0.223,1023
2018,4,25,20,48,29.423,0.6878,-0.0447,-0.4827,0.5402,10.4,77.4,-135,0.258,0.723,0.043,1023
2018,4,25,20,48,29.442,0.6663,-0.0504,-0.4961,0.5542,-60,114.4,-136.2,0.46,0.571,-0.165,0
2018,4,25,20,48,29.478,0.6399,-0.0571,-0.5176,0.565,-73.5,154.5,-140.8,0.523,0.531,-0.162,0
2018,4,25,20,48,29.5,0.6087,-0.0603,-0.5404,0.5776,-34,176.8,-159,0.576,0.374,0.111,0
2018,4,25,20,48,29.504,0.5372,-0.054,-0.5651,0.6236,74.2,151.2,-198.6,0.326,0.717,0.378,0
2018,4,25,20,48,29.52,0.504,-0.0507,-0.5646,0.6516,116.8,105.1,-183.4,0.182,0.649,0.11,0
2018,4,25,20,48,29.559,0.477,-0.0452,-0.5534,0.6812,162.4,62.5,-162.4,0.102,0.715,-0.035,0
2018,4,25,20,48,29.577,0.4569,-0.0434,-0.536,0.7085,143.3,11.3,-134.7,0.236,0.949,-0.274,0
2018,4,25,20,48,29.581,0.4462,-0.0428,-0.5181,0.7284,109.8,-12.9,-65.7,0.504,1.58,-0.734,0
2018,4,25,20,48,29.619,0.4451,-0.0414,-0.5072,0.7367,49.8,-14.1,18.4,0.41,1.859,-0.917,0
2018,4,25,20,48,29.641,0.4557,-0.0342,-0.4976,0.7371,85,-32.5,98.8,0.164,1.693,-0.665,0
2018,4,25,20,48,29.645,0.4793,-0.0145,-0.4781,0.7358,179.1,-13.9,213.5,-0.035,1.756,-1.551,0
2018,4,25,20,48,29.662,0.5096,0.0254,-0.4601,0.7265,113.9,88.1,288.2,0.129,0.889,-1.819,0
2018,4,25,20,48,29.681,0.5343,0.0667,-0.4671,0.7012,-55.8,158.7,276,0.17,-0.246,-1.394,0
2018,4,25,20,48,29.701,0.5542,0.1007,-0.4879,0.6667,-61.6,152,259.5,-0.008,-1.187,-0.633,0
2018,4,25,20,48,29.74,0.57,0.1295,-0.4988,0.6399,-20.8,69,179.8,-0.558,-2.52,0.234,0
2018,4,25,20,48,29.744,0.5817,0.14,-0.503,0.6235,-88.1,5.1,64,-0.568,-3.228,0.255,0
2018,4,25,20,48,29.763,0.5864,0.1195,-0.5229,0.6068,-261.6,-0.5,-65.8,0.061,-2.589,-0.579,0
2018,4,25,20,48,29.781,0.5758,0.0801,-0.5565,0.5934,-249.6,32,-174.6,1.1,-1.064,-0.14,0
2018,4,25,20,48,29.801,0.5525,0.0515,-0.5781,0.5981,-46.9,75.8,-223,1.235,-1.646,-1.152,0
2018,4,25,20,48,29.821,0.5183,0.0307,-0.5538,0.6508,249.1,-163.2,-516.5,-9.607,-7.68,7.431,0
2018,4,25,20,48,29.842,0.4752,-0.041,-0.5339,0.6981,-248.1,-219.7,-548.8,3.222,3.449,-0.712,0
2018,4,25,20,48,29.88,0.4229,-0.147,-0.5576,0.6989,-343.5,-193.4,-479.9,0.696,-0.391,1.17,0
2018,4,25,20,48,29.901,0.3702,-0.2333,-0.5838,0.6838,-625,-129.8,-414.9,-5.951,-5.036,1.35,0
2018,4,25,20,48,29.906,0.347,-0.3223,-0.6126,0.6327,-255.2,-257.5,-170.9,0.073,2.296,-1.427,0
2018,4,25,20,48,29.927,0.3277,-0.3722,-0.6363,0.5908,-442.7,-124.8,-89.1,-0.694,0.719,-0.32,0
2018,4,25,20,48,29.947,0.3022,-0.4161,-0.6725,0.5321,-512.7,-106.5,-18.5,-0.946,-0.55,-1.451,0
2018,4,25,20,48,29.964,0.2715,-0.46,-0.7123,0.4552,-634.9,-125.7,-59.1,0.636,2.164,-2.69,0
2018,4,25,20,48,30.002,0.215,-0.5037,-0.7561,0.3581,-793.7,-23.6,-40.8,0.734,0.582,-2.886,1023
2018,4,25,20,48,30.006,0.1384,-0.5352,-0.794,0.2528,-775,31.4,-71.6,1.314,-3.266,-0.592,1023
2018,4,25,20,48,30.023,0.059,-0.5605,-0.8095,0.1641,-567.9,74.2,-136.3,0.976,-4.307,1.851,1023
2018,4,25,20,48,30.063,0.015,-0.5835,-0.8026,0.1222,-159.8,36.5,-168.2,0.194,-3.145,2.125,1023
2018,4,25,20,48,30.082,-0.0029,-0.6066,-0.7869,0.1125,-79.3,44.7,-169.2,-0.312,-0.611,0.373,1023
2018,4,25,20,48,30.086,-0.034,-0.6267,-0.7714,0.1042,-201,130.7,-150.5,0.147,1.412,-1.132,1023
2018,4,25,20,48,30.123,-0.0755,-0.6421,-0.7569,0.095,-162.1,154.3,-156.1,-0.403,1.107,-0.237,1023
2018,4,25,20,48,30.143,-0.1128,-0.6603,-0.7366,0.0924,-73.4,149.7,-186,-0.128,-0.247,0.481,1023
2018,4,25,20,48,30.147,-0.1319,-0.6806,-0.7133,0.1023,30.8,94.9,-160.1,0.135,-0.394,0.947,1023
2018,4,25,20,48,30.167,-0.1392,-0.6965,-0.6947,0.1129,24.3,68.9,-105.7,-0.544,-0.128,0.849,1023
2018,4,25,20,48,30.188,-0.1532,-0.7026,-0.6855,0.113,-122.9,40.8,-47.5,-0.481,0.09,0.874,1023
2018,4,25,20,48,30.227,-0.1778,-0.702,-0.6835,0.0913,-204,-21.6,-38.7,-0.261,-0.199,0.554,1023
2018,4,25,20,48,30.246,-0.1839,-0.704,-0.6825,0.0686,-17.2,-93.6,-39.9,-0.228,-0.429,-0.038,1023
2018,4,25,20,48,30.25,-0.1415,-0.7212,-0.6752,0.0605,105.8,-98.1,-41.6,-0.081,0.309,-0.013,0
2018,4,25,20,48,30.265,-0.1194,-0.7289,-0.6716,0.0574,61.7,-98.7,-39.4,-0.009,0.279,0.107,0
2018,4,25,20,48,30.304,-0.1051,-0.7354,-0.6677,0.0467,-10.2,-98.9,-49.3,0.062,0.205,0.151,0
2018,4,25,20,48,30.323,-0.1009,-0.7417,-0.6625,0.0272,-92,-93.8,-63.1,0.036,0.382,0.133,0
2018,4,25,20,48,30.327,-0.1075,-0.7476,-0.6553,-0.001,-151.4,-92.1,-76,-0.081,0.516,0.02,0
2018,4,25,20,48,30.348,-0.1129,-0.7542,-0.6461,-0.0287,-77.3,-92.3,-85.8,-0.141,0.221,-0.114,0
2018,4,25,20,48,30.368,-0.1047,-0.7631,-0.6361,-0.0446,29.1,-89.1,-89.7,-0.159,0.242,-0.137,0
2018,4,25,20,48,30.403,-0.0855,-0.7731,-0.6263,-0.0507,87,-86.6,-85.3,-0.213,0.352,-0.072,0
2018,4,25,20,48,30.423,-0.063,-0.7823,-0.6173,-0.0535,89.3,-85.6,-76.3,-0.258,0.441,-0.046,0
2018,4,25,20,48,30.43,-0.0424,-0.7897,-0.6091,-0.0575,66.7,-86.8,-64.6,-0.308,0.512,-0.037,0
2018,4,25,20,48,30.468,-0.0185,-0.7954,-0.6027,-0.0592,262.2,-90.7,-52.7,-0.824,1.293,-0.823,0
2018,4,25,20,48,30.472,0.0069,-0.7975,-0.6013,-0.0481,41.4,21,-4.2,0.26,0.133,-0.486,0
2018,4,25,20,48,30.489,0.0056,-0.7965,-0.603,-0.0415,11.8,29.1,29.4,-0.228,0.929,0.081,0
2018,4,25,20,48,30.506,0.0012,-0.7918,-0.6094,-0.0398,-27.5,18.4,59.3,-0.373,0.17,0.199,0
2018,4,25,20,48,30.546,-0.0024,-0.7847,-0.6185,-0.0396,4.6,7.2,72.2,-0.138,0.049,0.142,0
2018,4,25,20,48,30.565,-0.0006,-0.7763,-0.6291,-0.0375,30.2,-1.2,80.8,-0.059,0.041,0.066,0
2018,4,25,20,48,30.568,0.0026,-0.7671,-0.6404,-0.035,23.3,-5.2,82.2,0.008,0.006,0.024,0
2018,4,25,20,48,30.606,0.0045,-0.758,-0.6512,-0.0332,11.5,-4.4,78.2,0.028,-0.044,0.002,0
2018,4,25,20,48,30.627,0.0056,-0.7495,-0.6611,-0.0317,8.4,-3.8,70.9,0.053,-0.069,0,0
2018,4,25,20,48,30.631,0.0069,-0.7418,-0.6698,-0.0297,13.9,-3,61,0.06,-0.102,-0.018,0
2018,4,25,20,48,30.651,0.0095,-0.7352,-0.6771,-0.0264,24.5,-1.8,51.1,0.061,-0.095,-0.02,0
2018,4,25,20,48,30.671,0.0125,-0.7296,-0.6832,-0.0223,25.1,-0.2,43.6,0.047,-0.046,-0.01,0
2018,4,25,20,48,30.687,0.0147,-0.7248,-0.6884,-0.019,16,0.1,38.6,0.027,-0.038,-0.001,1023
2018,4,25,20,48,30.71,0.0158,-0.7205,-0.693,-0.0168,7.8,0,35.3,0.022,-0.067,-0.008,1023
2018,4,25,20,48,30.729,0.0169,-0.7164,-0.6972,-0.0151,8.6,-1.2,32.2,0.011,-0.106,-0.012,1023
2018,4,25,20,48,30.768,0.0188,-0.7129,-0.7008,-0.0127,13.4,-1.8,28.3,-0.004,-0.111,-0.008,1023
2018,4,25,20,48,30.789,0.0211,-0.7098,-0.7039,-0.0104,11.5,-2.3,23.3,-0.008,-0.094,-0.005,1023
2018,4,25,20,48,30.793,0.0229,-0.7073,-0.7064,-0.0088,8.1,-2.4,18.5,0,-0.096,-0.014,1023
2018,4,25,20,48,30.829,0.0243,-0.7052,-0.7084,-0.0076,3.1,-2,13.5,-0.005,-0.053,-0.013,1023
2018,4,25,20,48,30.848,0.0239,-0.7039,-0.7098,-0.008,-13.5,-1.1,8.7,0.003,-0.009,-0.006,1023
2018,4,25,20,48,30.853,0.0208,-0.7028,-0.7109,-0.0109,-34.3,0.6,5.7,0.013,-0.001,0.007,1023
2018,4,25,20,48,30.872,0.0148,-0.7024,-0.7113,-0.0159,-52.6,1.8,3.8,0.009,0.006,0.009,1023
2018,4,25,20,48,30.91,0.0069,-0.7021,-0.7116,-0.0229,-63.7,1.7,2.9,0.004,0.023,-0.005,1023
2018,4,25,20,48,30.929,-0.0016,-0.702,-0.7115,-0.0305,-64.6,2,2.1,-0.002,0.031,-0.007,1023
2018,4,25,20,48,30.934,-0.0102,-0.7017,-0.7113,-0.0381,-61.2,2.4,1.7,0,0.048,-0.016,1023
2018,4,25,20,48,30.952,-0.0181,-0.7013,-0.7111,-0.045,-52.9,2.6,1.6,0,0.056,-0.014,0
2018,4,25,20,48,30.972,-0.0249,-0.7009,-0.7109,-0.0507,-42.7,3,1.2,0,0.068,-0.002,0
2018,4,25,20,48,30.989,-0.0304,-0.7006,-0.7107,-0.0552,-30.9,2.5,1.3,0.003,0.064,0.009,0
2018,4,25,20,48,31.029,-0.0343,-0.7005,-0.7104,-0.0578,-16.5,1.5,0.8,0.006,0.052,0.016,0
2018,4,25,20,48,31.049,-0.036,-0.7002,-0.7105,-0.0589,-0.7,0.5,0.2,0.007,0.042,0.01,0
2018,4,25,20,48,31.053,-0.0357,-0.7001,-0.7107,-0.0582,10.8,-0.1,-0.1,0.008,0.034,0.003,0
2018,4,25,20,48,31.073,-0.0344,-0.7001,-0.7109,-0.0566,15.7,-0.5,-0.6,0.007,0.031,-0.002,0
2018,4,25,20,48,31.093,-0.0327,-0.7002,-0.711,-0.0547,15.4,-0.9,-0.8,0.004,0.026,-0.001,0
2018,4,25,20,48,31.131,-0.0313,-0.7004,-0.711,-0.0529,12.5,-0.7,-1.3,0.005,0.024,-0.012,0
2018,4,25,20,48,31.151,-0.0304,-0.7007,-0.7108,-0.0515,8.1,-0.2,-1.5,0.005,0.026,-0.007,0
2018,4,25,20,48,31.155,-0.0301,-0.701,-0.7106,-0.0507,4.1,0.1,-1.8,0.005,0.024,-0.007,0
2018,4,25,20,48,31.174,-0.0301,-0.7012,-0.7104,-0.0502,2.6,0.3,-1.7,0.001,0.028,-0.004,0
2018,4,25,20,48,31.194,-0.0304,-0.7016,-0.7101,-0.0495,2.6,0.1,-1,0.007,0.028,0.002,0
2018,4,25,20,48,31.212,-0.0303,-0.7016,-0.7102,-0.0491,3.2,0,-1,0.004,0.027,0.001,0
2018,4,25,20,48,31.232,-0.0301,-0.7016,-0.7102,-0.0487,4.5,0.1,-1.3,0.003,0.022,-0.002,0
2018,4,25,20,48,31.252,-0.0298,-0.7017,-0.7101,-0.0481,5,0.2,-1.6,0.004,0.019,-0.001,0
2018,4,25,20,48,31.278,-0.0294,-0.7018,-0.7101,-0.0475,4.3,0,-1.6,0.002,0.019,-0.007,0
2018,4,25,20,48,31.296,-0.0292,-0.7018,-0.7101,-0.0472,1.9,0.3,-0.8,-0.003,0.017,-0.006,0
2018,4,25,20,48,31.311,-0.0297,-0.702,-0.7099,-0.0469,-1.8,0.6,-0.2,0.001,0.02,-0.004,0
2018,4,25,20,48,31.352,-0.0306,-0.702,-0.7098,-0.0473,-6,0.9,0,-0.001,0.016,-0.009,0
2018,4,25,20,48,31.372,-0.0318,-0.7017,-0.71,-0.0483,-10.6,1.4,0,0.002,0.017,-0.013,0
2018,4,25,20,48,31.376,-0.0338,-0.7016,-0.7099,-0.0496,-14.1,1.3,-0.5,0.007,0.017,-0.002,0
2018,4,25,20,48,31.396,-0.0362,-0.7018,-0.7096,-0.0511,-14.8,1.4,-1.5,0.001,0.018,0,0
2018,4,25,20,48,31.416,-0.0402,-0.7022,-0.7087,-0.0539,-10.1,1.5,-3.2,-0.001,0.021,-0.001,0
2018,4,25,20,48,31.434,-0.0416,-0.7024,-0.7083,-0.0548,-6,1.5,-3.2,0.001,0.032,0,1023
2018,4,25,20,48,31.454,-0.0433,-0.7029,-0.7077,-0.0553,-0.7,0.9,-1,0,0.007,-0.004,1023
2018,4,25,20,48,31.493,-0.0438,-0.703,-0.7076,-0.0553,-1.6,0.6,0,0,0.022,0,1023
2018,4,25,20,48,31.512,-0.0445,-0.7027,-0.7078,-0.0557,-5.2,0.9,1.1,-0.003,0.012,-0.007,1023
2018,4,25,20,48,31.516,-0.0456,-0.7023,-0.7081,-0.0565,-8.9,0.4,3,0.003,0.022,-0.005,1023
2018,4,25,20,48,31.553,-0.0473,-0.7016,-0.7085,-0.0578,-12.7,-0.3,5.7,0.005,0.019,-0.005,1023
2018,4,25,20,48,31.575,-0.0495,-0.701,-0.7089,-0.0592,-13.2,-0.9,7.4,0.006,0.016,-0.003,1023
2018,4,25,20,48,31.58,-0.0512,-0.6999,-0.7097,-0.0608,-10.7,-1.5,7.1,0.006,0.017,0,1023
2018,4,25,20,48,31.598,-0.0523,-0.6989,-0.7105,-0.0619,-4.9,-1.6,4.7,0.009,0.024,0,1023
2018,4,25,20,48,31.636,-0.0526,-0.6986,-0.7107,-0.062,3.7,-1.5,1.8,0.005,0.024,0.002,1023
2018,4,25,20,48,31.657,-0.0517,-0.6986,-0.7109,-0.061,13.5,-1.3,0.1,0.001,0.023,0.003,1023
2018,4,25,20,48,31.661,-0.0495,-0.6987,-0.7111,-0.059,21.6,-1.5,-0.3,0,0.021,0.003,1023
2018,4,25,20,48,31.678,-0.0468,-0.6991,-0.7112,-0.0562,23.6,-1.2,0,0,0.012,-0.01,0
2018,4,25,20,48,31.693,-0.044,-0.6992,-0.7115,-0.0536,20.4,-1.2,0.7,-0.001,0.014,-0.012,0
2018,4,25,20,48,31.733,-0.0418,-0.6988,-0.7121,-0.0517,13.2,-0.7,1.5,0.001,0.005,-0.009,0
2018,4,25,20,48,31.752,-0.0408,-0.6986,-0.7125,-0.0506,4.5,-0.4,1.9,-0.001,0,-0.007,0
2018,4,25,20,48,31.756,-0.0409,-0.6984,-0.7126,-0.0504,-3.1,0,1.3,0.001,0,-0.01,0
2018,4,25,20,48,31.779,-0.0418,-0.6984,-0.7125,-0.0509,-7.4,0.1,0.7,0,0.01,-0.008,0
2018,4,25,20,48,31.798,-0.043,-0.6982,-0.7126,-0.0519,-8.2,0,0.5,0.002,0.016,-0.006,0
2018,4,25,20,48,31.835,-0.044,-0.698,-0.7127,-0.0529,-5.5,0,0.6,0.002,0.016,-0.005,0
2018,4,25,20,48,31.857,-0.0446,-0.6978,-0.7128,-0.0533,-1.3,-0.1,0.9,0.001,0.016,0,0
2018,4,25,20,48,31.862,-0.0446,-0.6975,-0.7131,-0.0533,2.1,-0.1,1.1,0,0.011,-0.005,0
2018,4,25,20,48,31.879,-0.0443,-0.6974,-0.7133,-0.053,3.3,0,0.8,0.002,0.009,-0.005,0
2018,4,25,20,48,31.899,-0.0442,-0.6974,-0.7133,-0.0525,2.6,0.1,0.3,0,0.008,-0.002,0
2018,4,25,20,48,31.915,-0.0442,-0.6974,-0.7133,-0.0522,0,0,0,0.002,0.01,-0.004,0
2018,4,25,20,48,31.948,-0.0444,-0.6973,-0.7134,-0.0522,-1,0.4,0.1,0,0.008,-0.009,0
2018,4,25,20,48,31.969,-0.0447,-0.6972,-0.7135,-0.0524,-2.3,0.3,0.3,0,0.006,-0.01,0
2018,4,25,20,48,31.974,-0.0453,-0.6972,-0.7134,-0.0526,-3.1,0.1,0.5,0,0.007,-0.004,0
2018,4,25,20,48,32.011,-0.046,-0.6972,-0.7133,-0.0528,-3.2,0.2,0.5,0,0.007,-0.001,0
2018,4,25,20,48,32.03,-0.0466,-0.6973,-0.7132,-0.053,-2.9,0.3,0.7,0.002,0.009,-0.003,0
2018,4,25,20,48,32.036,-0.047,-0.697,-0.7134,-0.0534,-2.6,0.1,0.5,0,0.011,-0.001,0
2018,4,25,20,48,32.072,-0.0474,-0.6968,-0.7136,-0.0538,-2.1,0.2,0.3,-0.001,0.004,-0.006,0
2018,4,25,20,48,32.092,-0.0478,-0.6968,-0.7135,-0.0539,-2.3,0.4,0,0,0.008,-0.007,0
2018,4,25,20,48,32.101,-0.0482,-0.6968,-0.7135,-0.0541,-2,0.4,-0.3,0.001,0.006,-0.003,0
2018,4,25,20,48,32.116,-0.0488,-0.6971,-0.7132,-0.0541,-1.6,0.5,-0.2,0,0.006,-0.003,0
2018,4,25,20,48,32.154,-0.0492,-0.6972,-0.7131,-0.0542,-0.7,0.3,-0.2,0,0.009,-0.004,0
2018,4,25,20,48,32.172,-0.0495,-0.6973,-0.7129,-0.0541,0,0,0,0,0.008,-0.003,1023
2018,4,25,20,48,32.177,-0.0496,-0.6974,-0.7128,-0.0539,1.2,0.3,0,0.001,0.007,-0.005,1023
2018,4,25,20,48,32.21,-0.0495,-0.6974,-0.7128,-0.0536,2.3,-0.1,0.1,0,0.002,-0.004,1023
2018,4,25,20,48,32.231,-0.0494,-0.6976,-0.7127,-0.0532,2.2,-0.1,0,0,0.009,-0.006,1023
2018,4,25,20,48,32.238,-0.0492,-0.6975,-0.7129,-0.0531,1,0,0.3,0,0.004,-0.005,1023
2018,4,25,20,48,32.272,-0.0493,-0.6974,-0.7129,-0.053,0.1,0,0.6,0.001,0.003,-0.002,1023
2018,4,25,20,48,32.293,-0.0494,-0.6974,-0.7129,-0.0529,0,0,0,0,0.008,0,1023
2018,4,25,20,48,32.302,-0.0495,-0.6974,-0.7129,-0.0529,0,0,0,0,0.006,-0.005,1023
2018,4,25,20,48,32.319,-0.0496,-0.6974,-0.7129,-0.0529,0,0,0,0,0.009,-0.005,1023
2018,4,25,20,48,32.36,-0.0496,-0.6974,-0.7129,-0.0528,0.6,-0.1,0.4,0.001,0.004,-0.004,1023
2018,4,25,20,48,32.382,-0.0497,-0.6974,-0.7129,-0.0526,0.3,0,0.6,0,0.001,-0.008,1023
2018,4,25,20,48,32.386,-0.0497,-0.6972,-0.7131,-0.0528,-0.7,0,0.6,-0.003,0.003,-0.009,1023
2018,4,25,20,48,32.406,-0.05,-0.6972,-0.713,-0.0527,-1.6,0,0.7,0.002,0.004,-0.002,0
2018,4,25,20,48,32.426,-0.0503,-0.6971,-0.7131,-0.0529,-1.8,0.1,0.5,-0.003,0.006,-0.004,0
2018,4,25,20,48,32.442,-0.0505,-0.697,-0.7132,-0.0532,-1.8,0.3,0.3,0,0.003,-0.006,0
2018,4,25,20,48,32.46,-0.0509,-0.6969,-0.7132,-0.0533,-1.3,0.2,0.3,-0.001,0.005,-0.004,0
2018,4,25,20,48,32.48,-0.0511,-0.6968,-0.7133,-0.0535,-1.1,0.2,0.3,-0.001,0.002,-0.005,0
2018,4,25,20,48,32.518,-0.0513,-0.6967,-0.7134,-0.0536,-1.4,0.3,0.2,0,0.003,-0.002,0
2018,4,25,20,48,32.539,-0.0517,-0.6968,-0.7133,-0.0536,-1.5,0.1,0.2,0,0.004,-0.002,0
2018,4,25,20,48,32.544,-0.0519,-0.6967,-0.7134,-0.0538,-1.2,0.3,0.3,0,0.007,-0.002,0
2018,4,25,20,48,32.579,-0.052,-0.6965,-0.7135,-0.054,-0.7,0,0.4,-0.001,0.005,-0.007,0
2018,4,25,20,48,32.599,-0.052,-0.6963,-0.7137,-0.0541,0,0,0,0,0.004,-0.005,0
2018,4,25,20,48,32.601,-0.0521,-0.6962,-0.7138,-0.0541,-0.2,0,0.5,-0.001,0.001,-0.009,0
2018,4,25,20,48,32.636,-0.0522,-0.6961,-0.7139,-0.0542,0,0,0,0.002,0.001,-0.004,0
2018,4,25,20,48,32.656,-0.0523,-0.6961,-0.7139,-0.0542,0,0,0,-0.001,0.004,-0.003,0
2018,4,25,20,48,32.659,-0.0525,-0.6962,-0.7138,-0.054,0.1,0,0.5,0,0.002,-0.003,0
2018,4,25,20,48,32.694,-0.0525,-0.6962,-0.7138,-0.0539,0,0,0,0,0.003,-0.004,0
2018,4,25,20,48,32.714,-0.0525,-0.6961,-0.7139,-0.0539,0,0,0,0,0.002,-0.004,0
2018,4,25,20,48,32.722,-0.0525,-0.696,-0.7139,-0.0538,0.3,0,0.6,-0.002,0.001,-0.008,0
2018,4,25,20,48,32.757,-0.0526,-0.6959,-0.714,-0.0538,-0.4,0,0.5,0,0.001,-0.005,0
2018,4,25,20,48,32.776,-0.0528,-0.6959,-0.7141,-0.0539,-1,0.1,0.4,0,0,-0.005,0
2018,4,25,20,48,32.783,-0.053,-0.6959,-0.7141,-0.0539,-1,0.1,0.5,0,0.003,-0.006,0
2018,4,25,20,48,32.819,-0.0533,-0.6959,-0.714,-0.0539,-1.3,0.1,0.5,-0.002,0.004,-0.005,0
2018,4,25,20,48,32.838,-0.0536,-0.6959,-0.714,-0.054,-1.2,0.2,0.6,0.001,0.003,-0.007,0
2018,4,25,20,48,32.839,-0.0539,-0.696,-0.7139,-0.054,-0.9,0.2,0.5,0,0.003,-0.005,0
2018,4,25,20,48,32.873,-0.0541,-0.6961,-0.7138,-0.0539,-1,0.1,0.3,-0.003,-0.004,-0.009,0
2018,4,25,20,48,32.894,-0.0543,-0.6961,-0.7138,-0.054,-0.9,0.3,0.2,-0.001,0.004,-0.003,1023
2018,4,25,20,48,32.9,-0.0545,-0.696,-0.7138,-0.054,-0.6,0.1,0.4,-0.001,0.002,-0.007,1023
2018,4,25,20,48,32.936,-0.0547,-0.6962,-0.7137,-0.0539,-0.6,0.1,0.5,0,0.002,-0.005,1023
2018,4,25,20,48,32.955,-0.0547,-0.696,-0.7138,-0.0541,-0.6,0.1,0.4,-0.006,0.004,-0.001,1023
2018,4,25,20,48,32.962,-0.0548,-0.6959,-0.7139,-0.0542,-0.9,0.3,0.5,-0.002,0,-0.008,1023
2018,4,25,20,48,33,-0.0549,-0.6957,-0.7141,-0.0543,-0.9,0.1,0.3,-0.001,0.002,-0.005,1023
2018,4,25,20,48,33.019,-0.055,-0.6955,-0.7142,-0.0545,0,0,0,0,0.001,-0.005,1023
2018,4,25,20,48,33.023,-0.055,-0.6955,-0.7142,-0.0545,0,0,0,-0.001,0.004,-0.002,1023
2018,4,25,20,48,33.057,-0.055,-0.6955,-0.7142,-0.0544,0.4,0.1,0.5,0,0.003,0,1023
2018,4,25,20,48,33.078,-0.055,-0.6954,-0.7143,-0.0544,0.3,0,0.6,0.002,0.002,-0.007,1023
2018,4,25,20,48,33.086,-0.0549,-0.6952,-0.7145,-0.0544,0,0,0,0,0,-0.009,1023
2018,4,25,20,48,33.118,-0.0549,-0.6951,-0.7147,-0.0545,-1,0.1,0.3,0,0,-0.006,1023
2018,4,25,20,48,33.139,-0.0551,-0.6951,-0.7147,-0.0546,-1.1,0.2,0.2,-0.002,0,-0.008,0
2018,4,25,20,48,33.142,-0.0551,-0.6947,-0.715,-0.0549,-1.3,0.1,0.4,0,0.001,-0.006,0
2018,4,25,20,48,33.177,-0.0554,-0.6947,-0.7149,-0.055,-1.1,0.2,0.5,0,0.001,-0.007,0
2018,4,25,20,48,33.199,-0.0557,-0.6948,-0.7148,-0.055,-1.1,0.1,0.4,0,0,-0.007,0
2018,4,25,20,48,33.205,-0.0558,-0.6947,-0.7149,-0.0551,-1,0.1,0.5,-0.003,0,-0.007,0
2018,4,25,20,48,33.242,-0.056,-0.6947,-0.7149,-0.0551,-0.7,0.1,0.3,0,-0.001,-0.009,0
2018,4,25,20,48,33.262,-0.0562,-0.6948,-0.7148,-0.055,-0.5,0.1,0.5,-0.002,0.001,0,0
2018,4,25,20,48,33.27,-0.0564,-0.6948,-0.7148,-0.055,-0.3,0.1,0.5,-0.002,0,-0.004,0
2018,4,25,20,48,33.288,-0.0564,-0.6948,-0.7148,-0.055,0,0,0,0,-0.002,0,0
2018,4,25,20,48,33.31,-0.0564,-0.6947,-0.7148,-0.055,-0.6,0.1,0.5,-0.002,-0.001,-0.005,0
2018,4,25,20,48,33.33,-0.0566,-0.6948,-0.7148,-0.0549,0,0,0,0,0.001,-0.004,0
2018,4,25,20,48,33.351,-0.0566,-0.6946,-0.7149,-0.055,0,0,0,-0.003,0,-0.01,0
2018,4,25,20,48,33.371,-0.0566,-0.6945,-0.715,-0.0551,-0.2,0,0.5,-0.002,0,-0.007,0
2018,4,25,20,48,33.387,-0.0566,-0.6945,-0.715,-0.0551,0,0,0,-0.002,0,-0.005,0
2018,4,25,20,48,33.407,-0.0566,-0.6945,-0.7151,-0.0551,-0.5,0.2,0.3,0,0.001,0,0
2018,4,25,20,48,33.427,-0.0567,-0.6945,-0.7151,-0.0551,-0.2,0.1,0.5,-0.002,0.001,-0.008,0
2018,4,25,20,48,33.462,-0.0567,-0.6943,-0.7152,-0.0552,-0.6,0.1,0.3,-0.001,-0.002,-0.006,0
2018,4,25,20,48,33.481,-0.0568,-0.6942,-0.7153,-0.0553,-1.2,0.1,0.5,-0.002,0,-0.009,0
2018,4,25,20,48,33.487,-0.057,-0.6942,-0.7152,-0.0554,-1,0.1,0.2,-0.003,0.001,-0.006,0
2018,4,25,20,48,33.521,-0.0572,-0.6943,-0.7152,-0.0555,-1.3,0.1,0.4,0,0.001,-0.011,0
2018,4,25,20,48,33.54,-0.0573,-0.694,-0.7154,-0.0557,-0.9,0,0.3,0,0,-0.006,0
2018,4,25,20,48,33.547,-0.0573,-0.6938,-0.7156,-0.0559,-0.6,0,0.4,0,0.001,-0.003,0
2018,4,25,20,48,33.58,-0.0573,-0.6937,-0.7157,-0.0559,-0.3,0.1,0.5,0,0,-0.007,0
2018,4,25,20,48,33.601,-0.0573,-0.6936,-0.7158,-0.0559,0,0,0,-0.003,0.001,-0.007,0
2018,4,25,20,48,33.607,-0.0575,-0.6938,-0.7156,-0.0558,-0.8,0.2,0.3,0,0,-0.007,1023
2018,4,25,20,48,33.644,-0.0576,-0.6938,-0.7156,-0.0559,-1,0.3,0.4,-0.003,-0.002,-0.009,1023
2018,4,25,20,48,33.666,-0.0577,-0.6936,-0.7157,-0.0561,-1,0,0.3,0,0,-0.006,1023
2018,4,25,20,48,33.669,-0.0579,-0.6936,-0.7157,-0.0561,-0.7,0,0.3,0,0,-0.005,1023
2018,4,25,20,48,33.701,-0.0581,-0.6937,-0.7156,-0.0561,-0.7,0.1,0.6,-0.002,-0.003,-0.012,1023
2018,4,25,20,48,33.72,-0.0581,-0.6936,-0.7157,-0.0561,0,0,0,-0.005,-0.002,-0.006,1023
2018,4,25,20,48,33.727,-0.0581,-0.6936,-0.7157,-0.0561,0,0,0,-0.001,0.004,-0.009,1023
2018,4,25,20,48,33.762,-0.0581,-0.6936,-0.7157,-0.0561,0,0,0,0,-0.001,-0.004,1023
2018,4,25,20,48,33.782,-0.0581,-0.6936,-0.7158,-0.0561,0.2,0.1,0.5,-0.001,-0.001,-0.008,1023
2018,4,25,20,48,33.791,-0.0581,-0.6935,-0.7158,-0.0561,-0.1,0,0.5,-0.002,-0.001,-0.008,1023
2018,4,25,20,48,33.827,-0.058,-0.6933,-0.716,-0.0561,-0.4,0,0.5,-0.001,-0.001,-0.007,1023
2018,4,25,20,48,33.847,-0.0582,-0.6934,-0.7159,-0.0561,-0.7,0.2,0.5,-0.004,0,-0.004,1023
2018,4,25,20,48,33.85,-0.0584,-0.6934,-0.7159,-0.0561,-0.7,0.1,0.4,-0.002,0,-0.006,0
2018,4,25,20,48,33.884,-0.0585,-0.6934,-0.7159,-0.0562,-0.5,0.1,0.4,-0.001,0,-0.006,0
2018,4,25,20,48,33.905,-0.0586,-0.6935,-0.7158,-0.0561,0,0,0,-0.002,0,-0.005,0
2018,4,25,20,48,33.908,-0.0586,-0.6934,-0.7159,-0.0561,-0.2,0.1,0.5,0,0.001,-0.003,0
2018,4,25,20,48,33.942,-0.0587,-0.6933,-0.7159,-0.0562,-0.6,0.1,0.3,0,0,-0.006,0
2018,4,25,20,48,33.961,-0.0588,-0.6933,-0.7159,-0.0562,-1,0.1,0.5,-0.002,0,-0.007,0
2018,4,25,20,48,33.971,-0.0591,-0.6935,-0.7157,-0.0562,-1.3,0.1,0.5,-0.003,-0.003,-0.006,0
2018,4,25,20,48,34.004,-0.0591,-0.6933,-0.7159,-0.0563,0,0,0,0.002,-0.001,-0.004,0
2018,4,25,20,48,34.024,-0.0592,-0.6934,-0.7158,-0.0563,-0.6,0,0.4,0,-0.002,-0.005,0
2018,4,25,20,48,34.031,-0.0592,-0.6932,-0.716,-0.0564,0,0,0,0,-0.001,-0.007,0
2018,4,25,20,48,34.065,-0.0592,-0.6932,-0.716,-0.0564,-0.6,0,0.4,0.001,-0.002,-0.008,0
2018,4,25,20,48,34.085,-0.0594,-0.6933,-0.7159,-0.0563,-0.9,0,0.5,0,0,-0.01,0
2018,4,25,20,48,34.086,-0.0596,-0.6933,-0.7159,-0.0564,-0.7,0.1,0.4,-0.003,0.001,-0.011,0
2018,4,25,20,48,34.122,-0.0595,-0.693,-0.7161,-0.0566,-0.5,0.1,0.5,-0.001,0.001,-0.003,0
2018,4,25,20,48,34.141,-0.0595,-0.693,-0.7162,-0.0566,-0.7,0,0.4,0,-0.001,-0.006,0
2018,4,25,20,48,34.152,-0.0597,-0.693,-0.7161,-0.0565,-0.9,0,0.5,0,0,-0.007,0
2018,4,25,20,48,34.188,-0.0598,-0.6929,-0.7162,-0.0567,-1.1,0.1,0.5,-0.002,0,-0.005,0
2018,4,25,20,48,34.208,-0.06,-0.693,-0.7161,-0.0567,-1.2,0,0.3,0.001,-0.001,-0.007,0
2018,4,25,20,48,34.21,-0.06,-0.6929,-0.7162,-0.0568,-0.5,0.3,-0.2,-0.002,0,-0.009,0
2018,4,25,20,48,34.245,-0.0602,-0.6929,-0.7162,-0.0569,-1.3,0,0.4,-0.002,0.002,-0.004,0
2018,4,25,20,48,34.264,-0.0604,-0.6929,-0.7161,-0.057,-0.9,0.1,0.3,0,0,-0.006,0
2018,4,25,20,48,34.273,-0.0605,-0.6928,-0.7162,-0.0571,-0.9,0,0.5,-0.003,-0.002,-0.007,0
2018,4,25,20,48,34.306,-0.0606,-0.6928,-0.7162,-0.0572,-0.4,0,0.5,0,0,-0.01,0
2018,4,25,20,48,34.326,-0.0606,-0.6928,-0.7162,-0.0572,-0.3,0,0.5,0,0,-0.009,0
2018,4,25,20,48,34.328,-0.0606,-0.6926,-0.7164,-0.0573,-0.5,0.2,0.5,-0.003,-0.001,-0.007,1023
2018,4,25,20,48,34.361,-0.0605,-0.6924,-0.7166,-0.0575,-0.5,0,0.5,-0.001,0,-0.003,1023
2018,4,25,20,48,34.383,-0.0606,-0.6923,-0.7167,-0.0575,-0.2,0.1,0.6,0,0,-0.007,1023
2018,4,25,20,48,34.394,-0.0607,-0.6924,-0.7166,-0.0574,-0.2,0,0.5,-0.003,-0.001,-0.008,1023
2018,4,25,20,48,34.414,-0.0605,-0.6921,-0.7169,-0.0577,-0.6,0,0.5,-0.002,0,-0.005,1023
2018,4,25,20,48,34.432,-0.0607,-0.6921,-0.7168,-0.0576,-0.2,0.2,0.5,-0.003,-0.001,-0.005,1023
2018,4,25,20,48,34.472,-0.0608,-0.6923,-0.7167,-0.0575,0,0,0,-0.003,-0.002,-0.007,1023
2018,4,25,20,48,34.492,-0.0607,-0.6922,-0.7167,-0.0574,0.7,0,0.3,-0.001,0,-0.005,1023
2018,4,25,20,48,34.497,-0.0608,-0.6924,-0.7165,-0.0571,0.9,0,0.6,-0.002,0,-0.005,1023
2018,4,25,20,48,34.517,-0.0608,-0.6924,-0.7166,-0.057,0.1,0,0.7,0,-0.002,-0.009,1023
2018,4,25,20,48,34.537,-0.0608,-0.6925,-0.7165,-0.0569,-0.4,0,0.7,0.001,-0.002,-0.004,1023
2018,4,25,20,48,34.577,-0.0609,-0.6924,-0.7165,-0.0569,-0.5,0,0.5,0,-0.001,-0.008,1023
2018,4,25,20,48,34.596,-0.0608,-0.6923,-0.7167,-0.057,-0.2,0.1,0.7,-0.002,-0.002,-0.003,0
2018,4,25,20,48,34.6,-0.0607,-0.6921,-0.7169,-0.0571,-0.2,0,0.7,0,-0.003,-0.005,0
2018,4,25,20,48,34.615,-0.0608,-0.6921,-0.7169,-0.0571,-0.5,0.1,0.6,-0.001,-0.001,-0.003,0
2018,4,25,20,48,34.633,-0.061,-0.6923,-0.7167,-0.057,-0.7,0.2,0.5,0,-0.003,-0.002,0
2018,4,25,20,48,34.666,-0.0613,-0.6926,-0.7164,-0.0568,0,0,0,-0.001,-0.002,-0.008,0
2018,4,25,20,48,34.687,-0.0614,-0.6927,-0.7163,-0.0567,0,0,0,-0.004,0,-0.007,0
2018,4,25,20,48,34.696,-0.0613,-0.6925,-0.7164,-0.0568,-0.1,0,0.5,-0.002,0,-0.008,0
2018,4,25,20,48,34.731,-0.0613,-0.6925,-0.7165,-0.0568,0,0,0,-0.001,0,-0.007,0
2018,4,25,20,48,34.75,-0.0612,-0.6925,-0.7165,-0.0568,0,0,0.5,-0.003,-0.002,-0.002,0
2018,4,25,20,48,34.756,-0.0611,-0.6922,-0.7167,-0.0569,-0.4,0,0.6,0,-0.004,-0.005,0
2018,4,25,20,48,34.794,-0.0611,-0.6921,-0.7168,-0.057,-0.7,0,0.5,-0.004,-0.004,-0.009,0
2018,4,25,20,48,34.814,-0.0613,-0.6922,-0.7167,-0.057,-0.4,-0.1,0.8,0,-0.003,-0.004,0
2018,4,25,20,48,34.817,-0.0614,-0.6923,-0.7167,-0.0568,0.4,0,0.7,-0.003,-0.001,-0.008,0
2018,4,25,20,48,34.854,-0.0613,-0.6923,-0.7167,-0.0567,1,-0.1,0.5,0,-0.002,-0.004,0
2018,4,25,20,48,34.874,-0.0612,-0.6924,-0.7166,-0.0564,1.4,0,0.7,-0.002,0,-0.011,0
2018,4,25,20,48,34.877,-0.0611,-0.6925,-0.7166,-0.0562,0.6,0,0.8,0,-0.004,-0.01,0
2018,4,25,20,48,34.913,-0.0611,-0.6924,-0.7166,-0.0561,-0.7,0,0.5,0.001,-0.002,-0.007,0
2018,4,25,20,48,34.934,-0.0614,-0.6926,-0.7164,-0.0561,-1.3,0.1,0.5,0,-0.002,-0.006,0
2018,4,25,20,48,34.937,-0.0615,-0.6926,-0.7164,-0.0562,-1.2,0,0.5,-0.001,-0.003,-0.011,0
2018,4,25,20,48,34.97,-0.0617,-0.6926,-0.7164,-0.0562,-0.7,0,0.6,-0.002,0,-0.006,0
2018,4,25,20,48,34.99,-0.0618,-0.6926,-0.7163,-0.0562,0,0.2,0.5,-0.003,-0.002,-0.009,0
2018,4,25,20,48,34.997,-0.0618,-0.6926,-0.7163,-0.0561,-0.1,0.1,0.6,-0.002,0,-0.007,0
2018,4,25,20,48,35.031,-0.062,-0.6929,-0.7161,-0.0559,0,0,0,-0.001,0,-0.011,0
2018,4,25,20,48,35.052,-0.062,-0.6928,-0.7162,-0.056,-0.6,0,0.5,-0.003,-0.004,-0.003,0
2018,4,25,20,48,35.055,-0.0619,-0.6926,-0.7164,-0.0562,-0.7,0.1,0.3,0,-0.002,-0.006,1023
2018,4,25,20,48,35.091,-0.0619,-0.6925,-0.7165,-0.0563,-0.6,0,0.7,-0.001,-0.002,-0.011,1023
2018,4,25,20,48,35.114,-0.062,-0.6925,-0.7164,-0.0562,-0.2,0,0.7,-0.003,-0.001,-0.006,1023
2018,4,25,20,48,35.117,-0.0618,-0.6923,-0.7166,-0.0564,-0.3,0,0.5,-0.003,-0.003,-0.008,1023
2018,4,25,20,48,35.154,-0.0617,-0.6921,-0.7168,-0.0566,-0.6,0,0.5,-0.003,-0.002,-0.012,1023
2018,4,25,20,48,35.174,-0.0618,-0.692,-0.7169,-0.0567,-0.9,0.3,0.7,-0.002,-0.002,-0.003,1023
2018,4,25,20,48,35.178,-0.0618,-0.6919,-0.717,-0.0567,-0.6,0.1,0.3,-0.002,-0.001,-0.004,1023
2018,4,25,20,48,35.211,-0.0619,-0.692,-0.7169,-0.0567,0,0,0,-0.002,0,-0.008,1023
2018,4,25,20,48,35.233,-0.0616,-0.6917,-0.7172,-0.0568,0.9,-0.2,0.7,0,0,-0.005,1023
2018,4,25,20,48,35.239,-0.0613,-0.6915,-0.7175,-0.0568,0.5,-0.1,0.7,-0.002,-0.004,-0.006,1023
2018,4,25,20,48,35.274,-0.0612,-0.6912,-0.7177,-0.0568,0,0,0,0,-0.006,-0.007,1023
2018,4,25,20,48,35.296,-0.0611,-0.691,-0.7179,-0.0571,-1.1,0,0.5,-0.001,-0.001,-0.005,0
2018,4,25,20,48,35.297,-0.0612,-0.6909,-0.7179,-0.0572,-0.8,0,0.5,-0.002,-0.001,-0.006,0
2018,4,25,20,48,35.331,-0.0613,-0.6909,-0.7179,-0.0572,-0.2,0,0.5,-0.002,0.002,-0.005,0
2018,4,25,20,48,35.35,-0.0612,-0.6908,-0.718,-0.0573,0,0.1,0.7,-0.004,-0.002,-0.007,0
2018,4,25,20,48,35.358,-0.0612,-0.6907,-0.7181,-0.0573,-0.1,0,0.6,0,-0.004,-0.005,0
2018,4,25,20,48,35.392,-0.0612,-0.6908,-0.7181,-0.0572,-0.6,0,0.5,-0.002,-0.003,-0.004,0
2018,4,25,20,48,35.413,-0.0611,-0.6905,-0.7183,-0.0574,-0.8,0,0.4,-0.005,-0.003,-0.002,0
2018,4,25,20,48,35.42,-0.0611,-0.6904,-0.7184,-0.0575,-0.4,0,0.5,-0.005,-0.001,-0.009,0
2018,4,25,20,48,35.455,-0.0611,-0.6904,-0.7184,-0.0575,0.1,0,0.7,-0.003,-0.002,-0.005,0
2018,4,25,20,48,35.474,-0.061,-0.6903,-0.7185,-0.0574,0.3,0.1,0.7,0,-0.002,-0.008,0
2018,4,25,20,48,35.481,-0.0609,-0.6901,-0.7187,-0.0575,-0.2,0,0.5,0,-0.003,-0.008,0
2018,4,25,20,48,35.514,-0.061,-0.6901,-0.7187,-0.0574,-0.8,0.1,0.5,-0.004,-0.004,-0.008,0
2018,4,25,20,48,35.534,-0.0612,-0.6902,-0.7186,-0.0574,-1,0.1,0.5,-0.004,-0.003,-0.002,0
2018,4,25,20,48,35.541,-0.0611,-0.6899,-0.7189,-0.0577,-0.5,0,0.5,-0.001,-0.002,-0.008,0
2018,4,25,20,48,35.575,-0.061,-0.6897,-0.7191,-0.0578,0,0.1,0.5,-0.005,0,-0.004,0
2018,4,25,20,48,35.597,-0.061,-0.6897,-0.7191,-0.0578,0,0,0,-0.003,-0.002,-0.008,0
2018,4,25,20,48,35.601,-0.061,-0.6896,-0.7192,-0.0577,0,0.1,0.7,-0.001,-0.002,-0.005,0
2018,4,25,20,48,35.634,-0.0609,-0.6896,-0.7192,-0.0577,-0.4,0,0.5,-0.003,-0.003,-0.012,0
2018,4,25,20,48,35.657,-0.061,-0.6896,-0.7192,-0.0577,-0.6,0,0.5,-0.002,-0.002,-0.006,0
2018,4,25,20,48,35.662,-0.0612,-0.6898,-0.719,-0.0576,-0.6,0,0.7,-0.001,-0.002,-0.008,0
2018,4,25,20,48,35.695,-0.0612,-0.6896,-0.7192,-0.0577,-0.4,0,0.6,-0.002,0,-0.004,0
2018,4,25,20,48,35.716,-0.0612,-0.6894,-0.7194,-0.0579,-0.3,0.1,0.5,0,0,-0.002,0
2018,4,25,20,48,35.718,-0.0611,-0.6892,-0.7195,-0.058,-0.2,0.1,0.6,-0.002,-0.003,-0.008,0
2018,4,25,20,48,35.752,-0.0611,-0.6891,-0.7196,-0.058,0,0.1,0.6,0,-0.002,-0.003,0
2018,4,25,20,48,35.773,-0.061,-0.6889,-0.7198,-0.058,-0.1,0,0.5,-0.001,-0.002,-0.01,1023
2018,4,25,20,48,35.78,-0.0609,-0.6888,-0.72,-0.0581,-0.2,0,0.6,-0.003,-0.001,-0.008,1023
2018,4,25,20,48,35.814,-0.0611,-0.6889,-0.7198,-0.058,-0.6,0.1,0.5,-0.003,-0.005,-0.005,1023
2018,4,25,20,48,35.834,-0.0611,-0.6889,-0.7199,-0.058,-0.6,0,0.7,-0.003,0,-0.007,1023
2018,4,25,20,48,35.842,-0.0614,-0.689,-0.7197,-0.0579,-0.6,0,0.7,-0.003,-0.006,-0.004,1023
2018,4,25,20,48,35.877,-0.0614,-0.689,-0.7197,-0.0579,-0.2,0,0.7,-0.002,-0.004,-0.004,1023
2018,4,25,20,48,35.897,-0.0614,-0.689,-0.7197,-0.0578,-0.6,0,0.5,-0.003,-0.003,-0.004,1023
2018,4,25,20,48,35.905,-0.0616,-0.6891,-0.7196,-0.0578,-0.6,0.1,0.5,-0.001,-0.001,-0.006,1023
2018,4,25,20,48,35.943,-0.0616,-0.689,-0.7197,-0.0578,0,0,0,-0.001,-0.002,-0.001,1023
2018,4,25,20,48,35.963,-0.0614,-0.6888,-0.7199,-0.0579,0.6,-0.1,0.3,-0.002,-0.001,-0.007,1023
2018,4,25,20,48,35.965,-0.0612,-0.6887,-0.7201,-0.0579,0.7,0,0.6,-0.005,-0.001,-0.006,1023
2018,4,25,20,48,35.999,-0.061,-0.6884,-0.7203,-0.058,0,-0.1,0.7,-0.001,-0.003,-0.005,0
2018,4,25,20,48,36.018,-0.061,-0.6883,-0.7204,-0.058,-0.9,0.1,0.5,0.001,-0.002,-0.004,0
2018,4,25,20,48,36.024,-0.0611,-0.6882,-0.7205,-0.0581,-1,0.1,0.5,-0.002,0,-0.013,0
2018,4,25,20,48,36.057,-0.0612,-0.6882,-0.7205,-0.0582,-0.8,0,0.7,-0.001,0.001,-0.003,0
2018,4,25,20,48,36.076,-0.0612,-0.6881,-0.7206,-0.0583,-0.6,0,0.7,0,-0.002,-0.008,0
2018,4,25,20,48,36.083,-0.0615,-0.6882,-0.7205,-0.0582,-0.9,0.1,0.6,0,-0.004,-0.006,0
2018,4,25,20,48,36.119,-0.0616,-0.6882,-0.7204,-0.0582,-0.9,0,0.5,-0.001,-0.001,-0.002,0
2018,4,25,20,48,36.138,-0.0616,-0.688,-0.7207,-0.0584,-0.6,0.1,0.6,-0.001,-0.001,-0.005,0
2018,4,25,20,48,36.147,-0.0616,-0.6879,-0.7207,-0.0585,-0.2,0.1,0.7,-0.004,-0.001,-0.006,0
2018,4,25,20,48,36.183,-0.0617,-0.6879,-0.7207,-0.0584,0.1,0.1,0.5,-0.002,-0.001,-0.003,0
2018,4,25,20,48,36.203,-0.0617,-0.6879,-0.7208,-0.0583,-0.2,0,0.5,-0.002,-0.001,-0.005,0
2018,4,25,20,48,36.205,-0.0618,-0.6879,-0.7207,-0.0583,-0.9,0,0.6,-0.002,-0.003,-0.004,0
2018,4,25,20,48,36.238,-0.0618,-0.6878,-0.7208,-0.0584,-1,0,0.7,-0.002,-0.002,-0.005,0
2018,4,25,20,48,36.258,-0.0618,-0.6875,-0.721,-0.0587,-0.7,0,0.6,0,0,-0.003,0
2018,4,25,20,48,36.263,-0.0618,-0.6874,-0.7212,-0.0588,-0.8,0,0.6,-0.002,0,-0.008,0
2018,4,25,20,48,36.299,-0.0619,-0.6873,-0.7212,-0.0589,-1.3,0.2,0.5,-0.003,-0.006,-0.007,0
2018,4,25,20,48,36.317,-0.0623,-0.6875,-0.721,-0.0589,-2.3,0.3,0,-0.008,-0.037,-0.009,0
2018,4,25,20,48,36.327,-0.0624,-0.6876,-0.7209,-0.059,-2.3,0.5,-0.7,0,0.007,-0.006,0
2018,4,25,20,48,36.361,-0.0629,-0.6879,-0.7206,-0.0591,-2.9,0.5,-0.4,-0.001,0.001,-0.002,0
2018,4,25,20,48,36.381,-0.0633,-0.6879,-0.7205,-0.0595,-3.2,0.3,0,-0.004,-0.006,-0.008,0
2018,4,25,20,48,36.386,-0.0635,-0.6877,-0.7206,-0.06,-2.1,0.1,0,-0.001,0.001,-0.005,0
2018,4,25,20,48,36.422,-0.0637,-0.6878,-0.7205,-0.06,-1,0.1,0,-0.001,-0.003,-0.006,0
2018,4,25,20,48,36.442,-0.0638,-0.6877,-0.7206,-0.0602,-1.5,0.1,0.2,0,-0.001,-0.003,0
2018,4,25,20,48,36.443,-0.0641,-0.6878,-0.7204,-0.0602,-1,0.1,0.5,-0.001,0,-0.01,0
2018,4,25,20,48,36.477,-0.0642,-0.6878,-0.7205,-0.0603,-0.6,0.1,0.5,-0.001,-0.002,-0.006,0
2018,4,25,20,48,36.497,-0.0642,-0.6877,-0.7205,-0.0603,0,0,0,-0.001,-0.002,-0.008,0
2018,4,25,20,48,36.507,-0.0642,-0.6877,-0.7206,-0.0603,0.1,0,0.5,0.001,-0.005,-0.006,1023
2018,4,25,20,48,36.54,-0.0641,-0.6875,-0.7207,-0.0603,0.1,0,0.5,-0.003,-0.004,-0.005,1023
2018,4,25,20,48,36.559,-0.064,-0.6875,-0.7208,-0.0603,-0.3,0,0.5,0,-0.003,-0.005,1023
2018,4,25,20,48,36.566,-0.0641,-0.6875,-0.7207,-0.0602,-0.4,0,0.5,-0.002,-0.003,-0.003,1023
2018,4,25,20,48,36.6,-0.0641,-0.6874,-0.7208,-0.0603,-0.9,-0.1,0.8,-0.002,0,-0.009,1023
2018,4,25,20,48,36.622,-0.0644,-0.6876,-0.7207,-0.0602,-0.7,0.1,0.5,-0.002,-0.003,-0.01,1023
2018,4,25,20,48,36.632,-0.0644,-0.6875,-0.7207,-0.0603,0,-0.1,0.6,-0.002,-0.001,-0.004,1023
2018,4,25,20,48,36.649,-0.0642,-0.6873,-0.7209,-0.0604,0.6,-0.1,0.5,-0.003,-0.004,-0.003,1023
2018,4,25,20,48,36.67,-0.0641,-0.6873,-0.7209,-0.0603,0.6,0,0.4,-0.006,-0.003,-0.004,1023
2018,4,25,20,48,36.706,-0.0639,-0.6871,-0.7211,-0.0602,0,0,0,-0.002,-0.001,-0.008,1023
2018,4,25,20,48,36.725,-0.0639,-0.6871,-0.7211,-0.0602,-0.4,0,0.6,-0.002,-0.003,-0.006,1023
2018,4,25,20,48,36.727,-0.0638,-0.6869,-0.7213,-0.0603,-0.7,0,0.5,-0.004,-0.001,-0.007,0
2018,4,25,20,48,36.76,-0.0639,-0.6869,-0.7213,-0.0604,-0.8,0,0.5,-0.001,-0.002,-0.007,0
2018,4,25,20,48,36.781,-0.064,-0.6868,-0.7213,-0.0605,-0.6,0,0.4,-0.003,-0.001,-0.003,0
2018,4,25,20,48,36.788,-0.0641,-0.687,-0.7212,-0.0603,-0.6,0,0.5,-0.001,0,-0.007,0
2018,4,25,20,48,36.823,-0.0641,-0.6867,-0.7214,-0.0606,-0.6,0,0.6,0,-0.004,-0.002,0
2018,4,25,20,48,36.843,-0.0641,-0.6867,-0.7215,-0.0606,-0.7,0,0.5,-0.005,-0.001,-0.004,0
2018,4,25,20,48,36.851,-0.0642,-0.6867,-0.7215,-0.0606,-0.7,0,0.5,-0.006,-0.002,-0.01,0
2018,4,25,20,48,36.887,-0.0645,-0.6869,-0.7213,-0.0605,-0.8,0.1,0.4,-0.002,-0.001,-0.006,0
2018,4,25,20,48,36.912,-0.0646,-0.6869,-0.7212,-0.0605,-0.3,0,0.5,0,-0.003,-0.007,0
2018,4,25,20,48,36.916,-0.0647,-0.6871,-0.7211,-0.0603,0,-0.1,0.5,-0.001,-0.002,-0.002,0
2018,4,25,20,48,36.934,-0.0646,-0.687,-0.7212,-0.0603,0.1,0,0.5,-0.004,0,-0.008,0
2018,4,25,20,48,36.953,-0.0645,-0.6867,-0.7214,-0.0604,0,0.1,0.5,0.001,-0.003,-0.007,0
2018,4,25,20,48,36.97,-0.0645,-0.6868,-0.7214,-0.0604,0,-0.1,0.5,-0.002,-0.001,-0.005,0
2018,4,25,20,48,36.99,-0.0646,-0.6869,-0.7213,-0.0602,0,0,0,-0.001,-0.004,-0.004,0
2018,4,25,20,48,37.028,-0.0646,-0.687,-0.7212,-0.0601,-0.1,0.2,0.5,-0.003,-0.003,-0.005,0
2018,4,25,20,48,37.049,-0.0646,-0.687,-0.7211,-0.0601,0,0,0,-0.005,0,-0.011,0
2018,4,25,20,48,37.053,-0.0646,-0.687,-0.7212,-0.0601,-0.3,0,0.5,-0.001,-0.004,-0.006,0
2018,4,25,20,48,37.092,-0.0647,-0.6871,-0.7211,-0.06,-0.3,-0.1,0.6,-0.002,-0.004,-0.003,0
2018,4,25,20,48,37.112,-0.0646,-0.6869,-0.7212,-0.0601,-0.4,0,0.5,-0.002,-0.002,-0.009,0
2018,4,25,20,48,37.116,-0.0646,-0.6868,-0.7214,-0.0603,-0.6,0,0.7,-0.004,-0.003,-0.01,0
2018,4,25,20,48,37.136,-0.0646,-0.6867,-0.7214,-0.0603,-0.7,0,0.7,-0.005,-0.003,-0.011,0
2018,4,25,20,48,37.151,-0.0647,-0.6867,-0.7214,-0.0603,-0.7,0.1,0.5,-0.005,-0.003,-0.005,0
2018,4,25,20,48,37.189,-0.0647,-0.6867,-0.7214,-0.0604,-0.4,0,0.5,-0.002,-0.002,-0.007,0
2018,4,25,20,48,37.209,-0.0648,-0.6867,-0.7214,-0.0603,-0.6,0,0.5,-0.001,-0.006,-0.005,0
2018,4,25,20,48,37.213,-0.0649,-0.6868,-0.7213,-0.0603,-0.5,0,0.5,-0.001,-0.001,-0.004,0
2018,4,25,20,48,37.251,-0.0649,-0.6868,-0.7213,-0.0603,0,0,0,-0.003,-0.002,-0.009,0
2018,4,25,20,48,37.271,-0.0649,-0.6868,-0.7213,-0.0602,0,0,0,-0.001,-0.002,-0.004,1023
2018,4,25,20,48,37.275,-0.0649,-0.6869,-0.7213,-0.0601,0.1,0,0.5,-0.001,-0.001,-0.003,1023
2018,4,25,20,48,37.296,-0.0649,-0.687,-0.7211,-0.0601,-0.4,0,0.5,-0.003,-0.005,-0.009,1023
2018,4,25,20,48,37.316,-0.0651,-0.6871,-0.7211,-0.0601,-1.1,0.1,0.3,-0.002,-0.003,-0.007,1023
2018,4,25,20,48,37.336,-0.0652,-0.687,-0.7211,-0.0601,-0.4,0.1,0.5,-0.001,-0.003,-0.011,1023
2018,4,25,20,48,37.357,-0.0651,-0.687,-0.7211,-0.0601,0.9,-0.1,0.5,-0.001,-0.003,0,1023
2018,4,25,20,48,37.376,-0.0649,-0.687,-0.7212,-0.0599,1.5,0,0.5,-0.001,-0.005,-0.005,1023
2018,4,25,20,48,37.396,-0.0646,-0.6868,-0.7213,-0.0598,0.9,0,0.6,-0.001,-0.001,-0.004,1023
2018,4,25,20,48,37.417,-0.0645,-0.6868,-0.7214,-0.0598,-0.4,0,0.5,-0.001,-0.004,-0.003,1023
2018,4,25,20,48,37.436,-0.0645,-0.6867,-0.7215,-0.0599,-1.1,0.1,0.5,-0.001,-0.001,-0.007,1023
2018,4,25,20,48,37.454,-0.0646,-0.6865,-0.7216,-0.0601,-0.7,0,0.5,-0.001,0,-0.007,1023
2018,4,25,20,48,37.491,-0.0645,-0.6865,-0.7216,-0.0601,0.3,0,0.5,-0.003,-0.001,-0.004,1023
2018,4,25,20,48,37.51,-0.0643,-0.6863,-0.7219,-0.0602,0.4,0.1,0.5,-0.002,-0.004,-0.004,0
2018,4,25,20,48,37.514,-0.0643,-0.6864,-0.7218,-0.06,-0.1,0,0.5,0,-0.003,-0.008,0
2018,4,25,20,48,37.553,-0.0645,-0.6864,-0.7218,-0.06,-0.9,0,0.5,-0.001,-0.002,-0.006,0
2018,4,25,20,48,37.574,-0.0647,-0.6865,-0.7217,-0.06,-1.2,0.1,0.4,0,-0.003,-0.006,0
2018,4,25,20,48,37.578,-0.0647,-0.6864,-0.7217,-0.0601,-0.7,-0.1,0.5,-0.003,0,-0.008,0
2018,4,25,20,48,37.598,-0.0647,-0.6863,-0.7219,-0.0602,-0.1,0,0.5,-0.002,-0.002,-0.003,0
2018,4,25,20,48,37.618,-0.0647,-0.6863,-0.7218,-0.0601,0,0,0,-0.002,-0.003,-0.005,0
2018,4,25,20,48,37.64,-0.0648,-0.6864,-0.7218,-0.06,0,0,0.5,0,-0.003,-0.004,0
2018,4,25,20,48,37.659,-0.0648,-0.6864,-0.7217,-0.0599,-0.1,0,0.5,-0.001,-0.001,-0.008,0
2018,4,25,20,48,37.676,-0.0647,-0.6864,-0.7218,-0.06,-0.3,0,0.5,-0.001,0,-0.008,0
2018,4,25,20,48,37.696,-0.0647,-0.6863,-0.7218,-0.06,-0.2,0,0.5,-0.002,-0.002,-0.011,0
2018,4,25,20,48,37.716,-0.0646,-0.6863,-0.7218,-0.06,0,0,0,-0.004,-0.001,-0.005,0
2018,4,25,20,48,37.736,-0.0646,-0.6863,-0.7219,-0.06,0,0,0,-0.001,-0.003,-0.007,0
2018,4,25,20,48,37.755,-0.0646,-0.6864,-0.7218,-0.06,0,0,0,-0.001,0,-0.005,0
2018,4,25,20,48,37.794,-0.0647,-0.6864,-0.7217,-0.0599,-0.1,0,0.5,-0.003,0,-0.007,0
2018,4,25,20,48,37.814,-0.0647,-0.6865,-0.7217,-0.0598,0,0,0.7,-0.002,-0.001,-0.008,0
2018,4,25,20,48,37.821,-0.0648,-0.6866,-0.7216,-0.0597,-0.2,-0.1,0.6,-0.002,-0.003,-0.005,0
2018,4,25,20,48,37.859,-0.0649,-0.6868,-0.7214,-0.0596,-0.4,0.1,0.6,-0.003,0,-0.006,0
2018,4,25,20,48,37.877,-0.0651,-0.6868,-0.7214,-0.0596,-0.6,0.1,0.4,0,-0.001,-0.002,0
2018,4,25,20,48,37.881,-0.0651,-0.6867,-0.7214,-0.0596,-0.6,0.1,0.5,-0.003,-0.003,-0.002,0
2018,4,25,20,48,37.894,-0.065,-0.6866,-0.7216,-0.0598,-0.1,0,0.5,-0.001,-0.001,-0.005,0
2018,4,25,20,48,37.935,-0.065,-0.6866,-0.7215,-0.0597,0.1,0,0.5,-0.002,-0.001,-0.006,0
2018,4,25,20,48,37.955,-0.0648,-0.6864,-0.7218,-0.0598,0,0,0.5,-0.001,0,-0.012,0
2018,4,25,20,48,37.959,-0.0648,-0.6864,-0.7217,-0.0597,-0.4,-0.1,0.5,-0.003,-0.003,-0.012,0
2018,4,25,20,48,37.997,-0.0648,-0.6863,-0.7218,-0.0598,-0.5,0.1,0.5,-0.002,-0.001,-0.007,0
2018,4,25,20,48,38.018,-0.0648,-0.6862,-0.722,-0.06,-0.4,0,0.5,-0.002,-0.002,-0.008,0
2018,4,25,20,48,38.022,-0.0648,-0.6861,-0.722,-0.06,-0.1,0.1,0.6,-0.001,0,-0.005,1023
2018,4,25,20,48,38.04,-0.0648,-0.6862,-0.722,-0.0599,-0.1,0.1,0.5,-0.001,-0.002,-0.009,1023
2018,4,25,20,48,38.078,-0.0648,-0.6861,-0.722,-0.06,-0.9,0,0.7,-0.002,-0.002,-0.01,1023
2018,4,25,20,48,38.1,-0.0648,-0.6859,-0.7222,-0.0602,-0.7,0,0.6,-0.004,-0.004,-0.007,1023
2018,4,25,20,48,38.104,-0.0648,-0.6859,-0.7222,-0.0602,0,0,0,-0.001,-0.002,-0.006,1023
2018,4,25,20,48,38.123,-0.0647,-0.6859,-0.7222,-0.0601,1.2,0,0.4,-0.002,-0.003,-0.006,1023
2018,4,25,20,48,38.137,-0.0645,-0.686,-0.7222,-0.0598,1.5,0.1,0.7,-0.004,-0.002,-0.005,1023
2018,4,25,20,48,38.178,-0.0644,-0.686,-0.7222,-0.0597,0.7,0,0.5,-0.002,-0.003,-0.005,1023
2018,4,25,20,48,38.198,-0.0643,-0.6859,-0.7223,-0.0596,-0.6,0,0.4,-0.003,-0.004,-0.002,1023
2018,4,25,20,48,38.202,-0.0641,-0.6855,-0.7227,-0.06,-1,0,0.6,-0.002,-0.004,-0.006,1023
2018,4,25,20,48,38.221,-0.0643,-0.6855,-0.7226,-0.0601,-0.7,0.1,0.5,-0.002,-0.002,-0.007,0
2018,4,25,20,48,38.242,-0.0642,-0.6853,-0.7228,-0.0602,0,0,0,0,0.001,-0.005,0
2018,4,25,20,48,38.263,-0.064,-0.6851,-0.723,-0.0603,0.1,0,0.6,0,0,-0.002,0
2018,4,25,20,48,38.281,-0.064,-0.6851,-0.723,-0.0602,-0.1,0.1,0.5,-0.001,-0.002,-0.007,0
2018,4,25,20,48,38.301,-0.064,-0.6852,-0.723,-0.0601,-0.4,0.1,0.5,0,-0.005,-0.007,0
2018,4,25,20,48,38.338,-0.0641,-0.6853,-0.7229,-0.0601,-0.6,0,0.5,-0.003,-0.001,-0.011,0
2018,4,25,20,48,38.358,-0.0642,-0.6853,-0.7228,-0.06,-0.2,0,0.7,0,-0.001,-0.004,0
2018,4,25,20,48,38.362,-0.0642,-0.6852,-0.7229,-0.0601,-0.2,0,0.7,-0.001,-0.001,-0.002,0
2018,4,25,20,48,38.379,-0.0643,-0.6853,-0.7228,-0.06,-0.1,0,0.5,-0.003,-0.002,-0.011,0
2018,4,25,20,48,38.417,-0.0642,-0.6851,-0.723,-0.0601,-0.2,0.1,0.5,-0.002,0.001,-0.005,0
2018,4,25,20,48,38.438,-0.0641,-0.6849,-0.7232,-0.0602,-0.2,0,0.5,-0.003,-0.001,-0.005,0
2018,4,25,20,48,38.442,-0.0641,-0.6849,-0.7232,-0.0602,-0.1,-0.1,0.6,-0.002,-0.001,-0.004,0
2018,4,25,20,48,38.461,-0.064,-0.6848,-0.7233,-0.0603,-0.2,0,0.5,-0.002,-0.003,-0.002,0
2018,4,25,20,48,38.482,-0.064,-0.6848,-0.7233,-0.0603,-0.4,0,0.5,-0.001,-0.002,-0.005,0
2018,4,25,20,48,38.501,-0.064,-0.6847,-0.7234,-0.0603,-0.1,0,0.5,-0.003,-0.004,-0.005,0
2018,4,25,20,48,38.523,-0.064,-0.6846,-0.7235,-0.0604,-0.1,0,0.7,-0.003,0,-0.006,0
2018,4,25,20,48,38.544,-0.0639,-0.6846,-0.7235,-0.0603,0,0,0.6,-0.002,-0.001,-0.004,0
2018,4,25,20,48,38.583,-0.064,-0.6847,-0.7234,-0.0602,-0.1,0,0.6,0,-0.003,-0.003,0
2018,4,25,20,48,38.587,-0.0639,-0.6845,-0.7235,-0.0603,-0.5,-0.1,0.7,-0.002,-0.003,-0.004,0
