time_1,time_2,time_3,time_4,time_5,time_6,w,x,y,z,droll,dpitch,dyaw,ax,ay,az,heart
2018,4,25,17,11,43.025,0.1288,0.4937,0.0966,0.8545,0,0,0,0.002,-0.012,0,0
2018,4,25,17,11,43.028,0.1285,0.4937,0.0967,0.8545,1.4,0.3,-0.2,0.005,-0.006,0,0
2018,4,25,17,11,43.045,0.1282,0.4938,0.0969,0.8545,1.3,0,-0.3,0.009,0.003,-0.006,0
2018,4,25,17,11,43.067,0.128,0.4938,0.0971,0.8545,0.5,0,-0.3,0.013,0.009,-0.008,0
2018,4,25,17,11,43.107,0.1281,0.4938,0.0974,0.8545,0,0,0,0.009,0.009,-0.011,0
2018,4,25,17,11,43.109,0.128,0.4939,0.0974,0.8544,-1.3,0.2,0,0.001,0.007,-0.013,0
2018,4,25,17,11,43.129,0.1281,0.4939,0.0972,0.8544,-2.2,0.2,0,0.001,-0.007,-0.001,0
2018,4,25,17,11,43.167,0.1281,0.4939,0.0969,0.8545,-1.4,0.1,-0.1,-0.004,-0.012,0.001,0
2018,4,25,17,11,43.188,0.1279,0.4939,0.0967,0.8545,0,0,0,-0.002,-0.014,0.004,1023
2018,4,25,17,11,43.193,0.1277,0.4938,0.0967,0.8546,0.9,0.2,0,0.005,-0.007,0.007,1023
2018,4,25,17,11,43.206,0.1275,0.4939,0.0969,0.8546,1.3,0.4,0.4,0.011,-0.004,0,1023
2018,4,25,17,11,43.243,0.1273,0.4939,0.0972,0.8546,1.7,0.3,0.6,0.011,-0.003,-0.002,1023
2018,4,25,17,11,43.263,0.1269,0.494,0.0976,0.8545,1.8,0.5,0.4,0.01,-0.002,-0.011,1023
2018,4,25,17,11,43.267,0.1266,0.4941,0.098,0.8545,1.9,0.2,0.2,0.005,-0.001,-0.007,1023
2018,4,25,17,11,43.306,0.1264,0.4942,0.0983,0.8544,1.6,0.2,0,-0.001,0.004,-0.003,1023
2018,4,25,17,11,43.326,0.1261,0.4942,0.0987,0.8544,1,0,0,0.003,0.009,-0.006,1023
2018,4,25,17,11,43.33,0.1261,0.4943,0.0989,0.8543,0,0,0,0.006,0.006,-0.008,1023
2018,4,25,17,11,43.349,0.1261,0.4943,0.0991,0.8543,-0.5,0,0.1,0.007,-0.002,-0.003,1023
2018,4,25,17,11,43.371,0.126,0.4943,0.0991,0.8543,0,0,0,0.009,-0.006,-0.006,1023
2018,4,25,17,11,43.392,0.1261,0.4942,0.0992,0.8543,0,0,0,0.01,0,0,0
2018,4,25,17,11,43.411,0.1259,0.4941,0.0991,0.8544,-0.6,-0.4,-0.6,0.004,0.001,-0.003,0
2018,4,25,17,11,43.431,0.1258,0.494,0.099,0.8545,-1.2,-0.4,-0.7,0.005,0,-0.007,0
2018,4,25,17,11,43.452,0.1257,0.494,0.0988,0.8546,-1.9,0,-0.4,0.002,-0.003,0,0
2018,4,25,17,11,43.469,0.1256,0.4939,0.0985,0.8547,-1.3,0.1,0,0.002,-0.008,0.012,0
2018,4,25,17,11,43.487,0.1255,0.4938,0.0984,0.8548,0,0,0,0.003,-0.016,0.012,0
2018,4,25,17,11,43.509,0.1254,0.4937,0.0984,0.8548,0.7,-0.1,0.1,0.004,-0.011,0,0
2018,4,25,17,11,43.548,0.1252,0.4937,0.0986,0.8548,1.3,0.2,0,0.005,-0.011,-0.005,0
2018,4,25,17,11,43.567,0.1249,0.4938,0.0988,0.8548,1.5,0.3,0,0.007,-0.001,-0.004,0
2018,4,25,17,11,43.572,0.1246,0.4938,0.0992,0.8548,1.7,0.2,0.2,0.007,0.003,-0.005,0
2018,4,25,17,11,43.611,0.1245,0.4939,0.0995,0.8547,0.9,0,0.4,0.007,0.004,-0.005,0
2018,4,25,17,11,43.63,0.1244,0.4939,0.0998,0.8547,0,0,0,0,0.005,-0.007,0
2018,4,25,17,11,43.634,0.1245,0.4939,0.0999,0.8546,0,0,0,-0.002,0,-0.007,0
2018,4,25,17,11,43.672,0.1245,0.4939,0.1001,0.8546,0,0,0,0.003,0.004,0,0
2018,4,25,17,11,43.694,0.1246,0.4939,0.1002,0.8546,0,0,0,0.008,0.001,0.001,0
2018,4,25,17,11,43.698,0.1245,0.4938,0.1002,0.8547,-0.8,-0.6,-0.2,0.009,-0.002,-0.006,0
2018,4,25,17,11,43.711,0.1244,0.4937,0.1002,0.8548,-0.9,-0.4,-0.3,0.007,-0.006,-0.006,0
2018,4,25,17,11,43.749,0.1242,0.4936,0.1,0.8549,-0.9,-0.1,-0.5,0.01,-0.008,-0.004,0
2018,4,25,17,11,43.77,0.1241,0.4935,0.0999,0.8549,0,0,0,0.011,-0.003,0.003,0
2018,4,25,17,11,43.774,0.1242,0.4934,0.1001,0.855,0,0,0,0.01,-0.004,0.005,0
2018,4,25,17,11,43.81,0.1242,0.4934,0.1002,0.855,0,0,0,0.004,-0.008,0,0
2018,4,25,17,11,43.829,0.1243,0.4933,0.1003,0.855,0,0,0,0.002,-0.001,0.001,0
2018,4,25,17,11,43.833,0.1243,0.4933,0.1004,0.855,0,0,0,0.003,0,-0.004,0
2018,4,25,17,11,43.854,0.1244,0.4933,0.1005,0.8549,0,0,0,0.003,0,-0.009,0
2018,4,25,17,11,43.875,0.1245,0.4934,0.1007,0.8549,0,0,0,0.007,0.007,-0.013,0
2018,4,25,17,11,43.892,0.1245,0.4934,0.1008,0.8548,-0.9,0,0,0.004,0.005,-0.006,0
2018,4,25,17,11,43.911,0.1245,0.4933,0.1007,0.8549,-1.8,-0.1,0,0.002,0,0,0
2018,4,25,17,11,43.931,0.1245,0.4932,0.1003,0.855,-1.6,-0.5,0,-0.001,-0.013,0,0
2018,4,25,17,11,43.969,0.1244,0.4931,0.1001,0.8551,-0.9,-0.5,0,-0.004,-0.014,0.001,1023
2018,4,25,17,11,43.989,0.1244,0.493,0.1001,0.8552,0,0,0,-0.001,-0.011,0.011,1023
2018,4,25,17,11,43.993,0.1243,0.493,0.1002,0.8552,1.5,0,0.1,0.008,-0.006,-0.001,1023
2018,4,25,17,11,44.013,0.124,0.4929,0.1006,0.8552,2.2,-0.1,0.6,0.014,-0.004,0,1023
2018,4,25,17,11,44.034,0.1237,0.4929,0.101,0.8552,1.9,-0.1,0.5,0.009,0.002,-0.006,1023
2018,4,25,17,11,44.071,0.1236,0.4929,0.1014,0.8552,1.3,0,0.4,0.004,0.002,-0.01,1023
2018,4,25,17,11,44.09,0.1234,0.493,0.1016,0.8551,0.7,0,0.2,0.003,0.005,-0.006,1023
2018,4,25,17,11,44.096,0.1234,0.493,0.1018,0.8551,0.5,-0.1,0.2,0.004,0.006,-0.002,1023
2018,4,25,17,11,44.116,0.1234,0.493,0.102,0.8551,0,0,0,0.006,0.01,-0.005,1023
2018,4,25,17,11,44.137,0.1235,0.4929,0.1021,0.8551,-1,-0.5,-0.1,0.007,0.003,-0.006,1023
2018,4,25,17,11,44.176,0.1234,0.4928,0.102,0.8552,-1.2,-0.2,-0.3,0.007,-0.005,-0.01,1023
2018,4,25,17,11,44.195,0.1234,0.4928,0.1019,0.8552,-0.8,-0.3,-0.1,0.013,0,0,0
2018,4,25,17,11,44.199,0.1232,0.4926,0.1017,0.8553,-1.1,-0.2,-0.6,0.012,-0.002,0.001,0
2018,4,25,17,11,44.214,0.1231,0.4925,0.1016,0.8555,-1,-0.2,-0.5,0.009,-0.004,-0.003,0
2018,4,25,17,11,44.25,0.123,0.4924,0.1014,0.8555,-1.1,0,-0.6,0.007,-0.005,0,0
2018,4,25,17,11,44.271,0.1228,0.4924,0.1011,0.8556,-1,0,-0.5,0.001,-0.006,0.003,0
2018,4,25,17,11,44.275,0.1227,0.4923,0.101,0.8557,-0.6,0.2,-0.2,-0.002,-0.01,0.004,0
2018,4,25,17,11,44.312,0.1227,0.4923,0.101,0.8557,0,0,0,0.005,-0.01,-0.001,0
2018,4,25,17,11,44.333,0.1225,0.4923,0.1011,0.8557,0.8,0.5,0,0.007,-0.004,-0.005,0
2018,4,25,17,11,44.337,0.1224,0.4924,0.1013,0.8557,0.9,0.5,0,0.008,-0.005,0.001,0
2018,4,25,17,11,44.375,0.1222,0.4924,0.1015,0.8556,1,0,0.1,0.006,-0.002,-0.007,0
2018,4,25,17,11,44.396,0.122,0.4925,0.1017,0.8556,1.3,0,0.1,0.003,0,-0.008,0
2018,4,25,17,11,44.4,0.1217,0.4925,0.1019,0.8556,0.7,0,-0.1,0.003,0.004,-0.009,0
2018,4,25,17,11,44.415,0.1217,0.4925,0.1021,0.8556,0,0,0,0.004,0.007,-0.002,0
2018,4,25,17,11,44.435,0.1218,0.4925,0.1022,0.8556,0,0,0,0.003,0.001,-0.004,0
2018,4,25,17,11,44.455,0.1218,0.4925,0.1024,0.8555,0,0,0,0.003,-0.002,-0.001,0
2018,4,25,17,11,44.494,0.1219,0.4925,0.1025,0.8555,0,0,0,0.004,-0.002,-0.001,0
2018,4,25,17,11,44.513,0.122,0.4925,0.1026,0.8555,0,0,0,0.009,-0.005,0.002,0
2018,4,25,17,11,44.518,0.122,0.4924,0.1027,0.8555,0,0,0,0.012,-0.002,-0.004,0
2018,4,25,17,11,44.557,0.122,0.4924,0.1027,0.8556,-0.5,0,-0.4,0.009,-0.002,0,0
2018,4,25,17,11,44.577,0.122,0.4923,0.1027,0.8556,-0.5,-0.1,-0.2,0.009,-0.002,0.001,0
2018,4,25,17,11,44.581,0.122,0.4923,0.1028,0.8556,0,0,0,0.004,-0.004,0,0
2018,4,25,17,11,44.6,0.1221,0.4923,0.1029,0.8556,0,0,0,0,-0.001,-0.006,0
2018,4,25,17,11,44.615,0.1221,0.4923,0.103,0.8556,0,0,0,0.003,0.002,-0.004,0
2018,4,25,17,11,44.656,0.1221,0.4922,0.103,0.8556,-0.6,-0.3,0,0.002,0,-0.003,0
2018,4,25,17,11,44.675,0.1221,0.4922,0.103,0.8556,-0.5,-0.1,0.1,0.006,0,-0.005,0
2018,4,25,17,11,44.679,0.122,0.4921,0.103,0.8557,-0.6,0,0,0.007,0.001,-0.008,1023
2018,4,25,17,11,44.7,0.1219,0.4921,0.1029,0.8557,-1.3,-0.2,0.2,0.003,-0.001,-0.004,1023
2018,4,25,17,11,44.719,0.1219,0.492,0.1026,0.8558,-2,-0.5,0.1,0.002,-0.008,-0.002,1023
2018,4,25,17,11,44.74,0.1219,0.4919,0.1024,0.8559,-1.5,-0.3,0,0,-0.01,-0.004,1023
2018,4,25,17,11,44.76,0.1219,0.4918,0.1021,0.856,-0.7,-0.1,0,0.003,-0.011,0.009,1023
2018,4,25,17,11,44.796,0.1219,0.4917,0.1021,0.856,0.4,0,0.5,0.005,-0.012,0.008,1023
2018,4,25,17,11,44.816,0.1216,0.4916,0.1022,0.8561,2,0.1,0.5,0.008,-0.011,0.002,1023
2018,4,25,17,11,44.821,0.1214,0.4916,0.1027,0.8561,2.6,0,0.5,0.014,-0.003,-0.011,1023
2018,4,25,17,11,44.841,0.1212,0.4917,0.1032,0.856,1.9,0,0.5,0.013,0.005,-0.011,1023
2018,4,25,17,11,44.861,0.1211,0.4917,0.1036,0.856,0.7,-0.2,0.4,0.01,0.011,-0.009,1023
2018,4,25,17,11,44.881,0.1212,0.4917,0.1038,0.8559,0,0,0,0.001,0.004,-0.002,0
2018,4,25,17,11,44.901,0.1212,0.4917,0.104,0.8559,0,0,0,0.002,0.005,0.002,0
2018,4,25,17,11,44.919,0.1212,0.4917,0.104,0.8559,-0.7,-0.1,0,0.003,-0.002,0.001,0
2018,4,25,17,11,44.957,0.1212,0.4916,0.1039,0.856,-0.7,-0.4,-0.1,0.005,-0.005,0.004,0
2018,4,25,17,11,44.977,0.1212,0.4915,0.1039,0.856,0,-0.3,-0.5,0.012,-0.002,0.001,0
2018,4,25,17,11,44.982,0.1212,0.4914,0.104,0.8561,-0.4,-0.2,-0.5,0.013,0.001,0,0
2018,4,25,17,11,45.002,0.1211,0.4913,0.104,0.8561,-0.6,-0.1,-0.3,0.011,-0.004,-0.001,0
2018,4,25,17,11,45.022,0.121,0.4913,0.1038,0.8562,-1.3,0,-0.5,0.008,-0.004,-0.003,0
2018,4,25,17,11,45.061,0.1208,0.4913,0.1035,0.8563,-1.6,0.3,-0.5,0.002,-0.009,0.001,0
2018,4,25,17,11,45.082,0.1207,0.4913,0.1032,0.8563,-0.5,0.6,-0.2,0,-0.01,0.007,0
2018,4,25,17,11,45.086,0.1206,0.4913,0.1032,0.8563,0.6,0.5,-0.1,0.005,-0.01,0.011,0
2018,4,25,17,11,45.1,0.1205,0.4913,0.1034,0.8563,1.2,0.2,0,0.003,-0.007,-0.001,0
2018,4,25,17,11,45.135,0.1203,0.4913,0.1036,0.8563,1,0.2,0,0.011,-0.002,-0.002,0
2018,4,25,17,11,45.156,0.1202,0.4914,0.1038,0.8562,0.8,0.4,0.2,0.008,0,-0.006,0
2018,4,25,17,11,45.16,0.1201,0.4914,0.104,0.8562,0.7,0.2,0.2,0.005,-0.003,-0.004,0
2018,4,25,17,11,45.199,0.1199,0.4915,0.1041,0.8562,1,0,0,0.001,-0.004,-0.006,0
2018,4,25,17,11,45.218,0.1198,0.4916,0.1044,0.8561,0.7,0,-0.1,0.001,0.003,-0.011,0
2018,4,25,17,11,45.222,0.1198,0.4916,0.1045,0.8561,0,0,0,0.001,0.007,-0.007,0
2018,4,25,17,11,45.26,0.1199,0.4916,0.1047,0.856,0,0,0,0,0.003,0,0
2018,4,25,17,11,45.281,0.12,0.4916,0.1048,0.856,-0.5,-0.3,0.1,0.003,0.001,-0.003,0
2018,4,25,17,11,45.285,0.12,0.4915,0.1048,0.8561,-0.8,-0.4,0,0.004,-0.002,-0.004,0
2018,4,25,17,11,45.303,0.1199,0.4915,0.1047,0.8561,-0.8,-0.4,-0.3,0.002,-0.003,-0.004,0
2018,4,25,17,11,45.322,0.1198,0.4914,0.1046,0.8562,-0.5,-0.2,0,0.007,0,0.001,0
2018,4,25,17,11,45.343,0.1198,0.4913,0.1046,0.8562,0,0,0,0.008,-0.003,0.002,0
2018,4,25,17,11,45.379,0.1199,0.4913,0.1047,0.8562,0,0,0,0.006,-0.001,0.002,0
2018,4,25,17,11,45.399,0.12,0.4912,0.1048,0.8563,0,0,0,0.006,-0.004,-0.001,0
2018,4,25,17,11,45.404,0.12,0.4912,0.1049,0.8562,0,0,0,0.006,-0.002,-0.003,1023
2018,4,25,17,11,45.443,0.1201,0.4912,0.105,0.8562,0,0,0,0.008,-0.002,-0.005,1023
2018,4,25,17,11,45.463,0.1201,0.4912,0.1051,0.8562,0,0,0,0.006,0.002,-0.002,1023
2018,4,25,17,11,45.467,0.1202,0.4912,0.1052,0.8562,-0.5,0.2,0.1,0,0.002,-0.003,1023
2018,4,25,17,11,45.485,0.1201,0.4912,0.105,0.8562,-1.1,0.3,0.1,0.002,0,-0.002,1023
2018,4,25,17,11,45.504,0.1201,0.4912,0.1048,0.8562,-1.4,0,0.1,0,-0.008,-0.008,1023
2018,4,25,17,11,45.525,0.1201,0.4912,0.1046,0.8563,-0.8,0,0.1,-0.001,-0.008,0.003,1023
2018,4,25,17,11,45.563,0.12,0.4912,0.1045,0.8563,0,0,0,0.002,-0.007,0.002,1023
2018,4,25,17,11,45.582,0.12,0.4911,0.1045,0.8563,0,0,0,0.009,-0.004,0,1023
2018,4,25,17,11,45.586,0.1199,0.4911,0.1046,0.8563,1,0.6,0.5,0.013,-0.006,-0.006,1023
2018,4,25,17,11,45.603,0.1196,0.4912,0.1048,0.8563,1.6,0.6,0.4,0.009,-0.003,-0.006,1023
2018,4,25,17,11,45.624,0.1195,0.4913,0.1051,0.8562,1.3,0.3,0.4,0.007,0.004,-0.006,0
2018,4,25,17,11,45.661,0.1194,0.4914,0.1054,0.8562,0.8,0.3,0.2,0,0.004,-0.004,0
2018,4,25,17,11,45.68,0.1195,0.4914,0.1056,0.8561,0,0,0,0,0.006,-0.006,0
2018,4,25,17,11,45.684,0.1195,0.4914,0.1057,0.8561,0,0,0,0.002,0.003,-0.007,0
2018,4,25,17,11,45.704,0.1196,0.4914,0.1058,0.8561,0,0,0,0.008,0.001,0,0
2018,4,25,17,11,45.727,0.1197,0.4913,0.1059,0.8561,0,0,0,0.005,-0.003,-0.004,0
2018,4,25,17,11,45.747,0.1197,0.4913,0.106,0.8561,0,0,0,0.013,0.003,-0.007,0
2018,4,25,17,11,45.769,0.1196,0.4913,0.1061,0.8561,-0.6,0.2,-0.5,0.014,0.003,-0.005,0
2018,4,25,17,11,45.788,0.1195,0.4913,0.1059,0.8561,-1.3,0.3,-0.3,0.012,-0.002,-0.006,0
2018,4,25,17,11,45.81,0.1195,0.4914,0.1057,0.8561,-1.4,0.4,-0.3,0.005,-0.006,0.002,0
2018,4,25,17,11,45.825,0.1194,0.4913,0.1054,0.8562,-0.9,0.4,-0.3,0,-0.009,0.007,0
2018,4,25,17,11,45.863,0.1193,0.4913,0.1052,0.8562,0,0,0,-0.003,-0.011,0.004,0
2018,4,25,17,11,45.881,0.1192,0.4914,0.1052,0.8562,0.7,0.5,-0.1,0,-0.011,-0.002,0
2018,4,25,17,11,45.885,0.119,0.4915,0.1053,0.8562,1.4,0.8,0,0.007,-0.002,-0.003,0
2018,4,25,17,11,45.922,0.1187,0.4916,0.1055,0.8561,1,0.8,0.2,0.011,0,-0.006,0
2018,4,25,17,11,45.942,0.1187,0.4917,0.1057,0.856,0.8,0.8,0.4,0.01,-0.001,-0.006,0
2018,4,25,17,11,45.946,0.1186,0.4918,0.1059,0.856,0.8,0.6,0.2,0.004,-0.002,-0.005,0
2018,4,25,17,11,45.985,0.1184,0.4919,0.1061,0.8559,1,0.5,0.2,0.002,-0.002,-0.006,0
2018,4,25,17,11,46.007,0.1183,0.492,0.1063,0.8558,1,0.2,0,0.001,0.005,-0.005,0
2018,4,25,17,11,46.011,0.1182,0.4921,0.1065,0.8558,0.6,0.2,0.1,0.004,0.005,-0.004,0
2018,4,25,17,11,46.024,0.1182,0.4921,0.1067,0.8558,0,0,0,0.005,0.004,-0.006,0
2018,4,25,17,11,46.064,0.1182,0.4921,0.1068,0.8557,0,0,0,0.004,-0.002,-0.008,0
2018,4,25,17,11,46.083,0.1183,0.4921,0.1069,0.8557,0,0,0,0.006,-0.006,0,0
2018,4,25,17,11,46.086,0.1183,0.4921,0.107,0.8557,0.4,-0.1,-0.5,0.008,0,-0.001,0
2018,4,25,17,11,46.124,0.118,0.4921,0.107,0.8558,0.5,-0.1,-0.3,0.008,0,0,0
2018,4,25,17,11,46.145,0.118,0.492,0.1072,0.8558,0,0,0,0.006,0.002,-0.002,0
2018,4,25,17,11,46.149,0.1181,0.4921,0.1072,0.8557,-0.5,0.2,-0.1,0.006,-0.006,-0.006,0
2018,4,25,17,11,46.168,0.118,0.4921,0.1071,0.8557,0,0,0,0.008,-0.002,0,1023
2018,4,25,17,11,46.188,0.1181,0.492,0.1072,0.8557,0,0,0,0.006,-0.001,-0.006,1023
2018,4,25,17,11,46.228,0.1181,0.492,0.1073,0.8557,-0.4,0,-0.5,0.005,0.003,-0.004,1023
2018,4,25,17,11,46.247,0.118,0.492,0.1071,0.8558,-1.5,-0.4,-0.3,0,-0.002,-0.005,1023
2018,4,25,17,11,46.251,0.1179,0.4919,0.1068,0.8559,-1.1,-0.4,-0.1,-0.002,-0.008,0,1023
2018,4,25,17,11,46.289,0.1177,0.4919,0.1067,0.856,0,0,0,0,-0.01,0.003,1023
2018,4,25,17,11,46.293,0.1176,0.4918,0.1067,0.856,1.1,0,0.3,0.001,-0.012,0,1023
2018,4,25,17,11,46.309,0.1174,0.4919,0.1069,0.856,1.6,0.3,0.5,0.005,-0.009,-0.004,1023
2018,4,25,17,11,46.347,0.1171,0.4919,0.1071,0.8559,1.9,0.2,0.5,0.007,-0.004,-0.002,1023
2018,4,25,17,11,46.366,0.1169,0.492,0.1075,0.8559,1.8,0.2,0.4,0.007,0.001,-0.009,1023
2018,4,25,17,11,46.37,0.1168,0.4921,0.1079,0.8558,1.4,0.1,0.4,0.009,0.006,-0.004,1023
2018,4,25,17,11,46.39,0.1167,0.4921,0.1082,0.8558,0,0,0,0.006,0.008,-0.006,0
2018,4,25,17,11,46.409,0.1168,0.4921,0.1084,0.8557,0,0,0,0.002,0.005,-0.007,0
2018,4,25,17,11,46.429,0.1168,0.4921,0.1084,0.8557,0,0,0,0.004,-0.001,-0.006,0
2018,4,25,17,11,46.451,0.1169,0.4921,0.1085,0.8557,0,0,0,0.007,0,0.001,0
2018,4,25,17,11,46.471,0.1169,0.4921,0.1086,0.8557,0,0,0,0.012,-0.001,-0.005,0
2018,4,25,17,11,46.492,0.1169,0.492,0.1086,0.8558,-0.9,-0.5,-0.3,0.01,0,-0.003,0
2018,4,25,17,11,46.512,0.1168,0.4919,0.1085,0.8559,-0.8,-0.4,-0.6,0.009,-0.001,-0.006,0
2018,4,25,17,11,46.531,0.1166,0.4918,0.1083,0.8559,-1.1,-0.4,-0.6,0.006,-0.001,0,0
2018,4,25,17,11,46.55,0.1166,0.4917,0.108,0.856,-1.4,-0.3,-0.4,0.002,-0.006,0.006,0
2018,4,25,17,11,46.571,0.1165,0.4916,0.1078,0.8561,-0.9,-0.1,-0.1,0.002,-0.004,0.003,0
2018,4,25,17,11,46.591,0.1166,0.4916,0.1078,0.8562,0,0,0,0.005,-0.009,0,0
2018,4,25,17,11,46.612,0.1165,0.4915,0.1078,0.8562,0.7,0.3,0.1,0.006,-0.013,-0.004,0
2018,4,25,17,11,46.648,0.1163,0.4916,0.1079,0.8562,1.1,0.2,0,0.008,-0.007,0,0
2018,4,25,17,11,46.669,0.1161,0.4916,0.1081,0.8562,1.2,0,-0.1,0.005,-0.003,-0.007,0
2018,4,25,17,11,46.673,0.1159,0.4916,0.1083,0.8561,1.4,-0.1,0,0.003,0.002,-0.006,0
2018,4,25,17,11,46.692,0.1157,0.4917,0.1086,0.8561,0.9,-0.2,0.1,0,0.006,-0.007,0
2018,4,25,17,11,46.712,0.1156,0.4917,0.1088,0.8561,0,0,0,0.001,0.004,-0.001,0
2018,4,25,17,11,46.751,0.1157,0.4917,0.1089,0.856,0,0,0,0.008,0.001,-0.005,0
2018,4,25,17,11,46.755,0.1157,0.4917,0.109,0.856,0,0,0,0.007,-0.003,-0.006,0
2018,4,25,17,11,46.771,0.1158,0.4917,0.1091,0.856,0,0,0,0.005,-0.003,-0.001,0
2018,4,25,17,11,46.791,0.1158,0.4917,0.1092,0.856,0,0,0,0.008,-0.003,0,0
2018,4,25,17,11,46.811,0.1159,0.4917,0.1093,0.856,0,-0.5,-0.2,0.007,0.005,-0.001,0
2018,4,25,17,11,46.85,0.1159,0.4916,0.1094,0.856,0,0,0,0.007,-0.001,0.002,0
2018,4,25,17,11,46.87,0.116,0.4916,0.1095,0.856,-0.2,-0.5,-0.1,0.005,0,-0.002,0
2018,4,25,17,11,46.876,0.116,0.4915,0.1094,0.856,-0.6,-0.2,-0.4,0.004,-0.002,-0.006,0
2018,4,25,17,11,46.894,0.1159,0.4915,0.1094,0.8561,0,0,0,0.01,-0.003,-0.006,0
2018,4,25,17,11,46.915,0.1159,0.4915,0.1095,0.8561,0,0,0,0.009,0.003,-0.001,0
2018,4,25,17,11,46.95,0.1159,0.4914,0.1094,0.8561,-1,-0.2,0,0.009,0.006,-0.002,0
2018,4,25,17,11,46.954,0.116,0.4913,0.1093,0.8562,-2,-0.2,-0.1,0.001,-0.004,0,0
2018,4,25,17,11,46.973,0.116,0.4912,0.1089,0.8563,-1.8,-0.4,0,-0.004,-0.015,-0.001,1023
2018,4,25,17,11,46.991,0.1159,0.4911,0.1085,0.8564,-0.6,-0.4,-0.1,-0.003,-0.017,0.004,1023
2018,4,25,17,11,47.011,0.1158,0.4911,0.1085,0.8564,0.7,-0.3,-0.1,0.004,-0.009,0.005,1023
2018,4,25,17,11,47.049,0.1156,0.491,0.1086,0.8565,1.4,-0.1,0.3,0.007,-0.005,-0.003,1023
2018,4,25,17,11,47.071,0.1154,0.491,0.1089,0.8565,1.4,0,0.4,0.008,-0.004,-0.006,1023
2018,4,25,17,11,47.076,0.1153,0.4911,0.1092,0.8564,1.4,0,0.4,0.007,0,-0.004,1023
2018,4,25,17,11,47.096,0.1152,0.4911,0.1095,0.8564,1.2,0,0.4,0.007,0.007,-0.008,1023
2018,4,25,17,11,47.114,0.1152,0.4911,0.1098,0.8563,0.6,-0.2,0.3,0.002,0.003,-0.006,1023
2018,4,25,17,11,47.136,0.1152,0.4911,0.11,0.8563,0,0,0,0.002,0.007,-0.007,1023
2018,4,25,17,11,47.156,0.1153,0.4911,0.1101,0.8563,-0.6,-0.2,0.1,0.006,0.002,-0.006,1023
2018,4,25,17,11,47.176,0.1153,0.4911,0.1101,0.8563,-0.5,-0.4,0,0.01,-0.001,0,1023
2018,4,25,17,11,47.196,0.1152,0.491,0.1101,0.8564,0,-0.5,0,0.009,0.002,0,0
2018,4,25,17,11,47.233,0.1152,0.4909,0.1102,0.8565,-0.3,-0.7,-0.4,0.01,0.004,-0.001,0
2018,4,25,17,11,47.255,0.1151,0.4907,0.1101,0.8565,-0.6,-0.4,-0.3,0.011,-0.001,-0.011,0
2018,4,25,17,11,47.26,0.115,0.4907,0.11,0.8566,-1,-0.3,-0.5,0.008,0,-0.005,0
2018,4,25,17,11,47.276,0.1148,0.4906,0.1097,0.8567,-1.5,-0.2,-0.6,0.005,-0.002,0.002,0
2018,4,25,17,11,47.294,0.1149,0.4905,0.1095,0.8568,-1.2,-0.3,-0.6,0.002,-0.004,0.005,0
2018,4,25,17,11,47.33,0.1148,0.4904,0.1093,0.8569,0,0,0,0.003,-0.009,0.005,0
2018,4,25,17,11,47.35,0.1148,0.4904,0.1093,0.8569,0,0,0,0.005,-0.007,0.001,0
2018,4,25,17,11,47.356,0.1148,0.4903,0.1094,0.8569,0,0,0,0.007,-0.005,0.004,0
2018,4,25,17,11,47.394,0.1147,0.4903,0.1094,0.8569,0.5,0.2,-0.1,0.007,-0.003,-0.006,0
2018,4,25,17,11,47.415,0.1146,0.4903,0.1095,0.8569,0.5,0.2,-0.1,0.006,-0.003,-0.006,0
2018,4,25,17,11,47.419,0.1146,0.4903,0.1096,0.8569,0.6,0,-0.1,0.001,0,-0.006,0
2018,4,25,17,11,47.44,0.1146,0.4904,0.1097,0.8569,0,0,0,0.005,0.003,-0.006,0
2018,4,25,17,11,47.46,0.1147,0.4904,0.1099,0.8568,0,0,0,0.003,0.002,-0.009,0
2018,4,25,17,11,47.475,0.1147,0.4904,0.1099,0.8568,0,0,0,0.002,0,-0.005,0
2018,4,25,17,11,47.497,0.1147,0.4904,0.11,0.8568,0,0,0,0.002,-0.004,-0.003,0
2018,4,25,17,11,47.517,0.1148,0.4904,0.11,0.8568,0,0,0,0.011,-0.001,-0.002,0
2018,4,25,17,11,47.535,0.1147,0.4903,0.1101,0.8568,0.5,-0.1,0,0.011,0,0,0
2018,4,25,17,11,47.557,0.1147,0.4903,0.1102,0.8568,0,0,0,0.006,-0.002,-0.002,0
2018,4,25,17,11,47.594,0.1148,0.4903,0.1103,0.8568,0,0,0,0.005,-0.006,-0.005,0
2018,4,25,17,11,47.615,0.1148,0.4903,0.1103,0.8568,0,0,0,0.002,0,-0.001,0
2018,4,25,17,11,47.619,0.1148,0.4903,0.1104,0.8568,0.5,-0.3,-0.1,0.001,0,-0.003,0
2018,4,25,17,11,47.64,0.1147,0.4903,0.1105,0.8568,0,0,0,0,0.007,-0.003,0
2018,4,25,17,11,47.661,0.1148,0.4903,0.1105,0.8568,-0.7,-0.2,0,0.007,0,-0.009,0
2018,4,25,17,11,47.675,0.1148,0.4903,0.1105,0.8568,-0.6,-0.1,0,0.012,0.001,-0.005,0
2018,4,25,17,11,47.71,0.1148,0.4902,0.1104,0.8568,-1.1,-0.2,0.1,0.007,-0.001,-0.001,0
2018,4,25,17,11,47.729,0.1148,0.4901,0.1102,0.8569,-1.6,-0.5,0.1,0.005,-0.004,-0.007,0
2018,4,25,17,11,47.739,0.1148,0.49,0.1099,0.857,-1.8,-0.5,-0.1,0,-0.009,0,0
2018,4,25,17,11,47.757,0.1148,0.4899,0.1096,0.8571,-1.2,-0.4,-0.2,0.001,-0.008,0.001,0
2018,4,25,17,11,47.778,0.1146,0.4898,0.1094,0.8572,0,0,0,0.002,-0.009,0.01,0
2018,4,25,17,11,47.815,0.1145,0.4897,0.1094,0.8573,0.8,-0.2,0,0.005,-0.008,0.004,0
2018,4,25,17,11,47.835,0.1143,0.4896,0.1096,0.8573,1.2,-0.2,0.1,0.01,-0.002,0,1023
2018,4,25,17,11,47.839,0.1142,0.4897,0.1098,0.8573,1.3,0,0.3,0.01,0,-0.011,1023
2018,4,25,17,11,47.876,0.1141,0.4897,0.1101,0.8573,1.1,0.3,0.5,0.008,0.002,-0.007,1023
2018,4,25,17,11,47.899,0.114,0.4898,0.1103,0.8572,0,0,0,0.004,0.003,-0.006,1023
2018,4,25,17,11,47.903,0.1139,0.4898,0.1104,0.8572,0.7,0,0.1,0.001,0.002,-0.005,1023
2018,4,25,17,11,47.915,0.1139,0.4898,0.1106,0.8572,0,0,0,0.003,0.001,-0.006,1023
2018,4,25,17,11,47.956,0.114,0.4898,0.1107,0.8572,-0.5,-0.2,0,0.008,0,0,1023
2018,4,25,17,11,47.976,0.1139,0.4897,0.1106,0.8572,-0.6,-0.5,-0.2,0.011,0,-0.006,1023
2018,4,25,17,11,47.98,0.1139,0.4896,0.1106,0.8573,-0.6,-0.7,-0.2,0.012,0.003,-0.008,1023
2018,4,25,17,11,47.999,0.1139,0.4894,0.1105,0.8574,-1.1,-0.3,-0.3,0.009,0.003,-0.004,1023
2018,4,25,17,11,48.018,0.1139,0.4894,0.1104,0.8574,-1.4,-0.1,-0.3,0.007,-0.003,-0.006,1023
2018,4,25,17,11,48.067,0.1139,0.4894,0.1101,0.8575,-1.5,0,-0.5,0.004,-0.006,0.003,0
2018,4,25,17,11,48.071,0.1139,0.4893,0.1099,0.8575,-1,0,-0.6,0.002,-0.009,0.009,0
2018,4,25,17,11,48.081,0.1138,0.4893,0.1097,0.8576,0,0,0,0.001,-0.008,0.007,0
2018,4,25,17,11,48.103,0.1137,0.4892,0.1097,0.8577,0,0,0,0.008,-0.004,0,0
2018,4,25,17,11,48.122,0.1138,0.4892,0.1097,0.8577,0,0,0,0.005,-0.004,-0.005,0
2018,4,25,17,11,48.143,0.1138,0.4891,0.1098,0.8577,0,0,0,0.008,-0.004,-0.001,0
2018,4,25,17,11,48.163,0.1138,0.4892,0.1099,0.8576,0.7,0.2,0.1,0.005,-0.002,-0.003,0
2018,4,25,17,11,48.179,0.1136,0.4892,0.11,0.8576,0.6,-0.1,0,0.002,-0.001,-0.007,0
2018,4,25,17,11,48.199,0.1136,0.4892,0.1101,0.8576,0,0,0,0.001,0.005,-0.004,0
2018,4,25,17,11,48.219,0.1137,0.4892,0.1102,0.8576,0,0,0,0,0.003,-0.004,0
2018,4,25,17,11,48.24,0.1137,0.4893,0.1103,0.8575,0,0,0,0.002,0.002,-0.005,0
2018,4,25,17,11,48.26,0.1138,0.4893,0.1104,0.8575,0,0,0,0.005,0,-0.003,0
2018,4,25,17,11,48.282,0.1138,0.4892,0.1104,0.8575,0,0,0,0.005,-0.003,0.001,0
2018,4,25,17,11,48.304,0.1138,0.4892,0.1105,0.8575,0,0,0,0.008,0.002,-0.001,0
2018,4,25,17,11,48.322,0.1138,0.4892,0.1105,0.8575,0,0,0,0.013,0,-0.002,0
2018,4,25,17,11,48.362,0.1139,0.4891,0.1106,0.8575,0,0,0,0.013,0,-0.004,0
2018,4,25,17,11,48.382,0.1139,0.4891,0.1106,0.8576,0,0,0,0.007,-0.006,-0.003,0
2018,4,25,17,11,48.386,0.1139,0.4891,0.1106,0.8576,0,0,0,0.002,-0.006,-0.001,0
2018,4,25,17,11,48.4,0.1139,0.489,0.1106,0.8576,0.2,0,-0.5,-0.001,-0.004,-0.002,0
2018,4,25,17,11,48.438,0.1138,0.489,0.1106,0.8576,0.7,-0.1,-0.1,0,0,0,0
2018,4,25,17,11,48.458,0.1136,0.4891,0.1108,0.8576,0.5,-0.1,0,0.005,0.003,-0.002,0
2018,4,25,17,11,48.463,0.1137,0.489,0.1109,0.8576,0,0,0,0.007,0.005,-0.003,0
2018,4,25,17,11,48.483,0.1136,0.4891,0.1108,0.8576,-0.6,0.2,0.1,0.01,0.002,-0.008,0
2018,4,25,17,11,48.52,0.1137,0.4891,0.1108,0.8576,-0.8,0.5,0.2,0.008,-0.003,-0.007,0
2018,4,25,17,11,48.54,0.1138,0.4892,0.1107,0.8575,-0.5,0.3,0.2,0.005,-0.002,-0.003,0
2018,4,25,17,11,48.544,0.1139,0.4891,0.1107,0.8575,-1.1,0,0.1,0.004,0,-0.002,0
2018,4,25,17,11,48.565,0.1139,0.4891,0.1105,0.8576,-1.1,-0.2,0,0.001,-0.007,0,0
2018,4,25,17,11,48.586,0.1139,0.489,0.1103,0.8577,-0.7,-0.1,-0.1,-0.002,-0.008,0.002,0
2018,4,25,17,11,48.603,0.1139,0.489,0.1102,0.8577,0,0,0,-0.002,-0.014,0.005,0
2018,4,25,17,11,48.622,0.1137,0.489,0.1102,0.8577,1.2,0,0.1,0.009,-0.01,0,0
2018,4,25,17,11,48.642,0.1135,0.489,0.1105,0.8577,1.9,0.1,0.4,0.013,0.001,-0.005,1023
2018,4,25,17,11,48.679,0.1134,0.489,0.1109,0.8576,1.8,0.2,0.4,0.013,0.005,-0.005,1023
2018,4,25,17,11,48.699,0.1133,0.4891,0.1112,0.8576,0.5,0.6,0.4,0.007,0.003,-0.006,1023
2018,4,25,17,11,48.703,0.1133,0.4892,0.1113,0.8575,0,0.5,0.5,0.005,0,-0.006,1023
2018,4,25,17,11,48.724,0.1134,0.4892,0.1114,0.8574,0,0,0,0.004,0,-0.004,1023
2018,4,25,17,11,48.742,0.1134,0.4892,0.1115,0.8574,0,0,0,0.006,0.002,0.001,1023
2018,4,25,17,11,48.782,0.1135,0.4892,0.1116,0.8574,-0.5,0,0,0.008,0.004,-0.004,1023
2018,4,25,17,11,48.802,0.1135,0.4892,0.1115,0.8575,-0.5,0,0.1,0.01,0,-0.001,1023
2018,4,25,17,11,48.806,0.1135,0.4891,0.1114,0.8575,-0.5,0,-0.1,0.011,0,0,0
2018,4,25,17,11,48.842,0.1134,0.4891,0.1113,0.8575,-0.6,0.1,-0.1,0.011,-0.004,-0.002,0
2018,4,25,17,11,48.863,0.1133,0.4891,0.1112,0.8576,-0.8,0.1,-0.3,0.007,0,-0.006,0
2018,4,25,17,11,48.867,0.1132,0.4891,0.111,0.8576,-0.9,0.3,-0.3,0.004,-0.008,0,0
2018,4,25,17,11,48.885,0.113,0.4891,0.1107,0.8577,-0.5,0.5,-0.3,0.002,-0.005,0.001,0
2018,4,25,17,11,48.905,0.113,0.4891,0.1107,0.8576,0.2,0.5,0.1,0.003,-0.004,0.005,0
2018,4,25,17,11,48.925,0.1129,0.4891,0.1107,0.8576,0.9,0.5,0,0.003,-0.005,0.004,0
2018,4,25,17,11,48.964,0.1128,0.4892,0.1108,0.8576,0.5,0.3,0.1,0.008,-0.002,-0.003,0
2018,4,25,17,11,48.985,0.1127,0.4893,0.1109,0.8576,0,0,0,0.006,-0.003,-0.006,0
2018,4,25,17,11,48.989,0.1127,0.4893,0.111,0.8575,0.8,0.5,0.2,0.007,-0.004,-0.004,0
2018,4,25,17,11,49.024,0.1125,0.4894,0.1112,0.8575,0.9,0.1,0.1,0.007,-0.002,-0.006,0
2018,4,25,17,11,49.044,0.1123,0.4894,0.1114,0.8575,0.8,0.2,0.2,0.004,0.001,-0.008,0
2018,4,25,17,11,49.048,0.1122,0.4895,0.1115,0.8575,0,0,0,0.003,0.003,-0.008,0
2018,4,25,17,11,49.067,0.1123,0.4895,0.1116,0.8574,0,0,0,0.003,0.005,-0.005,0
2018,4,25,17,11,49.105,0.1124,0.4895,0.1118,0.8574,0,0,0,0.006,0.007,-0.002,0
2018,4,25,17,11,49.11,0.1124,0.4895,0.1119,0.8574,0,0,0,0.008,0,-0.006,0
2018,4,25,17,11,49.127,0.1124,0.4895,0.1119,0.8574,0,0,0,0.004,-0.006,0.002,0
2018,4,25,17,11,49.145,0.1124,0.4895,0.1119,0.8574,0,0,0,0.007,-0.007,-0.004,0
2018,4,25,17,11,49.164,0.1124,0.4894,0.1119,0.8574,0.2,0.1,-0.5,0.005,0,-0.001,0
2018,4,25,17,11,49.202,0.1125,0.4894,0.112,0.8574,0,0,0,0.011,0.001,-0.003,0
2018,4,25,17,11,49.222,0.1125,0.4894,0.1121,0.8574,0,0,0,0.006,-0.001,-0.001,0
2018,4,25,17,11,49.229,0.1125,0.4894,0.1122,0.8574,-0.5,0.2,-0.3,0.001,-0.002,-0.003,0
2018,4,25,17,11,49.249,0.1125,0.4894,0.1121,0.8574,0,0,0,0.002,-0.008,0,0
2018,4,25,17,11,49.27,0.1124,0.4894,0.1121,0.8574,0.5,0.2,0,0.004,-0.007,-0.001,0
2018,4,25,17,11,49.289,0.1124,0.4894,0.1123,0.8574,0.8,0.3,0,0.004,0.002,-0.003,0
2018,4,25,17,11,49.309,0.1124,0.4894,0.1125,0.8573,0.5,0.2,0,0.007,0.001,-0.003,0
2018,4,25,17,11,49.326,0.1125,0.4894,0.1125,0.8573,0,0,0,0.007,0,-0.009,0
2018,4,25,17,11,49.363,0.1125,0.4895,0.1126,0.8573,0,0,0,0.008,0.006,-0.009,0
2018,4,25,17,11,49.383,0.1126,0.4895,0.1127,0.8572,-0.5,0.3,0,0.003,0.005,-0.002,0
2018,4,25,17,11,49.387,0.1127,0.4896,0.1127,0.8572,-1.7,0.2,0,0.003,0.001,0,0
2018,4,25,17,11,49.423,0.1129,0.4895,0.1123,0.8573,-2.3,-0.2,-0.1,-0.003,-0.009,0.008,0
2018,4,25,17,11,49.444,0.1129,0.4894,0.112,0.8573,-0.5,-0.1,0.1,-0.002,-0.016,0.003,0
2018,4,25,17,11,49.448,0.1128,0.4894,0.1119,0.8574,0.9,0,0.1,0,-0.008,0.003,1023
2018,4,25,17,11,49.487,0.1127,0.4894,0.1121,0.8573,1.7,0.4,0.4,0.007,-0.004,-0.006,1023
2018,4,25,17,11,49.509,0.1125,0.4895,0.1125,0.8573,2,0.2,0.4,0.012,-0.006,-0.007,1023
2018,4,25,17,11,49.514,0.1124,0.4895,0.1128,0.8572,2.1,0.2,0.5,0.012,-0.003,-0.008,1023
2018,4,25,17,11,49.533,0.1123,0.4897,0.1132,0.8571,1.9,0.3,0.4,0.01,0.004,-0.008,1023
2018,4,25,17,11,49.552,0.1121,0.4898,0.1135,0.857,1.2,0.4,0,0.002,0.004,-0.008,1023
2018,4,25,17,11,49.574,0.1119,0.4899,0.1137,0.857,0.7,0.2,0,0,0.013,-0.006,1023
2018,4,25,17,11,49.589,0.1119,0.4899,0.1139,0.8569,0,0,0,0.001,0.007,-0.003,1023
2018,4,25,17,11,49.627,0.1119,0.4899,0.1139,0.8569,-0.5,-0.1,0,0.007,0.004,0.001,1023
2018,4,25,17,11,49.649,0.112,0.4899,0.1139,0.8569,0,0,0,0.008,-0.002,-0.006,1023
2018,4,25,17,11,49.653,0.112,0.4899,0.114,0.8569,0,0,0,0.014,-0.001,-0.005,1023
2018,4,25,17,11,49.67,0.1119,0.4899,0.1139,0.857,-0.8,-0.1,-0.5,0.01,-0.004,-0.007,1023
2018,4,25,17,11,49.71,0.1118,0.4898,0.1137,0.857,-0.8,0,-0.6,0.009,-0.003,0,1023
2018,4,25,17,11,49.731,0.1118,0.4898,0.1135,0.8571,-1.1,0.1,-0.3,0.004,0,0.004,0
2018,4,25,17,11,49.735,0.1118,0.4898,0.1133,0.8571,-0.9,0.2,-0.1,0.003,-0.005,0.009,0
2018,4,25,17,11,49.753,0.1118,0.4897,0.1132,0.8572,0,0,0,0.004,-0.011,0.003,0
2018,4,25,17,11,49.792,0.1117,0.4897,0.1131,0.8572,0.8,0.3,0,0.003,-0.011,-0.002,0
2018,4,25,17,11,49.81,0.1116,0.4898,0.1133,0.8571,1.6,0.5,0.2,0.004,-0.007,-0.001,0
2018,4,25,17,11,49.814,0.1115,0.4899,0.1136,0.857,1.5,0.3,0.1,0.005,-0.001,-0.005,0
2018,4,25,17,11,49.835,0.1113,0.4899,0.1138,0.857,1.3,0.1,0.1,0.007,0.003,-0.004,0
2018,4,25,17,11,49.856,0.1112,0.49,0.1141,0.857,0.7,-0.2,0,0.005,0.002,-0.013,0
2018,4,25,17,11,49.872,0.1112,0.49,0.1142,0.8569,0.6,0,0,0.002,0.005,-0.012,0
2018,4,25,17,11,49.892,0.1112,0.4901,0.1144,0.8569,0,0,0,0,0.003,-0.005,0
2018,4,25,17,11,49.912,0.1113,0.4901,0.1145,0.8568,0,0,0,0.001,0.004,-0.002,0
2018,4,25,17,11,49.932,0.1113,0.49,0.1144,0.8569,-0.8,-0.4,0,0.001,-0.003,-0.001,0
2018,4,25,17,11,49.973,0.1113,0.49,0.1143,0.8569,0,0,0,0.01,-0.004,0,0
2018,4,25,17,11,49.993,0.1114,0.4899,0.1144,0.8569,0,0,0,0.006,-0.004,0.001,1023
2018,4,25,17,11,49.997,0.1114,0.4899,0.1144,0.8569,0,0,0,0.01,-0.001,-0.006,1023
2018,4,25,17,11,50.016,0.1114,0.4898,0.1144,0.857,-0.3,-0.2,-0.5,0.012,-0.004,-0.002,1023
2018,4,25,17,11,50.052,0.1114,0.4898,0.1145,0.857,0,0,0,0.011,-0.003,-0.004,1023
2018,4,25,17,11,50.072,0.1114,0.4898,0.1145,0.857,0,0,0,0,-0.005,0,1023
2018,4,25,17,11,50.077,0.1114,0.4898,0.1145,0.857,0,0,0,0.001,-0.003,0.004,1023
2018,4,25,17,11,50.115,0.1114,0.4898,0.1145,0.857,0,0,0,0.003,0,0.001,1023
2018,4,25,17,11,50.134,0.1114,0.4897,0.1145,0.857,0,0,0,0.004,-0.002,-0.003,1023
2018,4,25,17,11,50.139,0.1114,0.4897,0.1146,0.857,0,0,0,0.007,0,-0.005,1023
2018,4,25,17,11,50.153,0.1115,0.4897,0.1146,0.857,0,0,0,0.008,-0.008,-0.007,1023
2018,4,25,17,11,50.19,0.1115,0.4897,0.1146,0.857,0,0,0,0.008,-0.002,0,1023
2018,4,25,17,11,50.21,0.1115,0.4897,0.1146,0.857,0,0,0,0.006,-0.001,-0.001,1023
2018,4,25,17,11,50.214,0.1115,0.4897,0.1147,0.857,-0.5,-0.1,0,0.001,0.006,-0.001,1023
2018,4,25,17,11,50.251,0.1115,0.4897,0.1145,0.857,-1.2,-0.3,0,-0.001,-0.003,-0.004,1023
2018,4,25,17,11,50.27,0.1115,0.4896,0.1143,0.8571,-0.9,-0.3,0,0.002,-0.008,0,1023
2018,4,25,17,11,50.275,0.1115,0.4895,0.1142,0.8572,0,0,0,0,-0.008,0.005,1023
2018,4,25,17,11,50.315,0.1115,0.4895,0.1142,0.8572,0.5,-0.2,0.1,0.003,-0.008,0.004,1023
2018,4,25,17,11,50.337,0.1113,0.4894,0.1143,0.8572,1.2,-0.1,0.4,0.01,-0.005,0,0
2018,4,25,17,11,50.341,0.1111,0.4894,0.1145,0.8572,1.5,0.1,0.2,0.012,-0.003,-0.006,0
2018,4,25,17,11,50.378,0.111,0.4895,0.1148,0.8572,1.4,0.2,0.2,0.01,0,-0.009,0
2018,4,25,17,11,50.397,0.1109,0.4895,0.1151,0.8571,1.2,0,0.2,0.006,0.006,-0.003,0
2018,4,25,17,11,50.401,0.1107,0.4896,0.1153,0.8571,0.5,0,0,0.002,0.008,-0.007,0
2018,4,25,17,11,50.416,0.1108,0.4896,0.1154,0.8571,0,0,0,0.004,0.008,-0.008,0
2018,4,25,17,11,50.454,0.1109,0.4897,0.1152,0.857,-5.8,0.9,-2.9,-0.052,-0.034,-0.034,0
2018,4,25,17,11,50.474,0.1103,0.4899,0.1137,0.8572,-2.1,-0.1,-6.5,-0.024,-0.091,-0.011,0
2018,4,25,17,11,50.478,0.109,0.4901,0.1119,0.8575,-2.2,1.1,-12,0.008,-0.13,-0.012,0
2018,4,25,17,11,50.496,0.1065,0.4906,0.1094,0.8578,-4.1,1.7,-16.1,0.008,-0.065,-0.017,0
2018,4,25,17,11,50.517,0.1045,0.4913,0.1063,0.8581,-8.6,2.1,-14.9,-0.051,-0.056,0.02,0
2018,4,25,17,11,50.557,0.1025,0.4915,0.1049,0.8584,8.3,-1.3,-10.3,-0.047,0.059,0.073,0
2018,4,25,17,11,50.576,0.1008,0.4913,0.1059,0.8586,5.6,-4.4,-5.5,0.038,0.159,-0.004,0
2018,4,25,17,11,50.58,0.0996,0.4912,0.107,0.8586,3.7,-2.1,-3.7,-0.069,0.065,-0.009,0
2018,4,25,17,11,50.601,0.0991,0.491,0.108,0.8586,9.6,-4,0.2,-0.094,0.019,-0.03,0
2018,4,25,17,11,50.621,0.0988,0.4911,0.1093,0.8585,-0.3,-7.9,1.3,-0.152,0.028,-0.04,0
2018,4,25,17,11,50.638,0.0981,0.4901,0.1094,0.8591,8.7,-14.5,-1.4,-0.168,-0.057,0.047,0
2018,4,25,17,11,50.657,0.0958,0.488,0.1108,0.8604,17.8,-19.4,-3.1,-0.152,-0.081,0.056,0
2018,4,25,17,11,50.678,0.0922,0.4854,0.1151,0.8617,49.3,-26.1,3.5,-0.179,-0.1,0.078,0
2018,4,25,17,11,50.699,0.0862,0.4824,0.1264,0.8624,90.7,-28.5,11.8,-0.175,-0.017,0.071,0
2018,4,25,17,11,50.718,0.08,0.4803,0.1427,0.8616,96.8,-20.7,20.1,-0.144,0.042,-0.07,0
2018,4,25,17,11,50.737,0.0756,0.4786,0.1594,0.86,91.8,-13.1,31.6,-0.131,0.066,-0.15,0
2018,4,25,17,11,50.757,0.0743,0.4774,0.1747,0.8578,63.7,-3.1,39,-0.079,0.148,-0.241,0
2018,4,25,17,11,50.793,0.0773,0.4768,0.1839,0.856,14.7,4.2,41.3,-0.03,0.077,-0.303,0
2018,4,25,17,11,50.812,0.0843,0.4763,0.1864,0.855,-18.1,7.3,42.4,-0.04,-0.07,-0.287,0
2018,4,25,17,11,50.82,0.0928,0.4758,0.1872,0.8543,-13.1,7.5,46.5,-0.066,-0.155,-0.205,0
2018,4,25,17,11,50.836,0.1001,0.4752,0.1913,0.8529,14.7,6.6,50.5,-0.11,-0.121,-0.059,0
2018,4,25,17,11,50.855,0.106,0.4746,0.1984,0.8509,20.5,2.4,51,-0.222,-0.078,0.041,0
2018,4,25,17,11,50.896,0.1108,0.4727,0.2069,0.8493,41.4,-10.9,54,-0.265,-0.143,0.16,0
2018,4,25,17,11,50.915,0.1136,0.4692,0.2204,0.8475,70.6,-21.5,62.1,-0.216,-0.019,0.099,0
2018,4,25,17,11,50.919,0.1158,0.4653,0.2367,0.8449,63.9,-16.6,67.8,-0.143,0.128,-0.136,0
2018,4,25,17,11,50.958,0.1225,0.4612,0.2466,0.8434,1.8,-8.1,68.3,-0.128,0.068,-0.273,0
2018,4,25,17,11,50.979,0.1316,0.4573,0.251,0.8428,-0.7,-4.9,61.3,-0.125,-0.176,-0.263,0
2018,4,25,17,11,50.983,0.1386,0.4543,0.2588,0.841,41.1,-3.6,64.9,-0.036,-0.158,-0.083,1023
2018,4,25,17,11,51.001,0.1432,0.453,0.2718,0.8368,57.9,3.4,66,-0.026,0.046,-0.02,1023
2018,4,25,17,11,51.021,0.1501,0.4517,0.2832,0.8325,19,6,65.6,-0.007,0.05,0.018,1023
2018,4,25,17,11,51.06,0.1602,0.4485,0.2873,0.8309,-21.4,1.4,65.1,-0.048,-0.047,0.112,1023
2018,4,25,17,11,51.08,0.1712,0.444,0.2885,0.8308,-28.2,-9,60.9,-0.07,-0.202,0.132,1023
2018,4,25,17,11,51.084,0.1808,0.4383,0.2902,0.8312,-9.8,-19.1,59.3,-0.06,-0.319,0.039,1023
2018,4,25,17,11,51.1,0.1872,0.432,0.2995,0.8298,56.1,-33,72.6,-0.251,-0.218,0.05,1023
2018,4,25,17,11,51.12,0.1914,0.4242,0.3174,0.8261,77.8,-47,89.3,-0.356,0.054,0.069,1023
2018,4,25,17,11,51.158,0.1973,0.4128,0.3362,0.8231,52.1,-64.7,104.9,-0.382,0.151,0.058,1023
2018,4,25,17,11,51.178,0.2071,0.3961,0.3519,0.8223,20.4,-85.7,127.6,-0.474,0.068,-0.009,1023
2018,4,25,17,11,51.18,0.2212,0.3736,0.3649,0.8235,-26.7,-104.6,151,-0.544,0.14,-0.088,1023
2018,4,25,17,11,51.216,0.2406,0.3441,0.3695,0.8288,-101.7,-124.7,159.1,-0.667,-0.088,-0.149,1023
2018,4,25,17,11,51.237,0.2617,0.3089,0.3687,0.8367,-110.2,-147.8,165.5,-0.691,-0.384,-0.161,1023
2018,4,25,17,11,51.239,0.2812,0.2702,0.3697,0.8433,-90.7,-165.9,167.5,-0.666,-0.419,-0.177,1023
2018,4,25,17,11,51.279,0.2973,0.2303,0.375,0.8472,-55.3,-180.5,159.8,-0.595,-0.415,-0.21,1023
2018,4,25,17,11,51.3,0.3098,0.1896,0.384,0.8488,-44.1,-194.6,156.5,-0.505,-0.209,-0.246,1023
2018,4,25,17,11,51.304,0.321,0.1453,0.3918,0.8498,-66.9,-216,162.3,-0.375,-0.181,-0.269,0
2018,4,25,17,11,51.324,0.3328,0.0954,0.3954,0.8507,-107.5,-228.8,180.1,-0.028,-0.037,-0.37,0
2018,4,25,17,11,51.346,0.3468,0.0407,0.3923,0.8509,-143.4,-225.5,200.4,0.019,-0.038,-0.51,0
2018,4,25,17,11,51.382,0.3626,-0.0158,0.3845,0.8487,-141.9,-224.7,210.9,-0.148,-0.265,-0.637,0
2018,4,25,17,11,51.386,0.3781,-0.0709,0.3795,0.8413,-98.7,-225.5,213.1,-0.238,-0.453,-0.702,0
2018,4,25,17,11,51.403,0.3932,-0.1218,0.382,0.8273,-24.5,-221.5,213.5,-0.362,-0.513,-0.649,0
2018,4,25,17,11,51.443,0.4094,-0.1668,0.3933,0.8061,36.9,-217.7,216.3,-0.516,-0.427,-0.518,0
2018,4,25,17,11,51.463,0.4264,-0.2079,0.4103,0.7788,77.7,-218.4,222.3,-0.681,-0.359,-0.471,0
2018,4,25,17,11,51.467,0.4442,-0.2465,0.43,0.7462,103,-216.4,230.5,-0.859,-0.243,-0.518,0
2018,4,25,17,11,51.485,0.4626,-0.2837,0.4494,0.7095,101.1,-214,243.9,-1.067,-0.058,-0.576,0
2018,4,25,17,11,51.505,0.4808,-0.3228,0.4633,0.6707,63.4,-207.5,265.8,-1.099,0.033,-0.556,0
2018,4,25,17,11,51.542,0.4979,-0.364,0.4691,0.632,26.9,-195,273.5,-1.121,0.021,-0.371,0
2018,4,25,17,11,51.563,0.5116,-0.4048,0.4701,0.5943,11.3,-190.9,256.9,-1.244,0.023,-0.146,0
2018,4,25,17,11,51.567,0.5211,-0.4434,0.4709,0.5567,21.9,-199.5,236,-1.297,0.042,-0.193,0
2018,4,25,17,11,51.586,0.5277,-0.4785,0.4735,0.5178,25.8,-199.6,218.5,-1.183,0.192,-0.483,0
2018,4,25,17,11,51.604,0.5328,-0.511,0.4748,0.4791,17.5,-184.8,219.5,-1.157,0.297,-0.737,0
2018,4,25,17,11,51.626,0.5404,-0.5409,0.4718,0.4389,50.1,-157.6,251.5,-1.314,0.399,-0.954,0
2018,4,25,17,11,51.646,0.5569,-0.5663,0.4636,0.3925,95.7,-113.6,307.5,-1.26,0.702,-1.348,0
2018,4,25,17,11,51.666,0.5835,-0.5876,0.4421,0.3444,95.2,-13.6,367.9,-0.92,0.559,-1.618,0
2018,4,25,17,11,51.686,0.6173,-0.6055,0.4017,0.3013,73.9,94.2,413.7,-1.947,0.303,-1.626,0
2018,4,25,17,11,51.723,0.6568,-0.6168,0.3423,0.2661,104,208.1,426,-2.809,-0.728,-1.31,0
2018,4,25,17,11,51.744,0.7067,-0.6066,0.2742,0.2392,215.6,329.1,361.4,-2.98,-1.015,-0.336,1023
2018,4,25,17,11,51.748,0.7619,-0.5702,0.206,0.2278,341.2,396.6,255.1,-2.215,-0.756,1.58,1023
2018,4,25,17,11,51.771,0.8001,-0.5395,0.1553,0.211,138.8,-36.3,36.7,-2.29,-15.179,1.881,1023
2018,4,25,17,11,51.79,0.8023,-0.5423,0.0765,0.2372,-360.3,437.1,96.9,-3.423,1.163,4.836,1023
2018,4,25,17,11,51.809,0.163,-0.4162,-0.8391,0.3097,31.4,-0.8,0.8,0.028,-0.012,0.018,1023
2018,4,25,17,11,51.828,0.1651,-0.4154,-0.8375,0.3141,25.8,-0.8,0.3,0.039,-0.025,0.02,1023
2018,4,25,17,11,51.847,0.167,-0.4149,-0.8359,0.3179,23.1,-1,0.7,0.031,-0.031,0.023,1023
2018,4,25,17,11,51.868,0.1687,-0.4143,-0.8345,0.3214,22.2,-0.8,0.9,0.029,-0.027,0.014,1023
2018,4,25,17,11,51.887,0.1703,-0.4135,-0.8333,0.3248,20.9,-0.4,1.1,0.034,-0.022,0.008,1023
2018,4,25,17,11,51.909,0.1718,-0.4128,-0.8321,0.3278,18.3,-0.1,1.6,0.022,-0.012,0.006,1023
2018,4,25,17,11,51.928,0.1729,-0.4122,-0.8312,0.3303,14.7,0.3,1.7,0.038,-0.014,0.005,0
2018,4,25,17,11,51.947,0.1737,-0.4115,-0.8306,0.3323,11.7,0.6,2.1,0.018,-0.009,0.003,0
2018,4,25,17,11,51.967,0.1743,-0.4109,-0.8301,0.334,9.7,1.2,2.5,0.029,-0.017,0.01,0
2018,4,25,17,11,52.008,0.1747,-0.4102,-0.8297,0.3356,7.7,1.9,2.6,0.035,-0.025,0.008,0
2018,4,25,17,11,52.028,0.1748,-0.4096,-0.8294,0.337,6,2.4,2.9,0.052,-0.025,0.012,0
2018,4,25,17,11,52.033,0.1748,-0.4089,-0.8292,0.3383,4.6,2.4,3.1,0.051,-0.025,0.022,0
2018,4,25,17,11,52.051,0.1747,-0.4083,-0.829,0.3396,3.6,1.9,2.5,0.043,-0.024,0.027,0
2018,4,25,17,11,52.089,0.1746,-0.4079,-0.829,0.3402,-0.4,0.6,2.8,0.023,-0.013,0.014,0
2018,4,25,17,11,52.093,0.1744,-0.4076,-0.8293,0.3399,-5.5,0,3.6,0.025,-0.009,0.009,0
2018,4,25,17,11,52.109,0.174,-0.4073,-0.8299,0.3389,-7.2,-0.2,3.8,0.018,-0.012,-0.007,0
2018,4,25,17,11,52.129,0.1737,-0.407,-0.8306,0.3379,-6.1,0.3,3.7,0.011,-0.009,-0.01,0
2018,4,25,17,11,52.15,0.1733,-0.4066,-0.8311,0.3372,-3.5,0.9,3.1,0.011,-0.008,-0.009,0
2018,4,25,17,11,52.171,0.173,-0.4062,-0.8315,0.3369,-1.3,1.5,2.7,0.012,-0.008,-0.011,0
2018,4,25,17,11,52.191,0.1728,-0.4058,-0.8317,0.337,0.8,1.8,2.2,0.015,-0.01,-0.003,0
2018,4,25,17,11,52.227,0.1726,-0.4054,-0.8317,0.3374,1.4,1.6,2.2,0.02,-0.011,-0.003,0
2018,4,25,17,11,52.248,0.1725,-0.405,-0.8318,0.3378,1.7,1.3,2.2,0.02,-0.011,0.002,0
2018,4,25,17,11,52.251,0.1724,-0.4046,-0.8319,0.3382,1.4,1.1,2.3,0.018,-0.013,0,0
2018,4,25,17,11,52.272,0.1724,-0.4042,-0.8319,0.3386,1.6,0.8,2.3,0.014,-0.011,-0.004,0
2018,4,25,17,11,52.293,0.1725,-0.4038,-0.8319,0.3389,1.7,0.8,1.9,0.015,-0.008,0,0
2018,4,25,17,11,52.31,0.1725,-0.4035,-0.8319,0.3393,2.2,0.4,1.7,0.011,-0.009,0.003,0
2018,4,25,17,11,52.328,0.1727,-0.4032,-0.8319,0.3397,1.9,0.2,1.1,0.01,-0.012,0,0
2018,4,25,17,11,52.366,0.1727,-0.4031,-0.8318,0.3401,1.7,0.3,0.5,0.013,-0.011,-0.003,1023
2018,4,25,17,11,52.386,0.1727,-0.403,-0.8316,0.3405,1.9,0.2,0,0.015,-0.01,0,1023
2018,4,25,17,11,52.39,0.1728,-0.403,-0.8315,0.341,2.5,-0.1,0,0.016,-0.01,-0.005,1023
2018,4,25,17,11,52.411,0.1728,-0.4029,-0.8313,0.3415,3.1,0,0.1,0.016,-0.008,-0.004,1023
2018,4,25,17,11,52.431,0.173,-0.4028,-0.831,0.3421,4.1,0,0.3,0.013,-0.009,-0.002,1023
2018,4,25,17,11,52.452,0.1733,-0.4027,-0.8307,0.3428,4.5,-0.2,0.3,0.014,-0.011,0.001,1023
2018,4,25,17,11,52.472,0.1735,-0.4026,-0.8304,0.3436,4.6,-0.1,0.3,0.014,-0.008,0.001,1023
2018,4,25,17,11,52.494,0.1738,-0.4024,-0.8301,0.3444,4.4,-0.4,0.2,0.011,-0.01,0,1023
2018,4,25,17,11,52.513,0.1741,-0.4023,-0.8298,0.3451,4.1,-0.2,0.2,0.015,-0.011,-0.002,1023
2018,4,25,17,11,52.534,0.1743,-0.4023,-0.8295,0.3457,3.3,-0.1,0.2,0.017,-0.013,0,1023
2018,4,25,17,11,52.572,0.1744,-0.4022,-0.8293,0.3463,2.4,-0.1,0.5,0.015,-0.014,-0.001,1023
2018,4,25,17,11,52.591,0.1745,-0.4021,-0.8292,0.3467,1.7,0,0.8,0.016,-0.007,0.001,0
2018,4,25,17,11,52.595,0.1746,-0.402,-0.8291,0.347,0.7,-0.1,0.6,0.016,-0.012,0.002,0
2018,4,25,17,11,52.612,0.1746,-0.4019,-0.829,0.3471,0.2,-0.1,0.8,0.014,-0.009,-0.002,0
2018,4,25,17,11,52.632,0.1746,-0.4018,-0.829,0.3472,-0.1,0,0.9,0.013,-0.011,0,0
2018,4,25,17,11,52.652,0.1745,-0.4017,-0.8291,0.3473,-0.1,0.1,0.9,0.017,-0.011,-0.002,0
2018,4,25,17,11,52.672,0.1744,-0.4016,-0.8291,0.3474,-0.3,0.2,1.2,0.016,-0.01,-0.002,0
2018,4,25,17,11,52.71,0.1744,-0.4015,-0.8292,0.3474,-0.8,0.2,1.3,0.015,-0.013,-0.001,0
2018,4,25,17,11,52.73,0.1743,-0.4013,-0.8293,0.3473,-1.4,0,1.5,0.016,-0.012,0.002,0
2018,4,25,17,11,52.734,0.1741,-0.4012,-0.8295,0.3472,-2,0,1.7,0.016,-0.008,0.001,0
2018,4,25,17,11,52.773,0.174,-0.4011,-0.8297,0.3469,-2.1,-0.1,1.8,0.017,-0.009,0.001,0
2018,4,25,17,11,52.793,0.1739,-0.4009,-0.8299,0.3467,-1.9,-0.1,1.6,0.014,-0.014,-0.002,0
2018,4,25,17,11,52.797,0.1738,-0.4008,-0.83,0.3465,-0.8,0,0.9,0.013,-0.009,-0.004,0
2018,4,25,17,11,52.812,0.1737,-0.4007,-0.8301,0.3465,0,0.3,0.6,0.013,-0.01,-0.002,0
2018,4,25,17,11,52.832,0.1736,-0.4006,-0.83,0.3467,0.6,0.6,0.5,0.013,-0.012,0,0
2018,4,25,17,11,52.852,0.1736,-0.4005,-0.83,0.347,0.7,0.3,0.7,0.017,-0.009,0,0
2018,4,25,17,11,52.891,0.1735,-0.4004,-0.83,0.3472,0.6,0,0.9,0.014,-0.01,-0.003,0
2018,4,25,17,11,52.912,0.1736,-0.4003,-0.83,0.3473,0.2,-0.1,0.7,0.011,-0.01,0.005,0
2018,4,25,17,11,52.916,0.1736,-0.4002,-0.83,0.3474,-0.2,-0.2,0.8,0.009,-0.013,0,0
2018,4,25,17,11,52.937,0.1736,-0.4002,-0.83,0.3474,-0.3,-0.1,0.5,0.011,-0.013,-0.001,0
2018,4,25,17,11,52.956,0.1735,-0.4002,-0.83,0.3475,0,-0.2,0.5,0.014,-0.009,-0.002,0
2018,4,25,17,11,52.995,0.1734,-0.4002,-0.8299,0.3476,0,0,0,0.012,-0.008,0,0
2018,4,25,17,11,53.015,0.1734,-0.4002,-0.8299,0.3478,1,-0.2,0.3,0.012,-0.012,0.003,0
2018,4,25,17,11,53.019,0.1734,-0.4001,-0.8298,0.348,0.7,-0.1,0.5,0.014,-0.011,0,0
2018,4,25,17,11,53.032,0.1735,-0.4,-0.8297,0.3482,0.5,-0.1,0.8,0.018,-0.014,0,0
2018,4,25,17,11,53.07,0.1735,-0.3999,-0.8297,0.3484,0.3,-0.1,1.1,0.013,-0.012,0,0
2018,4,25,17,11,53.097,0.1735,-0.3998,-0.8297,0.3485,-0.3,-0.3,1.1,0.015,-0.013,0,1023
2018,4,25,17,11,53.099,0.1735,-0.3997,-0.8298,0.3485,-1.1,-0.4,1.3,0.017,-0.013,0,1023
2018,4,25,17,11,53.113,0.1735,-0.3996,-0.8299,0.3483,-1.6,-0.5,1.6,0.014,-0.011,0,1023
2018,4,25,17,11,53.148,0.1735,-0.3994,-0.8301,0.3481,-1.6,-0.4,1.9,0.014,-0.011,-0.001,1023
2018,4,25,17,11,53.167,0.1734,-0.3993,-0.8302,0.3479,-1.5,-0.2,1.7,0.007,-0.01,0.001,1023
2018,4,25,17,11,53.175,0.1734,-0.3991,-0.8304,0.3477,-1.3,0,1.4,0.006,-0.011,-0.001,0
2018,4,25,17,11,53.212,0.1733,-0.3989,-0.8305,0.3476,-1,0,1.1,0.01,-0.011,-0.003,0
2018,4,25,17,11,53.231,0.1732,-0.3988,-0.8306,0.3476,-1.1,0.2,1.1,0.017,-0.012,0.002,0
2018,4,25,17,11,53.233,0.1731,-0.3987,-0.8307,0.3475,-1.2,0.1,1.4,0.024,-0.01,0,0
2018,4,25,17,11,53.265,0.1729,-0.3986,-0.8309,0.3474,-1.3,0.4,1.8,0.011,-0.009,0.001,0
2018,4,25,17,11,53.287,0.1728,-0.3983,-0.8311,0.3473,-0.8,0.3,2,0,-0.016,0.003,0
2018,4,25,17,11,53.293,0.1728,-0.398,-0.8312,0.3473,-0.7,0.3,1.7,0.001,-0.013,0.003,0
2018,4,25,17,11,53.326,0.1728,-0.3979,-0.8313,0.3473,-0.7,0.7,0.4,0.007,-0.012,-0.002,0
2018,4,25,17,11,53.347,0.1726,-0.3979,-0.8313,0.3473,-0.5,0.9,-0.4,0.006,-0.009,-0.003,0
2018,4,25,17,11,53.354,0.1723,-0.3979,-0.8313,0.3475,0,0.9,-0.2,0.012,-0.011,0,0
2018,4,25,17,11,53.39,0.1722,-0.3979,-0.8313,0.3477,0.8,0.7,0,0.011,-0.011,0,1023
2018,4,25,17,11,53.409,0.1721,-0.3978,-0.8312,0.348,1.4,0.7,-0.3,0.005,-0.011,-0.005,1023
2018,4,25,17,11,53.414,0.1721,-0.3978,-0.831,0.3484,2.4,0.5,-0.8,0.004,-0.01,-0.001,1023
2018,4,25,17,11,53.449,0.1722,-0.3978,-0.8308,0.3489,2.3,0.2,-0.5,0.003,-0.004,-0.002,1023
2018,4,25,17,11,53.468,0.1723,-0.3978,-0.8306,0.3492,1.4,0,0.2,0.015,-0.015,-0.006,1023
2018,4,25,17,11,53.477,0.1723,-0.3977,-0.8305,0.3496,2.2,0,0.2,0.008,-0.01,-0.002,1023
2018,4,25,17,11,53.511,0.1724,-0.3977,-0.8303,0.3501,2.1,-0.1,0,0.011,-0.012,0.007,1023
2018,4,25,17,11,53.532,0.1725,-0.3977,-0.8301,0.3504,1.2,-0.2,0.1,0.021,-0.007,0.005,1023
2018,4,25,17,11,53.535,0.1726,-0.3977,-0.83,0.3507,1.1,-0.4,0,0.023,-0.017,0,1023
2018,4,25,17,11,53.571,0.1727,-0.3977,-0.8298,0.351,1.4,-0.3,0.2,0.01,-0.011,0,1023
2018,4,25,17,11,53.59,0.1727,-0.3977,-0.8297,0.3514,1.5,-0.2,0.3,0.013,-0.01,0.002,1023
2018,4,25,17,11,53.597,0.1729,-0.3977,-0.8295,0.3517,1.5,-0.5,0.3,0.009,-0.006,0,1023
2018,4,25,17,11,53.634,0.1732,-0.3975,-0.8295,0.3518,0.1,0,1.7,-0.06,0.025,-0.013,1023
2018,4,25,17,11,53.654,0.1731,-0.3974,-0.8295,0.3519,0.6,-0.4,0.9,-0.003,-0.004,0.008,1023
2018,4,25,17,11,53.658,0.1732,-0.3973,-0.8295,0.3521,1.9,0.3,1,0.031,-0.013,-0.008,1023
2018,4,25,17,11,53.695,0.1732,-0.3971,-0.8294,0.3525,1.4,0.6,0.8,0.02,-0.01,0.01,1023
2018,4,25,17,11,53.715,0.1732,-0.3969,-0.8294,0.3528,0.6,0.1,1.6,0.039,-0.014,0.005,1023
2018,4,25,17,11,53.72,0.1731,-0.3967,-0.8293,0.3532,0.9,0.3,0.8,0.027,-0.022,0.009,1023
2018,4,25,17,11,53.759,0.1731,-0.3966,-0.8292,0.3535,0.4,0.1,0.6,0.021,-0.016,0.005,1023
2018,4,25,17,11,53.778,0.173,-0.3966,-0.8292,0.3536,-0.7,0,0.9,0.013,-0.009,0.007,1023
2018,4,25,17,11,53.782,0.173,-0.3965,-0.8293,0.3535,-1.4,-0.2,1.2,0.01,-0.013,-0.002,1023
2018,4,25,17,11,53.822,0.173,-0.3964,-0.8294,0.3534,-1.3,-0.1,1.3,0.008,-0.01,0,1023
2018,4,25,17,11,53.842,0.1729,-0.3962,-0.8295,0.3533,-0.8,0.1,1,0.008,-0.007,-0.003,0
2018,4,25,17,11,53.846,0.1728,-0.3961,-0.8296,0.3533,-0.5,0.2,1.1,0.009,-0.011,0,0
2018,4,25,17,11,53.861,0.1728,-0.396,-0.8297,0.3533,-0.1,0.1,1.3,0.009,-0.009,0,0
2018,4,25,17,11,53.897,0.1727,-0.3958,-0.8297,0.3533,-0.5,0.3,1.2,0.011,-0.009,0,0
2018,4,25,17,11,53.916,0.1727,-0.3957,-0.8298,0.3534,-0.5,0.2,1.3,0.011,-0.008,0,0
2018,4,25,17,11,53.923,0.1727,-0.3955,-0.8299,0.3533,-1,-0.1,1.1,0.007,-0.011,0.002,0
2018,4,25,17,11,53.944,0.1726,-0.3955,-0.83,0.3532,-0.8,0,0.7,0.009,-0.01,-0.001,0
2018,4,25,17,11,53.963,0.1725,-0.3954,-0.83,0.3532,-0.4,0.1,0.5,0.013,-0.011,0.001,0
2018,4,25,17,11,53.999,0.1725,-0.3953,-0.83,0.3533,0.2,0.1,0.8,0.012,-0.013,0,0
2018,4,25,17,11,54.019,0.1725,-0.3952,-0.83,0.3535,0.5,0.3,1.1,0.011,-0.013,0,0
2018,4,25,17,11,54.024,0.1725,-0.395,-0.83,0.3537,0.7,0.1,0.8,0.009,-0.011,0,0
2018,4,25,17,11,54.064,0.1725,-0.3949,-0.83,0.3539,0.3,0.2,0.5,0.008,-0.013,0.004,0
2018,4,25,17,11,54.069,0.1724,-0.3949,-0.83,0.354,0,0,0,0.01,-0.011,0,0
2018,4,25,17,11,54.084,0.1724,-0.3949,-0.8299,0.3541,0,0,0,0.01,-0.011,-0.004,0
2018,4,25,17,11,54.102,0.1724,-0.3949,-0.8299,0.3542,0.5,0.1,0.6,0.009,-0.01,0,0
2018,4,25,17,11,54.14,0.1723,-0.3948,-0.8299,0.3544,0.7,0.1,0.5,0.011,-0.01,0.001,0
2018,4,25,17,11,54.16,0.1724,-0.3947,-0.8298,0.3546,0.5,0,0.6,0.01,-0.013,0.004,0
2018,4,25,17,11,54.164,0.1724,-0.3946,-0.8298,0.3548,0.2,0.1,0.8,0.01,-0.01,0.003,0
2018,4,25,17,11,54.185,0.1724,-0.3945,-0.8298,0.3548,-0.1,0,0.8,0.01,-0.011,-0.002,0
2018,4,25,17,11,54.204,0.1724,-0.3944,-0.8298,0.3549,-0.4,0,0.6,0.005,-0.013,0.002,0
2018,4,25,17,11,54.241,0.1723,-0.3943,-0.8299,0.3549,-0.5,0.1,0.5,0.011,-0.011,0,0
2018,4,25,17,11,54.263,0.1722,-0.3943,-0.8299,0.3549,0,0.1,0.5,0.011,-0.012,-0.001,1023
2018,4,25,17,11,54.267,0.1722,-0.3942,-0.8299,0.355,0,0,0.8,0.012,-0.013,0,1023
2018,4,25,17,11,54.283,0.1722,-0.3941,-0.8299,0.3551,0,0,1,0.013,-0.01,0.003,1023
2018,4,25,17,11,54.303,0.1722,-0.3939,-0.83,0.3552,-0.2,0.1,1,0.007,-0.014,0.001,1023
2018,4,25,17,11,54.323,0.1722,-0.3938,-0.83,0.3552,-0.5,0,0.7,0.009,-0.014,0.001,1023
2018,4,25,17,11,54.346,0.1721,-0.3937,-0.83,0.3553,-0.7,0,0.8,0.013,-0.012,0.006,1023
2018,4,25,17,11,54.365,0.1721,-0.3936,-0.8301,0.3553,-0.5,0,0.9,0.008,-0.009,-0.001,1023
2018,4,25,17,11,54.384,0.1721,-0.3935,-0.8301,0.3553,-0.6,-0.1,0.9,0.012,-0.011,0,1023
2018,4,25,17,11,54.405,0.172,-0.3934,-0.8302,0.3552,-0.5,-0.1,1.1,0.01,-0.013,0,1023
2018,4,25,17,11,54.443,0.172,-0.3933,-0.8303,0.3552,-0.6,0,0.9,0.009,-0.013,0,0
2018,4,25,17,11,54.463,0.172,-0.3933,-0.8303,0.3552,0,0,0.6,0.007,-0.009,-0.003,0
2018,4,25,17,11,54.467,0.172,-0.3932,-0.8303,0.3553,0.1,0,0.6,0.01,-0.009,-0.003,0
2018,4,25,17,11,54.505,0.172,-0.3931,-0.8303,0.3555,0.2,0.2,0.5,0.007,-0.009,0.001,0
2018,4,25,17,11,54.527,0.1719,-0.393,-0.8303,0.3556,0.2,0,0.6,0.009,-0.013,0.003,0
2018,4,25,17,11,54.531,0.1719,-0.3929,-0.8302,0.3558,0.1,0,0.6,0.01,-0.012,0,0
2018,4,25,17,11,54.545,0.1719,-0.3928,-0.8303,0.3558,-0.3,-0.1,0.8,0.011,-0.009,0.002,0
2018,4,25,17,11,54.564,0.1719,-0.3928,-0.8303,0.3559,-0.7,-0.1,0.7,0.01,-0.013,0,0
2018,4,25,17,11,54.585,0.1719,-0.3927,-0.8303,0.3559,-0.5,0,0.7,0.01,-0.008,0,0
2018,4,25,17,11,54.626,0.1718,-0.3926,-0.8304,0.3559,-0.2,0,0.9,0.013,-0.013,0.001,0
2018,4,25,17,11,54.645,0.1718,-0.3925,-0.8304,0.3559,0,-0.1,1.2,0.011,-0.009,0.001,0
2018,4,25,17,11,54.649,0.1718,-0.3923,-0.8305,0.356,-0.4,0,1.1,0.007,-0.015,0.001,0
2018,4,25,17,11,54.668,0.1718,-0.3922,-0.8305,0.356,-0.5,0,0.8,0.014,-0.012,0.001,0
2018,4,25,17,11,54.687,0.1718,-0.3922,-0.8305,0.356,-0.3,0,0.5,0.009,-0.013,0,0
2018,4,25,17,11,54.726,0.1717,-0.3921,-0.8305,0.3561,-0.3,0.1,0.6,0.013,-0.008,0.001,0
2018,4,25,17,11,54.746,0.1716,-0.3921,-0.8306,0.3561,-0.2,0,0.7,0.011,-0.012,0,0
2018,4,25,17,11,54.751,0.1716,-0.392,-0.8306,0.3562,-0.2,-0.1,1,0.01,-0.016,-0.004,0
2018,4,25,17,11,54.765,0.1716,-0.3918,-0.8306,0.3562,-0.5,-0.2,0.9,0.008,-0.01,0,0
2018,4,25,17,11,54.804,0.1717,-0.3917,-0.8307,0.3562,-0.7,-0.2,0.8,0.01,-0.012,0.004,0
2018,4,25,17,11,54.825,0.1716,-0.3917,-0.8307,0.3561,-0.7,-0.1,0.7,0.009,-0.014,0,0
2018,4,25,17,11,54.829,0.1716,-0.3916,-0.8308,0.3562,-0.5,0,0.8,0.007,-0.013,0.004,0
2018,4,25,17,11,54.847,0.1716,-0.3916,-0.8308,0.3562,-0.5,0,0.6,0.011,-0.011,-0.004,0
2018,4,25,17,11,54.87,0.1715,-0.3915,-0.8308,0.3562,-0.5,0.2,0.6,0.011,-0.007,0.004,1023
2018,4,25,17,11,54.891,0.1715,-0.3914,-0.8309,0.3562,-0.2,0,0.9,0.01,-0.013,0.002,1023
2018,4,25,17,11,54.91,0.1714,-0.3913,-0.8309,0.3563,-0.1,0,1,0.008,-0.009,0,1023
2018,4,25,17,11,54.928,0.1714,-0.3912,-0.8309,0.3563,0,0.1,0.8,0.01,-0.011,0.001,1023
2018,4,25,17,11,54.949,0.1714,-0.3911,-0.8309,0.3564,-0.2,0.4,0.6,0.011,-0.013,-0.001,1023
2018,4,25,17,11,54.972,0.1714,-0.391,-0.831,0.3565,-0.2,0.1,0.7,0.009,-0.012,0.002,1023
2018,4,25,17,11,54.992,0.1713,-0.3909,-0.831,0.3566,-0.3,0,0.7,0.007,-0.011,0,1023
2018,4,25,17,11,55.027,0.1713,-0.3908,-0.831,0.3566,-0.5,0.1,0.8,0.007,-0.013,-0.003,1023
2018,4,25,17,11,55.031,0.1712,-0.3907,-0.8311,0.3566,-0.5,-0.1,0.8,0.01,-0.011,0,1023
2018,4,25,17,11,55.05,0.1712,-0.3907,-0.8311,0.3566,-0.2,0,0.8,0.008,-0.01,0.001,1023
2018,4,25,17,11,55.069,0.1713,-0.3906,-0.8311,0.3567,0.1,0,0.8,0.011,-0.013,0.001,0
2018,4,25,17,11,55.09,0.1713,-0.3904,-0.8311,0.3568,0.4,0,0.9,0.009,-0.009,0.005,0
2018,4,25,17,11,55.109,0.1713,-0.3903,-0.8311,0.3569,0.2,0,0.8,0.013,-0.015,0.002,0
2018,4,25,17,11,55.128,0.1713,-0.3902,-0.8311,0.357,-0.3,0,0.7,0.01,-0.013,0,0
2018,4,25,17,11,55.17,0.1713,-0.3901,-0.8312,0.357,-0.4,0,0.8,0.011,-0.011,0,0
2018,4,25,17,11,55.19,0.1712,-0.3901,-0.8312,0.357,-0.2,0,0.8,0.011,-0.011,-0.001,0
2018,4,25,17,11,55.194,0.1712,-0.39,-0.8312,0.3571,0,0,0.6,0.013,-0.012,0,0
2018,4,25,17,11,55.214,0.1712,-0.3899,-0.8312,0.3572,0,0,0.6,0.008,-0.012,-0.002,0
2018,4,25,17,11,55.233,0.1712,-0.3898,-0.8312,0.3573,0,0,0.7,0.011,-0.011,-0.002,0
2018,4,25,17,11,55.249,0.1711,-0.3897,-0.8312,0.3573,0,0.1,0.8,0.008,-0.01,0.001,0
2018,4,25,17,11,55.269,0.1711,-0.3896,-0.8313,0.3574,-0.3,0.1,1.1,0.011,-0.013,0.003,0
2018,4,25,17,11,55.291,0.1711,-0.3894,-0.8313,0.3575,-0.3,0,1,0.009,-0.011,0.001,0
2018,4,25,17,11,55.31,0.1711,-0.3894,-0.8314,0.3575,-0.5,0,0.5,0.011,-0.013,0,0
2018,4,25,17,11,55.331,0.171,-0.3893,-0.8314,0.3575,-0.3,0,0.6,0.011,-0.014,0,0
2018,4,25,17,11,55.368,0.171,-0.3893,-0.8314,0.3575,-0.2,0,0.8,0.01,-0.013,0.005,0
2018,4,25,17,11,55.389,0.171,-0.3891,-0.8314,0.3576,-0.1,0.1,0.8,0.012,-0.009,0.001,0
2018,4,25,17,11,55.393,0.171,-0.389,-0.8315,0.3576,-0.2,-0.1,0.9,0.011,-0.008,0,0
2018,4,25,17,11,55.413,0.171,-0.3889,-0.8315,0.3577,-0.5,0,0.8,0.011,-0.013,0.002,0
2018,4,25,17,11,55.435,0.1709,-0.3889,-0.8315,0.3577,-0.7,0,0.6,0.009,-0.011,0,0
2018,4,25,17,11,55.449,0.1709,-0.3888,-0.8316,0.3577,-0.5,0,0.8,0.01,-0.009,-0.002,0
2018,4,25,17,11,55.49,0.1708,-0.3887,-0.8316,0.3577,-0.7,0,0.7,0.008,-0.012,0.002,0
2018,4,25,17,11,55.51,0.1708,-0.3887,-0.8317,0.3577,-0.6,0,0.7,0.007,-0.011,0,0
2018,4,25,17,11,55.514,0.1707,-0.3886,-0.8317,0.3577,-0.7,0,0.6,0.01,-0.009,-0.001,0
2018,4,25,17,11,55.532,0.1707,-0.3885,-0.8317,0.3577,-0.4,0,0.9,0.009,-0.013,0,1023
2018,4,25,17,11,55.569,0.1706,-0.3884,-0.8318,0.3577,-0.5,0,1.1,0.01,-0.009,0.002,1023
2018,4,25,17,11,55.587,0.1706,-0.3883,-0.8319,0.3577,-0.5,0.1,0.8,0.009,-0.012,-0.002,1023
2018,4,25,17,11,55.592,0.1705,-0.3882,-0.8319,0.3577,-0.8,0,0.5,0.012,-0.012,-0.002,1023
2018,4,25,17,11,55.628,0.1705,-0.3882,-0.8319,0.3577,-0.3,0.2,0.6,0.01,-0.011,0,1023
2018,4,25,17,11,55.648,0.1704,-0.3881,-0.832,0.3578,-0.4,0.1,0.6,0.009,-0.01,0.002,1023
2018,4,25,17,11,55.656,0.1703,-0.388,-0.832,0.3578,-0.5,0.1,0.8,0.009,-0.01,0,1023
2018,4,25,17,11,55.677,0.1702,-0.388,-0.832,0.3578,-0.4,0,0.7,0.009,-0.013,0,1023
2018,4,25,17,11,55.695,0.1702,-0.3879,-0.8321,0.3578,-0.1,0,0.5,0.009,-0.011,0,1023
2018,4,25,17,11,55.733,0.1702,-0.3878,-0.8321,0.3579,0.2,0.1,0.6,0.009,-0.011,0,1023
2018,4,25,17,11,55.752,0.1701,-0.3877,-0.8321,0.3581,0.2,0.1,0.6,0.009,-0.01,-0.003,0
2018,4,25,17,11,55.756,0.1701,-0.3876,-0.832,0.3582,0.1,0.1,0.7,0.011,-0.008,0,0
2018,4,25,17,11,55.774,0.1701,-0.3876,-0.8321,0.3583,-0.3,0,0.7,0.01,-0.01,0.003,0
2018,4,25,17,11,55.795,0.1701,-0.3875,-0.8321,0.3583,-0.5,-0.1,0.8,0.006,-0.008,0.005,0
2018,4,25,17,11,55.831,0.17,-0.3873,-0.8322,0.3583,-0.2,0,0.8,0.01,-0.011,0.001,0
2018,4,25,17,11,55.852,0.17,-0.3872,-0.8322,0.3584,-0.3,-0.1,0.7,0.01,-0.013,0.001,0
2018,4,25,17,11,55.856,0.17,-0.3872,-0.8322,0.3584,-0.6,-0.1,0.9,0.011,-0.012,0.002,0
2018,4,25,17,11,55.876,0.17,-0.3871,-0.8323,0.3584,-0.7,0,0.6,0.013,-0.012,0.002,0
2018,4,25,17,11,55.897,0.1699,-0.387,-0.8323,0.3583,-0.3,0,0.9,0.011,-0.01,-0.004,0
2018,4,25,17,11,55.918,0.1699,-0.3869,-0.8324,0.3584,-0.1,0.1,1.1,0.01,-0.011,0.003,0
2018,4,25,17,11,55.937,0.1699,-0.3868,-0.8324,0.3584,-0.2,0.1,0.9,0.01,-0.013,-0.002,0
2018,4,25,17,11,55.974,0.1699,-0.3867,-0.8324,0.3585,-0.1,0,0.5,0.007,-0.014,0.003,0
2018,4,25,17,11,55.993,0.1698,-0.3866,-0.8324,0.3586,-0.3,0,0.6,0.01,-0.013,0,0
2018,4,25,17,11,55.997,0.1698,-0.3866,-0.8325,0.3586,-0.3,0,0.6,0.009,-0.013,-0.002,0
2018,4,25,17,11,56.016,0.1698,-0.3865,-0.8325,0.3586,-0.2,0.1,0.7,0.009,-0.011,-0.003,0
2018,4,25,17,11,56.036,0.1697,-0.3864,-0.8325,0.3587,-0.1,0.1,0.9,0.01,-0.011,0.001,0
2018,4,25,17,11,56.073,0.1697,-0.3863,-0.8325,0.3587,-0.6,0,0.8,0.008,-0.011,0,0
2018,4,25,17,11,56.094,0.1697,-0.3862,-0.8326,0.3587,-0.7,0,0.8,0.01,-0.013,-0.002,0
2018,4,25,17,11,56.098,0.1696,-0.3861,-0.8326,0.3587,-0.6,0,0.7,0.01,-0.012,0.003,0
2018,4,25,17,11,56.135,0.1696,-0.3861,-0.8327,0.3587,-0.7,0,0.8,0.01,-0.011,0.004,0
2018,4,25,17,11,56.156,0.1696,-0.386,-0.8327,0.3587,-0.7,0,0.8,0.011,-0.011,-0.002,0
2018,4,25,17,11,56.161,0.1695,-0.3859,-0.8328,0.3587,-0.5,0.1,0.7,0.011,-0.015,0,0
2018,4,25,17,11,56.176,0.1694,-0.3859,-0.8328,0.3587,-0.7,0,0.8,0.013,-0.008,0.002,0
2018,4,25,17,11,56.212,0.1694,-0.3858,-0.8329,0.3587,-0.3,0,0.9,0.009,-0.013,-0.002,0
2018,4,25,17,11,56.232,0.1694,-0.3857,-0.8329,0.3587,-0.1,0.3,0.9,0.012,-0.012,0.001,1023
2018,4,25,17,11,56.236,0.1693,-0.3856,-0.8329,0.3588,-0.1,0,0.7,0.009,-0.012,0.003,1023
2018,4,25,17,11,56.276,0.1693,-0.3855,-0.8329,0.3589,-0.2,0.2,0.6,0.008,-0.011,0.003,1023
2018,4,25,17,11,56.297,0.1692,-0.3854,-0.833,0.3589,-0.4,0,0.5,0.008,-0.01,0,1023
2018,4,25,17,11,56.301,0.1692,-0.3853,-0.833,0.3589,-0.5,0,0.9,0.011,-0.012,0.004,1023
2018,4,25,17,11,56.318,0.1692,-0.3852,-0.833,0.3589,-0.8,-0.1,0.9,0.007,-0.011,0.003,1023
2018,4,25,17,11,56.357,0.1691,-0.3852,-0.8331,0.3589,-0.8,-0.1,0.7,0.008,-0.015,-0.002,1023
2018,4,25,17,11,56.376,0.1691,-0.3851,-0.8332,0.3589,-0.3,-0.1,0.6,0.009,-0.012,0,1023
2018,4,25,17,11,56.38,0.1691,-0.385,-0.8332,0.3589,-0.1,0,0.6,0.008,-0.01,0.001,1023
2018,4,25,17,11,56.419,0.169,-0.3849,-0.8332,0.359,0,0.2,0.8,0.011,-0.01,0.002,1023
2018,4,25,17,11,56.439,0.169,-0.3848,-0.8332,0.3591,-0.4,0,0.9,0.009,-0.011,0.005,0
2018,4,25,17,11,56.443,0.169,-0.3848,-0.8333,0.3591,-0.9,0,0.8,0.01,-0.01,0.004,0
2018,4,25,17,11,56.457,0.1689,-0.3847,-0.8333,0.359,-1,0,0.8,0.011,-0.01,0,0
2018,4,25,17,11,56.496,0.1689,-0.3846,-0.8334,0.359,-0.6,0,0.6,0.009,-0.011,0,0
2018,4,25,17,11,56.514,0.1689,-0.3845,-0.8334,0.359,0,0,0.9,0.009,-0.014,0.001,0
2018,4,25,17,11,56.518,0.1689,-0.3844,-0.8334,0.3591,0,0,0.8,0.014,-0.013,0.002,0
2018,4,25,17,11,56.558,0.1689,-0.3843,-0.8334,0.3592,-0.3,0,0.8,0.011,-0.012,0.006,0
2018,4,25,17,11,56.577,0.1688,-0.3842,-0.8335,0.3592,-0.6,-0.1,0.7,0.01,-0.011,0,0
2018,4,25,17,11,56.582,0.1688,-0.3842,-0.8335,0.3592,-0.7,0,0.8,0.012,-0.011,0,0
2018,4,25,17,11,56.601,0.1688,-0.3841,-0.8336,0.3592,-0.3,0,0.9,0.01,-0.013,-0.002,0
2018,4,25,17,11,56.622,0.1687,-0.384,-0.8336,0.3592,-0.2,0.1,0.9,0.008,-0.01,0.001,0
2018,4,25,17,11,56.641,0.1687,-0.3839,-0.8336,0.3593,-0.2,0,0.8,0.011,-0.012,0.002,0
2018,4,25,17,11,56.661,0.1687,-0.3838,-0.8336,0.3594,-0.3,0,0.8,0.011,-0.014,0.003,0
2018,4,25,17,11,56.697,0.1687,-0.3837,-0.8337,0.3594,-0.4,0,0.6,0.01,-0.01,-0.002,0
2018,4,25,17,11,56.717,0.1686,-0.3836,-0.8337,0.3594,-0.4,0,0.7,0.008,-0.013,0,0
2018,4,25,17,11,56.721,0.1686,-0.3836,-0.8337,0.3595,-0.3,0,1,0.011,-0.011,0,0
2018,4,25,17,11,56.741,0.1686,-0.3835,-0.8338,0.3595,-0.7,-0.1,0.9,0.013,-0.011,0.002,0
2018,4,25,17,11,56.759,0.1686,-0.3834,-0.8338,0.3594,-0.7,-0.1,1,0.008,-0.014,0,0
2018,4,25,17,11,56.8,0.1685,-0.3833,-0.8339,0.3594,-0.5,-0.1,0.8,0.009,-0.01,-0.001,0
2018,4,25,17,11,56.819,0.1685,-0.3832,-0.8339,0.3594,-0.6,0,0.6,0.008,-0.011,0.002,0
2018,4,25,17,11,56.823,0.1685,-0.3831,-0.8339,0.3594,-0.5,0,0.7,0.01,-0.012,-0.002,0
2018,4,25,17,11,56.842,0.1684,-0.3831,-0.834,0.3594,-0.5,0,0.5,0.01,-0.012,0,0
2018,4,25,17,11,56.863,0.1683,-0.383,-0.834,0.3595,-0.6,-0.1,0.7,0.013,-0.012,0,0
2018,4,25,17,11,56.88,0.1683,-0.383,-0.8341,0.3594,-0.6,-0.1,1,0.011,-0.012,-0.001,0
2018,4,25,17,11,56.901,0.1683,-0.3829,-0.8341,0.3594,-0.4,0,0.9,0.01,-0.012,-0.001,0
2018,4,25,17,11,56.922,0.1683,-0.3828,-0.8341,0.3595,-0.2,0.1,0.7,0.006,-0.007,0.003,0
2018,4,25,17,11,56.958,0.1682,-0.3827,-0.8341,0.3595,-0.2,0.1,0.6,0.011,-0.011,0.001,0
2018,4,25,17,11,56.98,0.1682,-0.3826,-0.8342,0.3596,-0.2,0.1,0.6,0.012,-0.009,0.003,1023
2018,4,25,17,11,56.984,0.1681,-0.3826,-0.8342,0.3596,-0.7,0,0.8,0.01,-0.011,0,1023
2018,4,25,17,11,57.003,0.1681,-0.3825,-0.8342,0.3596,-0.7,0,0.8,0.012,-0.012,0,1023
2018,4,25,17,11,57.023,0.168,-0.3824,-0.8343,0.3596,-0.6,-0.1,0.8,0.007,-0.01,0,1023
2018,4,25,17,11,57.043,0.168,-0.3823,-0.8344,0.3596,-0.4,0,0.8,0.008,-0.012,-0.003,1023
2018,4,25,17,11,57.084,0.168,-0.3822,-0.8344,0.3596,-0.2,0,0.6,0.01,-0.013,-0.005,1023
2018,4,25,17,11,57.102,0.1679,-0.3821,-0.8344,0.3597,-0.3,0,0.6,0.01,-0.014,0.003,1023
2018,4,25,17,11,57.107,0.1679,-0.3821,-0.8344,0.3597,-0.5,0,0.7,0.008,-0.009,-0.001,1023
2018,4,25,17,11,57.127,0.1679,-0.382,-0.8345,0.3597,-0.7,-0.1,0.8,0.012,-0.013,0.001,1023
2018,4,25,17,11,57.149,0.1678,-0.3819,-0.8345,0.3596,-0.7,-0.1,0.9,0.01,-0.011,0,1023
2018,4,25,17,11,57.162,0.1678,-0.3818,-0.8346,0.3596,-0.7,0,0.9,0.009,-0.012,0,1023
2018,4,25,17,11,57.2,0.1678,-0.3817,-0.8346,0.3596,-0.6,-0.1,0.8,0.012,-0.014,0.001,0
2018,4,25,17,11,57.221,0.1677,-0.3817,-0.8347,0.3596,-0.5,0,0.8,0.011,-0.012,-0.002,0
2018,4,25,17,11,57.225,0.1677,-0.3816,-0.8347,0.3596,-0.5,0.1,0.6,0.008,-0.01,-0.001,0
2018,4,25,17,11,57.243,0.1676,-0.3815,-0.8348,0.3597,-0.2,0.1,0.7,0.009,-0.01,0.001,0
2018,4,25,17,11,57.265,0.1676,-0.3814,-0.8348,0.3597,-0.2,0,0.7,0.01,-0.009,-0.001,0
2018,4,25,17,11,57.304,0.1676,-0.3813,-0.8348,0.3598,-0.2,0.1,0.8,0.01,-0.01,0.006,0
2018,4,25,17,11,57.323,0.1675,-0.3812,-0.8348,0.3598,-0.5,-0.1,0.8,0.009,-0.012,0.001,0
2018,4,25,17,11,57.327,0.1675,-0.3812,-0.8348,0.3599,-0.5,-0.1,0.6,0.011,-0.012,0,0
2018,4,25,17,11,57.348,0.1675,-0.3811,-0.8349,0.3599,-0.5,-0.1,0.8,0.013,-0.009,0,0
2018,4,25,17,11,57.368,0.1675,-0.381,-0.8349,0.3598,-0.7,-0.1,1.3,0.009,-0.009,0.002,0
2018,4,25,17,11,57.383,0.1675,-0.3809,-0.835,0.3598,-0.8,-0.2,1.1,0.01,-0.012,0.003,0
2018,4,25,17,11,57.404,0.1675,-0.3808,-0.8351,0.3598,-0.6,-0.1,1.1,0.009,-0.012,0,0
2018,4,25,17,11,57.425,0.1675,-0.3807,-0.8351,0.3598,-0.1,0,0.6,0.008,-0.01,0,0
2018,4,25,17,11,57.445,0.1675,-0.3806,-0.8351,0.3599,0,0.3,0.5,0.008,-0.009,0,0
2018,4,25,17,11,57.466,0.1674,-0.3806,-0.8351,0.36,0,0,0,0.01,-0.01,0.002,0
2018,4,25,17,11,57.486,0.1674,-0.3806,-0.8351,0.3601,-0.2,0.1,0.7,0.01,-0.011,0,0
2018,4,25,17,11,57.508,0.1673,-0.3805,-0.8351,0.3601,-0.3,0,0.9,0.008,-0.011,-0.002,0
2018,4,25,17,11,57.526,0.1673,-0.3804,-0.8351,0.3601,-0.6,-0.1,0.9,0.009,-0.008,0.002,0
2018,4,25,17,11,57.548,0.1673,-0.3803,-0.8352,0.3601,-0.8,-0.1,0.9,0.01,-0.015,0.003,0
2018,4,25,17,11,57.568,0.1673,-0.3802,-0.8353,0.3601,-0.9,-0.1,0.9,0.01,-0.013,0,0
2018,4,25,17,11,57.589,0.1672,-0.3801,-0.8353,0.36,-0.9,-0.2,0.6,0.011,-0.007,0,0
2018,4,25,17,11,57.604,0.1672,-0.3801,-0.8353,0.36,-0.6,-0.1,0.6,0.012,-0.01,-0.006,0
2018,4,25,17,11,57.642,0.1671,-0.38,-0.8354,0.36,-0.2,-0.1,0.9,0.009,-0.008,0.002,0
2018,4,25,17,11,57.663,0.1671,-0.3799,-0.8354,0.3601,-0.5,0,0.9,0.013,-0.013,0,0
2018,4,25,17,11,57.667,0.1671,-0.3798,-0.8355,0.3601,-0.4,0,0.9,0.008,-0.013,0.004,0
2018,4,25,17,11,57.687,0.1671,-0.3797,-0.8355,0.3601,-0.5,0,0.5,0.008,-0.012,0,0
2018,4,25,17,11,57.707,0.167,-0.3797,-0.8355,0.3601,-0.3,0.1,0.5,0.008,-0.011,-0.003,0
2018,4,25,17,11,57.746,0.167,-0.3796,-0.8355,0.3602,0,0.3,0.6,0.01,-0.011,0.001,0
2018,4,25,17,11,57.767,0.1669,-0.3795,-0.8355,0.3603,-0.2,0,0.6,0.014,-0.013,0,1023
2018,4,25,17,11,57.771,0.1668,-0.3794,-0.8356,0.3603,-0.7,-0.1,0.8,0.012,-0.011,0.005,1023
2018,4,25,17,11,57.789,0.1668,-0.3794,-0.8356,0.3603,-0.7,0,0.8,0.01,-0.011,-0.004,1023
2018,4,25,17,11,57.81,0.1668,-0.3793,-0.8357,0.3602,-0.6,0,0.8,0.008,-0.012,0.002,1023
2018,4,25,17,11,57.827,0.1668,-0.3792,-0.8357,0.3602,-0.4,-0.1,0.7,0.01,-0.01,0.002,1023
2018,4,25,17,11,57.863,0.1667,-0.3791,-0.8358,0.3603,-0.3,0,0.6,0.008,-0.01,0,1023
2018,4,25,17,11,57.885,0.1667,-0.379,-0.8358,0.3603,-0.2,0.1,0.8,0.008,-0.013,0.003,1023
2018,4,25,17,11,57.889,0.1667,-0.379,-0.8358,0.3604,-0.5,0,0.8,0.009,-0.011,0.002,1023
2018,4,25,17,11,57.908,0.1666,-0.3789,-0.8359,0.3604,-0.6,0,0.8,0.012,-0.009,0,1023
2018,4,25,17,11,57.927,0.1666,-0.3788,-0.8359,0.3603,-0.6,0,0.8,0.008,-0.01,-0.001,1023
2018,4,25,17,11,57.968,0.1665,-0.3787,-0.8359,0.3603,-0.6,-0.1,0.8,0.009,-0.012,0,1023
2018,4,25,17,11,57.987,0.1665,-0.3787,-0.836,0.3603,-0.3,0,0.9,0.011,-0.012,0.002,0
2018,4,25,17,11,57.991,0.1665,-0.3786,-0.836,0.3603,-0.5,0,0.8,0.008,-0.009,0.001,0
2018,4,25,17,11,58.011,0.1664,-0.3785,-0.8361,0.3604,-0.2,0.1,0.8,0.007,-0.008,0.001,0
2018,4,25,17,11,58.03,0.1664,-0.3784,-0.8361,0.3604,-0.3,0,0.5,0.011,-0.014,0,0
2018,4,25,17,11,58.07,0.1664,-0.3783,-0.8361,0.3604,-0.5,0,0.7,0.01,-0.006,0,0
2018,4,25,17,11,58.088,0.1664,-0.3783,-0.8362,0.3604,-0.3,0,0.8,0.007,-0.012,0.004,0
2018,4,25,17,11,58.092,0.1664,-0.3782,-0.8362,0.3605,0,-0.1,0.7,0.011,-0.014,-0.001,0
2018,4,25,17,11,58.112,0.1664,-0.3781,-0.8362,0.3606,-0.2,0,0.8,0.01,-0.014,0.004,0
2018,4,25,17,11,58.126,0.1663,-0.378,-0.8362,0.3606,-0.2,-0.1,0.9,0.012,-0.014,-0.001,0
2018,4,25,17,11,58.162,0.1663,-0.3779,-0.8362,0.3606,-0.5,0,0.8,0.009,-0.013,-0.001,0
2018,4,25,17,11,58.182,0.1663,-0.3778,-0.8363,0.3607,-0.3,0.1,0.9,0.01,-0.012,0.001,0
2018,4,25,17,11,58.191,0.1663,-0.3777,-0.8363,0.3607,-0.1,0.1,0.9,0.008,-0.013,0,0
2018,4,25,17,11,58.229,0.1663,-0.3776,-0.8363,0.3608,0,0,0.8,0.009,-0.011,-0.001,0
2018,4,25,17,11,58.248,0.1662,-0.3775,-0.8363,0.3609,0,0,0.5,0.008,-0.012,0,0
2018,4,25,17,11,58.252,0.1662,-0.3774,-0.8363,0.361,0,0.1,0.6,0.007,-0.01,0.001,0
2018,4,25,17,11,58.287,0.1662,-0.3773,-0.8364,0.3611,-0.1,0,0.7,0.012,-0.011,0.002,0
2018,4,25,17,11,58.31,0.1661,-0.3772,-0.8364,0.3611,-0.3,0,0.8,0.01,-0.01,0.002,0
2018,4,25,17,11,58.312,0.1661,-0.3771,-0.8364,0.3611,-0.5,-0.1,1.1,0.01,-0.012,-0.001,0
2018,4,25,17,11,58.33,0.1661,-0.377,-0.8365,0.3611,-0.7,0,0.9,0.009,-0.011,-0.001,0
2018,4,25,17,11,58.349,0.1661,-0.3769,-0.8365,0.3611,-0.7,-0.1,0.8,0.009,-0.011,0.004,0
2018,4,25,17,11,58.371,0.1661,-0.3769,-0.8366,0.361,-0.7,0,0.8,0.008,-0.012,0.004,0
2018,4,25,17,11,58.409,0.166,-0.3768,-0.8366,0.361,-0.7,-0.1,0.5,0.012,-0.011,0,0
2018,4,25,17,11,58.429,0.166,-0.3768,-0.8367,0.361,0,0,0,0.012,-0.011,0.002,0
2018,4,25,17,11,58.433,0.1659,-0.3767,-0.8367,0.3611,-0.1,0.3,0.6,0.012,-0.013,-0.001,0
2018,4,25,17,11,58.451,0.1658,-0.3766,-0.8367,0.3612,0,0.2,0.9,0.01,-0.012,0.001,0
2018,4,25,17,11,58.474,0.1658,-0.3765,-0.8367,0.3612,-0.2,0.3,0.7,0.01,-0.012,0.006,0
2018,4,25,17,11,58.494,0.1658,-0.3764,-0.8367,0.3613,-0.3,0.2,0.6,0.009,-0.009,0,0
2018,4,25,17,11,58.51,0.1657,-0.3763,-0.8367,0.3614,-0.1,0.1,0.5,0.011,-0.012,0.002,0
2018,4,25,17,11,58.529,0.1656,-0.3763,-0.8368,0.3615,-0.2,-0.1,0.6,0.009,-0.011,0.001,0
2018,4,25,17,11,58.569,0.1656,-0.3762,-0.8368,0.3615,-0.6,0,0.9,0.01,-0.012,0.002,0
2018,4,25,17,11,58.589,0.1656,-0.3761,-0.8369,0.3614,-1,-0.3,1.2,0.01,-0.011,0.004,1023
2018,4,25,17,11,58.593,0.1656,-0.376,-0.8369,0.3613,-1.3,-0.4,0.9,0.008,-0.015,-0.002,1023
2018,4,25,17,11,58.63,0.1656,-0.3759,-0.837,0.3612,-0.7,0,0.7,0.008,-0.011,-0.001,1023
2018,4,25,17,11,58.65,0.1655,-0.3759,-0.8371,0.3612,-0.4,0.1,0.8,0.01,-0.013,-0.001,1023
2018,4,25,17,11,58.654,0.1655,-0.3758,-0.8371,0.3613,0,0.1,0.7,0.009,-0.014,0,1023
2018,4,25,17,11,58.675,0.1655,-0.3757,-0.8371,0.3613,-0.4,0,0.8,0.012,-0.012,0.006,1023
2018,4,25,17,11,58.695,0.1655,-0.3756,-0.8372,0.3613,-0.7,-0.2,0.7,0.009,-0.014,0.004,1023
2018,4,25,17,11,58.715,0.1654,-0.3755,-0.8372,0.3613,-0.9,-0.1,0.8,0.012,-0.011,0.005,1023
2018,4,25,17,11,58.734,0.1654,-0.3754,-0.8373,0.3613,-0.2,0.1,0.7,0.011,-0.01,0,1023
2018,4,25,17,11,58.773,0.1653,-0.3754,-0.8373,0.3614,0,0.1,0.5,0.009,-0.014,-0.003,1023
2018,4,25,17,11,58.794,0.1652,-0.3753,-0.8373,0.3615,0,0.2,0.5,0.011,-0.011,0.005,1023
2018,4,25,17,11,58.798,0.1652,-0.3752,-0.8373,0.3616,0,0.2,0.6,0.01,-0.011,0.001,0
2018,4,25,17,11,58.813,0.1652,-0.3751,-0.8373,0.3617,-0.3,0,0.8,0.008,-0.011,0.005,0
2018,4,25,17,11,58.85,0.1652,-0.375,-0.8373,0.3617,-0.5,0,0.8,0.007,-0.012,0.001,0
2018,4,25,17,11,58.87,0.1651,-0.375,-0.8373,0.3617,-0.6,-0.2,0.9,0.01,-0.011,0.002,0
2018,4,25,17,11,58.874,0.1651,-0.3749,-0.8374,0.3616,-0.6,0,0.8,0.008,-0.012,0.001,0
2018,4,25,17,11,58.913,0.1651,-0.3748,-0.8374,0.3616,-0.5,-0.1,0.9,0.01,-0.012,-0.001,0
2018,4,25,17,11,58.935,0.1651,-0.3747,-0.8375,0.3616,-0.5,0,0.9,0.013,-0.01,0.001,0
2018,4,25,17,11,58.939,0.165,-0.3746,-0.8375,0.3616,-0.5,0,0.7,0.012,-0.012,0.001,0
2018,4,25,17,11,58.956,0.165,-0.3746,-0.8376,0.3616,-0.5,0,0.8,0.011,-0.011,0.002,0
2018,4,25,17,11,58.994,0.165,-0.3745,-0.8376,0.3617,-0.3,0,0.9,0.013,-0.01,0.001,0
2018,4,25,17,11,59.012,0.1649,-0.3743,-0.8377,0.3617,-0.4,0.1,1.3,0.009,-0.013,-0.001,0
2018,4,25,17,11,59.017,0.1649,-0.3742,-0.8377,0.3617,-0.5,0,1,0.009,-0.013,0,0
2018,4,25,17,11,59.052,0.1649,-0.3741,-0.8378,0.3617,-0.5,0,0.7,0.011,-0.009,0,0
2018,4,25,17,11,59.072,0.1648,-0.374,-0.8378,0.3617,-0.1,0,0.5,0.009,-0.011,0.002,0
2018,4,25,17,11,59.076,0.1648,-0.374,-0.8378,0.3618,0.1,0.1,0.5,0.011,-0.01,-0.001,0
2018,4,25,17,11,59.097,0.1647,-0.3739,-0.8378,0.362,0.1,0.2,0.7,0.008,-0.011,0.003,0
2018,4,25,17,11,59.118,0.1647,-0.3738,-0.8378,0.362,-0.3,0,0.9,0.009,-0.014,0.005,0
2018,4,25,17,11,59.138,0.1647,-0.3737,-0.8378,0.362,-0.8,-0.1,0.9,0.009,-0.015,-0.004,0
2018,4,25,17,11,59.156,0.1647,-0.3736,-0.8379,0.362,-0.9,-0.1,0.9,0.007,-0.007,0,0
2018,4,25,17,11,59.198,0.1647,-0.3736,-0.838,0.3619,-0.7,0,0.7,0.009,-0.014,-0.002,0
2018,4,25,17,11,59.202,0.1646,-0.3735,-0.838,0.3619,-0.2,0,0.7,0.009,-0.011,0.002,0
2018,4,25,17,11,59.215,0.1646,-0.3734,-0.838,0.3619,-0.6,0,0.5,0.008,-0.012,-0.003,0
2018,4,25,17,11,59.254,0.1645,-0.3734,-0.8381,0.3619,-0.5,0.1,0.6,0.01,-0.014,0,0
2018,4,25,17,11,59.275,0.1644,-0.3733,-0.8381,0.362,-0.4,0.1,0.9,0.01,-0.009,0,0
2018,4,25,17,11,59.279,0.1644,-0.3732,-0.8381,0.362,-0.5,0,1.1,0.008,-0.01,0,0
2018,4,25,17,11,59.296,0.1644,-0.3731,-0.8382,0.362,-0.7,0,0.8,0.009,-0.008,0.004,0
2018,4,25,17,11,59.334,0.1643,-0.373,-0.8382,0.362,-0.8,0.1,0.9,0.01,-0.01,0,0
2018,4,25,17,11,59.354,0.1642,-0.373,-0.8383,0.3619,-0.7,-0.1,0.8,0.013,-0.014,0.001,0
2018,4,25,17,11,59.358,0.1642,-0.3729,-0.8384,0.3619,-0.4,0,0.9,0.009,-0.012,0,0
2018,4,25,17,11,59.396,0.1642,-0.3728,-0.8384,0.3619,-0.4,0,1,0.009,-0.012,0,0
2018,4,25,17,11,59.416,0.1642,-0.3726,-0.8385,0.3619,-0.2,0,1.1,0.011,-0.012,0,1023
2018,4,25,17,11,59.42,0.1642,-0.3725,-0.8385,0.362,0,0,1.1,0.007,-0.012,-0.003,1023
2018,4,25,17,11,59.439,0.1643,-0.3724,-0.8385,0.3621,0.4,0,1.1,0.006,-0.01,-0.001,1023
2018,4,25,17,11,59.46,0.1643,-0.3722,-0.8385,0.3622,0.2,0.3,0.7,0.01,-0.011,0,1023
2018,4,25,17,11,59.477,0.1643,-0.3721,-0.8385,0.3624,0,0,0,0.007,-0.01,-0.004,1023
