ax,ay,az,dpitch,droll,dyaw,heart,time_1,time_2,time_3,time_4,time_5,time_6,w,x,y,z
0.021,0.027,0.007,0.5,-3.6,0.5,0,2018,5,11,13,59,6.724,0.504,-0.085,0.2774,-0.8134
0.019,0.022,0,1.1,-5.2,1,0,2018,5,11,13,59,6.742,0.504,-0.0853,0.2778,-0.8132
0.016,0.026,0.006,1.5,-6.2,1.6,0,2018,5,11,13,59,6.749,0.504,-0.0859,0.2784,-0.813
0.007,0.024,0.013,0.3,-6.5,1,0,2018,5,11,13,59,6.787,0.5039,-0.0865,0.279,-0.8128
0.009,0.009,0.003,-0.4,-6.2,0.6,0,2018,5,11,13,59,6.806,0.5038,-0.087,0.2798,-0.8125
0.014,0.011,-0.006,-0.1,-5.4,0.8,0,2018,5,11,13,59,6.81,0.5038,-0.0874,0.2807,-0.8122
0.011,0.017,-0.004,-0.1,-5.5,0.5,0,2018,5,11,13,59,6.828,0.5038,-0.0878,0.2814,-0.8119
0.009,0.018,0.002,-0.1,-5.2,0.4,0,2018,5,11,13,59,6.847,0.5039,-0.0881,0.2822,-0.8115
0.011,0.016,0.001,-0.8,-5.7,0.2,0,2018,5,11,13,59,6.866,0.5037,-0.0885,0.2827,-0.8114
0.014,0.033,-0.003,-0.9,-5.9,0.1,0,2018,5,11,13,59,6.905,0.5037,-0.0887,0.2835,-0.8111
0.016,0.025,0.002,-0.7,-7,0.5,0,2018,5,11,13,59,6.923,0.5037,-0.0889,0.2843,-0.8108
0.01,0.007,0.011,-1,-6.7,0.2,0,2018,5,11,13,59,6.927,0.5036,-0.0893,0.2852,-0.8105
0.012,0.008,0.01,-1.3,-7.1,-0.3,0,2018,5,11,13,59,6.966,0.5035,-0.0897,0.2861,-0.8102
0.011,0.013,0.002,-1.5,-6.5,-0.3,0,2018,5,11,13,59,6.985,0.5035,-0.0899,0.2872,-0.8098
0.008,0.019,-0.002,-1.9,-5.7,-0.2,0,2018,5,11,13,59,6.99,0.5035,-0.0901,0.2881,-0.8095
0.008,0.016,0.005,-2.6,-5,-0.8,0,2018,5,11,13,59,7.011,0.5034,-0.0901,0.2888,-0.8092
0.009,0.018,0.005,-2.9,-5.6,-1.1,0,2018,5,11,13,59,7.03,0.5034,-0.0901,0.2897,-0.809
0.014,0.021,0,-2.4,-6,-1,0,2018,5,11,13,59,7.048,0.5034,-0.09,0.2907,-0.8086
0.016,0.019,0.013,-2.5,-6.2,-0.8,0,2018,5,11,13,59,7.065,0.5034,-0.0901,0.2916,-0.8083
0.014,0.019,-0.003,-3.2,-6.4,-0.9,0,2018,5,11,13,59,7.106,0.5035,-0.0899,0.2927,-0.8078
0.015,0.013,-0.009,-2.8,-4.5,-0.6,0,2018,5,11,13,59,7.125,0.5034,-0.0898,0.2937,-0.8075
0.012,0.004,0.006,-2.3,-3.1,-0.7,1023,2018,5,11,13,59,7.128,0.5035,-0.0896,0.2945,-0.8072
0.008,0.018,0.012,-2.2,-3.7,-1.1,1023,2018,5,11,13,59,7.169,0.5037,-0.0894,0.2951,-0.8069
0.014,0.025,0,-2.7,-5.3,-1,1023,2018,5,11,13,59,7.189,0.504,-0.0892,0.296,-0.8064
0.013,0.013,-0.008,-2.3,-4.8,-0.5,1023,2018,5,11,13,59,7.193,0.5042,-0.089,0.2971,-0.8059
0.012,0,-0.005,-1.5,-2.7,-0.5,1023,2018,5,11,13,59,7.211,0.5042,-0.0889,0.2979,-0.8056
0.017,0.021,0.002,-1.4,-1.2,-0.8,1023,2018,5,11,13,59,7.249,0.5043,-0.0887,0.2981,-0.8055
0.022,0.025,-0.004,-1,-1.8,-0.5,1023,2018,5,11,13,59,7.27,0.5046,-0.0883,0.2986,-0.8051
0.016,0.034,-0.004,0.2,-3.4,0.7,1023,2018,5,11,13,59,7.274,0.505,-0.0882,0.2991,-0.8047
0.014,0.016,-0.002,0.5,-3.2,1.2,1023,2018,5,11,13,59,7.313,0.505,-0.0884,0.2994,-0.8046
0.014,0.006,-0.001,0.3,-1.4,1.2,1023,2018,5,11,13,59,7.332,0.505,-0.0886,0.2998,-0.8044
0.013,0.01,-0.004,0.9,-0.5,1.1,1023,2018,5,11,13,59,7.336,0.5051,-0.0888,0.2999,-0.8043
0.011,0.016,0.003,1,-0.3,1.4,0,2018,5,11,13,59,7.35,0.5052,-0.0889,0.2999,-0.8042
0.016,0.025,-0.01,1.3,-0.8,1.8,0,2018,5,11,13,59,7.389,0.5052,-0.089,0.2998,-0.8042
0.015,0.028,-0.002,2.2,-1.3,2.4,0,2018,5,11,13,59,7.411,0.5053,-0.0892,0.2997,-0.8042
0.007,0.007,0.01,2.2,-1,2.4,0,2018,5,11,13,59,7.416,0.5052,-0.0897,0.2996,-0.8042
0.007,0.009,0.008,1.5,-1.4,1.7,0,2018,5,11,13,59,7.433,0.5051,-0.0902,0.2995,-0.8043
0.01,0.026,-0.002,0.8,-1.2,1.3,0,2018,5,11,13,59,7.471,0.505,-0.0905,0.2994,-0.8044
0.008,0.017,0,0.4,-1,1.5,0,2018,5,11,13,59,7.491,0.5051,-0.0906,0.2994,-0.8043
0.007,0.005,0.01,0.3,-0.7,1.2,0,2018,5,11,13,59,7.495,0.5051,-0.0907,0.2994,-0.8043
0.01,0.014,0.003,0,-1.1,0.8,0,2018,5,11,13,59,7.515,0.505,-0.0908,0.2993,-0.8043
0.012,0.019,-0.005,0.2,-0.7,0.9,0,2018,5,11,13,59,7.535,0.505,-0.0909,0.2993,-0.8044
0.013,0.014,-0.007,-0.1,-0.3,0.8,0,2018,5,11,13,59,7.551,0.5051,-0.0908,0.2994,-0.8043
0.011,0.018,0,0.3,-0.4,0.7,0,2018,5,11,13,59,7.574,0.5052,-0.0907,0.2994,-0.8042
0.017,0.024,-0.005,0.2,-0.6,1,0,2018,5,11,13,59,7.592,0.5053,-0.0907,0.2994,-0.8041
0.012,0.015,0.002,0.9,0.1,1.5,0,2018,5,11,13,59,7.615,0.5054,-0.0907,0.2993,-0.8041
0.009,0.014,0.009,1.1,0,1.1,0,2018,5,11,13,59,7.633,0.5054,-0.0908,0.2991,-0.8042
0.017,0.021,-0.015,1.2,-1,0.8,0,2018,5,11,13,59,7.653,0.5056,-0.0909,0.299,-0.8041
0.019,0.047,-0.034,2.6,-0.9,2.1,0,2018,5,11,13,59,7.691,0.5057,-0.0911,0.299,-0.804
0.008,0.02,0.022,3.3,-2.1,2.8,0,2018,5,11,13,59,7.712,0.5057,-0.0916,0.2987,-0.804
0.005,-0.001,0.011,1.4,-3,1.9,0,2018,5,11,13,59,7.717,0.5058,-0.0921,0.2989,-0.8039
0.025,0.055,-0.062,3.1,-1.8,1.3,0,2018,5,11,13,59,7.736,0.5058,-0.0926,0.2991,-0.8037
0.028,0.047,-0.021,7.1,1.9,5.2,0,2018,5,11,13,59,7.757,0.5059,-0.0931,0.2987,-0.8038
0.003,-0.025,0.074,5.4,1.5,5.7,0,2018,5,11,13,59,7.772,0.5057,-0.0939,0.2974,-0.8043
0,-0.021,0.008,4.3,0,4.5,0,2018,5,11,13,59,7.792,0.5052,-0.0949,0.2968,-0.8047
-0.003,-0.002,-0.007,4.3,3.7,3.1,1023,2018,5,11,13,59,7.833,0.505,-0.0957,0.2961,-0.805
0.007,-0.011,-0.002,4.8,7.6,1.8,1023,2018,5,11,13,59,7.851,0.505,-0.0961,0.2949,-0.8054
0.007,0.008,-0.005,7.2,10.1,2.4,1023,2018,5,11,13,59,7.855,0.5053,-0.0963,0.2931,-0.8058
0.007,0.035,0.004,6.5,12.5,3,1023,2018,5,11,13,59,7.875,0.5056,-0.0963,0.2905,-0.8066
0.015,0.021,-0.009,5.8,13.4,3.6,1023,2018,5,11,13,59,7.895,0.5058,-0.096,0.288,-0.8074
0.019,-0.019,-0.006,5.9,15.9,4.1,1023,2018,5,11,13,59,7.934,0.5059,-0.0957,0.2855,-0.8082
0.024,-0.044,-0.018,8.4,26,5.7,1023,2018,5,11,13,59,7.954,0.506,-0.0952,0.2822,-0.8094
0,-0.059,-0.01,11.5,40.9,5.7,1023,2018,5,11,13,59,7.958,0.5063,-0.0942,0.2771,-0.811
-0.018,-0.058,-0.026,12.8,54.5,5,1023,2018,5,11,13,59,7.978,0.507,-0.0921,0.2693,-0.8135
-0.065,-0.021,0.012,17.2,72.1,5.8,1023,2018,5,11,13,59,7.999,0.508,-0.0895,0.2592,-0.8164
-0.093,0.044,0.008,21.6,76.2,7.1,1023,2018,5,11,13,59,8.021,0.5091,-0.0863,0.2461,-0.8201
-0.283,0.01,-0.003,28.8,71.5,10.8,1023,2018,5,11,13,59,8.04,0.51,-0.0839,0.2328,-0.8237
-0.178,0.126,0.061,27.8,61,15,1023,2018,5,11,13,59,8.056,0.5104,-0.0824,0.2205,-0.827
-0.232,0.028,0.042,19.8,34,15.3,0,2018,5,11,13,59,8.094,0.5096,-0.0823,0.2114,-0.8299
-0.174,0.073,0.016,15.3,25.5,16.7,0,2018,5,11,13,59,8.114,0.5084,-0.0827,0.2053,-0.8321
-0.07,0.131,0.007,14.2,12,16.7,0,2018,5,11,13,59,8.118,0.5068,-0.0838,0.2012,-0.8339
0.028,0.145,-0.009,14.9,4,18.7,0,2018,5,11,13,59,8.155,0.505,-0.0855,0.1976,-0.8357
-0.085,0.056,0.095,14.6,0.8,21.1,0,2018,5,11,13,59,8.175,0.5026,-0.0879,0.1942,-0.8377
-0.09,0.014,0.031,15.4,-1.8,19.2,0,2018,5,11,13,59,8.18,0.5,-0.0915,0.1918,-0.8394
-0.072,0.007,0.021,17.6,-1.5,17.2,0,2018,5,11,13,59,8.2,0.4978,-0.0955,0.1896,-0.8408
-0.001,-0.004,0.018,17.3,-1.2,14.9,0,2018,5,11,13,59,8.222,0.4961,-0.0989,0.1878,-0.8418
0.028,-0.032,-0.005,19.9,1.3,15.5,0,2018,5,11,13,59,8.241,0.4944,-0.1021,0.186,-0.8428
0.031,-0.045,0.004,22.6,4.9,16,0,2018,5,11,13,59,8.26,0.493,-0.1054,0.1839,-0.8437
0.012,-0.001,-0.008,21.6,5.9,15.5,0,2018,5,11,13,59,8.28,0.4916,-0.1086,0.181,-0.8447
0.066,0.01,-0.029,21.1,1.6,16.8,0,2018,5,11,13,59,8.299,0.4902,-0.1116,0.1785,-0.8457
0.095,-0.001,-0.011,19.5,-5.1,20.4,0,2018,5,11,13,59,8.319,0.4884,-0.1148,0.1771,-0.8466
0.082,0.002,-0.002,16.8,-8.1,23.5,0,2018,5,11,13,59,8.356,0.4857,-0.1181,0.1765,-0.8478
0.128,-0.045,-0.007,14,-9.9,25.8,0,2018,5,11,13,59,8.377,0.4825,-0.1213,0.1766,-0.8492
0.138,-0.021,-0.044,15.7,-8.2,25.8,0,2018,5,11,13,59,8.381,0.4791,-0.125,0.1763,-0.8506
0.096,0.001,0.002,17.2,-8.6,24.2,0,2018,5,11,13,59,8.418,0.4759,-0.1284,0.176,-0.852
0.114,-0.005,0.045,16.1,-5.8,21,0,2018,5,11,13,59,8.437,0.4731,-0.1312,0.1755,-0.8532
0.137,0.007,0.019,15.9,-5.4,18.2,0,2018,5,11,13,59,8.441,0.4708,-0.1336,0.1749,-0.8543
0.219,0.05,-0.037,19.7,-9.6,19,0,2018,5,11,13,59,8.462,0.4684,-0.1374,0.1741,-0.8552
0.29,0.057,0.054,24.8,-20.9,21.7,0,2018,5,11,13,59,8.483,0.4657,-0.1426,0.174,-0.8558
0.346,-0.032,0.113,25.2,-18,21.7,0,2018,5,11,13,59,8.498,0.4626,-0.1488,0.1745,-0.8563
0.199,-0.058,0.042,29.9,-2.6,21.3,0,2018,5,11,13,59,8.537,0.4599,-0.1543,0.1734,-0.857
0.023,-0.031,-0.025,35.1,6.8,20.5,0,2018,5,11,13,59,8.558,0.4578,-0.1596,0.1702,-0.8578
0.008,0.074,-0.034,38.8,8.5,20.3,1023,2018,5,11,13,59,8.562,0.4561,-0.1651,0.1651,-0.8586
-0.019,0.051,0.032,37.8,3.2,18,1023,2018,5,11,13,59,8.581,0.4545,-0.1709,0.1599,-0.8594
-0.014,0.041,0.014,34.7,0.4,16.7,1023,2018,5,11,13,59,8.601,0.4531,-0.1765,0.1557,-0.8598
-0.026,0.027,0.003,30.7,5.2,10.6,1023,2018,5,11,13,59,8.623,0.4521,-0.1816,0.152,-0.8599
-0.015,0.047,-0.049,26.9,7.9,4.9,1023,2018,5,11,13,59,8.643,0.4521,-0.1856,0.148,-0.8597
0.013,0.08,-0.027,25.4,1.4,3.4,1023,2018,5,11,13,59,8.663,0.4525,-0.1891,0.1446,-0.8593
0.002,0.025,0.036,20.6,-5.5,3.2,1023,2018,5,11,13,59,8.684,0.4529,-0.1925,0.1427,-0.8586
0.006,-0.009,0.009,17.4,-8.4,5.4,1023,2018,5,11,13,59,8.722,0.4526,-0.1958,0.1422,-0.8581
0.014,-0.001,-0.043,16,-7.3,7.2,1023,2018,5,11,13,59,8.742,0.452,-0.1992,0.142,-0.8577
0.028,0.056,-0.07,17.6,-10.9,9.9,1023,2018,5,11,13,59,8.746,0.4509,-0.2025,0.1416,-0.8576
0.002,0.027,0.054,17.9,-21,14.5,1023,2018,5,11,13,59,8.766,0.4489,-0.2065,0.1417,-0.8577
0.019,-0.026,0.055,12.5,-16.5,16.1,1023,2018,5,11,13,59,8.786,0.4463,-0.2105,0.1428,-0.8578
0.027,-0.045,0.002,11.9,-8.5,18.3,1023,2018,5,11,13,59,8.802,0.4438,-0.2136,0.1434,-0.8583
0.017,-0.002,-0.033,14.3,-2.4,18.4,0,2018,5,11,13,59,8.821,0.4416,-0.2164,0.143,-0.8588
-0.012,0.013,-0.029,16.6,1.3,18,0,2018,5,11,13,59,8.842,0.4392,-0.2193,0.1411,-0.8596
-0.003,0.036,0.034,20.5,-0.4,19.6,0,2018,5,11,13,59,8.863,0.4372,-0.2224,0.1385,-0.8603
-0.007,0,0.046,19.3,-7,19.9,0,2018,5,11,13,59,8.881,0.4348,-0.226,0.1365,-0.8609
-0.004,-0.024,0.014,20.4,-2.7,20,0,2018,5,11,13,59,8.916,0.4323,-0.2298,0.1351,-0.8613
0.018,0.011,-0.016,23.4,4,19.3,0,2018,5,11,13,59,8.938,0.4302,-0.2335,0.1327,-0.8617
0.006,0.02,0.015,25.2,10.6,17.6,0,2018,5,11,13,59,8.946,0.4285,-0.2369,0.129,-0.8622
-0.007,0.031,0.017,25,12.4,15.3,0,2018,5,11,13,59,8.986,0.4274,-0.24,0.1244,-0.8626
0.005,0.039,-0.007,23.9,9.7,14.4,0,2018,5,11,13,59,8.99,0.4265,-0.243,0.12,-0.8628
0.023,0.04,-0.025,23.5,7.4,13.6,0,2018,5,11,13,59,9.006,0.4256,-0.246,0.1162,-0.8629
0.006,0.013,0,22.5,10.1,12,0,2018,5,11,13,59,9.022,0.4247,-0.249,0.1126,-0.863
0.012,0.011,0.003,21.5,14.1,11,0,2018,5,11,13,59,9.061,0.4238,-0.2515,0.1082,-0.8633
0.03,0.037,-0.008,21.7,12,12.3,0,2018,5,11,13,59,9.083,0.4231,-0.2539,0.1039,-0.8635
0.047,0.043,-0.01,23.1,3.6,14.9,0,2018,5,11,13,59,9.087,0.4221,-0.2565,0.1002,-0.8636
0.039,0.001,0.028,24.7,-2.5,17.4,0,2018,5,11,13,59,9.106,0.4202,-0.26,0.0977,-0.8638
0.007,-0.037,0.052,24.7,1.8,17.9,0,2018,5,11,13,59,9.125,0.4182,-0.2638,0.0955,-0.8638
0.018,0.001,-0.022,24.3,9.2,17.4,0,2018,5,11,13,59,9.163,0.4166,-0.2672,0.0922,-0.8639
0.016,0.044,-0.039,26.6,6.5,18.4,0,2018,5,11,13,59,9.185,0.4148,-0.2707,0.088,-0.8641
-0.002,0.07,-0.013,29.5,-3.9,19.2,0,2018,5,11,13,59,9.189,0.4126,-0.2749,0.0843,-0.8642
-0.017,0.015,0.037,29.8,-15.3,20.2,0,2018,5,11,13,59,9.204,0.4097,-0.2803,0.0823,-0.8641
0.034,-0.024,0.024,28.6,-8.4,20.8,0,2018,5,11,13,59,9.222,0.4065,-0.2858,0.0812,-0.8639
0.034,-0.027,0.022,29.4,0.6,20,0,2018,5,11,13,59,9.243,0.404,-0.2905,0.079,-0.8637
0.003,-0.009,0.01,28.3,7,18.3,0,2018,5,11,13,59,9.282,0.402,-0.2946,0.0755,-0.8636
-0.008,0.036,-0.024,26.3,1.2,16.6,0,2018,5,11,13,59,9.302,0.4,-0.2986,0.0717,-0.8634
-0.003,0.087,-0.035,26.4,-15.9,15.9,1023,2018,5,11,13,59,9.307,0.3975,-0.3033,0.0694,-0.8631
-0.009,0.038,-0.007,23.3,-22.3,17.2,1023,2018,5,11,13,59,9.326,0.394,-0.3089,0.0694,-0.8628
-0.006,-0.029,0.016,20.7,-14.1,15.7,1023,2018,5,11,13,59,9.347,0.3909,-0.3136,0.0696,-0.8624
-0.002,-0.042,0,17.9,-5.5,13.8,1023,2018,5,11,13,59,9.368,0.3886,-0.3175,0.0692,-0.8621
0.013,0.002,-0.025,16.8,2.9,11.9,1023,2018,5,11,13,59,9.389,0.3869,-0.3204,0.0675,-0.8619
-0.004,0.02,0.006,13.8,4.6,9.3,1023,2018,5,11,13,59,9.408,0.3857,-0.3226,0.065,-0.8618
-0.008,0.035,-0.009,9,3.4,6.2,1023,2018,5,11,13,59,9.449,0.3847,-0.3242,0.0628,-0.8619
0.003,0.051,-0.02,6.5,-2,4.9,1023,2018,5,11,13,59,9.453,0.3838,-0.3254,0.0613,-0.8619
0,0.02,0.005,3.5,-4.9,3.8,1023,2018,5,11,13,59,9.469,0.383,-0.3265,0.061,-0.8619
0.002,0,-0.005,0.6,-3.8,2.4,1023,2018,5,11,13,59,9.505,0.3825,-0.3271,0.0612,-0.8619
0.015,0.02,-0.009,0.1,-5.7,2.7,1023,2018,5,11,13,59,9.509,0.3821,-0.3274,0.0618,-0.8619
0.006,0,0.016,-0.7,-6.7,3,1023,2018,5,11,13,59,9.527,0.3813,-0.3277,0.0624,-0.8621
0.021,-0.002,0.003,-0.9,-4.5,3.6,1023,2018,5,11,13,59,9.546,0.3802,-0.3279,0.0629,-0.8624
0.019,-0.005,0.001,-0.4,-1.8,2.7,0,2018,5,11,13,59,9.567,0.3799,-0.3279,0.0634,-0.8625
0.021,0.016,0.004,0.6,-2.1,3,0,2018,5,11,13,59,9.605,0.3797,-0.3278,0.0635,-0.8627
0.013,0.017,0.017,1.3,-1.5,2.5,0,2018,5,11,13,59,9.625,0.3793,-0.3279,0.0635,-0.8628
0.005,-0.009,0.002,1.2,1.1,2.1,0,2018,5,11,13,59,9.629,0.3792,-0.328,0.0633,-0.8628
0.012,0.005,-0.003,2.5,2.5,2.1,0,2018,5,11,13,59,9.651,0.3791,-0.3282,0.0627,-0.8628
0.003,0.011,0.004,2.6,2.2,1.4,0,2018,5,11,13,59,9.67,0.3788,-0.3285,0.0618,-0.8629
0.021,0.016,-0.004,2.9,-0.3,2.7,0,2018,5,11,13,59,9.705,0.3786,-0.3288,0.0611,-0.8629
0.029,0.006,0.016,4,-3.7,4.5,0,2018,5,11,13,59,9.726,0.3779,-0.3293,0.0608,-0.863
0.019,-0.019,0.016,4.5,-4,5.8,0,2018,5,11,13,59,9.73,0.3773,-0.33,0.0611,-0.8631
0.018,0.003,-0.009,5.1,-3.9,6.7,0,2018,5,11,13,59,9.749,0.3763,-0.331,0.061,-0.8631
0.015,0.006,-0.009,5.6,-2.5,7.1,0,2018,5,11,13,59,9.769,0.3751,-0.3321,0.0607,-0.8632
0.011,0.006,0.004,6.1,-3.5,6.4,0,2018,5,11,13,59,9.789,0.374,-0.3332,0.0603,-0.8633
0.001,0.006,0.013,5.5,-2.1,5.2,0,2018,5,11,13,59,9.808,0.3732,-0.3342,0.06,-0.8633
0.004,0.018,-0.007,5.3,-1.8,3.2,0,2018,5,11,13,59,9.83,0.3726,-0.3351,0.0595,-0.8633
0.012,0.037,-0.011,5.7,-2.4,3.5,0,2018,5,11,13,59,9.851,0.3722,-0.3359,0.059,-0.8631
0,-0.004,0.016,4.5,-3.8,2.2,0,2018,5,11,13,59,9.871,0.3717,-0.3369,0.0589,-0.8629
0.01,-0.009,-0.009,2.9,-1.7,1.8,0,2018,5,11,13,59,9.908,0.3713,-0.3377,0.0589,-0.8628
0.021,0.021,-0.02,2.8,-0.6,1.7,0,2018,5,11,13,59,9.929,0.3713,-0.3382,0.0588,-0.8627
0.01,0,0.017,2,-2.2,1.4,0,2018,5,11,13,59,9.933,0.3711,-0.3385,0.0587,-0.8626
0.007,0.002,0.005,0.7,-3.5,0.5,0,2018,5,11,13,59,9.95,0.3709,-0.3388,0.0589,-0.8626
0.011,0.011,-0.018,0,-3.2,-0.2,0,2018,5,11,13,59,9.985,0.3709,-0.339,0.0594,-0.8625
0.016,0.022,-0.002,0.6,-2.2,0,0,2018,5,11,13,59,10.005,0.3711,-0.3391,0.0597,-0.8623
0.006,-0.01,0.026,0.7,-1.7,-0.3,0,2018,5,11,13,59,10.009,0.3711,-0.3392,0.0599,-0.8622
0.006,-0.017,-0.001,0.4,-0.5,0.2,0,2018,5,11,13,59,10.03,0.3711,-0.3393,0.06,-0.8622
0.012,0.013,-0.02,0.3,-1.2,0,0,2018,5,11,13,59,10.05,0.371,-0.3395,0.06,-0.8622
0.017,0.019,-0.004,0.6,-4.6,1,0,2018,5,11,13,59,10.087,0.3708,-0.3397,0.0603,-0.8622
0.015,-0.016,0.022,1.4,-4.1,1.4,1023,2018,5,11,13,59,10.107,0.3705,-0.34,0.0608,-0.8621
0.011,-0.025,0.012,2,0.4,2,1023,2018,5,11,13,59,10.112,0.3702,-0.3404,0.061,-0.8621
0.006,0.008,-0.006,2.6,2.8,1.4,1023,2018,5,11,13,59,10.133,0.3701,-0.3407,0.0604,-0.8621
0.011,0.035,-0.007,2.3,2.3,1.5,1023,2018,5,11,13,59,10.155,0.3701,-0.3409,0.0595,-0.8621
0.021,0.016,-0.003,2.9,-1.7,1.9,1023,2018,5,11,13,59,10.191,0.37,-0.3411,0.0591,-0.862
0.016,-0.015,0.022,3.3,-4.1,3,1023,2018,5,11,13,59,10.193,0.3698,-0.3416,0.0593,-0.8619
0.004,-0.019,0.003,2.9,-2,3.5,1023,2018,5,11,13,59,10.211,0.3694,-0.3422,0.0596,-0.8618
0.008,0.004,-0.019,2.9,1.8,3.6,1023,2018,5,11,13,59,10.23,0.369,-0.3427,0.0592,-0.8618
0.013,0.019,-0.001,3.3,2.2,3.7,1023,2018,5,11,13,59,10.252,0.369,-0.343,0.0584,-0.8618
0.008,0.005,0.004,2.8,-0.3,3.8,1023,2018,5,11,13,59,10.272,0.3684,-0.3434,0.0576,-0.8619
0.009,0.001,-0.002,2.1,-2.3,3,1023,2018,5,11,13,59,10.291,0.3677,-0.3439,0.0573,-0.862
0.013,0.038,-0.023,2.3,-3.4,2.8,1023,2018,5,11,13,59,10.329,0.3672,-0.3444,0.0572,-0.862
0.019,0.012,0.011,2.9,-6.4,3.2,0,2018,5,11,13,59,10.349,0.3667,-0.3449,0.0575,-0.862
0.01,-0.024,0.024,3.4,-5.5,4.7,0,2018,5,11,13,59,10.354,0.3658,-0.3457,0.058,-0.8621
0.01,-0.027,0.007,3.5,-1.4,5.4,0,2018,5,11,13,59,10.393,0.3647,-0.3466,0.058,-0.8622
0.012,0.001,-0.017,2.8,1.3,5.2,0,2018,5,11,13,59,10.414,0.364,-0.3471,0.0575,-0.8623
0.009,0.027,-0.012,2.3,-0.7,4.2,0,2018,5,11,13,59,10.418,0.3634,-0.3476,0.0569,-0.8624
0.005,0.022,0.004,1.5,-1.8,3.2,0,2018,5,11,13,59,10.437,0.3626,-0.348,0.0564,-0.8626
0.002,-0.007,0.009,1.4,-1.8,2.5,0,2018,5,11,13,59,10.457,0.3623,-0.3482,0.0564,-0.8626
0.007,0.003,-0.001,0.8,0.3,1.5,0,2018,5,11,13,59,10.475,0.3621,-0.3484,0.0563,-0.8627
0.01,0.006,-0.003,0.3,0.9,0.6,0,2018,5,11,13,59,10.495,0.3621,-0.3484,0.056,-0.8627
0.014,0.003,0,-0.4,1.1,0,0,2018,5,11,13,59,10.515,0.3622,-0.3483,0.0558,-0.8627
0.02,0.021,-0.008,0,-0.6,0.2,0,2018,5,11,13,59,10.534,0.3622,-0.3482,0.0556,-0.8627
0.011,-0.012,0.011,0.3,-2.2,1.2,0,2018,5,11,13,59,10.554,0.3621,-0.3482,0.0558,-0.8628
0.005,-0.012,0.002,0.3,-0.7,1.3,0,2018,5,11,13,59,10.59,0.3619,-0.3483,0.056,-0.8628
0.012,0.017,-0.008,0.4,0.2,1.3,0,2018,5,11,13,59,10.61,0.3617,-0.3485,0.0558,-0.8629
0.01,0.004,0.003,0.3,0.1,1.1,0,2018,5,11,13,59,10.616,0.3614,-0.3485,0.0555,-0.8629
0.016,0,0.007,0.3,-0.6,1.1,0,2018,5,11,13,59,10.637,0.3613,-0.3485,0.0553,-0.863
0.012,0.005,0,0,-0.3,0.8,0,2018,5,11,13,59,10.657,0.3612,-0.3485,0.0554,-0.8631
0.004,0.006,-0.001,-0.4,-0.7,0,0,2018,5,11,13,59,10.675,0.3611,-0.3485,0.0553,-0.8631
0.003,0.016,-0.003,-1,-1.1,-1.1,0,2018,5,11,13,59,10.695,0.3611,-0.3484,0.0553,-0.8631
0.02,0.023,-0.008,-0.8,-3.6,-1.1,0,2018,5,11,13,59,10.732,0.3613,-0.3483,0.0557,-0.8631
0.016,-0.014,0.013,-0.9,-3.7,-0.8,0,2018,5,11,13,59,10.751,0.3617,-0.3482,0.0566,-0.8629
0.014,-0.015,-0.011,-0.9,-1.2,-0.5,0,2018,5,11,13,59,10.756,0.362,-0.348,0.0574,-0.8628
0.016,0.008,-0.004,-0.8,-0.6,-0.2,0,2018,5,11,13,59,10.777,0.3621,-0.3479,0.0575,-0.8628
0.016,0.006,0.004,-0.4,-2.1,0.7,0,2018,5,11,13,59,10.796,0.3619,-0.3478,0.0577,-0.8629
0.009,-0.01,0.012,-0.1,-1.5,1,0,2018,5,11,13,59,10.815,0.3616,-0.3479,0.0579,-0.863
0.003,-0.006,0.001,0.1,0,1,1023,2018,5,11,13,59,10.835,0.3618,-0.3478,0.0581,-0.8629
0.007,0.013,-0.01,-0.1,0,1.1,1023,2018,5,11,13,59,10.875,0.3617,-0.3478,0.0579,-0.863
0.016,0.009,-0.002,-0.2,-1.2,0.8,1023,2018,5,11,13,59,10.896,0.3615,-0.3478,0.0579,-0.863
0.012,-0.002,-0.002,0,-0.7,0.5,1023,2018,5,11,13,59,10.9,0.3615,-0.3477,0.058,-0.8631
0.007,0,0.007,0,-0.6,0.8,1023,2018,5,11,13,59,10.916,0.3613,-0.3478,0.058,-0.8631
0.008,0.004,0.001,0,-0.6,0.7,1023,2018,5,11,13,59,10.954,0.3613,-0.3478,0.058,-0.8631
0.014,0.001,-0.003,0.1,-0.7,1,1023,2018,5,11,13,59,10.975,0.3614,-0.3477,0.0582,-0.8631
0.015,0.006,0,0.4,-1.2,1.3,1023,2018,5,11,13,59,10.979,0.3614,-0.3477,0.0582,-0.8631
0.015,0.004,-0.001,0.6,-1.2,1.6,1023,2018,5,11,13,59,10.996,0.3612,-0.3478,0.0583,-0.8631
0.013,-0.001,0.002,1.2,-0.6,1.9,1023,2018,5,11,13,59,11.034,0.3609,-0.348,0.0583,-0.8632
0.008,-0.004,0.003,1.5,-0.1,2.3,1023,2018,5,11,13,59,11.055,0.3606,-0.3482,0.058,-0.8633
0.008,-0.006,0.002,1.6,0.6,2.5,0,2018,5,11,13,59,11.059,0.3605,-0.3484,0.0578,-0.8632
0.015,0.008,0,1.7,0,2.7,0,2018,5,11,13,59,11.079,0.3603,-0.3486,0.0575,-0.8633
0.015,0.003,0.006,1.9,0,3.2,0,2018,5,11,13,59,11.118,0.3601,-0.3487,0.0572,-0.8633
0.014,-0.003,0,2.1,-0.4,3.8,0,2018,5,11,13,59,11.138,0.3599,-0.3489,0.057,-0.8633
0.014,0.002,-0.002,2.3,-0.3,4.2,0,2018,5,11,13,59,11.142,0.3595,-0.3492,0.0568,-0.8633
0.008,-0.002,0,2.1,0,4.1,0,2018,5,11,13,59,11.156,0.359,-0.3496,0.0564,-0.8635
0.009,-0.001,-0.002,1.8,0.1,3.5,0,2018,5,11,13,59,11.189,0.3584,-0.35,0.0559,-0.8636
0.005,0.005,0,0.8,0.7,1.7,0,2018,5,11,13,59,11.212,0.3581,-0.3502,0.0555,-0.8637
0.009,0.03,-0.011,-0.2,-0.2,0.5,0,2018,5,11,13,59,11.213,0.3581,-0.3501,0.0551,-0.8637
0.006,0.003,0.002,-0.8,-1.7,-0.4,0,2018,5,11,13,59,11.249,0.358,-0.3501,0.0551,-0.8638
0.014,-0.003,0.006,-1,-3,-0.5,0,2018,5,11,13,59,11.27,0.358,-0.3501,0.0555,-0.8638
0.016,-0.007,-0.001,-0.7,-0.9,-0.7,0,2018,5,11,13,59,11.277,0.358,-0.35,0.056,-0.8637
0.013,-0.007,0.003,0,0,0,0,2018,5,11,13,59,11.312,0.3582,-0.3498,0.0562,-0.8637
0.015,0.007,-0.003,0,0,0,0,2018,5,11,13,59,11.333,0.3582,-0.3498,0.0562,-0.8637
0.007,-0.007,0.001,0.6,0,0.5,0,2018,5,11,13,59,11.339,0.3582,-0.3498,0.0562,-0.8637
0.009,0.006,-0.004,0.4,-0.5,0.8,0,2018,5,11,13,59,11.378,0.3581,-0.3499,0.0561,-0.8637
0.012,0.007,-0.001,0.4,-0.4,0.5,0,2018,5,11,13,59,11.381,0.3581,-0.3499,0.056,-0.8637
0.011,0,0.001,0.4,-0.5,0.2,0,2018,5,11,13,59,11.398,0.3581,-0.35,0.0561,-0.8637
0.013,0.008,-0.003,0,0,0,0,2018,5,11,13,59,11.417,0.3581,-0.35,0.056,-0.8637
0.016,0.005,0.001,0.8,-0.9,0.1,0,2018,5,11,13,59,11.438,0.3582,-0.35,0.056,-0.8637
0.007,-0.011,0.004,1,0.4,0.2,0,2018,5,11,13,59,11.474,0.3584,-0.35,0.0561,-0.8636
0.002,0,-0.004,0.4,1.1,-0.2,0,2018,5,11,13,59,11.494,0.3586,-0.3501,0.056,-0.8634
0.006,0.019,-0.014,-0.1,0,-0.7,0,2018,5,11,13,59,11.501,0.3587,-0.3501,0.0557,-0.8634
0.018,0.023,-0.014,-0.6,-2,-0.9,0,2018,5,11,13,59,11.522,0.3589,-0.35,0.0558,-0.8634
0.015,-0.019,0.016,-0.1,-2.9,-0.3,1023,2018,5,11,13,59,11.542,0.3592,-0.3499,0.0565,-0.8633
0.016,-0.011,-0.001,0.4,-0.7,0.5,1023,2018,5,11,13,59,11.562,0.3594,-0.3498,0.057,-0.8631
0.007,0,-0.005,0.4,0.4,0.5,1023,2018,5,11,13,59,11.582,0.3595,-0.3499,0.0571,-0.8631
0.007,-0.001,0,0.6,-0.7,0.5,1023,2018,5,11,13,59,11.621,0.3595,-0.3499,0.0569,-0.8631
0.002,0.007,0.001,0.8,-0.3,0.3,1023,2018,5,11,13,59,11.625,0.3594,-0.35,0.0568,-0.8631
0.006,0,0.005,1,-0.4,0.5,1023,2018,5,11,13,59,11.641,0.3593,-0.3502,0.0567,-0.863
0.013,0.003,-0.009,1,0,0.5,1023,2018,5,11,13,59,11.679,0.3594,-0.3503,0.0567,-0.863
0.017,0.004,-0.009,0.8,-0.1,0.5,1023,2018,5,11,13,59,11.699,0.3593,-0.3504,0.0565,-0.863
0.014,-0.009,0.003,0.8,-1,1,1023,2018,5,11,13,59,11.703,0.3593,-0.3505,0.0566,-0.8629
0.011,-0.004,0.004,0.9,-0.5,1.2,1023,2018,5,11,13,59,11.722,0.3593,-0.3506,0.0566,-0.8629
0.01,0.004,-0.004,1,0.4,1.6,1023,2018,5,11,13,59,11.765,0.3591,-0.3507,0.0564,-0.8629
0.01,0,0.004,1.1,0,1.4,0,2018,5,11,13,59,11.767,0.3591,-0.3508,0.0562,-0.8629
0.014,0.007,-0.007,1.2,-0.2,1.2,0,2018,5,11,13,59,11.783,0.359,-0.351,0.056,-0.8629
0.013,0.009,-0.004,1.4,-1.3,1.6,0,2018,5,11,13,59,11.819,0.3588,-0.3512,0.0559,-0.8629
0.009,-0.019,0.007,1.5,-0.1,1.8,0,2018,5,11,13,59,11.84,0.3585,-0.3514,0.0559,-0.8629
0.004,0.005,-0.004,1.8,1.3,1.7,0,2018,5,11,13,59,11.844,0.3584,-0.3516,0.0555,-0.8629
0.008,0.004,0.001,1.4,0.7,1.5,0,2018,5,11,13,59,11.866,0.3582,-0.3519,0.0551,-0.8629
0.009,0.004,-0.01,0.7,0.4,0.8,0,2018,5,11,13,59,11.885,0.3581,-0.352,0.0547,-0.863
0.009,0.005,0.004,0.6,-0.7,0.8,0,2018,5,11,13,59,11.901,0.3582,-0.352,0.0547,-0.8629
0.014,0.01,-0.007,0.4,-1.4,1,0,2018,5,11,13,59,11.941,0.3583,-0.352,0.0547,-0.8629
0.009,-0.007,0,0.6,-1.3,1.3,0,2018,5,11,13,59,11.96,0.3582,-0.3521,0.055,-0.8629
0.009,-0.004,0.001,1.1,-0.7,1.8,0,2018,5,11,13,59,11.965,0.3582,-0.3522,0.0551,-0.8628
0.013,-0.003,0.004,1.5,0.4,1.8,0,2018,5,11,13,59,11.986,0.358,-0.3524,0.0549,-0.8628
0.01,-0.002,0.01,1.5,0.1,2.1,0,2018,5,11,13,59,12.004,0.358,-0.3525,0.0547,-0.8628
0.011,0.004,-0.002,1.2,0.7,1.5,0,2018,5,11,13,59,12.044,0.3579,-0.3526,0.0545,-0.8628
0.012,0.011,-0.003,1.2,-0.1,1.6,0,2018,5,11,13,59,12.063,0.3578,-0.3527,0.0541,-0.8629
0.011,0.004,-0.001,1.2,-1.5,1.4,0,2018,5,11,13,59,12.068,0.3575,-0.3529,0.054,-0.8629
0.009,-0.011,0.003,1.2,-0.7,1.6,0,2018,5,11,13,59,12.087,0.3575,-0.353,0.0541,-0.8628
0.01,0.003,-0.006,1.3,-0.1,1.7,0,2018,5,11,13,59,12.104,0.3574,-0.3532,0.054,-0.8628
0.008,-0.006,0.007,1.1,0.4,1.8,0,2018,5,11,13,59,12.125,0.3574,-0.3533,0.0539,-0.8628
0.012,0.011,-0.016,0.7,0,1.1,0,2018,5,11,13,59,12.144,0.3573,-0.3534,0.0536,-0.8628
0.009,0,0.002,0.4,-0.4,0.7,0,2018,5,11,13,59,12.163,0.3571,-0.3535,0.0535,-0.8628
0.014,0.007,-0.002,0.4,-0.7,0.6,0,2018,5,11,13,59,12.2,0.3572,-0.3535,0.0535,-0.8628
0.01,0,0.001,0.8,-1.3,0.8,0,2018,5,11,13,59,12.221,0.3571,-0.3536,0.0536,-0.8628
0.006,-0.006,0,0.6,-0.6,1,0,2018,5,11,13,59,12.224,0.3572,-0.3537,0.0538,-0.8627
0.008,0.005,-0.002,0.5,-0.3,0.8,0,2018,5,11,13,59,12.265,0.3573,-0.3538,0.0538,-0.8626
0.012,0.008,-0.005,0.4,-0.7,1,1023,2018,5,11,13,59,12.286,0.3571,-0.3539,0.0536,-0.8627
0.015,-0.003,0.005,0.8,-0.9,1.1,1023,2018,5,11,13,59,12.29,0.357,-0.354,0.0537,-0.8627
0.009,-0.007,-0.004,0.8,0,1.7,1023,2018,5,11,13,59,12.309,0.3567,-0.3541,0.0535,-0.8628
0.007,0.001,-0.008,0.6,0.1,1.3,1023,2018,5,11,13,59,12.323,0.3565,-0.3543,0.0533,-0.8628
0.013,-0.003,0.001,0.3,-2.1,0.2,1023,2018,5,11,13,59,12.363,0.3564,-0.3544,0.0533,-0.8628
0.01,0.007,0,0.7,-0.6,1.1,1023,2018,5,11,13,59,12.383,0.3563,-0.3544,0.0532,-0.8628
0.013,-0.002,-0.001,0.8,-1.3,1.2,1023,2018,5,11,13,59,12.387,0.3563,-0.3544,0.0534,-0.8628
0.01,-0.006,0,1.1,-0.3,1.6,1023,2018,5,11,13,59,12.408,0.3562,-0.3546,0.0534,-0.8628
0.008,0.003,-0.003,0.9,0,1.9,1023,2018,5,11,13,59,12.427,0.3559,-0.3548,0.0532,-0.8628
0.01,-0.001,0,0.7,-0.9,2.1,1023,2018,5,11,13,59,12.446,0.3558,-0.3548,0.0531,-0.8628
0.011,0.001,-0.001,0.7,-0.4,1.8,1023,2018,5,11,13,59,12.484,0.3556,-0.355,0.053,-0.8629
0.011,0.005,-0.003,0.4,-0.1,1.3,1023,2018,5,11,13,59,12.504,0.3554,-0.355,0.0529,-0.8629
0.016,0.001,-0.001,0.5,-0.4,1.4,0,2018,5,11,13,59,12.508,0.3554,-0.3551,0.0528,-0.8629
0.011,-0.008,0,0.4,-0.3,1.6,0,2018,5,11,13,59,12.53,0.3553,-0.3551,0.0528,-0.863
0.008,0.002,-0.009,0.4,0,1.6,0,2018,5,11,13,59,12.547,0.3552,-0.3552,0.0528,-0.863
0.002,0,0.004,0.2,-0.6,1.6,0,2018,5,11,13,59,12.587,0.3552,-0.3552,0.0527,-0.863
0.011,0.002,0,0,-0.9,1.3,0,2018,5,11,13,59,12.592,0.355,-0.3552,0.0527,-0.863
0.022,0.006,-0.006,0,-1.3,1.2,0,2018,5,11,13,59,12.609,0.3549,-0.3552,0.0528,-0.8631
0.013,-0.003,0.005,0.6,-1.3,1.3,0,2018,5,11,13,59,12.627,0.3546,-0.3553,0.0528,-0.8632
0.009,-0.011,0.003,0.9,0.4,1.6,0,2018,5,11,13,59,12.664,0.3547,-0.3554,0.0529,-0.8631
0.004,-0.002,-0.002,0.7,0.8,1.7,0,2018,5,11,13,59,12.685,0.3549,-0.3553,0.0528,-0.863
0.011,0.015,-0.01,0.2,0,1.6,0,2018,5,11,13,59,12.688,0.3549,-0.3553,0.0526,-0.863
0.01,-0.002,-0.007,0.1,-0.4,1.3,0,2018,5,11,13,59,12.725,0.3548,-0.3554,0.0525,-0.8631
0.012,0,0.004,0.1,-0.4,1.3,0,2018,5,11,13,59,12.746,0.3549,-0.3553,0.0525,-0.8631
0.008,0,0,0.4,-0.1,1.2,0,2018,5,11,13,59,12.749,0.3548,-0.3553,0.0525,-0.8631
0.009,0.003,0,0.1,-0.3,0.8,0,2018,5,11,13,59,12.788,0.3546,-0.3553,0.0523,-0.8632
0.008,0.001,-0.005,0,0,0,0,2018,5,11,13,59,12.808,0.3545,-0.3554,0.0522,-0.8632
0.011,0.01,-0.003,-0.1,-0.7,0,0,2018,5,11,13,59,12.812,0.3545,-0.3554,0.0521,-0.8632
0.013,-0.001,0,0,-1.6,0.3,0,2018,5,11,13,59,12.829,0.3546,-0.3554,0.0522,-0.8632
0.012,-0.01,0.001,0.1,-1.5,0.8,0,2018,5,11,13,59,12.85,0.3545,-0.3554,0.0525,-0.8632
0.008,-0.003,0.001,-0.2,0,0.7,0,2018,5,11,13,59,12.869,0.3547,-0.3554,0.0527,-0.8631
0.004,0.006,-0.001,0,0,0,0,2018,5,11,13,59,12.908,0.3548,-0.3553,0.0527,-0.8631
0.006,0.01,-0.006,-0.7,-1,-0.7,0,2018,5,11,13,59,12.929,0.3548,-0.3552,0.0527,-0.8631
0.012,0.009,-0.003,-0.8,-1.7,-1,0,2018,5,11,13,59,12.933,0.3546,-0.3552,0.0528,-0.8632
0.014,0.001,0,-0.6,-2.6,-0.8,0,2018,5,11,13,59,12.951,0.3548,-0.3551,0.0532,-0.8632
0.012,-0.007,-0.003,-0.3,-1.5,0.1,0,2018,5,11,13,59,12.971,0.3549,-0.3551,0.0537,-0.8631
0.008,-0.009,0.004,-0.1,-0.6,0.6,0,2018,5,11,13,59,12.993,0.3549,-0.3551,0.0539,-0.8631
0.012,0.001,-0.008,0,-0.5,1,1023,2018,5,11,13,59,13.012,0.3549,-0.3551,0.0539,-0.8631
0.009,0.006,-0.002,-0.3,-1,0.7,1023,2018,5,11,13,59,13.035,0.3549,-0.355,0.054,-0.8631
0.015,0.003,-0.002,-0.4,-1.2,0.4,1023,2018,5,11,13,59,13.054,0.355,-0.3549,0.0543,-0.8631
0.01,0.001,0,-0.3,-1.2,0,1023,2018,5,11,13,59,13.07,0.3551,-0.3548,0.0544,-0.8631
0.007,0,0,-0.2,-1,0.2,1023,2018,5,11,13,59,13.091,0.3551,-0.3548,0.0546,-0.863
0.013,0,-0.002,-0.1,-1.3,0.5,1023,2018,5,11,13,59,13.112,0.3552,-0.3548,0.0548,-0.863
0.015,0.004,-0.004,-0.3,-1.5,1,1023,2018,5,11,13,59,13.152,0.355,-0.3548,0.055,-0.8631
0.013,-0.002,-0.004,-0.6,-2,1.1,1023,2018,5,11,13,59,13.156,0.3548,-0.3548,0.0552,-0.8631
0.016,-0.006,0.003,-0.5,-1.4,1,1023,2018,5,11,13,59,13.172,0.3547,-0.3547,0.0555,-0.8632
0.007,-0.001,0.01,0,0.5,0.5,1023,2018,5,11,13,59,13.193,0.3547,-0.3546,0.0556,-0.8632
0.002,0.007,-0.005,-0.2,0.6,-0.1,1023,2018,5,11,13,59,13.212,0.3549,-0.3545,0.0554,-0.8632
0.008,0.014,-0.009,-0.9,-0.9,-0.6,1023,2018,5,11,13,59,13.248,0.3551,-0.3544,0.0554,-0.8632
0.016,0.002,-0.009,-1,-2,-0.5,0,2018,5,11,13,59,13.268,0.3552,-0.3543,0.0557,-0.8631
0.016,-0.01,0,-0.4,-1.6,0,0,2018,5,11,13,59,13.273,0.3552,-0.3543,0.0561,-0.8632
0.012,-0.017,0.003,-0.2,-0.9,1.5,0,2018,5,11,13,59,13.309,0.3552,-0.3542,0.0564,-0.8631
0.009,0,-0.001,-0.4,-0.7,1.9,0,2018,5,11,13,59,13.329,0.3549,-0.3542,0.0564,-0.8632
0.006,0.008,-0.004,-0.4,-1.2,1.9,0,2018,5,11,13,59,13.332,0.3546,-0.3542,0.0564,-0.8634
0.013,0.004,-0.001,-0.4,-2,1.6,0,2018,5,11,13,59,13.351,0.3542,-0.3542,0.0564,-0.8636
0.01,-0.001,-0.002,-0.4,-0.9,1,0,2018,5,11,13,59,13.371,0.354,-0.3542,0.0566,-0.8636
0.01,0.003,0,-0.6,-0.4,0.5,0,2018,5,11,13,59,13.393,0.3542,-0.354,0.0568,-0.8636
0.014,0.011,-0.005,-0.9,-1.2,0.5,0,2018,5,11,13,59,13.413,0.3541,-0.3539,0.0569,-0.8637
0.014,-0.005,0,-0.8,-1.6,0.8,0,2018,5,11,13,59,13.452,0.3541,-0.3537,0.0571,-0.8638
0.009,-0.006,0.002,-0.4,-1.3,1.2,0,2018,5,11,13,59,13.471,0.3541,-0.3536,0.0574,-0.8638
0.003,-0.006,0.001,-0.4,-1.3,1.4,0,2018,5,11,13,59,13.475,0.354,-0.3536,0.0576,-0.8638
0.011,0,-0.003,-0.1,-0.8,1.3,0,2018,5,11,13,59,13.514,0.3537,-0.3537,0.0576,-0.8639
0.01,0.007,-0.008,-0.2,-0.6,0.8,0,2018,5,11,13,59,13.533,0.3536,-0.3536,0.0576,-0.864
0.011,0,0.004,-0.2,-1.5,1,0,2018,5,11,13,59,13.537,0.3537,-0.3535,0.0578,-0.864
0.013,-0.001,0.006,0,-1.2,0.9,0,2018,5,11,13,59,13.555,0.3536,-0.3535,0.0579,-0.864
0.012,-0.001,0,0.2,-0.2,1.1,0,2018,5,11,13,59,13.573,0.3535,-0.3535,0.058,-0.864
0.015,0.002,-0.002,0.3,-0.1,1,0,2018,5,11,13,59,13.594,0.3537,-0.3534,0.058,-0.864
0.012,-0.002,0.005,0.3,-0.7,1.3,0,2018,5,11,13,59,13.613,0.3537,-0.3534,0.0581,-0.864
0.008,-0.005,-0.002,0.2,0,1.1,0,2018,5,11,13,59,13.648,0.3536,-0.3535,0.058,-0.864
0.007,0,0,-0.3,-0.9,0.5,0,2018,5,11,13,59,13.67,0.3534,-0.3535,0.058,-0.8641
0.006,0.021,-0.013,0,-1.6,0.9,0,2018,5,11,13,59,13.674,0.3531,-0.3536,0.0579,-0.8641
0.009,-0.006,0.008,0.1,-3,1.1,0,2018,5,11,13,59,13.714,0.3529,-0.3537,0.0582,-0.8642
0.014,-0.016,0.004,0.7,-0.2,1.4,0,2018,5,11,13,59,13.734,0.3528,-0.3539,0.0585,-0.8641
0.017,0.005,0.004,0.9,0.9,1.3,0,2018,5,11,13,59,13.738,0.3526,-0.3539,0.0582,-0.8642
0.014,0.007,-0.001,1.1,0.4,0.8,0,2018,5,11,13,59,13.754,0.3526,-0.354,0.0579,-0.8642
0.009,0.007,0,1.2,0.1,0.3,1023,2018,5,11,13,59,13.792,0.3529,-0.354,0.0578,-0.8641
0.012,-0.005,-0.002,0.6,-0.2,0.4,1023,2018,5,11,13,59,13.812,0.3531,-0.354,0.0578,-0.864
0.008,-0.003,-0.004,0.4,0.2,0.6,1023,2018,5,11,13,59,13.817,0.3532,-0.3541,0.0578,-0.8639
0.006,0.001,-0.002,0.3,-0.2,1,1023,2018,5,11,13,59,13.836,0.3533,-0.3541,0.0577,-0.8639
0.015,0.002,-0.004,0.1,-0.8,1.3,1023,2018,5,11,13,59,13.875,0.3533,-0.3541,0.0577,-0.8639
0.011,-0.001,-0.001,0.1,-0.7,1.1,1023,2018,5,11,13,59,13.896,0.3535,-0.3541,0.0579,-0.8638
0.01,-0.001,0,0.2,-0.2,0.7,1023,2018,5,11,13,59,13.9,0.3536,-0.354,0.058,-0.8638
0.011,0.004,-0.001,0.5,-0.5,0.7,1023,2018,5,11,13,59,13.917,0.3536,-0.354,0.0579,-0.8638
0.007,-0.004,0,0.6,0.1,0.8,1023,2018,5,11,13,59,13.939,0.3534,-0.3542,0.0578,-0.8638
0.009,-0.001,-0.001,0.6,0.1,1.2,1023,2018,5,11,13,59,13.959,0.3533,-0.3542,0.0576,-0.8638
0.011,0.01,-0.002,0.3,-0.4,1.4,1023,2018,5,11,13,59,13.979,0.3533,-0.3543,0.0575,-0.8638
0.011,-0.001,0,0,-0.5,1.1,1023,2018,5,11,13,59,13.999,0.3532,-0.3543,0.0575,-0.8639
0.009,0.007,-0.002,-0.4,-0.7,0.7,0,2018,5,11,13,59,14.019,0.353,-0.3543,0.0575,-0.8639
0.013,0.002,-0.002,-0.4,-1.1,0.5,0,2018,5,11,13,59,14.039,0.3531,-0.3542,0.0576,-0.8639
0.009,-0.006,0,-0.2,-0.4,0.5,0,2018,5,11,13,59,14.06,0.3529,-0.3541,0.0577,-0.864
0.007,0.005,-0.002,0,0,0,0,2018,5,11,13,59,14.078,0.3529,-0.3541,0.0576,-0.8641
0.01,0.002,-0.001,-0.1,-1.5,0.8,0,2018,5,11,13,59,14.098,0.3529,-0.3541,0.0576,-0.8641
0.018,-0.003,-0.003,-0.2,-1.5,1.3,0,2018,5,11,13,59,14.118,0.3527,-0.3541,0.0579,-0.8641
0.009,-0.005,-0.001,-0.1,-1.3,1.3,0,2018,5,11,13,59,14.156,0.3525,-0.3541,0.058,-0.8642
0.009,-0.004,-0.002,0,-0.4,1.3,0,2018,5,11,13,59,14.176,0.3526,-0.3541,0.0582,-0.8642
0.007,0.004,0,-0.1,0.1,0.5,0,2018,5,11,13,59,14.181,0.3528,-0.354,0.0582,-0.8641
0.009,0.004,-0.002,0,0,0,0,2018,5,11,13,59,14.201,0.3528,-0.3539,0.0581,-0.8642
0.011,0.005,0,-0.1,-0.9,-0.2,0,2018,5,11,13,59,14.22,0.3528,-0.3539,0.058,-0.8642
0.013,0,0.001,0,-1.1,0,0,2018,5,11,13,59,14.258,0.3531,-0.3538,0.0583,-0.8641
0.012,-0.008,0.002,0,-1.3,0.4,0,2018,5,11,13,59,14.261,0.3532,-0.3538,0.0585,-0.864
0.008,0,0,0.2,-0.5,0.4,0,2018,5,11,13,59,14.279,0.3533,-0.3538,0.0587,-0.864
0.01,0.005,-0.003,0,-0.5,0.1,0,2018,5,11,13,59,14.298,0.3533,-0.3538,0.0586,-0.864
0.017,0.005,-0.003,0,-1,0,0,2018,5,11,13,59,14.317,0.3533,-0.3538,0.0587,-0.8639
0.01,-0.003,0,0,-1,0,0,2018,5,11,13,59,14.355,0.3534,-0.3538,0.0588,-0.8639
0.007,0,0,0,-0.7,0,0,2018,5,11,13,59,14.374,0.3536,-0.3538,0.059,-0.8638
0.01,0,-0.003,0,-1.2,0.4,0,2018,5,11,13,59,14.379,0.3535,-0.3538,0.059,-0.8638
0.011,-0.001,0,0,-1.2,0.5,0,2018,5,11,13,59,14.414,0.3534,-0.3539,0.0592,-0.8638
0.014,0.004,-0.006,0,-1.4,0.5,0,2018,5,11,13,59,14.436,0.3534,-0.3539,0.0594,-0.8638
0.011,0.001,0,0,-1.4,0.4,0,2018,5,11,13,59,14.439,0.3534,-0.3539,0.0595,-0.8638
0.009,-0.001,0.008,0,-1,0.6,0,2018,5,11,13,59,14.476,0.3535,-0.3539,0.0597,-0.8637
0.012,0.013,-0.023,0.2,-0.6,1,0,2018,5,11,13,59,14.496,0.3536,-0.3538,0.06,-0.8637
0.013,-0.002,0,-0.2,-0.9,1.1,0,2018,5,11,13,59,14.499,0.3537,-0.3538,0.0601,-0.8637
0.005,0.001,-0.008,-0.3,-1,0.9,0,2018,5,11,13,59,14.517,0.3537,-0.3537,0.0603,-0.8637
0.011,0.001,0.003,-0.4,-0.4,0.6,1023,2018,5,11,13,59,14.539,0.3538,-0.3537,0.0604,-0.8637
0.014,0.006,0,0,0,0,1023,2018,5,11,13,59,14.578,0.3538,-0.3536,0.0604,-0.8637
0.009,0.001,0,0.1,-0.3,0.5,1023,2018,5,11,13,59,14.598,0.3539,-0.3536,0.0604,-0.8637
0.01,-0.003,-0.004,0,-0.1,0.7,1023,2018,5,11,13,59,14.601,0.3538,-0.3536,0.0604,-0.8637
0.009,0.001,0,-0.2,-0.1,0.7,1023,2018,5,11,13,59,14.624,0.3537,-0.3536,0.0603,-0.8637
0.013,0.003,-0.005,-0.3,-1.2,0.7,1023,2018,5,11,13,59,14.643,0.3537,-0.3535,0.0603,-0.8638
0.018,0,0.002,-0.1,-1.1,0.5,1023,2018,5,11,13,59,14.662,0.3535,-0.3535,0.0604,-0.8639
0.011,0,0,0.3,-0.4,0.7,1023,2018,5,11,13,59,14.685,0.3535,-0.3535,0.0604,-0.8639
0.009,-0.002,-0.001,0.8,-0.1,0.9,1023,2018,5,11,13,59,14.703,0.3536,-0.3535,0.0605,-0.8638
0.011,-0.002,-0.001,0.4,0,1.3,1023,2018,5,11,13,59,14.726,0.3534,-0.3536,0.0603,-0.8638
0.007,0,0,0.2,-0.2,1.1,1023,2018,5,11,13,59,14.745,0.3534,-0.3537,0.0602,-0.8638
0.012,0.01,-0.007,0,-0.4,1,1023,2018,5,11,13,59,14.765,0.3535,-0.3537,0.0603,-0.8638
0.015,-0.001,-0.003,0,-0.5,0.7,0,2018,5,11,13,59,14.782,0.3534,-0.3536,0.0603,-0.8638
0.01,-0.001,-0.006,0,-0.7,0.8,0,2018,5,11,13,59,14.818,0.3535,-0.3536,0.0604,-0.8638
0.007,0.001,0,0,-0.6,0.8,0,2018,5,11,13,59,14.838,0.3536,-0.3536,0.0605,-0.8638
0.01,0,0,0,0,0,0,2018,5,11,13,59,14.842,0.3535,-0.3536,0.0605,-0.8638
0.015,0.009,-0.009,-0.2,-0.5,0,0,2018,5,11,13,59,14.882,0.3535,-0.3536,0.0604,-0.8638
0.015,-0.007,0.001,-0.1,-0.9,0.6,0,2018,5,11,13,59,14.901,0.3534,-0.3536,0.0604,-0.8639
0.011,-0.007,-0.001,-0.4,-0.6,1,0,2018,5,11,13,59,14.905,0.3535,-0.3535,0.0606,-0.8638
0.009,-0.002,-0.003,0,-0.2,1.3,0,2018,5,11,13,59,14.925,0.3535,-0.3535,0.0607,-0.8639
0.011,0,0.003,0.1,-0.6,1.4,0,2018,5,11,13,59,14.946,0.3535,-0.3534,0.0608,-0.8639
0.013,0.002,-0.001,0.2,-0.1,0.9,0,2018,5,11,13,59,14.966,0.3537,-0.3534,0.0609,-0.8638
0.011,0.009,-0.012,0,0,0,0,2018,5,11,13,59,14.986,0.3538,-0.3534,0.0608,-0.8638
0.013,-0.006,0.004,0.3,-0.6,0.6,0,2018,5,11,13,59,15.003,0.3538,-0.3534,0.0608,-0.8638
0.009,-0.007,0,0.6,-0.1,1,0,2018,5,11,13,59,15.024,0.3538,-0.3534,0.0608,-0.8638
0.006,-0.001,-0.002,0.3,0,1.3,0,2018,5,11,13,59,15.044,0.3537,-0.3534,0.0607,-0.8638
0.012,-0.002,-0.002,0.4,-0.5,1.4,0,2018,5,11,13,59,15.066,0.3535,-0.3535,0.0606,-0.8638
0.019,0.005,-0.002,0.5,-0.3,1.3,0,2018,5,11,13,59,15.086,0.3534,-0.3536,0.0604,-0.8639
0.013,-0.001,0,0.3,0,1.2,0,2018,5,11,13,59,15.106,0.3533,-0.3536,0.0604,-0.8639
0.008,0.005,0,0.3,0,1.1,0,2018,5,11,13,59,15.146,0.3532,-0.3537,0.0602,-0.8639
0.007,0,0,0.5,-0.2,1,0,2018,5,11,13,59,15.15,0.3533,-0.3537,0.0601,-0.8639
0.01,0,-0.003,0,-0.1,1,0,2018,5,11,13,59,15.168,0.3531,-0.3538,0.06,-0.8639
0.013,0.001,-0.002,0.1,-0.5,0.7,0,2018,5,11,13,59,15.187,0.353,-0.3538,0.06,-0.864
0.009,0.002,-0.004,0,-0.4,0.8,0,2018,5,11,13,59,15.205,0.353,-0.3538,0.06,-0.864
0.012,0.009,-0.001,0,-0.4,1,0,2018,5,11,13,59,15.242,0.3528,-0.3538,0.0599,-0.8641
0.011,-0.005,0.003,0.1,-0.9,1.4,0,2018,5,11,13,59,15.262,0.3527,-0.3538,0.0599,-0.8641
0.015,-0.001,-0.002,0.1,-0.4,1.4,0,2018,5,11,13,59,15.265,0.3526,-0.3538,0.06,-0.8641
0.007,0.004,-0.005,0.3,-0.1,1.3,0,2018,5,11,13,59,15.284,0.3525,-0.3538,0.0599,-0.8642
0.012,0.004,0,0.4,-0.4,1.1,1023,2018,5,11,13,59,15.306,0.3528,-0.3537,0.0599,-0.8641
0.005,0.003,-0.003,0.3,0,0.7,1023,2018,5,11,13,59,15.325,0.3531,-0.3537,0.06,-0.864
0.01,0.003,0,0.1,-0.5,0.5,1023,2018,5,11,13,59,15.345,0.3531,-0.3537,0.0599,-0.864
0.013,0.002,-0.005,0,-0.9,0.5,1023,2018,5,11,13,59,15.383,0.3531,-0.3537,0.06,-0.864
0.013,0,0,0.1,-1,0.8,1023,2018,5,11,13,59,15.402,0.3531,-0.3537,0.0601,-0.864
0.018,0.002,0,0.3,-1,1.1,1023,2018,5,11,13,59,15.407,0.353,-0.3537,0.0601,-0.864
0.012,-0.002,0.002,0.4,-0.3,1.1,1023,2018,5,11,13,59,15.428,0.353,-0.3538,0.0602,-0.864
0.011,-0.001,0,0.7,0,1,1023,2018,5,11,13,59,15.452,0.3529,-0.3538,0.0601,-0.864
0.011,0.005,0,0.8,-0.3,1,1023,2018,5,11,13,59,15.466,0.3528,-0.3539,0.0599,-0.864
0.006,0,0.001,0.7,-0.2,0.9,1023,2018,5,11,13,59,15.486,0.3528,-0.354,0.0599,-0.864
0.007,0.002,-0.007,0.4,0,0.6,1023,2018,5,11,13,59,15.506,0.3528,-0.3541,0.0598,-0.8639
0.009,0.004,-0.002,0,-0.3,0.6,1023,2018,5,11,13,59,15.543,0.3529,-0.3541,0.0598,-0.8639
0.016,0,0,0.1,-0.9,0.7,0,2018,5,11,13,59,15.563,0.353,-0.3541,0.0599,-0.8639
0.014,0,0,0.4,-0.8,0.6,0,2018,5,11,13,59,15.568,0.3532,-0.3541,0.06,-0.8638
0.009,-0.006,0.006,0.4,-0.2,0.8,0,2018,5,11,13,59,15.588,0.3535,-0.354,0.0602,-0.8637
0.005,0,0,0.5,-0.2,1,0,2018,5,11,13,59,15.608,0.3535,-0.354,0.0602,-0.8637
0.008,0.004,-0.001,0,-0.6,0.9,0,2018,5,11,13,59,15.648,0.3534,-0.3541,0.0601,-0.8637
0.009,-0.001,-0.006,0,-0.9,0.7,0,2018,5,11,13,59,15.667,0.3535,-0.3541,0.0602,-0.8636
0.009,-0.003,-0.002,-0.2,-0.6,0.7,0,2018,5,11,13,59,15.671,0.3536,-0.354,0.0603,-0.8636
0.009,0.001,0,0,0,0,0,2018,5,11,13,59,15.691,0.3538,-0.354,0.0604,-0.8636
0.012,0.004,0,0.3,-0.4,0.6,0,2018,5,11,13,59,15.711,0.3539,-0.3539,0.0604,-0.8636
0.015,-0.002,0.002,0.8,-0.7,1,0,2018,5,11,13,59,15.727,0.3539,-0.3539,0.0605,-0.8635
0.008,-0.008,0,0.8,0,1.3,0,2018,5,11,13,59,15.766,0.3539,-0.354,0.0604,-0.8635
0.008,0.004,-0.01,0.3,0.1,1.1,0,2018,5,11,13,59,15.786,0.3539,-0.3541,0.0603,-0.8635
0.009,0.004,-0.002,0.3,-0.5,1,0,2018,5,11,13,59,15.79,0.354,-0.3541,0.0602,-0.8634
0.011,0.005,-0.005,0,-0.7,0.5,0,2018,5,11,13,59,15.81,0.354,-0.3541,0.0602,-0.8634
0.013,-0.003,0.001,0.2,-0.7,0.7,0,2018,5,11,13,59,15.83,0.3542,-0.354,0.0603,-0.8634
0.011,-0.005,0.002,0.8,-0.1,1.1,0,2018,5,11,13,59,15.87,0.3542,-0.3541,0.0603,-0.8634
0.015,0,-0.005,0.9,0,1.3,0,2018,5,11,13,59,15.889,0.3542,-0.3541,0.0602,-0.8633
0.009,-0.002,-0.003,0.6,0,1.2,0,2018,5,11,13,59,15.893,0.3542,-0.3542,0.0601,-0.8633
0.006,0.005,-0.004,0.3,-0.2,1.1,0,2018,5,11,13,59,15.907,0.3543,-0.3542,0.06,-0.8633
0.011,0,-0.001,0.1,-0.7,1.1,0,2018,5,11,13,59,15.946,0.3544,-0.3542,0.06,-0.8632
0.012,0,-0.004,0.3,0,1,0,2018,5,11,13,59,15.966,0.3542,-0.3543,0.0599,-0.8633
0.012,0,-0.001,0.4,-0.2,1.4,0,2018,5,11,13,59,15.97,0.3539,-0.3544,0.0597,-0.8634
0.013,-0.001,-0.003,0.1,0,1.5,0,2018,5,11,13,59,15.989,0.3538,-0.3544,0.0596,-0.8634
0.009,0.005,0.002,0,-0.1,1.1,0,2018,5,11,13,59,16.009,0.3537,-0.3544,0.0595,-0.8635
0.011,0.006,-0.006,-0.2,-0.7,0.9,0,2018,5,11,13,59,16.048,0.3538,-0.3543,0.0595,-0.8635
0.011,-0.006,0,-0.1,-0.9,0.8,0,2018,5,11,13,59,16.068,0.3538,-0.3542,0.0595,-0.8635
0.013,-0.003,0.001,-0.3,-0.4,1,0,2018,5,11,13,59,16.072,0.3539,-0.3541,0.0598,-0.8635
0.008,-0.001,0.001,-0.2,0,0.8,1023,2018,5,11,13,59,16.11,0.3538,-0.354,0.0597,-0.8636
0.01,0.009,-0.009,-0.5,-0.4,0.7,1023,2018,5,11,13,59,16.131,0.3537,-0.354,0.0595,-0.8636
0.013,0,-0.002,-0.6,-0.7,0.5,1023,2018,5,11,13,59,16.135,0.3539,-0.3538,0.0597,-0.8636
0.015,0,-0.003,-0.4,-0.7,0.4,1023,2018,5,11,13,59,16.151,0.3539,-0.3537,0.0598,-0.8636
0.013,-0.004,0.001,-0.1,-0.7,0.9,1023,2018,5,11,13,59,16.171,0.3539,-0.3537,0.0599,-0.8637
0.018,0.004,0,0,-0.5,1.3,1023,2018,5,11,13,59,16.191,0.3538,-0.3536,0.0599,-0.8637
0.011,-0.005,0.004,0.3,-0.2,1.6,1023,2018,5,11,13,59,16.229,0.3537,-0.3536,0.0599,-0.8638
0.007,0,-0.004,0.3,0.4,1.4,1023,2018,5,11,13,59,16.249,0.3536,-0.3536,0.0597,-0.8638
0.011,0.009,-0.003,0.1,0,1.3,1023,2018,5,11,13,59,16.253,0.3535,-0.3536,0.0595,-0.8639
0.011,-0.004,-0.004,0.3,-0.9,1.4,1023,2018,5,11,13,59,16.289,0.3533,-0.3537,0.0594,-0.8639
0.009,-0.005,0,0.4,-0.5,1.7,1023,2018,5,11,13,59,16.31,0.353,-0.3538,0.0593,-0.864
0.009,-0.006,-0.004,0.1,0.1,1.9,1023,2018,5,11,13,59,16.312,0.353,-0.3538,0.0592,-0.864
0.011,0.006,-0.004,-0.2,0.3,1.3,1023,2018,5,11,13,59,16.351,0.3529,-0.3538,0.0591,-0.8641
0.017,0.013,-0.003,-0.3,-1.1,1,0,2018,5,11,13,59,16.371,0.353,-0.3536,0.0591,-0.8641
0.01,-0.008,0.003,-0.1,-1.3,1.3,0,2018,5,11,13,59,16.375,0.3529,-0.3536,0.0592,-0.8642
0.007,-0.004,0,0.1,-0.2,1.7,0,2018,5,11,13,59,16.413,0.3528,-0.3536,0.0593,-0.8642
0.008,-0.002,0.001,0.1,0.1,1.9,0,2018,5,11,13,59,16.434,0.3529,-0.3535,0.0593,-0.8642
0.011,0.001,-0.003,0,-0.1,1.8,0,2018,5,11,13,59,16.438,0.3527,-0.3536,0.0591,-0.8643
0.009,0.001,0.002,0.3,-0.3,1.9,0,2018,5,11,13,59,16.454,0.3525,-0.3536,0.0589,-0.8643
0.013,0.003,0,0.4,-0.3,2.1,0,2018,5,11,13,59,16.473,0.3524,-0.3536,0.0588,-0.8644
0.011,-0.004,0,0.3,-0.6,2.3,0,2018,5,11,13,59,16.491,0.3521,-0.3537,0.0587,-0.8645
0.009,0,-0.001,0.1,0,2.2,0,2018,5,11,13,59,16.532,0.3519,-0.3537,0.0586,-0.8646
0.01,0.002,-0.001,0.3,-0.1,2.1,0,2018,5,11,13,59,16.551,0.3518,-0.3537,0.0584,-0.8646
0.013,0.004,0.003,0.3,-0.2,1.8,0,2018,5,11,13,59,16.553,0.3516,-0.3537,0.0583,-0.8647
0.012,0.003,-0.001,0.6,-0.4,1.9,0,2018,5,11,13,59,16.587,0.3512,-0.3538,0.0581,-0.8648
0.01,-0.006,0,0.6,-0.1,2,0,2018,5,11,13,59,16.608,0.3509,-0.3539,0.0579,-0.8649
0.015,0.005,-0.009,0.5,-0.1,2.1,0,2018,5,11,13,59,16.613,0.3504,-0.3541,0.0575,-0.8651
0.012,-0.004,0.002,0.7,-0.1,1.9,0,2018,5,11,13,59,16.647,0.35,-0.3543,0.0572,-0.8652
0.009,0,-0.003,0.9,-0.4,2.6,0,2018,5,11,13,59,16.67,0.3497,-0.3544,0.057,-0.8653
0.009,-0.003,0.002,1.1,-0.2,2.7,0,2018,5,11,13,59,16.671,0.3494,-0.3545,0.0569,-0.8653
0.008,-0.001,-0.003,0.9,0.3,2.7,0,2018,5,11,13,59,16.709,0.3492,-0.3547,0.0567,-0.8654
0.012,0.006,-0.004,0.7,0.3,2.3,0,2018,5,11,13,59,16.729,0.3489,-0.3548,0.0563,-0.8655
0.011,0.002,0,0.4,-0.4,2,0,2018,5,11,13,59,16.733,0.3486,-0.3549,0.0561,-0.8656
0.009,0,0.001,0.4,-0.7,1.7,0,2018,5,11,13,59,16.771,0.3484,-0.3549,0.056,-0.8657
0.008,0,-0.001,0.1,-0.6,1.6,0,2018,5,11,13,59,16.79,0.3483,-0.355,0.056,-0.8657
0.014,0.001,-0.003,0.6,-1.1,2.1,0,2018,5,11,13,59,16.793,0.3483,-0.355,0.0561,-0.8656
0.013,-0.006,-0.001,0.5,-0.6,2.4,0,2018,5,11,13,59,16.827,0.3482,-0.355,0.0561,-0.8657
0.008,-0.004,0,0.5,-0.2,2.8,0,2018,5,11,13,59,16.847,0.348,-0.3551,0.056,-0.8657
0.006,0.003,0.003,0.3,-0.3,2.3,0,2018,5,11,13,59,16.85,0.3476,-0.3552,0.0558,-0.8659
0.009,0.013,-0.005,0.5,-1,1.9,1023,2018,5,11,13,59,16.891,0.3473,-0.3552,0.0556,-0.866
0.012,-0.005,0.005,0.4,-0.6,1.7,1023,2018,5,11,13,59,16.911,0.347,-0.3553,0.0555,-0.8661
0.011,0.001,-0.003,0.6,0.1,1.5,1023,2018,5,11,13,59,16.913,0.3472,-0.3553,0.0556,-0.866
0.013,0.007,0,0.6,-0.5,1.4,1023,2018,5,11,13,59,16.952,0.3472,-0.3553,0.0554,-0.866
0.019,0.002,-0.003,0.5,-1.5,1.1,1023,2018,5,11,13,59,16.972,0.3473,-0.3553,0.0555,-0.866
0.013,-0.005,0,0.8,-1.4,1.6,1023,2018,5,11,13,59,16.974,0.3472,-0.3554,0.0557,-0.8659
0.007,-0.002,-0.002,0.8,-0.9,2.2,1023,2018,5,11,13,59,17.017,0.3471,-0.3556,0.0557,-0.8659
0.011,-0.001,0,0.9,-0.9,2.7,1023,2018,5,11,13,59,17.037,0.3467,-0.3558,0.0556,-0.866
0.01,0,0.001,0.9,-0.5,2.7,1023,2018,5,11,13,59,17.041,0.3464,-0.356,0.0555,-0.866
0.013,0.002,-0.017,0.9,-1.9,1.7,1023,2018,5,11,13,59,17.06,0.3462,-0.3561,0.0555,-0.8661
0.006,-0.002,0.002,1.1,-0.6,1.8,1023,2018,5,11,13,59,17.081,0.3461,-0.3562,0.0554,-0.8661
0.012,0.003,0,1.1,-0.9,1.1,1023,2018,5,11,13,59,17.1,0.3461,-0.3564,0.0554,-0.866
0.014,0.003,-0.003,1.1,0,0.5,1023,2018,5,11,13,59,17.139,0.3461,-0.3565,0.0553,-0.866
0.01,0.001,0,1.1,-0.7,0.5,0,2018,5,11,13,59,17.161,0.346,-0.3566,0.0552,-0.866
0.008,0.001,-0.003,0.7,-0.6,0.2,0,2018,5,11,13,59,17.165,0.3458,-0.3568,0.055,-0.866
0.006,0.001,-0.001,0,0,0,0,2018,5,11,13,59,17.179,0.3459,-0.3569,0.055,-0.8659
0.015,-0.001,0.019,-0.6,-2.6,-0.8,0,2018,5,11,13,59,17.197,0.3459,-0.3569,0.0551,-0.8659
0.003,0.015,-0.034,0.6,-1.8,0.2,0,2018,5,11,13,59,17.218,0.3458,-0.357,0.0556,-0.8659
0.008,-0.009,0.013,0.1,-2,-0.3,0,2018,5,11,13,59,17.259,0.3458,-0.3571,0.0559,-0.8658
0.011,-0.004,-0.002,0.4,-1.3,0.2,0,2018,5,11,13,59,17.278,0.346,-0.3572,0.0562,-0.8657
0.009,-0.004,0.001,0.4,-0.7,0,0,2018,5,11,13,59,17.282,0.3462,-0.3572,0.0565,-0.8656
0.008,0.005,-0.004,0,-1.2,-0.3,0,2018,5,11,13,59,17.3,0.346,-0.3573,0.0564,-0.8656
0.011,0.009,-0.008,-0.4,-1.6,-0.8,0,2018,5,11,13,59,17.319,0.3461,-0.3574,0.0565,-0.8655
0.01,-0.001,0.001,-0.3,-2.1,-0.6,0,2018,5,11,13,59,17.357,0.3462,-0.3574,0.0569,-0.8655
0.009,-0.003,0,-0.1,-2.7,0,0,2018,5,11,13,59,17.376,0.3463,-0.3574,0.0573,-0.8654
0.009,-0.011,-0.001,-0.3,-2.1,0.2,0,2018,5,11,13,59,17.379,0.3462,-0.3575,0.0577,-0.8654
0.011,0.003,0.002,-0.2,-0.6,0,0,2018,5,11,13,59,17.417,0.3462,-0.3575,0.058,-0.8653
0.012,0.009,-0.005,-0.5,-1.4,0,0,2018,5,11,13,59,17.436,0.346,-0.3575,0.0579,-0.8654
0.012,0.001,0,-0.4,-2.3,0,0,2018,5,11,13,59,17.439,0.3459,-0.3575,0.0581,-0.8654
0.01,-0.005,0.001,-0.3,-2.4,0.4,0,2018,5,11,13,59,17.478,0.3458,-0.3576,0.0585,-0.8654
0.008,0.001,-0.007,-0.4,-1.6,0.3,0,2018,5,11,13,59,17.497,0.3459,-0.3576,0.0589,-0.8654
0.011,-0.001,0.004,-0.6,-1.5,0.3,0,2018,5,11,13,59,17.5,0.3459,-0.3575,0.0591,-0.8654
0.009,0.002,-0.004,-0.9,-1.2,-0.2,0,2018,5,11,13,59,17.537,0.346,-0.3574,0.0594,-0.8653
0.012,0.006,-0.006,-1,-2.3,-0.3,0,2018,5,11,13,59,17.557,0.3462,-0.3573,0.0597,-0.8653
0.008,-0.005,0.004,-1,-2.3,-0.2,0,2018,5,11,13,59,17.562,0.3464,-0.3571,0.0603,-0.8653
0.01,-0.006,0.001,-1,-2.3,0.2,0,2018,5,11,13,59,17.576,0.3464,-0.357,0.0608,-0.8653
0.007,-0.003,-0.003,-0.7,-1.4,0.5,0,2018,5,11,13,59,17.615,0.3466,-0.3569,0.0612,-0.8652
0.009,0.003,-0.005,-0.8,-0.9,0.2,0,2018,5,11,13,59,17.632,0.3466,-0.3569,0.0614,-0.8652
0.017,0.004,-0.002,-0.6,-1.8,0.4,0,2018,5,11,13,59,17.638,0.3467,-0.3567,0.0617,-0.8652
0.005,-0.007,0.003,-0.6,-1.4,0.7,1023,2018,5,11,13,59,17.674,0.3466,-0.3567,0.062,-0.8652
0.001,-0.006,-0.002,-0.9,-1.1,0.9,1023,2018,5,11,13,59,17.695,0.3468,-0.3566,0.0623,-0.8652
0.01,0.005,-0.002,-1.2,-1.6,0.7,1023,2018,5,11,13,59,17.7,0.3466,-0.3565,0.0624,-0.8653
0.012,0.004,0,-1.3,-1.6,0.3,1023,2018,5,11,13,59,17.737,0.3465,-0.3565,0.0626,-0.8653
0.013,-0.005,0.003,-1,-1.5,0.5,1023,2018,5,11,13,59,17.758,0.3464,-0.3563,0.0629,-0.8654
0.004,-0.008,0.001,-1,0,0.7,1023,2018,5,11,13,59,17.762,0.3465,-0.3561,0.0631,-0.8654
0.002,-0.006,-0.001,-1,-0.1,1.3,1023,2018,5,11,13,59,17.799,0.3464,-0.356,0.0631,-0.8655
0.006,-0.011,-0.004,-1.4,0.4,2.1,1023,2018,5,11,13,59,17.819,0.3463,-0.3559,0.0631,-0.8656
0.011,-0.001,0.001,-1.3,1.4,2.7,1023,2018,5,11,13,59,17.824,0.3463,-0.3555,0.063,-0.8657
0.012,0,0.001,-1.1,1.5,3.2,1023,2018,5,11,13,59,17.86,0.3462,-0.3552,0.0627,-0.866
0.01,0.004,-0.006,-1.2,1.4,2.8,1023,2018,5,11,13,59,17.88,0.3459,-0.3549,0.0623,-0.8662
0.015,0.014,-0.013,-1.3,1.9,1.9,1023,2018,5,11,13,59,17.885,0.3457,-0.3546,0.0619,-0.8665
0.024,0.015,-0.009,-0.9,0.4,1.3,1023,2018,5,11,13,59,17.904,0.3458,-0.3542,0.0616,-0.8666
0.018,-0.002,0.006,-0.7,0,0.7,0,2018,5,11,13,59,17.923,0.3458,-0.3539,0.0615,-0.8667
0.017,0,-0.001,-0.9,1.2,0.2,0,2018,5,11,13,59,17.962,0.3462,-0.3536,0.0616,-0.8667
0.012,0.006,-0.01,-1,1.9,-0.1,0,2018,5,11,13,59,17.982,0.3468,-0.3531,0.0615,-0.8667
0.008,0,-0.001,-1,0.8,-0.1,0,2018,5,11,13,59,17.986,0.3471,-0.3528,0.0613,-0.8667
0.013,0.007,-0.004,-1.3,-0.1,-0.1,0,2018,5,11,13,59,18.006,0.3473,-0.3526,0.0614,-0.8667
0.011,-0.005,-0.006,-0.8,-1,0.5,0,2018,5,11,13,59,18.023,0.3473,-0.3525,0.0615,-0.8667
0.011,-0.011,0.005,-0.7,-0.3,0.9,0,2018,5,11,13,59,18.061,0.3473,-0.3523,0.0617,-0.8668
0.012,-0.004,-0.001,-0.6,0.9,1,0,2018,5,11,13,59,18.081,0.3474,-0.3521,0.0616,-0.8668
0.021,0.012,-0.003,0,0.4,1.4,0,2018,5,11,13,59,18.087,0.3475,-0.3519,0.0614,-0.8669
0.014,-0.01,0.009,0.1,-0.2,2,0,2018,5,11,13,59,18.104,0.3474,-0.3518,0.0613,-0.867
0.011,-0.01,-0.001,0.2,-0.2,2.2,0,2018,5,11,13,59,18.142,0.3474,-0.3518,0.0613,-0.867
0.014,0.003,-0.004,0.1,1,1.7,0,2018,5,11,13,59,18.161,0.3473,-0.3517,0.0612,-0.867
0.017,0.023,-0.011,0.1,1.2,1,0,2018,5,11,13,59,18.165,0.3475,-0.3516,0.0609,-0.867
0.014,0,0.009,0.8,0.4,1.4,0,2018,5,11,13,59,18.203,0.3477,-0.3515,0.0606,-0.867
0.013,-0.006,0.008,0.8,0.8,1.3,0,2018,5,11,13,59,18.223,0.3477,-0.3514,0.0604,-0.867
0.002,-0.004,-0.007,0.8,1.7,1.4,0,2018,5,11,13,59,18.228,0.3478,-0.3515,0.0601,-0.867
0.004,-0.001,-0.01,0.8,2,1.2,0,2018,5,11,13,59,18.246,0.348,-0.3515,0.0597,-0.867
0.009,-0.001,0,1,1.5,2.1,0,2018,5,11,13,59,18.266,0.3477,-0.3516,0.0591,-0.8671
0.009,-0.009,0.006,1.1,0.9,3.1,0,2018,5,11,13,59,18.304,0.3477,-0.3516,0.0588,-0.8671
0.004,-0.017,-0.001,1,1.5,4,0,2018,5,11,13,59,18.321,0.3477,-0.3516,0.0586,-0.8671
-0.001,-0.008,-0.006,0.9,2.2,4.6,0,2018,5,11,13,59,18.324,0.3472,-0.3518,0.0579,-0.8673
0.01,0.012,-0.004,0.9,2.6,4.6,0,2018,5,11,13,59,18.361,0.3469,-0.3519,0.0572,-0.8674
0.007,0,0.006,0.8,2.2,4.4,0,2018,5,11,13,59,18.382,0.3464,-0.3519,0.0563,-0.8677
0.009,0.003,0,0.3,2.7,3.9,0,2018,5,11,13,59,18.385,0.3462,-0.3518,0.0556,-0.8678
0.015,0.01,-0.011,0.8,3.2,3.5,0,2018,5,11,13,59,18.423,0.346,-0.3517,0.0549,-0.868
0.012,0.005,0.003,0.9,3,3.8,0,2018,5,11,13,59,18.444,0.3458,-0.3516,0.054,-0.8682
0.011,-0.004,0.004,1.2,2.9,4.5,1023,2018,5,11,13,59,18.448,0.3454,-0.3516,0.0531,-0.8684
0.01,-0.023,-0.005,1.1,3.8,4.7,1023,2018,5,11,13,59,18.468,0.3453,-0.3515,0.0524,-0.8685
0.01,-0.008,-0.01,1.1,4,4.5,1023,2018,5,11,13,59,18.488,0.3451,-0.3514,0.0516,-0.8687
0.014,0.021,-0.01,1.1,3.9,4.5,1023,2018,5,11,13,59,18.526,0.3448,-0.3514,0.0506,-0.8689
0.018,0.006,0.002,1.4,3.6,5,1023,2018,5,11,13,59,18.546,0.3444,-0.3513,0.0495,-0.8691
0.02,-0.013,0.015,1.6,3.8,5,1023,2018,5,11,13,59,18.55,0.344,-0.3512,0.0486,-0.8693
0.021,0.001,-0.001,1.7,4.7,4.4,1023,2018,5,11,13,59,18.588,0.3437,-0.3511,0.0475,-0.8696
0.019,0.017,-0.008,2.2,4.8,4.5,1023,2018,5,11,13,59,18.592,0.3436,-0.351,0.0464,-0.8697
0.014,0,0.009,1.8,3.6,4.6,1023,2018,5,11,13,59,18.609,0.3433,-0.3509,0.0452,-0.8699
0.017,-0.008,0,1.8,3.8,4.2,1023,2018,5,11,13,59,18.627,0.3431,-0.3509,0.0444,-0.8701
0.016,0.016,-0.012,1.8,3.9,4,0,2018,5,11,13,59,18.665,0.343,-0.3509,0.0434,-0.8702
0.014,0.013,-0.002,2.2,3.2,4.3,0,2018,5,11,13,59,18.686,0.3429,-0.3509,0.0425,-0.8702
0.012,-0.005,0.008,1.8,2,4.1,0,2018,5,11,13,59,18.691,0.3428,-0.3509,0.0417,-0.8703
0.011,-0.003,0.002,1.5,1.8,3.4,0,2018,5,11,13,59,18.726,0.3427,-0.3509,0.0413,-0.8704
0.001,0,-0.005,1.3,2.9,1.9,0,2018,5,11,13,59,18.749,0.3427,-0.351,0.0407,-0.8704
-0.031,-0.008,-0.011,1.7,4.6,0.9,0,2018,5,11,13,59,18.753,0.3428,-0.3511,0.0399,-0.8703
-0.013,-0.01,-0.005,4.7,9.1,1.3,0,2018,5,11,13,59,18.771,0.3431,-0.3516,0.0384,-0.8701
0.01,-0.018,0.019,7.3,12.9,1.4,0,2018,5,11,13,59,18.791,0.3438,-0.3518,0.0363,-0.8698
0.019,-0.007,0.014,8.5,13.7,1.6,0,2018,5,11,13,59,18.809,0.3445,-0.352,0.0338,-0.8695
-0.01,0,0.039,11.2,16.5,1,0,2018,5,11,13,59,18.83,0.3455,-0.3524,0.0308,-0.8691
0,-0.002,0.061,16.6,19.4,-1.6,0,2018,5,11,13,59,18.867,0.347,-0.3531,0.0272,-0.8683
0.036,0.015,0.112,25.7,17.6,-5.9,0,2018,5,11,13,59,18.886,0.349,-0.3546,0.023,-0.8671
0.035,0.095,0.221,32.3,-2,-16.7,0,2018,5,11,13,59,18.89,0.3515,-0.358,0.0205,-0.8647
-0.032,0.15,0.356,24.5,-18.5,-22.5,0,2018,5,11,13,59,18.911,0.354,-0.3631,0.0219,-0.8615
-0.079,0.044,0.445,3.3,-2.9,-28.8,0,2018,5,11,13,59,18.933,0.3569,-0.3661,0.0246,-0.859
-0.217,-0.207,0.454,-25.9,34.4,-44.2,0,2018,5,11,13,59,18.95,0.3634,-0.3625,0.0252,-0.8578
-0.143,-0.112,1.03,-67.7,41.9,-62.2,0,2018,5,11,13,59,18.971,0.374,-0.3528,0.0258,-0.8572
-0.177,-0.315,0.852,-102,56.8,-84.1,0,2018,5,11,13,59,19.009,0.3881,-0.3357,0.0281,-0.8578
-0.054,0.122,0.59,-122.7,32,-85.9,0,2018,5,11,13,59,19.029,0.4032,-0.3149,0.0341,-0.8585
-0.063,-0.157,0.448,-142.6,46.2,-76.7,0,2018,5,11,13,59,19.033,0.4164,-0.291,0.0423,-0.8602
-0.283,-0.37,0.847,-177.6,50.3,-98.7,0,2018,5,11,13,59,19.05,0.4313,-0.262,0.0514,-0.8617
-0.474,-0.542,0.914,-230,34.1,-120.5,0,2018,5,11,13,59,19.069,0.4477,-0.2268,0.0659,-0.8623
-0.59,-0.662,0.705,-273.3,11.5,-150.4,0,2018,5,11,13,59,19.09,0.4658,-0.185,0.0879,-0.8608
-0.537,-0.353,0.279,-298.5,-22.5,-174.7,0,2018,5,11,13,59,19.129,0.4852,-0.1394,0.1175,-0.8551
-0.573,-0.47,0.053,-315.7,-24.8,-193.6,0,2018,5,11,13,59,19.15,0.5046,-0.0917,0.1522,-0.8448
-0.744,-0.536,-0.074,-324.6,23.5,-215.7,0,2018,5,11,13,59,19.154,0.5251,-0.0389,0.1836,-0.83
-0.777,-0.268,-0.332,-329,61.5,-224.9,1023,2018,5,11,13,59,19.175,0.5457,0.0199,0.208,-0.8114
-0.754,-0.062,-0.565,-329.7,76.7,-219.4,1023,2018,5,11,13,59,19.194,0.5636,0.0812,0.2285,-0.7896
-0.777,0.046,-0.683,-317.3,72.9,-210.4,1023,2018,5,11,13,59,19.214,0.5776,0.1416,0.2461,-0.7652
-0.843,0.033,-0.769,-302.3,58.7,-201.1,1023,2018,5,11,13,59,19.233,0.5888,0.1981,0.2631,-0.738
-0.857,0.133,-0.872,-276.3,42.3,-190.9,1023,2018,5,11,13,59,19.273,0.5979,0.2491,0.279,-0.7088
-0.852,0.168,-0.931,-245.9,25.4,-179.6,1023,2018,5,11,13,59,19.277,0.6057,0.2934,0.2936,-0.6787
-0.855,0.141,-0.914,-212.3,17.5,-166.4,1023,2018,5,11,13,59,19.292,0.6126,0.331,0.3061,-0.649
-0.832,0.123,-0.874,-178.1,16.7,-148.2,1023,2018,5,11,13,59,19.312,0.6184,0.363,0.3156,-0.6213
-0.769,0.145,-0.874,-147.6,8.4,-124.1,1023,2018,5,11,13,59,19.332,0.623,0.3892,0.3228,-0.5967
-0.662,0.246,-0.887,-115.2,-3.9,-93,1023,2018,5,11,13,59,19.367,0.6265,0.4089,0.3293,-0.5758
-0.56,0.334,-0.866,-78.9,3.2,-50,1023,2018,5,11,13,59,19.389,0.6282,0.4224,0.335,-0.5608
-0.568,0.427,-0.822,-38.3,12.6,-3.4,1023,2018,5,11,13,59,19.391,0.6266,0.4305,0.3385,-0.5542
-0.588,0.489,-0.88,1,17.5,50.3,0,2018,5,11,13,59,19.432,0.6222,0.4324,0.3408,-0.5564
-0.644,0.611,-1.122,50.3,15.1,112.1,0,2018,5,11,13,59,19.45,0.6142,0.427,0.3424,-0.5682
-0.764,0.587,-1.374,120.1,-21.3,185.2,0,2018,5,11,13,59,19.454,0.6042,0.4092,0.3444,-0.5904
-1.159,0.571,-1.792,210.7,-64,264.1,0,2018,5,11,13,59,19.493,0.5935,0.3731,0.3475,-0.6225
-1.85,0.771,-2.371,333.9,-59.7,352.5,0,2018,5,11,13,59,19.514,0.5793,0.3165,0.346,-0.6666
-2.831,1.019,-2.4,481.9,-14.6,442.1,0,2018,5,11,13,59,19.518,0.5563,0.2399,0.3287,-0.7244
-3.163,0.657,-2.1,617.1,-1.1,498.8,0,2018,5,11,13,59,19.534,0.5236,0.1393,0.2932,-0.7876
-3.067,0.964,-2.777,746.4,6.5,507.5,0,2018,5,11,13,59,19.553,0.4827,0.0191,0.2389,-0.8422
-6.682,-15.707,15.009,-57.4,144.9,-18,0,2018,5,11,13,59,19.591,0.4432,-0.0639,0.149,-0.8816
1.649,7.653,-11.584,-214,-345.4,-31.6,0,2018,5,11,13,59,19.61,0.4472,-0.0553,0.1893,-0.8724
0.291,0.827,2.878,10.1,-108.2,-5.8,0,2018,5,11,13,59,19.614,0.4624,-0.0483,0.1789,-0.867
-0.442,-0.108,-0.807,-67.3,-231.3,17.1,0,2018,5,11,13,59,19.655,0.4561,-0.0574,0.2168,-0.8611
-0.168,-1.739,0.401,-12.4,-74.9,-29.7,0,2018,5,11,13,59,19.674,0.4528,-0.0646,0.2418,-0.8557
0.2,-0.293,-0.29,13.2,4.1,-30.7,0,2018,5,11,13,59,19.678,0.4581,-0.0651,0.2473,-0.8512
0.022,0.255,-0.267,44,24,9.9,0,2018,5,11,13,59,19.696,0.4612,-0.069,0.2438,-0.8503
0.011,-0.499,0.628,8.1,-4.7,0.6,0,2018,5,11,13,59,19.715,0.4615,-0.0724,0.24,-0.8509
-0.078,0.332,0.03,-19.6,-21.2,0.8,0,2018,5,11,13,59,19.754,0.4613,-0.0722,0.2418,-0.8505
-0.03,-0.167,-0.294,-15.9,12.9,-9.4,0,2018,5,11,13,59,19.759,0.461,-0.0698,0.2456,-0.8498
0.029,0.294,0.027,-9.5,20.6,-10.3,0,2018,5,11,13,59,19.775,0.4628,-0.0654,0.243,-0.8499
0.011,0.168,0.034,-9.1,-9.8,-4.1,0,2018,5,11,13,59,19.797,0.4635,-0.0633,0.2434,-0.8495
0.003,-0.008,0.01,-8.2,-16,-5,0,2018,5,11,13,59,19.817,0.4638,-0.0628,0.246,-0.8487
-0.013,-0.06,0.011,-10.9,-12.9,-8.8,0,2018,5,11,13,59,19.836,0.4641,-0.0626,0.2486,-0.8478
0.017,0.057,-0.136,-6.3,-10.9,-11.1,0,2018,5,11,13,59,19.856,0.4653,-0.0618,0.2515,-0.8463
0.026,0.064,0.061,-4.9,-11.3,-6,0,2018,5,11,13,59,19.877,0.4664,-0.0609,0.2529,-0.8453
0.02,0.017,0,-10,-23.6,-4.4,0,2018,5,11,13,59,19.896,0.467,-0.0607,0.2564,-0.844
-0.009,-0.079,-0.043,-13.2,-21.6,-7.7,0,2018,5,11,13,59,19.932,0.467,-0.0604,0.2607,-0.8427
0.045,-0.003,-0.126,-5.1,-5.9,-9,1023,2018,5,11,13,59,19.954,0.4678,-0.0598,0.2641,-0.8413
0.02,0.111,0.033,-0.5,-1.3,-3.6,1023,2018,5,11,13,59,19.957,0.4689,-0.0585,0.2641,-0.8407
-0.018,0.064,0.043,-1.5,-19,-1.7,1023,2018,5,11,13,59,19.975,0.4694,-0.0589,0.2648,-0.8402
-0.004,0.041,-0.005,-3.8,-29.1,-2.8,1023,2018,5,11,13,59,19.994,0.4698,-0.0603,0.2685,-0.8387
0.015,-0.065,0,-3.2,-29.6,-2.9,1023,2018,5,11,13,59,20.032,0.4699,-0.0622,0.2735,-0.8369
0.012,-0.089,-0.024,0,-18.8,-3.6,1023,2018,5,11,13,59,20.052,0.4701,-0.0639,0.278,-0.8351
0.009,0.027,-0.024,0.8,-6.4,-5.5,1023,2018,5,11,13,59,20.055,0.4708,-0.0646,0.2797,-0.8341
0.015,0.095,0,0.3,-5.7,-3.2,1023,2018,5,11,13,59,20.092,0.4718,-0.0646,0.28,-0.8334
0.016,0.025,0.027,-1,-15.1,-1.6,1023,2018,5,11,13,59,20.112,0.4724,-0.0649,0.2812,-0.8327
0,-0.036,0.033,-0.1,-14.2,-1.9,1023,2018,5,11,13,59,20.115,0.4725,-0.0661,0.2835,-0.8318
-0.004,0.042,-0.043,0.3,-12,-0.6,1023,2018,5,11,13,59,20.154,0.4726,-0.0672,0.2853,-0.831
0.002,-0.019,-0.004,1.2,-12.3,-2.4,1023,2018,5,11,13,59,20.173,0.4728,-0.0683,0.2871,-0.8302
0.015,-0.01,-0.01,2.3,-7.9,-4.7,0,2018,5,11,13,59,20.175,0.4735,-0.0694,0.2888,-0.8291
0.029,0.02,-0.012,4.6,-6.8,-4.6,0,2018,5,11,13,59,20.217,0.4744,-0.0701,0.2896,-0.8282
0.016,0.048,0.007,2.5,-8.6,-4.1,0,2018,5,11,13,59,20.236,0.4753,-0.0706,0.2898,-0.8276
0.016,0.08,0.027,1.1,-10.2,-0.7,0,2018,5,11,13,59,20.24,0.4758,-0.071,0.2901,-0.8272
-0.006,0.033,-0.008,-0.7,-16.6,1,0,2018,5,11,13,59,20.259,0.4759,-0.072,0.2917,-0.8265
-0.014,-0.035,-0.017,0.6,-15.3,0.9,0,2018,5,11,13,59,20.279,0.4755,-0.0736,0.294,-0.8258
-0.005,0.021,-0.033,0.8,-11,-0.5,0,2018,5,11,13,59,20.318,0.4754,-0.0749,0.2958,-0.825
0.007,-0.005,0.015,1.1,-10.7,-0.2,0,2018,5,11,13,59,20.337,0.4756,-0.0759,0.2972,-0.8243
0.029,-0.011,0.017,0.1,-11.2,0.2,0,2018,5,11,13,59,20.341,0.4755,-0.0767,0.2985,-0.8238
0.021,0.012,-0.025,0.8,-6.4,0.6,0,2018,5,11,13,59,20.359,0.4754,-0.0775,0.2997,-0.8234
0.03,0.029,-0.005,2.4,-4,1.6,0,2018,5,11,13,59,20.379,0.4754,-0.0779,0.3001,-0.8232
0.007,0.009,-0.013,3.6,-5,2.9,0,2018,5,11,13,59,20.415,0.4754,-0.0787,0.3003,-0.8231
-0.012,-0.011,0.027,3.4,-3.2,0.4,0,2018,5,11,13,59,20.435,0.4752,-0.0799,0.3004,-0.823
-0.016,-0.011,-0.017,0.8,-2.6,-0.2,0,2018,5,11,13,59,20.44,0.4753,-0.0807,0.3007,-0.8228
0.004,-0.017,0.011,1.3,3.4,-0.5,0,2018,5,11,13,59,20.474,0.4755,-0.0809,0.3006,-0.8227
0,0.015,-0.01,0.2,2.5,-0.9,0,2018,5,11,13,59,20.495,0.4758,-0.0807,0.3002,-0.8227
0.021,0.045,-0.016,2.9,4.5,-0.5,0,2018,5,11,13,59,20.497,0.4764,-0.0804,0.2997,-0.8226
0.018,0.023,0.04,2.7,3,-0.1,0,2018,5,11,13,59,20.537,0.477,-0.0803,0.2989,-0.8225
0.005,0.047,0.037,-1,1.1,-0.2,0,2018,5,11,13,59,20.559,0.4772,-0.08,0.2983,-0.8226
0.004,0.017,-0.019,-2.6,-1,0,0,2018,5,11,13,59,20.564,0.4773,-0.0796,0.2983,-0.8226
-0.002,0.011,-0.026,-0.6,0,0.9,0,2018,5,11,13,59,20.583,0.4772,-0.0794,0.2985,-0.8226
0,-0.006,0.022,1.3,0.4,2.5,0,2018,5,11,13,59,20.601,0.477,-0.0797,0.2984,-0.8227
0,0.025,-0.003,0.3,-5.1,1.9,0,2018,5,11,13,59,20.623,0.4769,-0.0801,0.2985,-0.8228
0.009,0.048,-0.013,-0.1,-2.1,-0.2,0,2018,5,11,13,59,20.644,0.4768,-0.0805,0.2988,-0.8227
0.029,-0.018,0.024,-0.6,0.8,0.3,0,2018,5,11,13,59,20.664,0.4769,-0.0803,0.2989,-0.8225
0.021,0.023,0.024,-2.5,0,0.7,1023,2018,5,11,13,59,20.682,0.4769,-0.0798,0.2986,-0.8227
0.005,0.024,-0.025,-3.1,-4.7,0,1023,2018,5,11,13,59,20.718,0.4767,-0.0794,0.299,-0.8227
0.002,-0.023,-0.014,-0.6,-2.4,-0.1,1023,2018,5,11,13,59,20.739,0.4766,-0.0795,0.2997,-0.8225
0.01,-0.028,-0.025,0.4,0.8,-3.3,1023,2018,5,11,13,59,20.743,0.4768,-0.0796,0.2998,-0.8224
0.046,0.107,-0.053,2.9,2.6,-2.7,1023,2018,5,11,13,59,20.763,0.4777,-0.0791,0.2987,-0.8223
0.027,0.036,0.053,1.8,-1.3,1.6,1023,2018,5,11,13,59,20.783,0.4781,-0.0788,0.2972,-0.8226
0.003,-0.01,-0.02,0.3,-5.4,1.1,1023,2018,5,11,13,59,20.82,0.4779,-0.0794,0.2977,-0.8225
0.014,0.04,-0.025,-0.6,-1.7,1.9,1023,2018,5,11,13,59,20.842,0.4777,-0.0796,0.2982,-0.8224
0.004,-0.024,0.047,-0.7,-0.5,2.6,1023,2018,5,11,13,59,20.848,0.4776,-0.0796,0.2985,-0.8224
0.005,0.031,-0.023,-0.3,-3.4,2.1,1023,2018,5,11,13,59,20.866,0.4773,-0.0797,0.2986,-0.8225
-0.001,0.015,-0.006,1.7,-0.2,3.2,1023,2018,5,11,13,59,20.885,0.477,-0.0801,0.2987,-0.8226
-0.002,-0.013,0.005,1.4,0.4,1.6,0,2018,5,11,13,59,20.904,0.4767,-0.0805,0.2984,-0.8228
0.017,0.008,-0.013,1.1,-0.1,0.3,0,2018,5,11,13,59,20.945,0.4768,-0.0807,0.2981,-0.8228
0.011,0.048,0.004,1.6,0,2,0,2018,5,11,13,59,20.965,0.4771,-0.0805,0.2979,-0.8228
0.013,0.002,0.029,0.1,-5.3,2.5,0,2018,5,11,13,59,20.969,0.4769,-0.0808,0.2977,-0.823
0.011,-0.005,-0.037,0.8,-1.8,1.7,0,2018,5,11,13,59,20.983,0.4767,-0.0813,0.2984,-0.8228
0.022,-0.033,-0.012,4.1,7.3,1.1,0,2018,5,11,13,59,21.003,0.4767,-0.0815,0.298,-0.8229
-0.004,0.043,-0.022,6.7,12.5,1.4,0,2018,5,11,13,59,21.026,0.477,-0.0815,0.2961,-0.8234
-0.001,0.107,0.04,2.3,6.3,0,0,2018,5,11,13,59,21.046,0.4775,-0.0811,0.2934,-0.8241
0.041,0.01,0.119,-1.8,-5.2,0.5,0,2018,5,11,13,59,21.064,0.4779,-0.0807,0.2927,-0.8242
0.016,0.013,-0.072,-3.9,-15.9,1.8,0,2018,5,11,13,59,21.103,0.4777,-0.081,0.2948,-0.8235
-0.006,-0.006,-0.06,-0.8,-1.2,2.5,0,2018,5,11,13,59,21.124,0.4771,-0.0818,0.2967,-0.8231
-0.01,-0.075,0.057,-2.6,7.2,-2.1,0,2018,5,11,13,59,21.128,0.4769,-0.0815,0.2965,-0.8233
0.032,0.107,-0.045,-0.7,6.2,-2.5,0,2018,5,11,13,59,21.166,0.4775,-0.0804,0.2958,-0.8233
0.012,0.027,0.056,0,1.7,0.9,0,2018,5,11,13,59,21.184,0.4781,-0.0796,0.295,-0.8233
0.009,0.034,0.003,-3.9,-12.3,2.5,0,2018,5,11,13,59,21.188,0.4779,-0.0796,0.2959,-0.8231
0.012,-0.038,-0.019,-4.3,-11.1,4.2,0,2018,5,11,13,59,21.206,0.477,-0.0803,0.2981,-0.8228
-0.018,-0.024,-0.024,-2.1,-2.1,1.8,0,2018,5,11,13,59,21.225,0.4764,-0.0807,0.2996,-0.8225
0.016,0.049,-0.049,-0.2,5.2,0,0,2018,5,11,13,59,21.244,0.4763,-0.0805,0.2995,-0.8227
0.03,0.065,0.007,1.2,2.2,2.5,0,2018,5,11,13,59,21.284,0.4766,-0.0797,0.2986,-0.8229
0.025,0.038,0.023,0.6,-9.5,4.2,0,2018,5,11,13,59,21.305,0.4764,-0.08,0.2988,-0.823
0.008,-0.024,0.012,0.3,-14,4,0,2018,5,11,13,59,21.309,0.4758,-0.0812,0.3004,-0.8225
-0.007,-0.027,-0.016,0.9,-5.9,2.2,0,2018,5,11,13,59,21.327,0.4754,-0.0824,0.3022,-0.822
0.002,0.014,-0.033,2.9,3.2,1.7,0,2018,5,11,13,59,21.363,0.4754,-0.083,0.3024,-0.8219
0,0.025,0.048,2.3,2.6,1.1,0,2018,5,11,13,59,21.383,0.4756,-0.0831,0.3014,-0.8222
0.014,0.042,0.009,0.6,-3.9,1.5,0,2018,5,11,13,59,21.386,0.4757,-0.0832,0.3011,-0.8222
0.024,-0.007,-0.015,0,-5.6,1,1023,2018,5,11,13,59,21.402,0.4757,-0.0836,0.3018,-0.8219
0.023,-0.018,-0.02,1.4,0.4,1.4,1023,2018,5,11,13,59,21.424,0.4755,-0.084,0.3023,-0.8217
0.005,0.005,0.002,2.2,5.2,1.7,1023,2018,5,11,13,59,21.46,0.4755,-0.0841,0.3018,-0.8219
0.004,0.024,0.021,0.6,3.3,0.2,1023,2018,5,11,13,59,21.48,0.4757,-0.0839,0.3008,-0.8222
0.01,0.028,-0.015,0.7,1.7,0.4,1023,2018,5,11,13,59,21.485,0.4761,-0.0835,0.3004,-0.8221
0.004,0.013,0,4,2.3,2,1023,2018,5,11,13,59,21.522,0.4762,-0.0837,0.2999,-0.8223
0.003,0.032,0.024,3.4,-0.7,1.8,1023,2018,5,11,13,59,21.541,0.4763,-0.0842,0.299,-0.8225
0.007,0.017,-0.001,1.5,-3.5,1.4,1023,2018,5,11,13,59,21.546,0.4762,-0.0848,0.2988,-0.8225
0.005,0.001,0.004,-0.1,-2.4,1.1,1023,2018,5,11,13,59,21.582,0.4762,-0.0851,0.2992,-0.8224
0.012,0,0.003,-1.3,-0.2,0.2,1023,2018,5,11,13,59,21.602,0.4763,-0.0851,0.2995,-0.8222
0.012,0.009,-0.004,-1,0.1,0.3,1023,2018,5,11,13,59,21.607,0.4762,-0.0848,0.2996,-0.8222
0.024,0.015,0.013,-0.8,-0.9,-0.8,0,2018,5,11,13,59,21.646,0.4763,-0.0846,0.2995,-0.8223
0,0.04,0.003,0,-0.6,-0.2,0,2018,5,11,13,59,21.665,0.4764,-0.0846,0.2993,-0.8223
0.01,0.021,0.003,0.6,-2.3,0.8,0,2018,5,11,13,59,21.672,0.4764,-0.0847,0.2992,-0.8223
0.008,0,0.003,-0.1,-1.8,0.9,0,2018,5,11,13,59,21.686,0.4764,-0.0849,0.2994,-0.8222
0.013,-0.005,-0.019,-0.6,0.4,0.2,0,2018,5,11,13,59,21.722,0.4764,-0.0849,0.2996,-0.8221
0.013,0.015,0,0,3.6,0,0,2018,5,11,13,59,21.742,0.4764,-0.0846,0.2993,-0.8222
0.012,0.024,0.005,0.6,2.2,0.7,0,2018,5,11,13,59,21.747,0.4767,-0.0841,0.2988,-0.8223
0.012,0.022,0.004,0.8,0.9,1.1,0,2018,5,11,13,59,21.787,0.4769,-0.0839,0.2984,-0.8224
-0.001,0.016,-0.005,0.3,-0.1,1.3,0,2018,5,11,13,59,21.807,0.4769,-0.084,0.2983,-0.8224
0.008,0.001,-0.009,0.2,2.2,0.5,0,2018,5,11,13,59,21.822,0.477,-0.0839,0.2982,-0.8224
0.001,-0.005,0.019,0.4,3.3,0,0,2018,5,11,13,59,21.834,0.4772,-0.0837,0.2978,-0.8224
0.01,0.015,-0.011,0.3,-0.1,-1,0,2018,5,11,13,59,21.85,0.4774,-0.0835,0.2975,-0.8225
0.01,0.05,-0.001,0.5,-0.9,1.1,0,2018,5,11,13,59,21.887,0.4776,-0.0834,0.297,-0.8225
0.012,0.013,0.017,0.1,-4,1.3,0,2018,5,11,13,59,21.91,0.4775,-0.0835,0.2971,-0.8225
0.011,0.011,-0.009,-0.9,-3.1,0.8,0,2018,5,11,13,59,21.913,0.4775,-0.0837,0.2977,-0.8223
0.016,0.022,-0.026,-0.6,-0.7,0.5,0,2018,5,11,13,59,21.928,0.4775,-0.0837,0.2981,-0.8222
0.01,0.029,0.011,0.4,-1.6,1.2,0,2018,5,11,13,59,21.949,0.4776,-0.0836,0.2981,-0.8221
-0.002,0.007,0.009,-0.9,-5.2,1.1,0,2018,5,11,13,59,21.969,0.4773,-0.0839,0.2984,-0.8221
0.007,-0.01,-0.027,-1.3,-3.7,0,0,2018,5,11,13,59,21.993,0.4773,-0.0841,0.2994,-0.8217
0.013,-0.008,-0.014,1.1,3.1,0.8,0,2018,5,11,13,59,22.011,0.4775,-0.0841,0.2998,-0.8215
0.004,0.029,0.014,1.2,4,1,0,2018,5,11,13,59,22.05,0.4776,-0.084,0.2989,-0.8218
0.012,0.03,0.017,0.3,0,1,0,2018,5,11,13,59,22.071,0.4779,-0.0837,0.2984,-0.8218
0.014,0.012,-0.005,0.1,-1,1.3,0,2018,5,11,13,59,22.075,0.4779,-0.0837,0.2984,-0.8219
0.02,0.007,-0.02,1.7,1.7,1.7,0,2018,5,11,13,59,22.094,0.478,-0.0837,0.2984,-0.8218
0.011,0.005,0.008,2.9,2.4,1.9,0,2018,5,11,13,59,22.114,0.4782,-0.0839,0.298,-0.8218
0.003,0.016,0.002,1.8,0.9,1.3,0,2018,5,11,13,59,22.131,0.4783,-0.0841,0.2974,-0.8219
0.003,0.016,-0.007,1.5,0.6,1.4,0,2018,5,11,13,59,22.15,0.4783,-0.0843,0.2969,-0.8221
0.014,0.006,0,1.9,2.3,1.4,1023,2018,5,11,13,59,22.169,0.4782,-0.0844,0.2964,-0.8223
0.019,0.029,-0.013,2.7,3.6,2.1,1023,2018,5,11,13,59,22.192,0.4784,-0.0844,0.2958,-0.8224
0.013,0.025,0.014,2.8,1.8,1.7,1023,2018,5,11,13,59,22.211,0.4785,-0.0845,0.2949,-0.8227
0.002,0.015,0.007,1.4,0.1,1.1,1023,2018,5,11,13,59,22.249,0.4785,-0.0848,0.2942,-0.8229
0,-0.001,-0.006,0,0,0,1023,2018,5,11,13,59,22.269,0.4784,-0.0849,0.294,-0.823
0.003,0.009,0,0,2,-0.4,1023,2018,5,11,13,59,22.273,0.4787,-0.0848,0.2939,-0.8229
0.02,0.018,-0.016,0.4,0.9,0,1023,2018,5,11,13,59,22.295,0.479,-0.0844,0.2938,-0.8228
0.009,0.019,0.007,0.8,0.9,1,1023,2018,5,11,13,59,22.316,0.4791,-0.0843,0.2933,-0.8229
0.007,-0.001,0,0.7,0.4,0.7,1023,2018,5,11,13,59,22.332,0.4791,-0.0844,0.293,-0.823
0.016,0.028,-0.014,1.1,3.5,0,1023,2018,5,11,13,59,22.371,0.4792,-0.0844,0.2927,-0.823
0.009,0.023,0.012,1.5,3.3,0.5,1023,2018,5,11,13,59,22.39,0.4795,-0.0841,0.292,-0.8232
0.004,0.019,0.007,0.3,0.3,0.8,1023,2018,5,11,13,59,22.395,0.4798,-0.084,0.2915,-0.8232
0.011,0.022,-0.006,0.6,-2.3,0.7,1023,2018,5,11,13,59,22.412,0.4798,-0.084,0.2915,-0.8231
0.01,0.011,-0.001,1.4,-2.8,1,0,2018,5,11,13,59,22.432,0.4798,-0.0844,0.2918,-0.823
0.008,0.016,0.003,0.8,-2.9,0.9,0,2018,5,11,13,59,22.451,0.4799,-0.0847,0.2921,-0.8228
0.011,0.008,0.002,0.1,-2.4,0.3,0,2018,5,11,13,59,22.488,0.4799,-0.085,0.2923,-0.8227
0.01,-0.002,-0.002,-1.2,-2.3,-0.3,0,2018,5,11,13,59,22.51,0.4801,-0.085,0.2926,-0.8225
0.008,0.015,-0.008,-0.6,2,0.1,0,2018,5,11,13,59,22.513,0.4802,-0.0848,0.2926,-0.8225
0.017,0.039,0.009,-0.2,1.2,-0.2,0,2018,5,11,13,59,22.551,0.4805,-0.0844,0.2923,-0.8224
0.013,0.038,0.011,-0.2,1.8,-0.3,0,2018,5,11,13,59,22.572,0.4807,-0.0843,0.2923,-0.8223
0.014,0.029,-0.016,-0.3,-0.1,0.6,0,2018,5,11,13,59,22.576,0.481,-0.0839,0.2921,-0.8223
0.014,0.009,0,-0.1,0,0.9,0,2018,5,11,13,59,22.615,0.481,-0.0838,0.2921,-0.8222
0.011,0.009,-0.005,0.1,1.4,0.7,0,2018,5,11,13,59,22.635,0.4811,-0.0837,0.292,-0.8223
0.004,0.011,0.006,0.1,2.3,0.2,0,2018,5,11,13,59,22.639,0.4812,-0.0835,0.2917,-0.8223
0.015,0.025,-0.01,0.4,1.3,0.7,0,2018,5,11,13,59,22.655,0.4815,-0.0832,0.2915,-0.8222
0.016,0.027,-0.013,1.8,0,1.9,0,2018,5,11,13,59,22.692,0.4816,-0.0832,0.2912,-0.8223
0.006,0.005,0.008,2.4,0,2.3,0,2018,5,11,13,59,22.713,0.4816,-0.0835,0.291,-0.8223
0.012,0.01,-0.011,2.2,1.1,1.5,0,2018,5,11,13,59,22.717,0.4818,-0.0837,0.2908,-0.8223
0.013,0.01,-0.006,2.9,2.8,2.2,0,2018,5,11,13,59,22.736,0.4818,-0.084,0.2904,-0.8224
0.011,0.011,0.004,2.6,2.5,2.1,0,2018,5,11,13,59,22.775,0.482,-0.0841,0.2897,-0.8225
0.007,0.002,0.01,2.9,2.2,1.9,0,2018,5,11,13,59,22.796,0.4822,-0.0843,0.2892,-0.8226
0.004,0.02,-0.003,3.7,1.5,2.2,0,2018,5,11,13,59,22.801,0.4821,-0.0846,0.2885,-0.8228
0.009,0.032,-0.007,3.4,-0.8,2.4,0,2018,5,11,13,59,22.819,0.482,-0.0851,0.2878,-0.823
0.005,0.003,0.008,2.8,-0.4,2.4,0,2018,5,11,13,59,22.833,0.4819,-0.0857,0.2874,-0.8232
0.012,0.002,0.001,1.8,1.7,2.2,0,2018,5,11,13,59,22.873,0.4818,-0.0861,0.287,-0.8234
0.014,0.002,-0.006,2,3.6,2.1,0,2018,5,11,13,59,22.895,0.4816,-0.0862,0.2862,-0.8237
0.014,0.027,-0.008,3.7,2.8,2.8,0,2018,5,11,13,59,22.899,0.4817,-0.0863,0.2855,-0.8239
0.004,0.039,-0.013,3.9,-0.1,3,0,2018,5,11,13,59,22.918,0.4816,-0.0867,0.2847,-0.8242
0.004,0.027,0,3.9,-0.8,3.3,0,2018,5,11,13,59,22.939,0.4814,-0.0874,0.2841,-0.8245
0.008,0.025,0.005,4.4,-2,4.1,1023,2018,5,11,13,59,22.96,0.4812,-0.0883,0.2837,-0.8246
0.001,-0.012,0.031,2.3,-3.1,3.6,1023,2018,5,11,13,59,22.979,0.4808,-0.0892,0.2835,-0.8248
0.018,0.001,-0.02,1.8,-1.3,2.4,1023,2018,5,11,13,59,22.998,0.4806,-0.0898,0.2838,-0.8248
0.009,-0.003,-0.007,2.6,2.5,2.4,1023,2018,5,11,13,59,23.018,0.4807,-0.09,0.2837,-0.8247
0.013,0.013,0.009,2.9,2.6,1.6,1023,2018,5,11,13,59,23.057,0.4809,-0.0902,0.2831,-0.8248
0.009,0.048,-0.01,3.1,-0.7,2.1,1023,2018,5,11,13,59,23.079,0.4812,-0.0903,0.2826,-0.8248
-0.002,0.011,0.029,2.8,-1.7,2,1023,2018,5,11,13,59,23.084,0.4813,-0.0908,0.2824,-0.8247
0.008,0.006,-0.008,1.8,-0.2,1.7,1023,2018,5,11,13,59,23.101,0.4812,-0.0913,0.2822,-0.8248
0.012,0.02,-0.026,2,3.2,1.4,1023,2018,5,11,13,59,23.116,0.4813,-0.0914,0.282,-0.8248
0.011,0,0.009,2,5.3,1.3,1023,2018,5,11,13,59,23.139,0.4813,-0.0914,0.281,-0.8251
0.013,0.033,-0.004,1.8,2.5,1.5,1023,2018,5,11,13,59,23.175,0.4815,-0.0913,0.2802,-0.8253
0.013,0.028,-0.006,1.1,0.6,1.6,1023,2018,5,11,13,59,23.195,0.4817,-0.0912,0.2798,-0.8253
0.013,0.006,0.009,1.2,0.5,1.3,0,2018,5,11,13,59,23.199,0.482,-0.0912,0.2797,-0.8252
0.01,0.005,0,1.7,2.3,1.5,0,2018,5,11,13,59,23.219,0.482,-0.0913,0.2794,-0.8253
0.011,0.022,-0.004,1.8,2.3,2.2,0,2018,5,11,13,59,23.24,0.4821,-0.0913,0.2788,-0.8254
0.004,0.017,0.01,1.1,1.4,1.9,0,2018,5,11,13,59,23.262,0.4819,-0.0914,0.278,-0.8258
0.003,0.013,0.004,0.3,-0.8,1.2,0,2018,5,11,13,59,23.283,0.4818,-0.0915,0.2777,-0.826
0.007,0.015,-0.002,0.3,-0.9,0.2,0,2018,5,11,13,59,23.302,0.482,-0.0916,0.2779,-0.8257
0.009,0.013,0.007,0,0,0,0,2018,5,11,13,59,23.339,0.4822,-0.0915,0.2778,-0.8257
0.008,0.026,-0.005,-1,-0.4,0.5,0,2018,5,11,13,59,23.358,0.4822,-0.0913,0.2778,-0.8257
0.014,0.021,-0.007,-0.2,-2,1.2,0,2018,5,11,13,59,23.363,0.4822,-0.0912,0.2779,-0.8257
0.005,0.004,-0.005,0.3,-3.6,1,0,2018,5,11,13,59,23.38,0.482,-0.0915,0.2782,-0.8257
0.002,0.007,0.005,0.6,-1.7,-0.1,0,2018,5,11,13,59,23.419,0.482,-0.0919,0.2784,-0.8256
0.002,0.007,0.004,0,0,0,0,2018,5,11,13,59,23.438,0.4822,-0.0919,0.2785,-0.8254
0.006,0.022,0.012,-1.6,0.3,-0.4,0,2018,5,11,13,59,23.44,0.4823,-0.0917,0.2783,-0.8255
0.023,0.027,-0.012,-1.5,-1.7,0.5,0,2018,5,11,13,59,23.461,0.4823,-0.0914,0.2784,-0.8255
0.007,0.01,-0.004,-0.1,-2.4,1.1,0,2018,5,11,13,59,23.481,0.4822,-0.0914,0.2787,-0.8254
0.015,0.01,0.007,-0.9,-4.4,0.2,0,2018,5,11,13,59,23.516,0.4822,-0.0915,0.2791,-0.8252
0.01,0.016,-0.005,-1.5,-3.5,0.3,0,2018,5,11,13,59,23.536,0.4822,-0.0915,0.2796,-0.8251
0.016,0.02,-0.027,-1.5,-3.9,0.8,0,2018,5,11,13,59,23.543,0.4822,-0.0915,0.2801,-0.8249
0.008,0.004,-0.004,-1.2,-3.2,1.1,0,2018,5,11,13,59,23.56,0.4822,-0.0915,0.2807,-0.8247
0.003,0.02,-0.019,-0.4,-2.9,0.5,0,2018,5,11,13,59,23.595,0.4821,-0.0917,0.2812,-0.8246
0.008,0.016,0.021,-0.3,-2.2,0.2,0,2018,5,11,13,59,23.615,0.4823,-0.0917,0.2815,-0.8244
0.015,0.02,-0.002,-0.8,-3.7,0.7,0,2018,5,11,13,59,23.619,0.4823,-0.0918,0.2819,-0.8243
0.022,0.043,-0.024,0.5,-5.2,1.9,0,2018,5,11,13,59,23.659,0.4822,-0.092,0.2825,-0.8241
0.003,-0.007,0.013,0.8,-4.6,2.2,0,2018,5,11,13,59,23.679,0.4819,-0.0925,0.283,-0.824
0.006,-0.015,0.009,-0.6,-3.6,0.7,0,2018,5,11,13,59,23.683,0.4818,-0.093,0.2837,-0.8237
0.008,0.022,-0.026,-0.8,-0.9,0.5,0,2018,5,11,13,59,23.702,0.4818,-0.093,0.2841,-0.8236
-0.005,-0.001,0.018,0.8,1.9,0.7,0,2018,5,11,13,59,23.738,0.4818,-0.093,0.2839,-0.8237
0.011,0.024,-0.014,0.4,-1.5,0.8,1023,2018,5,11,13,59,23.757,0.4817,-0.093,0.2837,-0.8238
0.017,0.028,0.007,1.2,-2,1.5,1023,2018,5,11,13,59,23.765,0.4818,-0.0932,0.2837,-0.8237
0,-0.014,0.01,0,-3,1.1,1023,2018,5,11,13,59,23.784,0.4816,-0.0936,0.2838,-0.8238
0.006,0.014,-0.029,-0.7,-0.7,0,1023,2018,5,11,13,59,23.804,0.4815,-0.0937,0.284,-0.8237
0.008,0.01,0.003,-0.2,1.2,0.3,1023,2018,5,11,13,59,23.82,0.4817,-0.0935,0.2839,-0.8237
0.004,0.029,0.013,-1.3,-1.2,0.5,1023,2018,5,11,13,59,23.859,0.4818,-0.0932,0.2837,-0.8237
0.002,0.03,-0.005,-1.5,-2,0.6,1023,2018,5,11,13,59,23.878,0.4819,-0.093,0.2841,-0.8235
0.007,0.006,0,-1.2,-0.6,0.3,1023,2018,5,11,13,59,23.881,0.482,-0.0929,0.2845,-0.8234
0.011,0.028,-0.001,-0.9,-0.9,0.7,1023,2018,5,11,13,59,23.92,0.482,-0.0927,0.2846,-0.8233
0.013,0.012,0,-0.9,-1.6,0.2,1023,2018,5,11,13,59,23.94,0.4821,-0.0926,0.2848,-0.8233
0.004,0.007,-0.015,0,0,0.8,1023,2018,5,11,13,59,23.943,0.4821,-0.0925,0.285,-0.8232
0.004,0.007,0.008,-0.4,1.1,0.7,1023,2018,5,11,13,59,23.982,0.4822,-0.0924,0.2848,-0.8232
0.01,0.011,0.011,-0.5,-0.6,0.7,0,2018,5,11,13,59,24.001,0.4823,-0.0922,0.2848,-0.8232
0.008,0.003,-0.004,-0.6,-0.6,0.4,0,2018,5,11,13,59,24.005,0.4824,-0.0921,0.2849,-0.8231
0.002,0.004,-0.009,-0.1,0.8,0.6,0,2018,5,11,13,59,24.043,0.4825,-0.092,0.285,-0.823
0.011,0.024,0.002,-0.7,1.3,0.1,0,2018,5,11,13,59,24.063,0.4827,-0.0917,0.2848,-0.823
0.017,0.029,-0.008,-0.6,0.6,0.8,0,2018,5,11,13,59,24.068,0.4827,-0.0914,0.2845,-0.8231
0.01,0.008,0.021,-0.4,0.6,0.6,0,2018,5,11,13,59,24.084,0.4828,-0.0912,0.2844,-0.8231
0.015,0.009,-0.002,-0.7,-0.1,0,0,2018,5,11,13,59,24.122,0.4829,-0.091,0.2844,-0.8231
0.013,0.036,-0.013,-0.2,-0.2,0.8,0,2018,5,11,13,59,24.142,0.483,-0.0908,0.2844,-0.823
0.001,0.013,0.019,-0.4,-0.3,0.7,0,2018,5,11,13,59,24.147,0.483,-0.0908,0.2843,-0.8231
0.009,0.013,-0.01,-0.7,-1.5,0.7,0,2018,5,11,13,59,24.166,0.4829,-0.0907,0.2844,-0.8231
0.016,0.006,-0.014,0,0.3,1,0,2018,5,11,13,59,24.186,0.4829,-0.0907,0.2846,-0.823
0.008,0.002,0.014,0.5,1.8,0.8,0,2018,5,11,13,59,24.224,0.4832,-0.0905,0.2845,-0.8229
0.009,0.036,-0.007,0,-0.6,0.5,0,2018,5,11,13,59,24.246,0.4832,-0.0904,0.2842,-0.8231
0.01,0.016,-0.004,0.3,-2,1.1,0,2018,5,11,13,59,24.25,0.4833,-0.0905,0.2843,-0.823
0.005,0,0.004,0.6,-0.9,1.2,0,2018,5,11,13,59,24.27,0.4833,-0.0907,0.2845,-0.8229
0.017,0.009,-0.003,0.1,-1,1.1,0,2018,5,11,13,59,24.286,0.4834,-0.0907,0.2845,-0.8228
0.001,0.006,-0.004,0,-0.6,0.8,0,2018,5,11,13,59,24.322,0.4832,-0.0909,0.2844,-0.8229
0.01,0,-0.008,-0.6,0,0.5,0,2018,5,11,13,59,24.342,0.4831,-0.0909,0.2843,-0.823
0.014,0.005,0,0.5,1.5,0.7,0,2018,5,11,13,59,24.347,0.4831,-0.0908,0.2842,-0.8231
0.021,0.026,0.002,0,-0.9,0.9,0,2018,5,11,13,59,24.368,0.4833,-0.0906,0.2839,-0.8231
0.01,0.019,0.002,-0.1,-2.3,1.1,0,2018,5,11,13,59,24.389,0.4834,-0.0906,0.284,-0.823
0.008,-0.003,0.001,-1.2,-2.2,0.7,0,2018,5,11,13,59,24.408,0.4833,-0.0907,0.2843,-0.8229
0,-0.002,-0.008,-0.7,0.4,0.1,0,2018,5,11,13,59,24.429,0.4833,-0.0907,0.2846,-0.8228
0.022,0.01,-0.005,-0.4,1.4,0.3,0,2018,5,11,13,59,24.466,0.4833,-0.0904,0.2843,-0.8229
0.005,0.014,0.012,-0.7,0.2,0.7,0,2018,5,11,13,59,24.486,0.4834,-0.0902,0.2841,-0.823
0.021,0.015,-0.021,-0.8,-1.5,0.8,0,2018,5,11,13,59,24.49,0.4835,-0.09,0.2842,-0.8229
0.012,0.007,0,-0.1,-1.1,1,1023,2018,5,11,13,59,24.507,0.4834,-0.09,0.2843,-0.8229
0.014,0.01,0.008,0,-0.6,0.8,1023,2018,5,11,13,59,24.528,0.4836,-0.0899,0.2845,-0.8228
0.007,0.01,-0.005,-0.6,-0.7,0.6,1023,2018,5,11,13,59,24.548,0.4836,-0.0899,0.2845,-0.8228
0.007,0.017,-0.008,-0.7,0.4,0.2,1023,2018,5,11,13,59,24.583,0.4837,-0.0897,0.2846,-0.8227
0.009,0,-0.004,-0.7,1.7,0.5,1023,2018,5,11,13,59,24.604,0.4838,-0.0895,0.2845,-0.8227
0.012,0.026,-0.01,0.7,1.8,1,1023,2018,5,11,13,59,24.609,0.4839,-0.0893,0.2842,-0.8228
0,0.014,0.002,1.4,0,1.4,1023,2018,5,11,13,59,24.629,0.484,-0.0892,0.284,-0.8227
0.01,0.009,0.004,0.7,-0.2,0.7,1023,2018,5,11,13,59,24.647,0.4841,-0.0893,0.2838,-0.8228
0.012,0.007,0.003,0.2,0.8,0.8,1023,2018,5,11,13,59,24.685,0.4842,-0.0893,0.2837,-0.8228
0.015,0.025,-0.021,-0.1,1.1,1,1023,2018,5,11,13,59,24.705,0.4843,-0.0891,0.2835,-0.8228
0.008,0.012,0.007,0.3,0.4,0.8,1023,2018,5,11,13,59,24.709,0.4843,-0.089,0.2832,-0.8229
-0.002,0.004,0.007,0.1,1,0.2,1023,2018,5,11,13,59,24.75,0.4845,-0.089,0.2831,-0.8228
0.008,0.024,0.002,0.1,0.8,0,0,2018,5,11,13,59,24.771,0.4847,-0.0888,0.2828,-0.8228
0.005,0.028,0.004,-0.1,-0.5,0.2,0,2018,5,11,13,59,24.775,0.4849,-0.0887,0.2827,-0.8228
0.015,0.008,0.008,-0.9,-2.3,0.6,0,2018,5,11,13,59,24.789,0.4849,-0.0886,0.2828,-0.8227
0.004,0.001,-0.004,-1.5,-1.3,0.1,0,2018,5,11,13,59,24.826,0.485,-0.0885,0.2832,-0.8225
0.009,0.006,-0.008,-1.5,-0.5,-0.2,0,2018,5,11,13,59,24.846,0.485,-0.0883,0.2834,-0.8225
0.002,0.009,0.003,-0.9,-0.2,0,0,2018,5,11,13,59,24.851,0.4851,-0.088,0.2835,-0.8224
0.008,0.006,0.007,-2.5,-3.2,-1.4,0,2018,5,11,13,59,24.871,0.4852,-0.0879,0.2836,-0.8224
0.015,0.018,-0.022,-1.9,-1.4,-1.1,0,2018,5,11,13,59,24.892,0.4851,-0.0876,0.2839,-0.8223
0.009,0.014,0.005,-1.3,-0.1,-0.8,0,2018,5,11,13,59,24.913,0.4854,-0.0872,0.2842,-0.8221
0.011,0.003,0,-1.3,-0.9,-1.2,0,2018,5,11,13,59,24.931,0.4856,-0.0868,0.2843,-0.822
0.027,0.005,0.009,-2.3,-2.7,-2.1,0,2018,5,11,13,59,24.969,0.4859,-0.0864,0.2846,-0.8217
0.042,0.006,-0.006,-3.1,-4.1,-3.2,0,2018,5,11,13,59,24.99,0.4863,-0.0859,0.2854,-0.8213
-0.015,0.018,-0.004,-1.2,-3.4,-1,0,2018,5,11,13,59,24.994,0.4866,-0.0857,0.2861,-0.8209
0.022,0.009,-0.002,-1.2,-2.3,-0.2,0,2018,5,11,13,59,25.01,0.4868,-0.0857,0.2865,-0.8206
0.013,0.015,-0.011,-1,-0.3,0,0,2018,5,11,13,59,25.029,0.4867,-0.0855,0.2865,-0.8207
0.012,0.02,-0.008,-0.1,-0.7,0.6,0,2018,5,11,13,59,25.069,0.4867,-0.0854,0.2865,-0.8207
0.015,0.02,-0.005,0,-1.7,1,0,2018,5,11,13,59,25.09,0.4868,-0.0853,0.2867,-0.8206
0.031,0.074,-0.049,1.8,-4.4,3.3,0,2018,5,11,13,59,25.094,0.4868,-0.0854,0.287,-0.8205
0.026,0.055,0.029,3.1,-8.7,5.2,0,2018,5,11,13,59,25.112,0.4864,-0.0861,0.2872,-0.8206
-0.008,-0.036,0.037,1.1,-13,5.7,0,2018,5,11,13,59,25.132,0.4857,-0.0876,0.2883,-0.8204
-0.008,-0.019,-0.013,0.6,-8.4,3,0,2018,5,11,13,59,25.154,0.485,-0.0891,0.29,-0.8201
0,-0.028,-0.02,1.4,-1.6,1.8,0,2018,5,11,13,59,25.174,0.4846,-0.09,0.2907,-0.82
0.008,-0.02,0.002,2.2,4.3,0.8,0,2018,5,11,13,59,25.194,0.4846,-0.0903,0.2905,-0.82
0.005,0.02,0.003,2,4.5,0.7,0,2018,5,11,13,59,25.211,0.485,-0.0901,0.2898,-0.8201
0.007,0.031,0.008,1.5,1.4,0.8,0,2018,5,11,13,59,25.248,0.4853,-0.09,0.2891,-0.8202
0.011,0.016,0.003,0.8,-0.7,0.8,0,2018,5,11,13,59,25.269,0.4855,-0.09,0.2888,-0.8201
0.009,0.001,-0.001,0,0,0,1023,2018,5,11,13,59,25.273,0.4855,-0.09,0.2888,-0.8201
0.008,0.008,0,-1,2,0,1023,2018,5,11,13,59,25.293,0.4857,-0.0897,0.2887,-0.8201
0.008,0.01,-0.003,-1,2.3,0.2,1023,2018,5,11,13,59,25.313,0.486,-0.0892,0.2885,-0.82
0.01,0.017,-0.011,-0.9,2.2,-0.1,1023,2018,5,11,13,59,25.334,0.4861,-0.0888,0.2882,-0.8202
0.012,0.013,-0.001,0.1,2.1,0.2,1023,2018,5,11,13,59,25.354,0.4861,-0.0885,0.2878,-0.8203
0.011,0.016,-0.002,0.3,0.6,0.3,1023,2018,5,11,13,59,25.374,0.4863,-0.0883,0.2875,-0.8203
0.011,0.013,0.006,0.1,0.6,0.5,1023,2018,5,11,13,59,25.394,0.4864,-0.0882,0.2873,-0.8203
0.009,0.02,0.004,0.1,1.7,0.9,1023,2018,5,11,13,59,25.414,0.4865,-0.088,0.287,-0.8204
0.01,0.024,-0.008,0.2,1.6,0.5,1023,2018,5,11,13,59,25.449,0.4865,-0.0878,0.2866,-0.8205
0.009,0.025,-0.011,0.4,0.8,0.7,1023,2018,5,11,13,59,25.47,0.4867,-0.0876,0.2864,-0.8205
0.007,0.006,0.006,0.4,0.8,0.8,1023,2018,5,11,13,59,25.478,0.4869,-0.0875,0.2863,-0.8204
0.011,0.015,0.005,0.8,0,0.8,1023,2018,5,11,13,59,25.497,0.487,-0.0875,0.2861,-0.8205
0.006,0.02,-0.006,0.4,-0.6,0.9,0,2018,5,11,13,59,25.518,0.4872,-0.0875,0.2861,-0.8204
0.007,0.013,-0.006,0.4,0.4,0.8,0,2018,5,11,13,59,25.536,0.4872,-0.0875,0.286,-0.8204
0.011,0.013,0.006,0.5,1.2,1.3,0,2018,5,11,13,59,25.555,0.4873,-0.0874,0.2858,-0.8204
0.004,0.018,0.001,-0.1,-0.1,1,0,2018,5,11,13,59,25.577,0.4874,-0.0873,0.2856,-0.8204
0.012,0.013,0.001,-0.2,-0.9,0.7,0,2018,5,11,13,59,25.597,0.4873,-0.0873,0.2855,-0.8205
0.006,0.008,-0.007,0.3,-0.6,0.8,0,2018,5,11,13,59,25.616,0.4873,-0.0874,0.2855,-0.8205
0.009,0.02,-0.007,-0.1,-0.2,0.8,0,2018,5,11,13,59,25.638,0.4874,-0.0874,0.2855,-0.8205
0.004,0.009,0.007,-0.4,-0.8,0.5,0,2018,5,11,13,59,25.674,0.4874,-0.0874,0.2855,-0.8204
0.009,0.008,0,-1,-0.7,0.3,0,2018,5,11,13,59,25.695,0.4875,-0.0873,0.2857,-0.8203
0.013,0.018,-0.016,0,0,0,0,2018,5,11,13,59,25.699,0.4876,-0.0871,0.2859,-0.8202
0.01,0.008,0.004,-0.1,1.3,0.6,0,2018,5,11,13,59,25.72,0.4877,-0.0869,0.2857,-0.8202
0.007,0.019,0.009,-0.2,0.9,0.3,0,2018,5,11,13,59,25.739,0.488,-0.0867,0.2856,-0.8201
0.007,0.022,-0.003,-0.5,-0.9,0.5,0,2018,5,11,13,59,25.754,0.488,-0.0865,0.2854,-0.8202
0.005,0.015,0,-0.6,-1.7,0.3,0,2018,5,11,13,59,25.793,0.4881,-0.0865,0.2855,-0.8201
0.008,0.009,-0.001,-0.4,-1.6,0.4,0,2018,5,11,13,59,25.812,0.4881,-0.0865,0.2857,-0.8201
0.012,0.015,-0.007,-0.4,-1.4,0.3,0,2018,5,11,13,59,25.816,0.4882,-0.0865,0.286,-0.8199
0.01,0.01,0,-0.6,-0.7,0.4,0,2018,5,11,13,59,25.838,0.4883,-0.0864,0.2862,-0.8198
0.007,0.009,0.007,-0.8,-0.6,0.4,0,2018,5,11,13,59,25.858,0.4884,-0.0863,0.2862,-0.8197
0.009,0.027,-0.001,-0.6,-1.2,0.4,0,2018,5,11,13,59,25.896,0.4883,-0.0862,0.2862,-0.8198
0.01,0.014,0.015,-1,-2.4,0.7,0,2018,5,11,13,59,25.916,0.4884,-0.0861,0.2865,-0.8196
0.005,0.011,0.007,-2.1,-3.8,0.5,0,2018,5,11,13,59,25.92,0.4883,-0.0861,0.2869,-0.8196
0.009,0.008,-0.008,-2.5,-2.4,0.3,0,2018,5,11,13,59,25.934,0.4881,-0.086,0.2875,-0.8195
0.009,0.006,-0.007,-1.6,-0.2,0.6,0,2018,5,11,13,59,25.975,0.4882,-0.0857,0.288,-0.8193
0.013,0.016,-0.006,-1.5,0.5,0.3,0,2018,5,11,13,59,25.994,0.4882,-0.0854,0.2881,-0.8193
0.014,0.019,-0.01,-0.9,-0.2,0.5,0,2018,5,11,13,59,25.998,0.4883,-0.085,0.2881,-0.8192
0.008,0.014,0,-0.2,-1.2,0.4,0,2018,5,11,13,59,26.018,0.4883,-0.0849,0.2881,-0.8192
0.011,0.008,0.005,-0.2,-1.2,0.5,0,2018,5,11,13,59,26.038,0.4885,-0.0849,0.2883,-0.8191
0.009,0.003,0.002,-0.3,-0.1,0.7,1023,2018,5,11,13,59,26.077,0.4887,-0.0848,0.2886,-0.8189
0.01,0.022,-0.003,-0.3,0.1,0.5,1023,2018,5,11,13,59,26.098,0.4888,-0.0847,0.2886,-0.8188
0.01,0.023,-0.003,-0.2,-1.2,0.6,1023,2018,5,11,13,59,26.102,0.4889,-0.0846,0.2886,-0.8188
0.012,0.013,-0.003,-0.1,-2,0.8,1023,2018,5,11,13,59,26.121,0.489,-0.0846,0.2888,-0.8186
0.009,0.004,-0.003,0,-0.1,0.8,1023,2018,5,11,13,59,26.141,0.4889,-0.0847,0.2889,-0.8186
0.005,0.008,-0.002,-0.4,2.2,0.7,1023,2018,5,11,13,59,26.16,0.4889,-0.0846,0.2887,-0.8187
0.007,0.028,-0.01,-0.7,2.2,0.7,1023,2018,5,11,13,59,26.179,0.4888,-0.0843,0.2881,-0.819
0.01,0.017,0,-0.1,-0.1,1.1,1023,2018,5,11,13,59,26.218,0.4888,-0.0841,0.2878,-0.8191
0.011,0.003,-0.003,-0.7,-0.1,1.1,1023,2018,5,11,13,59,26.222,0.4887,-0.0841,0.2877,-0.8192
0.006,0.004,-0.008,0,1.1,0.7,1023,2018,5,11,13,59,26.238,0.4887,-0.084,0.2877,-0.8193
0.004,0.029,0.003,0.5,0.4,0.7,1023,2018,5,11,13,59,26.274,0.4888,-0.0839,0.2874,-0.8193
0.009,0.027,0.003,-0.3,-2.6,0.7,1023,2018,5,11,13,59,26.294,0.4889,-0.084,0.2874,-0.8193
0.01,-0.001,0,-0.3,-1.8,0.9,1023,2018,5,11,13,59,26.299,0.4888,-0.0841,0.2877,-0.8192
0.009,0.005,-0.002,0.2,0.1,0.8,0,2018,5,11,13,59,26.34,0.4887,-0.0842,0.2877,-0.8193
0.008,0.027,-0.002,0.3,-0.2,0.8,0,2018,5,11,13,59,26.358,0.4887,-0.0842,0.2875,-0.8193
0.014,0.023,0.002,0,-2.7,1,0,2018,5,11,13,59,26.363,0.4886,-0.0843,0.2874,-0.8194
0.009,0.002,-0.003,-0.1,-2.3,1,0,2018,5,11,13,59,26.381,0.4884,-0.0845,0.2876,-0.8194
0.009,0.005,-0.001,0,-0.7,0.7,0,2018,5,11,13,59,26.401,0.4885,-0.0846,0.2879,-0.8193
0.01,0.015,0.004,-0.2,-0.6,0.7,0,2018,5,11,13,59,26.438,0.4885,-0.0845,0.2879,-0.8192
0.004,0.018,-0.006,-0.1,-0.9,0.7,0,2018,5,11,13,59,26.459,0.4884,-0.0845,0.2878,-0.8193
0.01,0.011,0.003,-0.4,-0.7,0.7,0,2018,5,11,13,59,26.463,0.4885,-0.0845,0.2879,-0.8192
0.006,0.014,-0.008,-0.8,-0.1,0.5,0,2018,5,11,13,59,26.479,0.4885,-0.0844,0.2879,-0.8193
0.014,0.015,-0.005,0,0,1,0,2018,5,11,13,59,26.498,0.4886,-0.0842,0.288,-0.8192
0.008,0.008,0.005,0,-0.4,0.9,0,2018,5,11,13,59,26.537,0.4887,-0.0842,0.288,-0.8191
0.009,0.022,-0.003,-0.7,-0.8,0.6,0,2018,5,11,13,59,26.557,0.4888,-0.0841,0.288,-0.8191
0.006,0.013,-0.006,-1,0,0.2,0,2018,5,11,13,59,26.561,0.4889,-0.084,0.2882,-0.8189
0.01,0.013,0.008,-0.9,-0.1,0.3,0,2018,5,11,13,59,26.599,0.4891,-0.0837,0.2883,-0.8189
0.011,0.022,-0.001,-0.3,-1.3,0.9,0,2018,5,11,13,59,26.619,0.4891,-0.0836,0.2883,-0.8188
0.011,0.009,-0.004,-0.3,-1.6,0.8,0,2018,5,11,13,59,26.623,0.4891,-0.0836,0.2886,-0.8187
0.009,0.011,0.005,0,-1.4,0.7,0,2018,5,11,13,59,26.646,0.4892,-0.0836,0.2888,-0.8186
0.007,0.02,-0.011,-0.7,-1.3,0.5,0,2018,5,11,13,59,26.683,0.4893,-0.0836,0.289,-0.8185
0.014,0.017,-0.007,-0.7,-0.9,1,0,2018,5,11,13,59,26.687,0.4893,-0.0835,0.2891,-0.8185
0.009,0.004,0.005,-0.3,-0.3,0.8,0,2018,5,11,13,59,26.704,0.4894,-0.0834,0.2893,-0.8183
0.011,0.011,-0.004,-0.4,0.1,0.5,0,2018,5,11,13,59,26.722,0.4895,-0.0833,0.2894,-0.8182
0.007,0.012,0.002,0.2,-0.3,0.7,0,2018,5,11,13,59,26.76,0.4898,-0.0832,0.2895,-0.8181
0.01,0.019,0.008,0.4,-1.7,0.9,0,2018,5,11,13,59,26.78,0.4898,-0.0833,0.2895,-0.8181
0.008,0.014,-0.003,0.1,-2,1,0,2018,5,11,13,59,26.783,0.4898,-0.0834,0.2896,-0.818
0.008,0.015,-0.008,-0.1,-0.9,1,0,2018,5,11,13,59,26.82,0.4897,-0.0836,0.2897,-0.818
0.009,0.012,-0.001,0,-0.2,0.7,0,2018,5,11,13,59,26.84,0.4897,-0.0836,0.2898,-0.818
0.013,0.02,0.009,-0.2,-0.7,0.7,0,2018,5,11,13,59,26.867,0.4899,-0.0835,0.2898,-0.8179
0.011,0.011,-0.006,-0.4,-1,1,1023,2018,5,11,13,59,26.881,0.4899,-0.0834,0.29,-0.8178
0.008,0.01,-0.001,0.1,-0.1,0.8,1023,2018,5,11,13,59,26.884,0.49,-0.0834,0.2901,-0.8177
0.008,0.018,-0.01,0.1,0.5,0.5,1023,2018,5,11,13,59,26.9,0.4902,-0.0833,0.2901,-0.8176
0.01,0.01,0.007,-0.2,0,0.8,1023,2018,5,11,13,59,26.936,0.4901,-0.0833,0.2898,-0.8177
0.008,0.013,-0.007,-0.9,0.6,0.7,1023,2018,5,11,13,59,26.956,0.4903,-0.0831,0.2899,-0.8177
0.01,0.009,-0.003,-0.2,1.2,0.7,1023,2018,5,11,13,59,26.963,0.4903,-0.0828,0.2898,-0.8177
0.01,0.02,-0.004,0.3,1,0.9,1023,2018,5,11,13,59,26.983,0.4903,-0.0827,0.2895,-0.8178
0.011,0.008,0.007,0.5,0.1,1.1,1023,2018,5,11,13,59,27.003,0.4903,-0.0827,0.2892,-0.8179
0.007,0.012,0,0.3,-0.1,1,1023,2018,5,11,13,59,27.044,0.4905,-0.0827,0.2891,-0.8178
0.01,0.025,-0.014,0.3,0,1,1023,2018,5,11,13,59,27.063,0.4906,-0.0827,0.2891,-0.8178
0.007,0.012,0.003,0.4,0.1,1.1,1023,2018,5,11,13,59,27.067,0.4908,-0.0827,0.2891,-0.8177
0.009,0.013,-0.001,0.2,-0.2,0.8,1023,2018,5,11,13,59,27.086,0.4909,-0.0826,0.2891,-0.8176
0.013,0.021,-0.006,0.4,-0.6,0.9,0,2018,5,11,13,59,27.123,0.491,-0.0826,0.2891,-0.8175
0.007,0.019,0.001,0,-1.2,0.8,0,2018,5,11,13,59,27.143,0.4911,-0.0826,0.2891,-0.8175
0.009,0.017,-0.007,-0.1,-1.7,0.8,0,2018,5,11,13,59,27.147,0.4913,-0.0826,0.2894,-0.8172
0.01,0.002,0.003,0.1,-0.9,1.1,0,2018,5,11,13,59,27.187,0.4914,-0.0827,0.2896,-0.8171
0.009,0.003,0.002,0.2,0.3,0.7,0,2018,5,11,13,59,27.191,0.4914,-0.0827,0.2896,-0.8171
0.008,0.023,-0.005,0,-0.1,0.8,0,2018,5,11,13,59,27.208,0.4915,-0.0827,0.2895,-0.8171
0.008,0.02,0,-0.2,-1.1,0.8,0,2018,5,11,13,59,27.226,0.4915,-0.0827,0.2893,-0.8172
0.009,0.007,0.005,-0.1,-0.1,1.1,0,2018,5,11,13,59,27.247,0.4915,-0.0827,0.2893,-0.8171
0.013,0.01,0.001,0,0.7,0.8,0,2018,5,11,13,59,27.266,0.4915,-0.0826,0.2892,-0.8172
0.008,0.025,-0.003,0.3,-0.3,1.1,0,2018,5,11,13,59,27.286,0.4915,-0.0826,0.289,-0.8172
0.008,0.011,0.007,0,-2,1,0,2018,5,11,13,59,27.324,0.4915,-0.0827,0.289,-0.8173
0.011,0.016,-0.014,-0.1,-1.9,1,0,2018,5,11,13,59,27.345,0.4913,-0.0829,0.2891,-0.8173
0.008,0.007,0,0,0,0.8,0,2018,5,11,13,59,27.35,0.4912,-0.083,0.2891,-0.8173
0.01,0.014,0.006,0,0.4,0.6,0,2018,5,11,13,59,27.369,0.491,-0.083,0.2887,-0.8176
0.011,0.026,-0.004,0,-1.5,0.8,0,2018,5,11,13,59,27.385,0.491,-0.083,0.2886,-0.8177
0.008,0.012,0.001,0,-2.5,0.9,0,2018,5,11,13,59,27.424,0.4909,-0.0831,0.2886,-0.8177
0.011,0.003,0,0,-1.5,0.8,0,2018,5,11,13,59,27.444,0.491,-0.0832,0.289,-0.8175
0.009,0.014,-0.004,-0.1,-0.4,0.8,0,2018,5,11,13,59,27.449,0.491,-0.0832,0.2891,-0.8175
0.011,0.014,-0.002,-0.2,0,0.8,0,2018,5,11,13,59,27.469,0.4909,-0.0832,0.289,-0.8175
0.009,0.018,-0.008,-0.2,-0.5,0.8,0,2018,5,11,13,59,27.488,0.4909,-0.0832,0.2889,-0.8176
0.009,0.014,0,0.3,-1,1.2,0,2018,5,11,13,59,27.508,0.4909,-0.0832,0.289,-0.8176
0.007,0.007,0.004,0,-1.1,1,0,2018,5,11,13,59,27.546,0.491,-0.0832,0.2892,-0.8174
0.009,0.01,0.001,0,-0.7,1,0,2018,5,11,13,59,27.566,0.491,-0.0833,0.2892,-0.8174
0.01,0.021,-0.009,0.1,-0.4,0.9,0,2018,5,11,13,59,27.57,0.4911,-0.0834,0.2892,-0.8174
0.01,0.01,-0.008,0.7,0,1.1,0,2018,5,11,13,59,27.592,0.4911,-0.0834,0.2891,-0.8174
0.012,0.013,0.001,1,0.8,1.5,0,2018,5,11,13,59,27.611,0.491,-0.0835,0.2888,-0.8176
0.005,0.021,0.012,1,-0.5,1.6,1023,2018,5,11,13,59,27.626,0.4911,-0.0836,0.2886,-0.8176
0.008,0.015,0,0.6,-1.9,1.5,1023,2018,5,11,13,59,27.664,0.4911,-0.0837,0.2886,-0.8175
0.005,0.009,0,0,-1.6,1,1023,2018,5,11,13,59,27.685,0.4912,-0.0839,0.289,-0.8173
0.008,0.001,-0.011,-0.4,0.8,0.2,1023,2018,5,11,13,59,27.689,0.4912,-0.0839,0.2891,-0.8173
0.009,0.009,0.002,0,2.5,0.2,1023,2018,5,11,13,59,27.709,0.4914,-0.0836,0.2889,-0.8172
0.008,0.016,0.002,-0.2,1.9,0.2,1023,2018,5,11,13,59,27.73,0.4916,-0.0833,0.2884,-0.8173
0.008,0.009,-0.005,0,2,0,1023,2018,5,11,13,59,27.75,0.4918,-0.083,0.2882,-0.8173
0.012,-0.002,-0.005,-0.2,3.6,-0.9,1023,2018,5,11,13,59,27.77,0.4922,-0.0827,0.2879,-0.8172
0.031,0.005,-0.014,-0.7,4.5,-2.6,1023,2018,5,11,13,59,27.807,0.4926,-0.082,0.2873,-0.8172
0.008,0.042,0.005,1.2,5.8,-0.3,1023,2018,5,11,13,59,27.829,0.493,-0.0813,0.2864,-0.8174
-0.068,0.034,0.009,1.3,0.7,0,1023,2018,5,11,13,59,27.834,0.4934,-0.081,0.2858,-0.8174
-0.002,0.026,0,-0.2,-1.9,1,1023,2018,5,11,13,59,27.854,0.4935,-0.0811,0.2856,-0.8174
0.019,0.001,-0.003,0,-0.9,1.2,0,2018,5,11,13,59,27.873,0.4935,-0.0811,0.2858,-0.8173
0.003,0.013,-0.013,0.4,0.7,1,0,2018,5,11,13,59,27.893,0.4934,-0.0812,0.2857,-0.8174
0.015,0.032,0,0.4,0.3,1.4,0,2018,5,11,13,59,27.913,0.4935,-0.0811,0.2855,-0.8174
0.007,0.011,0.012,0.4,-1.6,1.9,0,2018,5,11,13,59,27.929,0.4934,-0.0812,0.2854,-0.8175
0.009,0.007,-0.012,0.6,-1.9,1.2,0,2018,5,11,13,59,27.969,0.4934,-0.0814,0.2856,-0.8174
0.013,0.013,-0.009,0.9,-0.7,1.1,0,2018,5,11,13,59,27.988,0.4934,-0.0816,0.2857,-0.8174
0.01,0.008,0.002,0.9,0.3,1,0,2018,5,11,13,59,27.992,0.4935,-0.0817,0.2856,-0.8173
0.006,0.007,-0.003,0.9,1.4,0.8,0,2018,5,11,13,59,28.012,0.4935,-0.0818,0.2853,-0.8175
0.007,0.031,0.001,0.6,0.4,1,0,2018,5,11,13,59,28.034,0.4936,-0.0818,0.2848,-0.8176
0.006,0.013,0.008,0.3,-1.2,1.3,0,2018,5,11,13,59,28.053,0.4935,-0.0818,0.2846,-0.8177
0.009,0.004,0,0.1,-1.6,1.1,0,2018,5,11,13,59,28.09,0.4936,-0.0819,0.2848,-0.8175
0.011,0.01,-0.008,0.2,-0.3,1,0,2018,5,11,13,59,28.111,0.4935,-0.0821,0.2848,-0.8176
0.009,0.011,-0.004,0.4,0.6,0.9,0,2018,5,11,13,59,28.115,0.4937,-0.0821,0.2849,-0.8175
0.009,0.019,0.01,0.4,0.6,1,0,2018,5,11,13,59,28.13,0.4939,-0.082,0.2848,-0.8174
0.01,0.021,0.001,-0.2,-1.2,0.9,0,2018,5,11,13,59,28.151,0.4939,-0.0819,0.2846,-0.8174
0.008,0.011,-0.001,0.1,-1.7,1.1,0,2018,5,11,13,59,28.186,0.4939,-0.082,0.2848,-0.8174
0.011,0.005,-0.003,-0.1,-1.1,0.9,0,2018,5,11,13,59,28.207,0.4939,-0.0821,0.2851,-0.8172
0.01,0.015,-0.003,-0.2,0.3,0.5,0,2018,5,11,13,59,28.211,0.494,-0.082,0.2851,-0.8172
0.011,0.019,-0.003,0.3,0.1,0.8,0,2018,5,11,13,59,28.25,0.4942,-0.0819,0.2851,-0.8171
0.009,0.016,-0.002,0.5,-0.4,1.1,0,2018,5,11,13,59,28.27,0.4943,-0.0818,0.2851,-0.817
0.008,0.013,0.003,0,-1.2,0.8,0,2018,5,11,13,59,28.274,0.4945,-0.0818,0.2852,-0.8169
0.011,0.011,-0.006,0,-0.8,0.4,0,2018,5,11,13,59,28.295,0.4946,-0.0819,0.2855,-0.8167
0.011,0.003,-0.004,0.8,1.1,0.7,0,2018,5,11,13,59,28.313,0.4946,-0.0819,0.2853,-0.8167
0.011,0.018,0.002,1.4,1.8,0.7,0,2018,5,11,13,59,28.329,0.4948,-0.0818,0.285,-0.8167
0.005,0.008,-0.007,0.5,1.8,0.5,0,2018,5,11,13,59,28.349,0.495,-0.0818,0.2846,-0.8168
0.008,0.031,0.001,0.1,1.7,0.3,0,2018,5,11,13,59,28.385,0.4952,-0.0816,0.2841,-0.8169
0.01,0.007,0.001,0.1,-0.9,0.8,1023,2018,5,11,13,59,28.404,0.4952,-0.0815,0.284,-0.8169
0.011,0.023,-0.005,0.1,-0.5,1,1023,2018,5,11,13,59,28.412,0.4953,-0.0814,0.2841,-0.8168
0.008,0.014,0.006,0.1,0,1.2,1023,2018,5,11,13,59,28.445,0.4954,-0.0814,0.2841,-0.8167
0.009,0.006,0.007,-0.1,0,0.8,1023,2018,5,11,13,59,28.468,0.4954,-0.0813,0.284,-0.8168
0.009,0.009,-0.004,-0.6,0,0.5,1023,2018,5,11,13,59,28.473,0.4955,-0.0812,0.2841,-0.8167
0.01,0.021,0,-0.2,-0.5,0.5,1023,2018,5,11,13,59,28.512,0.4958,-0.081,0.2842,-0.8165
0.01,0.019,-0.002,-0.1,-1.6,0.8,1023,2018,5,11,13,59,28.532,0.4959,-0.081,0.2843,-0.8164
0.008,0.008,0.009,-0.1,-2.3,0.8,1023,2018,5,11,13,59,28.533,0.4957,-0.0812,0.2844,-0.8165
0.009,0.003,-0.006,0,0,0,1023,2018,5,11,13,59,28.569,0.4957,-0.0812,0.2844,-0.8165
0.009,0.016,0.007,-1,1.5,-0.2,1023,2018,5,11,13,59,28.589,0.4958,-0.081,0.2843,-0.8164
0.016,0.034,-0.011,-1,0.7,0.5,1023,2018,5,11,13,59,28.594,0.496,-0.0805,0.2841,-0.8165
0.01,0.024,0.001,0,-2,1.3,0,2018,5,11,13,59,28.629,0.4961,-0.0803,0.2842,-0.8164
0.008,0.017,0.002,-0.1,-3.4,1,0,2018,5,11,13,59,28.65,0.4962,-0.0805,0.2845,-0.8162
0.007,0.004,-0.006,-0.4,-2.2,1,0,2018,5,11,13,59,28.652,0.496,-0.0808,0.2848,-0.8162
0.01,0.013,-0.008,0.2,-0.6,1,0,2018,5,11,13,59,28.686,0.496,-0.0808,0.285,-0.8161
0.008,0.017,0.006,0.4,-1,1.3,0,2018,5,11,13,59,28.707,0.496,-0.0809,0.285,-0.8161
0.009,0.012,-0.004,-0.2,-2.4,0.9,0,2018,5,11,13,59,28.712,0.496,-0.081,0.2851,-0.816
0.01,0.008,-0.01,0,-1.3,1,0,2018,5,11,13,59,28.75,0.496,-0.0812,0.2855,-0.8159
0.01,0.012,0,-0.1,-0.1,0.8,0,2018,5,11,13,59,28.77,0.4961,-0.0812,0.2855,-0.8159
0.007,0.01,0.001,-0.2,-0.9,0.7,0,2018,5,11,13,59,28.775,0.496,-0.0811,0.2854,-0.8159
0.009,0.008,-0.006,-0.7,-1,0.7,0,2018,5,11,13,59,28.812,0.4961,-0.0811,0.2857,-0.8158
0.013,0.018,-0.023,0.1,-0.2,0.8,0,2018,5,11,13,59,28.831,0.4962,-0.081,0.2859,-0.8157
0.01,0.022,0.008,0.5,0.1,1,0,2018,5,11,13,59,28.833,0.4963,-0.081,0.2857,-0.8157
0.009,0.011,0.012,0,-2.2,1.1,0,2018,5,11,13,59,28.867,0.4963,-0.0811,0.2855,-0.8158
0.006,0.01,-0.002,-0.2,-2.5,1,0,2018,5,11,13,59,28.886,0.4961,-0.0813,0.2857,-0.8157
0.009,0.008,-0.005,-0.2,-1.5,0.5,0,2018,5,11,13,59,28.893,0.4962,-0.0814,0.2861,-0.8156
0.01,0.022,-0.004,-0.4,-0.3,0.8,0,2018,5,11,13,59,28.927,0.4961,-0.0814,0.2861,-0.8156
0.009,0.013,0.002,0,-0.9,1.3,0,2018,5,11,13,59,28.947,0.496,-0.0814,0.2859,-0.8157
0.007,0.012,-0.002,-0.1,-1.5,0.8,0,2018,5,11,13,59,28.956,0.4961,-0.0814,0.2861,-0.8156
0.009,0.01,0,-0.1,-1.3,0.7,0,2018,5,11,13,59,28.992,0.4962,-0.0814,0.2863,-0.8155
0.011,0.015,0.001,-0.1,-0.7,0.9,0,2018,5,11,13,59,29.014,0.4962,-0.0814,0.2864,-0.8155
0.011,0.016,-0.004,0.4,-1.4,1.3,0,2018,5,11,13,59,29.018,0.4963,-0.0814,0.2866,-0.8153
0.009,0.022,0,0.6,-1.9,1.5,0,2018,5,11,13,59,29.037,0.4963,-0.0816,0.2866,-0.8153
0.007,0.014,-0.008,0.4,-2.5,1.4,0,2018,5,11,13,59,29.056,0.4961,-0.0819,0.2867,-0.8153
0.008,0.011,-0.003,0.8,-2.1,1.3,0,2018,5,11,13,59,29.094,0.4959,-0.0822,0.2867,-0.8155
0.007,0.007,0.011,0.1,-2.3,1.5,0,2018,5,11,13,59,29.113,0.4958,-0.0825,0.2868,-0.8155
0.007,0.001,-0.003,0,-1.2,1.4,0,2018,5,11,13,59,29.118,0.4957,-0.0827,0.287,-0.8154
0.011,0.011,-0.018,0.4,0.2,1.1,0,2018,5,11,13,59,29.155,0.4956,-0.0828,0.287,-0.8155
0.005,0.013,0.01,1,1.2,1.4,1023,2018,5,11,13,59,29.175,0.4955,-0.0829,0.2866,-0.8156
0.007,0.018,0.007,0.3,-0.1,1,1023,2018,5,11,13,59,29.177,0.4954,-0.0829,0.2862,-0.8158
0.01,0.014,-0.002,0,-0.3,1.1,1023,2018,5,11,13,59,29.209,0.4955,-0.0829,0.2862,-0.8158
0.008,0.003,0,0,0.3,1,1023,2018,5,11,13,59,29.23,0.4954,-0.0829,0.2862,-0.8158
0.01,0.017,-0.001,0,1.1,0.8,1023,2018,5,11,13,59,29.237,0.4955,-0.0828,0.286,-0.8159
0.01,0.019,-0.002,0.1,0.2,0.8,1023,2018,5,11,13,59,29.272,0.4957,-0.0826,0.2858,-0.8159
0.006,0.015,-0.006,0.3,-0.2,1.1,1023,2018,5,11,13,59,29.292,0.4958,-0.0825,0.2858,-0.8158
0.011,0.016,-0.002,0.3,-0.8,1.3,1023,2018,5,11,13,59,29.299,0.4958,-0.0825,0.2858,-0.8158
0.011,0.014,0.001,0.3,0,1.4,1023,2018,5,11,13,59,29.335,0.4957,-0.0826,0.2857,-0.8159
0.01,0.004,-0.006,0,0.6,1.3,1023,2018,5,11,13,59,29.357,0.4958,-0.0826,0.2856,-0.8159
0.011,0.01,-0.007,0.4,1.8,1.1,1023,2018,5,11,13,59,29.361,0.4957,-0.0825,0.2854,-0.816
0.012,0.02,-0.003,0.9,2,1.3,1023,2018,5,11,13,59,29.38,0.4959,-0.0823,0.2851,-0.816
0.008,0.015,0.008,0.9,1.1,1.1,1023,2018,5,11,13,59,29.398,0.4959,-0.0823,0.2846,-0.8161
0.007,0.008,0.001,0.5,0.6,0.9,0,2018,5,11,13,59,29.433,0.4962,-0.0823,0.2845,-0.8161
0.005,0.015,-0.008,0.5,1.4,1.1,0,2018,5,11,13,59,29.452,0.4962,-0.0822,0.2843,-0.8161
0.009,0.013,-0.003,0.4,1.5,1,0,2018,5,11,13,59,29.459,0.4962,-0.0821,0.2838,-0.8163
0.01,0.015,-0.007,0.3,1.5,1,0,2018,5,11,13,59,29.493,0.4962,-0.082,0.2834,-0.8165
0.008,0.001,0.005,0.6,1,0.9,0,2018,5,11,13,59,29.514,0.4962,-0.082,0.283,-0.8166
0.008,0.011,-0.005,0.4,1.4,0.8,0,2018,5,11,13,59,29.519,0.4962,-0.0819,0.2827,-0.8167
0.008,0.029,-0.004,0.8,0.4,0.8,0,2018,5,11,13,59,29.555,0.4963,-0.0818,0.2824,-0.8167
0.008,0.021,0.008,-0.2,-1.8,1.1,0,2018,5,11,13,59,29.575,0.4965,-0.0817,0.2824,-0.8166
0.007,-0.001,0.002,-0.4,-1.3,1.1,0,2018,5,11,13,59,29.581,0.4964,-0.0818,0.2827,-0.8166
0.007,0.008,-0.011,0.1,0.4,0.6,0,2018,5,11,13,59,29.599,0.4964,-0.0818,0.2827,-0.8166
0.009,0.018,-0.003,0.3,1.4,0.5,0,2018,5,11,13,59,29.619,0.4964,-0.0818,0.2824,-0.8167
0.012,0.025,0.002,0.1,-0.4,1,0,2018,5,11,13,59,29.655,0.4963,-0.0817,0.282,-0.8169
0.013,0.014,0.002,0.3,-1.1,1.6,0,2018,5,11,13,59,29.675,0.4962,-0.0818,0.2819,-0.817
0.007,0.003,-0.005,0.8,-0.6,1.6,0,2018,5,11,13,59,29.684,0.4962,-0.0819,0.282,-0.8169
0.006,0.01,-0.002,0.4,-0.1,0.9,0,2018,5,11,13,59,29.703,0.4962,-0.0821,0.2819,-0.817
0.012,0.02,-0.006,0.8,-0.1,1.2,0,2018,5,11,13,59,29.722,0.4961,-0.0822,0.2818,-0.817
0.009,0.023,-0.003,0.8,-0.6,1.7,0,2018,5,11,13,59,29.756,0.4961,-0.0823,0.2816,-0.8171
0.009,0.023,-0.002,0.9,-1.8,1.5,0,2018,5,11,13,59,29.778,0.4961,-0.0824,0.2816,-0.8171
0.009,0.019,0,1.2,-2.1,1.9,0,2018,5,11,13,59,29.779,0.4961,-0.0826,0.2817,-0.817
0.003,0.012,0.007,0.4,-3.4,1.9,0,2018,5,11,13,59,29.812,0.4961,-0.083,0.2819,-0.8169
0.006,0.013,0,-0.6,-5.1,1,0,2018,5,11,13,59,29.832,0.4961,-0.0833,0.2825,-0.8167
0.006,-0.001,0.004,-0.7,-4,0.5,0,2018,5,11,13,59,29.843,0.496,-0.0837,0.2832,-0.8165
0.008,0,-0.008,-0.6,-1.3,0.5,0,2018,5,11,13,59,29.879,0.496,-0.0838,0.2838,-0.8162
0.008,0.011,-0.007,-0.1,1.1,0.5,0,2018,5,11,13,59,29.897,0.4962,-0.0836,0.2839,-0.8161
0.008,0.021,0.006,-0.1,0.5,0.7,0,2018,5,11,13,59,29.901,0.4963,-0.0835,0.2837,-0.8162
0.01,0.014,0.004,-0.1,-0.6,0.8,0,2018,5,11,13,59,29.936,0.4964,-0.0834,0.2836,-0.8161
0.011,0.014,-0.004,-0.6,-0.2,0.7,0,2018,5,11,13,59,29.956,0.4964,-0.0832,0.2837,-0.8161
0.014,0.008,-0.008,-0.1,0.4,0.5,0,2018,5,11,13,59,29.964,0.4963,-0.0832,0.2836,-0.8162
0.011,0.005,-0.003,0.4,0.9,0.6,1023,2018,5,11,13,59,29.981,0.4964,-0.0831,0.2834,-0.8163
0.008,0.021,-0.002,0.8,1.1,0.5,1023,2018,5,11,13,59,30.018,0.4965,-0.0831,0.2831,-0.8163
0.004,0.013,-0.005,-0.2,1,0.7,1023,2018,5,11,13,59,30.04,0.4966,-0.0829,0.2829,-0.8163
0.004,0.018,0.003,0,0.4,0.9,1023,2018,5,11,13,59,30.041,0.4967,-0.0828,0.2826,-0.8163
0.008,0.018,0.007,-0.2,-1.6,0.8,1023,2018,5,11,13,59,30.077,0.4966,-0.0828,0.2825,-0.8164
0.011,0.011,-0.005,-0.2,-1,0.6,1023,2018,5,11,13,59,30.097,0.4968,-0.0827,0.2827,-0.8162
0.01,0.009,0,0,0,0,1023,2018,5,11,13,59,30.102,0.4969,-0.0827,0.2828,-0.8162
0.012,0.031,-0.01,-0.1,-0.7,0.5,1023,2018,5,11,13,59,30.136,0.497,-0.0825,0.2829,-0.8161
0.009,0.016,-0.001,-0.2,-2.1,1,1023,2018,5,11,13,59,30.157,0.4971,-0.0825,0.283,-0.8159
0.008,0.013,-0.002,0.5,-2.4,1.3,1023,2018,5,11,13,59,30.163,0.4969,-0.0827,0.2832,-0.816
0.005,0.006,0,0,-1.8,1,1023,2018,5,11,13,59,30.198,0.4968,-0.083,0.2833,-0.816
0.014,0.003,-0.008,0.2,0.3,0.8,1023,2018,5,11,13,59,30.219,0.4969,-0.0831,0.2835,-0.8159
0.017,0.015,0.005,0.5,1.8,1.2,1023,2018,5,11,13,59,30.227,0.4969,-0.083,0.2832,-0.816
0.007,0.025,0.003,0.8,0.1,1.6,0,2018,5,11,13,59,30.262,0.497,-0.0829,0.2829,-0.8161
0.01,0.016,0.002,0.1,-1.3,1.3,0,2018,5,11,13,59,30.282,0.497,-0.083,0.2828,-0.8161
0.004,0.007,-0.005,-0.3,-0.1,0.8,0,2018,5,11,13,59,30.283,0.4971,-0.083,0.2831,-0.8159
0.008,0.025,-0.002,-0.6,0.6,0.4,0,2018,5,11,13,59,30.32,0.4971,-0.0828,0.2829,-0.816
0.012,0.032,0.007,-0.3,-1.2,1.1,0,2018,5,11,13,59,30.34,0.4972,-0.0826,0.2828,-0.816
0.009,0.013,0.004,-0.5,-3.4,1.3,0,2018,5,11,13,59,30.345,0.4971,-0.0827,0.283,-0.816
0.012,-0.006,-0.016,-0.1,-1.2,0.8,0,2018,5,11,13,59,30.381,0.497,-0.0829,0.2834,-0.8159
0.008,0.014,0,0,1.2,0.4,0,2018,5,11,13,59,30.401,0.4972,-0.0828,0.2836,-0.8157
0.01,0.029,0.01,-0.5,-0.9,0.6,0,2018,5,11,13,59,30.404,0.4974,-0.0825,0.2834,-0.8157
0.008,0.018,-0.006,-0.5,-2.7,1.2,0,2018,5,11,13,59,30.439,0.4973,-0.0825,0.2835,-0.8157
0.009,-0.003,0.002,0,-2.2,1.1,0,2018,5,11,13,59,30.461,0.4974,-0.0826,0.2841,-0.8154
0.005,0.006,-0.005,0.1,0,0.5,0,2018,5,11,13,59,30.467,0.4975,-0.0827,0.2843,-0.8152
0.009,0.026,0,-0.3,0.1,0.6,0,2018,5,11,13,59,30.502,0.4977,-0.0826,0.2842,-0.8152
0.01,0.016,0,-0.6,-1.6,0.9,0,2018,5,11,13,59,30.521,0.4976,-0.0825,0.2841,-0.8153
0.013,0.007,-0.004,-0.1,-1.6,1,0,2018,5,11,13,59,30.523,0.4975,-0.0826,0.2843,-0.8153
0.004,0.005,-0.006,0.1,-0.2,1,0,2018,5,11,13,59,30.555,0.4975,-0.0827,0.2844,-0.8152
0.011,0.017,0,-0.2,0,0.5,0,2018,5,11,13,59,30.577,0.4976,-0.0827,0.2843,-0.8152
0.011,0.016,-0.004,-0.2,-0.1,0.7,0,2018,5,11,13,59,30.587,0.4975,-0.0826,0.2841,-0.8153
0.015,0.011,0,0,-1,0.9,0,2018,5,11,13,59,30.625,0.4975,-0.0826,0.2841,-0.8154
0.012,0.021,-0.004,0.9,-1.6,1.3,0,2018,5,11,13,59,30.646,0.4974,-0.0827,0.284,-0.8154
0.004,0.018,-0.003,0.2,-2.9,1,0,2018,5,11,13,59,30.649,0.4974,-0.0829,0.2842,-0.8153
0.012,0.003,-0.005,0,-2,0.8,0,2018,5,11,13,59,30.688,0.4975,-0.0831,0.2846,-0.8151
0.009,0.01,-0.01,0.1,0,0.7,0,2018,5,11,13,59,30.707,0.4974,-0.0832,0.2846,-0.8152
0.01,0.022,0.006,0.4,-0.7,1.1,0,2018,5,11,13,59,30.709,0.4974,-0.0832,0.2844,-0.8152
0.008,0.02,0.012,-0.1,-2.2,1.3,0,2018,5,11,13,59,30.726,0.4974,-0.0833,0.2845,-0.8152
0.004,0.005,-0.008,-0.2,-2.2,0.7,0,2018,5,11,13,59,30.764,0.4973,-0.0835,0.2849,-0.8151
0.011,0.015,-0.015,-0.1,-0.5,0.7,0,2018,5,11,13,59,30.784,0.4973,-0.0835,0.2851,-0.815
0.014,0.021,0.009,0.2,-0.6,1,1023,2018,5,11,13,59,30.787,0.4973,-0.0835,0.2849,-0.8151
0.009,0.016,0,0.2,-2.3,1.3,1023,2018,5,11,13,59,30.823,0.4973,-0.0836,0.285,-0.815
0.008,0.012,-0.019,1.1,-1.3,1.4,1023,2018,5,11,13,59,30.841,0.4974,-0.0838,0.2854,-0.8148
0.01,0.021,-0.019,2,0,1.7,1023,2018,5,11,13,59,30.848,0.4976,-0.084,0.2855,-0.8147
0.011,0.016,0.024,2,-0.3,2.2,1023,2018,5,11,13,59,30.881,0.4977,-0.0843,0.2852,-0.8147
0,0.008,0.005,0.2,-2.4,1.9,1023,2018,5,11,13,59,30.902,0.4976,-0.0846,0.2853,-0.8146
0.009,0,-0.001,-0.4,-0.6,0.5,1023,2018,5,11,13,59,30.909,0.4975,-0.0848,0.2855,-0.8146
0.008,0.002,0,-1,3.3,0.2,1023,2018,5,11,13,59,30.943,0.4975,-0.0846,0.2853,-0.8147
0.008,0.021,-0.004,-2.3,4.7,-0.5,1023,2018,5,11,13,59,30.965,0.4976,-0.0838,0.2847,-0.8149
0.015,0.04,-0.029,-0.8,2.8,0.5,1023,2018,5,11,13,59,30.971,0.4979,-0.083,0.2844,-0.8149
0.008,0.021,0.032,0.3,-0.1,1.6,1023,2018,5,11,13,59,31.007,0.4979,-0.0827,0.2838,-0.8152
0.006,0.002,0.009,-0.1,-3.8,1.1,1023,2018,5,11,13,59,31.026,0.4978,-0.0829,0.284,-0.8152
0.005,0.009,-0.002,0,-3.4,0.9,1023,2018,5,11,13,59,31.028,0.4978,-0.0832,0.2845,-0.815
0.007,-0.006,-0.001,-0.7,-2.7,0.2,0,2018,5,11,13,59,31.064,0.4977,-0.0835,0.2849,-0.8149
0.014,0.02,-0.01,-0.6,-0.3,0.1,0,2018,5,11,13,59,31.083,0.4978,-0.0834,0.2852,-0.8147
0.014,0.018,0.002,0,-1.2,0.8,0,2018,5,11,13,59,31.09,0.4977,-0.0833,0.2851,-0.8148
0.012,0.022,0.003,0.4,-2.9,1.1,0,2018,5,11,13,59,31.123,0.4978,-0.0835,0.2852,-0.8147
0.005,0.001,-0.001,0.3,-2.9,1.1,0,2018,5,11,13,59,31.143,0.4979,-0.0837,0.2857,-0.8145
0.002,0.002,-0.007,0,-0.4,0.6,0,2018,5,11,13,59,31.151,0.4979,-0.0839,0.2859,-0.8143
0.006,0.01,0,0,0,0,0,2018,5,11,13,59,31.186,0.498,-0.0839,0.2858,-0.8143
0.011,0.025,0,-0.6,0,0.5,0,2018,5,11,13,59,31.207,0.4981,-0.0837,0.2857,-0.8143
0.015,0.019,-0.003,-0.2,-0.6,0.9,0,2018,5,11,13,59,31.214,0.4982,-0.0835,0.2858,-0.8142
0.013,0.014,0.001,0.1,-1.8,1,0,2018,5,11,13,59,31.231,0.4983,-0.0836,0.286,-0.8141
0.01,0.01,0.004,0.1,-1.6,0.9,0,2018,5,11,13,59,31.251,0.4985,-0.0836,0.2863,-0.8139
0.004,0.006,-0.003,0,-0.6,0.8,0,2018,5,11,13,59,31.286,0.4985,-0.0837,0.2864,-0.8138
0.005,0.021,-0.002,0,0,0.8,0,2018,5,11,13,59,31.307,0.4984,-0.0837,0.2863,-0.8139
0.014,0.014,0,-0.3,-0.3,0.8,0,2018,5,11,13,59,31.313,0.4986,-0.0836,0.2863,-0.8138
0.012,0.01,-0.003,0.3,0,0.9,0,2018,5,11,13,59,31.347,0.4986,-0.0835,0.2863,-0.8138
0.01,0.017,-0.004,0.4,0.3,0.8,0,2018,5,11,13,59,31.368,0.4985,-0.0836,0.2861,-0.8139
0.008,0.013,0.006,0.3,-0.1,0.7,0,2018,5,11,13,59,31.371,0.4986,-0.0836,0.2859,-0.814
0.005,0.014,-0.004,0,-0.4,0.8,0,2018,5,11,13,59,31.406,0.4986,-0.0836,0.2858,-0.814
0.008,0.016,-0.012,0,-0.2,0.7,0,2018,5,11,13,59,31.427,0.4986,-0.0836,0.2858,-0.814
0.007,0.017,0,0.6,-0.2,1,0,2018,5,11,13,59,31.429,0.4986,-0.0836,0.2857,-0.814
0.01,0.009,0.002,-0.1,0,0.8,0,2018,5,11,13,59,31.463,0.4987,-0.0836,0.2856,-0.814
0.013,0.014,-0.004,-0.1,0.2,0.6,0,2018,5,11,13,59,31.483,0.4985,-0.0836,0.2854,-0.8142
0.011,0.022,0,0,-0.7,1,0,2018,5,11,13,59,31.49,0.4985,-0.0835,0.2852,-0.8142
0.006,0.013,0,-0.2,-2.3,1,0,2018,5,11,13,59,31.526,0.4985,-0.0836,0.2853,-0.8143
0.007,0.011,0.001,-0.2,-1.6,0.8,0,2018,5,11,13,59,31.547,0.4983,-0.0837,0.2854,-0.8143
0.012,0.007,-0.002,0.1,-0.8,1,0,2018,5,11,13,59,31.552,0.4983,-0.0838,0.2856,-0.8142
0.011,0.016,0.001,0.3,-0.5,1.1,0,2018,5,11,13,59,31.589,0.4982,-0.0838,0.2854,-0.8143
0.012,0.008,-0.008,0.1,-0.1,0.8,1023,2018,5,11,13,59,31.608,0.4981,-0.0839,0.2853,-0.8144
0.009,0.014,0.006,0.3,0.5,0.8,1023,2018,5,11,13,59,31.614,0.4981,-0.0838,0.2852,-0.8145
0.01,0.023,0.003,0.5,-1,1.3,1023,2018,5,11,13,59,31.651,0.4982,-0.0838,0.2851,-0.8145
0.007,0.025,-0.002,-0.2,-2.3,1.2,1023,2018,5,11,13,59,31.67,0.4982,-0.0839,0.2852,-0.8144
0.003,0,-0.005,-0.2,-1.8,0.8,1023,2018,5,11,13,59,31.676,0.4982,-0.084,0.2855,-0.8143
0.007,0.008,0.004,0,-0.9,0.4,1023,2018,5,11,13,59,31.692,0.4982,-0.084,0.2856,-0.8142
0.011,0.02,-0.012,0.1,0,0.8,1023,2018,5,11,13,59,31.712,0.4984,-0.084,0.2857,-0.8141
0.011,0.02,-0.002,0.1,-0.8,1,1023,2018,5,11,13,59,31.748,0.4984,-0.0839,0.2856,-0.8142
0.01,0.013,0.002,0.3,-1,0.8,1023,2018,5,11,13,59,31.766,0.4984,-0.084,0.2856,-0.8141
0.009,0.011,0,0.2,-1.8,1.1,1023,2018,5,11,13,59,31.774,0.4983,-0.0842,0.2856,-0.8142
0.009,0.013,-0.003,0.2,-1.7,1.1,1023,2018,5,11,13,59,31.807,0.4982,-0.0844,0.2857,-0.8142
0.006,0.007,0.001,0.1,-0.2,0.9,1023,2018,5,11,13,59,31.828,0.4982,-0.0845,0.2858,-0.8142
0.009,0.017,-0.002,-0.2,0.1,0.9,1023,2018,5,11,13,59,31.834,0.4983,-0.0843,0.2858,-0.8141
0.014,0.015,0.002,0.1,-0.4,1.2,0,2018,5,11,13,59,31.873,0.4983,-0.0843,0.2858,-0.8141
0.007,0.013,0,0.1,-0.4,0.8,0,2018,5,11,13,59,31.898,0.4983,-0.0843,0.2858,-0.8141
0.012,0.023,-0.01,0,-0.6,0.7,0,2018,5,11,13,59,31.903,0.4984,-0.0843,0.2858,-0.814
0.008,0.012,0.005,0.2,-1,1.2,0,2018,5,11,13,59,31.92,0.4985,-0.0843,0.2859,-0.8139
0.008,0.01,0,0,-1,1.2,0,2018,5,11,13,59,31.956,0.4985,-0.0844,0.2858,-0.814
0.005,0.01,-0.005,-0.2,0,0.8,0,2018,5,11,13,59,31.958,0.4985,-0.0844,0.2859,-0.8139
0.012,0.013,0,0,0,0.7,0,2018,5,11,13,59,31.976,0.4985,-0.0843,0.2859,-0.8139
0.01,0.012,0.004,0.2,-0.7,1,0,2018,5,11,13,59,32.011,0.4986,-0.0842,0.2858,-0.8139
0.006,0.013,-0.003,0.1,-1,1.1,0,2018,5,11,13,59,32.03,0.4987,-0.0843,0.2859,-0.8138
0.004,0.013,-0.011,-0.1,-0.9,0.6,0,2018,5,11,13,59,32.035,0.4987,-0.0843,0.2861,-0.8137
0.01,0.012,0.006,0,0,0,0,2018,5,11,13,59,32.07,0.4989,-0.0843,0.2861,-0.8136
0.009,0.01,0.006,-0.7,-0.5,0.5,0,2018,5,11,13,59,32.09,0.499,-0.0841,0.2862,-0.8135
0.01,0.016,-0.018,-0.5,0.4,0.6,0,2018,5,11,13,59,32.098,0.4991,-0.0839,0.2864,-0.8134
0.013,0.03,-0.007,0.3,0.6,1.1,0,2018,5,11,13,59,32.134,0.4993,-0.0837,0.2863,-0.8134
0.008,0.022,0.01,0.3,-1.5,1.5,0,2018,5,11,13,59,32.154,0.4992,-0.0837,0.286,-0.8135
0.009,0.006,0.004,0.2,-2.4,1.2,0,2018,5,11,13,59,32.158,0.4993,-0.0839,0.2863,-0.8134
0.007,0.006,-0.012,0.1,-0.2,1,0,2018,5,11,13,59,32.193,0.4992,-0.0841,0.2864,-0.8133
0.008,0.012,-0.001,0.3,1.2,0.7,0,2018,5,11,13,59,32.212,0.4992,-0.0841,0.2862,-0.8134
0.012,0.022,-0.006,0.5,0,1.1,0,2018,5,11,13,59,32.214,0.4993,-0.084,0.286,-0.8134
0.006,0.012,0.002,0.5,-1.2,1.1,0,2018,5,11,13,59,32.248,0.4994,-0.0841,0.2859,-0.8134
0.006,0.006,0,0.3,-0.9,0.8,0,2018,5,11,13,59,32.267,0.4993,-0.0842,0.2859,-0.8135
0.012,0.015,0.002,0.1,-0.2,0.9,0,2018,5,11,13,59,32.276,0.4993,-0.0843,0.2859,-0.8135
0.006,0.011,0.005,0.2,-0.5,0.9,0,2018,5,11,13,59,32.313,0.4992,-0.0843,0.2857,-0.8136
0.007,0.019,0.001,-0.1,-0.4,0.7,0,2018,5,11,13,59,32.332,0.4993,-0.0843,0.2858,-0.8135
0.008,0.01,0.002,-0.4,-0.6,0.6,0,2018,5,11,13,59,32.342,0.4994,-0.0842,0.2859,-0.8134
0.01,0.017,-0.002,-0.4,-0.4,0.6,0,2018,5,11,13,59,32.359,0.4995,-0.0841,0.286,-0.8133
0.011,0.017,0,0,-0.4,1,0,2018,5,11,13,59,32.38,0.4995,-0.084,0.286,-0.8133
0.008,0.007,-0.004,0,-0.4,1.1,1023,2018,5,11,13,59,32.416,0.4996,-0.084,0.286,-0.8133
0.009,0.013,-0.006,0.6,0.2,0.9,1023,2018,5,11,13,59,32.438,0.4996,-0.084,0.286,-0.8133
0.009,0.015,0,0.3,-0.2,0.9,1023,2018,5,11,13,59,32.443,0.4996,-0.0841,0.2857,-0.8134
0.01,0.019,0,-0.2,-0.7,0.7,1023,2018,5,11,13,59,32.462,0.4997,-0.084,0.2858,-0.8133
0.007,0.009,-0.003,-0.4,-0.4,0.5,1023,2018,5,11,13,59,32.481,0.4998,-0.0839,0.286,-0.8132
0.014,0.02,-0.001,0,-0.8,0.7,1023,2018,5,11,13,59,32.519,0.4999,-0.0839,0.286,-0.8131
0.014,0.016,-0.002,0.7,-0.7,1.1,1023,2018,5,11,13,59,32.524,0.4999,-0.0839,0.286,-0.8131
0.007,0.008,-0.003,0.6,-0.6,1.4,1023,2018,5,11,13,59,32.539,0.4997,-0.0841,0.2858,-0.8132
0.007,0.014,-0.004,0.1,0.1,0.8,1023,2018,5,11,13,59,32.574,0.4998,-0.0841,0.2858,-0.8132
0.012,0.018,-0.001,0,0.3,0.8,1023,2018,5,11,13,59,32.594,0.4999,-0.0841,0.2857,-0.8132
0.013,0.019,-0.002,0.4,0.1,1.3,1023,2018,5,11,13,59,32.6,0.4999,-0.084,0.2855,-0.8132
0.007,0.01,0.006,0.3,-1,1.1,1023,2018,5,11,13,59,32.634,0.4998,-0.084,0.2854,-0.8133
0.006,0.012,-0.005,0.3,-1.4,1.1,0,2018,5,11,13,59,32.653,0.4998,-0.0842,0.2854,-0.8133
0.009,0.016,0.003,0.2,-0.6,0.8,0,2018,5,11,13,59,32.662,0.4996,-0.0844,0.2853,-0.8134
0.01,0.013,-0.001,-0.4,-0.2,0.7,0,2018,5,11,13,59,32.679,0.4997,-0.0843,0.2853,-0.8134
0.013,0.016,-0.001,-0.4,-0.7,0.9,0,2018,5,11,13,59,32.698,0.4997,-0.0842,0.2854,-0.8134
0.008,0.009,-0.001,-0.3,-1.5,0.5,0,2018,5,11,13,59,32.721,0.4996,-0.0843,0.2854,-0.8134
0.009,0.009,-0.002,0,-0.5,0.5,0,2018,5,11,13,59,32.741,0.4996,-0.0843,0.2855,-0.8134
0.004,0.011,0.007,0,0,0,0,2018,5,11,13,59,32.776,0.4996,-0.0843,0.2853,-0.8135
0.012,0.023,-0.005,-0.6,0,0.6,0,2018,5,11,13,59,32.796,0.4998,-0.0841,0.2853,-0.8134
0.012,0.01,0.003,0,-0.1,1.1,0,2018,5,11,13,59,32.802,0.4999,-0.0839,0.2854,-0.8133
0.014,0.005,-0.002,0.1,0.1,1.2,0,2018,5,11,13,59,32.837,0.4998,-0.0839,0.2852,-0.8134
0.008,0.008,-0.007,0.6,0.8,0.8,0,2018,5,11,13,59,32.858,0.4998,-0.0839,0.2852,-0.8134
0.01,0.013,0,0.4,1.3,0.9,0,2018,5,11,13,59,32.862,0.4999,-0.0838,0.2849,-0.8135
0.009,0.014,-0.003,0.8,1.1,1,0,2018,5,11,13,59,32.899,0.5,-0.0837,0.2847,-0.8135
0.01,0.02,-0.007,0.4,0.5,1,0,2018,5,11,13,59,32.901,0.5001,-0.0836,0.2844,-0.8136
0.009,0.019,0.007,0.9,-0.1,1,0,2018,5,11,13,59,32.92,0.5001,-0.0836,0.2841,-0.8136
0.009,0.011,0.003,0.3,-0.9,1.1,0,2018,5,11,13,59,32.957,0.5001,-0.0837,0.2841,-0.8136
0.007,0.011,-0.008,-0.5,-0.2,0.9,0,2018,5,11,13,59,32.978,0.5001,-0.0837,0.2841,-0.8136
0.007,0.012,-0.014,0.1,1.4,0.7,0,2018,5,11,13,59,32.984,0.5001,-0.0836,0.2841,-0.8136
0.01,0.026,0,0,0.3,0.5,0,2018,5,11,13,59,33.003,0.5001,-0.0835,0.2837,-0.8138
0.012,0.018,0.002,0,-1.4,0.8,0,2018,5,11,13,59,33.024,0.5002,-0.0834,0.2837,-0.8137
0.008,0.012,-0.002,-0.2,-1.3,1.1,0,2018,5,11,13,59,33.061,0.5001,-0.0835,0.2837,-0.8138
0.006,0.01,-0.004,-0.1,-0.2,0.7,0,2018,5,11,13,59,33.08,0.5002,-0.0835,0.284,-0.8136
0.009,0.021,-0.006,-0.1,-0.1,0.7,0,2018,5,11,13,59,33.083,0.5002,-0.0834,0.2839,-0.8137
0.013,0.014,-0.005,0.1,-0.4,1.1,0,2018,5,11,13,59,33.119,0.5003,-0.0833,0.2839,-0.8136
0.007,0.011,0.001,0.6,-0.6,1.3,0,2018,5,11,13,59,33.138,0.5004,-0.0833,0.284,-0.8135
0.011,0.017,-0.001,0.4,-0.7,1.1,0,2018,5,11,13,59,33.14,0.5003,-0.0835,0.2839,-0.8136
0.007,0.008,-0.003,0.2,-0.5,1.1,0,2018,5,11,13,59,33.173,0.5004,-0.0835,0.284,-0.8135
0.008,0.009,0.001,0.5,0.6,1.1,1023,2018,5,11,13,59,33.194,0.5003,-0.0835,0.2839,-0.8136
0.006,0.021,0,0.2,0.1,0.8,1023,2018,5,11,13,59,33.204,0.5002,-0.0836,0.2835,-0.8138
0.01,0.019,-0.004,0.1,-1.5,1.1,1023,2018,5,11,13,59,33.241,0.5003,-0.0836,0.2835,-0.8137
0.005,0.01,-0.001,0.4,-1,1.1,1023,2018,5,11,13,59,33.26,0.5003,-0.0837,0.2837,-0.8136
0.008,0.009,0.005,0.2,-0.2,0.8,1023,2018,5,11,13,59,33.265,0.5004,-0.0837,0.2837,-0.8136
0.011,0.016,0.002,0,0,0.8,1023,2018,5,11,13,59,33.3,0.5005,-0.0836,0.2838,-0.8135
0.011,0.01,0.003,-0.1,-0.6,0.8,1023,2018,5,11,13,59,33.321,0.5006,-0.0836,0.2838,-0.8135
0.009,0.014,0.001,0.1,-1,1,1023,2018,5,11,13,59,33.326,0.5005,-0.0836,0.2838,-0.8135
0.008,0.014,0,-0.2,-1.3,0.8,1023,2018,5,11,13,59,33.366,0.5006,-0.0836,0.2839,-0.8134
0.014,0.019,-0.009,-0.2,-1.5,0.6,1023,2018,5,11,13,59,33.387,0.5008,-0.0835,0.2842,-0.8132
0.011,0.013,-0.003,0.3,-1,1.2,1023,2018,5,11,13,59,33.388,0.5008,-0.0836,0.2844,-0.8131
0.006,0.011,-0.001,0.8,-0.4,1.1,0,2018,5,11,13,59,33.422,0.5009,-0.0836,0.2845,-0.813
0.009,0.021,0,0,-0.2,1.1,0,2018,5,11,13,59,33.442,0.501,-0.0836,0.2845,-0.813
0.008,0.011,0.007,0.4,0,1,0,2018,5,11,13,59,33.444,0.5011,-0.0836,0.2844,-0.8129
0.009,0.011,0.002,0.1,-0.5,1.1,0,2018,5,11,13,59,33.479,0.5012,-0.0836,0.2844,-0.8129
0.006,0.017,-0.004,0.1,0,0.9,0,2018,5,11,13,59,33.5,0.5011,-0.0837,0.2843,-0.813
0.009,0.011,-0.001,-0.2,-0.2,0.7,0,2018,5,11,13,59,33.509,0.5012,-0.0836,0.2843,-0.8129
0.01,0.021,0.003,0.1,-0.9,0.9,0,2018,5,11,13,59,33.526,0.5013,-0.0835,0.2844,-0.8128
0.011,0.012,-0.003,-0.2,-1.2,0.9,0,2018,5,11,13,59,33.547,0.5014,-0.0835,0.2845,-0.8127
0.004,0.005,-0.002,-0.4,-1.1,0.8,0,2018,5,11,13,59,33.584,0.5012,-0.0836,0.2845,-0.8128
0.009,0.016,0.001,-0.2,-0.6,0.4,0,2018,5,11,13,59,33.604,0.5013,-0.0836,0.2846,-0.8128
0.009,0.015,0.002,-0.2,-0.8,0.9,0,2018,5,11,13,59,33.605,0.5013,-0.0835,0.2846,-0.8128
0.005,0.009,-0.003,-0.3,-1,0.8,0,2018,5,11,13,59,33.639,0.5014,-0.0835,0.2849,-0.8126
0.01,0.01,-0.008,0.1,-0.5,0.7,0,2018,5,11,13,59,33.658,0.5014,-0.0835,0.285,-0.8126
0.009,0.018,0,0.4,0,0.9,0,2018,5,11,13,59,33.668,0.5014,-0.0835,0.2849,-0.8126
0.007,0.02,0.005,0.1,-0.7,1,0,2018,5,11,13,59,33.706,0.5014,-0.0835,0.2847,-0.8126
0.009,0.011,-0.003,0.2,-1.4,1,0,2018,5,11,13,59,33.725,0.5015,-0.0836,0.2849,-0.8125
0.006,0.007,-0.001,0.1,-0.6,1.1,0,2018,5,11,13,59,33.726,0.5015,-0.0837,0.285,-0.8125
0.007,0.018,-0.005,0.3,0.3,1,0,2018,5,11,13,59,33.76,0.5016,-0.0837,0.2849,-0.8125
0.007,0.018,-0.001,0.5,-0.2,1.3,0,2018,5,11,13,59,33.78,0.5015,-0.0837,0.2847,-0.8126
0.01,0.011,0,0.6,-0.8,1,0,2018,5,11,13,59,33.792,0.5015,-0.0838,0.2846,-0.8126
0.005,0.01,0,0.2,-0.2,0.8,0,2018,5,11,13,59,33.831,0.5014,-0.0839,0.2846,-0.8126
0.011,0.024,0.001,-0.1,-0.6,0.6,0,2018,5,11,13,59,33.835,0.5015,-0.0839,0.2845,-0.8126
0.008,0.014,0.001,-0.3,-1.2,0.9,0,2018,5,11,13,59,33.851,0.5015,-0.0839,0.2845,-0.8126
0.011,0.008,-0.005,-0.8,-1.6,0.8,0,2018,5,11,13,59,33.869,0.5014,-0.0839,0.2846,-0.8126
0.011,0.011,-0.004,-0.6,-0.8,0.5,0,2018,5,11,13,59,33.908,0.5014,-0.0838,0.2848,-0.8126
0.012,0.016,-0.001,0,-0.6,0.8,0,2018,5,11,13,59,33.928,0.5015,-0.0837,0.285,-0.8125
0.011,0.017,0.002,0.1,-1.5,1.1,1023,2018,5,11,13,59,33.932,0.5015,-0.0838,0.285,-0.8125
0.006,0.014,-0.004,0,-1.5,1,1023,2018,5,11,13,59,33.97,0.5015,-0.0839,0.2852,-0.8124
0.011,0.004,-0.001,0.1,-0.6,1.1,1023,2018,5,11,13,59,33.99,0.5014,-0.084,0.2851,-0.8125
0.008,0.01,0,0.7,0.6,1,1023,2018,5,11,13,59,33.994,0.5013,-0.0841,0.285,-0.8125
0.007,0.019,-0.005,0.8,0.8,1.1,1023,2018,5,11,13,59,34.014,0.5015,-0.084,0.2849,-0.8125
0.009,0.016,-0.001,0.9,0.4,1.1,1023,2018,5,11,13,59,34.034,0.5016,-0.084,0.2846,-0.8125
0.008,0.014,0.007,0.3,-0.8,1.3,1023,2018,5,11,13,59,34.073,0.5016,-0.0841,0.2844,-0.8126
0.006,0.013,-0.007,0.3,-1,1.1,1023,2018,5,11,13,59,34.092,0.5016,-0.0841,0.2845,-0.8125
0.007,0.013,0,0.1,0,0.7,1023,2018,5,11,13,59,34.096,0.5018,-0.0841,0.2847,-0.8124
0.008,0.018,-0.007,0,0,0,1023,2018,5,11,13,59,34.11,0.5019,-0.084,0.2846,-0.8124
0.012,0.015,0.002,0.1,0,0.8,1023,2018,5,11,13,59,34.15,0.5019,-0.084,0.2844,-0.8124
0.009,0.013,0.006,-0.1,-0.9,1,1023,2018,5,11,13,59,34.172,0.502,-0.0839,0.2844,-0.8123
0.01,0.019,-0.003,-0.2,-1.5,1,0,2018,5,11,13,59,34.176,0.5022,-0.0838,0.2847,-0.8122
0.009,0.004,-0.005,-0.2,-0.9,0.7,0,2018,5,11,13,59,34.194,0.5023,-0.0838,0.285,-0.812
0.009,0.012,-0.003,0.1,0,0.7,0,2018,5,11,13,59,34.213,0.5023,-0.0839,0.285,-0.812
0.008,0.022,0.001,0,-0.5,0.7,0,2018,5,11,13,59,34.232,0.5023,-0.0839,0.2848,-0.812
0.009,0.021,-0.002,0,-1.2,1.2,0,2018,5,11,13,59,34.274,0.5023,-0.0839,0.2849,-0.812
0.01,0.005,0.002,0.2,-1.3,1,0,2018,5,11,13,59,34.294,0.5022,-0.084,0.2848,-0.8121
0.01,0.01,0,0.4,-0.2,1,0,2018,5,11,13,59,34.298,0.5022,-0.0841,0.2849,-0.812
0.012,0.009,-0.003,0.6,0,1.3,0,2018,5,11,13,59,34.318,0.5024,-0.0841,0.2849,-0.8119
0.005,0.018,-0.007,0.9,0.3,1.1,0,2018,5,11,13,59,34.331,0.5025,-0.0841,0.2848,-0.8119
0.007,0.025,0.004,0.1,-1.1,1,0,2018,5,11,13,59,34.372,0.5025,-0.0842,0.2846,-0.8119
0.011,0.007,0.005,-0.1,-1.6,1,0,2018,5,11,13,59,34.391,0.5024,-0.0843,0.2847,-0.8119
0.007,0.003,0,-0.1,-0.3,0.8,0,2018,5,11,13,59,34.397,0.5025,-0.0843,0.2848,-0.8119
0.009,0.022,-0.009,0.4,0.4,0.8,0,2018,5,11,13,59,34.413,0.5024,-0.0843,0.2846,-0.812
0.007,0.02,0.002,0.1,-1.2,0.8,0,2018,5,11,13,59,34.452,0.5025,-0.0843,0.2845,-0.8119
0.01,0,0.006,-0.1,-1,1,0,2018,5,11,13,59,34.472,0.5026,-0.0843,0.2848,-0.8118
0.011,0.007,0,0.3,0.1,0.7,0,2018,5,11,13,59,34.476,0.5026,-0.0844,0.2848,-0.8118
0.006,0.023,0.002,0.2,0,0.8,0,2018,5,11,13,59,34.496,0.5027,-0.0844,0.2846,-0.8118
0.009,0.018,0.002,-0.2,-1.5,0.7,0,2018,5,11,13,59,34.516,0.5028,-0.0843,0.2847,-0.8117
0.01,0.011,-0.001,-0.5,-1,0.8,0,2018,5,11,13,59,34.535,0.5028,-0.0844,0.2848,-0.8117
0.01,0.008,-0.001,0,0.2,0.8,0,2018,5,11,13,59,34.553,0.5028,-0.0843,0.2849,-0.8116
0.011,0.015,0,0.1,0.4,1,0,2018,5,11,13,59,34.573,0.5029,-0.0842,0.2848,-0.8116
0.009,0.018,-0.006,0,0.1,0.8,0,2018,5,11,13,59,34.612,0.5031,-0.0841,0.2848,-0.8115
0.01,0.016,0,0.3,0,0.8,0,2018,5,11,13,59,34.633,0.5032,-0.0841,0.2847,-0.8115
0.008,0.018,-0.001,0,-1.2,1.1,0,2018,5,11,13,59,34.637,0.5031,-0.0841,0.2845,-0.8116
0.006,0.016,-0.004,-0.1,-1.5,0.9,0,2018,5,11,13,59,34.656,0.5032,-0.0842,0.2848,-0.8115
0.01,0.007,-0.012,0.1,-0.1,0.8,0,2018,5,11,13,59,34.676,0.5031,-0.0842,0.2848,-0.8115
0.012,0.016,0,0.4,0.3,0.8,1023,2018,5,11,13,59,34.696,0.5031,-0.0842,0.2846,-0.8116
0.008,0.019,0.003,0.1,-1,1.1,1023,2018,5,11,13,59,34.735,0.5031,-0.0842,0.2845,-0.8116
0.008,0.006,-0.005,0.1,-1.2,1.1,1023,2018,5,11,13,59,34.754,0.503,-0.0844,0.2844,-0.8117
0.009,0.01,0.004,0.1,-0.2,0.8,1023,2018,5,11,13,59,34.758,0.503,-0.0845,0.2845,-0.8116
0.011,0.021,0,0,0,0.8,1023,2018,5,11,13,59,34.779,0.5031,-0.0844,0.2844,-0.8116
0.01,0.016,0.002,-0.3,-0.6,1,1023,2018,5,11,13,59,34.8,0.5029,-0.0844,0.2842,-0.8118
0.006,0.013,-0.003,-0.4,-0.8,0.7,1023,2018,5,11,13,59,34.816,0.5028,-0.0844,0.2841,-0.8119
0.011,0.015,-0.003,-0.1,-0.7,0.6,1023,2018,5,11,13,59,34.853,0.5026,-0.0845,0.284,-0.8121
0.008,0.018,-0.002,0,-0.4,0.8,1023,2018,5,11,13,59,34.874,0.5027,-0.0845,0.2841,-0.812
0.009,0.014,-0.002,0.3,-0.6,1.1,1023,2018,5,11,13,59,34.878,0.5028,-0.0844,0.2842,-0.8119
0.008,0.011,0.001,0.4,-0.9,1,1023,2018,5,11,13,59,34.897,0.5029,-0.0844,0.2842,-0.8118
0.01,0.013,0,-0.1,-0.9,0.9,1023,2018,5,11,13,59,34.937,0.503,-0.0844,0.2843,-0.8117
