ax,ay,az,dpitch,droll,dyaw,heart,time_1,time_2,time_3,time_4,time_5,time_6,w,x,y,z
0.103,-0.045,-0.106,50.9,5.8,121.4,0,2018,5,11,13,48,31.889,0.5155,-0.3153,0.3927,-0.6932
0.103,-0.486,-0.066,47.4,-54,96.1,0,2018,5,11,13,48,31.908,0.5035,-0.3318,0.3864,-0.6978
-0.004,-0.867,0.008,38,-32,57.1,0,2018,5,11,13,48,31.913,0.4943,-0.3462,0.3838,-0.6988
-0.029,-0.848,0.012,27.2,7.6,13.3,0,2018,5,11,13,48,31.953,0.4917,-0.3532,0.38,-0.6991
0.057,-0.445,-0.034,16.7,3.4,-22.7,0,2018,5,11,13,48,31.973,0.4946,-0.3546,0.3774,-0.6979
0.193,-0.272,-0.047,8.9,-34.8,-47.1,0,2018,5,11,13,48,31.978,0.4988,-0.3551,0.3806,-0.6928
0.271,-0.266,0.032,2.8,-52.7,-66.6,1023,2018,5,11,13,48,31.996,0.5032,-0.356,0.3894,-0.6842
0.254,-0.326,0.071,-0.1,-40.3,-80.8,1023,2018,5,11,13,48,32.015,0.5091,-0.3552,0.3995,-0.6744
0.155,-0.152,0.093,-1.9,-61.6,-98.8,1023,2018,5,11,13,48,32.056,0.5168,-0.3527,0.4107,-0.663
0.23,0,0.093,-2.3,-112.5,-109.7,1023,2018,5,11,13,48,32.06,0.5232,-0.3528,0.4276,-0.6471
0.325,-0.115,0.13,3.3,-121.4,-118.1,1023,2018,5,11,13,48,32.077,0.5283,-0.3554,0.4483,-0.6273
0.283,-0.199,0.13,12.3,-88.8,-127.9,1023,2018,5,11,13,48,32.113,0.5356,-0.3562,0.4665,-0.607
0.232,-0.203,0.113,19.2,-64.3,-137.9,1023,2018,5,11,13,48,32.134,0.5463,-0.3538,0.4808,-0.5874
0.214,-0.085,0.138,23.4,-82.1,-150.6,1023,2018,5,11,13,48,32.138,0.5583,-0.3505,0.4949,-0.5659
0.269,-0.012,0.143,26.4,-115.5,-161.3,1023,2018,5,11,13,48,32.156,0.5696,-0.349,0.5116,-0.5403
0.262,-0.106,0.184,30.7,-117.9,-170,0,2018,5,11,13,48,32.177,0.58,-0.3487,0.5299,-0.5109
0.215,-0.158,0.175,34.2,-70.4,-177.7,0,2018,5,11,13,48,32.195,0.5924,-0.3449,0.5454,-0.4822
0.152,-0.009,0.112,38.5,-18.7,-182.8,0,2018,5,11,13,48,32.218,0.6084,-0.3346,0.5556,-0.4572
0.075,0.175,0.137,38.3,-27.4,-190.7,0,2018,5,11,13,48,32.238,0.6255,-0.3215,0.564,-0.4326
0.037,0.184,0.145,38.3,-81.1,-198.5,0,2018,5,11,13,48,32.258,0.6405,-0.311,0.5743,-0.4037
-0.013,0.234,0.15,40.5,-85.1,-192.4,0,2018,5,11,13,48,32.278,0.653,-0.3039,0.5864,-0.3704
-0.03,0.088,0.082,44.1,-20.4,-183.6,0,2018,5,11,13,48,32.316,0.6662,-0.2934,0.5946,-0.341
-0.103,0.395,0.172,38.7,56.1,-174.7,0,2018,5,11,13,48,32.335,0.6822,-0.2743,0.5972,-0.3201
-0.182,0.722,0.235,27.3,53.7,-158.3,0,2018,5,11,13,48,32.339,0.6976,-0.2514,0.5975,-0.3049
-0.146,0.718,0.287,10.4,17.6,-131.6,0,2018,5,11,13,48,32.357,0.7085,-0.233,0.5995,-0.29
-0.124,0.565,0.236,-5.8,15.9,-103.5,0,2018,5,11,13,48,32.393,0.715,-0.2192,0.6033,-0.2767
-0.104,0.572,0.185,-18.8,44.2,-77.2,0,2018,5,11,13,48,32.413,0.7189,-0.2054,0.6069,-0.2691
-0.072,0.669,0.109,-27.4,69.2,-50,0,2018,5,11,13,48,32.417,0.7214,-0.1902,0.6094,-0.2682
-0.026,0.698,0.044,-31.6,63.7,-23.3,0,2018,5,11,13,48,32.438,0.7221,-0.1762,0.611,-0.2721
0.004,0.64,0.013,-31.5,32.2,0.1,0,2018,5,11,13,48,32.458,0.7207,-0.1675,0.613,-0.2768
0.009,0.525,0.006,-29.8,9.2,19.6,0,2018,5,11,13,48,32.496,0.7174,-0.1649,0.6157,-0.2809
0.044,0.465,-0.022,-26.3,15.8,37.2,0,2018,5,11,13,48,32.517,0.7132,-0.1653,0.6178,-0.2865
0.086,0.469,-0.06,-19.5,33.3,52.8,0,2018,5,11,13,48,32.522,0.7091,-0.1659,0.6181,-0.2955
0.128,0.406,-0.123,-9.8,40.4,64.9,0,2018,5,11,13,48,32.539,0.7055,-0.1668,0.6161,-0.3076
0.163,0.349,-0.109,0.9,30,69.2,0,2018,5,11,13,48,32.556,0.7024,-0.1694,0.6127,-0.3199
0.15,0.324,0.022,6.4,13.8,71.1,0,2018,5,11,13,48,32.576,0.6995,-0.1746,0.6088,-0.3306
0.145,0.28,0.135,5.3,18.1,72.6,0,2018,5,11,13,48,32.615,0.6964,-0.1809,0.6051,-0.3406
0.186,0.299,0.134,4.6,52,75.9,0,2018,5,11,13,48,32.634,0.6935,-0.1849,0.6001,-0.353
0.22,0.425,0.128,6.7,95.3,83.9,0,2018,5,11,13,48,32.638,0.6915,-0.1845,0.5921,-0.3702
0.186,0.403,0.115,8.9,123.9,95.2,0,2018,5,11,13,48,32.677,0.6899,-0.1806,0.5807,-0.3926
0.155,0.447,0.168,8.4,104.2,99.3,1023,2018,5,11,13,48,32.698,0.6875,-0.1768,0.5683,-0.4158
0.135,0.4,0.222,3.6,64.5,104.2,1023,2018,5,11,13,48,32.703,0.6831,-0.1775,0.5583,-0.4359
0.177,0.279,0.188,0.9,61.3,108.7,1023,2018,5,11,13,48,32.72,0.6768,-0.1809,0.5502,-0.4542
0.232,0.307,0.023,8.8,85.1,114.2,1023,2018,5,11,13,48,32.758,0.6705,-0.1832,0.5402,-0.4741
0.236,0.4,-0.004,19.7,110.8,121.3,1023,2018,5,11,13,48,32.777,0.6651,-0.1838,0.5262,-0.4968
0.192,0.426,0.071,26.7,95.3,127.5,1023,2018,5,11,13,48,32.781,0.6596,-0.1846,0.5098,-0.5204
0.164,0.386,0.091,28.8,33.7,132.2,1023,2018,5,11,13,48,32.82,0.6521,-0.1914,0.4964,-0.5399
0.175,0.205,0.094,27.7,5.8,132.7,1023,2018,5,11,13,48,32.839,0.6423,-0.204,0.4874,-0.555
0.211,0.08,0,28.3,59,136.7,1023,2018,5,11,13,48,32.844,0.6324,-0.2149,0.4766,-0.5714
0.261,0.085,-0.055,34.7,138.5,138,0,2018,5,11,13,48,32.86,0.6249,-0.218,0.4574,-0.5938
0.213,0.306,0.06,40.8,126,131.1,0,2018,5,11,13,48,32.897,0.619,-0.2172,0.4332,-0.6179
0.146,-0.001,0.128,37.2,56,122.6,0,2018,5,11,13,48,32.918,0.6113,-0.2214,0.4144,-0.6367
0.114,-0.192,0.118,29.7,41.5,108.8,0,2018,5,11,13,48,32.922,0.6027,-0.2283,0.4015,-0.6506
0.15,-0.297,-0.011,23.5,66.2,93.6,0,2018,5,11,13,48,32.942,0.595,-0.2326,0.389,-0.6636
0.16,-0.184,-0.036,22.5,82,76.4,0,2018,5,11,13,48,32.962,0.5898,-0.233,0.3741,-0.6766
0.151,0.007,0.085,18.3,45.8,61.1,0,2018,5,11,13,48,32.981,0.5858,-0.2325,0.3612,-0.6871
0.223,-0.038,0.032,13.7,-26,46.4,0,2018,5,11,13,48,33,0.5807,-0.2369,0.3564,-0.6924
0.232,0,-0.006,9.4,-74.4,39.2,0,2018,5,11,13,48,33.033,0.574,-0.2466,0.3602,-0.6927
0.133,-0.261,-0.065,6.5,-79.2,26.6,0,2018,5,11,13,48,33.052,0.5669,-0.2577,0.3678,-0.6905
0.107,-0.311,-0.011,4,-42.3,10.8,0,2018,5,11,13,48,33.057,0.5621,-0.2656,0.3741,-0.688
0.222,-0.199,-0.023,3.3,-1.5,-2.8,0,2018,5,11,13,48,33.093,0.5611,-0.268,0.3757,-0.6871
0.277,0.04,-0.004,3.2,-16.9,-12.4,0,2018,5,11,13,48,33.114,0.5621,-0.2684,0.3765,-0.6856
0.297,0.073,0.005,1.8,-40.9,-17.2,0,2018,5,11,13,48,33.119,0.5626,-0.2709,0.3808,-0.6818
0.271,0.123,-0.001,1.2,-47.9,-18,0,2018,5,11,13,48,33.153,0.5627,-0.2743,0.3868,-0.677
0.283,0.287,0.041,-0.2,-59.6,-15.7,0,2018,5,11,13,48,33.175,0.5623,-0.2782,0.3936,-0.6718
0.274,0.244,0.081,-6.6,-110.3,-11.6,0,2018,5,11,13,48,33.182,0.5595,-0.2852,0.4044,-0.6648
0.284,0.216,0.076,-10.2,-129.5,-6.6,0,2018,5,11,13,48,33.22,0.5536,-0.2957,0.4201,-0.6553
0.272,0.193,0.063,-14.8,-115.7,0.3,0,2018,5,11,13,48,33.241,0.5465,-0.3059,0.4356,-0.6464
0.316,0.282,0.07,-15.8,-101.3,7.7,0,2018,5,11,13,48,33.245,0.5391,-0.3145,0.4486,-0.6396
0.291,0.298,0.051,-16.4,-82.9,19.1,0,2018,5,11,13,48,33.26,0.531,-0.3225,0.4599,-0.6343
0.329,0.396,0.052,-14.5,-81.1,31.1,0,2018,5,11,13,48,33.28,0.5225,-0.3303,0.4686,-0.631
0.232,0.208,0.171,-21,-93.7,39.3,0,2018,5,11,13,48,33.299,0.5119,-0.3393,0.4778,-0.628
0.248,0.03,0.074,-22.9,-73.3,46.1,0,2018,5,11,13,48,33.335,0.5001,-0.3481,0.4868,-0.6258
0.239,0.048,0.062,-21.3,-43.2,51.7,0,2018,5,11,13,48,33.354,0.4894,-0.3547,0.4916,-0.6268
0.272,-0.092,0.053,-20.5,-29.7,48,0,2018,5,11,13,48,33.359,0.4797,-0.3599,0.4944,-0.6291
0.307,-0.043,0.013,-15,4.5,45.8,1023,2018,5,11,13,48,33.393,0.4723,-0.3628,0.4941,-0.6332
0.289,-0.097,-0.012,-10,0.6,41.1,1023,2018,5,11,13,48,33.413,0.4665,-0.3649,0.4921,-0.6378
0.318,-0.111,0.051,-7.3,10.5,35.9,1023,2018,5,11,13,48,33.421,0.4617,-0.3669,0.4899,-0.6419
0.368,0,-0.048,-4.2,11.7,34.1,1023,2018,5,11,13,48,33.456,0.4581,-0.3682,0.4868,-0.6461
0.421,0.062,-0.068,1.7,7.5,33.5,1023,2018,5,11,13,48,33.478,0.4547,-0.3701,0.4837,-0.6496
0.417,-0.098,-0.115,10.5,11.7,30.5,1023,2018,5,11,13,48,33.485,0.4521,-0.373,0.4802,-0.6524
0.366,-0.261,-0.059,15.9,37.8,20.5,1023,2018,5,11,13,48,33.524,0.4519,-0.3748,0.4747,-0.6556
0.397,-0.1,0.051,14.5,67,13.2,1023,2018,5,11,13,48,33.528,0.455,-0.3735,0.466,-0.6604
0.375,-0.01,0.014,12.7,57.3,5,1023,2018,5,11,13,48,33.542,0.4592,-0.3706,0.4568,-0.6655
0.39,-0.084,0.03,11.7,33.2,-7.1,0,2018,5,11,13,48,33.575,0.4631,-0.3684,0.4507,-0.6682
0.402,-0.128,0.104,7.6,42,-12.1,0,2018,5,11,13,48,33.596,0.4673,-0.3659,0.4466,-0.6694
0.405,-0.021,0.106,2.6,56.1,-16,0,2018,5,11,13,48,33.603,0.4726,-0.3612,0.4412,-0.6718
0.394,0.02,0.105,-2.2,65.2,-18.2,0,2018,5,11,13,48,33.638,0.4784,-0.3549,0.4351,-0.675
0.391,0.162,0.155,-7.4,61.9,-17.8,0,2018,5,11,13,48,33.658,0.4843,-0.3473,0.4288,-0.6788
0.436,-0.021,0.117,-9.6,71.7,-7.3,0,2018,5,11,13,48,33.666,0.4888,-0.3401,0.4231,-0.6827
0.395,0.226,0.075,-7.8,85.1,-5.7,0,2018,5,11,13,48,33.7,0.4938,-0.3315,0.4146,-0.6886
0.464,0.252,-0.073,-1.6,93.9,5,0,2018,5,11,13,48,33.722,0.4985,-0.3231,0.404,-0.6955
0.404,0.147,0.04,3.1,99.9,10.5,0,2018,5,11,13,48,33.726,0.503,-0.3153,0.3915,-0.7029
0.36,0.257,0.108,2.9,73.5,14.6,0,2018,5,11,13,48,33.745,0.5065,-0.3087,0.3796,-0.7099
0.411,0.286,0.023,5.6,28.9,22.5,0,2018,5,11,13,48,33.765,0.5072,-0.3059,0.3718,-0.7147
0.418,0.287,-0.001,8.6,1.8,36.4,0,2018,5,11,13,48,33.785,0.5046,-0.3076,0.3682,-0.7177
0.417,0.257,-0.05,11.6,-14.6,48.9,0,2018,5,11,13,48,33.825,0.4995,-0.3124,0.3659,-0.7203
0.39,0.211,-0.002,14,-9.9,65.5,0,2018,5,11,13,48,33.829,0.4923,-0.3189,0.3633,-0.7237
0.265,0.043,0.021,14.9,2.2,79.1,0,2018,5,11,13,48,33.845,0.4837,-0.3256,0.3584,-0.729
0.125,-0.013,0.019,15.9,8,79.8,0,2018,5,11,13,48,33.881,0.4748,-0.332,0.352,-0.7351
0.114,0.141,-0.139,21.9,4.1,79.1,0,2018,5,11,13,48,33.9,0.4665,-0.3381,0.3456,-0.7406
-0.019,-0.162,-0.083,24.4,3.1,68.6,0,2018,5,11,13,48,33.907,0.4583,-0.3457,0.3396,-0.7449
-0.127,-0.354,0.017,20.6,-2,42,0,2018,5,11,13,48,33.941,0.452,-0.3529,0.3351,-0.7475
-0.132,-0.484,0.026,12.8,1.1,10.5,0,2018,5,11,13,48,33.962,0.4491,-0.3575,0.3329,-0.748
-0.179,-0.482,-0.014,5.8,9.3,-28.2,0,2018,5,11,13,48,33.964,0.4513,-0.3576,0.332,-0.747
-0.048,-0.146,-0.198,2.2,-4.3,-56.2,0,2018,5,11,13,48,33.999,0.4575,-0.3553,0.3341,-0.7434
0.137,-0.228,-0.128,0.9,-4.5,-75.3,0,2018,5,11,13,48,34.02,0.4658,-0.3521,0.339,-0.7375
0.271,-0.083,0.015,0,11.8,-81.7,0,2018,5,11,13,48,34.022,0.4764,-0.347,0.3432,-0.7312
0.394,0.054,0.067,0,16,-77.8,0,2018,5,11,13,48,34.058,0.4874,-0.3408,0.3461,-0.7254
0.466,0.127,0.065,2,12.1,-70.5,0,2018,5,11,13,48,34.077,0.4995,-0.3347,0.3492,-0.7186
0.536,0.244,0.089,6.2,20.5,-58,1023,2018,5,11,13,48,34.087,0.5118,-0.3287,0.3511,-0.7117
0.536,0.349,0.187,7.3,16.3,-43.5,1023,2018,5,11,13,48,34.121,0.5224,-0.3238,0.3516,-0.706
0.515,0.371,0.22,4.7,10.1,-25.7,1023,2018,5,11,13,48,34.143,0.5306,-0.3203,0.352,-0.7012
0.486,0.391,0.204,1.2,5.1,-7.2,1023,2018,5,11,13,48,34.147,0.5362,-0.3178,0.3523,-0.698
0.448,0.413,0.166,-1.2,0.9,11.4,1023,2018,5,11,13,48,34.186,0.5385,-0.3167,0.3526,-0.6965
0.385,0.365,0.1,-1.3,0.7,29.1,1023,2018,5,11,13,48,34.205,0.5383,-0.3166,0.3522,-0.6969
0.287,0.305,0.101,-1.2,-15.7,41.7,1023,2018,5,11,13,48,34.208,0.5362,-0.3182,0.3516,-0.6981
0.214,0.227,0.078,-4.5,-62,47.1,1023,2018,5,11,13,48,34.242,0.5309,-0.3233,0.3547,-0.6983
0.162,0.085,0.023,-9.3,-104.1,47.2,1023,2018,5,11,13,48,34.264,0.5223,-0.3324,0.3639,-0.6958
0.101,-0.233,0,-13.1,-91.6,42.1,0,2018,5,11,13,48,34.266,0.5126,-0.3423,0.3755,-0.692
0.057,-0.413,-0.182,-9.1,-43.8,21.1,0,2018,5,11,13,48,34.3,0.5064,-0.348,0.3831,-0.6896
0.018,-0.321,-0.181,-1,-47.6,-13.4,0,2018,5,11,13,48,34.319,0.5055,-0.3505,0.3888,-0.6858
0.107,-0.237,-0.117,5.8,-67.8,-39.1,0,2018,5,11,13,48,34.328,0.5074,-0.3536,0.3979,-0.6775
0.274,-0.26,-0.108,13.6,-62.6,-56.6,0,2018,5,11,13,48,34.365,0.512,-0.3566,0.4084,-0.6661
0.348,-0.184,-0.037,18.3,-32.9,-64.4,0,2018,5,11,13,48,34.386,0.5192,-0.3579,0.417,-0.6544
0.348,0.05,0.027,19.7,-2.8,-62.5,0,2018,5,11,13,48,34.388,0.5289,-0.3562,0.4213,-0.6448
0.375,0.157,0.079,18.1,-0.8,-59.4,0,2018,5,11,13,48,34.424,0.5393,-0.3532,0.4237,-0.6362
0.386,0.21,0.159,14.5,-7.4,-52.8,0,2018,5,11,13,48,34.444,0.5484,-0.3507,0.4266,-0.6277
0.387,0.167,0.224,10.1,8.1,-44.3,0,2018,5,11,13,48,34.447,0.5565,-0.3479,0.429,-0.6205
0.342,0.256,0.217,5.8,33.1,-32.6,0,2018,5,11,13,48,34.467,0.5644,-0.3432,0.4285,-0.6164
0.305,0.278,0.159,2.2,46.2,-19.5,0,2018,5,11,13,48,34.486,0.5717,-0.3371,0.4257,-0.6149
0.265,0.306,0.214,-3.2,51.6,-7.4,0,2018,5,11,13,48,34.523,0.5777,-0.3304,0.4214,-0.6159
0.219,0.354,0.142,-6.7,32.9,3.8,0,2018,5,11,13,48,34.543,0.5819,-0.3245,0.4176,-0.6176
0.259,0.383,-0.004,-1.6,-7.7,14.6,0,2018,5,11,13,48,34.549,0.583,-0.3228,0.4167,-0.6181
0.197,0.157,-0.039,8.4,-34.8,21.2,0,2018,5,11,13,48,34.582,0.5815,-0.3265,0.4182,-0.6166
0.066,0.008,-0.015,15.9,-50.2,17.9,0,2018,5,11,13,48,34.602,0.5793,-0.3333,0.4208,-0.6133
-0.112,-0.405,0.001,23.2,-27.4,3.9,0,2018,5,11,13,48,34.61,0.5778,-0.3413,0.4228,-0.6089
-0.124,-0.498,-0.008,30.3,4,-29.2,0,2018,5,11,13,48,34.645,0.5823,-0.3435,0.422,-0.6039
-0.071,-0.328,-0.048,39.3,-7.4,-64.6,0,2018,5,11,13,48,34.665,0.5915,-0.343,0.4214,-0.5955
-0.029,-0.163,-0.077,48.7,-76.5,-94.3,0,2018,5,11,13,48,34.667,0.6014,-0.3464,0.4262,-0.5801
0.146,0.057,-0.231,64.2,-123.1,-99.6,0,2018,5,11,13,48,34.703,0.6098,-0.356,0.4373,-0.5568
0.269,-0.041,-0.197,77.9,-103.2,-95.8,0,2018,5,11,13,48,34.725,0.6184,-0.3674,0.4471,-0.5314
0.275,0.088,0.007,78.6,-51.2,-86.8,0,2018,5,11,13,48,34.731,0.6292,-0.3752,0.4515,-0.5092
0.314,0.268,0.105,72,-22.4,-77.5,0,2018,5,11,13,48,34.764,0.6411,-0.3787,0.4516,-0.4914
0.372,0.536,0.237,61.7,-0.6,-55.6,0,2018,5,11,13,48,34.784,0.6522,-0.3798,0.4495,-0.4776
0.454,0.848,0.327,47.9,-0.1,-24.1,1023,2018,5,11,13,48,34.79,0.6608,-0.3806,0.446,-0.4684
0.508,0.901,0.381,38.7,-5.5,13.6,1023,2018,5,11,13,48,34.823,0.6653,-0.3837,0.4418,-0.4634
0.493,0.773,0.47,30.9,20.4,51.3,1023,2018,5,11,13,48,34.843,0.6666,-0.3881,0.4352,-0.4642
0.458,0.564,0.448,19,69.4,82,1023,2018,5,11,13,48,34.851,0.6672,-0.3893,0.424,-0.4726
0.446,0.521,0.375,11.5,109.6,104.8,1023,2018,5,11,13,48,34.886,0.6679,-0.3859,0.4082,-0.488
0.422,0.396,0.41,6.3,105.6,116,1023,2018,5,11,13,48,34.904,0.6675,-0.3809,0.3901,-0.5071
0.384,0.198,0.455,-1.6,59,115.5,1023,2018,5,11,13,48,34.913,0.6639,-0.3784,0.3747,-0.5248
0.284,-0.151,0.468,-13.2,5.5,101.7,1023,2018,5,11,13,48,34.93,0.6564,-0.3807,0.3657,-0.5388
0.213,-0.432,0.338,-30.1,-26.6,75.6,0,2018,5,11,13,48,34.949,0.6467,-0.3852,0.3639,-0.5484
0.21,-0.645,0.193,-38.7,-42.5,38.3,0,2018,5,11,13,48,34.985,0.6377,-0.3887,0.3676,-0.5539
0.227,-0.505,0.197,-45.4,-83.8,-5,0,2018,5,11,13,48,35.006,0.6304,-0.3919,0.3774,-0.5535
0.325,-0.326,0.122,-52.9,-124.3,-36.1,0,2018,5,11,13,48,35.012,0.6225,-0.397,0.3951,-0.5464
0.464,-0.282,0.01,-49.7,-97.9,-51.5,0,2018,5,11,13,48,35.046,0.6158,-0.401,0.415,-0.5362
0.484,-0.127,-0.005,-39.1,-34.8,-56.3,0,2018,5,11,13,48,35.067,0.614,-0.3995,0.4299,-0.5277
0.468,0.136,0.046,-26.6,14.2,-52.9,0,2018,5,11,13,48,35.072,0.6172,-0.3925,0.4379,-0.5226
0.448,0.289,0.133,-16.8,28,-43.6,0,2018,5,11,13,48,35.105,0.6226,-0.3838,0.4414,-0.5197
0.437,0.324,0.184,-10.2,25.4,-34.1,0,2018,5,11,13,48,35.124,0.6276,-0.3764,0.4432,-0.5174
0.436,0.296,0.172,-3.1,38.5,-21.3,0,2018,5,11,13,48,35.131,0.6324,-0.37,0.4432,-0.5163
0.437,0.33,0.119,2.9,64.3,-7.2,0,2018,5,11,13,48,35.165,0.6379,-0.3628,0.4397,-0.5177
0.413,0.469,0.146,5.7,75.2,8.8,0,2018,5,11,13,48,35.184,0.6437,-0.3547,0.4327,-0.5219
0.424,0.524,0.12,7.8,70.1,29.5,0,2018,5,11,13,48,35.191,0.6479,-0.3482,0.4242,-0.5281
0.428,0.526,0.132,9.8,53.9,48.6,0,2018,5,11,13,48,35.224,0.6494,-0.3444,0.4151,-0.5358
0.393,0.462,0.11,13,31.1,68.2,0,2018,5,11,13,48,35.246,0.648,-0.3446,0.4066,-0.5439
0.343,0.457,0.109,14.2,4.4,86.5,0,2018,5,11,13,48,35.255,0.6436,-0.3488,0.3987,-0.5521
0.299,0.423,0.117,13.2,-28.4,103.8,0,2018,5,11,13,48,35.293,0.6354,-0.3577,0.3928,-0.5602
0.286,0.268,0.033,11.7,-44.4,119.1,0,2018,5,11,13,48,35.314,0.6236,-0.3705,0.3885,-0.5681
0.183,0,0.029,12.5,-18.2,127.7,0,2018,5,11,13,48,35.317,0.6107,-0.3833,0.3826,-0.5776
0.102,-0.034,0.067,13.1,35.4,130,0,2018,5,11,13,48,35.354,0.5997,-0.3917,0.3716,-0.5904
0.11,0.156,-0.008,14.7,24.3,128.6,0,2018,5,11,13,48,35.357,0.5902,-0.3978,0.3564,-0.6052
0.056,0.038,0.056,13.4,-35.5,118,0,2018,5,11,13,48,35.372,0.5779,-0.4077,0.3461,-0.6163
0.047,-0.001,0.095,2.4,-90.7,105,0,2018,5,11,13,48,35.407,0.5617,-0.4221,0.3433,-0.6231
0.13,-0.237,-0.057,-2.5,-90.9,98,0,2018,5,11,13,48,35.428,0.5437,-0.4375,0.3461,-0.6269
0.127,-0.291,-0.058,-1.9,-26.1,89.4,0,2018,5,11,13,48,35.435,0.5293,-0.4484,0.3459,-0.6317
0.147,-0.088,0.005,1.2,12.6,79.9,0,2018,5,11,13,48,35.467,0.5206,-0.4531,0.3394,-0.6389
0.164,-0.086,0.02,3.1,-7.4,66.8,1023,2018,5,11,13,48,35.487,0.5139,-0.457,0.3332,-0.6449
0.195,-0.154,0.019,4.7,-27.5,54.8,1023,2018,5,11,13,48,35.495,0.5066,-0.4623,0.3304,-0.6483
0.238,-0.151,0.016,7.6,-35.9,46.7,1023,2018,5,11,13,48,35.528,0.4994,-0.4685,0.3297,-0.6498
0.283,-0.178,0.03,11.1,-40.6,40,1023,2018,5,11,13,48,35.55,0.4923,-0.4754,0.33,-0.6501
0.322,-0.24,0.095,13.6,-15.6,36,1023,2018,5,11,13,48,35.557,0.4868,-0.4814,0.3294,-0.6501
0.343,-0.161,0.147,12.8,18.5,34.7,1023,2018,5,11,13,48,35.593,0.4845,-0.4844,0.325,-0.6518
0.34,-0.104,0.149,12.3,25.5,34.4,1023,2018,5,11,13,48,35.612,0.4838,-0.4856,0.3184,-0.6547
0.318,-0.131,0.097,13.8,22.3,34.5,1023,2018,5,11,13,48,35.614,0.4831,-0.4868,0.3117,-0.6575
0.318,-0.123,0.13,13.2,15.9,34.8,1023,2018,5,11,13,48,35.646,0.4818,-0.4886,0.3057,-0.66
0.297,-0.128,0.257,6.9,18.2,35.2,0,2018,5,11,13,48,35.668,0.4802,-0.4901,0.3,-0.6626
0.29,-0.136,0.235,1.2,16.7,35.3,0,2018,5,11,13,48,35.673,0.4783,-0.4907,0.2948,-0.6659
0.296,-0.148,0.176,0.5,15.3,35.5,0,2018,5,11,13,48,35.708,0.4759,-0.4911,0.29,-0.6693
0.288,-0.101,0.183,-1.2,15,36.2,0,2018,5,11,13,48,35.728,0.4737,-0.4914,0.2853,-0.6727
0.261,-0.093,0.158,-3.9,10.5,37,0,2018,5,11,13,48,35.736,0.4707,-0.4918,0.281,-0.6764
0.237,-0.029,0.132,-7.1,4.7,38.2,0,2018,5,11,13,48,35.774,0.4673,-0.4921,0.2774,-0.68
0.234,-0.134,0.153,-9,8,38,0,2018,5,11,13,48,35.795,0.4632,-0.4923,0.2744,-0.6838
0.195,-0.127,0.184,-9.1,-1.4,30.7,0,2018,5,11,13,48,35.801,0.4597,-0.4923,0.2718,-0.6872
0.144,-0.219,0.065,-6.2,-13.5,15.3,0,2018,5,11,13,48,35.838,0.4565,-0.4929,0.2716,-0.689
0.189,-0.184,0.038,-0.1,-17.4,-1.3,0,2018,5,11,13,48,35.841,0.4548,-0.4939,0.2736,-0.6886
0.189,-0.209,0.11,5.3,-1.8,-16,0,2018,5,11,13,48,35.858,0.4557,-0.4945,0.2755,-0.6869
0.228,-0.22,0.064,9.8,9.7,-28.7,0,2018,5,11,13,48,35.893,0.4597,-0.4938,0.2763,-0.6844
0.258,-0.178,0.068,14.6,18.5,-33.9,0,2018,5,11,13,48,35.913,0.4656,-0.4924,0.2765,-0.6813
0.302,-0.098,0.08,17.1,17.6,-31.6,0,2018,5,11,13,48,35.916,0.4722,-0.4911,0.276,-0.6778
0.31,-0.071,0.134,15.1,9,-27.1,0,2018,5,11,13,48,35.951,0.4781,-0.4903,0.2757,-0.6744
0.311,-0.054,0.188,10.6,-1.9,-22.2,0,2018,5,11,13,48,35.971,0.482,-0.4903,0.2765,-0.6712
0.306,-0.109,0.216,5.3,-5.6,-19.7,0,2018,5,11,13,48,35.976,0.4847,-0.4905,0.2783,-0.6684
0.321,-0.095,0.215,2,5.2,-16.8,0,2018,5,11,13,48,36.009,0.4875,-0.4899,0.2799,-0.6662
0.303,0.014,0.223,0.4,7.2,-9,0,2018,5,11,13,48,36.03,0.49,-0.4886,0.2798,-0.6653
0.269,-0.085,0.165,1.1,-0.2,-7.3,0,2018,5,11,13,48,36.04,0.4914,-0.488,0.2804,-0.6645
0.297,-0.113,0.075,4.8,14.2,-6.3,0,2018,5,11,13,48,36.058,0.4933,-0.4874,0.2802,-0.6636
0.314,-0.085,0.063,8.1,29.2,-7.1,0,2018,5,11,13,48,36.079,0.4967,-0.4857,0.2775,-0.6634
0.317,-0.066,0.058,10.9,37.8,-5.5,0,2018,5,11,13,48,36.116,0.5012,-0.4835,0.2735,-0.6634
0.31,-0.083,0.146,9.6,45.4,-5.2,0,2018,5,11,13,48,36.135,0.5063,-0.4806,0.2681,-0.6638
0.322,-0.025,0.218,4.3,27,-5.5,0,2018,5,11,13,48,36.141,0.5107,-0.4777,0.2636,-0.6643
0.338,-0.022,0.192,-0.7,-1.4,-1.7,0,2018,5,11,13,48,36.159,0.5124,-0.4766,0.2627,-0.6642
0.371,-0.056,0.124,-1.3,-12.6,2.1,0,2018,5,11,13,48,36.179,0.5119,-0.4771,0.2638,-0.6638
0.355,-0.115,0.108,-1.4,-15.1,3.7,1023,2018,5,11,13,48,36.213,0.5105,-0.4783,0.2655,-0.6633
0.33,-0.176,0.158,-3.5,-8.4,2.2,1023,2018,5,11,13,48,36.234,0.5093,-0.4791,0.2669,-0.663
0.314,-0.155,0.164,-8.7,-6.3,1.9,1023,2018,5,11,13,48,36.239,0.5084,-0.479,0.2681,-0.6633
0.33,-0.109,0.1,-10.9,-18.3,2.6,1023,2018,5,11,13,48,36.274,0.507,-0.4788,0.2703,-0.6636
0.327,-0.105,0.067,-9.3,-36.3,1.6,1023,2018,5,11,13,48,36.294,0.5043,-0.4801,0.2743,-0.6632
0.304,-0.119,0.015,-4.6,-42.6,-0.4,1023,2018,5,11,13,48,36.295,0.5006,-0.4829,0.2798,-0.6616
0.27,-0.15,0.047,1.2,-22.3,-3.3,1023,2018,5,11,13,48,36.328,0.4982,-0.4854,0.284,-0.6598
0.258,-0.121,0.082,6.4,-0.3,-6.6,1023,2018,5,11,13,48,36.348,0.4985,-0.4864,0.2853,-0.6583
0.244,-0.105,0.107,10.9,7.5,-10.9,1023,2018,5,11,13,48,36.36,0.5007,-0.4864,0.2848,-0.6568
0.23,-0.064,0.114,14.9,6.2,-16,0,2018,5,11,13,48,36.396,0.5039,-0.4865,0.2841,-0.6546
0.275,-0.044,0.064,21,7,-17.7,0,2018,5,11,13,48,36.418,0.5076,-0.487,0.2835,-0.6516
0.276,-0.087,0.071,26.6,21.4,-19.4,0,2018,5,11,13,48,36.423,0.5124,-0.4875,0.2815,-0.6483
0.246,-0.078,0.115,30,39.5,-21.7,0,2018,5,11,13,48,36.461,0.5191,-0.4868,0.2772,-0.6454
0.195,-0.025,0.194,29,41,-25.7,0,2018,5,11,13,48,36.482,0.527,-0.4851,0.2719,-0.6425
0.129,-0.06,0.147,27.6,24.7,-35.5,0,2018,5,11,13,48,36.486,0.5347,-0.4837,0.2682,-0.6388
0.123,-0.108,0.072,29.7,9.4,-49.8,0,2018,5,11,13,48,36.504,0.5424,-0.4832,0.2675,-0.6329
0.078,-0.198,0.089,33.2,12.1,-70.5,0,2018,5,11,13,48,36.525,0.5514,-0.4829,0.2686,-0.6248
-0.02,-0.262,0.149,34.4,20.8,-96.9,0,2018,5,11,13,48,36.54,0.5636,-0.4812,0.2702,-0.6146
-0.098,-0.172,0.137,33.5,20.6,-120.1,0,2018,5,11,13,48,36.576,0.578,-0.4783,0.2723,-0.6023
-0.164,-0.135,0.089,31.2,-1.2,-143.9,0,2018,5,11,13,48,36.595,0.5931,-0.4756,0.2773,-0.5874
-0.21,-0.098,0.045,30.1,-12.4,-160.5,0,2018,5,11,13,48,36.6,0.6078,-0.4739,0.2857,-0.5694
-0.204,0.006,0.046,29.8,-3.8,-167.5,0,2018,5,11,13,48,36.637,0.6238,-0.4706,0.2956,-0.5494
-0.164,0.108,0.088,26.4,4.7,-165.7,0,2018,5,11,13,48,36.657,0.6412,-0.4643,0.306,-0.5286
-0.115,0.19,0.088,21.2,5.1,-155.7,0,2018,5,11,13,48,36.662,0.6576,-0.457,0.3158,-0.5086
-0.047,0.267,0.119,12.9,4.5,-139.1,0,2018,5,11,13,48,36.701,0.6719,-0.4496,0.3251,-0.4904
0.05,0.383,0.079,4.9,0.3,-113.8,0,2018,5,11,13,48,36.722,0.6833,-0.4428,0.3338,-0.4749
0.174,0.506,0.036,2.7,-4,-84.2,0,2018,5,11,13,48,36.726,0.6915,-0.4373,0.3411,-0.4626
0.321,0.621,-0.017,10.3,-25.2,-48.5,0,2018,5,11,13,48,36.742,0.6962,-0.4354,0.3465,-0.4533
0.457,0.689,-0.042,31.8,-57.6,-11.4,0,2018,5,11,13,48,36.776,0.6968,-0.4402,0.3495,-0.4454
0.552,0.663,0.104,55.7,-82.7,26.8,0,2018,5,11,13,48,36.796,0.6934,-0.4528,0.349,-0.4382
0.594,0.504,0.323,71.7,-65.5,63.5,0,2018,5,11,13,48,36.8,0.6878,-0.4699,0.3434,-0.4336
0.617,0.432,0.474,75.9,-12.8,95.7,0,2018,5,11,13,48,36.835,0.6829,-0.485,0.3308,-0.4346
0.628,0.418,0.437,78.7,39,120.5,0,2018,5,11,13,48,36.856,0.6803,-0.4949,0.3108,-0.4421
0.545,0.409,0.49,76.9,9.1,131.9,0,2018,5,11,13,48,36.861,0.6772,-0.504,0.288,-0.452
0.387,0.047,0.676,60.3,-84,123.5,0,2018,5,11,13,48,36.897,0.667,-0.5202,0.2711,-0.4592
0.319,-0.381,0.685,31.5,-155.7,104.6,0,2018,5,11,13,48,36.918,0.648,-0.5439,0.2657,-0.4621
0.303,-0.802,0.616,8.9,-113.5,75.7,1023,2018,5,11,13,48,36.925,0.6278,-0.5654,0.2664,-0.4637
0.391,-0.638,0.491,-3.8,-28.7,46.6,1023,2018,5,11,13,48,36.96,0.6163,-0.5756,0.2657,-0.467
0.474,-0.513,0.475,-11.8,7.5,18.5,1023,2018,5,11,13,48,36.981,0.6128,-0.577,0.2638,-0.471
0.506,-0.349,0.527,-22.2,3.3,-0.8,1023,2018,5,11,13,48,36.982,0.612,-0.5752,0.2643,-0.4739
0.532,-0.205,0.46,-31,-12.1,-12.7,1023,2018,5,11,13,48,37.017,0.6107,-0.5732,0.2683,-0.4758
0.544,-0.145,0.368,-33.5,-26.9,-21.2,1023,2018,5,11,13,48,37.039,0.6085,-0.5718,0.2752,-0.4763
0.556,-0.094,0.395,-32.7,-32.6,-25.7,1023,2018,5,11,13,48,37.043,0.6058,-0.5711,0.2837,-0.4756
0.542,-0.055,0.392,-32.1,-29.5,-26.4,1023,2018,5,11,13,48,37.076,0.6032,-0.5705,0.2924,-0.4743
0.493,0.001,0.424,-34.6,-16.8,-24.3,1023,2018,5,11,13,48,37.096,0.6012,-0.5688,0.3003,-0.4739
0.48,0.022,0.347,-36.6,-11.5,-21.5,0,2018,5,11,13,48,37.106,0.5997,-0.5662,0.3075,-0.4744
0.504,0.069,0.348,-37.2,-12.5,-17.4,0,2018,5,11,13,48,37.141,0.5981,-0.5632,0.314,-0.4756
0.453,0.071,0.401,-41,-37.9,-13.9,0,2018,5,11,13,48,37.159,0.5947,-0.5618,0.3217,-0.4765
0.417,0.023,0.369,-44.1,-52.7,-9.3,0,2018,5,11,13,48,37.166,0.5888,-0.5624,0.3312,-0.4767
0.415,0.021,0.284,-43.6,-51.2,-3.1,0,2018,5,11,13,48,37.202,0.5817,-0.5637,0.3408,-0.4771
0.402,0.089,0.21,-40.1,-43.5,6.4,0,2018,5,11,13,48,37.222,0.5744,-0.5651,0.3487,-0.4785
0.366,0.074,0.194,-40.3,-24.3,20.9,0,2018,5,11,13,48,37.229,0.5673,-0.5661,0.3543,-0.4817
0.3,0.097,0.208,-41.6,50.6,54,0,2018,5,11,13,48,37.244,0.5588,-0.5608,0.3531,-0.4984
0.258,0.156,0.186,-39.5,59.5,67.8,0,2018,5,11,13,48,37.282,0.5569,-0.5551,0.3458,-0.5118
0.174,0.149,0.149,-40.6,27.3,79.2,0,2018,5,11,13,48,37.302,0.5524,-0.5515,0.3384,-0.5253
0.134,0.048,0.148,-43.8,-2.2,88.3,0,2018,5,11,13,48,37.306,0.5432,-0.5515,0.3335,-0.5379
0.109,0.029,0.164,-46.6,5.1,97.3,0,2018,5,11,13,48,37.348,0.532,-0.5526,0.329,-0.5506
0.113,0.029,0.137,-50.6,30.8,104.9,0,2018,5,11,13,48,37.368,0.5214,-0.5518,0.3219,-0.5656
0.095,0.061,0.112,-52.1,42.6,111.1,0,2018,5,11,13,48,37.372,0.5116,-0.5491,0.3124,-0.5822
0.067,0.035,0.106,-52.1,49.8,119.6,0,2018,5,11,13,48,37.408,0.5015,-0.5458,0.3012,-0.5998
0.06,0.008,0.069,-52,55.1,124.8,0,2018,5,11,13,48,37.428,0.4903,-0.5422,0.287,-0.6189
0.051,-0.033,0.003,-49.1,48.9,124.3,0,2018,5,11,13,48,37.432,0.4782,-0.5391,0.2726,-0.6373
0.026,-0.06,0.013,-46.5,40.4,121.6,0,2018,5,11,13,48,37.444,0.4654,-0.5366,0.2589,-0.6544
0.075,-0.116,0,-42.1,38.5,117.3,0,2018,5,11,13,48,37.477,0.4525,-0.5345,0.2461,-0.6699
0.105,-0.214,0.008,-37.6,49,110.7,0,2018,5,11,13,48,37.499,0.4413,-0.5313,0.2333,-0.6844
0.112,-0.276,0.005,-31.5,42.9,96.9,0,2018,5,11,13,48,37.507,0.4319,-0.5276,0.2204,-0.6974
0.112,-0.227,0.012,-26.4,-12.8,73.5,0,2018,5,11,13,48,37.54,0.422,-0.5258,0.2124,-0.7072
0.147,-0.284,-0.05,-19.4,-87.1,44.4,0,2018,5,11,13,48,37.561,0.4092,-0.529,0.2155,-0.7114
0.187,-0.479,-0.089,-9.1,-110.2,11.4,0,2018,5,11,13,48,37.567,0.3956,-0.5356,0.227,-0.7106
0.219,-0.599,-0.158,11.2,-71,-21.3,0,2018,5,11,13,48,37.603,0.3874,-0.5418,0.2392,-0.7063
0.19,-0.659,-0.067,34.3,-17.1,-57.8,0,2018,5,11,13,48,37.624,0.3895,-0.5457,0.2462,-0.6998
0.152,-0.44,0.006,57,-17.5,-95.3,1023,2018,5,11,13,48,37.629,0.3998,-0.5488,0.2521,-0.6894
0.069,-0.456,0.048,76.1,-32.8,-128.9,1023,2018,5,11,13,48,37.667,0.4137,-0.5536,0.2614,-0.6737
0.016,-0.402,0.07,88.3,-42.6,-157.4,1023,2018,5,11,13,48,37.685,0.4305,-0.5594,0.274,-0.6531
0.014,-0.471,0.048,96.5,-10.2,-169.1,1023,2018,5,11,13,48,37.687,0.4508,-0.5639,0.2863,-0.6298
0.033,-0.531,0.036,99.1,40.3,-178,1023,2018,5,11,13,48,37.72,0.4764,-0.5643,0.2939,-0.6067
0.015,-0.263,0.155,95.4,84.6,-182.2,1023,2018,5,11,13,48,37.739,0.5068,-0.5594,0.2964,-0.5849
0.002,0,0.281,86.6,84.2,-182.6,1023,2018,5,11,13,48,37.749,0.5386,-0.551,0.2971,-0.5638
0.028,0.077,0.302,76.1,82.8,-176.3,1023,2018,5,11,13,48,37.782,0.568,-0.5416,0.2988,-0.5428
0.138,0.12,0.306,68.7,129.8,-160.4,1023,2018,5,11,13,48,37.803,0.5973,-0.5289,0.2976,-0.5242
0.138,0.135,0.259,61.2,193.7,-145.2,0,2018,5,11,13,48,37.808,0.6293,-0.5093,0.2898,-0.5103
0.154,0.346,0.263,52.2,237.3,-129.4,0,2018,5,11,13,48,37.848,0.6632,-0.4827,0.2759,-0.5007
0.198,0.645,0.253,40.3,220,-109.2,0,2018,5,11,13,48,37.867,0.6951,-0.4533,0.26,-0.4936
0.296,0.767,0.223,30.3,163.5,-84.2,0,2018,5,11,13,48,37.87,0.7198,-0.4282,0.2469,-0.4872
0.368,0.736,0.164,28.3,106.1,-57.5,0,2018,5,11,13,48,37.907,0.7369,-0.4107,0.2373,-0.4815
0.364,0.634,0.213,30.2,62.8,-32.7,0,2018,5,11,13,48,37.928,0.7477,-0.4007,0.2298,-0.4768
0.368,0.799,0.316,27.8,38.6,0,0,2018,5,11,13,48,37.933,0.754,-0.3957,0.223,-0.4744
0.281,0.831,0.36,19.5,12.2,33.2,0,2018,5,11,13,48,37.95,0.7553,-0.395,0.2167,-0.4758
0.373,0.714,0.16,19.2,11.1,64.4,0,2018,5,11,13,48,37.971,0.7525,-0.3972,0.2104,-0.4811
0.331,0.59,0.068,30.7,37.4,93.8,0,2018,5,11,13,48,37.993,0.7486,-0.3986,0.1995,-0.4907
0.174,0.608,0.19,37.6,33.9,120.3,0,2018,5,11,13,48,38.012,0.7432,-0.3999,0.1839,-0.5036
0.079,0.231,0.411,22.8,27,133.9,0,2018,5,11,13,48,38.035,0.7347,-0.4032,0.1688,-0.5187
0.126,0.331,0.471,14,33.9,139.3,0,2018,5,11,13,48,38.053,0.7254,-0.4041,0.1536,-0.5355
0.115,0.228,0.393,6.2,17.9,149.6,0,2018,5,11,13,48,38.092,0.7139,-0.4052,0.1397,-0.5536
0.158,0.156,0.295,6.4,3.4,151.6,0,2018,5,11,13,48,38.11,0.7002,-0.4079,0.1273,-0.5718
0.07,0.145,0.29,2.7,-11.3,153.5,0,2018,5,11,13,48,38.113,0.6849,-0.4118,0.1162,-0.5897
0.051,0.038,0.347,-4.9,-12.1,154.9,0,2018,5,11,13,48,38.149,0.6678,-0.4163,0.1068,-0.6076
0.124,-0.16,0.329,-13.9,12.4,155.3,0,2018,5,11,13,48,38.151,0.6508,-0.4181,0.0968,-0.6262
0.175,-0.219,0.242,-14.1,51.5,151.1,0,2018,5,11,13,48,38.17,0.6361,-0.4151,0.0838,-0.6449
0.159,-0.242,0.268,-10.7,65.7,141.7,0,2018,5,11,13,48,38.208,0.6239,-0.4087,0.0676,-0.6626
0.221,-0.293,0.271,-9.3,68.5,126.1,0,2018,5,11,13,48,38.229,0.613,-0.4016,0.0515,-0.6783
0.278,-0.281,0.264,-9.6,66.2,114.5,0,2018,5,11,13,48,38.234,0.6034,-0.3941,0.0361,-0.6922
0.315,-0.291,0.227,-11.1,69.5,108.6,0,2018,5,11,13,48,38.253,0.5944,-0.3864,0.0215,-0.7048
0.402,-0.393,0.145,-4.8,90.1,99,0,2018,5,11,13,48,38.276,0.5868,-0.3773,0.0055,-0.7163
0.41,-0.239,0.159,3.3,87.4,94.7,0,2018,5,11,13,48,38.294,0.581,-0.3676,-0.0121,-0.726
0.403,-0.287,0.19,7.7,71.2,90.2,0,2018,5,11,13,48,38.315,0.5743,-0.36,-0.0284,-0.7346
0.362,-0.315,0.217,8.8,72.9,87.4,1023,2018,5,11,13,48,38.335,0.5674,-0.3534,-0.0438,-0.7423
0.352,-0.358,0.208,9.2,73.6,76.6,1023,2018,5,11,13,48,38.374,0.5614,-0.3464,-0.0591,-0.7491
0.309,-0.399,0.224,7.5,60.9,64.5,1023,2018,5,11,13,48,38.394,0.5562,-0.3399,-0.0732,-0.7547
0.258,-0.568,0.272,2.2,58.1,42.3,1023,2018,5,11,13,48,38.398,0.5525,-0.3344,-0.0843,-0.7587
0.218,-0.531,0.295,-4.3,65.8,13.3,1023,2018,5,11,13,48,38.416,0.5525,-0.3276,-0.0942,-0.7605
0.222,-0.442,0.319,-9.5,49.8,-23.4,1023,2018,5,11,13,48,38.452,0.5566,-0.3211,-0.1012,-0.7594
0.176,-0.362,0.331,-17.7,10.6,-58.9,1023,2018,5,11,13,48,38.473,0.5641,-0.3171,-0.1016,-0.7555
0.155,-0.344,0.293,-27.6,-26.5,-93,1023,2018,5,11,13,48,38.477,0.5738,-0.3167,-0.0939,-0.7493
0.128,-0.376,0.273,-33.7,-43.6,-126.7,1023,2018,5,11,13,48,38.497,0.5864,-0.3181,-0.08,-0.7405
0.052,-0.32,0.248,-39,-59.5,-158.4,0,2018,5,11,13,48,38.517,0.6023,-0.3207,-0.0616,-0.7283
0.035,-0.24,0.184,-40.1,-71.3,-180.3,0,2018,5,11,13,48,38.556,0.6203,-0.3243,-0.0394,-0.713
0.012,-0.237,0.161,-40.6,-53.8,-195.8,0,2018,5,11,13,48,38.577,0.6401,-0.3272,-0.0161,-0.6948
-0.034,-0.13,0.327,-45.2,-23.5,-205,0,2018,5,11,13,48,38.581,0.662,-0.3267,0.0046,-0.6744
-0.062,0.145,0.374,-55.8,-12.2,-203.9,0,2018,5,11,13,48,38.598,0.685,-0.3216,0.0238,-0.6532
-0.031,0.395,0.266,-58.1,-69.9,-206.7,0,2018,5,11,13,48,38.635,0.7054,-0.3186,0.0465,-0.6313
-0.036,0.352,0.144,-51.2,-123,-204.9,0,2018,5,11,13,48,38.639,0.7215,-0.3229,0.0759,-0.6076
0,0.291,0.127,-36.3,-127.1,-203.3,0,2018,5,11,13,48,38.656,0.7348,-0.3314,0.1065,-0.5821
0.002,0.263,0.131,-24,-107.9,-197.3,0,2018,5,11,13,48,38.692,0.7472,-0.3394,0.1338,-0.5553
0.023,0.358,0.136,-11.8,-92.7,-185.8,0,2018,5,11,13,48,38.714,0.7589,-0.3458,0.1569,-0.5288
0.036,0.416,0.102,0.1,-64.9,-170.7,0,2018,5,11,13,48,38.719,0.7701,-0.3506,0.1756,-0.503
0.049,0.544,0.183,6.4,-56.6,-151.9,0,2018,5,11,13,48,38.737,0.7806,-0.3537,0.19,-0.4789
0.085,0.503,0.243,5.9,-58.4,-130.7,0,2018,5,11,13,48,38.777,0.7888,-0.3571,0.2025,-0.4572
0.09,0.447,0.253,4,-60.6,-112,0,2018,5,11,13,48,38.798,0.795,-0.3611,0.2142,-0.4377
0.12,0.435,0.228,4.9,-60.8,-95.5,0,2018,5,11,13,48,38.802,0.7991,-0.3658,0.2248,-0.4206
0.177,0.515,0.1,16.8,-56.1,-77.9,0,2018,5,11,13,48,38.821,0.8021,-0.3712,0.2332,-0.4053
0.224,0.611,0.092,30.3,-62,-56.5,0,2018,5,11,13,48,38.84,0.8042,-0.378,0.2383,-0.3917
0.261,0.539,0.177,41.5,-62.5,-32.1,0,2018,5,11,13,48,38.861,0.8046,-0.3874,0.2405,-0.3802
0.254,0.427,0.252,48,-48.7,-10,0,2018,5,11,13,48,38.876,0.8041,-0.3973,0.2392,-0.3717
0.274,0.494,0.247,52.2,-25.1,13.1,0,2018,5,11,13,48,38.917,0.8037,-0.4056,0.2345,-0.3667
0.31,0.49,0.179,59.7,-1.9,35.8,0,2018,5,11,13,48,38.921,0.8034,-0.412,0.2257,-0.3657
0.298,0.521,0.207,67.8,18.1,58.4,0,2018,5,11,13,48,38.936,0.8037,-0.4164,0.2127,-0.3678
0.282,0.489,0.264,71,35.1,78.2,0,2018,5,11,13,48,38.976,0.8039,-0.4193,0.196,-0.3733
0.273,0.443,0.328,69,46.9,95.2,0,2018,5,11,13,48,38.998,0.8036,-0.4209,0.1771,-0.3815
0.2,0.397,0.434,64.3,47.9,105.5,0,2018,5,11,13,48,39.002,0.8027,-0.421,0.1568,-0.392
0.118,0.326,0.561,50.1,28.3,109.9,0,2018,5,11,13,48,39.02,0.7996,-0.4223,0.1381,-0.4038
0.108,0.115,0.665,24.2,4.5,105.3,0,2018,5,11,13,48,39.055,0.7938,-0.4253,0.1238,-0.4164
0.101,-0.025,0.671,-8.1,-10.7,93.6,1023,2018,5,11,13,48,39.074,0.7865,-0.4283,0.1156,-0.4295
0.122,-0.061,0.595,-40.7,-24,79.9,1023,2018,5,11,13,48,39.079,0.7782,-0.4303,0.114,-0.4428
0.189,-0.035,0.479,-65.2,-43.2,67.1,1023,2018,5,11,13,48,39.096,0.7689,-0.432,0.1185,-0.456
0.26,-0.025,0.37,-79.2,-49.5,57.7,1023,2018,5,11,13,48,39.116,0.7588,-0.4337,0.1276,-0.4687
0.273,0.04,0.319,-87,-46.2,51.5,1023,2018,5,11,13,48,39.155,0.7485,-0.4345,0.1384,-0.4812
0.292,0.096,0.272,-92.3,-41.8,50.3,1023,2018,5,11,13,48,39.177,0.7389,-0.4336,0.15,-0.4933
0.316,0.152,0.231,-95.4,-52.7,50.5,1023,2018,5,11,13,48,39.181,0.7285,-0.4326,0.1623,-0.5056
0.353,0.128,0.202,-96,-64.3,50.8,1023,2018,5,11,13,48,39.216,0.7167,-0.433,0.176,-0.5173
0.365,0.127,0.194,-93.9,-68,53.5,1023,2018,5,11,13,48,39.236,0.704,-0.434,0.19,-0.5288
0.394,0.044,0.152,-86.3,-58.8,54.2,0,2018,5,11,13,48,39.24,0.6912,-0.4352,0.2031,-0.5398
0.383,-0.074,0.2,-77.1,-26.2,53.4,0,2018,5,11,13,48,39.281,0.68,-0.4345,0.2129,-0.5508
0.383,-0.31,0.211,-69.3,47,56.9,0,2018,5,11,13,48,39.3,0.6727,-0.4282,0.2166,-0.563
0.428,-0.244,0.012,-53.4,136.2,51.3,0,2018,5,11,13,48,39.304,0.6722,-0.4127,0.2103,-0.5774
0.443,0.038,0.014,-32.7,167.3,54.2,0,2018,5,11,13,48,39.323,0.6766,-0.3915,0.1955,-0.592
0.393,-0.016,0.097,-19.6,184,57.4,0,2018,5,11,13,48,39.34,0.6816,-0.37,0.1766,-0.6059
0.387,-0.014,0.106,-7.1,210.2,53.9,0,2018,5,11,13,48,39.378,0.688,-0.3463,0.1535,-0.6189
0.423,0.182,0.09,3.4,203.5,51.9,0,2018,5,11,13,48,39.397,0.6947,-0.3218,0.1276,-0.6304
0.397,0.275,0.125,12.9,153,54.2,0,2018,5,11,13,48,39.401,0.6988,-0.302,0.1039,-0.64
0.378,0.249,0.159,17.4,94.7,56.7,0,2018,5,11,13,48,39.439,0.6992,-0.2897,0.0855,-0.6478
0.366,0.226,0.151,20.4,59.9,61,0,2018,5,11,13,48,39.459,0.6967,-0.2833,0.0719,-0.655
0.35,0.248,0.139,24,27.6,64.8,0,2018,5,11,13,48,39.463,0.6921,-0.2811,0.0611,-0.6619
0.352,0.176,0.168,21.2,-22.6,67.7,0,2018,5,11,13,48,39.502,0.6847,-0.2842,0.0551,-0.6687
0.364,0.117,0.229,16,-56.9,72.3,0,2018,5,11,13,48,39.523,0.6748,-0.2919,0.0545,-0.6755
0.331,-0.021,0.277,7.3,-73.9,74.1,0,2018,5,11,13,48,39.527,0.6628,-0.3018,0.0574,-0.6828
0.334,-0.166,0.227,-2.8,-56,74.2,0,2018,5,11,13,48,39.545,0.6503,-0.3105,0.0614,-0.6905
0.349,-0.111,0.177,-5.4,-30.6,72.9,0,2018,5,11,13,48,39.562,0.6393,-0.3151,0.0629,-0.6985
0.334,-0.01,0.118,-2.3,-36.6,70.9,0,2018,5,11,13,48,39.601,0.6289,-0.3187,0.0633,-0.7062
0.314,0.008,0.088,4.4,-84.9,61.9,0,2018,5,11,13,48,39.605,0.6176,-0.3258,0.0668,-0.7126
0.302,-0.156,0.07,10.3,-134.8,48.1,0,2018,5,11,13,48,39.624,0.6043,-0.3394,0.077,-0.7166
0.249,-0.329,0.041,14.7,-149.8,30.3,0,2018,5,11,13,48,39.642,0.5909,-0.3567,0.0918,-0.7176
0.198,-0.411,0.082,18.4,-124.5,11.3,0,2018,5,11,13,48,39.68,0.5801,-0.3733,0.1063,-0.716
0.176,-0.486,0.065,20.3,-72.1,-9.8,0,2018,5,11,13,48,39.699,0.574,-0.3856,0.1168,-0.7128
0.124,-0.523,0.041,25,-1.6,-33.6,0,2018,5,11,13,48,39.703,0.5749,-0.3915,0.1205,-0.7082
0.098,-0.395,0.076,32.2,62.8,-63.7,0,2018,5,11,13,48,39.725,0.5843,-0.39,0.1165,-0.7019
0.041,-0.291,0.164,34.2,88.5,-92.2,0,2018,5,11,13,48,39.744,0.6001,-0.3844,0.1088,-0.6929
0,-0.175,0.272,27.2,95.5,-114.2,0,2018,5,11,13,48,39.761,0.6196,-0.3761,0.1011,-0.6814
0.002,-0.13,0.222,20.9,67.8,-138.1,1023,2018,5,11,13,48,39.799,0.6402,-0.3675,0.0968,-0.6674
-0.026,-0.05,0.178,16.5,11,-157.6,1023,2018,5,11,13,48,39.819,0.6597,-0.3634,0.0985,-0.6503
-0.03,-0.032,0.128,13.6,-31.6,-170.5,1023,2018,5,11,13,48,39.823,0.677,-0.3646,0.1072,-0.6302
-0.01,-0.025,0.08,15.4,-46.6,-178.9,1023,2018,5,11,13,48,39.842,0.693,-0.3686,0.1196,-0.6078
0.043,0.065,0.005,20.4,-58.5,-181.3,1023,2018,5,11,13,48,39.881,0.7082,-0.374,0.1332,-0.5836
0.09,0.184,-0.065,30.2,-80.2,-174.4,1023,2018,5,11,13,48,39.901,0.7214,-0.3821,0.1472,-0.5584
0.179,0.09,0.057,40,-40.6,-159.3,1023,2018,5,11,13,48,39.905,0.7336,-0.3898,0.1596,-0.5332
0.148,0.226,0.247,39.8,32.6,-145.8,1023,2018,5,11,13,48,39.925,0.7488,-0.3891,0.1647,-0.5105
0.172,0.479,0.287,28.4,51.2,-128.5,1023,2018,5,11,13,48,39.946,0.7651,-0.3817,0.1654,-0.4914
0.241,0.639,0.244,21.8,31.9,-106.3,0,2018,5,11,13,48,39.984,0.7787,-0.3744,0.1662,-0.4751
0.276,0.699,0.236,20.4,-9.7,-83.6,0,2018,5,11,13,48,40.004,0.7878,-0.3717,0.1686,-0.461
0.285,0.659,0.264,19.6,-40.2,-59.1,0,2018,5,11,13,48,40.008,0.7925,-0.3747,0.1727,-0.449
0.278,0.595,0.343,14.9,-53.8,-35.2,0,2018,5,11,13,48,40.027,0.7936,-0.3813,0.1772,-0.4397
0.265,0.47,0.425,6,-52.8,-15.4,0,2018,5,11,13,48,40.047,0.7923,-0.3886,0.1815,-0.4337
0.282,0.491,0.417,-4,-50.2,2.9,0,2018,5,11,13,48,40.063,0.7895,-0.3953,0.1857,-0.431
0.313,0.489,0.38,-10.7,-47.9,22.1,0,2018,5,11,13,48,40.085,0.785,-0.4019,0.1897,-0.4315
0.335,0.42,0.427,-19.1,-27.4,40.4,0,2018,5,11,13,48,40.104,0.7794,-0.4069,0.1924,-0.4355
0.336,0.413,0.476,-26.1,-8.7,57.2,0,2018,5,11,13,48,40.14,0.774,-0.4087,0.1933,-0.4431
0.321,0.376,0.508,-37.7,-28.1,69.9,0,2018,5,11,13,48,40.16,0.7669,-0.4104,0.1943,-0.4533
0.345,0.27,0.488,-50.4,-59.4,77.2,0,2018,5,11,13,48,40.163,0.7564,-0.415,0.1985,-0.4648
0.323,0.138,0.389,-57.9,-84.3,76.8,0,2018,5,11,13,48,40.198,0.7429,-0.4227,0.206,-0.4763
0.302,-0.161,0.298,-62.9,-90.5,66.7,0,2018,5,11,13,48,40.218,0.728,-0.4318,0.2161,-0.4865
0.338,-0.47,0.266,-64.5,-54.5,47.7,0,2018,5,11,13,48,40.229,0.7151,-0.4378,0.2262,-0.4956
0.356,-0.487,0.239,-62.6,-7.9,22.6,0,2018,5,11,13,48,40.245,0.7074,-0.4371,0.234,-0.5035
0.342,-0.315,0.246,-62.7,8.8,0.2,0,2018,5,11,13,48,40.266,0.7045,-0.4313,0.2407,-0.5094
0.329,-0.217,0.259,-66.6,5.6,-18.1,0,2018,5,11,13,48,40.287,0.7035,-0.424,0.2487,-0.5132
0.351,-0.049,0.188,-67.1,-7.2,-31.8,0,2018,5,11,13,48,40.307,0.703,-0.4166,0.259,-0.5148
0.406,0.041,0.057,-60.1,-21.2,-39.7,0,2018,5,11,13,48,40.326,0.7025,-0.4108,0.271,-0.5139
0.451,0.113,0.01,-44.5,-17.2,-42,0,2018,5,11,13,48,40.362,0.7023,-0.4066,0.2822,-0.5114
0.451,0.175,0.037,-27.3,-2.1,-40,0,2018,5,11,13,48,40.383,0.7036,-0.4026,0.2904,-0.5083
0.456,0.286,0.104,-13.5,14,-33.6,0,2018,5,11,13,48,40.387,0.7066,-0.3979,0.2948,-0.5053
0.44,0.372,0.143,-4,19,-22.7,0,2018,5,11,13,48,40.424,0.7103,-0.3933,0.2964,-0.5028
0.417,0.45,0.13,3.4,23.5,-8,0,2018,5,11,13,48,40.444,0.7132,-0.3897,0.2956,-0.5019
0.411,0.509,0.109,10.7,23.8,9.8,0,2018,5,11,13,48,40.448,0.7152,-0.3874,0.2926,-0.5027
0.385,0.469,0.118,16.8,27.3,27.7,0,2018,5,11,13,48,40.466,0.7161,-0.3863,0.2873,-0.5053
0.333,0.363,0.193,17.9,31.7,42.3,1023,2018,5,11,13,48,40.504,0.7158,-0.3859,0.28,-0.51
0.306,0.169,0.234,15,38.1,50.5,1023,2018,5,11,13,48,40.525,0.7148,-0.3853,0.2717,-0.5164
0.248,0.087,0.25,10.1,37.8,50.1,1023,2018,5,11,13,48,40.529,0.7135,-0.3837,0.2631,-0.5236
0.193,-0.204,0.304,1.8,11.5,37.5,1023,2018,5,11,13,48,40.548,0.7115,-0.3831,0.257,-0.53
0.121,-0.424,0.336,-9,-31.2,8.2,1023,2018,5,11,13,48,40.568,0.7087,-0.3849,0.2569,-0.5324
0.206,-0.368,0.295,-21.6,-71.5,-21.9,1023,2018,5,11,13,48,40.605,0.7054,-0.3894,0.2644,-0.5298
0.315,-0.343,0.181,-25.9,-91.5,-47.7,1023,2018,5,11,13,48,40.626,0.7019,-0.3957,0.2779,-0.5228
0.393,-0.254,0.075,-21.8,-78.4,-66.4,1023,2018,5,11,13,48,40.631,0.7003,-0.401,0.2928,-0.5127
0.436,-0.1,0.02,-11.7,-54,-74.9,1023,2018,5,11,13,48,40.65,0.7012,-0.4037,0.3059,-0.5015
0.395,0.016,0.064,-1.9,-20.5,-76.8,0,2018,5,11,13,48,40.671,0.7051,-0.4034,0.3153,-0.4904
0.358,0.249,0.137,4.8,1,-73.2,0,2018,5,11,13,48,40.692,0.7113,-0.4001,0.3209,-0.4804
0.35,0.355,0.177,9.2,-4.1,-65.2,0,2018,5,11,13,48,40.712,0.7176,-0.3967,0.325,-0.4711
0.339,0.369,0.221,12,-10.5,-54.6,0,2018,5,11,13,48,40.749,0.7229,-0.3949,0.3285,-0.462
0.318,0.4,0.261,12.3,-9.9,-42,0,2018,5,11,13,48,40.753,0.7269,-0.3944,0.3311,-0.4542
0.272,0.417,0.277,10.3,-9.6,-29.7,0,2018,5,11,13,48,40.771,0.7298,-0.3943,0.3329,-0.4482
0.248,0.469,0.278,5.4,-19.1,-16,0,2018,5,11,13,48,40.79,0.7312,-0.3953,0.3344,-0.444
0.24,0.409,0.325,-2.8,-39,-4.7,0,2018,5,11,13,48,40.81,0.73,-0.3985,0.3372,-0.4408
0.255,0.258,0.328,-12.4,-41.8,3.9,0,2018,5,11,13,48,40.849,0.7266,-0.4033,0.3415,-0.4388
0.252,0.129,0.293,-20.6,-26.7,9.1,0,2018,5,11,13,48,40.87,0.7229,-0.4066,0.3458,-0.4385
0.259,-0.039,0.203,-26.9,-15.6,7.4,0,2018,5,11,13,48,40.874,0.7193,-0.4079,0.35,-0.44
0.257,-0.245,0.147,-30.2,13.5,-0.1,0,2018,5,11,13,48,40.892,0.7173,-0.406,0.3534,-0.4423
0.247,-0.206,0.135,-31.1,45.4,-11.9,0,2018,5,11,13,48,40.932,0.7185,-0.3989,0.3553,-0.4452
0.269,-0.046,0.177,-34.3,47.3,-24.5,0,2018,5,11,13,48,40.951,0.7216,-0.3888,0.3569,-0.4478
0.321,0.126,0.199,-38,16.7,-32.4,0,2018,5,11,13,48,40.955,0.7241,-0.3798,0.3607,-0.4484
0.338,0.124,0.16,-41.6,-24,-38.3,0,2018,5,11,13,48,40.971,0.724,-0.3751,0.3686,-0.4461
0.343,-0.038,0.102,-44.5,-38.3,-44.5,0,2018,5,11,13,48,40.989,0.7223,-0.3734,0.3796,-0.4411
0.338,-0.132,0.063,-40.9,-4,-51.7,0,2018,5,11,13,48,41.012,0.7219,-0.3695,0.3898,-0.4362
0.328,0,0.082,-38.2,26.5,-59,0,2018,5,11,13,48,41.032,0.7244,-0.3609,0.3975,-0.4322
0.357,0.257,0.081,-33.2,33.4,-60.4,0,2018,5,11,13,48,41.051,0.7288,-0.3495,0.4033,-0.4287
0.371,0.379,0.096,-27.6,12.3,-57.1,0,2018,5,11,13,48,41.09,0.7328,-0.3398,0.4091,-0.4243
0.367,0.39,0.094,-21.3,-10.4,-50.3,0,2018,5,11,13,48,41.11,0.7349,-0.3343,0.4154,-0.4188
0.352,0.246,0.078,-14.4,-6,-43.6,0,2018,5,11,13,48,41.114,0.7364,-0.331,0.4212,-0.4129
0.349,0.255,0.088,-8.2,29.7,-35.6,0,2018,5,11,13,48,41.152,0.7394,-0.3256,0.4242,-0.4089
0.355,0.39,0.095,-1.4,65.6,-25.5,0,2018,5,11,13,48,41.17,0.744,-0.3165,0.4229,-0.4088
0.358,0.538,0.046,7,81.2,-10.6,0,2018,5,11,13,48,41.173,0.7497,-0.3055,0.4182,-0.4117
0.351,0.621,0.032,16.3,75.9,6.8,1023,2018,5,11,13,48,41.19,0.7551,-0.2957,0.411,-0.4164
0.334,0.61,0.051,22.2,62,24.3,1023,2018,5,11,13,48,41.231,0.7588,-0.2892,0.4025,-0.4224
0.314,0.537,0.09,27.5,47.9,39.6,1023,2018,5,11,13,48,41.25,0.7609,-0.286,0.3934,-0.4294
0.312,0.294,0.086,29.4,38.3,47.5,1023,2018,5,11,13,48,41.255,0.7615,-0.2857,0.3843,-0.4366
0.319,0.07,0.065,30.9,68,49.4,1023,2018,5,11,13,48,41.273,0.7623,-0.2846,0.3739,-0.4449
0.325,0.076,0.069,32.1,117.6,46,1023,2018,5,11,13,48,41.311,0.7651,-0.2776,0.36,-0.4558
0.349,0.248,0.09,33.9,141.5,42.1,1023,2018,5,11,13,48,41.331,0.77,-0.2649,0.3426,-0.4684
0.334,0.4,0.167,35,108.1,39.8,0,2018,5,11,13,48,41.335,0.7744,-0.253,0.3254,-0.4798
0.327,0.333,0.205,30.6,45.1,39.4,0,2018,5,11,13,48,41.355,0.7762,-0.2478,0.3129,-0.4879
0.348,0.199,0.166,27.6,3.7,37.4,0,2018,5,11,13,48,41.375,0.7753,-0.2495,0.3056,-0.493
0.36,0.109,0.132,27,-7.1,33.8,0,2018,5,11,13,48,41.415,0.7735,-0.2544,0.3007,-0.4964
0.369,0.105,0.132,25.8,5.9,29.3,0,2018,5,11,13,48,41.435,0.7721,-0.2585,0.2959,-0.4994
0.368,0.177,0.143,25.8,18.8,25.7,0,2018,5,11,13,48,41.439,0.7716,-0.2602,0.2899,-0.5026
0.372,0.231,0.183,25.7,11.7,24.4,0,2018,5,11,13,48,41.454,0.7716,-0.2614,0.2838,-0.5056
0.346,0.181,0.212,22.6,-7.1,22.5,0,2018,5,11,13,48,41.473,0.7708,-0.2644,0.2794,-0.5076
0.358,0.096,0.246,20.4,-19.3,17.6,0,2018,5,11,13,48,41.493,0.7694,-0.2692,0.2769,-0.5086
0.372,0.064,0.303,17.3,-19.4,10.9,0,2018,5,11,13,48,41.529,0.7681,-0.2744,0.2754,-0.5086
0.376,0.041,0.326,10.9,-13.8,3.5,0,2018,5,11,13,48,41.55,0.7673,-0.2782,0.2746,-0.5081
0.378,0.09,0.295,3.9,-10.9,-3.1,0,2018,5,11,13,48,41.554,0.7671,-0.2804,0.2748,-0.5072
0.387,0.088,0.254,-1.3,-7.2,-9,0,2018,5,11,13,48,41.578,0.7673,-0.2814,0.2758,-0.5058
0.383,0.093,0.238,-4.7,-1.2,-13.6,0,2018,5,11,13,48,41.597,0.768,-0.281,0.2772,-0.5041
0.369,0.057,0.25,-8.3,4,-19.1,0,2018,5,11,13,48,41.615,0.7694,-0.2794,0.2788,-0.5022
0.352,0.054,0.258,-12.4,8.4,-26.2,0,2018,5,11,13,48,41.636,0.7712,-0.2764,0.2807,-0.4999
0.347,0.027,0.254,-17.6,11.3,-34.4,0,2018,5,11,13,48,41.673,0.7737,-0.2722,0.2834,-0.4968
0.333,0.017,0.267,-22.7,13.3,-43.6,0,2018,5,11,13,48,41.677,0.7767,-0.2668,0.2868,-0.4931
0.33,0.028,0.248,-29,14.2,-55.6,0,2018,5,11,13,48,41.697,0.7804,-0.26,0.2915,-0.488
0.352,0.166,0.203,-33.1,7.4,-62.8,0,2018,5,11,13,48,41.715,0.7845,-0.2526,0.2975,-0.4817
0.344,0.273,0.157,-37,-12.3,-65.4,0,2018,5,11,13,48,41.735,0.788,-0.2465,0.3054,-0.4741
0.336,0.317,0.087,-39.1,-24.9,-63.2,0,2018,5,11,13,48,41.774,0.7904,-0.2426,0.3152,-0.4657
0.327,0.323,0.022,-38.2,-22.7,-58.5,0,2018,5,11,13,48,41.794,0.7922,-0.2394,0.3252,-0.4573
0.321,0.372,-0.02,-34.3,-10.3,-51.7,0,2018,5,11,13,48,41.798,0.7938,-0.2357,0.3339,-0.4502
0.307,0.415,-0.048,-28.2,5.6,-42.3,0,2018,5,11,13,48,41.817,0.7956,-0.2307,0.3402,-0.4449
0.293,0.474,-0.053,-21.4,12.8,-31.4,0,2018,5,11,13,48,41.839,0.7973,-0.2252,0.3443,-0.4414
0.287,0.54,-0.071,-13.2,10.3,-18.5,0,2018,5,11,13,48,41.855,0.7987,-0.2207,0.3468,-0.4393
0.278,0.525,-0.068,-4.5,3.1,-4.4,0,2018,5,11,13,48,41.894,0.7993,-0.2185,0.3479,-0.4385
0.283,0.507,-0.055,3.6,-4.9,9.1,0,2018,5,11,13,48,41.915,0.799,-0.2188,0.3479,-0.4388
0.276,0.371,-0.014,9.8,-7.5,19.9,1023,2018,5,11,13,48,41.919,0.798,-0.2213,0.3469,-0.4401
0.286,0.245,0.007,15.8,3.4,24.1,1023,2018,5,11,13,48,41.964,0.797,-0.2239,0.3444,-0.4426
0.299,0.221,0.049,19.5,12.6,24,1023,2018,5,11,13,48,41.966,0.7965,-0.2255,0.3403,-0.4458
0.327,0.273,0.084,21.8,3.7,23.2,1023,2018,5,11,13,48,41.975,0.7963,-0.2271,0.3357,-0.4488
0.334,0.256,0.166,21.5,-17.5,22.2,1023,2018,5,11,13,48,42.013,0.7955,-0.2312,0.3323,-0.4507
0.363,0.208,0.26,18.9,-32.7,18.3,1023,2018,5,11,13,48,42.034,0.794,-0.2378,0.3307,-0.4511
0.449,0.1,0.362,13.6,-26.6,11.1,1023,2018,5,11,13,48,42.036,0.7924,-0.2442,0.3303,-0.4507
0.492,0.077,0.426,7.8,-0.2,0.9,1023,2018,5,11,13,48,42.075,0.792,-0.2472,0.3297,-0.4503
0.478,0.099,0.483,0.6,28.8,-8.9,1023,2018,5,11,13,48,42.096,0.7932,-0.2453,0.3281,-0.4504
0.442,0.069,0.533,-8.5,37.5,-21.6,0,2018,5,11,13,48,42.098,0.7957,-0.2391,0.3264,-0.4505
0.442,-0.008,0.587,-20.9,25.6,-39.2,0,2018,5,11,13,48,42.114,0.7986,-0.2317,0.3272,-0.4487
0.411,-0.104,0.631,-36.8,-1.3,-62.5,0,2018,5,11,13,48,42.135,0.8014,-0.2247,0.3323,-0.4435
0.345,-0.244,0.55,-57.7,-25.7,-91.5,0,2018,5,11,13,48,42.172,0.8039,-0.2188,0.3432,-0.4335
0.269,-0.321,0.421,-74.8,-32.9,-122.5,0,2018,5,11,13,48,42.192,0.8066,-0.2116,0.359,-0.419
0.162,-0.038,0.322,-84.5,-83.7,-156.9,0,2018,5,11,13,48,42.197,0.8096,-0.2044,0.3793,-0.3984
0.108,0.033,0.013,-93.8,-168.1,-187,0,2018,5,11,13,48,42.236,0.8103,-0.2054,0.4071,-0.368
0.111,-0.072,-0.168,-87.7,-179.1,-209.2,0,2018,5,11,13,48,42.256,0.8091,-0.2108,0.4383,-0.3296
-0.038,0.1,-0.045,-75.4,-106.8,-218.3,0,2018,5,11,13,48,42.26,0.8087,-0.2109,0.4654,-0.291
-0.207,0.527,-0.011,-72.6,-17.8,-205.8,0,2018,5,11,13,48,42.3,0.8106,-0.1987,0.4859,-0.259
-0.22,0.813,-0.09,-70.3,39.9,-180.5,0,2018,5,11,13,48,42.319,0.8134,-0.1765,0.5019,-0.235
-0.157,0.966,-0.177,-63,59.2,-141.8,0,2018,5,11,13,48,42.323,0.8153,-0.152,0.514,-0.2187
-0.11,1.004,-0.183,-52,64.2,-93.5,0,2018,5,11,13,48,42.338,0.816,-0.1306,0.5227,-0.2091
-0.059,0.909,-0.185,-40.4,78.3,-50.7,0,2018,5,11,13,48,42.375,0.8158,-0.1125,0.5283,-0.2065
-0.013,0.916,-0.197,-29,85.8,-15.4,0,2018,5,11,13,48,42.396,0.8153,-0.0962,0.5307,-0.2105
0.022,0.928,-0.226,-15.6,51,15.4,0,2018,5,11,13,48,42.401,0.8143,-0.0854,0.5312,-0.2176
0.061,0.712,-0.288,-0.4,2.5,37,0,2018,5,11,13,48,42.422,0.8129,-0.0842,0.5309,-0.2239
0.095,0.479,-0.282,15.1,-27.2,48.3,0,2018,5,11,13,48,42.441,0.8116,-0.0907,0.5297,-0.2285
0.144,0.319,-0.242,29.1,-32.3,52.4,0,2018,5,11,13,48,42.479,0.8111,-0.1008,0.527,-0.2324
0.174,0.246,-0.147,40.4,-21.2,49.9,0,2018,5,11,13,48,42.5,0.8118,-0.1108,0.5221,-0.2366
0.202,0.292,-0.082,46.6,-16.4,43.1,0,2018,5,11,13,48,42.504,0.8135,-0.1194,0.5156,-0.2407
0.22,0.344,0.02,47,-26.8,36.4,0,2018,5,11,13,48,42.524,0.8156,-0.1279,0.509,-0.2434
0.251,0.314,0.036,45.4,-39.2,30,0,2018,5,11,13,48,42.538,0.8174,-0.1376,0.5031,-0.2441
0.257,0.232,0.117,44.6,-32.8,23.2,0,2018,5,11,13,48,42.577,0.8193,-0.1472,0.4976,-0.2435
0.257,0.244,0.193,41.8,-20.9,12.5,0,2018,5,11,13,48,42.597,0.8216,-0.1543,0.492,-0.2426
0.261,0.249,0.231,35.8,-22.3,2.1,0,2018,5,11,13,48,42.602,0.8241,-0.1594,0.4871,-0.2409
0.303,0.167,0.211,30.9,-30.7,-11.4,0,2018,5,11,13,48,42.621,0.8263,-0.1644,0.4837,-0.2368
0.262,0.111,0.292,26.1,-10.9,-22.5,1023,2018,5,11,13,48,42.66,0.8287,-0.1675,0.481,-0.2316
0.216,0.147,0.319,17.8,21,-34.1,1023,2018,5,11,13,48,42.681,0.8319,-0.165,0.4784,-0.2274
0.203,0.243,0.265,8.9,40.1,-43.6,1023,2018,5,11,13,48,42.685,0.8355,-0.1575,0.4763,-0.224
0.206,0.271,0.227,2.1,45.4,-50.1,1023,2018,5,11,13,48,42.704,0.8389,-0.1474,0.4752,-0.2205
0.168,0.318,0.227,-2.4,48,-55,1023,2018,5,11,13,48,42.724,0.842,-0.1362,0.4748,-0.2166
0.136,0.464,0.204,-6.7,47.5,-55.1,1023,2018,5,11,13,48,42.762,0.8448,-0.1243,0.4749,-0.2125
0.116,0.556,0.128,-8.4,40,-49.2,1023,2018,5,11,13,48,42.781,0.847,-0.1132,0.4756,-0.2085
0.111,0.57,0.075,-7,42.3,-36,1023,2018,5,11,13,48,42.786,0.8486,-0.1034,0.4761,-0.2057
0.096,0.614,0.07,-3.6,48.4,-21.4,1023,2018,5,11,13,48,42.804,0.85,-0.0941,0.4757,-0.2054
0.084,0.703,0.069,-0.2,42.6,-4.9,1023,2018,5,11,13,48,42.824,0.851,-0.086,0.4745,-0.2074
0.067,0.729,0.025,3.4,24.1,13.7,0,2018,5,11,13,48,42.842,0.8515,-0.0815,0.473,-0.2108
0.063,0.699,-0.026,8.7,7.3,33.2,0,2018,5,11,13,48,42.862,0.8513,-0.0815,0.4712,-0.2155
0.055,0.581,-0.056,15.3,-1,50.3,0,2018,5,11,13,48,42.9,0.8507,-0.0851,0.4687,-0.2219
0.065,0.509,-0.066,21.5,-3.3,62.8,0,2018,5,11,13,48,42.921,0.8499,-0.0909,0.4651,-0.2299
0.103,0.526,-0.139,30,-6.3,73,0,2018,5,11,13,48,42.925,0.8491,-0.0981,0.4604,-0.2392
0.095,0.57,-0.174,45.1,-14.8,83.3,0,2018,5,11,13,48,42.963,0.8486,-0.1075,0.4539,-0.2493
0.055,0.528,-0.164,61.2,-19.3,95,0,2018,5,11,13,48,42.982,0.8485,-0.1196,0.4449,-0.2601
0.04,0.49,-0.127,75.6,-10.8,105.7,0,2018,5,11,13,48,42.986,0.8487,-0.1329,0.4332,-0.2723
0.041,0.527,-0.128,88.6,-0.7,118.5,0,2018,5,11,13,48,43.005,0.8493,-0.146,0.4185,-0.2866
0.045,0.609,-0.139,100.1,-1.1,133.2,0,2018,5,11,13,48,43.045,0.8496,-0.1598,0.401,-0.3028
0.057,0.711,-0.093,108.6,-22,150.2,0,2018,5,11,13,48,43.049,0.8487,-0.1768,0.3819,-0.3201
0.029,0.603,0.069,108.3,-37.2,166.6,0,2018,5,11,13,48,43.065,0.8456,-0.198,0.3624,-0.338
0.072,0.474,0.098,102,-40.1,175.9,0,2018,5,11,13,48,43.085,0.8402,-0.2208,0.3431,-0.3571
0.162,0.415,0.061,98.4,-19.9,184.5,0,2018,5,11,13,48,43.102,0.8331,-0.2423,0.3233,-0.3776
0.189,0.376,0.131,97.7,2,188.6,0,2018,5,11,13,48,43.142,0.8254,-0.2601,0.3012,-0.4001
0.194,0.239,0.314,88.4,-2.4,183.5,0,2018,5,11,13,48,43.162,0.8168,-0.2762,0.279,-0.4225
0.193,-0.078,0.542,69.6,-2.7,166.5,0,2018,5,11,13,48,43.167,0.8071,-0.2909,0.2594,-0.4433
0.236,-0.246,0.632,46.4,11.2,141.6,0,2018,5,11,13,48,43.185,0.7976,-0.3017,0.243,-0.4621
0.297,-0.31,0.658,24.2,14.7,113.1,0,2018,5,11,13,48,43.218,0.7895,-0.3076,0.2301,-0.4785
0.309,-0.264,0.637,1.1,-4.7,83.2,0,2018,5,11,13,48,43.239,0.782,-0.3117,0.2228,-0.4914
0.347,-0.358,0.61,-18.2,-27,53.8,0,2018,5,11,13,48,43.246,0.7748,-0.3159,0.2219,-0.5005
0.368,-0.492,0.622,-34.9,-31.7,20.2,0,2018,5,11,13,48,43.263,0.7688,-0.3191,0.2261,-0.5057
0.382,-0.417,0.61,-50.9,-23.7,-14,0,2018,5,11,13,48,43.283,0.7655,-0.319,0.2344,-0.5071
0.415,-0.276,0.605,-66.6,-15,-41.8,0,2018,5,11,13,48,43.303,0.7645,-0.3151,0.2456,-0.5057
0.375,-0.322,0.614,-81.7,-25.1,-69.6,0,2018,5,11,13,48,43.34,0.7651,-0.3085,0.2601,-0.5016
0.332,-0.224,0.542,-97.3,-48.6,-98.3,0,2018,5,11,13,48,43.36,0.7663,-0.3017,0.2798,-0.4932
0.34,-0.346,0.42,-108.1,-59.5,-133.4,0,2018,5,11,13,48,43.363,0.7679,-0.2946,0.3047,-0.48
0.302,-0.394,0.356,-113.9,-37.4,-169.6,1023,2018,5,11,13,48,43.403,0.7718,-0.2835,0.3315,-0.4625
0.237,-0.076,0.268,-118.7,-12.2,-196.5,1023,2018,5,11,13,48,43.422,0.7783,-0.2663,0.358,-0.4416
0.155,0.143,0.117,-121.9,2.8,-211.4,1023,2018,5,11,13,48,43.425,0.7858,-0.2443,0.384,-0.4186
0.076,0.391,-0.012,-118.5,11.6,-215,1023,2018,5,11,13,48,43.465,0.793,-0.2197,0.4086,-0.3945
0.017,0.554,-0.128,-110.2,16.9,-207.4,1023,2018,5,11,13,48,43.484,0.7992,-0.1946,0.4314,-0.3702
-0.016,0.596,-0.172,-99.2,27,-194.4,1023,2018,5,11,13,48,43.488,0.8044,-0.1696,0.4512,-0.347
-0.024,0.673,-0.184,-85.6,41.9,-173.1,1023,2018,5,11,13,48,43.525,0.8088,-0.1445,0.4671,-0.3266
-0.017,0.754,-0.231,-71.7,43.4,-151.9,1023,2018,5,11,13,48,43.53,0.8123,-0.1205,0.4795,-0.3091
0.004,0.821,-0.278,-56.3,38.1,-125.7,1023,2018,5,11,13,48,43.548,0.8149,-0.0996,0.4891,-0.2941
0.012,0.789,-0.285,-40.4,29.9,-98,1023,2018,5,11,13,48,43.584,0.817,-0.0828,0.496,-0.2821
0.04,0.752,-0.276,-24.8,28.1,-71,0,2018,5,11,13,48,43.605,0.8186,-0.0699,0.5004,-0.2729
0.052,0.73,-0.264,-11.2,31.1,-45.3,0,2018,5,11,13,48,43.609,0.8201,-0.0599,0.5022,-0.2675
0.066,0.762,-0.266,1.5,24.4,-20.8,0,2018,5,11,13,48,43.645,0.8215,-0.0527,0.5018,-0.2654
0.067,0.76,-0.256,14.1,9.2,4.3,0,2018,5,11,13,48,43.668,0.8227,-0.0499,0.4999,-0.2658
0.052,0.693,-0.199,24,-12,25.8,0,2018,5,11,13,48,43.673,0.8236,-0.0526,0.4971,-0.2676
0.03,0.593,-0.116,30.7,-5.7,47.1,0,2018,5,11,13,48,43.691,0.8242,-0.0587,0.4932,-0.2718
0.044,0.524,-0.034,33.4,14.3,62.5,0,2018,5,11,13,48,43.711,0.8243,-0.0643,0.4877,-0.2798
0.089,0.54,-0.015,33.6,30.4,76.9,0,2018,5,11,13,48,43.731,0.8239,-0.0686,0.4809,-0.2915
0.132,0.586,-0.015,34.8,33.8,89.6,0,2018,5,11,13,48,43.746,0.8228,-0.0725,0.4732,-0.3059
0.152,0.644,-0.05,38.7,14.2,102.3,0,2018,5,11,13,48,43.767,0.8209,-0.0786,0.4652,-0.3214
0.151,0.635,-0.071,44.1,-29.5,113.3,0,2018,5,11,13,48,43.788,0.8179,-0.0909,0.4582,-0.3356
0.141,0.464,-0.074,50.3,-54.5,121.8,0,2018,5,11,13,48,43.81,0.8138,-0.1096,0.4521,-0.348
0.146,0.234,-0.062,56.1,-35.1,126.1,0,2018,5,11,13,48,43.829,0.8093,-0.1295,0.4449,-0.3608
0.182,0.142,-0.054,62.9,13.6,125.2,0,2018,5,11,13,48,43.869,0.8055,-0.1443,0.4342,-0.3764
0.222,0.357,-0.026,69.9,17.4,122.4,0,2018,5,11,13,48,43.874,0.8027,-0.1551,0.4201,-0.3936
0.25,0.502,-0.031,74.2,-26.8,125.3,0,2018,5,11,13,48,43.89,0.7992,-0.1696,0.4068,-0.4086
0.26,0.476,-0.005,79.2,-65.1,131.1,0,2018,5,11,13,48,43.928,0.7937,-0.1912,0.3957,-0.4205
0.23,0.276,0.053,81.6,-51.5,133.7,0,2018,5,11,13,48,43.95,0.7871,-0.2147,0.3845,-0.4317
0.244,0.153,0.013,83.9,2,134.6,0,2018,5,11,13,48,43.954,0.7812,-0.2332,0.3699,-0.4453
0.281,0.235,0.062,88.2,32.3,131.5,0,2018,5,11,13,48,43.967,0.7771,-0.2454,0.3508,-0.4612
0.338,0.364,0.136,87.7,6.8,129.9,0,2018,5,11,13,48,44.006,0.7726,-0.2574,0.3313,-0.4763
0.343,0.341,0.193,85.9,-28.4,130.2,0,2018,5,11,13,48,44.029,0.7659,-0.2738,0.3148,-0.4891
0.355,0.15,0.262,81.7,-39,125,0,2018,5,11,13,48,44.033,0.7575,-0.2927,0.3004,-0.5001
0.363,-0.064,0.281,75.7,-25.9,114.5,0,2018,5,11,13,48,44.051,0.7492,-0.3102,0.2867,-0.51
0.348,-0.178,0.305,67.2,-3.8,99.3,0,2018,5,11,13,48,44.071,0.7423,-0.3237,0.2728,-0.5193
0.351,-0.224,0.361,58.6,16.1,81,0,2018,5,11,13,48,44.11,0.7374,-0.3327,0.2589,-0.5276
0.334,-0.186,0.396,48.5,25.6,59.9,0,2018,5,11,13,48,44.13,0.7345,-0.3379,0.2459,-0.5344
0.349,-0.172,0.465,36.3,15.9,39,1023,2018,5,11,13,48,44.134,0.7331,-0.3411,0.2355,-0.5391
0.369,-0.249,0.553,20.5,-12.2,17.8,1023,2018,5,11,13,48,44.155,0.7317,-0.3447,0.23,-0.5411
0.398,-0.293,0.562,2.4,-29.1,-4.9,1023,2018,5,11,13,48,44.175,0.7302,-0.3489,0.2305,-0.5402
0.424,-0.247,0.519,-11.8,-23.8,-26.1,1023,2018,5,11,13,48,44.191,0.7298,-0.3513,0.2348,-0.5373
0.448,-0.112,0.468,-24.5,-12.3,-41.1,1023,2018,5,11,13,48,44.21,0.7312,-0.3504,0.2409,-0.5333
0.454,0.035,0.397,-33.7,-4.9,-49.8,1023,2018,5,11,13,48,44.227,0.7337,-0.3466,0.2483,-0.5288
0.428,0.097,0.35,-40.6,-1.5,-55,1023,2018,5,11,13,48,44.267,0.7369,-0.3411,0.2566,-0.524
0.388,0.093,0.32,-46,1.7,-59.4,1023,2018,5,11,13,48,44.287,0.7401,-0.3345,0.2656,-0.5192
0.372,0.138,0.269,-49.8,7.2,-62.9,1023,2018,5,11,13,48,44.29,0.7437,-0.3267,0.275,-0.5142
0.366,0.22,0.208,-51.3,7,-63.9,0,2018,5,11,13,48,44.329,0.7473,-0.318,0.2845,-0.5092
0.356,0.316,0.141,-51.2,0.4,-61.2,0,2018,5,11,13,48,44.348,0.7505,-0.3098,0.2943,-0.504
0.353,0.376,0.066,-48.6,-5.5,-54.6,0,2018,5,11,13,48,44.351,0.7528,-0.3028,0.3043,-0.4988
0.362,0.422,-0.011,-42.2,-4.6,-44.8,0,2018,5,11,13,48,44.392,0.7543,-0.2969,0.3134,-0.4944
0.362,0.467,-0.04,-33.6,0.1,-31.8,0,2018,5,11,13,48,44.412,0.7554,-0.2919,0.3205,-0.4912
0.384,0.513,-0.084,-21.6,7.5,-16.6,0,2018,5,11,13,48,44.416,0.7561,-0.2876,0.3251,-0.4896
0.415,0.606,-0.115,-6,12.6,1.4,0,2018,5,11,13,48,44.452,0.7565,-0.2846,0.3263,-0.4899
0.408,0.651,-0.112,11.5,8.4,20.7,0,2018,5,11,13,48,44.456,0.7563,-0.284,0.3244,-0.4919
0.384,0.618,-0.096,27.9,0.2,39.9,0,2018,5,11,13,48,44.473,0.7549,-0.287,0.3198,-0.4952
0.371,0.558,-0.083,43.4,-5.6,57.9,0,2018,5,11,13,48,44.51,0.7525,-0.2933,0.3128,-0.4998
0.344,0.4,-0.04,56.6,-5.1,70,0,2018,5,11,13,48,44.531,0.7492,-0.302,0.3033,-0.5053
0.313,0.256,0.039,65.7,4.6,76.4,0,2018,5,11,13,48,44.535,0.7458,-0.3114,0.2913,-0.5116
0.293,0.15,0.109,69.4,9.3,76.7,0,2018,5,11,13,48,44.554,0.7427,-0.3203,0.2775,-0.5183
0.306,0.083,0.185,67.5,5,73.5,0,2018,5,11,13,48,44.576,0.7396,-0.3291,0.2636,-0.5245
0.308,0.071,0.264,61.6,-7.9,68.2,0,2018,5,11,13,48,44.594,0.7359,-0.3384,0.2513,-0.5298
0.29,-0.002,0.411,48.6,-14.3,61.4,0,2018,5,11,13,48,44.614,0.7315,-0.3479,0.2415,-0.5342
0.306,-0.068,0.484,27.8,-17.4,52.9,0,2018,5,11,13,48,44.636,0.7268,-0.3558,0.2346,-0.5385
0.331,-0.124,0.406,8.6,-11.6,44,0,2018,5,11,13,48,44.655,0.7219,-0.3614,0.2309,-0.5429
0.349,-0.192,0.412,-4.6,-4.2,31,0,2018,5,11,13,48,44.672,0.7179,-0.364,0.229,-0.5473
0.375,-0.27,0.522,-17.4,-1.5,13.3,0,2018,5,11,13,48,44.709,0.7152,-0.3641,0.2292,-0.5507
0.324,-0.38,0.616,-32.6,-5.4,-11.7,0,2018,5,11,13,48,44.731,0.714,-0.362,0.2326,-0.5522
0.363,-0.348,0.634,-50.4,-24,-40,0,2018,5,11,13,48,44.735,0.7142,-0.3583,0.241,-0.5507
0.355,-0.435,0.594,-66.2,-44.5,-71,0,2018,5,11,13,48,44.755,0.7148,-0.3546,0.2551,-0.5459
0.343,-0.591,0.533,-81.3,-49,-109.6,0,2018,5,11,13,48,44.793,0.717,-0.3494,0.2746,-0.5369
0.391,-0.488,0.492,-91.5,-39.6,-147.2,0,2018,5,11,13,48,44.813,0.722,-0.3404,0.2974,-0.5237
0.341,-0.359,0.461,-100.7,-37.7,-184.1,0,2018,5,11,13,48,44.818,0.7295,-0.3276,0.3228,-0.5061
0.295,-0.21,0.322,-107.7,-25.3,-213.2,0,2018,5,11,13,48,44.838,0.7388,-0.3109,0.3503,-0.4844
0.243,0.018,0.168,-109.5,3.8,-233.1,1023,2018,5,11,13,48,44.858,0.7497,-0.2891,0.3773,-0.4602
0.107,-0.03,0.06,-108.9,54.4,-248,1023,2018,5,11,13,48,44.878,0.7623,-0.2608,0.4007,-0.436
0.014,0.182,-0.036,-109.5,115.7,-251.1,1023,2018,5,11,13,48,44.898,0.7765,-0.2238,0.419,-0.4137
-0.097,0.53,-0.149,-109.6,165,-242.5,1023,2018,5,11,13,48,44.915,0.7909,-0.1784,0.4322,-0.3946
-0.113,0.828,-0.236,-111.7,166.5,-222.2,1023,2018,5,11,13,48,44.936,0.8026,-0.1295,0.4426,-0.3782
-0.149,0.834,-0.316,-109.7,145.9,-195.8,1023,2018,5,11,13,48,44.956,0.8102,-0.0839,0.4521,-0.3632
-0.097,0.932,-0.41,-98.6,119.2,-163,1023,2018,5,11,13,48,44.975,0.8145,-0.0443,0.4606,-0.3496
-0.081,0.938,-0.478,-80.8,96.5,-128.6,1023,2018,5,11,13,48,44.995,0.8165,-0.012,0.4678,-0.338
-0.035,1.012,-0.484,-59.9,72.9,-90.3,1023,2018,5,11,13,48,45.031,0.8171,0.013,0.4728,-0.3294
-0.02,0.987,-0.482,-39,45.4,-49.1,0,2018,5,11,13,48,45.052,0.8167,0.0298,0.4763,-0.3243
0.005,0.903,-0.465,-18.8,30.1,-10.1,0,2018,5,11,13,48,45.057,0.8157,0.039,0.4781,-0.3231
0.006,0.767,-0.424,-1,21.2,23.8,0,2018,5,11,13,48,45.077,0.8143,0.0424,0.478,-0.3263
0.011,0.664,-0.364,14.8,8,48.8,0,2018,5,11,13,48,45.118,0.8126,0.0409,0.4763,-0.333
0.045,0.552,-0.317,26.9,-7.6,66.4,0,2018,5,11,13,48,45.138,0.811,0.0348,0.4737,-0.3414
0.098,0.494,-0.299,36.8,-22,78.2,0,2018,5,11,13,48,45.143,0.8093,0.0246,0.4705,-0.3506
0.14,0.477,-0.283,45.5,-30.9,86.9,0,2018,5,11,13,48,45.157,0.8076,0.0114,0.4665,-0.3603
0.17,0.443,-0.276,52.8,-35.4,93.7,0,2018,5,11,13,48,45.196,0.8058,-0.0037,0.4618,-0.3703
0.195,0.478,-0.27,62,-41.8,100.7,0,2018,5,11,13,48,45.214,0.804,-0.0206,0.4561,-0.3808
0.206,0.507,-0.295,73.3,-57.3,108.3,0,2018,5,11,13,48,45.219,0.802,-0.0404,0.4493,-0.3912
0.206,0.556,-0.341,84.8,-78,119.9,0,2018,5,11,13,48,45.24,0.7997,-0.0643,0.4419,-0.4011
0.173,0.514,-0.256,95.1,-81.8,133.8,0,2018,5,11,13,48,45.26,0.7964,-0.092,0.4335,-0.4113
0.144,0.397,-0.109,101.3,-62,142.2,0,2018,5,11,13,48,45.279,0.7924,-0.1196,0.4225,-0.4233
0.167,0.169,-0.035,103.5,-35.4,141,0,2018,5,11,13,48,45.298,0.788,-0.1443,0.4087,-0.4371
0.267,0.274,-0.052,110.2,-25.3,136.2,0,2018,5,11,13,48,45.338,0.784,-0.1659,0.3924,-0.4513
0.262,0.437,-0.024,114.6,-54.4,135,0,2018,5,11,13,48,45.358,0.7795,-0.1891,0.3759,-0.4638
0.254,0.392,0.062,113.7,-100.5,134.3,0,2018,5,11,13,48,45.361,0.773,-0.2179,0.3621,-0.473
0.253,0.125,0.193,104.1,-124.2,131.3,0,2018,5,11,13,48,45.377,0.764,-0.2511,0.3517,-0.479
0.292,-0.188,0.305,90.9,-82,122.6,0,2018,5,11,13,48,45.398,0.7542,-0.2811,0.3418,-0.4849
0.35,-0.09,0.358,78.3,-44.6,108.9,0,2018,5,11,13,48,45.418,0.7463,-0.3028,0.33,-0.4923
0.413,0.158,0.257,70.6,-52.4,100,0,2018,5,11,13,48,45.457,0.739,-0.3209,0.3187,-0.4992
0.392,0.079,0.267,64.7,-85,90.7,0,2018,5,11,13,48,45.476,0.7303,-0.341,0.3106,-0.5037
0.406,-0.085,0.319,58.4,-94.6,77.9,0,2018,5,11,13,48,45.481,0.7205,-0.3626,0.3058,-0.5057
0.385,-0.175,0.334,58.6,-105.3,60.8,0,2018,5,11,13,48,45.499,0.711,-0.3837,0.3028,-0.5054
0.379,0.052,0.327,53.2,-148.8,46.1,0,2018,5,11,13,48,45.539,0.7008,-0.4068,0.3031,-0.5013
0.408,0.123,0.405,38.5,-219.1,36.9,0,2018,5,11,13,48,45.558,0.686,-0.4355,0.3105,-0.4931
0.399,0.011,0.436,20.1,-272.3,27.8,0,2018,5,11,13,48,45.562,0.6651,-0.4693,0.3258,-0.4807
0.393,-0.031,0.427,4.8,-287,18.5,0,2018,5,11,13,48,45.579,0.6399,-0.5037,0.3458,-0.4659
0.415,0.064,0.276,-6,-300.2,16.7,1023,2018,5,11,13,48,45.599,0.6117,-0.5368,0.3679,-0.4495
0.424,0.082,0.239,-16.7,-307.9,20.3,1023,2018,5,11,13,48,45.636,0.58,-0.569,0.3909,-0.4324
0.373,-0.243,0.229,-24.6,-273.4,22,1023,2018,5,11,13,48,45.656,0.5467,-0.598,0.4126,-0.4161
0.372,-0.591,0.123,-21.4,-158,17.9,1023,2018,5,11,13,48,45.661,0.5201,-0.6183,0.4285,-0.4044
0.352,-0.548,0.175,-7.7,-1.9,15.2,1023,2018,5,11,13,48,45.682,0.5097,-0.6252,0.4332,-0.4018
0.354,-0.194,0.224,4.8,73.2,11.8,1023,2018,5,11,13,48,45.7,0.5138,-0.6219,0.4285,-0.4066
0.346,0.05,0.319,9.9,42.2,8.2,1023,2018,5,11,13,48,45.74,0.5206,-0.6175,0.4222,-0.4113
0.341,-0.026,0.347,8.6,-16.3,6,1023,2018,5,11,13,48,45.761,0.5218,-0.6179,0.4198,-0.4117
0.344,-0.134,0.312,5.3,-38.8,3.3,0,2018,5,11,13,48,45.765,0.5185,-0.6216,0.421,-0.409
0.373,-0.13,0.266,3.6,-26.6,2.5,0,2018,5,11,13,48,45.782,0.5149,-0.6252,0.4228,-0.4062
0.39,-0.099,0.291,2.9,-4.1,2.8,0,2018,5,11,13,48,45.802,0.5133,-0.627,0.4232,-0.405
0.402,-0.023,0.261,2.2,3,4.2,0,2018,5,11,13,48,45.824,0.5135,-0.6273,0.4224,-0.4052
0.374,0,0.308,-1.2,-14.6,4,0,2018,5,11,13,48,45.84,0.5127,-0.6281,0.4223,-0.4051
0.357,-0.096,0.294,-7.4,-24.3,3.3,0,2018,5,11,13,48,45.879,0.5097,-0.63,0.4238,-0.4044
0.369,-0.121,0.278,-11.8,-13.2,1.7,0,2018,5,11,13,48,45.901,0.5066,-0.6312,0.4258,-0.4042
0.386,-0.093,0.27,-13.5,4.8,0.2,0,2018,5,11,13,48,45.906,0.5052,-0.6307,0.427,-0.4055
0.402,-0.035,0.261,-15.6,7.5,-0.7,0,2018,5,11,13,48,45.922,0.505,-0.6289,0.4278,-0.4077
0.426,-0.042,0.237,-16.5,1.3,0.5,0,2018,5,11,13,48,45.943,0.5043,-0.6274,0.429,-0.4097
0.437,-0.034,0.246,-16.5,1.5,2.4,0,2018,5,11,13,48,45.962,0.503,-0.6262,0.4302,-0.4118
0.441,-0.047,0.252,-16.8,1.8,3.6,0,2018,5,11,13,48,46,0.5017,-0.6251,0.4311,-0.414
0.452,-0.053,0.233,-16.3,3.3,4.2,0,2018,5,11,13,48,46.021,0.5005,-0.624,0.432,-0.4164
0.462,-0.046,0.213,-14.5,2.6,4.6,0,2018,5,11,13,48,46.025,0.4994,-0.6229,0.4326,-0.4187
0.461,-0.062,0.222,-12.1,2.8,5.2,0,2018,5,11,13,48,46.064,0.4983,-0.6221,0.433,-0.4207
0.463,-0.063,0.225,-10.5,4,5.3,0,2018,5,11,13,48,46.068,0.4974,-0.6213,0.4332,-0.4227
0.474,-0.065,0.205,-9.1,4.6,5.3,0,2018,5,11,13,48,46.084,0.4968,-0.6206,0.4332,-0.4245
0.468,-0.067,0.218,-7.7,6.8,5.8,0,2018,5,11,13,48,46.12,0.4963,-0.6199,0.4329,-0.4264
0.469,-0.088,0.222,-6.6,9.9,5.4,0,2018,5,11,13,48,46.142,0.4962,-0.6191,0.4323,-0.4282
0.453,-0.106,0.227,-4.3,21.8,5.1,0,2018,5,11,13,48,46.146,0.4972,-0.6177,0.431,-0.4305
0.44,-0.066,0.239,-3.8,28.1,4.7,0,2018,5,11,13,48,46.182,0.4993,-0.6155,0.4288,-0.4333
0.441,-0.044,0.229,-3.8,28.3,5.6,0,2018,5,11,13,48,46.202,0.5017,-0.6131,0.4265,-0.4363
0.441,-0.036,0.255,-4.3,25.6,6.2,0,2018,5,11,13,48,46.206,0.5038,-0.6109,0.4241,-0.4392
0.437,-0.041,0.279,-5.7,24,8.5,0,2018,5,11,13,48,46.243,0.5054,-0.6089,0.4219,-0.4422
0.432,-0.055,0.333,-7.9,30.9,9.6,0,2018,5,11,13,48,46.263,0.5071,-0.6066,0.4194,-0.4457
0.45,-0.029,0.34,-10.9,34.1,11,0,2018,5,11,13,48,46.267,0.5091,-0.6037,0.4166,-0.4501
0.478,0.005,0.375,-15.2,35.4,13.8,0,2018,5,11,13,48,46.282,0.5109,-0.6005,0.4137,-0.4551
0.509,-0.002,0.416,-23.2,32.5,16.2,0,2018,5,11,13,48,46.319,0.5119,-0.5969,0.411,-0.4609
0.544,-0.023,0.466,-33.5,29.8,20.5,1023,2018,5,11,13,48,46.34,0.5116,-0.5932,0.4092,-0.4677
0.555,-0.005,0.469,-43.4,33.6,26.6,1023,2018,5,11,13,48,46.344,0.5101,-0.5889,0.4076,-0.4761
0.572,0.006,0.363,-50.2,33.4,32.9,1023,2018,5,11,13,48,46.382,0.5077,-0.584,0.4059,-0.486
0.592,0.011,0.316,-54.1,39.3,41.9,1023,2018,5,11,13,48,46.403,0.5045,-0.5789,0.4036,-0.4972
0.577,0.065,0.314,-57.5,34.5,49.7,1023,2018,5,11,13,48,46.407,0.5004,-0.5738,0.4005,-0.5096
0.549,0.005,0.248,-59.9,12.7,56.4,1023,2018,5,11,13,48,46.427,0.4938,-0.5702,0.3983,-0.5217
0.501,-0.031,0.215,-61.3,-10.3,59.9,1023,2018,5,11,13,48,46.447,0.4842,-0.5687,0.3976,-0.5328
0.497,-0.094,0.126,-60.4,-25.5,62.4,1023,2018,5,11,13,48,46.467,0.4723,-0.5688,0.3984,-0.5427
0.455,-0.198,0.079,-56.3,-23.7,60.8,1023,2018,5,11,13,48,46.486,0.4597,-0.5697,0.3996,-0.5516
0.405,-0.225,0.067,-52.6,-7,58.6,0,2018,5,11,13,48,46.507,0.4485,-0.5698,0.3994,-0.5607
0.414,-0.214,0.013,-47.7,9.1,56.4,0,2018,5,11,13,48,46.528,0.4395,-0.5687,0.3975,-0.5703
0.386,-0.197,0,-40.5,13.9,52.1,0,2018,5,11,13,48,46.545,0.4323,-0.567,0.3941,-0.5797
0.359,-0.24,0.015,-34,9.9,45.7,0,2018,5,11,13,48,46.565,0.4259,-0.5658,0.3909,-0.5878
0.325,-0.355,0.059,-30,9.5,34.4,0,2018,5,11,13,48,46.587,0.4205,-0.5645,0.3882,-0.5946
0.297,-0.391,0.056,-27.7,4.8,18.3,0,2018,5,11,13,48,46.623,0.4167,-0.5627,0.387,-0.5999
0.326,-0.461,-0.004,-24,-2.4,1,0,2018,5,11,13,48,46.645,0.4139,-0.5606,0.3879,-0.6031
0.327,-0.472,-0.026,-17.3,2.6,-17.2,0,2018,5,11,13,48,46.65,0.4134,-0.5579,0.3903,-0.6045
0.323,-0.517,-0.05,-10.2,12.6,-38.3,0,2018,5,11,13,48,46.667,0.4161,-0.554,0.3932,-0.6043
0.31,-0.519,-0.072,-2.5,28.1,-59.7,0,2018,5,11,13,48,46.705,0.4229,-0.5484,0.3962,-0.6027
0.328,-0.48,-0.083,5,43.1,-78.9,0,2018,5,11,13,48,46.726,0.4338,-0.5409,0.399,-0.5998
0.331,-0.432,-0.111,13.9,60.5,-95.3,0,2018,5,11,13,48,46.73,0.4485,-0.5318,0.401,-0.5958
0.325,-0.336,-0.186,24,70.2,-109.9,0,2018,5,11,13,48,46.746,0.4666,-0.5212,0.4022,-0.5905
0.351,-0.294,-0.254,42.8,90.1,-118.8,0,2018,5,11,13,48,46.765,0.4878,-0.51,0.4017,-0.5834
0.354,-0.176,-0.219,66.8,125.4,-123.6,0,2018,5,11,13,48,46.788,0.5135,-0.4976,0.3965,-0.5755
0.331,-0.036,-0.153,83.9,144.2,-126.9,0,2018,5,11,13,48,46.807,0.543,-0.484,0.3865,-0.5668
0.285,0.096,-0.124,94.5,144.2,-128.5,0,2018,5,11,13,48,46.827,0.5736,-0.4701,0.3742,-0.5565
0.259,0.214,-0.109,102,124.4,-128.5,0,2018,5,11,13,48,46.847,0.6032,-0.4575,0.3616,-0.5439
0.213,0.288,-0.013,105.3,113.5,-122.7,0,2018,5,11,13,48,46.867,0.6307,-0.4468,0.3493,-0.5295
0.18,0.411,0.014,105.3,109.7,-116,0,2018,5,11,13,48,46.902,0.6565,-0.4368,0.3365,-0.5146
0.19,0.483,0.02,104.7,102.7,-105.2,0,2018,5,11,13,48,46.922,0.6803,-0.4274,0.3233,-0.4999
0.182,0.497,0.045,102.8,100.8,-90.8,0,2018,5,11,13,48,46.929,0.7019,-0.4185,0.3092,-0.4861
0.199,0.622,0.122,97.1,80.3,-72.7,0,2018,5,11,13,48,46.949,0.7207,-0.4111,0.295,-0.4736
0.23,0.585,0.243,91.1,49.3,-55.2,0,2018,5,11,13,48,46.973,0.7352,-0.4076,0.2824,-0.462
0.257,0.541,0.386,81.5,27.6,-38.2,0,2018,5,11,13,48,46.988,0.7457,-0.4074,0.2715,-0.4517
0.318,0.595,0.422,69.8,-6.1,-21.1,0,2018,5,11,13,48,47.004,0.7524,-0.4104,0.2628,-0.443
0.396,0.536,0.433,56.2,-37.7,-3.5,0,2018,5,11,13,48,47.026,0.7544,-0.4179,0.2573,-0.4358
0.408,0.437,0.452,46.2,-51.4,11.7,0,2018,5,11,13,48,47.064,0.7528,-0.4281,0.2538,-0.4306
0.392,0.293,0.488,35.9,-47.1,21.2,1023,2018,5,11,13,48,47.084,0.7495,-0.4385,0.2509,-0.4276
0.398,0.161,0.482,26.2,-32.7,25,1023,2018,5,11,13,48,47.089,0.746,-0.4471,0.2481,-0.4265
0.291,0.252,0.548,19.8,-21.3,27.1,1023,2018,5,11,13,48,47.129,0.7432,-0.4529,0.2446,-0.4272
0.359,-0.178,0.809,-1,-43.2,13.1,1023,2018,5,11,13,48,47.15,0.739,-0.4594,0.2447,-0.4275
0.454,-0.07,0.686,-9.2,-8.2,1.9,1023,2018,5,11,13,48,47.154,0.7363,-0.4624,0.2468,-0.4278
0.467,0.206,0.531,-11.8,-14.8,-1.7,1023,2018,5,11,13,48,47.172,0.7351,-0.4627,0.2489,-0.4283
0.446,0.189,0.417,-8.2,-17.2,-1.6,1023,2018,5,11,13,48,47.191,0.7333,-0.4642,0.2517,-0.428
0.41,0.245,0.414,-2,-2.9,0.3,1023,2018,5,11,13,48,47.231,0.7323,-0.465,0.2532,-0.4279
0.381,0.297,0.451,4,6.7,3,1023,2018,5,11,13,48,47.236,0.7325,-0.4648,0.2526,-0.4282
0.352,0.398,0.51,6.6,2.8,8.3,0,2018,5,11,13,48,47.251,0.7329,-0.4646,0.2509,-0.4288
0.339,0.34,0.61,0,-5.9,15,0,2018,5,11,13,48,47.269,0.7319,-0.466,0.2497,-0.4298
0.364,0.261,0.689,-11.2,17.6,21,0,2018,5,11,13,48,47.29,0.7306,-0.4658,0.2487,-0.4327
0.375,0.444,0.717,-27.1,31.6,32.9,0,2018,5,11,13,48,47.311,0.7299,-0.462,0.2469,-0.4389
0.432,0.485,0.662,-42.8,21.3,47.2,0,2018,5,11,13,48,47.33,0.7275,-0.4574,0.246,-0.4481
0.502,0.497,0.589,-55.1,0.2,62.5,0,2018,5,11,13,48,47.35,0.7218,-0.4546,0.2471,-0.4595
0.565,0.453,0.531,-62.3,-10.6,78.3,0,2018,5,11,13,48,47.39,0.7129,-0.4538,0.2495,-0.4727
0.603,0.406,0.425,-63.7,5.8,95.5,0,2018,5,11,13,48,47.41,0.7025,-0.4527,0.2508,-0.4883
0.634,0.358,0.321,-59.6,34.6,115.7,0,2018,5,11,13,48,47.414,0.6922,-0.4493,0.2481,-0.5071
0.558,0.351,0.278,-54.8,37.3,133.2,0,2018,5,11,13,48,47.435,0.6815,-0.4449,0.2417,-0.5282
0.576,0.375,0.255,-47.8,8,148.5,0,2018,5,11,13,48,47.455,0.6679,-0.4431,0.2345,-0.5499
0.53,0.219,0.239,-40.1,-26.3,158.2,0,2018,5,11,13,48,47.471,0.6501,-0.4465,0.2287,-0.5705
0.451,-0.051,0.124,-35.1,-20.1,161.6,0,2018,5,11,13,48,47.49,0.6303,-0.452,0.2231,-0.5903
0.435,-0.071,0.033,-28.5,13.7,167.7,0,2018,5,11,13,48,47.513,0.6116,-0.4552,0.2139,-0.6105
0.454,0.115,-0.128,-15.8,25.5,179,0,2018,5,11,13,48,47.531,0.5939,-0.4566,0.1998,-0.6314
0.404,0.135,-0.154,-2.6,6.4,194.4,0,2018,5,11,13,48,47.551,0.574,-0.46,0.1839,-0.6518
0.288,0,-0.062,8,-19.8,206.8,0,2018,5,11,13,48,47.591,0.5502,-0.4674,0.1682,-0.6711
0.076,-0.275,0.029,7.8,-13.4,213.6,0,2018,5,11,13,48,47.612,0.5238,-0.4762,0.1523,-0.6896
-0.024,-0.348,0.068,1.1,21.7,218.5,0,2018,5,11,13,48,47.616,0.4979,-0.4817,0.1333,-0.7086
-0.06,-0.293,0.018,0.2,43,217.5,0,2018,5,11,13,48,47.633,0.4735,-0.4834,0.1106,-0.7279
-0.08,-0.262,-0.004,5.8,23.6,208.3,0,2018,5,11,13,48,47.655,0.4489,-0.4847,0.0878,-0.7454
-0.071,-0.371,0.081,10.9,-3.1,183.7,0,2018,5,11,13,48,47.672,0.424,-0.4878,0.0692,-0.7598
-0.045,-0.478,0.213,9.5,-20.7,146.6,0,2018,5,11,13,48,47.709,0.4009,-0.492,0.0561,-0.7707
0.045,-0.529,0.212,4.2,-37,100,0,2018,5,11,13,48,47.731,0.3819,-0.4959,0.0489,-0.7782
0.185,-0.512,0.128,3.4,-67.3,47.3,0,2018,5,11,13,48,47.735,0.3675,-0.5004,0.0495,-0.7822
0.263,-0.532,0.113,9.2,-84.8,0.3,0,2018,5,11,13,48,47.752,0.3576,-0.5065,0.0581,-0.7824
0.233,-0.678,0.151,18.9,-57.6,-37.9,0,2018,5,11,13,48,47.773,0.3539,-0.5128,0.0691,-0.779
0.205,-0.647,0.186,25.4,-7,-66.3,1023,2018,5,11,13,48,47.795,0.3587,-0.5171,0.0768,-0.7732
0.219,-0.507,0.266,27.6,14.4,-87.3,1023,2018,5,11,13,48,47.833,0.3703,-0.5191,0.081,-0.766
0.233,-0.469,0.338,26.4,-0.6,-101.9,1023,2018,5,11,13,48,47.855,0.3841,-0.5208,0.0868,-0.7573
0.252,-0.515,0.383,23.6,-15.7,-114.2,1023,2018,5,11,13,48,47.859,0.3978,-0.523,0.0962,-0.7475
0.236,-0.527,0.374,20,-18.5,-128.5,1023,2018,5,11,13,48,47.877,0.4123,-0.5249,0.1081,-0.7366
0.236,-0.478,0.312,17.9,-18.2,-145.1,1023,2018,5,11,13,48,47.897,0.4284,-0.5259,0.1217,-0.7245
0.216,-0.451,0.219,20.1,-10.6,-161,1023,2018,5,11,13,48,47.918,0.4467,-0.5259,0.1363,-0.7107
0.183,-0.418,0.195,24,6,-173.6,1023,2018,5,11,13,48,47.938,0.4676,-0.5246,0.1502,-0.6952
0.133,-0.361,0.195,26.7,26.2,-186.1,1023,2018,5,11,13,48,47.954,0.4914,-0.5214,0.1626,-0.6783
0.1,-0.175,0.145,29.8,34.5,-195,0,2018,5,11,13,48,47.975,0.5175,-0.5162,0.1736,-0.6599
0.075,0.039,0.071,33.9,35.8,-198.2,0,2018,5,11,13,48,47.995,0.5436,-0.5107,0.1837,-0.6401
0.044,0.062,0.07,35,63.9,-196.4,0,2018,5,11,13,48,48.032,0.5697,-0.5042,0.1906,-0.6203
0.049,-0.09,0.105,32.6,103.6,-200.7,0,2018,5,11,13,48,48.053,0.5986,-0.4931,0.1941,-0.6006
0.043,-0.113,0.134,33.4,129,-206.5,0,2018,5,11,13,48,48.057,0.6307,-0.4769,0.1957,-0.5799
0.011,0.083,0.096,28.9,158.6,-201.8,0,2018,5,11,13,48,48.078,0.6633,-0.4574,0.1935,-0.5597
0.127,0.491,0.088,21.5,166.1,-186.3,0,2018,5,11,13,48,48.114,0.6957,-0.4336,0.1896,-0.5403
0.22,0.587,0.124,13.3,141.7,-166,0,2018,5,11,13,48,48.134,0.7238,-0.4103,0.1863,-0.5223
0.277,0.627,0.126,9.3,123.5,-141.7,0,2018,5,11,13,48,48.139,0.7472,-0.3894,0.1839,-0.5061
0.353,0.634,0.121,10.5,100.8,-117.8,0,2018,5,11,13,48,48.156,0.7661,-0.3714,0.1814,-0.492
0.381,0.646,0.16,15.3,65.4,-96.9,0,2018,5,11,13,48,48.176,0.7808,-0.3579,0.1795,-0.4793
0.434,0.853,0.115,24.4,28.7,-72.1,0,2018,5,11,13,48,48.196,0.7913,-0.3507,0.1783,-0.4679
0.467,0.843,0.156,31.2,9.8,-41.9,0,2018,5,11,13,48,48.234,0.7977,-0.3488,0.1765,-0.4589
0.494,0.595,0.291,36.1,4.2,-19.2,0,2018,5,11,13,48,48.255,0.8015,-0.3499,0.173,-0.4529
0.486,0.588,0.391,40.1,-1.3,-2.1,0,2018,5,11,13,48,48.259,0.8035,-0.3523,0.1681,-0.4492
0.421,0.511,0.495,38.3,-17.1,7.2,0,2018,5,11,13,48,48.277,0.8038,-0.3569,0.1631,-0.447
0.448,0.46,0.441,38.4,-29.3,11.1,0,2018,5,11,13,48,48.297,0.8026,-0.3635,0.1591,-0.4452
0.447,0.404,0.389,39.7,-36.3,16.1,0,2018,5,11,13,48,48.334,0.8004,-0.3716,0.1553,-0.4437
0.424,0.239,0.497,37.2,-31.7,17.5,0,2018,5,11,13,48,48.354,0.7978,-0.3799,0.1515,-0.4427
0.426,0.192,0.451,34.5,-17.1,14.9,0,2018,5,11,13,48,48.358,0.7958,-0.3866,0.1475,-0.4419
0.403,0.208,0.706,23.3,-21,13,0,2018,5,11,13,48,48.376,0.7942,-0.392,0.1438,-0.4413
0.415,0.137,0.681,10.3,0.6,8.8,0,2018,5,11,13,48,48.395,0.7931,-0.395,0.1415,-0.4414
0.422,0.218,0.582,-0.7,4.8,5.8,0,2018,5,11,13,48,48.417,0.7929,-0.3948,0.1401,-0.4423
0.43,0.252,0.467,-3.2,-0.1,3,0,2018,5,11,13,48,48.437,0.7927,-0.3944,0.14,-0.4431
0.409,0.326,0.386,-1.9,-4.9,1.7,0,2018,5,11,13,48,48.458,0.7923,-0.3946,0.1404,-0.4435
0.377,0.317,0.354,-2.7,-2,4.5,0,2018,5,11,13,48,48.478,0.7916,-0.3952,0.1409,-0.444
0.372,0.39,0.353,-2,0.1,8.3,1023,2018,5,11,13,48,48.497,0.7912,-0.395,0.1407,-0.4451
0.423,0.351,0.301,-1,-14.1,11.8,1023,2018,5,11,13,48,48.519,0.7898,-0.3961,0.1408,-0.4465
0.398,0.36,0.304,3.8,-38.1,13.6,1023,2018,5,11,13,48,48.557,0.7871,-0.4,0.1417,-0.4475
0.396,0.269,0.266,8.4,-62.1,11.9,1023,2018,5,11,13,48,48.578,0.7825,-0.408,0.144,-0.4475
0.399,0.207,0.225,13,-61.6,11,1023,2018,5,11,13,48,48.582,0.7773,-0.4179,0.1467,-0.4467
0.409,0.109,0.19,18.1,-35.8,10.7,1023,2018,5,11,13,48,48.602,0.7731,-0.4261,0.1477,-0.4457
0.428,0.134,0.186,27.8,-5.9,9.1,1023,2018,5,11,13,48,48.623,0.7715,-0.4307,0.1453,-0.4449
0.402,0.2,0.228,36.2,0.3,6.1,1023,2018,5,11,13,48,48.638,0.7717,-0.4335,0.1404,-0.4435
0.37,0.205,0.283,40.6,-8,3.5,0,2018,5,11,13,48,48.677,0.772,-0.4372,0.1351,-0.441
0.343,0.15,0.312,40.6,-15.4,0.8,0,2018,5,11,13,48,48.698,0.7718,-0.442,0.1303,-0.4379
0.327,0.157,0.322,37.9,-14,-2,0,2018,5,11,13,48,48.702,0.7715,-0.4471,0.1263,-0.4344
0.316,0.179,0.424,32.2,-11.3,-4.9,0,2018,5,11,13,48,48.72,0.7716,-0.4514,0.1228,-0.4309
0.318,0.218,0.502,24.9,-1.7,-6,0,2018,5,11,13,48,48.74,0.7721,-0.4541,0.1199,-0.4278
0.3,0.321,0.563,16.5,-10.5,-6.6,0,2018,5,11,13,48,48.76,0.7727,-0.4562,0.118,-0.4251
0.316,0.34,0.582,5.4,-17.9,-2.2,0,2018,5,11,13,48,48.779,0.772,-0.459,0.1181,-0.4233
0.332,0.361,0.574,-4.7,-14.1,4.8,0,2018,5,11,13,48,48.818,0.7705,-0.4613,0.1192,-0.4232
0.367,0.34,0.547,-13.4,-0.2,14.9,0,2018,5,11,13,48,48.838,0.769,-0.4619,0.1203,-0.4251
0.403,0.434,0.529,-19.6,14.5,27.5,0,2018,5,11,13,48,48.841,0.7677,-0.4599,0.1202,-0.4295
0.425,0.518,0.51,-23.2,13.7,42.1,0,2018,5,11,13,48,48.859,0.7658,-0.457,0.1191,-0.4363
0.435,0.484,0.508,-25.3,9.4,56.6,0,2018,5,11,13,48,48.878,0.7623,-0.4548,0.1176,-0.445
0.473,0.464,0.454,-25.1,19.5,70.8,0,2018,5,11,13,48,48.899,0.7578,-0.4522,0.1149,-0.4558
0.514,0.419,0.354,-21.7,46.7,88.6,0,2018,5,11,13,48,48.939,0.7534,-0.4477,0.1092,-0.4689
0.544,0.481,0.312,-16.2,73.6,108.9,0,2018,5,11,13,48,48.958,0.7497,-0.4397,0.0987,-0.4845
0.537,0.542,0.358,-8.4,57.2,127.8,0,2018,5,11,13,48,48.962,0.7445,-0.4314,0.0853,-0.5021
0.449,0.513,0.398,-4.6,-2.5,140.7,0,2018,5,11,13,48,49.003,0.7345,-0.4291,0.0735,-0.5204
0.428,0.409,0.409,-4.7,-69.4,150,0,2018,5,11,13,48,49.007,0.718,-0.4354,0.0667,-0.5388
0.397,0.283,0.33,-6.4,-112.4,158.8,0,2018,5,11,13,48,49.023,0.6959,-0.4483,0.0644,-0.5572
0.321,0.211,0.273,-19,-143.1,168,0,2018,5,11,13,48,49.062,0.6691,-0.4645,0.0658,-0.5762
0.241,-0.072,0.188,-33.8,-124.1,178.8,0,2018,5,11,13,48,49.066,0.6395,-0.4796,0.0688,-0.5967
0.245,-0.204,0.166,-36.6,-52.3,188.3,0,2018,5,11,13,48,49.082,0.6121,-0.4877,0.0666,-0.6188
0.19,-0.216,0.212,-32.3,12.9,197.1,0,2018,5,11,13,48,49.118,0.5892,-0.4875,0.0553,-0.6418
0.11,-0.072,0.197,-26.7,19,204.2,0,2018,5,11,13,48,49.138,0.5678,-0.4836,0.0388,-0.6648
0.055,-0.163,0.182,-17.6,-21.5,208.6,0,2018,5,11,13,48,49.142,0.5432,-0.482,0.0233,-0.6869
0.006,-0.27,0.216,-11,-51.2,201.6,0,2018,5,11,13,48,49.162,0.5147,-0.4848,0.0123,-0.707
-0.039,-0.475,0.25,-11.9,-28.1,179.2,1023,2018,5,11,13,48,49.184,0.4871,-0.4874,0.0024,-0.7246
0.064,-0.511,0.218,-12.4,14,145.6,1023,2018,5,11,13,48,49.203,0.4659,-0.4861,-0.0096,-0.7392
0.192,-0.505,0.212,-9.8,28.3,104.1,1023,2018,5,11,13,48,49.223,0.4518,-0.4823,-0.0224,-0.75
0.255,-0.467,0.227,-5.2,18.7,58.2,1023,2018,5,11,13,48,49.263,0.4434,-0.479,-0.0318,-0.7568
0.289,-0.427,0.265,-1.2,-1,14.6,1023,2018,5,11,13,48,49.283,0.4395,-0.4778,-0.0355,-0.7597
0.303,-0.48,0.254,2.9,-6.2,-23.4,1023,2018,5,11,13,48,49.287,0.4398,-0.4783,-0.0343,-0.7593
0.319,-0.428,0.205,9.2,5.8,-51.3,1023,2018,5,11,13,48,49.305,0.4448,-0.4794,-0.0314,-0.7557
0.309,-0.38,0.25,11.7,22.9,-67.2,1023,2018,5,11,13,48,49.325,0.4539,-0.4801,-0.0291,-0.75
0.324,-0.242,0.287,12.3,43.9,-70.7,1023,2018,5,11,13,48,49.343,0.466,-0.4792,-0.0288,-0.7431
0.375,0.012,0.246,10.9,43.7,-52.8,0,2018,5,11,13,48,49.363,0.4778,-0.4773,-0.0304,-0.7367
0.436,-0.029,0.296,14.8,39.7,-32.2,0,2018,5,11,13,48,49.384,0.4865,-0.4757,-0.0333,-0.732
0.399,-0.05,0.388,13.7,37.7,-14.1,0,2018,5,11,13,48,49.405,0.4925,-0.4744,-0.0375,-0.7286
0.42,-0.016,0.383,11.1,37,-4.1,0,2018,5,11,13,48,49.425,0.4966,-0.4727,-0.0428,-0.7266
0.398,-0.016,0.376,8.9,26.4,-0.8,0,2018,5,11,13,48,49.445,0.4995,-0.4712,-0.0474,-0.7253
0.348,-0.007,0.361,8.2,5.7,2.5,0,2018,5,11,13,48,49.485,0.5005,-0.4708,-0.0501,-0.7247
0.371,-0.024,0.335,7.6,-3.9,5.2,0,2018,5,11,13,48,49.504,0.4999,-0.4718,-0.0511,-0.7244
0.357,-0.045,0.321,6.9,-13.4,6.6,0,2018,5,11,13,48,49.508,0.4983,-0.4735,-0.0511,-0.7244
0.351,-0.105,0.343,7.5,-11.8,6.8,0,2018,5,11,13,48,49.525,0.4962,-0.4755,-0.0506,-0.7245
0.302,-0.134,0.382,7,-8.4,3.1,0,2018,5,11,13,48,49.542,0.4948,-0.4772,-0.0505,-0.7244
0.3,-0.078,0.363,6.3,-17.1,-0.4,0,2018,5,11,13,48,49.579,0.4935,-0.4791,-0.0496,-0.7241
0.329,-0.075,0.295,7.1,-27.1,-2.1,0,2018,5,11,13,48,49.599,0.4917,-0.4819,-0.0471,-0.7236
0.323,-0.149,0.331,7,-17.6,-1,0,2018,5,11,13,48,49.603,0.4898,-0.4849,-0.0446,-0.723
0.304,-0.15,0.364,6.8,-3.7,-0.4,0,2018,5,11,13,48,49.624,0.4891,-0.4866,-0.044,-0.7225
0.302,-0.085,0.359,7.7,-6.2,0,0,2018,5,11,13,48,49.644,0.4888,-0.4878,-0.0441,-0.7218
0.306,-0.069,0.328,9.3,-13.6,2.7,0,2018,5,11,13,48,49.684,0.4876,-0.4897,-0.0436,-0.7213
0.286,-0.19,0.46,20.4,43.6,5.1,0,2018,5,11,13,48,49.706,0.4875,-0.492,-0.0491,-0.7195
0.328,-0.047,0.378,20.9,66.5,9.3,0,2018,5,11,13,48,49.71,0.4914,-0.4897,-0.0588,-0.7177
0.35,-0.069,0.38,17.6,65.2,6.1,0,2018,5,11,13,48,49.727,0.4959,-0.4862,-0.0697,-0.7161
0.323,-0.079,0.468,10.3,34.7,-2.1,0,2018,5,11,13,48,49.763,0.4998,-0.4834,-0.0776,-0.7144
0.329,-0.11,0.482,3.6,-7.6,-11.9,0,2018,5,11,13,48,49.768,0.5016,-0.4833,-0.0789,-0.713
0.352,-0.115,0.433,0.6,-37.1,-19.6,0,2018,5,11,13,48,49.784,0.5015,-0.4859,-0.0745,-0.7118
0.365,-0.159,0.364,0.7,-35.4,-17.9,0,2018,5,11,13,48,49.823,0.5005,-0.4897,-0.068,-0.7106
0.346,-0.161,0.409,-0.2,-19.7,-13.7,0,2018,5,11,13,48,49.845,0.5002,-0.4922,-0.0635,-0.7095
0.335,-0.115,0.42,-2.2,-14,-4.6,0,2018,5,11,13,48,49.849,0.5,-0.4936,-0.0605,-0.7089
0.349,-0.213,0.341,-0.7,-2,0,0,2018,5,11,13,48,49.867,0.4995,-0.494,-0.0593,-0.7091
0.348,-0.116,0.341,1.5,0,2.8,1023,2018,5,11,13,48,49.902,0.4993,-0.4941,-0.0594,-0.7092
0.332,-0.135,0.343,2.8,-2.8,4.6,1023,2018,5,11,13,48,49.922,0.4987,-0.4944,-0.0599,-0.7093
0.321,-0.086,0.357,2.7,-24,2.9,1023,2018,5,11,13,48,49.926,0.4971,-0.4957,-0.059,-0.7096
0.331,-0.132,0.317,1.6,-39.1,-1.8,1023,2018,5,11,13,48,49.964,0.494,-0.499,-0.055,-0.7098
0.341,-0.124,0.31,1.1,-34.8,-8,1023,2018,5,11,13,48,49.985,0.4914,-0.5024,-0.05,-0.7096
0.344,-0.118,0.363,0.3,-40.9,-12.8,1023,2018,5,11,13,48,49.989,0.4894,-0.5056,-0.0446,-0.709
0.297,-0.214,0.43,-1.5,-50.9,-21.6,1023,2018,5,11,13,48,50.028,0.4874,-0.5097,-0.0374,-0.7079
0.249,-0.247,0.45,-5.2,-63.5,-37.2,1023,2018,5,11,13,48,50.032,0.486,-0.5142,-0.0274,-0.706
0.231,-0.246,0.445,-7.8,-80.1,-54.1,1023,2018,5,11,13,48,50.049,0.4851,-0.5197,-0.0138,-0.703
0.275,-0.272,0.413,-9.4,-86.7,-67.7,0,2018,5,11,13,48,50.069,0.4849,-0.5259,0.0029,-0.6987
0.311,-0.28,0.403,-7.4,-72.8,-75.8,0,2018,5,11,13,48,50.087,0.4862,-0.5315,0.0202,-0.6932
0.264,-0.314,0.41,-6.5,-49.9,-83.4,0,2018,5,11,13,48,50.127,0.4901,-0.5355,0.0355,-0.6867
0.207,-0.258,0.411,-7.4,-38.1,-94.2,0,2018,5,11,13,48,50.149,0.4967,-0.5376,0.0494,-0.6794
0.174,-0.127,0.356,-7.6,-49.1,-105.5,0,2018,5,11,13,48,50.152,0.5045,-0.5394,0.0645,-0.671
0.212,-0.092,0.292,-4.1,-64.7,-112.4,0,2018,5,11,13,48,50.168,0.5116,-0.5424,0.0821,-0.6611
0.233,-0.178,0.28,1.1,-64.3,-118.3,0,2018,5,11,13,48,50.188,0.5186,-0.5463,0.1007,-0.6498
0.195,-0.154,0.286,5.3,-61.3,-121.9,0,2018,5,11,13,48,50.225,0.5262,-0.5501,0.119,-0.6373
0.19,-0.142,0.224,9.8,-63.7,-125.9,0,2018,5,11,13,48,50.245,0.534,-0.5539,0.1371,-0.6237
0.194,-0.09,0.202,15,-69.6,-130.3,0,2018,5,11,13,48,50.247,0.5417,-0.5582,0.1554,-0.6088
0.199,-0.066,0.177,20.1,-73.2,-131,0,2018,5,11,13,48,50.286,0.5488,-0.5632,0.1743,-0.5924
0.27,-0.099,0.174,25.1,-47.1,-124.8,0,2018,5,11,13,48,50.306,0.5565,-0.5674,0.1911,-0.5759
0.391,-0.066,0.164,34.5,-11.2,-113.8,0,2018,5,11,13,48,50.309,0.5667,-0.5689,0.2027,-0.5603
0.438,0.009,0.188,46.4,6.5,-100.4,0,2018,5,11,13,48,50.347,0.5784,-0.569,0.2093,-0.5456
0.447,0.07,0.23,54.3,13,-85.3,0,2018,5,11,13,48,50.369,0.5901,-0.5693,0.2123,-0.5314
0.477,0.239,0.181,57.8,12,-71.1,0,2018,5,11,13,48,50.371,0.6006,-0.5702,0.213,-0.5182
0.501,0.223,0.228,59.8,0,-57.3,0,2018,5,11,13,48,50.388,0.6092,-0.5724,0.2124,-0.5059
0.487,0.161,0.418,56.8,-10.4,-51.1,0,2018,5,11,13,48,50.409,0.6155,-0.5761,0.212,-0.4941
0.495,0.193,0.547,47,-22.8,-44.3,0,2018,5,11,13,48,50.445,0.6198,-0.5806,0.2126,-0.4831
0.516,0.207,0.619,34.6,-38.2,-35.8,0,2018,5,11,13,48,50.466,0.6215,-0.5859,0.2149,-0.4734
0.536,0.135,0.606,23.1,-49.3,-29.3,0,2018,5,11,13,48,50.468,0.6206,-0.5918,0.2188,-0.4653
0.537,0.055,0.403,18.5,-37.9,-23.3,0,2018,5,11,13,48,50.487,0.6187,-0.5974,0.223,-0.4587
0.513,-0.05,0.462,16.4,0.1,-21.8,0,2018,5,11,13,48,50.506,0.6192,-0.6,0.2247,-0.4537
0.495,-0.015,0.726,1.8,32.2,-23.3,0,2018,5,11,13,48,50.546,0.6235,-0.5978,0.2245,-0.451
0.5,0.113,0.77,-18.7,34.2,-21,0,2018,5,11,13,48,50.565,0.6286,-0.5923,0.225,-0.4508
0.535,0.11,0.635,-32.5,17.5,-16.7,0,2018,5,11,13,48,50.571,0.6317,-0.5865,0.2278,-0.4526
0.504,-0.058,0.486,-37,3.5,-17.5,0,2018,5,11,13,48,50.609,0.6325,-0.5821,0.2328,-0.4547
0.474,-0.086,0.43,-36.2,8,-21.4,1023,2018,5,11,13,48,50.63,0.6331,-0.5778,0.2384,-0.4565
0.464,-0.029,0.387,-35.5,16.8,-25,1023,2018,5,11,13,48,50.632,0.6347,-0.5725,0.2437,-0.458
0.447,0.014,0.372,-34.7,29.3,-25.6,1023,2018,5,11,13,48,50.651,0.6375,-0.5661,0.2483,-0.4597
0.471,0.067,0.327,-33.3,44.4,-24.3,1023,2018,5,11,13,48,50.671,0.6417,-0.5581,0.2516,-0.4618
0.503,0.216,0.273,-27.3,36.8,-20,1023,2018,5,11,13,48,50.708,0.6464,-0.5496,0.2537,-0.4643
0.494,0.254,0.258,-15.6,6.8,-11,1023,2018,5,11,13,48,50.71,0.6487,-0.5449,0.256,-0.4654
0.514,0.081,0.235,5.3,-4,-2.4,1023,2018,5,11,13,48,50.731,0.6488,-0.5443,0.2572,-0.4652
0.449,-0.014,0.212,26.9,15.1,-2.2,1023,2018,5,11,13,48,50.768,0.6501,-0.5451,0.2552,-0.4636
0.407,0.03,0.238,43.9,46.2,-1.5,1023,2018,5,11,13,48,50.787,0.6549,-0.5444,0.2486,-0.4612
0.361,0.074,0.369,47.6,65.3,-2.6,0,2018,5,11,13,48,50.792,0.6626,-0.5414,0.2387,-0.459
0.309,0.213,0.461,41.3,59.9,-2.2,0,2018,5,11,13,48,50.834,0.6707,-0.5374,0.2286,-0.4571
0.312,0.183,0.623,23.3,24,-3.7,0,2018,5,11,13,48,50.838,0.6762,-0.5349,0.2215,-0.4554
0.335,-0.003,0.621,2.3,15.3,-5.8,0,2018,5,11,13,48,50.853,0.6785,-0.5338,0.2193,-0.4543
0.37,0.014,0.58,-18.4,18.2,-9.9,0,2018,5,11,13,48,50.894,0.6805,-0.5307,0.2197,-0.4548
0.393,0.041,0.507,-36.6,17.2,-13.6,0,2018,5,11,13,48,50.914,0.6819,-0.5259,0.2227,-0.4567
0.423,0.141,0.462,-50.7,2.1,-17.1,0,2018,5,11,13,48,50.918,0.6825,-0.5204,0.2285,-0.4593
0.467,0.147,0.326,-57,-28.7,-20.1,0,2018,5,11,13,48,50.936,0.6805,-0.5169,0.2379,-0.4615
0.463,-0.022,0.246,-58.3,-29.5,-22.7,0,2018,5,11,13,48,50.952,0.6767,-0.5153,0.2494,-0.4627
0.485,-0.048,0.252,-57.8,-4.1,-27.9,0,2018,5,11,13,48,50.99,0.6747,-0.5115,0.2599,-0.4642
0.504,0.059,0.252,-55.8,18.3,-30,0,2018,5,11,13,48,51.012,0.6752,-0.5045,0.2685,-0.4662
0.522,0.206,0.159,-47.9,19.5,-27.8,0,2018,5,11,13,48,51.016,0.6769,-0.4964,0.2756,-0.4683
0.534,0.274,0.102,-35.2,11.9,-23.3,0,2018,5,11,13,48,51.034,0.6784,-0.4898,0.2814,-0.4696
0.524,0.352,0.073,-18.7,-8.5,-14.6,0,2018,5,11,13,48,51.071,0.6787,-0.4865,0.286,-0.4697
0.514,0.381,0.064,0.8,-25,-4.4,0,2018,5,11,13,48,51.091,0.6775,-0.4875,0.2893,-0.4684
0.464,0.347,0.109,16.8,-36.5,6.6,0,2018,5,11,13,48,51.095,0.6752,-0.4921,0.2906,-0.4662
0.432,0.275,0.124,29.3,-34.1,19.2,0,2018,5,11,13,48,51.115,0.6722,-0.4989,0.2897,-0.4638
0.416,0.227,0.112,39.6,-40.7,26.6,0,2018,5,11,13,48,51.135,0.6689,-0.5071,0.2864,-0.4618
0.39,0.117,0.131,49,-50.3,29.2,0,2018,5,11,13,48,51.154,0.6646,-0.5177,0.2825,-0.4586
0.345,0.054,0.216,56.7,-35.7,31.4,0,2018,5,11,13,48,51.174,0.6607,-0.5285,0.2771,-0.4551
0.362,0.037,0.285,59.5,-14.4,30.2,0,2018,5,11,13,48,51.212,0.6588,-0.5374,0.2694,-0.4521
0.349,0.126,0.337,57.2,-12.8,30,0,2018,5,11,13,48,51.232,0.6581,-0.5447,0.2606,-0.4494
0.334,-0.039,0.374,51.7,-18.7,28.7,0,2018,5,11,13,48,51.236,0.6565,-0.5524,0.2531,-0.4467
0.317,-0.053,0.536,39.7,-26.3,21,0,2018,5,11,13,48,51.257,0.6546,-0.5594,0.2471,-0.4443
0.315,-0.247,0.533,26.1,-24.3,10.5,0,2018,5,11,13,48,51.277,0.6519,-0.5659,0.2441,-0.4416
0.346,-0.161,0.512,14.8,-2.1,2.4,0,2018,5,11,13,48,51.315,0.6511,-0.5691,0.242,-0.4398
0.405,-0.024,0.524,5.9,-10.4,-6.6,1023,2018,5,11,13,48,51.32,0.6515,-0.57,0.2414,-0.4384
0.449,0.093,0.518,-0.9,-65.3,-12.4,1023,2018,5,11,13,48,51.335,0.6487,-0.5739,0.2449,-0.4355
0.473,0.269,0.603,-13.8,-168.3,-17,1023,2018,5,11,13,48,51.375,0.6375,-0.5861,0.2562,-0.4293
0.476,0.176,0.556,-29.5,-243.8,-16.6,1023,2018,5,11,13,48,51.395,0.6156,-0.6068,0.2762,-0.42
0.481,0.276,0.373,-36.3,-279,-15.2,1023,2018,5,11,13,48,51.399,0.5865,-0.6313,0.3004,-0.4087
0.512,0.145,0.308,-40.1,-283.8,-8.6,1023,2018,5,11,13,48,51.414,0.5532,-0.6563,0.3256,-0.3963
0.49,-0.021,0.43,-44,-272.2,-3.2,1023,2018,5,11,13,48,51.435,0.5188,-0.6791,0.349,-0.3844
0.509,-0.288,0.365,-45.7,-226,2.1,1023,2018,5,11,13,48,51.455,0.4855,-0.6982,0.3698,-0.374
0.497,-0.3,0.37,-40.1,-154.9,7.2,1023,2018,5,11,13,48,51.493,0.4592,-0.7113,0.3849,-0.3673
0.478,-0.257,0.436,-33.5,-100,12.4,0,2018,5,11,13,48,51.514,0.4406,-0.7193,0.3944,-0.3642
0.467,-0.051,0.513,-35.3,-105.4,15.2,0,2018,5,11,13,48,51.518,0.4251,-0.7255,0.4014,-0.3628
0.47,-0.076,0.494,-41.2,-151.9,18.8,0,2018,5,11,13,48,51.555,0.4049,-0.7337,0.4101,-0.3597
0.492,-0.356,0.402,-44.5,-166.1,19.9,0,2018,5,11,13,48,51.575,0.3794,-0.7436,0.4207,-0.3549
0.499,-0.55,0.283,-41.6,-130.2,16.4,0,2018,5,11,13,48,51.579,0.3554,-0.7519,0.4304,-0.3506
0.464,-0.6,-0.006,-30.6,-82.6,12.9,0,2018,5,11,13,48,51.617,0.338,-0.7571,0.437,-0.3484
0.383,-0.417,0.176,-22.9,-68.1,6.8,0,2018,5,11,13,48,51.637,0.3258,-0.7606,0.4416,-0.3467
0.397,-0.764,0.164,-13.9,-8.2,-1.3,0,2018,5,11,13,48,51.641,0.3184,-0.7623,0.4446,-0.346
0.266,-0.691,0.102,-4.1,77.1,-20.2,0,2018,5,11,13,48,51.657,0.3239,-0.7586,0.4439,-0.3498
0.316,-0.405,0.039,3.2,87.2,-37.3,0,2018,5,11,13,48,51.694,0.3374,-0.7511,0.4425,-0.3549
0.375,-0.406,0.026,11.4,60.6,-48.8,0,2018,5,11,13,48,51.712,0.3505,-0.7438,0.4428,-0.3572
0.424,-0.579,0.01,20.4,78.4,-62.4,0,2018,5,11,13,48,51.715,0.3635,-0.7365,0.445,-0.3566
0.387,-0.442,0.069,26.4,104.9,-77.2,0,2018,5,11,13,48,51.754,0.3819,-0.7263,0.4465,-0.3564
0.395,-0.364,0.112,30.6,114.9,-89.7,0,2018,5,11,13,48,51.775,0.4032,-0.714,0.4483,-0.3556
0.48,-0.2,0.13,33,118.4,-98.6,0,2018,5,11,13,48,51.778,0.4261,-0.7,0.4505,-0.3541
0.509,-0.001,0.175,35.3,107,-97.8,0,2018,5,11,13,48,51.818,0.4485,-0.6857,0.4529,-0.3512
0.479,0.115,0.318,32.4,95,-93.4,0,2018,5,11,13,48,51.837,0.469,-0.6721,0.4553,-0.3475
0.461,0.282,0.265,29.1,75.4,-85.9,0,2018,5,11,13,48,51.84,0.4869,-0.6596,0.4581,-0.3433
0.413,0.137,0.263,28.3,49.2,-78.3,0,2018,5,11,13,48,51.856,0.5009,-0.6496,0.4613,-0.3379
0.374,0.046,0.298,26.3,44.7,-77.9,0,2018,5,11,13,48,51.895,0.5128,-0.6408,0.465,-0.3316
0.392,0.114,0.293,25.4,39.7,-74.6,0,2018,5,11,13,48,51.915,0.524,-0.6322,0.4687,-0.3253
0.403,0.268,0.298,25.4,30,-67.1,0,2018,5,11,13,48,51.918,0.5341,-0.6245,0.4722,-0.3188
0.376,0.353,0.331,22.3,0.6,-54.9,0,2018,5,11,13,48,51.956,0.5411,-0.6193,0.4757,-0.3118
0.285,0.103,0.293,20.5,-8.7,-45.5,0,2018,5,11,13,48,51.976,0.5447,-0.6171,0.4795,-0.3041
0.313,0.064,0.328,19.1,0.3,-43,0,2018,5,11,13,48,51.98,0.5483,-0.6148,0.4824,-0.2975
0.384,0.161,0.387,14,-5.7,-38.6,0,2018,5,11,13,48,52.023,0.5517,-0.6123,0.4852,-0.2917
0.431,0.13,0.394,8.1,-12.4,-32.4,1023,2018,5,11,13,48,52.025,0.5533,-0.6109,0.4885,-0.2862
0.465,0.164,0.428,2,-14.4,-27.9,1023,2018,5,11,13,48,52.041,0.5538,-0.6098,0.4919,-0.2816
0.493,0.16,0.459,-2,-18.8,-24.7,1023,2018,5,11,13,48,52.077,0.5534,-0.6091,0.4954,-0.2777
0.535,0.16,0.474,-7.1,-48.9,-23.3,1023,2018,5,11,13,48,52.097,0.5507,-0.6099,0.5,-0.2731
0.615,0.126,0.451,-8,-83.4,-20.6,1023,2018,5,11,13,48,52.101,0.5435,-0.6142,0.5064,-0.2658
0.662,0.096,0.451,-4.9,-75.1,-15.7,1023,2018,5,11,13,48,52.119,0.5349,-0.6201,0.5128,-0.2574
0.601,0.027,0.599,-5.4,-44.6,-13.8,1023,2018,5,11,13,48,52.14,0.5286,-0.6242,0.5174,-0.2512
0.573,-0.035,0.63,-11.1,-18.8,-14.3,1023,2018,5,11,13,48,52.178,0.5252,-0.6252,0.521,-0.2482
0.571,-0.162,0.5,-13.8,-13.1,-18.3,1023,2018,5,11,13,48,52.2,0.5231,-0.6245,0.5246,-0.2468
0.546,-0.208,0.332,-9.4,-11.3,-25,1023,2018,5,11,13,48,52.205,0.5215,-0.6232,0.5287,-0.2449
0.547,-0.244,0.185,2.6,4.7,-33.2,0,2018,5,11,13,48,52.223,0.5218,-0.6208,0.5324,-0.2422
0.559,-0.246,0.069,19,38.3,-47.7,0,2018,5,11,13,48,52.241,0.527,-0.6154,0.5348,-0.2393
0.501,-0.214,0.154,31.1,61.1,-60.6,0,2018,5,11,13,48,52.282,0.5372,-0.6066,0.5361,-0.2363
0.486,-0.135,0.232,36.4,67.6,-72.1,0,2018,5,11,13,48,52.304,0.5501,-0.5955,0.5371,-0.2326
0.491,0.012,0.259,36.8,46.3,-85.3,0,2018,5,11,13,48,52.308,0.5627,-0.5838,0.5394,-0.2266
0.469,0.052,0.238,39.3,28.7,-93,0,2018,5,11,13,48,52.324,0.5732,-0.5734,0.5434,-0.2171
0.454,0.088,0.224,44.2,28.7,-98.2,0,2018,5,11,13,48,52.363,0.5837,-0.5629,0.5476,-0.2061
0.438,0.19,0.272,48,27.4,-100.4,0,2018,5,11,13,48,52.367,0.5942,-0.5521,0.5517,-0.1938
0.34,0.208,0.375,47.8,20,-103.6,0,2018,5,11,13,48,52.379,0.6045,-0.5413,0.5555,-0.181
0.327,0.302,0.41,45.4,6.8,-104.6,0,2018,5,11,13,48,52.418,0.6135,-0.5311,0.5599,-0.1669
0.283,0.313,0.37,44.6,-7.4,-101.4,0,2018,5,11,13,48,52.438,0.6207,-0.5223,0.5646,-0.1515
0.254,0.363,0.341,45.9,-9.1,-92.9,0,2018,5,11,13,48,52.443,0.6268,-0.5148,0.5687,-0.1359
0.223,0.303,0.405,43.8,-15.8,-89.9,0,2018,5,11,13,48,52.481,0.6322,-0.5081,0.5722,-0.1208
0.228,0.305,0.447,40.7,-27.4,-86.3,0,2018,5,11,13,48,52.502,0.6362,-0.5025,0.5757,-0.105
0.264,0.308,0.433,38.4,-30.7,-81.9,0,2018,5,11,13,48,52.504,0.639,-0.498,0.5792,-0.0892
0.255,0.319,0.44,38.3,-30.4,-76.2,0,2018,5,11,13,48,52.54,0.6414,-0.494,0.5822,-0.074
0.287,0.307,0.415,39.7,-28.9,-70.2,0,2018,5,11,13,48,52.561,0.6437,-0.4903,0.5844,-0.0595
0.156,0.333,0.474,39.3,-15,-62.2,0,2018,5,11,13,48,52.564,0.6467,-0.4862,0.5858,-0.0465
0.178,0.511,0.56,33.9,-43.9,-52.1,0,2018,5,11,13,48,52.581,0.6486,-0.4836,0.5866,-0.0343
0.285,0.348,0.421,31.4,-76.4,-46.9,0,2018,5,11,13,48,52.614,0.6467,-0.4859,0.5874,-0.0194
0.314,0.207,0.382,32.7,-71.7,-43.2,0,2018,5,11,13,48,52.634,0.6434,-0.4901,0.5878,-0.0037
0.267,0.218,0.474,35.3,-35.5,-39.2,0,2018,5,11,13,48,52.655,0.6424,-0.4918,0.5875,0.0091
0.203,0.437,0.521,33.6,-34.2,-35.6,0,2018,5,11,13,48,52.661,0.6432,-0.4914,0.5867,0.0195
0.212,0.38,0.433,30.9,-51.8,-28.6,0,2018,5,11,13,48,52.702,0.6426,-0.4929,0.5857,0.0304
0.204,0.252,0.397,30.8,-51.5,-23.6,0,2018,5,11,13,48,52.721,0.6411,-0.496,0.5841,0.0413
0.152,0.235,0.496,31.5,-39.6,-21,0,2018,5,11,13,48,52.724,0.6401,-0.4985,0.5822,0.0512
0.105,0.309,0.555,27.2,-38.8,-18.5,0,2018,5,11,13,48,52.762,0.6397,-0.5004,0.5802,0.0597
0.094,0.188,0.474,22.6,-42.9,-18.5,1023,2018,5,11,13,48,52.782,0.6383,-0.5029,0.5786,0.0682
0.116,0.13,0.51,18.3,-20.6,-19.1,1023,2018,5,11,13,48,52.785,0.6372,-0.5044,0.5776,0.0755
0.057,0.19,0.559,13.3,4,-16.3,1023,2018,5,11,13,48,52.801,0.638,-0.5032,0.5773,0.0795
0.054,0.231,0.527,8.4,15.6,-13.5,1023,2018,5,11,13,48,52.821,0.6398,-0.5003,0.5776,0.081
0.099,0.225,0.491,4.2,16.7,-9.2,1023,2018,5,11,13,48,52.859,0.6417,-0.4972,0.5781,0.0811
0.124,0.292,0.52,0.4,6.8,-5.7,1023,2018,5,11,13,48,52.879,0.643,-0.4949,0.5786,0.0809
0.14,0.334,0.521,-2.1,-19.7,-2,1023,2018,5,11,13,48,52.883,0.6423,-0.4953,0.5791,0.0819
0.154,0.25,0.501,-5.2,-32.1,3.5,1023,2018,5,11,13,48,52.922,0.6394,-0.4987,0.579,0.0844
0.22,0.203,0.508,-5.5,-14.5,7.1,1023,2018,5,11,13,48,52.942,0.6367,-0.502,0.5788,0.0857
0.269,0.2,0.502,-3.2,-8.6,5.8,0,2018,5,11,13,48,52.946,0.6355,-0.5038,0.5786,0.0855
0.289,0.164,0.501,0,-13.8,3.8,0,2018,5,11,13,48,52.968,0.6345,-0.5056,0.5781,0.086
0.303,0.158,0.535,3.6,-11.5,1.6,0,2018,5,11,13,48,52.987,0.6335,-0.5074,0.5775,0.0872
0.295,0.181,0.563,5.3,-3.8,-1.1,0,2018,5,11,13,48,53.007,0.6333,-0.5081,0.5768,0.0884
0.267,0.21,0.564,6,2.2,-2.3,0,2018,5,11,13,48,53.028,0.6338,-0.5079,0.5764,0.0892
0.237,0.23,0.53,6.4,6.4,-1.3,0,2018,5,11,13,48,53.049,0.6348,-0.5072,0.5759,0.0895
0.232,0.241,0.499,7.9,8,-0.6,0,2018,5,11,13,48,53.07,0.6362,-0.5061,0.5753,0.0894
0.2,0.282,0.515,8.5,-2.3,0.5,0,2018,5,11,13,48,53.087,0.6374,-0.5055,0.5744,0.0898
0.196,0.244,0.543,7,-13,2.2,0,2018,5,11,13,48,53.124,0.6374,-0.5065,0.5733,0.0913
0.18,0.205,0.572,4.7,-10.4,3.1,0,2018,5,11,13,48,53.146,0.6369,-0.5081,0.5722,0.0927
0.173,0.205,0.557,3.6,-0.7,3.9,0,2018,5,11,13,48,53.15,0.6369,-0.509,0.5713,0.0932
0.168,0.202,0.535,2.6,1.9,4.6,0,2018,5,11,13,48,53.171,0.6374,-0.5093,0.5706,0.0929
0.169,0.158,0.538,1.1,-2.9,1.8,0,2018,5,11,13,48,53.189,0.6376,-0.5096,0.5701,0.0927
0.169,0.165,0.516,0,-4.6,0,0,2018,5,11,13,48,53.21,0.6373,-0.5102,0.5699,0.0931
0.168,0.189,0.508,-0.4,-1.2,-1.4,0,2018,5,11,13,48,53.23,0.6369,-0.5104,0.57,0.0935
0.188,0.216,0.5,0.3,0.6,-1.1,0,2018,5,11,13,48,53.251,0.6369,-0.5103,0.5701,0.0936
0.19,0.221,0.501,0.6,-1.8,-0.7,0,2018,5,11,13,48,53.269,0.6369,-0.5102,0.5701,0.0938
0.188,0.204,0.525,-0.3,-1.6,-0.6,0,2018,5,11,13,48,53.285,0.6367,-0.5104,0.5701,0.0941
0.181,0.194,0.513,-1.8,1.5,-0.8,0,2018,5,11,13,48,53.325,0.6366,-0.5104,0.5703,0.0941
0.157,0.209,0.534,-4,3.3,-1.2,0,2018,5,11,13,48,53.345,0.6366,-0.51,0.5707,0.0937
0.15,0.211,0.511,-6.6,-5.1,-2.2,0,2018,5,11,13,48,53.349,0.6359,-0.51,0.5715,0.0934
0.163,0.215,0.516,-9,-8.5,-0.3,0,2018,5,11,13,48,53.367,0.6344,-0.5108,0.5724,0.0936
0.166,0.203,0.496,-9.8,-5.9,1.5,0,2018,5,11,13,48,53.388,0.6328,-0.5119,0.5733,0.0935
0.165,0.207,0.487,-9.8,-1.4,2.1,0,2018,5,11,13,48,53.427,0.6315,-0.5126,0.5741,0.0927
0.158,0.217,0.504,-11,-0.6,3.6,0,2018,5,11,13,48,53.448,0.6305,-0.5131,0.575,0.0916
0.133,0.253,0.524,-14.6,-3.7,6.6,0,2018,5,11,13,48,53.452,0.6291,-0.5141,0.5759,0.09
0.112,0.246,0.536,-20.9,-6.1,9.7,0,2018,5,11,13,48,53.49,0.6269,-0.5158,0.5771,0.088
0.118,0.215,0.522,-27.4,-6.5,12.8,0,2018,5,11,13,48,53.494,0.6241,-0.518,0.5786,0.0852
0.126,0.225,0.513,-33.9,-9.4,14.8,1023,2018,5,11,13,48,53.51,0.6205,-0.5207,0.5806,0.0817
0.111,0.226,0.533,-39.4,-12,18.1,1023,2018,5,11,13,48,53.527,0.6159,-0.5241,0.5829,0.0777
0.08,0.216,0.543,-45.6,-7.6,23,1023,2018,5,11,13,48,53.566,0.6109,-0.5278,0.5854,0.0726
0.05,0.245,0.569,-52.1,0,31.6,1023,2018,5,11,13,48,53.586,0.6059,-0.5316,0.5881,0.0656
0.087,0.223,0.592,-60.7,8.1,43.1,1023,2018,5,11,13,48,53.59,0.6008,-0.5357,0.5906,0.0559
0.095,0.238,0.586,-69.6,11.9,53.3,1023,2018,5,11,13,48,53.612,0.5956,-0.54,0.5929,0.0435
0.154,0.228,0.54,-78.4,7.3,62.4,1023,2018,5,11,13,48,53.631,0.5892,-0.5456,0.5952,0.0295
0.184,0.201,0.482,-84.3,8.3,70.2,1023,2018,5,11,13,48,53.667,0.5816,-0.5521,0.5972,0.0141
