ax,ay,az,dpitch,droll,dyaw,heart,time_1,time_2,time_3,time_4,time_5,time_6,w,x,y,z
0.15,-0.179,-0.385,-103.1,254.5,71.1,0,2018,5,17,20,5,12.855,0.7244,-0.2733,-0.4996,0.3884
0.167,-0.131,-0.382,-79.7,245.3,67.7,0,2018,5,17,20,5,12.876,0.7483,-0.2411,-0.4736,0.3968
0.15,-0.098,-0.315,-52.9,207,55.5,1023,2018,5,17,20,5,12.891,0.7668,-0.2109,-0.4515,0.4043
0.145,-0.077,-0.26,-26.5,157.1,38.3,1023,2018,5,17,20,5,12.91,0.7795,-0.1853,-0.435,0.4107
0.122,-0.11,-0.186,-2.6,103.4,16.5,1023,2018,5,17,20,5,12.948,0.7864,-0.1667,-0.4247,0.4162
0.11,-0.153,-0.135,16.3,53.1,-6,1023,2018,5,17,20,5,12.972,0.7883,-0.1552,-0.4203,0.4214
0.107,-0.197,-0.095,26.8,10.1,-24.7,1023,2018,5,17,20,5,12.975,0.7862,-0.1506,-0.4209,0.4264
0.126,-0.203,-0.106,34.8,-21.5,-38.6,1023,2018,5,17,20,5,12.993,0.7813,-0.1516,-0.4248,0.4311
0.125,-0.226,-0.121,41.5,-43.8,-50.8,1023,2018,5,17,20,5,13.017,0.7741,-0.1565,-0.4316,0.4357
0.126,-0.222,-0.123,44.8,-49.2,-59.1,1023,2018,5,17,20,5,13.033,0.7652,-0.1637,-0.4397,0.4407
0.121,-0.2,-0.102,46.8,-45.2,-66.1,1023,2018,5,17,20,5,13.056,0.7553,-0.171,-0.4479,0.4466
0.104,-0.206,-0.101,48,-29.2,-71.3,0,2018,5,17,20,5,13.075,0.7451,-0.1773,-0.4551,0.454
0.101,-0.183,-0.072,51.3,-13.8,-77.6,0,2018,5,17,20,5,13.098,0.7344,-0.1818,-0.461,0.4636
0.089,-0.141,-0.03,53.7,-4,-81.1,0,2018,5,17,20,5,13.134,0.7234,-0.1846,-0.466,0.4747
0.081,-0.077,-0.021,55.8,-2.4,-81.6,0,2018,5,17,20,5,13.134,0.7118,-0.187,-0.4706,0.4865
0.064,-0.012,-0.007,57.1,-3.4,-78.7,0,2018,5,17,20,5,13.156,0.6998,-0.1896,-0.4751,0.4984
0.064,0.009,-0.007,58.9,-3.8,-75.8,0,2018,5,17,20,5,13.174,0.6879,-0.1916,-0.4797,0.5096
0.035,-0.005,0.005,61.1,-0.7,-72.7,0,2018,5,17,20,5,13.212,0.676,-0.193,-0.4844,0.5205
0,0.013,0.014,61.4,4.4,-70.4,0,2018,5,17,20,5,13.236,0.6643,-0.1932,-0.4888,0.5313
0.007,0.051,0.023,60,9.2,-66.1,0,2018,5,17,20,5,13.24,0.6531,-0.1922,-0.4928,0.5418
0.018,0.074,0.061,56.7,18.5,-58.3,0,2018,5,17,20,5,13.254,0.6428,-0.19,-0.4956,0.5521
-0.002,0.103,0.079,51.7,35.2,-49,0,2018,5,17,20,5,13.277,0.6343,-0.1858,-0.4966,0.5625
-0.028,0.152,0.096,44.6,50.1,-41,0,2018,5,17,20,5,13.314,0.6272,-0.1797,-0.4961,0.5728
-0.012,0.16,0.093,39.2,54.2,-34.7,0,2018,5,17,20,5,13.337,0.6215,-0.1729,-0.4941,0.5827
0.012,0.157,0.056,35,61.6,-25.2,0,2018,5,17,20,5,13.342,0.6168,-0.1657,-0.4914,0.592
0.001,0.164,0.066,31.7,71.2,-16.3,0,2018,5,17,20,5,13.356,0.6137,-0.1566,-0.4875,0.6008
-0.041,0.163,0.079,26.1,79.6,-8.4,0,2018,5,17,20,5,13.375,0.6119,-0.1465,-0.4823,0.6093
-0.058,0.162,0.112,17.4,89.1,-1.1,0,2018,5,17,20,5,13.394,0.6118,-0.1354,-0.4753,0.6175
-0.079,0.18,0.137,11.6,79,1.8,0,2018,5,17,20,5,13.417,0.6126,-0.1248,-0.4675,0.6248
-0.061,0.147,0.12,6.7,66,7.8,0,2018,5,17,20,5,13.453,0.614,-0.1157,-0.4607,0.6302
-0.074,0.151,0.137,2.8,56.9,11.8,0,2018,5,17,20,5,13.474,0.616,-0.1077,-0.4546,0.6342
-0.074,0.1,0.095,1,57.1,15.4,0,2018,5,17,20,5,13.479,0.6183,-0.1004,-0.4489,0.6371
-0.091,-0.008,0.036,-9.8,86.4,21.1,0,2018,5,17,20,5,13.498,0.622,-0.0917,-0.4411,0.6403
-0.019,0.071,0.037,-15.5,129.3,27,0,2018,5,17,20,5,13.535,0.6277,-0.0789,-0.4273,0.6457
-0.001,0.074,0.022,-14.9,154.1,32.4,0,2018,5,17,20,5,13.558,0.6342,-0.0622,-0.4092,0.6529
0.01,0.057,0.028,-12.7,172.3,38,0,2018,5,17,20,5,13.563,0.6411,-0.0427,-0.3886,0.6603
0,0.011,0.024,-9.6,185.6,39.6,0,2018,5,17,20,5,13.577,0.6474,-0.0211,-0.3663,0.6679
0.073,0.042,-0.004,-0.6,170.1,37.4,0,2018,5,17,20,5,13.595,0.6527,0.0009,-0.3441,0.6748
0.046,-0.051,-0.001,9,146.2,31.7,0,2018,5,17,20,5,13.619,0.6563,0.021,-0.3256,0.6802
0.021,-0.176,0.034,11.8,143.1,21.5,0,2018,5,17,20,5,13.636,0.658,0.0397,-0.3097,0.6851
0.038,-0.1,0.045,15.3,131.1,9.9,1023,2018,5,17,20,5,13.658,0.6577,0.058,-0.2948,0.6906
0.08,-0.028,0.028,17.1,100.1,-0.8,1023,2018,5,17,20,5,13.675,0.6559,0.0726,-0.2823,0.6961
0.092,0.002,0.059,18.6,59,-8.3,1023,2018,5,17,20,5,13.698,0.6534,0.0828,-0.2742,0.7006
0.095,0.003,0.085,14.7,28.6,-13.3,1023,2018,5,17,20,5,13.735,0.6507,0.0885,-0.2702,0.7039
0.126,0.015,0.1,10.2,-4.9,-14.5,1023,2018,5,17,20,5,13.758,0.6483,0.0903,-0.2701,0.706
0.125,-0.002,0.085,5.6,-31,-14.2,1023,2018,5,17,20,5,13.762,0.6464,0.0884,-0.2736,0.7066
0.144,-0.006,0.039,0.4,-49.2,-15,1023,2018,5,17,20,5,13.781,0.6452,0.0823,-0.2782,0.7067
0.146,0.063,0.075,-3.4,-76.5,-15,1023,2018,5,17,20,5,13.818,0.6443,0.0743,-0.2858,0.7054
0.158,0.002,-0.012,-4.1,-102.3,-16.4,1023,2018,5,17,20,5,13.841,0.6436,0.0623,-0.2964,0.7028
0.157,-0.022,-0.037,-2.6,-118.8,-16,0,2018,5,17,20,5,13.846,0.6429,0.0484,-0.3096,0.6988
0.128,-0.119,-0.1,-4.2,-103.3,-13,0,2018,5,17,20,5,13.859,0.642,0.0342,-0.3233,0.6943
0.073,0.042,-0.043,-2.5,-87.6,-10.4,0,2018,5,17,20,5,13.877,0.6414,0.0229,-0.3336,0.6904
0.052,0.12,0.011,-2.7,-124.8,-11.1,0,2018,5,17,20,5,13.901,0.6408,0.0103,-0.3452,0.6855
0.066,-0.08,-0.042,1.4,-145.2,-17.7,0,2018,5,17,20,5,13.937,0.6393,-0.0065,-0.3612,0.6787
0.09,-0.155,-0.122,8.4,-118.1,-21.6,0,2018,5,17,20,5,13.959,0.6361,-0.0223,-0.3776,0.6724
0.085,-0.105,-0.132,17.4,-73.5,-21.6,0,2018,5,17,20,5,13.963,0.6322,-0.0322,-0.3901,0.6686
0.038,-0.032,-0.041,25.7,-53.7,-20.3,0,2018,5,17,20,5,13.979,0.6275,-0.0384,-0.3998,0.6669
0.022,0.025,0.049,27.1,-36.2,-11.9,0,2018,5,17,20,5,14.003,0.6235,-0.0415,-0.4076,0.6658
0.015,0.056,0.108,32.1,-31.8,-4.1,0,2018,5,17,20,5,14.02,0.6206,-0.0421,-0.4136,0.6647
-0.013,0.156,0.112,33.4,-34,-0.7,0,2018,5,17,20,5,14.043,0.6178,-0.0417,-0.4205,0.663
-0.063,0.18,0.114,28.7,-41.4,3.6,0,2018,5,17,20,5,14.06,0.6154,-0.0421,-0.4284,0.6602
-0.16,0.081,0.201,15.8,-31.4,0.3,0,2018,5,17,20,5,14.077,0.6137,-0.0434,-0.4352,0.6572
-0.009,0.224,0.207,12,-59.8,-1.7,0,2018,5,17,20,5,14.1,0.6118,-0.0471,-0.4418,0.6543
-0.046,-0.005,0.09,9.7,-65.2,1.6,0,2018,5,17,20,5,14.119,0.6106,-0.0525,-0.4503,0.6492
-0.005,0.002,0.065,7.2,-47.9,2.1,0,2018,5,17,20,5,14.143,0.6097,-0.0574,-0.457,0.6449
0.023,0.005,0.017,5.6,-36.9,4.1,0,2018,5,17,20,5,14.159,0.6093,-0.0608,-0.462,0.6414
0.059,-0.017,0.003,4.4,-25.1,7.4,0,2018,5,17,20,5,14.183,0.6091,-0.0635,-0.4659,0.6385
0.062,-0.066,0.018,1.4,-1.5,13.5,0,2018,5,17,20,5,14.217,0.6097,-0.0645,-0.4676,0.6367
0.08,-0.082,-0.016,-2.1,34.3,16.1,0,2018,5,17,20,5,14.239,0.6112,-0.0624,-0.4658,0.6367
0.11,-0.025,-0.047,-2.3,59.9,18.5,0,2018,5,17,20,5,14.244,0.6134,-0.0571,-0.4602,0.6392
0.07,-0.007,-0.024,-1.4,73.5,20.4,0,2018,5,17,20,5,14.261,0.6162,-0.0491,-0.4522,0.6428
0.065,0.016,-0.024,0.5,75.9,18.8,0,2018,5,17,20,5,14.278,0.6189,-0.04,-0.4436,0.6468
0.019,-0.008,-0.004,2.9,66.2,16.7,0,2018,5,17,20,5,14.302,0.6212,-0.0309,-0.4357,0.6505
0.008,-0.037,-0.029,5,59.7,10.7,0,2018,5,17,20,5,14.319,0.6226,-0.023,-0.4292,0.6538
-0.009,-0.055,-0.062,8.3,55.3,2.8,0,2018,5,17,20,5,14.341,0.6228,-0.0158,-0.4239,0.6572
-0.069,-0.08,-0.037,9,53.6,-7.5,1023,2018,5,17,20,5,14.361,0.6216,-0.0093,-0.4195,0.6613
-0.142,-0.105,0.05,-3.1,71.1,-13.9,1023,2018,5,17,20,5,14.383,0.6199,-0.0031,-0.4137,0.6667
-0.105,0.031,0.158,-20.1,86.9,-15.6,1023,2018,5,17,20,5,14.402,0.6194,0.0036,-0.4026,0.6739
-0.053,0.175,0.115,-25.6,68.9,-19.7,1023,2018,5,17,20,5,14.426,0.619,0.0087,-0.3899,0.6816
0.005,0.264,0.064,-22,6.7,-19.1,1023,2018,5,17,20,5,14.443,0.6182,0.0085,-0.3828,0.6863
0.004,0.201,0.041,-15.6,-45.9,-17.9,1023,2018,5,17,20,5,14.465,0.6172,0.0026,-0.3837,0.6868
-0.003,0.16,0.059,-9.8,-87.5,-20.9,1023,2018,5,17,20,5,14.484,0.6158,-0.0073,-0.3902,0.6843
-0.02,0.089,0.055,-7.9,-128.2,-24.5,1023,2018,5,17,20,5,14.507,0.6137,-0.0212,-0.4019,0.6792
-0.024,0.021,0.016,-10.2,-152.4,-28.4,0,2018,5,17,20,5,14.523,0.6107,-0.039,-0.4172,0.6718
-0.015,-0.056,-0.027,-13.7,-154.8,-32.5,0,2018,5,17,20,5,14.54,0.6066,-0.0592,-0.4339,0.6634
0.057,-0.084,-0.054,-18.8,-115,-29.9,0,2018,5,17,20,5,14.563,0.6023,-0.0783,-0.4477,0.6561
0.055,0.052,0.085,-23.8,-90.4,-26.4,0,2018,5,17,20,5,14.581,0.5993,-0.0937,-0.4559,0.6512
0.045,0.109,0.067,-23.7,-105.6,-26,0,2018,5,17,20,5,14.604,0.5967,-0.1086,-0.4636,0.6459
0.075,0.002,-0.05,-22.8,-100.5,-24.6,0,2018,5,17,20,5,14.64,0.5935,-0.1245,-0.4721,0.6396
0.108,-0.023,-0.019,-22.7,-74.5,-21,0,2018,5,17,20,5,14.661,0.5905,-0.1388,-0.4788,0.6345
0.159,0.027,0.01,-22,-51,-15,0,2018,5,17,20,5,14.667,0.5886,-0.1497,-0.4825,0.631
0.178,0.048,-0.014,-18.4,-42.1,-8.6,0,2018,5,17,20,5,14.683,0.5878,-0.1576,-0.4851,0.6278
0.177,0.032,-0.074,-13.7,-29.5,1.2,0,2018,5,17,20,5,14.706,0.5877,-0.1634,-0.4873,0.6246
0.156,0.012,-0.078,-9,-8.7,9.3,0,2018,5,17,20,5,14.744,0.5888,-0.1661,-0.4884,0.6221
0.109,-0.048,-0.068,-6.8,15.3,16.1,0,2018,5,17,20,5,14.749,0.5909,-0.1655,-0.4876,0.6208
0.1,-0.075,-0.079,-5.6,42.3,19.4,0,2018,5,17,20,5,14.765,0.5943,-0.1617,-0.4843,0.6212
0.078,0,-0.092,-2.2,63.3,21.3,0,2018,5,17,20,5,14.783,0.598,-0.1553,-0.4787,0.6236
0.056,0.081,-0.081,5.9,57,18.2,0,2018,5,17,20,5,14.821,0.6014,-0.1474,-0.4728,0.6268
0.029,0.071,-0.052,14.7,30.1,12.8,0,2018,5,17,20,5,14.844,0.6032,-0.1404,-0.4696,0.629
-0.004,0.029,0.004,18.2,6.2,7.8,0,2018,5,17,20,5,14.849,0.6034,-0.1358,-0.4698,0.6298
-0.005,-0.06,0.034,17.4,-3.1,3.1,0,2018,5,17,20,5,14.867,0.6025,-0.1335,-0.4717,0.6296
-0.014,-0.067,0.026,13.5,1.7,-0.3,0,2018,5,17,20,5,14.885,0.6012,-0.132,-0.4735,0.6299
0.019,-0.054,0.018,10,10.6,-1,0,2018,5,17,20,5,14.908,0.6002,-0.1304,-0.474,0.6308
0.052,0.011,0.043,10.3,18.7,-0.8,0,2018,5,17,20,5,14.945,0.5995,-0.1282,-0.473,0.6327
0.064,0.045,0.074,11.1,17,1.5,0,2018,5,17,20,5,14.945,0.5992,-0.1252,-0.4713,0.6348
0.044,0.024,0.076,10.4,16.2,3.9,0,2018,5,17,20,5,14.968,0.5992,-0.1221,-0.4698,0.6366
0.036,0.018,0.056,8.1,18.1,6,0,2018,5,17,20,5,14.987,0.5995,-0.1189,-0.4682,0.638
0.038,0.009,0.024,6,23.2,7.5,0,2018,5,17,20,5,15.004,0.6002,-0.1156,-0.4663,0.6394
0.056,0.028,-0.021,5.4,33.7,10.5,1023,2018,5,17,20,5,15.027,0.6013,-0.1115,-0.4635,0.6411
0.075,0.032,-0.045,7.5,47.5,16.1,1023,2018,5,17,20,5,15.045,0.6028,-0.1059,-0.4598,0.6432
0.047,0,0.025,4.9,66.6,21.1,1023,2018,5,17,20,5,15.068,0.6054,-0.098,-0.4541,0.6462
-0.025,-0.022,0.093,-2.1,88.8,23.2,1023,2018,5,17,20,5,15.089,0.6091,-0.0878,-0.4453,0.6502
-0.011,0.035,0.078,-6.4,96.6,20.8,1023,2018,5,17,20,5,15.106,0.6137,-0.0763,-0.4337,0.6552
0.027,0.096,0.009,-4.6,88.4,19.6,1023,2018,5,17,20,5,15.129,0.6179,-0.0651,-0.4219,0.6601
0.069,0.096,-0.029,1.8,73.7,19.1,1023,2018,5,17,20,5,15.146,0.6213,-0.0548,-0.412,0.6641
0.026,0.047,-0.003,6.1,52.4,18.7,1023,2018,5,17,20,5,15.17,0.6239,-0.0461,-0.405,0.6666
-0.034,-0.059,0.051,2.8,57.8,17.5,0,2018,5,17,20,5,15.207,0.6261,-0.0385,-0.3994,0.6684
-0.064,-0.142,0.057,-9.3,97.9,15.7,0,2018,5,17,20,5,15.207,0.6286,-0.0296,-0.3905,0.6718
-0.104,-0.303,0.01,-21.5,164.2,13.7,0,2018,5,17,20,5,15.23,0.6315,-0.0162,-0.3741,0.6789
-0.107,-0.295,0,-42,244.4,10.6,0,2018,5,17,20,5,15.247,0.6352,0.0034,-0.3457,0.6905
-0.022,-0.095,0.071,-47,284.5,6.2,0,2018,5,17,20,5,15.282,0.638,0.028,-0.3079,0.7052
-0.085,0.05,0.14,-48.5,267.3,-4,0,2018,5,17,20,5,15.304,0.6385,0.0535,-0.2675,0.7195
-0.02,0.244,0.175,-47.9,179.5,-13,0,2018,5,17,20,5,15.309,0.6371,0.0723,-0.2333,0.731
0.015,0.241,0.152,-41.9,71.1,-23.5,0,2018,5,17,20,5,15.347,0.6348,0.0793,-0.213,0.7384
0.002,0.179,0.11,-37.9,0.4,-28.8,0,2018,5,17,20,5,15.347,0.6323,0.0766,-0.2053,0.743
0.022,0.137,0.03,-38.6,-26.3,-29.4,0,2018,5,17,20,5,15.371,0.6302,0.0687,-0.2033,0.7461
0.068,0.12,-0.027,-29.8,-43.2,-33.6,0,2018,5,17,20,5,15.388,0.6277,0.0593,-0.2043,0.7487
0.088,0.153,-0.041,-21.1,-61,-33.9,0,2018,5,17,20,5,15.411,0.6247,0.0492,-0.2085,0.7508
0.094,0.134,-0.031,-17.4,-73.9,-29.4,0,2018,5,17,20,5,15.427,0.6217,0.038,-0.2157,0.7519
0.087,0.064,0.001,-17.1,-76.2,-25.6,0,2018,5,17,20,5,15.445,0.6193,0.0264,-0.2231,0.7522
0.088,0.08,0.012,-15.4,-78.7,-23.1,0,2018,5,17,20,5,15.468,0.6172,0.0148,-0.2305,0.752
0.118,0.04,-0.023,-13.2,-71.5,-20.6,0,2018,5,17,20,5,15.504,0.6151,0.0033,-0.2379,0.7516
0.163,0.002,-0.109,-6.9,-54,-18.9,0,2018,5,17,20,5,15.526,0.6129,-0.0061,-0.2447,0.7512
0.186,-0.049,-0.144,2,-27.1,-16.9,0,2018,5,17,20,5,15.529,0.6106,-0.0115,-0.2499,0.7513
0.163,-0.081,-0.107,3.4,24,-11.8,0,2018,5,17,20,5,15.566,0.6086,-0.0119,-0.2504,0.7528
0.141,-0.125,-0.087,9.2,73.5,-15.7,0,2018,5,17,20,5,15.587,0.6066,-0.0063,-0.2445,0.7564
0.12,-0.125,-0.047,16.9,101.5,-20.2,0,2018,5,17,20,5,15.59,0.6037,0.0043,-0.2336,0.7621
0.099,-0.044,-0.053,22.3,93.6,-20.8,0,2018,5,17,20,5,15.628,0.5998,0.0164,-0.2226,0.7683
0.137,0.152,-0.06,29.2,63.3,-16.9,0,2018,5,17,20,5,15.628,0.5959,0.0269,-0.2141,0.7734
0.16,0.284,-0.095,37.6,4.1,-8,0,2018,5,17,20,5,15.648,0.5927,0.0344,-0.2132,0.7758
0.116,0.324,-0.123,42.3,-63.1,5.8,0,2018,5,17,20,5,15.684,0.5912,0.0367,-0.2216,0.7745
0.07,0.244,-0.106,41.2,-109.7,22.7,0,2018,5,17,20,5,15.706,0.592,0.0337,-0.2379,0.7692
0.039,0.164,-0.049,31.1,-127,39.3,1023,2018,5,17,20,5,15.708,0.5953,0.0274,-0.2577,0.7604
0.009,0.149,-0.035,19.7,-121.8,55.4,1023,2018,5,17,20,5,15.743,0.6013,0.0205,-0.2756,0.7496
-0.032,0.21,-0.002,10.7,-125.7,68.4,1023,2018,5,17,20,5,15.765,0.6091,0.0128,-0.2927,0.7369
-0.093,0.126,-0.06,4.9,-129.7,76.6,1023,2018,5,17,20,5,15.769,0.6182,0.0038,-0.3098,0.7222
-0.126,0.087,-0.082,3.5,-116.8,80.3,1023,2018,5,17,20,5,15.808,0.6278,-0.0048,-0.3258,0.7068
-0.192,-0.006,-0.057,3.7,-88.7,76.5,1023,2018,5,17,20,5,15.829,0.6371,-0.0112,-0.3389,0.6921
-0.244,-0.105,-0.02,4.5,-51.1,69.9,1023,2018,5,17,20,5,15.832,0.6455,-0.014,-0.3479,0.6797
-0.274,-0.205,0.024,3.2,-7.2,60.5,1023,2018,5,17,20,5,15.87,0.6528,-0.0128,-0.352,0.6705
-0.198,-0.196,0.01,-3.4,48.8,54,1023,2018,5,17,20,5,15.893,0.6595,-0.0069,-0.3496,0.6654
-0.131,-0.119,-0.014,-3.8,100.4,45.9,0,2018,5,17,20,5,15.897,0.6655,0.0045,-0.3403,0.6642
-0.12,-0.094,0.003,-5.7,126.1,33.9,0,2018,5,17,20,5,15.911,0.6699,0.02,-0.3272,0.6661
0.013,-0.034,0.04,-3.7,113.1,19.5,0,2018,5,17,20,5,15.929,0.6725,0.0351,-0.3126,0.6698
0.009,0.017,0.054,-0.7,73.3,10.4,0,2018,5,17,20,5,15.953,0.6737,0.0466,-0.301,0.6732
0.075,-0.022,0.078,-4.1,45.1,1.4,0,2018,5,17,20,5,15.973,0.6741,0.0529,-0.2933,0.6757
0.036,-0.059,0.135,-5.6,20.5,-8.5,0,2018,5,17,20,5,15.991,0.6736,0.0553,-0.2884,0.6781
0.062,-0.052,0.091,-5.8,-6.6,-17.6,0,2018,5,17,20,5,16.015,0.6722,0.0538,-0.2865,0.6804
0.083,-0.015,0.096,-4.8,-51.5,-26.1,0,2018,5,17,20,5,16.033,0.6702,0.0479,-0.2889,0.6819
0.115,-0.068,0.092,-3.1,-83.7,-33.2,0,2018,5,17,20,5,16.057,0.6674,0.037,-0.2963,0.6821
0.128,-0.14,0.071,-2.6,-99.7,-41.2,0,2018,5,17,20,5,16.072,0.6635,0.0238,-0.3073,0.6816
0.117,-0.16,0.021,-1.7,-100.9,-46.9,0,2018,5,17,20,5,16.095,0.6587,0.0094,-0.3192,0.6812
0.164,-0.136,-0.078,-0.9,-85.9,-49.4,0,2018,5,17,20,5,16.114,0.653,-0.0043,-0.3302,0.6814
0.156,-0.111,-0.146,-0.6,-55.2,-48.2,0,2018,5,17,20,5,16.138,0.6471,-0.0153,-0.3387,0.6828
0.144,-0.057,-0.142,-3.3,-12.7,-43.7,0,2018,5,17,20,5,16.154,0.6416,-0.0219,-0.3421,0.686
0.121,-0.007,-0.114,-2.4,2.7,-40.5,0,2018,5,17,20,5,16.172,0.6367,-0.0253,-0.342,0.6906
0.121,-0.109,-0.097,-1.2,33.3,-36.8,0,2018,5,17,20,5,16.196,0.6321,-0.0261,-0.3397,0.6958
0.069,-0.127,-0.121,0.3,83.7,-29.9,0,2018,5,17,20,5,16.213,0.6284,-0.0215,-0.3322,0.7029
0.032,-0.106,-0.175,0,126.3,-24.7,0,2018,5,17,20,5,16.236,0.6253,-0.0114,-0.319,0.712
-0.005,-0.065,-0.175,2.6,178.1,-19.6,0,2018,5,17,20,5,16.252,0.6226,0.0042,-0.2999,0.7226
-0.12,0.072,-0.054,3.1,197.1,-21,0,2018,5,17,20,5,16.276,0.6195,0.0247,-0.2763,0.7343
-0.185,0.221,0.074,-1.4,180,-27.2,0,2018,5,17,20,5,16.311,0.615,0.0443,-0.2518,0.7458
-0.205,0.279,0.207,-10.2,118.7,-37.2,0,2018,5,17,20,5,16.335,0.6097,0.0582,-0.2319,0.7556
-0.168,0.143,0.18,-16.5,78.8,-39.2,0,2018,5,17,20,5,16.339,0.604,0.0647,-0.2185,0.7636
-0.153,-0.082,0.07,-28.5,96.9,-42.8,0,2018,5,17,20,5,16.353,0.5983,0.0699,-0.2056,0.7712
-0.052,0.241,0.138,-32.8,102.8,-36.7,0,2018,5,17,20,5,16.371,0.5926,0.0755,-0.189,0.7793
-0.052,0.443,0.144,-35.4,71,-28.9,0,2018,5,17,20,5,16.394,0.5881,0.0788,-0.1739,0.7858
0.025,0.401,0.027,-29.3,34.2,-23.1,0,2018,5,17,20,5,16.431,0.5844,0.0788,-0.1639,0.7907
0.049,0.302,0.038,-34.6,-2.4,-6.6,0,2018,5,17,20,5,16.456,0.5831,0.0753,-0.1588,0.793
0.035,0.382,0.091,-28.4,-49,6.5,1023,2018,5,17,20,5,16.46,0.5845,0.0685,-0.1588,0.7926
0.093,0.346,0.019,-20.2,-120.3,10.5,1023,2018,5,17,20,5,16.477,0.5872,0.0565,-0.1682,0.7897
0.044,0.42,-0.001,-9.8,-187.1,17.1,1023,2018,5,17,20,5,16.497,0.5909,0.0391,-0.1876,0.7836
0.077,0.361,-0.139,1.5,-267.3,16.6,1023,2018,5,17,20,5,16.515,0.5943,0.0153,-0.2186,0.7737
0.043,0.317,-0.174,6.1,-311.4,26,1023,2018,5,17,20,5,16.539,0.597,-0.0134,-0.258,0.7594
-0.002,0.168,-0.237,1.1,-332.9,33.5,1023,2018,5,17,20,5,16.574,0.5989,-0.0454,-0.3013,0.7404
-0.044,0.075,-0.266,-5.1,-313.2,41.1,1023,2018,5,17,20,5,16.598,0.6004,-0.0772,-0.3433,0.718
0.053,0.148,-0.261,-13.5,-279.8,49.2,1023,2018,5,17,20,5,16.603,0.6018,-0.1065,-0.3793,0.6945
0.052,0.229,-0.221,-12.4,-279.1,51.6,1023,2018,5,17,20,5,16.617,0.6033,-0.1331,-0.4121,0.6695
0.052,0.167,-0.243,-14.8,-284.6,56.8,1023,2018,5,17,20,5,16.634,0.603,-0.1606,-0.4452,0.642
-0.02,0.057,-0.22,-17.3,-281.4,54.8,0,2018,5,17,20,5,16.657,0.602,-0.1875,-0.476,0.6129
0.025,0.058,-0.31,-14.4,-280.2,50.3,0,2018,5,17,20,5,16.676,0.599,-0.2142,-0.5054,0.5828
-0.036,0.03,-0.279,-10.5,-284.5,42.9,0,2018,5,17,20,5,16.714,0.5936,-0.2404,-0.5338,0.552
-0.008,-0.051,-0.321,-9,-285.5,37.2,0,2018,5,17,20,5,16.737,0.5854,-0.2673,-0.5615,0.52
0.016,-0.147,-0.335,-2.6,-260,28.8,0,2018,5,17,20,5,16.742,0.5755,-0.2922,-0.5866,0.4889
0.028,-0.122,-0.257,4.1,-219.6,24.9,0,2018,5,17,20,5,16.76,0.5651,-0.3131,-0.6078,0.4616
-0.043,-0.185,-0.105,2,-198.5,16.6,0,2018,5,17,20,5,16.794,0.5542,-0.3314,-0.6262,0.4368
0.007,-0.156,0.007,-2.3,-176.8,14.6,0,2018,5,17,20,5,16.818,0.5438,-0.3481,-0.6408,0.4151
-0.031,-0.18,0.053,-7.3,-149.7,16.1,0,2018,5,17,20,5,16.823,0.5353,-0.3621,-0.6526,0.3953
-0.058,-0.258,0.111,-14.3,-112.7,15.1,0,2018,5,17,20,5,16.836,0.5295,-0.3732,-0.6608,0.3787
-0.024,-0.249,0.168,-27.8,-68.5,14.7,0,2018,5,17,20,5,16.854,0.527,-0.3812,-0.6657,0.3656
0.031,-0.161,0.224,-39.9,-25.6,22,0,2018,5,17,20,5,16.876,0.5291,-0.3854,-0.6666,0.3564
0.034,-0.086,0.26,-52.6,6.6,31.3,0,2018,5,17,20,5,16.914,0.5357,-0.3858,-0.6645,0.3499
0.009,-0.037,0.186,-61,26.6,38,0,2018,5,17,20,5,16.938,0.5457,-0.3834,-0.6605,0.3447
0.002,-0.075,0.113,-67.4,41.4,44.4,0,2018,5,17,20,5,16.942,0.558,-0.3789,-0.655,0.3403
0.031,-0.006,0.012,-71.3,41.1,48.3,0,2018,5,17,20,5,16.958,0.5719,-0.3734,-0.6481,0.3365
0.022,0.021,-0.048,-67,16.2,48.3,0,2018,5,17,20,5,16.995,0.5844,-0.3688,-0.6429,0.3301
-0.001,-0.134,-0.082,-60.4,1.4,46.2,0,2018,5,17,20,5,17.018,0.5941,-0.3666,-0.6395,0.3217
-0.013,-0.168,-0.074,-60.5,26.7,44.5,0,2018,5,17,20,5,17.023,0.6034,-0.3643,-0.6356,0.3147
-0.01,-0.221,-0.098,-61.8,75.9,41.4,0,2018,5,17,20,5,17.038,0.6152,-0.3579,-0.6291,0.3122
0.019,-0.173,-0.161,-58.1,106.4,37.4,0,2018,5,17,20,5,17.056,0.63,-0.3461,-0.62,0.3144
0.047,-0.016,-0.228,-45.4,97.2,35.8,0,2018,5,17,20,5,17.079,0.6439,-0.3333,-0.6106,0.3183
0.054,0.121,-0.161,-26.7,55.4,27.5,0,2018,5,17,20,5,17.096,0.654,-0.3227,-0.6043,0.3207
0.038,0.001,-0.086,-12.7,8.7,15.2,0,2018,5,17,20,5,17.12,0.6584,-0.3182,-0.6022,0.3201
0.033,-0.109,-0.106,-5.4,-9.4,4.9,1023,2018,5,17,20,5,17.137,0.6592,-0.3182,-0.6024,0.318
0.039,-0.149,-0.157,-1.4,-0.7,-3.6,1023,2018,5,17,20,5,17.16,0.6593,-0.3186,-0.6027,0.3169
0.084,-0.141,-0.169,1.6,13.6,-8.3,1023,2018,5,17,20,5,17.178,0.6594,-0.3181,-0.6022,0.3181
0.12,-0.103,-0.184,7.6,24.1,-11.2,1023,2018,5,17,20,5,17.202,0.6595,-0.3165,-0.601,0.3216
0.122,-0.055,-0.159,14.8,25.6,-11.9,1023,2018,5,17,20,5,17.219,0.6591,-0.314,-0.6005,0.3261
0.106,-0.081,-0.129,21.2,30.3,-13.5,1023,2018,5,17,20,5,17.242,0.6579,-0.3108,-0.6004,0.3313
0.104,-0.068,-0.112,26,34.7,-17.4,1023,2018,5,17,20,5,17.26,0.6564,-0.307,-0.6005,0.3377
0.108,-0.037,-0.118,32.3,29,-21.3,0,2018,5,17,20,5,17.283,0.6539,-0.3034,-0.601,0.3448
0.089,-0.05,-0.128,39.1,23.6,-24,0,2018,5,17,20,5,17.301,0.6501,-0.3004,-0.6026,0.3519
0.086,-0.073,-0.131,43.1,30.8,-24.9,0,2018,5,17,20,5,17.318,0.6456,-0.2973,-0.6044,0.3595
0.082,-0.081,-0.112,45.2,44.2,-25.1,0,2018,5,17,20,5,17.342,0.6413,-0.2928,-0.6058,0.3686
0.047,-0.065,-0.083,45.3,53.9,-26.6,0,2018,5,17,20,5,17.362,0.6372,-0.287,-0.6065,0.379
0.044,-0.013,-0.06,46.1,56.4,-28.6,0,2018,5,17,20,5,17.38,0.6327,-0.2813,-0.6067,0.3903
0.018,0.017,-0.017,46.6,56.8,-27.1,0,2018,5,17,20,5,17.404,0.6282,-0.2752,-0.6066,0.4018
-0.017,-0.052,-0.02,46.2,62.9,-29,0,2018,5,17,20,5,17.421,0.624,-0.2686,-0.6062,0.4133
-0.031,-0.06,-0.022,44.7,73.6,-33.7,0,2018,5,17,20,5,17.442,0.6198,-0.2614,-0.6047,0.4262
-0.032,0.003,-0.023,44,74.6,-35.5,0,2018,5,17,20,5,17.479,0.6159,-0.2536,-0.6024,0.4397
0.014,0.091,-0.001,46.4,67.3,-31.3,0,2018,5,17,20,5,17.503,0.6117,-0.2458,-0.6002,0.4526
0.007,0.084,0.003,52.2,59.5,-27.7,0,2018,5,17,20,5,17.507,0.607,-0.2381,-0.5992,0.4644
-0.021,0.066,0.052,54.9,55.2,-25.7,0,2018,5,17,20,5,17.521,0.6019,-0.23,-0.5989,0.4754
-0.053,0.073,0.104,52.3,57.1,-22.5,0,2018,5,17,20,5,17.538,0.5969,-0.2217,-0.5985,0.486
-0.055,0.083,0.11,45.1,69,-15.5,0,2018,5,17,20,5,17.562,0.5925,-0.2131,-0.5976,0.4963
-0.079,0.102,0.217,24.2,97.1,-4.5,0,2018,5,17,20,5,17.579,0.591,-0.2023,-0.5935,0.5073
-0.085,0.207,0.347,-0.2,120.8,5.5,0,2018,5,17,20,5,17.603,0.5939,-0.1897,-0.5846,0.519
-0.047,0.305,0.351,-7.9,85.5,0.2,0,2018,5,17,20,5,17.62,0.5982,-0.1786,-0.5742,0.5294
-0.018,0.207,0.253,-8.8,33.7,1.8,0,2018,5,17,20,5,17.643,0.6009,-0.1735,-0.5681,0.5347
0.002,0.018,0.113,-6.8,16.2,2.4,0,2018,5,17,20,5,17.661,0.6026,-0.1718,-0.5653,0.5364
-0.005,-0.081,0.037,-7.4,26.7,4,0,2018,5,17,20,5,17.683,0.6043,-0.1699,-0.5622,0.5382
0.02,-0.083,0.007,-8.1,40.9,5.3,0,2018,5,17,20,5,17.703,0.6063,-0.1671,-0.5581,0.5411
0.054,-0.078,0,-7.6,55.4,5.1,0,2018,5,17,20,5,17.725,0.6086,-0.1628,-0.5527,0.5453
0.057,-0.039,-0.005,-8.4,68.4,5.6,0,2018,5,17,20,5,17.742,0.6113,-0.1571,-0.5459,0.5509
0.059,-0.016,0.021,-9,79.7,6.6,0,2018,5,17,20,5,17.759,0.6146,-0.1499,-0.5376,0.5574
0.05,-0.045,0.022,-8.5,93.1,5.7,0,2018,5,17,20,5,17.782,0.6181,-0.1414,-0.5279,0.5649
0.046,-0.084,0.02,-12.2,117.9,6.5,1023,2018,5,17,20,5,17.8,0.6218,-0.1312,-0.5163,0.5739
0.031,-0.149,0.032,-18.2,150.7,8.2,1023,2018,5,17,20,5,17.821,0.6266,-0.118,-0.5008,0.5852
-0.012,-0.167,0.077,-27.3,180.6,5.7,1023,2018,5,17,20,5,17.86,0.6321,-0.1022,-0.4811,0.5986
-0.035,-0.092,0.117,-37.4,198.9,0.5,1023,2018,5,17,20,5,17.882,0.6381,-0.0846,-0.457,0.6137
-0.051,0.037,0.14,-49.3,184,-5.3,1023,2018,5,17,20,5,17.909,0.6441,-0.0675,-0.4304,0.6286
-0.014,0.171,0.129,-51.2,132.7,-16.6,1023,2018,5,17,20,5,17.928,0.6484,-0.0558,-0.4065,0.6411
0.018,0.333,0.158,-41.2,33.1,-30.5,1023,2018,5,17,20,5,17.93,0.6499,-0.0532,-0.3915,0.6491
0.027,0.342,0.127,-33.1,-79.7,-43.5,1023,2018,5,17,20,5,17.945,0.6478,-0.0629,-0.3899,0.6513
0.078,0.194,0.008,-23,-171,-53.7,0,2018,5,17,20,5,17.967,0.6425,-0.0842,-0.401,0.6474
0.108,0.021,-0.12,-10.3,-216.5,-59.6,0,2018,5,17,20,5,17.985,0.6338,-0.1127,-0.42,0.6395
0.153,-0.003,-0.224,2.3,-231.5,-59.3,0,2018,5,17,20,5,18.006,0.6222,-0.1427,-0.4435,0.629
0.143,-0.128,-0.292,9.3,-197.1,-50.8,0,2018,5,17,20,5,18.025,0.6097,-0.1698,-0.4664,0.6178
0.196,-0.003,-0.229,13.3,-150.1,-40.7,0,2018,5,17,20,5,18.062,0.5983,-0.1907,-0.4846,0.6088
0.186,0.023,-0.189,12.2,-89,-23.5,0,2018,5,17,20,5,18.085,0.5896,-0.2043,-0.4975,0.6024
0.189,0.066,-0.138,7,-24.4,-2.7,0,2018,5,17,20,5,18.089,0.5855,-0.2101,-0.5037,0.5992
0.176,0.054,-0.125,4.8,32.1,17.3,0,2018,5,17,20,5,18.107,0.586,-0.2083,-0.504,0.5991
0.144,0.103,-0.188,6.8,83,38.6,0,2018,5,17,20,5,18.124,0.5906,-0.199,-0.4994,0.6017
0.097,0.122,-0.182,10.8,126.8,59.7,0,2018,5,17,20,5,18.148,0.5985,-0.1829,-0.4909,0.6059
0,0.036,-0.118,11.7,182.5,75.8,0,2018,5,17,20,5,18.185,0.6091,-0.1598,-0.4785,0.6118
-0.148,-0.061,-0.035,7,239.3,74.2,0,2018,5,17,20,5,18.209,0.6217,-0.1297,-0.459,0.6211
-0.233,0.006,0.065,-1.5,269.7,62.8,0,2018,5,17,20,5,18.212,0.6341,-0.0956,-0.4323,0.6338
-0.245,0.131,0.102,-6,248.4,38.8,0,2018,5,17,20,5,18.226,0.6438,-0.0629,-0.403,0.6473
-0.225,0.227,0.109,-4.7,169.7,12.1,0,2018,5,17,20,5,18.243,0.6488,-0.0381,-0.3785,0.6589
-0.162,0.24,0.124,0.3,75.5,-4.9,0,2018,5,17,20,5,18.267,0.6498,-0.0246,-0.3645,0.6664
-0.092,0.208,0.117,5.5,-2.2,-17.1,0,2018,5,17,20,5,18.303,0.6484,-0.0213,-0.361,0.6698
-0.012,0.158,0.108,9,-56.2,-20.3,0,2018,5,17,20,5,18.327,0.6456,-0.0253,-0.3654,0.6699
0.053,0.213,0.173,13.6,-101.2,-19.1,0,2018,5,17,20,5,18.331,0.642,-0.0343,-0.3759,0.6672
0.039,0.169,0.12,18,-146.5,-16.1,0,2018,5,17,20,5,18.349,0.6379,-0.0475,-0.3923,0.6609
0.071,0.074,0.044,21.4,-172.4,-15.8,0,2018,5,17,20,5,18.366,0.6333,-0.0644,-0.412,0.6518
0.043,0.099,0.013,18.9,-182.4,-6.9,0,2018,5,17,20,5,18.387,0.6287,-0.0824,-0.4331,0.6405
0.082,-0.042,-0.103,14.1,-165.2,-3.3,0,2018,5,17,20,5,18.424,0.6237,-0.1007,-0.4547,0.6277
0.046,-0.005,0.024,4.5,-116.5,6.1,0,2018,5,17,20,5,18.424,0.6202,-0.1153,-0.4708,0.6166
0.048,0.082,0.066,-2.1,-96,6.8,0,2018,5,17,20,5,18.447,0.619,-0.1259,-0.4811,0.6077
0.001,0.086,0.006,-2.3,-95.2,10.4,0,2018,5,17,20,5,18.482,0.6182,-0.1354,-0.4904,0.599
0.018,0.103,-0.013,-3.9,-87.8,14.1,0,2018,5,17,20,5,18.505,0.6178,-0.1442,-0.4996,0.5897
-0.003,0.082,0.013,-1.3,-93.1,17.7,1023,2018,5,17,20,5,18.508,0.6178,-0.1524,-0.5086,0.5799
-0.039,-0.018,0.033,-1.2,-81.8,17.4,1023,2018,5,17,20,5,18.545,0.6174,-0.1601,-0.5177,0.57
-0.002,-0.035,0.014,-2.4,-63,16.6,1023,2018,5,17,20,5,18.566,0.6173,-0.1666,-0.525,0.5616
-0.041,-0.097,0.05,-6.8,-50.4,13.3,1023,2018,5,17,20,5,18.568,0.6174,-0.1718,-0.5304,0.5548
-0.104,-0.093,0.191,-19.9,-24,14.7,1023,2018,5,17,20,5,18.605,0.6191,-0.1756,-0.5326,0.5496
-0.063,0.003,0.16,-30.5,-8.2,8.5,1023,2018,5,17,20,5,18.627,0.6223,-0.1785,-0.5314,0.5462
0.024,0.089,0.129,-38.1,-5.4,4,1023,2018,5,17,20,5,18.632,0.6264,-0.1813,-0.5275,0.5443
0.046,0.167,0.152,-35.2,-48.4,1.9,1023,2018,5,17,20,5,18.649,0.6293,-0.1874,-0.526,0.5405
0.07,0.011,0.017,-29.6,-80.7,4,1023,2018,5,17,20,5,18.671,0.6303,-0.1977,-0.5287,0.5329
0.052,-0.095,-0.026,-28.5,-74,5.9,0,2018,5,17,20,5,18.708,0.6302,-0.2093,-0.5328,0.5243
0.06,-0.161,-0.05,-30.5,-46.6,8.9,0,2018,5,17,20,5,18.708,0.6308,-0.2188,-0.5356,0.5169
0.097,-0.151,-0.047,-31.9,-8.4,10.9,0,2018,5,17,20,5,18.731,0.6335,-0.2237,-0.535,0.512
0.092,0.038,0.162,-37,38.3,19.8,0,2018,5,17,20,5,18.751,0.6387,-0.2232,-0.5302,0.5108
0.123,0.08,0.286,-48,9.3,21.5,0,2018,5,17,20,5,18.769,0.6455,-0.2227,-0.5239,0.5089
0.025,0.083,0.322,-59.8,-8.7,20,0,2018,5,17,20,5,18.787,0.6524,-0.2255,-0.5185,0.5045
0.008,0.079,0.211,-67.6,-50.2,19.6,0,2018,5,17,20,5,18.813,0.6587,-0.2329,-0.5146,0.4969
0.037,-0.02,0.058,-68.1,-69.9,18,0,2018,5,17,20,5,18.828,0.664,-0.2443,-0.5125,0.4865
0.035,-0.084,0.006,-67.2,-62.4,17.7,0,2018,5,17,20,5,18.851,0.6684,-0.2567,-0.5107,0.4757
-0.001,-0.112,-0.019,-69.6,-39.9,17.7,0,2018,5,17,20,5,18.888,0.6732,-0.2674,-0.5078,0.4661
-0.018,-0.121,-0.093,-72.9,-13.2,17.2,0,2018,5,17,20,5,18.888,0.6792,-0.2753,-0.5026,0.4584
-0.006,-0.1,-0.165,-72.3,11.7,18.9,0,2018,5,17,20,5,18.912,0.6868,-0.2798,-0.495,0.4526
0.009,-0.166,-0.274,-66.7,45.9,20,0,2018,5,17,20,5,18.929,0.6957,-0.2801,-0.4853,0.4492
0.026,-0.208,-0.384,-57.3,90,20.3,0,2018,5,17,20,5,18.968,0.7058,-0.2746,-0.4735,0.4495
0.059,-0.151,-0.427,-42.8,121.5,18.6,0,2018,5,17,20,5,18.968,0.7166,-0.2634,-0.4598,0.4534
0.088,-0.063,-0.39,-21.6,127.4,13.1,0,2018,5,17,20,5,18.99,0.7261,-0.2484,-0.4465,0.4599
0.113,0.017,-0.355,1.8,110.9,4.6,0,2018,5,17,20,5,19.009,0.7326,-0.2329,-0.4362,0.4676
0.107,0.049,-0.274,22.2,86,-4.7,0,2018,5,17,20,5,19.03,0.7355,-0.2192,-0.4298,0.4756
0.099,0.078,-0.225,37.9,57.8,-13.3,0,2018,5,17,20,5,19.068,0.735,-0.208,-0.4276,0.4832
0.077,0.042,-0.164,48.6,32,-19.3,0,2018,5,17,20,5,19.089,0.7317,-0.2001,-0.4291,0.4902
0.072,0.015,-0.094,51.7,10.4,-23.2,0,2018,5,17,20,5,19.092,0.7262,-0.1956,-0.4335,0.4962
0.069,0.009,-0.034,52.2,-1,-26.1,0,2018,5,17,20,5,19.126,0.72,-0.1929,-0.4389,0.5016
0.055,0.038,0.021,51,-15.5,-27.5,0,2018,5,17,20,5,19.15,0.7133,-0.1918,-0.4448,0.5064
0.058,0.058,0.049,48.2,-32.7,-27.5,0,2018,5,17,20,5,19.154,0.7063,-0.1926,-0.4515,0.5099
0.083,0.055,0.04,46.2,-48.8,-26.1,0,2018,5,17,20,5,19.17,0.699,-0.1956,-0.4591,0.512
0.062,0.049,0.016,43.9,-62.2,-22.6,0,2018,5,17,20,5,19.188,0.6914,-0.2005,-0.468,0.5124
0.068,0.045,-0.062,44,-69.3,-17.1,0,2018,5,17,20,5,19.211,0.6836,-0.2065,-0.4782,0.5111
0.055,-0.041,0.008,46.3,-57,-11.2,0,2018,5,17,20,5,19.249,0.6759,-0.2119,-0.4888,0.5091
0.038,-0.063,-0.01,45.7,-25.9,-6.8,0,2018,5,17,20,5,19.271,0.6693,-0.214,-0.4973,0.5086
0.059,-0.042,-0.102,49.3,13.7,0.1,0,2018,5,17,20,5,19.275,0.6642,-0.2115,-0.5033,0.5105
0.029,-0.034,-0.065,57.1,47,6.4,1023,2018,5,17,20,5,19.292,0.6606,-0.2032,-0.5072,0.5148
-0.035,-0.033,0.036,57.8,75,8.3,1023,2018,5,17,20,5,19.316,0.6581,-0.1903,-0.5086,0.5214
-0.063,0.022,0.101,53.9,89.8,6.6,1023,2018,5,17,20,5,19.352,0.6569,-0.1744,-0.5071,0.5298
-0.072,0.058,0.166,48.9,88.3,4,1023,2018,5,17,20,5,19.375,0.6556,-0.1586,-0.5046,0.5387
-0.124,0.075,0.211,40.5,74,-2.2,1023,2018,5,17,20,5,19.38,0.6539,-0.1449,-0.502,0.547
-0.098,0.11,0.191,29,52.8,-6.8,1023,2018,5,17,20,5,19.393,0.652,-0.1348,-0.4998,0.5539
-0.061,0.185,0.214,19.5,23.3,-9.2,1023,2018,5,17,20,5,19.43,0.65,-0.1288,-0.4986,0.5588
-0.034,0.164,0.235,12.2,-12.1,-8.3,1023,2018,5,17,20,5,19.452,0.6478,-0.1277,-0.4998,0.5604
-0.062,0.077,0.232,5,-27.4,-8.5,1023,2018,5,17,20,5,19.457,0.6457,-0.1301,-0.5027,0.5597
-0.03,0.05,0.179,-2.3,-27.6,-7.1,1023,2018,5,17,20,5,19.473,0.6442,-0.1339,-0.5054,0.5581
-0.006,0.026,0.126,-5.8,-19.6,-2.5,0,2018,5,17,20,5,19.492,0.6437,-0.1374,-0.5068,0.5565
0.018,-0.03,0.071,-5.6,-9.7,-0.4,0,2018,5,17,20,5,19.515,0.6441,-0.1396,-0.5068,0.5556
0.016,-0.022,0.012,-4.3,0.1,-0.3,0,2018,5,17,20,5,19.534,0.6444,-0.1408,-0.5063,0.5553
0.039,-0.032,-0.044,-3.8,9.1,-0.7,0,2018,5,17,20,5,19.554,0.6446,-0.1411,-0.5054,0.5559
0.047,-0.007,-0.053,-2.6,11.7,-1.1,0,2018,5,17,20,5,19.591,0.6447,-0.1407,-0.5041,0.557
0.075,-0.001,-0.038,0.4,1.5,-4.3,0,2018,5,17,20,5,19.615,0.6444,-0.1408,-0.5033,0.558
0.075,-0.061,0.009,2,-1.5,-5.4,0,2018,5,17,20,5,19.619,0.6435,-0.1421,-0.5033,0.5588
0.033,-0.026,-0.005,2.5,0.2,-9.5,0,2018,5,17,20,5,19.634,0.6423,-0.143,-0.5031,0.56
0.091,0.019,-0.062,6.8,-5.6,-13.2,0,2018,5,17,20,5,19.652,0.6405,-0.1444,-0.5036,0.5614
0.099,0.055,-0.081,13.9,-13.6,-13.4,0,2018,5,17,20,5,19.675,0.6376,-0.1463,-0.5054,0.5625
0.078,0.056,-0.034,18.3,-22.1,-14.1,0,2018,5,17,20,5,19.692,0.6341,-0.1484,-0.5086,0.563
0.041,0.031,0.016,20.3,-28.7,-15.1,0,2018,5,17,20,5,19.716,0.6302,-0.1508,-0.5126,0.5631
0.015,0.007,0.037,15.8,-18.4,-12.8,0,2018,5,17,20,5,19.752,0.6266,-0.1531,-0.5164,0.5631
0.036,0,0.039,10.8,-1.2,-9.8,0,2018,5,17,20,5,19.776,0.6242,-0.1539,-0.5181,0.5641
0.007,-0.061,0.04,5.2,29.3,-6.3,0,2018,5,17,20,5,19.78,0.623,-0.1525,-0.517,0.5667
-0.012,-0.031,0.107,-6.2,66.3,-3.3,0,2018,5,17,20,5,19.797,0.624,-0.1478,-0.5117,0.5717
-0.003,-0.101,0.117,-10.8,97.2,-5.5,0,2018,5,17,20,5,19.818,0.6268,-0.14,-0.5014,0.5797
0,-0.103,0.092,-16,120.2,-11.4,0,2018,5,17,20,5,19.835,0.6297,-0.1302,-0.4878,0.5903
-0.007,-0.037,0.123,-17.9,112,-14.5,0,2018,5,17,20,5,19.853,0.6323,-0.1204,-0.4727,0.6017
-0.024,0.012,0.08,-20.4,88.3,-13.5,0,2018,5,17,20,5,19.876,0.6348,-0.1122,-0.459,0.6112
0.018,0.061,-0.004,-16.8,57.9,-14.7,0,2018,5,17,20,5,19.894,0.6364,-0.1071,-0.4484,0.6183
0.032,0.082,-0.063,-8.1,30.2,-14.2,0,2018,5,17,20,5,19.916,0.6366,-0.1047,-0.442,0.6231
0.018,0.091,-0.069,0.2,6.1,-13.6,0,2018,5,17,20,5,19.936,0.6358,-0.104,-0.4395,0.6258
-0.005,0.059,-0.059,5.6,-4.3,-10.7,0,2018,5,17,20,5,19.96,0.6342,-0.1045,-0.44,0.627
-0.057,0.087,-0.019,4.2,-1.3,-5.5,0,2018,5,17,20,5,19.976,0.6331,-0.1043,-0.4409,0.6275
0.022,0.116,-0.025,1.8,6.1,-0.9,0,2018,5,17,20,5,20.001,0.6326,-0.1036,-0.4409,0.6281
0.035,0.248,-0.032,2.1,10.1,11.3,0,2018,5,17,20,5,20.018,0.6335,-0.1015,-0.4399,0.6282
0.034,0.289,0.007,0,4,17.7,0,2018,5,17,20,5,20.042,0.6353,-0.0994,-0.4394,0.6271
0.013,0.285,0.074,0.1,-15.9,17.3,1023,2018,5,17,20,5,20.057,0.6371,-0.0986,-0.4403,0.6248
-0.072,0.132,0.116,-6,-38.7,16.1,1023,2018,5,17,20,5,20.074,0.6386,-0.101,-0.4436,0.6205
-0.101,-0.033,0.061,-22.6,-17,11.8,1023,2018,5,17,20,5,20.097,0.6408,-0.1043,-0.4457,0.6162
0.015,-0.013,0.043,-26.1,5.5,10,1023,2018,5,17,20,5,20.134,0.6442,-0.1062,-0.443,0.6143
0.037,-0.046,0.017,-23.9,4.8,7.5,1023,2018,5,17,20,5,20.158,0.6469,-0.1081,-0.4396,0.6135
0.019,-0.074,0.026,-21.4,12.3,8.6,1023,2018,5,17,20,5,20.161,0.6494,-0.1095,-0.4362,0.613
-0.001,-0.039,0.082,-19.9,6.5,1.8,1023,2018,5,17,20,5,20.18,0.6518,-0.1103,-0.4325,0.613
0.034,-0.062,0.028,-16.7,-9.1,-3,1023,2018,5,17,20,5,20.197,0.653,-0.1128,-0.4302,0.6129
0.067,-0.108,-0.04,-12.2,-14.3,-3.8,0,2018,5,17,20,5,20.22,0.6531,-0.1169,-0.43,0.6122
0.115,-0.054,-0.056,-5.5,-5.1,-3,0,2018,5,17,20,5,20.237,0.6531,-0.1193,-0.43,0.6117
0.112,-0.029,-0.045,3.9,-2.4,-1.1,0,2018,5,17,20,5,20.26,0.6526,-0.1206,-0.43,0.612
0.089,-0.102,-0.025,6.8,10.8,2.6,0,2018,5,17,20,5,20.281,0.6522,-0.1197,-0.4303,0.6123
0.078,-0.038,0.026,10.1,18.9,10.5,0,2018,5,17,20,5,20.303,0.6524,-0.1169,-0.4294,0.6133
0.053,-0.031,0.036,10.8,24.8,19.2,0,2018,5,17,20,5,20.32,0.6535,-0.1128,-0.4282,0.6137
0.007,-0.013,0.016,6.4,49.3,20.2,0,2018,5,17,20,5,20.336,0.6557,-0.1065,-0.4255,0.6144
0.046,0.064,-0.002,5.1,64.3,14.9,0,2018,5,17,20,5,20.357,0.6581,-0.0982,-0.4199,0.6171
0.017,0.214,-0.006,10.3,41.6,13.1,0,2018,5,17,20,5,20.393,0.6602,-0.0898,-0.4147,0.6196
-0.011,0.187,-0.034,15.6,6.4,7.4,0,2018,5,17,20,5,20.416,0.6606,-0.085,-0.414,0.6203
-0.035,0.112,-0.012,17.3,-25.2,2.5,0,2018,5,17,20,5,20.421,0.6599,-0.0836,-0.4171,0.6191
-0.049,0.055,0.126,5.6,-33.9,4.4,0,2018,5,17,20,5,20.438,0.6595,-0.0846,-0.4214,0.6165
-0.048,-0.126,0.124,-3.7,-21.2,-1.8,0,2018,5,17,20,5,20.46,0.6593,-0.0878,-0.4244,0.6143
-0.013,-0.007,0.101,-9.6,-9.5,-3.1,0,2018,5,17,20,5,20.498,0.6594,-0.0903,-0.4244,0.6138
0.009,-0.032,0.013,-9.5,-10.4,-5,0,2018,5,17,20,5,20.521,0.6596,-0.093,-0.4242,0.6133
0.018,0.011,-0.007,-7.1,-0.6,-6.1,0,2018,5,17,20,5,20.525,0.6594,-0.0951,-0.4237,0.6135
0.032,0.024,0.023,-6.7,1.8,-6.1,0,2018,5,17,20,5,20.539,0.6594,-0.0962,-0.4224,0.6143
0.03,0.013,0.022,-6.3,2.3,-7,0,2018,5,17,20,5,20.557,0.6593,-0.0971,-0.4209,0.6153
0.029,0.037,0.021,-5.8,-2.2,-5.8,0,2018,5,17,20,5,20.58,0.6591,-0.0983,-0.4197,0.6162
0.033,0.045,0.015,-6.3,-0.9,-4.6,0,2018,5,17,20,5,20.598,0.6591,-0.0994,-0.4186,0.6167
0.04,0.062,0.004,-4.6,-7.3,-4.7,0,2018,5,17,20,5,20.62,0.6592,-0.1007,-0.4178,0.617
0.034,0.04,-0.004,0,-20.4,-6,0,2018,5,17,20,5,20.657,0.6586,-0.1029,-0.4185,0.6167
0.03,-0.033,-0.013,2.2,-22.9,-7.1,0,2018,5,17,20,5,20.681,0.6573,-0.1062,-0.4209,0.6159
0.029,-0.016,-0.006,0.9,-14,-6.8,0,2018,5,17,20,5,20.686,0.6559,-0.109,-0.423,0.6154
0.048,0.033,-0.005,-0.6,-5.7,-5.1,0,2018,5,17,20,5,20.704,0.655,-0.1109,-0.4237,0.6156
0.057,0.08,-0.004,-0.6,-4.2,-3.3,0,2018,5,17,20,5,20.74,0.6547,-0.1118,-0.4235,0.6159
0.061,0.097,-0.008,0.4,-15.7,-2.2,0,2018,5,17,20,5,20.74,0.6544,-0.1129,-0.4238,0.6158
0.068,0.041,-0.037,2,-26.2,-1.8,0,2018,5,17,20,5,20.763,0.6538,-0.1155,-0.4259,0.6145
0.103,-0.031,-0.047,5.6,-16.8,-1.3,1023,2018,5,17,20,5,20.78,0.6526,-0.1186,-0.4286,0.6133
0.048,-0.18,-0.002,5.6,21.8,-1.1,1023,2018,5,17,20,5,20.803,0.652,-0.1179,-0.4294,0.6136
0.05,-0.246,0.059,1,67.3,-11.1,1023,2018,5,17,20,5,20.821,0.6521,-0.1126,-0.4244,0.6179
0.114,-0.247,0.035,1.1,104.7,-12,1023,2018,5,17,20,5,20.843,0.6523,-0.1037,-0.415,0.6256
0.081,-0.274,-0.063,1.4,172.5,-14.4,1023,2018,5,17,20,5,20.879,0.6532,-0.0884,-0.3995,0.637
0.079,-0.237,-0.008,1.3,224.4,-22.7,1023,2018,5,17,20,5,20.903,0.6537,-0.0665,-0.3767,0.6528
0.014,-0.174,0.07,-1.6,251.7,-28.2,1023,2018,5,17,20,5,20.907,0.6529,-0.0409,-0.3487,0.671
0.025,-0.112,0.052,-4.9,267.5,-36.5,1023,2018,5,17,20,5,20.925,0.6502,-0.0146,-0.3175,0.69
0.049,0.054,0.032,-4.8,259.7,-39.7,1023,2018,5,17,20,5,20.944,0.6457,0.0124,-0.284,0.7086
0.027,0.216,0.036,-3.7,220.6,-38.7,0,2018,5,17,20,5,20.966,0.64,0.0372,-0.253,0.7245
0.059,0.319,0.041,-1.8,152.8,-35.7,0,2018,5,17,20,5,20.984,0.6338,0.0561,-0.2292,0.7365
0.049,0.265,0.021,0.7,86.1,-26.4,0,2018,5,17,20,5,21.007,0.6285,0.0676,-0.2145,0.7445
0.042,0.216,-0.032,0.9,39.6,-13.5,0,2018,5,17,20,5,21.021,0.6251,0.0735,-0.207,0.7489
0.081,0.234,-0.094,3.3,5.6,3,0,2018,5,17,20,5,21.04,0.6241,0.0759,-0.2045,0.7502
0.07,0.264,-0.14,8.4,-22.2,20.5,0,2018,5,17,20,5,21.063,0.6256,0.0761,-0.2063,0.7484
0.037,0.294,-0.135,12.8,-41.3,34.9,0,2018,5,17,20,5,21.083,0.6294,0.075,-0.2112,0.744
0.002,0.233,-0.174,17,-56.2,46.3,0,2018,5,17,20,5,21.106,0.6348,0.0729,-0.2189,0.7373
-0.055,0.16,-0.159,19.7,-47.6,59.2,0,2018,5,17,20,5,21.124,0.6415,0.0713,-0.2272,0.7292
-0.143,0.094,-0.144,15.5,-23.5,71.6,0,2018,5,17,20,5,21.147,0.6496,0.0722,-0.233,0.72
-0.223,0.019,-0.114,11.1,9.1,74.6,0,2018,5,17,20,5,21.165,0.6584,0.0762,-0.2343,0.7111
-0.261,0.063,-0.051,6.2,25.6,68.2,0,2018,5,17,20,5,21.188,0.6666,0.0825,-0.2317,0.7035
-0.266,0.135,0.001,3.4,9.8,55,0,2018,5,17,20,5,21.206,0.6737,0.0878,-0.229,0.697
-0.263,0.215,-0.008,3.2,-34.7,37.5,0,2018,5,17,20,5,21.229,0.6793,0.0889,-0.23,0.6911
-0.168,0.147,-0.049,2.9,-93.5,21.2,0,2018,5,17,20,5,21.244,0.6836,0.0824,-0.238,0.6849
-0.15,0.007,0.044,0.4,-131,6.4,0,2018,5,17,20,5,21.261,0.6866,0.0697,-0.252,0.6783
-0.095,-0.06,0.059,0.2,-151.4,-3.9,0,2018,5,17,20,5,21.285,0.6881,0.0531,-0.2694,0.6715
-0.054,-0.031,0.06,-1.9,-174.3,-12.7,0,2018,5,17,20,5,21.303,0.6883,0.0331,-0.2887,0.6646
-0.007,-0.018,0.013,-3.7,-196.3,-18.7,0,2018,5,17,20,5,21.327,0.6873,0.0095,-0.3099,0.6568
0.051,-0.032,-0.005,0,-224.6,-28.6,0,2018,5,17,20,5,21.363,0.6844,-0.0176,-0.3337,0.6479
0.103,-0.055,-0.036,4.2,-253.1,-34.6,0,2018,5,17,20,5,21.387,0.6791,-0.0487,-0.3606,0.6373
0.127,-0.214,-0.147,8.2,-247.7,-39.5,0,2018,5,17,20,5,21.391,0.6717,-0.0805,-0.3891,0.6251
0.174,-0.158,-0.123,8.1,-206.6,-40.7,0,2018,5,17,20,5,21.408,0.663,-0.1087,-0.4138,0.6142
0.21,-0.074,-0.18,7.9,-164.7,-36.3,0,2018,5,17,20,5,21.429,0.6542,-0.1321,-0.4336,0.6052
0.277,0.005,-0.14,12.2,-126.3,-27.2,0,2018,5,17,20,5,21.444,0.6467,-0.1498,-0.4489,0.598
0.245,0.075,-0.116,19.7,-98.8,-16.1,0,2018,5,17,20,5,21.465,0.6401,-0.1622,-0.4617,0.5922
0.225,0.179,-0.071,24.4,-89.7,-2.9,0,2018,5,17,20,5,21.485,0.6346,-0.171,-0.4734,0.5862
0.201,0.24,-0.123,32.1,-97.5,8.4,0,2018,5,17,20,5,21.522,0.6298,-0.1782,-0.4859,0.5791
0.152,0.133,-0.154,38.3,-111.8,17.1,0,2018,5,17,20,5,21.545,0.6242,-0.1859,-0.5007,0.57
0.095,-0.114,-0.144,42.9,-94.5,20.4,1023,2018,5,17,20,5,21.549,0.6188,-0.1918,-0.5164,0.5598
0.057,-0.17,-0.143,40.3,-51.8,23.6,1023,2018,5,17,20,5,21.566,0.6147,-0.1935,-0.5286,0.5523
0.05,-0.169,-0.108,34.5,-7.7,28.3,1023,2018,5,17,20,5,21.586,0.6127,-0.1907,-0.5364,0.548
-0.027,-0.185,0.017,27,46.6,35.7,1023,2018,5,17,20,5,21.609,0.6132,-0.183,-0.5391,0.5474
-0.072,-0.233,0.039,10.7,127.3,37.7,1023,2018,5,17,20,5,21.627,0.6174,-0.1688,-0.5339,0.5524
-0.127,-0.114,0.072,0.6,166.1,27.5,1023,2018,5,17,20,5,21.65,0.6245,-0.1486,-0.5206,0.5628
-0.092,-0.054,0.079,-7.1,177,13,1023,2018,5,17,20,5,21.668,0.6311,-0.1278,-0.5034,0.5761
-0.159,0.165,0.183,-8,127.7,1.3,1023,2018,5,17,20,5,21.69,0.636,-0.1104,-0.4865,0.5886
-0.158,-0.106,0.181,-13.2,85.8,-8.3,1023,2018,5,17,20,5,21.706,0.6382,-0.1007,-0.475,0.5973
-0.127,-0.216,0.099,-17.5,129.4,-14.4,0,2018,5,17,20,5,21.726,0.64,-0.0916,-0.4621,0.6068
-0.009,0.11,0.069,-16.3,147,-20.2,0,2018,5,17,20,5,21.748,0.6418,-0.0785,-0.4443,0.62
0.001,0.342,0.177,-11.1,99.5,-17.4,0,2018,5,17,20,5,21.768,0.6422,-0.0673,-0.4288,0.6316
0.037,0.348,0.188,-9.6,40.6,-10,0,2018,5,17,20,5,21.786,0.6423,-0.0619,-0.42,0.638
0.059,0.295,0.098,-5.1,-7.7,-4.1,0,2018,5,17,20,5,21.809,0.6421,-0.0617,-0.4175,0.6398
0.008,0.276,0.058,-1,-56.6,4.2,0,2018,5,17,20,5,21.829,0.6421,-0.0656,-0.4208,0.6373
-0.009,0.38,0.088,4.5,-119.7,5.6,0,2018,5,17,20,5,21.853,0.6414,-0.075,-0.4309,0.6302
0.031,0.234,-0.004,8.5,-164,8.8,0,2018,5,17,20,5,21.87,0.6394,-0.0903,-0.4479,0.6182
0.017,0.115,-0.03,8.4,-157.6,11.6,0,2018,5,17,20,5,21.893,0.6373,-0.1059,-0.4661,0.6043
-0.028,0.114,0.063,4.6,-161.2,12.8,0,2018,5,17,20,5,21.909,0.6355,-0.121,-0.4831,0.5899
-0.037,0.036,0.057,-1.1,-162,13.7,0,2018,5,17,20,5,21.931,0.6333,-0.1373,-0.4998,0.5745
-0.028,0.006,0.004,-6.2,-149.6,15.7,0,2018,5,17,20,5,21.948,0.6313,-0.1534,-0.5151,0.5589
-0.039,-0.058,-0.014,-10.3,-119.6,19,0,2018,5,17,20,5,21.967,0.6299,-0.1675,-0.528,0.5443
-0.062,-0.097,0.042,-16,-80,19.2,0,2018,5,17,20,5,21.99,0.6298,-0.1779,-0.5366,0.5325
-0.042,-0.027,0.141,-26.3,-49.1,20.2,0,2018,5,17,20,5,22.008,0.632,-0.1846,-0.5403,0.5239
-0.049,0.006,0.159,-33.7,-36,20.5,0,2018,5,17,20,5,22.031,0.6358,-0.1896,-0.5407,0.517
-0.084,-0.024,0.159,-41.6,-29,22.3,0,2018,5,17,20,5,22.05,0.6403,-0.1945,-0.54,0.5102
-0.04,0.006,0.088,-47.5,-23.1,25,0,2018,5,17,20,5,22.071,0.6462,-0.1987,-0.5377,0.5036
-0.022,0,0.083,-51.4,-9.1,26.9,0,2018,5,17,20,5,22.09,0.6529,-0.2021,-0.5339,0.4976
-0.022,-0.007,0.078,-55.9,1.9,30.2,0,2018,5,17,20,5,22.113,0.6606,-0.2041,-0.5285,0.4923
-0.035,-0.043,0.073,-60.7,18.2,33.5,0,2018,5,17,20,5,22.128,0.6694,-0.2047,-0.5216,0.4876
-0.039,-0.019,0.054,-64.1,28.4,33.7,0,2018,5,17,20,5,22.146,0.679,-0.2039,-0.5131,0.4837
0.033,0.039,0.028,-65.2,22.4,34.7,0,2018,5,17,20,5,22.17,0.6889,-0.2029,-0.5039,0.4798
0.017,0.029,-0.004,-62.6,1.4,34.7,0,2018,5,17,20,5,22.203,0.6979,-0.2036,-0.4962,0.4745
0.021,-0.055,-0.051,-60.5,-13,33.3,0,2018,5,17,20,5,22.226,0.7056,-0.2069,-0.4906,0.4674
0.002,-0.154,-0.104,-59.8,-6.3,29.8,0,2018,5,17,20,5,22.231,0.7126,-0.2108,-0.4855,0.4604
0.047,-0.164,-0.18,-57.7,9.6,25.2,0,2018,5,17,20,5,22.25,0.7198,-0.213,-0.4789,0.455
0.086,-0.092,-0.225,-51.5,13,21.6,1023,2018,5,17,20,5,22.274,0.7267,-0.2137,-0.4718,0.4511
0.12,-0.083,-0.257,-40.3,7.2,18.2,1023,2018,5,17,20,5,22.309,0.7324,-0.2144,-0.4659,0.4476
0.108,-0.104,-0.269,-27.8,-0.4,12.7,1023,2018,5,17,20,5,22.332,0.7364,-0.2154,-0.4619,0.4447
0.109,-0.141,-0.275,-17.4,-2.9,6.1,1023,2018,5,17,20,5,22.337,0.7389,-0.2167,-0.4596,0.4424
0.151,-0.136,-0.271,-5.1,0,0,1023,2018,5,17,20,5,22.354,0.7399,-0.2175,-0.4584,0.4415
0.131,-0.101,-0.254,5.9,2,-4.6,1023,2018,5,17,20,5,22.392,0.7397,-0.2175,-0.4583,0.442
0.118,-0.072,-0.199,12.5,0.1,-9.2,1023,2018,5,17,20,5,22.392,0.7384,-0.2172,-0.4592,0.4434
0.12,-0.042,-0.161,16.3,-6.3,-13,1023,2018,5,17,20,5,22.415,0.7362,-0.2173,-0.4609,0.4452
0.119,-0.046,-0.131,21.1,-10.1,-15.1,0,2018,5,17,20,5,22.433,0.7332,-0.2182,-0.4634,0.447
0.098,-0.024,-0.105,24.7,-11,-15.2,0,2018,5,17,20,5,22.468,0.7297,-0.2191,-0.4666,0.4491
0.087,-0.011,-0.087,27,-11,-15.2,0,2018,5,17,20,5,22.468,0.7253,-0.2207,-0.4704,0.4513
0.066,-0.014,-0.017,26.6,-8.4,-15.7,0,2018,5,17,20,5,22.491,0.7212,-0.2218,-0.474,0.4537
0.061,-0.013,-0.023,25.6,-5.4,-14.7,0,2018,5,17,20,5,22.53,0.7173,-0.2224,-0.477,0.4563
0.055,-0.014,-0.045,27.4,-1.7,-14.4,0,2018,5,17,20,5,22.554,0.7136,-0.2225,-0.48,0.4591
0.053,0.004,-0.065,31.1,0.6,-13.1,0,2018,5,17,20,5,22.558,0.7097,-0.2218,-0.4832,0.462
0.047,0.009,-0.096,36.7,-0.4,-12.4,0,2018,5,17,20,5,22.575,0.7054,-0.2206,-0.4872,0.4649
0.049,0.001,-0.091,42,-3.7,-12.2,0,2018,5,17,20,5,22.611,0.7004,-0.2193,-0.4923,0.4677
0.034,-0.024,-0.083,46.4,-6.1,-11.8,0,2018,5,17,20,5,22.611,0.6949,-0.218,-0.4981,0.4704
0,-0.061,-0.074,49,-5.9,-13.3,0,2018,5,17,20,5,22.634,0.689,-0.2163,-0.5044,0.4732
-0.022,-0.06,-0.068,50.5,-3.5,-16.1,0,2018,5,17,20,5,22.652,0.6827,-0.2146,-0.5109,0.4762
-0.016,-0.033,-0.048,51.1,-4.5,-20.8,0,2018,5,17,20,5,22.69,0.6761,-0.2127,-0.517,0.4798
0.005,0.002,-0.054,52.7,-8.5,-24.4,0,2018,5,17,20,5,22.712,0.669,-0.2114,-0.5232,0.4837
-0.013,0.019,-0.025,55.5,-11.8,-25.5,0,2018,5,17,20,5,22.717,0.6613,-0.2104,-0.5298,0.4874
-0.016,-0.044,0.016,56.5,-13.7,-27.1,0,2018,5,17,20,5,22.736,0.6533,-0.2097,-0.5365,0.4911
-0.064,-0.031,0.097,51.3,0.3,-29.2,0,2018,5,17,20,5,22.754,0.6457,-0.2082,-0.542,0.4958
-0.064,0.012,0.127,46.2,5.1,-28.3,0,2018,5,17,20,5,22.776,0.6393,-0.2057,-0.5455,0.5012
-0.079,-0.083,0.116,37.6,31.7,-24.1,0,2018,5,17,20,5,22.798,0.6341,-0.2022,-0.5474,0.5072
-0.104,-0.005,0.262,21.9,82.6,-16.1,0,2018,5,17,20,5,22.814,0.6317,-0.1947,-0.5443,0.5163
-0.147,0.125,0.468,-8.8,126.8,-1.7,0,2018,5,17,20,5,22.836,0.6339,-0.1832,-0.5349,0.5274
-0.06,0.391,0.53,-22.8,93,-6.7,0,2018,5,17,20,5,22.854,0.6389,-0.1721,-0.5218,0.5382
0.002,0.236,0.303,-18.7,21.4,-6.3,0,2018,5,17,20,5,22.891,0.6417,-0.1689,-0.5143,0.5432
0.025,0.07,0.132,-12.4,-4.9,-3.3,0,2018,5,17,20,5,22.914,0.6428,-0.1703,-0.512,0.5436
0.004,-0.014,0.068,-8,-4.1,0.3,0,2018,5,17,20,5,22.936,0.6437,-0.1717,-0.5107,0.5432
-0.034,-0.072,0.04,-7.7,2.4,-0.7,0,2018,5,17,20,5,22.959,0.6445,-0.1725,-0.5097,0.5431
-0.021,-0.069,0.013,-10.7,5.9,-4.5,1023,2018,5,17,20,5,22.961,0.6451,-0.1732,-0.5081,0.5435
0.018,-0.065,-0.009,-13.8,13.4,-7.4,1023,2018,5,17,20,5,22.975,0.6457,-0.1742,-0.5058,0.5447
0.073,-0.054,-0.013,-14.5,23.9,-10.5,1023,2018,5,17,20,5,23.011,0.6464,-0.1749,-0.5021,0.5472
0.099,-0.053,-0.026,-13.5,30.8,-11.9,1023,2018,5,17,20,5,23.031,0.6469,-0.1749,-0.4973,0.5508
0.129,-0.042,-0.038,-12.2,32.3,-11.2,1023,2018,5,17,20,5,23.038,0.6475,-0.1743,-0.4923,0.5548
0.164,-0.041,-0.056,-9.6,33.5,-7.9,1023,2018,5,17,20,5,23.075,0.6485,-0.1724,-0.4876,0.5583
0.159,-0.056,-0.042,-6.2,39.8,-5.1,1023,2018,5,17,20,5,23.098,0.6496,-0.1697,-0.483,0.5619
0.131,-0.059,-0.03,-8,57.5,-3,1023,2018,5,17,20,5,23.103,0.6512,-0.1652,-0.4774,0.5662
0.11,-0.074,-0.012,-6.8,71.8,-7.5,0,2018,5,17,20,5,23.116,0.6533,-0.1588,-0.4698,0.572
0.035,-0.079,0.003,-9.1,79.3,-11.1,0,2018,5,17,20,5,23.152,0.6546,-0.1524,-0.4609,0.5794
-0.019,-0.029,0.046,-19.1,82.3,-11,0,2018,5,17,20,5,23.175,0.6566,-0.1457,-0.4506,0.5869
0.005,0.069,0.009,-22.3,76.2,-11.4,0,2018,5,17,20,5,23.179,0.6592,-0.1395,-0.4394,0.5939
-0.01,0.133,-0.052,-23.3,64.1,-7.9,0,2018,5,17,20,5,23.198,0.662,-0.1338,-0.429,0.5997
-0.017,0.213,-0.042,-19.9,44.8,-2.7,0,2018,5,17,20,5,23.215,0.6645,-0.1294,-0.4205,0.6038
-0.027,0.177,-0.052,-13.5,17.9,-2.1,0,2018,5,17,20,5,23.238,0.6662,-0.1277,-0.4153,0.606
-0.023,0.172,-0.038,-8.1,-2.1,3.2,0,2018,5,17,20,5,23.276,0.6672,-0.1281,-0.4133,0.6061
-0.053,0.175,-0.051,-1,-17.3,3.5,0,2018,5,17,20,5,23.297,0.6677,-0.1295,-0.414,0.6049
-0.04,0.15,-0.078,6.7,-33.7,2.2,0,2018,5,17,20,5,23.302,0.6672,-0.1319,-0.4171,0.6027
-0.024,0.092,-0.078,13.6,-44.3,0.1,0,2018,5,17,20,5,23.317,0.6659,-0.1346,-0.4229,0.5995
-0.036,0.012,-0.054,17.9,-42.7,-0.9,0,2018,5,17,20,5,23.334,0.6636,-0.1378,-0.4298,0.5964
-0.019,0.009,-0.023,19.7,-34.3,-2.2,0,2018,5,17,20,5,23.358,0.661,-0.1402,-0.4364,0.5939
-0.001,-0.016,0,17.7,-22.3,-1.3,0,2018,5,17,20,5,23.395,0.6587,-0.1416,-0.4416,0.5924
0.03,0.002,0.036,14.8,-13.8,0,0,2018,5,17,20,5,23.417,0.6569,-0.142,-0.445,0.5917
0.05,0.009,0.056,11,-13.7,3,0,2018,5,17,20,5,23.423,0.6558,-0.1423,-0.4474,0.591
0.034,0.034,0.165,1.9,-20.4,6.4,0,2018,5,17,20,5,23.44,0.6556,-0.1431,-0.4494,0.5896
0.045,-0.042,0.16,-4.1,-18.8,5.3,0,2018,5,17,20,5,23.458,0.6558,-0.1452,-0.4515,0.5872
0.066,-0.02,0.094,-7.1,-14.1,4.4,0,2018,5,17,20,5,23.481,0.6564,-0.1474,-0.4519,0.5856
0.057,-0.031,0.067,-7.8,-11,4.8,0,2018,5,17,20,5,23.499,0.6572,-0.1496,-0.4518,0.5843
0.038,-0.042,0.084,-7.9,-1.8,1.5,0,2018,5,17,20,5,23.521,0.658,-0.1513,-0.451,0.5836
0.018,-0.012,0.08,-10.7,10.9,-1.8,0,2018,5,17,20,5,23.537,0.659,-0.1518,-0.4488,0.5841
0.022,0.041,0.075,-13.8,8.9,-5.3,0,2018,5,17,20,5,23.575,0.6602,-0.1518,-0.4453,0.5853
0.025,0.021,0.072,-14.4,-12.1,-10.5,0,2018,5,17,20,5,23.575,0.6606,-0.1539,-0.443,0.5861
0.037,-0.016,0.023,-18.4,-8.9,-9.8,0,2018,5,17,20,5,23.599,0.6606,-0.1579,-0.4415,0.5861
0.067,-0.006,0.012,-14.4,-18.3,-17.2,0,2018,5,17,20,5,23.636,0.66,-0.1625,-0.4402,0.5865
0.091,-0.044,-0.011,-9.5,-23.7,-17.7,0,2018,5,17,20,5,23.66,0.6582,-0.1683,-0.4402,0.5869
0.125,-0.105,-0.073,-3,-13.7,-16.7,0,2018,5,17,20,5,23.665,0.6562,-0.1729,-0.4411,0.5872
0.153,-0.065,-0.088,1.2,10.6,-11,0,2018,5,17,20,5,23.681,0.6547,-0.1742,-0.4407,0.5887
0.168,-0.002,-0.073,4.4,31.2,-3.2,0,2018,5,17,20,5,23.717,0.6545,-0.1719,-0.4385,0.5913
0.144,0.01,-0.068,9.6,46.1,3.5,0,2018,5,17,20,5,23.74,0.6552,-0.1666,-0.4353,0.5944
0.13,0.011,-0.043,12.2,59.2,7.2,1023,2018,5,17,20,5,23.745,0.6562,-0.1595,-0.4308,0.5985
0.134,0.047,-0.035,20.9,53.4,7,1023,2018,5,17,20,5,23.758,0.6571,-0.1513,-0.4264,0.6028
0.113,0.109,-0.01,28.1,32,10.8,1023,2018,5,17,20,5,23.777,0.6573,-0.1435,-0.4242,0.606
0.07,0.111,0.015,33.6,0,12.4,1023,2018,5,17,20,5,23.8,0.6568,-0.1375,-0.4255,0.607
0.062,0.09,0.041,33.3,-20.7,15.8,1023,2018,5,17,20,5,23.819,0.6558,-0.1342,-0.4301,0.6056
0.008,0.055,0.025,30.6,-37.6,18.1,1023,2018,5,17,20,5,23.843,0.6548,-0.1326,-0.4368,0.6023
0.014,-0.015,-0.015,26.1,-39.9,18.9,1023,2018,5,17,20,5,23.859,0.6537,-0.1327,-0.4445,0.5977
-0.007,-0.126,-0.038,25.8,-12.6,19.4,1023,2018,5,17,20,5,23.882,0.6526,-0.1323,-0.4513,0.5939
-0.082,-0.096,0.025,19.2,20.8,13,1023,2018,5,17,20,5,23.9,0.6525,-0.128,-0.454,0.5929
-0.099,-0.16,0.073,10.6,33.7,5.4,1023,2018,5,17,20,5,23.923,0.6527,-0.1228,-0.4534,0.5942
-0.093,-0.224,0.017,0.4,67.9,-0.7,0,2018,5,17,20,5,23.942,0.6532,-0.1166,-0.4494,0.598
-0.02,-0.162,-0.015,-6.6,106.9,-6.1,0,2018,5,17,20,5,23.963,0.6543,-0.1079,-0.4404,0.6051
0.008,-0.104,-0.106,-5.4,133.5,-9.8,0,2018,5,17,20,5,24.001,0.6557,-0.0959,-0.4271,0.6151
0.05,-0.3,-0.27,-10.1,208.1,2.8,0,2018,5,17,20,5,24.001,0.6578,-0.0783,-0.4088,0.6276
0.055,0.463,0.029,-19.1,251.2,11.7,0,2018,5,17,20,5,24.024,0.6627,-0.0513,-0.3798,0.6432
-0.005,0.456,0.046,-18.7,202.2,17.9,0,2018,5,17,20,5,24.039,0.6672,-0.0262,-0.3521,0.6557
0.014,0.318,-0.079,-10.2,139.9,17.5,0,2018,5,17,20,5,24.06,0.6707,-0.0069,-0.3304,0.6639
-0.004,0.099,-0.203,-1.3,97.8,23.2,0,2018,5,17,20,5,24.097,0.6732,0.0071,-0.3171,0.6679
-0.008,0.131,-0.159,3.3,92.5,25.9,0,2018,5,17,20,5,24.118,0.6759,0.0204,-0.3066,0.6698
-0.111,0.121,0.042,4.7,66.4,22.1,0,2018,5,17,20,5,24.121,0.6782,0.0319,-0.2975,0.6711
-0.133,0.131,0.104,5.1,18.1,11.4,0,2018,5,17,20,5,24.157,0.6796,0.0382,-0.293,0.6713
-0.1,0.215,0.036,10.5,-44.3,3.4,0,2018,5,17,20,5,24.18,0.6801,0.0379,-0.2955,0.6698
-0.082,0.21,-0.005,15.9,-103.8,-3.6,0,2018,5,17,20,5,24.184,0.6798,0.0304,-0.306,0.6657
-0.063,0.217,0.019,17.6,-157,-8.5,0,2018,5,17,20,5,24.221,0.6787,0.0164,-0.3232,0.6591
-0.045,0.295,0.029,25.5,-231.3,-14.4,0,2018,5,17,20,5,24.221,0.6762,-0.0048,-0.3481,0.6491
-0.028,0.312,0.001,30.9,-302.6,-17.5,0,2018,5,17,20,5,24.244,0.6718,-0.0343,-0.3815,0.6339
-0.012,0.142,-0.084,36.2,-352.9,-24.2,0,2018,5,17,20,5,24.263,0.664,-0.0708,-0.4213,0.6135
0.033,0.077,-0.177,38.8,-370,-22.7,0,2018,5,17,20,5,24.299,0.6526,-0.1103,-0.4644,0.5883
0.115,-0.149,-0.223,36.8,-320.4,-11.2,0,2018,5,17,20,5,24.32,0.6396,-0.1476,-0.5036,0.5615
0.097,-0.367,-0.108,25.6,-204.9,4.7,0,2018,5,17,20,5,24.325,0.629,-0.1739,-0.5325,0.5388
0.039,-0.361,0.084,4.8,-76,11,0,2018,5,17,20,5,24.344,0.6241,-0.1864,-0.5469,0.5258
0.037,-0.275,0.124,-12.4,8.9,13.5,0,2018,5,17,20,5,24.381,0.6251,-0.1883,-0.549,0.5217
0.103,-0.088,0.031,-18.2,33.1,14.4,0,2018,5,17,20,5,24.404,0.6285,-0.186,-0.5453,0.5223
0.087,0.066,0.086,-12.4,14,11.8,0,2018,5,17,20,5,24.408,0.6317,-0.1837,-0.5413,0.5234
0.075,0.087,0.089,-3.6,-20.3,11.7,0,2018,5,17,20,5,24.426,0.6335,-0.1837,-0.5411,0.5214
-0.014,0.017,0.137,-4.6,-42.7,7.4,0,2018,5,17,20,5,24.443,0.6342,-0.1865,-0.5432,0.5174
-0.031,0.038,0.105,-7.2,-55.9,3.5,0,2018,5,17,20,5,24.46,0.6341,-0.1915,-0.5466,0.5121
0.041,0.014,0.062,-9,-53.1,5.2,1023,2018,5,17,20,5,24.483,0.6339,-0.1978,-0.55,0.5063
-0.009,-0.041,0.039,-11.6,-40.4,5.5,1023,2018,5,17,20,5,24.503,0.6338,-0.2034,-0.5529,0.5011
-0.035,-0.069,0.047,-17.1,-17.2,6.1,1023,2018,5,17,20,5,24.526,0.6348,-0.2072,-0.5538,0.4972
-0.004,0.021,0.061,-19,-3.8,6.4,1023,2018,5,17,20,5,24.544,0.637,-0.209,-0.5524,0.4951
0.001,0.05,0.096,-16.5,-9.9,6.3,1023,2018,5,17,20,5,24.566,0.6395,-0.2102,-0.5506,0.4934
-0.045,0.023,0.12,-18.8,-19.8,5.5,1023,2018,5,17,20,5,24.584,0.6418,-0.2122,-0.5496,0.4908
-0.047,-0.001,0.114,-24.8,-20.9,5,1023,2018,5,17,20,5,24.607,0.6442,-0.2153,-0.5483,0.4876
-0.048,0.002,0.088,-30.1,-17.3,4.7,1023,2018,5,17,20,5,24.643,0.6471,-0.2189,-0.5466,0.4842
-0.03,-0.002,0.092,-34,-11.9,5.7,0,2018,5,17,20,5,24.665,0.6505,-0.2223,-0.5438,0.4811
-0.041,0.032,0.112,-39,-12.7,6.1,0,2018,5,17,20,5,24.67,0.6546,-0.2255,-0.5403,0.478
-0.038,0.029,0.099,-44.5,-17.3,5.8,0,2018,5,17,20,5,24.686,0.659,-0.2295,-0.5364,0.4744
-0.011,0,0.066,-49.8,-16.4,7.4,0,2018,5,17,20,5,24.709,0.6638,-0.2343,-0.5322,0.4702
0.015,-0.039,0.011,-52.9,-7.9,8.8,0,2018,5,17,20,5,24.724,0.6687,-0.2393,-0.5274,0.4661
0.021,-0.029,-0.011,-54.5,0.1,10.7,0,2018,5,17,20,5,24.747,0.6742,-0.2434,-0.5217,0.4625
0.036,0.005,-0.028,-54.9,0.3,12,0,2018,5,17,20,5,24.767,0.68,-0.2469,-0.5156,0.459
0.07,0.017,-0.06,-53.4,-3.4,13.6,0,2018,5,17,20,5,24.803,0.6855,-0.2507,-0.5099,0.4551
0.076,-0.002,-0.099,-50.8,-7.1,14.7,0,2018,5,17,20,5,24.826,0.6905,-0.2549,-0.5049,0.4507
0.087,-0.029,-0.16,-47.7,-5.2,16.3,0,2018,5,17,20,5,24.83,0.6956,-0.2584,-0.5003,0.446
0.105,-0.051,-0.216,-42.8,1.8,17.4,0,2018,5,17,20,5,24.85,0.7007,-0.2607,-0.4956,0.4417
0.109,-0.056,-0.207,-35,7.5,16.4,0,2018,5,17,20,5,24.866,0.7057,-0.2615,-0.4912,0.4383
0.114,-0.063,-0.203,-26,7.2,12.5,0,2018,5,17,20,5,24.888,0.7098,-0.2616,-0.4875,0.4358
0.093,-0.053,-0.188,-16,1.9,8,0,2018,5,17,20,5,24.925,0.7125,-0.2617,-0.4851,0.434
0.073,-0.08,-0.185,-8,0,4.8,0,2018,5,17,20,5,24.925,0.714,-0.262,-0.4839,0.4327
0.051,-0.084,-0.144,-3.7,5.1,2.5,0,2018,5,17,20,5,24.949,0.7148,-0.2619,-0.4832,0.4322
0.058,-0.058,-0.118,-1,11.9,0,0,2018,5,17,20,5,24.965,0.7155,-0.2608,-0.4823,0.4327
0.071,-0.005,-0.085,2,13.6,-1.7,0,2018,5,17,20,5,24.989,0.7156,-0.2598,-0.4815,0.434
0.066,0.009,-0.062,4.5,10.8,-2.7,0,2018,5,17,20,5,25.004,0.7153,-0.2588,-0.481,0.4357
0.074,0.025,-0.076,8,3.6,-2.8,0,2018,5,17,20,5,25.026,0.7146,-0.2582,-0.4812,0.437
0.067,-0.005,-0.071,11.5,0.6,-1.8,0,2018,5,17,20,5,25.065,0.7132,-0.2582,-0.4824,0.438
0.068,-0.052,-0.049,13.1,8.5,-1.9,0,2018,5,17,20,5,25.088,0.7117,-0.2577,-0.4836,0.4393
0.067,-0.054,-0.055,13.7,21,-1.6,0,2018,5,17,20,5,25.093,0.7106,-0.2558,-0.4841,0.4417
0.071,-0.058,-0.059,15.3,31.8,-1.7,0,2018,5,17,20,5,25.111,0.7099,-0.2523,-0.4838,0.445
0.044,-0.052,-0.053,16.8,37.5,-3,0,2018,5,17,20,5,25.126,0.7094,-0.2477,-0.4831,0.4492
0.025,-0.066,-0.032,17.1,39,-5.2,0,2018,5,17,20,5,25.144,0.7089,-0.2425,-0.4823,0.4538
0.006,-0.061,0.004,16,41.7,-8,0,2018,5,17,20,5,25.167,0.7084,-0.2373,-0.4809,0.4588
0.001,-0.086,-0.011,15.4,47.8,-12.5,1023,2018,5,17,20,5,25.204,0.7078,-0.2317,-0.4789,0.4645
0.001,-0.064,0,15.2,48.9,-16.4,1023,2018,5,17,20,5,25.227,0.7071,-0.2261,-0.4763,0.4711
-0.017,-0.071,0.005,15.3,52.5,-19.3,1023,2018,5,17,20,5,25.232,0.7061,-0.2203,-0.4733,0.4782
0,-0.018,0.036,15.9,53.8,-23,1023,2018,5,17,20,5,25.248,0.705,-0.2143,-0.4699,0.4859
-0.011,0.024,0.068,16.1,40.9,-26.4,1023,2018,5,17,20,5,25.271,0.7035,-0.2089,-0.4665,0.4936
0,-0.017,0.066,13.4,37.9,-28.3,1023,2018,5,17,20,5,25.289,0.7016,-0.2049,-0.4636,0.5007
0.013,-0.042,-0.01,15.3,50.4,-32.6,1023,2018,5,17,20,5,25.312,0.6993,-0.2009,-0.4603,0.5086
0.057,-0.007,-0.06,18.4,58.6,-36.5,1023,2018,5,17,20,5,25.33,0.6964,-0.1959,-0.4564,0.5179
0.063,-0.05,-0.029,17.3,75.4,-36.6,1023,2018,5,17,20,5,25.354,0.6935,-0.1897,-0.4513,0.5283
0.063,-0.114,-0.015,15.1,95.5,-42.3,1023,2018,5,17,20,5,25.372,0.691,-0.1817,-0.4439,0.5406
0.061,-0.09,-0.015,11.4,119.1,-39.7,0,2018,5,17,20,5,25.395,0.6889,-0.1716,-0.434,0.5545
0.06,-0.114,-0.009,7.3,149.3,-39.9,0,2018,5,17,20,5,25.41,0.6878,-0.1584,-0.4208,0.5698
0.032,-0.091,0.009,3.4,179.7,-40.7,0,2018,5,17,20,5,25.447,0.6872,-0.1417,-0.4037,0.587
0.046,-0.046,0.001,-2.4,196.5,-41.6,0,2018,5,17,20,5,25.471,0.6871,-0.1223,-0.383,0.6051
0.04,0,0.016,-3.7,203,-41.9,0,2018,5,17,20,5,25.474,0.6866,-0.1018,-0.36,0.6233
-0.04,0.044,0.07,-5.3,201.7,-41,0,2018,5,17,20,5,25.494,0.6855,-0.0803,-0.3361,0.6407
0.037,0.078,0.067,-12.1,178.4,-44.7,0,2018,5,17,20,5,25.51,0.6837,-0.0604,-0.3123,0.6567
0.043,0.145,0.08,-12.3,130.8,-42.9,0,2018,5,17,20,5,25.533,0.6808,-0.0457,-0.2922,0.6699
0.035,0.27,0.06,-10.2,73.7,-43.3,0,2018,5,17,20,5,25.551,0.677,-0.0371,-0.2787,0.68
0.033,0.36,0.058,-10.5,22.1,-40.7,0,2018,5,17,20,5,25.573,0.6728,-0.0349,-0.2716,0.6872
0.032,0.343,0.043,-3.5,-47.9,-44.2,0,2018,5,17,20,5,25.591,0.6682,-0.0393,-0.2719,0.6913
0.053,0.188,0.013,4.9,-115.2,-49.7,0,2018,5,17,20,5,25.614,0.6617,-0.0513,-0.2819,0.6928
0.043,0.004,0.001,7.7,-144,-49,0,2018,5,17,20,5,25.633,0.6539,-0.0686,-0.2982,0.6919
0.041,0.108,0.034,6.8,-148.8,-45.5,0,2018,5,17,20,5,25.652,0.646,-0.0866,-0.3152,0.6897
0.042,0.006,-0.038,8.7,-166,-48,0,2018,5,17,20,5,25.671,0.6373,-0.106,-0.3338,0.6863
0.01,-0.1,-0.095,7.2,-154.8,-45.7,0,2018,5,17,20,5,25.695,0.6275,-0.1266,-0.3539,0.6818
0.012,-0.093,-0.119,2.6,-108.1,-38.8,0,2018,5,17,20,5,25.711,0.619,-0.1433,-0.3693,0.6781
0.055,0.077,-0.108,1.2,-62.4,-27.5,0,2018,5,17,20,5,25.735,0.6125,-0.1547,-0.3789,0.6762
0.045,0.243,-0.047,1.7,-42.9,-13,0,2018,5,17,20,5,25.752,0.6088,-0.1609,-0.384,0.6752
0.037,0.317,-0.037,2,-39.7,3.9,0,2018,5,17,20,5,25.776,0.607,-0.1653,-0.3888,0.6729
0.02,0.325,-0.068,3.7,-37.8,23.8,0,2018,5,17,20,5,25.791,0.6073,-0.1681,-0.3941,0.6689
-0.017,0.31,-0.065,2.9,-26.4,44.8,0,2018,5,17,20,5,25.815,0.6101,-0.1688,-0.3994,0.663
-0.058,0.243,-0.027,2.6,-10.2,63,0,2018,5,17,20,5,25.832,0.6157,-0.1665,-0.4033,0.656
-0.134,0.125,0.021,1.1,14.8,76.6,0,2018,5,17,20,5,25.85,0.6236,-0.1611,-0.4054,0.6485
-0.198,-0.008,0.046,-1.7,55.9,85.8,0,2018,5,17,20,5,25.872,0.6338,-0.1516,-0.4037,0.642
-0.244,-0.1,0.02,-5.1,110.3,85.8,0,2018,5,17,20,5,25.91,0.6459,-0.1365,-0.3961,0.6381
-0.268,-0.101,-0.005,-9.4,150.7,75.7,0,2018,5,17,20,5,25.934,0.6583,-0.1166,-0.3821,0.6378
-0.153,-0.004,-0.077,-7,160.7,62.1,0,2018,5,17,20,5,25.938,0.6696,-0.0947,-0.3645,0.64
-0.106,0.161,-0.026,5.6,123.4,42.7,1023,2018,5,17,20,5,25.955,0.6776,-0.0744,-0.349,0.643
-0.091,0.107,0.062,10.3,75.9,29.5,1023,2018,5,17,20,5,25.973,0.6821,-0.0598,-0.3396,0.6447
-0.042,0.053,0.092,14.5,36.7,16.1,1023,2018,5,17,20,5,25.995,0.6847,-0.0499,-0.3348,0.6453
0.008,-0.006,0.092,16.2,-1.5,8.9,1023,2018,5,17,20,5,26.015,0.6855,-0.0451,-0.3343,0.6451
0.043,-0.077,0.069,11.6,-12.4,6.7,1023,2018,5,17,20,5,26.038,0.6853,-0.0448,-0.337,0.6439
0.071,-0.118,0.076,5.1,-9.3,4.6,1023,2018,5,17,20,5,26.054,0.6853,-0.0456,-0.3389,0.6428
0.098,-0.054,0.073,4.6,-1.5,2.9,1023,2018,5,17,20,5,26.077,0.6854,-0.0456,-0.3398,0.6423
0.084,-0.053,0.023,5.7,-7.1,0.7,1023,2018,5,17,20,5,26.096,0.6851,-0.0464,-0.3404,0.6422
0.087,-0.067,-0.009,6.7,-6.6,-2,1023,2018,5,17,20,5,26.117,0.6844,-0.0476,-0.3417,0.6422
0.073,0.005,0.048,5.5,-9,-3.6,1023,2018,5,17,20,5,26.134,0.6835,-0.0485,-0.3428,0.6425
0.088,-0.018,0.039,5.4,-9.9,-4.3,0,2018,5,17,20,5,26.154,0.6826,-0.05,-0.3439,0.6427
0.047,-0.018,0.054,0.9,1.2,-3.2,0,2018,5,17,20,5,26.191,0.6819,-0.0509,-0.3443,0.6432
0.035,-0.025,0.094,-3.4,13.2,-5.6,0,2018,5,17,20,5,26.214,0.6817,-0.0506,-0.3425,0.6444
0.021,0.003,0.09,-4.3,13.3,-8.3,0,2018,5,17,20,5,26.219,0.6813,-0.0499,-0.3398,0.6463
0.01,0.016,0.105,-6.2,4.8,-9.4,0,2018,5,17,20,5,26.236,0.6808,-0.0499,-0.3374,0.6481
0.027,0.061,0.1,-9.1,-0.5,-9.1,0,2018,5,17,20,5,26.274,0.6805,-0.0509,-0.3352,0.6494
0.012,0.063,0.048,-9.6,-13,-9.9,0,2018,5,17,20,5,26.297,0.6802,-0.053,-0.3339,0.6503
0.023,0.076,-0.009,-7.1,-25.1,-10.6,0,2018,5,17,20,5,26.301,0.6796,-0.0565,-0.3344,0.6504
0.011,0.068,-0.03,-4,-39.2,-11.1,0,2018,5,17,20,5,26.318,0.6786,-0.0612,-0.337,0.6497
0.03,0.081,-0.035,-0.4,-57,-12.8,0,2018,5,17,20,5,26.337,0.6769,-0.0676,-0.3418,0.6482
0.058,0.137,-0.075,6.4,-90.7,-13.2,0,2018,5,17,20,5,26.355,0.6746,-0.0762,-0.3498,0.6454
0.02,0.052,-0.104,13.8,-118.8,-13.9,0,2018,5,17,20,5,26.375,0.6709,-0.0881,-0.3628,0.6405
-0.024,0.008,-0.116,5.9,-73.4,1.3,0,2018,5,17,20,5,26.413,0.6676,-0.0993,-0.3756,0.635
0.03,0.35,-0.065,5.9,-65,8.5,0,2018,5,17,20,5,26.437,0.6668,-0.1052,-0.3831,0.6303
0.034,0.225,-0.117,13.1,-96.2,16,0,2018,5,17,20,5,26.441,0.6661,-0.1129,-0.3935,0.6234
0.004,0.236,-0.069,18.8,-137.6,15.6,0,2018,5,17,20,5,26.457,0.6642,-0.1235,-0.4082,0.6138
-0.035,0.151,-0.03,19.8,-175.9,20,0,2018,5,17,20,5,26.495,0.661,-0.1386,-0.4279,0.6005
-0.098,0.025,0.01,15.4,-182.3,21,0,2018,5,17,20,5,26.519,0.6574,-0.1552,-0.4495,0.5844
-0.087,-0.014,-0.008,6.8,-163.5,20.3,0,2018,5,17,20,5,26.523,0.6539,-0.1716,-0.4692,0.568
-0.08,-0.012,0.022,-0.5,-143.6,18.6,0,2018,5,17,20,5,26.535,0.6509,-0.1866,-0.4854,0.5529
-0.075,0.025,0.104,-5.8,-130.2,19.2,0,2018,5,17,20,5,26.571,0.6488,-0.2001,-0.4985,0.5389
-0.087,0.026,0.099,-8.2,-122.9,16.7,0,2018,5,17,20,5,26.595,0.6473,-0.2125,-0.5095,0.5254
-0.136,-0.073,0.062,-12.1,-114.9,12.7,0,2018,5,17,20,5,26.599,0.6455,-0.2248,-0.5197,0.5125
-0.101,-0.072,0.058,-17.5,-107.1,8.6,0,2018,5,17,20,5,26.616,0.6436,-0.2371,-0.5283,0.5002
-0.06,-0.07,0.055,-19.2,-96,5.4,0,2018,5,17,20,5,26.64,0.6418,-0.2492,-0.5353,0.4892
-0.052,-0.09,0.085,-22.7,-79.8,3.9,0,2018,5,17,20,5,26.657,0.6404,-0.2602,-0.5404,0.4795
-0.078,-0.067,0.118,-29.5,-53.7,3.3,0,2018,5,17,20,5,26.68,0.6405,-0.2691,-0.5428,0.4717
-0.051,0.018,0.099,-35.7,-31.7,3.6,1023,2018,5,17,20,5,26.698,0.6425,-0.2755,-0.5422,0.466
0.045,0.017,0.063,-38.9,-17,8.7,1023,2018,5,17,20,5,26.72,0.6459,-0.2804,-0.5395,0.4615
0.03,-0.049,0.022,-43.6,4.6,17.5,1023,2018,5,17,20,5,26.757,0.6505,-0.2833,-0.5357,0.4576
0.03,-0.082,0.002,-51.3,44.5,25.8,1023,2018,5,17,20,5,26.78,0.6577,-0.2826,-0.5292,0.4553
0.014,-0.09,-0.01,-58.1,76.2,31.7,1023,2018,5,17,20,5,26.785,0.6678,-0.2776,-0.5192,0.4552
0.058,-0.025,-0.058,-57.3,86.7,35.5,1023,2018,5,17,20,5,26.797,0.6794,-0.2699,-0.5073,0.4561
0.079,0.018,-0.087,-49.8,72.5,36,1023,2018,5,17,20,5,26.817,0.6902,-0.262,-0.4964,0.4565
0.078,-0.018,-0.124,-40.4,48.9,32.7,1023,2018,5,17,20,5,26.84,0.699,-0.2561,-0.488,0.4555
0.065,-0.092,-0.171,-30.8,34,26.4,1023,2018,5,17,20,5,26.858,0.7061,-0.2514,-0.4818,0.4537
0.074,-0.166,-0.178,-23.9,33.7,19.3,0,2018,5,17,20,5,26.881,0.7116,-0.2477,-0.4769,0.4524
0.08,-0.162,-0.159,-15.4,39.5,11.4,0,2018,5,17,20,5,26.899,0.716,-0.2433,-0.4722,0.4527
0.069,-0.108,-0.135,-7.8,36.4,3.9,0,2018,5,17,20,5,26.92,0.7192,-0.2387,-0.468,0.4545
0.076,-0.089,-0.113,-2.7,27.7,-2,0,2018,5,17,20,5,26.957,0.7209,-0.235,-0.4649,0.4568
0.067,-0.063,-0.094,0.1,20.9,-6.7,0,2018,5,17,20,5,26.98,0.7214,-0.2328,-0.4628,0.4594
0.086,-0.046,-0.069,1.1,21.4,-9.1,0,2018,5,17,20,5,26.985,0.7209,-0.2319,-0.461,0.4623
0.063,-0.072,-0.022,0.3,28.6,-9.7,0,2018,5,17,20,5,27.003,0.7206,-0.2304,-0.4588,0.4658
0.035,-0.057,-0.011,-2.2,43.8,-9.1,0,2018,5,17,20,5,27.02,0.7211,-0.2273,-0.4552,0.4701
0.067,0.015,-0.032,-3.1,54.3,-8.5,0,2018,5,17,20,5,27.044,0.7223,-0.2224,-0.4502,0.4752
0.097,0.066,-0.071,0.8,57.6,-7.3,0,2018,5,17,20,5,27.061,0.7238,-0.2164,-0.4448,0.4809
0.088,0.068,-0.085,6.8,54.2,-5.6,0,2018,5,17,20,5,27.079,0.7248,-0.21,-0.4403,0.4863
0.078,0.046,-0.087,12.4,49.3,-6,0,2018,5,17,20,5,27.103,0.7253,-0.2035,-0.4369,0.4915
0.064,0.045,-0.093,18.7,38.6,-6.9,0,2018,5,17,20,5,27.12,0.7248,-0.1975,-0.435,0.4963
0.063,0.029,-0.101,23.8,23.7,-7.8,0,2018,5,17,20,5,27.143,0.7233,-0.1928,-0.435,0.5004
0.049,-0.019,-0.11,26.8,16.4,-8.5,0,2018,5,17,20,5,27.18,0.7208,-0.1894,-0.4367,0.5037
0.031,-0.041,-0.098,29.1,17.4,-10,0,2018,5,17,20,5,27.203,0.7178,-0.1863,-0.439,0.507
0.02,-0.034,-0.107,32.1,16.6,-13.4,0,2018,5,17,20,5,27.207,0.7145,-0.183,-0.4416,0.5106
0.041,-0.018,-0.136,38.2,17.2,-16.3,0,2018,5,17,20,5,27.225,0.7105,-0.1796,-0.4447,0.5148
0.028,-0.004,-0.08,43.4,20.7,-17.8,0,2018,5,17,20,5,27.242,0.7058,-0.1755,-0.4482,0.5196
0.008,0.007,-0.012,45.2,25.1,-18.9,0,2018,5,17,20,5,27.258,0.7012,-0.1703,-0.4512,0.5249
-0.007,-0.025,0.019,44,35.7,-18.9,0,2018,5,17,20,5,27.282,0.6968,-0.164,-0.4533,0.5309
-0.035,-0.054,0.054,40.8,54.2,-19,0,2018,5,17,20,5,27.3,0.6929,-0.1561,-0.4536,0.5381
-0.06,-0.018,0.094,35.6,71,-19.9,0,2018,5,17,20,5,27.323,0.6899,-0.1461,-0.4515,0.5465
-0.04,0.038,0.112,31.7,79.5,-21.3,0,2018,5,17,20,5,27.341,0.6876,-0.1348,-0.4472,0.5558
-0.057,0.14,0.189,28.1,72.9,-23.1,0,2018,5,17,20,5,27.366,0.685,-0.124,-0.4424,0.5653
-0.057,0.068,0.194,22.4,64.3,-20.1,0,2018,5,17,20,5,27.382,0.6821,-0.1154,-0.4385,0.5735
-0.1,0.334,0.379,7,55.4,-9.7,1023,2018,5,17,20,5,27.404,0.6808,-0.1073,-0.4335,0.5805
-0.052,0.329,0.353,-3.8,21.7,1.7,1023,2018,5,17,20,5,27.422,0.6811,-0.1032,-0.4298,0.5836
0.001,0.211,0.178,-4.1,0.1,0.3,1023,2018,5,17,20,5,27.444,0.6818,-0.1023,-0.4282,0.584
-0.007,0.053,0.085,-2.1,-3.8,1.2,1023,2018,5,17,20,5,27.482,0.6821,-0.103,-0.4281,0.5837
-0.038,-0.08,0.048,0.5,13.3,0.5,1023,2018,5,17,20,5,27.482,0.6825,-0.1024,-0.4274,0.5838
-0.063,-0.081,0.035,-0.9,37.5,-3.8,1023,2018,5,17,20,5,27.505,0.6826,-0.0995,-0.4249,0.586
-0.035,-0.101,0.011,-4.6,51.3,-7.3,1023,2018,5,17,20,5,27.525,0.6829,-0.095,-0.4201,0.5899
-0.035,-0.09,-0.004,-8.5,62.7,-10.8,0,2018,5,17,20,5,27.542,0.6831,-0.0898,-0.4137,0.595
0.004,-0.061,-0.02,-12.1,66.8,-14.4,0,2018,5,17,20,5,27.565,0.6833,-0.0844,-0.4058,0.601
0.029,-0.074,-0.057,-13.9,70.8,-16.6,0,2018,5,17,20,5,27.585,0.6832,-0.0793,-0.3972,0.6075
0.024,-0.096,-0.072,-15.4,84,-17.6,0,2018,5,17,20,5,27.604,0.6829,-0.0736,-0.3876,0.6146
0.023,-0.057,-0.039,-16.2,99.9,-17.8,0,2018,5,17,20,5,27.643,0.6828,-0.0663,-0.3761,0.6227
0.013,0.021,-0.009,-15.4,105.2,-19.5,0,2018,5,17,20,5,27.665,0.6828,-0.0571,-0.3627,0.6315
-0.004,0.113,-0.003,-15.3,87.5,-19.6,0,2018,5,17,20,5,27.671,0.6826,-0.0479,-0.3496,0.6398
0.012,0.155,-0.012,-17.4,59.4,-18.6,0,2018,5,17,20,5,27.689,0.6824,-0.0412,-0.3387,0.6463
0.038,0.161,-0.017,-16.8,30.9,-16.1,0,2018,5,17,20,5,27.706,0.6819,-0.0387,-0.3313,0.6508
0.017,0.134,-0.006,-15,3.8,-14.7,0,2018,5,17,20,5,27.728,0.6815,-0.0388,-0.3267,0.6536
-0.038,0.174,0.03,-18,-22.9,-14.6,0,2018,5,17,20,5,27.744,0.6808,-0.0424,-0.3256,0.6546
-0.018,0.205,-0.018,-23.3,-45.3,-12.7,0,2018,5,17,20,5,27.782,0.6802,-0.0498,-0.327,0.6541
0.038,0.192,-0.069,-20.7,-74.7,-13.6,0,2018,5,17,20,5,27.804,0.6793,-0.0603,-0.3312,0.6519
0.073,0.134,-0.129,-9.8,-104.8,-15.8,0,2018,5,17,20,5,27.809,0.678,-0.0729,-0.3388,0.6481
0.103,0.007,-0.128,0.3,-123.6,-17.2,0,2018,5,17,20,5,27.826,0.6745,-0.0886,-0.3512,0.6432
0.09,-0.076,-0.081,7.8,-113.5,-11.3,0,2018,5,17,20,5,27.846,0.6705,-0.1033,-0.365,0.6374
0.05,-0.109,-0.044,9.7,-76.9,-5.5,0,2018,5,17,20,5,27.869,0.6671,-0.1142,-0.3766,0.6324
0.013,-0.049,-0.015,4.3,-34.8,3.3,0,2018,5,17,20,5,27.886,0.665,-0.1205,-0.3839,0.6291
-0.009,0.014,-0.003,-1.5,9.3,13.5,0,2018,5,17,20,5,27.909,0.6656,-0.1212,-0.3855,0.6274
-0.08,-0.03,-0.016,-7.2,46,19,0,2018,5,17,20,5,27.925,0.6683,-0.117,-0.3826,0.627
-0.082,-0.034,-0.03,-17.1,76.7,18.3,0,2018,5,17,20,5,27.964,0.6728,-0.1092,-0.3748,0.6283
0.009,0.122,-0.019,-16.7,96.8,25.8,0,2018,5,17,20,5,27.966,0.6777,-0.0991,-0.3635,0.6313
0,0.181,-0.028,-7.6,91,30.6,0,2018,5,17,20,5,27.984,0.6836,-0.0865,-0.3515,0.6337
-0.025,0.251,0.064,-2.9,60.9,30.3,0,2018,5,17,20,5,28.005,0.6884,-0.076,-0.3427,0.6346
-0.046,0.277,0.122,2.2,19.8,26.1,0,2018,5,17,20,5,28.025,0.6921,-0.0693,-0.3385,0.6336
-0.013,0.279,0.19,6.9,-44.7,18.5,0,2018,5,17,20,5,28.048,0.6941,-0.069,-0.3408,0.6302
-0.029,0.043,0.172,7.5,-99.4,10.6,0,2018,5,17,20,5,28.066,0.6942,-0.0767,-0.3503,0.6239
-0.013,-0.075,0.116,3.2,-103.6,1,1023,2018,5,17,20,5,28.091,0.6931,-0.0883,-0.3618,0.617
0.002,-0.023,0.119,-5.9,-103.2,-2.5,1023,2018,5,17,20,5,28.108,0.6914,-0.101,-0.3723,0.6108
0.025,-0.036,0.075,-6.3,-118.9,-10.8,1023,2018,5,17,20,5,28.131,0.6892,-0.1155,-0.3824,0.6044
0.023,-0.066,0.006,-5.6,-140.4,-19.1,1023,2018,5,17,20,5,28.149,0.685,-0.1332,-0.3948,0.5974
0.119,-0.075,-0.112,-1.4,-147,-26.4,1023,2018,5,17,20,5,28.173,0.679,-0.153,-0.409,0.59
0.102,-0.047,-0.104,8.6,-159,-30.7,1023,2018,5,17,20,5,28.188,0.6714,-0.1728,-0.4244,0.5823
0.082,-0.056,-0.105,12.2,-158.2,-31.7,1023,2018,5,17,20,5,28.204,0.6621,-0.1928,-0.4409,0.5743
0.105,-0.02,-0.098,12.1,-136.1,-26.7,1023,2018,5,17,20,5,28.227,0.653,-0.2108,-0.456,0.5667
0.116,0.047,-0.094,9.5,-104.5,-14.8,1023,2018,5,17,20,5,28.265,0.645,-0.226,-0.4683,0.5599
0.115,0.139,-0.07,9.6,-84.5,-4.6,1023,2018,5,17,20,5,28.287,0.6393,-0.2369,-0.4776,0.554
0.081,0.091,-0.14,14.2,-66.4,4.8,0,2018,5,17,20,5,28.292,0.6347,-0.2446,-0.4864,0.5482
0.097,0.146,-0.199,23.1,-58,15.8,0,2018,5,17,20,5,28.309,0.6313,-0.249,-0.4949,0.5426
0.004,0.107,-0.15,32.7,-63.1,21.2,0,2018,5,17,20,5,28.328,0.6276,-0.2516,-0.5054,0.536
-0.064,-0.043,-0.052,31.1,-45.2,21,0,2018,5,17,20,5,28.35,0.6239,-0.2528,-0.5158,0.5298
-0.102,-0.001,0.024,22.6,-16.3,21.9,0,2018,5,17,20,5,28.368,0.6225,-0.2511,-0.5226,0.5255
-0.15,0.091,0.066,16.4,-11.9,14.7,0,2018,5,17,20,5,28.391,0.6219,-0.2487,-0.5267,0.5232
-0.095,0.123,0.04,17.8,-13.4,11.7,0,2018,5,17,20,5,28.429,0.6211,-0.2473,-0.5301,0.5214
-0.087,0.201,0.123,28.1,-49,3.3,0,2018,5,17,20,5,28.429,0.6185,-0.2475,-0.5355,0.519
-0.171,0.058,0.244,27.3,-101.8,-2.2,0,2018,5,17,20,5,28.452,0.6122,-0.2535,-0.5459,0.5126
-0.229,-0.151,0.37,9.8,-82.5,-7.5,0,2018,5,17,20,5,28.468,0.6057,-0.2624,-0.5562,0.5047
-0.19,0.03,0.377,-6.1,-69.5,-10.8,0,2018,5,17,20,5,28.491,0.6014,-0.2709,-0.5621,0.4988
-0.071,0.088,0.268,-11.4,-83.7,-7.4,0,2018,5,17,20,5,28.509,0.5978,-0.2807,-0.5673,0.4918
-0.039,-0.045,0.178,-14.8,-71.4,-0.6,0,2018,5,17,20,5,28.532,0.5947,-0.2906,-0.5726,0.4835
-0.044,-0.061,0.163,-23.7,-31.5,6.9,0,2018,5,17,20,5,28.55,0.595,-0.2966,-0.5743,0.4775
-0.051,-0.109,0.154,-35.1,10.1,13.5,0,2018,5,17,20,5,28.571,0.599,-0.2986,-0.5717,0.4743
-0.029,-0.062,0.178,-48.9,42.7,18.5,0,2018,5,17,20,5,28.608,0.6068,-0.2969,-0.5648,0.4738
0.008,0.072,0.157,-57,39,22.7,0,2018,5,17,20,5,28.631,0.616,-0.2947,-0.5565,0.4731
0.038,0.079,0.126,-60.2,22.9,25.8,0,2018,5,17,20,5,28.636,0.6254,-0.2937,-0.5488,0.4704
0.01,0.052,0.09,-62.9,9.3,26.7,0,2018,5,17,20,5,28.65,0.6347,-0.2942,-0.5414,0.4662
-0.011,0.029,0.058,-66.7,-0.6,26.9,0,2018,5,17,20,5,28.668,0.6437,-0.296,-0.5347,0.4604
0.018,-0.007,0.007,-69.9,0,27.7,0,2018,5,17,20,5,28.692,0.6523,-0.299,-0.5283,0.4537
0.025,-0.035,-0.024,-72.9,16.2,31.1,0,2018,5,17,20,5,28.726,0.6614,-0.3013,-0.521,0.4474
-0.007,-0.066,-0.061,-74.6,41.2,34.2,0,2018,5,17,20,5,28.749,0.6718,-0.3011,-0.5121,0.4423
-0.032,-0.056,-0.063,-75.3,59.7,35.4,0,2018,5,17,20,5,28.754,0.6834,-0.298,-0.5016,0.4386
0.017,-0.057,-0.082,-76.1,71.7,37,1023,2018,5,17,20,5,28.771,0.6957,-0.2932,-0.4898,0.4358
0.05,-0.002,-0.116,-72,77.3,38,1023,2018,5,17,20,5,28.794,0.7081,-0.2871,-0.4773,0.4337
0.094,0.03,-0.163,-61.8,71.2,38.3,1023,2018,5,17,20,5,28.812,0.72,-0.28,-0.4654,0.4318
0.079,0.014,-0.177,-47.9,51.5,33.9,1023,2018,5,17,20,5,28.835,0.7301,-0.2733,-0.4555,0.4296
0.066,-0.016,-0.183,-34.1,26.4,27.4,1023,2018,5,17,20,5,28.869,0.7374,-0.2691,-0.4489,0.4268
0.089,-0.075,-0.176,-21.5,8.1,19.4,1023,2018,5,17,20,5,28.893,0.742,-0.2672,-0.4453,0.4237
0.09,-0.104,-0.189,-10.1,1.7,11.7,1023,2018,5,17,20,5,28.896,0.7445,-0.2666,-0.4438,0.4213
0.093,-0.107,-0.207,-1.3,-1.1,4.8,1023,2018,5,17,20,5,28.912,0.7455,-0.2664,-0.4434,0.42
0.089,-0.103,-0.188,6.9,-2.2,-1,1023,2018,5,17,20,5,28.929,0.7453,-0.2663,-0.4441,0.4198
0.089,-0.094,-0.133,11.4,0.2,-5.8,0,2018,5,17,20,5,28.953,0.7442,-0.2661,-0.4452,0.4206
0.084,-0.058,-0.086,13.9,1.6,-9.7,0,2018,5,17,20,5,28.971,0.7426,-0.2658,-0.4465,0.4224
0.102,-0.021,-0.08,15.4,0.9,-11.8,0,2018,5,17,20,5,28.994,0.7401,-0.2665,-0.4478,0.4249
0.097,0.001,-0.055,18.3,-0.7,-12.5,0,2018,5,17,20,5,29.012,0.7374,-0.2671,-0.4493,0.4276
0.084,0.004,-0.028,19.3,-0.3,-11.8,0,2018,5,17,20,5,29.036,0.7347,-0.2674,-0.451,0.4303
0.067,0.006,-0.016,20.4,-0.6,-11.5,0,2018,5,17,20,5,29.054,0.732,-0.2674,-0.4527,0.433
0.044,0.012,0,21.2,-2.6,-11.6,0,2018,5,17,20,5,29.077,0.7294,-0.2671,-0.4547,0.4355
0.042,0.003,0.001,22.8,-1.5,-11.7,0,2018,5,17,20,5,29.112,0.7266,-0.2669,-0.4569,0.4381
0.021,-0.016,0.014,23.1,5.1,-11.7,0,2018,5,17,20,5,29.135,0.7238,-0.2661,-0.459,0.4409
0,-0.001,0.023,22.8,11.5,-12.1,0,2018,5,17,20,5,29.139,0.7215,-0.2642,-0.4605,0.4444
-0.008,0.015,0.037,19.8,15.4,-12.4,0,2018,5,17,20,5,29.154,0.7196,-0.2616,-0.4613,0.4481
0.002,0.037,0.022,19.1,11.8,-12.9,0,2018,5,17,20,5,29.191,0.7179,-0.2587,-0.4622,0.4516
0.008,0.053,0.005,19.8,4.7,-13.4,0,2018,5,17,20,5,29.214,0.7157,-0.2556,-0.4644,0.4544
0.031,0.066,-0.004,22.3,-2.6,-13.6,0,2018,5,17,20,5,29.219,0.7131,-0.2535,-0.4673,0.4569
0.025,0.035,0.027,24.3,-8.6,-13.6,0,2018,5,17,20,5,29.236,0.7099,-0.2522,-0.4708,0.4589
0.024,0.005,-0.003,25.6,-11.3,-13.4,0,2018,5,17,20,5,29.253,0.7063,-0.2515,-0.4748,0.4607
0.018,-0.018,-0.051,28.6,-10.4,-13,0,2018,5,17,20,5,29.277,0.7022,-0.2508,-0.4797,0.4623
0.016,-0.014,-0.042,31.4,-4.4,-13.6,0,2018,5,17,20,5,29.313,0.6978,-0.2497,-0.4847,0.4643
0.034,0.014,0.004,32.8,-0.1,-14.2,0,2018,5,17,20,5,29.337,0.6936,-0.2477,-0.4891,0.4671
0.012,0.001,0.04,30.3,-1.1,-13.9,0,2018,5,17,20,5,29.341,0.6898,-0.2452,-0.493,0.4699
-0.016,0.012,0.02,28.5,-7,-14.8,0,2018,5,17,20,5,29.354,0.6859,-0.2431,-0.4971,0.4724
-0.024,0.018,0.026,27.7,-14.8,-14.6,0,2018,5,17,20,5,29.391,0.6818,-0.2422,-0.5016,0.474
-0.017,0.011,0.008,26,-13.4,-14.1,0,2018,5,17,20,5,29.414,0.6777,-0.2417,-0.5063,0.4753
0.008,0.055,-0.022,27.4,-7.8,-12.2,0,2018,5,17,20,5,29.419,0.6737,-0.2408,-0.5106,0.4767
-0.009,0.065,0.033,28.6,-3.7,-9.7,0,2018,5,17,20,5,29.438,0.6701,-0.2388,-0.5147,0.4784
-0.026,0.054,0.076,26.7,4.2,-8.1,0,2018,5,17,20,5,29.454,0.6672,-0.2359,-0.5179,0.4804
-0.037,0.057,0.121,23.7,13.6,-6.1,1023,2018,5,17,20,5,29.476,0.665,-0.2318,-0.5202,0.4829
-0.032,0.046,0.113,22,21.5,-4.9,1023,2018,5,17,20,5,29.514,0.6635,-0.2269,-0.5215,0.4859
-0.036,0.061,0.122,19.8,27.7,-1.7,1023,2018,5,17,20,5,29.536,0.6625,-0.2212,-0.5222,0.4892
-0.038,0.041,0.131,18.1,29.8,-0.2,1023,2018,5,17,20,5,29.541,0.6616,-0.2152,-0.523,0.4922
-0.068,-0.011,0.147,14.5,33.4,0.6,1023,2018,5,17,20,5,29.556,0.6613,-0.2089,-0.523,0.4954
-0.094,-0.073,0.176,4.8,51,-2.1,1023,2018,5,17,20,5,29.58,0.6622,-0.2018,-0.5206,0.4995
-0.074,-0.057,0.185,-6,69.1,-6,1023,2018,5,17,20,5,29.593,0.6643,-0.1938,-0.5151,0.5056
-0.03,-0.001,0.198,-16.3,71.5,-7.6,1023,2018,5,17,20,5,29.615,0.6672,-0.1861,-0.5079,0.5119
0,-0.028,0.175,-20,60.1,-15.5,0,2018,5,17,20,5,29.638,0.6696,-0.1803,-0.5002,0.5184
-0.01,-0.059,0.123,-25.5,70,-13.3,0,2018,5,17,20,5,29.656,0.6725,-0.1751,-0.4909,0.5253
-0.003,-0.062,0.079,-27.3,70.6,-18.8,0,2018,5,17,20,5,29.694,0.6752,-0.1699,-0.4809,0.5327
0.027,-0.028,0.051,-27.5,71.5,-20.8,0,2018,5,17,20,5,29.718,0.6775,-0.1653,-0.4707,0.5404
0.02,-0.02,0.027,-25.9,72.6,-24.1,0,2018,5,17,20,5,29.722,0.6794,-0.1606,-0.4601,0.5484
0.032,0,0.003,-22.7,69.8,-27.4,0,2018,5,17,20,5,29.739,0.6805,-0.1562,-0.4501,0.5566
0.002,-0.044,0.005,-23.3,78.1,-28.8,0,2018,5,17,20,5,29.757,0.6811,-0.1514,-0.44,0.5652
0.034,-0.005,0,-18.8,79.7,-35.3,0,2018,5,17,20,5,29.781,0.6812,-0.1459,-0.4293,0.5747
0.047,-0.025,-0.066,-14.5,90.4,-39.4,0,2018,5,17,20,5,29.817,0.6802,-0.1402,-0.4186,0.585
0.092,-0.034,-0.118,-4.2,115.3,-46.1,0,2018,5,17,20,5,29.817,0.6782,-0.1321,-0.4069,0.5974
0.099,-0.077,-0.103,9,136.4,-51.6,0,2018,5,17,20,5,29.84,0.6751,-0.1192,-0.3939,0.6121
0.045,-0.105,0.011,9.3,165.2,-48.7,0,2018,5,17,20,5,29.856,0.6713,-0.1034,-0.3787,0.6285
0.048,-0.037,0.044,-2.3,199.9,-44.1,0,2018,5,17,20,5,29.88,0.6683,-0.0845,-0.3582,0.6463
0.095,0.028,-0.002,-10.9,222.2,-42.5,0,2018,5,17,20,5,29.897,0.6662,-0.0632,-0.3321,0.6646
0.065,0.014,-0.039,-15.7,236.2,-40.4,0,2018,5,17,20,5,29.921,0.6637,-0.0406,-0.3028,0.6826
0.092,0.185,-0.023,-23.8,236.4,-35.8,0,2018,5,17,20,5,29.94,0.6608,-0.0169,-0.2715,0.6994
0.111,0.293,0.016,-15.7,170,-34.1,0,2018,5,17,20,5,29.976,0.6572,0.0036,-0.2447,0.7128
0.053,0.246,-0.031,-2.1,85.9,-31.4,0,2018,5,17,20,5,29.996,0.6528,0.0163,-0.2288,0.7219
-0.018,0.147,-0.032,5.5,-8.2,-33.8,0,2018,5,17,20,5,30.001,0.648,0.0202,-0.2253,0.7272
0.012,-0.005,-0.031,8.4,-100.2,-41.7,0,2018,5,17,20,5,30.021,0.6427,0.0139,-0.2334,0.7295
0.06,-0.133,-0.071,7.6,-145.2,-44.9,0,2018,5,17,20,5,30.038,0.6362,-0.0013,-0.2514,0.7293
0.096,-0.116,-0.159,5.8,-139.2,-41.2,0,2018,5,17,20,5,30.075,0.6297,-0.0178,-0.2713,0.7275
0.148,0.072,-0.249,5.2,-111.5,-32.5,0,2018,5,17,20,5,30.098,0.6239,-0.0319,-0.288,0.7257
0.175,0.254,-0.236,8.3,-111.8,-18.7,0,2018,5,17,20,5,30.102,0.619,-0.0439,-0.303,0.7231
0.168,0.311,-0.153,15.3,-130.1,-4.1,1023,2018,5,17,20,5,30.121,0.6156,-0.0554,-0.3201,0.7179
0.131,0.303,-0.108,19.5,-138.5,11,1023,2018,5,17,20,5,30.138,0.6132,-0.0668,-0.3396,0.7099
0.103,0.243,-0.041,17.1,-131.8,28.6,1023,2018,5,17,20,5,30.161,0.6124,-0.0773,-0.3595,0.6997
0.096,0.213,0.019,13.4,-105.9,50.1,1023,2018,5,17,20,5,30.197,0.6141,-0.0849,-0.377,0.688
0.037,0.257,0.046,10.9,-78.7,69.5,1023,2018,5,17,20,5,30.221,0.6188,-0.0884,-0.3909,0.6755
-0.032,0.219,0.022,8.6,-69.5,86.1,1023,2018,5,17,20,5,30.224,0.6258,-0.0889,-0.4025,0.662
-0.196,0.084,0.032,2.1,-62.4,97.8,1023,2018,5,17,20,5,30.242,0.6346,-0.0883,-0.413,0.6471
-0.271,-0.104,-0.007,-4.3,-37.3,103.8,0,2018,5,17,20,5,30.265,0.6451,-0.0861,-0.4207,0.6319
-0.289,-0.174,0.034,-7.5,4.7,102.7,0,2018,5,17,20,5,30.284,0.6564,-0.0803,-0.4239,0.6187
-0.315,-0.121,0.103,-7.3,37.2,89.6,0,2018,5,17,20,5,30.301,0.6674,-0.0705,-0.4226,0.609
-0.356,-0.25,0.1,-7.7,77.2,69.3,0,2018,5,17,20,5,30.319,0.6766,-0.0581,-0.4174,0.6038
-0.252,-0.159,0.028,-7.4,116,46.7,0,2018,5,17,20,5,30.343,0.6839,-0.0422,-0.407,0.6039
-0.135,0.07,-0.01,-4.1,119.8,30.3,0,2018,5,17,20,5,30.379,0.6885,-0.0247,-0.3946,0.6078
-0.04,0.173,-0.006,0.1,85.7,15.9,0,2018,5,17,20,5,30.403,0.6912,-0.0101,-0.3839,0.6121
-0.067,0.152,0.028,3.4,38.6,5.8,0,2018,5,17,20,5,30.407,0.6918,-0.0011,-0.3783,0.6149
-0.033,0.033,0.077,1.1,1.5,-5.9,0,2018,5,17,20,5,30.422,0.6915,0.0019,-0.3766,0.6162
0.004,-0.078,0.128,-5.1,-12.1,-17.2,0,2018,5,17,20,5,30.445,0.6903,-0.0001,-0.3766,0.6177
0.051,-0.052,0.119,-5.2,-27.2,-26.3,0,2018,5,17,20,5,30.481,0.688,-0.005,-0.377,0.6199
0.091,-0.021,0.074,-4.8,-55.3,-32.5,0,2018,5,17,20,5,30.504,0.6849,-0.0131,-0.3799,0.6215
0.121,-0.131,0.042,-8.5,-64,-37.3,0,2018,5,17,20,5,30.508,0.6808,-0.0239,-0.3861,0.6218
0.154,-0.183,-0.013,-7.4,-22.5,-42.2,0,2018,5,17,20,5,30.522,0.6767,-0.0318,-0.39,0.6236
0.121,-0.222,-0.097,-5.4,4.9,-46.6,0,2018,5,17,20,5,30.541,0.6717,-0.0359,-0.3909,0.6282
0.165,-0.249,-0.093,-14.3,95.2,-38.1,0,2018,5,17,20,5,30.564,0.6677,-0.0338,-0.3849,0.6362
0.206,-0.012,-0.073,-17.4,180.3,-32,0,2018,5,17,20,5,30.581,0.6652,-0.0204,-0.3672,0.6497
0.177,-0.026,-0.094,-14.5,220.8,-28.8,0,2018,5,17,20,5,30.604,0.6628,0.0001,-0.3426,0.6657
0.083,-0.128,-0.065,-17.9,252.6,-33.6,0,2018,5,17,20,5,30.622,0.6593,0.0244,-0.3136,0.6828
0.065,0.009,0.048,-16.4,258.9,-39.3,0,2018,5,17,20,5,30.645,0.6535,0.0503,-0.2802,0.7012
0.104,0.038,-0.005,-11.6,237,-43.1,0,2018,5,17,20,5,30.664,0.6463,0.0738,-0.2472,0.7181
0.088,0.202,-0.097,-1.6,209.7,-44.6,0,2018,5,17,20,5,30.688,0.6374,0.0967,-0.2184,0.7325
0.09,0.219,-0.089,12.5,150.7,-44.4,0,2018,5,17,20,5,30.706,0.6277,0.1162,-0.1971,0.744
-0.033,-0.009,-0.092,17.6,120,-44.8,0,2018,5,17,20,5,30.721,0.6184,0.1313,-0.1825,0.753
-0.076,0.025,-0.008,18.3,111.4,-44.6,1023,2018,5,17,20,5,30.745,0.6087,0.1452,-0.1701,0.7611
-0.073,0.331,0.057,10.9,93.1,-27.5,1023,2018,5,17,20,5,30.762,0.6001,0.1576,-0.1589,0.7678
-0.041,0.471,-0.053,6.1,49.2,-9.1,1023,2018,5,17,20,5,30.786,0.595,0.1661,-0.1511,0.7716
-0.061,0.522,-0.096,9.7,-16,7.8,1023,2018,5,17,20,5,30.805,0.5939,0.1693,-0.1501,0.772
-0.096,0.207,-0.133,14.7,-63.1,17.9,1023,2018,5,17,20,5,30.824,0.5961,0.1671,-0.1577,0.7692
-0.192,0.025,-0.108,11.4,-59.8,27.5,1023,2018,5,17,20,5,30.847,0.6003,0.1633,-0.1673,0.7647
-0.144,0.055,-0.145,6.8,-50.8,33.2,1023,2018,5,17,20,5,30.864,0.6053,0.1599,-0.1751,0.7598
-0.036,0.299,-0.114,9.6,-57.1,38.5,1023,2018,5,17,20,5,30.889,0.6107,0.1571,-0.182,0.7544
-0.089,0.332,-0.036,18.7,-122.3,38.3,1023,2018,5,17,20,5,30.907,0.6175,0.1514,-0.1944,0.7469
-0.089,0.291,-0.022,18.4,-183.5,48.6,0,2018,5,17,20,5,30.943,0.626,0.1387,-0.2162,0.7362
-0.073,0.104,-0.068,11.5,-201.2,57.8,0,2018,5,17,20,5,30.967,0.6362,0.1215,-0.2423,0.7223
-0.039,0.147,-0.091,12.7,-199.6,63.9,0,2018,5,17,20,5,30.972,0.647,0.1042,-0.2667,0.7066
-0.04,0.229,-0.093,15.8,-241,65.7,0,2018,5,17,20,5,30.986,0.6575,0.0848,-0.2943,0.6883
-0.032,0.204,-0.11,18.7,-314.3,61.6,0,2018,5,17,20,5,31.004,0.6673,0.0586,-0.3287,0.6656
-0.067,-0.002,-0.106,14.9,-362.6,52.6,0,2018,5,17,20,5,31.026,0.6749,0.0241,-0.37,0.6379
-0.044,-0.141,-0.132,6.2,-360.7,42.8,0,2018,5,17,20,5,31.061,0.6794,-0.014,-0.4109,0.6076
0.019,-0.038,-0.217,5,-370.6,30.2,0,2018,5,17,20,5,31.084,0.6805,-0.0535,-0.4494,0.5761
0.024,-0.101,-0.334,10,-385.7,17.2,0,2018,5,17,20,5,31.088,0.6771,-0.0952,-0.4879,0.5424
0.041,-0.091,-0.339,18.6,-392.8,-0.7,0,2018,5,17,20,5,31.105,0.6685,-0.1383,-0.5257,0.5074
0.064,-0.009,-0.304,25.4,-410.4,-15.7,0,2018,5,17,20,5,31.129,0.6542,-0.1832,-0.5626,0.4709
0.054,-0.015,-0.299,29.2,-413.8,-23.2,0,2018,5,17,20,5,31.164,0.6348,-0.2293,-0.5979,0.4321
0.07,-0.01,-0.294,30.9,-384.8,-23.3,0,2018,5,17,20,5,31.186,0.6121,-0.2734,-0.6293,0.3928
0.097,-0.149,-0.169,33,-313.1,-15.2,0,2018,5,17,20,5,31.19,0.5894,-0.3099,-0.6547,0.3573
0.047,-0.251,-0.019,24.2,-221.2,-3.9,0,2018,5,17,20,5,31.205,0.57,-0.3368,-0.6728,0.3298
-0.002,-0.281,0.168,5.8,-122.4,6.4,0,2018,5,17,20,5,31.243,0.5579,-0.3529,-0.6835,0.3114
0.001,-0.177,0.269,-14.6,-38.8,19.4,0,2018,5,17,20,5,31.267,0.5545,-0.3589,-0.6879,0.3006
0.039,-0.101,0.228,-26,12.9,32.1,0,2018,5,17,20,5,31.271,0.5579,-0.3577,-0.688,0.2955
0.028,-0.081,0.226,-30.1,31.5,38.9,0,2018,5,17,20,5,31.288,0.5648,-0.3522,-0.6861,0.2933
-0.076,-0.138,0.25,-34.2,20.1,41,0,2018,5,17,20,5,31.323,0.5722,-0.3464,-0.6841,0.2906
-0.068,-0.201,0.238,-45.4,29.5,42.4,0,2018,5,17,20,5,31.346,0.5804,-0.3411,-0.6815,0.2866
-0.039,-0.177,0.191,-57,50.6,41,0,2018,5,17,20,5,31.35,0.5911,-0.3344,-0.6767,0.284
-0.056,-0.151,0.145,-63.8,66.8,36.1,0,2018,5,17,20,5,31.368,0.6036,-0.3267,-0.6696,0.2834
-0.067,-0.213,0.086,-68.4,76.9,28.9,0,2018,5,17,20,5,31.391,0.6171,-0.3192,-0.6598,0.286
-0.063,-0.156,0.029,-73.5,87.2,23.8,0,2018,5,17,20,5,31.406,0.631,-0.3118,-0.6482,0.2901
-0.043,-0.011,0.014,-71.6,71.1,16.3,1023,2018,5,17,20,5,31.425,0.6443,-0.3052,-0.6364,0.2942
-0.002,-0.003,0,-66.4,42.6,10.1,1023,2018,5,17,20,5,31.448,0.6552,-0.3019,-0.6258,0.296
-0.002,-0.061,-0.05,-59.3,26.6,3.9,1023,2018,5,17,20,5,31.467,0.6635,-0.302,-0.6169,0.2964
0.012,-0.077,-0.106,-52.9,27.2,-0.9,1023,2018,5,17,20,5,31.49,0.67,-0.3032,-0.6089,0.2971
0.029,-0.025,-0.141,-45.1,27.8,-3.4,1023,2018,5,17,20,5,31.507,0.6764,-0.303,-0.6015,0.2979
0.068,0.005,-0.144,-35.4,19.3,-4.6,1023,2018,5,17,20,5,31.531,0.6816,-0.3029,-0.5952,0.2988
0.054,-0.023,-0.137,-26.9,15.4,-5.5,1023,2018,5,17,20,5,31.567,0.6853,-0.3031,-0.5904,0.2995
0.06,-0.018,-0.167,-22,19.3,-7.4,1023,2018,5,17,20,5,31.59,0.6884,-0.3031,-0.5861,0.3009
0.103,0.029,-0.194,-15,19.6,-7.4,0,2018,5,17,20,5,31.595,0.6909,-0.3027,-0.5823,0.303
0.129,0.01,-0.186,-6,17,-6.3,0,2018,5,17,20,5,31.609,0.6925,-0.3021,-0.5796,0.3052
0.106,-0.011,-0.189,1.5,19.8,-5.7,0,2018,5,17,20,5,31.648,0.6932,-0.3009,-0.5779,0.3078
0.088,0.001,-0.129,4.5,21.2,-5.6,0,2018,5,17,20,5,31.671,0.6936,-0.299,-0.5768,0.3108
0.094,0.02,-0.106,8,16.2,-8.1,0,2018,5,17,20,5,31.675,0.6936,-0.2971,-0.5761,0.314
0.114,0.059,-0.12,13.6,0.5,-10.4,0,2018,5,17,20,5,31.689,0.6921,-0.297,-0.5764,0.3169
0.111,0.023,-0.146,20,-12.3,-11.5,0,2018,5,17,20,5,31.725,0.6893,-0.2983,-0.5782,0.3185
0.111,-0.047,-0.133,23.9,-6.9,-11.8,0,2018,5,17,20,5,31.749,0.6858,-0.2997,-0.5808,0.32
0.074,-0.064,-0.112,25.3,8.9,-12,0,2018,5,17,20,5,31.753,0.6826,-0.2995,-0.583,0.3229
0.076,-0.035,-0.122,29.2,13.3,-14.2,0,2018,5,17,20,5,31.771,0.6797,-0.2979,-0.5847,0.3272
0.07,-0.013,-0.121,36.4,4.1,-16.6,0,2018,5,17,20,5,31.789,0.6759,-0.2966,-0.5872,0.3318
0.077,-0.022,-0.133,43.4,-6.1,-19.1,0,2018,5,17,20,5,31.812,0.6706,-0.2964,-0.5911,0.3358
0.059,-0.056,-0.126,47.9,-9,-20.8,0,2018,5,17,20,5,31.834,0.6642,-0.2969,-0.5959,0.3397
0.072,-0.085,-0.11,51.1,0.2,-21.4,0,2018,5,17,20,5,31.869,0.6576,-0.2965,-0.6008,0.3442
0.058,-0.044,-0.099,55.1,5.2,-22.1,0,2018,5,17,20,5,31.892,0.6508,-0.2953,-0.6056,0.3499
0.053,-0.019,-0.053,58.4,5.6,-22.2,0,2018,5,17,20,5,31.897,0.6427,-0.2948,-0.6103,0.3568
0.043,-0.015,-0.022,59.7,7.4,-21.9,0,2018,5,17,20,5,31.91,0.6347,-0.2938,-0.6151,0.3638
0.033,-0.021,0.014,60.2,16.8,-20.4,0,2018,5,17,20,5,31.929,0.627,-0.2918,-0.6193,0.3715
0.029,0.002,0.057,59.8,23.5,-18.5,0,2018,5,17,20,5,31.953,0.6202,-0.2881,-0.6228,0.3799
-0.019,0.028,0.102,58,22.9,-16,0,2018,5,17,20,5,31.988,0.6141,-0.2835,-0.6259,0.3881
-0.032,0.032,0.123,53.3,21.8,-13.9,0,2018,5,17,20,5,32.011,0.6082,-0.2786,-0.6296,0.3948
-0.025,0.03,0.107,49.6,28.1,-10.3,0,2018,5,17,20,5,32.016,0.6032,-0.2735,-0.6323,0.4016
-0.067,0.009,0.135,44.7,41.6,-6.4,0,2018,5,17,20,5,32.031,0.5995,-0.2671,-0.6339,0.409
-0.096,0.028,0.192,35.9,58.9,-3.9,0,2018,5,17,20,5,32.054,0.597,-0.2592,-0.6344,0.4169
-0.093,0.073,0.179,27.8,63.7,-2.1,0,2018,5,17,20,5,32.075,0.5961,-0.2503,-0.6332,0.4253
-0.102,0.077,0.161,21.8,66.5,0.7,0,2018,5,17,20,5,32.092,0.5962,-0.2417,-0.6309,0.4335
-0.079,0.029,0.129,17.2,79.7,3.2,0,2018,5,17,20,5,32.115,0.5972,-0.2325,-0.6275,0.442
-0.09,-0.014,0.108,12.9,102.3,6.1,0,2018,5,17,20,5,32.131,0.5997,-0.2209,-0.6219,0.4522
-0.067,0.017,0.116,6.5,125.3,9.2,1023,2018,5,17,20,5,32.167,0.604,-0.207,-0.6135,0.4645
-0.066,0.075,0.127,2.8,136.5,11.3,1023,2018,5,17,20,5,32.188,0.609,-0.1914,-0.6034,0.4777
-0.077,0.084,0.116,-1.7,122.3,6.3,1023,2018,5,17,20,5,32.192,0.6139,-0.1763,-0.5929,0.4903
-0.047,0.034,0.062,-3.1,103.8,0.2,1023,2018,5,17,20,5,32.211,0.618,-0.1641,-0.5824,0.5017
-0.025,0.039,0.037,-4.7,87.3,-4.3,1023,2018,5,17,20,5,32.231,0.6212,-0.1546,-0.5726,0.512
0.044,-0.001,-0.001,-5.8,96.6,0,1023,2018,5,17,20,5,32.27,0.6239,-0.146,-0.5629,0.5219
0.057,0.021,-0.011,-4.1,99.5,-1.4,1023,2018,5,17,20,5,32.293,0.6266,-0.1366,-0.5524,0.5324
0.064,-0.018,-0.011,-1.6,96.8,-2.5,1023,2018,5,17,20,5,32.298,0.6286,-0.1274,-0.5421,0.5427
0.076,-0.065,0.006,-0.7,108,-3.6,1023,2018,5,17,20,5,32.332,0.6303,-0.1178,-0.5314,0.5534
0.061,-0.07,0.037,-2.5,125,-5.4,1023,2018,5,17,20,5,32.355,0.6319,-0.1068,-0.5188,0.5656
0.051,-0.059,0.064,-6.2,133.9,-8.6,0,2018,5,17,20,5,32.359,0.6338,-0.0945,-0.5041,0.5789
0.042,-0.032,0.041,-8.4,135.2,-10.6,0,2018,5,17,20,5,32.376,0.6354,-0.0822,-0.4882,0.5925
0.032,0.021,0.037,-12,126.5,-11.4,0,2018,5,17,20,5,32.394,0.6368,-0.0703,-0.4721,0.6053
0.029,0.034,0.034,-17.5,126.7,-8.6,0,2018,5,17,20,5,32.412,0.6386,-0.0593,-0.4558,0.6171
0.022,0.009,0,-18.4,126.5,-11,0,2018,5,17,20,5,32.436,0.6403,-0.0483,-0.4388,0.6285
0.018,0.046,-0.012,-18.4,119.4,-13.6,0,2018,5,17,20,5,32.469,0.6412,-0.0379,-0.4222,0.6395
0.005,0.082,-0.017,-16.3,100,-14.2,0,2018,5,17,20,5,32.493,0.6417,-0.0288,-0.4068,0.6494
0.005,0.12,-0.023,-16,73.8,-13.2,0,2018,5,17,20,5,32.498,0.642,-0.0218,-0.3941,0.6572
0.012,0.104,-0.027,-15.3,52.3,-11.4,0,2018,5,17,20,5,32.533,0.6422,-0.0173,-0.384,0.663
0.005,0.088,-0.032,-17.9,42.2,-9.4,0,2018,5,17,20,5,32.556,0.6425,-0.0147,-0.3759,0.6675
0.015,0.075,-0.034,-16.5,36.5,-9.4,0,2018,5,17,20,5,32.561,0.6429,-0.013,-0.3684,0.6713
0.006,0.034,-0.047,-15.7,44.2,-9.6,0,2018,5,17,20,5,32.576,0.6431,-0.0113,-0.3612,0.6751
0.028,0.015,-0.083,-13.5,55.4,-13.8,0,2018,5,17,20,5,32.601,0.6427,-0.0085,-0.3532,0.6797
0.03,0.087,-0.035,-8.4,42.3,-15.3,0,2018,5,17,20,5,32.615,0.6416,-0.0054,-0.3451,0.6849
0.032,0.137,0.02,-1,0.3,-18.1,0,2018,5,17,20,5,32.65,0.6403,-0.0044,-0.3406,0.6884
0.042,0.057,-0.025,2.4,-24,-15.7,0,2018,5,17,20,5,32.674,0.6384,-0.007,-0.3414,0.6897
-0.013,0.041,0.038,-2.8,-14,-10.2,0,2018,5,17,20,5,32.678,0.6371,-0.0099,-0.3427,0.6902
0.02,0.042,-0.018,-2,-30.5,-8.8,0,2018,5,17,20,5,32.695,0.6361,-0.0139,-0.3442,0.6903
0.031,0.079,-0.129,-1.5,-27,-2.1,0,2018,5,17,20,5,32.717,0.6357,-0.0177,-0.347,0.6892
0.064,0.094,-0.106,1.7,-19.7,2.3,0,2018,5,17,20,5,32.754,0.6357,-0.0205,-0.3492,0.688
0.023,0.161,0.02,3.7,-37,7.8,0,2018,5,17,20,5,32.778,0.6361,-0.0228,-0.3523,0.686
0.02,0.093,0.047,0,-52.6,16,0,2018,5,17,20,5,32.782,0.6376,-0.0268,-0.3568,0.6822
0.045,0.107,0.029,-1.5,-62.7,25,0,2018,5,17,20,5,32.797,0.64,-0.032,-0.3629,0.6764
0.073,0.083,-0.019,2.6,-70.5,32.1,0,2018,5,17,20,5,32.822,0.6432,-0.0379,-0.3696,0.6694
0.018,0.061,0.002,6.4,-77.1,36,0,2018,5,17,20,5,32.837,0.6465,-0.0438,-0.378,0.661
-0.014,-0.025,-0.006,3.8,-54,40.8,0,2018,5,17,20,5,32.854,0.65,-0.0486,-0.3863,0.6525
0.034,0.021,-0.051,8.4,-35,37.4,0,2018,5,17,20,5,32.878,0.6537,-0.0505,-0.3917,0.6454
0.041,-0.018,-0.086,15.5,-30.7,32.8,1023,2018,5,17,20,5,32.914,0.6563,-0.0511,-0.3968,0.6395
-0.001,-0.097,-0.042,18.3,-26.8,27.2,1023,2018,5,17,20,5,32.934,0.6578,-0.0513,-0.4025,0.6344
-0.01,-0.083,-0.01,15,-16.6,23.3,1023,2018,5,17,20,5,32.94,0.6588,-0.0511,-0.4073,0.6303
0.037,-0.02,-0.02,13.4,-6.8,22.4,1023,2018,5,17,20,5,32.957,0.66,-0.0498,-0.41,0.6274
-0.004,0.045,0.085,14.7,-32,15.2,1023,2018,5,17,20,5,33.003,0.6609,-0.0491,-0.4129,0.6246
-0.043,-0.036,0.124,6,-59.9,13.4,1023,2018,5,17,20,5,33.006,0.6616,-0.0527,-0.4187,0.6196
-0.014,-0.098,0.113,-3.4,-40.4,7.1,1023,2018,5,17,20,5,33.019,0.6622,-0.0583,-0.4238,0.615
0.026,-0.056,0.058,-6.2,-19.5,3.4,1023,2018,5,17,20,5,33.056,0.6628,-0.0625,-0.4256,0.6128
0.043,0.002,0.029,-4.5,-12.8,2.6,1023,2018,5,17,20,5,33.081,0.6633,-0.0652,-0.4259,0.6117
0.046,0.032,0.021,-1.8,-16.2,1.3,0,2018,5,17,20,5,33.085,0.6637,-0.0675,-0.4263,0.6108
0.021,0.045,0.038,-0.4,-19.6,1.2,0,2018,5,17,20,5,33.098,0.6638,-0.0699,-0.4273,0.6097
0.025,0.011,0.04,-2.8,-12.3,1.2,0,2018,5,17,20,5,33.136,0.664,-0.0721,-0.4281,0.6086
0.026,-0.007,0.029,-4.8,-6.3,0.8,0,2018,5,17,20,5,33.136,0.6644,-0.0739,-0.4279,0.6082
0.024,-0.026,0.029,-4,0.1,-0.5,0,2018,5,17,20,5,33.159,0.6646,-0.0753,-0.4272,0.6082
0.003,0.006,0.039,-7.5,10.9,0.8,0,2018,5,17,20,5,33.196,0.6651,-0.0757,-0.4254,0.6089
-0.002,0.018,0.051,-11.3,17.8,-0.2,0,2018,5,17,20,5,33.22,0.6662,-0.075,-0.4221,0.6101
0.002,-0.013,0.046,-11.1,6.8,-3.2,0,2018,5,17,20,5,33.224,0.667,-0.0754,-0.419,0.6113
0.019,-0.013,0.014,-13,11.6,-5.2,0,2018,5,17,20,5,33.241,0.6676,-0.0762,-0.4161,0.6125
0.04,0.028,0,-10.1,0,-6.3,0,2018,5,17,20,5,33.279,0.6679,-0.0774,-0.4134,0.6139
0.055,-0.005,-0.023,-6.9,-7.3,-6.3,0,2018,5,17,20,5,33.303,0.6677,-0.0799,-0.4123,0.6145
0.043,0,-0.015,-4.6,-8.6,-6.1,0,2018,5,17,20,5,33.307,0.6672,-0.0825,-0.4119,0.6149
0.046,-0.048,-0.021,-2.2,-18.1,-7.2,0,2018,5,17,20,5,33.32,0.6664,-0.0855,-0.4126,0.615
0.057,-0.059,-0.019,-0.6,-12.4,-6.7,0,2018,5,17,20,5,33.356,0.6651,-0.0891,-0.4139,0.615
0.088,-0.036,-0.03,-0.6,-6.9,-2.9,0,2018,5,17,20,5,33.379,0.6642,-0.0916,-0.4144,0.6152
0.073,0.005,-0.025,-0.4,5.5,2.6,0,2018,5,17,20,5,33.384,0.6638,-0.0928,-0.4141,0.6157
0.11,0.128,-0.075,6.1,5.4,9.6,0,2018,5,17,20,5,33.403,0.6644,-0.0918,-0.413,0.6159
0.096,0.253,-0.084,16.8,-24.5,13.9,0,2018,5,17,20,5,33.437,0.6649,-0.0905,-0.4149,0.6143
0.077,0.129,-0.069,22.4,-48.2,13.9,0,2018,5,17,20,5,33.46,0.6646,-0.0917,-0.421,0.6103
0.015,0.147,0.014,27.3,-67.9,12.7,0,2018,5,17,20,5,33.464,0.6636,-0.0943,-0.4294,0.6052
-0.08,0.124,0.06,28.7,-102.2,7.7,0,2018,5,17,20,5,33.48,0.661,-0.1005,-0.4419,0.5979
0.004,0.022,-0.023,28.3,-118.5,3.3,0,2018,5,17,20,5,33.503,0.6573,-0.11,-0.4567,0.5891
0.003,0.078,0.066,30.7,-126.6,4.7,0,2018,5,17,20,5,33.521,0.653,-0.1205,-0.4722,0.5796
-0.031,0.073,0.145,24.2,-138.5,8.5,0,2018,5,17,20,5,33.542,0.6482,-0.1325,-0.4889,0.5683
-0.087,0.096,0.233,5.6,-126.6,17.7,0,2018,5,17,20,5,33.559,0.6451,-0.145,-0.504,0.5556
-0.126,0.169,0.122,-2.4,-136.2,17.4,0,2018,5,17,20,5,33.582,0.6433,-0.1578,-0.5169,0.542
-0.132,-0.039,-0.021,-5.4,-130.6,14.6,0,2018,5,17,20,5,33.617,0.6414,-0.1716,-0.5298,0.5275
-0.172,-0.108,0.001,-7.1,-106.3,9.9,0,2018,5,17,20,5,33.642,0.6394,-0.184,-0.5408,0.5145
-0.1,-0.09,0.059,-10.7,-77.9,5.6,1023,2018,5,17,20,5,33.646,0.638,-0.194,-0.5483,0.5045
-0.086,-0.007,0.085,-15.7,-50.6,4.3,1023,2018,5,17,20,5,33.663,0.6378,-0.2013,-0.5521,0.4977
-0.04,0.032,0.069,-22.6,-38.9,6.7,1023,2018,5,17,20,5,33.681,0.6391,-0.2069,-0.5534,0.4922
-0.018,0.054,0.068,-28.9,-37.3,8.2,1023,2018,5,17,20,5,33.704,0.6414,-0.2121,-0.5533,0.4871
-0.005,0.013,0.045,-33.2,-36.7,9.5,1023,2018,5,17,20,5,33.74,0.6441,-0.2179,-0.5527,0.4816
-0.011,0.016,0.061,-37.6,-34.9,10.4,1023,2018,5,17,20,5,33.763,0.6473,-0.2237,-0.5515,0.4759
-0.014,-0.001,0.012,-40.1,-35.2,9.3,1023,2018,5,17,20,5,33.765,0.6507,-0.23,-0.5501,0.47
-0.001,-0.006,0.004,-43.4,-29.8,8.3,1023,2018,5,17,20,5,33.783,0.6541,-0.2364,-0.5481,0.4644
-0.011,-0.02,-0.02,-45.8,-28.8,7.8,1023,2018,5,17,20,5,33.805,0.6577,-0.2428,-0.5456,0.4589
-0.042,-0.029,-0.022,-48.7,-26,5.2,1023,2018,5,17,20,5,33.822,0.6614,-0.2493,-0.5428,0.4535
-0.051,0.007,-0.004,-51.8,-27,2.1,0,2018,5,17,20,5,33.844,0.6652,-0.2559,-0.5393,0.4483
-0.045,0.034,0.012,-54.3,-33,-1.6,0,2018,5,17,20,5,33.863,0.669,-0.2632,-0.5354,0.443
-0.015,0.07,-0.002,-57,-41.2,-4.4,0,2018,5,17,20,5,33.886,0.6724,-0.2719,-0.5317,0.4372
0.045,0.064,-0.055,-57.1,-43.8,-3.2,0,2018,5,17,20,5,33.919,0.6753,-0.2817,-0.528,0.4309
0.052,0.022,-0.093,-56.2,-39.7,1.2,0,2018,5,17,20,5,33.942,0.6778,-0.2917,-0.5246,0.4244
0.043,-0.013,-0.085,-57,-25.9,5.3,0,2018,5,17,20,5,33.947,0.681,-0.3001,-0.5207,0.4182
0.07,0.008,-0.108,-57.7,-15.8,8.8,0,2018,5,17,20,5,33.964,0.685,-0.3068,-0.516,0.4125
0.131,0.006,-0.163,-52.3,-10.9,13.3,0,2018,5,17,20,5,33.987,0.69,-0.3115,-0.5109,0.407
0.144,-0.052,-0.205,-41.8,-5.1,17.1,0,2018,5,17,20,5,34.021,0.6948,-0.3145,-0.5066,0.4018
0.115,-0.1,-0.188,-30.7,5.3,18,0,2018,5,17,20,5,34.021,0.6993,-0.3154,-0.5032,0.3977
0.108,-0.064,-0.181,-20.7,7,15.8,0,2018,5,17,20,5,34.044,0.7031,-0.3148,-0.5005,0.3949
0.123,-0.08,-0.221,-8.7,5,13,0,2018,5,17,20,5,34.062,0.7056,-0.3138,-0.4991,0.3928
0.123,-0.102,-0.206,2.5,9.2,10.5,0,2018,5,17,20,5,34.086,0.707,-0.3121,-0.499,0.3918
0.108,-0.124,-0.154,10.3,20.1,7.1,0,2018,5,17,20,5,34.103,0.7078,-0.309,-0.4993,0.3924
0.097,-0.091,-0.107,14,27.2,3.5,0,2018,5,17,20,5,34.126,0.7084,-0.3046,-0.4994,0.3946
0.104,-0.033,-0.077,16.8,21.7,0.5,0,2018,5,17,20,5,34.144,0.7084,-0.3005,-0.4997,0.3975
0.105,-0.009,-0.051,18.9,9.2,-1.4,0,2018,5,17,20,5,34.165,0.707,-0.2985,-0.5006,0.4004
0.085,-0.035,-0.012,18.8,1.6,-3.2,0,2018,5,17,20,5,34.201,0.705,-0.2976,-0.5022,0.4026
0.062,-0.045,0.02,15.9,2.9,-4.7,0,2018,5,17,20,5,34.224,0.7029,-0.2971,-0.5036,0.4047
0.044,-0.01,0.038,11.6,3.1,-6.1,0,2018,5,17,20,5,34.228,0.7014,-0.2967,-0.5042,0.4069
0.053,0.018,0.018,9,-1.3,-6.2,0,2018,5,17,20,5,34.243,0.7002,-0.2966,-0.5045,0.4087
0.038,0.011,0.001,8.1,-1.9,-5.2,0,2018,5,17,20,5,34.267,0.6989,-0.2971,-0.505,0.41
0.017,-0.005,0.009,7.5,4.7,-3.9,0,2018,5,17,20,5,34.302,0.6978,-0.297,-0.5054,0.4113
