ax,ay,az,dpitch,droll,dyaw,heart,time_1,time_2,time_3,time_4,time_5,time_6,w,x,y,z
0.002,0.006,0.003,-0.1,-1.2,-0.6,0,2018,4,26,14,47,51.627,-0.5759,0.0222,0.6455,-0.501
0.003,0,0.002,-0.4,-1.7,-0.7,0,2018,4,26,14,47,51.641,-0.5758,0.0225,0.6456,-0.501
0.009,0.001,-0.001,-0.5,-1.3,-0.9,0,2018,4,26,14,47,51.675,-0.5758,0.0227,0.6457,-0.5009
0.013,0.014,-0.012,-0.9,-0.7,-0.5,0,2018,4,26,14,47,51.695,-0.5757,0.023,0.6457,-0.5008
0.011,0.02,-0.004,-0.8,-0.1,-0.3,1023,2018,4,26,14,47,51.698,-0.5758,0.023,0.6458,-0.5008
0.006,0.012,-0.002,-0.7,0,-0.1,1023,2018,4,26,14,47,51.734,-0.5758,0.0231,0.6457,-0.5008
0.004,0.002,0,-0.6,-0.3,-0.2,1023,2018,4,26,14,47,51.756,-0.5759,0.0231,0.6457,-0.5008
0,0.005,0,-0.8,0,-0.2,1023,2018,4,26,14,47,51.761,-0.5759,0.0231,0.6457,-0.5008
0.002,0.016,-0.003,-0.7,0.1,-0.4,1023,2018,4,26,14,47,51.798,-0.5759,0.0231,0.6456,-0.5008
0.003,0.021,-0.011,-0.5,-0.2,-0.1,1023,2018,4,26,14,47,51.817,-0.576,0.023,0.6456,-0.5007
0.003,0.016,-0.007,-0.7,-0.7,-0.4,1023,2018,4,26,14,47,51.823,-0.576,0.023,0.6457,-0.5006
0.003,0.007,0,-0.5,-0.6,-0.5,1023,2018,4,26,14,47,51.861,-0.576,0.0232,0.6457,-0.5006
0,0.002,0.001,-0.2,-0.1,-0.7,1023,2018,4,26,14,47,51.881,-0.576,0.0232,0.6457,-0.5006
0,0.004,0.002,-0.2,0.1,-0.7,1023,2018,4,26,14,47,51.884,-0.576,0.0233,0.6456,-0.5007
0.006,0.013,0.004,-0.5,0.1,-0.6,1023,2018,4,26,14,47,51.902,-0.5759,0.0233,0.6456,-0.5008
0.01,0.014,-0.002,-0.2,-0.6,-0.6,1023,2018,4,26,14,47,51.922,-0.5759,0.0234,0.6456,-0.5008
0.009,0.012,0.004,-0.4,-1,-0.8,0,2018,4,26,14,47,51.962,-0.5759,0.0235,0.6456,-0.5007
0.007,0.008,0,-0.1,-1,-0.4,0,2018,4,26,14,47,51.966,-0.5759,0.0236,0.6457,-0.5007
0.007,0.007,-0.001,-0.2,-0.7,-0.2,0,2018,4,26,14,47,51.985,-0.5758,0.0237,0.6458,-0.5006
0.007,0.006,-0.007,-0.3,-0.5,-0.1,0,2018,4,26,14,47,52.003,-0.5758,0.0237,0.6458,-0.5006
0.008,0.008,-0.009,0,0,0,0,2018,4,26,14,47,52.023,-0.5758,0.0238,0.6459,-0.5006
0.011,0.009,-0.003,0,0,0,0,2018,4,26,14,47,52.044,-0.5758,0.0238,0.6458,-0.5006
0.013,0.01,-0.005,0,0,0,0,2018,4,26,14,47,52.065,-0.5758,0.0239,0.6457,-0.5007
0.008,0.006,0.003,0,0,0,0,2018,4,26,14,47,52.085,-0.5758,0.024,0.6457,-0.5008
0.001,0.007,0.005,0,0,0,0,2018,4,26,14,47,52.105,-0.5758,0.024,0.6456,-0.5009
0.007,0.013,-0.005,0,-0.6,0.1,0,2018,4,26,14,47,52.122,-0.5758,0.0241,0.6455,-0.5009
0.007,0.017,-0.003,0,0,0,0,2018,4,26,14,47,52.16,-0.5758,0.024,0.6456,-0.5009
0.012,0.016,-0.003,0,0,0,0,2018,4,26,14,47,52.182,-0.5758,0.024,0.6456,-0.5009
0.004,0.012,0.002,0,-0.7,0.3,0,2018,4,26,14,47,52.186,-0.5758,0.024,0.6456,-0.5008
0,0.006,0,-0.1,-0.4,0.6,0,2018,4,26,14,47,52.206,-0.5759,0.0238,0.6457,-0.5006
0.001,0,-0.006,0.1,0.3,0.5,0,2018,4,26,14,47,52.226,-0.5759,0.0236,0.6458,-0.5005
0.007,0.004,-0.002,0.5,1,0.5,1023,2018,4,26,14,47,52.264,-0.5758,0.0235,0.6458,-0.5006
0.007,0.011,-0.003,0.6,1.4,0.4,1023,2018,4,26,14,47,52.285,-0.5758,0.0231,0.6459,-0.5006
0.008,0.018,0,0.9,1.1,0.8,1023,2018,4,26,14,47,52.289,-0.5758,0.0229,0.6458,-0.5008
0.004,0.011,0,1.1,0.7,1.1,1023,2018,4,26,14,47,52.307,-0.5758,0.0226,0.6458,-0.5008
0.001,0.005,-0.002,1,0.5,1.3,1023,2018,4,26,14,47,52.345,-0.5758,0.0221,0.6458,-0.5007
0.004,0.003,-0.008,0.9,0.5,1.3,1023,2018,4,26,14,47,52.365,-0.5758,0.0218,0.6459,-0.5006
0.01,0.008,-0.004,0.5,0.8,0.9,1023,2018,4,26,14,47,52.369,-0.5757,0.0216,0.646,-0.5006
0.01,0.013,-0.007,0.6,1.4,0.6,1023,2018,4,26,14,47,52.389,-0.5757,0.0212,0.646,-0.5007
0.01,0.008,0.001,0.5,1.2,0.6,1023,2018,4,26,14,47,52.406,-0.5757,0.0209,0.6459,-0.5007
0.002,0.005,0.001,0.5,0.8,1,1023,2018,4,26,14,47,52.427,-0.5757,0.0207,0.6458,-0.5009
0.006,0.007,0.005,0.4,0.3,0.9,1023,2018,4,26,14,47,52.447,-0.5758,0.0204,0.6458,-0.5009
0.006,0.006,0,0.2,0.2,0.9,0,2018,4,26,14,47,52.466,-0.5758,0.0201,0.6458,-0.5008
0.008,0.015,-0.008,0.1,0.2,0.9,0,2018,4,26,14,47,52.486,-0.5758,0.0199,0.6459,-0.5007
0.003,0.012,-0.005,0.2,0.5,1.2,0,2018,4,26,14,47,52.525,-0.5759,0.0196,0.6459,-0.5006
0.008,0.01,-0.007,0.8,0.7,1.1,0,2018,4,26,14,47,52.546,-0.5759,0.0193,0.6459,-0.5006
0.005,0.004,-0.01,1.1,0.5,1,0,2018,4,26,14,47,52.55,-0.5758,0.019,0.6461,-0.5005
0.004,0.007,-0.004,0.8,0.6,1,0,2018,4,26,14,47,52.57,-0.5758,0.0186,0.6462,-0.5004
0.006,0.013,-0.004,0.7,0.7,1.1,0,2018,4,26,14,47,52.589,-0.5758,0.0183,0.6462,-0.5004
0.005,0.012,0,0.6,0.9,1.2,0,2018,4,26,14,47,52.611,-0.5758,0.0179,0.6462,-0.5004
0.008,0.01,-0.001,0.6,1.1,1.2,0,2018,4,26,14,47,52.63,-0.5758,0.0175,0.6463,-0.5003
0.009,0.006,0.001,0.7,0.6,0.9,0,2018,4,26,14,47,52.648,-0.5758,0.0172,0.6462,-0.5004
0.009,0.004,-0.003,0.5,0.5,0.9,0,2018,4,26,14,47,52.667,-0.5758,0.0169,0.6462,-0.5004
0.008,0.011,-0.002,0.5,0.4,0.9,0,2018,4,26,14,47,52.706,-0.5758,0.0167,0.6462,-0.5004
0.006,0.016,0,0.4,0.4,0.9,0,2018,4,26,14,47,52.727,-0.5759,0.0164,0.6462,-0.5004
0.007,0.009,-0.002,0.4,0,0.9,0,2018,4,26,14,47,52.731,-0.5759,0.0163,0.6461,-0.5004
0.006,0.004,-0.001,0.3,-0.5,0.8,0,2018,4,26,14,47,52.75,-0.576,0.0164,0.6461,-0.5004
0.004,0.003,-0.005,0.2,-0.5,0.7,0,2018,4,26,14,47,52.771,-0.576,0.0163,0.6462,-0.5003
0.005,0.011,-0.006,0.1,0.1,0.8,0,2018,4,26,14,47,52.791,-0.576,0.0162,0.6462,-0.5002
0.006,0.009,-0.007,0.1,1.1,0.9,1023,2018,4,26,14,47,52.81,-0.576,0.0159,0.6463,-0.5001
0.009,0.008,-0.004,0.3,1.1,0.9,1023,2018,4,26,14,47,52.848,-0.576,0.0155,0.6463,-0.5001
0.005,0.011,-0.003,0.2,0.7,0.6,1023,2018,4,26,14,47,52.867,-0.576,0.0153,0.6462,-0.5002
0.006,0.007,-0.001,0,0,0,1023,2018,4,26,14,47,52.871,-0.576,0.0152,0.6462,-0.5003
0.007,0.009,-0.001,0,0,0,1023,2018,4,26,14,47,52.887,-0.5761,0.0152,0.6461,-0.5003
0.005,0.013,0.001,0,0,0,1023,2018,4,26,14,47,52.929,-0.5761,0.0152,0.646,-0.5004
0.008,0.014,0.001,0,0,0,1023,2018,4,26,14,47,52.947,-0.5761,0.0153,0.6459,-0.5005
0.007,0.01,0,-0.1,-0.6,-0.1,1023,2018,4,26,14,47,52.951,-0.5762,0.0153,0.6458,-0.5005
0.009,0.007,0.002,-0.3,-1.1,-0.4,1023,2018,4,26,14,47,52.99,-0.5762,0.0154,0.6459,-0.5005
0.006,0.008,-0.001,-0.3,-1.5,-0.5,1023,2018,4,26,14,47,52.994,-0.5761,0.0155,0.646,-0.5004
0.003,0.007,-0.003,-0.4,-1.2,-0.2,0,2018,4,26,14,47,53.011,-0.5762,0.0157,0.646,-0.5003
0.005,0.007,-0.005,0,0,0,0,2018,4,26,14,47,53.033,-0.5762,0.0159,0.6461,-0.5002
0.007,0.005,-0.003,0,0,0,0,2018,4,26,14,47,53.054,-0.5761,0.016,0.646,-0.5003
0.004,0.004,-0.005,0,0,0,0,2018,4,26,14,47,53.074,-0.5762,0.016,0.646,-0.5003
0.008,0.009,0,0,0,0,0,2018,4,26,14,47,53.095,-0.5762,0.0161,0.6459,-0.5004
0.009,0.006,0.003,0,0,0,0,2018,4,26,14,47,53.113,-0.5762,0.0162,0.6458,-0.5005
0.008,0.011,0,0,0,0,0,2018,4,26,14,47,53.132,-0.5762,0.0162,0.6457,-0.5006
0.013,0.011,-0.005,0,0,0,0,2018,4,26,14,47,53.152,-0.5762,0.0163,0.6456,-0.5007
0.009,0.01,-0.001,0,0,0,0,2018,4,26,14,47,53.172,-0.5762,0.0164,0.6456,-0.5008
0.009,0.009,-0.002,0,0,0,0,2018,4,26,14,47,53.207,-0.5762,0.0164,0.6455,-0.5008
0.011,0.012,0.014,-0.3,-0.8,-0.5,0,2018,4,26,14,47,53.229,-0.5762,0.0164,0.6455,-0.5008
0.01,0.04,0.099,-0.7,-9.3,-4,0,2018,4,26,14,47,53.233,-0.5764,0.017,0.6454,-0.5008
-0.11,-0.044,0.258,-4.9,-40.4,-18.7,0,2018,4,26,14,47,53.27,-0.5756,0.0204,0.6472,-0.4992
-0.313,-0.286,0.262,-23.5,-95.6,-55.3,0,2018,4,26,14,47,53.293,-0.5738,0.0323,0.6517,-0.4948
-0.492,-0.554,0.514,-63.2,-135.7,-113.3,0,2018,4,26,14,47,53.297,-0.5705,0.0575,0.6569,-0.4894
-0.414,-0.465,0.648,-103.3,-172.7,-168.8,0,2018,4,26,14,47,53.316,-0.5661,0.0963,0.6596,-0.4848
-0.37,-0.336,0.525,-130.3,-214.3,-215.6,0,2018,4,26,14,47,53.332,-0.5591,0.1478,0.6605,-0.4786
-0.295,-0.195,0.356,-136.5,-238.8,-231,1023,2018,4,26,14,47,53.367,-0.5488,0.2072,0.6595,-0.4698
-0.156,-0.283,0.418,-127.2,-221.5,-224.8,1023,2018,4,26,14,47,53.389,-0.5356,0.2665,0.6565,-0.4593
-0.141,-0.189,0.174,-132,-129.8,-213.7,1023,2018,4,26,14,47,53.393,-0.5113,0.3669,0.6361,-0.4462
-0.182,-0.132,0.137,-134.1,-111.5,-213.5,1023,2018,4,26,14,47,53.43,-0.5013,0.4114,0.6187,-0.4432
-0.212,-0.014,0.088,-124.3,-129.2,-217.4,1023,2018,4,26,14,47,53.451,-0.4894,0.4547,0.6002,-0.4396
-0.191,0.078,-0.045,-106,-155.9,-224,1023,2018,4,26,14,47,53.456,-0.4722,0.4988,0.583,-0.4337
-0.153,-0.009,-0.142,-88.2,-140.1,-223.7,1023,2018,4,26,14,47,53.477,-0.451,0.5412,0.5659,-0.4281
-0.194,0.064,-0.195,-73.6,-94.2,-211.5,1023,2018,4,26,14,47,53.496,-0.431,0.5775,0.5468,-0.426
-0.229,0.244,-0.235,-59.1,-78.4,-197.1,1023,2018,4,26,14,47,53.516,-0.4133,0.6079,0.5269,-0.4264
-0.248,0.296,-0.252,-41.5,-78.5,-183.6,1023,2018,4,26,14,47,53.537,-0.3951,0.6344,0.5085,-0.4274
-0.208,0.318,-0.27,-22.1,-75,-171.3,1023,2018,4,26,14,47,53.557,-0.3757,0.6575,0.4922,-0.429
-0.186,0.295,-0.201,-9.8,-54,-156.5,1023,2018,4,26,14,47,53.577,-0.3571,0.6766,0.4771,-0.4323
-0.195,0.334,-0.101,-5.1,-30.8,-140.1,0,2018,4,26,14,47,53.615,-0.3416,0.6918,0.4621,-0.4371
-0.198,0.329,-0.057,-2.3,-17.6,-123.7,0,2018,4,26,14,47,53.636,-0.3288,0.7039,0.4477,-0.4425
-0.21,0.376,-0.083,-3.2,-9.2,-109.4,0,2018,4,26,14,47,53.64,-0.3184,0.7137,0.4342,-0.4478
-0.192,0.427,-0.02,-4.1,-13.8,-97.7,0,2018,4,26,14,47,53.656,-0.3093,0.7223,0.4218,-0.4523
-0.168,0.349,0.021,-4.1,-21.2,-84.2,0,2018,4,26,14,47,53.675,-0.3001,0.7302,0.4116,-0.4552
-0.125,0.308,-0.027,-5.4,-21.8,-71.2,0,2018,4,26,14,47,53.694,-0.2914,0.7372,0.4032,-0.457
-0.122,0.323,0.002,-10.4,-18.2,-61.1,0,2018,4,26,14,47,53.73,-0.2842,0.7434,0.3959,-0.458
-0.119,0.342,0.058,-15.2,-33.8,-55.1,0,2018,4,26,14,47,53.752,-0.2772,0.7496,0.3897,-0.4574
-0.101,0.271,-0.015,-18,-45.4,-44.3,0,2018,4,26,14,47,53.756,-0.269,0.7563,0.3856,-0.4547
-0.073,0.202,-0.016,-16.9,-36.6,-30.4,0,2018,4,26,14,47,53.792,-0.2616,0.7621,0.3832,-0.4513
-0.058,0.249,0,-18.3,-24,-20.9,0,2018,4,26,14,47,53.813,-0.257,0.7664,0.3814,-0.4482
-0.047,0.228,0.021,-20.7,-31.3,-15.8,0,2018,4,26,14,47,53.817,-0.2533,0.7704,0.3802,-0.4446
-0.06,0.161,-0.069,-18.9,-39.9,-9.2,0,2018,4,26,14,47,53.853,-0.2487,0.7744,0.3804,-0.4399
-0.024,0.112,-0.108,-11.8,-37.6,0.1,0,2018,4,26,14,47,53.856,-0.2439,0.7777,0.3822,-0.4352
-0.001,0.15,-0.177,-6.1,-43.1,5.4,0,2018,4,26,14,47,53.89,-0.2392,0.7799,0.3853,-0.4312
0.038,0.079,-0.12,2.6,-35.8,9.9,0,2018,4,26,14,47,53.91,-0.2345,0.7811,0.3893,-0.428
0.051,0.055,-0.083,8,-33.2,11.4,1023,2018,4,26,14,47,53.915,-0.2296,0.7816,0.3935,-0.4258
0.057,0.003,-0.091,10.9,-35.5,7.2,1023,2018,4,26,14,47,53.954,-0.224,0.7821,0.3976,-0.4241
0.064,-0.018,-0.032,9.9,-31.5,1.9,1023,2018,4,26,14,47,53.975,-0.2185,0.7825,0.4009,-0.4232
0.055,0.068,-0.043,3.6,-40.1,-5.3,1023,2018,4,26,14,47,53.978,-0.2127,0.7835,0.4032,-0.4219
0.033,0.132,-0.171,1.2,-60,-8.1,1023,2018,4,26,14,47,54.016,-0.2045,0.7861,0.4059,-0.4187
0.068,0.163,-0.282,9.8,-62.7,-0.7,1023,2018,4,26,14,47,54.037,-0.195,0.7883,0.41,-0.415
0.107,0.143,-0.273,20.5,-54.2,9.3,1023,2018,4,26,14,47,54.041,-0.1863,0.7887,0.4154,-0.4129
0.095,0.198,-0.271,26.6,-54.4,11.6,1023,2018,4,26,14,47,54.06,-0.178,0.7878,0.4215,-0.412
0.048,0.407,-0.386,23,-68.1,10.9,1023,2018,4,26,14,47,54.099,-0.1686,0.787,0.4282,-0.4108
0.051,0.426,-0.526,25.9,-87.3,16.5,1023,2018,4,26,14,47,54.119,-0.1569,0.7866,0.4363,-0.4076
0.076,0.357,-0.37,35.5,-87.1,29.3,1023,2018,4,26,14,47,54.124,-0.1442,0.7849,0.4465,-0.4044
0.059,0.311,-0.287,48.4,-94.6,38.2,0,2018,4,26,14,47,54.14,-0.1308,0.7814,0.4586,-0.4022
-0.04,0.474,-0.467,47.9,-103.5,45.1,0,2018,4,26,14,47,54.159,-0.1162,0.7767,0.4723,-0.4001
-0.2,0.676,-0.645,43.2,-114.2,56.2,0,2018,4,26,14,47,54.18,-0.1011,0.7715,0.4875,-0.3958
-0.279,0.751,-0.702,60,-105.6,86.3,0,2018,4,26,14,47,54.2,-0.087,0.7637,0.5054,-0.3919
-0.384,0.822,-0.833,86.9,-129.6,126.3,0,2018,4,26,14,47,54.219,-0.0724,0.7505,0.5285,-0.3899
-0.56,0.906,-1.252,99,-185.7,159.5,0,2018,4,26,14,47,54.257,-0.0528,0.7321,0.559,-0.3856
-0.685,0.784,-1.424,110.7,-219.3,188.1,0,2018,4,26,14,47,54.277,-0.0279,0.7091,0.5954,-0.3764
-0.858,0.38,-1.433,172.8,-213.1,236.9,0,2018,4,26,14,47,54.281,-0.0001,0.6779,0.6356,-0.3692
-0.995,-0.158,-1.152,267.3,-190.9,291.6,0,2018,4,26,14,47,54.302,0.0312,0.6323,0.6786,-0.3722
-1.081,-0.891,-0.634,324.7,-155.2,312.1,0,2018,4,26,14,47,54.322,0.0664,0.5735,0.7197,-0.3854
-1.76,-1.449,0.754,343.6,-96.6,303.9,0,2018,4,26,14,47,54.342,0.1004,0.5085,0.7526,-0.406
-4.362,5.703,1.006,-220,223.3,-71.6,0,2018,4,26,14,47,54.359,0.0811,0.4728,0.7618,-0.4352
0.101,-2.096,1.011,-202.9,50.9,-171.2,0,2018,4,26,14,47,54.397,0.0959,0.5029,0.75,-0.4186
-0.178,0.471,-0.228,-50.5,22,-74.3,0,2018,4,26,14,47,54.417,0.0812,0.5257,0.7359,-0.4187
-0.239,-0.769,-0.347,-25,-49.2,-60.4,0,2018,4,26,14,47,54.422,0.0883,0.5354,0.7328,-0.4103
-0.289,-0.002,0.335,-28,118.7,-46.3,0,2018,4,26,14,47,54.443,0.0833,0.5449,0.7243,-0.4139
-0.345,-0.675,0.316,-27.1,190.3,-68,0,2018,4,26,14,47,54.464,0.0704,0.5565,0.7078,-0.4292
-0.419,-0.219,0.356,-52.3,220.2,-67.8,1023,2018,4,26,14,47,54.483,0.0499,0.5698,0.6844,-0.4518
-0.351,-0.424,0.369,-95.1,155.6,-83.2,1023,2018,4,26,14,47,54.502,0.0282,0.5863,0.6619,-0.466
-0.377,-0.449,0.277,-128,111.4,-99.1,1023,2018,4,26,14,47,54.525,0.0094,0.6063,0.6422,-0.4687
-0.471,-0.38,0.079,-151.5,111.5,-117.1,1023,2018,4,26,14,47,54.562,-0.0088,0.6299,0.6216,-0.4655
-0.511,-0.168,-0.172,-168.5,128.2,-129.7,1023,2018,4,26,14,47,54.582,-0.0294,0.6556,0.5974,-0.4607
-0.466,0.059,-0.356,-183.3,116.3,-134.8,1023,2018,4,26,14,47,54.586,-0.0515,0.6825,0.5706,-0.4537
-0.369,0.197,-0.42,-176.9,101.1,-129.1,1023,2018,4,26,14,47,54.605,-0.0717,0.7085,0.5441,-0.4434
-0.357,0.354,-0.51,-162,103.7,-111.9,1023,2018,4,26,14,47,54.622,-0.0908,0.7312,0.5188,-0.4333
-0.36,0.468,-0.772,-145.7,117.6,-87.4,1023,2018,4,26,14,47,54.641,-0.1113,0.7495,0.495,-0.425
-0.26,0.632,-0.769,-130.8,115.3,-61.3,1023,2018,4,26,14,47,54.683,-0.1334,0.7635,0.4735,-0.4183
-0.153,0.518,-0.679,-103.7,94.8,-40.8,1023,2018,4,26,14,47,54.687,-0.1532,0.7733,0.4564,-0.4123
-0.114,0.489,-0.636,-78.6,83.5,-28.7,1023,2018,4,26,14,47,54.703,-0.1698,0.78,0.443,-0.408
-0.103,0.466,-0.567,-62.6,77.2,-21.7,1023,2018,4,26,14,47,54.723,-0.1843,0.7843,0.4317,-0.4054
-0.079,0.422,-0.489,-51.3,69.7,-15.2,0,2018,4,26,14,47,54.742,-0.1974,0.7872,0.4221,-0.4037
-0.023,0.369,-0.42,-39,50.9,-9.9,0,2018,4,26,14,47,54.776,-0.2082,0.7891,0.4146,-0.4024
0.046,0.32,-0.348,-29.3,32.8,-8.7,0,2018,4,26,14,47,54.798,-0.2157,0.7905,0.4092,-0.4011
0.084,0.25,-0.317,-25.4,13.1,-10.2,0,2018,4,26,14,47,54.805,-0.22,0.7923,0.4054,-0.3993
0.106,0.171,-0.291,-19.5,6.5,-9.9,0,2018,4,26,14,47,54.844,-0.2221,0.7943,0.4025,-0.3971
0.12,0.154,-0.201,-10.7,8.8,-5.5,0,2018,4,26,14,47,54.863,-0.2237,0.7955,0.4003,-0.3959
0.109,0.117,-0.13,-2.5,0,-1.6,0,2018,4,26,14,47,54.865,-0.2245,0.796,0.3992,-0.3955
0.084,0.061,-0.086,2.3,-5,3.1,0,2018,4,26,14,47,54.881,-0.2239,0.7961,0.3995,-0.3953
0.084,-0.017,-0.062,4.1,-2.1,6.1,0,2018,4,26,14,47,54.904,-0.2226,0.796,0.4004,-0.3954
0.058,-0.062,0,3.4,3.9,5.8,0,2018,4,26,14,47,54.942,-0.2227,0.7953,0.4011,-0.396
0.037,-0.031,0.008,4.9,3.1,3.7,0,2018,4,26,14,47,54.962,-0.2236,0.7943,0.4015,-0.3972
0.005,-0.006,-0.037,6.3,-3.4,-0.7,0,2018,4,26,14,47,54.964,-0.2231,0.7938,0.4019,-0.3979
0,-0.024,-0.003,7.2,-0.5,0,0,2018,4,26,14,47,55.001,-0.2221,0.7936,0.4024,-0.3985
0.015,-0.036,0.033,11.5,6.4,1.2,0,2018,4,26,14,47,55.021,-0.2222,0.7926,0.4026,-0.4002
0.002,-0.003,0.057,12.7,5.1,-1.5,0,2018,4,26,14,47,55.025,-0.2226,0.7912,0.4025,-0.4029
-0.006,0.012,0.001,11.9,1.7,-4.2,0,2018,4,26,14,47,55.063,-0.2219,0.7904,0.4023,-0.405
-0.016,0.026,0.016,9.1,0.3,-2.4,1023,2018,4,26,14,47,55.081,-0.221,0.7899,0.4022,-0.4066
-0.017,0.016,0.006,8.4,2.7,0.6,1023,2018,4,26,14,47,55.083,-0.2205,0.7893,0.4024,-0.4078
-0.019,0.021,-0.006,8.1,9.5,2.5,1023,2018,4,26,14,47,55.118,-0.2209,0.7883,0.4026,-0.4092
-0.027,0.069,0.034,6.9,3.4,0.1,1023,2018,4,26,14,47,55.138,-0.2214,0.7875,0.4025,-0.4106
-0.014,0.027,-0.002,6,-5.2,0.1,1023,2018,4,26,14,47,55.142,-0.2205,0.7872,0.4028,-0.4113
-0.007,0.015,0,4.5,-3.2,3,1023,2018,4,26,14,47,55.181,-0.2195,0.787,0.4036,-0.4116
-0.004,0.024,0.012,3.1,3.9,4.9,1023,2018,4,26,14,47,55.202,-0.2196,0.7864,0.4043,-0.412
0.004,0.014,0.015,2.6,6.2,5.8,1023,2018,4,26,14,47,55.206,-0.2205,0.7856,0.4047,-0.4127
0.003,0.014,-0.001,2.3,2.8,6.4,1023,2018,4,26,14,47,55.239,-0.2213,0.7848,0.4052,-0.4132
0.005,0.013,-0.013,2,0.7,6.7,1023,2018,4,26,14,47,55.26,-0.2217,0.7842,0.4061,-0.4133
0.011,-0.019,-0.016,0.3,4.3,6.7,1023,2018,4,26,14,47,55.266,-0.2223,0.7836,0.4069,-0.4133
0.012,0.034,0.005,0.5,10.1,6.3,1023,2018,4,26,14,47,55.303,-0.2238,0.7828,0.4072,-0.4136
0.022,0.002,0.002,3.4,2.2,4.1,1023,2018,4,26,14,47,55.322,-0.2246,0.7822,0.4073,-0.4143
0.029,-0.04,-0.009,3.7,-2.3,4.9,0,2018,4,26,14,47,55.328,-0.2246,0.7815,0.4081,-0.4148
0.027,-0.033,-0.003,4.6,-1.5,5.3,0,2018,4,26,14,47,55.364,-0.2244,0.7809,0.4091,-0.4151
0.029,-0.037,-0.032,5.6,5.7,4.2,0,2018,4,26,14,47,55.385,-0.2246,0.7801,0.4098,-0.4158
0.022,-0.04,-0.022,4.1,16.1,3.4,0,2018,4,26,14,47,55.387,-0.2261,0.779,0.4096,-0.4172
0.013,0.009,0.021,1.9,11.4,0.9,0,2018,4,26,14,47,55.422,-0.2282,0.7779,0.4089,-0.4188
0.012,-0.011,0.004,3.4,-1.2,-1.9,0,2018,4,26,14,47,55.442,-0.2285,0.7776,0.4085,-0.4196
0.018,-0.029,0.008,5,-0.9,-1.5,0,2018,4,26,14,47,55.446,-0.2278,0.7774,0.4085,-0.4203
0.015,-0.013,0.005,5.9,6.9,-0.4,0,2018,4,26,14,47,55.482,-0.2279,0.7768,0.4083,-0.4216
0.011,-0.039,-0.017,4.5,21.4,-1,0,2018,4,26,14,47,55.502,-0.2294,0.7759,0.4074,-0.4234
-0.003,0.019,0.007,0.6,22,-3.5,0,2018,4,26,14,47,55.508,-0.2324,0.7749,0.4054,-0.4255
-0.015,0.016,0.007,-0.4,4.5,-6.9,0,2018,4,26,14,47,55.546,-0.2337,0.7748,0.4037,-0.4266
-0.02,0.007,-0.029,1.6,-0.1,-5.6,0,2018,4,26,14,47,55.567,-0.2332,0.7752,0.4029,-0.4267
-0.018,0.017,-0.019,5.5,4.8,-2.7,0,2018,4,26,14,47,55.571,-0.2328,0.7753,0.4024,-0.4273
-0.018,0.023,-0.036,6.6,11.2,-1.9,0,2018,4,26,14,47,55.586,-0.2332,0.7747,0.4019,-0.4286
-0.018,0.015,0.013,4.6,12.8,-2.6,0,2018,4,26,14,47,55.606,-0.2343,0.7741,0.4009,-0.4301
-0.007,0.011,0.017,4.8,11.7,-3,0,2018,4,26,14,47,55.643,-0.2354,0.7734,0.3998,-0.4317
0.005,0,0.018,5.1,16.7,-3,0,2018,4,26,14,47,55.664,-0.2368,0.7726,0.3985,-0.4336
0.003,0.04,0.029,3.7,15.1,-3.5,1023,2018,4,26,14,47,55.668,-0.2385,0.7718,0.3968,-0.4357
0,0.022,-0.005,1.6,6.4,-4.1,1023,2018,4,26,14,47,55.705,-0.2392,0.7715,0.3955,-0.437
0.008,0.014,0.007,0,1.8,-2.8,1023,2018,4,26,14,47,55.726,-0.2393,0.7715,0.3947,-0.4376
0.012,0.017,0.001,-0.1,0.2,-3.3,1023,2018,4,26,14,47,55.73,-0.2391,0.7717,0.3942,-0.4378
0.007,0.008,-0.001,0.1,0.4,-3.2,1023,2018,4,26,14,47,55.766,-0.2387,0.772,0.3936,-0.438
-0.003,0.006,-0.016,1.4,4.2,-1.8,1023,2018,4,26,14,47,55.788,-0.2387,0.7721,0.3932,-0.4383
-0.009,0.002,-0.034,1.9,6.1,-1.6,1023,2018,4,26,14,47,55.79,-0.2391,0.7719,0.3926,-0.4389
-0.011,0.003,-0.032,2.4,3.4,-3.5,1023,2018,4,26,14,47,55.829,-0.2394,0.7718,0.3921,-0.4393
-0.012,0.003,-0.02,3.4,4.3,-4.4,1023,2018,4,26,14,47,55.848,-0.2393,0.7718,0.3915,-0.4399
-0.007,0.015,-0.003,4.9,6.5,-4.7,1023,2018,4,26,14,47,55.852,-0.2394,0.7717,0.3907,-0.441
-0.006,0.01,-0.01,5.6,7.8,-5,1023,2018,4,26,14,47,55.893,-0.2395,0.7713,0.3897,-0.4423
0,0.038,-0.003,5.3,6.9,-5.8,1023,2018,4,26,14,47,55.897,-0.2397,0.7711,0.3886,-0.4437
0.001,0.039,0.007,4.8,2,-5.7,1023,2018,4,26,14,47,55.912,-0.2392,0.771,0.3876,-0.4449
-0.002,0.047,-0.004,5.8,-0.6,-3.8,1023,2018,4,26,14,47,55.932,-0.2382,0.771,0.387,-0.4459
-0.009,0.032,-0.009,6.2,0.9,-2,0,2018,4,26,14,47,55.951,-0.2373,0.7709,0.3869,-0.4467
-0.014,0.029,-0.011,5.8,6.5,-0.7,0,2018,4,26,14,47,55.991,-0.2372,0.7705,0.3867,-0.4477
-0.011,0.026,0.005,4.4,4.5,-1.5,0,2018,4,26,14,47,56.01,-0.2375,0.77,0.3862,-0.4487
-0.008,0.023,0.011,4.3,-0.8,-1.2,0,2018,4,26,14,47,56.014,-0.2372,0.7698,0.386,-0.4494
-0.008,0.028,0.004,5,-2,-0.1,0,2018,4,26,14,47,56.036,-0.2365,0.7696,0.3863,-0.4499
-0.009,0.009,0.012,4.7,0,1,0,2018,4,26,14,47,56.056,-0.236,0.7692,0.3867,-0.4505
-0.013,0.022,-0.006,3.4,1.1,1.4,0,2018,4,26,14,47,56.095,-0.2358,0.7688,0.387,-0.451
0.001,0.002,0.021,1.6,-0.1,1.3,0,2018,4,26,14,47,56.114,-0.2359,0.7685,0.3872,-0.4513
0.007,0.009,0.029,2,-1.8,1.5,0,2018,4,26,14,47,56.118,-0.2358,0.7682,0.3875,-0.4516
0.007,-0.002,0.014,2.4,-3.4,0.9,0,2018,4,26,14,47,56.132,-0.2354,0.768,0.3878,-0.4519
-0.007,-0.03,-0.012,0.9,-2.9,0,0,2018,4,26,14,47,56.171,-0.2349,0.7679,0.3883,-0.4518
-0.008,-0.023,0.003,0.6,3.9,-0.2,0,2018,4,26,14,47,56.192,-0.2351,0.7678,0.3884,-0.4518
-0.003,-0.021,-0.011,2.5,9.7,-1,0,2018,4,26,14,47,56.196,-0.2361,0.7673,0.3879,-0.4526
0,0.003,-0.002,1.6,8.2,-2.7,0,2018,4,26,14,47,56.216,-0.2371,0.7669,0.387,-0.4535
0.009,0.021,0.021,1.4,2.2,-3.2,0,2018,4,26,14,47,56.236,-0.2374,0.7668,0.3861,-0.4543
0.007,0.026,0.014,2.6,-3.5,-2.2,0,2018,4,26,14,47,56.275,-0.2368,0.7668,0.3858,-0.4548
0,0.021,-0.001,2.8,-2.9,-0.5,0,2018,4,26,14,47,56.295,-0.2358,0.7669,0.3859,-0.455
-0.006,0.015,-0.011,1.4,1.6,0.4,1023,2018,4,26,14,47,56.299,-0.2355,0.7669,0.3861,-0.4552
-0.007,0.017,0.022,0,2.2,0.3,1023,2018,4,26,14,47,56.318,-0.2357,0.7667,0.3859,-0.4555
-0.011,0.02,0.014,0.6,0,0.6,1023,2018,4,26,14,47,56.356,-0.2359,0.7666,0.3859,-0.4556
-0.014,0.027,-0.007,0.5,-1.9,1.1,1023,2018,4,26,14,47,56.36,-0.2356,0.7666,0.3861,-0.4555
-0.009,0.014,0.012,0,-1.7,2.2,1023,2018,4,26,14,47,56.375,-0.2354,0.7666,0.3865,-0.4552
-0.006,0.009,0.01,0.2,-1.7,2.5,1023,2018,4,26,14,47,56.415,-0.2355,0.7665,0.387,-0.4551
-0.012,0.012,-0.008,-0.1,-3.1,1.2,1023,2018,4,26,14,47,56.435,-0.2352,0.7665,0.3875,-0.4548
-0.002,0.005,-0.006,0,-1.7,1.6,1023,2018,4,26,14,47,56.439,-0.2349,0.7666,0.3879,-0.4544
0.005,0.012,0.003,0.7,-0.7,2.5,1023,2018,4,26,14,47,56.455,-0.2349,0.7665,0.3882,-0.4543
0.009,0.006,0.008,1.2,-3.4,1.8,1023,2018,4,26,14,47,56.494,-0.2346,0.7664,0.3886,-0.4543
0.008,-0.01,-0.005,0.1,-4.7,1.2,1023,2018,4,26,14,47,56.514,-0.2341,0.7664,0.3892,-0.4541
0.006,-0.01,0.007,-0.5,-1.5,1.6,1023,2018,4,26,14,47,56.518,-0.2339,0.7664,0.3897,-0.4538
0,0.002,-0.006,0,0.5,1.2,1023,2018,4,26,14,47,56.557,-0.2339,0.7663,0.3899,-0.4537
0,0,-0.004,0.2,1.8,1.7,1023,2018,4,26,14,47,56.576,-0.2342,0.7662,0.3899,-0.4537
-0.003,0.011,0,-0.4,0.6,1.4,0,2018,4,26,14,47,56.581,-0.2345,0.7661,0.39,-0.4537
0,-0.003,0.004,0,-2.3,0.6,0,2018,4,26,14,47,56.599,-0.2344,0.7661,0.3902,-0.4536
-0.002,0,-0.004,1.1,-2.8,0.4,0,2018,4,26,14,47,56.62,-0.234,0.7661,0.3905,-0.4535
-0.011,-0.008,-0.001,0.7,-0.9,0.4,0,2018,4,26,14,47,56.659,-0.2338,0.766,0.3908,-0.4534
-0.009,-0.006,0.01,-0.8,1.5,0,0,2018,4,26,14,47,56.662,-0.234,0.766,0.3909,-0.4534
-0.006,-0.001,0.011,-0.9,0.9,-0.8,0,2018,4,26,14,47,56.677,-0.2343,0.766,0.3907,-0.4534
-0.006,0.016,0.005,0,-2.1,-0.9,0,2018,4,26,14,47,56.714,-0.2342,0.7661,0.3906,-0.4534
-0.007,0.008,-0.005,0.7,-2.4,-0.1,0,2018,4,26,14,47,56.737,-0.2337,0.7662,0.3907,-0.4532
-0.001,-0.004,0.005,-0.7,1.4,0.4,0,2018,4,26,14,47,56.741,-0.2337,0.7663,0.3908,-0.4531
-0.003,0,0.034,-1.2,2.5,-0.4,0,2018,4,26,14,47,56.761,-0.2342,0.7661,0.3906,-0.4533
-0.008,0.009,0.003,-1.2,2.5,-1,0,2018,4,26,14,47,56.781,-0.2346,0.7661,0.3902,-0.4534
-0.014,0.021,-0.013,-2.2,0.2,-0.7,0,2018,4,26,14,47,56.82,-0.2348,0.7663,0.3899,-0.4532
-0.004,0.024,-0.004,-1,-2,0.6,0,2018,4,26,14,47,56.839,-0.2346,0.7666,0.3899,-0.4528
-0.002,0.012,-0.014,0.9,-1.6,1.5,0,2018,4,26,14,47,56.843,-0.2343,0.7667,0.3902,-0.4526
-0.005,-0.001,0.008,-0.4,-0.4,1.3,0,2018,4,26,14,47,56.859,-0.2342,0.7667,0.3906,-0.4524
-0.002,-0.003,0.028,-1.1,1.5,0.7,0,2018,4,26,14,47,56.897,-0.2346,0.7665,0.3906,-0.4524
-0.003,0.015,0.013,-1.7,-0.4,-0.2,1023,2018,4,26,14,47,56.918,-0.2349,0.7665,0.3905,-0.4524
-0.002,0.013,-0.007,-3,-4.8,-0.2,1023,2018,4,26,14,47,56.922,-0.2345,0.7669,0.3906,-0.4518
0,0.004,0.004,-2.7,-1,1.9,1023,2018,4,26,14,47,56.941,-0.2343,0.7673,0.3908,-0.4511
0,0.014,-0.004,-1.2,1.1,1.9,1023,2018,4,26,14,47,56.979,-0.2346,0.7673,0.3909,-0.4508
0,-0.003,-0.007,-0.4,1.5,2.4,1023,2018,4,26,14,47,56.999,-0.2349,0.7672,0.3911,-0.4506
0.004,0,0.006,-0.7,3.1,2.8,1023,2018,4,26,14,47,57.003,-0.2356,0.7669,0.3913,-0.4507
0,-0.006,0,-2,-4.3,0.5,1023,2018,4,26,14,47,57.022,-0.2357,0.7669,0.3915,-0.4504
0.004,-0.018,-0.003,-1.6,-3.8,0.4,1023,2018,4,26,14,47,57.042,-0.2352,0.7673,0.3918,-0.4497
0.009,-0.016,-0.011,-0.7,2,0.5,1023,2018,4,26,14,47,57.081,-0.2353,0.7673,0.3919,-0.4495
0.002,-0.001,-0.006,-0.1,3.6,0.3,1023,2018,4,26,14,47,57.101,-0.2358,0.7672,0.3917,-0.4497
0.002,0.013,-0.018,0.9,2.8,0.5,1023,2018,4,26,14,47,57.105,-0.2361,0.7671,0.3915,-0.4499
0.001,0.003,-0.008,0.6,-1.2,0.3,1023,2018,4,26,14,47,57.125,-0.2361,0.767,0.3915,-0.4501
0.008,-0.022,0.007,-0.4,-1.6,-0.4,1023,2018,4,26,14,47,57.145,-0.2359,0.767,0.3917,-0.4499
0.003,-0.016,0.016,-0.2,0.7,-1.3,1023,2018,4,26,14,47,57.181,-0.2359,0.767,0.3915,-0.4501
-0.003,0.008,0.004,2.1,1.7,-1.9,0,2018,4,26,14,47,57.185,-0.236,0.7669,0.3912,-0.4505
-0.009,0.02,-0.024,1.2,0.3,-1.7,0,2018,4,26,14,47,57.203,-0.2357,0.767,0.391,-0.4508
-0.002,0.008,0.015,0.6,-0.4,-0.4,0,2018,4,26,14,47,57.223,-0.2355,0.767,0.3909,-0.4508
-0.007,0.008,0.006,2.1,0,-0.2,0,2018,4,26,14,47,57.242,-0.2353,0.7669,0.3909,-0.4511
-0.011,0.005,0.002,2.2,1.6,0.1,0,2018,4,26,14,47,57.282,-0.2353,0.7667,0.391,-0.4514
-0.012,0.016,0.016,1.4,1.1,0.6,0,2018,4,26,14,47,57.302,-0.2354,0.7664,0.391,-0.4517
-0.016,0.013,0.001,1.1,-0.9,0.2,0,2018,4,26,14,47,57.306,-0.2354,0.7663,0.3911,-0.4519
-0.009,0.011,-0.005,0.3,-2,0,0,2018,4,26,14,47,57.325,-0.2351,0.7663,0.3914,-0.4518
-0.013,-0.001,0.01,-0.8,-3.1,-0.3,0,2018,4,26,14,47,57.362,-0.2348,0.7665,0.3916,-0.4515
-0.009,0,0.005,-0.7,-0.5,-0.4,0,2018,4,26,14,47,57.382,-0.2347,0.7666,0.3916,-0.4513
-0.006,0.006,0.001,0.1,0.6,-0.5,0,2018,4,26,14,47,57.386,-0.2347,0.7667,0.3916,-0.4513
-0.007,0.01,-0.002,0.3,1.3,0.5,0,2018,4,26,14,47,57.404,-0.2348,0.7666,0.3915,-0.4513
-0.009,0.018,0,0,0.8,1.2,0,2018,4,26,14,47,57.422,-0.235,0.7665,0.3915,-0.4514
-0.012,0.003,-0.001,-0.7,-1.9,0.8,0,2018,4,26,14,47,57.458,-0.235,0.7665,0.3917,-0.4512
-0.006,-0.006,0.013,0,-0.9,1.1,0,2018,4,26,14,47,57.478,-0.235,0.7665,0.392,-0.451
0,-0.001,0.004,1.1,-0.4,0.2,0,2018,4,26,14,47,57.485,-0.235,0.7664,0.3921,-0.451
-0.004,-0.004,0,1.1,0,-0.4,0,2018,4,26,14,47,57.506,-0.2349,0.7663,0.3922,-0.4512
-0.006,0,-0.003,-0.8,0.4,-1.3,1023,2018,4,26,14,47,57.526,-0.2349,0.7664,0.3921,-0.4512
-0.004,0.004,0.008,-0.8,-0.7,-1.4,1023,2018,4,26,14,47,57.566,-0.2348,0.7665,0.3919,-0.4511
-0.008,0.011,-0.001,0,-1.9,-1.1,1023,2018,4,26,14,47,57.584,-0.2345,0.7667,0.3918,-0.451
-0.003,0.013,-0.01,1.6,-1.3,0,1023,2018,4,26,14,47,57.588,-0.2341,0.7668,0.3919,-0.451
-0.011,0.01,-0.008,1.5,0.4,0.8,1023,2018,4,26,14,47,57.625,-0.234,0.7668,0.3921,-0.4511
-0.01,0.003,0.006,1.1,0,0.1,1023,2018,4,26,14,47,57.645,-0.234,0.7666,0.3922,-0.4512
-0.005,0.01,0.009,0.9,-1.1,-0.2,1023,2018,4,26,14,47,57.649,-0.2339,0.7665,0.3923,-0.4513
-0.006,0.011,0.002,1.2,-1.6,-0.2,1023,2018,4,26,14,47,57.664,-0.2336,0.7665,0.3924,-0.4513
-0.006,0.019,0.003,1.3,-0.9,0.6,1023,2018,4,26,14,47,57.703,-0.2332,0.7665,0.3926,-0.4514
-0.011,0.017,-0.003,0.6,-0.8,1.4,1023,2018,4,26,14,47,57.725,-0.233,0.7665,0.3929,-0.4513
-0.011,0.009,0.002,1.1,-0.3,1.9,1023,2018,4,26,14,47,57.729,-0.233,0.7664,0.3932,-0.4512
-0.005,0.009,0.009,2,-1.9,1.4,1023,2018,4,26,14,47,57.747,-0.2329,0.7661,0.3936,-0.4513
-0.008,0.008,0.006,1.9,-1.5,1.7,1023,2018,4,26,14,47,57.767,-0.2326,0.766,0.394,-0.4514
-0.008,0.011,0.007,0.8,-0.6,2,0,2018,4,26,14,47,57.786,-0.2326,0.7657,0.3944,-0.4514
-0.005,0.01,0.009,0.2,-0.5,2,0,2018,4,26,14,47,57.825,-0.2326,0.7656,0.3948,-0.4513
-0.002,0.009,0.004,0.9,-0.6,2.4,0,2018,4,26,14,47,57.845,-0.2327,0.7654,0.3951,-0.4513
0.002,0,0.006,1.6,-0.5,2.5,0,2018,4,26,14,47,57.849,-0.2327,0.7652,0.3956,-0.4513
0.001,-0.007,0.012,1.2,-0.9,2.2,0,2018,4,26,14,47,57.869,-0.2328,0.7649,0.396,-0.4515
0,-0.003,0.005,0.1,-1,1.4,0,2018,4,26,14,47,57.892,-0.2327,0.7647,0.3963,-0.4515
0.003,-0.001,0.006,-0.4,-0.4,1.3,0,2018,4,26,14,47,57.908,-0.2328,0.7646,0.3965,-0.4514
0.005,-0.011,0.005,0,-1.3,0.5,0,2018,4,26,14,47,57.946,-0.2328,0.7645,0.3967,-0.4514
0.004,-0.007,0.002,-0.6,-0.5,0.3,0,2018,4,26,14,47,57.965,-0.2328,0.7645,0.3968,-0.4513
0,0.005,-0.006,0,0,0,0,2018,4,26,14,47,57.97,-0.2328,0.7645,0.3968,-0.4513
-0.002,0.003,-0.017,1.1,-0.5,0.6,0,2018,4,26,14,47,57.989,-0.2326,0.7645,0.3969,-0.4513
-0.001,0.003,0.002,0.9,1.1,0.8,0,2018,4,26,14,47,58.009,-0.2327,0.7644,0.3971,-0.4514
-0.004,0.005,0.002,1.2,0.3,0,0,2018,4,26,14,47,58.046,-0.2328,0.7642,0.3971,-0.4516
-0.007,0.01,0.008,1.7,-2,-0.4,0,2018,4,26,14,47,58.067,-0.2325,0.7641,0.3972,-0.4517
-0.006,0.005,0.003,1.2,-1.2,0.1,0,2018,4,26,14,47,58.071,-0.2322,0.7641,0.3974,-0.4518
-0.008,0.012,0.015,0.3,0.6,0.5,0,2018,4,26,14,47,58.092,-0.2322,0.764,0.3975,-0.4519
-0.008,0.011,0.008,0.1,1,0.5,0,2018,4,26,14,47,58.114,-0.2323,0.7639,0.3975,-0.452
-0.008,0.014,-0.003,0.7,2.2,1.8,0,2018,4,26,14,47,58.129,-0.2326,0.7637,0.3976,-0.4521
-0.003,0.011,0.006,1.2,1.5,2.4,1023,2018,4,26,14,47,58.147,-0.2329,0.7634,0.3978,-0.4522
-0.012,0.008,-0.008,1.6,-1.7,2.1,1023,2018,4,26,14,47,58.168,-0.2329,0.7632,0.3982,-0.4523
-0.008,0,0.01,0,-0.2,2.3,1023,2018,4,26,14,47,58.205,-0.2329,0.763,0.3987,-0.4522
-0.005,0,0.016,-0.2,-0.1,2,1023,2018,4,26,14,47,58.226,-0.2331,0.7628,0.3989,-0.4521
0,0.004,0.01,-0.4,-0.2,2,1023,2018,4,26,14,47,58.23,-0.2333,0.7627,0.3992,-0.4521
-0.002,0.011,-0.001,-1,-0.5,1.9,1023,2018,4,26,14,47,58.268,-0.2335,0.7626,0.3994,-0.4519
-0.006,-0.006,-0.01,-1.4,-2.7,1.7,1023,2018,4,26,14,47,58.288,-0.2334,0.7627,0.3998,-0.4514
-0.001,-0.004,-0.007,-0.4,-1.1,1.9,1023,2018,4,26,14,47,58.293,-0.2334,0.7627,0.4002,-0.451
0.001,-0.01,0.004,0.9,1,1.9,1023,2018,4,26,14,47,58.314,-0.2336,0.7625,0.4005,-0.451
0,-0.002,0.001,1.4,1.1,1.1,1023,2018,4,26,14,47,58.334,-0.2338,0.7623,0.4007,-0.4512
0.002,-0.007,0.014,0,0,0,1023,2018,4,26,14,47,58.372,-0.2339,0.7621,0.4007,-0.4514
0,0,0.014,-0.4,-1,-0.2,1023,2018,4,26,14,47,58.393,-0.2339,0.7621,0.4008,-0.4514
0.003,-0.002,0.005,-0.9,-0.7,-0.8,1023,2018,4,26,14,47,58.397,-0.2338,0.7622,0.4007,-0.4513
0.001,-0.008,0.004,-1.2,0.1,-1.4,1023,2018,4,26,14,47,58.414,-0.2339,0.7623,0.4005,-0.4512
-0.005,0.01,-0.002,-0.7,1,-1.1,0,2018,4,26,14,47,58.431,-0.234,0.7625,0.4002,-0.4511
-0.002,0.018,-0.006,0.8,0.9,0.2,0,2018,4,26,14,47,58.468,-0.2339,0.7626,0.4001,-0.4511
-0.006,0.017,-0.005,1.7,0.3,1.6,0,2018,4,26,14,47,58.487,-0.2339,0.7624,0.4002,-0.4513
-0.005,0,0,1.7,0.9,1.7,0,2018,4,26,14,47,58.492,-0.2339,0.7622,0.4005,-0.4514
-0.002,-0.006,0.018,0.5,3.2,1.7,0,2018,4,26,14,47,58.53,-0.2344,0.7618,0.4006,-0.4517
-0.005,-0.004,0.019,-0.2,1.8,0.5,0,2018,4,26,14,47,58.55,-0.235,0.7615,0.4005,-0.4519
-0.006,0.004,0.002,-0.7,-0.7,-0.5,0,2018,4,26,14,47,58.554,-0.2351,0.7615,0.4004,-0.4519
-0.01,0.003,-0.005,-0.1,-1.1,-0.5,0,2018,4,26,14,47,58.594,-0.235,0.7616,0.4004,-0.4518
-0.002,-0.005,-0.022,0.6,0.4,0,0,2018,4,26,14,47,58.613,-0.2348,0.7617,0.4006,-0.4517
-0.001,0.028,-0.003,1.2,3.5,0.4,0,2018,4,26,14,47,58.617,-0.235,0.7617,0.4005,-0.4518
-0.006,0.028,0.015,1.6,1.6,0.5,0,2018,4,26,14,47,58.631,-0.2352,0.7614,0.4003,-0.4522
-0.009,0.031,0.007,1.6,-2,1.8,0,2018,4,26,14,47,58.654,-0.235,0.7613,0.4005,-0.4523
-0.014,0.017,0.007,1.6,-1.5,3.1,0,2018,4,26,14,47,58.674,-0.2347,0.7611,0.4011,-0.4523
-0.017,0.013,0,0.8,0.5,3.3,0,2018,4,26,14,47,58.695,-0.2348,0.7609,0.4017,-0.4521
-0.011,0.01,0.008,-0.1,0.6,3,0,2018,4,26,14,47,58.716,-0.2352,0.7606,0.4021,-0.452
-0.01,0.016,0.014,0,-1.9,2.4,0,2018,4,26,14,47,58.734,-0.2354,0.7604,0.4025,-0.4519
-0.004,0.015,0.014,0.5,-2.1,3.1,1023,2018,4,26,14,47,58.756,-0.2352,0.7603,0.403,-0.4517
-0.007,0.016,0.009,1.4,-1.4,4.7,1023,2018,4,26,14,47,58.773,-0.2352,0.76,0.4037,-0.4516
-0.002,0.005,-0.021,1.5,-1,5.4,1023,2018,4,26,14,47,58.796,-0.2352,0.7596,0.4046,-0.4514
0.003,-0.019,-0.005,0.5,0.7,5.2,1023,2018,4,26,14,47,58.815,-0.2355,0.7592,0.4054,-0.4512
0.01,-0.022,0.021,-0.5,1.7,4.4,1023,2018,4,26,14,47,58.835,-0.2362,0.7587,0.4059,-0.4512
0.018,-0.036,0.025,0,-1.2,2.8,1023,2018,4,26,14,47,58.855,-0.2368,0.7583,0.4063,-0.4512
0.017,-0.039,0.005,0,-2.9,0.6,1023,2018,4,26,14,47,58.877,-0.2367,0.7581,0.4067,-0.4512
0.016,-0.039,-0.007,-0.2,-1,-1.1,1023,2018,4,26,14,47,58.896,-0.2366,0.7582,0.4068,-0.4512
0.018,-0.031,-0.004,0.1,0.7,-1.9,1023,2018,4,26,14,47,58.914,-0.2366,0.7582,0.4065,-0.4513
0.018,-0.028,0.003,1.4,0.9,-2.3,1023,2018,4,26,14,47,58.954,-0.2365,0.7582,0.4062,-0.4517
0.014,-0.02,0.007,2.3,2.6,-2.4,1023,2018,4,26,14,47,58.974,-0.2365,0.758,0.4057,-0.4524
-0.001,-0.011,-0.002,2.5,3.6,-2.9,1023,2018,4,26,14,47,58.978,-0.2366,0.7578,0.4052,-0.4531
-0.005,0.004,-0.004,2.5,4.1,-2.8,1023,2018,4,26,14,47,58.998,-0.2367,0.7577,0.4046,-0.4538
-0.009,0.015,0.003,2.5,3.1,-3,0,2018,4,26,14,47,59.017,-0.2368,0.7576,0.404,-0.4545
-0.016,0.013,0.002,2.3,1.2,-3.9,0,2018,4,26,14,47,59.055,-0.2366,0.7576,0.4036,-0.4551
-0.019,0.018,0.007,1.5,2.8,-4.1,0,2018,4,26,14,47,59.074,-0.2364,0.7576,0.403,-0.4555
-0.021,0.038,0.011,0.9,2.6,-4.3,0,2018,4,26,14,47,59.078,-0.2364,0.7577,0.4023,-0.456
-0.027,0.043,0,0.3,1.9,-3.3,0,2018,4,26,14,47,59.118,-0.2362,0.758,0.4016,-0.4563
-0.025,0.052,0.007,0.6,1.1,-1,0,2018,4,26,14,47,59.122,-0.2361,0.7581,0.4013,-0.4564
-0.017,0.043,-0.005,1.1,-1.5,0.7,0,2018,4,26,14,47,59.141,-0.2357,0.7583,0.4013,-0.4563
-0.018,0.023,0.001,0.8,-1.6,1.4,0,2018,4,26,14,47,59.157,-0.2354,0.7583,0.4017,-0.4562
-0.015,0.018,0.003,0.7,0.2,1.6,0,2018,4,26,14,47,59.176,-0.2354,0.7582,0.402,-0.456
-0.013,0.025,-0.011,0.7,-1,1.2,0,2018,4,26,14,47,59.194,-0.2354,0.7581,0.4023,-0.4559
-0.005,0.004,0,0.1,-2.6,1.6,0,2018,4,26,14,47,59.233,-0.2351,0.7581,0.4027,-0.4557
0.001,-0.002,0.005,0.6,-2.7,2.2,0,2018,4,26,14,47,59.253,-0.2349,0.758,0.4032,-0.4555
-0.001,-0.002,0,0.4,-3.2,2.6,0,2018,4,26,14,47,59.257,-0.2347,0.7579,0.4037,-0.4553
0.002,-0.018,-0.001,0,-0.4,2.4,0,2018,4,26,14,47,59.278,-0.2347,0.7578,0.4043,-0.4551
0.007,-0.009,0.015,-0.1,0.4,2.4,0,2018,4,26,14,47,59.298,-0.235,0.7575,0.4045,-0.4551
0.009,-0.004,0.019,0.4,-3.6,2.2,0,2018,4,26,14,47,59.338,-0.2351,0.7573,0.4049,-0.4551
0.009,-0.022,-0.001,1.2,-5,2,0,2018,4,26,14,47,59.359,-0.2346,0.7572,0.4055,-0.455
0.009,-0.03,0.01,1,-0.3,1.1,0,2018,4,26,14,47,59.363,-0.2344,0.757,0.406,-0.4549
0.007,-0.025,0.003,0.6,3.4,-0.1,1023,2018,4,26,14,47,59.379,-0.2348,0.7567,0.406,-0.4552
0.002,-0.007,0.01,0.9,2.9,-0.9,1023,2018,4,26,14,47,59.398,-0.2353,0.7565,0.4056,-0.4557
0.004,-0.004,0.009,1.7,-0.7,-1.3,1023,2018,4,26,14,47,59.419,-0.2353,0.7563,0.4054,-0.4561
-0.003,-0.004,0,1.7,-0.6,-1.5,1023,2018,4,26,14,47,59.456,-0.2349,0.7563,0.4054,-0.4563
-0.007,0.002,0.008,1.3,2.8,-1.9,1023,2018,4,26,14,47,59.477,-0.2348,0.7563,0.4052,-0.4566
-0.01,0.023,0.005,1.1,2.8,-2.1,1023,2018,4,26,14,47,59.481,-0.2351,0.7562,0.4047,-0.4571
-0.014,0.017,-0.007,0.3,0.1,-1.9,1023,2018,4,26,14,47,59.5,-0.235,0.7563,0.4044,-0.4574
-0.015,0.017,-0.004,-0.1,-0.3,-1.9,1023,2018,4,26,14,47,59.52,-0.2347,0.7565,0.4041,-0.4573
-0.01,0.021,0.008,0.3,-0.2,-1.3,1023,2018,4,26,14,47,59.558,-0.2345,0.7566,0.404,-0.4573
-0.009,0.021,-0.007,0.8,-0.7,-1,1023,2018,4,26,14,47,59.579,-0.2342,0.7568,0.4039,-0.4573
-0.002,0.019,0.012,0.8,0,-0.3,1023,2018,4,26,14,47,59.583,-0.234,0.7568,0.4038,-0.4574
-0.003,0.019,0.001,0.5,-0.8,0.3,1023,2018,4,26,14,47,59.602,-0.2338,0.7568,0.4038,-0.4575
-0.006,0.014,0.005,-0.1,-2.8,0.8,1023,2018,4,26,14,47,59.622,-0.2335,0.7569,0.4041,-0.4573
-0.008,0.002,-0.004,0.4,-1.7,1.4,0,2018,4,26,14,47,59.662,-0.2333,0.7569,0.4045,-0.457
-0.01,-0.007,0,0.8,0,0.8,0,2018,4,26,14,47,59.682,-0.2333,0.7568,0.4047,-0.457
-0.003,-0.001,0.004,0.7,0.5,0.6,0,2018,4,26,14,47,59.686,-0.2334,0.7567,0.4049,-0.457
0.003,0.009,0.013,1.2,0.3,0.8,0,2018,4,26,14,47,59.701,-0.2335,0.7565,0.4049,-0.4573
0,0.007,0.012,0.9,-1.2,1.2,0,2018,4,26,14,47,59.737,-0.2335,0.7563,0.4051,-0.4575
-0.004,-0.005,0.007,0.4,-1.2,1.2,0,2018,4,26,14,47,59.758,-0.2334,0.7562,0.4053,-0.4575
-0.003,-0.008,0.006,0,0.7,0.9,0,2018,4,26,14,47,59.762,-0.2335,0.756,0.4055,-0.4575
-0.003,-0.006,0.006,0.1,1.4,0.1,0,2018,4,26,14,47,59.782,-0.2338,0.7559,0.4055,-0.4576
-0.007,0,0.006,0,-0.2,-0.8,0,2018,4,26,14,47,59.801,-0.2339,0.7558,0.4054,-0.4576
-0.005,0.004,0.003,0.2,-0.1,-1.1,0,2018,4,26,14,47,59.839,-0.2338,0.7559,0.4053,-0.4577
-0.004,0.011,0.002,-0.1,0.7,-1.2,0,2018,4,26,14,47,59.86,-0.2338,0.7559,0.4051,-0.4578
-0.007,0.02,0.004,-0.2,0.5,-1,0,2018,4,26,14,47,59.863,-0.2337,0.756,0.4049,-0.4579
-0.011,0.014,0,-0.4,-1.8,-0.6,0,2018,4,26,14,47,59.879,-0.2335,0.7562,0.4048,-0.4578
-0.008,0.002,0.006,0,0,0,0,2018,4,26,14,47,59.9,-0.2333,0.7563,0.4049,-0.4577
-0.011,0.019,0.011,0.5,1.1,0.1,0,2018,4,26,14,47,59.935,-0.2334,0.7563,0.4048,-0.4577
-0.013,0.023,0.007,0.3,0.6,0.9,0,2018,4,26,14,47,59.955,-0.2335,0.7562,0.4049,-0.4578
-0.011,0.018,0.001,-0.4,-0.1,1.7,0,2018,4,26,14,47,59.96,-0.2336,0.7561,0.405,-0.4577
-0.008,0.016,0.01,-0.8,-0.9,2.2,0,2018,4,26,14,47,59.997,-0.2337,0.7561,0.4053,-0.4574
-0.002,0.01,0.003,-0.2,-1.7,2.7,1023,2018,4,26,14,48,0.017,-0.2337,0.756,0.4057,-0.4572
-0.004,0,0.004,-0.1,-1.1,2.8,1023,2018,4,26,14,48,0.023,-0.2338,0.7559,0.4062,-0.4569
-0.006,-0.004,0,-0.7,-0.5,2,1023,2018,4,26,14,48,0.061,-0.234,0.7558,0.4066,-0.4567
-0.001,-0.007,0.008,-1.1,0,1.2,1023,2018,4,26,14,48,0.082,-0.2342,0.7557,0.4068,-0.4565
0.007,0.004,0.007,-0.7,-0.6,0.8,1023,2018,4,26,14,48,0.084,-0.2344,0.7557,0.4069,-0.4564
0.002,0.004,-0.002,-0.4,-2.1,0.3,1023,2018,4,26,14,48,0.12,-0.2342,0.7557,0.407,-0.4562
-0.001,-0.001,-0.004,-0.4,-1.2,0.5,1023,2018,4,26,14,48,0.141,-0.234,0.7558,0.4073,-0.456
0,0.004,0.001,-0.1,0.5,0.8,1023,2018,4,26,14,48,0.145,-0.2341,0.7558,0.4074,-0.4559
-0.001,0.014,0.005,0.4,0.4,0.6,1023,2018,4,26,14,48,0.163,-0.2342,0.7557,0.4074,-0.4559
-0.004,0.01,0,0.2,-1.8,0.9,1023,2018,4,26,14,48,0.185,-0.2341,0.7557,0.4076,-0.4559
-0.003,-0.006,-0.002,-0.1,-2,0.8,1023,2018,4,26,14,48,0.203,-0.2339,0.7557,0.4079,-0.4556
-0.006,0.001,0.003,-0.2,0,1,1023,2018,4,26,14,48,0.223,-0.2339,0.7557,0.4081,-0.4555
-0.004,0.004,0.004,0,0.3,1,0,2018,4,26,14,48,0.264,-0.2341,0.7556,0.4082,-0.4555
-0.002,0.007,0.01,0,0,1.4,0,2018,4,26,14,48,0.268,-0.2342,0.7555,0.4083,-0.4555
0,0.003,0.009,0.1,-1.9,1.2,0,2018,4,26,14,48,0.285,-0.2342,0.7554,0.4086,-0.4554
0.007,-0.016,0.01,-0.3,-1.4,0.8,0,2018,4,26,14,48,0.304,-0.2341,0.7554,0.4088,-0.4553
0.007,-0.023,0.015,-0.9,0.9,0.3,0,2018,4,26,14,48,0.326,-0.2343,0.7553,0.4089,-0.4553
0.003,-0.011,0.012,-0.8,1.8,-0.1,0,2018,4,26,14,48,0.36,-0.2347,0.7552,0.4087,-0.4554
-0.002,-0.007,0,0,0,0,0,2018,4,26,14,48,0.38,-0.235,0.7551,0.4086,-0.4555
-0.001,-0.009,-0.012,0,0,0,0,2018,4,26,14,48,0.385,-0.2349,0.7551,0.4086,-0.4554
-0.004,-0.008,0.005,0.9,0.9,-0.5,0,2018,4,26,14,48,0.403,-0.235,0.7551,0.4086,-0.4555
-0.005,0,-0.001,1,1.5,-1.3,0,2018,4,26,14,48,0.424,-0.235,0.755,0.4084,-0.4558
-0.007,0.011,0.009,0.1,1.7,-1.5,0,2018,4,26,14,48,0.461,-0.2351,0.755,0.4081,-0.4561
-0.011,0.022,0.003,-0.2,-0.6,-1.5,0,2018,4,26,14,48,0.482,-0.235,0.7551,0.4078,-0.4562
-0.012,0.016,-0.001,-1,-1.8,-1.2,0,2018,4,26,14,48,0.484,-0.2347,0.7554,0.4077,-0.4559
-0.007,0.015,0.001,-0.6,-0.2,-0.8,0,2018,4,26,14,48,0.523,-0.2345,0.7556,0.4077,-0.4557
-0.008,0.018,0.001,-0.1,0.6,-0.7,0,2018,4,26,14,48,0.543,-0.2344,0.7558,0.4075,-0.4556
-0.012,0.028,0.002,0,1.1,-0.2,0,2018,4,26,14,48,0.548,-0.2344,0.7558,0.4074,-0.4557
-0.014,0.043,-0.002,0.5,0.3,1.4,0,2018,4,26,14,48,0.587,-0.2344,0.7558,0.4074,-0.4556
-0.015,0.038,-0.001,0.6,-2.5,3.1,0,2018,4,26,14,48,0.608,-0.2342,0.7558,0.4078,-0.4554
-0.013,0.01,0.007,0.9,-2.2,3.9,1023,2018,4,26,14,48,0.612,-0.2341,0.7556,0.4086,-0.4551
-0.014,0.015,0.007,0.3,-0.3,4.2,1023,2018,4,26,14,48,0.626,-0.2342,0.7553,0.4093,-0.4549
-0.012,0.014,0.013,0,-0.6,4.6,1023,2018,4,26,14,48,0.646,-0.2346,0.755,0.4099,-0.4547
-0.009,0.015,0.002,-0.2,-1.7,5.5,1023,2018,4,26,14,48,0.666,-0.2348,0.7547,0.4107,-0.4544
-0.011,0.023,0.012,-0.7,-1.8,6.4,1023,2018,4,26,14,48,0.702,-0.235,0.7544,0.4116,-0.4539
-0.009,0.034,0.008,-0.7,-0.2,8.1,1023,2018,4,26,14,48,0.722,-0.2354,0.754,0.4126,-0.4535
-0.01,0.051,0.006,-1,0.6,10.6,1023,2018,4,26,14,48,0.728,-0.2361,0.7535,0.4137,-0.453
-0.014,0.065,0.012,-1,2.9,14.1,1023,2018,4,26,14,48,0.768,-0.2371,0.7527,0.4151,-0.4524
-0.025,0.112,0.014,-0.4,4.3,18.4,1023,2018,4,26,14,48,0.788,-0.2386,0.7517,0.4168,-0.4518
-0.034,0.163,0.031,0.3,4.8,25.3,1023,2018,4,26,14,48,0.792,-0.2402,0.7503,0.4192,-0.451
-0.033,0.194,0.077,0.1,7.3,35,1023,2018,4,26,14,48,0.832,-0.2426,0.7481,0.4224,-0.4503
-0.046,0.209,0.1,-4.1,12.5,44.3,1023,2018,4,26,14,48,0.836,-0.2464,0.7452,0.4264,-0.4494
-0.073,0.188,0.112,-10.3,19.9,53.9,1023,2018,4,26,14,48,0.85,-0.2524,0.7416,0.431,-0.4477
-0.087,0.214,0.122,-16,27.8,63.7,1023,2018,4,26,14,48,0.887,-0.261,0.7371,0.4359,-0.4455
-0.097,0.231,0.106,-20.5,29.3,74,0,2018,4,26,14,48,0.907,-0.2712,0.732,0.4415,-0.4422
-0.115,0.217,0.051,-25.6,20.5,83.4,0,2018,4,26,14,48,0.911,-0.282,0.7267,0.4487,-0.437
-0.13,0.176,0.016,-28.8,11.6,92.1,0,2018,4,26,14,48,0.93,-0.2926,0.7213,0.4576,-0.4296
-0.12,0.111,0.028,-27.2,11.9,99.8,0,2018,4,26,14,48,0.949,-0.3036,0.7151,0.4678,-0.4212
-0.115,0.056,0.038,-26.3,17.5,103.7,0,2018,4,26,14,48,0.99,-0.3155,0.7077,0.4785,-0.413
-0.108,0.06,0,-30.1,18.5,102.5,0,2018,4,26,14,48,1.008,-0.3282,0.6997,0.4887,-0.4046
-0.105,0.037,0.001,-33.3,11.2,101.1,0,2018,4,26,14,48,1.013,-0.3403,0.6921,0.4987,-0.3953
-0.075,0.026,0.021,-29.8,13.2,105.5,0,2018,4,26,14,48,1.033,-0.352,0.6843,0.5088,-0.3857
-0.058,-0.003,0.028,-25.7,12.2,108.6,0,2018,4,26,14,48,1.052,-0.3636,0.6754,0.5191,-0.3766
-0.067,0.005,0.032,-23.3,11.8,111.7,0,2018,4,26,14,48,1.072,-0.375,0.6658,0.5299,-0.3676
-0.078,-0.002,-0.039,-23.9,15,111.1,0,2018,4,26,14,48,1.092,-0.3863,0.6556,0.5407,-0.3583
-0.093,-0.062,0.02,-26.2,12.2,107.8,0,2018,4,26,14,48,1.115,-0.3974,0.6456,0.5509,-0.3486
-0.054,-0.114,0.117,-28,13.8,103.3,0,2018,4,26,14,48,1.134,-0.4083,0.6358,0.5601,-0.3393
-0.05,-0.086,0.106,-31.8,15.7,97,0,2018,4,26,14,48,1.15,-0.419,0.6264,0.568,-0.3304
-0.076,-0.048,0.023,-36.1,11.2,92.8,0,2018,4,26,14,48,1.17,-0.4302,0.6174,0.5749,-0.3211
-0.061,-0.061,0.04,-35.5,8.8,94,0,2018,4,26,14,48,1.21,-0.4406,0.6089,0.5817,-0.3109
-0.043,-0.115,0.069,-37,9.5,92.7,0,2018,4,26,14,48,1.23,-0.4511,0.5999,0.588,-0.3011
-0.068,-0.145,0.058,-39.6,6.2,85.1,1023,2018,4,26,14,48,1.234,-0.4613,0.5916,0.5935,-0.2911
-0.061,-0.124,0.024,-40.5,2,76.3,1023,2018,4,26,14,48,1.254,-0.4707,0.5845,0.598,-0.281
-0.039,-0.116,0.025,-37.7,7.9,72.7,1023,2018,4,26,14,48,1.273,-0.4793,0.578,0.6019,-0.2714
-0.034,-0.154,0.006,-37.7,12.5,68.7,1023,2018,4,26,14,48,1.296,-0.4882,0.5711,0.6051,-0.2632
-0.06,-0.14,-0.022,-38.8,1.8,60.3,1023,2018,4,26,14,48,1.316,-0.4963,0.5651,0.6076,-0.2549
-0.049,-0.183,-0.03,-36.9,-11.9,49.9,1023,2018,4,26,14,48,1.354,-0.5024,0.5613,0.6098,-0.2458
-0.015,-0.163,-0.053,-31.7,-10.1,41.8,1023,2018,4,26,14,48,1.374,-0.5068,0.5591,0.6116,-0.2374
0,-0.11,-0.041,-27.3,-5.6,35.8,1023,2018,4,26,14,48,1.378,-0.5108,0.5568,0.6128,-0.2309
-0.005,-0.116,-0.061,-25.2,-11.7,31.6,1023,2018,4,26,14,48,1.396,-0.5139,0.5553,0.6139,-0.2246
0.004,-0.121,-0.029,-23.3,-11.2,29.5,1023,2018,4,26,14,48,1.414,-0.5163,0.5543,0.6151,-0.2185
0.027,-0.106,-0.005,-21.3,5.2,27.3,1023,2018,4,26,14,48,1.45,-0.5193,0.5526,0.6156,-0.2139
0.028,-0.038,-0.001,-20.8,18.9,25.9,1023,2018,4,26,14,48,1.471,-0.5238,0.5495,0.6155,-0.2114
0.008,-0.017,-0.029,-21.8,18.5,25.8,1023,2018,4,26,14,48,1.475,-0.5288,0.5459,0.6152,-0.2092
0.001,0.007,-0.01,-20.5,15.6,27.8,1023,2018,4,26,14,48,1.494,-0.5335,0.5423,0.6152,-0.2065
0.005,0.025,0.004,-19.3,16,28.9,0,2018,4,26,14,48,1.513,-0.5381,0.5385,0.6155,-0.2036
-0.004,0.032,0.001,-20.2,18.9,30,0,2018,4,26,14,48,1.552,-0.5429,0.5343,0.6159,-0.2008
-0.035,0.067,-0.047,-20.4,17.4,30.6,0,2018,4,26,14,48,1.572,-0.5477,0.5299,0.6164,-0.1976
-0.038,0.048,0.004,-19,15.4,32.2,0,2018,4,26,14,48,1.577,-0.5522,0.5255,0.6173,-0.1938
-0.027,0.04,0.063,-19.6,24.5,33.6,0,2018,4,26,14,48,1.616,-0.5576,0.5204,0.6178,-0.1907
-0.027,0.13,0.069,-21.8,25.1,33.6,0,2018,4,26,14,48,1.633,-0.564,0.5143,0.618,-0.188
-0.042,-0.074,-0.083,-23.4,-23.4,25.8,0,2018,4,26,14,48,1.636,-0.5678,0.511,0.6187,-0.1829
0.001,-0.373,-0.13,-17.6,-52.6,6.6,0,2018,4,26,14,48,1.651,-0.5662,0.5149,0.6191,-0.1754
0.051,-0.332,-0.134,-3.5,-37.8,-5.9,0,2018,4,26,14,48,1.681,-0.5629,0.5201,0.6194,-0.1695
0.06,-0.072,-0.113,5.6,-10.9,-6.2,0,2018,4,26,14,48,1.694,-0.5605,0.523,0.6196,-0.1679
0.038,0.039,-0.027,9.7,4.5,2,0,2018,4,26,14,48,1.732,-0.5588,0.5236,0.6204,-0.1688
0.033,0.103,-0.009,10.9,14,8.7,0,2018,4,26,14,48,1.75,-0.5585,0.5218,0.6219,-0.1701
0.018,0.096,-0.008,9.7,16.4,12.2,0,2018,4,26,14,48,1.756,-0.5586,0.519,0.6238,-0.1714
0.006,0.034,-0.014,7.1,19,13.4,0,2018,4,26,14,48,1.776,-0.5595,0.5156,0.6255,-0.1725
0,0.003,-0.038,5.5,26.2,14.1,0,2018,4,26,14,48,1.798,-0.561,0.5117,0.6268,-0.1741
-0.003,-0.017,-0.031,6.9,28.9,12.5,0,2018,4,26,14,48,1.817,-0.563,0.5075,0.6278,-0.1763
0.003,-0.04,-0.021,9.5,32.4,10.6,1023,2018,4,26,14,48,1.837,-0.565,0.5031,0.6287,-0.1794
0.007,-0.027,-0.012,12.5,36,8.3,1023,2018,4,26,14,48,1.873,-0.567,0.4984,0.6295,-0.1834
0.01,-0.002,0.001,13.4,38,5.8,1023,2018,4,26,14,48,1.893,-0.5689,0.4936,0.6302,-0.188
-0.003,0.03,0.016,12.5,36.6,4.8,1023,2018,4,26,14,48,1.894,-0.5709,0.4888,0.6307,-0.1928
-0.017,0.034,0.031,11.1,33.4,4.5,1023,2018,4,26,14,48,1.931,-0.5729,0.4842,0.6311,-0.197
-0.012,0.024,0.037,9.2,32,4.3,1023,2018,4,26,14,48,1.953,-0.575,0.4799,0.6314,-0.2008
-0.006,0.022,0.032,7.6,30.2,3.3,1023,2018,4,26,14,48,1.957,-0.5771,0.4757,0.6313,-0.2045
-0.008,0.042,0.047,5.6,18.7,1.3,1023,2018,4,26,14,48,1.993,-0.5788,0.4725,0.6312,-0.2074
-0.007,0.029,0.056,3.1,8.9,0.5,1023,2018,4,26,14,48,2.013,-0.5799,0.4706,0.6312,-0.2091
-0.006,0.029,0.023,0.7,2.4,0.4,1023,2018,4,26,14,48,2.017,-0.5804,0.4697,0.6311,-0.2097
-0.002,0.018,0,-1.1,-0.7,0.3,1023,2018,4,26,14,48,2.057,-0.5805,0.4697,0.631,-0.2097
0,0.017,-0.003,-1.2,-4.8,0,1023,2018,4,26,14,48,2.076,-0.5804,0.47,0.6311,-0.2091
0.006,0.006,0.003,-0.8,-6.5,-1,1023,2018,4,26,14,48,2.077,-0.58,0.4708,0.6312,-0.2084
0.008,0,-0.005,0.2,-3.8,-1,1023,2018,4,26,14,48,2.116,-0.5793,0.4717,0.6312,-0.2081
0.006,-0.001,-0.004,1,0.7,-0.4,1023,2018,4,26,14,48,2.136,-0.5791,0.4719,0.6313,-0.208
0.003,0.013,-0.009,1.5,2.4,-0.4,1023,2018,4,26,14,48,2.139,-0.579,0.4717,0.6314,-0.2084
0.004,0.004,0,1.7,1.6,-0.8,0,2018,4,26,14,48,2.179,-0.5789,0.4716,0.6315,-0.2088
0.008,0.006,0.007,1.4,2.5,-0.8,0,2018,4,26,14,48,2.198,-0.5789,0.4714,0.6314,-0.2092
0.005,0.01,0.006,1.2,4.8,-0.4,0,2018,4,26,14,48,2.203,-0.579,0.471,0.6314,-0.2098
0,0.007,0.007,1.1,6.6,-0.4,0,2018,4,26,14,48,2.22,-0.5794,0.4704,0.6312,-0.2107
0,0.012,0.012,0.6,3.8,-1.2,0,2018,4,26,14,48,2.239,-0.5797,0.47,0.631,-0.2115
0.004,0.007,0.016,0,0.9,-1.1,0,2018,4,26,14,48,2.277,-0.5799,0.4698,0.6308,-0.2119
0.003,0.009,0.006,-0.2,0,-0.7,0,2018,4,26,14,48,2.297,-0.58,0.4698,0.6307,-0.212
0.008,0.018,0.009,-0.6,0.3,0,0,2018,4,26,14,48,2.301,-0.5801,0.4698,0.6306,-0.212
0.006,0.02,0.009,0,0,0,0,2018,4,26,14,48,2.34,-0.5802,0.4698,0.6305,-0.212
0.002,0.008,0.011,0.1,-1.2,-0.1,0,2018,4,26,14,48,2.36,-0.5802,0.4699,0.6305,-0.2118
0.002,0.004,0.006,0,0,0,0,2018,4,26,14,48,2.364,-0.5802,0.4699,0.6305,-0.2117
0.005,0.006,0,0.1,0.7,0.1,0,2018,4,26,14,48,2.401,-0.5802,0.4699,0.6305,-0.2118
0.005,0.012,-0.003,0.4,1.1,0,0,2018,4,26,14,48,2.423,-0.5802,0.4697,0.6306,-0.2119
0,0.014,0.001,0.4,1.1,-0.3,0,2018,4,26,14,48,2.427,-0.5803,0.4696,0.6306,-0.212
0.001,0.008,0.005,0.6,1.5,-0.3,1023,2018,4,26,14,48,2.441,-0.5803,0.4694,0.6306,-0.2122
0.002,0.007,0.007,0.6,1.7,-0.4,1023,2018,4,26,14,48,2.479,-0.5804,0.4693,0.6305,-0.2125
0.001,0.007,0.01,0.1,1.8,-0.5,1023,2018,4,26,14,48,2.5,-0.5806,0.4691,0.6304,-0.2127
0.002,0.008,0.011,0.2,2.5,-0.7,1023,2018,4,26,14,48,2.505,-0.5808,0.4689,0.6303,-0.2131
0.002,0.016,0.005,0.4,2,-0.4,1023,2018,4,26,14,48,2.524,-0.5809,0.4687,0.6302,-0.2134
0.005,0.012,0.012,0,0,0,1023,2018,4,26,14,48,2.544,-0.581,0.4685,0.6301,-0.2136
0,0.012,0.008,0,0,0,1023,2018,4,26,14,48,2.564,-0.5811,0.4685,0.6301,-0.2136
0.002,0.008,0.005,0,0,0,1023,2018,4,26,14,48,2.604,-0.5811,0.4685,0.6301,-0.2135
0.004,0.011,0.002,-0.2,-1.1,-0.4,1023,2018,4,26,14,48,2.622,-0.5811,0.4686,0.6301,-0.2134
0.004,0.01,-0.01,-0.2,-0.7,-0.4,1023,2018,4,26,14,48,2.627,-0.581,0.4688,0.6301,-0.2133
0.005,0.006,0.003,0,0.3,-0.8,1023,2018,4,26,14,48,2.647,-0.581,0.4689,0.63,-0.2133
0.004,0.008,0,0.1,1,-0.4,1023,2018,4,26,14,48,2.667,-0.581,0.4689,0.6299,-0.2134
0.002,0.011,0,0.1,0.6,-0.2,0,2018,4,26,14,48,2.686,-0.5811,0.4688,0.6299,-0.2136
0.003,0.007,0.004,0.3,1.5,-0.3,0,2018,4,26,14,48,2.707,-0.5811,0.4687,0.6299,-0.2137
0.003,0.007,0,0.2,2.2,-0.5,0,2018,4,26,14,48,2.725,-0.5812,0.4685,0.6298,-0.214
0.006,0.012,0.01,0.3,2.6,-0.4,0,2018,4,26,14,48,2.745,-0.5814,0.4683,0.6297,-0.2143
0.005,0.006,0.003,0.2,2.7,0,0,2018,4,26,14,48,2.764,-0.5817,0.468,0.6295,-0.2147
0,-0.009,-0.008,-0.6,1.5,-0.1,0,2018,4,26,14,48,2.784,-0.5818,0.4678,0.6294,-0.2149
0,-0.014,-0.019,-1.9,2.8,-0.9,0,2018,4,26,14,48,2.822,-0.582,0.4678,0.6292,-0.2151
0.001,0.002,0.017,-2.3,0.9,-1.3,0,2018,4,26,14,48,2.841,-0.5824,0.4678,0.6288,-0.2154
0.005,-0.05,0.011,-3.8,-7.2,-1.6,0,2018,4,26,14,48,2.846,-0.5827,0.4683,0.6283,-0.2151
-0.007,-0.254,-0.073,-9.9,-24.8,-7.3,0,2018,4,26,14,48,2.881,-0.5815,0.4711,0.6277,-0.2136
-0.014,-0.406,-0.088,-15.7,-30.7,-25,0,2018,4,26,14,48,2.901,-0.58,0.4764,0.6257,-0.2119
-0.097,-0.552,0.023,-15,-78.3,-51.7,0,2018,4,26,14,48,2.904,-0.576,0.4868,0.6223,-0.2096
-0.039,-0.806,-0.02,-12,-107.1,-100.5,0,2018,4,26,14,48,2.923,-0.5664,0.5053,0.6177,-0.2054
-0.059,-0.853,-0.061,-2.7,-103.4,-150.2,0,2018,4,26,14,48,2.943,-0.553,0.5296,0.6093,-0.2058
-0.073,-0.875,-0.075,12.8,-77.9,-184.8,0,2018,4,26,14,48,2.981,-0.5375,0.5561,0.597,-0.2127
-0.077,-0.629,0,27.3,-51.7,-202.7,0,2018,4,26,14,48,3.002,-0.5217,0.5811,0.582,-0.2265
-0.069,-0.462,0.037,34.4,-50.6,-211.8,0,2018,4,26,14,48,3.005,-0.5049,0.6051,0.5653,-0.2434
-0.101,-0.35,0.106,38.9,-56.9,-215.3,1023,2018,4,26,14,48,3.042,-0.486,0.6289,0.5478,-0.2606
-0.141,-0.235,0.105,41.4,-54.2,-214.8,1023,2018,4,26,14,48,3.064,-0.4657,0.652,0.5298,-0.2777
-0.197,-0.117,0.032,43,-34.1,-213,1023,2018,4,26,14,48,3.067,-0.446,0.6728,0.5107,-0.2956
-0.256,-0.04,0.029,42.9,-24.5,-211.1,1023,2018,4,26,14,48,3.108,-0.4276,0.6912,0.4902,-0.3145
-0.319,0.04,0.008,46.3,-26.8,-204.2,1023,2018,4,26,14,48,3.128,-0.409,0.708,0.4695,-0.333
-0.342,0.089,-0.099,52.1,-17.6,-195.4,1023,2018,4,26,14,48,3.132,-0.3901,0.7228,0.4495,-0.3511
-0.338,0.223,0.025,52.2,-2.9,-184.6,1023,2018,4,26,14,48,3.15,-0.373,0.7346,0.4293,-0.3699
-0.329,0.274,0.117,47.9,3.8,-168.8,1023,2018,4,26,14,48,3.171,-0.3576,0.7441,0.4097,-0.3878
-0.322,0.341,0.105,38.6,-0.7,-152.2,1023,2018,4,26,14,48,3.19,-0.3439,0.7522,0.3913,-0.4034
-0.326,0.302,0.117,29.2,-0.5,-139.7,1023,2018,4,26,14,48,3.211,-0.3309,0.7596,0.3742,-0.4164
-0.307,0.357,0.158,18.4,5.6,-128.9,1023,2018,4,26,14,48,3.228,-0.32,0.7662,0.3575,-0.4273
-0.285,0.327,0.136,11.7,3.6,-118.9,1023,2018,4,26,14,48,3.265,-0.3104,0.7724,0.3413,-0.4364
-0.271,0.332,0.086,9.1,-1.9,-104.1,1023,2018,4,26,14,48,3.285,-0.3013,0.778,0.3266,-0.4438
-0.247,0.362,0.055,5.4,-5,-88.2,1023,2018,4,26,14,48,3.289,-0.293,0.783,0.3143,-0.4496
-0.222,0.388,0.048,0.7,-11.9,-77.3,0,2018,4,26,14,48,3.308,-0.2853,0.7876,0.3038,-0.4537
-0.199,0.318,-0.034,-3.3,-21.1,-68.8,0,2018,4,26,14,48,3.329,-0.2772,0.7924,0.295,-0.4562
-0.165,0.253,-0.038,-7.6,-23.8,-60.8,0,2018,4,26,14,48,3.367,-0.2691,0.7972,0.2877,-0.4573
-0.14,0.294,-0.007,-12.7,-17.6,-56,0,2018,4,26,14,48,3.389,-0.2621,0.8018,0.2807,-0.4576
-0.093,0.321,-0.086,-15.1,-21.3,-49.3,0,2018,4,26,14,48,3.393,-0.256,0.8064,0.2742,-0.457
-0.04,0.351,-0.184,-13.5,-31.6,-39,0,2018,4,26,14,48,3.413,-0.2494,0.8108,0.2694,-0.4556
0.043,0.309,-0.217,-3.8,-32,-26.9,0,2018,4,26,14,48,3.432,-0.2426,0.8145,0.267,-0.4542
0.06,0.314,-0.332,3.1,-35.6,-20.2,0,2018,4,26,14,48,3.45,-0.2359,0.817,0.2664,-0.4536
0.057,0.372,-0.378,8.1,-32.1,-13.8,0,2018,4,26,14,48,3.488,-0.2294,0.8187,0.2669,-0.4535
0.031,0.541,-0.496,10.3,-28.5,-4.3,0,2018,4,26,14,48,3.508,-0.224,0.8195,0.2684,-0.4539
0.025,0.615,-0.558,20.2,-38.1,8.1,0,2018,4,26,14,48,3.512,-0.2189,0.8196,0.2717,-0.4543
0.004,0.537,-0.538,33.2,-61.7,22.6,0,2018,4,26,14,48,3.531,-0.2118,0.8185,0.279,-0.4552
-0.078,0.52,-0.642,41,-86.1,32.4,0,2018,4,26,14,48,3.55,-0.2014,0.8168,0.2904,-0.4559
-0.291,0.715,-0.956,39.1,-107.6,42.5,0,2018,4,26,14,48,3.589,-0.1885,0.8149,0.3047,-0.4554
-0.525,0.809,-1.401,52,-135.5,66.2,0,2018,4,26,14,48,3.61,-0.173,0.8124,0.3234,-0.4531
-0.695,0.951,-1.878,103.9,-140.8,109.7,1023,2018,4,26,14,48,3.614,-0.1559,0.8051,0.3491,-0.4534
-0.83,1.017,-2.209,161.9,-209,150.1,1023,2018,4,26,14,48,3.634,-0.1339,0.7904,0.3843,-0.4578
-0.957,0.838,-2.1,219.8,-299.2,205.1,1023,2018,4,26,14,48,3.654,-0.0992,0.7675,0.4331,-0.462
-1.204,0.402,-1.626,279.9,-305.2,276.7,1023,2018,4,26,14,48,3.674,-0.0577,0.7318,0.4934,-0.4664
-1.615,-0.405,-1.089,346.1,-234.8,351.1,1023,2018,4,26,14,48,3.69,-0.0212,0.6785,0.5569,-0.4784
-1.996,-1.463,-0.161,405.9,-134.3,397.7,1023,2018,4,26,14,48,3.711,0.0059,0.6074,0.6156,-0.5019
-10.238,1.206,16.371,204.3,-26.6,522.5,1023,2018,4,26,14,48,3.731,0.0216,0.5265,0.6619,-0.5329
-6.883,9.43,-0.157,-170.2,-94.3,-295.1,1023,2018,4,26,14,48,3.751,-0.0315,0.5029,0.6338,-0.5867
-1.905,-1.313,2.383,-205.8,-41.3,-103.8,1023,2018,4,26,14,48,3.789,-0.0049,0.5386,0.6345,-0.5542
-0.633,0.533,-0.452,-51.5,-42.7,-95.2,1023,2018,4,26,14,48,3.809,-0.0093,0.5584,0.6242,-0.5461
-0.419,-0.995,0.196,-45.2,-95.2,-81.9,1023,2018,4,26,14,48,3.813,0.0062,0.573,0.6247,-0.5302
-0.388,0.309,0.35,-37.8,178.5,-69.8,1023,2018,4,26,14,48,3.852,0.0004,0.5847,0.6102,-0.5345
-0.339,-0.285,0.195,-42.3,227,-67.5,0,2018,4,26,14,48,3.871,-0.0166,0.5955,0.5836,-0.5516
-0.361,0.364,0.244,-78.3,223.6,-47.7,0,2018,4,26,14,48,3.875,-0.0419,0.6056,0.554,-0.5696
-0.392,0.017,0.016,-125.2,157,-43,0,2018,4,26,14,48,3.914,-0.0673,0.6184,0.5295,-0.5767
-0.456,0.035,-0.122,-151.2,109.2,-48.2,0,2018,4,26,14,48,3.933,-0.0897,0.6349,0.5093,-0.5739
-0.412,0.072,-0.309,-159.9,94.5,-54.4,0,2018,4,26,14,48,3.938,-0.1092,0.6533,0.491,-0.5657
-0.263,0.134,-0.356,-161.9,98.7,-54.8,0,2018,4,26,14,48,3.952,-0.1286,0.6717,0.4718,-0.5563
-0.215,0.247,-0.436,-158.8,96.2,-51.2,0,2018,4,26,14,48,3.99,-0.1482,0.689,0.4522,-0.5465
-0.198,0.271,-0.408,-155.6,92.4,-45.2,0,2018,4,26,14,48,4.011,-0.1671,0.705,0.4331,-0.536
-0.186,0.276,-0.327,-151.2,80.7,-36.2,0,2018,4,26,14,48,4.015,-0.1855,0.7194,0.4153,-0.5248
-0.178,0.263,-0.411,-145.4,63.1,-25.2,0,2018,4,26,14,48,4.035,-0.2024,0.7326,0.3999,-0.512
-0.124,0.21,-0.401,-134,62.2,-13.2,0,2018,4,26,14,48,4.054,-0.2182,0.744,0.387,-0.4989
-0.092,0.225,-0.372,-125.3,64.2,-5.3,0,2018,4,26,14,48,4.092,-0.2345,0.7532,0.3752,-0.4867
-0.063,0.202,-0.349,-114.8,53.2,0,0,2018,4,26,14,48,4.114,-0.2498,0.761,0.3648,-0.4746
-0.016,0.191,-0.356,-99.5,50.7,9.4,0,2018,4,26,14,48,4.118,-0.2637,0.7671,0.3565,-0.4635
0.011,0.164,-0.452,-87.2,46.8,15.3,0,2018,4,26,14,48,4.136,-0.277,0.7713,0.35,-0.4535
0.047,0.173,-0.383,-79.6,41.5,19.1,0,2018,4,26,14,48,4.176,-0.2894,0.7746,0.3447,-0.4442
0.083,0.163,-0.371,-69.8,31.2,20.9,0,2018,4,26,14,48,4.18,-0.3004,0.7773,0.3408,-0.4351
0.091,0.151,-0.38,-57.4,28.1,23.2,1023,2018,4,26,14,48,4.194,-0.3097,0.7792,0.3381,-0.427
0.113,0.143,-0.306,-41.5,26.2,28,1023,2018,4,26,14,48,4.214,-0.3185,0.7797,0.3369,-0.4207
0.081,0.18,-0.348,-31.6,3.4,29.7,1023,2018,4,26,14,48,4.254,-0.3248,0.7797,0.3377,-0.4151
0.093,0.061,-0.318,-22.9,-4,33,1023,2018,4,26,14,48,4.276,-0.3281,0.7801,0.3406,-0.4094
0.113,0.041,-0.163,-16.6,7.2,35.9,1023,2018,4,26,14,48,4.28,-0.3322,0.7791,0.3442,-0.4049
0.086,0.023,-0.101,-13.7,5.6,28.9,1023,2018,4,26,14,48,4.298,-0.3358,0.7782,0.3471,-0.4013
0.061,-0.006,-0.082,-7.6,5.1,26.5,1023,2018,4,26,14,48,4.334,-0.3382,0.7774,0.3497,-0.3985
0.026,0.026,-0.099,-1.9,5.3,28.2,1023,2018,4,26,14,48,4.354,-0.3405,0.7761,0.3527,-0.3963
0.007,0.04,-0.1,2,5.2,31.6,1023,2018,4,26,14,48,4.358,-0.3424,0.7746,0.3566,-0.3943
-0.012,0.095,-0.034,6.2,12.2,36.2,1023,2018,4,26,14,48,4.379,-0.3451,0.772,0.3609,-0.393
-0.034,0.095,0.023,10.3,9.2,41.7,1023,2018,4,26,14,48,4.399,-0.3483,0.7687,0.3659,-0.3922
-0.053,0.1,0.07,13,7.8,48.6,1023,2018,4,26,14,48,4.438,-0.3517,0.7644,0.3722,-0.3915
-0.036,0.022,0.042,9.3,6.4,47.7,1023,2018,4,26,14,48,4.459,-0.3555,0.7597,0.3792,-0.3906
-0.045,-0.039,0.132,-2.6,6.5,39.2,0,2018,4,26,14,48,4.463,-0.3598,0.7558,0.3847,-0.3888
-0.032,0.009,0.138,-11.1,3.9,34,0,2018,4,26,14,48,4.475,-0.3637,0.7534,0.3885,-0.3861
-0.046,0.144,0.072,-12.4,-1.8,39.4,0,2018,4,26,14,48,4.513,-0.3674,0.7515,0.3923,-0.3824
-0.009,0.173,0.051,-2.1,5.6,55.8,0,2018,4,26,14,48,4.533,-0.3709,0.7488,0.398,-0.3782
-0.016,0.161,0.046,0,15.4,67.8,0,2018,4,26,14,48,4.537,-0.376,0.744,0.4053,-0.3751
-0.058,0.156,0.107,-6.8,22,76.9,0,2018,4,26,14,48,4.577,-0.3834,0.7377,0.4132,-0.3712
-0.103,0.313,0.041,-4.6,37.4,107.7,0,2018,4,26,14,48,4.598,-0.4036,0.7216,0.4318,-0.3602
-0.09,0.248,0.063,5.2,40.4,125,0,2018,4,26,14,48,4.602,-0.4159,0.7097,0.4443,-0.3546
-0.119,0.196,-0.002,5.5,29.8,131.9,0,2018,4,26,14,48,4.62,-0.4276,0.6966,0.4588,-0.3482
-0.154,0.195,0.021,-2.8,28.2,138,0,2018,4,26,14,48,4.64,-0.4389,0.6834,0.4735,-0.3404
-0.182,0.263,-0.029,-11.4,35.5,147.5,0,2018,4,26,14,48,4.68,-0.4518,0.6693,0.4879,-0.3312
-0.169,0.178,0.019,-6.2,40.6,158.4,0,2018,4,26,14,48,4.701,-0.4658,0.6535,0.5026,-0.3212
-0.175,0.077,0.013,-1.3,38.6,167.3,0,2018,4,26,14,48,4.705,-0.4797,0.6357,0.5186,-0.3108
-0.205,0.097,-0.063,0,27.9,170.7,0,2018,4,26,14,48,4.719,-0.4924,0.6173,0.5354,-0.2995
-0.209,0.096,-0.151,1.9,32.7,171.6,0,2018,4,26,14,48,4.738,-0.504,0.5986,0.5522,-0.2874
-0.134,-0.119,-0.025,10,58.2,170.6,0,2018,4,26,14,48,4.757,-0.5166,0.5772,0.5683,-0.2771
-0.123,-0.246,0.082,9.3,70.4,159.2,1023,2018,4,26,14,48,4.798,-0.5309,0.5535,0.5822,-0.2697
-0.137,-0.199,0.097,3.2,61,143.2,1023,2018,4,26,14,48,4.817,-0.5439,0.5312,0.5938,-0.2631
-0.12,-0.16,0.061,-4.6,47.4,127.5,1023,2018,4,26,14,48,4.821,-0.5552,0.5119,0.6035,-0.2556
-0.077,-0.159,0.013,-6.3,57,122,1023,2018,4,26,14,48,4.842,-0.5663,0.4937,0.6113,-0.2483
-0.07,-0.219,0.162,-4,68.7,119.7,1023,2018,4,26,14,48,4.862,-0.5777,0.4744,0.618,-0.243
-0.21,-0.723,0.463,-10.3,51.4,107.7,1023,2018,4,26,14,48,4.884,-0.5886,0.4552,0.6243,-0.2377
-0.114,-2.316,-0.119,-15.7,-38,-29.7,1023,2018,4,26,14,48,4.904,-0.592,0.4531,0.6251,-0.2308
0.029,-0.294,-0.076,-11.6,6.5,-46.2,1023,2018,4,26,14,48,4.923,-0.5902,0.4603,0.6199,-0.2351
0.112,0.213,0.043,0.2,2.4,-19.9,1023,2018,4,26,14,48,4.943,-0.5896,0.4639,0.6164,-0.2388
0.092,0.235,0.064,11.9,8.9,13.6,1023,2018,4,26,14,48,4.983,-0.5894,0.4632,0.6167,-0.2398
0.006,0.3,0.024,21.4,25,40.1,1023,2018,4,26,14,48,4.987,-0.5905,0.4571,0.6203,-0.2397
-0.03,0.161,0.049,23.5,27.7,43.7,1023,2018,4,26,14,48,5.002,-0.5921,0.4482,0.6253,-0.2395
-0.056,-0.036,0.019,19.8,38.5,31.3,0,2018,4,26,14,48,5.041,-0.5943,0.4392,0.6292,-0.2404
-0.059,-0.095,-0.058,14.7,44.8,13.5,0,2018,4,26,14,48,5.06,-0.5966,0.4315,0.6309,-0.2441
-0.017,-0.035,-0.096,8,34.8,0.7,0,2018,4,26,14,48,5.064,-0.5982,0.4264,0.6311,-0.2487
0.036,0.058,-0.085,3.6,20.4,-2.4,0,2018,4,26,14,48,5.084,-0.5988,0.424,0.6308,-0.252
0.049,0.064,-0.053,2.2,20.3,-1.5,0,2018,4,26,14,48,5.104,-0.5993,0.4224,0.6305,-0.2543
0.045,0.042,-0.035,1.6,20.7,-2.7,0,2018,4,26,14,48,5.142,-0.6,0.4208,0.6298,-0.257
0.034,0.023,-0.021,-0.1,15.9,-6.1,0,2018,4,26,14,48,5.162,-0.6008,0.4195,0.6289,-0.2595
0.024,0.004,0.001,-1.2,14.2,-6.3,0,2018,4,26,14,48,5.166,-0.6016,0.4188,0.6277,-0.2618
0.007,0.004,0.018,-0.8,13.1,-5.4,0,2018,4,26,14,48,5.185,-0.6023,0.4183,0.6263,-0.2641
-0.014,-0.017,0.037,0.3,13.7,-3.2,0,2018,4,26,14,48,5.205,-0.6032,0.4175,0.6252,-0.2662
-0.025,-0.022,0.057,2.3,14.9,-2.6,0,2018,4,26,14,48,5.224,-0.6043,0.4161,0.6241,-0.2684
-0.022,0.022,0.072,3.6,10.6,-3.3,0,2018,4,26,14,48,5.243,-0.6052,0.4146,0.6232,-0.2705
-0.014,0.026,0.07,4,7.2,-3.2,0,2018,4,26,14,48,5.263,-0.6059,0.4135,0.6227,-0.272
-0.013,0.025,0.055,3.4,5.7,-2.4,0,2018,4,26,14,48,5.298,-0.6062,0.4127,0.6223,-0.2734
-0.006,0.027,0.041,2.5,3.1,-0.9,0,2018,4,26,14,48,5.319,-0.6066,0.4119,0.6221,-0.2742
0.008,0.011,0.035,1.4,1.8,1.1,0,2018,4,26,14,48,5.325,-0.6067,0.4115,0.622,-0.2747
0.009,0.012,0.017,0.8,1.2,2.3,0,2018,4,26,14,48,5.346,-0.607,0.4109,0.6221,-0.2748
0.003,0.018,0.009,0.3,0.5,2.9,1023,2018,4,26,14,48,5.366,-0.6071,0.4106,0.6222,-0.2748
0.004,0.017,0.002,-0.3,-0.4,3.3,1023,2018,4,26,14,48,5.404,-0.6072,0.4104,0.6224,-0.2744
0.007,0.019,-0.006,-1,-3.8,2,1023,2018,4,26,14,48,5.426,-0.6071,0.4106,0.6225,-0.274
0.011,0.001,0.003,-1.9,-7.4,1.3,1023,2018,4,26,14,48,5.43,-0.6067,0.4116,0.6226,-0.2732
0.014,0.001,0.001,-2,-5.4,1.1,1023,2018,4,26,14,48,5.445,-0.6064,0.4125,0.6227,-0.2724
0.011,0.008,-0.011,-1.8,-0.4,1.1,1023,2018,4,26,14,48,5.464,-0.6063,0.413,0.6227,-0.2719
0.013,0.009,-0.009,-0.7,2.5,1.2,1023,2018,4,26,14,48,5.483,-0.6063,0.4133,0.6225,-0.272
0.011,0.005,-0.009,0.3,3.4,0.9,1023,2018,4,26,14,48,5.522,-0.6063,0.4132,0.6223,-0.2724
0.008,0,0,1.1,4,1,1023,2018,4,26,14,48,5.542,-0.6064,0.4129,0.6222,-0.2729
0.004,0.001,0.004,1.3,4.5,1.5,1023,2018,4,26,14,48,5.546,-0.6066,0.4123,0.6221,-0.2734
0.005,0.012,0.01,1.2,2.9,1.9,1023,2018,4,26,14,48,5.584,-0.6068,0.4119,0.6221,-0.2739
0.007,0.013,0.011,1.2,3.4,2.6,1023,2018,4,26,14,48,5.605,-0.6069,0.4116,0.622,-0.2742
0,0.021,0.009,0.7,3.6,2.8,0,2018,4,26,14,48,5.609,-0.6071,0.4111,0.622,-0.2745
-0.003,0.018,0.011,0.2,2.7,2.9,0,2018,4,26,14,48,5.628,-0.6075,0.4104,0.6221,-0.2746
0,0.009,0.008,0,2.6,2.7,0,2018,4,26,14,48,5.649,-0.6077,0.4101,0.622,-0.2747
0.004,0.008,0.007,0.1,2.7,2.2,0,2018,4,26,14,48,5.687,-0.608,0.4097,0.6219,-0.2748
0.002,0.012,-0.003,0.6,2.8,1.6,0,2018,4,26,14,48,5.707,-0.608,0.4096,0.6218,-0.2752
0,0.02,0,0.8,1.1,0.5,0,2018,4,26,14,48,5.712,-0.608,0.4095,0.6218,-0.2754
0.001,0.015,0.012,0.5,0.2,0,0,2018,4,26,14,48,5.728,-0.608,0.4095,0.6218,-0.2754
0.001,0.011,0.012,0,0,0,0,2018,4,26,14,48,5.747,-0.6081,0.4095,0.6217,-0.2754
0.003,0.009,0.016,0,0.8,0.2,0,2018,4,26,14,48,5.767,-0.6081,0.4095,0.6216,-0.2755
0,0.013,0.013,0,0.9,0.2,0,2018,4,26,14,48,5.788,-0.6082,0.4095,0.6215,-0.2757
0.001,0.014,0.009,0,0,0,0,2018,4,26,14,48,5.826,-0.6083,0.4094,0.6214,-0.2757
0.003,0.011,0.01,-0.2,-1,-0.2,0,2018,4,26,14,48,5.848,-0.6084,0.4094,0.6214,-0.2756
0.005,0.011,0.009,-0.4,-0.8,-0.1,0,2018,4,26,14,48,5.852,-0.6083,0.4097,0.6212,-0.2756
0.007,0.013,0.005,-0.4,-0.6,0.1,0,2018,4,26,14,48,5.87,-0.6084,0.4099,0.6211,-0.2755
0.007,0.01,0.004,-0.3,0,0.5,0,2018,4,26,14,48,5.889,-0.6084,0.41,0.6211,-0.2754
0.012,0.009,0,0,1.5,0.6,0,2018,4,26,14,48,5.909,-0.6084,0.4101,0.621,-0.2755
0.006,0.018,0.002,0.1,1.4,0.5,0,2018,4,26,14,48,5.927,-0.6083,0.4103,0.6208,-0.2758
0.005,0.012,0.003,0.3,1.3,0.3,1023,2018,4,26,14,48,5.947,-0.6083,0.4103,0.6207,-0.276
0.001,0.014,0.005,0,0,0,1023,2018,4,26,14,48,5.984,-0.6083,0.4103,0.6206,-0.2761
0.004,0.011,0.007,0,0,0,1023,2018,4,26,14,48,6.003,-0.6085,0.4101,0.6207,-0.276
0.009,0.008,0.003,0.5,0,-0.4,1023,2018,4,26,14,48,6.007,-0.6085,0.4101,0.6207,-0.276
0.007,0.014,0.01,0.7,0,-0.6,1023,2018,4,26,14,48,6.046,-0.6084,0.4103,0.6206,-0.2762
0.006,0.011,0.011,0.8,0.8,-0.4,1023,2018,4,26,14,48,6.068,-0.6083,0.4104,0.6205,-0.2764
0.001,0.013,0.013,0.3,0.8,-0.2,1023,2018,4,26,14,48,6.072,-0.6083,0.4104,0.6204,-0.2766
0.001,0.006,0.006,0.2,0.5,-0.4,1023,2018,4,26,14,48,6.091,-0.6083,0.4104,0.6203,-0.2768
0.001,0.013,0.007,0,0.1,-0.5,1023,2018,4,26,14,48,6.112,-0.6084,0.4102,0.6203,-0.2767
0.005,0.016,0.014,0.1,-1.8,-0.8,1023,2018,4,26,14,48,6.131,-0.6082,0.4106,0.6202,-0.2768
0.004,0.014,0.005,-0.3,-1.5,-0.8,1023,2018,4,26,14,48,6.151,-0.608,0.4111,0.6201,-0.2768
0.008,0.017,0.005,-0.4,-1.5,-0.9,1023,2018,4,26,14,48,6.19,-0.6079,0.4116,0.6199,-0.2767
0.005,0.007,0.004,-0.6,-2.1,-0.9,1023,2018,4,26,14,48,6.209,-0.6077,0.4121,0.6198,-0.2767
0.007,0.006,-0.004,-0.3,-1.4,-1,0,2018,4,26,14,48,6.213,-0.6076,0.4125,0.6197,-0.2765
0.008,0.009,0.002,0,-2,-1.2,0,2018,4,26,14,48,6.229,-0.6073,0.413,0.6197,-0.2765
0.011,0.006,0.005,0.4,-1.6,-1.2,0,2018,4,26,14,48,6.249,-0.607,0.4136,0.6195,-0.2765
0.007,0.011,0.001,0.5,-0.4,-0.8,0,2018,4,26,14,48,6.286,-0.6067,0.414,0.6195,-0.2767
0.009,0.013,0.004,0.5,0,-0.5,0,2018,4,26,14,48,6.306,-0.6066,0.4142,0.6194,-0.2768
0.003,0.008,0.004,0,0,0,0,2018,4,26,14,48,6.31,-0.6068,0.414,0.6194,-0.2766
0.003,0.008,0.005,0,0,0,0,2018,4,26,14,48,6.351,-0.6069,0.4139,0.6194,-0.2765
0.005,0.013,0.008,0,-0.6,-0.6,0,2018,4,26,14,48,6.37,-0.6069,0.414,0.6193,-0.2766
0.008,0.007,0.009,0.4,-0.6,-0.4,0,2018,4,26,14,48,6.374,-0.6068,0.4143,0.6192,-0.2766
0.006,0.007,0.004,0,0,0,0,2018,4,26,14,48,6.394,-0.6069,0.4142,0.6192,-0.2766
0.006,0.01,0.002,0,0,0,0,2018,4,26,14,48,6.433,-0.607,0.414,0.6193,-0.2764
0.008,0.011,0.002,0,0,0,0,2018,4,26,14,48,6.453,-0.6072,0.4139,0.6193,-0.2763
0.006,0.009,-0.002,-0.4,-0.6,0,0,2018,4,26,14,48,6.456,-0.6071,0.4141,0.6192,-0.2763
0.008,0.012,0,-0.2,-0.5,-0.4,0,2018,4,26,14,48,6.473,-0.6072,0.4141,0.6192,-0.2762
0.006,0.012,0.005,0,-0.8,-0.2,0,2018,4,26,14,48,6.493,-0.607,0.4144,0.6192,-0.2762
0.006,0.008,-0.002,0,0,0,0,2018,4,26,14,48,6.512,-0.607,0.4145,0.6192,-0.2761
0.005,0.01,0,0,0.6,-0.2,0,2018,4,26,14,48,6.547,-0.607,0.4144,0.6192,-0.2761
0.005,0.007,0.001,0,0,0,1023,2018,4,26,14,48,6.567,-0.6071,0.4143,0.6192,-0.276
0.006,0.009,0.004,0,0.6,-0.2,1023,2018,4,26,14,48,6.573,-0.6071,0.4144,0.6191,-0.2761
0.005,0.012,0.005,0,1.4,-0.1,1023,2018,4,26,14,48,6.594,-0.6071,0.4145,0.6189,-0.2763
0.002,0.019,0.005,0,0,0,1023,2018,4,26,14,48,6.614,-0.6072,0.4145,0.6188,-0.2764
0.003,0.009,0.006,0,-0.6,-0.3,1023,2018,4,26,14,48,6.65,-0.6072,0.4146,0.6188,-0.2763
0.005,0.005,0.003,0,0,0,1023,2018,4,26,14,48,6.67,-0.6072,0.4147,0.6187,-0.2763
0.008,0.013,0.006,0,-1.5,-0.6,1023,2018,4,26,14,48,6.677,-0.6071,0.415,0.6187,-0.2763
0.009,0.007,0.001,-0.1,-0.7,-0.3,1023,2018,4,26,14,48,6.697,-0.607,0.4152,0.6186,-0.2762
0.005,0.01,-0.002,-0.2,0.7,-0.1,1023,2018,4,26,14,48,6.719,-0.6071,0.415,0.6187,-0.2761
0.003,0.016,0.006,0,0,0,1023,2018,4,26,14,48,6.733,-0.6072,0.4149,0.6187,-0.276
0.006,0.003,-0.001,-0.2,-0.6,-0.4,1023,2018,4,26,14,48,6.771,-0.6071,0.4152,0.6186,-0.2759
0.01,0.011,-0.003,0,0,0,1023,2018,4,26,14,48,6.792,-0.6072,0.4151,0.6186,-0.2758
0.01,0.006,0.003,-0.1,1.1,0,1023,2018,4,26,14,48,6.797,-0.6072,0.4153,0.6185,-0.2759
0.005,0.009,0.004,0,0.9,0,0,2018,4,26,14,48,6.814,-0.6074,0.4151,0.6185,-0.2759
0.008,0.007,0.004,0,0.7,-0.4,0,2018,4,26,14,48,6.837,-0.6073,0.4153,0.6183,-0.2762
0.006,0.014,0,0,0,0,0,2018,4,26,14,48,6.876,-0.6074,0.4152,0.6182,-0.2762
0.009,0.009,0.001,0,0,0,0,2018,4,26,14,48,6.895,-0.6075,0.4151,0.6183,-0.2761
0.006,0.005,0,0,0.5,0,0,2018,4,26,14,48,6.9,-0.6075,0.4151,0.6182,-0.2761
0.005,0.007,0.004,0,0,0,0,2018,4,26,14,48,6.92,-0.6076,0.415,0.6183,-0.276
0.008,0.004,0.004,0,0,0,0,2018,4,26,14,48,6.938,-0.6077,0.4148,0.6183,-0.2759
0.007,0.005,0.005,0.1,1.4,0.2,0,2018,4,26,14,48,6.954,-0.6078,0.4148,0.6182,-0.276
0.003,0.015,0.005,0.4,0.9,0,0,2018,4,26,14,48,6.992,-0.6079,0.4147,0.6181,-0.2761
0.002,0.014,0.006,-0.1,0.6,-0.1,0,2018,4,26,14,48,7.012,-0.6079,0.4148,0.618,-0.2763
0.008,0.015,0.008,-0.5,-0.8,-0.2,0,2018,4,26,14,48,7.016,-0.608,0.4148,0.618,-0.2762
0.007,0.007,0.002,-0.8,-1,0,0,2018,4,26,14,48,7.036,-0.6079,0.4151,0.6178,-0.2761
0.008,0.006,-0.003,-0.5,-0.3,0,0,2018,4,26,14,48,7.057,-0.6079,0.4154,0.6177,-0.2761
0.008,0.003,0.002,0,0,0,0,2018,4,26,14,48,7.077,-0.6078,0.4155,0.6177,-0.276
0.008,0.004,-0.004,0.3,2.1,0.1,0,2018,4,26,14,48,7.097,-0.6078,0.4156,0.6176,-0.2762
0.008,0.009,0,0.7,3.2,0.3,0,2018,4,26,14,48,7.137,-0.608,0.4152,0.6176,-0.2764
0.006,0.016,0.006,0.6,2.7,0.1,0,2018,4,26,14,48,7.158,-0.6081,0.4149,0.6175,-0.2768
0.006,0.016,0.007,0.5,1.8,0.5,1023,2018,4,26,14,48,7.162,-0.6082,0.4147,0.6173,-0.2771
0.006,0.011,0.005,0,0.7,0.6,1023,2018,4,26,14,48,7.179,-0.6084,0.4146,0.6172,-0.2772
0.008,0.007,0.003,-0.2,0.5,0.9,1023,2018,4,26,14,48,7.196,-0.6084,0.4147,0.6171,-0.2773
0.007,0.005,-0.001,-0.1,1.3,1.2,1023,2018,4,26,14,48,7.235,-0.6084,0.4147,0.617,-0.2773
0.004,0.01,-0.005,0,1.8,0.9,1023,2018,4,26,14,48,7.257,-0.6086,0.4145,0.617,-0.2774
0.004,0.014,0.001,0.1,1.4,0.5,1023,2018,4,26,14,48,7.261,-0.6086,0.4144,0.6169,-0.2775
0.009,0.011,0.002,0,0,0,1023,2018,4,26,14,48,7.279,-0.6088,0.4143,0.6169,-0.2775
0.01,0.009,0,0.1,0.1,0.5,1023,2018,4,26,14,48,7.319,-0.6089,0.4141,0.617,-0.2774
0.008,0.009,0,0,0.7,0.8,1023,2018,4,26,14,48,7.338,-0.6089,0.4142,0.6169,-0.2774
0.005,0.011,0.001,0,1.7,0.9,1023,2018,4,26,14,48,7.343,-0.609,0.414,0.6169,-0.2774
0.004,0.008,0,0,1.8,0.8,1023,2018,4,26,14,48,7.361,-0.6092,0.4138,0.6168,-0.2775
0.007,0.011,-0.003,0,1.7,0.9,1023,2018,4,26,14,48,7.38,-0.6093,0.4136,0.6167,-0.2777
0.007,0.008,0.002,-0.1,0.8,0.9,0,2018,4,26,14,48,7.401,-0.6096,0.4132,0.6168,-0.2775
0.006,0.01,0,0.1,1.1,0.9,0,2018,4,26,14,48,7.441,-0.6096,0.4133,0.6167,-0.2776
0.005,0.011,0.003,0.3,2,1.1,0,2018,4,26,14,48,7.461,-0.6097,0.4131,0.6167,-0.2777
0.004,0.01,0,0.1,2.3,1.2,0,2018,4,26,14,48,7.465,-0.6099,0.4128,0.6166,-0.2778
0.003,0.008,0.005,0,1.5,1.2,0,2018,4,26,14,48,7.48,-0.6101,0.4127,0.6165,-0.2779
0.007,0.011,0.004,0,1.4,1.1,0,2018,4,26,14,48,7.5,-0.6102,0.4126,0.6164,-0.278
0.006,0.012,0,-0.1,1.4,1.1,0,2018,4,26,14,48,7.52,-0.6103,0.4124,0.6164,-0.2781
0.005,0.011,0.006,0.1,1.2,1.2,0,2018,4,26,14,48,7.556,-0.6104,0.4123,0.6163,-0.2781
0.003,0.006,0.004,0.1,1.5,1.1,0,2018,4,26,14,48,7.576,-0.6106,0.4121,0.6163,-0.2782
0.001,0.012,0,0,1.5,0.9,0,2018,4,26,14,48,7.58,-0.6107,0.412,0.6162,-0.2783
0.002,0.01,0.003,0,0.8,0.8,0,2018,4,26,14,48,7.617,-0.6109,0.4117,0.6162,-0.2783
0.009,0.006,0.008,-0.2,0,0.8,0,2018,4,26,14,48,7.638,-0.6109,0.4119,0.6161,-0.2783
0.007,0.007,0.003,-0.4,0.3,0.9,0,2018,4,26,14,48,7.642,-0.6109,0.4119,0.616,-0.2782
0.007,0.008,0.003,-0.3,1.1,0.8,0,2018,4,26,14,48,7.681,-0.6111,0.4117,0.616,-0.2781
0.005,0.01,0,-0.2,1.7,0.8,0,2018,4,26,14,48,7.685,-0.6113,0.4116,0.6159,-0.2782
0.005,0.014,0,-0.1,1.1,0.5,0,2018,4,26,14,48,7.7,-0.6114,0.4115,0.6158,-0.2783
0.005,0.015,0.003,-0.1,0.7,0.4,0,2018,4,26,14,48,7.738,-0.6116,0.4113,0.6158,-0.2782
0.006,0.012,0.004,-0.2,0.9,0.5,0,2018,4,26,14,48,7.758,-0.6116,0.4115,0.6157,-0.2783
0.005,0.015,0.001,0,1.2,0.3,1023,2018,4,26,14,48,7.762,-0.6117,0.4114,0.6156,-0.2783
0.004,0.012,0.003,0.1,1.1,0,1023,2018,4,26,14,48,7.783,-0.6118,0.4113,0.6155,-0.2784
0.005,0.011,0.007,0,1.4,0.1,1023,2018,4,26,14,48,7.803,-0.6119,0.4113,0.6153,-0.2786
0.006,0.012,0.008,0.1,1.5,-0.1,1023,2018,4,26,14,48,7.824,-0.612,0.4112,0.6152,-0.2788
0.006,0.011,0.006,0.1,0.7,-0.2,1023,2018,4,26,14,48,7.843,-0.6121,0.4111,0.6151,-0.2789
0.003,0.014,0.003,0,-0.5,-0.7,1023,2018,4,26,14,48,7.863,-0.6121,0.4111,0.6151,-0.2789
0.003,0.013,0.01,-0.3,-0.5,-0.7,1023,2018,4,26,14,48,7.886,-0.6121,0.4113,0.615,-0.2789
0.004,0.014,0.001,-0.4,-0.7,-0.8,1023,2018,4,26,14,48,7.906,-0.6121,0.4116,0.6148,-0.2788
0.006,0.009,0.004,-0.7,-1,-0.6,1023,2018,4,26,14,48,7.926,-0.6121,0.4119,0.6147,-0.2788
0.007,0.008,-0.003,-0.5,-0.9,-0.5,1023,2018,4,26,14,48,7.946,-0.612,0.4123,0.6145,-0.2787
0.006,0.008,-0.001,-0.4,-0.8,-0.4,1023,2018,4,26,14,48,7.966,-0.6119,0.4126,0.6145,-0.2786
0.006,0.007,0.003,-0.1,-0.7,-0.6,1023,2018,4,26,14,48,7.984,-0.6119,0.4128,0.6144,-0.2785
0.007,0.008,0,0,0,0,1023,2018,4,26,14,48,8.02,-0.6118,0.413,0.6143,-0.2785
0.007,0.008,-0.001,0,0,0,0,2018,4,26,14,48,8.04,-0.6119,0.4129,0.6143,-0.2784
0.004,0.016,0.003,0,0,0,0,2018,4,26,14,48,8.044,-0.612,0.4128,0.6143,-0.2783
0.005,0.014,0.001,0,-0.9,-0.4,0,2018,4,26,14,48,8.063,-0.6121,0.4127,0.6143,-0.2781
0.007,0.006,0.003,0,-0.6,-0.4,0,2018,4,26,14,48,8.085,-0.6121,0.4129,0.6143,-0.2781
0.007,0.01,0.003,0,0,0,0,2018,4,26,14,48,8.121,-0.6122,0.4128,0.6143,-0.278
0.004,0.011,0.007,0,0,0,0,2018,4,26,14,48,8.141,-0.6123,0.4127,0.6143,-0.2779
0.008,0.01,0.005,0,0,0,0,2018,4,26,14,48,8.145,-0.6125,0.4125,0.6143,-0.2777
0.001,0.011,0.002,0,-0.7,-0.4,0,2018,4,26,14,48,8.186,-0.6126,0.4124,0.6144,-0.2776
0.004,0.008,0.002,-0.2,-1.3,-0.7,0,2018,4,26,14,48,8.206,-0.6124,0.4128,0.6143,-0.2775
0.007,0.011,0,-0.1,-1.4,-0.5,0,2018,4,26,14,48,8.21,-0.6123,0.4132,0.6142,-0.2774
0.006,0.011,0,-0.4,-1.2,-0.4,0,2018,4,26,14,48,8.225,-0.6122,0.4135,0.6141,-0.2773
0.008,0.003,0,-0.1,0,-0.5,0,2018,4,26,14,48,8.264,-0.6121,0.4137,0.614,-0.2773
0.007,0.011,0.002,-0.2,-0.2,-0.5,0,2018,4,26,14,48,8.283,-0.6122,0.4137,0.6141,-0.2772
0.006,0.012,0,-0.1,-0.4,-0.5,0,2018,4,26,14,48,8.287,-0.6122,0.4137,0.614,-0.2771
0.006,0.016,0.002,-0.1,-1.1,-0.5,0,2018,4,26,14,48,8.325,-0.6122,0.4139,0.614,-0.277
0.007,0.009,0.005,0,-1.2,-0.5,0,2018,4,26,14,48,8.346,-0.612,0.4143,0.6139,-0.277
0.007,0.012,0.003,0,-0.8,-0.4,0,2018,4,26,14,48,8.35,-0.6119,0.4147,0.6138,-0.277
0.009,0.01,0,0,0,0,1023,2018,4,26,14,48,8.371,-0.6118,0.4149,0.6137,-0.277
0.007,0.014,0,0,0,0,1023,2018,4,26,14,48,8.39,-0.6118,0.4149,0.6137,-0.2769
0.007,0.009,0.001,0.1,-0.4,-0.5,1023,2018,4,26,14,48,8.41,-0.612,0.4148,0.6138,-0.2767
0.006,0.009,0,0.1,-0.2,-0.5,1023,2018,4,26,14,48,8.429,-0.612,0.4148,0.6138,-0.2767
0.008,0.007,0.006,0.2,-0.2,-0.7,1023,2018,4,26,14,48,8.446,-0.6119,0.415,0.6137,-0.2768
0.007,0.011,0.005,0,-0.1,-0.6,1023,2018,4,26,14,48,8.465,-0.6118,0.4152,0.6136,-0.2769
0.005,0.01,0.003,0,-0.4,-0.5,1023,2018,4,26,14,48,8.506,-0.6118,0.4152,0.6135,-0.2768
0.005,0.01,0.001,-0.3,-0.7,-0.5,1023,2018,4,26,14,48,8.525,-0.6118,0.4154,0.6134,-0.2768
0.005,0.009,0.003,-0.2,-1.4,-0.5,1023,2018,4,26,14,48,8.529,-0.6117,0.4158,0.6133,-0.2768
0.009,0.007,0.006,0,-1.4,-0.4,1023,2018,4,26,14,48,8.566,-0.6116,0.4161,0.6133,-0.2766
0.01,0.007,0,0.1,-0.6,-0.4,1023,2018,4,26,14,48,8.586,-0.6114,0.4164,0.6133,-0.2766
0.007,0.009,0,0,0,0,1023,2018,4,26,14,48,8.591,-0.6115,0.4163,0.6133,-0.2764
0.005,0.01,0.001,0,0,0,1023,2018,4,26,14,48,8.609,-0.6116,0.4161,0.6134,-0.2762
0.008,0.009,0,0,0,0,1023,2018,4,26,14,48,8.648,-0.6118,0.4159,0.6135,-0.2761
0.007,0.01,0.002,0,0,0,1023,2018,4,26,14,48,8.669,-0.6119,0.4157,0.6135,-0.2759
0.009,0.011,-0.001,0.3,-1,-0.2,0,2018,4,26,14,48,8.673,-0.6118,0.4159,0.6135,-0.2759
0.008,0.007,-0.007,0,0,0,0,2018,4,26,14,48,8.691,-0.6117,0.416,0.6136,-0.2758
0.007,0.005,0,0,0,0,0,2018,4,26,14,48,8.712,-0.6118,0.4159,0.6136,-0.2757
0.006,0.006,0.004,0.1,0.6,-0.1,0,2018,4,26,14,48,8.732,-0.6118,0.416,0.6135,-0.2758
0.008,0.01,0,0,0,0,0,2018,4,26,14,48,8.768,-0.612,0.4158,0.6136,-0.2757
0.006,0.007,0.007,0,0,0,0,2018,4,26,14,48,8.788,-0.6121,0.4156,0.6136,-0.2755
0.001,0.011,0.005,0,0,0,0,2018,4,26,14,48,8.793,-0.6123,0.4154,0.6137,-0.2754
0.004,0.01,0.001,0,0,0,0,2018,4,26,14,48,8.811,-0.6124,0.4152,0.6137,-0.2752
0.006,0.011,0.004,0,0,0,0,2018,4,26,14,48,8.831,-0.6126,0.415,0.6138,-0.275
0.006,0.008,-0.001,-0.2,-1.3,0,0,2018,4,26,14,48,8.851,-0.6125,0.4152,0.6137,-0.2749
0.008,0.011,-0.003,-0.1,-1,-0.1,0,2018,4,26,14,48,8.872,-0.6124,0.4156,0.6137,-0.2748
0.009,0.01,0,0,0,0,0,2018,4,26,14,48,8.91,-0.6123,0.4158,0.6136,-0.2748
0.009,0.009,-0.002,0.1,0.5,0.1,0,2018,4,26,14,48,8.931,-0.6124,0.4157,0.6136,-0.2747
0.01,0.008,0.002,0.3,0.7,0,0,2018,4,26,14,48,8.936,-0.6123,0.4158,0.6136,-0.2748
0.005,0.009,0,0.3,1.2,0,0,2018,4,26,14,48,8.951,-0.6124,0.4157,0.6135,-0.2749
0.006,0.012,0.004,0,0,0,0,2018,4,26,14,48,8.988,-0.6126,0.4155,0.6135,-0.2749
0.004,0.009,0.003,0,0,0,1023,2018,4,26,14,48,9.008,-0.6127,0.4153,0.6136,-0.2747
0.006,0.011,0.001,0,0.6,-0.1,1023,2018,4,26,14,48,9.012,-0.6127,0.4153,0.6135,-0.2748
0.009,0.009,0.004,0.1,0.7,-0.2,1023,2018,4,26,14,48,9.051,-0.6129,0.4151,0.6135,-0.2748
0.004,0.013,0,0,0,0,1023,2018,4,26,14,48,9.069,-0.6128,0.4152,0.6134,-0.2749
0.006,0.01,0.006,0,0,0,1023,2018,4,26,14,48,9.074,-0.613,0.4151,0.6134,-0.2748
0.005,0.008,0.003,0,0,0,1023,2018,4,26,14,48,9.095,-0.6129,0.4152,0.6134,-0.2748
0.008,0.011,0,0,0,0,1023,2018,4,26,14,48,9.114,-0.613,0.4151,0.6134,-0.2747
0.009,0.011,-0.004,0,0,0,1023,2018,4,26,14,48,9.152,-0.6131,0.4149,0.6135,-0.2745
0.006,0.009,0,0,0,0,1023,2018,4,26,14,48,9.171,-0.6132,0.4148,0.6135,-0.2744
0.01,0.006,0,0,0,0,1023,2018,4,26,14,48,9.175,-0.6132,0.4149,0.6135,-0.2744
0.008,0.015,0.004,0,0,0,1023,2018,4,26,14,48,9.215,-0.6134,0.4147,0.6135,-0.2743
0.01,0.013,0,0,0,0,0,2018,4,26,14,48,9.234,-0.6135,0.4146,0.6135,-0.2742
0.01,0.009,-0.004,0,0,0,0,2018,4,26,14,48,9.238,-0.6136,0.4144,0.6136,-0.274
0.006,0.008,0.004,0,0.6,0.2,0,2018,4,26,14,48,9.252,-0.6136,0.4144,0.6135,-0.274
0.005,0.01,0.001,-0.1,0.9,0,0,2018,4,26,14,48,9.292,-0.6137,0.4145,0.6134,-0.2742
0.006,0.006,0,0,0,0,0,2018,4,26,14,48,9.313,-0.6137,0.4145,0.6133,-0.2743
0.006,-0.05,-0.006,-1.5,-5.7,-1.9,0,2018,4,26,14,48,9.317,-0.6135,0.415,0.6132,-0.2742
-0.042,-0.094,0.079,-5.2,-28.7,-8,0,2018,4,26,14,48,9.337,-0.6127,0.4173,0.6128,-0.2733
-0.098,-0.112,0.072,-19.7,-61.7,-21.4,0,2018,4,26,14,48,9.357,-0.6103,0.4242,0.6123,-0.2691
-0.087,-0.204,0.12,-28.7,-94.5,-41,0,2018,4,26,14,48,9.375,-0.6065,0.4365,0.6104,-0.2623
-0.07,-0.657,0.245,-33.7,-130.1,-69.1,0,2018,4,26,14,48,9.413,-0.5982,0.4561,0.608,-0.2535
-0.077,-0.843,0.169,-39.9,-107.4,-113.5,0,2018,4,26,14,48,9.434,-0.5879,0.4804,0.6019,-0.2473
-0.136,-0.694,0.075,-48.9,-80.5,-164.1,0,2018,4,26,14,48,9.438,-0.5786,0.5066,0.5888,-0.2486
0.001,-0.638,0.185,-43.2,-79.1,-192.1,0,2018,4,26,14,48,9.452,-0.568,0.5351,0.571,-0.2547
0.049,-0.531,0.202,-33,-82.3,-197,0,2018,4,26,14,48,9.492,-0.5548,0.5642,0.552,-0.2625
0.003,-0.424,0.028,-24.9,-80,-196.5,0,2018,4,26,14,48,9.512,-0.5399,0.5922,0.5331,-0.2708
-0.071,-0.363,-0.024,-18.8,-76,-202.4,0,2018,4,26,14,48,9.516,-0.5243,0.6186,0.5135,-0.2803
-0.096,-0.37,0.003,-11.7,-64.5,-211.5,0,2018,4,26,14,48,9.535,-0.5081,0.6436,0.4926,-0.2911
-0.174,-0.334,0.018,-8.5,-40.5,-218.5,0,2018,4,26,14,48,9.555,-0.4922,0.6664,0.4698,-0.3045
-0.245,-0.115,-0.073,-5.7,-27.4,-220.7,1023,2018,4,26,14,48,9.593,-0.4769,0.6872,0.4447,-0.3199
-0.278,0.019,-0.139,-1.3,-40.2,-222.1,1023,2018,4,26,14,48,9.614,-0.4604,0.7069,0.4194,-0.3351
-0.306,0.108,-0.063,0.9,-51.7,-217.9,1023,2018,4,26,14,48,9.618,-0.4414,0.7262,0.3946,-0.3492
-0.289,0.167,-0.122,8,-54.6,-208.8,1023,2018,4,26,14,48,9.657,-0.4209,0.7442,0.3709,-0.3622
-0.287,0.226,-0.095,16.8,-40.9,-192.7,1023,2018,4,26,14,48,9.676,-0.4007,0.7595,0.3487,-0.3752
-0.275,0.328,-0.003,20.9,-30.2,-171.6,1023,2018,4,26,14,48,9.68,-0.3828,0.7714,0.328,-0.3882
-0.28,0.39,-0.026,21.6,-25.9,-151.5,1023,2018,4,26,14,48,9.699,-0.3669,0.7806,0.3094,-0.4002
-0.271,0.413,0.08,19.5,-20.9,-132.2,1023,2018,4,26,14,48,9.719,-0.3525,0.788,0.2931,-0.4107
-0.26,0.39,0.102,12.5,-19.4,-114.9,1023,2018,4,26,14,48,9.737,-0.3399,0.7942,0.2786,-0.4193
-0.272,0.394,0.13,5.2,-12.6,-95.7,1023,2018,4,26,14,48,9.757,-0.3295,0.7996,0.2656,-0.4259
-0.267,0.347,0.118,4.2,-9.4,-76.6,1023,2018,4,26,14,48,9.794,-0.3215,0.8037,0.2547,-0.4308
-0.278,0.356,0.112,-0.9,-11.4,-65.5,1023,2018,4,26,14,48,9.814,-0.3147,0.8072,0.2457,-0.4346
-0.264,0.314,0.041,-9.3,-10.7,-60.1,1023,2018,4,26,14,48,9.818,-0.3085,0.8109,0.2374,-0.4367
-0.245,0.291,0,-14,-3.8,-52.5,0,2018,4,26,14,48,9.858,-0.3036,0.8146,0.2294,-0.4376
-0.219,0.315,-0.02,-15,0.8,-44.6,0,2018,4,26,14,48,9.877,-0.3004,0.8176,0.2218,-0.438
-0.18,0.341,-0.067,-19.4,-6.7,-41.9,0,2018,4,26,14,48,9.882,-0.2975,0.8206,0.2149,-0.4379
-0.132,0.334,-0.141,-26.5,-23.2,-39.6,0,2018,4,26,14,48,9.902,-0.2931,0.8247,0.209,-0.4361
-0.094,0.336,-0.193,-23.5,-39.4,-29.2,0,2018,4,26,14,48,9.921,-0.2868,0.8295,0.2051,-0.4329
-0.024,0.321,-0.241,-12.6,-46.1,-15.4,0,2018,4,26,14,48,9.942,-0.2793,0.8338,0.2043,-0.4299
0.028,0.34,-0.282,-6.7,-39.3,-6.3,0,2018,4,26,14,48,9.962,-0.2725,0.837,0.2057,-0.4275
0.046,0.416,-0.35,-7.4,-38.4,-1.8,0,2018,4,26,14,48,9.978,-0.2671,0.8394,0.2076,-0.4253
-0.009,0.432,-0.437,-8.5,-53.8,5.2,0,2018,4,26,14,48,9.999,-0.2607,0.8421,0.2107,-0.4223
-0.122,0.581,-0.679,-2.4,-73.2,20.9,0,2018,4,26,14,48,10.02,-0.2525,0.8449,0.2169,-0.4185
-0.238,0.707,-0.935,22.4,-76.9,49.1,0,2018,4,26,14,48,10.058,-0.2432,0.8463,0.2281,-0.4152
-0.396,0.926,-1.195,53.1,-81,81.1,0,2018,4,26,14,48,10.079,-0.2351,0.8439,0.245,-0.4151
-0.604,1.048,-1.575,86.9,-99.6,110,0,2018,4,26,14,48,10.083,-0.226,0.8378,0.2684,-0.418
-0.727,1.192,-1.873,107.7,-145,139.7,0,2018,4,26,14,48,10.101,-0.2128,0.829,0.2993,-0.4216
-0.88,1.032,-2.068,133.6,-214.3,180.9,0,2018,4,26,14,48,10.138,-0.1918,0.8178,0.3399,-0.4228
-0.999,0.779,-1.956,191.9,-261.5,232.3,0,2018,4,26,14,48,10.159,-0.1624,0.8,0.3922,-0.4238
-1.29,0.349,-1.825,254.5,-253.5,288.3,0,2018,4,26,14,48,10.163,-0.1294,0.7706,0.4532,-0.4289
-1.67,-0.509,-1.273,339.2,-217.4,355.9,1023,2018,4,26,14,48,10.179,-0.0977,0.7253,0.5192,-0.4413
-2.016,-1.702,-0.396,426.7,-147.7,412,1023,2018,4,26,14,48,10.199,-0.0687,0.6595,0.5866,-0.4648
-2.412,-2.741,0.686,446,-47.5,387.7,1023,2018,4,26,14,48,10.219,-0.0443,0.5795,0.6429,-0.4988
-5.212,8.229,-1.895,-316.9,126.5,-86.8,1023,2018,4,26,14,48,10.258,-0.06,0.5323,0.6668,-0.5179
-0.013,-3.586,2.827,-172.1,-23.4,-62,1023,2018,4,26,14,48,10.279,-0.0459,0.5524,0.6647,-0.5007
-0.299,-0.374,0.299,-9.2,121.3,-84.3,1023,2018,4,26,14,48,10.284,-0.0606,0.5655,0.6487,-0.5055
-0.237,-0.919,0.038,-9.1,-8.4,-91.9,1023,2018,4,26,14,48,10.303,-0.0558,0.5762,0.6356,-0.5106
-0.36,-0.045,0.835,-44.9,111.4,-71.2,1023,2018,4,26,14,48,10.324,-0.0577,0.5867,0.6226,-0.5145
-0.336,-0.554,0.279,-69,144.8,-99.1,1023,2018,4,26,14,48,10.343,-0.0683,0.5995,0.6019,-0.523
-0.484,0.041,0.268,-100,198.4,-94.7,1023,2018,4,26,14,48,10.362,-0.0871,0.6151,0.5739,-0.5334
-0.507,0.029,-0.05,-124.7,182.7,-93.7,1023,2018,4,26,14,48,10.384,-0.1102,0.6318,0.5433,-0.5416
-0.373,0.142,-0.288,-141,140.7,-84.3,1023,2018,4,26,14,48,10.404,-0.1323,0.6493,0.5148,-0.5437
-0.301,0.23,-0.436,-150.9,102.1,-79.6,1023,2018,4,26,14,48,10.425,-0.1507,0.6675,0.4905,-0.5394
-0.305,0.311,-0.456,-153.7,96.3,-75.9,0,2018,4,26,14,48,10.445,-0.1679,0.6856,0.468,-0.5316
-0.318,0.294,-0.403,-150.8,95,-73.5,0,2018,4,26,14,48,10.464,-0.1845,0.7028,0.4451,-0.5232
-0.29,0.292,-0.395,-147.2,96.8,-63.9,0,2018,4,26,14,48,10.481,-0.2014,0.7182,0.4229,-0.5143
-0.228,0.326,-0.386,-144,99.2,-47.1,0,2018,4,26,14,48,10.5,-0.2194,0.7316,0.4018,-0.505
-0.207,0.387,-0.37,-139.1,89.8,-27.6,0,2018,4,26,14,48,10.523,-0.2381,0.7427,0.3831,-0.4947
-0.175,0.396,-0.433,-131.1,71.6,-11.6,0,2018,4,26,14,48,10.56,-0.2559,0.752,0.3679,-0.4832
-0.164,0.317,-0.472,-125.8,57.2,1.2,0,2018,4,26,14,48,10.58,-0.2719,0.76,0.3562,-0.4706
-0.139,0.274,-0.461,-115.8,44.8,11.6,0,2018,4,26,14,48,10.584,-0.2867,0.767,0.347,-0.4571
-0.078,0.267,-0.46,-95.7,42,23.4,0,2018,4,26,14,48,10.624,-0.3001,0.7721,0.3406,-0.4446
0,0.3,-0.447,-72.3,45.9,35.4,0,2018,4,26,14,48,10.642,-0.3132,0.7744,0.3368,-0.4343
0.064,0.302,-0.373,-57.4,54.5,49.7,0,2018,4,26,14,48,10.647,-0.327,0.7738,0.3353,-0.4263
0.081,0.332,-0.308,-50.1,59.5,64.3,0,2018,4,26,14,48,10.685,-0.3421,0.771,0.3357,-0.4191
0.048,0.389,-0.265,-44.8,51.8,79.3,0,2018,4,26,14,48,10.705,-0.3578,0.7667,0.3383,-0.4117
0.007,0.413,-0.336,-32.6,39.1,95.6,0,2018,4,26,14,48,10.709,-0.3723,0.7614,0.3445,-0.4036
-0.038,0.36,-0.335,-24.1,30.6,109.5,0,2018,4,26,14,48,10.725,-0.3857,0.7548,0.3539,-0.3951
-0.042,0.319,-0.199,-17.1,32.3,125.3,0,2018,4,26,14,48,10.745,-0.3989,0.7467,0.3658,-0.3863
-0.065,0.366,-0.123,-7.5,48.4,144.2,1023,2018,4,26,14,48,10.765,-0.4139,0.736,0.3797,-0.3777
-0.087,0.438,-0.156,8.5,72.3,169.2,1023,2018,4,26,14,48,10.804,-0.4319,0.7209,0.3957,-0.3702
-0.091,0.302,-0.128,30.6,95.1,192.5,1023,2018,4,26,14,48,10.822,-0.4526,0.7001,0.4144,-0.3647
-0.146,0.254,-0.239,37.1,84.9,200.8,1023,2018,4,26,14,48,10.827,-0.4737,0.6756,0.4352,-0.3599
-0.249,0.279,-0.217,33.9,42.6,203.6,1023,2018,4,26,14,48,10.847,-0.4909,0.6523,0.4578,-0.3519
-0.272,0.213,-0.16,36.1,23.6,209.8,1023,2018,4,26,14,48,10.866,-0.5038,0.6307,0.4822,-0.3401
-0.216,-0.114,0.158,43.8,47,214.5,1023,2018,4,26,14,48,10.904,-0.5161,0.6071,0.5069,-0.3284
-0.176,-0.252,0.136,39.5,74,205.9,1023,2018,4,26,14,48,10.923,-0.5311,0.5794,0.5291,-0.3197
-0.298,-0.15,-0.196,24.8,51.2,167.5,1023,2018,4,26,14,48,10.927,-0.5565,0.5296,0.5648,-0.3009
-0.156,-0.504,0.273,23,74.2,149.7,1023,2018,4,26,14,48,10.967,-0.568,0.5064,0.5784,-0.2936
-0.096,-0.302,0.359,18.1,101.9,136.2,1023,2018,4,26,14,48,10.973,-0.581,0.4817,0.5882,-0.2903
-0.081,-0.146,0.32,13.1,103.7,126.6,1023,2018,4,26,14,48,10.987,-0.5946,0.4567,0.5952,-0.2889
-0.109,0.067,0.17,8,88.7,126.5,1023,2018,4,26,14,48,11.024,-0.6071,0.4332,0.6011,-0.2868
-0.201,0.078,0.104,5.9,79.7,138.3,1023,2018,4,26,14,48,11.045,-0.6189,0.4105,0.6073,-0.282
0.423,-3.634,0.165,-21.3,29.3,53.1,0,2018,4,26,14,48,11.047,-0.6294,0.3917,0.6119,-0.2753
-0.434,-0.457,0.04,27.7,132.7,-43,0,2018,4,26,14,48,11.067,-0.632,0.3851,0.609,-0.2851
0.067,0.416,0.086,17.5,94.4,-25.7,0,2018,4,26,14,48,11.086,-0.6369,0.3736,0.6024,-0.303
0.054,0.363,0.127,32.1,42.6,-5.4,0,2018,4,26,14,48,11.122,-0.6374,0.3669,0.6006,-0.3133
0.028,0.355,0.033,41.7,35,27.1,0,2018,4,26,14,48,11.143,-0.6364,0.3598,0.6035,-0.318
-0.007,0.311,0.028,40.6,31.4,39.4,0,2018,4,26,14,48,11.145,-0.636,0.3499,0.6084,-0.3205
-0.059,0.033,0.048,29.1,17.8,26.1,0,2018,4,26,14,48,11.186,-0.6358,0.3415,0.613,-0.3211
-0.09,-0.101,0.013,13.7,14.5,-0.2,0,2018,4,26,14,48,11.207,-0.6356,0.3367,0.6152,-0.3225
-0.057,0.001,-0.021,-4.5,-7,-15.8,0,2018,4,26,14,48,11.209,-0.6349,0.3369,0.6149,-0.3241
0.022,0.09,-0.078,-16.8,-28.8,-14.1,0,2018,4,26,14,48,11.224,-0.634,0.3413,0.6143,-0.3225
0.033,0.101,-0.069,-21.4,-34.9,-10.4,0,2018,4,26,14,48,11.262,-0.6331,0.3474,0.6139,-0.3185
0.04,0.028,-0.054,-21.8,-31.2,-8.6,0,2018,4,26,14,48,11.283,-0.6327,0.3532,0.6133,-0.3141
0.032,-0.072,-0.043,-20.8,-24.9,-12.1,0,2018,4,26,14,48,11.285,-0.6323,0.359,0.6119,-0.311
0.035,-0.071,-0.032,-18.6,-14.3,-14.9,0,2018,4,26,14,48,11.321,-0.632,0.3642,0.6099,-0.3093
0.045,-0.022,-0.025,-13.9,-5.1,-13.2,0,2018,4,26,14,48,11.344,-0.6321,0.368,0.6076,-0.3092
0.037,-0.038,0.007,-8,1.9,-7.1,0,2018,4,26,14,48,11.346,-0.6325,0.37,0.6058,-0.3096
0.019,-0.059,0.038,-1.7,12.6,-1.3,1023,2018,4,26,14,48,11.386,-0.6334,0.37,0.6043,-0.3107
0.009,-0.032,0.038,3.7,22.4,1.8,1023,2018,4,26,14,48,11.406,-0.6347,0.3679,0.6031,-0.3129
-0.001,0.032,0.029,6.7,17.4,2.2,1023,2018,4,26,14,48,11.408,-0.6359,0.3648,0.6025,-0.3152
0.006,0.03,0.016,8.1,12.5,3.5,1023,2018,4,26,14,48,11.447,-0.6364,0.3622,0.6027,-0.3168
0.02,0.023,-0.005,8.4,13.6,5,1023,2018,4,26,14,48,11.468,-0.6367,0.3597,0.6032,-0.318
0.024,0.013,-0.019,7.6,16.5,6.1,1023,2018,4,26,14,48,11.472,-0.6371,0.3571,0.6036,-0.3195
0.018,0.016,-0.017,6.8,13.6,6.2,1023,2018,4,26,14,48,11.491,-0.6375,0.3544,0.6041,-0.3208
0.011,0.005,-0.014,5.2,12.8,5.3,1023,2018,4,26,14,48,11.51,-0.638,0.3519,0.6045,-0.3217
0.006,0.021,-0.019,3.1,13.3,4,1023,2018,4,26,14,48,11.531,-0.6386,0.3496,0.6047,-0.3226
0.004,0.031,-0.018,0.7,12.3,2.7,1023,2018,4,26,14,48,11.551,-0.6394,0.3476,0.6045,-0.3235
0.004,0.025,-0.015,-1.2,8.3,0.9,1023,2018,4,26,14,48,11.571,-0.6402,0.3461,0.6042,-0.3241
0.005,0.016,-0.015,-2.4,4,-0.4,1023,2018,4,26,14,48,11.591,-0.6409,0.3454,0.6039,-0.3243
0.001,0,-0.01,-2.8,1,-1.9,0,2018,4,26,14,48,11.631,-0.6412,0.3454,0.6034,-0.3244
-0.007,-0.003,-0.005,-2.3,1.4,-2.5,0,2018,4,26,14,48,11.65,-0.6415,0.3456,0.603,-0.3245
-0.005,0.003,0.001,-1.3,3.6,-2.9,0,2018,4,26,14,48,11.654,-0.6418,0.3455,0.6026,-0.3248
-0.002,0.008,0.011,0.2,5.1,-2.4,0,2018,4,26,14,48,11.692,-0.642,0.3452,0.6021,-0.3254
0.004,0.011,0.02,2,8.2,-1.4,0,2018,4,26,14,48,11.713,-0.6424,0.3445,0.6017,-0.3263
0.008,0.016,0.013,3,10.6,-0.4,0,2018,4,26,14,48,11.716,-0.6429,0.343,0.6013,-0.3275
0.001,0.025,0.015,2.6,8.2,0,0,2018,4,26,14,48,11.732,-0.6434,0.3414,0.6011,-0.3286
0,0.014,0.017,1.6,4,0.2,0,2018,4,26,14,48,11.768,-0.6437,0.3404,0.601,-0.3292
0.008,0.012,0.002,0.6,1.1,0.1,0,2018,4,26,14,48,11.77,-0.6438,0.3401,0.6009,-0.3295
0.014,0.021,-0.001,0,0,0,0,2018,4,26,14,48,11.806,-0.644,0.3399,0.6009,-0.3294
0.017,0.017,-0.006,-0.8,-1.1,-0.1,0,2018,4,26,14,48,11.826,-0.644,0.34,0.6009,-0.3293
0.011,0.005,-0.011,-1.4,-1.2,-0.2,0,2018,4,26,14,48,11.83,-0.644,0.3403,0.6008,-0.3291
0.011,0,-0.01,-1.6,-1.5,-0.7,0,2018,4,26,14,48,11.867,-0.644,0.3407,0.6007,-0.3288
0.008,-0.006,-0.012,-1.6,-1.5,-1,0,2018,4,26,14,48,11.888,-0.644,0.3411,0.6007,-0.3286
0.013,-0.001,-0.017,-0.7,0.1,-1.1,0,2018,4,26,14,48,11.892,-0.6439,0.3416,0.6005,-0.3286
0.017,0.011,-0.014,0.1,1.5,-0.8,0,2018,4,26,14,48,11.929,-0.6438,0.3417,0.6004,-0.3287
0.011,0.011,-0.001,0.8,3.4,-0.2,0,2018,4,26,14,48,11.952,-0.6439,0.3413,0.6004,-0.329
0.005,0.005,0.001,0.9,6.3,0.3,0,2018,4,26,14,48,11.956,-0.6442,0.3406,0.6002,-0.3294
0.001,0.014,0,1.1,7.3,0.8,1023,2018,4,26,14,48,11.974,-0.6445,0.3397,0.6,-0.3301
0.005,0.017,0.007,1.3,4.7,0.4,1023,2018,4,26,14,48,11.993,-0.6449,0.3388,0.5998,-0.3307
0.005,0.012,0.003,1.3,3.2,0.3,1023,2018,4,26,14,48,12.013,-0.6451,0.3381,0.5999,-0.3309
0.006,0.024,0.005,1.2,3.1,0.3,1023,2018,4,26,14,48,12.033,-0.6452,0.3376,0.5998,-0.3313
0.003,0.017,0.002,0.6,2.6,0,1023,2018,4,26,14,48,12.072,-0.6454,0.3372,0.5997,-0.3316
0.002,0.017,0.009,0,0.4,-0.5,1023,2018,4,26,14,48,12.095,-0.6456,0.3368,0.5996,-0.3316
0.004,0.008,0.002,-0.5,-2,-0.8,1023,2018,4,26,14,48,12.098,-0.6456,0.337,0.5996,-0.3316
0.008,0.007,-0.001,-0.7,-4.1,-1.4,1023,2018,4,26,14,48,12.117,-0.6455,0.3375,0.5996,-0.3313
0.009,0.01,0,-0.4,-4.2,-1.6,1023,2018,4,26,14,48,12.155,-0.6452,0.3383,0.5996,-0.331
0.008,0.009,-0.002,-0.2,-2.7,-1.5,1023,2018,4,26,14,48,12.175,-0.6449,0.3391,0.5996,-0.3309
0.006,0.005,-0.003,0,-1.3,-1.2,1023,2018,4,26,14,48,12.179,-0.6447,0.3395,0.5996,-0.3307
0.005,0,-0.001,0.1,-0.3,-0.7,1023,2018,4,26,14,48,12.2,-0.6446,0.3397,0.5996,-0.3307
0.006,0.003,-0.009,0.6,0.3,-0.5,0,2018,4,26,14,48,12.22,-0.6445,0.3398,0.5996,-0.3308
0.009,0.015,0.005,0.6,-1.3,-0.6,0,2018,4,26,14,48,12.24,-0.6444,0.3399,0.5997,-0.3307
0.008,0.012,0.002,0.6,-0.4,0,0,2018,4,26,14,48,12.257,-0.6443,0.3399,0.5999,-0.3306
0.009,0.007,-0.001,0.6,1.5,0.3,0,2018,4,26,14,48,12.277,-0.6444,0.3396,0.6,-0.3306
0.007,0.003,-0.009,0.8,3.1,0.5,0,2018,4,26,14,48,12.297,-0.6444,0.3393,0.6,-0.3308
0.008,0.011,-0.006,1,1.8,0,0,2018,4,26,14,48,12.317,-0.6445,0.339,0.6,-0.331
0.01,0.011,0,1,1.7,0.2,0,2018,4,26,14,48,12.336,-0.6445,0.3388,0.6,-0.3312
0.008,0.012,0.002,0.6,2.1,0.5,0,2018,4,26,14,48,12.358,-0.6446,0.3385,0.6,-0.3314
0.008,0.011,0.01,0.5,1.5,0.6,0,2018,4,26,14,48,12.378,-0.6447,0.3381,0.5999,-0.3315
0.005,0.008,0,0.3,0.5,0.5,0,2018,4,26,14,48,12.398,-0.6449,0.3378,0.6,-0.3315
0.002,0.008,-0.006,0.2,-0.6,0.1,0,2018,4,26,14,48,12.419,-0.6449,0.3377,0.6,-0.3313
0.001,0.002,-0.005,0,-1.4,-0.1,0,2018,4,26,14,48,12.438,-0.6449,0.3379,0.6001,-0.3312
0.008,0.003,-0.006,0,-0.5,0.2,0,2018,4,26,14,48,12.456,-0.6448,0.3379,0.6003,-0.3309
0.008,0.006,-0.006,0,0.9,0.4,0,2018,4,26,14,48,12.476,-0.6449,0.3378,0.6003,-0.3309
0.006,0.008,-0.002,0.1,2,0.8,0,2018,4,26,14,48,12.495,-0.645,0.3377,0.6002,-0.331
0.007,0.013,0,0.3,1.7,0.8,0,2018,4,26,14,48,12.516,-0.6451,0.3374,0.6002,-0.3311
0.009,0.014,0.002,0.3,1,0.8,0,2018,4,26,14,48,12.554,-0.6452,0.3372,0.6001,-0.3311
0.004,0.009,-0.001,0.3,0.8,1,0,2018,4,26,14,48,12.574,-0.6453,0.337,0.6001,-0.3311
0.001,0.004,0,0,1.5,1,1023,2018,4,26,14,48,12.577,-0.6454,0.3369,0.6001,-0.3311
0.003,0.007,-0.003,0,2.2,1.2,1023,2018,4,26,14,48,12.615,-0.6456,0.3366,0.6001,-0.3311
0.006,0.009,-0.003,0.4,2.1,0.6,1023,2018,4,26,14,48,12.634,-0.6457,0.3363,0.6,-0.3313
0.009,0.016,0,0.5,1,0.3,1023,2018,4,26,14,48,12.637,-0.6457,0.3363,0.5999,-0.3314
0.008,0.011,0.004,0.3,0.9,0.5,1023,2018,4,26,14,48,12.675,-0.6458,0.3361,0.5999,-0.3315
0.007,0.01,-0.005,0.1,1.7,0.6,1023,2018,4,26,14,48,12.695,-0.6459,0.336,0.5998,-0.3316
0.004,0.007,0.002,0.1,1.4,0.7,1023,2018,4,26,14,48,12.698,-0.6461,0.3357,0.5997,-0.3317
0.007,0.006,-0.001,0,1.4,0.6,1023,2018,4,26,14,48,12.736,-0.6462,0.3354,0.5997,-0.3317
0.009,0.01,-0.004,0.2,0.8,0.8,1023,2018,4,26,14,48,12.755,-0.6463,0.3353,0.5997,-0.3318
0.009,0.012,-0.004,0.1,0.8,0.7,1023,2018,4,26,14,48,12.758,-0.6464,0.3351,0.5997,-0.3317
0.01,0.011,-0.001,0.3,1.1,0.8,1023,2018,4,26,14,48,12.796,-0.6465,0.3348,0.5997,-0.3317
0.012,0.009,-0.005,0,1.7,0.8,1023,2018,4,26,14,48,12.817,-0.6467,0.3346,0.5997,-0.3317
0.008,0.013,-0.002,0,1.5,0.8,0,2018,4,26,14,48,12.821,-0.6468,0.3345,0.5995,-0.3318
0.009,0.015,0.001,-0.2,0.8,0.7,0,2018,4,26,14,48,12.859,-0.647,0.3341,0.5996,-0.3317
0.005,0.01,0.001,-0.1,0.2,0.5,0,2018,4,26,14,48,12.879,-0.6472,0.3339,0.5996,-0.3316
0.006,0.009,-0.002,0,0,0,0,2018,4,26,14,48,12.883,-0.6473,0.3337,0.5997,-0.3314
0.006,0.015,-0.004,0,0,0,0,2018,4,26,14,48,12.903,-0.6473,0.3336,0.5998,-0.3313
0.008,0.011,0,0,0,0,0,2018,4,26,14,48,12.924,-0.6474,0.3334,0.5998,-0.3312
0.006,0.014,0.002,0,0,0,0,2018,4,26,14,48,12.962,-0.6475,0.3333,0.5998,-0.3311
0.004,0.014,0.003,-0.1,0.6,-0.2,0,2018,4,26,14,48,12.966,-0.6475,0.3333,0.5998,-0.3312
0.006,0.011,0.002,0,0,0,0,2018,4,26,14,48,12.983,-0.6476,0.3332,0.5998,-0.3311
0.006,0.003,0.003,0,0,0,0,2018,4,26,14,48,13,-0.6477,0.333,0.5998,-0.331
0.007,0.008,0.001,0,0,0,0,2018,4,26,14,48,13.02,-0.6478,0.3329,0.5998,-0.3309
0.003,0.016,-0.002,0,0,0,0,2018,4,26,14,48,13.057,-0.6479,0.3328,0.5999,-0.3308
0.007,0.009,0.005,-0.6,-1.5,-0.4,0,2018,4,26,14,48,13.078,-0.6479,0.3329,0.5999,-0.3307
0.01,0.008,0,-0.7,-1.3,-0.4,0,2018,4,26,14,48,13.082,-0.6479,0.3333,0.5998,-0.3306
0.012,0.017,-0.006,-0.5,-1.6,-0.4,0,2018,4,26,14,48,13.122,-0.6478,0.3334,0.5998,-0.3304
0.013,0.008,-0.006,-0.4,-2.1,-0.4,0,2018,4,26,14,48,13.143,-0.6478,0.3338,0.5999,-0.3301
0.007,0.007,-0.007,0,0,0,0,2018,4,26,14,48,13.147,-0.6477,0.334,0.6,-0.3299
0.006,0.005,-0.008,0,1.4,0,1023,2018,4,26,14,48,13.165,-0.6478,0.3337,0.6,-0.3298
0.005,0.016,0.002,0,0.8,-0.5,1023,2018,4,26,14,48,13.185,-0.6478,0.3336,0.6,-0.3299
0.006,0.011,-0.002,0,0.4,-0.5,1023,2018,4,26,14,48,13.2,-0.6478,0.3336,0.5999,-0.33
0.008,0.015,0.002,0,0.2,-0.7,1023,2018,4,26,14,48,13.239,-0.6479,0.3336,0.5999,-0.33
0.009,0.008,0.004,-0.1,-0.4,-0.6,1023,2018,4,26,14,48,13.258,-0.6478,0.3338,0.5998,-0.3301
0.007,0.007,0.005,0,-0.1,-0.5,1023,2018,4,26,14,48,13.262,-0.6479,0.3339,0.5997,-0.3301
0.005,0.014,0.004,0,0,-0.6,1023,2018,4,26,14,48,13.303,-0.6478,0.3341,0.5995,-0.3302
0.004,0.005,0.002,-0.4,-0.5,-0.5,1023,2018,4,26,14,48,13.322,-0.6479,0.3342,0.5995,-0.3302
0.009,0.008,0.001,-0.4,-0.9,-0.5,1023,2018,4,26,14,48,13.326,-0.6479,0.3343,0.5995,-0.3301
0.008,0.011,0.003,-0.1,-1.8,-0.7,1023,2018,4,26,14,48,13.344,-0.6477,0.3347,0.5994,-0.3301
0.01,0.01,-0.003,-0.2,-0.7,-0.6,1023,2018,4,26,14,48,13.367,-0.6476,0.3352,0.5993,-0.3301
0.009,0.009,-0.01,0,0,0,1023,2018,4,26,14,48,13.385,-0.6476,0.3352,0.5993,-0.3301
0.007,0.007,0,0,0,0,1023,2018,4,26,14,48,13.406,-0.6476,0.3351,0.5993,-0.33
0.008,0.009,-0.002,-0.2,0.7,-0.2,0,2018,4,26,14,48,13.445,-0.6476,0.3352,0.5992,-0.3301
0.006,0.006,-0.001,-0.3,1.2,0,0,2018,4,26,14,48,13.465,-0.6476,0.3354,0.599,-0.3303
0.011,0.011,0,0.1,1.3,-0.1,0,2018,4,26,14,48,13.469,-0.6477,0.3353,0.5989,-0.3305
0.009,0.014,0.001,0,0,0,0,2018,4,26,14,48,13.485,-0.6478,0.3352,0.5988,-0.3305
0.009,0.013,0.002,0,-0.6,-0.3,0,2018,4,26,14,48,13.522,-0.6478,0.3352,0.5989,-0.3304
0.008,0.012,-0.004,0,0,0,0,2018,4,26,14,48,13.542,-0.6478,0.3353,0.5989,-0.3303
0.008,0.009,0.001,-0.1,-1.2,0,0,2018,4,26,14,48,13.546,-0.6478,0.3354,0.5989,-0.3302
0.006,0.006,-0.004,0,-1,0,0,2018,4,26,14,48,13.584,-0.6477,0.3357,0.5989,-0.3301
0.009,0.011,-0.001,0,0,0,0,2018,4,26,14,48,13.605,-0.6477,0.3356,0.5989,-0.3299
0.007,0.009,0.003,0.3,0.6,0,0,2018,4,26,14,48,13.609,-0.6478,0.3355,0.599,-0.3299
0.006,0.008,0,0.3,0.7,0,0,2018,4,26,14,48,13.629,-0.6479,0.3353,0.599,-0.3299
0.003,0.012,0.005,0,0,0,0,2018,4,26,14,48,13.649,-0.6479,0.3354,0.5989,-0.33
0.01,0.007,0,-0.1,-0.5,-0.1,0,2018,4,26,14,48,13.687,-0.648,0.3352,0.5989,-0.3299
0.01,0.009,-0.002,-0.3,-0.7,-0.1,0,2018,4,26,14,48,13.707,-0.6479,0.3355,0.5988,-0.3299
0.01,0.009,-0.001,-0.3,-0.7,0,0,2018,4,26,14,48,13.711,-0.6479,0.3357,0.5988,-0.3298
0.007,0.007,-0.008,0,0,0,0,2018,4,26,14,48,13.727,-0.6479,0.3356,0.5988,-0.3297
0.008,0.009,-0.005,0,0,0,1023,2018,4,26,14,48,13.747,-0.648,0.3356,0.5989,-0.3296
0.006,0.003,-0.004,0.2,0.6,0.5,1023,2018,4,26,14,48,13.766,-0.648,0.3355,0.5989,-0.3296
0.006,0.014,-0.005,0.4,1.5,0.6,1023,2018,4,26,14,48,13.805,-0.6481,0.3352,0.599,-0.3296
0.005,0.013,0,0.3,1.7,0.6,1023,2018,4,26,14,48,13.827,-0.6482,0.3349,0.599,-0.3296
0.005,0.008,-0.004,0.1,1.7,0.5,1023,2018,4,26,14,48,13.831,-0.6482,0.3349,0.5989,-0.3298
0.003,0.007,-0.003,0,1.1,0.5,1023,2018,4,26,14,48,13.849,-0.6483,0.3348,0.5988,-0.3299
0.01,0.007,0.004,0.1,0.5,0.6,1023,2018,4,26,14,48,13.868,-0.6484,0.3348,0.5987,-0.33
0.011,0.011,-0.001,0.4,0.6,0.5,1023,2018,4,26,14,48,13.907,-0.6484,0.3347,0.5987,-0.33
0.009,0.015,-0.003,0.5,0.6,0.5,1023,2018,4,26,14,48,13.927,-0.6484,0.3346,0.5987,-0.33
0.005,0.012,0,0,0.7,0.6,1023,2018,4,26,14,48,13.931,-0.6484,0.3347,0.5987,-0.3301
0.005,0.009,0.002,0,0.7,0.6,1023,2018,4,26,14,48,13.95,-0.6485,0.3346,0.5986,-0.3301
0.009,0.01,0,-0.2,0.1,0.6,1023,2018,4,26,14,48,13.971,-0.6486,0.3346,0.5985,-0.3301
0.009,0.013,0.002,0,0.1,0.6,1023,2018,4,26,14,48,14.009,-0.6486,0.3347,0.5985,-0.3301
0.009,0.012,-0.002,0,0.9,0.8,1023,2018,4,26,14,48,14.013,-0.6487,0.3345,0.5985,-0.33
0.006,0.006,-0.007,0,2.5,1,0,2018,4,26,14,48,14.029,-0.6489,0.3341,0.5985,-0.33
0.005,0.011,0,0,2.3,0.8,0,2018,4,26,14,48,14.064,-0.6491,0.3337,0.5984,-0.33
0.006,0.01,0.001,0,1.1,0.5,0,2018,4,26,14,48,14.086,-0.6493,0.3334,0.5984,-0.3301
0.008,0.012,0,0.1,0,0.5,0,2018,4,26,14,48,14.09,-0.6494,0.3333,0.5983,-0.3301
0.01,0.011,0,0.1,-0.1,0.6,0,2018,4,26,14,48,14.126,-0.6494,0.3333,0.5983,-0.33
0.009,0.006,0,0.2,0.3,0.5,0,2018,4,26,14,48,14.148,-0.6495,0.3333,0.5984,-0.3299
0.006,0.013,0.002,0.2,0.5,0.3,0,2018,4,26,14,48,14.151,-0.6495,0.3332,0.5984,-0.33
0.006,0.012,-0.003,0.1,0.4,0.5,0,2018,4,26,14,48,14.188,-0.6495,0.3331,0.5984,-0.3299
0.006,0.009,-0.002,0,1.4,0.8,0,2018,4,26,14,48,14.207,-0.6496,0.333,0.5984,-0.3299
0.007,0.008,0.002,0.3,1.8,0.8,0,2018,4,26,14,48,14.212,-0.6497,0.3328,0.5983,-0.3301
0.004,0.006,0.004,0.3,2.1,0.5,0,2018,4,26,14,48,14.23,-0.6499,0.3325,0.5983,-0.3302
0.006,0.007,0.005,0.1,1.7,0.5,0,2018,4,26,14,48,14.251,-0.65,0.3321,0.5982,-0.3303
0.005,0.01,0.004,0,0,0,0,2018,4,26,14,48,14.29,-0.6502,0.3319,0.5982,-0.3303
0.011,0.01,-0.001,-0.3,-0.6,0.3,0,2018,4,26,14,48,14.31,-0.6503,0.3318,0.5982,-0.3302
0.009,0.014,-0.005,-0.1,0.1,0.6,0,2018,4,26,14,48,14.314,-0.6503,0.3318,0.5983,-0.33
0.006,0.01,0.001,0,0.6,0.8,0,2018,4,26,14,48,14.332,-0.6504,0.3316,0.5983,-0.3299
0.004,0.006,0,0.1,0.9,0.5,1023,2018,4,26,14,48,14.37,-0.6505,0.3315,0.5983,-0.3299
0.006,0.015,-0.002,0,1.3,0.1,1023,2018,4,26,14,48,14.39,-0.6507,0.3312,0.5983,-0.3298
0.006,0.021,-0.001,0,1.1,0,1023,2018,4,26,14,48,14.394,-0.6508,0.331,0.5983,-0.3299
0.007,0.016,0.001,0,0,0,1023,2018,4,26,14,48,14.415,-0.6508,0.3309,0.5983,-0.3299
0.008,0.007,0.001,0,0.9,-0.3,1023,2018,4,26,14,48,14.436,-0.6509,0.3308,0.5982,-0.33
0.006,0.01,0.001,0,1.1,-0.3,1023,2018,4,26,14,48,14.457,-0.651,0.3307,0.5981,-0.33
0.005,0.012,0.003,0,0.1,-0.5,1023,2018,4,26,14,48,14.476,-0.6511,0.3305,0.598,-0.3301
0.006,0.015,0.006,-0.1,-0.4,-0.5,1023,2018,4,26,14,48,14.496,-0.6512,0.3305,0.598,-0.33
0.008,0.011,-0.001,0,-1.2,-0.2,1023,2018,4,26,14,48,14.514,-0.6512,0.3306,0.5981,-0.3299
0.01,0.008,-0.006,0,-1.2,-0.4,1023,2018,4,26,14,48,14.532,-0.6511,0.3308,0.5981,-0.3298
0.008,0.007,0.001,0,-0.6,-0.2,1023,2018,4,26,14,48,14.551,-0.651,0.3309,0.5981,-0.3296
0.007,0.01,0,0,0,0,1023,2018,4,26,14,48,14.589,-0.6511,0.3309,0.5982,-0.3295
0.007,0.011,0,0,0,0,1023,2018,4,26,14,48,14.61,-0.6511,0.3308,0.5982,-0.3295
0.006,0.006,-0.003,-0.2,-1.2,-0.2,0,2018,4,26,14,48,14.614,-0.6511,0.331,0.5982,-0.3294
0.01,0.005,0,-0.2,-0.9,-0.4,0,2018,4,26,14,48,14.636,-0.651,0.3312,0.5982,-0.3293
0.009,0.013,-0.005,0,0,0,0,2018,4,26,14,48,14.654,-0.651,0.3314,0.5982,-0.3292
0.009,0.011,-0.004,0,1,-0.1,0,2018,4,26,14,48,14.676,-0.651,0.3313,0.5982,-0.3293
0.005,0.008,0.004,0,0.8,0,0,2018,4,26,14,48,14.697,-0.6511,0.3311,0.5982,-0.3293
0.005,0.011,0.001,0,0,0,0,2018,4,26,14,48,14.717,-0.6511,0.331,0.5982,-0.3293
0.006,0.011,0.004,0,0,0,0,2018,4,26,14,48,14.735,-0.6512,0.3309,0.5982,-0.3292
0.006,0.011,-0.002,0,-1,-0.1,0,2018,4,26,14,48,14.771,-0.6512,0.3311,0.5982,-0.3291
0.006,0.008,0,0,-0.7,-0.2,0,2018,4,26,14,48,14.791,-0.6511,0.3312,0.5982,-0.329
0.008,0.012,0,0,0,0,0,2018,4,26,14,48,14.795,-0.6512,0.3312,0.5982,-0.329
0.003,0.011,-0.006,0,0,0,0,2018,4,26,14,48,14.834,-0.6512,0.331,0.5983,-0.3289
0.004,0.007,0.001,0,0,0,0,2018,4,26,14,48,14.854,-0.6513,0.3309,0.5983,-0.3288
0.007,0.006,-0.003,0,0,0,0,2018,4,26,14,48,14.858,-0.6514,0.3309,0.5983,-0.3287
0.01,0.011,0.002,-0.2,-1.2,-0.3,0,2018,4,26,14,48,14.877,-0.6513,0.3312,0.5983,-0.3287
0.008,0.011,-0.004,-0.4,-0.7,-0.2,0,2018,4,26,14,48,14.898,-0.6513,0.3313,0.5982,-0.3286
0.007,0.016,-0.007,-0.4,-1.1,-0.3,0,2018,4,26,14,48,14.917,-0.6513,0.3315,0.5982,-0.3284
0.009,0.003,-0.004,-0.3,-0.9,0,0,2018,4,26,14,48,14.937,-0.6512,0.3317,0.5982,-0.3283
0.011,0.004,-0.007,0,0,0,1023,2018,4,26,14,48,14.954,-0.6512,0.3318,0.5983,-0.3283
0.009,0.01,0,0.1,0.7,-0.1,1023,2018,4,26,14,48,14.975,-0.6512,0.3318,0.5982,-0.3283
0.004,0.013,0,0,0.9,-0.2,1023,2018,4,26,14,48,14.994,-0.6513,0.3316,0.5982,-0.3283
0.002,0.013,0.002,-0.1,0.5,-0.2,1023,2018,4,26,14,48,15.032,-0.6513,0.3316,0.5981,-0.3284
0.006,0.009,0.001,0,0,0,1023,2018,4,26,14,48,15.053,-0.6514,0.3315,0.5981,-0.3284
0.009,0.009,0.001,0,0,0,1023,2018,4,26,14,48,15.058,-0.6515,0.3314,0.5982,-0.3283
0.007,0.012,0.004,0,0,0,1023,2018,4,26,14,48,15.077,-0.6515,0.3313,0.5982,-0.3282
0.007,0.013,0.003,0,0,0,1023,2018,4,26,14,48,15.117,-0.6516,0.3312,0.5982,-0.3282
0.007,0.01,0.001,-0.5,-0.8,-0.3,1023,2018,4,26,14,48,15.138,-0.6516,0.3314,0.5981,-0.3281
0.007,0.006,0.001,-0.7,-1,-0.4,1023,2018,4,26,14,48,15.142,-0.6516,0.3316,0.5981,-0.328
0.011,0.009,-0.003,-0.4,-1.2,-0.4,1023,2018,4,26,14,48,15.16,-0.6516,0.3318,0.5981,-0.3279
0.012,0.007,-0.009,-0.1,-0.6,-0.2,1023,2018,4,26,14,48,15.198,-0.6514,0.3323,0.598,-0.3279
0.01,0.011,-0.002,0,0,0,1023,2018,4,26,14,48,15.218,-0.6514,0.3322,0.598,-0.3278
0.003,0.013,-0.002,0,0,0,1023,2018,4,26,14,48,15.222,-0.6514,0.3322,0.5981,-0.3277
0.008,0.008,0,-0.2,0.6,-0.3,1023,2018,4,26,14,48,15.243,-0.6515,0.332,0.5981,-0.3277
0.009,0.008,0.001,0,0,0,1023,2018,4,26,14,48,15.262,-0.6516,0.3319,0.5981,-0.3276
0.007,0.011,0.004,0,0,0,0,2018,4,26,14,48,15.283,-0.6516,0.3319,0.5981,-0.3276
0.007,0.013,-0.003,0,-0.5,0,0,2018,4,26,14,48,15.3,-0.6516,0.332,0.5981,-0.3276
0.007,0.008,-0.004,0,0,0,0,2018,4,26,14,48,15.319,-0.6515,0.3321,0.5981,-0.3275
0.007,0.008,-0.003,0,0,0,0,2018,4,26,14,48,15.359,-0.6516,0.332,0.5982,-0.3275
0.005,0.008,-0.001,0,0,0,0,2018,4,26,14,48,15.363,-0.6516,0.3319,0.5982,-0.3274
0.007,0.013,0.002,0,0.6,0.1,0,2018,4,26,14,48,15.38,-0.6517,0.3318,0.5982,-0.3274
0.007,0.007,0.005,0,0,0,0,2018,4,26,14,48,15.417,-0.6517,0.3318,0.5982,-0.3274
0.007,0.008,0.001,0,0,0,0,2018,4,26,14,48,15.438,-0.6518,0.3317,0.5982,-0.3273
0.005,0.01,-0.001,0,-0.6,-0.1,0,2018,4,26,14,48,15.442,-0.6518,0.3317,0.5982,-0.3273
0.009,0.012,0.002,-0.3,-0.8,-0.2,0,2018,4,26,14,48,15.461,-0.6518,0.3319,0.5981,-0.3272
0.008,0.01,-0.002,-0.4,-1,0,0,2018,4,26,14,48,15.482,-0.6517,0.3322,0.5981,-0.3271
0.009,0.013,-0.003,-0.2,-1.1,-0.1,0,2018,4,26,14,48,15.499,-0.6517,0.3324,0.5981,-0.327
0.007,0.009,-0.007,0,0,0,0,2018,4,26,14,48,15.535,-0.6516,0.3327,0.598,-0.327
0.008,0.01,-0.006,0,0,0,0,2018,4,26,14,48,15.554,-0.6516,0.3327,0.598,-0.3269
0.009,0.011,-0.002,0,1.1,0,0,2018,4,26,14,48,15.561,-0.6517,0.3326,0.598,-0.3269
0.004,0.008,0.004,0,0.9,0.1,1023,2018,4,26,14,48,15.6,-0.6517,0.3325,0.598,-0.327
0.007,0.009,0.001,-0.1,0.7,0,1023,2018,4,26,14,48,15.621,-0.6518,0.3325,0.5978,-0.3272
0.009,0.016,0.002,0,0,0,1023,2018,4,26,14,48,15.625,-0.6518,0.3324,0.5978,-0.3271
0.008,0.01,0,0,0,0,1023,2018,4,26,14,48,15.642,-0.6519,0.3323,0.5978,-0.3271
0.005,0.01,0.001,0,0,0,1023,2018,4,26,14,48,15.665,-0.6519,0.3322,0.5979,-0.327
0.006,0.008,0,0,0,0,1023,2018,4,26,14,48,15.687,-0.652,0.3321,0.5979,-0.3269
0.006,0.007,0,0,0,0,1023,2018,4,26,14,48,15.705,-0.6521,0.3321,0.5979,-0.3269
0.009,0.005,-0.006,-0.1,-0.9,-0.5,1023,2018,4,26,14,48,15.724,-0.652,0.3322,0.5979,-0.3268
0.01,0.007,-0.004,0.1,-0.6,-0.4,1023,2018,4,26,14,48,15.744,-0.6519,0.3325,0.5979,-0.3269
0.008,0.012,-0.004,0,0,0,1023,2018,4,26,14,48,15.765,-0.6519,0.3325,0.5979,-0.3268
0.007,0.012,0.003,0,0,0,1023,2018,4,26,14,48,15.785,-0.6519,0.3324,0.5979,-0.3268
0.006,0.011,0.007,0,0.6,0,0,2018,4,26,14,48,15.803,-0.652,0.3323,0.5979,-0.3267
0.006,0.013,-0.002,0,0,0,0,2018,4,26,14,48,15.823,-0.6521,0.3322,0.598,-0.3267
0.009,0.01,-0.001,-0.2,-0.7,0.1,0,2018,4,26,14,48,15.863,-0.652,0.3324,0.5979,-0.3266
0.008,0.011,0,0,0,0,0,2018,4,26,14,48,15.882,-0.652,0.3325,0.5979,-0.3265
0.009,0.012,-0.001,0,0,0,0,2018,4,26,14,48,15.887,-0.652,0.3325,0.598,-0.3265
0.005,0.009,0,0,0,0,0,2018,4,26,14,48,15.905,-0.6521,0.3324,0.598,-0.3264
0.009,0.006,-0.004,0,0,0,0,2018,4,26,14,48,15.925,-0.6521,0.3323,0.598,-0.3264
0.01,0.008,0,0,0,0,0,2018,4,26,14,48,15.963,-0.6521,0.3323,0.598,-0.3263
0.007,0.011,-0.003,0,0,0,0,2018,4,26,14,48,15.983,-0.6521,0.3323,0.5981,-0.3263
0.008,0.013,0.001,0,0.7,0.1,0,2018,4,26,14,48,15.987,-0.6521,0.3324,0.598,-0.3263
0.004,0.007,0,0.3,1.4,0.1,0,2018,4,26,14,48,16.003,-0.652,0.3326,0.5979,-0.3266
0.003,0.006,0.003,0.1,1.1,0.1,0,2018,4,26,14,48,16.041,-0.6521,0.3325,0.5977,-0.3268
0.006,0.009,0.009,0,0,0,0,2018,4,26,14,48,16.061,-0.6522,0.3324,0.5977,-0.3268
0.01,0.007,0.002,-0.1,-0.6,0.1,0,2018,4,26,14,48,16.066,-0.6522,0.3323,0.5977,-0.3268
0.011,0.01,-0.002,-0.4,-0.9,0.1,0,2018,4,26,14,48,16.086,-0.6522,0.3327,0.5975,-0.3268
0.012,0.016,-0.002,-0.2,-1,0,0,2018,4,26,14,48,16.106,-0.6521,0.3329,0.5975,-0.3267
0.008,0.011,-0.007,-0.2,-0.7,0.2,0,2018,4,26,14,48,16.125,-0.6521,0.333,0.5976,-0.3265
0.009,0.002,-0.006,0,0,0,0,2018,4,26,14,48,16.162,-0.652,0.333,0.5976,-0.3265
0.007,0.007,0.005,0,0.9,0.3,1023,2018,4,26,14,48,16.182,-0.6521,0.3331,0.5975,-0.3266
0.019,0.034,0.078,-1.6,-7.1,-0.5,1023,2018,4,26,14,48,16.188,-0.6522,0.3336,0.5971,-0.3266
0.017,-0.036,0.192,-10.6,-35.5,-5,1023,2018,4,26,14,48,16.208,-0.6518,0.3363,0.597,-0.3247
-0.092,-0.009,0.214,-31.7,-85.5,-18.8,1023,2018,4,26,14,48,16.229,-0.6496,0.3455,0.5974,-0.3187
-0.127,-0.218,0.334,-58,-146,-44.1,1023,2018,4,26,14,48,16.246,-0.6454,0.3646,0.5967,-0.3071
-0.291,-0.732,0.32,-75.2,-226.2,-78.9,1023,2018,4,26,14,48,16.283,-0.6366,0.3959,0.5947,-0.2902
-0.092,-0.81,0.168,-86.7,-240.6,-132.6,1023,2018,4,26,14,48,16.303,-0.6227,0.437,0.5894,-0.2714
-0.033,-0.521,0.238,-36.4,-99.9,-191.8,1023,2018,4,26,14,48,16.307,-0.5699,0.5574,0.5471,-0.2548
-0.063,-0.382,0.193,-34.6,-70.2,-193.9,1023,2018,4,26,14,48,16.327,-0.5562,0.5851,0.5282,-0.2628
-0.115,-0.243,0.195,-40.3,-81.5,-199.8,1023,2018,4,26,14,48,16.348,-0.5425,0.6121,0.5073,-0.2712
-0.137,-0.176,0.155,-40.7,-102.1,-205.9,1023,2018,4,26,14,48,16.367,-0.5259,0.6406,0.4855,-0.2777
-0.176,-0.256,0.043,-33.8,-96.9,-205.5,0,2018,4,26,14,48,16.406,-0.5069,0.669,0.4635,-0.2837
-0.253,-0.125,-0.03,-30,-68.7,-202.7,0,2018,4,26,14,48,16.425,-0.4893,0.6938,0.4405,-0.2913
-0.286,0.067,-0.019,-29,-63.9,-202.4,0,2018,4,26,14,48,16.429,-0.4732,0.7159,0.4164,-0.2999
-0.288,0.096,-0.129,-23.3,-69.9,-198.1,0,2018,4,26,14,48,16.469,-0.4559,0.7369,0.3925,-0.3081
-0.302,0.158,-0.111,-17.3,-58.5,-186.3,0,2018,4,26,14,48,16.49,-0.4382,0.7559,0.3694,-0.3162
-0.276,0.228,-0.072,-10.6,-41.7,-174,0,2018,4,26,14,48,16.494,-0.4224,0.7716,0.3472,-0.3247
-0.281,0.281,-0.049,-7.4,-28.3,-160.8,0,2018,4,26,14,48,16.507,-0.4085,0.7844,0.3259,-0.3337
-0.278,0.348,-0.091,-4,-23.2,-147.3,0,2018,4,26,14,48,16.528,-0.3963,0.7951,0.3058,-0.3423
-0.29,0.381,-0.095,-0.6,-16.7,-133.1,0,2018,4,26,14,48,16.564,-0.3852,0.8038,0.2872,-0.3505
-0.276,0.393,-0.106,3.9,-10.2,-118,0,2018,4,26,14,48,16.585,-0.3755,0.8107,0.2705,-0.3584
-0.266,0.421,-0.118,1.9,-2.4,-104.3,0,2018,4,26,14,48,16.589,-0.3675,0.816,0.2554,-0.3657
-0.272,0.473,-0.125,-0.7,-3.9,-93.7,0,2018,4,26,14,48,16.609,-0.3608,0.8204,0.2414,-0.3719
-0.247,0.496,-0.15,5,-13.4,-80.9,0,2018,4,26,14,48,16.631,-0.3538,0.8244,0.2295,-0.3772
-0.211,0.474,-0.172,13,-19.1,-62.4,0,2018,4,26,14,48,16.651,-0.3462,0.8277,0.2209,-0.3822
-0.202,0.49,-0.218,14.7,-26.1,-47.6,0,2018,4,26,14,48,16.671,-0.3388,0.8301,0.2154,-0.3866
-0.182,0.415,-0.242,18.2,-32.3,-35.5,0,2018,4,26,14,48,16.692,-0.3311,0.8323,0.2124,-0.3903
-0.121,0.36,-0.202,25.6,-35.3,-25.7,0,2018,4,26,14,48,16.71,-0.3232,0.8339,0.2116,-0.3939
-0.031,0.325,-0.177,34.4,-37.3,-19.8,0,2018,4,26,14,48,16.729,-0.3153,0.8347,0.2125,-0.3982
-0.022,0.331,-0.155,35.1,-41,-14.3,1023,2018,4,26,14,48,16.75,-0.3072,0.835,0.2146,-0.4028
-0.007,0.38,-0.172,31.6,-52.2,-6.2,1023,2018,4,26,14,48,16.77,-0.2985,0.8354,0.2181,-0.4066
-0.053,0.448,-0.322,27.5,-72.3,4.6,1023,2018,4,26,14,48,16.808,-0.2881,0.8365,0.224,-0.4085
-0.078,0.39,-0.366,29.3,-75.1,19.1,1023,2018,4,26,14,48,16.81,-0.2767,0.8378,0.2326,-0.4089
-0.106,0.37,-0.353,32.9,-52.6,25.9,1023,2018,4,26,14,48,16.828,-0.2676,0.8377,0.2422,-0.4096
-0.202,0.488,-0.54,31.9,-26.2,32.8,1023,2018,4,26,14,48,16.847,-0.2628,0.8359,0.2505,-0.4115
-0.419,0.775,-0.96,35.2,-36,54.7,1023,2018,4,26,14,48,16.886,-0.2606,0.8329,0.2602,-0.4129
-0.686,0.983,-1.592,56.9,-113.8,86.2,1023,2018,4,26,14,48,16.905,-0.2532,0.8295,0.2776,-0.413
-0.884,0.929,-2.02,99.9,-195.4,128.8,1023,2018,4,26,14,48,16.912,-0.2339,0.8251,0.3081,-0.4115
-0.932,0.77,-2.097,153.6,-215.9,161.5,1023,2018,4,26,14,48,16.934,-0.2067,0.8157,0.3492,-0.412
-1.02,0.682,-1.846,216.2,-213.9,199.3,1023,2018,4,26,14,48,16.954,-0.1774,0.7977,0.3963,-0.4182
-1.185,0.334,-1.31,291.1,-189.4,266.2,1023,2018,4,26,14,48,16.976,-0.1479,0.7674,0.4504,-0.4315
-1.507,-0.454,-0.518,369.2,-156.4,347.4,0,2018,4,26,14,48,16.996,-0.121,0.7196,0.5119,-0.4532
-1.722,-1.536,0.525,403,-84.9,381.9,0,2018,4,26,14,48,17.011,-0.099,0.6545,0.5739,-0.4819
-1.884,-2.477,1.196,373.1,-12.3,341,0,2018,4,26,14,48,17.051,-0.0852,0.5828,0.6235,-0.514
-0.284,5.818,-2.542,-289.9,125.3,-296,0,2018,4,26,14,48,17.071,-0.0926,0.5307,0.6509,-0.5348
1.189,-2.386,3.26,-193.1,-31.2,-100.2,0,2018,4,26,14,48,17.075,-0.0874,0.5597,0.6363,-0.5235
-0.435,-0.417,-0.387,1.7,36.1,-95.5,0,2018,4,26,14,48,17.093,-0.092,0.5743,0.625,-0.5206
-0.44,-1.199,0.387,-41.5,47.1,-108.3,0,2018,4,26,14,48,17.131,-0.0849,0.5885,0.612,-0.5213
-0.347,-0.37,0.663,-48,119.3,-97.9,0,2018,4,26,14,48,17.151,-0.0912,0.6019,0.5922,-0.5278
-0.388,-0.081,0.249,-48.4,177.5,-91.5,0,2018,4,26,14,48,17.155,-0.1028,0.6131,0.5665,-0.5408
-0.438,0.042,0.386,-77.7,182.4,-80.9,0,2018,4,26,14,48,17.174,-0.1202,0.624,0.5384,-0.5532
-0.418,0.079,0.096,-115.4,182.3,-69.1,0,2018,4,26,14,48,17.195,-0.1417,0.6361,0.5098,-0.5614
-0.412,0.112,-0.021,-156.1,149.7,-60.2,0,2018,4,26,14,48,17.23,-0.166,0.6509,0.4825,-0.5619
