time_1,time_2,time_3,time_4,time_5,time_6,w,x,y,z,droll,dpitch,dyaw,ax,ay,az,heart
2018,5,17,19,43,45.576,-0.9162,0.0044,-0.3503,0.1939,0,0.8,0.5,-0.007,0,-0.001,0
2018,5,17,19,43,45.58,-0.9163,0.0046,-0.3502,0.194,-0.3,0.8,0.3,-0.002,-0.001,-0.005,0
2018,5,17,19,43,45.594,-0.9163,0.0048,-0.35,0.1943,-0.2,1,0.5,-0.006,0.003,-0.005,0
2018,5,17,19,43,45.613,-0.9163,0.0049,-0.3499,0.1942,-0.3,0.6,0.4,-0.007,0,-0.003,0
2018,5,17,19,43,45.648,-0.9164,0.005,-0.3498,0.1943,-0.1,0.7,0.3,-0.001,-0.002,-0.002,0
2018,5,17,19,43,45.671,-0.9164,0.005,-0.3497,0.1943,-0.2,0.8,0.5,-0.007,0.002,-0.006,0
2018,5,17,19,43,45.676,-0.9165,0.005,-0.3495,0.1942,-0.2,0.7,0.3,-0.005,0.003,-0.011,0
2018,5,17,19,43,45.692,-0.9165,0.005,-0.3494,0.1941,-0.3,0.9,0.7,-0.005,0,-0.001,0
2018,5,17,19,43,45.715,-0.9166,0.0052,-0.3493,0.1943,-0.5,0.8,0.5,-0.007,-0.002,-0.004,0
2018,5,17,19,43,45.734,-0.9166,0.0054,-0.3491,0.1944,-0.5,0.7,0.4,-0.007,-0.002,-0.002,0
2018,5,17,19,43,45.757,-0.9166,0.0055,-0.349,0.1943,-0.4,0.7,0.3,-0.006,-0.001,-0.003,0
2018,5,17,19,43,45.777,-0.9167,0.0057,-0.3489,0.1945,-0.4,0.5,0.3,-0.006,0.005,-0.002,0
2018,5,17,19,43,45.795,-0.9167,0.0058,-0.3488,0.1945,-0.5,0.3,0.2,-0.004,0,0.001,0
2018,5,17,19,43,45.831,-0.9167,0.0058,-0.3488,0.1945,0,0,0,-0.002,-0.003,-0.003,0
2018,5,17,19,43,45.854,-0.9167,0.0058,-0.3488,0.1945,0,0,0,-0.007,0.005,0.001,0
2018,5,17,19,43,45.858,-0.9167,0.0058,-0.3487,0.1945,0,0,0,-0.006,0,-0.002,0
2018,5,17,19,43,45.874,-0.9167,0.0058,-0.3487,0.1945,0.6,0.4,0.3,-0.006,-0.001,-0.009,0
2018,5,17,19,43,45.896,-0.9167,0.0057,-0.3486,0.1947,0.5,0.2,0.3,-0.008,0.003,-0.006,0
2018,5,17,19,43,45.933,-0.9167,0.0057,-0.3486,0.1947,0,0,0,-0.008,0.001,-0.004,0
2018,5,17,19,43,45.957,-0.9168,0.0057,-0.3485,0.1947,0,0,0,-0.005,0.003,-0.007,0
2018,5,17,19,43,45.961,-0.9168,0.0058,-0.3485,0.1947,-0.6,0.7,0.5,-0.008,0.001,-0.009,0
2018,5,17,19,43,45.977,-0.9168,0.006,-0.3484,0.1948,-0.5,0.7,0.6,-0.006,-0.004,-0.007,0
2018,5,17,19,43,45.996,-0.9168,0.0063,-0.3483,0.195,-0.2,0.3,0.5,-0.005,-0.007,-0.002,0
2018,5,17,19,43,46.019,-0.9168,0.0063,-0.3483,0.195,0,0,0,-0.007,-0.002,-0.003,1023
2018,5,17,19,43,46.036,-0.9168,0.0063,-0.3483,0.195,0,0,0,-0.005,0.004,-0.002,1023
2018,5,17,19,43,46.053,-0.9168,0.0062,-0.3483,0.195,0,0,0,-0.004,0.007,-0.001,1023
2018,5,17,19,43,46.075,-0.9168,0.0062,-0.3482,0.1949,0,0,0,-0.006,0.001,-0.002,1023
2018,5,17,19,43,46.113,-0.9168,0.0062,-0.3482,0.1949,0,0,0,-0.008,0.002,-0.003,1023
2018,5,17,19,43,46.136,-0.9168,0.0063,-0.3482,0.1949,-0.6,0.2,0.2,-0.007,-0.002,-0.003,1023
2018,5,17,19,43,46.141,-0.9168,0.0063,-0.3481,0.195,0,0,0,-0.006,-0.002,-0.001,1023
2018,5,17,19,43,46.157,-0.9168,0.0064,-0.3482,0.195,0,0,0,-0.006,-0.002,-0.002,1023
2018,5,17,19,43,46.177,-0.9168,0.0064,-0.3481,0.195,0,0,0,-0.007,0,-0.001,1023
2018,5,17,19,43,46.201,-0.9169,0.0064,-0.3481,0.195,0,0,0,-0.004,0,-0.002,1023
2018,5,17,19,43,46.216,-0.9169,0.0064,-0.3481,0.195,0,0,0,-0.005,-0.002,-0.004,0
2018,5,17,19,43,46.24,-0.9169,0.0064,-0.3481,0.195,0,0,0,-0.006,-0.002,-0.004,0
2018,5,17,19,43,46.276,-0.9169,0.0064,-0.3481,0.195,0,0,0,-0.005,0,-0.003,0
2018,5,17,19,43,46.296,-0.9169,0.0064,-0.348,0.195,0,0,0,-0.007,0.001,-0.003,0
2018,5,17,19,43,46.301,-0.9169,0.0064,-0.348,0.195,0,0,0,-0.009,0.003,-0.007,0
2018,5,17,19,43,46.317,-0.9169,0.0064,-0.348,0.195,0,0,0,-0.007,0.003,-0.005,0
2018,5,17,19,43,46.352,-0.9169,0.0064,-0.348,0.195,-0.5,0,0,-0.006,0.001,-0.004,0
2018,5,17,19,43,46.376,-0.9169,0.0064,-0.3479,0.195,0,0,0,-0.003,0,-0.001,0
2018,5,17,19,43,46.381,-0.9169,0.0064,-0.3479,0.195,0,0,0,-0.006,0,-0.002,0
2018,5,17,19,43,46.416,-0.9169,0.0064,-0.3479,0.195,0,0,0,-0.006,0,-0.004,0
2018,5,17,19,43,46.439,-0.9169,0.0064,-0.3479,0.195,0,0,0,-0.009,0,-0.007,0
2018,5,17,19,43,46.444,-0.9169,0.0064,-0.3479,0.1951,0,0,0,-0.004,-0.001,-0.004,0
2018,5,17,19,43,46.463,-0.9169,0.0065,-0.3478,0.1951,0,0,0,-0.008,-0.001,-0.005,0
2018,5,17,19,43,46.479,-0.9169,0.0065,-0.3478,0.1951,0,0,0,-0.005,0.001,-0.006,0
2018,5,17,19,43,46.502,-0.9169,0.0065,-0.3478,0.1951,0,0,0,-0.006,-0.002,-0.004,0
2018,5,17,19,43,46.518,-0.9169,0.0065,-0.3478,0.1951,0,0,0,-0.009,0,-0.006,0
2018,5,17,19,43,46.556,-0.917,0.0065,-0.3478,0.1951,0,0,0,-0.006,-0.002,-0.004,0
2018,5,17,19,43,46.579,-0.917,0.0066,-0.3477,0.1951,0,0,0,-0.005,0,-0.003,0
2018,5,17,19,43,46.584,-0.917,0.0066,-0.3477,0.1951,0,0,0,-0.009,0,-0.002,0
2018,5,17,19,43,46.6,-0.917,0.0066,-0.3477,0.1951,-0.1,-0.2,-0.5,-0.006,-0.001,-0.004,0
2018,5,17,19,43,46.637,-0.917,0.0067,-0.3476,0.1952,0,0,0,-0.008,-0.001,0,0
2018,5,17,19,43,46.66,-0.917,0.0067,-0.3477,0.1952,0.2,-0.8,-0.5,-0.004,-0.005,-0.006,0
2018,5,17,19,43,46.662,-0.917,0.0064,-0.3478,0.1949,0.4,-0.8,-0.5,-0.006,0,-0.003,0
2018,5,17,19,43,46.682,-0.917,0.0063,-0.3479,0.1948,0.4,-0.8,-0.5,-0.008,-0.004,-0.003,0
2018,5,17,19,43,46.705,-0.9169,0.0062,-0.348,0.1949,0.9,-0.7,-0.5,-0.007,0.007,-0.003,0
2018,5,17,19,43,46.718,-0.9169,0.0059,-0.3481,0.1947,0.2,-0.8,-0.4,-0.005,0.004,-0.002,0
2018,5,17,19,43,46.737,-0.9169,0.0056,-0.3483,0.1944,0.4,-0.6,-0.3,-0.004,0,-0.009,1023
2018,5,17,19,43,46.761,-0.9169,0.0053,-0.3484,0.1943,0.8,-0.5,-0.4,-0.009,0.001,-0.001,1023
2018,5,17,19,43,46.777,-0.9169,0.0052,-0.3484,0.1942,0.4,-0.6,-0.4,-0.007,0,0.001,1023
2018,5,17,19,43,46.8,-0.9169,0.0051,-0.3485,0.1941,0.1,-0.8,-0.8,-0.008,0.001,-0.002,1023
2018,5,17,19,43,46.835,-0.9169,0.0051,-0.3486,0.1941,-0.2,-0.5,-0.4,-0.006,0,-0.009,1023
2018,5,17,19,43,46.859,-0.9168,0.0052,-0.3486,0.1943,0,0,0,-0.003,0,-0.008,1023
2018,5,17,19,43,46.864,-0.9168,0.0051,-0.3487,0.1941,0,0,0,-0.005,-0.002,-0.003,1023
2018,5,17,19,43,46.899,-0.9168,0.0051,-0.3488,0.1941,0.5,-0.6,-0.4,-0.003,-0.002,-0.003,1023
2018,5,17,19,43,46.899,-0.9168,0.0049,-0.3489,0.194,0.5,-0.6,-0.7,-0.004,0.006,-0.002,1023
2018,5,17,19,43,46.921,-0.9168,0.0047,-0.349,0.1939,0.2,-0.6,-0.7,-0.005,0.011,-0.007,1023
2018,5,17,19,43,46.958,-0.9167,0.0047,-0.349,0.194,-0.2,-0.7,-0.5,-0.003,0.007,0,0
2018,5,17,19,43,46.98,-0.9167,0.0047,-0.3492,0.1938,-0.2,-0.5,-0.2,-0.006,0.002,-0.007,0
2018,5,17,19,43,46.985,-0.9167,0.0047,-0.3493,0.1939,-0.3,-0.5,-0.2,-0.006,0.001,-0.002,0
2018,5,17,19,43,47,-0.9166,0.0048,-0.3493,0.1938,-0.2,-0.6,-0.2,-0.006,-0.004,0,0
2018,5,17,19,43,47.024,-0.9166,0.0048,-0.3495,0.1938,0,-0.5,-0.3,-0.004,-0.006,-0.003,0
2018,5,17,19,43,47.058,-0.9165,0.0049,-0.3495,0.194,0.2,-0.5,-0.2,-0.008,0,-0.007,0
2018,5,17,19,43,47.081,-0.9165,0.0048,-0.3496,0.1939,0,-0.8,-0.3,-0.006,0,-0.002,0
2018,5,17,19,43,47.085,-0.9165,0.0048,-0.3497,0.1939,-0.4,-0.8,-0.3,-0.004,-0.003,0.003,0
2018,5,17,19,43,47.104,-0.9165,0.0048,-0.3498,0.1938,-0.2,-0.8,-0.4,-0.009,-0.003,-0.006,0
2018,5,17,19,43,47.142,-0.9164,0.0049,-0.3499,0.1938,0,-0.7,-0.6,-0.005,-0.001,-0.004,0
2018,5,17,19,43,47.142,-0.9164,0.0047,-0.35,0.1935,0.2,-0.9,-0.4,-0.007,0.006,-0.002,0
2018,5,17,19,43,47.165,-0.9164,0.0046,-0.3501,0.1936,0,-0.8,-0.4,-0.005,0.004,-0.002,0
2018,5,17,19,43,47.203,-0.9164,0.0046,-0.3503,0.1934,-0.2,-0.7,-0.5,-0.005,0.004,-0.007,0
2018,5,17,19,43,47.225,-0.9163,0.0046,-0.3504,0.1935,-0.2,-0.8,-0.5,-0.006,0.001,-0.005,0
2018,5,17,19,43,47.23,-0.9163,0.0046,-0.3505,0.1935,-0.3,-0.8,-0.5,-0.003,0,-0.002,0
2018,5,17,19,43,47.245,-0.9163,0.0046,-0.3506,0.1933,0,-0.8,-0.3,-0.002,0.001,-0.006,0
2018,5,17,19,43,47.263,-0.9162,0.0045,-0.3507,0.1933,0,-0.6,-0.5,-0.006,0,-0.002,0
2018,5,17,19,43,47.286,-0.9162,0.0045,-0.3508,0.1932,-0.1,-0.6,-0.3,-0.005,-0.001,-0.007,0
2018,5,17,19,43,47.301,-0.9162,0.0045,-0.3509,0.1932,-0.2,-0.7,-0.3,-0.004,0,-0.003,0
2018,5,17,19,43,47.325,-0.9161,0.0045,-0.351,0.1932,-0.1,-0.7,-0.2,-0.006,0,-0.005,0
2018,5,17,19,43,47.359,-0.9161,0.0046,-0.3511,0.1933,0,-0.7,-0.4,-0.006,0,-0.006,0
2018,5,17,19,43,47.382,-0.916,0.0045,-0.3513,0.1931,-0.2,-0.9,-0.5,-0.006,-0.001,-0.004,0
2018,5,17,19,43,47.387,-0.916,0.0046,-0.3514,0.1932,0,-0.8,-0.4,-0.006,0,-0.002,0
2018,5,17,19,43,47.404,-0.916,0.0046,-0.3514,0.1932,-0.2,-0.6,-0.6,-0.005,-0.001,-0.002,0
2018,5,17,19,43,47.427,-0.9159,0.0047,-0.3515,0.1933,0,-0.5,-0.5,-0.004,-0.002,-0.007,0
2018,5,17,19,43,47.444,-0.9159,0.0048,-0.3515,0.1934,-0.3,-0.6,-0.7,-0.003,-0.001,-0.004,0
2018,5,17,19,43,47.48,-0.9159,0.0047,-0.3516,0.1932,-0.3,-0.6,-0.5,-0.006,0.003,-0.003,0
2018,5,17,19,43,47.502,-0.9158,0.0047,-0.3518,0.1932,0.2,-0.8,-0.9,-0.005,-0.002,-0.006,1023
2018,5,17,19,43,47.507,-0.9159,0.0044,-0.3519,0.1929,0,-1,-0.7,-0.011,0.003,0.001,1023
2018,5,17,19,43,47.523,-0.9158,0.0044,-0.352,0.1928,0.2,-0.8,-0.7,-0.006,-0.001,-0.007,1023
2018,5,17,19,43,47.547,-0.9158,0.0042,-0.3521,0.1927,0.8,-0.7,-0.5,-0.003,0.001,-0.015,1023
2018,5,17,19,43,47.584,-0.9158,0.0038,-0.3523,0.1925,0.4,-0.7,-0.4,-0.005,0.007,0,1023
2018,5,17,19,43,47.606,-0.9158,0.0036,-0.3524,0.1923,0,-0.8,-0.7,-0.004,0,-0.001,1023
2018,5,17,19,43,47.611,-0.9158,0.0036,-0.3525,0.1923,0.1,-0.8,-0.6,-0.007,0,-0.002,1023
2018,5,17,19,43,47.631,-0.9157,0.0036,-0.3526,0.1923,0.1,-0.7,-0.2,-0.004,0.004,-0.011,1023
2018,5,17,19,43,47.65,-0.9157,0.0035,-0.3527,0.1923,0.2,-0.5,-0.2,-0.003,0.002,-0.004,1023
2018,5,17,19,43,47.668,-0.9157,0.0033,-0.3528,0.1921,0,-0.6,0,-0.005,0,-0.003,1023
2018,5,17,19,43,47.692,-0.9156,0.0033,-0.3529,0.192,-0.1,-0.8,-0.5,-0.003,-0.003,0,0
2018,5,17,19,43,47.709,-0.9156,0.0032,-0.3531,0.1919,0,-0.8,-0.6,0,0,-0.001,0
2018,5,17,19,43,47.727,-0.9156,0.0031,-0.3532,0.1918,0.1,-1,-1,-0.004,0.004,-0.006,0
2018,5,17,19,43,47.744,-0.9155,0.0032,-0.3533,0.1919,0,-1,-0.7,-0.006,0.001,-0.007,0
2018,5,17,19,43,47.768,-0.9155,0.0031,-0.3534,0.1917,-0.2,-0.8,-0.5,-0.008,0.004,-0.003,0
2018,5,17,19,43,47.805,-0.9155,0.003,-0.3536,0.1917,0,-0.9,-0.4,-0.007,0.002,-0.004,0
2018,5,17,19,43,47.828,-0.9154,0.003,-0.3537,0.1916,0,-0.6,-0.1,-0.006,0,-0.009,0
2018,5,17,19,43,47.832,-0.9154,0.003,-0.3538,0.1916,0,0,0,-0.004,0.001,0,0
2018,5,17,19,43,47.849,-0.9154,0.003,-0.3538,0.1916,-0.3,-0.5,0,-0.004,-0.001,0,0
2018,5,17,19,43,47.867,-0.9153,0.0031,-0.3539,0.1917,-0.2,-0.6,-0.2,-0.005,-0.004,0,0
2018,5,17,19,43,47.891,-0.9153,0.0032,-0.354,0.1917,0,-0.5,-0.3,-0.005,-0.002,-0.002,0
2018,5,17,19,43,47.927,-0.9153,0.0032,-0.3541,0.1917,0,-0.6,-0.5,-0.007,0.002,-0.004,0
2018,5,17,19,43,47.927,-0.9153,0.003,-0.3542,0.1915,-0.2,-0.6,-0.4,-0.006,0.001,-0.002,0
2018,5,17,19,43,47.949,-0.9153,0.0029,-0.3543,0.1913,-0.2,-0.6,-0.5,-0.005,0,-0.002,0
2018,5,17,19,43,47.966,-0.9152,0.0029,-0.3544,0.1912,0,-0.7,-0.5,-0.006,0.002,-0.004,0
2018,5,17,19,43,47.989,-0.9152,0.0028,-0.3546,0.1912,0.1,-0.8,-0.5,-0.003,0.001,-0.009,0
2018,5,17,19,43,48.025,-0.9152,0.0028,-0.3547,0.1912,0.3,-1,-0.5,-0.004,0.003,-0.002,0
2018,5,17,19,43,48.048,-0.9151,0.0026,-0.3548,0.191,0.3,-0.7,-0.5,-0.004,0.002,-0.005,0
2018,5,17,19,43,48.05,-0.9151,0.0025,-0.3549,0.191,0.1,-0.7,-0.5,-0.005,0.007,-0.006,0
2018,5,17,19,43,48.068,-0.915,0.0024,-0.355,0.1911,0,-0.5,-0.1,-0.008,0.003,-0.012,0
2018,5,17,19,43,48.09,-0.915,0.0023,-0.3551,0.191,-0.2,-0.6,-0.1,-0.004,0.002,-0.002,0
2018,5,17,19,43,48.128,-0.915,0.0024,-0.3552,0.191,-0.3,-0.5,-0.5,-0.006,0,0,0
2018,5,17,19,43,48.128,-0.915,0.0024,-0.3553,0.1909,-0.2,-0.8,-0.3,-0.005,-0.004,-0.001,0
2018,5,17,19,43,48.149,-0.9149,0.0024,-0.3554,0.1909,0,-1,-0.5,-0.005,-0.008,-0.003,0
2018,5,17,19,43,48.168,-0.9149,0.0022,-0.3556,0.1906,0.4,-0.7,-0.6,-0.005,-0.005,-0.001,0
2018,5,17,19,43,48.189,-0.9149,0.002,-0.3557,0.1905,0.3,-0.8,-0.6,-0.004,0,-0.002,0
2018,5,17,19,43,48.224,-0.9148,0.002,-0.3558,0.1906,0,-0.9,-0.5,-0.006,-0.002,-0.003,0
2018,5,17,19,43,48.245,-0.9148,0.0018,-0.356,0.1904,0.6,-0.8,-0.6,-0.002,0.008,-0.001,0
2018,5,17,19,43,48.25,-0.9148,0.0017,-0.356,0.1903,0,-0.9,-0.4,-0.006,-0.004,-0.003,1023
2018,5,17,19,43,48.287,-0.9148,0.0016,-0.3561,0.1902,0.4,-0.7,-0.5,-0.005,0,-0.008,1023
2018,5,17,19,43,48.309,-0.9148,0.0013,-0.3563,0.1901,0.7,-0.6,-0.5,-0.005,0.004,-0.005,1023
2018,5,17,19,43,48.313,-0.9148,0.0012,-0.3563,0.19,0,-0.8,-0.4,-0.008,0.003,0.002,1023
2018,5,17,19,43,48.33,-0.9147,0.0012,-0.3564,0.1901,0.1,-0.8,-0.5,-0.008,-0.002,0,1023
2018,5,17,19,43,48.353,-0.9147,0.0012,-0.3565,0.1901,0.6,-0.5,-0.4,-0.007,0.003,-0.002,1023
2018,5,17,19,43,48.372,-0.9147,0.0011,-0.3565,0.1901,0,0,0,-0.002,0.006,-0.008,1023
2018,5,17,19,43,48.394,-0.9147,0.001,-0.3565,0.1901,0,0,0,-0.005,0,-0.003,1023
2018,5,17,19,43,48.412,-0.9146,0.001,-0.3566,0.19,0,0,0,-0.005,0,-0.007,1023
2018,5,17,19,43,48.43,-0.9146,0.0009,-0.3567,0.19,0.2,-0.5,-0.4,0,-0.001,-0.002,1023
2018,5,17,19,43,48.453,-0.9146,0.0007,-0.3568,0.1897,0.2,-0.8,-0.5,-0.002,0.001,0,1023
2018,5,17,19,43,48.473,-0.9146,0.0006,-0.3569,0.1896,0.2,-0.8,-0.6,-0.005,0.003,0,0
2018,5,17,19,43,48.509,-0.9146,0.0006,-0.357,0.1897,0.4,-0.9,-0.4,-0.005,0.001,-0.006,0
2018,5,17,19,43,48.53,-0.9145,0.0006,-0.3571,0.1898,0,-1.1,-0.2,-0.009,0.001,-0.003,0
2018,5,17,19,43,48.535,-0.9144,0.0006,-0.3572,0.1899,0.1,-0.9,-0.4,-0.006,-0.001,-0.003,0
2018,5,17,19,43,48.553,-0.9144,0.0006,-0.3573,0.1901,0.7,-0.9,-0.4,-0.006,0,-0.004,0
2018,5,17,19,43,48.591,-0.9143,0.0006,-0.3573,0.1903,0.3,-0.8,-0.4,-0.005,0,-0.006,0
2018,5,17,19,43,48.615,-0.9143,0.0005,-0.3575,0.1902,0.4,-0.9,-0.3,-0.004,-0.001,-0.004,0
2018,5,17,19,43,48.618,-0.9142,0.0002,-0.3577,0.19,0.4,-0.9,-0.3,-0.006,0,-0.004,0
2018,5,17,19,43,48.632,-0.9142,0.0001,-0.3578,0.1899,0.2,-0.5,-0.4,-0.004,-0.006,-0.004,0
2018,5,17,19,43,48.67,-0.9142,0,-0.3579,0.1898,0,-0.5,-0.4,-0.002,0.002,-0.005,0
2018,5,17,19,43,48.693,-0.9142,0,-0.358,0.1897,0.2,-0.5,-0.2,-0.005,0.001,-0.009,0
2018,5,17,19,43,48.697,-0.9142,-0.0001,-0.358,0.1897,0,0,0,-0.007,0,-0.004,0
2018,5,17,19,43,48.714,-0.9142,-0.0001,-0.3581,0.1896,0.3,-0.4,-0.5,-0.004,0.001,0,0
2018,5,17,19,43,48.732,-0.9141,-0.0002,-0.3581,0.1896,0.2,-0.7,-0.6,-0.007,0.003,-0.002,0
2018,5,17,19,43,48.756,-0.9141,-0.0003,-0.3582,0.1897,0.2,-0.6,-0.2,-0.005,0.006,-0.001,0
2018,5,17,19,43,48.791,-0.9141,-0.0004,-0.3583,0.1895,0.4,-0.6,-0.2,-0.003,0.003,-0.003,0
2018,5,17,19,43,48.815,-0.9141,-0.0005,-0.3583,0.1896,0,0,0,-0.006,0.004,-0.007,0
2018,5,17,19,43,48.818,-0.9141,-0.0006,-0.3584,0.1895,0.4,-0.6,-0.1,-0.007,0,-0.008,0
2018,5,17,19,43,48.835,-0.914,-0.0006,-0.3584,0.1895,0,0,0,-0.005,0.002,-0.005,0
2018,5,17,19,43,48.858,-0.914,-0.0006,-0.3584,0.1895,0,0,0,-0.005,0.003,-0.001,0
2018,5,17,19,43,48.876,-0.914,-0.0007,-0.3584,0.1895,0,0,0,-0.005,0.003,-0.003,0
2018,5,17,19,43,48.894,-0.914,-0.0007,-0.3584,0.1895,0,0,0,-0.004,-0.002,-0.003,0
2018,5,17,19,43,48.913,-0.914,-0.0006,-0.3584,0.1895,0,0,0,-0.003,-0.004,-0.004,0
2018,5,17,19,43,48.936,-0.914,-0.0006,-0.3584,0.1895,0,0,0,-0.005,-0.002,-0.006,0
2018,5,17,19,43,48.957,-0.914,-0.0006,-0.3584,0.1896,0,0,0,-0.003,0.003,-0.004,0
2018,5,17,19,43,48.976,-0.914,-0.0007,-0.3584,0.1895,0.7,-0.4,-0.1,-0.004,0,-0.01,0
2018,5,17,19,43,49.013,-0.9141,-0.0008,-0.3584,0.1895,0,0,0,-0.01,0.007,0.002,0
2018,5,17,19,43,49.036,-0.9141,-0.0008,-0.3584,0.1895,0,0,0,-0.001,0.002,-0.014,0
2018,5,17,19,43,49.041,-0.914,-0.0008,-0.3584,0.1895,0,0,0,0,0.005,-0.01,0
2018,5,17,19,43,49.054,-0.9141,-0.0009,-0.3584,0.1895,0,0,0,-0.004,0,0.002,0
2018,5,17,19,43,49.071,-0.9141,-0.0008,-0.3584,0.1895,0,0,0,-0.008,-0.009,0,0
2018,5,17,19,43,49.094,-0.9141,-0.0008,-0.3584,0.1895,0.5,-0.2,-0.2,-0.005,0.001,-0.014,0
2018,5,17,19,43,49.132,-0.914,-0.001,-0.3584,0.1896,0.5,0.1,0.1,-0.006,0.009,-0.013,0
2018,5,17,19,43,49.132,-0.914,-0.001,-0.3584,0.1896,0,0,0,-0.005,0.007,-0.007,0
2018,5,17,19,43,49.157,-0.9141,-0.001,-0.3584,0.1896,0,0,0,-0.003,-0.002,-0.003,0
2018,5,17,19,43,49.174,-0.9141,-0.001,-0.3584,0.1896,0,0,0,-0.002,0,-0.003,1023
2018,5,17,19,43,49.198,-0.914,-0.0011,-0.3584,0.1895,0,0,0,0.002,0.006,-0.003,1023
2018,5,17,19,43,49.233,-0.914,-0.0012,-0.3584,0.1895,0,0,0,-0.004,0.008,-0.008,1023
2018,5,17,19,43,49.256,-0.914,-0.0012,-0.3584,0.1895,0,0,0,-0.006,0.002,-0.001,1023
2018,5,17,19,43,49.261,-0.9141,-0.0012,-0.3584,0.1895,0,0,0,-0.008,0.002,-0.002,1023
2018,5,17,19,43,49.278,-0.9141,-0.0012,-0.3583,0.1894,-0.5,0.3,0.3,-0.007,-0.001,-0.006,1023
2018,5,17,19,43,49.301,-0.9141,-0.001,-0.3582,0.1895,-0.4,0.5,0.3,-0.004,-0.003,-0.005,1023
2018,5,17,19,43,49.322,-0.9141,-0.001,-0.3582,0.1896,0,0.6,0.3,-0.006,0.002,-0.002,1023
2018,5,17,19,43,49.337,-0.9142,-0.0009,-0.358,0.1896,-0.2,0.7,0.3,-0.004,0,0,1023
2018,5,17,19,43,49.353,-0.9142,-0.0008,-0.358,0.1896,0,0,0,-0.005,-0.006,-0.001,1023
2018,5,17,19,43,49.377,-0.9142,-0.0008,-0.358,0.1897,-0.2,0.6,0.2,-0.007,-0.001,-0.006,1023
2018,5,17,19,43,49.414,-0.9142,-0.0008,-0.3579,0.1896,0,0.7,0.2,-0.006,-0.001,-0.007,0
2018,5,17,19,43,49.435,-0.9143,-0.0007,-0.3578,0.1896,-0.2,0.7,0.3,-0.005,0.004,-0.005,0
2018,5,17,19,43,49.439,-0.9143,-0.0006,-0.3577,0.1898,-0.5,0.7,0.5,-0.006,0.003,-0.006,0
2018,5,17,19,43,49.473,-0.9143,-0.0004,-0.3575,0.19,-0.1,0.7,0.3,-0.007,-0.001,-0.01,0
2018,5,17,19,43,49.497,-0.9143,-0.0003,-0.3573,0.1901,0,0.8,0.2,-0.007,0.004,-0.007,0
2018,5,17,19,43,49.502,-0.9144,-0.0003,-0.3572,0.1903,0,1,0.4,-0.005,0.009,-0.004,0
2018,5,17,19,43,49.519,-0.9144,-0.0001,-0.357,0.1905,-0.2,1,0.9,-0.003,0.006,-0.01,0
2018,5,17,19,43,49.542,-0.9144,-0.0001,-0.3568,0.1906,-0.5,1.1,1,-0.003,0,-0.002,0
2018,5,17,19,43,49.558,-0.9145,0,-0.3567,0.1906,-0.5,1,0.9,-0.005,0,-0.006,0
2018,5,17,19,43,49.578,-0.9145,0.0002,-0.3566,0.1908,-0.2,0.9,0.7,-0.006,-0.005,0,0
2018,5,17,19,43,49.616,-0.9145,0.0003,-0.3564,0.1908,0,0.8,0.5,-0.005,-0.001,-0.006,0
2018,5,17,19,43,49.639,-0.9146,0.0005,-0.3562,0.191,-0.2,0.8,0.5,-0.004,0,-0.003,0
2018,5,17,19,43,49.644,-0.9146,0.0007,-0.356,0.1912,-0.5,0.8,0.5,-0.006,0.001,-0.003,0
2018,5,17,19,43,49.66,-0.9147,0.0009,-0.3559,0.1913,-0.3,0.9,0.4,-0.007,0,0,0
2018,5,17,19,43,49.679,-0.9147,0.001,-0.3557,0.1913,-0.3,0.8,0.5,-0.007,0,-0.005,0
2018,5,17,19,43,49.702,-0.9148,0.0011,-0.3555,0.1914,0,1,0.3,-0.008,-0.001,-0.005,0
2018,5,17,19,43,49.72,-0.9148,0.0011,-0.3554,0.1914,-0.4,1,0.5,-0.001,0.002,-0.006,0
2018,5,17,19,43,49.744,-0.9149,0.0013,-0.3552,0.1915,-0.5,0.8,0.5,-0.005,0.002,-0.003,0
2018,5,17,19,43,49.76,-0.9149,0.0015,-0.355,0.1918,-0.4,1,0.7,-0.005,0.009,0.003,0
2018,5,17,19,43,49.782,-0.9149,0.0018,-0.3548,0.192,-0.7,0.7,0.5,-0.008,-0.004,-0.007,0
2018,5,17,19,43,49.801,-0.9149,0.0021,-0.3547,0.1923,0.1,0.7,0.3,-0.004,-0.003,0,0
2018,5,17,19,43,49.819,-0.915,0.0021,-0.3545,0.1924,0.5,0.6,0.2,-0.007,0.003,0.003,0
2018,5,17,19,43,49.842,-0.915,0.002,-0.3544,0.1924,0,0,0,-0.008,0,-0.003,0
2018,5,17,19,43,49.859,-0.915,0.0021,-0.3543,0.1925,0,0,0,-0.01,-0.001,-0.003,0
2018,5,17,19,43,49.904,-0.9151,0.0021,-0.3542,0.1925,-0.1,0.5,0.3,-0.008,0.001,-0.011,0
2018,5,17,19,43,49.907,-0.9151,0.002,-0.3541,0.1924,0,0.9,0.5,-0.003,0.004,-0.009,0
2018,5,17,19,43,49.92,-0.9151,0.002,-0.3541,0.1924,-0.3,0.8,0.8,-0.003,0.002,-0.002,0
2018,5,17,19,43,49.942,-0.9152,0.0022,-0.3539,0.1927,-0.3,0.8,0.4,-0.004,-0.003,-0.002,0
2018,5,17,19,43,49.976,-0.9152,0.0023,-0.3538,0.1927,0.1,0.5,0.1,-0.005,0,-0.005,0
2018,5,17,19,43,49.976,-0.9152,0.0022,-0.3538,0.1926,0,0,0,-0.004,0.006,-0.006,0
2018,5,17,19,43,50,-0.9152,0.0022,-0.3537,0.1926,0,0.6,0.2,-0.005,0.008,-0.005,0
2018,5,17,19,43,50.037,-0.9152,0.0022,-0.3536,0.1928,-0.2,1,0.5,-0.007,0.005,-0.011,0
2018,5,17,19,43,50.061,-0.9153,0.0023,-0.3534,0.1928,-0.5,0.8,0.7,-0.008,0.006,-0.004,0
2018,5,17,19,43,50.066,-0.9153,0.0025,-0.3533,0.193,-0.8,0.7,0.8,-0.005,0.002,0,0
2018,5,17,19,43,50.083,-0.9153,0.0028,-0.3532,0.1931,-0.2,0.8,0.6,-0.005,-0.008,-0.005,0
2018,5,17,19,43,50.099,-0.9154,0.0029,-0.353,0.1932,0.3,0.8,0.4,-0.005,-0.007,-0.004,0
2018,5,17,19,43,50.123,-0.9154,0.0028,-0.3529,0.1932,0.4,0.7,0.5,-0.008,0,-0.001,1023
2018,5,17,19,43,50.159,-0.9155,0.0028,-0.3528,0.1932,0,0.5,0.4,-0.007,-0.001,-0.002,1023
2018,5,17,19,43,50.182,-0.9155,0.003,-0.3525,0.1935,0.2,0.8,0.2,-0.006,-0.003,0,1023
2018,5,17,19,43,50.187,-0.9156,0.0029,-0.3524,0.1934,0,1.1,0.5,-0.005,0.004,-0.004,1023
2018,5,17,19,43,50.203,-0.9157,0.0029,-0.3522,0.1933,-0.3,1,0.5,-0.005,0.004,-0.005,1023
2018,5,17,19,43,50.225,-0.9157,0.003,-0.3521,0.1933,-0.3,0.9,0.6,-0.008,0.001,0,1023
2018,5,17,19,43,50.242,-0.9158,0.0031,-0.3519,0.1934,-0.5,0.8,0.4,-0.008,0.003,-0.003,1023
2018,5,17,19,43,50.277,-0.9158,0.0031,-0.3518,0.1932,-0.3,0.7,0.3,-0.008,0,-0.007,1023
2018,5,17,19,43,50.3,-0.9159,0.0032,-0.3517,0.1933,-0.3,0.8,0.4,-0.002,0,-0.01,1023
2018,5,17,19,43,50.305,-0.9159,0.0032,-0.3516,0.1933,0,0.6,0.4,-0.006,0.002,-0.008,1023
2018,5,17,19,43,50.322,-0.9159,0.0034,-0.3514,0.1935,-0.1,0.8,0.6,-0.004,0.004,-0.006,1023
2018,5,17,19,43,50.344,-0.9159,0.0034,-0.3513,0.1936,-0.4,0.7,0.4,-0.004,0.001,0,0
2018,5,17,19,43,50.363,-0.916,0.0034,-0.3512,0.1935,-0.3,0.7,0.5,-0.008,-0.003,-0.001,0
2018,5,17,19,43,50.387,-0.916,0.0036,-0.3511,0.1936,0,0.6,0.3,-0.007,-0.001,-0.01,0
2018,5,17,19,43,50.407,-0.916,0.0036,-0.351,0.1936,0,0.7,0.3,-0.007,0.001,-0.002,0
2018,5,17,19,43,50.427,-0.9161,0.0037,-0.3509,0.1937,-0.2,0.5,0.4,-0.009,0.002,-0.008,0
2018,5,17,19,43,50.445,-0.9161,0.0038,-0.3508,0.1938,-0.3,0.7,0.4,-0.008,0.001,-0.004,0
2018,5,17,19,43,50.483,-0.9162,0.0038,-0.3507,0.1938,-0.5,0.9,0.3,-0.005,-0.001,-0.002,0
2018,5,17,19,43,50.483,-0.9162,0.004,-0.3505,0.1938,-0.3,0.7,0.4,-0.004,-0.001,-0.004,0
2018,5,17,19,43,50.506,-0.9162,0.0041,-0.3504,0.1938,-0.1,0.7,0.3,-0.005,0,0,0
2018,5,17,19,43,50.523,-0.9163,0.0042,-0.3503,0.1938,-0.3,0.6,0.2,-0.005,0.001,-0.001,0
2018,5,17,19,43,50.547,-0.9163,0.0042,-0.3502,0.1938,-0.3,0.6,0.2,-0.006,0.003,-0.003,0
2018,5,17,19,43,50.581,-0.9164,0.0043,-0.3501,0.1938,-0.3,0.8,0.4,-0.008,0.001,-0.005,0
2018,5,17,19,43,50.604,-0.9164,0.0045,-0.35,0.1939,-0.5,0.6,0.3,-0.007,0,-0.006,0
2018,5,17,19,43,50.609,-0.9164,0.0044,-0.3499,0.1938,-0.3,0.6,0.4,-0.006,0.002,-0.003,0
2018,5,17,19,43,50.628,-0.9165,0.0045,-0.3498,0.1938,-0.5,0.5,0.3,-0.006,0.001,0,0
2018,5,17,19,43,50.662,-0.9165,0.0046,-0.3497,0.1938,0,0,0,-0.004,0,-0.002,0
2018,5,17,19,43,50.685,-0.9165,0.0048,-0.3496,0.1939,0,0,0,-0.007,0,0,0
2018,5,17,19,43,50.689,-0.9165,0.0049,-0.3496,0.194,0,0,0,-0.006,-0.005,-0.007,0
2018,5,17,19,43,50.706,-0.9165,0.0049,-0.3496,0.194,0,0,0,-0.008,0.003,-0.003,0
2018,5,17,19,43,50.726,-0.9165,0.0049,-0.3495,0.194,0,0,0,-0.007,-0.002,0,0
2018,5,17,19,43,50.743,-0.9165,0.005,-0.3495,0.1941,0,0,0,-0.006,-0.003,-0.005,0
2018,5,17,19,43,50.767,-0.9165,0.0049,-0.3494,0.1942,0.4,0.5,0.1,-0.006,0.002,-0.003,0
2018,5,17,19,43,50.784,-0.9165,0.005,-0.3493,0.1944,0,0,0,-0.01,0,-0.005,0
2018,5,17,19,43,50.807,-0.9165,0.005,-0.3493,0.1944,0,0,0,-0.006,0.004,-0.007,0
2018,5,17,19,43,50.843,-0.9166,0.005,-0.3492,0.1943,-0.5,0.7,0.3,-0.004,0.004,-0.006,0
2018,5,17,19,43,50.865,-0.9166,0.005,-0.3491,0.1942,-0.6,0.7,0.5,-0.006,0,-0.008,0
2018,5,17,19,43,50.87,-0.9166,0.0053,-0.349,0.1944,-0.7,0.7,0.6,-0.007,-0.002,-0.004,0
2018,5,17,19,43,50.887,-0.9166,0.0055,-0.3489,0.1945,-0.2,0.5,0.3,-0.003,-0.004,0,0
2018,5,17,19,43,50.911,-0.9167,0.0055,-0.3488,0.1946,0.2,0.6,-0.1,-0.003,0.001,0,0
2018,5,17,19,43,50.924,-0.9167,0.0055,-0.3488,0.1945,0,0,0,-0.003,0.007,-0.004,0
2018,5,17,19,43,50.949,-0.9167,0.0054,-0.3488,0.1945,0,0,0,-0.006,0.007,-0.009,0
2018,5,17,19,43,50.967,-0.9167,0.0054,-0.3488,0.1945,0,0,0,-0.01,0.004,-0.003,0
2018,5,17,19,43,51.002,-0.9167,0.0055,-0.3487,0.1945,0,0,0,-0.01,0.002,0,1023
2018,5,17,19,43,51.026,-0.9167,0.0057,-0.3486,0.1947,0,0,0,-0.006,-0.006,-0.005,1023
2018,5,17,19,43,51.03,-0.9167,0.0057,-0.3486,0.1947,0,0,0,-0.005,-0.008,-0.004,1023
2018,5,17,19,43,51.047,-0.9167,0.0058,-0.3486,0.1948,0,0,0,-0.008,-0.001,0,1023
2018,5,17,19,43,51.07,-0.9167,0.0058,-0.3486,0.1948,0,0,0,-0.007,0,0,1023
2018,5,17,19,43,51.087,-0.9167,0.0058,-0.3485,0.1948,0,0,0,-0.006,-0.001,-0.003,1023
2018,5,17,19,43,51.111,-0.9167,0.0058,-0.3485,0.1948,0,0,0,-0.006,-0.002,-0.001,1023
2018,5,17,19,43,51.147,-0.9167,0.0058,-0.3485,0.1948,0,0,0,-0.006,-0.002,-0.004,1023
2018,5,17,19,43,51.169,-0.9167,0.0058,-0.3485,0.1948,0,0,0,-0.008,0.002,-0.003,1023
2018,5,17,19,43,51.173,-0.9168,0.0058,-0.3485,0.1948,0,0,0,-0.007,0.003,-0.003,1023
2018,5,17,19,43,51.187,-0.9168,0.0058,-0.3484,0.1948,0,0,0,-0.011,0.001,-0.006,0
2018,5,17,19,43,51.208,-0.9168,0.0058,-0.3484,0.1948,0,0,0,-0.008,0.002,-0.002,0
2018,5,17,19,43,51.244,-0.9168,0.0058,-0.3484,0.1948,0,0,0,-0.006,0.001,-0.006,0
2018,5,17,19,43,51.266,-0.9168,0.0058,-0.3484,0.1948,0,0,0,-0.009,-0.001,-0.007,0
2018,5,17,19,43,51.271,-0.9168,0.0059,-0.3484,0.1948,0,0,0,-0.006,0,-0.004,0
2018,5,17,19,43,51.289,-0.9168,0.0059,-0.3483,0.1948,0,0,0,-0.006,0,-0.005,0
2018,5,17,19,43,51.312,-0.9168,0.0059,-0.3483,0.1948,0,0,0,-0.007,-0.002,-0.002,0
2018,5,17,19,43,51.33,-0.9168,0.0059,-0.3483,0.1948,0,0,0,-0.007,-0.003,-0.001,0
2018,5,17,19,43,51.353,-0.9168,0.0059,-0.3483,0.1948,0,0,0,-0.007,-0.001,-0.003,0
2018,5,17,19,43,51.373,-0.9168,0.006,-0.3482,0.1948,0,0,0,-0.007,0,-0.005,0
2018,5,17,19,43,51.392,-0.9168,0.006,-0.3482,0.1949,0,0,0,-0.008,-0.004,0,0
2018,5,17,19,43,51.415,-0.9169,0.006,-0.3482,0.1949,0,0,0,-0.007,-0.003,0,0
2018,5,17,19,43,51.43,-0.9169,0.0061,-0.3481,0.1949,0,0,0,-0.006,-0.001,0,0
2018,5,17,19,43,51.465,-0.9169,0.0061,-0.3481,0.1949,0,0,0,-0.008,-0.002,-0.002,0
2018,5,17,19,43,51.489,-0.9169,0.0061,-0.3481,0.1949,0,0,0,-0.007,-0.002,-0.004,0
2018,5,17,19,43,51.493,-0.9169,0.0061,-0.348,0.1949,0,0,0,-0.007,0,-0.003,0
2018,5,17,19,43,51.508,-0.9169,0.0061,-0.348,0.1949,0,0,0,-0.007,0.001,-0.004,0
2018,5,17,19,43,51.53,-0.9169,0.0061,-0.3479,0.1949,0,0,0,-0.008,0.002,-0.006,0
2018,5,17,19,43,51.568,-0.9169,0.0061,-0.3479,0.1949,0,0,0,-0.008,0,-0.004,0
2018,5,17,19,43,51.592,-0.917,0.0061,-0.3479,0.1949,0,0,0,-0.008,0,-0.005,0
2018,5,17,19,43,51.596,-0.917,0.0061,-0.3478,0.1949,0,0,0,-0.006,0,-0.006,0
2018,5,17,19,43,51.611,-0.917,0.0062,-0.3478,0.1949,0,0,0,-0.008,0.003,-0.002,0
2018,5,17,19,43,51.631,-0.917,0.0062,-0.3478,0.195,-0.5,0,0,-0.006,-0.001,-0.002,0
2018,5,17,19,43,51.668,-0.917,0.0063,-0.3478,0.195,0,0,0,-0.007,-0.004,-0.004,0
2018,5,17,19,43,51.692,-0.917,0.0063,-0.3477,0.195,0,0,0,-0.006,-0.003,0.003,0
2018,5,17,19,43,51.696,-0.917,0.0064,-0.3477,0.1951,0,0,0,-0.002,-0.011,-0.007,0
2018,5,17,19,43,51.713,-0.917,0.0065,-0.3477,0.1952,0.8,-0.3,-0.4,-0.007,-0.004,0,0
2018,5,17,19,43,51.731,-0.9169,0.0065,-0.3476,0.1954,0.8,-0.6,-0.5,-0.009,0,0,1023
2018,5,17,19,43,51.755,-0.9169,0.0064,-0.3476,0.1955,0.5,-0.8,-0.7,-0.009,0,-0.002,1023
2018,5,17,19,43,51.77,-0.9169,0.0064,-0.3477,0.1955,0.1,-0.7,-0.5,-0.006,0.002,-0.008,1023
2018,5,17,19,43,51.793,-0.9169,0.0063,-0.3478,0.1955,0,0,0,-0.009,0.002,-0.008,1023
2018,5,17,19,43,51.831,-0.9169,0.0062,-0.3478,0.1954,0,0,0,-0.004,0.001,-0.004,1023
2018,5,17,19,43,51.855,-0.9169,0.0062,-0.3479,0.1953,0,0,0,-0.004,-0.003,-0.006,1023
2018,5,17,19,43,51.859,-0.9168,0.0061,-0.348,0.1953,0.6,-0.6,-0.4,-0.005,-0.005,-0.004,1023
2018,5,17,19,43,51.875,-0.9168,0.0058,-0.3481,0.1951,0.3,-0.7,-0.7,-0.005,0.005,-0.001,1023
2018,5,17,19,43,51.894,-0.9168,0.0056,-0.3482,0.1949,0.1,-0.7,-0.5,-0.005,0.002,-0.001,1023
2018,5,17,19,43,51.911,-0.9168,0.0056,-0.3483,0.1949,0,-0.7,-0.4,-0.008,0.001,-0.005,1023
2018,5,17,19,43,51.934,-0.9168,0.0057,-0.3483,0.195,0,-0.6,-0.2,-0.009,0,-0.004,1023
2018,5,17,19,43,51.951,-0.9167,0.0057,-0.3484,0.195,-0.3,-0.6,-0.1,-0.007,0,-0.001,1023
2018,5,17,19,43,51.99,-0.9167,0.0057,-0.3485,0.195,-0.2,-0.6,-0.3,-0.006,-0.005,-0.001,1023
2018,5,17,19,43,52.012,-0.9167,0.0057,-0.3486,0.1949,0.4,-0.8,-0.3,-0.005,-0.006,-0.003,0
2018,5,17,19,43,52.016,-0.9166,0.0057,-0.3487,0.1949,0.1,-0.6,-0.3,-0.003,0,-0.006,0
2018,5,17,19,43,52.033,-0.9166,0.0057,-0.3488,0.1949,0,-0.7,-0.5,-0.007,-0.002,-0.003,0
2018,5,17,19,43,52.055,-0.9166,0.0057,-0.3489,0.1949,0,-0.5,-0.6,-0.006,-0.004,-0.002,0
2018,5,17,19,43,52.075,-0.9165,0.0057,-0.349,0.1949,0,-0.6,-0.5,-0.009,-0.002,0.001,0
2018,5,17,19,43,52.098,-0.9165,0.0057,-0.349,0.1949,0.2,-0.5,-0.4,-0.006,0.001,-0.005,0
2018,5,17,19,43,52.117,-0.9165,0.0056,-0.3491,0.1949,0.1,-0.8,-0.5,-0.005,0.004,-0.005,0
2018,5,17,19,43,52.139,-0.9164,0.0056,-0.3492,0.195,0,-0.8,-0.4,-0.009,0.001,-0.001,0
2018,5,17,19,43,52.156,-0.9164,0.0057,-0.3493,0.195,-0.2,-0.8,-0.5,-0.004,0.002,-0.006,0
2018,5,17,19,43,52.176,-0.9164,0.0056,-0.3495,0.1949,-0.1,-0.9,-0.4,-0.006,-0.002,-0.002,0
2018,5,17,19,43,52.211,-0.9164,0.0054,-0.3496,0.1946,0,-0.9,-0.4,-0.004,0,-0.006,0
2018,5,17,19,43,52.235,-0.9163,0.0052,-0.3498,0.1944,0.2,-0.6,-0.3,-0.006,-0.001,-0.004,0
2018,5,17,19,43,52.238,-0.9163,0.0051,-0.3499,0.1942,0,-0.6,-0.2,-0.006,0.001,-0.005,0
2018,5,17,19,43,52.256,-0.9163,0.005,-0.3501,0.1941,0,-0.9,-0.5,-0.004,-0.001,-0.004,0
2018,5,17,19,43,52.278,-0.9163,0.0049,-0.3501,0.1941,0,-0.6,-0.5,-0.006,0,-0.004,0
2018,5,17,19,43,52.314,-0.9162,0.0049,-0.3503,0.194,0,-1,-0.4,-0.01,0,-0.005,0
2018,5,17,19,43,52.338,-0.9162,0.005,-0.3504,0.1941,0,-0.8,-0.5,-0.006,0,-0.001,0
2018,5,17,19,43,52.341,-0.9162,0.0049,-0.3505,0.1941,0,-0.5,-0.4,-0.006,0,-0.006,0
2018,5,17,19,43,52.356,-0.9161,0.0048,-0.3506,0.194,0,-0.6,-0.6,-0.007,-0.001,-0.004,0
2018,5,17,19,43,52.376,-0.9161,0.0047,-0.3507,0.1938,0,-0.6,-0.6,-0.005,0,-0.003,0
2018,5,17,19,43,52.413,-0.9161,0.0046,-0.3508,0.1937,0,-0.8,-0.5,-0.007,0.004,0,0
2018,5,17,19,43,52.435,-0.9161,0.0046,-0.3509,0.1936,0,-0.8,-0.5,-0.005,0.002,-0.001,0
2018,5,17,19,43,52.44,-0.9161,0.0046,-0.351,0.1936,0,-0.8,-0.6,-0.006,0.002,-0.005,0
2018,5,17,19,43,52.457,-0.9161,0.0044,-0.3511,0.1933,-0.2,-0.6,-0.7,-0.004,0.001,-0.002,0
2018,5,17,19,43,52.477,-0.9161,0.0043,-0.3512,0.1932,-0.1,-0.8,-0.4,-0.005,0.002,-0.003,0
2018,5,17,19,43,52.5,-0.916,0.0042,-0.3513,0.1931,0.4,-0.6,-0.4,-0.003,0,-0.001,1023
2018,5,17,19,43,52.536,-0.916,0.0041,-0.3514,0.1931,0,-1,-0.4,-0.007,0,0,1023
2018,5,17,19,43,52.559,-0.916,0.0042,-0.3515,0.1932,0.2,-0.8,-0.5,-0.003,-0.002,-0.01,1023
2018,5,17,19,43,52.564,-0.9159,0.0041,-0.3516,0.1932,0.8,-0.6,-0.4,-0.004,0.001,-0.007,1023
2018,5,17,19,43,52.579,-0.9159,0.0038,-0.3516,0.1931,0.2,-0.6,-0.4,-0.004,0.003,-0.001,1023
2018,5,17,19,43,52.603,-0.9159,0.0037,-0.3517,0.1929,-0.1,-0.7,-0.5,-0.008,-0.004,0,1023
2018,5,17,19,43,52.618,-0.9159,0.0036,-0.3518,0.1927,0,-0.5,-0.4,-0.008,-0.002,-0.005,1023
2018,5,17,19,43,52.652,-0.9159,0.0037,-0.3519,0.1928,0,0,0,-0.004,0.002,-0.009,0
2018,5,17,19,43,52.676,-0.9159,0.0036,-0.3519,0.1927,-0.1,-0.5,-0.2,-0.006,0,-0.008,0
2018,5,17,19,43,52.68,-0.9159,0.0036,-0.352,0.1926,-0.1,-0.6,-0.3,-0.004,-0.002,-0.001,0
2018,5,17,19,43,52.7,-0.9158,0.0036,-0.3521,0.1926,0,-0.6,-0.5,0,-0.003,-0.003,0
2018,5,17,19,43,52.737,-0.9158,0.0036,-0.3523,0.1925,0.3,-1,-0.8,-0.005,0.006,-0.005,0
2018,5,17,19,43,52.76,-0.9157,0.0036,-0.3523,0.1927,0.1,-1,-0.5,-0.001,0.004,-0.01,0
2018,5,17,19,43,52.764,-0.9157,0.0034,-0.3525,0.1926,0.2,-0.8,-0.5,-0.005,0.007,-0.005,0
2018,5,17,19,43,52.782,-0.9157,0.0034,-0.3525,0.1927,0,-0.7,-0.2,-0.003,0.006,-0.003,0
2018,5,17,19,43,52.799,-0.9156,0.0035,-0.3526,0.1928,-0.3,-0.6,0,-0.006,0,-0.001,0
2018,5,17,19,43,52.822,-0.9156,0.0034,-0.3527,0.1925,-0.2,-0.6,0,-0.008,-0.005,-0.009,0
2018,5,17,19,43,52.839,-0.9156,0.0034,-0.3529,0.1925,0,-0.6,-0.2,-0.005,-0.001,-0.007,0
2018,5,17,19,43,52.856,-0.9156,0.0033,-0.353,0.1924,-0.1,-0.7,-0.2,-0.002,0.001,-0.005,0
2018,5,17,19,43,52.878,-0.9155,0.0033,-0.3531,0.1923,-0.1,-0.6,-0.3,-0.006,-0.004,-0.005,0
2018,5,17,19,43,52.915,-0.9155,0.0032,-0.3532,0.1922,0.2,-0.6,-0.5,-0.007,-0.008,-0.005,0
2018,5,17,19,43,52.938,-0.9155,0.0033,-0.3532,0.1923,0,0,0,-0.009,0.001,-0.005,0
2018,5,17,19,43,52.943,-0.9155,0.0032,-0.3533,0.1922,0,0,0,-0.005,0.001,-0.009,0
2018,5,17,19,43,52.96,-0.9155,0.0031,-0.3533,0.1922,0,0,0,-0.01,0.003,0,0
2018,5,17,19,43,52.983,-0.9155,0.0032,-0.3533,0.1924,0,0,0,0.009,0,-0.004,0
2018,5,17,19,43,53.02,-0.9154,0.0029,-0.3534,0.1923,1.7,-0.3,1,0.01,-0.009,-0.016,0
2018,5,17,19,43,53.02,-0.9152,0.0027,-0.3536,0.1928,2.9,-0.7,1.1,0.008,-0.013,-0.024,0
2018,5,17,19,43,53.042,-0.9151,0.0024,-0.3538,0.1932,3,-0.7,0.4,0.006,-0.001,-0.018,0
2018,5,17,19,43,53.06,-0.9149,0.0021,-0.3541,0.1936,0.6,-2.4,1.6,0,0.004,-0.03,0
2018,5,17,19,43,53.097,-0.9145,0.0023,-0.3546,0.1942,1.9,-1.4,5.2,0.013,-0.034,-0.019,0
2018,5,17,19,43,53.12,-0.914,0.0027,-0.3549,0.1961,3.9,-0.2,12.6,0.048,-0.039,0.003,0
2018,5,17,19,43,53.124,-0.913,0.0036,-0.3558,0.1991,2.3,-5.3,21.8,0.125,-0.049,0.008,0
2018,5,17,19,43,53.142,-0.9114,0.004,-0.3575,0.2035,9.9,-11.6,30.1,0.225,-0.111,-0.055,0
2018,5,17,19,43,53.159,-0.9094,0.0019,-0.3593,0.2093,30,-20.1,28.3,0.275,-0.212,-0.095,1023
2018,5,17,19,43,53.183,-0.9071,-0.0051,-0.3611,0.2157,57.1,-24.7,18.1,0.324,-0.031,-0.146,1023
2018,5,17,19,43,53.219,-0.9048,-0.0117,-0.3631,0.222,29,-21.3,23.7,0.224,-0.041,-0.164,1023
2018,5,17,19,43,53.243,-0.9029,-0.0146,-0.3648,0.2267,23.8,-8.8,18.3,0.254,-0.181,-0.315,1023
2018,5,17,19,43,53.248,-0.9023,-0.0183,-0.3634,0.231,34.1,11.4,11.6,0.19,-0.076,-0.283,1023
2018,5,17,19,43,53.263,-0.9031,-0.0228,-0.3587,0.2348,40.3,26.4,6.7,0.136,-0.106,-0.091,1023
2018,5,17,19,43,53.286,-0.9045,-0.0285,-0.3522,0.2385,52.6,31.2,-0.4,0.053,-0.076,0.052,1023
2018,5,17,19,43,53.301,-0.9064,-0.0361,-0.3448,0.2411,56.6,30,-9.9,0.026,0.046,0.036,1023
2018,5,17,19,43,53.319,-0.9085,-0.0445,-0.3379,0.2415,43.3,29.5,-18.5,0.034,0.154,-0.044,1023
2018,5,17,19,43,53.342,-0.9108,-0.0492,-0.3316,0.2408,19.5,30.2,-18.9,0.092,0.187,-0.129,1023
2018,5,17,19,43,53.379,-0.9132,-0.0507,-0.3261,0.2387,6.9,31.2,-19.8,0.127,0.071,-0.327,1023
2018,5,17,19,43,53.403,-0.9158,-0.0507,-0.3205,0.2361,-1.4,34.7,-19.9,0.051,0.008,-0.367,0
2018,5,17,19,43,53.406,-0.9187,-0.0498,-0.3145,0.2335,-0.8,36.9,-19,-0.001,-0.042,-0.306,0
2018,5,17,19,43,53.422,-0.9214,-0.0492,-0.3083,0.2312,1.7,38.8,-14.6,-0.018,-0.092,-0.248,0
2018,5,17,19,43,53.443,-0.9241,-0.0488,-0.3013,0.2298,6.5,43,-13.1,0.069,-0.125,-0.189,0
2018,5,17,19,43,53.481,-0.9268,-0.0492,-0.2936,0.2285,12.9,45.3,-15.5,0.232,-0.151,-0.119,0
2018,5,17,19,43,53.503,-0.9296,-0.0509,-0.2855,0.2271,24.1,41.7,-19.7,0.315,-0.25,0.139,0
2018,5,17,19,43,53.508,-0.9319,-0.0554,-0.2781,0.2258,33.3,27.7,-25.5,0.27,-0.286,0.513,0
2018,5,17,19,43,53.526,-0.9335,-0.0634,-0.2724,0.2241,54.3,7.6,-29.4,0.015,-0.346,0.776,0
2018,5,17,19,43,53.544,-0.9326,-0.0774,-0.2722,0.2236,92.5,-52.7,-18,-1.053,-0.006,0.978,0
2018,5,17,19,43,53.581,-0.9275,-0.0965,-0.2814,0.226,99.6,-101.3,0,-1.212,-0.042,0.154,0
2018,5,17,19,43,53.603,-0.9198,-0.1155,-0.2954,0.2307,65,-106.5,24.8,-1.307,0.578,-0.501,0
2018,5,17,19,43,53.608,-0.9118,-0.1167,-0.3136,0.2376,-53.1,-106,78.1,-0.749,0.449,-0.689,0
2018,5,17,19,43,53.623,-0.9044,-0.1018,-0.334,0.2449,-105.8,-82.2,91.1,-0.644,0.196,-0.688,0
2018,5,17,19,43,53.646,-0.8984,-0.0835,-0.3501,0.2512,-87.4,-53.1,77.1,-0.622,0.017,-0.514,0
2018,5,17,19,43,53.666,-0.8935,-0.0717,-0.3594,0.2594,-19.4,-3.9,81.7,0.169,-0.089,-0.349,0
2018,5,17,19,43,53.702,-0.8932,-0.0745,-0.3444,0.2793,202.2,156.9,105.5,1.905,-1.011,0.384,0
2018,5,17,19,43,53.725,-0.8907,-0.118,-0.2989,0.3213,503.8,171.3,114.4,0.418,-0.461,0.758,0
2018,5,17,19,43,53.729,-0.8793,-0.1735,-0.2509,0.3654,341.9,138.1,129.1,-0.179,0.996,0.133,0
2018,5,17,19,43,53.746,-0.8655,-0.192,-0.2244,0.4043,140.7,103.3,216.1,-0.463,0.681,-1.166,0
2018,5,17,19,43,53.764,-0.8458,-0.1963,-0.207,0.4507,163.1,115.4,267.2,0.544,0.3,-1.324,0
2018,5,17,19,43,53.8,-0.8235,-0.2011,-0.1787,0.4993,179,184.1,242,1.265,0.488,-1.097,0
2018,5,17,19,43,53.823,-0.8024,-0.1956,-0.146,0.5444,91,219.1,233.8,1.129,0.054,-1.504,0
2018,5,17,19,43,53.828,-0.7858,-0.1804,-0.1094,0.5812,118.6,264.4,148.3,0.662,-1.28,-1.503,0
2018,5,17,19,43,53.845,-0.7733,-0.1767,-0.0524,0.6066,285.8,306.8,57.2,-0.342,-0.781,-1.332,1023
2018,5,17,19,43,53.869,-0.7637,-0.1766,0.0136,0.6207,111.8,278.9,1.4,-0.498,1.029,0.096,1023
2018,5,17,19,43,53.884,-0.7693,-0.1389,0.0374,0.6223,-225,219.1,-97.5,0.445,-0.524,0.691,1023
2018,5,17,19,43,53.907,-0.7893,-0.0784,0.0469,0.6071,-204.7,272.4,-196,-1.302,-0.874,0.945,1023
2018,5,17,19,43,53.944,-0.8115,-0.0415,0.0789,0.5774,76.8,230.9,-243.7,0.996,-0.015,0.685,1023
2018,5,17,19,43,53.967,-0.8311,-0.0374,0.1188,0.5418,129.7,149.6,-267.5,0.318,-0.746,-0.777,1023
2018,5,17,19,43,53.972,-0.8556,-0.0302,0.1506,0.4942,61.8,138.9,-355,-0.163,-1.159,-0.5,1023
2018,5,17,19,43,53.989,-0.8838,-0.0225,0.1683,0.4358,54.1,3.8,-388.3,-0.798,-1.459,-0.801,1023
2018,5,17,19,43,54.007,-0.9116,-0.0303,0.1751,0.3706,228,-80.3,-401.5,-0.88,-2.608,0.261,1023
2018,5,17,19,43,54.028,-0.9313,-0.0867,0.1774,0.3059,437.2,-193.1,-222.7,-2.451,0.093,0.587,0
2018,5,17,19,43,54.045,-0.9378,-0.1487,0.1617,0.2685,174.7,-226,-78.3,-0.99,0.899,0.228,0
2018,5,17,19,43,54.069,-0.9463,-0.1528,0.1267,0.2548,-198.1,-188.1,-50.3,-0.738,0.367,-0.237,0
2018,5,17,19,43,54.104,-0.9596,-0.101,0.0905,0.246,-431.4,-86.2,-97.1,-0.329,0.087,-0.648,0
2018,5,17,19,43,54.127,-0.9701,-0.016,0.073,0.2306,-526.3,114.3,-160.8,-0.322,0.519,-0.195,0
2018,5,17,19,43,54.131,-0.9701,0.1066,0.1368,0.1696,-102.4,306.6,-166.1,-0.605,-0.227,0.299,0
2018,5,17,19,43,54.149,-0.965,0.1287,0.1831,0.136,6.3,294.4,-173.9,-0.059,-0.115,-0.342,0
2018,5,17,19,43,54.167,-0.9598,0.1293,0.228,0.0993,111.9,273.4,-157,0.393,-0.229,-0.775,0
2018,5,17,19,43,54.191,-0.9536,0.1152,0.2713,0.0603,168.6,260.6,-165.7,0.264,-0.448,-0.75,0
2018,5,17,19,43,54.224,-0.9445,0.103,0.3109,0.0223,79.6,245,-147.7,0.239,-0.157,-0.709,0
2018,5,17,19,43,54.247,-0.9315,0.1064,0.3476,-0.0034,-6.3,229.4,-99.7,0.01,-0.417,-0.746,0
2018,5,17,19,43,54.252,-0.9171,0.113,0.3817,-0.0192,-15.5,209.7,-61.5,-0.152,-0.596,-0.659,0
2018,5,17,19,43,54.267,-0.903,0.1179,0.4118,-0.031,-5.5,180.7,-51,-0.335,-0.421,-0.415,0
2018,5,17,19,43,54.304,-0.8907,0.1206,0.4361,-0.0425,5.7,146.1,-55.1,-0.417,-0.289,-0.266,0
2018,5,17,19,43,54.326,-0.883,0.1214,0.4499,-0.0547,28.3,27,-43,-1.063,0.28,1.669,0
2018,5,17,19,43,54.332,-0.8844,0.1313,0.4439,-0.0592,-176.7,-98.1,-94.5,-1.417,-0.709,3.843,0
2018,5,17,19,43,54.35,-0.8932,0.1805,0.4083,-0.0527,-114.4,-201.9,-40.7,-3.812,-0.048,1.243,0
2018,5,17,19,43,54.387,-0.9045,0.1919,0.3775,-0.0493,-58.1,-162.9,-32,0.202,1.255,-2.964,0
2018,5,17,19,43,54.411,-0.9034,0.2081,0.3716,-0.0477,-67.8,74.3,-66.1,1.194,0.098,-1.284,0
2018,5,17,19,43,54.414,-0.8943,0.2114,0.3888,-0.0643,35.4,146.6,-64.6,0.096,0.515,-0.41,0
2018,5,17,19,43,54.434,-0.8842,0.2123,0.4089,-0.0759,-47.5,118.1,-33.3,-0.043,-0.041,0.951,0
2018,5,17,19,43,54.45,-0.8747,0.227,0.4204,-0.0802,-48.1,53,-34.3,-1.103,-0.612,1.129,0
2018,5,17,19,43,54.485,-0.875,0.2218,0.4217,-0.0846,74.4,-15.2,9.5,0.178,0.417,-0.006,0
2018,5,17,19,43,54.485,-0.88,0.208,0.4176,-0.0881,92,-25.7,11.3,0.07,0.028,-0.226,1023
2018,5,17,19,43,54.509,-0.8852,0.1967,0.4116,-0.0903,39.1,-42,17.2,-0.299,0.265,-0.082,1023
2018,5,17,19,43,54.545,-0.8891,0.1952,0.4052,-0.0843,-24.9,-50.9,38,-0.315,0.225,-0.311,1023
2018,5,17,19,43,54.569,-0.8918,0.1985,0.3997,-0.0731,-44.9,-44.2,47.8,-0.141,0.189,-0.415,1023
2018,5,17,19,43,54.573,-0.8931,0.2033,0.3965,-0.061,-53.1,-26.9,46.8,-0.217,0.095,-0.245,1023
2018,5,17,19,43,54.59,-0.8933,0.2074,0.3955,-0.0506,-28.1,-12,38.3,-0.112,-0.123,-0.103,1023
2018,5,17,19,43,54.614,-0.8933,0.207,0.3962,-0.0446,1.6,0.2,28.5,-0.027,-0.057,-0.062,1023
2018,5,17,19,43,54.635,-0.8933,0.2041,0.3981,-0.0418,15.5,8.9,19.9,0.017,0.022,-0.036,1023
2018,5,17,19,43,54.651,-0.8932,0.2006,0.4004,-0.04,3,10.8,13.5,0.026,0.112,-0.009,1023
2018,5,17,19,43,54.675,-0.8927,0.1991,0.4023,-0.0381,-3.8,9.6,9.2,0.012,0.08,0.013,1023
2018,5,17,19,43,54.711,-0.8923,0.1986,0.4035,-0.0367,-6,5.6,6,0.022,0.046,0.04,0
2018,5,17,19,43,54.734,-0.892,0.199,0.4041,-0.0355,-5.9,3.3,4.6,0.038,0,0.016,0
2018,5,17,19,43,54.739,-0.8917,0.1997,0.4045,-0.0346,-5.8,2.6,3,0.026,-0.043,-0.014,0
2018,5,17,19,43,54.751,-0.8913,0.2004,0.405,-0.0348,3.7,3,-0.5,0.011,-0.074,-0.027,0
2018,5,17,19,43,54.788,-0.8912,0.2,0.4054,-0.0358,7.1,1.8,-3.1,-0.001,-0.033,-0.009,0
2018,5,17,19,43,54.811,-0.8913,0.1992,0.4054,-0.0369,5.4,0.6,-3.5,0,0.016,-0.016,0
2018,5,17,19,43,54.816,-0.8914,0.1988,0.4055,-0.0375,1.5,-0.6,-3.2,-0.014,0.013,-0.019,0
2018,5,17,19,43,54.832,-0.8914,0.1988,0.4054,-0.0379,0.7,-0.8,-2.8,0,0.011,-0.043,0
2018,5,17,19,43,54.856,-0.8912,0.1989,0.4057,-0.0382,0,0.2,-2.1,-0.02,0.013,-0.035,0
2018,5,17,19,43,54.873,-0.891,0.199,0.4061,-0.0385,-0.4,1.8,-1.7,-0.003,0,-0.029,0
2018,5,17,19,43,54.896,-0.8907,0.1992,0.4066,-0.0388,0.6,3,-1.6,0.003,-0.003,-0.011,0
2018,5,17,19,43,54.934,-0.8906,0.1992,0.4068,-0.0393,0.9,1.8,-1.6,0.03,-0.002,0.005,0
2018,5,17,19,43,54.935,-0.8905,0.1994,0.4068,-0.0396,-1.6,0.5,-1.9,0.023,-0.024,0.006,0
2018,5,17,19,43,54.95,-0.8906,0.1998,0.4065,-0.0399,-1.2,-1,-2.1,0.022,-0.004,0,0
2018,5,17,19,43,54.987,-0.8906,0.2002,0.4062,-0.0401,-1.4,-1.1,-1.6,0.008,0.008,-0.006,0
2018,5,17,19,43,55.009,-0.8906,0.2006,0.4061,-0.04,-2.7,-0.2,-0.4,0.009,0.002,-0.009,0
2018,5,17,19,43,55.014,-0.8905,0.201,0.4061,-0.0398,-3.1,0.5,0.8,0.011,-0.01,-0.008,0
2018,5,17,19,43,55.033,-0.8903,0.2015,0.4063,-0.0395,-1.9,1,1.1,0.013,-0.015,-0.005,0
2018,5,17,19,43,55.07,-0.8902,0.2017,0.4065,-0.0392,-1.6,1,1.6,0.009,-0.004,-0.016,0
2018,5,17,19,43,55.093,-0.89,0.2018,0.4068,-0.0388,-1.7,0.9,2.2,-0.002,0.006,-0.024,0
2018,5,17,19,43,55.097,-0.8898,0.2019,0.4074,-0.0382,-2.4,1.6,3,-0.009,0.008,-0.037,0
2018,5,17,19,43,55.114,-0.8894,0.202,0.4081,-0.0375,-2,2.7,3.8,-0.015,0.004,-0.031,0
2018,5,17,19,43,55.137,-0.889,0.202,0.409,-0.0368,-1,3.1,4.2,-0.012,-0.007,-0.031,0
2018,5,17,19,43,55.153,-0.8887,0.2018,0.4099,-0.0363,0.2,3.1,3.6,0,-0.006,-0.033,0
2018,5,17,19,43,55.171,-0.8884,0.2016,0.4107,-0.0359,0.4,2.8,3,-0.004,0.005,-0.027,0
2018,5,17,19,43,55.194,-0.8882,0.2012,0.4114,-0.0354,0,2.3,2.9,0,0.01,-0.023,0
2018,5,17,19,43,55.229,-0.888,0.201,0.4119,-0.035,-0.3,1.7,2.8,0,0.011,-0.017,1023
2018,5,17,19,43,55.253,-0.8878,0.2008,0.4124,-0.0346,0.5,1,2.3,0.001,0,-0.025,1023
2018,5,17,19,43,55.257,-0.8877,0.2005,0.4128,-0.0343,0.2,1,2,-0.004,0.008,-0.022,1023
2018,5,17,19,43,55.274,-0.8876,0.2004,0.4131,-0.034,0,1,2,0,-0.004,-0.02,1023
2018,5,17,19,43,55.298,-0.8875,0.2002,0.4134,-0.0338,0.8,0.6,1.4,0.006,0.001,-0.013,1023
2018,5,17,19,43,55.333,-0.8875,0.2,0.4136,-0.0337,1.1,0.3,1.1,0.004,0.005,-0.015,1023
2018,5,17,19,43,55.357,-0.8875,0.1997,0.4137,-0.0336,0.7,0.2,0.5,0,0.012,-0.015,1023
2018,5,17,19,43,55.36,-0.8875,0.1995,0.4139,-0.0335,0.5,0,0.3,0.001,0.01,-0.022,1023
2018,5,17,19,43,55.377,-0.8874,0.1994,0.4141,-0.0334,0,0,0,-0.006,0.017,-0.027,1023
2018,5,17,19,43,55.399,-0.8873,0.1994,0.4143,-0.0334,-0.6,0.1,-0.4,-0.006,0.004,-0.029,1023
2018,5,17,19,43,55.418,-0.8872,0.1994,0.4145,-0.0333,-0.8,-0.3,-0.4,-0.008,0.009,-0.023,0
2018,5,17,19,43,55.441,-0.8872,0.1996,0.4145,-0.0333,-1.1,-1,-0.6,0,0,-0.018,0
2018,5,17,19,43,55.455,-0.8872,0.1999,0.4144,-0.0332,-1.2,-1.8,-0.6,0.003,0.001,-0.018,0
2018,5,17,19,43,55.493,-0.8873,0.2001,0.4141,-0.0332,-0.5,-2.1,-0.5,0.01,-0.003,-0.011,0
2018,5,17,19,43,55.516,-0.8874,0.2003,0.4138,-0.0332,-0.5,-1.8,-0.4,0.005,0.003,-0.011,0
2018,5,17,19,43,55.521,-0.8875,0.2004,0.4135,-0.0331,-0.6,-1.7,-0.2,0.01,0,-0.009,0
2018,5,17,19,43,55.537,-0.8875,0.2006,0.4133,-0.0331,-0.4,-1.4,-0.2,0.01,0,-0.015,0
2018,5,17,19,43,55.576,-0.8876,0.2006,0.4131,-0.033,0,-1,-0.3,0.005,0.002,-0.007,0
2018,5,17,19,43,55.576,-0.8877,0.2006,0.413,-0.0331,0.3,-0.9,-0.2,0.002,0.005,-0.012,0
2018,5,17,19,43,55.598,-0.8877,0.2006,0.4129,-0.0331,0,-1.5,-0.3,0,0.001,-0.02,0
2018,5,17,19,43,55.635,-0.8878,0.2006,0.4127,-0.0331,-0.2,-2.2,-0.5,-0.001,0.007,-0.02,0
2018,5,17,19,43,55.658,-0.8879,0.2007,0.4125,-0.033,-0.9,-2.5,-0.3,-0.002,0.006,-0.023,0
2018,5,17,19,43,55.663,-0.888,0.2009,0.4122,-0.0328,-0.9,-2.7,-0.1,0.005,0.002,-0.017,0
2018,5,17,19,43,55.677,-0.8881,0.2011,0.4118,-0.0327,-0.8,-2.7,0.1,0.002,0.004,-0.014,0
2018,5,17,19,43,55.713,-0.8882,0.2012,0.4116,-0.0325,-0.4,-2,0,0.001,0.001,-0.013,0
2018,5,17,19,43,55.736,-0.8883,0.2013,0.4113,-0.0324,0,-1.9,0,0.001,0.003,-0.014,0
2018,5,17,19,43,55.741,-0.8884,0.2013,0.4111,-0.0323,-0.2,-1.8,-0.4,-0.001,0.012,-0.015,0
2018,5,17,19,43,55.756,-0.8885,0.2014,0.4109,-0.0322,-0.8,-2.2,-0.4,0.005,0.009,-0.018,0
2018,5,17,19,43,55.78,-0.8886,0.2015,0.4106,-0.0322,-0.9,-2.1,-0.7,0.004,0.008,-0.013,0
2018,5,17,19,43,55.798,-0.8887,0.2018,0.4103,-0.0321,-1.2,-2.1,-0.7,0.008,0.002,-0.01,0
2018,5,17,19,43,55.822,-0.8888,0.2021,0.4099,-0.0321,-1.1,-2.1,-0.7,0.007,0.002,-0.006,0
2018,5,17,19,43,55.838,-0.8889,0.2023,0.4095,-0.032,-1.1,-2.6,-0.8,0.013,0.001,-0.001,0
2018,5,17,19,43,55.861,-0.8891,0.2026,0.409,-0.032,-1.1,-3.1,-0.9,0.011,0,-0.001,0
2018,5,17,19,43,55.878,-0.8893,0.2029,0.4083,-0.0319,-1.6,-3.6,-1,0.014,0,-0.004,0
2018,5,17,19,43,55.899,-0.8895,0.2032,0.4077,-0.0319,-1.1,-3.5,-1,0.009,0.009,-0.007,0
2018,5,17,19,43,55.917,-0.8897,0.2034,0.4073,-0.0314,-8.9,-3.8,0.4,0.002,0.069,0.004,0
2018,5,17,19,43,55.94,-0.8895,0.2051,0.407,-0.0303,-7.9,-2.5,0.3,-0.001,-0.026,-0.018,0
2018,5,17,19,43,55.958,-0.8894,0.2062,0.4067,-0.0299,-4.5,-1.9,0,-0.008,0.002,-0.027,0
2018,5,17,19,43,55.982,-0.8893,0.207,0.4065,-0.0296,-2.2,-2.1,-0.4,0.006,-0.034,-0.017,0
2018,5,17,19,43,56,-0.8894,0.207,0.4063,-0.0298,1.6,-1.9,-0.7,0,0.026,-0.021,0
2018,5,17,19,43,56.018,-0.8894,0.207,0.4063,-0.0298,0.3,-1.4,-0.6,-0.009,0.003,-0.021,1023
2018,5,17,19,43,56.041,-0.8895,0.2069,0.4062,-0.0298,0,-1.3,-0.3,0.001,0.017,-0.015,1023
2018,5,17,19,43,56.079,-0.8895,0.207,0.406,-0.0297,-0.9,-1.5,-0.1,0.008,0.003,-0.004,1023
2018,5,17,19,43,56.102,-0.8896,0.2072,0.4057,-0.0296,-0.9,-2.1,-0.4,0.012,0.001,-0.005,1023
2018,5,17,19,43,56.107,-0.8898,0.2074,0.4053,-0.0296,-1,-2.4,-0.7,0.012,0.003,-0.005,1023
2018,5,17,19,43,56.119,-0.8899,0.2076,0.4049,-0.0295,-0.8,-2.4,-1,0.01,0.003,-0.009,1023
2018,5,17,19,43,56.157,-0.8901,0.2078,0.4045,-0.0296,-0.6,-2.4,-1,0.007,0.003,-0.012,1023
2018,5,17,19,43,56.18,-0.8902,0.208,0.4041,-0.0296,-0.2,-2.1,-1,0.005,0.005,-0.013,1023
2018,5,17,19,43,56.184,-0.8902,0.2081,0.4039,-0.0297,-0.1,-1.6,-0.7,-0.001,0.002,-0.017,1023
2018,5,17,19,43,56.201,-0.8903,0.2082,0.4037,-0.0297,-0.2,-1.4,-0.5,0.001,0.004,-0.015,1023
2018,5,17,19,43,56.219,-0.8903,0.2084,0.4036,-0.0297,-0.6,-1.3,-0.2,0.006,0.003,-0.012,1023
2018,5,17,19,43,56.243,-0.8904,0.2085,0.4034,-0.0296,-0.5,-1.4,-0.2,0.008,0,-0.005,0
2018,5,17,19,43,56.278,-0.8905,0.2086,0.4031,-0.0296,-0.2,-1.9,-0.4,0.014,0,-0.006,0
2018,5,17,19,43,56.301,-0.8906,0.2086,0.4028,-0.0295,-0.2,-1.8,-0.4,0.004,0.009,-0.007,0
2018,5,17,19,43,56.306,-0.8907,0.2087,0.4025,-0.0295,-0.4,-1.7,-0.6,0.004,0.006,-0.006,0
2018,5,17,19,43,56.322,-0.8908,0.2088,0.4022,-0.0295,-0.2,-1.6,-0.7,0.008,0.007,-0.016,0
2018,5,17,19,43,56.345,-0.8909,0.2089,0.402,-0.0295,-0.5,-1.6,-0.6,0.002,0.006,-0.012,0
2018,5,17,19,43,56.361,-0.891,0.2091,0.4018,-0.0295,-0.8,-1.8,-0.5,0.01,0.002,-0.013,0
2018,5,17,19,43,56.379,-0.8911,0.2093,0.4015,-0.0294,-0.4,-1.7,-0.7,0.007,0.004,-0.008,0
2018,5,17,19,43,56.402,-0.8912,0.2094,0.4012,-0.0295,0,-1.8,-0.7,0.007,0.005,-0.009,0
2018,5,17,19,43,56.42,-0.8913,0.2094,0.4009,-0.0295,0,-1.6,-0.8,0.002,0.01,-0.008,0
2018,5,17,19,43,56.443,-0.8913,0.2095,0.4008,-0.0295,-0.5,-1.1,-0.7,0.003,0.006,-0.012,0
2018,5,17,19,43,56.461,-0.8914,0.2098,0.4004,-0.0296,-0.5,-1.3,-0.6,0.008,0,-0.009,0
2018,5,17,19,43,56.484,-0.8915,0.21,0.4002,-0.0296,-0.8,-1.7,-0.5,0.01,0.002,-0.005,0
2018,5,17,19,43,56.519,-0.8916,0.2102,0.3999,-0.0295,-0.6,-1.6,-0.4,0.009,0,-0.01,0
2018,5,17,19,43,56.541,-0.8916,0.2103,0.3997,-0.0295,-0.3,-1.3,-0.3,0.003,0.003,-0.014,0
2018,5,17,19,43,56.547,-0.8917,0.2104,0.3995,-0.0294,0,-1,0,0.003,0.004,-0.011,0
2018,5,17,19,43,56.567,-0.8917,0.2103,0.3994,-0.0294,0.3,-0.9,0.1,0.007,0.008,-0.013,0
2018,5,17,19,43,56.583,-0.8918,0.2103,0.3993,-0.0293,-0.2,-1,0,0.004,0.006,-0.016,0
2018,5,17,19,43,56.603,-0.8918,0.2104,0.3992,-0.0293,-0.2,-0.9,0.1,0.01,0.004,-0.01,0
2018,5,17,19,43,56.62,-0.8919,0.2104,0.3991,-0.0292,0,-1,0,0.005,0.003,-0.01,0
2018,5,17,19,43,56.643,-0.8919,0.2104,0.399,-0.0292,-0.1,-1,0.2,0.007,0.007,-0.012,0
2018,5,17,19,43,56.662,-0.892,0.2104,0.3989,-0.0291,-0.2,-0.8,0.2,0.003,0.005,-0.017,0
2018,5,17,19,43,56.682,-0.892,0.2105,0.3988,-0.029,0,-0.5,0,0.005,0.005,-0.009,0
2018,5,17,19,43,56.72,-0.892,0.2105,0.3989,-0.029,0,0,0,0.004,0.008,-0.007,0
2018,5,17,19,43,56.744,-0.892,0.2104,0.3989,-0.0289,0,-0.5,0.1,0.008,0.007,-0.013,0
2018,5,17,19,43,56.748,-0.892,0.2104,0.3989,-0.0289,-0.2,-0.6,0,0.003,0.005,-0.008,0
2018,5,17,19,43,56.763,-0.892,0.2105,0.3988,-0.0289,-0.2,-0.6,0,0.011,0.004,-0.003,0
2018,5,17,19,43,56.785,-0.8921,0.2105,0.3986,-0.0288,-0.3,-0.6,0,0.007,0.007,-0.008,1023
2018,5,17,19,43,56.804,-0.8921,0.2105,0.3986,-0.0288,0,0,0,0.006,0.005,-0.011,1023
2018,5,17,19,43,56.824,-0.8921,0.2105,0.3986,-0.0288,0,0,0,0.008,0.006,-0.011,1023
2018,5,17,19,43,56.86,-0.8921,0.2105,0.3986,-0.0287,0,0,0,0.008,0.008,-0.014,1023
2018,5,17,19,43,56.883,-0.8921,0.2105,0.3986,-0.0287,0,0,0,0.008,0.002,-0.01,1023
2018,5,17,19,43,56.887,-0.8921,0.2105,0.3985,-0.0287,0,-0.8,0,0.007,0.002,-0.011,1023
2018,5,17,19,43,56.903,-0.8922,0.2106,0.3984,-0.0287,0,-0.5,0,0.007,0.006,-0.008,1023
2018,5,17,19,43,56.926,-0.8921,0.2106,0.3984,-0.0287,0,0,0,0.006,0.001,-0.012,1023
2018,5,17,19,43,56.963,-0.8921,0.2106,0.3984,-0.0287,0,0,0,0.006,0.005,-0.011,1023
2018,5,17,19,43,56.987,-0.8921,0.2106,0.3985,-0.0286,0,0,0,0.008,0.006,-0.005,1023
2018,5,17,19,43,56.991,-0.8921,0.2106,0.3985,-0.0286,0,0,0,0.009,0.007,-0.01,0
2018,5,17,19,43,57.007,-0.8921,0.2106,0.3984,-0.0286,-0.2,-0.5,0,0.01,0.004,-0.009,0
2018,5,17,19,43,57.03,-0.8921,0.2106,0.3985,-0.0286,0,0,0,0.002,0.005,-0.011,0
2018,5,17,19,43,57.047,-0.8921,0.2106,0.3985,-0.0286,0,0,0,0.004,0.005,-0.01,0
2018,5,17,19,43,57.071,-0.8921,0.2106,0.3986,-0.0286,0,0,0,0.006,0.006,-0.011,0
2018,5,17,19,43,57.086,-0.8921,0.2106,0.3986,-0.0286,0,0,0,0.007,0.005,-0.009,0
2018,5,17,19,43,57.122,-0.8921,0.2105,0.3985,-0.0286,0,0,0,0.008,0.005,-0.003,0
2018,5,17,19,43,57.146,-0.8921,0.2105,0.3985,-0.0286,0,0,0,0.011,0.005,-0.013,0
2018,5,17,19,43,57.151,-0.8921,0.2105,0.3986,-0.0286,0,0,0,0.007,0.006,-0.007,0
2018,5,17,19,43,57.168,-0.8921,0.2106,0.3986,-0.0285,0,0,0,0.007,0.007,-0.013,0
2018,5,17,19,43,57.205,-0.8921,0.2107,0.3986,-0.0285,-0.6,-0.1,-0.2,0.006,0.005,-0.013,0
2018,5,17,19,43,57.229,-0.8921,0.2108,0.3986,-0.0285,-0.6,0.1,0,0.012,0.003,-0.005,0
2018,5,17,19,43,57.233,-0.8921,0.2108,0.3985,-0.0285,0,0,0,0.011,0,-0.005,0
2018,5,17,19,43,57.249,-0.8921,0.2108,0.3985,-0.0285,0,0,0,0.008,0.003,-0.008,0
2018,5,17,19,43,57.272,-0.892,0.2109,0.3986,-0.0285,0,0,0,0.004,0.005,-0.007,0
2018,5,17,19,43,57.287,-0.892,0.2108,0.3986,-0.0285,0,0,0,0.005,0.006,-0.01,0
2018,5,17,19,43,57.304,-0.892,0.2108,0.3986,-0.0285,0,0.2,0.5,0.007,0.004,-0.011,0
2018,5,17,19,43,57.328,-0.892,0.2108,0.3987,-0.0284,0.2,0.6,0.6,0.009,0.006,-0.009,0
2018,5,17,19,43,57.346,-0.8919,0.2107,0.3989,-0.0283,0,0.6,0.7,0.009,0.003,-0.001,0
2018,5,17,19,43,57.37,-0.8919,0.2106,0.3989,-0.0283,0.3,0.8,0.9,0.012,0.003,-0.005,0
2018,5,17,19,43,57.388,-0.8919,0.2105,0.3991,-0.0282,0.2,0.7,1,0.011,0.003,-0.008,0
2018,5,17,19,43,57.411,-0.8918,0.2104,0.3993,-0.0281,0.4,0.9,1.1,0.007,0.005,-0.009,0
2018,5,17,19,43,57.446,-0.8918,0.2103,0.3995,-0.0279,0.1,0.9,1.2,0.007,0.004,-0.011,0
2018,5,17,19,43,57.468,-0.8917,0.2101,0.3998,-0.0278,0,1.2,1.3,0.005,0.007,-0.012,0
2018,5,17,19,43,57.473,-0.8916,0.21,0.4,-0.0276,-0.3,1.4,1.3,0.006,0.008,-0.008,0
2018,5,17,19,43,57.488,-0.8915,0.21,0.4003,-0.0274,-0.2,1.3,1.3,0.007,0.007,-0.009,0
2018,5,17,19,43,57.506,-0.8914,0.2099,0.4006,-0.0273,-0.1,1.3,1.1,0.008,0.005,-0.01,0
2018,5,17,19,43,57.526,-0.8913,0.2098,0.4008,-0.0271,0,1.2,0.8,0.007,0.006,-0.01,1023
2018,5,17,19,43,57.566,-0.8912,0.2097,0.401,-0.027,0,1,0.8,0.004,0.01,-0.009,1023
2018,5,17,19,43,57.588,-0.8911,0.2097,0.4013,-0.0269,0,1.3,0.8,0.007,0.007,-0.012,1023
2018,5,17,19,43,57.593,-0.891,0.2096,0.4016,-0.0268,-0.4,1.1,0.8,0.009,0.005,-0.01,1023
2018,5,17,19,43,57.609,-0.8909,0.2096,0.4018,-0.0267,0,1.3,0.6,0.008,0.001,-0.009,1023
2018,5,17,19,43,57.632,-0.8908,0.2095,0.4021,-0.0267,0.2,1.4,0.5,0.006,0.007,-0.007,1023
2018,5,17,19,43,57.65,-0.8907,0.2094,0.4024,-0.0266,0.2,1.6,0.4,0.009,0.008,-0.009,1023
2018,5,17,19,43,57.673,-0.8906,0.2093,0.4027,-0.0267,0.1,1.6,0.4,0.009,0.005,-0.003,1023
2018,5,17,19,43,57.69,-0.8905,0.2092,0.4029,-0.0266,0.2,0.9,0.4,0.008,0,-0.011,1023
2018,5,17,19,43,57.714,-0.8905,0.2092,0.4031,-0.0266,0.5,0.9,0.3,0.003,0.003,-0.013,1023
2018,5,17,19,43,57.731,-0.8904,0.209,0.4033,-0.0266,0.5,1.1,0.5,0.003,0.011,-0.012,1023
2018,5,17,19,43,57.755,-0.8903,0.2089,0.4035,-0.0266,0.2,1,0.6,0.007,0.008,-0.009,0
2018,5,17,19,43,57.773,-0.8903,0.2088,0.4037,-0.0265,0,1,0.6,0.007,0.007,-0.007,0
2018,5,17,19,43,57.789,-0.8902,0.2087,0.4039,-0.0264,-0.1,1,0.7,0.011,0.004,-0.003,0
2018,5,17,19,43,57.813,-0.8901,0.2087,0.404,-0.0263,-0.3,0.8,0.3,0.007,0.006,-0.006,0
2018,5,17,19,43,57.848,-0.8901,0.2087,0.4042,-0.0263,0,0.8,0.4,0.007,0.007,-0.011,0
2018,5,17,19,43,57.872,-0.89,0.2087,0.4044,-0.0263,-0.3,0.9,0.4,0.006,0.008,-0.007,0
2018,5,17,19,43,57.877,-0.8899,0.2087,0.4046,-0.0262,-0.6,0.7,0.4,0.008,0.008,-0.008,0
2018,5,17,19,43,57.894,-0.8898,0.2087,0.4047,-0.026,-0.6,0.9,0.4,0.009,0.007,-0.012,0
2018,5,17,19,43,57.911,-0.8897,0.2088,0.4049,-0.026,-0.5,0.8,0.2,0.007,0.002,-0.005,0
2018,5,17,19,43,57.934,-0.8896,0.2089,0.4051,-0.0259,-0.5,0.9,0,0.005,0.007,-0.012,0
2018,5,17,19,43,57.97,-0.8896,0.2089,0.4052,-0.0259,-0.5,0.9,0.2,0.01,0.006,-0.009,0
2018,5,17,19,43,57.994,-0.8895,0.2089,0.4054,-0.0259,-0.3,1,0.1,0.01,0.006,-0.006,0
2018,5,17,19,43,57.998,-0.8894,0.209,0.4055,-0.0258,-0.3,0.6,0.1,0.011,0.003,-0.007,0
2018,5,17,19,43,58.014,-0.8894,0.209,0.4056,-0.0259,0,0,0,0.004,0.002,-0.012,0
2018,5,17,19,43,58.031,-0.8894,0.209,0.4056,-0.0258,0,0,0,0.002,0.006,-0.012,0
2018,5,17,19,43,58.054,-0.8893,0.209,0.4057,-0.0258,0,0,0,0.007,0.007,-0.01,0
2018,5,17,19,43,58.074,-0.8893,0.209,0.4057,-0.0258,0,0,0,0.005,0.005,-0.012,0
2018,5,17,19,43,58.091,-0.8893,0.209,0.4058,-0.0258,-0.5,-0.1,0.3,0.008,0.007,-0.012,0
2018,5,17,19,43,58.114,-0.8893,0.209,0.4058,-0.0257,0,0,0,0.007,0.003,-0.01,0
2018,5,17,19,43,58.132,-0.8892,0.2091,0.4059,-0.0257,0,0,0,0.006,0.004,-0.01,0
2018,5,17,19,43,58.154,-0.8892,0.2091,0.4059,-0.0257,0,0,0,0.008,0.006,-0.011,0
2018,5,17,19,43,58.173,-0.8892,0.209,0.4059,-0.0257,0,0,0,0.009,0.006,-0.007,0
2018,5,17,19,43,58.195,-0.8892,0.209,0.4059,-0.0257,0,0,0,0.011,0.004,-0.011,0
2018,5,17,19,43,58.213,-0.8892,0.209,0.4059,-0.0257,0,0,0,0.009,0.006,-0.001,0
2018,5,17,19,43,58.248,-0.8893,0.209,0.4058,-0.0257,0,0,0,0.01,0.01,-0.007,0
2018,5,17,19,43,58.271,-0.8893,0.209,0.4058,-0.0257,0,0,0,0.009,0.009,-0.009,0
2018,5,17,19,43,58.276,-0.8893,0.2089,0.4058,-0.0257,0,0,0,0,0.01,-0.014,0
2018,5,17,19,43,58.295,-0.8893,0.2089,0.4059,-0.0257,0,0,0,0.006,0.008,-0.014,0
2018,5,17,19,43,58.331,-0.8893,0.2089,0.4059,-0.0256,-0.5,-0.2,0,0.007,0.003,-0.001,0
2018,5,17,19,43,58.354,-0.8893,0.2089,0.4059,-0.0256,0,0,0,0.011,0.004,-0.006,0
2018,5,17,19,43,58.357,-0.8893,0.209,0.4058,-0.0257,-0.3,-0.6,-0.5,0.01,0.005,-0.01,0
2018,5,17,19,43,58.374,-0.8893,0.2091,0.4057,-0.0257,0,-0.7,-0.7,0.006,0.008,-0.007,0
2018,5,17,19,43,58.397,-0.8893,0.2092,0.4056,-0.0258,-0.3,-0.6,-0.5,0.006,0.004,-0.007,1023
2018,5,17,19,43,58.415,-0.8894,0.2093,0.4055,-0.0258,-0.2,-0.6,-0.5,0.007,0.002,-0.01,1023
2018,5,17,19,43,58.437,-0.8894,0.2093,0.4054,-0.0258,0,-0.8,-0.2,0.007,0.002,-0.008,1023
2018,5,17,19,43,58.455,-0.8895,0.2093,0.4052,-0.0258,0,-1.1,0,0.006,0.005,-0.005,1023
2018,5,17,19,43,58.492,-0.8895,0.2093,0.4051,-0.0257,0,-1.1,0,0.01,0.002,-0.005,1023
2018,5,17,19,43,58.515,-0.8896,0.2093,0.4049,-0.0257,0.1,-0.8,0,0.007,0.009,-0.004,1023
2018,5,17,19,43,58.519,-0.8897,0.2093,0.4047,-0.0256,0,-1.1,0,0.009,0.006,-0.004,1023
2018,5,17,19,43,58.536,-0.8898,0.2093,0.4045,-0.0256,-0.1,-1.1,-0.1,0.008,0.003,-0.006,1023
2018,5,17,19,43,58.554,-0.8899,0.2093,0.4044,-0.0256,0.1,-1,-0.5,0.006,0.006,-0.009,1023
2018,5,17,19,43,58.578,-0.8899,0.2093,0.4043,-0.0256,-0.1,-0.8,0,0.001,0.009,-0.013,1023
2018,5,17,19,43,58.613,-0.8899,0.2094,0.4042,-0.0256,-0.4,-0.8,-0.1,0.003,0.007,-0.008,0
2018,5,17,19,43,58.636,-0.89,0.2095,0.4041,-0.0255,-0.6,-1.1,-0.2,0.01,0.001,-0.011,0
2018,5,17,19,43,58.64,-0.89,0.2096,0.4039,-0.0255,-0.7,-1.3,-0.3,0.011,0.006,-0.01,0
2018,5,17,19,43,58.656,-0.8901,0.2097,0.4036,-0.0255,-0.3,-1,-0.2,0.007,0.007,-0.005,0
2018,5,17,19,43,58.679,-0.8902,0.2098,0.4035,-0.0254,-0.2,-0.9,-0.2,0.008,0.006,-0.005,0
2018,5,17,19,43,58.697,-0.8902,0.2099,0.4033,-0.0254,-0.5,-0.9,-0.5,0.012,0.008,-0.007,0
2018,5,17,19,43,58.733,-0.8903,0.21,0.4032,-0.0255,-0.7,-0.8,-0.4,0.008,0.006,-0.008,0
2018,5,17,19,43,58.756,-0.8903,0.2101,0.403,-0.0255,-0.6,-1.1,-0.5,0.007,0.003,-0.005,0
2018,5,17,19,43,58.761,-0.8904,0.2103,0.4028,-0.0255,-0.3,-1.1,-0.6,0.01,0.003,-0.013,0
2018,5,17,19,43,58.776,-0.8904,0.2104,0.4026,-0.0255,-0.2,-1,-0.4,0.006,0.003,-0.01,0
2018,5,17,19,43,58.798,-0.8905,0.2104,0.4025,-0.0255,-0.3,-1.1,-0.4,0.005,0.006,-0.009,0
2018,5,17,19,43,58.817,-0.8905,0.2105,0.4023,-0.0255,-0.3,-0.9,-0.2,0.007,0.005,-0.009,0
2018,5,17,19,43,58.841,-0.8905,0.2106,0.4022,-0.0254,-0.3,-0.9,0,0.007,0.008,-0.01,0
2018,5,17,19,43,58.874,-0.8906,0.2106,0.4021,-0.0254,-0.3,-0.8,0,0.007,0.005,-0.012,0
2018,5,17,19,43,58.898,-0.8906,0.2107,0.402,-0.0253,-0.2,-0.9,-0.1,0.01,0.004,-0.009,0
2018,5,17,19,43,58.901,-0.8907,0.2107,0.4018,-0.0253,-0.2,-1,-0.1,0.009,0.009,-0.005,0
2018,5,17,19,43,58.916,-0.8908,0.2107,0.4017,-0.0253,-0.2,-1,-0.3,0.007,0.005,-0.01,0
2018,5,17,19,43,58.954,-0.8908,0.2108,0.4015,-0.0253,-0.2,-1.2,-0.2,0.009,0.007,-0.011,0
2018,5,17,19,43,58.978,-0.8909,0.2109,0.4013,-0.0253,-0.1,-1,-0.4,0.007,0.007,-0.01,0
2018,5,17,19,43,58.982,-0.8909,0.211,0.4012,-0.0253,-0.4,-0.6,-0.4,0.005,0.01,-0.009,0
2018,5,17,19,43,58.999,-0.891,0.211,0.4011,-0.0253,-0.5,-0.7,-0.4,0.008,0.004,-0.006,0
2018,5,17,19,43,59.017,-0.891,0.2111,0.4009,-0.0253,-0.3,-1,-0.4,0.01,0.001,-0.006,0
2018,5,17,19,43,59.04,-0.8911,0.2112,0.4007,-0.0253,-0.3,-1,-0.5,0.012,0.005,-0.006,0
2018,5,17,19,43,59.058,-0.8911,0.2113,0.4005,-0.0254,-0.2,-1,-0.5,0.006,0.004,-0.007,0
2018,5,17,19,43,59.081,-0.8912,0.2114,0.4004,-0.0254,-0.1,-0.8,-0.3,0.004,0.003,-0.016,0
2018,5,17,19,43,59.099,-0.8912,0.2115,0.4003,-0.0254,-0.2,-0.5,-0.1,0.008,0.007,-0.005,0
2018,5,17,19,43,59.123,-0.8912,0.2116,0.4002,-0.0253,0,0,0,0.011,0.004,-0.006,0
2018,5,17,19,43,59.138,-0.8912,0.2116,0.4002,-0.0253,0,0,0,0.01,0.005,-0.006,0
2018,5,17,19,43,59.157,-0.8912,0.2116,0.4002,-0.0253,0,0,0,0.009,0.004,-0.009,0
2018,5,17,19,43,59.181,-0.8912,0.2116,0.4002,-0.0253,0,0,0,0.006,0.003,-0.01,0
2018,5,17,19,43,59.197,-0.8912,0.2116,0.4002,-0.0253,0,0,0,0.005,0.002,-0.007,0
2018,5,17,19,43,59.219,-0.8913,0.2116,0.4001,-0.0253,0,-0.9,-0.1,0.004,0.007,-0.011,1023
2018,5,17,19,43,59.238,-0.8913,0.2116,0.4,-0.0253,-0.2,-0.8,0,0.004,0.01,-0.008,1023
2018,5,17,19,43,59.261,-0.8914,0.2117,0.3999,-0.0252,-0.3,-0.7,0,0.004,0.003,-0.006,1023
2018,5,17,19,43,59.279,-0.8914,0.2117,0.3998,-0.0252,0,0,0,0.008,0.003,-0.005,1023
2018,5,17,19,43,59.302,-0.8914,0.2117,0.3997,-0.0252,0,0,0,0.012,0.005,-0.001,1023
2018,5,17,19,43,59.321,-0.8914,0.2117,0.3997,-0.0252,0,0,0,0.011,0.004,-0.006,1023
2018,5,17,19,43,59.345,-0.8914,0.2117,0.3997,-0.0252,0,-0.5,-0.3,0.01,0.004,-0.009,1023
2018,5,17,19,43,59.379,-0.8914,0.2117,0.3997,-0.0252,0,0,0,0.004,0.007,-0.008,1023
2018,5,17,19,43,59.403,-0.8914,0.2117,0.3997,-0.0252,0,0,0,0.007,0.005,-0.008,1023
2018,5,17,19,43,59.407,-0.8914,0.2117,0.3997,-0.0252,-0.3,-0.5,0,0.011,0.005,-0.008,1023
2018,5,17,19,43,59.421,-0.8915,0.2118,0.3996,-0.0251,0,0,0,0.008,0.004,-0.004,0
2018,5,17,19,43,59.456,-0.8915,0.2118,0.3996,-0.0251,0,0,0,0.013,0.004,-0.008,0
2018,5,17,19,43,59.479,-0.8915,0.2118,0.3995,-0.0252,0,0,0,0.013,0.004,-0.004,0
2018,5,17,19,43,59.483,-0.8915,0.2118,0.3995,-0.0252,0,0,0,0.007,0,-0.003,0
2018,5,17,19,43,59.502,-0.8916,0.2118,0.3994,-0.0252,-0.1,-0.6,-0.4,0.008,0.007,-0.006,0
2018,5,17,19,43,59.525,-0.8916,0.2118,0.3992,-0.0252,-0.2,-0.6,-0.2,0.009,0.005,-0.012,0
2018,5,17,19,43,59.54,-0.8916,0.2119,0.3991,-0.0252,-0.2,-0.7,-0.2,0.007,0.008,-0.01,0
2018,5,17,19,43,59.564,-0.8916,0.2119,0.3991,-0.0252,0,0,0,0.007,0.002,-0.008,0
2018,5,17,19,43,59.582,-0.8916,0.2119,0.3991,-0.0252,0,0,0,0.01,0.006,-0.006,0
2018,5,17,19,43,59.604,-0.8916,0.2119,0.3991,-0.0252,0,0,0,0.008,0.004,-0.009,0
2018,5,17,19,43,59.623,-0.8916,0.212,0.3991,-0.0252,0,0,0,0.007,0.005,-0.005,0
2018,5,17,19,43,59.659,-0.8916,0.2119,0.3991,-0.0252,0,0,0,0.006,0.007,-0.013,0
2018,5,17,19,43,59.659,-0.8916,0.2119,0.3991,-0.0251,0,0,0,0.006,0.009,-0.011,0
2018,5,17,19,43,59.682,-0.8916,0.2119,0.3991,-0.0251,0,0,0,0.007,0.006,-0.005,0
2018,5,17,19,43,59.701,-0.8916,0.2119,0.3991,-0.0251,0,0,0,0.011,0.006,-0.006,0
2018,5,17,19,43,59.725,-0.8916,0.2119,0.3991,-0.0251,0,0,0,0.009,0.005,-0.004,0
2018,5,17,19,43,59.759,-0.8917,0.2119,0.3991,-0.0251,0,0,0,0.01,0.004,-0.009,0
2018,5,17,19,43,59.782,-0.8917,0.2119,0.3991,-0.0251,0,0,0,0.01,0.004,-0.004,0
2018,5,17,19,43,59.787,-0.8917,0.2119,0.399,-0.0251,0,0,0,0.007,0.002,-0.009,0
2018,5,17,19,43,59.823,-0.8917,0.2119,0.3991,-0.0251,0,0,0,0.007,0.007,-0.009,0
2018,5,17,19,43,59.823,-0.8917,0.2118,0.3991,-0.0251,0,0.8,0.6,0.01,0.004,-0.005,0
2018,5,17,19,43,59.847,-0.8916,0.2118,0.3993,-0.0251,0.3,1,0.6,0.012,0.006,-0.006,0
2018,5,17,19,43,59.864,-0.8916,0.2117,0.3994,-0.0251,0.6,0.9,0.3,0.009,0.005,-0.007,0
2018,5,17,19,43,59.883,-0.8915,0.2115,0.3995,-0.0251,0.5,0.7,0.3,0.009,0.006,-0.01,0
2018,5,17,19,43,59.906,-0.8915,0.2114,0.3997,-0.025,0.2,0.7,0.2,0.003,0.011,-0.01,0
2018,5,17,19,43,59.923,-0.8915,0.2113,0.3998,-0.025,0,0.7,0.3,0,0.01,-0.01,0
2018,5,17,19,43,59.974,-0.8914,0.2113,0.4,-0.0249,-0.2,0.6,0.2,0.005,0.01,-0.007,0
2018,5,17,19,43,59.977,-0.8913,0.2113,0.4001,-0.0249,-0.5,0.7,0.3,0.012,0.005,-0.005,0
2018,5,17,19,43,59.986,-0.8913,0.2113,0.4002,-0.0248,0,0,0,0.012,0.001,-0.009,0
2018,5,17,19,44,0.023,-0.8913,0.2113,0.4002,-0.0249,0.1,0.6,-0.2,0.007,0.007,-0.008,0
2018,5,17,19,44,0.044,-0.8912,0.2113,0.4004,-0.0249,0.3,0.8,0,0.006,0.008,-0.008,0
2018,5,17,19,44,0.046,-0.8912,0.2112,0.4005,-0.025,0.2,0.6,0,0.007,0.004,-0.011,1023
2018,5,17,19,44,0.063,-0.8912,0.2112,0.4006,-0.025,0,0,0,0.009,0.003,-0.003,1023
2018,5,17,19,44,0.084,-0.8911,0.2112,0.4006,-0.025,0,0,0,0.011,0.007,-0.009,1023
2018,5,17,19,44,0.121,-0.8912,0.2112,0.4006,-0.025,0,0,0,0.01,0.003,-0.005,1023
2018,5,17,19,44,0.142,-0.8911,0.2111,0.4006,-0.025,0.2,0.7,0.3,0.01,0.007,-0.006,1023
2018,5,17,19,44,0.144,-0.8911,0.2111,0.4008,-0.025,0.5,0.8,0.2,0.009,0.005,-0.012,1023
2018,5,17,19,44,0.181,-0.8911,0.2109,0.4009,-0.0251,0.8,1.1,0,0.007,0.006,-0.007,1023
2018,5,17,19,44,0.204,-0.891,0.2108,0.4011,-0.0252,0.7,0.9,0,0.006,0.007,-0.005,1023
2018,5,17,19,44,0.208,-0.8908,0.2105,0.4016,-0.0253,0,0.6,0.1,0.006,0.006,-0.011,1023
2018,5,17,19,44,0.225,-0.8908,0.2104,0.4018,-0.0253,0,0.9,0.2,0.005,0.008,-0.01,1023
2018,5,17,19,44,0.248,-0.8907,0.2104,0.402,-0.0253,0,1,0.2,0.005,0.01,-0.01,1023
2018,5,17,19,44,0.267,-0.8906,0.2104,0.4022,-0.0252,0,0.9,0.1,0.01,0.007,-0.007,0
2018,5,17,19,44,0.29,-0.8906,0.2104,0.4023,-0.0253,-0.1,0.7,0.1,0.011,0.006,-0.005,0
2018,5,17,19,44,0.308,-0.8906,0.2104,0.4023,-0.0253,0,0,0,0.008,0.004,-0.008,0
2018,5,17,19,44,0.329,-0.8905,0.2104,0.4023,-0.0252,0,0,0,0.005,0.006,-0.012,0
2018,5,17,19,44,0.347,-0.8905,0.2104,0.4024,-0.0252,0,0,0,0.004,0.007,-0.013,0
2018,5,17,19,44,0.365,-0.8904,0.2104,0.4026,-0.0252,0,0.8,0.5,0.007,0.003,-0.008,0
2018,5,17,19,44,0.389,-0.8904,0.2103,0.4027,-0.0251,0,0.8,0.3,0.009,0.005,-0.011,0
2018,5,17,19,44,0.405,-0.8903,0.2103,0.4029,-0.0251,0.2,0.6,0.5,0.011,0.002,-0.011,0
2018,5,17,19,44,0.428,-0.8903,0.2102,0.403,-0.0251,0.4,0.8,0.5,0.009,0.007,-0.007,0
2018,5,17,19,44,0.466,-0.8903,0.2102,0.403,-0.0251,0,0,0,0.008,0.007,-0.012,0
2018,5,17,19,44,0.49,-0.8903,0.2101,0.4031,-0.025,0.5,0.4,0.1,0.001,0.008,-0.012,0
2018,5,17,19,44,0.494,-0.8903,0.2101,0.4032,-0.025,0,0,0,0.002,0.011,-0.011,0
2018,5,17,19,44,0.511,-0.8902,0.21,0.4032,-0.025,0,0,0,0.002,0.01,-0.013,0
2018,5,17,19,44,0.547,-0.8902,0.21,0.4033,-0.025,0,0,0,0.007,0.005,-0.01,0
2018,5,17,19,44,0.547,-0.8902,0.21,0.4033,-0.0249,-0.5,-0.4,-0.2,0.01,0.005,-0.006,0
2018,5,17,19,44,0.569,-0.8902,0.2101,0.4032,-0.0249,-0.6,-0.3,-0.2,0.006,0.007,-0.008,0
2018,5,17,19,44,0.586,-0.8902,0.2103,0.4031,-0.0249,-0.6,-0.3,-0.2,0.007,0.001,-0.003,0
2018,5,17,19,44,0.609,-0.8902,0.2104,0.4031,-0.0249,0,0,0,0.008,0.005,-0.005,0
2018,5,17,19,44,0.63,-0.8902,0.2104,0.4031,-0.0249,0,0,0,0.008,0.002,-0.008,0
2018,5,17,19,44,0.649,-0.8902,0.2104,0.4031,-0.0249,0,0,0,0.006,0.006,-0.009,0
2018,5,17,19,44,0.673,-0.8902,0.2104,0.4031,-0.0249,0,0,0,0.003,0.007,-0.006,0
2018,5,17,19,44,0.69,-0.8902,0.2104,0.4032,-0.0249,0,0,0,0.004,0.008,-0.01,0
2018,5,17,19,44,0.712,-0.8902,0.2104,0.4032,-0.0249,0,-0.5,0,0.006,0.008,-0.007,0
2018,5,17,19,44,0.73,-0.8902,0.2104,0.4031,-0.0248,-0.3,-0.6,0,0.012,0.004,-0.01,0
2018,5,17,19,44,0.753,-0.8902,0.2105,0.403,-0.0248,0,-0.5,-0.1,0.008,0.002,-0.006,0
2018,5,17,19,44,0.769,-0.8902,0.2105,0.403,-0.0248,0,-0.5,0,0.005,0.004,-0.007,0
2018,5,17,19,44,0.805,-0.8902,0.2104,0.403,-0.0248,0,0,0,0.009,0.002,-0.003,0
2018,5,17,19,44,0.829,-0.8903,0.2105,0.403,-0.0248,0,0,0,0.01,0.003,-0.007,0
2018,5,17,19,44,0.833,-0.8903,0.2105,0.4029,-0.0248,0,0,0,0.01,0.004,-0.006,0
2018,5,17,19,44,0.851,-0.8903,0.2104,0.4029,-0.0248,0.2,-0.5,0,0.005,0.006,-0.008,0
2018,5,17,19,44,0.872,-0.8903,0.2103,0.4029,-0.0248,0,-0.5,0.1,0.006,0.008,-0.01,0
2018,5,17,19,44,0.889,-0.8903,0.2103,0.4028,-0.0247,-0.1,-0.5,-0.1,0.009,0.007,-0.009,1023
2018,5,17,19,44,0.911,-0.8904,0.2103,0.4028,-0.0247,-0.1,-0.5,-0.2,0.008,0.004,-0.006,1023
2018,5,17,19,44,0.948,-0.8904,0.2104,0.4028,-0.0247,-0.2,-0.2,-0.5,0.01,0.006,-0.004,1023
2018,5,17,19,44,0.971,-0.8904,0.2104,0.4027,-0.0247,-0.2,-0.6,-0.8,0.007,0.005,-0.012,1023
2018,5,17,19,44,0.975,-0.8904,0.2105,0.4026,-0.0248,-0.3,-0.7,-0.4,0.002,0.006,-0.012,1023
2018,5,17,19,44,0.994,-0.8904,0.2106,0.4025,-0.0248,-0.3,-0.8,-0.4,0.007,0.005,-0.009,1023
2018,5,17,19,44,1.01,-0.8905,0.2107,0.4024,-0.0248,-0.5,-0.6,-0.3,0.008,0,-0.009,1023
2018,5,17,19,44,1.048,-0.8905,0.2108,0.4022,-0.0248,-0.2,-0.7,0,0.01,0.002,-0.003,1023
2018,5,17,19,44,1.071,-0.8906,0.2109,0.4021,-0.0248,-0.3,-0.6,0,0.009,0.007,-0.006,1023
2018,5,17,19,44,1.076,-0.8906,0.2109,0.402,-0.0247,-0.1,-0.6,0,0.008,0.005,-0.004,1023
2018,5,17,19,44,1.093,-0.8907,0.2109,0.4018,-0.0247,0,-0.5,-0.2,0.008,0.004,-0.01,1023
2018,5,17,19,44,1.129,-0.8907,0.2109,0.4017,-0.0247,0,-0.6,0,0.008,0.007,-0.006,0
2018,5,17,19,44,1.153,-0.8907,0.211,0.4017,-0.0247,0,-0.6,-0.1,0.008,0.004,-0.012,0
2018,5,17,19,44,1.157,-0.8908,0.211,0.4016,-0.0247,0,-0.5,0,0.008,0.006,-0.007,0
2018,5,17,19,44,1.175,-0.8908,0.2109,0.4015,-0.0246,-0.1,-0.5,0,0.009,0.004,-0.011,0
2018,5,17,19,44,1.211,-0.8908,0.211,0.4015,-0.0246,0,0,0,0.014,0.005,-0.005,0
2018,5,17,19,44,1.233,-0.8909,0.211,0.4014,-0.0246,0.3,-0.5,-0.1,0.012,0.003,-0.005,0
2018,5,17,19,44,1.237,-0.8909,0.2109,0.4013,-0.0247,0.5,-0.2,0,0.007,0.009,-0.01,0
2018,5,17,19,44,1.254,-0.8909,0.2109,0.4014,-0.0247,0,0,0,0.002,0.009,-0.009,0
2018,5,17,19,44,1.271,-0.8909,0.2108,0.4014,-0.0246,0,0,0,0.006,0.005,-0.008,0
2018,5,17,19,44,1.294,-0.8909,0.2108,0.4014,-0.0246,0,0,0,0.006,0.004,-0.009,0
2018,5,17,19,44,1.311,-0.8909,0.2108,0.4014,-0.0246,-0.2,-0.5,0,0.008,0.008,-0.004,0
2018,5,17,19,44,1.333,-0.8909,0.2108,0.4014,-0.0246,-0.2,-0.5,-0.1,0.005,0.006,-0.008,0
2018,5,17,19,44,1.352,-0.8909,0.2109,0.4012,-0.0246,-0.4,-0.6,-0.3,0.008,0.011,-0.008,0
2018,5,17,19,44,1.372,-0.891,0.211,0.4011,-0.0246,-0.3,-0.8,-0.4,0.009,0.001,-0.003,0
2018,5,17,19,44,1.393,-0.891,0.2111,0.401,-0.0246,-0.5,-0.6,-0.4,0.008,0.008,-0.003,0
2018,5,17,19,44,1.417,-0.891,0.2112,0.4009,-0.0246,-0.5,-0.4,-0.2,0.009,0.001,-0.004,0
2018,5,17,19,44,1.453,-0.8911,0.2113,0.4007,-0.0246,-0.3,-0.5,-0.1,0.013,0,-0.003,0
2018,5,17,19,44,1.475,-0.8911,0.2113,0.4006,-0.0246,0,0,0,0.01,0.005,-0.004,0
2018,5,17,19,44,1.479,-0.8911,0.2113,0.4006,-0.0246,0,0,0,0.006,0.007,-0.003,0
2018,5,17,19,44,1.492,-0.8911,0.2113,0.4006,-0.0246,0,0,0,0.006,0.006,-0.012,0
2018,5,17,19,44,1.531,-0.8911,0.2113,0.4007,-0.0246,0,0,0,0.006,0.007,-0.01,0
2018,5,17,19,44,1.554,-0.8911,0.2113,0.4007,-0.0246,0,0,0,0.005,0.003,-0.012,0
2018,5,17,19,44,1.559,-0.8911,0.2113,0.4007,-0.0245,0,0,0,0.011,0.008,-0.012,0
2018,5,17,19,44,1.574,-0.8911,0.2113,0.4007,-0.0245,-0.5,-0.3,0.1,0.008,0.005,-0.007,0
2018,5,17,19,44,1.611,-0.8911,0.2113,0.4007,-0.0245,0,0,0,0.012,0.005,-0.009,0
2018,5,17,19,44,1.635,-0.8911,0.2113,0.4007,-0.0245,0,0,0,0.009,0.007,-0.01,0
2018,5,17,19,44,1.638,-0.8911,0.2113,0.4007,-0.0245,0,0,0,0.007,0.011,-0.006,0
2018,5,17,19,44,1.657,-0.8911,0.2113,0.4007,-0.0245,0,0,0,0.009,0.003,-0.006,0
2018,5,17,19,44,1.673,-0.8911,0.2113,0.4006,-0.0246,-0.2,-0.6,-0.4,0.01,0,-0.007,0
2018,5,17,19,44,1.692,-0.8912,0.2114,0.4005,-0.0246,0,-0.9,-0.2,0.005,0.004,-0.01,0
2018,5,17,19,44,1.715,-0.8912,0.2114,0.4003,-0.0245,-0.3,-0.9,0,0.007,0.005,-0.01,1023
2018,5,17,19,44,1.751,-0.8913,0.2114,0.4002,-0.0245,0,0,0,0.009,0.004,-0.007,1023
2018,5,17,19,44,1.774,-0.8913,0.2114,0.4002,-0.0245,0,0,0,0.013,0.005,-0.004,1023
2018,5,17,19,44,1.779,-0.8913,0.2115,0.4001,-0.0245,0,0,0,0.014,0.004,-0.004,1023
2018,5,17,19,44,1.812,-0.8913,0.2115,0.4001,-0.0245,0,0,0,0.008,0.004,-0.008,1023
2018,5,17,19,44,1.835,-0.8913,0.2114,0.4001,-0.0245,0,0,0,0.005,0.01,-0.008,1023
2018,5,17,19,44,1.84,-0.8913,0.2114,0.4002,-0.0245,0,0,0,0.004,0.011,-0.008,1023
2018,5,17,19,44,1.857,-0.8913,0.2114,0.4002,-0.0244,-0.5,-0.5,-0.3,0.007,0.002,-0.011,1023
2018,5,17,19,44,1.876,-0.8913,0.2116,0.4001,-0.0244,-0.5,-0.3,-0.2,0.011,0.004,-0.012,1023
2018,5,17,19,44,1.899,-0.8913,0.2117,0.4,-0.0244,-0.5,-0.4,-0.3,0.011,0.005,-0.005,1023
2018,5,17,19,44,1.919,-0.8913,0.2118,0.4,-0.0244,-0.6,-0.3,-0.4,0.007,0.004,-0.006,0
2018,5,17,19,44,1.943,-0.8913,0.2118,0.3999,-0.0244,0,0,0,0.013,0.003,-0.007,0
2018,5,17,19,44,1.956,-0.8913,0.2118,0.3999,-0.0244,0,0,0,0.011,0.004,-0.008,0
2018,5,17,19,44,1.974,-0.8913,0.2118,0.3999,-0.0244,0,0,0,0.01,0.003,-0.008,0
2018,5,17,19,44,1.998,-0.8913,0.2118,0.3999,-0.0244,0,0,0,0.006,0.003,-0.009,0
2018,5,17,19,44,2.017,-0.8913,0.2118,0.3999,-0.0244,0,0,0,0.006,0.006,-0.007,0
2018,5,17,19,44,2.04,-0.8913,0.2118,0.3999,-0.0244,0,0,0,0.008,0.005,-0.011,0
2018,5,17,19,44,2.058,-0.8913,0.2119,0.3999,-0.0244,0,0,0,0.008,0.002,-0.006,0
2018,5,17,19,44,2.082,-0.8913,0.2119,0.3999,-0.0244,0,0,0,0.009,0.001,-0.006,0
2018,5,17,19,44,2.096,-0.8913,0.2119,0.3999,-0.0245,0,0,0,0.013,0.005,-0.009,0
2018,5,17,19,44,2.118,-0.8913,0.2119,0.3999,-0.0244,0,0,0,0.007,0.006,-0.005,0
2018,5,17,19,44,2.156,-0.8913,0.2119,0.3999,-0.0244,0,0,0,0.008,0.005,-0.013,0
2018,5,17,19,44,2.176,-0.8913,0.2119,0.3999,-0.0244,0,0,0,0.01,0.003,-0.005,0
2018,5,17,19,44,2.181,-0.8913,0.2119,0.3999,-0.0245,0,0,0,0.009,0.006,-0.008,0
2018,5,17,19,44,2.2,-0.8913,0.2119,0.3999,-0.0244,0,0,0,0.009,0.004,-0.01,0
2018,5,17,19,44,2.216,-0.8913,0.2119,0.3999,-0.0244,0,0,0,0.01,0.005,-0.007,0
2018,5,17,19,44,2.237,-0.8913,0.2118,0.3999,-0.0244,0,0,0,0.005,0.004,-0.011,0
2018,5,17,19,44,2.275,-0.8913,0.2119,0.4,-0.0244,-0.5,0,0,0.008,0.005,-0.003,0
2018,5,17,19,44,2.298,-0.8913,0.212,0.4,-0.0244,-0.5,0.1,0.2,0.014,0.001,-0.008,0
2018,5,17,19,44,2.303,-0.8913,0.212,0.3999,-0.0244,0,0,0,0.012,0,-0.002,0
2018,5,17,19,44,2.321,-0.8913,0.212,0.3998,-0.0244,0,0,0,0.014,0,-0.001,0
2018,5,17,19,44,2.357,-0.8913,0.212,0.3999,-0.0244,0.5,0.8,0.6,0.014,0,-0.003,0
2018,5,17,19,44,2.38,-0.8912,0.2118,0.4001,-0.0244,0.8,1.3,0.6,0.007,0.006,-0.003,0
2018,5,17,19,44,2.385,-0.8912,0.2117,0.4003,-0.0244,0.8,1.3,0.5,0.007,0.004,-0.01,0
2018,5,17,19,44,2.4,-0.8911,0.2115,0.4005,-0.0244,0.5,0.9,0.5,0.007,0.009,-0.014,0
2018,5,17,19,44,2.419,-0.891,0.2114,0.4008,-0.0244,0.2,1,0.4,0.002,0.008,-0.016,0
2018,5,17,19,44,2.442,-0.891,0.2113,0.401,-0.0243,-0.1,0.9,0.3,0.005,0.008,-0.012,0
2018,5,17,19,44,2.461,-0.8909,0.2112,0.4012,-0.0243,0,0.8,0,0.006,0.009,-0.011,0
2018,5,17,19,44,2.498,-0.8908,0.2112,0.4014,-0.0243,0,0.9,0,0.008,0.006,-0.009,0
2018,5,17,19,44,2.521,-0.8908,0.2112,0.4015,-0.0243,0,0.5,-0.1,0.008,0.008,-0.008,0
2018,5,17,19,44,2.525,-0.8907,0.2112,0.4015,-0.0244,0,0,0,0.007,0.001,-0.005,0
2018,5,17,19,44,2.542,-0.8907,0.2112,0.4015,-0.0244,0,0,0,0.011,0.003,-0.008,0
2018,5,17,19,44,2.56,-0.8907,0.2113,0.4015,-0.0244,0,0,0,0.01,0.001,-0.002,1023
2018,5,17,19,44,2.582,-0.8907,0.2113,0.4015,-0.0244,0,0,0,0.009,0.003,-0.008,1023
2018,5,17,19,44,2.601,-0.8907,0.2112,0.4016,-0.0244,0.4,0.9,0.4,0.01,0.004,-0.006,1023
2018,5,17,19,44,2.624,-0.8907,0.2111,0.4017,-0.0244,0.4,1,0.4,0.011,0.005,-0.004,1023
2018,5,17,19,44,2.641,-0.8906,0.211,0.4019,-0.0244,0.1,0.8,0.3,0.011,0.006,-0.011,1023
2018,5,17,19,44,2.661,-0.8906,0.2109,0.4021,-0.0244,0,0.9,0.3,0.007,0.005,-0.01,1023
2018,5,17,19,44,2.697,-0.8905,0.2109,0.4022,-0.0244,0.1,0.8,0.3,0.006,0.004,-0.007,1023
2018,5,17,19,44,2.72,-0.8904,0.2108,0.4024,-0.0243,0,0.7,0.6,0.005,0.005,-0.008,1023
2018,5,17,19,44,2.725,-0.8904,0.2108,0.4026,-0.0242,0,0.6,0.6,0.007,0.003,-0.005,1023
