ax,ay,az,dpitch,droll,dyaw,heart,time_1,time_2,time_3,time_4,time_5,time_6,w,x,y,z
0.025,-0.03,0.006,7.3,26.8,13.3,0,2018,5,17,20,45,57.069,-0.8161,0.4234,0.3929,-0.0116
0.033,-0.038,-0.011,7.6,36.1,17.4,0,2018,5,17,20,45,57.082,-0.8181,0.4177,0.3949,-0.0124
0.024,-0.013,-0.015,9,41.9,21.1,0,2018,5,17,20,45,57.1,-0.8205,0.4107,0.3973,-0.0132
0.007,0.015,0.004,11.9,41.7,21.6,0,2018,5,17,20,45,57.124,-0.8228,0.4031,0.4003,-0.0139
-0.002,0.027,0.033,13.2,38.8,19.8,0,2018,5,17,20,45,57.142,-0.8249,0.3955,0.4034,-0.0146
0.013,0.046,0.053,14.4,37.4,18.3,0,2018,5,17,20,45,57.165,-0.8269,0.3881,0.4064,-0.0153
0.028,0.094,0.038,14.8,33.3,16.2,0,2018,5,17,20,45,57.184,-0.8288,0.3808,0.4095,-0.0163
0.032,0.117,0.021,14.4,18.6,13.4,0,2018,5,17,20,45,57.207,-0.8299,0.3749,0.4126,-0.0165
0.049,0.106,0.008,16.4,6.1,9.2,0,2018,5,17,20,45,57.224,-0.8299,0.3717,0.4155,-0.0166
0.046,0.123,0.008,17.4,-10.8,7.8,0,2018,5,17,20,45,57.239,-0.8289,0.3707,0.4184,-0.0161
0.072,0.036,0.01,21.2,-15.3,8.1,0,2018,5,17,20,45,57.262,-0.8268,0.3721,0.4215,-0.015
0.081,0.065,0.029,26.5,-12.4,12.1,0,2018,5,17,20,45,57.28,-0.8246,0.3727,0.4253,-0.0145
0.091,0.113,0.035,39.1,-32.5,10.3,0,2018,5,17,20,45,57.303,-0.8211,0.3743,0.4305,-0.0132
0.081,0.004,-0.002,41.9,-46,15.5,0,2018,5,17,20,45,57.322,-0.8155,0.3792,0.4369,-0.0114
0.047,-0.014,0.032,35.4,-48.3,22.6,0,2018,5,17,20,45,57.344,-0.8095,0.3845,0.4435,-0.0078
0.01,-0.039,0.032,36,-51.5,23.3,0,2018,5,17,20,45,57.363,-0.8037,0.3894,0.4497,-0.0032
-0.036,-0.104,0.002,31.9,-48.1,26,1023,2018,5,17,20,45,57.386,-0.7977,0.3944,0.4561,0.0016
-0.021,-0.105,0,27.4,-44.5,25.7,1023,2018,5,17,20,45,57.405,-0.792,0.3989,0.4619,0.0065
0.04,-0.035,-0.029,27.8,-49,22,1023,2018,5,17,20,45,57.427,-0.7865,0.4037,0.4672,0.0114
0.032,-0.062,-0.049,28,-47.2,16.7,1023,2018,5,17,20,45,57.445,-0.7802,0.4097,0.4722,0.0155
0.018,-0.105,-0.017,29.1,-40.6,17.6,1023,2018,5,17,20,45,57.467,-0.7744,0.4149,0.4771,0.0189
0.008,-0.124,0.036,29,-34.4,19.6,1023,2018,5,17,20,45,57.485,-0.7693,0.4187,0.4819,0.0218
0.006,-0.077,0.099,27,-32.5,20.8,1023,2018,5,17,20,45,57.502,-0.7648,0.4215,0.4864,0.0247
0.028,-0.052,0.106,26,-44.5,18.8,1023,2018,5,17,20,45,57.525,-0.76,0.4247,0.4909,0.0287
0,-0.066,0.074,23.9,-47.5,24.1,1023,2018,5,17,20,45,57.544,-0.7549,0.4289,0.4949,0.0334
-0.017,-0.09,0.086,23.5,-37.1,32.5,1023,2018,5,17,20,45,57.567,-0.7499,0.4322,0.4992,0.0387
0.008,-0.064,0.09,26.7,-22.5,40.3,1023,2018,5,17,20,45,57.585,-0.7458,0.4327,0.5044,0.0439
0.026,-0.015,0.086,33.5,-18.4,44.2,1023,2018,5,17,20,45,57.608,-0.742,0.4314,0.5107,0.0486
0.016,-0.001,0.042,40.2,-28.8,40.2,1023,2018,5,17,20,45,57.627,-0.737,0.4308,0.518,0.0532
0.005,-0.047,0.01,41.4,-44.8,39,1023,2018,5,17,20,45,57.664,-0.7301,0.4326,0.5257,0.0582
-0.049,-0.07,0.047,40,-47.7,44.6,1023,2018,5,17,20,45,57.687,-0.7224,0.4354,0.5331,0.0646
-0.108,-0.151,0.045,41.7,-30.1,51.3,1023,2018,5,17,20,45,57.692,-0.7152,0.4365,0.541,0.071
-0.146,-0.108,0.001,41.2,-12.8,54.9,1023,2018,5,17,20,45,57.708,-0.7091,0.4346,0.5498,0.0759
-0.123,-0.014,-0.033,37.8,-10.4,55.7,0,2018,5,17,20,45,57.731,-0.7036,0.4311,0.5589,0.0809
-0.104,0.071,-0.054,34.6,-26.9,52.2,0,2018,5,17,20,45,57.749,-0.6976,0.428,0.5678,0.087
-0.113,0.112,-0.043,27.5,-60.1,45.8,0,2018,5,17,20,45,57.772,-0.6901,0.4287,0.5751,0.0954
-0.102,0.002,-0.088,28.7,-70.1,42.5,0,2018,5,17,20,45,57.788,-0.6809,0.433,0.5809,0.1058
-0.061,-0.039,-0.087,30.6,-56,41.4,0,2018,5,17,20,45,57.806,-0.6717,0.4371,0.5869,0.1148
-0.004,-0.034,-0.023,28.3,-48.4,40.2,0,2018,5,17,20,45,57.829,-0.6634,0.4399,0.5926,0.1222
-0.01,0.031,0.046,30.1,-53.9,36.8,0,2018,5,17,20,45,57.848,-0.6558,0.4424,0.5977,0.1296
-0.014,0.066,0.052,32.8,-73.8,25,0,2018,5,17,20,45,57.871,-0.6468,0.4468,0.6024,0.1376
-0.007,0.098,0.038,24.6,-92,18.3,0,2018,5,17,20,45,57.89,-0.6367,0.4544,0.6053,0.1468
0.017,0.136,0.069,15.8,-113.8,13.1,0,2018,5,17,20,45,57.907,-0.6258,0.4641,0.6062,0.1588
0.025,0.081,0.119,10.8,-115.3,10.1,0,2018,5,17,20,45,57.928,-0.6146,0.4758,0.6052,0.1715
-0.067,0.026,0.099,11.1,-101.7,14.6,0,2018,5,17,20,45,57.968,-0.6042,0.4864,0.6038,0.1835
-0.007,0.011,0.069,10.5,-91.5,10.5,0,2018,5,17,20,45,57.991,-0.5946,0.4953,0.6026,0.1945
0.042,-0.075,-0.013,10.8,-60.5,6.6,0,2018,5,17,20,45,57.996,-0.5865,0.5032,0.6015,0.2021
0.05,-0.089,0.003,8,-12.9,7.7,0,2018,5,17,20,45,58.009,-0.582,0.5073,0.6015,0.2048
0.079,-0.034,0.049,6.7,28.7,10.8,1023,2018,5,17,20,45,58.027,-0.582,0.5062,0.6029,0.2032
0.02,0.014,0.001,6.1,43.1,12.4,1023,2018,5,17,20,45,58.05,-0.5845,0.5013,0.6059,0.1995
0.019,0.078,0.003,6.1,32.8,8.8,1023,2018,5,17,20,45,58.069,-0.5866,0.4962,0.609,0.1962
0.031,0.043,-0.011,6.9,21.6,1.6,1023,2018,5,17,20,45,58.091,-0.5875,0.4935,0.6113,0.1935
0.042,0.023,-0.011,5.8,23.8,-2.5,1023,2018,5,17,20,45,58.109,-0.5883,0.4918,0.6129,0.1903
0.068,0.03,0.002,5.3,22,-4.6,1023,2018,5,17,20,45,58.132,-0.5893,0.4905,0.6141,0.1867
0.054,0.022,0.003,6.9,19.1,-1.2,1023,2018,5,17,20,45,58.15,-0.5901,0.4893,0.6152,0.1834
0.025,0.03,-0.061,6.6,11.8,2.6,1023,2018,5,17,20,45,58.173,-0.5902,0.4882,0.6167,0.1811
0.068,0.002,-0.066,9,8.9,3.9,1023,2018,5,17,20,45,58.192,-0.5895,0.4875,0.6184,0.1796
0.061,-0.024,-0.061,13.3,20.2,4.2,1023,2018,5,17,20,45,58.215,-0.5886,0.4867,0.6206,0.1769
0.078,-0.029,-0.061,15.7,40,5.8,1023,2018,5,17,20,45,58.233,-0.5887,0.4844,0.6237,0.172
0.05,-0.004,-0.05,16.2,53.1,5.7,1023,2018,5,17,20,45,58.253,-0.5901,0.4802,0.6275,0.1654
0.046,0.051,-0.031,12.6,49.7,1.1,1023,2018,5,17,20,45,58.292,-0.5921,0.4753,0.6311,0.1584
0.078,0.049,-0.05,9.2,41.8,-2.9,1023,2018,5,17,20,45,58.292,-0.594,0.4714,0.6337,0.1524
0.035,0.068,-0.057,6.1,36.9,-5,1023,2018,5,17,20,45,58.315,-0.5957,0.4683,0.6356,0.147
0.03,0.113,-0.059,2.7,30.6,-7.9,1023,2018,5,17,20,45,58.331,-0.5976,0.4657,0.6369,0.1423
0.029,0.148,-0.061,0.3,5.2,-13.8,1023,2018,5,17,20,45,58.37,-0.5992,0.4651,0.6365,0.1391
0.054,0.133,-0.073,1.4,-16.5,-15.9,1023,2018,5,17,20,45,58.393,-0.5988,0.4677,0.6352,0.1381
0.059,0.114,-0.051,1.7,-30.5,-15.9,0,2018,5,17,20,45,58.398,-0.5968,0.4722,0.6335,0.1389
0.035,0.036,0.007,2.2,-28.5,-11.7,0,2018,5,17,20,45,58.414,-0.5937,0.4774,0.6321,0.1409
0.008,0.045,-0.003,-7.7,-17.4,-8.3,0,2018,5,17,20,45,58.432,-0.5921,0.4809,0.6307,0.1425
0.045,0.204,-0.021,-22.4,-38.5,-11.7,0,2018,5,17,20,45,58.455,-0.5915,0.4841,0.6279,0.1458
0.037,0.213,0.007,-34.3,-90.8,-22.1,0,2018,5,17,20,45,58.473,-0.5894,0.4922,0.6218,0.1536
-0.023,0.089,0.111,-39.6,-124.3,-32.5,0,2018,5,17,20,45,58.496,-0.5844,0.5055,0.6125,0.166
-0.011,0.059,0.074,-53,-140.1,-38.8,0,2018,5,17,20,45,58.515,-0.5787,0.5212,0.6004,0.1809
0.029,0.008,0.05,-61.1,-148.8,-38.6,0,2018,5,17,20,45,58.537,-0.5728,0.5378,0.586,0.1978
0.04,-0.055,0.055,-65.2,-134.2,-29.7,0,2018,5,17,20,45,58.553,-0.5672,0.5533,0.5708,0.2146
-0.019,0.008,0.081,-60.6,-103.2,-17.1,0,2018,5,17,20,45,58.572,-0.5632,0.565,0.5572,0.2301
-0.015,0.006,0.097,-52.4,-78.7,-9.2,0,2018,5,17,20,45,58.595,-0.5607,0.5723,0.5464,0.2435
-0.005,-0.006,0.075,-45.7,-58.7,3.3,0,2018,5,17,20,45,58.612,-0.5592,0.5769,0.538,0.2548
-0.006,-0.007,0.016,-40.6,-35.1,20.3,0,2018,5,17,20,45,58.636,-0.5581,0.5784,0.5327,0.2647
-0.035,-0.034,-0.033,-34.3,-2.7,39.6,0,2018,5,17,20,45,58.654,-0.5583,0.5757,0.5312,0.2732
-0.087,-0.048,-0.1,-27.6,39.7,60.2,1023,2018,5,17,20,45,58.677,-0.5603,0.5679,0.5342,0.2791
-0.103,-0.043,-0.127,-19.1,88.7,78.3,1023,2018,5,17,20,45,58.696,-0.565,0.5542,0.5423,0.2819
-0.074,-0.045,-0.148,-9.9,137.8,90.9,1023,2018,5,17,20,45,58.717,-0.5724,0.5344,0.555,0.2803
-0.082,-0.03,-0.189,3.1,176.3,98.4,1023,2018,5,17,20,45,58.735,-0.5817,0.5094,0.5717,0.2741
0.033,0.023,-0.196,13.6,201.3,94.1,1023,2018,5,17,20,45,58.758,-0.5924,0.4807,0.5902,0.2636
0.075,0.025,-0.225,22,213.6,91.4,1023,2018,5,17,20,45,58.793,-0.6033,0.4501,0.6089,0.2501
0.074,0.016,-0.234,29.7,216.9,84.1,1023,2018,5,17,20,45,58.793,-0.6131,0.4187,0.6276,0.2341
0.051,0.026,-0.213,39.7,203.4,73.3,1023,2018,5,17,20,45,58.817,-0.621,0.3886,0.6452,0.2165
0.129,0.042,-0.156,47.4,180.6,66,1023,2018,5,17,20,45,58.834,-0.626,0.3615,0.6614,0.1994
0.141,0.052,-0.166,51.9,158.1,60.3,1023,2018,5,17,20,45,58.857,-0.6283,0.3374,0.6764,0.1835
0.091,0.059,-0.199,54.2,129.7,52.6,1023,2018,5,17,20,45,58.876,-0.6283,0.3167,0.69,0.1693
0.059,0.025,-0.167,53.4,95,44.2,1023,2018,5,17,20,45,58.899,-0.6262,0.3005,0.7017,0.158
0.059,-0.013,-0.11,50.2,66,33.6,1023,2018,5,17,20,45,58.917,-0.6217,0.2894,0.7123,0.1493
0.033,-0.023,-0.117,42.2,45.8,25.4,1023,2018,5,17,20,45,58.94,-0.6169,0.2817,0.7208,0.1427
-0.022,0.033,-0.17,29.9,22.1,16.7,1023,2018,5,17,20,45,58.958,-0.6127,0.2767,0.7271,0.1385
-0.05,0.036,-0.135,21.4,-5.1,7.5,1023,2018,5,17,20,45,58.982,-0.6092,0.2753,0.7308,0.1375
-0.02,0.008,-0.069,16.3,-28.3,-2.5,1023,2018,5,17,20,45,59.002,-0.6052,0.2776,0.7329,0.139
0.033,-0.085,-0.046,12.2,-33.2,-7.7,1023,2018,5,17,20,45,59.018,-0.6014,0.2829,0.7335,0.1415
0.038,-0.13,0.004,12.1,-8.8,-2.8,1023,2018,5,17,20,45,59.04,-0.5989,0.2872,0.7338,0.1421
-0.023,-0.089,0.123,8.9,27.6,7.3,1023,2018,5,17,20,45,59.059,-0.598,0.2866,0.7351,0.14
-0.075,0.055,0.272,7.2,52.5,15.5,1023,2018,5,17,20,45,59.082,-0.5988,0.2811,0.7375,0.1354
-0.093,0.07,0.375,5.7,70,23.9,0,2018,5,17,20,45,59.103,-0.6004,0.2724,0.7406,0.1291
-0.061,0.103,0.365,5.4,84.8,28.8,0,2018,5,17,20,45,59.12,-0.6026,0.2612,0.7442,0.1213
-0.027,0.112,0.249,8.1,95.9,29.7,0,2018,5,17,20,45,59.137,-0.6051,0.248,0.748,0.1123
-0.043,0.074,0.115,8.2,102.9,26.9,0,2018,5,17,20,45,59.159,-0.6077,0.2338,0.752,0.1018
-0.022,0.093,0.022,3.9,94.1,19.1,0,2018,5,17,20,45,59.178,-0.6109,0.2196,0.755,0.0917
-0.003,0.085,-0.02,1,71.9,7.5,0,2018,5,17,20,45,59.2,-0.6134,0.2085,0.7572,0.0827
0.01,0.061,-0.053,-2.7,31.1,-9.5,0,2018,5,17,20,45,59.218,-0.6149,0.203,0.7581,0.0762
0.011,0.086,-0.101,-9.1,-1.2,-18.6,0,2018,5,17,20,45,59.241,-0.6158,0.2031,0.7576,0.0735
0.018,0.101,-0.121,-17.2,-28.8,-24,0,2018,5,17,20,45,59.259,-0.6173,0.2075,0.7551,0.0738
0.027,0.051,-0.113,-22.1,-48.2,-26.1,1023,2018,5,17,20,45,59.282,-0.6185,0.2149,0.7518,0.0772
0.017,0.043,-0.138,-26.1,-57,-26,1023,2018,5,17,20,45,59.3,-0.6191,0.2235,0.7481,0.0826
-0.021,0.103,-0.204,-29.6,-65.8,-28.2,1023,2018,5,17,20,45,59.325,-0.6208,0.2331,0.7431,0.0888
-0.002,0.137,-0.237,-31,-80,-34.4,1023,2018,5,17,20,45,59.342,-0.6222,0.2447,0.7373,0.0961
0.034,0.131,-0.235,-27.6,-93.8,-41.6,1023,2018,5,17,20,45,59.365,-0.6228,0.2586,0.7309,0.1044
0.051,0.127,-0.199,-19.2,-103.3,-47.3,1023,2018,5,17,20,45,59.382,-0.622,0.2747,0.7244,0.1132
0.052,0.115,-0.161,-10,-103.4,-49.1,1023,2018,5,17,20,45,59.4,-0.6196,0.2919,0.7183,0.1217
0.03,0.143,-0.14,-1,-97.6,-48.6,1023,2018,5,17,20,45,59.422,-0.616,0.3089,0.7129,0.1292
0.026,0.113,-0.11,7.5,-87.2,-44.6,1023,2018,5,17,20,45,59.441,-0.6115,0.3247,0.7086,0.1355
0.017,0.07,-0.079,14.7,-67.8,-36.5,1023,2018,5,17,20,45,59.464,-0.6061,0.3384,0.7059,0.1401
0.018,0.053,-0.047,19.4,-45.4,-28,1023,2018,5,17,20,45,59.484,-0.6007,0.3487,0.7049,0.1429
-0.01,0.099,-0.003,19.9,-23.5,-20.7,1023,2018,5,17,20,45,59.52,-0.5964,0.3556,0.705,0.1437
-0.091,0.061,0.027,12.8,0.4,-12.3,1023,2018,5,17,20,45,59.543,-0.5937,0.3591,0.7056,0.1431
-0.146,0.121,0.168,-4.4,29.3,-3,1023,2018,5,17,20,45,59.548,-0.5948,0.358,0.7058,0.1403
-0.102,0.24,0.264,-21.1,-5.4,-7.1,0,2018,5,17,20,45,59.563,-0.5976,0.3565,0.7046,0.1387
-0.052,0.22,0.237,-29.7,-59.1,-13.6,0,2018,5,17,20,45,59.586,-0.5988,0.3611,0.7003,0.1433
-0.027,0.15,0.125,-31.4,-95.5,-15.1,0,2018,5,17,20,45,59.622,-0.5977,0.3706,0.694,0.1534
-0.061,0.08,0.002,-29.1,-109,-15.5,0,2018,5,17,20,45,59.645,-0.5951,0.3819,0.687,0.1671
-0.046,-0.001,-0.032,-25.4,-98.2,-12.7,0,2018,5,17,20,45,59.648,-0.5914,0.3936,0.6802,0.1803
-0.033,-0.002,-0.026,-22.5,-80.4,-9.2,0,2018,5,17,20,45,59.664,-0.5881,0.4035,0.6742,0.1912
-0.019,0,-0.027,-20.8,-69.9,-8.2,0,2018,5,17,20,45,59.7,-0.5854,0.4117,0.669,0.2005
0,0.008,-0.03,-23,-62.1,-7.7,0,2018,5,17,20,45,59.723,-0.5831,0.4187,0.664,0.2089
0.009,0.025,-0.033,-28.8,-60.2,-6,0,2018,5,17,20,45,59.726,-0.5816,0.4248,0.6588,0.2171
0.016,0.029,-0.051,-34.8,-63.5,-5.1,0,2018,5,17,20,45,59.743,-0.5804,0.4307,0.653,0.226
0.016,0.034,-0.078,-40.2,-71.1,-3.7,0,2018,5,17,20,45,59.764,-0.5791,0.4367,0.6466,0.236
0.032,0.045,-0.081,-44.2,-84.9,-4.2,0,2018,5,17,20,45,59.8,-0.5773,0.4434,0.6392,0.2477
0.027,0.035,-0.085,-45.8,-101.8,-5,0,2018,5,17,20,45,59.822,-0.5743,0.4517,0.6307,0.2611
-0.001,0.021,-0.141,-45,-117.7,-7.1,0,2018,5,17,20,45,59.824,-0.5698,0.4617,0.6211,0.276
-0.001,0,-0.168,-41.9,-128,-10,0,2018,5,17,20,45,59.86,-0.5636,0.4734,0.6107,0.2915
0.034,-0.031,-0.159,-36.5,-129,-12,0,2018,5,17,20,45,59.881,-0.5569,0.4858,0.5995,0.3071
0.064,-0.049,-0.14,-28,-119.6,-12.1,0,2018,5,17,20,45,59.884,-0.55,0.4976,0.5885,0.3215
0.06,-0.06,-0.14,-17.7,-103.9,-11.6,0,2018,5,17,20,45,59.919,-0.5429,0.5085,0.579,0.3336
0.027,-0.047,-0.146,-9.7,-88.8,-9.9,0,2018,5,17,20,45,59.941,-0.5361,0.518,0.5711,0.3434
0.033,-0.061,-0.124,-3.5,-72.1,-6.6,1023,2018,5,17,20,45,59.943,-0.5298,0.5261,0.5649,0.3511
0.026,-0.06,-0.105,0.7,-53.3,-1.8,1023,2018,5,17,20,45,59.98,-0.5237,0.5332,0.5608,0.356
0.03,-0.018,-0.072,-1.1,-46.8,-1.1,1023,2018,5,17,20,46,0.002,-0.5188,0.5384,0.558,0.3598
0.034,-0.07,-0.018,-9.8,-48.5,-7.4,1023,2018,5,17,20,46,0.004,-0.5148,0.5435,0.554,0.364
0.017,-0.022,0.052,-18.3,-66.9,-15.2,1023,2018,5,17,20,46,0.041,-0.5119,0.5489,0.5477,0.3695
0.005,-0.047,0.08,-25.7,-94.3,-19.9,1023,2018,5,17,20,46,0.062,-0.5076,0.5564,0.5382,0.378
0.023,-0.083,0.09,-28.4,-108,-18.2,1023,2018,5,17,20,46,0.067,-0.502,0.5656,0.5263,0.3885
0.046,-0.097,0.075,-26.7,-106.1,-10.7,1023,2018,5,17,20,46,0.105,-0.4947,0.5745,0.5151,0.3997
0.048,-0.101,0.044,-22.1,-101.3,-2,1023,2018,5,17,20,46,0.126,-0.4871,0.5826,0.5045,0.4106
0.031,-0.12,0.005,-17.2,-90.4,6.6,1023,2018,5,17,20,46,0.129,-0.4793,0.5896,0.4954,0.4208
0.008,-0.133,-0.024,-13,-68.5,13.3,1023,2018,5,17,20,46,0.144,-0.472,0.595,0.4887,0.4292
0.011,-0.15,-0.022,-10.5,-36.9,19.1,0,2018,5,17,20,46,0.166,-0.4667,0.5978,0.4848,0.4354
0.054,-0.097,0.022,-8.2,-7.1,23.3,0,2018,5,17,20,46,0.203,-0.4642,0.5977,0.4841,0.439
0.05,-0.016,0.027,-4.1,8.6,23.9,0,2018,5,17,20,46,0.224,-0.4635,0.5953,0.4859,0.4409
0.064,0.156,0.02,-4.1,-15.2,10.6,0,2018,5,17,20,46,0.226,-0.4619,0.5931,0.4877,0.4437
0.07,0.09,0.004,-4.5,-49.3,-9.2,0,2018,5,17,20,46,0.264,-0.4578,0.5951,0.4854,0.4477
0.068,-0.072,0.041,-11.1,-64.7,-15.7,0,2018,5,17,20,46,0.285,-0.4533,0.6005,0.4785,0.4525
0.051,-0.026,0.07,-17.2,-74.3,-17.8,0,2018,5,17,20,46,0.29,-0.4492,0.6063,0.4695,0.4584
0.036,0.13,0.056,-21.6,-111.6,-32.9,0,2018,5,17,20,46,0.327,-0.4431,0.6132,0.4581,0.4665
0.077,0.009,0.052,-25,-181,-47.8,0,2018,5,17,20,46,0.35,-0.4321,0.6258,0.4395,0.4777
0.058,-0.301,-0.016,-37.8,-209,-46.9,0,2018,5,17,20,46,0.355,-0.4165,0.6416,0.4148,0.4925
0.099,-0.29,-0.113,-44.6,-216.3,-54.2,0,2018,5,17,20,46,0.37,-0.3993,0.6568,0.3875,0.5087
0.109,-0.384,-0.128,-38.9,-189.3,-65.3,0,2018,5,17,20,46,0.387,-0.3833,0.6712,0.359,0.523
0.079,-0.346,-0.099,-23.7,-129.7,-64.9,0,2018,5,17,20,46,0.41,-0.3726,0.6827,0.3345,0.5319
0.084,-0.406,-0.064,4.1,-51.6,-50,0,2018,5,17,20,46,0.426,-0.3676,0.691,0.3185,0.5346
0.097,-0.467,-0.069,27.5,47.8,-26.2,0,2018,5,17,20,46,0.449,-0.37,0.6948,0.315,0.53
0.127,-0.328,-0.113,39.1,149.5,-2.7,0,2018,5,17,20,46,0.468,-0.3813,0.6922,0.3251,0.5192
0.133,-0.169,-0.172,44.6,207.2,3.9,0,2018,5,17,20,46,0.49,-0.4006,0.6834,0.3448,0.5034
0.05,-0.064,-0.207,45.7,212.9,5.2,0,2018,5,17,20,46,0.509,-0.4221,0.672,0.367,0.4851
0.058,-0.028,-0.196,46.2,214,0,0,2018,5,17,20,46,0.532,-0.4432,0.6598,0.3885,0.466
0.116,-0.038,-0.189,50.7,215.5,-8.9,1023,2018,5,17,20,46,0.55,-0.4645,0.6471,0.4089,0.445
0.127,-0.003,-0.184,57.1,214.2,-16.2,1023,2018,5,17,20,46,0.572,-0.4853,0.6345,0.4283,0.4222
0.07,0.093,-0.238,62.8,205.4,-28.6,1023,2018,5,17,20,46,0.59,-0.505,0.6226,0.4462,0.3975
0.059,0.086,-0.242,65.2,190,-33.6,1023,2018,5,17,20,46,0.609,-0.5231,0.612,0.4617,0.3721
0.034,-0.072,-0.215,69.8,203.7,-24.2,1023,2018,5,17,20,46,0.627,-0.5396,0.601,0.477,0.3463
-0.041,-0.082,-0.129,76.1,227.5,-13.2,1023,2018,5,17,20,46,0.65,-0.5569,0.5861,0.4947,0.3184
-0.073,-0.041,-0.121,75.5,224.4,-18.8,1023,2018,5,17,20,46,0.686,-0.5736,0.5695,0.5129,0.2887
-0.092,0.114,-0.169,66,199.7,-34.8,1023,2018,5,17,20,46,0.709,-0.589,0.5538,0.528,0.2597
-0.1,0.187,-0.194,51.4,165.4,-55.3,1023,2018,5,17,20,46,0.713,-0.6029,0.5417,0.5375,0.2325
-0.079,0.109,-0.208,38.6,151.9,-68.9,1023,2018,5,17,20,46,0.732,-0.6159,0.5326,0.5422,0.2069
-0.068,0.092,-0.147,31.4,159.5,-68.5,1023,2018,5,17,20,46,0.75,-0.6294,0.5234,0.5447,0.1816
-0.031,0.155,-0.102,33.8,163.9,-64.1,1023,2018,5,17,20,46,0.773,-0.6432,0.5123,0.5471,0.1559
-0.01,0.288,-0.126,39.6,150.2,-63,1023,2018,5,17,20,46,0.793,-0.6553,0.5012,0.5497,0.1303
-0.009,0.314,-0.184,45.6,120.5,-59.5,1023,2018,5,17,20,46,0.83,-0.6643,0.4924,0.5519,0.1068
-0.073,0.075,-0.217,47.5,148.7,-41.6,1023,2018,5,17,20,46,0.853,-0.6716,0.4828,0.5555,0.0842
-0.12,0.188,-0.188,34.6,195.5,-22.7,1023,2018,5,17,20,46,0.857,-0.6827,0.4654,0.5599,0.0602
-0.114,0.39,-0.175,23.2,192.5,-18.1,0,2018,5,17,20,46,0.873,-0.6959,0.4435,0.5635,0.0362
-0.076,0.446,-0.163,19.8,138,-24.9,0,2018,5,17,20,46,0.896,-0.7067,0.4251,0.5652,0.0158
-0.077,0.339,-0.174,22.7,93,-25.2,0,2018,5,17,20,46,0.912,-0.7127,0.414,0.5661,0.0001
-0.119,0.155,-0.191,20.7,105.2,-11.1,0,2018,5,17,20,46,0.931,-0.7173,0.404,0.5675,-0.0132
-0.179,0.119,-0.211,17.1,134.7,9,0,2018,5,17,20,46,0.951,-0.7237,0.3888,0.5694,-0.0266
-0.364,-0.173,0.027,-7.9,182,27.9,0,2018,5,17,20,46,0.987,-0.7332,0.367,0.5709,-0.04
-0.312,-0.123,0.381,-51,243.3,24.4,0,2018,5,17,20,46,1.009,-0.7507,0.3349,0.5665,-0.0564
-0.253,-0.045,0.683,-77.5,192,-5.7,0,2018,5,17,20,46,1.016,-0.7699,0.3052,0.5554,-0.0734
-0.077,0.108,0.667,-81.8,115.9,-25.5,0,2018,5,17,20,46,1.033,-0.7855,0.287,0.5413,-0.0862
-0.038,0.194,0.398,-77.2,57.4,-33.3,0,2018,5,17,20,46,1.055,-0.7965,0.28,0.5274,-0.094
0.017,0.167,0.22,-69.2,42.2,-31.1,0,2018,5,17,20,46,1.074,-0.8049,0.2776,0.5148,-0.0993
0.005,0.056,0.123,-61.1,36.6,-30.2,0,2018,5,17,20,46,1.095,-0.812,0.2759,0.5035,-0.104
0.009,0.091,0.023,-54.2,31.7,-30.7,0,2018,5,17,20,46,1.113,-0.8186,0.2739,0.493,-0.1082
0.034,0.103,-0.016,-51.6,15.5,-36.3,0,2018,5,17,20,46,1.131,-0.8239,0.2735,0.4834,-0.1119
0.05,0.065,-0.015,-44,3.4,-40,0,2018,5,17,20,46,1.152,-0.8278,0.2759,0.4745,-0.1155
0.036,-0.032,0.034,-29.4,0.2,-40.9,1023,2018,5,17,20,46,1.191,-0.8302,0.2797,0.4669,-0.1197
-0.021,-0.169,0.057,-10.2,6.6,-36.9,1023,2018,5,17,20,46,1.215,-0.8311,0.2834,0.4617,-0.1251
-0.02,-0.084,0.044,-1.3,21,-29.6,1023,2018,5,17,20,46,1.219,-0.8316,0.2842,0.4587,-0.1311
0.003,0.003,0.007,-1.7,19.3,-33.5,1023,2018,5,17,20,46,1.235,-0.832,0.2834,0.4565,-0.1372
0.023,-0.011,-0.002,-1.3,6.9,-37.9,1023,2018,5,17,20,46,1.257,-0.832,0.2843,0.4541,-0.1434
0.051,-0.088,-0.018,2.4,3.9,-30.5,1023,2018,5,17,20,46,1.294,-0.8312,0.2869,0.4521,-0.149
0.042,-0.1,-0.013,7.7,19.6,-14.7,1023,2018,5,17,20,46,1.317,-0.8305,0.2876,0.4513,-0.1538
0.019,-0.02,0.054,11.3,33.9,-6.4,1023,2018,5,17,20,46,1.322,-0.831,0.2841,0.4511,-0.1582
0.024,0.037,0.123,10.9,13.1,-11.6,1023,2018,5,17,20,46,1.338,-0.8316,0.2802,0.451,-0.162
0.014,0.042,0.122,9.1,-18,-15,1023,2018,5,17,20,46,1.357,-0.8305,0.2813,0.4517,-0.1642
0.057,-0.026,0.033,8.2,-18.8,-15.2,1023,2018,5,17,20,46,1.38,-0.8289,0.2849,0.4519,-0.1653
0.07,0.01,-0.03,-1.3,4.4,-10.6,1023,2018,5,17,20,46,1.399,-0.828,0.2871,0.4516,-0.1671
0.069,0.173,-0.056,-4.7,13.6,-10.8,1023,2018,5,17,20,46,1.422,-0.8287,0.2859,0.4503,-0.169
0.069,0.132,-0.083,-3.2,8.5,-20,1023,2018,5,17,20,46,1.436,-0.8293,0.2849,0.4489,-0.1714
0.042,0.097,-0.088,-2.6,12.3,-20.6,1023,2018,5,17,20,46,1.454,-0.8293,0.2848,0.4476,-0.1747
0.007,0.102,-0.087,-3,29,-16.6,1023,2018,5,17,20,46,1.475,-0.8299,0.2829,0.4463,-0.1784
-0.003,0.136,-0.042,-6.9,43.2,-17.2,1023,2018,5,17,20,46,1.513,-0.8316,0.2782,0.4443,-0.1829
-0.019,0.141,0.048,-9.4,36.7,-19,1023,2018,5,17,20,46,1.537,-0.8338,0.2736,0.4409,-0.1882
-0.035,0.135,0.142,-9.5,19.4,-18.5,0,2018,5,17,20,46,1.54,-0.8352,0.2712,0.4377,-0.1926
-0.033,0.126,0.145,-11,-0.1,-14.5,0,2018,5,17,20,46,1.576,-0.8359,0.2715,0.4351,-0.1953
0.007,0.109,0.104,-7,-11.9,-5.4,0,2018,5,17,20,46,1.598,-0.8359,0.2737,0.4335,-0.1957
0.016,0.04,0.071,-5.6,-19.3,-3.2,0,2018,5,17,20,46,1.603,-0.8358,0.276,0.4326,-0.1947
0.031,-0.001,0.045,-6.9,-24.5,0,0,2018,5,17,20,46,1.62,-0.8355,0.2791,0.4319,-0.1929
0.057,-0.027,0.024,-9.9,-25.1,6.6,0,2018,5,17,20,46,1.638,-0.8352,0.2828,0.4313,-0.1904
0.053,-0.011,0.018,-13.7,-29,12.7,0,2018,5,17,20,46,1.662,-0.8352,0.2865,0.4304,-0.1866
0.048,0.021,0.021,-15,-34.1,15,0,2018,5,17,20,46,1.68,-0.8354,0.2905,0.4297,-0.1815
0.076,0.018,0.01,-11.3,-38.8,14.8,0,2018,5,17,20,46,1.698,-0.8352,0.295,0.4293,-0.1759
0.055,0.007,-0.008,-6.9,-40.2,13.3,0,2018,5,17,20,46,1.722,-0.8343,0.3001,0.4297,-0.1706
0.035,-0.013,-0.004,-2.6,-36.3,12.1,0,2018,5,17,20,46,1.741,-0.833,0.305,0.4306,-0.1657
0.012,-0.035,-0.001,0.9,-27.6,11.6,0,2018,5,17,20,46,1.758,-0.8317,0.3089,0.4319,-0.1616
-0.006,-0.039,0.008,2.1,-17.6,11.3,0,2018,5,17,20,46,1.779,-0.8307,0.3113,0.4334,-0.1584
-0.033,-0.02,0.017,2.8,-13,10,0,2018,5,17,20,46,1.8,-0.83,0.3125,0.4347,-0.1558
-0.043,0,0.007,2.5,-13.1,7.9,1023,2018,5,17,20,46,1.823,-0.8294,0.3133,0.4361,-0.1535
-0.03,0.025,0.005,3,-14.8,4.6,1023,2018,5,17,20,46,1.84,-0.8287,0.3145,0.4374,-0.1514
-0.014,0.03,0.006,4.1,-13.9,2.1,1023,2018,5,17,20,46,1.862,-0.8278,0.3159,0.4386,-0.1498
-0.008,0.002,-0.014,4.4,-8.9,0.5,1023,2018,5,17,20,46,1.881,-0.8269,0.3171,0.4398,-0.1488
0.001,0.007,-0.024,3.6,-4.7,0,1023,2018,5,17,20,46,1.904,-0.8262,0.3179,0.4407,-0.1484
0.01,0.021,-0.019,2.1,-3.5,0.2,1023,2018,5,17,20,46,1.92,-0.8257,0.3183,0.4413,-0.1482
0.016,0.031,-0.019,0.3,-4.6,0.7,1023,2018,5,17,20,46,1.938,-0.8254,0.3186,0.4417,-0.1478
0.009,0.038,-0.008,-0.8,-5.5,1,1023,2018,5,17,20,46,1.959,-0.8253,0.3191,0.4419,-0.1471
-0.003,0.032,-0.009,-2.4,-6.9,2.3,1023,2018,5,17,20,46,1.997,-0.8252,0.3197,0.442,-0.1461
-0.008,0.02,-0.004,-2.8,-4.7,3.3,1023,2018,5,17,20,46,2.02,-0.8252,0.3202,0.4421,-0.1449
-0.013,0.013,-0.001,-3.6,-0.2,3.6,1023,2018,5,17,20,46,2.025,-0.8254,0.3201,0.442,-0.1438
-0.012,0.02,0.009,-3.2,2.8,3.9,1023,2018,5,17,20,46,2.041,-0.826,0.3194,0.4417,-0.143
-0.019,0.024,0.013,-2.4,4,4.6,1023,2018,5,17,20,46,2.063,-0.8266,0.3182,0.4415,-0.1423
-0.021,0.035,0.021,-1.7,2.9,4.1,1023,2018,5,17,20,46,2.1,-0.8273,0.317,0.4415,-0.1417
-0.016,0.029,0.02,-1.1,0,2.5,1023,2018,5,17,20,46,2.102,-0.8278,0.3161,0.4414,-0.141
-0.004,0.022,0.027,-0.3,-3.5,0,1023,2018,5,17,20,46,2.139,-0.8279,0.3159,0.4414,-0.1405
0.004,0.013,0.023,0.7,-3.7,-1.4,1023,2018,5,17,20,46,2.162,-0.8279,0.3162,0.4413,-0.1402
0.012,0,0.01,1.9,-0.5,-0.2,0,2018,5,17,20,46,2.167,-0.8278,0.3164,0.4414,-0.1402
0.019,0.003,-0.003,2.3,2.4,1.2,0,2018,5,17,20,46,2.203,-0.8277,0.3162,0.4416,-0.1404
0.014,0.009,-0.008,3.1,2.5,2.5,0,2018,5,17,20,46,2.226,-0.8278,0.3155,0.442,-0.1404
0.008,0.007,-0.009,3,1.8,3.1,0,2018,5,17,20,46,2.231,-0.8277,0.3148,0.4426,-0.1403
0.007,0.01,-0.004,1.1,0.5,2.6,0,2018,5,17,20,46,2.244,-0.8277,0.3143,0.4431,-0.1401
0.008,0,0,0,0.8,1.7,0,2018,5,17,20,46,2.263,-0.8278,0.314,0.4432,-0.1398
0.012,0,-0.009,-0.5,3.4,1.4,0,2018,5,17,20,46,2.283,-0.828,0.3136,0.4432,-0.1397
0.003,0.01,-0.016,0,6,1.6,0,2018,5,17,20,46,2.325,-0.8283,0.3127,0.4432,-0.1398
0.001,0.02,-0.005,0.4,7.6,1.7,0,2018,5,17,20,46,2.345,-0.8287,0.3115,0.4432,-0.1401
-0.004,0.025,0.007,0.2,6.4,1.2,0,2018,5,17,20,46,2.35,-0.8292,0.31,0.4432,-0.1403
-0.004,0.028,0.008,-0.3,3.5,0.3,0,2018,5,17,20,46,2.366,-0.8296,0.3089,0.4431,-0.1404
0.002,0.022,0.009,-0.2,2.3,0,0,2018,5,17,20,46,2.384,-0.8299,0.3083,0.443,-0.1405
0.003,0.01,0,-0.2,3.5,0.5,0,2018,5,17,20,46,2.407,-0.8302,0.3076,0.443,-0.1405
-0.003,0.011,-0.007,-0.2,4.2,0.5,0,2018,5,17,20,46,2.424,-0.8305,0.3069,0.4429,-0.1407
-0.008,0.018,-0.011,-1.2,2.9,0.1,0,2018,5,17,20,46,2.46,-0.8307,0.3062,0.4429,-0.1407
0.001,0.022,-0.001,-2.4,1.4,-0.8,0,2018,5,17,20,46,2.484,-0.831,0.3058,0.4426,-0.1407
0.006,0.013,0.002,-3.1,1.3,-1.6,1023,2018,5,17,20,46,2.488,-0.8314,0.3056,0.4421,-0.1407
0.009,0.009,0.002,-3,1.6,-2,1023,2018,5,17,20,46,2.507,-0.8317,0.3055,0.4415,-0.1409
0.011,0.01,0.002,-2.8,3.1,-1.7,1023,2018,5,17,20,46,2.524,-0.8321,0.3053,0.4408,-0.1412
0.011,0.019,0,-3.3,3.4,-1.4,1023,2018,5,17,20,46,2.547,-0.8325,0.3049,0.4402,-0.1415
0.005,0.021,0.004,-3.2,2.5,-1.4,1023,2018,5,17,20,46,2.565,-0.833,0.3044,0.4395,-0.1417
0.005,0.011,-0.002,-2.2,2.1,-1.6,1023,2018,5,17,20,46,2.587,-0.8334,0.3042,0.439,-0.1419
0.007,0.01,0,-2.1,3.1,-1.9,1023,2018,5,17,20,46,2.625,-0.8337,0.3039,0.4385,-0.1422
0.013,0.015,0.005,-2.2,3.9,-2.4,1023,2018,5,17,20,46,2.648,-0.8341,0.3035,0.4379,-0.1426
0.012,0.023,0.011,-1.5,4.1,-2.2,1023,2018,5,17,20,46,2.652,-0.8345,0.3029,0.4373,-0.1432
0.007,0.023,0.008,-0.5,4.2,-1.5,1023,2018,5,17,20,46,2.668,-0.8349,0.3023,0.4368,-0.1437
0.006,0.021,0,0.1,4.6,-0.7,1023,2018,5,17,20,46,2.691,-0.8352,0.3015,0.4366,-0.1441
0.005,0.013,0.002,0.6,4.7,0,1023,2018,5,17,20,46,2.709,-0.8355,0.3007,0.4365,-0.1445
-0.001,0.017,0.001,1,4.7,0.3,1023,2018,5,17,20,46,2.732,-0.8357,0.2998,0.4365,-0.1448
-0.006,0.02,0.004,0.3,2.6,0,1023,2018,5,17,20,46,2.748,-0.836,0.299,0.4366,-0.145
-0.002,0.021,0.008,-0.5,0.1,-0.6,1023,2018,5,17,20,46,2.768,-0.8361,0.2986,0.4366,-0.145
0.007,0.011,-0.008,-0.8,0.2,-1.1,1023,2018,5,17,20,46,2.786,-0.8362,0.2985,0.4364,-0.145
0.01,0.003,-0.014,-1,1.6,-1.1,1023,2018,5,17,20,46,2.809,-0.8363,0.2985,0.4363,-0.1452
0.006,-0.006,-0.013,-0.9,3,-1.6,1023,2018,5,17,20,46,2.828,-0.8364,0.2983,0.436,-0.1455
0.008,-0.007,-0.005,-1.3,5.3,-2.4,1023,2018,5,17,20,46,2.85,-0.8366,0.298,0.4357,-0.1461
0.012,0.003,-0.015,-1.8,5.2,-3,0,2018,5,17,20,46,2.888,-0.8369,0.2975,0.4352,-0.1469
0.011,0.012,-0.003,-2.2,7.5,-2.8,0,2018,5,17,20,46,2.911,-0.8373,0.2969,0.4346,-0.1477
0.003,0.027,0.011,-2.3,9.6,-1.7,0,2018,5,17,20,46,2.915,-0.838,0.2956,0.4338,-0.1485
0.002,0.033,0.031,-2.5,8.5,-1.1,0,2018,5,17,20,46,2.929,-0.8388,0.2941,0.433,-0.1492
-0.001,0.034,0.026,-2.7,3.8,-1.8,0,2018,5,17,20,46,2.953,-0.8395,0.2929,0.4322,-0.1496
0.001,0.026,0.02,-3,0.9,-2.4,0,2018,5,17,20,46,2.971,-0.84,0.2923,0.4316,-0.1498
0.009,0.028,0.001,-1.5,-0.9,-2,0,2018,5,17,20,46,2.993,-0.8403,0.2923,0.4311,-0.1499
0.01,0.025,-0.007,0.3,-0.2,-0.8,0,2018,5,17,20,46,3.01,-0.8403,0.2923,0.4309,-0.15
0.007,0.023,-0.005,1.3,0.7,0.2,0,2018,5,17,20,46,3.046,-0.8403,0.2922,0.4311,-0.15
0.003,0.02,-0.004,1,-0.2,0.1,0,2018,5,17,20,46,3.069,-0.8403,0.2919,0.4313,-0.15
0.006,0.014,-0.002,-0.1,-2.6,-0.2,0,2018,5,17,20,46,3.073,-0.8402,0.292,0.4314,-0.1498
0.007,0.007,-0.009,-1.3,-5.4,-0.6,0,2018,5,17,20,46,3.09,-0.8401,0.2926,0.4314,-0.1495
0.01,-0.004,-0.008,-1.4,-5.8,-1.1,0,2018,5,17,20,46,3.113,-0.8399,0.2934,0.4314,-0.1491
0.012,-0.008,-0.016,-1.1,-3.4,-0.9,0,2018,5,17,20,46,3.131,-0.8397,0.2942,0.4313,-0.1489
0.014,0,-0.016,-0.3,-0.8,-0.8,0,2018,5,17,20,46,3.154,-0.8396,0.2947,0.4311,-0.1489
0.016,0.014,-0.008,0.6,0.1,-0.5,0,2018,5,17,20,46,3.172,-0.8396,0.2948,0.4311,-0.149
0.008,0.019,0.003,1.1,-0.2,-0.1,1023,2018,5,17,20,46,3.195,-0.8396,0.2947,0.4312,-0.1491
0.005,0.026,0.008,1.4,-2.6,-0.3,1023,2018,5,17,20,46,3.211,-0.8395,0.2947,0.4313,-0.149
0.01,0.019,0.008,1.4,-4.4,-0.9,1023,2018,5,17,20,46,3.248,-0.8393,0.295,0.4315,-0.1488
0.015,0.007,0.012,1.6,-6.5,-1.9,1023,2018,5,17,20,46,3.27,-0.839,0.2958,0.4317,-0.1487
0.016,0.002,0.013,2.8,-6.6,-1.4,1023,2018,5,17,20,46,3.273,-0.8385,0.2967,0.432,-0.1486
0.008,0.003,0.001,4.7,-6.5,-0.6,1023,2018,5,17,20,46,3.29,-0.8379,0.2976,0.4325,-0.1485
0.01,0.004,-0.007,5.2,-5.7,-0.2,1023,2018,5,17,20,46,3.312,-0.8372,0.2985,0.4334,-0.1484
0.012,0.007,0.004,5.1,-0.7,1.3,1023,2018,5,17,20,46,3.333,-0.8366,0.2988,0.4342,-0.1483
0.012,0.016,0.004,6.6,-0.2,1.9,1023,2018,5,17,20,46,3.351,-0.8364,0.2984,0.435,-0.1484
0.022,0.008,0,6.9,-2.8,0.5,0,2018,5,17,20,46,3.374,-0.8358,0.2983,0.4361,-0.1484
0.041,0.015,0,5,-1.2,-1.4,0,2018,5,17,20,46,3.395,-0.8353,0.2985,0.4369,-0.1487
0.042,-0.014,-0.005,6.2,5.3,-3.8,0,2018,5,17,20,46,3.413,-0.8349,0.2985,0.4373,-0.1497
0.051,-0.013,0.006,10.2,12.3,-0.8,0,2018,5,17,20,46,3.437,-0.8347,0.2974,0.4378,-0.1515
0.058,0.036,-0.009,15.5,14.8,3.8,0,2018,5,17,20,46,3.473,-0.8346,0.2949,0.439,-0.1532
0.051,0.114,-0.039,18.3,9.5,7.1,0,2018,5,17,20,46,3.473,-0.8343,0.2917,0.4415,-0.1541
0.05,0.15,-0.014,19.7,-6.1,6.9,0,2018,5,17,20,46,3.496,-0.8334,0.2896,0.4447,-0.1537
0.065,0.095,0.004,21.9,-19.1,4.7,0,2018,5,17,20,46,3.515,-0.8316,0.29,0.4483,-0.1527
0.052,0.062,0.012,23.3,-25.7,7.1,0,2018,5,17,20,46,3.532,-0.829,0.292,0.4521,-0.1512
0.039,-0.002,0.043,25.5,-22.3,12.8,0,2018,5,17,20,46,3.555,-0.8263,0.2939,0.4565,-0.1491
0.027,-0.019,0.049,26.7,-18.5,17.7,0,2018,5,17,20,46,3.574,-0.8239,0.2948,0.4611,-0.1469
0.004,0.003,0.029,25.9,-23.6,21.5,0,2018,5,17,20,46,3.596,-0.8214,0.2954,0.4661,-0.1438
-0.009,0.024,0.006,23.4,-33.8,23.1,0,2018,5,17,20,46,3.615,-0.8185,0.2969,0.4715,-0.1394
-0.016,0.055,-0.021,19.6,-46.4,20.7,0,2018,5,17,20,46,3.638,-0.8152,0.3001,0.4768,-0.1338
-0.043,0.04,-0.026,15.9,-58.5,16.1,0,2018,5,17,20,46,3.654,-0.8113,0.3053,0.4819,-0.1273
-0.056,-0.07,-0.017,14.2,-58.4,8.9,0,2018,5,17,20,46,3.675,-0.8069,0.3124,0.4863,-0.1211
-0.035,-0.078,-0.009,11.8,-50.1,4.1,0,2018,5,17,20,46,3.695,-0.8027,0.3196,0.4897,-0.1164
0.003,-0.059,-0.031,10.3,-44.9,0.5,0,2018,5,17,20,46,3.713,-0.7989,0.3261,0.4925,-0.1129
0.043,-0.057,-0.04,8.6,-41.9,-0.8,0,2018,5,17,20,46,3.736,-0.7953,0.3324,0.4947,-0.11
0.101,-0.023,-0.053,12.4,-35.1,3,0,2018,5,17,20,46,3.755,-0.7918,0.3382,0.4969,-0.1076
0.108,-0.065,-0.031,22.1,-24.9,9.1,0,2018,5,17,20,46,3.773,-0.7884,0.3425,0.4998,-0.1058
0.071,-0.123,0.002,32.7,-5.1,18,0,2018,5,17,20,46,3.796,-0.7851,0.3438,0.5041,-0.105
0.045,-0.1,0.045,37.2,9.3,24.9,0,2018,5,17,20,46,3.814,-0.7827,0.3413,0.5095,-0.1052
-0.016,-0.106,0.046,34.2,14.5,28.8,1023,2018,5,17,20,46,3.837,-0.7808,0.3368,0.5155,-0.1052
0.004,-0.044,0.058,34.4,15.2,31.9,1023,2018,5,17,20,46,3.856,-0.7793,0.3316,0.5211,-0.1047
-0.015,-0.023,0.066,44.2,13,33.9,1023,2018,5,17,20,46,3.878,-0.7775,0.3258,0.5277,-0.1038
-0.033,-0.059,0.082,52.1,20.4,37.9,1023,2018,5,17,20,46,3.897,-0.775,0.3192,0.5355,-0.1033
-0.056,-0.048,0.136,55.7,26.6,36.1,1023,2018,5,17,20,46,3.92,-0.7723,0.3112,0.5439,-0.1036
-0.097,-0.001,0.171,53.9,23.4,29.7,1023,2018,5,17,20,46,3.937,-0.7694,0.3033,0.5522,-0.1047
-0.096,0.05,0.187,51.6,12.9,25.7,1023,2018,5,17,20,46,3.955,-0.7657,0.2972,0.5604,-0.1056
-0.086,0.071,0.181,48.9,-6.4,22.4,1023,2018,5,17,20,46,3.994,-0.7614,0.2935,0.5682,-0.1053
-0.105,-0.002,0.14,47.5,-24.2,19.6,1023,2018,5,17,20,46,3.994,-0.7562,0.2923,0.5761,-0.1032
-0.105,0.04,0.046,44.5,-37.4,16,1023,2018,5,17,20,46,4.016,-0.7507,0.2932,0.5834,-0.0997
-0.081,0.08,-0.012,39.2,-45.1,13.6,1023,2018,5,17,20,46,4.035,-0.7446,0.2957,0.5907,-0.095
-0.058,0.071,-0.007,34.9,-52.9,12.8,1023,2018,5,17,20,46,4.058,-0.7385,0.2995,0.5973,-0.0894
-0.035,0.065,0.012,32.7,-57.7,11.6,1023,2018,5,17,20,46,4.076,-0.7323,0.3041,0.6034,-0.0832
-0.023,0.028,0.008,29.4,-62.9,10.5,1023,2018,5,17,20,46,4.1,-0.7261,0.3095,0.6091,-0.0766
-0.028,0.035,-0.009,25.2,-71,6.9,0,2018,5,17,20,46,4.137,-0.7198,0.3159,0.6141,-0.0693
-0.039,0.007,-0.03,26.3,-79.2,4.7,0,2018,5,17,20,46,4.159,-0.7128,0.324,0.6189,-0.0617
-0.031,0.026,-0.052,31.3,-82,7.4,0,2018,5,17,20,46,4.164,-0.705,0.3326,0.624,-0.0533
-0.067,0.058,-0.097,45.9,-85,22.3,0,2018,5,17,20,46,4.18,-0.6956,0.3406,0.6309,-0.0443
-0.01,0.042,-0.126,42.5,-83.3,30.5,0,2018,5,17,20,46,4.204,-0.6859,0.347,0.6385,-0.034
-0.025,0.083,-0.115,34.5,-80.1,30.2,0,2018,5,17,20,46,4.217,-0.6769,0.3526,0.6456,-0.0234
0.021,0.105,-0.022,41,-94.7,25.3,0,2018,5,17,20,46,4.235,-0.6678,0.3591,0.6518,-0.0119
0.005,0.072,0.038,55.3,-107.1,25.7,0,2018,5,17,20,46,4.258,-0.6555,0.3673,0.6597,0
-0.013,-0.02,-0.039,48,-94.7,22.8,0,2018,5,17,20,46,4.295,-0.643,0.3759,0.6671,0.0116
-0.027,-0.033,-0.072,38.2,-69.3,20,0,2018,5,17,20,46,4.317,-0.6321,0.3826,0.6733,0.0204
0.012,0,0.025,30.2,-58.3,17,0,2018,5,17,20,46,4.322,-0.6239,0.3873,0.6781,0.0276
0,-0.021,0.102,28.2,-61,13.3,0,2018,5,17,20,46,4.341,-0.6169,0.3919,0.6815,0.0342
0,-0.011,0.102,22.2,-62.6,9.9,0,2018,5,17,20,46,4.359,-0.6103,0.3971,0.6841,0.0412
-0.007,-0.038,0.045,12.4,-46.1,9.4,0,2018,5,17,20,46,4.382,-0.6051,0.4017,0.6856,0.0475
0.002,-0.01,0.047,1.3,-24.7,12,0,2018,5,17,20,46,4.4,-0.6023,0.4038,0.6865,0.0522
0.026,0.026,0.087,-7.1,-10.1,13.3,0,2018,5,17,20,46,4.42,-0.6019,0.4038,0.6865,0.0558
-0.028,0.132,0.14,-13.1,-4.5,9,0,2018,5,17,20,46,4.454,-0.603,0.4025,0.6861,0.0587
-0.027,0.114,0.136,-19.7,-20.7,0.7,0,2018,5,17,20,46,4.476,-0.6042,0.403,0.6845,0.0618
-0.029,0.025,0.04,-23.5,-19.9,-1.9,0,2018,5,17,20,46,4.477,-0.6054,0.4052,0.6817,0.0662
-0.042,0.073,-0.03,-28.8,-8.7,3,1023,2018,5,17,20,46,4.511,-0.6075,0.4061,0.679,0.0698
-0.06,0.116,-0.023,-29.1,-13.2,5.7,1023,2018,5,17,20,46,4.532,-0.6097,0.4061,0.6765,0.0744
-0.019,0.089,-0.021,-22.7,-20.5,1.4,1023,2018,5,17,20,46,4.54,-0.6111,0.4068,0.6743,0.0795
-0.009,0.025,-0.044,-17.4,-14.6,-1.7,1023,2018,5,17,20,46,4.576,-0.6116,0.4087,0.6722,0.0832
0.01,0.028,-0.049,-17.7,-4.1,-1.1,1023,2018,5,17,20,46,4.598,-0.6124,0.4099,0.6704,0.0853
-0.002,-0.007,-0.073,-16.3,4.1,-4.2,1023,2018,5,17,20,46,4.6,-0.6138,0.4103,0.6688,0.086
-0.009,-0.018,-0.06,-21.9,9.2,-5,1023,2018,5,17,20,46,4.637,-0.616,0.4103,0.6669,0.0858
-0.003,0.032,-0.037,-27.1,11.9,-12.4,1023,2018,5,17,20,46,4.66,-0.6195,0.4098,0.6639,0.0853
0.02,0.068,-0.036,-25.7,2.9,-25,1023,2018,5,17,20,46,4.665,-0.6229,0.4109,0.6602,0.0845
0.035,0.042,-0.036,-26.7,-6.9,-31.3,1023,2018,5,17,20,46,4.701,-0.6255,0.4144,0.6557,0.0837
0.052,0.019,-0.061,-29.3,-3,-32.2,1023,2018,5,17,20,46,4.724,-0.6282,0.4185,0.6505,0.0827
0.075,0.046,-0.087,-30,5.2,-28.2,1023,2018,5,17,20,46,4.729,-0.6314,0.4219,0.6454,0.0812
0.048,0.104,-0.129,-30.9,9.6,-24,1023,2018,5,17,20,46,4.744,-0.6353,0.4239,0.6405,0.0796
0.042,0.153,-0.119,-30.8,4.2,-21.3,1023,2018,5,17,20,46,4.761,-0.6394,0.4254,0.6355,0.0784
0.032,0.201,-0.124,-32.1,-12,-19.9,1023,2018,5,17,20,46,4.784,-0.6429,0.4277,0.6304,0.0787
0.057,0.195,-0.133,-33,-36.2,-20.5,1023,2018,5,17,20,46,4.803,-0.6447,0.4326,0.6248,0.0815
0.076,0.171,-0.128,-34.6,-53.5,-20.5,1023,2018,5,17,20,46,4.826,-0.6451,0.4397,0.6187,0.0866
0.056,0.175,-0.07,-31.6,-63.5,-19.3,1023,2018,5,17,20,46,4.843,-0.6442,0.4484,0.6124,0.0934
-0.01,0.178,0.088,-38.8,-61.8,-27.5,1023,2018,5,17,20,46,4.866,-0.6431,0.4573,0.6058,0.1004
-0.093,0.354,0.048,-77.7,-101.6,-40.2,1023,2018,5,17,20,46,4.883,-0.6433,0.4688,0.5952,0.1091
-0.017,0.368,-0.039,-108.6,-196,-54.4,1023,2018,5,17,20,46,4.906,-0.6415,0.4887,0.5773,0.127
0.025,0.249,-0.062,-127.9,-291.5,-63.9,1023,2018,5,17,20,46,4.943,-0.633,0.5192,0.5527,0.1552
0.045,0.136,-0.081,-135.2,-355.9,-67.4,0,2018,5,17,20,46,4.966,-0.6164,0.5575,0.522,0.1912
0.04,-0.003,-0.077,-132,-379.3,-61.7,0,2018,5,17,20,46,4.971,-0.5924,0.5981,0.4878,0.2305
0.021,-0.137,-0.046,-123.9,-350.6,-44.2,0,2018,5,17,20,46,4.989,-0.5652,0.635,0.4528,0.2684
-0.007,-0.11,-0.018,-114.2,-295,-25.8,0,2018,5,17,20,46,5.005,-0.5396,0.6634,0.4208,0.3023
-0.024,-0.063,-0.043,-100.3,-238.3,-9.6,0,2018,5,17,20,46,5.041,-0.5169,0.6837,0.3939,0.3318
-0.017,-0.051,-0.096,-83.8,-179.3,3.2,0,2018,5,17,20,46,5.062,-0.4976,0.6974,0.3729,0.3561
0.005,-0.104,-0.12,-67.7,-108.8,17.7,0,2018,5,17,20,46,5.066,-0.4838,0.7049,0.3585,0.3746
0.03,-0.131,-0.13,-51.6,-33.2,32.5,0,2018,5,17,20,46,5.103,-0.4772,0.7051,0.3521,0.3884
0.055,-0.143,-0.163,-33,41.8,44.7,0,2018,5,17,20,46,5.126,-0.4779,0.6993,0.3539,0.3964
0.016,-0.081,-0.224,-16.4,108,54.7,0,2018,5,17,20,46,5.131,-0.4854,0.6879,0.3634,0.3986
-0.005,0.012,-0.26,-3.5,151.5,59.4,0,2018,5,17,20,46,5.165,-0.4978,0.6721,0.3787,0.3961
-0.012,0.063,-0.289,8.3,170.3,58.8,0,2018,5,17,20,46,5.188,-0.5124,0.6538,0.397,0.39
0.009,0.062,-0.297,22.2,173.7,54.9,0,2018,5,17,20,46,5.192,-0.5269,0.6352,0.4165,0.3811
0.052,0.035,-0.28,33.2,175.2,54.6,1023,2018,5,17,20,46,5.208,-0.5403,0.6168,0.4365,0.3701
0.092,0.043,-0.264,41.7,174.2,54.9,1023,2018,5,17,20,46,5.231,-0.5524,0.5982,0.4571,0.3576
0.109,0.047,-0.263,45.8,166.9,53.6,1023,2018,5,17,20,46,5.247,-0.563,0.5799,0.4775,0.3444
0.095,0.077,-0.283,46.6,153.6,52,1023,2018,5,17,20,46,5.265,-0.5719,0.5622,0.4968,0.3314
0.122,0.06,-0.232,47,138.4,49.2,1023,2018,5,17,20,46,5.289,-0.579,0.5458,0.5147,0.3191
0.124,0.053,-0.188,48.3,122.1,43.9,1023,2018,5,17,20,46,5.305,-0.5843,0.5309,0.531,0.3075
0.12,0.013,-0.173,48.2,103.9,37.8,1023,2018,5,17,20,46,5.327,-0.5879,0.5181,0.5456,0.2967
0.056,0.032,-0.202,45.7,80.3,30.8,1023,2018,5,17,20,46,5.364,-0.5899,0.5077,0.5583,0.2871
0.015,0.029,-0.212,41.2,51.6,22.2,1023,2018,5,17,20,46,5.386,-0.59,0.5005,0.5683,0.2796
0.022,0,-0.172,38.1,30,15,1023,2018,5,17,20,46,5.388,-0.5886,0.4966,0.5758,0.2741
0.03,-0.041,-0.141,37.7,19.5,10.3,1023,2018,5,17,20,46,5.425,-0.5862,0.4947,0.582,0.2697
-0.001,-0.078,-0.109,38.2,16.9,9.7,1023,2018,5,17,20,46,5.446,-0.5831,0.4941,0.5876,0.2652
-0.024,-0.082,-0.063,41,30.6,11.3,1023,2018,5,17,20,46,5.448,-0.5803,0.4932,0.5936,0.2597
-0.149,-0.169,0.028,46.7,48.1,13.7,1023,2018,5,17,20,46,5.484,-0.5784,0.4905,0.6008,0.2525
-0.227,-0.021,0.534,28.5,152.8,31.3,0,2018,5,17,20,46,5.507,-0.5817,0.4793,0.6115,0.2405
-0.109,0.239,0.501,7.2,115.2,19.9,0,2018,5,17,20,46,5.512,-0.5988,0.4466,0.6298,0.2126
-0.016,0.091,0.292,8.2,84.8,19.2,0,2018,5,17,20,46,5.528,-0.6046,0.4348,0.6356,0.2032
-0.033,-0.01,0.155,13.6,61.1,24.3,0,2018,5,17,20,46,5.551,-0.608,0.4254,0.6408,0.1965
-0.041,-0.129,0.074,15.7,56.2,30.3,0,2018,5,17,20,46,5.569,-0.6096,0.4168,0.6462,0.1921
-0.013,-0.13,0.035,14.7,76.1,31.7,0,2018,5,17,20,46,5.588,-0.6116,0.4071,0.6521,0.1866
0.013,0.002,-0.014,4.6,86.3,30,0,2018,5,17,20,46,5.61,-0.6155,0.3952,0.6577,0.1793
0.024,0.022,-0.044,-3,76.2,21,0,2018,5,17,20,46,5.628,-0.6198,0.3838,0.6623,0.1725
0.04,0.008,-0.068,-11.1,62.7,13.8,0,2018,5,17,20,46,5.651,-0.6242,0.3744,0.665,0.1667
0.044,-0.011,-0.086,-17.5,52,8.8,0,2018,5,17,20,46,5.671,-0.6286,0.3671,0.6661,0.1619
0.041,0.012,-0.127,-20.6,44.6,5.5,0,2018,5,17,20,46,5.693,-0.6328,0.361,0.6664,0.1579
0.007,0.054,-0.191,-20.7,35.6,1.7,0,2018,5,17,20,46,5.713,-0.6374,0.3558,0.6656,0.1549
0.027,0.068,-0.201,-15.9,26.9,-2.4,0,2018,5,17,20,46,5.75,-0.6413,0.3521,0.6643,0.1523
0.06,0.068,-0.192,-7.2,19.1,-4.2,0,2018,5,17,20,46,5.75,-0.644,0.35,0.6634,0.1498
0.064,0.051,-0.193,3.6,13.1,-3.7,0,2018,5,17,20,46,5.772,-0.6451,0.349,0.6634,0.1475
0.061,0.05,-0.204,12.5,11.3,-1.8,0,2018,5,17,20,46,5.79,-0.6449,0.3483,0.6645,0.1453
0.038,0.062,-0.221,19.6,13.4,-0.1,0,2018,5,17,20,46,5.814,-0.6436,0.3476,0.6666,0.1427
0.044,0.053,-0.221,24.7,20,1.4,0,2018,5,17,20,46,5.833,-0.6419,0.3464,0.6696,0.1394
0.067,0.033,-0.197,29.4,31.1,3.9,0,2018,5,17,20,46,5.849,-0.6401,0.3442,0.6734,0.135
0.078,0.026,-0.172,33.8,45.7,6.8,0,2018,5,17,20,46,5.871,-0.6384,0.3401,0.6782,0.1291
0.065,0.039,-0.165,36.9,59.2,9.2,0,2018,5,17,20,46,5.908,-0.6371,0.3342,0.6838,0.1215
0.044,0.062,-0.172,38.5,65.9,9.7,0,2018,5,17,20,46,5.931,-0.6359,0.327,0.6898,0.1127
0.036,0.071,-0.157,40.8,66.5,8.8,0,2018,5,17,20,46,5.936,-0.6346,0.3194,0.696,0.1033
0.036,0.073,-0.133,44.1,62.4,7.3,1023,2018,5,17,20,46,5.952,-0.6328,0.3122,0.7023,0.0939
0.016,0.076,-0.11,47.8,56.5,5.5,1023,2018,5,17,20,46,5.973,-0.6302,0.3055,0.7086,0.0849
-0.007,0.065,-0.098,49.8,50.8,3.5,1023,2018,5,17,20,46,5.99,-0.6266,0.2997,0.7152,0.0763
-0.047,0.055,-0.066,49.6,46.8,1.6,1023,2018,5,17,20,46,6.013,-0.6222,0.2944,0.722,0.0684
-0.109,0.1,0.041,41.7,34.5,2.2,1023,2018,5,17,20,46,6.032,-0.6185,0.2894,0.7279,0.0619
-0.229,0.126,0.298,23.9,32.3,6.6,1023,2018,5,17,20,46,6.054,-0.6158,0.2857,0.732,0.0568
-0.211,0.219,0.481,-12.8,25.2,11.1,1023,2018,5,17,20,46,6.072,-0.6166,0.2811,0.7332,0.0539
-0.071,0.248,0.441,-24.6,7,9.6,1023,2018,5,17,20,46,6.094,-0.6202,0.2775,0.7316,0.0539
-0.001,0.202,0.228,-13.8,-31.9,2.2,1023,2018,5,17,20,46,6.113,-0.622,0.2782,0.7296,0.0572
0,0.079,0.075,-0.2,-46.3,1.9,1023,2018,5,17,20,46,6.136,-0.6209,0.2824,0.7284,0.0633
0.006,-0.02,0.007,13.5,-35.7,6.1,1023,2018,5,17,20,46,6.155,-0.6181,0.2863,0.7287,0.0691
-0.011,-0.069,-0.017,20.7,-9.7,10.4,1023,2018,5,17,20,46,6.173,-0.6147,0.2879,0.7307,0.0718
-0.044,-0.071,-0.055,19.8,21.6,12.4,1023,2018,5,17,20,46,6.196,-0.6121,0.2863,0.7336,0.0707
-0.038,-0.012,-0.068,13.6,45,10.3,1023,2018,5,17,20,46,6.215,-0.6112,0.2815,0.7366,0.0664
-0.016,0.02,-0.069,6.1,56.4,7.8,1023,2018,5,17,20,46,6.235,-0.612,0.2749,0.739,0.0604
0.003,0.043,-0.066,-0.8,59.4,7.4,1023,2018,5,17,20,46,6.272,-0.6139,0.2675,0.7406,0.0538
0.012,0.067,-0.068,-5.2,53.6,8.5,1023,2018,5,17,20,46,6.295,-0.6163,0.2601,0.7416,0.0479
0.019,0.07,-0.075,-5.5,43.8,10.3,1023,2018,5,17,20,46,6.299,-0.6185,0.2533,0.7424,0.0433
0.033,0.077,-0.08,-3,30.3,12.8,1023,2018,5,17,20,46,6.315,-0.62,0.2474,0.7434,0.0406
0.032,0.067,-0.079,0.8,13.8,14.4,1023,2018,5,17,20,46,6.337,-0.6202,0.243,0.7447,0.0398
0.02,0.051,-0.084,5.1,-1,16,0,2018,5,17,20,46,6.355,-0.6193,0.2402,0.7463,0.041
0.025,0.013,-0.071,10.2,-11.5,15.3,0,2018,5,17,20,46,6.378,-0.6172,0.2388,0.7483,0.0436
0.04,-0.014,-0.052,13.9,-14.9,14.6,0,2018,5,17,20,46,6.395,-0.6144,0.2385,0.7505,0.0465
0.032,-0.026,-0.02,16.7,-13.5,11.8,0,2018,5,17,20,46,6.417,-0.6114,0.2386,0.7528,0.0489
-0.019,-0.026,0.009,13.2,-19,4.2,0,2018,5,17,20,46,6.455,-0.6086,0.2394,0.7546,0.0511
-0.036,-0.061,0.061,5.2,-26.6,-2.5,0,2018,5,17,20,46,6.478,-0.6068,0.2419,0.7551,0.0538
-0.012,-0.056,0.104,-1.3,-27.1,-1.6,0,2018,5,17,20,46,6.483,-0.6063,0.2453,0.7542,0.0567
-0.001,-0.042,0.116,-2.9,-28.3,1.8,0,2018,5,17,20,46,6.498,-0.6065,0.2481,0.7529,0.0603
0.008,-0.073,0.092,-1.1,-27.5,6.3,0,2018,5,17,20,46,6.522,-0.6064,0.2505,0.7518,0.0643
0.014,-0.107,0.052,3.8,-19.8,11,0,2018,5,17,20,46,6.537,-0.6057,0.2523,0.7515,0.0677
0.018,-0.14,0.03,8.3,-3.9,16.3,0,2018,5,17,20,46,6.555,-0.6046,0.2525,0.7521,0.0697
0.028,-0.161,0.02,12.1,20.2,20.2,0,2018,5,17,20,46,6.577,-0.6034,0.2494,0.7541,0.07
0.011,-0.158,-0.014,14.2,49.8,22.4,1023,2018,5,17,20,46,6.596,-0.6029,0.2431,0.7568,0.0669
0.012,-0.134,-0.048,15.7,78.8,22.6,1023,2018,5,17,20,46,6.618,-0.6033,0.2337,0.76,0.0595
0.028,-0.084,-0.057,17.2,100.9,22.5,1023,2018,5,17,20,46,6.638,-0.6043,0.2219,0.7636,0.0483
0.033,-0.043,-0.058,18.5,114.8,22.1,1023,2018,5,17,20,46,6.66,-0.6054,0.2079,0.7674,0.0349
0.034,-0.006,-0.057,18.6,120.8,20.4,1023,2018,5,17,20,46,6.679,-0.6065,0.1928,0.771,0.0204
0.013,0.034,-0.06,17.5,120.7,18.2,1023,2018,5,17,20,46,6.698,-0.6074,0.1774,0.7742,0.0056
0,0.078,-0.078,14.5,112.1,15,1023,2018,5,17,20,46,6.738,-0.6082,0.1623,0.7769,-0.0083
0,0.114,-0.07,11.8,96.7,11.8,1023,2018,5,17,20,46,6.738,-0.609,0.149,0.7787,-0.021
-0.008,0.152,-0.088,9.6,76.5,8.3,1023,2018,5,17,20,46,6.761,-0.6098,0.1382,0.7797,-0.0318
-0.015,0.172,-0.098,7.2,56.6,5.1,1023,2018,5,17,20,46,6.796,-0.6102,0.13,0.7804,-0.0401
0.001,0.187,-0.08,6.3,40.6,3.7,1023,2018,5,17,20,46,6.819,-0.6104,0.1239,0.7808,-0.0462
-0.001,0.188,-0.038,6.4,28.3,3.9,1023,2018,5,17,20,46,6.824,-0.6103,0.1194,0.7814,-0.0503
-0.025,0.2,0.003,5.8,16.1,3.3,1023,2018,5,17,20,46,6.84,-0.61,0.1162,0.782,-0.053
-0.025,0.226,0.012,1.6,-1.7,0.4,1023,2018,5,17,20,46,6.86,-0.6096,0.115,0.7824,-0.0538
0.002,0.199,0.023,-1.6,-20.2,-3.8,1023,2018,5,17,20,46,6.878,-0.6094,0.1162,0.7825,-0.0522
0.011,0.173,0.024,-3.6,-35.1,-6.9,1023,2018,5,17,20,46,6.902,-0.6091,0.1199,0.7823,-0.0487
-0.033,0.155,0.006,-6.1,-47.7,-9.6,1023,2018,5,17,20,46,6.919,-0.6089,0.1251,0.782,-0.0434
-0.042,0.132,-0.018,-10.8,-53.2,-11.2,1023,2018,5,17,20,46,6.942,-0.6089,0.1311,0.7814,-0.0362
-0.048,0.156,-0.043,-16.6,-55.4,-13.3,1023,2018,5,17,20,46,6.979,-0.6094,0.138,0.7801,-0.0292
-0.055,0.166,-0.094,-21.6,-57.2,-17.5,0,2018,5,17,20,46,7.001,-0.6106,0.146,0.778,-0.0226
-0.058,0.195,-0.139,-23.9,-60.8,-21.3,0,2018,5,17,20,46,7.004,-0.6122,0.1547,0.7752,-0.0159
-0.053,0.215,-0.153,-23.7,-68.3,-23.8,0,2018,5,17,20,46,7.022,-0.6136,0.1645,0.7721,-0.0088
-0.067,0.23,-0.148,-21,-75.4,-24.8,0,2018,5,17,20,46,7.044,-0.6145,0.1754,0.7691,-0.0009
-0.101,0.253,-0.116,-21.3,-81,-22.3,0,2018,5,17,20,46,7.063,-0.6148,0.1868,0.7661,0.0076
-0.067,0.309,-0.069,-23.3,-86,-17.4,0,2018,5,17,20,46,7.086,-0.6151,0.1981,0.7629,0.0174
-0.057,0.301,-0.027,-29.4,-112.4,-16.2,0,2018,5,17,20,46,7.103,-0.6152,0.2108,0.759,0.0296
-0.028,0.239,-0.028,-33.3,-144,-18.5,0,2018,5,17,20,46,7.145,-0.6145,0.2268,0.7541,0.046
-0.002,0.173,-0.044,-34.4,-167.9,-20,0,2018,5,17,20,46,7.148,-0.6127,0.2458,0.7481,0.066
0.01,0.122,-0.065,-34.8,-185,-20.7,0,2018,5,17,20,46,7.163,-0.6096,0.267,0.7411,0.0884
0.025,0.069,-0.097,-33.3,-191.7,-19.3,0,2018,5,17,20,46,7.199,-0.6049,0.289,0.7333,0.1124
0.024,0.036,-0.134,-31.7,-189,-15.7,0,2018,5,17,20,46,7.223,-0.5986,0.3107,0.7255,0.1367
0.029,0,-0.158,-30.5,-180,-10.4,0,2018,5,17,20,46,7.225,-0.5913,0.3311,0.7176,0.16
0.036,-0.044,-0.158,-29.2,-164.8,-3.8,0,2018,5,17,20,46,7.26,-0.5843,0.3492,0.7094,0.1823
0.035,-0.073,-0.147,-28.1,-144.9,1.5,1023,2018,5,17,20,46,7.283,-0.5781,0.3642,0.7013,0.2029
0.026,-0.104,-0.127,-26.7,-126,4.5,1023,2018,5,17,20,46,7.286,-0.5725,0.3766,0.6937,0.2213
-0.006,-0.131,-0.103,-26.5,-110.7,6.3,1023,2018,5,17,20,46,7.321,-0.5675,0.3867,0.6868,0.2377
-0.028,-0.161,-0.087,-28.6,-110.5,3.5,1023,2018,5,17,20,46,7.321,-0.5629,0.3961,0.6798,0.253
-0.009,-0.207,-0.065,-30.4,-119.6,-3.9,1023,2018,5,17,20,46,7.344,-0.5582,0.4062,0.6717,0.2685
0.026,-0.244,-0.056,-31.9,-129.9,-12.2,1023,2018,5,17,20,46,7.361,-0.5531,0.4181,0.662,0.2844
0.076,-0.299,-0.063,-29.8,-135.1,-15.9,1023,2018,5,17,20,46,7.383,-0.5473,0.4314,0.6511,0.3005
0.074,-0.361,-0.084,-24.7,-113.3,-13,1023,2018,5,17,20,46,7.422,-0.5413,0.4438,0.6406,0.3152
0.069,-0.374,-0.121,-18.5,-79.1,-6.5,1023,2018,5,17,20,46,7.443,-0.5365,0.453,0.6325,0.3266
0.082,-0.402,-0.064,-18.5,-15.4,7.6,1023,2018,5,17,20,46,7.446,-0.5345,0.4569,0.6279,0.3333
0.07,-0.264,0.037,-10,35.9,25.9,1023,2018,5,17,20,46,7.481,-0.5361,0.4527,0.6291,0.3341
0.072,-0.165,0.062,0,48,29.9,1023,2018,5,17,20,46,7.502,-0.5381,0.4455,0.6334,0.3325
0.069,-0.12,0.04,8.9,67.1,21.8,1023,2018,5,17,20,46,7.505,-0.5404,0.438,0.6392,0.3277
0.051,-0.107,0.03,9.1,87.9,13,1023,2018,5,17,20,46,7.543,-0.5447,0.4301,0.6452,0.319
0.058,-0.129,0.031,9.5,117.4,12.7,1023,2018,5,17,20,46,7.565,-0.5513,0.4201,0.652,0.307
0.058,-0.034,0.01,12.9,135.6,17.5,1023,2018,5,17,20,46,7.567,-0.559,0.407,0.6605,0.2924
0.082,0.162,-0.035,13.7,134.8,21.3,1023,2018,5,17,20,46,7.601,-0.5655,0.392,0.6703,0.2775
0.098,0.278,-0.06,9.7,109.3,20.6,0,2018,5,17,20,46,7.624,-0.5712,0.3781,0.6788,0.2642
0.072,0.226,-0.04,8.2,79.4,22.8,0,2018,5,17,20,46,7.629,-0.5751,0.3669,0.6852,0.2547
0.116,0.281,-0.025,6.6,54,23.7,0,2018,5,17,20,46,7.645,-0.5772,0.358,0.6905,0.2484
0.144,0.362,-0.009,0.5,17.5,24.1,0,2018,5,17,20,46,7.682,-0.5777,0.352,0.694,0.246
0.159,0.385,0,-6.8,-17.9,22.8,0,2018,5,17,20,46,7.703,-0.5769,0.3494,0.6951,0.2487
0.126,0.344,-0.001,-12.2,-48,19.8,0,2018,5,17,20,46,7.706,-0.5749,0.35,0.6938,0.2556
0.108,0.383,-0.039,-15,-72.4,13.8,0,2018,5,17,20,46,7.742,-0.5719,0.3537,0.6909,0.2653
0.053,0.381,-0.049,-18.5,-100.6,6.6,0,2018,5,17,20,46,7.764,-0.5679,0.3606,0.6857,0.2777
0.009,0.361,-0.044,-22.7,-118.1,5.8,0,2018,5,17,20,46,7.767,-0.5629,0.37,0.6785,0.2927
-0.065,0.391,-0.06,-27.6,-135.7,4.9,0,2018,5,17,20,46,7.804,-0.5573,0.3804,0.6698,0.3097
-0.145,0.324,-0.043,-28.9,-167.8,-3.6,0,2018,5,17,20,46,7.827,-0.5502,0.3936,0.6585,0.3294
-0.016,0.282,0.018,-25.6,-191.3,-9.1,0,2018,5,17,20,46,7.832,-0.5409,0.4102,0.6448,0.351
-0.11,0.165,0.031,-17.8,-205.8,-8.1,0,2018,5,17,20,46,7.848,-0.5291,0.4287,0.6294,0.3741
-0.073,0.078,-0.035,-14.9,-219,-6.1,0,2018,5,17,20,46,7.885,-0.5148,0.4472,0.6133,0.3983
-0.114,-0.102,-0.059,-16.4,-206,-8.4,0,2018,5,17,20,46,7.907,-0.4999,0.466,0.596,0.4214
-0.034,-0.093,-0.096,-16.3,-195.8,-11.6,1023,2018,5,17,20,46,7.912,-0.4859,0.4836,0.5785,0.4417
0.011,-0.066,-0.092,-5.6,-187.2,-19.4,1023,2018,5,17,20,46,7.926,-0.4716,0.501,0.5613,0.4597
0.062,-0.172,-0.14,3.5,-160.8,-25.1,1023,2018,5,17,20,46,7.949,-0.4577,0.5177,0.545,0.4746
0.052,-0.2,-0.162,6.7,-121.8,-25.8,1023,2018,5,17,20,46,7.967,-0.4465,0.5317,0.5313,0.4853
0.03,-0.15,-0.149,7.5,-85.6,-23.2,1023,2018,5,17,20,46,7.99,-0.4382,0.5426,0.5208,0.492
0.033,-0.114,-0.15,9.5,-53.9,-22.8,1023,2018,5,17,20,46,8.028,-0.4329,0.5506,0.5134,0.4956
0.109,-0.113,-0.118,8.2,-25.7,-28.3,1023,2018,5,17,20,46,8.051,-0.4304,0.5566,0.5083,0.4963
0.106,-0.123,-0.093,2.5,-0.3,-33.5,1023,2018,5,17,20,46,8.055,-0.4314,0.5608,0.5047,0.4945
0.143,-0.103,-0.023,-5.5,8.7,-34,1023,2018,5,17,20,46,8.072,-0.4351,0.5637,0.5016,0.4911
0.107,-0.089,0.016,-11.1,2.8,-33.6,1023,2018,5,17,20,46,8.108,-0.44,0.5659,0.4976,0.4882
0.096,-0.077,-0.001,-15.5,-8.4,-33.6,1023,2018,5,17,20,46,8.129,-0.4444,0.5681,0.4924,0.4869
0.033,0.025,-0.087,-16.9,-24.6,-34.1,1023,2018,5,17,20,46,8.134,-0.447,0.5712,0.4864,0.487
0.053,-0.008,-0.108,-11.8,-28.8,-36.5,1023,2018,5,17,20,46,8.149,-0.4478,0.5756,0.4796,0.4878
0.078,-0.154,-0.008,-2,-2.4,-37.8,1023,2018,5,17,20,46,8.17,-0.45,0.5798,0.4739,0.4864
0.043,-0.212,0.067,7.7,25.6,-40.9,0,2018,5,17,20,46,8.188,-0.4543,0.5822,0.4714,0.4818
-0.024,-0.151,0.089,10.1,38.5,-49.1,0,2018,5,17,20,46,8.211,-0.461,0.5838,0.4704,0.4745
-0.012,-0.077,0.064,7.2,29.4,-58.7,0,2018,5,17,20,46,8.231,-0.4687,0.5859,0.4682,0.4664
-0.059,-0.11,0.015,5.5,32.2,-66.1,0,2018,5,17,20,46,8.254,-0.4768,0.5891,0.4641,0.4583
-0.077,-0.19,0.101,-1.5,52,-79.7,0,2018,5,17,20,46,8.283,-0.4873,0.5914,0.4599,0.4484
-0.076,-0.04,0.086,-1.8,50.8,-90.7,0,2018,5,17,20,46,8.294,-0.5002,0.5931,0.4547,0.4372
-0.079,-0.038,0,1.9,32.8,-97.5,0,2018,5,17,20,46,8.312,-0.5122,0.5964,0.4477,0.4259
-0.096,-0.106,-0.001,6.6,36.1,-90.8,0,2018,5,17,20,46,8.336,-0.5226,0.601,0.4403,0.4143
-0.109,-0.077,-0.007,5.2,45.5,-86.4,0,2018,5,17,20,46,8.372,-0.5332,0.6045,0.4341,0.4021
-0.091,-0.06,-0.042,-4.1,50.1,-86.1,0,2018,5,17,20,46,8.372,-0.5443,0.6065,0.4284,0.3901
-0.089,-0.01,0.012,-10.5,46,-89.6,0,2018,5,17,20,46,8.395,-0.5564,0.6074,0.4214,0.3791
-0.053,-0.051,0.022,-8.5,36.9,-92.9,0,2018,5,17,20,46,8.413,-0.5678,0.6089,0.4133,0.3684
-0.037,-0.045,0.053,-4.7,34.1,-89.6,0,2018,5,17,20,46,8.432,-0.5785,0.6111,0.4049,0.3575
-0.008,0,0.067,-0.7,32.9,-83.1,0,2018,5,17,20,46,8.454,-0.5883,0.6129,0.3971,0.3469
0.019,0.017,0.052,2.3,36.3,-74.3,0,2018,5,17,20,46,8.471,-0.5973,0.6141,0.3906,0.3366
0.009,0.043,0.041,3.2,34.4,-63.7,0,2018,5,17,20,46,8.494,-0.6055,0.6145,0.3855,0.327
0.028,0.051,0.062,3.9,24.9,-55.2,0,2018,5,17,20,46,8.512,-0.6123,0.6148,0.3812,0.3188
0.015,0.064,0.047,0.9,8.1,-50,1023,2018,5,17,20,46,8.536,-0.6171,0.616,0.3769,0.3123
0.012,0.037,0.028,-0.2,2.5,-46.9,1023,2018,5,17,20,46,8.554,-0.6205,0.6181,0.3719,0.3073
0.036,0.056,0.037,-0.7,3.2,-48,1023,2018,5,17,20,46,8.577,-0.6236,0.6204,0.3669,0.3023
-0.001,0.08,0.048,-0.7,-2.4,-52.9,1023,2018,5,17,20,46,8.595,-0.6268,0.6227,0.3616,0.2974
-0.016,0.045,-0.035,-6.8,-12.1,-54.9,1023,2018,5,17,20,46,8.619,-0.6292,0.6263,0.355,0.2926
0.001,0.004,-0.074,-8.7,-13.6,-44.1,1023,2018,5,17,20,46,8.635,-0.6304,0.6306,0.3483,0.2889
0.007,-0.03,-0.031,-7.1,-7.1,-33.3,1023,2018,5,17,20,46,8.652,-0.6315,0.6339,0.3426,0.286
-0.081,-0.074,-0.038,-2.8,-6.6,-29.3,1023,2018,5,17,20,46,8.675,-0.6329,0.636,0.3384,0.2833
-0.045,-0.071,-0.055,-5.7,4.4,-29.1,1023,2018,5,17,20,46,8.695,-0.6346,0.6376,0.3346,0.2803
-0.003,-0.077,-0.079,-3.2,15,-29.6,1023,2018,5,17,20,46,8.718,-0.6371,0.6384,0.3312,0.2767
-0.026,-0.146,-0.108,4.7,19,-26.2,1023,2018,5,17,20,46,8.736,-0.6405,0.6382,0.3288,0.2722
-0.027,-0.285,-0.012,16.1,11,-24,1023,2018,5,17,20,46,8.772,-0.6432,0.6386,0.3276,0.2665
0.113,0.008,0.053,7.8,120.6,-33.9,1023,2018,5,17,20,46,8.795,-0.6825,0.6098,0.3348,0.2238
0.099,0.114,0.252,5.7,59.9,-45,1023,2018,5,17,20,46,8.801,-0.6936,0.601,0.3349,0.213
0.088,-0.015,0.189,-1.3,-6.3,-51.2,1023,2018,5,17,20,46,8.817,-0.698,0.6007,0.3309,0.2055
-0.026,0,0.062,-18.6,-49.4,-60.3,1023,2018,5,17,20,46,8.836,-0.6977,0.6068,0.3228,0.2016
-0.077,-0.079,0.03,-38.3,-63.6,-69.9,1023,2018,5,17,20,46,8.859,-0.6954,0.6165,0.3101,0.2
-0.09,-0.266,0.009,-55.8,-38.1,-72.3,1023,2018,5,17,20,46,8.877,-0.6949,0.6251,0.2944,0.199
-0.076,-0.267,-0.005,-67.1,-6.6,-70.2,1023,2018,5,17,20,46,8.9,-0.6986,0.629,0.2777,0.1975
-0.059,-0.159,-0.041,-62.2,-3.5,-74.6,0,2018,5,17,20,46,8.919,-0.7039,0.6307,0.2613,0.1957
-0.026,-0.115,-0.078,-40.8,-10.4,-86.4,0,2018,5,17,20,46,8.942,-0.7079,0.6338,0.2457,0.1914
0.003,-0.099,-0.072,-11,-0.7,-95.8,0,2018,5,17,20,46,8.959,-0.7109,0.6381,0.2321,0.1827
-0.011,-0.075,-0.066,13,27.5,-98.3,0,2018,5,17,20,46,8.976,-0.715,0.6409,0.2217,0.1693
-0.067,-0.108,-0.161,29.2,66.4,-92.5,0,2018,5,17,20,46,8.999,-0.7216,0.6399,0.2152,0.1527
-0.079,-0.096,-0.26,31.4,112.9,-80,0,2018,5,17,20,46,9.02,-0.7329,0.6321,0.212,0.1349
-0.046,0.06,-0.272,29.6,131.3,-72.1,0,2018,5,17,20,46,9.038,-0.7472,0.6193,0.2104,0.1173
0.02,0.155,-0.231,32.9,122,-71.3,0,2018,5,17,20,46,9.061,-0.7613,0.6053,0.2093,0.0999
0.06,0.165,-0.222,40.9,97.3,-71.7,0,2018,5,17,20,46,9.079,-0.7727,0.5938,0.2085,0.0824
0.048,0.054,-0.308,52.6,94.3,-65.9,0,2018,5,17,20,46,9.101,-0.7814,0.5843,0.209,0.0648
0.046,0.02,-0.319,64.2,110.4,-59.7,0,2018,5,17,20,46,9.136,-0.7901,0.5732,0.2116,0.0466
0.076,0.082,-0.204,84.4,123.4,-58.9,0,2018,5,17,20,46,9.157,-0.7997,0.5591,0.217,0.0266
0.073,0.126,-0.182,98.3,121.7,-58.8,0,2018,5,17,20,46,9.162,-0.8083,0.5441,0.2247,0.0046
0.052,0.123,-0.265,105.7,105.8,-54.9,0,2018,5,17,20,46,9.178,-0.8149,0.5299,0.2338,-0.0176
0.045,0.19,-0.224,110,79.3,-51,0,2018,5,17,20,46,9.201,-0.8188,0.5181,0.244,-0.0388
0.02,0.262,-0.049,117.2,55.4,-47.3,1023,2018,5,17,20,46,9.22,-0.8193,0.5095,0.256,-0.0586
0.018,0.3,-0.042,119.9,40.3,-42.4,1023,2018,5,17,20,46,9.237,-0.8179,0.5026,0.2687,-0.0774
-0.041,0.304,-0.109,117.4,28.9,-31.4,1023,2018,5,17,20,46,9.26,-0.8147,0.4976,0.2821,-0.0948
-0.105,0.314,-0.15,107.3,22.2,-17.1,1023,2018,5,17,20,46,9.279,-0.8109,0.4929,0.2956,-0.1092
-0.152,0.37,-0.171,99,11.3,-3.8,1023,2018,5,17,20,46,9.302,-0.8068,0.4888,0.309,-0.1203
-0.21,0.492,-0.183,94.7,-6.7,0,1023,2018,5,17,20,46,9.321,-0.8019,0.4859,0.3225,-0.1288
-0.234,0.534,-0.155,90.2,-52.7,-6.3,1023,2018,5,17,20,46,9.344,-0.7943,0.4876,0.3359,-0.1354
-0.387,0.371,-0.056,90.2,-114.5,24.6,1023,2018,5,17,20,46,9.362,-0.7665,0.5087,0.3666,-0.1384
-0.467,-0.335,0.437,53.8,3.2,75.8,1023,2018,5,17,20,46,9.38,-0.7574,0.5123,0.3822,-0.1333
-0.295,-0.433,0.709,45.2,123.3,90.8,1023,2018,5,17,20,46,9.403,-0.763,0.4944,0.395,-0.1311
-0.302,-0.505,0.527,30.5,107.6,45.8,1023,2018,5,17,20,46,9.44,-0.7725,0.4716,0.4035,-0.1335
-0.176,-0.41,0.36,18.5,81.1,9.3,1023,2018,5,17,20,46,9.44,-0.7787,0.4574,0.4063,-0.1385
-0.074,-0.034,0.154,5.7,68.1,-0.1,1023,2018,5,17,20,46,9.462,-0.7845,0.4455,0.4061,-0.1445
-0.04,0.161,0.012,-5.5,28.9,-17.1,1023,2018,5,17,20,46,9.479,-0.7886,0.4386,0.4043,-0.1486
0.027,0.239,-0.063,-10.2,-1.1,-19.9,1023,2018,5,17,20,46,9.5,-0.7898,0.438,0.4018,-0.1509
0.025,0.269,-0.097,-6.3,-17.4,-8,1023,2018,5,17,20,46,9.536,-0.7892,0.4403,0.4005,-0.151
0.016,0.2,-0.096,-1.4,-32.1,0.9,0,2018,5,17,20,46,9.557,-0.7873,0.4442,0.4006,-0.1491
-0.005,0.075,-0.07,2.7,-35.3,8.6,0,2018,5,17,20,46,9.56,-0.7843,0.4486,0.4027,-0.1457
-0.035,-0.076,-0.029,2.4,-23.2,12.4,0,2018,5,17,20,46,9.595,-0.7817,0.4521,0.4052,-0.1422
-0.056,-0.181,-0.014,-0.5,1.7,12.1,0,2018,5,17,20,46,9.619,-0.7809,0.4528,0.4068,-0.1398
-0.055,-0.175,-0.011,-4.6,29.2,6.7,0,2018,5,17,20,46,9.626,-0.7823,0.4502,0.4069,-0.1397
-0.031,-0.059,0.009,-8.3,43.9,1.9,0,2018,5,17,20,46,9.642,-0.7857,0.4452,0.4053,-0.1416
-0.024,0.072,0.018,-8.6,38.4,-2,0,2018,5,17,20,46,9.665,-0.7896,0.4396,0.4031,-0.1438
-0.01,0.151,0.012,-5.3,23.6,-4.9,0,2018,5,17,20,46,9.683,-0.7927,0.435,0.4013,-0.1456
0.005,0.17,0.007,-0.8,10,-2.8,0,2018,5,17,20,46,9.7,-0.7944,0.4323,0.4004,-0.1467
-0.018,0.143,0.022,0.2,-7.9,-0.5,0,2018,5,17,20,46,9.723,-0.7948,0.4314,0.4007,-0.1465
-0.031,0.043,0.032,-3.2,-22.4,-2.4,0,2018,5,17,20,46,9.742,-0.794,0.4332,0.4009,-0.1451
-0.022,-0.029,0.031,-6.6,-26.8,-5.2,0,2018,5,17,20,46,9.765,-0.7925,0.4367,0.4006,-0.1434
-0.005,-0.03,0.004,-8.2,-26.6,-6.7,0,2018,5,17,20,46,9.783,-0.7908,0.4412,0.3996,-0.142
0.005,-0.001,-0.019,-8.5,-26.2,-8.3,0,2018,5,17,20,46,9.806,-0.789,0.4457,0.3986,-0.1406
-0.001,0.035,-0.028,-8.6,-25.7,-9.3,0,2018,5,17,20,46,9.824,-0.7872,0.4502,0.3975,-0.1394
-0.002,0.036,-0.026,-8.6,-25.6,-9,0,2018,5,17,20,46,9.847,-0.7854,0.4546,0.3964,-0.1381
-0.003,0.019,-0.025,-6.6,-22.6,-7,0,2018,5,17,20,46,9.866,-0.7837,0.4587,0.3955,-0.1368
0.007,0.006,-0.019,-3.8,-16.6,-3.9,1023,2018,5,17,20,46,9.889,-0.7822,0.4621,0.3949,-0.1358
0.007,-0.025,-0.016,-1.1,-7,-1.4,1023,2018,5,17,20,46,9.907,-0.7813,0.464,0.3948,-0.1353
-0.001,-0.038,-0.012,1,1.6,0.8,1023,2018,5,17,20,46,9.923,-0.781,0.4643,0.395,-0.1352
-0.011,-0.021,-0.01,2.2,8,2.5,1023,2018,5,17,20,46,9.961,-0.7813,0.4633,0.3954,-0.1355
-0.017,0.004,-0.005,2.1,10.8,3.1,1023,2018,5,17,20,46,9.984,-0.7821,0.4615,0.3959,-0.1359
-0.015,0.024,-0.002,1.7,10.9,2.7,1023,2018,5,17,20,46,9.989,-0.7829,0.4597,0.3963,-0.1364
-0.018,0.036,0,0.5,8.9,1.9,1023,2018,5,17,20,46,10.004,-0.7838,0.4577,0.3967,-0.1367
-0.023,0.05,-0.001,0,7.2,2,1023,2018,5,17,20,46,10.027,-0.7846,0.4561,0.3968,-0.1368
-0.027,0.046,-0.003,-0.8,4.4,2.2,1023,2018,5,17,20,46,10.045,-0.7852,0.4548,0.3971,-0.1366
-0.009,0.032,-0.003,-1.2,3.4,1.5,1023,2018,5,17,20,46,10.068,-0.7856,0.4541,0.3972,-0.1364
-0.008,0.014,0.007,-1.2,4.5,0.9,1023,2018,5,17,20,46,10.104,-0.7861,0.4534,0.3972,-0.1363
-0.006,0.008,0.003,-0.3,5.3,0.9,1023,2018,5,17,20,46,10.127,-0.7865,0.4527,0.397,-0.1365
-0.011,0.011,0.003,0,5.8,1.1,1023,2018,5,17,20,46,10.132,-0.787,0.4517,0.3971,-0.1367
-0.009,0.027,0.005,-0.4,6.6,0.7,1023,2018,5,17,20,46,10.147,-0.7876,0.4506,0.3971,-0.137
-0.011,0.034,0,-1,6.3,0.7,1023,2018,5,17,20,46,10.17,-0.7882,0.4496,0.397,-0.1372
-0.007,0.039,0.002,-1.4,4.8,0.8,1023,2018,5,17,20,46,10.189,-0.7888,0.4486,0.3969,-0.1373
-0.003,0.03,0.001,-1.4,2,0.8,1023,2018,5,17,20,46,10.211,-0.7892,0.448,0.3968,-0.1373
-0.004,0.025,-0.004,-1.3,-0.3,0.1,1023,2018,5,17,20,46,10.248,-0.7895,0.4476,0.3968,-0.1371
-0.003,0.015,-0.005,-1.4,-1.1,-0.3,1023,2018,5,17,20,46,10.248,-0.7896,0.4475,0.3968,-0.1369
0,0.024,0.006,-0.7,-0.9,1,1023,2018,5,17,20,46,10.271,-0.7896,0.4475,0.3967,-0.1367
0.006,0.02,-0.002,-1.7,-2.6,2.2,0,2018,5,17,20,46,10.289,-0.7897,0.4474,0.3968,-0.1362
-0.002,-0.003,-0.006,-2.2,-2.9,3.5,0,2018,5,17,20,46,10.308,-0.7896,0.4477,0.3969,-0.1355
-0.009,-0.013,-0.009,-1.7,-0.3,4.2,0,2018,5,17,20,46,10.33,-0.7897,0.4475,0.3971,-0.1347
-0.013,-0.004,-0.01,-0.8,3.5,4.3,0,2018,5,17,20,46,10.348,-0.7901,0.4468,0.3975,-0.1341
-0.012,0.013,-0.011,0.3,5.1,4.6,0,2018,5,17,20,46,10.369,-0.7905,0.4458,0.3979,-0.1338
-0.018,0.018,-0.016,1.2,5.2,4.2,0,2018,5,17,20,46,10.405,-0.7909,0.4446,0.3985,-0.1335
-0.016,0.016,-0.016,1,6.6,3.4,0,2018,5,17,20,46,10.426,-0.7913,0.4433,0.3991,-0.1334
-0.01,0.02,-0.014,0.3,9.2,2.4,0,2018,5,17,20,46,10.431,-0.7919,0.4419,0.3995,-0.1335
-0.004,0.014,-0.009,0.2,12.4,1,0,2018,5,17,20,46,10.468,-0.7927,0.4403,0.3995,-0.134
0.002,0.019,-0.01,0,15.8,-0.7,0,2018,5,17,20,46,10.468,-0.7938,0.4381,0.3994,-0.135
0.004,0.025,-0.008,-0.9,16.1,-1.7,0,2018,5,17,20,46,10.491,-0.795,0.436,0.3988,-0.1363
0.014,0.022,-0.005,-1.6,14.6,-1.7,0,2018,5,17,20,46,10.509,-0.7962,0.4342,0.3981,-0.1377
0.016,0.022,0.009,-1.2,13.1,-1,0,2018,5,17,20,46,10.532,-0.7973,0.4325,0.3973,-0.1388
0.018,0.024,-0.005,-1.4,10.8,0.2,0,2018,5,17,20,46,10.55,-0.7984,0.4307,0.3968,-0.1397
0.039,-0.027,-0.033,-1.7,11.1,6.2,1023,2018,5,17,20,46,10.568,-0.7993,0.4291,0.3966,-0.14
0.062,-0.059,-0.005,2.5,18.8,16.6,1023,2018,5,17,20,46,10.591,-0.8004,0.4267,0.3968,-0.1399
0.026,-0.055,0.026,8,25.6,23.3,1023,2018,5,17,20,46,10.628,-0.8021,0.4225,0.3981,-0.1395
-0.009,-0.028,0.027,10.6,32.8,25.7,1023,2018,5,17,20,46,10.651,-0.8043,0.4165,0.4003,-0.139
-0.006,0.046,0.036,12.1,28.8,22.9,1023,2018,5,17,20,46,10.656,-0.8066,0.4096,0.4028,-0.1385
-0.026,0.049,-0.006,16,29.5,16.6,1023,2018,5,17,20,46,10.671,-0.8081,0.4035,0.4057,-0.1388
-0.029,0.087,-0.023,14.6,30,12.5,1023,2018,5,17,20,46,10.694,-0.8095,0.3975,0.4086,-0.1397
-0.014,0.088,-0.059,18.8,33,9.7,1023,2018,5,17,20,46,10.712,-0.8106,0.3917,0.4115,-0.141
-0.038,0.071,-0.061,20.3,39.7,6.4,1023,2018,5,17,20,46,10.736,-0.8117,0.3852,0.4148,-0.1436
-0.055,0.064,-0.003,13.8,40.6,1.4,1023,2018,5,17,20,46,10.752,-0.8131,0.3784,0.4171,-0.1467
-0.031,0.034,0.048,7,31.6,-4.6,1023,2018,5,17,20,46,10.771,-0.8149,0.3727,0.4175,-0.15
-0.011,0.018,0.059,3,23.4,-5,0,2018,5,17,20,46,10.794,-0.8165,0.3687,0.417,-0.1531
0.006,0.018,0.056,0.2,10.2,-4.7,0,2018,5,17,20,46,10.83,-0.8177,0.366,0.4162,-0.155
0.023,0.012,0.045,-2.4,-1.8,-5.7,0,2018,5,17,20,46,10.83,-0.8182,0.3655,0.4153,-0.1561
0.042,0.025,0.023,-3.7,-6.9,-4.7,0,2018,5,17,20,46,10.853,-0.8181,0.3666,0.4143,-0.1565
0.074,0.035,0.003,-0.1,-4.3,-0.8,0,2018,5,17,20,46,10.872,-0.8181,0.3674,0.4136,-0.1565
0.064,0.072,0.005,2.1,-2.1,2.3,0,2018,5,17,20,46,10.894,-0.818,0.3676,0.4135,-0.1565
0.049,0.088,0.021,5.3,-7.7,2.8,0,2018,5,17,20,46,10.931,-0.8178,0.3676,0.4141,-0.1561
0.042,0.073,0.041,9.9,-16.8,1.2,0,2018,5,17,20,46,10.954,-0.817,0.3684,0.4153,-0.1555
0.031,0.063,0.037,14.4,-26.4,-0.2,0,2018,5,17,20,46,10.958,-0.815,0.3708,0.4173,-0.1547
0.027,0.071,0.023,17.9,-36.1,-1.4,0,2018,5,17,20,46,10.973,-0.8121,0.3742,0.4203,-0.1536
0.023,0.071,0.021,18.3,-45.2,-2.3,0,2018,5,17,20,46,11.011,-0.8083,0.3793,0.4237,-0.152
0.021,0.086,0.024,18.3,-54.4,-0.8,0,2018,5,17,20,46,11.011,-0.8038,0.3855,0.4273,-0.1497
0.04,0.106,0.005,18.5,-64.6,2.4,0,2018,5,17,20,46,11.034,-0.7988,0.3927,0.4315,-0.1463
0.038,0.068,0.007,19.8,-73,4.9,0,2018,5,17,20,46,11.071,-0.7929,0.4011,0.4361,-0.1417
0.043,0.033,0.005,21.7,-76.8,7.5,0,2018,5,17,20,46,11.094,-0.7862,0.4104,0.4411,-0.1367
0.032,0.004,-0.02,23.4,-75.3,11.4,0,2018,5,17,20,46,11.098,-0.7791,0.4196,0.4466,-0.1313
0.036,-0.008,-0.039,25.1,-68.2,17.5,0,2018,5,17,20,46,11.117,-0.772,0.4281,0.4526,-0.1257
0.034,0.011,-0.04,25.8,-62.4,22.2,0,2018,5,17,20,46,11.134,-0.7652,0.4349,0.459,-0.12
0.031,-0.029,-0.02,26.8,-56.1,25.7,0,2018,5,17,20,46,11.157,-0.7589,0.4406,0.4656,-0.1142
0.002,-0.061,-0.003,27.1,-50.7,27.2,0,2018,5,17,20,46,11.175,-0.753,0.445,0.4722,-0.1087
-0.056,-0.145,-0.024,27.5,-48.3,28.7,0,2018,5,17,20,46,11.198,-0.7472,0.4491,0.4788,-0.1033
-0.071,-0.239,-0.032,26.7,-38.5,29.8,1023,2018,5,17,20,46,11.215,-0.7417,0.4522,0.4854,-0.0983
-0.057,-0.218,-0.019,26.1,-23.9,28.8,1023,2018,5,17,20,46,11.235,-0.7372,0.4538,0.4915,-0.0943
0.056,0.045,0.005,29.1,-2.1,30.2,1023,2018,5,17,20,46,11.253,-0.7316,0.4511,0.503,-0.0902
0.087,0.11,0.058,33.9,-8.3,29.5,1023,2018,5,17,20,46,11.276,-0.7291,0.4485,0.5091,-0.0886
0.05,0.023,0.079,40.3,-17.6,31.3,1023,2018,5,17,20,46,11.311,-0.7258,0.4464,0.516,-0.0866
-0.029,-0.099,0.073,40.7,-15.3,36.7,1023,2018,5,17,20,46,11.334,-0.7218,0.4445,0.5236,-0.0844
-0.049,-0.13,0.053,37.3,-13.3,40.5,1023,2018,5,17,20,46,11.339,-0.7181,0.4418,0.5313,-0.0815
-0.024,-0.065,0.039,36,-17.7,38.5,1023,2018,5,17,20,46,11.356,-0.7144,0.4393,0.5389,-0.0781
0.015,0.039,0.018,34.9,-29,35.1,1023,2018,5,17,20,46,11.379,-0.7099,0.4381,0.5463,-0.0741
-0.01,0.026,0.023,33.9,-32.4,33,1023,2018,5,17,20,46,11.4,-0.7048,0.4379,0.5536,-0.0691
-0.049,-0.005,0.021,32.6,-20.1,39.1,1023,2018,5,17,20,46,11.418,-0.7001,0.4368,0.5609,-0.0646
-0.048,-0.008,0.033,31.1,-10.3,41.9,1023,2018,5,17,20,46,11.44,-0.6967,0.4337,0.5681,-0.0603
-0.062,0.023,0.044,31,-6.5,40.5,1023,2018,5,17,20,46,11.477,-0.6937,0.4297,0.5751,-0.0566
-0.067,0.085,0.043,28.5,-11.6,35.9,1023,2018,5,17,20,46,11.5,-0.6908,0.4257,0.5818,-0.0528
-0.069,0.101,0.031,25.3,-27.1,29.1,1023,2018,5,17,20,46,11.504,-0.6873,0.4236,0.5879,-0.0481
-0.056,0.093,0.001,23,-46.1,22.2,1023,2018,5,17,20,46,11.517,-0.6824,0.4246,0.5933,-0.0423
-0.042,0.07,-0.034,21.1,-64.1,16.9,0,2018,5,17,20,46,11.536,-0.676,0.4286,0.5982,-0.0352
-0.061,0.046,-0.049,19.5,-76.3,12.8,0,2018,5,17,20,46,11.559,-0.6684,0.435,0.6027,-0.0269
-0.065,0.027,-0.061,17.5,-79.4,12.1,0,2018,5,17,20,46,11.578,-0.6601,0.4423,0.6067,-0.0181
-0.064,0.029,-0.049,14.7,-79.4,11.3,0,2018,5,17,20,46,11.615,-0.652,0.4499,0.6102,-0.0091
-0.052,0.035,-0.039,12.8,-82.1,9.4,0,2018,5,17,20,46,11.639,-0.6439,0.4577,0.613,-0.0001
-0.064,0.048,-0.045,7.8,-97.2,8,0,2018,5,17,20,46,11.643,-0.6353,0.4664,0.6153,0.01
-0.075,0.038,-0.04,3.4,-114.9,7.1,0,2018,5,17,20,46,11.659,-0.6256,0.4771,0.6167,0.0224
-0.07,-0.01,-0.043,1.3,-117.2,9.5,0,2018,5,17,20,46,11.682,-0.6151,0.4889,0.6174,0.0361
-0.065,-0.009,-0.013,1.8,-104.3,13.5,0,2018,5,17,20,46,11.7,-0.6051,0.4995,0.6179,0.0492
-0.093,-0.008,-0.001,4.2,-92.1,19.4,0,2018,5,17,20,46,11.723,-0.596,0.5079,0.6188,0.0613
-0.071,0.024,0.02,1.7,-87.4,28.1,0,2018,5,17,20,46,11.738,-0.5874,0.5144,0.6203,0.0734
-0.084,-0.121,-0.005,5.9,-58.6,41.6,0,2018,5,17,20,46,11.757,-0.58,0.5184,0.6225,0.0847
-0.017,-0.089,0.041,19.6,-14.3,63,0,2018,5,17,20,46,11.78,-0.5749,0.5166,0.6276,0.0921
0.014,-0.128,0.031,28.9,36.3,69.8,0,2018,5,17,20,46,11.8,-0.5721,0.509,0.636,0.0944
-0.065,0,0.05,28,68,70,0,2018,5,17,20,46,11.821,-0.5731,0.4962,0.6455,0.0922
-0.061,-0.005,0.011,25.8,77.4,66.7,0,2018,5,17,20,46,11.838,-0.5752,0.4815,0.6552,0.0886
0.007,-0.028,-0.092,17.5,89.4,54.9,1023,2018,5,17,20,46,11.861,-0.5782,0.4668,0.6638,0.0831
-0.064,-0.126,-0.121,7.5,131.1,52.3,1023,2018,5,17,20,46,11.879,-0.5842,0.4509,0.6707,0.0741
-0.022,0.057,-0.048,0.6,167.3,56.3,1023,2018,5,17,20,46,11.9,-0.5942,0.4289,0.6776,0.061
-0.02,0.198,0.021,-1.3,156.6,47.8,1023,2018,5,17,20,46,11.939,-0.6054,0.4055,0.6831,0.0473
0.023,0.257,0.028,-1.9,125.2,45.9,1023,2018,5,17,20,46,11.962,-0.6149,0.3852,0.6871,0.0355
-0.013,0.235,0.052,0.4,79.5,43.4,1023,2018,5,17,20,46,11.967,-0.6212,0.3689,0.6906,0.0283
-0.001,0.09,0.021,-9.5,59.2,41.5,1023,2018,5,17,20,46,11.984,-0.6259,0.3565,0.6931,0.0254
0.007,0.157,-0.003,-17.5,42.7,47.5,1023,2018,5,17,20,46,12.001,-0.6302,0.3451,0.6949,0.0256
0.028,0.277,-0.032,-22.7,9.8,39.4,1023,2018,5,17,20,46,12.019,-0.6341,0.3366,0.6954,0.0284
0,0.117,-0.047,-24.7,-27,17.3,1023,2018,5,17,20,46,12.041,-0.636,0.3345,0.6944,0.0343
0.022,0.04,-0.038,-26.4,-36.3,0.9,1023,2018,5,17,20,46,12.078,-0.6367,0.337,0.6922,0.0406
0.049,0.028,-0.055,-33.3,-51.8,-10.9,1023,2018,5,17,20,46,12.1,-0.6371,0.3429,0.6886,0.0471
0.026,0.047,-0.02,-37.4,-65.4,-22.8,1023,2018,5,17,20,46,12.105,-0.6375,0.3514,0.6834,0.0543
0.046,0.041,-0.035,-38.9,-84.3,-31.3,1023,2018,5,17,20,46,12.123,-0.6373,0.3629,0.6768,0.0626
0.072,0.017,-0.074,-37.9,-99.1,-36.3,1023,2018,5,17,20,46,12.141,-0.6355,0.3773,0.6697,0.072
0.068,-0.029,-0.12,-37.4,-92.7,-40.5,1023,2018,5,17,20,46,12.176,-0.6333,0.3925,0.6619,0.0813
0.073,-0.041,-0.136,-33.9,-76.8,-43.5,0,2018,5,17,20,46,12.184,-0.632,0.4064,0.6537,0.0888
0.05,-0.033,-0.174,-28.9,-64,-46.8,0,2018,5,17,20,46,12.222,-0.6311,0.4189,0.646,0.0938
0.071,-0.01,-0.211,-27.7,-64.6,-46.7,0,2018,5,17,20,46,12.242,-0.6302,0.431,0.6383,0.0977
0.08,-0.033,-0.201,-30.3,-63.9,-43.9,0,2018,5,17,20,46,12.246,-0.6292,0.4427,0.6305,0.1021
0.093,-0.02,-0.188,-32.8,-58.7,-41.9,0,2018,5,17,20,46,12.28,-0.6285,0.4538,0.6225,0.1064
0.075,-0.072,-0.154,-29.6,-39.3,-38.5,0,2018,5,17,20,46,12.301,-0.6284,0.4634,0.615,0.1099
0.067,-0.026,-0.056,-32.3,-17.1,-38.3,0,2018,5,17,20,46,12.303,-0.6301,0.4699,0.608,0.1108
0.033,0.042,-0.02,-38.9,-17.9,-41,0,2018,5,17,20,46,12.339,-0.6329,0.4755,0.6007,0.1107
0.067,0.137,-0.049,-51.1,-34.9,-45.3,0,2018,5,17,20,46,12.359,-0.6358,0.4821,0.592,0.1127
0.08,0.181,-0.055,-55.7,-65.1,-51.3,0,2018,5,17,20,46,12.363,-0.638,0.4917,0.5808,0.117
0.119,0.132,-0.108,-52.5,-93.8,-55.3,0,2018,5,17,20,46,12.396,-0.6376,0.505,0.5683,0.1239
0.054,0.015,-0.206,-43.8,-95.3,-51.7,0,2018,5,17,20,46,12.418,-0.6347,0.52,0.556,0.1317
0.081,-0.035,-0.185,-32.6,-71.1,-43.2,0,2018,5,17,20,46,12.424,-0.6317,0.5331,0.5454,0.1381
0.138,-0.024,-0.118,-17.8,-34,-32.6,0,2018,5,17,20,46,12.462,-0.6302,0.5418,0.5378,0.1412
0.143,0.037,-0.07,-4.2,1.2,-21.1,0,2018,5,17,20,46,12.483,-0.6303,0.5457,0.5338,0.1406
0.147,0.028,-0.096,5.7,34.6,-6.2,0,2018,5,17,20,46,12.486,-0.6323,0.545,0.5331,0.1371
0.155,0.086,-0.122,14.6,53.8,8.6,0,2018,5,17,20,46,12.503,-0.6357,0.5399,0.5355,0.1321
0.116,0.11,-0.122,24.2,57,20.3,0,2018,5,17,20,46,12.54,-0.6388,0.5327,0.5404,0.1265
-0.002,0.098,-0.173,31.2,53.2,33,1023,2018,5,17,20,46,12.562,-0.6405,0.5247,0.5472,0.1217
-0.127,0.114,-0.275,34.9,49.9,44,1023,2018,5,17,20,46,12.564,-0.6413,0.5157,0.5556,0.1181
-0.063,0.062,-0.201,41.3,34.5,47.4,1023,2018,5,17,20,46,12.602,-0.6402,0.5075,0.5647,0.1157
-0.051,-0.057,-0.079,53.4,31.4,48.3,1023,2018,5,17,20,46,12.623,-0.6369,0.5004,0.5752,0.1136
-0.137,-0.283,0.306,32.9,36.6,47.2,1023,2018,5,17,20,46,12.625,-0.6348,0.492,0.5852,0.1113
-0.354,-0.458,0.5,-3.2,43,17.4,1023,2018,5,17,20,46,12.661,-0.635,0.4858,0.5903,0.1098
-0.016,-0.16,0.31,-22.7,81,-10,1023,2018,5,17,20,46,12.684,-0.6426,0.4778,0.5896,0.105
0.034,0.244,0.118,-3.8,67,-16.2,1023,2018,5,17,20,46,12.688,-0.6506,0.4703,0.5883,0.0965
0.063,0.304,0.019,7.7,28.1,-24.7,1023,2018,5,17,20,46,12.724,-0.6544,0.4672,0.5877,0.0889
0.023,0.221,-0.106,13.6,-8.8,-16.7,1023,2018,5,17,20,46,12.747,-0.6541,0.469,0.5873,0.0845
0.015,0.208,-0.167,9.4,-26.4,-1.9,1023,2018,5,17,20,46,12.752,-0.6513,0.4723,0.5876,0.0846
0.051,0.082,-0.162,13.6,-15.8,13,1023,2018,5,17,20,46,12.772,-0.648,0.4748,0.589,0.0867
0.046,0.061,-0.104,11,5.1,27.9,1023,2018,5,17,20,46,12.786,-0.6458,0.4735,0.5923,0.0884
0.048,0.081,-0.061,5.3,1.6,32.5,1023,2018,5,17,20,46,12.824,-0.6441,0.47,0.5965,0.0908
0.026,0.074,-0.017,0,-22.7,22.4,1023,2018,5,17,20,46,12.847,-0.6421,0.4682,0.5994,0.0951
-0.043,-0.063,0.074,-8.8,-55.8,0,1023,2018,5,17,20,46,12.852,-0.6389,0.4717,0.5991,0.1014
-0.013,-0.058,0.126,-12.2,-57.7,-8.1,1023,2018,5,17,20,46,12.867,-0.6356,0.4786,0.596,0.1075
-0.006,-0.031,0.063,-10.9,-61.1,-11.7,1023,2018,5,17,20,46,12.891,-0.6323,0.4862,0.5923,0.1133
-0.027,0.015,0.05,-14.2,-63.7,-12.5,1023,2018,5,17,20,46,12.927,-0.6288,0.494,0.5883,0.1196
-0.023,0.04,0.016,-15.5,-65.1,-11.7,0,2018,5,17,20,46,12.948,-0.6251,0.5019,0.5841,0.1264
-0.032,0.045,-0.018,-16.9,-62.3,-3.8,0,2018,5,17,20,46,12.953,-0.621,0.5093,0.5804,0.1338
-0.03,0.054,-0.047,-19.5,-57.1,3.7,0,2018,5,17,20,46,12.968,-0.617,0.5153,0.5774,0.1418
-0.025,0.079,-0.062,-28.6,-54.4,9.8,0,2018,5,17,20,46,12.992,-0.6137,0.5199,0.5746,0.1507
-0.013,0.099,-0.042,-39.9,-62.4,12.8,0,2018,5,17,20,46,13.01,-0.6109,0.5239,0.5711,0.1614
-0.002,0.078,-0.014,-48.5,-71.8,14.6,0,2018,5,17,20,46,13.034,-0.6082,0.5283,0.5661,0.1743
0,0.022,0.049,-42.8,-64.2,19.1,0,2018,5,17,20,46,13.049,-0.6059,0.5323,0.5606,0.1877
0.005,-0.026,0.002,-34.8,-42.7,22.8,0,2018,5,17,20,46,13.067,-0.6042,0.5344,0.5566,0.1985
0.024,-0.002,-0.028,-28.4,-36.5,24.6,0,2018,5,17,20,46,13.09,-0.6028,0.535,0.5541,0.2076
0.054,-0.041,-0.056,-20.1,-33.3,25,0,2018,5,17,20,46,13.108,-0.6006,0.536,0.5527,0.2154
0.059,-0.101,-0.066,-12.7,-22.2,25.8,0,2018,5,17,20,46,13.131,-0.5982,0.5367,0.5522,0.2216
0.057,-0.104,-0.077,-8,-3.4,25.6,0,2018,5,17,20,46,13.149,-0.597,0.5352,0.553,0.2262
0.056,-0.092,-0.09,-6,11.2,21.9,0,2018,5,17,20,46,13.171,-0.5971,0.5321,0.5548,0.2289
0.023,-0.016,-0.092,-6.9,18.1,15.2,0,2018,5,17,20,46,13.21,-0.5981,0.5288,0.5566,0.2295
0.032,0.018,-0.082,-7.8,9.7,6,1023,2018,5,17,20,46,13.21,-0.5991,0.5264,0.5577,0.2296
0.018,0.025,-0.061,-8.3,-5.9,-1.7,1023,2018,5,17,20,46,13.233,-0.5994,0.526,0.5575,0.2302
0.006,0.017,-0.068,-7.7,-26,-5.8,1023,2018,5,17,20,46,13.251,-0.5984,0.528,0.556,0.2321
0.002,-0.039,-0.084,-7.1,-39.3,-6.7,1023,2018,5,17,20,46,13.274,-0.5957,0.5323,0.5535,0.235
0.017,-0.052,-0.083,-6.8,-45.7,-5.2,1023,2018,5,17,20,46,13.29,-0.5922,0.5376,0.5506,0.2386
0.023,-0.07,-0.063,-5.5,-50,-6.1,1023,2018,5,17,20,46,13.314,-0.5882,0.5434,0.5474,0.2426
0.015,-0.089,-0.033,-5.1,-51.6,-8.2,1023,2018,5,17,20,46,13.332,-0.5841,0.5496,0.5439,0.2466
0.002,-0.107,0,-6.7,-49.1,-9.7,1023,2018,5,17,20,46,13.35,-0.5804,0.5558,0.5397,0.2503
0.001,-0.102,0.049,-9.4,-40,-10.6,1023,2018,5,17,20,46,13.373,-0.5777,0.5614,0.5354,0.2537
0.004,-0.128,0.072,-6.4,-18.8,-7.3,1023,2018,5,17,20,46,13.41,-0.5761,0.5652,0.5319,0.2561
-0.002,-0.079,0.075,-5,8.4,-2.4,1023,2018,5,17,20,46,13.433,-0.5765,0.5659,0.5306,0.2564
0,-0.018,0.06,-1.2,17.5,1.1,1023,2018,5,17,20,46,13.437,-0.5789,0.5642,0.5303,0.2553
-0.008,-0.006,0.033,1.1,16.9,2.5,1023,2018,5,17,20,46,13.453,-0.5808,0.5621,0.5311,0.2539
-0.005,-0.021,0.015,1.2,20.9,4.9,1023,2018,5,17,20,46,13.476,-0.5826,0.5598,0.5322,0.2525
0.011,-0.005,-0.008,1,27.2,6.3,1023,2018,5,17,20,46,13.494,-0.5847,0.5569,0.5339,0.2506
0.006,0.008,-0.021,0.4,28.5,5.9,1023,2018,5,17,20,46,13.517,-0.5869,0.5536,0.5359,0.2484
-0.005,0.019,-0.033,-1.4,24.1,4.2,1023,2018,5,17,20,46,13.553,-0.5888,0.5507,0.5377,0.2464
-0.005,0.036,-0.047,-3.5,15.3,0.4,0,2018,5,17,20,46,13.576,-0.5903,0.5486,0.5388,0.2451
0.002,0.042,-0.053,-4.6,6.9,-3.4,0,2018,5,17,20,46,13.581,-0.5914,0.5475,0.5391,0.2445
0.013,0.036,-0.055,-4.1,0.8,-5.2,0,2018,5,17,20,46,13.595,-0.5918,0.5475,0.5387,0.2442
0.017,0.04,-0.07,-3.1,-1.8,-5.2,0,2018,5,17,20,46,13.613,-0.5917,0.5481,0.5382,0.2441
0.027,0.027,-0.076,-1.8,-2.2,-4.1,0,2018,5,17,20,46,13.636,-0.5912,0.5491,0.5378,0.2439
0.029,0.026,-0.068,-0.1,0.3,-2.2,0,2018,5,17,20,46,13.673,-0.5906,0.5499,0.5378,0.2436
0.031,0.05,-0.058,1.9,2,-1.9,0,2018,5,17,20,46,13.695,-0.5902,0.5502,0.5382,0.2432
0.035,0.036,-0.071,4.1,2.2,-1.5,0,2018,5,17,20,46,13.7,-0.5896,0.5505,0.5388,0.2425
0.021,0.002,-0.084,6.2,7.1,1.2,0,2018,5,17,20,46,13.716,-0.5889,0.5507,0.5399,0.2414
0.027,0.01,-0.078,8.7,16.4,4.5,0,2018,5,17,20,46,13.739,-0.5886,0.5499,0.5418,0.2395
0.039,0.028,-0.069,12.2,23.3,5.8,0,2018,5,17,20,46,13.758,-0.5886,0.5483,0.5446,0.2369
0.046,0.046,-0.054,15.5,26.7,5.6,0,2018,5,17,20,46,13.776,-0.5887,0.5462,0.548,0.2336
0.055,0.04,-0.05,18.7,26.7,5.2,0,2018,5,17,20,46,13.799,-0.5886,0.5441,0.5517,0.2298
0.044,0.049,-0.042,20.2,25.3,5,0,2018,5,17,20,46,13.815,-0.5884,0.542,0.5557,0.2259
0.04,0.052,-0.051,21.4,21.3,5.2,0,2018,5,17,20,46,13.849,-0.5876,0.5403,0.5596,0.2222
0.047,0.046,-0.046,21.6,21.4,5.8,1023,2018,5,17,20,46,13.872,-0.5866,0.5388,0.5635,0.2187
0.053,0.054,-0.031,21.9,22.7,6.9,1023,2018,5,17,20,46,13.877,-0.5857,0.5371,0.5675,0.2151
0.04,0.075,-0.028,23.2,21.9,6.9,1023,2018,5,17,20,46,13.913,-0.5847,0.535,0.5717,0.2116
0.046,0.066,-0.038,24.3,11.9,5.8,1023,2018,5,17,20,46,13.937,-0.5831,0.5337,0.5758,0.2085
0.023,0.025,-0.045,25.3,2.3,4.9,1023,2018,5,17,20,46,13.941,-0.5803,0.5337,0.5794,0.2061
0.013,-0.03,-0.051,25.8,4.7,6.3,1023,2018,5,17,20,46,13.957,-0.5772,0.5344,0.5827,0.2038
0.016,-0.049,-0.054,27.2,18.9,7.8,1023,2018,5,17,20,46,13.978,-0.5751,0.5338,0.5865,0.2004
0.011,-0.008,-0.032,27,33,10.4,1023,2018,5,17,20,46,14.015,-0.5743,0.5315,0.591,0.1957
0.034,0.034,-0.049,26.5,36,10.8,1023,2018,5,17,20,46,14.038,-0.574,0.5278,0.5961,0.1906
0.054,0.041,-0.033,29.6,29.4,8.2,1023,2018,5,17,20,46,14.042,-0.5733,0.5247,0.6012,0.1855
0.067,-0.012,0.004,32.4,27.2,5,1023,2018,5,17,20,46,14.058,-0.572,0.5226,0.6059,0.1801
0.092,-0.038,0.017,35,33.9,3.6,1023,2018,5,17,20,46,14.081,-0.5712,0.5205,0.6103,0.1738
0.087,-0.045,-0.003,37.7,51.1,5.3,1023,2018,5,17,20,46,14.103,-0.5711,0.5173,0.6152,0.166
0.069,-0.041,-0.017,38.2,85.5,10.3,1023,2018,5,17,20,46,14.119,-0.573,0.5111,0.6215,0.1553
0.073,0.029,0.025,37.8,114.2,13.5,0,2018,5,17,20,46,14.137,-0.5776,0.5005,0.6289,0.1419
0.058,0.102,0.055,41,123.1,13.5,0,2018,5,17,20,46,14.159,-0.5835,0.4874,0.637,0.1269
0.014,0.091,0.037,44.9,118.1,13.2,0,2018,5,17,20,46,14.178,-0.5886,0.4738,0.6452,0.112
-0.039,0.033,0.02,42.9,125,17.6,0,2018,5,17,20,46,14.201,-0.5933,0.46,0.6533,0.0969
-0.051,0.04,0.003,36.9,148,26,0,2018,5,17,20,46,14.219,-0.5994,0.4434,0.6614,0.0809
-0.053,0.128,-0.021,30.8,157.9,30.3,0,2018,5,17,20,46,14.242,-0.6068,0.4235,0.6695,0.0643
-0.056,0.199,-0.02,26.4,145.7,25.6,0,2018,5,17,20,46,14.26,-0.6143,0.4037,0.6762,0.0475
-0.031,0.164,-0.01,23.4,121.6,16.4,0,2018,5,17,20,46,14.284,-0.6205,0.3868,0.6813,0.0323
-0.072,0.118,0.004,16.3,105.6,11.4,0,2018,5,17,20,46,14.302,-0.6256,0.3722,0.6853,0.0203
-0.087,0.101,-0.017,5.9,98.4,11,0,2018,5,17,20,46,14.317,-0.6308,0.3588,0.6878,0.0097
-0.081,0.136,-0.009,-0.1,84.1,10.5,0,2018,5,17,20,46,14.34,-0.6362,0.3461,0.6894,0.0011
-0.007,0.115,0.004,-0.6,70.2,8.7,0,2018,5,17,20,46,14.359,-0.6409,0.3354,0.6903,-0.0056
-0.077,0.066,0.058,3.5,78,9.1,0,2018,5,17,20,46,14.382,-0.6449,0.3253,0.6913,-0.0125
-0.153,-0.05,0.141,-15.7,116.6,9.1,0,2018,5,17,20,46,14.4,-0.6519,0.3123,0.6905,-0.0223
-0.16,0.048,0.129,-29.5,115.1,4.9,0,2018,5,17,20,46,14.419,-0.6614,0.2972,0.6877,-0.0345
-0.132,0.072,0.123,-41.9,83.8,-3,0,2018,5,17,20,46,14.442,-0.6708,0.2855,0.683,-0.0442
-0.057,0.065,0.178,-52.4,58.1,-13.7,0,2018,5,17,20,46,14.478,-0.6798,0.2786,0.6764,-0.051
0.016,0.032,0.133,-57.7,44.9,-19.3,0,2018,5,17,20,46,14.501,-0.6887,0.2752,0.6683,-0.0561
-0.023,0.062,0.057,-52.3,49.8,-21.2,1023,2018,5,17,20,46,14.505,-0.6978,0.2716,0.6598,-0.0611
-0.038,0.084,-0.009,-49.3,38.1,-30.5,1023,2018,5,17,20,46,14.522,-0.7058,0.2686,0.6521,-0.0662
0,0.105,-0.035,-50.7,24.1,-37.5,1023,2018,5,17,20,46,14.545,-0.7123,0.2685,0.6445,-0.0708
0.009,0.076,-0.025,-48,17.7,-37,1023,2018,5,17,20,46,14.562,-0.7182,0.2704,0.6366,-0.0748
-0.011,-0.016,-0.019,-48,31.3,-27.6,1023,2018,5,17,20,46,14.58,-0.724,0.2713,0.6292,-0.0789
-0.03,-0.016,0.044,-53.3,44.9,-22.1,1023,2018,5,17,20,46,14.603,-0.7311,0.2695,0.621,-0.0839
-0.022,0.025,0.091,-53.8,36.3,-25.9,1023,2018,5,17,20,46,14.622,-0.7391,0.2667,0.612,-0.0887
-0.016,0.036,0.088,-50.5,21.3,-30.8,1023,2018,5,17,20,46,14.64,-0.7461,0.2664,0.603,-0.0929
-0.029,0.048,0.05,-49.4,10.8,-25.1,1023,2018,5,17,20,46,14.663,-0.752,0.2677,0.5946,-0.0956
-0.038,0.007,0.03,-50.2,16,-17.5,1023,2018,5,17,20,46,14.682,-0.7576,0.2687,0.5867,-0.097
-0.033,-0.016,0.03,-53,20,-11.9,1023,2018,5,17,20,46,14.705,-0.7637,0.2683,0.5787,-0.0984
-0.017,-0.027,0.057,-53.7,11.4,-11.3,1023,2018,5,17,20,46,14.723,-0.7698,0.2682,0.5705,-0.0991
-0.016,0.005,0.094,-53.3,3.2,-12.3,1023,2018,5,17,20,46,14.746,-0.7757,0.2691,0.5621,-0.099
0.001,0.036,0.124,-53,-3.9,-14.8,1023,2018,5,17,20,46,14.783,-0.7812,0.2711,0.5536,-0.0982
0.007,0.021,0.106,-52.2,-10.5,-13.9,1023,2018,5,17,20,46,14.806,-0.7862,0.2737,0.5454,-0.0969
0.021,-0.007,0.085,-50.6,-14.4,-12.1,1023,2018,5,17,20,46,14.81,-0.7908,0.2773,0.5371,-0.0951
0.018,-0.01,0.053,-47.3,-15.1,-12.1,1023,2018,5,17,20,46,14.828,-0.7949,0.281,0.5295,-0.0931
0.011,0.002,0.04,-44.6,-14.6,-11.3,1023,2018,5,17,20,46,14.845,-0.7984,0.2846,0.5225,-0.0912
0.017,0.002,0.054,-42.1,-14.9,-11.3,0,2018,5,17,20,46,14.868,-0.8017,0.2882,0.5158,-0.0893
0.025,-0.01,0.055,-38.1,-16.1,-11.9,0,2018,5,17,20,46,14.884,-0.8047,0.2918,0.5093,-0.0876
0.033,-0.004,0.043,-33.5,-18.6,-12.8,0,2018,5,17,20,46,14.921,-0.8071,0.2956,0.5035,-0.0862
0.033,0.002,0.047,-29.9,-22.6,-13.1,0,2018,5,17,20,46,14.944,-0.8089,0.3,0.4983,-0.0847
0.023,-0.022,0.045,-26.6,-25.8,-14.5,0,2018,5,17,20,46,14.948,-0.8101,0.3049,0.4935,-0.0832
0.032,-0.036,0.035,-26.3,-24.1,-14.9,0,2018,5,17,20,46,14.965,-0.8111,0.3102,0.4889,-0.0821
0.039,-0.042,0.027,-26.9,-20.4,-13.6,0,2018,5,17,20,46,14.988,-0.812,0.3153,0.4842,-0.0811
0.044,-0.035,-0.019,-28.6,-10.8,-10.8,0,2018,5,17,20,46,15.004,-0.8134,0.3193,0.4794,-0.0803
0.02,-0.01,-0.042,-28.4,-7.2,-8.5,0,2018,5,17,20,46,15.027,-0.815,0.3221,0.4749,-0.0796
0,-0.048,-0.036,-26.4,-6.8,-8.1,0,2018,5,17,20,46,15.046,-0.8165,0.3246,0.4708,-0.0788
-0.015,-0.087,-0.015,-25.4,0,-7.8,0,2018,5,17,20,46,15.068,-0.818,0.3265,0.4668,-0.0784
-0.002,-0.073,0.006,-25.3,12,-6.7,0,2018,5,17,20,46,15.086,-0.8202,0.327,0.4625,-0.0788
0.003,-0.045,0.024,-25.2,20,-6.3,0,2018,5,17,20,46,15.104,-0.8231,0.3258,0.4581,-0.0799
0.021,-0.023,0.028,-22.8,24.5,-7.5,0,2018,5,17,20,46,15.143,-0.8263,0.3235,0.4536,-0.0815
0.029,0.001,0.056,-21,28.8,-8.8,0,2018,5,17,20,46,15.165,-0.8296,0.3206,0.4492,-0.0838
0.057,0.05,0.061,-18.8,27.2,-8.9,1023,2018,5,17,20,46,15.17,-0.833,0.3172,0.4447,-0.0864
0.059,0.067,0.051,-14.3,18.8,-7.1,1023,2018,5,17,20,46,15.185,-0.836,0.3141,0.4409,-0.0885
0.051,0.054,0.043,-7.9,9.7,-4.7,1023,2018,5,17,20,46,15.208,-0.838,0.3122,0.4383,-0.0898
0.04,0.039,0.027,-1.4,4.1,-3.9,1023,2018,5,17,20,46,15.226,-0.8389,0.3113,0.4369,-0.0907
0.019,0.029,0,2.4,1.9,-2.4,1023,2018,5,17,20,46,15.249,-0.8391,0.311,0.4366,-0.0915
0.008,0.03,-0.011,2.2,1.1,0,1023,2018,5,17,20,46,15.287,-0.839,0.3107,0.4369,-0.0919
-0.001,0.018,-0.01,1,-2.2,-0.1,1023,2018,5,17,20,46,15.309,-0.8389,0.3104,0.4374,-0.0918
-0.013,0.007,-0.01,-0.7,-4.1,-2.2,1023,2018,5,17,20,46,15.314,-0.8387,0.3108,0.4375,-0.0916
-0.03,0.018,-0.013,-3,-5.3,-4.4,1023,2018,5,17,20,46,15.33,-0.8385,0.3118,0.4373,-0.0915
-0.03,0.028,-0.019,-3.5,-5.4,-6.5,1023,2018,5,17,20,46,15.349,-0.8382,0.313,0.4369,-0.0915
-0.037,0.019,-0.03,-2.8,-1.3,-8.3,1023,2018,5,17,20,46,15.369,-0.8381,0.3138,0.4365,-0.092
-0.05,0.022,-0.025,-5.3,3,-11.1,1023,2018,5,17,20,46,15.387,-0.8382,0.314,0.4359,-0.093
-0.026,0.041,-0.005,-8.6,-0.5,-15.2,1023,2018,5,17,20,46,15.425,-0.8386,0.3145,0.4345,-0.0944
-0.011,0.031,0.008,-14.6,-9,-19.1,1023,2018,5,17,20,46,15.446,-0.839,0.3164,0.4321,-0.0957
-0.005,0.048,0.018,-19.4,-17.3,-21,1023,2018,5,17,20,46,15.45,-0.8393,0.3198,0.4287,-0.0964
0.007,0.044,0.006,-20.8,-21.6,-21,1023,2018,5,17,20,46,15.467,-0.8395,0.3244,0.4248,-0.0968
0.018,0.026,-0.008,-21.9,-23.7,-17.7,1023,2018,5,17,20,46,15.489,-0.8395,0.3294,0.4209,-0.0967
0.035,0.021,-0.013,-22.4,-26.4,-14.9,0,2018,5,17,20,46,15.527,-0.8395,0.3347,0.417,-0.096
0.048,0.011,-0.012,-21.4,-29.8,-12.8,0,2018,5,17,20,46,15.55,-0.8392,0.3402,0.4134,-0.0948
0.059,-0.004,-0.005,-18.7,-30.3,-10.3,0,2018,5,17,20,46,15.555,-0.8387,0.3458,0.41,-0.0933
0.058,-0.027,-0.006,-14.5,-26.5,-7.6,0,2018,5,17,20,46,15.573,-0.8381,0.3511,0.4071,-0.0919
0.052,-0.054,-0.005,-9,-17.2,-3.5,0,2018,5,17,20,46,15.592,-0.8374,0.3552,0.4051,-0.0908
0.032,-0.053,-0.006,-4.6,-7.6,0,0,2018,5,17,20,46,15.613,-0.8372,0.3572,0.404,-0.0901
0.014,-0.044,-0.002,-2.1,-1.2,1.7,0,2018,5,17,20,46,15.631,-0.8371,0.358,0.4035,-0.0897
0.002,-0.023,-0.002,-0.5,2.4,1.3,0,2018,5,17,20,46,15.655,-0.8372,0.358,0.4034,-0.0896
0.007,-0.008,-0.01,0,4.2,0.4,0,2018,5,17,20,46,15.672,-0.8375,0.3574,0.4033,-0.0898
0.011,0.014,-0.008,0.3,3.7,0,0,2018,5,17,20,46,15.689,-0.8377,0.3569,0.4032,-0.0901
0.009,0.018,0.007,2.3,3.6,0.3,0,2018,5,17,20,46,15.712,-0.8379,0.3563,0.4033,-0.0904
0.003,-0.009,-0.009,4.8,7.4,1.3,0,2018,5,17,20,46,15.748,-0.8379,0.3555,0.4038,-0.091
0.002,-0.014,-0.013,4.9,11.3,1.3,0,2018,5,17,20,46,15.77,-0.8381,0.354,0.4045,-0.0918
0.006,0.001,-0.007,4.1,13,0.5,0,2018,5,17,20,46,15.774,-0.8385,0.352,0.4051,-0.0929
0.008,0.028,-0.005,2.7,11.4,0.6,0,2018,5,17,20,46,15.791,-0.8391,0.3498,0.4056,-0.0939
0.006,0.043,0.004,2.6,6,0.5,0,2018,5,17,20,46,15.812,-0.8396,0.3483,0.4058,-0.0945
-0.003,0.041,0.005,2.4,1.3,1.1,0,2018,5,17,20,46,15.833,-0.8397,0.3475,0.4062,-0.0947
0.002,0.023,-0.004,1.3,-2.5,0.8,1023,2018,5,17,20,46,15.854,-0.8396,0.3474,0.4066,-0.0945
0.009,0.02,0.001,0.5,-5.2,0.2,1023,2018,5,17,20,46,15.873,-0.8394,0.3477,0.4068,-0.0942
0.013,0.013,-0.003,-0.5,-6,0,1023,2018,5,17,20,46,15.89,-0.839,0.3485,0.4069,-0.0938
0.01,0.026,-0.01,-0.4,-6.5,0.2,1023,2018,5,17,20,46,15.913,-0.8387,0.3494,0.4069,-0.0933
0.003,0.014,-0.016,0,-6.3,0.3,1023,2018,5,17,20,46,15.932,-0.8383,0.3504,0.4071,-0.0927
0.002,0.004,-0.011,0.2,-5.2,0.9,1023,2018,5,17,20,46,15.955,-0.8378,0.3513,0.4073,-0.0922
0.004,0,-0.015,0,-3.6,0.8,1023,2018,5,17,20,46,15.973,-0.8375,0.3519,0.4076,-0.0918
0.01,0,-0.008,-0.5,-3,0.4,1023,2018,5,17,20,46,15.996,-0.8373,0.3525,0.4076,-0.0916
0.014,0.008,-0.007,-0.3,-2.6,0.7,1023,2018,5,17,20,46,16.012,-0.8372,0.3526,0.4077,-0.0913
0.012,0.004,-0.008,-0.1,-2.5,1.1,1023,2018,5,17,20,46,16.035,-0.8371,0.3528,0.4078,-0.091
0.001,0.004,-0.008,-0.1,-2.6,1,1023,2018,5,17,20,46,16.054,-0.837,0.353,0.408,-0.0906
-0.003,0.004,-0.007,-1,-3.6,0.2,1023,2018,5,17,20,46,16.077,-0.8368,0.3535,0.408,-0.0903
0.002,0.003,-0.007,-1,-4.1,-0.5,1023,2018,5,17,20,46,16.096,-0.8366,0.3542,0.4079,-0.09
0.008,0,-0.002,-1.5,-3.6,-0.8,1023,2018,5,17,20,46,16.119,-0.8365,0.3547,0.4077,-0.0897
0.015,0.01,-0.006,-1.7,-4.1,-0.8,1023,2018,5,17,20,46,16.138,-0.8364,0.3552,0.4075,-0.0895
0.013,0.013,-0.009,-0.5,-4.6,-0.7,1023,2018,5,17,20,46,16.158,-0.8363,0.3558,0.4074,-0.0893
0.012,0.002,-0.009,0.5,-2.9,0.5,1023,2018,5,17,20,46,16.176,-0.836,0.3564,0.4075,-0.0891
0.009,-0.003,-0.01,1,-0.5,1,1023,2018,5,17,20,46,16.2,-0.8358,0.3564,0.4078,-0.0889
0.006,-0.004,-0.003,0.6,1.9,0.7,1023,2018,5,17,20,46,16.216,-0.8359,0.3559,0.408,-0.0889
0.005,0.005,0,0.6,2.9,0.6,1023,2018,5,17,20,46,16.236,-0.8362,0.3551,0.4083,-0.0891
0.006,0.022,-0.011,0.8,2,0.8,1023,2018,5,17,20,46,16.254,-0.8363,0.3546,0.4084,-0.0892
0.002,0.023,-0.009,0.8,0.9,1,1023,2018,5,17,20,46,16.278,-0.8364,0.354,0.4087,-0.0892
0,0.016,-0.007,0.8,0.9,1.5,0,2018,5,17,20,46,16.313,-0.8363,0.3538,0.409,-0.0891
-0.001,0.004,0.003,0.5,1.3,1.6,0,2018,5,17,20,46,16.336,-0.8364,0.3535,0.4092,-0.089
0.001,0,0.003,0.5,1.4,1.4,0,2018,5,17,20,46,16.341,-0.8364,0.3532,0.4093,-0.089
0.003,0.006,0.002,0.2,1.2,1,0,2018,5,17,20,46,16.357,-0.8365,0.3528,0.4095,-0.0889
0.011,0.015,-0.006,0.6,1.1,0.7,0,2018,5,17,20,46,16.38,-0.8367,0.3524,0.4096,-0.0889
0.008,0.016,-0.007,0.9,1.7,1.1,0,2018,5,17,20,46,16.398,-0.8368,0.3519,0.4098,-0.0889
0.005,0.013,-0.011,0.5,2.8,1.3,0,2018,5,17,20,46,16.421,-0.8368,0.3515,0.41,-0.089
0.004,0.009,-0.012,0.7,3.7,1.3,0,2018,5,17,20,46,16.436,-0.8369,0.3511,0.4101,-0.0891
0.005,0.011,-0.003,0.3,3.6,1,0,2018,5,17,20,46,16.471,-0.8372,0.3503,0.4103,-0.0892
0.007,0.016,0.001,0.5,2.4,1,0,2018,5,17,20,46,16.494,-0.8373,0.3498,0.4103,-0.0893
0.005,0.015,-0.007,0.3,0.6,1,0,2018,5,17,20,46,16.498,-0.8374,0.3493,0.4105,-0.0893
0.004,0.014,-0.005,-0.2,-0.5,0.7,0,2018,5,17,20,46,16.517,-0.8376,0.3489,0.4107,-0.0891
0.006,0.006,-0.003,0,-1.2,0.5,0,2018,5,17,20,46,16.54,-0.8376,0.3487,0.4108,-0.0889
0.002,0.006,0.002,0,-1,0.7,0,2018,5,17,20,46,16.56,-0.8375,0.3488,0.4108,-0.0888
0.005,0.007,-0.002,0.5,-1,0.9,1023,2018,5,17,20,46,16.597,-0.8375,0.3488,0.411,-0.0886
0.011,0.008,-0.009,0.9,-0.8,0.6,1023,2018,5,17,20,46,16.618,-0.8374,0.3489,0.4111,-0.0885
0.01,0.008,-0.009,1,-0.2,0.4,1023,2018,5,17,20,46,16.623,-0.8372,0.3491,0.4113,-0.0885
0.008,0.009,-0.011,1.2,0.6,0.3,1023,2018,5,17,20,46,16.64,-0.8371,0.3491,0.4115,-0.0886
0.009,0.012,-0.007,1.1,0,0.4,1023,2018,5,17,20,46,16.661,-0.837,0.3492,0.4117,-0.0887
0.008,0.008,-0.007,1.3,0,0.8,1023,2018,5,17,20,46,16.68,-0.8369,0.349,0.412,-0.0887
0.003,0.008,-0.001,1.3,1.3,1,1023,2018,5,17,20,46,16.703,-0.8369,0.3488,0.4123,-0.0887
0.004,0.009,0.002,0.7,1.2,0.7,1023,2018,5,17,20,46,16.719,-0.8369,0.3484,0.4125,-0.0888
0.008,0.018,0.008,0,-0.7,0.1,1023,2018,5,17,20,46,16.737,-0.837,0.3483,0.4125,-0.0888
0.018,0.019,0.004,-0.5,-3.6,-0.2,1023,2018,5,17,20,46,16.76,-0.8369,0.3487,0.4123,-0.0887
0.012,0.007,-0.014,0,-4.2,0.4,1023,2018,5,17,20,46,16.778,-0.8366,0.3494,0.4123,-0.0885
0.014,0.006,-0.026,0.8,-1.9,1.4,0,2018,5,17,20,46,16.801,-0.8363,0.35,0.4125,-0.0882
0.008,0.014,-0.019,1.4,-0.7,2.2,0,2018,5,17,20,46,16.838,-0.8361,0.35,0.413,-0.0879
0.002,0,-0.005,1.3,0,3.6,0,2018,5,17,20,46,16.861,-0.836,0.3496,0.4135,-0.0875
0,-0.004,0.001,1.1,1.8,4.6,0,2018,5,17,20,46,16.866,-0.8361,0.3491,0.414,-0.0871
0.002,-0.006,0.001,1.4,3.8,4.6,0,2018,5,17,20,46,16.881,-0.8363,0.3481,0.4144,-0.0868
0.002,0,0.003,1.8,5.1,4.6,0,2018,5,17,20,46,16.905,-0.8365,0.3472,0.4149,-0.0866
0.006,0.013,0.001,2.1,4.8,3.9,0,2018,5,17,20,46,16.923,-0.8368,0.346,0.4153,-0.0864
0.022,0.017,-0.006,2.7,3.3,3.6,0,2018,5,17,20,46,16.946,-0.837,0.3447,0.4159,-0.0863
0.023,0.018,-0.014,3.7,2.4,4.4,0,2018,5,17,20,46,16.962,-0.837,0.3439,0.4166,-0.0861
0.018,0.023,-0.01,5.2,3.2,5.6,0,2018,5,17,20,46,16.98,-0.837,0.343,0.4175,-0.086
0.017,0.028,-0.003,5.7,2.6,6,0,2018,5,17,20,46,17.003,-0.8368,0.3421,0.4186,-0.0857
0.022,0.028,0.015,6.6,1.8,5.7,0,2018,5,17,20,46,17.039,-0.8367,0.3411,0.4197,-0.0854
0.029,0.028,0.017,7.7,-0.6,6.4,0,2018,5,17,20,46,17.062,-0.8364,0.3403,0.4209,-0.085
0.019,0.04,0.004,7.5,-6.3,7.5,0,2018,5,17,20,46,17.067,-0.8359,0.3398,0.4225,-0.0842
0.023,0.028,0.018,7.8,-11.6,7.4,0,2018,5,17,20,46,17.085,-0.8351,0.3401,0.4241,-0.0829
0.025,0.004,0.012,8.2,-12.2,8.5,0,2018,5,17,20,46,17.104,-0.834,0.3411,0.4257,-0.0814
0.025,-0.028,-0.008,7.5,-6.2,10.3,0,2018,5,17,20,46,17.124,-0.833,0.3418,0.4275,-0.0799
0.018,-0.003,-0.036,6.8,0.2,11.6,0,2018,5,17,20,46,17.146,-0.8323,0.3417,0.4291,-0.0788
0.008,0.013,-0.046,6.7,1.6,12.7,0,2018,5,17,20,46,17.162,-0.8319,0.3405,0.4311,-0.0775
0.002,-0.005,-0.03,5.5,3.6,13.8,0,2018,5,17,20,46,17.183,-0.8316,0.3392,0.433,-0.0762
0.009,-0.029,-0.009,3.8,5.8,13.1,0,2018,5,17,20,46,17.225,-0.8316,0.3373,0.4346,-0.0749
0.025,-0.04,-0.002,5.3,11.1,11.7,0,2018,5,17,20,46,17.227,-0.8319,0.3352,0.4357,-0.0742
0.03,0,-0.02,5.5,15.8,12.1,1023,2018,5,17,20,46,17.243,-0.8325,0.3323,0.4369,-0.0741
0.033,0.041,-0.019,5.8,15.6,12.7,1023,2018,5,17,20,46,17.264,-0.8332,0.3289,0.4382,-0.0739
0.042,0.038,-0.002,9.4,11.1,13.5,1023,2018,5,17,20,46,17.299,-0.8337,0.3255,0.4399,-0.0734
0.025,0,0.051,13,8,12.3,1023,2018,5,17,20,46,17.32,-0.8337,0.3227,0.4419,-0.073
0.02,0.005,0.056,15.6,4.7,11.6,1023,2018,5,17,20,46,17.323,-0.8335,0.3206,0.444,-0.0727
-0.017,-0.007,-0.039,11.9,-2.9,10.3,1023,2018,5,17,20,46,17.362,-0.8325,0.3195,0.4467,-0.0722
0.032,-0.013,0,11.6,-10.5,10.8,1023,2018,5,17,20,46,17.382,-0.8312,0.3198,0.449,-0.0706
0.029,-0.058,0.062,19.1,-6.5,13,1023,2018,5,17,20,46,17.384,-0.8297,0.3203,0.4516,-0.0695
0.022,-0.046,0.095,25.8,-5.7,14.4,1023,2018,5,17,20,46,17.42,-0.8281,0.3196,0.4552,-0.0686
0.033,-0.051,0.101,28,-6.7,14.7,1023,2018,5,17,20,46,17.441,-0.8262,0.319,0.4591,-0.0679
0.041,-0.058,0.01,27.8,-5.2,15,1023,2018,5,17,20,46,17.443,-0.824,0.3185,0.4635,-0.0672
0.064,-0.002,-0.014,31.3,0,16.6,1023,2018,5,17,20,46,17.479,-0.8217,0.3176,0.4683,-0.0667
0.04,0.058,0.027,36.1,1.1,17.7,1023,2018,5,17,20,46,17.5,-0.8194,0.3154,0.4738,-0.0663
0.001,0.012,0.112,41,-3,17.8,1023,2018,5,17,20,46,17.503,-0.8169,0.3126,0.48,-0.0657
-0.008,-0.034,0.138,40.7,-7.1,17.1,0,2018,5,17,20,46,17.54,-0.814,0.311,0.4861,-0.0652
0.023,-0.046,0.066,40,-8.8,16.6,0,2018,5,17,20,46,17.56,-0.8108,0.3101,0.492,-0.0646
0.027,-0.029,0.021,42.5,-6.9,18.2,0,2018,5,17,20,46,17.564,-0.8072,0.3093,0.4985,-0.0639
-0.014,-0.037,0.051,46.5,-3.3,20.7,0,2018,5,17,20,46,17.599,-0.8035,0.3076,0.5056,-0.0632
-0.041,-0.062,0.078,49.2,-0.5,18.5,0,2018,5,17,20,46,17.62,-0.7996,0.3054,0.5131,-0.063
-0.028,-0.04,0.079,47.6,-0.6,15.8,0,2018,5,17,20,46,17.628,-0.7957,0.3031,0.5204,-0.0634
0.017,0.054,0.005,43.4,-6,14.6,0,2018,5,17,20,46,17.665,-0.7918,0.3014,0.5273,-0.0634
0.009,0.04,-0.02,40.6,-10.7,16.4,0,2018,5,17,20,46,17.686,-0.7875,0.3005,0.5343,-0.0624
-0.041,0.013,0.033,38.1,-10,18.6,0,2018,5,17,20,46,17.688,-0.7835,0.2996,0.5408,-0.0609
-0.04,0.014,0.054,37.2,-10.7,16.9,0,2018,5,17,20,46,17.705,-0.78,0.2981,0.5469,-0.0592
-0.037,0.071,0.026,36.6,-18.3,12.8,0,2018,5,17,20,46,17.743,-0.7762,0.2974,0.5528,-0.0574
-0.045,0.075,-0.013,33.5,-28.4,11.3,0,2018,5,17,20,46,17.764,-0.7718,0.2983,0.5587,-0.0548
-0.062,0.09,-0.012,31,-37.2,11.6,0,2018,5,17,20,46,17.765,-0.767,0.3006,0.5644,-0.051
-0.064,0.05,0.008,30.9,-41.6,11.4,0,2018,5,17,20,46,17.802,-0.762,0.3038,0.5699,-0.0465
-0.05,0.042,0.038,33,-47.2,9.3,0,2018,5,17,20,46,17.825,-0.7566,0.3077,0.5752,-0.042
-0.025,0.015,0.083,38.8,-59.3,7,0,2018,5,17,20,46,17.828,-0.7507,0.3129,0.5805,-0.0372
-0.044,0.095,-0.004,39.9,-84.9,7,0,2018,5,17,20,46,17.863,-0.743,0.3206,0.5866,-0.0308
-0.032,0.142,-0.002,37.5,-118,6.8,0,2018,5,17,20,46,17.883,-0.7332,0.3319,0.593,-0.0207
-0.012,0.132,0.025,37.7,-144.4,8.3,0,2018,5,17,20,46,17.885,-0.7216,0.347,0.5989,-0.0073
-0.004,0.093,0.072,41.1,-158.3,11.4,0,2018,5,17,20,46,17.922,-0.7083,0.3642,0.6045,0.0081
-0.075,-0.019,0.038,42.2,-163.3,17,1023,2018,5,17,20,46,17.943,-0.6937,0.3821,0.61,0.0247
-0.106,-0.13,-0.071,42.6,-145.6,25,1023,2018,5,17,20,46,17.946,-0.6782,0.3991,0.6156,0.0405
-0.081,-0.128,-0.107,40,-124.6,31.6,1023,2018,5,17,20,46,17.984,-0.6634,0.4128,0.6215,0.0548
-0.002,-0.054,-0.062,41.7,-108.5,34.8,1023,2018,5,17,20,46,18.004,-0.6497,0.4235,0.6275,0.0677
-0.033,-0.025,-0.064,51.8,-91,40,1023,2018,5,17,20,46,18.006,-0.636,0.432,0.6344,0.0791
-0.105,-0.104,-0.109,53.4,-33.8,58.4,1023,2018,5,17,20,46,18.041,-0.6239,0.4349,0.6432,0.0872
-0.076,-0.086,-0.137,48.5,38.7,75.1,1023,2018,5,17,20,46,18.06,-0.6168,0.4283,0.6542,0.0896
-0.028,-0.054,-0.125,45,104.6,80.4,1023,2018,5,17,20,46,18.069,-0.6148,0.4126,0.6666,0.0853
0.011,-0.004,-0.08,41.9,142.5,73.6,1023,2018,5,17,20,46,18.104,-0.6168,0.3911,0.6788,0.0752
0.011,0.017,-0.099,34.4,155.9,64.3,1023,2018,5,17,20,46,18.123,-0.6206,0.3674,0.6898,0.0618
0,0.046,-0.099,23.8,150.9,53.9,1023,2018,5,17,20,46,18.131,-0.6253,0.344,0.6987,0.0475
0.006,0.1,-0.06,10,125.9,39.6,1023,2018,5,17,20,46,18.167,-0.6301,0.3232,0.705,0.0349
0.019,0.116,-0.025,-4.4,93,24.4,1023,2018,5,17,20,46,18.189,-0.6351,0.3071,0.7082,0.0254
0.024,0.146,-0.004,-17.2,57.6,12.6,1023,2018,5,17,20,46,18.192,-0.64,0.2962,0.7086,0.0195
0.034,0.188,0.017,-27.8,18.9,4.8,1023,2018,5,17,20,46,18.209,-0.6446,0.2904,0.7069,0.0176
