ax,ay,az,dpitch,droll,dyaw,heart,time_1,time_2,time_3,time_4,time_5,time_6,w,x,y,z
-0.004,-0.082,-0.14,-22.7,-14.7,28.9,0,2018,5,11,13,48,2.507,0.4023,0.0758,-0.037,-0.9115
-0.035,-0.031,-0.074,-20.5,-19,31.1,0,2018,5,11,13,48,2.526,0.3978,0.078,-0.0328,-0.9135
-0.045,-0.099,-0.011,-20.1,-19.6,27.4,0,2018,5,11,13,48,2.54,0.3935,0.0794,-0.0275,-0.9154
-0.018,-0.047,-0.053,-18.4,-24.9,23,0,2018,5,11,13,48,2.555,0.39,0.0806,-0.0219,-0.9169
-0.044,0.012,-0.084,-15.7,-30.3,21.4,0,2018,5,11,13,48,2.59,0.387,0.0813,-0.0163,-0.9183
0.027,-0.072,-0.141,-12.7,-36.6,19.9,0,2018,5,11,13,48,2.612,0.3842,0.0815,-0.0094,-0.9195
0.022,-0.091,-0.086,-12.8,-33.4,18.3,0,2018,5,11,13,48,2.617,0.3818,0.0806,-0.0025,-0.9206
-0.014,-0.116,-0.072,-9.5,-10.8,15.7,0,2018,5,11,13,48,2.654,0.3793,0.0807,0.0024,-0.9217
-0.139,0.045,-0.046,-7,2.5,16.9,0,2018,5,11,13,48,2.675,0.377,0.082,0.0039,-0.9225
0.02,-0.102,-0.043,-7.7,2.9,16.1,0,2018,5,11,13,48,2.679,0.3743,0.0835,0.005,-0.9234
0.067,-0.107,-0.064,-6.2,11.1,9.6,1023,2018,5,11,13,48,2.716,0.372,0.0844,0.0049,-0.9243
0.059,-0.092,-0.059,-7.2,5,9.3,1023,2018,5,11,13,48,2.736,0.3702,0.0855,0.0044,-0.9249
-0.022,-0.025,-0.022,-4.3,16.1,6,1023,2018,5,11,13,48,2.74,0.3689,0.0867,0.0036,-0.9253
0.002,0.042,0.006,-4,12.3,6.7,1023,2018,5,11,13,48,2.779,0.3678,0.0882,0.001,-0.9256
0.073,0.032,-0.014,-4.5,1.3,7.5,1023,2018,5,11,13,48,2.8,0.3666,0.0894,-0.0002,-0.926
-0.053,0.082,-0.009,-1.6,-8.6,5.3,1023,2018,5,11,13,48,2.804,0.3656,0.0901,-0.0002,-0.9263
-0.014,-0.025,0.043,-4,-19.3,7.5,0,2018,5,11,13,48,2.819,0.3649,0.0891,0.0018,-0.9267
-0.013,-0.075,0.057,-4.5,-3.2,6.5,0,2018,5,11,13,48,2.856,0.3641,0.0886,0.0045,-0.927
-0.012,-0.102,0.047,-5.3,25.9,2.9,0,2018,5,11,13,48,2.875,0.3632,0.0896,0.0039,-0.9273
0,0.034,0.029,-4.6,32.5,0.8,0,2018,5,11,13,48,2.879,0.3626,0.0923,-0.0005,-0.9273
0.002,0.042,0.039,-6.5,17.6,1.3,0,2018,5,11,13,48,2.922,0.3622,0.0948,-0.005,-0.9272
-0.004,-0.034,0.041,-8.5,9.7,-0.5,0,2018,5,11,13,48,2.939,0.362,0.0966,-0.0066,-0.9271
0.009,0.028,0.049,-8.7,9.8,-3.6,0,2018,5,11,13,48,2.943,0.3623,0.0986,-0.0073,-0.9267
-0.048,0.068,0.059,-11.5,-13.4,-3.9,0,2018,5,11,13,48,2.963,0.3631,0.1001,-0.0073,-0.9262
-0.038,-0.069,-0.019,-11.2,-23.2,-7.5,0,2018,5,11,13,48,2.984,0.3647,0.1003,-0.0031,-0.9256
-0.007,-0.108,0.001,-10.5,-19.9,-16.9,0,2018,5,11,13,48,3.004,0.3671,0.1004,0.0018,-0.9247
-0.04,0.005,0.044,-14,-52.2,-30.1,0,2018,5,11,13,48,3.021,0.3716,0.0997,0.0075,-0.9229
-0.104,-0.04,0.008,-18.5,-108,-41.3,0,2018,5,11,13,48,3.041,0.379,0.0961,0.0209,-0.9201
-0.064,-0.112,-0.005,-25.2,-126.4,-55.4,0,2018,5,11,13,48,3.061,0.3887,0.0907,0.0413,-0.9159
-0.077,-0.168,0.013,-32.5,-111.8,-73.3,0,2018,5,11,13,48,3.083,0.4007,0.0876,0.0616,-0.9099
-0.061,-0.218,0.026,-35.6,-74.5,-91.5,0,2018,5,11,13,48,3.102,0.4147,0.0875,0.0775,-0.9023
-0.084,-0.17,0.047,-38.2,-40,-110.7,0,2018,5,11,13,48,3.123,0.431,0.0907,0.0873,-0.8934
-0.121,-0.116,0.066,-41.3,-29.1,-132,0,2018,5,11,13,48,3.142,0.4498,0.0965,0.0934,-0.8829
-0.169,-0.067,-0.006,-41.3,-48.8,-154.5,0,2018,5,11,13,48,3.177,0.4718,0.1024,0.1,-0.8699
-0.193,-0.075,-0.068,-39,-72.4,-171.4,0,2018,5,11,13,48,3.198,0.497,0.1062,0.1098,-0.8541
-0.163,-0.123,-0.09,-28.4,-73,-174.9,0,2018,5,11,13,48,3.202,0.5234,0.108,0.1206,-0.8365
-0.079,-0.193,-0.068,-18.1,-51,-166.6,0,2018,5,11,13,48,3.224,0.5489,0.1092,0.1286,-0.8186
0,-0.235,-0.07,-7.7,-16.1,-153.8,0,2018,5,11,13,48,3.242,0.5719,0.1114,0.1316,-0.8019
0.05,-0.219,-0.081,1.2,19.9,-143.6,1023,2018,5,11,13,48,3.262,0.5922,0.1156,0.1286,-0.7869
0.07,-0.161,-0.08,9.1,48.7,-136.9,1023,2018,5,11,13,48,3.281,0.6107,0.1216,0.1201,-0.7731
0.058,-0.072,-0.085,13,54.3,-130.4,1023,2018,5,11,13,48,3.301,0.6275,0.1286,0.109,-0.76
0.054,-0.044,-0.142,14.5,45.3,-120.3,1023,2018,5,11,13,48,3.339,0.6431,0.1349,0.099,-0.7472
0.086,-0.028,-0.157,20.8,26.4,-111.6,1023,2018,5,11,13,48,3.36,0.6573,0.1393,0.0905,-0.735
0.025,-0.061,-0.071,25.8,14.1,-106.6,1023,2018,5,11,13,48,3.364,0.6708,0.1403,0.0833,-0.7233
-0.09,-0.042,0.005,21.7,-0.4,-107.1,1023,2018,5,11,13,48,3.403,0.6844,0.1389,0.077,-0.7115
-0.148,0.002,-0.04,12.3,-25.2,-109.9,0,2018,5,11,13,48,3.407,0.6985,0.1356,0.0733,-0.6987
-0.096,0.096,-0.145,9.5,-47.8,-106.4,0,2018,5,11,13,48,3.424,0.7127,0.1309,0.0738,-0.6851
-0.069,0.223,-0.22,14.8,-77.1,-97.9,0,2018,5,11,13,48,3.465,0.7263,0.1231,0.0773,-0.6717
-0.212,0.153,-0.013,11.8,-109.3,-91.7,0,2018,5,11,13,48,3.484,0.7395,0.1104,0.0846,-0.6585
-0.188,0.178,-0.152,-1.3,-140.6,-88.9,0,2018,5,11,13,48,3.488,0.752,0.0949,0.0971,-0.6448
-0.17,0.147,-0.155,-5.3,-156.3,-88.1,0,2018,5,11,13,48,3.504,0.7642,0.0773,0.1132,-0.6301
-0.171,0.197,-0.171,-7.7,-165.6,-85.5,0,2018,5,11,13,48,3.525,0.7754,0.0584,0.1305,-0.6149
-0.15,0.239,-0.142,-5.9,-170.2,-79.3,0,2018,5,11,13,48,3.544,0.7855,0.0379,0.1487,-0.5994
-0.155,0.343,-0.144,-9.3,-174.3,-65.5,0,2018,5,11,13,48,3.565,0.7936,0.0171,0.1671,-0.5847
-0.093,0.339,-0.189,-9.5,-181.9,-46.4,0,2018,5,11,13,48,3.584,0.7991,-0.0048,0.1864,-0.5713
0.077,0.251,-0.2,8.9,-168,-27.8,0,2018,5,11,13,48,3.605,0.8023,-0.0281,0.2043,-0.5601
0.09,0.138,-0.078,35.8,-124.3,-13.6,0,2018,5,11,13,48,3.627,0.8041,-0.0502,0.2157,-0.5515
-0.008,0.084,0.117,55.1,-60.9,-4,0,2018,5,11,13,48,3.646,0.806,-0.0667,0.2176,-0.5463
-0.081,0.171,0.213,60.5,-19.5,7,0,2018,5,11,13,48,3.668,0.8076,-0.0775,0.2126,-0.5444
-0.016,0.228,0.258,65.8,8.4,21.3,0,2018,5,11,13,48,3.688,0.8086,-0.0846,0.2042,-0.5451
-0.018,0.296,0.427,70,41,34.6,0,2018,5,11,13,48,3.709,0.8088,-0.0883,0.1915,-0.5488
-0.045,0.403,0.48,60.3,37,51.4,0,2018,5,11,13,48,3.724,0.8075,-0.0899,0.1776,-0.555
-0.056,0.325,0.493,52,29.3,66.8,0,2018,5,11,13,48,3.761,0.8039,-0.0928,0.1658,-0.5635
-0.094,0.321,0.479,44.3,35.6,79.1,0,2018,5,11,13,48,3.783,0.7987,-0.0947,0.1547,-0.5736
-0.124,0.224,0.476,33.5,26.2,88.5,0,2018,5,11,13,48,3.787,0.7919,-0.0963,0.1449,-0.5852
-0.071,0.107,0.466,21.1,15,97.6,0,2018,5,11,13,48,3.826,0.7834,-0.0983,0.1376,-0.5979
0.035,-0.071,0.466,14.5,16.8,102.1,0,2018,5,11,13,48,3.845,0.7737,-0.1001,0.1315,-0.6115
0.035,-0.186,0.467,8.2,26.7,106.9,0,2018,5,11,13,48,3.849,0.7633,-0.1004,0.1256,-0.6256
-0.055,0.096,0.515,-15.9,-45.4,117.1,1023,2018,5,11,13,48,3.867,0.7509,-0.1026,0.1239,-0.6404
-0.177,-0.29,0.371,-49.9,-119.1,125.3,1023,2018,5,11,13,48,3.903,0.7348,-0.1135,0.136,-0.6546
-0.254,-0.586,0.191,-75.8,-105.7,122.3,1023,2018,5,11,13,48,3.924,0.7164,-0.1237,0.155,-0.6688
-0.239,-0.558,0.017,-87.1,-100.7,98.2,1023,2018,5,11,13,48,3.928,0.6987,-0.1294,0.1748,-0.6815
-0.18,-0.625,0.03,-80.8,-98.6,52,1023,2018,5,11,13,48,3.945,0.6847,-0.1339,0.1955,-0.6891
-0.146,-0.54,-0.032,-69.7,-90.6,-7.5,1023,2018,5,11,13,48,3.983,0.6773,-0.1365,0.2154,-0.6899
-0.181,-0.475,-0.087,-50.6,-71.1,-65.1,1023,2018,5,11,13,48,4.005,0.6778,-0.1376,0.2335,-0.6834
-0.193,-0.339,-0.159,-32.3,-26.3,-100.3,1023,2018,5,11,13,48,4.009,0.6851,-0.1349,0.2462,-0.6721
-0.206,-0.24,-0.226,-14.1,27.2,-121.1,0,2018,5,11,13,48,4.026,0.6973,-0.1271,0.2513,-0.659
-0.234,-0.195,-0.263,-1.3,56.7,-136.3,0,2018,5,11,13,48,4.048,0.7127,-0.1149,0.2499,-0.6451
-0.192,-0.149,-0.266,12.4,70.1,-152.6,0,2018,5,11,13,48,4.069,0.7304,-0.1013,0.245,-0.6294
-0.197,-0.159,-0.068,24.3,109.6,-165.9,0,2018,5,11,13,48,4.106,0.7501,-0.085,0.2353,-0.6121
-0.243,0.056,0.059,24.8,132.6,-175.3,0,2018,5,11,13,48,4.126,0.7708,-0.0642,0.221,-0.5939
-0.245,0.319,-0.05,22.8,82.9,-181.5,0,2018,5,11,13,48,4.13,0.7909,-0.0444,0.2081,-0.5736
-0.243,0.257,-0.359,37.7,-0.3,-184.9,0,2018,5,11,13,48,4.153,0.8102,-0.0353,0.2016,-0.5491
-0.267,-0.159,-0.582,79.8,-0.9,-194.2,0,2018,5,11,13,48,4.172,0.83,-0.0355,0.1955,-0.521
-0.45,-0.234,-0.504,117.2,74,-208.8,0,2018,5,11,13,48,4.191,0.8515,-0.0323,0.1787,-0.4917
-0.453,0.065,-0.396,135.4,133.3,-209.8,0,2018,5,11,13,48,4.208,0.8734,-0.0205,0.1518,-0.4621
-0.476,0.202,-0.201,138.9,161.7,-202.2,0,2018,5,11,13,48,4.247,0.8931,-0.0028,0.1192,-0.4336
-0.613,0.248,0.074,124.3,150.4,-199.4,0,2018,5,11,13,48,4.266,0.9101,0.0159,0.0866,-0.4047
-0.598,0.362,0.445,93,95.4,-198.2,0,2018,5,11,13,48,4.27,0.9246,0.031,0.0596,-0.3747
0.022,0.825,0.684,48.6,88.9,-155.2,0,2018,5,11,13,48,4.289,0.9361,0.0415,0.0423,-0.3466
-0.248,0.71,0.113,5,-31.8,-128.2,0,2018,5,11,13,48,4.31,0.9444,0.0461,0.0357,-0.3234
-0.034,0.014,0.1,-7.5,-28.1,-103,0,2018,5,11,13,48,4.327,0.951,0.0392,0.0375,-0.3042
-0.119,0.055,-0.083,-10,-3.7,-99.6,0,2018,5,11,13,48,4.367,0.9561,0.0393,0.0378,-0.2876
-0.026,-0.043,-0.385,-4.9,-5.1,-101.1,0,2018,5,11,13,48,4.387,0.9611,0.0383,0.0381,-0.2705
0.069,-0.006,-0.532,10.8,17.5,-99.4,0,2018,5,11,13,48,4.391,0.9657,0.04,0.0372,-0.2538
0,0.08,-0.532,32.8,15.1,-98.9,0,2018,5,11,13,48,4.407,0.9699,0.0426,0.0319,-0.2372
0.043,0.259,-0.31,43.4,29.5,-91.3,0,2018,5,11,13,48,4.445,0.9738,0.0454,0.0237,-0.2213
-0.011,0.363,-0.1,43.9,29.1,-85.1,0,2018,5,11,13,48,4.464,0.977,0.0493,0.0142,-0.2068
-0.102,0.397,-0.094,35,14.2,-73.9,0,2018,5,11,13,48,4.469,0.9797,0.0517,0.006,-0.1935
-0.152,0.312,-0.12,33.8,4.3,-54.4,1023,2018,5,11,13,48,4.507,0.9817,0.0519,-0.0004,-0.1829
-0.291,0.259,-0.121,36.1,8.4,-41.1,1023,2018,5,11,13,48,4.529,0.9831,0.052,-0.0071,-0.1752
-0.33,0.23,-0.035,30.3,1.3,-32.8,1023,2018,5,11,13,48,4.534,0.9841,0.0517,-0.0133,-0.1692
-0.267,0.275,-0.067,26.3,4.3,-19.5,1023,2018,5,11,13,48,4.551,0.9847,0.0512,-0.0183,-0.1649
-0.244,0.494,0.019,24,22.7,2.5,1023,2018,5,11,13,48,4.591,0.9848,0.053,-0.0233,-0.1637
-0.225,0.412,-0.03,29.2,12.4,22.8,1023,2018,5,11,13,48,4.611,0.9841,0.0556,-0.0281,-0.1662
-0.32,0.124,0.027,29.8,25.6,34.6,1023,2018,5,11,13,48,4.615,0.9829,0.0574,-0.0334,-0.1713
-0.185,0.517,0.04,29.4,38,60.2,1023,2018,5,11,13,48,4.633,0.9809,0.0632,-0.0391,-0.1794
-0.051,0.727,0.011,28.1,-13.2,90.4,0,2018,5,11,13,48,4.654,0.9781,0.0652,-0.0437,-0.1926
-0.131,0.515,0.144,23,-56.6,121.4,0,2018,5,11,13,48,4.673,0.9745,0.0584,-0.0456,-0.2116
-0.194,0.2,0.287,11.2,-33.7,142.5,0,2018,5,11,13,48,4.691,0.9696,0.0504,-0.0453,-0.2347
-0.191,0.168,0.288,1.3,-6,157.2,0,2018,5,11,13,48,4.71,0.9632,0.0484,-0.0443,-0.2602
-0.212,0.225,0.257,-3.3,-28.3,167.5,0,2018,5,11,13,48,4.729,0.9556,0.0475,-0.042,-0.2877
-0.298,0.081,-0.023,-3.6,-54.7,174.7,0,2018,5,11,13,48,4.768,0.9469,0.0411,-0.0375,-0.3164
-0.407,-0.328,0.017,-3.6,-14.8,165.3,0,2018,5,11,13,48,4.788,0.9373,0.0361,-0.0335,-0.3448
-0.459,-0.603,0.334,-9.9,38.9,145.2,0,2018,5,11,13,48,4.793,0.9275,0.0399,-0.0324,-0.37
-0.4,-0.518,0.505,-17.4,53.9,122.7,0,2018,5,11,13,48,4.828,0.9184,0.0498,-0.0326,-0.3911
-0.388,-0.427,0.382,-30.4,30.8,98,0,2018,5,11,13,48,4.847,0.9104,0.0591,-0.0308,-0.4082
-0.319,-0.494,0.311,-42.7,-0.5,74.1,0,2018,5,11,13,48,4.855,0.9042,0.0643,-0.0251,-0.4213
-0.078,-0.495,0.29,-55.7,-14.1,53,0,2018,5,11,13,48,4.87,0.8999,0.0667,-0.0157,-0.4306
-0.005,-0.46,0.261,-63.7,-18.1,36.9,0,2018,5,11,13,48,4.911,0.8968,0.069,-0.0045,-0.4368
0.003,-0.455,0.234,-77.9,-33.2,19.5,0,2018,5,11,13,48,4.931,0.895,0.0707,0.0087,-0.4402
-0.07,-0.594,0.011,-83.7,-44.6,-3,0,2018,5,11,13,48,4.935,0.8946,0.0703,0.0249,-0.4404
-0.073,-0.364,-0.295,-85.3,-64.8,-36.4,0,2018,5,11,13,48,4.954,0.8965,0.069,0.042,-0.4354
-0.143,-0.485,-0.466,-79.4,-100.7,-62.6,0,2018,5,11,13,48,4.973,0.9004,0.062,0.0609,-0.426
-0.051,-0.392,-0.634,-66.2,-80.1,-93.1,0,2018,5,11,13,48,4.992,0.9063,0.0538,0.0786,-0.4117
-0.066,-0.039,-0.603,-45.4,-65.9,-108.8,0,2018,5,11,13,48,5.03,0.9133,0.0485,0.0911,-0.3939
0.014,-0.063,-0.58,-22.7,-64.5,-105.5,0,2018,5,11,13,48,5.052,0.9205,0.0413,0.1004,-0.3752
0.136,0.093,-0.65,4.7,-62.6,-100.5,0,2018,5,11,13,48,5.056,0.9274,0.0329,0.1051,-0.3573
0.371,0.274,-0.624,38.9,-56.5,-85.5,0,2018,5,11,13,48,5.075,0.9339,0.0233,0.1049,-0.3409
0.535,0.392,-0.461,73.3,-28,-66.4,0,2018,5,11,13,48,5.094,0.9394,0.0145,0.0976,-0.3281
0.487,0.707,-0.213,99.9,-21.3,-42.5,0,2018,5,11,13,48,5.113,0.9439,0.0071,0.0841,-0.319
0.437,0.82,-0.091,119.7,-49,-10.6,0,2018,5,11,13,48,5.132,0.9469,-0.0045,0.0678,-0.3142
0.335,0.652,-0.139,138.9,-55.6,17.5,0,2018,5,11,13,48,5.154,0.9478,-0.021,0.0494,-0.3142
0.242,0.477,-0.042,152.2,-33.2,33,0,2018,5,11,13,48,5.173,0.9471,-0.0367,0.0275,-0.3175
0.171,0.539,0.185,153,-30.8,42.7,1023,2018,5,11,13,48,5.212,0.9452,-0.0498,0.0033,-0.3226
0.033,0.507,0.431,139.7,-63.2,54.9,1023,2018,5,11,13,48,5.232,0.9418,-0.0659,-0.0185,-0.3291
-0.054,0.329,0.512,114.8,-76.6,66.5,1023,2018,5,11,13,48,5.236,0.9367,-0.0847,-0.0359,-0.3377
-0.158,-0.115,0.46,87.9,-48.5,68.8,1023,2018,5,11,13,48,5.275,0.9308,-0.1007,-0.0498,-0.3478
-0.239,-0.347,0.589,55.9,6.4,58.9,1023,2018,5,11,13,48,5.296,0.9257,-0.108,-0.0616,-0.3569
-0.273,-0.081,0.899,12.1,37.5,52.7,1023,2018,5,11,13,48,5.3,0.9223,-0.1064,-0.07,-0.3648
-0.325,0.119,1.069,-41.3,30.1,55.9,1023,2018,5,11,13,48,5.318,0.9196,-0.0978,-0.0717,-0.3734
-0.455,-0.115,0.895,-93.5,13,58.6,1023,2018,5,11,13,48,5.338,0.9169,-0.0896,-0.0638,-0.3836
-0.478,-0.334,0.656,-133.6,46,63.1,1023,2018,5,11,13,48,5.358,0.9141,-0.0772,-0.0483,-0.3949
-0.438,-0.262,0.478,-158,92.9,65.5,0,2018,5,11,13,48,5.375,0.9115,-0.0548,-0.0306,-0.4063
-0.458,-0.026,0.431,-175.9,97.8,72.9,0,2018,5,11,13,48,5.414,0.9079,-0.0266,-0.0116,-0.418
-0.499,-0.084,0.258,-189.4,81.7,83.7,0,2018,5,11,13,48,5.434,0.9022,0.0007,0.0106,-0.431
-0.55,-0.182,0.071,-195.2,77.1,85.5,0,2018,5,11,13,48,5.439,0.8947,0.0276,0.0351,-0.4442
-0.549,-0.389,-0.055,-194.5,84.3,81,0,2018,5,11,13,48,5.458,0.886,0.0549,0.06,-0.4564
-0.519,-0.4,-0.205,-190.7,99.9,69.3,0,2018,5,11,13,48,5.478,0.8764,0.0838,0.083,-0.4668
-0.473,-0.288,-0.272,-180.9,91.7,56.7,0,2018,5,11,13,48,5.499,0.8664,0.1131,0.1043,-0.4748
-0.474,-0.252,-0.364,-170.1,59.8,37.8,0,2018,5,11,13,48,5.519,0.8573,0.1381,0.1254,-0.4796
-0.486,-0.306,-0.442,-159.2,39.5,16.8,0,2018,5,11,13,48,5.538,0.8499,0.1584,0.1466,-0.4805
-0.508,-0.336,-0.481,-147.7,42,-1.9,0,2018,5,11,13,48,5.557,0.844,0.1768,0.1662,-0.4781
-0.53,-0.196,-0.465,-137.1,45,-21,0,2018,5,11,13,48,5.574,0.8392,0.1957,0.1829,-0.4731
-0.532,-0.07,-0.391,-127.6,27.5,-38.1,0,2018,5,11,13,48,5.615,0.8359,0.213,0.198,-0.4653
-0.557,0.013,-0.377,-121.5,9.7,-54,0,2018,5,11,13,48,5.634,0.8346,0.2271,0.2129,-0.4543
-0.59,0.104,-0.388,-119.1,5.2,-63.6,0,2018,5,11,13,48,5.638,0.8344,0.2398,0.2274,-0.441
-0.647,0.257,-0.483,-119.8,-13.8,-65.2,0,2018,5,11,13,48,5.657,0.8345,0.251,0.2423,-0.4262
-0.663,0.287,-0.623,-116.5,-39.8,-67.5,0,2018,5,11,13,48,5.693,0.8354,0.2587,0.2586,-0.4101
-0.639,0.233,-0.603,-115.1,-74.2,-73.3,0,2018,5,11,13,48,5.714,0.8375,0.2616,0.2762,-0.3919
-0.649,0.104,-0.515,-117.9,-99.3,-81.7,0,2018,5,11,13,48,5.718,0.841,0.2601,0.2957,-0.3708
-0.753,-0.046,-0.569,-122.4,-79.4,-94.4,0,2018,5,11,13,48,5.739,0.8443,0.2588,0.3152,-0.3475
-0.81,0.024,-0.71,-127.8,-46.7,-98.3,0,2018,5,11,13,48,5.759,0.8457,0.2626,0.3329,-0.324
-0.73,0.07,-0.908,-135.4,-26.2,-94.4,0,2018,5,11,13,48,5.797,0.8447,0.2704,0.3496,-0.3016
-0.575,0.235,-0.894,-149.7,-29,-86.9,0,2018,5,11,13,48,5.801,0.8416,0.2797,0.3675,-0.2798
-0.457,0.391,-0.867,-171.2,-67.7,-70.3,0,2018,5,11,13,48,5.816,0.837,0.2856,0.3893,-0.2573
-0.259,0.52,-1.125,-192,-127.5,-45.3,0,2018,5,11,13,48,5.854,0.8315,0.2831,0.4173,-0.2327
0.045,0.743,-1.167,-208.1,-160.6,-14.4,0,2018,5,11,13,48,5.874,0.8246,0.2717,0.4505,-0.2076
0.414,1.085,-1.589,-216.1,-199.1,39.9,0,2018,5,11,13,48,5.878,0.8152,0.2517,0.4879,-0.1843
0.748,1.018,-1.347,-206.4,-230.6,119.2,0,2018,5,11,13,48,5.9,0.803,0.2196,0.528,-0.1673
0.538,0.39,-0.804,-197.3,-180,170,0,2018,5,11,13,48,5.919,0.7871,0.1811,0.5671,-0.1607
0.741,0.559,-0.367,-198.7,-91.1,198.6,0,2018,5,11,13,48,5.958,0.7653,0.1507,0.603,-0.167
0.961,0.728,-0.561,-180.1,-143.1,245.3,1023,2018,5,11,13,48,5.962,0.7402,0.118,0.6369,-0.18
0.887,0.48,-0.471,-127.9,-281.4,282.2,1023,2018,5,11,13,48,5.982,0.7174,0.0656,0.6678,-0.1871
0.447,0.155,-0.037,-98.9,-409.3,295.4,1023,2018,5,11,13,48,6.002,0.6966,-0.0089,0.6942,-0.1803
-0.001,-0.579,-0.003,-101.8,-465.1,299,1023,2018,5,11,13,48,6.023,0.6713,-0.0963,0.7167,-0.1619
-0.018,-1.18,-0.309,-117.1,-446.8,265.9,1023,2018,5,11,13,48,6.039,0.6385,-0.1821,0.7346,-0.1392
0.229,-0.502,-0.967,-114.3,-490.3,220.2,1023,2018,5,11,13,48,6.077,0.6001,-0.2602,0.7483,-0.1102
0.116,-0.631,-0.992,-97.6,-581.3,208.6,1023,2018,5,11,13,48,6.096,0.5545,-0.3412,0.756,-0.0663
-0.13,-1.194,-0.451,-95,-540.2,189.9,1023,2018,5,11,13,48,6.1,0.5019,-0.4201,0.7558,-0.0147
-0.229,-1.341,-0.273,-85.9,-309.3,175.2,1023,2018,5,11,13,48,6.122,0.4562,-0.4802,0.7489,0.0186
-0.052,-0.815,-0.504,-57.5,-114.9,162.4,0,2018,5,11,13,48,6.142,0.4308,-0.5172,0.739,0.0241
0.119,-0.702,-0.643,-14.1,-97.2,145.5,0,2018,5,11,13,48,6.161,0.4177,-0.5442,0.7271,0.0219
0.152,-0.642,-0.228,18.3,-88.1,131.9,0,2018,5,11,13,48,6.18,0.4092,-0.5686,0.7131,0.0243
0.155,-0.713,0.043,33.1,-24.5,107.4,0,2018,5,11,13,48,6.203,0.4072,-0.5873,0.6989,0.0255
0.156,-0.598,0.09,38.3,38.1,79.6,0,2018,5,11,13,48,6.222,0.413,-0.5976,0.6868,0.021
0.117,-0.385,0.077,37.5,62.9,56,0,2018,5,11,13,48,6.242,0.4234,-0.6014,0.6773,0.0135
0.053,-0.212,0.046,33.4,58.2,37.7,0,2018,5,11,13,48,6.261,0.4339,-0.6022,0.67,0.0062
0.017,-0.078,-0.003,28.2,43.5,25.7,0,2018,5,11,13,48,6.282,0.443,-0.6019,0.6643,0.0004
-0.013,0.04,-0.033,24.2,22.7,17.5,0,2018,5,11,13,48,6.302,0.4489,-0.602,0.6602,-0.0025
-0.078,0.078,0.067,19.3,17.2,15.7,0,2018,5,11,13,48,6.321,0.4526,-0.6027,0.657,-0.004
-0.052,0.084,-0.001,20,24.1,14.6,0,2018,5,11,13,48,6.34,0.4563,-0.603,0.6542,-0.0058
-0.013,0.123,-0.093,26.2,30.2,18.5,0,2018,5,11,13,48,6.379,0.461,-0.6028,0.651,-0.0081
-0.001,0.18,-0.069,34.7,34.8,28.9,0,2018,5,11,13,48,6.399,0.4679,-0.6029,0.646,-0.0106
-0.003,0.206,-0.046,40.4,27.6,40,0,2018,5,11,13,48,6.405,0.4754,-0.6042,0.6392,-0.0132
-0.013,0.204,-0.007,43.5,3.7,50.8,0,2018,5,11,13,48,6.424,0.4814,-0.6081,0.6309,-0.0145
-0.017,0.128,0.012,44.3,-2.7,61.9,0,2018,5,11,13,48,6.461,0.4853,-0.6147,0.6215,-0.0144
-0.026,0.096,0.026,45.6,8.8,72.8,0,2018,5,11,13,48,6.482,0.4896,-0.6219,0.6109,-0.0153
-0.04,0.056,0.068,46.4,26.6,84.1,0,2018,5,11,13,48,6.486,0.496,-0.6288,0.5984,-0.0191
-0.042,0.07,0.1,44.7,39.3,94.3,0,2018,5,11,13,48,6.503,0.5041,-0.6352,0.5844,-0.0258
-0.055,0.109,0.17,43.7,49,106.7,0,2018,5,11,13,48,6.522,0.5131,-0.6415,0.5691,-0.0346
-0.111,-0.052,0.423,39.3,82,122.2,0,2018,5,11,13,48,6.542,0.5234,-0.6473,0.552,-0.0466
-0.095,-0.124,0.519,27.5,161.1,135.1,0,2018,5,11,13,48,6.581,0.5387,-0.6488,0.5332,-0.0662
-0.034,0.046,0.38,20.4,259.1,154,0,2018,5,11,13,48,6.601,0.5627,-0.6418,0.5117,-0.0973
-0.023,0.298,0.241,25.1,277.2,166.9,0,2018,5,11,13,48,6.605,0.5915,-0.6287,0.4862,-0.1355
-0.081,0.368,0.304,33.4,247,187.1,0,2018,5,11,13,48,6.623,0.6176,-0.6164,0.4567,-0.1728
-0.082,0.413,0.31,32.9,224.4,208.7,0,2018,5,11,13,48,6.643,0.6381,-0.6075,0.4242,-0.209
-0.087,0.407,0.152,36.1,247.9,231.1,0,2018,5,11,13,48,6.664,0.6561,-0.5982,0.3878,-0.2471
-0.05,0.23,-0.063,55.6,324.8,249.2,1023,2018,5,11,13,48,6.684,0.6771,-0.5825,0.344,-0.2894
-0.035,0.174,-0.145,82.8,370.1,243.4,1023,2018,5,11,13,48,6.724,0.7018,-0.5586,0.292,-0.3316
-0.066,0.444,-0.041,109.1,375.4,243.4,1023,2018,5,11,13,48,6.728,0.727,-0.5292,0.2333,-0.37
-0.041,0.184,0.05,119,419.2,247,1023,2018,5,11,13,48,6.742,0.749,-0.4956,0.1701,-0.4053
-0.119,-0.019,0.066,129,592.7,238.8,1023,2018,5,11,13,48,6.761,0.7754,-0.443,0.0952,-0.4396
-0.112,-0.011,-0.025,143.1,744.6,201,1023,2018,5,11,13,48,6.782,0.8063,-0.363,0.0063,-0.4669
0.03,0.315,-0.222,174.2,843.9,146.2,1023,2018,5,11,13,48,6.819,0.8342,-0.2596,-0.0929,-0.4774
0.05,1.077,-0.005,222.4,713.4,133.5,1023,2018,5,11,13,48,6.84,0.8462,-0.1563,-0.1932,-0.4712
-0.076,1.444,0.257,234.7,454.5,130.2,1023,2018,5,11,13,48,6.843,0.8384,-0.0837,-0.2777,-0.4614
-0.133,1.262,0.249,235.6,149.9,158.7,0,2018,5,11,13,48,6.884,0.8175,-0.0525,-0.3353,-0.4652
-0.407,0.591,0.638,222.5,-244.3,144.1,0,2018,5,11,13,48,6.904,0.7896,-0.0702,-0.3655,-0.4877
-0.623,-0.095,0.756,151.9,-427.4,182.3,0,2018,5,11,13,48,6.907,0.7571,-0.1274,-0.3608,-0.5293
-0.509,-0.679,0.682,81.2,-273.4,230.1,0,2018,5,11,13,48,6.926,0.7202,-0.1722,-0.3457,-0.5761
-0.392,-0.453,0.508,42.3,-77.9,254.1,0,2018,5,11,13,48,6.962,0.686,-0.1842,-0.344,-0.614
-0.455,-0.102,0.139,28.8,-14.5,270,0,2018,5,11,13,48,6.982,0.6537,-0.1763,-0.3528,-0.6457
-0.542,0.267,-0.247,34.8,-117,268.3,0,2018,5,11,13,48,6.985,0.6185,-0.1692,-0.3587,-0.6782
-0.522,0.144,-0.696,41.1,-303.5,243.5,0,2018,5,11,13,48,7.003,0.5781,-0.1804,-0.3443,-0.7173
-0.37,-0.488,-0.626,48.7,-417.4,180.2,0,2018,5,11,13,48,7.024,0.5351,-0.2108,-0.3075,-0.7579
-0.298,-0.835,-0.115,50.8,-355.9,103.2,0,2018,5,11,13,48,7.065,0.4977,-0.2465,-0.2643,-0.7883
-0.284,-0.627,0.335,10.6,-251.9,18.1,0,2018,5,11,13,48,7.084,0.4743,-0.2741,-0.2281,-0.8048
-0.045,-0.387,0.1,-31.3,-158.9,-59.4,0,2018,5,11,13,48,7.088,0.4683,-0.2897,-0.197,-0.8111
0.001,-0.331,-0.135,-42.9,-52.6,-108.6,0,2018,5,11,13,48,7.106,0.4765,-0.2955,-0.1745,-0.8093
-0.132,-0.278,-0.281,-48.5,40.8,-146.7,0,2018,5,11,13,48,7.128,0.4962,-0.2926,-0.164,-0.8007
-0.224,-0.127,-0.341,-58.4,67,-172.2,0,2018,5,11,13,48,7.167,0.5232,-0.2845,-0.1594,-0.7872
-0.258,0.156,-0.173,-73.1,53.6,-169.8,0,2018,5,11,13,48,7.187,0.5514,-0.2744,-0.1534,-0.7726
-0.311,0.252,-0.07,-83.7,-3.4,-163.5,0,2018,5,11,13,48,7.191,0.5768,-0.2655,-0.1415,-0.7593
-0.301,0.246,-0.064,-88.7,-70.3,-163.5,0,2018,5,11,13,48,7.206,0.5985,-0.2618,-0.1199,-0.7474
-0.256,0.235,-0.126,-84.3,-128,-164,0,2018,5,11,13,48,7.245,0.6166,-0.2643,-0.09,-0.7359
-0.15,0.22,-0.206,-72,-146.2,-150.9,0,2018,5,11,13,48,7.264,0.6311,-0.2719,-0.056,-0.7242
-0.081,0.235,-0.211,-56,-127.2,-130.8,0,2018,5,11,13,48,7.269,0.6425,-0.2803,-0.025,-0.7127
-0.076,0.237,-0.12,-48.4,-99.1,-106.2,0,2018,5,11,13,48,7.303,0.6518,-0.2867,0.0007,-0.7019
-0.071,0.288,-0.117,-43.8,-72.8,-80.5,0,2018,5,11,13,48,7.325,0.659,-0.2903,0.021,-0.6934
-0.027,0.335,-0.144,-36.5,-100.6,-69.1,0,2018,5,11,13,48,7.329,0.6634,-0.2947,0.0395,-0.6865
-0.001,0.234,-0.135,-22.9,-117.1,-59.4,0,2018,5,11,13,48,7.35,0.665,-0.3034,0.0598,-0.6796
-0.063,0.173,-0.061,-11.3,-109.5,-50.8,0,2018,5,11,13,48,7.37,0.6653,-0.314,0.0783,-0.6727
-0.096,0.113,-0.044,-4.2,-93,-42.6,0,2018,5,11,13,48,7.391,0.6654,-0.3238,0.0937,-0.666
-0.097,0.152,-0.032,-0.2,-92.5,-34.5,1023,2018,5,11,13,48,7.41,0.6649,-0.3332,0.1067,-0.6598
-0.125,0.073,-0.067,2.9,-114.9,-29.2,1023,2018,5,11,13,48,7.427,0.6627,-0.3445,0.1204,-0.6538
-0.2,-0.102,-0.029,2,-118.6,-31.4,1023,2018,5,11,13,48,7.447,0.6591,-0.3577,0.1355,-0.6474
-0.178,0.042,0.051,-4.8,-130.9,-31.7,1023,2018,5,11,13,48,7.469,0.6551,-0.3706,0.1515,-0.6406
-0.143,0.094,0.077,-15.4,-174.6,-31.4,1023,2018,5,11,13,48,7.488,0.6485,-0.3857,0.1718,-0.6332
-0.06,0.077,0.055,-22.9,-222.6,-29.7,1023,2018,5,11,13,48,7.507,0.6374,-0.4051,0.1981,-0.6247
0.026,-0.005,0.107,-22.4,-234.2,-27.3,1023,2018,5,11,13,48,7.553,0.6232,-0.4263,0.2274,-0.6148
0.016,-0.055,0.22,-24.6,-231.8,-26.3,1023,2018,5,11,13,48,7.556,0.6078,-0.4473,0.2568,-0.6036
0.077,-0.236,0.207,-30.4,-187.2,-19.9,0,2018,5,11,13,48,7.569,0.5922,-0.4654,0.2839,-0.5932
0.11,-0.32,0.172,-33.8,-111.9,-15.2,0,2018,5,11,13,48,7.591,0.5806,-0.4761,0.3039,-0.5862
0.049,-0.482,0.22,-39,-73.8,-26.2,0,2018,5,11,13,48,7.628,0.574,-0.4796,0.3188,-0.582
0.067,-0.422,0.269,-49.1,-63.1,-43,0,2018,5,11,13,48,7.648,0.5702,-0.4791,0.3331,-0.5781
0.139,-0.15,0.285,-60.2,-71.6,-52.8,0,2018,5,11,13,48,7.651,0.5666,-0.477,0.3494,-0.5737
0.194,-0.126,0.277,-69.7,-114.1,-64.2,0,2018,5,11,13,48,7.669,0.5609,-0.4758,0.3698,-0.5676
0.244,-0.058,0.207,-77.3,-164.4,-78.6,0,2018,5,11,13,48,7.69,0.5513,-0.4775,0.397,-0.5571
0.3,-0.179,0.095,-77.4,-181.5,-90.7,0,2018,5,11,13,48,7.728,0.5394,-0.4806,0.4286,-0.5425
0.322,-0.163,0.031,-68.4,-178.1,-106.3,0,2018,5,11,13,48,7.747,0.528,-0.4827,0.4604,-0.5254
0.334,0.006,0.012,-58.2,-176.6,-118,0,2018,5,11,13,48,7.751,0.5182,-0.4837,0.4919,-0.5053
0.331,0.024,0,-44.5,-151.5,-126.9,0,2018,5,11,13,48,7.77,0.5106,-0.4832,0.5213,-0.4836
0.369,0.214,0.051,-28.7,-129,-128.6,0,2018,5,11,13,48,7.791,0.5067,-0.4802,0.5467,-0.4623
0.29,0.481,0.072,-18.6,-199.8,-135.3,0,2018,5,11,13,48,7.828,0.5017,-0.4795,0.5728,-0.436
0.316,0.172,-0.005,-1,-216.2,-132.9,0,2018,5,11,13,48,7.847,0.4926,-0.4836,0.6007,-0.4031
0.276,0.239,-0.06,20.4,-206.1,-126.9,0,2018,5,11,13,48,7.851,0.4849,-0.4882,0.6251,-0.3682
0.284,0.186,-0.12,45.3,-179.7,-115,0,2018,5,11,13,48,7.889,0.4793,-0.4933,0.6448,-0.3332
0.301,0.124,-0.244,76.3,-155.6,-103.2,0,2018,5,11,13,48,7.893,0.4779,-0.4982,0.6584,-0.2995
0.254,0.028,-0.366,113.6,-85.8,-85.3,0,2018,5,11,13,48,7.91,0.4829,-0.5025,0.6647,-0.269
0.155,-0.246,-0.384,153.1,29,-73,0,2018,5,11,13,48,7.949,0.4999,-0.5017,0.6611,-0.2473
0.018,-0.28,-0.132,176.8,121.7,-74.5,0,2018,5,11,13,48,7.968,0.5285,-0.4936,0.6492,-0.2355
-0.043,0.137,0.043,180.4,143.7,-77.8,0,2018,5,11,13,48,7.973,0.5634,-0.4793,0.6327,-0.2289
-0.077,0.373,0.121,173.2,77.5,-74.2,0,2018,5,11,13,48,7.994,0.5953,-0.4662,0.6167,-0.2186
-0.072,0.226,0.091,167,15.7,-65.3,0,2018,5,11,13,48,8.013,0.6194,-0.4605,0.6028,-0.2019
-0.096,0.161,0.114,160.2,-2,-56.6,0,2018,5,11,13,48,8.035,0.6393,-0.4588,0.5894,-0.1824
-0.157,-0.017,0.099,152.2,-2,-51.4,0,2018,5,11,13,48,8.053,0.6571,-0.4582,0.5755,-0.1641
-0.149,-0.169,0.019,146.2,9,-52.5,0,2018,5,11,13,48,8.075,0.6735,-0.457,0.5618,-0.1478
-0.137,-0.09,0.111,134.7,1.2,-59.4,1023,2018,5,11,13,48,8.094,0.6889,-0.4541,0.5494,-0.1309
-0.147,0.045,0.109,116.2,-22.7,-59.6,1023,2018,5,11,13,48,8.111,0.7011,-0.4525,0.5393,-0.1128
-0.137,0.201,0.156,97.9,-67.1,-53.7,1023,2018,5,11,13,48,8.15,0.7085,-0.4546,0.5315,-0.0932
-0.126,0.254,0.279,79.3,-119,-42.7,1023,2018,5,11,13,48,8.17,0.7099,-0.463,0.5256,-0.0719
-0.155,0.233,0.113,61.9,-170.6,-32.3,1023,2018,5,11,13,48,8.174,0.7044,-0.4787,0.5217,-0.0485
-0.224,0.048,0.005,49.2,-169.4,-18.3,1023,2018,5,11,13,48,8.21,0.6944,-0.4986,0.518,-0.0256
-0.182,-0.427,-0.139,47.4,-121.8,-20.3,1023,2018,5,11,13,48,8.231,0.6856,-0.5151,0.5142,-0.0063
-0.061,-0.295,-0.067,55.1,-23.4,-26.4,1023,2018,5,11,13,48,8.235,0.6839,-0.5211,0.5103,0.0069
-0.134,0.158,0.095,52.6,-36.2,-23.8,1023,2018,5,11,13,48,8.254,0.6868,-0.5216,0.5058,0.0164
-0.187,0.205,0.137,41.3,-76.2,-8.8,0,2018,5,11,13,48,8.295,0.6853,-0.5272,0.5014,0.0278
-0.212,0.049,0.008,32.8,-107.9,-1.9,0,2018,5,11,13,48,8.315,0.6797,-0.5379,0.4969,0.0392
-0.165,0.055,-0.016,25.4,-92.3,7,0,2018,5,11,13,48,8.319,0.6724,-0.5506,0.4922,0.0486
-0.115,-0.011,-0.052,22.2,-86.6,14.3,0,2018,5,11,13,48,8.338,0.6653,-0.5625,0.4875,0.0562
-0.096,-0.024,0.003,19.3,-71.1,16.9,0,2018,5,11,13,48,8.358,0.6592,-0.5733,0.4825,0.0623
-0.096,-0.015,0.128,9.6,-81.6,16.8,0,2018,5,11,13,48,8.378,0.6529,-0.5835,0.478,0.0673
-0.085,-0.07,0.162,-3.2,-86.6,15.7,0,2018,5,11,13,48,8.395,0.6446,-0.5945,0.475,0.0728
-0.108,-0.291,0.045,-11.4,-57.3,9.3,0,2018,5,11,13,48,8.414,0.6362,-0.604,0.4737,0.0765
-0.047,-0.508,-0.059,-12.9,0.3,-6.1,0,2018,5,11,13,48,8.434,0.632,-0.6076,0.4747,0.0772
-0.044,-0.441,-0.068,-11.6,61.5,-21.7,0,2018,5,11,13,48,8.471,0.6341,-0.6029,0.4782,0.0742
-0.06,-0.373,-0.122,-11.6,95.1,-36,0,2018,5,11,13,48,8.491,0.6412,-0.5916,0.4836,0.0693
-0.1,-0.546,-0.314,-6.9,139.1,-50.3,0,2018,5,11,13,48,8.495,0.6513,-0.5752,0.4906,0.0633
-0.071,-0.829,-0.512,5.8,231.4,-68.6,0,2018,5,11,13,48,8.533,0.6687,-0.549,0.4984,0.0538
-0.181,-0.704,-0.394,5.3,386,-79.4,0,2018,5,11,13,48,8.553,0.6969,-0.5057,0.5071,0.0361
-0.3,0.053,-0.333,-15.7,512.9,-67.5,0,2018,5,11,13,48,8.557,0.7337,-0.4421,0.5158,0.004
-0.085,0.621,-0.406,-37.3,551.5,-39.1,0,2018,5,11,13,48,8.573,0.7696,-0.366,0.5216,-0.0398
0.07,1.136,-0.215,-49.6,490.9,5.2,0,2018,5,11,13,48,8.593,0.7961,-0.2917,0.5226,-0.0883
0.148,1.121,0.136,-70,328.4,39.8,0,2018,5,11,13,48,8.615,0.8089,-0.2352,0.5222,-0.1323
0.135,0.565,0.225,-75.4,163.1,51.3,0,2018,5,11,13,48,8.655,0.8101,-0.2039,0.5246,-0.1639
0.195,0.377,0.129,-58.1,24.3,35.5,0,2018,5,11,13,48,8.675,0.8056,-0.1933,0.5299,-0.1807
0.132,0.647,0.141,-47.7,-149.1,9.1,0,2018,5,11,13,48,8.679,0.798,-0.2031,0.5383,-0.1791
0.11,0.749,0.16,-52.4,-323.6,-4.5,0,2018,5,11,13,48,8.697,0.7839,-0.2351,0.5523,-0.1582
0.072,0.695,0.097,-57.4,-436.5,-7.4,0,2018,5,11,13,48,8.718,0.7609,-0.2856,0.5696,-0.1214
0.081,0.61,-0.058,-60.2,-461.5,8.5,0,2018,5,11,13,48,8.738,0.7297,-0.3444,0.5854,-0.0778
0.135,0.412,-0.316,-49.9,-391,29.8,0,2018,5,11,13,48,8.777,0.6958,-0.3996,0.5954,-0.0393
0.134,0.268,-0.432,-27.4,-309.5,51.7,1023,2018,5,11,13,48,8.796,0.6659,-0.4451,0.5984,-0.0108
0.173,0.008,-0.416,-5.2,-223.5,63.5,1023,2018,5,11,13,48,8.8,0.6427,-0.4818,0.5955,0.0086
0.19,-0.043,-0.272,17.2,-152.1,72,1023,2018,5,11,13,48,8.816,0.6274,-0.5094,0.5885,0.0207
0.175,-0.064,-0.078,31.5,-83.4,76.6,1023,2018,5,11,13,48,8.854,0.6194,-0.5296,0.5788,0.0267
0.128,-0.036,0.004,36.5,-27.4,73.4,1023,2018,5,11,13,48,8.874,0.6185,-0.5423,0.5679,0.0268
0.099,-0.061,-0.104,42.1,-17.1,62.1,1023,2018,5,11,13,48,8.879,0.6202,-0.551,0.5576,0.0253
0.062,-0.135,-0.075,49.6,-4.9,52.4,1023,2018,5,11,13,48,8.898,0.6232,-0.558,0.5473,0.0244
-0.081,-0.277,-0.031,48.8,15.8,35.2,1023,2018,5,11,13,48,8.918,0.6285,-0.5618,0.5373,0.023
0.1,-0.246,-0.102,52.6,80.7,20.2,0,2018,5,11,13,48,8.939,0.6382,-0.5588,0.529,0.0202
0.021,0.132,0.096,49.4,65.2,8.9,0,2018,5,11,13,48,8.959,0.6511,-0.5505,0.5222,0.0161
-0.086,0.157,0.107,40.1,27,5.3,0,2018,5,11,13,48,8.996,0.6598,-0.5455,0.5165,0.0157
-0.131,0.086,-0.083,33.5,-11,1.6,0,2018,5,11,13,48,9.016,0.6631,-0.5452,0.5123,0.0188
-0.098,-0.278,-0.181,34,25.7,-5,0,2018,5,11,13,48,9.02,0.6666,-0.5444,0.5085,0.0212
-0.159,-0.366,-0.084,38.1,92,-10.7,0,2018,5,11,13,48,9.061,0.6753,-0.5367,0.5054,0.0201
-0.161,-0.19,0.066,32.3,135.3,-20.2,0,2018,5,11,13,48,9.065,0.6894,-0.5209,0.503,0.0147
-0.184,0.121,0.235,18,100.9,-22,0,2018,5,11,13,48,9.08,0.7026,-0.504,0.5022,0.0086
-0.174,0.188,0.199,3.4,28.5,-17.9,0,2018,5,11,13,48,9.098,0.7088,-0.4946,0.5028,0.0065
-0.109,-0.047,-0.001,-2.6,-2.3,-10.5,0,2018,5,11,13,48,9.117,0.7094,-0.4926,0.5038,0.0076
-0.061,-0.439,-0.115,3,57.8,-3.4,0,2018,5,11,13,48,9.155,0.7114,-0.4894,0.5043,0.0065
-0.101,-0.247,-0.084,10.9,149.1,2.1,0,2018,5,11,13,48,9.176,0.721,-0.4759,0.5035,-0.0021
-0.136,0.021,-0.025,16.3,163.7,3.5,0,2018,5,11,13,48,9.18,0.7359,-0.4551,0.5009,-0.016
-0.194,0.188,0.226,9.6,92.2,5.3,0,2018,5,11,13,48,9.219,0.7474,-0.4386,0.4981,-0.0269
-0.199,-0.046,0.401,-14.6,14.9,3.7,0,2018,5,11,13,48,9.24,0.7508,-0.4326,0.4979,-0.0318
-0.077,-0.129,0.299,-36.6,-35.4,-3,0,2018,5,11,13,48,9.244,0.7474,-0.4344,0.5015,-0.0321
-0.012,-0.035,0.439,-59,-74.5,-10.8,0,2018,5,11,13,48,9.262,0.7392,-0.4404,0.5085,-0.03
-0.029,0.092,0.472,-86.2,-120.6,-8.8,0,2018,5,11,13,48,9.278,0.725,-0.4516,0.5192,-0.0253
-0.027,0.219,0.49,-113.7,-206.4,-17.7,0,2018,5,11,13,48,9.317,0.7029,-0.4703,0.5332,-0.0168
-0.045,0.341,0.259,-130.4,-244.4,-15.5,0,2018,5,11,13,48,9.336,0.6718,-0.4961,0.5499,-0.0031
0.007,0.465,0.008,-139,-257.6,-14,0,2018,5,11,13,48,9.34,0.6361,-0.5236,0.5665,0.0109
0.083,0.508,-0.236,-124.1,-275.6,-3.3,0,2018,5,11,13,48,9.359,0.5977,-0.5515,0.5811,0.0259
0.162,0.088,-0.213,-101,-205.1,6.6,0,2018,5,11,13,48,9.396,0.5615,-0.578,0.5907,0.0401
0.133,0.147,-0.136,-81.5,-120.7,18.9,0,2018,5,11,13,48,9.419,0.5362,-0.595,0.5968,0.0458
0.123,-0.088,-0.169,-62.2,-51.8,22.2,0,2018,5,11,13,48,9.423,0.5195,-0.6063,0.6003,0.0453
0.126,-0.136,-0.247,-40.1,9.3,18.5,0,2018,5,11,13,48,9.489,0.5113,-0.6109,0.603,0.04
0.144,-0.113,-0.273,-13.8,69.5,15.7,1023,2018,5,11,13,48,9.494,0.512,-0.6097,0.6041,0.0314
0.092,-0.08,-0.156,3.9,133.4,13.3,1023,2018,5,11,13,48,9.498,0.5217,-0.6023,0.6038,0.0187
0.096,0.038,-0.118,13.8,194.3,17,1023,2018,5,11,13,48,9.502,0.5394,-0.5886,0.602,0.0012
0.02,0.185,0.032,8.1,200.3,17.9,1023,2018,5,11,13,48,9.518,0.5612,-0.5707,0.599,-0.0207
0.042,0.196,0.08,1.8,156.5,16.7,1023,2018,5,11,13,48,9.554,0.579,-0.5549,0.5959,-0.0399
0.003,0.186,0.145,-7.1,113.3,19.7,1023,2018,5,11,13,48,9.574,0.5915,-0.543,0.5932,-0.056
-0.004,0.119,0.105,-16.4,80,21.1,1023,2018,5,11,13,48,9.58,0.5988,-0.5354,0.5916,-0.0688
0.014,-0.037,-0.012,-17.7,91.5,22.8,0,2018,5,11,13,48,9.616,0.6047,-0.5285,0.5902,-0.0808
0.031,-0.044,-0.033,-14,129.9,26,0,2018,5,11,13,48,9.637,0.6128,-0.5191,0.5879,-0.0962
0.046,0.049,-0.034,-7.6,154.9,29.8,0,2018,5,11,13,48,9.641,0.6244,-0.5058,0.5839,-0.1146
0.063,0.199,-0.01,-1.4,127.3,30.8,0,2018,5,11,13,48,9.678,0.6359,-0.4927,0.579,-0.1321
0.032,0.265,0.085,-1.2,75.3,35.5,0,2018,5,11,13,48,9.699,0.6438,-0.4846,0.5737,-0.146
0.029,0.177,0.132,-4.8,16.6,35.7,0,2018,5,11,13,48,9.702,0.6464,-0.4832,0.5698,-0.1542
0.072,0.118,0.108,-8.4,-34.6,29.6,0,2018,5,11,13,48,9.74,0.6442,-0.4874,0.568,-0.1571
0.076,0.195,0.182,-13,-89.5,27.7,0,2018,5,11,13,48,9.744,0.6374,-0.4966,0.5683,-0.1549
0.072,0.238,0.089,-18,-163.8,25.2,0,2018,5,11,13,48,9.761,0.6238,-0.513,0.5711,-0.1461
0.064,0.15,0.037,-19.5,-210.4,23.8,0,2018,5,11,13,48,9.8,0.604,-0.5354,0.5755,-0.1309
0.022,0.167,0.084,-23.2,-226.7,29.4,0,2018,5,11,13,48,9.82,0.5806,-0.5599,0.5801,-0.1126
0.014,0.06,0.073,-29.1,-216.7,34.4,0,2018,5,11,13,48,9.824,0.5557,-0.5844,0.5835,-0.095
0.037,-0.075,-0.03,-32.4,-185.2,34.6,0,2018,5,11,13,48,9.844,0.5313,-0.6064,0.5858,-0.081
0.071,-0.257,-0.086,-27.9,-138.2,30.7,0,2018,5,11,13,48,9.864,0.5105,-0.6243,0.5869,-0.0711
0.068,-0.241,0.029,-23.6,-95.9,22.9,0,2018,5,11,13,48,9.903,0.4953,-0.6367,0.5872,-0.065
0.068,-0.23,0.055,-23.3,-65.8,16.4,0,2018,5,11,13,48,9.923,0.4837,-0.6454,0.5879,-0.0612
0.066,-0.18,0.066,-23.5,-35.5,9,0,2018,5,11,13,48,9.927,0.4755,-0.6505,0.589,-0.0598
0.067,-0.131,0.062,-23.2,-7.9,5.2,0,2018,5,11,13,48,9.948,0.4713,-0.6525,0.5901,-0.061
0.068,-0.106,0.032,-21.3,13.5,2.7,0,2018,5,11,13,48,9.967,0.4703,-0.652,0.591,-0.0645
0.073,-0.097,-0.043,-18.3,24.2,-0.5,0,2018,5,11,13,48,9.982,0.471,-0.6501,0.5921,-0.069
0.094,-0.207,-0.096,-9.2,56.4,-3.9,0,2018,5,11,13,48,10.022,0.4742,-0.6465,0.5928,-0.0747
0.061,-0.246,-0.063,0.2,107.8,-5.3,0,2018,5,11,13,48,10.041,0.4832,-0.6392,0.5923,-0.0836
0.062,-0.255,-0.065,6.9,170,-8.8,0,2018,5,11,13,48,10.045,0.4998,-0.6265,0.5899,-0.0975
0.071,-0.144,-0.093,13.1,210.8,-12.7,0,2018,5,11,13,48,10.082,0.5224,-0.6082,0.5862,-0.1155
0.088,0.007,-0.019,15,216.4,-11.8,0,2018,5,11,13,48,10.102,0.5468,-0.5871,0.5815,-0.1345
0.072,0.109,0.027,12,203.3,-10.3,1023,2018,5,11,13,48,10.107,0.5697,-0.5655,0.5764,-0.1524
0.025,0.156,0.049,9.7,191.6,-8.5,1023,2018,5,11,13,48,10.126,0.5906,-0.5444,0.571,-0.1693
0.01,0.22,0.053,9.2,166.1,-6.3,1023,2018,5,11,13,48,10.146,0.6089,-0.5244,0.5655,-0.1848
-0.019,0.397,0.095,8.4,93.3,-3.6,1023,2018,5,11,13,48,10.167,0.6221,-0.5099,0.5606,-0.1961
-0.037,0.517,0.212,0,-27.3,2.9,1023,2018,5,11,13,48,10.187,0.6256,-0.5065,0.5589,-0.1987
-0.05,0.486,0.19,-12.7,-151.8,9.5,1023,2018,5,11,13,48,10.225,0.6165,-0.517,0.5622,-0.1906
-0.029,0.383,0.144,-26.5,-244,17.2,1023,2018,5,11,13,48,10.229,0.5953,-0.5394,0.5696,-0.1733
-0.024,0.139,-0.021,-33.4,-258.1,23.4,1023,2018,5,11,13,48,10.245,0.5666,-0.5668,0.5784,-0.1518
0.013,0.067,-0.151,-32,-234.5,22.3,0,2018,5,11,13,48,10.285,0.5375,-0.5922,0.5855,-0.1321
0.079,0,-0.216,-27,-202.9,23.6,0,2018,5,11,13,48,10.303,0.511,-0.614,0.5904,-0.1144
0.071,-0.053,-0.097,-20.3,-139.6,29.4,0,2018,5,11,13,48,10.308,0.4894,-0.6313,0.5929,-0.1013
0.077,-0.096,-0.021,-17.1,-87.9,32.6,0,2018,5,11,13,48,10.327,0.4745,-0.6437,0.5929,-0.0941
0.069,-0.276,0.002,-12.6,-21.5,30.9,0,2018,5,11,13,48,10.347,0.4669,-0.6511,0.591,-0.0931
0.072,-0.445,-0.076,-6.2,56,20.5,0,2018,5,11,13,48,10.367,0.4674,-0.6521,0.5886,-0.0981
0.087,-0.472,-0.025,0,141.5,6,0,2018,5,11,13,48,10.388,0.4786,-0.645,0.5854,-0.1097
0.113,-0.429,-0.025,4,209.8,-8.5,0,2018,5,11,13,48,10.426,0.499,-0.6296,0.5816,-0.1273
0.137,-0.217,-0.065,8.2,273.9,-12.4,0,2018,5,11,13,48,10.431,0.5268,-0.6066,0.576,-0.1504
0.13,0.04,-0.112,14.1,315.5,-9.9,0,2018,5,11,13,48,10.447,0.559,-0.5775,0.5678,-0.1774
0.086,0.21,-0.068,19.7,330.9,-2.9,0,2018,5,11,13,48,10.484,0.593,-0.5446,0.5557,-0.2068
0.053,0.389,0.037,23.4,279,-1.1,0,2018,5,11,13,48,10.504,0.6242,-0.5122,0.5413,-0.2342
0.028,0.49,0.131,18.4,169.3,6.3,0,2018,5,11,13,48,10.509,0.6457,-0.4886,0.5293,-0.2532
-0.013,0.403,0.157,10.6,63.6,14.7,0,2018,5,11,13,48,10.526,0.6564,-0.4773,0.5214,-0.2633
-0.018,0.25,0.113,3.9,-36.2,15.8,0,2018,5,11,13,48,10.548,0.657,-0.4782,0.5191,-0.2647
-0.046,0.236,0.126,-2.7,-105.4,14.3,0,2018,5,11,13,48,10.568,0.6507,-0.4877,0.5209,-0.2593
-0.006,0.127,0.054,-10.2,-172,11.5,0,2018,5,11,13,48,10.606,0.6378,-0.5042,0.5266,-0.2481
0.051,-0.036,-0.035,-13.5,-189.5,11.8,0,2018,5,11,13,48,10.627,0.6194,-0.5252,0.535,-0.2326
0.014,0.075,0.017,-14.9,-183.9,11,0,2018,5,11,13,48,10.631,0.6005,-0.5452,0.5426,-0.2178
-0.021,0.258,0.085,-23.1,-223.7,9.2,0,2018,5,11,13,48,10.645,0.579,-0.5661,0.5511,-0.201
0.051,0.151,-0.053,-28.6,-241.5,14.4,0,2018,5,11,13,48,10.685,0.5523,-0.5895,0.5608,-0.1812
0.053,0.012,-0.054,-24.3,-210.3,20.7,0,2018,5,11,13,48,10.705,0.5249,-0.612,0.5686,-0.1627
0.02,0.073,0.019,-22,-163.7,26.5,0,2018,5,11,13,48,10.709,0.5016,-0.6305,0.5732,-0.1487
0.042,0.193,0.073,-24.9,-143.8,32.8,0,2018,5,11,13,48,10.747,0.4817,-0.6458,0.5759,-0.1385
0.022,0.227,-0.002,-31.7,-161.3,37.9,0,2018,5,11,13,48,10.768,0.4611,-0.661,0.5775,-0.1293
-0.006,-0.001,-0.024,-32.7,-166.5,44.2,1023,2018,5,11,13,48,10.772,0.4369,-0.6779,0.579,-0.119
0.014,-0.148,-0.067,-31.3,-132.5,40.7,1023,2018,5,11,13,48,10.79,0.4148,-0.6928,0.5791,-0.1112
0.076,-0.256,-0.127,-23.4,-84.8,33.4,1023,2018,5,11,13,48,10.808,0.3986,-0.7037,0.5783,-0.1066
0.132,-0.278,-0.092,-12.3,-43.6,27.8,1023,2018,5,11,13,48,10.848,0.3892,-0.7105,0.5767,-0.1048
0.113,-0.307,0.053,-6.2,-6.2,22.4,1023,2018,5,11,13,48,10.867,0.3849,-0.7145,0.5746,-0.105
0.098,-0.28,0.175,-5.4,46.8,18.1,1023,2018,5,11,13,48,10.871,0.3868,-0.715,0.5719,-0.1091
0.076,-0.195,0.217,-9.3,98.6,13.4,1023,2018,5,11,13,48,10.91,0.3951,-0.7113,0.569,-0.1183
0.061,-0.153,0.118,-14.7,132.7,9.8,0,2018,5,11,13,48,10.915,0.4083,-0.7039,0.5658,-0.1322
0.062,-0.231,-0.043,-14.5,174,9.1,0,2018,5,11,13,48,10.931,0.4262,-0.693,0.5616,-0.1501
0.042,-0.199,-0.156,-8.5,211.5,6.9,0,2018,5,11,13,48,10.967,0.4484,-0.6786,0.5558,-0.1713
0.058,-0.139,-0.189,0.4,241.4,4.9,0,2018,5,11,13,48,10.987,0.4742,-0.6609,0.5481,-0.1942
0.052,-0.066,-0.329,14,239.1,3.2,0,2018,5,11,13,48,10.991,0.5024,-0.6409,0.5383,-0.2165
0.05,0.037,-0.285,28.2,235.9,8.6,0,2018,5,11,13,48,11.011,0.5304,-0.621,0.5263,-0.2364
0.019,0.271,-0.029,31,179.3,8.7,0,2018,5,11,13,48,11.031,0.5557,-0.6029,0.5132,-0.2534
-0.06,0.494,0.368,16.4,20.1,-0.5,0,2018,5,11,13,48,11.068,0.5684,-0.5943,0.5058,-0.2601
-0.061,0.191,0.356,-8.9,-121.2,-12.7,0,2018,5,11,13,48,11.088,0.5627,-0.5999,0.5089,-0.2537
0.052,-0.074,0.193,-23.6,-145.7,-21.8,0,2018,5,11,13,48,11.092,0.5468,-0.6113,0.5189,-0.2407
-0.033,0.201,-0.017,-28,-158.2,-21,0,2018,5,11,13,48,11.113,0.5292,-0.6222,0.5297,-0.2278
0.173,0.107,-0.105,-24,-188.8,-26.5,0,2018,5,11,13,48,11.133,0.5082,-0.635,0.5417,-0.2118
0.074,0.061,-0.071,-16.5,-171.2,-16,0,2018,5,11,13,48,11.149,0.4872,-0.648,0.5519,-0.1951
0.127,-0.07,0.009,-14,-141.5,-18.5,0,2018,5,11,13,48,11.171,0.468,-0.6589,0.5608,-0.179
0.051,-0.05,0.126,-13.6,-59.9,-5.5,0,2018,5,11,13,48,11.192,0.4552,-0.6655,0.5666,-0.1692
0.044,-0.089,0.162,-16.6,28.2,1.4,0,2018,5,11,13,48,11.211,0.4524,-0.6659,0.5682,-0.1696
0.042,-0.095,0.127,-18.5,118.1,9.5,0,2018,5,11,13,48,11.231,0.4593,-0.6599,0.5667,-0.1795
0.039,-0.063,0.039,-16.3,196.1,15.4,0,2018,5,11,13,48,11.25,0.4763,-0.6471,0.561,-0.1988
-0.009,0.082,0.042,-19.1,203.5,19.1,0,2018,5,11,13,48,11.291,0.4974,-0.6304,0.5527,-0.2225
0.046,0.004,-0.104,-13.5,201.1,25.3,0,2018,5,11,13,48,11.311,0.5165,-0.6142,0.5438,-0.245
0.044,0.059,-0.1,-1.5,202.9,31.1,0,2018,5,11,13,48,11.316,0.5357,-0.5982,0.5327,-0.2669
0.03,0.091,-0.065,8.3,169.8,35.2,0,2018,5,11,13,48,11.33,0.5537,-0.5836,0.5199,-0.2868
-0.04,0.269,0.262,0.9,87.3,38.9,0,2018,5,11,13,48,11.367,0.5654,-0.5747,0.5092,-0.301
-0.086,0.046,0.354,-20.7,1,31.9,0,2018,5,11,13,48,11.388,0.5669,-0.5732,0.5043,-0.3092
-0.006,-0.128,0.119,-35.9,-52.5,16.4,0,2018,5,11,13,48,11.392,0.5601,-0.5767,0.5064,-0.3114
0.056,-0.003,-0.005,-38.2,-71.2,8.9,0,2018,5,11,13,48,11.413,0.5502,-0.5816,0.5122,-0.3106
0.079,-0.029,0.014,-36.6,-67.6,13.5,1023,2018,5,11,13,48,11.433,0.5392,-0.5872,0.5188,-0.3084
0.042,0.048,0.001,-34.3,-37.8,20.3,1023,2018,5,11,13,48,11.47,0.5299,-0.5917,0.5234,-0.3082
0.065,0.116,0.001,-30.2,2.4,25.7,1023,2018,5,11,13,48,11.491,0.5243,-0.5934,0.5251,-0.3115
0.094,0.28,0.046,-27.6,15.3,35.6,1023,2018,5,11,13,48,11.495,0.5213,-0.5935,0.5242,-0.3178
0.126,0.354,0.108,-26.1,20.5,51.6,1023,2018,5,11,13,48,11.515,0.5185,-0.5943,0.5211,-0.3259
0.106,0.272,0.065,-23.4,22.5,67.5,1023,2018,5,11,13,48,11.536,0.5154,-0.5962,0.5157,-0.3358
0.049,0.134,0.111,-21.4,16.8,73.2,1023,2018,5,11,13,48,11.573,0.5117,-0.5992,0.5093,-0.3456
0.107,0.11,0.093,-22.4,20.4,79.3,0,2018,5,11,13,48,11.593,0.5073,-0.6028,0.5023,-0.356
0.127,0.139,0.102,-21.7,32.2,88.3,0,2018,5,11,13,48,11.597,0.5033,-0.6062,0.4935,-0.368
0.062,-0.125,0.009,-18.5,25.8,84.3,0,2018,5,11,13,48,11.615,0.4995,-0.6095,0.4843,-0.3798
0.022,-0.321,-0.01,-13.9,34.6,74.4,0,2018,5,11,13,48,11.634,0.4966,-0.6122,0.475,-0.3909
0.027,-0.284,-0.006,-11.9,22.9,58.1,0,2018,5,11,13,48,11.654,0.4947,-0.6139,0.467,-0.4002
0,-0.304,0.022,-10.6,11,47.4,0,2018,5,11,13,48,11.692,0.4923,-0.6158,0.4611,-0.407
-0.068,-0.363,0.126,-14.1,25.1,36.9,0,2018,5,11,13,48,11.711,0.491,-0.6163,0.4557,-0.4137
-0.095,-0.36,0.115,-19.1,37.6,18.2,0,2018,5,11,13,48,11.714,0.4917,-0.6142,0.4515,-0.4207
-0.081,-0.398,0.011,-19.8,41.2,-2.1,0,2018,5,11,13,48,11.746,0.4942,-0.6097,0.4488,-0.4271
-0.011,-0.286,-0.028,-15.4,25.5,-18.8,0,2018,5,11,13,48,11.767,0.4978,-0.6043,0.4485,-0.4309
0.012,-0.2,-0.02,-11.6,-8.3,-29.6,0,2018,5,11,13,48,11.777,0.4996,-0.6007,0.4518,-0.4304
-0.034,-0.157,0.007,-9.3,-22.9,-38.5,0,2018,5,11,13,48,11.815,0.4997,-0.5987,0.4575,-0.4271
-0.043,-0.201,-0.046,-3.9,-15.2,-46,0,2018,5,11,13,48,11.819,0.5001,-0.5967,0.4638,-0.4225
-0.139,-0.086,0.034,-4.1,-19.8,-52.8,0,2018,5,11,13,48,11.836,0.5017,-0.5941,0.4699,-0.4176
-0.271,0.144,0.15,-14.1,-40.4,-48.6,0,2018,5,11,13,48,11.856,0.5021,-0.5916,0.4779,-0.4114
-0.317,0.452,0.315,-39.6,-105.4,-37.8,0,2018,5,11,13,48,11.875,0.4958,-0.5922,0.4899,-0.4041
-0.324,0.42,0.234,-64.5,-167,-27.6,0,2018,5,11,13,48,11.896,0.4792,-0.5976,0.5075,-0.3943
-0.264,0.319,0.1,-81.6,-178.7,-16.1,0,2018,5,11,13,48,11.918,0.4555,-0.6051,0.528,-0.3839
-0.226,0.236,0.072,-94.1,-148.2,-4.4,0,2018,5,11,13,48,11.938,0.4306,-0.611,0.5468,-0.377
-0.226,0.165,0.062,-105.7,-108.6,9.9,0,2018,5,11,13,48,11.958,0.4073,-0.614,0.562,-0.3755
-0.123,0.056,0.029,-114.9,-77.5,23.3,0,2018,5,11,13,48,11.994,0.3847,-0.615,0.5743,-0.3792
0,-0.116,0,-117,26.2,43.3,0,2018,5,11,13,48,12.015,0.3675,-0.6126,0.5797,-0.3917
0.111,-0.184,-0.083,-111.6,175.8,66.4,0,2018,5,11,13,48,12.019,0.3632,-0.6033,0.5739,-0.4178
0.187,-0.1,-0.246,-95.6,311.1,85.8,0,2018,5,11,13,48,12.036,0.3731,-0.5868,0.5534,-0.4582
0.221,-0.054,-0.384,-67.5,377.3,101.3,0,2018,5,11,13,48,12.056,0.393,-0.5652,0.5195,-0.5059
0.261,-0.045,-0.429,-35.4,385.4,117.8,1023,2018,5,11,13,48,12.094,0.4153,-0.5432,0.4771,-0.552
0.318,-0.132,-0.368,-3.2,398.1,126.1,1023,2018,5,11,13,48,12.114,0.438,-0.5219,0.4275,-0.594
0.239,0.072,-0.104,10.3,375.8,126.2,1023,2018,5,11,13,48,12.118,0.4597,-0.5008,0.3739,-0.6308
0.195,0.124,0.118,5.9,304.4,115.7,1023,2018,5,11,13,48,12.14,0.4759,-0.4812,0.3241,-0.6609
0.165,0.116,0.236,6,186.5,89,1023,2018,5,11,13,48,12.159,0.4845,-0.4667,0.2862,-0.6821
0.258,0.198,0.191,6.8,12,64.9,1023,2018,5,11,13,48,12.196,0.4839,-0.4628,0.2675,-0.6928
0.309,0.006,-0.041,11.1,-124.3,47.2,1023,2018,5,11,13,48,12.216,0.4726,-0.4717,0.2703,-0.6935
0.348,-0.121,-0.207,23,-198.1,33,1023,2018,5,11,13,48,12.22,0.4547,-0.4892,0.2859,-0.687
0.357,-0.234,-0.184,33.3,-199,20.3,0,2018,5,11,13,48,12.24,0.4351,-0.51,0.3059,-0.6759
0.366,-0.251,-0.114,42,-133.6,13.3,0,2018,5,11,13,48,12.279,0.4201,-0.5278,0.3212,-0.6645
0.312,-0.185,-0.016,46.2,-49.9,9.2,0,2018,5,11,13,48,12.299,0.4132,-0.5401,0.3273,-0.6559
0.296,-0.068,0.098,44,18.6,5.3,0,2018,5,11,13,48,12.304,0.414,-0.5465,0.3247,-0.6514
0.268,0.088,0.181,37.8,51.8,5.7,0,2018,5,11,13,48,12.318,0.4193,-0.5487,0.317,-0.65
0.239,0.071,0.205,30.4,71.5,8.5,0,2018,5,11,13,48,12.353,0.4263,-0.5483,0.3066,-0.6507
0.176,-0.063,0.229,22.3,81.8,5.7,0,2018,5,11,13,48,12.375,0.4343,-0.5459,0.2951,-0.6528
0.095,-0.343,0.261,12.6,87.5,-5.8,0,2018,5,11,13,48,12.379,0.4433,-0.5414,0.2841,-0.6553
0.005,-0.473,0.327,-1,104.8,-22.2,0,2018,5,11,13,48,12.418,0.4543,-0.5339,0.2741,-0.6582
-0.037,-0.405,0.323,-16.8,122,-38.4,0,2018,5,11,13,48,12.439,0.4684,-0.522,0.2644,-0.6618
-0.118,-0.377,0.289,-32,102.4,-55.8,0,2018,5,11,13,48,12.443,0.4833,-0.5073,0.2573,-0.6654
-0.143,-0.217,0.251,-44.4,45.7,-72.5,0,2018,5,11,13,48,12.479,0.4963,-0.4926,0.257,-0.6669
-0.185,-0.059,0.254,-57.4,-60.5,-90.2,0,2018,5,11,13,48,12.498,0.5031,-0.4834,0.269,-0.6639
-0.232,-0.458,0.164,-71.1,-117.6,-105.4,0,2018,5,11,13,48,12.502,0.5027,-0.4797,0.2938,-0.6562
-0.181,-0.631,0,-74,-109.9,-129.9,0,2018,5,11,13,48,12.521,0.5024,-0.4757,0.3235,-0.6453
-0.196,-0.469,-0.167,-68.4,-112.1,-162.9,0,2018,5,11,13,48,12.54,0.5057,-0.4687,0.3544,-0.6316
-0.163,-0.309,-0.288,-54,-127.7,-188.6,0,2018,5,11,13,48,12.576,0.5115,-0.461,0.3872,-0.613
-0.141,-0.088,-0.276,-35.2,-150.2,-202.8,0,2018,5,11,13,48,12.578,0.5182,-0.4548,0.4214,-0.5889
-0.081,0.09,-0.255,-17,-170.4,-205.9,0,2018,5,11,13,48,12.598,0.5243,-0.4511,0.4562,-0.5598
-0.071,0.428,-0.125,-1,-198.8,-205.5,0,2018,5,11,13,48,12.618,0.529,-0.45,0.4909,-0.5258
-0.039,0.932,0.027,8.3,-268.6,-186.1,0,2018,5,11,13,48,12.658,0.5285,-0.4546,0.5265,-0.4864
-0.039,1.245,0.164,14.7,-329.3,-143,0,2018,5,11,13,48,12.68,0.5188,-0.4677,0.5631,-0.4413
-0.052,1.788,0.638,-4.5,-329,-70.2,0,2018,5,11,13,48,12.684,0.4998,-0.4871,0.5958,-0.3973
-0.008,2.41,1.034,-41,-343.8,20.3,0,2018,5,11,13,48,12.701,0.4695,-0.5117,0.6219,-0.3615
-0.02,1.888,1.049,-85.6,-410.2,109.2,0,2018,5,11,13,48,12.721,0.4244,-0.5447,0.6425,-0.3318
-0.268,0,0.728,-124,-403.8,149.9,1023,2018,5,11,13,48,12.738,0.3628,-0.5834,0.6612,-0.3011
0.224,-1.774,0.544,-174.8,-38.3,160,1023,2018,5,11,13,48,12.778,0.3119,-0.6076,0.6664,-0.2988
0.311,-2.163,-1.268,-118.2,507.8,166.4,1023,2018,5,11,13,48,12.782,0.3107,-0.6045,0.6429,-0.353
1.157,-1.461,-2.777,-1.9,1114.1,180,1023,2018,5,11,13,48,12.804,0.3782,-0.57,0.5689,-0.4564
1.251,-0.318,-2.837,121.8,1389.7,181.4,1023,2018,5,11,13,48,12.823,0.4847,-0.4971,0.4308,-0.5764
-0.441,1.287,-1.737,221.5,1559.7,68.7,1023,2018,5,11,13,48,12.844,0.5989,-0.3745,0.2297,-0.6694
-1.344,3.633,2.363,110,545.2,10.2,1023,2018,5,11,13,48,12.863,0.6595,-0.2823,0.0813,-0.6918
-1.034,-0.051,1.831,-59.5,-288.2,-36.9,0,2018,5,11,13,48,12.883,0.6635,-0.2773,0.0726,-0.6909
-0.076,-1.643,-0.077,-99.4,-495,-74.5,0,2018,5,11,13,48,12.905,0.6461,-0.315,0.1386,-0.6811
0.066,-1.463,-0.415,-35.2,-390.8,-116,0,2018,5,11,13,48,12.941,0.6293,-0.3543,0.2049,-0.6606
-0.071,-0.815,-0.086,-13.6,-223.1,-146.7,0,2018,5,11,13,48,12.962,0.6245,-0.3794,0.2498,-0.6352
-0.062,-0.264,0.064,-18.5,-95.9,-165.5,0,2018,5,11,13,48,12.966,0.6308,-0.3874,0.2791,-0.6115
-0.061,0.225,0.117,-25.3,-42.7,-163.9,0,2018,5,11,13,48,12.982,0.643,-0.3835,0.2987,-0.5917
-0.044,0.655,0.119,-26.8,-84.4,-152.3,0,2018,5,11,13,48,13.019,0.6539,-0.3788,0.318,-0.5724
-0.084,0.666,0.065,-29.5,-161.6,-139.2,0,2018,5,11,13,48,13.041,0.6586,-0.3816,0.343,-0.5503
-0.084,0.902,0.084,-28.3,-268.1,-124.1,0,2018,5,11,13,48,13.045,0.6549,-0.3952,0.3753,-0.5232
-0.053,0.775,0,-26.9,-344.9,-100.2,0,2018,5,11,13,48,13.063,0.6406,-0.4205,0.4143,-0.4908
-0.002,0.649,-0.021,-19.7,-346.6,-70.9,0,2018,5,11,13,48,13.082,0.6194,-0.4507,0.4524,-0.4564
-0.011,0.891,0.056,-16.3,-362.8,-40.5,0,2018,5,11,13,48,13.104,0.5941,-0.482,0.4853,-0.423
0.054,0.913,0.132,-23.6,-355.1,11,0,2018,5,11,13,48,13.123,0.562,-0.5161,0.5143,-0.3913
0.059,0.809,0.175,-36.6,-303.6,64.2,0,2018,5,11,13,48,13.162,0.5262,-0.549,0.5352,-0.3674
0.007,0.544,0.196,-47.7,-239.6,108,0,2018,5,11,13,48,13.183,0.49,-0.5788,0.5474,-0.3535
-0.035,-0.067,0.115,-53.4,-142.6,139.9,0,2018,5,11,13,48,13.187,0.4576,-0.6039,0.55,-0.351
0.025,-0.523,0.014,-52.1,37,158,0,2018,5,11,13,48,13.203,0.4379,-0.6189,0.5408,-0.364
0.236,-0.87,-0.438,-16.8,317.3,169.8,0,2018,5,11,13,48,13.223,0.4433,-0.6177,0.5139,-0.3969
0.433,-0.527,-0.608,51.2,624.5,174,0,2018,5,11,13,48,13.243,0.4831,-0.5948,0.4584,-0.4501
0.328,-0.15,-0.919,128.2,803.7,158.5,0,2018,5,11,13,48,13.281,0.5486,-0.5493,0.3715,-0.509
0.084,0.47,-0.624,155.4,890,135.2,0,2018,5,11,13,48,13.301,0.6208,-0.4833,0.2622,-0.5586
-0.14,1.082,0.23,145.5,734,100.7,0,2018,5,11,13,48,13.306,0.6795,-0.4071,0.1506,-0.5914
-0.573,1.139,1.655,104.7,176.9,48.2,0,2018,5,11,13,48,13.325,0.7053,-0.3673,0.0815,-0.6007
-0.445,-0.078,1.35,-1.5,-301.3,-0.4,0,2018,5,11,13,48,13.345,0.6975,-0.3841,0.0843,-0.599
0.025,-0.636,0.238,-46.7,-498.1,-30.7,0,2018,5,11,13,48,13.365,0.6681,-0.4316,0.1341,-0.591
0.177,-0.891,-0.271,-39.8,-450.8,-47.1,1023,2018,5,11,13,48,13.384,0.632,-0.4811,0.1921,-0.5762
0.121,-0.744,-0.262,-27.1,-308.1,-68.8,1023,2018,5,11,13,48,13.425,0.6038,-0.5163,0.2383,-0.5585
0.16,-0.491,-0.113,-15.6,-159.7,-82.6,1023,2018,5,11,13,48,13.429,0.5894,-0.5345,0.2697,-0.5422
0.169,-0.097,0.034,-3.8,-45.6,-85.6,1023,2018,5,11,13,48,13.445,0.5883,-0.539,0.2875,-0.5296
0.158,0.375,0.159,2.2,-25,-79.9,1023,2018,5,11,13,48,13.465,0.5936,-0.5374,0.2977,-0.5197
0.172,0.632,0.228,2.9,-80.5,-65.4,1023,2018,5,11,13,48,13.486,0.5955,-0.5392,0.3092,-0.5087
0.18,0.493,0.268,5.2,-118.3,-45.5,1023,2018,5,11,13,48,13.505,0.5909,-0.5472,0.323,-0.4968
0.256,0.393,0.22,11.5,-109,-23.8,1023,2018,5,11,13,48,13.526,0.5834,-0.5578,0.3355,-0.4856
0.313,0.242,0.103,19,-71.8,-2.2,0,2018,5,11,13,48,13.566,0.5764,-0.5676,0.343,-0.4773
0.317,0.129,0.059,31.8,3.3,19.6,0,2018,5,11,13,48,13.585,0.5738,-0.5737,0.3424,-0.4735
0.241,0.042,0.105,41.2,95.9,40.9,0,2018,5,11,13,48,13.589,0.5788,-0.5734,0.3313,-0.4756
0.242,-0.012,0.108,46.5,196.9,55.3,0,2018,5,11,13,48,13.628,0.5923,-0.5644,0.3093,-0.4845
0.25,0.141,0.025,49.2,272.6,70.2,0,2018,5,11,13,48,13.633,0.6124,-0.5468,0.2779,-0.4986
0.3,0.225,-0.064,58.9,340.8,91.6,0,2018,5,11,13,48,13.648,0.6366,-0.5214,0.237,-0.5163
0.269,0.273,-0.025,70.6,371.8,110.2,0,2018,5,11,13,48,13.668,0.6616,-0.49,0.1871,-0.5357
0.164,0.344,0.105,74,319.6,115.3,0,2018,5,11,13,48,13.687,0.6817,-0.4592,0.136,-0.5529
0.134,0.412,0.232,73.6,202.8,120.5,0,2018,5,11,13,48,13.705,0.6922,-0.4377,0.0922,-0.5663
0.133,0.277,0.269,66.4,91.7,131.1,0,2018,5,11,13,48,13.726,0.6912,-0.4292,0.0601,-0.5782
0.083,0.165,0.144,56.6,38.4,143.3,0,2018,5,11,13,48,13.744,0.6822,-0.4293,0.0365,-0.5906
0.039,0.048,0.055,49.2,37.1,156.4,0,2018,5,11,13,48,13.782,0.6693,-0.4312,0.0153,-0.6047
0.006,-0.056,0.139,40.4,69.6,170,0,2018,5,11,13,48,13.801,0.6558,-0.4299,-0.0079,-0.6204
-0.099,-0.094,0.2,28.1,108,185.5,0,2018,5,11,13,48,13.808,0.6429,-0.4223,-0.035,-0.638
-0.2,-0.143,0.162,16.8,116.5,195.9,0,2018,5,11,13,48,13.848,0.6292,-0.4107,-0.0645,-0.6566
-0.256,-0.164,0.196,5.1,137.2,209.1,0,2018,5,11,13,48,13.867,0.614,-0.396,-0.0949,-0.676
-0.316,-0.056,0.142,-1.8,149.8,214.1,0,2018,5,11,13,48,13.871,0.5979,-0.3772,-0.1276,-0.6956
-0.301,0.092,0.016,1.1,111.6,207.5,0,2018,5,11,13,48,13.887,0.5802,-0.3582,-0.158,-0.7141
-0.321,0.015,-0.028,9.2,48.1,184.3,0,2018,5,11,13,48,13.908,0.5602,-0.3449,-0.1807,-0.731
-0.325,-0.212,0.096,12.9,-5.9,147.5,0,2018,5,11,13,48,13.929,0.5392,-0.3396,-0.1939,-0.7458
-0.232,-0.392,0.179,3,-10.2,100.6,0,2018,5,11,13,48,13.966,0.5221,-0.3375,-0.2004,-0.7571
-0.114,-0.317,0.166,-11.9,1.3,46.4,0,2018,5,11,13,48,13.987,0.5125,-0.3346,-0.2036,-0.764
-0.053,-0.154,-0.068,-22.4,15.3,2.4,0,2018,5,11,13,48,13.992,0.5106,-0.3309,-0.2043,-0.7668
0.021,-0.183,-0.144,-26.4,39.5,-35.3,0,2018,5,11,13,48,14.01,0.5153,-0.3256,-0.2048,-0.7657
0.023,-0.178,-0.124,-28.2,73.1,-69.6,0,2018,5,11,13,48,14.049,0.5267,-0.3187,-0.2068,-0.7603
0.03,-0.01,-0.094,-17.9,58.7,-84.9,1023,2018,5,11,13,48,14.07,0.5414,-0.312,-0.2106,-0.7517
0.03,0.29,-0.022,-17.9,-49.3,-88,1023,2018,5,11,13,48,14.074,0.554,-0.3131,-0.2046,-0.7437
0.143,0.319,-0.049,-22.1,-119.9,-63.6,1023,2018,5,11,13,48,14.092,0.5594,-0.3219,-0.1868,-0.7405
0.221,0.14,-0.02,-16.2,-131.9,-30.3,1023,2018,5,11,13,48,14.111,0.5584,-0.3337,-0.1653,-0.7412
0.166,0.032,0.082,-7.8,-93.8,-9.9,1023,2018,5,11,13,48,14.131,0.5544,-0.3434,-0.1484,-0.7433
0.15,0.022,0.137,-6.6,-88,-3.6,1023,2018,5,11,13,48,14.167,0.5499,-0.3515,-0.1358,-0.7453
0.084,0.088,0.148,-9.3,-81.4,-0.9,1023,2018,5,11,13,48,14.189,0.5453,-0.3584,-0.1239,-0.7475
0.088,0.128,0.16,-12.3,-88.9,-1.7,0,2018,5,11,13,48,14.193,0.54,-0.3652,-0.1116,-0.7499
-0.006,0.079,0.142,-9.5,-62.3,-6.8,0,2018,5,11,13,48,14.209,0.5357,-0.3712,-0.1002,-0.7517
-0.053,-0.208,0.155,-11.7,13.6,-21.3,0,2018,5,11,13,48,14.248,0.536,-0.3724,-0.095,-0.7515
-0.015,-0.186,0.327,-16.6,57.3,-47.4,0,2018,5,11,13,48,14.267,0.5438,-0.3669,-0.0971,-0.7483
-0.048,-0.085,0.534,-33.7,34.8,-62.8,0,2018,5,11,13,48,14.271,0.5549,-0.36,-0.0973,-0.7435
-0.012,-0.079,0.639,-51.9,-5.8,-63,0,2018,5,11,13,48,14.292,0.5647,-0.354,-0.0908,-0.7398
-0.048,-0.421,0.733,-70,-23.4,-74.2,0,2018,5,11,13,48,14.312,0.5732,-0.3489,-0.0782,-0.7372
-0.166,-0.375,0.686,-86.3,-44.6,-105.8,0,2018,5,11,13,48,14.351,0.5839,-0.343,-0.0606,-0.7332
-0.172,-0.347,0.512,-98.8,-65.1,-133.6,0,2018,5,11,13,48,14.355,0.5968,-0.3379,-0.0362,-0.7267
-0.195,-0.387,0.445,-103.1,-37.4,-159.1,0,2018,5,11,13,48,14.371,0.6128,-0.3311,-0.01,-0.7173
-0.205,-0.259,0.379,-108.7,-5.6,-173.5,0,2018,5,11,13,48,14.392,0.6326,-0.3202,0.0137,-0.705
-0.166,-0.503,0.074,-106.3,17.1,-173.3,0,2018,5,11,13,48,14.412,0.6533,-0.3051,0.0328,-0.692
-0.41,-0.231,0.022,-101,89.3,-169.9,0,2018,5,11,13,48,14.432,0.676,-0.2841,0.0439,-0.6784
0.003,0.515,-0.149,-71.5,118.7,-145.2,0,2018,5,11,13,48,14.453,0.6998,-0.2592,0.0508,-0.6636
0.091,-0.001,-0.233,-103.7,139.5,-133.5,0,2018,5,11,13,48,14.489,0.7205,-0.2331,0.0572,-0.6505
0.027,0.09,-0.2,-95.6,163.8,-137.2,0,2018,5,11,13,48,14.509,0.7405,-0.2013,0.0576,-0.6385
0.133,0.197,-0.254,-99.8,159.2,-111.8,0,2018,5,11,13,48,14.513,0.7586,-0.1674,0.0566,-0.627
0.245,0.337,-0.351,-83.6,134.3,-89.9,0,2018,5,11,13,48,14.552,0.7727,-0.1369,0.0558,-0.6172
0.224,0.255,-0.335,-71.3,117,-73.2,0,2018,5,11,13,48,14.571,0.7833,-0.111,0.0549,-0.6091
0.256,0.293,-0.253,-64.3,114.7,-54.6,0,2018,5,11,13,48,14.575,0.7914,-0.0873,0.053,-0.6026
0.27,0.323,-0.278,-56.5,117.3,-35.7,0,2018,5,11,13,48,14.591,0.797,-0.0647,0.0499,-0.5983
0.292,0.369,-0.239,-48.2,139.7,-13.8,0,2018,5,11,13,48,14.612,0.8003,-0.0412,0.0441,-0.5964
0.035,0.456,-0.277,-41.6,140.4,20,0,2018,5,11,13,48,14.633,0.8004,-0.0162,0.035,-0.5982
-0.09,0.123,-0.41,-42.6,132.6,25.4,0,2018,5,11,13,48,14.652,0.7976,0.006,0.0274,-0.6025
0.14,0.049,-0.276,-33.8,174.8,30.9,1023,2018,5,11,13,48,14.674,0.7943,0.0319,0.0171,-0.6063
0.455,0.265,-0.209,20.3,212.2,28.2,1023,2018,5,11,13,48,14.694,0.7893,0.0599,-0.0036,-0.6109
0.227,0.654,-0.068,47.8,196.4,55.8,1023,2018,5,11,13,48,14.716,0.7821,0.0851,-0.0317,-0.6164
-0.309,0.348,-0.06,42.9,107.9,64.1,1023,2018,5,11,13,48,14.734,0.7724,0.1017,-0.0532,-0.6245
0.069,0.187,-0.089,47,59.1,63.6,1023,2018,5,11,13,48,14.754,0.7637,0.1076,-0.0663,-0.633
0.03,0.173,-0.021,52.1,56.2,75,1023,2018,5,11,13,48,14.794,0.7542,0.1104,-0.0781,-0.6424
0.291,0.583,-0.087,53.4,61.2,106.1,1023,2018,5,11,13,48,14.815,0.7422,0.1136,-0.0901,-0.6541
0.466,1.169,-0.334,71.7,20.3,166,1023,2018,5,11,13,48,14.819,0.7246,0.1147,-0.1005,-0.6719
0.166,0.998,-0.146,80,-16.3,255.9,0,2018,5,11,13,48,14.833,0.6977,0.1085,-0.1053,-0.7001
-0.648,0.079,0.258,74.3,22.4,302.7,0,2018,5,11,13,48,14.87,0.6607,0.1042,-0.1092,-0.7352
-0.956,-0.03,0.103,55.4,21,331.8,0,2018,5,11,13,48,14.892,0.617,0.105,-0.1145,-0.7714
-0.451,0.409,-0.481,65.2,-125.2,344.7,0,2018,5,11,13,48,14.896,0.5705,0.1002,-0.1075,-0.808
-1.219,-0.125,-0.492,47.7,-270.5,323.4,0,2018,5,11,13,48,14.915,0.5234,0.0763,-0.0781,-0.845
-0.413,-0.365,-0.514,36.1,-312.9,275.9,0,2018,5,11,13,48,14.952,0.4815,0.048,-0.0331,-0.8744
-0.128,-0.935,-0.053,-8.5,-261.4,188.9,0,2018,5,11,13,48,14.972,0.4472,0.0221,0.0133,-0.894
0.252,-1.016,-0.278,-3.7,-137.4,56.5,0,2018,5,11,13,48,14.976,0.429,0.0081,0.0458,-0.9021
-0.237,0.037,-0.043,-5.2,-4,29.8,0,2018,5,11,13,48,14.995,0.4235,0.003,0.0557,-0.9041
-0.116,-0.237,-0.054,-5.5,45.3,17,0,2018,5,11,13,48,15.032,0.4193,0.0059,0.0518,-0.9063
-0.066,-0.344,-0.058,-0.6,21.2,4.8,0,2018,5,11,13,48,15.051,0.4178,0.0089,0.0457,-0.9072
-0.107,-0.497,-0.063,-5.5,-44.4,0.4,0,2018,5,11,13,48,15.056,0.4174,0.0086,0.0477,-0.9074
-0.047,-0.333,-0.072,-8.5,-125.4,-10.5,0,2018,5,11,13,48,15.075,0.4182,0.0036,0.062,-0.9061
-0.005,-0.271,-0.116,-10.2,-191.2,-22.9,0,2018,5,11,13,48,15.094,0.4207,-0.0067,0.0885,-0.9028
0.067,-0.554,-0.192,-13.4,-187.6,-42.4,0,2018,5,11,13,48,15.133,0.4251,-0.0185,0.1203,-0.8969
0.14,-0.656,-0.253,-3.2,-136.2,-74.2,0,2018,5,11,13,48,15.153,0.4333,-0.0279,0.1466,-0.8887
0.113,-0.565,-0.29,10.3,-61,-92.3,0,2018,5,11,13,48,15.157,0.4462,-0.0338,0.162,-0.8794
0.1,-0.532,-0.292,23.1,19.8,-94.7,0,2018,5,11,13,48,15.194,0.4609,-0.0351,0.1638,-0.8714
0.103,-0.454,-0.285,32.5,73.6,-96.1,0,2018,5,11,13,48,15.215,0.4764,-0.0325,0.1544,-0.8649
0.138,-0.324,-0.165,37.8,95.2,-98.6,0,2018,5,11,13,48,15.219,0.4925,-0.028,0.1387,-0.8587
0.143,-0.281,-0.065,37.5,106.8,-102,0,2018,5,11,13,48,15.238,0.5087,-0.0226,0.1208,-0.852
0.091,-0.252,-0.073,35.8,118.4,-103.7,0,2018,5,11,13,48,15.256,0.525,-0.0158,0.1011,-0.8448
0.048,-0.277,-0.094,38.1,112.6,-111.4,1023,2018,5,11,13,48,15.275,0.5416,-0.0086,0.0807,-0.8366
-0.002,-0.258,0.015,35.3,102.6,-129.4,1023,2018,5,11,13,48,15.296,0.5596,-0.0023,0.0618,-0.8264
-0.047,-0.131,0.052,26.5,60,-152.5,1023,2018,5,11,13,48,15.316,0.58,0.002,0.0469,-0.8132
-0.14,-0.097,-0.007,15.9,-5.2,-173.5,1023,2018,5,11,13,48,15.337,0.6033,0.0026,0.0413,-0.7963
-0.148,-0.077,-0.047,10,-54.5,-189.6,1023,2018,5,11,13,48,15.357,0.6284,-0.0011,0.0444,-0.7766
-0.177,0.01,-0.06,5.5,-86.6,-199.6,1023,2018,5,11,13,48,15.394,0.6545,-0.0088,0.0531,-0.754
-0.19,0.146,-0.079,-1.2,-109,-194.3,1023,2018,5,11,13,48,15.414,0.68,-0.0186,0.0662,-0.7298
-0.154,0.359,-0.11,-17.6,-135.7,-169.4,1023,2018,5,11,13,48,15.418,0.7023,-0.03,0.0833,-0.7063
0.039,0.424,-0.237,-23.5,-157.9,-140.7,0,2018,5,11,13,48,15.44,0.7197,-0.0432,0.1054,-0.6848
0.107,0.22,-0.061,-16.6,-138.4,-116,0,2018,5,11,13,48,15.459,0.7329,-0.0575,0.1268,-0.6658
0.319,0.088,0.062,-0.7,-77.1,-106.6,0,2018,5,11,13,48,15.479,0.7443,-0.068,0.1422,-0.6489
0.166,0.114,0.198,15.8,-5.4,-106.4,0,2018,5,11,13,48,15.519,0.7558,-0.071,0.1465,-0.6341
-0.044,0.111,0.214,19.4,32.3,-110,0,2018,5,11,13,48,15.539,0.7684,-0.0677,0.1428,-0.62
-0.056,0.158,0.167,21.4,62.2,-113.9,0,2018,5,11,13,48,15.543,0.7815,-0.0606,0.136,-0.6058
-0.126,0.217,0.169,23.1,65.4,-118.1,0,2018,5,11,13,48,15.558,0.7947,-0.0509,0.127,-0.5912
-0.099,0.356,0.192,27.8,-1.5,-125.7,0,2018,5,11,13,48,15.579,0.808,-0.0458,0.1206,-0.5748
-0.176,0.078,0.309,24.4,-80.1,-140.3,0,2018,5,11,13,48,15.599,0.8213,-0.0522,0.1224,-0.5547
-0.034,0.128,0.35,8.5,-92.5,-142.4,0,2018,5,11,13,48,15.62,0.8342,-0.0652,0.1306,-0.5316
-0.2,0.015,0.683,-4.1,8.4,-153.2,0,2018,5,11,13,48,15.642,0.847,-0.0667,0.1349,-0.5096
-0.289,0.329,0.568,-19.8,-87.1,-166.3,0,2018,5,11,13,48,15.66,0.8601,-0.0661,0.1408,-0.4856
-0.178,-0.109,0.041,-27.3,-182,-190.2,0,2018,5,11,13,48,15.682,0.8723,-0.0818,0.1593,-0.4548
-0.069,-0.397,-0.206,-8,-119.8,-195.3,0,2018,5,11,13,48,15.7,0.884,-0.099,0.1774,-0.4208
-0.077,-0.158,-0.31,12.6,-30.4,-198.2,0,2018,5,11,13,48,15.72,0.8968,-0.1038,0.1853,-0.388
-0.097,0.123,-0.19,26.1,6.2,-199.7,0,2018,5,11,13,48,15.738,0.9102,-0.1,0.1858,-0.3562
-0.126,0.292,-0.143,32.8,-6.7,-200.7,0,2018,5,11,13,48,15.775,0.9231,-0.0949,0.1841,-0.3238
-0.166,0.159,-0.132,34.4,-26.1,-199.8,0,2018,5,11,13,48,15.796,0.9346,-0.0936,0.183,-0.2899
-0.205,0.219,-0.057,33.4,-14.9,-193.3,0,2018,5,11,13,48,15.8,0.9448,-0.092,0.1814,-0.2567
-0.249,0.409,-0.076,35.7,-58.1,-189.6,0,2018,5,11,13,48,15.84,0.9533,-0.0929,0.1802,-0.2234
-0.172,0.37,-0.113,40.9,-100.4,-178.7,0,2018,5,11,13,48,15.86,0.9598,-0.1028,0.18,-0.1891
-0.201,0.198,-0.089,45.2,-77.9,-166.9,0,2018,5,11,13,48,15.864,0.9645,-0.1144,0.1788,-0.1565
-0.18,0.304,-0.082,46.2,-4.8,-151.6,0,2018,5,11,13,48,15.882,0.969,-0.1175,0.1754,-0.1274
-0.015,0.414,-0.026,47.6,15.3,-137.9,0,2018,5,11,13,48,15.902,0.9737,-0.1111,0.1699,-0.1028
-0.115,0.481,0.234,35.9,-31.8,-130,1023,2018,5,11,13,48,15.923,0.9769,-0.1091,0.1652,-0.079
-0.11,0.258,0.226,21.5,-62,-121.6,1023,2018,5,11,13,48,15.96,0.9782,-0.1145,0.1636,-0.0556
0.005,0.176,0.148,16.5,-33.7,-108.1,1023,2018,5,11,13,48,15.981,0.9786,-0.1203,0.1633,-0.0341
-0.102,0.435,0.242,5.6,-7.9,-91.4,1023,2018,5,11,13,48,15.986,0.9789,-0.1205,0.1636,-0.0163
0.009,0.405,0.146,5.8,-12.4,-76.5,1023,2018,5,11,13,48,16.001,0.979,-0.1197,0.1645,-0.0018
-0.07,0.525,0.184,2.9,23.3,-51.5,1023,2018,5,11,13,48,16.02,0.9791,-0.1177,0.1653,0.0094
-0.159,0.85,0.311,-2.6,49.3,-18,1023,2018,5,11,13,48,16.042,0.9799,-0.1096,0.1659,0.0141
-0.141,0.808,0.273,-6.2,45.3,16.8,1023,2018,5,11,13,48,16.078,0.9806,-0.1014,0.1668,0.0124
-0.062,0.605,0.207,-4.1,73.3,48.6,0,2018,5,11,13,48,16.099,0.9814,-0.093,0.1673,0.0051
-0.08,0.583,-0.002,6.4,136.2,88,0,2018,5,11,13,48,16.104,0.983,-0.0766,0.166,-0.0098
-0.038,0.835,-0.129,20.3,161.6,121.4,0,2018,5,11,13,48,16.123,0.9848,-0.0532,0.1619,-0.0322
-0.026,0.786,-0.034,30.2,153.1,149.8,0,2018,5,11,13,48,16.144,0.9855,-0.0303,0.1552,-0.06
-0.028,0.773,-0.212,45.3,152.8,180.9,0,2018,5,11,13,48,16.182,0.9849,-0.0098,0.1462,-0.092
-0.097,0.702,0.084,52.6,141.3,196,0,2018,5,11,13,48,16.203,0.9825,0.0099,0.1342,-0.1283
-0.101,0.32,-0.017,62,186.9,209.1,0,2018,5,11,13,48,16.207,0.9778,0.0324,0.1207,-0.1675
-0.141,0.481,0.257,69.7,141.6,212.5,0,2018,5,11,13,48,16.223,0.9712,0.0535,0.105,-0.2069
-0.251,0.276,0.607,47.6,103.4,199.4,0,2018,5,11,13,48,16.244,0.9626,0.0696,0.0922,-0.2449
-0.144,0.33,0.508,41,111.7,200.5,0,2018,5,11,13,48,16.263,0.952,0.086,0.0827,-0.2815
-0.368,0.179,0.437,27.6,3.7,187.8,0,2018,5,11,13,48,16.282,0.9417,0.0899,0.0772,-0.3148
-0.228,0.272,0.429,25.4,-100.1,170.9,0,2018,5,11,13,48,16.303,0.9321,0.0804,0.0781,-0.3442
-0.137,0.406,-0.095,4.2,-204,195,0,2018,5,11,13,48,16.342,0.9232,0.0488,0.089,-0.3706
0.087,-0.243,-0.288,18.4,-102.7,210.2,0,2018,5,11,13,48,16.361,0.9103,0.0191,0.0997,-0.4011
-0.01,0.34,-0.126,41.7,-30.6,212.7,0,2018,5,11,13,48,16.365,0.8958,0.0039,0.0992,-0.433
-0.146,0.703,-0.212,40.4,10.4,252.8,0,2018,5,11,13,48,16.386,0.8783,-0.0052,0.0937,-0.4687
-0.164,0.321,-0.278,51.8,60,286.1,0,2018,5,11,13,48,16.406,0.8557,-0.0076,0.0834,-0.5105
-0.404,-0.15,-0.192,69.2,117.3,304.7,0,2018,5,11,13,48,16.427,0.829,-0.0041,0.0659,-0.5552
-0.605,-0.222,0.01,78.6,176.1,320.5,0,2018,5,11,13,48,16.448,0.7979,0.0062,0.04,-0.6013
-0.694,-0.122,0.303,58,224.3,311.1,0,2018,5,11,13,48,16.464,0.7632,0.0246,0.0089,-0.6455
-0.565,0.251,-0.045,34.7,175,294.2,0,2018,5,11,13,48,16.482,0.7265,0.0479,-0.0197,-0.6851
-0.412,0.058,-0.13,22.3,32.2,253.9,0,2018,5,11,13,48,16.501,0.6917,0.0577,-0.0325,-0.719
-0.213,-0.506,0.034,-0.4,-62.5,186.3,0,2018,5,11,13,48,16.541,0.6635,0.0546,-0.0287,-0.7455
0.05,-0.712,-0.136,-11.3,-107.4,83.5,0,2018,5,11,13,48,16.563,0.6468,0.0457,-0.0142,-0.7611
0.022,-0.543,-0.099,1.1,-63.1,8.9,1023,2018,5,11,13,48,16.567,0.6422,0.0364,-0.0014,-0.7656
-0.062,-0.451,0.027,7.8,-29.1,-29.4,1023,2018,5,11,13,48,16.605,0.6441,0.0311,0.0033,-0.7642
0.028,-0.524,0.1,6.3,-36.3,-52.9,1023,2018,5,11,13,48,16.625,0.65,0.0264,0.0064,-0.7594
0.049,-0.586,0.1,0.5,-18.7,-69.7,1023,2018,5,11,13,48,16.629,0.6582,0.0228,0.0096,-0.7523
0.093,-0.296,-0.017,-0.9,-17.2,-98.8,1023,2018,5,11,13,48,16.667,0.6693,0.0212,0.0115,-0.7425
0,-0.297,-0.049,5.2,-33.8,-129.6,1023,2018,5,11,13,48,16.671,0.6841,0.0181,0.0141,-0.7289
-0.073,-0.443,-0.016,13.2,-54.1,-167.8,1023,2018,5,11,13,48,16.687,0.703,0.0121,0.018,-0.7108
-0.108,-0.434,-0.16,22.3,-91.3,-206.4,1023,2018,5,11,13,48,16.706,0.7262,0.0015,0.0246,-0.6869
-0.176,-0.327,-0.336,43,-124.5,-230.8,0,2018,5,11,13,48,16.725,0.7521,-0.0152,0.0335,-0.6579
-0.133,-0.474,-0.312,70,-140.9,-251.3,0,2018,5,11,13,48,16.747,0.7788,-0.0381,0.042,-0.6246
-0.171,-0.546,-0.219,98.3,-128.4,-272.4,0,2018,5,11,13,48,16.767,0.806,-0.0639,0.047,-0.5865
-0.342,-0.53,-0.262,122.8,-80.8,-283.2,0,2018,5,11,13,48,16.787,0.833,-0.0878,0.0455,-0.5442
-0.311,-0.523,-0.333,145.3,63.9,-275.2,0,2018,5,11,13,48,16.806,0.8592,-0.1006,0.0319,-0.5004
-0.307,-0.339,-0.269,149,244.5,-273.5,0,2018,5,11,13,48,16.847,0.8852,-0.0872,0.0003,-0.4568
-0.233,0.718,0.026,128.4,278.2,-261.4,0,2018,5,11,13,48,16.85,0.9085,-0.0543,-0.0403,-0.4121
-0.399,1.376,0.508,79,81.5,-242.1,0,2018,5,11,13,48,16.866,0.926,-0.0343,-0.0671,-0.3697
-0.284,0.672,0.645,37.9,-9.6,-222.7,0,2018,5,11,13,48,16.905,0.9395,-0.0384,-0.0756,-0.3316
0.008,0.031,0.125,33.6,49.3,-209.6,0,2018,5,11,13,48,16.927,0.951,-0.0403,-0.0808,-0.2956
-0.179,-0.093,-0.083,36.4,136.5,-202.7,0,2018,5,11,13,48,16.932,0.9609,-0.0293,-0.0905,-0.2597
-0.106,0.463,-0.017,19.7,86.7,-211.1,0,2018,5,11,13,48,16.948,0.9697,-0.0129,-0.0994,-0.2225
-0.078,0.683,-0.148,17.9,13.2,-198.5,0,2018,5,11,13,48,16.967,0.9769,-0.01,-0.1036,-0.1865
-0.154,0.352,-0.005,12.6,-37.7,-187,0,2018,5,11,13,48,17.006,0.9822,-0.0167,-0.105,-0.1542
-0.297,0.116,-0.169,7.5,16.1,-186.4,0,2018,5,11,13,48,17.01,0.9866,-0.0228,-0.1051,-0.122
-0.216,0.308,-0.283,-5.6,1.1,-181.5,0,2018,5,11,13,48,17.027,0.9901,-0.0238,-0.1046,-0.0901
-0.243,0.298,-0.228,-2.7,5.7,-170.5,0,2018,5,11,13,48,17.067,0.9924,-0.0273,-0.1032,-0.0596
-0.293,0.453,-0.242,-1.5,28.7,-147.3,0,2018,5,11,13,48,17.087,0.9938,-0.0271,-0.1023,-0.0318
-0.232,0.593,-0.266,-3.1,33.6,-127.1,0,2018,5,11,13,48,17.091,0.9945,-0.0232,-0.1013,-0.0076
-0.255,0.775,-0.203,-4.3,-9.8,-99.7,0,2018,5,11,13,48,17.111,0.9946,-0.0227,-0.1002,0.0122
-0.208,0.607,-0.077,-9.5,-39.4,-68.3,0,2018,5,11,13,48,17.131,0.9943,-0.0297,-0.0987,0.0261
-0.132,0.664,0.017,-17.4,-19.1,-35.8,0,2018,5,11,13,48,17.147,0.9941,-0.0353,-0.0965,0.0344
-0.163,0.742,0.025,-28.5,-44.1,-1.3,0,2018,5,11,13,48,17.168,0.9941,-0.0408,-0.0924,0.0368
-0.161,0.53,-0.055,-31.5,-66.3,22.8,0,2018,5,11,13,48,17.186,0.9942,-0.0507,-0.0876,0.0335
-0.143,0.447,-0.149,-30.6,-94.5,35.9,0,2018,5,11,13,48,17.208,0.9941,-0.0643,-0.0828,0.0268
-0.123,0.478,-0.079,-20.7,-147.2,44.4,1023,2018,5,11,13,48,17.226,0.9931,-0.084,-0.0793,0.0177
-0.078,0.561,0.119,-28.2,-270.4,50.5,1023,2018,5,11,13,48,17.268,0.9897,-0.1205,-0.0766,0.0063
-0.045,0.507,0.162,-46.2,-306.2,74.3,1023,2018,5,11,13,48,17.287,0.9825,-0.1711,-0.0717,-0.009
-0.074,0.599,0.02,-55.9,-271.6,105.2,1023,2018,5,11,13,48,17.291,0.9729,-0.2196,-0.0649,-0.0297
-0.193,0.491,-0.03,-55.7,-190.4,137.2,1023,2018,5,11,13,48,17.311,0.9629,-0.2573,-0.0588,-0.0553
-0.312,0.379,0.042,-49.1,-69.8,166.6,1023,2018,5,11,13,48,17.332,0.9555,-0.2768,-0.0556,-0.0845
-0.326,0.449,0.077,-42.3,27.1,192.3,1023,2018,5,11,13,48,17.369,0.9522,-0.2764,-0.0567,-0.117
-0.344,0.556,0.012,-36.3,28.4,209.6,1023,2018,5,11,13,48,17.389,0.9495,-0.2673,-0.0606,-0.152
-0.344,0.528,-0.048,-37.8,-42.6,221.7,1023,2018,5,11,13,48,17.394,0.9432,-0.2649,-0.0643,-0.1896
-0.3,0.322,-0.179,-36.5,-104.8,230.7,0,2018,5,11,13,48,17.409,0.9316,-0.2738,-0.0658,-0.2294
-0.218,0.183,-0.216,-31.8,-113.1,238.7,0,2018,5,11,13,48,17.447,0.9162,-0.2881,-0.0668,-0.2703
-0.131,0.127,-0.151,-28.5,-79.3,246.3,0,2018,5,11,13,48,17.468,0.8992,-0.2992,-0.0695,-0.3115
-0.108,0.066,-0.038,-23.9,-25.5,254.6,0,2018,5,11,13,48,17.473,0.8823,-0.3023,-0.0757,-0.3526
-0.168,0.072,0.137,-16.2,13.1,259.4,0,2018,5,11,13,48,17.49,0.8655,-0.2982,-0.086,-0.3929
-0.149,0.084,0.337,-23.2,51.5,266.3,0,2018,5,11,13,48,17.512,0.8485,-0.2877,-0.0992,-0.4327
-0.004,0.267,-0.051,-20.9,67.2,278,0,2018,5,11,13,48,17.532,0.8306,-0.271,-0.1139,-0.4728
-0.106,0.055,-0.034,-1.1,77.4,289.1,0,2018,5,11,13,48,17.569,0.8094,-0.2539,-0.1319,-0.5126
-0.272,-0.168,0.115,1.7,116.9,289.9,0,2018,5,11,13,48,17.589,0.7862,-0.2344,-0.1543,-0.5504
-0.29,-0.171,0.25,7.5,122.8,278.9,0,2018,5,11,13,48,17.615,0.7626,-0.21,-0.1784,-0.5851
-0.303,-0.249,0.351,7.7,97.5,269.9,0,2018,5,11,13,48,17.637,0.7374,-0.1878,-0.2005,-0.6169
-0.303,-0.395,0.283,8.1,90,263.2,0,2018,5,11,13,48,17.64,0.7106,-0.1671,-0.2198,-0.6471
-0.272,-0.293,0.052,18,109.6,253.3,0,2018,5,11,13,48,17.651,0.6832,-0.1459,-0.2394,-0.6741
-0.204,0.011,0.12,27.6,94.6,238.9,0,2018,5,11,13,48,17.672,0.6552,-0.1254,-0.2612,-0.6976
-0.28,-0.057,0.207,29.1,21.8,211.6,0,2018,5,11,13,48,17.692,0.6272,-0.1124,-0.2768,-0.7192
-0.188,-0.299,0.253,18.4,-43,164.7,0,2018,5,11,13,48,17.713,0.6019,-0.1076,-0.2809,-0.7397
-0.052,-0.387,0.22,12.8,-64.5,118.8,0,2018,5,11,13,48,17.733,0.5819,-0.1084,-0.2773,-0.7567
-0.033,-0.296,0.203,9.3,-75.2,75.7,0,2018,5,11,13,48,17.773,0.5674,-0.1117,-0.271,-0.7694
0.028,-0.145,0.162,5,-113.1,38.6,0,2018,5,11,13,48,17.792,0.558,-0.1192,-0.2597,-0.779
0.075,-0.118,0.096,-2,-146,11.7,0,2018,5,11,13,48,17.797,0.5519,-0.1308,-0.2422,-0.787
0.088,-0.192,0.021,-7.4,-169.6,-13.8,0,2018,5,11,13,48,17.814,0.5486,-0.1454,-0.2195,-0.7935
0.103,-0.224,0.052,-12.6,-159.5,-33.3,0,2018,5,11,13,48,17.833,0.5481,-0.1608,-0.1944,-0.7973
0.116,-0.139,0.058,-15.4,-133.1,-39.9,0,2018,5,11,13,48,17.851,0.5497,-0.1737,-0.1716,-0.7987
0.133,0.011,0.026,-16,-125.3,-36.9,0,2018,5,11,13,48,17.891,0.552,-0.1841,-0.1508,-0.7991
0.195,0.116,-0.014,-17.6,-144.3,-28,0,2018,5,11,13,48,17.91,0.5526,-0.1954,-0.1292,-0.7998
0.251,0.077,-0.07,-14.8,-155.7,-14.9,0,2018,5,11,13,48,17.914,0.5506,-0.2082,-0.1055,-0.8014
0.283,0.057,-0.041,-9.6,-138.4,0.8,1023,2018,5,11,13,48,17.934,0.5462,-0.2209,-0.0833,-0.8036
0.251,0.156,-0.01,-7.7,-125.6,17.7,1023,2018,5,11,13,48,17.954,0.5398,-0.2318,-0.0647,-0.8065
0.224,0.254,0.03,-6.2,-143.9,32,1023,2018,5,11,13,48,17.973,0.5308,-0.243,-0.0464,-0.8105
0.263,0.182,-0.05,-12.7,-203.2,49.8,1023,2018,5,11,13,48,17.995,0.5174,-0.2567,-0.0235,-0.8159
0.088,-0.015,-0.087,7.4,-164,54.7,1023,2018,5,11,13,48,18.034,0.5014,-0.2732,0.0003,-0.8208
0.036,-0.011,-0.107,1.7,-206.3,54.5,1023,2018,5,11,13,48,18.053,0.4843,-0.2902,0.0231,-0.825
0.09,-0.033,-0.005,-3.5,-247,51.3,1023,2018,5,11,13,48,18.058,0.4647,-0.3095,0.0536,-0.8278
0.1,-0.126,0.103,-8,-280.6,42,0,2018,5,11,13,48,18.077,0.4431,-0.33,0.09,-0.8285
0.087,-0.179,0.173,-15.7,-306.3,20.6,0,2018,5,11,13,48,18.094,0.4208,-0.3512,0.1318,-0.8259
0.078,-0.16,0.204,-22.2,-334,-6.5,0,2018,5,11,13,48,18.115,0.399,-0.3714,0.1785,-0.819
0.035,-0.05,0.163,-28.8,-374.3,-34.1,0,2018,5,11,13,48,18.137,0.3775,-0.391,0.232,-0.8066
-0.274,-0.109,-0.033,-37.4,-403.2,-61.3,0,2018,5,11,13,48,18.156,0.3551,-0.409,0.2918,-0.7882
0.291,-0.258,-0.233,-21.1,-330,-71.8,0,2018,5,11,13,48,18.177,0.3356,-0.423,0.348,-0.7663
0.105,-0.586,-0.013,1.5,-207.3,-93.4,0,2018,5,11,13,48,18.196,0.3257,-0.4321,0.3901,-0.7449
-0.115,-0.431,0.08,9.5,-121.4,-121.6,0,2018,5,11,13,48,18.217,0.3282,-0.4342,0.4183,-0.727
-0.053,-0.325,-0.003,12.6,-99.9,-151.1,0,2018,5,11,13,48,18.238,0.3384,-0.4314,0.4414,-0.7102
-0.131,-0.384,-0.118,18.9,-103.1,-171.6,0,2018,5,11,13,48,18.257,0.3514,-0.4273,0.4656,-0.6906
-0.156,-0.614,-0.214,29.9,-70.1,-183.3,0,2018,5,11,13,48,18.278,0.3679,-0.421,0.488,-0.6701
-0.248,-0.504,-0.237,42.4,-51.1,-208.2,0,2018,5,11,13,48,18.293,0.3897,-0.4118,0.506,-0.6499
-0.373,-0.427,-0.188,55,-59.5,-233.4,0,2018,5,11,13,48,18.313,0.4147,-0.4013,0.5248,-0.6256
-0.412,-0.303,-0.237,69.4,-60.3,-254.2,0,2018,5,11,13,48,18.334,0.4425,-0.3895,0.5434,-0.5975
-0.344,-0.26,-0.3,89.1,-31.5,-263.1,0,2018,5,11,13,48,18.354,0.4733,-0.3764,0.5593,-0.5669
-0.326,-0.144,-0.308,102.6,-10.2,-270.2,0,2018,5,11,13,48,18.393,0.5074,-0.3607,0.5697,-0.5363
-0.219,0.103,-0.194,106.1,-18.1,-267.6,0,2018,5,11,13,48,18.414,0.5417,-0.3445,0.578,-0.5036
0.066,0.22,-0.19,109.3,-19.9,-251,0,2018,5,11,13,48,18.418,0.5734,-0.3291,0.5846,-0.4701
0.019,0.181,-0.161,123.3,-21.1,-237.8,0,2018,5,11,13,48,18.437,0.6033,-0.3157,0.5883,-0.436
0.022,0.217,-0.015,131.5,-14.4,-224.1,0,2018,5,11,13,48,18.457,0.6326,-0.3028,0.5881,-0.4026
-0.033,0.344,0.116,129.5,-29.1,-212.8,0,2018,5,11,13,48,18.48,0.6596,-0.2917,0.5862,-0.3688
-0.001,0.396,0.084,130.7,-39.7,-197.4,0,2018,5,11,13,48,18.499,0.6836,-0.2829,0.5835,-0.3345
0.056,0.411,0.095,132.2,-37.8,-178,0,2018,5,11,13,48,18.517,0.7055,-0.2758,0.5788,-0.3017
0.003,0.37,0.15,136.9,-31.5,-162.7,0,2018,5,11,13,48,18.535,0.7258,-0.27,0.5719,-0.2704
-0.174,0.376,0.416,131.1,-18.5,-149.9,0,2018,5,11,13,48,18.553,0.745,-0.2637,0.5629,-0.2415
-0.189,0.375,0.505,111.5,-25.1,-138.7,0,2018,5,11,13,48,18.595,0.7617,-0.2573,0.5543,-0.2152
-0.156,0.396,0.44,92,-36.4,-127.2,0,2018,5,11,13,48,18.616,0.7747,-0.2521,0.5477,-0.1901
-0.11,0.531,0.318,76.7,-56,-105.7,1023,2018,5,11,13,48,18.62,0.7843,-0.2498,0.5429,-0.1662
-0.097,0.337,0.326,69.7,-61,-82.1,1023,2018,5,11,13,48,18.637,0.791,-0.2514,0.5386,-0.1445
-0.139,0.173,0.401,58.7,-42.3,-68.8,1023,2018,5,11,13,48,18.677,0.7964,-0.2534,0.5342,-0.1262
-0.126,0.11,0.465,41.2,-22.3,-62.8,1023,2018,5,11,13,48,18.696,0.8011,-0.2527,0.5308,-0.1119
-0.071,0.207,0.414,21.4,-4.9,-51.9,1023,2018,5,11,13,48,18.701,0.8045,-0.2496,0.5292,-0.1014
-0.067,0.352,0.329,7.5,-16.8,-40.2,1023,2018,5,11,13,48,18.721,0.8061,-0.2469,0.5295,-0.0934
-0.058,0.309,0.225,-0.6,-39.6,-24.7,1023,2018,5,11,13,48,18.739,0.8056,-0.2481,0.5309,-0.0861
-0.017,0.229,0.184,-3.6,-32.2,-8.5,1023,2018,5,11,13,48,18.778,0.8039,-0.252,0.5326,-0.0803
0.001,0.205,0.137,-3.2,-11,2.6,0,2018,5,11,13,48,18.782,0.8026,-0.2547,0.5335,-0.0782
0.03,0.373,0.2,-2.7,-4.8,14.3,0,2018,5,11,13,48,18.799,0.802,-0.2561,0.5336,-0.0791
0.111,0.464,0.208,-1.3,-31,27.3,0,2018,5,11,13,48,18.819,0.8008,-0.2602,0.5332,-0.0808
0.204,0.501,0.217,3.9,-55.8,43.7,0,2018,5,11,13,48,18.838,0.7982,-0.2701,0.5321,-0.0813
0.197,0.466,0.265,8.6,-55.6,63.1,0,2018,5,11,13,48,18.874,0.7953,-0.2831,0.5293,-0.0832
0.162,0.411,0.246,11.5,-59.9,74.9,0,2018,5,11,13,48,18.897,0.7924,-0.2975,0.5252,-0.0872
0.156,0.297,0.17,14.7,-63.4,83.2,0,2018,5,11,13,48,18.901,0.789,-0.3136,0.5202,-0.0918
0.185,0.224,0.087,18.7,-57.9,87.1,0,2018,5,11,13,48,18.92,0.7856,-0.3301,0.5141,-0.097
0.164,0.159,0.141,22.6,-37.5,88.6,0,2018,5,11,13,48,18.94,0.7832,-0.3448,0.5068,-0.1036
0.124,0.205,0.227,19.2,-40.1,85.7,0,2018,5,11,13,48,18.98,0.7812,-0.3577,0.4992,-0.1111
0.105,0.136,0.159,12.2,-77.6,79.7,0,2018,5,11,13,48,19,0.7772,-0.3731,0.493,-0.1164
0.096,-0.077,0.127,8.1,-101.6,69.7,0,2018,5,11,13,48,19.004,0.7704,-0.3922,0.4884,-0.1179
0.105,-0.113,0.095,1.4,-102.1,56,0,2018,5,11,13,48,19.019,0.7627,-0.4113,0.485,-0.1176
0.147,-0.002,0.053,-1,-119.7,46,0,2018,5,11,13,48,19.058,0.7535,-0.43,0.4838,-0.1145
0.147,-0.015,0.08,3.6,-105,48.9,0,2018,5,11,13,48,19.079,0.7443,-0.4483,0.4825,-0.1102
0.16,-0.186,0.107,12.5,-63.7,54.7,0,2018,5,11,13,48,19.083,0.7375,-0.4636,0.4788,-0.1087
0.277,-0.284,0.208,16.5,17.3,50,0,2018,5,11,13,48,19.101,0.7364,-0.471,0.4724,-0.1124
0.41,-0.06,0.248,10.8,59.6,37.4,0,2018,5,11,13,48,19.122,0.7404,-0.4689,0.4661,-0.1202
0.453,-0.01,0.242,11.1,77.7,33.4,0,2018,5,11,13,48,19.14,0.7464,-0.4628,0.4603,-0.1292
0.384,-0.145,0.325,11.8,90.4,28.9,0,2018,5,11,13,48,19.181,0.7534,-0.4545,0.4542,-0.139
0.298,-0.261,0.418,1.9,108.1,18.7,0,2018,5,11,13,48,19.201,0.7613,-0.4434,0.4488,-0.1491
0.232,-0.172,0.35,-15.7,128.2,7.8,0,2018,5,11,13,48,19.205,0.7697,-0.428,0.4454,-0.1605
0.251,0.078,-0.044,-19.2,116.4,8.9,0,2018,5,11,13,48,19.222,0.7771,-0.4112,0.4439,-0.1725
0.216,-0.048,-0.1,-13.1,101.8,12.1,0,2018,5,11,13,48,19.242,0.7833,-0.3968,0.4419,-0.1831
0.107,-0.108,-0.054,-9.8,99.3,9.9,0,2018,5,11,13,48,19.261,0.7886,-0.3838,0.4397,-0.193
0.008,-0.092,-0.06,-7,98.2,7.6,1023,2018,5,11,13,48,19.3,0.7936,-0.3713,0.4372,-0.2025
-0.07,-0.043,-0.11,-3.8,87.6,3.2,1023,2018,5,11,13,48,19.319,0.7984,-0.3595,0.4343,-0.211
-0.111,-0.013,-0.187,2.8,73.9,-1,1023,2018,5,11,13,48,19.323,0.8035,-0.3481,0.4312,-0.2169
-0.172,-0.011,-0.249,10.4,60.9,-7.5,1023,2018,5,11,13,48,19.362,0.8082,-0.3388,0.428,-0.2208
-0.202,-0.095,-0.26,18.7,67.2,-16.9,1023,2018,5,11,13,48,19.38,0.8134,-0.3296,0.4242,-0.2229
-0.233,-0.11,-0.265,27.5,85.9,-29.1,1023,2018,5,11,13,48,19.385,0.8203,-0.3179,0.4192,-0.2239
-0.242,-0.018,-0.222,33.7,88.8,-44.4,1023,2018,5,11,13,48,19.423,0.8289,-0.3036,0.4133,-0.2233
-0.233,0.141,-0.171,36.6,84.5,-57.4,1023,2018,5,11,13,48,19.442,0.8379,-0.2885,0.4073,-0.2203
-0.234,0.198,-0.128,35.8,72,-67.8,0,2018,5,11,13,48,19.446,0.8467,-0.2747,0.4013,-0.2153
-0.282,0.186,-0.155,35.3,67.1,-75.6,0,2018,5,11,13,48,19.465,0.8551,-0.2612,0.3964,-0.2081
-0.3,0.158,-0.132,35.8,71.2,-81.4,0,2018,5,11,13,48,19.485,0.8634,-0.2467,0.392,-0.1995
-0.237,0.177,-0.037,29,73.6,-92.2,0,2018,5,11,13,48,19.503,0.8717,-0.2308,0.3881,-0.1899
-0.25,0.32,-0.053,21.8,64.2,-96.1,0,2018,5,11,13,48,19.522,0.8792,-0.2145,0.3857,-0.1792
-0.297,0.402,-0.049,15.7,40.8,-93.8,0,2018,5,11,13,48,19.541,0.8852,-0.2006,0.3848,-0.1674
-0.28,0.378,-0.021,8.7,28.6,-89.7,0,2018,5,11,13,48,19.581,0.8897,-0.1897,0.385,-0.155
-0.225,0.383,-0.094,4.7,23.5,-84.7,0,2018,5,11,13,48,19.602,0.8932,-0.18,0.3863,-0.1428
-0.177,0.337,-0.099,5.4,33.8,-77.5,0,2018,5,11,13,48,19.606,0.8963,-0.1703,0.3873,-0.132
-0.15,0.342,0.005,3.3,45.5,-75.7,0,2018,5,11,13,48,19.625,0.8995,-0.1588,0.3878,-0.1226
-0.148,0.355,0.121,-5.1,42.2,-73.3,0,2018,5,11,13,48,19.645,0.9022,-0.1467,0.389,-0.114
-0.105,0.335,0.097,-18.7,35.4,-71.4,0,2018,5,11,13,48,19.685,0.9037,-0.1354,0.3919,-0.1056
-0.039,0.362,-0.043,-31,31.6,-70.7,0,2018,5,11,13,48,19.689,0.904,-0.1248,0.397,-0.0972
-0.025,0.384,-0.106,-39.8,29.8,-67.7,0,2018,5,11,13,48,19.705,0.9032,-0.1146,0.4036,-0.0893
-0.026,0.448,-0.083,-44.7,24.5,-62,0,2018,5,11,13,48,19.725,0.9017,-0.1048,0.4112,-0.0819
0.001,0.482,-0.13,-46.3,9.3,-54.2,0,2018,5,11,13,48,19.744,0.8995,-0.0973,0.4192,-0.0748
-0.011,0.437,-0.277,-44.4,-8.8,-46.9,0,2018,5,11,13,48,19.764,0.8968,-0.093,0.4271,-0.0678
-0.104,0.353,-0.355,-45.7,-44.1,-50.3,0,2018,5,11,13,48,19.785,0.8935,-0.0928,0.4352,-0.0591
-0.05,0.364,-0.396,-41.2,-98.9,-51.9,0,2018,5,11,13,48,19.823,0.8894,-0.0997,0.4436,-0.0461
0.023,0.391,-0.384,-32.8,-130.3,-39.7,0,2018,5,11,13,48,19.843,0.8846,-0.1143,0.4509,-0.0304
-0.022,0.383,-0.241,-26.8,-113.8,-28,0,2018,5,11,13,48,19.846,0.8798,-0.1308,0.4566,-0.0159
-0.08,0.173,-0.109,-25.1,-64.6,-17.1,0,2018,5,11,13,48,19.883,0.8755,-0.1431,0.4613,-0.0057
-0.081,0.072,-0.068,-29.3,-10.3,-15.5,0,2018,5,11,13,48,19.903,0.8724,-0.1467,0.4661,-0.0014
-0.043,0.298,0.023,-36.6,-16.5,-10.7,0,2018,5,11,13,48,19.905,0.8695,-0.1467,0.4715,0.0006
0.04,0.309,0.091,-38.2,-61.6,-1,1023,2018,5,11,13,48,19.941,0.8653,-0.1523,0.4774,0.0038
0.001,0.046,0.298,-31.5,-72,11.5,1023,2018,5,11,13,48,19.961,0.8604,-0.1634,0.4825,0.0079
0.05,-0.008,0.338,-26.9,-53.1,19.2,1023,2018,5,11,13,48,19.964,0.8561,-0.1744,0.4862,0.0101
0.126,0.03,0.232,-26.7,-44,21.6,1023,2018,5,11,13,48,20,0.8524,-0.1831,0.4894,0.0102
0.102,0.002,0.325,-26,-55.2,29.4,1023,2018,5,11,13,48,20.022,0.8487,-0.1924,0.4925,0.0095
0.056,-0.034,0.354,-23.5,-76.2,39.4,1023,2018,5,11,13,48,20.025,0.8442,-0.2052,0.4949,0.0092
-0.014,-0.057,0.281,-17.9,-79.1,48.6,1023,2018,5,11,13,48,20.064,0.8396,-0.2208,0.4961,0.0087
-0.032,0.023,0.214,-15.1,-70.3,56.9,0,2018,5,11,13,48,20.082,0.8353,-0.2363,0.4962,0.0068
0.045,0.078,0.129,-12,-82.1,64,0,2018,5,11,13,48,20.085,0.831,-0.2523,0.4956,0.0039
0.127,0.074,0.147,-7.4,-108.1,74.6,0,2018,5,11,13,48,20.125,0.8258,-0.2722,0.4937,0.0015
0.142,-0.02,0.195,-3.7,-115.9,78.3,0,2018,5,11,13,48,20.146,0.8196,-0.2954,0.4907,0.0001
0.108,-0.106,0.227,-2.1,-82.3,75.2,0,2018,5,11,13,48,20.15,0.814,-0.3164,0.487,-0.0023
0.071,-0.056,0.242,-4.5,-47.4,67.6,0,2018,5,11,13,48,20.167,0.8101,-0.3313,0.4835,-0.0072
0.077,0.032,0.233,-7.7,-35.2,63,0,2018,5,11,13,48,20.205,0.8072,-0.3421,0.4806,-0.0135
0.07,0.031,0.229,-12.1,-42,60.6,0,2018,5,11,13,48,20.224,0.8039,-0.3527,0.4783,-0.0197
0.065,0.054,0.284,-20.5,-50.9,54.7,0,2018,5,11,13,48,20.229,0.7994,-0.364,0.4772,-0.0248
0.062,0.072,0.304,-33.3,-50.3,54.4,0,2018,5,11,13,48,20.266,0.7936,-0.3756,0.4777,-0.0298
0.027,0.087,0.356,-46.6,-35.7,56.6,0,2018,5,11,13,48,20.287,0.7869,-0.386,0.4799,-0.0364
-0.004,0.106,0.336,-54.2,-10.6,63,0,2018,5,11,13,48,20.291,0.7806,-0.3938,0.483,-0.0461
0.048,0.153,0.289,-59.3,7.2,69.6,0,2018,5,11,13,48,20.308,0.7752,-0.3989,0.4861,-0.0591
0.047,0.137,0.185,-64.6,1.1,74.2,0,2018,5,11,13,48,20.348,0.7695,-0.4035,0.4893,-0.0738
0.07,0.1,0.057,-66.5,-21.2,73.6,0,2018,5,11,13,48,20.368,0.7621,-0.4102,0.493,-0.0874
0.071,0.125,0.007,-60.6,-40.4,75.6,0,2018,5,11,13,48,20.372,0.7532,-0.4192,0.4971,-0.0983
0.031,0.136,0.032,-52.7,-46.7,82,0,2018,5,11,13,48,20.388,0.7436,-0.4303,0.5,-0.1082
0.027,0.077,0.045,-47.4,-30.2,89.9,0,2018,5,11,13,48,20.423,0.7349,-0.4414,0.5007,-0.1193
0.049,0.077,0.009,-43.5,-10.9,95.1,0,2018,5,11,13,48,20.444,0.7275,-0.4507,0.4998,-0.1326
0.066,0.101,-0.016,-38.4,4.8,100,0,2018,5,11,13,48,20.448,0.7213,-0.4582,0.4978,-0.1475
0.047,0.158,-0.032,-31.8,18.4,109.9,0,2018,5,11,13,48,20.47,0.7163,-0.4647,0.4939,-0.1641
0.005,0.184,0.063,-27.2,18.7,119.5,0,2018,5,11,13,48,20.491,0.712,-0.4708,0.488,-0.182
-0.012,0.22,0.136,-29.6,2.2,128.2,0,2018,5,11,13,48,20.51,0.7065,-0.4789,0.4807,-0.2007
0.006,0.201,0.104,-36.3,-26.7,132.4,0,2018,5,11,13,48,20.531,0.6979,-0.4901,0.4742,-0.2182
0.001,0.236,0.072,-41.3,-42,142.3,1023,2018,5,11,13,48,20.569,0.6861,-0.5042,0.4685,-0.2352
-0.022,0.249,0.09,-46.5,-40.9,154.4,1023,2018,5,11,13,48,20.588,0.6724,-0.5195,0.4623,-0.2533
-0.056,0.27,0.16,-55.9,-28.2,165.9,1023,2018,5,11,13,48,20.593,0.6577,-0.534,0.455,-0.2738
-0.071,0.25,0.088,-66.8,-27.2,172.1,1023,2018,5,11,13,48,20.608,0.6422,-0.547,0.4471,-0.2971
-0.028,0.231,0.001,-71.5,-48.7,177.1,1023,2018,5,11,13,48,20.647,0.6239,-0.5607,0.4396,-0.3208
0.016,0.226,0.038,-72.6,-81.1,181.7,1023,2018,5,11,13,48,20.666,0.6013,-0.5774,0.4334,-0.342
0.03,0.217,0.124,-75.2,-91.8,189.2,1023,2018,5,11,13,48,20.67,0.5757,-0.5955,0.4273,-0.3621
0.005,0.02,0.066,-79,-80.9,190.7,0,2018,5,11,13,48,20.709,0.5489,-0.6126,0.42,-0.3832
0.038,-0.167,-0.024,-74.9,-81.6,173,0,2018,5,11,13,48,20.713,0.5219,-0.6282,0.4133,-0.4026
0.102,-0.188,-0.02,-68.1,-69.7,162.8,0,2018,5,11,13,48,20.728,0.4965,-0.6416,0.4069,-0.4196
0.135,-0.097,0.092,-64.1,-54,157.6,0,2018,5,11,13,48,20.768,0.4733,-0.653,0.3993,-0.4359
0.124,-0.07,0.202,-66.8,-21.5,158.8,0,2018,5,11,13,48,20.786,0.4521,-0.6619,0.3894,-0.4535
0.077,-0.194,0.132,-68.8,-3.3,148.2,0,2018,5,11,13,48,20.791,0.4339,-0.6675,0.3774,-0.4727
0.101,-0.349,-0.001,-65.8,-4,132.4,0,2018,5,11,13,48,20.83,0.4176,-0.671,0.3661,-0.4911
0.143,-0.38,-0.09,-59.3,-28.1,108.3,0,2018,5,11,13,48,20.849,0.4012,-0.6743,0.3583,-0.5057
0.123,-0.217,0.013,-56,-25.3,104.7,0,2018,5,11,13,48,20.854,0.3849,-0.6777,0.3523,-0.5179
0.006,-0.134,0.112,-57.8,1.2,107.3,0,2018,5,11,13,48,20.87,0.37,-0.6799,0.3448,-0.5308
0.045,-0.086,0.021,-55,48.2,104.4,0,2018,5,11,13,48,20.891,0.36,-0.6789,0.3335,-0.546
0.185,-0.032,-0.265,-40.4,71.8,102.1,0,2018,5,11,13,48,20.911,0.355,-0.676,0.3182,-0.5618
0.216,0.007,-0.555,-4.8,47.8,103.3,0,2018,5,11,13,48,20.951,0.3509,-0.6754,0.3015,-0.5742
0.097,0.13,-0.378,31,26.9,119,0,2018,5,11,13,48,20.955,0.3448,-0.6803,0.2839,-0.581
-0.009,0.146,-0.11,48,0.5,135,0,2018,5,11,13,48,20.973,0.3353,-0.6899,0.2646,-0.5843
-0.031,-0.089,0.097,47.6,-16.7,131.9,0,2018,5,11,13,48,20.994,0.3221,-0.7015,0.2461,-0.586
0.016,-0.275,0.047,44.8,-25.1,116.1,0,2018,5,11,13,48,21.014,0.3089,-0.7123,0.2302,-0.5865
0.04,-0.312,-0.084,43.9,-47.8,97.4,0,2018,5,11,13,48,21.051,0.2953,-0.7229,0.2184,-0.5851
0.055,-0.28,-0.17,48.5,-76.9,85.1,0,2018,5,11,13,48,21.073,0.2797,-0.7341,0.211,-0.5815
0.023,-0.383,-0.037,50.7,-90.7,73,0,2018,5,11,13,48,21.078,0.2624,-0.7462,0.207,-0.5756
0.032,-0.486,0.108,46.1,-83.8,54.1,0,2018,5,11,13,48,21.092,0.2463,-0.7573,0.2053,-0.5688
0.071,-0.478,0.143,38.8,-65.4,33.8,0,2018,5,11,13,48,21.131,0.2335,-0.7661,0.2052,-0.5623
0.098,-0.345,0.142,33.3,-41.5,21.1,0,2018,5,11,13,48,21.152,0.2252,-0.7727,0.2054,-0.5567
0.098,-0.242,0.141,30.6,-29.6,14.6,0,2018,5,11,13,48,21.156,0.22,-0.7777,0.2051,-0.5518
0.108,-0.205,0.187,27.2,-24.3,9.5,0,2018,5,11,13,48,21.175,0.2163,-0.7819,0.2049,-0.5474
0.09,-0.251,0.196,23.7,-20.5,4.2,1023,2018,5,11,13,48,21.195,0.2135,-0.7854,0.2051,-0.5434
0.075,-0.285,0.193,20.9,-18.6,-1.1,1023,2018,5,11,13,48,21.234,0.2115,-0.7883,0.2059,-0.5397
0.074,-0.204,0.194,17.9,-19.8,-3.6,1023,2018,5,11,13,48,21.238,0.2099,-0.7907,0.2074,-0.5362
0.06,-0.106,0.225,14.7,-30.6,-2,1023,2018,5,11,13,48,21.253,0.2073,-0.793,0.2095,-0.533
0.035,-0.11,0.222,10.4,-50.9,-3.3,1023,2018,5,11,13,48,21.293,0.2024,-0.7956,0.2131,-0.5296
0.037,-0.107,0.198,5.8,-66.2,-4.2,1023,2018,5,11,13,48,21.313,0.1947,-0.7983,0.219,-0.526
0.058,-0.178,0.181,0.2,-62.7,-1.6,1023,2018,5,11,13,48,21.317,0.1858,-0.8005,0.2254,-0.5231
0.102,-0.186,0.05,0,-59.5,-2.7,1023,2018,5,11,13,48,21.333,0.1776,-0.8024,0.2311,-0.5207
0.173,-0.311,-0.052,6.2,-43.7,-4.2,0,2018,5,11,13,48,21.371,0.1704,-0.8041,0.2365,-0.5179
0.177,-0.222,0.024,13.1,-2.1,-0.7,0,2018,5,11,13,48,21.393,0.168,-0.8056,0.2385,-0.5155
0.188,-0.127,0.038,17.8,19.9,1.6,0,2018,5,11,13,48,21.397,0.1702,-0.8067,0.2369,-0.5138
0.223,-0.144,0.036,22,32.3,1.6,0,2018,5,11,13,48,21.415,0.1747,-0.8077,0.2337,-0.5121
0.236,-0.109,0.065,24.5,43.5,3.5,0,2018,5,11,13,48,21.434,0.1808,-0.8087,0.2292,-0.5104
0.279,-0.158,0.057,26.5,57.7,5.7,0,2018,5,11,13,48,21.473,0.1885,-0.8096,0.2232,-0.509
0.279,-0.24,-0.001,31.6,80.4,4.7,0,2018,5,11,13,48,21.495,0.1988,-0.81,0.2154,-0.5077
0.291,-0.224,-0.038,39.7,110,2.5,0,2018,5,11,13,48,21.499,0.2135,-0.8099,0.205,-0.5063
0.301,-0.142,0.002,47.7,130.1,1.4,0,2018,5,11,13,48,21.518,0.2321,-0.8091,0.1923,-0.5044
0.267,-0.1,0.067,50.9,138.4,1.4,0,2018,5,11,13,48,21.537,0.2527,-0.8078,0.1781,-0.5017
0.168,-0.015,0.159,45.9,135,1.7,0,2018,5,11,13,48,21.555,0.2734,-0.8058,0.1636,-0.499
0.064,0,0.238,32.6,119.8,3,0,2018,5,11,13,48,21.575,0.2922,-0.803,0.1502,-0.4971
0.038,-0.165,0.225,16.2,106.4,-0.5,0,2018,5,11,13,48,21.594,0.3082,-0.7993,0.1391,-0.4966
-0.003,-0.199,0.19,3.7,86.5,-11.2,0,2018,5,11,13,48,21.632,0.3227,-0.7946,0.1307,-0.4972
-0.133,-0.294,0.211,-11.5,82.2,-16.7,0,2018,5,11,13,48,21.652,0.3348,-0.7894,0.1262,-0.4986
-0.23,-0.347,0.217,-23.8,138.4,-12.7,0,2018,5,11,13,48,21.656,0.3504,-0.781,0.1199,-0.5026
-0.2,-0.289,-0.059,-22.1,167.9,-16.4,0,2018,5,11,13,48,21.696,0.3729,-0.7686,0.1093,-0.5081
-0.053,-0.114,0.131,-28.8,201.1,-8.7,0,2018,5,11,13,48,21.715,0.3977,-0.7538,0.0972,-0.5138
-0.003,0.012,0.215,-23.8,227.9,-2.1,0,2018,5,11,13,48,21.719,0.4263,-0.7355,0.0796,-0.5204
-0.023,-0.091,0.055,-18.4,218.9,-4.8,0,2018,5,11,13,48,21.758,0.4548,-0.7162,0.0611,-0.5257
0.063,-0.108,0.086,-12.6,237.7,-1,0,2018,5,11,13,48,21.762,0.4832,-0.6959,0.0421,-0.5294
0.001,0.024,0.167,-2.9,233.7,-6,0,2018,5,11,13,48,21.779,0.5122,-0.6744,0.0207,-0.5313
0.005,0.132,0.226,-1.5,168.8,-10.1,0,2018,5,11,13,48,21.796,0.5365,-0.6556,0.0031,-0.5311
-0.03,-0.096,0.232,-8.1,122,-12.8,0,2018,5,11,13,48,21.815,0.5534,-0.642,-0.0079,-0.5304
-0.056,-0.237,0.281,-15.1,127.2,-19.2,0,2018,5,11,13,48,21.853,0.5685,-0.629,-0.0164,-0.5299
-0.035,-0.207,0.228,-24.3,146,-26.9,1023,2018,5,11,13,48,21.872,0.5857,-0.6132,-0.0245,-0.5292
0.037,-0.067,0.265,-32.5,151.8,-28,1023,2018,5,11,13,48,21.877,0.6045,-0.5948,-0.0327,-0.5287
0.028,0.008,0.322,-47.7,137.2,-30.9,1023,2018,5,11,13,48,21.918,0.6225,-0.5756,-0.0385,-0.5286
0.091,0.218,0.251,-55.6,103.9,-24.6,1023,2018,5,11,13,48,21.922,0.6377,-0.5575,-0.0412,-0.5298
0.107,0.296,0.234,-60.3,48.4,-17.6,1023,2018,5,11,13,48,21.938,0.6473,-0.5437,-0.0397,-0.5325
0.09,0.38,0.252,-64.2,-7.3,-8.6,1023,2018,5,11,13,48,21.978,0.6509,-0.5357,-0.0331,-0.5367
0.073,0.489,0.269,-64,-79.6,2.2,1023,2018,5,11,13,48,21.998,0.6474,-0.5346,-0.0215,-0.5426
0.042,0.362,0.226,-69.8,-149.8,6.3,0,2018,5,11,13,48,22.002,0.6359,-0.5416,-0.0032,-0.5496
0.084,0.2,0.112,-76.2,-181.2,8.9,0,2018,5,11,13,48,22.016,0.6188,-0.5531,0.0205,-0.5573
0.138,0.175,0.051,-74.9,-204.2,10.3,0,2018,5,11,13,48,22.056,0.5988,-0.566,0.0463,-0.5646
0.177,0.208,0.022,-75.2,-242.6,11.4,0,2018,5,11,13,48,22.075,0.575,-0.5807,0.0747,-0.5713
0.172,0.176,0.033,-85.5,-278,12.1,0,2018,5,11,13,48,22.079,0.5452,-0.5989,0.108,-0.5764
0.182,0.013,0.007,-92.4,-270.4,11.1,0,2018,5,11,13,48,22.1,0.5131,-0.6152,0.143,-0.581
0.164,-0.136,-0.031,-96.2,-249.1,2.1,0,2018,5,11,13,48,22.137,0.4814,-0.6284,0.1771,-0.5847
0.18,-0.32,-0.134,-93.2,-198.7,-10.5,0,2018,5,11,13,48,22.158,0.4535,-0.637,0.2087,-0.5872
0.211,-0.44,-0.065,-84.7,-112.4,-23.2,0,2018,5,11,13,48,22.162,0.4345,-0.6393,0.2334,-0.5898
0.234,-0.654,-0.071,-76.3,17.1,-36.7,0,2018,5,11,13,48,22.199,0.4289,-0.6333,0.2478,-0.5945
0.22,-0.585,-0.101,-68.6,171.8,-42.1,0,2018,5,11,13,48,22.218,0.4404,-0.6167,0.2478,-0.6034
0.206,-0.24,-0.094,-61.8,288.8,-36.3,0,2018,5,11,13,48,22.222,0.4672,-0.5891,0.2313,-0.6172
0.155,-0.074,0.002,-67.6,352.5,-25.9,0,2018,5,11,13,48,22.239,0.5004,-0.5537,0.2047,-0.6332
0.157,0.053,0.095,-83.6,396.4,-14.1,0,2018,5,11,13,48,22.277,0.5352,-0.5104,0.1709,-0.6509
0.214,0.303,0.035,-96.6,394.6,1.6,0,2018,5,11,13,48,22.296,0.5674,-0.4611,0.134,-0.6688
0.305,0.443,0.141,-95.4,299.7,13.9,0,2018,5,11,13,48,22.3,0.5917,-0.4129,0.1008,-0.6849
0.14,0.947,0.594,-87.7,-132.3,-4.4,0,2018,5,11,13,48,22.338,0.5955,-0.3946,0.0983,-0.6926
-0.085,0.627,0.193,-148.7,-519.1,-17.5,0,2018,5,11,13,48,22.359,0.57,-0.4147,0.1526,-0.6925
0.041,0.317,-0.48,-182.6,-747,-47.5,0,2018,5,11,13,48,22.363,0.5178,-0.4553,0.2502,-0.6795
0.161,0.155,-0.73,-167.6,-774.3,-73.5,0,2018,5,11,13,48,22.381,0.4508,-0.4971,0.3602,-0.6478
0.231,0.023,-0.537,-138.2,-676,-91.4,0,2018,5,11,13,48,22.402,0.3835,-0.5277,0.4584,-0.6034
0.323,-0.257,-0.573,-106,-443.5,-91.9,0,2018,5,11,13,48,22.441,0.3281,-0.5429,0.5337,-0.5592
0.255,-0.919,-0.51,-57.1,-22.3,-76.3,0,2018,5,11,13,48,22.446,0.3066,-0.5401,0.568,-0.5399
0.078,-0.835,-0.411,-39.8,442.7,-53.9,0,2018,5,11,13,48,22.46,0.3296,-0.5166,0.5543,-0.563
0.025,-0.059,-0.4,-47.7,757.7,-26.4,0,2018,5,11,13,48,22.479,0.3832,-0.4693,0.496,-0.6218
0.117,0.637,-0.321,-46,823.3,20.9,0,2018,5,11,13,48,22.515,0.4416,-0.4053,0.406,-0.6897
0.065,0.304,-0.438,-61.5,794.8,60.3,1023,2018,5,11,13,48,22.535,0.485,-0.3359,0.306,-0.7471
0.151,0.248,-0.478,-62.9,712.5,56.7,1023,2018,5,11,13,48,22.543,0.5134,-0.2643,0.2061,-0.7899
0.155,0.165,-0.205,-16,547.2,46.3,1023,2018,5,11,13,48,22.562,0.5305,-0.2011,0.1175,-0.815
-0.153,0.576,0.503,8.9,62.2,24.8,1023,2018,5,11,13,48,22.584,0.5354,-0.1733,0.0708,-0.8235
-0.17,0.114,0.404,-21.5,-352.6,-5.5,1023,2018,5,11,13,48,22.622,0.5286,-0.1882,0.0963,-0.822
0.007,0.014,-0.023,-15.6,-574.4,-34.2,1023,2018,5,11,13,48,22.645,0.5134,-0.2287,0.1671,-0.81
0.058,-0.087,-0.326,-1.1,-596.6,-45.8,1023,2018,5,11,13,48,22.658,0.492,-0.2791,0.2539,-0.7845
0.1,-0.431,-0.286,17.9,-444.6,-44.7,1023,2018,5,11,13,48,22.663,0.4707,-0.3224,0.3262,-0.7536
0.135,-0.754,-0.197,33.8,-209.6,-53,0,2018,5,11,13,48,22.698,0.4596,-0.3489,0.3686,-0.7287
0.159,-0.608,-0.075,49,-32.1,-67.1,0,2018,5,11,13,48,22.72,0.4633,-0.3588,0.3825,-0.7142
0.153,-0.227,0.11,54.5,24.5,-80.8,0,2018,5,11,13,48,22.724,0.4765,-0.36,0.3823,-0.705
0.185,0.036,0.213,52.9,16.8,-83.7,0,2018,5,11,13,48,22.745,0.4918,-0.3588,0.3796,-0.6965
0.181,0.188,0.151,48.3,-45.4,-86.3,0,2018,5,11,13,48,22.764,0.5046,-0.3607,0.3825,-0.6847
0.195,0.033,0.117,46.7,-93.2,-88.4,0,2018,5,11,13,48,22.782,0.5134,-0.3669,0.3923,-0.6691
0.186,-0.128,0.172,46.9,-140,-104.2,0,2018,5,11,13,48,22.803,0.5202,-0.376,0.4077,-0.6493
0.238,-0.126,0.166,46.1,-192,-116,0,2018,5,11,13,48,22.84,0.5247,-0.3882,0.4293,-0.624
0.261,0.011,0.134,46.8,-245.1,-123.1,0,2018,5,11,13,48,22.86,0.5257,-0.4044,0.4572,-0.5923
0.277,-0.003,0.067,51.3,-248.8,-121.2,0,2018,5,11,13,48,22.864,0.5238,-0.4221,0.4867,-0.557
0.305,-0.072,0.005,64.3,-217.4,-121.8,0,2018,5,11,13,48,22.885,0.5227,-0.4383,0.5126,-0.5213
0.266,0.006,0,81.4,-199.3,-128,0,2018,5,11,13,48,22.906,0.5245,-0.452,0.5335,-0.4855
0.243,0.193,0.077,93.1,-200,-125.5,0,2018,5,11,13,48,22.922,0.5274,-0.4653,0.5518,-0.448
0.19,0.198,0.166,98.4,-217.5,-118,0,2018,5,11,13,48,22.961,0.5287,-0.4798,0.5684,-0.4085
0.187,0.082,0.111,103.8,-219.6,-110.7,0,2018,5,11,13,48,22.981,0.5278,-0.4956,0.5839,-0.3671
0.19,0.041,0.075,114.5,-182,-102.8,0,2018,5,11,13,48,22.986,0.5278,-0.5098,0.5953,-0.327
0.151,0.311,0.269,114.1,-191.3,-100.3,0,2018,5,11,13,48,23.005,0.5289,-0.5223,0.6036,-0.2879
0.16,0.223,0.253,110.4,-221.8,-89.7,0,2018,5,11,13,48,23.024,0.5265,-0.5363,0.6114,-0.2475
0.213,-0.076,0.145,111.4,-240.6,-79.5,0,2018,5,11,13,48,23.064,0.5188,-0.5534,0.6189,-0.2034
0.173,-0.38,0.145,120.1,-151.8,-71,0,2018,5,11,13,48,23.085,0.5141,-0.5672,0.6221,-0.1636
0.1,-0.219,0.305,120.9,-44.1,-72.1,0,2018,5,11,13,48,23.089,0.5202,-0.5708,0.6205,-0.1353
0.071,-0.003,0.338,107.9,-17.5,-77.4,0,2018,5,11,13,48,23.107,0.5319,-0.5674,0.618,-0.1144
0.07,0.013,0.253,97.9,-22.8,-74.1,0,2018,5,11,13,48,23.127,0.5422,-0.5631,0.6163,-0.0946
0.07,-0.003,0.192,90.9,-2.9,-69.7,0,2018,5,11,13,48,23.146,0.5521,-0.5581,0.6145,-0.0772
0.043,0.036,0.153,84,18.6,-68.8,0,2018,5,11,13,48,23.164,0.5632,-0.5508,0.6126,-0.063
0,0.065,0.134,77,22,-69.6,1023,2018,5,11,13,48,23.186,0.5744,-0.5422,0.6111,-0.0505
-0.085,0.258,0.267,63.7,13.8,-62.4,1023,2018,5,11,13,48,23.204,0.5843,-0.5336,0.61,-0.0394
-0.126,0.462,0.332,41.1,-44.8,-57,1023,2018,5,11,13,48,23.224,0.589,-0.5289,0.6103,-0.027
-0.068,0.483,0.184,24.3,-102.4,-40.5,1023,2018,5,11,13,48,23.26,0.5855,-0.5316,0.6118,-0.011
0.007,0.328,0.098,18.9,-127.7,-20.7,1023,2018,5,11,13,48,23.282,0.5765,-0.5406,0.6125,0.0068
0.035,0.098,0.052,17.8,-108.7,-4.4,1023,2018,5,11,13,48,23.286,0.5668,-0.5514,0.6116,0.023
0.021,0.038,0.115,17,-63.3,6,1023,2018,5,11,13,48,23.308,0.5608,-0.5594,0.6094,0.0343
0.016,0.05,0.174,14.6,-21,13.4,1023,2018,5,11,13,48,23.329,0.5587,-0.5642,0.6065,0.0391
0.007,0.065,0.243,7.9,0.4,17.7,0,2018,5,11,13,48,23.365,0.5593,-0.5665,0.6037,0.0394
0.102,0.08,0.165,0.8,-19.9,13.8,0,2018,5,11,13,48,23.387,0.5591,-0.5689,0.6017,0.039
0.233,0.008,0.057,0.2,-58.5,7,0,2018,5,11,13,48,23.391,0.5551,-0.5739,0.6004,0.0422
0.275,-0.179,-0.013,10.4,-53.4,-3.2,0,2018,5,11,13,48,23.407,0.5495,-0.5799,0.5993,0.0491
0.244,-0.338,0.052,26.7,8.9,-17.9,0,2018,5,11,13,48,23.445,0.5492,-0.5809,0.5982,0.0545
0.133,-0.171,0.194,37.1,89.9,-24.7,0,2018,5,11,13,48,23.466,0.5576,-0.5733,0.5978,0.0547
0.06,0.016,0.237,38.6,155.6,-24.6,0,2018,5,11,13,48,23.47,0.574,-0.5577,0.5975,0.0477
-0.003,0.224,0.3,31.3,173.4,-20.5,0,2018,5,11,13,48,23.487,0.594,-0.5376,0.5972,0.0358
-0.021,0.341,0.272,19.3,127.5,-14.3,0,2018,5,11,13,48,23.526,0.6105,-0.5197,0.5971,0.0241
-0.032,0.313,0.259,6.7,72.2,-3.3,0,2018,5,11,13,48,23.546,0.6206,-0.5081,0.5968,0.0159
-0.03,0.125,0.209,-1.1,24.2,-1.3,0,2018,5,11,13,48,23.553,0.6248,-0.503,0.5969,0.0116
-0.025,0.114,0.155,-7.5,-4.9,2.5,0,2018,5,11,13,48,23.57,0.6248,-0.5025,0.5974,0.0105
0.033,-0.039,0.05,-7.4,5.8,5.7,0,2018,5,11,13,48,23.609,0.6241,-0.5031,0.5976,0.0096
0.056,-0.106,0.033,-0.1,62.9,10.5,0,2018,5,11,13,48,23.613,0.6266,-0.5006,0.5971,0.0049
0.051,0.137,0.044,5.1,107.5,13.8,0,2018,5,11,13,48,23.628,0.6355,-0.4913,0.5954,-0.0062
0.084,0.258,0.106,5.8,55.6,13.3,0,2018,5,11,13,48,23.647,0.6432,-0.4833,0.5936,-0.0157
0.068,0.148,0.13,5,20.6,18.8,0,2018,5,11,13,48,23.669,0.6465,-0.4812,0.5915,-0.0207
0.091,0.037,0.154,5.4,20,17.5,0,2018,5,11,13,48,23.688,0.6485,-0.4811,0.5892,-0.0242
0.039,0.106,0.237,2.3,18.9,14.3,0,2018,5,11,13,48,23.71,0.6505,-0.4804,0.5874,-0.0276
0.071,0.108,0.196,-1,10,14.1,0,2018,5,11,13,48,23.73,0.6517,-0.4802,0.5861,-0.0307
0.07,0.177,0.192,-2.3,5.2,17.9,0,2018,5,11,13,48,23.751,0.6521,-0.481,0.5849,-0.0334
0.048,0.174,0.175,-5.1,-10.1,20,0,2018,5,11,13,48,23.787,0.6514,-0.4832,0.5837,-0.0357
0.098,0.152,0.137,-7,-28.3,20.6,0,2018,5,11,13,48,23.807,0.649,-0.4875,0.5828,-0.0365
0.097,0.159,0.214,-9.1,-43.8,22.1,0,2018,5,11,13,48,23.811,0.645,-0.4938,0.582,-0.0359
0.072,0.123,0.207,-13.9,-51.2,24.6,0,2018,5,11,13,48,23.829,0.6395,-0.5015,0.5816,-0.0347
0.064,0.079,0.171,-17.8,-57.9,21.1,0,2018,5,11,13,48,23.849,0.633,-0.5097,0.5816,-0.0334
0.064,0.125,0.115,-19.1,-66.5,21.7,1023,2018,5,11,13,48,23.87,0.6253,-0.5187,0.5822,-0.0308
0.106,0.131,0.055,-19.1,-68,26.4,1023,2018,5,11,13,48,23.889,0.617,-0.5284,0.5824,-0.0284
0.124,0.038,0.049,-15.7,-56.9,26.3,1023,2018,5,11,13,48,23.907,0.6094,-0.5375,0.5822,-0.0259
0.139,0.105,0.125,-14,-40,27.2,1023,2018,5,11,13,48,23.947,0.6034,-0.545,0.5814,-0.0252
0.13,0.095,0.143,-15.1,-34.8,26.9,1023,2018,5,11,13,48,23.967,0.5982,-0.5516,0.5805,-0.0257
0.135,0.075,0.158,-16,-36.6,23.5,1023,2018,5,11,13,48,23.971,0.5931,-0.5578,0.5799,-0.0263
0.143,0.063,0.133,-15.2,-34.7,21.9,1023,2018,5,11,13,48,23.992,0.5878,-0.5637,0.5795,-0.0265
0.145,0.086,0.158,-13.9,-34.6,19.3,1023,2018,5,11,13,48,24.013,0.583,-0.5691,0.5791,-0.0267
0.14,-0.006,0.141,-14,-44.1,15.7,0,2018,5,11,13,48,24.031,0.5774,-0.575,0.579,-0.0257
0.144,-0.007,0.161,-13.1,-28.9,13.9,0,2018,5,11,13,48,24.07,0.5723,-0.58,0.579,-0.025
0.146,-0.042,0.18,-14.2,-33.6,7.1,0,2018,5,11,13,48,24.092,0.5678,-0.584,0.5794,-0.0244
0.141,-0.023,0.188,-14.9,-30.2,3.8,0,2018,5,11,13,48,24.096,0.5629,-0.5878,0.5805,-0.0229
0.13,-0.059,0.167,-13.4,-0.1,3,0,2018,5,11,13,48,24.111,0.5599,-0.5896,0.5815,-0.0232
0.126,-0.093,0.134,-8.5,52,4.2,0,2018,5,11,13,48,24.147,0.5615,-0.5873,0.5821,-0.0273
0.087,-0.12,0.117,-3.8,109.2,5.8,0,2018,5,11,13,48,24.167,0.5696,-0.5795,0.5815,-0.037
0.048,0.015,0.279,-8.4,136.4,3.6,0,2018,5,11,13,48,24.171,0.5818,-0.5672,0.5805,-0.0509
0.042,0.032,0.375,-21.2,134.3,4.6,0,2018,5,11,13,48,24.209,0.5936,-0.5535,0.5803,-0.0661
0.062,-0.062,0.357,-35.1,181.5,13.6,0,2018,5,11,13,48,24.229,0.6051,-0.538,0.5804,-0.0853
0.009,0.031,0.199,-41.5,253.6,22.8,0,2018,5,11,13,48,24.233,0.6213,-0.5155,0.579,-0.1133
-0.038,0.207,0.119,-41.6,277.2,35,0,2018,5,11,13,48,24.253,0.6404,-0.4875,0.5747,-0.1478
0.117,0.084,-0.002,-37.9,189.5,26,0,2018,5,11,13,48,24.273,0.6554,-0.4622,0.5701,-0.1779
0.172,0.03,-0.016,-32,95.2,19.6,0,2018,5,11,13,48,24.31,0.662,-0.4471,0.5686,-0.1957
0.163,0.025,0.001,-26.3,59.6,14.2,0,2018,5,11,13,48,24.33,0.6643,-0.4389,0.5686,-0.2063
0.165,0.075,0.021,-18.7,43.7,4.7,0,2018,5,11,13,48,24.334,0.666,-0.4323,0.569,-0.2135
0.215,0.117,-0.068,-8.4,18.5,-0.7,0,2018,5,11,13,48,24.353,0.667,-0.428,0.5696,-0.2175
0.227,0.187,-0.066,2.3,-18.2,-3.2,0,2018,5,11,13,48,24.371,0.6668,-0.4277,0.5701,-0.2174
0.188,0.217,-0.05,12,-46,-3.5,0,2018,5,11,13,48,24.393,0.6651,-0.4317,0.5708,-0.2129
0.181,0.222,0.004,16.9,-47.7,-0.4,0,2018,5,11,13,48,24.412,0.6629,-0.4376,0.571,-0.2067
0.155,0.272,0.096,18.1,-41,4.9,0,2018,5,11,13,48,24.45,0.6613,-0.4436,0.5703,-0.2012
0.126,0.323,0.151,14.9,-47.4,10.6,0,2018,5,11,13,48,24.471,0.6594,-0.4499,0.5692,-0.1965
0.104,0.263,0.163,9.2,-68.8,12,0,2018,5,11,13,48,24.475,0.6555,-0.4582,0.5689,-0.191
0.117,0.185,0.183,2.5,-76.5,15,0,2018,5,11,13,48,24.514,0.6496,-0.4683,0.5697,-0.1846
0.113,0.163,0.236,-5.6,-71.8,18.5,0,2018,5,11,13,48,24.518,0.6427,-0.4783,0.5707,-0.1794
0.105,0.147,0.271,-15.1,-73.7,17.7,1023,2018,5,11,13,48,24.533,0.635,-0.4879,0.5726,-0.1751
0.125,0.093,0.169,-21,-75.1,16.6,1023,2018,5,11,13,48,24.57,0.6261,-0.4973,0.5755,-0.1711
0.146,0.04,0.136,-22.7,-65,15.4,1023,2018,5,11,13,48,24.591,0.6173,-0.5059,0.5785,-0.1676
0.137,0.059,0.178,-23.4,-52.9,15,1023,2018,5,11,13,48,24.596,0.6094,-0.513,0.5813,-0.1655
0.14,0.114,0.243,-28,-63.4,13,1023,2018,5,11,13,48,24.616,0.6012,-0.5197,0.5844,-0.1634
0.124,0.154,0.243,-33.8,-85.2,12.7,1023,2018,5,11,13,48,24.635,0.5909,-0.5278,0.5885,-0.1601
0.141,0.074,0.12,-35.9,-102.2,12.2,1023,2018,5,11,13,48,24.655,0.578,-0.538,0.5936,-0.1548
0.167,0.065,0.057,-30.6,-91.9,14,1023,2018,5,11,13,48,24.695,0.5647,-0.5483,0.5984,-0.1489
0.178,0.03,0.033,-22.1,-62,18.6,1023,2018,5,11,13,48,24.715,0.554,-0.5569,0.6014,-0.1449
0.19,-0.01,0.064,-13.5,-23.9,21.5,0,2018,5,11,13,48,24.719,0.5475,-0.5627,0.6022,-0.1441
0.164,-0.014,0.058,-6.1,15.8,25.7,0,2018,5,11,13,48,24.736,0.5456,-0.5652,0.6008,-0.147
0.158,-0.032,0.108,-0.4,49,26.4,0,2018,5,11,13,48,24.756,0.548,-0.5647,0.5977,-0.1533
0.12,0.058,0.194,-1,61.3,27.9,0,2018,5,11,13,48,24.777,0.5529,-0.5619,0.5934,-0.1621
0.119,0.056,0.154,-2.9,37.6,23.5,0,2018,5,11,13,48,24.793,0.5568,-0.5597,0.5897,-0.1698
0.136,0.031,0.15,-3.7,42.7,25.8,0,2018,5,11,13,48,24.811,0.5594,-0.5584,0.5865,-0.1763
