time_1,time_2,time_3,time_4,time_5,time_6,w,x,y,z,droll,dpitch,dyaw,ax,ay,az,heart
2018,4,25,20,47,1.84,0.9196,-0.0316,0.3603,-0.153,0,0.3,0.6,0.002,0.01,-0.001,0
2018,4,25,20,47,1.86,0.9196,-0.0316,0.3602,-0.1531,0,0.3,0.7,0.002,0.011,0,0
2018,4,25,20,47,1.881,0.9196,-0.0315,0.3601,-0.1531,0.3,0.5,0.5,0.002,0.006,-0.006,0
2018,4,25,20,47,1.919,0.9196,-0.0315,0.3601,-0.1532,0.7,0.6,0.5,0,0.01,-0.002,0
2018,4,25,20,47,1.923,0.9197,-0.0314,0.3599,-0.1534,-0.1,0.4,0.5,0.001,0.011,0.004,0
2018,4,25,20,47,1.94,0.9197,-0.0314,0.3599,-0.1534,0,0,0,-0.003,0.003,0,1023
2018,4,25,20,47,1.977,0.9198,-0.0313,0.3597,-0.1533,0.5,0.8,0.4,-0.001,0.01,-0.006,1023
2018,4,25,20,47,1.981,0.9198,-0.0311,0.3596,-0.1533,0.6,1.1,0.6,0,0.01,-0.003,1023
2018,4,25,20,47,1.997,0.9199,-0.031,0.3594,-0.1533,0.6,1.1,0.8,0.003,0.011,-0.003,1023
2018,4,25,20,47,2.035,0.92,-0.0308,0.3592,-0.1534,0.5,1.3,0.8,0,0.011,0.002,1023
2018,4,25,20,47,2.055,0.92,-0.0309,0.359,-0.1536,0.3,1.1,0.7,0.003,0.011,-0.001,1023
2018,4,25,20,47,2.059,0.9201,-0.0309,0.3588,-0.1537,0.3,1.2,0.5,0.004,0.012,-0.002,1023
2018,4,25,20,47,2.08,0.9201,-0.0308,0.3586,-0.1538,0.4,1.2,0.6,0.002,0.011,-0.005,1023
2018,4,25,20,47,2.102,0.9203,-0.0306,0.3584,-0.1537,0.4,1.2,0.6,0.002,0.009,-0.001,1023
2018,4,25,20,47,2.123,0.9203,-0.0304,0.3582,-0.1537,0.3,1.2,0.8,0,0.011,0,1023
2018,4,25,20,47,2.14,0.9204,-0.0304,0.3579,-0.1538,0.2,1.1,0.8,0,0.006,0,1023
2018,4,25,20,47,2.179,0.9205,-0.0305,0.3577,-0.1539,0.5,1.1,0.6,0,0.009,-0.004,0
2018,4,25,20,47,2.199,0.9206,-0.0303,0.3575,-0.1539,0.2,1.2,0.7,0.002,0.012,0,0
2018,4,25,20,47,2.203,0.9206,-0.0305,0.3573,-0.1542,0.3,1,0.7,0,0.007,0.01,0
2018,4,25,20,47,2.22,0.9207,-0.0304,0.3571,-0.1542,0.2,1.1,0.6,0,0.006,-0.002,0
2018,4,25,20,47,2.259,0.9207,-0.0303,0.3569,-0.1542,0.4,1,0.6,-0.003,0.01,0.001,0
2018,4,25,20,47,2.278,0.9208,-0.0302,0.3567,-0.1542,0.1,0.9,0.7,-0.001,0.012,-0.001,0
2018,4,25,20,47,2.282,0.9209,-0.0302,0.3565,-0.1543,0.3,1.1,0.6,0.002,0.017,-0.005,0
2018,4,25,20,47,2.303,0.921,-0.03,0.3563,-0.1543,0.4,1.2,0.7,0.001,0.013,-0.006,0
2018,4,25,20,47,2.323,0.921,-0.0299,0.3562,-0.1543,-0.1,1.1,0.8,0.002,0.015,0,0
2018,4,25,20,47,2.361,0.9211,-0.0301,0.356,-0.1544,-0.2,1,0.8,0.003,0.01,0,0
2018,4,25,20,47,2.382,0.9212,-0.03,0.3558,-0.1544,0,1,0.7,0.002,0.005,0,0
2018,4,25,20,47,2.386,0.9212,-0.0299,0.3557,-0.1543,0,0.9,0.7,0.002,0.009,0.003,0
2018,4,25,20,47,2.406,0.9213,-0.0299,0.3555,-0.1543,0,0.8,0.9,0.001,0.008,-0.001,0
2018,4,25,20,47,2.425,0.9213,-0.0299,0.3554,-0.1544,0,0.8,0.8,0,0.006,0.001,0
2018,4,25,20,47,2.441,0.9213,-0.0299,0.3552,-0.1546,0,0.8,0.7,0.002,0.007,-0.001,0
2018,4,25,20,47,2.46,0.9214,-0.0298,0.3551,-0.1545,0.1,0.6,0.6,0,0.008,-0.001,0
2018,4,25,20,47,2.48,0.9214,-0.0299,0.355,-0.1546,-0.1,0.8,0.7,0.002,0.005,-0.003,0
2018,4,25,20,47,2.519,0.9214,-0.03,0.3549,-0.1548,0,0.9,0.7,0.003,0.011,-0.004,0
2018,4,25,20,47,2.538,0.9215,-0.03,0.3547,-0.1549,0,1,0.7,0.003,0.009,0,0
2018,4,25,20,47,2.541,0.9215,-0.0299,0.3546,-0.1549,-0.1,0.8,0.8,0,0.006,-0.002,0
2018,4,25,20,47,2.564,0.9216,-0.03,0.3545,-0.1549,-0.2,0.8,0.7,0.001,0.011,-0.002,0
2018,4,25,20,47,2.584,0.9216,-0.0299,0.3544,-0.1549,-0.2,0.5,0.7,0.002,0.009,0,0
2018,4,25,20,47,2.605,0.9217,-0.03,0.3542,-0.155,-0.2,0.7,0.8,0.002,0.008,0.003,0
2018,4,25,20,47,2.624,0.9217,-0.0299,0.3541,-0.1549,-0.1,0.8,0.7,0.002,0.011,0.001,0
2018,4,25,20,47,2.659,0.9217,-0.0299,0.354,-0.155,0.1,0.6,0.6,0.003,0.007,-0.002,0
2018,4,25,20,47,2.681,0.9218,-0.0298,0.3539,-0.1549,-0.7,0.7,0.9,0.003,0.011,0,0
2018,4,25,20,47,2.685,0.9218,-0.03,0.3539,-0.1551,-0.3,0.4,0.8,0.001,0.005,0,0
2018,4,25,20,47,2.704,0.9218,-0.0299,0.3538,-0.155,0.1,0.4,0.7,0.002,0.007,0,0
2018,4,25,20,47,2.725,0.9218,-0.0299,0.3537,-0.1551,-0.2,0.2,0.6,0.002,0.011,0.004,1023
2018,4,25,20,47,2.76,0.9218,-0.0299,0.3537,-0.1551,-0.1,0.3,0.5,0,0.007,0,1023
2018,4,25,20,47,2.78,0.9219,-0.0298,0.3536,-0.1551,-0.1,0.4,0.5,0,0.013,0,1023
2018,4,25,20,47,2.784,0.9219,-0.0302,0.3535,-0.1554,-0.5,0.6,0.8,0,0.007,0.002,1023
2018,4,25,20,47,2.805,0.9219,-0.0302,0.3534,-0.1554,-0.1,0.4,0.9,0.003,0.005,0.002,1023
2018,4,25,20,47,2.842,0.9219,-0.0303,0.3533,-0.1555,0.3,0.6,0.5,0.004,0.009,-0.003,1023
2018,4,25,20,47,2.862,0.922,-0.03,0.3533,-0.1554,0,0.4,0.6,0.006,0.011,0,1023
2018,4,25,20,47,2.866,0.922,-0.0298,0.3533,-0.1552,-0.2,0.2,0.5,0.004,0.014,-0.001,1023
2018,4,25,20,47,2.906,0.922,-0.0299,0.3532,-0.1554,-0.4,0.3,0.7,0.002,0.01,-0.003,1023
2018,4,25,20,47,2.926,0.922,-0.03,0.3531,-0.1554,-0.2,0.4,0.7,0.001,0.009,-0.001,1023
2018,4,25,20,47,2.93,0.922,-0.0299,0.3531,-0.1554,-0.1,0.4,0.8,0,0.009,0.002,1023
2018,4,25,20,47,2.943,0.9221,-0.0299,0.353,-0.1554,-0.5,0.3,0.8,-0.002,0.009,-0.001,0
2018,4,25,20,47,2.983,0.9221,-0.03,0.353,-0.1554,-0.1,0.2,0.7,0.001,0.009,-0.002,0
2018,4,25,20,47,3.003,0.9221,-0.0299,0.3529,-0.1553,-0.2,0.1,0.7,0,0.009,0.003,0
2018,4,25,20,47,3.008,0.9221,-0.0299,0.3529,-0.1554,-0.3,0.3,0.6,0.001,0.008,0.001,0
2018,4,25,20,47,3.028,0.9221,-0.0298,0.3528,-0.1553,-0.1,0.2,0.6,0,0.009,0.001,0
2018,4,25,20,47,3.048,0.9222,-0.0298,0.3528,-0.1552,-0.4,0.1,0.5,0,0.008,-0.004,0
2018,4,25,20,47,3.069,0.9222,-0.0298,0.3528,-0.1552,-0.4,0,0.7,0.002,0.01,-0.003,0
2018,4,25,20,47,3.088,0.9222,-0.0298,0.3528,-0.1552,-0.1,0.3,0.6,0,0.013,0,0
2018,4,25,20,47,3.127,0.9222,-0.0298,0.3528,-0.1552,-0.2,0.4,0.6,0.003,0.013,-0.001,0
2018,4,25,20,47,3.147,0.9222,-0.0298,0.3527,-0.1553,-0.2,0.1,0.5,0.004,0.011,-0.001,0
2018,4,25,20,47,3.151,0.9222,-0.0297,0.3527,-0.1551,-0.3,0.1,0.7,0.002,0.011,0,0
2018,4,25,20,47,3.166,0.9222,-0.0298,0.3527,-0.1552,-0.2,0.1,0.5,0.002,0.009,0.003,0
2018,4,25,20,47,3.186,0.9222,-0.0298,0.3527,-0.1552,-0.2,0,0.7,0,0.011,0.004,0
2018,4,25,20,47,3.225,0.9222,-0.0297,0.3526,-0.1552,-0.3,0.3,0.7,0,0.009,-0.002,0
2018,4,25,20,47,3.247,0.9222,-0.0298,0.3526,-0.1553,-0.2,0.2,0.7,0.001,0.008,-0.001,0
2018,4,25,20,47,3.251,0.9223,-0.0297,0.3526,-0.1552,-0.1,0,0.5,0,0.008,0.002,0
2018,4,25,20,47,3.27,0.9223,-0.0297,0.3526,-0.1551,0,0,0.7,0.003,0.009,0,0
2018,4,25,20,47,3.289,0.9223,-0.0295,0.3526,-0.155,-0.2,0.1,0.5,0,0.013,0.001,0
2018,4,25,20,47,3.31,0.9223,-0.0293,0.3526,-0.1548,-0.2,0,0.5,0,0.009,0,0
2018,4,25,20,47,3.33,0.9223,-0.0295,0.3526,-0.155,-0.2,0.1,0.5,0,0.011,-0.001,0
2018,4,25,20,47,3.347,0.9223,-0.0295,0.3525,-0.1549,-0.1,0.3,0.5,0.001,0.01,0,0
2018,4,25,20,47,3.367,0.9223,-0.0295,0.3525,-0.155,0,0,0,0,0.011,0,0
2018,4,25,20,47,3.386,0.9223,-0.0295,0.3525,-0.155,-0.2,0.2,0.6,0,0.01,-0.001,0
2018,4,25,20,47,3.424,0.9223,-0.0295,0.3525,-0.155,-0.2,0,0.7,0,0.011,-0.002,0
2018,4,25,20,47,3.446,0.9223,-0.0297,0.3524,-0.1551,0,0,0,0,0.01,0,0
2018,4,25,20,47,3.449,0.9223,-0.0297,0.3524,-0.1552,-0.1,0.1,0.7,-0.001,0.01,0.002,0
2018,4,25,20,47,3.468,0.9223,-0.0298,0.3524,-0.1554,-0.6,0.1,0.8,0.001,0.013,0.008,0
2018,4,25,20,47,3.488,0.9223,-0.03,0.3523,-0.1554,-0.5,0,0.7,0.001,0.004,0.001,1023
2018,4,25,20,47,3.526,0.9223,-0.0301,0.3523,-0.1556,0.1,0,0.7,-0.001,0.013,-0.001,1023
2018,4,25,20,47,3.547,0.9223,-0.03,0.3523,-0.1556,-0.2,-0.1,0.5,0.001,0.007,0.003,1023
2018,4,25,20,47,3.551,0.9223,-0.0301,0.3523,-0.1556,0,0,0,0,0.006,-0.005,1023
2018,4,25,20,47,3.57,0.9223,-0.03,0.3523,-0.1555,0,0,0,0,0.012,-0.002,1023
2018,4,25,20,47,3.609,0.9223,-0.0299,0.3523,-0.1554,-0.5,0.1,0.7,0,0.007,-0.001,1023
2018,4,25,20,47,3.613,0.9224,-0.0297,0.3523,-0.1552,0,0.2,0.8,0.001,0.003,-0.002,1023
2018,4,25,20,47,3.63,0.9224,-0.0296,0.3523,-0.1552,0.4,0,0.7,0.004,0.01,-0.005,1023
2018,4,25,20,47,3.65,0.9224,-0.0296,0.3523,-0.1553,0.1,0.1,0.5,0.004,0.017,0,1023
2018,4,25,20,47,3.67,0.9224,-0.0296,0.3523,-0.1554,0,0,0,0.003,0.014,-0.001,1023
2018,4,25,20,47,3.706,0.9224,-0.0297,0.3522,-0.1555,-0.5,0.1,0.7,0.001,0.012,0.001,1023
2018,4,25,20,47,3.726,0.9224,-0.0297,0.3522,-0.1555,-0.1,0,0.6,0,0.008,0.001,0
2018,4,25,20,47,3.73,0.9224,-0.0297,0.3522,-0.1555,-0.1,0,0.6,0.003,0.008,0.003,0
2018,4,25,20,47,3.771,0.9224,-0.0298,0.3521,-0.1556,-0.4,0,0.6,0,0.008,0,0
2018,4,25,20,47,3.79,0.9223,-0.03,0.3521,-0.1557,-0.2,0.1,0.7,0.002,0.007,-0.005,0
2018,4,25,20,47,3.794,0.9223,-0.03,0.3521,-0.1557,-0.5,0,0.7,0.002,0.009,-0.002,0
2018,4,25,20,47,3.815,0.9223,-0.0301,0.3521,-0.1557,-0.6,0,0.7,0.004,0.008,0.005,0
2018,4,25,20,47,3.834,0.9223,-0.0302,0.3522,-0.1557,-0.6,-0.2,0.5,0,0.004,0.001,0
2018,4,25,20,47,3.85,0.9223,-0.0302,0.3522,-0.1557,-0.7,-0.2,0.5,0,0.007,0.006,0
2018,4,25,20,47,3.871,0.9223,-0.0303,0.3523,-0.1556,-0.4,-0.4,0.6,0.001,0.008,0.004,0
2018,4,25,20,47,3.89,0.9223,-0.0303,0.3524,-0.1556,-0.4,-0.4,0.7,0.002,0.009,0,0
2018,4,25,20,47,3.91,0.9222,-0.0303,0.3524,-0.1556,-0.7,-0.4,0.7,0.002,0.016,0,0
2018,4,25,20,47,3.932,0.9222,-0.0302,0.3526,-0.1554,-0.8,-0.6,0.5,0.005,0.013,-0.002,0
2018,4,25,20,47,3.951,0.9222,-0.0303,0.3527,-0.1554,-1,-0.5,0.5,0.004,0.011,0,0
2018,4,25,20,47,3.972,0.9221,-0.0305,0.3528,-0.1554,-0.9,-0.5,0.6,0.003,0.008,0,0
2018,4,25,20,47,4.009,0.922,-0.0307,0.3529,-0.1555,-0.9,-0.7,0.6,0.005,0.009,-0.001,0
2018,4,25,20,47,4.031,0.922,-0.0307,0.3531,-0.1554,-0.9,-0.8,0.5,0.003,0.007,0.002,0
2018,4,25,20,47,4.035,0.9219,-0.0309,0.3532,-0.1555,-0.6,-0.8,0.5,0.002,0.005,-0.001,0
2018,4,25,20,47,4.072,0.9219,-0.0308,0.3534,-0.1554,-0.7,-0.9,0.4,0,0.008,0,0
2018,4,25,20,47,4.076,0.9218,-0.0309,0.3536,-0.1554,-0.7,-1,0.4,0.001,0.004,-0.001,0
2018,4,25,20,47,4.09,0.9217,-0.031,0.3538,-0.1553,-0.6,-0.9,0.4,0.001,0.009,0,0
2018,4,25,20,47,4.113,0.9217,-0.031,0.354,-0.1553,-0.6,-0.9,0.3,0.003,0.009,0.002,0
2018,4,25,20,47,4.133,0.9216,-0.0309,0.3542,-0.1551,-0.6,-1,0.3,0.003,0.007,-0.002,0
2018,4,25,20,47,4.152,0.9216,-0.0309,0.3544,-0.1551,-0.7,-0.7,0.5,0.001,0.008,0,0
2018,4,25,20,47,4.174,0.9215,-0.0309,0.3545,-0.155,-0.6,-0.8,0.3,0.003,0.009,0,0
2018,4,25,20,47,4.194,0.9214,-0.0309,0.3547,-0.155,-0.7,-0.8,0.3,0.002,0.013,0.003,0
2018,4,25,20,47,4.215,0.9214,-0.0311,0.3549,-0.155,-0.7,-1,0.3,0.004,0.012,0,0
2018,4,25,20,47,4.235,0.9213,-0.0312,0.355,-0.155,-0.7,-1,0.3,0,0.01,-0.003,0
2018,4,25,20,47,4.269,0.9212,-0.0311,0.3553,-0.1549,-0.6,-1.1,0.2,0.003,0.012,0,1023
2018,4,25,20,47,4.29,0.9212,-0.031,0.3555,-0.1547,-0.7,-1.2,0.4,0.001,0.01,0,1023
2018,4,25,20,47,4.294,0.9211,-0.0311,0.3557,-0.1548,0,-1,0.3,0.003,0.003,-0.005,1023
2018,4,25,20,47,4.33,0.921,-0.031,0.3559,-0.1547,-0.4,-0.9,0.5,0.004,0.016,0.001,1023
2018,4,25,20,47,4.351,0.921,-0.0309,0.3561,-0.1545,-1,-1.1,0.3,0.001,0.005,0,1023
2018,4,25,20,47,4.356,0.921,-0.0307,0.3564,-0.1541,-1,-1.1,0,-0.002,0.008,0,1023
2018,4,25,20,47,4.376,0.9209,-0.0309,0.3565,-0.1541,-1.2,-1.1,0.1,0,0.012,0.002,1023
2018,4,25,20,47,4.396,0.9208,-0.031,0.3567,-0.1541,-0.6,-1.2,0.3,0,0.005,-0.005,1023
2018,4,25,20,47,4.434,0.9207,-0.0311,0.3569,-0.1541,-0.2,-1,0.5,0.004,0.008,-0.003,1023
2018,4,25,20,47,4.455,0.9207,-0.0311,0.3571,-0.1541,-0.3,-1.1,0.4,0.004,0.012,0.003,1023
2018,4,25,20,47,4.46,0.9206,-0.031,0.3574,-0.1541,-0.4,-0.9,0.3,0.004,0.009,0,1023
2018,4,25,20,47,4.477,0.9205,-0.031,0.3576,-0.154,-0.5,-0.9,0.2,0,0.013,-0.002,0
2018,4,25,20,47,4.514,0.9204,-0.0312,0.3577,-0.1541,-0.3,-0.9,0.2,0.001,0.014,-0.003,0
2018,4,25,20,47,4.536,0.9203,-0.0313,0.3579,-0.1542,-0.4,-0.9,0.4,0.003,0.009,-0.005,0
2018,4,25,20,47,4.538,0.9203,-0.0311,0.3581,-0.1541,-0.6,-1.1,0.3,0.001,0.008,-0.001,0
2018,4,25,20,47,4.577,0.9202,-0.0312,0.3583,-0.1541,0,-1.1,0.3,-0.001,0.008,-0.005,0
2018,4,25,20,47,4.582,0.9202,-0.0312,0.3584,-0.1541,-0.2,-1,0.2,0.002,0.012,0,0
2018,4,25,20,47,4.597,0.9201,-0.0312,0.3585,-0.1541,-0.7,-1,0.3,0.005,0.008,0.002,0
2018,4,25,20,47,4.615,0.92,-0.0313,0.3587,-0.154,-0.7,-0.9,0.3,0.001,0.006,-0.003,0
2018,4,25,20,47,4.653,0.92,-0.0315,0.3589,-0.1542,-0.2,-1,0.1,0,0.006,-0.001,0
2018,4,25,20,47,4.673,0.9199,-0.0313,0.359,-0.154,-0.4,-1.1,0.2,0,0.01,0,0
2018,4,25,20,47,4.677,0.9199,-0.0312,0.3592,-0.1539,-0.3,-1.2,0.3,0,0.013,-0.002,0
2018,4,25,20,47,4.698,0.9198,-0.0313,0.3594,-0.1539,-0.2,-0.9,0.2,0.003,0.01,-0.004,0
2018,4,25,20,47,4.718,0.9197,-0.0312,0.3596,-0.1539,-0.2,-0.9,0.3,0,0.013,0,0
2018,4,25,20,47,4.756,0.9197,-0.031,0.3598,-0.1537,-0.3,-1,0.3,0.002,0.012,-0.004,0
2018,4,25,20,47,4.776,0.9196,-0.0311,0.36,-0.1538,-0.7,-0.9,0.2,0.005,0.012,0.002,0
2018,4,25,20,47,4.78,0.9195,-0.0311,0.3602,-0.1537,-0.5,-0.8,0.3,0.001,0.012,0,0
2018,4,25,20,47,4.797,0.9195,-0.0311,0.3603,-0.1537,-0.5,-0.9,0.3,0.002,0.01,-0.002,0
2018,4,25,20,47,4.816,0.9194,-0.0311,0.3605,-0.1537,-0.1,-1,0.4,-0.001,0.006,0,0
2018,4,25,20,47,4.839,0.9193,-0.031,0.3607,-0.1537,-0.1,-1.2,0.3,0.003,0.009,-0.003,0
2018,4,25,20,47,4.858,0.9193,-0.031,0.3609,-0.1536,0.1,-1,0.2,0,0.007,-0.001,0
2018,4,25,20,47,4.878,0.9192,-0.0308,0.3611,-0.1536,0.1,-0.9,0.1,0.002,0.011,0,0
2018,4,25,20,47,4.916,0.9192,-0.0306,0.3613,-0.1535,0.2,-0.9,0.2,0.002,0.01,-0.003,0
2018,4,25,20,47,4.936,0.9191,-0.0304,0.3614,-0.1533,0,-0.7,0.3,0.001,0.01,-0.002,0
2018,4,25,20,47,4.941,0.9191,-0.0303,0.3615,-0.1533,0,0,0,0.002,0.01,-0.003,0
2018,4,25,20,47,4.96,0.9191,-0.0303,0.3615,-0.1533,0,0,0,0.001,0.008,0,0
2018,4,25,20,47,4.981,0.9191,-0.0303,0.3615,-0.1533,0,0,0,0.001,0.011,-0.004,0
2018,4,25,20,47,4.996,0.9191,-0.0302,0.3615,-0.1533,0,0,0,0.002,0.015,0.004,0
2018,4,25,20,47,5.036,0.9191,-0.0301,0.3615,-0.1532,0,0.1,0.5,0,0.014,0,1023
2018,4,25,20,47,5.055,0.9191,-0.0299,0.3615,-0.1531,-0.2,0.1,0.6,0.002,0.009,-0.001,1023
2018,4,25,20,47,5.059,0.9191,-0.0299,0.3615,-0.1531,0.4,0.3,0.6,0.001,0.005,-0.006,1023
2018,4,25,20,47,5.079,0.9191,-0.0299,0.3614,-0.1533,0.3,0.4,0.5,0.003,0.018,-0.002,1023
2018,4,25,20,47,5.099,0.9192,-0.0299,0.3614,-0.1534,0,0,0,0,0.005,0.002,1023
2018,4,25,20,47,5.119,0.9192,-0.03,0.3613,-0.1534,0,0,0,-0.001,0.005,0,1023
2018,4,25,20,47,5.159,0.9192,-0.03,0.3613,-0.1535,0.3,0.6,0.4,-0.001,0.012,-0.004,1023
2018,4,25,20,47,5.178,0.9192,-0.0299,0.3613,-0.1534,0.5,0.6,0.6,0.001,0.006,-0.009,1023
2018,4,25,20,47,5.182,0.9192,-0.0297,0.3612,-0.1535,0.7,0.8,0.7,0.001,0.014,-0.006,1023
2018,4,25,20,47,5.202,0.9193,-0.0295,0.361,-0.1534,0.4,0.8,0.5,0.002,0.014,0,1023
2018,4,25,20,47,5.221,0.9193,-0.0294,0.3609,-0.1535,0.1,0.9,0.6,0,0.011,-0.004,0
2018,4,25,20,47,5.26,0.9194,-0.0293,0.3608,-0.1535,0.1,1,0.6,0.004,0.014,0,0
2018,4,25,20,47,5.28,0.9194,-0.0294,0.3606,-0.1536,0,1.1,0.7,0.002,0.008,-0.002,0
2018,4,25,20,47,5.284,0.9195,-0.0292,0.3604,-0.1535,0.3,1.1,0.7,0,0.009,0,0
2018,4,25,20,47,5.3,0.9196,-0.0293,0.3602,-0.1537,0.4,1.1,0.7,0,0.009,-0.006,0
2018,4,25,20,47,5.32,0.9196,-0.0293,0.36,-0.1538,0.2,1.3,0.6,0,0.006,-0.001,0
2018,4,25,20,47,5.34,0.9197,-0.0293,0.3598,-0.1539,0.1,1.4,0.6,0.001,0.013,0,0
2018,4,25,20,47,5.38,0.9198,-0.0294,0.3595,-0.1541,-0.1,1.2,0.7,0,0.008,0,0
2018,4,25,20,47,5.401,0.9199,-0.0293,0.3593,-0.154,0.1,1.4,0.7,0.001,0.007,0,0
2018,4,25,20,47,5.405,0.92,-0.0292,0.3591,-0.154,0.3,1.2,0.7,-0.003,0.008,0,0
2018,4,25,20,47,5.44,0.9201,-0.0291,0.3589,-0.154,0.4,1.3,0.7,0.002,0.008,0.001,0
2018,4,25,20,47,5.46,0.9202,-0.0289,0.3586,-0.154,0.4,1.5,0.9,0,0.012,-0.004,0
2018,4,25,20,47,5.464,0.9203,-0.0289,0.3584,-0.154,0.2,1.6,0.9,0.002,0.014,-0.002,0
2018,4,25,20,47,5.481,0.9204,-0.0288,0.3581,-0.154,0,1.5,1,0.001,0.015,-0.001,0
2018,4,25,20,47,5.52,0.9204,-0.029,0.3578,-0.1543,-0.4,1.4,0.8,0.003,0.01,0.003,0
2018,4,25,20,47,5.541,0.9205,-0.0288,0.3576,-0.1541,-0.2,1.2,0.7,0.001,0.004,0.004,0
2018,4,25,20,47,5.545,0.9206,-0.0287,0.3575,-0.1539,0,1.1,0.5,0.003,0.009,0.001,0
2018,4,25,20,47,5.562,0.9207,-0.0288,0.3573,-0.1541,0.2,1.1,0.5,0.001,0.006,0.002,0
2018,4,25,20,47,5.596,0.9207,-0.0289,0.3571,-0.1543,0.5,0.8,0.7,-0.001,0.009,0.002,0
2018,4,25,20,47,5.619,0.9208,-0.0289,0.3569,-0.1545,0.5,1.2,0.7,0.002,0.01,-0.002,0
2018,4,25,20,47,5.623,0.9208,-0.0288,0.3567,-0.1545,0.4,1.4,0.7,-0.001,0.01,-0.001,0
2018,4,25,20,47,5.643,0.9209,-0.0288,0.3564,-0.1546,0.3,1.2,0.8,0.002,0.011,-0.001,0
2018,4,25,20,47,5.665,0.921,-0.0289,0.3562,-0.1549,0,1.4,0.7,0.001,0.009,0.003,0
2018,4,25,20,47,5.685,0.921,-0.0289,0.356,-0.1549,-0.1,1.1,0.8,0.003,0.007,0,0
2018,4,25,20,47,5.704,0.9211,-0.029,0.3557,-0.1551,0,0.9,0.8,0.003,0.007,0,0
2018,4,25,20,47,5.723,0.9212,-0.0288,0.3556,-0.1548,0.1,0.9,0.7,0.002,0.008,0.003,0
2018,4,25,20,47,5.742,0.9213,-0.0286,0.3554,-0.1547,0.1,1.1,0.5,0,0.008,0.001,0
2018,4,25,20,47,5.762,0.9214,-0.0285,0.3552,-0.1547,0,1.1,0.7,0.002,0.009,-0.001,0
2018,4,25,20,47,5.8,0.9214,-0.0286,0.355,-0.1548,0.1,0.9,0.7,0,0.013,-0.005,1023
2018,4,25,20,47,5.821,0.9215,-0.0284,0.3549,-0.1548,-0.2,1,1,0.001,0.013,0.001,1023
2018,4,25,20,47,5.825,0.9216,-0.0284,0.3548,-0.1547,-0.2,0.8,0.8,0.004,0.009,0,1023
2018,4,25,20,47,5.861,0.9216,-0.0284,0.3546,-0.1548,0.3,0.7,0.8,0.001,0.013,0,1023
2018,4,25,20,47,5.888,0.9216,-0.0285,0.3545,-0.155,-0.1,0.8,0.7,0.001,0.008,0,1023
2018,4,25,20,47,5.91,0.9217,-0.0285,0.3543,-0.155,0,0.9,0.5,0.001,0.006,-0.002,1023
2018,4,25,20,47,5.912,0.9217,-0.0286,0.3542,-0.1551,0,0.9,0.5,0.002,0.011,-0.002,1023
2018,4,25,20,47,5.926,0.9218,-0.0283,0.354,-0.1548,-0.4,1.1,0.7,-0.001,0.01,0,1023
2018,4,25,20,47,5.963,0.9219,-0.0284,0.3539,-0.1549,-0.3,1,0.9,0,0.007,0,1023
2018,4,25,20,47,5.984,0.9219,-0.0285,0.3537,-0.1549,0.1,0.9,0.8,0.002,0.007,0.002,1023
2018,4,25,20,47,5.987,0.9219,-0.0286,0.3536,-0.1552,0.1,0.6,0.8,0.005,0.011,0.001,0
2018,4,25,20,47,6.003,0.9219,-0.0286,0.3535,-0.1553,-0.2,0.5,0.7,0.003,0.011,-0.001,0
2018,4,25,20,47,6.04,0.922,-0.0286,0.3534,-0.1552,-0.3,0.6,0.6,0.005,0.008,0,0
2018,4,25,20,47,6.06,0.922,-0.0286,0.3533,-0.1552,0,0.7,0.7,0.001,0.011,-0.001,0
2018,4,25,20,47,6.064,0.922,-0.0287,0.3532,-0.1554,-0.1,0.6,0.7,0.001,0.01,-0.002,0
2018,4,25,20,47,6.1,0.9221,-0.0286,0.3531,-0.1553,-0.3,0.6,0.7,0,0.009,0,0
2018,4,25,20,47,6.119,0.9221,-0.0285,0.3531,-0.1552,-0.2,0.6,0.7,0.004,0.007,0,0
2018,4,25,20,47,6.125,0.9221,-0.0285,0.353,-0.1552,-0.1,0.4,0.8,0.005,0.012,-0.001,0
2018,4,25,20,47,6.161,0.9221,-0.0287,0.3529,-0.1554,-0.2,0.4,0.7,0.001,0.011,0,0
2018,4,25,20,47,6.181,0.9222,-0.0287,0.3528,-0.1553,-0.1,0.1,0.8,0.002,0.008,0,0
2018,4,25,20,47,6.184,0.9222,-0.0287,0.3528,-0.1554,-0.4,0.2,0.6,0.001,0.008,0,0
2018,4,25,20,47,6.202,0.9222,-0.0287,0.3528,-0.1553,-0.3,0,0.6,0,0.009,-0.004,0
2018,4,25,20,47,6.225,0.9222,-0.0286,0.3528,-0.1552,-0.1,0.2,0.7,0.001,0.01,-0.003,0
2018,4,25,20,47,6.259,0.9223,-0.0284,0.3527,-0.1551,-0.1,0.3,0.7,0,0.012,0,0
2018,4,25,20,47,6.279,0.9223,-0.0284,0.3527,-0.1551,-0.4,0.3,0.6,0.004,0.01,-0.002,0
2018,4,25,20,47,6.286,0.9223,-0.0284,0.3527,-0.155,-0.3,0.2,0.6,0.003,0.01,-0.002,0
2018,4,25,20,47,6.323,0.9223,-0.0284,0.3527,-0.155,-0.2,0.3,0.5,0.002,0.009,-0.006,0
2018,4,25,20,47,6.343,0.9223,-0.0284,0.3527,-0.1549,-0.3,0.2,0.6,0.001,0.012,-0.002,0
2018,4,25,20,47,6.348,0.9223,-0.0284,0.3527,-0.1549,-0.3,0.2,0.6,0,0.008,-0.002,0
2018,4,25,20,47,6.369,0.9223,-0.0286,0.3526,-0.1551,-0.2,0,0.7,0.003,0.009,-0.006,0
2018,4,25,20,47,6.388,0.9223,-0.0287,0.3526,-0.1552,-0.2,0.3,0.7,0.004,0.007,0,0
2018,4,25,20,47,6.404,0.9223,-0.0288,0.3526,-0.1553,-0.1,0.1,0.7,0,0.011,-0.002,0
2018,4,25,20,47,6.441,0.9223,-0.0288,0.3526,-0.1554,-0.1,0.1,0.5,0.001,0.008,-0.003,0
2018,4,25,20,47,6.459,0.9223,-0.0288,0.3525,-0.1553,-0.1,0.2,0.7,0.001,0.009,0.003,0
2018,4,25,20,47,6.467,0.9223,-0.0288,0.3525,-0.1553,-0.2,0.3,0.7,0.004,0.009,-0.002,0
2018,4,25,20,47,6.485,0.9223,-0.0286,0.3526,-0.1551,-0.2,0.1,0.5,0.001,0.007,-0.003,0
2018,4,25,20,47,6.506,0.9223,-0.0286,0.3526,-0.155,-0.3,0.3,0.6,0.001,0.008,-0.002,0
2018,4,25,20,47,6.543,0.9223,-0.0286,0.3525,-0.1551,-0.3,0.1,0.6,0.002,0.01,-0.002,0
2018,4,25,20,47,6.564,0.9223,-0.0288,0.3525,-0.1552,-0.2,0.3,0.6,0.002,0.008,-0.004,1023
2018,4,25,20,47,6.569,0.9223,-0.0289,0.3524,-0.1554,-0.6,0,0.7,0.005,0.016,0.004,1023
2018,4,25,20,47,6.606,0.9224,-0.0288,0.3524,-0.1551,-0.4,0.1,0.8,0.001,0.006,-0.001,1023
2018,4,25,20,47,6.624,0.9224,-0.0287,0.3525,-0.1551,-0.1,0,0.8,0,0.011,0,1023
2018,4,25,20,47,6.63,0.9224,-0.0287,0.3524,-0.1551,-0.5,-0.1,0.4,0,0.01,0.003,1023
2018,4,25,20,47,6.645,0.9224,-0.0287,0.3525,-0.155,0,0,0,-0.005,0.007,0,1023
2018,4,25,20,47,6.683,0.9224,-0.0288,0.3524,-0.1551,-0.2,0.1,0.5,-0.001,0.011,0,1023
2018,4,25,20,47,6.703,0.9224,-0.0289,0.3524,-0.1552,-0.4,0.1,0.8,0.002,0.01,0.002,1023
2018,4,25,20,47,6.708,0.9224,-0.029,0.3524,-0.1553,0,0.1,0.8,0.001,0.006,0.001,1023
2018,4,25,20,47,6.746,0.9224,-0.0289,0.3523,-0.1553,0.2,0.2,0.6,0,0.009,-0.002,1023
2018,4,25,20,47,6.764,0.9224,-0.0288,0.3523,-0.1553,-0.1,0.1,0.5,0.003,0.011,0,0
2018,4,25,20,47,6.767,0.9224,-0.0287,0.3523,-0.1552,-0.4,0.1,0.5,0,0.014,-0.003,0
2018,4,25,20,47,6.804,0.9224,-0.0289,0.3523,-0.1554,-0.4,0,0.7,0,0.008,-0.002,0
2018,4,25,20,47,6.825,0.9223,-0.029,0.3523,-0.1555,-0.2,0.1,0.6,0.002,0.011,-0.001,0
2018,4,25,20,47,6.829,0.9224,-0.0289,0.3523,-0.1554,-0.1,0.2,0.5,-0.001,0.011,-0.005,0
2018,4,25,20,47,6.867,0.9224,-0.0289,0.3523,-0.1554,-0.4,0,0.5,-0.001,0.006,0.003,0
2018,4,25,20,47,6.888,0.9224,-0.0289,0.3523,-0.1554,-0.2,0,0.5,0,0.007,-0.004,0
2018,4,25,20,47,6.89,0.9224,-0.0291,0.3523,-0.1555,-0.2,0.2,0.7,0.003,0.01,0,0
2018,4,25,20,47,6.926,0.9224,-0.0291,0.3522,-0.1555,-0.2,0,0.6,0.002,0.007,0.002,0
2018,4,25,20,47,6.945,0.9224,-0.0291,0.3522,-0.1555,-0.2,0,0.5,0,0.007,0.001,0
2018,4,25,20,47,6.948,0.9224,-0.029,0.3522,-0.1555,-0.2,0.1,0.6,-0.002,0.009,0.001,0
2018,4,25,20,47,6.989,0.9224,-0.0292,0.3522,-0.1556,-0.4,0,0.5,0.002,0.006,-0.002,0
2018,4,25,20,47,7.011,0.9224,-0.0291,0.3522,-0.1556,0,0.1,0.7,0,0.012,-0.002,0
2018,4,25,20,47,7.015,0.9224,-0.0289,0.3522,-0.1554,-0.2,0,0.5,0.002,0.013,0,0
2018,4,25,20,47,7.032,0.9224,-0.0289,0.3522,-0.1554,-0.2,0,0.5,0.002,0.012,0.001,0
2018,4,25,20,47,7.073,0.9224,-0.0289,0.3523,-0.1554,-0.2,0,0.5,0.002,0.011,0.001,0
2018,4,25,20,47,7.077,0.9224,-0.0289,0.3523,-0.1554,-0.4,0,0.5,0.001,0.009,-0.002,0
2018,4,25,20,47,7.093,0.9224,-0.0288,0.3523,-0.1552,-0.2,0,0.6,0.001,0.011,0,0
2018,4,25,20,47,7.111,0.9224,-0.0289,0.3523,-0.1553,-0.4,0.1,0.8,0.001,0.01,-0.001,0
2018,4,25,20,47,7.13,0.9224,-0.0289,0.3523,-0.1553,-0.1,0,0.6,0.001,0.007,-0.002,0
2018,4,25,20,47,7.151,0.9224,-0.029,0.3522,-0.1554,0,0,0.5,0,0.009,-0.003,0
2018,4,25,20,47,7.188,0.9224,-0.0291,0.3522,-0.1556,-0.1,0,0.6,0.001,0.008,0.004,0
2018,4,25,20,47,7.209,0.9223,-0.0293,0.3522,-0.1558,-0.1,0,0.5,0.001,0.007,-0.004,0
2018,4,25,20,47,7.211,0.9223,-0.0294,0.3521,-0.1559,-0.1,0.1,0.5,0.001,0.01,-0.002,0
2018,4,25,20,47,7.249,0.9223,-0.0294,0.3521,-0.1559,-0.2,0,0.6,0.002,0.011,0.005,0
2018,4,25,20,47,7.27,0.9223,-0.0294,0.3521,-0.156,-0.2,0.1,0.5,0.001,0.01,0,0
2018,4,25,20,47,7.273,0.9223,-0.0295,0.3521,-0.156,-0.3,0,0.5,0,0.012,0.002,0
2018,4,25,20,47,7.293,0.9223,-0.0295,0.352,-0.1561,-0.1,0.1,0.6,0,0.009,-0.004,0
2018,4,25,20,47,7.312,0.9223,-0.0295,0.352,-0.1562,-0.3,0,0.7,0.004,0.013,0,1023
2018,4,25,20,47,7.331,0.9223,-0.0297,0.352,-0.1563,-0.6,0,0.7,0.003,0.012,0.003,1023
2018,4,25,20,47,7.35,0.9223,-0.0296,0.3521,-0.1562,-0.1,0,0.6,0.001,0.004,-0.001,1023
2018,4,25,20,47,7.389,0.9223,-0.0297,0.352,-0.1563,-0.1,0,0.6,0,0.014,0.001,1023
2018,4,25,20,47,7.41,0.9223,-0.0297,0.352,-0.1563,0,0,0,0,0.005,0.003,1023
2018,4,25,20,47,7.412,0.9223,-0.0297,0.352,-0.1563,0,0,0,0,0.007,-0.005,1023
2018,4,25,20,47,7.45,0.9223,-0.0296,0.352,-0.1562,-0.2,0.2,0.6,0,0.011,-0.001,1023
2018,4,25,20,47,7.468,0.9223,-0.0297,0.352,-0.1563,0,0.1,0.7,0.001,0.007,0,1023
2018,4,25,20,47,7.474,0.9223,-0.0296,0.352,-0.1562,0.3,0,0.5,0.005,0.009,-0.001,1023
2018,4,25,20,47,7.511,0.9223,-0.0294,0.352,-0.1562,0,0,0,0.004,0.016,0,1023
2018,4,25,20,47,7.532,0.9223,-0.0293,0.3521,-0.1562,0,0,0,0.005,0.014,-0.003,1023
2018,4,25,20,47,7.534,0.9223,-0.0291,0.3521,-0.156,-0.3,0.1,0.5,0,0.01,-0.001,0
2018,4,25,20,47,7.575,0.9223,-0.0291,0.3521,-0.156,-0.2,0.1,0.7,0.001,0.008,-0.002,0
2018,4,25,20,47,7.594,0.9223,-0.0292,0.3521,-0.156,-0.2,0.3,0.6,0.002,0.007,-0.001,0
2018,4,25,20,47,7.596,0.9223,-0.0291,0.3521,-0.156,-0.4,0.2,0.6,0.001,0.01,0,0
2018,4,25,20,47,7.613,0.9223,-0.0293,0.352,-0.1561,-0.2,0,0.5,0,0.008,0.003,0
2018,4,25,20,47,7.634,0.9224,-0.0292,0.352,-0.156,-0.2,0.1,0.6,0.002,0.01,-0.006,0
2018,4,25,20,47,7.672,0.9224,-0.0291,0.352,-0.156,-0.2,0,0.5,0,0.009,0,0
2018,4,25,20,47,7.69,0.9224,-0.0292,0.352,-0.156,-0.4,0,0.5,0,0.008,0.002,0
2018,4,25,20,47,7.692,0.9224,-0.0292,0.352,-0.1559,-0.4,-0.1,0.5,0,0.012,0.001,0
2018,4,25,20,47,7.733,0.9224,-0.0292,0.352,-0.1559,-0.4,0,0.5,0,0.008,0,0
2018,4,25,20,47,7.753,0.9224,-0.0293,0.352,-0.156,-0.6,0,0.7,0,0.007,0,0
2018,4,25,20,47,7.757,0.9224,-0.0293,0.352,-0.1559,-0.4,0,0.6,0,0.011,0,0
2018,4,25,20,47,7.795,0.9224,-0.0293,0.3521,-0.1559,-0.6,0,0.7,0.001,0.01,-0.003,0
2018,4,25,20,47,7.815,0.9223,-0.0293,0.3521,-0.1559,-0.6,0.1,0.5,0.002,0.011,-0.003,0
2018,4,25,20,47,7.817,0.9223,-0.0294,0.3521,-0.1559,-0.6,0,0.5,0.001,0.009,0.001,0
2018,4,25,20,47,7.836,0.9223,-0.0295,0.3521,-0.1559,-0.3,0.1,0.6,0.002,0.009,0.002,0
2018,4,25,20,47,7.855,0.9223,-0.0294,0.3522,-0.1558,-0.3,0,0.7,0.001,0.012,-0.004,0
2018,4,25,20,47,7.892,0.9223,-0.0294,0.3522,-0.1558,-0.4,0,0.7,0.001,0.007,0,0
2018,4,25,20,47,7.913,0.9223,-0.0294,0.3522,-0.1558,-0.2,0.1,0.7,0,0.005,0,0
2018,4,25,20,47,7.915,0.9223,-0.0295,0.3522,-0.1559,0,0,0.7,0,0.005,0.001,0
2018,4,25,20,47,7.95,0.9223,-0.0297,0.3521,-0.1561,0,0,0.5,0.001,0.01,-0.002,0
2018,4,25,20,47,7.97,0.9223,-0.0295,0.3521,-0.156,-0.1,-0.1,0.5,0.002,0.008,-0.002,1023
2018,4,25,20,47,7.978,0.9223,-0.0294,0.3521,-0.1559,-0.1,0,0.6,0.003,0.008,-0.002,1023
2018,4,25,20,47,8.013,0.9223,-0.0294,0.3521,-0.1559,0,0.1,0.5,0,0.01,0.001,1023
2018,4,25,20,47,8.034,0.9223,-0.0295,0.3521,-0.1561,0,0,0.5,0.003,0.009,0.002,1023
2018,4,25,20,47,8.038,0.9223,-0.0293,0.3521,-0.1559,0,0,0,0.002,0.008,-0.002,1023
2018,4,25,20,47,8.076,0.9223,-0.0293,0.3521,-0.1559,0,0,0,0,0.01,-0.001,1023
2018,4,25,20,47,8.078,0.9223,-0.0292,0.3521,-0.1559,0,0.1,0.5,0,0.008,0,1023
2018,4,25,20,47,8.097,0.9223,-0.0293,0.3521,-0.156,-0.6,-0.1,0.6,0.002,0.01,0.004,1023
2018,4,25,20,47,8.134,0.9223,-0.0294,0.3521,-0.156,-0.4,0,0.8,0.001,0.004,-0.004,1023
2018,4,25,20,47,8.154,0.9223,-0.0295,0.3521,-0.1562,0.1,0,0.7,0,0.012,0,1023
2018,4,25,20,47,8.158,0.9223,-0.0294,0.3521,-0.1561,-0.4,-0.2,0.5,0,0.007,0.002,1023
2018,4,25,20,47,8.196,0.9223,-0.0295,0.3521,-0.1561,0,0,0,-0.001,0.001,-0.001,1023
2018,4,25,20,47,8.216,0.9223,-0.0295,0.3521,-0.1561,0,0.3,0.5,-0.001,0.011,0,1023
2018,4,25,20,47,8.218,0.9223,-0.0294,0.3521,-0.1561,-0.3,0,0.7,0.001,0.007,-0.004,1023
2018,4,25,20,47,8.257,0.9223,-0.0294,0.3521,-0.1561,0.1,0,0.7,0.001,0.007,-0.006,1023
2018,4,25,20,47,8.277,0.9223,-0.0293,0.3521,-0.1561,0.3,0.1,0.5,0.002,0.011,0,1023
2018,4,25,20,47,8.279,0.9223,-0.0292,0.3521,-0.1561,0,0.1,0.5,0.001,0.012,0.003,1023
2018,4,25,20,47,8.315,0.9223,-0.0292,0.3521,-0.1562,-0.4,0,0.6,0.001,0.009,-0.001,0
2018,4,25,20,47,8.336,0.9223,-0.0291,0.3521,-0.156,-0.4,0.1,0.6,-0.001,0.008,-0.001,0
2018,4,25,20,47,8.34,0.9223,-0.029,0.3521,-0.1558,-0.4,0,0.5,0,0.008,-0.001,0
2018,4,25,20,47,8.377,0.9224,-0.029,0.3521,-0.1558,-0.1,0.1,0.6,0.001,0.009,0,0
2018,4,25,20,47,8.396,0.9224,-0.0291,0.3521,-0.1559,-0.4,0,0.5,0,0.007,-0.001,0
2018,4,25,20,47,8.398,0.9224,-0.0291,0.3521,-0.1559,-0.1,0.1,0.6,0.001,0.012,-0.004,0
2018,4,25,20,47,8.433,0.9224,-0.0289,0.3521,-0.1557,-0.5,0,0.7,0,0.007,0,0
2018,4,25,20,47,8.454,0.9224,-0.0288,0.3521,-0.1556,-0.2,0,0.7,0.003,0.005,-0.002,0
2018,4,25,20,47,8.458,0.9224,-0.0287,0.3522,-0.1554,-0.2,0,0.5,0,0.008,-0.003,0
2018,4,25,20,47,8.497,0.9224,-0.0287,0.3522,-0.1554,-0.4,0.1,0.6,0,0.006,0.002,0
2018,4,25,20,47,8.517,0.9224,-0.0289,0.3521,-0.1556,-0.2,0,0.6,0,0.008,0,0
2018,4,25,20,47,8.521,0.9224,-0.0288,0.3521,-0.1555,0,-0.1,0.5,0.001,0.012,-0.002,0
2018,4,25,20,47,8.557,0.9224,-0.0289,0.3521,-0.1557,0,0,0,0.002,0.011,-0.002,1023
2018,4,25,20,47,8.578,0.9224,-0.0288,0.3521,-0.1556,0,0,0,0.001,0.013,-0.002,1023
2018,4,25,20,47,8.582,0.9224,-0.0288,0.3521,-0.1556,-0.2,0,0.5,0,0.01,0.001,1023
2018,4,25,20,47,8.599,0.9224,-0.0288,0.3522,-0.1556,-0.2,0,0.6,0,0.011,0,1023
2018,4,25,20,47,8.619,0.9224,-0.0288,0.3522,-0.1556,-0.2,0,0.7,0,0.012,-0.003,1023
2018,4,25,20,47,8.655,0.9224,-0.029,0.3521,-0.1558,-0.3,0.2,0.6,0.001,0.008,-0.002,1023
2018,4,25,20,47,8.677,0.9224,-0.0289,0.3521,-0.1556,-0.2,0,0.5,0,0.006,0,1023
2018,4,25,20,47,8.681,0.9224,-0.0289,0.3521,-0.1557,0,0,0.6,0,0.007,0,0
2018,4,25,20,47,8.719,0.9224,-0.0288,0.3521,-0.1556,0,0,0,0.004,0.009,-0.006,0
2018,4,25,20,47,8.74,0.9224,-0.0288,0.3521,-0.1556,-0.1,0,0.5,0,0.008,-0.001,0
2018,4,25,20,47,8.742,0.9224,-0.0288,0.3521,-0.1556,-0.1,0,0.5,0,0.007,0,0
2018,4,25,20,47,8.779,0.9224,-0.0289,0.3521,-0.1556,-0.2,0.1,0.5,0,0.008,-0.004,0
2018,4,25,20,47,8.798,0.9224,-0.029,0.3521,-0.1557,-0.2,0.1,0.5,0.003,0.009,-0.001,0
2018,4,25,20,47,8.802,0.9224,-0.029,0.3521,-0.1558,-0.2,0,0.5,0.001,0.008,0,0
2018,4,25,20,47,8.841,0.9224,-0.029,0.352,-0.1558,-0.3,0.1,0.5,0,0.012,0,0
2018,4,25,20,47,8.843,0.9224,-0.0289,0.3521,-0.1557,-0.2,0,0.5,0.002,0.008,0,0
2018,4,25,20,47,8.862,0.9224,-0.0288,0.3521,-0.1555,-0.1,0,0.7,0.002,0.012,0.005,0
2018,4,25,20,47,8.899,0.9225,-0.0286,0.3521,-0.1554,-0.7,0,0.7,0.004,0.011,0.003,0
2018,4,25,20,47,8.919,0.9225,-0.0286,0.3521,-0.1553,-0.1,0,0.6,0.002,0.004,-0.002,0
2018,4,25,20,47,8.924,0.9225,-0.0285,0.3522,-0.1552,0,0,0.5,0,0.013,-0.004,0
2018,4,25,20,47,8.96,0.9225,-0.0284,0.3522,-0.1551,-0.6,-0.2,0.4,0,0.005,-0.001,0
2018,4,25,20,47,8.981,0.9224,-0.0286,0.3523,-0.1552,-0.1,-0.1,0.5,0.001,0.003,-0.003,0
2018,4,25,20,47,8.985,0.9224,-0.0286,0.3523,-0.1552,0,0.3,0.5,0,0.009,-0.001,0
2018,4,25,20,47,9.022,0.9225,-0.0284,0.3523,-0.155,-0.2,0.5,0.6,0,0.009,-0.001,0
2018,4,25,20,47,9.04,0.9225,-0.0285,0.3522,-0.1552,0,0,0,0.002,0.007,0.002,0
2018,4,25,20,47,9.045,0.9225,-0.0285,0.3522,-0.1551,0,0,0,0,0.017,0.003,0
2018,4,25,20,47,9.065,0.9225,-0.0285,0.3521,-0.1552,-0.7,0,0.5,-0.006,0.014,0.001,0
2018,4,25,20,47,9.084,0.9225,-0.0286,0.3521,-0.1552,-0.8,0,0.5,0,0.004,0,0
2018,4,25,20,47,9.122,0.9224,-0.0288,0.3522,-0.1552,-0.6,-0.2,0.8,0.001,0.004,-0.002,0
2018,4,25,20,47,9.143,0.9224,-0.0288,0.3523,-0.1552,-0.2,-0.2,1,0.006,0.005,-0.001,0
2018,4,25,20,47,9.147,0.9224,-0.0287,0.3524,-0.1551,-0.2,0,0.8,0.007,0.007,0,0
2018,4,25,20,47,9.166,0.9224,-0.0287,0.3525,-0.1551,-0.5,-0.2,0.5,0.008,0.016,-0.002,0
2018,4,25,20,47,9.187,0.9223,-0.0288,0.3526,-0.1551,-1.1,-0.6,0.5,-0.001,0.014,-0.006,1023
2018,4,25,20,47,9.225,0.9223,-0.0291,0.3527,-0.1551,-0.7,-0.2,0.5,0.002,0.004,0,1023
2018,4,25,20,47,9.246,0.9222,-0.0291,0.3527,-0.1551,-0.8,-0.4,0.5,0,0.006,0,1023
2018,4,25,20,47,9.25,0.9222,-0.0292,0.3529,-0.155,-1.3,-0.6,0.6,0.001,0.011,0,1023
2018,4,25,20,47,9.27,0.9221,-0.0296,0.3531,-0.1551,-1.8,-1.5,1,0.009,0.006,0.004,1023
2018,4,25,20,47,9.289,0.9219,-0.0299,0.3535,-0.1552,-1.4,-2,1.5,0.021,-0.004,0.004,1023
2018,4,25,20,47,9.312,0.9216,-0.0301,0.3542,-0.1555,-0.8,-4.3,2.1,0.033,0.003,-0.001,1023
2018,4,25,20,47,9.331,0.9211,-0.0301,0.3555,-0.1556,-1.3,-7.8,3,0.047,0.01,-0.012,1023
2018,4,25,20,47,9.348,0.9201,-0.0302,0.3577,-0.156,-2.3,-12.9,4.5,0.066,-0.005,-0.018,1023
2018,4,25,20,47,9.369,0.9188,-0.0305,0.3607,-0.1567,-1.5,-17.1,5.3,0.057,-0.033,-0.016,1023
2018,4,25,20,47,9.388,0.9173,-0.0305,0.3642,-0.1576,0.9,-19.8,5.8,0.052,-0.034,-0.013,0
2018,4,25,20,47,9.426,0.9155,-0.0302,0.3681,-0.1588,1.7,-23.5,7.2,0.066,-0.024,-0.025,0
2018,4,25,20,47,9.448,0.9134,-0.0298,0.3727,-0.1603,0.2,-26.2,9.6,0.101,0.024,-0.025,0
2018,4,25,20,47,9.452,0.911,-0.0302,0.3779,-0.1619,-7.9,-29.8,13.5,0.086,0.017,-0.018,0
2018,4,25,20,47,9.487,0.9081,-0.0322,0.3839,-0.1634,-19.6,-35.4,17.6,0.088,0.017,0.003,0
2018,4,25,20,47,9.509,0.9045,-0.0361,0.3913,-0.1652,-25.7,-43.6,21.9,0.105,-0.007,0.023,0
2018,4,25,20,47,9.514,0.9003,-0.0405,0.3996,-0.1676,-23.7,-49.6,25.2,0.057,-0.046,0.018,0
2018,4,25,20,47,9.529,0.8956,-0.0444,0.4081,-0.1707,-13.6,-52.9,23.6,-0.064,-0.128,-0.026,0
2018,4,25,20,47,9.57,0.8914,-0.0443,0.416,-0.1735,9.9,-48.1,10.6,-0.111,-0.16,-0.027,1023
2018,4,25,20,47,9.574,0.8885,-0.0385,0.4218,-0.176,48.6,-38.2,-8.2,-0.186,-0.198,0.007,1023
2018,4,25,20,47,9.589,0.8869,-0.0254,0.4252,-0.1783,81.9,-32.7,-30.4,-0.153,-0.023,0.077,1023
2018,4,25,20,47,9.607,0.8857,-0.0085,0.428,-0.1791,87.6,-40.4,-37,0.002,0.306,0.164,1023
2018,4,25,20,47,9.642,0.8825,0.006,0.4343,-0.1799,66.2,-74.8,-20.7,-0.209,0.186,0.403,1023
2018,4,25,20,47,9.664,0.8757,0.0189,0.4459,-0.1838,59,-96.8,3.6,-0.097,0.088,0.209,1023
2018,4,25,20,47,9.669,0.8674,0.0285,0.4596,-0.1882,34.7,-98.4,11,0.092,-0.03,-0.166,1023
2018,4,25,20,47,9.707,0.8591,0.035,0.4729,-0.1919,25.9,-90.5,14.1,0.264,-0.014,-0.418,1023
2018,4,25,20,47,9.729,0.8514,0.0406,0.485,-0.1951,26.8,-80.7,10.8,0.167,-0.17,-0.544,1023
2018,4,25,20,47,9.733,0.8446,0.0475,0.4946,-0.1991,45.5,-62.9,8.8,0.107,-0.244,-0.448,1023
2018,4,25,20,47,9.753,0.839,0.0572,0.5007,-0.2048,67.9,-50.7,5.5,0.041,-0.331,-0.248,1023
2018,4,25,20,47,9.773,0.8338,0.0695,0.505,-0.2117,76.2,-45.7,2.4,0.11,-0.205,-0.294,1023
2018,4,25,20,47,9.811,0.8296,0.0799,0.5078,-0.2176,49,-23,6.6,0.237,-0.072,-0.348,1023
2018,4,25,20,47,9.831,0.8282,0.0834,0.5082,-0.2209,5.7,2.3,4.7,0.067,-0.055,-0.085,1023
2018,4,25,20,47,9.836,0.8287,0.0816,0.5076,-0.221,-8.1,5.9,1,-0.164,-0.127,0.246,1023
2018,4,25,20,47,9.873,0.8282,0.0819,0.5084,-0.2208,7.5,-19.8,-5.1,-0.237,-0.187,0.625,1023
2018,4,25,20,47,9.893,0.8252,0.0877,0.512,-0.2214,46.9,-42,-15.4,-0.274,-0.281,0.51,1023
2018,4,25,20,47,9.897,0.8212,0.1005,0.5152,-0.2232,66.7,-39.4,-28.3,-0.318,0.008,0.236,1023
2018,4,25,20,47,9.914,0.8185,0.111,0.5178,-0.2225,21.4,-32.7,-28.9,-0.202,0.277,0.269,1023
2018,4,25,20,47,9.933,0.8163,0.1144,0.5223,-0.218,-19.1,-37.3,-25.5,0.033,0.28,0.318,0
2018,4,25,20,47,9.953,0.8141,0.1138,0.5286,-0.2117,-32.9,-43.5,-16.9,0.109,0.278,0.288,0
2018,4,25,20,47,9.992,0.8104,0.1115,0.5367,-0.2063,-35.2,-57.4,-1.6,-0.003,0.239,0.22,0
2018,4,25,20,47,10.012,0.8052,0.1078,0.5466,-0.2029,-36.1,-59.8,13,0.016,0.206,-0.053,0
2018,4,25,20,47,10.016,0.8001,0.1028,0.5553,-0.2017,-29.3,-42.9,25.1,-0.041,0.098,-0.203,0
2018,4,25,20,47,10.052,0.7965,0.0973,0.5609,-0.2033,-21.9,-19.2,35.3,0.037,0.089,-0.243,0
2018,4,25,20,47,10.073,0.7946,0.0915,0.5632,-0.2071,-4.8,1.3,39,-0.033,-0.171,-0.241,0
2018,4,25,20,47,10.077,0.7942,0.0915,0.5614,-0.2134,49.5,17.9,13.2,0.041,-0.609,-0.27,0
2018,4,25,20,47,10.115,0.7953,0.1022,0.5551,-0.2207,99.4,24.2,-21.6,0.225,-0.635,-0.336,0
2018,4,25,20,47,10.119,0.797,0.1176,0.5474,-0.2262,78.7,22.9,-41.9,0.666,-0.391,-0.616,0
2018,4,25,20,47,10.135,0.8017,0.1261,0.5405,-0.2218,-19,45.9,-80.1,1.434,-0.465,-1.279,0
2018,4,25,20,47,10.154,0.8143,0.1278,0.5282,-0.2038,-33.1,115.3,-148,2.121,-0.676,-2.07,0
2018,4,25,20,47,10.19,0.8348,0.1384,0.5012,-0.1802,19.3,192.6,-220.8,1.854,-0.584,-2.061,0
2018,4,25,20,47,10.211,0.8595,0.158,0.4617,-0.1512,37.3,233.9,-275.6,1.449,-0.345,-1.82,0
2018,4,25,20,47,10.215,0.8842,0.1782,0.4155,-0.1171,11.2,248.9,-291.8,0.952,-0.5,-1.5,0
2018,4,25,20,47,10.235,0.9057,0.1937,0.3685,-0.0794,-2.6,224.2,-282.2,0.177,-1.055,-1.184,0
2018,4,25,20,47,10.255,0.9203,0.2075,0.328,-0.0479,16.7,187.1,-201.4,-0.684,-1.13,-1.687,0
2018,4,25,20,47,10.295,0.932,0.2171,0.288,-0.0332,15.3,250.5,-103.7,-1.608,-0.551,-2.582,0
2018,4,25,20,47,10.299,0.945,0.2214,0.2384,-0.0316,10.8,303.6,-67.1,-2.412,-0.551,-2.57,1023
2018,4,25,20,47,10.316,0.9568,0.2232,0.1831,-0.0322,-7.8,317.6,-78.9,-2.93,-0.262,-2.136,1023
2018,4,25,20,47,10.337,0.9664,0.2203,0.1284,-0.0308,-28.7,307,-78.8,-2.036,-0.552,-2.524,1023
2018,4,25,20,47,10.357,0.9746,0.2112,0.0692,-0.0253,-80.6,351.2,-136,-0.784,-1.598,-3.178,1023
2018,4,25,20,47,10.377,0.9818,0.1894,-0.0013,-0.0031,-151.4,383.1,-255.2,0.288,-1.77,-2.602,1023
2018,4,25,20,47,10.396,0.983,0.1625,-0.0779,0.0333,-118.6,402.2,-309.2,0.714,-2.358,-1.461,1023
2018,4,25,20,47,10.418,0.9724,0.152,-0.1566,0.0813,20.6,386.9,-397.8,0.317,-2.772,-0.247,1023
2018,4,25,20,47,10.437,0.9508,0.1521,-0.2252,0.1482,55.5,295.2,-462.8,-0.295,-2.511,-0.011,1023
2018,4,25,20,47,10.457,0.926,0.1441,-0.2749,0.2147,-34,200.3,-416,-1.194,-2.435,-0.775,0
2018,4,25,20,47,10.478,0.9007,0.1163,-0.3213,0.2681,-146.6,224.2,-373.8,-2.241,-3.329,-0.57,0
2018,4,25,20,47,10.515,0.87,0.0847,-0.3763,0.3068,-198.5,310.3,-330,-2.911,-3.465,-1.829,0
2018,4,25,20,47,10.537,0.8346,0.0387,-0.3986,0.378,287.3,-633.4,-504.9,-15.274,-0.906,15.272,0
2018,4,25,20,47,10.541,0.841,0.0102,-0.3832,0.3817,-307.7,316.1,-131.4,2.918,2.566,-8.149,0
2018,4,25,20,47,10.559,0.8128,0.0048,-0.4337,0.3886,39.8,132.5,-24.2,-2.477,-1.206,2.178,0
2018,4,25,20,47,10.597,0.7964,0.0338,-0.4524,0.3998,142.2,273.6,-42.2,0.21,-0.561,-0.693,0
2018,4,25,20,47,10.602,0.7717,0.0622,-0.474,0.4193,131.5,161.4,-65.1,-0.481,-0.509,0.1,0
2018,4,25,20,47,10.616,0.7583,0.0759,-0.481,0.4332,65.8,47.3,-64.1,0.31,-0.183,-0.019,0
2018,4,25,20,47,10.651,0.7515,0.0719,-0.481,0.4456,-22.2,-31.6,-100.7,1.116,0.09,1.024,0
2018,4,25,20,47,10.671,0.7521,0.0476,-0.4742,0.455,-57.4,-148.7,-117.4,2.103,0.938,1.611,0
2018,4,25,20,47,10.675,0.7551,0.0165,-0.457,0.4697,-19.5,-172,-157.2,1.44,-0.044,0.272,0
2018,4,25,20,47,10.715,0.7551,-0.0084,-0.4313,0.4935,45.4,-188.1,-176.7,1.026,-0.517,0.054,0
2018,4,25,20,47,10.737,0.7507,-0.0364,-0.4013,0.5233,-7.6,-205.9,-216.4,-1.666,-0.427,0.118,0
2018,4,25,20,47,10.742,0.7439,-0.0756,-0.3794,0.5447,-109.6,-177,-212.5,-0.077,0.296,-1.012,0
2018,4,25,20,47,10.762,0.7299,-0.1215,-0.366,0.5642,-100.8,-154.6,-249.2,-0.882,-0.571,-0.85,0
2018,4,25,20,47,10.781,0.7116,-0.1648,-0.3484,0.5873,-75.7,-166.3,-264,-0.7,-0.596,-1.066,0
2018,4,25,20,47,10.803,0.6943,-0.1998,-0.3214,0.612,51.5,-169.1,-244.9,-1.061,-1.167,-0.233,0
2018,4,25,20,47,10.817,0.6807,-0.22,-0.2831,0.6387,117.5,-160.9,-231.6,-1.821,-0.312,0.539,0
2018,4,25,20,47,10.838,0.6697,-0.2205,-0.2509,0.6631,171.4,19.8,-134.9,-0.885,-0.566,-0.605,0
2018,4,25,20,47,10.859,0.6565,-0.1979,-0.2288,0.6908,212.6,33.9,-126.4,-0.042,1.114,0.289,0
2018,4,25,20,47,10.893,0.6469,-0.1887,-0.2144,0.707,-52.6,16.5,-76.1,0.24,1.665,0.928,0
2018,4,25,20,47,10.917,0.6347,-0.2094,-0.2359,0.7053,-262.9,-1.2,-22.7,0.116,0.852,0.27,0
2018,4,25,20,47,10.931,0.6201,-0.2463,-0.2758,0.6918,-366,-0.1,-7.9,-0.032,-0.007,-0.149,0
2018,4,25,20,47,10.938,0.6034,-0.2826,-0.3165,0.675,-294.6,7.1,-1.1,0.147,-0.277,-0.564,0
2018,4,25,20,47,10.977,0.5919,-0.3042,-0.3454,0.6615,-172.1,26.6,15.8,0.097,-0.187,-0.384,0
2018,4,25,20,47,10.999,0.5832,-0.3131,-0.3665,0.6537,-125.6,49.1,3.9,-0.053,-0.118,0.054,1023
2018,4,25,20,47,11.003,0.5721,-0.3209,-0.3867,0.6481,-138.8,47,-8.8,-0.057,0.139,0.074,1023
2018,4,25,20,47,11.023,0.5606,-0.3312,-0.4053,0.6415,-133.9,26.4,-11.6,-0.034,-0.012,-0.078,1023
2018,4,25,20,47,11.042,0.5504,-0.3421,-0.4215,0.6342,-114,18.6,-1,0.036,-0.085,-0.135,1023
2018,4,25,20,47,11.06,0.5431,-0.3504,-0.4353,0.6266,-98.5,13.5,8.8,0.033,-0.005,-0.054,1023
2018,4,25,20,47,11.096,0.538,-0.358,-0.4476,0.618,-116.8,-0.1,19.6,0.027,0.093,0.031,1023
2018,4,25,20,47,11.116,0.5325,-0.3697,-0.4625,0.6048,-148,-18.2,25,0.014,0.025,-0.038,1023
2018,4,25,20,47,11.12,0.5264,-0.385,-0.4787,0.5876,-164.5,-27.1,24.7,-0.035,-0.097,-0.11,1023
2018,4,25,20,47,11.16,0.5208,-0.3999,-0.4934,0.5703,-127.1,-29.7,22.5,-0.067,-0.207,-0.195,1023
2018,4,25,20,47,11.179,0.5179,-0.4101,-0.5022,0.5578,-73.9,-25.3,15,-0.05,-0.228,-0.267,1023
2018,4,25,20,47,11.183,0.5185,-0.4148,-0.5041,0.552,-0.1,-24.3,5,-0.049,-0.129,-0.131,1023
2018,4,25,20,47,11.222,0.5214,-0.416,-0.5015,0.5509,13.7,-22,-1.4,-0.011,-0.001,-0.013,0
2018,4,25,20,47,11.242,0.5242,-0.4172,-0.4981,0.5504,11.6,-25.7,-0.3,-0.013,-0.019,0.008,0
2018,4,25,20,47,11.246,0.5279,-0.4189,-0.4938,0.5494,10.6,-37.8,2.4,-0.013,0.067,0.167,0
2018,4,25,20,47,11.263,0.5332,-0.4214,-0.489,0.5466,22.5,-49.5,8.3,0.016,-0.089,0.106,0
2018,4,25,20,47,11.304,0.5401,-0.4233,-0.4825,0.5442,20.3,-50,8.8,0.018,0.043,-0.047,0
2018,4,25,20,47,11.308,0.5463,-0.4251,-0.4766,0.5418,23.6,-42.8,6.3,0.022,0.081,-0.024,0
2018,4,25,20,47,11.323,0.5514,-0.4263,-0.4716,0.54,16.9,-33.4,6.6,0.049,0.088,-0.075,0
2018,4,25,20,47,11.361,0.5554,-0.4276,-0.4685,0.5376,18.9,-29,8.7,-0.015,0.004,-0.069,0
2018,4,25,20,47,11.38,0.5601,-0.4275,-0.4642,0.5364,23.5,-28.6,10.2,-0.004,0.096,0.006,0
2018,4,25,20,47,11.384,0.5655,-0.427,-0.4595,0.5353,28.7,-31.8,8.4,0.019,0.016,0.023,0
2018,4,25,20,47,11.402,0.5714,-0.4261,-0.4535,0.5349,35.7,-34.8,5.8,0.006,0.023,0.092,0
2018,4,25,20,47,11.44,0.5781,-0.4249,-0.4461,0.5348,30.4,-41.3,6.4,-0.032,0.015,0.131,0
2018,4,25,20,47,11.461,0.5848,-0.4251,-0.4391,0.5332,25.3,-46.2,7.6,-0.026,0.017,-0.03,0
2018,4,25,20,47,11.465,0.5905,-0.4265,-0.4333,0.5305,27.6,-42.3,8.9,-0.01,0.008,-0.117,0
2018,4,25,20,47,11.486,0.5956,-0.4272,-0.4282,0.5284,27,-32.4,8.5,0.007,-0.001,-0.101,0
2018,4,25,20,47,11.507,0.6007,-0.4263,-0.4227,0.5278,37.3,-27.3,5.9,-0.005,0.024,-0.031,0
2018,4,25,20,47,11.524,0.6051,-0.425,-0.418,0.5275,27.1,-19,5.8,-0.003,0.067,-0.082,0
2018,4,25,20,47,11.542,0.6077,-0.4242,-0.4158,0.5269,15.8,-7.3,5,0,-0.048,-0.142,0
2018,4,25,20,47,11.561,0.6092,-0.4224,-0.4145,0.5277,30.1,2.2,1.6,-0.006,-0.047,-0.046,0
2018,4,25,20,47,11.583,0.6116,-0.4186,-0.4119,0.53,26.2,2.2,1.4,0.003,0.051,0.037,0
2018,4,25,20,47,11.603,0.6132,-0.416,-0.4102,0.5314,11.9,1.7,2.3,-0.003,0.046,0.024,0
2018,4,25,20,47,11.638,0.6138,-0.4149,-0.4101,0.5318,-1.8,3.1,3.3,0.006,0.051,0.017,0
2018,4,25,20,47,11.658,0.6133,-0.415,-0.4115,0.5311,-16,5.6,4.4,0.01,0.051,0.021,0
2018,4,25,20,47,11.665,0.6118,-0.4162,-0.4145,0.5296,-26.2,8.4,5.4,0.008,0.032,0,0
2018,4,25,20,47,11.684,0.6095,-0.4181,-0.4186,0.5275,-31.8,10.1,6.6,0.007,0.021,-0.007,0
2018,4,25,20,47,11.703,0.6069,-0.4201,-0.4232,0.5252,-33.1,11.4,7.3,0.009,0.022,0,1023
2018,4,25,20,47,11.741,0.6044,-0.422,-0.4279,0.5228,-35.4,10.8,7.8,0.006,0.025,0.013,1023
2018,4,25,20,47,11.761,0.6016,-0.4243,-0.4328,0.5202,-36.3,10.4,6.4,-0.005,0.047,0.017,1023
2018,4,25,20,47,11.763,0.5987,-0.4268,-0.4377,0.5174,-41.4,10.4,6.6,0.007,0.048,-0.001,1023
2018,4,25,20,47,11.782,0.5952,-0.4296,-0.4431,0.5145,-38.3,12,5.4,0.003,0.027,-0.024,1023
2018,4,25,20,47,11.804,0.5919,-0.4319,-0.448,0.5121,-35.6,13.1,4.4,0.006,0.011,-0.005,1023
2018,4,25,20,47,11.823,0.5884,-0.4339,-0.4528,0.5102,-34.1,15,3,0.002,-0.004,-0.006,1023
2018,4,25,20,47,11.842,0.5849,-0.4357,-0.4574,0.5086,-32.7,16,1.7,0.001,0.021,-0.002,1023
2018,4,25,20,47,11.88,0.5812,-0.4375,-0.4618,0.5072,-31.2,15.6,0.1,0.009,-0.002,-0.013,1023
2018,4,25,20,47,11.902,0.5776,-0.4393,-0.4662,0.5058,-27.1,14.9,-0.2,-0.011,0.024,-0.017,1023
2018,4,25,20,47,11.905,0.5745,-0.4407,-0.4698,0.5048,-22.3,12.2,-1,0.007,0.015,-0.005,1023
2018,4,25,20,47,11.944,0.5717,-0.4423,-0.4732,0.5035,-27.3,10.3,0.5,0.001,-0.02,-0.049,0
2018,4,25,20,47,11.965,0.5689,-0.4439,-0.4767,0.5018,-19.8,8.6,1.7,-0.019,0,-0.055,0
2018,4,25,20,47,11.967,0.5671,-0.4448,-0.4791,0.5007,-11.5,5.8,1.2,-0.006,0.016,-0.023,0
2018,4,25,20,47,12.005,0.566,-0.4454,-0.4807,0.5,-10.2,3.3,0.8,-0.006,0.006,-0.009,0
2018,4,25,20,47,12.025,0.5651,-0.4461,-0.4818,0.4993,-8.5,1.5,0.2,0,0.008,-0.012,0
2018,4,25,20,47,12.027,0.5644,-0.4468,-0.4826,0.4986,-5.7,-0.2,0,0.003,0.001,-0.013,0
2018,4,25,20,47,12.047,0.5641,-0.4474,-0.483,0.4982,-3.7,-0.4,0.2,0.009,0.003,-0.012,0
2018,4,25,20,47,12.066,0.5638,-0.4477,-0.4833,0.4979,-2.1,-0.1,0.6,0.006,0.008,-0.005,0
2018,4,25,20,47,12.087,0.5638,-0.4479,-0.4834,0.4977,0,-0.6,0.8,0.003,0.003,-0.009,0
2018,4,25,20,47,12.107,0.564,-0.4478,-0.4833,0.4976,2.3,-1.2,0.9,0.004,0.005,-0.007,0
2018,4,25,20,47,12.127,0.5644,-0.4476,-0.4829,0.4977,3.8,-1.5,0.9,0.004,0.014,-0.001,0
2018,4,25,20,47,12.148,0.565,-0.4473,-0.4825,0.4978,4.4,-1.8,0.9,0.004,0.008,-0.005,0
2018,4,25,20,47,12.169,0.5656,-0.4469,-0.4819,0.498,5,-1.8,0.8,0.004,0.012,-0.004,0
2018,4,25,20,47,12.206,0.5662,-0.4465,-0.4813,0.4982,5.7,-2.1,0.8,0.006,0.009,-0.005,0
2018,4,25,20,47,12.225,0.5669,-0.446,-0.4807,0.4985,6.1,-2,0.8,0.006,0.011,0,0
2018,4,25,20,47,12.23,0.5676,-0.4456,-0.48,0.4987,5.6,-1.6,0.8,0.006,0.014,0.003,0
2018,4,25,20,47,12.247,0.5681,-0.4452,-0.4794,0.499,4.2,-1.2,0.7,0.007,0.016,-0.002,0
2018,4,25,20,47,12.267,0.5686,-0.4448,-0.479,0.4992,2.8,-0.6,0.7,0.007,0.019,0.002,0
2018,4,25,20,47,12.288,0.5689,-0.4446,-0.4788,0.4993,1.3,-0.8,0.7,0.004,0.011,0.003,0
2018,4,25,20,47,12.327,0.5691,-0.4445,-0.4786,0.4993,0.6,-0.5,0.7,0.009,0.012,-0.002,0
2018,4,25,20,47,12.347,0.5691,-0.4445,-0.4786,0.4992,-1.1,0.2,0.3,0.009,0.014,0.001,0
2018,4,25,20,47,12.351,0.5687,-0.4449,-0.4792,0.4989,-3.5,0.5,0.3,0.006,0.014,0,0
2018,4,25,20,47,12.369,0.5683,-0.4452,-0.4796,0.4986,-4.1,0.3,0.2,0.008,0.017,0.002,0
2018,4,25,20,47,12.392,0.568,-0.4456,-0.48,0.4983,-4.8,0.6,0.3,0.008,0.014,-0.004,0
2018,4,25,20,47,12.411,0.5675,-0.446,-0.4805,0.4979,-4.6,0.8,0.3,0.007,0.013,-0.003,0
2018,4,25,20,47,12.433,0.5671,-0.4464,-0.481,0.4976,-4.5,1,0.3,0.006,0.008,-0.003,1023
2018,4,25,20,47,12.451,0.5667,-0.4467,-0.4815,0.4973,-3.9,1,0.3,0.006,0.009,0.006,1023
2018,4,25,20,47,12.471,0.5663,-0.447,-0.4819,0.497,-3.5,0.8,0.3,0.008,0.01,-0.007,1023
2018,4,25,20,47,12.49,0.566,-0.4473,-0.4822,0.4968,-2.4,0.4,0.3,0.005,0.009,-0.006,1023
2018,4,25,20,47,12.51,0.5658,-0.4475,-0.4824,0.4967,-1.5,0.1,0.3,0.009,0.011,0,1023
2018,4,25,20,47,12.549,0.5657,-0.4476,-0.4826,0.4965,-1.4,0.3,0.4,0.005,0.011,0.001,1023
2018,4,25,20,47,12.567,0.5656,-0.4477,-0.4828,0.4964,-1.6,0.3,0.4,0.006,0.01,-0.002,1023
2018,4,25,20,47,12.572,0.5655,-0.4478,-0.483,0.4963,-1.3,0.1,0.4,0.009,0.009,-0.006,1023
2018,4,25,20,47,12.592,0.5654,-0.4479,-0.483,0.4962,-0.3,-0.2,0.6,0.006,0.011,-0.003,1023
2018,4,25,20,47,12.611,0.5655,-0.4479,-0.483,0.4962,0.5,-0.4,0.6,0.008,0.007,0.002,1023
2018,4,25,20,47,12.633,0.5656,-0.4478,-0.4829,0.4961,0.8,-0.4,0.6,0.008,0.009,0.001,1023
2018,4,25,20,47,12.653,0.5657,-0.4477,-0.4829,0.4962,0.6,-0.2,0.7,0.01,0.014,0,1023
2018,4,25,20,47,12.673,0.5658,-0.4477,-0.4828,0.4962,0.8,-0.2,0.7,0.009,0.012,-0.001,0
2018,4,25,20,47,12.695,0.5659,-0.4476,-0.4827,0.4962,0.8,-0.4,0.6,0.009,0.01,-0.001,0
2018,4,25,20,47,12.734,0.566,-0.4476,-0.4826,0.4962,0.7,-0.1,0.8,0.01,0.013,0.002,0
2018,4,25,20,47,12.753,0.5661,-0.4475,-0.4826,0.4962,0.3,-0.1,0.7,0.007,0.014,-0.004,0
2018,4,25,20,47,12.757,0.5662,-0.4474,-0.4825,0.4962,0,0.1,0.6,0.007,0.012,0.002,0
2018,4,25,20,47,12.772,0.5662,-0.4474,-0.4825,0.4962,-0.3,0,0.5,0.006,0.012,0,0
2018,4,25,20,47,12.793,0.5662,-0.4474,-0.4825,0.4962,0,0,0,0.007,0.011,0.003,0
2018,4,25,20,47,12.814,0.5661,-0.4475,-0.4825,0.4962,-0.7,0,0.3,0.008,0.012,-0.001,0
2018,4,25,20,47,12.833,0.5661,-0.4476,-0.4826,0.4962,-0.9,0.1,0.4,0.009,0.011,-0.005,0
2018,4,25,20,47,12.854,0.566,-0.4476,-0.4827,0.4961,-1.1,0.1,0.5,0.01,0.014,0,0
2018,4,25,20,47,12.874,0.5659,-0.4477,-0.4828,0.496,-1.3,0.3,0.5,0.011,0.012,0.003,0
2018,4,25,20,47,12.892,0.5658,-0.4478,-0.483,0.4959,-1.6,0.4,0.4,0.008,0.013,0,0
2018,4,25,20,47,12.916,0.5656,-0.4479,-0.4832,0.4958,-1.4,0.3,0.5,0.009,0.011,0.002,0
2018,4,25,20,47,12.934,0.5655,-0.448,-0.4833,0.4957,-1.2,0,0.4,0.006,0.011,0,0
2018,4,25,20,47,12.951,0.5654,-0.4481,-0.4834,0.4956,-0.9,0,0.5,0.008,0.011,0.001,0
2018,4,25,20,47,12.973,0.5653,-0.4482,-0.4835,0.4955,-1.2,0.3,0.4,0.01,0.012,0,0
2018,4,25,20,47,12.99,0.5652,-0.4483,-0.4837,0.4954,-1.2,0.3,0.4,0.009,0.012,-0.001,0
2018,4,25,20,47,13.015,0.5652,-0.4484,-0.4837,0.4953,-1,0,0.3,0.006,0.009,0,0
2018,4,25,20,47,13.034,0.5651,-0.4485,-0.4838,0.4953,-0.5,-0.1,0.4,0.01,0.012,-0.005,0
2018,4,25,20,47,13.074,0.5651,-0.4485,-0.4838,0.4953,-0.4,0.1,0.5,0.009,0.007,-0.001,0
2018,4,25,20,47,13.078,0.5651,-0.4485,-0.4838,0.4952,-0.2,-0.1,0.5,0.006,0.01,-0.002,0
2018,4,25,20,47,13.093,0.5651,-0.4486,-0.4838,0.4952,0.1,0,0.7,0.011,0.01,0.001,0
2018,4,25,20,47,13.133,0.5651,-0.4485,-0.4838,0.4952,0.4,-0.1,0.5,0.006,0.009,0,0
2018,4,25,20,47,13.153,0.5652,-0.4484,-0.4838,0.4952,0.6,0,0.7,0.009,0.013,0.001,0
2018,4,25,20,47,13.157,0.5653,-0.4483,-0.4837,0.4953,0.3,0,0.7,0.008,0.014,0.003,0
2018,4,25,20,47,13.173,0.5653,-0.4483,-0.4837,0.4953,0,-0.1,0.8,0.009,0.013,0.001,1023
2018,4,25,20,47,13.211,0.5654,-0.4483,-0.4837,0.4952,-0.2,0,0.5,0.008,0.014,0.004,1023
2018,4,25,20,47,13.231,0.5654,-0.4483,-0.4837,0.4952,-0.2,-0.1,0.5,0.011,0.013,-0.003,1023
2018,4,25,20,47,13.235,0.5654,-0.4483,-0.4837,0.4952,-0.3,0.1,0.5,0.011,0.008,0.001,1023
2018,4,25,20,47,13.256,0.5653,-0.4483,-0.4837,0.4952,-0.1,0.1,0.6,0.007,0.011,0,1023
2018,4,25,20,47,13.275,0.5653,-0.4483,-0.4837,0.4952,-0.4,0.1,0.5,0.008,0.014,-0.001,1023
2018,4,25,20,47,13.297,0.5653,-0.4483,-0.4837,0.4952,-0.7,0.1,0.5,0.011,0.011,-0.001,1023
2018,4,25,20,47,13.317,0.5653,-0.4484,-0.4838,0.4951,-1,0.2,0.5,0.008,0.012,0.001,1023
2018,4,25,20,47,13.355,0.5652,-0.4485,-0.4839,0.495,-1.3,0.3,0.5,0.009,0.009,0.001,1023
2018,4,25,20,47,13.376,0.5651,-0.4486,-0.484,0.4949,-1,0.1,0.6,0.011,0.008,0,1023
2018,4,25,20,47,13.38,0.565,-0.4487,-0.4841,0.4948,-0.4,0,0.7,0.008,0.01,-0.004,1023
2018,4,25,20,47,13.399,0.5651,-0.4486,-0.4841,0.4948,0,0,0.8,0.009,0.013,0.002,0
2018,4,25,20,47,13.419,0.5651,-0.4486,-0.4842,0.4948,-0.2,0.1,0.6,0.01,0.012,0,0
2018,4,25,20,47,13.457,0.5651,-0.4486,-0.4842,0.4948,0,0,0.5,0.011,0.011,0.003,0
2018,4,25,20,47,13.461,0.5651,-0.4486,-0.4841,0.4948,0,0,0,0.011,0.011,0.001,0
2018,4,25,20,47,13.476,0.5651,-0.4486,-0.4841,0.4948,0,0,0.8,0.01,0.009,0,0
2018,4,25,20,47,13.495,0.5651,-0.4486,-0.4841,0.4948,-0.2,0,0.7,0.01,0.009,0,0
2018,4,25,20,47,13.515,0.5651,-0.4486,-0.4841,0.4947,-0.2,0,0.7,0.012,0.01,0.001,0
2018,4,25,20,47,13.555,0.5651,-0.4486,-0.4841,0.4947,-0.4,0.1,0.6,0.012,0.011,0.004,0
2018,4,25,20,47,13.576,0.5651,-0.4486,-0.4842,0.4947,-0.1,0,0.6,0.009,0.014,0.007,0
2018,4,25,20,47,13.578,0.5651,-0.4486,-0.4842,0.4947,-0.3,-0.1,0.6,0.009,0.013,-0.001,0
2018,4,25,20,47,13.616,0.5651,-0.4487,-0.4842,0.4947,-0.5,0.1,0.4,0.009,0.015,-0.003,0
2018,4,25,20,47,13.636,0.5651,-0.4487,-0.4842,0.4947,0,0,0,0.009,0.013,0.004,0
2018,4,25,20,47,13.64,0.5651,-0.4487,-0.4842,0.4947,-0.5,0.3,0.5,0.011,0.012,0,0
2018,4,25,20,47,13.659,0.5651,-0.4487,-0.4843,0.4947,0,0,0.7,0.008,0.011,0.004,0
2018,4,25,20,47,13.677,0.5651,-0.4487,-0.4842,0.4946,-0.1,0.1,0.8,0.009,0.014,0.002,0
2018,4,25,20,47,13.695,0.5651,-0.4486,-0.4843,0.4946,-0.6,0,0.6,0.009,0.014,0.002,0
2018,4,25,20,47,13.715,0.5651,-0.4487,-0.4843,0.4946,-0.7,0.3,0.7,0.011,0.013,0,0
2018,4,25,20,47,13.755,0.565,-0.4487,-0.4844,0.4945,-0.8,0.1,0.6,0.009,0.013,0.001,0
2018,4,25,20,47,13.774,0.565,-0.4488,-0.4845,0.4944,-0.7,0.3,0.5,0.01,0.01,0,0
2018,4,25,20,47,13.776,0.5649,-0.4488,-0.4846,0.4944,-0.7,0.1,0.4,0.01,0.012,0.001,0
2018,4,25,20,47,13.818,0.5649,-0.4488,-0.4846,0.4944,-0.1,0,0.5,0.008,0.008,0,0
2018,4,25,20,47,13.838,0.5649,-0.4488,-0.4846,0.4944,0,0,0,0.011,0.013,0.004,0
2018,4,25,20,47,13.842,0.5649,-0.4488,-0.4845,0.4944,-0.3,0.1,0.6,0.012,0.01,0.004,0
2018,4,25,20,47,13.861,0.5649,-0.4488,-0.4846,0.4944,0,0,0,0.008,0.011,0,0
2018,4,25,20,47,13.879,0.5648,-0.4489,-0.4846,0.4944,-0.2,0.1,0.5,0.013,0.011,0.004,0
2018,4,25,20,47,13.897,0.5648,-0.4489,-0.4846,0.4944,-0.4,0.1,0.5,0.011,0.012,0.003,0
2018,4,25,20,47,13.935,0.5648,-0.4489,-0.4846,0.4944,-0.4,0,0.6,0.009,0.013,0.003,1023
2018,4,25,20,47,13.955,0.5648,-0.4489,-0.4847,0.4943,-0.1,0,0.5,0.012,0.009,-0.001,1023
2018,4,25,20,47,13.96,0.5648,-0.4489,-0.4847,0.4943,-0.2,-0.1,0.6,0.01,0.011,0.001,1023
2018,4,25,20,47,13.98,0.5649,-0.4489,-0.4847,0.4943,-0.1,0,0.7,0.009,0.011,0.001,1023
2018,4,25,20,47,14,0.5649,-0.4489,-0.4847,0.4943,-0.1,0,0.6,0.008,0.01,0.002,1023
2018,4,25,20,47,14.02,0.5649,-0.4488,-0.4847,0.4943,-0.2,0.1,0.6,0.01,0.014,0,1023
2018,4,25,20,47,14.04,0.5649,-0.4488,-0.4847,0.4943,-0.1,0.2,0.6,0.014,0.011,0.001,1023
2018,4,25,20,47,14.061,0.5649,-0.4488,-0.4848,0.4943,-0.2,0.1,0.5,0.01,0.013,0.003,1023
2018,4,25,20,47,14.099,0.5648,-0.4489,-0.4848,0.4942,-0.5,0,0.5,0.011,0.012,0.004,1023
2018,4,25,20,47,14.12,0.5648,-0.4489,-0.4848,0.4942,-0.3,0,0.6,0.01,0.011,0,1023
2018,4,25,20,47,14.125,0.5649,-0.4488,-0.4848,0.4942,0.1,0,0.8,0.013,0.009,-0.002,1023
2018,4,25,20,47,14.144,0.5649,-0.4488,-0.4848,0.4942,-0.2,0,0.7,0.01,0.012,0,1023
2018,4,25,20,47,14.163,0.5649,-0.4488,-0.4848,0.4942,-0.1,0.1,0.7,0.012,0.011,0.005,0
2018,4,25,20,47,14.179,0.5649,-0.4488,-0.4848,0.4942,-0.4,0.1,0.6,0.009,0.013,0,0
2018,4,25,20,47,14.217,0.5649,-0.4488,-0.4848,0.4942,-0.2,0.1,0.6,0.009,0.01,0.005,0
2018,4,25,20,47,14.238,0.5649,-0.4487,-0.4848,0.4942,-0.3,0,0.5,0.009,0.014,0.002,0
2018,4,25,20,47,14.242,0.5649,-0.4488,-0.4849,0.4942,-0.2,0,0.5,0.01,0.01,0.003,0
2018,4,25,20,47,14.281,0.5649,-0.4488,-0.4849,0.4941,0,0,0,0.01,0.012,-0.003,0
2018,4,25,20,47,14.301,0.5649,-0.4488,-0.4848,0.4941,0,0.1,0.5,0.01,0.01,0.001,0
2018,4,25,20,47,14.305,0.5649,-0.4488,-0.4849,0.4941,-0.1,0.1,0.7,0.011,0.013,0.001,0
2018,4,25,20,47,14.325,0.5649,-0.4488,-0.4849,0.4941,-0.2,0.2,0.5,0.01,0.012,0,0
2018,4,25,20,47,14.345,0.5649,-0.4488,-0.4849,0.4941,-0.5,0.1,0.5,0.008,0.011,0.001,0
2018,4,25,20,47,14.383,0.5649,-0.4488,-0.4849,0.4941,-0.4,0.1,0.5,0.013,0.014,0.002,0
2018,4,25,20,47,14.387,0.5649,-0.4488,-0.485,0.494,-0.2,0,0.6,0.01,0.011,0,0
2018,4,25,20,47,14.402,0.5649,-0.4488,-0.485,0.494,0.1,0,0.7,0.01,0.011,0.001,0
2018,4,25,20,47,14.422,0.5649,-0.4488,-0.485,0.494,0,0,0.6,0.01,0.013,0.003,0
2018,4,25,20,47,14.442,0.5649,-0.4488,-0.485,0.494,-0.6,0,0.4,0.012,0.013,0.001,0
2018,4,25,20,47,14.48,0.5649,-0.4488,-0.485,0.494,0,0,0,0.012,0.011,0.002,0
2018,4,25,20,47,14.5,0.5649,-0.4489,-0.485,0.4939,-0.4,0.1,0.7,0.01,0.013,-0.001,0
2018,4,25,20,47,14.504,0.5649,-0.4489,-0.4851,0.4939,-0.3,0.1,0.5,0.009,0.012,0.002,0
2018,4,25,20,47,14.544,0.5649,-0.4489,-0.4851,0.4939,-0.3,0.1,0.5,0.01,0.008,0,0
2018,4,25,20,47,14.563,0.5649,-0.4489,-0.4851,0.4939,-0.1,0,0.5,0.01,0.012,0.005,0
2018,4,25,20,47,14.567,0.5649,-0.4489,-0.4851,0.4939,-0.2,0,0.6,0.011,0.012,0,0
2018,4,25,20,47,14.585,0.5649,-0.4489,-0.4851,0.4938,-0.2,0.1,0.7,0.01,0.013,0.003,0
2018,4,25,20,47,14.603,0.5649,-0.4489,-0.4851,0.4938,-0.2,0.1,0.5,0.008,0.01,0.003,0
2018,4,25,20,47,14.621,0.5649,-0.4489,-0.4851,0.4938,-0.4,0.1,0.5,0.008,0.012,0.005,0
2018,4,25,20,47,14.661,0.5648,-0.4489,-0.4851,0.4938,-0.2,0.2,0.5,0.008,0.011,0.003,0
2018,4,25,20,47,14.681,0.5648,-0.4489,-0.4852,0.4938,-0.4,0,0.5,0.01,0.01,-0.001,0
2018,4,25,20,47,14.685,0.5648,-0.4489,-0.4852,0.4938,-0.2,0.1,0.6,0.012,0.011,-0.005,1023
2018,4,25,20,47,14.705,0.5648,-0.449,-0.4852,0.4938,-0.3,0,0.5,0.008,0.015,-0.003,1023
2018,4,25,20,47,14.724,0.5648,-0.449,-0.4852,0.4938,-0.5,0.2,0.5,0.012,0.01,0.002,1023
2018,4,25,20,47,14.746,0.5648,-0.449,-0.4853,0.4937,-0.8,0.3,0.5,0.006,0.012,0.002,1023
2018,4,25,20,47,14.765,0.5647,-0.449,-0.4853,0.4937,-0.5,0.1,0.5,0.01,0.01,0.002,1023
2018,4,25,20,47,14.804,0.5647,-0.449,-0.4854,0.4937,-0.2,0,0.7,0.011,0.014,0.002,1023
2018,4,25,20,47,14.826,0.5647,-0.449,-0.4854,0.4937,-0.2,0.1,0.5,0.01,0.008,-0.001,1023
2018,4,25,20,47,14.83,0.5647,-0.449,-0.4853,0.4937,-0.1,0,0.6,0.011,0.011,0.004,1023
2018,4,25,20,47,14.865,0.5647,-0.449,-0.4853,0.4937,0.3,-0.1,0.7,0.012,0.012,0.004,1023
2018,4,25,20,47,14.887,0.5648,-0.449,-0.4853,0.4937,0.1,0.1,0.6,0.01,0.015,-0.002,1023
2018,4,25,20,47,14.891,0.5648,-0.4489,-0.4852,0.4937,0,0,0.5,0.01,0.011,0.003,1023
2018,4,25,20,47,14.906,0.5649,-0.4489,-0.4852,0.4937,-0.1,0,0.5,0.011,0.01,0.004,0
2018,4,25,20,47,14.946,0.5649,-0.4489,-0.4852,0.4937,0,0.1,0.5,0.011,0.012,0.003,0
2018,4,25,20,47,14.964,0.5649,-0.4489,-0.4852,0.4937,-0.3,0,0.5,0.009,0.011,0.003,0
2018,4,25,20,47,14.968,0.5648,-0.4489,-0.4852,0.4937,-0.4,0,0.5,0.009,0.01,0.002,0
2018,4,25,20,47,14.988,0.5648,-0.4489,-0.4852,0.4937,-0.1,-0.1,0.5,0.012,0.012,0,0
2018,4,25,20,47,15.009,0.5648,-0.4489,-0.4852,0.4937,-0.4,0,0.5,0.011,0.012,0,0
2018,4,25,20,47,15.029,0.5648,-0.449,-0.4852,0.4937,-0.3,0.2,0.5,0.01,0.013,0,0
2018,4,25,20,47,15.048,0.5648,-0.449,-0.4852,0.4937,-0.4,0.2,0.6,0.009,0.013,0.003,0
2018,4,25,20,47,15.087,0.5648,-0.449,-0.4853,0.4937,-0.6,0.2,0.7,0.011,0.008,0.005,0
2018,4,25,20,47,15.107,0.5648,-0.449,-0.4853,0.4937,-0.6,0.3,0.6,0.009,0.011,0.005,0
2018,4,25,20,47,15.111,0.5647,-0.449,-0.4854,0.4937,-0.5,0.3,0.5,0.011,0.012,0.004,0
2018,4,25,20,47,15.127,0.5647,-0.449,-0.4855,0.4936,-0.4,0.4,0.8,0.012,0.011,0,0
2018,4,25,20,47,15.147,0.5646,-0.449,-0.4855,0.4936,-0.7,0.4,0.6,0.011,0.011,0,0
2018,4,25,20,47,15.186,0.5646,-0.449,-0.4856,0.4936,-0.8,0.4,0.5,0.01,0.012,0.006,0
2018,4,25,20,47,15.205,0.5645,-0.449,-0.4857,0.4936,-0.9,0.4,0.4,0.012,0.012,0.005,0
2018,4,25,20,47,15.209,0.5644,-0.449,-0.4858,0.4936,-1,0.4,0.5,0.008,0.014,0.005,0
2018,4,25,20,47,15.227,0.5643,-0.4491,-0.4859,0.4935,-0.8,0,0.6,0.011,0.01,0.002,0
2018,4,25,20,47,15.249,0.5643,-0.4491,-0.4859,0.4935,-0.1,-0.1,0.5,0.012,0.01,0.002,0
2018,4,25,20,47,15.288,0.5643,-0.4491,-0.4858,0.4935,0,0,0.6,0.009,0.011,0.001,0
2018,4,25,20,47,15.309,0.5643,-0.4491,-0.4858,0.4935,-0.2,0.1,0.7,0.009,0.01,0.002,0
2018,4,25,20,47,15.313,0.5644,-0.4491,-0.4859,0.4935,-0.1,0.1,0.7,0.009,0.011,0.003,0
2018,4,25,20,47,15.329,0.5644,-0.4491,-0.4858,0.4935,-0.1,0,0.7,0.01,0.009,0.002,0
2018,4,25,20,47,15.348,0.5644,-0.449,-0.4858,0.4935,-0.1,0,0.5,0.009,0.012,0.003,0
2018,4,25,20,47,15.367,0.5644,-0.449,-0.4858,0.4935,-0.2,0.1,0.5,0.011,0.011,0.003,0
2018,4,25,20,47,15.388,0.5644,-0.449,-0.4858,0.4935,-0.1,0,0.5,0.012,0.011,0.005,0
2018,4,25,20,47,15.407,0.5644,-0.449,-0.4858,0.4935,-0.2,0.1,0.5,0.009,0.012,0,0
2018,4,25,20,47,15.449,0.5644,-0.449,-0.4858,0.4935,-0.4,0.2,0.6,0.01,0.01,0.002,1023
2018,4,25,20,47,15.466,0.5644,-0.4491,-0.4859,0.4935,0,0,0,0.011,0.011,-0.004,1023
2018,4,25,20,47,15.471,0.5644,-0.4491,-0.4859,0.4935,-0.4,0.1,0.6,0.01,0.013,0,1023
2018,4,25,20,47,15.508,0.5644,-0.4491,-0.4859,0.4935,-0.5,0.3,0.5,0.008,0.01,0.002,1023
2018,4,25,20,47,15.529,0.5643,-0.4491,-0.486,0.4934,-0.9,0.4,0.5,0.012,0.012,0.003,1023
2018,4,25,20,47,15.533,0.5642,-0.4491,-0.4861,0.4934,-0.7,0.3,0.7,0.013,0.014,0.002,1023
2018,4,25,20,47,15.57,0.5642,-0.4491,-0.4861,0.4934,-0.4,0.3,0.5,0.01,0.016,0.001,1023
2018,4,25,20,47,15.592,0.5641,-0.4492,-0.4862,0.4934,-0.9,0.4,0.5,0.011,0.012,0.005,1023
2018,4,25,20,47,15.596,0.564,-0.4492,-0.4863,0.4934,-0.9,0.4,0.7,0.01,0.009,0.008,1023
2018,4,25,20,47,15.61,0.564,-0.4492,-0.4863,0.4934,-0.2,0,0.7,0.013,0.011,0,1023
2018,4,25,20,47,15.631,0.564,-0.4492,-0.4863,0.4934,0,0,0.8,0.014,0.016,0.002,1023
2018,4,25,20,47,15.65,0.564,-0.4491,-0.4863,0.4934,-0.1,0.3,0.7,0.008,0.013,0.003,0
2018,4,25,20,47,15.689,0.564,-0.4491,-0.4864,0.4934,-0.1,0.3,0.5,0.01,0.011,0.005,0
2018,4,25,20,47,15.71,0.564,-0.4491,-0.4864,0.4934,0,0,0,0.01,0.013,-0.001,0
2018,4,25,20,47,15.715,0.564,-0.4491,-0.4864,0.4935,-0.2,0,0.5,0.011,0.009,0.008,0
2018,4,25,20,47,15.731,0.564,-0.4491,-0.4864,0.4934,-0.1,0,0.6,0.009,0.01,0.004,0
2018,4,25,20,47,15.753,0.564,-0.4492,-0.4863,0.4934,0,-0.1,0.5,0.011,0.013,0.003,0
2018,4,25,20,47,15.773,0.564,-0.4492,-0.4863,0.4934,-0.2,0,0.6,0.01,0.011,0.003,0
2018,4,25,20,47,15.793,0.564,-0.4492,-0.4863,0.4934,-0.3,0,0.6,0.008,0.011,0.004,0
2018,4,25,20,47,15.814,0.564,-0.4492,-0.4863,0.4934,0,0,0,0.009,0.012,0.004,0
2018,4,25,20,47,15.83,0.564,-0.4492,-0.4863,0.4934,-0.2,0,0.5,0.007,0.012,0.003,0
2018,4,25,20,47,15.868,0.564,-0.4492,-0.4863,0.4934,-0.2,0,0.7,0.01,0.012,0,0
2018,4,25,20,47,15.889,0.564,-0.4492,-0.4863,0.4934,-0.2,0,0.7,0.013,0.013,0,0
2018,4,25,20,47,15.893,0.564,-0.4492,-0.4863,0.4934,0,0,0.5,0.013,0.013,0.006,0
2018,4,25,20,47,15.931,0.5641,-0.4492,-0.4863,0.4934,-0.1,-0.2,0.7,0.008,0.013,0.004,0
2018,4,25,20,47,15.964,0.5641,-0.4492,-0.4863,0.4934,-0.3,0,0.5,0.01,0.016,0,0
2018,4,25,20,47,15.965,0.564,-0.4492,-0.4863,0.4934,-0.4,0.1,0.5,0.012,0.009,0.005,0
2018,4,25,20,47,15.972,0.564,-0.4492,-0.4862,0.4934,-0.2,0.1,0.5,0.012,0.012,0.006,0
2018,4,25,20,47,16.01,0.564,-0.4492,-0.4862,0.4934,-0.3,0.1,0.5,0.012,0.012,0,0
2018,4,25,20,47,16.032,0.564,-0.4493,-0.4863,0.4934,-0.4,0,0.5,0.009,0.012,-0.003,0
2018,4,25,20,47,16.033,0.564,-0.4493,-0.4863,0.4934,-0.4,0,0.5,0.01,0.014,0,0
2018,4,25,20,47,16.052,0.5639,-0.4493,-0.4863,0.4934,-0.4,0,0.5,0.01,0.013,0.003,0
2018,4,25,20,47,16.071,0.5639,-0.4493,-0.4863,0.4933,-0.1,0,0.6,0.011,0.012,-0.002,0
2018,4,25,20,47,16.091,0.5639,-0.4493,-0.4864,0.4933,-0.2,0.1,0.5,0.01,0.008,0.002,0
2018,4,25,20,47,16.11,0.5639,-0.4493,-0.4864,0.4933,-0.4,0.1,0.7,0.013,0.012,0.006,0
2018,4,25,20,47,16.149,0.5639,-0.4494,-0.4864,0.4933,-0.3,0,0.6,0.01,0.012,-0.001,0
2018,4,25,20,47,16.169,0.5639,-0.4494,-0.4864,0.4933,-0.4,0.1,0.5,0.011,0.012,-0.002,0
2018,4,25,20,47,16.173,0.5639,-0.4494,-0.4864,0.4933,-0.5,0,0.6,0.01,0.011,-0.001,1023
2018,4,25,20,47,16.207,0.5638,-0.4494,-0.4864,0.4933,0,0,0,0.013,0.011,0,1023
2018,4,25,20,47,16.227,0.5638,-0.4495,-0.4864,0.4933,-0.1,0,0.5,0.007,0.01,0.005,1023
2018,4,25,20,47,16.236,0.5639,-0.4494,-0.4864,0.4933,-0.1,0,0.6,0.01,0.012,0.001,1023
2018,4,25,20,47,16.275,0.5639,-0.4494,-0.4864,0.4933,0,0,0,0.01,0.009,0.004,1023
2018,4,25,20,47,16.279,0.5638,-0.4494,-0.4864,0.4933,0,0,0,0.01,0.011,0.001,1023
2018,4,25,20,47,16.295,0.5638,-0.4494,-0.4864,0.4933,0,0,0.6,0.01,0.012,0,1023
2018,4,25,20,47,16.315,0.5638,-0.4494,-0.4864,0.4933,-0.4,0.1,0.5,0.012,0.01,0.002,1023
2018,4,25,20,47,16.335,0.5638,-0.4495,-0.4864,0.4932,-0.4,0.3,0.5,0.012,0.01,0.005,1023
2018,4,25,20,47,16.355,0.5638,-0.4495,-0.4865,0.4932,-0.4,0,0.5,0.013,0.013,0.007,1023
2018,4,25,20,47,16.394,0.5638,-0.4495,-0.4865,0.4932,0,0.1,0.5,0.011,0.013,0.001,1023
2018,4,25,20,47,16.414,0.5638,-0.4494,-0.4865,0.4932,0,0.1,0.7,0.01,0.014,-0.002,1023
2018,4,25,20,47,16.418,0.5638,-0.4494,-0.4865,0.4932,-0.1,0,0.8,0.011,0.011,0.003,0
2018,4,25,20,47,16.438,0.5638,-0.4494,-0.4865,0.4932,-0.2,0,0.5,0.007,0.013,0.002,0
2018,4,25,20,47,16.457,0.5638,-0.4494,-0.4865,0.4932,-0.2,0,0.5,0.009,0.01,0.006,0
2018,4,25,20,47,16.494,0.5638,-0.4494,-0.4864,0.4933,-0.2,0,0.5,0.013,0.01,0.004,0
2018,4,25,20,47,16.516,0.5638,-0.4494,-0.4864,0.4933,-0.3,-0.1,0.5,0.011,0.01,0.007,0
2018,4,25,20,47,16.52,0.5638,-0.4495,-0.4864,0.4933,-0.4,0.1,0.5,0.012,0.01,0,0
2018,4,25,20,47,16.536,0.5638,-0.4495,-0.4864,0.4933,-0.4,0,0.5,0.01,0.01,0.003,0
2018,4,25,20,47,16.555,0.5638,-0.4495,-0.4864,0.4933,-0.2,0,0.7,0.01,0.013,0.002,0
2018,4,25,20,47,16.577,0.5638,-0.4495,-0.4864,0.4933,-0.5,0,0.5,0.012,0.012,0.002,0
2018,4,25,20,47,16.597,0.5638,-0.4495,-0.4864,0.4933,-0.4,0,0.6,0.009,0.011,0.001,0
2018,4,25,20,47,16.618,0.5638,-0.4495,-0.4864,0.4932,-0.3,0,0.6,0.011,0.012,0.002,0
2018,4,25,20,47,16.638,0.5638,-0.4495,-0.4864,0.4932,0,0,0.5,0.009,0.013,0.001,0
2018,4,25,20,47,16.659,0.5639,-0.4495,-0.4864,0.4932,-0.1,0,0.7,0.009,0.012,0.004,0
2018,4,25,20,47,16.679,0.5639,-0.4495,-0.4864,0.4932,-0.4,0,0.5,0.012,0.011,0.003,0
2018,4,25,20,47,16.698,0.5639,-0.4495,-0.4864,0.4932,-0.5,0,0.5,0.008,0.013,0,0
2018,4,25,20,47,16.736,0.5638,-0.4495,-0.4864,0.4932,0,0,0,0.009,0.011,0,0
2018,4,25,20,47,16.756,0.5638,-0.4495,-0.4864,0.4932,-0.4,0,0.7,0.009,0.011,0.002,0
2018,4,25,20,47,16.759,0.5638,-0.4496,-0.4864,0.4932,0,0,0,0.011,0.011,0,0
2018,4,25,20,47,16.779,0.5638,-0.4496,-0.4864,0.4931,-0.2,0,0.5,0.01,0.01,0,0
2018,4,25,20,47,16.8,0.5638,-0.4496,-0.4864,0.4931,0,0,0.7,0.009,0.01,0.003,0
2018,4,25,20,47,16.819,0.5638,-0.4496,-0.4864,0.4931,-0.3,0.1,0.7,0.014,0.011,0.008,0
2018,4,25,20,47,16.838,0.5638,-0.4496,-0.4864,0.4931,-0.1,0,0.6,0.01,0.012,0.003,0
2018,4,25,20,47,16.877,0.5638,-0.4496,-0.4864,0.4931,-0.2,0.1,0.6,0.012,0.013,0.006,0
2018,4,25,20,47,16.897,0.5638,-0.4496,-0.4865,0.4931,-0.1,0,0.5,0.01,0.013,0.009,0
2018,4,25,20,47,16.901,0.5638,-0.4496,-0.4865,0.4931,-0.3,0.1,0.5,0.011,0.012,0.005,0
2018,4,25,20,47,16.921,0.5638,-0.4496,-0.4865,0.4931,-0.3,0.1,0.5,0.007,0.011,0.003,1023
2018,4,25,20,47,16.956,0.5638,-0.4496,-0.4865,0.4931,-0.4,0,0.5,0.009,0.012,0.005,1023
2018,4,25,20,47,16.977,0.5638,-0.4496,-0.4865,0.4931,-0.2,0,0.5,0.011,0.008,0.002,1023
2018,4,25,20,47,16.981,0.5638,-0.4496,-0.4865,0.4931,-0.1,0,0.7,0.008,0.013,0.005,1023
2018,4,25,20,47,17,0.5638,-0.4496,-0.4865,0.4931,-0.3,0.1,0.5,0.01,0.009,0.001,1023
2018,4,25,20,47,17.018,0.5638,-0.4496,-0.4865,0.4931,-0.4,0.3,0.5,0.011,0.012,0.002,1023
2018,4,25,20,47,17.038,0.5638,-0.4496,-0.4865,0.4931,-0.5,0.1,0.5,0.011,0.009,0.001,1023
2018,4,25,20,47,17.077,0.5637,-0.4496,-0.4865,0.4931,0,0,0,0.01,0.011,0.005,1023
2018,4,25,20,47,17.097,0.5638,-0.4496,-0.4865,0.4931,0,0,0,0.012,0.012,0,1023
2018,4,25,20,47,17.101,0.5638,-0.4497,-0.4865,0.4931,-0.1,0,0.7,0.014,0.011,0.001,1023
2018,4,25,20,47,17.121,0.5638,-0.4496,-0.4865,0.4931,0,0,0.6,0.012,0.012,0.001,1023
2018,4,25,20,47,17.141,0.5638,-0.4496,-0.4865,0.4931,0.1,0,0.6,0.013,0.012,0.008,1023
2018,4,25,20,47,17.179,0.5639,-0.4496,-0.4865,0.4931,-0.1,0.1,0.7,0.009,0.011,0.002,0
2018,4,25,20,47,17.198,0.5639,-0.4495,-0.4865,0.4931,0,0,0.7,0.007,0.011,-0.003,0
2018,4,25,20,47,17.202,0.5639,-0.4495,-0.4864,0.4931,-0.1,0,0.5,0.009,0.009,0,0
2018,4,25,20,47,17.239,0.5639,-0.4495,-0.4864,0.4931,-0.2,0.1,0.7,0.01,0.013,0.001,0
2018,4,25,20,47,17.26,0.5639,-0.4495,-0.4864,0.4931,0,0,0,0.009,0.01,0,0
2018,4,25,20,47,17.264,0.5639,-0.4496,-0.4864,0.4931,-0.2,0,0.5,0.011,0.012,0.002,0
2018,4,25,20,47,17.283,0.5639,-0.4496,-0.4864,0.4931,-0.1,0.1,0.5,0.013,0.01,0,0
2018,4,25,20,47,17.304,0.5639,-0.4496,-0.4864,0.4931,-0.3,0,0.5,0.012,0.014,-0.001,0
2018,4,25,20,47,17.323,0.5638,-0.4496,-0.4864,0.4931,-0.3,0.1,0.6,0.012,0.011,0.003,0
2018,4,25,20,47,17.342,0.5638,-0.4496,-0.4865,0.493,-0.4,0.2,0.6,0.012,0.01,0,0
2018,4,25,20,47,17.382,0.5638,-0.4496,-0.4865,0.493,-0.4,0,0.7,0.011,0.011,0.005,0
2018,4,25,20,47,17.4,0.5638,-0.4496,-0.4865,0.493,-0.3,0,0.6,0.01,0.008,-0.005,0
2018,4,25,20,47,17.404,0.5638,-0.4496,-0.4865,0.493,-0.2,0,0.6,0.01,0.01,0.001,0
2018,4,25,20,47,17.424,0.5638,-0.4496,-0.4866,0.493,-0.2,0,0.6,0.008,0.011,0.004,0
2018,4,25,20,47,17.462,0.5638,-0.4496,-0.4866,0.493,-0.4,0.1,0.6,0.011,0.011,-0.002,0
2018,4,25,20,47,17.466,0.5638,-0.4496,-0.4865,0.493,-0.4,0.1,0.5,0.007,0.013,0.006,0
2018,4,25,20,47,17.483,0.5638,-0.4497,-0.4866,0.493,-0.4,0.1,0.5,0.01,0.012,0,0
2018,4,25,20,47,17.502,0.5637,-0.4497,-0.4866,0.493,-0.6,0,0.5,0.011,0.012,0,0
2018,4,25,20,47,17.522,0.5637,-0.4497,-0.4866,0.4929,-0.4,0,0.5,0.009,0.011,0.006,0
2018,4,25,20,47,17.56,0.5637,-0.4497,-0.4866,0.4929,-0.1,0,0.5,0.012,0.013,0,0
2018,4,25,20,47,17.581,0.5637,-0.4498,-0.4866,0.4929,-0.3,-0.1,0.6,0.009,0.013,-0.001,0
2018,4,25,20,47,17.585,0.5637,-0.4498,-0.4866,0.4929,-0.2,0,0.6,0.01,0.013,0.003,0
2018,4,25,20,47,17.607,0.5638,-0.4497,-0.4866,0.4928,-0.2,0.2,0.5,0.012,0.013,0.005,0
2018,4,25,20,47,17.627,0.5638,-0.4498,-0.4866,0.4928,-0.3,0.2,0.5,0.01,0.011,0,0
2018,4,25,20,47,17.645,0.5638,-0.4498,-0.4866,0.4928,-0.5,0.2,0.5,0.011,0.01,0.005,0
2018,4,25,20,47,17.665,0.5637,-0.4498,-0.4866,0.4928,-0.5,0,0.5,0.01,0.009,0,0
2018,4,25,20,47,17.683,0.5637,-0.4498,-0.4866,0.4929,-0.2,0,0.5,0.012,0.01,0,1023
2018,4,25,20,47,17.722,0.5637,-0.4498,-0.4866,0.4929,-0.1,0.1,0.7,0.01,0.013,-0.001,1023
2018,4,25,20,47,17.741,0.5637,-0.4498,-0.4866,0.4929,-0.2,0,0.7,0.012,0.015,-0.002,1023
2018,4,25,20,47,17.746,0.5637,-0.4498,-0.4866,0.4928,-0.2,0.2,0.6,0.01,0.015,0.002,1023
2018,4,25,20,47,17.764,0.5637,-0.4498,-0.4867,0.4928,0,0,0,0.013,0.009,-0.001,1023
2018,4,25,20,47,17.783,0.5637,-0.4498,-0.4867,0.4928,0,0.1,0.5,0.01,0.011,0.006,1023
2018,4,25,20,47,17.803,0.5637,-0.4498,-0.4867,0.4928,-0.4,0,0.5,0.008,0.011,0.001,1023
2018,4,25,20,47,17.842,0.5636,-0.4499,-0.4867,0.4928,-0.6,0.1,0.6,0.011,0.012,0,1023
2018,4,25,20,47,17.862,0.5636,-0.4499,-0.4867,0.4928,-0.2,0.2,0.7,0.011,0.01,0.006,1023
2018,4,25,20,47,17.866,0.5636,-0.4499,-0.4868,0.4928,0,0,0.8,0.009,0.009,-0.001,1023
2018,4,25,20,47,17.907,0.5637,-0.4498,-0.4867,0.4928,0.3,0,0.7,0.013,0.011,0.003,1023
2018,4,25,20,47,17.926,0.5637,-0.4498,-0.4867,0.4928,0,0,0.5,0.011,0.012,0.007,0
2018,4,25,20,47,17.93,0.5637,-0.4497,-0.4867,0.4928,0,0,0,0.008,0.013,0.004,0
2018,4,25,20,47,17.967,0.5637,-0.4498,-0.4867,0.4928,-0.7,0,0.3,0.009,0.013,0.002,0
2018,4,25,20,47,17.971,0.5637,-0.4498,-0.4867,0.4928,-0.5,0.1,0.6,0.009,0.012,0.003,0
2018,4,25,20,47,17.986,0.5636,-0.4498,-0.4867,0.4928,-0.4,0.1,0.5,0.011,0.011,-0.001,0
2018,4,25,20,47,18.024,0.5636,-0.4499,-0.4867,0.4928,-0.5,0.2,0.7,0.014,0.013,0,0
2018,4,25,20,47,18.044,0.5636,-0.4499,-0.4868,0.4928,0,0,0,0.011,0.01,0.003,0
2018,4,25,20,47,18.048,0.5636,-0.4499,-0.4868,0.4928,-0.2,0,0.5,0.01,0.013,0.001,0
2018,4,25,20,47,18.067,0.5636,-0.4499,-0.4868,0.4927,-0.4,0.1,0.8,0.012,0.013,0.002,0
2018,4,25,20,47,18.087,0.5636,-0.4499,-0.4868,0.4927,-0.4,0,0.5,0.011,0.013,0.002,0
2018,4,25,20,47,18.126,0.5636,-0.4499,-0.4868,0.4927,-0.3,0,0.5,0.01,0.01,0.003,0
2018,4,25,20,47,18.145,0.5636,-0.4499,-0.4868,0.4927,-0.2,0.1,0.6,0.01,0.013,0.005,0
2018,4,25,20,47,18.149,0.5636,-0.4499,-0.4869,0.4927,-0.3,0.1,0.7,0.013,0.011,0.003,0
2018,4,25,20,47,18.187,0.5636,-0.4499,-0.4869,0.4926,0,0,0,0.008,0.013,0,0
2018,4,25,20,47,18.191,0.5636,-0.4499,-0.4869,0.4926,-0.4,0.1,0.7,0.008,0.013,0.003,0
2018,4,25,20,47,18.207,0.5635,-0.45,-0.4869,0.4926,-0.5,0.1,0.5,0.011,0.014,0.003,0
2018,4,25,20,47,18.228,0.5635,-0.45,-0.4869,0.4926,-0.6,0,0.5,0.01,0.013,0.001,0
2018,4,25,20,47,18.247,0.5635,-0.45,-0.487,0.4926,-0.5,0.1,0.6,0.011,0.012,0,0
2018,4,25,20,47,18.269,0.5635,-0.45,-0.487,0.4926,-0.4,0.1,0.7,0.012,0.012,0,0
2018,4,25,20,47,18.289,0.5634,-0.45,-0.487,0.4925,-0.3,0.1,0.5,0.01,0.01,0.001,0
2018,4,25,20,47,18.328,0.5634,-0.4501,-0.4871,0.4925,-0.3,0,0.6,0.009,0.011,0.001,0
2018,4,25,20,47,18.349,0.5634,-0.4501,-0.487,0.4925,0,0,0,0.009,0.013,0,0
2018,4,25,20,47,18.353,0.5634,-0.4501,-0.4871,0.4925,-0.1,0,0.8,0.009,0.012,0.003,0
2018,4,25,20,47,18.372,0.5634,-0.4501,-0.487,0.4925,-0.1,0,0.6,0.01,0.007,0.003,0
2018,4,25,20,47,18.39,0.5634,-0.4501,-0.487,0.4925,0,0,0,0.008,0.01,0.003,0
2018,4,25,20,47,18.409,0.5634,-0.4501,-0.487,0.4926,0,0,0,0.009,0.013,0.002,1023
2018,4,25,20,47,18.428,0.5634,-0.4501,-0.487,0.4926,-0.3,0,0.5,0.01,0.011,0.003,1023
2018,4,25,20,47,18.448,0.5634,-0.4501,-0.4869,0.4926,-0.1,-0.1,0.5,0.012,0.011,0.001,1023
2018,4,25,20,47,18.468,0.5634,-0.4501,-0.4869,0.4926,-0.3,0,0.5,0.009,0.011,0.006,1023
2018,4,25,20,47,18.509,0.5634,-0.4501,-0.487,0.4926,-0.4,0.3,0.5,0.011,0.011,0.003,1023
2018,4,25,20,47,18.528,0.5634,-0.4502,-0.487,0.4926,-0.6,0.1,0.5,0.008,0.014,0,1023
2018,4,25,20,47,18.532,0.5633,-0.4502,-0.487,0.4925,-0.2,0,0.5,0.012,0.01,0,1023
2018,4,25,20,47,18.551,0.5634,-0.4502,-0.487,0.4925,0,-0.1,0.5,0.01,0.011,0.002,1023
2018,4,25,20,47,18.572,0.5634,-0.4502,-0.487,0.4925,-0.2,0,0.6,0.01,0.011,0.002,1023
2018,4,25,20,47,18.609,0.5634,-0.4502,-0.4869,0.4925,0,0,0.5,0.01,0.012,-0.001,1023
2018,4,25,20,47,18.614,0.5634,-0.4502,-0.4869,0.4925,0.1,0,0.7,0.008,0.011,-0.001,1023
2018,4,25,20,47,18.631,0.5635,-0.4502,-0.4869,0.4925,0,0,0.7,0.012,0.011,0.001,0
2018,4,25,20,47,18.669,0.5635,-0.4501,-0.4869,0.4925,0,0,0.5,0.01,0.011,0.002,0
2018,4,25,20,47,18.689,0.5635,-0.4501,-0.4869,0.4925,-0.3,0.2,0.5,0.01,0.012,0.002,0
2018,4,25,20,47,18.693,0.5635,-0.4502,-0.4868,0.4926,-0.4,0.1,0.5,0.01,0.01,0.002,0
2018,4,25,20,47,18.711,0.5635,-0.4502,-0.4868,0.4926,-0.3,0,0.5,0.012,0.011,-0.001,0
2018,4,25,20,47,18.732,0.5635,-0.4502,-0.4868,0.4926,-0.1,0,0.5,0.011,0.014,0.005,0
2018,4,25,20,47,18.752,0.5634,-0.4502,-0.4868,0.4926,-0.5,0.1,0.5,0.01,0.013,0,0
2018,4,25,20,47,18.791,0.5634,-0.4502,-0.4868,0.4926,-0.2,0.2,0.5,0.012,0.011,0.003,0
2018,4,25,20,47,18.812,0.5634,-0.4502,-0.4868,0.4926,-0.2,0,0.7,0.011,0.013,0,0
2018,4,25,20,47,18.816,0.5634,-0.4502,-0.4869,0.4926,-0.2,0.1,0.7,0.013,0.012,0.006,0
2018,4,25,20,47,18.834,0.5635,-0.4502,-0.4869,0.4925,-0.2,0.1,0.7,0.012,0.013,0,0
2018,4,25,20,47,18.853,0.5635,-0.4502,-0.4869,0.4925,-0.2,0,0.7,0.01,0.011,0,0
2018,4,25,20,47,18.892,0.5635,-0.4502,-0.4869,0.4925,-0.1,0,0.5,0.009,0.014,0,0
2018,4,25,20,47,18.896,0.5635,-0.4502,-0.4869,0.4925,-0.2,0,0.6,0.01,0.011,-0.001,0
2018,4,25,20,47,18.912,0.5635,-0.4502,-0.4869,0.4925,-0.4,0.1,0.5,0.009,0.014,0.001,0
2018,4,25,20,47,18.931,0.5635,-0.4502,-0.4869,0.4925,-0.2,0.2,0.5,0.01,0.013,0.005,0
2018,4,25,20,47,18.951,0.5635,-0.4502,-0.4869,0.4925,-0.6,0,0.7,0.012,0.009,0.001,0
2018,4,25,20,47,18.99,0.5634,-0.4503,-0.4869,0.4924,-0.4,0,0.5,0.01,0.012,-0.001,0
2018,4,25,20,47,19.011,0.5634,-0.4503,-0.4869,0.4925,-0.2,0,0.5,0.013,0.012,0,0
2018,4,25,20,47,19.016,0.5634,-0.4503,-0.4869,0.4925,-0.1,0,0.5,0.01,0.008,0.002,0
2018,4,25,20,47,19.035,0.5635,-0.4503,-0.4869,0.4924,-0.4,0,0.5,0.011,0.011,0,0
2018,4,25,20,47,19.055,0.5635,-0.4503,-0.4869,0.4924,-0.1,0.1,0.7,0.011,0.012,0.001,0
2018,4,25,20,47,19.093,0.5635,-0.4503,-0.4869,0.4924,-0.2,0,0.6,0.007,0.016,0,0
2018,4,25,20,47,19.114,0.5634,-0.4503,-0.4869,0.4924,-0.4,0.1,0.5,0.008,0.011,0.005,0
2018,4,25,20,47,19.118,0.5634,-0.4503,-0.4869,0.4924,-0.3,0.1,0.5,0.01,0.011,0.002,0
2018,4,25,20,47,19.132,0.5634,-0.4503,-0.4869,0.4924,-0.4,0.3,0.5,0.008,0.014,0,0
2018,4,25,20,47,19.153,0.5634,-0.4504,-0.4869,0.4924,0,0,0,0.013,0.01,0.002,0
2018,4,25,20,47,19.189,0.5634,-0.4504,-0.4869,0.4924,-0.2,0.1,0.5,0.012,0.01,0.002,1023
2018,4,25,20,47,19.21,0.5634,-0.4504,-0.4869,0.4925,-0.1,0.1,0.5,0.01,0.013,-0.001,1023
2018,4,25,20,47,19.214,0.5634,-0.4504,-0.4869,0.4924,-0.1,-0.1,0.7,0.01,0.011,0.003,1023
2018,4,25,20,47,19.237,0.5634,-0.4503,-0.4869,0.4924,-0.1,0.1,0.5,0.01,0.013,0.004,1023
2018,4,25,20,47,19.255,0.5634,-0.4504,-0.4869,0.4924,-0.4,0.1,0.5,0.008,0.013,0.004,1023
2018,4,25,20,47,19.276,0.5634,-0.4504,-0.4869,0.4924,-0.2,0,0.6,0.012,0.013,-0.001,1023
2018,4,25,20,47,19.295,0.5634,-0.4504,-0.487,0.4924,-0.2,0.1,0.5,0.01,0.009,0.003,1023
2018,4,25,20,47,19.334,0.5633,-0.4504,-0.4869,0.4924,0,0,0,0.01,0.01,0.001,1023
