time_1,time_2,time_3,time_4,time_5,time_6,w,x,y,z,droll,dpitch,dyaw,ax,ay,az,heart
2018,4,25,20,42,37.543,0.2979,-0.2532,-0.0612,-0.9183,0,0,0,0.002,-0.002,-0.007,1023
2018,4,25,20,42,37.547,0.2979,-0.2533,-0.0614,-0.9183,0.3,0.3,0.5,-0.003,0.003,-0.002,1023
2018,4,25,20,42,37.561,0.2978,-0.2533,-0.0615,-0.9183,0,0,0.5,0.001,0.003,-0.007,1023
2018,4,25,20,42,37.582,0.2978,-0.2534,-0.0616,-0.9182,-0.1,0,0.5,0.005,0.001,-0.006,1023
2018,4,25,20,42,37.603,0.2978,-0.2533,-0.0616,-0.9183,-0.4,-0.1,0.7,0.007,0,-0.004,0
2018,4,25,20,42,37.623,0.2978,-0.2533,-0.0615,-0.9183,-0.6,-0.1,0.7,0.006,0,-0.003,0
2018,4,25,20,42,37.643,0.2978,-0.2532,-0.0615,-0.9183,-0.2,-0.2,0.5,0.004,-0.002,0,0
2018,4,25,20,42,37.679,0.2979,-0.2531,-0.0613,-0.9183,-0.2,-0.1,0.6,0.001,-0.003,-0.002,0
2018,4,25,20,42,37.702,0.2978,-0.2531,-0.0613,-0.9183,-0.3,0,0.6,0.003,0,-0.002,0
2018,4,25,20,42,37.706,0.2979,-0.2531,-0.0613,-0.9183,-0.2,0,0.5,0.001,0,0,0
2018,4,25,20,42,37.744,0.2978,-0.2532,-0.0613,-0.9183,-0.8,0,0.5,0,0,-0.002,0
2018,4,25,20,42,37.764,0.2978,-0.2532,-0.0612,-0.9183,-0.7,0,0.5,0.004,-0.002,-0.001,0
2018,4,25,20,42,37.768,0.298,-0.2531,-0.061,-0.9183,-0.2,0,0.5,0.007,-0.002,-0.001,0
2018,4,25,20,42,37.783,0.2979,-0.2531,-0.0611,-0.9183,0,0,0,0.003,-0.002,-0.001,0
2018,4,25,20,42,37.823,0.2979,-0.2531,-0.0612,-0.9183,0,0,0,0.001,-0.001,-0.008,0
2018,4,25,20,42,37.841,0.2979,-0.2531,-0.0613,-0.9183,0.1,0.1,0.5,0,0,-0.001,0
2018,4,25,20,42,37.845,0.298,-0.2531,-0.0613,-0.9182,0,0.2,0.5,-0.001,0,-0.001,0
2018,4,25,20,42,37.866,0.2979,-0.2533,-0.0615,-0.9183,-0.2,0.1,0.7,0.002,0,-0.007,0
2018,4,25,20,42,37.886,0.2978,-0.2533,-0.0616,-0.9183,-0.3,0,0.8,0.002,-0.003,-0.007,0
2018,4,25,20,42,37.923,0.2978,-0.2533,-0.0615,-0.9183,-0.5,-0.1,0.4,0.004,-0.002,-0.005,0
2018,4,25,20,42,37.943,0.2977,-0.2533,-0.0615,-0.9183,-0.6,0,0.3,0.003,0,-0.005,0
2018,4,25,20,42,37.947,0.2977,-0.2533,-0.0615,-0.9183,0,0,0,0,-0.002,-0.005,0
2018,4,25,20,42,37.968,0.2977,-0.2534,-0.0617,-0.9183,0,0,0,0,0,-0.007,0
2018,4,25,20,42,37.989,0.2976,-0.2534,-0.0618,-0.9183,0,0,0,0.001,-0.002,-0.002,0
2018,4,25,20,42,38.005,0.2977,-0.2534,-0.0618,-0.9183,-0.4,0.1,0.5,0.001,0,-0.006,0
2018,4,25,20,42,38.026,0.2976,-0.2535,-0.0618,-0.9183,-0.4,0,0.5,0.005,0,-0.001,0
2018,4,25,20,42,38.047,0.2976,-0.2535,-0.0618,-0.9183,-0.3,0,0.8,0.004,0,-0.005,0
2018,4,25,20,42,38.067,0.2976,-0.2534,-0.0617,-0.9183,-0.2,0.1,0.5,0.002,-0.002,-0.001,0
2018,4,25,20,42,38.089,0.2977,-0.2534,-0.0615,-0.9183,0,-0.1,0.5,0.002,-0.003,-0.002,0
2018,4,25,20,42,38.108,0.2977,-0.2534,-0.0616,-0.9183,-0.4,0,0.8,0,0.002,-0.002,0
2018,4,25,20,42,38.144,0.2977,-0.2534,-0.0615,-0.9183,-0.2,0.4,0.5,0.001,0.002,-0.006,0
2018,4,25,20,42,38.164,0.2977,-0.2534,-0.0617,-0.9183,0.3,0.3,0.7,0.003,-0.004,0,0
2018,4,25,20,42,38.168,0.2977,-0.2534,-0.0617,-0.9183,-0.4,0,0.5,0.006,-0.003,-0.005,1023
2018,4,25,20,42,38.207,0.2978,-0.2534,-0.0615,-0.9183,-0.6,-0.2,0.3,0.004,-0.003,-0.006,1023
2018,4,25,20,42,38.228,0.2978,-0.2533,-0.0615,-0.9183,-0.4,-0.2,0.6,0.003,0.003,-0.001,1023
2018,4,25,20,42,38.232,0.2977,-0.2533,-0.0615,-0.9183,-0.6,-0.2,0.8,0.003,-0.002,-0.001,1023
2018,4,25,20,42,38.247,0.2977,-0.2532,-0.0614,-0.9183,0.1,-0.1,0.7,0.004,-0.005,-0.001,1023
2018,4,25,20,42,38.267,0.2979,-0.2531,-0.0613,-0.9183,0.1,0.3,0.5,0.003,-0.004,-0.005,1023
2018,4,25,20,42,38.288,0.298,-0.2531,-0.0613,-0.9183,0.3,0.2,0.6,0.001,-0.001,-0.007,1023
2018,4,25,20,42,38.327,0.2978,-0.2532,-0.0616,-0.9183,0.1,0.4,0.5,0,0.002,-0.003,1023
2018,4,25,20,42,38.345,0.2978,-0.2533,-0.0617,-0.9183,0.1,0.2,0.6,0,0,0,1023
2018,4,25,20,42,38.349,0.2978,-0.2532,-0.0618,-0.9183,0,0,0.5,0.004,-0.003,-0.007,0
2018,4,25,20,42,38.368,0.2978,-0.2532,-0.0618,-0.9183,-0.2,-0.2,0.6,0.004,-0.001,-0.006,0
2018,4,25,20,42,38.389,0.2979,-0.2531,-0.0616,-0.9183,-0.6,-0.3,0.5,0.004,0.001,-0.001,0
2018,4,25,20,42,38.424,0.2978,-0.2531,-0.0616,-0.9183,-0.4,-0.2,0.5,0.003,-0.001,-0.004,0
2018,4,25,20,42,38.443,0.2977,-0.2531,-0.0616,-0.9183,-0.4,0,0.6,0.002,0,0,0
2018,4,25,20,42,38.451,0.2977,-0.2531,-0.0615,-0.9183,-0.5,0,0.5,0.005,-0.001,0,0
2018,4,25,20,42,38.472,0.2977,-0.2532,-0.0615,-0.9184,-0.4,0,0.5,0.005,0,-0.007,0
2018,4,25,20,42,38.492,0.2977,-0.2532,-0.0615,-0.9183,-0.4,0.1,0.6,0.001,-0.004,0.001,0
2018,4,25,20,42,38.507,0.2978,-0.2532,-0.0613,-0.9183,-0.6,0.3,0.7,0.001,-0.004,0,0
2018,4,25,20,42,38.545,0.2977,-0.2532,-0.0613,-0.9183,-0.1,0.4,0.7,0.003,-0.004,-0.001,0
2018,4,25,20,42,38.566,0.2977,-0.2533,-0.0613,-0.9183,0.2,0.8,0.7,0.005,-0.002,0.001,0
2018,4,25,20,42,38.57,0.2978,-0.2533,-0.0614,-0.9183,0.6,1.1,0.6,0.006,-0.003,-0.008,0
2018,4,25,20,42,38.606,0.2979,-0.2534,-0.0614,-0.9182,0.4,1,0.3,0,0,-0.007,0
2018,4,25,20,42,38.626,0.298,-0.2535,-0.0615,-0.9181,0.3,0.6,0.4,-0.002,0,-0.006,0
2018,4,25,20,42,38.632,0.298,-0.2536,-0.0617,-0.9181,0,0,0,-0.001,0.002,-0.007,0
2018,4,25,20,42,38.653,0.298,-0.2536,-0.0618,-0.9181,-0.4,0,0.6,0,0.003,-0.006,0
2018,4,25,20,42,38.673,0.2981,-0.2536,-0.0617,-0.9181,-0.8,0,0.5,0.003,-0.001,-0.003,0
2018,4,25,20,42,38.688,0.298,-0.2537,-0.0617,-0.9181,-0.9,-0.2,0.3,0.005,-0.002,-0.004,0
2018,4,25,20,42,38.729,0.2981,-0.2536,-0.0615,-0.9181,-0.7,0.1,0.3,0.008,-0.004,0,0
2018,4,25,20,42,38.733,0.2981,-0.2536,-0.0613,-0.9181,-0.6,0.3,0.2,0.006,-0.004,-0.001,0
2018,4,25,20,42,38.75,0.2981,-0.2537,-0.0614,-0.9181,0,0,0,0.008,-0.002,-0.002,0
2018,4,25,20,42,38.787,0.2981,-0.2538,-0.0614,-0.9181,-0.2,0.6,0.3,0.001,-0.003,0.001,0
2018,4,25,20,42,38.809,0.2981,-0.2539,-0.0614,-0.918,0,0.8,0.5,0,0,0,0
2018,4,25,20,42,38.812,0.2981,-0.254,-0.0615,-0.918,0,0.8,0.4,0,-0.003,-0.004,0
2018,4,25,20,42,38.831,0.298,-0.2541,-0.0617,-0.918,0,0.6,0.5,0.001,-0.001,-0.007,0
2018,4,25,20,42,38.85,0.2979,-0.2543,-0.0618,-0.918,-0.3,0.3,0.5,0.003,-0.003,-0.007,0
2018,4,25,20,42,38.872,0.2979,-0.2543,-0.0617,-0.9179,-0.6,0.3,0.7,0,0.001,-0.007,0
2018,4,25,20,42,38.891,0.298,-0.2543,-0.0616,-0.9179,-0.6,0.3,0.8,0.002,0.001,-0.004,0
2018,4,25,20,42,38.909,0.298,-0.2544,-0.0615,-0.9179,-0.5,0.4,0.5,0,0.002,-0.004,1023
2018,4,25,20,42,38.928,0.2981,-0.2544,-0.0615,-0.9179,0.1,0.6,0.4,0.003,0,0.001,1023
2018,4,25,20,42,38.966,0.2982,-0.2544,-0.0615,-0.9178,-0.4,0.1,0.5,0.002,0,-0.005,1023
2018,4,25,20,42,38.986,0.2982,-0.2544,-0.0614,-0.9178,-0.9,0,0.3,0.006,-0.005,-0.008,1023
2018,4,25,20,42,38.99,0.298,-0.2545,-0.0614,-0.9179,-0.7,0.2,0.6,0.004,-0.006,-0.002,1023
2018,4,25,20,42,39.032,0.2981,-0.2545,-0.0613,-0.9179,-0.4,0,0.7,0.004,-0.001,0.002,1023
2018,4,25,20,42,39.052,0.2981,-0.2545,-0.0613,-0.9179,0,0.3,0.7,0.007,-0.004,0,1023
2018,4,25,20,42,39.056,0.2982,-0.2545,-0.0613,-0.9178,0.5,0.6,0.6,0.004,-0.005,-0.001,1023
2018,4,25,20,42,39.071,0.2982,-0.2546,-0.0615,-0.9178,0.5,0.7,0.3,0.001,0,-0.008,1023
2018,4,25,20,42,39.111,0.2982,-0.2547,-0.0617,-0.9177,0.1,0.6,0.7,-0.003,0.003,-0.009,1023
2018,4,25,20,42,39.132,0.298,-0.2549,-0.062,-0.9177,-0.2,0.4,0.7,0.001,0.003,-0.006,0
2018,4,25,20,42,39.136,0.2979,-0.255,-0.062,-0.9177,-0.4,0.4,0.7,0.003,-0.001,-0.004,0
2018,4,25,20,42,39.156,0.2979,-0.255,-0.062,-0.9177,-0.3,0.1,0.7,0.006,0,-0.002,0
2018,4,25,20,42,39.175,0.2979,-0.255,-0.0619,-0.9177,-0.5,0,0.5,0.007,0,0,0
2018,4,25,20,42,39.192,0.2978,-0.2551,-0.062,-0.9177,-0.4,0,0.5,0.004,0.002,0,0
2018,4,25,20,42,39.212,0.2979,-0.255,-0.062,-0.9177,0,0,0,0.007,0,0,0
2018,4,25,20,42,39.233,0.2979,-0.2551,-0.0621,-0.9177,-0.6,0.3,0.3,0,-0.001,-0.004,0
2018,4,25,20,42,39.253,0.298,-0.2551,-0.0619,-0.9177,-0.7,0.1,0.3,0.001,0,-0.008,0
2018,4,25,20,42,39.291,0.2979,-0.2552,-0.0619,-0.9177,-0.7,0.4,0.5,0.003,0.002,0.002,0
2018,4,25,20,42,39.311,0.298,-0.2553,-0.0618,-0.9177,-0.6,0.6,0.4,0.004,-0.002,0.004,0
2018,4,25,20,42,39.315,0.298,-0.2553,-0.0618,-0.9176,0.1,0.6,0.3,0.005,-0.003,-0.001,0
2018,4,25,20,42,39.335,0.2979,-0.2555,-0.062,-0.9176,0.1,0.9,0.3,0.004,-0.001,-0.004,0
2018,4,25,20,42,39.354,0.298,-0.2556,-0.062,-0.9175,-0.1,0.7,0.3,0.004,-0.001,-0.002,0
2018,4,25,20,42,39.394,0.298,-0.2557,-0.062,-0.9175,-0.4,0.6,0.4,0.003,0,-0.007,0
2018,4,25,20,42,39.414,0.298,-0.2558,-0.062,-0.9175,-0.6,0.2,0.4,-0.003,0,-0.004,0
2018,4,25,20,42,39.418,0.2982,-0.2558,-0.0619,-0.9174,-0.6,0.2,0.5,0,0.002,-0.004,0
2018,4,25,20,42,39.435,0.2982,-0.2558,-0.0618,-0.9174,-0.6,0.2,0.4,0.001,-0.003,-0.002,0
2018,4,25,20,42,39.454,0.2982,-0.2559,-0.0618,-0.9174,-0.7,0,0.7,0.003,-0.003,-0.003,0
2018,4,25,20,42,39.494,0.2982,-0.2559,-0.0616,-0.9174,-0.6,0.1,0.5,0.003,-0.002,-0.001,0
2018,4,25,20,42,39.515,0.2983,-0.2559,-0.0615,-0.9174,-0.5,0.2,0.3,0.006,-0.002,-0.003,0
2018,4,25,20,42,39.519,0.2983,-0.2558,-0.0615,-0.9174,0,0,0,0.003,-0.004,-0.005,0
2018,4,25,20,42,39.535,0.2983,-0.2559,-0.0616,-0.9174,0,0.2,0.5,0.004,0.001,-0.005,0
2018,4,25,20,42,39.556,0.2983,-0.2559,-0.0617,-0.9174,0.1,0.2,0.5,0.003,0,-0.002,0
2018,4,25,20,42,39.595,0.2983,-0.256,-0.0619,-0.9173,0,0,0,0.003,0,-0.003,0
2018,4,25,20,42,39.615,0.2982,-0.2561,-0.0621,-0.9173,0,0,0,0,0,-0.003,0
2018,4,25,20,42,39.619,0.2981,-0.2562,-0.0622,-0.9173,-0.4,-0.1,0.5,0.001,-0.003,-0.005,0
2018,4,25,20,42,39.635,0.298,-0.2561,-0.0622,-0.9174,-0.6,-0.2,0.6,0,0,-0.003,0
2018,4,25,20,42,39.672,0.2981,-0.2561,-0.062,-0.9174,-1,0.1,0.4,0.002,0,-0.005,0
2018,4,25,20,42,39.692,0.298,-0.2561,-0.0619,-0.9174,0,0,0,0.006,-0.001,-0.002,0
2018,4,25,20,42,39.696,0.2981,-0.256,-0.0619,-0.9174,0,0,0,0.004,-0.003,-0.001,0
2018,4,25,20,42,39.715,0.2981,-0.256,-0.0619,-0.9174,-0.7,-0.4,0.3,0.005,-0.001,-0.008,1023
2018,4,25,20,42,39.736,0.298,-0.2561,-0.0619,-0.9174,-0.6,-0.4,0.7,0,0,-0.004,1023
2018,4,25,20,42,39.774,0.298,-0.256,-0.0618,-0.9174,-0.1,-0.3,0.9,0.003,0,0,1023
2018,4,25,20,42,39.797,0.2981,-0.2558,-0.0617,-0.9175,0.1,-0.2,0.8,0.004,-0.002,0.001,1023
2018,4,25,20,42,39.801,0.2982,-0.2557,-0.0617,-0.9175,0.3,0,0.7,0.003,-0.005,-0.001,1023
2018,4,25,20,42,39.819,0.2981,-0.2558,-0.0619,-0.9175,0.6,0.1,0.7,0.002,-0.004,-0.006,1023
2018,4,25,20,42,39.855,0.2981,-0.2558,-0.062,-0.9175,0.1,0,0.6,-0.001,0.004,-0.001,1023
2018,4,25,20,42,39.875,0.2982,-0.2557,-0.062,-0.9174,0.1,0,0.7,0,0.003,-0.003,1023
2018,4,25,20,42,39.879,0.2982,-0.2557,-0.062,-0.9174,0,-0.1,0.6,0.002,-0.001,0.001,1023
2018,4,25,20,42,39.898,0.2981,-0.2556,-0.0621,-0.9175,-0.2,-0.4,0.7,0.005,0,-0.005,1023
2018,4,25,20,42,39.916,0.2981,-0.2556,-0.062,-0.9175,-0.6,-0.6,0.6,0.006,-0.001,-0.002,0
2018,4,25,20,42,39.938,0.2981,-0.2555,-0.0619,-0.9175,-0.5,-0.4,0.6,0.006,0,-0.003,0
2018,4,25,20,42,39.974,0.2982,-0.2554,-0.0619,-0.9176,-0.2,-0.5,0.5,0.002,0,-0.003,0
2018,4,25,20,42,39.994,0.2981,-0.2554,-0.0619,-0.9176,-0.5,-0.3,0.4,0,-0.001,-0.002,0
2018,4,25,20,42,39.998,0.2982,-0.2553,-0.0618,-0.9176,-0.5,-0.2,0.3,0.002,-0.002,-0.005,0
2018,4,25,20,42,40.02,0.2982,-0.2553,-0.0617,-0.9176,-0.7,-0.1,0.5,0.004,0,0.001,0
2018,4,25,20,42,40.039,0.2982,-0.2553,-0.0616,-0.9176,-0.7,0.2,0.5,0.003,-0.004,0.001,0
2018,4,25,20,42,40.06,0.2981,-0.2553,-0.0617,-0.9176,0,0,0,0.002,-0.002,0,0
2018,4,25,20,42,40.079,0.298,-0.2554,-0.0619,-0.9176,0,0,0,0.003,0,0,0
2018,4,25,20,42,40.119,0.298,-0.2554,-0.0619,-0.9176,0,0.1,0.6,0,0,-0.002,0
2018,4,25,20,42,40.123,0.2982,-0.2553,-0.0618,-0.9176,0,0,0.5,0,0.001,-0.005,0
2018,4,25,20,42,40.14,0.2982,-0.2553,-0.0619,-0.9176,0,0,0,-0.001,0.003,-0.003,0
2018,4,25,20,42,40.179,0.2982,-0.2553,-0.0619,-0.9176,-0.2,-0.3,0.5,0,0,-0.003,0
2018,4,25,20,42,40.198,0.2983,-0.2552,-0.0618,-0.9176,-0.4,-0.2,0.7,0.004,0.001,-0.005,0
2018,4,25,20,42,40.202,0.2982,-0.2552,-0.0618,-0.9176,-0.6,-0.4,0.6,0.003,-0.003,-0.004,0
2018,4,25,20,42,40.222,0.2982,-0.2551,-0.0616,-0.9176,-0.6,-0.3,0.5,0.002,-0.004,-0.001,0
2018,4,25,20,42,40.241,0.2982,-0.2551,-0.0617,-0.9176,-0.2,-0.3,0.5,0.003,0.002,-0.002,0
2018,4,25,20,42,40.262,0.2982,-0.2551,-0.0617,-0.9176,0,0,0,0.003,-0.003,-0.002,0
2018,4,25,20,42,40.281,0.2982,-0.255,-0.0617,-0.9176,-0.2,-0.2,0.6,0.001,-0.003,-0.006,0
2018,4,25,20,42,40.321,0.2983,-0.2549,-0.0616,-0.9177,-0.1,0,0.5,0.003,0,-0.001,0
2018,4,25,20,42,40.325,0.2983,-0.2549,-0.0616,-0.9177,-0.2,-0.2,0.7,0.005,-0.002,0,0
2018,4,25,20,42,40.343,0.2983,-0.2548,-0.0615,-0.9177,-0.3,-0.1,0.7,0.001,-0.002,-0.004,0
2018,4,25,20,42,40.36,0.2983,-0.2547,-0.0614,-0.9177,-0.2,-0.2,0.8,0.002,-0.001,-0.006,0
2018,4,25,20,42,40.397,0.2983,-0.2547,-0.0615,-0.9177,-0.1,-0.2,0.8,0.003,-0.002,-0.005,0
2018,4,25,20,42,40.418,0.2983,-0.2546,-0.0614,-0.9177,0,-0.2,0.8,0.002,0,-0.003,0
2018,4,25,20,42,40.422,0.2983,-0.2546,-0.0614,-0.9178,-0.4,-0.1,0.9,0,0.002,-0.005,0
2018,4,25,20,42,40.46,0.2982,-0.2546,-0.0615,-0.9178,0.2,0.1,0.9,0.003,0,0.001,0
2018,4,25,20,42,40.481,0.2982,-0.2545,-0.0616,-0.9178,0.5,-0.1,0.7,0.003,0,-0.003,0
2018,4,25,20,42,40.485,0.2983,-0.2544,-0.0616,-0.9178,-0.4,-0.4,0.6,0.001,0.001,-0.008,0
2018,4,25,20,42,40.503,0.2983,-0.2543,-0.0614,-0.9178,-0.6,-0.4,0.7,0.001,-0.002,0,0
2018,4,25,20,42,40.541,0.2983,-0.2542,-0.0613,-0.9179,-0.3,-0.4,0.7,0,0,0,1023
2018,4,25,20,42,40.546,0.2982,-0.2541,-0.0613,-0.9179,-0.2,-0.3,0.9,0.003,-0.004,-0.001,1023
2018,4,25,20,42,40.562,0.2983,-0.254,-0.0612,-0.9179,0.1,-0.1,0.7,0.005,-0.007,0,1023
2018,4,25,20,42,40.581,0.2984,-0.2539,-0.0612,-0.9179,0.4,0,0.5,0.003,-0.002,-0.008,1023
2018,4,25,20,42,40.6,0.2984,-0.2539,-0.0613,-0.9179,0.2,0,0.5,0,0,-0.006,1023
2018,4,25,20,42,40.622,0.2984,-0.2539,-0.0615,-0.9179,0,0.1,0.8,0,0.001,-0.004,1023
2018,4,25,20,42,40.643,0.2983,-0.2539,-0.0616,-0.9179,0,0,0.8,0,-0.001,0,1023
2018,4,25,20,42,40.68,0.2983,-0.2539,-0.0617,-0.9179,0,0,0.6,0.004,-0.001,-0.003,1023
2018,4,25,20,42,40.699,0.2983,-0.2538,-0.0616,-0.918,-0.1,-0.3,0.7,0.008,-0.003,0,1023
2018,4,25,20,42,40.703,0.2984,-0.2537,-0.0615,-0.918,-0.6,-0.4,0.7,0.005,-0.003,0,0
2018,4,25,20,42,40.725,0.2983,-0.2536,-0.0614,-0.918,-0.3,-0.3,0.5,0.005,0,0,0
2018,4,25,20,42,40.745,0.2983,-0.2536,-0.0615,-0.918,-0.2,-0.1,0.6,0.003,0,-0.001,0
2018,4,25,20,42,40.766,0.2985,-0.2535,-0.0613,-0.918,-0.4,-0.1,0.7,0.002,0.001,-0.004,0
2018,4,25,20,42,40.786,0.2985,-0.2535,-0.0613,-0.918,-0.6,-0.2,0.5,0,-0.003,0,0
2018,4,25,20,42,40.802,0.2984,-0.2535,-0.0612,-0.918,-0.9,-0.1,0.6,0.004,-0.003,-0.002,0
2018,4,25,20,42,40.839,0.2984,-0.2535,-0.0611,-0.9181,-0.6,0,0.6,0.004,-0.004,0.002,0
2018,4,25,20,42,40.86,0.2983,-0.2535,-0.0611,-0.9181,-0.2,0,0.6,0.002,-0.004,0.001,0
2018,4,25,20,42,40.865,0.2983,-0.2535,-0.0611,-0.9181,-0.1,0.1,0.6,0.004,-0.001,0,0
2018,4,25,20,42,40.883,0.2983,-0.2535,-0.0612,-0.9181,0,0.1,0.5,0.003,-0.001,-0.007,0
2018,4,25,20,42,40.923,0.2983,-0.2535,-0.0612,-0.918,0,0.2,0.5,0,0,-0.004,0
2018,4,25,20,42,40.942,0.2984,-0.2535,-0.0612,-0.918,0,0,0.5,0.002,0,-0.004,0
2018,4,25,20,42,40.946,0.2985,-0.2534,-0.0611,-0.918,-0.2,0,0.8,0,0.002,-0.002,0
2018,4,25,20,42,40.983,0.2984,-0.2534,-0.0612,-0.9181,-0.3,-0.2,0.7,-0.001,0.001,-0.004,0
2018,4,25,20,42,41.005,0.2984,-0.2534,-0.0612,-0.9181,-0.2,-0.3,0.7,0.005,0,-0.005,0
2018,4,25,20,42,41.009,0.2984,-0.2533,-0.0612,-0.9181,-0.4,-0.1,0.5,0.004,0,-0.001,0
2018,4,25,20,42,41.024,0.2983,-0.2533,-0.0612,-0.9181,-0.3,0,0.7,0.005,-0.001,-0.007,0
2018,4,25,20,42,41.062,0.2982,-0.2533,-0.0613,-0.9181,-0.4,0,0.5,0.003,0,-0.001,0
2018,4,25,20,42,41.081,0.2982,-0.2533,-0.0612,-0.9181,-0.3,0,0.6,0.005,-0.003,-0.006,0
2018,4,25,20,42,41.085,0.2983,-0.2533,-0.0612,-0.9181,0,0,0,0.004,-0.002,-0.003,0
2018,4,25,20,42,41.104,0.2982,-0.2534,-0.0613,-0.9181,-0.1,0.2,0.6,0.002,-0.001,-0.002,0
2018,4,25,20,42,41.143,0.2982,-0.2534,-0.0613,-0.9181,-0.2,-0.1,0.7,0,0.001,-0.003,0
2018,4,25,20,42,41.161,0.2981,-0.2534,-0.0614,-0.9181,-0.3,-0.1,0.6,0.003,0,-0.003,0
2018,4,25,20,42,41.165,0.2982,-0.2534,-0.0613,-0.9181,-0.4,-0.1,0.6,0,-0.003,-0.004,0
2018,4,25,20,42,41.187,0.298,-0.2534,-0.0614,-0.9182,-0.5,-0.2,0.7,0.002,0,-0.003,0
2018,4,25,20,42,41.208,0.2981,-0.2533,-0.0612,-0.9182,-0.4,-0.1,0.7,0.003,0,-0.004,0
2018,4,25,20,42,41.224,0.2981,-0.2533,-0.0612,-0.9182,-0.5,-0.1,0.7,0.003,-0.002,-0.001,0
2018,4,25,20,42,41.261,0.298,-0.2533,-0.0611,-0.9182,-0.2,0.1,0.5,0.004,0.001,-0.001,0
2018,4,25,20,42,41.282,0.2982,-0.2532,-0.0611,-0.9182,0.5,0.1,0.6,0,-0.002,0,0
2018,4,25,20,42,41.286,0.298,-0.2533,-0.0613,-0.9182,-0.4,0,0.5,0.004,0,-0.004,1023
2018,4,25,20,42,41.326,0.2981,-0.2532,-0.0612,-0.9182,-0.6,-0.1,0.4,0.002,0,-0.004,1023
2018,4,25,20,42,41.345,0.2982,-0.2532,-0.061,-0.9182,-0.6,-0.2,0.7,0,0,-0.002,1023
2018,4,25,20,42,41.349,0.2982,-0.2531,-0.0609,-0.9182,-0.4,-0.1,0.8,0.003,-0.001,-0.002,1023
2018,4,25,20,42,41.367,0.2983,-0.253,-0.0608,-0.9182,0,0,0.8,0.004,-0.006,0.001,1023
2018,4,25,20,42,41.387,0.2984,-0.2529,-0.0608,-0.9182,0.3,0,0.5,0.006,0,0,1023
2018,4,25,20,42,41.41,0.2984,-0.2529,-0.0609,-0.9182,0.3,0.2,0.5,0.002,0,-0.007,1023
2018,4,25,20,42,41.448,0.2985,-0.2529,-0.0609,-0.9182,0.3,0.4,0.6,-0.001,0,-0.003,1023
2018,4,25,20,42,41.467,0.2984,-0.253,-0.0611,-0.9182,0.1,0.1,0.8,0.001,0,-0.005,1023
2018,4,25,20,42,41.471,0.2983,-0.253,-0.0612,-0.9182,0,0,0.8,0.006,-0.001,-0.006,1023
2018,4,25,20,42,41.491,0.2983,-0.253,-0.0612,-0.9182,-0.1,-0.2,0.7,0.006,0,-0.005,0
2018,4,25,20,42,41.512,0.2984,-0.2529,-0.0611,-0.9182,-0.6,-0.2,0.7,0.004,0.001,-0.008,0
2018,4,25,20,42,41.528,0.2983,-0.2528,-0.0612,-0.9183,-0.2,-0.2,0.7,0.004,0,0.003,0
2018,4,25,20,42,41.547,0.2982,-0.2528,-0.0612,-0.9183,-0.2,-0.1,0.7,0.003,0,-0.001,0
2018,4,25,20,42,41.568,0.2981,-0.2528,-0.0613,-0.9183,-0.3,-0.1,0.7,0.003,-0.001,-0.008,0
2018,4,25,20,42,41.59,0.2981,-0.2528,-0.0613,-0.9183,-0.6,0,0.6,0.003,0.001,-0.006,0
2018,4,25,20,42,41.608,0.298,-0.2529,-0.0614,-0.9183,-0.6,0.1,0.5,0.004,-0.004,-0.003,0
2018,4,25,20,42,41.628,0.2979,-0.2529,-0.0613,-0.9184,-0.7,0.1,0.6,0.003,0,0.002,0
2018,4,25,20,42,41.649,0.298,-0.2529,-0.0612,-0.9184,-0.1,0,0.5,0.003,-0.004,0,0
2018,4,25,20,42,41.687,0.2981,-0.2528,-0.0611,-0.9183,0,0,0.5,0.002,-0.002,-0.002,0
2018,4,25,20,42,41.708,0.2981,-0.2528,-0.0612,-0.9183,0,0,0,-0.002,-0.002,-0.005,0
2018,4,25,20,42,41.712,0.2981,-0.2529,-0.0614,-0.9183,0,0.1,0.6,0,0.003,-0.004,0
2018,4,25,20,42,41.729,0.2982,-0.2528,-0.0613,-0.9183,-0.5,0,0.7,0.001,-0.002,-0.008,0
2018,4,25,20,42,41.769,0.2981,-0.2529,-0.0614,-0.9183,-0.4,0,0.5,0.004,-0.005,0,0
2018,4,25,20,42,41.771,0.2981,-0.2529,-0.0613,-0.9183,-0.3,-0.1,0.5,0.005,0,-0.004,0
2018,4,25,20,42,41.789,0.2981,-0.2529,-0.0613,-0.9183,-0.4,-0.1,0.5,0.004,-0.005,-0.003,0
2018,4,25,20,42,41.809,0.298,-0.2529,-0.0614,-0.9183,-0.5,0,0.5,0.002,-0.002,-0.005,0
2018,4,25,20,42,41.844,0.298,-0.2529,-0.0615,-0.9183,0,0,0,0.004,-0.001,-0.002,0
2018,4,25,20,42,41.865,0.298,-0.2529,-0.0615,-0.9183,0,0,0,0.003,0,-0.001,0
2018,4,25,20,42,41.869,0.2981,-0.2529,-0.0615,-0.9183,-0.2,0.1,0.5,0.002,0,-0.004,0
2018,4,25,20,42,41.906,0.2981,-0.2529,-0.0615,-0.9183,-0.2,0.3,0.6,0.003,-0.003,-0.003,0
2018,4,25,20,42,41.928,0.298,-0.253,-0.0616,-0.9183,-0.1,0,0.5,0,0,0.002,0
2018,4,25,20,42,41.93,0.2981,-0.2529,-0.0615,-0.9183,-0.2,0.1,0.7,0,-0.002,-0.006,0
2018,4,25,20,42,41.947,0.2982,-0.2529,-0.0613,-0.9183,-0.2,0.1,0.5,0.001,0,-0.003,0
2018,4,25,20,42,41.966,0.2982,-0.2528,-0.0613,-0.9183,-0.3,-0.2,0.5,0,-0.003,-0.004,0
2018,4,25,20,42,42.002,0.2982,-0.2528,-0.0612,-0.9183,-0.1,0,0.7,0.004,-0.001,-0.005,0
2018,4,25,20,42,42.025,0.2982,-0.2528,-0.0612,-0.9183,-0.5,-0.1,0.7,0.006,0,0,0
2018,4,25,20,42,42.026,0.298,-0.2529,-0.0613,-0.9183,-0.3,0.1,0.7,0.004,-0.003,-0.001,1023
2018,4,25,20,42,42.068,0.2981,-0.2528,-0.0613,-0.9183,0.6,0.3,0.7,0.003,-0.001,-0.001,1023
2018,4,25,20,42,42.088,0.298,-0.2529,-0.0616,-0.9183,-0.1,0.1,0.5,0.001,-0.001,-0.004,1023
2018,4,25,20,42,42.09,0.2981,-0.2528,-0.0614,-0.9183,-0.6,0,0.4,0.004,-0.002,-0.004,1023
2018,4,25,20,42,42.129,0.298,-0.2529,-0.0614,-0.9183,-0.4,0,0.5,0.002,0,-0.002,1023
2018,4,25,20,42,42.149,0.2979,-0.2529,-0.0615,-0.9183,-0.2,0.2,0.8,0.007,-0.001,0,1023
2018,4,25,20,42,42.153,0.2979,-0.2529,-0.0615,-0.9184,0,0.4,0.8,0.005,-0.005,0.005,1023
2018,4,25,20,42,42.191,0.2978,-0.253,-0.0617,-0.9184,0.5,0.4,0.6,0.006,-0.004,0,1023
2018,4,25,20,42,42.211,0.298,-0.2529,-0.0617,-0.9183,0.6,0.6,0.5,0,0,-0.007,1023
2018,4,25,20,42,42.213,0.298,-0.253,-0.0619,-0.9183,0.6,0.8,0.5,-0.005,0.002,-0.005,1023
2018,4,25,20,42,42.23,0.298,-0.2531,-0.0622,-0.9182,0.4,0.8,0.7,-0.004,0.002,-0.004,0
2018,4,25,20,42,42.25,0.298,-0.2532,-0.0622,-0.9182,0.1,0.4,0.8,0.004,-0.001,-0.012,0
2018,4,25,20,42,42.288,0.2979,-0.2533,-0.0624,-0.9182,-0.1,0.3,0.7,0.007,0,-0.004,0
2018,4,25,20,42,42.306,0.2978,-0.2533,-0.0624,-0.9182,-0.9,0.1,0.6,0.008,0,-0.001,0
2018,4,25,20,42,42.312,0.2978,-0.2533,-0.0623,-0.9182,0,0,0,0.003,-0.004,-0.001,0
2018,4,25,20,42,42.347,0.2979,-0.2533,-0.0624,-0.9182,0,0,0,0.001,0,0.005,0
2018,4,25,20,42,42.368,0.2978,-0.2534,-0.0625,-0.9182,-0.6,0.3,0.5,0.003,0,-0.006,0
2018,4,25,20,42,42.372,0.2978,-0.2534,-0.0626,-0.9182,0,0,0,0,-0.001,-0.003,0
2018,4,25,20,42,42.412,0.2978,-0.2535,-0.0626,-0.9182,-0.7,0.3,0.3,0.001,-0.001,-0.001,0
2018,4,25,20,42,42.432,0.2978,-0.2536,-0.0624,-0.9181,-0.8,0.6,0.5,0.004,-0.002,0.001,0
2018,4,25,20,42,42.434,0.2979,-0.2536,-0.0623,-0.9181,-0.3,0.7,0.5,0.005,-0.002,0.001,0
2018,4,25,20,42,42.47,0.298,-0.2536,-0.0622,-0.9181,-0.1,0.8,0.2,0.003,-0.002,0,0
2018,4,25,20,42,42.491,0.298,-0.2538,-0.0623,-0.918,0.1,0.9,0.3,0.005,0,-0.006,0
2018,4,25,20,42,42.493,0.2982,-0.2538,-0.0622,-0.9179,0,0.7,0.3,0,0,-0.003,0
2018,4,25,20,42,42.53,0.2982,-0.254,-0.0624,-0.9179,0,0.6,0.2,0,0.003,-0.006,0
2018,4,25,20,42,42.55,0.2982,-0.2541,-0.0625,-0.9178,-0.4,0.4,0.5,0,-0.002,-0.011,0
2018,4,25,20,42,42.552,0.2983,-0.2541,-0.0624,-0.9178,-0.6,0.2,0.3,0,-0.001,-0.001,0
2018,4,25,20,42,42.59,0.2983,-0.2541,-0.0623,-0.9178,-0.7,0,0.5,0.002,-0.003,0,0
2018,4,25,20,42,42.611,0.2984,-0.2541,-0.0621,-0.9178,-0.6,0,0.3,0.006,-0.002,-0.004,0
2018,4,25,20,42,42.615,0.2984,-0.2541,-0.0621,-0.9178,-0.6,0.2,0.5,0.002,-0.001,0.001,0
2018,4,25,20,42,42.636,0.2983,-0.2542,-0.0622,-0.9178,0,0,0,0.003,0.002,-0.001,0
2018,4,25,20,42,42.652,0.2982,-0.2543,-0.0624,-0.9178,-0.4,0.4,0.5,0.003,-0.002,-0.006,0
2018,4,25,20,42,42.673,0.2983,-0.2543,-0.0624,-0.9178,-0.3,0.6,0.3,0.004,-0.004,-0.005,0
2018,4,25,20,42,42.71,0.2983,-0.2544,-0.0624,-0.9177,0,0,0,0.002,0,-0.004,0
2018,4,25,20,42,42.73,0.2983,-0.2544,-0.0624,-0.9177,-0.4,0.4,0.5,0.003,-0.001,-0.002,0
2018,4,25,20,42,42.732,0.2984,-0.2545,-0.0624,-0.9177,0,0,0,0.001,0,-0.006,0
2018,4,25,20,42,42.771,0.2984,-0.2546,-0.0624,-0.9177,-0.1,0.3,0.7,0,-0.002,-0.004,0
2018,4,25,20,42,42.792,0.2984,-0.2546,-0.0624,-0.9177,-0.1,0.1,0.7,0.001,0.001,-0.001,0
2018,4,25,20,42,42.796,0.2984,-0.2546,-0.0624,-0.9177,-0.8,0.3,0.9,0.003,0,-0.007,0
2018,4,25,20,42,42.835,0.2984,-0.2547,-0.0623,-0.9176,-0.6,0.6,0.5,0.003,0,-0.001,1023
2018,4,25,20,42,42.855,0.2982,-0.2548,-0.0624,-0.9176,0.1,0.4,0.5,0.005,-0.001,0,1023
2018,4,25,20,42,42.857,0.2982,-0.2549,-0.0625,-0.9176,0,0,0,0.005,-0.004,-0.008,1023
2018,4,25,20,42,42.872,0.2982,-0.2549,-0.0624,-0.9176,-0.6,0.1,0.5,0.002,-0.005,-0.001,1023
2018,4,25,20,42,42.894,0.2981,-0.255,-0.0626,-0.9176,-0.2,0.3,0.6,0.001,0.004,-0.003,1023
2018,4,25,20,42,42.93,0.2982,-0.255,-0.0625,-0.9176,0,0.4,0.6,0.003,-0.003,0,1023
2018,4,25,20,42,42.95,0.2982,-0.2549,-0.0625,-0.9176,0.3,0.6,0.5,0.008,-0.008,-0.004,1023
2018,4,25,20,42,42.952,0.2984,-0.2549,-0.0624,-0.9176,0.4,0.6,0.5,0.006,-0.004,-0.007,1023
2018,4,25,20,42,42.99,0.2983,-0.255,-0.0626,-0.9176,0,0.4,0.5,0,0,-0.004,1023
2018,4,25,20,42,43.01,0.2981,-0.2552,-0.0629,-0.9175,-0.1,0.5,0.5,-0.004,0.001,0,0
2018,4,25,20,42,43.014,0.2981,-0.2553,-0.063,-0.9175,0,0.5,0.7,0,0,-0.003,0
2018,4,25,20,42,43.054,0.2981,-0.2553,-0.063,-0.9175,-0.2,0.3,0.7,0.005,-0.001,-0.007,0
2018,4,25,20,42,43.073,0.2981,-0.2554,-0.063,-0.9175,-0.5,0.1,0.5,0.006,-0.001,-0.004,0
2018,4,25,20,42,43.075,0.2981,-0.2554,-0.0629,-0.9175,-0.5,0,0.4,0.005,-0.003,-0.005,0
2018,4,25,20,42,43.112,0.298,-0.2554,-0.063,-0.9175,0,0,0,0.004,0.001,0.002,0
2018,4,25,20,42,43.131,0.298,-0.2554,-0.0631,-0.9175,0,0,0,0.001,-0.001,-0.001,0
2018,4,25,20,42,43.135,0.298,-0.2555,-0.0632,-0.9175,0,0,0,-0.002,0,-0.009,0
2018,4,25,20,42,43.174,0.298,-0.2556,-0.0632,-0.9175,-0.5,0.2,0.3,0.001,0.004,-0.005,0
2018,4,25,20,42,43.195,0.2979,-0.2557,-0.0633,-0.9174,-0.9,0.4,0.3,0.005,0,-0.003,0
2018,4,25,20,42,43.197,0.298,-0.2557,-0.0631,-0.9174,-0.4,0.5,0.2,0.007,-0.005,-0.003,0
2018,4,25,20,42,43.236,0.298,-0.2558,-0.0631,-0.9174,0,0,0,0.005,-0.003,-0.002,0
2018,4,25,20,42,43.256,0.298,-0.2558,-0.0632,-0.9174,0,0,0,0.001,0.001,-0.004,0
2018,4,25,20,42,43.258,0.298,-0.2559,-0.0634,-0.9174,0,0,0,0,-0.001,-0.002,0
2018,4,25,20,42,43.297,0.2979,-0.256,-0.0636,-0.9173,0,0,0,-0.002,0,-0.002,0
2018,4,25,20,42,43.317,0.298,-0.2561,-0.0636,-0.9173,0,0,0,-0.001,0.001,-0.008,0
2018,4,25,20,42,43.319,0.2981,-0.256,-0.0634,-0.9173,-0.7,-0.2,0.3,0.001,0,-0.001,0
2018,4,25,20,42,43.356,0.2981,-0.2559,-0.0632,-0.9173,-0.7,-0.2,0.3,0.005,-0.005,0,0
2018,4,25,20,42,43.358,0.2981,-0.2559,-0.0631,-0.9173,0,0,0,0.007,-0.007,0.003,0
2018,4,25,20,42,43.376,0.2981,-0.2559,-0.0632,-0.9173,0,0,0,0.003,0,0,0
2018,4,25,20,42,43.395,0.2982,-0.2558,-0.0631,-0.9173,-0.4,-0.2,0.5,0.001,-0.001,-0.004,0
2018,4,25,20,42,43.433,0.2982,-0.2558,-0.0631,-0.9173,0,0,0,0.001,-0.003,-0.006,0
2018,4,25,20,42,43.454,0.2983,-0.2557,-0.063,-0.9173,-0.1,-0.2,0.6,0,-0.004,-0.003,0
2018,4,25,20,42,43.461,0.2983,-0.2557,-0.063,-0.9173,0,-0.2,0.6,0.002,-0.001,-0.003,0
2018,4,25,20,42,43.497,0.2982,-0.2557,-0.0631,-0.9174,0,-0.2,0.5,0.002,0,0,0
2018,4,25,20,42,43.518,0.2983,-0.2556,-0.063,-0.9174,-0.2,-0.6,0.8,0.001,-0.001,-0.005,0
2018,4,25,20,42,43.522,0.2983,-0.2555,-0.063,-0.9174,-0.3,-0.4,0.8,0,-0.002,-0.008,0
2018,4,25,20,42,43.542,0.2983,-0.2554,-0.0629,-0.9174,-0.1,-0.5,1,-0.001,0,-0.005,0
2018,4,25,20,42,43.562,0.2983,-0.2553,-0.0627,-0.9175,-0.7,-0.1,0.8,0.003,0,-0.004,0
2018,4,25,20,42,43.58,0.2984,-0.2551,-0.0626,-0.9175,0,0,0.6,0.004,-0.003,0.002,0
2018,4,25,20,42,43.6,0.2984,-0.2551,-0.0627,-0.9175,0.3,-0.4,0.6,0.003,-0.001,-0.001,0
2018,4,25,20,42,43.639,0.2984,-0.255,-0.0627,-0.9175,-0.7,-0.6,0.6,0.003,-0.003,-0.01,1023
2018,4,25,20,42,43.659,0.2984,-0.2549,-0.0625,-0.9176,-0.6,-0.6,0.7,0.003,-0.002,-0.003,1023
2018,4,25,20,42,43.663,0.2984,-0.2548,-0.0624,-0.9176,-0.1,-0.4,1,0,0,0.003,1023
2018,4,25,20,42,43.683,0.2983,-0.2547,-0.0625,-0.9177,0.2,-0.4,0.7,0.005,-0.002,0.002,1023
2018,4,25,20,42,43.702,0.2983,-0.2546,-0.0625,-0.9177,0.7,0,0.8,0.007,-0.006,-0.005,1023
2018,4,25,20,42,43.742,0.2983,-0.2545,-0.0626,-0.9177,0.7,0,0.6,0.004,-0.001,-0.001,1023
2018,4,25,20,42,43.762,0.2984,-0.2544,-0.0627,-0.9177,0.4,-0.1,0.7,0,0,-0.01,1023
2018,4,25,20,42,43.766,0.2984,-0.2544,-0.0627,-0.9177,0,0,0.8,-0.001,0.004,-0.002,1023
2018,4,25,20,42,43.784,0.2982,-0.2545,-0.0629,-0.9177,0,-0.1,0.7,0,-0.001,0,1023
2018,4,25,20,42,43.805,0.2982,-0.2544,-0.063,-0.9177,-0.1,-0.1,0.8,0.005,0.001,-0.007,1023
2018,4,25,20,42,43.824,0.2982,-0.2543,-0.0629,-0.9178,-0.1,-0.4,0.7,0.004,0,-0.004,1023
2018,4,25,20,42,43.843,0.2984,-0.2541,-0.0627,-0.9178,-0.4,-0.6,0.6,0.008,-0.007,-0.004,1023
2018,4,25,20,42,43.881,0.2984,-0.254,-0.0626,-0.9178,-0.4,-0.3,0.7,0.008,0.003,-0.003,1023
2018,4,25,20,42,43.885,0.2985,-0.2538,-0.0624,-0.9178,-0.4,-0.4,0.7,0.003,-0.001,0,1023
2018,4,25,20,42,43.902,0.2985,-0.2537,-0.0622,-0.9179,-0.4,-0.3,0.5,0.001,-0.002,-0.004,1023
2018,4,25,20,42,43.943,0.2985,-0.2537,-0.0622,-0.9179,-0.4,-0.4,0.6,0,0,-0.003,1023
2018,4,25,20,42,43.962,0.2984,-0.2537,-0.0622,-0.9179,-0.7,-0.1,0.7,0.001,-0.001,0,1023
2018,4,25,20,42,43.966,0.2983,-0.2537,-0.0622,-0.9179,-0.4,-0.1,0.7,0.004,-0.005,-0.004,1023
2018,4,25,20,42,43.985,0.2984,-0.2537,-0.0622,-0.9179,0,0,0.5,0.004,0,-0.004,1023
2018,4,25,20,42,44.007,0.2984,-0.2537,-0.0622,-0.9179,0,0,0.6,0.004,-0.001,-0.004,1023
2018,4,25,20,42,44.027,0.2983,-0.2537,-0.0622,-0.918,0,0,0.6,0.002,-0.003,-0.004,1023
2018,4,25,20,42,44.045,0.2982,-0.2537,-0.0624,-0.918,0,0,0.7,0,-0.002,-0.003,1023
2018,4,25,20,42,44.067,0.2981,-0.2537,-0.0624,-0.918,-0.2,-0.1,0.7,-0.002,-0.001,-0.005,1023
2018,4,25,20,42,44.088,0.2982,-0.2536,-0.0623,-0.918,-0.2,0,0.7,0.001,-0.001,-0.002,1023
2018,4,25,20,42,44.125,0.2981,-0.2536,-0.0624,-0.918,-0.2,-0.3,0.6,0.005,-0.003,-0.003,0
2018,4,25,20,42,44.145,0.2982,-0.2536,-0.0623,-0.918,-0.2,-0.1,0.6,0.005,0,0,0
2018,4,25,20,42,44.149,0.2982,-0.2535,-0.0622,-0.918,0,0,0,0.001,0,0.004,0
2018,4,25,20,42,44.168,0.2982,-0.2534,-0.0622,-0.9181,-0.4,-0.2,0.8,0.001,-0.003,-0.006,0
2018,4,25,20,42,44.187,0.2982,-0.2534,-0.0622,-0.9181,-0.4,-0.2,0.5,0.005,-0.003,0.001,0
2018,4,25,20,42,44.207,0.2981,-0.2534,-0.0622,-0.9181,-0.4,0,0.7,0.002,0,0.002,0
2018,4,25,20,42,44.227,0.2981,-0.2534,-0.0622,-0.9181,-0.4,0.2,0.6,0.005,-0.002,0,0
2018,4,25,20,42,44.247,0.2982,-0.2533,-0.0621,-0.9181,-0.1,0,0.5,0.007,0,-0.003,0
2018,4,25,20,42,44.266,0.2982,-0.2533,-0.062,-0.9181,-0.2,-0.1,0.6,0.003,-0.001,-0.002,0
2018,4,25,20,42,44.305,0.2983,-0.2532,-0.0619,-0.9181,-0.2,-0.1,0.6,0.001,-0.001,0,0
2018,4,25,20,42,44.325,0.2982,-0.2532,-0.062,-0.9181,-0.2,-0.2,0.8,0.003,0.001,-0.006,0
2018,4,25,20,42,44.329,0.298,-0.2533,-0.0622,-0.9182,0,-0.1,0.8,0.001,-0.005,0,0
2018,4,25,20,42,44.368,0.298,-0.2532,-0.0621,-0.9182,-0.4,-0.1,0.7,0.002,0.001,-0.011,0
2018,4,25,20,42,44.389,0.298,-0.2532,-0.062,-0.9182,-0.3,0.1,0.8,0.004,-0.003,-0.006,1023
2018,4,25,20,42,44.393,0.298,-0.2532,-0.0621,-0.9182,0.4,0,0.7,0.003,-0.003,0.001,1023
2018,4,25,20,42,44.412,0.298,-0.2532,-0.0621,-0.9182,-0.4,0,0.5,0.002,-0.003,-0.006,0
2018,4,25,20,42,44.431,0.298,-0.2532,-0.0621,-0.9182,-0.6,0,0.3,0.001,-0.001,-0.007,0
2018,4,25,20,42,44.449,0.2981,-0.2532,-0.0619,-0.9182,-0.5,-0.4,0.7,0.003,0.003,0,0
2018,4,25,20,42,44.47,0.298,-0.2531,-0.0619,-0.9182,-0.4,-0.4,0.8,0.006,-0.001,-0.001,0
2018,4,25,20,42,44.507,0.298,-0.2529,-0.0618,-0.9183,0.1,-0.4,1,0.005,-0.005,0.003,0
2018,4,25,20,42,44.527,0.298,-0.2528,-0.0618,-0.9183,0.6,-0.1,0.8,0.005,-0.003,0.002,0
2018,4,25,20,42,44.531,0.2979,-0.2528,-0.0621,-0.9183,0.7,0.1,0.5,0.003,-0.003,-0.006,0
2018,4,25,20,42,44.549,0.298,-0.2528,-0.0622,-0.9183,0.5,0.4,0.5,-0.003,-0.002,-0.005,0
2018,4,25,20,42,44.587,0.298,-0.2529,-0.0624,-0.9183,0.3,0.4,0.6,-0.001,0.002,-0.001,0
2018,4,25,20,42,44.607,0.298,-0.253,-0.0625,-0.9182,-0.3,0,0.6,-0.001,0,-0.004,0
2018,4,25,20,42,44.611,0.298,-0.253,-0.0623,-0.9182,-0.6,0,0.6,0.003,-0.001,0,0
2018,4,25,20,42,44.627,0.298,-0.2529,-0.0622,-0.9183,-0.9,-0.2,0.7,0.007,0,-0.004,0
2018,4,25,20,42,44.666,0.2981,-0.2528,-0.0621,-0.9183,0,0,0,0.006,0.001,0.004,0
2018,4,25,20,42,44.685,0.2981,-0.2527,-0.062,-0.9183,-0.1,0,0.5,0.002,0,-0.001,0
2018,4,25,20,42,44.689,0.2981,-0.2527,-0.062,-0.9183,0,0,0,0.003,-0.001,0,0
2018,4,25,20,42,44.709,0.2981,-0.2528,-0.0622,-0.9183,0,0,0.5,0,-0.002,-0.001,0
2018,4,25,20,42,44.731,0.2981,-0.2527,-0.0621,-0.9183,-0.4,-0.1,0.5,-0.002,0.001,0,0
2018,4,25,20,42,44.752,0.2982,-0.2527,-0.0619,-0.9183,-0.8,-0.1,0.5,0.001,-0.004,-0.005,0
2018,4,25,20,42,44.772,0.2981,-0.2528,-0.0618,-0.9183,-0.7,0.1,0.5,0.004,-0.002,0,0
2018,4,25,20,42,44.791,0.2982,-0.2528,-0.0617,-0.9183,-0.5,0,0.5,0.007,-0.001,-0.003,1023
2018,4,25,20,42,44.833,0.2982,-0.2527,-0.0616,-0.9183,-0.3,0.1,0.6,0.006,-0.004,-0.003,1023
2018,4,25,20,42,44.837,0.2981,-0.2528,-0.0618,-0.9183,0,0,0,0.005,-0.001,-0.003,1023
2018,4,25,20,42,44.853,0.2981,-0.2528,-0.0619,-0.9183,0,0,0,0.001,-0.002,-0.005,1023
2018,4,25,20,42,44.871,0.298,-0.253,-0.0621,-0.9182,0,0,0,-0.002,-0.003,-0.008,1023
2018,4,25,20,42,44.89,0.2981,-0.2531,-0.0621,-0.9182,-0.5,0.1,0,-0.007,-0.009,-0.007,1023
2018,4,25,20,42,44.911,0.2981,-0.2532,-0.0621,-0.9182,0,0,0,-0.005,0.007,0,1023
2018,4,25,20,42,44.93,0.298,-0.2532,-0.0624,-0.9182,0.1,-0.4,1.2,0,0.009,-0.002,1023
2018,4,25,20,42,44.95,0.2978,-0.253,-0.0625,-0.9183,0.8,-1.6,2.3,-0.004,-0.013,-0.002,1023
2018,4,25,20,42,44.988,0.2976,-0.2527,-0.0626,-0.9184,1.9,-2.6,2.8,-0.007,-0.021,-0.011,1023
2018,4,25,20,42,45.009,0.2973,-0.2523,-0.0629,-0.9186,2.9,-2.4,4.4,-0.012,-0.001,-0.02,1023
2018,4,25,20,42,45.014,0.2965,-0.252,-0.0637,-0.9189,1.8,-1.6,6.5,-0.007,-0.015,-0.019,1023
2018,4,25,20,42,45.032,0.2955,-0.2519,-0.0643,-0.9192,3.4,-0.5,8.2,-0.018,-0.03,-0.009,1023
2018,4,25,20,42,45.051,0.2945,-0.2517,-0.0652,-0.9195,7.4,0.4,9.8,-0.014,-0.029,-0.002,1023
2018,4,25,20,42,45.094,0.2933,-0.2517,-0.0668,-0.9198,6.7,2.7,11.4,-0.007,-0.046,-0.006,1023
2018,4,25,20,42,45.113,0.2917,-0.2521,-0.0675,-0.9201,5.4,2,14,-0.04,-0.098,0.054,1023
2018,4,25,20,42,45.117,0.2898,-0.2514,-0.0695,-0.9208,14.5,-1.5,19.1,-0.083,-0.067,0.122,1023
2018,4,25,20,42,45.136,0.287,-0.25,-0.0725,-0.9218,12.8,-3.8,27.7,-0.096,-0.002,0.083,1023
2018,4,25,20,42,45.156,0.2817,-0.2492,-0.075,-0.9235,-4.8,-3.8,40.3,-0.13,0.033,0.046,1023
2018,4,25,20,42,45.196,0.2735,-0.2498,-0.0755,-0.9257,-10.6,0.1,55.5,-0.188,-0.041,0.042,1023
2018,4,25,20,42,45.216,0.2637,-0.2492,-0.0786,-0.9285,23.5,3.8,69.4,-0.3,-0.154,0.081,1023
2018,4,25,20,42,45.22,0.2545,-0.2457,-0.0919,-0.9307,102.5,1.7,76.9,-0.369,-0.281,0.225,1023
2018,4,25,20,42,45.234,0.248,-0.2376,-0.1191,-0.9315,186.2,-4.9,79.6,-0.418,-0.321,0.366,1023
2018,4,25,20,42,45.269,0.2443,-0.2245,-0.1588,-0.9298,263.2,-9.8,80.3,-0.511,-0.392,0.382,1023
2018,4,25,20,42,45.289,0.2434,-0.2077,-0.2099,-0.9238,330,-9.2,76.5,-0.58,-0.201,0.419,0
2018,4,25,20,42,45.295,0.2434,-0.1879,-0.2681,-0.9129,360.4,-11.9,78.6,-0.644,0.201,0.505,0
2018,4,25,20,42,45.316,0.2408,-0.1668,-0.3263,-0.8987,327.7,-13.5,102.9,-0.647,0.658,0.617,0
2018,4,25,20,42,45.335,0.2298,-0.1464,-0.373,-0.8868,218.8,-13.1,145.7,-0.641,0.777,0.544,0
2018,4,25,20,42,45.373,0.2074,-0.1258,-0.4014,-0.8831,120.3,-15.6,206.6,-0.657,0.606,0.392,0
2018,4,25,20,42,45.394,0.1751,-0.1034,-0.4215,-0.8837,100.3,-12,246.6,-0.603,0.044,0.107,0
2018,4,25,20,42,45.398,0.1366,-0.0799,-0.4417,-0.883,104.5,0.9,276.5,-0.487,-0.009,-0.022,0
2018,4,25,20,42,45.437,0.0929,-0.0562,-0.4596,-0.8814,84.7,11.1,297.8,-0.586,-0.249,-0.026,0
2018,4,25,20,42,45.441,0.0458,-0.0322,-0.4746,-0.8784,87.2,13.1,309.9,-0.699,-0.569,0.022,0
2018,4,25,20,42,45.457,-0.0018,-0.0072,-0.491,-0.871,118.1,7.3,307.1,-0.85,-0.808,0.162,0
2018,4,25,20,42,45.476,-0.0472,0.019,-0.5108,-0.8581,146.8,-12.6,296.4,-1.017,-0.883,0.226,0
2018,4,25,20,42,45.496,-0.0889,0.0472,-0.5323,-0.8404,161.8,-32.3,287,-1.185,-0.91,0.223,0
2018,4,25,20,42,45.516,-0.128,0.0772,-0.5522,-0.8201,143,-45.1,284.4,-1.492,-0.843,0.196,0
2018,4,25,20,42,45.536,-0.1651,0.1089,-0.5656,-0.8005,91.8,-52.4,280.3,-1.906,-1.127,0.14,0
2018,4,25,20,42,45.574,-0.1983,0.142,-0.5682,-0.7858,14.4,-56.2,268,-2.008,-1.178,-0.155,0
2018,4,25,20,42,45.595,-0.2284,0.1772,-0.5597,-0.7766,-47.7,-57.3,270.7,-1.994,-1.145,-0.531,0
2018,4,25,20,42,45.599,-0.2592,0.2133,-0.5449,-0.7683,-44.8,-42.3,289,-1.893,-1.262,-0.868,0
2018,4,25,20,42,45.619,-0.2969,0.2464,-0.5312,-0.7542,7.7,-7.2,328.9,-1.817,-1.241,-0.905,0
2018,4,25,20,42,45.64,-0.3455,0.2776,-0.5157,-0.7331,16.9,20,400,-2.201,-1.296,-0.772,0
2018,4,25,20,42,45.657,-0.4029,0.3121,-0.4929,-0.705,15.4,21.4,467.5,-2.235,-2.059,-0.893,0
2018,4,25,20,42,45.696,-0.465,0.3504,-0.4646,-0.667,7.2,17.3,526.9,-1.998,-2.446,-1.566,0
2018,4,25,20,42,45.701,-0.528,0.393,-0.4242,-0.6218,-62.9,30.3,587.1,-1.966,-1.916,-2.206,0
2018,4,25,20,42,45.718,-0.5846,0.4436,-0.3637,-0.5735,-168.5,31.2,624.2,-2.196,-1.359,-1.95,0
2018,4,25,20,42,45.738,-0.6335,0.4942,-0.2947,-0.517,-111.9,16.5,640,-1.843,-1.28,-1.342,0
2018,4,25,20,42,45.758,-0.6849,0.5266,-0.231,-0.4474,6.5,31.6,650.4,-1.438,-1.199,-0.769,0
2018,4,25,20,42,45.798,-0.7342,0.5449,-0.1639,-0.3701,-21.3,66.5,665.5,-1.558,-0.877,-0.824,0
2018,4,25,20,42,45.819,-0.7644,0.5674,-0.0865,-0.2934,-152.7,61.8,625.5,-2.13,-1.9,0.065,1023
2018,4,25,20,42,45.823,-0.773,0.5938,-0.0162,-0.2224,-176.1,18.1,509.4,-1.651,-2.549,0.515,1023
2018,4,25,20,42,45.841,-0.7701,0.6153,0.0377,-0.1637,-156.3,13.3,389.4,-0.43,-2.266,0.405,1023
2018,4,25,20,42,45.878,-0.7646,0.6277,0.0842,-0.1186,115.6,62.4,300.4,4.124,-12.605,11.836,1023
2018,4,25,20,42,45.899,-0.7717,0.626,0.036,-0.1058,2.2,-291.6,37,2.709,7.922,-4.713,1023
2018,4,25,20,42,45.903,-0.7246,0.6759,-0.0023,-0.1343,-1142.6,-26.3,-248.9,-0.933,0.553,-0.094,0
2018,4,25,20,42,45.919,-0.6459,0.7503,-0.0184,-0.1392,-202.7,-178.2,39.9,-1.342,3.46,2.945,0
2018,4,25,20,42,45.956,-0.6335,0.7654,-0.0345,-0.1072,-12,-191.8,66.3,-0.307,2.897,0.433,0
2018,4,25,20,42,45.978,-0.6193,0.7816,-0.0328,-0.0655,-197.6,-214.2,220.4,-1.023,-0.913,1.769,0
2018,4,25,20,42,45.982,-0.5947,0.8032,-0.0278,-0.0135,-180,-226,185.3,-0.773,-3.126,-0.038,0
2018,4,25,20,42,45.999,-0.5677,0.8221,-0.0314,0.0269,-161.7,-171.9,-23.7,1.036,-0.16,-0.23,0
2018,4,25,20,42,46.034,-0.5291,0.8455,-0.0597,0.0387,-302.7,-141,-100.8,0.929,-0.276,-0.06,0
2018,4,25,20,42,46.054,-0.4882,0.8667,-0.092,0.042,-215.4,-102.2,-144.2,0.822,0.071,-0.407,0
2018,4,25,20,42,46.061,-0.4584,0.8795,-0.1204,0.0415,-181.5,-76.4,-116.4,0.287,0.289,-0.227,0
2018,4,25,20,42,46.083,-0.4281,0.8919,-0.14,0.0382,-205.9,-30.7,-69.3,-0.32,0.414,-0.211,0
2018,4,25,20,42,46.103,-0.392,0.907,-0.1504,0.0314,-250.4,-12.7,-38.2,-0.874,0.229,-0.413,0
2018,4,25,20,42,46.119,-0.349,0.9232,-0.1583,0.0249,-287.1,-22.2,-34.7,-0.831,0.122,-0.448,0
2018,4,25,20,42,46.141,-0.297,0.9403,-0.1648,0.0155,-323,34.8,-14.4,-0.695,-0.836,-0.654,0
2018,4,25,20,42,46.161,-0.2587,0.9528,-0.1585,-0.0055,-121.3,94.9,35.8,-0.366,-3.26,1.632,0
2018,4,25,20,42,46.182,-0.2612,0.951,-0.1644,-0.0129,84.8,-9.7,-104.8,-1.722,-1.244,0.756,0
2018,4,25,20,42,46.2,-0.2774,0.9416,-0.1901,-0.0128,134.8,-26.5,-170.2,-1.781,0.253,0.109,0
2018,4,25,20,42,46.221,-0.2952,0.9305,-0.2165,-0.008,57,-64.3,-114.7,-0.372,1.396,0.323,0
2018,4,25,20,42,46.242,-0.2852,0.9288,-0.2362,-0.0026,-112.9,-87.2,-94.2,-0.252,0.538,0.272,0
2018,4,25,20,42,46.282,-0.2593,0.931,-0.2566,0.0031,-135.4,-103.8,-99.1,0.018,-0.072,0.194,0
2018,4,25,20,42,46.3,-0.217,0.9279,-0.3022,0.021,-74.5,-117.6,-124.9,0.283,0.015,0.062,0
2018,4,25,20,42,46.305,-0.1989,0.9233,-0.3269,0.0318,-78.9,-120.9,-120.1,0.278,0.037,0.158,0
2018,4,25,20,42,46.321,-0.1788,0.9185,-0.3499,0.0421,-92.9,-117.8,-110.5,0.18,-0.054,0.115,0
2018,4,25,20,42,46.339,-0.1564,0.9135,-0.3718,0.0509,-113.1,-110.3,-116.2,-0.032,-0.192,-0.07,0
2018,4,25,20,42,46.361,-0.1175,0.9097,-0.3948,0.0514,-431.5,-101.3,-110.5,-0.241,1,-0.693,0
2018,4,25,20,42,46.381,-0.0599,0.9076,-0.4138,0.0355,-196.6,-19.8,-112.8,0.207,-0.997,-0.715,0
2018,4,25,20,42,46.4,-0.0576,0.8976,-0.4356,0.0327,91.5,5.4,-152.1,-0.443,-0.695,-0.038,0
2018,4,25,20,42,46.439,-0.0765,0.8841,-0.459,0.0411,100.6,-18.8,-152.1,-0.462,0.377,0.244,0
2018,4,25,20,42,46.461,-0.0811,0.8697,-0.4846,0.0455,-53.5,-21.7,-165.9,-0.747,0.72,0.034,0
2018,4,25,20,42,46.465,-0.0657,0.8581,-0.5078,0.0371,-104.3,-14,-124.4,-0.37,0.292,-0.302,0
2018,4,25,20,42,46.483,-0.0557,0.8495,-0.5236,0.0314,-27.4,6.4,-88.8,-0.201,0.083,-0.128,1023
2018,4,25,20,42,46.52,-0.0539,0.8424,-0.5354,0.0263,-37.4,13.1,-76.5,-0.504,0.242,0.151,1023
2018,4,25,20,42,46.54,-0.0444,0.8356,-0.5471,0.0177,-103.2,4.2,-80,-0.244,0.271,0.132,1023
2018,4,25,20,42,46.545,-0.0276,0.8291,-0.5582,0.0053,-126.5,2.5,-70.9,-0.03,0.174,0.025,1023
2018,4,25,20,42,46.563,-0.0082,0.8234,-0.5672,-0.009,-148.2,8.4,-54.4,0.055,0.231,-0.034,1023
2018,4,25,20,42,46.581,0.0139,0.8187,-0.5733,-0.0273,-172.7,18.8,-40,0.079,0.241,-0.067,1023
2018,4,25,20,42,46.602,0.0356,0.8144,-0.5772,-0.047,-155.7,24.3,-29.1,0.074,0.2,-0.089,1023
2018,4,25,20,42,46.622,0.052,0.8106,-0.5796,-0.0636,-95,23.4,-20.6,0.022,0.06,-0.097,1023
2018,4,25,20,42,46.662,0.0588,0.8081,-0.5815,-0.0727,-29.5,19.4,-12.8,-0.005,0.066,-0.007,1023
2018,4,25,20,42,46.683,0.0595,0.8067,-0.5829,-0.0757,4.8,11.7,-8.3,-0.017,0.027,0.076,1023
2018,4,25,20,42,46.687,0.0575,0.806,-0.5842,-0.0756,16.6,5.1,-5.2,0.005,0.037,0.083,0
2018,4,25,20,42,46.707,0.056,0.8057,-0.5847,-0.075,8.1,1.2,-0.2,0.022,0.056,0.056,0
2018,4,25,20,42,46.726,0.0561,0.8059,-0.5845,-0.0753,-3.5,-1.2,3.7,0.048,0.034,0.024,0
2018,4,25,20,42,46.763,0.0566,0.8065,-0.5835,-0.0758,0,-2.3,7,0.05,-0.009,-0.001,0
2018,4,25,20,42,46.783,0.0558,0.8072,-0.5827,-0.0752,6.6,-0.8,5.2,0.026,-0.02,-0.02,0
2018,4,25,20,42,46.81,0.0549,0.8076,-0.5823,-0.0746,3.7,0.6,1.1,0.008,-0.012,-0.018,0
2018,4,25,20,42,46.831,0.0543,0.8075,-0.5825,-0.0741,6.2,0.8,-3.2,0,-0.023,-0.002,0
2018,4,25,20,42,46.833,0.0533,0.8071,-0.5833,-0.073,9.7,0.3,-5.2,-0.033,0.01,0.005,0
2018,4,25,20,42,46.84,0.0527,0.8067,-0.5841,-0.0716,8.7,-1.2,-3.8,-0.059,0.004,0.003,0
2018,4,25,20,42,46.878,0.0521,0.8065,-0.5846,-0.0699,10.3,-1,-0.3,-0.06,0.03,-0.015,0
2018,4,25,20,42,46.897,0.0514,0.8069,-0.5843,-0.0686,9.3,-0.7,6.3,0.012,0.04,-0.041,0
2018,4,25,20,42,46.902,0.05,0.8079,-0.5831,-0.068,10.6,0.3,12.1,0.056,0.022,-0.043,0
2018,4,25,20,42,46.941,0.0479,0.8094,-0.5813,-0.0676,11.2,1,13.8,0.088,0.01,-0.01,0
2018,4,25,20,42,46.959,0.046,0.8108,-0.5795,-0.0674,6.8,1.2,12.4,0.051,-0.004,0.023,0
2018,4,25,20,42,46.964,0.0449,0.8119,-0.578,-0.0673,3.8,0,9.2,0.024,-0.028,0.039,0
2018,4,25,20,42,47.004,0.0442,0.8128,-0.5769,-0.0666,4.3,-2,7.2,0.005,-0.035,0.024,0
2018,4,25,20,42,47.024,0.0437,0.8136,-0.5759,-0.0655,5.4,-3.7,7.2,-0.002,-0.04,-0.003,0
2018,4,25,20,42,47.027,0.043,0.8145,-0.5748,-0.0642,3.9,-3.9,8.4,0.009,-0.03,-0.019,0
2018,4,25,20,42,47.043,0.043,0.8155,-0.5736,-0.0634,-2,-3.3,8.4,0.009,-0.034,-0.025,0
2018,4,25,20,42,47.08,0.0438,0.8162,-0.5724,-0.0634,-8.2,-2.2,6.7,0.01,-0.025,-0.016,0
2018,4,25,20,42,47.1,0.0453,0.8167,-0.5715,-0.0641,-12.7,-1,4.3,-0.003,-0.018,-0.012,0
2018,4,25,20,42,47.102,0.0475,0.8169,-0.571,-0.0652,-14.8,-0.4,1.2,-0.01,-0.006,-0.018,0
2018,4,25,20,42,47.14,0.0495,0.8167,-0.5709,-0.0663,-11.2,0.4,-1.2,-0.007,-0.005,-0.021,0
2018,4,25,20,42,47.16,0.0507,0.8165,-0.571,-0.0671,-5.5,0.7,-1.3,0.002,0.004,-0.02,0
2018,4,25,20,42,47.167,0.0513,0.8164,-0.5711,-0.0675,-3.4,0.9,-0.3,-0.001,-0.002,-0.005,1023
2018,4,25,20,42,47.186,0.0519,0.8164,-0.571,-0.068,-5.2,-0.1,1.1,-0.001,-0.013,0.018,1023
2018,4,25,20,42,47.206,0.0527,0.8165,-0.5707,-0.0681,-2.7,-2,2.1,-0.008,-0.029,0.035,1023
2018,4,25,20,42,47.246,0.053,0.8168,-0.5703,-0.0675,1.2,-3.6,2.8,-0.003,-0.009,-0.005,1023
2018,4,25,20,42,47.265,0.0533,0.8172,-0.5698,-0.0668,-0.9,-3.2,3.3,0.006,0.004,-0.039,1023
2018,4,25,20,42,47.268,0.0539,0.8175,-0.5693,-0.0668,-3.4,-1.3,2.9,0.006,0,-0.038,1023
2018,4,25,20,42,47.285,0.0544,0.8178,-0.5689,-0.067,-3.2,-0.6,1.9,0.001,-0.01,-0.001,1023
2018,4,25,20,42,47.308,0.0548,0.8179,-0.5687,-0.0669,-0.4,-1.4,1.3,-0.003,-0.012,0.018,1023
2018,4,25,20,42,47.327,0.0549,0.8181,-0.5685,-0.0663,2.3,-3.2,1.6,-0.008,-0.005,0.018,1023
2018,4,25,20,42,47.346,0.055,0.8184,-0.5681,-0.0654,2.8,-3.9,3.4,0,0.003,-0.002,0
2018,4,25,20,42,47.383,0.0552,0.8189,-0.5675,-0.0645,2.3,-4.2,5.3,0.001,0.004,-0.018,0
2018,4,25,20,42,47.405,0.0553,0.8196,-0.5666,-0.0638,1.7,-3.6,6.7,0.007,0,-0.026,0
2018,4,25,20,42,47.409,0.0553,0.8203,-0.5656,-0.0631,1.2,-2.9,6.9,0.004,-0.005,-0.02,0
2018,4,25,20,42,47.446,0.0554,0.821,-0.5647,-0.0627,0.3,-2.4,5.8,0.002,-0.011,-0.005,0
2018,4,25,20,42,47.467,0.0555,0.8215,-0.5639,-0.0622,0.2,-2.3,4.3,-0.004,-0.018,-0.004,0
2018,4,25,20,42,47.471,0.0557,0.8219,-0.5634,-0.0616,-0.1,-2.3,2.7,-0.012,-0.02,-0.012,0
2018,4,25,20,42,47.49,0.056,0.8221,-0.5631,-0.0612,-2,-1.5,1.6,-0.009,-0.01,-0.014,0
2018,4,25,20,42,47.512,0.0566,0.8222,-0.563,-0.0612,-4.1,-0.6,0.5,-0.007,-0.005,-0.018,0
2018,4,25,20,42,47.528,0.0574,0.8221,-0.5629,-0.0615,-5.4,0,0.2,-0.002,0,-0.013,0
2018,4,25,20,42,47.565,0.0583,0.8221,-0.5628,-0.062,-5.1,0.3,0,0.001,0,-0.002,0
2018,4,25,20,42,47.584,0.059,0.822,-0.5628,-0.0625,-3.3,0.1,0,0.004,0.006,-0.003,0
2018,4,25,20,42,47.588,0.0594,0.822,-0.5627,-0.0627,-1.2,-0.1,0.5,0.004,0.002,-0.006,0
2018,4,25,20,42,47.628,0.0595,0.8221,-0.5626,-0.0626,0.4,-0.3,0.9,-0.001,-0.002,-0.01,0
2018,4,25,20,42,47.647,0.0595,0.8222,-0.5625,-0.0624,0.4,-0.4,1.1,-0.005,-0.003,-0.008,0
2018,4,25,20,42,47.652,0.0596,0.8223,-0.5623,-0.0623,-0.7,-0.2,0.8,0,-0.004,-0.009,0
2018,4,25,20,42,47.673,0.0598,0.8224,-0.5622,-0.0623,-1.1,-0.1,0.3,-0.001,-0.004,-0.007,0
2018,4,25,20,42,47.694,0.0599,0.8224,-0.5622,-0.0623,-1,0,0,0.002,-0.002,-0.01,0
2018,4,25,20,42,47.713,0.0601,0.8224,-0.5622,-0.0623,-0.7,-0.1,0.5,0.001,-0.001,-0.006,0
2018,4,25,20,42,47.729,0.0602,0.8225,-0.5621,-0.0623,-0.7,-0.1,0.8,-0.002,-0.003,-0.001,0
2018,4,25,20,42,47.748,0.0604,0.8225,-0.562,-0.0623,-0.7,-0.2,0.5,-0.003,-0.004,-0.002,0
2018,4,25,20,42,47.769,0.0606,0.8226,-0.5619,-0.0622,-0.5,-0.2,0.5,0,-0.001,-0.011,0
2018,4,25,20,42,47.791,0.0607,0.8226,-0.5618,-0.0622,-0.9,-0.1,0.8,0,0,-0.012,0
2018,4,25,20,42,47.811,0.0609,0.8227,-0.5617,-0.0622,-0.8,-0.1,0.8,0,-0.001,-0.009,0
2018,4,25,20,42,47.848,0.061,0.8227,-0.5616,-0.0622,-0.1,-0.1,0.7,-0.003,-0.001,-0.006,0
2018,4,25,20,42,47.87,0.0611,0.8228,-0.5614,-0.0621,0.2,-0.2,0.8,0,-0.002,-0.01,0
2018,4,25,20,42,47.874,0.0611,0.8229,-0.5613,-0.062,-0.2,-0.2,1.1,0,-0.003,-0.008,1023
2018,4,25,20,42,47.893,0.0612,0.823,-0.5611,-0.062,-0.9,-0.1,1.3,-0.001,-0.005,-0.01,1023
2018,4,25,20,42,47.913,0.0614,0.8232,-0.5609,-0.062,-1.8,-0.4,1.3,-0.001,-0.004,-0.007,1023
2018,4,25,20,42,47.948,0.0617,0.8233,-0.5607,-0.062,-2,-0.4,1.5,-0.004,-0.005,-0.011,1023
2018,4,25,20,42,47.969,0.0621,0.8234,-0.5605,-0.0621,-2.3,-0.6,1.7,-0.004,-0.001,-0.006,1023
2018,4,25,20,42,47.972,0.0625,0.8236,-0.5602,-0.0623,-2.5,0,1.5,-0.001,-0.001,-0.006,1023
2018,4,25,20,42,47.989,0.0629,0.8236,-0.56,-0.0625,-2.6,0,0.7,0,-0.003,-0.008,1023
2018,4,25,20,42,48.01,0.0633,0.8237,-0.5599,-0.0626,-1.8,0,0.5,-0.003,-0.006,-0.008,1023
2018,4,25,20,42,48.045,0.0635,0.8237,-0.5598,-0.0627,-1.5,0.1,0.5,-0.002,0,-0.012,1023
2018,4,25,20,42,48.066,0.0638,0.8237,-0.5597,-0.0628,-1.6,0,0.6,0,0,-0.011,1023
2018,4,25,20,42,48.07,0.0641,0.8238,-0.5596,-0.063,-2,0,0.7,-0.002,-0.001,-0.007,0
2018,4,25,20,42,48.108,0.0643,0.8238,-0.5595,-0.0631,-1.6,0,0.8,-0.002,-0.002,-0.01,0
2018,4,25,20,42,48.129,0.0646,0.8239,-0.5594,-0.0632,-1.4,-0.1,0.8,-0.002,-0.002,-0.006,0
2018,4,25,20,42,48.134,0.0648,0.8239,-0.5593,-0.0633,-1.4,-0.2,0.8,0,-0.001,-0.006,0
2018,4,25,20,42,48.174,0.0651,0.824,-0.5591,-0.0634,-1.1,-0.2,0.7,0,-0.001,-0.008,0
2018,4,25,20,42,48.194,0.0652,0.8241,-0.559,-0.0634,-0.6,0,0.5,-0.001,-0.005,-0.009,0
2018,4,25,20,42,48.198,0.0652,0.8241,-0.559,-0.0634,0,0,0,0,-0.006,-0.01,0
2018,4,25,20,42,48.216,0.0653,0.8241,-0.559,-0.0633,0,0,0,0,0,-0.007,0
2018,4,25,20,42,48.234,0.0654,0.8241,-0.5589,-0.0633,-0.7,0,0.3,-0.002,-0.003,-0.004,0
2018,4,25,20,42,48.254,0.0655,0.8242,-0.5589,-0.0633,-0.4,0,0.5,0,0,-0.006,0
2018,4,25,20,42,48.273,0.0655,0.8242,-0.5588,-0.0632,0,0,0.5,-0.001,-0.005,-0.005,0
2018,4,25,20,42,48.294,0.0655,0.8243,-0.5587,-0.0631,0.5,-0.2,0.6,-0.006,-0.004,-0.006,0
2018,4,25,20,42,48.314,0.0655,0.8243,-0.5586,-0.063,-0.1,-0.1,0.7,-0.003,-0.002,-0.009,0
2018,4,25,20,42,48.354,0.0655,0.8244,-0.5585,-0.063,-0.5,0,0.3,0,-0.004,-0.004,0
2018,4,25,20,42,48.374,0.0656,0.8244,-0.5585,-0.0629,0,0,0,-0.001,-0.002,-0.008,0
2018,4,25,20,42,48.378,0.0656,0.8244,-0.5585,-0.0629,0,0,0,-0.002,-0.001,-0.01,0
2018,4,25,20,42,48.397,0.0656,0.8244,-0.5585,-0.0628,0.1,0,0.7,0,-0.001,-0.008,0
2018,4,25,20,42,48.435,0.0656,0.8245,-0.5584,-0.0627,0,0.1,0.8,-0.004,-0.005,-0.012,0
2018,4,25,20,42,48.439,0.0656,0.8246,-0.5583,-0.0627,-0.7,0,0.6,0,-0.003,-0.006,0
2018,4,25,20,42,48.454,0.0658,0.8246,-0.5582,-0.0627,-1,0.1,0.3,0.001,-0.003,-0.007,0
2018,4,25,20,42,48.493,0.0659,0.8246,-0.5582,-0.0628,-1.3,0.1,0.1,-0.004,-0.002,-0.007,0
2018,4,25,20,42,48.512,0.0661,0.8246,-0.5581,-0.0629,-0.8,0,0.2,0,-0.001,-0.006,0
2018,4,25,20,42,48.516,0.0662,0.8247,-0.5581,-0.0629,0,0,0,-0.002,-0.001,-0.012,0
2018,4,25,20,42,48.536,0.0662,0.8247,-0.558,-0.0629,-0.6,0,0.5,-0.003,-0.001,-0.007,0
2018,4,25,20,42,48.557,0.0663,0.8247,-0.5579,-0.0629,-1,0.1,0.2,-0.002,-0.005,-0.006,0
2018,4,25,20,42,48.577,0.0665,0.8248,-0.5579,-0.063,-0.9,0,0.3,0,-0.005,-0.004,1023
2018,4,25,20,42,48.597,0.0666,0.8248,-0.5578,-0.0631,-1,0.1,0.2,-0.002,0,-0.008,1023
2018,4,25,20,42,48.617,0.0668,0.8248,-0.5578,-0.0631,-1,0.1,0.3,-0.001,-0.003,-0.007,1023
2018,4,25,20,42,48.638,0.0669,0.8248,-0.5577,-0.0632,-0.4,0,0.5,0,-0.003,-0.008,1023
2018,4,25,20,42,48.674,0.0669,0.8249,-0.5577,-0.0631,0,0,0.5,-0.001,-0.002,-0.007,1023
2018,4,25,20,42,48.694,0.0669,0.8249,-0.5576,-0.0631,0,0,0,-0.003,-0.002,-0.003,1023
2018,4,25,20,42,48.698,0.0669,0.8249,-0.5576,-0.063,0,0,0,0,-0.006,-0.006,1023
2018,4,25,20,42,48.718,0.0669,0.8249,-0.5576,-0.063,0,0,0,-0.002,-0.002,-0.005,1023
2018,4,25,20,42,48.736,0.0669,0.8249,-0.5576,-0.0629,0,0,0,-0.001,0,-0.01,1023
2018,4,25,20,42,48.758,0.0669,0.8249,-0.5576,-0.0629,0,0,0.5,-0.005,-0.005,-0.006,1023
2018,4,25,20,42,48.777,0.067,0.825,-0.5575,-0.0628,-0.1,0,1,-0.001,-0.002,-0.012,0
2018,4,25,20,42,48.798,0.067,0.825,-0.5574,-0.0628,-0.6,0,0.7,-0.001,-0.002,-0.008,0
2018,4,25,20,42,48.819,0.0671,0.8251,-0.5573,-0.0629,-0.9,0.1,0.5,0,-0.003,-0.009,0
2018,4,25,20,42,48.856,0.0672,0.8251,-0.5572,-0.0629,-0.9,0.1,0.3,-0.004,0,-0.006,0
2018,4,25,20,42,48.877,0.0674,0.8252,-0.5572,-0.063,-1.1,0,0.4,-0.002,-0.003,-0.009,0
2018,4,25,20,42,48.881,0.0675,0.8252,-0.5571,-0.0631,-1.2,0,0.3,-0.003,-0.004,-0.007,0
2018,4,25,20,42,48.9,0.0677,0.8252,-0.5571,-0.0632,-1.4,0.3,0.1,0,-0.004,-0.009,0
2018,4,25,20,42,48.939,0.0679,0.8252,-0.557,-0.0633,-1.8,0.3,0.2,-0.002,-0.001,-0.008,0
2018,4,25,20,42,48.944,0.0681,0.8252,-0.557,-0.0635,-1.6,0.1,0.2,0,-0.002,-0.005,0
2018,4,25,20,42,48.957,0.0683,0.8252,-0.5569,-0.0636,-1,-0.1,0.5,-0.004,0,-0.006,0
2018,4,25,20,42,48.976,0.0684,0.8252,-0.5569,-0.0636,-0.6,0,0.6,-0.001,-0.001,-0.004,0
2018,4,25,20,42,48.996,0.0685,0.8253,-0.5568,-0.0637,-0.5,0.2,0.4,-0.002,-0.001,-0.003,0
2018,4,25,20,42,49.033,0.0686,0.8253,-0.5567,-0.0637,-0.4,0,0.5,-0.002,0,-0.01,0
2018,4,25,20,42,49.054,0.0686,0.8254,-0.5566,-0.0637,0,0,0.6,-0.004,-0.002,-0.006,0
2018,4,25,20,42,49.059,0.0686,0.8255,-0.5565,-0.0636,0.4,-0.1,1,0,0.001,-0.01,0
2018,4,25,20,42,49.095,0.0685,0.8256,-0.5564,-0.0635,0.1,-0.1,0.8,-0.004,-0.001,-0.009,0
2018,4,25,20,42,49.117,0.0685,0.8256,-0.5563,-0.0634,0.1,0,0.8,-0.001,-0.004,-0.008,0
2018,4,25,20,42,49.121,0.0685,0.8257,-0.5562,-0.0634,0,0.1,0.6,0,-0.003,-0.007,0
2018,4,25,20,42,49.139,0.0685,0.8258,-0.5561,-0.0634,0,0,0,-0.001,0,-0.005,0
2018,4,25,20,42,49.158,0.0685,0.8258,-0.5561,-0.0634,-0.3,0.1,0.5,0,0,0,0
2018,4,25,20,42,49.178,0.0685,0.8258,-0.556,-0.0634,-0.2,0,0.5,-0.001,-0.002,-0.009,0
2018,4,25,20,42,49.218,0.0686,0.8259,-0.5559,-0.0633,-0.1,0,0.7,-0.005,-0.001,-0.004,0
2018,4,25,20,42,49.239,0.0686,0.8259,-0.5558,-0.0633,-0.1,-0.1,0.5,-0.002,-0.002,-0.007,0
2018,4,25,20,42,49.243,0.0686,0.826,-0.5558,-0.0633,-0.7,0,0.5,-0.004,-0.003,-0.007,0
2018,4,25,20,42,49.263,0.0688,0.826,-0.5557,-0.0634,-1.3,0.2,0.3,-0.004,-0.006,-0.005,0
2018,4,25,20,42,49.283,0.0689,0.826,-0.5557,-0.0635,-1,0.3,0.2,-0.004,0,-0.005,0
2018,4,25,20,42,49.303,0.0691,0.826,-0.5556,-0.0635,0,0,0,-0.004,0.002,-0.005,1023
2018,4,25,20,42,49.323,0.0691,0.8261,-0.5556,-0.0635,0.1,0,0.5,-0.001,-0.001,-0.01,1023
2018,4,25,20,42,49.361,0.069,0.8261,-0.5555,-0.0634,0.1,0,0.7,-0.004,-0.004,-0.01,1023
2018,4,25,20,42,49.381,0.069,0.8262,-0.5554,-0.0634,-0.5,0.1,0.5,0,-0.001,-0.01,1023
2018,4,25,20,42,49.385,0.069,0.8262,-0.5553,-0.0634,-0.9,0,0.3,-0.001,-0.003,-0.008,1023
2018,4,25,20,42,49.399,0.0692,0.8263,-0.5553,-0.0635,-0.8,0.1,0.3,-0.001,-0.002,-0.007,1023
2018,4,25,20,42,49.434,0.0693,0.8263,-0.5552,-0.0635,-0.5,0,0.5,0,-0.002,-0.009,1023
2018,4,25,20,42,49.455,0.0693,0.8263,-0.5552,-0.0635,0,0,0,-0.001,0,-0.007,1023
2018,4,25,20,42,49.462,0.0693,0.8264,-0.5551,-0.0635,0.2,-0.1,0.5,-0.005,-0.002,-0.015,1023
2018,4,25,20,42,49.499,0.0692,0.8264,-0.555,-0.0634,0.1,-0.1,1,-0.003,-0.004,-0.007,1023
2018,4,25,20,42,49.519,0.0692,0.8265,-0.5549,-0.0633,-0.2,-0.1,0.8,-0.002,-0.004,-0.003,0
2018,4,25,20,42,49.524,0.0693,0.8266,-0.5548,-0.0633,-0.6,0,0.5,-0.003,-0.003,-0.01,0
2018,4,25,20,42,49.562,0.0694,0.8266,-0.5547,-0.0634,-0.8,0,0.3,-0.002,-0.001,-0.003,0
2018,4,25,20,42,49.583,0.0695,0.8267,-0.5546,-0.0634,-0.3,0.1,0.5,-0.002,0,-0.01,0
2018,4,25,20,42,49.587,0.0695,0.8267,-0.5546,-0.0634,0,0,0,-0.002,0,-0.007,0
2018,4,25,20,42,49.604,0.0695,0.8268,-0.5545,-0.0633,0.1,0,0.6,-0.003,-0.001,-0.002,0
2018,4,25,20,42,49.646,0.0695,0.8268,-0.5544,-0.0633,-0.6,0.1,0.5,-0.001,-0.003,-0.008,0
2018,4,25,20,42,49.65,0.0696,0.8269,-0.5543,-0.0633,-1.2,0.1,0.3,-0.002,-0.003,-0.004,0
2018,4,25,20,42,49.666,0.0697,0.8269,-0.5543,-0.0634,-1.3,0.1,0.2,-0.004,0,-0.004,0
2018,4,25,20,42,49.702,0.0698,0.8269,-0.5543,-0.0635,-0.6,0.2,0.2,-0.001,0.002,-0.006,0
2018,4,25,20,42,49.72,0.0698,0.8269,-0.5542,-0.0635,0,0,0.5,-0.002,0,-0.007,0
2018,4,25,20,42,49.725,0.0698,0.827,-0.5541,-0.0635,0.3,0,0.7,-0.003,-0.004,-0.01,0
2018,4,25,20,42,49.762,0.0698,0.8271,-0.554,-0.0634,0.1,0,0.8,-0.002,-0.004,-0.006,0
2018,4,25,20,42,49.782,0.0697,0.8271,-0.5539,-0.0633,-0.4,0,0.7,0,-0.002,-0.005,0
2018,4,25,20,42,49.786,0.0698,0.8272,-0.5539,-0.0634,-0.6,0.2,0.5,-0.004,0,-0.008,0
2018,4,25,20,42,49.806,0.0699,0.8272,-0.5538,-0.0634,-0.5,0,0.6,-0.004,-0.001,-0.003,0
2018,4,25,20,42,49.826,0.0699,0.8273,-0.5537,-0.0634,-0.1,0,0.5,-0.001,-0.003,0,0
2018,4,25,20,42,49.841,0.0699,0.8273,-0.5536,-0.0634,0.1,0,0.5,-0.003,-0.004,-0.006,0
2018,4,25,20,42,49.861,0.0698,0.8274,-0.5535,-0.0633,-0.4,0,0.6,-0.001,-0.003,-0.008,0
2018,4,25,20,42,49.902,0.0699,0.8275,-0.5534,-0.0633,-0.5,0.1,0.5,0.001,-0.001,-0.005,0
2018,4,25,20,42,49.921,0.0699,0.8275,-0.5533,-0.0634,-0.7,0,0.4,-0.002,-0.003,-0.009,0
2018,4,25,20,42,49.925,0.07,0.8275,-0.5533,-0.0634,-0.7,0,0.4,0,-0.001,-0.007,0
2018,4,25,20,42,49.944,0.0701,0.8276,-0.5532,-0.0634,-0.6,0,0.5,-0.005,-0.001,-0.01,0
2018,4,25,20,42,49.981,0.0702,0.8276,-0.5531,-0.0635,-0.4,0,0.5,-0.004,0,-0.012,0
2018,4,25,20,42,50.002,0.0702,0.8277,-0.553,-0.0635,-0.3,0,0.5,-0.002,-0.003,-0.007,0
2018,4,25,20,42,50.004,0.0702,0.8277,-0.553,-0.0634,-0.1,0,0.5,-0.003,-0.002,-0.008,0
2018,4,25,20,42,50.044,0.0702,0.8278,-0.5529,-0.0634,0.1,0,0.5,-0.002,-0.003,-0.008,0
2018,4,25,20,42,50.064,0.0702,0.8278,-0.5529,-0.0633,0.1,0,0.5,-0.002,-0.001,-0.008,1023
2018,4,25,20,42,50.069,0.0702,0.8278,-0.5528,-0.0633,0,0,0.6,-0.003,-0.004,-0.011,1023
2018,4,25,20,42,50.083,0.0702,0.8279,-0.5527,-0.0633,-0.4,0,0.5,-0.003,-0.003,-0.005,1023
2018,4,25,20,42,50.122,0.0702,0.8279,-0.5526,-0.0633,0,0,0,-0.003,-0.004,-0.006,1023
2018,4,25,20,42,50.142,0.0702,0.828,-0.5526,-0.0632,-0.2,0.1,0.5,0,-0.003,-0.003,1023
2018,4,25,20,42,50.147,0.0702,0.828,-0.5526,-0.0632,0.1,-0.1,0.5,-0.003,-0.001,-0.009,1023
2018,4,25,20,42,50.168,0.0702,0.8281,-0.5525,-0.0631,0.1,-0.1,0.6,-0.002,-0.005,-0.009,1023
2018,4,25,20,42,50.187,0.0702,0.8281,-0.5524,-0.0631,0.2,0,0.7,-0.003,-0.001,-0.005,1023
2018,4,25,20,42,50.207,0.0701,0.8282,-0.5523,-0.0631,-0.2,0,0.7,0,-0.004,-0.006,1023
2018,4,25,20,42,50.227,0.0702,0.8283,-0.5522,-0.0631,-0.8,0,0.7,-0.002,-0.001,-0.005,1023
2018,4,25,20,42,50.264,0.0703,0.8283,-0.5521,-0.0631,-1.1,0.1,0.5,-0.001,-0.002,-0.007,0
2018,4,25,20,42,50.281,0.0704,0.8283,-0.552,-0.0632,-0.6,0,0.4,-0.004,0,-0.007,0
2018,4,25,20,42,50.286,0.0704,0.8284,-0.552,-0.0632,0,0,0,-0.001,-0.002,-0.007,0
2018,4,25,20,42,50.327,0.0704,0.8284,-0.5519,-0.0632,-0.2,0.1,0.5,-0.002,-0.003,-0.009,0
2018,4,25,20,42,50.348,0.0704,0.8285,-0.5519,-0.0632,-0.1,0,0.5,-0.003,-0.004,-0.007,0
2018,4,25,20,42,50.352,0.0704,0.8285,-0.5518,-0.0632,-0.1,0,0.5,0,-0.001,-0.003,0
2018,4,25,20,42,50.369,0.0705,0.8286,-0.5517,-0.0632,-0.4,0.1,0.5,-0.004,-0.003,-0.009,0
2018,4,25,20,42,50.387,0.0705,0.8286,-0.5516,-0.0632,-0.6,-0.1,0.5,-0.003,0,-0.007,0
2018,4,25,20,42,50.407,0.0705,0.8287,-0.5515,-0.0632,-0.1,0,0.7,-0.002,-0.001,-0.009,0
2018,4,25,20,42,50.447,0.0705,0.8287,-0.5514,-0.0632,0.4,0,0.6,-0.003,0.001,-0.006,0
2018,4,25,20,42,50.465,0.0704,0.8288,-0.5513,-0.0631,0.4,0,1,-0.003,-0.003,-0.004,0
2018,4,25,20,42,50.469,0.0703,0.8289,-0.5513,-0.0629,0.3,-0.1,0.5,-0.005,-0.002,-0.011,0
2018,4,25,20,42,50.509,0.0703,0.829,-0.5512,-0.0629,0,0.1,0.5,-0.004,-0.001,-0.009,0
2018,4,25,20,42,50.529,0.0703,0.829,-0.5511,-0.0629,-0.4,0.1,0.6,0,0,-0.004,0
2018,4,25,20,42,50.533,0.0703,0.8291,-0.551,-0.0629,-0.6,0.1,0.7,-0.001,0,-0.01,0
2018,4,25,20,42,50.547,0.0704,0.8291,-0.5509,-0.0629,-0.4,0,0.6,-0.002,-0.005,-0.005,0
2018,4,25,20,42,50.584,0.0704,0.8292,-0.5508,-0.0629,-0.2,0,0.6,-0.001,-0.002,-0.006,0
2018,4,25,20,42,50.606,0.0704,0.8292,-0.5507,-0.0629,-0.4,0.1,0.5,-0.003,-0.001,-0.012,0
2018,4,25,20,42,50.611,0.0705,0.8293,-0.5507,-0.0629,-0.5,0.2,0.7,-0.003,-0.001,-0.009,0
2018,4,25,20,42,50.628,0.0705,0.8293,-0.5506,-0.0629,-0.4,0.1,0.5,-0.004,-0.001,-0.01,0
2018,4,25,20,42,50.669,0.0705,0.8294,-0.5505,-0.0629,-0.6,0.1,0.5,-0.001,-0.003,-0.006,0
2018,4,25,20,42,50.673,0.0706,0.8294,-0.5504,-0.063,-0.5,0.1,0.5,-0.002,-0.003,-0.008,0
2018,4,25,20,42,50.691,0.0706,0.8295,-0.5504,-0.063,0,0,0,-0.001,-0.004,-0.008,0
2018,4,25,20,42,50.711,0.0706,0.8295,-0.5503,-0.063,-0.2,0,0.5,-0.001,0,-0.003,0
2018,4,25,20,42,50.746,0.0706,0.8295,-0.5503,-0.063,-0.1,0,0.5,-0.003,-0.003,-0.003,0
2018,4,25,20,42,50.767,0.0706,0.8296,-0.5502,-0.0629,0,0,0.5,-0.001,-0.004,-0.009,0
2018,4,25,20,42,50.771,0.0706,0.8296,-0.5501,-0.0629,0,0,0.7,-0.001,0,-0.004,0
2018,4,25,20,42,50.789,0.0706,0.8297,-0.55,-0.0629,0,0,0,-0.001,-0.003,-0.009,1023
2018,4,25,20,42,50.828,0.0706,0.8297,-0.55,-0.0628,-0.5,0,0.4,-0.001,-0.003,-0.012,1023
2018,4,25,20,42,50.847,0.0707,0.8297,-0.55,-0.0628,0,0,0,-0.001,0,-0.006,1023
2018,4,25,20,42,50.851,0.0707,0.8298,-0.5499,-0.0628,-0.2,0.1,0.5,-0.003,-0.001,-0.004,1023
2018,4,25,20,42,50.888,0.0707,0.8298,-0.5498,-0.0628,-0.2,0,0.5,-0.002,0,-0.007,1023
2018,4,25,20,42,50.91,0.0707,0.8298,-0.5498,-0.0628,0,0,0,0,-0.001,-0.009,1023
2018,4,25,20,42,50.914,0.0707,0.8299,-0.5498,-0.0628,-0.2,0,0.6,-0.001,-0.003,-0.007,1023
2018,4,25,20,42,50.932,0.0707,0.8299,-0.5497,-0.0628,-0.1,0,0.8,-0.005,0,-0.004,1023
2018,4,25,20,42,50.953,0.0707,0.83,-0.5496,-0.0627,-0.1,0.1,0.7,-0.001,-0.002,-0.009,1023
2018,4,25,20,42,50.972,0.0707,0.83,-0.5495,-0.0628,0,0,0,-0.001,-0.002,-0.011,1023
2018,4,25,20,42,50.995,0.0707,0.8301,-0.5494,-0.0628,-0.7,0,0.3,0,-0.002,-0.006,0
2018,4,25,20,42,51.013,0.0709,0.8301,-0.5493,-0.0629,-0.8,0,0.5,-0.002,0,-0.004,0
2018,4,25,20,42,51.032,0.0709,0.8301,-0.5493,-0.0629,0,0,0,-0.003,0,-0.005,0
2018,4,25,20,42,51.05,0.0709,0.8302,-0.5492,-0.0628,0.4,0.2,0.7,-0.004,0,-0.005,0
2018,4,25,20,42,51.071,0.0708,0.8303,-0.5491,-0.0627,0,0,0.7,-0.001,-0.001,-0.006,0
2018,4,25,20,42,51.109,0.0708,0.8303,-0.5491,-0.0627,-0.4,-0.1,0.6,-0.004,-0.004,-0.004,0
2018,4,25,20,42,51.13,0.0708,0.8304,-0.549,-0.0628,-0.9,0.2,0.3,0,-0.002,-0.007,0
2018,4,25,20,42,51.135,0.071,0.8304,-0.5489,-0.0628,-0.7,0.1,0.3,-0.003,-0.002,-0.004,0
2018,4,25,20,42,51.154,0.071,0.8304,-0.5488,-0.0629,-0.5,0,0.6,-0.004,0,-0.01,0
2018,4,25,20,42,51.174,0.0711,0.8305,-0.5488,-0.0629,-0.2,0,0.7,-0.003,-0.001,-0.011,0
2018,4,25,20,42,51.212,0.0711,0.8305,-0.5487,-0.0628,-0.2,0.1,0.6,-0.004,-0.005,-0.01,0
2018,4,25,20,42,51.234,0.0711,0.8306,-0.5486,-0.0628,-0.2,0,0.5,-0.002,0,-0.01,0
2018,4,25,20,42,51.238,0.0711,0.8307,-0.5485,-0.0628,-0.3,0,0.7,-0.003,-0.004,-0.006,0
2018,4,25,20,42,51.253,0.0711,0.8307,-0.5484,-0.0629,-0.2,0,0.8,-0.004,-0.001,-0.01,0
2018,4,25,20,42,51.29,0.0711,0.8308,-0.5483,-0.0628,-0.1,0,0.6,-0.004,-0.003,-0.009,0
2018,4,25,20,42,51.311,0.0711,0.8309,-0.5482,-0.0628,0,0,0.5,-0.001,-0.001,-0.006,0
2018,4,25,20,42,51.315,0.0711,0.8309,-0.5481,-0.0627,0,0,0.5,-0.002,0,-0.007,0
2018,4,25,20,42,51.334,0.0711,0.831,-0.548,-0.0627,-0.2,-0.1,0.6,-0.003,-0.002,-0.007,0
2018,4,25,20,42,51.354,0.0711,0.831,-0.548,-0.0627,-0.4,0.1,0.5,-0.004,-0.001,-0.01,0
2018,4,25,20,42,51.373,0.0711,0.831,-0.5479,-0.0627,0,0,0,-0.004,0,-0.007,0
2018,4,25,20,42,51.393,0.0711,0.8311,-0.5479,-0.0627,-0.3,0,0.5,-0.002,-0.001,-0.007,0
2018,4,25,20,42,51.433,0.0712,0.8311,-0.5478,-0.0627,-0.2,0,0.5,0,-0.002,-0.01,0
2018,4,25,20,42,51.454,0.0712,0.8312,-0.5477,-0.0627,-0.1,0,0.7,-0.004,-0.005,-0.008,0
2018,4,25,20,42,51.457,0.0712,0.8312,-0.5477,-0.0627,-0.4,0,0.6,-0.001,-0.002,-0.011,0
2018,4,25,20,42,51.471,0.0712,0.8312,-0.5476,-0.0627,0,0,0,-0.005,0,-0.006,0
2018,4,25,20,42,51.51,0.0712,0.8313,-0.5476,-0.0627,0,0,0,-0.002,0,-0.005,0
2018,4,25,20,42,51.531,0.0712,0.8313,-0.5475,-0.0627,-0.2,0,0.6,-0.002,-0.001,-0.009,1023
2018,4,25,20,42,51.535,0.0712,0.8314,-0.5474,-0.0627,-0.1,0.1,0.7,-0.002,-0.002,-0.006,1023
2018,4,25,20,42,51.556,0.0712,0.8314,-0.5473,-0.0626,-0.1,0,0.6,-0.001,0,-0.006,1023
2018,4,25,20,42,51.575,0.0712,0.8315,-0.5473,-0.0626,0,0,0.5,-0.001,0,-0.005,1023
2018,4,25,20,42,51.615,0.0712,0.8315,-0.5472,-0.0626,-0.4,0,0.5,-0.001,-0.003,-0.004,1023
2018,4,25,20,42,51.619,0.0713,0.8316,-0.5471,-0.0626,-0.5,0.1,0.5,-0.002,-0.001,-0.011,1023
2018,4,25,20,42,51.635,0.0713,0.8316,-0.5471,-0.0626,0,0,0,-0.001,-0.002,-0.008,1023
2018,4,25,20,42,51.676,0.0713,0.8316,-0.5471,-0.0626,0,0.1,0.6,-0.003,0,-0.01,1023
2018,4,25,20,42,51.696,0.0712,0.8317,-0.547,-0.0626,0.2,0.1,0.7,-0.003,0,-0.004,1023
2018,4,25,20,42,51.7,0.0712,0.8318,-0.5469,-0.0625,0,0,0.8,-0.003,-0.005,-0.006,1023
2018,4,25,20,42,51.718,0.0712,0.8318,-0.5468,-0.0625,-0.4,0,0.5,0,0,-0.009,0
2018,4,25,20,42,51.738,0.0713,0.8319,-0.5467,-0.0625,-0.7,0.1,0.5,-0.003,0,-0.008,0
2018,4,25,20,42,51.755,0.0713,0.8319,-0.5466,-0.0626,-0.6,0,0.4,-0.002,0,-0.008,0
2018,4,25,20,42,51.775,0.0714,0.832,-0.5465,-0.0626,-0.3,0.1,0.8,-0.003,-0.004,-0.01,0
2018,4,25,20,42,51.794,0.0714,0.832,-0.5464,-0.0626,-0.3,0,0.7,-0.003,0,-0.01,0
2018,4,25,20,42,51.822,0.0714,0.8321,-0.5463,-0.0626,-0.4,-0.1,0.6,-0.003,-0.002,-0.014,0
2018,4,25,20,42,51.843,0.0715,0.8322,-0.5462,-0.0626,-0.9,0,0.5,-0.001,-0.001,-0.005,0
2018,4,25,20,42,51.857,0.0716,0.8322,-0.5461,-0.0627,-0.8,0,0.5,-0.002,-0.004,-0.005,0
2018,4,25,20,42,51.893,0.0717,0.8322,-0.546,-0.0628,-1.3,0.1,0.5,-0.002,-0.001,-0.007,0
2018,4,25,20,42,51.912,0.0719,0.8323,-0.5459,-0.0629,-1.2,0.1,0.4,-0.005,-0.005,-0.008,0
2018,4,25,20,42,51.916,0.072,0.8323,-0.5459,-0.063,-0.7,0,0.4,0,-0.001,-0.006,0
2018,4,25,20,42,51.953,0.0721,0.8324,-0.5458,-0.0631,-0.4,0,0.7,-0.001,-0.001,-0.003,0
2018,4,25,20,42,51.973,0.0721,0.8324,-0.5457,-0.0631,-0.2,0,0.8,-0.003,-0.003,-0.004,0
2018,4,25,20,42,51.975,0.0721,0.8325,-0.5455,-0.0631,-0.1,-0.2,0.8,-0.004,-0.001,-0.009,0
2018,4,25,20,42,52.011,0.0722,0.8326,-0.5454,-0.063,-0.1,-0.1,1,-0.003,-0.001,-0.009,0
2018,4,25,20,42,52.032,0.0722,0.8327,-0.5452,-0.063,0,0,1.3,0,0.002,-0.007,0
2018,4,25,20,42,52.036,0.0722,0.8328,-0.5451,-0.0629,0.6,-0.2,1,-0.004,0,-0.008,0
2018,4,25,20,42,52.074,0.072,0.8329,-0.5449,-0.0628,1.1,-0.1,1.1,-0.002,-0.001,-0.006,0
2018,4,25,20,42,52.094,0.0718,0.8331,-0.5448,-0.0626,0.9,-0.1,1.1,-0.002,-0.004,-0.004,0
2018,4,25,20,42,52.097,0.0717,0.8332,-0.5446,-0.0625,-0.2,0,0.8,-0.004,-0.004,-0.006,0
2018,4,25,20,42,52.136,0.0718,0.8332,-0.5445,-0.0625,-1.5,0.3,0.3,0,-0.006,-0.007,0
2018,4,25,20,42,52.157,0.0719,0.8332,-0.5445,-0.0626,-1.5,0.3,0.2,-0.002,-0.002,-0.009,0
2018,4,25,20,42,52.16,0.0721,0.8333,-0.5444,-0.0628,-0.9,0.1,0.3,-0.002,0.002,-0.005,0
2018,4,25,20,42,52.176,0.0722,0.8333,-0.5443,-0.0628,-0.6,0,0.6,-0.006,0.001,-0.006,0
2018,4,25,20,42,52.196,0.0722,0.8333,-0.5443,-0.0628,-0.2,-0.1,0.5,-0.003,-0.001,-0.012,0
2018,4,25,20,42,52.217,0.0723,0.8334,-0.5442,-0.0628,-0.1,0.1,0.5,-0.003,-0.002,-0.003,0
2018,4,25,20,42,52.253,0.0723,0.8334,-0.5441,-0.0628,0,0,0,-0.004,-0.005,-0.007,0
2018,4,25,20,42,52.274,0.0723,0.8335,-0.544,-0.0628,-0.5,0,0.3,-0.001,-0.003,-0.012,0
2018,4,25,20,42,52.278,0.0724,0.8335,-0.544,-0.0628,-0.6,0,0.3,0,0,-0.005,1023
2018,4,25,20,42,52.317,0.0724,0.8335,-0.5439,-0.0628,-0.6,0,0.5,-0.002,-0.002,-0.008,1023
2018,4,25,20,42,52.339,0.0725,0.8336,-0.5438,-0.0628,-0.2,0.1,0.6,-0.002,0,-0.011,1023
2018,4,25,20,42,52.353,0.0725,0.8337,-0.5438,-0.0628,-0.4,0,0.5,-0.004,-0.003,-0.008,1023
2018,4,25,20,42,52.362,0.0725,0.8337,-0.5437,-0.0628,-0.5,0,0.3,-0.004,-0.003,-0.011,1023
2018,4,25,20,42,52.399,0.0726,0.8337,-0.5436,-0.0629,-0.6,0,0.3,-0.006,-0.003,-0.008,1023
2018,4,25,20,42,52.418,0.0727,0.8337,-0.5436,-0.0628,-0.3,0,0.5,-0.002,0,-0.004,1023
2018,4,25,20,42,52.422,0.0727,0.8338,-0.5435,-0.0628,0,-0.2,0.8,-0.003,0,-0.007,1023
2018,4,25,20,42,52.461,0.0727,0.8339,-0.5434,-0.0628,0,-0.2,0.8,-0.003,-0.004,-0.006,1023
2018,4,25,20,42,52.465,0.0726,0.834,-0.5433,-0.0628,-0.5,0.1,0.8,0,-0.003,-0.011,1023
2018,4,25,20,42,52.479,0.0727,0.834,-0.5432,-0.0628,-0.9,0.1,0.5,0,-0.002,-0.01,0
2018,4,25,20,42,52.517,0.0728,0.8341,-0.5431,-0.0628,-0.6,0.1,0.5,-0.001,-0.004,-0.01,0
2018,4,25,20,42,52.538,0.0728,0.8341,-0.543,-0.0629,-0.6,0.1,0.3,0,-0.005,-0.007,0
2018,4,25,20,42,52.543,0.0729,0.8341,-0.543,-0.0629,-0.6,0.1,0.3,-0.004,-0.002,-0.006,0
2018,4,25,20,42,52.582,0.0729,0.8342,-0.5429,-0.063,-0.9,0.1,0.3,-0.001,-0.002,-0.007,0
2018,4,25,20,42,52.6,0.073,0.8342,-0.5428,-0.063,-0.6,0,0.4,-0.001,-0.003,-0.009,0
2018,4,25,20,42,52.605,0.0731,0.8342,-0.5428,-0.063,-0.2,0,0.6,-0.004,0,-0.003,0
2018,4,25,20,42,52.623,0.0731,0.8343,-0.5427,-0.0631,-0.4,0,0.7,-0.003,-0.003,-0.007,0
2018,4,25,20,42,52.644,0.0731,0.8344,-0.5426,-0.0631,0,0,0.7,-0.002,-0.001,-0.012,0
2018,4,25,20,42,52.683,0.0731,0.8344,-0.5425,-0.063,0,0,0.5,-0.005,-0.001,-0.007,0
2018,4,25,20,42,52.688,0.0731,0.8345,-0.5424,-0.063,0,0,0,-0.006,-0.001,-0.006,0
2018,4,25,20,42,52.703,0.073,0.8345,-0.5423,-0.0629,0.1,0,0.7,-0.005,-0.004,-0.006,0
2018,4,25,20,42,52.74,0.073,0.8346,-0.5422,-0.0629,0,-0.1,0.7,-0.002,0,-0.007,0
2018,4,25,20,42,52.761,0.073,0.8347,-0.5421,-0.0628,-0.2,0,0.5,-0.003,0,-0.007,0
2018,4,25,20,42,52.765,0.073,0.8347,-0.542,-0.0628,0,0,0.7,-0.005,-0.004,-0.003,0
2018,4,25,20,42,52.784,0.073,0.8348,-0.5419,-0.0628,0.2,0.1,0.6,-0.001,-0.001,-0.006,0
2018,4,25,20,42,52.822,0.0729,0.8349,-0.5419,-0.0627,0.3,-0.1,0.6,-0.003,-0.004,-0.015,0
2018,4,25,20,42,52.843,0.0728,0.8349,-0.5418,-0.0626,0.1,0,0.6,-0.002,-0.002,-0.007,0
2018,4,25,20,42,52.847,0.0728,0.835,-0.5417,-0.0626,-0.1,0,0.7,-0.004,-0.002,-0.004,0
2018,4,25,20,42,52.866,0.0728,0.835,-0.5416,-0.0626,-0.4,0,0.6,-0.003,-0.001,-0.006,0
2018,4,25,20,42,52.881,0.0728,0.8351,-0.5415,-0.0626,-0.2,0.1,0.6,-0.001,-0.003,-0.01,0
2018,4,25,20,42,52.903,0.0728,0.8351,-0.5414,-0.0626,0,0.1,0.6,-0.004,0,-0.004,0
2018,4,25,20,42,52.922,0.0729,0.8352,-0.5413,-0.0625,0,0,0.7,-0.003,-0.003,-0.008,0
2018,4,25,20,42,52.962,0.0728,0.8353,-0.5412,-0.0625,0,-0.1,0.7,-0.001,0,-0.008,0
2018,4,25,20,42,52.966,0.0729,0.8353,-0.5412,-0.0625,0,0,0,0,-0.003,-0.009,0
2018,4,25,20,42,52.982,0.0729,0.8353,-0.5412,-0.0624,0,0,0,-0.003,-0.002,-0.009,0
2018,4,25,20,42,53.021,0.0729,0.8354,-0.5411,-0.0625,-0.4,0,0.6,-0.003,0,-0.009,0
2018,4,25,20,42,53.041,0.073,0.8354,-0.541,-0.0624,0,0,0.5,-0.002,-0.002,-0.006,0
2018,4,25,20,42,53.043,0.0729,0.8355,-0.5409,-0.0624,-0.1,0,0.6,-0.002,-0.003,-0.015,0
2018,4,25,20,42,53.08,0.0729,0.8356,-0.5408,-0.0623,0,0,0.7,-0.002,-0.004,0,1023
2018,4,25,20,42,53.103,0.0729,0.8356,-0.5408,-0.0623,0,0,0,-0.003,-0.004,-0.008,1023
2018,4,25,20,42,53.108,0.0729,0.8356,-0.5407,-0.0623,0,0,0.5,-0.003,0,-0.007,1023
2018,4,25,20,42,53.123,0.0729,0.8356,-0.5407,-0.0623,0.1,0.1,0.7,0,0,-0.011,1023
2018,4,25,20,42,53.164,0.0728,0.8357,-0.5406,-0.0622,0.3,0.1,0.8,-0.002,-0.001,-0.007,1023
2018,4,25,20,42,53.168,0.0727,0.8358,-0.5405,-0.0622,0.2,0,0.8,-0.001,-0.006,-0.011,1023
2018,4,25,20,42,53.185,0.0727,0.8359,-0.5404,-0.0621,-0.5,-0.1,0.8,-0.002,-0.003,-0.007,1023
2018,4,25,20,42,53.206,0.0728,0.836,-0.5402,-0.0622,-1,0.1,0.5,-0.001,-0.002,-0.008,1023
2018,4,25,20,42,53.226,0.0729,0.836,-0.5402,-0.0623,-0.9,0.1,0.5,-0.002,0.001,-0.009,1023
2018,4,25,20,42,53.264,0.073,0.836,-0.5401,-0.0623,-0.2,0,0.6,-0.006,-0.002,-0.006,1023
2018,4,25,20,42,53.286,0.0729,0.8361,-0.54,-0.0622,0.3,0,0.7,-0.001,0,-0.007,0
2018,4,25,20,42,53.29,0.0728,0.8361,-0.5399,-0.0622,0.1,0,0.7,-0.002,-0.005,-0.01,0
2018,4,25,20,42,53.308,0.0728,0.8362,-0.5399,-0.0621,-0.1,0.1,0.5,0,-0.004,-0.006,0
2018,4,25,20,42,53.328,0.0728,0.8362,-0.5398,-0.0621,-0.7,0.1,0.3,-0.003,-0.003,-0.005,0
2018,4,25,20,42,53.368,0.0729,0.8363,-0.5397,-0.0622,-0.7,0.1,0.4,-0.003,-0.001,-0.006,0
2018,4,25,20,42,53.387,0.073,0.8363,-0.5396,-0.0622,-0.2,0,0.7,-0.002,-0.003,-0.006,0
2018,4,25,20,42,53.391,0.0729,0.8364,-0.5395,-0.0622,0.1,0,0.7,-0.001,-0.001,-0.006,0
2018,4,25,20,42,53.407,0.0729,0.8365,-0.5394,-0.0621,0.4,0,0.7,-0.005,-0.004,-0.01,0
2018,4,25,20,42,53.445,0.0728,0.8365,-0.5394,-0.0621,0.2,0.1,0.6,-0.004,-0.003,-0.011,0
2018,4,25,20,42,53.465,0.0727,0.8366,-0.5393,-0.062,-0.1,0,0.6,-0.001,-0.006,-0.011,0
2018,4,25,20,42,53.469,0.0728,0.8367,-0.5392,-0.062,-0.7,0,0.4,0,-0.002,-0.009,0
2018,4,25,20,42,53.488,0.0729,0.8367,-0.5391,-0.0621,-0.8,0.1,0.6,0,0,-0.008,0
2018,4,25,20,42,53.507,0.0729,0.8368,-0.539,-0.0621,0,0,0,-0.003,-0.001,-0.002,0
2018,4,25,20,42,53.547,0.0729,0.8368,-0.5389,-0.0621,0,0,0.5,-0.003,0,-0.009,0
2018,4,25,20,42,53.568,0.0729,0.8369,-0.5388,-0.062,0,0,0,-0.004,-0.004,-0.007,0
2018,4,25,20,42,53.572,0.0728,0.8369,-0.5388,-0.062,0,0,0,-0.001,-0.004,-0.004,0
2018,4,25,20,42,53.586,0.0728,0.8369,-0.5388,-0.062,-0.6,0.1,0.3,-0.001,-0.002,-0.008,0
2018,4,25,20,42,53.606,0.0729,0.8369,-0.5387,-0.062,-0.6,0.1,0.2,-0.004,0.002,-0.009,0
2018,4,25,20,42,53.625,0.0729,0.837,-0.5387,-0.0621,-0.5,0.1,0.3,-0.003,-0.001,-0.008,0
2018,4,25,20,42,53.666,0.073,0.837,-0.5386,-0.0621,-0.2,0,0.5,-0.001,0,-0.009,0
2018,4,25,20,42,53.687,0.0729,0.837,-0.5385,-0.062,-0.1,0,0.5,-0.003,-0.002,-0.009,0
2018,4,25,20,42,53.692,0.073,0.8371,-0.5385,-0.062,-0.3,0,0.5,-0.001,-0.001,-0.006,0
2018,4,25,20,42,53.71,0.073,0.8372,-0.5384,-0.0621,-0.4,0.1,0.5,-0.003,-0.003,-0.009,0
2018,4,25,20,42,53.73,0.073,0.8372,-0.5383,-0.0621,-0.2,0,0.5,-0.003,-0.001,-0.006,0
2018,4,25,20,42,53.75,0.0729,0.8372,-0.5383,-0.062,0.1,0,0.5,-0.002,-0.001,-0.01,0
2018,4,25,20,42,53.769,0.0729,0.8373,-0.5382,-0.062,0,0,0.7,-0.003,-0.002,-0.007,0
2018,4,25,20,42,53.791,0.0729,0.8374,-0.5381,-0.062,0,0.1,0.6,-0.002,-0.004,-0.003,0
2018,4,25,20,42,53.809,0.0729,0.8374,-0.538,-0.0619,-0.2,0,0.5,-0.003,-0.002,-0.006,0
2018,4,25,20,42,53.829,0.0729,0.8375,-0.5379,-0.0619,-0.4,0.1,0.5,-0.003,-0.001,-0.008,1023
2018,4,25,20,42,53.85,0.0729,0.8375,-0.5379,-0.0619,-0.2,0,0.5,-0.003,-0.001,-0.007,1023
2018,4,25,20,42,53.868,0.0729,0.8375,-0.5378,-0.0619,0.1,0.1,0.5,-0.001,-0.001,-0.007,1023
2018,4,25,20,42,53.889,0.0728,0.8376,-0.5377,-0.0619,0.4,0,0.5,-0.001,-0.001,-0.003,1023
2018,4,25,20,42,53.927,0.0728,0.8376,-0.5377,-0.0618,0.2,0.1,0.7,-0.003,-0.003,-0.009,1023
2018,4,25,20,42,53.947,0.0727,0.8377,-0.5376,-0.0618,0.1,0,0.7,-0.003,-0.005,-0.007,1023
2018,4,25,20,42,53.952,0.0727,0.8378,-0.5375,-0.0617,-0.3,0,0.7,-0.003,-0.004,-0.007,1023
2018,4,25,20,42,53.971,0.0727,0.8378,-0.5374,-0.0618,-0.5,0,0.6,-0.003,-0.001,-0.008,1023
2018,4,25,20,42,53.992,0.0728,0.8379,-0.5373,-0.0618,0,0,0,-0.004,0,-0.008,1023
2018,4,25,20,42,54.012,0.0728,0.8379,-0.5373,-0.0618,0,0.1,0.6,-0.003,0,-0.01,1023
2018,4,25,20,42,54.032,0.0727,0.838,-0.5372,-0.0618,0.1,0,0.5,-0.002,-0.001,-0.006,0
2018,4,25,20,42,54.069,0.0727,0.838,-0.5371,-0.0617,0,0.1,0.7,0,-0.002,-0.005,0
2018,4,25,20,42,54.089,0.0727,0.8381,-0.537,-0.0617,-0.5,0,0.5,-0.003,-0.003,-0.005,0
2018,4,25,20,42,54.091,0.0728,0.8381,-0.5369,-0.0618,-0.9,0.1,0.3,0.001,0,-0.008,0
2018,4,25,20,42,54.13,0.0728,0.8382,-0.5368,-0.0619,-0.7,0,0.5,-0.004,-0.001,-0.003,0
2018,4,25,20,42,54.149,0.0729,0.8382,-0.5368,-0.0619,-0.2,0,0.5,-0.005,0,-0.005,0
2018,4,25,20,42,54.151,0.0729,0.8383,-0.5367,-0.0618,0.3,0,0.6,-0.002,-0.003,-0.008,0
2018,4,25,20,42,54.171,0.0728,0.8383,-0.5366,-0.0618,0.3,-0.1,0.5,-0.003,-0.002,-0.011,0
2018,4,25,20,42,54.191,0.0728,0.8384,-0.5365,-0.0617,0,0,0.7,-0.005,-0.005,-0.009,0
2018,4,25,20,42,54.227,0.0727,0.8385,-0.5364,-0.0617,-0.1,0.1,0.5,-0.001,-0.001,-0.009,0
2018,4,25,20,42,54.246,0.0727,0.8385,-0.5364,-0.0617,-0.1,0,0.5,-0.001,0,-0.003,0
2018,4,25,20,42,54.25,0.0728,0.8386,-0.5363,-0.0616,-0.3,0,0.7,-0.005,0.001,-0.011,0
2018,4,25,20,42,54.288,0.0728,0.8386,-0.5362,-0.0616,-0.1,0.1,0.6,-0.004,-0.003,-0.006,0
2018,4,25,20,42,54.29,0.0728,0.8387,-0.5361,-0.0616,-0.1,0.1,0.5,-0.002,-0.001,-0.007,0
2018,4,25,20,42,54.309,0.0727,0.8387,-0.536,-0.0616,-0.1,0.1,0.6,-0.002,-0.004,-0.003,0
2018,4,25,20,42,54.345,0.0727,0.8388,-0.5359,-0.0616,-0.4,0.1,0.5,-0.005,-0.002,-0.005,0
2018,4,25,20,42,54.365,0.0728,0.8388,-0.5359,-0.0616,-0.4,-0.1,0.7,-0.002,-0.002,-0.006,0
2018,4,25,20,42,54.369,0.0728,0.8389,-0.5358,-0.0616,-0.6,0,0.5,-0.005,-0.003,-0.007,0
2018,4,25,20,42,54.391,0.0729,0.8389,-0.5357,-0.0616,-0.4,0.1,0.5,-0.004,-0.003,-0.007,0
2018,4,25,20,42,54.412,0.0729,0.8389,-0.5356,-0.0616,0,0,0,-0.001,-0.001,-0.007,0
2018,4,25,20,42,54.452,0.0729,0.839,-0.5356,-0.0616,0,0.1,0.6,-0.003,-0.002,-0.007,0
2018,4,25,20,42,54.472,0.0729,0.8391,-0.5355,-0.0616,-0.1,0,0.7,-0.005,-0.002,-0.005,0
2018,4,25,20,42,54.476,0.0729,0.8391,-0.5354,-0.0615,0,0,0,-0.002,-0.003,-0.009,0
2018,4,25,20,42,54.496,0.0729,0.8391,-0.5353,-0.0615,-0.2,0.1,0.5,-0.004,-0.003,-0.008,0
2018,4,25,20,42,54.511,0.0729,0.8392,-0.5353,-0.0615,-0.3,0,0.5,-0.004,-0.002,-0.006,0
2018,4,25,20,42,54.549,0.0729,0.8392,-0.5352,-0.0615,-0.1,0.1,0.6,-0.004,-0.001,-0.01,0
2018,4,25,20,42,54.57,0.0729,0.8393,-0.5351,-0.0615,0,0.1,0.5,-0.002,-0.001,-0.005,0
2018,4,25,20,42,54.575,0.0728,0.8393,-0.5351,-0.0615,0.1,0,0.5,-0.003,0,-0.007,0
2018,4,25,20,42,54.593,0.0728,0.8394,-0.535,-0.0614,-0.1,0,0.6,-0.004,-0.001,-0.005,0
2018,4,25,20,42,54.613,0.0729,0.8394,-0.5349,-0.0614,-0.4,0.1,0.7,-0.002,-0.002,-0.011,1023
2018,4,25,20,42,54.634,0.0729,0.8395,-0.5349,-0.0614,-0.3,0,0.5,-0.003,-0.004,-0.009,1023
2018,4,25,20,42,54.654,0.0729,0.8395,-0.5348,-0.0614,-0.2,0,0.5,-0.002,-0.001,-0.005,1023
2018,4,25,20,42,54.676,0.0729,0.8395,-0.5348,-0.0614,0,0,0,-0.004,0,-0.005,1023
2018,4,25,20,42,54.696,0.0729,0.8395,-0.5347,-0.0614,0,0.1,0.5,-0.003,-0.003,-0.004,1023
2018,4,25,20,42,54.734,0.0729,0.8396,-0.5347,-0.0613,-0.1,-0.1,0.7,0,-0.003,-0.005,1023
2018,4,25,20,42,54.755,0.0729,0.8397,-0.5346,-0.0613,-0.6,0,0.5,-0.001,-0.002,-0.006,1023
2018,4,25,20,42,54.759,0.073,0.8397,-0.5345,-0.0614,-1,0,0.5,-0.003,-0.002,-0.008,1023
2018,4,25,20,42,54.775,0.073,0.8397,-0.5344,-0.0615,-0.6,0.1,0.3,-0.001,0,-0.007,1023
2018,4,25,20,42,54.793,0.0731,0.8397,-0.5344,-0.0615,-0.1,0,0.5,-0.003,0.003,-0.009,1023
2018,4,25,20,42,54.812,0.0731,0.8398,-0.5343,-0.0614,0.1,0,0.7,-0.003,-0.004,-0.003,0
2018,4,25,20,42,54.853,0.073,0.8399,-0.5342,-0.0614,0,-0.1,0.6,-0.002,-0.003,-0.009,0
2018,4,25,20,42,54.872,0.073,0.8399,-0.5341,-0.0614,-0.5,0,0.4,-0.003,-0.006,-0.008,0
2018,4,25,20,42,54.876,0.0731,0.84,-0.534,-0.0615,-0.8,0.1,0.4,-0.001,-0.005,-0.01,0
2018,4,25,20,42,54.898,0.0732,0.84,-0.534,-0.0615,-0.5,0,0.4,-0.002,-0.001,-0.006,0
2018,4,25,20,42,54.919,0.0732,0.84,-0.5339,-0.0615,0,0,0,-0.001,0,-0.008,0
2018,4,25,20,42,54.94,0.0732,0.8401,-0.5338,-0.0615,0.1,0,0.7,-0.002,-0.001,-0.009,0
2018,4,25,20,42,54.96,0.0731,0.8402,-0.5337,-0.0615,0,0,0.7,-0.002,0,-0.005,0
2018,4,25,20,42,54.979,0.0731,0.8402,-0.5337,-0.0614,-0.2,0.1,0.5,-0.003,-0.003,-0.005,0
2018,4,25,20,42,54.999,0.0731,0.8402,-0.5336,-0.0614,0,0,0,-0.002,0.002,-0.005,0
