time_1,time_2,time_3,time_4,time_5,time_6,w,x,y,z,droll,dpitch,dyaw,ax,ay,az,heart
2018,5,11,13,30,57.327,0.4041,-0.2569,0.0057,-0.8778,-1.2,-0.1,0.5,0.004,0.001,-0.002,0
2018,5,11,13,30,57.348,0.4042,-0.257,0.0059,-0.8777,-1.4,-0.1,0.6,0,-0.004,0.001,0
2018,5,11,13,30,57.385,0.4042,-0.257,0.006,-0.8777,-1.2,-0.1,0.9,0.003,-0.002,-0.003,0
2018,5,11,13,30,57.403,0.4042,-0.257,0.0061,-0.8777,-0.9,-0.2,1,0.009,0,0.001,0
2018,5,11,13,30,57.408,0.4042,-0.257,0.0062,-0.8777,-0.9,-0.2,1.2,0.015,0,-0.002,0
2018,5,11,13,30,57.445,0.4041,-0.257,0.0062,-0.8778,-0.5,0.1,1.4,0.017,-0.002,0.002,0
2018,5,11,13,30,57.466,0.404,-0.2569,0.0061,-0.8778,0,0.3,1.3,0.013,-0.002,0,0
2018,5,11,13,30,57.468,0.404,-0.2569,0.006,-0.8778,0.2,0.3,1,0.01,-0.001,0.002,0
2018,5,11,13,30,57.488,0.404,-0.257,0.0058,-0.8778,0.4,0.3,1,0.004,-0.004,-0.002,0
2018,5,11,13,30,57.506,0.404,-0.257,0.0055,-0.8778,0.5,0.6,0.9,-0.001,0.002,0.001,0
2018,5,11,13,30,57.543,0.404,-0.2571,0.0052,-0.8778,0.3,0.6,0.8,0.002,0.006,-0.002,0
2018,5,11,13,30,57.564,0.4041,-0.2571,0.0051,-0.8777,-0.2,0.3,1.1,0.003,0.005,-0.003,0
2018,5,11,13,30,57.568,0.4041,-0.2571,0.005,-0.8777,-0.4,0,1.1,0.007,0.004,-0.006,0
2018,5,11,13,30,57.606,0.4039,-0.2572,0.0049,-0.8778,-0.6,-0.2,1.1,0.007,0.003,-0.002,0
2018,5,11,13,30,57.625,0.404,-0.2571,0.005,-0.8778,-0.6,-0.1,1.2,0.01,0.006,0,0
2018,5,11,13,30,57.628,0.4039,-0.257,0.005,-0.8779,-0.9,-0.1,1.1,0.01,0.007,0.007,0
2018,5,11,13,30,57.666,0.4038,-0.2569,0.005,-0.8779,-1,-0.2,0.8,0.013,0,0.009,0
2018,5,11,13,30,57.687,0.404,-0.2567,0.0052,-0.8779,-0.9,-0.3,0.9,0.012,-0.002,0.001,0
2018,5,11,13,30,57.69,0.4041,-0.2566,0.0054,-0.8779,-0.9,0,0.8,0.009,-0.001,0.001,0
2018,5,11,13,30,57.706,0.4042,-0.2566,0.0054,-0.8778,-0.7,0.2,0.5,0.008,0.001,0.001,0
2018,5,11,13,30,57.743,0.4042,-0.2567,0.0054,-0.8778,-1,0.4,0.5,0.008,0,0.003,0
2018,5,11,13,30,57.763,0.4043,-0.2567,0.0055,-0.8777,-0.7,0.4,0.7,0.005,0.001,-0.003,0
2018,5,11,13,30,57.769,0.4044,-0.2568,0.0055,-0.8777,-0.7,0.3,0.8,0.006,0.001,0,0
2018,5,11,13,30,57.806,0.4043,-0.2568,0.0054,-0.8777,-0.5,0.1,1,0.007,0,0.001,0
2018,5,11,13,30,57.825,0.4044,-0.2569,0.0054,-0.8777,-0.5,0.1,0.7,0.004,0,0,0
2018,5,11,13,30,57.83,0.4045,-0.2568,0.0054,-0.8776,-0.5,0,0.7,0.003,-0.002,-0.004,0
2018,5,11,13,30,57.864,0.4047,-0.2568,0.0055,-0.8776,-0.5,-0.2,0.8,0.007,-0.004,0,0
2018,5,11,13,30,57.885,0.4046,-0.2568,0.0055,-0.8776,-0.5,-0.2,0.8,0.009,0.002,-0.004,0
2018,5,11,13,30,57.89,0.4048,-0.2567,0.0057,-0.8775,-0.6,-0.1,1,0.008,0.002,-0.002,0
2018,5,11,13,30,57.925,0.4049,-0.2566,0.0057,-0.8775,-0.9,-0.1,1,0.005,0.002,0.002,0
2018,5,11,13,30,57.945,0.4049,-0.2566,0.0057,-0.8775,-0.7,0.1,0.8,0.011,0.001,0.002,0
2018,5,11,13,30,57.948,0.4049,-0.2566,0.0057,-0.8775,-0.7,0,0.8,0.012,0.002,0,0
2018,5,11,13,30,57.984,0.4051,-0.2565,0.0058,-0.8775,-0.5,0.1,1,0.007,0.003,0,0
2018,5,11,13,30,58.006,0.4051,-0.2565,0.0057,-0.8775,-0.4,0.3,1,0.012,0.001,-0.002,0
2018,5,11,13,30,58.01,0.405,-0.2565,0.0056,-0.8775,-0.5,0.3,1,0.006,0,-0.001,0
2018,5,11,13,30,58.03,0.4049,-0.2566,0.0055,-0.8775,-0.3,0.1,1,0.005,0.002,0.001,0
2018,5,11,13,30,58.05,0.405,-0.2565,0.0055,-0.8775,-0.6,0,0.9,0.002,0.003,-0.002,0
2018,5,11,13,30,58.09,0.405,-0.2566,0.0055,-0.8775,-0.6,0,0.9,0.005,0.002,-0.008,0
2018,5,11,13,30,58.11,0.405,-0.2566,0.0054,-0.8775,-0.6,0.3,0.8,0.007,0,0.001,1023
2018,5,11,13,30,58.114,0.4048,-0.2567,0.0053,-0.8775,-0.7,0.1,0.8,0.005,0.003,-0.004,1023
2018,5,11,13,30,58.131,0.4046,-0.2568,0.0052,-0.8776,-0.7,0,1,0.01,0.004,0,1023
2018,5,11,13,30,58.15,0.4048,-0.2568,0.0053,-0.8775,-0.7,0,0.9,0.008,0,0.001,1023
2018,5,11,13,30,58.172,0.4048,-0.2568,0.0053,-0.8775,-0.6,-0.1,0.8,0.005,0,-0.001,1023
2018,5,11,13,30,58.209,0.4047,-0.2568,0.0053,-0.8775,-0.6,0,1,0.009,0,-0.001,1023
2018,5,11,13,30,58.229,0.4046,-0.2568,0.0052,-0.8776,-0.4,0,1,0.003,0.003,0.001,1023
2018,5,11,13,30,58.234,0.4045,-0.2568,0.0051,-0.8776,-0.4,-0.1,0.9,0.007,0,0.002,1023
2018,5,11,13,30,58.253,0.4046,-0.2568,0.0051,-0.8776,-0.3,0.1,1,0.009,0.003,0.001,1023
2018,5,11,13,30,58.273,0.4045,-0.2568,0.005,-0.8776,-0.3,0.1,1.1,0.009,0,0.002,1023
2018,5,11,13,30,58.313,0.4043,-0.2569,0.0048,-0.8777,-0.3,0.3,1,0.008,0.003,0,1023
2018,5,11,13,30,58.332,0.4043,-0.2569,0.0047,-0.8777,-0.4,0.1,1,0.01,0.005,-0.004,1023
2018,5,11,13,30,58.337,0.4042,-0.2569,0.0046,-0.8777,-0.6,0.3,0.9,0.006,0.003,0,1023
2018,5,11,13,30,58.356,0.4044,-0.2569,0.0047,-0.8777,-0.6,0.2,0.9,0.007,0,0.002,1023
2018,5,11,13,30,58.378,0.4044,-0.2569,0.0047,-0.8776,-0.7,0,0.8,0.007,-0.001,0.001,0
2018,5,11,13,30,58.395,0.4044,-0.2569,0.0048,-0.8776,-0.4,0,1,0.006,0.003,-0.002,0
2018,5,11,13,30,58.415,0.4044,-0.2569,0.0047,-0.8777,-0.4,0,0.9,0.007,0,0,0
2018,5,11,13,30,58.433,0.4043,-0.2569,0.0046,-0.8777,-0.3,0.2,0.7,0.005,0.005,0,0
2018,5,11,13,30,58.453,0.4044,-0.2569,0.0045,-0.8777,-0.3,-0.1,0.7,0.008,0.007,0.002,0
2018,5,11,13,30,58.492,0.4044,-0.2569,0.0045,-0.8777,-1,0,0.8,0.003,0.002,0.001,0
2018,5,11,13,30,58.512,0.4045,-0.2568,0.0047,-0.8776,-1,-0.1,0.7,0.006,0.003,0,0
2018,5,11,13,30,58.515,0.4045,-0.2569,0.0047,-0.8776,-1.2,0,0.7,0.004,0.002,0.002,0
2018,5,11,13,30,58.552,0.4047,-0.2569,0.0049,-0.8776,-1.4,0.1,0.6,0.003,-0.004,0.004,0
2018,5,11,13,30,58.573,0.4047,-0.257,0.0051,-0.8775,-1.3,0,0.8,0.004,-0.004,0,0
2018,5,11,13,30,58.576,0.4047,-0.257,0.0053,-0.8775,-0.9,0,1,0.007,0,-0.002,0
2018,5,11,13,30,58.613,0.4047,-0.2569,0.0054,-0.8775,-0.6,0.1,1.1,0.015,0.001,0.004,0
2018,5,11,13,30,58.635,0.4048,-0.2569,0.0054,-0.8775,-0.4,0.3,1.4,0.015,-0.001,0.001,0
2018,5,11,13,30,58.639,0.4048,-0.2568,0.0054,-0.8775,0,0.2,1.3,0.016,0,-0.001,0
2018,5,11,13,30,58.655,0.4048,-0.2567,0.0054,-0.8775,0,0.3,1.2,0.012,-0.004,0.001,0
2018,5,11,13,30,58.676,0.4047,-0.2568,0.0052,-0.8775,0.3,0.5,1.1,0.003,-0.005,-0.003,0
2018,5,11,13,30,58.697,0.4047,-0.2569,0.005,-0.8775,0.5,0.8,1,-0.001,0.001,-0.002,0
2018,5,11,13,30,58.715,0.4048,-0.257,0.0047,-0.8775,0,0.8,0.7,-0.001,0.006,-0.003,0
2018,5,11,13,30,58.735,0.4049,-0.2571,0.0046,-0.8774,-0.2,0.4,0.8,0.005,0.008,-0.003,0
2018,5,11,13,30,58.775,0.4049,-0.2571,0.0044,-0.8774,-0.6,0.3,1.3,0.01,0.006,-0.007,0
2018,5,11,13,30,58.794,0.4047,-0.2571,0.0044,-0.8774,-0.8,-0.1,1.6,0.013,0.001,0,0
2018,5,11,13,30,58.799,0.4047,-0.257,0.0044,-0.8775,-0.7,-0.2,1.6,0.01,0.003,0.003,0
2018,5,11,13,30,58.82,0.4047,-0.2569,0.0045,-0.8775,-0.7,-0.2,1.3,0.011,0.002,0.005,0
2018,5,11,13,30,58.837,0.4047,-0.2568,0.0046,-0.8775,-0.8,-0.1,1,0.012,-0.002,0.004,0
2018,5,11,13,30,58.855,0.4047,-0.2568,0.0046,-0.8776,-0.7,0.1,0.8,0.012,0,0.006,0
2018,5,11,13,30,58.895,0.4047,-0.2568,0.0047,-0.8776,-0.9,0.3,0.8,0.009,0,-0.001,0
2018,5,11,13,30,58.916,0.4045,-0.257,0.0046,-0.8776,-0.7,0.4,0.8,0.006,0.002,-0.001,0
2018,5,11,13,30,58.92,0.4045,-0.2571,0.0045,-0.8776,-0.7,0.8,0.7,0.006,0.003,-0.003,0
2018,5,11,13,30,58.937,0.4045,-0.2572,0.0045,-0.8775,-0.6,0.8,0.9,0.009,0,0.002,0
2018,5,11,13,30,58.958,0.4046,-0.2573,0.0045,-0.8774,-0.7,0.4,1,0.01,0,-0.002,0
2018,5,11,13,30,58.998,0.4047,-0.2574,0.0045,-0.8774,-0.5,0.4,1,0.001,-0.001,-0.002,0
2018,5,11,13,30,59.017,0.4049,-0.2573,0.0046,-0.8773,-0.2,0.4,0.9,0.005,0.002,0,0
2018,5,11,13,30,59.021,0.4049,-0.2574,0.0045,-0.8773,-0.3,0.3,1,0,0,0,0
2018,5,11,13,30,59.04,0.405,-0.2574,0.0045,-0.8772,-0.3,0.2,0.9,0.002,0,0,0
2018,5,11,13,30,59.055,0.4051,-0.2574,0.0045,-0.8772,-0.4,0,1,0.004,0.002,0,0
2018,5,11,13,30,59.092,0.405,-0.2574,0.0044,-0.8772,-0.6,0,1,0.009,0.001,0,0
2018,5,11,13,30,59.113,0.405,-0.2575,0.0044,-0.8772,-0.7,0.2,1.1,0.008,0.004,-0.001,0
2018,5,11,13,30,59.117,0.4049,-0.2575,0.0044,-0.8772,-0.7,0.4,1,0.01,0,0.003,0
2018,5,11,13,30,59.157,0.4051,-0.2575,0.0045,-0.8772,-0.5,0.3,1,0.009,0.002,0.001,0
2018,5,11,13,30,59.176,0.4051,-0.2574,0.0045,-0.8772,-0.6,0.3,0.8,0.009,0.002,0.001,0
2018,5,11,13,30,59.18,0.4053,-0.2574,0.0046,-0.8771,-0.6,0.4,0.8,0.007,0.001,0.002,1023
2018,5,11,13,30,59.199,0.4052,-0.2575,0.0044,-0.8771,-0.4,0.4,1,0.007,0.002,0,1023
2018,5,11,13,30,59.218,0.4053,-0.2575,0.0045,-0.8771,-0.4,0.5,1,0.006,0,0.001,1023
2018,5,11,13,30,59.259,0.4052,-0.2576,0.0043,-0.8771,-0.3,0.4,1,0.007,0.003,0,1023
2018,5,11,13,30,59.28,0.4051,-0.2577,0.0042,-0.8771,-0.5,0.5,0.9,0.005,0,0.001,1023
2018,5,11,13,30,59.284,0.4053,-0.2577,0.0043,-0.877,-0.7,0.6,0.9,0.006,0.001,-0.002,1023
2018,5,11,13,30,59.301,0.4051,-0.2579,0.0042,-0.8771,-0.5,0.3,1,0.006,-0.001,0.001,1023
2018,5,11,13,30,59.339,0.4051,-0.2579,0.0041,-0.877,-0.7,0.5,1.1,0.008,0,0.003,1023
2018,5,11,13,30,59.343,0.4051,-0.258,0.0041,-0.877,-0.6,0.4,1,0.008,0,0,1023
2018,5,11,13,30,59.359,0.4051,-0.2581,0.0041,-0.877,-0.7,0.3,0.8,0.006,0.002,-0.001,1023
2018,5,11,13,30,59.397,0.4053,-0.258,0.0042,-0.8769,-0.6,0.4,1,0.007,0.001,-0.002,1023
2018,5,11,13,30,59.418,0.4052,-0.2581,0.0041,-0.877,-0.4,0.3,0.9,0.008,0.002,0.001,1023
2018,5,11,13,30,59.423,0.4052,-0.2581,0.0041,-0.8769,-0.2,0.4,0.9,0.01,0.002,-0.001,1023
2018,5,11,13,30,59.44,0.4052,-0.2582,0.004,-0.8769,-0.4,0.4,1,0.008,0.001,0.004,0
2018,5,11,13,30,59.461,0.4052,-0.2581,0.0039,-0.8769,-0.4,0.4,1,0.007,0.003,-0.004,0
2018,5,11,13,30,59.5,0.4051,-0.2582,0.0038,-0.8769,-0.4,0.6,1,0.009,0.002,0.002,0
2018,5,11,13,30,59.52,0.4053,-0.2582,0.0039,-0.8768,-0.6,0.6,1,0.009,0,0,0
2018,5,11,13,30,59.523,0.4052,-0.2583,0.0039,-0.8769,-0.6,0.6,1,0.008,-0.001,0.003,0
2018,5,11,13,30,59.56,0.4053,-0.2584,0.0038,-0.8768,-0.4,0.6,1,0.007,-0.001,0.001,0
2018,5,11,13,30,59.58,0.4053,-0.2584,0.0038,-0.8768,-0.4,0.6,1,0.006,0,0,0
2018,5,11,13,30,59.583,0.4054,-0.2584,0.0037,-0.8767,0,0.6,0.8,0.007,0.005,0,0
2018,5,11,13,30,59.6,0.4055,-0.2584,0.0036,-0.8767,-0.2,0.4,0.8,0.004,0.008,0,0
2018,5,11,13,30,59.621,0.4052,-0.2586,0.0033,-0.8768,-0.7,0.4,0.8,0.006,0.002,-0.003,0
2018,5,11,13,30,59.641,0.4051,-0.2588,0.0033,-0.8768,-1,0.5,0.5,0.003,0.002,-0.006,0
2018,5,11,13,30,59.662,0.4053,-0.2588,0.0033,-0.8767,-1.1,0.6,0.6,0.007,0.003,0.003,0
2018,5,11,13,30,59.702,0.4052,-0.259,0.0034,-0.8767,-1.3,0.4,0.6,0.003,-0.001,0,0
2018,5,11,13,30,59.722,0.4053,-0.2591,0.0035,-0.8766,-1,0.2,0.8,0.001,-0.002,0,0
2018,5,11,13,30,59.727,0.4051,-0.2593,0.0035,-0.8766,-0.9,0.4,1.1,0.008,-0.001,0,0
2018,5,11,13,30,59.746,0.4052,-0.2592,0.0036,-0.8766,-0.4,0.4,1.3,0.014,0.002,0,0
2018,5,11,13,30,59.765,0.4054,-0.2591,0.0037,-0.8766,-1,0.8,1.4,0.022,0.001,-0.002,0
2018,5,11,13,30,59.782,0.4055,-0.2591,0.0037,-0.8765,0.3,1.1,1.3,0.013,0.001,0.007,0
2018,5,11,13,30,59.819,0.4054,-0.2592,0.0035,-0.8765,-0.1,0.8,1.4,0.01,-0.001,0.003,0
2018,5,11,13,30,59.839,0.4054,-0.2592,0.0034,-0.8765,0.2,0.9,1.3,0,-0.003,-0.004,0
2018,5,11,13,30,59.843,0.4053,-0.2594,0.0031,-0.8765,0.5,0.9,1.1,0.001,0,-0.002,0
2018,5,11,13,30,59.863,0.4052,-0.2596,0.0027,-0.8765,0.4,0.9,1,-0.001,0.012,-0.001,0
2018,5,11,13,30,59.882,0.4053,-0.2597,0.0024,-0.8764,-0.4,0.3,1.2,0.006,0.006,-0.001,0
2018,5,11,13,30,59.919,0.4054,-0.2596,0.0024,-0.8764,-0.6,0.2,1.6,0.009,0.006,-0.004,0
2018,5,11,13,30,59.94,0.4055,-0.2595,0.0025,-0.8764,-0.5,0.3,1.5,0.012,0.005,0,0
2018,5,11,13,30,59.944,0.4056,-0.2594,0.0026,-0.8764,-0.7,0.1,1.2,0.009,0.002,0.005,0
2018,5,11,13,30,59.965,0.4058,-0.2593,0.0027,-0.8763,-0.9,0,0.7,0.01,0.004,0.004,0
2018,5,11,13,30,59.983,0.4057,-0.2594,0.0027,-0.8764,-1,0.3,0.9,0.007,0,-0.001,0
2018,5,11,13,31,0.002,0.4056,-0.2594,0.0027,-0.8764,-1,0.5,0.8,0.011,0.002,0.006,0
2018,5,11,13,31,0.038,0.4055,-0.2596,0.0026,-0.8764,-0.6,0.8,0.6,0.012,0,0,0
2018,5,11,13,31,0.058,0.4056,-0.2597,0.0026,-0.8763,-0.7,1,0.5,0.011,0,0.002,0
2018,5,11,13,31,0.062,0.4057,-0.2598,0.0026,-0.8762,-0.7,0.9,0.6,0.009,0.002,-0.003,0
2018,5,11,13,31,0.104,0.4055,-0.26,0.0024,-0.8762,-0.9,0.5,0.9,0.008,0,-0.002,0
2018,5,11,13,31,0.108,0.4055,-0.2601,0.0024,-0.8762,-0.7,0.6,0.8,0.007,-0.003,-0.008,0
2018,5,11,13,31,0.124,0.4056,-0.2602,0.0024,-0.8762,-0.4,0.4,0.7,0.004,0,0.001,0
2018,5,11,13,31,0.163,0.4055,-0.2603,0.0023,-0.8762,-0.6,0,0.5,0,0.004,0,0
2018,5,11,13,31,0.182,0.4054,-0.2603,0.0022,-0.8762,-0.6,0,0.8,0.002,0,0.002,0
2018,5,11,13,31,0.186,0.4056,-0.2603,0.0024,-0.8761,-0.7,0,0.8,0.006,0,-0.004,0
2018,5,11,13,31,0.202,0.4057,-0.2602,0.0025,-0.8761,-0.9,-0.1,1,0.008,0,-0.003,0
2018,5,11,13,31,0.222,0.4057,-0.2602,0.0026,-0.8761,-0.7,-0.2,0.8,0.01,0,0,0
2018,5,11,13,31,0.244,0.4056,-0.2602,0.0025,-0.8761,-0.6,0.1,0.9,0.009,0.003,0.003,0
2018,5,11,13,31,0.281,0.4055,-0.2602,0.0025,-0.8762,-0.5,0.2,1,0.013,0,0.003,0
2018,5,11,13,31,0.301,0.4056,-0.2602,0.0025,-0.8761,-0.2,0.2,1,0.01,0.002,0.004,1023
2018,5,11,13,31,0.305,0.4058,-0.2601,0.0025,-0.8761,-0.2,0.5,1,0.01,0,0.004,1023
2018,5,11,13,31,0.326,0.4058,-0.2602,0.0024,-0.8761,-0.2,0.6,0.9,0.007,-0.001,0.001,1023
2018,5,11,13,31,0.345,0.4058,-0.2602,0.0023,-0.876,-0.1,0.6,0.9,0.005,0,-0.003,1023
2018,5,11,13,31,0.367,0.4058,-0.2603,0.0022,-0.876,-0.4,0.5,0.9,0.005,0.004,-0.002,1023
2018,5,11,13,31,0.406,0.4057,-0.2604,0.0021,-0.876,-0.6,0.4,1,0.004,0.001,0.001,1023
2018,5,11,13,31,0.427,0.4059,-0.2604,0.0021,-0.876,-0.6,0.1,1.1,0.004,0.002,0,1023
2018,5,11,13,31,0.431,0.4057,-0.2605,0.0021,-0.876,-0.6,0,0.7,0.003,-0.001,0.001,1023
2018,5,11,13,31,0.447,0.4057,-0.2605,0.002,-0.876,-0.6,-0.1,0.9,0.004,0,0,1023
2018,5,11,13,31,0.486,0.4056,-0.2605,0.002,-0.876,-0.5,-0.2,0.9,0.008,0.002,-0.003,1023
2018,5,11,13,31,0.506,0.4059,-0.2604,0.0022,-0.876,-0.6,0,0.8,0.007,0,0,1023
2018,5,11,13,31,0.511,0.4057,-0.2605,0.002,-0.876,-0.6,0,0.9,0.006,0.003,-0.001,1023
2018,5,11,13,31,0.527,0.4059,-0.2604,0.0022,-0.876,-0.6,0.3,0.8,0.01,0.002,0,1023
2018,5,11,13,31,0.566,0.4061,-0.2603,0.0023,-0.8759,-0.7,0,0.8,0.008,-0.002,-0.003,1023
2018,5,11,13,31,0.585,0.4062,-0.2602,0.0024,-0.8758,-0.5,-0.1,0.9,0.005,-0.003,-0.002,0
2018,5,11,13,31,0.59,0.4063,-0.2602,0.0024,-0.8758,-0.3,0.1,1.1,0.009,-0.001,0.002,0
2018,5,11,13,31,0.609,0.4063,-0.2602,0.0024,-0.8758,-0.2,0,1,0.008,0.001,0.001,0
2018,5,11,13,31,0.63,0.4065,-0.26,0.0024,-0.8758,-0.1,0,0.7,0.006,0.002,0.003,0
2018,5,11,13,31,0.649,0.4066,-0.26,0.0024,-0.8757,-0.1,0.1,0.6,0.005,0.005,0.001,0
2018,5,11,13,31,0.669,0.4068,-0.2598,0.0024,-0.8757,-0.7,-0.1,1,0.005,0.003,-0.007,0
2018,5,11,13,31,0.705,0.4068,-0.2599,0.0025,-0.8757,-0.4,-0.1,0.7,0.004,-0.008,-0.001,0
2018,5,11,13,31,0.724,0.4068,-0.2599,0.0024,-0.8757,-1,0,0.8,0.009,0.007,0,0
2018,5,11,13,31,0.727,0.4067,-0.26,0.0024,-0.8757,-1.2,0.3,0.5,0.004,-0.001,0.004,0
2018,5,11,13,31,0.764,0.4067,-0.2601,0.0025,-0.8757,-1,0,0.6,0.003,-0.003,-0.001,0
2018,5,11,13,31,0.782,0.4066,-0.2601,0.0024,-0.8757,-0.8,-0.1,1.1,0,0,0.007,0
2018,5,11,13,31,0.787,0.4066,-0.2601,0.0025,-0.8757,-0.6,-0.2,1.3,0.008,-0.002,-0.003,0
2018,5,11,13,31,0.82,0.4065,-0.2601,0.0025,-0.8757,-0.2,0.1,1.4,0.014,-0.002,0,0
2018,5,11,13,31,0.841,0.4066,-0.26,0.0025,-0.8757,0,0.3,1.1,0.015,-0.002,0,0
2018,5,11,13,31,0.849,0.4066,-0.2599,0.0024,-0.8757,0.1,0.3,1.3,0.015,0,0.006,0
2018,5,11,13,31,0.885,0.4066,-0.2599,0.0022,-0.8758,0.3,0.1,1.1,0.005,-0.002,-0.003,0
2018,5,11,13,31,0.904,0.4065,-0.2599,0.002,-0.8758,0.3,0,0.9,0.001,0.002,0.001,0
2018,5,11,13,31,0.909,0.4065,-0.26,0.0018,-0.8758,0.5,-0.1,0.7,-0.005,-0.004,0.002,0
2018,5,11,13,31,0.945,0.4068,-0.2598,0.0017,-0.8757,-0.5,-0.2,0.8,0,0.009,-0.002,0
2018,5,11,13,31,0.948,0.4066,-0.2599,0.0016,-0.8758,-0.2,-0.6,0.8,0.003,0.01,-0.003,0
2018,5,11,13,31,0.964,0.4067,-0.2597,0.0017,-0.8758,-0.9,-0.6,1,0.007,0.003,-0.003,0
2018,5,11,13,31,1,0.4066,-0.2597,0.0017,-0.8759,-1,-0.6,1,0.01,0.003,0.001,0
2018,5,11,13,31,1.022,0.4064,-0.2596,0.0018,-0.876,-0.9,-0.6,1.1,0.014,0.003,0.006,0
2018,5,11,13,31,1.027,0.4062,-0.2595,0.0017,-0.8761,-0.6,-0.5,0.8,0.012,0.004,0.01,0
2018,5,11,13,31,1.062,0.4062,-0.2594,0.0019,-0.8761,-1.3,-0.2,0.8,0.011,-0.002,0.003,0
2018,5,11,13,31,1.081,0.4062,-0.2594,0.002,-0.8761,-0.8,-0.2,0.7,0.009,0,0.004,0
2018,5,11,13,31,1.089,0.4061,-0.2594,0.002,-0.8761,-0.7,0,0.5,0.008,0,0,0
2018,5,11,13,31,1.123,0.4063,-0.2593,0.0021,-0.8761,-0.8,0.3,0.5,0.011,0,0.001,0
2018,5,11,13,31,1.143,0.4064,-0.2593,0.0021,-0.876,-0.5,0.4,0.5,0.009,0.001,-0.003,0
2018,5,11,13,31,1.146,0.4065,-0.2593,0.0022,-0.876,-0.4,0.1,0.7,0.007,0.003,0,0
2018,5,11,13,31,1.183,0.4068,-0.2592,0.0023,-0.8759,-0.6,0,0.8,0.004,0,-0.002,0
2018,5,11,13,31,1.202,0.4069,-0.2592,0.0024,-0.8758,-0.6,0,0.8,0.002,0.001,0.001,0
2018,5,11,13,31,1.208,0.4071,-0.2591,0.0025,-0.8758,-0.6,-0.2,0.7,0,0,-0.003,0
2018,5,11,13,31,1.249,0.4072,-0.2591,0.0026,-0.8758,-0.5,-0.5,0.5,0.003,0,-0.005,0
2018,5,11,13,31,1.27,0.4074,-0.2589,0.0028,-0.8757,-0.7,-0.6,0.9,0.006,0,-0.002,0
2018,5,11,13,31,1.275,0.4076,-0.2587,0.0029,-0.8757,-0.7,-0.6,0.9,0.007,0.001,-0.002,0
2018,5,11,13,31,1.291,0.4076,-0.2586,0.003,-0.8757,-0.8,-0.4,0.8,0.008,0.002,0.002,0
2018,5,11,13,31,1.311,0.4076,-0.2586,0.0031,-0.8757,-0.9,-0.2,0.9,0.013,-0.001,0.004,0
2018,5,11,13,31,1.345,0.4074,-0.2586,0.003,-0.8758,-0.8,-0.1,1,0.011,0.001,0.001,0
2018,5,11,13,31,1.364,0.4075,-0.2585,0.003,-0.8758,-0.4,0,0.7,0.011,0,0,0
2018,5,11,13,31,1.366,0.4074,-0.2584,0.003,-0.8758,-0.4,0,1,0.01,0.004,0.003,0
2018,5,11,13,31,1.402,0.4073,-0.2585,0.0028,-0.8759,-0.2,-0.1,0.9,0.007,0,0,0
2018,5,11,13,31,1.421,0.4073,-0.2584,0.0028,-0.8759,-0.2,0.1,0.8,0.006,0.006,0,0
2018,5,11,13,31,1.428,0.4073,-0.2584,0.0027,-0.8759,-0.5,0.1,1,0.007,0.003,0,0
2018,5,11,13,31,1.464,0.4072,-0.2584,0.0027,-0.8759,-0.7,0,0.8,0.007,0.002,-0.002,0
2018,5,11,13,31,1.485,0.4074,-0.2584,0.0028,-0.8759,-0.5,-0.1,1.1,0.006,0.003,0,1023
2018,5,11,13,31,1.491,0.4074,-0.2583,0.0028,-0.8758,-0.6,0,1,0.004,0,-0.001,1023
2018,5,11,13,31,1.527,0.4075,-0.2582,0.0029,-0.8759,-0.5,-0.3,1,0.007,0.003,-0.002,1023
2018,5,11,13,31,1.547,0.4073,-0.2583,0.0029,-0.8759,-0.6,-0.2,0.8,0.005,0,0,1023
2018,5,11,13,31,1.552,0.4072,-0.2582,0.0028,-0.876,-0.4,-0.1,0.9,0.006,0.003,-0.001,1023
2018,5,11,13,31,1.586,0.4072,-0.2583,0.0027,-0.876,-0.5,-0.2,0.8,0.009,0.003,0.002,1023
2018,5,11,13,31,1.605,0.4071,-0.2582,0.0027,-0.876,-0.3,0,0.8,0.008,0,0,1023
2018,5,11,13,31,1.612,0.4073,-0.2581,0.0028,-0.876,-0.3,0,0.8,0.009,0,0,1023
2018,5,11,13,31,1.647,0.4073,-0.2581,0.0027,-0.876,-0.3,-0.1,0.9,0.011,0,-0.004,1023
2018,5,11,13,31,1.668,0.4072,-0.2581,0.0026,-0.876,-0.5,0,0.9,0.008,0,-0.001,1023
2018,5,11,13,31,1.673,0.4072,-0.258,0.0026,-0.876,-0.6,-0.3,0.9,0.006,0.002,-0.001,1023
2018,5,11,13,31,1.708,0.4072,-0.258,0.0026,-0.8761,-0.7,-0.2,0.8,0.01,0,0,1023
2018,5,11,13,31,1.729,0.407,-0.258,0.0026,-0.8761,-0.7,-0.2,0.8,0.008,-0.001,0.002,1023
2018,5,11,13,31,1.731,0.407,-0.258,0.0027,-0.8761,-0.6,0,0.9,0.007,0,0.004,1023
2018,5,11,13,31,1.766,0.407,-0.2579,0.0027,-0.8762,-0.3,0.1,0.9,0.005,0.002,-0.001,0
2018,5,11,13,31,1.785,0.4072,-0.2578,0.0027,-0.8761,-0.3,0.1,0.8,0.008,0.006,0.001,0
2018,5,11,13,31,1.795,0.4072,-0.2577,0.0027,-0.8761,-0.7,0,0.8,0.007,0.001,0,0
2018,5,11,13,31,1.829,0.4073,-0.2577,0.0028,-0.8761,-0.7,0.1,0.7,0.008,0,-0.007,0
2018,5,11,13,31,1.848,0.4074,-0.2577,0.0028,-0.876,-0.6,0.1,0.7,0.007,0.004,-0.001,0
2018,5,11,13,31,1.857,0.4073,-0.2578,0.0028,-0.8761,-1.3,0,0.6,0.004,0,-0.001,0
2018,5,11,13,31,1.89,0.4074,-0.2578,0.003,-0.876,-1.1,-0.1,0.7,0.001,-0.002,-0.003,0
2018,5,11,13,31,1.911,0.4073,-0.2579,0.0031,-0.876,-1,-0.2,0.9,0.003,0,-0.002,0
2018,5,11,13,31,1.913,0.4073,-0.2579,0.0031,-0.876,-0.8,-0.3,1,0.007,0.006,-0.006,0
2018,5,11,13,31,1.949,0.4073,-0.2578,0.0032,-0.8761,-0.6,-0.1,1.3,0.012,-0.001,-0.003,0
2018,5,11,13,31,1.969,0.4073,-0.2577,0.0033,-0.8761,-0.2,0,1.3,0.014,0,0.001,0
2018,5,11,13,31,1.974,0.4071,-0.2577,0.0031,-0.8762,0,0.1,1.4,0.015,-0.002,0.004,0
2018,5,11,13,31,2.009,0.4072,-0.2575,0.0031,-0.8762,0.3,0.3,1.1,0.008,-0.002,0.001,0
2018,5,11,13,31,2.029,0.4072,-0.2575,0.003,-0.8762,0.7,0.6,1.1,0.002,0.001,-0.003,0
2018,5,11,13,31,2.035,0.4072,-0.2576,0.0027,-0.8762,0.4,0.7,1.1,0,0.007,-0.002,0
2018,5,11,13,31,2.069,0.4073,-0.2576,0.0025,-0.8761,0.3,0.6,0.8,0.001,0.003,0.001,0
2018,5,11,13,31,2.089,0.4074,-0.2576,0.0024,-0.8761,0,0.3,1,0.002,0.006,-0.003,0
2018,5,11,13,31,2.097,0.4073,-0.2577,0.0022,-0.8761,-0.4,-0.1,1.3,0.007,0.005,-0.009,0
2018,5,11,13,31,2.13,0.4071,-0.2577,0.002,-0.8762,-0.5,-0.2,1.3,0.006,0.003,-0.003,0
2018,5,11,13,31,2.15,0.4069,-0.2577,0.002,-0.8763,-0.9,-0.2,1.2,0.01,0.006,0.001,0
2018,5,11,13,31,2.153,0.4067,-0.2576,0.0019,-0.8764,-1.1,-0.5,1,0.01,0.003,0.003,0
2018,5,11,13,31,2.191,0.4064,-0.2576,0.0019,-0.8766,-1,-0.6,0.9,0.01,-0.001,0.004,0
2018,5,11,13,31,2.21,0.4064,-0.2576,0.002,-0.8766,-0.9,-0.2,1,0.012,-0.002,0,0
2018,5,11,13,31,2.216,0.4063,-0.2575,0.0021,-0.8766,-0.7,0,0.5,0.012,0,0,0
2018,5,11,13,31,2.254,0.4064,-0.2575,0.0022,-0.8766,-0.6,0.4,0.5,0.014,0,0.004,0
2018,5,11,13,31,2.274,0.4066,-0.2575,0.0023,-0.8765,-0.6,0.3,0.6,0.009,0.001,0,0
2018,5,11,13,31,2.276,0.4069,-0.2574,0.0025,-0.8764,-0.6,0.3,0.7,0.005,0,-0.003,0
2018,5,11,13,31,2.309,0.4069,-0.2574,0.0025,-0.8764,-0.6,0.1,0.8,0.006,0.004,0,0
2018,5,11,13,31,2.328,0.4068,-0.2575,0.0024,-0.8764,-0.4,0,0.8,0.004,0,-0.002,0
2018,5,11,13,31,2.335,0.4065,-0.2576,0.0022,-0.8765,-0.4,-0.1,0.8,0.002,0.001,-0.001,0
2018,5,11,13,31,2.37,0.4066,-0.2576,0.0022,-0.8765,-0.5,-0.3,0.7,0.005,0.002,0,0
2018,5,11,13,31,2.391,0.4066,-0.2576,0.0022,-0.8764,-0.6,-0.2,0.8,0.005,-0.002,0.003,0
2018,5,11,13,31,2.394,0.4069,-0.2574,0.0024,-0.8764,-0.7,-0.2,0.8,0.006,-0.001,-0.003,0
2018,5,11,13,31,2.43,0.4069,-0.2574,0.0025,-0.8764,-0.7,0,0.9,0.009,0.003,-0.001,0
2018,5,11,13,31,2.451,0.4068,-0.2574,0.0025,-0.8764,-0.6,0.1,1.1,0.011,0,0.003,0
2018,5,11,13,31,2.456,0.4069,-0.2573,0.0026,-0.8764,-0.7,0,1.1,0.013,0.001,0.001,0
2018,5,11,13,31,2.493,0.4068,-0.2573,0.0026,-0.8764,-0.7,0,1.1,0.011,0.001,0.001,0
2018,5,11,13,31,2.512,0.4067,-0.2572,0.0026,-0.8765,-0.4,0.1,0.9,0.01,0,0.005,0
2018,5,11,13,31,2.52,0.4068,-0.2572,0.0026,-0.8765,-0.3,0.1,1,0.011,0,0,0
2018,5,11,13,31,2.535,0.4067,-0.2572,0.0025,-0.8765,-0.1,0.3,0.9,0.006,0,0,0
2018,5,11,13,31,2.554,0.4068,-0.2572,0.0025,-0.8765,-0.4,0,0.8,0.005,0,-0.002,0
2018,5,11,13,31,2.588,0.407,-0.2572,0.0026,-0.8764,-0.3,0.3,0.9,0.004,0,0.001,0
2018,5,11,13,31,2.608,0.407,-0.2572,0.0026,-0.8764,-0.6,0.3,0.9,0.006,0.002,0,0
2018,5,11,13,31,2.619,0.4071,-0.2571,0.0027,-0.8763,-0.7,0.1,0.9,0.003,0.003,-0.003,0
2018,5,11,13,31,2.654,0.4071,-0.2572,0.0027,-0.8763,-0.7,0,0.9,0.006,0,0,1023
2018,5,11,13,31,2.675,0.4074,-0.2571,0.0029,-0.8763,-0.8,0.2,0.8,0.009,0.002,0,1023
2018,5,11,13,31,2.68,0.4074,-0.257,0.0029,-0.8762,-0.5,0,0.8,0.006,0,0,1023
2018,5,11,13,31,2.716,0.4073,-0.257,0.0029,-0.8763,-0.4,0,0.8,0.01,0.001,0.003,1023
2018,5,11,13,31,2.737,0.4072,-0.2571,0.0028,-0.8763,-0.4,0,0.8,0.006,0,0,1023
2018,5,11,13,31,2.743,0.4071,-0.2571,0.0027,-0.8763,-0.5,0,0.8,0.007,0,0.005,1023
2018,5,11,13,31,2.779,0.4072,-0.257,0.0028,-0.8763,-0.3,0,1,0.01,0,0.001,1023
2018,5,11,13,31,2.798,0.4072,-0.257,0.0028,-0.8763,-0.4,0,1,0.009,0.001,0,1023
2018,5,11,13,31,2.799,0.4071,-0.257,0.0027,-0.8764,-0.3,0.2,1,0.008,0.002,0.001,1023
2018,5,11,13,31,2.834,0.4072,-0.257,0.0027,-0.8763,-0.5,0.4,1,0.007,0.001,0.004,1023
2018,5,11,13,31,2.853,0.4074,-0.2569,0.0028,-0.8763,-0.5,0.3,0.9,0.012,0.003,0,1023
2018,5,11,13,31,2.858,0.4074,-0.2569,0.0028,-0.8763,-0.8,0.2,0.8,0.007,0.002,-0.002,1023
2018,5,11,13,31,2.891,0.4074,-0.2569,0.0029,-0.8763,-0.6,0.1,0.8,0.008,0.001,0,1023
2018,5,11,13,31,2.912,0.4075,-0.2569,0.0029,-0.8762,-0.5,0.1,1.1,0.005,0.002,-0.005,1023
2018,5,11,13,31,2.922,0.4077,-0.2568,0.003,-0.8762,-0.3,0,1,0.006,0.002,0.001,1023
2018,5,11,13,31,2.941,0.4077,-0.2568,0.0029,-0.8762,-0.4,0.1,0.7,0.003,0.001,0.002,0
2018,5,11,13,31,2.963,0.4076,-0.2568,0.0028,-0.8762,-0.3,0,0.7,0.006,0.006,0,0
2018,5,11,13,31,2.982,0.4074,-0.2569,0.0026,-0.8763,-0.9,0,0.9,0.005,0.003,0,0
2018,5,11,13,31,3.002,0.4073,-0.2569,0.0026,-0.8763,-1,0,0.7,0.005,0.003,-0.001,0
2018,5,11,13,31,3.037,0.4071,-0.257,0.0026,-0.8764,-1.1,0.2,0.8,0.005,0.003,0.003,0
2018,5,11,13,31,3.056,0.4072,-0.2571,0.0028,-0.8763,-1.3,0,0.7,0.005,-0.005,0,0
2018,5,11,13,31,3.058,0.4072,-0.2571,0.003,-0.8763,-1.2,-0.1,0.8,0.001,-0.003,0.008,0
2018,5,11,13,31,3.092,0.4071,-0.2572,0.003,-0.8763,-1,-0.1,0.8,0.005,0,0.002,0
2018,5,11,13,31,3.112,0.4071,-0.2572,0.0031,-0.8763,-0.7,0.1,1.2,0.014,-0.006,-0.001,0
2018,5,11,13,31,3.119,0.4071,-0.2571,0.0033,-0.8763,-0.4,0.1,1.4,0.016,-0.002,0,0
2018,5,11,13,31,3.154,0.4071,-0.257,0.0032,-0.8764,0.1,0.4,1.3,0.018,0,0.002,0
2018,5,11,13,31,3.175,0.4072,-0.2569,0.0032,-0.8764,0.3,0.4,1.2,0.011,0,0,0
2018,5,11,13,31,3.182,0.4073,-0.2569,0.0031,-0.8763,0.2,0.6,1,0.002,0,0,0
2018,5,11,13,31,3.219,0.4072,-0.257,0.0028,-0.8763,0.5,0.7,0.9,0.002,0.001,-0.001,0
2018,5,11,13,31,3.238,0.4072,-0.2571,0.0025,-0.8763,0.1,0.6,1,0,0.005,-0.002,0
2018,5,11,13,31,3.244,0.4073,-0.2571,0.0024,-0.8762,-0.2,0.4,1,0.001,0.005,-0.002,0
2018,5,11,13,31,3.277,0.4073,-0.2572,0.0023,-0.8763,-0.4,0,1.1,0.006,0.005,-0.003,0
2018,5,11,13,31,3.297,0.4072,-0.2572,0.0022,-0.8763,-0.7,-0.1,1.4,0.007,0.005,-0.002,0
2018,5,11,13,31,3.299,0.4071,-0.2571,0.0023,-0.8764,-0.7,-0.2,1.3,0.011,0.006,0,0
2018,5,11,13,31,3.332,0.407,-0.257,0.0023,-0.8764,-0.9,-0.2,1.1,0.012,0.004,0.006,0
2018,5,11,13,31,3.352,0.4072,-0.2568,0.0025,-0.8764,-0.9,-0.1,1,0.009,0,0.004,0
2018,5,11,13,31,3.362,0.407,-0.2568,0.0025,-0.8765,-0.9,-0.2,0.8,0.012,-0.002,0.001,0
2018,5,11,13,31,3.396,0.4072,-0.2567,0.0027,-0.8765,-0.6,0.1,0.5,0.01,0.001,0.004,0
2018,5,11,13,31,3.417,0.4073,-0.2566,0.0028,-0.8764,-0.9,0.3,0.7,0.009,0.002,0,0
2018,5,11,13,31,3.423,0.4072,-0.2567,0.0028,-0.8764,-0.7,0.4,0.7,0.011,0.005,-0.002,0
2018,5,11,13,31,3.461,0.4074,-0.2567,0.0029,-0.8763,-0.7,0.4,0.7,0.008,0.003,0,0
2018,5,11,13,31,3.482,0.4076,-0.2567,0.003,-0.8762,-0.7,0.3,0.8,0.008,0,-0.002,0
2018,5,11,13,31,3.483,0.4076,-0.2567,0.003,-0.8762,-0.6,0.1,0.9,0.003,0,-0.005,0
2018,5,11,13,31,3.52,0.4076,-0.2568,0.0029,-0.8762,-0.2,0,0.9,0.002,0.003,-0.003,0
2018,5,11,13,31,3.542,0.4077,-0.2568,0.0029,-0.8762,-0.4,0.1,0.8,0.001,0,-0.002,0
2018,5,11,13,31,3.543,0.4076,-0.2568,0.0028,-0.8762,-0.5,-0.2,0.7,0.002,0,-0.002,0
2018,5,11,13,31,3.576,0.4076,-0.2568,0.0028,-0.8762,-0.6,-0.2,0.8,0.005,0.002,-0.001,0
2018,5,11,13,31,3.596,0.4076,-0.2568,0.0029,-0.8762,-0.9,0,1.1,0.01,0.003,-0.004,0
2018,5,11,13,31,3.603,0.4073,-0.2569,0.0028,-0.8763,-0.7,0.1,1,0.01,0.001,0.004,0
2018,5,11,13,31,3.638,0.4073,-0.2569,0.0027,-0.8763,-0.6,0.1,1,0.01,0,0.001,0
2018,5,11,13,31,3.657,0.4072,-0.2569,0.0028,-0.8764,-0.5,0,1,0.012,0,0.005,1023
2018,5,11,13,31,3.666,0.4073,-0.2568,0.0028,-0.8764,-0.6,0.1,0.8,0.01,0.003,0.001,1023
2018,5,11,13,31,3.699,0.4073,-0.2568,0.0028,-0.8764,-0.6,0,0.8,0.007,0.002,-0.004,1023
2018,5,11,13,31,3.72,0.4074,-0.2568,0.0029,-0.8763,-0.4,0.4,0.8,0.006,0.002,0,1023
2018,5,11,13,31,3.722,0.4073,-0.2568,0.0028,-0.8763,-0.6,0,1,0.006,0,0,1023
2018,5,11,13,31,3.756,0.4072,-0.2569,0.0027,-0.8764,-0.6,0.1,0.8,0.005,0.004,0.003,1023
2018,5,11,13,31,3.778,0.4073,-0.2569,0.0028,-0.8763,-0.4,0.2,1,0.006,0.001,-0.003,1023
2018,5,11,13,31,3.787,0.4073,-0.2569,0.0027,-0.8763,-0.7,0.3,1,0.005,0.005,-0.002,1023
2018,5,11,13,31,3.806,0.4074,-0.2569,0.0028,-0.8763,-0.6,0.1,1,0.005,0,-0.001,1023
2018,5,11,13,31,3.827,0.4073,-0.257,0.0028,-0.8763,-0.6,0.4,1,0.003,0,-0.001,1023
2018,5,11,13,31,3.865,0.4073,-0.257,0.0028,-0.8763,-0.6,0,1,0.006,0.001,0.001,1023
2018,5,11,13,31,3.885,0.4075,-0.2569,0.0029,-0.8762,-0.6,0.1,1,0.008,-0.003,-0.001,1023
2018,5,11,13,31,3.886,0.4074,-0.257,0.0028,-0.8763,-0.5,0,1,0.008,0,0.001,1023
2018,5,11,13,31,3.921,0.4074,-0.2569,0.0028,-0.8763,-0.4,0.1,1,0.009,0,0.003,1023
2018,5,11,13,31,3.941,0.4073,-0.257,0.0028,-0.8763,-0.5,0.3,1,0.007,0,0.001,1023
2018,5,11,13,31,3.947,0.4076,-0.2569,0.0029,-0.8762,-0.6,0.1,1.1,0.008,0,-0.001,1023
2018,5,11,13,31,3.984,0.4077,-0.2568,0.0029,-0.8762,-0.5,0.3,1,0.007,0.001,0.003,1023
2018,5,11,13,31,4.003,0.4077,-0.2569,0.0029,-0.8762,-0.4,0.5,1,0.009,0.003,-0.003,1023
2018,5,11,13,31,4.009,0.4075,-0.2569,0.0027,-0.8762,-0.5,0.5,1,0.009,0.003,0.001,1023
2018,5,11,13,31,4.044,0.4076,-0.2569,0.0028,-0.8762,-0.7,0.4,0.9,0.006,0.005,0.001,1023
2018,5,11,13,31,4.063,0.4075,-0.257,0.0028,-0.8762,-0.7,0.3,0.8,0.009,0.003,0,1023
2018,5,11,13,31,4.065,0.4077,-0.257,0.0029,-0.8761,-0.9,0.3,0.7,0.003,-0.001,-0.002,1023
2018,5,11,13,31,4.1,0.4079,-0.2569,0.003,-0.8761,-0.5,0.2,1,0.006,0.001,0.002,1023
2018,5,11,13,31,4.121,0.408,-0.2569,0.003,-0.876,-0.6,0.2,1,0.004,0,-0.001,1023
2018,5,11,13,31,4.131,0.4081,-0.257,0.003,-0.876,-0.3,0.6,0.5,0.006,0.002,-0.001,1023
2018,5,11,13,31,4.167,0.4081,-0.257,0.0029,-0.8759,-0.2,0.3,0.5,0.006,0.005,0.001,1023
2018,5,11,13,31,4.187,0.4081,-0.257,0.0029,-0.8759,-0.9,0,0.7,0.004,0.004,-0.002,0
2018,5,11,13,31,4.188,0.4083,-0.257,0.0031,-0.8758,-1,0.1,0.4,0.004,0.005,-0.005,0
2018,5,11,13,31,4.225,0.4086,-0.2569,0.0033,-0.8757,-1.4,0.3,0.6,0.005,0.001,-0.003,0
2018,5,11,13,31,4.244,0.4085,-0.2571,0.0034,-0.8757,-1.5,0.3,0.5,0.005,-0.001,0.002,0
2018,5,11,13,31,4.251,0.4083,-0.2573,0.0034,-0.8757,-1.6,0.1,0.7,0.004,-0.004,0.001,0
2018,5,11,13,31,4.285,0.4082,-0.2574,0.0035,-0.8757,-1,0,1,0.003,-0.003,-0.002,0
2018,5,11,13,31,4.304,0.4083,-0.2574,0.0037,-0.8757,-0.9,0.1,1.2,0.011,0.001,0,0
2018,5,11,13,31,4.309,0.4083,-0.2574,0.0038,-0.8757,-0.9,0.5,1.4,0.013,0,0,0
2018,5,11,13,31,4.344,0.4082,-0.2574,0.0037,-0.8757,-0.2,0.7,1.3,0.017,-0.003,0.004,0
2018,5,11,13,31,4.365,0.4082,-0.2575,0.0036,-0.8757,0.2,0.9,1.1,0.013,-0.002,0.003,0
2018,5,11,13,31,4.369,0.4081,-0.2575,0.0034,-0.8758,0.1,1.1,1.3,0.005,0,0,0
2018,5,11,13,31,4.405,0.4084,-0.2575,0.0033,-0.8756,0.8,1.1,1,0,0,0.002,0
2018,5,11,13,31,4.427,0.4085,-0.2576,0.003,-0.8756,0.7,1,0.9,-0.005,0.004,0.001,0
2018,5,11,13,31,4.432,0.4086,-0.2578,0.0027,-0.8755,0.5,0.9,0.7,-0.005,0.003,-0.007,0
2018,5,11,13,31,4.47,0.4085,-0.2579,0.0024,-0.8755,0.6,0.3,0.7,-0.003,0.001,-0.004,1023
2018,5,11,13,31,4.492,0.4087,-0.2578,0.0022,-0.8754,0.9,-0.4,1.1,-0.007,-0.002,-0.008,1023
2018,5,11,13,31,4.495,0.4085,-0.2578,0.0018,-0.8755,2,-1.4,1.7,-0.014,-0.012,-0.008,1023
2018,5,11,13,31,4.533,0.4085,-0.2576,0.0015,-0.8756,2.9,-2.1,2.4,-0.023,-0.017,-0.011,1023
2018,5,11,13,31,4.553,0.4081,-0.2574,0.0009,-0.8758,3.8,-2.3,3.6,-0.031,-0.017,-0.01,0
2018,5,11,13,31,4.555,0.4078,-0.257,0.0002,-0.8761,3.4,-2.5,6.1,-0.029,-0.025,0.008,0
2018,5,11,13,31,4.571,0.4069,-0.2567,-0.0004,-0.8766,5.9,-2.8,8.5,-0.034,-0.088,0.024,0
2018,5,11,13,31,4.607,0.4062,-0.2561,-0.0012,-0.8771,10,-2.7,10.7,-0.047,-0.079,0.026,0
2018,5,11,13,31,4.626,0.405,-0.2556,-0.003,-0.8778,13.4,0,14.7,-0.043,-0.072,-0.003,0
2018,5,11,13,31,4.631,0.4034,-0.2555,-0.006,-0.8785,20.1,5.8,19.3,-0.021,-0.085,-0.073,0
2018,5,11,13,31,4.665,0.4014,-0.2559,-0.011,-0.8793,27,13.1,25.2,-0.033,-0.037,-0.038,0
2018,5,11,13,31,4.686,0.3984,-0.2571,-0.0171,-0.8802,28,18.3,31,-0.042,-0.092,-0.023,0
2018,5,11,13,31,4.695,0.3949,-0.2585,-0.0243,-0.8812,35.3,22.3,34.1,-0.046,-0.124,-0.012,0
2018,5,11,13,31,4.73,0.3914,-0.26,-0.0329,-0.882,42.5,23.9,37.2,-0.053,-0.12,0.013,0
2018,5,11,13,31,4.749,0.3878,-0.2607,-0.0427,-0.883,54.9,22.6,41.4,-0.083,-0.133,0.073,0
2018,5,11,13,31,4.751,0.3839,-0.2592,-0.0558,-0.8844,75.9,15.3,49.6,-0.261,-0.188,0.148,0
2018,5,11,13,31,4.788,0.3796,-0.2545,-0.0723,-0.8864,98.5,8.8,56.3,-0.348,-0.281,0.128,0
2018,5,11,13,31,4.807,0.3756,-0.2476,-0.0919,-0.8883,115.2,7.3,58.6,-0.4,-0.29,0.091,0
2018,5,11,13,31,4.811,0.3714,-0.2399,-0.1134,-0.8897,121.8,7.5,62.1,-0.404,-0.211,0.109,0
2018,5,11,13,31,4.849,0.366,-0.2315,-0.1348,-0.8911,109.7,-0.2,65.3,-0.633,-0.047,0.165,0
2018,5,11,13,31,4.871,0.3588,-0.2233,-0.1517,-0.8934,79.2,-6,71.3,-0.312,-0.018,-0.065,0
2018,5,11,13,31,4.874,0.3504,-0.2152,-0.168,-0.8958,98.2,0.4,80.3,-0.156,0,-0.16,0
2018,5,11,13,31,4.912,0.3418,-0.2054,-0.1903,-0.897,148.3,-0.7,83.7,-0.209,-0.082,0.018,0
2018,5,11,13,31,4.932,0.3343,-0.1924,-0.2187,-0.8962,170.9,-11.5,86.4,-0.144,0.079,0.032,0
2018,5,11,13,31,4.935,0.3256,-0.1768,-0.2446,-0.896,129.5,-33.5,96.3,-0.26,0.145,0.112,0
2018,5,11,13,31,4.968,0.315,-0.1603,-0.2631,-0.8976,99,-49.5,103.7,-0.248,0.099,0.004,0
2018,5,11,13,31,4.989,0.3028,-0.1416,-0.2768,-0.9008,83.4,-59.7,116.1,-0.431,0.063,0.082,0
2018,5,11,13,31,4.992,0.288,-0.1212,-0.292,-0.9038,112.9,-58.7,133.4,-0.702,-0.069,0.242,0
2018,5,11,13,31,5.027,0.2712,-0.0973,-0.3133,-0.9048,156.1,-66.2,150.1,-0.963,-0.346,0.4,0
2018,5,11,13,31,5.046,0.2519,-0.0698,-0.3377,-0.9041,151.3,-72.9,174.2,-1.114,-0.148,0.379,0
2018,5,11,13,31,5.053,0.2267,-0.0401,-0.3579,-0.9049,123.6,-82,218,-1.127,-0.193,0.261,0
2018,5,11,13,31,5.09,0.1943,-0.0062,-0.3749,-0.9064,120.8,-93.2,265.8,-1.238,-0.35,0.124,0
2018,5,11,13,31,5.11,0.1539,0.0333,-0.3903,-0.907,121.9,-109.4,323.9,-1.39,-0.448,0.068,0
2018,5,11,13,31,5.115,0.1051,0.079,-0.4038,-0.9053,125.3,-126.4,373.1,-1.699,-0.844,0.087,0
2018,5,11,13,31,5.154,0.0499,0.13,-0.4178,-0.8977,170.8,-134,412.3,-1.729,-1.281,0.047,0
2018,5,11,13,31,5.172,-0.0136,0.1834,-0.4356,-0.8811,204,-125.4,459.9,-1.786,-1.131,-0.023,0
2018,5,11,13,31,5.175,-0.0858,0.2381,-0.448,-0.8574,180.7,-119.7,517.5,-2.07,-1.106,-0.082,0
2018,5,11,13,31,5.211,-0.1675,0.293,-0.4551,-0.8239,233.9,-95.2,579.9,-2.419,-1.491,-0.277,0
2018,5,11,13,31,5.229,-0.2618,0.3422,-0.4595,-0.7765,265.1,-44.5,643.6,-2.785,-1.301,-0.422,0
2018,5,11,13,31,5.234,-0.3656,0.3829,-0.4529,-0.7173,267.3,17.3,697.7,-3.173,-1.395,-0.171,0
2018,5,11,13,31,5.27,-0.473,0.4145,-0.4286,-0.6485,249.6,82.2,747,-3.332,-1.674,-0.008,0
2018,5,11,13,31,5.289,-0.5836,0.4284,-0.3919,-0.5676,328.4,170.9,753.2,-3.543,-2.287,0.265,0
2018,5,11,13,31,5.296,-0.6899,0.4181,-0.3425,-0.4813,319.7,275.3,714.2,-3.759,-1.694,-0.056,0
2018,5,11,13,31,5.331,-0.7812,0.3925,-0.2744,-0.4002,279.5,382.5,663.1,-3.812,-1.345,-0.68,0
2018,5,11,13,31,5.351,-0.8554,0.3539,-0.1872,-0.3283,247.5,475.1,599.6,-3.715,-1.266,-0.017,0
2018,5,11,13,31,5.359,-0.912,0.3023,-0.0899,-0.262,255.4,510.3,561.9,-3.904,-0.642,0.76,0
2018,5,11,13,31,5.395,-0.9466,0.2562,0.0079,-0.1951,122.6,456.1,533.3,-4.555,-0.864,0.246,0
2018,5,11,13,31,5.396,-0.959,0.2304,0.0977,-0.1321,-2.7,395.3,440.9,-3.727,-1.054,0.384,0
2018,5,11,13,31,5.415,-0.9563,0.2198,0.1769,-0.0762,-58.9,355.5,415,-2.42,-0.387,0.1,0
2018,5,11,13,31,5.45,-0.9468,0.2133,0.2406,-0.0105,5.6,-253.6,485.3,-9.979,-15.586,15.178,0
2018,5,11,13,31,5.469,-0.9445,0.2919,0.1427,-0.0476,-379.3,-285.2,-893.3,8.005,13.238,-2.204,0
2018,5,11,13,31,5.476,-0.9419,0.3186,0.0974,-0.0417,-81.3,-137.1,-123.6,2.647,-2.896,1.206,1023
2018,5,11,13,31,5.51,-0.942,0.3266,0.0607,-0.0469,-12.8,-191.6,-39.7,0.96,-2.116,0.964,1023
2018,5,11,13,31,5.529,-0.9379,0.3413,0.0277,-0.0548,-99.6,-138.9,-133.8,-0.699,1.354,1.271,1023
2018,5,11,13,31,5.538,-0.9222,0.3804,-0.0005,-0.0691,-348.8,-136,-116.6,0.16,-0.257,0.178,1023
2018,5,11,13,31,5.572,-0.8987,0.4302,-0.0249,-0.0806,-250.3,-98.3,-155.3,-2.123,-1.849,0.407,1023
2018,5,11,13,31,5.592,-0.8827,0.4557,-0.0519,-0.1019,-94.5,-101.8,-177.3,-2.951,-0.229,1.295,1023
2018,5,11,13,31,5.598,-0.8619,0.4871,-0.0756,-0.1183,-327.4,-97.4,-112.2,-0.286,1.217,0.479,1023
2018,5,11,13,31,5.632,-0.8329,0.5309,-0.0923,-0.1258,-136,-70.2,-101.5,0.071,-2.283,0.65,1023
2018,5,11,13,31,5.653,-0.8355,0.5183,-0.1092,-0.1454,152.9,3.1,-177.1,-0.894,1.657,0.327,1023
2018,5,11,13,31,5.662,-0.8399,0.5033,-0.1261,-0.1587,53.4,-40.5,-54.6,-0.402,1.543,-0.4,1023
2018,5,11,13,31,5.678,-0.839,0.5033,-0.1348,-0.1562,-50.4,-58.1,-1.2,-0.71,0.415,-0.369,1023
2018,5,11,13,31,5.699,-0.8314,0.515,-0.1396,-0.1547,-73.8,-23.5,0.5,0.047,0.519,-0.774,1023
2018,5,11,13,31,5.735,-0.8243,0.5276,-0.1353,-0.1542,-104.8,21,36.7,0.21,0.721,-0.602,1023
2018,5,11,13,31,5.755,-0.8131,0.5483,-0.1223,-0.1519,-170.5,26.1,72.5,0.092,0.656,-0.123,1023
2018,5,11,13,31,5.76,-0.797,0.5764,-0.1067,-0.145,-206.2,5.3,98.1,0.123,0.391,0.037,1023
2018,5,11,13,31,5.796,-0.7773,0.6078,-0.0904,-0.134,-204.2,-6.8,114.7,0.106,0.165,-0.085,1023
2018,5,11,13,31,5.816,-0.7629,0.6311,-0.0742,-0.1184,-113.4,-2.1,138.6,-0.027,0.14,-0.139,1023
2018,5,11,13,31,5.82,-0.7553,0.6452,-0.0554,-0.1005,-85.6,12.8,149.9,-0.121,0.33,-0.163,1023
2018,5,11,13,31,5.856,-0.7437,0.6623,-0.0338,-0.0837,-174,20.3,153.8,-0.041,0.501,-0.15,1023
2018,5,11,13,31,5.878,-0.7152,0.6955,-0.0094,-0.067,-315.3,17.5,153.8,0.329,-1.563,0.089,1023
2018,5,11,13,31,5.884,-0.6954,0.7168,-0.0032,-0.0489,-54.8,-44.6,-47,0.76,-2.253,-0.392,1023
2018,5,11,13,31,5.92,-0.6897,0.7218,-0.0096,-0.055,-145.8,-33.7,-48,-0.2,1.234,0.479,1023
2018,5,11,13,31,5.942,-0.6594,0.7494,-0.02,-0.0551,-249.6,-54.1,-52.6,-0.211,0.059,0.091,1023
2018,5,11,13,31,5.943,-0.6308,0.7734,-0.0294,-0.0536,-169.1,-53.2,-27.8,0.002,0.305,0.051,0
2018,5,11,13,31,5.981,-0.6113,0.789,-0.035,-0.0488,-125.2,-45.9,3.9,0.062,0.373,-0.053,0
2018,5,11,13,31,6.001,-0.5935,0.8028,-0.0368,-0.0428,-127.2,-36.8,14.7,-0.001,0.253,0.01,0
2018,5,11,13,31,6.005,-0.5744,0.8169,-0.0372,-0.0363,-141.1,-39.8,13.6,-0.101,0.14,0.023,0
2018,5,11,13,31,6.024,-0.5456,0.8365,-0.0394,-0.0294,-248.9,-58.5,0.7,-0.007,-0.416,-0.352,0
2018,5,11,13,31,6.043,-0.5037,0.8621,-0.0481,-0.0236,-190.2,-46.6,-34.9,-0.032,0.055,-0.384,0
2018,5,11,13,31,6.082,-0.4826,0.8739,-0.0535,-0.0206,-106.5,-33.4,-9.8,0.014,0.1,-0.199,0
2018,5,11,13,31,6.103,-0.4709,0.8801,-0.0572,-0.0184,-41.5,-18.2,-14.1,0.06,0.104,-0.152,0
2018,5,11,13,31,6.107,-0.4695,0.8807,-0.0598,-0.0177,19.9,-5.7,-6.7,0.076,0.089,-0.128,0
2018,5,11,13,31,6.126,-0.473,0.8788,-0.0601,-0.0168,20.4,-2.4,6.3,-0.07,0.092,-0.133,0
2018,5,11,13,31,6.145,-0.4735,0.8787,-0.0584,-0.0155,2.5,4.1,12.4,-0.02,-0.048,-0.084,0
2018,5,11,13,31,6.184,-0.4743,0.8783,-0.0565,-0.0162,8.9,9.4,8,-0.008,0.021,0.012,0
2018,5,11,13,31,6.203,-0.4764,0.8773,-0.0545,-0.0167,19.3,10.8,6.8,0.002,0.023,0.001,0
2018,5,11,13,31,6.209,-0.48,0.8755,-0.0525,-0.0179,25.8,12.8,8.5,0.028,0.008,0.002,0
2018,5,11,13,31,6.222,-0.4836,0.8735,-0.0504,-0.0191,18.1,10.3,8.9,0.054,0.01,0.039,0
2018,5,11,13,31,6.262,-0.4856,0.8725,-0.0487,-0.0198,1.5,5,5.5,-0.031,0.009,0.071,0
2018,5,11,13,31,6.282,-0.485,0.8729,-0.0476,-0.0194,-12.1,1.1,1.6,-0.103,-0.014,0.045,0
2018,5,11,13,31,6.29,-0.4827,0.8742,-0.0473,-0.0191,-18.2,0.3,-1.1,0.001,0.003,0.015,0
2018,5,11,13,31,6.308,-0.4798,0.8758,-0.0474,-0.0195,-21.4,-0.3,-1.1,0.014,0.009,0.032,0
2018,5,11,13,31,6.326,-0.4762,0.8778,-0.0476,-0.0193,-27.4,-5.1,1.4,0.015,0.003,0.039,0
2018,5,11,13,31,6.362,-0.4717,0.8802,-0.0479,-0.0186,-27.6,-5.8,-0.6,0.039,-0.026,-0.004,0
2018,5,11,13,31,6.385,-0.4675,0.8824,-0.0484,-0.0179,-23.3,-4.3,-1.1,-0.011,0.011,-0.028,0
2018,5,11,13,31,6.389,-0.4647,0.8839,-0.0488,-0.0178,-9.1,-1.4,-1.7,0.001,0.001,-0.016,0
2018,5,11,13,31,6.406,-0.4639,0.8843,-0.0492,-0.0178,-1.5,-0.3,-2.7,0,0.003,-0.001,0
2018,5,11,13,31,6.442,-0.4638,0.8843,-0.0497,-0.0181,1.5,1.1,-3.2,0.002,0.001,-0.007,0
2018,5,11,13,31,6.464,-0.4643,0.884,-0.0499,-0.0187,5.3,3.3,-1.9,0.008,0.009,0.007,0
2018,5,11,13,31,6.468,-0.4652,0.8835,-0.0498,-0.0194,5.7,4.1,0.2,0.01,0.01,0.02,0
2018,5,11,13,31,6.487,-0.4659,0.8832,-0.0494,-0.02,1.4,2.5,1.7,0.005,0.005,0.037,0
2018,5,11,13,31,6.507,-0.4656,0.8833,-0.049,-0.02,-7,-0.7,1.5,-0.001,0,0.031,0
2018,5,11,13,31,6.529,-0.4642,0.8841,-0.049,-0.0198,-10,-0.8,-0.6,0,-0.002,0.001,0
2018,5,11,13,31,6.547,-0.4628,0.8848,-0.0493,-0.02,-6.8,0.1,-1.9,0.003,0.001,0.002,0
2018,5,11,13,31,6.567,-0.4619,0.8852,-0.0495,-0.0204,-3.8,0.9,-1.1,0.007,0.006,0.011,0
2018,5,11,13,31,6.587,-0.4613,0.8855,-0.0495,-0.0206,-5.7,0.6,0.3,0.006,0.007,0.027,0
2018,5,11,13,31,6.627,-0.4602,0.8861,-0.0494,-0.0207,-8.7,-0.1,0.3,0.002,0,0.013,0
2018,5,11,13,31,6.631,-0.4588,0.8868,-0.0494,-0.0208,-9,0.1,-1.1,0.001,0,0.012,0
2018,5,11,13,31,6.646,-0.4574,0.8875,-0.0496,-0.0211,-8.5,0,-1.8,0.005,0,0.01,0
2018,5,11,13,31,6.668,-0.4561,0.8882,-0.0498,-0.0213,-9,-0.3,-0.9,-0.003,-0.002,0.009,0
2018,5,11,13,31,6.689,-0.4547,0.8889,-0.05,-0.0214,-9.1,-0.8,-0.2,0.007,0.004,0.016,0
2018,5,11,13,31,6.706,-0.4532,0.8897,-0.0501,-0.0213,-10.7,-1.8,0.4,0.008,0.001,0.012,0
2018,5,11,13,31,6.744,-0.4515,0.8905,-0.0501,-0.0212,-9.6,-1.1,0.3,0.002,0.003,0.001,0
2018,5,11,13,31,6.771,-0.4502,0.8912,-0.0501,-0.0212,-7.1,-0.5,0,0.004,0.004,0.009,0
2018,5,11,13,31,6.785,-0.4491,0.8917,-0.0501,-0.0212,-6.4,-0.2,0.4,0.003,0.005,0.01,0
2018,5,11,13,31,6.787,-0.4481,0.8922,-0.05,-0.0212,-6.3,-0.4,1.1,0.007,0.003,0.012,0
2018,5,11,13,31,6.824,-0.4471,0.8928,-0.0499,-0.0212,-8,-0.2,0.5,0.002,0.002,0.017,1023
2018,5,11,13,31,6.844,-0.4457,0.8934,-0.0498,-0.0213,-9.1,-0.4,0.3,0.005,-0.001,0.012,1023
2018,5,11,13,31,6.846,-0.4443,0.8942,-0.0498,-0.0213,-9.6,-0.8,0.6,0.006,0.003,0.01,1023
2018,5,11,13,31,6.887,-0.4428,0.8949,-0.0497,-0.0212,-10.2,-1.2,0.7,0.002,0.004,0.014,1023
2018,5,11,13,31,6.892,-0.4412,0.8957,-0.0497,-0.0211,-10.1,-0.9,0.3,0.004,0.004,0.01,1023
2018,5,11,13,31,6.907,-0.4397,0.8964,-0.0498,-0.0211,-8.9,-0.9,0,0.006,0,0.012,1023
2018,5,11,13,31,6.942,-0.4384,0.8971,-0.0498,-0.0211,-6.9,-0.6,0.2,0.005,0.003,0.005,1023
2018,5,11,13,31,6.963,-0.4375,0.8975,-0.0498,-0.0211,-5.6,-0.6,0.4,0.008,0.002,0.013,1023
2018,5,11,13,31,6.97,-0.4366,0.8979,-0.0498,-0.0211,-5.1,-0.6,0.9,0.007,0.002,0.008,1023
2018,5,11,13,31,6.989,-0.4359,0.8983,-0.0497,-0.021,-4.3,-0.7,1.3,0.006,0.002,0.008,1023
2018,5,11,13,31,7.009,-0.4352,0.8986,-0.0495,-0.0209,-3.5,-0.4,0.9,0.004,0.003,0.008,1023
2018,5,11,13,31,7.045,-0.4347,0.8989,-0.0494,-0.0209,-2.9,-0.1,0.6,0.003,0.003,0.014,1023
2018,5,11,13,31,7.065,-0.4343,0.8991,-0.0494,-0.0209,-2,0,0.2,0.003,0.002,0.011,1023
2018,5,11,13,31,7.072,-0.4341,0.8992,-0.0493,-0.021,-0.5,0.1,0.3,0.007,0.002,0.007,1023
2018,5,11,13,31,7.092,-0.4341,0.8992,-0.0492,-0.021,0.5,0.5,0.7,0.005,0.001,0.009,1023
2018,5,11,13,31,7.113,-0.4343,0.8991,-0.0491,-0.0211,0.9,0.8,0.7,0.008,0.004,0.009,1023
2018,5,11,13,31,7.15,-0.4345,0.899,-0.0489,-0.0212,0.5,0.6,0.7,0.005,0,0.011,0
2018,5,11,13,31,7.154,-0.4346,0.899,-0.0488,-0.0213,0,0,0,0.006,0.001,0.016,0
2018,5,11,13,31,7.17,-0.4345,0.899,-0.0488,-0.0214,-0.8,0.1,0.2,0.007,0.002,0.015,0
2018,5,11,13,31,7.191,-0.4344,0.8991,-0.0488,-0.0214,-0.5,0,0.7,0.007,0.002,0.006,0
2018,5,11,13,31,7.211,-0.4344,0.8991,-0.0487,-0.0215,0,0.2,0.8,0.009,0.004,0.011,0
2018,5,11,13,31,7.249,-0.4345,0.899,-0.0486,-0.0215,0.7,0.3,0.9,0.005,0,0.007,0
2018,5,11,13,31,7.27,-0.4347,0.8989,-0.0484,-0.0216,1.4,0.6,0.5,0.005,0,0.004,0
2018,5,11,13,31,7.274,-0.435,0.8988,-0.0483,-0.0217,1.8,0.8,0.2,0.007,0.002,0.012,0
2018,5,11,13,31,7.312,-0.4353,0.8987,-0.0483,-0.0219,1.2,0.6,0.7,0.013,0.008,0.016,0
2018,5,11,13,31,7.331,-0.4354,0.8986,-0.0481,-0.022,0,0.1,1.3,0.01,0.002,0.018,0
2018,5,11,13,31,7.336,-0.4354,0.8986,-0.0479,-0.0219,-1.1,0,1.1,0.004,0.003,0.012,0
2018,5,11,13,31,7.355,-0.4353,0.8987,-0.0478,-0.022,-1.3,0,0.5,0.006,0,0.011,0
2018,5,11,13,31,7.376,-0.4351,0.8988,-0.0477,-0.022,-1.4,0,0.6,0.006,0,0.011,0
2018,5,11,13,31,7.392,-0.435,0.8988,-0.0476,-0.022,-1.3,-0.1,1.1,0.005,0.001,0.017,0
2018,5,11,13,31,7.41,-0.4348,0.8989,-0.0475,-0.022,-1.1,-0.1,1,0.008,0.004,0.015,0
2018,5,11,13,31,7.429,-0.4347,0.899,-0.0473,-0.022,-0.8,-0.1,1,0.008,0,0.006,0
2018,5,11,13,31,7.471,-0.4346,0.899,-0.0472,-0.022,-0.4,0,0.9,0.007,0,0.011,0
2018,5,11,13,31,7.491,-0.4345,0.8991,-0.0471,-0.022,-0.6,0,0.7,0.008,-0.001,0.008,0
2018,5,11,13,31,7.495,-0.4345,0.8991,-0.047,-0.022,-1,0,0.7,0.008,0.004,0.015,0
2018,5,11,13,31,7.514,-0.4343,0.8992,-0.0469,-0.022,-1.4,0.1,0.8,0.007,0.002,0.01,0
2018,5,11,13,31,7.535,-0.4342,0.8993,-0.0467,-0.022,-1.3,0,1.3,0.009,0.002,0.011,0
2018,5,11,13,31,7.556,-0.4341,0.8993,-0.0466,-0.022,-0.8,0.1,1,0.009,0.002,0.011,0
2018,5,11,13,31,7.575,-0.434,0.8994,-0.0465,-0.0221,-0.6,0.3,0.8,0.007,0.001,0.012,0
2018,5,11,13,31,7.592,-0.434,0.8994,-0.0464,-0.0221,-0.7,0.3,0.8,0.008,0.001,0.016,0
2018,5,11,13,31,7.61,-0.4339,0.8994,-0.0462,-0.0222,-0.6,0.1,0.7,0.007,0.001,0.011,0
2018,5,11,13,31,7.651,-0.4338,0.8995,-0.0461,-0.0222,-0.8,0,0.8,0.009,0.002,0.01,0
2018,5,11,13,31,7.67,-0.4337,0.8995,-0.046,-0.0223,-1,0.1,0.8,0.01,0.001,0.007,0
2018,5,11,13,31,7.674,-0.4336,0.8996,-0.0459,-0.0223,-0.5,0,0.9,0.007,0.002,0.007,0
2018,5,11,13,31,7.696,-0.4336,0.8996,-0.0458,-0.0224,-0.1,0.1,1.1,0.007,0.003,0.013,0
2018,5,11,13,31,7.716,-0.4336,0.8996,-0.0457,-0.0224,-0.6,0.1,0.7,0.007,-0.001,0.012,0
2018,5,11,13,31,7.755,-0.4335,0.8996,-0.0455,-0.0224,-0.9,0.1,0.8,0.008,0.002,0.012,0
2018,5,11,13,31,7.773,-0.4334,0.8997,-0.0454,-0.0224,-1.2,0,1,0.008,0.001,0.016,0
2018,5,11,13,31,7.778,-0.4333,0.8998,-0.0453,-0.0224,-1.1,0,0.8,0.007,0.002,0.01,0
2018,5,11,13,31,7.794,-0.4331,0.8998,-0.0452,-0.0225,-0.8,0,0.8,0.009,0.002,0.007,0
2018,5,11,13,31,7.814,-0.4331,0.8999,-0.0451,-0.0225,-0.4,0.1,1,0.008,0.003,0.013,0
2018,5,11,13,31,7.85,-0.4331,0.8999,-0.0449,-0.0226,-0.4,0,0.9,0.007,0.002,0.014,0
2018,5,11,13,31,7.871,-0.433,0.8999,-0.0448,-0.0226,-0.6,0,0.7,0.008,0.001,0.013,0
2018,5,11,13,31,7.876,-0.433,0.8999,-0.0447,-0.0227,-0.9,0.2,0.7,0.01,0.002,0.015,0
2018,5,11,13,31,7.895,-0.4329,0.9,-0.0446,-0.0227,-1,0.1,0.9,0.009,0.002,0.013,0
2018,5,11,13,31,7.93,-0.4328,0.9,-0.0445,-0.0228,-0.6,0.1,0.8,0.01,0,0.007,0
2018,5,11,13,31,7.95,-0.4328,0.9,-0.0444,-0.0228,-0.2,0.1,0.8,0.007,0,0.003,1023
2018,5,11,13,31,7.956,-0.4328,0.9,-0.0442,-0.0229,-0.3,0.5,0.8,0.008,0.003,0.008,1023
2018,5,11,13,31,7.995,-0.4329,0.9,-0.0441,-0.0229,-0.3,0.2,1,0.009,0.003,0.009,1023
2018,5,11,13,31,8.017,-0.4329,0.9,-0.044,-0.023,-0.6,0.1,0.8,0.008,0,0.011,1023
2018,5,11,13,31,8.021,-0.4328,0.9,-0.0439,-0.023,-0.6,0.2,0.5,0.01,0.003,0.008,1023
2018,5,11,13,31,8.04,-0.4328,0.9001,-0.0438,-0.0231,-0.6,0,0.8,0.008,0.001,0.012,1023
2018,5,11,13,31,8.06,-0.4328,0.9001,-0.0436,-0.0231,-0.3,0.1,0.9,0.009,0.001,0.013,1023
2018,5,11,13,31,8.075,-0.4328,0.9001,-0.0435,-0.0232,-0.2,0.2,0.8,0.009,0.001,0.009,1023
2018,5,11,13,31,8.097,-0.4328,0.9001,-0.0434,-0.0233,-0.2,0.1,0.7,0.007,0.001,0.009,1023
2018,5,11,13,31,8.117,-0.4328,0.9,-0.0433,-0.0233,-0.2,0.1,0.8,0.008,0.002,0.01,1023
2018,5,11,13,31,8.155,-0.4329,0.9,-0.0432,-0.0234,-0.1,0.1,0.9,0.009,0.002,0.013,1023
2018,5,11,13,31,8.176,-0.4329,0.9,-0.043,-0.0234,-0.2,0.3,1,0.006,0.003,0.01,1023
2018,5,11,13,31,8.18,-0.4329,0.9,-0.0429,-0.0235,-0.4,0.3,0.8,0.009,0,0.01,1023
2018,5,11,13,31,8.199,-0.4329,0.9,-0.0428,-0.0236,-0.5,0.3,0.7,0.009,0.002,0.012,1023
2018,5,11,13,31,8.22,-0.4329,0.9001,-0.0427,-0.0236,-0.5,0.1,0.8,0.008,0.001,0.009,0
2018,5,11,13,31,8.239,-0.4329,0.9001,-0.0426,-0.0237,-0.4,0,1.1,0.011,0.003,0.014,0
2018,5,11,13,31,8.261,-0.4329,0.9001,-0.0424,-0.0237,-0.2,0.1,1.1,0.008,0.001,0.01,0
2018,5,11,13,31,8.281,-0.4329,0.9,-0.0423,-0.0237,-0.2,0.4,0.8,0.008,0,0.011,0
2018,5,11,13,31,8.302,-0.4329,0.9,-0.0422,-0.0238,-0.4,0,0.7,0.007,0.003,0.011,0
2018,5,11,13,31,8.322,-0.4329,0.9001,-0.0421,-0.0239,-0.4,0,0.8,0.009,0.004,0.01,0
2018,5,11,13,31,8.338,-0.4329,0.9001,-0.0419,-0.0239,-0.5,0,1,0.007,0.001,0.01,0
2018,5,11,13,31,8.376,-0.4329,0.9001,-0.0418,-0.0239,-0.4,0.1,0.8,0.01,0,0.012,0
2018,5,11,13,31,8.396,-0.4329,0.9001,-0.0417,-0.024,-0.4,0,0.9,0.009,0.002,0.009,0
2018,5,11,13,31,8.4,-0.4329,0.9001,-0.0416,-0.024,-0.3,0.1,1.1,0.008,0.003,0.007,0
2018,5,11,13,31,8.421,-0.4329,0.9001,-0.0414,-0.024,-0.3,0.1,0.8,0.005,0.002,0.01,0
2018,5,11,13,31,8.441,-0.4329,0.9001,-0.0413,-0.0241,-0.3,0.2,0.7,0.008,0,0.012,0
2018,5,11,13,31,8.48,-0.4329,0.9001,-0.0412,-0.0242,0,0.3,0.6,0.011,0.001,0.008,0
2018,5,11,13,31,8.5,-0.433,0.9,-0.0411,-0.0243,0.1,0.3,0.8,0.008,0.001,0.011,0
2018,5,11,13,31,8.505,-0.4331,0.9,-0.041,-0.0243,-0.2,0.3,0.9,0.013,0.001,0.012,0
2018,5,11,13,31,8.523,-0.4331,0.9,-0.0408,-0.0244,-0.3,0.1,0.9,0.008,0.002,0.011,0
2018,5,11,13,31,8.536,-0.4331,0.9,-0.0407,-0.0245,-0.5,0.1,0.8,0.009,0.003,0.012,0
2018,5,11,13,31,8.577,-0.4331,0.9,-0.0406,-0.0245,-0.3,0.2,0.5,0.008,0,0.015,0
2018,5,11,13,31,8.596,-0.4331,0.9,-0.0405,-0.0246,-0.4,0,0.8,0.006,0.005,0.009,0
2018,5,11,13,31,8.601,-0.4331,0.9,-0.0403,-0.0246,-0.4,0.1,1,0.007,-0.001,0.015,0
2018,5,11,13,31,8.62,-0.4331,0.9,-0.0402,-0.0246,-0.7,-0.1,1,0.008,0,0.01,0
2018,5,11,13,31,8.64,-0.4331,0.9,-0.0401,-0.0247,-0.4,0.1,1,0.009,0.001,0.012,0
2018,5,11,13,31,8.677,-0.4331,0.9001,-0.04,-0.0247,-0.4,0,0.8,0.01,0.002,0.007,0
2018,5,11,13,31,8.698,-0.4331,0.9001,-0.0399,-0.0248,-0.4,0.2,0.8,0.007,0,0.013,0
2018,5,11,13,31,8.702,-0.4331,0.9001,-0.0398,-0.0248,-0.5,0.2,0.9,0.009,0,0.015,0
2018,5,11,13,31,8.723,-0.4331,0.9001,-0.0396,-0.0248,-0.6,0,0.9,0.007,0.001,0.017,0
2018,5,11,13,31,8.739,-0.433,0.9001,-0.0395,-0.0249,-0.7,0.1,0.7,0.008,0,0.012,0
2018,5,11,13,31,8.76,-0.433,0.9001,-0.0394,-0.0249,-0.7,0.2,0.9,0.008,0.004,0.014,0
2018,5,11,13,31,8.779,-0.4329,0.9001,-0.0392,-0.0249,-0.6,0.1,1,0.007,0,0.012,0
2018,5,11,13,31,8.818,-0.4329,0.9002,-0.0391,-0.025,-0.4,0.2,0.8,0.011,0.002,0.011,0
2018,5,11,13,31,8.84,-0.4329,0.9002,-0.039,-0.0251,-0.5,0.1,0.8,0.009,0,0.013,0
2018,5,11,13,31,8.844,-0.4329,0.9002,-0.0389,-0.0251,-0.4,0.2,0.7,0.007,0.005,0.01,0
2018,5,11,13,31,8.862,-0.433,0.9002,-0.0388,-0.0252,-0.4,0.1,1,0.009,0,0.01,0
2018,5,11,13,31,8.881,-0.4329,0.9002,-0.0386,-0.0252,-0.4,0.2,0.8,0.009,0.003,0.01,0
2018,5,11,13,31,8.902,-0.4329,0.9002,-0.0385,-0.0253,-0.4,0.3,0.8,0.01,0.001,0.01,0
2018,5,11,13,31,8.922,-0.4329,0.9002,-0.0384,-0.0253,-0.7,0,0.8,0.01,0.002,0.015,0
2018,5,11,13,31,8.944,-0.4329,0.9002,-0.0383,-0.0254,-0.6,0,0.8,0.008,0,0.013,0
2018,5,11,13,31,8.959,-0.4329,0.9002,-0.0382,-0.0254,-0.6,0.1,1,0.009,0.001,0.014,0
2018,5,11,13,31,8.998,-0.4329,0.9002,-0.0381,-0.0255,-0.4,0.2,0.7,0.009,0.001,0.013,1023
2018,5,11,13,31,9.017,-0.4329,0.9002,-0.0379,-0.0256,-0.1,0.2,0.9,0.009,0,0.009,1023
2018,5,11,13,31,9.022,-0.4329,0.9002,-0.0378,-0.0256,-0.3,0.2,1,0.009,0.001,0.012,1023
2018,5,11,13,31,9.061,-0.4329,0.9002,-0.0377,-0.0257,-0.4,0.1,0.8,0.007,0,0.008,1023
2018,5,11,13,31,9.08,-0.4329,0.9002,-0.0376,-0.0257,-0.7,0.1,0.7,0.008,0.003,0.011,1023
2018,5,11,13,31,9.084,-0.4329,0.9002,-0.0375,-0.0258,-0.7,0.1,0.7,0.007,0.003,0.01,1023
2018,5,11,13,31,9.121,-0.4328,0.9002,-0.0374,-0.0258,-0.3,0.2,0.7,0.009,0,0.01,1023
2018,5,11,13,31,9.143,-0.4328,0.9002,-0.0373,-0.0259,-0.1,0.3,0.8,0.007,0,0.007,1023
2018,5,11,13,31,9.147,-0.4329,0.9002,-0.0371,-0.026,0,0.2,1,0.01,0.002,0.011,1023
2018,5,11,13,31,9.166,-0.433,0.9002,-0.037,-0.026,-0.1,0.2,0.8,0.009,0.003,0.016,1023
2018,5,11,13,31,9.187,-0.433,0.9002,-0.0369,-0.0261,-0.4,0.1,0.8,0.008,0.001,0.014,1023
2018,5,11,13,31,9.206,-0.433,0.9002,-0.0368,-0.0261,-0.7,0.1,0.8,0.008,0.001,0.013,1023
2018,5,11,13,31,9.241,-0.4329,0.9002,-0.0366,-0.0262,-0.9,0,0.8,0.008,0,0.013,1023
2018,5,11,13,31,9.262,-0.4329,0.9003,-0.0365,-0.0262,-0.9,0,0.7,0.009,0,0.014,0
2018,5,11,13,31,9.267,-0.4328,0.9003,-0.0365,-0.0262,-0.6,0.3,0.8,0.01,0.002,0.012,0
2018,5,11,13,31,9.285,-0.4328,0.9003,-0.0363,-0.0263,-0.2,0.1,0.8,0.01,0.002,0.009,0
2018,5,11,13,31,9.305,-0.4328,0.9003,-0.0362,-0.0264,-0.4,0.3,0.8,0.009,0.002,0.015,0
2018,5,11,13,31,9.325,-0.4328,0.9003,-0.0361,-0.0264,-0.6,0.1,0.8,0.008,0.001,0.016,0
2018,5,11,13,31,9.364,-0.4328,0.9003,-0.0359,-0.0265,-0.7,0.1,0.8,0.008,0,0.015,0
2018,5,11,13,31,9.384,-0.4328,0.9003,-0.0358,-0.0265,-0.6,0.1,1,0.01,0,0.01,0
2018,5,11,13,31,9.388,-0.4328,0.9003,-0.0357,-0.0266,-0.8,0,0.8,0.009,0,0.016,0
2018,5,11,13,31,9.409,-0.4328,0.9003,-0.0356,-0.0266,-0.4,0.1,0.8,0.012,0.001,0.013,0
2018,5,11,13,31,9.429,-0.4328,0.9003,-0.0355,-0.0267,-0.2,0.2,0.8,0.012,0.003,0.007,0
2018,5,11,13,31,9.447,-0.4328,0.9003,-0.0354,-0.0268,-0.1,0.4,1,0.009,0.004,0.015,0
2018,5,11,13,31,9.465,-0.4329,0.9003,-0.0353,-0.0268,-0.2,0.1,1,0.009,0.003,0.017,0
2018,5,11,13,31,9.485,-0.4329,0.9003,-0.0351,-0.0269,-0.6,0.1,0.9,0.01,0.003,0.014,0
2018,5,11,13,31,9.523,-0.4329,0.9003,-0.035,-0.0269,-0.7,0,1.1,0.009,0.003,0.011,0
2018,5,11,13,31,9.545,-0.4328,0.9003,-0.0349,-0.027,-0.7,0.2,1.1,0.006,0.003,0.01,0
2018,5,11,13,31,9.55,-0.4328,0.9003,-0.0348,-0.027,-0.4,0.3,0.8,0.009,0,0.01,0
2018,5,11,13,31,9.568,-0.4328,0.9003,-0.0347,-0.0271,-0.1,0.1,0.8,0.013,0,0.01,0
2018,5,11,13,31,9.587,-0.4329,0.9003,-0.0346,-0.0272,0.1,0.4,0.8,0.01,0,0.012,0
2018,5,11,13,31,9.609,-0.433,0.9002,-0.0344,-0.0273,0.2,0.3,0.9,0.009,0.001,0.016,0
2018,5,11,13,31,9.627,-0.4331,0.9002,-0.0343,-0.0274,-0.4,0.4,0.9,0.01,0,0.012,0
2018,5,11,13,31,9.667,-0.4331,0.9002,-0.0342,-0.0274,-0.7,0.1,1,0.011,0.002,0.012,0
2018,5,11,13,31,9.687,-0.4331,0.9002,-0.0341,-0.0275,-0.6,0.1,0.7,0.007,0,0.01,0
2018,5,11,13,31,9.691,-0.433,0.9002,-0.034,-0.0276,-0.5,0.3,0.8,0.008,0.001,0.01,0
2018,5,11,13,31,9.705,-0.433,0.9002,-0.0339,-0.0276,-0.2,0.1,0.8,0.009,0,0.012,0
2018,5,11,13,31,9.744,-0.4331,0.9002,-0.0338,-0.0277,-0.2,0,0.8,0.01,0.001,0.014,0
2018,5,11,13,31,9.765,-0.4331,0.9002,-0.0336,-0.0278,-0.6,0,0.9,0.008,0.002,0.011,0
2018,5,11,13,31,9.77,-0.433,0.9003,-0.0335,-0.0278,-0.9,0,0.8,0.007,0.001,0.01,0
2018,5,11,13,31,9.788,-0.4329,0.9003,-0.0334,-0.0278,-1,0,0.8,0.01,0.002,0.011,0
2018,5,11,13,31,9.826,-0.4329,0.9003,-0.0333,-0.0279,-0.7,0.1,0.7,0.009,0.001,0.013,0
2018,5,11,13,31,9.846,-0.4328,0.9004,-0.0332,-0.0279,-0.7,0,0.9,0.009,0.001,0.013,0
2018,5,11,13,31,9.851,-0.4328,0.9004,-0.0331,-0.028,-0.6,0.2,0.8,0.007,0.003,0.016,0
2018,5,11,13,31,9.871,-0.4328,0.9004,-0.033,-0.028,-0.9,0,0.8,0.01,0.003,0.016,0
2018,5,11,13,31,9.89,-0.4327,0.9004,-0.0329,-0.028,-0.9,0.1,0.8,0.01,0,0.012,0
2018,5,11,13,31,9.906,-0.4326,0.9005,-0.0327,-0.0281,-0.7,0.2,0.8,0.007,0.003,0.015,0
2018,5,11,13,31,9.926,-0.4326,0.9005,-0.0326,-0.0281,-0.7,0.2,0.8,0.007,0.001,0.012,0
2018,5,11,13,31,9.95,-0.4325,0.9005,-0.0325,-0.0282,-0.9,0.2,0.9,0.009,0.003,0.01,0
2018,5,11,13,31,9.967,-0.4325,0.9005,-0.0324,-0.0282,-0.6,0.1,0.8,0.009,0.002,0.01,0
2018,5,11,13,31,9.989,-0.4325,0.9005,-0.0323,-0.0283,-0.6,0.3,0.8,0.007,0.003,0.014,0
2018,5,11,13,31,10.007,-0.4325,0.9005,-0.0322,-0.0283,-0.5,0.1,0.8,0.009,0.001,0.014,0
2018,5,11,13,31,10.047,-0.4325,0.9005,-0.0321,-0.0284,-0.5,0.3,0.9,0.007,0.003,0.012,0
2018,5,11,13,31,10.067,-0.4325,0.9005,-0.0319,-0.0285,-0.4,0.1,0.8,0.011,0.002,0.018,1023
2018,5,11,13,31,10.071,-0.4325,0.9005,-0.0318,-0.0285,-0.6,0.1,0.8,0.006,0,0.01,1023
2018,5,11,13,31,10.109,-0.4324,0.9006,-0.0317,-0.0286,-0.6,0,0.8,0.009,0.003,0.011,1023
2018,5,11,13,31,10.13,-0.4324,0.9006,-0.0316,-0.0286,-0.7,0.1,0.7,0.009,0.001,0.011,1023
2018,5,11,13,31,10.135,-0.4323,0.9006,-0.0315,-0.0287,-0.8,0.1,1,0.009,0.004,0.012,1023
2018,5,11,13,31,10.149,-0.4323,0.9007,-0.0314,-0.0287,-0.7,0,0.8,0.01,0,0.014,1023
2018,5,11,13,31,10.168,-0.4322,0.9007,-0.0313,-0.0288,-0.6,0,0.8,0.005,0,0.01,1023
2018,5,11,13,31,10.191,-0.4322,0.9007,-0.0312,-0.0288,-0.8,0,0.8,0.007,0,0.012,1023
2018,5,11,13,31,10.209,-0.4322,0.9007,-0.0311,-0.0289,-0.7,0.1,0.8,0.012,0.001,0.011,1023
2018,5,11,13,31,10.246,-0.4321,0.9007,-0.0309,-0.029,-0.7,0,0.8,0.01,0,0.014,1023
2018,5,11,13,31,10.267,-0.4321,0.9008,-0.0308,-0.029,-0.7,0,0.9,0.009,0.002,0.014,1023
2018,5,11,13,31,10.271,-0.432,0.9008,-0.0307,-0.0291,-0.9,0.1,0.8,0.01,0.002,0.014,1023
2018,5,11,13,31,10.291,-0.432,0.9008,-0.0306,-0.0291,-0.7,0.1,0.9,0.007,0.002,0.011,1023
2018,5,11,13,31,10.312,-0.4319,0.9008,-0.0305,-0.0291,-0.8,0,0.9,0.007,0.001,0.012,1023
2018,5,11,13,31,10.351,-0.4319,0.9009,-0.0304,-0.0292,-0.7,0.1,0.8,0.007,0.003,0.014,0
2018,5,11,13,31,10.356,-0.4318,0.9009,-0.0303,-0.0292,-0.6,0.1,0.9,0.01,0.003,0.009,0
2018,5,11,13,31,10.372,-0.4318,0.9009,-0.0302,-0.0293,-0.6,0.1,0.9,0.009,0.001,0.008,0
2018,5,11,13,31,10.412,-0.4318,0.9009,-0.03,-0.0293,-0.4,0,0.8,0.007,0.004,0.015,0
2018,5,11,13,31,10.416,-0.4318,0.9009,-0.0299,-0.0294,-0.7,0.1,1,0.009,0.001,0.008,0
2018,5,11,13,31,10.431,-0.4318,0.9009,-0.0298,-0.0294,-0.6,0.1,0.7,0.01,0,0.015,0
2018,5,11,13,31,10.45,-0.4317,0.9009,-0.0297,-0.0295,-0.6,0.3,0.9,0.009,0.002,0.014,0
2018,5,11,13,31,10.472,-0.4317,0.9009,-0.0296,-0.0296,-0.4,0.1,0.9,0.01,0.001,0.012,0
2018,5,11,13,31,10.492,-0.4317,0.901,-0.0295,-0.0296,-0.7,0,1,0.01,0,0.015,0
2018,5,11,13,31,10.512,-0.4317,0.901,-0.0293,-0.0296,-0.8,0,0.8,0.009,0.003,0.013,0
2018,5,11,13,31,10.552,-0.4317,0.901,-0.0292,-0.0297,-0.6,0,1,0.01,0,0.01,0
2018,5,11,13,31,10.571,-0.4316,0.901,-0.0291,-0.0297,-0.8,0,1,0.007,0.001,0.017,0
2018,5,11,13,31,10.576,-0.4316,0.901,-0.0289,-0.0297,-0.7,0,0.9,0.011,-0.001,0.011,0
2018,5,11,13,31,10.596,-0.4316,0.901,-0.0288,-0.0298,-0.5,0.1,0.7,0.01,0.006,0.01,0
2018,5,11,13,31,10.615,-0.4316,0.901,-0.0287,-0.0298,-0.2,0.2,0.7,0.007,0.002,0.014,0
2018,5,11,13,31,10.636,-0.4317,0.901,-0.0286,-0.0299,0.1,0.4,0.9,0.009,0.002,0.014,0
2018,5,11,13,31,10.653,-0.4318,0.9009,-0.0285,-0.03,0,0.4,0.9,0.011,0.001,0.013,0
2018,5,11,13,31,10.674,-0.4319,0.9009,-0.0283,-0.0301,-0.1,0.3,1,0.008,-0.001,0.01,0
2018,5,11,13,31,10.693,-0.4319,0.9009,-0.0282,-0.0302,-0.2,0.1,1,0.009,0.003,0.015,0
2018,5,11,13,31,10.714,-0.4319,0.9009,-0.0281,-0.0302,-0.5,0.1,0.9,0.009,0,0.015,0
2018,5,11,13,31,10.733,-0.4319,0.9009,-0.0279,-0.0303,-0.6,0,0.8,0.01,0.002,0.012,0
2018,5,11,13,31,10.774,-0.4319,0.9009,-0.0278,-0.0303,-0.5,0.1,1,0.007,0,0.01,0
2018,5,11,13,31,10.778,-0.4319,0.9009,-0.0277,-0.0303,-0.5,0.3,1,0.009,0.001,0.011,0
2018,5,11,13,31,10.794,-0.4319,0.9009,-0.0276,-0.0304,-0.6,0.1,1,0.009,0.001,0.012,0
2018,5,11,13,31,10.832,-0.4319,0.9009,-0.0274,-0.0304,-0.5,0,0.8,0.006,0.002,0.014,0
2018,5,11,13,31,10.852,-0.4318,0.9009,-0.0273,-0.0305,-0.7,0,0.8,0.008,0.002,0.011,0
2018,5,11,13,31,10.856,-0.4318,0.901,-0.0272,-0.0305,-0.8,0,1.2,0.01,0.002,0.012,0
2018,5,11,13,31,10.872,-0.4318,0.901,-0.0271,-0.0305,-0.6,0,1,0.009,0.002,0.013,0
2018,5,11,13,31,10.909,-0.4317,0.901,-0.0269,-0.0305,-0.7,0.1,0.8,0.005,0.003,0.011,0
2018,5,11,13,31,10.93,-0.4317,0.901,-0.0268,-0.0306,-0.7,0.1,0.9,0.011,0.001,0.012,0
2018,5,11,13,31,10.934,-0.4317,0.901,-0.0267,-0.0306,-0.2,0.1,0.8,0.008,0.001,0.012,0
2018,5,11,13,31,10.955,-0.4317,0.901,-0.0266,-0.0307,-0.6,0.3,0.9,0.009,0,0.01,0
2018,5,11,13,31,10.976,-0.4317,0.901,-0.0265,-0.0308,-0.4,0,1,0.011,0.004,0.01,0
2018,5,11,13,31,10.996,-0.4317,0.901,-0.0263,-0.0308,-0.2,0.1,0.9,0.009,0,0.011,0
2018,5,11,13,31,11.015,-0.4318,0.901,-0.0262,-0.0309,-0.1,0.3,1,0.007,0.004,0.013,0
2018,5,11,13,31,11.054,-0.4319,0.901,-0.0261,-0.031,-0.2,0.1,1,0.007,0.005,0.014,0
2018,5,11,13,31,11.058,-0.4319,0.9009,-0.026,-0.031,-0.3,0.1,0.8,0.009,0,0.011,0
2018,5,11,13,31,11.076,-0.4319,0.9009,-0.0259,-0.0311,-0.5,0.2,0.9,0.009,0.006,0.016,0
2018,5,11,13,31,11.095,-0.4319,0.9009,-0.0258,-0.0311,-0.6,0,0.8,0.008,0.001,0.019,1023
2018,5,11,13,31,11.114,-0.4318,0.901,-0.0256,-0.0312,-0.6,0.1,0.9,0.008,0.004,0.011,1023
2018,5,11,13,31,11.154,-0.4318,0.901,-0.0255,-0.0312,-0.4,0.1,0.8,0.01,0.001,0.009,1023
2018,5,11,13,31,11.174,-0.4319,0.901,-0.0254,-0.0313,-0.1,0.1,0.8,0.009,0,0.015,1023
2018,5,11,13,31,11.178,-0.4319,0.9009,-0.0252,-0.0314,-0.2,0.2,1,0.008,0,0.012,1023
2018,5,11,13,31,11.198,-0.432,0.9009,-0.0251,-0.0314,-0.1,0.2,0.8,0.007,0,0.008,1023
2018,5,11,13,31,11.217,-0.432,0.9009,-0.025,-0.0315,-0.2,0.3,0.9,0.01,0,0.013,1023
2018,5,11,13,31,11.257,-0.432,0.9009,-0.0249,-0.0315,-0.3,0,0.8,0.01,0.003,0.011,1023
2018,5,11,13,31,11.276,-0.432,0.9009,-0.0247,-0.0316,-0.1,0.1,0.8,0.008,0.001,0.01,1023
2018,5,11,13,31,11.281,-0.4321,0.9009,-0.0246,-0.0316,-0.2,0.3,0.9,0.009,0.002,0.011,1023
2018,5,11,13,31,11.3,-0.4321,0.9009,-0.0245,-0.0317,-0.3,0.1,1,0.01,0.002,0.016,1023
2018,5,11,13,31,11.32,-0.4321,0.9009,-0.0244,-0.0317,-0.9,0.2,1,0.01,0.001,0.017,1023
2018,5,11,13,31,11.357,-0.4321,0.9009,-0.0242,-0.0318,-0.7,0.1,1,0.01,0.001,0.014,1023
2018,5,11,13,31,11.376,-0.432,0.9009,-0.0241,-0.0318,-0.7,0.1,0.9,0.011,0.001,0.01,1023
2018,5,11,13,31,11.381,-0.432,0.9009,-0.024,-0.0319,-0.4,0.2,0.8,0.009,0,0.012,0
2018,5,11,13,31,11.397,-0.432,0.9009,-0.0239,-0.0319,-0.5,0.1,0.8,0.009,0.001,0.01,0
2018,5,11,13,31,11.437,-0.432,0.9009,-0.0237,-0.032,-0.7,0.1,1,0.01,0.002,0.017,0
2018,5,11,13,31,11.457,-0.432,0.9009,-0.0236,-0.032,-0.7,0,1,0.01,0,0.01,0
2018,5,11,13,31,11.461,-0.432,0.9009,-0.0235,-0.0321,-0.4,0.1,1,0.01,0,0.018,0
2018,5,11,13,31,11.48,-0.4319,0.901,-0.0234,-0.0321,-0.4,0.1,0.8,0.011,0,0.013,0
2018,5,11,13,31,11.499,-0.432,0.9009,-0.0232,-0.0322,-0.4,0.3,0.8,0.01,0.001,0.015,0
2018,5,11,13,31,11.52,-0.432,0.9009,-0.0231,-0.0322,-0.1,0.3,0.8,0.009,0,0.015,0
2018,5,11,13,31,11.54,-0.432,0.9009,-0.023,-0.0323,0,0.3,0.8,0.006,0,0.011,0
2018,5,11,13,31,11.577,-0.4321,0.9009,-0.0229,-0.0324,-0.1,0.1,0.8,0.012,0.001,0.013,0
2018,5,11,13,31,11.581,-0.4321,0.9009,-0.0228,-0.0324,-0.1,0.1,1,0.007,0.003,0.013,0
2018,5,11,13,31,11.597,-0.4322,0.9008,-0.0227,-0.0324,-0.4,0.1,0.8,0.008,0.002,0.011,0
2018,5,11,13,31,11.634,-0.4322,0.9008,-0.0225,-0.0325,-0.3,0.1,0.8,0.009,0.003,0.012,0
2018,5,11,13,31,11.655,-0.4322,0.9008,-0.0224,-0.0325,-0.8,0,1.1,0.008,0.001,0.012,0
2018,5,11,13,31,11.659,-0.4322,0.9009,-0.0223,-0.0326,-0.4,0,0.9,0.008,0.002,0.008,0
2018,5,11,13,31,11.698,-0.4322,0.9009,-0.0221,-0.0326,-0.2,0.2,0.8,0.008,0.002,0.008,0
2018,5,11,13,31,11.72,-0.4322,0.9008,-0.022,-0.0327,0,0.3,0.8,0.012,0.002,0.011,0
2018,5,11,13,31,11.724,-0.4323,0.9008,-0.0219,-0.0328,0.1,0.4,0.7,0.008,0,0.014,0
2018,5,11,13,31,11.76,-0.4324,0.9007,-0.0218,-0.0329,0,0.2,1,0.012,0.003,0.012,0
2018,5,11,13,31,11.78,-0.4325,0.9007,-0.0216,-0.0329,-0.4,0.3,1.1,0.01,0.002,0.01,0
2018,5,11,13,31,11.807,-0.4325,0.9007,-0.0215,-0.033,-0.5,0.1,0.7,0.008,0.001,0.013,0
2018,5,11,13,31,11.824,-0.4325,0.9007,-0.0214,-0.0331,-0.6,0.1,0.8,0.01,0.001,0.01,0
2018,5,11,13,31,11.826,-0.4325,0.9007,-0.0213,-0.0331,-0.5,0,0.9,0.011,0.004,0.013,0
2018,5,11,13,31,11.837,-0.4325,0.9007,-0.0212,-0.0332,-0.6,0.1,0.8,0.01,0.001,0.012,0
2018,5,11,13,31,11.875,-0.4325,0.9007,-0.021,-0.0332,-0.7,0.1,0.9,0.01,0,0.012,0
2018,5,11,13,31,11.895,-0.4324,0.9007,-0.0209,-0.0333,-0.4,0,0.8,0.008,0,0.013,0
2018,5,11,13,31,11.901,-0.4324,0.9007,-0.0208,-0.0333,-0.5,0.1,0.8,0.009,0.001,0.013,0
2018,5,11,13,31,11.922,-0.4325,0.9007,-0.0207,-0.0334,-0.3,0.1,1,0.009,0.001,0.013,0
2018,5,11,13,31,11.941,-0.4325,0.9007,-0.0206,-0.0334,-0.5,0.2,1,0.009,0.001,0.017,0
2018,5,11,13,31,11.98,-0.4325,0.9007,-0.0204,-0.0335,-0.8,0,0.9,0.01,0.004,0.013,0
2018,5,11,13,31,12,-0.4324,0.9007,-0.0203,-0.0335,-0.6,0.1,0.8,0.011,0,0.013,0
2018,5,11,13,31,12.005,-0.4324,0.9007,-0.0202,-0.0336,-0.4,0.1,1,0.008,0,0.015,0
2018,5,11,13,31,12.021,-0.4325,0.9007,-0.0201,-0.0336,-0.2,0.3,1,0.01,0,0.008,0
2018,5,11,13,31,12.042,-0.4325,0.9007,-0.0199,-0.0337,-0.2,0.5,0.8,0.008,0.004,0.015,0
2018,5,11,13,31,12.062,-0.4325,0.9007,-0.0198,-0.0338,-0.5,0,1,0.005,0.002,0.009,0
2018,5,11,13,31,12.082,-0.4325,0.9007,-0.0197,-0.0338,-0.6,0,0.8,0.009,0.002,0.012,0
2018,5,11,13,31,12.101,-0.4325,0.9007,-0.0196,-0.0339,-0.4,0.1,0.8,0.009,0,0.011,0
2018,5,11,13,31,12.139,-0.4325,0.9007,-0.0195,-0.034,-0.5,0.3,0.8,0.009,0.002,0.014,0
2018,5,11,13,31,12.158,-0.4325,0.9007,-0.0193,-0.034,-0.4,0.1,0.8,0.01,0.003,0.012,1023
2018,5,11,13,31,12.162,-0.4326,0.9007,-0.0192,-0.0341,-0.4,0.1,0.8,0.011,0.002,0.012,1023
2018,5,11,13,31,12.184,-0.4326,0.9007,-0.0191,-0.0341,-0.7,0.1,0.8,0.007,0,0.014,1023
2018,5,11,13,31,12.204,-0.4325,0.9007,-0.019,-0.0342,-0.7,0.1,0.9,0.009,0,0.012,1023
2018,5,11,13,31,12.227,-0.4325,0.9007,-0.0189,-0.0342,-0.2,0,0.8,0.008,0.003,0.014,1023
2018,5,11,13,31,12.247,-0.4325,0.9007,-0.0187,-0.0343,-0.6,0.2,0.8,0.008,0,0.009,1023
2018,5,11,13,31,12.263,-0.4325,0.9007,-0.0186,-0.0343,-0.6,0.1,0.8,0.011,0.002,0.011,1023
2018,5,11,13,31,12.299,-0.4325,0.9007,-0.0185,-0.0344,-0.6,0,1,0.008,0.002,0.015,1023
2018,5,11,13,31,12.32,-0.4324,0.9007,-0.0184,-0.0344,-0.6,0.1,0.7,0.008,0,0.012,1023
2018,5,11,13,31,12.324,-0.4324,0.9007,-0.0183,-0.0344,-0.5,0.1,0.8,0.007,0.001,0.015,1023
2018,5,11,13,31,12.344,-0.4324,0.9008,-0.0182,-0.0345,-0.5,0.1,1,0.012,0.002,0.012,1023
2018,5,11,13,31,12.364,-0.4324,0.9008,-0.0181,-0.0346,-0.4,0.1,0.8,0.01,0,0.015,1023
2018,5,11,13,31,12.403,-0.4325,0.9007,-0.0179,-0.0346,-0.4,0.1,0.8,0.009,0.002,0.014,1023
2018,5,11,13,31,12.423,-0.4325,0.9007,-0.0178,-0.0347,-0.4,0.2,0.8,0.01,0,0.013,1023
2018,5,11,13,31,12.427,-0.4325,0.9007,-0.0177,-0.0348,-0.1,0.3,0.8,0.013,0.003,0.011,0
2018,5,11,13,31,12.448,-0.4325,0.9007,-0.0176,-0.0348,-0.4,0.2,0.8,0.009,0.002,0.011,0
2018,5,11,13,31,12.466,-0.4326,0.9007,-0.0175,-0.0349,-0.4,0.2,0.9,0.01,0.002,0.016,0
2018,5,11,13,31,12.507,-0.4326,0.9007,-0.0174,-0.035,-0.5,0,0.9,0.009,0.002,0.014,0
2018,5,11,13,31,12.526,-0.4325,0.9007,-0.0172,-0.035,-0.7,0,0.9,0.008,0.002,0.01,0
2018,5,11,13,31,12.53,-0.4325,0.9007,-0.0171,-0.035,-0.8,0.3,0.9,0.009,0.001,0.008,0
2018,5,11,13,31,12.542,-0.4324,0.9008,-0.017,-0.0351,-0.7,0.1,1,0.009,0.001,0.007,0
2018,5,11,13,31,12.582,-0.4324,0.9008,-0.0169,-0.0351,-0.6,0.2,0.8,0.009,0,0.009,0
2018,5,11,13,31,12.603,-0.4324,0.9008,-0.0168,-0.0352,-0.5,0.1,0.8,0.013,0.001,0.007,0
2018,5,11,13,31,12.608,-0.4324,0.9008,-0.0167,-0.0353,-0.4,0.2,0.8,0.009,0.004,0.012,0
2018,5,11,13,31,12.626,-0.4324,0.9007,-0.0166,-0.0353,-0.2,0.1,0.8,0.009,0.002,0.013,0
2018,5,11,13,31,12.646,-0.4325,0.9007,-0.0164,-0.0354,-0.5,0.1,1,0.007,0.003,0.018,0
2018,5,11,13,31,12.685,-0.4325,0.9007,-0.0163,-0.0354,-0.4,0.1,0.8,0.007,0.003,0.014,0
2018,5,11,13,31,12.703,-0.4324,0.9007,-0.0162,-0.0355,-0.5,0,0.9,0.012,0.001,0.013,0
2018,5,11,13,31,12.708,-0.4324,0.9008,-0.0161,-0.0355,-0.8,0,1.1,0.008,0,0.007,0
2018,5,11,13,31,12.747,-0.4324,0.9008,-0.0159,-0.0355,-0.6,0.2,0.8,0.008,0,0.008,0
2018,5,11,13,31,12.751,-0.4324,0.9008,-0.0158,-0.0356,-0.4,0.1,0.7,0.008,0.003,0.007,0
2018,5,11,13,31,12.767,-0.4324,0.9008,-0.0157,-0.0357,0.1,0.4,0.7,0.01,0.004,0.012,0
2018,5,11,13,31,12.789,-0.4325,0.9007,-0.0156,-0.0358,0,0.4,1,0.009,0.002,0.011,0
2018,5,11,13,31,12.808,-0.4326,0.9007,-0.0155,-0.0358,-0.4,0.3,1,0.006,0,0.015,0
2018,5,11,13,31,12.844,-0.4326,0.9007,-0.0153,-0.0359,-0.6,0.2,0.8,0.01,0.003,0.008,0
2018,5,11,13,31,12.863,-0.4326,0.9007,-0.0152,-0.036,-0.4,0.1,0.9,0.005,0.001,0.013,0
2018,5,11,13,31,12.867,-0.4326,0.9007,-0.0151,-0.036,-0.1,0.1,1,0.011,0.001,0.018,0
2018,5,11,13,31,12.904,-0.4327,0.9006,-0.015,-0.0361,-0.4,0,1,0.008,-0.001,0.013,0
2018,5,11,13,31,12.924,-0.4327,0.9006,-0.0149,-0.0361,-0.5,0.1,1,0.011,0.002,0.013,0
2018,5,11,13,31,12.931,-0.4327,0.9006,-0.0147,-0.0362,-0.6,0.1,0.8,0.008,0.002,0.012,0
2018,5,11,13,31,12.945,-0.4326,0.9006,-0.0146,-0.0362,-0.6,0,0.8,0.008,0.004,0.013,0
2018,5,11,13,31,12.985,-0.4326,0.9007,-0.0145,-0.0363,-0.5,0.1,0.7,0.01,0.001,0.012,0
2018,5,11,13,31,13.004,-0.4326,0.9007,-0.0144,-0.0363,-0.6,0.1,0.8,0.009,0.004,0.013,0
2018,5,11,13,31,13.008,-0.4326,0.9007,-0.0143,-0.0364,-0.3,0.2,1,0.008,0.003,0.011,0
2018,5,11,13,31,13.029,-0.4326,0.9007,-0.0142,-0.0364,-0.6,0,1,0.011,0.002,0.015,0
2018,5,11,13,31,13.047,-0.4326,0.9007,-0.014,-0.0365,-0.9,0.1,0.9,0.01,0.003,0.011,0
2018,5,11,13,31,13.07,-0.4325,0.9007,-0.0139,-0.0365,-0.6,0,0.9,0.01,0.002,0.01,0
2018,5,11,13,31,13.088,-0.4325,0.9007,-0.0138,-0.0366,-0.5,0.1,0.8,0.008,0,0.013,0
2018,5,11,13,31,13.11,-0.4325,0.9007,-0.0137,-0.0366,-0.2,0.3,1,0.011,0.002,0.012,0
2018,5,11,13,31,13.148,-0.4326,0.9007,-0.0136,-0.0367,-0.3,0.2,0.9,0.008,0,0.013,1023
2018,5,11,13,31,13.17,-0.4326,0.9007,-0.0134,-0.0368,-0.6,0.1,0.9,0.008,0.002,0.012,1023
2018,5,11,13,31,13.174,-0.4326,0.9007,-0.0133,-0.0369,-0.6,0.4,0.9,0.007,0.003,0.008,1023
2018,5,11,13,31,13.188,-0.4326,0.9007,-0.0132,-0.0369,-0.6,0,0.8,0.01,0.003,0.014,1023
2018,5,11,13,31,13.227,-0.4325,0.9007,-0.0131,-0.037,-0.7,0,0.9,0.01,0.002,0.01,1023
2018,5,11,13,31,13.248,-0.4325,0.9007,-0.013,-0.037,-0.6,0.1,1,0.01,0.002,0.013,1023
2018,5,11,13,31,13.252,-0.4325,0.9007,-0.0128,-0.0371,-0.6,0.1,0.8,0.006,0.001,0.01,1023
2018,5,11,13,31,13.271,-0.4325,0.9007,-0.0127,-0.0371,-0.6,0.1,1,0.009,-0.001,0.007,1023
2018,5,11,13,31,13.291,-0.4325,0.9007,-0.0126,-0.0372,-0.4,0.1,0.9,0.008,0.001,0.016,1023
2018,5,11,13,31,13.328,-0.4325,0.9007,-0.0125,-0.0372,-0.4,0.2,0.8,0.009,0,0.012,1023
2018,5,11,13,31,13.347,-0.4325,0.9007,-0.0124,-0.0373,-0.7,0,0.8,0.008,0.003,0.014,1023
2018,5,11,13,31,13.352,-0.4324,0.9007,-0.0123,-0.0373,-0.7,0,0.8,0.006,0,0.008,1023
2018,5,11,13,31,13.371,-0.4324,0.9008,-0.0122,-0.0374,-0.6,0,1,0.008,0.003,0.009,1023
2018,5,11,13,31,13.391,-0.4324,0.9007,-0.012,-0.0374,-0.2,0.1,0.7,0.008,0.002,0.018,0
2018,5,11,13,31,13.431,-0.4324,0.9007,-0.0119,-0.0375,-0.2,0.3,0.8,0.011,0.001,0.015,0
2018,5,11,13,31,13.452,-0.4325,0.9007,-0.0118,-0.0376,-0.6,0,0.8,0.008,0.001,0.013,0
2018,5,11,13,31,13.456,-0.4325,0.9007,-0.0117,-0.0376,-0.6,0.2,0.9,0.009,0,0.011,0
2018,5,11,13,31,13.47,-0.4325,0.9007,-0.0116,-0.0377,-0.5,0.1,0.8,0.01,0.001,0.014,0
2018,5,11,13,31,13.49,-0.4325,0.9007,-0.0115,-0.0377,-0.4,0.1,0.9,0.011,0.003,0.014,0
2018,5,11,13,31,13.51,-0.4325,0.9007,-0.0114,-0.0378,-0.2,0.1,0.8,0.007,0.002,0.011,0
2018,5,11,13,31,13.548,-0.4325,0.9007,-0.0113,-0.0379,-0.1,0.3,0.7,0.009,0.004,0.015,0
2018,5,11,13,31,13.569,-0.4326,0.9007,-0.0111,-0.0379,-0.4,0.2,0.9,0.01,0.003,0.015,0
