time_1,time_2,time_3,time_4,time_5,time_6,w,x,y,z,droll,dpitch,dyaw,ax,ay,az,heart
2018,5,11,13,32,40.959,0.6932,-0.3212,0.3334,-0.5522,-0.4,0.2,0.8,0.008,0.017,0,1023
2018,5,11,13,32,40.979,0.6934,-0.3212,0.3334,-0.552,-0.8,0.1,0.8,0.012,0.014,0,1023
2018,5,11,13,32,41,0.6932,-0.3213,0.3334,-0.5522,-1.2,-0.1,1,0.014,0.017,0,1023
2018,5,11,13,32,41.039,0.6931,-0.3214,0.3335,-0.5521,-1.3,0,0.8,0.014,0.017,-0.002,1023
2018,5,11,13,32,41.057,0.6932,-0.3214,0.3337,-0.552,-0.7,0,1,0.015,0.011,-0.003,1023
2018,5,11,13,32,41.06,0.6932,-0.3214,0.3337,-0.552,-0.4,0.1,0.8,0.012,0.01,0.003,0
2018,5,11,13,32,41.077,0.6932,-0.3213,0.3337,-0.5519,-0.1,0,0.9,0.015,0.011,0,0
2018,5,11,13,32,41.098,0.6933,-0.3213,0.3336,-0.5519,0,0.3,1,0.012,0.006,0,0
2018,5,11,13,32,41.118,0.6934,-0.3212,0.3335,-0.5519,0.6,0.6,0.5,0.012,0.019,0.005,0
2018,5,11,13,32,41.139,0.6934,-0.3212,0.3334,-0.5521,-0.6,0.3,0.6,0.014,0.029,0.01,0
2018,5,11,13,32,41.162,0.6934,-0.3211,0.3334,-0.5519,-2.5,-0.2,1.2,0.013,0.024,0.006,0
2018,5,11,13,32,41.177,0.6933,-0.3214,0.3337,-0.5518,-2.6,-0.2,1.1,0.004,0.014,0.002,0
2018,5,11,13,32,41.215,0.6932,-0.3216,0.334,-0.5517,-1.8,0,0.8,0.012,0,-0.004,0
2018,5,11,13,32,41.235,0.693,-0.3218,0.3341,-0.5517,-0.2,0.1,0.5,0.015,0.003,-0.007,0
2018,5,11,13,32,41.239,0.693,-0.3218,0.334,-0.5518,0.8,0.4,0.5,0.015,0.013,0.004,0
2018,5,11,13,32,41.279,0.6933,-0.3215,0.3339,-0.5516,0.6,0.1,0.8,0.015,0.022,0.004,0
2018,5,11,13,32,41.298,0.6934,-0.3213,0.3338,-0.5517,0,0,1,0.013,0.022,0.006,0
2018,5,11,13,32,41.302,0.6935,-0.3212,0.3338,-0.5515,-1,-0.1,1.1,0.011,0.021,0.004,0
2018,5,11,13,32,41.319,0.6933,-0.3214,0.3339,-0.5518,-1.7,-0.4,1.1,0.012,0.017,0.001,0
2018,5,11,13,32,41.357,0.693,-0.3215,0.334,-0.5519,-1.3,-0.2,1.1,0.012,0.009,0,0
2018,5,11,13,32,41.377,0.693,-0.3216,0.3341,-0.5519,-0.9,-0.1,0.8,0.015,0.01,0,0
2018,5,11,13,32,41.381,0.6929,-0.3217,0.3342,-0.5519,-0.8,0,1,0.011,0.015,-0.003,0
2018,5,11,13,32,41.403,0.6928,-0.3217,0.3341,-0.5519,-0.4,0.1,0.8,0.012,0.014,0,0
2018,5,11,13,32,41.422,0.6928,-0.3217,0.3341,-0.552,0,0.2,0.8,0.011,0.012,0.003,0
2018,5,11,13,32,41.459,0.693,-0.3216,0.334,-0.5518,-0.4,0.2,0.8,0.011,0.015,0.002,0
2018,5,11,13,32,41.48,0.693,-0.3216,0.334,-0.5519,-0.9,0.1,0.7,0.014,0.016,-0.001,0
2018,5,11,13,32,41.484,0.6928,-0.3217,0.3341,-0.552,-0.8,0,0.8,0.013,0.012,-0.004,0
2018,5,11,13,32,41.5,0.693,-0.3217,0.3341,-0.5518,-0.1,0.3,0.7,0.015,0.012,0.001,0
2018,5,11,13,32,41.521,0.6931,-0.3216,0.334,-0.5517,0.3,0.3,0.8,0.014,0.014,0.003,0
2018,5,11,13,32,41.539,0.6932,-0.3215,0.334,-0.5517,-0.3,0.4,0.8,0.013,0.02,0.001,0
2018,5,11,13,32,41.561,0.6933,-0.3215,0.334,-0.5516,-1,0.1,1,0.014,0.019,0.002,0
2018,5,11,13,32,41.581,0.6932,-0.3216,0.334,-0.5517,-1.7,0,1,0.012,0.012,0.005,0
2018,5,11,13,32,41.619,0.6932,-0.3217,0.3341,-0.5515,-1.6,0,1,0.012,0.012,0.005,0
2018,5,11,13,32,41.639,0.6932,-0.3218,0.3343,-0.5514,-1.2,0,1,0.012,0.01,0,0
2018,5,11,13,32,41.643,0.6931,-0.3219,0.3344,-0.5514,-0.4,0.2,0.9,0.013,0.011,-0.005,0
2018,5,11,13,32,41.683,0.6931,-0.3219,0.3343,-0.5515,0,0.1,0.9,0.013,0.014,0.003,0
2018,5,11,13,32,41.703,0.6932,-0.3218,0.3342,-0.5514,0,0.1,0.8,0.011,0.017,0,0
2018,5,11,13,32,41.707,0.6933,-0.3217,0.3342,-0.5513,-0.6,0,0.8,0.009,0.016,0,0
2018,5,11,13,32,41.722,0.6933,-0.3217,0.3342,-0.5514,-0.9,0.1,1,0.011,0.014,0.002,0
2018,5,11,13,32,41.761,0.6931,-0.3218,0.3342,-0.5515,-0.7,0,0.9,0.013,0.015,-0.003,0
2018,5,11,13,32,41.779,0.6931,-0.3218,0.3343,-0.5514,-0.6,0.1,0.8,0.012,0.011,0,0
2018,5,11,13,32,41.784,0.6932,-0.3218,0.3343,-0.5514,-0.1,0.1,0.9,0.014,0.014,0,0
2018,5,11,13,32,41.802,0.6932,-0.3218,0.3342,-0.5514,-0.1,0.3,0.8,0.01,0.016,0.002,0
2018,5,11,13,32,41.822,0.6931,-0.3218,0.3341,-0.5516,-0.4,0,0.8,0.012,0.016,0.005,0
2018,5,11,13,32,41.861,0.6933,-0.3217,0.3342,-0.5513,-0.7,0.1,0.8,0.012,0.017,0.001,0
2018,5,11,13,32,41.881,0.6933,-0.3217,0.3342,-0.5513,-0.8,0.1,0.8,0.015,0.013,0,0
2018,5,11,13,32,41.885,0.6933,-0.3218,0.3343,-0.5513,-0.6,0,0.8,0.015,0.013,0,0
2018,5,11,13,32,41.904,0.6932,-0.3218,0.3343,-0.5514,-0.6,0,0.7,0.013,0.015,0.004,0
2018,5,11,13,32,41.943,0.6931,-0.3218,0.3343,-0.5514,-0.4,0.2,0.8,0.014,0.013,-0.001,1023
2018,5,11,13,32,41.948,0.693,-0.3219,0.3343,-0.5515,-0.6,0.1,0.9,0.016,0.016,-0.001,1023
2018,5,11,13,32,41.963,0.6931,-0.3219,0.3343,-0.5514,-0.7,0.1,0.9,0.011,0.016,0.003,1023
2018,5,11,13,32,41.983,0.6931,-0.3219,0.3343,-0.5514,-0.8,0.1,0.8,0.013,0.015,0.001,1023
2018,5,11,13,32,42.001,0.6931,-0.3219,0.3343,-0.5514,-0.7,0.1,0.8,0.016,0.015,0.005,1023
2018,5,11,13,32,42.042,0.6929,-0.322,0.3343,-0.5516,-0.6,0.3,0.8,0.014,0.011,0.004,1023
2018,5,11,13,32,42.064,0.6928,-0.3221,0.3343,-0.5517,-0.2,0.1,0.7,0.011,0.015,0,1023
2018,5,11,13,32,42.068,0.6928,-0.3221,0.3342,-0.5517,-0.3,0.2,0.8,0.012,0.015,0.005,1023
2018,5,11,13,32,42.085,0.6927,-0.3221,0.3342,-0.5518,-0.6,0,0.8,0.01,0.015,-0.001,1023
2018,5,11,13,32,42.121,0.6929,-0.322,0.3342,-0.5516,-0.3,0,1.1,0.012,0.016,0.003,1023
2018,5,11,13,32,42.143,0.693,-0.3219,0.3342,-0.5516,-0.2,0.1,1,0.013,0.017,0.004,1023
2018,5,11,13,32,42.147,0.6929,-0.322,0.3342,-0.5517,0,0.2,0.7,0.014,0.017,0.002,1023
2018,5,11,13,32,42.168,0.6929,-0.3219,0.3341,-0.5517,-0.2,0.1,0.8,0.012,0.016,0.003,1023
2018,5,11,13,32,42.189,0.6929,-0.3219,0.3341,-0.5518,-0.7,0.1,0.8,0.014,0.018,0.003,1023
2018,5,11,13,32,42.226,0.6928,-0.322,0.3341,-0.5519,-0.9,-0.1,1,0.011,0.014,0.011,0
2018,5,11,13,32,42.246,0.6927,-0.322,0.3342,-0.5518,-0.9,0,1,0.013,0.011,0,0
2018,5,11,13,32,42.25,0.6928,-0.322,0.3343,-0.5517,-0.6,0.1,1,0.013,0.009,0,0
2018,5,11,13,32,42.266,0.6928,-0.322,0.3343,-0.5517,-0.6,0.1,0.8,0.014,0.016,-0.001,0
2018,5,11,13,32,42.305,0.6929,-0.322,0.3343,-0.5516,-0.4,0.3,1,0.014,0.012,0,0
2018,5,11,13,32,42.324,0.6928,-0.3221,0.3342,-0.5517,0.3,0.4,0.8,0.013,0.008,-0.005,0
2018,5,11,13,32,42.328,0.6929,-0.322,0.3341,-0.5517,0.7,0.7,0.5,0.014,0.015,0.004,0
2018,5,11,13,32,42.348,0.693,-0.3218,0.334,-0.5518,-0.7,0.2,0.6,0.018,0.029,0.013,0
2018,5,11,13,32,42.386,0.693,-0.3219,0.334,-0.5517,-2.7,-0.3,1.2,0.009,0.022,0.004,0
2018,5,11,13,32,42.407,0.6928,-0.3221,0.3343,-0.5516,-2.9,-0.4,1.3,0.01,0.005,-0.004,0
2018,5,11,13,32,42.412,0.6928,-0.3224,0.3346,-0.5514,-0.9,0.1,0.8,0.008,0.002,-0.006,0
2018,5,11,13,32,42.431,0.6928,-0.3224,0.3346,-0.5513,0.6,0.6,0.5,0.014,0.008,-0.002,0
2018,5,11,13,32,42.448,0.6929,-0.3222,0.3344,-0.5513,1.2,0.4,0.5,0.015,0.017,0,0
2018,5,11,13,32,42.484,0.6929,-0.3221,0.3342,-0.5516,0.6,0.1,0.9,0.018,0.021,0.007,0
2018,5,11,13,32,42.505,0.693,-0.3219,0.3341,-0.5517,-0.2,0.1,1.2,0.012,0.02,0.009,0
2018,5,11,13,32,42.509,0.6929,-0.3219,0.3341,-0.5518,-1.4,-0.2,1.1,0.014,0.018,0.004,0
2018,5,11,13,32,42.528,0.6927,-0.3221,0.3342,-0.5519,-1.5,-0.1,1.1,0.012,0.008,-0.001,0
2018,5,11,13,32,42.568,0.6925,-0.3222,0.3343,-0.5519,-1.1,-0.1,0.9,0.013,0.009,-0.001,0
2018,5,11,13,32,42.572,0.6925,-0.3222,0.3343,-0.5519,-0.3,0.2,0.8,0.011,0.014,0,0
2018,5,11,13,32,42.588,0.6926,-0.3222,0.3343,-0.5519,-0.1,0.1,0.8,0.015,0.016,0,0
2018,5,11,13,32,42.629,0.6927,-0.3221,0.3343,-0.5518,-0.2,0.2,0.8,0.011,0.013,0,0
2018,5,11,13,32,42.647,0.6927,-0.3221,0.3342,-0.5518,-0.1,0.2,0.9,0.013,0.017,0.003,0
2018,5,11,13,32,42.651,0.6928,-0.322,0.3342,-0.5517,-0.6,0,0.7,0.011,0.017,0.008,0
2018,5,11,13,32,42.666,0.6928,-0.322,0.3342,-0.5518,-0.9,0,0.8,0.011,0.016,0.005,0
2018,5,11,13,32,42.706,0.6928,-0.3221,0.3342,-0.5518,-0.5,0.1,0.7,0.013,0.007,0,0
2018,5,11,13,32,42.727,0.6926,-0.3221,0.3342,-0.5519,0,0.4,0.7,0.013,0.014,0.002,0
2018,5,11,13,32,42.731,0.6927,-0.322,0.3341,-0.5519,0.1,0.5,0.7,0.014,0.016,0.003,0
2018,5,11,13,32,42.75,0.6928,-0.3219,0.334,-0.5519,-0.6,0.2,0.7,0.012,0.021,0.006,0
2018,5,11,13,32,42.769,0.693,-0.3219,0.3341,-0.5517,-1.3,0,1.1,0.015,0.019,0.002,0
2018,5,11,13,32,42.808,0.6929,-0.322,0.3342,-0.5516,-1.5,0,1,0.012,0.012,-0.001,0
2018,5,11,13,32,42.827,0.6928,-0.3221,0.3343,-0.5516,-1.3,0,1,0.013,0.012,0.003,0
2018,5,11,13,32,42.831,0.6928,-0.3222,0.3343,-0.5516,-0.7,0.1,0.9,0.011,0.01,0,0
2018,5,11,13,32,42.853,0.6927,-0.3223,0.3344,-0.5516,-0.4,0.1,0.8,0.013,0.013,-0.003,0
2018,5,11,13,32,42.873,0.6927,-0.3223,0.3343,-0.5517,0,0,0.8,0.016,0.016,0.002,0
2018,5,11,13,32,42.89,0.6928,-0.3222,0.3343,-0.5517,-0.1,0,0.8,0.012,0.018,0.004,0
2018,5,11,13,32,42.928,0.6928,-0.3221,0.3342,-0.5517,-0.2,0.1,0.9,0.015,0.015,0,0
2018,5,11,13,32,42.948,0.6928,-0.3221,0.3342,-0.5517,-0.2,0.2,1,0.011,0.014,0.004,0
2018,5,11,13,32,42.952,0.6929,-0.322,0.3342,-0.5516,-0.2,0.1,0.8,0.014,0.014,-0.001,1023
2018,5,11,13,32,42.969,0.693,-0.322,0.3342,-0.5516,0,0.1,0.8,0.013,0.014,0.001,1023
2018,5,11,13,32,43.007,0.6928,-0.3221,0.3341,-0.5518,-0.1,0.2,0.8,0.016,0.014,0,1023
2018,5,11,13,32,43.027,0.6928,-0.322,0.3341,-0.5518,-0.2,0.1,0.7,0.011,0.014,0.001,1023
2018,5,11,13,32,43.032,0.6929,-0.322,0.334,-0.5518,-0.5,0.1,0.9,0.013,0.015,0.001,1023
2018,5,11,13,32,43.053,0.693,-0.322,0.3341,-0.5516,-0.7,0.3,0.9,0.013,0.012,0.004,1023
2018,5,11,13,32,43.074,0.693,-0.322,0.3341,-0.5516,-0.5,0.1,0.8,0.012,0.012,0,1023
2018,5,11,13,32,43.094,0.6931,-0.322,0.3341,-0.5515,-0.4,0.1,0.9,0.014,0.012,-0.004,1023
2018,5,11,13,32,43.132,0.6929,-0.322,0.3341,-0.5517,-0.2,0.3,0.9,0.012,0.016,0,1023
2018,5,11,13,32,43.153,0.693,-0.322,0.334,-0.5516,-0.4,0.3,0.8,0.011,0.015,-0.001,1023
2018,5,11,13,32,43.158,0.693,-0.322,0.334,-0.5516,-0.5,0.1,0.9,0.013,0.015,0.002,1023
2018,5,11,13,32,43.172,0.6932,-0.3219,0.3341,-0.5514,-0.4,0.1,0.8,0.012,0.016,0.005,1023
2018,5,11,13,32,43.208,0.6931,-0.322,0.334,-0.5516,-0.6,0.2,0.8,0.012,0.014,0.004,1023
2018,5,11,13,32,43.228,0.6932,-0.3219,0.334,-0.5514,-0.2,0.3,0.8,0.016,0.013,0,1023
2018,5,11,13,32,43.232,0.6933,-0.3219,0.334,-0.5513,-0.4,0.4,0.9,0.013,0.012,0.005,0
2018,5,11,13,32,43.273,0.6933,-0.3219,0.334,-0.5514,-0.3,0.3,0.9,0.013,0.014,0.001,0
2018,5,11,13,32,43.293,0.6932,-0.3219,0.3339,-0.5515,-0.1,0.2,0.9,0.015,0.011,0.002,0
2018,5,11,13,32,43.297,0.6933,-0.3219,0.3339,-0.5514,-0.2,0.4,0.8,0.012,0.011,-0.003,0
2018,5,11,13,32,43.314,0.6933,-0.3219,0.3338,-0.5514,0,0.5,0.7,0.014,0.015,-0.001,0
2018,5,11,13,32,43.335,0.6934,-0.3218,0.3338,-0.5514,0.1,0.4,0.8,0.013,0.019,0.001,0
2018,5,11,13,32,43.355,0.6934,-0.3217,0.3337,-0.5514,0,0.1,0.8,0.014,0.015,0.002,0
2018,5,11,13,32,43.394,0.6937,-0.3216,0.3337,-0.5512,-0.2,0.1,1,0.014,0.016,0.004,0
2018,5,11,13,32,43.398,0.6938,-0.3216,0.3337,-0.5512,-0.5,0.3,0.8,0.011,0.017,0.003,0
2018,5,11,13,32,43.413,0.6938,-0.3216,0.3337,-0.5511,-0.6,0.1,0.8,0.013,0.015,-0.001,0
2018,5,11,13,32,43.451,0.6937,-0.3216,0.3336,-0.5512,-0.4,0.1,0.9,0.011,0.012,0.001,0
2018,5,11,13,32,43.47,0.6937,-0.3216,0.3336,-0.5512,-0.2,0.1,0.8,0.01,0.011,0,0
2018,5,11,13,32,43.474,0.6937,-0.3216,0.3336,-0.5512,0,0.3,1,0.014,0.012,0,0
2018,5,11,13,32,43.493,0.6937,-0.3216,0.3334,-0.5514,0.5,0.5,0.9,0.014,0.013,-0.001,0
2018,5,11,13,32,43.516,0.6937,-0.3215,0.3333,-0.5514,0.4,0.6,0.6,0.017,0.018,0.007,0
2018,5,11,13,32,43.555,0.6939,-0.3214,0.3331,-0.5514,-0.8,0.2,0.8,0.013,0.028,0.001,0
2018,5,11,13,32,43.575,0.6938,-0.3215,0.3332,-0.5515,-2.3,-0.2,1.3,0.007,0.019,0.003,0
2018,5,11,13,32,43.579,0.6936,-0.3218,0.3334,-0.5515,-2.3,-0.1,1.1,0.011,0,-0.003,0
2018,5,11,13,32,43.597,0.6934,-0.322,0.3335,-0.5514,0,0,0,0.015,0,-0.003,0
2018,5,11,13,32,43.614,0.6934,-0.3219,0.3334,-0.5516,1.2,0.7,0.3,0.02,0.008,0,0
2018,5,11,13,32,43.653,0.6936,-0.3217,0.3332,-0.5516,1.2,0.5,0.6,0.021,0.018,0.001,0
2018,5,11,13,32,43.672,0.6938,-0.3214,0.3331,-0.5516,0.3,0.1,0.9,0.015,0.024,0.006,0
2018,5,11,13,32,43.676,0.6937,-0.3214,0.3329,-0.5518,-0.7,-0.1,1.2,0.011,0.021,0.008,0
2018,5,11,13,32,43.714,0.6936,-0.3214,0.3329,-0.5519,-1.5,-0.2,1.1,0.01,0.017,0.003,0
2018,5,11,13,32,43.735,0.6934,-0.3216,0.3331,-0.5519,-1.5,-0.2,1.1,0.013,0.008,0.003,0
2018,5,11,13,32,43.739,0.6933,-0.3217,0.3331,-0.552,-0.4,0.1,0.8,0.009,0.008,0,0
2018,5,11,13,32,43.757,0.6933,-0.3217,0.3331,-0.552,0.3,0.4,0.6,0.012,0.01,0,0
2018,5,11,13,32,43.778,0.6934,-0.3216,0.333,-0.552,0.5,0.4,0.8,0.012,0.016,0.004,0
2018,5,11,13,32,43.798,0.6935,-0.3215,0.3329,-0.5521,0.2,0.4,0.7,0.013,0.02,0.003,0
2018,5,11,13,32,43.817,0.6935,-0.3214,0.3328,-0.5521,-0.2,0.3,0.7,0.012,0.017,0.003,0
2018,5,11,13,32,43.834,0.6935,-0.3214,0.3327,-0.5522,-0.6,0.3,0.9,0.012,0.014,0.007,0
2018,5,11,13,32,43.872,0.6934,-0.3214,0.3327,-0.5523,-0.6,0,0.8,0.012,0.012,-0.001,0
2018,5,11,13,32,43.891,0.6935,-0.3214,0.3327,-0.5522,-0.2,0.4,0.7,0.015,0.013,-0.006,0
2018,5,11,13,32,43.895,0.6935,-0.3213,0.3327,-0.5522,-0.1,0.1,0.6,0.017,0.017,0.004,0
2018,5,11,13,32,43.934,0.6935,-0.3213,0.3326,-0.5523,-0.6,0.3,0.8,0.014,0.018,0.001,0
2018,5,11,13,32,43.953,0.6934,-0.3214,0.3325,-0.5525,-0.9,0.2,0.9,0.015,0.021,0.006,0
2018,5,11,13,32,43.957,0.6933,-0.3214,0.3326,-0.5525,-1,0.1,0.8,0.014,0.013,0.003,0
2018,5,11,13,32,43.978,0.6933,-0.3215,0.3326,-0.5524,-0.9,0.3,0.9,0.013,0.013,0.001,0
2018,5,11,13,32,44,0.6932,-0.3215,0.3326,-0.5525,-0.8,0,0.9,0.013,0.014,0.001,1023
2018,5,11,13,32,44.019,0.6931,-0.3216,0.3327,-0.5526,-0.6,0.1,0.8,0.012,0.01,-0.005,1023
2018,5,11,13,32,44.039,0.6931,-0.3216,0.3327,-0.5525,-0.2,0.1,0.8,0.016,0.012,0,1023
2018,5,11,13,32,44.056,0.6931,-0.3216,0.3326,-0.5526,0,0.2,0.9,0.011,0.014,0.001,1023
2018,5,11,13,32,44.076,0.6931,-0.3215,0.3326,-0.5527,0.1,0.3,1,0.013,0.015,0.001,1023
2018,5,11,13,32,44.095,0.693,-0.3215,0.3324,-0.5529,0,0.3,0.8,0.013,0.016,0.005,1023
2018,5,11,13,32,44.118,0.6929,-0.3215,0.3324,-0.5531,-0.4,0,1,0.011,0.014,0.005,1023
2018,5,11,13,32,44.139,0.6928,-0.3215,0.3324,-0.5532,-0.4,0,1,0.014,0.015,0,1023
2018,5,11,13,32,44.174,0.6929,-0.3214,0.3324,-0.5531,-0.2,0,1,0.015,0.013,0.008,1023
2018,5,11,13,32,44.195,0.693,-0.3213,0.3324,-0.553,0,0.3,0.8,0.013,0.013,0.003,1023
2018,5,11,13,32,44.2,0.693,-0.3213,0.3323,-0.5531,-0.2,0.1,0.8,0.014,0.015,0.003,1023
2018,5,11,13,32,44.219,0.6931,-0.3212,0.3323,-0.5531,-0.4,0.2,0.8,0.011,0.015,0,1023
2018,5,11,13,32,44.24,0.6931,-0.3212,0.3323,-0.553,-0.2,0.3,0.7,0.015,0.014,0.002,1023
2018,5,11,13,32,44.278,0.6931,-0.3212,0.3323,-0.5531,-0.6,0.1,0.8,0.012,0.013,0.004,1023
2018,5,11,13,32,44.301,0.6931,-0.3211,0.3323,-0.553,-0.5,0.1,1,0.013,0.014,-0.001,1023
2018,5,11,13,32,44.305,0.693,-0.3212,0.3323,-0.5531,-0.6,0.3,0.9,0.015,0.016,0.002,0
2018,5,11,13,32,44.325,0.6931,-0.3211,0.3323,-0.5531,-0.4,0.1,0.8,0.011,0.015,0.001,0
2018,5,11,13,32,44.342,0.693,-0.3212,0.3322,-0.5532,-0.4,0.1,0.8,0.014,0.014,0.004,0
2018,5,11,13,32,44.359,0.6929,-0.3212,0.3322,-0.5533,-0.5,0.1,0.7,0.012,0.015,0.003,0
2018,5,11,13,32,44.38,0.6928,-0.3212,0.3322,-0.5534,-0.6,0.1,0.8,0.01,0.011,0.004,0
2018,5,11,13,32,44.4,0.693,-0.3212,0.3323,-0.5532,-0.6,0.2,0.8,0.014,0.013,-0.001,0
2018,5,11,13,32,44.437,0.693,-0.3212,0.3323,-0.5531,-0.7,0.1,1,0.013,0.018,0.001,0
2018,5,11,13,32,44.458,0.6929,-0.3212,0.3324,-0.5532,-0.6,0.1,1,0.012,0.013,0.001,0
2018,5,11,13,32,44.462,0.6929,-0.3212,0.3324,-0.5532,-0.3,0,0.8,0.01,0.015,-0.003,0
2018,5,11,13,32,44.481,0.6929,-0.3212,0.3324,-0.5533,-0.1,0.2,0.9,0.01,0.014,0.002,0
2018,5,11,13,32,44.521,0.6929,-0.3212,0.3323,-0.5533,-0.1,0.4,0.8,0.013,0.013,0.003,0
2018,5,11,13,32,44.539,0.6931,-0.3211,0.3323,-0.5531,0.1,0.3,0.7,0.014,0.011,0.003,0
2018,5,11,13,32,44.543,0.6932,-0.3209,0.3322,-0.5531,0.2,0.3,0.8,0.011,0.022,0.008,0
2018,5,11,13,32,44.56,0.6933,-0.3208,0.3321,-0.5531,-1.2,0,0.8,0.011,0.023,0.004,0
2018,5,11,13,32,44.598,0.6933,-0.3209,0.3323,-0.5529,-2.1,-0.3,1,0.009,0.017,0.003,0
2018,5,11,13,32,44.619,0.6931,-0.3211,0.3324,-0.553,-2,-0.1,1,0.013,0.008,0,0
2018,5,11,13,32,44.623,0.6932,-0.3212,0.3326,-0.5528,-0.1,0.4,0.7,0.015,0.003,-0.008,0
2018,5,11,13,32,44.641,0.6934,-0.321,0.3326,-0.5526,0.8,0.5,0.5,0.017,0.013,0,0
2018,5,11,13,32,44.664,0.6935,-0.3209,0.3325,-0.5526,0.6,0.3,0.7,0.017,0.017,0.005,0
2018,5,11,13,32,44.682,0.6936,-0.3207,0.3324,-0.5526,-0.3,0.1,1,0.015,0.02,0.008,0
2018,5,11,13,32,44.723,0.6936,-0.3207,0.3324,-0.5526,-1.3,-0.1,1.3,0.009,0.02,0.004,0
2018,5,11,13,32,44.743,0.6934,-0.3208,0.3325,-0.5527,-1.8,-0.2,1,0.011,0.015,0,0
2018,5,11,13,32,44.747,0.6934,-0.3209,0.3327,-0.5525,-1.5,-0.1,1.1,0.01,0.005,-0.002,0
2018,5,11,13,32,44.766,0.6932,-0.3211,0.3328,-0.5527,-0.6,0,1,0.014,0.01,0,0
2018,5,11,13,32,44.783,0.6933,-0.321,0.3328,-0.5526,-0.1,0.2,0.9,0.01,0.016,0.001,0
2018,5,11,13,32,44.804,0.6932,-0.321,0.3327,-0.5527,-0.1,0.1,0.9,0.009,0.018,0,0
2018,5,11,13,32,44.823,0.693,-0.3211,0.3326,-0.553,-0.1,0.1,0.8,0.012,0.017,0,0
2018,5,11,13,32,44.841,0.6932,-0.321,0.3327,-0.5528,-0.4,0.1,0.8,0.015,0.014,0.003,0
2018,5,11,13,32,44.86,0.6933,-0.3209,0.3327,-0.5527,-0.6,0,0.8,0.013,0.014,0.002,0
2018,5,11,13,32,44.882,0.6932,-0.321,0.3327,-0.5527,-0.6,0,0.8,0.013,0.01,0.001,0
2018,5,11,13,32,44.9,0.6932,-0.321,0.3327,-0.5528,-0.1,0.2,0.7,0.014,0.012,-0.001,0
2018,5,11,13,32,44.925,0.6932,-0.3209,0.3327,-0.5528,-0.4,0.2,0.7,0.015,0.021,0.002,0
2018,5,11,13,32,44.945,0.6933,-0.3209,0.3327,-0.5527,-1,0,1,0.012,0.017,0.002,0
2018,5,11,13,32,44.965,0.6934,-0.3209,0.3328,-0.5525,-1.2,-0.1,1,0.013,0.016,0.002,0
2018,5,11,13,32,44.985,0.6933,-0.321,0.3329,-0.5526,-1.3,0,1.1,0.012,0.016,0,0
2018,5,11,13,32,45.002,0.6932,-0.3211,0.333,-0.5526,-1.2,0.1,0.9,0.013,0.014,0.001,0
2018,5,11,13,32,45.041,0.6932,-0.3211,0.3331,-0.5524,-1.2,0,1,0.011,0.015,0.002,0
2018,5,11,13,32,45.063,0.6931,-0.3212,0.3331,-0.5526,-1,0,0.9,0.013,0.012,-0.001,0
2018,5,11,13,32,45.067,0.693,-0.3213,0.3332,-0.5526,-0.9,0,0.9,0.011,0.012,0.003,0
2018,5,11,13,32,45.084,0.6928,-0.3214,0.3332,-0.5528,-0.6,0,0.8,0.012,0.013,0,0
2018,5,11,13,32,45.122,0.6927,-0.3214,0.3332,-0.5528,-0.4,0,0.8,0.01,0.011,-0.001,0
2018,5,11,13,32,45.141,0.6927,-0.3214,0.3332,-0.5528,-0.4,0.1,0.8,0.016,0.014,0.001,0
2018,5,11,13,32,45.145,0.6928,-0.3214,0.3332,-0.5527,-0.4,0,0.8,0.015,0.017,0.003,0
2018,5,11,13,32,45.165,0.6927,-0.3214,0.3332,-0.5529,-0.5,0,0.9,0.015,0.016,0.001,0
2018,5,11,13,32,45.185,0.6928,-0.3213,0.3332,-0.5528,-0.4,0.1,0.9,0.014,0.012,0.002,0
2018,5,11,13,32,45.202,0.6929,-0.3213,0.3332,-0.5527,-0.6,0.1,0.9,0.013,0.014,0.005,0
2018,5,11,13,32,45.238,0.6929,-0.3213,0.3332,-0.5527,-0.6,0.1,0.9,0.014,0.018,0.001,1023
2018,5,11,13,32,45.256,0.6928,-0.3213,0.3332,-0.5528,-0.8,0.1,0.9,0.012,0.014,0,1023
2018,5,11,13,32,45.261,0.6926,-0.3214,0.3332,-0.553,-0.9,0,1,0.012,0.014,0.003,1023
2018,5,11,13,32,45.297,0.6926,-0.3214,0.3332,-0.5529,-0.7,0,1,0.013,0.016,0,1023
2018,5,11,13,32,45.316,0.6926,-0.3214,0.3333,-0.553,-0.7,0.1,1,0.012,0.014,0,1023
2018,5,11,13,32,45.327,0.6926,-0.3214,0.3333,-0.553,-0.6,0,0.8,0.012,0.011,0.001,1023
2018,5,11,13,32,45.347,0.6926,-0.3214,0.3333,-0.5529,-0.7,0.1,1,0.013,0.016,0.001,1023
2018,5,11,13,32,45.366,0.6926,-0.3214,0.3333,-0.5529,-0.8,0,0.7,0.011,0.015,0,1023
2018,5,11,13,32,45.404,0.6925,-0.3215,0.3334,-0.5529,-0.7,0,0.9,0.015,0.013,0,1023
2018,5,11,13,32,45.426,0.6925,-0.3215,0.3334,-0.5529,-0.7,0.2,0.8,0.016,0.012,0.003,1023
2018,5,11,13,32,45.43,0.6926,-0.3215,0.3335,-0.5528,-0.7,0.2,1,0.014,0.015,0,1023
2018,5,11,13,32,45.468,0.6926,-0.3215,0.3335,-0.5528,-0.7,0,0.8,0.013,0.017,0.001,1023
2018,5,11,13,32,45.486,0.6925,-0.3215,0.3335,-0.5529,-0.8,0.1,0.7,0.012,0.018,0,1023
2018,5,11,13,32,45.491,0.6924,-0.3216,0.3335,-0.5529,-1.1,0,1,0.017,0.016,0.001,1023
2018,5,11,13,32,45.51,0.6924,-0.3216,0.3336,-0.5529,-0.9,0,1,0.011,0.014,-0.003,1023
2018,5,11,13,32,45.527,0.6923,-0.3217,0.3337,-0.553,-0.5,0,1,0.014,0.01,0.004,1023
2018,5,11,13,32,45.546,0.6923,-0.3216,0.3337,-0.5529,-0.4,0,1,0.011,0.015,0.002,0
2018,5,11,13,32,45.566,0.6924,-0.3216,0.3337,-0.5528,-0.4,0,1,0.012,0.012,0.002,0
2018,5,11,13,32,45.588,0.6924,-0.3216,0.3337,-0.5529,0,0.4,0.9,0.012,0.009,-0.004,0
2018,5,11,13,32,45.609,0.6926,-0.3215,0.3336,-0.5528,0.5,0.6,0.5,0.013,0.018,0.005,0
2018,5,11,13,32,45.629,0.6928,-0.3213,0.3335,-0.5526,-0.7,0.2,0.7,0.017,0.028,0.008,0
2018,5,11,13,32,45.65,0.6926,-0.3214,0.3335,-0.5528,-2.3,-0.2,1.3,0.012,0.025,0.005,0
2018,5,11,13,32,45.67,0.6925,-0.3216,0.3338,-0.5527,-2.7,-0.4,1.1,0.01,0.006,-0.001,0
2018,5,11,13,32,45.691,0.6923,-0.3219,0.334,-0.5526,-1.1,-0.1,0.8,0.012,0.003,-0.004,0
2018,5,11,13,32,45.712,0.6923,-0.3219,0.3341,-0.5526,0.2,0.5,0.4,0.016,0.009,-0.002,0
2018,5,11,13,32,45.73,0.6923,-0.3218,0.3339,-0.5527,0.8,0.5,0.7,0.019,0.017,0.001,0
2018,5,11,13,32,45.75,0.6924,-0.3216,0.3338,-0.5527,0.3,0.3,1.1,0.016,0.023,0.005,0
2018,5,11,13,32,45.767,0.6925,-0.3215,0.3337,-0.5528,-0.6,0,1.1,0.012,0.022,0.007,0
2018,5,11,13,32,45.787,0.6924,-0.3216,0.3338,-0.5528,-1.5,-0.1,1.1,0.009,0.016,0.005,0
2018,5,11,13,32,45.826,0.6922,-0.3217,0.3339,-0.5529,-1.4,-0.2,1,0.017,0.011,0.002,0
2018,5,11,13,32,45.848,0.6922,-0.3217,0.334,-0.5528,-0.9,0.1,1,0.013,0.01,-0.004,0
2018,5,11,13,32,45.853,0.6921,-0.3218,0.334,-0.5529,-0.6,0,0.8,0.015,0.013,0,0
2018,5,11,13,32,45.873,0.6922,-0.3218,0.334,-0.5528,-0.2,0,1,0.01,0.013,0.005,0
2018,5,11,13,32,45.891,0.6921,-0.3218,0.334,-0.5529,-0.4,0.1,0.9,0.012,0.016,0.001,0
2018,5,11,13,32,45.93,0.6922,-0.3217,0.3339,-0.5528,-0.1,0.3,0.7,0.013,0.015,0.002,0
2018,5,11,13,32,45.95,0.6922,-0.3217,0.3339,-0.5529,-0.2,0.1,0.8,0.013,0.016,0,0
2018,5,11,13,32,45.955,0.6921,-0.3217,0.3339,-0.553,-0.9,0.1,0.8,0.012,0.014,0.005,0
2018,5,11,13,32,45.97,0.6922,-0.3217,0.3339,-0.5528,-0.5,0,0.8,0.015,0.009,0,0
2018,5,11,13,32,45.991,0.6925,-0.3216,0.334,-0.5526,-0.1,0.4,0.8,0.014,0.01,0.001,0
2018,5,11,13,32,46.009,0.6926,-0.3215,0.334,-0.5524,-0.1,0.1,0.5,0.012,0.019,0,0
2018,5,11,13,32,46.047,0.6926,-0.3214,0.3339,-0.5525,-0.6,0.1,0.7,0.013,0.018,0.003,0
2018,5,11,13,32,46.067,0.6926,-0.3214,0.334,-0.5525,-1.2,-0.1,1,0.014,0.015,0,0
2018,5,11,13,32,46.071,0.6924,-0.3216,0.334,-0.5526,-1.5,-0.1,1.1,0.011,0.017,0.005,0
2018,5,11,13,32,46.11,0.6923,-0.3217,0.3341,-0.5526,-1.3,0,0.9,0.012,0.013,0,0
2018,5,11,13,32,46.131,0.6924,-0.3217,0.3342,-0.5524,-0.8,0,0.8,0.011,0.011,0.005,0
2018,5,11,13,32,46.135,0.6923,-0.3218,0.3343,-0.5525,-0.4,0.1,0.7,0.015,0.01,0.004,0
2018,5,11,13,32,46.153,0.6924,-0.3217,0.3343,-0.5524,-0.1,0.1,0.8,0.016,0.012,0.001,0
2018,5,11,13,32,46.175,0.6925,-0.3216,0.3343,-0.5523,-0.4,0.2,0.8,0.014,0.013,0,0
2018,5,11,13,32,46.212,0.6925,-0.3216,0.3342,-0.5524,-0.5,0.1,0.9,0.014,0.015,0.004,0
2018,5,11,13,32,46.214,0.6926,-0.3216,0.3343,-0.5523,-0.7,0,1.1,0.013,0.016,0,0
2018,5,11,13,32,46.228,0.6926,-0.3216,0.3343,-0.5522,-0.5,0,0.9,0.01,0.016,0.002,0
2018,5,11,13,32,46.267,0.6926,-0.3216,0.3343,-0.5522,-0.4,0.1,0.8,0.012,0.015,0.003,0
2018,5,11,13,32,46.287,0.6928,-0.3215,0.3343,-0.5521,-0.4,0.1,0.8,0.012,0.016,0.002,0
2018,5,11,13,32,46.289,0.6928,-0.3215,0.3343,-0.552,-0.3,0.1,0.7,0.015,0.013,-0.001,0
2018,5,11,13,32,46.33,0.6929,-0.3214,0.3343,-0.5519,-0.5,0.1,1,0.013,0.015,0,0
2018,5,11,13,32,46.349,0.693,-0.3214,0.3343,-0.5519,-0.5,0.3,0.8,0.013,0.017,0.002,0
2018,5,11,13,32,46.353,0.693,-0.3214,0.3343,-0.5518,-0.6,0.1,1,0.014,0.013,0.002,0
2018,5,11,13,32,46.375,0.693,-0.3214,0.3343,-0.5518,-0.6,0.1,1,0.012,0.015,0.003,0
2018,5,11,13,32,46.396,0.6929,-0.3215,0.3343,-0.5519,-0.7,0.1,0.9,0.012,0.013,0.006,0
2018,5,11,13,32,46.415,0.6931,-0.3214,0.3343,-0.5517,-0.7,0.1,0.8,0.014,0.015,0,0
2018,5,11,13,32,46.43,0.693,-0.3215,0.3343,-0.5518,-0.9,0.2,1,0.014,0.017,0.004,0
2018,5,11,13,32,46.468,0.6931,-0.3215,0.3343,-0.5516,-0.9,0.1,0.9,0.011,0.014,0.008,0
2018,5,11,13,32,46.487,0.6931,-0.3215,0.3344,-0.5516,-0.7,0,0.8,0.01,0.011,0.003,1023
2018,5,11,13,32,46.492,0.6931,-0.3215,0.3344,-0.5515,-0.6,0.2,0.9,0.013,0.014,0.004,1023
2018,5,11,13,32,46.513,0.693,-0.3216,0.3343,-0.5517,-0.4,0.1,0.7,0.013,0.016,0.005,1023
2018,5,11,13,32,46.535,0.693,-0.3217,0.3343,-0.5516,-0.5,0.2,0.9,0.014,0.015,-0.001,1023
2018,5,11,13,32,46.571,0.693,-0.3217,0.3343,-0.5516,-0.5,0.1,0.9,0.014,0.014,0.001,1023
2018,5,11,13,32,46.592,0.6932,-0.3216,0.3344,-0.5514,-0.5,0.1,0.9,0.016,0.014,0.007,1023
2018,5,11,13,32,46.596,0.6931,-0.3216,0.3344,-0.5515,-0.5,0.2,0.8,0.013,0.015,0,1023
2018,5,11,13,32,46.635,0.693,-0.3217,0.3343,-0.5516,-0.4,0.1,0.8,0.012,0.016,0,1023
2018,5,11,13,32,46.653,0.6931,-0.3217,0.3343,-0.5516,-0.4,0.3,0.8,0.012,0.016,0.002,1023
2018,5,11,13,32,46.657,0.6933,-0.3216,0.3343,-0.5514,-0.2,0.3,0.9,0.012,0.014,0.004,1023
2018,5,11,13,32,46.677,0.6933,-0.3216,0.3342,-0.5514,-0.3,0.3,0.8,0.012,0.014,0.006,1023
2018,5,11,13,32,46.696,0.6934,-0.3215,0.3342,-0.5513,-0.5,0.2,0.8,0.013,0.017,0.005,1023
2018,5,11,13,32,46.735,0.6933,-0.3216,0.3342,-0.5514,-0.9,0,1,0.012,0.015,0.003,1023
2018,5,11,13,32,46.739,0.6933,-0.3216,0.3343,-0.5513,-1,0,1,0.011,0.013,0,1023
2018,5,11,13,32,46.754,0.6931,-0.3218,0.3343,-0.5515,-0.9,0.1,0.9,0.013,0.011,0,1023
2018,5,11,13,32,46.792,0.6932,-0.3218,0.3343,-0.5513,-0.3,0.1,0.9,0.013,0.012,0,1023
2018,5,11,13,32,46.814,0.6933,-0.3217,0.3343,-0.5513,-0.2,0.2,0.9,0.011,0.013,0.002,1023
2018,5,11,13,32,46.818,0.6932,-0.3218,0.3342,-0.5514,0.1,0.4,0.9,0.013,0.01,0,0
2018,5,11,13,32,46.838,0.6931,-0.3218,0.3341,-0.5516,0.5,0.6,0.6,0.012,0.016,0.004,0
2018,5,11,13,32,46.858,0.6932,-0.3216,0.3339,-0.5516,-0.1,0.1,0.6,0.013,0.024,0.007,0
2018,5,11,13,32,46.879,0.6933,-0.3216,0.3339,-0.5515,-2.3,-0.3,1.1,0.01,0.027,0.012,0
2018,5,11,13,32,46.898,0.6931,-0.3218,0.3341,-0.5515,-3.1,-0.3,1.1,0.014,0.01,0,0
2018,5,11,13,32,46.921,0.693,-0.3221,0.3344,-0.5513,-2.1,-0.2,1,0.011,0,-0.008,0
2018,5,11,13,32,46.94,0.6929,-0.3223,0.3345,-0.5513,0,0.3,0.5,0.013,0.001,-0.006,0
2018,5,11,13,32,46.96,0.6931,-0.3222,0.3344,-0.5512,1.4,0.6,0.4,0.018,0.014,0.001,0
2018,5,11,13,32,46.977,0.6931,-0.322,0.3342,-0.5515,0.9,0.3,0.7,0.017,0.017,0.003,0
2018,5,11,13,32,46.997,0.6931,-0.3218,0.334,-0.5516,-0.1,0,1.3,0.016,0.023,0.009,0
2018,5,11,13,32,47.018,0.693,-0.3218,0.334,-0.5518,-1,-0.2,1.2,0.012,0.021,0,0
2018,5,11,13,32,47.037,0.693,-0.3219,0.3341,-0.5517,-1.5,-0.2,1.1,0.011,0.011,0,0
2018,5,11,13,32,47.058,0.6929,-0.322,0.3342,-0.5517,-1.2,0,1,0.016,0.006,-0.003,0
2018,5,11,13,32,47.098,0.6928,-0.3221,0.3343,-0.5517,-0.5,0.3,0.8,0.014,0.014,0,0
2018,5,11,13,32,47.103,0.693,-0.322,0.3343,-0.5515,-0.2,0.1,0.9,0.015,0.017,0,0
2018,5,11,13,32,47.117,0.6928,-0.3221,0.3342,-0.5517,-0.2,0.3,0.9,0.011,0.019,0.001,0
2018,5,11,13,32,47.154,0.6929,-0.322,0.3342,-0.5517,-0.2,0.2,0.8,0.011,0.011,0.002,0
2018,5,11,13,32,47.174,0.6929,-0.322,0.3341,-0.5517,-0.4,0.3,0.8,0.011,0.016,0.006,0
2018,5,11,13,32,47.177,0.6928,-0.3221,0.3341,-0.5519,-0.8,0,0.8,0.012,0.018,0.003,0
2018,5,11,13,32,47.214,0.6928,-0.3221,0.3341,-0.5518,-0.7,0,0.8,0.013,0.012,-0.002,0
2018,5,11,13,32,47.236,0.6928,-0.3221,0.3342,-0.5517,-0.1,0.1,0.7,0.015,0.01,-0.003,0
2018,5,11,13,32,47.24,0.6929,-0.322,0.3341,-0.5517,0.1,0.5,0.8,0.017,0.014,0,0
2018,5,11,13,32,47.26,0.693,-0.3219,0.3341,-0.5516,-0.1,0.4,0.8,0.013,0.02,0.004,1023
2018,5,11,13,32,47.28,0.6931,-0.3219,0.3341,-0.5516,-1,0.1,0.9,0.014,0.017,0.002,1023
2018,5,11,13,32,47.318,0.693,-0.322,0.3341,-0.5516,-1.5,-0.1,1,0.01,0.016,0.003,1023
2018,5,11,13,32,47.339,0.6929,-0.3221,0.3343,-0.5516,-1.6,-0.2,0.9,0.012,0.01,-0.003,1023
2018,5,11,13,32,47.343,0.6928,-0.3222,0.3344,-0.5515,-1.2,0,0.8,0.013,0.01,0,1023
2018,5,11,13,32,47.361,0.6927,-0.3223,0.3345,-0.5516,-0.4,0,0.8,0.012,0.01,-0.005,1023
2018,5,11,13,32,47.4,0.6925,-0.3224,0.3344,-0.5518,0,0.1,0.9,0.012,0.01,0,1023
2018,5,11,13,32,47.42,0.6924,-0.3224,0.3343,-0.552,0,0.1,1,0.012,0.016,-0.001,1023
2018,5,11,13,32,47.425,0.6926,-0.3223,0.3343,-0.5519,-0.1,0.1,0.8,0.01,0.014,0.001,0
2018,5,11,13,32,47.44,0.6927,-0.3222,0.3342,-0.5517,-0.3,0.2,0.8,0.011,0.014,0.001,0
2018,5,11,13,32,47.478,0.6927,-0.3222,0.3342,-0.5518,-0.4,0.1,0.8,0.013,0.015,-0.001,0
2018,5,11,13,32,47.497,0.6926,-0.3222,0.3342,-0.552,-0.1,0.3,0.9,0.013,0.015,0.005,0
2018,5,11,13,32,47.502,0.6925,-0.3222,0.3341,-0.5521,-0.4,0.1,1,0.013,0.016,0.005,0
2018,5,11,13,32,47.52,0.6925,-0.3222,0.3341,-0.5521,0,0.1,0.8,0.016,0.016,0.003,0
2018,5,11,13,32,47.54,0.6926,-0.3221,0.334,-0.5521,-0.2,0.1,0.8,0.013,0.015,0,0
2018,5,11,13,32,47.58,0.6925,-0.3221,0.334,-0.5523,-0.6,0.1,0.9,0.011,0.016,0.004,0
2018,5,11,13,32,47.601,0.6923,-0.3222,0.334,-0.5524,-0.5,0.1,1,0.013,0.012,0,0
2018,5,11,13,32,47.605,0.6924,-0.3221,0.334,-0.5524,-0.4,0.1,0.8,0.014,0.015,0.004,0
2018,5,11,13,32,47.64,0.6926,-0.3221,0.334,-0.5522,-0.6,0.1,0.9,0.012,0.016,0.004,0
2018,5,11,13,32,47.66,0.6926,-0.322,0.334,-0.5521,-0.5,0.2,0.8,0.013,0.012,0.001,0
2018,5,11,13,32,47.664,0.6924,-0.3221,0.3339,-0.5524,-0.7,0.3,0.8,0.013,0.014,0.005,0
2018,5,11,13,32,47.682,0.6924,-0.3221,0.3339,-0.5524,-0.4,0.1,0.9,0.011,0.014,-0.001,0
2018,5,11,13,32,47.721,0.6924,-0.3221,0.3339,-0.5523,-0.6,0.2,0.9,0.016,0.012,0.003,1023
2018,5,11,13,32,47.74,0.6923,-0.3222,0.3339,-0.5525,-0.4,0.3,0.9,0.013,0.014,0,1023
2018,5,11,13,32,47.744,0.6924,-0.3221,0.3339,-0.5524,-0.3,0.1,0.7,0.014,0.015,0.003,1023
2018,5,11,13,32,47.763,0.6926,-0.322,0.334,-0.5522,-0.3,0.2,1,0.011,0.014,0,1023
2018,5,11,13,32,47.801,0.6927,-0.322,0.3339,-0.5521,-0.2,0,0.8,0.014,0.015,0.003,1023
2018,5,11,13,32,47.823,0.6927,-0.322,0.3339,-0.5521,-0.6,0.2,0.8,0.013,0.015,-0.003,1023
2018,5,11,13,32,47.827,0.6928,-0.322,0.3339,-0.552,-0.2,0.1,0.8,0.015,0.011,0.005,1023
2018,5,11,13,32,47.846,0.6927,-0.322,0.3339,-0.5521,-0.3,0,0.8,0.011,0.014,-0.002,1023
2018,5,11,13,32,47.865,0.6928,-0.3219,0.3339,-0.552,-0.2,0.1,1,0.013,0.014,-0.001,1023
2018,5,11,13,32,47.887,0.6926,-0.322,0.3339,-0.5522,-0.1,0.3,0.8,0.013,0.012,0,1023
2018,5,11,13,32,47.906,0.6926,-0.322,0.3338,-0.5523,0,0.3,0.8,0.012,0.017,0.003,1023
2018,5,11,13,32,47.928,0.6928,-0.3219,0.3338,-0.5522,-0.1,0.3,1,0.01,0.017,0.003,0
2018,5,11,13,32,47.946,0.6927,-0.3218,0.3337,-0.5523,-0.4,0.1,1,0.012,0.016,0.003,0
2018,5,11,13,32,47.963,0.6927,-0.3219,0.3337,-0.5523,-0.8,0,0.8,0.012,0.017,0.003,0
2018,5,11,13,32,47.984,0.6926,-0.3219,0.3337,-0.5523,-1.2,0,1,0.013,0.014,0.002,0
2018,5,11,13,32,48.003,0.6924,-0.3221,0.3338,-0.5525,-0.8,0,1.1,0.01,0.011,-0.001,0
2018,5,11,13,32,48.023,0.6924,-0.3221,0.3338,-0.5525,-0.3,0.1,0.9,0.011,0.011,-0.001,0
2018,5,11,13,32,48.064,0.6923,-0.3222,0.3337,-0.5526,0,0.3,0.7,0.012,0.009,0,0
2018,5,11,13,32,48.068,0.6923,-0.3221,0.3336,-0.5527,0.5,0.4,0.7,0.011,0.012,-0.003,0
2018,5,11,13,32,48.087,0.6924,-0.322,0.3334,-0.5527,0.3,0.6,0.6,0.014,0.016,0.006,0
2018,5,11,13,32,48.107,0.6925,-0.3219,0.3334,-0.5528,-1.3,0.1,0.7,0.012,0.028,0.007,0
2018,5,11,13,32,48.126,0.6924,-0.322,0.3335,-0.5527,-2.7,-0.1,1.4,0.008,0.014,0.003,0
2018,5,11,13,32,48.146,0.6921,-0.3223,0.3337,-0.5528,-3.5,0.1,1.2,0.008,0.019,0.004,0
2018,5,11,13,32,48.168,0.6919,-0.3229,0.3342,-0.5524,0.1,0.5,-1.6,0.029,-0.044,-0.029,0
2018,5,11,13,32,48.189,0.6923,-0.3224,0.3341,-0.5522,1.4,0.4,0.8,0.023,0.069,-0.003,0
2018,5,11,13,32,48.205,0.6922,-0.3226,0.3341,-0.5522,-5.2,0.8,-0.8,0.006,-0.044,0.001,0
2018,5,11,13,32,48.225,0.6923,-0.3233,0.3347,-0.5514,3.4,3.3,-8.7,0.001,-0.179,-0.005,0
2018,5,11,13,32,48.245,0.6944,-0.3223,0.334,-0.5498,24.4,10.3,-16.1,0.035,-0.112,-0.079,0
2018,5,11,13,32,48.267,0.6978,-0.3185,0.3311,-0.5493,26,5.7,-13.2,0.003,0.111,0.015,0
2018,5,11,13,32,48.287,0.7004,-0.3155,0.3289,-0.5491,13,2.6,-0.2,0.033,0.351,0.011,0
2018,5,11,13,32,48.325,0.6998,-0.3162,0.3289,-0.5494,-14.2,-1.6,4,0,0,0.04,0
2018,5,11,13,32,48.347,0.6991,-0.3171,0.3296,-0.5494,-0.7,-0.7,6.2,0.036,0.01,0.033,0
2018,5,11,13,32,48.351,0.6987,-0.3165,0.329,-0.5506,-0.1,-2.7,10.9,0.007,0.107,0.059,0
2018,5,11,13,32,48.369,0.6974,-0.3171,0.3294,-0.5517,-21.5,-6.7,9.7,0.03,0.054,0.057,0
2018,5,11,13,32,48.407,0.6952,-0.3191,0.332,-0.5518,-12.7,-5.2,8,0.074,-0.061,-0.009,0
2018,5,11,13,32,48.427,0.694,-0.3201,0.3334,-0.5519,-9.8,-0.8,4.3,0.062,0.009,0.023,0
2018,5,11,13,32,48.431,0.6934,-0.3213,0.3347,-0.5511,-5.7,1.1,-5.5,0.023,-0.072,0.059,0
2018,5,11,13,32,48.448,0.6942,-0.3206,0.3358,-0.5498,-3.9,-2.9,-12.1,0.123,-0.006,0.098,0
2018,5,11,13,32,48.484,0.6955,-0.3195,0.3388,-0.547,-13,-5.8,-24.7,0.132,-0.119,0.069,0
2018,5,11,13,32,48.504,0.6967,-0.3201,0.3438,-0.542,-30.7,-1.8,-33.7,0.056,-0.109,-0.086,0
2018,5,11,13,32,48.509,0.699,-0.3213,0.3473,-0.5361,-0.9,17.1,-31.3,0.337,-0.055,-0.393,0
2018,5,11,13,32,48.548,0.7057,-0.3182,0.3421,-0.5324,52.5,38.7,-29.2,0.041,-0.019,-0.258,0
2018,5,11,13,32,48.568,0.7139,-0.3131,0.3314,-0.5313,81.1,53.8,-14.2,-0.024,-0.094,-0.391,0
2018,5,11,13,32,48.572,0.7231,-0.3052,0.3149,-0.5336,124.7,58.9,1.3,-0.255,-0.124,-0.354,0
2018,5,11,13,32,48.59,0.7322,-0.2943,0.2957,-0.5382,125.4,49.9,0.9,-0.166,-0.11,-0.254,0
2018,5,11,13,32,48.61,0.7407,-0.2839,0.2803,-0.5404,99.1,36.6,-19.7,-0.177,-0.244,0.02,0
2018,5,11,13,32,48.631,0.7495,-0.2739,0.2684,-0.5394,82.4,33.7,-41.5,-0.081,-0.232,0.124,0
2018,5,11,13,32,48.649,0.7584,-0.2665,0.2596,-0.535,63.5,31.6,-57.4,-0.067,-0.214,0.155,0
2018,5,11,13,32,48.668,0.7686,-0.2583,0.2521,-0.528,75.4,30.1,-76.9,-0.03,-0.253,0.098,1023
2018,5,11,13,32,48.688,0.7809,-0.2468,0.2446,-0.5189,89.4,25.9,-96.6,0,-0.236,0.068,1023
2018,5,11,13,32,48.725,0.7947,-0.2326,0.2385,-0.5072,93,18.7,-110.2,0.05,-0.168,0.005,1023
2018,5,11,13,32,48.746,0.8088,-0.2162,0.2324,-0.4949,111.8,15.1,-116.1,0.011,-0.168,-0.054,1023
2018,5,11,13,32,48.75,0.8234,-0.1961,0.2252,-0.4824,119.6,7,-122.6,-0.077,-0.182,-0.023,1023
2018,5,11,13,32,48.769,0.8374,-0.1755,0.22,-0.4684,98.4,-5.3,-131.9,-0.077,-0.161,0.103,1023
2018,5,11,13,32,48.789,0.8502,-0.1554,0.2185,-0.4529,97,-29.4,-137.7,-0.102,-0.231,0.36,1023
2018,5,11,13,32,48.831,0.862,-0.1315,0.2203,-0.4371,106.7,-52.6,-140.9,-0.198,-0.252,0.372,1023
2018,5,11,13,32,48.85,0.8727,-0.1046,0.2239,-0.4209,119.6,-64,-148.8,-0.253,-0.345,0.24,1023
2018,5,11,13,32,48.854,0.8831,-0.0725,0.2273,-0.4037,152.3,-78.9,-159.2,-0.252,-0.285,0.309,0
2018,5,11,13,32,48.872,0.8915,-0.0365,0.2337,-0.3862,129.3,-120.5,-154.1,-0.281,-0.025,0.497,0
2018,5,11,13,32,48.892,0.8954,-0.0071,0.2507,-0.3676,59.6,-159.5,-141,-0.211,-0.136,0.234,0
2018,5,11,13,32,48.915,0.8961,0.0179,0.2729,-0.3493,72.5,-169.5,-124.6,-0.035,-0.416,0.008,0
2018,5,11,13,32,48.93,0.894,0.0539,0.289,-0.338,180.5,-146.7,-97.2,0.292,-0.043,-0.287,0
2018,5,11,13,32,48.953,0.8894,0.097,0.2962,-0.3342,190.9,-118.5,-70.8,0.205,0.476,-0.06,0
2018,5,11,13,32,48.971,0.8847,0.1321,0.3031,-0.3283,132.7,-108.7,-85.9,0.144,-0.075,0.199,0
2018,5,11,13,32,48.99,0.8817,0.1602,0.3098,-0.3175,107.3,-91.6,-103,0.121,-0.087,0.016,0
2018,5,11,13,32,49.011,0.8803,0.1845,0.3135,-0.3042,73.9,-67.6,-111.6,0.273,0.094,-0.125,0
2018,5,11,13,32,49.048,0.8819,0.2002,0.3155,-0.2871,6.8,-36.7,-117.2,0.344,0.394,-0.148,0
2018,5,11,13,32,49.07,0.8893,0.1958,0.3192,-0.2622,-138.2,-19.5,-129.9,0.273,-0.085,0.111,0
2018,5,11,13,32,49.074,0.8987,0.1841,0.3223,-0.2331,-111.3,-1.9,-147,0.524,-0.476,0.021,0
2018,5,11,13,32,49.093,0.9077,0.1796,0.3197,-0.2036,-51.6,16.1,-170.3,0.634,-0.819,-0.316,0
2018,5,11,13,32,49.114,0.9162,0.1862,0.3084,-0.1749,9.5,53.8,-196.7,0.498,-0.626,-0.463,0
2018,5,11,13,32,49.131,0.9253,0.1965,0.2909,-0.143,-10.8,69.3,-227.8,0.411,-0.264,-0.474,0
2018,5,11,13,32,49.15,0.935,0.2029,0.2712,-0.1049,-28.8,78.2,-257.2,0.47,-0.537,-0.691,0
2018,5,11,13,32,49.17,0.9433,0.212,0.2471,-0.063,10.3,97.2,-283.5,0.499,-0.537,-0.827,0
2018,5,11,13,32,49.192,0.9485,0.2282,0.2184,-0.0198,39.7,108.6,-300.8,0.351,-0.278,-0.754,0
2018,5,11,13,32,49.212,0.9505,0.246,0.1879,0.0249,39.3,108,-309.3,0.144,-0.196,-0.582,0
2018,5,11,13,32,49.253,0.95,0.2604,0.1566,0.071,8.4,107.7,-312.4,0.158,-0.265,-0.701,0
2018,5,11,13,32,49.273,0.9478,0.2692,0.1231,0.1177,-7.2,122.9,-312.7,0.396,-0.455,-0.963,1023
2018,5,11,13,32,49.277,0.9422,0.2799,0.0861,0.1622,28.6,147.8,-308,0.369,-0.481,-0.931,1023
2018,5,11,13,32,49.296,0.9319,0.2954,0.0471,0.2046,55.4,153,-309,0.165,-0.609,-0.76,1023
2018,5,11,13,32,49.315,0.9174,0.3124,0.0094,0.2462,58.4,140.1,-304.6,0.103,-0.628,-0.705,1023
2018,5,11,13,32,49.336,0.9006,0.3257,-0.0261,0.2862,38.6,129.5,-292.1,0.25,-0.654,-0.871,1023
2018,5,11,13,32,49.355,0.8826,0.3355,-0.0619,0.3233,27.2,136.8,-277.8,0.394,-0.732,-1.041,1023
2018,5,11,13,32,49.395,0.8625,0.3446,-0.0986,0.3571,28.1,150.3,-275.9,0.437,-0.851,-0.913,1023
2018,5,11,13,32,49.399,0.8391,0.3528,-0.1365,0.3907,27.5,149.8,-291.5,0.398,-1.002,-0.73,1023
2018,5,11,13,32,49.416,0.8129,0.3588,-0.174,0.4242,23.4,144,-286,0.638,-0.92,-0.704,1023
2018,5,11,13,32,49.433,0.7851,0.3652,-0.2092,0.4543,44.4,149.8,-259.6,0.719,-0.999,-0.639,1023
2018,5,11,13,32,49.473,0.7549,0.3772,-0.2405,0.4794,87.1,161.2,-226.5,0.574,-0.982,-0.592,1023
2018,5,11,13,32,49.492,0.7215,0.3968,-0.2661,0.5011,142.5,167,-203.1,0.573,-1.006,-0.796,1023
2018,5,11,13,32,49.496,0.6848,0.422,-0.2856,0.5208,175.6,158.6,-181.6,0.444,-0.96,-0.352,1023
2018,5,11,13,32,49.515,0.6479,0.4488,-0.2974,0.5388,196,123.7,-145.5,0.248,-0.901,0.203,1023
2018,5,11,13,32,49.535,0.6163,0.4739,-0.2992,0.5531,180.6,84.4,-82.1,0.291,-0.759,0.108,1023
2018,5,11,13,32,49.577,0.5967,0.4903,-0.3,0.5598,32.5,58.6,-48.8,0.245,-0.339,-0.037,1023
2018,5,11,13,32,49.596,0.5973,0.4829,-0.3156,0.5569,-143.6,9.3,-41.1,-0.158,-0.838,-0.507,1023
2018,5,11,13,32,49.6,0.6039,0.4697,-0.3274,0.5543,-65.5,-14.1,-10.1,-0.656,-1.151,-0.098,1023
2018,5,11,13,32,49.619,0.6106,0.4601,-0.3317,0.5525,-77.6,-24,0,-0.665,-1.475,-0.703,1023
2018,5,11,13,32,49.639,0.6158,0.4498,-0.3421,0.5489,-95.6,33.4,-38.5,-1.077,-1.758,-2.122,1023
2018,5,11,13,32,49.677,0.6091,0.4463,-0.3584,0.5488,21.8,75.1,-103.6,-1.634,-2.988,-1.169,1023
2018,5,11,13,32,49.697,0.5796,0.4572,-0.3729,0.562,21.2,315.3,-224.4,-0.322,-0.455,-14.55,1023
2018,5,11,13,32,49.701,0.5894,0.4133,-0.4379,0.5384,-403.3,-127.3,86.9,-4.676,2.666,4.634,1023
2018,5,11,13,32,49.717,0.6218,0.3415,-0.4583,0.5353,-221.2,-144.1,-171.8,-0.454,1.554,0.816,0
2018,5,11,13,32,49.738,0.6126,0.3214,-0.4708,0.5474,87.2,69.5,-121.3,2.447,-2.123,2.13,0
2018,5,11,13,32,49.758,0.5568,0.3302,-0.4825,0.5898,43.3,22.4,-186,0.113,0.496,-0.338,0
2018,5,11,13,32,49.795,0.5366,0.3195,-0.489,0.6088,18.4,-9.9,-161.9,0.069,-0.785,0.305,0
2018,5,11,13,32,49.815,0.5204,0.3064,-0.4905,0.6281,44.9,-49.6,-162.6,-0.322,0.763,-0.141,0
2018,5,11,13,32,49.819,0.5067,0.2877,-0.4862,0.6511,37.5,-105.1,-158.9,-0.097,-0.465,-0.522,0
2018,5,11,13,32,49.841,0.5003,0.2616,-0.4818,0.67,3.5,-130.8,-117.7,0.655,-0.345,-0.386,0
2018,5,11,13,32,49.861,0.4963,0.2384,-0.4736,0.6873,22.8,-123.1,-125.2,-0.374,0.316,0.423,0
2018,5,11,13,32,49.88,0.4891,0.2111,-0.4681,0.7049,-36.2,-129.1,-153.1,0.279,0.294,-0.837,0
2018,5,11,13,32,49.918,0.4826,0.1834,-0.4661,0.7183,-4.8,-106.8,-129.2,0.071,-0.602,0.233,0
2018,5,11,13,32,49.937,0.4753,0.1606,-0.4614,0.7316,-2,-101,-120.9,-0.126,0.327,-0.02,0
2018,5,11,13,32,49.941,0.4684,0.1379,-0.4558,0.7441,-8.2,-110.2,-106.1,0.292,-0.044,-0.095,0
2018,5,11,13,32,49.96,0.4654,0.1143,-0.4501,0.7534,0.5,-110.9,-83.9,0.26,0.366,-0.103,0
2018,5,11,13,32,49.98,0.4621,0.092,-0.4426,0.7628,-1.6,-110.5,-102.5,-0.207,0.253,-0.072,0
2018,5,11,13,32,50,0.4556,0.0662,-0.439,0.7715,-47.6,-115.8,-123.4,-0.036,-0.601,-0.237,0
2018,5,11,13,32,50.037,0.4487,0.0377,-0.4365,0.7788,-59.2,-135.2,-119.6,-0.202,-0.078,0.118,0
2018,5,11,13,32,50.057,0.4445,0.0035,-0.436,0.7824,-91.5,-145.9,-100.3,0.612,0.2,-0.417,0
2018,5,11,13,32,50.061,0.4422,-0.029,-0.4374,0.7824,-58.1,-112.9,-83.3,-0.129,-0.804,0.238,0
2018,5,11,13,32,50.099,0.4394,-0.0508,-0.4338,0.7848,-34.5,-90.1,-68.5,-0.429,0.319,0.427,0
2018,5,11,13,32,50.119,0.4362,-0.0711,-0.4348,0.7845,-80.4,-70.1,-59.1,0.036,0.104,0.114,0
2018,5,11,13,32,50.123,0.4327,-0.0902,-0.4428,0.78,-81.2,-38.4,-35,0.076,-0.063,-0.205,0
2018,5,11,13,32,50.14,0.4293,-0.0978,-0.4471,0.7785,-2,4.8,-16.6,0.074,0.097,0.127,0
2018,5,11,13,32,50.158,0.4287,-0.0991,-0.4487,0.7777,-28.7,1.2,2.8,0.114,-0.3,-0.219,0
2018,5,11,13,32,50.179,0.4296,-0.0992,-0.4509,0.776,-36.7,5.3,7,0.338,-0.876,-0.487,0
2018,5,11,13,32,50.215,0.4268,-0.0996,-0.4557,0.7747,-19.6,17.6,-14.2,-0.016,-0.16,0.013,0
2018,5,11,13,32,50.235,0.4232,-0.0998,-0.46,0.7741,-26.6,15.3,-16.1,-0.088,-0.103,-0.071,0
2018,5,11,13,32,50.238,0.4201,-0.1,-0.4642,0.7732,-10.9,14.4,-6.3,-0.049,-0.086,-0.063,0
2018,5,11,13,32,50.276,0.4186,-0.0988,-0.4663,0.773,5.9,11.2,4.3,0.053,-0.085,-0.1,0
2018,5,11,13,32,50.297,0.4191,-0.0964,-0.4661,0.7731,4.7,5.7,11.3,0.105,-0.066,-0.136,0
2018,5,11,13,32,50.301,0.4206,-0.0955,-0.4663,0.7723,-4.8,-6,9.5,0.093,-0.026,-0.108,0
2018,5,11,13,32,50.322,0.4225,-0.097,-0.4667,0.7708,-0.9,-16,12.3,0.017,-0.013,-0.061,0
2018,5,11,13,32,50.343,0.4263,-0.0982,-0.4654,0.7693,10.9,-22.3,20,-0.006,-0.006,-0.056,0
2018,5,11,13,32,50.359,0.4317,-0.0984,-0.4626,0.768,13,-24.1,29.2,0.019,-0.061,-0.055,0
2018,5,11,13,32,50.397,0.438,-0.0982,-0.46,0.766,17.5,-21.6,37.8,0.052,-0.062,-0.04,0
2018,5,11,13,32,50.418,0.4452,-0.0966,-0.4568,0.764,18.2,-18,44.7,0.047,-0.019,-0.004,0
2018,5,11,13,32,50.422,0.4529,-0.0937,-0.454,0.7614,20.7,-13.2,51,-0.001,-0.018,0.002,0
2018,5,11,13,32,50.443,0.4612,-0.0893,-0.4511,0.7587,25.3,-9.1,56.6,0.031,-0.037,-0.039,0
2018,5,11,13,32,50.463,0.4695,-0.0838,-0.4479,0.7562,32.2,-4.3,57.2,0.044,0.007,-0.037,0
2018,5,11,13,32,50.483,0.4775,-0.0768,-0.444,0.7542,33.9,1.8,56.6,0.023,0.011,0.005,0
2018,5,11,13,32,50.504,0.4849,-0.0692,-0.4412,0.7518,26.8,9.3,57.9,0.008,-0.001,-0.032,0
2018,5,11,13,32,50.525,0.4918,-0.0614,-0.4403,0.7485,16.8,11.5,56.6,-0.019,0.023,-0.024,0
2018,5,11,13,32,50.546,0.4982,-0.0541,-0.439,0.7456,25.9,8.3,47.8,-0.016,0.093,0.059,0
2018,5,11,13,32,50.564,0.5037,-0.0474,-0.4358,0.7443,22.6,1.3,36.6,-0.034,0.096,0.056,0
2018,5,11,13,32,50.582,0.5082,-0.0437,-0.4342,0.7424,3.7,0.8,31.1,-0.005,0.016,0,0
2018,5,11,13,32,50.6,0.5118,-0.0411,-0.4351,0.7395,-0.4,3.7,29.4,-0.016,-0.042,-0.071,1023
2018,5,11,13,32,50.638,0.5148,-0.037,-0.4353,0.7375,16.9,13.4,29.9,-0.015,0.002,-0.006,1023
2018,5,11,13,32,50.659,0.518,-0.0308,-0.4342,0.7362,18.6,15.8,31.2,-0.023,0.053,0.075,1023
2018,5,11,13,32,50.663,0.521,-0.0248,-0.4331,0.7349,13.7,15,28.3,0.029,-0.027,-0.036,1023
2018,5,11,13,32,50.701,0.5226,-0.0195,-0.4337,0.7337,16.2,22.2,21.1,0.016,-0.037,-0.085,1023
2018,5,11,13,32,50.722,0.523,-0.0131,-0.4332,0.7338,30.1,27.5,16.6,0.028,-0.038,0.003,1023
2018,5,11,13,32,50.726,0.5232,-0.0034,-0.4296,0.7358,63.6,31.2,18.4,-0.084,0.059,0.099,1023
2018,5,11,13,32,50.745,0.5239,0.0104,-0.4215,0.7399,102.9,30.9,24.9,-0.115,0.071,0.253,1023
2018,5,11,13,32,50.765,0.5304,0.0298,-0.4,0.7468,162.9,-14.5,54.4,-0.079,0.164,0.487,1023
2018,5,11,13,32,50.786,0.5379,0.0442,-0.379,0.7516,113.6,-21.6,48.6,0.183,0.186,0.134,1023
2018,5,11,13,32,50.823,0.544,0.0524,-0.3645,0.7539,93.2,-23.3,34,0.247,0.146,0.085,1023
2018,5,11,13,32,50.844,0.548,0.0629,-0.3459,0.7589,140.6,-22.8,22.2,0.146,0.216,0.223,1023
2018,5,11,13,32,50.848,0.5497,0.0748,-0.3239,0.7662,142.3,-24.8,8.9,0.239,0.123,0.177,1023
2018,5,11,13,32,50.867,0.549,0.0838,-0.3046,0.7737,121.5,-21.6,-12.7,0.227,0.057,0.104,1023
2018,5,11,13,32,50.885,0.5456,0.0938,-0.2833,0.783,162.8,-24.9,-20.3,0.243,0.081,0.243,1023
2018,5,11,13,32,50.905,0.5402,0.1055,-0.2557,0.7947,198,-35.7,-30.3,0.394,0.042,0.15,0
2018,5,11,13,32,50.925,0.532,0.1169,-0.2264,0.8074,175.9,-31.6,-56.3,0.403,-0.234,-0.195,0
2018,5,11,13,32,50.945,0.5192,0.1224,-0.2046,0.8206,121,-38.8,-89.9,0.27,-0.119,-0.015,0
2018,5,11,13,32,50.965,0.5041,0.1217,-0.1883,0.834,84.8,-48.8,-111.3,0.26,-0.149,0.129,0
2018,5,11,13,32,50.985,0.486,0.1176,-0.1744,0.8482,84.5,-51.3,-129.5,0.296,-0.306,0.111,0
2018,5,11,13,32,51.024,0.4657,0.1134,-0.1591,0.863,95.9,-53.9,-136.5,0.275,-0.315,-0.03,0
2018,5,11,13,32,51.043,0.4438,0.1078,-0.1439,0.8778,64.5,-62.7,-153.6,0.146,-0.203,-0.046,0
2018,5,11,13,32,51.047,0.4196,0.0949,-0.1371,0.8922,10.8,-80.7,-171.4,-0.075,-0.427,0.184,0
2018,5,11,13,32,51.068,0.394,0.0783,-0.1313,0.9062,13.9,-90,-173.8,0.169,-0.05,-0.127,0
2018,5,11,13,32,51.088,0.3694,0.0617,-0.1232,0.9189,43.8,-92.7,-158.6,-0.017,-0.362,-0.231,0
2018,5,11,13,32,51.105,0.3458,0.0464,-0.1105,0.9305,45.1,-96.9,-152.8,-0.104,-0.301,-0.255,0
2018,5,11,13,32,51.143,0.3234,0.0275,-0.1036,0.9401,-23.6,-110.1,-144.1,-0.2,-0.187,-0.206,0
2018,5,11,13,32,51.165,0.3024,0.0023,-0.108,0.947,-104.3,-122.9,-136.7,-0.436,0.225,-0.104,0
2018,5,11,13,32,51.169,0.289,-0.0334,-0.1316,0.9476,-256.6,-142.5,-41.1,-0.365,0.086,0.531,0
2018,5,11,13,32,51.187,0.2826,-0.0563,-0.1798,0.9405,-233.5,23.5,-29.4,-1.032,-1.842,0.475,0
2018,5,11,13,32,51.206,0.2703,-0.0544,-0.1903,0.9421,51.2,65.3,-73.6,-0.332,0.116,-0.727,0
2018,5,11,13,32,51.237,0.2613,-0.0503,-0.1897,0.945,-50.8,-1.9,-23.8,0,-0.136,-0.011,0
2018,5,11,13,32,51.246,0.2591,-0.0531,-0.1969,0.944,-28.4,-3.7,-8,-0.077,-0.038,-0.028,0
2018,5,11,13,32,51.286,0.2587,-0.0542,-0.2012,0.9431,-23.8,0.6,1.5,-0.159,-0.121,0.114,0
2018,5,11,13,32,51.306,0.259,-0.0543,-0.2041,0.9424,-5,1.4,6.9,-0.148,-0.05,-0.018,0
2018,5,11,13,32,51.311,0.2614,-0.0539,-0.203,0.942,8.1,-8.5,16.5,0.012,0.069,0.019,0
2018,5,11,13,32,51.326,0.2647,-0.0553,-0.2017,0.9413,-4.5,-11,18.9,0.093,0.078,0.007,0
2018,5,11,13,32,51.364,0.2682,-0.057,-0.2033,0.9399,-18.9,-9.5,20.7,0.116,0.087,-0.027,0
2018,5,11,13,32,51.384,0.2713,-0.0596,-0.2087,0.9376,-47.4,-10.6,15.7,0.177,-0.004,-0.033,0
2018,5,11,13,32,51.388,0.2729,-0.063,-0.2159,0.9353,-42.1,-8.4,6,0.089,-0.154,0.051,0
2018,5,11,13,32,51.408,0.2733,-0.0661,-0.2217,0.9336,-25.9,-4,4.6,0.097,-0.037,-0.036,0
2018,5,11,13,32,51.427,0.2734,-0.0675,-0.2254,0.9326,-15.8,1.4,-0.5,0.018,-0.187,-0.07,0
2018,5,11,13,32,51.449,0.273,-0.0678,-0.2273,0.9322,-9.4,2.5,0.2,0.004,0.071,0.017,0
2018,5,11,13,32,51.486,0.273,-0.0683,-0.2293,0.9317,-21,-0.9,1.3,0.004,0.039,-0.006,0
2018,5,11,13,32,51.508,0.2731,-0.0697,-0.2328,0.9307,-17.7,-3,2.2,0.017,-0.037,-0.028,0
2018,5,11,13,32,51.512,0.2734,-0.0709,-0.2352,0.9299,-5.7,-2.5,2.2,0.018,-0.078,-0.039,0
2018,5,11,13,32,51.527,0.2736,-0.0715,-0.2358,0.9297,2.4,-0.5,1.1,0.019,-0.014,-0.02,0
2018,5,11,13,32,51.564,0.2738,-0.0716,-0.2355,0.9297,-2,-0.4,1.1,0.013,0.038,0.001,0
2018,5,11,13,32,51.585,0.2739,-0.072,-0.2362,0.9294,-10.7,-1,1.4,0.017,0.031,0,0
2018,5,11,13,32,51.589,0.2741,-0.0727,-0.238,0.9289,-6.5,-1.2,1.9,-0.01,-0.041,-0.016,0
2018,5,11,13,32,51.609,0.2742,-0.0733,-0.2388,0.9286,-1,-1,1,0.013,-0.056,0.003,0
2018,5,11,13,32,51.631,0.2744,-0.0735,-0.2388,0.9285,4.7,0.2,1.2,0.051,-0.04,-0.036,0
2018,5,11,13,32,51.668,0.2745,-0.0733,-0.238,0.9287,7,1.1,0.7,0.014,0.022,-0.001,0
2018,5,11,13,32,51.688,0.2747,-0.073,-0.2372,0.9289,-3.1,0,1.4,0.009,0.051,0.012,0
2018,5,11,13,32,51.692,0.2748,-0.0734,-0.238,0.9286,-6.3,-1,1.1,0.018,-0.005,-0.009,0
2018,5,11,13,32,51.711,0.275,-0.0738,-0.239,0.9283,-3.8,-0.1,1.1,0.032,-0.026,-0.014,0
2018,5,11,13,32,51.728,0.275,-0.0742,-0.2394,0.9281,3,0.6,0.7,0.021,-0.029,-0.019,0
2018,5,11,13,32,51.748,0.2751,-0.074,-0.2387,0.9283,4.6,0.7,0.8,0.016,0.01,-0.001,0
2018,5,11,13,32,51.766,0.2753,-0.0738,-0.2382,0.9284,0.7,0,1.1,0.012,0.021,-0.005,1023
2018,5,11,13,32,51.803,0.2754,-0.0739,-0.2383,0.9283,-2.4,-0.1,1.2,0.017,0.008,-0.005,1023
2018,5,11,13,32,51.823,0.2756,-0.0742,-0.2388,0.9281,-3.2,-0.2,1,0.016,0,0,1023
2018,5,11,13,32,51.831,0.2757,-0.0745,-0.2393,0.9279,-3.8,-0.2,1.2,0.017,-0.003,-0.008,1023
2018,5,11,13,32,51.866,0.2758,-0.0747,-0.2398,0.9277,-1.8,-0.1,1,0.039,0.006,-0.004,1023
2018,5,11,13,32,51.886,0.276,-0.0749,-0.2401,0.9276,-1.7,0,1.2,0.015,0.005,-0.004,1023
2018,5,11,13,32,51.89,0.2762,-0.075,-0.2404,0.9274,-3,-0.3,1.5,0.035,0.014,-0.01,1023
2018,5,11,13,32,51.912,0.2763,-0.0753,-0.241,0.9272,-4.5,-0.1,1.3,0.009,-0.001,0,1023
2018,5,11,13,32,51.932,0.2765,-0.0756,-0.2418,0.9269,-3.4,-0.2,1.4,0.022,-0.006,-0.009,1023
2018,5,11,13,32,51.971,0.2766,-0.0759,-0.2422,0.9268,0.1,0.3,1,0.027,-0.017,-0.017,1023
2018,5,11,13,32,51.99,0.2767,-0.076,-0.242,0.9268,2.6,0.6,0.7,0.018,0.004,-0.009,1023
2018,5,11,13,32,51.995,0.2768,-0.0759,-0.2417,0.9268,-0.1,0.3,1,0.014,0.015,-0.004,1023
2018,5,11,13,32,52.014,0.2769,-0.076,-0.2419,0.9268,-3.6,0.2,1,0.013,0.011,-0.003,1023
2018,5,11,13,32,52.034,0.2769,-0.0763,-0.2425,0.9266,-3.1,-0.4,0.6,0.02,-0.005,-0.007,0
2018,5,11,13,32,52.069,0.277,-0.0765,-0.2429,0.9264,1,0.2,0.7,0.009,-0.018,-0.003,0
2018,5,11,13,32,52.089,0.2771,-0.0764,-0.2426,0.9265,0.9,0.3,0.7,0.012,0.016,0,0
2018,5,11,13,32,52.093,0.2772,-0.0765,-0.2426,0.9265,-1.6,0.2,1,0.011,0.008,-0.003,0
2018,5,11,13,32,52.113,0.2773,-0.0767,-0.2429,0.9263,-2.6,0,0.8,0.017,0.002,-0.009,0
2018,5,11,13,32,52.132,0.2774,-0.0768,-0.2433,0.9262,-1.3,-0.1,0.8,0.022,0,-0.013,0
2018,5,11,13,32,52.153,0.2775,-0.077,-0.2434,0.9261,0.1,0,0.8,0.014,0.001,-0.005,0
2018,5,11,13,32,52.174,0.2776,-0.077,-0.2434,0.9261,0.1,0.3,0.9,0.015,0.002,-0.004,0
2018,5,11,13,32,52.194,0.2776,-0.0771,-0.2434,0.926,-1.1,0.3,0.8,0.011,0.011,-0.005,0
2018,5,11,13,32,52.213,0.2778,-0.0771,-0.2438,0.9259,-2.9,-0.1,0.5,0.051,0.024,0.017,0
2018,5,11,13,32,52.254,0.2778,-0.0773,-0.244,0.9258,-0.8,-0.1,0.7,0.013,0,-0.003,0
2018,5,11,13,32,52.258,0.2779,-0.0774,-0.2441,0.9258,0.6,0.2,1,0.012,0.001,-0.005,0
2018,5,11,13,32,52.273,0.2781,-0.0774,-0.2439,0.9258,-0.4,0,1,0.015,0.013,-0.002,0
2018,5,11,13,32,52.294,0.2782,-0.0775,-0.2441,0.9257,-1.9,0,1.1,0.013,0.014,-0.002,0
2018,5,11,13,32,52.332,0.2783,-0.0776,-0.2444,0.9256,-2.9,0.1,0.8,0.013,0.008,0,0
2018,5,11,13,32,52.352,0.2783,-0.0778,-0.2448,0.9254,-2.2,0.2,0.9,0.009,0.006,0,0
2018,5,11,13,32,52.357,0.2784,-0.078,-0.2451,0.9253,-0.9,0.3,1,0.014,-0.006,-0.014,0
2018,5,11,13,32,52.375,0.2785,-0.0781,-0.2452,0.9252,0.1,0.4,0.8,0.013,0.003,-0.005,0
2018,5,11,13,32,52.413,0.2786,-0.0781,-0.2452,0.9252,-0.6,0.1,1,0.011,0.01,-0.001,0
2018,5,11,13,32,52.433,0.2787,-0.0782,-0.2453,0.9251,-1.2,0,0.8,0.01,0.004,-0.005,0
2018,5,11,13,32,52.437,0.2788,-0.0783,-0.2455,0.925,-2.6,0.1,0.7,0.013,0.012,0,0
2018,5,11,13,32,52.457,0.2789,-0.0784,-0.2458,0.9249,-0.7,0.1,0.7,0.015,-0.002,-0.006,0
2018,5,11,13,32,52.472,0.2789,-0.0785,-0.2459,0.9249,-0.1,0.3,0.6,0.011,0.005,-0.008,0
2018,5,11,13,32,52.511,0.279,-0.0785,-0.2459,0.9249,-1.2,0.3,0.9,0.012,0.014,-0.001,0
2018,5,11,13,32,52.533,0.2791,-0.0786,-0.2461,0.9248,-1.8,0.1,0.8,0.011,0.004,-0.004,0
2018,5,11,13,32,52.537,0.2792,-0.0788,-0.2463,0.9247,-0.4,0.1,0.7,0.012,0,-0.006,0
2018,5,11,13,32,52.555,0.2793,-0.0788,-0.2463,0.9247,0.3,0.3,0.7,0.01,0.007,-0.002,0
2018,5,11,13,32,52.593,0.2793,-0.0787,-0.2463,0.9246,-1.2,0.2,0.5,0.057,0.029,-0.001,0
2018,5,11,13,32,52.612,0.2794,-0.0789,-0.2465,0.9246,-1.7,0.1,0.8,0.013,0.01,-0.002,0
2018,5,11,13,32,52.616,0.2795,-0.079,-0.2467,0.9245,-1.2,0,0.8,0.014,-0.001,-0.005,0
2018,5,11,13,32,52.656,0.2796,-0.0791,-0.2468,0.9244,0.2,0.3,0.9,0.015,0.006,-0.007,0
2018,5,11,13,32,52.677,0.2797,-0.0791,-0.2467,0.9244,-0.2,0.3,0.8,0.011,0.009,-0.001,0
2018,5,11,13,32,52.681,0.2798,-0.0792,-0.2468,0.9243,-2,0.2,0.9,0.012,0.01,0.003,0
2018,5,11,13,32,52.696,0.2798,-0.0793,-0.2471,0.9242,-2.6,0,0.9,0.013,0.002,-0.004,0
2018,5,11,13,32,52.714,0.2799,-0.0795,-0.2475,0.9241,-2.2,0,0.8,0.012,0.006,-0.003,0
2018,5,11,13,32,52.735,0.28,-0.0796,-0.2479,0.9239,-3.4,0,1,0.009,0.005,0.001,0
2018,5,11,13,32,52.77,0.28,-0.0798,-0.2482,0.9238,-1.5,0,0.8,0.012,-0.004,-0.007,0
2018,5,11,13,32,52.789,0.2801,-0.0799,-0.2484,0.9237,-0.6,0.3,0.8,0.012,0.008,-0.007,0
2018,5,11,13,32,52.796,0.2802,-0.08,-0.2485,0.9237,-1.6,0.1,0.8,0.009,0.016,-0.002,0
2018,5,11,13,32,52.834,0.2803,-0.0801,-0.2487,0.9236,-1.3,0.1,0.8,0.01,0.002,-0.006,0
2018,5,11,13,32,52.856,0.2804,-0.0802,-0.2488,0.9235,0.3,0.4,0.9,0.013,0,-0.007,1023
2018,5,11,13,32,52.86,0.2805,-0.0802,-0.2486,0.9236,0.8,0.2,0.6,0.01,0.017,0,1023
2018,5,11,13,32,52.879,0.2806,-0.0802,-0.2485,0.9236,-0.9,0,0.8,0.012,0.011,-0.002,1023
2018,5,11,13,32,52.899,0.2807,-0.0803,-0.2486,0.9235,-2,0.2,0.9,0.011,0.005,-0.003,1023
2018,5,11,13,32,52.914,0.2808,-0.0804,-0.2489,0.9234,-1.9,0.3,0.8,0.013,0.004,-0.002,1023
2018,5,11,13,32,52.952,0.2808,-0.0805,-0.2491,0.9233,-1.7,0.1,0.7,0.011,0.01,-0.005,1023
2018,5,11,13,32,52.973,0.2809,-0.0806,-0.2493,0.9232,-0.9,0.2,0.6,0.012,0.008,-0.003,1023
2018,5,11,13,32,52.977,0.281,-0.0806,-0.2493,0.9232,0.2,0.3,0.8,0.01,0.003,-0.006,1023
2018,5,11,13,32,52.997,0.2811,-0.0806,-0.2492,0.9232,-0.1,0.1,0.8,0.011,0.016,0,1023
2018,5,11,13,32,53.037,0.2812,-0.0807,-0.2493,0.9231,-1.4,0.1,0.8,0.012,0.01,-0.006,1023
2018,5,11,13,32,53.058,0.2812,-0.0808,-0.2494,0.923,-1.2,-0.1,0.8,0.011,0.007,-0.004,1023
2018,5,11,13,32,53.062,0.2813,-0.0809,-0.2495,0.923,-0.6,0.3,0.8,0.013,0.007,0,0
2018,5,11,13,32,53.08,0.2814,-0.0809,-0.2495,0.923,-0.1,0.1,0.8,0.012,0.008,-0.002,0
2018,5,11,13,32,53.119,0.2815,-0.0809,-0.2495,0.9229,-0.2,0.1,0.8,0.011,0.009,-0.006,0
2018,5,11,13,32,53.138,0.2816,-0.081,-0.2495,0.9229,-0.6,0,0.8,0.011,0.008,0,0
2018,5,11,13,32,53.142,0.2817,-0.081,-0.2495,0.9229,-0.2,0.1,0.8,0.011,0.004,0,0
2018,5,11,13,32,53.159,0.2818,-0.0811,-0.2494,0.9228,-0.4,0.1,0.7,0.011,0.009,0,0
2018,5,11,13,32,53.177,0.2819,-0.0811,-0.2495,0.9228,-0.4,0.1,0.8,0.013,0.008,-0.009,0
2018,5,11,13,32,53.197,0.282,-0.0811,-0.2495,0.9228,-0.3,0.2,0.7,0.012,0.003,-0.005,0
2018,5,11,13,32,53.237,0.2821,-0.0812,-0.2495,0.9227,-0.6,0.1,0.7,0.013,0.011,-0.002,0
2018,5,11,13,32,53.241,0.2822,-0.0812,-0.2496,0.9227,-1.4,0,0.7,0.009,0.01,-0.004,0
2018,5,11,13,32,53.258,0.2822,-0.0813,-0.2497,0.9226,-0.6,0.1,0.8,0.011,0.002,-0.006,0
2018,5,11,13,32,53.296,0.2823,-0.0814,-0.2497,0.9226,-0.1,0,0.6,0.014,0.009,0.002,0
2018,5,11,13,32,53.319,0.2824,-0.0814,-0.2497,0.9225,-0.3,0.2,0.8,0.012,0.006,0,0
2018,5,11,13,32,53.324,0.2825,-0.0815,-0.2498,0.9225,-1,0,0.8,0.009,0.008,-0.006,0
2018,5,11,13,32,53.342,0.2826,-0.0815,-0.2499,0.9224,-1.2,0.3,0.7,0.011,0.008,-0.002,0
2018,5,11,13,32,53.38,0.2827,-0.0816,-0.25,0.9224,-0.4,0.1,0.8,0.008,0.004,0,0
2018,5,11,13,32,53.4,0.2828,-0.0816,-0.25,0.9223,-0.3,0.4,0.8,0.011,0.007,-0.002,0
2018,5,11,13,32,53.404,0.2829,-0.0816,-0.25,0.9223,-0.8,0.2,0.8,0.01,0.009,0,0
2018,5,11,13,32,53.42,0.2829,-0.0817,-0.2501,0.9223,-1.3,0.2,0.8,0.007,0.007,-0.003,0
2018,5,11,13,32,53.44,0.283,-0.0817,-0.2503,0.9222,-1.6,0.1,0.8,0.008,0.01,0.002,0
2018,5,11,13,32,53.462,0.2831,-0.0818,-0.2505,0.9221,-1.7,0.3,0.7,0.009,0.009,-0.003,0
2018,5,11,13,32,53.481,0.2831,-0.0819,-0.2505,0.9221,-1,0,1,0.05,0.014,-0.008,0
2018,5,11,13,32,53.502,0.2832,-0.082,-0.2506,0.922,0.1,0.4,0.7,0.012,0.015,-0.005,0
2018,5,11,13,32,53.541,0.2833,-0.082,-0.2506,0.922,-0.5,0.1,0.8,0.01,0.005,-0.008,0
2018,5,11,13,32,53.561,0.2834,-0.082,-0.2506,0.9219,-0.9,-0.1,0.9,0.011,0.016,0.001,0
2018,5,11,13,32,53.565,0.2835,-0.0821,-0.2507,0.9219,-0.2,0.2,0.9,0.01,0.005,-0.007,0
2018,5,11,13,32,53.582,0.2836,-0.0821,-0.2507,0.9219,-0.2,0.1,0.7,0.011,0.011,0.004,0
2018,5,11,13,32,53.6,0.2837,-0.0822,-0.2506,0.9218,-0.6,0,0.8,0.012,0.008,-0.003,0
2018,5,11,13,32,53.62,0.2838,-0.0822,-0.2507,0.9218,-1.2,0.1,0.7,0.01,0.011,0,0
2018,5,11,13,32,53.658,0.2839,-0.0823,-0.2509,0.9217,-1.3,0,0.8,0.013,0.007,-0.004,0
2018,5,11,13,32,53.678,0.284,-0.0824,-0.251,0.9216,-0.3,0.1,0.8,0.011,0.006,-0.006,0
2018,5,11,13,32,53.682,0.2841,-0.0824,-0.2509,0.9216,-0.1,0,0.7,0.009,0.013,0.001,0
2018,5,11,13,32,53.703,0.2842,-0.0825,-0.2509,0.9216,-1,0.1,0.8,0.012,0.01,0,0
2018,5,11,13,32,53.723,0.2843,-0.0826,-0.251,0.9215,-1.5,0,0.8,0.01,0.011,0.003,0
2018,5,11,13,32,53.76,0.2844,-0.0827,-0.2512,0.9214,-2,0,0.9,0.008,0.009,-0.002,0
2018,5,11,13,32,53.779,0.2844,-0.0828,-0.2515,0.9213,-2,0,0.7,0.009,0.007,-0.001,0
2018,5,11,13,32,53.783,0.2845,-0.0829,-0.2516,0.9212,-0.9,0,0.7,0.011,0.003,-0.001,0
2018,5,11,13,32,53.82,0.2846,-0.083,-0.2517,0.9212,-0.9,0.2,0.8,0.007,0.01,0.001,0
2018,5,11,13,32,53.824,0.2847,-0.083,-0.2518,0.9211,-1,0.1,0.8,0.01,0.009,-0.004,1023
2018,5,11,13,32,53.842,0.2848,-0.0831,-0.2519,0.9211,-0.9,0.2,0.8,0.009,0.006,0.003,1023
2018,5,11,13,32,53.879,0.2849,-0.0831,-0.252,0.921,-1.3,0.2,0.9,0.007,0.01,0.003,1023
2018,5,11,13,32,53.9,0.285,-0.0832,-0.2522,0.9209,-1.6,0,0.8,0.011,0.008,-0.002,1023
2018,5,11,13,32,53.905,0.2851,-0.0833,-0.2524,0.9208,-1,0.2,0.8,0.009,0.009,-0.002,1023
2018,5,11,13,32,53.922,0.2852,-0.0834,-0.2525,0.9208,-1.2,0.2,0.7,0.011,0.011,-0.002,1023
2018,5,11,13,32,53.945,0.2852,-0.0835,-0.2526,0.9207,-1.8,0.3,0.8,0.009,0.011,0,1023
2018,5,11,13,32,53.963,0.2853,-0.0836,-0.2529,0.9206,-1.5,0.2,0.7,0.013,0.005,-0.003,1023
2018,5,11,13,32,53.983,0.2854,-0.0836,-0.253,0.9205,-1,0.2,0.8,0.01,0.008,-0.003,1023
2018,5,11,13,32,54.022,0.2855,-0.0837,-0.2532,0.9205,-1.1,0.1,0.8,0.009,0.008,0.001,1023
2018,5,11,13,32,54.042,0.2856,-0.0838,-0.2533,0.9204,-0.9,0.1,0.9,0.011,0.008,-0.004,1023
2018,5,11,13,32,54.046,0.2857,-0.0838,-0.2533,0.9203,-0.8,0.1,0.9,0.006,0.011,0.001,0
2018,5,11,13,32,54.066,0.2857,-0.0839,-0.2535,0.9203,-1.5,0.1,0.8,0.009,0.012,0,0
2018,5,11,13,32,54.088,0.2858,-0.084,-0.2536,0.9202,-1.2,0.1,0.9,0.008,0.004,0,0
2018,5,11,13,32,54.103,0.2859,-0.0841,-0.2537,0.9201,-0.9,0.3,0.7,0.007,0.008,-0.002,0
2018,5,11,13,32,54.124,0.286,-0.0841,-0.2538,0.9201,-1.2,0,0.6,0.008,0.012,0.003,0
2018,5,11,13,32,54.162,0.2861,-0.0842,-0.2539,0.92,-1.4,0.1,0.8,0.013,0.007,0,0
2018,5,11,13,32,54.182,0.2861,-0.0843,-0.254,0.92,-0.8,0.1,0.7,0.01,0.004,-0.005,0
2018,5,11,13,32,54.186,0.2862,-0.0843,-0.2541,0.9199,-1.2,0,0.6,0.009,0.012,0.007,0
2018,5,11,13,32,54.206,0.2863,-0.0844,-0.2542,0.9198,-1,0.1,0.6,0.011,0.006,0,0
2018,5,11,13,32,54.225,0.2864,-0.0845,-0.2543,0.9198,-0.6,0.1,0.8,0.009,0.01,0,0
2018,5,11,13,32,54.247,0.2865,-0.0845,-0.2543,0.9198,-0.3,0.1,0.8,0.012,0.006,0.001,0
2018,5,11,13,32,54.266,0.2866,-0.0845,-0.2543,0.9197,-0.7,0.1,0.7,0.01,0.011,-0.003,0
2018,5,11,13,32,54.303,0.2867,-0.0846,-0.2544,0.9197,-1.1,0.1,0.8,0.01,0.01,0.002,0
2018,5,11,13,32,54.323,0.2867,-0.0847,-0.2545,0.9196,-1,0.1,0.8,0.011,0.007,-0.001,0
2018,5,11,13,32,54.328,0.2868,-0.0847,-0.2545,0.9196,-0.3,0,0.9,0.009,0.006,-0.001,0
2018,5,11,13,32,54.343,0.2869,-0.0848,-0.2545,0.9195,-0.6,0.1,0.7,0.008,0.011,0,0
2018,5,11,13,32,54.384,0.287,-0.0848,-0.2545,0.9195,-0.7,0.1,0.7,0.007,0.01,0,0
2018,5,11,13,32,54.405,0.2871,-0.0848,-0.2546,0.9194,-0.7,0.3,1,0.009,0.011,0.001,0
2018,5,11,13,32,54.41,0.2872,-0.0849,-0.2546,0.9194,-0.9,0.3,0.7,0.009,0.014,0.005,0
2018,5,11,13,32,54.427,0.2873,-0.0849,-0.2547,0.9193,-1.9,0,0.6,0.014,0.01,0,0
2018,5,11,13,32,54.467,0.2874,-0.085,-0.2549,0.9193,-1.2,0.3,0.7,0.009,0.005,0.001,0
2018,5,11,13,32,54.486,0.2874,-0.0851,-0.255,0.9192,-0.6,0.3,0.7,0.011,0.009,-0.002,0
2018,5,11,13,32,54.49,0.2875,-0.0851,-0.2551,0.9192,-1.2,0.2,0.7,0.007,0.016,0,0
2018,5,11,13,32,54.511,0.2876,-0.0852,-0.2552,0.9191,-1.2,0.1,1,0.011,0.008,-0.002,0
2018,5,11,13,32,54.53,0.2877,-0.0853,-0.2554,0.919,-1.3,0.1,0.8,0.009,0.01,-0.002,0
2018,5,11,13,32,54.546,0.2878,-0.0853,-0.2555,0.919,-1.2,0.3,0.7,0.011,0.011,-0.001,0
2018,5,11,13,32,54.582,0.2879,-0.0854,-0.2556,0.9189,-0.6,0.1,0.8,0.006,0.005,-0.003,0
2018,5,11,13,32,54.602,0.288,-0.0854,-0.2556,0.9189,-0.4,0.1,0.9,0.009,0.009,-0.001,0
2018,5,11,13,32,54.607,0.2881,-0.0854,-0.2556,0.9188,-0.9,0.1,1,0.01,0.01,-0.001,0
2018,5,11,13,32,54.628,0.2882,-0.0855,-0.2557,0.9188,-0.8,0.1,0.5,0.004,0.01,0.008,0
2018,5,11,13,32,54.647,0.2882,-0.0855,-0.2557,0.9187,-0.5,0.1,0.7,0.01,0.013,0,0
2018,5,11,13,32,54.685,0.2883,-0.0855,-0.2557,0.9187,-0.2,0.2,0.7,0.015,0.007,0.001,0
2018,5,11,13,32,54.704,0.2884,-0.0856,-0.2557,0.9187,-0.2,0.1,0.8,0.008,0.01,0.002,0
2018,5,11,13,32,54.709,0.2885,-0.0856,-0.2556,0.9187,-0.5,0,0.8,0.009,0.011,0.001,0
2018,5,11,13,32,54.73,0.2886,-0.0856,-0.2556,0.9186,-0.9,0.1,0.8,0.01,0.01,0,0
2018,5,11,13,32,54.748,0.2887,-0.0857,-0.2557,0.9186,-1,0.2,0.8,0.01,0.012,-0.002,0
2018,5,11,13,32,54.767,0.2888,-0.0857,-0.2558,0.9185,-1.2,0,0.8,0.009,0.008,-0.002,0
2018,5,11,13,32,54.786,0.2889,-0.0858,-0.2559,0.9184,-0.4,0,0.7,0.009,0.008,0.001,0
2018,5,11,13,32,54.826,0.289,-0.0858,-0.2559,0.9184,-0.2,0.1,0.7,0.011,0.012,-0.005,0
2018,5,11,13,32,54.848,0.2891,-0.0858,-0.2558,0.9184,-1.1,0,0.8,0.011,0.017,0.004,1023
2018,5,11,13,32,54.852,0.2892,-0.0859,-0.256,0.9183,-1.6,0,0.6,0.01,0.007,0,1023
2018,5,11,13,32,54.87,0.2893,-0.086,-0.2561,0.9182,-1.2,0.1,0.9,0.009,0.008,-0.005,1023
2018,5,11,13,32,54.89,0.2894,-0.0861,-0.2562,0.9182,-0.9,0,0.8,0.01,0.007,-0.001,1023
2018,5,11,13,32,54.91,0.2895,-0.0862,-0.2563,0.9181,-1.5,0.1,0.8,0.009,0.01,-0.002,1023
2018,5,11,13,32,54.929,0.2896,-0.0862,-0.2565,0.918,-0.7,0,0.8,0.009,0.005,-0.003,1023
2018,5,11,13,32,54.967,0.2897,-0.0863,-0.2565,0.918,-0.1,0.3,0.8,0.007,0.01,-0.004,1023
2018,5,11,13,32,54.986,0.2898,-0.0863,-0.2564,0.918,-0.5,0.3,0.8,0.009,0.016,0.001,1023
2018,5,11,13,32,54.991,0.2899,-0.0863,-0.2564,0.9179,-1,0,0.8,0.01,0.012,0.004,1023
2018,5,11,13,32,55.013,0.29,-0.0864,-0.2565,0.9179,-1.3,0.2,0.8,0.011,0.011,-0.002,1023
2018,5,11,13,32,55.033,0.2901,-0.0864,-0.2566,0.9178,-1,0.1,0.8,0.011,0.008,-0.005,1023
2018,5,11,13,32,55.048,0.2901,-0.0865,-0.2567,0.9178,-1,0.1,0.8,0.009,0.013,0.003,1023
2018,5,11,13,32,55.088,0.2902,-0.0865,-0.2568,0.9177,-1,0.1,0.8,0.011,0.008,0.002,1023
2018,5,11,13,32,55.107,0.2903,-0.0866,-0.2568,0.9177,-0.8,0.1,0.8,0.007,0.008,-0.002,0
2018,5,11,13,32,55.111,0.2904,-0.0866,-0.2569,0.9176,-1,0.1,0.8,0.011,0.01,0,0
2018,5,11,13,32,55.151,0.2905,-0.0867,-0.257,0.9175,-1.1,0.1,0.7,0.01,0.012,0,0
2018,5,11,13,32,55.171,0.2906,-0.0868,-0.2571,0.9175,-1.2,0.2,0.8,0.008,0.01,-0.005,0
2018,5,11,13,32,55.175,0.2907,-0.0869,-0.2572,0.9174,-1,0.1,0.7,0.01,0.008,0,0
2018,5,11,13,32,55.194,0.2908,-0.0869,-0.2572,0.9174,-0.2,0.1,0.7,0.009,0.006,0,0
2018,5,11,13,32,55.214,0.2909,-0.0869,-0.2571,0.9174,0,0.3,0.8,0.007,0.012,0,0
2018,5,11,13,32,55.233,0.291,-0.0869,-0.2571,0.9173,-0.6,0.1,0.9,0.008,0.012,-0.001,0
2018,5,11,13,32,55.251,0.2911,-0.087,-0.2571,0.9173,-0.9,0.2,0.8,0.008,0.012,-0.005,0
2018,5,11,13,32,55.289,0.2912,-0.087,-0.2572,0.9172,-0.3,0.1,0.8,0.01,0.007,-0.001,0
2018,5,11,13,32,55.307,0.2913,-0.087,-0.2572,0.9172,-0.2,0.2,0.9,0.009,0.011,0.001,0
2018,5,11,13,32,55.31,0.2914,-0.087,-0.2571,0.9172,-0.4,0.1,0.8,0.011,0.011,0,0
2018,5,11,13,32,55.349,0.2915,-0.0871,-0.2571,0.9172,-0.6,0.2,0.8,0.011,0.011,-0.003,0
2018,5,11,13,32,55.369,0.2916,-0.0871,-0.2571,0.9171,-0.6,0.1,0.8,0.012,0.008,-0.005,0
2018,5,11,13,32,55.372,0.2917,-0.0872,-0.2571,0.9171,-0.4,0.1,0.8,0.011,0.007,-0.002,0
2018,5,11,13,32,55.412,0.2918,-0.0872,-0.2571,0.9171,-0.1,0.3,0.8,0.009,0.009,0,0
2018,5,11,13,32,55.432,0.2919,-0.0872,-0.257,0.9171,-0.2,0.2,0.8,0.01,0.015,0,0
2018,5,11,13,32,55.436,0.292,-0.0872,-0.257,0.917,-0.7,0.3,0.9,0.01,0.012,-0.001,0
2018,5,11,13,32,55.471,0.2921,-0.0872,-0.2571,0.917,-1,0.3,0.8,0.011,0.009,0,0
2018,5,11,13,32,55.475,0.2921,-0.0873,-0.2572,0.9169,-1.1,0.1,0.8,0.011,0.013,0.003,0
2018,5,11,13,32,55.492,0.2922,-0.0873,-0.2573,0.9169,-0.8,0.1,0.9,0.01,0.007,0,0
2018,5,11,13,32,55.512,0.2924,-0.0873,-0.2573,0.9168,-1,0,0.9,0.012,0.011,0,0
2018,5,11,13,32,55.532,0.2924,-0.0874,-0.2574,0.9168,-1.2,0.1,0.7,0.008,0.014,0,0
2018,5,11,13,32,55.552,0.2926,-0.0873,-0.2576,0.9167,-0.3,1.2,1.4,-0.11,-0.032,-0.011,0
2018,5,11,13,32,55.592,0.2926,-0.0875,-0.2576,0.9166,-0.6,0.1,0.5,0.01,0,-0.003,0
2018,5,11,13,32,55.612,0.2927,-0.0875,-0.2575,0.9166,-0.2,0,0.8,0.009,0.007,0,0
2018,5,11,13,32,55.617,0.2928,-0.0875,-0.2575,0.9166,0,0.1,0.9,0.007,0.016,-0.001,0
2018,5,11,13,32,55.635,0.2929,-0.0875,-0.2574,0.9166,-0.4,0.3,0.7,0.01,0.008,-0.003,0
2018,5,11,13,32,55.655,0.293,-0.0875,-0.2574,0.9166,-0.6,0,0.8,0.011,0.013,-0.002,0
2018,5,11,13,32,55.673,0.2931,-0.0875,-0.2574,0.9165,-0.4,0.1,0.8,0.008,0.012,0,0
2018,5,11,13,32,55.692,0.2932,-0.0876,-0.2574,0.9165,-0.7,0,0.9,0.008,0.01,0.001,0
2018,5,11,13,32,55.712,0.2933,-0.0876,-0.2574,0.9164,-0.7,0,1,0.009,0.011,-0.001,0
2018,5,11,13,32,55.753,0.2934,-0.0877,-0.2574,0.9164,-0.9,0.1,0.8,0.008,0.009,-0.004,0
2018,5,11,13,32,55.773,0.2935,-0.0877,-0.2575,0.9163,-0.8,0,0.8,0.006,0.011,0.004,0
2018,5,11,13,32,55.777,0.2936,-0.0878,-0.2575,0.9163,-0.4,0.1,0.7,0.01,0.008,0,0
2018,5,11,13,32,55.794,0.2937,-0.0878,-0.2575,0.9163,-0.9,0.1,0.7,0.008,0.012,-0.002,0
2018,5,11,13,32,55.833,0.2938,-0.0879,-0.2576,0.9162,-0.8,0.1,0.8,0.007,0.011,0,0
2018,5,11,13,32,55.853,0.2939,-0.0879,-0.2576,0.9162,-1.1,0.1,0.8,0.008,0.009,-0.005,1023
2018,5,11,13,32,55.857,0.294,-0.088,-0.2577,0.9161,-0.9,0.2,0.7,0.012,0.008,-0.007,1023
2018,5,11,13,32,55.876,0.2941,-0.088,-0.2578,0.9161,-1.1,0.2,0.8,0.011,0.01,0.001,1023
2018,5,11,13,32,55.915,0.2942,-0.0881,-0.2579,0.916,-1.2,0.1,0.8,0.008,0.011,-0.003,1023
2018,5,11,13,32,55.935,0.2943,-0.0882,-0.258,0.9159,-1.4,0,0.7,0.01,0.011,-0.001,1023
2018,5,11,13,32,55.939,0.2944,-0.0883,-0.2582,0.9158,-1.6,0,0.8,0.011,0.011,0,1023
2018,5,11,13,32,55.956,0.2945,-0.0884,-0.2583,0.9158,-0.9,0.1,0.7,0.007,0.008,-0.005,1023
2018,5,11,13,32,55.995,0.2945,-0.0884,-0.2583,0.9157,-0.4,0,0.7,0.011,0.007,-0.001,1023
2018,5,11,13,32,56.013,0.2946,-0.0884,-0.2583,0.9157,-0.2,0.3,0.8,0.009,0.016,0,1023
2018,5,11,13,32,56.017,0.2947,-0.0885,-0.2583,0.9157,-0.8,0,0.8,0.009,0.012,0,1023
2018,5,11,13,32,56.036,0.2948,-0.0885,-0.2584,0.9156,-0.9,0.1,0.8,0.007,0.013,0.003,1023
2018,5,11,13,32,56.057,0.2949,-0.0885,-0.2584,0.9156,-1.3,0.2,0.8,0.008,0.01,-0.004,1023
2018,5,11,13,32,56.078,0.295,-0.0886,-0.2585,0.9155,-1.3,0,0.7,0.013,0.011,0,0
2018,5,11,13,32,56.097,0.2951,-0.0887,-0.2587,0.9154,-1.3,0,0.7,0.01,0.009,0,0
2018,5,11,13,32,56.136,0.2952,-0.0888,-0.2588,0.9153,-1,0,0.8,0.009,0.01,0.001,0
2018,5,11,13,32,56.156,0.2953,-0.0889,-0.2589,0.9153,-1.3,0,0.7,0.011,0.013,-0.001,0
2018,5,11,13,32,56.161,0.2954,-0.0889,-0.259,0.9152,-0.4,0.1,0.7,0.009,0.01,0,0
2018,5,11,13,32,56.197,0.2955,-0.089,-0.259,0.9152,-0.6,0.2,0.8,0.012,0.006,-0.003,0
2018,5,11,13,32,56.201,0.2956,-0.089,-0.259,0.9151,-0.2,0.1,0.9,0.011,0.009,0.002,0
2018,5,11,13,32,56.218,0.2957,-0.089,-0.259,0.9151,-0.7,0.3,0.8,0.012,0.014,-0.001,0
2018,5,11,13,32,56.238,0.2958,-0.0891,-0.259,0.9151,-1.2,0.1,0.8,0.009,0.01,0,0
2018,5,11,13,32,56.264,0.2958,-0.0891,-0.2591,0.915,-1.5,0.1,0.7,0.01,0.011,0,0
2018,5,11,13,32,56.282,0.2959,-0.0892,-0.2593,0.9149,-1.3,0,0.8,0.01,0.012,-0.004,0
2018,5,11,13,32,56.297,0.296,-0.0893,-0.2594,0.9149,-0.7,0.1,0.7,0.009,0.007,0.002,0
2018,5,11,13,32,56.337,0.2961,-0.0893,-0.2594,0.9148,0,0.3,0.9,0.01,0.008,-0.001,0
2018,5,11,13,32,56.358,0.2962,-0.0893,-0.2593,0.9148,-0.2,0.2,0.7,0.011,0.012,0.001,0
2018,5,11,13,32,56.36,0.2963,-0.0893,-0.2593,0.9148,-1.1,0,0.8,0.01,0.011,0,0
2018,5,11,13,32,56.399,0.2964,-0.0894,-0.2594,0.9147,-1,0,0.8,0.009,0.01,0.007,0
2018,5,11,13,32,56.401,0.2965,-0.0895,-0.2594,0.9147,-0.6,0.2,0.8,0.011,0.008,0,0
2018,5,11,13,32,56.418,0.2966,-0.0895,-0.2595,0.9146,-0.7,0.2,0.8,0.011,0.009,-0.004,0
2018,5,11,13,32,56.438,0.2967,-0.0895,-0.2595,0.9146,-0.9,0.3,0.7,0.011,0.014,0,0
2018,5,11,13,32,56.459,0.2968,-0.0896,-0.2596,0.9145,-1.7,0.1,0.8,0.011,0.01,-0.001,0
2018,5,11,13,32,56.497,0.2969,-0.0897,-0.2597,0.9144,-1.4,0.1,0.8,0.011,0.01,0.002,0
2018,5,11,13,32,56.518,0.2969,-0.0897,-0.2599,0.9144,-0.8,0.3,0.7,0.008,0.007,-0.002,0
2018,5,11,13,32,56.522,0.297,-0.0897,-0.2599,0.9143,-0.2,0.3,0.7,0.008,0.005,-0.001,0
2018,5,11,13,32,56.558,0.2971,-0.0897,-0.2598,0.9144,-1.6,0,0.6,0.079,0.05,0.001,0
2018,5,11,13,32,56.58,0.2971,-0.0898,-0.26,0.9143,-1.3,-0.1,0.7,0.015,0.013,0.001,0
2018,5,11,13,32,56.584,0.2972,-0.0899,-0.2602,0.9142,-1.9,0.3,0.9,0.013,0.002,0,0
2018,5,11,13,32,56.602,0.2973,-0.09,-0.2604,0.9141,-1.8,0,1,0.009,0.008,0,0
2018,5,11,13,32,56.62,0.2974,-0.0901,-0.2605,0.914,-0.1,0.1,0.8,0.011,0.006,-0.003,0
2018,5,11,13,32,56.638,0.2975,-0.09,-0.2604,0.914,0,0.1,0.7,0.009,0.014,0,0
2018,5,11,13,32,56.675,0.2976,-0.09,-0.2603,0.914,-0.3,0.3,0.8,0.01,0.013,-0.002,0
2018,5,11,13,32,56.696,0.2977,-0.0901,-0.2603,0.914,-0.5,0.1,0.7,0.009,0.009,0.003,0
2018,5,11,13,32,56.701,0.2978,-0.0901,-0.2603,0.9139,-0.6,0.1,0.9,0.008,0.01,0,0
2018,5,11,13,32,56.72,0.2979,-0.0901,-0.2603,0.9139,-0.7,0.3,0.7,0.01,0.011,-0.001,0
2018,5,11,13,32,56.759,0.298,-0.0902,-0.2603,0.9139,-0.7,0,0.7,0.01,0.009,0.001,0
2018,5,11,13,32,56.779,0.2981,-0.0902,-0.2604,0.9138,-0.7,0.1,0.8,0.008,0.011,0,0
2018,5,11,13,32,56.783,0.2982,-0.0903,-0.2604,0.9138,-0.7,0.1,0.8,0.009,0.01,-0.001,0
2018,5,11,13,32,56.822,0.2983,-0.0903,-0.2604,0.9137,-0.5,0.1,0.9,0.011,0.007,-0.001,0
2018,5,11,13,32,56.84,0.2984,-0.0903,-0.2604,0.9137,-0.6,0.1,0.7,0.007,0.013,0.001,1023
2018,5,11,13,32,56.844,0.2985,-0.0904,-0.2605,0.9136,-1.1,0,0.8,0.011,0.011,0,1023
2018,5,11,13,32,56.86,0.2986,-0.0904,-0.2606,0.9136,-1.2,0,0.8,0.012,0.011,0.001,1023
2018,5,11,13,32,56.9,0.2987,-0.0905,-0.2607,0.9135,-1,0,0.7,0.01,0.011,0,1023
2018,5,11,13,32,56.904,0.2987,-0.0906,-0.2607,0.9135,-0.6,0.3,0.9,0.012,0.009,0,1023
2018,5,11,13,32,56.921,0.2988,-0.0906,-0.2608,0.9134,-0.5,0.3,0.8,0.007,0.012,0,1023
2018,5,11,13,32,56.958,0.2989,-0.0907,-0.2608,0.9134,-0.8,0,0.7,0.011,0.007,-0.003,1023
2018,5,11,13,32,56.978,0.299,-0.0907,-0.2608,0.9133,-0.6,0.1,0.7,0.009,0.011,0,1023
2018,5,11,13,32,56.982,0.2991,-0.0907,-0.2608,0.9133,-0.4,0,0.8,0.009,0.011,0.004,1023
2018,5,11,13,32,57.002,0.2992,-0.0907,-0.2608,0.9133,-0.4,0.1,0.8,0.01,0.009,-0.004,1023
2018,5,11,13,32,57.025,0.2993,-0.0908,-0.2608,0.9132,-0.6,0.1,0.8,0.008,0.011,-0.001,1023
2018,5,11,13,32,57.043,0.2994,-0.0908,-0.2608,0.9132,-0.2,0.1,0.8,0.01,0.007,0.001,1023
2018,5,11,13,32,57.066,0.2995,-0.0908,-0.2608,0.9131,-0.4,0.1,0.8,0.008,0.01,-0.001,0
2018,5,11,13,32,57.102,0.2996,-0.0909,-0.2608,0.9131,-0.7,0,0.8,0.01,0.011,0.004,0
2018,5,11,13,32,57.123,0.2997,-0.0909,-0.2608,0.9131,-0.7,0.1,0.7,0.007,0.01,-0.003,0
2018,5,11,13,32,57.127,0.2998,-0.091,-0.2608,0.913,-0.6,0.2,0.8,0.012,0.012,-0.003,0
2018,5,11,13,32,57.144,0.2999,-0.091,-0.2608,0.913,-0.5,0.2,0.8,0.009,0.009,0,0
2018,5,11,13,32,57.164,0.3,-0.091,-0.2608,0.913,-0.6,0.1,0.8,0.009,0.012,-0.003,0
2018,5,11,13,32,57.184,0.3001,-0.091,-0.2608,0.9129,-1.1,0.1,0.7,0.009,0.012,-0.002,0
2018,5,11,13,32,57.205,0.3002,-0.0911,-0.2609,0.9129,-0.8,0.1,0.9,0.013,0.007,0.001,0
2018,5,11,13,32,57.223,0.3003,-0.0911,-0.261,0.9128,-0.1,0.1,0.9,0.009,0.009,-0.003,0
2018,5,11,13,32,57.262,0.3004,-0.0911,-0.2609,0.9128,-0.2,0.1,0.8,0.009,0.014,-0.001,0
2018,5,11,13,32,57.282,0.3005,-0.0911,-0.2608,0.9128,-0.2,0.1,0.7,0.01,0.012,-0.005,0
2018,5,11,13,32,57.287,0.3006,-0.0912,-0.2608,0.9128,-0.2,0.1,0.7,0.01,0.008,0,0
2018,5,11,13,32,57.305,0.3007,-0.0912,-0.2608,0.9127,-0.8,0.1,1,0.007,0.015,-0.004,0
2018,5,11,13,32,57.326,0.3008,-0.0913,-0.2608,0.9127,-0.9,0,0.9,0.012,0.01,-0.003,0
2018,5,11,13,32,57.345,0.3009,-0.0913,-0.2609,0.9126,-0.7,0.1,0.8,0.012,0.01,0.001,0
2018,5,11,13,32,57.364,0.301,-0.0914,-0.261,0.9126,-2.1,0,0.6,0.009,0.018,0.003,0
2018,5,11,13,32,57.401,0.301,-0.0916,-0.2612,0.9125,-2,-0.1,0.8,0.012,0.009,-0.001,0
2018,5,11,13,32,57.421,0.3011,-0.0917,-0.2614,0.9124,-0.5,0.1,0.8,0.012,0.001,-0.006,0
2018,5,11,13,32,57.426,0.3012,-0.0917,-0.2614,0.9123,-0.2,0.2,0.8,0.012,0.012,0,0
2018,5,11,13,32,57.445,0.3013,-0.0918,-0.2613,0.9123,-0.9,0,0.7,0.01,0.013,0.003,0
2018,5,11,13,32,57.466,0.3014,-0.0918,-0.2614,0.9123,-1,0.1,0.6,0.008,0.01,-0.003,0
2018,5,11,13,32,57.503,0.3015,-0.0919,-0.2615,0.9122,-0.7,0.3,0.8,0.012,0.011,0,0
2018,5,11,13,32,57.523,0.3015,-0.0919,-0.2615,0.9122,-0.7,0.2,0.7,0.011,0.011,-0.001,0
2018,5,11,13,32,57.528,0.3016,-0.0919,-0.2616,0.9121,-1.1,0.1,0.8,0.009,0.009,-0.002,0
2018,5,11,13,32,57.543,0.3017,-0.092,-0.2617,0.9121,-1.3,0.2,0.8,0.01,0.01,-0.001,0
2018,5,11,13,32,57.563,0.3018,-0.092,-0.2618,0.912,-1.2,0.1,0.9,0.008,0.01,0.002,0
2018,5,11,13,32,57.583,0.3019,-0.0921,-0.2619,0.9119,-1.1,0.2,0.7,0.012,0.01,-0.001,0
2018,5,11,13,32,57.621,0.302,-0.0922,-0.262,0.9119,-0.6,0.1,0.8,0.008,0.006,-0.005,0
2018,5,11,13,32,57.642,0.3021,-0.0922,-0.262,0.9118,-0.4,0.1,0.8,0.011,0.008,-0.002,0
2018,5,11,13,32,57.646,0.3022,-0.0922,-0.262,0.9118,-0.4,0,0.8,0.01,0.011,0.001,0
2018,5,11,13,32,57.666,0.3023,-0.0922,-0.262,0.9118,-0.5,0.1,0.8,0.009,0.012,-0.003,0
2018,5,11,13,32,57.686,0.3024,-0.0923,-0.262,0.9117,-0.8,0.1,0.7,0.009,0.01,0,1023
2018,5,11,13,32,57.725,0.3024,-0.0924,-0.262,0.9117,-0.7,0,0.7,0.011,0.011,0,1023
2018,5,11,13,32,57.744,0.3025,-0.0924,-0.2621,0.9116,-1,0.1,0.7,0.011,0.01,0,1023
2018,5,11,13,32,57.747,0.3026,-0.0925,-0.2621,0.9116,-1,0.1,1,0.011,0.009,0,1023
2018,5,11,13,32,57.785,0.3027,-0.0925,-0.2622,0.9115,-0.8,0,0.8,0.011,0.01,-0.002,1023
2018,5,11,13,32,57.806,0.3028,-0.0926,-0.2622,0.9115,-1.3,0,0.7,0.006,0.012,0.001,1023
2018,5,11,13,32,57.811,0.3029,-0.0927,-0.2623,0.9114,-1,0.2,0.8,0.009,0.008,-0.002,1023
2018,5,11,13,32,57.828,0.303,-0.0927,-0.2624,0.9114,-0.7,0.1,0.7,0.011,0.012,-0.002,1023
2018,5,11,13,32,57.865,0.3031,-0.0928,-0.2624,0.9113,-0.6,0.2,0.8,0.013,0.012,-0.002,1023
2018,5,11,13,32,57.884,0.3032,-0.0928,-0.2624,0.9113,-0.7,0.1,0.7,0.01,0.01,-0.005,1023
2018,5,11,13,32,57.888,0.3033,-0.0929,-0.2625,0.9112,-0.5,0.1,0.8,0.01,0.007,0,1023
2018,5,11,13,32,57.908,0.3034,-0.0929,-0.2624,0.9112,-0.5,0.1,1,0.01,0.012,0.003,0
2018,5,11,13,32,57.93,0.3035,-0.0929,-0.2624,0.9112,-0.6,0.1,0.7,0.009,0.01,0,0
2018,5,11,13,32,57.95,0.3036,-0.0929,-0.2624,0.9112,-0.4,0.1,0.8,0.012,0.01,-0.001,0
2018,5,11,13,32,57.97,0.3037,-0.093,-0.2624,0.9111,-0.2,0.1,0.9,0.01,0.007,-0.005,0
2018,5,11,13,32,57.99,0.3038,-0.093,-0.2624,0.9111,-0.4,0.1,0.8,0.007,0.011,0,0
2018,5,11,13,32,58.01,0.3039,-0.093,-0.2624,0.9111,-0.6,0.1,0.7,0.009,0.011,-0.003,0
2018,5,11,13,32,58.049,0.304,-0.093,-0.2624,0.911,-0.9,0.1,0.8,0.011,0.01,0.001,0
2018,5,11,13,32,58.053,0.3041,-0.0931,-0.2624,0.911,-0.8,0.1,0.9,0.006,0.008,0.001,0
2018,5,11,13,32,58.07,0.3042,-0.0931,-0.2625,0.9109,-0.5,0.3,1,0.008,0.009,-0.001,0
2018,5,11,13,32,58.107,0.3043,-0.0931,-0.2624,0.9109,-0.8,0.1,0.8,0.004,0.015,0.001,0
2018,5,11,13,32,58.127,0.3044,-0.0932,-0.2625,0.9108,-1.1,0.1,0.7,0.008,0.016,0.003,0
2018,5,11,13,32,58.132,0.3045,-0.0932,-0.2625,0.9108,-0.4,0.3,0.8,0.011,0.003,-0.003,0
2018,5,11,13,32,58.151,0.3045,-0.0932,-0.2625,0.9108,0,0.4,0.7,0.006,0.011,0,0
2018,5,11,13,32,58.172,0.3046,-0.0932,-0.2624,0.9108,-0.5,0.3,0.8,0.009,0.013,0.002,0
2018,5,11,13,32,58.191,0.3047,-0.0932,-0.2624,0.9107,-1,0.1,0.7,0.011,0.01,0,0
2018,5,11,13,32,58.23,0.3048,-0.0933,-0.2625,0.9107,-0.7,0.1,0.8,0.006,0.008,0.005,0
2018,5,11,13,32,58.251,0.3049,-0.0933,-0.2625,0.9106,-0.4,0.2,0.7,0.009,0.011,0,0
2018,5,11,13,32,58.255,0.305,-0.0933,-0.2624,0.9106,-0.2,0.1,0.7,0.011,0.01,0,0
2018,5,11,13,32,58.27,0.3051,-0.0933,-0.2624,0.9106,-0.3,0.2,0.9,0.01,0.014,-0.001,0
2018,5,11,13,32,58.306,0.3052,-0.0934,-0.2623,0.9106,-0.7,0.1,0.9,0.009,0.008,0.002,0
2018,5,11,13,32,58.328,0.3053,-0.0934,-0.2624,0.9105,-0.7,0,0.8,0.009,0.012,0,0
2018,5,11,13,32,58.332,0.3054,-0.0934,-0.2624,0.9105,-0.7,0.1,0.8,0.01,0.01,0,0
2018,5,11,13,32,58.353,0.3055,-0.0935,-0.2624,0.9105,-0.4,0.1,0.8,0.012,0.012,-0.002,0
2018,5,11,13,32,58.373,0.3056,-0.0935,-0.2624,0.9104,-0.6,0,0.7,0.007,0.011,-0.001,0
2018,5,11,13,32,58.392,0.3057,-0.0935,-0.2624,0.9104,-1,0.2,0.8,0.012,0.013,0.002,0
2018,5,11,13,32,58.411,0.3058,-0.0936,-0.2625,0.9103,-0.7,0.3,0.8,0.01,0.009,-0.002,0
2018,5,11,13,32,58.45,0.3059,-0.0936,-0.2625,0.9103,-0.7,0.3,0.7,0.01,0.011,-0.001,0
2018,5,11,13,32,58.472,0.3059,-0.0937,-0.2626,0.9102,-0.9,0.1,0.8,0.009,0.011,-0.001,0
2018,5,11,13,32,58.476,0.306,-0.0937,-0.2626,0.9102,-0.4,0.3,0.7,0.012,0.007,0.002,0
2018,5,11,13,32,58.489,0.3061,-0.0937,-0.2626,0.9102,-0.8,0.3,0.9,0.008,0.01,0,0
2018,5,11,13,32,58.527,0.3062,-0.0937,-0.2627,0.9101,-1.2,0.3,1,0.011,0.007,-0.001,1023
2018,5,11,13,32,58.548,0.3063,-0.0938,-0.2628,0.91,-1,0.2,0.8,0.01,0.008,-0.002,1023
2018,5,11,13,32,58.552,0.3064,-0.0939,-0.2628,0.91,-0.6,0.2,0.7,0.011,0.012,-0.004,1023
2018,5,11,13,32,58.573,0.3065,-0.0939,-0.2628,0.9099,-0.7,0.2,0.7,0.009,0.013,0,1023
2018,5,11,13,32,58.593,0.3066,-0.0939,-0.2629,0.9099,-0.8,0.1,0.8,0.012,0.011,-0.002,1023
2018,5,11,13,32,58.631,0.3067,-0.094,-0.263,0.9098,-0.4,0.1,0.8,0.008,0.007,0.002,1023
2018,5,11,13,32,58.653,0.3068,-0.094,-0.263,0.9098,-0.6,-0.1,0.7,0.01,0.012,0.001,1023
2018,5,11,13,32,58.657,0.3069,-0.0941,-0.2629,0.9098,-0.5,0,0.9,0.009,0.011,-0.002,1023
2018,5,11,13,32,58.675,0.307,-0.0941,-0.2629,0.9097,-0.4,0.1,0.7,0.008,0.01,0.001,1023
2018,5,11,13,32,58.695,0.3071,-0.0941,-0.2629,0.9097,-0.8,0.1,0.8,0.009,0.01,0,1023
2018,5,11,13,32,58.735,0.3072,-0.0942,-0.263,0.9096,-1.3,0.1,0.8,0.011,0.01,-0.002,1023
2018,5,11,13,32,58.755,0.3073,-0.0943,-0.2631,0.9096,-0.9,0.2,0.7,0.009,0.008,0.003,1023
2018,5,11,13,32,58.759,0.3074,-0.0943,-0.2631,0.9095,-0.6,0.2,0.7,0.008,0.005,0,0
2018,5,11,13,32,58.773,0.3075,-0.0944,-0.2631,0.9095,-0.1,0.1,0.8,0.009,0.012,0.001,0
2018,5,11,13,32,58.793,0.3076,-0.0944,-0.263,0.9095,-0.6,0,0.8,0.008,0.015,-0.001,0
2018,5,11,13,32,58.811,0.3077,-0.0944,-0.2631,0.9094,-1.1,0,0.8,0.007,0.009,0.001,0
2018,5,11,13,32,58.835,0.3078,-0.0945,-0.2632,0.9094,-1,0.1,0.7,0.011,0.012,0.001,0
