ax,ay,az,dpitch,droll,dyaw,heart,time_1,time_2,time_3,time_4,time_5,time_6,w,x,y,z
0.012,0.016,-0.017,0.6,-10.1,1.4,0,2018,5,11,13,22,2.804,0.8496,-0.439,0.1621,0.2431
0.01,0.008,-0.01,1,-8.5,2.1,0,2018,5,11,13,22,2.814,0.8488,-0.4406,0.1617,0.2432
0.007,0.009,-0.013,1.9,-7.2,2.4,0,2018,5,11,13,22,2.82,0.8483,-0.4417,0.161,0.2433
-0.001,0.007,-0.006,1.7,-8,1.9,0,2018,5,11,13,22,2.86,0.8478,-0.4429,0.1603,0.2434
0.007,0.021,-0.007,1.9,-10.6,1.7,0,2018,5,11,13,22,2.88,0.8471,-0.4443,0.1596,0.2435
0.008,0.017,-0.003,0.6,-17,1.7,0,2018,5,11,13,22,2.884,0.8461,-0.4463,0.1588,0.2439
0.017,0.011,-0.019,0.3,-16.4,2.9,0,2018,5,11,13,22,2.904,0.8448,-0.449,0.1579,0.2442
0.016,0.008,-0.011,0.1,-12.1,3.4,0,2018,5,11,13,22,2.943,0.8438,-0.4511,0.1571,0.2443
0.019,0,0.004,0,-9.1,2.4,0,2018,5,11,13,22,2.962,0.843,-0.4528,0.1566,0.2443
0.031,0,0.006,0.1,-4.5,1.9,0,2018,5,11,13,22,2.966,0.8425,-0.4537,0.1562,0.2444
0.03,0.005,0,-0.7,-3.8,1.2,0,2018,5,11,13,22,3.003,0.8423,-0.4541,0.1561,0.2445
0.028,-0.009,-0.011,-0.7,-1.5,0.1,0,2018,5,11,13,22,3.007,0.842,-0.4547,0.1562,0.2445
0.022,0.002,0.007,-1.3,0.7,-0.8,0,2018,5,11,13,22,3.022,0.8419,-0.4547,0.1564,0.2447
0.019,0.007,0.02,-2.1,2.6,-1.9,0,2018,5,11,13,22,3.058,0.8419,-0.4543,0.157,0.245
0.019,0.029,0.012,-3.2,4,-2.7,0,2018,5,11,13,22,3.078,0.8421,-0.4536,0.1579,0.2452
0.02,0.026,0.009,-3.4,3.5,-2.5,0,2018,5,11,13,22,3.082,0.8422,-0.4528,0.1589,0.2455
0.021,0.02,-0.007,-3.5,1.3,-2.1,0,2018,5,11,13,22,3.122,0.8421,-0.4525,0.1599,0.2456
0.012,0.004,-0.004,-3.7,2.7,-1.8,0,2018,5,11,13,22,3.142,0.8421,-0.4522,0.1607,0.2458
0.015,0.011,0.002,-3.5,6.2,-1.4,0,2018,5,11,13,22,3.147,0.8423,-0.4515,0.1616,0.2458
0.02,0.01,0.005,-2.8,7.7,-1.6,1023,2018,5,11,13,22,3.166,0.8427,-0.4504,0.1625,0.2458
0.023,0.018,0.007,-2,5.1,-0.8,1023,2018,5,11,13,22,3.187,0.843,-0.4494,0.1636,0.2458
0.013,0.023,0.003,-0.7,1.7,0.5,1023,2018,5,11,13,22,3.206,0.8432,-0.4489,0.1642,0.2457
0.013,0.005,-0.002,0.4,1.5,1.5,1023,2018,5,11,13,22,3.243,0.8433,-0.4488,0.1644,0.2455
0.021,0.003,0,2,3.9,1.7,1023,2018,5,11,13,22,3.247,0.8436,-0.4482,0.1642,0.2455
0.032,-0.001,0.005,3.3,5.1,1.5,1023,2018,5,11,13,22,3.262,0.8441,-0.4475,0.164,0.2454
0.044,0.022,0.017,4.6,2.6,1.4,1023,2018,5,11,13,22,3.298,0.8454,-0.445,0.1631,0.246
0.044,0.001,0.034,4.3,2.8,0.6,1023,2018,5,11,13,22,3.318,0.8458,-0.444,0.1626,0.2466
0.046,-0.008,0.034,4.1,5.1,0.2,1023,2018,5,11,13,22,3.325,0.8463,-0.4431,0.1624,0.2469
0.038,-0.006,0.014,4.3,5.9,-0.7,1023,2018,5,11,13,22,3.344,0.8468,-0.4419,0.1622,0.2473
0.027,0.005,0.001,4.9,5.5,-2.4,1023,2018,5,11,13,22,3.367,0.8473,-0.4406,0.162,0.248
0.008,0.029,-0.003,5.5,6.5,-4.2,1023,2018,5,11,13,22,3.387,0.8478,-0.4391,0.1617,0.2491
0.005,0.049,-0.013,5.5,7.9,-5.6,1023,2018,5,11,13,22,3.406,0.8484,-0.4374,0.1616,0.2503
0.007,0.051,-0.024,4.9,8.9,-6.3,0,2018,5,11,13,22,3.445,0.8489,-0.4355,0.1619,0.2517
0.005,0.054,-0.017,3.9,7.8,-6.1,0,2018,5,11,13,22,3.466,0.8493,-0.4337,0.1624,0.253
0,0.043,-0.062,2.4,5.1,-5.4,0,2018,5,11,13,22,3.47,0.8498,-0.431,0.1634,0.2554
-0.026,0.032,-0.032,2.5,5.1,-2.8,0,2018,5,11,13,22,3.489,0.8501,-0.4286,0.164,0.2579
-0.031,0.034,-0.039,1.2,2.7,-1.2,0,2018,5,11,13,22,3.51,0.8505,-0.4276,0.1639,0.2584
0.001,0.006,-0.013,-1.3,-3.4,2.1,0,2018,5,11,13,22,3.53,0.8494,-0.4301,0.1636,0.258
0.009,0.013,0.001,-0.8,-2.3,2.2,0,2018,5,11,13,22,3.548,0.8492,-0.4306,0.1636,0.2577
0.016,0.018,0.006,-0.2,-1.9,2.2,0,2018,5,11,13,22,3.587,0.8492,-0.4309,0.1634,0.2576
0.016,0.021,0.017,-0.7,-3,2.2,0,2018,5,11,13,22,3.591,0.849,-0.4312,0.1634,0.2574
0.02,0.011,0.021,-1.6,-4.2,2.2,0,2018,5,11,13,22,3.608,0.8488,-0.4317,0.1634,0.2573
0.023,0.012,0.02,-2.2,-3.1,1.6,0,2018,5,11,13,22,3.644,0.8486,-0.4323,0.1636,0.2571
0.034,0.018,0.007,-2,-0.9,1,0,2018,5,11,13,22,3.664,0.8483,-0.4328,0.164,0.257
0.029,0.03,0.022,-1.8,1.9,0.4,0,2018,5,11,13,22,3.668,0.8482,-0.4327,0.1646,0.2569
0.022,0.036,0.018,-2.6,1.5,0.3,0,2018,5,11,13,22,3.706,0.8483,-0.4323,0.1653,0.2568
0.017,0.035,0.01,-3.4,-1.5,0.5,0,2018,5,11,13,22,3.727,0.8482,-0.4323,0.1661,0.2567
0.009,0.032,0.008,-4,-3.8,1.1,0,2018,5,11,13,22,3.731,0.8479,-0.4329,0.1667,0.2565
0.008,0.022,-0.004,-3.8,-2.9,1.3,0,2018,5,11,13,22,3.747,0.8475,-0.4335,0.1672,0.2562
0.006,0.018,-0.003,-2.7,-0.9,1.4,0,2018,5,11,13,22,3.784,0.8472,-0.434,0.1677,0.2559
0,0.008,0.005,-2.2,-1.2,1.5,0,2018,5,11,13,22,3.805,0.8472,-0.4342,0.1679,0.2557
0.001,0.008,0.001,-2.1,-2.3,1.3,0,2018,5,11,13,22,3.809,0.8471,-0.4345,0.168,0.2555
0.003,0.004,0.008,-1.8,-1.8,1.1,0,2018,5,11,13,22,3.829,0.847,-0.4348,0.168,0.2553
0.012,0.013,0,-0.3,0,1,0,2018,5,11,13,22,3.849,0.8469,-0.4349,0.1681,0.2553
0.016,0.018,0.006,0.1,0.5,1.1,0,2018,5,11,13,22,3.89,0.8469,-0.4349,0.1682,0.2552
0.011,0.02,0.01,0.2,-0.1,1,0,2018,5,11,13,22,3.909,0.847,-0.4348,0.1683,0.2551
0.015,0.015,0.01,-0.6,-1.1,0.8,0,2018,5,11,13,22,3.913,0.847,-0.4348,0.1683,0.2551
0.011,0.007,0.004,-0.7,-1.5,0.7,0,2018,5,11,13,22,3.932,0.8468,-0.435,0.1685,0.2551
0.009,0.013,0,-0.1,-0.6,0.4,0,2018,5,11,13,22,3.95,0.8467,-0.4352,0.1685,0.2551
0.006,0.028,0.004,0.8,1.2,0.3,0,2018,5,11,13,22,3.968,0.8468,-0.435,0.1686,0.2553
0.007,0.032,0.006,0.8,1.3,0.3,0,2018,5,11,13,22,4.007,0.847,-0.4345,0.1685,0.2555
0.006,0.03,0.004,0,0.6,0.6,0,2018,5,11,13,22,4.029,0.8471,-0.4342,0.1687,0.2555
0.002,0.02,-0.004,-0.4,-1.4,0.5,0,2018,5,11,13,22,4.033,0.847,-0.4343,0.1688,0.2555
0.007,0.011,-0.005,-0.7,-1,0.7,0,2018,5,11,13,22,4.052,0.8469,-0.4346,0.169,0.2555
0.01,0.016,-0.006,-0.4,0,1.1,0,2018,5,11,13,22,4.07,0.8468,-0.4347,0.1691,0.2554
0.008,0.019,-0.013,0.3,-0.5,1.4,0,2018,5,11,13,22,4.089,0.8467,-0.4348,0.1692,0.2553
0.004,0.015,0,0.1,-0.7,1.8,0,2018,5,11,13,22,4.128,0.8468,-0.4348,0.169,0.2553
0.003,0.018,0,-0.1,-1.3,1.9,0,2018,5,11,13,22,4.148,0.8468,-0.4349,0.1689,0.2552
0.015,0.008,-0.003,-0.2,-2.3,1.6,0,2018,5,11,13,22,4.152,0.8467,-0.4352,0.1688,0.255
0.015,0.011,0,0.1,-1.9,1.3,0,2018,5,11,13,22,4.171,0.8465,-0.4356,0.1687,0.255
0.016,0.014,0.007,0.1,-0.6,0.9,0,2018,5,11,13,22,4.189,0.8465,-0.4356,0.1687,0.2551
0.02,0.027,0.002,0.5,0.9,0.9,1023,2018,5,11,13,22,4.209,0.8465,-0.4355,0.1688,0.2551
0.017,0.025,0.009,0,-0.8,0.8,1023,2018,5,11,13,22,4.231,0.8466,-0.4352,0.1689,0.2553
0.015,0.022,0.007,-0.5,-2,0.8,1023,2018,5,11,13,22,4.27,0.8465,-0.4354,0.169,0.2553
0.015,0.018,0.003,-0.7,-1.6,0.9,1023,2018,5,11,13,22,4.29,0.8464,-0.4355,0.169,0.2554
0.015,0.011,-0.004,-0.3,-0.5,0.9,1023,2018,5,11,13,22,4.294,0.8463,-0.4357,0.1691,0.2555
0.013,0.014,0.004,0,0,0,1023,2018,5,11,13,22,4.313,0.8462,-0.4357,0.1693,0.2555
0.013,0.023,-0.001,0,0,0,1023,2018,5,11,13,22,4.334,0.8461,-0.4357,0.1695,0.2556
0.014,0.022,0.007,-0.2,-0.4,0.7,1023,2018,5,11,13,22,4.353,0.8461,-0.4357,0.1697,0.2556
0.016,0.015,0.008,-0.8,-1.2,0.9,1023,2018,5,11,13,22,4.373,0.846,-0.4358,0.1698,0.2556
0.013,0.011,0.001,-0.7,0.1,0.6,1023,2018,5,11,13,22,4.414,0.8457,-0.4363,0.1702,0.2554
0.012,0.015,0,-0.6,0.8,0.2,1023,2018,5,11,13,22,4.433,0.8459,-0.4359,0.1703,0.2556
0.018,0.018,-0.004,-1,0.9,0,1023,2018,5,11,13,22,4.437,0.8458,-0.4359,0.1707,0.2556
0.009,0.03,0.004,-1.5,0.8,0.4,1023,2018,5,11,13,22,4.456,0.8459,-0.4356,0.171,0.2556
0.014,0.031,-0.004,-1.6,0.3,0.3,1023,2018,5,11,13,22,4.474,0.8458,-0.4355,0.1715,0.2555
0.01,0.023,-0.006,-1.9,-0.7,0.6,1023,2018,5,11,13,22,4.493,0.8457,-0.4356,0.172,0.2555
0.012,0.016,-0.004,-1.5,-1.2,0.8,0,2018,5,11,13,22,4.514,0.8456,-0.4357,0.1722,0.2554
0.007,0.011,-0.003,-0.7,-0.1,0.4,0,2018,5,11,13,22,4.533,0.8453,-0.4362,0.1727,0.2553
0,0.018,0,0,0.3,0.6,0,2018,5,11,13,22,4.553,0.8453,-0.4362,0.1728,0.2552
0.013,0.017,0.004,0.9,-1.6,1.5,0,2018,5,11,13,22,4.588,0.8455,-0.4362,0.1721,0.2552
0.016,0.015,0.004,0.8,-1.3,1.3,0,2018,5,11,13,22,4.609,0.8456,-0.4361,0.1717,0.2554
0.019,0.014,0,0.8,0.5,0.9,0,2018,5,11,13,22,4.616,0.8456,-0.436,0.1716,0.2556
0.011,0.024,0.002,0.4,0.3,1.1,0,2018,5,11,13,22,4.637,0.8458,-0.4355,0.1714,0.2558
0.011,0.017,-0.006,0.3,-0.1,1.4,0,2018,5,11,13,22,4.658,0.8459,-0.4354,0.1713,0.2559
0.008,0.02,0,0.3,-0.7,1.3,0,2018,5,11,13,22,4.696,0.8458,-0.4354,0.1713,0.2558
0.005,0.013,0.007,-0.1,-1.1,0.9,0,2018,5,11,13,22,4.7,0.8459,-0.4354,0.1712,0.2559
0.012,0.009,0,-0.2,-0.6,0.7,0,2018,5,11,13,22,4.716,0.8458,-0.4354,0.1711,0.256
0.013,0.019,-0.005,0.1,-0.5,0.8,0,2018,5,11,13,22,4.754,0.8458,-0.4354,0.1712,0.256
0.011,0.02,0.002,0.3,-0.3,1.1,0,2018,5,11,13,22,4.774,0.8458,-0.4355,0.1712,0.256
0.012,0.025,0.003,0.5,0.1,1.1,0,2018,5,11,13,22,4.778,0.8459,-0.4351,0.171,0.2563
0.013,0.02,-0.005,0.7,-1,1.1,0,2018,5,11,13,22,4.797,0.846,-0.435,0.1709,0.2564
0.012,0.021,0.003,0.7,-1.7,1.1,0,2018,5,11,13,22,4.818,0.8459,-0.4351,0.1708,0.2565
0.018,0.013,0.001,0.6,-1.3,0.9,0,2018,5,11,13,22,4.838,0.8458,-0.4353,0.1706,0.2567
0.011,0.019,-0.002,0.8,-0.4,0.7,0,2018,5,11,13,22,4.858,0.8457,-0.4354,0.1707,0.2567
0.01,0.011,0,0.6,-0.3,0.3,0,2018,5,11,13,22,4.877,0.8457,-0.4355,0.1707,0.2568
0.011,0.015,0.003,0.6,-0.1,0.2,0,2018,5,11,13,22,4.894,0.8457,-0.4353,0.1706,0.257
0.007,0.021,0.001,0.2,-0.5,0.4,0,2018,5,11,13,22,4.931,0.8456,-0.4353,0.1707,0.2571
0.011,0.018,0.001,-0.2,-1.4,0.5,0,2018,5,11,13,22,4.952,0.8456,-0.4354,0.1707,0.2572
0.008,0.022,-0.003,0,-1.5,0.8,0,2018,5,11,13,22,4.956,0.8455,-0.4355,0.1707,0.2573
0.009,0.015,-0.001,0.1,-1.2,0.8,0,2018,5,11,13,22,4.976,0.8453,-0.4358,0.1708,0.2572
0.009,0.015,0,0,-0.5,0.8,0,2018,5,11,13,22,4.997,0.8453,-0.4358,0.1707,0.2573
0.009,0.014,0.005,-0.2,-0.7,0.7,0,2018,5,11,13,22,5.017,0.8453,-0.4358,0.1707,0.2574
0.008,0.015,0,-0.3,-1.3,0.9,0,2018,5,11,13,22,5.039,0.8452,-0.436,0.1708,0.2574
0.009,0.02,0.003,-0.3,-2,0.9,0,2018,5,11,13,22,5.059,0.8451,-0.4361,0.1707,0.2575
0.007,0.02,-0.001,0,-1.6,1,0,2018,5,11,13,22,5.078,0.845,-0.4363,0.1707,0.2576
0.008,0.02,-0.005,0.6,-0.7,0.8,0,2018,5,11,13,22,5.1,0.8449,-0.4365,0.1707,0.2576
0.008,0.016,0.001,0.3,-0.2,1,0,2018,5,11,13,22,5.115,0.8449,-0.4364,0.1706,0.2576
0.011,0.016,0.007,0,0,1,0,2018,5,11,13,22,5.155,0.845,-0.4363,0.1705,0.2577
0.011,0.017,0.003,-0.2,-1.1,0.9,0,2018,5,11,13,22,5.175,0.8451,-0.436,0.1704,0.2579
0.011,0.021,-0.001,-0.1,-1,1.1,0,2018,5,11,13,22,5.179,0.8451,-0.4361,0.1704,0.2579
0.014,0.014,0.003,0.4,-0.7,1.3,0,2018,5,11,13,22,5.216,0.8451,-0.436,0.1702,0.2581
0.011,0.014,0.007,0.3,-0.6,1.3,0,2018,5,11,13,22,5.237,0.8451,-0.436,0.1701,0.2581
0.01,0.014,0.006,-0.2,-0.9,0.9,0,2018,5,11,13,22,5.241,0.845,-0.4361,0.1702,0.258
0.013,0.019,0.002,-0.2,-1.2,0.6,0,2018,5,11,13,22,5.259,0.8449,-0.4364,0.1703,0.258
0.011,0.024,0,0,-0.6,0.4,0,2018,5,11,13,22,5.296,0.8449,-0.4362,0.1702,0.2582
0.011,0.018,0,0,-0.4,0.5,1023,2018,5,11,13,22,5.315,0.8449,-0.4361,0.1702,0.2584
0.014,0.019,0.003,-0.1,-0.9,0.7,1023,2018,5,11,13,22,5.322,0.8449,-0.4361,0.1702,0.2585
0.016,0.012,0.004,-0.2,-1,0.7,1023,2018,5,11,13,22,5.338,0.8448,-0.4363,0.1703,0.2585
0.014,0.016,-0.001,0,0,0,1023,2018,5,11,13,22,5.357,0.8447,-0.4362,0.1704,0.2587
0.004,0.019,0.002,0,0,0,1023,2018,5,11,13,22,5.378,0.8447,-0.4363,0.1706,0.2587
0.009,0.016,-0.009,-0.3,-0.6,0.3,1023,2018,5,11,13,22,5.418,0.8446,-0.4364,0.1707,0.2588
0.007,0.026,0,-0.6,-1,1,1023,2018,5,11,13,22,5.437,0.8445,-0.4364,0.1708,0.2588
0.013,0.02,0.002,-0.6,-1.8,1,1023,2018,5,11,13,22,5.441,0.8444,-0.4367,0.1709,0.2588
0.014,0.019,-0.011,-0.2,-1.6,1.1,1023,2018,5,11,13,22,5.459,0.8443,-0.4369,0.171,0.2588
0.006,0.021,0.002,0.2,-0.6,1.1,1023,2018,5,11,13,22,5.498,0.8442,-0.4369,0.1709,0.2589
0,0.023,0.002,0.6,-0.1,1.2,1023,2018,5,11,13,22,5.518,0.8443,-0.4367,0.1707,0.259
0.003,0.022,-0.001,1,-0.4,1.4,1023,2018,5,11,13,22,5.522,0.8444,-0.4366,0.1704,0.2591
0.003,0.018,0,1.2,-0.4,1.9,1023,2018,5,11,13,22,5.542,0.8446,-0.4364,0.1701,0.2592
0.006,0.018,-0.001,1.2,-0.4,2.2,1023,2018,5,11,13,22,5.579,0.8447,-0.4363,0.1697,0.2592
0.01,0.013,0.002,0.9,-1.1,2.2,0,2018,5,11,13,22,5.6,0.8448,-0.4363,0.1694,0.2591
0.01,0.02,0,0.7,-1,2.1,0,2018,5,11,13,22,5.604,0.8447,-0.4365,0.1692,0.259
0.011,0.013,0.001,0.2,-1.3,1.6,0,2018,5,11,13,22,5.625,0.8447,-0.4368,0.1692,0.2589
0.011,0.018,0.006,-0.1,-1,1.5,0,2018,5,11,13,22,5.64,0.8447,-0.4368,0.1691,0.2588
0.015,0.008,-0.001,-0.4,-0.6,1.4,0,2018,5,11,13,22,5.677,0.8446,-0.4369,0.1691,0.2588
0.012,0.015,0.004,-0.4,-0.3,1.1,0,2018,5,11,13,22,5.698,0.8446,-0.4369,0.1691,0.2588
0.014,0.017,-0.005,-0.1,0,1.3,0,2018,5,11,13,22,5.702,0.8446,-0.437,0.1692,0.2586
0.012,0.028,0,0.3,-0.1,1.7,0,2018,5,11,13,22,5.722,0.8446,-0.437,0.1693,0.2586
0.012,0.015,0.002,0.1,-0.7,1.6,0,2018,5,11,13,22,5.742,0.8446,-0.437,0.1692,0.2585
0.007,0.02,0.001,0.1,-0.4,1.6,0,2018,5,11,13,22,5.765,0.8447,-0.4368,0.169,0.2587
0.007,0.018,-0.002,0.5,0,1.3,0,2018,5,11,13,22,5.784,0.8448,-0.4368,0.1689,0.2587
0.007,0.02,0.01,0.9,0.1,1.4,0,2018,5,11,13,22,5.823,0.8449,-0.4364,0.1686,0.2588
0.019,0.019,0.004,0.6,-0.9,1.3,0,2018,5,11,13,22,5.842,0.8451,-0.4362,0.1684,0.259
0.017,0.02,0,0.1,-2,1.2,0,2018,5,11,13,22,5.847,0.845,-0.4363,0.1683,0.2591
0.014,0.021,0.002,0.8,-1.2,0.8,0,2018,5,11,13,22,5.864,0.8449,-0.4365,0.1682,0.2592
0.015,0.02,0.003,0.9,0,0.6,0,2018,5,11,13,22,5.882,0.8449,-0.4364,0.1681,0.2594
0.008,0.024,0.001,0.8,-0.4,0.5,0,2018,5,11,13,22,5.903,0.8449,-0.4362,0.1681,0.2596
0.008,0.02,0.001,0.8,-1.2,0.6,0,2018,5,11,13,22,5.94,0.8448,-0.4364,0.1681,0.2596
0.007,0.016,0.005,0.3,-1.6,0.6,0,2018,5,11,13,22,5.963,0.8447,-0.4365,0.168,0.2598
0.007,0.017,0,0.1,-1.1,0.3,0,2018,5,11,13,22,5.968,0.8447,-0.4365,0.1678,0.26
0.01,0.014,0,0.1,-0.6,0.2,0,2018,5,11,13,22,5.983,0.8446,-0.4365,0.1678,0.2602
0.013,0.017,-0.002,0.1,-0.6,0.3,0,2018,5,11,13,22,6.019,0.8446,-0.4366,0.1679,0.2603
0.009,0.02,-0.005,0.3,-1.4,0.7,0,2018,5,11,13,22,6.04,0.8444,-0.4367,0.168,0.2604
0.007,0.016,0.004,0.2,-1.4,0.8,0,2018,5,11,13,22,6.044,0.8444,-0.4368,0.1679,0.2605
0.004,0.021,0.003,0.4,-0.6,0.9,0,2018,5,11,13,22,6.062,0.8443,-0.437,0.1679,0.2605
0.007,0.014,-0.002,0.6,-0.7,0.8,0,2018,5,11,13,22,6.081,0.8444,-0.4368,0.1676,0.2607
0.008,0.021,0.007,0.6,-1.1,1,0,2018,5,11,13,22,6.101,0.8444,-0.4368,0.1674,0.2609
0.01,0.017,0,0.9,-1.1,1,0,2018,5,11,13,22,6.139,0.8443,-0.4369,0.1674,0.2609
0.01,0.021,-0.002,1,-1.2,1.1,0,2018,5,11,13,22,6.159,0.8442,-0.437,0.1672,0.261
0.009,0.017,0.001,0.9,-0.7,1.2,0,2018,5,11,13,22,6.164,0.8443,-0.437,0.1669,0.2612
0.01,0.019,0,0.8,-1.1,1.2,0,2018,5,11,13,22,6.202,0.8443,-0.4369,0.1666,0.2614
0.006,0.017,0.004,1,-1.3,1,0,2018,5,11,13,22,6.223,0.8443,-0.4369,0.1663,0.2616
0.007,0.013,0.001,0.6,-0.9,0.8,0,2018,5,11,13,22,6.227,0.8442,-0.4371,0.1663,0.2616
0.01,0.013,-0.002,0.6,-1.3,0.8,1023,2018,5,11,13,22,6.246,0.8442,-0.4372,0.1661,0.2618
0.006,0.021,-0.001,0.6,-1.6,0.9,1023,2018,5,11,13,22,6.285,0.8441,-0.4373,0.166,0.2619
0.009,0.02,-0.008,0.8,-1.3,1.1,1023,2018,5,11,13,22,6.289,0.844,-0.4375,0.1659,0.262
0.009,0.019,0.004,0.9,-0.9,1.6,1023,2018,5,11,13,22,6.304,0.8439,-0.4377,0.1658,0.262
0.008,0.017,-0.002,0.8,-1.3,1.6,1023,2018,5,11,13,22,6.324,0.844,-0.4376,0.1654,0.2621
0.008,0.017,-0.003,0.6,-1.6,1.5,1023,2018,5,11,13,22,6.361,0.8439,-0.4379,0.1653,0.262
0.01,0.015,-0.001,0.6,-1.9,1.5,1023,2018,5,11,13,22,6.382,0.8438,-0.4381,0.1652,0.262
0.013,0.021,-0.004,1.1,-1.2,1.6,1023,2018,5,11,13,22,6.386,0.8437,-0.4383,0.1649,0.2622
0.014,0.018,0.004,1.5,-0.9,1.7,1023,2018,5,11,13,22,6.406,0.8437,-0.4383,0.1647,0.2622
0.014,0.02,0.007,1.4,-1.1,1.9,1023,2018,5,11,13,22,6.424,0.8437,-0.4385,0.1645,0.2621
0.016,0.013,0.005,0.8,-1.6,1.1,1023,2018,5,11,13,22,6.464,0.8436,-0.4387,0.1644,0.2621
0.012,0.017,0,0.4,-1.5,0.7,1023,2018,5,11,13,22,6.484,0.8435,-0.4388,0.1642,0.2622
0.009,0.016,-0.002,0.6,-0.9,0.3,0,2018,5,11,13,22,6.489,0.8434,-0.4389,0.1641,0.2624
0.013,0.026,-0.001,0.5,-0.9,0.7,0,2018,5,11,13,22,6.51,0.8434,-0.439,0.1641,0.2626
0.015,0.024,0.003,0.3,-1.8,0.7,0,2018,5,11,13,22,6.53,0.8433,-0.4389,0.164,0.2628
0.015,0.017,0,0.1,-2.4,0.7,0,2018,5,11,13,22,6.549,0.8431,-0.4393,0.164,0.2629
0.011,0.013,0.004,0.6,-2.1,0.3,0,2018,5,11,13,22,6.567,0.8429,-0.4396,0.164,0.263
0.011,0.007,0.002,1,-0.4,0.5,0,2018,5,11,13,22,6.587,0.8429,-0.4395,0.1637,0.2634
0.007,0.01,0.003,1.2,0,0.6,0,2018,5,11,13,22,6.607,0.843,-0.4394,0.1635,0.2635
0.008,0.016,0.002,1.4,-0.9,0.6,0,2018,5,11,13,22,6.627,0.8429,-0.4394,0.1634,0.2636
0.01,0.023,0.013,0.9,-1.5,0.4,0,2018,5,11,13,22,6.662,0.8429,-0.4395,0.1631,0.2639
0.01,0.018,0.004,0.6,-0.8,0.4,0,2018,5,11,13,22,6.682,0.8429,-0.4393,0.1629,0.2642
0.008,0.014,0.006,0,0,0,0,2018,5,11,13,22,6.686,0.8429,-0.4392,0.163,0.2643
0.006,0.015,-0.001,0,0,0,0,2018,5,11,13,22,6.726,0.8428,-0.4392,0.1631,0.2644
0.004,0.014,0,0,0,0,0,2018,5,11,13,22,6.746,0.8428,-0.4393,0.1633,0.2645
0.004,0.011,0.002,-0.2,-0.2,0.7,0,2018,5,11,13,22,6.75,0.8427,-0.4394,0.1634,0.2644
0.006,0.013,0.001,-0.2,-0.2,0.5,0,2018,5,11,13,22,6.786,0.8426,-0.4395,0.1635,0.2644
0.005,0.013,-0.002,-0.2,-0.4,0.5,0,2018,5,11,13,22,6.791,0.8426,-0.4396,0.1636,0.2644
0.002,0.02,0,0.1,0,0.8,0,2018,5,11,13,22,6.806,0.8426,-0.4395,0.1635,0.2646
0.002,0.023,-0.007,0.8,0.3,1,0,2018,5,11,13,22,6.843,0.8427,-0.4392,0.1632,0.2647
0.008,0.02,0.002,0.6,-0.7,1.6,0,2018,5,11,13,22,6.866,0.8429,-0.4389,0.1629,0.2648
0.014,0.022,0.004,0.8,-0.9,1.6,0,2018,5,11,13,22,6.87,0.8429,-0.439,0.1629,0.2648
0.016,0.014,0,0.7,-0.9,1.6,0,2018,5,11,13,22,6.89,0.843,-0.4389,0.1626,0.265
0.021,0.015,0,1.1,-0.1,1.3,0,2018,5,11,13,22,6.91,0.843,-0.4388,0.1625,0.2651
0.014,0.02,0.01,1.1,0.5,0.7,0,2018,5,11,13,22,6.947,0.843,-0.4387,0.1624,0.2652
0.016,0.019,0.009,0,0,0,0,2018,5,11,13,22,6.968,0.843,-0.4386,0.1625,0.2653
0.013,0.021,0.009,0,-1.1,0.2,0,2018,5,11,13,22,6.972,0.8429,-0.4386,0.1627,0.2653
0.006,0.014,-0.005,0,0,0,0,2018,5,11,13,22,6.987,0.8429,-0.4385,0.1626,0.2656
0.01,0.014,-0.003,0,0,0,0,2018,5,11,13,22,7.026,0.8429,-0.4386,0.1628,0.2656
0.007,0.016,0,0,0,0,0,2018,5,11,13,22,7.045,0.8428,-0.4386,0.1629,0.2657
0.003,0.022,0.002,0,0,0,0,2018,5,11,13,22,7.049,0.8427,-0.4386,0.1631,0.2658
0.004,0.023,-0.005,-0.1,-0.6,0.7,0,2018,5,11,13,22,7.088,0.8427,-0.4387,0.1632,0.2658
0.003,0.023,-0.002,-0.1,-1.1,0.9,0,2018,5,11,13,22,7.107,0.8427,-0.4386,0.163,0.266
0.005,0.02,-0.005,-0.1,-1.1,1.1,0,2018,5,11,13,22,7.111,0.8426,-0.4387,0.163,0.266
0.01,0.011,0.002,-0.2,-1.2,1.1,0,2018,5,11,13,22,7.131,0.8426,-0.4388,0.1629,0.2661
0.009,0.012,0.002,0,-0.6,1,0,2018,5,11,13,22,7.15,0.8426,-0.4387,0.1628,0.2662
0.012,0.02,-0.002,0.1,-0.6,1,0,2018,5,11,13,22,7.172,0.8427,-0.4386,0.1627,0.2664
0.002,0.027,0,0.1,-0.9,1,0,2018,5,11,13,22,7.192,0.8427,-0.4383,0.1624,0.2666
0.007,0.026,0,0.4,-1.2,1,0,2018,5,11,13,22,7.208,0.8427,-0.4385,0.1625,0.2666
0.01,0.017,0.011,0.6,-0.7,1.7,0,2018,5,11,13,22,7.228,0.8426,-0.4386,0.1624,0.2666
0.01,0.023,0.004,0.5,-1.1,1.7,1023,2018,5,11,13,22,7.266,0.8427,-0.4385,0.1622,0.2666
0.013,0.014,0.002,0.7,-0.8,1.4,1023,2018,5,11,13,22,7.287,0.8427,-0.4386,0.162,0.2666
0.013,0.012,0,0.4,-0.7,0.9,1023,2018,5,11,13,22,7.291,0.8427,-0.4385,0.1618,0.2668
0.009,0.007,0,0.1,-1.1,0.6,1023,2018,5,11,13,22,7.311,0.8427,-0.4386,0.1617,0.2669
0.008,0.021,-0.003,-0.1,-0.9,0.6,1023,2018,5,11,13,22,7.332,0.8426,-0.4387,0.1617,0.267
0.008,0.023,-0.001,0,-0.6,0.7,1023,2018,5,11,13,22,7.367,0.8426,-0.4385,0.1616,0.2672
0.01,0.023,0.002,-0.6,-1.3,0.8,1023,2018,5,11,13,22,7.388,0.8426,-0.4386,0.1616,0.2673
0.012,0.018,0.002,-0.9,-1.6,0.7,1023,2018,5,11,13,22,7.395,0.8425,-0.4386,0.1616,0.2674
0.012,0.022,0.002,-0.7,-1.5,0.4,1023,2018,5,11,13,22,7.433,0.8422,-0.4391,0.1619,0.2675
0.009,0.02,-0.004,-0.4,-1.5,0.4,1023,2018,5,11,13,22,7.452,0.8421,-0.4392,0.1619,0.2677
0.008,0.019,-0.002,-0.2,-1.2,0.4,1023,2018,5,11,13,22,7.456,0.8419,-0.4393,0.162,0.2678
0.007,0.021,-0.005,0.3,-1.3,0.7,1023,2018,5,11,13,22,7.475,0.8419,-0.4393,0.1618,0.2681
0.005,0.014,0.007,0.3,-1.1,0.9,1023,2018,5,11,13,22,7.511,0.8419,-0.4393,0.1616,0.2683
0.009,0.013,0,0.6,-1.3,1,0,2018,5,11,13,22,7.516,0.8419,-0.4393,0.1613,0.2684
0.005,0.013,0.008,0.4,-1.9,1.4,0,2018,5,11,13,22,7.531,0.8419,-0.4394,0.1611,0.2685
0.006,0.02,0.001,0,-1.9,1.4,0,2018,5,11,13,22,7.569,0.8418,-0.4397,0.1609,0.2685
0.01,0.017,0.007,-0.4,-1.6,1.2,0,2018,5,11,13,22,7.59,0.8417,-0.4398,0.1608,0.2685
0.01,0.013,0.009,-0.9,-1.8,0.8,0,2018,5,11,13,22,7.594,0.8415,-0.4402,0.1609,0.2684
0.015,0.013,0.002,-0.9,-1,0.7,0,2018,5,11,13,22,7.613,0.8413,-0.4404,0.161,0.2685
0.01,0.018,0.008,-1.2,-0.5,0.8,0,2018,5,11,13,22,7.649,0.8413,-0.4404,0.1612,0.2685
0.006,0.019,0.005,-1.4,-0.6,1,0,2018,5,11,13,22,7.669,0.8413,-0.4403,0.1612,0.2686
0.007,0.014,0.011,-1.8,-1.5,1.1,0,2018,5,11,13,22,7.677,0.8412,-0.4405,0.1614,0.2685
0.008,0.014,0.005,-1.8,-1.8,0.9,0,2018,5,11,13,22,7.698,0.841,-0.4409,0.1617,0.2683
0.007,0.012,0,-1.5,-0.6,0.7,0,2018,5,11,13,22,7.712,0.8409,-0.441,0.1618,0.2683
0.007,0.017,0.001,-1,0.8,0.6,0,2018,5,11,13,22,7.751,0.8408,-0.4412,0.1621,0.2682
0.006,0.029,0.001,-0.9,0.5,1,0,2018,5,11,13,22,7.773,0.8409,-0.4409,0.1623,0.2682
0.004,0.026,0.007,-0.9,-0.7,1.6,0,2018,5,11,13,22,7.777,0.8409,-0.4409,0.1624,0.2681
0.006,0.022,0,-0.9,-1.6,1.9,0,2018,5,11,13,22,7.796,0.8408,-0.4411,0.1626,0.2679
0.013,0.014,0,-0.7,-1.2,1.6,0,2018,5,11,13,22,7.823,0.8407,-0.4415,0.1626,0.2677
0.013,0.006,0.002,-0.6,-0.1,1.3,0,2018,5,11,13,22,7.836,0.8406,-0.4418,0.1627,0.2675
0.017,0.012,0.006,-0.5,0.1,0.6,0,2018,5,11,13,22,7.872,0.8406,-0.4418,0.1629,0.2675
0.014,0.017,0.003,-0.6,-0.1,0.5,0,2018,5,11,13,22,7.894,0.8406,-0.4416,0.163,0.2676
0.013,0.016,0.007,-0.6,-0.4,0.7,0,2018,5,11,13,22,7.898,0.8406,-0.4415,0.1631,0.2678
0.008,0.014,0.002,-1.2,-0.8,0.5,0,2018,5,11,13,22,7.917,0.8405,-0.4416,0.1633,0.2678
0.006,0.011,0.002,-1,-0.6,0.5,0,2018,5,11,13,22,7.937,0.8403,-0.4419,0.1635,0.2677
0.01,0.014,0,-0.9,0,0.1,0,2018,5,11,13,22,7.954,0.8403,-0.4418,0.1636,0.2678
0.011,0.012,0,-0.8,-0.3,0.1,0,2018,5,11,13,22,7.973,0.8403,-0.4418,0.1637,0.2679
0.007,0.016,0,-0.6,-0.1,0.2,0,2018,5,11,13,22,8.014,0.8402,-0.4419,0.164,0.2679
0.003,0.023,-0.007,-0.7,-0.4,0.5,0,2018,5,11,13,22,8.034,0.84,-0.4421,0.1642,0.2679
0.007,0.022,0,-0.6,-0.8,0.7,0,2018,5,11,13,22,8.038,0.84,-0.442,0.1643,0.268
0.009,0.017,-0.003,-0.9,-0.6,1.1,0,2018,5,11,13,22,8.057,0.84,-0.442,0.1643,0.2681
0.009,0.012,0.002,-0.9,-0.4,0.8,0,2018,5,11,13,22,8.078,0.8398,-0.4424,0.1645,0.268
0.011,0.02,0.001,-0.9,-0.1,0.7,0,2018,5,11,13,22,8.097,0.8398,-0.4424,0.1646,0.268
0.008,0.024,0,-1,-0.4,0.9,0,2018,5,11,13,22,8.119,0.8397,-0.4424,0.1648,0.268
0.009,0.012,-0.002,-0.7,-1.2,1.4,0,2018,5,11,13,22,8.137,0.8395,-0.4428,0.165,0.2679
0.009,0.021,0.005,0.2,-1,0.7,0,2018,5,11,13,22,8.154,0.8392,-0.4429,0.1642,0.2689
0.013,0.019,0,-0.5,-1,1,0,2018,5,11,13,22,8.193,0.8392,-0.443,0.1642,0.2691
0.014,0.022,-0.005,-0.4,-1.3,1.3,0,2018,5,11,13,22,8.213,0.8391,-0.4431,0.1642,0.2692
0.012,0.022,-0.005,-0.1,-1.5,1.1,0,2018,5,11,13,22,8.217,0.839,-0.4432,0.1642,0.2693
0.011,0.02,0.002,0.3,-1.5,1.3,0,2018,5,11,13,22,8.237,0.8389,-0.4434,0.1641,0.2693
0.006,0.013,0.003,0.9,-1.5,1.1,0,2018,5,11,13,22,8.276,0.8388,-0.4437,0.164,0.2693
0.005,0.015,0.003,1.4,-0.6,1.2,0,2018,5,11,13,22,8.297,0.8388,-0.4437,0.1637,0.2694
0.003,0.013,0,1.4,-0.5,1,0,2018,5,11,13,22,8.301,0.8388,-0.4436,0.1634,0.2696
0.005,0.02,-0.003,1.7,-1.1,1.3,1023,2018,5,11,13,22,8.321,0.8388,-0.4437,0.1632,0.2697
0.009,0.015,0,1.5,-1.2,1.8,1023,2018,5,11,13,22,8.339,0.8388,-0.4438,0.1628,0.2698
0.016,0.018,0.005,1.5,-0.8,1.9,1023,2018,5,11,13,22,8.378,0.8389,-0.4436,0.1624,0.27
0.01,0.018,0.012,0.8,-0.8,1.7,1023,2018,5,11,13,22,8.382,0.8389,-0.4436,0.1621,0.27
0.007,0.016,0.006,-0.2,-0.7,1.5,1023,2018,5,11,13,22,8.399,0.839,-0.4435,0.1619,0.2701
0.009,0.014,0.001,-0.4,-0.8,1.4,1023,2018,5,11,13,22,8.418,0.8389,-0.4437,0.1619,0.27
0.009,0.016,-0.001,-0.8,-0.5,1.3,1023,2018,5,11,13,22,8.437,0.8388,-0.444,0.1621,0.2699
0.012,0.015,0,-0.4,-0.5,1.4,1023,2018,5,11,13,22,8.476,0.8388,-0.4441,0.1621,0.2698
0.007,0.02,0.001,-0.1,-0.2,1.4,1023,2018,5,11,13,22,8.498,0.8388,-0.4441,0.1621,0.2698
0.008,0.016,-0.008,0,-0.4,1.5,1023,2018,5,11,13,22,8.502,0.8387,-0.4443,0.1621,0.2696
0.004,0.017,-0.001,0.6,-0.4,1.6,1023,2018,5,11,13,22,8.518,0.8387,-0.4445,0.1622,0.2694
0.003,0.024,-0.002,0.5,-0.1,1.6,1023,2018,5,11,13,22,8.538,0.8387,-0.4445,0.162,0.2694
0.008,0.027,-0.004,1,-0.4,2.1,1023,2018,5,11,13,22,8.577,0.8388,-0.4444,0.1618,0.2695
0.009,0.02,-0.005,1.1,-1.4,2.5,0,2018,5,11,13,22,8.597,0.8389,-0.4443,0.1614,0.2695
0.013,0.018,-0.001,1.6,-1.7,2.7,0,2018,5,11,13,22,8.601,0.8388,-0.4447,0.1611,0.2694
0.013,0.014,0.003,1.6,-2.4,2.1,0,2018,5,11,13,22,8.622,0.8388,-0.4448,0.1606,0.2695
0.015,0.017,-0.006,1.8,-2.3,2.2,0,2018,5,11,13,22,8.64,0.8387,-0.445,0.1601,0.2695
0.01,0.025,0.001,1.8,-1.8,2.3,0,2018,5,11,13,22,8.659,0.8387,-0.4453,0.1597,0.2696
0.006,0.019,0.008,1.3,-2,2,0,2018,5,11,13,22,8.678,0.8387,-0.4454,0.1593,0.2697
0.009,0.02,0.009,0.8,-2.5,2,0,2018,5,11,13,22,8.716,0.8386,-0.4457,0.1591,0.2696
0.015,0.013,-0.004,0.4,-2.7,1.9,0,2018,5,11,13,22,8.737,0.8384,-0.4461,0.1588,0.2696
0.013,0.013,0.005,0.3,-1.6,2,0,2018,5,11,13,22,8.741,0.8383,-0.4463,0.1585,0.2696
0.009,0.018,0.004,0.1,-1.2,1.7,0,2018,5,11,13,22,8.761,0.8383,-0.4464,0.1583,0.2696
0.012,0.021,0.01,-0.3,-1.6,1.8,0,2018,5,11,13,22,8.783,0.8382,-0.4467,0.1583,0.2695
0.013,0.019,0.005,-0.7,-2.3,1.7,0,2018,5,11,13,22,8.82,0.8381,-0.447,0.1583,0.2694
0.015,0.019,0.012,-0.8,-1.4,1.6,0,2018,5,11,13,22,8.839,0.838,-0.4471,0.1583,0.2694
0.012,0.018,0.008,-0.7,-0.6,1.6,0,2018,5,11,13,22,8.843,0.8379,-0.4473,0.1584,0.2693
0.012,0.022,0.01,-0.3,-0.7,1.1,0,2018,5,11,13,22,8.864,0.838,-0.4472,0.1584,0.2694
0.014,0.02,0.002,-0.2,-0.6,1.1,0,2018,5,11,13,22,8.884,0.838,-0.4471,0.1583,0.2695
0.009,0.016,0.005,-0.1,-0.2,1.1,0,2018,5,11,13,22,8.901,0.838,-0.4471,0.1583,0.2696
0.009,0.013,0.002,0,0,1.1,0,2018,5,11,13,22,8.94,0.8381,-0.4469,0.1581,0.2697
0.01,0.017,-0.002,0.3,0.2,1.3,0,2018,5,11,13,22,8.959,0.8382,-0.4467,0.158,0.2698
0.008,0.02,0.004,0.1,-0.3,1.4,0,2018,5,11,13,22,8.964,0.8382,-0.4467,0.1579,0.2698
0.006,0.021,0.001,0,-0.9,1.3,0,2018,5,11,13,22,8.982,0.8382,-0.4467,0.1579,0.2698
0.007,0.022,0,-0.2,-0.9,1,0,2018,5,11,13,22,9.02,0.8381,-0.447,0.1579,0.2698
0.006,0.019,0.004,-0.3,-0.7,0.9,0,2018,5,11,13,22,9.041,0.838,-0.4471,0.158,0.2697
0.006,0.023,0.001,-0.1,-1.4,1.3,0,2018,5,11,13,22,9.045,0.8379,-0.4471,0.1579,0.2698
0.006,0.019,-0.004,0.3,-1.5,1.6,0,2018,5,11,13,22,9.066,0.8379,-0.4473,0.1578,0.2698
0.006,0.021,0.002,1,-0.9,2,0,2018,5,11,13,22,9.086,0.8377,-0.4477,0.1577,0.2697
0.008,0.016,0.008,0.8,-0.7,1.9,0,2018,5,11,13,22,9.1,0.8378,-0.4477,0.1575,0.2697
0.01,0.015,0.002,0.6,-0.7,1.6,0,2018,5,11,13,22,9.121,0.8378,-0.4478,0.1573,0.2696
0.012,0.011,0.002,0.4,-0.9,1.2,0,2018,5,11,13,22,9.142,0.8377,-0.4481,0.1572,0.2696
0.011,0.014,-0.002,0.5,-1,1.3,0,2018,5,11,13,22,9.179,0.8376,-0.4482,0.1571,0.2696
0.01,0.015,0.002,0.5,-0.2,1.2,0,2018,5,11,13,22,9.2,0.8376,-0.4482,0.1569,0.2697
0.007,0.017,0.002,0.1,-0.5,1.1,0,2018,5,11,13,22,9.204,0.8376,-0.4482,0.1569,0.2697
0.007,0.016,0,0.1,-0.8,1.2,0,2018,5,11,13,22,9.223,0.8375,-0.4484,0.1569,0.2696
0.005,0.025,0,0,-0.7,1.1,0,2018,5,11,13,22,9.244,0.8376,-0.4483,0.1567,0.2698
0.008,0.023,0.003,0,-1,1.5,0,2018,5,11,13,22,9.284,0.8376,-0.4482,0.1566,0.2699
0.01,0.019,0,0.2,-1.6,1.8,0,2018,5,11,13,22,9.304,0.8376,-0.4483,0.1564,0.2699
0.01,0.017,0,0.7,-1.8,2.1,0,2018,5,11,13,22,9.308,0.8374,-0.4486,0.1563,0.2698
0.009,0.013,0.008,1.2,-0.9,1.8,0,2018,5,11,13,22,9.323,0.8374,-0.4488,0.156,0.2698
0.002,0.012,0,1.4,0,1.4,1023,2018,5,11,13,22,9.359,0.8375,-0.4487,0.1557,0.2698
0.005,0.015,0.006,1.4,-1,1.7,1023,2018,5,11,13,22,9.38,0.8377,-0.4485,0.1552,0.27
0.01,0.017,0.006,1.1,-1.7,2.2,1023,2018,5,11,13,22,9.385,0.8377,-0.4485,0.1548,0.2701
0.015,0.009,0.008,0.6,-1.5,1.9,1023,2018,5,11,13,22,9.403,0.8377,-0.4487,0.1545,0.2701
0.016,0.016,0.006,0.3,-0.1,1.6,1023,2018,5,11,13,22,9.423,0.8377,-0.4487,0.1543,0.2701
0.011,0.017,0.004,0.3,0,1.1,1023,2018,5,11,13,22,9.462,0.8378,-0.4485,0.1542,0.2702
0.012,0.022,0.005,-0.2,0,1,1023,2018,5,11,13,22,9.482,0.8378,-0.4484,0.1543,0.2702
0.01,0.018,0.006,-0.6,-0.6,0.7,1023,2018,5,11,13,22,9.486,0.8377,-0.4485,0.1544,0.2703
0.012,0.014,0.001,-0.6,-0.4,1,1023,2018,5,11,13,22,9.527,0.8376,-0.4486,0.1546,0.2702
0.01,0.011,-0.003,-0.1,0.6,1,1023,2018,5,11,13,22,9.546,0.8376,-0.4486,0.1547,0.2702
0.008,0.018,-0.002,0.1,0.6,1,1023,2018,5,11,13,22,9.55,0.8377,-0.4485,0.1547,0.2702
0.007,0.015,-0.001,0.1,-0.1,0.8,1023,2018,5,11,13,22,9.587,0.8377,-0.4485,0.1547,0.2702
0.006,0.024,0.001,0,-0.4,1.1,0,2018,5,11,13,22,9.607,0.8376,-0.4486,0.1547,0.2702
0.011,0.023,-0.001,0.1,0,1.1,0,2018,5,11,13,22,9.611,0.8377,-0.4485,0.1547,0.2703
0.011,0.023,0,0.4,-0.1,1.2,0,2018,5,11,13,22,9.624,0.8377,-0.4484,0.1546,0.2703
0.01,0.017,-0.004,0.8,-0.7,1.4,0,2018,5,11,13,22,9.663,0.8377,-0.4486,0.1546,0.2703
0.012,0.019,0.005,1,-0.9,1.4,0,2018,5,11,13,22,9.684,0.8377,-0.4484,0.1543,0.2705
0.015,0.015,0,1.1,-0.7,1.1,0,2018,5,11,13,22,9.688,0.8377,-0.4485,0.1541,0.2706
0.016,0.019,0,1.1,-0.4,1,0,2018,5,11,13,22,9.708,0.8377,-0.4485,0.154,0.2707
0.013,0.018,0.001,1.2,-0.2,0.8,0,2018,5,11,13,22,9.727,0.8376,-0.4485,0.1539,0.2708
0.01,0.013,0.004,1.2,-0.1,0.8,0,2018,5,11,13,22,9.769,0.8378,-0.4482,0.1536,0.2712
0.011,0.013,0,0.8,-0.9,0.7,0,2018,5,11,13,22,9.773,0.8378,-0.4481,0.1534,0.2713
0.008,0.017,0.001,0.6,-1.1,0.6,0,2018,5,11,13,22,9.788,0.8377,-0.4482,0.1533,0.2714
0.007,0.012,-0.002,0.7,-0.4,0.2,0,2018,5,11,13,22,9.807,0.8377,-0.4482,0.1531,0.2717
0.009,0.017,0.004,0.9,0.4,0.4,0,2018,5,11,13,22,9.843,0.8377,-0.4481,0.1531,0.2718
0.008,0.021,0.005,0.6,0,0.3,0,2018,5,11,13,22,9.864,0.8377,-0.448,0.1531,0.272
0.01,0.022,0.01,0.3,-0.5,0.6,0,2018,5,11,13,22,9.868,0.8376,-0.448,0.1532,0.272
0.011,0.018,0.004,0,-1.2,1.1,0,2018,5,11,13,22,9.885,0.8376,-0.448,0.1531,0.2722
0.009,0.015,-0.004,0.3,-0.2,1.1,0,2018,5,11,13,22,9.91,0.8376,-0.448,0.153,0.2723
0.006,0.012,0,0.4,0,0.8,0,2018,5,11,13,22,9.948,0.8376,-0.448,0.1529,0.2724
0.007,0.022,0.002,0.9,0,0.7,0,2018,5,11,13,22,9.967,0.8377,-0.4478,0.1527,0.2726
0.006,0.023,0.004,0.6,-0.4,0.9,0,2018,5,11,13,22,9.971,0.8377,-0.4476,0.1526,0.2727
0.01,0.017,0.003,0.2,-0.8,1,0,2018,5,11,13,22,10.01,0.8377,-0.4477,0.1526,0.2728
0.01,0.015,0,0.3,-0.7,1,0,2018,5,11,13,22,10.029,0.8377,-0.4476,0.1524,0.2729
0.013,0.018,0,0.7,-0.2,0.8,0,2018,5,11,13,22,10.033,0.8377,-0.4475,0.1523,0.2731
0.009,0.011,0.002,0.8,-0.2,1,0,2018,5,11,13,22,10.047,0.8377,-0.4475,0.1522,0.2731
0.011,0.016,-0.002,0.8,-0.2,0.8,0,2018,5,11,13,22,10.07,0.8377,-0.4475,0.1521,0.2732
0.011,0.018,0.005,0.5,-0.1,0.8,0,2018,5,11,13,22,10.09,0.8377,-0.4475,0.152,0.2734
0.013,0.017,0.007,0,-0.9,0.7,0,2018,5,11,13,22,10.128,0.8376,-0.4476,0.1521,0.2734
0.012,0.019,-0.004,0.1,-1.2,0.7,0,2018,5,11,13,22,10.145,0.8375,-0.4478,0.1522,0.2735
0.006,0.015,0.001,0,0,0,0,2018,5,11,13,22,10.15,0.8374,-0.4477,0.1521,0.2737
0.005,0.013,-0.001,1,0.3,0.3,0,2018,5,11,13,22,10.189,0.8375,-0.4476,0.1519,0.2739
0.007,0.016,0.008,0.8,-0.7,0.3,0,2018,5,11,13,22,10.208,0.8375,-0.4474,0.1518,0.2742
0.009,0.023,0.003,0.9,-0.6,0.3,0,2018,5,11,13,22,10.212,0.8375,-0.4474,0.1517,0.2744
0.009,0.017,0,0.9,-0.4,0.2,0,2018,5,11,13,22,10.228,0.8374,-0.4474,0.1517,0.2745
0.007,0.023,-0.002,0.8,-0.3,0.5,0,2018,5,11,13,22,10.264,0.8374,-0.4474,0.1516,0.2747
0.006,0.021,0.001,0.3,-0.5,0.8,0,2018,5,11,13,22,10.287,0.8373,-0.4475,0.1517,0.2748
0.008,0.02,-0.001,0,-1.2,0.8,1023,2018,5,11,13,22,10.291,0.8372,-0.4476,0.1517,0.2748
0.006,0.017,-0.005,0.3,-1.1,0.8,1023,2018,5,11,13,22,10.31,0.8371,-0.4477,0.1516,0.2749
0.008,0.018,0.001,0.3,-0.8,0.6,1023,2018,5,11,13,22,10.33,0.837,-0.4479,0.1516,0.275
0.005,0.016,0.005,0.5,-0.5,0.7,1023,2018,5,11,13,22,10.369,0.837,-0.4479,0.1515,0.2751
0.008,0.019,0,0.8,-0.9,1.2,1023,2018,5,11,13,22,10.389,0.8369,-0.4481,0.1515,0.2751
0.003,0.015,0.001,1.1,-0.9,1.4,1023,2018,5,11,13,22,10.394,0.837,-0.4479,0.1511,0.2753
0.004,0.015,0,1.2,-0.4,1.5,1023,2018,5,11,13,22,10.414,0.8371,-0.4478,0.1507,0.2755
0.01,0.015,0.009,1.1,0,1.5,1023,2018,5,11,13,22,10.433,0.8372,-0.4476,0.1504,0.2756
0.01,0.021,0.006,0.5,0,1.3,1023,2018,5,11,13,22,10.452,0.8373,-0.4475,0.1502,0.2756
0.011,0.017,0.002,0,-0.5,1.1,1023,2018,5,11,13,22,10.472,0.8374,-0.4473,0.1501,0.2757
0.008,0.016,0,-0.2,0,0.8,1023,2018,5,11,13,22,10.509,0.8372,-0.4477,0.1503,0.2757
0.005,0.018,0.006,-0.2,0,0.9,1023,2018,5,11,13,22,10.529,0.8371,-0.4478,0.1505,0.2756
0.004,0.023,-0.007,0.1,-0.2,1.3,1023,2018,5,11,13,22,10.53,0.8372,-0.4476,0.1504,0.2757
0.005,0.014,-0.001,0.1,-0.6,1.4,0,2018,5,11,13,22,10.565,0.8372,-0.4476,0.1503,0.2757
0.009,0.018,-0.003,0.3,-0.4,1.6,0,2018,5,11,13,22,10.586,0.8372,-0.4476,0.1501,0.2758
0.01,0.016,-0.01,0.6,-0.6,1.7,0,2018,5,11,13,22,10.59,0.8372,-0.4476,0.1499,0.2758
0.008,0.02,0.003,0.4,0.1,1.7,0,2018,5,11,13,22,10.611,0.8373,-0.4475,0.1497,0.2758
0.01,0.017,0,0.5,-0.3,1.5,0,2018,5,11,13,22,10.632,0.8373,-0.4475,0.1496,0.2758
0.011,0.024,0.005,0.6,-1,1.2,0,2018,5,11,13,22,10.672,0.8374,-0.4475,0.1494,0.2759
0.011,0.016,0.005,0.5,-0.4,1,0,2018,5,11,13,22,10.691,0.8373,-0.4475,0.1493,0.276
0.017,0.023,0,0.1,-0.6,0.8,0,2018,5,11,13,22,10.694,0.8374,-0.4473,0.1492,0.2762
0.016,0.02,0.003,0.1,-1,0.9,0,2018,5,11,13,22,10.733,0.8373,-0.4474,0.1492,0.2763
0.009,0.013,-0.007,0.2,-0.7,0.8,0,2018,5,11,13,22,10.753,0.8372,-0.4475,0.1492,0.2764
0.009,0.011,0.009,0.2,-0.1,0.6,0,2018,5,11,13,22,10.757,0.8372,-0.4475,0.1492,0.2764
0.011,0.012,0.004,0,0,0,0,2018,5,11,13,22,10.771,0.8371,-0.4476,0.1493,0.2765
0.009,0.015,0.005,-0.3,-0.6,0.3,0,2018,5,11,13,22,10.81,0.8371,-0.4475,0.1493,0.2767
0.007,0.015,-0.002,0,0,0,0,2018,5,11,13,22,10.831,0.837,-0.4476,0.1494,0.2768
0.009,0.02,0.003,-0.4,-0.7,0.5,0,2018,5,11,13,22,10.835,0.8369,-0.4477,0.1495,0.2768
0.005,0.021,-0.007,-0.1,-0.9,0.8,0,2018,5,11,13,22,10.872,0.8368,-0.4478,0.1496,0.2769
0.004,0.019,0.001,-0.1,-1,1.3,0,2018,5,11,13,22,10.891,0.8368,-0.4478,0.1495,0.2769
0.009,0.017,-0.002,0,-0.6,1.1,0,2018,5,11,13,22,10.896,0.8367,-0.4481,0.1496,0.2769
0.009,0.015,-0.001,0,-0.9,1,0,2018,5,11,13,22,10.933,0.8367,-0.4481,0.1495,0.2769
0.009,0.017,0.002,0.3,-0.1,1.3,0,2018,5,11,13,22,10.953,0.8367,-0.448,0.1493,0.277
0.01,0.016,0.003,0,-0.4,1.3,0,2018,5,11,13,22,10.957,0.8367,-0.4481,0.1494,0.277
0.01,0.016,0.005,-0.1,-0.6,1.1,0,2018,5,11,13,22,10.974,0.8366,-0.4482,0.1495,0.2769
0.01,0.014,0,-0.2,-0.9,1.1,0,2018,5,11,13,22,11.011,0.8365,-0.4484,0.1495,0.2769
0.008,0.017,0.005,-0.1,-0.6,1.1,0,2018,5,11,13,22,11.034,0.8365,-0.4485,0.1495,0.2769
0.01,0.018,0.004,-0.2,-0.5,0.9,0,2018,5,11,13,22,11.038,0.8365,-0.4484,0.1495,0.2769
0.013,0.015,0.002,0,-0.6,0.9,0,2018,5,11,13,22,11.055,0.8365,-0.4483,0.1494,0.2771
0.015,0.016,0.001,0,-0.6,0.8,0,2018,5,11,13,22,11.095,0.8365,-0.4483,0.1493,0.2772
0.009,0.019,0.002,0.4,-0.3,0.8,0,2018,5,11,13,22,11.113,0.8364,-0.4483,0.1493,0.2773
0.007,0.015,0.006,0.6,-0.3,0.7,0,2018,5,11,13,22,11.118,0.8364,-0.4483,0.1492,0.2775
0.009,0.018,0.007,0.8,-0.6,0.8,0,2018,5,11,13,22,11.154,0.8364,-0.4483,0.1492,0.2776
0.011,0.011,-0.001,0.4,-0.9,0.6,0,2018,5,11,13,22,11.174,0.8364,-0.4483,0.1491,0.2777
0.008,0.019,0.001,0.3,-0.7,0.8,0,2018,5,11,13,22,11.178,0.8362,-0.4486,0.1492,0.2777
0.011,0.016,0,0,0,0,0,2018,5,11,13,22,11.194,0.8361,-0.4489,0.1493,0.2776
0.009,0.024,-0.004,0.3,0,0.5,0,2018,5,11,13,22,11.23,0.836,-0.4489,0.1495,0.2777
0.006,0.021,0.002,0.4,-0.7,0.6,0,2018,5,11,13,22,11.252,0.8359,-0.449,0.1497,0.2777
0.007,0.022,-0.002,0.8,-1.2,1.1,0,2018,5,11,13,22,11.257,0.8358,-0.4491,0.1496,0.2778
0.005,0.02,0.001,1.1,-1,1,0,2018,5,11,13,22,11.295,0.8358,-0.4491,0.1493,0.278
0,0.013,0.003,1.3,-0.6,1.1,0,2018,5,11,13,22,11.316,0.8357,-0.4493,0.1491,0.278
0.006,0.013,-0.004,0.8,-0.9,1.3,0,2018,5,11,13,22,11.32,0.8358,-0.4493,0.1488,0.2781
0.006,0.012,0,1.3,-0.7,1.3,0,2018,5,11,13,22,11.338,0.8357,-0.4494,0.1486,0.2781
0.011,0.016,0.005,0.8,-0.5,1.4,0,2018,5,11,13,22,11.358,0.8358,-0.4493,0.1483,0.2782
0.013,0.019,0.005,0.6,-0.4,1.3,0,2018,5,11,13,22,11.376,0.8358,-0.4493,0.1482,0.2783
0.014,0.022,0.01,-0.1,-0.7,1.3,0,2018,5,11,13,22,11.396,0.8358,-0.4493,0.1482,0.2783
0.013,0.014,0.001,-0.2,-0.6,1,1023,2018,5,11,13,22,11.416,0.8358,-0.4492,0.1481,0.2785
0.014,0.011,0.002,-0.3,-0.1,0.8,1023,2018,5,11,13,22,11.453,0.8358,-0.4491,0.1481,0.2786
0.006,0.012,-0.001,0,0.2,0.7,1023,2018,5,11,13,22,11.474,0.8359,-0.449,0.1481,0.2786
0.004,0.021,0.003,0,0,0.8,1023,2018,5,11,13,22,11.478,0.836,-0.4488,0.1481,0.2787
0.004,0.021,0.001,0.2,-0.4,1.1,1023,2018,5,11,13,22,11.495,0.8359,-0.4488,0.1481,0.2787
0.01,0.017,-0.001,0.6,-0.4,1.3,1023,2018,5,11,13,22,11.515,0.8359,-0.4488,0.148,0.2787
0.01,0.018,0.003,0.9,-0.1,1.3,1023,2018,5,11,13,22,11.554,0.836,-0.4488,0.1478,0.2788
0.01,0.018,0.002,0.9,0.4,1.3,1023,2018,5,11,13,22,11.572,0.8361,-0.4485,0.1476,0.279
0.008,0.019,0.004,0.6,0,1.2,1023,2018,5,11,13,22,11.577,0.8363,-0.4482,0.1473,0.2791
0.012,0.02,0.003,0.5,-1,1.3,1023,2018,5,11,13,22,11.615,0.8364,-0.448,0.147,0.2794
0.017,0.018,0,0.4,-1.4,1.3,1023,2018,5,11,13,22,11.636,0.8363,-0.4481,0.147,0.2794
0.014,0.02,0.004,0.7,-0.7,1,1023,2018,5,11,13,22,11.64,0.8362,-0.4482,0.1469,0.2795
0.019,0.025,0.001,1.2,0,0.7,1023,2018,5,11,13,22,11.678,0.8363,-0.448,0.1467,0.2797
0.011,0.023,0,1.3,-0.1,0.6,1023,2018,5,11,13,22,11.697,0.8362,-0.448,0.1467,0.2799
0.011,0.011,0.006,1.3,-0.5,0.6,0,2018,5,11,13,22,11.701,0.8362,-0.4479,0.1465,0.2801
0.005,0.016,0,1.1,-0.3,0.7,0,2018,5,11,13,22,11.717,0.8363,-0.4478,0.1462,0.2803
0.006,0.016,0.005,0.8,-0.8,0.3,0,2018,5,11,13,22,11.756,0.8363,-0.4477,0.146,0.2806
0.008,0.021,-0.002,0.1,-1.1,0.4,0,2018,5,11,13,22,11.776,0.8361,-0.4479,0.1461,0.2806
0.006,0.013,0,0.2,-1.3,0.5,0,2018,5,11,13,22,11.782,0.8361,-0.4479,0.146,0.2809
0.006,0.015,-0.002,0.2,-0.9,0.8,0,2018,5,11,13,22,11.803,0.836,-0.448,0.1459,0.281
0.009,0.016,0,0.3,-0.6,1,0,2018,5,11,13,22,11.822,0.8359,-0.4481,0.1458,0.2811
0.005,0.019,0,0.4,-0.4,1.1,0,2018,5,11,13,22,11.861,0.836,-0.448,0.1457,0.2811
0.004,0.017,0.007,0.3,-0.9,1.1,0,2018,5,11,13,22,11.881,0.836,-0.448,0.1455,0.2813
0.006,0.023,0.004,0.4,-0.9,1.1,0,2018,5,11,13,22,11.885,0.8359,-0.4481,0.1455,0.2813
0.012,0.018,0.006,0.3,-0.9,1.1,0,2018,5,11,13,22,11.903,0.8359,-0.4481,0.1454,0.2814
0.011,0.015,0.003,0.3,-0.3,1.3,0,2018,5,11,13,22,11.92,0.8359,-0.4481,0.1453,0.2814
0.01,0.02,0,0.1,-0.6,1.1,0,2018,5,11,13,22,11.94,0.8359,-0.4481,0.1452,0.2815
0.009,0.016,0.005,0.1,-0.5,1.1,0,2018,5,11,13,22,11.959,0.8359,-0.4481,0.1451,0.2815
0.014,0.015,0.003,0.2,-0.5,1.1,0,2018,5,11,13,22,11.998,0.8359,-0.4481,0.145,0.2816
0.007,0.018,0.012,-0.1,-0.9,1,0,2018,5,11,13,22,12.018,0.8358,-0.4482,0.145,0.2816
0.012,0.018,0.004,-0.1,-1.2,0.8,0,2018,5,11,13,22,12.023,0.8357,-0.4484,0.1451,0.2816
0.011,0.015,0,0.2,-0.3,0.8,0,2018,5,11,13,22,12.042,0.8357,-0.4484,0.1451,0.2817
0.01,0.016,0.005,0.5,0.2,0.6,0,2018,5,11,13,22,12.061,0.8357,-0.4484,0.1451,0.2818
0.008,0.019,0.002,0.5,0,0.7,0,2018,5,11,13,22,12.1,0.8358,-0.4481,0.1449,0.282
0.009,0.019,0.002,0.6,-0.4,0.7,0,2018,5,11,13,22,12.119,0.8358,-0.4478,0.1447,0.2823
0.008,0.02,0,0.4,-1.2,0.8,0,2018,5,11,13,22,12.123,0.8358,-0.4478,0.1446,0.2825
0.011,0.018,-0.002,0.1,-1,0.8,0,2018,5,11,13,22,12.141,0.8358,-0.4479,0.1445,0.2826
0.011,0.019,-0.003,0,-0.7,0.8,0,2018,5,11,13,22,12.161,0.8357,-0.4479,0.1445,0.2827
0.009,0.019,-0.003,0.3,-0.6,0.8,0,2018,5,11,13,22,12.182,0.8357,-0.4479,0.1444,0.2829
0.008,0.022,0.001,0.1,-0.7,0.8,0,2018,5,11,13,22,12.202,0.8356,-0.4479,0.1444,0.283
0.01,0.019,-0.002,0.1,-1.2,0.9,0,2018,5,11,13,22,12.241,0.8355,-0.448,0.1444,0.2831
0.01,0.015,0.004,0,-0.9,1,0,2018,5,11,13,22,12.259,0.8355,-0.4481,0.1443,0.2831
0.01,0.015,-0.002,0.1,-0.4,0.9,0,2018,5,11,13,22,12.264,0.8355,-0.4481,0.1442,0.2832
0.01,0.018,0.001,0.1,-0.3,0.7,0,2018,5,11,13,22,12.283,0.8355,-0.4481,0.1442,0.2833
0.011,0.018,0.001,0,-0.4,0.7,0,2018,5,11,13,22,12.303,0.8354,-0.448,0.1442,0.2835
0.008,0.02,-0.003,-0.1,-0.9,0.6,0,2018,5,11,13,22,12.326,0.8353,-0.4482,0.1443,0.2835
0.009,0.023,0,-0.2,-1,0.8,0,2018,5,11,13,22,12.342,0.8352,-0.4484,0.1445,0.2835
0.013,0.021,-0.001,0,-1.3,1,0,2018,5,11,13,22,12.363,0.835,-0.4487,0.1446,0.2835
0.012,0.018,0.001,0.1,-1.3,1.3,0,2018,5,11,13,22,12.384,0.8348,-0.449,0.1447,0.2834
0.007,0.018,0.002,0.9,-0.5,1.3,0,2018,5,11,13,22,12.42,0.8348,-0.4491,0.1446,0.2834
-0.001,0.017,0,1.4,0.1,1,0,2018,5,11,13,22,12.442,0.8349,-0.449,0.1443,0.2835
-0.002,0.019,0.006,1.2,-0.9,1.3,0,2018,5,11,13,22,12.446,0.8349,-0.449,0.1441,0.2835
0.009,0.015,0.004,0.5,-2.1,1.8,0,2018,5,11,13,22,12.464,0.8348,-0.4492,0.1438,0.2835
0.016,0.011,0.003,0.6,-1.6,1.7,0,2018,5,11,13,22,12.502,0.8348,-0.4494,0.1435,0.2836
0.014,0.016,-0.009,0.8,0,1.3,0,2018,5,11,13,22,12.522,0.8347,-0.4496,0.1435,0.2835
0.012,0.019,0.006,0.3,0,1.1,0,2018,5,11,13,22,12.527,0.8348,-0.4495,0.1434,0.2836
0.01,0.017,0.005,-0.1,-0.5,1.1,0,2018,5,11,13,22,12.543,0.8348,-0.4494,0.1434,0.2836
0.006,0.02,0.012,-0.7,-0.8,1.3,0,2018,5,11,13,22,12.58,0.8348,-0.4495,0.1434,0.2836
0.009,0.016,0.002,-1,-0.8,1.3,0,2018,5,11,13,22,12.602,0.8348,-0.4494,0.1433,0.2836
0.009,0.012,0,-0.4,-0.4,1.4,1023,2018,5,11,13,22,12.606,0.8348,-0.4494,0.1433,0.2837
0.012,0.02,0,0.6,-0.2,1.7,1023,2018,5,11,13,22,12.625,0.8351,-0.449,0.1426,0.2838
0.016,0.021,0.001,0.3,-1.3,1.9,1023,2018,5,11,13,22,12.646,0.835,-0.4492,0.1426,0.2837
0.017,0.011,0,0.6,-1.3,1.9,1023,2018,5,11,13,22,12.666,0.835,-0.4491,0.1423,0.2838
0.018,0.015,0.004,0.7,-0.7,1.3,1023,2018,5,11,13,22,12.687,0.835,-0.4491,0.1421,0.284
0.019,0.017,0.007,0.6,-0.5,0.8,1023,2018,5,11,13,22,12.707,0.8351,-0.4489,0.1419,0.2842
0.018,0.021,0.001,0.6,-0.7,0.6,1023,2018,5,11,13,22,12.727,0.835,-0.449,0.1419,0.2843
0.01,0.017,0.003,0.9,-0.6,0.5,1023,2018,5,11,13,22,12.763,0.835,-0.4489,0.1418,0.2846
0.003,0.019,-0.003,0.9,-0.6,0.4,1023,2018,5,11,13,22,12.783,0.8349,-0.449,0.1418,0.2847
0.008,0.017,-0.003,0.7,-0.9,0.3,1023,2018,5,11,13,22,12.787,0.8348,-0.4491,0.1418,0.2847
0.003,0.016,0.001,0.5,-0.9,0.7,1023,2018,5,11,13,22,12.824,0.8348,-0.449,0.1416,0.285
0.003,0.016,-0.004,0.4,-0.8,0.8,1023,2018,5,11,13,22,12.844,0.8348,-0.449,0.1414,0.2852
0.008,0.017,-0.006,0.4,-1.1,1,1023,2018,5,11,13,22,12.868,0.8348,-0.449,0.1412,0.2854
0.007,0.022,0.004,0.3,-1.1,1,1023,2018,5,11,13,22,12.88,0.8347,-0.4491,0.1411,0.2855
0.007,0.019,0.003,0.1,-1,1,1023,2018,5,11,13,22,12.882,0.8347,-0.4491,0.141,0.2856
0.005,0.023,-0.001,0.1,-1.2,1.3,0,2018,5,11,13,22,12.922,0.8346,-0.4493,0.1409,0.2856
0.005,0.016,0.007,0.1,-1.2,1.4,0,2018,5,11,13,22,12.943,0.8346,-0.4493,0.1407,0.2857
0.007,0.016,0,0.4,-0.9,1.6,0,2018,5,11,13,22,12.947,0.8347,-0.4492,0.1405,0.2857
0.008,0.014,-0.001,0.5,-0.5,1.7,0,2018,5,11,13,22,12.968,0.8347,-0.4492,0.1403,0.2857
0.005,0.02,0.008,0.5,-0.5,1.6,0,2018,5,11,13,22,12.988,0.8347,-0.4492,0.1401,0.2857
0.008,0.022,0.007,0.2,-0.6,1.7,0,2018,5,11,13,22,13.026,0.8348,-0.4491,0.1399,0.2857
0.014,0.017,0.004,0,-1.2,1.9,0,2018,5,11,13,22,13.045,0.8348,-0.4491,0.1398,0.2858
0.012,0.012,0.005,0,-1.5,1.9,0,2018,5,11,13,22,13.05,0.8347,-0.4494,0.1397,0.2856
0.012,0.009,0.001,0,-0.7,1.7,0,2018,5,11,13,22,13.067,0.8347,-0.4496,0.1396,0.2855
0.009,0.016,0.007,0.2,-0.2,1.3,0,2018,5,11,13,22,13.105,0.8347,-0.4496,0.1396,0.2855
0.019,0.013,-0.001,0.4,0,1,0,2018,5,11,13,22,13.125,0.8347,-0.4496,0.1395,0.2855
0.015,0.02,0.006,0.1,-0.6,1,0,2018,5,11,13,22,13.129,0.8346,-0.4497,0.1397,0.2855
0.014,0.024,0.001,0,-0.2,1.3,0,2018,5,11,13,22,13.148,0.8345,-0.4498,0.1397,0.2855
0.014,0.023,-0.001,0.2,-0.1,1.3,0,2018,5,11,13,22,13.168,0.8345,-0.4498,0.1397,0.2855
0.011,0.011,-0.001,0.1,-0.7,1.2,0,2018,5,11,13,22,13.187,0.8346,-0.4497,0.1396,0.2856
0.008,0.007,-0.002,-0.1,-0.7,0.8,0,2018,5,11,13,22,13.211,0.8345,-0.4498,0.1395,0.2857
0.013,0.015,-0.002,0,0,0,0,2018,5,11,13,22,13.229,0.8345,-0.4497,0.1394,0.2858
0.012,0.02,-0.003,-0.1,-0.5,0.5,0,2018,5,11,13,22,13.249,0.8344,-0.4499,0.1396,0.2858
0.014,0.026,-0.002,-0.4,-1.1,1.3,0,2018,5,11,13,22,13.269,0.8344,-0.4499,0.1396,0.2858
0.007,0.018,0,0,-1.1,1.4,0,2018,5,11,13,22,13.287,0.8343,-0.4501,0.1396,0.2858
0.007,0.015,-0.001,0.1,-0.7,1,0,2018,5,11,13,22,13.326,0.8343,-0.4502,0.1395,0.2859
0.008,0.015,0.002,0,-0.9,0.8,0,2018,5,11,13,22,13.347,0.8343,-0.4501,0.1393,0.286
0.011,0.017,0,-0.2,-1.3,0.7,0,2018,5,11,13,22,13.351,0.8342,-0.4501,0.1392,0.2862
0.01,0.016,0.001,-0.2,-1,0.7,0,2018,5,11,13,22,13.369,0.8341,-0.4502,0.1392,0.2864
0.012,0.017,0,-0.1,-0.5,0.7,0,2018,5,11,13,22,13.39,0.834,-0.4503,0.1393,0.2864
0.008,0.015,0.005,-0.2,-0.4,0.6,0,2018,5,11,13,22,13.411,0.8339,-0.4504,0.1394,0.2864
0.008,0.017,0,-0.1,-1,0.7,0,2018,5,11,13,22,13.432,0.8338,-0.4506,0.1394,0.2865
0.007,0.018,0,-0.2,-1.1,0.7,0,2018,5,11,13,22,13.452,0.8337,-0.4508,0.1395,0.2865
0.009,0.019,0,0,-0.9,0.9,0,2018,5,11,13,22,13.471,0.8336,-0.4509,0.1394,0.2866
0.007,0.02,-0.003,0,-1.1,0.7,0,2018,5,11,13,22,13.488,0.8336,-0.451,0.1394,0.2867
0.009,0.019,-0.007,0.4,-1.2,1,0,2018,5,11,13,22,13.526,0.8335,-0.4511,0.1394,0.2868
0.005,0.025,0.001,0.9,-1,1.4,0,2018,5,11,13,22,13.546,0.8334,-0.4512,0.1393,0.2869
0.005,0.016,0.007,0.6,-0.9,1.4,0,2018,5,11,13,22,13.551,0.8334,-0.4512,0.139,0.2869
0.005,0.015,0.004,0.5,-1.4,1.7,0,2018,5,11,13,22,13.571,0.8334,-0.4512,0.1388,0.2869
0.006,0.007,0,0.6,-1.6,1.7,0,2018,5,11,13,22,13.591,0.8334,-0.4514,0.1385,0.287
0.01,0.011,0,0.7,-0.2,1.6,0,2018,5,11,13,22,13.611,0.8334,-0.4515,0.1382,0.287
0.007,0.015,-0.001,-0.9,0,0.8,0,2018,5,11,13,22,13.629,0.8334,-0.4514,0.1384,0.287
0.012,0.024,-0.005,-0.2,-0.7,1.4,0,2018,5,11,13,22,13.67,0.8332,-0.4517,0.1387,0.2869
0.004,0.019,-0.002,0.1,-0.4,2.1,0,2018,5,11,13,22,13.69,0.8331,-0.4519,0.1388,0.2868
0.008,0.019,-0.003,0.2,-0.7,1.8,0,2018,5,11,13,22,13.694,0.8331,-0.4521,0.1386,0.2865
0.012,0.023,-0.005,0,-1.6,1.7,0,2018,5,11,13,22,13.709,0.833,-0.4524,0.1386,0.2864
0.015,0.021,0.003,0,-1.8,1.4,0,2018,5,11,13,22,13.747,0.8328,-0.4528,0.1386,0.2863
0.013,0.02,0.004,0.3,-1,1.4,1023,2018,5,11,13,22,13.769,0.8327,-0.453,0.1386,0.2863
0.013,0.018,0.002,0.7,-0.8,1.1,1023,2018,5,11,13,22,13.773,0.8327,-0.453,0.1384,0.2865
0.014,0.02,0.005,0.4,-1.1,1.2,1023,2018,5,11,13,22,13.809,0.8327,-0.4529,0.1383,0.2866
0.005,0.015,0.008,0.3,-1.8,1,1023,2018,5,11,13,22,13.829,0.8327,-0.453,0.1381,0.2867
0.007,0.013,0.005,0,-1.9,1,1023,2018,5,11,13,22,13.834,0.8325,-0.4532,0.138,0.2868
0.008,0.012,0.001,0,-1.5,0.7,1023,2018,5,11,13,22,13.852,0.8324,-0.4534,0.1379,0.2869
0.006,0.016,0.003,-0.1,-1.3,1,1023,2018,5,11,13,22,13.872,0.8323,-0.4537,0.1379,0.2869
0.008,0.016,0.005,0,-1,1,1023,2018,5,11,13,22,13.892,0.8322,-0.4539,0.1379,0.2868
0.01,0.025,0,-0.3,-1.3,1.7,1023,2018,5,11,13,22,13.913,0.8321,-0.454,0.1379,0.2868
0.011,0.016,0.007,-0.5,-1.6,1.6,1023,2018,5,11,13,22,13.953,0.832,-0.4542,0.1378,0.2868
0.007,0.016,0,-0.4,-0.7,1.7,1023,2018,5,11,13,22,13.972,0.832,-0.4543,0.1378,0.2867
0.009,0.012,0.008,-0.1,-0.6,1.4,1023,2018,5,11,13,22,13.977,0.8319,-0.4546,0.1379,0.2866
0.008,0.023,0.003,-0.3,-0.8,1.5,1023,2018,5,11,13,22,14.013,0.8319,-0.4546,0.1378,0.2865
0.01,0.015,0.002,-0.2,-0.7,1.5,1023,2018,5,11,13,22,14.034,0.8319,-0.4547,0.1378,0.2864
0.011,0.014,0.009,-0.2,-0.5,1.6,0,2018,5,11,13,22,14.038,0.8319,-0.4547,0.1377,0.2864
0.009,0.016,0.005,-0.4,-0.7,1.5,0,2018,5,11,13,22,14.055,0.8319,-0.4548,0.1377,0.2863
0.01,0.02,0.003,-0.4,-0.7,1.6,0,2018,5,11,13,22,14.074,0.8319,-0.4549,0.1377,0.2862
0.015,0.015,0.006,-0.4,-0.6,1.5,0,2018,5,11,13,22,14.094,0.8318,-0.4551,0.1379,0.286
0.012,0.012,0.007,0,-0.5,1.3,0,2018,5,11,13,22,14.134,0.8317,-0.4553,0.138,0.2859
0.015,0.014,0.003,0.9,-0.2,0.8,0,2018,5,11,13,22,14.153,0.8317,-0.4552,0.1379,0.286
0.016,0.016,-0.001,2.6,0.1,0.4,0,2018,5,11,13,22,14.157,0.8316,-0.4554,0.1379,0.2861
0.029,0.023,0.005,4.7,2.2,0.2,0,2018,5,11,13,22,14.177,0.8317,-0.455,0.1376,0.2864
0.033,0.094,0.059,7.3,7.6,1.6,0,2018,5,11,13,22,14.197,0.8324,-0.4536,0.1371,0.2871
0.046,0.158,0.193,6.2,15,4.6,0,2018,5,11,13,22,14.236,0.8338,-0.4511,0.1364,0.2871
0.084,0.146,0.208,2.6,6.1,7.8,0,2018,5,11,13,22,14.24,0.8352,-0.4494,0.1359,0.2862
0.002,0.028,0.4,-0.8,8.6,12.2,0,2018,5,11,13,22,14.256,0.836,-0.449,0.135,0.2849
-0.259,0.145,0.735,-23.9,49.7,24.4,0,2018,5,11,13,22,14.276,0.8391,-0.4452,0.1365,0.2808
-0.239,0.184,0.87,-65.2,105.9,39.6,0,2018,5,11,13,22,14.296,0.8462,-0.4357,0.1443,0.2703
-0.218,0.048,0.718,-105.3,106.8,40.7,0,2018,5,11,13,22,14.316,0.854,-0.4245,0.1591,0.2551
-0.251,0.042,0.637,-139.7,83.9,44.7,0,2018,5,11,13,22,14.336,0.8593,-0.4164,0.1784,0.2369
-0.315,-0.013,0.496,-166.8,76.1,48.2,0,2018,5,11,13,22,14.356,0.8617,-0.4124,0.2013,0.2162
-0.324,-0.055,0.26,-181.5,80.9,48.1,0,2018,5,11,13,22,14.374,0.8624,-0.4088,0.2271,0.1934
-0.269,-0.084,0.069,-184.2,84.8,47.7,0,2018,5,11,13,22,14.411,0.8622,-0.404,0.2539,0.1697
-0.207,-0.155,-0.043,-183.2,82.5,48.9,0,2018,5,11,13,22,14.433,0.8609,-0.3986,0.2804,0.1459
-0.205,-0.193,-0.132,-181.7,82.5,47.5,0,2018,5,11,13,22,14.437,0.8583,-0.3929,0.3063,0.1218
-0.177,-0.213,-0.309,-175.6,81,41.3,0,2018,5,11,13,22,14.456,0.8549,-0.3865,0.3316,0.0984
-0.117,-0.209,-0.47,-163.3,64.1,31.7,0,2018,5,11,13,22,14.476,0.8502,-0.3803,0.3555,0.0774
-0.094,-0.21,-0.507,-150.4,46.4,25,0,2018,5,11,13,22,14.515,0.8441,-0.3759,0.3775,0.0594
-0.082,-0.197,-0.547,-138.7,31.5,17.7,0,2018,5,11,13,22,14.532,0.837,-0.3731,0.3976,0.0442
-0.054,-0.155,-0.604,-122.8,21.2,9.2,0,2018,5,11,13,22,14.537,0.8295,-0.3712,0.416,0.032
-0.013,-0.11,-0.671,-103.3,12.3,1.9,0,2018,5,11,13,22,14.574,0.8223,-0.3695,0.4319,0.0229
0.019,-0.09,-0.703,-82.6,-4.8,-4.2,0,2018,5,11,13,22,14.596,0.8155,-0.3691,0.4452,0.0167
0.043,-0.1,-0.681,-61.6,-25.9,-11.1,0,2018,5,11,13,22,14.6,0.8088,-0.3711,0.4559,0.0144
0.054,-0.084,-0.639,-40.4,-38.2,-16.7,0,2018,5,11,13,22,14.618,0.8024,-0.3748,0.4639,0.0156
0.071,-0.07,-0.684,-16,-46.4,-21.1,0,2018,5,11,13,22,14.657,0.7972,-0.3794,0.4691,0.0194
0.056,-0.062,-0.713,13.1,-60.7,-24.8,0,2018,5,11,13,22,14.661,0.7934,-0.3849,0.4706,0.027
0.02,-0.069,-0.704,43.4,-75.4,-24.7,0,2018,5,11,13,22,14.677,0.791,-0.3922,0.4679,0.0379
-0.03,-0.12,-0.733,71.7,-93.5,-21.9,0,2018,5,11,13,22,14.698,0.7896,-0.4017,0.4609,0.0519
-0.069,-0.184,-0.799,101.3,-102.8,-17.1,0,2018,5,11,13,22,14.718,0.7892,-0.4129,0.4493,0.0684
-0.009,-0.313,-1.104,134,-115.2,-12.7,0,2018,5,11,13,22,14.737,0.7901,-0.4251,0.4328,0.087
0.263,-0.527,-1.96,193.6,-144,-23.3,0,2018,5,11,13,22,14.756,0.7918,-0.4391,0.4096,0.1107
0.492,-0.601,-2.534,300.8,-217.7,-52.2,0,2018,5,11,13,22,14.796,0.7936,-0.4562,0.3743,0.1479
0.171,-0.61,-2.161,428.9,-203.7,-66.6,0,2018,5,11,13,22,14.817,0.7959,-0.4721,0.3215,0.2001
-0.565,-0.307,-1.578,544.7,-105.1,-67.8,0,2018,5,11,13,22,14.821,0.8053,-0.4703,0.2523,0.258
4.907,2.729,-5.664,-97,38.3,-204.5,0,2018,5,11,13,22,14.839,0.8036,-0.46,0.2488,0.2837
-0.956,-0.844,0.814,-127.2,-200.4,-131.1,1023,2018,5,11,13,22,14.862,0.7918,-0.4646,0.27,0.2899
-0.116,0.826,-0.629,-20.8,106.7,-108.9,1023,2018,5,11,13,22,14.876,0.7808,-0.4633,0.2909,0.3015
-0.385,0.034,-0.225,69,-50.5,-78.6,1023,2018,5,11,13,22,14.896,0.7781,-0.4566,0.2936,0.3156
0.01,0.272,-0.013,86.5,34.3,-28.8,1023,2018,5,11,13,22,14.915,0.7788,-0.4498,0.2868,0.3298
-0.005,0.394,-0.225,64.2,72.1,-5.7,1023,2018,5,11,13,22,14.956,0.7861,-0.4372,0.2811,0.3342
-0.157,0.267,-0.171,38.3,50.5,21.4,1023,2018,5,11,13,22,14.975,0.7941,-0.4253,0.2775,0.3337
-0.175,0.057,-0.133,17.8,3.1,27.6,1023,2018,5,11,13,22,14.979,0.7984,-0.4224,0.2732,0.3306
-0.176,-0.073,-0.107,9.7,-13.9,31.8,1023,2018,5,11,13,22,14.999,0.8001,-0.4247,0.2684,0.3274
-0.082,-0.073,-0.181,9.7,-9.2,24.6,1023,2018,5,11,13,22,15.019,0.8013,-0.4271,0.2642,0.3248
-0.054,-0.113,-0.057,10.1,-10.3,16.9,1023,2018,5,11,13,22,15.039,0.8023,-0.4286,0.2606,0.3233
-0.026,-0.051,0.071,6.5,-15.2,10.5,1023,2018,5,11,13,22,15.077,0.8028,-0.4307,0.2567,0.3224
-0.012,0.048,0.07,3,-19,4.7,1023,2018,5,11,13,22,15.098,0.8023,-0.4329,0.2542,0.3226
0.043,0.079,0.004,4.7,-17.7,2.2,1023,2018,5,11,13,22,15.102,0.8012,-0.4351,0.2529,0.3234
0.069,0.044,0.04,7.9,-17.9,3.2,1023,2018,5,11,13,22,15.121,0.8001,-0.4369,0.2514,0.3248
0.078,0.021,0.045,10,-15.7,5.5,1023,2018,5,11,13,22,15.144,0.7993,-0.4387,0.2493,0.326
0.043,0.01,0.053,7.9,-16.6,8.8,0,2018,5,11,13,22,15.164,0.799,-0.4402,0.2467,0.3269
0.052,-0.031,0.003,5,-17.6,10.2,0,2018,5,11,13,22,15.181,0.7985,-0.4425,0.2441,0.3269
0.073,-0.03,0.001,7.3,-13.5,8,0,2018,5,11,13,22,15.202,0.7977,-0.4451,0.2418,0.3269
0.066,0.015,0.053,10.1,-8.2,3.8,0,2018,5,11,13,22,15.222,0.7975,-0.4461,0.2396,0.3276
0.052,-0.014,0.091,9.7,-0.9,0,0,2018,5,11,13,22,15.26,0.7978,-0.4459,0.2378,0.3286
0.048,0.023,0.063,7.2,1.5,-2.6,0,2018,5,11,13,22,15.264,0.7982,-0.4447,0.237,0.3297
0.037,0.053,0.019,4,-5.6,-4.6,0,2018,5,11,13,22,15.28,0.7981,-0.4441,0.2366,0.3312
0.035,0.052,-0.015,1.8,-6.1,-5.3,0,2018,5,11,13,22,15.303,0.7972,-0.4445,0.2367,0.3327
0.031,0.033,-0.015,1,-0.6,-5.5,0,2018,5,11,13,22,15.321,0.7965,-0.4445,0.2372,0.3341
0.003,0.02,0.002,0.9,4.3,-6.3,0,2018,5,11,13,22,15.344,0.7962,-0.4439,0.2378,0.3351
-0.018,0.042,0.009,-0.9,5.1,-5.8,0,2018,5,11,13,22,15.362,0.7963,-0.4426,0.2386,0.336
-0.023,0.041,-0.004,-3.2,0.7,-3.9,0,2018,5,11,13,22,15.405,0.7962,-0.442,0.2395,0.3365
-0.004,0.054,-0.025,-3.2,-4.7,-1.4,0,2018,5,11,13,22,15.409,0.7956,-0.4422,0.2402,0.337
-0.004,0.042,-0.007,-1.7,-7.8,0,0,2018,5,11,13,22,15.425,0.7948,-0.4432,0.2404,0.3374
-0.007,0.018,0.007,0,-5,0.6,0,2018,5,11,13,22,15.441,0.7943,-0.4442,0.2402,0.3376
-0.001,0.019,0,1.8,-1.6,0.8,0,2018,5,11,13,22,15.462,0.7941,-0.4446,0.2398,0.3378
0.005,0.025,0.005,3.3,0,0.4,0,2018,5,11,13,22,15.482,0.7941,-0.4445,0.2395,0.3381
0.024,0.032,0.012,2.8,0.1,0.4,0,2018,5,11,13,22,15.503,0.7942,-0.4441,0.2393,0.3385
0.028,0.053,0.007,1.2,-2.3,0.6,0,2018,5,11,13,22,15.523,0.7942,-0.4439,0.2392,0.3389
0.02,0.047,0.014,0.8,-3.7,0.2,0,2018,5,11,13,22,15.545,0.7939,-0.444,0.2391,0.3395
0.003,0.027,0.022,-1.1,-3.7,0.8,0,2018,5,11,13,22,15.585,0.7937,-0.4442,0.239,0.3399
0,0.012,0.014,-2,-3,1.5,0,2018,5,11,13,22,15.604,0.7934,-0.4446,0.2389,0.34
0.008,0.03,0,-2,-2.6,1.4,0,2018,5,11,13,22,15.608,0.7932,-0.4451,0.2391,0.3398
0.007,0.033,0.003,-0.3,-2.6,1.3,0,2018,5,11,13,22,15.622,0.7929,-0.4455,0.2392,0.3398
0.009,0.035,0,1.2,-2.1,1.5,0,2018,5,11,13,22,15.658,0.7927,-0.4458,0.2391,0.3399
0.001,0.036,0.009,2.1,-3.1,2.4,0,2018,5,11,13,22,15.68,0.7927,-0.4459,0.2387,0.34
-0.004,0.015,0.01,2.3,-3.8,2.8,0,2018,5,11,13,22,15.684,0.7926,-0.4464,0.2381,0.34
0,0.024,-0.001,1.8,-4.6,3,0,2018,5,11,13,22,15.705,0.7925,-0.447,0.2375,0.34
0.019,0.021,0.006,2,-2.9,2.7,0,2018,5,11,13,22,15.725,0.7924,-0.4475,0.2368,0.3401
0.025,0.02,0.005,1.7,-0.4,2.5,0,2018,5,11,13,22,15.762,0.7923,-0.4478,0.2365,0.34
0.019,0.027,0,1.5,0.3,2.5,0,2018,5,11,13,22,15.781,0.7924,-0.4477,0.2364,0.34
0.005,0.027,0.008,0.4,-1,2.5,0,2018,5,11,13,22,15.785,0.7926,-0.4474,0.236,0.3401
0.003,0.02,0.015,-0.7,-2.6,2.4,0,2018,5,11,13,22,15.823,0.7927,-0.4475,0.2356,0.3401
0.004,0.012,0.011,-1.3,-3.3,2,0,2018,5,11,13,22,15.827,0.7925,-0.448,0.2355,0.34
0.014,0.016,0.015,-1,-2.5,1.3,0,2018,5,11,13,22,15.846,0.7923,-0.4485,0.2355,0.3399
0.017,0.019,0.004,-0.6,-1.2,0.5,0,2018,5,11,13,22,15.864,0.7921,-0.4489,0.2356,0.3398
0.016,0.026,0.004,-0.2,-1.4,0.5,0,2018,5,11,13,22,15.884,0.7919,-0.449,0.2358,0.3399
0.013,0.023,0.01,-0.4,-1.9,1,0,2018,5,11,13,22,15.902,0.7917,-0.4491,0.2357,0.3401
0.012,0.025,0.004,-0.6,-1,1.3,0,2018,5,11,13,22,15.925,0.7916,-0.4493,0.2358,0.3402
0.007,0.023,0.001,-0.1,-0.9,1.3,0,2018,5,11,13,22,15.964,0.7915,-0.4496,0.236,0.34
0.012,0.025,0.002,0.1,-0.6,1.2,0,2018,5,11,13,22,15.983,0.7913,-0.4498,0.2361,0.3399
0.013,0.027,0.006,-0.1,-1.2,1.1,0,2018,5,11,13,22,15.987,0.7913,-0.4499,0.2362,0.3399
0.012,0.024,0.009,-0.7,-2.1,1.2,0,2018,5,11,13,22,16.009,0.7911,-0.4501,0.2362,0.34
0.012,0.022,-0.004,-1.3,-1.7,1.1,1023,2018,5,11,13,22,16.028,0.7909,-0.4505,0.2364,0.3398
0.013,0.018,0,-1.3,-1.8,0.9,1023,2018,5,11,13,22,16.046,0.7907,-0.4507,0.2366,0.3399
0.014,0.021,0.002,-0.6,-1.7,0.7,1023,2018,5,11,13,22,16.065,0.7904,-0.4511,0.2368,0.3399
0.008,0.021,0.008,0,-0.4,0.6,1023,2018,5,11,13,22,16.084,0.7903,-0.4511,0.2368,0.34
0.003,0.027,0,0.6,-0.4,0.4,1023,2018,5,11,13,22,16.125,0.7903,-0.4511,0.237,0.34
0.001,0.028,0.004,0.4,-1.4,1,1023,2018,5,11,13,22,16.144,0.7902,-0.4511,0.2369,0.3402
0.003,0.022,0.008,0,-2.3,1.4,1023,2018,5,11,13,22,16.148,0.7901,-0.4513,0.2367,0.3402
0,0.017,0.007,0,-2.1,1.4,1023,2018,5,11,13,22,16.167,0.79,-0.4517,0.2366,0.3402
0.001,0.004,0.006,0.1,-1.3,1.2,1023,2018,5,11,13,22,16.206,0.7899,-0.452,0.2365,0.3401
0.003,0.02,0.003,0.3,-0.5,0.7,1023,2018,5,11,13,22,16.227,0.7898,-0.4522,0.2365,0.34
0.007,0.022,-0.003,0.2,-0.6,0.8,1023,2018,5,11,13,22,16.231,0.7898,-0.4522,0.2365,0.3401
0.018,0.029,0.005,-0.4,-1.3,1.1,1023,2018,5,11,13,22,16.249,0.7896,-0.4524,0.2366,0.34
0.018,0.029,0.001,0,-1,1.6,1023,2018,5,11,13,22,16.268,0.7895,-0.4525,0.2367,0.3401
0.005,0.027,0.014,0.1,0.1,1.7,1023,2018,5,11,13,22,16.288,0.7895,-0.4526,0.2368,0.3399
0.008,0.017,0.011,-0.4,0,1.6,0,2018,5,11,13,22,16.328,0.7896,-0.4527,0.2369,0.3397
0.014,0.014,0,-1,-1.2,1.2,0,2018,5,11,13,22,16.349,0.7895,-0.4528,0.2371,0.3395
0.01,0.018,-0.006,-0.4,-2,0.8,0,2018,5,11,13,22,16.353,0.7893,-0.4532,0.2372,0.3394
0.01,0.02,-0.006,0.9,-0.1,0.8,0,2018,5,11,13,22,16.369,0.7891,-0.4535,0.2374,0.3393
0.008,0.017,-0.004,2,1.4,0.8,0,2018,5,11,13,22,16.389,0.7892,-0.4533,0.2374,0.3394
0.003,0.031,0.008,2.2,1.5,1.8,0,2018,5,11,13,22,16.426,0.7895,-0.4528,0.2371,0.3395
-0.001,0.032,0.012,1.2,-0.4,2.1,0,2018,5,11,13,22,16.446,0.7897,-0.4526,0.2369,0.3395
0.004,0.024,0.01,0.5,-1.5,1.8,0,2018,5,11,13,22,16.45,0.7897,-0.4526,0.2368,0.3394
0.013,0.016,-0.001,0.6,-1,1.7,0,2018,5,11,13,22,16.488,0.7897,-0.4527,0.2366,0.3394
0.014,0.016,-0.005,0.8,-0.6,1.4,0,2018,5,11,13,22,16.509,0.7897,-0.4528,0.2364,0.3395
0.011,0.013,0.002,0.6,-0.1,1.5,0,2018,5,11,13,22,16.513,0.7897,-0.4528,0.2364,0.3395
0.008,0.02,0.002,0.3,0.2,1.2,0,2018,5,11,13,22,16.533,0.7898,-0.4527,0.2364,0.3394
0.004,0.021,0.013,0,-0.2,0.7,0,2018,5,11,13,22,16.551,0.7899,-0.4526,0.2363,0.3395
0.011,0.029,0.015,-0.4,-1.2,0.5,0,2018,5,11,13,22,16.566,0.7898,-0.4526,0.2365,0.3395
0.014,0.021,0.004,-0.3,-2.1,0.4,0,2018,5,11,13,22,16.605,0.7897,-0.4526,0.2364,0.3397
0.017,0.011,0,0,-1.2,0.2,0,2018,5,11,13,22,16.624,0.7896,-0.4526,0.2363,0.34
0.007,0.007,-0.005,0.9,0.5,0.3,0,2018,5,11,13,22,16.626,0.7895,-0.4527,0.2364,0.3401
0.004,0.02,0.005,0.4,1.7,0,0,2018,5,11,13,22,16.662,0.7897,-0.4523,0.2363,0.3403
0.013,0.028,0.007,0,0,0,0,2018,5,11,13,22,16.682,0.7898,-0.452,0.2364,0.3404
0.014,0.024,0.004,-1.8,-2.4,0.5,0,2018,5,11,13,22,16.687,0.7897,-0.452,0.2365,0.3407
0.006,0.018,0.007,-2,-2.2,0.2,0,2018,5,11,13,22,16.723,0.7894,-0.4522,0.2366,0.3408
0.007,0.02,0.003,-1.8,-0.5,0,0,2018,5,11,13,22,16.743,0.7892,-0.4523,0.2368,0.341
0.008,0.018,-0.01,-0.7,0,-0.7,0,2018,5,11,13,22,16.751,0.789,-0.4525,0.2373,0.3409
0.013,0.027,-0.006,-0.4,-0.1,-0.5,0,2018,5,11,13,22,16.788,0.7888,-0.4525,0.2376,0.3412
0.009,0.032,0,0,0,0,0,2018,5,11,13,22,16.808,0.7888,-0.4523,0.2378,0.3414
0.004,0.03,0,0.6,-0.4,0.5,0,2018,5,11,13,22,16.813,0.7887,-0.4523,0.238,0.3415
0.001,0.022,0.007,0.7,-1,0.9,0,2018,5,11,13,22,16.829,0.7887,-0.4521,0.2378,0.3417
0,0.015,0.009,0.5,-1.5,1.5,0,2018,5,11,13,22,16.866,0.7887,-0.4522,0.2376,0.3418
0.006,0.012,0.002,0.1,-1.3,1.4,0,2018,5,11,13,22,16.885,0.7887,-0.4523,0.2374,0.3418
0.012,0.016,0.003,0.1,-1.2,1,0,2018,5,11,13,22,16.888,0.7885,-0.4527,0.2375,0.3416
0.009,0.012,0.002,0.1,-0.6,0.7,0,2018,5,11,13,22,16.924,0.7884,-0.4528,0.2376,0.3416
0.004,0.019,0.002,0,0,0,0,2018,5,11,13,22,16.944,0.7884,-0.4528,0.2377,0.3416
0.001,0.02,0.011,0,0,0,0,2018,5,11,13,22,16.949,0.7884,-0.4527,0.2378,0.3417
0.004,0.021,0.007,-0.9,-1.1,0.2,0,2018,5,11,13,22,16.984,0.7883,-0.4528,0.238,0.3417
0.011,0.019,-0.007,-0.7,-1.5,0,0,2018,5,11,13,22,17.005,0.7881,-0.453,0.2381,0.3418
0.011,0.017,0.002,0,0,0,0,2018,5,11,13,22,17.008,0.7879,-0.4531,0.2384,0.3419
0.004,0.019,0,-0.1,1.1,0.6,0,2018,5,11,13,22,17.047,0.788,-0.4528,0.2384,0.342
0.001,0.025,0.013,-0.7,-0.1,0.9,0,2018,5,11,13,22,17.066,0.7881,-0.4526,0.2385,0.342
0.001,0.028,0.004,-1.2,-0.9,1.3,1023,2018,5,11,13,22,17.069,0.788,-0.4528,0.2387,0.3418
0.011,0.014,-0.003,-1.3,-1.6,1,1023,2018,5,11,13,22,17.103,0.7879,-0.453,0.2387,0.3418
0.014,0.017,-0.005,-0.1,-0.4,0.5,1023,2018,5,11,13,22,17.123,0.7878,-0.4531,0.2388,0.3419
0.014,0.015,-0.002,0.1,0.4,0.5,1023,2018,5,11,13,22,17.13,0.7877,-0.4532,0.239,0.3418
0.015,0.022,0.007,0.1,0.6,0.7,1023,2018,5,11,13,22,17.165,0.7877,-0.4531,0.2393,0.3418
0.017,0.03,0.005,0,-0.4,0.5,1023,2018,5,11,13,22,17.185,0.7877,-0.4529,0.2394,0.3419
0.016,0.029,0.002,0.1,-1,0.6,1023,2018,5,11,13,22,17.192,0.7876,-0.4529,0.2396,0.342
0.019,0.023,0.003,0.3,-0.1,0.5,1023,2018,5,11,13,22,17.228,0.7875,-0.4529,0.2397,0.3421
0.012,0.017,0.002,0,0,0,1023,2018,5,11,13,22,17.249,0.7875,-0.4528,0.2397,0.3423
0.006,0.021,0.003,0,0,0,1023,2018,5,11,13,22,17.254,0.7875,-0.4526,0.2398,0.3425
0.007,0.016,0,0.7,0,-0.2,1023,2018,5,11,13,22,17.272,0.7874,-0.4526,0.2399,0.3426
0.001,0.015,-0.001,0.7,-0.6,-0.2,1023,2018,5,11,13,22,17.294,0.7874,-0.4525,0.2399,0.3428
0.007,0.018,-0.005,0.4,-0.6,-0.4,0,2018,5,11,13,22,17.314,0.7873,-0.4525,0.2399,0.343
0.009,0.019,0,0.1,-0.6,-0.2,0,2018,5,11,13,22,17.334,0.7872,-0.4525,0.2401,0.3431
0.007,0.022,-0.006,0,-0.6,0,0,2018,5,11,13,22,17.355,0.7871,-0.4525,0.2401,0.3434
0.005,0.023,0.002,-0.5,-0.6,0.2,0,2018,5,11,13,22,17.375,0.787,-0.4524,0.2402,0.3436
0.007,0.022,-0.001,-1,-0.9,0.3,0,2018,5,11,13,22,17.409,0.7869,-0.4525,0.2404,0.3437
0.008,0.02,0.006,-1,-2.1,0.2,0,2018,5,11,13,22,17.429,0.7866,-0.4528,0.2407,0.3436
0.006,0.016,0,-1.1,-1.7,0.3,0,2018,5,11,13,22,17.434,0.7864,-0.4531,0.2408,0.3437
0.01,0.011,0.002,0,0,0,0,2018,5,11,13,22,17.467,0.7863,-0.4531,0.2409,0.3438
0.009,0.019,0.002,0.1,0.3,0.5,0,2018,5,11,13,22,17.488,0.7862,-0.4531,0.2411,0.3438
-0.001,0.03,0.001,0.5,0.2,0.5,0,2018,5,11,13,22,17.491,0.7862,-0.4531,0.2412,0.3438
-0.003,0.029,0.002,0.7,-1,0.5,0,2018,5,11,13,22,17.525,0.7863,-0.4528,0.2411,0.3441
0,0.018,0.006,0.5,-2,0.8,0,2018,5,11,13,22,17.545,0.7863,-0.4528,0.2408,0.3444
0.008,0.018,0.002,0.2,-1.6,1.3,0,2018,5,11,13,22,17.554,0.7862,-0.453,0.2406,0.3445
0.011,0.017,0.008,0,-0.4,1.3,0,2018,5,11,13,22,17.589,0.7861,-0.4532,0.2407,0.3443
0.016,0.02,-0.001,-0.1,-0.4,1.2,0,2018,5,11,13,22,17.611,0.7861,-0.4532,0.2408,0.3443
0.009,0.021,-0.003,-0.1,-0.9,1.1,0,2018,5,11,13,22,17.617,0.786,-0.4534,0.2409,0.3442
0.004,0.017,0.003,-0.2,-1,0.9,0,2018,5,11,13,22,17.638,0.7859,-0.4535,0.2409,0.3443
0.012,0.018,0.002,-0.1,-0.7,1,0,2018,5,11,13,22,17.658,0.7859,-0.4534,0.2407,0.3444
0.011,0.017,0,0.4,-0.5,1.1,0,2018,5,11,13,22,17.693,0.7859,-0.4534,0.2406,0.3446
0.012,0.015,0,0.9,-0.2,0.8,0,2018,5,11,13,22,17.712,0.7859,-0.4533,0.2406,0.3446
0.009,0.023,0.005,0.8,0,0.6,0,2018,5,11,13,22,17.717,0.7859,-0.4533,0.2406,0.3447
0.008,0.022,0,0,0,0,0,2018,5,11,13,22,17.753,0.7859,-0.4532,0.2407,0.3447
0.007,0.03,0.004,-0.4,-0.7,0.7,0,2018,5,11,13,22,17.772,0.7859,-0.4532,0.2407,0.3448
0.005,0.022,-0.004,-0.7,-0.6,0.6,0,2018,5,11,13,22,17.773,0.7858,-0.4533,0.2408,0.3448
0.004,0.02,-0.007,-0.6,-0.9,0.8,0,2018,5,11,13,22,17.808,0.7857,-0.4534,0.2409,0.3448
0.003,0.023,0.001,-0.5,-1.6,1,0,2018,5,11,13,22,17.827,0.7856,-0.4535,0.2409,0.3449
0.001,0.022,-0.002,-0.1,-1.5,1.2,0,2018,5,11,13,22,17.837,0.7855,-0.4537,0.2409,0.3449
0.002,0.019,-0.007,0.1,-1.2,1.4,0,2018,5,11,13,22,17.872,0.7854,-0.4539,0.2408,0.3449
0.002,0.015,0.001,0.3,-1.3,2.1,0,2018,5,11,13,22,17.892,0.7853,-0.4542,0.2407,0.3448
0.008,0.023,0.007,0.4,-1.1,2.2,0,2018,5,11,13,22,17.897,0.7853,-0.4544,0.2406,0.3446
0.013,0.022,0.005,0.3,-2.5,1.9,0,2018,5,11,13,22,17.931,0.7853,-0.4544,0.2403,0.3448
0.015,0.018,0.002,0.4,-1.7,1.6,0,2018,5,11,13,22,17.951,0.7852,-0.4547,0.2401,0.3448
0.011,0.011,-0.004,0.8,-0.4,1.3,0,2018,5,11,13,22,17.953,0.7852,-0.4546,0.2399,0.3449
0.007,0.011,0.003,0.6,-0.3,1.2,0,2018,5,11,13,22,17.988,0.7853,-0.4546,0.2397,0.3449
0.004,0.012,0.015,0.1,-0.9,1,0,2018,5,11,13,22,18.011,0.7853,-0.4547,0.2397,0.3449
0.005,0.013,0.005,-0.4,-1.4,0.6,0,2018,5,11,13,22,18.018,0.7853,-0.4547,0.2395,0.345
0.007,0.014,0,0,-1.3,0.5,0,2018,5,11,13,22,18.04,0.7851,-0.455,0.2397,0.3449
0.004,0.018,0,1,-0.6,0.6,1023,2018,5,11,13,22,18.059,0.785,-0.4551,0.2396,0.345
-0.002,0.021,0.006,1.1,0.3,0.7,1023,2018,5,11,13,22,18.095,0.785,-0.4551,0.2396,0.3451
0.006,0.029,0.004,1.1,-0.4,0.9,1023,2018,5,11,13,22,18.113,0.7852,-0.4547,0.2392,0.3454
0.008,0.023,0.005,0.9,-0.6,0.8,1023,2018,5,11,13,22,18.118,0.7852,-0.4546,0.239,0.3456
0.009,0.026,0.012,0.4,-0.3,1,1023,2018,5,11,13,22,18.154,0.7852,-0.4546,0.239,0.3456
0.017,0.017,0,-0.2,-0.6,1.3,1023,2018,5,11,13,22,18.173,0.7852,-0.4546,0.2391,0.3456
0.017,0.011,-0.002,-0.6,-1.3,1.4,1023,2018,5,11,13,22,18.175,0.7851,-0.4548,0.2391,0.3456
0.012,0.011,0.004,-0.3,-0.6,1,1023,2018,5,11,13,22,18.209,0.785,-0.4551,0.2392,0.3455
0.007,0.023,0.001,0.2,0.4,0.5,1023,2018,5,11,13,22,18.229,0.7849,-0.4552,0.2395,0.3452
0.006,0.022,0.001,0.6,0.5,0.4,1023,2018,5,11,13,22,18.238,0.785,-0.4549,0.2395,0.3454
0.002,0.021,0.007,0.9,0.3,0.3,1023,2018,5,11,13,22,18.271,0.785,-0.4549,0.2395,0.3454
0.001,0.02,0.003,0.8,-0.7,0.8,1023,2018,5,11,13,22,18.293,0.7851,-0.4546,0.2393,0.3457
0.001,0.017,-0.003,0.7,-0.8,0.8,1023,2018,5,11,13,22,18.3,0.7851,-0.4546,0.2392,0.3458
0.002,0.017,0,0.8,-0.2,1.1,0,2018,5,11,13,22,18.334,0.7851,-0.4547,0.2391,0.3458
0.002,0.016,-0.001,0.3,-0.4,1,0,2018,5,11,13,22,18.355,0.7851,-0.4545,0.2389,0.346
0.003,0.022,0.008,0,-1.3,0.8,0,2018,5,11,13,22,18.359,0.7851,-0.4545,0.2388,0.3461
0.009,0.024,-0.005,0,-2.3,0.7,0,2018,5,11,13,22,18.393,0.785,-0.4547,0.2387,0.3462
0.004,0.022,0,0,-1.7,1.3,0,2018,5,11,13,22,18.413,0.7848,-0.4551,0.2388,0.3461
0.006,0.016,-0.001,0.3,-0.2,2.1,0,2018,5,11,13,22,18.42,0.7847,-0.4554,0.2388,0.3459
0.013,0.02,-0.007,0.7,0.1,2.2,0,2018,5,11,13,22,18.455,0.7848,-0.4555,0.2388,0.3456
0.002,0.014,0.006,0.1,-0.7,2,0,2018,5,11,13,22,18.475,0.7848,-0.4556,0.2388,0.3454
0.003,0.021,0.007,-0.4,-1.3,1.6,0,2018,5,11,13,22,18.477,0.7848,-0.4557,0.2387,0.3453
0.013,0.009,0.005,-0.9,-1.5,1,0,2018,5,11,13,22,18.51,0.7847,-0.4559,0.2386,0.3453
0.011,0.018,0.004,-0.7,-0.9,0.5,0,2018,5,11,13,22,18.53,0.7846,-0.4561,0.2388,0.3452
0.01,0.022,-0.004,0,-0.4,0.5,0,2018,5,11,13,22,18.539,0.7845,-0.4561,0.2389,0.3453
0.01,0.026,-0.004,0.5,-0.4,0.9,0,2018,5,11,13,22,18.577,0.7845,-0.456,0.2388,0.3455
0.009,0.021,0.01,0.4,0,1.1,0,2018,5,11,13,22,18.6,0.7845,-0.456,0.2388,0.3455
0.004,0.014,0.003,0.1,-0.4,1,0,2018,5,11,13,22,18.604,0.7846,-0.4558,0.2387,0.3455
0.007,0.02,0.001,0.1,-0.8,0.7,0,2018,5,11,13,22,18.642,0.7847,-0.4557,0.2386,0.3457
0.009,0.017,-0.009,0.1,-1.5,0.9,0,2018,5,11,13,22,18.646,0.7845,-0.456,0.2386,0.3457
0.011,0.017,0.001,0.9,-0.1,1.3,0,2018,5,11,13,22,18.661,0.7845,-0.456,0.2385,0.3458
0.003,0.019,0.009,1.1,0.9,1.4,0,2018,5,11,13,22,18.698,0.7846,-0.4558,0.2384,0.3459
0.002,0.022,0.009,0.4,-0.1,0.8,0,2018,5,11,13,22,18.717,0.7849,-0.4554,0.2381,0.3461
0.007,0.011,0.003,-0.2,-1.5,0.7,0,2018,5,11,13,22,18.721,0.7849,-0.4553,0.238,0.3462
0.01,0.012,-0.001,-0.3,-1.3,0.5,0,2018,5,11,13,22,18.755,0.7848,-0.4555,0.2378,0.3464
0.01,0.021,-0.002,0,0,0.5,0,2018,5,11,13,22,18.774,0.7847,-0.4555,0.2379,0.3465
0.008,0.023,-0.006,0.3,0.4,0.7,0,2018,5,11,13,22,18.781,0.7847,-0.4553,0.238,0.3466
0.002,0.025,-0.001,0.8,-0.2,1.3,0,2018,5,11,13,22,18.815,0.7847,-0.4552,0.2379,0.3467
0,0.019,0.001,1,-0.8,1.8,0,2018,5,11,13,22,18.835,0.7848,-0.4553,0.2378,0.3466
-0.002,0.013,0.007,0.9,-0.1,1.8,0,2018,5,11,13,22,18.843,0.7848,-0.4554,0.2377,0.3464
-0.004,0.018,0.007,0.6,-0.8,1.5,0,2018,5,11,13,22,18.876,0.7849,-0.4555,0.2376,0.3462
0.002,0.018,0,0.4,-1.6,1.7,0,2018,5,11,13,22,18.898,0.7849,-0.4557,0.2374,0.3461
0.01,0.02,-0.004,0.8,-2.4,2.1,0,2018,5,11,13,22,18.902,0.7848,-0.456,0.2372,0.346
0.01,0.019,0,0.9,-1.9,2.4,0,2018,5,11,13,22,18.942,0.7848,-0.4562,0.2369,0.346
0.013,0.014,0,0.6,-0.5,2.3,0,2018,5,11,13,22,18.96,0.7847,-0.4566,0.2368,0.3457
0.015,0.022,0.001,0,-0.2,2.2,0,2018,5,11,13,22,18.962,0.7848,-0.4566,0.2367,0.3456
0.014,0.021,0.002,-0.4,-1,2,0,2018,5,11,13,22,18.996,0.7848,-0.4567,0.2368,0.3454
0.011,0.015,0.002,-0.5,-1.3,1.7,0,2018,5,11,13,22,19.015,0.7847,-0.4569,0.2367,0.3453
0.012,0.01,0.001,-0.6,-0.8,1.6,0,2018,5,11,13,22,19.024,0.7847,-0.4569,0.2366,0.3453
0.016,0.01,0.006,-0.6,-0.4,1.4,0,2018,5,11,13,22,19.057,0.7848,-0.457,0.2365,0.3453
0.01,0.014,0,-0.5,-0.4,1.2,0,2018,5,11,13,22,19.078,0.7847,-0.457,0.2366,0.3452
0.014,0.015,0.005,-0.1,-0.1,1.1,0,2018,5,11,13,22,19.08,0.7847,-0.457,0.2366,0.3452
0.01,0.024,0.005,0.4,0.3,1,0,2018,5,11,13,22,19.114,0.7848,-0.4569,0.2367,0.3453
0.002,0.018,0,0.8,-0.2,1,1023,2018,5,11,13,22,19.135,0.7848,-0.4568,0.2366,0.3453
0.004,0.014,0,0.3,-0.6,0.8,1023,2018,5,11,13,22,19.145,0.7848,-0.4568,0.2366,0.3453
0.006,0.019,-0.003,0.1,-0.3,0.7,1023,2018,5,11,13,22,19.164,0.7848,-0.4567,0.2365,0.3455
0.009,0.022,-0.001,0,-0.6,0.5,1023,2018,5,11,13,22,19.186,0.7848,-0.4565,0.2364,0.3458
0.015,0.024,0.001,0,-1.1,0.7,1023,2018,5,11,13,22,19.223,0.7847,-0.4566,0.2365,0.3458
0.01,0.021,0.004,0.1,-0.8,0.6,1023,2018,5,11,13,22,19.241,0.7846,-0.4567,0.2366,0.3459
0.003,0.018,0.004,0,0,0,1023,2018,5,11,13,22,19.245,0.7846,-0.4566,0.2366,0.346
0.001,0.022,0.001,0.6,-0.5,0.2,1023,2018,5,11,13,22,19.279,0.7846,-0.4566,0.2367,0.3461
0.01,0.021,-0.001,0.1,-2.3,0.2,1023,2018,5,11,13,22,19.298,0.7844,-0.4567,0.2367,0.3463
0.009,0.011,-0.001,0.1,-2.2,0.7,1023,2018,5,11,13,22,19.307,0.7843,-0.4569,0.2364,0.3466
0.011,0.014,-0.008,0.6,-0.4,0.4,1023,2018,5,11,13,22,19.342,0.7841,-0.4571,0.2365,0.3466
0.004,0.01,0,1.2,0.6,0.3,1023,2018,5,11,13,22,19.363,0.7841,-0.4571,0.2364,0.3467
0,0.016,0.009,0.6,0.4,0.5,1023,2018,5,11,13,22,19.365,0.7842,-0.4568,0.2364,0.3468
0.001,0.024,0.014,-0.7,-1.7,0.5,1023,2018,5,11,13,22,19.399,0.7842,-0.4568,0.2364,0.3468
0.008,0.018,0,-1.3,-2.8,0.5,0,2018,5,11,13,22,19.422,0.784,-0.4572,0.2365,0.3468
0.011,0.014,-0.004,-0.8,-1.8,0.5,0,2018,5,11,13,22,19.426,0.7837,-0.4576,0.2366,0.3468
0.009,0.011,-0.001,0,0,0.5,0,2018,5,11,13,22,19.463,0.7836,-0.4576,0.2366,0.3469
0.004,0.018,0.013,0.4,0.3,0.5,0,2018,5,11,13,22,19.481,0.7837,-0.4573,0.2365,0.3471
0.002,0.027,0.01,0,0,0,0,2018,5,11,13,22,19.485,0.7838,-0.4571,0.2365,0.3473
0.001,0.026,-0.001,-0.1,-1.9,0.2,0,2018,5,11,13,22,19.519,0.7837,-0.4572,0.2365,0.3474
0.006,0.016,-0.005,0.3,-1.4,0.5,0,2018,5,11,13,22,19.538,0.7835,-0.4575,0.2366,0.3475
0.008,0.018,0,0.8,0.3,1,0,2018,5,11,13,22,19.548,0.7834,-0.4576,0.2367,0.3474
0,0.026,0.002,0.3,-0.4,1.1,0,2018,5,11,13,22,19.583,0.7835,-0.4574,0.2365,0.3475
-0.004,0.022,0.008,-0.1,-1.9,0.8,0,2018,5,11,13,22,19.602,0.7835,-0.4576,0.2365,0.3474
0.01,0.011,0.001,-0.7,-2.7,1,0,2018,5,11,13,22,19.604,0.7833,-0.4579,0.2364,0.3475
0.021,0.014,-0.002,-0.3,-1.6,1.1,0,2018,5,11,13,22,19.638,0.7831,-0.4582,0.2364,0.3475
0.019,0.014,-0.005,0,-0.7,1.1,0,2018,5,11,13,22,19.659,0.783,-0.4585,0.2365,0.3474
0.01,0.02,0.008,0.3,0,1,0,2018,5,11,13,22,19.667,0.7829,-0.4585,0.2366,0.3473
0.007,0.02,0.005,-0.1,-0.6,0.8,0,2018,5,11,13,22,19.705,0.783,-0.4584,0.2366,0.3474
0.01,0.022,0.005,-0.6,-1.5,0.7,0,2018,5,11,13,22,19.725,0.7828,-0.4586,0.2368,0.3473
0.015,0.01,-0.002,-0.4,-1.3,0.5,0,2018,5,11,13,22,19.727,0.7827,-0.4588,0.2369,0.3474
0.016,0.008,0,0,-0.8,0.2,0,2018,5,11,13,22,19.76,0.7825,-0.459,0.237,0.3474
0.01,0.011,0.005,0.7,0.7,0,0,2018,5,11,13,22,19.779,0.7825,-0.4589,0.2371,0.3474
0.001,0.023,0.001,0.9,0.9,-0.5,0,2018,5,11,13,22,19.791,0.7825,-0.4587,0.2372,0.3476
-0.003,0.025,0,0.2,-0.2,-0.5,0,2018,5,11,13,22,19.806,0.7826,-0.4584,0.2372,0.3479
0.008,0.027,-0.003,-0.4,-1.8,0,0,2018,5,11,13,22,19.825,0.7824,-0.4584,0.2374,0.348
0.01,0.024,-0.01,-0.6,-1.8,0.5,0,2018,5,11,13,22,19.859,0.7821,-0.4587,0.2376,0.3481
0.011,0.024,-0.006,-0.1,-0.8,0.5,0,2018,5,11,13,22,19.879,0.7821,-0.4588,0.2377,0.3482
0.002,0.027,-0.003,0.8,-0.6,0.7,0,2018,5,11,13,22,19.889,0.782,-0.4587,0.2377,0.3484
0.001,0.022,0,0.7,-1.8,0.7,0,2018,5,11,13,22,19.924,0.782,-0.4586,0.2374,0.3486
0.003,0.02,0.001,0.3,-2.6,1.2,0,2018,5,11,13,22,19.944,0.7819,-0.4589,0.2373,0.3487
0.003,0.022,-0.004,0,-2.6,1.4,0,2018,5,11,13,22,19.949,0.7817,-0.4593,0.2372,0.3486
0.006,0.014,-0.002,0,-2.1,1.7,0,2018,5,11,13,22,19.989,0.7815,-0.4598,0.2372,0.3485
0.007,0.015,0.006,0.4,-1.4,1.8,0,2018,5,11,13,22,20.009,0.7814,-0.46,0.237,0.3484
0.003,0.015,0.014,0.3,-1.2,1.6,0,2018,5,11,13,22,20.013,0.7815,-0.46,0.2368,0.3484
0.009,0.021,0.011,-0.1,-2,1.1,0,2018,5,11,13,22,20.028,0.7815,-0.46,0.2365,0.3486
0.016,0.011,0.004,-0.6,-2.6,0.9,0,2018,5,11,13,22,20.07,0.7814,-0.4602,0.2364,0.3487
0.013,0.006,0.001,-0.3,-1.5,0.3,0,2018,5,11,13,22,20.09,0.7811,-0.4608,0.2366,0.3485
0.011,0.011,0.01,0,0,0,0,2018,5,11,13,22,20.094,0.781,-0.4609,0.2368,0.3485
0.002,0.024,0.007,0,0,0,0,2018,5,11,13,22,20.11,0.781,-0.4607,0.2369,0.3485
0.004,0.028,0.006,0,-1.3,0.8,0,2018,5,11,13,22,20.148,0.781,-0.4606,0.237,0.3487
0.004,0.023,-0.003,0.4,-1,1.1,0,2018,5,11,13,22,20.168,0.781,-0.4606,0.2368,0.3488
0.004,0.016,0,1.2,-0.1,1.4,0,2018,5,11,13,22,20.17,0.781,-0.4606,0.2367,0.3488
0.008,0.014,-0.007,1.6,0.6,1.7,0,2018,5,11,13,22,20.205,0.7811,-0.4606,0.2365,0.3488
0.011,0.019,-0.001,0.9,-0.4,1.4,0,2018,5,11,13,22,20.224,0.7813,-0.4603,0.2363,0.3488
0.01,0.021,0.001,0.1,-1,1.6,0,2018,5,11,13,22,20.226,0.7812,-0.4604,0.2363,0.3488
0.011,0.018,-0.003,0,-0.8,1.4,0,2018,5,11,13,22,20.259,0.7812,-0.4605,0.2362,0.3487
0.015,0.011,0,0,-0.2,1.1,1023,2018,5,11,13,22,20.28,0.7812,-0.4606,0.2363,0.3487
0.012,0.021,0.007,0.2,0,1.3,1023,2018,5,11,13,22,20.291,0.7812,-0.4606,0.2364,0.3486
0.013,0.025,0.003,0.4,-0.2,1,1023,2018,5,11,13,22,20.328,0.7812,-0.4606,0.2364,0.3486
0.012,0.022,-0.001,0.4,-0.7,0.8,1023,2018,5,11,13,22,20.349,0.7812,-0.4606,0.2365,0.3486
0.013,0.012,-0.003,0,-1,0.5,1023,2018,5,11,13,22,20.35,0.7811,-0.4606,0.2364,0.3487
0.009,0.01,-0.001,0.4,-0.4,0.5,1023,2018,5,11,13,22,20.387,0.7811,-0.4607,0.2364,0.3488
0.004,0.016,-0.004,0.7,0.4,0.3,1023,2018,5,11,13,22,20.407,0.781,-0.4607,0.2364,0.3488
0.004,0.025,0.002,0.6,0.4,0.4,1023,2018,5,11,13,22,20.413,0.7811,-0.4606,0.2365,0.3488
0.007,0.019,0.008,-0.1,-1.2,0.4,1023,2018,5,11,13,22,20.449,0.7811,-0.4604,0.2365,0.349
0.005,0.017,-0.003,-0.8,-2.4,0.1,1023,2018,5,11,13,22,20.468,0.7809,-0.4606,0.2365,0.3491
0.013,0.013,-0.001,-0.1,-1.2,0,1023,2018,5,11,13,22,20.473,0.7807,-0.4608,0.2365,0.3493
0.008,0.019,-0.004,0,0,0,1023,2018,5,11,13,22,20.507,0.7807,-0.4608,0.2366,0.3494
0.001,0.029,0.002,0.8,0.4,0.7,1023,2018,5,11,13,22,20.527,0.7808,-0.4605,0.2366,0.3496
-0.001,0.024,0.007,0.1,-0.9,1.1,1023,2018,5,11,13,22,20.53,0.7808,-0.4605,0.2366,0.3495
0.004,0.022,0.003,-0.6,-1.9,1.2,1023,2018,5,11,13,22,20.564,0.7808,-0.4605,0.2365,0.3496
0.007,0.014,-0.002,-0.2,-1.8,1.1,0,2018,5,11,13,22,20.585,0.7807,-0.4607,0.2363,0.3496
0.012,0.009,-0.004,0.2,-0.3,0.8,0,2018,5,11,13,22,20.591,0.7807,-0.4608,0.2362,0.3497
0.012,0.013,0,0.4,0.3,1.2,0,2018,5,11,13,22,20.624,0.7807,-0.4607,0.2362,0.3497
0,0.023,0.006,0.3,0,1.1,0,2018,5,11,13,22,20.645,0.7808,-0.4606,0.2362,0.3497
0.006,0.022,0.003,-0.3,-1.1,0.7,0,2018,5,11,13,22,20.655,0.7808,-0.4605,0.2362,0.3497
0.01,0.018,-0.002,-0.6,-1.3,0.8,0,2018,5,11,13,22,20.692,0.7807,-0.4607,0.2363,0.3497
0.009,0.01,0.006,-0.3,-0.6,1,0,2018,5,11,13,22,20.715,0.7806,-0.4608,0.2363,0.3497
0.012,0.011,0.003,0.1,-0.1,0.6,0,2018,5,11,13,22,20.72,0.7805,-0.461,0.2365,0.3495
0.009,0.019,-0.003,0,0,0,0,2018,5,11,13,22,20.738,0.7805,-0.461,0.2366,0.3495
0.009,0.019,0.005,0.2,-0.6,0.3,0,2018,5,11,13,22,20.755,0.7804,-0.461,0.2367,0.3496
0.009,0.017,0.001,0,-0.6,0.2,0,2018,5,11,13,22,20.775,0.7804,-0.4609,0.2367,0.3498
0.008,0.02,0.005,0.3,-0.2,0.5,0,2018,5,11,13,22,20.813,0.7804,-0.4608,0.2368,0.3499
0.006,0.018,-0.002,0,-0.4,0.8,0,2018,5,11,13,22,20.832,0.7803,-0.4608,0.2369,0.3499
0.004,0.02,0,0,0.2,1,0,2018,5,11,13,22,20.834,0.7803,-0.4609,0.237,0.3498
0.003,0.018,0,0.1,0.4,0.6,0,2018,5,11,13,22,20.868,0.7803,-0.4608,0.2371,0.3498
-0.002,0.024,0.007,0.3,0,0.5,0,2018,5,11,13,22,20.888,0.7804,-0.4606,0.2371,0.3499
0.008,0.019,0.001,0.2,-0.7,0.6,0,2018,5,11,13,22,20.895,0.7805,-0.4604,0.237,0.3501
0.009,0.019,-0.001,0,-1.1,1.1,0,2018,5,11,13,22,20.931,0.7805,-0.4603,0.2368,0.3502
0.009,0.019,-0.003,0.4,-0.4,1.4,0,2018,5,11,13,22,20.951,0.7805,-0.4604,0.2367,0.3502
0.011,0.013,-0.001,0.3,-0.2,0.9,0,2018,5,11,13,22,20.957,0.7805,-0.4604,0.2367,0.3502
0.004,0.016,0.001,-0.2,-0.5,0.5,0,2018,5,11,13,22,20.973,0.7804,-0.4605,0.2368,0.3501
0.007,0.018,0.004,-0.6,-0.7,0.4,0,2018,5,11,13,22,20.995,0.7804,-0.4605,0.2369,0.3502
0.006,0.019,0.001,-0.3,-0.7,0.5,0,2018,5,11,13,22,21.015,0.7803,-0.4605,0.2368,0.3504
0.011,0.018,-0.007,0.1,-0.9,0.5,0,2018,5,11,13,22,21.033,0.7801,-0.4608,0.2371,0.3502
0.009,0.023,-0.001,0.4,-1.3,0.9,0,2018,5,11,13,22,21.069,0.7801,-0.4608,0.2371,0.3504
0.006,0.023,0.002,0.8,-0.7,1,0,2018,5,11,13,22,21.088,0.7801,-0.4607,0.2369,0.3506
0.004,0.013,0.004,0.9,-0.2,1.1,0,2018,5,11,13,22,21.098,0.7801,-0.4607,0.2369,0.3506
-0.002,0.007,0.004,0.9,-0.8,1.1,0,2018,5,11,13,22,21.134,0.7802,-0.4606,0.2366,0.3507
0,0.015,0.001,0.6,-1.1,1.1,0,2018,5,11,13,22,21.153,0.7803,-0.4605,0.2363,0.3507
0.018,0.014,0.001,0.3,-1.5,0.9,0,2018,5,11,13,22,21.156,0.7803,-0.4606,0.2362,0.3508
0.015,0.005,0.003,0.1,-1.3,0.9,0,2018,5,11,13,22,21.192,0.7801,-0.4608,0.2362,0.3508
0.012,0.012,0.002,0,0,0,0,2018,5,11,13,22,21.212,0.7801,-0.4608,0.2362,0.351
0.007,0.014,0.002,0.1,0.7,0,0,2018,5,11,13,22,21.217,0.7801,-0.4607,0.2364,0.351
0.006,0.021,-0.001,-0.4,-0.5,0,0,2018,5,11,13,22,21.25,0.7801,-0.4606,0.2365,0.3511
0.006,0.013,0.002,-0.7,-1.1,0,0,2018,5,11,13,22,21.27,0.78,-0.4606,0.2366,0.3513
0.008,0.013,0,0,0,0,0,2018,5,11,13,22,21.275,0.7798,-0.4607,0.2368,0.3512
0.005,0.014,0.004,-0.3,0.4,0.7,0,2018,5,11,13,22,21.309,0.7798,-0.4606,0.237,0.3512
0.008,0.014,0.003,0,0,0,0,2018,5,11,13,22,21.332,0.7798,-0.4606,0.2372,0.3511
0.006,0.013,-0.006,0.3,-0.6,0.1,0,2018,5,11,13,22,21.341,0.7798,-0.4606,0.2373,0.3512
0.007,0.017,-0.004,0,0,0,0,2018,5,11,13,22,21.378,0.7797,-0.4606,0.2374,0.3513
0.008,0.02,-0.004,0.6,0.1,0.3,1023,2018,5,11,13,22,21.397,0.7797,-0.4605,0.2374,0.3514
0.007,0.02,0,0.6,0.5,0.3,1023,2018,5,11,13,22,21.398,0.7798,-0.4602,0.2373,0.3517
0.01,0.024,0.006,0.7,-0.3,0.8,1023,2018,5,11,13,22,21.433,0.7799,-0.4598,0.2372,0.3519
0.007,0.021,0.003,0.6,-1.1,0.7,1023,2018,5,11,13,22,21.453,0.7799,-0.4599,0.2372,0.352
0.013,0.017,-0.003,0.3,-1.6,0.5,1023,2018,5,11,13,22,21.458,0.7798,-0.4599,0.2371,0.3522
0.014,0.014,-0.003,0.6,-1.3,0.3,1023,2018,5,11,13,22,21.493,0.7797,-0.46,0.2369,0.3525
0.011,0.018,0.006,0.9,0,0,1023,2018,5,11,13,22,21.513,0.7797,-0.4599,0.2369,0.3527
0.012,0.019,0.005,1.1,0.3,-0.2,1023,2018,5,11,13,22,21.517,0.7797,-0.4596,0.2368,0.3529
0,0.018,0.006,1.4,0,-0.3,1023,2018,5,11,13,22,21.558,0.7797,-0.4594,0.2368,0.3531
-0.003,0.016,0.007,0.5,-0.9,0,1023,2018,5,11,13,22,21.578,0.7797,-0.4592,0.2367,0.3534
0.002,0.013,-0.002,0.2,-1.5,0,1023,2018,5,11,13,22,21.583,0.7797,-0.4592,0.2365,0.3537
0.008,0.014,-0.002,0.2,-0.6,-0.1,1023,2018,5,11,13,22,21.62,0.7796,-0.4591,0.2364,0.354
0.012,0.015,-0.001,0.5,0.2,0,1023,2018,5,11,13,22,21.64,0.7795,-0.4592,0.2365,0.3541
0.006,0.022,0.006,0.6,0.4,0,0,2018,5,11,13,22,21.644,0.7795,-0.459,0.2366,0.3543
0,0.023,0.01,0,0,0,0,2018,5,11,13,22,21.665,0.7795,-0.4588,0.2367,0.3544
0.003,0.016,-0.002,-0.4,-1,0.3,0,2018,5,11,13,22,21.685,0.7795,-0.4589,0.2368,0.3545
0.009,0.012,-0.012,-0.2,-0.7,0.5,0,2018,5,11,13,22,21.701,0.7792,-0.4592,0.237,0.3544
0.011,0.013,-0.001,0,-0.7,0.2,0,2018,5,11,13,22,21.739,0.7791,-0.4593,0.2371,0.3544
0.008,0.021,0,0.1,0.5,0,0,2018,5,11,13,22,21.759,0.7791,-0.4592,0.2373,0.3544
0.005,0.02,0.001,0,0,0,0,2018,5,11,13,22,21.763,0.7791,-0.4591,0.2375,0.3544
0.004,0.022,0,-0.1,-0.7,0.5,0,2018,5,11,13,22,21.784,0.779,-0.4591,0.2377,0.3545
0.006,0.018,0,0,-1,0.5,0,2018,5,11,13,22,21.804,0.779,-0.4591,0.2376,0.3546
0.008,0.016,0,0.1,-0.5,0.4,0,2018,5,11,13,22,21.843,0.7789,-0.4593,0.2377,0.3546
0.011,0.017,-0.001,0,0,0,0,2018,5,11,13,22,21.847,0.7788,-0.4593,0.2379,0.3546
0.005,0.022,0.008,0,0,0,0,2018,5,11,13,22,21.864,0.7787,-0.4592,0.238,0.3547
0.003,0.016,-0.001,0.1,-1.5,0.6,0,2018,5,11,13,22,21.901,0.7787,-0.4593,0.238,0.3548
0.004,0.017,-0.002,0.4,-2.2,0.8,0,2018,5,11,13,22,21.905,0.7785,-0.4595,0.2379,0.3549
0.006,0.009,-0.007,0.9,-0.7,0.2,0,2018,5,11,13,22,21.921,0.7784,-0.4596,0.2378,0.3551
0.003,0.018,0.001,0.9,0.4,0.3,0,2018,5,11,13,22,21.959,0.7785,-0.4595,0.2377,0.3552
0.005,0.023,0.005,0.6,0,0.4,0,2018,5,11,13,22,21.98,0.7785,-0.4594,0.2379,0.3552
0.006,0.028,0.008,0,-1.8,0.5,0,2018,5,11,13,22,21.985,0.7784,-0.4594,0.2379,0.3553
0.006,0.017,-0.002,-0.1,-2.4,0.4,0,2018,5,11,13,22,22.006,0.7782,-0.4596,0.2378,0.3555
0.003,0.014,0.001,0.1,-0.8,0.5,0,2018,5,11,13,22,22.026,0.778,-0.4599,0.2379,0.3555
0.01,0.013,-0.002,0.6,0.3,0.3,0,2018,5,11,13,22,22.045,0.778,-0.4599,0.2379,0.3555
0.003,0.023,0.002,0,0,0,0,2018,5,11,13,22,22.065,0.778,-0.4597,0.238,0.3556
0.004,0.02,0,-0.5,-1.6,0.2,0,2018,5,11,13,22,22.103,0.7779,-0.4599,0.2381,0.3557
0.008,0.023,-0.004,-0.7,-2.1,0.4,0,2018,5,11,13,22,22.123,0.7776,-0.4603,0.2384,0.3556
0.009,0.022,-0.002,-0.2,-1.5,0.5,0,2018,5,11,13,22,22.127,0.7774,-0.4606,0.2385,0.3556
0.004,0.025,-0.004,0.3,-0.5,0.8,0,2018,5,11,13,22,22.142,0.7773,-0.4606,0.2385,0.3557
0,0.026,0.001,0.4,-0.8,0.8,0,2018,5,11,13,22,22.183,0.7774,-0.4605,0.2384,0.3559
0,0.026,0.003,0.3,-1.5,0.7,0,2018,5,11,13,22,22.202,0.7773,-0.4605,0.2383,0.356
0.003,0.018,0.003,0.4,-2.1,1.3,0,2018,5,11,13,22,22.206,0.7772,-0.4607,0.2382,0.3561
0.01,0.016,0.002,0.6,-2.1,1.6,0,2018,5,11,13,22,22.225,0.777,-0.4611,0.2381,0.356
0.01,0.017,0.002,0.4,-1,1.6,0,2018,5,11,13,22,22.261,0.7771,-0.461,0.2378,0.3561
0.011,0.014,0.003,1,-0.3,1.3,0,2018,5,11,13,22,22.283,0.7771,-0.4611,0.2376,0.3561
0.008,0.023,0.013,0.6,-0.2,0.8,0,2018,5,11,13,22,22.287,0.7772,-0.461,0.2376,0.3562
0.01,0.019,0.006,-0.4,-0.8,0.8,0,2018,5,11,13,22,22.309,0.7772,-0.461,0.2376,0.3562
0.01,0.019,0,-0.8,-1.5,0.7,0,2018,5,11,13,22,22.329,0.777,-0.4612,0.2378,0.3561
0.009,0.014,0,-0.8,-1.3,0.8,0,2018,5,11,13,22,22.347,0.7769,-0.4614,0.2379,0.3561
0,0.018,0.001,-0.7,-2,0.8,0,2018,5,11,13,22,22.367,0.7768,-0.4614,0.2378,0.3562
0,0.025,0.003,-0.9,-3.5,0.8,1023,2018,5,11,13,22,22.387,0.7767,-0.4616,0.2378,0.3563
0.003,0.019,-0.003,-0.6,-3.1,1.1,1023,2018,5,11,13,22,22.405,0.7764,-0.4621,0.2377,0.3563
0.008,0.014,-0.003,-0.2,-1.3,1.3,1023,2018,5,11,13,22,22.424,0.7763,-0.4623,0.2376,0.3565
0.012,0.02,-0.007,0.1,0.2,1.6,1023,2018,5,11,13,22,22.462,0.7763,-0.4624,0.2376,0.3564
0.003,0.025,0.001,0.6,-0.1,1.5,1023,2018,5,11,13,22,22.483,0.7764,-0.4623,0.2375,0.3563
0.006,0.023,0.003,0.5,-1,1.4,1023,2018,5,11,13,22,22.487,0.7765,-0.4622,0.2373,0.3564
0.006,0.017,0.002,0.5,-0.8,1.4,1023,2018,5,11,13,22,22.526,0.7764,-0.4623,0.2372,0.3563
0.01,0.019,-0.003,1,-0.5,1.1,1023,2018,5,11,13,22,22.547,0.7765,-0.4623,0.2371,0.3563
0.014,0.016,-0.004,1.1,-0.7,1,1023,2018,5,11,13,22,22.551,0.7765,-0.4622,0.2369,0.3565
0.012,0.024,0,1.1,-0.8,1.1,1023,2018,5,11,13,22,22.568,0.7765,-0.4621,0.2367,0.3567
0.01,0.022,0.004,0.9,-0.6,1,1023,2018,5,11,13,22,22.591,0.7766,-0.462,0.2365,0.3569
0.005,0.018,0.005,0.9,-0.8,1,1023,2018,5,11,13,22,22.627,0.7766,-0.4618,0.2363,0.3571
0,0.011,-0.001,0.8,-1.2,1,1023,2018,5,11,13,22,22.648,0.7766,-0.4619,0.2362,0.3572
-0.001,0.02,0.005,0.6,-1.3,0.7,0,2018,5,11,13,22,22.652,0.7766,-0.4619,0.2359,0.3573
0.001,0.02,-0.005,0.1,-1.9,1,0,2018,5,11,13,22,22.668,0.7765,-0.4621,0.2358,0.3573
0.008,0.02,-0.002,-0.2,-2.3,1.6,0,2018,5,11,13,22,22.707,0.7764,-0.4622,0.2355,0.3575
0.002,0.019,0.004,-0.4,-2.1,2,0,2018,5,11,13,22,22.727,0.7764,-0.4625,0.2353,0.3575
0.001,0.014,0.006,-0.6,-1.7,1.8,0,2018,5,11,13,22,22.731,0.7763,-0.4626,0.2351,0.3575
0.004,0.008,0.007,-0.9,-1.8,1.4,0,2018,5,11,13,22,22.749,0.7763,-0.4628,0.2349,0.3575
0.009,0.011,0.007,-1,-2,1.2,0,2018,5,11,13,22,22.784,0.7762,-0.463,0.2347,0.3575
0.013,0.013,0,-0.8,-2.4,1,0,2018,5,11,13,22,22.805,0.776,-0.4634,0.2349,0.3573
0.008,0.015,0.005,0.2,-0.4,0.8,0,2018,5,11,13,22,22.812,0.7759,-0.4636,0.2348,0.3574
0.004,0.014,0.005,0.4,0.9,0.8,0,2018,5,11,13,22,22.85,0.7761,-0.4633,0.2347,0.3575
0.003,0.026,0.002,0.2,0.2,1.1,0,2018,5,11,13,22,22.854,0.7762,-0.4631,0.2347,0.3575
0,0.021,0.003,-0.3,-1.5,1.3,0,2018,5,11,13,22,22.87,0.7762,-0.4633,0.2348,0.3573
0.007,0.014,-0.003,-0.4,-1.7,1.4,0,2018,5,11,13,22,22.905,0.776,-0.4635,0.2347,0.3572
0.014,0.006,-0.003,0,-0.6,1.3,0,2018,5,11,13,22,22.924,0.7759,-0.4639,0.2348,0.357
0.008,0.014,0,0.5,0.4,1.1,0,2018,5,11,13,22,22.937,0.776,-0.4639,0.2348,0.357
0.007,0.017,-0.002,0.7,1.1,1.1,0,2018,5,11,13,22,22.947,0.7761,-0.4637,0.2348,0.3569
0,0.027,0.009,0.4,-0.6,1.1,0,2018,5,11,13,22,22.987,0.7761,-0.4636,0.2348,0.3569
0.005,0.024,0.001,0.1,-1.5,1.4,0,2018,5,11,13,22,23.007,0.7761,-0.4636,0.2347,0.357
0.012,0.012,-0.003,0.3,-1.2,1.1,0,2018,5,11,13,22,23.012,0.7761,-0.4637,0.2345,0.3571
0.013,0.009,-0.009,0.9,0,1.3,0,2018,5,11,13,22,23.051,0.7761,-0.4638,0.2344,0.3571
0.008,0.014,0,1.3,0.7,1.2,0,2018,5,11,13,22,23.071,0.7762,-0.4636,0.2342,0.3572
-0.002,0.025,0.009,0.6,0.1,0.8,0,2018,5,11,13,22,23.075,0.7763,-0.4634,0.2342,0.3571
0.002,0.019,-0.003,-0.7,-1.5,0.6,0,2018,5,11,13,22,23.089,0.7763,-0.4634,0.2343,0.3572
0.01,0.018,0,-0.9,-1.6,0.9,0,2018,5,11,13,22,23.125,0.776,-0.4638,0.2345,0.3571
0.01,0.017,-0.007,-0.7,0,0.6,0,2018,5,11,13,22,23.145,0.7759,-0.464,0.2347,0.357
0.009,0.028,-0.006,0.1,0,0.7,0,2018,5,11,13,22,23.152,0.7759,-0.4638,0.2347,0.3572
0,0.027,-0.001,-0.1,-1.3,1.2,0,2018,5,11,13,22,23.172,0.7758,-0.4639,0.2347,0.3572
-0.003,0.026,0,-0.3,-2,1.8,0,2018,5,11,13,22,23.19,0.7758,-0.4641,0.2347,0.3571
0,0.024,0.004,-0.7,-2.1,2.1,0,2018,5,11,13,22,23.229,0.7757,-0.4643,0.2346,0.3571
0.009,0.011,0.003,-0.9,-2.5,2.2,0,2018,5,11,13,22,23.248,0.7756,-0.4647,0.2345,0.3568
0.015,0.012,-0.001,-0.2,-2.9,2.1,0,2018,5,11,13,22,23.254,0.7754,-0.4653,0.2345,0.3565
0.018,0.013,-0.007,0.4,-2.1,1.6,0,2018,5,11,13,22,23.27,0.7752,-0.4657,0.2343,0.3565
0.011,0.013,0,0.7,-0.6,1.3,0,2018,5,11,13,22,23.29,0.7752,-0.4658,0.2342,0.3565
0.011,0.012,0.004,0.4,-0.4,1.1,0,2018,5,11,13,22,23.311,0.7752,-0.4659,0.2342,0.3564
0.013,0.018,0.001,-0.1,-1.3,0.8,0,2018,5,11,13,22,23.33,0.7751,-0.4659,0.2342,0.3564
0.011,0.014,0.001,-0.3,-1.3,1,0,2018,5,11,13,22,23.352,0.775,-0.4662,0.2343,0.3563
0.006,0.017,0.002,0,-1,0.9,0,2018,5,11,13,22,23.39,0.7749,-0.4664,0.2344,0.3563
0,0.015,0.002,0.4,0,1.1,0,2018,5,11,13,22,23.411,0.7749,-0.4663,0.2343,0.3563
0,0.011,0.002,0.4,-0.1,1.3,0,2018,5,11,13,22,23.415,0.775,-0.4662,0.2342,0.3563
-0.002,0.021,0,0.6,0,1.4,0,2018,5,11,13,22,23.432,0.7751,-0.4663,0.2342,0.3561
0.003,0.03,0.003,0.6,-0.4,1.8,1023,2018,5,11,13,22,23.454,0.7752,-0.4661,0.234,0.3562
0.002,0.018,0.004,0.2,-1.8,2.1,1023,2018,5,11,13,22,23.474,0.7752,-0.4662,0.2339,0.3562
0.008,0.021,-0.006,-0.2,-1.1,2.4,1023,2018,5,11,13,22,23.512,0.7752,-0.4664,0.2338,0.356
0.014,0.014,0.004,-0.6,-1,2.3,1023,2018,5,11,13,22,23.516,0.7752,-0.4665,0.2337,0.3558
0.017,0.021,-0.005,-0.4,-0.6,2.2,1023,2018,5,11,13,22,23.533,0.7752,-0.4667,0.2337,0.3556
0.013,0.017,0,-0.1,-0.6,2,1023,2018,5,11,13,22,23.552,0.7752,-0.4669,0.2338,0.3554
0.014,0.022,-0.002,0.3,-0.6,1.7,1023,2018,5,11,13,22,23.572,0.7752,-0.467,0.2338,0.3552
0.013,0.018,0.006,0.6,-0.4,1.3,1023,2018,5,11,13,22,23.612,0.7751,-0.4672,0.2339,0.3551
0.014,0.012,-0.003,0.6,-1,1,1023,2018,5,11,13,22,23.633,0.7751,-0.4671,0.2337,0.3553
0.009,0.018,0.006,0.9,-1.3,1.2,1023,2018,5,11,13,22,23.637,0.7752,-0.467,0.2335,0.3554
0.011,0.018,0.002,0.9,-0.4,1,1023,2018,5,11,13,22,23.655,0.7752,-0.467,0.2332,0.3556
0.007,0.011,-0.007,0.9,-0.1,0.6,1023,2018,5,11,13,22,23.675,0.7752,-0.4669,0.2331,0.3557
0.01,0.019,0,0.8,-0.2,0.6,1023,2018,5,11,13,22,23.697,0.7752,-0.4669,0.2331,0.3558
0.008,0.024,0.009,0.6,-1,0.2,1023,2018,5,11,13,22,23.735,0.7752,-0.4669,0.2331,0.3558
0.006,0.025,0.001,0.4,-1.6,0.3,0,2018,5,11,13,22,23.755,0.7751,-0.4669,0.2331,0.356
0.012,0.015,0.006,0.1,-1.5,0.6,0,2018,5,11,13,22,23.759,0.7749,-0.467,0.2331,0.3561
0.009,0.015,-0.004,0.6,-0.6,0.8,0,2018,5,11,13,22,23.776,0.7748,-0.4671,0.2331,0.3562
0.001,0.018,-0.004,0.9,-0.4,0.9,0,2018,5,11,13,22,23.796,0.7748,-0.4672,0.2331,0.3562
-0.006,0.02,0,1.2,-0.9,0.7,0,2018,5,11,13,22,23.815,0.7748,-0.4673,0.233,0.3561
0,0.019,0.01,0.4,-1.7,1,0,2018,5,11,13,22,23.853,0.7749,-0.4672,0.2327,0.3564
0.011,0.015,-0.004,-0.1,-2.3,1.2,0,2018,5,11,13,22,23.873,0.7748,-0.4674,0.2326,0.3564
0.009,0.015,0,0.2,-1.3,1.5,0,2018,5,11,13,22,23.878,0.7746,-0.4677,0.2325,0.3564
0.006,0.014,0,0.9,-0.3,1.1,0,2018,5,11,13,22,23.897,0.7746,-0.4677,0.2323,0.3564
0.002,0.021,0.009,0.4,-1,0.8,0,2018,5,11,13,22,23.917,0.7747,-0.4677,0.2322,0.3565
0.011,0.012,0.003,-0.1,-2.9,0.7,0,2018,5,11,13,22,23.955,0.7746,-0.4678,0.232,0.3566
0.017,0.011,0.001,-0.6,-2.3,0.7,0,2018,5,11,13,22,23.975,0.7744,-0.468,0.2318,0.3568
0.014,0.007,0,0,-0.6,0.4,0,2018,5,11,13,22,23.979,0.7743,-0.4682,0.2319,0.3568
0.013,0.017,-0.002,0.8,0.4,0.1,0,2018,5,11,13,22,23.999,0.7742,-0.4681,0.2319,0.357
0.007,0.025,0.009,0.8,-0.1,0.3,0,2018,5,11,13,22,24.02,0.7743,-0.4679,0.232,0.3571
0.007,0.023,0.001,0.6,-1.7,0.2,0,2018,5,11,13,22,24.036,0.7742,-0.4679,0.232,0.3572
0.009,0.019,0.005,0.6,-1.6,0.3,0,2018,5,11,13,22,24.057,0.7741,-0.4681,0.232,0.3573
0.002,0.014,0,0.6,-0.4,0.4,0,2018,5,11,13,22,24.076,0.7739,-0.4683,0.2321,0.3573
0.009,0.016,-0.002,0.5,0.1,0.7,0,2018,5,11,13,22,24.114,0.7739,-0.4683,0.2322,0.3573
0.006,0.021,0,0.6,-0.4,0.8,0,2018,5,11,13,22,24.135,0.774,-0.4681,0.232,0.3575
0.005,0.02,0.002,1,-0.7,0.9,0,2018,5,11,13,22,24.139,0.774,-0.4682,0.232,0.3575
-0.002,0.02,0.001,0.7,-0.2,0.8,0,2018,5,11,13,22,24.157,0.7741,-0.468,0.2317,0.3577
-0.001,0.018,0.005,0.3,-0.7,0.8,0,2018,5,11,13,22,24.18,0.7741,-0.468,0.2317,0.3577
0.007,0.019,0.001,-0.1,-1,1.3,0,2018,5,11,13,22,24.199,0.7741,-0.468,0.2316,0.3578
0.009,0.019,-0.002,-0.1,-0.7,1.2,0,2018,5,11,13,22,24.219,0.7741,-0.4679,0.2315,0.3579
0.008,0.023,-0.002,0.3,-0.4,1.1,0,2018,5,11,13,22,24.237,0.774,-0.4681,0.2316,0.3577
0.003,0.02,-0.001,0.9,-1,1.1,0,2018,5,11,13,22,24.257,0.774,-0.4681,0.2315,0.3578
0.001,0.015,0.009,0.9,-1.3,1.4,0,2018,5,11,13,22,24.295,0.774,-0.4681,0.2313,0.3578
0.007,0.014,0.003,0.6,-1.5,1.4,0,2018,5,11,13,22,24.315,0.774,-0.4682,0.2311,0.3578
0.003,0.013,-0.006,0.8,-1.4,1.3,0,2018,5,11,13,22,24.32,0.774,-0.4684,0.2308,0.3579
0.012,0.018,-0.011,1.5,-0.2,1.4,0,2018,5,11,13,22,24.358,0.774,-0.4685,0.2306,0.3579
0.008,0.021,0.011,1.4,0.1,1.6,0,2018,5,11,13,22,24.379,0.7741,-0.4684,0.2305,0.3579
0.01,0.022,0.005,0.9,-0.5,1.7,0,2018,5,11,13,22,24.383,0.7743,-0.4681,0.2302,0.358
0.01,0.022,0.007,0.3,-1.2,1.4,0,2018,5,11,13,22,24.399,0.7743,-0.4681,0.2301,0.358
0.006,0.009,0.007,-0.3,-1.9,1,0,2018,5,11,13,22,24.438,0.7743,-0.4682,0.23,0.3581
0.01,0.006,0.002,-0.3,-0.7,0.8,0,2018,5,11,13,22,24.443,0.7742,-0.4684,0.23,0.358
0.012,0.012,0.01,0,0,0,0,2018,5,11,13,22,24.459,0.7741,-0.4684,0.23,0.3581
0.011,0.015,-0.003,0,0,0,0,2018,5,11,13,22,24.478,0.7741,-0.4685,0.2302,0.358
0.003,0.021,0.002,0.2,-0.2,0.5,0,2018,5,11,13,22,24.497,0.774,-0.4685,0.2304,0.3581
0,0.024,-0.005,0.6,-0.2,1,0,2018,5,11,13,22,24.536,0.7741,-0.4683,0.2302,0.3582
0.004,0.017,0.002,1,-0.2,1.2,0,2018,5,11,13,22,24.556,0.7741,-0.4683,0.2302,0.3582
0.006,0.017,0.003,1.3,0,1.3,0,2018,5,11,13,22,24.56,0.7742,-0.4682,0.2301,0.3582
0.002,0.016,0.003,0.9,-0.2,0.9,0,2018,5,11,13,22,24.582,0.7743,-0.4681,0.2299,0.3583
0.007,0.024,-0.002,0.9,-0.6,0.6,1023,2018,5,11,13,22,24.62,0.7742,-0.4681,0.2298,0.3584
0.011,0.02,0,0.5,-1.3,1.1,1023,2018,5,11,13,22,24.64,0.7742,-0.468,0.2297,0.3586
0.014,0.023,-0.002,0.3,-1,1.6,1023,2018,5,11,13,22,24.644,0.7742,-0.4682,0.2297,0.3585
0.013,0.021,0.001,0.7,-0.7,1.2,1023,2018,5,11,13,22,24.664,0.7742,-0.4681,0.2295,0.3586
0.012,0.015,0.002,0.9,0.1,0.9,1023,2018,5,11,13,22,24.682,0.7742,-0.4682,0.2295,0.3586
0.007,0.013,0,0.9,-0.4,0.3,1023,2018,5,11,13,22,24.701,0.7742,-0.4681,0.2294,0.3587
0.004,0.014,0.006,0.9,-0.9,0,1023,2018,5,11,13,22,24.72,0.7742,-0.4679,0.2292,0.359
0.001,0.014,0.006,0.6,-0.6,0,1023,2018,5,11,13,22,24.758,0.7742,-0.4679,0.2291,0.3592
0.004,0.018,-0.004,0.3,-0.6,0.2,1023,2018,5,11,13,22,24.778,0.7742,-0.4678,0.2291,0.3594
0.002,0.023,0.001,0.6,-0.7,0.4,1023,2018,5,11,13,22,24.782,0.774,-0.4679,0.2293,0.3593
0.007,0.023,0.004,0.4,-1.5,0.7,1023,2018,5,11,13,22,24.802,0.774,-0.468,0.2293,0.3594
0.003,0.015,0.001,0.3,-1.2,1,1023,2018,5,11,13,22,24.822,0.7739,-0.4681,0.2292,0.3594
0.005,0.016,-0.002,0.5,-0.4,0.8,1023,2018,5,11,13,22,24.858,0.7738,-0.4683,0.2292,0.3593
0.007,0.019,-0.005,0,-0.9,0.7,1023,2018,5,11,13,22,24.878,0.7739,-0.4682,0.2291,0.3594
0.006,0.02,0,0.1,0,1.1,0,2018,5,11,13,22,24.883,0.7738,-0.4683,0.2291,0.3594
0.003,0.021,0.004,0.1,-0.2,1.3,0,2018,5,11,13,22,24.92,0.7739,-0.4682,0.229,0.3595
0.006,0.021,0.005,0.1,-0.6,1.1,0,2018,5,11,13,22,24.942,0.774,-0.468,0.2289,0.3596
0.007,0.016,0.008,0.2,-0.8,0.9,0,2018,5,11,13,22,24.946,0.7741,-0.4679,0.2287,0.3597
0.013,0.015,0.007,0.4,-0.7,0.6,0,2018,5,11,13,22,24.963,0.774,-0.4679,0.2287,0.3598
0.01,0.022,0.001,0.7,-0.4,0.5,0,2018,5,11,13,22,24.999,0.774,-0.4679,0.2287,0.3598
0.008,0.017,0.003,0.6,-0.1,0.8,0,2018,5,11,13,22,25.021,0.7739,-0.4681,0.2289,0.3597
0.009,0.018,0.001,0.4,-0.2,1.1,0,2018,5,11,13,22,25.026,0.774,-0.4679,0.2288,0.3598
0.007,0.013,0.001,0.5,-0.6,0.8,0,2018,5,11,13,22,25.044,0.774,-0.4678,0.2286,0.3599
0.012,0.014,0.005,0,0,0,0,2018,5,11,13,22,25.083,0.7741,-0.4677,0.2285,0.3601
0.015,0.018,0.001,0,0,0,0,2018,5,11,13,22,25.102,0.774,-0.4677,0.2286,0.3602
0.011,0.015,-0.001,0,0,0,0,2018,5,11,13,22,25.106,0.774,-0.4676,0.2287,0.3603
0.007,0.026,0.005,0.4,0.6,0.2,0,2018,5,11,13,22,25.124,0.774,-0.4674,0.2289,0.3604
0.005,0.015,-0.001,0,0,0,0,2018,5,11,13,22,25.145,0.7739,-0.4673,0.2291,0.3605
0.001,0.017,-0.007,0.8,-0.3,0.7,0,2018,5,11,13,22,25.179,0.774,-0.4672,0.229,0.3606
0,0.019,0,0.6,-0.2,0.4,0,2018,5,11,13,22,25.199,0.7739,-0.4673,0.229,0.3606
0.008,0.016,-0.001,0,0,0,0,2018,5,11,13,22,25.204,0.7739,-0.4672,0.229,0.3607
0.008,0.02,-0.003,0,-0.7,0.5,0,2018,5,11,13,22,25.224,0.7739,-0.4672,0.2291,0.3608
0.008,0.022,-0.002,0.3,-0.5,0.8,0,2018,5,11,13,22,25.244,0.7738,-0.4672,0.2292,0.3608
0.006,0.022,0.002,0.4,0.1,1,0,2018,5,11,13,22,25.264,0.7739,-0.467,0.2291,0.361
0.005,0.014,0.01,0.4,-0.4,1.3,0,2018,5,11,13,22,25.3,0.7739,-0.4671,0.2292,0.3608
0,0.009,0.003,0.1,-0.5,0.5,0,2018,5,11,13,22,25.321,0.774,-0.467,0.229,0.3609
0.009,0.015,0,0,0,0,0,2018,5,11,13,22,25.324,0.774,-0.4669,0.229,0.361
0.016,0.018,-0.001,0,0,0,0,2018,5,11,13,22,25.364,0.7739,-0.4669,0.2292,0.3611
0.014,0.029,0.003,0.3,-0.7,0.5,0,2018,5,11,13,22,25.384,0.7739,-0.4667,0.2293,0.3613
0.007,0.031,0.008,0.1,-0.2,0.7,0,2018,5,11,13,22,25.388,0.7738,-0.4667,0.2294,0.3613
0.006,0.019,0.002,0.1,-0.7,0.5,0,2018,5,11,13,22,25.406,0.7738,-0.4666,0.2295,0.3614
0.004,0.014,0.002,0.4,-1.1,0.8,0,2018,5,11,13,22,25.425,0.7738,-0.4667,0.2294,0.3615
0.001,0.012,0.003,0.5,-0.9,0.5,0,2018,5,11,13,22,25.462,0.7737,-0.4668,0.2294,0.3615
-0.003,0.02,0.003,0.3,-0.7,0.5,0,2018,5,11,13,22,25.482,0.7737,-0.4668,0.2293,0.3615
0.01,0.01,-0.001,0.2,-0.9,1.3,0,2018,5,11,13,22,25.486,0.7736,-0.4669,0.2292,0.3616
0.014,0.016,-0.002,0,-1.3,1.8,0,2018,5,11,13,22,25.525,0.7735,-0.4671,0.2293,0.3615
0.013,0.016,0.002,0.3,-0.6,1.5,0,2018,5,11,13,22,25.544,0.7735,-0.4672,0.2293,0.3614
0.01,0.017,0.004,0.3,-0.1,0.8,0,2018,5,11,13,22,25.549,0.7736,-0.467,0.2292,0.3615
0.014,0.019,0.004,-0.2,0,0.5,0,2018,5,11,13,22,25.587,0.7737,-0.4668,0.2291,0.3617
0.009,0.015,0.002,-0.7,-1.1,0.5,0,2018,5,11,13,22,25.591,0.7736,-0.4668,0.2293,0.3617
0.009,0.018,0,-0.8,-1,0.6,0,2018,5,11,13,22,25.608,0.7735,-0.4669,0.2293,0.3617
0.002,0.009,0,-0.1,0.1,0.6,1023,2018,5,11,13,22,25.626,0.7734,-0.4671,0.2295,0.3616
0.005,0.023,-0.001,0.1,0.5,0.8,1023,2018,5,11,13,22,25.662,0.7735,-0.467,0.2297,0.3616
0,0.028,0.006,0,-0.6,1.2,1023,2018,5,11,13,22,25.682,0.7735,-0.4669,0.2297,0.3616
0.002,0.02,-0.005,-0.1,-1.2,1.5,1023,2018,5,11,13,22,25.686,0.7735,-0.467,0.2296,0.3616
0.002,0.026,0.003,0,-1.5,1.4,1023,2018,5,11,13,22,25.727,0.7734,-0.4672,0.2297,0.3615
0.005,0.017,-0.001,0,-1.7,1.4,1023,2018,5,11,13,22,25.746,0.7734,-0.4673,0.2295,0.3615
0.011,0.015,0.003,0.1,-1.5,1.2,1023,2018,5,11,13,22,25.75,0.7732,-0.4676,0.2295,0.3614
0.012,0.01,-0.004,0.2,-1,1,1023,2018,5,11,13,22,25.768,0.7731,-0.4679,0.2296,0.3612
0.017,0.015,-0.004,0.5,-0.4,0.7,1023,2018,5,11,13,22,25.789,0.773,-0.4679,0.2296,0.3613
0.012,0.027,0.005,0.7,-0.8,0.5,1023,2018,5,11,13,22,25.825,0.773,-0.4679,0.2296,0.3615
0.011,0.026,0.005,0.8,-0.7,0.5,1023,2018,5,11,13,22,25.845,0.773,-0.4678,0.2295,0.3616
0.009,0.019,0.007,0.4,-1.2,0.6,1023,2018,5,11,13,22,25.849,0.7729,-0.4678,0.2296,0.3617
0.005,0.008,-0.002,0.3,-0.9,0.7,0,2018,5,11,13,22,25.888,0.7728,-0.4681,0.2297,0.3616
0.003,0.009,-0.003,0.3,-0.6,0.3,0,2018,5,11,13,22,25.892,0.7727,-0.4683,0.2297,0.3616
0.004,0.007,0.001,0,-0.6,0.3,0,2018,5,11,13,22,25.91,0.7727,-0.4683,0.2296,0.3617
0.001,0.021,0.003,-0.2,-1,0.1,0,2018,5,11,13,22,25.927,0.7726,-0.4682,0.2295,0.3618
-0.002,0.022,-0.001,-0.1,-0.5,0.1,0,2018,5,11,13,22,25.947,0.7726,-0.4683,0.2296,0.3619
0.007,0.017,0.002,-0.1,-0.2,0.5,0,2018,5,11,13,22,25.984,0.7726,-0.4681,0.2296,0.3621
0.005,0.023,0,0,-0.6,1.2,0,2018,5,11,13,22,26.006,0.7727,-0.4678,0.2294,0.3623
0.004,0.016,0.006,0,-0.9,1,0,2018,5,11,13,22,26.011,0.7727,-0.4678,0.2294,0.3624
0.004,0.023,0,-0.4,-0.7,1,0,2018,5,11,13,22,26.029,0.7726,-0.468,0.2295,0.3622
0.005,0.016,-0.002,-0.2,-0.7,0.9,0,2018,5,11,13,22,26.05,0.7726,-0.4681,0.2295,0.3622
0.006,0.013,0.002,0,-0.6,1.1,0,2018,5,11,13,22,26.072,0.7725,-0.4682,0.2296,0.3621
0.007,0.021,-0.002,0.3,0,1,0,2018,5,11,13,22,26.112,0.7726,-0.4682,0.2296,0.3621
0.007,0.02,0.001,0.3,0.1,1,0,2018,5,11,13,22,26.116,0.7726,-0.4682,0.2297,0.3619
0,0.021,0.006,0.1,-0.9,1.1,0,2018,5,11,13,22,26.131,0.7726,-0.4682,0.2297,0.3619
0.009,0.015,0.002,-0.1,-1.4,1.2,0,2018,5,11,13,22,26.15,0.7726,-0.4683,0.2296,0.3619
0.009,0.014,0.002,0,-1.3,1.4,0,2018,5,11,13,22,26.169,0.7725,-0.4685,0.2295,0.3619
0.011,0.012,-0.003,0.1,-0.9,1.2,0,2018,5,11,13,22,26.189,0.7723,-0.4688,0.2296,0.3616
0.005,0.017,0.003,0.4,-0.1,0.9,0,2018,5,11,13,22,26.229,0.7724,-0.4688,0.2296,0.3616
0.01,0.016,0.008,0.6,-0.3,0.7,0,2018,5,11,13,22,26.248,0.7724,-0.4688,0.2295,0.3616
0.006,0.021,0,0.4,-0.5,0.9,0,2018,5,11,13,22,26.252,0.7724,-0.4688,0.2296,0.3616
0.01,0.014,0.004,0.4,-0.2,0.7,0,2018,5,11,13,22,26.271,0.7723,-0.4689,0.2297,0.3615
0.005,0.019,0.008,0.3,-0.4,0.9,0,2018,5,11,13,22,26.294,0.7724,-0.4688,0.2297,0.3616
0.01,0.017,0.001,0,-0.9,0.7,0,2018,5,11,13,22,26.31,0.7724,-0.4686,0.2294,0.3619
0.005,0.012,-0.001,0,0,0,0,2018,5,11,13,22,26.347,0.7724,-0.4685,0.2294,0.362
0.002,0.017,-0.001,0,0,0,0,2018,5,11,13,22,26.366,0.7724,-0.4685,0.2295,0.3621
0.005,0.019,-0.003,0.6,0,0.7,0,2018,5,11,13,22,26.37,0.7724,-0.4684,0.2295,0.3621
-0.002,0.029,0,0.4,-0.3,1,0,2018,5,11,13,22,26.407,0.7725,-0.4682,0.2294,0.3623
0.001,0.024,0.003,0.1,-1.3,1.1,0,2018,5,11,13,22,26.428,0.7725,-0.4682,0.2294,0.3623
0.008,0.018,0.005,-0.1,-2,1.2,0,2018,5,11,13,22,26.433,0.7724,-0.4684,0.2293,0.3623
0.01,0.015,-0.007,0.1,-1.2,1.1,0,2018,5,11,13,22,26.452,0.7722,-0.4687,0.2294,0.3622
0.007,0.011,0.002,0.3,-0.3,1.2,0,2018,5,11,13,22,26.492,0.7722,-0.4687,0.2292,0.3622
0.004,0.014,0.003,0.4,-0.4,1.8,0,2018,5,11,13,22,26.513,0.7723,-0.4688,0.2291,0.3621
0.009,0.021,0.003,0.8,-0.7,1.8,0,2018,5,11,13,22,26.517,0.7724,-0.4686,0.2289,0.3622
0.011,0.025,0.011,0.8,-1.3,1.1,1023,2018,5,11,13,22,26.531,0.7725,-0.4686,0.2288,0.3622
0.011,0.01,0.002,0.6,-1.1,1,1023,2018,5,11,13,22,26.55,0.7723,-0.4689,0.2288,0.3621
0.009,0.003,-0.006,0.6,0.3,0.8,1023,2018,5,11,13,22,26.57,0.7724,-0.4688,0.2287,0.3622
0.009,0.017,0.002,0.4,0.4,0.5,1023,2018,5,11,13,22,26.606,0.7725,-0.4686,0.2287,0.3622
0.004,0.021,0,0,-0.6,0.5,1023,2018,5,11,13,22,26.625,0.7725,-0.4685,0.2288,0.3623
0.001,0.02,-0.002,-0.4,-1.2,0.6,1023,2018,5,11,13,22,26.632,0.7724,-0.4686,0.2288,0.3623
0.003,0.014,0.006,-0.6,-0.6,1,1023,2018,5,11,13,22,26.671,0.7724,-0.4687,0.2289,0.3622
0.004,0.02,0.003,-0.1,-0.2,1,1023,2018,5,11,13,22,26.691,0.7724,-0.4686,0.2289,0.3622
0.007,0.02,-0.002,0.3,-0.7,1,1023,2018,5,11,13,22,26.695,0.7724,-0.4686,0.2288,0.3623
0.005,0.022,-0.004,0.8,-0.6,1.5,1023,2018,5,11,13,22,26.715,0.7724,-0.4687,0.2288,0.3622
0.011,0.023,0.002,0.9,0,1.5,1023,2018,5,11,13,22,26.735,0.7724,-0.4687,0.2288,0.3622
0.007,0.021,-0.003,0.6,0.2,1.7,1023,2018,5,11,13,22,26.754,0.7726,-0.4685,0.2287,0.3622
0.005,0.024,-0.002,0.6,-0.7,1.7,0,2018,5,11,13,22,26.793,0.7727,-0.4683,0.2285,0.3622
0.007,0.021,0.005,0.4,-1,1.5,0,2018,5,11,13,22,26.813,0.7727,-0.4684,0.2283,0.3622
0.008,0.019,0,0,-1.2,1.3,0,2018,5,11,13,22,26.817,0.7726,-0.4686,0.2284,0.3621
0.01,0.013,0,0.3,-0.6,1,0,2018,5,11,13,22,26.834,0.7726,-0.4687,0.2284,0.3621
0.012,0.019,0,0.6,-0.4,0.7,0,2018,5,11,13,22,26.853,0.7727,-0.4685,0.2282,0.3623
0.006,0.018,0.002,0.6,-1,0.8,0,2018,5,11,13,22,26.875,0.7725,-0.4687,0.2283,0.3622
0.007,0.018,-0.003,0.8,-0.8,1,0,2018,5,11,13,22,26.895,0.7725,-0.4688,0.2282,0.3623
0,0.017,0.001,0.6,-0.4,1,0,2018,5,11,13,22,26.915,0.7724,-0.469,0.2283,0.3621
0,0.017,0.004,0.1,-0.2,1.3,0,2018,5,11,13,22,26.953,0.7725,-0.469,0.2282,0.362
0,0.019,0.003,-0.2,-1.5,1.1,0,2018,5,11,13,22,26.973,0.7725,-0.469,0.2281,0.362
0.009,0.02,0,-0.5,-2.4,1.4,0,2018,5,11,13,22,26.977,0.7724,-0.4692,0.228,0.362
0.008,0.016,-0.005,0,-1.2,1.6,0,2018,5,11,13,22,26.996,0.7723,-0.4694,0.2279,0.362
0.007,0.016,0.003,0.6,0.3,1.5,0,2018,5,11,13,22,27.017,0.7724,-0.4694,0.2278,0.362
0.011,0.024,0.004,0.4,0.1,1.5,0,2018,5,11,13,22,27.033,0.7725,-0.4693,0.2278,0.3619
0.006,0.02,0.005,-0.1,-1,1.3,0,2018,5,11,13,22,27.054,0.7725,-0.4692,0.2277,0.3619
0,0.024,0.007,-0.4,-1.5,1.5,0,2018,5,11,13,22,27.075,0.7725,-0.4694,0.2277,0.3618
0.002,0.021,0,-0.3,-1.2,1.7,0,2018,5,11,13,22,27.095,0.7725,-0.4694,0.2275,0.3619
0.001,0.017,0,0,-0.9,1.7,0,2018,5,11,13,22,27.134,0.7725,-0.4696,0.2275,0.3617
0.01,0.017,-0.002,0,-0.8,1.7,0,2018,5,11,13,22,27.153,0.7725,-0.4696,0.2273,0.3617
0.013,0.02,0.005,0.1,-1.1,1.4,0,2018,5,11,13,22,27.157,0.7725,-0.4698,0.2273,0.3615
0.01,0.017,0.001,0.2,-0.9,1.1,0,2018,5,11,13,22,27.178,0.7724,-0.47,0.2274,0.3614
0.008,0.02,-0.003,0.4,-0.9,1.4,0,2018,5,11,13,22,27.199,0.7724,-0.4701,0.2273,0.3614
0.004,0.018,-0.004,0.5,-0.9,1.8,0,2018,5,11,13,22,27.238,0.7724,-0.4701,0.2271,0.3614
0.005,0.014,-0.001,0.3,-1,2.1,0,2018,5,11,13,22,27.257,0.7724,-0.4702,0.227,0.3613
0.006,0.008,0.001,0,-0.7,1.5,0,2018,5,11,13,22,27.261,0.7725,-0.4703,0.2268,0.3612
0.008,0.012,-0.001,-0.5,-0.7,1,0,2018,5,11,13,22,27.275,0.7725,-0.4704,0.2268,0.3612
0.009,0.024,0,-0.2,-0.8,1.1,0,2018,5,11,13,22,27.315,0.7724,-0.4705,0.2269,0.361
0.008,0.024,0,-0.1,-1.2,1.2,0,2018,5,11,13,22,27.335,0.7724,-0.4705,0.2269,0.3611
0.008,0.019,-0.004,0.4,-1.8,1.9,0,2018,5,11,13,22,27.339,0.7722,-0.4708,0.227,0.361
0.001,0.014,0.001,1.1,-0.6,1.8,0,2018,5,11,13,22,27.376,0.7722,-0.4711,0.2269,0.3608
0.001,0.011,-0.001,1.2,-0.4,1.9,0,2018,5,11,13,22,27.395,0.7723,-0.4712,0.2267,0.3605
0,0.019,0.006,0.8,-1.2,1.9,0,2018,5,11,13,22,27.4,0.7724,-0.4712,0.2264,0.3605
0.007,0.017,0.007,0.1,-1.9,2.1,0,2018,5,11,13,22,27.419,0.7724,-0.4713,0.2261,0.3605
0.016,0.018,0.007,-0.2,-2,2.1,0,2018,5,11,13,22,27.439,0.7725,-0.4713,0.2257,0.3606
0.02,0.014,0.001,-0.4,-1.6,1.7,0,2018,5,11,13,22,27.456,0.7724,-0.4714,0.2255,0.3606
0.014,0.005,0,-0.4,-0.2,1.3,0,2018,5,11,13,22,27.494,0.7724,-0.4716,0.2255,0.3605
0.003,0.011,0.003,0,0.6,0.7,1023,2018,5,11,13,22,27.513,0.7724,-0.4716,0.2256,0.3604
0,0.021,0.006,0,0.6,0.3,1023,2018,5,11,13,22,27.517,0.7725,-0.4715,0.2258,0.3602
0.006,0.028,0.005,-0.5,-0.9,0.7,1023,2018,5,11,13,22,27.538,0.7725,-0.4714,0.2259,0.3603
0.01,0.028,0.006,-0.7,-1.7,1.3,1023,2018,5,11,13,22,27.558,0.7724,-0.4714,0.2259,0.3604
0.007,0.017,-0.003,0,-0.6,1.4,1023,2018,5,11,13,22,27.599,0.7724,-0.4716,0.2259,0.3603
0.005,0.016,-0.005,0.4,0,1.7,1023,2018,5,11,13,22,27.618,0.7724,-0.4717,0.2259,0.3602
0.006,0.013,-0.006,0.1,-0.5,1.9,1023,2018,5,11,13,22,27.622,0.7725,-0.4717,0.2258,0.36
0.01,0.019,-0.001,0.4,-0.5,1.6,1023,2018,5,11,13,22,27.641,0.7725,-0.4718,0.2257,0.3599
0.005,0.024,0.009,0.3,-0.3,1.4,1023,2018,5,11,13,22,27.676,0.7726,-0.4717,0.2256,0.36
0.004,0.025,0.004,0,-0.5,1.2,1023,2018,5,11,13,22,27.696,0.7727,-0.4715,0.2254,0.3601
0.01,0.024,0.005,-0.3,-1.6,1.3,1023,2018,5,11,13,22,27.7,0.7727,-0.4714,0.2254,0.3601
0.017,0.013,-0.006,0.3,-1.5,1.4,1023,2018,5,11,13,22,27.738,0.7726,-0.4717,0.2254,0.3601
0.019,0.015,-0.004,0.9,-0.4,0.9,1023,2018,5,11,13,22,27.758,0.7725,-0.4718,0.2254,0.3601
0.013,0.019,-0.001,1.5,0.6,0.5,0,2018,5,11,13,22,27.762,0.7726,-0.4716,0.2253,0.3601
0.009,0.024,0.001,1.4,-0.2,0.3,0,2018,5,11,13,22,27.781,0.7727,-0.4714,0.2253,0.3603
0.006,0.022,0.004,0.8,-0.6,0.1,0,2018,5,11,13,22,27.8,0.7726,-0.4714,0.2252,0.3604
0.002,0.016,0.005,0.1,-0.9,0.2,0,2018,5,11,13,22,27.837,0.7726,-0.4712,0.225,0.3607
0.001,0.024,0.001,0,-0.9,0.3,0,2018,5,11,13,22,27.858,0.7726,-0.4712,0.225,0.3609
0.012,0.014,-0.001,-0.2,-1.3,0.7,0,2018,5,11,13,22,27.862,0.7725,-0.4712,0.225,0.361
0.008,0.017,0,0,-1.1,0.9,0,2018,5,11,13,22,27.881,0.7724,-0.4714,0.2251,0.361
0,0.008,-0.003,-0.1,-0.2,0.9,0,2018,5,11,13,22,27.917,0.7724,-0.4714,0.2249,0.361
0.004,0.02,0.009,-0.2,0.3,0.7,0,2018,5,11,13,22,27.937,0.7725,-0.4712,0.2249,0.3611
0.005,0.022,0,-0.4,-0.8,0.5,0,2018,5,11,13,22,27.961,0.7725,-0.4712,0.2251,0.3611
0.007,0.025,0.002,-0.4,-1.6,0.8,0,2018,5,11,13,22,27.974,0.7724,-0.4713,0.2251,0.3612
0.01,0.018,-0.002,-0.1,-0.9,0.9,0,2018,5,11,13,22,27.978,0.7723,-0.4715,0.2252,0.3612
0.013,0.019,0.002,0.1,-0.3,1.1,0,2018,5,11,13,22,28.018,0.7723,-0.4714,0.2251,0.3612
0.006,0.018,0.001,0.1,-0.2,1,0,2018,5,11,13,22,28.038,0.7723,-0.4714,0.2251,0.3612
0.003,0.01,0.009,-0.1,-0.3,0.7,0,2018,5,11,13,22,28.039,0.7723,-0.4715,0.2252,0.361
0.009,0.018,0.003,-0.4,-0.6,0.5,0,2018,5,11,13,22,28.08,0.7722,-0.4716,0.2253,0.361
0.013,0.025,0.003,-0.5,-0.7,0.4,0,2018,5,11,13,22,28.099,0.7721,-0.4717,0.2255,0.3609
0.008,0.023,0.004,-0.1,-0.7,0.6,0,2018,5,11,13,22,28.104,0.7721,-0.4717,0.2256,0.3611
0.006,0.022,0,0.3,-0.6,0.7,0,2018,5,11,13,22,28.124,0.7721,-0.4716,0.2256,0.3612
0.005,0.017,0,0.6,-0.6,0.8,0,2018,5,11,13,22,28.164,0.7721,-0.4716,0.2255,0.3612
0.008,0.018,-0.005,0.9,-0.9,1.1,0,2018,5,11,13,22,28.183,0.772,-0.4717,0.2255,0.3612
0.01,0.014,0,0.7,-0.6,1.1,0,2018,5,11,13,22,28.187,0.7721,-0.4716,0.2253,0.3613
0.011,0.015,-0.001,0.3,-0.7,0.8,0,2018,5,11,13,22,28.202,0.772,-0.4717,0.2252,0.3613
0.006,0.02,-0.001,-0.1,-1.2,0.5,0,2018,5,11,13,22,28.239,0.772,-0.4718,0.2253,0.3614
0.005,0.014,0.002,0,-1,0.5,0,2018,5,11,13,22,28.259,0.7719,-0.4719,0.2253,0.3615
0.006,0.024,-0.002,0,0,0.7,0,2018,5,11,13,22,28.263,0.7718,-0.4719,0.2254,0.3614
0.005,0.03,0.001,-0.2,-0.2,1.1,0,2018,5,11,13,22,28.284,0.7718,-0.4719,0.2256,0.3613
0.005,0.024,-0.008,-0.1,-2.1,1.1,0,2018,5,11,13,22,28.304,0.7717,-0.472,0.2256,0.3614
0.005,0.014,-0.004,0.7,-1.6,1.2,0,2018,5,11,13,22,28.342,0.7716,-0.4722,0.2254,0.3615
0.002,0.019,0.002,1.4,-0.2,1.1,0,2018,5,11,13,22,28.361,0.7715,-0.4724,0.2254,0.3614
0,0.024,0.001,1.4,-0.6,1.3,0,2018,5,11,13,22,28.365,0.7717,-0.4723,0.2251,0.3614
0.009,0.017,0.003,0.9,-2.6,1.9,0,2018,5,11,13,22,28.387,0.7716,-0.4724,0.2249,0.3615
0.007,0.01,-0.003,0.9,-2.3,2.4,0,2018,5,11,13,22,28.406,0.7715,-0.4728,0.2246,0.3614
0.011,0.017,0.004,1.1,0,2,0,2018,5,11,13,22,28.422,0.7716,-0.4728,0.2243,0.3613
0.011,0.023,0.011,0.5,-0.6,1.3,0,2018,5,11,13,22,28.459,0.7718,-0.4725,0.2241,0.3615
0.009,0.019,0.009,-0.1,-2.1,1.3,0,2018,5,11,13,22,28.479,0.7718,-0.4725,0.2239,0.3615
0.007,0.011,0.003,-0.5,-2.2,1,0,2018,5,11,13,22,28.483,0.7717,-0.4727,0.2237,0.3616
0.009,0.013,-0.009,0,-0.2,0.7,0,2018,5,11,13,22,28.505,0.7716,-0.4729,0.2237,0.3617
0.006,0.018,0.001,0.5,0,0.8,0,2018,5,11,13,22,28.525,0.7717,-0.4727,0.2236,0.3618
0.012,0.025,0.004,0.8,-0.8,1.3,1023,2018,5,11,13,22,28.564,0.7717,-0.4726,0.2236,0.3618
0.006,0.023,0.004,0.9,-1,1.7,1023,2018,5,11,13,22,28.583,0.7717,-0.4727,0.2234,0.3618
0.012,0.019,-0.004,0.4,-1,1.6,1023,2018,5,11,13,22,28.587,0.7717,-0.4727,0.2233,0.3618
0.014,0.012,0.004,0.6,-0.4,1.2,1023,2018,5,11,13,22,28.607,0.7717,-0.4728,0.2232,0.3618
0.014,0.018,0.01,-0.2,-0.4,0.8,1023,2018,5,11,13,22,28.646,0.7718,-0.4727,0.2231,0.3618
0.012,0.018,0.007,-0.6,-1.5,0.3,1023,2018,5,11,13,22,28.666,0.7717,-0.4728,0.2233,0.3618
0.011,0.018,-0.002,-0.5,-1.7,0.3,1023,2018,5,11,13,22,28.67,0.7715,-0.4729,0.2233,0.362
0.014,0.016,-0.005,0.2,-0.6,0.6,1023,2018,5,11,13,22,28.684,0.7714,-0.4731,0.2234,0.3621
0.012,0.021,-0.004,0.9,0.3,0.9,1023,2018,5,11,13,22,28.721,0.7714,-0.4729,0.2234,0.3622
0.008,0.022,0.007,1.3,0.1,0.7,1023,2018,5,11,13,22,28.742,0.7714,-0.4729,0.2235,0.3621
0.006,0.022,0.005,1.1,-1.3,0.6,1023,2018,5,11,13,22,28.746,0.7714,-0.4728,0.2234,0.3622
0.008,0.013,0.002,0.8,-1.3,0.4,1023,2018,5,11,13,22,28.769,0.7714,-0.4728,0.2231,0.3625
0.006,0.014,0.01,0.5,-0.6,0.3,1023,2018,5,11,13,22,28.787,0.7714,-0.4727,0.2229,0.3627
0.003,0.013,0,0.2,-0.6,0.1,0,2018,5,11,13,22,28.824,0.7713,-0.4729,0.2231,0.3627
0.005,0.018,0,0.3,-0.9,0.3,0,2018,5,11,13,22,28.844,0.7712,-0.4729,0.2232,0.3627
0.001,0.021,-0.005,0.4,-0.8,0.3,0,2018,5,11,13,22,28.848,0.7712,-0.4729,0.2231,0.3629
0,0.025,0.004,0.8,-0.5,1,0,2018,5,11,13,22,28.888,0.7711,-0.4729,0.2231,0.3629
0.006,0.021,0.006,0.1,-0.7,1.4,0,2018,5,11,13,22,28.907,0.7712,-0.4729,0.223,0.363
0.006,0.01,0.003,0.3,-0.6,1.6,0,2018,5,11,13,22,28.911,0.7712,-0.4729,0.2229,0.3629
0.006,0.012,-0.006,0.6,-0.1,1.4,0,2018,5,11,13,22,28.928,0.7712,-0.473,0.2228,0.3628
0.008,0.021,0,0.4,0.1,1.5,0,2018,5,11,13,22,28.947,0.7713,-0.4729,0.2227,0.3627
0.005,0.019,-0.003,0,-0.9,1.4,0,2018,5,11,13,22,28.986,0.7714,-0.4729,0.2227,0.3628
0.01,0.012,-0.006,-0.2,-1.1,1.4,0,2018,5,11,13,22,29.007,0.7714,-0.473,0.2226,0.3627
0.007,0.023,0.001,0.1,-0.1,1.6,0,2018,5,11,13,22,29.011,0.7714,-0.473,0.2225,0.3627
0.004,0.022,0.001,0.8,-0.2,1.6,0,2018,5,11,13,22,29.029,0.7715,-0.4729,0.2225,0.3626
0.007,0.023,0.002,0.8,-0.9,1.6,0,2018,5,11,13,22,29.049,0.7716,-0.4728,0.2223,0.3627
0.007,0.019,0.008,0.4,-0.9,1.6,0,2018,5,11,13,22,29.071,0.7716,-0.473,0.2223,0.3625
0.008,0.02,0.009,-0.4,-1.6,1.3,0,2018,5,11,13,22,29.11,0.7715,-0.473,0.2222,0.3625
0.015,0.002,0,-0.8,-2.8,0.8,0,2018,5,11,13,22,29.129,0.7714,-0.4733,0.2221,0.3626
0.014,0.004,-0.001,-0.4,-1.2,0.5,0,2018,5,11,13,22,29.133,0.7711,-0.4737,0.2222,0.3625
0.006,0.011,0.001,0.3,0.6,0,0,2018,5,11,13,22,29.148,0.7711,-0.4737,0.2223,0.3626
0.004,0.025,0,0.6,0.2,0,0,2018,5,11,13,22,29.186,0.7711,-0.4735,0.2225,0.3627
0.001,0.03,0.009,0,-1.9,0.3,0,2018,5,11,13,22,29.208,0.771,-0.4735,0.2226,0.3628
0.001,0.016,0.003,-0.2,-2.8,0.7,0,2018,5,11,13,22,29.212,0.7709,-0.4737,0.2225,0.3629
0.007,0.01,0.005,0.1,-1.2,0.8,0,2018,5,11,13,22,29.229,0.7707,-0.474,0.2225,0.3629
0.006,0.01,0.002,0.8,0.6,0.5,0,2018,5,11,13,22,29.265,0.7708,-0.4739,0.2223,0.363
0.002,0.016,0.011,0.7,0.3,0.3,0,2018,5,11,13,22,29.286,0.7709,-0.4735,0.2221,0.3632
0,0.022,0.004,-0.4,-0.4,0.5,0,2018,5,11,13,22,29.29,0.771,-0.4734,0.2222,0.3633
0.003,0.026,0,-0.9,-1.2,1,0,2018,5,11,13,22,29.327,0.7709,-0.4734,0.2223,0.3632
0.008,0.022,-0.004,-0.8,-1.1,1.2,0,2018,5,11,13,22,29.348,0.7708,-0.4736,0.2224,0.3632
0.01,0.018,-0.003,-0.4,-0.8,1.5,0,2018,5,11,13,22,29.352,0.7708,-0.4737,0.2225,0.3631
0.008,0.012,-0.005,0.3,-0.5,1.7,0,2018,5,11,13,22,29.368,0.7708,-0.4737,0.2224,0.363
0,0.014,0.003,0.9,0.3,1.6,0,2018,5,11,13,22,29.388,0.7709,-0.4737,0.2221,0.363
-0.003,0.018,-0.001,0.6,0,1.5,0,2018,5,11,13,22,29.426,0.7711,-0.4736,0.222,0.3628
0,0.026,0.008,0,-1.2,1.6,0,2018,5,11,13,22,29.447,0.7711,-0.4737,0.2221,0.3626
0.015,0.02,0.003,-0.4,-2.4,1.9,0,2018,5,11,13,22,29.451,0.771,-0.4741,0.2221,0.3624
0.026,0.012,0.004,-0.4,-1.4,1.8,0,2018,5,11,13,22,29.472,0.7708,-0.4745,0.2221,0.3623
0.027,0.008,0,0,0.4,1.1,0,2018,5,11,13,22,29.492,0.7708,-0.4744,0.2221,0.3623
0.012,0.012,0.004,0,1,0.3,0,2018,5,11,13,22,29.513,0.7709,-0.4743,0.2223,0.3622
0.008,0.016,0.009,0,0,0,0,2018,5,11,13,22,29.533,0.771,-0.474,0.2224,0.3623
0.006,0.02,0,-1,-0.9,0,1023,2018,5,11,13,22,29.554,0.7709,-0.474,0.2227,0.3623
0.006,0.016,-0.003,-0.9,-0.7,0,1023,2018,5,11,13,22,29.569,0.7707,-0.4741,0.2229,0.3624
0.007,0.018,-0.007,0,0.7,0.3,1023,2018,5,11,13,22,29.609,0.7706,-0.4742,0.2232,0.3624
0,0.017,-0.001,0.5,0.9,1.1,1023,2018,5,11,13,22,29.629,0.7707,-0.474,0.2232,0.3624
0.003,0.026,0.002,0.3,0,1.4,1023,2018,5,11,13,22,29.633,0.7708,-0.4739,0.2234,0.3622
0.005,0.02,0,0,-0.7,1.4,1023,2018,5,11,13,22,29.668,0.7708,-0.4742,0.2235,0.3619
0.007,0.019,0,-0.2,-0.5,1.3,1023,2018,5,11,13,22,29.689,0.7707,-0.4742,0.2235,0.3618
0.008,0.02,0,0,-0.2,1,1023,2018,5,11,13,22,29.693,0.7707,-0.4742,0.2236,0.3618
0.01,0.019,0.001,-0.1,-0.1,1.1,1023,2018,5,11,13,22,29.713,0.7708,-0.4741,0.2236,0.3618
0.015,0.021,-0.001,-0.1,-0.6,1.4,1023,2018,5,11,13,22,29.733,0.7708,-0.4741,0.2236,0.3618
0.015,0.02,0,0.6,-0.7,1.3,1023,2018,5,11,13,22,29.752,0.7708,-0.4742,0.2237,0.3617
0.012,0.02,0.004,0.8,0,0.9,1023,2018,5,11,13,22,29.774,0.7707,-0.4743,0.2237,0.3617
0.009,0.015,0,0.7,-0.3,0.7,0,2018,5,11,13,22,29.795,0.7708,-0.4741,0.2237,0.3618
0.005,0.014,0.004,0.4,-1,0.2,0,2018,5,11,13,22,29.833,0.7708,-0.474,0.2236,0.3619
0.01,0.01,-0.002,0.4,-0.6,0.2,0,2018,5,11,13,22,29.856,0.7708,-0.474,0.2235,0.3621
0.006,0.013,-0.006,0.8,0.3,0.1,0,2018,5,11,13,22,29.86,0.7707,-0.474,0.2236,0.3621
0.006,0.02,-0.002,0.7,0.1,0.2,0,2018,5,11,13,22,29.872,0.7708,-0.4738,0.2236,0.3623
0.007,0.025,0,0.3,-0.4,0.7,0,2018,5,11,13,22,29.908,0.7708,-0.4736,0.2236,0.3624
0.009,0.016,-0.001,-0.1,-1.2,0.6,0,2018,5,11,13,22,29.929,0.7708,-0.4737,0.2236,0.3625
0.01,0.018,0.002,-0.3,-0.8,0.7,0,2018,5,11,13,22,29.933,0.7706,-0.4739,0.2238,0.3624
0.004,0.022,0,0,0,0,0,2018,5,11,13,22,29.956,0.7706,-0.4738,0.2238,0.3625
0.006,0.022,0.001,0.1,-0.5,0.3,0,2018,5,11,13,22,29.974,0.7706,-0.4737,0.2239,0.3626
0.002,0.019,0.001,0.1,-0.9,0.6,0,2018,5,11,13,22,30.01,0.7706,-0.4737,0.224,0.3627
0.01,0.017,-0.004,0,-0.6,0.8,0,2018,5,11,13,22,30.031,0.7705,-0.4737,0.2239,0.3628
0.007,0.021,-0.002,-0.1,-0.5,0.9,0,2018,5,11,13,22,30.035,0.7705,-0.4737,0.2239,0.3628
0.008,0.013,-0.001,0,-1,0.5,0,2018,5,11,13,22,30.056,0.7704,-0.4737,0.224,0.3628
0.003,0.024,0.013,0,0,0,0,2018,5,11,13,22,30.072,0.7705,-0.4736,0.224,0.363
0.009,0.018,0,-0.1,-0.9,0.3,0,2018,5,11,13,22,30.093,0.7704,-0.4736,0.224,0.363
0.005,0.021,-0.001,-0.2,-1.3,0.6,0,2018,5,11,13,22,30.133,0.7703,-0.4736,0.224,0.3632
0.01,0.012,0,0,-0.6,0.5,0,2018,5,11,13,22,30.152,0.7702,-0.4738,0.2241,0.3631
0.01,0.017,-0.004,0.4,0.3,0.6,0,2018,5,11,13,22,30.156,0.7702,-0.4738,0.2243,0.3631
0.008,0.024,0.001,0.6,-0.2,0.6,0,2018,5,11,13,22,30.194,0.7702,-0.4737,0.2244,0.3631
0.007,0.021,0.005,0.8,-0.6,0.7,0,2018,5,11,13,22,30.216,0.7702,-0.4737,0.2244,0.3631
0.006,0.017,0.005,0.6,-0.4,0.9,0,2018,5,11,13,22,30.22,0.7701,-0.4738,0.2245,0.3631
0.007,0.016,0.002,0.5,-0.1,0.9,0,2018,5,11,13,22,30.238,0.7702,-0.4736,0.2243,0.3632
0.006,0.009,-0.005,0,0,0,0,2018,5,11,13,22,30.257,0.7701,-0.4738,0.2245,0.363
0.004,0.018,0.001,0.4,-0.1,0.5,0,2018,5,11,13,22,30.278,0.7701,-0.4737,0.2246,0.3631
0.004,0.018,0.001,0.1,-0.7,0.4,0,2018,5,11,13,22,30.295,0.7701,-0.4736,0.2247,0.3633
0.005,0.023,-0.001,-0.2,-0.6,0.6,0,2018,5,11,13,22,30.315,0.77,-0.4737,0.2248,0.3632
0.007,0.022,0.007,-0.3,-0.4,0.5,0,2018,5,11,13,22,30.335,0.77,-0.4736,0.2248,0.3633
0.01,0.02,0,-0.2,-0.6,0.1,0,2018,5,11,13,22,30.355,0.77,-0.4735,0.225,0.3634
0.005,0.018,-0.005,-0.2,-1.5,0.2,0,2018,5,11,13,22,30.394,0.7699,-0.4735,0.225,0.3636
0.004,0.014,-0.003,0.4,-1.3,0.8,1023,2018,5,11,13,22,30.414,0.7698,-0.4737,0.2249,0.3637
0,0.016,0.001,0.6,-0.4,0.9,1023,2018,5,11,13,22,30.418,0.7698,-0.4737,0.2248,0.3637
0.003,0.018,0.002,0.9,-0.2,1.3,1023,2018,5,11,13,22,30.437,0.77,-0.4734,0.2244,0.364
0.007,0.018,0.001,0.9,-1,1.5,1023,2018,5,11,13,22,30.475,0.7701,-0.4733,0.2242,0.3641
0.01,0.02,0.009,0.4,-1.1,1.5,1023,2018,5,11,13,22,30.495,0.7701,-0.4734,0.2241,0.364
0.007,0.018,0.007,0,-0.6,1,1023,2018,5,11,13,22,30.5,0.7701,-0.4733,0.2239,0.3642
0.009,0.016,0,-0.5,-0.9,0.5,1023,2018,5,11,13,22,30.521,0.7701,-0.4732,0.2238,0.3643
0.007,0.012,0.002,-0.7,-0.7,0.5,1023,2018,5,11,13,22,30.54,0.77,-0.4734,0.2239,0.3642
0.002,0.019,-0.002,0,0,0,1023,2018,5,11,13,22,30.558,0.77,-0.4734,0.2241,0.3642
0.004,0.023,0,0,0,0,1023,2018,5,11,13,22,30.577,0.77,-0.4733,0.2242,0.3643
0.005,0.028,0.004,-0.1,-0.6,1.4,1023,2018,5,11,13,22,30.599,0.77,-0.4732,0.2243,0.3643
0.004,0.021,0,-0.1,-2.1,2.2,1023,2018,5,11,13,22,30.619,0.77,-0.4733,0.2242,0.3642
0.006,0.006,-0.008,0,-0.9,1.9,0,2018,5,11,13,22,30.639,0.7699,-0.4736,0.224,0.364
0.009,0.008,-0.003,0.4,0,1.4,0,2018,5,11,13,22,30.677,0.77,-0.4737,0.2239,0.3639
0.006,0.016,0.002,0.5,0,1,0,2018,5,11,13,22,30.697,0.77,-0.4737,0.2239,0.3638
0.013,0.029,0.008,0.8,-0.4,0.8,0,2018,5,11,13,22,30.702,0.7701,-0.4735,0.2239,0.3639
0.015,0.03,0,0.3,-0.6,1.4,0,2018,5,11,13,22,30.721,0.7701,-0.4735,0.224,0.3639
0.013,0.024,0.003,0,-1.2,1.9,0,2018,5,11,13,22,30.742,0.77,-0.4736,0.224,0.3638
0.015,0.015,-0.008,0.1,-0.6,1.6,0,2018,5,11,13,22,30.762,0.77,-0.4737,0.224,0.3638
0.01,0.011,0.002,0.4,-0.2,1,0,2018,5,11,13,22,30.778,0.7701,-0.4737,0.2239,0.3637
0,0.013,0.002,0.3,-0.3,0.5,0,2018,5,11,13,22,30.796,0.7701,-0.4737,0.2239,0.3637
0.001,0.021,0.003,-0.1,-1,0,0,2018,5,11,13,22,30.836,0.77,-0.4737,0.224,0.3637
0.005,0.017,-0.002,-0.2,-1.3,0.4,0,2018,5,11,13,22,30.856,0.7699,-0.4738,0.224,0.3639
0.008,0.023,0,0,-1,0.6,0,2018,5,11,13,22,30.86,0.7698,-0.474,0.2241,0.3638
0.006,0.016,-0.002,0.3,0,0.8,0,2018,5,11,13,22,30.881,0.7698,-0.4739,0.2241,0.3639
0.004,0.022,0.007,-0.2,-0.6,1.2,0,2018,5,11,13,22,30.9,0.7698,-0.4738,0.2241,0.3639
0.005,0.013,0,-0.7,-1.2,1,0,2018,5,11,13,22,30.938,0.7698,-0.474,0.2241,0.3638
0.002,0.014,-0.001,-0.8,-1.1,1,0,2018,5,11,13,22,30.96,0.7698,-0.4741,0.224,0.3638
0.006,0.019,0,-0.4,-0.7,1.2,0,2018,5,11,13,22,30.964,0.7697,-0.4742,0.2241,0.3637
0.006,0.026,-0.007,0.3,-0.1,1.6,0,2018,5,11,13,22,30.984,0.7696,-0.4744,0.2242,0.3635
0.003,0.025,0.001,0.5,-0.2,1.7,0,2018,5,11,13,22,31,0.7697,-0.4743,0.2242,0.3635
0.008,0.019,0.008,0,-1,1.7,0,2018,5,11,13,22,31.019,0.7698,-0.4743,0.2241,0.3634
0.009,0.011,-0.007,-0.1,-1.6,1.5,0,2018,5,11,13,22,31.038,0.7697,-0.4746,0.2241,0.3632
0.011,0.006,-0.004,0.1,-1,1.6,0,2018,5,11,13,22,31.079,0.7696,-0.4748,0.224,0.3631
0.007,0.015,0.004,0.3,0,1.2,0,2018,5,11,13,22,31.1,0.7696,-0.4749,0.224,0.363
0.006,0.023,0.008,0.2,-0.6,1.1,0,2018,5,11,13,22,31.104,0.7696,-0.475,0.2241,0.3628
0.011,0.022,0.004,-0.1,-1.6,1.1,0,2018,5,11,13,22,31.122,0.7696,-0.4751,0.2241,0.3628
0.013,0.019,-0.003,0.1,-1.5,1,0,2018,5,11,13,22,31.143,0.7694,-0.4753,0.2242,0.3628
0.016,0.019,-0.004,0.7,-0.4,1.2,0,2018,5,11,13,22,31.162,0.7694,-0.4753,0.2241,0.3629
0.007,0.018,0.006,0.7,0,0.8,0,2018,5,11,13,22,31.182,0.7695,-0.4752,0.2241,0.3629
0.008,0.017,-0.004,0,-1.2,1,0,2018,5,11,13,22,31.2,0.7695,-0.475,0.224,0.3631
0.003,0.014,-0.005,0,-1.8,1,0,2018,5,11,13,22,31.219,0.7694,-0.4754,0.224,0.363
0.001,0.019,-0.005,-0.1,-0.6,1.1,0,2018,5,11,13,22,31.258,0.7693,-0.4755,0.2239,0.363
-0.004,0.017,0,0.1,0,1.5,0,2018,5,11,13,22,31.278,0.7694,-0.4755,0.2238,0.3629
-0.001,0.023,0.005,0.2,-1,1.9,1023,2018,5,11,13,22,31.282,0.7694,-0.4756,0.2237,0.3628
0.004,0.018,0.009,0,-1.9,1.9,1023,2018,5,11,13,22,31.302,0.7694,-0.4758,0.2236,0.3625
0.008,0.026,0.009,0,-1.8,2.1,1023,2018,5,11,13,22,31.322,0.7694,-0.476,0.2234,0.3625
0.009,0.013,0,0.4,-0.4,1.6,1023,2018,5,11,13,22,31.359,0.7694,-0.476,0.2232,0.3626
0.012,0.012,0,0,0,1.5,1023,2018,5,11,13,22,31.381,0.7695,-0.4759,0.2231,0.3626
0.01,0.017,-0.001,-0.2,-0.3,1.4,1023,2018,5,11,13,22,31.385,0.7695,-0.4759,0.2231,0.3624
0,0.011,0.003,-0.4,-0.8,1.2,1023,2018,5,11,13,22,31.406,0.7695,-0.476,0.2231,0.3623
0.005,0.015,0.002,-0.4,-0.7,0.8,1023,2018,5,11,13,22,31.427,0.7695,-0.476,0.223,0.3624
0.002,0.023,0.001,-0.4,-0.8,1.1,1023,2018,5,11,13,22,31.445,0.7695,-0.476,0.223,0.3624
0.009,0.023,-0.002,0,-1.2,1.6,1023,2018,5,11,13,22,31.485,0.7695,-0.4761,0.223,0.3623
0.014,0.022,-0.002,0.6,-0.9,1.6,1023,2018,5,11,13,22,31.505,0.7694,-0.4764,0.2231,0.3621
0.018,0.013,-0.001,0.8,-0.2,1.8,1023,2018,5,11,13,22,31.509,0.7695,-0.4763,0.223,0.3621
0.012,0.015,0.007,0.9,0,1.6,1023,2018,5,11,13,22,31.525,0.7695,-0.4764,0.223,0.3619
0.006,0.017,0.007,0.6,-0.6,1.1,0,2018,5,11,13,22,31.544,0.7695,-0.4765,0.223,0.3618
0.009,0.018,0,-0.1,-1.2,0.7,0,2018,5,11,13,22,31.581,0.7695,-0.4765,0.223,0.3618
0.014,0.02,0.001,0,-1.2,0.7,0,2018,5,11,13,22,31.601,0.7694,-0.4767,0.2231,0.3618
