ax,ay,az,dpitch,droll,dyaw,heart,time_1,time_2,time_3,time_4,time_5,time_6,w,x,y,z
0.363,0.512,0.213,-26.3,-198.8,-14,0,2018,5,11,13,15,27.671,-0.3885,0.4615,0.328,-0.7269
0.39,0.367,0.145,-24.9,-174.9,-21.3,0,2018,5,11,13,15,27.693,-0.3722,0.4784,0.3486,-0.7148
0.415,0.389,0.209,-20.3,-123.7,-25.2,0,2018,5,11,13,15,27.712,-0.3581,0.4922,0.3635,-0.7051
0.412,0.551,0.311,-16.7,-84.8,-25,0,2018,5,11,13,15,27.733,-0.3473,0.5023,0.3726,-0.6986
0.381,0.578,0.335,-14.8,-59,-20,0,2018,5,11,13,15,27.77,-0.3393,0.51,0.3783,-0.6939
0.361,0.551,0.31,-12.5,-31,-14.4,0,2018,5,11,13,15,27.774,-0.3341,0.5155,0.3815,-0.6906
0.352,0.478,0.253,-7.5,15.6,-6.7,0,2018,5,11,13,15,27.79,-0.3328,0.5179,0.3809,-0.6898
0.364,0.317,0.169,5.4,99.8,-0.5,0,2018,5,11,13,15,27.827,-0.3374,0.515,0.3738,-0.6935
0.347,0.394,0.13,20.9,204.9,6.9,0,2018,5,11,13,15,27.847,-0.3508,0.5038,0.3559,-0.7044
0.307,0.62,0.111,31.8,276,14.1,0,2018,5,11,13,15,27.851,-0.3718,0.4842,0.3278,-0.7209
0.293,0.772,0.131,34.5,279.1,18.3,0,2018,5,11,13,15,27.871,-0.3953,0.46,0.2954,-0.738
0.265,0.762,0.238,28.2,234.6,17.4,0,2018,5,11,13,15,27.891,-0.4164,0.4366,0.2654,-0.7519
0.273,0.785,0.29,12.6,159.9,13,0,2018,5,11,13,15,27.912,-0.4322,0.4187,0.242,-0.761
0.306,0.827,0.169,-0.7,78.3,8.5,0,2018,5,11,13,15,27.933,-0.4418,0.4087,0.2276,-0.7654
0.331,0.799,0.102,-10.5,6.2,4.3,0,2018,5,11,13,15,27.97,-0.4457,0.4061,0.2223,-0.766
0.327,0.794,0.033,-15.1,-49.3,-1.7,0,2018,5,11,13,15,27.991,-0.4447,0.4098,0.2245,-0.764
0.339,0.766,0.004,-14.6,-91.3,-9.6,0,2018,5,11,13,15,27.995,-0.4393,0.4176,0.2325,-0.7605
0.348,0.802,0.067,-16,-139.1,-11,0,2018,5,11,13,15,28.01,-0.4298,0.4289,0.2459,-0.7554
0.353,0.793,0.17,-21,-177.6,-7.5,0,2018,5,11,13,15,28.047,-0.4172,0.4436,0.265,-0.7475
0.361,0.68,0.243,-27.5,-190.2,-7.1,0,2018,5,11,13,15,28.068,-0.4027,0.4605,0.2869,-0.7371
0.381,0.546,0.26,-32.4,-172.8,-12.3,0,2018,5,11,13,15,28.072,-0.3881,0.4775,0.3074,-0.7257
0.398,0.576,0.234,-32.7,-147.3,-17.5,0,2018,5,11,13,15,28.111,-0.3746,0.493,0.3237,-0.7153
0.43,0.57,0.2,-28.4,-133.9,-17.1,0,2018,5,11,13,15,28.132,-0.362,0.5068,0.3375,-0.7057
0.45,0.534,0.196,-21.2,-123.1,-14.9,0,2018,5,11,13,15,28.136,-0.3499,0.5189,0.3504,-0.6967
0.424,0.519,0.241,-14.3,-92.7,-13,0,2018,5,11,13,15,28.153,-0.3394,0.5284,0.3612,-0.6892
0.399,0.508,0.275,-7.9,-55,-8.5,0,2018,5,11,13,15,28.192,-0.332,0.5348,0.3684,-0.6841
0.361,0.477,0.291,-1,-1.6,-3.3,0,2018,5,11,13,15,28.196,-0.3289,0.5373,0.371,-0.6822
0.327,0.49,0.272,5,57.2,3.2,0,2018,5,11,13,15,28.211,-0.3315,0.5354,0.3676,-0.6842
0.317,0.517,0.203,13.7,113.4,11,1023,2018,5,11,13,15,28.249,-0.3398,0.5287,0.3584,-0.6902
0.322,0.51,0.124,26.1,173.4,18.6,1023,2018,5,11,13,15,28.269,-0.3536,0.5166,0.3435,-0.6999
0.313,0.528,0.132,36.6,237.3,22.6,1023,2018,5,11,13,15,28.273,-0.3727,0.4983,0.3218,-0.7135
0.286,0.687,0.153,40.1,259.2,22.9,1023,2018,5,11,13,15,28.294,-0.3951,0.4751,0.2942,-0.729
0.262,0.806,0.22,32.8,210.9,19.8,1023,2018,5,11,13,15,28.313,-0.4153,0.4524,0.268,-0.7422
0.285,0.79,0.2,21.5,135.8,16.1,1023,2018,5,11,13,15,28.349,-0.4297,0.4355,0.249,-0.7506
0.296,0.724,0.128,12.8,79.5,10.2,1023,2018,5,11,13,15,28.367,-0.4386,0.4248,0.2376,-0.7554
0.32,0.655,0.067,5.4,43.6,1.4,1023,2018,5,11,13,15,28.374,-0.4434,0.4188,0.2308,-0.758
0.342,0.713,0.055,0.8,4.2,-7.6,1023,2018,5,11,13,15,28.414,-0.4446,0.4166,0.2275,-0.7595
0.346,0.87,0.08,-6,-58.9,-8.8,1023,2018,5,11,13,15,28.418,-0.4415,0.4195,0.2303,-0.7589
0.358,0.901,0.151,-14.5,-122.8,-5.2,1023,2018,5,11,13,15,28.437,-0.4341,0.4283,0.2413,-0.7548
0.371,0.793,0.193,-22,-162.9,-3.3,1023,2018,5,11,13,15,28.475,-0.4232,0.4419,0.2589,-0.7473
0.386,0.666,0.194,-27.4,-173.4,-4.6,1023,2018,5,11,13,15,28.494,-0.4105,0.4577,0.2788,-0.7376
0.396,0.636,0.221,-29.6,-166,-6.6,1023,2018,5,11,13,15,28.499,-0.3974,0.4736,0.298,-0.7271
0.413,0.683,0.226,-30.9,-165.9,-5.2,0,2018,5,11,13,15,28.514,-0.3843,0.4892,0.3163,-0.7161
0.438,0.639,0.198,-27,-160,-2.3,0,2018,5,11,13,15,28.534,-0.3713,0.5038,0.3343,-0.7045
0.432,0.544,0.202,-21.5,-144.5,-0.5,0,2018,5,11,13,15,28.554,-0.359,0.5166,0.3513,-0.6933
0.431,0.464,0.223,-13.9,-111.3,0.3,0,2018,5,11,13,15,28.592,-0.3484,0.5266,0.3656,-0.6837
0.419,0.395,0.274,-6.5,-60.2,0.3,0,2018,5,11,13,15,28.612,-0.3411,0.5329,0.3753,-0.6772
0.389,0.405,0.321,-0.2,-4.1,1.5,0,2018,5,11,13,15,28.616,-0.3386,0.5351,0.3788,-0.6748
0.363,0.364,0.286,5.5,63.6,4.7,0,2018,5,11,13,15,28.655,-0.3416,0.5328,0.3757,-0.6768
0.347,0.37,0.174,14.8,141.5,8.3,0,2018,5,11,13,15,28.674,-0.3514,0.5248,0.3646,-0.6841
0.345,0.513,0.095,25.9,214,11,0,2018,5,11,13,15,28.679,-0.3677,0.5104,0.3449,-0.6966
0.335,0.662,0.072,36.1,247.1,13.6,0,2018,5,11,13,15,28.698,-0.3879,0.4902,0.319,-0.7122
0.295,0.751,0.162,36.5,230.1,13.7,0,2018,5,11,13,15,28.714,-0.4079,0.4679,0.2924,-0.7273
0.302,0.798,0.192,28.4,173.9,10.7,0,2018,5,11,13,15,28.75,-0.4241,0.4484,0.2697,-0.739
0.305,0.76,0.132,19.7,106.2,6.9,0,2018,5,11,13,15,28.772,-0.4349,0.4346,0.2543,-0.7464
0.323,0.682,0.057,17.2,60.1,0,0,2018,5,11,13,15,28.776,-0.4405,0.426,0.2456,-0.751
0.319,0.665,0.037,16.4,33,-10.3,0,2018,5,11,13,15,28.796,-0.4425,0.4204,0.2403,-0.7547
0.337,0.753,0.113,10.6,-11.2,-15.4,0,2018,5,11,13,15,28.816,-0.4409,0.4183,0.2389,-0.7572
0.324,0.937,0.256,-3.2,-77.8,-14.2,0,2018,5,11,13,15,28.855,-0.4355,0.4216,0.2439,-0.7569
0.321,0.973,0.332,-23.5,-152.8,-7.3,0,2018,5,11,13,15,28.875,-0.4259,0.4328,0.2577,-0.7514
0.342,0.828,0.271,-38.4,-198.8,-3,0,2018,5,11,13,15,28.879,-0.4129,0.4504,0.2784,-0.7409
0.365,0.64,0.186,-42.9,-201.8,-3.8,0,2018,5,11,13,15,28.899,-0.3982,0.4703,0.3013,-0.7275
0.42,0.582,0.199,-41.6,-185.2,-6.7,0,2018,5,11,13,15,28.918,-0.3836,0.4892,0.3222,-0.7138
0.451,0.579,0.273,-39.1,-162.9,-7.1,0,2018,5,11,13,15,28.936,-0.37,0.506,0.3404,-0.7007
0.453,0.582,0.305,-36.6,-143.3,-6.3,0,2018,5,11,13,15,28.975,-0.3578,0.5207,0.3559,-0.6885
0.452,0.532,0.267,-31,-115.7,-6.4,0,2018,5,11,13,15,28.995,-0.3472,0.5331,0.3687,-0.6775
0.46,0.493,0.231,-22.6,-83.7,-5.2,0,2018,5,11,13,15,29,-0.339,0.5426,0.3781,-0.669
0.443,0.456,0.236,-12.6,-45.6,-1,0,2018,5,11,13,15,29.018,-0.3336,0.5487,0.3844,-0.6631
0.434,0.473,0.282,-2.6,3.7,4.1,0,2018,5,11,13,15,29.054,-0.3323,0.5506,0.3865,-0.661
0.393,0.474,0.325,3.3,59.3,8.7,0,2018,5,11,13,15,29.074,-0.3362,0.5482,0.3834,-0.6628
0.367,0.498,0.257,8.4,110.5,12.5,1023,2018,5,11,13,15,29.078,-0.3453,0.5417,0.3747,-0.6684
0.373,0.456,0.105,19.2,163.1,16.2,1023,2018,5,11,13,15,29.117,-0.359,0.5307,0.3608,-0.6776
0.383,0.458,0.025,34.7,230,18,1023,2018,5,11,13,15,29.137,-0.3774,0.5137,0.3404,-0.6911
0.34,0.651,-0.002,48.3,269.3,19.7,1023,2018,5,11,13,15,29.141,-0.3997,0.4901,0.3137,-0.7081
0.305,0.766,0.07,52.3,253.7,19.4,1023,2018,5,11,13,15,29.161,-0.4215,0.4637,0.2859,-0.7248
0.289,0.818,0.152,47.8,201.2,15.3,1023,2018,5,11,13,15,29.179,-0.4393,0.4392,0.2618,-0.7385
0.32,0.711,0.145,37.2,134.4,10,1023,2018,5,11,13,15,29.215,-0.4515,0.4204,0.2446,-0.7479
0.315,0.741,0.063,29.7,86.2,5.1,1023,2018,5,11,13,15,29.236,-0.459,0.4071,0.2336,-0.7543
0.321,0.667,0.038,23.9,49.8,-3.4,1023,2018,5,11,13,15,29.24,-0.4626,0.3982,0.2271,-0.7587
0.309,0.802,0.134,14.3,7,-9,1023,2018,5,11,13,15,29.26,-0.463,0.3935,0.2242,-0.7618
0.31,0.868,0.238,-2.2,-57.3,-10,1023,2018,5,11,13,15,29.28,-0.4597,0.3951,0.2275,-0.762
0.328,0.938,0.302,-22.6,-126.4,-7.5,1023,2018,5,11,13,15,29.299,-0.4525,0.4046,0.2383,-0.758
0.35,0.886,0.251,-40.2,-188.1,-5.5,1023,2018,5,11,13,15,29.322,-0.4414,0.4217,0.2564,-0.7493
0.383,0.707,0.147,-46.8,-213.7,-8.9,0,2018,5,11,13,15,29.342,-0.4271,0.4433,0.279,-0.7369
0.412,0.631,0.15,-49.6,-220.2,-13.4,0,2018,5,11,13,15,29.362,-0.4108,0.466,0.3023,-0.7228
0.424,0.63,0.203,-50.2,-219.1,-16.7,0,2018,5,11,13,15,29.381,-0.3933,0.4884,0.3249,-0.7078
0.457,0.582,0.251,-48.8,-208.1,-18.1,0,2018,5,11,13,15,29.42,-0.3753,0.51,0.3463,-0.692
0.463,0.496,0.236,-43.1,-176.1,-20.2,0,2018,5,11,13,15,29.441,-0.3584,0.5291,0.3647,-0.6771
0.454,0.437,0.197,-31,-126.8,-22.5,0,2018,5,11,13,15,29.446,-0.3426,0.5447,0.3754,-0.667
0.446,0.405,0.17,-17.6,-70.3,-20.7,0,2018,5,11,13,15,29.459,-0.3296,0.5557,0.3789,-0.6624
0.417,0.46,0.25,-6.5,-14.9,-14.9,0,2018,5,11,13,15,29.499,-0.3217,0.5614,0.377,-0.6626
0.382,0.532,0.288,2.2,38.8,-6.5,0,2018,5,11,13,15,29.521,-0.3193,0.562,0.3696,-0.6674
0.348,0.539,0.254,11.4,90.7,1.6,0,2018,5,11,13,15,29.525,-0.3226,0.5578,0.3571,-0.676
0.321,0.483,0.126,20.8,137.9,7.9,0,2018,5,11,13,15,29.542,-0.3309,0.5496,0.3402,-0.6874
0.302,0.427,0,34.8,188.3,11.1,0,2018,5,11,13,15,29.58,-0.3435,0.5372,0.319,-0.701
0.274,0.58,0.009,49,228.6,14.4,0,2018,5,11,13,15,29.602,-0.3595,0.5199,0.2924,-0.7175
0.217,0.734,0.097,54.7,231.8,17.8,0,2018,5,11,13,15,29.606,-0.3771,0.4981,0.2619,-0.7355
0.193,0.766,0.171,48.7,186.8,16.7,0,2018,5,11,13,15,29.623,-0.3928,0.476,0.2332,-0.7514
0.187,0.783,0.166,37.8,113.7,11.8,0,2018,5,11,13,15,29.644,-0.4034,0.4583,0.2111,-0.7632
0.184,0.668,0.101,30.1,53,5.8,0,2018,5,11,13,15,29.663,-0.4078,0.447,0.1973,-0.7712
0.21,0.529,0.063,23.5,25.1,-2.5,0,2018,5,11,13,15,29.683,-0.4083,0.4405,0.1893,-0.7767
0.222,0.552,0.121,15.3,-8.7,-10.8,0,2018,5,11,13,15,29.701,-0.4057,0.4372,0.184,-0.7812
0.239,0.573,0.182,5.4,-34.8,-14.5,0,2018,5,11,13,15,29.736,-0.4003,0.4372,0.1817,-0.7845
0.243,0.702,0.251,-8.2,-70.8,-15,0,2018,5,11,13,15,29.756,-0.3927,0.4405,0.1821,-0.7864
0.238,0.737,0.237,-22.3,-115.1,-11.9,0,2018,5,11,13,15,29.763,-0.3823,0.4482,0.1869,-0.786
0.227,0.676,0.181,-29.3,-148.5,-10,0,2018,5,11,13,15,29.802,-0.3694,0.4602,0.1966,-0.783
0.25,0.595,0.158,-33.8,-167.5,-9.2,0,2018,5,11,13,15,29.823,-0.3543,0.4746,0.2097,-0.7779
0.274,0.537,0.181,-37.3,-178.7,-9.2,0,2018,5,11,13,15,29.827,-0.3377,0.4901,0.2252,-0.7713
0.275,0.502,0.219,-40.6,-178.8,-9.1,0,2018,5,11,13,15,29.846,-0.3205,0.5059,0.2413,-0.7635
0.26,0.447,0.184,-41,-167,-9.6,0,2018,5,11,13,15,29.865,-0.3036,0.5212,0.2564,-0.7551
0.253,0.358,0.123,-37.1,-139.8,-11.1,0,2018,5,11,13,15,29.884,-0.2879,0.535,0.2697,-0.747
0.25,0.309,0.091,-27.8,-99.1,-11.2,0,2018,5,11,13,15,29.906,-0.2749,0.5462,0.2791,-0.7403
0.22,0.286,0.13,-20.2,-56.7,-8.8,0,2018,5,11,13,15,29.925,-0.2657,0.5536,0.2842,-0.7362
0.196,0.316,0.16,-13.5,-6.3,-4.9,1023,2018,5,11,13,15,29.946,-0.261,0.5575,0.2839,-0.7351
0.167,0.334,0.145,-7.4,47.5,0.7,1023,2018,5,11,13,15,29.965,-0.2618,0.5577,0.2777,-0.737
0.17,0.259,0.035,2,103,5,1023,2018,5,11,13,15,29.985,-0.2681,0.5545,0.2652,-0.7417
0.178,0.189,-0.053,18.4,169.6,8.6,1023,2018,5,11,13,15,30.005,-0.2803,0.5471,0.2467,-0.749
0.15,0.299,-0.05,34.3,243.7,13.3,1023,2018,5,11,13,15,30.025,-0.2987,0.5335,0.2196,-0.7601
0.115,0.536,-0.03,42.8,274.7,18.3,1023,2018,5,11,13,15,30.065,-0.3216,0.5141,0.1841,-0.7734
0.077,0.637,0.017,44,243.6,20.2,1023,2018,5,11,13,15,30.083,-0.3436,0.4923,0.1478,-0.7858
0.078,0.676,0.038,41.3,168.1,18.6,1023,2018,5,11,13,15,30.087,-0.3604,0.4725,0.1182,-0.7954
0.07,0.687,0.085,35.1,68.9,15.8,1023,2018,5,11,13,15,30.107,-0.3696,0.4584,0.0999,-0.802
0.074,0.808,0.182,23.1,-46.2,15.4,1023,2018,5,11,13,15,30.147,-0.3702,0.4515,0.0958,-0.8061
0.101,0.811,0.149,8.6,-166,20.3,1023,2018,5,11,13,15,30.166,-0.3615,0.4543,0.1075,-0.807
0.124,0.421,0.049,-1.8,-224.5,20.3,1023,2018,5,11,13,15,30.17,-0.3464,0.465,0.1327,-0.8037
0.171,0.102,-0.015,-6.4,-213.2,9.5,1023,2018,5,11,13,15,30.184,-0.3291,0.4787,0.1626,-0.7974
0.186,0.096,0.058,-8.1,-190.9,-0.2,1023,2018,5,11,13,15,30.222,-0.312,0.4914,0.1893,-0.7907
0.168,0.161,0.203,-14.1,-170.3,-8.2,1023,2018,5,11,13,15,30.242,-0.2954,0.5023,0.2113,-0.7846
0.159,0.172,0.276,-24.8,-143.1,-16.2,0,2018,5,11,13,15,30.246,-0.28,0.5124,0.2285,-0.7789
0.167,0.223,0.234,-31.5,-119,-23.8,0,2018,5,11,13,15,30.268,-0.2658,0.5224,0.2408,-0.7735
0.17,0.28,0.166,-33.7,-92.9,-26.7,0,2018,5,11,13,15,30.288,-0.2529,0.5322,0.2484,-0.7687
0.156,0.351,0.148,-32.1,-71.8,-23,0,2018,5,11,13,15,30.325,-0.2418,0.541,0.2524,-0.7648
0.144,0.362,0.107,-27.5,-53.9,-14.4,0,2018,5,11,13,15,30.345,-0.2329,0.5484,0.2544,-0.7617
0.136,0.315,0.093,-20.2,-32.7,-5.2,0,2018,5,11,13,15,30.349,-0.2267,0.5539,0.2552,-0.7593
0.128,0.235,0.065,-12,-9.5,3.5,0,2018,5,11,13,15,30.369,-0.2238,0.5571,0.2549,-0.7579
0.134,0.159,0.056,-3.1,19.4,8.9,0,2018,5,11,13,15,30.391,-0.2243,0.5578,0.2529,-0.7579
0.14,0.144,0.054,9.2,77.8,14.9,0,2018,5,11,13,15,30.408,-0.2294,0.5552,0.2464,-0.7604
0.109,0.134,0.019,20.2,141.5,20.7,0,2018,5,11,13,15,30.426,-0.2411,0.5481,0.2323,-0.7664
0.114,0.173,-0.02,33.6,189,21.9,0,2018,5,11,13,15,30.464,-0.2578,0.5368,0.2116,-0.7749
0.091,0.229,-0.012,45,218.2,21.7,0,2018,5,11,13,15,30.485,-0.2772,0.5216,0.1856,-0.7852
0.045,0.278,0.06,47.9,218.9,18.3,0,2018,5,11,13,15,30.489,-0.2973,0.5033,0.157,-0.7959
0.025,0.31,0.072,41.9,191.9,9.6,0,2018,5,11,13,15,30.509,-0.3149,0.4849,0.1292,-0.8055
0.023,0.333,0.073,32,141.1,-1.9,0,2018,5,11,13,15,30.529,-0.3276,0.4694,0.1051,-0.8131
0.048,0.31,0.106,19.1,81.3,-11.7,0,2018,5,11,13,15,30.55,-0.334,0.4586,0.0877,-0.8187
0.051,0.293,0.151,3.3,33.7,-19.1,0,2018,5,11,13,15,30.57,-0.3351,0.4529,0.0767,-0.8226
0.035,0.382,0.142,-14.1,-3.5,-24.6,0,2018,5,11,13,15,30.607,-0.3322,0.4518,0.0698,-0.825
0.015,0.588,0.091,-29.1,-57.4,-24.9,0,2018,5,11,13,15,30.611,-0.3251,0.4554,0.0668,-0.826
0.042,0.58,0.026,-36,-117.7,-21.5,0,2018,5,11,13,15,30.627,-0.313,0.4644,0.0711,-0.8253
0.074,0.504,-0.005,-38.7,-162.7,-14.1,0,2018,5,11,13,15,30.649,-0.297,0.4772,0.0835,-0.8228
0.097,0.3,0.03,-39.4,-174.8,-8.6,0,2018,5,11,13,15,30.668,-0.2797,0.4916,0.1018,-0.8182
0.106,0.224,0.074,-40.8,-147.2,-6.7,0,2018,5,11,13,15,30.707,-0.2642,0.505,0.1201,-0.8127
0.124,0.291,0.054,-39.5,-119.9,-4.1,0,2018,5,11,13,15,30.727,-0.2513,0.5167,0.134,-0.8073
0.134,0.325,-0.022,-32.6,-106.4,2.5,0,2018,5,11,13,15,30.732,-0.2402,0.527,0.1453,-0.8021
0.144,0.262,-0.083,-23.9,-98.5,11.3,0,2018,5,11,13,15,30.751,-0.2307,0.5359,0.1564,-0.7969
0.14,0.044,-0.111,-11.1,-67.8,16.8,0,2018,5,11,13,15,30.77,-0.2239,0.5425,0.1678,-0.792
0.152,-0.025,-0.113,5.3,-1.7,18.9,0,2018,5,11,13,15,30.81,-0.2226,0.5449,0.174,-0.7894
0.131,-0.1,-0.104,24,87.1,20.5,0,2018,5,11,13,15,30.83,-0.2287,0.5417,0.1707,-0.7906
0.099,0.031,-0.083,39.8,162.6,19.7,0,2018,5,11,13,15,30.834,-0.2424,0.5322,0.1559,-0.796
0.036,0.138,-0.026,51.7,193.8,19.2,0,2018,5,11,13,15,30.848,-0.2601,0.5177,0.1333,-0.804
0.023,0.085,-0.012,58.3,204.8,16.4,0,2018,5,11,13,15,30.869,-0.2786,0.5003,0.1084,-0.8125
-0.002,0.217,0.052,58.4,195,8.3,0,2018,5,11,13,15,30.89,-0.2961,0.4812,0.0822,-0.8208
-0.031,0.23,0.172,45.9,155.9,-2.9,0,2018,5,11,13,15,30.929,-0.3099,0.4629,0.0579,-0.8283
-0.009,0.25,0.165,29.7,100.6,-15.2,1023,2018,5,11,13,15,30.948,-0.3177,0.4488,0.0387,-0.8342
-0.022,0.252,0.124,15,52.8,-25.4,1023,2018,5,11,13,15,30.952,-0.3198,0.4401,0.0255,-0.8386
0.021,0.296,0.098,1.2,5.9,-32.8,1023,2018,5,11,13,15,30.973,-0.3169,0.4362,0.0171,-0.842
0.025,0.367,0.119,-10.7,-45,-35.2,1023,2018,5,11,13,15,30.992,-0.3092,0.437,0.0145,-0.8445
0.015,0.576,0.166,-25.9,-114.9,-30.8,1023,2018,5,11,13,15,31.012,-0.2967,0.4423,0.019,-0.8461
0.02,0.525,0.118,-39.3,-179,-21.3,1023,2018,5,11,13,15,31.033,-0.2795,0.4531,0.0331,-0.8458
0.052,0.314,0.027,-46.6,-207.3,-15.2,1023,2018,5,11,13,15,31.07,-0.2598,0.4682,0.0551,-0.8427
0.074,0.076,-0.021,-48.1,-183.5,-13,1023,2018,5,11,13,15,31.089,-0.2408,0.4842,0.0794,-0.8373
0.079,0.08,-0.012,-44.6,-127.5,-12.7,1023,2018,5,11,13,15,31.095,-0.226,0.4979,0.0983,-0.8314
0.07,0.286,0.013,-39.6,-95.3,-5.8,1023,2018,5,11,13,15,31.112,-0.215,0.5085,0.1097,-0.8265
0.059,0.324,-0.008,-34.8,-89,6.1,1023,2018,5,11,13,15,31.133,-0.206,0.5174,0.1187,-0.822
0.06,0.257,-0.079,-26.3,-84.8,16.9,1023,2018,5,11,13,15,31.153,-0.1988,0.5251,0.1286,-0.8173
0.082,0.079,-0.114,-15.6,-66.1,23.3,1023,2018,5,11,13,15,31.172,-0.194,0.5314,0.1396,-0.8126
0.082,0.056,-0.071,-3.9,-23.8,27.7,1023,2018,5,11,13,15,31.21,-0.1931,0.5345,0.1475,-0.8094
0.061,0.163,-0.022,4.8,1.5,32.9,1023,2018,5,11,13,15,31.231,-0.1959,0.5345,0.1505,-0.8082
0.03,0.139,-0.029,13.6,6.6,38.6,0,2018,5,11,13,15,31.236,-0.2002,0.5325,0.1521,-0.8081
0.024,-0.079,-0.036,24.1,27.6,38.3,0,2018,5,11,13,15,31.255,-0.2062,0.5286,0.1542,-0.8088
0.022,-0.304,-0.027,34.7,90.6,31.2,0,2018,5,11,13,15,31.275,-0.2165,0.5214,0.1515,-0.8113
0.011,-0.237,-0.038,43.6,164.3,18.8,0,2018,5,11,13,15,31.297,-0.2316,0.5102,0.1387,-0.8165
0,0.039,0.023,43.8,199.2,8.1,0,2018,5,11,13,15,31.315,-0.2493,0.4957,0.1154,-0.8238
-0.018,0.229,0.019,39.5,166.8,-4.6,0,2018,5,11,13,15,31.336,-0.2641,0.4809,0.0891,-0.8312
-0.005,0.156,0.071,31.3,110.3,-17.3,0,2018,5,11,13,15,31.356,-0.2728,0.4689,0.0683,-0.8372
-0.001,0.196,0.143,19.7,55.5,-28.5,0,2018,5,11,13,15,31.373,-0.2751,0.4604,0.054,-0.8422
0.021,0.245,0.204,2.8,1.8,-34.1,0,2018,5,11,13,15,31.411,-0.2719,0.4564,0.0462,-0.8459
0.011,0.366,0.217,-15.1,-42.6,-33.3,0,2018,5,11,13,15,31.43,-0.2643,0.457,0.0441,-0.848
0.001,0.547,0.171,-30,-96.2,-24.4,0,2018,5,11,13,15,31.435,-0.2531,0.4621,0.0473,-0.8486
-0.008,0.565,0.148,-42.1,-154.6,-12.5,0,2018,5,11,13,15,31.474,-0.2384,0.4714,0.0586,-0.8469
0.005,0.385,0.121,-54.4,-187.9,-0.5,0,2018,5,11,13,15,31.494,-0.2218,0.4844,0.078,-0.8426
0,0.266,0.104,-65.8,-191.3,7.5,0,2018,5,11,13,15,31.498,-0.2058,0.4993,0.1015,-0.8354
0.006,0.206,0.05,-72.7,-184.3,14.9,0,2018,5,11,13,15,31.534,-0.1912,0.5151,0.1253,-0.826
0.039,0.159,-0.054,-71.7,-173.4,19.6,0,2018,5,11,13,15,31.555,-0.1782,0.531,0.1487,-0.8148
0.054,0.104,-0.138,-63.2,-157,23.9,0,2018,5,11,13,15,31.559,-0.1667,0.546,0.1712,-0.8029
0.053,0.089,-0.162,-52.4,-137.6,28.5,0,2018,5,11,13,15,31.574,-0.1572,0.5588,0.192,-0.7912
0.049,-0.109,-0.183,-37.2,-96.3,30.7,0,2018,5,11,13,15,31.612,-0.1509,0.5685,0.2104,-0.7808
0.075,-0.272,-0.21,-17.1,-20,28,0,2018,5,11,13,15,31.632,-0.1505,0.5738,0.2221,-0.7737
0.054,-0.229,-0.173,4,62.7,24.7,0,2018,5,11,13,15,31.636,-0.1575,0.5739,0.2229,-0.772
0.032,-0.184,-0.149,23.3,122.7,25,0,2018,5,11,13,15,31.657,-0.1704,0.5691,0.2143,-0.7752
-0.009,-0.213,-0.081,38.1,174.3,21.7,0,2018,5,11,13,15,31.676,-0.188,0.5598,0.1986,-0.7821
0.002,-0.119,-0.068,48.4,218.4,10.2,0,2018,5,11,13,15,31.714,-0.2087,0.5466,0.1757,-0.7916
-0.014,-0.005,-0.019,49,230.1,-2.5,0,2018,5,11,13,15,31.734,-0.2295,0.531,0.1468,-0.8022
0.015,0.137,0.01,42.8,193.9,-16.3,0,2018,5,11,13,15,31.738,-0.2464,0.5158,0.117,-0.812
0.03,0.183,0.025,34,135.2,-26.8,0,2018,5,11,13,15,31.758,-0.2564,0.5034,0.0919,-0.8199
0.05,0.199,0.054,25.5,85.1,-37.1,0,2018,5,11,13,15,31.775,-0.2598,0.4945,0.0732,-0.8261
0.042,0.245,0.096,15.4,41.2,-45.3,1023,2018,5,11,13,15,31.794,-0.258,0.4886,0.0597,-0.8312
0.011,0.438,0.158,2,-19,-43.2,1023,2018,5,11,13,15,31.816,-0.2511,0.4861,0.0517,-0.8354
-0.042,0.632,0.191,-11.7,-85.9,-29.7,1023,2018,5,11,13,15,31.836,-0.2395,0.4876,0.0519,-0.8379
-0.062,0.551,0.161,-23.8,-144.3,-11.1,1023,2018,5,11,13,15,31.855,-0.2245,0.4933,0.0621,-0.838
-0.047,0.307,0.109,-35.7,-173.5,3.5,1023,2018,5,11,13,15,31.879,-0.2087,0.5023,0.0809,-0.8351
-0.045,0.116,0.064,-42.8,-161.4,12.1,1023,2018,5,11,13,15,31.897,-0.1949,0.5131,0.1034,-0.8294
-0.035,0.149,0.047,-47.6,-146.2,19.7,1023,2018,5,11,13,15,31.935,-0.1838,0.5237,0.1243,-0.8224
-0.023,0.129,-0.049,-47.2,-129.1,27.5,1023,2018,5,11,13,15,31.956,-0.1751,0.5342,0.1436,-0.8144
0.007,-0.024,-0.159,-37.4,-99.3,33.7,1023,2018,5,11,13,15,31.96,-0.1693,0.5438,0.1613,-0.8059
0.038,-0.15,-0.186,-22.7,-51.3,35.5,1023,2018,5,11,13,15,31.98,-0.1682,0.5505,0.1754,-0.7986
0.041,-0.229,-0.093,-6.8,9.3,34.7,1023,2018,5,11,13,15,32,-0.1721,0.5528,0.1827,-0.7945
0.031,-0.171,-0.074,5,62.6,33.2,1023,2018,5,11,13,15,32.037,-0.1812,0.5511,0.1819,-0.7938
0.053,-0.2,-0.061,16.7,101.9,28.7,1023,2018,5,11,13,15,32.059,-0.1936,0.5463,0.1748,-0.7958
0.037,-0.261,-0.045,25.5,143.6,18.6,0,2018,5,11,13,15,32.063,-0.2087,0.5386,0.1621,-0.8
0.026,-0.184,-0.021,29.6,178.4,6.7,0,2018,5,11,13,15,32.081,-0.2258,0.5282,0.1428,-0.8059
0.028,-0.007,-0.002,28.3,178,-5.8,0,2018,5,11,13,15,32.098,-0.242,0.5168,0.1187,-0.8125
0.051,0.153,-0.008,25,139.5,-15,0,2018,5,11,13,15,32.119,-0.2537,0.5064,0.0954,-0.8185
0.046,0.147,0.016,20.8,87.8,-23.4,0,2018,5,11,13,15,32.14,-0.2598,0.4984,0.0772,-0.8234
0.043,0.162,0.083,14.3,42.1,-33.4,0,2018,5,11,13,15,32.159,-0.2603,0.4929,0.065,-0.8276
0.032,0.371,0.191,1.9,-20.7,-36.1,0,2018,5,11,13,15,32.196,-0.2551,0.4905,0.0584,-0.8311
0.004,0.483,0.208,-13.6,-95.1,-28.9,0,2018,5,11,13,15,32.217,-0.2437,0.4926,0.0605,-0.8331
0,0.364,0.13,-25.3,-149.4,-19.9,0,2018,5,11,13,15,32.221,-0.228,0.4996,0.0724,-0.8325
0.017,0.164,0.034,-31.1,-169.5,-14.3,0,2018,5,11,13,15,32.243,-0.2106,0.5095,0.0911,-0.8292
0.044,-0.034,0,-32,-150.9,-11.1,0,2018,5,11,13,15,32.261,-0.1944,0.5202,0.112,-0.824
0.058,-0.017,0.006,-29.5,-103.2,-10.9,0,2018,5,11,13,15,32.299,-0.182,0.5291,0.1282,-0.8187
0.058,0.022,-0.025,-24.9,-60.6,-6.9,0,2018,5,11,13,15,32.303,-0.1737,0.536,0.1377,-0.8145
0.036,0.017,-0.022,-19.3,-23.2,-0.7,0,2018,5,11,13,15,32.318,-0.1696,0.5408,0.1421,-0.8114
0.029,-0.094,-0.078,-10.3,21.8,3.7,0,2018,5,11,13,15,32.354,-0.1702,0.5433,0.1423,-0.8096
0.038,-0.173,-0.16,3.2,80.2,5.3,0,2018,5,11,13,15,32.374,-0.1759,0.5422,0.1353,-0.8103
0.024,-0.208,-0.169,19.3,151.2,6.7,0,2018,5,11,13,15,32.381,-0.1875,0.5367,0.1196,-0.8138
-0.018,-0.145,-0.108,30.9,213.1,6.5,0,2018,5,11,13,15,32.401,-0.2051,0.5265,0.0949,-0.8195
-0.032,0.004,-0.06,34,246.9,2.8,0,2018,5,11,13,15,32.42,-0.2268,0.513,0.0631,-0.8254
-0.038,0.113,-0.04,32.2,228.7,-2.8,0,2018,5,11,13,15,32.459,-0.2475,0.4983,0.029,-0.8303
-0.02,0.154,0.02,26.4,172,-8.6,0,2018,5,11,13,15,32.479,-0.2635,0.485,0.0001,-0.8338
-0.013,0.12,0.076,16.7,108.6,-13.9,0,2018,5,11,13,15,32.483,-0.2734,0.4754,-0.0198,-0.8359
-0.021,0.134,0.085,5.3,57.1,-20.6,0,2018,5,11,13,15,32.503,-0.2777,0.4697,-0.0327,-0.8373
-0.043,0.228,0.037,-5.9,2.9,-26.9,0,2018,5,11,13,15,32.52,-0.2765,0.4684,-0.0389,-0.8382
-0.006,0.436,0.016,-11.8,-65.6,-27.6,0,2018,5,11,13,15,32.541,-0.2698,0.471,-0.0372,-0.839
0.014,0.422,0.022,-16.1,-145.5,-18.8,0,2018,5,11,13,15,32.561,-0.2573,0.4779,-0.0239,-0.8395
0.03,0.291,0.015,-21.1,-203.9,-9.1,0,2018,5,11,13,15,32.599,-0.2402,0.4884,0.0003,-0.8388
0.038,0.069,0.01,-25.6,-212.1,-5.8,0,2018,5,11,13,15,32.619,-0.2207,0.5004,0.0297,-0.8365
0.055,-0.024,-0.016,-25.7,-177.5,-8.5,0,2018,5,11,13,15,32.623,-0.2024,0.5117,0.0565,-0.833
0.067,-0.054,-0.048,-19.5,-122.5,-10.2,0,2018,5,11,13,15,32.644,-0.1878,0.5207,0.0768,-0.8292
0.108,-0.035,-0.065,-11.3,-76.3,-7.4,0,2018,5,11,13,15,32.664,-0.1777,0.527,0.0898,-0.8261
0.089,-0.018,-0.015,-4.3,-27.6,-2.1,1023,2018,5,11,13,15,32.684,-0.1723,0.5304,0.0965,-0.8244
0.049,-0.07,-0.005,0.6,27.9,4.1,1023,2018,5,11,13,15,32.71,-0.1726,0.5308,0.0966,-0.824
0.036,-0.125,-0.045,7.4,101.4,7.6,1023,2018,5,11,13,15,32.729,-0.1798,0.5283,0.0884,-0.825
0.018,-0.142,-0.114,18.5,177.4,10.7,1023,2018,5,11,13,15,32.745,-0.1939,0.5216,0.0693,-0.8278
-0.009,-0.08,-0.142,31,241.3,12.9,1023,2018,5,11,13,15,32.762,-0.2146,0.5103,0.0404,-0.8317
-0.009,0.077,-0.108,37.2,274.7,13.5,1023,2018,5,11,13,15,32.78,-0.2392,0.4953,0.0047,-0.835
-0.042,0.172,-0.018,36.5,253.6,12.2,1023,2018,5,11,13,15,32.801,-0.2638,0.4783,-0.0319,-0.8369
-0.029,0.225,0.098,28.3,190.9,8.8,1023,2018,5,11,13,15,32.839,-0.284,0.4629,-0.0622,-0.8373
-0.031,0.264,0.214,10.8,104.2,3.7,1023,2018,5,11,13,15,32.859,-0.2968,0.4527,-0.082,-0.8367
-0.021,0.349,0.191,-9.1,9.8,0.4,1023,2018,5,11,13,15,32.863,-0.3013,0.4498,-0.0898,-0.8358
-0.035,0.366,0.06,-23.4,-73.8,-1.4,1023,2018,5,11,13,15,32.901,-0.2981,0.4543,-0.0856,-0.835
-0.069,0.249,-0.068,-27.6,-137.7,-4.2,1023,2018,5,11,13,15,32.922,-0.2886,0.4637,-0.0712,-0.8346
-0.013,0.124,-0.098,-26.6,-176.1,-5.7,1023,2018,5,11,13,15,32.926,-0.2745,0.4754,-0.0497,-0.8343
0.04,0.092,-0.027,-29.5,-202.6,-4.6,1023,2018,5,11,13,15,32.949,-0.2572,0.4884,-0.0239,-0.8334
0.048,-0.013,0.014,-33.6,-197.9,-7.7,1023,2018,5,11,13,15,32.968,-0.2385,0.5019,0.0033,-0.8313
0.056,-0.039,-0.015,-33,-170,-14.9,0,2018,5,11,13,15,32.989,-0.2206,0.5144,0.0277,-0.8281
0.076,-0.063,-0.104,-24.6,-137.3,-18.3,0,2018,5,11,13,15,33.007,-0.2044,0.5251,0.0473,-0.8247
0.098,-0.101,-0.145,-12.3,-93.4,-18.8,0,2018,5,11,13,15,33.043,-0.1912,0.5319,0.0616,-0.8225
0.089,-0.082,-0.072,-0.6,-34.1,-15.7,0,2018,5,11,13,15,33.061,-0.1829,0.5351,0.0689,-0.8218
0.039,-0.008,-0.004,8.3,25.3,-8.9,0,2018,5,11,13,15,33.066,-0.1809,0.5352,0.0684,-0.8222
0.013,-0.027,-0.038,15.8,81.8,-2.2,0,2018,5,11,13,15,33.086,-0.1851,0.5319,0.0604,-0.824
0.012,-0.019,-0.119,26.4,134.2,4.1,0,2018,5,11,13,15,33.106,-0.1952,0.5259,0.0456,-0.8265
0.003,0.004,-0.167,41.5,178,10.2,0,2018,5,11,13,15,33.126,-0.2105,0.5156,0.0246,-0.8301
-0.02,0.065,-0.11,55.3,202,14.5,0,2018,5,11,13,15,33.148,-0.229,0.5021,-0.0004,-0.8339
-0.049,0.125,-0.01,60.9,199.8,15,0,2018,5,11,13,15,33.165,-0.2485,0.4852,-0.0272,-0.8379
-0.047,0.215,0.069,60,158.4,12.7,0,2018,5,11,13,15,33.186,-0.266,0.4682,-0.05,-0.8411
-0.025,0.34,0.1,56.3,75.3,11.3,0,2018,5,11,13,15,33.208,-0.2778,0.4541,-0.0636,-0.844
0.011,0.422,0.102,55.2,-30.9,14.7,0,2018,5,11,13,15,33.228,-0.2819,0.4451,-0.0629,-0.8475
0.029,0.287,0.045,57.5,-116.1,20.6,0,2018,5,11,13,15,33.245,-0.279,0.4409,-0.047,-0.8517
-0.004,-0.006,0.013,62.2,-141.8,22.8,0,2018,5,11,13,15,33.264,-0.2722,0.4384,-0.0225,-0.8562
0.012,-0.164,0.088,60.3,-120,17.5,0,2018,5,11,13,15,33.285,-0.2653,0.4354,0.0021,-0.8601
0.001,-0.073,0.197,49.9,-81.9,12.8,0,2018,5,11,13,15,33.326,-0.26,0.4314,0.0207,-0.8635
0.015,0.17,0.183,36.1,-77.3,12.9,0,2018,5,11,13,15,33.346,-0.256,0.428,0.0351,-0.866
0.024,0.192,0.096,25.8,-91,15.6,0,2018,5,11,13,15,33.35,-0.2517,0.427,0.0502,-0.867
0.055,0.095,0.016,20,-108.4,19.6,0,2018,5,11,13,15,33.369,-0.2465,0.4279,0.0677,-0.8669
0.052,-0.029,-0.034,18.5,-88.1,22.8,0,2018,5,11,13,15,33.405,-0.2417,0.4294,0.0852,-0.8659
0.058,0.022,-0.053,18.8,-45.5,23.5,0,2018,5,11,13,15,33.426,-0.2398,0.4296,0.0976,-0.865
0.048,0.068,-0.071,20.8,-10.1,24.1,0,2018,5,11,13,15,33.43,-0.2407,0.428,0.1037,-0.8649
0.053,0.099,-0.082,23.4,14.8,26.1,0,2018,5,11,13,15,33.45,-0.2442,0.4243,0.1058,-0.8654
0.036,0.076,-0.066,27.9,43.5,28.2,0,2018,5,11,13,15,33.467,-0.2499,0.4188,0.1043,-0.8667
0.012,-0.011,-0.063,32.9,86.6,28.2,0,2018,5,11,13,15,33.504,-0.2581,0.4114,0.0978,-0.8686
-0.014,-0.048,-0.074,36.4,143.7,25.8,0,2018,5,11,13,15,33.526,-0.27,0.4007,0.084,-0.8714
-0.008,-0.003,-0.083,39.6,187,18.5,1023,2018,5,11,13,15,33.53,-0.2846,0.3869,0.0622,-0.8748
-0.011,0.118,-0.003,37.8,187.9,10,1023,2018,5,11,13,15,33.548,-0.2989,0.3711,0.0353,-0.8783
-0.025,0.241,0.145,27.2,132.7,0.2,1023,2018,5,11,13,15,33.585,-0.3099,0.3573,0.0123,-0.8809
-0.026,0.417,0.269,3.9,26.9,-6.9,1023,2018,5,11,13,15,33.607,-0.3141,0.3507,0.0007,-0.8822
-0.016,0.439,0.153,-15.7,-69.4,-9.4,1023,2018,5,11,13,15,33.611,-0.3113,0.3531,0.0037,-0.8822
-0.001,0.274,-0.055,-26.3,-133.8,-10.4,1023,2018,5,11,13,15,33.629,-0.3032,0.3623,0.0183,-0.8811
0.046,0.083,-0.202,-21.6,-152.3,-14.6,1023,2018,5,11,13,15,33.668,-0.292,0.3738,0.0387,-0.8794
0.065,0.027,-0.176,-11,-146.4,-18.5,1023,2018,5,11,13,15,33.688,-0.2795,0.384,0.0599,-0.8779
0.074,0.125,-0.07,-4.4,-137.1,-17.2,1023,2018,5,11,13,15,33.692,-0.2672,0.392,0.08,-0.8766
0.053,0.108,0.059,-4.9,-120.9,-14.7,1023,2018,5,11,13,15,33.713,-0.2558,0.3988,0.0983,-0.875
0.058,0.099,0.071,-7.6,-102.8,-12.4,1023,2018,5,11,13,15,33.733,-0.2457,0.4046,0.1128,-0.8735
0.109,0.008,0.059,-7.2,-90.6,-8.5,1023,2018,5,11,13,15,33.754,-0.2371,0.4101,0.1256,-0.8716
0.088,0.002,0.051,-2,-53.8,-1.6,1023,2018,5,11,13,15,33.775,-0.2309,0.4141,0.1357,-0.8698
0.061,-0.046,0.031,4.6,-4.8,5.5,1023,2018,5,11,13,15,33.79,-0.229,0.4152,0.1402,-0.8691
0.028,-0.125,-0.023,14,65.3,10,1023,2018,5,11,13,15,33.811,-0.2322,0.4126,0.1371,-0.87
0.008,-0.145,-0.096,25,147.2,12.2,1023,2018,5,11,13,15,33.832,-0.2412,0.405,0.1225,-0.8733
-0.017,-0.067,-0.128,34.6,219.3,13.3,1023,2018,5,11,13,15,33.85,-0.2556,0.392,0.096,-0.8784
-0.028,0.083,-0.091,40.9,242.5,10.6,0,2018,5,11,13,15,33.871,-0.2728,0.3755,0.0621,-0.8835
-0.047,0.127,0.125,35.9,203.5,2.5,0,2018,5,11,13,15,33.909,-0.2878,0.3582,0.0293,-0.8876
-0.066,0.279,0.253,18.1,127.8,-10.5,0,2018,5,11,13,15,33.928,-0.2973,0.3455,0.0045,-0.89
-0.05,0.423,0.216,-3.4,18.9,-18.8,0,2018,5,11,13,15,33.933,-0.2992,0.3407,-0.0071,-0.8912
-0.029,0.451,0.113,-23.1,-87.6,-21.4,0,2018,5,11,13,15,33.97,-0.2938,0.3448,-0.0034,-0.8914
0.017,0.232,-0.018,-32.5,-168.3,-21.4,0,2018,5,11,13,15,33.989,-0.2822,0.3562,0.0148,-0.8906
-0.004,0.069,-0.051,-32.6,-184,-23.2,0,2018,5,11,13,15,33.993,-0.2673,0.3702,0.0395,-0.8887
-0.018,0.076,0.017,-33.4,-166.7,-26,0,2018,5,11,13,15,34.012,-0.252,0.3834,0.0632,-0.8862
-0.008,0.16,0.014,-33.7,-146.6,-24.8,0,2018,5,11,13,15,34.03,-0.2377,0.3953,0.0835,-0.8832
0.056,0.103,-0.035,-31.8,-146,-18,0,2018,5,11,13,15,34.05,-0.2247,0.4068,0.1032,-0.8794
0.056,0.07,-0.016,-26,-116,-8.4,0,2018,5,11,13,15,34.072,-0.2133,0.4169,0.1207,-0.8752
0.053,0.052,0.006,-18.7,-74.9,2.1,0,2018,5,11,13,15,34.092,-0.2061,0.4242,0.1335,-0.8716
0.029,0.005,0.013,-9.2,-26.5,12.5,0,2018,5,11,13,15,34.13,-0.2037,0.428,0.1408,-0.8691
0.016,-0.027,-0.01,0.8,34.1,21.6,0,2018,5,11,13,15,34.15,-0.2067,0.4281,0.1413,-0.8683
-0.006,-0.15,-0.092,12.7,103.7,27.9,0,2018,5,11,13,15,34.154,-0.2157,0.4239,0.1332,-0.8694
-0.015,-0.14,-0.15,27.7,184,31.2,0,2018,5,11,13,15,34.191,-0.2305,0.4144,0.114,-0.8729
-0.039,0,-0.13,38.6,241.2,31,0,2018,5,11,13,15,34.211,-0.2502,0.3997,0.0845,-0.8777
-0.079,0.088,0.061,38.6,233.9,22.7,0,2018,5,11,13,15,34.215,-0.2705,0.3821,0.0506,-0.8821
-0.125,0.047,0.296,16.9,177.8,8,0,2018,5,11,13,15,34.233,-0.2861,0.3676,0.0211,-0.8846
-0.068,0.098,0.253,-12.9,111.5,-4.4,0,2018,5,11,13,15,34.253,-0.2953,0.3602,-0.0007,-0.8848
-0.036,0.208,0.082,-32.7,52.6,-11.7,0,2018,5,11,13,15,34.272,-0.2989,0.3598,-0.0148,-0.8836
-0.063,0.308,-0.051,-40.2,-4.3,-19.4,0,2018,5,11,13,15,34.295,-0.2978,0.3643,-0.0213,-0.882
-0.081,0.421,-0.027,-43.8,-69.9,-23.9,0,2018,5,11,13,15,34.315,-0.2918,0.3727,-0.019,-0.8806
-0.026,0.385,-0.022,-48,-135.7,-20.5,0,2018,5,11,13,15,34.353,-0.2813,0.3849,-0.0069,-0.879
0.039,0.325,0,-54.8,-206.3,-12.1,0,2018,5,11,13,15,34.372,-0.2667,0.4012,0.0163,-0.8761
0.057,0.136,-0.022,-56.3,-209.3,-8.9,0,2018,5,11,13,15,34.376,-0.2502,0.4195,0.0455,-0.8713
0.092,0.034,-0.109,-48.4,-177,-8.3,0,2018,5,11,13,15,34.414,-0.2348,0.4361,0.0719,-0.8657
0.103,0.011,-0.125,-34.5,-134.1,-4.5,0,2018,5,11,13,15,34.435,-0.2223,0.4487,0.0932,-0.8605
0.082,0.025,-0.068,-21.4,-86.7,2.4,0,2018,5,11,13,15,34.439,-0.2139,0.4573,0.108,-0.8563
0.06,-0.053,0.025,-13,-46.3,8,0,2018,5,11,13,15,34.453,-0.2096,0.4626,0.1178,-0.8532
0.022,-0.103,0.082,-6.5,10.8,13.2,1023,2018,5,11,13,15,34.473,-0.2102,0.4642,0.1213,-0.8517
0.012,-0.196,0.006,1.1,79.8,14.3,1023,2018,5,11,13,15,34.495,-0.2164,0.4625,0.1158,-0.8519
0.014,-0.142,-0.068,11.6,154.7,13.9,1023,2018,5,11,13,15,34.515,-0.2278,0.4567,0.0995,-0.8541
0.008,-0.011,-0.082,21.1,203.9,13.8,1023,2018,5,11,13,15,34.535,-0.2442,0.4466,0.0739,-0.8575
0.001,0.066,0.014,23.6,202.6,11.4,1023,2018,5,11,13,15,34.555,-0.2616,0.4341,0.0445,-0.8608
-0.009,0.123,0.182,14.9,155.1,4.9,1023,2018,5,11,13,15,34.576,-0.2762,0.4223,0.0186,-0.8631
-0.058,0.266,0.267,-2.6,76.9,-2.5,1023,2018,5,11,13,15,34.614,-0.2848,0.4157,0.0014,-0.8637
-0.082,0.378,0.114,-15,-11.5,-7.1,1023,2018,5,11,13,15,34.634,-0.2861,0.4158,-0.0038,-0.8632
-0.086,0.316,0.021,-25,-81.5,-13.6,1023,2018,5,11,13,15,34.638,-0.2809,0.4214,0.0018,-0.8622
-0.003,0.202,-0.042,-30.4,-142.1,-16.6,1023,2018,5,11,13,15,34.659,-0.27,0.4312,0.0165,-0.8607
0.039,0.098,-0.014,-33.5,-170.6,-15.3,1023,2018,5,11,13,15,34.68,-0.2553,0.4435,0.0378,-0.8582
0.043,0.048,0.056,-37.8,-146.9,-13.5,1023,2018,5,11,13,15,34.699,-0.2407,0.4559,0.0587,-0.8548
0.043,0.057,0.023,-39.8,-116.8,-10.4,1023,2018,5,11,13,15,34.72,-0.2285,0.4671,0.0749,-0.8508
0.054,-0.025,-0.083,-32.2,-83.2,-6.4,0,2018,5,11,13,15,34.736,-0.2193,0.477,0.0874,-0.8465
0.079,-0.073,-0.099,-18.3,-38.2,-3.5,0,2018,5,11,13,15,34.755,-0.2139,0.4834,0.0951,-0.8434
0.089,-0.05,-0.051,-3.3,8.1,1.1,0,2018,5,11,13,15,34.793,-0.2127,0.4864,0.0968,-0.8418
0.054,-0.063,-0.007,8.9,58.2,7.8,0,2018,5,11,13,15,34.814,-0.2161,0.4851,0.0926,-0.8422
0.018,-0.069,-0.022,18.8,113.3,12,0,2018,5,11,13,15,34.819,-0.2249,0.4798,0.0816,-0.844
0.002,-0.03,-0.049,28.1,164,12.5,0,2018,5,11,13,15,34.839,-0.2384,0.4707,0.0632,-0.847
-0.026,0.085,-0.011,34.1,183,10.8,0,2018,5,11,13,15,34.86,-0.254,0.4585,0.039,-0.8506
-0.026,0.156,0.057,32.7,161.3,7.7,0,2018,5,11,13,15,34.898,-0.2689,0.4453,0.0149,-0.8539
-0.044,0.291,0.199,21.4,107,3.3,0,2018,5,11,13,15,34.918,-0.2801,0.4346,-0.0036,-0.8558
-0.067,0.565,0.319,-1,-5.2,2.1,0,2018,5,11,13,15,34.922,-0.2844,0.4305,-0.0107,-0.8565
-0.067,0.496,0.153,-21.9,-118.7,5.6,0,2018,5,11,13,15,34.94,-0.2797,0.4359,-0.0006,-0.8553
-0.053,0.126,-0.067,-31.2,-164.6,1.9,0,2018,5,11,13,15,34.959,-0.2691,0.4471,0.0203,-0.8527
0.025,-0.052,-0.158,-28.2,-162.4,-8.7,0,2018,5,11,13,15,34.979,-0.2554,0.4596,0.043,-0.8494
0.028,0.037,-0.028,-22.6,-145.2,-11.7,0,2018,5,11,13,15,34.998,-0.2414,0.4707,0.0639,-0.8461
0.028,0.214,0.056,-21.5,-134.2,-9.9,0,2018,5,11,13,15,35.036,-0.2284,0.4797,0.0822,-0.8431
0.021,0.178,0.02,-20.1,-123.7,-8.6,0,2018,5,11,13,15,35.056,-0.2164,0.488,0.0997,-0.8396
0.061,0.102,-0.062,-16.6,-106.2,-6.5,0,2018,5,11,13,15,35.06,-0.2059,0.495,0.1148,-0.8362
0.089,0.009,-0.048,-10.1,-86.2,-1.6,0,2018,5,11,13,15,35.08,-0.1965,0.5013,0.1281,-0.8328
0.099,-0.003,-0.064,0,-41.5,7.1,0,2018,5,11,13,15,35.099,-0.1911,0.5049,0.1371,-0.8304
0.079,-0.061,-0.054,11.9,20.7,12.9,0,2018,5,11,13,15,35.137,-0.1914,0.5048,0.1399,-0.8299
0.057,-0.121,-0.028,23.7,105.1,14.4,0,2018,5,11,13,15,35.158,-0.1988,0.5001,0.1331,-0.8322
0.018,-0.07,-0.066,33.7,183.5,14.6,0,2018,5,11,13,15,35.164,-0.2134,0.4906,0.1145,-0.837
-0.018,0.057,-0.068,42.2,224.6,14.6,0,2018,5,11,13,15,35.179,-0.2324,0.4771,0.0867,-0.843
-0.045,0.154,0.046,43.6,212.8,11.8,0,2018,5,11,13,15,35.198,-0.2518,0.4611,0.0562,-0.8489
-0.079,0.246,0.217,32.2,148.4,5.9,0,2018,5,11,13,15,35.22,-0.2673,0.447,0.0315,-0.853
-0.077,0.254,0.319,9.8,57.8,-1.4,0,2018,5,11,13,15,35.256,-0.2754,0.439,0.0176,-0.855
-0.048,0.269,0.275,-14.3,-17.1,-4.9,1023,2018,5,11,13,15,35.276,-0.276,0.4387,0.0148,-0.855
-0.023,0.346,0.057,-27.6,-71.6,-5.4,1023,2018,5,11,13,15,35.28,-0.2718,0.4442,0.02,-0.8534
-0.028,0.201,-0.114,-25.5,-107.6,-7.2,1023,2018,5,11,13,15,35.303,-0.2637,0.4526,0.0322,-0.8511
0.002,0.149,-0.125,-19.5,-127.3,-10.2,1023,2018,5,11,13,15,35.322,-0.2531,0.4613,0.0477,-0.8489
-0.003,0.16,0.018,-17.7,-154.1,-5.1,1023,2018,5,11,13,15,35.36,-0.2404,0.4702,0.0676,-0.8464
-0.027,0.071,0.121,-24.8,-142.4,-3,1023,2018,5,11,13,15,35.38,-0.2277,0.4795,0.0886,-0.8427
-0.012,0.002,0.073,-29.9,-105.7,-5.8,1023,2018,5,11,13,15,35.384,-0.2171,0.4879,0.1053,-0.8388
0.04,-0.016,-0.084,-26.7,-66.8,-7.7,1023,2018,5,11,13,15,35.403,-0.2093,0.4956,0.116,-0.8349
0.105,0.002,-0.128,-16.8,-25.4,-6.3,1023,2018,5,11,13,15,35.423,-0.2046,0.501,0.1213,-0.832
0.106,0.024,-0.051,-4.6,15.5,0,1023,2018,5,11,13,15,35.442,-0.2038,0.5032,0.121,-0.8309
0.058,-0.023,0.014,5.4,72,5.3,1023,2018,5,11,13,15,35.462,-0.2079,0.5018,0.1148,-0.8316
0.043,-0.006,-0.004,14.5,130.3,7.1,1023,2018,5,11,13,15,35.48,-0.2177,0.4965,0.1007,-0.8342
0.02,0.062,-0.035,26,165.1,6.4,0,2018,5,11,13,15,35.518,-0.2311,0.4878,0.0797,-0.8379
-0.001,0.095,0.054,32.9,170.8,4,0,2018,5,11,13,15,35.541,-0.2455,0.4762,0.0557,-0.8424
-0.014,0.13,0.132,30.2,147.8,-0.2,0,2018,5,11,13,15,35.545,-0.2588,0.4642,0.0334,-0.8463
-0.017,0.15,0.161,21.7,101.7,-7.1,0,2018,5,11,13,15,35.563,-0.2681,0.4547,0.0158,-0.8491
-0.02,0.277,0.067,14.6,49.3,-12.1,0,2018,5,11,13,15,35.584,-0.2724,0.4486,0.0049,-0.8511
-0.046,0.365,0.096,7.1,-9,-14,0,2018,5,11,13,15,35.605,-0.272,0.446,0.0014,-0.8526
-0.044,0.492,0.11,-4.1,-86.3,-13.7,0,2018,5,11,13,15,35.625,-0.2661,0.448,0.0074,-0.8534
-0.033,0.347,0.078,-15.4,-157.1,-8.6,0,2018,5,11,13,15,35.664,-0.2546,0.4553,0.0248,-0.8527
-0.007,0.086,0.007,-22,-192.3,-6.6,0,2018,5,11,13,15,35.685,-0.2391,0.4659,0.05,-0.8503
-0.004,-0.126,-0.032,-22.7,-163.8,-9.3,0,2018,5,11,13,15,35.689,-0.2234,0.4769,0.0758,-0.8466
0.019,-0.013,-0.013,-19,-112.9,-12.7,0,2018,5,11,13,15,35.702,-0.2107,0.4854,0.0942,-0.8432
0.051,0.111,0.028,-16.4,-81.6,-8.8,0,2018,5,11,13,15,35.722,-0.2009,0.4916,0.106,-0.8406
0.068,0.167,0.027,-12.6,-69.4,-0.8,0,2018,5,11,13,15,35.743,-0.1939,0.4964,0.1158,-0.8381
0.072,0.069,0.048,-9.5,-57.7,5.8,0,2018,5,11,13,15,35.78,-0.1887,0.5002,0.1247,-0.8357
0.06,-0.063,0.021,-2.1,-17.3,10.2,0,2018,5,11,13,15,35.801,-0.1865,0.5022,0.1307,-0.8341
0.052,-0.117,0.014,8.5,53.3,12.2,0,2018,5,11,13,15,35.805,-0.1898,0.501,0.1298,-0.8342
0.04,-0.065,-0.049,20.4,123.6,14.4,0,2018,5,11,13,15,35.842,-0.1998,0.4958,0.1187,-0.8367
0.009,0,-0.044,32.6,167.8,15,0,2018,5,11,13,15,35.862,-0.2143,0.4866,0.0993,-0.841
-0.013,0.025,0.052,38,177.3,11.5,0,2018,5,11,13,15,35.866,-0.2304,0.4742,0.0758,-0.8463
-0.054,0.054,0.182,31.5,163.4,3.5,0,2018,5,11,13,15,35.884,-0.2451,0.4612,0.0523,-0.8511
-0.038,0.11,0.238,14.3,126.5,-6.9,0,2018,5,11,13,15,35.902,-0.2563,0.4514,0.0314,-0.8541
0,0.281,0.133,-2.7,70.7,-13.9,0,2018,5,11,13,15,35.924,-0.2623,0.4462,0.016,-0.8554
0.006,0.193,-0.019,-2.1,-61.2,-33.3,0,2018,5,11,13,15,35.963,-0.2517,0.448,0.0104,-0.8577
-0.012,0.221,0.144,-10.4,-106.7,-27.2,0,2018,5,11,13,15,35.984,-0.2402,0.4527,0.0209,-0.8584
-0.018,0.19,0.196,-23.8,-106.5,-23.9,0,2018,5,11,13,15,35.988,-0.2278,0.4599,0.0346,-0.8574
0.007,0.156,0.09,-28.7,-90.1,-21.5,0,2018,5,11,13,15,36.006,-0.2166,0.468,0.0463,-0.8554
0.057,0.115,-0.03,-23.7,-70.7,-16.4,0,2018,5,11,13,15,36.043,-0.2073,0.4751,0.0554,-0.8533
0.088,0.126,-0.047,-13.6,-43.7,-9.2,1023,2018,5,11,13,15,36.063,-0.2008,0.4801,0.0622,-0.8516
0.094,0.16,-0.008,-4.3,-17.1,-0.3,1023,2018,5,11,13,15,36.067,-0.1977,0.4824,0.0659,-0.8507
0.051,0.175,-0.007,5.4,4.2,9.5,1023,2018,5,11,13,15,36.088,-0.198,0.4824,0.067,-0.8506
0.017,0.123,-0.031,16.1,16.8,16.9,1023,2018,5,11,13,15,36.108,-0.2008,0.4802,0.0668,-0.8511
-0.018,0.041,-0.039,29.2,32.3,20.6,1023,2018,5,11,13,15,36.146,-0.205,0.476,0.065,-0.8526
-0.053,-0.047,0.028,39.3,66.8,21.3,1023,2018,5,11,13,15,36.15,-0.2119,0.4687,0.0608,-0.8553
-0.078,-0.031,0.089,41.6,102.8,18.2,1023,2018,5,11,13,15,36.166,-0.222,0.4582,0.0515,-0.859
-0.069,0.039,0.13,38,107.8,12.1,1023,2018,5,11,13,15,36.186,-0.2327,0.4466,0.0381,-0.863
-0.054,0.107,0.17,27.9,83.9,4.4,1023,2018,5,11,13,15,36.207,-0.2412,0.4376,0.0254,-0.8657
-0.025,0.199,0.175,16,46.8,-0.7,1023,2018,5,11,13,15,36.244,-0.2463,0.4315,0.0167,-0.8676
-0.002,0.268,0.057,9,8.3,-5.6,1023,2018,5,11,13,15,36.264,-0.2478,0.4286,0.013,-0.8686
-0.007,0.276,0.001,5,-33.1,-10.5,1023,2018,5,11,13,15,36.268,-0.2456,0.4281,0.0144,-0.8695
0.015,0.396,0.022,0.8,-93.5,-9,1023,2018,5,11,13,15,36.29,-0.2392,0.4303,0.0233,-0.87
-0.005,0.268,0.017,-2.6,-148.3,-2.3,1023,2018,5,11,13,15,36.31,-0.2289,0.4357,0.0419,-0.8694
0.024,0.124,0,-6.2,-167.3,0,0,2018,5,11,13,15,36.348,-0.2164,0.4427,0.0661,-0.8675
0.069,-0.043,-0.078,-2.4,-143.2,-0.3,0,2018,5,11,13,15,36.369,-0.2039,0.4498,0.0896,-0.8648
0.119,-0.026,-0.15,7.9,-98.7,1.7,0,2018,5,11,13,15,36.373,-0.1944,0.4539,0.1079,-0.8628
0.119,0.029,-0.04,22.3,-50.4,7.5,0,2018,5,11,13,15,36.393,-0.1889,0.4542,0.1197,-0.8623
0.051,0.009,0.166,30.5,5.3,11.9,0,2018,5,11,13,15,36.412,-0.1879,0.4505,0.1243,-0.8638
-0.055,0.096,0.219,31.7,45,17.5,0,2018,5,11,13,15,36.427,-0.1917,0.4445,0.1222,-0.8664
-0.065,0.107,0.105,32.5,59.3,21.5,0,2018,5,11,13,15,36.465,-0.1982,0.4374,0.1166,-0.8693
-0.062,-0.003,0.074,35.7,72.8,21,0,2018,5,11,13,15,36.486,-0.2059,0.4288,0.1094,-0.8727
-0.09,0.018,0.136,37,81.5,17.2,0,2018,5,11,13,15,36.491,-0.2142,0.4192,0.1,-0.8765
-0.097,0.099,0.251,24.5,50.8,10.2,0,2018,5,11,13,15,36.508,-0.2207,0.4116,0.0919,-0.8794
-0.052,0.137,0.206,6.1,11.1,3.3,0,2018,5,11,13,15,36.53,-0.2235,0.4081,0.0883,-0.8806
-0.006,0.203,-0.001,-2.7,-18.7,-1.6,0,2018,5,11,13,15,36.569,-0.2232,0.4083,0.0893,-0.8805
-0.045,0.081,-0.1,-0.6,-20.6,-10.1,0,2018,5,11,13,15,36.589,-0.2208,0.4095,0.0918,-0.8803
-0.018,0.251,-0.047,0.3,-46,-19.5,0,2018,5,11,13,15,36.593,-0.2162,0.411,0.0944,-0.8805
-0.023,0.355,0.012,-4.3,-122.4,-12.8,0,2018,5,11,13,15,36.612,-0.2074,0.4148,0.1065,-0.8795
-0.01,0.192,-0.006,-9.3,-150,-8,0,2018,5,11,13,15,36.632,-0.1956,0.4211,0.1274,-0.8764
0.038,0,-0.05,-8.4,-137.7,-7.8,0,2018,5,11,13,15,36.649,-0.1837,0.4278,0.1482,-0.8725
0.076,-0.095,-0.05,-1.8,-90.4,-7.8,0,2018,5,11,13,15,36.671,-0.1739,0.433,0.1654,-0.8687
0.106,0.09,0.044,5.8,-38.8,-3,0,2018,5,11,13,15,36.706,-0.1681,0.4352,0.1743,-0.8671
0.07,0.225,0.144,10.1,-5.2,8.3,0,2018,5,11,13,15,36.727,-0.1667,0.4345,0.1778,-0.867
-0.027,0.158,0.185,11.4,19.7,18.5,0,2018,5,11,13,15,36.732,-0.169,0.4322,0.178,-0.8676
-0.048,0.01,0.084,16.4,62.8,26.1,0,2018,5,11,13,15,36.768,-0.1751,0.428,0.1739,-0.8693
-0.043,-0.103,-0.022,26.7,125.4,28.5,0,2018,5,11,13,15,36.788,-0.1861,0.4205,0.1629,-0.8728
-0.106,-0.134,0.104,32.2,193.1,24,0,2018,5,11,13,15,36.792,-0.2011,0.4096,0.1413,-0.8784
-0.187,0.128,0.373,17.3,196.7,14.1,0,2018,5,11,13,15,36.829,-0.2179,0.3976,0.1121,-0.8841
-0.151,0.31,0.435,-15.4,101.3,5.8,0,2018,5,11,13,15,36.833,-0.2298,0.3914,0.0891,-0.8865
-0.049,0.358,0.193,-42,-27.6,4.2,0,2018,5,11,13,15,36.849,-0.233,0.3949,0.0834,-0.8847
0.008,0.269,-0.135,-44.8,-91.6,3,0,2018,5,11,13,15,36.889,-0.2296,0.4047,0.0923,-0.8802
-0.031,0.02,-0.232,-32.7,-89.1,-5.5,1023,2018,5,11,13,15,36.909,-0.2236,0.4143,0.1051,-0.8759
0.024,0.175,-0.159,-21.1,-90,-16,1023,2018,5,11,13,15,36.913,-0.2159,0.4218,0.1161,-0.8728
0.031,0.249,0.047,-21.3,-130.9,-12.1,1023,2018,5,11,13,15,36.931,-0.2059,0.4293,0.1313,-0.8694
0.046,0.199,0.086,-26.1,-144,-6.7,1023,2018,5,11,13,15,36.95,-0.1944,0.4381,0.1512,-0.8644
0.079,0.08,0.001,-24.4,-127.7,-3.6,1023,2018,5,11,13,15,36.971,-0.1836,0.4468,0.1702,-0.8588
0.091,-0.081,0.016,-17.2,-95.1,-0.6,1023,2018,5,11,13,15,37.01,-0.175,0.4539,0.1859,-0.8536
0.097,-0.07,0.086,-7.6,-42.5,1.1,1023,2018,5,11,13,15,37.032,-0.1699,0.4579,0.1962,-0.8502
0.061,-0.036,0.193,-2.5,27,6.4,1023,2018,5,11,13,15,37.036,-0.1701,0.4582,0.197,-0.8498
-0.003,-0.035,0.147,0.4,91.5,10.1,1023,2018,5,11,13,15,37.055,-0.1765,0.4552,0.1881,-0.8521
-0.039,-0.051,0.036,5.7,141.9,12.4,1023,2018,5,11,13,15,37.075,-0.1879,0.4498,0.1714,-0.856
-0.069,-0.018,0.014,12.8,173.4,10,1023,2018,5,11,13,15,37.112,-0.2021,0.4423,0.1491,-0.8609
-0.076,0.034,0.078,15.2,182.3,4,1023,2018,5,11,13,15,37.132,-0.2169,0.4325,0.123,-0.8664
-0.089,0.193,0.303,3.6,134.4,-3.9,1023,2018,5,11,13,15,37.136,-0.2289,0.4243,0.0985,-0.8705
-0.056,0.446,0.311,-20.9,34.3,-5.1,0,2018,5,11,13,15,37.153,-0.2344,0.4224,0.0851,-0.8713
-0.029,0.353,0.139,-40.4,-42.9,-4,0,2018,5,11,13,15,37.193,-0.2335,0.4276,0.0849,-0.869
-0.052,0.178,-0.095,-45.5,-68.4,-11.2,0,2018,5,11,13,15,37.213,-0.2286,0.4369,0.0916,-0.865
-0.05,0.105,-0.205,-37.4,-76,-18.3,0,2018,5,11,13,15,37.217,-0.2213,0.4464,0.0997,-0.8612
0.016,0.142,-0.069,-31,-98.7,-14.7,0,2018,5,11,13,15,37.235,-0.2125,0.455,0.1102,-0.8576
0.051,0.109,0.01,-30.1,-92.6,-9.5,0,2018,5,11,13,15,37.255,-0.203,0.4635,0.1221,-0.8537
0.055,0.098,-0.038,-24.4,-63.1,-8,0,2018,5,11,13,15,37.292,-0.1954,0.4709,0.1312,-0.8501
0.08,0.107,-0.096,-15.1,-25.3,-3.4,0,2018,5,11,13,15,37.313,-0.191,0.476,0.1359,-0.8475
0.116,0.157,-0.051,-2.6,0.7,6.1,0,2018,5,11,13,15,37.317,-0.1905,0.4775,0.1373,-0.8465
0.087,0.11,0.057,7.8,31.4,15.6,0,2018,5,11,13,15,37.337,-0.1933,0.4763,0.1361,-0.8468
0.034,0.042,0.13,14.7,80.6,23.8,0,2018,5,11,13,15,37.354,-0.2005,0.4716,0.1288,-0.8489
-0.014,-0.012,0.109,20.8,127.8,28.3,0,2018,5,11,13,15,37.391,-0.2127,0.4638,0.1156,-0.8521
-0.036,-0.031,0.099,24.7,167.2,25.7,0,2018,5,11,13,15,37.411,-0.2287,0.4533,0.0965,-0.856
-0.056,0.104,0.079,26.2,162.6,18.9,0,2018,5,11,13,15,37.416,-0.2449,0.4414,0.0738,-0.86
-0.029,0.104,0.14,21.2,121.5,13.6,0,2018,5,11,13,15,37.435,-0.258,0.4313,0.0547,-0.8627
0.005,0.144,0.139,9.5,79.4,7.7,0,2018,5,11,13,15,37.455,-0.2668,0.4243,0.0413,-0.8642
0.012,0.23,-0.019,4.5,47,1.3,0,2018,5,11,13,15,37.493,-0.272,0.4204,0.0326,-0.8649
0.012,0.384,-0.002,-0.9,-0.6,-7,0,2018,5,11,13,15,37.513,-0.2733,0.4189,0.0286,-0.8653
0.004,0.499,0.033,-7.6,-91.6,-3.2,0,2018,5,11,13,15,37.518,-0.2691,0.4218,0.0348,-0.8651
0.022,0.398,0.003,-15.1,-179.4,7.2,0,2018,5,11,13,15,37.539,-0.259,0.4301,0.0558,-0.8629
0.02,0.188,-0.03,-19.4,-204.6,12.3,0,2018,5,11,13,15,37.559,-0.2458,0.4413,0.0855,-0.8587
0.038,0.058,-0.072,-16.6,-184.4,13.6,0,2018,5,11,13,15,37.575,-0.2325,0.4523,0.1149,-0.8532
0.049,-0.044,-0.093,-9.1,-138.8,12.8,0,2018,5,11,13,15,37.594,-0.2217,0.4613,0.1395,-0.8476
0.079,-0.063,-0.03,-5.1,-90.4,12.7,0,2018,5,11,13,15,37.634,-0.2145,0.4671,0.1574,-0.8431
0.071,0.01,0.09,-1.4,-47.3,16.4,0,2018,5,11,13,15,37.654,-0.211,0.4698,0.1681,-0.8404
0.015,0.017,0.152,1.1,-2.4,22.1,0,2018,5,11,13,15,37.658,-0.2118,0.4695,0.1728,-0.8395
-0.012,-0.062,0.076,4.6,56.4,25.9,0,2018,5,11,13,15,37.676,-0.2178,0.4664,0.1707,-0.8401
0.035,-0.278,-0.083,18,149.2,24.9,0,2018,5,11,13,15,37.715,-0.2296,0.46,0.1587,-0.8428
0.061,-0.176,-0.122,34.9,253.9,22.8,1023,2018,5,11,13,15,37.735,-0.2487,0.4468,0.1313,-0.8492
0.019,0.097,-0.053,44,295.3,21.4,1023,2018,5,11,13,15,37.762,-0.2727,0.4278,0.0925,-0.8567
-0.017,0.334,0.157,34.8,240.4,14.6,1023,2018,5,11,13,15,37.776,-0.2948,0.4079,0.0545,-0.8623
-0.027,0.56,0.189,13.3,111.1,8.9,1023,2018,5,11,13,15,37.778,-0.3085,0.3951,0.0302,-0.8646
-0.036,0.413,0.038,1.8,8.8,6.1,1023,2018,5,11,13,15,37.815,-0.3134,0.3911,0.0231,-0.865
0.017,0.313,-0.025,-8.5,-56.3,-4,1023,2018,5,11,13,15,37.817,-0.3117,0.3931,0.0268,-0.8645
0.057,0.323,-0.034,-14,-136.3,-5.3,1023,2018,5,11,13,15,37.835,-0.3042,0.4001,0.0405,-0.8635
0.029,0.22,0,-19.5,-184.7,-0.6,1023,2018,5,11,13,15,37.87,-0.2921,0.4113,0.0645,-0.8609
0.025,0.13,0.001,-23.8,-182.7,0,1023,2018,5,11,13,15,37.89,-0.2788,0.424,0.0914,-0.8568
0.035,-0.008,-0.013,-24,-146,-3.5,1023,2018,5,11,13,15,37.897,-0.2662,0.4357,0.1144,-0.8521
0.043,-0.06,-0.016,-18.9,-89.1,-6.9,1023,2018,5,11,13,15,37.932,-0.257,0.4446,0.1305,-0.848
0.08,0.018,0.039,-16.7,-46.6,-7.3,1023,2018,5,11,13,15,37.954,-0.2511,0.4506,0.1387,-0.8453
0.051,0.094,0.101,-17.1,-22,-1.9,1023,2018,5,11,13,15,37.958,-0.248,0.4545,0.1419,-0.8435
0.041,-0.087,0.036,-12.7,29.2,3.5,1023,2018,5,11,13,15,37.999,-0.2486,0.4565,0.1411,-0.8425
0.054,-0.269,-0.113,1.7,138.4,3.9,0,2018,5,11,13,15,38.018,-0.2559,0.4537,0.1293,-0.8437
0.023,-0.133,-0.124,18.7,257,4.2,0,2018,5,11,13,15,38.022,-0.2722,0.4426,0.1,-0.8484
0.046,0.226,-0.067,28.5,299.8,7.3,0,2018,5,11,13,15,38.043,-0.2945,0.425,0.0587,-0.8539
0.036,0.438,0.073,26.7,229.9,9.5,0,2018,5,11,13,15,38.062,-0.3151,0.4062,0.0204,-0.8574
0.012,0.418,0.2,13.1,119.2,8.3,0,2018,5,11,13,15,38.081,-0.3284,0.3936,-0.0033,-0.8585
0.011,0.422,0.145,-3.2,22.5,7.1,0,2018,5,11,13,15,38.116,-0.3341,0.389,-0.0126,-0.8583
-0.017,0.477,0.036,-15.7,-52.2,4.1,0,2018,5,11,13,15,38.136,-0.3338,0.3916,-0.0103,-0.8573
-0.009,0.403,-0.089,-21,-123.5,2.5,0,2018,5,11,13,15,38.14,-0.328,0.3997,0.0023,-0.8559
0.037,0.244,-0.123,-20.9,-172.2,2.7,0,2018,5,11,13,15,38.16,-0.3177,0.4113,0.0238,-0.8539
0.054,0.184,-0.045,-23.8,-200.6,3.4,0,2018,5,11,13,15,38.181,-0.3045,0.4249,0.0511,-0.8509
0.052,0.066,0.036,-29.8,-189.6,1.2,0,2018,5,11,13,15,38.219,-0.2901,0.4391,0.0786,-0.8466
0.074,0.004,0.004,-32.7,-156.9,-5.3,0,2018,5,11,13,15,38.241,-0.2765,0.4525,0.1021,-0.8416
0.124,-0.044,-0.064,-29,-116.8,-9.2,0,2018,5,11,13,15,38.245,-0.2648,0.4644,0.1199,-0.8365
0.154,-0.058,-0.045,-19.1,-64,-9.5,0,2018,5,11,13,15,38.263,-0.2562,0.4732,0.1312,-0.8325
0.111,-0.004,0.04,-6.7,8.3,-4.7,0,2018,5,11,13,15,38.285,-0.2529,0.4769,0.1337,-0.831
0.076,-0.031,0.015,3.6,82.6,1.4,0,2018,5,11,13,15,38.299,-0.2565,0.4752,0.1265,-0.832
0.047,0.011,-0.058,15.5,161.5,5.8,0,2018,5,11,13,15,38.337,-0.267,0.4685,0.1091,-0.835
0.041,0.119,-0.077,26.7,211.8,12.6,0,2018,5,11,13,15,38.357,-0.2831,0.4566,0.0826,-0.8393
0.026,0.245,-0.03,32.9,213.3,16.4,0,2018,5,11,13,15,38.361,-0.302,0.4407,0.0534,-0.8435
-0.004,0.338,0.072,29.3,160.1,14.8,0,2018,5,11,13,15,38.381,-0.3184,0.4257,0.0284,-0.8464
-0.003,0.377,0.139,19.1,79.8,11,0,2018,5,11,13,15,38.401,-0.329,0.4153,0.0131,-0.8479
0.016,0.368,0.082,7.3,0,8.7,0,2018,5,11,13,15,38.441,-0.333,0.4112,0.0091,-0.8484
0.005,0.267,-0.09,5.3,-44.8,4,0,2018,5,11,13,15,38.459,-0.332,0.4119,0.0138,-0.8484
-0.002,0.271,-0.155,9,-77,0.2,0,2018,5,11,13,15,38.463,-0.3279,0.4144,0.0234,-0.8486
0.003,0.225,-0.045,14.2,-106.6,0.2,0,2018,5,11,13,15,38.484,-0.321,0.4178,0.038,-0.849
-0.018,0.328,0.153,6.4,-136.4,1.4,0,2018,5,11,13,15,38.505,-0.3122,0.4228,0.0565,-0.8488
-0.024,0.271,0.222,-9.3,-167.4,2,1023,2018,5,11,13,15,38.521,-0.301,0.4313,0.0794,-0.8467
0.007,0.108,0.067,-20.7,-172.7,-1.9,1023,2018,5,11,13,15,38.542,-0.2881,0.4426,0.1041,-0.8427
0.082,-0.025,-0.074,-24.8,-153.3,-7,1023,2018,5,11,13,15,38.563,-0.2748,0.4544,0.1262,-0.8378
0.102,-0.032,-0.084,-21.5,-117.7,-7.4,1023,2018,5,11,13,15,38.584,-0.263,0.4655,0.1445,-0.8325
0.102,0.022,-0.043,-12.6,-67.7,-3,1023,2018,5,11,13,15,38.603,-0.2548,0.473,0.1564,-0.8287
0.069,0.083,0.006,-3,-5.4,3.6,1023,2018,5,11,13,15,38.625,-0.2516,0.4761,0.1606,-0.8271
0.052,0.056,0.005,6.5,58.7,11.9,1023,2018,5,11,13,15,38.661,-0.2545,0.4746,0.1566,-0.8278
0.039,0.043,-0.027,18.1,126.4,20.8,1023,2018,5,11,13,15,38.68,-0.2641,0.4683,0.1443,-0.8306
0.031,0.083,-0.096,35.2,186.4,31.3,1023,2018,5,11,13,15,38.684,-0.2798,0.4569,0.1242,-0.8351
0.038,0.201,-0.058,49.6,214.6,38.8,1023,2018,5,11,13,15,38.706,-0.3001,0.4396,0.0991,-0.8407
-0.012,0.292,0.064,53.7,193.4,40.2,0,2018,5,11,13,15,38.725,-0.3208,0.4199,0.0744,-0.8456
-0.039,0.245,0.184,45.7,126.9,32.8,0,2018,5,11,13,15,38.744,-0.3373,0.4028,0.0561,-0.8489
-0.022,0.137,0.152,32.8,58.7,19.9,0,2018,5,11,13,15,38.765,-0.347,0.3915,0.047,-0.8509
0.022,0.041,0.028,22.9,22.7,6,0,2018,5,11,13,15,38.802,-0.3512,0.3849,0.0437,-0.8523
0.043,0.025,-0.043,21.6,9.9,-9.7,0,2018,5,11,13,15,38.806,-0.3515,0.3809,0.0422,-0.8541
0.075,0.045,0.01,20.6,-0.5,-25,0,2018,5,11,13,15,38.825,-0.3486,0.3781,0.0413,-0.8565
0.044,0.166,0.108,15,-19.2,-34.9,0,2018,5,11,13,15,38.844,-0.3431,0.3761,0.0411,-0.8597
0.015,0.321,0.134,4.7,-60.8,-37.2,0,2018,5,11,13,15,38.864,-0.3349,0.3772,0.0453,-0.8622
0.022,0.302,0.065,-3.2,-99.3,-35.3,0,2018,5,11,13,15,38.884,-0.3239,0.3823,0.0554,-0.8635
0.089,0.16,0.034,-8.8,-122.7,-31.2,0,2018,5,11,13,15,38.904,-0.3113,0.3899,0.0698,-0.8637
0.076,0.032,0.109,-10.6,-96.3,-27.8,0,2018,5,11,13,15,38.942,-0.299,0.3977,0.0838,-0.8633
0.06,0.044,0.126,-9.9,-42.4,-25,0,2018,5,11,13,15,38.964,-0.2902,0.4029,0.0912,-0.8631
0.023,0.114,0.097,-9.5,11.5,-20.6,0,2018,5,11,13,15,38.968,-0.2859,0.4049,0.0904,-0.8637
0.018,0.192,0.024,-6.3,49.8,-13.3,0,2018,5,11,13,15,38.987,-0.2858,0.4047,0.0838,-0.8645
0.025,0.305,0.021,-3.4,57.9,-2.6,0,2018,5,11,13,15,39.008,-0.2887,0.4027,0.0744,-0.8653
0.015,0.332,0.03,-0.7,37.2,7.5,0,2018,5,11,13,15,39.026,-0.2925,0.4005,0.0671,-0.8657
-0.013,0.295,0.037,2.3,10.6,15.7,0,2018,5,11,13,15,39.063,-0.2959,0.399,0.0645,-0.8654
-0.03,0.186,0.028,4,-11,20.8,0,2018,5,11,13,15,39.083,-0.2986,0.3984,0.0663,-0.8646
-0.018,0.039,-0.005,6.7,-9.1,22.4,0,2018,5,11,13,15,39.087,-0.3009,0.3978,0.0696,-0.8638
0,0.006,-0.031,11.4,14.6,20.8,0,2018,5,11,13,15,39.108,-0.3042,0.3961,0.0713,-0.8633
-0.007,0.061,-0.038,16.3,34.5,18.8,0,2018,5,11,13,15,39.126,-0.3087,0.3925,0.0691,-0.8635
-0.002,0.114,-0.091,20.9,38.5,16.1,0,2018,5,11,13,15,39.165,-0.3134,0.3877,0.065,-0.8644
0.013,0.035,-0.087,26.5,41.7,10.5,0,2018,5,11,13,15,39.187,-0.3176,0.3822,0.0604,-0.8656
0.059,0.02,-0.026,30.3,39.4,0.7,0,2018,5,11,13,15,39.191,-0.3206,0.3761,0.0559,-0.8675
0.054,0.064,0.039,29.8,37.3,-7.2,0,2018,5,11,13,15,39.209,-0.3219,0.3697,0.0511,-0.87
0.034,0.126,0.125,23.3,34.3,-14.4,0,2018,5,11,13,15,39.228,-0.3222,0.3634,0.0458,-0.8728
-0.022,0.295,0.251,8.8,10.4,-19.6,0,2018,5,11,13,15,39.247,-0.321,0.3596,0.0418,-0.8751
-0.015,0.429,0.288,-13.4,-53.9,-18.5,0,2018,5,11,13,15,39.282,-0.3166,0.3615,0.0438,-0.8758
0.002,0.302,0.213,-30,-116.9,-15.9,0,2018,5,11,13,15,39.303,-0.3085,0.3699,0.055,-0.8745
0.049,0.085,0.106,-38.9,-137.1,-17.2,0,2018,5,11,13,15,39.306,-0.2977,0.3826,0.0723,-0.8716
0.057,-0.042,0.047,-40.8,-103,-22.8,0,2018,5,11,13,15,39.328,-0.2869,0.3951,0.0871,-0.8682
0.047,0.03,0.048,-39.3,-56.3,-27.1,0,2018,5,11,13,15,39.369,-0.2782,0.4055,0.095,-0.8655
0.022,0.209,0.054,-37.9,-34.5,-25,1023,2018,5,11,13,15,39.373,-0.2717,0.4136,0.0972,-0.8634
0.012,0.335,0.04,-36.8,-44,-18.1,1023,2018,5,11,13,15,39.387,-0.2663,0.4214,0.0995,-0.8611
0.039,0.335,-0.022,-32.1,-66.8,-7.6,1023,2018,5,11,13,15,39.427,-0.2608,0.4295,0.1054,-0.8581
0.043,0.167,-0.079,-21.4,-61.5,2.8,1023,2018,5,11,13,15,39.447,-0.2559,0.4365,0.1141,-0.8549
0.024,0.073,-0.051,-9.1,-22.4,10.4,1023,2018,5,11,13,15,39.452,-0.2537,0.4407,0.12,-0.8525
0.009,0.092,-0.023,0.6,22.7,16.2,1023,2018,5,11,13,15,39.468,-0.2557,0.4412,0.12,-0.8517
0.005,0.104,-0.006,8.3,58.7,20.5,1023,2018,5,11,13,15,39.505,-0.2614,0.4381,0.1146,-0.8523
0.03,0.136,-0.043,16.9,75.4,23.4,1023,2018,5,11,13,15,39.527,-0.2695,0.4326,0.1062,-0.8537
0.038,0.084,-0.022,25.3,85.5,23,1023,2018,5,11,13,15,39.531,-0.2784,0.4253,0.0965,-0.8556
0.036,0.17,0.043,28.9,80.9,20.4,1023,2018,5,11,13,15,39.549,-0.2873,0.4167,0.0861,-0.8581
0.018,0.311,0.138,25.7,42.5,19.2,1023,2018,5,11,13,15,39.568,-0.2944,0.409,0.0794,-0.86
0.005,0.305,0.185,17,-19.7,19.8,1023,2018,5,11,13,15,39.589,-0.2978,0.405,0.0804,-0.8606
0.022,0.173,0.154,8.3,-59.3,18,1023,2018,5,11,13,15,39.609,-0.2974,0.405,0.0888,-0.8599
0.047,0.03,0.114,3.3,-63.1,14.5,1023,2018,5,11,13,15,39.629,-0.2951,0.4071,0.0997,-0.8585
0.052,-0.001,0.077,1.7,-39.1,9.1,1023,2018,5,11,13,15,39.648,-0.2931,0.4089,0.108,-0.8574
0.041,0.069,0.082,-0.4,-21.8,5.3,1023,2018,5,11,13,15,39.688,-0.2919,0.4099,0.1123,-0.8567
0.047,0.216,0.134,-4.8,-34.4,4.9,1023,2018,5,11,13,15,39.71,-0.2908,0.4114,0.1162,-0.8559
0.023,0.219,0.127,-9.5,-63.1,6.1,0,2018,5,11,13,15,39.714,-0.2882,0.4148,0.1236,-0.854
0.015,0.14,0.077,-13,-80.2,6.1,0,2018,5,11,13,15,39.734,-0.2841,0.4201,0.1345,-0.8512
0.029,0.073,0.025,-13.5,-75.4,5,0,2018,5,11,13,15,39.754,-0.2792,0.4258,0.1455,-0.8482
0.03,0.091,0.018,-11.3,-61.6,4.3,0,2018,5,11,13,15,39.789,-0.2749,0.4308,0.1546,-0.8455
0.019,0.123,0.045,-10.1,-56.4,4.6,0,2018,5,11,13,15,39.793,-0.271,0.4349,0.162,-0.8432
0.018,0.142,0.036,-9.8,-60.1,5.4,0,2018,5,11,13,15,39.81,-0.2677,0.439,0.1704,-0.8405
0.025,0.107,0.022,-8.3,-59.7,5.5,0,2018,5,11,13,15,39.849,-0.2638,0.4428,0.1786,-0.838
0.056,0.083,0.02,-4.7,-50.9,4.7,0,2018,5,11,13,15,39.871,-0.2601,0.4462,0.1859,-0.8357
0.077,0.075,0.037,-2,-37.6,4.6,0,2018,5,11,13,15,39.875,-0.257,0.4487,0.1917,-0.8341
0.079,0.074,0.044,-0.2,-30.8,4.2,0,2018,5,11,13,15,39.894,-0.2546,0.4503,0.1958,-0.833
0.108,0.031,0,2.6,-25.4,1.6,0,2018,5,11,13,15,39.915,-0.2523,0.4516,0.1995,-0.8321
0.117,-0.014,-0.042,10.1,-12.6,-2.5,0,2018,5,11,13,15,39.935,-0.2501,0.4523,0.2022,-0.8317
0.102,0.03,-0.02,17.5,1.2,-7.4,0,2018,5,11,13,15,39.955,-0.248,0.4514,0.2028,-0.8327
0.062,0.112,0.021,21.8,0.9,-9.6,0,2018,5,11,13,15,39.974,-0.2457,0.4492,0.2019,-0.8348
0.035,0.179,0.019,23.7,-11.3,-8.9,0,2018,5,11,13,15,39.991,-0.2431,0.4464,0.2027,-0.8369
0.002,0.131,-0.003,26.9,-22.1,-6.5,0,2018,5,11,13,15,40.029,-0.2395,0.4437,0.2054,-0.8387
-0.043,0.049,0.022,31.8,-17.9,-4.7,0,2018,5,11,13,15,40.049,-0.2358,0.4403,0.2087,-0.8407
-0.094,-0.006,0.122,34,-1.5,-5.5,0,2018,5,11,13,15,40.054,-0.2333,0.4354,0.2111,-0.8434
-0.125,0.043,0.175,29.3,11.6,-7.7,0,2018,5,11,13,15,40.073,-0.2315,0.4307,0.211,-0.8463
-0.142,0.138,0.185,21.9,8.1,-7.8,0,2018,5,11,13,15,40.111,-0.2302,0.4267,0.2097,-0.849
-0.149,0.153,0.179,15,-2.7,-4.9,0,2018,5,11,13,15,40.132,-0.2288,0.4242,0.2096,-0.8507
-0.151,0.118,0.147,8.6,-8,-2.5,0,2018,5,11,13,15,40.136,-0.2274,0.4228,0.2107,-0.8514
-0.126,0.092,0.122,2.2,-6.2,-0.3,0,2018,5,11,13,15,40.156,-0.2264,0.4224,0.2119,-0.8516
-0.098,0.12,0.104,-3.1,-4.8,1.6,0,2018,5,11,13,15,40.177,-0.2262,0.4227,0.2127,-0.8513
-0.058,0.141,0.107,-7.7,-9.9,4.7,0,2018,5,11,13,15,40.194,-0.2264,0.4237,0.2138,-0.8505
-0.05,0.114,0.108,-11.3,-16.7,7.2,0,2018,5,11,13,15,40.213,-0.2266,0.4254,0.2159,-0.8491
-0.05,0.072,0.091,-13.5,-21.2,7.4,0,2018,5,11,13,15,40.233,-0.2268,0.4277,0.2188,-0.8471
-0.029,0.041,0.056,-13.2,-19.8,6.3,0,2018,5,11,13,15,40.27,-0.2268,0.4296,0.2213,-0.8455
0.009,0.043,0.049,-11.2,-16.4,4.9,0,2018,5,11,13,15,40.292,-0.2267,0.4315,0.2235,-0.844
0.032,0.064,0.043,-8.2,-15.6,3.9,0,2018,5,11,13,15,40.296,-0.2264,0.4332,0.2251,-0.8428
0.023,0.054,0.049,-4.9,-16.1,3.2,1023,2018,5,11,13,15,40.314,-0.2257,0.4345,0.2268,-0.8418
-0.001,0.041,0.064,-3.4,-15.4,1,1023,2018,5,11,13,15,40.334,-0.2249,0.4353,0.2285,-0.8411
0.013,0.035,0.088,-2.9,-11,-2.5,1023,2018,5,11,13,15,40.356,-0.2239,0.4358,0.2299,-0.8408
0.025,0.076,0.074,-2.3,-7,-5.7,1023,2018,5,11,13,15,40.375,-0.2225,0.4363,0.23,-0.8409
0.019,0.099,0.056,-1.6,-8.7,-6.4,1023,2018,5,11,13,15,40.397,-0.2208,0.4369,0.2296,-0.8411
-0.001,0.096,0.064,-1.9,-9.3,-6.3,1023,2018,5,11,13,15,40.417,-0.2189,0.4375,0.2295,-0.8414
-0.001,0.083,0.071,-3.2,-6.6,-6.7,1023,2018,5,11,13,15,40.439,-0.2173,0.438,0.2292,-0.8416
0.012,0.111,0.068,-2.1,-2.1,-6.7,1023,2018,5,11,13,15,40.456,-0.2159,0.4385,0.2286,-0.8418
0.014,0.148,0.065,-0.2,-2.7,-5.3,1023,2018,5,11,13,15,40.494,-0.2149,0.439,0.2284,-0.8419
0.011,0.14,0.071,0.3,-5.7,-2.8,1023,2018,5,11,13,15,40.513,-0.214,0.4393,0.2287,-0.8419
-0.002,0.104,0.066,0.6,-5.6,-0.4,1023,2018,5,11,13,15,40.517,-0.2133,0.4395,0.2295,-0.8417
0.013,0.091,0.076,0.9,-1.5,0.9,1023,2018,5,11,13,15,40.537,-0.2128,0.4392,0.2294,-0.842
0.024,0.122,0.094,0.7,1.1,1.9,1023,2018,5,11,13,15,40.556,-0.213,0.4391,0.2295,-0.842
0.024,0.143,0.09,-0.1,0,4.2,1023,2018,5,11,13,15,40.577,-0.2135,0.4389,0.2296,-0.842
0.024,0.105,0.083,-0.7,-2.2,6.9,0,2018,5,11,13,15,40.598,-0.2143,0.4387,0.2302,-0.8417
0.013,0.059,0.08,-1.3,-0.1,7.2,0,2018,5,11,13,15,40.635,-0.2144,0.4383,0.2337,-0.8409
0.008,0.055,0.075,-1.9,4.6,6.2,0,2018,5,11,13,15,40.655,-0.2147,0.4375,0.2369,-0.8403
0.009,0.084,0.076,-2.4,5,5.5,0,2018,5,11,13,15,40.659,-0.2149,0.4367,0.2396,-0.8399
-0.001,0.099,0.092,-3.5,1.3,6.7,0,2018,5,11,13,15,40.696,-0.2153,0.4364,0.2429,-0.839
0.004,0.056,0.106,-4.2,-0.8,8.2,0,2018,5,11,13,15,40.718,-0.2159,0.4363,0.2468,-0.8378
-0.018,0.013,0.11,-5.3,5.5,7.4,0,2018,5,11,13,15,40.722,-0.2166,0.4356,0.2497,-0.8371
-0.03,0.01,0.115,-6.4,12.9,5.9,0,2018,5,11,13,15,40.738,-0.2178,0.4347,0.2516,-0.8367
-0.015,0.056,0.103,-5.3,16.7,6.5,0,2018,5,11,13,15,40.757,-0.2194,0.4335,0.2521,-0.8368
-0.022,0.082,0.093,-2,11.5,10.1,0,2018,5,11,13,15,40.777,-0.2213,0.4327,0.2535,-0.8363
-0.051,0.054,0.087,1.2,9.8,13.3,0,2018,5,11,13,15,40.798,-0.2231,0.4307,0.2548,-0.8364
-0.047,-0.012,0.098,3.6,17.2,14.1,0,2018,5,11,13,15,40.838,-0.2254,0.4279,0.2566,-0.8367
-0.029,-0.007,0.092,4.5,28.1,14.4,0,2018,5,11,13,15,40.857,-0.2285,0.4246,0.2572,-0.8374
-0.034,0.039,0.088,5.1,32.2,15.5,0,2018,5,11,13,15,40.861,-0.2322,0.4207,0.256,-0.8387
-0.041,0.043,0.085,5.5,27.9,16.8,0,2018,5,11,13,15,40.88,-0.2359,0.4168,0.255,-0.8399
-0.056,0.011,0.079,3.6,23.3,16,0,2018,5,11,13,15,40.918,-0.2394,0.4131,0.2545,-0.8409
-0.067,0.026,0.066,1,18.7,14.3,0,2018,5,11,13,15,40.922,-0.2426,0.4099,0.2544,-0.8415
-0.054,0.02,0.044,-1.7,16.7,13.2,0,2018,5,11,13,15,40.937,-0.2454,0.4075,0.2548,-0.8418
-0.049,0.013,0.02,-4,18.7,11.9,0,2018,5,11,13,15,40.974,-0.2481,0.4057,0.255,-0.8418
-0.02,0.02,0.014,-6.5,23.6,9.2,0,2018,5,11,13,15,40.996,-0.2509,0.4043,0.2541,-0.8419
-0.007,0.002,0.024,-9.8,28.5,5.7,0,2018,5,11,13,15,41,-0.2534,0.4035,0.2522,-0.8421
0,0.053,0.015,-14.6,29.8,1.8,0,2018,5,11,13,15,41.018,-0.2559,0.4032,0.2489,-0.8425
0.031,0.123,-0.002,-18.9,23,-1.1,0,2018,5,11,13,15,41.039,-0.2576,0.4041,0.245,-0.8427
0.049,0.156,-0.018,-23.1,10.3,-2,0,2018,5,11,13,15,41.059,-0.2589,0.4061,0.2439,-0.8417
0.044,0.116,-0.021,-26,7.6,-3.3,0,2018,5,11,13,15,41.081,-0.2595,0.4092,0.2435,-0.8401
0.067,0.134,-0.041,-27.8,12.2,-5.4,0,2018,5,11,13,15,41.102,-0.26,0.4127,0.2419,-0.8387
0.127,0.185,-0.058,-26.4,15,-6.3,0,2018,5,11,13,15,41.122,-0.2609,0.4159,0.2406,-0.8372
0.168,0.215,-0.075,-21.6,14.6,-3.9,0,2018,5,11,13,15,41.138,-0.2618,0.4185,0.2393,-0.8359
0.15,0.24,-0.059,-16.6,11.8,-0.4,0,2018,5,11,13,15,41.157,-0.263,0.4203,0.2385,-0.8349
0.123,0.214,-0.04,-12.4,7.2,2.8,0,2018,5,11,13,15,41.197,-0.2642,0.4215,0.2384,-0.834
0.143,0.196,-0.032,-7.1,3.7,5.3,1023,2018,5,11,13,15,41.219,-0.2653,0.4221,0.2396,-0.833
0.142,0.156,-0.025,-1.5,1.8,7.4,1023,2018,5,11,13,15,41.223,-0.2664,0.4219,0.2415,-0.8322
0.111,0.141,-0.01,2.7,3,8.8,1023,2018,5,11,13,15,41.242,-0.2675,0.4209,0.2437,-0.8317
0.052,0.117,0.008,4.6,3.2,9.1,1023,2018,5,11,13,15,41.263,-0.2687,0.4194,0.246,-0.8314
0.046,0.122,0.026,4.8,-0.3,8.2,1023,2018,5,11,13,15,41.282,-0.2687,0.418,0.2464,-0.832
0.06,0.098,0.029,5.2,-8.1,7.2,1023,2018,5,11,13,15,41.301,-0.2687,0.4168,0.2488,-0.8318
0.066,0.073,0.024,6.4,-9.8,6.6,1023,2018,5,11,13,15,41.339,-0.2676,0.4161,0.2508,-0.832
0.056,0.059,0.014,8.1,-6.4,6.7,1023,2018,5,11,13,15,41.36,-0.2665,0.415,0.2527,-0.8323
0.034,0.057,0.014,8.4,-3.7,5.7,1023,2018,5,11,13,15,41.364,-0.2656,0.4136,0.2543,-0.8328
0.034,0.064,0.052,8.1,-6.3,3.3,1023,2018,5,11,13,15,41.384,-0.2646,0.4121,0.2555,-0.8335
0.051,0.074,0.066,6.8,-12.9,1,1023,2018,5,11,13,15,41.422,-0.2629,0.411,0.2568,-0.8342
0.046,0.05,0.056,4.7,-20.4,-0.8,1023,2018,5,11,13,15,41.443,-0.2605,0.4106,0.2594,-0.8343
0.049,0.031,0.032,3,-16.1,-2.7,1023,2018,5,11,13,15,41.447,-0.2577,0.4107,0.2622,-0.8343
0.061,0.036,0.021,3.7,-5.4,-3.7,1023,2018,5,11,13,15,41.463,-0.2552,0.4107,0.2642,-0.8344
0.067,0.098,0.027,6.4,3.7,-4.5,0,2018,5,11,13,15,41.481,-0.2533,0.4101,0.264,-0.8353
0.058,0.134,0.055,7.9,1.1,-3.9,0,2018,5,11,13,15,41.502,-0.2521,0.4087,0.2652,-0.836
0.052,0.116,0.066,6.8,-4.6,-2.8,0,2018,5,11,13,15,41.538,-0.2509,0.4075,0.2676,-0.8362
0.063,0.056,0.042,5.8,-6.6,-2.8,0,2018,5,11,13,15,41.558,-0.2486,0.4067,0.2686,-0.837
0.071,0.056,0.02,6.7,-2,-3.3,0,2018,5,11,13,15,41.563,-0.2463,0.4061,0.2693,-0.8377
0.056,0.095,0.024,8.6,2.8,-3.1,0,2018,5,11,13,15,41.602,-0.2443,0.405,0.2692,-0.8388
0.052,0.115,0.032,9,2.1,-2.4,0,2018,5,11,13,15,41.622,-0.2424,0.4036,0.2683,-0.8404
0.04,0.106,0.034,8.1,1.1,-1.8,0,2018,5,11,13,15,41.626,-0.2406,0.4021,0.2676,-0.8418
0.027,0.11,0.031,6.7,0.4,-2,0,2018,5,11,13,15,41.648,-0.2389,0.4008,0.2671,-0.8431
0.024,0.106,0.03,5.1,-2.8,-2.4,0,2018,5,11,13,15,41.667,-0.237,0.3998,0.2669,-0.8442
0.022,0.087,0.023,4.5,-5.7,-2.5,0,2018,5,11,13,15,41.683,-0.2349,0.3991,0.2672,-0.845
0.011,0.093,0.015,4.2,-3.4,-2.8,0,2018,5,11,13,15,41.72,-0.2329,0.3986,0.2676,-0.8456
0.006,0.076,0.004,3.5,-1,-3,0,2018,5,11,13,15,41.742,-0.2311,0.398,0.2676,-0.8464
0.006,0.065,0,3.4,6.6,-3.5,0,2018,5,11,13,15,41.746,-0.2295,0.3973,0.2672,-0.8473
0.01,0.104,-0.007,2.9,13.9,-3,0,2018,5,11,13,15,41.765,-0.2285,0.3964,0.2653,-0.8486
0.015,0.142,-0.002,3.8,16.7,-0.3,0,2018,5,11,13,15,41.785,-0.2279,0.3952,0.2626,-0.8501
0.023,0.198,0.012,4.3,21.8,5,0,2018,5,11,13,15,41.822,-0.2291,0.3934,0.2619,-0.8509
0.025,0.246,0,4,29.8,14.3,0,2018,5,11,13,15,41.842,-0.2318,0.3909,0.2608,-0.8516
0.044,0.237,-0.021,5.1,44.2,25.7,0,2018,5,11,13,15,41.847,-0.2367,0.3874,0.2588,-0.8525
0.068,0.217,-0.063,9.5,70.2,37.4,0,2018,5,11,13,15,41.862,-0.2447,0.3821,0.2545,-0.8539
0.081,0.229,-0.092,16.1,109.8,49.6,0,2018,5,11,13,15,41.884,-0.2563,0.374,0.2463,-0.8565
0.079,0.357,-0.144,22.6,154.2,65.4,0,2018,5,11,13,15,41.903,-0.2724,0.3621,0.2327,-0.8604
0.112,0.401,-0.216,35,187,83.8,0,2018,5,11,13,15,41.924,-0.2929,0.346,0.2145,-0.8651
0.114,0.406,-0.216,51.3,203.1,98.9,0,2018,5,11,13,15,41.946,-0.3166,0.3252,0.1939,-0.8696
0.127,0.478,-0.198,65.9,199.2,110.2,0,2018,5,11,13,15,41.983,-0.3414,0.3008,0.1736,-0.8733
0.142,0.514,-0.205,78,164.5,120.9,0,2018,5,11,13,15,42.004,-0.366,0.2747,0.1568,-0.8751
0.126,0.329,-0.162,87.5,130.9,127.6,0,2018,5,11,13,15,42.009,-0.3891,0.249,0.147,-0.8745
0.119,0.19,-0.132,94.9,145.8,132.4,0,2018,5,11,13,15,42.028,-0.412,0.2219,0.139,-0.8727
0.141,0.237,-0.18,100.4,162,135.3,0,2018,5,11,13,15,42.048,-0.4352,0.1919,0.1286,-0.8701
0.117,0.343,-0.137,104,143,141.2,0,2018,5,11,13,15,42.085,-0.4582,0.1607,0.1184,-0.866
0.052,0.347,0.044,98.7,91.8,147.1,0,2018,5,11,13,15,42.089,-0.4804,0.1324,0.1139,-0.8594
-0.002,0.289,0.016,92.3,42.5,154.6,0,2018,5,11,13,15,42.106,-0.5019,0.1092,0.1166,-0.85
-0.049,0.118,-0.101,91.5,24.3,161.8,1023,2018,5,11,13,15,42.144,-0.5233,0.089,0.123,-0.8384
-0.085,0.059,-0.119,97.8,-1,162.7,1023,2018,5,11,13,15,42.163,-0.5444,0.07,0.1312,-0.8255
-0.138,-0.055,0.032,105.2,-24.3,159.1,1023,2018,5,11,13,15,42.167,-0.5642,0.0523,0.1448,-0.811
-0.265,-0.167,0.319,105.8,-6.1,153.3,1023,2018,5,11,13,15,42.205,-0.5826,0.0344,0.1602,-0.796
-0.307,-0.236,0.296,92.2,48.4,145.5,1023,2018,5,11,13,15,42.226,-0.5998,0.0136,0.1692,-0.7819
-0.242,-0.14,0.163,84.3,83.5,136.9,1023,2018,5,11,13,15,42.23,-0.6156,-0.0108,0.1698,-0.7693
-0.277,0.04,0.174,78.8,54.9,121.4,1023,2018,5,11,13,15,42.248,-0.6294,-0.0342,0.1696,-0.7575
-0.337,0.054,0.36,69.6,-1.9,105.5,1023,2018,5,11,13,15,42.267,-0.6412,-0.0509,0.1749,-0.7454
-0.33,-0.078,0.37,47.2,-28.4,87.5,1023,2018,5,11,13,15,42.288,-0.6513,-0.06,0.1839,-0.7336
-0.241,-0.103,0.217,29.8,-11.7,72.3,1023,2018,5,11,13,15,42.328,-0.6598,-0.0656,0.191,-0.7237
-0.199,-0.023,0.176,22.6,9.4,56.6,1023,2018,5,11,13,15,42.348,-0.6662,-0.0719,0.1938,-0.7164
-0.21,0.04,0.272,16.3,3.1,35.2,1023,2018,5,11,13,15,42.352,-0.6706,-0.0777,0.1947,-0.7115
-0.213,0.06,0.354,4,-18.6,13.5,1023,2018,5,11,13,15,42.389,-0.6726,-0.0798,0.1975,-0.7086
-0.211,0.037,0.341,-13,-42.4,-8.3,1023,2018,5,11,13,15,42.41,-0.6728,-0.0764,0.2014,-0.7076
-0.18,-0.028,0.235,-27.9,-55.1,-26.6,1023,2018,5,11,13,15,42.414,-0.6715,-0.0679,0.2051,-0.7087
-0.173,-0.088,0.204,-38.1,-53.5,-45.6,1023,2018,5,11,13,15,42.43,-0.6682,-0.0563,0.2085,-0.7118
-0.123,-0.008,0.206,-46.6,-73,-64.7,1023,2018,5,11,13,15,42.449,-0.6628,-0.0422,0.2115,-0.7169
-0.162,0.036,0.288,-57.7,-129,-85.4,1023,2018,5,11,13,15,42.487,-0.6554,-0.022,0.2181,-0.7227
-0.16,-0.044,0.257,-71.8,-184.4,-105.2,0,2018,5,11,13,15,42.492,-0.6455,0.0074,0.2316,-0.7276
-0.086,-0.144,0.157,-77.8,-193.5,-121.3,0,2018,5,11,13,15,42.509,-0.6328,0.0435,0.2471,-0.7324
-0.022,-0.116,0.113,-78.5,-169.4,-130,0,2018,5,11,13,15,42.549,-0.6175,0.0794,0.2603,-0.7379
0.002,-0.033,0.068,-75.2,-164.4,-139.2,0,2018,5,11,13,15,42.568,-0.6002,0.1136,0.2705,-0.744
-0.001,-0.003,0.006,-72.2,-179.4,-145.2,0,2018,5,11,13,15,42.572,-0.5807,0.1481,0.2811,-0.7495
0.024,0.009,-0.09,-65.7,-200.4,-153.7,0,2018,5,11,13,15,42.611,-0.5581,0.1842,0.2944,-0.7535
0.033,-0.106,-0.156,-52.6,-194.5,-161,0,2018,5,11,13,15,42.631,-0.5328,0.2198,0.3097,-0.7561
0.002,-0.149,-0.201,-37,-167.1,-168.9,0,2018,5,11,13,15,42.635,-0.5058,0.2507,0.3235,-0.7593
-0.025,-0.084,-0.181,-20.1,-147.3,-178.2,0,2018,5,11,13,15,42.65,-0.4768,0.2771,0.3349,-0.7639
0.031,0.039,-0.16,-7.1,-138.1,-182.5,0,2018,5,11,13,15,42.69,-0.4457,0.3014,0.3441,-0.7694
0.072,0.043,-0.213,6.4,-126,-181.4,0,2018,5,11,13,15,42.709,-0.4138,0.3221,0.3528,-0.7748
0.07,0.056,-0.244,22.2,-97.1,-176.6,0,2018,5,11,13,15,42.713,-0.3819,0.3387,0.3594,-0.7811
0.025,0.199,-0.174,35.4,-71.6,-169.6,0,2018,5,11,13,15,42.749,-0.3513,0.3506,0.3629,-0.7886
0.014,0.346,-0.012,40.3,-56,-156.9,0,2018,5,11,13,15,42.771,-0.3221,0.3588,0.3648,-0.7964
-0.035,0.468,0.047,34.3,-49.5,-140.6,0,2018,5,11,13,15,42.797,-0.2957,0.3654,0.3653,-0.8034
0.016,0.472,-0.021,31.8,-48.2,-121.1,0,2018,5,11,13,15,42.814,-0.272,0.3714,0.3662,-0.8086
0.094,0.433,-0.038,36.2,-33.8,-99.7,0,2018,5,11,13,15,42.816,-0.2514,0.3752,0.3673,-0.813
0.091,0.364,0.068,38.3,-7.9,-79.9,0,2018,5,11,13,15,42.833,-0.2348,0.376,0.3671,-0.8177
0.034,0.331,0.192,32.5,16.4,-64.6,0,2018,5,11,13,15,42.853,-0.2225,0.3749,0.364,-0.823
0.015,0.34,0.185,22.2,24.3,-53.7,0,2018,5,11,13,15,42.869,-0.2137,0.3735,0.359,-0.8281
0.053,0.404,0.144,14.7,6.5,-43.5,0,2018,5,11,13,15,42.906,-0.2065,0.3731,0.3548,-0.8319
0.083,0.346,0.105,10.8,-19.8,-31.6,0,2018,5,11,13,15,42.927,-0.1997,0.3736,0.3549,-0.8333
0.093,0.219,0.09,8.6,-23.2,-22.2,0,2018,5,11,13,15,42.929,-0.1935,0.3744,0.3579,-0.8331
0.101,0.182,0.102,7.9,-3.7,-14.6,0,2018,5,11,13,15,42.967,-0.1893,0.3745,0.3599,-0.8332
0.103,0.196,0.123,7.7,23.3,-6.4,0,2018,5,11,13,15,42.988,-0.1878,0.3734,0.3588,-0.8345
0.092,0.305,0.147,5.1,37.5,1.9,0,2018,5,11,13,15,42.992,-0.1891,0.3712,0.355,-0.8368
0.109,0.445,0.127,-0.8,19.9,13.2,1023,2018,5,11,13,15,43.031,-0.1919,0.3691,0.352,-0.8383
0.145,0.407,0.054,-6.8,-6.1,25.5,1023,2018,5,11,13,15,43.051,-0.1952,0.3681,0.3531,-0.8376
0.182,0.289,-0.009,-8.1,-4.9,37.4,1023,2018,5,11,13,15,43.055,-0.1998,0.3675,0.3564,-0.8354
0.186,0.202,-0.041,-2.3,27.5,48.6,1023,2018,5,11,13,15,43.095,-0.207,0.365,0.3581,-0.8339
0.161,0.184,0,5.4,76.4,58.8,1023,2018,5,11,13,15,43.099,-0.2181,0.3592,0.3545,-0.8352
0.165,0.304,0.031,8.1,114.2,68.1,1023,2018,5,11,13,15,43.115,-0.2329,0.3502,0.3448,-0.8391
0.215,0.368,-0.05,9.7,129.2,80.7,1023,2018,5,11,13,15,43.135,-0.2507,0.3391,0.3323,-0.8436
0.243,0.329,-0.194,19.8,135.8,95.7,1023,2018,5,11,13,15,43.154,-0.2705,0.3257,0.3192,-0.8478
0.197,0.328,-0.18,35.6,146.1,109.6,1023,2018,5,11,13,15,43.191,-0.292,0.3088,0.3056,-0.8519
0.099,0.326,-0.101,45.3,140.9,117.7,1023,2018,5,11,13,15,43.213,-0.3144,0.2889,0.2925,-0.8555
0.112,0.298,-0.12,49.9,129.1,125.6,1023,2018,5,11,13,15,43.217,-0.3367,0.2679,0.2813,-0.8577
0.127,0.259,-0.179,57.6,127.8,135,1023,2018,5,11,13,15,43.237,-0.3591,0.2458,0.2718,-0.8582
0.087,0.114,-0.099,71.2,162.3,144.4,0,2018,5,11,13,15,43.257,-0.3829,0.2202,0.2605,-0.8584
-0.007,0.062,-0.091,85.4,199.5,146.7,0,2018,5,11,13,15,43.277,-0.4073,0.1899,0.2421,-0.8598
-0.11,0.197,-0.119,93.4,190,141.9,0,2018,5,11,13,15,43.298,-0.4311,0.1561,0.2211,-0.8607
-0.089,0.252,-0.133,100.2,134,141.2,0,2018,5,11,13,15,43.333,-0.4525,0.1237,0.2081,-0.8582
-0.187,0.156,0.022,102.9,101.7,142,0,2018,5,11,13,15,43.354,-0.472,0.094,0.2025,-0.8528
-0.238,0.072,0.113,94.7,102.2,140.3,0,2018,5,11,13,15,43.359,-0.4906,0.0657,0.1984,-0.8458
-0.258,0.148,0.093,82.2,85,134.1,0,2018,5,11,13,15,43.375,-0.5084,0.0393,0.1936,-0.8381
-0.194,0.25,0.022,74.1,22.1,129.9,0,2018,5,11,13,15,43.413,-0.5251,0.0184,0.1934,-0.8285
-0.223,0.071,0.068,73.3,-28.3,123.9,0,2018,5,11,13,15,43.417,-0.5407,0.0043,0.2022,-0.8165
-0.268,-0.074,0.241,66.9,-15.5,111.6,0,2018,5,11,13,15,43.437,-0.5546,-0.0078,0.2128,-0.8043
-0.221,-0.135,0.275,54.9,11.9,94.6,0,2018,5,11,13,15,43.456,-0.5664,-0.0203,0.219,-0.7942
-0.167,-0.036,0.219,44.6,26.1,77.6,0,2018,5,11,13,15,43.475,-0.5759,-0.0328,0.2203,-0.7865
-0.154,0.055,0.216,35.6,12,60,0,2018,5,11,13,15,43.511,-0.5834,-0.0434,0.2207,-0.7803
-0.155,0.043,0.246,24.8,-9,40,0,2018,5,11,13,15,43.531,-0.5886,-0.0499,0.2238,-0.7751
-0.116,-0.021,0.253,14,-18.4,21.4,0,2018,5,11,13,15,43.537,-0.5921,-0.052,0.2262,-0.7716
-0.087,-0.058,0.246,5.3,-10.1,5,0,2018,5,11,13,15,43.57,-0.5936,-0.0516,0.2276,-0.7701
-0.098,-0.022,0.263,-3.1,0.1,-9.2,0,2018,5,11,13,15,43.589,-0.5931,-0.0508,0.2271,-0.7707
-0.059,0.029,0.237,-13.1,-2.6,-20.6,0,2018,5,11,13,15,43.595,-0.5912,-0.0489,0.225,-0.7729
-0.048,0.063,0.194,-22.8,-15.6,-28.6,0,2018,5,11,13,15,43.63,-0.5885,-0.0445,0.2227,-0.7759
-0.044,0.055,0.193,-32.7,-38,-36.2,0,2018,5,11,13,15,43.651,-0.5852,-0.0368,0.2221,-0.7789
-0.039,0.1,0.188,-42,-70.3,-46.6,0,2018,5,11,13,15,43.656,-0.5811,-0.0247,0.224,-0.7819
-0.033,0.009,0.148,-46.8,-100.6,-57.9,0,2018,5,11,13,15,43.694,-0.5758,-0.0077,0.2299,-0.7845
-0.056,-0.033,0.075,-50.9,-107.1,-70.3,0,2018,5,11,13,15,43.715,-0.5686,0.0125,0.2384,-0.7871
-0.036,-0.005,0.05,-54.9,-106.3,-77.5,0,2018,5,11,13,15,43.718,-0.5599,0.0337,0.2465,-0.7902
-0.029,0.027,0.072,-56.6,-130.9,-88.3,0,2018,5,11,13,15,43.753,-0.5496,0.0565,0.2554,-0.7933
0.001,-0.012,0.032,-56.9,-156.5,-98.6,0,2018,5,11,13,15,43.772,-0.5371,0.0828,0.2679,-0.7954
-0.041,-0.102,-0.025,-54.5,-158.7,-108.1,0,2018,5,11,13,15,43.774,-0.5222,0.111,0.2824,-0.7969
-0.096,-0.112,-0.063,-53.7,-144.5,-119.2,1023,2018,5,11,13,15,43.808,-0.5055,0.138,0.2965,-0.7984
-0.056,0.001,-0.054,-52.5,-143.4,-129.2,1023,2018,5,11,13,15,43.83,-0.4868,0.1642,0.3084,-0.8005
0.021,0.035,-0.056,-47.3,-170.5,-138.3,1023,2018,5,11,13,15,43.837,-0.4654,0.1921,0.321,-0.802
0.076,-0.05,-0.097,-38,-175.2,-141.5,1023,2018,5,11,13,15,43.871,-0.441,0.2211,0.3366,-0.802
0.005,-0.167,-0.099,-29.2,-134,-144.4,1023,2018,5,11,13,15,43.892,-0.4165,0.2458,0.3508,-0.8018
-0.067,-0.146,-0.082,-22.4,-76.8,-150.8,1023,2018,5,11,13,15,43.896,-0.3925,0.2654,0.3577,-0.8046
-0.061,0.041,-0.039,-20.4,-52.5,-157.8,1023,2018,5,11,13,15,43.937,-0.3689,0.2817,0.3577,-0.8102
0.019,0.143,-0.034,-18.2,-68.7,-159.2,1023,2018,5,11,13,15,43.956,-0.3438,0.2984,0.3554,-0.8163
0.037,0.192,-0.045,-16.5,-85.8,-154.3,1023,2018,5,11,13,15,43.959,-0.318,0.3149,0.3578,-0.8194
0.054,0.163,-0.1,-12.9,-81.2,-146.4,1023,2018,5,11,13,15,43.995,-0.2925,0.3308,0.3613,-0.8211
0.073,0.163,-0.037,-7.9,-55.6,-138.8,1023,2018,5,11,13,15,44.013,-0.2685,0.3444,0.3631,-0.823
0.078,0.238,0.008,-7,-24.2,-131.6,1023,2018,5,11,13,15,44.018,-0.247,0.3555,0.3607,-0.826
0.106,0.34,0.029,-7.6,-6.2,-120.3,1023,2018,5,11,13,15,44.051,-0.2283,0.3647,0.3551,-0.8298
0.11,0.397,0.028,-9.6,-2.1,-105.7,1023,2018,5,11,13,15,44.072,-0.2121,0.3727,0.3488,-0.8332
0.134,0.361,0.065,-12.6,8.4,-90.8,1023,2018,5,11,13,15,44.079,-0.1986,0.3801,0.3419,-0.8361
0.141,0.393,0.052,-13.5,20.2,-77.3,1023,2018,5,11,13,15,44.114,-0.1881,0.3863,0.3341,-0.8388
0.139,0.451,0.052,-13.7,18.6,-62.7,0,2018,5,11,13,15,44.133,-0.18,0.3915,0.3265,-0.8411
0.156,0.452,0.108,-13.4,8.4,-47.4,0,2018,5,11,13,15,44.139,-0.1737,0.3961,0.3208,-0.8426
0.152,0.364,0.1,-11.7,3.3,-35.2,0,2018,5,11,13,15,44.174,-0.1687,0.4,0.3172,-0.8431
0.137,0.309,0.073,-8.9,10.6,-24.1,0,2018,5,11,13,15,44.196,-0.1654,0.4028,0.3144,-0.8434
0.122,0.263,0.062,-4.8,21.7,-13.8,0,2018,5,11,13,15,44.198,-0.1642,0.4042,0.311,-0.8443
0.098,0.232,0.079,-1.8,36.8,-4.6,0,2018,5,11,13,15,44.236,-0.165,0.4042,0.3063,-0.8458
0.073,0.23,0.094,0.2,53.9,4.4,0,2018,5,11,13,15,44.257,-0.1683,0.4029,0.2998,-0.8481
0.046,0.25,0.101,1.1,66.1,13.2,0,2018,5,11,13,15,44.264,-0.1739,0.4004,0.2916,-0.851
0.032,0.328,0.082,1.2,62,24,0,2018,5,11,13,15,44.302,-0.1811,0.3971,0.2836,-0.8537
0.034,0.349,0.065,0.5,49.3,36.9,0,2018,5,11,13,15,44.32,-0.1895,0.3937,0.2778,-0.8554
0.038,0.288,0.081,-1.1,48.1,50.5,0,2018,5,11,13,15,44.323,-0.1993,0.3899,0.2739,-0.8562
0.026,0.246,0.105,-3.6,65.4,62.8,0,2018,5,11,13,15,44.338,-0.2117,0.3856,0.2692,-0.8567
0.03,0.292,0.071,-5.2,89.7,76,0,2018,5,11,13,15,44.357,-0.2276,0.3801,0.262,-0.8573
0.023,0.373,0.056,-5.9,101,91.3,0,2018,5,11,13,15,44.393,-0.2468,0.3732,0.2526,-0.8578
0.03,0.442,0.025,-5.6,92.6,107.4,0,2018,5,11,13,15,44.413,-0.2683,0.3653,0.2439,-0.8573
0.054,0.446,0.018,-5.9,69.8,124.1,0,2018,5,11,13,15,44.42,-0.291,0.3574,0.2389,-0.8546
0.078,0.36,0,-2.7,61.8,140.3,0,2018,5,11,13,15,44.454,-0.3149,0.3492,0.2374,-0.8499
0.112,0.197,-0.039,3.6,88.1,153.3,0,2018,5,11,13,15,44.476,-0.341,0.3389,0.2355,-0.8445
0.096,0.191,-0.059,11.4,127.9,161.7,0,2018,5,11,13,15,44.482,-0.3704,0.3246,0.2285,-0.8397
0.083,0.414,-0.144,18.7,107.7,167.2,0,2018,5,11,13,15,44.52,-0.4007,0.3077,0.2206,-0.8342
0.087,0.48,-0.134,25,50.4,175,0,2018,5,11,13,15,44.539,-0.4286,0.2923,0.2199,-0.826
0.099,0.229,-0.138,27.8,25.4,186.4,0,2018,5,11,13,15,44.543,-0.4551,0.2791,0.2264,-0.8146
0.111,-0.116,-0.103,34.3,85.1,191.8,0,2018,5,11,13,15,44.561,-0.4832,0.263,0.2301,-0.8026
0.023,-0.012,-0.144,40.9,117.4,184,0,2018,5,11,13,15,44.6,-0.5125,0.2416,0.2262,-0.7922
0.031,0.078,-0.165,51.4,111.8,177.5,1023,2018,5,11,13,15,44.619,-0.5394,0.2197,0.22,-0.7825
0.015,0.144,-0.105,59.5,94.3,173.5,1023,2018,5,11,13,15,44.621,-0.5642,0.197,0.2152,-0.7723
-0.016,0.026,-0.007,60,88.8,173.5,1023,2018,5,11,13,15,44.655,-0.5877,0.1744,0.2127,-0.7608
-0.042,-0.041,0.005,57.2,93.3,170.8,1023,2018,5,11,13,15,44.675,-0.6107,0.1515,0.2101,-0.7482
-0.056,0.091,-0.064,56.5,53.7,163.2,1023,2018,5,11,13,15,44.682,-0.6319,0.1305,0.2094,-0.7346
-0.059,-0.041,-0.075,59.7,19.7,158.2,1023,2018,5,11,13,15,44.716,-0.6507,0.1141,0.2141,-0.7194
-0.068,-0.193,0.021,59.5,37.5,150.8,1023,2018,5,11,13,15,44.736,-0.6679,0.0984,0.2208,-0.7038
-0.03,-0.218,0.037,56.2,95.4,144.6,1023,2018,5,11,13,15,44.743,-0.6845,0.0777,0.222,-0.6899
-0.004,-0.075,-0.045,59.6,130.4,140.3,1023,2018,5,11,13,15,44.779,-0.7002,0.053,0.2162,-0.6782
0,0.085,-0.048,69.5,100.5,134.7,1023,2018,5,11,13,15,44.799,-0.7146,0.0263,0.2102,-0.6665
-0.076,0.039,0.074,74.8,50.2,126.7,1023,2018,5,11,13,15,44.805,-0.7272,0.0039,0.2102,-0.6533
-0.132,-0.096,0.221,64.8,23.8,112.7,1023,2018,5,11,13,15,44.843,-0.7381,-0.0121,0.2146,-0.6394
-0.066,-0.17,0.15,51.1,35,98,0,2018,5,11,13,15,44.846,-0.7471,-0.025,0.2188,-0.6271
-0.015,-0.155,0.089,44.2,53.7,84.9,0,2018,5,11,13,15,44.864,-0.7547,-0.0378,0.2193,-0.6171
0.015,-0.088,0.156,41.2,49,69,0,2018,5,11,13,15,44.902,-0.7607,-0.0506,0.2179,-0.6092
0.007,-0.093,0.241,35.4,33.5,48.8,0,2018,5,11,13,15,44.921,-0.765,-0.0608,0.2172,-0.6031
-0.003,-0.095,0.29,22,17.5,25.1,0,2018,5,11,13,15,44.924,-0.7676,-0.0669,0.2168,-0.5993
0.031,-0.066,0.22,7.3,1.2,5.7,0,2018,5,11,13,15,44.96,-0.7684,-0.0688,0.2165,-0.5981
0.05,-0.074,0.164,-2.1,-11,-8.8,0,2018,5,11,13,15,44.979,-0.7683,-0.0664,0.216,-0.5987
0.071,-0.101,0.174,-6.7,-14.9,-22,0,2018,5,11,13,15,44.986,-0.7671,-0.0613,0.2156,-0.6009
0.058,-0.123,0.198,-10,-8.8,-33.2,0,2018,5,11,13,15,45.019,-0.7647,-0.0556,0.2148,-0.6048
0.036,-0.095,0.215,-15.6,2.7,-43.4,0,2018,5,11,13,15,45.039,-0.7611,-0.0504,0.2126,-0.6106
0.057,-0.055,0.172,-21.9,5.2,-51.7,0,2018,5,11,13,15,45.043,-0.7567,-0.0455,0.2086,-0.6177
0.056,-0.088,0.131,-25.7,5.3,-57.8,0,2018,5,11,13,15,45.081,-0.7517,-0.0399,0.2039,-0.6258
0.06,-0.066,0.113,-27.5,0.4,-66.7,0,2018,5,11,13,15,45.102,-0.7458,-0.0334,0.1992,-0.6347
0.016,-0.016,0.152,-29.1,-19.6,-78.3,0,2018,5,11,13,15,45.106,-0.7387,-0.0253,0.1956,-0.6444
-0.007,-0.037,0.181,-35.1,-57.2,-90.9,0,2018,5,11,13,15,45.145,-0.7304,-0.0127,0.195,-0.6543
-0.017,-0.076,0.142,-42.3,-80.4,-103.4,0,2018,5,11,13,15,45.166,-0.7205,0.0051,0.1974,-0.6646
0.042,-0.124,0.036,-42.8,-77.8,-111.6,0,2018,5,11,13,15,45.17,-0.709,0.0256,0.2006,-0.6755
0.045,-0.135,0.02,-39.8,-54.6,-116.9,0,2018,5,11,13,15,45.189,-0.6961,0.0447,0.2022,-0.6873
-0.012,-0.035,0.102,-40,-47.9,-123.5,0,2018,5,11,13,15,45.223,-0.6823,0.0608,0.2015,-0.7
-0.049,0.121,0.127,-45.9,-93.9,-133,0,2018,5,11,13,15,45.241,-0.6672,0.0786,0.2021,-0.7125
-0.013,0.086,0.02,-47.9,-156.2,-140,0,2018,5,11,13,15,45.248,-0.6498,0.1042,0.2098,-0.723
0.045,-0.094,-0.067,-40.3,-168.6,-144.9,0,2018,5,11,13,15,45.281,-0.6295,0.1348,0.2226,-0.732
0.041,-0.218,-0.047,-28.9,-129.2,-148.5,0,2018,5,11,13,15,45.3,-0.608,0.1616,0.2345,-0.741
-0.038,-0.108,0.062,-25.3,-89.2,-155.3,0,2018,5,11,13,15,45.305,-0.5859,0.1833,0.2409,-0.7516
-0.059,0.021,0.024,-26.6,-96.5,-163.6,0,2018,5,11,13,15,45.339,-0.5628,0.2026,0.2442,-0.7632
-0.001,0.069,-0.061,-22.7,-124.1,-170,0,2018,5,11,13,15,45.36,-0.5371,0.2241,0.2495,-0.7738
0.061,0.017,-0.121,-12.9,-134.3,-171.1,1023,2018,5,11,13,15,45.366,-0.5088,0.2473,0.2577,-0.7832
0.052,-0.015,-0.13,-1.4,-115.4,-170.1,1023,2018,5,11,13,15,45.401,-0.4799,0.267,0.2667,-0.7919
0.034,0.035,-0.066,7.5,-85.1,-168.9,1023,2018,5,11,13,15,45.423,-0.4507,0.2838,0.2721,-0.8013
0.01,0.137,-0.032,11,-58.8,-166.1,1023,2018,5,11,13,15,45.431,-0.4226,0.2964,0.2729,-0.8117
0.025,0.25,-0.055,12.6,-50.7,-160.2,1023,2018,5,11,13,15,45.468,-0.3959,0.3064,0.2723,-0.8216
0.077,0.31,-0.044,17.7,-50,-149.6,1023,2018,5,11,13,15,45.487,-0.3701,0.3149,0.2723,-0.8304
0.077,0.404,0,20.5,-44.8,-134.7,1023,2018,5,11,13,15,45.489,-0.3458,0.3217,0.2724,-0.8382
0.06,0.43,0.044,20.3,-46,-118,1023,2018,5,11,13,15,45.524,-0.3237,0.3274,0.2732,-0.8445
0.038,0.366,0.054,20.2,-36.6,-101.8,1023,2018,5,11,13,15,45.543,-0.3041,0.3319,0.2742,-0.8497
0.051,0.336,0.04,20.6,-21.6,-87.8,1023,2018,5,11,13,15,45.545,-0.2874,0.3349,0.2741,-0.8543
0.04,0.315,0.045,21,-6.4,-76.2,1023,2018,5,11,13,15,45.577,-0.2735,0.3363,0.2723,-0.8589
0.045,0.355,0.049,20.6,-4.1,-65.9,1023,2018,5,11,13,15,45.598,-0.2616,0.3367,0.2697,-0.8633
0.038,0.339,0.066,19.3,-14.7,-56.3,1023,2018,5,11,13,15,45.607,-0.2509,0.337,0.2685,-0.8668
0.05,0.321,0.086,16.1,-23.7,-47.2,1023,2018,5,11,13,15,45.642,-0.2411,0.3375,0.2692,-0.8691
0.08,0.299,0.059,12.8,-23.4,-39.1,0,2018,5,11,13,15,45.665,-0.2324,0.3384,0.271,-0.8705
0.095,0.275,0.026,11.7,-12,-30.8,0,2018,5,11,13,15,45.671,-0.2255,0.339,0.2722,-0.8718
0.118,0.334,0.033,11.9,-1,-22.5,0,2018,5,11,13,15,45.711,-0.2206,0.3387,0.2719,-0.8732
0.132,0.36,0.072,13.1,3.5,-11.9,0,2018,5,11,13,15,45.729,-0.2174,0.3375,0.2711,-0.8747
0.153,0.376,0.087,12.9,10.5,0.1,0,2018,5,11,13,15,45.73,-0.2163,0.3355,0.2702,-0.876
0.162,0.401,0.048,12.1,20.6,13,0,2018,5,11,13,15,45.763,-0.2177,0.3327,0.2687,-0.8772
0.177,0.399,-0.026,14.2,30.3,25.8,0,2018,5,11,13,15,45.782,-0.2216,0.3287,0.2664,-0.8785
0.185,0.396,-0.056,18.9,37.5,37.6,0,2018,5,11,13,15,45.789,-0.2277,0.3234,0.2636,-0.8797
0.19,0.396,-0.025,23.8,44.2,49.3,0,2018,5,11,13,15,45.824,-0.2357,0.3164,0.2607,-0.881
0.184,0.425,0.051,24.5,51.5,60.7,0,2018,5,11,13,15,45.844,-0.2458,0.3081,0.2573,-0.8822
0.171,0.457,0.098,19.3,48.3,74,0,2018,5,11,13,15,45.849,-0.2579,0.2994,0.2539,-0.8827
0.165,0.415,-0.013,17,36.7,87,0,2018,5,11,13,15,45.885,-0.2718,0.2912,0.2525,-0.8817
0.161,0.416,-0.145,21.6,19.8,97.1,0,2018,5,11,13,15,45.906,-0.2866,0.2828,0.2536,-0.8794
0.143,0.456,-0.044,25.5,-9.5,108.3,0,2018,5,11,13,15,45.912,-0.3015,0.2742,0.259,-0.8756
0.095,0.316,0.121,22.6,-23.5,120.1,0,2018,5,11,13,15,45.947,-0.3169,0.2663,0.2688,-0.8696
0.078,0.079,0.033,16.1,-8.6,127.8,0,2018,5,11,13,15,45.968,-0.334,0.2585,0.2783,-0.8626
0.1,-0.037,-0.239,21.8,30.1,128.3,0,2018,5,11,13,15,45.976,-0.3526,0.2492,0.2829,-0.8564
0.049,0.047,-0.247,35.8,53.3,123.4,0,2018,5,11,13,15,45.992,-0.3719,0.2358,0.2832,-0.8519
-0.023,0.08,-0.013,43.1,37.5,120.6,0,2018,5,11,13,15,46.012,-0.3895,0.2212,0.2831,-0.8479
-0.028,0.037,0.111,37.8,28.1,121.4,0,2018,5,11,13,15,46.032,-0.4065,0.2066,0.2846,-0.8432
0.02,-0.056,0.009,30.7,50.7,122.8,0,2018,5,11,13,15,46.069,-0.424,0.193,0.2846,-0.8378
0.015,-0.036,-0.156,35,81,122.7,0,2018,5,11,13,15,46.089,-0.4421,0.1782,0.281,-0.8328
-0.074,0.02,-0.051,44.4,86.9,120.1,0,2018,5,11,13,15,46.092,-0.4601,0.1602,0.2752,-0.8287
-0.128,0.034,0.132,43.9,80.3,113.6,0,2018,5,11,13,15,46.127,-0.4771,0.1411,0.2697,-0.8243
-0.083,0.039,0.129,36.7,81.2,110,0,2018,5,11,13,15,46.146,-0.4931,0.1233,0.2642,-0.8196
-0.047,0.02,-0.042,34.4,90.8,109.4,0,2018,5,11,13,15,46.154,-0.5089,0.1056,0.2564,-0.8148
-0.041,0.034,-0.036,40.3,105.3,110.5,0,2018,5,11,13,15,46.187,-0.5245,0.0867,0.2472,-0.81
-0.087,0.111,0.07,45.8,115.4,109.6,0,2018,5,11,13,15,46.21,-0.5398,0.0652,0.2361,-0.8052
-0.112,0.133,0.145,44.2,114.3,105.6,0,2018,5,11,13,15,46.212,-0.5541,0.0436,0.2254,-0.8001
-0.093,0.138,0.101,44.9,106.8,99.9,0,2018,5,11,13,15,46.249,-0.5674,0.0226,0.2148,-0.7945
-0.124,0.141,0.122,45.6,84,91.2,0,2018,5,11,13,15,46.27,-0.5791,0.0032,0.2064,-0.7886
-0.136,0.114,0.175,44.2,53.7,76.8,1023,2018,5,11,13,15,46.273,-0.589,-0.0128,0.2016,-0.7824
-0.195,0.064,0.351,36.2,31.2,53.3,1023,2018,5,11,13,15,46.314,-0.5963,-0.0249,0.2001,-0.7769
-0.192,0.035,0.346,18.9,16.7,24.7,1023,2018,5,11,13,15,46.333,-0.6004,-0.0324,0.1996,-0.7736
-0.131,0.035,0.286,4.3,1,-0.3,1023,2018,5,11,13,15,46.337,-0.6017,-0.0356,0.1986,-0.7727
-0.104,0.027,0.227,-5.9,-18,-22.4,1023,2018,5,11,13,15,46.356,-0.6003,-0.0344,0.1988,-0.7738
-0.118,0.003,0.286,-13.6,-37.7,-41.3,1023,2018,5,11,13,15,46.375,-0.5966,-0.0291,0.2009,-0.7763
-0.143,0.025,0.331,-23.4,-57.2,-61.3,1023,2018,5,11,13,15,46.41,-0.5906,-0.0202,0.2047,-0.7802
-0.103,-0.014,0.262,-30.4,-70.1,-78.8,1023,2018,5,11,13,15,46.43,-0.5823,-0.0076,0.21,-0.7852
-0.05,-0.09,0.206,-33.5,-69.8,-92,1023,2018,5,11,13,15,46.435,-0.5717,0.0072,0.216,-0.7914
-0.042,-0.094,0.225,-33.6,-58.3,-101.2,1023,2018,5,11,13,15,46.473,-0.5593,0.0223,0.2208,-0.7986
-0.072,0,0.258,-37.7,-60.9,-109.1,1023,2018,5,11,13,15,46.492,-0.5457,0.037,0.224,-0.8066
-0.094,0.047,0.224,-45.1,-102.7,-121.2,1023,2018,5,11,13,15,46.494,-0.5306,0.0543,0.2293,-0.8141
-0.081,-0.032,0.123,-48.2,-138.7,-133.2,1023,2018,5,11,13,15,46.527,-0.5131,0.077,0.2404,-0.8203
-0.033,-0.167,0.049,-46.7,-129.6,-142.6,1023,2018,5,11,13,15,46.548,-0.4931,0.1022,0.2538,-0.8257
-0.001,-0.195,0.049,-42.4,-90,-150.8,1023,2018,5,11,13,15,46.556,-0.4713,0.1254,0.2636,-0.8321
-0.046,-0.028,0.073,-41,-70.2,-157.7,1023,2018,5,11,13,15,46.592,-0.4488,0.145,0.2677,-0.8401
-0.074,0.09,0.054,-42,-87.3,-164.7,1023,2018,5,11,13,15,46.612,-0.425,0.1641,0.2707,-0.8479
-0.047,0.156,-0.04,-42.4,-116.8,-167.2,1023,2018,5,11,13,15,46.614,-0.3991,0.1857,0.2777,-0.8538
0.005,0.096,-0.129,-36.5,-121.5,-166.1,0,2018,5,11,13,15,46.649,-0.3719,0.2082,0.2864,-0.858
0.07,0.049,-0.142,-27.6,-98.1,-163,0,2018,5,11,13,15,46.669,-0.3442,0.229,0.2941,-0.8616
0.037,0.072,-0.15,-20.1,-67.5,-163.5,0,2018,5,11,13,15,46.676,-0.3171,0.2464,0.2982,-0.8658
0.112,0.165,-0.095,-13.4,-43.4,-161.1,0,2018,5,11,13,15,46.71,-0.2908,0.2605,0.2981,-0.8709
0.159,0.322,-0.072,-9.5,-29.8,-151.7,0,2018,5,11,13,15,46.731,-0.2658,0.272,0.2957,-0.8762
0.142,0.42,-0.001,-9.5,-13.9,-135.5,0,2018,5,11,13,15,46.739,-0.2432,0.2817,0.2917,-0.881
0.1,0.495,-0.02,-12,-4.8,-120,0,2018,5,11,13,15,46.755,-0.2237,0.2902,0.2862,-0.8852
0.142,0.552,-0.02,-11.5,-3.2,-103.1,0,2018,5,11,13,15,46.776,-0.2068,0.2977,0.2806,-0.8886
0.151,0.527,0.008,-8.3,-9.1,-83.9,0,2018,5,11,13,15,46.813,-0.1925,0.304,0.2763,-0.8911
0.112,0.438,0.014,-6,-13.2,-66.4,0,2018,5,11,13,15,46.835,-0.1807,0.309,0.2739,-0.8926
0.077,0.27,0.023,-3.2,0.8,-55.3,0,2018,5,11,13,15,46.84,-0.1711,0.3128,0.2718,-0.8938
0.061,0.263,0.026,-0.3,28.4,-47.4,0,2018,5,11,13,15,46.876,-0.1642,0.315,0.2664,-0.896
0.069,0.367,0.029,0.4,31,-40.2,0,2018,5,11,13,15,46.897,-0.1591,0.316,0.2588,-0.8987
0.07,0.387,0.058,0.6,9.2,-31.1,0,2018,5,11,13,15,46.901,-0.1546,0.3169,0.2537,-0.9006
0.064,0.299,0.071,0,-5.9,-23.6,0,2018,5,11,13,15,46.938,-0.1504,0.318,0.2522,-0.9014
0.061,0.214,0.037,-1.2,-3.8,-20.3,0,2018,5,11,13,15,46.959,-0.1467,0.3192,0.2519,-0.9017
0.063,0.185,0.001,-2.3,5.6,-17.8,0,2018,5,11,13,15,46.964,-0.1438,0.3203,0.2507,-0.902
0.065,0.195,-0.017,-0.7,17.2,-15.3,0,2018,5,11,13,15,46.979,-0.1419,0.3211,0.2479,-0.9029
0.085,0.266,0.014,2.4,20.7,-12.5,0,2018,5,11,13,15,47.019,-0.1409,0.3209,0.2438,-0.9042
0.056,0.244,0.089,2.4,6.2,-9.4,0,2018,5,11,13,15,47.037,-0.1398,0.3206,0.2411,-0.9052
0.017,0.085,0.117,-1.7,3.3,-9.8,0,2018,5,11,13,15,47.039,-0.1385,0.3209,0.2401,-0.9056
0.005,0.103,0.077,-7.7,17.7,-12.4,0,2018,5,11,13,15,47.072,-0.1372,0.3216,0.2366,-0.9064
0.015,0.139,0.053,-12.6,32.3,-14.1,0,2018,5,11,13,15,47.091,-0.1367,0.323,0.2303,-0.9076
0.012,0.174,0.085,-16.9,33.4,-15.1,0,2018,5,11,13,15,47.1,-0.1369,0.3251,0.2237,-0.9085
-0.011,0.203,0.183,-26.1,8.5,-15.7,0,2018,5,11,13,15,47.133,-0.1365,0.3285,0.2188,-0.9085
-0.034,0.173,0.258,-41,-19.1,-17.5,0,2018,5,11,13,15,47.153,-0.1348,0.3346,0.2181,-0.9067
-0.028,0.155,0.171,-55.7,-29.5,-19.2,0,2018,5,11,13,15,47.16,-0.1322,0.3438,0.2201,-0.9032
0.001,0.19,-0.089,-55.5,-18.4,-17.8,0,2018,5,11,13,15,47.195,-0.1299,0.354,0.2215,-0.8992
0.06,0.198,-0.2,-46,-1.2,-17.4,1023,2018,5,11,13,15,47.216,-0.1285,0.3629,0.2206,-0.8961
0.068,0.288,-0.139,-35.1,-3.6,-11.3,1023,2018,5,11,13,15,47.221,-0.1277,0.3697,0.2189,-0.8938
0.057,0.303,-0.061,-29,-10.9,0.5,1023,2018,5,11,13,15,47.26,-0.1276,0.375,0.2191,-0.8916
0.086,0.282,-0.039,-21.4,-15.1,11.5,1023,2018,5,11,13,15,47.277,-0.1287,0.379,0.221,-0.8893
0.097,0.194,-0.054,-10.6,-5.9,20,1023,2018,5,11,13,15,47.279,-0.131,0.3811,0.2236,-0.8874
0.092,0.12,-0.052,0.6,14,25.2,1023,2018,5,11,13,15,47.311,-0.135,0.3809,0.2244,-0.8867
0.058,0.231,0.105,20.3,35.3,25.9,1023,2018,5,11,13,15,47.332,-0.1547,0.3679,0.2112,-0.8922
0.035,0.191,0.145,15,-6.5,21.9,1023,2018,5,11,13,15,47.342,-0.1586,0.3639,0.2112,-0.8931
0.029,0.079,0.118,7.3,-25.9,15,1023,2018,5,11,13,15,47.376,-0.1599,0.3619,0.2156,-0.8926
0.039,0.04,0.077,-0.1,-25.9,6.1,1023,2018,5,11,13,15,47.395,-0.1593,0.3616,0.2193,-0.892
0.065,0.076,0.015,-2.3,-22.7,-1.3,1023,2018,5,11,13,15,47.404,-0.1577,0.3626,0.2219,-0.8912
0.067,0.083,-0.03,-0.4,-18.2,-6.9,1023,2018,5,11,13,15,47.436,-0.1551,0.3642,0.2235,-0.8906
0.07,0.101,-0.002,0.9,-10.6,-10.3,1023,2018,5,11,13,15,47.459,-0.1522,0.3654,0.2242,-0.8904
0.05,0.165,0.075,-1.5,2,-10.3,1023,2018,5,11,13,15,47.465,-0.1503,0.366,0.2242,-0.8905
0.059,0.222,0.101,-4.9,12.6,-8.5,1023,2018,5,11,13,15,47.501,-0.1495,0.3667,0.2222,-0.8909
0.073,0.248,0.044,-5.6,17,-4.2,1023,2018,5,11,13,15,47.503,-0.1497,0.3674,0.2193,-0.8913
0.083,0.266,0.013,-4,16.3,1.3,0,2018,5,11,13,15,47.522,-0.1507,0.3678,0.2164,-0.8916
0.082,0.26,0.021,-1.5,10.9,7.7,0,2018,5,11,13,15,47.56,-0.1525,0.3677,0.2145,-0.8919
0.083,0.159,0.082,1.7,11.7,11.1,0,2018,5,11,13,15,47.581,-0.1547,0.367,0.2136,-0.892
0.07,0.046,0.118,1.9,31.2,8.2,0,2018,5,11,13,15,47.584,-0.1573,0.3656,0.2103,-0.8928
0.075,0.071,0.092,2.2,54.2,2.6,0,2018,5,11,13,15,47.621,-0.1603,0.3638,0.2025,-0.8949
0.082,0.134,0.037,1.7,57.6,0.5,0,2018,5,11,13,15,47.641,-0.1639,0.3619,0.1927,-0.8972
0.084,0.237,0.019,2.2,44.5,-1.1,0,2018,5,11,13,15,47.645,-0.167,0.3601,0.1847,-0.899
0.063,0.303,0.068,-1.3,15.4,-3,0,2018,5,11,13,15,47.683,-0.1686,0.3591,0.1798,-0.9001
0.044,0.303,0.125,-9.5,-17.7,-4.6,0,2018,5,11,13,15,47.701,-0.168,0.3602,0.1798,-0.8998
0.042,0.263,0.126,-20.7,-51.1,-4.2,0,2018,5,11,13,15,47.705,-0.1655,0.3637,0.1846,-0.8978
0.04,0.149,0.063,-28.7,-60.4,-3.5,0,2018,5,11,13,15,47.739,-0.162,0.3695,0.1929,-0.8943
0.042,0.136,-0.01,-30.5,-47.6,-3,0,2018,5,11,13,15,47.759,-0.159,0.3759,0.2003,-0.8906
0.058,0.135,-0.052,-27,-29.9,-1,0,2018,5,11,13,15,47.763,-0.1571,0.3816,0.2054,-0.8873
0.059,0.161,-0.075,-20.2,-11.2,2.5,0,2018,5,11,13,15,47.797,-0.1568,0.3857,0.2078,-0.885
0.058,0.135,-0.068,-12.8,3.2,7.4,0,2018,5,11,13,15,47.818,-0.1579,0.3882,0.2083,-0.8836
0.057,0.116,-0.082,-4.1,20.9,11.4,0,2018,5,11,13,15,47.823,-0.1605,0.3888,0.2068,-0.8832
0.059,0.127,-0.063,5.1,37.6,15.8,0,2018,5,11,13,15,47.858,-0.1647,0.3873,0.2031,-0.884
0.047,0.124,-0.009,13.3,47.6,18.6,0,2018,5,11,13,15,47.88,-0.17,0.3839,0.1979,-0.8857
0.027,0.142,0.052,16,41.3,17,0,2018,5,11,13,15,47.889,-0.175,0.3797,0.1916,-0.8879
0.031,0.146,0.083,15.8,18.7,12.8,0,2018,5,11,13,15,47.907,-0.1788,0.3757,0.1884,-0.8895
0.04,0.097,0.106,11.2,-2.2,7.4,0,2018,5,11,13,15,47.927,-0.1804,0.373,0.1884,-0.8903
0.056,0.106,0.077,5,-9.2,0.4,0,2018,5,11,13,15,47.943,-0.18,0.3719,0.189,-0.8907
0.064,0.078,0.043,0,-12.2,-6.8,0,2018,5,11,13,15,47.965,-0.1781,0.3721,0.189,-0.891
0.061,0.231,0.058,-6.8,-36.3,-13.3,0,2018,5,11,13,15,48.004,-0.1749,0.3737,0.1913,-0.8905
0.055,0.257,0.045,-13.2,-73.1,-14.1,0,2018,5,11,13,15,48.024,-0.1694,0.3775,0.1988,-0.8883
0.047,0.15,0.036,-17.8,-90.1,-14.2,1023,2018,5,11,13,15,48.027,-0.1622,0.3829,0.2106,-0.8846
0.052,0,-0.004,-18.7,-74.9,-16.4,1023,2018,5,11,13,15,48.063,-0.1543,0.389,0.2212,-0.8808
0.059,0.027,-0.008,-16.2,-33.4,-19.3,1023,2018,5,11,13,15,48.083,-0.1482,0.3943,0.2272,-0.8779
0.071,0.152,0.009,-11.9,0.9,-16.1,1023,2018,5,11,13,15,48.085,-0.1447,0.3978,0.2271,-0.877
0.061,0.252,-0.006,-7.3,15.9,-7.8,1023,2018,5,11,13,15,48.119,-0.1439,0.3996,0.2245,-0.877
0.061,0.243,0.006,-2.2,22.3,1,1023,2018,5,11,13,15,48.138,-0.145,0.3999,0.2211,-0.8775
0.054,0.215,-0.013,3.4,27.6,8.1,1023,2018,5,11,13,15,48.147,-0.1474,0.399,0.2177,-0.8784
0.072,0.078,-0.065,12.9,54,12.3,1023,2018,5,11,13,15,48.183,-0.1514,0.3964,0.2123,-0.8802
0.087,0.068,-0.055,23.7,88.6,13.8,1023,2018,5,11,13,15,48.203,-0.157,0.3922,0.2016,-0.8836
0.062,0.158,0.025,29,105.3,14.9,1023,2018,5,11,13,15,48.213,-0.1649,0.3849,0.1876,-0.8884
0.039,0.234,0.097,27,88.4,13.6,1023,2018,5,11,13,15,48.23,-0.1729,0.377,0.1739,-0.893
0.035,0.249,0.115,20.2,45.8,10.3,1023,2018,5,11,13,15,48.247,-0.1785,0.3709,0.165,-0.8962
0.037,0.204,0.15,10.6,5.4,5.3,1023,2018,5,11,13,15,48.268,-0.1808,0.3676,0.1623,-0.8976
0.03,0.14,0.136,0.9,-20.9,0.2,1023,2018,5,11,13,15,48.307,-0.1804,0.3669,0.1642,-0.8976
0.032,0.22,0.118,-9.8,-43.8,-6.5,1023,2018,5,11,13,15,48.325,-0.178,0.3687,0.1687,-0.8965
0.043,0.273,0.049,-17.3,-76.3,-9.3,1023,2018,5,11,13,15,48.327,-0.1731,0.373,0.1773,-0.894
0.063,0.238,-0.01,-19.6,-98.7,-9.1,0,2018,5,11,13,15,48.361,-0.1664,0.379,0.1901,-0.8902
0.077,0.132,-0.013,-19.1,-102,-10.3,0,2018,5,11,13,15,48.381,-0.1588,0.3852,0.2047,-0.8856
0.083,0.031,-0.009,-17.4,-85.6,-10.2,0,2018,5,11,13,15,48.39,-0.1511,0.3914,0.2177,-0.8812
0.073,0.032,0.003,-14.5,-43.1,-10.2,0,2018,5,11,13,15,48.425,-0.1452,0.3964,0.2257,-0.8779
0.079,0.077,-0.017,-9.8,0.9,-7.8,0,2018,5,11,13,15,48.446,-0.1423,0.3998,0.2268,-0.8765
0.072,0.146,-0.028,-3.4,34.3,-3,0,2018,5,11,13,15,48.451,-0.143,0.4006,0.2232,-0.877
0.056,0.224,-0.002,2.3,42,1.9,0,2018,5,11,13,15,48.469,-0.1458,0.3996,0.2169,-0.8785
0.036,0.239,0.057,6.1,27.5,6.9,0,2018,5,11,13,15,48.489,-0.1488,0.3978,0.2119,-0.8801
0.007,0.187,0.123,5.2,7.1,8.2,0,2018,5,11,13,15,48.524,-0.151,0.3961,0.21,-0.8809
0,0.124,0.143,-0.1,-8.6,5.3,0,2018,5,11,13,15,48.545,-0.1519,0.3955,0.2108,-0.8808
0.01,0.193,0.102,-4.9,-28.5,0.2,0,2018,5,11,13,15,48.553,-0.1511,0.3963,0.2137,-0.8799
0.017,0.155,0.075,-8.2,-45.6,-0.4,0,2018,5,11,13,15,48.573,-0.1486,0.3984,0.2194,-0.878
0.043,0.122,0.021,-9.3,-42.9,-1.4,0,2018,5,11,13,15,48.593,-0.1455,0.401,0.2259,-0.8757
0.074,0.075,-0.024,-6.5,-21.2,-4.2,0,2018,5,11,13,15,48.629,-0.1424,0.4037,0.2292,-0.8741
0.094,0.157,-0.027,-3.5,-1.4,-5.3,0,2018,5,11,13,15,48.647,-0.141,0.405,0.2298,-0.8736
