ax,ay,az,dpitch,droll,dyaw,heart,time_1,time_2,time_3,time_4,time_5,time_6,w,x,y,z
-0.027,0.813,-0.149,70.5,-118.5,64.9,0,2018,5,10,15,33,11.672,-0.9192,-0.0448,-0.3183,0.2272
0.027,0.962,-0.296,79.4,-356.5,95.9,0,2018,5,10,15,33,11.69,-0.9211,0.0014,-0.3161,0.2271
-0.038,0.776,-0.488,74.1,-544,126.8,0,2018,5,10,15,33,11.693,-0.9174,0.0854,-0.321,0.2189
-0.077,0.214,-0.374,62.2,-602.6,137.5,0,2018,5,10,15,33,11.727,-0.9025,0.187,-0.3286,0.206
-0.191,-0.208,-0.154,28.8,-637.3,150,0,2018,5,10,15,33,11.748,-0.8737,0.2946,-0.3369,0.1902
-0.221,-1.014,-0.243,-16.3,-468.3,146.4,1023,2018,5,10,15,33,11.754,-0.835,0.3886,-0.346,0.1785
-0.148,-0.901,-0.188,-30.7,-260,123.8,1023,2018,5,10,15,33,11.789,-0.8036,0.4465,-0.3506,0.1785
-0.103,-0.388,-0.388,-31.6,-235.4,94.2,1023,2018,5,10,15,33,11.809,-0.7795,0.4839,-0.3535,0.182
-0.259,-0.254,-0.704,-21.1,-295.5,54.4,1023,2018,5,10,15,33,11.815,-0.7517,0.5237,-0.3593,0.1776
-0.286,-0.897,-0.81,13,-269.9,1,1023,2018,5,10,15,33,11.851,-0.723,0.5626,-0.3658,0.1635
-0.103,-1.298,-0.795,43.5,-173.4,-56.2,1023,2018,5,10,15,33,11.872,-0.7033,0.5893,-0.3711,0.1422
-0.034,-0.962,-0.609,60.3,-92.6,-95.8,1023,2018,5,10,15,33,11.876,-0.6954,0.6007,-0.3757,0.119
0.014,-0.587,-0.55,79.7,-44.9,-123.5,1023,2018,5,10,15,33,11.893,-0.6951,0.6028,-0.3801,0.0937
-0.021,-0.277,-0.391,95,-41.8,-149,1023,2018,5,10,15,33,11.933,-0.6992,0.5992,-0.3841,0.0654
0.05,0.052,-0.003,100.8,-78.1,-163,1023,2018,5,10,15,33,11.953,-0.7008,0.5968,-0.3893,0.0317
0.096,0.331,0.237,101.7,-155.7,-163.9,1023,2018,5,10,15,33,11.957,-0.6959,0.5999,-0.3944,-0.0069
0.106,0.222,0.219,104.7,-199.8,-153.4,1023,2018,5,10,15,33,11.976,-0.6825,0.6109,-0.3979,-0.0499
0.046,0.098,0.159,105.3,-188.6,-137,1023,2018,5,10,15,33,11.997,-0.6666,0.623,-0.3985,-0.0922
0,0.213,0.256,98.1,-171.2,-118.3,0,2018,5,10,15,33,12.016,-0.6513,0.633,-0.3972,-0.1308
-0.042,0.614,0.408,81.1,-227.5,-91.8,0,2018,5,10,15,33,12.036,-0.6328,0.6456,-0.3937,-0.1662
-0.008,0.585,0.366,64.4,-300.2,-60.8,0,2018,5,10,15,33,12.056,-0.6042,0.6674,-0.3859,-0.2009
-0.001,0.087,0.053,54,-315.5,-36.3,0,2018,5,10,15,33,12.095,-0.5687,0.6944,-0.3735,-0.2338
-0.069,-0.408,-0.11,54.9,-241.7,-20.2,0,2018,5,10,15,33,12.116,-0.5362,0.7177,-0.3592,-0.2611
-0.1,-0.688,0.037,56.4,-84.9,-11.1,0,2018,5,10,15,33,12.12,-0.5182,0.7292,-0.3483,-0.2797
-0.162,-0.574,0.18,56.3,81.7,-10,0,2018,5,10,15,33,12.139,-0.5219,0.7253,-0.3447,-0.2874
-0.222,-0.159,0.167,51.3,163.1,-11.9,0,2018,5,10,15,33,12.158,-0.5415,0.7093,-0.3478,-0.2872
-0.208,0.037,-0.025,45.2,148.2,-12.6,0,2018,5,10,15,33,12.194,-0.5635,0.6908,-0.3525,-0.2842
-0.158,-0.093,-0.198,46.6,138.9,-12.8,0,2018,5,10,15,33,12.216,-0.5824,0.6738,-0.3564,-0.2822
-0.205,-0.337,-0.176,48.9,177,-18.3,0,2018,5,10,15,33,12.22,-0.6024,0.6546,-0.3608,-0.2797
-0.274,-0.347,-0.123,46.3,261.9,-27.2,0,2018,5,10,15,33,12.238,-0.6289,0.6272,-0.3688,-0.2736
-0.329,0.182,-0.005,36.7,277.3,-35.3,0,2018,5,10,15,33,12.258,-0.6603,0.5913,-0.3806,-0.2631
-0.282,0.42,-0.031,22,201.9,-31.3,0,2018,5,10,15,33,12.298,-0.6849,0.5593,-0.3916,-0.254
-0.267,0.327,-0.15,11.6,131.2,-22.6,0,2018,5,10,15,33,12.318,-0.7002,0.5373,-0.3992,-0.2477
-0.222,-0.129,-0.283,6.5,164.4,-16.3,0,2018,5,10,15,33,12.322,-0.7122,0.5193,-0.4057,-0.2415
-0.221,-0.34,-0.334,5.8,315.8,-8.8,0,2018,5,10,15,33,12.34,-0.7333,0.4877,-0.4158,-0.2263
-0.203,-0.038,-0.301,4.5,447.1,7.4,0,2018,5,10,15,33,12.36,-0.7652,0.4363,-0.4298,-0.198
-0.123,0.376,-0.305,-0.6,479.8,27.7,0,2018,5,10,15,33,12.395,-0.7992,0.3733,-0.4431,-0.1597
-0.09,0.584,-0.285,1.1,419.3,45.8,0,2018,5,10,15,33,12.416,-0.8272,0.3118,-0.4519,-0.1189
-0.068,0.648,-0.185,11.5,328,61.9,0,2018,5,10,15,33,12.42,-0.8473,0.2616,-0.4548,-0.0818
-0.022,0.526,0.01,6.9,268.1,77.7,0,2018,5,10,15,33,12.438,-0.8612,0.2236,-0.4536,-0.0486
0.045,0.357,0.083,10.5,268.7,93.2,0,2018,5,10,15,33,12.458,-0.872,0.1911,-0.4503,-0.0156
0.188,0.104,-0.138,35.5,359.6,102.2,1023,2018,5,10,15,33,12.5,-0.8828,0.1506,-0.4441,0.0236
0.21,0.454,-0.201,70.6,413.5,106.9,1023,2018,5,10,15,33,12.504,-0.8947,0.0976,-0.4302,0.069
0.117,0.881,-0.159,95.4,342.2,112.1,1023,2018,5,10,15,33,12.523,-0.9041,0.0464,-0.4092,0.1135
0.095,0.966,-0.095,103.3,178.5,123.4,1023,2018,5,10,15,33,12.559,-0.9098,0.0158,-0.3866,0.1496
0.146,0.606,-0.194,108.9,100.5,133.8,1023,2018,5,10,15,33,12.581,-0.9133,0.0079,-0.3661,0.1779
0.054,-0.196,-0.066,122.2,203.9,131.2,1023,2018,5,10,15,33,12.585,-0.9159,-0.0029,-0.3429,0.2083
0.021,0.122,0.082,142.4,311.5,122,1023,2018,5,10,15,33,12.604,-0.9178,-0.0331,-0.3112,0.2441
-0.034,0.268,0.235,151.4,305.2,111.9,1023,2018,5,10,15,33,12.623,-0.917,-0.0719,-0.2738,0.2807
-0.061,0.726,0.033,159,115.9,113.2,1023,2018,5,10,15,33,12.641,-0.915,-0.094,-0.2392,0.3108
-0.278,0.332,0.217,145.5,-119.7,120.7,1023,2018,5,10,15,33,12.661,-0.9146,-0.0783,-0.2174,0.3316
-0.45,-0.484,0.25,110.7,-252.8,111.4,1023,2018,5,10,15,33,12.681,-0.9146,-0.0319,-0.2103,0.3437
-0.459,-1.295,0.428,75.6,-153.8,81.4,1023,2018,5,10,15,33,12.7,-0.9123,0.0093,-0.2091,0.3519
-0.523,-0.32,0.54,65.4,-175.1,46.2,1023,2018,5,10,15,33,12.722,-0.9104,0.0385,-0.2061,0.3565
-0.418,0.168,0.195,33.8,-471.5,14,1023,2018,5,10,15,33,12.741,-0.9066,0.093,-0.2175,0.3491
-0.242,-0.089,-0.516,13.8,-792.3,-10.7,0,2018,5,10,15,33,12.78,-0.8908,0.1967,-0.2527,0.3222
-0.134,-0.217,-1.233,31.8,-939.5,-26,0,2018,5,10,15,33,12.8,-0.8512,0.3334,-0.2971,0.2755
0.002,-0.921,-1.38,61.3,-838.9,-54.4,0,2018,5,10,15,33,12.804,-0.7922,0.4633,-0.3323,0.2171
-0.007,-1.244,-1.126,84.9,-608.2,-80.2,0,2018,5,10,15,33,12.823,-0.7341,0.5584,-0.3524,0.1581
-0.046,-1.117,-0.598,105.1,-425.7,-99.1,0,2018,5,10,15,33,12.843,-0.6904,0.6178,-0.3611,0.1053
-0.044,-0.882,-0.152,116.7,-273.2,-107.4,0,2018,5,10,15,33,12.866,-0.6608,0.6534,-0.3643,0.0589
-0.076,-0.505,0.195,117.7,-159,-118.8,0,2018,5,10,15,33,12.885,-0.6448,0.6709,-0.3654,0.019
-0.121,-0.427,0.305,105.8,-107.8,-131.8,0,2018,5,10,15,33,12.903,-0.637,0.6773,-0.3676,-0.0165
-0.065,-0.434,0.38,97.5,-64.3,-140.1,0,2018,5,10,15,33,12.94,-0.6328,0.6772,-0.372,-0.049
0.009,-0.384,0.558,86.5,-6,-147.8,0,2018,5,10,15,33,12.96,-0.6329,0.6707,-0.3785,-0.0781
-0.067,-0.507,0.498,69.7,68.5,-157.4,0,2018,5,10,15,33,12.964,-0.6395,0.6557,-0.3881,-0.1019
-0.116,-0.586,0.304,52,160.7,-166.8,0,2018,5,10,15,33,12.983,-0.653,0.6306,-0.4019,-0.1192
-0.137,-0.383,0.153,40.3,277.6,-170.5,0,2018,5,10,15,33,13.024,-0.6764,0.5916,-0.4194,-0.1277
-0.106,-0.028,0.037,28.3,360.2,-167.2,0,2018,5,10,15,33,13.042,-0.7075,0.5387,-0.4392,-0.1268
-0.099,0.427,-0.018,13.9,374.7,-155.1,0,2018,5,10,15,33,13.047,-0.7389,0.4782,-0.4591,-0.1201
-0.118,0.477,-0.082,0,379,-135.2,0,2018,5,10,15,33,13.065,-0.7656,0.4174,-0.477,-0.1093
-0.043,0.264,-0.276,-5.8,447.6,-114.8,0,2018,5,10,15,33,13.085,-0.7906,0.3509,-0.4932,-0.0911
-0.108,0.554,-0.328,-5.2,504.7,-88.3,0,2018,5,10,15,33,13.105,-0.815,0.2747,-0.5062,-0.0629
-0.121,0.791,-0.346,1.1,490.8,-61.1,0,2018,5,10,15,33,13.124,-0.8349,0.1955,-0.5136,-0.0285
-0.061,1.179,-0.252,18.9,384.5,-37.8,0,2018,5,10,15,33,13.145,-0.8481,0.1249,-0.5147,0.0044
-0.073,1.401,0.009,33.4,99.6,-11.9,0,2018,5,10,15,33,13.164,-0.8551,0.0868,-0.5105,0.022
-0.094,0.94,-0.076,36.9,-173.5,23,0,2018,5,10,15,33,13.204,-0.8573,0.0953,-0.5054,0.0176
-0.183,0.596,-0.235,42.5,-303.5,70.3,0,2018,5,10,15,33,13.223,-0.8556,0.1378,-0.4988,0.0015
-0.228,0.383,-0.307,43.8,-277.3,112.9,1023,2018,5,10,15,33,13.228,-0.8508,0.1908,-0.4893,-0.0118
-0.258,0.115,-0.209,44.2,-119.9,144.6,1023,2018,5,10,15,33,13.248,-0.8473,0.2316,-0.4777,-0.0112
-0.228,0.152,-0.164,42.4,50.1,168.7,1023,2018,5,10,15,33,13.268,-0.8496,0.2483,-0.4651,0.0072
-0.23,0.147,-0.273,53.4,168.3,183.6,1023,2018,5,10,15,33,13.289,-0.8576,0.2449,-0.4503,0.0408
-0.148,0.271,-0.33,67.5,217,190.7,1023,2018,5,10,15,33,13.307,-0.8685,0.2299,-0.4313,0.082
-0.072,0.392,-0.197,84.1,195.1,195.6,1023,2018,5,10,15,33,13.346,-0.8788,0.2134,-0.4083,0.124
-0.063,0.537,-0.131,87.8,119.4,200.5,1023,2018,5,10,15,33,13.367,-0.8856,0.2056,-0.3836,0.1619
-0.038,-0.394,-0.101,92.5,148.4,197.6,1023,2018,5,10,15,33,13.371,-0.8892,0.2023,-0.3592,0.1979
-0.148,-1.172,0.215,101.1,320.5,168.4,1023,2018,5,10,15,33,13.387,-0.896,0.181,-0.3287,0.2373
0.092,-0.325,0.013,105.5,472.8,131.9,1023,2018,5,10,15,33,13.406,-0.9059,0.1292,-0.2901,0.2799
0.03,0.055,-0.189,123.9,503.9,93.8,1023,2018,5,10,15,33,13.427,-0.9134,0.0611,-0.2442,0.3196
0.079,0.266,-0.007,138.5,376.1,56.3,1023,2018,5,10,15,33,13.447,-0.9167,0.0005,-0.1965,0.3478
-0.089,0.017,0.352,133,170.4,36,0,2018,5,10,15,33,13.466,-0.9175,-0.0329,-0.1575,0.3637
-0.374,-0.819,0.81,96.7,91.5,9.1,0,2018,5,10,15,33,13.503,-0.9181,-0.0435,-0.1316,0.3712
-0.32,-0.95,0.754,67.5,117,-23,0,2018,5,10,15,33,13.524,-0.9194,-0.0547,-0.1123,0.3728
-0.192,-0.704,0.302,54.1,155.6,-62.4,0,2018,5,10,15,33,13.528,-0.9217,-0.0741,-0.0927,0.3691
0.033,-0.548,0.182,23.7,149.4,-90.7,0,2018,5,10,15,33,13.548,-0.9249,-0.0978,-0.0759,0.3592
-0.099,-0.056,0.422,-6.2,109,-94.4,0,2018,5,10,15,33,13.569,-0.9284,-0.1195,-0.0643,0.3457
-0.033,0.142,0.512,-37.7,49.7,-89.8,0,2018,5,10,15,33,13.61,-0.932,-0.134,-0.0612,0.3309
0.085,0.209,0.205,-49.4,21.2,-76.4,0,2018,5,10,15,33,13.614,-0.9354,-0.1437,-0.0642,0.3164
0.171,0.352,-0.251,-46.4,-2.8,-51.1,0,2018,5,10,15,33,13.63,-0.938,-0.1486,-0.0702,0.3049
0.23,0.432,-0.506,-29.3,31.1,-26.3,0,2018,5,10,15,33,13.648,-0.9392,-0.153,-0.0753,0.2977
0.115,0.587,-0.427,3.5,54.8,-3.9,0,2018,5,10,15,33,13.685,-0.9386,-0.1614,-0.0743,0.2956
-0.033,0.485,-0.3,29.2,57.4,18.2,0,2018,5,10,15,33,13.706,-0.9367,-0.1702,-0.0685,0.2981
-0.094,0.332,-0.29,48.6,22.2,36.2,0,2018,5,10,15,33,13.711,-0.9344,-0.1743,-0.0608,0.3043
-0.116,0.077,-0.435,66.7,20,43,0,2018,5,10,15,33,13.731,-0.9323,-0.1734,-0.0518,0.3129
-0.216,-0.005,-0.423,90.6,61.2,34.8,0,2018,5,10,15,33,13.751,-0.9295,-0.1749,-0.0381,0.3221
-0.355,-0.074,-0.373,112.5,104.8,25.1,0,2018,5,10,15,33,13.771,-0.9258,-0.1825,-0.0175,0.3304
-0.441,-0.084,-0.124,119,128.8,18.7,0,2018,5,10,15,33,13.79,-0.9207,-0.1949,0.0077,0.3379
-0.477,-0.045,0.254,106.3,116.1,11.6,0,2018,5,10,15,33,13.811,-0.9149,-0.2084,0.0329,0.344
-0.531,0.051,0.452,84.1,71.4,0.7,0,2018,5,10,15,33,13.829,-0.9102,-0.2179,0.0538,0.3479
-0.515,0.123,0.446,43.3,1.7,-7.5,0,2018,5,10,15,33,13.849,-0.9084,-0.2197,0.066,0.3493
-0.572,0.412,0.511,4.1,-87,-13.2,0,2018,5,10,15,33,13.87,-0.9103,-0.2117,0.0676,0.3489
-0.495,0.403,0.381,-38.6,-206.8,-15.8,0,2018,5,10,15,33,13.889,-0.9167,-0.1884,0.0558,0.3476
-0.425,0.125,0.23,-59.1,-285.1,-34.5,0,2018,5,10,15,33,13.929,-0.9259,-0.1513,0.0331,0.3443
-0.417,-0.126,0.006,-71.8,-362.3,-60.8,0,2018,5,10,15,33,13.948,-0.9362,-0.1021,0.004,0.3361
-0.387,-0.171,-0.134,-79.3,-389,-83.4,0,2018,5,10,15,33,13.952,-0.9451,-0.0445,-0.0293,0.3223
-0.314,-0.104,-0.182,-84.8,-434,-96.1,0,2018,5,10,15,33,13.973,-0.9503,0.0184,-0.0653,0.3037
-0.122,-0.192,-0.187,-85,-440.8,-97.5,1023,2018,5,10,15,33,13.991,-0.9498,0.0868,-0.1032,0.2819
-0.081,-0.129,-0.148,-65.3,-388.5,-99,1023,2018,5,10,15,33,14.031,-0.9444,0.1494,-0.1371,0.2587
-0.174,-0.082,-0.134,-58.3,-339.8,-98.9,1023,2018,5,10,15,33,14.051,-0.9358,0.204,-0.1658,0.2347
-0.18,-0.058,-0.059,-60.7,-273,-98,1023,2018,5,10,15,33,14.055,-0.9258,0.2482,-0.1911,0.2114
-0.138,-0.089,-0.118,-64.4,-198.3,-92.5,1023,2018,5,10,15,33,14.071,-0.916,0.2804,-0.214,0.1908
-0.181,-0.13,0,-68.3,-38.5,-80,1023,2018,5,10,15,33,14.11,-0.904,0.3061,-0.2509,0.1609
-0.087,-0.386,0.082,-89.3,86.4,-75,1023,2018,5,10,15,33,14.129,-0.9039,0.2967,-0.2667,0.1538
0.038,-0.524,-0.002,-114.9,243.4,-65.7,1023,2018,5,10,15,33,14.133,-0.909,0.2639,-0.2822,0.1559
0.049,-0.089,-0.275,-126,382.6,-36.1,1023,2018,5,10,15,33,14.152,-0.9174,0.2071,-0.2947,0.1689
0.045,0.575,-0.563,-119.4,403.6,8.5,1023,2018,5,10,15,33,14.172,-0.9236,0.1372,-0.3022,0.1916
0.175,0.629,-0.548,-104.9,378.7,51.7,1023,2018,5,10,15,33,14.191,-0.9235,0.0713,-0.3059,0.2198
0.213,0.795,-0.243,-79.1,251.4,87.4,1023,2018,5,10,15,33,14.211,-0.9183,0.0197,-0.3067,0.2493
0.169,0.756,0.039,-70.7,49.9,111.1,1023,2018,5,10,15,33,14.252,-0.9099,-0.0015,-0.3117,0.2733
0.06,0.358,0.075,-73.8,-115.8,121,0,2018,5,10,15,33,14.271,-0.9001,0.0082,-0.3252,0.2895
0.028,-0.007,-0.178,-68.6,-198.6,119.9,0,2018,5,10,15,33,14.275,-0.8889,0.0373,-0.3449,0.2989
0.09,-0.2,-0.445,-54.8,-247.4,105.4,0,2018,5,10,15,33,14.294,-0.8768,0.0753,-0.3652,0.3033
0.257,-0.151,-0.528,-22.6,-370.8,70.2,0,2018,5,10,15,33,14.316,-0.8643,0.1251,-0.3855,0.2976
0.332,-0.14,-0.577,-2.3,-545.8,31.6,0,2018,5,10,15,33,14.336,-0.8477,0.1987,-0.4093,0.2726
0.362,-0.939,-0.262,22,-368,-16.6,0,2018,5,10,15,33,14.352,-0.8286,0.2686,-0.4293,0.2385
0.286,-0.734,0.056,70.9,-101.8,-38.6,0,2018,5,10,15,33,14.372,-0.8218,0.3015,-0.433,0.2145
0.198,-0.333,-0.078,105.5,93.6,-59.4,0,2018,5,10,15,33,14.412,-0.8312,0.2989,-0.422,0.2037
0.099,0.017,-0.178,120.9,149.5,-78.2,0,2018,5,10,15,33,14.416,-0.8485,0.2787,-0.4041,0.1972
0.033,0.033,-0.155,132.7,177.7,-89.8,0,2018,5,10,15,33,14.433,-0.8675,0.2534,-0.3835,0.1895
-0.087,-0.088,-0.252,130.7,270.5,-102.8,0,2018,5,10,15,33,14.474,-0.8885,0.2171,-0.3601,0.1835
-0.143,-0.199,-0.374,132,320.7,-113.5,0,2018,5,10,15,33,14.494,-0.9098,0.1679,-0.3337,0.1802
-0.208,-0.13,-0.27,128.8,466.7,-131.4,0,2018,5,10,15,33,14.498,-0.9302,0.1009,-0.3035,0.1795
-0.254,0.776,-0.079,105,469.4,-113,0,2018,5,10,15,33,14.515,-0.945,0.0191,-0.2707,0.1821
-0.261,1.041,-0.023,77.4,347.2,-76.9,0,2018,5,10,15,33,14.554,-0.951,-0.0502,-0.2422,0.1853
-0.13,0.999,0.091,57,197.3,-37.6,0,2018,5,10,15,33,14.558,-0.9521,-0.0947,-0.2219,0.1875
-0.022,0.91,0.25,24.1,92,24.2,0,2018,5,10,15,33,14.574,-0.9514,-0.1161,-0.2106,0.192
0.048,0.754,0.2,1.9,26.9,93.1,0,2018,5,10,15,33,14.593,-0.9485,-0.1229,-0.2079,0.2045
0.085,0.681,0.007,-14.4,-34.1,150.7,0,2018,5,10,15,33,14.613,-0.9437,-0.1179,-0.212,0.2246
-0.009,0.36,-0.021,-28,-101.2,191.3,0,2018,5,10,15,33,14.652,-0.937,-0.1006,-0.2218,0.2502
-0.098,0.091,0.11,-41,-180.3,206.2,0,2018,5,10,15,33,14.671,-0.9284,-0.0715,-0.2369,0.2769
-0.056,-0.603,-0.039,-63.9,-195.1,182.8,0,2018,5,10,15,33,14.675,-0.9178,-0.0351,-0.2576,0.2999
-0.044,-0.812,-0.176,-54.5,-160.2,133.5,0,2018,5,10,15,33,14.695,-0.907,-0.0013,-0.2776,0.3164
-0.117,-0.674,-0.24,-25.9,-97.6,66.7,0,2018,5,10,15,33,14.735,-0.8993,0.0213,-0.2908,0.3258
-0.124,-0.884,-0.079,4.6,-20.1,-7.9,0,2018,5,10,15,33,14.754,-0.8968,0.0313,-0.2957,0.3273
-0.185,-0.742,0.102,30,28,-77.1,0,2018,5,10,15,33,14.758,-0.9005,0.028,-0.2922,0.3207
-0.237,-0.464,0.153,45.1,17.9,-132.7,0,2018,5,10,15,33,14.774,-0.9084,0.021,-0.2852,0.3047
-0.272,-0.061,0.113,60.6,5.8,-170,1023,2018,5,10,15,33,14.796,-0.9189,0.0145,-0.2766,0.2805
-0.313,-0.011,0.058,67.1,1.9,-189.4,1023,2018,5,10,15,33,14.817,-0.9304,0.0084,-0.2665,0.2514
-0.262,-0.454,-0.113,78,18.6,-206,1023,2018,5,10,15,33,14.835,-0.9419,0.0022,-0.2545,0.219
-0.342,0.001,-0.219,87.8,75.3,-201.6,1023,2018,5,10,15,33,14.855,-0.9528,-0.0119,-0.2385,0.1871
-0.413,0.599,-0.04,76.8,93,-166.3,1023,2018,5,10,15,33,14.891,-0.9615,-0.0312,-0.2212,0.1599
-0.337,0.558,0.187,53.8,110.1,-125.7,1023,2018,5,10,15,33,14.911,-0.967,-0.0512,-0.2066,0.1396
-0.139,0.537,0.102,34.5,143.9,-78.4,1023,2018,5,10,15,33,14.917,-0.9694,-0.0757,-0.1952,0.1274
0.019,0.823,0.018,18.6,154.5,-21.6,1023,2018,5,10,15,33,14.937,-0.969,-0.1028,-0.1866,0.1244
0.13,0.918,0.074,2.8,99.7,36.3,1023,2018,5,10,15,33,14.957,-0.9666,-0.1241,-0.1823,0.1304
0.192,0.696,0.109,-10.4,37.3,83.6,1023,2018,5,10,15,33,14.995,-0.9634,-0.1333,-0.1829,0.1428
0.248,0.478,0.071,-18.8,-9.8,125.2,1023,2018,5,10,15,33,15.015,-0.9599,-0.1323,-0.1876,0.1606
0.235,0.262,0.075,-30.3,-46.2,159.2,1023,2018,5,10,15,33,15.019,-0.9554,-0.1233,-0.1959,0.1832
0.139,0.393,0.068,-40.5,-116.6,181.6,1023,2018,5,10,15,33,15.041,-0.9498,-0.1054,-0.2079,0.2083
0.039,0.533,0.014,-52.2,-255.1,191.1,1023,2018,5,10,15,33,15.062,-0.9436,-0.0698,-0.2257,0.2316
-0.109,0.489,-0.033,-73.3,-463,183.8,0,2018,5,10,15,33,15.076,-0.9354,-0.0059,-0.2525,0.2473
-0.215,0.482,-0.455,-105.4,-666.6,157.9,0,2018,5,10,15,33,15.097,-0.9191,0.0917,-0.2914,0.2486
-0.173,0.333,-0.555,-106.6,-841.2,122.2,0,2018,5,10,15,33,15.118,-0.8863,0.2165,-0.3373,0.2315
-0.149,0.067,-0.382,-92.2,-853.2,70.5,0,2018,5,10,15,33,15.155,-0.8339,0.3482,-0.3799,0.1971
-0.071,0.345,-0.347,-84.2,-826.6,38.9,0,2018,5,10,15,33,15.174,-0.7662,0.4668,-0.4142,0.1526
0.01,0.312,-0.407,-63.5,-773.8,29.7,0,2018,5,10,15,33,15.178,-0.687,0.5698,-0.4387,0.1036
0.038,0.059,-0.298,-51.5,-645.3,45.3,0,2018,5,10,15,33,15.202,-0.6055,0.6528,-0.4512,0.0582
0.061,-0.206,-0.165,-53.6,-472.3,66.9,0,2018,5,10,15,33,15.222,-0.5346,0.7126,-0.4535,0.026
0.051,-0.513,-0.129,-61.1,-256.4,79,0,2018,5,10,15,33,15.26,-0.4833,0.7507,-0.45,0.0114
0.006,-0.692,-0.122,-72.7,11.7,84.1,0,2018,5,10,15,33,15.279,-0.4623,0.7668,-0.4447,0.018
0.104,-0.492,-0.141,-78.3,244.5,81.8,0,2018,5,10,15,33,15.283,-0.4747,0.7615,-0.4389,0.0457
0.244,-0.257,-0.167,-74,442,85.7,0,2018,5,10,15,33,15.3,-0.5141,0.7365,-0.4303,0.0891
0.203,-0.041,-0.063,-67.1,585.9,93.9,0,2018,5,10,15,33,15.319,-0.5728,0.6918,-0.4148,0.1452
0.033,0.012,-0.07,-69.9,680.3,112.1,0,2018,5,10,15,33,15.34,-0.638,0.6297,-0.3914,0.2076
-0.145,-0.216,-0.51,-69.3,805.1,146.6,0,2018,5,10,15,33,15.376,-0.7036,0.5488,-0.3548,0.2786
-0.381,-0.072,-0.676,-45.2,915.8,169.4,0,2018,5,10,15,33,15.396,-0.7669,0.443,-0.2996,0.3546
-0.438,0.783,-0.33,-6,731.8,159.6,0,2018,5,10,15,33,15.4,-0.812,0.3313,-0.2336,0.4196
-0.547,0.855,0.116,2.8,284.6,134.7,0,2018,5,10,15,33,15.438,-0.8267,0.2653,-0.1875,0.4593
-0.618,-0.14,0.258,-22.5,-37.2,106,0,2018,5,10,15,33,15.459,-0.8205,0.2554,-0.1765,0.4799
-0.661,-0.726,-0.013,-41.6,-56.2,74.1,0,2018,5,10,15,33,15.464,-0.809,0.264,-0.1826,0.4923
-0.459,-0.986,-0.241,-48,98.7,34.2,0,2018,5,10,15,33,15.5,-0.8034,0.2595,-0.1855,0.5027
-0.252,-0.469,-0.314,-30.4,223.4,-6.7,0,2018,5,10,15,33,15.504,-0.8086,0.2321,-0.1749,0.5113
-0.194,-0.182,0.022,-31.1,239.2,-35.2,0,2018,5,10,15,33,15.52,-0.8188,0.1941,-0.1581,0.5164
-0.337,-0.157,0.305,-36.5,141.1,-59.4,0,2018,5,10,15,33,15.558,-0.8281,0.1623,-0.1473,0.5158
-0.233,-0.292,0.218,-46.6,52.5,-79.1,0,2018,5,10,15,33,15.578,-0.8359,0.1435,-0.1472,0.5088
-0.012,-1.154,-0.365,-52.9,152.2,-99.6,0,2018,5,10,15,33,15.582,-0.8442,0.1229,-0.1495,0.4996
-0.002,-0.441,-0.432,-22.7,244.7,-115,1023,2018,5,10,15,33,15.603,-0.8565,0.086,-0.1386,0.4895
0.018,0.168,-0.33,-12.5,219.6,-117.9,1023,2018,5,10,15,33,15.624,-0.8688,0.046,-0.1225,0.4775
0.03,0.297,-0.247,-10.2,159,-109.9,1023,2018,5,10,15,33,15.644,-0.8789,0.0143,-0.1094,0.4639
-0.102,0.466,0.051,-10.7,106.4,-95.3,1023,2018,5,10,15,33,15.681,-0.887,-0.0088,-0.1002,0.4505
-0.155,0.758,0.123,-26.5,-2.4,-66.8,1023,2018,5,10,15,33,15.701,-0.8929,-0.0198,-0.0986,0.4387
-0.193,0.892,0.015,-38.6,-143.8,-32.5,1023,2018,5,10,15,33,15.705,-0.8962,-0.0113,-0.1095,0.4296
-0.165,0.869,-0.119,-34.4,-312.9,-9.4,1023,2018,5,10,15,33,15.722,-0.8966,0.0214,-0.1326,0.4219
-0.21,0.472,-0.104,-32.9,-456.6,-4.6,1023,2018,5,10,15,33,15.762,-0.8925,0.0807,-0.1666,0.4111
-0.339,0.041,-0.2,-35.4,-515.5,-18.4,1023,2018,5,10,15,33,15.783,-0.882,0.1543,-0.2067,0.3943
-0.259,-0.304,-0.425,-36,-573.2,-37.7,1023,2018,5,10,15,33,15.787,-0.8638,0.2343,-0.2496,0.3694
-0.073,-0.633,-0.556,-29.4,-511.8,-58.2,1023,2018,5,10,15,33,15.801,-0.839,0.3116,-0.2909,0.338
-0.009,-1.115,-0.475,-18.5,-305.8,-84.8,1023,2018,5,10,15,33,15.839,-0.8173,0.3661,-0.3219,0.307
-0.094,-1.186,-0.337,-21,-22.6,-108,1023,2018,5,10,15,33,15.86,-0.8108,0.382,-0.3392,0.2853
-0.218,-0.586,-0.202,-33,203.7,-117.4,0,2018,5,10,15,33,15.864,-0.8216,0.3588,-0.3453,0.2771
-0.156,0.054,-0.489,-40.3,290.7,-107.7,0,2018,5,10,15,33,15.902,-0.8399,0.3125,-0.345,0.2786
0.049,0.013,-0.628,-19.4,336,-105.3,0,2018,5,10,15,33,15.907,-0.8587,0.2579,-0.3399,0.2836
-0.13,0.063,-0.424,3.1,374.4,-113.8,0,2018,5,10,15,33,15.925,-0.8778,0.1975,-0.3274,0.2882
-0.239,0.436,0.112,12,321.8,-146,0,2018,5,10,15,33,15.962,-0.9092,0.0707,-0.2936,0.2865
-0.108,0.227,-0.118,21.9,285.3,-152.1,0,2018,5,10,15,33,15.981,-0.9195,0.016,-0.2774,0.2776
-0.01,-0.097,-0.369,35.8,285.2,-156.3,0,2018,5,10,15,33,15.986,-0.9276,-0.0355,-0.2596,0.2661
-0.119,0.237,-0.369,55.3,246.8,-162.1,0,2018,5,10,15,33,16.023,-0.9341,-0.0844,-0.2377,0.2525
-0.145,0.356,-0.26,60.5,159.8,-161.9,0,2018,5,10,15,33,16.026,-0.9397,-0.1209,-0.2168,0.2348
-0.082,0.432,-0.216,62.8,96.6,-150.3,0,2018,5,10,15,33,16.044,-0.9452,-0.1449,-0.1981,0.215
0.039,0.509,-0.174,65.9,34.8,-129.8,0,2018,5,10,15,33,16.081,-0.9507,-0.1577,-0.1814,0.1956
0.01,0.844,0.116,64,2.5,-94.7,0,2018,5,10,15,33,16.102,-0.956,-0.1613,-0.1667,0.1791
0.05,0.749,0.316,50.9,4.4,-47.9,0,2018,5,10,15,33,16.106,-0.9597,-0.1621,-0.1549,0.169
0.098,0.812,0.235,33,-7.9,0,0,2018,5,10,15,33,16.144,-0.9615,-0.1616,-0.1472,0.1664
0.109,0.746,0.141,11.8,-31.5,47.5,0,2018,5,10,15,33,16.148,-0.9618,-0.1568,-0.1449,0.1707
0.078,0.477,0.286,-6.3,-41.7,77.8,0,2018,5,10,15,33,16.165,-0.9609,-0.1488,-0.1474,0.1808
0.06,0.233,0.34,-24.4,-56.8,92.2,0,2018,5,10,15,33,16.205,-0.9589,-0.1389,-0.1539,0.1936
0.058,-0.018,0.223,-33.9,-95,89.6,0,2018,5,10,15,33,16.227,-0.9565,-0.1256,-0.1634,0.2062
0.054,-0.456,-0.054,-34.7,-130.5,60.1,0,2018,5,10,15,33,16.231,-0.955,-0.1045,-0.1753,0.2147
0.046,-0.634,-0.262,-20.8,-86.2,16.9,0,2018,5,10,15,33,16.244,-0.9546,-0.0856,-0.185,0.2169
0.032,-0.337,-0.343,10,-29.7,-22,0,2018,5,10,15,33,16.282,-0.9553,-0.077,-0.188,0.2144
-0.034,-0.394,-0.166,41,1.9,-69.7,0,2018,5,10,15,33,16.302,-0.9581,-0.0755,-0.1832,0.2067
-0.061,0.051,0.239,47.5,-11.6,-98,0,2018,5,10,15,33,16.306,-0.9627,-0.0765,-0.1738,0.1926
0.04,-0.133,0.236,36,-101,-106.4,0,2018,5,10,15,33,16.327,-0.9681,-0.0681,-0.1666,0.1741
0.023,0.076,0.155,17.5,-100.4,-95.7,0,2018,5,10,15,33,16.347,-0.9729,-0.0522,-0.1643,0.1535
-0.023,0.755,0.323,-8.8,-99.2,-51.6,0,2018,5,10,15,33,16.383,-0.9757,-0.0379,-0.1653,0.1385
0.117,0.471,0.472,-38.2,-69.7,-23,0,2018,5,10,15,33,16.404,-0.9762,-0.0241,-0.1716,0.1297
0.236,0.419,0.455,-63,-11.3,-1.1,1023,2018,5,10,15,33,16.408,-0.9751,-0.0188,-0.181,0.1263
0.353,0.465,0.253,-79.6,45.3,17.8,1023,2018,5,10,15,33,16.443,-0.9724,-0.0238,-0.1931,0.1284
0.321,0.536,0.106,-85.1,58.6,33.6,1023,2018,5,10,15,33,16.464,-0.9686,-0.034,-0.206,0.1344
0.411,0.6,-0.143,-82,55.7,45.6,1023,2018,5,10,15,33,16.468,-0.9641,-0.0446,-0.2191,0.1427
0.479,0.589,-0.292,-67.5,17.3,60.8,1023,2018,5,10,15,33,16.486,-0.9594,-0.0508,-0.2312,0.1526
0.42,0.47,-0.261,-47.1,-42.7,71.3,1023,2018,5,10,15,33,16.524,-0.9554,-0.0474,-0.2416,0.1627
0.289,0.297,0.075,-36.9,-108.7,78.7,1023,2018,5,10,15,33,16.544,-0.952,-0.0322,-0.2512,0.1717
0.279,-0.22,-0.085,-25.3,-66,82.9,1023,2018,5,10,15,33,16.548,-0.9484,-0.0139,-0.2598,0.1808
0.179,-0.272,-0.165,3.9,-20.4,86.3,1023,2018,5,10,15,33,16.569,-0.9452,-0.0039,-0.2629,0.193
0.013,-0.332,-0.156,25.6,-1,80.2,1023,2018,5,10,15,33,16.59,-0.943,0.0013,-0.2605,0.2066
-0.112,-0.139,-0.06,44.4,-50.1,72.9,1023,2018,5,10,15,33,16.609,-0.9418,0.0092,-0.2554,0.2182
-0.233,-0.156,-0.298,57,-143.8,72.5,1023,2018,5,10,15,33,16.63,-0.9409,0.0312,-0.2507,0.2254
-0.239,-0.328,-0.639,84.5,-152.6,77.4,1023,2018,5,10,15,33,16.649,-0.9396,0.0631,-0.2449,0.2304
-0.404,-1.353,-0.961,114.6,49.6,48.6,1023,2018,5,10,15,33,16.689,-0.9401,0.0792,-0.2309,0.2378
-0.751,-1.829,-1.03,163.1,224.2,-16.8,1023,2018,5,10,15,33,16.711,-0.9466,0.0612,-0.2015,0.244
-0.982,-1.354,-0.817,191.9,366.7,-79.4,1023,2018,5,10,15,33,16.724,-0.9565,0.0175,-0.1587,0.2439
-1.182,-0.557,-0.442,181.7,484.7,-146,0,2018,5,10,15,33,16.731,-0.9646,-0.0498,-0.1082,0.2352
-1.205,0.484,-0.084,128.3,450.1,-169.8,0,2018,5,10,15,33,16.768,-0.9658,-0.1276,-0.0603,0.217
-1.074,0.998,0.227,52.6,282.8,-140.2,0,2018,5,10,15,33,16.769,-0.962,-0.1879,-0.0275,0.1956
-0.942,0.933,0.197,-16,97.7,-84.2,0,2018,5,10,15,33,16.787,-0.9593,-0.218,-0.0154,0.1782
-0.802,0.478,-0.055,-57.5,-11,-43.8,0,2018,5,10,15,33,16.822,-0.9598,-0.2249,-0.0187,0.1665
-0.625,0.02,-0.144,-76.8,-37.5,-23.8,0,2018,5,10,15,33,16.842,-0.9616,-0.2221,-0.0299,0.1583
-0.583,-0.295,0.077,-88,-18.7,-21.1,0,2018,5,10,15,33,16.85,-0.9628,-0.2191,-0.0438,0.1513
-0.571,-0.178,0.22,-102.1,-3.8,-15.4,0,2018,5,10,15,33,16.887,-0.9628,-0.2204,-0.0592,0.1445
-0.591,0.069,0.078,-115.7,-29.1,-1.1,0,2018,5,10,15,33,16.907,-0.9622,-0.2208,-0.0776,0.1387
-0.447,-0.053,-0.103,-131,-64.4,13.7,0,2018,5,10,15,33,16.908,-0.962,-0.2154,-0.0999,0.1343
-0.125,-0.325,-0.172,-131.7,-64,28.3,0,2018,5,10,15,33,16.946,-0.9615,-0.2063,-0.1246,0.1316
-0.003,0.026,-0.153,-111.8,-56.8,46.3,0,2018,5,10,15,33,16.966,-0.9596,-0.1989,-0.1481,0.1322
-0.096,0.1,-0.103,-97.9,-86.9,62.6,0,2018,5,10,15,33,16.969,-0.9577,-0.1889,-0.1689,0.136
0.128,-0.028,-0.135,-84.6,-141.5,76.4,0,2018,5,10,15,33,17.005,-0.9565,-0.1706,-0.1894,0.1411
0.323,-0.165,-0.234,-67.2,-207.5,82.2,0,2018,5,10,15,33,17.027,-0.9567,-0.1401,-0.2088,0.1463
0.4,0.085,-0.225,-40.4,-273.3,79,0,2018,5,10,15,33,17.031,-0.9576,-0.0982,-0.2257,0.1496
0.244,0.25,0.042,-20.3,-313.2,76.9,0,2018,5,10,15,33,17.051,-0.9581,-0.0461,-0.2393,0.1499
0.159,0.05,0.21,-11.7,-302.9,87.7,0,2018,5,10,15,33,17.071,-0.9563,0.0089,-0.2505,0.1501
0.375,0.224,0.133,-12.1,-255.9,105.3,0,2018,5,10,15,33,17.109,-0.9516,0.0586,-0.2594,0.1538
0.421,0.771,-0.231,2.7,-277.4,118.2,0,2018,5,10,15,33,17.129,-0.9444,0.1065,-0.2661,0.1608
0.137,0.727,-0.583,7.4,-310.7,125.6,0,2018,5,10,15,33,17.133,-0.9342,0.1613,-0.2707,0.1669
0.073,-0.649,-0.02,-9.9,-193.3,100,0,2018,5,10,15,33,17.172,-0.9221,0.2098,-0.2752,0.1729
0.192,-0.473,0.615,-32.9,0.6,82.5,0,2018,5,10,15,33,17.192,-0.9149,0.2276,-0.2779,0.1837
0.2,0.258,0.677,-55.2,88.8,93.4,0,2018,5,10,15,33,17.196,-0.9122,0.2207,-0.2794,0.2023
0.266,0.251,0.399,-71,83.1,107.1,0,2018,5,10,15,33,17.211,-0.9087,0.2089,-0.2826,0.2251
0.338,0.036,0.031,-77.7,80.4,117.8,1023,2018,5,10,15,33,17.248,-0.9029,0.1996,-0.2873,0.2494
0.364,0.192,0.038,-68.1,88.9,123.3,1023,2018,5,10,15,33,17.269,-0.8967,0.188,-0.2906,0.2756
0.328,0.316,0.141,-50.6,5.6,114.9,1023,2018,5,10,15,33,17.273,-0.8894,0.1826,-0.2933,0.2992
0.316,0.404,-0.021,-38.2,-212.8,100.2,1023,2018,5,10,15,33,17.312,-0.878,0.2012,-0.302,0.3119
0.255,0.708,-0.449,-12.1,-563.5,87.5,1023,2018,5,10,15,33,17.331,-0.8555,0.2645,-0.3233,0.3057
0.232,0.499,-0.91,23.9,-800.8,68,1023,2018,5,10,15,33,17.336,-0.8126,0.3725,-0.3538,0.2747
0.073,0.122,-0.783,30.4,-858.7,63,1023,2018,5,10,15,33,17.354,-0.7482,0.4927,-0.3815,0.2272
-0.075,-0.074,-0.864,16.6,-844.4,74.2,1023,2018,5,10,15,33,17.392,-0.6653,0.6041,-0.402,0.1752
-0.151,0.136,-0.991,23.8,-822.7,86.9,1023,2018,5,10,15,33,17.412,-0.5695,0.7005,-0.412,0.1225
-0.281,-0.04,-0.934,36.1,-771.7,96.9,1023,2018,5,10,15,33,17.416,-0.4663,0.7805,-0.4104,0.0691
-0.265,-0.335,-0.668,31.9,-607.9,108.3,1023,2018,5,10,15,33,17.436,-0.3692,0.8391,-0.3986,0.0223
-0.244,-0.386,-0.548,28.1,-392.8,110.3,1023,2018,5,10,15,33,17.456,-0.297,0.8755,-0.3807,-0.0092
-0.253,-0.435,-0.637,42.7,-197.7,88.3,1023,2018,5,10,15,33,17.495,-0.255,0.8959,-0.3625,-0.0283
-0.236,-0.399,-0.589,65.9,-42.6,45.2,1023,2018,5,10,15,33,17.5,-0.2413,0.9045,-0.349,-0.0411
-0.219,-0.454,-0.56,85.7,77.2,-6,1023,2018,5,10,15,33,17.514,-0.2491,0.9042,-0.343,-0.0512
-0.213,-0.559,-0.251,94,234.1,-54.8,0,2018,5,10,15,33,17.536,-0.2788,0.8941,-0.3455,-0.0576
-0.126,-0.476,0.063,86,405.8,-88.2,0,2018,5,10,15,33,17.557,-0.3337,0.8713,-0.3553,-0.0559
-0.509,0.262,0.19,56.9,536.8,-92.9,0,2018,5,10,15,33,17.594,-0.4088,0.8337,-0.3687,-0.0409
-0.356,0.355,-0.198,35.6,707.6,-75.6,0,2018,5,10,15,33,17.615,-0.4978,0.7792,-0.3804,-0.0119
-0.283,0.428,-0.476,49.8,764.3,-63.5,0,2018,5,10,15,33,17.619,-0.5968,0.7037,-0.3846,0.0251
-0.208,0.213,-0.351,57.4,829.1,-43.8,0,2018,5,10,15,33,17.638,-0.6926,0.6108,-0.3777,0.0664
-0.21,0.429,-0.17,54.7,821.7,-43.7,0,2018,5,10,15,33,17.659,-0.7778,0.502,-0.3618,0.1096
-0.104,0.237,0.013,41.2,741.6,-41.4,0,2018,5,10,15,33,17.68,-0.8422,0.3905,-0.3411,0.1471
0.009,0.386,0.029,33,678.2,-34.6,0,2018,5,10,15,33,17.699,-0.8873,0.2817,-0.317,0.1805
0.034,0.369,-0.094,27.6,560.2,-22.8,0,2018,5,10,15,33,17.716,-0.915,0.1834,-0.2926,0.2082
0.075,0.351,-0.116,27.2,383.4,-20,0,2018,5,10,15,33,17.735,-0.9292,0.107,-0.2705,0.2277
0.001,0.453,0.021,26.6,132,-13.6,0,2018,5,10,15,33,17.755,-0.9349,0.0658,-0.2559,0.2365
-0.048,0.234,0.273,23.9,-85,-7.7,0,2018,5,10,15,33,17.79,-0.9366,0.0644,-0.2515,0.235
-0.087,0.278,0.522,15.9,-275.6,-7,0,2018,5,10,15,33,17.81,-0.9352,0.0951,-0.2556,0.2256
-0.139,0.373,0.661,-1.5,-514.8,-16.8,0,2018,5,10,15,33,17.815,-0.9272,0.1593,-0.2694,0.2053
-0.113,0.533,0.429,-32.7,-853.2,-29.6,0,2018,5,10,15,33,17.854,-0.9015,0.2672,-0.2953,0.1688
-0.028,0.835,-0.376,-29,-1111.5,-23.2,0,2018,5,10,15,33,17.874,-0.8393,0.4196,-0.3271,0.1112
0.105,0.148,-0.617,-25.2,-1061.8,-29.1,0,2018,5,10,15,33,17.879,-0.7409,0.5726,-0.3479,0.0444
0.111,-1.97,-0.782,0.6,-458.8,-27.5,0,2018,5,10,15,33,17.917,-0.6548,0.6669,-0.3555,-0.0064
0.015,-2.147,-0.94,35.1,354.9,-26.7,0,2018,5,10,15,33,17.938,-0.6541,0.667,-0.3563,-0.0122
0.238,-0.37,-0.698,43.3,708.4,-70,0,2018,5,10,15,33,17.942,-0.7206,0.5944,-0.3564,0.0136
0.231,-0.047,-0.312,20.8,682.9,-109.9,1023,2018,5,10,15,33,17.956,-0.7911,0.4947,-0.357,0.0428
0.186,0.022,-0.235,-11.7,525.1,-137.4,1023,2018,5,10,15,33,17.977,-0.8398,0.4005,-0.3609,0.0624
0.17,0.859,-0.354,-24.3,205.8,-146.1,1023,2018,5,10,15,33,17.996,-0.8642,0.3355,-0.3688,0.0661
0.104,0.616,-0.37,-21,-190.4,-153.8,1023,2018,5,10,15,33,18.037,-0.864,0.326,-0.3808,0.0444
0.085,0.222,-0.53,1.6,-439.2,-153.3,1023,2018,5,10,15,33,18.057,-0.8434,0.3664,-0.3928,-0.0009
-0.033,-0.168,-0.36,26.5,-429.6,-149.2,1023,2018,5,10,15,33,18.061,-0.8127,0.4213,-0.3986,-0.0552
-0.183,-0.226,-0.14,42,-277.6,-144.8,1023,2018,5,10,15,33,18.082,-0.7856,0.4602,-0.4002,-0.1033
-0.224,-0.235,-0.114,48,-95.6,-134.4,1023,2018,5,10,15,33,18.101,-0.7712,0.4738,-0.4016,-0.1386
-0.269,-0.16,-0.145,44.1,32.7,-125.4,1023,2018,5,10,15,33,18.139,-0.7693,0.4664,-0.4055,-0.1613
-0.286,0.164,-0.09,38.3,85.8,-112,1023,2018,5,10,15,33,18.16,-0.7742,0.4476,-0.4112,-0.1758
-0.26,0.343,-0.116,33.4,88.3,-96.6,1023,2018,5,10,15,33,18.164,-0.7804,0.4265,-0.4172,-0.1865
-0.28,0.155,-0.135,28.8,108.5,-80.1,1023,2018,5,10,15,33,18.182,-0.7867,0.4057,-0.4227,-0.1942
-0.316,0.005,-0.098,19.8,170.1,-63.9,1023,2018,5,10,15,33,18.202,-0.7957,0.3803,-0.4289,-0.1954
-0.262,0.068,-0.07,9.9,231.7,-46.6,1023,2018,5,10,15,33,18.241,-0.8082,0.3469,-0.4367,-0.1885
-0.278,0.262,0.034,5.6,224.8,-33.6,0,2018,5,10,15,33,18.246,-0.8214,0.3095,-0.4453,-0.1765
-0.294,0.276,0.1,0.5,130.6,-21.9,0,2018,5,10,15,33,18.262,-0.83,0.2815,-0.4516,-0.1666
-0.3,0.169,0.096,-4.9,30.9,-8.2,0,2018,5,10,15,33,18.3,-0.833,0.2695,-0.4548,-0.1627
-0.277,0.078,0.065,-7.6,-16.5,5.9,0,2018,5,10,15,33,18.304,-0.8325,0.2695,-0.4558,-0.1625
-0.286,0.024,-0.048,-7.5,-4.2,20.3,0,2018,5,10,15,33,18.318,-0.8317,0.2727,-0.4558,-0.1612
-0.227,0.032,-0.129,-6.3,33.2,36.7,0,2018,5,10,15,33,18.359,-0.833,0.2729,-0.4553,-0.1556
-0.224,0.153,-0.075,-3.8,71.5,54.4,0,2018,5,10,15,33,18.379,-0.8365,0.2681,-0.4553,-0.1448
-0.248,0.29,0.004,-1.5,97.2,76.7,0,2018,5,10,15,33,18.383,-0.8418,0.2608,-0.4547,-0.1282
-0.151,0.34,-0.011,-0.7,105,104.7,0,2018,5,10,15,33,18.403,-0.8481,0.2531,-0.4528,-0.1067
-0.062,0.287,-0.075,1.4,140.8,133.9,0,2018,5,10,15,33,18.425,-0.8554,0.2444,-0.4496,-0.0792
-0.033,0.212,-0.183,5.3,208.6,162.2,0,2018,5,10,15,33,18.444,-0.8642,0.23,-0.4452,-0.0432
-0.12,0.302,-0.14,25.2,263.2,183.9,0,2018,5,10,15,33,18.461,-0.8753,0.207,-0.4369,0.001
-0.064,0.315,-0.059,41.1,286.4,196.7,0,2018,5,10,15,33,18.483,-0.8864,0.1786,-0.4239,0.0502
-0.055,0.414,-0.019,55,241.9,203.4,0,2018,5,10,15,33,18.502,-0.8951,0.1525,-0.4069,0.0994
-0.143,-0.096,0.034,59,212.2,200.8,0,2018,5,10,15,33,18.541,-0.9003,0.1332,-0.388,0.1453
-0.044,0.043,0.072,68.2,195.3,194.7,0,2018,5,10,15,33,18.563,-0.9033,0.1159,-0.3676,0.1883
-0.178,0.014,0.11,67.4,189.7,189.6,0,2018,5,10,15,33,18.567,-0.9042,0.1003,-0.346,0.2292
-0.184,-0.401,0.124,61.8,237.8,172.1,0,2018,5,10,15,33,18.585,-0.9034,0.0804,-0.3238,0.2691
-0.006,-0.162,0.057,72.3,255.6,153,0,2018,5,10,15,33,18.604,-0.9018,0.0528,-0.2985,0.3076
0.054,-0.322,0.347,75.3,227.4,125,0,2018,5,10,15,33,18.625,-0.8993,0.026,-0.272,0.3413
0.15,-0.13,0.449,76.1,120.5,104.2,0,2018,5,10,15,33,18.644,-0.8964,0.0082,-0.2484,0.3667
0.166,0.3,0.377,79.7,-79.9,93.5,0,2018,5,10,15,33,18.664,-0.8934,0.0128,-0.2343,0.383
0.034,0.597,0.023,63.6,-407.7,90.2,0,2018,5,10,15,33,18.682,-0.8885,0.06,-0.2392,0.3867
-0.168,0.482,-0.323,51.3,-737,93.6,0,2018,5,10,15,33,18.702,-0.8736,0.1576,-0.2678,0.3743
-0.2,0.013,-0.546,53.1,-1019.7,86.6,0,2018,5,10,15,33,18.722,-0.8342,0.3001,-0.3128,0.3406
-0.237,-0.224,-0.767,51,-1030.7,64.4,0,2018,5,10,15,33,18.76,-0.7636,0.4546,-0.3576,0.2866
-0.04,-0.433,-0.699,30.5,-847.8,42.4,0,2018,5,10,15,33,18.779,-0.6781,0.5794,-0.3902,0.228
0.122,-0.756,-0.507,31.2,-572.4,25.3,1023,2018,5,10,15,33,18.783,-0.6019,0.6622,-0.4085,0.1792
0.174,-1.131,-0.205,32,-248.5,12.7,1023,2018,5,10,15,33,18.805,-0.5555,0.7054,-0.4143,0.1484
0.281,-1.004,-0.092,24.8,20.4,1.3,1023,2018,5,10,15,33,18.826,-0.5454,0.716,-0.4131,0.1383
0.333,-0.734,0,21.2,249.5,0.5,1023,2018,5,10,15,33,18.844,-0.5657,0.702,-0.4071,0.1456
0.22,-0.537,-0.131,15.6,448.6,2.1,1023,2018,5,10,15,33,18.867,-0.6097,0.6659,-0.3956,0.1677
0.085,-0.468,-0.252,7.5,664.1,8,1023,2018,5,10,15,33,18.905,-0.6724,0.604,-0.3758,0.2044
0.04,-0.13,-0.363,-14.8,863.4,8.6,1023,2018,5,10,15,33,18.926,-0.7468,0.5088,-0.3442,0.2545
0.024,0.349,-0.482,-23.9,940.8,10.2,1023,2018,5,10,15,33,18.93,-0.8168,0.3828,-0.3008,0.3094
0.133,0.537,-0.363,-33.6,854.4,19.9,1023,2018,5,10,15,33,18.946,-0.8643,0.249,-0.2513,0.3573
0.12,0.949,-0.047,-24.3,616,29.7,1023,2018,5,10,15,33,18.981,-0.8863,0.1343,-0.2064,0.392
0.014,0.894,0.257,-13,241.9,40.9,1023,2018,5,10,15,33,19.002,-0.8906,0.0685,-0.1789,0.4124
-0.124,0.386,0.288,-11.5,-53.7,45.5,1023,2018,5,10,15,33,19.007,-0.8878,0.0574,-0.1749,0.4216
-0.102,0.226,0.069,-2.7,-221.9,47.8,1023,2018,5,10,15,33,19.026,-0.8823,0.0821,-0.1868,0.424
-0.2,0.021,0.017,3.6,-249.4,54,1023,2018,5,10,15,33,19.046,-0.8742,0.1216,-0.2039,0.4234
-0.285,0.05,-0.039,9.2,-221.3,64.9,1023,2018,5,10,15,33,19.066,-0.8642,0.1599,-0.2188,0.4237
-0.358,0.192,-0.195,11.9,-198.5,73,1023,2018,5,10,15,33,19.105,-0.853,0.1947,-0.2304,0.4256
-0.44,0.181,-0.27,13.2,-190.1,78.1,0,2018,5,10,15,33,19.126,-0.8407,0.2275,-0.2402,0.4284
-0.645,0.046,-0.175,2.1,-162.6,76.4,0,2018,5,10,15,33,19.13,-0.8278,0.2575,-0.2488,0.4316
-0.618,-0.202,-0.14,-14.3,-83.7,67.8,0,2018,5,10,15,33,19.147,-0.8159,0.2781,-0.2564,0.4371
-0.586,-0.262,-0.009,-19.9,5.7,53.8,0,2018,5,10,15,33,19.182,-0.8087,0.2847,-0.2586,0.4448
-0.493,0.086,-0.019,-25.4,38.6,44.6,0,2018,5,10,15,33,19.202,-0.8054,0.2805,-0.2569,0.4543
-0.441,0.342,0.01,-31.2,-41.6,39.8,0,2018,5,10,15,33,19.206,-0.801,0.2798,-0.2587,0.4615
-0.372,0.356,-0.033,-38.6,-144,41.7,0,2018,5,10,15,33,19.227,-0.7913,0.2922,-0.2693,0.4645
-0.327,0.282,-0.16,-45.6,-228.8,48,0,2018,5,10,15,33,19.248,-0.7755,0.317,-0.2882,0.4636
-0.228,0.38,-0.246,-51.1,-312.9,53.5,0,2018,5,10,15,33,19.267,-0.7531,0.3519,-0.3134,0.459
-0.209,0.388,-0.193,-63.8,-401,59.8,0,2018,5,10,15,33,19.288,-0.7217,0.3969,-0.3454,0.4495
-0.233,0.212,-0.229,-79.4,-454.9,62.1,0,2018,5,10,15,33,19.308,-0.6803,0.4484,-0.3832,0.4349
-0.287,0.199,-0.323,-94.1,-483.8,54.7,0,2018,5,10,15,33,19.329,-0.6307,0.4999,-0.4232,0.4159
-0.241,0.178,-0.412,-101.4,-502.1,43.2,0,2018,5,10,15,33,19.35,-0.574,0.5491,-0.4641,0.3917
-0.239,-0.181,-0.574,-91.8,-419.2,33.5,0,2018,5,10,15,33,19.372,-0.5154,0.5914,-0.5013,0.3648
-0.328,-0.621,-0.541,-64.8,-158.6,27.2,0,2018,5,10,15,33,19.409,-0.4758,0.6146,-0.5229,0.3496
-0.436,-0.467,-0.575,-28.5,118.9,16.3,0,2018,5,10,15,33,19.429,-0.4696,0.6143,-0.5247,0.3559
-0.288,-0.141,-0.546,15.5,270.6,10.2,0,2018,5,10,15,33,19.433,-0.4904,0.5975,-0.5104,0.3766
-0.136,-0.11,-0.393,53,311.8,8,0,2018,5,10,15,33,19.449,-0.5234,0.5744,-0.486,0.3997
-0.182,-0.179,-0.245,78,289.8,0,0,2018,5,10,15,33,19.469,-0.5586,0.5508,-0.4573,0.4186
-0.238,-0.114,-0.15,89.5,216.2,-15,0,2018,5,10,15,33,19.489,-0.5898,0.531,-0.4305,0.4297
-0.056,-0.003,-0.064,89.9,114.4,-31.2,0,2018,5,10,15,33,19.529,-0.6131,0.5191,-0.411,0.4308
0.257,-0.002,0.037,85.5,41.7,-36.1,0,2018,5,10,15,33,19.549,-0.6288,0.5148,-0.3996,0.4239
0.327,-0.175,0.04,78.3,20.3,-40.2,1023,2018,5,10,15,33,19.553,-0.6395,0.5154,-0.3922,0.414
0.225,-0.411,0.048,62.5,53.9,-49.7,1023,2018,5,10,15,33,19.569,-0.6508,0.5133,-0.3861,0.4046
0.232,-0.353,0.06,43.8,98,-54.9,1023,2018,5,10,15,33,19.608,-0.6656,0.5035,-0.3806,0.398
0.341,-0.335,-0.049,34.5,174.9,-52.4,1023,2018,5,10,15,33,19.627,-0.683,0.4873,-0.3722,0.3966
0.354,-0.57,-0.159,25.6,347.9,-51.7,1023,2018,5,10,15,33,19.634,-0.7098,0.4545,-0.3547,0.4044
0.32,-0.431,-0.327,11.3,577.3,-52.4,1023,2018,5,10,15,33,19.651,-0.7495,0.3923,-0.3221,0.4247
0.271,0.37,-0.49,7.6,711.4,-42.5,1023,2018,5,10,15,33,19.672,-0.7933,0.3017,-0.2737,0.4522
0.117,0.851,-0.472,6.4,703.1,-24,1023,2018,5,10,15,33,19.709,-0.8277,0.1992,-0.2153,0.4782
0.056,0.898,-0.284,0,601.5,-13.1,1023,2018,5,10,15,33,19.729,-0.8464,0.1031,-0.16,0.4972
-0.065,0.486,0.121,4.5,435.9,-11.9,1023,2018,5,10,15,33,19.733,-0.8532,0.0262,-0.1143,0.508
-0.234,0.232,0.46,6.7,248.9,-14.4,1023,2018,5,10,15,33,19.753,-0.8546,-0.0242,-0.083,0.5119
-0.256,0.211,0.272,2.9,26.4,-12.7,1023,2018,5,10,15,33,19.772,-0.8551,-0.0437,-0.0704,0.5117
-0.243,0.252,-0.121,-3.6,-178.8,-19.4,1023,2018,5,10,15,33,19.791,-0.8569,-0.0312,-0.0781,0.5083
-0.224,0.169,-0.221,-5,-343.5,-33.1,0,2018,5,10,15,33,19.832,-0.8597,0.008,-0.1023,0.5002
-0.179,-0.095,-0.245,5.8,-460.9,-50.7,0,2018,5,10,15,33,19.836,-0.8606,0.0682,-0.1378,0.4854
-0.154,-0.197,-0.363,26.1,-568.7,-60,0,2018,5,10,15,33,19.852,-0.8559,0.1461,-0.1794,0.4623
-0.176,-0.095,-0.31,42.9,-674.3,-65.6,0,2018,5,10,15,33,19.889,-0.841,0.2396,-0.2249,0.4296
-0.185,-0.166,-0.425,51.9,-736.2,-67.5,0,2018,5,10,15,33,19.91,-0.8115,0.3428,-0.272,0.387
-0.091,-0.474,-0.56,62.1,-672.7,-75.5,0,2018,5,10,15,33,19.914,-0.7697,0.4417,-0.3143,0.3368
-0.055,-0.605,-0.474,69.9,-555.1,-87.1,0,2018,5,10,15,33,19.931,-0.7267,0.5205,-0.3454,0.2855
-0.093,-0.778,-0.171,78,-436.9,-96.6,0,2018,5,10,15,33,19.95,-0.6882,0.579,-0.3675,0.2364
-0.135,-0.731,0.108,75.6,-319.4,-110.7,0,2018,5,10,15,33,19.99,-0.658,0.6191,-0.3832,0.1917
-0.132,-0.39,0.201,70.1,-249.9,-125.7,0,2018,5,10,15,33,20.011,-0.6357,0.6448,-0.3964,0.1513
-0.1,-0.224,0.179,69.3,-203.8,-132.4,0,2018,5,10,15,33,20.015,-0.6182,0.6616,-0.4087,0.1135
-0.088,-0.148,0.177,64.9,-186.2,-134.1,0,2018,5,10,15,33,20.033,-0.6025,0.6739,-0.4204,0.0772
-0.134,-0.174,0.159,61.2,-166.9,-127.4,0,2018,5,10,15,33,20.053,-0.5877,0.6832,-0.4311,0.043
-0.172,-0.219,0.236,55.3,-123,-118.8,0,2018,5,10,15,33,20.09,-0.5757,0.6886,-0.4405,0.0127
-0.175,-0.231,0.264,47.9,-67.3,-111.1,0,2018,5,10,15,33,20.108,-0.5682,0.6892,-0.4493,-0.0123
-0.165,-0.167,0.27,38.7,8.6,-101.9,0,2018,5,10,15,33,20.115,-0.5677,0.6835,-0.4577,-0.0303
-0.199,-0.163,0.107,29.7,101.7,-91.5,0,2018,5,10,15,33,20.152,-0.5762,0.6701,-0.4661,-0.0395
-0.181,-0.115,0.06,19.7,221.3,-77.4,0,2018,5,10,15,33,20.156,-0.5961,0.6465,-0.4745,-0.0377
-0.183,0.017,-0.004,8.3,343.6,-59.3,0,2018,5,10,15,33,20.173,-0.6284,0.61,-0.4819,-0.0224
-0.169,0.365,-0.012,-2.4,402,-37.2,0,2018,5,10,15,33,20.194,-0.6678,0.5625,-0.4873,0.0041
-0.12,0.662,0.079,-14.9,351.6,-10.6,0,2018,5,10,15,33,20.213,-0.7028,0.515,-0.4894,0.0346
-0.075,0.668,0.095,-22.3,274.7,19.7,0,2018,5,10,15,33,20.233,-0.7281,0.4764,-0.4887,0.0636
-0.054,0.542,0.067,-24,214.2,45.9,0,2018,5,10,15,33,20.254,-0.745,0.448,-0.4857,0.0903
-0.044,0.508,0.028,-22.7,165.7,68.9,0,2018,5,10,15,33,20.274,-0.7564,0.4276,-0.481,0.1158
-0.066,0.412,-0.039,-16.7,114.2,86.7,1023,2018,5,10,15,33,20.294,-0.7632,0.4155,-0.4747,0.1392
-0.052,0.202,-0.052,-14.2,104.7,101.4,1023,2018,5,10,15,33,20.329,-0.7671,0.4086,-0.4674,0.1611
-0.032,0.074,-0.13,-7.9,140.5,111.9,1023,2018,5,10,15,33,20.349,-0.7715,0.3999,-0.4587,0.1851
-0.031,0.054,-0.231,0.6,153.4,115.5,1023,2018,5,10,15,33,20.357,-0.7778,0.3881,-0.446,0.2129
-0.037,0.004,-0.232,10.3,126.7,112.7,1023,2018,5,10,15,33,20.377,-0.783,0.3783,-0.4321,0.2387
-0.09,0.09,-0.062,16,100,110.8,1023,2018,5,10,15,33,20.399,-0.7864,0.3719,-0.4184,0.2609
-0.062,-0.118,-0.046,18.6,136.4,109.4,1023,2018,5,10,15,33,20.415,-0.7896,0.3651,-0.4037,0.2831
-0.023,0.023,-0.11,23.2,156.4,103.5,1023,2018,5,10,15,33,20.436,-0.7949,0.3526,-0.3867,0.3068
-0.004,0.086,-0.127,28.6,126.7,103.7,1023,2018,5,10,15,33,20.456,-0.7993,0.3409,-0.3702,0.3283
-0.146,-0.047,-0.084,33.9,94.1,101.6,1023,2018,5,10,15,33,20.495,-0.8014,0.3342,-0.3537,0.3475
-0.162,-0.145,-0.002,34.7,73.2,94.6,1023,2018,5,10,15,33,20.516,-0.8023,0.3303,-0.3378,0.3645
-0.154,0.096,0.042,33.6,-19.5,79,1023,2018,5,10,15,33,20.52,-0.8006,0.3328,-0.3259,0.3766
-0.16,0.123,0,30.4,-218.2,64.6,1023,2018,5,10,15,33,20.538,-0.7906,0.3556,-0.3249,0.3779
-0.183,-0.132,-0.131,23.9,-400.7,48.9,1023,2018,5,10,15,33,20.557,-0.7674,0.4039,-0.3381,0.3654
-0.243,-0.427,-0.238,8.9,-495.8,29.6,1023,2018,5,10,15,33,20.579,-0.7304,0.4682,-0.3617,0.341
-0.219,-0.761,-0.405,8.3,-429.6,5.5,0,2018,5,10,15,33,20.599,-0.6887,0.5283,-0.3862,0.3119
-0.163,-0.76,-0.533,20.5,-314.3,-22.6,0,2018,5,10,15,33,20.62,-0.6549,0.5714,-0.4044,0.2843
-0.072,-0.586,-0.442,39.7,-217,-42.5,0,2018,5,10,15,33,20.641,-0.632,0.5997,-0.4169,0.2586
-0.031,-0.446,-0.236,57,-147.9,-54.6,0,2018,5,10,15,33,20.66,-0.6187,0.6178,-0.4245,0.2348
-0.046,-0.381,-0.175,68.9,-101.9,-63.3,0,2018,5,10,15,33,20.676,-0.6123,0.6291,-0.429,0.2123
-0.1,-0.368,-0.231,78.3,-71.3,-69,0,2018,5,10,15,33,20.696,-0.6108,0.6358,-0.4314,0.1907
-0.094,-0.33,-0.191,88.1,-33.7,-72.8,0,2018,5,10,15,33,20.716,-0.6137,0.6385,-0.432,0.1699
-0.079,-0.256,-0.108,95.7,4.9,-79.4,0,2018,5,10,15,33,20.756,-0.6214,0.6367,-0.4309,0.1505
-0.094,-0.178,-0.035,99.4,19.8,-86.7,0,2018,5,10,15,33,20.775,-0.6322,0.6315,-0.429,0.1316
-0.142,-0.222,-0.051,98.9,26.4,-91.9,0,2018,5,10,15,33,20.779,-0.644,0.6245,-0.427,0.1128
-0.142,-0.209,-0.027,97.8,38.7,-96.7,0,2018,5,10,15,33,20.816,-0.6565,0.6156,-0.4255,0.0938
-0.133,-0.197,-0.048,96.8,74.7,-101.1,0,2018,5,10,15,33,20.836,-0.6712,0.6032,-0.424,0.0762
-0.169,-0.184,-0.121,94.6,125.8,-107.3,0,2018,5,10,15,33,20.84,-0.6901,0.5844,-0.4221,0.0615
-0.236,-0.158,-0.186,90,158.2,-115.4,0,2018,5,10,15,33,20.86,-0.7126,0.5592,-0.4206,0.0493
-0.222,0.026,-0.041,84.7,173.8,-119.7,0,2018,5,10,15,33,20.896,-0.7358,0.53,-0.4196,0.0384
-0.213,0.177,0.042,76.5,160.3,-122.3,0,2018,5,10,15,33,20.9,-0.7575,0.4998,-0.4189,0.0276
-0.191,0.161,0.021,68.8,146.1,-119.2,0,2018,5,10,15,33,20.917,-0.7769,0.47,-0.4184,0.0163
-0.241,0.14,-0.022,57,120.1,-115.8,0,2018,5,10,15,33,20.956,-0.7929,0.443,-0.4182,0.0051
-0.246,0.188,0.021,48.1,73.3,-109.4,0,2018,5,10,15,33,20.977,-0.8044,0.4208,-0.4191,-0.0072
-0.181,0.277,0.084,40.9,17.9,-103.3,0,2018,5,10,15,33,20.981,-0.8106,0.4066,-0.4207,-0.0222
-0.161,0.16,0.042,36.2,-15.5,-95.8,0,2018,5,10,15,33,20.999,-0.8127,0.3995,-0.4222,-0.0392
-0.147,0.127,0.026,30.2,-9,-83.3,0,2018,5,10,15,33,21.038,-0.8139,0.3939,-0.4233,-0.0557
-0.15,0.282,0.09,23.6,16.2,-66.9,0,2018,5,10,15,33,21.059,-0.8155,0.3872,-0.4246,-0.0679
-0.147,0.432,0.154,13,16,-48.5,0,2018,5,10,15,33,21.063,-0.8173,0.3802,-0.4261,-0.076
-0.14,0.488,0.224,0.6,6,-24.2,0,2018,5,10,15,33,21.081,-0.818,0.3759,-0.4277,-0.0809
-0.088,0.503,0.273,-14.9,13.3,6.4,0,2018,5,10,15,33,21.1,-0.8178,0.3743,-0.4294,-0.081
-0.088,0.511,0.217,-31.4,50.3,41.1,0,2018,5,10,15,33,21.12,-0.8183,0.3721,-0.4316,-0.0738
-0.081,0.534,0.097,-42.3,111.9,79.2,1023,2018,5,10,15,33,21.139,-0.8214,0.3656,-0.4339,-0.0565
-0.073,0.507,0.006,-42.2,196.8,117.8,1023,2018,5,10,15,33,21.16,-0.8287,0.3509,-0.4351,-0.0275
-0.144,0.572,0.032,-38.9,246.3,150.2,1023,2018,5,10,15,33,21.18,-0.8392,0.3283,-0.4332,0.0116
-0.2,0.381,-0.009,-40.3,280.4,178.5,1023,2018,5,10,15,33,21.218,-0.8496,0.3019,-0.4283,0.058
-0.129,-0.123,-0.415,-22.4,437.6,197.9,1023,2018,5,10,15,33,21.239,-0.8618,0.2621,-0.4188,0.1142
-0.145,-0.214,-0.575,24.4,658.3,194.2,1023,2018,5,10,15,33,21.243,-0.8789,0.191,-0.396,0.1846
-0.199,-0.147,-0.382,87.4,800.5,156.2,1023,2018,5,10,15,33,21.263,-0.8941,0.0906,-0.3534,0.2594
-0.177,0.388,-0.224,123.6,772.8,106,1023,2018,5,10,15,33,21.281,-0.8984,-0.0229,-0.2944,0.3249
0.05,1.02,-0.094,151,528.3,86,1023,2018,5,10,15,33,21.322,-0.8912,-0.1125,-0.2335,0.372
0.146,0.583,-0.076,157.8,253.1,69.4,1023,2018,5,10,15,33,21.343,-0.8827,-0.1568,-0.1863,0.4016
-0.108,-0.061,0.372,162.7,125.1,69,1023,2018,5,10,15,33,21.347,-0.8775,-0.1697,-0.151,0.4222
-0.224,0.052,0.716,150.9,37.8,68.3,1023,2018,5,10,15,33,21.365,-0.874,-0.1677,-0.1232,0.4389
-0.162,-0.161,0.447,140.2,7.5,79,1023,2018,5,10,15,33,21.385,-0.8705,-0.1577,-0.1019,0.4548
-0.07,0.021,-0.024,149.9,-38.5,75.5,1023,2018,5,10,15,33,21.406,-0.8668,-0.1434,-0.0831,0.4702
-0.218,0.158,-0.032,162.2,-200.7,70.7,0,2018,5,10,15,33,21.426,-0.8653,-0.112,-0.0705,0.4833
-0.508,0.159,0.328,139.5,-425.8,60.2,0,2018,5,10,15,33,21.443,-0.8659,-0.0513,-0.0746,0.4917
-0.592,-0.153,0.388,99.9,-609.4,66.9,0,2018,5,10,15,33,21.463,-0.8627,0.0403,-0.103,0.4933
-0.575,-0.211,0.126,74.2,-716.7,76.9,0,2018,5,10,15,33,21.502,-0.8469,0.1495,-0.1462,0.4887
-0.587,-0.116,-0.497,47.9,-792.2,67.5,0,2018,5,10,15,33,21.522,-0.8147,0.2674,-0.1991,0.4744
-0.544,-0.715,-0.897,39.6,-702,40.9,0,2018,5,10,15,33,21.526,-0.7684,0.3785,-0.2519,0.4502
-0.556,-1.215,-0.854,50.2,-478,-12.6,0,2018,5,10,15,33,21.565,-0.7263,0.4594,-0.2898,0.421
-0.45,-1.163,-0.646,62.8,-280.8,-64.6,0,2018,5,10,15,33,21.569,-0.7012,0.5071,-0.3123,0.3919
-0.304,-0.86,-0.361,71.1,-155.9,-97.5,0,2018,5,10,15,33,21.584,-0.6914,0.5323,-0.3256,0.364
-0.215,-0.417,0.004,67.4,-126.1,-116.1,0,2018,5,10,15,33,21.607,-0.689,0.547,-0.3358,0.3363
-0.195,-0.29,0.142,59.3,-120.3,-126.3,0,2018,5,10,15,33,21.627,-0.6879,0.5579,-0.3467,0.3083
-0.178,-0.242,0.151,47,-117,-133.6,0,2018,5,10,15,33,21.644,-0.6863,0.5668,-0.3592,0.2802
-0.229,-0.284,0.077,35.8,-98.2,-141.3,0,2018,5,10,15,33,21.665,-0.6844,0.573,-0.3731,0.2527
-0.003,-0.164,0.043,30.5,-66.3,-143,0,2018,5,10,15,33,21.685,-0.6842,0.5748,-0.3869,0.227
0.135,-0.09,0.118,34,-10.5,-137.4,0,2018,5,10,15,33,21.704,-0.6886,0.5702,-0.3988,0.2039
0.131,-0.12,0.248,28.6,66.9,-128.6,0,2018,5,10,15,33,21.731,-0.6982,0.5585,-0.4071,0.1866
0.126,-0.082,0.243,16.6,159.5,-117,0,2018,5,10,15,33,21.75,-0.7146,0.5361,-0.4125,0.1776
0.183,-0.077,0.08,10.1,277.7,-103.2,0,2018,5,10,15,33,21.764,-0.7388,0.5007,-0.4143,0.178
0.22,0.108,-0.069,3.9,411.4,-89,0,2018,5,10,15,33,21.804,-0.7716,0.4472,-0.4107,0.1895
0.246,0.346,-0.251,2.3,506,-73.2,0,2018,5,10,15,33,21.823,-0.808,0.3773,-0.4,0.2113
0.244,0.713,-0.428,15.2,533.2,-53,0,2018,5,10,15,33,21.826,-0.8418,0.2976,-0.3822,0.2377
0.226,0.933,-0.349,30.5,478.3,-31.1,0,2018,5,10,15,33,21.844,-0.8683,0.2195,-0.358,0.2637
0.197,0.926,-0.11,40.5,343,-10.7,0,2018,5,10,15,33,21.866,-0.8848,0.1571,-0.3337,0.2844
0.077,0.507,0.094,37.1,194.7,0.4,0,2018,5,10,15,33,21.901,-0.8937,0.1184,-0.3142,0.2975
0.137,0.238,0.075,43.3,89.5,5,1023,2018,5,10,15,33,21.922,-0.8982,0.0991,-0.3007,0.3046
0.116,0.125,0.04,50.5,-5.8,9.4,1023,2018,5,10,15,33,21.926,-0.9009,0.0956,-0.291,0.3071
0.12,0.08,-0.033,57.2,-96.7,10.8,1023,2018,5,10,15,33,21.948,-0.9021,0.1069,-0.2856,0.305
0.062,0.472,0.035,69.6,-273.5,19.3,1023,2018,5,10,15,33,21.968,-0.9007,0.1397,-0.2846,0.2968
0.007,0.503,-0.104,58.3,-444.3,37.4,1023,2018,5,10,15,33,21.988,-0.8914,0.2027,-0.2922,0.2807
-0.083,-0.712,-0.464,23,-320.5,48.3,1023,2018,5,10,15,33,22.008,-0.8744,0.2697,-0.3039,0.2648
0.008,-2.034,-0.7,15.8,61.6,31,1023,2018,5,10,15,33,22.045,-0.867,0.2922,-0.3056,0.2635
0.004,-0.797,-0.528,52.8,347.7,3.7,1023,2018,5,10,15,33,22.066,-0.8794,0.2594,-0.288,0.2761
-0.034,0.007,-0.613,69.2,416.5,-7,1023,2018,5,10,15,33,22.07,-0.8984,0.2008,-0.2589,0.2921
-0.037,0.509,-0.7,84.7,363,-0.7,1023,2018,5,10,15,33,22.091,-0.9138,0.1419,-0.226,0.3059
-0.178,0.424,-0.427,102.5,269.8,4.6,1023,2018,5,10,15,33,22.11,-0.9236,0.0967,-0.1938,0.3161
-0.441,0.284,0.144,93.6,100.7,3.3,1023,2018,5,10,15,33,22.148,-0.9293,0.0721,-0.1669,0.3213
-0.584,-0.032,0.386,70.8,-66.5,-2.7,0,2018,5,10,15,33,22.152,-0.9316,0.0749,-0.1532,0.3207
-0.598,-0.204,0.267,47.2,-174.9,-13.5,0,2018,5,10,15,33,22.169,-0.9316,0.0994,-0.1512,0.3151
-0.618,-0.342,0.006,35.5,-198.2,-33.5,0,2018,5,10,15,33,22.187,-0.93,0.1322,-0.1556,0.3054
-0.72,-0.464,-0.163,25.6,-161.3,-62.5,0,2018,5,10,15,33,22.206,-0.9286,0.1625,-0.1614,0.2917
-0.616,-0.448,-0.151,12.9,-96.9,-86.9,0,2018,5,10,15,33,22.246,-0.9291,0.1818,-0.1669,0.2752
-0.474,-0.355,-0.063,-0.5,-54.4,-98.2,0,2018,5,10,15,33,22.267,-0.9312,0.1912,-0.1726,0.2575
-0.462,-0.187,0.013,-6.6,3.8,-96,0,2018,5,10,15,33,22.272,-0.9346,0.1919,-0.1775,0.241
-0.478,0.049,0.055,-20.7,55.4,-88.8,0,2018,5,10,15,33,22.29,-0.939,0.183,-0.1815,0.2274
-0.376,0.307,0.002,-35.8,90,-76.6,0,2018,5,10,15,33,22.31,-0.9436,0.167,-0.1858,0.2171
-0.13,0.29,-0.2,-41.6,150.1,-60.5,0,2018,5,10,15,33,22.349,-0.9481,0.143,-0.19,0.2109
0.058,0.06,-0.352,-35.1,234.7,-36.1,0,2018,5,10,15,33,22.353,-0.9526,0.1092,-0.1908,0.21
0.062,0.389,-0.199,-17.5,361,-10,0,2018,5,10,15,33,22.37,-0.957,0.0572,-0.184,0.2165
0.058,0.838,-0.115,-3.3,420.4,23.3,0,2018,5,10,15,33,22.39,-0.958,-0.0107,-0.17,0.2303
0.128,0.805,-0.114,14.5,309.9,58.5,0,2018,5,10,15,33,22.409,-0.9537,-0.0718,-0.1534,0.2482
0.174,0.794,0.047,30.6,140,87.5,0,2018,5,10,15,33,22.429,-0.9477,-0.1056,-0.1402,0.2664
0.079,0.678,0.417,28.4,-14,123.6,0,2018,5,10,15,33,22.466,-0.9421,-0.111,-0.1348,0.286
-0.164,0.29,0.745,10.2,-182.1,150.9,0,2018,5,10,15,33,22.485,-0.9372,-0.0892,-0.1392,0.3068
-0.148,0.086,0.637,-8,-326.7,155.5,0,2018,5,10,15,33,22.49,-0.9315,-0.0438,-0.1554,0.3256
-0.07,0.236,-0.229,-25.3,-491.2,136.4,0,2018,5,10,15,33,22.529,-0.923,0.0272,-0.1828,0.3372
-0.246,0.231,-0.407,-11.4,-571.7,102.3,0,2018,5,10,15,33,22.551,-0.9088,0.1141,-0.2158,0.338
-0.346,-0.707,-0.308,12.8,-523.5,44.3,0,2018,5,10,15,33,22.555,-0.8882,0.207,-0.2471,0.3271
-0.29,-0.991,-0.434,40.8,-326.6,-15,0,2018,5,10,15,33,22.569,-0.8713,0.2734,-0.2656,0.3087
-0.256,-0.767,-0.516,53.2,-145.3,-40.3,0,2018,5,10,15,33,22.605,-0.8636,0.3089,-0.2719,0.2911
-0.189,-0.959,-0.652,71.8,-9.8,-51.7,0,2018,5,10,15,33,22.627,-0.8647,0.3214,-0.2687,0.2769
-0.127,-0.472,-0.512,88.7,118.4,-59.6,0,2018,5,10,15,33,22.631,-0.8746,0.3131,-0.2566,0.2667
-0.143,0.203,-0.103,96.7,136.3,-59.1,0,2018,5,10,15,33,22.67,-0.8889,0.293,-0.2388,0.2585
-0.246,0.652,0.458,78.3,60.2,-50.8,0,2018,5,10,15,33,22.691,-0.9001,0.2786,-0.223,0.2495
-0.233,0.367,0.539,40,13,-36.7,1023,2018,5,10,15,33,22.695,-0.9056,0.2753,-0.2145,0.2408
-0.143,0.155,0.284,4.9,32,-22.4,1023,2018,5,10,15,33,22.713,-0.9087,0.2712,-0.2117,0.2359
-0.052,0.027,-0.008,-8.6,29.3,-6.7,1023,2018,5,10,15,33,22.752,-0.911,0.2646,-0.2114,0.2351
-0.062,-0.325,-0.102,-19.5,34.2,4.7,1023,2018,5,10,15,33,22.771,-0.9115,0.2601,-0.2128,0.2367
-0.01,-0.339,0.127,-39.6,125.2,7.6,1023,2018,5,10,15,33,22.775,-0.9136,0.2469,-0.2137,0.2419
-0.011,-0.619,0.138,-71.2,256.2,8.6,1023,2018,5,10,15,33,22.794,-0.9192,0.2133,-0.2137,0.2527
0.053,-0.511,-0.111,-99.7,401.8,22.1,1023,2018,5,10,15,33,22.831,-0.9258,0.1568,-0.2124,0.2702
0.152,-0.084,-0.641,-103.6,531.1,46.4,1023,2018,5,10,15,33,22.835,-0.9299,0.0759,-0.2053,0.2953
0.25,0.699,-0.744,-70.7,534.8,78.8,1023,2018,5,10,15,33,22.851,-0.9263,-0.016,-0.1894,0.3252
0.167,0.87,-0.309,-43.4,349.7,107.1,1023,2018,5,10,15,33,22.89,-0.9148,-0.0883,-0.1725,0.3541
0.141,0.576,0.22,-28.5,88.2,110.2,1023,2018,5,10,15,33,22.91,-0.9027,-0.1217,-0.1664,0.3775
0.104,0.367,0.416,-35.9,-227.2,109.2,1023,2018,5,10,15,33,22.915,-0.8961,-0.1079,-0.1784,0.3916
0.133,-0.095,-0.501,-48,-464.2,97.1,1023,2018,5,10,15,33,22.933,-0.8924,-0.0513,-0.2119,0.3949
0.137,0.254,-0.868,-8.8,-633.5,71.1,1023,2018,5,10,15,33,22.954,-0.8862,0.0342,-0.2546,0.3855
0.029,0.108,-0.751,51.8,-753.9,36.7,0,2018,5,10,15,33,22.99,-0.8723,0.1473,-0.2963,0.3597
-0.044,0.198,-0.636,82.2,-747.1,8.2,0,2018,5,10,15,33,23.012,-0.8476,0.2668,-0.3298,0.3184
-0.046,-0.223,-0.694,81.5,-627.4,5.5,0,2018,5,10,15,33,23.014,-0.8131,0.3727,-0.3537,0.2733
-0.146,-1.467,-0.64,69.5,-390.8,3.6,0,2018,5,10,15,33,23.049,-0.7802,0.4489,-0.3659,0.2361
-0.246,-2.658,-0.673,59,16.9,-29.4,0,2018,5,10,15,33,23.07,-0.7692,0.4766,-0.3659,0.217
-0.163,-1.736,-0.645,58.6,510,-71,0,2018,5,10,15,33,23.074,-0.7971,0.4376,-0.3514,0.2225
-0.156,0.042,-0.923,50.2,842.5,-96.7,0,2018,5,10,15,33,23.092,-0.8513,0.3328,-0.3206,0.2481
-0.236,1.206,-0.845,37.2,868.8,-79,0,2018,5,10,15,33,23.113,-0.8984,0.1958,-0.2775,0.2782
-0.151,1.834,-0.507,26,664.4,-33.4,0,2018,5,10,15,33,23.133,-0.9206,0.0712,-0.2347,0.3036
-0.135,1.561,0.131,19.2,268.9,-0.1,0,2018,5,10,15,33,23.154,-0.925,-0.0029,-0.2059,0.3192
-0.107,0.944,0.371,19.3,-111.1,-1.6,0,2018,5,10,15,33,23.177,-0.9254,-0.012,-0.1994,0.3217
-0.159,0.326,0.213,24.7,-344.8,-4.9,0,2018,5,10,15,33,23.196,-0.9261,0.0297,-0.2096,0.3121
-0.23,-0.091,0.024,38.1,-395.9,-9.1,0,2018,5,10,15,33,23.215,-0.9236,0.0923,-0.2246,0.2963
-0.253,-1.103,-0.194,31,-195.8,-18.6,0,2018,5,10,15,33,23.237,-0.9192,0.1435,-0.2353,0.2811
-0.193,-1.416,-0.294,27.5,78,-39.7,0,2018,5,10,15,33,23.256,-0.9203,0.1529,-0.2343,0.2733
-0.168,-0.25,-0.532,61.2,306.7,-43.3,0,2018,5,10,15,33,23.276,-0.9292,0.1195,-0.2179,0.2732
-0.222,0.637,-0.384,69.5,368.9,-16.9,0,2018,5,10,15,33,23.295,-0.9388,0.0641,-0.1903,0.2798
-0.258,0.942,0.063,60.6,284.6,19.7,0,2018,5,10,15,33,23.316,-0.9429,0.0123,-0.1629,0.2899
-0.194,1.219,0.577,50.3,22.2,52.1,0,2018,5,10,15,33,23.335,-0.9425,-0.0109,-0.1451,0.3006
-0.131,0.68,0.505,3.6,-316.6,73.8,0,2018,5,10,15,33,23.357,-0.9396,0.0198,-0.1493,0.3071
-0.065,0.304,0.104,-22.2,-526.5,87.5,0,2018,5,10,15,33,23.377,-0.9305,0.0921,-0.1743,0.3085
-0.094,-0.175,-0.18,-21.7,-594.3,82.5,0,2018,5,10,15,33,23.397,-0.911,0.1868,-0.2067,0.3037
0.08,-1.528,-0.702,-3.3,-213.4,35.7,0,2018,5,10,15,33,23.418,-0.8907,0.2546,-0.2298,0.2981
0.075,-1.04,-0.841,37.2,157.2,-11.1,0,2018,5,10,15,33,23.439,-0.8911,0.2556,-0.2261,0.299
0.114,-0.307,-0.484,70.5,228.3,-31.3,0,2018,5,10,15,33,23.457,-0.9033,0.225,-0.2071,0.3007
0.022,0.069,-0.076,63.8,252.3,-23.9,0,2018,5,10,15,33,23.477,-0.9159,0.1893,-0.1848,0.3017
0.05,0.458,0.118,54.5,243,-9.8,1023,2018,5,10,15,33,23.519,-0.9261,0.1514,-0.1625,0.3049
0.052,0.639,0.179,35.8,176.3,10.3,1023,2018,5,10,15,33,23.523,-0.9323,0.1193,-0.1439,0.3095
0.078,0.668,0.201,17.5,64.2,38.2,1023,2018,5,10,15,33,23.539,-0.9339,0.1017,-0.1326,0.316
0.045,0.473,0.274,-2.2,-69.1,59.9,1023,2018,5,10,15,33,23.556,-0.9311,0.1044,-0.1308,0.3239
0.048,0.154,0.266,-23.6,-161.2,66.1,1023,2018,5,10,15,33,23.577,-0.9246,0.1249,-0.1388,0.3318
0.147,-0.084,0.184,-37.6,-194.6,60.1,1023,2018,5,10,15,33,23.598,-0.9158,0.1531,-0.1537,0.3379
0.162,-0.101,0.135,-48.9,-178.6,51.6,1023,2018,5,10,15,33,23.618,-0.9058,0.181,-0.1714,0.3423
0.173,-0.047,0.058,-58.8,-152.2,45.1,1023,2018,5,10,15,33,23.638,-0.8957,0.2043,-0.1898,0.3461
0.177,0.116,-0.018,-63.2,-164.8,42.8,1023,2018,5,10,15,33,23.66,-0.8851,0.2262,-0.2073,0.3497
0.184,0.168,-0.072,-64.8,-191.1,42,1023,2018,5,10,15,33,23.678,-0.8726,0.251,-0.2264,0.3522
0.206,0.113,-0.091,-64.6,-210.4,40.2,1023,2018,5,10,15,33,23.698,-0.8579,0.2798,-0.2469,0.3529
0.247,-0.579,-0.167,-69.6,-90,32.2,1023,2018,5,10,15,33,23.74,-0.8445,0.3008,-0.2651,0.3548
0.249,-0.27,-0.131,-47.1,80.9,29.5,1023,2018,5,10,15,33,23.76,-0.8401,0.2979,-0.2718,0.3625
0.163,0.191,-0.072,-31.1,132.6,33.9,1023,2018,5,10,15,33,23.764,-0.8423,0.2794,-0.268,0.3747
0.143,0.276,-0.126,-15.2,82,40.5,1023,2018,5,10,15,33,23.781,-0.844,0.2632,-0.2623,0.3865
0.052,0.004,-0.158,-6.7,25.5,45,0,2018,5,10,15,33,23.804,-0.8428,0.2576,-0.2587,0.3952
0.017,-0.164,-0.137,7.2,50.9,48.3,0,2018,5,10,15,33,23.823,-0.841,0.2548,-0.2544,0.4036
-0.028,-0.174,-0.194,23,168.4,54.8,0,2018,5,10,15,33,23.84,-0.8427,0.2414,-0.2422,0.4156
-0.175,0,-0.154,45.1,228.8,57,0,2018,5,10,15,33,23.858,-0.8482,0.2158,-0.2193,0.4309
-0.187,-0.051,-0.103,56.7,235.1,52.6,0,2018,5,10,15,33,23.88,-0.854,0.187,-0.1918,0.4458
-0.283,-0.198,-0.053,58,238.1,46.2,0,2018,5,10,15,33,23.899,-0.8591,0.1578,-0.1628,0.4587
-0.269,-0.01,-0.107,61.8,253,39.9,0,2018,5,10,15,33,23.937,-0.8633,0.1267,-0.1327,0.47
-0.237,0.195,-0.244,70.6,234.7,40.1,0,2018,5,10,15,33,23.957,-0.8661,0.0956,-0.1015,0.4799
-0.282,0.216,-0.067,77.2,159.5,39.4,0,2018,5,10,15,33,23.961,-0.8668,0.0721,-0.0726,0.4879
-0.451,0.119,0.244,65.2,46.4,39.8,0,2018,5,10,15,33,23.998,-0.8654,0.0633,-0.0523,0.4942
-0.412,0.157,0.213,49.8,-90.5,39.2,0,2018,5,10,15,33,24.019,-0.8621,0.0724,-0.0456,0.4994
-0.307,0.167,0.053,40.9,-209.8,39.1,0,2018,5,10,15,33,24.023,-0.8567,0.0998,-0.0519,0.5033
-0.299,0.234,-0.028,35.2,-315.2,39.1,0,2018,5,10,15,33,24.04,-0.8479,0.1433,-0.069,0.5055
-0.399,0.067,-0.018,21.1,-374,39.6,0,2018,5,10,15,33,24.058,-0.8343,0.1978,-0.0945,0.5056
-0.43,0.018,-0.129,6.4,-404,32.7,0,2018,5,10,15,33,24.078,-0.8158,0.2562,-0.1258,0.5029
-0.437,-0.037,-0.348,-2.7,-424.9,19.7,0,2018,5,10,15,33,24.119,-0.7927,0.3152,-0.1604,0.4964
-0.393,-0.103,-0.53,0.1,-424.4,1.6,0,2018,5,10,15,33,24.139,-0.7658,0.3738,-0.1971,0.4846
-0.509,-0.452,-0.453,8.7,-367.3,-26.5,0,2018,5,10,15,33,24.143,-0.7391,0.426,-0.2304,0.468
-0.542,-0.74,-0.358,14.2,-279.2,-63.9,0,2018,5,10,15,33,24.163,-0.7181,0.4661,-0.2583,0.4475
-0.457,-0.691,-0.315,19.4,-186.8,-95.5,0,2018,5,10,15,33,24.182,-0.7059,0.492,-0.2805,0.4252
-0.31,-0.443,-0.19,27.4,-121.5,-116.1,0,2018,5,10,15,33,24.203,-0.7018,0.5066,-0.2978,0.4025
-0.314,-0.273,-0.038,33.8,-75.1,-126.1,0,2018,5,10,15,33,24.244,-0.7032,0.5141,-0.3114,0.3796
-0.349,-0.119,-0.041,33.2,-59.5,-134.5,0,2018,5,10,15,33,24.263,-0.7077,0.5168,-0.3231,0.357
-0.289,-0.123,-0.074,32.9,-55.7,-141.5,0,2018,5,10,15,33,24.267,-0.7126,0.5181,-0.3351,0.3335
-0.256,-0.317,-0.145,33.8,-6.3,-143.3,0,2018,5,10,15,33,24.282,-0.7195,0.5159,-0.3458,0.3105
-0.229,-0.289,-0.157,34.5,82.6,-138.4,0,2018,5,10,15,33,24.302,-0.7325,0.5041,-0.352,0.292
-0.275,-0.084,-0.161,33.2,135.9,-134.1,1023,2018,5,10,15,33,24.321,-0.7514,0.4822,-0.3536,0.2788
-0.361,0.053,-0.146,33.6,139.3,-133.9,1023,2018,5,10,15,33,24.36,-0.7711,0.4572,-0.3536,0.2667
-0.263,0.049,-0.088,32,169.8,-127.7,1023,2018,5,10,15,33,24.38,-0.7907,0.4302,-0.3525,0.2555
-0.185,0.001,-0.143,32.7,243.3,-120.3,1023,2018,5,10,15,33,24.384,-0.8131,0.3948,-0.3478,0.2486
-0.184,0.122,-0.248,30,285.8,-112.1,1023,2018,5,10,15,33,24.405,-0.8376,0.3502,-0.3391,0.2461
-0.168,0.244,-0.3,28.3,267.2,-101.7,1023,2018,5,10,15,33,24.426,-0.8598,0.3039,-0.3292,0.2448
-0.117,0.306,-0.268,27.1,239.1,-89.9,1023,2018,5,10,15,33,24.445,-0.8777,0.2619,-0.3195,0.2427
-0.026,0.187,-0.305,33.8,283.4,-83.8,1023,2018,5,10,15,33,24.464,-0.8939,0.217,-0.3078,0.2428
0.002,0.267,-0.256,39.6,293.4,-78.2,1023,2018,5,10,15,33,24.504,-0.9091,0.1688,-0.2923,0.244
0.014,0.267,-0.159,38.8,291.2,-74.9,1023,2018,5,10,15,33,24.524,-0.9217,0.12,-0.2753,0.2452
0.051,0.35,-0.093,35.6,285.2,-64.6,1023,2018,5,10,15,33,24.529,-0.9313,0.0709,-0.2579,0.247
0.117,0.379,-0.147,34.4,268.5,-49.4,1023,2018,5,10,15,33,24.548,-0.9375,0.0244,-0.2409,0.2497
0.082,0.455,-0.131,43.5,187.4,-40.8,1023,2018,5,10,15,33,24.565,-0.9413,-0.0135,-0.2244,0.2517
0.053,0.431,-0.087,50.6,73.9,-35,0,2018,5,10,15,33,24.584,-0.9442,-0.0338,-0.2108,0.2505
0.037,0.257,0.021,51.9,-1.7,-25,0,2018,5,10,15,33,24.624,-0.9472,-0.0371,-0.2009,0.2469
0.059,0.318,0.141,49.7,-29.4,-8.9,0,2018,5,10,15,33,24.643,-0.9498,-0.0325,-0.1931,0.2437
0.101,0.434,0.203,46,-47.1,7.4,0,2018,5,10,15,33,24.648,-0.9516,-0.0243,-0.1867,0.2427
0.141,0.462,0.438,34.1,-80.5,16.4,0,2018,5,10,15,33,24.667,-0.9526,-0.0116,-0.1826,0.2429
0.203,0.449,0.596,12.2,-138.6,21.6,0,2018,5,10,15,33,24.687,-0.9525,0.0082,-0.1835,0.2427
0.264,0.383,0.627,-11.2,-192.8,22.7,0,2018,5,10,15,33,24.726,-0.9509,0.0369,-0.1905,0.241
0.298,0.297,0.618,-36.6,-249.3,20.6,0,2018,5,10,15,33,24.746,-0.947,0.0734,-0.2036,0.2372
0.342,0.228,0.458,-60.9,-290.1,14.8,0,2018,5,10,15,33,24.75,-0.9398,0.1171,-0.2227,0.2309
0.329,0.03,0.322,-72.7,-264.3,4.6,0,2018,5,10,15,33,24.765,-0.9297,0.161,-0.2449,0.2226
0.314,0.018,0.223,-70.6,-207.9,-3.4,0,2018,5,10,15,33,24.801,-0.9192,0.1959,-0.2655,0.2145
0.258,0.102,0.108,-62.9,-182.4,-8.1,0,2018,5,10,15,33,24.822,-0.9093,0.2236,-0.2834,0.2068
0.242,0.192,-0.047,-52.2,-188.1,-6.6,0,2018,5,10,15,33,24.827,-0.899,0.2501,-0.2994,0.1986
0.2,0.272,-0.177,-39.6,-213.5,0.7,0,2018,5,10,15,33,24.845,-0.8873,0.2801,-0.3135,0.1894
0.12,-0.232,-0.317,-36.2,-118.5,13.3,0,2018,5,10,15,33,24.882,-0.8758,0.3068,-0.3247,0.1823
0.08,-0.158,-0.429,-19.8,33.7,26.9,0,2018,5,10,15,33,24.902,-0.8716,0.3125,-0.3291,0.185
0.087,0.118,-0.531,3.1,116.3,40.3,0,2018,5,10,15,33,24.91,-0.8746,0.3011,-0.3257,0.1956
0.051,0.335,-0.46,27.8,95,50.8,0,2018,5,10,15,33,24.93,-0.8796,0.2872,-0.3168,0.2081
-0.032,0.381,-0.35,45.2,27.5,66.6,0,2018,5,10,15,33,24.95,-0.8824,0.2828,-0.3059,0.2184
-0.122,0.041,-0.495,61.8,44.4,84.6,0,2018,5,10,15,33,24.97,-0.8835,0.2848,-0.2929,0.2289
-0.212,-0.1,-0.664,82.7,123.6,103.6,0,2018,5,10,15,33,24.986,-0.8874,0.2792,-0.2735,0.2441
-0.186,-0.122,-0.702,106.5,154.2,113.3,0,2018,5,10,15,33,25.02,-0.8937,0.2659,-0.2471,0.2633
-0.259,-0.001,-0.517,130.1,126.9,121,0,2018,5,10,15,33,25.041,-0.8994,0.2542,-0.2163,0.2819
-0.508,-0.251,-0.067,141.1,194.1,123.3,0,2018,5,10,15,33,25.049,-0.9074,0.2326,-0.1461,0.3179
-0.584,-0.445,-0.397,142,279.6,114.6,0,2018,5,10,15,33,25.066,-0.9128,0.2054,-0.1053,0.3367
-0.67,-0.623,-0.509,140.8,379.8,83.2,0,2018,5,10,15,33,25.107,-0.9195,0.162,-0.0592,0.3529
-0.733,-0.301,-0.169,127.8,419.1,48.3,0,2018,5,10,15,33,25.127,-0.9258,0.1054,-0.0103,0.3627
-0.768,0.288,0.439,90.6,347.3,14.2,1023,2018,5,10,15,33,25.131,-0.9289,0.049,0.033,0.3654
-0.816,0.596,0.647,28.9,134.8,-5.2,1023,2018,5,10,15,33,25.151,-0.9296,0.0128,0.0583,0.3635
-0.676,0.178,0.149,-32.5,-108.3,-25.3,1023,2018,5,10,15,33,25.171,-0.9306,0.013,0.0575,0.3611
-0.607,-0.422,-0.029,-65.5,-176,-49.1,1023,2018,5,10,15,33,25.191,-0.9326,0.0359,0.0388,0.3567
-0.598,-0.664,0.185,-81.3,-104.7,-81.9,1023,2018,5,10,15,33,25.211,-0.936,0.0552,0.0171,0.3471
-0.61,-0.454,0.283,-96.8,-43.1,-106.8,1023,2018,5,10,15,33,25.231,-0.941,0.0612,-0.0023,0.3325
-0.541,-0.137,0.159,-114.7,-42.7,-119.4,1023,2018,5,10,15,33,25.248,-0.9469,0.0613,-0.0232,0.3146
-0.431,-0.077,-0.008,-125.7,-71.5,-118.2,1023,2018,5,10,15,33,25.268,-0.9519,0.0636,-0.0478,0.2958
-0.389,-0.04,-0.235,-120.2,-71.6,-115.5,1023,2018,5,10,15,33,25.306,-0.9555,0.0685,-0.0734,0.277
-0.352,-0.152,-0.197,-118,-30.1,-111.1,1023,2018,5,10,15,33,25.326,-0.9584,0.0701,-0.0971,0.2586
-0.357,-0.12,-0.011,-120.3,38.1,-96.6,1023,2018,5,10,15,33,25.33,-0.9608,0.0618,-0.118,0.2428
-0.209,0.05,-0.102,-119.6,78.4,-76.3,1023,2018,5,10,15,33,25.37,-0.9623,0.0447,-0.1366,0.2307
-0.107,0.232,-0.289,-101.9,65,-58.4,0,2018,5,10,15,33,25.388,-0.9626,0.026,-0.1527,0.2222
-0.157,0.135,-0.292,-82.3,29.8,-45.7,0,2018,5,10,15,33,25.392,-0.9621,0.0134,-0.1665,0.2152
-0.122,0.046,-0.197,-62.9,2.2,-32.2,0,2018,5,10,15,33,25.411,-0.9615,0.0064,-0.1781,0.209
-0.065,0.064,-0.17,-44.6,-22.9,-16.2,0,2018,5,10,15,33,25.432,-0.9607,0.0044,-0.1876,0.2043
-0.018,0.182,-0.183,-25.9,-59.6,3.2,0,2018,5,10,15,33,25.452,-0.9597,0.0089,-0.195,0.2019
-0.023,0.108,-0.186,-11.1,-104.3,21.9,0,2018,5,10,15,33,25.472,-0.9584,0.0227,-0.2009,0.2013
0.11,0.217,-0.202,1,-174.6,41.1,0,2018,5,10,15,33,25.49,-0.9563,0.0468,-0.2063,0.2016
0.156,0.188,-0.12,11.1,-243.9,58.8,0,2018,5,10,15,33,25.509,-0.9523,0.0842,-0.2121,0.2023
0.22,0.31,0.056,12.8,-294.9,73.9,0,2018,5,10,15,33,25.53,-0.9452,0.1324,-0.2184,0.2028
0.274,0.34,0.175,10.8,-346.7,88.9,0,2018,5,10,15,33,25.549,-0.9338,0.1887,-0.2255,0.2036
0.267,0.702,-0.021,5.5,-453.6,98.3,0,2018,5,10,15,33,25.587,-0.9154,0.2566,-0.2345,0.2026
0.289,0.38,-0.231,-6.9,-573,100.5,0,2018,5,10,15,33,25.606,-0.8844,0.3428,-0.2478,0.1967
0.117,-0.439,0.026,-18.6,-585.1,82.1,0,2018,5,10,15,33,25.611,-0.8406,0.4354,-0.2631,0.1854
0.119,-1.152,0.069,-34.3,-449.1,49.8,0,2018,5,10,15,33,25.651,-0.7926,0.5144,-0.2785,0.1718
0.173,-1.408,0.128,-28,-97.8,23.9,0,2018,5,10,15,33,25.673,-0.765,0.5515,-0.2875,0.1666
0.197,-0.497,0.271,-10.9,140.5,-7.1,0,2018,5,10,15,33,25.678,-0.7682,0.5452,-0.2879,0.1717
0.192,-0.166,0.246,4.9,216.8,-38,0,2018,5,10,15,33,25.696,-0.7871,0.5173,-0.2847,0.178
0.145,0.006,0.113,15.2,208.7,-50.6,0,2018,5,10,15,33,25.71,-0.808,0.4851,-0.2804,0.1813
0.103,0.206,0.023,24.9,157.3,-51.8,0,2018,5,10,15,33,25.746,-0.8259,0.4569,-0.2759,0.1813
0.113,0.247,0.025,31.1,88,-43.7,0,2018,5,10,15,33,25.766,-0.8382,0.4378,-0.2718,0.1778
0.127,0.255,0.005,35.2,57.1,-24.2,0,2018,5,10,15,33,25.77,-0.8459,0.4273,-0.2674,0.1734
0.07,0.454,0.004,35.3,55.5,-3.6,0,2018,5,10,15,33,25.808,-0.8521,0.4197,-0.2614,0.1713
-0.006,0.51,0.083,31.1,67.3,17.1,0,2018,5,10,15,33,25.826,-0.8579,0.4117,-0.2539,0.1727
-0.085,0.261,0.276,15.8,60.2,33.1,0,2018,5,10,15,33,25.831,-0.8629,0.4036,-0.2465,0.1778
-0.197,0.05,0.497,-8.4,30.5,43.3,0,2018,5,10,15,33,25.871,-0.8651,0.3982,-0.2417,0.1854
-0.192,0.063,0.517,-30.9,-28.1,48.5,0,2018,5,10,15,33,25.891,-0.8628,0.3993,-0.2416,0.1939
-0.117,0.089,0.433,-47.1,-95.2,46.4,0,2018,5,10,15,33,25.896,-0.855,0.4094,-0.2464,0.2012
-0.032,0.067,0.291,-58.2,-151.9,44.6,1023,2018,5,10,15,33,25.915,-0.8418,0.4282,-0.2554,0.2063
0.012,-0.019,0.228,-73,-180.9,44.6,1023,2018,5,10,15,33,25.93,-0.8241,0.4526,-0.2678,0.21
0.028,-0.013,0.232,-88.1,-172.2,49.6,1023,2018,5,10,15,33,25.951,-0.8039,0.4774,-0.2821,0.2147
0.034,0.038,0.205,-99.6,-144.3,56.7,1023,2018,5,10,15,33,25.973,-0.7836,0.4985,-0.2967,0.2222
0.076,0.022,0.138,-106.3,-110.1,66.5,1023,2018,5,10,15,33,26.013,-0.7643,0.5149,-0.3103,0.2329
0.007,0.047,0.133,-112.7,-53.9,82.1,1023,2018,5,10,15,33,26.032,-0.7478,0.5251,-0.3215,0.2481
-0.067,0.003,0.021,-123.5,38.1,103.3,1023,2018,5,10,15,33,26.036,-0.7367,0.5254,-0.3284,0.2704
-0.103,0.197,-0.168,-129.6,124.6,130.7,1023,2018,5,10,15,33,26.055,-0.7317,0.5142,-0.3295,0.3023
-0.286,0.572,-0.284,-133.8,56.6,148.8,1023,2018,5,10,15,33,26.075,-0.7253,0.5021,-0.3281,0.3377
-0.443,0.698,-0.323,-137.7,-84.6,168,1023,2018,5,10,15,33,26.095,-0.7062,0.5048,-0.3322,0.3685
-0.568,0.031,-0.49,-144.8,-93.6,185.6,1023,2018,5,10,15,33,26.134,-0.6759,0.5193,-0.3411,0.3962
-0.59,-0.541,-0.672,-137.3,94.7,193.7,1023,2018,5,10,15,33,26.156,-0.6535,0.5205,-0.3402,0.4313
-0.729,-0.45,-0.864,-107.4,264.5,180.9,1023,2018,5,10,15,33,26.16,-0.6483,0.5003,-0.3223,0.4747
-0.698,-0.314,-0.649,-66,349.1,163.6,1023,2018,5,10,15,33,26.177,-0.6554,0.4663,-0.2899,0.5185
-0.713,-0.516,-0.153,-48.4,365,122.2,1023,2018,5,10,15,33,26.196,-0.6674,0.4264,-0.2508,0.5565
-0.669,-0.84,-0.34,-47,373.6,51.7,0,2018,5,10,15,33,26.22,-0.6832,0.3813,-0.2129,0.5852
-0.553,-0.563,-0.581,-37.5,316.1,-26.3,0,2018,5,10,15,33,26.236,-0.7024,0.3351,-0.1812,0.6012
-0.626,-0.293,-0.486,-21.6,230.5,-96.9,0,2018,5,10,15,33,26.257,-0.7232,0.2964,-0.1598,0.6028
-0.673,-0.15,-0.279,-16.6,152.1,-154.2,0,2018,5,10,15,33,26.278,-0.7455,0.2667,-0.1485,0.5923
-0.579,-0.224,-0.162,-21.8,56.6,-183,0,2018,5,10,15,33,26.295,-0.767,0.2471,-0.1484,0.5731
-0.513,-0.416,-0.085,-39.1,20.5,-197.7,0,2018,5,10,15,33,26.334,-0.7861,0.235,-0.1577,0.5493
-0.447,-0.366,-0.048,-43.9,50.6,-207.7,0,2018,5,10,15,33,26.355,-0.8053,0.2203,-0.1685,0.5238
-0.425,-0.22,-0.082,-46,83.5,-208.3,0,2018,5,10,15,33,26.359,-0.8251,0.2003,-0.1765,0.4978
-0.436,-0.011,-0.151,-46.9,103.1,-201.1,0,2018,5,10,15,33,26.379,-0.844,0.1762,-0.182,0.4725
-0.426,0.164,-0.236,-44.2,100,-191.6,0,2018,5,10,15,33,26.418,-0.8613,0.1504,-0.1862,0.448
-0.315,0.2,-0.201,-37.9,83.7,-182.9,0,2018,5,10,15,33,26.422,-0.8763,0.1276,-0.1901,0.4236
-0.308,0.134,-0.036,-37.1,75.6,-174.1,0,2018,5,10,15,33,26.439,-0.8896,0.1064,-0.1936,0.3996
-0.321,0.069,-0.13,-36.7,71.2,-164.2,0,2018,5,10,15,33,26.458,-0.901,0.0868,-0.1974,0.3763
-0.318,0.076,-0.377,-31,88.9,-148.2,0,2018,5,10,15,33,26.496,-0.9108,0.0666,-0.2,0.3548
-0.19,0.214,-0.401,-17.5,109.4,-133.1,0,2018,5,10,15,33,26.516,-0.9194,0.0442,-0.1992,0.3361
-0.19,0.407,-0.176,-10.9,105.5,-116.3,0,2018,5,10,15,33,26.52,-0.9267,0.0212,-0.1956,0.32
-0.193,0.269,-0.014,-12.1,82.4,-99.2,0,2018,5,10,15,33,26.537,-0.9323,0.0019,-0.1927,0.3057
-0.11,0.427,-0.157,-6,19.7,-81.8,0,2018,5,10,15,33,26.574,-0.9367,-0.0097,-0.1914,0.2928
0.028,0.286,-0.211,2.8,-1.7,-71.7,0,2018,5,10,15,33,26.596,-0.9404,-0.0134,-0.1913,0.2804
0,-0.099,-0.011,14.7,-0.1,-54.2,0,2018,5,10,15,33,26.6,-0.9438,-0.0144,-0.19,0.2699
-0.025,0.053,0.151,21.3,32.2,-31.3,0,2018,5,10,15,33,26.619,-0.9463,-0.0186,-0.1859,0.2635
0.044,0.524,0.175,16.5,-28.4,1,0,2018,5,10,15,33,26.64,-0.9476,-0.0194,-0.1823,0.2613
0.147,0.674,0.136,11,-131.2,25,0,2018,5,10,15,33,26.656,-0.9475,-0.0049,-0.184,0.2612
0.16,0.528,0.226,7.9,-208.2,41.2,0,2018,5,10,15,33,26.676,-0.9459,0.026,-0.1904,0.261
0.127,0.375,0.316,2.2,-213.2,53.8,0,2018,5,10,15,33,26.714,-0.9423,0.0635,-0.1989,0.2615
0.079,0.295,0.314,-3.6,-186.3,66.4,0,2018,5,10,15,33,26.735,-0.9366,0.098,-0.2074,0.2645
0.089,0.15,0.253,-13.5,-169.1,66.1,1023,2018,5,10,15,33,26.739,-0.9296,0.1292,-0.2158,0.2691
0.141,0.112,0.419,-22.2,-148.9,53.2,1023,2018,5,10,15,33,26.776,-0.9222,0.156,-0.2246,0.2732
0.145,0.007,0.606,-35.4,-129,39.6,1023,2018,5,10,15,33,26.779,-0.9147,0.1787,-0.2347,0.2758
0.147,-0.025,0.581,-45.9,-106.9,29.1,1023,2018,5,10,15,33,26.815,-0.9075,0.197,-0.2458,0.2776
0.146,0.045,0.461,-54.9,-97.6,21.8,1023,2018,5,10,15,33,26.837,-0.9005,0.2114,-0.2578,0.2789
0.129,0.124,0.266,-60.5,-102.9,20.7,1023,2018,5,10,15,33,26.841,-0.893,0.225,-0.271,0.2799
0.032,0.059,-0.098,-58.8,-94.8,23.3,1023,2018,5,10,15,33,26.861,-0.8849,0.2391,-0.2846,0.2806
-0.018,-0.192,-0.301,-50.8,-29.7,19.2,1023,2018,5,10,15,33,26.881,-0.8782,0.2474,-0.2956,0.283
-0.005,-0.13,-0.265,-33.3,50.5,10.6,1023,2018,5,10,15,33,26.918,-0.8759,0.2438,-0.3007,0.2877
-0.049,0.224,-0.041,-20.7,66.7,10.2,1023,2018,5,10,15,33,26.939,-0.8769,0.2323,-0.3012,0.2936
-0.096,0.15,0.106,-12.9,32.3,15,1023,2018,5,10,15,33,26.943,-0.8773,0.2246,-0.3007,0.2988
-0.222,-0.18,0.132,-11,-15.8,19.6,1023,2018,5,10,15,33,26.96,-0.876,0.2242,-0.3014,0.3021
-0.263,-0.332,-0.018,-15.8,16.2,23.9,1023,2018,5,10,15,33,26.981,-0.874,0.2251,-0.3028,0.3058
-0.291,-0.102,-0.212,-12.1,46.9,27.2,1023,2018,5,10,15,33,27.001,-0.8732,0.2205,-0.3022,0.3122
-0.318,0.316,-0.175,-9.8,-19.8,25.6,0,2018,5,10,15,33,27.041,-0.8722,0.2174,-0.3012,0.3178
-0.31,0.185,-0.076,-22.2,-128.2,32.8,0,2018,5,10,15,33,27.061,-0.8665,0.2306,-0.3072,0.3186
-0.265,0.183,-0.08,-31.4,-195.8,41.3,0,2018,5,10,15,33,27.065,-0.856,0.256,-0.3188,0.3162
-0.248,0.128,-0.107,-41,-196.5,52.2,0,2018,5,10,15,33,27.082,-0.8417,0.2865,-0.3332,0.3136
-0.238,0.151,-0.19,-47.7,-170.6,60.3,0,2018,5,10,15,33,27.102,-0.8263,0.3141,-0.3468,0.3133
-0.251,0.213,-0.295,-51,-171.2,65.9,0,2018,5,10,15,33,27.124,-0.8102,0.3391,-0.3594,0.315
-0.32,0.054,-0.274,-56.8,-240.2,66.2,0,2018,5,10,15,33,27.143,-0.7904,0.3691,-0.3741,0.3145
-0.434,-0.389,-0.323,-67.4,-299.4,54.2,0,2018,5,10,15,33,27.164,-0.7641,0.4074,-0.3935,0.3085
-0.397,-0.981,-0.477,-62.7,-195.2,32.6,0,2018,5,10,15,33,27.182,-0.7379,0.4407,-0.4128,0.301
-0.249,-1.108,-0.738,-34.8,10.9,8.4,0,2018,5,10,15,33,27.22,-0.7264,0.4508,-0.4222,0.3012
-0.18,-0.809,-0.77,1,148.4,-25.1,0,2018,5,10,15,33,27.24,-0.7329,0.4374,-0.4199,0.3082
-0.155,-0.626,-0.63,27.9,187.9,-57.9,0,2018,5,10,15,33,27.244,-0.7492,0.4129,-0.4116,0.3141
-0.096,-0.438,-0.566,50.3,216.3,-81.6,0,2018,5,10,15,33,27.262,-0.7702,0.3828,-0.4,0.3164
-0.107,-0.454,-0.574,60.6,275.5,-103,0,2018,5,10,15,33,27.283,-0.7946,0.3465,-0.3848,0.3167
-0.078,-0.257,-0.444,66.6,334.7,-119.6,0,2018,5,10,15,33,27.32,-0.8224,0.2988,-0.365,0.3177
-0.099,0.138,-0.297,64.9,352.3,-130.2,0,2018,5,10,15,33,27.341,-0.8499,0.2441,-0.342,0.3177
-0.106,0.327,-0.114,51.2,336.6,-141.1,0,2018,5,10,15,33,27.345,-0.8741,0.1863,-0.3194,0.3148
-0.108,0.256,-0.085,30,317,-142.8,0,2018,5,10,15,33,27.365,-0.8928,0.1319,-0.2999,0.3089
-0.132,0.165,-0.225,25.6,348.7,-143.1,0,2018,5,10,15,33,27.403,-0.9078,0.0739,-0.2807,0.3026
-0.154,0.409,-0.215,38.9,341.2,-143.6,0,2018,5,10,15,33,27.407,-0.9194,0.0134,-0.2584,0.296
-0.194,0.693,-0.031,44.4,240.6,-136.7,0,2018,5,10,15,33,27.423,-0.9278,-0.0378,-0.2361,0.286
-0.167,0.558,0.118,45.3,113.6,-128.2,0,2018,5,10,15,33,27.444,-0.9344,-0.069,-0.2192,0.2718
-0.15,0.418,0.151,44.3,45.7,-111.5,0,2018,5,10,15,33,27.465,-0.9406,-0.0834,-0.207,0.2555
-0.079,0.501,0.071,44.9,44.9,-84.7,0,2018,5,10,15,33,27.483,-0.9459,-0.0915,-0.1965,0.2413
-0.023,0.838,0.061,45.1,38.6,-53.9,0,2018,5,10,15,33,27.503,-0.9494,-0.0996,-0.1859,0.2324
-0.012,0.816,0.172,42,-18.5,-26.6,0,2018,5,10,15,33,27.545,-0.9522,-0.1013,-0.1774,0.2269
-0.014,0.672,0.461,35.9,-112.1,-11,0,2018,5,10,15,33,27.549,-0.9552,-0.0892,-0.1732,0.2225
-0.034,0.574,0.571,20,-233.6,5.3,1023,2018,5,10,15,33,27.568,-0.9584,-0.059,-0.175,0.2171
-0.045,0.192,0.443,-3.3,-312.8,23.9,1023,2018,5,10,15,33,27.604,-0.9598,-0.0106,-0.1845,0.2109
-0.104,-0.125,0.466,-30.7,-278.7,40.4,1023,2018,5,10,15,33,27.625,-0.9573,0.0409,-0.1981,0.2064
-0.151,-0.347,0.452,-57.4,-131.2,47.1,1023,2018,5,10,15,33,27.629,-0.9519,0.0757,-0.2128,0.2069
-0.141,-0.482,0.189,-73.3,95.1,48,1023,2018,5,10,15,33,27.646,-0.9473,0.0768,-0.224,0.2155
-0.175,-0.093,0.052,-74.2,236.9,52.1,1023,2018,5,10,15,33,27.665,-0.9443,0.0461,-0.2286,0.2317
-0.18,0.056,0.053,-72.1,258.1,61.4,1023,2018,5,10,15,33,27.684,-0.9401,0.0033,-0.2297,0.2515
-0.124,-0.198,-0.196,-69.7,285.2,74.4,1023,2018,5,10,15,33,27.703,-0.9333,-0.0403,-0.2295,0.2731
-0.08,0.038,-0.295,-44.2,330.1,83,1023,2018,5,10,15,33,27.743,-0.9233,-0.0911,-0.2244,0.2977
-0.024,0.16,-0.477,-9.3,310.1,85,1023,2018,5,10,15,33,27.763,-0.911,-0.142,-0.2128,0.3233
-0.044,0.299,-0.764,37.1,246.1,86.3,1023,2018,5,10,15,33,27.767,-0.8985,-0.1822,-0.1968,0.3472
-0.14,0.079,-0.63,76.6,169.2,81,1023,2018,5,10,15,33,27.805,-0.8883,-0.2073,-0.1777,0.3691
-0.166,-0.138,-0.368,100.9,130.1,72.5,1023,2018,5,10,15,33,27.826,-0.8803,-0.2218,-0.1571,0.3887
-0.154,-0.321,-0.146,118,116.1,62,1023,2018,5,10,15,33,27.83,-0.8735,-0.231,-0.1347,0.4066
-0.217,-0.356,-0.162,134.4,104.2,46.1,0,2018,5,10,15,33,27.849,-0.8677,-0.2376,-0.1096,0.4224
-0.261,-0.478,-0.245,141.7,95.4,30.7,0,2018,5,10,15,33,27.869,-0.8632,-0.2413,-0.083,0.4355
-0.297,-0.513,0.08,146.1,84.2,13.6,0,2018,5,10,15,33,27.909,-0.8593,-0.2438,-0.055,0.4461
-0.27,-0.316,0.24,134.4,29.4,2.8,0,2018,5,10,15,33,27.928,-0.8572,-0.2415,-0.0296,0.4536
-0.317,-0.106,0.121,122.9,-65.3,3.2,0,2018,5,10,15,33,27.932,-0.8582,-0.2286,-0.0118,0.4594
-0.292,-0.022,0.21,109.4,-177.4,9.9,0,2018,5,10,15,33,27.949,-0.8624,-0.2006,-0.0044,0.4645
-0.289,0.04,0.241,82.7,-316.5,22,0,2018,5,10,15,33,27.967,-0.8689,-0.1552,-0.0108,0.4697
-0.316,-0.233,0.19,50.5,-436,34.8,0,2018,5,10,15,33,28.009,-0.875,-0.0909,-0.0331,0.4742
-0.3,-0.378,-0.018,29.5,-458.6,39,0,2018,5,10,15,33,28.013,-0.8763,-0.0178,-0.0654,0.4768
-0.262,-0.379,-0.047,17.4,-436,25.7,0,2018,5,10,15,33,28.029,-0.8726,0.0525,-0.0988,0.4754
-0.245,-0.376,-0.009,-1.2,-430.8,10.2,0,2018,5,10,15,33,28.049,-0.8647,0.1192,-0.1331,0.4693
-0.203,-0.326,0.111,-23.3,-424.8,-3.8,0,2018,5,10,15,33,28.068,-0.8528,0.1823,-0.1694,0.4589
-0.132,-0.452,0.225,-42.1,-384.1,-19.2,0,2018,5,10,15,33,28.11,-0.8377,0.2391,-0.2068,0.4451
-0.217,-0.308,0.086,-55,-341.3,-32.5,0,2018,5,10,15,33,28.129,-0.8212,0.2863,-0.2425,0.4297
-0.264,-0.248,-0.144,-62.3,-339,-50.5,0,2018,5,10,15,33,28.133,-0.8035,0.3279,-0.278,0.4117
-0.236,-0.339,-0.237,-66.6,-347.1,-71.1,0,2018,5,10,15,33,28.147,-0.7833,0.3684,-0.3148,0.3891
-0.083,-1.232,-0.338,-44.9,-153.8,-94.9,0,2018,5,10,15,33,28.187,-0.7672,0.3964,-0.3464,0.3662
-0.204,-1.182,-0.34,-14.3,172.3,-112.2,0,2018,5,10,15,33,28.208,-0.7732,0.3856,-0.3562,0.3554
-0.248,-0.165,-0.07,4.5,292.5,-131.9,0,2018,5,10,15,33,28.212,-0.7972,0.3421,-0.3483,0.3548
-0.229,0.118,0.051,10.3,214,-145.8,0,2018,5,10,15,33,28.23,-0.8206,0.298,-0.3392,0.3501
-0.221,-0.209,-0.041,12,211.2,-152.4,0,2018,5,10,15,33,28.251,-0.8402,0.2607,-0.3326,0.3395
-0.233,-0.23,-0.125,18.6,279.4,-155.8,0,2018,5,10,15,33,28.271,-0.8603,0.2171,-0.3224,0.3297
-0.248,0.01,-0.233,26.8,346.6,-158.2,0,2018,5,10,15,33,28.31,-0.881,0.1611,-0.3061,0.3227
-0.222,0.385,-0.373,28.6,337.5,-157.1,0,2018,5,10,15,33,28.314,-0.8991,0.0997,-0.286,0.3157
-0.196,0.458,-0.317,29.9,274.6,-151.7,0,2018,5,10,15,33,28.333,-0.9128,0.046,-0.2668,0.3055
-0.179,0.551,-0.116,32.9,223.1,-140.9,0,2018,5,10,15,33,28.348,-0.923,0.0018,-0.2493,0.2929
-0.093,0.411,-0.178,32.4,206.2,-119.9,1023,2018,5,10,15,33,28.387,-0.9302,-0.0366,-0.2332,0.2809
-0.065,0.503,-0.225,40.8,173.3,-94.5,1023,2018,5,10,15,33,28.408,-0.9349,-0.0708,-0.217,0.2715
-0.043,0.607,-0.307,48.5,79.5,-64.4,1023,2018,5,10,15,33,28.412,-0.9384,-0.0927,-0.2025,0.264
-0.015,0.29,-0.379,56.3,-29.3,-40.5,1023,2018,5,10,15,33,28.431,-0.9422,-0.0951,-0.1923,0.2571
-0.063,-0.206,-0.305,63.6,-56.3,-29.4,1023,2018,5,10,15,33,28.468,-0.9465,-0.0847,-0.1843,0.2507
-0.182,-0.286,0.061,69.6,11.9,-27,1023,2018,5,10,15,33,28.489,-0.9501,-0.0792,-0.1737,0.2464
-0.174,0.052,0.243,66.7,25.5,-23.8,1023,2018,5,10,15,33,28.494,-0.9529,-0.0814,-0.1608,0.2438
-0.181,0.306,0.118,56.4,-55.8,-12.8,1023,2018,5,10,15,33,28.511,-0.9555,-0.0773,-0.1506,0.2413
-0.201,-0.013,0.21,38,-164.6,3.2,1023,2018,5,10,15,33,28.533,-0.9583,-0.0559,-0.1475,0.2381
-0.273,-0.211,0.428,14.9,-157.6,20.4,1023,2018,5,10,15,33,28.553,-0.9596,-0.0261,-0.1504,0.2359
-0.291,0.18,0.498,-4.1,-141.5,36.6,1023,2018,5,10,15,33,28.575,-0.9589,-0.0009,-0.1556,0.2369
-0.184,0.29,0.357,-22.1,-176.4,49,1023,2018,5,10,15,33,28.594,-0.9564,0.0258,-0.1643,0.2399
-0.041,0.379,0.242,-32.3,-246.9,55,0,2018,5,10,15,33,28.614,-0.9517,0.0614,-0.1775,0.2426
0.043,0.019,0.032,-44.6,-225.5,61.9,0,2018,5,10,15,33,28.635,-0.9443,0.1034,-0.194,0.2446
0.076,-0.225,0.023,-45.1,-50.2,61.6,0,2018,5,10,15,33,28.65,-0.9371,0.1268,-0.2069,0.2507
0.237,0.1,0.028,-24.5,100.1,52.6,0,2018,5,10,15,33,28.672,-0.9341,0.1208,-0.2095,0.2623
0.312,0.228,0.008,-7.6,118.8,40.1,0,2018,5,10,15,33,28.692,-0.9337,0.1024,-0.2055,0.2745
0.303,0.14,0.098,2.7,77.7,28.5,0,2018,5,10,15,33,28.733,-0.9336,0.0876,-0.2004,0.2834
0.244,0.207,0.236,2.2,25.4,31.7,0,2018,5,10,15,33,28.752,-0.933,0.0804,-0.1969,0.2899
0.168,0.059,0.213,-0.8,0.7,42.7,0,2018,5,10,15,33,28.756,-0.9313,0.08,-0.196,0.2963
-0.003,0.157,0.029,-7.7,-21.1,52.2,0,2018,5,10,15,33,28.774,-0.9285,0.0838,-0.1964,0.3035
-0.026,-0.066,-0.143,-12.6,10.8,55.5,0,2018,5,10,15,33,28.794,-0.9251,0.0857,-0.1985,0.3121
-0.113,-0.171,-0.137,-8.6,62.2,58.2,0,2018,5,10,15,33,28.817,-0.9219,0.0815,-0.1977,0.3228
-0.128,-0.137,-0.31,2.4,91.7,52.3,0,2018,5,10,15,33,28.837,-0.9197,0.0701,-0.1929,0.3345
-0.135,-0.027,-0.505,21.6,90.3,51,0,2018,5,10,15,33,28.856,-0.9181,0.0577,-0.1849,0.3457
-0.186,0.2,-0.45,42.5,52.2,55.5,0,2018,5,10,15,33,28.874,-0.9166,0.0489,-0.1748,0.356
-0.22,0.342,-0.269,59.4,-38.8,66.8,0,2018,5,10,15,33,28.893,-0.9143,0.0527,-0.1654,0.3656
-0.299,0.377,-0.089,69,-185.7,80.5,0,2018,5,10,15,33,28.913,-0.9102,0.0764,-0.1613,0.3736
-0.432,0.152,0.014,66.4,-358.3,91.7,0,2018,5,10,15,33,28.933,-0.9015,0.1271,-0.1673,0.3782
-0.585,-0.099,0.124,53.6,-514.9,97.9,0,2018,5,10,15,33,28.973,-0.8843,0.2026,-0.184,0.3782
-0.626,0.178,-0.261,24.4,-691,93.5,0,2018,5,10,15,33,28.991,-0.8521,0.3016,-0.2141,0.3701
-0.545,-0.2,-0.885,6.2,-711.6,70,0,2018,5,10,15,33,28.996,-0.8026,0.4097,-0.2521,0.3524
-0.427,-1.065,-1.096,-4.8,-582.1,24.5,0,2018,5,10,15,33,29.017,-0.747,0.5014,-0.2878,0.3279
-0.312,-1.44,-0.915,6.7,-272.4,-9.4,0,2018,5,10,15,33,29.037,-0.7074,0.5559,-0.3107,0.3064
-0.17,-1.172,-0.601,29.5,70.1,-34.4,0,2018,5,10,15,33,29.073,-0.7014,0.566,-0.3151,0.297
-0.188,-0.561,-0.269,35.6,225.1,-58.8,0,2018,5,10,15,33,29.078,-0.7223,0.5438,-0.3066,0.2973
-0.194,-0.091,0.006,33.3,185.8,-81.3,0,2018,5,10,15,33,29.094,-0.7476,0.5144,-0.2975,0.2962
-0.053,-0.101,0.219,24.2,105.3,-99.9,0,2018,5,10,15,33,29.114,-0.7663,0.4924,-0.2945,0.2888
0.022,-0.349,0.075,13.6,106.6,-105.6,0,2018,5,10,15,33,29.134,-0.7806,0.4748,-0.296,0.2782
0.074,-0.325,0.024,13.2,163.9,-106,1023,2018,5,10,15,33,29.175,-0.797,0.4516,-0.2969,0.2693
-0.007,-0.063,0.09,10.5,221.7,-111.1,1023,2018,5,10,15,33,29.192,-0.8178,0.4183,-0.2943,0.2635
-0.008,0.347,0.262,5,160.8,-111.9,1023,2018,5,10,15,33,29.195,-0.8372,0.3843,-0.292,0.2567
-0.012,0.405,0.221,1.7,64.4,-106,1023,2018,5,10,15,33,29.233,-0.8493,0.3628,-0.2938,0.246
-0.031,-0.001,0.037,1.1,22.5,-100.5,1023,2018,5,10,15,33,29.254,-0.856,0.3521,-0.2987,0.2324
-0.093,-0.009,-0.024,5.9,56.6,-92.2,1023,2018,5,10,15,33,29.259,-0.8623,0.3415,-0.3023,0.2195
-0.134,0.127,-0.028,6,110.6,-81.2,1023,2018,5,10,15,33,29.277,-0.8712,0.3237,-0.3026,0.2108
-0.16,0.214,-0.007,1.9,143.8,-68.6,1023,2018,5,10,15,33,29.299,-0.8813,0.2998,-0.3013,0.2061
-0.14,0.114,-0.128,-6,143.5,-53.3,1023,2018,5,10,15,33,29.317,-0.8905,0.2745,-0.2996,0.2043
-0.14,0.099,-0.205,-3.1,146,-40.1,1023,2018,5,10,15,33,29.338,-0.8985,0.2494,-0.2974,0.2047
-0.133,0.39,-0.178,3.1,126.7,-25.7,1023,2018,5,10,15,33,29.355,-0.9057,0.2247,-0.2937,0.2069
-0.131,0.625,-0.197,10.6,12.8,-8.2,1023,2018,5,10,15,33,29.375,-0.9095,0.2125,-0.2906,0.2077
-0.152,0.272,-0.322,15.5,-100.5,9.6,1023,2018,5,10,15,33,29.396,-0.9082,0.2211,-0.2902,0.2048
-0.13,0.087,-0.279,17.8,-139.8,23.2,1023,2018,5,10,15,33,29.417,-0.9035,0.242,-0.2914,0.2003
-0.165,-0.036,-0.066,12.8,-124.6,37.1,0,2018,5,10,15,33,29.456,-0.8972,0.2651,-0.2924,0.1976
-0.171,-0.025,0.055,8.5,-129.6,43.5,0,2018,5,10,15,33,29.475,-0.8903,0.2872,-0.2931,0.1972
-0.231,0.451,-0.129,4.7,-181.8,48.3,0,2018,5,10,15,33,29.479,-0.8813,0.3126,-0.2947,0.1964
-0.121,-0.261,-0.418,-3.3,-272.7,42.2,0,2018,5,10,15,33,29.517,-0.8658,0.3519,-0.3002,0.1907
-0.079,-0.335,-0.269,-22.1,-175.1,50.2,0,2018,5,10,15,33,29.538,-0.8484,0.3884,-0.3073,0.1865
-0.184,-0.474,0.073,-19.4,-14.8,48.9,0,2018,5,10,15,33,29.542,-0.8391,0.4042,-0.31,0.1904
-0.144,-0.384,0.152,-6.1,107.8,34.2,0,2018,5,10,15,33,29.56,-0.8413,0.397,-0.3067,0.2008
-0.033,-0.369,0.025,-5.5,100.5,13.5,0,2018,5,10,15,33,29.582,-0.8477,0.3819,-0.3019,0.2103
0.061,-0.235,0.083,-6.9,71.4,7.1,0,2018,5,10,15,33,29.597,-0.8525,0.3698,-0.2992,0.2165
0.075,-0.025,0.134,-7.2,56.4,7.8,0,2018,5,10,15,33,29.637,-0.8561,0.3598,-0.2976,0.221
0.004,0.622,-0.127,0.5,-35.7,11.8,0,2018,5,10,15,33,29.657,-0.857,0.3564,-0.2969,0.224
-0.034,-0.081,-0.115,-1.9,-165.6,10.1,0,2018,5,10,15,33,29.661,-0.8492,0.3743,-0.3009,0.2192
0.073,-0.508,-0.031,-13.1,-43.7,15.7,0,2018,5,10,15,33,29.679,-0.8396,0.3932,-0.3064,0.2154
-0.116,-0.269,0.033,1.9,143.4,7,0,2018,5,10,15,33,29.717,-0.8433,0.3843,-0.3037,0.2207
-0.085,-0.052,0.137,-2.5,189.9,-3.7,0,2018,5,10,15,33,29.737,-0.855,0.3577,-0.2962,0.2302
-0.068,0.01,0.159,-11.7,178.1,-0.8,0,2018,5,10,15,33,29.741,-0.8658,0.3297,-0.2901,0.2397
-0.051,0.03,0.053,-13.6,186.3,1.3,0,2018,5,10,15,33,29.781,-0.8753,0.3011,-0.284,0.2496
-0.026,0.135,-0.127,-3.5,166.1,3,0,2018,5,10,15,33,29.801,-0.8841,0.2722,-0.2773,0.2592
-0.118,0.454,-0.322,16.9,69.2,6,0,2018,5,10,15,33,29.805,-0.8898,0.2545,-0.2702,0.2651
-0.117,0.101,-0.166,24.6,-0.4,4.6,0,2018,5,10,15,33,29.82,-0.8917,0.2515,-0.2657,0.2661
-0.107,-0.226,-0.057,30.6,61.1,-0.2,0,2018,5,10,15,33,29.859,-0.8939,0.2491,-0.2602,0.2665
-0.138,-0.173,-0.051,33.9,132.7,-2.8,0,2018,5,10,15,33,29.877,-0.8997,0.2349,-0.2504,0.2692
-0.137,-0.003,-0.153,41.4,166.2,-2.5,0,2018,5,10,15,33,29.882,-0.9074,0.213,-0.2374,0.2735
-0.109,0.255,-0.29,56.8,181.1,-2.2,0,2018,5,10,15,33,29.9,-0.9156,0.1866,-0.2215,0.2785
-0.103,0.073,-0.264,59.5,213.8,-7.2,0,2018,5,10,15,33,29.937,-0.924,0.1578,-0.2026,0.2832
-0.071,0.047,0.006,64.9,234.2,-10.2,0,2018,5,10,15,33,29.956,-0.9324,0.123,-0.1807,0.2876
-0.007,0.234,0.2,63.8,228.3,-10.4,1023,2018,5,10,15,33,29.96,-0.9394,0.0865,-0.158,0.2916
-0.032,0.308,0.278,53.5,145.7,-2.1,1023,2018,5,10,15,33,29.998,-0.9435,0.0584,-0.1387,0.2949
-0.019,-0.014,0.254,47.5,79.5,0.9,1023,2018,5,10,15,33,30.018,-0.9457,0.0428,-0.1248,0.2969
-0.056,-0.111,0.332,41.7,6.2,8.5,1023,2018,5,10,15,33,30.022,-0.9468,0.0381,-0.1145,0.2982
-0.115,-0.001,0.304,34.9,-98.5,17.4,1023,2018,5,10,15,33,30.059,-0.9465,0.0477,-0.1096,0.2995
-0.153,0.032,0.122,24.2,-247.9,18.3,1023,2018,5,10,15,33,30.064,-0.9441,0.0784,-0.1136,0.299
-0.225,-0.064,-0.129,9.9,-416.9,9.5,1023,2018,5,10,15,33,30.081,-0.9374,0.1358,-0.1281,0.2938
-0.295,-0.238,-0.153,0,-546.6,-1.3,1023,2018,5,10,15,33,30.12,-0.9225,0.2145,-0.1514,0.2828
-0.188,-0.571,-0.173,-13.8,-624.6,-16,1023,2018,5,10,15,33,30.142,-0.8953,0.3087,-0.1819,0.2645
-0.199,0.088,-0.251,-20.3,-712,-36.3,1023,2018,5,10,15,33,30.146,-0.8544,0.4082,-0.2151,0.2387
-0.013,0.102,-0.512,-30.2,-804.3,-47.7,1023,2018,5,10,15,33,30.163,-0.7927,0.5162,-0.2521,0.2033
-0.121,-0.138,-0.537,-38.2,-738.5,-38.9,1023,2018,5,10,15,33,30.204,-0.7144,0.617,-0.2862,0.1639
-0.051,-0.104,-0.348,-27.4,-473.7,-25.2,1023,2018,5,10,15,33,30.223,-0.6446,0.6865,-0.309,0.1323
-0.081,-0.243,-0.13,-15.4,-193.3,-19.1,0,2018,5,10,15,33,30.227,-0.6036,0.7206,-0.3212,0.1147
-0.019,-0.171,-0.083,2.7,36.9,-11.1,0,2018,5,10,15,33,30.245,-0.5952,0.7265,-0.3249,0.1105
0.006,0.074,-0.004,23.8,182.7,-0.5,0,2018,5,10,15,33,30.266,-0.6118,0.7134,-0.3217,0.1148
0.101,-0.008,-0.172,37.7,266,10.3,0,2018,5,10,15,33,30.287,-0.6409,0.6896,-0.3134,0.1238
0.041,0.18,-0.181,45.8,330.9,14.4,0,2018,5,10,15,33,30.307,-0.6786,0.6563,-0.2999,0.1364
-0.043,0.178,0.105,36.2,342.3,14.1,0,2018,5,10,15,33,30.322,-0.7185,0.6162,-0.2849,0.1508
-0.063,0.198,0.327,12.9,286.7,10,0,2018,5,10,15,33,30.344,-0.7523,0.5767,-0.272,0.1653
-0.057,-0.117,0.322,5.2,219.8,7.2,0,2018,5,10,15,33,30.364,-0.777,0.5439,-0.2624,0.1773
-0.026,-0.208,0.352,0.8,136.1,3.9,0,2018,5,10,15,33,30.404,-0.7938,0.5194,-0.2557,0.1859
0.007,-0.093,0.351,-4,-26.9,-2.5,0,2018,5,10,15,33,30.408,-0.7988,0.5115,-0.254,0.1887
-0.024,-0.09,0.195,-11,-219.6,-7.7,0,2018,5,10,15,33,30.425,-0.7866,0.5293,-0.2599,0.1826
-0.097,0.026,0.159,-22.5,-340.7,-0.2,0,2018,5,10,15,33,30.464,-0.7581,0.5678,-0.2716,0.1702
-0.121,0.058,0.128,-32.7,-405.2,-5.2,0,2018,5,10,15,33,30.483,-0.7175,0.6158,-0.2862,0.1545
-0.124,-0.104,-0.026,-34.7,-417.4,-15.5,0,2018,5,10,15,33,30.487,-0.6694,0.665,-0.3018,0.136
-0.152,-0.812,-0.346,-24.3,-193.7,-13.1,0,2018,5,10,15,33,30.525,-0.6286,0.701,-0.3146,0.1198
-0.151,-0.787,-0.538,7.1,206.2,0.5,0,2018,5,10,15,33,30.545,-0.6307,0.6984,-0.3156,0.1214
-0.202,-0.33,-0.653,38.8,408.7,-24.7,0,2018,5,10,15,33,30.549,-0.6715,0.6608,-0.3064,0.1356
-0.23,-0.388,-0.4,49.1,441.9,-64.4,0,2018,5,10,15,33,30.565,-0.7232,0.6066,-0.295,0.1476
-0.207,-0.29,-0.112,36.3,389.2,-89.9,0,2018,5,10,15,33,30.602,-0.7698,0.5491,-0.2861,0.1542
-0.158,-0.301,0.02,13.5,302,-109.6,0,2018,5,10,15,33,30.623,-0.8051,0.4977,-0.2825,0.1551
-0.092,-0.25,-0.052,-7.4,222.7,-123.4,0,2018,5,10,15,33,30.627,-0.8301,0.4547,-0.2851,0.151
-0.045,-0.147,-0.114,-20.4,134.2,-133.2,0,2018,5,10,15,33,30.646,-0.8462,0.4219,-0.2925,0.1424
-0.06,-0.104,-0.144,-24.6,39.8,-150.2,0,2018,5,10,15,33,30.682,-0.8543,0.4017,-0.3041,0.1271
0.007,-0.074,-0.077,-22.5,-30.7,-161.7,0,2018,5,10,15,33,30.703,-0.8562,0.3925,-0.3187,0.1054
-0.004,-0.06,-0.046,-16.4,-80.2,-167.6,0,2018,5,10,15,33,30.707,-0.8535,0.3918,-0.3341,0.0785
-0.001,-0.016,-0.054,-9.4,-96.4,-168.2,1023,2018,5,10,15,33,30.727,-0.8483,0.395,-0.3489,0.0489
0.008,-0.012,-0.056,-1.4,-86.8,-163.6,1023,2018,5,10,15,33,30.749,-0.8423,0.3987,-0.3621,0.0187
-0.015,0.061,-0.007,5.7,-54.1,-155.8,1023,2018,5,10,15,33,30.765,-0.8378,0.3982,-0.3731,-0.0096
-0.082,0.03,-0.034,11.1,-24,-145.8,1023,2018,5,10,15,33,30.803,-0.8355,0.3931,-0.3821,-0.0349
-0.079,0.167,-0.098,14.2,-14.6,-135,1023,2018,5,10,15,33,30.824,-0.8342,0.3854,-0.3899,-0.0579
-0.065,0.2,-0.108,18.2,-17.3,-122.6,1023,2018,5,10,15,33,30.828,-0.8328,0.3784,-0.3962,-0.0791
-0.068,0.017,-0.043,17.9,10.7,-111.1,1023,2018,5,10,15,33,30.849,-0.8317,0.3706,-0.4015,-0.098
-0.171,-0.143,0.062,15.3,89.9,-100.5,1023,2018,5,10,15,33,30.869,-0.8344,0.3553,-0.4064,-0.1108
-0.155,-0.121,-0.06,4.7,164.2,-91.4,1023,2018,5,10,15,33,30.89,-0.8409,0.3292,-0.4134,-0.116
-0.13,-0.006,-0.217,-0.5,205.3,-82.5,1023,2018,5,10,15,33,30.908,-0.8495,0.295,-0.4218,-0.1151
-0.182,0.206,-0.208,-0.4,156,-76.3,1023,2018,5,10,15,33,30.931,-0.8571,0.261,-0.4294,-0.1128
-0.195,0.16,-0.168,-4.1,55.5,-68.8,1023,2018,5,10,15,33,30.95,-0.86,0.24,-0.435,-0.1158
-0.192,-0.011,-0.17,-3.4,-16.6,-61.6,1023,2018,5,10,15,33,30.97,-0.8588,0.2326,-0.439,-0.1247
-0.211,-0.134,-0.21,-1.2,-47.8,-57.9,0,2018,5,10,15,33,30.99,-0.8557,0.2335,-0.4409,-0.1364
-0.246,-0.257,-0.269,3.4,-32.1,-56.4,0,2018,5,10,15,33,31.03,-0.8526,0.2355,-0.4421,-0.1482
-0.277,-0.224,-0.338,10.2,2.7,-55.3,0,2018,5,10,15,33,31.049,-0.8511,0.233,-0.443,-0.1579
-0.311,-0.073,-0.372,17.2,23.6,-51.5,0,2018,5,10,15,33,31.053,-0.8513,0.226,-0.4435,-0.1652
-0.296,0.017,-0.343,21.1,19.2,-43.6,0,2018,5,10,15,33,31.069,-0.8523,0.2184,-0.4432,-0.1712
-0.296,-0.018,-0.267,21,11.2,-30.9,0,2018,5,10,15,33,31.089,-0.8533,0.2129,-0.4418,-0.1765
-0.274,0.053,-0.187,19,7.6,-16,0,2018,5,10,15,33,31.11,-0.8544,0.2088,-0.4402,-0.1801
-0.258,0.031,-0.167,15,1.8,-2.9,0,2018,5,10,15,33,31.147,-0.8558,0.2067,-0.4379,-0.1818
-0.226,0.016,-0.165,9.6,-1.9,9.5,0,2018,5,10,15,33,31.166,-0.8569,0.2063,-0.4358,-0.1819
-0.178,0.026,-0.188,3.8,-4.1,21.7,0,2018,5,10,15,33,31.17,-0.8576,0.2077,-0.4344,-0.1802
-0.133,-0.091,-0.164,-1.7,13.8,31.9,0,2018,5,10,15,33,31.207,-0.8586,0.2092,-0.4335,-0.1759
-0.092,-0.153,-0.136,-9.3,65.4,42.7,0,2018,5,10,15,33,31.227,-0.8607,0.2064,-0.4342,-0.1671
-0.084,-0.089,-0.214,-10.4,135.6,54.4,0,2018,5,10,15,33,31.231,-0.8649,0.1947,-0.4369,-0.1515
-0.044,0.027,-0.351,-9.4,195.6,67.6,0,2018,5,10,15,33,31.273,-0.871,0.1743,-0.4406,-0.129
-0.006,0.186,-0.319,4.6,249,81.3,0,2018,5,10,15,33,31.277,-0.8786,0.1457,-0.4433,-0.1002
-0.008,0.398,-0.21,18.5,265.1,98.3,0,2018,5,10,15,33,31.292,-0.8869,0.1117,-0.4432,-0.0661
-0.078,0.192,-0.145,28.6,253.8,113,0,2018,5,10,15,33,31.311,-0.8939,0.0801,-0.4398,-0.0302
-0.057,0.007,-0.151,44.2,290.4,121.8,0,2018,5,10,15,33,31.333,-0.8996,0.046,-0.434,0.0084
0.002,0.235,-0.073,66.6,271.7,127.3,0,2018,5,10,15,33,31.353,-0.9045,0.0104,-0.4233,0.0492
0.048,0.353,-0.108,88.2,190.6,132,0,2018,5,10,15,33,31.372,-0.9085,-0.0161,-0.4083,0.0868
-0.058,0.177,-0.108,108.7,90.8,132.9,0,2018,5,10,15,33,31.392,-0.9126,-0.0262,-0.3906,0.1177
-0.135,-0.037,-0.071,123.7,34.8,124.5,0,2018,5,10,15,33,31.43,-0.917,-0.0255,-0.3712,0.143
-0.116,-0.074,-0.031,134.5,-1.7,113.2,0,2018,5,10,15,33,31.45,-0.922,-0.0169,-0.3505,0.1636
-0.085,-0.244,0.118,139.9,-16.2,100.1,0,2018,5,10,15,33,31.454,-0.927,-0.0032,-0.3287,0.1801
-0.079,-0.071,0.489,139.9,-8.1,82.2,0,2018,5,10,15,33,31.472,-0.9318,0.0064,-0.3059,0.1948
-0.086,0.032,0.862,108.5,-95.3,72.5,0,2018,5,10,15,33,31.492,-0.9355,0.0223,-0.287,0.2046
-0.047,-0.181,0.548,69.4,-137,65.4,1023,2018,5,10,15,33,31.511,-0.9363,0.0504,-0.2773,0.2091
0.021,-0.192,0.313,65.7,-58.7,54.5,1023,2018,5,10,15,33,31.533,-0.9362,0.0724,-0.2695,0.2133
-0.016,-0.167,0.328,66.7,42,38.9,1023,2018,5,10,15,33,31.553,-0.9375,0.0773,-0.2582,0.2199
-0.011,0.131,0.312,69.9,51.4,21.5,1023,2018,5,10,15,33,31.571,-0.9402,0.072,-0.244,0.2264
0.007,0.297,0.295,68,-19.8,11,1023,2018,5,10,15,33,31.61,-0.9426,0.0725,-0.2317,0.2287
0.02,0.28,0.204,64.3,-106.9,11.1,1023,2018,5,10,15,33,31.632,-0.9439,0.0866,-0.2233,0.2269
0.049,0.184,0.05,54.9,-138.9,24.2,1023,2018,5,10,15,33,31.637,-0.9433,0.1109,-0.2183,0.2237
-0.001,0.372,0.105,44.9,-170.2,46.4,1023,2018,5,10,15,33,31.655,-0.9405,0.1389,-0.2151,0.2229
-0.082,0.28,0.222,27.1,-212.1,67.7,1023,2018,5,10,15,33,31.676,-0.9343,0.1746,-0.2152,0.2239
-0.159,0.26,0.355,8.7,-224.3,82.4,1023,2018,5,10,15,33,31.715,-0.9245,0.2139,-0.2185,0.2272
-0.147,0.224,0.277,-10.8,-210.3,98.2,1023,2018,5,10,15,33,31.735,-0.9118,0.2528,-0.2239,0.2334
-0.129,0.321,0.184,-27.7,-202,108.3,1023,2018,5,10,15,33,31.739,-0.8972,0.2877,-0.2305,0.2428
-0.184,0.303,0.083,-45.3,-235.9,116.3,1023,2018,5,10,15,33,31.757,-0.8791,0.3246,-0.2397,0.2534
-0.264,0.15,0.093,-66.7,-276.5,118.5,0,2018,5,10,15,33,31.773,-0.8557,0.3663,-0.2528,0.2636
-0.303,0.023,0.107,-82.5,-289.3,113.7,0,2018,5,10,15,33,31.809,-0.8276,0.4097,-0.2693,0.273
-0.252,0.032,0,-92.7,-290.3,106.4,0,2018,5,10,15,33,31.811,-0.796,0.4521,-0.2878,0.2811
-0.235,0.072,-0.07,-99.4,-273.9,99.2,0,2018,5,10,15,33,31.847,-0.7626,0.4911,-0.3065,0.2884
-0.267,0.04,-0.09,-106.6,-268.5,95.3,0,2018,5,10,15,33,31.868,-0.7278,0.5265,-0.3252,0.2952
-0.362,0.053,-0.142,-110.8,-260.7,93.2,0,2018,5,10,15,33,31.872,-0.6915,0.559,-0.3435,0.3019
-0.35,0.122,-0.34,-113.5,-263.8,87.5,0,2018,5,10,15,33,31.909,-0.6531,0.5898,-0.3618,0.3075
-0.279,-0.459,-0.821,-108.5,-86.3,89.2,0,2018,5,10,15,33,31.931,-0.6212,0.6106,-0.3754,0.3166
-0.283,-0.843,-1.143,-78.3,240.9,92.3,0,2018,5,10,15,33,31.935,-0.619,0.6017,-0.3707,0.3423
-0.397,-0.282,-1.122,-42.1,366.7,77.8,0,2018,5,10,15,33,31.973,-0.6439,0.5669,-0.347,0.3787
-0.477,0.044,-0.574,-13.5,272.3,51.9,0,2018,5,10,15,33,31.994,-0.6692,0.5314,-0.3213,0.4078
-0.399,0.003,-0.224,4.8,108.7,22.3,0,2018,5,10,15,33,31.998,-0.6833,0.5111,-0.3048,0.4227
-0.276,-0.147,-0.315,21,-21.7,-11.3,0,2018,5,10,15,33,32.017,-0.6869,0.5082,-0.3003,0.4238
-0.176,-0.245,-0.367,29.5,-58.9,-26.6,0,2018,5,10,15,33,32.036,-0.6853,0.5149,-0.3026,0.4164
-0.128,0.001,-0.259,34.4,-67.2,-36.9,0,2018,5,10,15,33,32.057,-0.684,0.5227,-0.3059,0.4064
-0.074,0.451,-0.092,31.6,-212.3,-42.3,0,2018,5,10,15,33,32.077,-0.676,0.539,-0.3149,0.3912
-0.072,0.432,-0.077,24.6,-352.5,-36.4,0,2018,5,10,15,33,32.114,-0.6517,0.5727,-0.3344,0.3677
-0.061,0.231,-0.129,19.8,-372.4,-24.4,0,2018,5,10,15,33,32.134,-0.616,0.6139,-0.3582,0.3394
-0.072,-0.388,-0.192,16.7,-238.3,-15.9,0,2018,5,10,15,33,32.138,-0.5825,0.6475,-0.377,0.3148
-0.151,-0.821,-0.217,23.5,10.9,-18.3,0,2018,5,10,15,33,32.157,-0.5723,0.6585,-0.3823,0.3041
-0.091,-0.642,-0.146,26.9,233.4,-20.8,0,2018,5,10,15,33,32.179,-0.5896,0.6456,-0.3747,0.3082
-0.069,-0.238,-0.011,26.1,403,-16.6,0,2018,5,10,15,33,32.194,-0.6283,0.6111,-0.3555,0.3245
-0.064,0.081,0.055,17.5,471.5,-14.8,0,2018,5,10,15,33,32.234,-0.6763,0.5604,-0.328,0.3475
-0.145,0.218,0.192,12.8,421.1,-22.1,0,2018,5,10,15,33,32.255,-0.7206,0.5049,-0.2992,0.369
-0.227,0.245,0.404,7.5,293.7,-30.5,0,2018,5,10,15,33,32.26,-0.753,0.4581,-0.2766,0.3827
-0.202,0.202,0.413,-0.2,140.4,-38.1,0,2018,5,10,15,33,32.277,-0.7718,0.4286,-0.2645,0.3878
-0.166,-0.04,0.224,-8.4,55.9,-44.4,0,2018,5,10,15,33,32.296,-0.781,0.4144,-0.2622,0.3866
-0.115,-0.215,0.098,-4.7,38.2,-49.4,1023,2018,5,10,15,33,32.318,-0.7867,0.406,-0.2635,0.3828
-0.116,-0.18,0.05,2.9,39.1,-55.5,1023,2018,5,10,15,33,32.337,-0.7929,0.3982,-0.2646,0.3774
-0.066,0.099,0.021,7.4,10.4,-56.4,1023,2018,5,10,15,33,32.375,-0.799,0.3919,-0.2654,0.3707
-0.008,0.298,0.03,12.7,-53.5,-50.6,1023,2018,5,10,15,33,32.397,-0.802,0.3919,-0.2686,0.3618
0.04,0.279,0.011,16.3,-131.8,-39.1,1023,2018,5,10,15,33,32.401,-0.7987,0.4045,-0.2757,0.3497
0.044,0.192,-0.034,20.2,-160.6,-23.6,1023,2018,5,10,15,33,32.422,-0.7906,0.4249,-0.2844,0.3368
0.013,0.228,-0.083,21.4,-177.9,-8.5,1023,2018,5,10,15,33,32.441,-0.7803,0.4473,-0.293,0.3241
-0.027,0.152,-0.158,21,-198.1,3.2,1023,2018,5,10,15,33,32.462,-0.7664,0.4736,-0.3015,0.3119
-0.062,-0.002,-0.095,17.2,-214.2,6.1,1023,2018,5,10,15,33,32.482,-0.7491,0.5028,-0.3098,0.2998
-0.094,-0.145,-0.119,13.3,-232.9,-0.3,1023,2018,5,10,15,33,32.498,-0.7291,0.5333,-0.3191,0.2865
-0.072,-0.3,-0.191,13.1,-221.2,-9,1023,2018,5,10,15,33,32.518,-0.708,0.5624,-0.3291,0.2717
-0.123,-0.552,-0.378,20.1,-170.9,-25.3,1023,2018,5,10,15,33,32.557,-0.6898,0.5865,-0.338,0.2565
-0.1,-0.544,-0.37,30.8,-99.4,-45.3,1023,2018,5,10,15,33,32.577,-0.6792,0.6012,-0.3444,0.2417
-0.089,-0.35,-0.327,40.8,-83.9,-66.9,1023,2018,5,10,15,33,32.581,-0.6746,0.6094,-0.3497,0.2259
-0.059,-0.028,-0.166,49.1,-157.5,-87.8,0,2018,5,10,15,33,32.601,-0.6679,0.6199,-0.3571,0.2047
0.01,-0.178,-0.247,60,-217.7,-96.9,0,2018,5,10,15,33,32.621,-0.6532,0.6382,-0.3674,0.1757
0.029,-0.406,-0.391,73.7,-189.6,-101.1,0,2018,5,10,15,33,32.64,-0.6365,0.6573,-0.377,0.1432
-0.023,-0.398,-0.429,88.8,-92.1,-105.3,0,2018,5,10,15,33,32.675,-0.6277,0.668,-0.3831,0.1131
