time_1,time_2,time_3,time_4,time_5,time_6,w,x,y,z,droll,dpitch,dyaw,ax,ay,az,heart
2018,5,17,21,34,45.805,0.2198,-0.4306,-0.0746,0.8721,0,0,0,-0.002,0.005,-0.004,0
2018,5,17,21,34,45.822,0.2196,-0.4306,-0.0747,0.8721,0,0,0,-0.006,0.002,-0.01,0
2018,5,17,21,34,45.845,0.2194,-0.4306,-0.0747,0.8722,0.5,-0.2,0.5,-0.011,0.002,-0.004,0
2018,5,17,21,34,45.882,0.2193,-0.4306,-0.0748,0.8722,0,0,0,0,0,-0.004,0
2018,5,17,21,34,45.904,0.2191,-0.4306,-0.0748,0.8722,-0.6,-0.1,0.2,0,0.001,-0.006,0
2018,5,17,21,34,45.906,0.2188,-0.4307,-0.0751,0.8722,-0.6,-0.2,0.1,0,0.001,-0.003,0
2018,5,17,21,34,45.926,0.2186,-0.4308,-0.0752,0.8723,0,0,0,-0.004,0.002,-0.002,0
2018,5,17,21,34,45.961,0.2184,-0.4307,-0.0753,0.8723,0,0,0,-0.008,0,0,0
2018,5,17,21,34,45.961,0.2182,-0.4307,-0.0753,0.8724,0,0,0,-0.008,-0.002,-0.006,0
2018,5,17,21,34,45.983,0.218,-0.4307,-0.0757,0.8724,-0.6,0.1,0.2,-0.006,0,-0.002,0
2018,5,17,21,34,46.021,0.2178,-0.4307,-0.0758,0.8725,0,0,0,-0.004,-0.005,0.001,0
2018,5,17,21,34,46.043,0.2177,-0.4306,-0.0759,0.8725,0,0,0,-0.005,-0.006,-0.005,0
2018,5,17,21,34,46.048,0.2175,-0.4306,-0.0759,0.8725,0.7,-0.2,0.1,-0.003,-0.005,-0.007,0
2018,5,17,21,34,46.064,0.2175,-0.4307,-0.0759,0.8725,0.5,-0.1,0.3,-0.002,0.003,-0.009,1023
2018,5,17,21,34,46.085,0.2173,-0.4307,-0.0758,0.8726,0,0,0,0,0.009,-0.008,1023
2018,5,17,21,34,46.12,0.217,-0.4308,-0.0757,0.8726,0,0,0,-0.003,0.007,-0.003,1023
2018,5,17,21,34,46.144,0.2168,-0.4307,-0.0758,0.8727,0,0,0,-0.003,0.002,-0.002,1023
2018,5,17,21,34,46.147,0.2166,-0.4307,-0.0756,0.8727,0,0,0,-0.008,0.001,-0.004,1023
2018,5,17,21,34,46.166,0.2165,-0.4308,-0.0756,0.8728,0,0,0,-0.007,0.002,-0.006,1023
2018,5,17,21,34,46.186,0.2163,-0.4308,-0.0757,0.8728,0,0,0,-0.006,0.001,-0.007,1023
2018,5,17,21,34,46.225,0.2161,-0.4308,-0.0759,0.8728,-0.5,-0.1,0.3,-0.003,0,-0.003,1023
2018,5,17,21,34,46.247,0.2159,-0.4308,-0.0759,0.8729,0,0,0,-0.005,0,-0.001,1023
2018,5,17,21,34,46.252,0.2158,-0.4308,-0.0756,0.8729,0,0,0,-0.007,-0.001,-0.001,1023
2018,5,17,21,34,46.269,0.2156,-0.4309,-0.0753,0.8729,0,0,0,-0.008,-0.001,0.001,1023
2018,5,17,21,34,46.286,0.2155,-0.4309,-0.075,0.873,0,0,0,-0.004,-0.007,-0.005,1023
2018,5,17,21,34,46.308,0.2154,-0.431,-0.0747,0.873,0,0,0,-0.006,-0.003,-0.009,0
2018,5,17,21,34,46.344,0.2152,-0.4311,-0.0745,0.873,0,0,0,-0.004,0,-0.007,0
2018,5,17,21,34,46.367,0.2151,-0.4312,-0.0742,0.873,0,0,0,-0.001,0.003,0.001,0
2018,5,17,21,34,46.371,0.2149,-0.4312,-0.0738,0.8731,0,0,0,-0.003,0.003,-0.003,0
2018,5,17,21,34,46.39,0.2148,-0.4313,-0.0735,0.8731,0,0,0,-0.004,0,-0.001,0
2018,5,17,21,34,46.408,0.2146,-0.4313,-0.0732,0.8731,0.5,0,0.1,-0.005,0.001,-0.004,0
2018,5,17,21,34,46.43,0.2145,-0.4314,-0.0729,0.8732,0,0,0,-0.008,0,-0.007,0
2018,5,17,21,34,46.448,0.2144,-0.4315,-0.0726,0.8732,0,0,0,-0.005,0.004,-0.004,0
2018,5,17,21,34,46.471,0.2142,-0.4315,-0.0727,0.8732,-0.8,-0.1,0,-0.005,0,-0.001,0
2018,5,17,21,34,46.488,0.214,-0.4316,-0.0728,0.8732,-0.5,-0.5,-0.2,-0.007,-0.005,-0.001,0
2018,5,17,21,34,46.506,0.2139,-0.4317,-0.0727,0.8732,0,0,0,-0.004,-0.004,-0.007,0
2018,5,17,21,34,46.529,0.2138,-0.4318,-0.0724,0.8732,0,0,0,0,0,-0.005,0
2018,5,17,21,34,46.546,0.2136,-0.4319,-0.0722,0.8732,0,0,0,-0.002,-0.001,-0.002,0
2018,5,17,21,34,46.569,0.2135,-0.4318,-0.0721,0.8733,0,0.5,-0.1,-0.004,-0.003,0.003,0
2018,5,17,21,34,46.587,0.2134,-0.4316,-0.0719,0.8734,0.7,0.3,-0.3,-0.007,-0.007,0.004,0
2018,5,17,21,34,46.608,0.2133,-0.4315,-0.0719,0.8735,1.2,0,0,-0.005,-0.003,-0.004,1023
2018,5,17,21,34,46.646,0.2133,-0.4316,-0.0716,0.8735,1.2,-0.1,0,-0.004,0.004,-0.009,1023
2018,5,17,21,34,46.669,0.2132,-0.4316,-0.0714,0.8735,0,0,0,-0.003,0.006,-0.009,1023
2018,5,17,21,34,46.673,0.2131,-0.4317,-0.0712,0.8735,0,0,0,-0.003,0.006,-0.004,1023
2018,5,17,21,34,46.709,0.2129,-0.4317,-0.0709,0.8736,0,0,0,-0.002,0,0,1023
2018,5,17,21,34,46.731,0.2128,-0.4318,-0.0707,0.8736,0,0,0,-0.003,-0.003,-0.001,1023
2018,5,17,21,34,46.736,0.2127,-0.4318,-0.0704,0.8736,0,0,0,-0.002,0.003,0,1023
2018,5,17,21,34,46.75,0.2126,-0.4319,-0.0702,0.8736,0,0,0,-0.005,0,-0.005,1023
2018,5,17,21,34,46.77,0.2125,-0.4319,-0.07,0.8736,0,0,0,-0.005,0.001,-0.005,1023
2018,5,17,21,34,46.808,0.2124,-0.432,-0.0698,0.8736,0,0,0,-0.006,0.001,0,1023
2018,5,17,21,34,46.83,0.2123,-0.432,-0.0696,0.8737,0,0,0,-0.004,0,-0.003,1023
2018,5,17,21,34,46.835,0.2122,-0.432,-0.0694,0.8737,0,0,0,-0.007,0,-0.003,1023
2018,5,17,21,34,46.853,0.2121,-0.432,-0.0695,0.8737,0,0,-0.5,-0.006,-0.002,0,1023
2018,5,17,21,34,46.872,0.212,-0.432,-0.0693,0.8737,0,0,0,-0.008,-0.003,-0.008,0
2018,5,17,21,34,46.891,0.2119,-0.4321,-0.0693,0.8737,0,0,0,-0.002,0,-0.008,0
2018,5,17,21,34,46.914,0.2118,-0.4322,-0.069,0.8738,0,0,0,-0.002,0.007,-0.002,0
2018,5,17,21,34,46.932,0.2116,-0.4321,-0.0692,0.8738,-0.6,0.1,-0.3,-0.003,0.003,0,0
2018,5,17,21,34,46.955,0.2115,-0.4321,-0.069,0.8738,0,0,0,-0.005,0,0,0
2018,5,17,21,34,46.973,0.2114,-0.4321,-0.069,0.8739,0.7,-0.1,-0.4,-0.008,-0.007,0.001,0
2018,5,17,21,34,46.995,0.2114,-0.4321,-0.0688,0.8739,1,0,-0.1,-0.009,-0.001,-0.006,0
2018,5,17,21,34,47.011,0.2113,-0.4321,-0.0686,0.874,0.7,-0.3,-0.2,-0.006,0.005,-0.006,0
2018,5,17,21,34,47.049,0.2112,-0.4321,-0.0683,0.874,0,0,0,-0.003,0.007,-0.004,0
2018,5,17,21,34,47.049,0.2111,-0.4322,-0.0681,0.874,0,0,0,0,0.005,-0.005,0
2018,5,17,21,34,47.073,0.211,-0.4323,-0.0679,0.874,0,0,0,-0.004,-0.003,-0.002,0
2018,5,17,21,34,47.091,0.2109,-0.4323,-0.0678,0.874,0,0,0,-0.001,0.001,-0.002,0
2018,5,17,21,34,47.113,0.2108,-0.4323,-0.0676,0.874,0,0,0,-0.002,0.002,0,0
2018,5,17,21,34,47.132,0.2107,-0.4323,-0.0676,0.8741,0,0,0,-0.007,-0.005,-0.002,0
2018,5,17,21,34,47.154,0.2107,-0.4323,-0.0675,0.8741,0.7,0,-0.2,-0.007,-0.005,-0.002,0
2018,5,17,21,34,47.192,0.2106,-0.4322,-0.0678,0.8741,0.8,-0.2,0,-0.001,-0.006,-0.007,0
2018,5,17,21,34,47.192,0.2106,-0.4323,-0.0677,0.8741,0.7,0,-0.1,-0.002,0.003,-0.003,1023
2018,5,17,21,34,47.214,0.2105,-0.4322,-0.0676,0.8742,0.5,0.2,-0.3,-0.001,0.009,-0.002,1023
2018,5,17,21,34,47.232,0.2103,-0.4322,-0.0674,0.8742,0.5,0.4,-0.2,-0.005,0.006,0.001,1023
2018,5,17,21,34,47.27,0.2102,-0.4321,-0.0674,0.8743,0,0,0,-0.005,0.006,-0.005,1023
2018,5,17,21,34,47.27,0.2101,-0.4322,-0.0672,0.8743,0,0,0,-0.005,0.003,-0.009,1023
2018,5,17,21,34,47.293,0.2101,-0.4323,-0.0671,0.8743,0,0,0,-0.002,0,-0.009,1023
2018,5,17,21,34,47.33,0.21,-0.4323,-0.0669,0.8743,0,0,0,-0.004,0.003,-0.009,1023
2018,5,17,21,34,47.353,0.2099,-0.4324,-0.0667,0.8743,0,0,0,-0.006,0.005,-0.004,1023
2018,5,17,21,34,47.357,0.2098,-0.4324,-0.0667,0.8743,-0.5,0,0,-0.007,0.002,-0.004,1023
2018,5,17,21,34,47.376,0.2097,-0.4323,-0.0666,0.8744,0,0,0,-0.007,0,0.002,1023
2018,5,17,21,34,47.398,0.2097,-0.4323,-0.0664,0.8744,0,0,0,-0.008,0,0,0
2018,5,17,21,34,47.416,0.2096,-0.4324,-0.0663,0.8744,0,0,0,-0.009,0.001,-0.002,0
2018,5,17,21,34,47.439,0.2095,-0.4324,-0.0662,0.8744,0,0,0,-0.007,0.003,-0.004,0
2018,5,17,21,34,47.456,0.2095,-0.4324,-0.0662,0.8744,0,0,0,-0.003,-0.004,0.002,0
2018,5,17,21,34,47.494,0.2094,-0.4324,-0.0661,0.8744,0,0,0,-0.002,-0.001,0.001,0
2018,5,17,21,34,47.494,0.2094,-0.4324,-0.066,0.8745,0,0,0,0,0,-0.004,0
2018,5,17,21,34,47.517,0.2093,-0.4325,-0.0658,0.8745,0,0,0,-0.002,0.005,-0.006,0
2018,5,17,21,34,47.534,0.2092,-0.4325,-0.0657,0.8745,0,0,0,-0.002,0.002,0.001,0
2018,5,17,21,34,47.556,0.2091,-0.4325,-0.0656,0.8745,0,0,0,-0.007,0.003,-0.007,0
2018,5,17,21,34,47.574,0.209,-0.4326,-0.0654,0.8745,0,0,0,-0.006,0.007,-0.007,0
2018,5,17,21,34,47.597,0.209,-0.4327,-0.0653,0.8745,-0.5,-0.4,0.2,-0.005,0.003,-0.003,0
2018,5,17,21,34,47.616,0.2089,-0.4328,-0.0653,0.8744,0,0,0,-0.007,0.004,-0.005,0
2018,5,17,21,34,47.639,0.2089,-0.4329,-0.0651,0.8744,0,0,0,-0.004,0.004,-0.003,0
2018,5,17,21,34,47.657,0.2088,-0.4328,-0.0654,0.8744,-0.6,0,-0.1,-0.006,0.003,-0.003,0
2018,5,17,21,34,47.679,0.2087,-0.4328,-0.0657,0.8745,-0.5,0.1,-0.1,-0.005,-0.004,0,0
2018,5,17,21,34,47.697,0.2086,-0.4328,-0.0656,0.8744,0,0,0,-0.002,-0.01,-0.005,0
2018,5,17,21,34,47.72,0.2086,-0.4329,-0.0656,0.8744,0,0,0,0,-0.008,-0.005,0
2018,5,17,21,34,47.736,0.2085,-0.433,-0.0655,0.8744,0,0,0,0,-0.001,-0.009,1023
2018,5,17,21,34,47.774,0.2085,-0.433,-0.0654,0.8744,0,0,0,-0.005,0.002,-0.001,1023
2018,5,17,21,34,47.797,0.2084,-0.433,-0.0652,0.8744,0,0,0,-0.005,0.002,-0.004,1023
2018,5,17,21,34,47.801,0.2084,-0.4331,-0.0651,0.8744,0,0,0,-0.004,0.001,-0.01,1023
2018,5,17,21,34,47.817,0.2083,-0.4331,-0.065,0.8744,0,0,0,-0.009,0.002,-0.006,1023
2018,5,17,21,34,47.855,0.2083,-0.4332,-0.0649,0.8744,0,0,0,-0.004,0.001,-0.008,1023
2018,5,17,21,34,47.878,0.2082,-0.4332,-0.0648,0.8744,0,0,0,-0.002,-0.001,-0.011,1023
2018,5,17,21,34,47.883,0.2081,-0.4333,-0.0647,0.8744,-0.5,-0.1,0.2,-0.004,0.003,-0.006,1023
2018,5,17,21,34,47.9,0.2081,-0.4333,-0.0647,0.8744,-0.5,0,0.2,-0.004,0.003,-0.002,1023
2018,5,17,21,34,47.92,0.2081,-0.4333,-0.0646,0.8744,0,0,0,-0.005,-0.002,0.001,1023
2018,5,17,21,34,47.939,0.208,-0.4333,-0.0646,0.8745,0,0,0,-0.005,-0.007,-0.004,1023
2018,5,17,21,34,47.961,0.208,-0.4333,-0.0646,0.8745,0,0,0,-0.003,0,-0.008,1023
2018,5,17,21,34,47.999,0.208,-0.4334,-0.0645,0.8744,0,0,0,-0.001,0.001,-0.008,0
2018,5,17,21,34,47.999,0.2079,-0.4334,-0.0647,0.8744,0,0,0,-0.003,-0.002,-0.002,0
2018,5,17,21,34,48.022,0.2079,-0.4334,-0.0646,0.8744,0,0,0,-0.005,0.001,0.003,0
2018,5,17,21,34,48.039,0.2078,-0.4334,-0.0645,0.8745,0,0,0,-0.004,0.001,0.004,0
2018,5,17,21,34,48.077,0.2078,-0.4334,-0.0644,0.8745,0,0,0,-0.004,-0.001,-0.004,0
2018,5,17,21,34,48.101,0.2078,-0.4334,-0.0644,0.8745,0,0,0,-0.004,-0.003,-0.011,0
2018,5,17,21,34,48.105,0.2077,-0.4334,-0.0643,0.8745,0,0,0,-0.003,0.004,-0.005,0
2018,5,17,21,34,48.124,0.2077,-0.4335,-0.0642,0.8745,-0.5,0,0.1,-0.004,-0.001,-0.005,0
2018,5,17,21,34,48.14,0.2076,-0.4335,-0.0642,0.8744,-0.6,0.1,0.2,-0.005,-0.001,-0.007,0
2018,5,17,21,34,48.163,0.2075,-0.4335,-0.0646,0.8744,-0.6,0.5,0,-0.007,-0.004,-0.001,0
2018,5,17,21,34,48.182,0.2075,-0.4334,-0.0646,0.8745,0,0,0,-0.009,-0.001,0.003,0
2018,5,17,21,34,48.204,0.2075,-0.4334,-0.0645,0.8745,0,0,0,-0.005,0.006,-0.001,0
2018,5,17,21,34,48.221,0.2074,-0.4334,-0.0644,0.8745,0,0,0,-0.001,0,-0.004,0
2018,5,17,21,34,48.238,0.2074,-0.4334,-0.0644,0.8745,0,0,0,-0.002,-0.006,-0.004,0
2018,5,17,21,34,48.261,0.2074,-0.4335,-0.0644,0.8745,0,0,0,-0.007,-0.008,-0.002,0
2018,5,17,21,34,48.299,0.2074,-0.4335,-0.0644,0.8745,0,0,0,-0.003,0.002,-0.006,1023
2018,5,17,21,34,48.323,0.2073,-0.4336,-0.0643,0.8745,0,0,0,-0.002,0.006,-0.006,1023
2018,5,17,21,34,48.327,0.2073,-0.4335,-0.0642,0.8745,0,0,0,-0.007,0.003,-0.002,1023
2018,5,17,21,34,48.342,0.2073,-0.4335,-0.0642,0.8746,0,0,0,-0.007,0,0,1023
2018,5,17,21,34,48.362,0.2072,-0.4335,-0.0641,0.8746,0,0,0,-0.003,0.002,-0.008,1023
2018,5,17,21,34,48.385,0.2072,-0.4335,-0.064,0.8746,0,0,0,-0.004,0.001,-0.005,1023
2018,5,17,21,34,48.404,0.2071,-0.4336,-0.0641,0.8746,-0.5,0,0,-0.008,-0.002,-0.001,1023
2018,5,17,21,34,48.426,0.2071,-0.4336,-0.0642,0.8745,-0.6,-0.2,0.2,-0.005,0.001,-0.005,1023
2018,5,17,21,34,48.447,0.2071,-0.4336,-0.0645,0.8745,0,0,0,-0.004,-0.007,-0.001,1023
2018,5,17,21,34,48.465,0.2071,-0.4336,-0.0644,0.8745,0,0,0,0,-0.004,-0.003,1023
2018,5,17,21,34,48.488,0.207,-0.4336,-0.0645,0.8745,0.5,0.4,-0.4,-0.001,-0.006,-0.002,1023
2018,5,17,21,34,48.503,0.207,-0.4335,-0.0644,0.8746,0.5,0.1,-0.5,-0.001,0,-0.003,0
2018,5,17,21,34,48.54,0.2069,-0.4335,-0.0643,0.8746,0.5,0.1,-0.1,-0.004,0.001,-0.009,0
2018,5,17,21,34,48.562,0.2069,-0.4336,-0.0643,0.8746,0,0,0,-0.007,0.002,-0.011,0
2018,5,17,21,34,48.567,0.2069,-0.4336,-0.0642,0.8746,0,0,0,-0.003,0.003,-0.001,0
2018,5,17,21,34,48.586,0.2068,-0.4336,-0.0642,0.8746,0,0,0,-0.004,0.004,-0.003,0
2018,5,17,21,34,48.604,0.2068,-0.4336,-0.064,0.8746,0,0,0,-0.001,0.005,-0.003,0
2018,5,17,21,34,48.627,0.2068,-0.4336,-0.064,0.8746,0,0,0,-0.004,-0.001,-0.002,0
2018,5,17,21,34,48.663,0.2067,-0.4336,-0.0639,0.8746,0,0,0,-0.006,-0.001,-0.008,0
2018,5,17,21,34,48.686,0.2067,-0.4336,-0.0639,0.8746,0,0,0,-0.008,0.002,-0.001,0
2018,5,17,21,34,48.69,0.2067,-0.4336,-0.0639,0.8746,0,0,0,-0.004,0.001,0,0
2018,5,17,21,34,48.708,0.2067,-0.4336,-0.0638,0.8746,0,0,0,-0.006,-0.006,-0.005,0
2018,5,17,21,34,48.724,0.2067,-0.4336,-0.0638,0.8747,0.5,0,-0.1,-0.005,0.002,-0.005,0
2018,5,17,21,34,48.742,0.2067,-0.4336,-0.0637,0.8747,0,0,0,-0.006,0.005,-0.008,0
2018,5,17,21,34,48.764,0.2066,-0.4336,-0.0636,0.8747,0,0,0,-0.006,0.003,0,0
2018,5,17,21,34,48.782,0.2066,-0.4335,-0.0636,0.8747,0,0,0,-0.009,-0.002,0,0
2018,5,17,21,34,48.805,0.2066,-0.4335,-0.0635,0.8748,0.6,0,-0.4,-0.007,-0.008,-0.001,0
2018,5,17,21,34,48.843,0.2067,-0.4335,-0.0635,0.8748,0.9,-0.3,-0.1,-0.004,-0.003,-0.009,1023
2018,5,17,21,34,48.866,0.2066,-0.4335,-0.0636,0.8747,0,0,0,0,0.002,-0.011,1023
2018,5,17,21,34,48.87,0.2066,-0.4336,-0.0635,0.8747,0,0,0,-0.002,0.003,-0.006,1023
2018,5,17,21,34,48.888,0.2066,-0.4336,-0.0634,0.8747,0,0,0,-0.003,0.007,0.001,1023
2018,5,17,21,34,48.907,0.2065,-0.4335,-0.0632,0.8748,0.6,0.1,-0.2,-0.007,0.004,-0.004,1023
2018,5,17,21,34,48.929,0.2065,-0.4335,-0.0632,0.8748,0.5,0.1,-0.3,-0.004,0.007,-0.009,1023
2018,5,17,21,34,48.966,0.2064,-0.4335,-0.0631,0.8748,0,0,0,-0.004,0.002,-0.004,1023
2018,5,17,21,34,48.989,0.2064,-0.4335,-0.0631,0.8748,0,0,0,-0.006,-0.001,-0.001,1023
2018,5,17,21,34,48.993,0.2064,-0.4335,-0.063,0.8748,0,0,0,-0.011,0,-0.001,1023
2018,5,17,21,34,49.008,0.2064,-0.4335,-0.063,0.8748,0,0,0,-0.005,0.003,0.004,1023
2018,5,17,21,34,49.026,0.2064,-0.4335,-0.063,0.8749,0,0,0,-0.006,0,0.001,1023
2018,5,17,21,34,49.048,0.2063,-0.4335,-0.0629,0.8749,0.1,0.1,-0.5,-0.007,0.001,0.004,1023
2018,5,17,21,34,49.066,0.2062,-0.4334,-0.063,0.8749,0.3,0,-0.5,-0.004,0,0,0
2018,5,17,21,34,49.086,0.2062,-0.4334,-0.0629,0.8749,0.5,0,-0.5,-0.004,0,-0.006,0
2018,5,17,21,34,49.124,0.2061,-0.4334,-0.0631,0.8749,0,0,0,-0.005,0.003,-0.005,0
2018,5,17,21,34,49.148,0.2061,-0.4334,-0.063,0.875,0,0,0,-0.004,0.001,-0.004,0
2018,5,17,21,34,49.153,0.2061,-0.4334,-0.0629,0.875,0,0,0,-0.003,0.003,0.002,0
2018,5,17,21,34,49.17,0.2061,-0.4334,-0.0629,0.875,0.5,0,-0.2,-0.004,0.003,-0.005,0
2018,5,17,21,34,49.208,0.206,-0.4334,-0.0627,0.875,0,0,0,-0.003,0.002,-0.004,0
2018,5,17,21,34,49.23,0.206,-0.4333,-0.0629,0.8751,0.5,0,-0.1,-0.004,0.004,-0.008,0
2018,5,17,21,34,49.235,0.2059,-0.4333,-0.0628,0.8751,0,0,0,-0.003,0.003,-0.005,0
2018,5,17,21,34,49.25,0.2059,-0.4333,-0.0628,0.8751,0,0,0,-0.005,0.002,-0.01,0
2018,5,17,21,34,49.267,0.2059,-0.4333,-0.0627,0.8751,0,0,0,-0.006,0.001,-0.006,0
2018,5,17,21,34,49.289,0.2058,-0.4334,-0.0626,0.8751,0,0,0,-0.006,0.005,-0.004,0
2018,5,17,21,34,49.308,0.2058,-0.4334,-0.0626,0.8751,0,0,0,-0.008,0.003,-0.002,0
2018,5,17,21,34,49.331,0.2058,-0.4333,-0.0625,0.8751,0,0,0,-0.006,0.002,-0.003,0
2018,5,17,21,34,49.349,0.2058,-0.4333,-0.0625,0.8751,0,0,0,-0.006,-0.003,0.002,0
2018,5,17,21,34,49.372,0.2058,-0.4333,-0.0625,0.8751,0,0,0,-0.005,-0.003,-0.003,1023
2018,5,17,21,34,49.39,0.2058,-0.4334,-0.0625,0.8751,0,0,0,-0.003,0,-0.006,1023
2018,5,17,21,34,49.413,0.2058,-0.4334,-0.0625,0.8751,0,0,0,-0.003,0.002,-0.007,1023
2018,5,17,21,34,49.432,0.2057,-0.4334,-0.0624,0.8751,0,0,0,0,0.006,0.004,1023
2018,5,17,21,34,49.454,0.2057,-0.4334,-0.0623,0.8751,0,0,0,-0.004,0.005,-0.003,1023
2018,5,17,21,34,49.472,0.2057,-0.4333,-0.0622,0.8751,0,0,0,-0.003,0.001,-0.004,1023
2018,5,17,21,34,49.495,0.2057,-0.4333,-0.0622,0.8752,0,0,0,-0.004,-0.007,-0.005,1023
2018,5,17,21,34,49.511,0.2057,-0.4333,-0.0624,0.8751,0.6,0.1,0.5,-0.001,-0.001,-0.001,1023
2018,5,17,21,34,49.53,0.2058,-0.4333,-0.0623,0.8752,0.7,0.3,0.4,0,0.004,-0.002,1023
2018,5,17,21,34,49.552,0.2058,-0.4331,-0.0624,0.8752,0.5,0.7,0.2,0,0.003,-0.001,1023
2018,5,17,21,34,49.569,0.2058,-0.433,-0.0623,0.8753,0.6,0.4,-0.2,-0.007,0.006,-0.002,1023
2018,5,17,21,34,49.594,0.2058,-0.4328,-0.0624,0.8754,0.7,0,-0.4,-0.006,0.005,-0.005,1023
2018,5,17,21,34,49.612,0.2057,-0.4329,-0.0622,0.8754,0,0,0,-0.001,0.001,-0.014,0
2018,5,17,21,34,49.635,0.2057,-0.433,-0.0622,0.8753,0,0,0,-0.004,0.002,-0.015,0
2018,5,17,21,34,49.655,0.2056,-0.433,-0.0625,0.8753,-0.9,0,0,-0.008,0.006,-0.006,0
2018,5,17,21,34,49.674,0.2055,-0.433,-0.0626,0.8753,-1.1,-0.1,0,-0.007,0.003,0.003,0
2018,5,17,21,34,49.693,0.2055,-0.433,-0.0627,0.8753,-0.9,-0.4,0,-0.006,-0.001,0.004,0
2018,5,17,21,34,49.716,0.2054,-0.4331,-0.0628,0.8753,0,0,0,-0.004,-0.002,0,0
2018,5,17,21,34,49.734,0.2054,-0.4331,-0.0628,0.8753,0,0,0,-0.001,-0.005,-0.003,0
2018,5,17,21,34,49.757,0.2054,-0.4331,-0.0628,0.8753,0,0,0,-0.006,-0.006,0.001,0
2018,5,17,21,34,49.772,0.2055,-0.433,-0.0628,0.8753,0.7,0,-0.1,-0.004,0,-0.005,0
2018,5,17,21,34,49.791,0.2055,-0.433,-0.0628,0.8753,0.5,-0.1,0.1,-0.005,0.006,-0.004,0
2018,5,17,21,34,49.813,0.2054,-0.433,-0.0627,0.8753,0,0,0,-0.004,0.009,-0.009,0
2018,5,17,21,34,49.831,0.2054,-0.4331,-0.0626,0.8753,0,0,0,-0.006,0.007,-0.002,0
2018,5,17,21,34,49.854,0.2053,-0.4331,-0.0626,0.8753,-0.6,-0.1,-0.1,-0.007,0.006,-0.001,0
2018,5,17,21,34,49.872,0.2052,-0.4331,-0.0628,0.8753,-0.6,-0.1,-0.2,-0.007,-0.004,0,0
2018,5,17,21,34,49.895,0.2052,-0.4331,-0.0628,0.8753,-0.1,-0.6,-0.1,-0.001,-0.004,-0.005,0
2018,5,17,21,34,49.915,0.2052,-0.4333,-0.0627,0.8753,0.1,-0.6,-0.1,0,0,-0.015,1023
2018,5,17,21,34,49.937,0.2052,-0.4334,-0.0629,0.8752,0,-0.5,0.1,0.001,0.004,-0.006,1023
2018,5,17,21,34,49.956,0.2051,-0.4334,-0.0629,0.8752,0,0,0,0.001,0.005,0,1023
2018,5,17,21,34,49.974,0.2051,-0.4334,-0.0628,0.8752,0,0,0,-0.001,0.001,-0.002,1023
2018,5,17,21,34,49.996,0.2051,-0.4334,-0.0627,0.8752,0.5,0.3,-0.1,-0.006,-0.001,-0.001,1023
2018,5,17,21,34,50.014,0.2051,-0.4334,-0.0628,0.8752,0,0,0,-0.007,0.004,-0.01,1023
2018,5,17,21,34,50.032,0.205,-0.4334,-0.0628,0.8752,0,0,0,-0.007,0,-0.007,1023
2018,5,17,21,34,50.055,0.205,-0.4334,-0.0628,0.8752,0,0,0,-0.005,-0.005,0.002,1023
2018,5,17,21,34,50.092,0.205,-0.4334,-0.0628,0.8752,0,0,0,-0.01,-0.003,-0.001,1023
2018,5,17,21,34,50.092,0.205,-0.4333,-0.0628,0.8753,0,0,0,-0.008,0.003,-0.001,1023
2018,5,17,21,34,50.116,0.205,-0.4333,-0.0627,0.8753,0,0,0,0,0.002,-0.005,1023
2018,5,17,21,34,50.152,0.205,-0.4333,-0.0627,0.8753,0,0,0,-0.004,0.001,0,1023
2018,5,17,21,34,50.174,0.205,-0.4333,-0.0627,0.8753,0,0,0,-0.008,-0.002,-0.003,0
2018,5,17,21,34,50.178,0.205,-0.4333,-0.0627,0.8753,0,0,0,-0.007,0,-0.003,0
2018,5,17,21,34,50.198,0.2049,-0.4334,-0.0626,0.8753,-0.6,-0.3,0.1,-0.001,0.004,-0.002,0
2018,5,17,21,34,50.221,0.2049,-0.4334,-0.0629,0.8753,0,0,0,0,0.001,0.002,0
2018,5,17,21,34,50.259,0.2049,-0.4334,-0.0629,0.8753,0,0,0,-0.003,0,-0.001,0
2018,5,17,21,34,50.259,0.2049,-0.4333,-0.0627,0.8753,1,0,-0.2,-0.005,0.008,-0.006,0
2018,5,17,21,34,50.282,0.2048,-0.4333,-0.0627,0.8753,0,0,0,-0.005,0.007,-0.009,0
2018,5,17,21,34,50.296,0.2048,-0.4333,-0.0627,0.8753,-0.5,0.2,0.1,0,0.003,-0.008,0
2018,5,17,21,34,50.315,0.2047,-0.4333,-0.0629,0.8753,-0.6,0,0,-0.004,-0.003,-0.001,0
2018,5,17,21,34,50.335,0.2047,-0.4333,-0.063,0.8753,0,0,0,-0.007,0,0,0
2018,5,17,21,34,50.374,0.2047,-0.4333,-0.0629,0.8754,0,0,0,-0.005,0.001,-0.002,0
2018,5,17,21,34,50.395,0.2047,-0.4333,-0.0629,0.8754,0,0,0,-0.003,0.001,-0.004,0
2018,5,17,21,34,50.401,0.2047,-0.4333,-0.0629,0.8754,0,0,0,-0.004,-0.001,-0.005,0
2018,5,17,21,34,50.418,0.2046,-0.4333,-0.0628,0.8754,0,0,0,-0.004,0.001,0.002,0
2018,5,17,21,34,50.44,0.2046,-0.4333,-0.0628,0.8754,0,0,0,-0.006,-0.004,-0.002,0
2018,5,17,21,34,50.477,0.2047,-0.4333,-0.0628,0.8754,0.5,0,0,-0.006,-0.007,0,0
2018,5,17,21,34,50.477,0.2047,-0.4334,-0.0627,0.8753,0.5,-0.4,0,0,0,-0.01,1023
2018,5,17,21,34,50.5,0.2047,-0.4334,-0.0626,0.8753,0,0,0,0,0.007,-0.007,1023
2018,5,17,21,34,50.515,0.2046,-0.4335,-0.0625,0.8753,0,0.5,-0.1,0,0.006,0,1023
2018,5,17,21,34,50.538,0.2046,-0.4334,-0.0624,0.8753,0,0,0,-0.006,0.002,0,1023
2018,5,17,21,34,50.574,0.2046,-0.4334,-0.0624,0.8753,0,0,0,-0.005,0.002,-0.008,1023
2018,5,17,21,34,50.597,0.2045,-0.4335,-0.0623,0.8753,0,0,0,-0.004,0.004,-0.01,1023
2018,5,17,21,34,50.602,0.2045,-0.4335,-0.0622,0.8753,0,0,0,-0.005,0.006,-0.007,1023
2018,5,17,21,34,50.617,0.2045,-0.4335,-0.0622,0.8753,0,0,0,-0.003,0.001,0,1023
2018,5,17,21,34,50.64,0.2045,-0.4335,-0.0622,0.8753,-0.5,-0.2,0.3,-0.005,0,-0.002,1023
2018,5,17,21,34,50.659,0.2045,-0.4335,-0.0622,0.8753,0,0,0,-0.005,-0.004,0,1023
2018,5,17,21,34,50.682,0.2045,-0.4335,-0.0622,0.8753,0,0,0,-0.005,-0.005,0.001,1023
2018,5,17,21,34,50.7,0.2045,-0.4335,-0.0623,0.8753,0,0,0,-0.007,-0.002,-0.004,0
2018,5,17,21,34,50.719,0.2045,-0.4335,-0.0623,0.8753,0,0,0,-0.005,-0.003,-0.002,0
2018,5,17,21,34,50.757,0.2045,-0.4335,-0.0623,0.8753,0,0,0,-0.005,0,-0.003,0
2018,5,17,21,34,50.757,0.2045,-0.4335,-0.0622,0.8753,0,0,0,-0.003,0.003,0,0
2018,5,17,21,34,50.779,0.2045,-0.4335,-0.0622,0.8753,0,0,0,-0.003,0.006,-0.003,0
2018,5,17,21,34,50.817,0.2044,-0.4335,-0.0623,0.8753,-0.5,0.3,0,-0.003,0.002,-0.004,0
2018,5,17,21,34,50.84,0.2044,-0.4335,-0.0624,0.8754,0,0,0,-0.005,-0.002,0,0
2018,5,17,21,34,50.844,0.2044,-0.4335,-0.0624,0.8754,0,0,0,-0.008,0.001,0,0
2018,5,17,21,34,50.861,0.2044,-0.4334,-0.0624,0.8754,0,0,0,-0.011,0.005,-0.005,0
2018,5,17,21,34,50.883,0.2044,-0.4334,-0.0624,0.8754,0,0,0,-0.005,0.003,-0.007,0
2018,5,17,21,34,50.901,0.2044,-0.4335,-0.0624,0.8754,0,-0.4,0.5,-0.005,0.003,-0.008,0
2018,5,17,21,34,50.923,0.2044,-0.4335,-0.0624,0.8753,-0.5,-0.2,0.6,-0.004,0.006,-0.008,0
2018,5,17,21,34,50.96,0.2044,-0.4335,-0.0625,0.8753,-0.6,-0.1,0.3,-0.003,0.005,-0.006,0
2018,5,17,21,34,50.983,0.2044,-0.4335,-0.0626,0.8753,-0.5,0,0.2,-0.008,0,0.001,0
2018,5,17,21,34,50.988,0.2044,-0.4335,-0.0627,0.8753,0,0,0,-0.006,-0.007,-0.003,0
2018,5,17,21,34,51.003,0.2044,-0.4336,-0.0627,0.8753,0,0,0,0.001,-0.005,0,0
2018,5,17,21,34,51.021,0.2044,-0.4336,-0.0628,0.8753,0,0,0,0,-0.005,-0.007,1023
2018,5,17,21,34,51.043,0.2044,-0.4337,-0.0627,0.8753,0,0,0,-0.001,0,-0.004,1023
2018,5,17,21,34,51.061,0.2044,-0.4336,-0.0627,0.8753,0,0,0,-0.004,0.005,0.003,1023
2018,5,17,21,34,51.084,0.2044,-0.4336,-0.0627,0.8753,0.5,0.4,0,-0.006,0.001,-0.004,1023
2018,5,17,21,34,51.102,0.2044,-0.4335,-0.0626,0.8753,0,0,0,-0.008,0.003,-0.003,1023
2018,5,17,21,34,51.124,0.2044,-0.4335,-0.0626,0.8753,0,0,0,-0.004,0.003,-0.013,1023
2018,5,17,21,34,51.142,0.2044,-0.4336,-0.0625,0.8753,-0.5,0.1,0.2,-0.005,-0.002,-0.007,1023
2018,5,17,21,34,51.164,0.2043,-0.4335,-0.063,0.8753,-0.5,-0.1,0.4,-0.005,0,-0.004,1023
2018,5,17,21,34,51.202,0.2043,-0.4336,-0.063,0.8753,0,0,0,-0.003,0.001,-0.005,1023
2018,5,17,21,34,51.225,0.2043,-0.4336,-0.0629,0.8753,0,0,0,0,0.002,-0.003,1023
2018,5,17,21,34,51.23,0.2043,-0.4335,-0.0629,0.8753,0,0,0,-0.001,-0.001,-0.001,1023
2018,5,17,21,34,51.246,0.2042,-0.4335,-0.0633,0.8753,-0.5,0.1,0,-0.007,-0.007,-0.001,1023
2018,5,17,21,34,51.266,0.2043,-0.4335,-0.0634,0.8753,0,0,0,-0.008,-0.005,-0.005,0
2018,5,17,21,34,51.284,0.2043,-0.4335,-0.0634,0.8753,0,0,0,-0.007,-0.002,-0.007,0
2018,5,17,21,34,51.302,0.2043,-0.4335,-0.0634,0.8753,0,0,0,-0.007,0.001,0.001,0
2018,5,17,21,34,51.324,0.2042,-0.4334,-0.0634,0.8753,0,0,0,-0.005,0.004,-0.002,0
2018,5,17,21,34,51.363,0.2042,-0.4334,-0.0633,0.8754,0,0,0,-0.006,0.003,-0.004,0
2018,5,17,21,34,51.386,0.2042,-0.4334,-0.0633,0.8754,0,0,0,-0.006,0,-0.01,0
2018,5,17,21,34,51.39,0.2042,-0.4335,-0.0633,0.8754,0,0,0,-0.007,0,-0.006,0
2018,5,17,21,34,51.406,0.2042,-0.4335,-0.0633,0.8754,0,0,0,-0.003,-0.004,-0.002,0
2018,5,17,21,34,51.428,0.2042,-0.4334,-0.0635,0.8753,-0.5,-0.3,0.2,-0.002,0,-0.006,0
2018,5,17,21,34,51.446,0.2042,-0.4335,-0.0637,0.8753,-0.5,-0.1,0.3,-0.005,-0.003,-0.001,0
2018,5,17,21,34,51.469,0.2042,-0.4335,-0.0637,0.8753,0,0,0,-0.005,-0.002,-0.008,0
2018,5,17,21,34,51.486,0.2042,-0.4335,-0.0637,0.8753,0,0,0,-0.007,0.001,0,0
2018,5,17,21,34,51.504,0.2042,-0.4335,-0.0637,0.8753,0,0,0,-0.008,0.002,-0.005,0
2018,5,17,21,34,51.526,0.2042,-0.4335,-0.0638,0.8753,-0.6,0.2,0,-0.007,-0.002,-0.003,0
2018,5,17,21,34,51.546,0.2041,-0.4335,-0.064,0.8753,-0.6,0,-0.2,-0.008,-0.003,0.002,0
2018,5,17,21,34,51.564,0.2041,-0.4334,-0.0641,0.8753,-0.3,-0.5,0,-0.002,-0.01,-0.001,0
2018,5,17,21,34,51.589,0.2042,-0.4335,-0.0641,0.8753,0,0,0,0.003,-0.009,-0.007,1023
2018,5,17,21,34,51.624,0.2042,-0.4336,-0.0641,0.8752,0,0,0,0.004,0.003,-0.005,1023
2018,5,17,21,34,51.647,0.2041,-0.4335,-0.0641,0.8753,0.5,0.6,-0.4,0.003,0.006,-0.003,1023
2018,5,17,21,34,51.652,0.2041,-0.4334,-0.0643,0.8754,0.4,0.8,-0.2,-0.004,0.004,-0.001,1023
2018,5,17,21,34,51.669,0.204,-0.4332,-0.0644,0.8754,0.5,0.8,-0.2,-0.008,0.003,-0.002,1023
2018,5,17,21,34,51.705,0.204,-0.4331,-0.0645,0.8755,0.4,0.6,-0.1,-0.005,-0.003,0.004,1023
2018,5,17,21,34,51.727,0.2041,-0.433,-0.0645,0.8755,0.8,0.1,-0.2,-0.005,-0.002,0,1023
2018,5,17,21,34,51.732,0.2041,-0.433,-0.0644,0.8755,0,0,0,-0.009,0.002,-0.009,1023
2018,5,17,21,34,51.752,0.204,-0.433,-0.0643,0.8755,0,0,0,-0.006,0.002,-0.007,1023
2018,5,17,21,34,51.769,0.204,-0.433,-0.0643,0.8756,-0.5,0,-0.1,-0.006,0,0,1023
2018,5,17,21,34,51.786,0.2039,-0.433,-0.0644,0.8756,-0.4,-0.1,-0.6,-0.007,-0.005,0,1023
2018,5,17,21,34,51.808,0.2039,-0.433,-0.0646,0.8756,0.6,-0.4,-0.5,-0.005,-0.009,-0.003,1023
2018,5,17,21,34,51.826,0.2039,-0.433,-0.0647,0.8756,1,-0.3,-0.3,-0.004,0,-0.011,0
2018,5,17,21,34,51.848,0.2038,-0.4329,-0.0651,0.8756,0.3,0,-0.5,-0.005,0.005,-0.004,0
2018,5,17,21,34,51.886,0.2038,-0.4329,-0.065,0.8756,0,0,0,-0.005,0,0.001,0
2018,5,17,21,34,51.908,0.2038,-0.4329,-0.065,0.8756,0,0,0,-0.005,0,0,0
2018,5,17,21,34,51.913,0.2037,-0.4329,-0.0649,0.8756,0.5,0,-0.2,-0.005,0.002,-0.005,0
2018,5,17,21,34,51.93,0.2037,-0.4329,-0.065,0.8756,0.7,0,-0.2,-0.006,0.001,-0.005,0
2018,5,17,21,34,51.952,0.2037,-0.4329,-0.0651,0.8756,0.5,-0.1,-0.2,-0.007,0.001,-0.006,0
2018,5,17,21,34,51.97,0.2037,-0.4329,-0.0651,0.8756,0,0,0,-0.006,0,-0.008,0
2018,5,17,21,34,51.993,0.2036,-0.4329,-0.065,0.8756,0,0,0,-0.005,0.004,-0.007,0
2018,5,17,21,34,52.009,0.2036,-0.433,-0.0649,0.8756,0,0,0,-0.003,0.002,-0.006,0
2018,5,17,21,34,52.027,0.2036,-0.433,-0.0649,0.8756,0,0,0,-0.003,0.002,-0.007,0
2018,5,17,21,34,52.049,0.2035,-0.4331,-0.0648,0.8756,0,0,0,-0.005,0,-0.003,0
2018,5,17,21,34,52.067,0.2035,-0.433,-0.0648,0.8756,0,0,0,-0.006,0.002,-0.001,0
2018,5,17,21,34,52.092,0.2035,-0.433,-0.0647,0.8756,0.1,0.6,-0.4,-0.002,-0.003,0.001,0
2018,5,17,21,34,52.109,0.2035,-0.433,-0.0647,0.8757,0,0,0,-0.007,-0.003,-0.006,0
2018,5,17,21,34,52.131,0.2035,-0.4329,-0.0649,0.8757,0.8,-0.3,-0.1,-0.004,-0.009,-0.008,0
2018,5,17,21,34,52.169,0.2035,-0.433,-0.0648,0.8756,0.9,-0.1,-0.1,-0.005,0,-0.006,1023
2018,5,17,21,34,52.192,0.2035,-0.433,-0.0648,0.8756,0.5,0.1,-0.2,-0.003,0.01,-0.001,1023
2018,5,17,21,34,52.196,0.2034,-0.433,-0.0646,0.8757,0,0,0,-0.006,0.011,-0.002,1023
2018,5,17,21,34,52.214,0.2034,-0.433,-0.0645,0.8757,0,0,0,-0.003,0.003,-0.005,1023
2018,5,17,21,34,52.233,0.2033,-0.433,-0.0644,0.8757,0.5,0,-0.2,-0.003,0.003,-0.011,1023
2018,5,17,21,34,52.257,0.2033,-0.433,-0.0644,0.8757,0,0,0,-0.004,0,-0.009,1023
2018,5,17,21,34,52.273,0.2033,-0.433,-0.0644,0.8757,0,0,0,-0.003,0.001,-0.006,1023
2018,5,17,21,34,52.29,0.2033,-0.433,-0.0643,0.8757,0,0,0,-0.007,0.002,-0.008,1023
2018,5,17,21,34,52.313,0.2032,-0.433,-0.0643,0.8757,0,0,0,-0.006,0,-0.005,1023
2018,5,17,21,34,52.331,0.2032,-0.433,-0.0643,0.8757,0,0,0,-0.007,0.001,-0.001,1023
2018,5,17,21,34,52.353,0.2032,-0.433,-0.0643,0.8758,0,0,0,-0.002,-0.005,0.001,1023
2018,5,17,21,34,52.372,0.2032,-0.4329,-0.0645,0.8758,0.9,-0.2,-0.2,-0.003,-0.006,-0.008,1023
2018,5,17,21,34,52.395,0.2032,-0.4329,-0.0646,0.8758,0.7,0,0,-0.006,0.006,-0.01,1023
2018,5,17,21,34,52.415,0.2032,-0.4329,-0.0644,0.8758,0,0,0,-0.005,0.007,-0.003,1023
2018,5,17,21,34,52.433,0.2031,-0.4329,-0.0647,0.8758,-0.5,0.1,0,-0.004,0.008,-0.004,1023
2018,5,17,21,34,52.456,0.2031,-0.4329,-0.0647,0.8758,0,0,0,-0.004,0,0,1023
2018,5,17,21,34,52.474,0.203,-0.4329,-0.0646,0.8758,0,0,0,-0.007,0,-0.002,1023
2018,5,17,21,34,52.496,0.203,-0.4329,-0.0646,0.8758,0,0,0,-0.008,0.001,-0.009,1023
2018,5,17,21,34,52.515,0.203,-0.4329,-0.0646,0.8758,0,0,0,-0.003,0,-0.006,1023
2018,5,17,21,34,52.538,0.203,-0.4329,-0.0645,0.8758,0,0,0,-0.004,0.004,-0.003,1023
2018,5,17,21,34,52.573,0.203,-0.433,-0.0644,0.8758,0,0,0,0.001,0.005,-0.001,1023
2018,5,17,21,34,52.573,0.2029,-0.433,-0.0644,0.8758,0,0,0,-0.004,0.004,-0.001,1023
2018,5,17,21,34,52.595,0.2029,-0.433,-0.0643,0.8758,0,0,0,-0.004,0.003,-0.004,1023
2018,5,17,21,34,52.613,0.2029,-0.433,-0.0643,0.8758,0,0,0,-0.007,0.004,-0.001,1023
2018,5,17,21,34,52.635,0.2028,-0.433,-0.0642,0.8758,0,0,0,-0.008,0.002,-0.004,1023
2018,5,17,21,34,52.654,0.2028,-0.433,-0.0642,0.8758,0,0,0,-0.006,-0.004,-0.004,1023
2018,5,17,21,34,52.676,0.2028,-0.433,-0.0642,0.8758,0,0,0,-0.002,-0.002,-0.006,1023
2018,5,17,21,34,52.694,0.2028,-0.4331,-0.0642,0.8758,-0.4,-0.2,0.5,-0.003,-0.003,-0.009,1023
2018,5,17,21,34,52.717,0.2028,-0.4331,-0.0642,0.8758,0,0,0,-0.006,0,-0.005,1023
2018,5,17,21,34,52.754,0.2028,-0.4331,-0.0642,0.8758,0,0,0,-0.009,0,0.007,1023
2018,5,17,21,34,52.776,0.2028,-0.433,-0.0641,0.8758,0,0,0,-0.003,0.005,-0.004,0
2018,5,17,21,34,52.782,0.2028,-0.4331,-0.064,0.8758,0,0,0,-0.003,0.004,-0.01,0
2018,5,17,21,34,52.799,0.2027,-0.4331,-0.064,0.8758,-0.5,0,0.3,-0.004,-0.001,-0.009,0
2018,5,17,21,34,52.817,0.2027,-0.4331,-0.0641,0.8758,-0.6,0,0.3,-0.007,-0.001,-0.005,0
2018,5,17,21,34,52.839,0.2027,-0.4331,-0.0641,0.8758,0,0,0,-0.008,0,-0.005,0
2018,5,17,21,34,52.857,0.2027,-0.4331,-0.0641,0.8758,0,0,0,-0.006,0.002,0.002,0
2018,5,17,21,34,52.875,0.2027,-0.4331,-0.0641,0.8758,0,0,0,-0.004,0,-0.005,0
2018,5,17,21,34,52.897,0.2027,-0.4332,-0.0641,0.8758,0,0,0,-0.002,0,-0.007,0
2018,5,17,21,34,52.935,0.2027,-0.4332,-0.0641,0.8758,0,0,0,0,-0.001,-0.003,0
2018,5,17,21,34,52.935,0.2027,-0.4332,-0.064,0.8758,0,0,0,-0.003,0,-0.007,0
2018,5,17,21,34,52.959,0.2027,-0.4332,-0.064,0.8758,0,0,0,-0.006,0,-0.004,0
2018,5,17,21,34,52.997,0.2026,-0.4333,-0.064,0.8758,0,0,0,-0.005,0.002,-0.006,0
2018,5,17,21,34,53.019,0.2026,-0.4333,-0.064,0.8758,0,0,0,-0.002,0.001,-0.002,0
2018,5,17,21,34,53.021,0.2026,-0.4333,-0.0641,0.8758,0,0,0,-0.005,0.002,-0.005,0
2018,5,17,21,34,53.038,0.2026,-0.4333,-0.064,0.8758,0,0,0,-0.004,-0.001,-0.006,0
2018,5,17,21,34,53.06,0.2026,-0.4333,-0.064,0.8758,0,0,0,-0.006,0.001,-0.006,0
2018,5,17,21,34,53.078,0.2026,-0.4333,-0.064,0.8758,0,0,0,-0.009,0.003,-0.003,0
2018,5,17,21,34,53.115,0.2026,-0.4333,-0.064,0.8758,0,0,0,-0.009,0.003,-0.006,0
2018,5,17,21,34,53.115,0.2025,-0.4333,-0.0641,0.8758,-0.5,-0.5,0,-0.011,0.004,0.001,0
2018,5,17,21,34,53.137,0.2025,-0.4334,-0.0641,0.8757,-0.5,-1,0,-0.015,0.005,-0.004,1023
2018,5,17,21,34,53.175,0.2024,-0.4335,-0.0642,0.8757,-0.9,-1.1,-0.1,-0.017,0.008,-0.004,1023
2018,5,17,21,34,53.198,0.2023,-0.4337,-0.0644,0.8756,-1.1,-1.8,0,-0.022,0.008,0,0
2018,5,17,21,34,53.203,0.2023,-0.4338,-0.0647,0.8755,-0.6,-2.9,0.2,-0.024,0.008,0.024,0
2018,5,17,21,34,53.22,0.2025,-0.434,-0.0644,0.8754,1.8,-4.9,-0.1,-0.002,0.015,0.069,0
2018,5,17,21,34,53.244,0.2055,-0.4345,-0.0588,0.8749,13.6,-4.9,4.7,-0.059,0.101,-0.011,0
2018,5,17,21,34,53.261,0.2073,-0.4344,-0.0565,0.8747,10.1,-3.1,9.9,-0.07,0.081,-0.052,0
2018,5,17,21,34,53.285,0.2097,-0.434,-0.0558,0.8743,7.7,-2,12.9,-0.097,0.039,-0.035,0
2018,5,17,21,34,53.3,0.2124,-0.4336,-0.0565,0.8738,2.2,-4.1,14.6,-0.1,-0.009,-0.031,0
2018,5,17,21,34,53.336,0.2148,-0.434,-0.0583,0.8729,-4.1,-7.2,12.8,-0.082,-0.05,-0.023,0
2018,5,17,21,34,53.336,0.2167,-0.4352,-0.0604,0.8717,-4.9,-9.6,12.2,-0.064,-0.055,-0.029,0
2018,5,17,21,34,53.358,0.2186,-0.4368,-0.0622,0.8703,-3.6,-10.9,13.3,-0.036,-0.003,-0.036,0
2018,5,17,21,34,53.396,0.2207,-0.4384,-0.0634,0.8688,-4.8,-10.8,15.4,-0.024,0.007,-0.024,0
2018,5,17,21,34,53.419,0.2227,-0.4402,-0.0654,0.8673,-7.2,-10,16.7,-0.006,0.002,-0.025,0
2018,5,17,21,34,53.423,0.2248,-0.4418,-0.0677,0.8657,-8.3,-7.8,19.8,0.001,0.013,-0.004,0
2018,5,17,21,34,53.46,0.2275,-0.4428,-0.0707,0.8643,-6.7,-4.6,21.9,0.016,-0.015,0.004,0
2018,5,17,21,34,53.482,0.234,-0.4429,-0.0752,0.8622,-0.2,-2.1,22.2,0.008,-0.031,0.066,1023
2018,5,17,21,34,53.487,0.2375,-0.4425,-0.0767,0.8612,1,-3.7,22.2,0.001,-0.011,0.07,1023
2018,5,17,21,34,53.503,0.2412,-0.4424,-0.0779,0.8601,3.2,-6.2,22.5,-0.017,-0.027,0.048,1023
2018,5,17,21,34,53.525,0.2457,-0.4425,-0.0785,0.8588,13.5,-9.1,24.6,-0.048,-0.042,0.029,1023
2018,5,17,21,34,53.542,0.2515,-0.4424,-0.0772,0.8573,23.9,-12.8,27.2,-0.073,0.013,0.044,1023
2018,5,17,21,34,53.56,0.2579,-0.4423,-0.0751,0.8556,24.2,-17.3,28.1,-0.095,0.049,0.037,1023
2018,5,17,21,34,53.582,0.2642,-0.4429,-0.0728,0.8536,20.3,-21.5,28.6,-0.107,0.06,0.041,1023
2018,5,17,21,34,53.601,0.2703,-0.4443,-0.071,0.8511,16,-26.6,30.8,-0.1,0.047,0.05,1023
2018,5,17,21,34,53.621,0.2769,-0.4465,-0.0696,0.8479,16.4,-32.9,33.6,-0.115,0.039,0.06,1023
2018,5,17,21,34,53.659,0.2841,-0.4494,-0.0682,0.8441,18,-40.2,36.9,-0.13,0.042,0.06,1023
2018,5,17,21,34,53.682,0.2919,-0.4542,-0.0663,0.839,18.3,-47.5,40.9,-0.154,0.057,0.068,1023
2018,5,17,21,34,53.686,0.3003,-0.4602,-0.0647,0.8329,17.7,-53.6,46.1,-0.16,0.084,0.065,1023
2018,5,17,21,34,53.704,0.3097,-0.4667,-0.0631,0.8259,20.4,-57.5,54.1,-0.185,0.095,0.043,1023
2018,5,17,21,34,53.727,0.3207,-0.4733,-0.0615,0.818,23.5,-61,65.3,-0.209,0.155,0.033,1023
2018,5,17,21,34,53.744,0.3338,-0.48,-0.0603,0.8089,28.8,-64.7,79.6,-0.229,0.167,0.034,1023
2018,5,17,21,34,53.767,0.3498,-0.4863,-0.059,0.7984,40.2,-66.9,96.6,-0.276,0.157,0.051,1023
2018,5,17,21,34,53.785,0.3697,-0.4914,-0.0571,0.7864,60.8,-67.1,119.8,-0.306,0.183,0.107,1023
2018,5,17,21,34,53.808,0.3954,-0.4939,-0.054,0.7724,95.5,-67,149.1,-0.324,0.161,0.166,1023
2018,5,17,21,34,53.825,0.4276,-0.4929,-0.0481,0.7561,125,-63.8,175.3,-0.293,0.32,0.17,1023
2018,5,17,21,34,53.848,0.4637,-0.49,-0.0429,0.7368,127.3,-65,203.4,-0.303,0.362,0.167,1023
2018,5,17,21,34,53.867,0.5024,-0.4863,-0.0398,0.7137,126.1,-71.4,226.9,-0.366,0.258,0.139,1023
2018,5,17,21,34,53.9,0.5431,-0.4823,-0.0373,0.6862,134.5,-80.4,252.8,-0.361,0.271,0.011,1023
2018,5,17,21,34,53.924,0.587,-0.476,-0.0347,0.6538,156.3,-85.6,280.8,-0.43,0.231,-0.031,1023
2018,5,17,21,34,53.928,0.6352,-0.4651,-0.0294,0.6158,206.8,-95,310,-0.522,0.241,0.019,1023
2018,5,17,21,34,53.946,0.6878,-0.4469,-0.0196,0.5715,254.3,-101.7,337.9,-0.534,0.508,-0.007,1023
2018,5,17,21,34,53.983,0.7405,-0.4244,-0.0103,0.5209,230.1,-92.2,363,-0.506,0.776,-0.089,1023
2018,5,17,21,34,54.006,0.7875,-0.4038,-0.0092,0.4653,181.6,-71.2,388,-0.607,0.687,-0.235,0
2018,5,17,21,34,54.011,0.8311,-0.3811,-0.0149,0.4045,199.6,-41.7,423,-0.712,0.672,-0.439,0
2018,5,17,21,34,54.029,0.8739,-0.3479,-0.0269,0.3381,233.1,13.7,463.8,-0.766,0.654,-0.607,0
2018,5,17,21,34,54.051,0.9112,-0.3069,-0.0513,0.2697,209.2,102.2,468.5,-0.878,0.454,-0.911,0
2018,5,17,21,34,54.067,0.9377,-0.2657,-0.0887,0.2053,160.4,157.4,435.9,-1.297,0.238,-0.536,0
2018,5,17,21,34,54.09,0.9528,-0.2314,-0.1285,0.1485,105.7,164.2,365.2,-1.109,-0.091,-0.383,0
2018,5,17,21,34,54.106,0.9588,-0.204,-0.168,0.1031,88,181.5,291.9,-0.858,-0.146,-0.32,0
2018,5,17,21,34,54.124,0.9597,-0.1777,-0.207,0.0658,101.4,179.2,277.5,-1.018,-0.212,0.009,0
2018,5,17,21,34,54.146,0.9596,-0.1407,-0.2418,0.0277,160.8,154.9,294,-1.335,-0.206,0.47,0
2018,5,17,21,34,54.166,0.9563,-0.1091,-0.2707,-0.009,59.4,118.7,238.8,-0.886,0.164,-0.075,0
2018,5,17,21,34,54.189,0.9502,-0.0984,-0.2922,-0.0431,-21.7,103.3,209.8,-0.305,0.349,-0.981,0
2018,5,17,21,34,54.206,0.9415,-0.0848,-0.3171,-0.0755,70.8,161.2,217.8,-0.039,-0.314,-1.003,1023
2018,5,17,21,34,54.245,0.9265,-0.0626,-0.3565,-0.1025,72.3,260.7,211.4,-0.605,0.423,-1.6,1023
2018,5,17,21,34,54.268,0.934,-0.12,-0.3131,-0.1229,-217.8,-335.8,-159.5,7.165,-6.285,-4.02,1023
2018,5,17,21,34,54.273,0.9437,-0.0993,-0.2896,-0.1244,44.4,-153.4,0.8,2.64,1.56,2.685,1023
2018,5,17,21,34,54.29,0.9503,-0.0967,-0.2637,-0.134,46.8,-187.2,30.7,1.014,1.05,2.051,1023
2018,5,17,21,34,54.311,0.9596,-0.0767,-0.2285,-0.1444,51.7,-245,111.8,2.054,1.638,0.948,1023
2018,5,17,21,34,54.33,0.9644,-0.0701,-0.1865,-0.1732,-114.7,-250.9,170.9,0.417,0.76,0.432,1023
2018,5,17,21,34,54.353,0.9634,-0.0803,-0.1437,-0.2113,-151.9,-232.8,195.5,-0.29,0.348,-0.238,1023
2018,5,17,21,34,54.373,0.9579,-0.0981,-0.1032,-0.2492,-204.1,-175.1,161.7,-1.171,-0.34,-0.229,1023
2018,5,17,21,34,54.39,0.949,-0.1243,-0.0732,-0.2801,-218.2,-118.3,141.8,-0.886,0.115,0.07,1023
2018,5,17,21,34,54.409,0.9406,-0.1411,-0.0525,-0.304,-76.3,-77.6,113.4,-1.544,-1.213,-0.345,0
2018,5,17,21,34,54.427,0.9373,-0.1449,-0.046,-0.3134,-18.8,-5.7,-2.9,-1.522,-0.506,-0.528,0
2018,5,17,21,34,54.451,0.9407,-0.149,-0.0446,-0.3012,-40.2,29,-126,-1.2,-0.79,-0.472,0
2018,5,17,21,34,54.488,0.9484,-0.1551,-0.0451,-0.2727,24.2,41.8,-180.6,-0.773,0.003,-0.058,0
2018,5,17,21,34,54.488,0.9573,-0.1506,-0.0489,-0.2415,48.5,33.7,-171.3,-0.475,0.488,-0.046,0
2018,5,17,21,34,54.51,0.9639,-0.1486,-0.0518,-0.2143,-1.6,36.6,-144.2,-0.279,0.447,0.074,0
2018,5,17,21,34,54.545,0.9672,-0.1579,-0.0543,-0.1913,-70.7,52.3,-119.3,-0.072,0.681,-0.036,0
2018,5,17,21,34,54.568,0.9677,-0.1745,-0.0591,-0.1717,-56.5,61.2,-104.1,0.005,-0.135,0.053,0
2018,5,17,21,34,54.573,0.9699,-0.1762,-0.0639,-0.1547,52,33.2,-81.3,-0.156,-0.915,-0.329,0
2018,5,17,21,34,54.609,0.9743,-0.1624,-0.0686,-0.1395,119.3,21.3,-77.6,-0.241,-0.487,-0.311,0
2018,5,17,21,34,54.609,0.9788,-0.1454,-0.0716,-0.1245,78,12.7,-80.5,-0.005,0.388,-0.055,0
2018,5,17,21,34,54.63,0.9809,-0.1429,-0.0727,-0.1097,-33.6,24.7,-81.3,0.206,0.869,0.273,0
2018,5,17,21,34,54.667,0.9802,-0.1538,-0.0763,-0.0982,-42.7,43.2,-39,0.207,0.413,0.096,0
2018,5,17,21,34,54.688,0.9789,-0.1615,-0.0814,-0.094,-35.6,26.9,-15.1,-0.052,0.279,0.013,0
2018,5,17,21,34,54.69,0.9773,-0.1706,-0.0842,-0.0923,-61.4,21.3,-6.6,0.116,0.106,-0.002,0
2018,5,17,21,34,54.725,0.9753,-0.1809,-0.0865,-0.092,-49.5,21.7,-0.4,-0.273,-0.526,0.012,1023
2018,5,17,21,34,54.748,0.9739,-0.1877,-0.0887,-0.0906,-28.8,16.7,-19.3,-0.275,-0.597,-0.194,1023
2018,5,17,21,34,54.753,0.9733,-0.1928,-0.0901,-0.0847,-25.6,17,-44.9,-0.107,-0.091,-0.101,1023
2018,5,17,21,34,54.79,0.9724,-0.2001,-0.0914,-0.0765,-52.3,22.4,-49.7,-0.054,0.273,0.009,1023
2018,5,17,21,34,54.79,0.9704,-0.2114,-0.093,-0.0692,-65,22.7,-35.1,-0.071,0.34,-0.05,1023
2018,5,17,21,34,54.813,0.9674,-0.225,-0.0954,-0.0648,-84.5,26.5,-24.1,-0.237,0.14,0.009,1023
2018,5,17,21,34,54.851,0.9636,-0.2408,-0.0979,-0.061,-90.5,26.7,-26.9,-0.182,-0.083,-0.08,1023
2018,5,17,21,34,54.872,0.9599,-0.2555,-0.0998,-0.0564,-69.5,21.3,-31.3,-0.032,-0.281,-0.111,1023
2018,5,17,21,34,54.874,0.9577,-0.264,-0.1012,-0.0519,-17.6,15.1,-18.4,0.009,-0.062,-0.097,1023
2018,5,17,21,34,54.89,0.9568,-0.2669,-0.1032,-0.0493,-8.6,11.1,-10.6,-0.086,-0.076,-0.049,0
2018,5,17,21,34,54.928,0.9564,-0.2683,-0.1046,-0.0471,13.7,5.9,-13.2,-0.091,-0.178,0.058,0
2018,5,17,21,34,54.949,0.9574,-0.265,-0.1052,-0.0437,26.8,5.2,-19,0.015,0.104,-0.024,0
2018,5,17,21,34,54.951,0.9586,-0.2614,-0.1052,-0.0396,9.5,8.2,-20.2,0.018,0.201,0.065,0
2018,5,17,21,34,54.988,0.9585,-0.2619,-0.106,-0.0363,-15.1,10.7,-15.1,-0.011,0.135,0.016,0
2018,5,17,21,34,55.011,0.9573,-0.2661,-0.1074,-0.0344,-37.8,11.7,-9.4,-0.029,0.116,0.044,0
2018,5,17,21,34,55.014,0.9548,-0.2745,-0.1085,-0.0336,-63.5,10.3,-7.4,0.011,0.257,0.081,0
2018,5,17,21,34,55.05,0.9504,-0.2889,-0.1099,-0.0333,-106.4,16.6,-6.2,0.021,0.348,0.045,0
2018,5,17,21,34,55.071,0.9449,-0.3053,-0.1122,-0.0351,-92,18,11,0.025,0.243,-0.008,0
2018,5,17,21,34,55.073,0.9403,-0.3174,-0.1157,-0.0392,-64.4,13.4,26.4,-0.018,0.043,-0.038,0
2018,5,17,21,34,55.109,0.9367,-0.3259,-0.1196,-0.0445,-42.6,12,31.9,-0.039,-0.034,-0.083,0
2018,5,17,21,34,55.13,0.9336,-0.3328,-0.1223,-0.0498,-39.6,2.4,27,-0.046,-0.144,-0.082,0
2018,5,17,21,34,55.132,0.9312,-0.3383,-0.1239,-0.0548,-20.4,-2.2,29.2,-0.031,-0.195,0,0
2018,5,17,21,34,55.168,0.9315,-0.336,-0.1243,-0.0611,35.5,-17.5,41.6,-0.016,-0.254,0.012,0
2018,5,17,21,34,55.191,0.9337,-0.3285,-0.1241,-0.0682,45.8,-17.3,41.5,0.014,-0.089,-0.081,0
2018,5,17,21,34,55.196,0.9351,-0.3234,-0.1245,-0.0735,15.6,-7.2,25.4,-0.011,-0.04,-0.077,1023
2018,5,17,21,34,55.232,0.9345,-0.3241,-0.1254,-0.0763,-15,1,7.2,-0.086,-0.141,-0.02,1023
2018,5,17,21,34,55.255,0.9332,-0.3274,-0.1261,-0.0766,-11,2.6,-2.9,-0.042,-0.059,0,1023
2018,5,17,21,34,55.26,0.9332,-0.3273,-0.1266,-0.0761,11.7,2.3,-0.5,-0.008,0.005,-0.001,1023
2018,5,17,21,34,55.302,0.9339,-0.3254,-0.1271,-0.0755,8.2,2.1,-2.7,-0.006,0.053,0.018,1023
2018,5,17,21,34,55.305,0.9344,-0.3238,-0.1275,-0.0751,2,0.7,-1.7,-0.021,0.103,0.037,1023
2018,5,17,21,34,55.318,0.9345,-0.3234,-0.1277,-0.0751,-3.4,-0.1,-0.5,-0.017,0.031,0.007,1023
2018,5,17,21,34,55.355,0.9343,-0.3242,-0.1276,-0.075,-4.7,0.3,-2.6,-0.002,-0.021,-0.025,1023
2018,5,17,21,34,55.376,0.9338,-0.3256,-0.1275,-0.0743,-9.5,2.8,-6.6,0.001,0.012,-0.024,1023
2018,5,17,21,34,55.377,0.933,-0.3281,-0.1277,-0.0731,-19.1,5.3,-9.7,-0.018,0.053,0.018,1023
2018,5,17,21,34,55.414,0.9321,-0.3311,-0.1279,-0.0719,-22.5,3.3,-6.9,-0.057,0.219,0.05,1023
2018,5,17,21,34,55.434,0.9302,-0.3363,-0.1277,-0.0715,-39.1,2.6,-7.2,-0.008,0.104,-0.042,0
2018,5,17,21,34,55.435,0.9281,-0.3424,-0.1275,-0.0715,-34.3,0.9,-3.8,-0.018,-0.006,0.006,0
2018,5,17,21,34,55.474,0.925,-0.3509,-0.1266,-0.0713,-18.1,-0.1,-3,0.002,-0.037,-0.009,0
2018,5,17,21,34,55.494,0.9241,-0.3534,-0.1263,-0.071,-8.9,1,-2.1,-0.005,-0.005,-0.018,0
2018,5,17,21,34,55.499,0.9237,-0.3546,-0.1264,-0.0708,-7.6,1.5,-1.8,-0.003,0.052,0.015,0
2018,5,17,21,34,55.532,0.9232,-0.3558,-0.1266,-0.0707,-13.5,1.5,-2.2,-0.01,0.06,0.008,0
2018,5,17,21,34,55.555,0.9222,-0.3583,-0.1267,-0.0707,-19.1,1.8,-2.6,-0.01,0.037,-0.008,0
2018,5,17,21,34,55.559,0.9209,-0.3616,-0.1266,-0.0707,-21.4,1.6,-3.7,-0.012,0.009,0.003,0
2018,5,17,21,34,55.594,0.9197,-0.3646,-0.1266,-0.0705,-14.9,1.1,-3.3,-0.019,-0.012,0.009,0
2018,5,17,21,34,55.594,0.9189,-0.3667,-0.1265,-0.0702,-9.6,0.9,-2.8,-0.01,0.003,0.002,0
2018,5,17,21,34,55.614,0.9185,-0.368,-0.1265,-0.0699,-6,1,-2.1,-0.003,0.021,-0.004,0
2018,5,17,21,34,55.652,0.9182,-0.3686,-0.1266,-0.0697,-5.3,1.7,-2.4,-0.008,0.044,0.001,0
2018,5,17,21,34,55.673,0.9179,-0.3695,-0.1268,-0.0693,-7.5,2.1,-3.3,-0.016,0.033,0.009,0
2018,5,17,21,34,55.678,0.9174,-0.3706,-0.1269,-0.069,-9.4,0.9,-3.3,-0.02,0.034,0.004,1023
2018,5,17,21,34,55.711,0.9168,-0.3722,-0.1269,-0.0687,-11,0.9,-3.6,-0.005,0.023,-0.009,1023
2018,5,17,21,34,55.734,0.9161,-0.374,-0.1268,-0.0683,-10.1,1.8,-4.1,0,0.024,-0.003,1023
2018,5,17,21,34,55.738,0.9157,-0.375,-0.127,-0.0677,-2.1,3.2,-2.9,-0.012,0.047,0.026,1023
2018,5,17,21,34,55.775,0.9154,-0.3758,-0.1272,-0.0673,-6.3,2,-2.4,-0.017,-0.002,-0.022,1023
2018,5,17,21,34,55.796,0.9151,-0.3765,-0.1275,-0.0672,-2.3,0,-0.4,-0.023,0.027,0.014,1023
2018,5,17,21,34,55.801,0.915,-0.3767,-0.1275,-0.0674,-4.3,-0.4,-0.2,0,0.035,-0.001,1023
2018,5,17,21,34,55.84,0.9147,-0.3774,-0.1274,-0.0675,-5.5,-0.1,-0.4,0,0.019,0,1023
2018,5,17,21,34,55.86,0.9143,-0.3782,-0.1274,-0.0676,-5.3,-0.2,-0.5,-0.004,0.004,-0.008,1023
2018,5,17,21,34,55.862,0.914,-0.3789,-0.1274,-0.0677,-3,0,-0.3,-0.004,0.012,-0.014,1023
2018,5,17,21,34,55.9,0.9138,-0.3794,-0.1275,-0.0677,-3.3,0.8,-0.4,-0.002,0.027,-0.007,1023
2018,5,17,21,34,55.901,0.9136,-0.3798,-0.1276,-0.0677,-4.5,1,-0.8,-0.007,0.024,0.002,1023
2018,5,17,21,34,55.938,0.9133,-0.3805,-0.1277,-0.0677,-4.4,0.5,-0.7,-0.007,0.01,-0.005,1023
2018,5,17,21,34,55.958,0.9131,-0.3812,-0.1278,-0.0676,-4.2,0.6,-0.8,-0.002,0.018,-0.007,0
2018,5,17,21,34,55.962,0.9128,-0.3818,-0.1279,-0.0675,-4,1.1,-1.2,-0.009,0.024,0.007,0
2018,5,17,21,34,55.997,0.9126,-0.3823,-0.128,-0.0674,-4.2,0.9,-1.3,-0.006,0.014,-0.003,0
2018,5,17,21,34,56.018,0.9123,-0.383,-0.1281,-0.0672,-2,2.9,-1.3,0.026,0.019,-0.001,0
2018,5,17,21,34,56.023,0.9121,-0.3835,-0.1284,-0.0669,-9.8,2.3,-2.7,0,0.034,-0.015,0
2018,5,17,21,34,56.057,0.9113,-0.3852,-0.1288,-0.0664,-9.7,3.8,-3.2,-0.018,0.026,-0.001,0
2018,5,17,21,34,56.078,0.9107,-0.3866,-0.1291,-0.066,-10.6,2,-3.8,-0.013,0.052,0.007,0
2018,5,17,21,34,56.082,0.9099,-0.3886,-0.1291,-0.0657,-11.8,1.6,-2.8,-0.006,0.004,-0.012,0
2018,5,17,21,34,56.119,0.9092,-0.3903,-0.1292,-0.0654,-8.8,1.9,-2.4,-0.003,0,0.005,0
2018,5,17,21,34,56.119,0.9087,-0.3915,-0.1292,-0.0651,-6.3,1.5,-2.8,0,0.051,-0.006,0
2018,5,17,21,34,56.139,0.9081,-0.3929,-0.1293,-0.0648,-8.3,2.1,-2.2,-0.01,0.003,-0.008,0
2018,5,17,21,34,56.174,0.9076,-0.3939,-0.1295,-0.0646,-5,1,-1.3,-0.011,0,0.003,0
2018,5,17,21,34,56.195,0.9074,-0.3945,-0.1296,-0.0645,-2.2,0.9,-1,0.002,0.032,0.006,0
2018,5,17,21,34,56.204,0.9071,-0.395,-0.1296,-0.0644,-3.9,0.5,-0.7,0,0.019,-0.006,1023
2018,5,17,21,34,56.238,0.9069,-0.3955,-0.1298,-0.0644,-2.3,0.3,-0.1,-0.006,0.004,0.001,1023
2018,5,17,21,34,56.261,0.9068,-0.3957,-0.1298,-0.0645,-0.8,0.2,0,-0.001,0.016,-0.003,1023
2018,5,17,21,34,56.262,0.9068,-0.3957,-0.1299,-0.0645,-0.7,0,0,-0.005,0.019,-0.003,1023
2018,5,17,21,34,56.298,0.9067,-0.3958,-0.13,-0.0646,-1,0.1,0,-0.001,0.017,-0.008,1023
2018,5,17,21,34,56.321,0.9067,-0.3959,-0.13,-0.0646,-1,0.1,0,-0.002,0.017,-0.005,1023
2018,5,17,21,34,56.325,0.9066,-0.396,-0.1301,-0.0647,-1.4,-0.1,0,-0.002,0.018,-0.009,1023
2018,5,17,21,34,56.359,0.9065,-0.3962,-0.1301,-0.0648,-1.7,0.1,0,-0.004,0.019,-0.006,1023
2018,5,17,21,34,56.382,0.9064,-0.3964,-0.1302,-0.0648,-1.6,0,-0.1,-0.005,0.014,-0.001,1023
2018,5,17,21,34,56.386,0.9063,-0.3966,-0.1302,-0.0649,-2,0.1,-0.2,0.001,0.02,-0.006,1023
2018,5,17,21,34,56.4,0.9062,-0.3969,-0.1303,-0.0649,-1.9,0.1,-0.2,-0.001,0.014,-0.002,1023
2018,5,17,21,34,56.423,0.906,-0.3972,-0.1303,-0.065,-1.9,0.3,-0.2,0,0.011,-0.012,0
2018,5,17,21,34,56.458,0.9059,-0.3974,-0.1304,-0.0649,-1.6,0.3,-0.4,0,0.019,-0.006,0
2018,5,17,21,34,56.479,0.9058,-0.3976,-0.1305,-0.0649,-1.9,0.3,-0.4,-0.005,0.017,0.001,0
2018,5,17,21,34,56.486,0.9057,-0.3978,-0.1305,-0.065,-1.3,0,-0.2,0,0.011,-0.001,0
2018,5,17,21,34,56.522,0.9056,-0.398,-0.1305,-0.065,-0.9,0.1,-0.2,0.002,0.016,-0.005,0
2018,5,17,21,34,56.543,0.9056,-0.3981,-0.1306,-0.065,-1.1,0.3,-0.3,-0.002,0.019,-0.006,0
2018,5,17,21,34,56.547,0.9055,-0.3983,-0.1307,-0.0649,-2.2,0.2,-0.8,-0.004,0.017,-0.006,0
2018,5,17,21,34,56.583,0.9053,-0.3987,-0.1307,-0.0649,-2.7,0.3,-0.7,0,0.017,-0.004,0
2018,5,17,21,34,56.603,0.9051,-0.3991,-0.1307,-0.0649,-3,0.2,-0.5,0.001,0.019,-0.003,0
2018,5,17,21,34,56.608,0.9049,-0.3996,-0.1307,-0.0648,-3.2,0.2,-0.7,0,0.017,-0.007,0
2018,5,17,21,34,56.623,0.9047,-0.4001,-0.1307,-0.0648,-2.5,0.2,-0.4,-0.003,0.013,-0.002,0
2018,5,17,21,34,56.644,0.9046,-0.4004,-0.1307,-0.0648,-2.4,0,-0.2,-0.001,0.013,-0.01,0
2018,5,17,21,34,56.679,0.9044,-0.4007,-0.1307,-0.0649,-1.7,0,-0.1,0,0.01,-0.005,0
2018,5,17,21,34,56.7,0.9043,-0.401,-0.1307,-0.0649,-1.9,0,-0.1,0,0.02,-0.008,0
2018,5,17,21,34,56.706,0.9042,-0.4013,-0.1307,-0.0649,-2,0,-0.1,-0.002,0.015,-0.004,1023
2018,5,17,21,34,56.74,0.904,-0.4016,-0.1307,-0.065,-1.8,0,-0.3,0.001,0.01,-0.003,1023
2018,5,17,21,34,56.764,0.9039,-0.4018,-0.1307,-0.065,-1.4,0.1,-0.3,0,0.012,-0.002,1023
2018,5,17,21,34,56.769,0.9038,-0.402,-0.1308,-0.065,-1.9,0.4,-0.4,0,0.019,-0.003,1023
2018,5,17,21,34,56.805,0.9037,-0.4022,-0.1308,-0.0649,-2,0.4,-0.4,-0.001,0.015,-0.009,1023
2018,5,17,21,34,56.827,0.9036,-0.4025,-0.1308,-0.0649,-1.6,0.1,-0.3,-0.003,0.013,-0.01,1023
2018,5,17,21,34,56.832,0.9035,-0.4028,-0.1309,-0.0649,-1.1,0.1,-0.4,0,0.014,-0.005,1023
2018,5,17,21,34,56.851,0.9034,-0.403,-0.1309,-0.0648,-1.8,0.4,-0.7,-0.001,0.016,-0.007,1023
2018,5,17,21,34,56.868,0.9033,-0.4032,-0.1309,-0.0647,-1.7,0.3,-0.7,-0.004,0.018,-0.008,1023
2018,5,17,21,34,56.891,0.9032,-0.4035,-0.131,-0.0647,-2,0,-0.4,0,0.016,-0.008,1023
2018,5,17,21,34,56.908,0.9031,-0.4037,-0.131,-0.0647,-1.4,0.1,-0.3,0.002,0.012,-0.011,1023
2018,5,17,21,34,56.926,0.903,-0.404,-0.1309,-0.0647,-1.1,0.1,-0.4,0.002,0.01,-0.011,1023
2018,5,17,21,34,56.949,0.9029,-0.4042,-0.131,-0.0646,-1.1,0.1,-0.4,0.001,0.015,-0.006,0
2018,5,17,21,34,56.967,0.9028,-0.4043,-0.131,-0.0646,-0.8,-0.1,-0.1,0,0.013,-0.006,0
2018,5,17,21,34,56.989,0.9028,-0.4044,-0.131,-0.0647,-0.8,0,0,0,0.012,-0.005,0
2018,5,17,21,34,57.027,0.9027,-0.4044,-0.131,-0.0647,0,0,0,0.002,0.01,-0.009,0
2018,5,17,21,34,57.027,0.9027,-0.4044,-0.1311,-0.0647,0,0,0,0.001,0.016,-0.01,0
2018,5,17,21,34,57.053,0.9027,-0.4044,-0.1311,-0.0647,-0.5,0.1,0,-0.002,0.013,-0.006,0
2018,5,17,21,34,57.088,0.9027,-0.4044,-0.1311,-0.0647,0,0,0,-0.003,0.014,-0.011,0
2018,5,17,21,34,57.111,0.9027,-0.4044,-0.1312,-0.0648,-0.5,0,0,0,0.016,-0.009,0
2018,5,17,21,34,57.116,0.9027,-0.4045,-0.1312,-0.0648,-0.6,0.2,-0.1,0.003,0.015,-0.008,0
2018,5,17,21,34,57.129,0.9026,-0.4046,-0.1312,-0.0647,-1.1,0.1,-0.2,0,0.01,-0.008,0
2018,5,17,21,34,57.147,0.9026,-0.4047,-0.1313,-0.0647,-0.8,0.1,-0.3,-0.001,0.013,-0.004,0
2018,5,17,21,34,57.169,0.9025,-0.4049,-0.1313,-0.0647,-0.8,0,-0.3,0.002,0.013,-0.008,0
2018,5,17,21,34,57.19,0.9024,-0.405,-0.1313,-0.0647,-0.8,0.1,-0.2,0,0.014,-0.007,0
2018,5,17,21,34,57.226,0.9024,-0.4051,-0.1313,-0.0647,-0.5,0.1,-0.3,0,0.011,-0.01,0
2018,5,17,21,34,57.25,0.9024,-0.4051,-0.1314,-0.0647,0,0,0,0,0.016,-0.005,1023
2018,5,17,21,34,57.253,0.9023,-0.4052,-0.1314,-0.0647,-0.5,0,-0.2,0.003,0.011,-0.008,1023
2018,5,17,21,34,57.272,0.9023,-0.4052,-0.1314,-0.0647,-0.6,0.2,-0.3,-0.001,0.015,-0.01,1023
2018,5,17,21,34,57.294,0.9023,-0.4054,-0.1314,-0.0646,-0.5,0,-0.2,0,0.011,-0.011,1023
2018,5,17,21,34,57.312,0.9022,-0.4054,-0.1315,-0.0647,0,0,0,0.001,0.008,-0.007,1023
2018,5,17,21,34,57.335,0.9022,-0.4054,-0.1315,-0.0647,0,0,0,0.003,0.013,-0.014,1023
2018,5,17,21,34,57.353,0.9023,-0.4053,-0.1315,-0.0647,0,0,0,0.001,0.013,-0.004,1023
2018,5,17,21,34,57.375,0.9023,-0.4053,-0.1315,-0.0647,0,0,0,0.003,0.01,-0.01,1023
2018,5,17,21,34,57.393,0.9022,-0.4054,-0.1315,-0.0647,0,0,0,0,0.013,-0.008,1023
2018,5,17,21,34,57.416,0.9022,-0.4054,-0.1316,-0.0647,0,0,0,0.001,0.008,-0.009,1023
2018,5,17,21,34,57.434,0.9022,-0.4054,-0.1316,-0.0647,0,0,0,0.001,0.014,-0.007,1023
2018,5,17,21,34,57.451,0.9022,-0.4053,-0.1316,-0.0647,0,0,0,0.002,0.014,-0.006,0
2018,5,17,21,34,57.474,0.9022,-0.4054,-0.1317,-0.0648,-0.6,0,0,0,0.01,-0.005,0
2018,5,17,21,34,57.491,0.9022,-0.4055,-0.1317,-0.0647,-0.6,0,-0.3,0.003,0.012,-0.008,0
2018,5,17,21,34,57.513,0.9021,-0.4056,-0.1317,-0.0647,-0.7,0.3,-0.3,0,0.008,-0.011,0
2018,5,17,21,34,57.551,0.9021,-0.4057,-0.1317,-0.0646,-0.6,0.1,-0.4,0.001,0.012,-0.007,0
2018,5,17,21,34,57.551,0.902,-0.4059,-0.1317,-0.0646,-0.9,0,-0.2,0.001,0.013,-0.009,0
2018,5,17,21,34,57.572,0.9019,-0.406,-0.1317,-0.0646,-0.8,0,-0.2,0.003,0.008,-0.006,0
2018,5,17,21,34,57.61,0.9018,-0.4062,-0.1318,-0.0645,-0.8,0.2,-0.4,0.003,0.011,-0.012,0
2018,5,17,21,34,57.63,0.9018,-0.4064,-0.1318,-0.0645,-1,0.3,-0.3,0,0.01,-0.005,0
2018,5,17,21,34,57.633,0.9017,-0.4066,-0.1318,-0.0644,-1.1,0,-0.4,0,0.011,-0.011,0
2018,5,17,21,34,57.669,0.9016,-0.4067,-0.1318,-0.0644,-1,0,-0.5,0,0.008,-0.003,0
2018,5,17,21,34,57.69,0.9016,-0.4068,-0.1318,-0.0644,0,0,0,0.001,0.008,-0.009,0
2018,5,17,21,34,57.693,0.9015,-0.4068,-0.1319,-0.0644,0,0,0,0.003,0.014,-0.007,0
2018,5,17,21,34,57.728,0.9015,-0.4069,-0.1319,-0.0643,-0.8,0.6,-0.4,0.004,0.012,-0.012,0
2018,5,17,21,34,57.751,0.9014,-0.4071,-0.1319,-0.0643,-0.8,0.1,-0.4,0,0.007,-0.01,0
2018,5,17,21,34,57.753,0.9014,-0.4072,-0.132,-0.0642,0,0,0,0.001,0.004,-0.007,1023
2018,5,17,21,34,57.789,0.9014,-0.4072,-0.132,-0.0642,-0.5,0.1,-0.1,0,0.014,-0.012,1023
2018,5,17,21,34,57.81,0.9013,-0.4073,-0.132,-0.0642,0,0,0,0.002,0.011,-0.007,1023
2018,5,17,21,34,57.815,0.9013,-0.4073,-0.132,-0.0642,0,0,0,0.001,0.01,-0.009,1023
2018,5,17,21,34,57.852,0.9013,-0.4073,-0.132,-0.0642,0,0,0,0,0.015,-0.011,1023
2018,5,17,21,34,57.873,0.9013,-0.4073,-0.1321,-0.0643,0,0,0,0,0.012,-0.009,1023
2018,5,17,21,34,57.878,0.9013,-0.4073,-0.1321,-0.0643,0,0,0,0.002,0.008,-0.011,1023
2018,5,17,21,34,57.896,0.9013,-0.4073,-0.1321,-0.0643,0.5,0,0,0.001,0.011,-0.014,1023
2018,5,17,21,34,57.919,0.9013,-0.4073,-0.1321,-0.0643,0,0,0,0.002,0.014,-0.013,1023
2018,5,17,21,34,57.935,0.9013,-0.4072,-0.1322,-0.0643,0,0,0,0,0.01,-0.01,1023
2018,5,17,21,34,57.971,0.9013,-0.4073,-0.1322,-0.0643,0,0,0,0.002,0.01,-0.009,1023
2018,5,17,21,34,57.992,0.9013,-0.4072,-0.1322,-0.0643,0,0,0,0.005,0.013,-0.009,0
2018,5,17,21,34,57.995,0.9013,-0.4073,-0.1322,-0.0643,0,0,0,0,0.009,-0.008,0
2018,5,17,21,34,58.031,0.9013,-0.4073,-0.1322,-0.0643,0,0,0,0.004,0.014,-0.005,0
2018,5,17,21,34,58.052,0.9013,-0.4072,-0.1322,-0.0643,0,0,0,0.004,0.011,-0.003,0
2018,5,17,21,34,58.058,0.9013,-0.4072,-0.1323,-0.0643,0,0,0,0.005,0.01,-0.006,0
2018,5,17,21,34,58.095,0.9013,-0.4073,-0.1323,-0.0643,0,0,0,0,0.006,-0.011,0
2018,5,17,21,34,58.116,0.9013,-0.4073,-0.1323,-0.0643,0,0,0,0.001,0.008,-0.006,0
2018,5,17,21,34,58.119,0.9013,-0.4073,-0.1323,-0.0643,0,0,0,0,0.011,-0.008,0
2018,5,17,21,34,58.153,0.9013,-0.4073,-0.1323,-0.0644,0,0,0,0.003,0.006,-0.01,0
2018,5,17,21,34,58.176,0.9013,-0.4073,-0.1323,-0.0644,0,0,0,0.004,0.009,-0.009,0
2018,5,17,21,34,58.179,0.9013,-0.4073,-0.1323,-0.0644,0,0,0,0.002,0.01,-0.01,0
2018,5,17,21,34,58.213,0.9013,-0.4073,-0.1324,-0.0644,0,0,0,0.002,0.008,-0.007,0
2018,5,17,21,34,58.236,0.9013,-0.4073,-0.1324,-0.0644,0,0,0,0.003,0.008,-0.009,0
2018,5,17,21,34,58.238,0.9013,-0.4073,-0.1324,-0.0644,0,0,0,0.003,0.009,-0.011,0
2018,5,17,21,34,58.275,0.9013,-0.4073,-0.1324,-0.0644,0,0,0,0.004,0.008,-0.009,0
2018,5,17,21,34,58.298,0.9013,-0.4073,-0.1324,-0.0644,0,0,0,0.002,0.014,-0.01,1023
2018,5,17,21,34,58.3,0.9012,-0.4073,-0.1324,-0.0644,0,0,0,0.001,0.012,-0.009,1023
2018,5,17,21,34,58.335,0.9012,-0.4074,-0.1324,-0.0644,0,0,0,0.002,0.006,-0.01,1023
2018,5,17,21,34,58.358,0.9012,-0.4074,-0.1324,-0.0644,0,0,0,0.003,0.007,-0.013,1023
2018,5,17,21,34,58.361,0.9012,-0.4074,-0.1324,-0.0644,0,0,0,0.003,0.013,-0.007,1023
2018,5,17,21,34,58.398,0.9012,-0.4074,-0.1325,-0.0644,0,0,0,0.002,0.01,-0.011,1023
2018,5,17,21,34,58.398,0.9012,-0.4074,-0.1325,-0.0644,-0.5,0,-0.4,0.002,0.008,-0.01,1023
2018,5,17,21,34,58.42,0.9012,-0.4075,-0.1325,-0.0644,0,0,0,0.001,0.009,-0.013,1023
2018,5,17,21,34,58.456,0.9012,-0.4075,-0.1325,-0.0644,0,0,0,0,0.008,-0.008,1023
2018,5,17,21,34,58.476,0.9011,-0.4075,-0.1325,-0.0644,0,0,0,0.004,0.005,-0.012,1023
2018,5,17,21,34,58.479,0.9011,-0.4075,-0.1325,-0.0644,0,0,0,0.001,0.012,-0.014,1023
2018,5,17,21,34,58.513,0.9011,-0.4075,-0.1325,-0.0644,0,0,0,0,0.011,-0.009,1023
2018,5,17,21,34,58.536,0.9011,-0.4076,-0.1326,-0.0644,0,0,0,0.002,0.011,-0.005,0
2018,5,17,21,34,58.541,0.9011,-0.4075,-0.1326,-0.0644,0,0,0,0,0.011,-0.009,0
2018,5,17,21,34,58.576,0.9011,-0.4076,-0.1326,-0.0644,0,0,0,0.002,0.008,-0.011,0
2018,5,17,21,34,58.598,0.9011,-0.4076,-0.1326,-0.0644,0,0,0,0.002,0.005,-0.01,0
2018,5,17,21,34,58.602,0.9011,-0.4076,-0.1326,-0.0644,0,0,0,0.005,0.007,-0.009,0
2018,5,17,21,34,58.637,0.9011,-0.4076,-0.1326,-0.0644,0,0,0,0.001,0.012,-0.013,0
2018,5,17,21,34,58.658,0.9011,-0.4076,-0.1326,-0.0644,0,0,0,0.001,0.01,-0.011,0
2018,5,17,21,34,58.66,0.9011,-0.4076,-0.1326,-0.0644,0,0,0,0.002,0.005,-0.007,0
2018,5,17,21,34,58.694,0.9011,-0.4077,-0.1326,-0.0644,0,0,0,0.005,0.009,-0.015,0
2018,5,17,21,34,58.717,0.9011,-0.4077,-0.1326,-0.0644,0,0,0,0.003,0.011,-0.01,0
2018,5,17,21,34,58.722,0.9011,-0.4077,-0.1327,-0.0644,0,0,0,0,0.012,-0.008,0
2018,5,17,21,34,58.76,0.901,-0.4077,-0.1327,-0.0644,0,0,0,0.004,0.009,-0.009,0
2018,5,17,21,34,58.781,0.901,-0.4077,-0.1327,-0.0644,0,0,0,0.002,0.009,-0.009,0
2018,5,17,21,34,58.784,0.901,-0.4077,-0.1327,-0.0644,0,0,0,0.003,0.01,-0.012,0
2018,5,17,21,34,58.819,0.901,-0.4077,-0.1327,-0.0644,0,0,0,0,0.01,-0.006,1023
2018,5,17,21,34,58.839,0.901,-0.4077,-0.1327,-0.0644,0,0,0,0.001,0.011,-0.011,1023
2018,5,17,21,34,58.845,0.901,-0.4078,-0.1327,-0.0644,0,0,0,0.004,0.011,-0.017,1023
2018,5,17,21,34,58.883,0.901,-0.4078,-0.1327,-0.0644,0,0,0,0.002,0.007,-0.009,1023
2018,5,17,21,34,58.904,0.901,-0.4078,-0.1327,-0.0644,0,0,0,0.002,0.01,-0.01,1023
2018,5,17,21,34,58.907,0.901,-0.4078,-0.1328,-0.0644,0,0,0,0.004,0.01,-0.005,1023
2018,5,17,21,34,58.922,0.901,-0.4078,-0.1328,-0.0644,0,0,0,0.004,0.011,-0.007,1023
2018,5,17,21,34,58.957,0.901,-0.4078,-0.1328,-0.0644,0,0,0,0.005,0.009,-0.007,1023
2018,5,17,21,34,58.978,0.9009,-0.4079,-0.1328,-0.0644,0,0,0,0.002,0.009,-0.011,1023
2018,5,17,21,34,58.985,0.901,-0.4079,-0.1328,-0.0644,0,0,0,0.001,0.012,-0.009,1023
2018,5,17,21,34,59.022,0.901,-0.4079,-0.1328,-0.0644,0,0,0,0.006,0.007,-0.006,1023
2018,5,17,21,34,59.043,0.901,-0.4079,-0.1328,-0.0644,0,0,0,0.003,0.008,-0.013,0
2018,5,17,21,34,59.045,0.9009,-0.4079,-0.1328,-0.0644,0,0,0,0.003,0.007,-0.011,0
2018,5,17,21,34,59.081,0.9009,-0.4079,-0.1328,-0.0644,0,0,0,0.002,0.009,-0.008,0
2018,5,17,21,34,59.103,0.9009,-0.4079,-0.1328,-0.0644,0,0,0,0.002,0.008,-0.013,0
2018,5,17,21,34,59.105,0.9009,-0.408,-0.1328,-0.0644,0,0,0,0.003,0.009,-0.01,0
2018,5,17,21,34,59.141,0.9009,-0.408,-0.1328,-0.0644,0,0,0,0.005,0.008,-0.013,0
2018,5,17,21,34,59.163,0.9009,-0.408,-0.1328,-0.0644,0,0,0,0.002,0.009,-0.007,0
2018,5,17,21,34,59.164,0.9009,-0.408,-0.1328,-0.0644,0,0,0,0,0.008,-0.012,0
2018,5,17,21,34,59.202,0.9009,-0.408,-0.1328,-0.0644,0,0,0,0.002,0.007,-0.011,0
2018,5,17,21,34,59.223,0.9009,-0.4081,-0.1328,-0.0644,0,0,0,0.003,0.01,-0.011,0
2018,5,17,21,34,59.224,0.9009,-0.4081,-0.1328,-0.0644,0,0,0,0.003,0.012,-0.011,0
2018,5,17,21,34,59.262,0.9008,-0.4081,-0.1328,-0.0644,0,0,0,0.001,0.006,-0.004,0
2018,5,17,21,34,59.283,0.9008,-0.4081,-0.1328,-0.0644,0,0,0,0.008,0.012,-0.014,0
2018,5,17,21,34,59.285,0.9008,-0.4081,-0.1328,-0.0644,0,0,0,0.006,0.011,-0.011,0
2018,5,17,21,34,59.323,0.9008,-0.4081,-0.1328,-0.0644,0,0,0,0.001,0.007,-0.007,0
2018,5,17,21,34,59.344,0.9008,-0.4081,-0.1328,-0.0644,-0.4,0.2,-0.5,0,0.01,-0.01,1023
2018,5,17,21,34,59.348,0.9008,-0.4082,-0.1328,-0.0644,0,0,0,0.001,0.012,-0.008,1023
2018,5,17,21,34,59.386,0.9008,-0.4082,-0.1328,-0.0644,0,0,0,0.004,0.009,-0.009,1023
2018,5,17,21,34,59.407,0.9008,-0.4082,-0.1328,-0.0644,0,0,0,0.003,0.007,-0.011,1023
2018,5,17,21,34,59.408,0.9008,-0.4083,-0.1328,-0.0644,-0.7,0,-0.2,0.003,0.011,-0.007,1023
2018,5,17,21,34,59.427,0.9007,-0.4084,-0.1328,-0.0643,-1.1,0.1,-0.3,0.003,0.01,-0.012,1023
2018,5,17,21,34,59.448,0.9006,-0.4087,-0.1328,-0.0643,-1.2,0,-0.2,0.003,0.007,-0.011,1023
2018,5,17,21,34,59.484,0.9005,-0.4089,-0.1327,-0.0643,-1,0,-0.1,0.007,0.009,-0.015,1023
2018,5,17,21,34,59.506,0.9005,-0.409,-0.1327,-0.0643,-0.5,-0.1,0.1,0.006,0.007,-0.008,1023
2018,5,17,21,34,59.507,0.9005,-0.409,-0.1327,-0.0642,0,0,0,0.004,0.01,-0.008,1023
2018,5,17,21,34,59.542,0.9004,-0.409,-0.1327,-0.0642,0,0,0,0.005,0.008,-0.006,1023
2018,5,17,21,34,59.563,0.9004,-0.4091,-0.1327,-0.0642,0,0,0,0.003,0.004,-0.01,1023
2018,5,17,21,34,59.569,0.9004,-0.4091,-0.1327,-0.0642,0,0,0,0.004,0.009,-0.01,0
2018,5,17,21,34,59.606,0.9004,-0.4091,-0.1327,-0.0642,0,0,0,0.001,0.011,-0.01,0
2018,5,17,21,34,59.628,0.9004,-0.4091,-0.1327,-0.0642,0,0,0,0.003,0.007,-0.007,0
2018,5,17,21,34,59.633,0.9004,-0.4091,-0.1327,-0.0642,0,0,0,0.005,0.009,-0.01,0
2018,5,17,21,34,59.65,0.9004,-0.4091,-0.1327,-0.0642,0,0,0,0.002,0.009,-0.01,0
2018,5,17,21,34,59.673,0.9004,-0.4092,-0.1327,-0.0642,0,0,0,0.003,0.005,-0.015,0
2018,5,17,21,34,59.689,0.9004,-0.4092,-0.1327,-0.0642,0,0,0,0.002,0.009,-0.006,0
2018,5,17,21,34,59.727,0.9004,-0.4092,-0.1327,-0.0642,0,0,0,0.002,0.009,-0.009,0
2018,5,17,21,34,59.75,0.9004,-0.4092,-0.1327,-0.0642,0,0,0,0.006,0.008,-0.01,0
2018,5,17,21,34,59.755,0.9004,-0.4092,-0.1327,-0.0642,0,0,0,0.004,0.01,-0.008,0
2018,5,17,21,34,59.772,0.9004,-0.4092,-0.1327,-0.0642,0,0,0,0.004,0.009,-0.009,0
2018,5,17,21,34,59.792,0.9003,-0.4093,-0.1327,-0.0642,0,0,0,0.002,0.009,-0.01,0
2018,5,17,21,34,59.81,0.9003,-0.4093,-0.1327,-0.0642,0,0,0,0.003,0.009,-0.009,0
2018,5,17,21,34,59.832,0.9003,-0.4093,-0.1327,-0.0642,0,0,0,0.004,0.01,-0.008,0
2018,5,17,21,34,59.85,0.9003,-0.4093,-0.1328,-0.0642,-0.5,0.2,-0.2,0.003,0.008,-0.008,0
2018,5,17,21,34,59.873,0.9003,-0.4095,-0.1327,-0.0641,-0.6,0.2,-0.4,0.009,0.011,-0.013,1023
2018,5,17,21,34,59.888,0.9002,-0.4096,-0.1327,-0.0641,-0.5,0.1,-0.4,0.004,0.009,-0.015,1023
2018,5,17,21,34,59.924,0.9002,-0.4096,-0.1327,-0.0641,0,0,0,0.006,0.008,-0.009,1023
2018,5,17,21,34,59.947,0.9002,-0.4097,-0.1327,-0.064,0,0,0,0.004,0.008,-0.011,1023
2018,5,17,21,34,59.95,0.9002,-0.4097,-0.1327,-0.064,0,0,0,0.005,0.008,-0.008,1023
2018,5,17,21,34,59.985,0.9001,-0.4097,-0.1327,-0.064,0,0,0,0.004,0.006,-0.011,1023
2018,5,17,21,35,0.007,0.9001,-0.4098,-0.1327,-0.064,0,0,0,0.003,0.008,-0.011,1023
2018,5,17,21,35,0.01,0.9001,-0.4098,-0.1327,-0.064,0,0,0,0.002,0.01,-0.003,1023
2018,5,17,21,35,0.045,0.9001,-0.4098,-0.1327,-0.064,0,0,0,0.004,0.011,-0.019,1023
2018,5,17,21,35,0.066,0.9001,-0.4098,-0.1327,-0.064,0,0,0,0.004,0.004,-0.011,1023
2018,5,17,21,35,0.074,0.9001,-0.4098,-0.1327,-0.064,0,0,0,0.001,0.008,-0.008,1023
2018,5,17,21,35,0.111,0.9001,-0.4098,-0.1327,-0.064,0,0,0,0.003,0.015,-0.009,0
2018,5,17,21,35,0.131,0.9001,-0.4099,-0.1327,-0.064,-0.5,0.1,-0.4,0.001,0.008,-0.006,0
2018,5,17,21,35,0.134,0.9,-0.41,-0.1327,-0.0639,-0.4,0.1,-0.5,0.004,0.008,-0.008,0
2018,5,17,21,35,0.171,0.9,-0.4101,-0.1327,-0.0639,-0.6,0,-0.5,0.005,0.001,-0.011,0
2018,5,17,21,35,0.171,0.9,-0.4102,-0.1327,-0.0638,0,0,0,0.003,0.009,-0.01,0
2018,5,17,21,35,0.192,0.9,-0.4102,-0.1327,-0.0638,0,0,0,0.004,0.008,-0.012,0
2018,5,17,21,35,0.231,0.8999,-0.4102,-0.1327,-0.0638,0,0,0,0.002,0.008,-0.008,0
2018,5,17,21,35,0.251,0.8999,-0.4102,-0.1327,-0.0638,0,0,0,0.005,0.007,-0.008,0
2018,5,17,21,35,0.255,0.8999,-0.4103,-0.1327,-0.0638,0,0,0,0.006,0.006,-0.007,0
2018,5,17,21,35,0.273,0.8999,-0.4103,-0.1327,-0.0639,0,0,0,0,0.008,-0.011,0
2018,5,17,21,35,0.294,0.8999,-0.4103,-0.1327,-0.0639,0,0,0,0.005,0.011,-0.006,0
2018,5,17,21,35,0.328,0.8999,-0.4103,-0.1327,-0.0639,0,0,0,0.002,0.008,-0.008,0
2018,5,17,21,35,0.335,0.8999,-0.4103,-0.1327,-0.0639,0,0,0,0.001,0.004,-0.014,0
2018,5,17,21,35,0.371,0.8999,-0.4103,-0.1327,-0.0639,0,0,0,0.005,0.004,-0.01,0
2018,5,17,21,35,0.371,0.8999,-0.4103,-0.1327,-0.0639,0,0,0,0.004,0.008,-0.007,0
2018,5,17,21,35,0.393,0.8999,-0.4102,-0.1327,-0.0639,0,0,0,0.007,0.011,-0.011,0
2018,5,17,21,35,0.431,0.8999,-0.4103,-0.1327,-0.0639,0,0,0,0.006,0.014,-0.012,1023
2018,5,17,21,35,0.452,0.8999,-0.4103,-0.1327,-0.0638,-0.4,0.3,-0.6,0,0.007,-0.008,1023
2018,5,17,21,35,0.455,0.8998,-0.4104,-0.1327,-0.0637,-1.1,0.3,-1.2,-0.004,0.002,-0.002,1023
2018,5,17,21,35,0.489,0.8998,-0.4106,-0.1326,-0.0635,-0.2,-0.1,-1.7,0.001,0.002,0,1023
2018,5,17,21,35,0.511,0.8998,-0.4107,-0.1324,-0.0631,1.5,0.2,-1.6,0.011,0,-0.015,1023
2018,5,17,21,35,0.515,0.9,-0.4104,-0.1324,-0.0628,2.6,0.2,-1,0.007,0.017,-0.013,1023
2018,5,17,21,35,0.551,0.9001,-0.4101,-0.1324,-0.0627,1.3,0.3,-0.6,0.001,0.021,-0.011,1023
2018,5,17,21,35,0.572,0.9002,-0.41,-0.1324,-0.0626,-0.3,0.1,-0.8,0,0.012,-0.005,1023
2018,5,17,21,35,0.577,0.9001,-0.4102,-0.1324,-0.0624,-1.2,0,-1.2,-0.002,0.008,-0.007,1023
2018,5,17,21,35,0.612,0.9,-0.4104,-0.1322,-0.0622,-1,0,-1.1,0.011,0.011,-0.013,1023
2018,5,17,21,35,0.635,0.9,-0.4105,-0.1321,-0.0621,0,0,0,0.01,0.01,-0.015,1023
2018,5,17,21,35,0.637,0.9,-0.4105,-0.1321,-0.0621,0,0,0,0.001,0.014,-0.01,1023
2018,5,17,21,35,0.674,0.9,-0.4105,-0.1321,-0.0621,-0.5,-0.1,0,0.002,0.014,-0.007,1023
2018,5,17,21,35,0.696,0.9,-0.4106,-0.1321,-0.0621,-0.8,0.1,-0.1,0.005,0.007,-0.011,0
2018,5,17,21,35,0.699,0.8999,-0.4107,-0.1321,-0.0621,0,0,0,0.002,0.007,-0.012,0
2018,5,17,21,35,0.733,0.8999,-0.4107,-0.1321,-0.0621,0,0,0,0.004,0.011,-0.01,0
2018,5,17,21,35,0.755,0.8999,-0.4107,-0.1322,-0.0621,0,0,0,0.003,0.01,-0.006,0
2018,5,17,21,35,0.759,0.8999,-0.4107,-0.1321,-0.0621,0,0,0,0.004,0.007,-0.008,0
2018,5,17,21,35,0.776,0.8999,-0.4107,-0.1321,-0.0621,0,0,0,0.006,0.008,-0.009,0
2018,5,17,21,35,0.797,0.8999,-0.4107,-0.1321,-0.0621,0,0,0,0.005,0.014,-0.009,0
2018,5,17,21,35,0.832,0.8999,-0.4107,-0.1322,-0.0621,0,0,0,0.001,0.009,-0.008,0
2018,5,17,21,35,0.854,0.8999,-0.4107,-0.1322,-0.0622,-0.5,-0.3,0.3,0.005,0.009,-0.009,0
2018,5,17,21,35,0.861,0.8998,-0.411,-0.1322,-0.0622,-0.8,0.3,-0.2,0.002,0.007,-0.008,0
2018,5,17,21,35,0.898,0.8997,-0.4111,-0.1322,-0.0622,-0.6,0,0,0.006,0.011,-0.009,0
2018,5,17,21,35,0.898,0.8997,-0.4112,-0.1322,-0.0622,-0.9,0,0,0.004,0.012,-0.003,0
2018,5,17,21,35,0.921,0.8996,-0.4113,-0.1322,-0.0622,-0.8,0,-0.1,0,0.006,-0.011,0
2018,5,17,21,35,0.956,0.8996,-0.4114,-0.1322,-0.0622,0,0,0,0.005,0.005,-0.012,0
2018,5,17,21,35,0.977,0.8995,-0.4115,-0.1322,-0.0622,-0.6,0,-0.1,0.005,0.011,-0.003,0
2018,5,17,21,35,0.979,0.8995,-0.4116,-0.1323,-0.0622,-0.9,0.1,0,0.004,0.013,-0.009,0
2018,5,17,21,35,1.017,0.8994,-0.4117,-0.1323,-0.0623,-0.9,-0.1,0.2,0,0.003,-0.008,0
2018,5,17,21,35,1.038,0.8994,-0.4118,-0.1323,-0.0623,0,0,0,0.002,0.009,-0.012,1023
2018,5,17,21,35,1.041,0.8994,-0.4118,-0.1323,-0.0623,0,0,0,0.005,0.011,-0.01,1023
2018,5,17,21,35,1.075,0.8994,-0.4118,-0.1323,-0.0623,0,0,0,0,0.013,-0.014,1023
2018,5,17,21,35,1.097,0.8993,-0.4119,-0.1323,-0.0623,-0.5,-0.1,0.2,0.001,0.004,-0.009,1023
2018,5,17,21,35,1.099,0.8993,-0.4119,-0.1323,-0.0624,0,0,0,0.003,0.008,-0.014,1023
2018,5,17,21,35,1.134,0.8993,-0.4119,-0.1323,-0.0624,0,0,0,0.004,0.012,-0.016,1023
2018,5,17,21,35,1.155,0.8993,-0.4119,-0.1323,-0.0624,0,0,0,0.004,0.008,-0.008,1023
2018,5,17,21,35,1.162,0.8993,-0.412,-0.1323,-0.0624,-0.7,0.1,-0.1,0.002,0.011,-0.01,1023
2018,5,17,21,35,1.178,0.8992,-0.4121,-0.1323,-0.0624,-0.6,0.1,-0.1,0.003,0.008,-0.009,1023
2018,5,17,21,35,1.199,0.8992,-0.4122,-0.1323,-0.0624,0,0,0,0.002,0.007,-0.01,1023
2018,5,17,21,35,1.234,0.8992,-0.4122,-0.1323,-0.0624,0,0,0,0.003,0.012,-0.007,1023
2018,5,17,21,35,1.255,0.8992,-0.4122,-0.1323,-0.0623,0,0,0,0.005,0.009,-0.011,1023
2018,5,17,21,35,1.262,0.8992,-0.4123,-0.1323,-0.0623,0,0,0,0.001,0.006,-0.009,1023
2018,5,17,21,35,1.281,0.8991,-0.4123,-0.1323,-0.0623,0,0,0,0.004,0.008,-0.011,0
2018,5,17,21,35,1.303,0.8991,-0.4123,-0.1324,-0.0623,-0.5,0.1,-0.2,0.003,0.013,-0.007,0
2018,5,17,21,35,1.34,0.8991,-0.4124,-0.1324,-0.0623,-0.8,0,-0.1,0.002,0.013,-0.005,0
2018,5,17,21,35,1.361,0.899,-0.4125,-0.1324,-0.0624,-0.5,-0.3,0,0.001,0.005,-0.005,0
2018,5,17,21,35,1.365,0.899,-0.4126,-0.1324,-0.0624,-0.5,-0.1,0.2,0.005,0.007,-0.009,0
2018,5,17,21,35,1.384,0.8989,-0.4127,-0.1323,-0.0624,-0.6,0,-0.2,0.003,0.004,-0.01,0
2018,5,17,21,35,1.405,0.8989,-0.4128,-0.1323,-0.0624,0,0,0,0.002,0.009,-0.012,0
2018,5,17,21,35,1.42,0.8989,-0.4128,-0.1323,-0.0624,0,0,0,0.004,0.013,-0.007,0
2018,5,17,21,35,1.442,0.8989,-0.4129,-0.1324,-0.0624,0,0,0,0.002,0.006,-0.008,0
2018,5,17,21,35,1.478,0.8989,-0.4129,-0.1323,-0.0624,0,0,0,0.004,0.004,-0.008,0
2018,5,17,21,35,1.501,0.8989,-0.4129,-0.1323,-0.0624,0,0,0,0.003,0.01,-0.013,0
2018,5,17,21,35,1.502,0.8988,-0.4129,-0.1324,-0.0624,0,0,0,0.002,0.009,-0.014,0
2018,5,17,21,35,1.541,0.8988,-0.4129,-0.1324,-0.0624,0,0,0,0.003,0.012,-0.009,0
2018,5,17,21,35,1.562,0.8988,-0.413,-0.1324,-0.0624,0,0,0,0.003,0.006,-0.012,0
2018,5,17,21,35,1.564,0.8988,-0.413,-0.1324,-0.0624,0,0,0,0.004,0.011,-0.011,0
2018,5,17,21,35,1.599,0.8988,-0.4131,-0.1324,-0.0624,0,0,0,0.005,0.009,-0.012,0
2018,5,17,21,35,1.622,0.8988,-0.4131,-0.1324,-0.0624,0,0,0,0.004,0.01,-0.008,1023
2018,5,17,21,35,1.627,0.8988,-0.4131,-0.1324,-0.0624,0,0,0,0.005,0.009,-0.007,1023
2018,5,17,21,35,1.666,0.8988,-0.4131,-0.1324,-0.0624,0,0,0,0.001,0.007,-0.011,1023
2018,5,17,21,35,1.67,0.8987,-0.4131,-0.1324,-0.0624,0,0,0,0.005,0.011,-0.014,1023
2018,5,17,21,35,1.685,0.8987,-0.4132,-0.1324,-0.0624,-0.5,0,0,0.002,0.007,-0.009,1023
2018,5,17,21,35,1.703,0.8987,-0.4132,-0.1324,-0.0624,0,0,0,0.001,0.007,-0.01,1023
2018,5,17,21,35,1.726,0.8987,-0.4132,-0.1324,-0.0624,0,0,0,0.003,0.011,-0.015,1023
2018,5,17,21,35,1.744,0.8987,-0.4133,-0.1324,-0.0624,0,0,0,0.001,0.009,-0.008,1023
2018,5,17,21,35,1.767,0.8987,-0.4133,-0.1324,-0.0624,0,0,0,0.003,0.008,-0.007,1023
2018,5,17,21,35,1.784,0.8987,-0.4133,-0.1324,-0.0624,0,0,0,0.001,0.007,-0.015,1023
2018,5,17,21,35,1.808,0.8987,-0.4133,-0.1324,-0.0624,0,0,0,0.004,0.012,-0.007,1023
2018,5,17,21,35,1.826,0.8986,-0.4134,-0.1325,-0.0623,-0.5,0.3,-0.5,0.001,0.008,-0.013,1023
2018,5,17,21,35,1.849,0.8986,-0.4135,-0.1325,-0.0623,0,0,0,0.004,0.008,-0.01,1023
2018,5,17,21,35,1.867,0.8986,-0.4135,-0.1325,-0.0623,0,0,0,0.002,0.009,-0.006,0
2018,5,17,21,35,1.891,0.8986,-0.4135,-0.1325,-0.0623,0,0,0,0.005,0.008,-0.009,0
2018,5,17,21,35,1.907,0.8986,-0.4135,-0.1325,-0.0623,0,0,0,0.001,0.007,-0.011,0
2018,5,17,21,35,1.93,0.8986,-0.4135,-0.1325,-0.0623,0,0,0,0.002,0.012,-0.011,0
2018,5,17,21,35,1.945,0.8986,-0.4135,-0.1325,-0.0623,0,0,0,0.003,0.009,-0.01,0
2018,5,17,21,35,1.964,0.8985,-0.4136,-0.1325,-0.0623,0,0,0,0.002,0.005,-0.01,0
2018,5,17,21,35,1.986,0.8985,-0.4136,-0.1325,-0.0623,0,0,0,0.006,0.01,-0.012,0
2018,5,17,21,35,2.024,0.8985,-0.4136,-0.1325,-0.0623,0,0,0,0.005,0.008,-0.009,0
2018,5,17,21,35,2.046,0.8985,-0.4136,-0.1325,-0.0623,0,0,0,0.001,0.006,-0.009,0
2018,5,17,21,35,2.051,0.8985,-0.4137,-0.1325,-0.0623,0,0,0,0.004,0.008,-0.012,0
2018,5,17,21,35,2.07,0.8985,-0.4137,-0.1325,-0.0623,0,0,0,0.001,0.01,-0.007,0
2018,5,17,21,35,2.09,0.8985,-0.4137,-0.1325,-0.0623,0,0,0,0,0.008,-0.009,0
2018,5,17,21,35,2.126,0.8985,-0.4137,-0.1325,-0.0623,0,0,0,0.004,0.008,-0.008,0
2018,5,17,21,35,2.149,0.8985,-0.4137,-0.1326,-0.0623,0,0,0,0.004,0.005,-0.011,0
2018,5,17,21,35,2.153,0.8984,-0.4138,-0.1326,-0.0623,0,0,0,0,0.007,-0.012,0
2018,5,17,21,35,2.168,0.8984,-0.4138,-0.1326,-0.0623,0,0,0,0,0.012,-0.009,0
2018,5,17,21,35,2.185,0.8984,-0.4138,-0.1326,-0.0623,0,0,0,0.008,0.008,-0.01,0
2018,5,17,21,35,2.208,0.8984,-0.4138,-0.1326,-0.0623,0,0,0,0.002,0.006,-0.01,0
2018,5,17,21,35,2.227,0.8984,-0.4138,-0.1326,-0.0623,0,0,0,0,0.01,-0.008,1023
2018,5,17,21,35,2.249,0.8984,-0.4138,-0.1326,-0.0623,0,0,0,0.003,0.009,-0.007,1023
2018,5,17,21,35,2.267,0.8984,-0.4138,-0.1326,-0.0623,0,0,0,0.006,0.011,-0.01,1023
2018,5,17,21,35,2.29,0.8984,-0.4138,-0.1326,-0.0623,0,0,0,0.002,0.007,-0.011,1023
2018,5,17,21,35,2.326,0.8984,-0.4139,-0.1326,-0.0623,0,0,0,0.002,0.011,-0.007,1023
2018,5,17,21,35,2.348,0.8984,-0.4139,-0.1326,-0.0623,0,0,0,0,0.005,-0.012,1023
2018,5,17,21,35,2.354,0.8984,-0.4139,-0.1326,-0.0623,0,0,0,0.004,0.009,-0.012,1023
2018,5,17,21,35,2.371,0.8984,-0.4139,-0.1326,-0.0623,0,0,0,0.002,0.007,-0.006,1023
2018,5,17,21,35,2.394,0.8984,-0.4139,-0.1326,-0.0623,0,0,0,0.007,0.013,-0.011,1023
2018,5,17,21,35,2.429,0.8984,-0.4139,-0.1326,-0.0623,-0.6,0.3,-0.4,0.002,0.01,-0.007,1023
2018,5,17,21,35,2.449,0.8983,-0.414,-0.1326,-0.0622,0,0,0,0.004,0.004,-0.009,1023
2018,5,17,21,35,2.452,0.8983,-0.414,-0.1326,-0.0622,0,0,0,0.001,0.007,-0.003,1023
2018,5,17,21,35,2.467,0.8983,-0.414,-0.1327,-0.0622,0,0,0,0.005,0.011,-0.001,1023
2018,5,17,21,35,2.489,0.8983,-0.414,-0.1327,-0.0622,0,0,0,0.004,0.008,-0.009,0
2018,5,17,21,35,2.526,0.8983,-0.414,-0.1327,-0.0622,0,0,0,0.004,0.008,-0.009,0
2018,5,17,21,35,2.549,0.8983,-0.4141,-0.1327,-0.0622,0,0,0,0.004,0.009,-0.013,0
2018,5,17,21,35,2.553,0.8983,-0.414,-0.1327,-0.0622,0,0,0,0.004,0.013,-0.011,0
2018,5,17,21,35,2.588,0.8983,-0.414,-0.1327,-0.0623,0,0,0,0.001,0.01,-0.009,0
2018,5,17,21,35,2.611,0.8983,-0.414,-0.1327,-0.0623,0,0,0,0.001,0.009,-0.007,0
2018,5,17,21,35,2.614,0.8983,-0.414,-0.1327,-0.0623,0,0,0,0.007,0.007,-0.01,0
2018,5,17,21,35,2.65,0.8983,-0.414,-0.1327,-0.0623,0,0,0,0.004,0.01,-0.008,0
2018,5,17,21,35,2.672,0.8983,-0.414,-0.1327,-0.0623,0,0,0,0.002,0.008,-0.009,0
2018,5,17,21,35,2.676,0.8983,-0.414,-0.1327,-0.0623,0,0,0,0.001,0.01,-0.005,0
2018,5,17,21,35,2.69,0.8983,-0.414,-0.1327,-0.0623,0,0,0,0.001,0.01,-0.011,0
2018,5,17,21,35,2.725,0.8983,-0.4141,-0.1327,-0.0623,0,0,0,0.004,0.009,-0.011,0
2018,5,17,21,35,2.748,0.8983,-0.4141,-0.1327,-0.0623,0,0,0,0.005,0.014,-0.009,0
2018,5,17,21,35,2.753,0.8983,-0.4141,-0.1327,-0.0623,0,0,0,0.002,0.009,-0.007,0
2018,5,17,21,35,2.788,0.8983,-0.414,-0.1327,-0.0623,0,0,0,0,0.01,-0.003,0
2018,5,17,21,35,2.81,0.8983,-0.414,-0.1327,-0.0623,0,0,0,0.004,0.008,-0.009,0
2018,5,17,21,35,2.814,0.8983,-0.414,-0.1327,-0.0623,0,0,0,0.003,0.007,-0.007,0
2018,5,17,21,35,2.85,0.8983,-0.4141,-0.1327,-0.0623,0,0,0,0.003,0.01,-0.005,1023
2018,5,17,21,35,2.874,0.8983,-0.414,-0.1327,-0.0623,0,0,0,0.004,0.011,-0.008,1023
2018,5,17,21,35,2.877,0.8983,-0.414,-0.1327,-0.0623,0,0,0,0.004,0.011,-0.011,1023
2018,5,17,21,35,2.896,0.8983,-0.4141,-0.1327,-0.0623,0,0,0,0.003,0.007,-0.008,1023
2018,5,17,21,35,2.917,0.8983,-0.4141,-0.1327,-0.0623,0,0,0,0.002,0.009,-0.008,1023
2018,5,17,21,35,2.933,0.8983,-0.4141,-0.1327,-0.0623,0,0,0,0,0.011,-0.006,1023
2018,5,17,21,35,2.952,0.8983,-0.4141,-0.1328,-0.0623,0,0,0,0.001,0.01,-0.009,1023
2018,5,17,21,35,2.973,0.8983,-0.4141,-0.1328,-0.0623,0,0,0,0.004,0.013,-0.012,1023
2018,5,17,21,35,3.01,0.8983,-0.4141,-0.1328,-0.0623,0,0,0,0.002,0.008,-0.012,1023
2018,5,17,21,35,3.033,0.8983,-0.4141,-0.1328,-0.0623,0,0,0,0.003,0.011,-0.006,1023
2018,5,17,21,35,3.038,0.8982,-0.4141,-0.1328,-0.0623,0,0,0,0.003,0.01,-0.011,1023
2018,5,17,21,35,3.072,0.8982,-0.4141,-0.1328,-0.0623,0,0,0,0.002,0.007,-0.012,1023
2018,5,17,21,35,3.095,0.8982,-0.4141,-0.1328,-0.0623,0,0,0,0.002,0.008,-0.007,0
2018,5,17,21,35,3.099,0.8983,-0.4141,-0.1328,-0.0623,0,0,0,0.005,0.011,-0.005,0
2018,5,17,21,35,3.119,0.8983,-0.4141,-0.1328,-0.0623,0,0,0,0.003,0.01,-0.005,0
2018,5,17,21,35,3.135,0.8983,-0.4141,-0.1328,-0.0623,0,0,0,0.004,0.006,-0.009,0
2018,5,17,21,35,3.159,0.8983,-0.4141,-0.1328,-0.0623,0,0,0,0.004,0.01,-0.009,0
2018,5,17,21,35,3.175,0.8983,-0.4141,-0.1328,-0.0623,0,0,0,0.004,0.011,-0.007,0
2018,5,17,21,35,3.193,0.8983,-0.4141,-0.1328,-0.0623,0,0,0,0.002,0.007,-0.006,0
2018,5,17,21,35,3.215,0.8982,-0.4141,-0.1328,-0.0623,0,0,0,0.005,0.009,-0.01,0
2018,5,17,21,35,3.234,0.8982,-0.4141,-0.1328,-0.0623,0,0,0,0.002,0.011,-0.01,0
2018,5,17,21,35,3.258,0.8982,-0.4141,-0.1328,-0.0623,0,0,0,0.005,0.009,-0.011,0
2018,5,17,21,35,3.275,0.8982,-0.4141,-0.1328,-0.0623,0,0,0,0.006,0.011,-0.009,0
2018,5,17,21,35,3.298,0.8982,-0.4142,-0.1328,-0.0623,0,0,0,0.002,0.008,-0.011,0
2018,5,17,21,35,3.316,0.8982,-0.4142,-0.1328,-0.0623,0,0,0,0.005,0.009,-0.011,0
2018,5,17,21,35,3.338,0.8982,-0.4142,-0.1328,-0.0623,0,0,0,0.005,0.01,-0.009,0
2018,5,17,21,35,3.356,0.8982,-0.4142,-0.1328,-0.0623,0,0,0,0.004,0.008,-0.011,0
2018,5,17,21,35,3.378,0.8982,-0.4142,-0.1328,-0.0623,0,0,0,0.005,0.011,-0.008,0
2018,5,17,21,35,3.395,0.8982,-0.4142,-0.1328,-0.0623,0,0,0,0.004,0.01,-0.011,0
2018,5,17,21,35,3.419,0.8982,-0.4142,-0.1328,-0.0623,0,0,0,0.003,0.011,-0.006,0
2018,5,17,21,35,3.435,0.8982,-0.4142,-0.1328,-0.0623,0,0,0,0.001,0.008,-0.012,1023
2018,5,17,21,35,3.457,0.8982,-0.4142,-0.1328,-0.0623,0,0,0,0.004,0.011,-0.013,1023
2018,5,17,21,35,3.495,0.8982,-0.4142,-0.1328,-0.0623,0,0,0,0.005,0.007,-0.01,1023
2018,5,17,21,35,3.495,0.8982,-0.4143,-0.1328,-0.0623,0,0,0,0.004,0.011,-0.007,1023
