time_1,time_2,time_3,time_4,time_5,time_6,w,x,y,z,droll,dpitch,dyaw,ax,ay,az,heart
2018,5,1,22,40,20.086,0.299,-0.5498,0.0382,-0.7789,-0.2,0.3,1,0.016,-0.01,0,0
2018,5,1,22,40,20.105,0.299,-0.5498,0.0381,-0.7789,-0.4,0.4,1.3,0.015,-0.007,0,0
2018,5,1,22,40,20.126,0.2989,-0.5499,0.038,-0.7789,-0.2,0.3,1,0.017,-0.006,0.001,0
2018,5,1,22,40,20.145,0.2989,-0.5499,0.038,-0.7789,-0.3,0.3,1.1,0.013,-0.006,0.001,0
2018,5,1,22,40,20.166,0.2987,-0.55,0.0378,-0.7789,-0.2,0.4,0.8,0.011,-0.005,0.001,0
2018,5,1,22,40,20.186,0.2986,-0.5501,0.0378,-0.7789,-0.2,0.3,0.8,0.011,-0.002,-0.004,0
2018,5,1,22,40,20.205,0.2986,-0.5501,0.0377,-0.7788,-0.3,0,1,0.012,-0.001,-0.006,0
2018,5,1,22,40,20.224,0.2986,-0.5501,0.0377,-0.7789,-0.6,-0.2,0.7,0.014,-0.004,0,0
2018,5,1,22,40,20.26,0.2987,-0.55,0.0378,-0.7789,-0.5,-0.5,0.8,0.011,-0.006,-0.001,0
2018,5,1,22,40,20.28,0.2986,-0.55,0.0378,-0.7789,-0.7,-0.1,0.7,0.015,-0.004,0.003,0
2018,5,1,22,40,20.284,0.2988,-0.5499,0.038,-0.7789,-0.9,-0.2,0.6,0.013,-0.005,0,0
2018,5,1,22,40,20.303,0.2989,-0.5498,0.0381,-0.7789,-0.7,-0.1,0.7,0.017,-0.008,-0.003,0
2018,5,1,22,40,20.325,0.2991,-0.5498,0.0383,-0.7789,-0.5,0,0.8,0.014,-0.009,0,0
2018,5,1,22,40,20.364,0.2992,-0.5497,0.0383,-0.7789,-0.5,-0.1,0.8,0.017,-0.005,0.002,0
2018,5,1,22,40,20.384,0.2992,-0.5497,0.0384,-0.7789,-0.5,-0.1,0.8,0.016,-0.007,0,0
2018,5,1,22,40,20.388,0.2992,-0.5496,0.0384,-0.7789,-0.4,-0.1,1,0.01,-0.005,0.001,0
2018,5,1,22,40,20.409,0.2991,-0.5497,0.0384,-0.7789,-0.7,0.1,1,0.012,-0.001,-0.004,0
2018,5,1,22,40,20.428,0.299,-0.5497,0.0383,-0.779,-0.7,0,1.1,0.011,-0.005,-0.001,0
2018,5,1,22,40,20.444,0.299,-0.5498,0.0384,-0.7789,-0.4,0.3,0.9,0.014,-0.01,-0.005,1023
2018,5,1,22,40,20.481,0.299,-0.5498,0.0384,-0.7789,-0.4,0,0.5,0.018,-0.007,0,1023
2018,5,1,22,40,20.501,0.2991,-0.5497,0.0385,-0.7789,-0.6,-0.4,0.5,0.02,-0.006,-0.005,1023
2018,5,1,22,40,20.505,0.2991,-0.5497,0.0385,-0.7789,-0.7,-0.4,0.8,0.013,-0.007,0.002,1023
2018,5,1,22,40,20.526,0.2991,-0.5496,0.0386,-0.779,-0.9,-0.7,1,0.012,-0.008,0,1023
2018,5,1,22,40,20.545,0.2992,-0.5495,0.0387,-0.779,-0.7,-0.5,1.3,0.013,-0.007,0,1023
2018,5,1,22,40,20.581,0.2991,-0.5494,0.0387,-0.7791,-0.2,-0.1,1.6,0.012,-0.009,-0.001,1023
2018,5,1,22,40,20.601,0.2991,-0.5494,0.0386,-0.7791,0.1,0.4,1.6,0.016,-0.004,0.005,1023
2018,5,1,22,40,20.607,0.2992,-0.5494,0.0384,-0.7791,0.3,0.7,1.5,0.018,-0.002,0.004,1023
2018,5,1,22,40,20.646,0.2991,-0.5494,0.0382,-0.7791,0,0.8,1.3,0.018,-0.005,-0.001,0
2018,5,1,22,40,20.666,0.2992,-0.5495,0.0381,-0.779,0,1.1,0.8,0.016,-0.008,-0.005,0
2018,5,1,22,40,20.67,0.2992,-0.5496,0.038,-0.779,-0.1,0.8,0.8,0.01,-0.003,-0.001,0
2018,5,1,22,40,20.688,0.2992,-0.5497,0.0379,-0.7789,-0.3,0.7,0.7,0.007,-0.001,0,0
2018,5,1,22,40,20.709,0.2992,-0.5498,0.0378,-0.7789,-0.6,0.6,0.7,0.009,-0.003,0,0
2018,5,1,22,40,20.727,0.2992,-0.5499,0.0378,-0.7788,-0.9,0.4,0.5,0.015,-0.003,0.003,0
2018,5,1,22,40,20.748,0.2994,-0.5499,0.038,-0.7787,-1.1,0,0.5,0.014,-0.008,0.004,0
2018,5,1,22,40,20.784,0.2995,-0.5498,0.0381,-0.7787,-0.9,-0.1,0.5,0.018,-0.006,0.005,0
2018,5,1,22,40,20.803,0.2995,-0.5499,0.0383,-0.7787,-1.2,0.1,0.7,0.013,-0.006,0,0
2018,5,1,22,40,20.807,0.2996,-0.5499,0.0384,-0.7786,-1,0,0.9,0.014,-0.011,-0.001,0
2018,5,1,22,40,20.847,0.2995,-0.5499,0.0384,-0.7786,-0.4,0.4,1,0.015,-0.009,-0.002,0
2018,5,1,22,40,20.868,0.2995,-0.55,0.0384,-0.7785,-0.4,0.8,1.2,0.016,-0.007,0.001,0
2018,5,1,22,40,20.872,0.2995,-0.5501,0.0383,-0.7785,-0.2,1.1,1.3,0.016,-0.008,-0.001,0
2018,5,1,22,40,20.89,0.2995,-0.5503,0.0381,-0.7784,0,1.1,1.4,0.015,-0.008,0.001,0
2018,5,1,22,40,20.911,0.2995,-0.5504,0.038,-0.7783,-0.1,1.1,1.4,0.013,-0.003,0,0
2018,5,1,22,40,20.93,0.2996,-0.5505,0.0379,-0.7782,0.1,0.8,1.1,0.013,-0.006,-0.002,0
2018,5,1,22,40,20.947,0.2994,-0.5507,0.0377,-0.7782,0,0.9,1.1,0.014,-0.006,-0.001,0
2018,5,1,22,40,20.968,0.2994,-0.5508,0.0375,-0.7781,-0.2,0.8,1.1,0.011,-0.004,-0.003,0
2018,5,1,22,40,21.005,0.2991,-0.5509,0.0373,-0.7781,-0.3,0.3,1,0.014,-0.006,-0.002,0
2018,5,1,22,40,21.027,0.2991,-0.551,0.0373,-0.7781,-0.5,0.3,0.8,0.011,-0.011,0,0
2018,5,1,22,40,21.031,0.2991,-0.551,0.0373,-0.7781,-0.5,0.1,0.7,0.015,-0.006,-0.003,0
2018,5,1,22,40,21.049,0.2993,-0.5509,0.0374,-0.778,-0.7,0,0.7,0.015,-0.004,0.002,0
2018,5,1,22,40,21.07,0.2993,-0.5509,0.0375,-0.778,-0.8,0.1,0.5,0.014,-0.007,-0.001,0
2018,5,1,22,40,21.091,0.2993,-0.551,0.0375,-0.778,-0.7,0.3,0.6,0.016,-0.008,0.004,0
2018,5,1,22,40,21.129,0.2994,-0.551,0.0375,-0.7779,-0.6,0.4,0.8,0.015,-0.007,-0.002,0
2018,5,1,22,40,21.133,0.2993,-0.551,0.0375,-0.7779,-0.4,0.3,1,0.015,-0.01,0.002,0
2018,5,1,22,40,21.15,0.2993,-0.5511,0.0375,-0.7779,-0.4,0.3,1,0.013,-0.008,-0.001,0
2018,5,1,22,40,21.17,0.2993,-0.5512,0.0375,-0.7779,-0.4,0.4,1.1,0.01,-0.002,0,1023
2018,5,1,22,40,21.189,0.2993,-0.5512,0.0374,-0.7778,-0.4,0.7,1.2,0.011,-0.002,-0.003,1023
2018,5,1,22,40,21.227,0.2991,-0.5514,0.0373,-0.7778,-0.7,0.7,1.1,0.011,-0.008,0,1023
2018,5,1,22,40,21.248,0.2992,-0.5515,0.0373,-0.7777,-0.5,0.4,0.8,0.018,-0.011,-0.001,1023
2018,5,1,22,40,21.252,0.2993,-0.5515,0.0373,-0.7776,-0.4,0.3,0.5,0.02,-0.008,0.004,1023
2018,5,1,22,40,21.272,0.2993,-0.5515,0.0374,-0.7776,-0.4,-0.1,0.7,0.015,-0.008,0.003,1023
2018,5,1,22,40,21.293,0.2993,-0.5515,0.0373,-0.7777,-0.5,-0.3,1.1,0.007,-0.009,0.002,1023
2018,5,1,22,40,21.311,0.2993,-0.5514,0.0374,-0.7777,-0.6,-0.2,1.1,0.009,-0.01,0.002,1023
2018,5,1,22,40,21.334,0.2993,-0.5514,0.0373,-0.7777,-0.2,0.1,1.3,0.011,-0.011,0,1023
2018,5,1,22,40,21.352,0.2993,-0.5514,0.0372,-0.7777,0,0.1,1.6,0.017,-0.007,0.003,1023
2018,5,1,22,40,21.393,0.2991,-0.5514,0.037,-0.7778,0.1,0.4,1.5,0.021,-0.004,0.006,0
2018,5,1,22,40,21.413,0.2991,-0.5514,0.0369,-0.7778,0.1,0.8,1.4,0.016,-0.003,0.001,0
2018,5,1,22,40,21.417,0.2992,-0.5514,0.0367,-0.7778,-0.1,0.9,1.3,0.018,-0.004,0.003,0
2018,5,1,22,40,21.431,0.2992,-0.5516,0.0366,-0.7777,0,1.2,1,0.018,-0.007,-0.001,0
2018,5,1,22,40,21.468,0.2992,-0.5517,0.0365,-0.7776,0.1,1.2,1,0.008,0.001,0.001,0
2018,5,1,22,40,21.487,0.2991,-0.5518,0.0362,-0.7775,-0.2,1.1,0.9,0.011,-0.001,0.002,0
2018,5,1,22,40,21.492,0.299,-0.552,0.0361,-0.7775,-0.7,0.8,0.8,0.012,-0.002,-0.004,0
2018,5,1,22,40,21.532,0.299,-0.5521,0.0361,-0.7774,-1.1,0.5,0.7,0.014,-0.005,-0.001,0
2018,5,1,22,40,21.552,0.2992,-0.5521,0.0363,-0.7773,-0.9,0.1,0.2,0.016,-0.006,0.004,0
2018,5,1,22,40,21.556,0.299,-0.5521,0.0363,-0.7773,-1.1,0,0.3,0.017,-0.008,0.005,0
2018,5,1,22,40,21.574,0.299,-0.5522,0.0365,-0.7773,-1,0,0.5,0.013,-0.008,0.002,0
2018,5,1,22,40,21.595,0.299,-0.5522,0.0366,-0.7773,-0.7,0.1,0.8,0.013,-0.01,-0.005,0
2018,5,1,22,40,21.634,0.2988,-0.5524,0.0365,-0.7773,-0.4,0.6,1.1,0.016,-0.012,0.001,0
2018,5,1,22,40,21.638,0.2989,-0.5524,0.0365,-0.7772,-0.2,0.6,1,0.019,-0.003,0.001,0
2018,5,1,22,40,21.654,0.2989,-0.5525,0.0364,-0.7771,-0.4,0.9,1.2,0.017,-0.007,0.004,0
2018,5,1,22,40,21.673,0.299,-0.5526,0.0364,-0.777,-0.2,0.9,1.2,0.015,-0.009,0,0
2018,5,1,22,40,21.693,0.2991,-0.5526,0.0364,-0.7769,-0.1,0.8,1.1,0.013,-0.006,0,0
2018,5,1,22,40,21.731,0.299,-0.5528,0.0362,-0.7769,0,0.8,0.9,0.012,-0.006,0,0
2018,5,1,22,40,21.751,0.2991,-0.5528,0.0361,-0.7768,0.1,0.6,0.9,0.008,-0.005,-0.004,0
2018,5,1,22,40,21.755,0.2991,-0.5529,0.036,-0.7768,-0.1,0.1,0.8,0.009,-0.007,-0.002,0
2018,5,1,22,40,21.776,0.2993,-0.5529,0.036,-0.7767,-0.3,0,0.9,0.012,-0.002,0.002,0
2018,5,1,22,40,21.795,0.2994,-0.5528,0.036,-0.7767,-0.5,-0.2,0.7,0.012,-0.008,0.002,0
2018,5,1,22,40,21.817,0.2993,-0.5528,0.0361,-0.7767,-0.6,-0.3,0.5,0.015,-0.01,0.003,0
2018,5,1,22,40,21.837,0.2994,-0.5528,0.0361,-0.7767,-0.5,-0.4,0.5,0.016,-0.004,0.002,0
2018,5,1,22,40,21.853,0.2994,-0.5527,0.0362,-0.7768,-0.6,-0.4,0.5,0.015,-0.005,0.001,0
2018,5,1,22,40,21.893,0.2993,-0.5526,0.0362,-0.7769,-0.9,-0.4,0.7,0.017,-0.004,0.004,0
2018,5,1,22,40,21.897,0.2995,-0.5525,0.0364,-0.7769,-0.7,-0.6,0.6,0.017,-0.008,0,0
2018,5,1,22,40,21.915,0.2995,-0.5525,0.0364,-0.7769,-0.6,-0.3,1,0.012,-0.003,0.001,0
2018,5,1,22,40,21.934,0.2993,-0.5525,0.0364,-0.777,-0.8,0,1,0.011,-0.007,0.003,0
2018,5,1,22,40,21.956,0.2992,-0.5525,0.0364,-0.777,-0.5,0.1,1,0.014,-0.01,0,1023
2018,5,1,22,40,21.974,0.2993,-0.5525,0.0364,-0.777,-0.2,0,0.8,0.017,-0.011,-0.001,1023
2018,5,1,22,40,21.997,0.2992,-0.5525,0.0364,-0.777,-0.5,-0.3,0.5,0.017,-0.005,-0.001,1023
2018,5,1,22,40,22.017,0.2992,-0.5525,0.0365,-0.777,-0.6,-0.6,0.6,0.013,-0.008,0.003,1023
2018,5,1,22,40,22.034,0.2993,-0.5523,0.0366,-0.7771,-0.4,-0.7,0.8,0.01,-0.008,-0.002,1023
2018,5,1,22,40,22.075,0.2992,-0.5523,0.0366,-0.7771,-0.6,-0.9,1,0.01,-0.006,-0.004,1023
2018,5,1,22,40,22.095,0.2994,-0.5522,0.0367,-0.7771,-0.4,-0.2,1.2,0.015,-0.005,-0.002,1023
2018,5,1,22,40,22.099,0.2995,-0.5521,0.0367,-0.7772,0,-0.3,1.3,0.016,-0.003,0.002,1023
2018,5,1,22,40,22.115,0.2994,-0.552,0.0365,-0.7773,0,-0.1,1.3,0.017,-0.007,0.002,1023
2018,5,1,22,40,22.135,0.2993,-0.5519,0.0364,-0.7773,0,-0.1,1.1,0.016,-0.005,0.002,1023
2018,5,1,22,40,22.173,0.2993,-0.5519,0.0363,-0.7774,0,0,1,0.015,-0.004,0.005,0
2018,5,1,22,40,22.193,0.2994,-0.5519,0.0363,-0.7774,0,0.2,0.8,0.012,-0.01,0,0
2018,5,1,22,40,22.197,0.2996,-0.5519,0.0362,-0.7773,0,0.3,0.8,0.01,-0.001,0.001,0
2018,5,1,22,40,22.237,0.2996,-0.5519,0.0361,-0.7773,-0.1,0.2,0.9,0.012,-0.001,0,0
2018,5,1,22,40,22.256,0.2994,-0.552,0.036,-0.7773,-0.8,0,0.8,0.013,0,-0.001,0
2018,5,1,22,40,22.26,0.2994,-0.552,0.0361,-0.7773,-1.1,-0.1,0.7,0.018,-0.006,-0.001,0
2018,5,1,22,40,22.279,0.2995,-0.5519,0.0363,-0.7773,-1,-0.5,0.2,0.017,-0.009,0,0
2018,5,1,22,40,22.315,0.2996,-0.5518,0.0365,-0.7773,-0.9,-0.5,0.3,0.013,-0.008,0.003,0
2018,5,1,22,40,22.335,0.2995,-0.5518,0.0366,-0.7774,-1.2,-0.5,0.6,0.013,-0.007,0,0
2018,5,1,22,40,22.339,0.2994,-0.5518,0.0367,-0.7774,-0.9,-0.2,0.7,0.011,-0.011,-0.001,0
2018,5,1,22,40,22.357,0.2994,-0.5518,0.0368,-0.7774,-0.3,0,0.8,0.015,-0.011,0,0
2018,5,1,22,40,22.377,0.2996,-0.5517,0.0368,-0.7774,-0.2,0.1,1.1,0.018,-0.007,0,0
2018,5,1,22,40,22.398,0.2996,-0.5517,0.0368,-0.7774,-0.2,0.4,1,0.017,-0.006,0.003,0
2018,5,1,22,40,22.417,0.2995,-0.5517,0.0368,-0.7774,-0.3,0.2,1.1,0.017,-0.006,0,0
2018,5,1,22,40,22.456,0.2995,-0.5518,0.0367,-0.7774,-0.3,0,1.1,0.014,-0.007,-0.003,0
2018,5,1,22,40,22.476,0.2995,-0.5518,0.0367,-0.7774,-0.1,0.1,1,0.01,-0.006,0,0
2018,5,1,22,40,22.48,0.2995,-0.5518,0.0366,-0.7774,-0.2,0,0.8,0.008,-0.004,-0.001,0
2018,5,1,22,40,22.5,0.2996,-0.5517,0.0366,-0.7774,-0.2,0,0.9,0.01,-0.007,-0.006,0
2018,5,1,22,40,22.52,0.2997,-0.5517,0.0366,-0.7774,-0.4,-0.3,0.8,0.012,-0.003,0.002,0
2018,5,1,22,40,22.559,0.2996,-0.5517,0.0366,-0.7774,-0.6,-0.7,0.6,0.014,-0.005,0,0
2018,5,1,22,40,22.563,0.2997,-0.5515,0.0367,-0.7775,-0.9,-0.7,0.7,0.017,-0.006,0.009,0
2018,5,1,22,40,22.58,0.2996,-0.5515,0.0368,-0.7776,-0.7,-0.7,0.5,0.015,-0.006,-0.002,0
2018,5,1,22,40,22.598,0.2996,-0.5514,0.0369,-0.7776,-0.7,-0.6,0.5,0.014,-0.005,0.002,0
2018,5,1,22,40,22.621,0.2996,-0.5513,0.037,-0.7777,-0.7,-0.6,0.5,0.015,-0.007,0.002,0
2018,5,1,22,40,22.64,0.2996,-0.5512,0.0371,-0.7777,-0.8,-0.5,0.5,0.015,-0.009,-0.001,0
2018,5,1,22,40,22.659,0.2996,-0.5511,0.0372,-0.7778,-0.7,-0.2,0.7,0.015,-0.004,0.003,0
2018,5,1,22,40,22.698,0.2996,-0.5511,0.0373,-0.7778,-0.8,0,0.8,0.012,-0.004,0.002,0
2018,5,1,22,40,22.719,0.2993,-0.5512,0.0372,-0.7779,-1,0,1.1,0.011,-0.007,0,0
2018,5,1,22,40,22.723,0.2994,-0.5511,0.0373,-0.7778,-0.6,0,0.8,0.012,-0.013,0.002,0
2018,5,1,22,40,22.742,0.2996,-0.5511,0.0374,-0.7778,-0.6,-0.1,0.7,0.017,-0.006,0.005,1023
2018,5,1,22,40,22.763,0.2998,-0.551,0.0375,-0.7778,-0.6,-0.6,0.6,0.016,-0.007,-0.005,1023
2018,5,1,22,40,22.779,0.2998,-0.5509,0.0376,-0.7779,-0.6,-0.7,0.7,0.012,-0.007,0,1023
2018,5,1,22,40,22.816,0.2997,-0.5508,0.0376,-0.7779,-0.5,-0.9,0.8,0.011,-0.013,0,1023
2018,5,1,22,40,22.836,0.2995,-0.5508,0.0376,-0.778,-0.4,-0.9,1,0.013,-0.008,0.001,1023
2018,5,1,22,40,22.84,0.2996,-0.5507,0.0377,-0.7781,-0.3,-0.6,1.2,0.014,-0.006,0.006,1023
2018,5,1,22,40,22.878,0.2994,-0.5506,0.0376,-0.7782,0,-0.3,1.5,0.013,-0.011,0.004,1023
2018,5,1,22,40,22.897,0.2994,-0.5505,0.0375,-0.7783,0,0,1.3,0.019,-0.006,0.003,1023
2018,5,1,22,40,22.901,0.2992,-0.5505,0.0373,-0.7784,0.1,0.3,1.1,0.017,-0.008,0.001,1023
2018,5,1,22,40,22.922,0.299,-0.5506,0.0371,-0.7784,0,0.3,1.1,0.016,-0.006,0.004,1023
2018,5,1,22,40,22.941,0.2991,-0.5505,0.037,-0.7784,0,0.4,0.8,0.014,-0.001,0.001,0
2018,5,1,22,40,22.98,0.2994,-0.5505,0.037,-0.7783,-0.2,0,0.9,0.012,0,0,0
2018,5,1,22,40,23.001,0.2993,-0.5505,0.0369,-0.7784,-0.4,0.1,0.8,0.013,0,0.003,0
2018,5,1,22,40,23.005,0.2993,-0.5505,0.037,-0.7784,-1,-0.1,0.5,0.013,-0.006,0,0
2018,5,1,22,40,23.043,0.2991,-0.5506,0.0371,-0.7784,-1,-0.4,0.4,0.015,-0.01,0,0
2018,5,1,22,40,23.047,0.2993,-0.5505,0.0373,-0.7784,-0.9,-0.6,0.2,0.014,-0.004,0.003,0
2018,5,1,22,40,23.063,0.2992,-0.5504,0.0374,-0.7784,-1.2,-0.7,0.3,0.013,-0.006,0,0
2018,5,1,22,40,23.084,0.2992,-0.5504,0.0376,-0.7785,-1,-0.2,0.6,0.012,-0.013,-0.003,0
2018,5,1,22,40,23.102,0.2992,-0.5504,0.0377,-0.7785,-0.7,-0.1,0.6,0.014,-0.007,0.003,0
2018,5,1,22,40,23.124,0.2992,-0.5504,0.0377,-0.7785,-0.4,0,0.8,0.016,-0.008,0.001,0
2018,5,1,22,40,23.142,0.299,-0.5504,0.0377,-0.7785,-0.5,0.4,0.9,0.02,-0.01,0,0
2018,5,1,22,40,23.163,0.2991,-0.5504,0.0377,-0.7785,-0.3,0.3,1.1,0.018,-0.007,0.006,0
2018,5,1,22,40,23.184,0.2991,-0.5505,0.0376,-0.7784,-0.3,0.4,1,0.016,-0.008,0.001,0
2018,5,1,22,40,23.205,0.299,-0.5505,0.0376,-0.7784,-0.2,0.3,0.9,0.011,-0.006,-0.003,0
2018,5,1,22,40,23.223,0.2992,-0.5505,0.0376,-0.7784,0,0.3,1,0.01,-0.003,-0.003,0
2018,5,1,22,40,23.262,0.2992,-0.5505,0.0375,-0.7783,-0.2,0.1,0.8,0.013,-0.007,-0.001,0
2018,5,1,22,40,23.266,0.2994,-0.5504,0.0375,-0.7783,-0.4,-0.1,1,0.013,-0.003,-0.001,0
2018,5,1,22,40,23.283,0.2995,-0.5504,0.0375,-0.7783,-0.5,-0.4,0.8,0.008,-0.006,0,0
2018,5,1,22,40,23.302,0.2998,-0.5502,0.0377,-0.7783,-0.3,-0.4,0.6,0.016,-0.005,0,0
2018,5,1,22,40,23.322,0.2998,-0.5501,0.0377,-0.7784,-0.7,-0.4,0.6,0.015,-0.006,0.002,0
2018,5,1,22,40,23.364,0.2998,-0.55,0.0379,-0.7785,-0.8,-0.4,0.7,0.015,-0.007,0.004,0
2018,5,1,22,40,23.384,0.2997,-0.55,0.0379,-0.7785,-0.6,-0.3,0.5,0.013,-0.007,-0.002,0
2018,5,1,22,40,23.388,0.2997,-0.55,0.038,-0.7785,-0.6,-0.1,0.7,0.014,-0.007,0.001,0
2018,5,1,22,40,23.407,0.2997,-0.55,0.038,-0.7785,-0.5,0,0.5,0.014,-0.003,0,0
2018,5,1,22,40,23.426,0.2997,-0.55,0.038,-0.7785,-0.4,0,0.8,0.016,-0.004,0.002,0
2018,5,1,22,40,23.465,0.2999,-0.5499,0.0381,-0.7785,-0.6,0,1,0.013,-0.007,-0.002,0
2018,5,1,22,40,23.469,0.2999,-0.5499,0.0381,-0.7785,-0.7,0.2,0.9,0.012,-0.006,0.004,0
2018,5,1,22,40,23.488,0.2999,-0.55,0.0382,-0.7784,-0.5,0.3,1,0.009,-0.006,0,0
2018,5,1,22,40,23.504,0.2998,-0.5501,0.0381,-0.7784,-0.5,0.1,0.7,0.014,-0.007,0,1023
2018,5,1,22,40,23.523,0.2997,-0.5501,0.0381,-0.7784,-0.2,0,0.5,0.014,-0.003,0,1023
2018,5,1,22,40,23.561,0.2998,-0.55,0.0382,-0.7784,-0.7,-0.4,0.5,0.016,-0.007,0,1023
2018,5,1,22,40,23.582,0.2998,-0.5499,0.0383,-0.7785,-1,-0.6,0.5,0.011,-0.006,-0.001,1023
2018,5,1,22,40,23.586,0.2999,-0.5499,0.0385,-0.7785,-1,-0.8,0.5,0.013,-0.009,-0.001,1023
2018,5,1,22,40,23.604,0.3,-0.5498,0.0387,-0.7785,-0.9,-0.7,0.8,0.013,-0.005,0,1023
2018,5,1,22,40,23.625,0.2999,-0.5497,0.0387,-0.7786,-0.7,-0.4,1,0.013,-0.008,0.005,1023
2018,5,1,22,40,23.663,0.2999,-0.5496,0.0387,-0.7787,-0.2,-0.2,1.1,0.014,-0.007,0.004,1023
2018,5,1,22,40,23.684,0.2999,-0.5495,0.0387,-0.7787,0,-0.2,1.1,0.017,-0.005,0,1023
2018,5,1,22,40,23.688,0.2999,-0.5495,0.0386,-0.7788,-0.1,-0.3,1,0.014,-0.006,-0.001,1023
2018,5,1,22,40,23.709,0.2998,-0.5494,0.0386,-0.7788,-0.2,-0.5,1,0.011,-0.007,-0.005,0
2018,5,1,22,40,23.729,0.2997,-0.5494,0.0385,-0.7789,-0.5,-0.9,1,0.008,-0.002,-0.005,0
2018,5,1,22,40,23.745,0.2997,-0.5492,0.0385,-0.779,-0.5,-1.2,1,0.01,-0.003,-0.004,0
2018,5,1,22,40,23.781,0.2997,-0.5491,0.0386,-0.7791,-0.9,-1.3,1,0.009,-0.005,0,0
2018,5,1,22,40,23.802,0.2998,-0.5489,0.0388,-0.7792,-1.4,-1.4,0.6,0.013,-0.009,0.002,0
2018,5,1,22,40,23.806,0.2998,-0.5487,0.0391,-0.7793,-1.3,-1.6,0.2,0.015,-0.006,0.003,0
2018,5,1,22,40,23.843,0.2997,-0.5485,0.0394,-0.7795,-1,-1.5,0.1,0.016,-0.008,0.003,0
2018,5,1,22,40,23.863,0.2997,-0.5483,0.0396,-0.7796,-0.9,-1.3,0,0.017,-0.007,0.008,0
2018,5,1,22,40,23.867,0.2997,-0.5482,0.0398,-0.7797,-1,-1,0.5,0.017,-0.011,0.01,0
2018,5,1,22,40,23.906,0.2996,-0.5481,0.0399,-0.7798,-1,-0.7,0.8,0.015,-0.006,0.005,0
2018,5,1,22,40,23.925,0.2996,-0.548,0.04,-0.7799,-0.6,0.1,1,0.015,-0.012,0,0
2018,5,1,22,40,23.929,0.2996,-0.548,0.04,-0.7798,-0.6,0.5,1.3,0.017,-0.009,0,0
2018,5,1,22,40,23.95,0.2995,-0.5481,0.0399,-0.7798,-0.2,1.2,1.3,0.021,-0.008,0.006,0
2018,5,1,22,40,23.97,0.2995,-0.5482,0.0398,-0.7797,-0.1,1.7,1.4,0.02,-0.008,0.001,0
2018,5,1,22,40,23.986,0.2993,-0.5485,0.0395,-0.7797,0,1.4,1.1,0.018,-0.004,0.006,0
2018,5,1,22,40,24.006,0.2994,-0.5486,0.0394,-0.7795,0,1.4,1.1,0.013,-0.007,-0.003,0
2018,5,1,22,40,24.043,0.2995,-0.5488,0.0393,-0.7794,0,1.3,1,0.011,-0.006,0,0
2018,5,1,22,40,24.063,0.2996,-0.5489,0.0391,-0.7792,0.1,1,1.1,0.007,-0.005,0,0
2018,5,1,22,40,24.067,0.2997,-0.549,0.039,-0.7791,0,0.7,1.1,0.005,-0.002,-0.004,0
2018,5,1,22,40,24.107,0.2998,-0.5491,0.0389,-0.7791,-0.1,0.4,1,0.012,0,-0.003,0
2018,5,1,22,40,24.128,0.2997,-0.5491,0.0388,-0.7791,-0.6,0.3,1.2,0.015,-0.003,0.002,0
2018,5,1,22,40,24.132,0.2996,-0.5492,0.0387,-0.7791,-0.7,0,1.2,0.016,-0.006,0.002,0
2018,5,1,22,40,24.152,0.2996,-0.5492,0.0388,-0.7791,-0.6,0,1,0.016,-0.009,-0.003,0
2018,5,1,22,40,24.173,0.2994,-0.5492,0.0387,-0.7791,-0.4,0.3,0.7,0.013,-0.007,-0.002,0
2018,5,1,22,40,24.189,0.2995,-0.5493,0.0388,-0.7791,-0.7,0.2,0.7,0.015,-0.002,0.001,0
2018,5,1,22,40,24.209,0.2993,-0.5494,0.0388,-0.7791,-0.7,0.4,0.6,0.017,-0.009,0,0
2018,5,1,22,40,24.229,0.2992,-0.5494,0.0388,-0.7791,-0.4,0.3,0.5,0.012,-0.004,-0.001,0
2018,5,1,22,40,24.25,0.2993,-0.5494,0.0388,-0.779,-0.6,0,0.6,0.01,0,0,0
2018,5,1,22,40,24.27,0.2993,-0.5495,0.0388,-0.779,-1,0.1,0.8,0.007,-0.002,0.001,1023
2018,5,1,22,40,24.309,0.2993,-0.5495,0.0389,-0.779,-1,-0.3,0.7,0.009,-0.012,0,1023
2018,5,1,22,40,24.328,0.2993,-0.5494,0.039,-0.779,-0.6,-0.6,0.5,0.013,-0.01,0,1023
2018,5,1,22,40,24.332,0.2995,-0.5493,0.0392,-0.779,-0.9,-1.2,0.4,0.016,-0.009,-0.004,1023
2018,5,1,22,40,24.369,0.2997,-0.5491,0.0395,-0.7791,-0.8,-1.3,0.7,0.018,-0.011,0,1023
2018,5,1,22,40,24.391,0.2998,-0.5489,0.0397,-0.7792,-0.9,-1.3,1,0.012,-0.011,0,1023
2018,5,1,22,40,24.395,0.2997,-0.5487,0.0399,-0.7793,-0.7,-1.5,1.1,0.015,-0.011,0.001,1023
2018,5,1,22,40,24.415,0.2996,-0.5486,0.0399,-0.7795,-0.1,-0.9,1.4,0.016,-0.007,0.002,1023
2018,5,1,22,40,24.436,0.2996,-0.5484,0.0397,-0.7796,0.1,-0.2,1.7,0.014,-0.007,0.004,1023
2018,5,1,22,40,24.45,0.2996,-0.5483,0.0396,-0.7797,0.3,0,1.7,0.019,-0.006,-0.001,0
2018,5,1,22,40,24.47,0.2995,-0.5483,0.0393,-0.7797,0.3,0.5,1.5,0.018,-0.005,0.005,0
2018,5,1,22,40,24.49,0.2996,-0.5483,0.0392,-0.7797,0.3,0.5,1.5,0.015,-0.004,0,0
2018,5,1,22,40,24.529,0.2996,-0.5483,0.039,-0.7797,0.2,0.8,1.1,0.013,-0.003,-0.001,0
2018,5,1,22,40,24.549,0.2996,-0.5483,0.0388,-0.7797,0,0.8,1,0.014,0.002,0.003,0
2018,5,1,22,40,24.554,0.2997,-0.5483,0.0387,-0.7796,-0.5,0.5,0.8,0.01,-0.002,0,0
2018,5,1,22,40,24.572,0.2997,-0.5484,0.0387,-0.7796,-0.9,0.3,0.6,0.01,-0.001,0,0
2018,5,1,22,40,24.59,0.2997,-0.5484,0.0388,-0.7796,-1.2,0,0.3,0.013,-0.008,0,0
2018,5,1,22,40,24.631,0.2996,-0.5485,0.0389,-0.7796,-1.3,-0.3,0,0.01,-0.003,-0.001,0
2018,5,1,22,40,24.651,0.2996,-0.5485,0.0391,-0.7796,-1.4,-0.2,0.2,0.014,-0.006,0.003,0
2018,5,1,22,40,24.655,0.2997,-0.5484,0.0394,-0.7795,-1.3,-0.1,0.4,0.015,-0.009,-0.002,0
2018,5,1,22,40,24.671,0.2996,-0.5485,0.0394,-0.7795,-0.9,0.4,0.7,0.014,-0.007,0.008,0
2018,5,1,22,40,24.691,0.2994,-0.5486,0.0395,-0.7795,-0.7,0.5,0.8,0.016,-0.008,0.002,0
2018,5,1,22,40,24.716,0.2994,-0.5487,0.0395,-0.7794,-0.4,0.9,0.9,0.017,-0.012,0.003,0
2018,5,1,22,40,24.728,0.2996,-0.5488,0.0394,-0.7793,-0.1,1.2,1.1,0.016,-0.008,0.001,0
2018,5,1,22,40,24.768,0.2997,-0.5489,0.0394,-0.7792,0,1.3,1.1,0.015,-0.007,0,0
2018,5,1,22,40,24.792,0.3,-0.549,0.0393,-0.779,0.2,1.3,1.1,0.011,-0.009,0,0
2018,5,1,22,40,24.796,0.3001,-0.5492,0.0392,-0.7789,0,1.2,1.3,0.014,-0.008,0,0
2018,5,1,22,40,24.813,0.3,-0.5493,0.0389,-0.7788,0.1,0.8,1.3,0.011,-0.005,0,0
2018,5,1,22,40,24.852,0.2999,-0.5495,0.0387,-0.7788,0,0.4,1.1,0.011,-0.008,0,0
2018,5,1,22,40,24.871,0.2995,-0.5496,0.0385,-0.7788,-0.3,0.2,1.1,0.012,-0.008,0,0
2018,5,1,22,40,24.875,0.2996,-0.5496,0.0384,-0.7788,-0.2,0,1,0.013,-0.006,0,0
2018,5,1,22,40,24.892,0.2993,-0.5496,0.0383,-0.7789,-0.6,0.1,1.1,0.018,-0.003,0,0
2018,5,1,22,40,24.913,0.2993,-0.5496,0.0383,-0.7789,-0.4,0.1,1.1,0.017,-0.006,0.001,0
2018,5,1,22,40,24.935,0.2993,-0.5496,0.0383,-0.7789,-0.4,0.3,1,0.018,-0.004,0.005,0
2018,5,1,22,40,24.955,0.2992,-0.5497,0.0382,-0.7789,-0.2,0.6,1,0.015,-0.006,-0.001,0
2018,5,1,22,40,24.994,0.2993,-0.5497,0.0382,-0.7788,-0.3,0.6,1,0.017,-0.005,0.001,0
2018,5,1,22,40,24.998,0.2994,-0.5498,0.0381,-0.7788,-0.1,0.9,1.2,0.014,-0.006,-0.001,0
2018,5,1,22,40,25.015,0.2994,-0.5499,0.038,-0.7787,-0.2,1.1,1.2,0.011,-0.003,0,1023
2018,5,1,22,40,25.051,0.2995,-0.5501,0.0379,-0.7786,-0.4,1.2,1.3,0.01,-0.001,0,1023
2018,5,1,22,40,25.072,0.2994,-0.5502,0.0378,-0.7785,-0.5,1,1.3,0.012,-0.004,0.001,1023
2018,5,1,22,40,25.076,0.2994,-0.5504,0.0377,-0.7784,-0.4,0.9,1.1,0.013,-0.012,-0.001,1023
2018,5,1,22,40,25.098,0.2994,-0.5505,0.0377,-0.7783,-0.4,0.4,0.7,0.016,-0.009,-0.005,1023
2018,5,1,22,40,25.116,0.2995,-0.5505,0.0378,-0.7782,-0.7,0,0.7,0.017,-0.007,-0.003,1023
2018,5,1,22,40,25.136,0.2995,-0.5505,0.0378,-0.7782,-0.5,-0.4,0.9,0.013,-0.007,-0.003,1023
2018,5,1,22,40,25.154,0.2995,-0.5505,0.0379,-0.7782,-0.7,-0.4,1.1,0.012,-0.009,-0.003,1023
2018,5,1,22,40,25.176,0.2994,-0.5504,0.0379,-0.7783,-0.3,-0.2,1.3,0.013,-0.009,0.003,1023
2018,5,1,22,40,25.196,0.2995,-0.5504,0.0378,-0.7783,-0.1,0.1,1.4,0.016,-0.006,0.004,0
2018,5,1,22,40,25.217,0.2995,-0.5503,0.0377,-0.7784,0,0.5,1.7,0.016,-0.006,0.002,0
2018,5,1,22,40,25.236,0.2995,-0.5503,0.0375,-0.7784,0.3,0.9,1.5,0.019,-0.005,0.005,0
2018,5,1,22,40,25.276,0.2995,-0.5504,0.0374,-0.7783,0,1.2,1.5,0.016,-0.007,0.003,0
2018,5,1,22,40,25.295,0.2995,-0.5506,0.0371,-0.7782,0.1,1.7,1.3,0.016,-0.004,-0.001,0
2018,5,1,22,40,25.299,0.2996,-0.5507,0.0369,-0.7781,0.2,1.8,1.1,0.015,-0.002,0.001,0
2018,5,1,22,40,25.319,0.2996,-0.5509,0.0366,-0.778,0,1.8,1.1,0.014,-0.001,0.002,0
2018,5,1,22,40,25.339,0.2994,-0.5512,0.0364,-0.7779,-0.2,1.7,1.1,0.014,-0.001,-0.004,0
2018,5,1,22,40,25.357,0.2993,-0.5514,0.0362,-0.7777,-0.8,1.4,0.9,0.014,-0.004,0.001,0
2018,5,1,22,40,25.376,0.2992,-0.5516,0.0362,-0.7776,-0.7,0.9,0.8,0.009,-0.008,0,0
2018,5,1,22,40,25.395,0.2994,-0.5517,0.0363,-0.7775,-0.7,0.4,0.6,0.012,-0.006,0,0
2018,5,1,22,40,25.434,0.2994,-0.5517,0.0364,-0.7775,-0.8,0.4,1,0.011,-0.009,0.001,0
2018,5,1,22,40,25.439,0.2993,-0.5518,0.0364,-0.7774,-0.7,0.4,1,0.014,-0.007,0,0
2018,5,1,22,40,25.456,0.2992,-0.5519,0.0364,-0.7774,-0.6,0.3,1.1,0.012,-0.007,0.001,0
2018,5,1,22,40,25.496,0.2992,-0.552,0.0363,-0.7774,-0.5,0.6,1,0.017,-0.008,0.001,0
2018,5,1,22,40,25.516,0.2992,-0.552,0.0363,-0.7773,-0.5,0.7,1.2,0.015,-0.006,0.004,0
2018,5,1,22,40,25.52,0.2993,-0.5521,0.0363,-0.7772,-0.3,0.7,1.1,0.015,-0.008,0,0
2018,5,1,22,40,25.54,0.2993,-0.5522,0.0362,-0.7772,-0.3,0.9,1.2,0.015,-0.006,0,0
2018,5,1,22,40,25.56,0.2991,-0.5524,0.036,-0.7772,-0.1,0.9,1,0.014,-0.003,0,0
2018,5,1,22,40,25.575,0.2991,-0.5525,0.0359,-0.7771,0,0.9,1.1,0.011,-0.004,0,0
2018,5,1,22,40,25.614,0.299,-0.5526,0.0357,-0.7771,-0.1,0.4,1,0.012,-0.003,0,0
2018,5,1,22,40,25.633,0.299,-0.5526,0.0356,-0.777,-0.2,0.5,1,0.012,-0.004,0.001,0
2018,5,1,22,40,25.639,0.299,-0.5527,0.0355,-0.777,-0.1,0,0.8,0.016,-0.008,0,0
2018,5,1,22,40,25.657,0.299,-0.5527,0.0355,-0.777,-0.5,0.3,0.8,0.015,-0.006,0.001,0
2018,5,1,22,40,25.677,0.299,-0.5527,0.0355,-0.777,-0.6,0,0.8,0.016,-0.007,0,0
2018,5,1,22,40,25.715,0.2991,-0.5526,0.0356,-0.777,-0.5,0,0.6,0.014,-0.005,-0.002,0
2018,5,1,22,40,25.736,0.2993,-0.5526,0.0357,-0.7769,-0.7,0,0.7,0.015,-0.002,0,0
2018,5,1,22,40,25.74,0.2994,-0.5526,0.0358,-0.7769,-0.7,0.2,0.8,0.017,-0.009,0.003,1023
2018,5,1,22,40,25.76,0.2995,-0.5525,0.0358,-0.7769,-0.6,0,0.9,0.016,-0.009,0.002,1023
2018,5,1,22,40,25.78,0.2993,-0.5526,0.0358,-0.7769,-0.6,0.3,1.1,0.009,-0.006,0,1023
2018,5,1,22,40,25.819,0.2994,-0.5526,0.0358,-0.7769,-0.6,0.4,1.1,0.012,-0.006,0,1023
2018,5,1,22,40,25.823,0.2995,-0.5526,0.0358,-0.7768,-0.6,0.5,1.1,0.01,-0.007,0,1023
2018,5,1,22,40,25.84,0.2995,-0.5527,0.0358,-0.7767,-0.4,0.3,0.8,0.015,-0.01,-0.003,1023
2018,5,1,22,40,25.878,0.2995,-0.5528,0.0358,-0.7767,-0.5,0.1,0.7,0.019,-0.01,0,1023
2018,5,1,22,40,25.897,0.2995,-0.5528,0.0358,-0.7767,-0.5,-0.3,0.7,0.014,-0.007,0.003,1023
2018,5,1,22,40,25.901,0.2993,-0.5527,0.0358,-0.7768,-0.4,-0.5,0.7,0.01,-0.008,0.003,1023
2018,5,1,22,40,25.92,0.2994,-0.5526,0.0359,-0.7768,-0.5,-0.4,1,0.011,-0.005,-0.001,1023
2018,5,1,22,40,25.941,0.2996,-0.5525,0.0359,-0.7769,-0.2,-0.3,1.3,0.014,-0.008,-0.001,0
2018,5,1,22,40,25.961,0.2994,-0.5525,0.0358,-0.7769,-0.1,-0.2,1.4,0.013,-0.008,0.006,0
2018,5,1,22,40,25.984,0.2996,-0.5524,0.0358,-0.777,-0.1,0.1,1.3,0.02,-0.004,0.001,0
2018,5,1,22,40,26.004,0.2996,-0.5524,0.0357,-0.777,-0.1,0.4,1.1,0.018,-0.009,0,0
2018,5,1,22,40,26.023,0.2995,-0.5524,0.0356,-0.777,-0.1,0.4,1,0.019,-0.004,0.002,0
2018,5,1,22,40,26.059,0.2997,-0.5524,0.0356,-0.7769,0,0.8,0.8,0.012,-0.008,0.001,0
2018,5,1,22,40,26.079,0.2997,-0.5525,0.0354,-0.7769,0,0.7,0.8,0.008,-0.003,0,0
2018,5,1,22,40,26.083,0.2996,-0.5526,0.0353,-0.7768,-0.1,0.5,0.8,0.012,-0.003,-0.001,0
2018,5,1,22,40,26.102,0.2996,-0.5526,0.0352,-0.7768,-0.6,0.1,0.8,0.01,-0.002,0.001,0
2018,5,1,22,40,26.123,0.2997,-0.5526,0.0353,-0.7768,-1.2,-0.3,0.8,0.015,-0.008,-0.003,0
2018,5,1,22,40,26.159,0.2995,-0.5526,0.0354,-0.7768,-0.9,-0.4,0.4,0.011,-0.008,0,0
2018,5,1,22,40,26.179,0.2996,-0.5526,0.0356,-0.7769,-1,-0.8,0.2,0.016,-0.009,0.004,0
2018,5,1,22,40,26.183,0.2997,-0.5525,0.0358,-0.7769,-1.1,-0.6,0.3,0.011,-0.007,-0.003,0
2018,5,1,22,40,26.222,0.2996,-0.5524,0.0359,-0.7769,-0.9,-0.4,0.7,0.019,-0.01,-0.005,0
2018,5,1,22,40,26.242,0.2996,-0.5524,0.036,-0.7769,-0.6,-0.1,1,0.012,-0.008,0.003,0
2018,5,1,22,40,26.246,0.2997,-0.5524,0.036,-0.7769,-0.4,0.1,0.8,0.016,-0.006,0.006,0
2018,5,1,22,40,26.264,0.2997,-0.5523,0.036,-0.7769,-0.2,0.2,1.1,0.015,-0.003,0.003,0
2018,5,1,22,40,26.282,0.2996,-0.5524,0.0359,-0.7769,0,0.2,1.1,0.016,-0.007,0.004,0
2018,5,1,22,40,26.301,0.2997,-0.5524,0.0358,-0.7769,-0.2,0.3,1.3,0.013,-0.005,0.001,0
2018,5,1,22,40,26.338,0.2997,-0.5524,0.0358,-0.7769,-0.1,0.3,1,0.013,-0.006,0,0
2018,5,1,22,40,26.36,0.2996,-0.5525,0.0356,-0.7769,-0.1,0,1,0.01,-0.005,-0.005,0
2018,5,1,22,40,26.364,0.2995,-0.5525,0.0355,-0.7769,-0.2,0,0.8,0.012,-0.003,-0.004,0
2018,5,1,22,40,26.383,0.2995,-0.5525,0.0355,-0.7769,-0.3,-0.2,0.8,0.015,-0.006,-0.002,0
2018,5,1,22,40,26.403,0.2994,-0.5525,0.0355,-0.7769,-0.6,-0.2,0.6,0.013,-0.005,-0.002,0
2018,5,1,22,40,26.443,0.2995,-0.5524,0.0356,-0.777,-0.8,-0.7,0.5,0.014,-0.009,-0.004,0
2018,5,1,22,40,26.462,0.2995,-0.5524,0.0357,-0.777,-0.7,-0.4,0.3,0.013,-0.006,0,0
2018,5,1,22,40,26.466,0.2995,-0.5524,0.0358,-0.777,-0.6,-0.4,0.5,0.015,-0.006,0.003,0
2018,5,1,22,40,26.487,0.2996,-0.5522,0.0359,-0.7771,-0.7,-0.7,0.4,0.014,-0.003,0.003,0
2018,5,1,22,40,26.502,0.2996,-0.5521,0.0361,-0.7771,-0.7,-0.7,0.7,0.015,-0.002,0.002,0
2018,5,1,22,40,26.524,0.2997,-0.552,0.0362,-0.7772,-0.7,-0.7,0.9,0.014,-0.002,-0.001,0
2018,5,1,22,40,26.544,0.2995,-0.552,0.0362,-0.7773,-0.9,-0.2,1.1,0.013,-0.005,0.006,0
2018,5,1,22,40,26.563,0.2995,-0.5519,0.0363,-0.7773,-0.8,0,1.1,0.013,-0.011,-0.001,0
2018,5,1,22,40,26.584,0.2997,-0.5519,0.0364,-0.7772,-0.5,0,0.7,0.015,-0.013,-0.002,1023
2018,5,1,22,40,26.623,0.2998,-0.5519,0.0364,-0.7772,-0.4,-0.2,0.5,0.018,-0.01,-0.001,1023
2018,5,1,22,40,26.644,0.2996,-0.5519,0.0364,-0.7773,-0.5,-0.6,0.5,0.012,-0.004,0,1023
2018,5,1,22,40,26.648,0.2996,-0.5518,0.0365,-0.7774,-0.6,-0.7,0.9,0.008,-0.007,-0.003,1023
2018,5,1,22,40,26.665,0.2995,-0.5517,0.0365,-0.7775,-0.6,-0.8,0.8,0.01,-0.009,0.002,1023
2018,5,1,22,40,26.687,0.2994,-0.5517,0.0365,-0.7775,-0.4,-0.4,1.1,0.014,-0.007,0.001,1023
2018,5,1,22,40,26.724,0.2993,-0.5516,0.0364,-0.7776,-0.1,-0.4,1.4,0.017,-0.008,-0.002,1023
2018,5,1,22,40,26.747,0.2993,-0.5515,0.0364,-0.7777,0,-0.2,1.4,0.014,-0.01,0.003,1023
2018,5,1,22,40,26.751,0.2993,-0.5514,0.0363,-0.7777,-0.1,-0.1,1.2,0.017,-0.008,0.005,1023
2018,5,1,22,40,26.768,0.2993,-0.5514,0.0362,-0.7778,0,0,1.1,0.018,-0.006,-0.001,1023
2018,5,1,22,40,26.787,0.2995,-0.5513,0.0362,-0.7778,-0.2,0.1,0.8,0.017,-0.005,-0.001,1023
2018,5,1,22,40,26.806,0.2997,-0.5512,0.0362,-0.7777,0,0,0.7,0.014,-0.001,0.001,1023
2018,5,1,22,40,26.843,0.3,-0.5511,0.0363,-0.7777,-0.2,0.1,0.6,0.011,-0.004,0.001,1023
2018,5,1,22,40,26.861,0.2999,-0.5511,0.0362,-0.7777,-0.6,0,0.7,0.01,0,0,1023
2018,5,1,22,40,26.866,0.2997,-0.5512,0.0362,-0.7777,-1.2,0,0.5,0.012,-0.006,-0.002,1023
2018,5,1,22,40,26.904,0.2998,-0.5512,0.0364,-0.7777,-1.2,-0.4,0.3,0.016,-0.007,-0.002,1023
2018,5,1,22,40,26.925,0.2997,-0.5512,0.0365,-0.7778,-0.9,-0.5,0.2,0.016,-0.01,0.002,1023
2018,5,1,22,40,26.929,0.2997,-0.5511,0.0366,-0.7778,-1.1,-0.4,0.3,0.013,-0.008,0,1023
2018,5,1,22,40,26.951,0.2998,-0.551,0.0368,-0.7778,-1,-0.2,0.7,0.011,-0.011,-0.001,1023
2018,5,1,22,40,26.972,0.2998,-0.551,0.0369,-0.7778,-0.7,0,0.8,0.015,-0.011,0.003,0
2018,5,1,22,40,26.991,0.2999,-0.551,0.037,-0.7778,-0.5,0.1,1.1,0.016,-0.009,0.004,0
2018,5,1,22,40,27.011,0.2998,-0.5511,0.0369,-0.7778,-0.3,0.3,1.1,0.018,-0.009,0,0
2018,5,1,22,40,27.048,0.2998,-0.5511,0.0369,-0.7778,-0.3,0.3,1.1,0.019,-0.003,0.003,0
2018,5,1,22,40,27.052,0.2999,-0.5511,0.0369,-0.7777,-0.2,0.3,1.1,0.014,-0.005,0.001,0
2018,5,1,22,40,27.068,0.2998,-0.5511,0.0368,-0.7777,-0.2,0.3,1,0.014,-0.008,-0.001,1023
2018,5,1,22,40,27.105,0.2997,-0.5512,0.0367,-0.7777,-0.2,0.1,0.8,0.011,-0.005,0,1023
2018,5,1,22,40,27.126,0.2998,-0.5512,0.0367,-0.7777,-0.2,0,0.7,0.013,-0.006,-0.002,1023
2018,5,1,22,40,27.13,0.3001,-0.5511,0.0367,-0.7777,-0.3,-0.1,0.7,0.013,-0.003,-0.002,1023
2018,5,1,22,40,27.151,0.3001,-0.551,0.0368,-0.7777,-0.6,-0.4,0.8,0.014,-0.005,0.001,1023
2018,5,1,22,40,27.171,0.3002,-0.5509,0.0369,-0.7777,-0.9,-0.4,0.5,0.013,-0.009,0,1023
2018,5,1,22,40,27.191,0.3003,-0.5508,0.037,-0.7777,-0.6,-0.6,0.7,0.014,-0.008,0,1023
2018,5,1,22,40,27.209,0.3003,-0.5508,0.0371,-0.7778,-0.6,-0.4,0.7,0.018,-0.005,0.001,1023
2018,5,1,22,40,27.231,0.3004,-0.5506,0.0372,-0.7778,-0.6,-0.5,0.8,0.016,-0.005,0.006,1023
2018,5,1,22,40,27.251,0.3002,-0.5506,0.0372,-0.7779,-0.7,-0.4,0.8,0.015,-0.011,0.001,1023
2018,5,1,22,40,27.271,0.3001,-0.5506,0.0372,-0.778,-0.7,-0.3,0.9,0.011,-0.004,0.002,1023
2018,5,1,22,40,27.292,0.3001,-0.5506,0.0373,-0.778,-0.7,0,1,0.01,-0.001,0,0
2018,5,1,22,40,27.313,0.3,-0.5506,0.0373,-0.778,-1,0,1.2,0.01,-0.01,-0.001,0
2018,5,1,22,40,27.332,0.3,-0.5506,0.0374,-0.778,-0.5,-0.1,1,0.014,-0.01,-0.001,0
2018,5,1,22,40,27.351,0.2999,-0.5506,0.0374,-0.778,-0.6,-0.2,0.7,0.015,-0.007,-0.002,0
2018,5,1,22,40,27.37,0.2997,-0.5506,0.0374,-0.7781,-0.7,-0.7,0.7,0.016,-0.005,-0.005,0
2018,5,1,22,40,27.409,0.2996,-0.5505,0.0374,-0.7782,-0.7,-1.2,0.6,0.015,-0.007,0,0
2018,5,1,22,40,27.43,0.2994,-0.5504,0.0375,-0.7784,-0.7,-1,0.7,0.014,-0.01,-0.001,0
2018,5,1,22,40,27.434,0.2994,-0.5503,0.0376,-0.7785,-0.4,-0.8,1,0.013,-0.007,0,0
2018,5,1,22,40,27.45,0.2995,-0.5501,0.0376,-0.7785,-0.1,-0.6,1.3,0.017,-0.004,0.006,0
2018,5,1,22,40,27.49,0.2995,-0.55,0.0376,-0.7786,0,-0.4,1.3,0.015,-0.004,0.005,0
2018,5,1,22,40,27.51,0.2996,-0.5498,0.0375,-0.7787,0.2,0,1.4,0.02,-0.005,0.001,0
2018,5,1,22,40,27.514,0.2997,-0.5498,0.0374,-0.7787,0,0.4,1.2,0.018,-0.006,0.001,0
2018,5,1,22,40,27.553,0.2998,-0.5498,0.0373,-0.7786,-0.1,0.3,0.9,0.016,-0.007,-0.001,0
2018,5,1,22,40,27.557,0.2998,-0.5498,0.0373,-0.7786,-0.5,-0.2,0.8,0.012,-0.004,-0.005,0
2018,5,1,22,40,27.574,0.2997,-0.5498,0.0374,-0.7787,-0.9,-1,0.8,0.006,-0.005,-0.01,0
2018,5,1,22,40,27.592,0.2997,-0.5497,0.0374,-0.7788,-0.5,-1.8,1.1,0.006,0.001,-0.009,0
2018,5,1,22,40,27.631,0.2993,-0.5495,0.0375,-0.779,-1.5,-3,1.2,0.007,-0.002,-0.007,0
2018,5,1,22,40,27.651,0.2991,-0.5492,0.0378,-0.7793,-1.6,-4.6,1.7,0.009,-0.011,-0.012,0
2018,5,1,22,40,27.655,0.2988,-0.5486,0.0381,-0.7798,-0.5,-6.5,1.8,-0.002,-0.01,-0.011,0
2018,5,1,22,40,27.675,0.2983,-0.5478,0.0384,-0.7806,-1.5,-8.6,2.6,0.002,-0.019,-0.024,0
2018,5,1,22,40,27.693,0.2977,-0.5468,0.0389,-0.7815,-2.9,-11,3.6,-0.004,0.004,-0.017,0
2018,5,1,22,40,27.734,0.2968,-0.5456,0.0395,-0.7826,-2.3,-13.4,4.5,0.007,0.01,-0.041,0
2018,5,1,22,40,27.754,0.2959,-0.544,0.04,-0.7841,-4.3,-15.4,6.3,0,0.014,-0.002,0
2018,5,1,22,40,27.758,0.2942,-0.542,0.0412,-0.786,-8.6,-19,7.5,0,0.015,-0.005,0
2018,5,1,22,40,27.776,0.292,-0.5397,0.0425,-0.7884,-10.6,-23.2,8.9,0.005,0.021,-0.013,0
2018,5,1,22,40,27.796,0.2894,-0.5369,0.0443,-0.7911,-14.4,-27.5,9.1,-0.004,0.038,0.001,0
2018,5,1,22,40,27.812,0.2862,-0.5336,0.0471,-0.7943,-19.6,-35.8,9.8,-0.065,0.028,-0.02,0
2018,5,1,22,40,27.852,0.2825,-0.5295,0.0509,-0.7982,-22,-46.6,9.9,-0.06,-0.013,-0.062,0
2018,5,1,22,40,27.856,0.2786,-0.524,0.0558,-0.8028,-21.4,-60.5,10.6,-0.094,-0.063,-0.1,0
2018,5,1,22,40,27.875,0.2748,-0.5154,0.0611,-0.8093,-19.9,-76.2,11.9,-0.109,-0.081,-0.134,0
2018,5,1,22,40,27.894,0.2705,-0.5045,0.0672,-0.8171,-22.6,-91.8,15.1,-0.069,-0.129,-0.165,0
2018,5,1,22,40,27.916,0.2654,-0.4914,0.0736,-0.8261,-20.8,-105.1,18,-0.057,-0.199,-0.203,1023
2018,5,1,22,40,27.937,0.26,-0.4767,0.0799,-0.8358,-17.7,-110.8,18.8,-0.057,-0.278,-0.214,1023
2018,5,1,22,40,27.975,0.255,-0.4614,0.0856,-0.8453,-6.1,-107,16.7,-0.042,-0.365,-0.196,1023
2018,5,1,22,40,27.996,0.253,-0.4458,0.0875,-0.8541,32.2,-95.5,10.7,0.028,-0.369,-0.106,1023
2018,5,1,22,40,28,0.2548,-0.4306,0.082,-0.8618,78.3,-74.3,8.6,0.155,-0.17,0.018,1023
2018,5,1,22,40,28.018,0.2602,-0.4172,0.0699,-0.8679,106.5,-47.7,10.6,0.25,0.024,0.208,1023
2018,5,1,22,40,28.055,0.2656,-0.407,0.0546,-0.8722,98.7,-26.5,18.4,0.319,0.227,0.326,1023
2018,5,1,22,40,28.077,0.2678,-0.4003,0.0417,-0.8753,64.9,-15.7,30,0.377,0.299,0.293,1023
2018,5,1,22,40,28.081,0.2662,-0.3956,0.0318,-0.8783,45.4,-14.5,41.7,0.327,0.199,0.175,1023
2018,5,1,22,40,28.097,0.2625,-0.392,0.0238,-0.8813,37.6,-12.5,41.7,0.121,-0.183,0.056,1023
2018,5,1,22,40,28.134,0.2613,-0.3871,0.0136,-0.8841,75.9,-17.4,29.3,-0.069,-0.323,-0.027,1023
2018,5,1,22,40,28.153,0.2639,-0.3799,-0.0005,-0.8865,96.5,-22.4,20.5,-0.273,-0.088,-0.043,1023
2018,5,1,22,40,28.157,0.2676,-0.3711,-0.015,-0.889,90.2,-31.9,17.2,-0.251,0.147,-0.001,1023
2018,5,1,22,40,28.196,0.2702,-0.3613,-0.0266,-0.892,60.3,-44.3,20.1,-0.241,0.276,0.013,0
2018,5,1,22,40,28.215,0.2692,-0.3518,-0.0311,-0.8959,15.2,-52.2,25,-0.284,0.193,-0.083,0
2018,5,1,22,40,28.219,0.2657,-0.3429,-0.0307,-0.9004,-2.5,-58.2,27.4,-0.294,0.095,-0.061,0
2018,5,1,22,40,28.26,0.2611,-0.333,-0.0279,-0.9055,-17.8,-69.2,30.3,-0.284,0.037,0.053,0
2018,5,1,22,40,28.265,0.2547,-0.3224,-0.0218,-0.9114,-42.8,-81.5,33.3,-0.454,-0.019,0.229,0
2018,5,1,22,40,28.28,0.2466,-0.3113,-0.0109,-0.9176,-64.5,-99.5,32.7,-0.514,-0.138,0.512,0
2018,5,1,22,40,28.318,0.2377,-0.2962,0.0018,-0.925,-53.7,-125.4,42.5,-0.569,-0.136,0.87,0
2018,5,1,22,40,28.339,0.2271,-0.2746,0.0113,-0.9342,-25.7,-155.9,63.2,-0.655,0.02,1.07,0
2018,5,1,22,40,28.343,0.2141,-0.2465,0.0122,-0.945,36.5,-179.6,97.2,-0.681,0.108,1.379,0
2018,5,1,22,40,28.359,0.1959,-0.2121,0.004,-0.9573,54.5,-211.8,144.1,-0.835,0.128,1.594,0
2018,5,1,22,40,28.378,0.1705,-0.169,-0.0079,-0.9707,150.8,-268.7,193.3,-0.978,-0.662,1.442,0
2018,5,1,22,40,28.399,0.1389,-0.1122,-0.0478,-0.9827,320.4,-301.7,255,-1.225,-0.379,0.939,0
2018,5,1,22,40,28.418,0.0982,-0.048,-0.1113,-0.9877,430.3,-296.6,329.3,-1.539,-0.109,0.427,0
2018,5,1,22,40,28.456,0.042,0.0169,-0.1862,-0.9814,457.8,-277.3,417.9,-2.003,-0.019,0.224,0
2018,5,1,22,40,28.477,-0.0288,0.0807,-0.26,-0.9617,465.2,-255.2,484.6,-2.72,-0.162,0.173,0
2018,5,1,22,40,28.481,-0.1098,0.1418,-0.3296,-0.9268,456.8,-228.4,535.3,-2.998,-0.166,0.232,0
2018,5,1,22,40,28.5,-0.1969,0.1993,-0.3863,-0.8787,398.3,-199.3,572.7,-3.514,-0.087,0.025,0
2018,5,1,22,40,28.52,-0.2829,0.2538,-0.4223,-0.8228,276.3,-175.4,577.4,-4.104,0.053,-0.064,0
2018,5,1,22,40,28.539,-0.3597,0.3088,-0.4321,-0.7671,157.5,-162.5,568.5,-4.64,-0.271,-0.45,0
2018,5,1,22,40,28.558,-0.4293,0.3591,-0.4307,-0.7079,172,-134.5,543.2,-4.232,-0.577,-0.739,0
2018,5,1,22,40,28.579,-0.4964,0.3962,-0.427,-0.6435,210.3,-83.8,521.5,-3.844,-0.506,-1.096,0
2018,5,1,22,40,28.618,-0.5622,0.4179,-0.4187,-0.5777,221.8,-8.7,482.1,-3.657,-0.549,-1.302,0
2018,5,1,22,40,28.638,-0.6237,0.4279,-0.4002,-0.5173,178.6,60.9,457.2,-3.712,-0.478,-0.961,0
2018,5,1,22,40,28.642,-0.6834,0.4281,-0.3736,-0.4581,254,107.6,451.8,-3.695,-1.219,-1.087,1023
2018,5,1,22,40,28.662,-0.7472,0.4077,-0.3444,-0.3957,302.1,195.3,429.8,-3.728,-1.156,-1.429,1023
2018,5,1,22,40,28.681,-0.8051,0.3843,-0.2976,-0.3397,181.5,278.1,443,-4.06,-1.479,-1.175,1023
2018,5,1,22,40,28.701,-0.8508,0.3724,-0.2302,-0.2902,58.1,312.6,441.9,-4.014,-1.888,-0.476,1023
2018,5,1,22,40,28.721,-0.8858,0.3609,-0.1578,-0.245,105.9,333.9,388.8,-3.51,-1.932,0.086,1023
2018,5,1,22,40,28.744,-0.9174,0.3272,-0.0897,-0.2077,231.2,352.2,309.7,-3.169,-1.303,0.789,1023
2018,5,1,22,40,28.764,-0.9428,0.2805,-0.0237,-0.1779,193.9,365.9,272.7,-3.105,-0.201,0.851,1023
2018,5,1,22,40,28.802,-0.957,0.2436,0.044,-0.1506,134.7,356,260.5,-3.119,0.014,0.969,1023
2018,5,1,22,40,28.821,-0.9622,0.2163,0.1101,-0.1229,46.1,334.9,255,-3.117,0.104,1.08,1023
2018,5,1,22,40,28.825,-0.9593,0.2024,0.1739,-0.092,-13.8,325.6,256.3,-2.75,-0.443,0.774,0
2018,5,1,22,40,28.841,-0.95,0.1937,0.2374,-0.0596,-0.5,268.6,257.3,-3.115,-0.624,-1.679,0
2018,5,1,22,40,28.86,-0.9479,0.2627,0.1673,-0.066,-121.6,-55.5,-593.8,-1.858,0.662,-8.869,0
2018,5,1,22,40,28.882,-0.9417,0.2744,0.1441,-0.1301,-383.8,-170,-175.2,4.244,5.191,-1.447,0
2018,5,1,22,40,28.903,-0.9297,0.3226,0.1089,-0.1402,-72.1,-140.7,-190.7,2.688,-1.423,2.068,0
2018,5,1,22,40,28.922,-0.9121,0.3737,0.0881,-0.1433,-384.2,-122.1,-71.1,-0.179,-0.695,1.092,0
2018,5,1,22,40,28.96,-0.8838,0.4362,0.0742,-0.1518,-243.5,-76.5,-131.6,0.456,-0.653,0.44,1023
2018,5,1,22,40,28.981,-0.8683,0.4657,0.0579,-0.1601,-119.7,-106.5,-108,0.672,-1.307,0.442,1023
2018,5,1,22,40,28.989,-0.863,0.4754,0.0285,-0.1679,-21.1,-135.1,-143.3,-1.485,-0.355,0.624,1023
2018,5,1,22,40,29.004,-0.8579,0.4831,-0.0026,-0.1746,13.9,-135.1,-118.8,-0.977,-1.049,0.209,1023
2018,5,1,22,40,29.025,-0.8559,0.4835,-0.0311,-0.1803,-12.6,-122.2,-86.7,-0.663,0.985,0.096,1023
2018,5,1,22,40,29.043,-0.8467,0.4993,-0.0513,-0.1761,-116.5,-130.4,-0.6,-1.308,1.37,-0.302,1023
2018,5,1,22,40,29.078,-0.834,0.5224,-0.0653,-0.1644,-161.5,-120.2,9.6,0.282,1.087,-0.662,1023
2018,5,1,22,40,29.097,-0.8176,0.5489,-0.073,-0.1573,-123.9,-62.5,3.1,1.916,0.35,-0.525,1023
2018,5,1,22,40,29.1,-0.8143,0.5546,-0.0768,-0.1526,9.8,-28.5,20.1,1.767,1.236,-0.266,1023
2018,5,1,22,40,29.14,-0.8107,0.5626,-0.0767,-0.1421,-101.2,-53.6,73,0.633,0.765,-0.288,1023
2018,5,1,22,40,29.16,-0.8004,0.5807,-0.076,-0.1275,-105.8,-72.3,51.6,-0.173,-0.98,-0.015,1023
2018,5,1,22,40,29.164,-0.7891,0.5975,-0.0811,-0.1165,-105.4,-74.5,19.5,0.21,-0.892,-0.349,1023
2018,5,1,22,40,29.187,-0.7786,0.6116,-0.0874,-0.1096,-68.5,-54.4,-0.3,-0.251,-0.07,-0.301,1023
2018,5,1,22,40,29.207,-0.7687,0.6232,-0.093,-0.1089,-115,-31.5,-29.7,-0.899,0.233,0.252,1023
2018,5,1,22,40,29.228,-0.7551,0.6386,-0.0971,-0.1113,-94.3,-22.2,-14.3,-0.405,0.008,0.162,1023
2018,5,1,22,40,29.247,-0.7465,0.6487,-0.098,-0.1099,-70,-23.7,19,0.071,0.141,0.3,1023
2018,5,1,22,40,29.283,-0.7407,0.6565,-0.0972,-0.1034,-30.6,-31.5,39.4,-0.114,0.708,0.336,1023
2018,5,1,22,40,29.304,-0.7367,0.6629,-0.0955,-0.092,-44.1,-51.3,69.4,0.017,0.503,0.093,1023
2018,5,1,22,40,29.308,-0.732,0.6703,-0.0938,-0.0767,-33.5,-61.4,77.3,0.151,-0.222,-0.155,1023
2018,5,1,22,40,29.327,-0.7298,0.6745,-0.0928,-0.0605,2.7,-57.4,64.4,-0.02,-0.54,-0.049,0
2018,5,1,22,40,29.347,-0.7299,0.6755,-0.0923,-0.0475,-4.7,-40.6,46.6,-0.218,-0.194,-0.068,0
2018,5,1,22,40,29.385,-0.7281,0.6781,-0.0921,-0.0393,-19.3,-24.3,26.2,-0.204,0.06,-0.228,0
2018,5,1,22,40,29.39,-0.7239,0.6828,-0.0923,-0.0336,-28.8,-26.2,24.3,0.074,-0.038,-0.13,0
2018,5,1,22,40,29.406,-0.7214,0.6856,-0.0926,-0.0279,-6.5,-26.6,27.1,-0.007,-0.003,0.116,0
2018,5,1,22,40,29.445,-0.7205,0.6867,-0.0932,-0.0206,-10.5,-36.5,28.5,-0.201,0.191,0.339,0
2018,5,1,22,40,29.465,-0.7166,0.6908,-0.0948,-0.0121,-41.3,-45.5,31.5,0.019,0.091,-0.006,0
2018,5,1,22,40,29.469,-0.7114,0.696,-0.097,-0.0034,-21.3,-47.4,32.1,0.217,-0.085,0.016,0
2018,5,1,22,40,29.488,-0.7095,0.6976,-0.0991,0.0064,-3.2,-51.3,34.2,-0.023,0.042,0.207,0
2018,5,1,22,40,29.508,-0.7081,0.6984,-0.1017,0.0174,-5.9,-60.1,36.1,-0.298,0.065,0.335,0
2018,5,1,22,40,29.529,-0.7044,0.7013,-0.1046,0.0296,-34.7,-59.9,43,-0.207,0.184,-0.056,0
2018,5,1,22,40,29.549,-0.6972,0.7077,-0.1058,0.041,-51.2,-49.5,49.7,0.187,0.141,-0.258,0
2018,5,1,22,40,29.584,-0.691,0.7131,-0.1051,0.052,-33.1,-41,51,0.238,-0.068,-0.044,0
2018,5,1,22,40,29.605,-0.6858,0.7175,-0.1052,0.061,-25.5,-35.3,38.1,0.142,-0.229,-0.115,0
2018,5,1,22,40,29.609,-0.6809,0.7215,-0.1056,0.0675,-27.9,-24.4,28.5,0.063,-0.053,-0.092,0
2018,5,1,22,40,29.626,-0.6658,0.7346,-0.1054,0.076,-51,-15.9,17.7,-0.015,-0.06,0.016,0
2018,5,1,22,40,29.665,-0.6582,0.7411,-0.1055,0.0786,-54.6,-8.2,16.1,0.114,0.038,-0.133,0
2018,5,1,22,40,29.685,-0.6502,0.7482,-0.1043,0.0805,-61.5,-2.9,25.1,0.083,0.179,-0.072,0
2018,5,1,22,40,29.689,-0.6421,0.7551,-0.103,0.0819,-48.2,-2.7,14.7,-0.064,-0.244,0.017,1023
2018,5,1,22,40,29.709,-0.6358,0.7605,-0.1011,0.0836,-48.4,2.4,14.4,-0.101,0.007,-0.033,1023
2018,5,1,22,40,29.728,-0.6279,0.7673,-0.0996,0.0829,-55.7,10.1,12.8,0.089,-0.005,-0.064,1023
2018,5,1,22,40,29.756,-0.6206,0.7737,-0.0982,0.0808,-49,13.6,8.5,0.09,-0.067,-0.005,1023
2018,5,1,22,40,29.769,-0.6152,0.7784,-0.0966,0.0789,-37,10.6,6.9,0.009,-0.048,0.056,1023
2018,5,1,22,40,29.806,-0.6101,0.7826,-0.0949,0.0781,-41.1,8.4,6.6,-0.086,0.045,0.042,1023
2018,5,1,22,40,29.827,-0.6041,0.7875,-0.0933,0.0776,-44,7.1,5.6,-0.046,-0.026,0.006,1023
2018,5,1,22,40,29.831,-0.5987,0.7918,-0.0924,0.0768,-40.3,4.7,3,-0.009,-0.071,0.087,0
2018,5,1,22,40,29.848,-0.5936,0.7957,-0.0923,0.0761,-42.7,0.9,2.2,0.004,0.014,0.131,0
2018,5,1,22,40,29.887,-0.588,0.7998,-0.0925,0.076,-49.8,-3.9,2.1,-0.025,-0.001,0.112,0
2018,5,1,22,40,29.908,-0.5812,0.8047,-0.0937,0.0758,-50.7,-5.1,0.6,0.054,0.002,0.017,0
2018,5,1,22,40,29.912,-0.573,0.8104,-0.0949,0.0756,-55.3,-5.9,0.3,0.12,0.004,-0.038,0
2018,5,1,22,40,29.931,-0.5653,0.8156,-0.096,0.0757,-50.6,-6.4,2.8,0.101,0.073,-0.049,0
2018,5,1,22,40,29.951,-0.558,0.8205,-0.0971,0.0756,-46.3,-4.5,4.1,0.062,0.003,-0.005,0
2018,5,1,22,40,29.97,-0.5515,0.8249,-0.0976,0.0755,-42.5,-1.5,4.1,0.029,-0.061,0,0
2018,5,1,22,40,29.994,-0.5459,0.8287,-0.0976,0.0747,-35.1,3.9,4.7,0.024,0.03,-0.013,0
2018,5,1,22,40,30.013,-0.54,0.8327,-0.0968,0.0738,-42.7,5.8,6.1,0.009,0.016,0.026,0
2018,5,1,22,40,30.051,-0.5343,0.8366,-0.0961,0.0727,-37.1,4.4,5.9,0.032,-0.013,0.028,0
2018,5,1,22,40,30.055,-0.5294,0.8398,-0.0956,0.0719,-34.3,2.5,4.9,0.041,0,0.038,0
2018,5,1,22,40,30.071,-0.5245,0.8429,-0.0953,0.0714,-34.2,0.6,4,0.017,0.004,0.041,0
2018,5,1,22,40,30.088,-0.5192,0.8462,-0.0953,0.0712,-40.4,-1.3,3.2,0.013,0.035,0.074,0
2018,5,1,22,40,30.128,-0.5121,0.8505,-0.0954,0.0713,-50.5,-3.6,3.8,0.016,-0.026,0.01,0
2018,5,1,22,40,30.148,-0.5048,0.8549,-0.0962,0.0708,-47.2,-1.1,2.1,0.09,-0.026,-0.007,0
2018,5,1,22,40,30.152,-0.4965,0.8597,-0.0966,0.0695,-56.2,2.8,3.7,0.067,-0.017,-0.025,0
2018,5,1,22,40,30.173,-0.4887,0.8643,-0.0965,0.068,-44.3,5.1,3.7,-0.02,-0.014,-0.014,0
2018,5,1,22,40,30.192,-0.4826,0.8679,-0.0956,0.0672,-38.5,6.1,3.5,-0.065,-0.01,0.049,0
2018,5,1,22,40,30.229,-0.4774,0.8709,-0.0949,0.0665,-37,4.1,1.9,-0.032,-0.047,0.099,0
2018,5,1,22,40,30.251,-0.4718,0.874,-0.0947,0.0661,-46.8,-1.8,3.5,-0.1,0.132,0.016,0
2018,5,1,22,40,30.255,-0.4647,0.8778,-0.0953,0.0658,-36.5,-2.3,-1,0.047,-0.081,-0.051,0
2018,5,1,22,40,30.275,-0.4599,0.8803,-0.0961,0.0648,-28.7,1.8,-1.3,0.089,-0.029,-0.057,1023
2018,5,1,22,40,30.297,-0.4556,0.8827,-0.0963,0.0628,-25.6,9.2,0.8,0.002,0.026,-0.028,1023
2018,5,1,22,40,30.313,-0.4514,0.885,-0.0953,0.0611,-24.8,10.9,3.1,-0.021,0.009,0.009,1023
2018,5,1,22,40,30.331,-0.4481,0.887,-0.0941,0.0594,-20.2,10.6,6.6,0.051,0.165,0.04,1023
2018,5,1,22,40,30.351,-0.4433,0.8896,-0.0925,0.0579,-25.9,7.5,11.3,0.049,-0.062,0.008,1023
2018,5,1,22,40,30.391,-0.4418,0.8906,-0.0905,0.057,-5.2,7.2,8.7,-0.018,-0.1,0.039,1023
2018,5,1,22,40,30.412,-0.4406,0.8914,-0.0889,0.0569,-12.9,3.3,4.2,0.014,-0.226,0.1,1023
2018,5,1,22,40,30.416,-0.4405,0.8915,-0.0888,0.0563,-4.1,1.2,-0.2,0.034,0.018,0.136,1023
2018,5,1,22,40,30.434,-0.4387,0.8924,-0.089,0.0561,-19.1,-2.5,0.4,-0.008,-0.006,0.05,1023
2018,5,1,22,40,30.453,-0.4358,0.8937,-0.0895,0.0563,-17.4,-3.9,-0.5,0.026,0.007,-0.024,1023
2018,5,1,22,40,30.489,-0.4328,0.8951,-0.0902,0.0561,-16,-1.7,-1.7,0.038,-0.005,-0.038,1023
2018,5,1,22,40,30.51,-0.4304,0.8962,-0.0908,0.0556,-11,0.7,-1.7,0.025,-0.024,-0.043,1023
2018,5,1,22,40,30.517,-0.4284,0.8972,-0.0911,0.0552,-13.6,0.4,-1.4,-0.005,0.034,-0.05,1023
2018,5,1,22,40,30.554,-0.4247,0.8991,-0.0922,0.0516,-19.9,14.8,-11.9,0.014,-0.072,-0.328,1023
2018,5,1,22,40,30.574,-0.4221,0.9004,-0.0938,0.0464,-7.6,27.6,-24.3,0.047,-0.016,-0.285,1023
2018,5,1,22,40,30.579,-0.4214,0.9009,-0.0956,0.0395,-1.6,32.9,-24.2,-0.012,-0.007,-0.026,1023
2018,5,1,22,40,30.598,-0.4237,0.9,-0.0962,0.0327,17.8,35.9,-17.1,-0.117,-0.077,0.186,1023
2018,5,1,22,40,30.618,-0.4275,0.8985,-0.0959,0.0265,15.2,31.7,-14.3,-0.103,-0.041,0.225,1023
2018,5,1,22,40,30.633,-0.4292,0.8977,-0.0963,0.021,-1,24.7,-16.6,0.06,0.015,0.1,1023
2018,5,1,22,40,30.673,-0.4297,0.8975,-0.0977,0.0158,3.1,19.2,-18.4,0.067,0.079,-0.031,1023
2018,5,1,22,40,30.693,-0.4301,0.8972,-0.0994,0.0117,-1.7,14.9,-17.7,0.093,0.161,-0.045,1023
2018,5,1,22,40,30.697,-0.4304,0.8969,-0.1006,0.0083,5.9,13.3,-10.5,0.038,0.179,0.084,1023
2018,5,1,22,40,30.718,-0.4321,0.8961,-0.1009,0.0061,9.7,7,-1,0.02,0.217,0.153,1023
2018,5,1,22,40,30.737,-0.4317,0.8963,-0.1004,0.0054,-4.8,-4.1,10.7,0.056,0.203,0.16,1023
2018,5,1,22,40,30.775,-0.4304,0.8971,-0.0992,0.0079,-15.9,-20.2,17.6,0.137,0.371,0.143,1023
2018,5,1,22,40,30.793,-0.4249,0.8997,-0.0984,0.0138,-39.8,-40.1,22.4,0.228,0.302,-0.009,1023
2018,5,1,22,40,30.797,-0.4173,0.9031,-0.0978,0.0218,-42.3,-45.7,28,0.158,0.218,-0.044,0
2018,5,1,22,40,30.831,-0.4012,0.9098,-0.0952,0.046,-30.2,-33.4,21.7,-0.28,-0.345,0.286,0
2018,5,1,22,40,30.854,-0.3874,0.9156,-0.0911,0.0554,-51.5,-8.8,25.6,-0.205,-0.18,0.196,0
2018,5,1,22,40,30.858,-0.3436,0.9335,-0.0873,0.0523,-142.4,20,2.9,0.147,-0.209,-0.256,0
2018,5,1,22,40,30.897,-0.3011,0.9487,-0.0861,0.0421,-115,22.1,9.9,0.023,0.187,-0.082,0
2018,5,1,22,40,30.901,-0.2578,0.9623,-0.079,0.0335,-150.9,19.5,24.7,-0.045,0.009,0.14,0
2018,5,1,22,40,30.919,-0.2325,0.9692,-0.0751,0.0288,-144,23.3,12.4,-0.086,-0.846,-0.131,0
2018,5,1,22,40,30.94,-0.2247,0.9712,-0.0737,0.0255,1.2,9.2,12.1,-0.012,0.045,-0.037,0
2018,5,1,22,40,30.959,-0.2212,0.9722,-0.0717,0.0249,-24,7,8.8,0,-0.015,0.06,0
2018,5,1,22,40,30.997,-0.218,0.9731,-0.0703,0.0241,-23.9,5.9,4.3,-0.031,0.003,0.093,0
2018,5,1,22,40,31.016,-0.2141,0.974,-0.0697,0.0231,-29.8,5,1.6,0.027,-0.077,0.023,0
2018,5,1,22,40,31.02,-0.2078,0.9754,-0.0697,0.0214,-44.8,3.4,0,0.083,-0.055,-0.054,0
2018,5,1,22,40,31.041,-0.2014,0.9767,-0.0699,0.0199,-34.2,2.6,-1.7,0.061,-0.005,-0.049,0
2018,5,1,22,40,31.078,-0.1956,0.9779,-0.0705,0.0181,-32.4,5.5,-3.5,0.065,0,-0.044,0
2018,5,1,22,40,31.099,-0.1895,0.9791,-0.0713,0.0156,-42.1,10.9,-7.1,0.048,-0.053,-0.103,0
2018,5,1,22,40,31.103,-0.1819,0.9805,-0.0728,0.0115,-45.1,20.2,-13.2,0.084,-0.048,-0.131,0
2018,5,1,22,40,31.119,-0.1775,0.9812,-0.0747,0.0065,-8.2,18.5,-13.9,0.065,-0.128,-0.039,0
2018,5,1,22,40,31.139,-0.1809,0.9804,-0.0768,0.0036,32.5,10.9,-15.8,-0.132,-0.146,0.183,0
2018,5,1,22,40,31.157,-0.1877,0.9789,-0.0797,0.0027,38.5,0,-21,-0.221,-0.194,0.24,0
2018,5,1,22,40,31.179,-0.1922,0.9777,-0.0834,0.0028,10.9,-1.8,-20.3,-0.004,0.063,0.083,0
2018,5,1,22,40,31.2,-0.191,0.9777,-0.0862,0.002,-16.1,1.7,-11.9,0.107,0.19,-0.024,0
2018,5,1,22,40,31.239,-0.1867,0.9785,-0.0873,0.0009,-32.9,2.8,-2.8,0.085,0.261,0.076,0
2018,5,1,22,40,31.261,-0.1803,0.9797,-0.0871,0.0003,-41.1,-2.6,4.7,-0.002,0.236,0.215,0
2018,5,1,22,40,31.265,-0.1715,0.9814,-0.0857,0.0013,-45.1,-11.4,13.4,-0.046,0.095,0.187,1023
2018,5,1,22,40,31.283,-0.1644,0.9828,-0.0835,0.0044,-36.4,-20.9,14.8,-0.04,-0.169,0.066,1023
2018,5,1,22,40,31.303,-0.1595,0.9837,-0.0821,0.0081,-26.6,-19.5,8.1,-0.019,-0.253,-0.168,1023
2018,5,1,22,40,31.34,-0.1567,0.9841,-0.082,0.0103,-15.4,-6.8,1,0.042,-0.123,-0.307,1023
2018,5,1,22,40,31.36,-0.1527,0.9848,-0.0818,0.0096,-33.5,6.5,1.6,0.053,0.161,-0.143,1023
2018,5,1,22,40,31.364,-0.1456,0.9859,-0.0811,0.0074,-35.5,9.8,5.2,0.03,0.09,0.032,1023
2018,5,1,22,40,31.382,-0.1428,0.9865,-0.0796,0.0055,2.2,7.5,9.6,0.013,-0.07,0.055,1023
2018,5,1,22,40,31.401,-0.1462,0.9861,-0.0776,0.0049,19.8,4,11.1,0.005,-0.049,0.026,1023
2018,5,1,22,40,31.439,-0.1499,0.9857,-0.0757,0.0049,13.6,3.1,8.9,-0.003,-0.096,0.003,1023
2018,5,1,22,40,31.46,-0.1516,0.9856,-0.0743,0.0047,0.6,2,6.5,0.008,-0.05,0.031,0
2018,5,1,22,40,31.464,-0.1512,0.9857,-0.0734,0.0044,-7.4,0.9,4.6,0.015,-0.016,0.008,0
2018,5,1,22,40,31.484,-0.15,0.9859,-0.0727,0.0043,-6.9,0,3.8,0.012,-0.016,-0.003,0
2018,5,1,22,40,31.502,-0.1493,0.9861,-0.072,0.0043,-2.8,-0.6,3.8,0.01,-0.007,-0.001,0
2018,5,1,22,40,31.541,-0.1491,0.9862,-0.0714,0.0045,-0.6,-1,4.1,0.005,-0.015,0.017,0
2018,5,1,22,40,31.561,-0.149,0.9862,-0.0708,0.0047,-3.5,-0.6,3.1,0.002,-0.043,-0.008,0
2018,5,1,22,40,31.565,-0.1484,0.9864,-0.0703,0.0048,-7.4,-0.2,2.9,0.005,-0.03,0.004,0
2018,5,1,22,40,31.581,-0.145,0.9869,-0.0696,0.0048,-12.3,-1.4,1.1,0.01,-0.005,0,0
2018,5,1,22,40,31.619,-0.1428,0.9872,-0.0695,0.0047,-13,-0.7,1,0.009,-0.008,-0.009,0
2018,5,1,22,40,31.64,-0.1408,0.9875,-0.0693,0.0047,-10.9,-0.4,1.4,0.003,-0.018,0.006,0
2018,5,1,22,40,31.645,-0.1399,0.9877,-0.0692,0.0048,-3.2,-0.2,0.3,0.017,0.021,0.012,0
2018,5,1,22,40,31.664,-0.1381,0.9879,-0.0691,0.0046,-11.2,-1,0.7,0.008,-0.024,-0.024,0
2018,5,1,22,40,31.685,-0.1367,0.9881,-0.069,0.0046,-8,-0.7,1,0.005,-0.014,0.005,0
2018,5,1,22,40,31.705,-0.1353,0.9883,-0.0689,0.0047,-9.8,-1.3,0.6,0.005,-0.016,0.012,0
2018,5,1,22,40,31.725,-0.1336,0.9886,-0.0689,0.0048,-11,-1.5,-0.2,0.006,-0.028,-0.001,0
2018,5,1,22,40,31.764,-0.1338,0.9885,-0.0692,0.0049,0.6,-1.3,-1.2,0.006,0.078,0.027,0
2018,5,1,22,40,31.782,-0.1318,0.9888,-0.0693,0.0049,-12.6,-0.7,0,0.005,-0.017,-0.029,0
2018,5,1,22,40,31.787,-0.1301,0.989,-0.0694,0.0049,-9.5,-0.8,0.1,0.004,-0.008,0.018,0
2018,5,1,22,40,31.802,-0.1301,0.989,-0.0696,0.0049,8.6,0.1,-1.9,0.01,0.028,0.022,0
2018,5,1,22,40,31.841,-0.1291,0.9891,-0.0697,0.005,-8.4,-1,0.3,0.006,-0.024,-0.034,0
2018,5,1,22,40,31.845,-0.1283,0.9892,-0.0697,0.005,-3.4,-0.1,0.7,0.007,-0.009,0.01,0
2018,5,1,22,40,31.865,-0.1278,0.9893,-0.0695,0.0049,-2.6,0.1,0.7,0.006,-0.017,-0.009,0
2018,5,1,22,40,31.885,-0.1276,0.9893,-0.0694,0.0048,-1.6,0,1.1,0.007,-0.018,0.009,0
2018,5,1,22,40,31.905,-0.1272,0.9894,-0.0692,0.0048,-4.5,-0.3,0.8,0.002,-0.019,0.011,1023
2018,5,1,22,40,31.944,-0.1264,0.9895,-0.0691,0.0048,-7.2,-0.3,0.4,0.006,-0.019,0.008,1023
2018,5,1,22,40,31.963,-0.1249,0.9897,-0.0691,0.0047,-11.2,-0.6,-0.2,-0.005,-0.057,0.008,1023
2018,5,1,22,40,31.967,-0.1251,0.9896,-0.0695,0.0047,-4.5,-0.8,-1.2,-0.019,0.073,0.02,1023
2018,5,1,22,40,31.985,-0.1224,0.99,-0.0697,0.0046,-15.7,0.1,-0.9,0.005,-0.018,-0.017,1023
2018,5,1,22,40,32.008,-0.1209,0.9901,-0.0701,0.0044,-2.3,0,-2.2,0.016,-0.033,0.01,1023
2018,5,1,22,40,32.03,-0.1198,0.9902,-0.0703,0.0043,-10.9,0,-0.8,0.004,-0.032,-0.031,1023
2018,5,1,22,40,32.049,-0.1186,0.9904,-0.0703,0.0041,-4.2,0.3,0.4,0.006,-0.008,0.009,1023
2018,5,1,22,40,32.066,-0.118,0.9905,-0.0703,0.004,-3.7,0,0.3,0.001,-0.014,0,0
2018,5,1,22,40,32.104,-0.1175,0.9905,-0.0702,0.004,-3.7,0.1,0.3,0.004,-0.02,0.001,0
2018,5,1,22,40,32.108,-0.1169,0.9906,-0.0702,0.0039,-5.7,0.1,0.3,0.004,-0.017,0.007,0
2018,5,1,22,40,32.126,-0.1159,0.9907,-0.0701,0.0037,-6.1,0,0.2,0.005,-0.015,-0.001,0
2018,5,1,22,40,32.148,-0.1151,0.9908,-0.0701,0.0037,-3.6,-0.5,0.1,0.002,-0.045,0.001,0
2018,5,1,22,40,32.166,-0.1156,0.9908,-0.0702,0.0037,-2.4,-0.3,0.5,-0.007,0.048,0,0
2018,5,1,22,40,32.186,-0.115,0.9908,-0.0701,0.0036,-2.2,0.1,0.7,0.005,-0.012,-0.005,0
2018,5,1,22,40,32.206,-0.1148,0.9909,-0.07,0.0036,-2.3,-0.3,0.5,0.004,-0.011,0.005,0
2018,5,1,22,40,32.243,-0.1145,0.9909,-0.0699,0.0036,-2.4,-0.2,0.5,0.006,-0.018,0,0
2018,5,1,22,40,32.264,-0.1141,0.991,-0.0698,0.0036,-3.1,-0.1,0.8,0.004,-0.01,0.002,0
2018,5,1,22,40,32.268,-0.1136,0.991,-0.0697,0.0035,-3.5,-0.2,0.7,0.005,-0.014,-0.006,0
2018,5,1,22,40,32.286,-0.1132,0.9911,-0.0695,0.0035,-2.3,0,0.7,0.003,-0.016,-0.003,0
2018,5,1,22,40,32.306,-0.113,0.9911,-0.0694,0.0035,-1.6,0,0.8,0.007,-0.012,0.01,0
2018,5,1,22,40,32.341,-0.1127,0.9911,-0.0693,0.0034,-2.4,-0.1,0.8,0.009,-0.012,0.003,0
2018,5,1,22,40,32.359,-0.1127,0.9911,-0.0693,0.0034,11.3,0.7,-3.2,0.056,-0.16,0.007,0
2018,5,1,22,40,32.366,-0.1134,0.9911,-0.0694,0.0035,-8.6,-0.9,-0.1,0.009,-0.049,-0.03,0
2018,5,1,22,40,32.404,-0.1127,0.9911,-0.0693,0.0034,-2.6,0,0.7,0.003,-0.008,0.008,0
2018,5,1,22,40,32.424,-0.1122,0.9912,-0.0692,0.0033,-2.9,-0.2,0.7,0.003,-0.012,-0.009,0
2018,5,1,22,40,32.428,-0.112,0.9912,-0.069,0.0033,-0.8,0.1,1.3,0.007,-0.016,0.004,0
2018,5,1,22,40,32.467,-0.112,0.9913,-0.0688,0.0033,-2,-0.1,0.7,0.004,-0.016,0.009,0
2018,5,1,22,40,32.487,-0.1116,0.9913,-0.0687,0.0032,-3.1,-0.1,0.8,0.004,-0.015,0.005,0
2018,5,1,22,40,32.491,-0.1112,0.9914,-0.0686,0.0032,-3.5,0,0.6,0.005,-0.013,0.001,0
2018,5,1,22,40,32.506,-0.1107,0.9914,-0.0685,0.0032,-2.7,0,0.6,0.008,-0.013,0.001,0
2018,5,1,22,40,32.546,-0.1103,0.9915,-0.0684,0.0031,-3.1,0,0.8,0.003,-0.012,0,0
2018,5,1,22,40,32.566,-0.1099,0.9915,-0.0683,0.003,-3.6,0,0.5,0.005,-0.016,0,1023
2018,5,1,22,40,32.571,-0.1095,0.9916,-0.0682,0.003,-2.8,-0.1,0,-0.01,-0.1,0.003,1023
2018,5,1,22,40,32.588,-0.1102,0.9915,-0.0684,0.003,-5.2,-0.9,0,-0.009,0.053,0,1023
2018,5,1,22,40,32.608,-0.1093,0.9916,-0.0684,0.003,-3.4,0.1,0.6,0.001,-0.013,-0.007,1023
2018,5,1,22,40,32.629,-0.1089,0.9916,-0.0683,0.0029,-1.9,0.1,0.8,0.007,-0.011,0.001,1023
2018,5,1,22,40,32.648,-0.1088,0.9917,-0.0682,0.0029,-1,0,0.7,0.006,-0.016,0,1023
2018,5,1,22,40,32.689,-0.1086,0.9917,-0.068,0.0028,-2.3,-0.2,0.5,0,-0.015,0.004,1023
2018,5,1,22,40,32.708,-0.1084,0.9917,-0.068,0.0028,-2.1,0,0.5,0.004,-0.014,0.002,1023
2018,5,1,22,40,32.713,-0.1082,0.9917,-0.0679,0.0028,-2.2,-0.1,0.8,0.007,-0.012,0.008,1023
2018,5,1,22,40,32.731,-0.1078,0.9918,-0.0677,0.0028,-3.3,-0.2,0.6,0.002,-0.015,0.002,0
2018,5,1,22,40,32.769,-0.1072,0.9919,-0.0677,0.0028,-4.6,-0.4,0.4,0.001,-0.023,0.003,0
2018,5,1,22,40,32.773,-0.108,0.9918,-0.0679,0.0028,-0.7,-0.7,0,-0.024,0.085,0.016,0
2018,5,1,22,40,32.789,-0.1066,0.9919,-0.0679,0.0029,-5.8,-0.1,0.7,0.001,-0.014,-0.013,0
2018,5,1,22,40,32.827,-0.1058,0.992,-0.0678,0.0028,-4,-0.2,0.7,0.004,-0.007,0.005,0
2018,5,1,22,40,32.847,-0.1055,0.9921,-0.0676,0.0028,-2,0,0.7,0.006,-0.015,-0.011,0
2018,5,1,22,40,32.851,-0.1053,0.9921,-0.0675,0.0028,-2.4,-0.1,0.7,0.003,-0.016,0.014,0
2018,5,1,22,40,32.872,-0.1049,0.9921,-0.0674,0.0027,-2.9,-0.4,0.5,0.004,-0.014,-0.006,0
2018,5,1,22,40,32.892,-0.1045,0.9922,-0.0674,0.0027,-2.9,0,0.3,0.003,-0.011,-0.002,0
2018,5,1,22,40,32.932,-0.1042,0.9922,-0.0673,0.0027,-1.8,-0.2,0.7,0.003,-0.014,0.001,0
2018,5,1,22,40,32.952,-0.1041,0.9922,-0.0671,0.0026,-1.5,-0.1,0.8,0.004,-0.016,-0.002,0
2018,5,1,22,40,32.956,-0.104,0.9923,-0.067,0.0026,-1.1,0.1,0.7,0.002,-0.014,-0.004,0
2018,5,1,22,40,32.975,-0.1039,0.9923,-0.0669,0.0025,-1,0.2,0.5,0.006,-0.013,0.002,0
2018,5,1,22,40,32.995,-0.1037,0.9923,-0.0668,0.0025,-2.3,0,0.5,0.003,-0.016,0.002,0
2018,5,1,22,40,33.011,-0.1034,0.9923,-0.0667,0.0024,-2.6,0,0.6,0.003,-0.012,0.001,0
2018,5,1,22,40,33.03,-0.1032,0.9924,-0.0666,0.0024,-1.2,0,0.2,-0.002,-0.073,0.003,0
2018,5,1,22,40,33.05,-0.1037,0.9923,-0.0668,0.0024,-3.9,-0.4,0.4,-0.004,0.004,-0.004,0
2018,5,1,22,40,33.091,-0.1033,0.9924,-0.0667,0.0024,-2,0,0.7,0.004,-0.011,0.002,0
2018,5,1,22,40,33.11,-0.103,0.9924,-0.0666,0.0023,-2.6,0,0.7,0.003,-0.013,0.004,0
2018,5,1,22,40,33.114,-0.1027,0.9924,-0.0665,0.0022,-2,0,0.7,0.007,-0.01,0.004,0
2018,5,1,22,40,33.133,-0.1025,0.9925,-0.0663,0.0022,-2.5,-0.1,0.7,0.003,-0.012,-0.001,0
2018,5,1,22,40,33.172,-0.1021,0.9925,-0.0662,0.0022,-2.6,-0.1,0.7,0.002,-0.014,-0.001,0
2018,5,1,22,40,33.193,-0.1018,0.9926,-0.0661,0.0022,-2.4,-0.2,0.6,0.006,-0.013,0,0
2018,5,1,22,40,33.197,-0.1015,0.9926,-0.066,0.0022,-2.2,-0.4,0.7,0.005,-0.014,0.009,1023
2018,5,1,22,40,33.212,-0.1013,0.9926,-0.066,0.0022,4.5,0.1,-4.4,0.091,-0.205,0.009,1023
2018,5,1,22,40,33.248,-0.1017,0.9926,-0.0661,0.0025,-8.5,-1,-0.5,-0.004,-0.026,-0.014,1023
2018,5,1,22,40,33.269,-0.1007,0.9927,-0.0661,0.0025,-5.1,-0.6,0.4,0,-0.008,0.01,1023
2018,5,1,22,40,33.273,-0.0998,0.9927,-0.066,0.0025,-5.4,-0.4,0.5,0.002,-0.028,-0.009,1023
2018,5,1,22,40,33.295,-0.0998,0.9927,-0.0661,0.0026,-6,-1,0.6,-0.016,0.006,-0.011,1023
2018,5,1,22,40,33.314,-0.099,0.9928,-0.066,0.0026,-3.7,-0.1,0.6,0,-0.009,0.006,1023
2018,5,1,22,40,33.351,-0.0985,0.9929,-0.066,0.0026,-3.1,0,0.4,0,-0.016,0,1023
2018,5,1,22,40,33.37,-0.0982,0.9929,-0.0658,0.0026,-1.8,0.1,0.8,0.007,-0.015,0,1023
2018,5,1,22,40,33.374,-0.0979,0.993,-0.0657,0.0025,-3.6,-0.4,0.7,0.004,-0.015,0.003,0
2018,5,1,22,40,33.395,-0.0973,0.993,-0.0656,0.0025,-4.6,-0.3,0.4,0.005,-0.015,0.002,0
2018,5,1,22,40,33.415,-0.0965,0.9931,-0.0656,0.0025,-5.1,-0.1,0.2,0.003,-0.016,-0.002,0
2018,5,1,22,40,33.451,-0.0966,0.9931,-0.0657,0.0025,-3.2,-0.7,0.4,-0.034,0.062,0.008,0
2018,5,1,22,40,33.472,-0.0958,0.9932,-0.0656,0.0025,-4.1,0.1,0.7,0.003,-0.011,-0.007,0
2018,5,1,22,40,33.476,-0.0953,0.9932,-0.0656,0.0025,-3.2,-0.2,0.2,0.008,-0.013,0.001,0
2018,5,1,22,40,33.493,-0.095,0.9933,-0.0655,0.0024,-1.7,0,0.5,0.005,-0.015,-0.009,0
2018,5,1,22,40,33.514,-0.0949,0.9933,-0.0653,0.0024,-1.1,0,0.6,0.002,-0.012,0.003,0
2018,5,1,22,40,33.534,-0.0948,0.9933,-0.0652,0.0024,-1.2,0,0.6,0.003,-0.014,0.002,0
2018,5,1,22,40,33.573,-0.0947,0.9933,-0.0651,0.0023,-1.5,0,0.7,0.004,-0.018,0.004,0
2018,5,1,22,40,33.595,-0.0946,0.9933,-0.065,0.0022,-1.9,0,0.6,0.003,-0.015,-0.001,0
2018,5,1,22,40,33.599,-0.0943,0.9934,-0.0649,0.0022,-2.3,0.1,0.5,0.003,-0.013,-0.003,0
2018,5,1,22,40,33.618,-0.094,0.9934,-0.0649,0.0021,-2,0.2,0.3,0.006,-0.011,-0.001,0
2018,5,1,22,40,33.638,-0.0938,0.9934,-0.0648,0.0021,-1.6,0,0.5,0.006,-0.01,0.001,0
2018,5,1,22,40,33.658,-0.0937,0.9934,-0.0647,0.002,-1.9,0,0.9,0.004,-0.017,0.001,0
2018,5,1,22,40,33.677,-0.0935,0.9935,-0.0646,0.002,-2,0.1,0.5,0.005,-0.011,0.003,0
2018,5,1,22,40,33.694,-0.0932,0.9935,-0.0645,0.0019,-2.2,0.1,0.8,0.006,-0.013,0.005,0
2018,5,1,22,40,33.732,-0.0929,0.9935,-0.0643,0.0018,-2.4,0,0.8,0.003,-0.014,-0.002,0
2018,5,1,22,40,33.753,-0.0927,0.9936,-0.0641,0.0018,-1.8,0,0.8,0.002,-0.013,0.003,0
2018,5,1,22,40,33.757,-0.0931,0.9935,-0.0642,0.0017,8.3,0.2,0.3,-0.032,0.092,0.027,0
2018,5,1,22,40,33.793,-0.0926,0.9936,-0.0641,0.0019,-3.2,-0.1,0.7,0.001,-0.02,-0.016,0
2018,5,1,22,40,33.813,-0.0923,0.9936,-0.0639,0.0018,-2.6,0,0.6,0.004,-0.008,0,0
2018,5,1,22,40,33.817,-0.092,0.9937,-0.0638,0.0018,-1.5,0.1,0.9,0.004,-0.014,-0.003,0
2018,5,1,22,40,33.854,-0.0919,0.9937,-0.0636,0.0018,-1.2,0,1,0.003,-0.013,0.004,1023
2018,5,1,22,40,33.874,-0.0918,0.9937,-0.0635,0.0017,-1.5,0,0.7,0.005,-0.014,-0.004,1023
2018,5,1,22,40,33.879,-0.0916,0.9937,-0.0633,0.0017,-2,0,0.8,0.002,-0.012,0,1023
2018,5,1,22,40,33.899,-0.0913,0.9938,-0.0632,0.0017,-2.3,-0.1,0.7,0.005,-0.009,0.003,1023
2018,5,1,22,40,33.92,-0.0911,0.9938,-0.0631,0.0017,-1.5,0,0.7,0.005,-0.015,-0.011,1023
2018,5,1,22,40,33.939,-0.091,0.9938,-0.0629,0.0017,-0.6,0.1,0.9,0.005,-0.009,0.002,1023
2018,5,1,22,40,33.956,-0.091,0.9938,-0.0628,0.0016,-0.6,0,1,0.003,-0.013,-0.007,1023
2018,5,1,22,40,33.98,-0.0911,0.9938,-0.0626,0.0016,-0.1,0,1,0.001,-0.01,-0.002,1023
2018,5,1,22,40,33.997,-0.0911,0.9938,-0.0624,0.0015,-0.6,0.3,0.9,0.005,-0.016,0.001,0
2018,5,1,22,40,34.019,-0.0911,0.9938,-0.0623,0.0015,-1.7,-0.1,0.9,0.004,-0.016,0.004,0
2018,5,1,22,40,34.039,-0.0908,0.9939,-0.0621,0.0015,-2.6,-0.1,0.6,0.004,-0.014,0,0
2018,5,1,22,40,34.06,-0.0904,0.9939,-0.062,0.0014,-3.1,0,0.7,0.004,-0.01,0.001,0
2018,5,1,22,40,34.097,-0.09,0.994,-0.0618,0.0014,-2.5,0,0.8,0.003,-0.012,0,0
2018,5,1,22,40,34.119,-0.0897,0.994,-0.0617,0.0014,-2.3,0,0.8,0.003,-0.01,-0.002,0
2018,5,1,22,40,34.123,-0.0894,0.994,-0.0616,0.0013,-1.8,0,0.8,0.004,-0.01,0.001,0
2018,5,1,22,40,34.141,-0.0893,0.9941,-0.0614,0.0013,-1.2,-0.1,1,0.003,-0.013,0,0
2018,5,1,22,40,34.161,-0.0892,0.9941,-0.0613,0.0013,-1,0,0.9,0.002,-0.014,0.001,0
2018,5,1,22,40,34.178,-0.0891,0.9941,-0.0611,0.0013,-1.2,0,0.9,0.001,-0.013,-0.002,0
2018,5,1,22,40,34.198,-0.0891,0.9941,-0.061,0.0013,-0.5,0,0.8,0.002,-0.01,-0.001,0
2018,5,1,22,40,34.236,-0.0891,0.9941,-0.0608,0.0012,-0.1,0.1,0.9,0.004,-0.013,0,0
2018,5,1,22,40,34.257,-0.0892,0.9941,-0.0606,0.0012,0,0,0.7,-0.001,-0.011,0.002,0
2018,5,1,22,40,34.26,-0.0894,0.9941,-0.0605,0.0012,0,0.3,0.8,0.003,-0.013,0.004,0
2018,5,1,22,40,34.281,-0.0895,0.9941,-0.0603,0.0011,-0.1,0.3,0.9,0.002,-0.014,-0.001,0
2018,5,1,22,40,34.301,-0.0895,0.9941,-0.0602,0.0011,-0.7,0.3,1,0.003,-0.012,-0.002,0
2018,5,1,22,40,34.34,-0.0895,0.9941,-0.06,0.001,-0.8,0.3,0.9,0.002,-0.009,0,0
2018,5,1,22,40,34.361,-0.0895,0.9941,-0.0599,0.001,-0.6,0.1,0.7,0.006,-0.012,0.001,0
2018,5,1,22,40,34.365,-0.0895,0.9941,-0.0597,0.001,-0.9,0,1,0.002,-0.013,0,0
2018,5,1,22,40,34.38,-0.0894,0.9942,-0.0595,0.0009,-1.4,0,1,0.002,-0.008,0.001,0
2018,5,1,22,40,34.417,-0.0892,0.9942,-0.0594,0.0009,-1.7,0,0.8,0.005,-0.013,0,0
2018,5,1,22,40,34.439,-0.089,0.9942,-0.0592,0.0009,-2,0,0.9,0.005,-0.012,0,0
2018,5,1,22,40,34.443,-0.0888,0.9942,-0.059,0.0008,-1.5,0,1.1,0.006,-0.01,-0.003,0
2018,5,1,22,40,34.462,-0.0887,0.9943,-0.0588,0.0008,-0.7,0,0.8,0,-0.008,0,0
2018,5,1,22,40,34.482,-0.0887,0.9943,-0.0587,0.0008,-0.1,-0.1,1.2,0.002,-0.011,-0.003,1023
2018,5,1,22,40,34.501,-0.0888,0.9943,-0.0585,0.0008,-0.2,0,1,0.002,-0.013,0.003,1023
2018,5,1,22,40,34.521,-0.0889,0.9943,-0.0583,0.0008,-0.4,-0.1,1.1,0.004,-0.013,0.002,1023
2018,5,1,22,40,34.56,-0.0888,0.9943,-0.0581,0.0008,-1.4,-0.2,0.9,0,-0.011,0.002,1023
2018,5,1,22,40,34.58,-0.0885,0.9943,-0.0579,0.0009,-2.9,-0.1,0.7,0,-0.009,-0.001,1023
2018,5,1,22,40,34.585,-0.0882,0.9944,-0.0578,0.0009,-2,0,0.8,0.004,-0.008,-0.002,1023
2018,5,1,22,40,34.603,-0.088,0.9944,-0.0576,0.0009,-0.7,0,0.9,0.001,-0.012,-0.002,1023
2018,5,1,22,40,34.623,-0.088,0.9944,-0.0575,0.0009,-0.2,0.1,0.9,0.001,-0.008,-0.004,1023
2018,5,1,22,40,34.641,-0.0881,0.9944,-0.0573,0.0008,-0.4,0.4,0.6,0.003,-0.012,-0.001,0
2018,5,1,22,40,34.678,-0.0881,0.9944,-0.0572,0.0007,-1.3,0,0.7,0.005,-0.009,-0.002,0
2018,5,1,22,40,34.698,-0.0879,0.9944,-0.0571,0.0007,-1.4,0,0.7,0.002,-0.011,-0.005,0
2018,5,1,22,40,34.702,-0.0877,0.9945,-0.0569,0.0007,-1.2,0.2,0.9,0.002,-0.008,0,0
2018,5,1,22,40,34.722,-0.0877,0.9945,-0.0568,0.0006,-0.8,0.1,1,0.001,-0.01,-0.004,0
2018,5,1,22,40,34.746,-0.0877,0.9945,-0.0566,0.0006,-0.4,0.1,0.8,0,-0.011,-0.001,0
2018,5,1,22,40,34.764,-0.0877,0.9945,-0.0565,0.0005,-0.2,0.3,0.7,0.004,-0.011,-0.002,0
2018,5,1,22,40,34.791,-0.0878,0.9945,-0.0564,0.0005,0,0,0,0.006,-0.011,0.006,0
2018,5,1,22,40,34.805,-0.0878,0.9945,-0.0564,0.0004,-0.6,0.2,0.5,0,-0.007,0.002,0
2018,5,1,22,40,34.843,-0.0878,0.9945,-0.0563,0.0003,-0.2,0.2,0.5,0.003,-0.013,0.002,0
2018,5,1,22,40,34.863,-0.0878,0.9945,-0.0562,0.0003,-0.6,0.1,0.7,0,-0.012,0.003,0
2018,5,1,22,40,34.864,-0.0877,0.9945,-0.056,0.0002,-1.5,0,0.7,0.003,-0.005,-0.002,0
2018,5,1,22,40,34.881,-0.0876,0.9945,-0.0559,0.0002,-1.1,-0.1,0.5,0,-0.008,-0.004,0
2018,5,1,22,40,34.899,-0.0875,0.9945,-0.0558,0.0002,-0.7,0.3,0.5,0.002,-0.009,-0.003,0
2018,5,1,22,40,34.936,-0.0874,0.9946,-0.0557,0.0001,-1,0,0.8,0.001,-0.01,0.006,0
2018,5,1,22,40,34.957,-0.0874,0.9946,-0.0556,0.0001,-1,0,0.9,0.001,-0.011,0,0
2018,5,1,22,40,34.964,-0.0873,0.9946,-0.0554,0.0001,-0.9,0,0.9,0.005,-0.011,-0.004,0
2018,5,1,22,40,35.001,-0.0872,0.9946,-0.0552,0.0001,-0.6,0.1,0.9,0.001,-0.007,0,0
2018,5,1,22,40,35.023,-0.0872,0.9946,-0.0551,0.0001,-1.3,0,0.8,0.002,-0.01,0.002,0
2018,5,1,22,40,35.027,-0.0871,0.9946,-0.0549,0.0001,-1.2,0,0.8,0.002,-0.011,-0.006,0
2018,5,1,22,40,35.048,-0.087,0.9946,-0.0548,0,-0.9,0.1,0.8,0,-0.011,0,0
2018,5,1,22,40,35.068,-0.087,0.9947,-0.0546,0,-0.6,0.1,1.1,0.003,-0.01,-0.001,0
2018,5,1,22,40,35.083,-0.087,0.9947,-0.0544,0,-0.4,0,1,0.002,-0.01,-0.001,0
2018,5,1,22,40,35.104,-0.0871,0.9947,-0.0543,0,0,0.1,0.8,0.003,-0.011,0,1023
2018,5,1,22,40,35.126,-0.0872,0.9947,-0.0541,0,0,0,0.8,0,-0.011,0,1023
2018,5,1,22,40,35.145,-0.0872,0.9947,-0.054,0,-1.2,0,0.7,0.001,-0.01,-0.002,1023
2018,5,1,22,40,35.166,-0.0869,0.9947,-0.0538,0,-1.8,0,0.7,0.001,-0.009,-0.002,1023
2018,5,1,22,40,35.201,-0.0867,0.9947,-0.0537,0,-1.5,0,0.7,0.002,-0.005,-0.001,1023
2018,5,1,22,40,35.222,-0.0866,0.9947,-0.0536,0,-1.5,-0.1,0.8,0,-0.01,-0.005,1023
2018,5,1,22,40,35.226,-0.0864,0.9948,-0.0534,0,-1.6,0,0.8,0.002,-0.009,-0.001,1023
2018,5,1,22,40,35.246,-0.0862,0.9948,-0.0533,0,-1.3,-0.2,0.8,0.003,-0.008,-0.004,1023
2018,5,1,22,40,35.285,-0.0861,0.9948,-0.0531,0,0,0,1,-0.002,-0.009,-0.006,1023
2018,5,1,22,40,35.307,-0.0863,0.9948,-0.053,0,1.1,0.3,0.9,0,-0.012,0.002,0
2018,5,1,22,40,35.311,-0.0865,0.9948,-0.0528,-0.0001,-0.7,0,0.8,0,-0.011,0.007,0
2018,5,1,22,40,35.328,-0.0863,0.9948,-0.0527,0,-2.4,-0.2,0.9,0.002,-0.013,0,0
2018,5,1,22,40,35.346,-0.086,0.9949,-0.0525,0,-2.3,0,0.8,0,-0.008,-0.005,0
2018,5,1,22,40,35.382,-0.0858,0.9949,-0.0524,0,-0.7,0,1,0.001,-0.01,-0.002,0
2018,5,1,22,40,35.404,-0.0858,0.9949,-0.0522,0,0.1,0.1,0.9,0.002,-0.01,0,0
2018,5,1,22,40,35.408,-0.0859,0.9949,-0.052,0,-0.2,0,0.7,0,-0.01,0,0
2018,5,1,22,40,35.427,-0.0859,0.9949,-0.0519,0,-0.5,0,0.5,0.002,-0.007,0.001,0
2018,5,1,22,40,35.447,-0.086,0.9949,-0.0518,0,0.7,0,0.5,0.003,-0.01,-0.005,0
2018,5,1,22,40,35.486,-0.0863,0.9949,-0.0517,-0.0001,1.2,0.1,0.6,0,-0.008,0,0
2018,5,1,22,40,35.506,-0.0865,0.9949,-0.0516,-0.0001,0,0.1,0.8,0.001,-0.014,0.002,0
2018,5,1,22,40,35.51,-0.0865,0.9949,-0.0514,-0.0001,-1.3,-0.1,0.8,0.003,-0.01,0.003,0
2018,5,1,22,40,35.53,-0.0863,0.9949,-0.0513,-0.0001,-1.6,0,0.8,0,-0.01,-0.002,0
2018,5,1,22,40,35.549,-0.0862,0.9949,-0.0512,-0.0001,-0.9,0.2,1.1,0.001,-0.007,-0.002,0
2018,5,1,22,40,35.566,-0.0861,0.9949,-0.051,-0.0001,-0.7,-0.1,1.1,0.004,-0.011,0.001,0
2018,5,1,22,40,35.586,-0.086,0.9949,-0.0508,-0.0001,-1.8,-0.1,1,0.002,-0.01,0.001,0
2018,5,1,22,40,35.624,-0.0857,0.995,-0.0506,-0.0001,-2.4,-0.2,1,0,-0.01,-0.004,0
2018,5,1,22,40,35.644,-0.0854,0.995,-0.0504,0,-2.1,-0.2,1,0.002,-0.008,-0.003,0
2018,5,1,22,40,35.648,-0.0858,0.995,-0.0505,-0.0001,12.9,1.1,0.2,-0.003,0.079,0.023,0
2018,5,1,22,40,35.686,-0.0856,0.995,-0.0503,0,-3.1,-0.4,1,0,-0.014,-0.028,0
2018,5,1,22,40,35.708,-0.0854,0.995,-0.0502,0,-1.6,-0.1,0.6,0,-0.002,0.012,0
2018,5,1,22,40,35.712,-0.0852,0.995,-0.0501,0,-1,0.1,0.8,0.004,-0.012,-0.01,0
2018,5,1,22,40,35.73,-0.0852,0.9951,-0.0499,0,-0.7,0,0.9,0,-0.008,0.005,0
2018,5,1,22,40,35.749,-0.085,0.9951,-0.0498,0,-2,-0.4,0.5,0.002,-0.01,-0.003,1023
2018,5,1,22,40,35.787,-0.0847,0.9951,-0.0497,0,-2.6,-0.4,0.4,0.003,-0.013,-0.01,1023
2018,5,1,22,40,35.808,-0.0845,0.9951,-0.0496,0.0001,-1.6,-0.1,0.7,0.004,-0.011,-0.005,1023
2018,5,1,22,40,35.812,-0.0843,0.9952,-0.0495,0.0001,-1,-0.2,1.1,0.002,-0.009,0,1023
2018,5,1,22,40,35.83,-0.0842,0.9952,-0.0493,0.0001,-1.2,-0.2,1.1,0.005,-0.008,0.002,1023
2018,5,1,22,40,35.866,-0.084,0.9952,-0.0491,0.0001,-2,-0.2,1,0.001,-0.017,0,1023
2018,5,1,22,40,35.885,-0.0843,0.9952,-0.0491,0.0002,-5.5,-1,0.5,-0.02,-0.018,0.001,1023
2018,5,1,22,40,35.888,-0.0836,0.9952,-0.049,0.0003,-3.8,-0.9,1.3,0.008,0.002,0.004,1023
2018,5,1,22,40,35.927,-0.0832,0.9953,-0.0488,0.0004,-1.3,-0.3,1,-0.004,-0.009,-0.008,1023
2018,5,1,22,40,35.948,-0.0832,0.9953,-0.0486,0.0004,0,0,0.9,0.003,-0.011,-0.001,0
2018,5,1,22,40,35.951,-0.0832,0.9953,-0.0485,0.0004,-1.6,-0.1,0.7,0.005,-0.011,0.002,0
2018,5,1,22,40,35.972,-0.0828,0.9953,-0.0484,0.0004,-4.4,-0.4,0.4,0,-0.014,0,0
2018,5,1,22,40,35.992,-0.0821,0.9954,-0.0483,0.0004,-4.8,-0.2,0.3,0.002,-0.01,0,0
2018,5,1,22,40,36.014,-0.0814,0.9955,-0.0483,0.0004,-4.3,-0.1,0.2,0.002,-0.006,0.002,0
2018,5,1,22,40,36.035,-0.0807,0.9955,-0.0483,0.0004,-5.1,-0.2,0,0,-0.011,0.005,0
2018,5,1,22,40,36.052,-0.0805,0.9955,-0.0485,0.0005,-3.1,-1.2,0.1,-0.053,0.097,0.016,0
2018,5,1,22,40,36.069,-0.079,0.9956,-0.0485,0.0005,-9,-0.4,-0.1,0,-0.012,-0.003,0
2018,5,1,22,40,36.09,-0.0774,0.9958,-0.0486,0.0006,-9.9,-0.9,0.1,0.004,-0.008,0,0
2018,5,1,22,40,36.108,-0.0765,0.9958,-0.0487,0.0006,-1.3,-0.7,-0.2,-0.032,0.07,0.004,0
2018,5,1,22,40,36.152,-0.0753,0.9959,-0.0486,0.0007,-6.8,-0.7,1,0.006,-0.005,0.002,0
2018,5,1,22,40,36.17,-0.0745,0.996,-0.0485,0.0008,-4.1,-0.5,0.7,0,-0.011,-0.012,0
2018,5,1,22,40,36.175,-0.074,0.996,-0.0484,0.0008,-2.9,0,0.6,0.002,-0.007,-0.002,0
2018,5,1,22,40,36.195,-0.0737,0.9961,-0.0482,0.0008,-1.2,0.1,0.9,0,-0.009,-0.002,0
2018,5,1,22,40,36.216,-0.0736,0.9961,-0.0481,0.0008,-1.3,0,0.9,0.004,-0.007,-0.002,0
2018,5,1,22,40,36.235,-0.0735,0.9961,-0.0479,0.0008,-1.3,0,0.7,0,-0.013,-0.005,0
2018,5,1,22,40,36.251,-0.0734,0.9961,-0.0478,0.0007,-1,0,0.9,0,-0.011,0.001,0
2018,5,1,22,40,36.29,-0.0733,0.9961,-0.0476,0.0007,-1,0,0.8,0.002,-0.009,0.001,0
2018,5,1,22,40,36.311,-0.0732,0.9961,-0.0475,0.0007,-1.3,0,0.8,0.004,-0.012,-0.006,0
2018,5,1,22,40,36.315,-0.073,0.9962,-0.0473,0.0007,-1.6,0,0.8,0,-0.011,0,0
2018,5,1,22,40,36.334,-0.0728,0.9962,-0.0472,0.0007,-1.8,-0.1,0.8,0.001,-0.011,-0.002,0
2018,5,1,22,40,36.353,-0.0725,0.9962,-0.0471,0.0006,-2.9,-0.1,0.5,0.005,-0.007,-0.002,0
2018,5,1,22,40,36.391,-0.072,0.9962,-0.047,0.0006,-2.9,0,0.5,0.002,-0.012,0.004,0
2018,5,1,22,40,36.411,-0.0716,0.9963,-0.0469,0.0006,-3,-0.1,0.7,0.002,-0.011,-0.004,1023
2018,5,1,22,40,36.416,-0.0711,0.9963,-0.0468,0.0006,-4.3,-0.1,0.2,0,-0.011,0.003,1023
2018,5,1,22,40,36.434,-0.0703,0.9964,-0.0468,0.0006,-5.5,-0.2,0,0.001,-0.014,0,1023
2018,5,1,22,40,36.455,-0.0697,0.9964,-0.0469,0.0006,0.1,0.3,-3.9,0.077,-0.152,0.012,1023
2018,5,1,22,40,36.476,-0.0687,0.9965,-0.047,0.0007,-9.1,-0.7,0,-0.001,-0.013,-0.009,1023
2018,5,1,22,40,36.495,-0.0672,0.9966,-0.047,0.0007,-10.8,-0.4,0,-0.002,-0.01,0.007,1023
2018,5,1,22,40,36.515,-0.0653,0.9967,-0.0472,0.0007,-11.4,-0.3,-0.9,-0.001,-0.021,0.001,1023
2018,5,1,22,40,36.535,-0.0636,0.9968,-0.0474,0.0007,-12.4,-0.4,-0.3,0.005,-0.009,-0.012,1023
2018,5,1,22,40,36.554,-0.0618,0.9969,-0.0475,0.0007,-8.5,0,0,0.004,-0.009,-0.01,1023
2018,5,1,22,40,36.592,-0.0607,0.997,-0.0474,0.0006,-4.8,0.2,0.2,0.004,-0.01,-0.008,0
2018,5,1,22,40,36.614,-0.0602,0.997,-0.0473,0.0005,-3.2,0,1,0.003,-0.008,0.001,0
2018,5,1,22,40,36.618,-0.0596,0.997,-0.0472,0.0005,-3.8,0,0.8,0.001,-0.009,-0.006,0
2018,5,1,22,40,36.637,-0.0591,0.9971,-0.047,0.0005,-3.5,0.2,0.8,0.004,-0.009,0,0
2018,5,1,22,40,36.658,-0.0586,0.9971,-0.0469,0.0004,-3.1,0.1,1,0.002,-0.009,-0.004,0
2018,5,1,22,40,36.678,-0.0582,0.9972,-0.0467,0.0003,-2.4,0,0.9,0.003,-0.007,-0.001,0
2018,5,1,22,40,36.715,-0.058,0.9972,-0.0466,0.0003,-1.3,0.2,0.7,0.002,-0.007,-0.004,0
2018,5,1,22,40,36.736,-0.058,0.9972,-0.0464,0.0002,0,0.1,0.5,0,-0.008,-0.004,0
2018,5,1,22,40,36.74,-0.058,0.9972,-0.0463,0.0002,-0.4,0,0.8,0.003,-0.008,0,0
2018,5,1,22,40,36.755,-0.058,0.9972,-0.0462,0.0002,-0.4,-0.1,0.8,0.001,-0.006,-0.001,0
2018,5,1,22,40,36.776,-0.0581,0.9972,-0.046,0.0002,0.1,-0.1,0.8,0.003,-0.011,-0.006,0
2018,5,1,22,40,36.796,-0.0582,0.9972,-0.0458,0.0002,-0.4,-0.2,1,0,-0.011,-0.001,0
2018,5,1,22,40,36.815,-0.0581,0.9972,-0.0456,0.0002,-0.7,-0.1,1,0,-0.012,-0.007,0
2018,5,1,22,40,36.834,-0.0581,0.9972,-0.0455,0.0002,-0.1,0.1,1,0.005,-0.009,-0.002,0
2018,5,1,22,40,36.872,-0.0582,0.9972,-0.0453,0.0002,0.1,0,1.1,0.003,-0.01,-0.004,0
2018,5,1,22,40,36.893,-0.0583,0.9972,-0.0451,0.0002,-0.2,0.1,1.2,0,-0.012,-0.002,0
2018,5,1,22,40,36.896,-0.0583,0.9972,-0.0449,0.0002,-1.5,0,0.9,0,-0.01,-0.001,0
2018,5,1,22,40,36.934,-0.058,0.9973,-0.0448,0.0002,-2.4,0,0.8,0,-0.01,0,0
2018,5,1,22,40,36.954,-0.0573,0.9973,-0.0445,0.0001,-1.9,0,0.7,0.001,-0.011,-0.002,0
2018,5,1,22,40,36.956,-0.0571,0.9973,-0.0443,0.0001,-1.8,0,0.7,0.001,-0.012,0.001,0
2018,5,1,22,40,36.994,-0.0568,0.9974,-0.0442,0.0001,-3.5,0,0.4,0.003,-0.01,0.006,0
2018,5,1,22,40,37.014,-0.0561,0.9974,-0.0441,0.0001,-3.7,-0.2,0.5,0.003,-0.006,-0.007,0
2018,5,1,22,40,37.017,-0.0557,0.9974,-0.044,0,-1.5,-0.2,0.7,0.004,-0.01,-0.008,0
2018,5,1,22,40,37.055,-0.0557,0.9974,-0.0439,0,-0.1,-0.1,0.8,0.002,-0.009,-0.006,1023
2018,5,1,22,40,37.074,-0.0557,0.9974,-0.0437,0.0001,-1.2,-0.4,1.2,0.002,-0.012,0.004,1023
2018,5,1,22,40,37.077,-0.0555,0.9975,-0.0435,0.0001,-2.4,-0.3,1,0.002,-0.013,-0.002,1023
2018,5,1,22,40,37.097,-0.0552,0.9975,-0.0433,0.0002,-2.2,-0.4,1,0,-0.007,-0.003,1023
2018,5,1,22,40,37.116,-0.0549,0.9975,-0.0431,0.0003,-1.8,-0.4,1,0,-0.008,-0.01,1023
2018,5,1,22,40,37.152,-0.0547,0.9975,-0.043,0.0003,-1.4,-0.2,0.9,0,-0.006,0,1023
2018,5,1,22,40,37.171,-0.0546,0.9975,-0.0428,0.0003,-0.7,-0.1,1.1,-0.002,-0.01,-0.002,1023
2018,5,1,22,40,37.179,-0.0545,0.9975,-0.0426,0.0003,-0.7,0,0.7,0,-0.011,-0.003,1023
2018,5,1,22,40,37.215,-0.0545,0.9976,-0.0425,0.0003,-1.3,0.1,0.7,0.003,-0.012,-0.002,1023
2018,5,1,22,40,37.236,-0.0542,0.9976,-0.0424,0.0003,-2.4,-0.2,0.7,0.002,-0.01,0.001,0
2018,5,1,22,40,37.237,-0.0539,0.9976,-0.0422,0.0003,-2.4,0,0.8,0.001,-0.008,-0.004,0
2018,5,1,22,40,37.276,-0.0536,0.9976,-0.0421,0.0002,-1.2,0.1,0.8,0.003,-0.005,-0.007,0
2018,5,1,22,40,37.297,-0.0536,0.9976,-0.0419,0.0002,-0.1,0.3,1,0,-0.006,-0.002,0
2018,5,1,22,40,37.301,-0.0537,0.9976,-0.0418,0.0002,-0.8,0,0.9,0,-0.013,-0.003,0
2018,5,1,22,40,37.32,-0.0535,0.9976,-0.0416,0.0002,-1.6,-0.2,1,0.001,-0.008,-0.006,0
2018,5,1,22,40,37.339,-0.0533,0.9977,-0.0414,0.0002,-1.4,-0.3,0.8,0.003,-0.011,-0.004,0
2018,5,1,22,40,37.361,-0.0533,0.9977,-0.0411,0.0003,0.1,-0.2,1,0.001,-0.01,-0.005,0
2018,5,1,22,40,37.382,-0.0534,0.9977,-0.0409,0.0003,0.3,-0.1,1.2,0,-0.01,-0.006,0
2018,5,1,22,40,37.401,-0.0535,0.9977,-0.0407,0.0003,-0.3,0,1,0.002,-0.011,0.003,0
2018,5,1,22,40,37.421,-0.0535,0.9977,-0.0405,0.0004,-1,0,0.8,0,-0.009,-0.011,0
2018,5,1,22,40,37.439,-0.0535,0.9977,-0.0404,0.0004,-0.1,0.1,0.6,0.001,-0.007,-0.007,0
2018,5,1,22,40,37.459,-0.0536,0.9977,-0.0402,0.0003,0.8,0.3,1,0.002,-0.009,-0.007,0
2018,5,1,22,40,37.479,-0.0539,0.9977,-0.04,0.0003,1.1,0.3,1.2,0,-0.009,-0.003,0
2018,5,1,22,40,37.518,-0.0542,0.9977,-0.0398,0.0002,1.5,0.3,1,0.001,-0.009,-0.003,0
2018,5,1,22,40,37.535,-0.0545,0.9977,-0.0396,0.0001,0.6,0.3,1,0.001,-0.011,0.001,0
2018,5,1,22,40,37.54,-0.0546,0.9977,-0.0394,0.0001,-0.7,0.1,0.8,0,-0.01,0.002,0
2018,5,1,22,40,37.578,-0.0545,0.9977,-0.0391,0.0001,0,0.2,1,0.001,-0.006,0,0
2018,5,1,22,40,37.599,-0.0546,0.9977,-0.039,0.0001,-0.2,0,1,0,-0.011,0,0
2018,5,1,22,40,37.603,-0.0546,0.9977,-0.0388,0.0001,-1.4,0,0.8,-0.001,-0.011,-0.001,0
2018,5,1,22,40,37.624,-0.0544,0.9977,-0.0386,0.0001,-1.3,-0.2,0.9,-0.002,-0.007,0.001,0
2018,5,1,22,40,37.644,-0.0543,0.9977,-0.0385,0.0002,-0.8,-0.2,0.9,-0.001,-0.008,-0.004,0
2018,5,1,22,40,37.662,-0.0542,0.9977,-0.0383,0.0002,-1.1,-0.1,0.8,0.001,-0.008,0,0
2018,5,1,22,40,37.68,-0.0541,0.9978,-0.0382,0.0002,-1.1,0,0.8,0.001,-0.01,0,0
2018,5,1,22,40,37.701,-0.0539,0.9978,-0.038,0.0002,-0.9,0,0.8,0,-0.008,0,1023
2018,5,1,22,40,37.735,-0.0539,0.9978,-0.0378,0.0002,0.1,0,1,0.001,-0.01,-0.008,1023
2018,5,1,22,40,37.755,-0.0541,0.9978,-0.0377,0.0002,0.4,0.1,1,0.003,-0.006,0.004,1023
2018,5,1,22,40,37.764,-0.0544,0.9978,-0.0375,0.0001,1.4,0.1,1,0.001,-0.01,-0.004,1023
2018,5,1,22,40,37.802,-0.0548,0.9977,-0.0374,0.0001,1.3,0.6,0.6,0,-0.009,0,1023
2018,5,1,22,40,37.82,-0.0551,0.9977,-0.0372,0,1,0.6,0.5,0.001,-0.01,0,1023
2018,5,1,22,40,37.825,-0.0552,0.9977,-0.0371,0,-1,0.1,0.7,0,-0.01,0.003,1023
2018,5,1,22,40,37.844,-0.055,0.9977,-0.037,0,-2,0,0.8,0,-0.01,-0.005,1023
2018,5,1,22,40,37.864,-0.0548,0.9978,-0.0368,-0.0001,-1.2,0.1,0.9,0.002,-0.01,-0.003,1023
2018,5,1,22,40,37.902,-0.0548,0.9978,-0.0366,-0.0001,-0.5,0,1,0,-0.008,0,0
2018,5,1,22,40,37.921,-0.0547,0.9978,-0.0365,-0.0001,-0.5,0.1,1,0,-0.012,-0.003,0
2018,5,1,22,40,37.924,-0.0547,0.9978,-0.0363,-0.0002,-0.6,0.1,0.9,0.003,-0.007,-0.003,0
2018,5,1,22,40,37.94,-0.0547,0.9978,-0.0361,-0.0002,-0.1,0,1,0,-0.009,-0.001,0
2018,5,1,22,40,37.961,-0.0549,0.9978,-0.036,-0.0002,1.3,0,0.8,0.004,-0.005,-0.003,0
2018,5,1,22,40,37.997,-0.0554,0.9978,-0.0358,-0.0002,2.4,0.1,1,0.002,-0.01,0,0
2018,5,1,22,40,38.02,-0.0559,0.9977,-0.0356,-0.0002,2.4,0.1,1.1,0,-0.013,-0.001,0
2018,5,1,22,40,38.024,-0.0564,0.9977,-0.0354,-0.0002,2,0,1,0,-0.008,-0.001,0
2018,5,1,22,40,38.061,-0.0568,0.9977,-0.0352,-0.0002,2.1,0.3,1,0,-0.01,-0.013,0
2018,5,1,22,40,38.081,-0.0575,0.9977,-0.035,-0.0002,4.2,0.2,1.2,0,-0.006,0.003,0
2018,5,1,22,40,38.085,-0.0584,0.9976,-0.0348,-0.0001,5.3,0.1,1.4,-0.002,-0.011,-0.001,0
2018,5,1,22,40,38.125,-0.0594,0.9976,-0.0345,-0.0001,4,0.2,1.7,0.001,-0.01,-0.001,0
2018,5,1,22,40,38.129,-0.06,0.9976,-0.0342,-0.0002,1.6,0.6,1.4,-0.002,-0.011,0,0
2018,5,1,22,40,38.147,-0.0602,0.9976,-0.0339,-0.0003,-0.1,0.2,1.1,0.003,-0.007,0.003,0
2018,5,1,22,40,38.165,-0.0602,0.9976,-0.0338,-0.0003,-0.3,0.1,0.9,0,-0.007,-0.005,0
2018,5,1,22,40,38.184,-0.0603,0.9976,-0.0336,-0.0003,-0.1,0.4,1,-0.002,-0.01,0,0
2018,5,1,22,40,38.223,-0.0603,0.9976,-0.0334,-0.0003,-0.8,0.3,0.8,0,-0.009,0.005,0
2018,5,1,22,40,38.242,-0.0602,0.9976,-0.0333,-0.0004,-1.3,0,0.9,0.002,-0.008,0.006,0
2018,5,1,22,40,38.246,-0.06,0.9976,-0.0332,-0.0004,-1.4,0,0.4,0.001,-0.009,0,0
2018,5,1,22,40,38.268,-0.0599,0.9976,-0.033,-0.0004,-0.6,0,0.7,0.001,-0.01,-0.005,0
2018,5,1,22,40,38.288,-0.0599,0.9976,-0.0329,-0.0004,-0.2,-0.1,1.1,0.004,-0.007,0.004,0
2018,5,1,22,40,38.325,-0.0599,0.9976,-0.0327,-0.0004,-0.7,-0.1,0.9,-0.002,-0.008,-0.011,0
2018,5,1,22,40,38.345,-0.06,0.9976,-0.0326,-0.0003,0.9,-0.2,1.1,0.001,-0.005,-0.003,0
2018,5,1,22,40,38.349,-0.0603,0.9976,-0.0323,-0.0003,1.5,-0.1,1.5,-0.001,-0.007,-0.005,0
2018,5,1,22,40,38.363,-0.0606,0.9976,-0.0321,-0.0002,1.9,0,1.3,-0.001,-0.006,-0.003,1023
2018,5,1,22,40,38.403,-0.0611,0.9976,-0.0319,-0.0002,2.7,-0.2,1.1,0,-0.009,-0.012,1023
2018,5,1,22,40,38.424,-0.0618,0.9975,-0.0317,-0.0002,3.9,0,1.6,0.002,-0.01,-0.008,1023
2018,5,1,22,40,38.428,-0.0626,0.9975,-0.0314,-0.0002,3.4,0.4,1.7,-0.003,-0.008,-0.001,1023
2018,5,1,22,40,38.447,-0.0632,0.9975,-0.0311,-0.0002,1.4,0.1,0.8,0,-0.01,0.006,1023
2018,5,1,22,40,38.466,-0.0634,0.9975,-0.031,-0.0002,0.4,-0.1,0.5,0.001,-0.011,-0.001,1023
2018,5,1,22,40,38.506,-0.0636,0.9974,-0.0309,-0.0002,0.6,0,1.1,0,-0.007,-0.002,1023
2018,5,1,22,40,38.525,-0.0638,0.9974,-0.0306,-0.0002,-0.2,0.2,1.2,0,-0.007,0.004,1023
2018,5,1,22,40,38.529,-0.0637,0.9975,-0.0305,-0.0002,-1.6,-0.3,0.7,0.001,-0.01,0,0
2018,5,1,22,40,38.547,-0.0633,0.9975,-0.0302,-0.0001,-1.4,-0.2,1.2,-0.001,-0.009,0.002,0
2018,5,1,22,40,38.567,-0.0631,0.9975,-0.03,-0.0001,-1.6,0,1.3,0,-0.009,-0.003,0
2018,5,1,22,40,38.608,-0.0646,0.9974,-0.0287,0.0005,-2,-0.2,1,0,-0.005,0,0
2018,5,1,22,40,38.612,-0.0678,0.9973,-0.0263,0.0017,-0.2,-0.1,1.1,-0.002,-0.007,-0.007,0
2018,5,1,22,40,38.628,-0.0711,0.9971,-0.024,0.0029,0,-0.1,1.4,0.001,-0.008,0.006,0
2018,5,1,22,40,38.648,-0.0741,0.997,-0.0217,0.004,-1.6,-0.3,1.1,-0.003,-0.012,-0.001,0
2018,5,1,22,40,38.684,-0.0769,0.9968,-0.0194,0.0052,-1.8,-0.3,1.3,-0.001,-0.011,-0.006,0
2018,5,1,22,40,38.704,-0.0796,0.9966,-0.0172,0.0062,-0.6,-0.1,1.3,-0.003,-0.006,0.003,0
2018,5,1,22,40,38.708,-0.0823,0.9964,-0.0151,0.0071,-0.9,0,1.1,-0.001,-0.007,-0.005,0
2018,5,1,22,40,38.742,-0.0848,0.9962,-0.0131,0.008,-0.7,0,1,0,-0.009,-0.002,0
2018,5,1,22,40,38.764,-0.0873,0.996,-0.011,0.0088,-1.2,0,1.3,0,-0.01,0,0
2018,5,1,22,40,38.769,-0.0896,0.9958,-0.0089,0.0095,-1.8,0,0.8,0,-0.01,-0.001,0
2018,5,1,22,40,38.79,-0.0916,0.9957,-0.0071,0.0102,-1.7,0,0.6,0.003,-0.006,-0.003,0
2018,5,1,22,40,38.809,-0.0936,0.9955,-0.0052,0.0108,-1.6,-0.1,1,0.001,-0.008,-0.004,0
2018,5,1,22,40,38.829,-0.0975,0.9951,-0.0015,0.012,-2,-0.1,0.8,0,-0.01,0,0
2018,5,1,22,40,38.849,-0.0991,0.9949,0.0001,0.0126,-2.4,-0.2,0.8,0.001,-0.008,0.001,0
2018,5,1,22,40,38.888,-0.1007,0.9948,0.0018,0.0132,-2.3,-0.4,1,0.001,-0.009,-0.001,0
2018,5,1,22,40,38.893,-0.1024,0.9946,0.0036,0.0139,-2.3,-0.6,1,-0.001,-0.011,-0.002,0
2018,5,1,22,40,38.907,-0.1038,0.9944,0.0053,0.0144,-2.3,-0.6,0.7,0,-0.011,-0.007,0
2018,5,1,22,40,38.943,-0.1052,0.9943,0.0069,0.0149,-2.7,-0.5,0.8,0,-0.009,-0.003,0
2018,5,1,22,40,38.965,-0.1064,0.9941,0.0085,0.0155,-2.3,-1.3,1.1,0,-0.007,-0.009,0
2018,5,1,22,40,38.967,-0.1078,0.9939,0.0101,0.016,-1,-1,1,0.002,-0.005,0,0
