time_1,time_2,time_3,time_4,time_5,time_6,w,x,y,z,droll,dpitch,dyaw,ax,ay,az,heart
2018,4,13,16,42,31.912,-0.0944,0.4218,0.139,-0.8909,-0.5,0.4,0.3,-0.006,-0.003,-0.003,0
2018,4,13,16,42,31.935,-0.0944,0.4218,0.1391,-0.8909,0,0,0,-0.012,0,0,0
2018,4,13,16,42,31.94,-0.0945,0.4217,0.1391,-0.8909,0,0,0,-0.013,0.005,-0.013,0
2018,4,13,16,42,31.973,-0.0945,0.4217,0.1391,-0.8909,0,0,0,-0.012,0.003,-0.002,0
2018,4,13,16,42,31.996,-0.0945,0.4217,0.1391,-0.8909,-0.4,0,0.5,-0.009,0,-0.002,0
2018,4,13,16,42,32,-0.0946,0.4217,0.1392,-0.8909,-0.6,0,0.6,-0.004,-0.001,-0.005,0
2018,4,13,16,42,32.035,-0.0948,0.4217,0.1394,-0.8909,-0.5,0.1,0.6,-0.002,-0.005,-0.008,0
2018,4,13,16,42,32.057,-0.0948,0.4216,0.1396,-0.8909,0,0.4,0.6,0,-0.001,-0.004,0
2018,4,13,16,42,32.063,-0.0948,0.4216,0.1396,-0.8909,0,0,0,-0.006,0.004,-0.004,0
2018,4,13,16,42,32.076,-0.0947,0.4215,0.1395,-0.8909,0,0,0,-0.009,0.007,-0.005,0
2018,4,13,16,42,32.123,-0.0947,0.4215,0.1395,-0.8909,-0.5,-0.2,0.1,-0.006,0.007,-0.009,0
2018,4,13,16,42,32.125,-0.0947,0.4216,0.1396,-0.8909,-0.6,0,0.3,-0.009,0.005,-0.003,0
2018,4,13,16,42,32.138,-0.0945,0.4216,0.1397,-0.8909,-0.6,0,0.5,-0.001,0,-0.002,0
2018,4,13,16,42,32.175,-0.0946,0.4216,0.1399,-0.8908,0,0,0,-0.004,-0.001,-0.002,0
2018,4,13,16,42,32.197,-0.0947,0.4216,0.14,-0.8908,0,0,0,-0.003,-0.007,-0.004,0
2018,4,13,16,42,32.201,-0.0947,0.4216,0.14,-0.8908,0,0,0,-0.004,-0.003,-0.002,0
2018,4,13,16,42,32.236,-0.0947,0.4215,0.1401,-0.8908,0,0,0,-0.007,-0.001,-0.004,0
2018,4,13,16,42,32.259,-0.0947,0.4215,0.1401,-0.8908,0,0,0,-0.007,0.004,-0.007,0
2018,4,13,16,42,32.262,-0.0947,0.4215,0.1401,-0.8908,0,0,0,-0.007,0.001,-0.005,0
2018,4,13,16,42,32.276,-0.0947,0.4215,0.1401,-0.8908,0,0,0,-0.009,0.005,-0.002,0
2018,4,13,16,42,32.3,-0.0947,0.4215,0.1401,-0.8908,0,0,0,-0.011,-0.001,-0.006,0
2018,4,13,16,42,32.336,-0.0948,0.4215,0.1401,-0.8908,0,0,0,-0.008,0.002,-0.003,0
2018,4,13,16,42,32.357,-0.0948,0.4215,0.1402,-0.8908,0,0,0,-0.004,0.002,-0.008,0
2018,4,13,16,42,32.362,-0.0948,0.4215,0.1402,-0.8908,0,0,0,0,0.001,-0.004,0
2018,4,13,16,42,32.396,-0.0948,0.4215,0.1402,-0.8908,0,0,0,-0.005,0.001,-0.007,0
2018,4,13,16,42,32.419,-0.0948,0.4215,0.1402,-0.8908,0,0,0,-0.006,0.007,-0.007,0
2018,4,13,16,42,32.423,-0.0948,0.4215,0.1402,-0.8908,0,0,0,-0.004,0.003,-0.008,0
2018,4,13,16,42,32.457,-0.0948,0.4215,0.1402,-0.8908,0,0,0,-0.008,-0.001,-0.004,0
2018,4,13,16,42,32.481,-0.0948,0.4215,0.1402,-0.8908,0,0,0,-0.009,0.001,-0.006,0
2018,4,13,16,42,32.486,-0.0948,0.4215,0.1403,-0.8908,0,0,0,-0.005,0.002,-0.006,0
2018,4,13,16,42,32.5,-0.0948,0.4215,0.1403,-0.8908,0,0,0,-0.004,-0.001,-0.002,0
2018,4,13,16,42,32.536,-0.0948,0.4215,0.1403,-0.8908,0,0,0,-0.001,-0.001,-0.008,1023
2018,4,13,16,42,32.558,-0.0948,0.4216,0.1403,-0.8908,0,0,0,-0.008,0.001,-0.008,1023
2018,4,13,16,42,32.562,-0.0949,0.4216,0.1404,-0.8907,0,0,0,-0.003,0.004,-0.008,1023
2018,4,13,16,42,32.597,-0.0949,0.4216,0.1404,-0.8907,0,0,0,-0.005,0.003,-0.004,1023
2018,4,13,16,42,32.621,-0.0949,0.4216,0.1404,-0.8907,0,0,0,-0.004,0,-0.005,1023
2018,4,13,16,42,32.625,-0.0949,0.4216,0.1404,-0.8907,0,0,0,-0.006,0.002,-0.001,1023
2018,4,13,16,42,32.659,-0.0949,0.4216,0.1404,-0.8907,0,0,0,-0.01,0.001,-0.008,1023
2018,4,13,16,42,32.681,-0.0949,0.4216,0.1405,-0.8907,0,0,0,-0.005,0.004,-0.007,1023
2018,4,13,16,42,32.687,-0.0949,0.4216,0.1405,-0.8907,0,0,0,-0.007,0.001,-0.002,0
2018,4,13,16,42,32.721,-0.0949,0.4216,0.1405,-0.8907,0,0,0,-0.005,0.005,-0.001,0
2018,4,13,16,42,32.743,-0.0949,0.4216,0.1405,-0.8907,0,0,0,-0.009,0.003,-0.002,0
2018,4,13,16,42,32.747,-0.0949,0.4215,0.1405,-0.8907,0,0,0,-0.011,0,-0.006,0
2018,4,13,16,42,32.761,-0.0949,0.4215,0.1405,-0.8907,0,0,0,-0.007,-0.002,-0.004,0
2018,4,13,16,42,32.796,-0.095,0.4215,0.1406,-0.8907,0,0,0,-0.006,-0.001,-0.005,0
2018,4,13,16,42,32.82,-0.095,0.4215,0.1406,-0.8907,0,0,0,-0.005,0,-0.005,0
2018,4,13,16,42,32.824,-0.095,0.4216,0.1407,-0.8907,0,0,0,-0.008,0.001,-0.005,0
2018,4,13,16,42,32.858,-0.095,0.4216,0.1407,-0.8907,0,0,0,-0.007,0,-0.008,0
2018,4,13,16,42,32.882,-0.095,0.4216,0.1407,-0.8907,0,0,0,-0.006,0,-0.01,0
2018,4,13,16,42,32.887,-0.095,0.4216,0.1408,-0.8907,0,0,0,-0.005,0.003,-0.007,0
2018,4,13,16,42,32.921,-0.095,0.4216,0.1408,-0.8906,0,0,0,-0.003,0.002,-0.002,0
2018,4,13,16,42,32.944,-0.095,0.4216,0.1408,-0.8906,0,0,0,-0.006,0.002,-0.005,0
2018,4,13,16,42,32.948,-0.095,0.4216,0.1408,-0.8906,0,0,0,-0.008,0.002,-0.001,0
2018,4,13,16,42,32.964,-0.095,0.4216,0.1408,-0.8907,0,0,0,-0.011,-0.001,0,0
2018,4,13,16,42,32.999,-0.0951,0.4215,0.1408,-0.8907,0,0,0,-0.009,0.006,0,0
2018,4,13,16,42,33.021,-0.095,0.4215,0.1408,-0.8907,0,0,0,-0.01,0.001,0.002,0
2018,4,13,16,42,33.026,-0.0951,0.4214,0.1408,-0.8907,0,0,0,-0.012,-0.002,-0.003,0
2018,4,13,16,42,33.06,-0.0951,0.4214,0.1408,-0.8907,0,0,0,-0.012,0,-0.004,0
2018,4,13,16,42,33.084,-0.0951,0.4214,0.1409,-0.8907,0,0,0,-0.008,-0.004,-0.008,0
2018,4,13,16,42,33.089,-0.0951,0.4214,0.1409,-0.8907,0,0,0,-0.002,-0.005,-0.006,0
2018,4,13,16,42,33.104,-0.0951,0.4214,0.141,-0.8907,0,0,0,0,-0.008,-0.007,0
2018,4,13,16,42,33.127,-0.0952,0.4215,0.1411,-0.8906,0,0,0,0,-0.005,-0.01,0
2018,4,13,16,42,33.162,-0.0952,0.4215,0.1412,-0.8906,0.5,0.2,0,-0.002,0,-0.011,0
2018,4,13,16,42,33.183,-0.0951,0.4215,0.1411,-0.8906,0.7,0.2,0,-0.001,0.005,-0.002,0
2018,4,13,16,42,33.187,-0.095,0.4215,0.141,-0.8907,0,0,0,-0.004,0.007,-0.004,0
2018,4,13,16,42,33.203,-0.095,0.4215,0.1409,-0.8907,-0.2,0,-0.5,-0.007,0.004,-0.007,0
2018,4,13,16,42,33.224,-0.095,0.4215,0.1409,-0.8907,0,0,0,-0.009,0.001,-0.002,0
2018,4,13,16,42,33.26,-0.095,0.4215,0.1409,-0.8907,0,0,0,-0.007,0,-0.002,0
2018,4,13,16,42,33.281,-0.095,0.4214,0.1409,-0.8907,0,0,0,-0.006,0,-0.003,0
2018,4,13,16,42,33.288,-0.095,0.4214,0.141,-0.8907,0,0,0,-0.008,-0.002,-0.004,0
2018,4,13,16,42,33.322,-0.095,0.4214,0.141,-0.8907,0,0,0,-0.005,-0.002,-0.006,0
2018,4,13,16,42,33.345,-0.0949,0.4214,0.141,-0.8907,0.3,-0.2,-0.5,-0.004,-0.003,-0.007,0
2018,4,13,16,42,33.35,-0.0948,0.4214,0.141,-0.8907,0.4,-0.2,-0.5,-0.006,-0.003,-0.002,0
2018,4,13,16,42,33.383,-0.0948,0.4215,0.141,-0.8907,0.6,0,-0.4,-0.004,0,-0.008,0
2018,4,13,16,42,33.383,-0.0947,0.4215,0.1408,-0.8907,0.8,-0.1,-0.4,-0.008,0.002,-0.005,0
2018,4,13,16,42,33.407,-0.0946,0.4215,0.1407,-0.8908,0.5,0,-0.4,-0.004,0.003,-0.001,0
2018,4,13,16,42,33.424,-0.0945,0.4215,0.1406,-0.8908,0,0,0,-0.007,0.005,-0.007,0
2018,4,13,16,42,33.447,-0.0945,0.4215,0.1406,-0.8908,0,0,0,-0.003,0.002,-0.003,0
2018,4,13,16,42,33.481,-0.0945,0.4215,0.1406,-0.8908,0.5,-0.2,-0.2,-0.004,0,-0.007,0
2018,4,13,16,42,33.504,-0.0945,0.4215,0.1405,-0.8908,0.6,0,-0.3,-0.001,0,-0.004,0
2018,4,13,16,42,33.509,-0.0946,0.4216,0.1404,-0.8908,0.6,0,-0.4,-0.003,0.003,-0.007,1023
2018,4,13,16,42,33.526,-0.0942,0.4216,0.1402,-0.8908,0.2,0,-0.6,-0.005,0.005,-0.01,1023
2018,4,13,16,42,33.55,-0.0941,0.4216,0.1401,-0.8908,0.4,0,-0.7,-0.005,0,-0.006,1023
2018,4,13,16,42,33.567,-0.0939,0.4216,0.14,-0.8909,0.6,0,-0.6,-0.004,0.001,-0.006,1023
2018,4,13,16,42,33.59,-0.0939,0.4217,0.1399,-0.8909,0.8,-0.1,-0.7,-0.012,0.004,-0.006,1023
2018,4,13,16,42,33.623,-0.0937,0.4217,0.1397,-0.8909,0.6,-0.1,-0.5,-0.009,0.003,-0.007,1023
2018,4,13,16,42,33.646,-0.0936,0.4217,0.1396,-0.8909,0.5,-0.1,-0.5,-0.005,0,-0.009,1023
2018,4,13,16,42,33.652,-0.0937,0.4217,0.1395,-0.8909,0.7,0,-0.5,-0.005,0.002,-0.011,1023
2018,4,13,16,42,33.666,-0.0939,0.4217,0.1394,-0.8909,0.5,0,-0.5,-0.007,0.003,-0.005,1023
2018,4,13,16,42,33.689,-0.094,0.4218,0.1392,-0.8909,0.6,0,-0.6,-0.007,0,-0.005,0
2018,4,13,16,42,33.724,-0.0939,0.4217,0.1391,-0.891,0.6,0,-0.5,-0.006,-0.001,-0.004,0
2018,4,13,16,42,33.747,-0.0941,0.4218,0.139,-0.8909,0.5,0,-0.4,-0.007,0,-0.006,0
2018,4,13,16,42,33.752,-0.094,0.4218,0.1389,-0.8909,0.6,-0.1,-0.6,-0.008,0.001,-0.004,0
2018,4,13,16,42,33.785,-0.0941,0.4218,0.1387,-0.891,0.8,-0.1,-0.6,-0.005,0.002,-0.006,0
2018,4,13,16,42,33.809,-0.0942,0.4219,0.1386,-0.8909,0.9,-0.1,-0.5,-0.006,0.004,-0.006,0
2018,4,13,16,42,33.813,-0.0944,0.422,0.1384,-0.8909,0.8,0,-0.4,-0.003,0.007,-0.007,0
2018,4,13,16,42,33.83,-0.0946,0.422,0.1382,-0.8909,0.6,0,-0.4,-0.003,0.006,-0.009,0
2018,4,13,16,42,33.854,-0.0946,0.422,0.1381,-0.8909,0,0,0,-0.005,0.004,-0.007,0
2018,4,13,16,42,33.869,-0.0946,0.422,0.1381,-0.8909,0.3,0,-0.5,-0.005,0,-0.004,0
2018,4,13,16,42,33.902,-0.0946,0.4221,0.138,-0.8909,0.6,0,-0.6,-0.006,0.002,-0.007,0
2018,4,13,16,42,33.926,-0.0945,0.4221,0.1378,-0.8909,0.6,0,-0.7,-0.006,0,-0.003,0
2018,4,13,16,42,33.93,-0.094,0.422,0.1377,-0.891,0.8,0,-0.7,-0.006,0.002,-0.002,0
2018,4,13,16,42,33.964,-0.0938,0.422,0.1375,-0.8911,0.6,0,-0.8,-0.007,0.004,-0.004,0
2018,4,13,16,42,33.987,-0.0939,0.422,0.1374,-0.8911,0.6,0,-0.4,-0.006,0.001,-0.008,0
2018,4,13,16,42,33.992,-0.0939,0.422,0.1372,-0.8911,0.5,0,-0.5,-0.009,0.002,-0.001,0
2018,4,13,16,42,34.026,-0.0939,0.422,0.1371,-0.8911,0,0,0,-0.009,0.001,0,0
2018,4,13,16,42,34.051,-0.0939,0.422,0.1371,-0.8912,0.1,0,-0.6,0,0,-0.008,0
2018,4,13,16,42,34.055,-0.094,0.4221,0.137,-0.8911,0.6,-0.3,-0.6,-0.008,0,-0.009,0
2018,4,13,16,42,34.07,-0.0941,0.4221,0.1368,-0.8911,0.7,-0.2,-0.5,-0.007,0.012,-0.004,0
2018,4,13,16,42,34.094,-0.0942,0.4222,0.1366,-0.8911,0.6,-0.1,-0.3,-0.009,0.008,-0.007,0
2018,4,13,16,42,34.117,-0.0942,0.4222,0.1364,-0.8911,1.1,-0.1,-0.4,-0.005,0.008,-0.006,0
2018,4,13,16,42,34.13,-0.0941,0.4222,0.1361,-0.8912,0.9,-0.2,-0.1,-0.006,0.007,-0.005,0
2018,4,13,16,42,34.166,-0.0941,0.4223,0.1359,-0.8912,0,0,0,-0.002,0.004,-0.002,0
2018,4,13,16,42,34.188,-0.0941,0.4223,0.136,-0.8912,0,0,0,-0.002,-0.003,-0.009,0
2018,4,13,16,42,34.191,-0.0941,0.4223,0.136,-0.8911,0.5,-0.1,-0.5,-0.003,-0.003,-0.005,0
2018,4,13,16,42,34.226,-0.094,0.4224,0.1359,-0.8911,0.9,0.1,-0.4,0,-0.004,-0.009,0
2018,4,13,16,42,34.248,-0.0943,0.4224,0.1358,-0.8911,1.2,0.4,-0.6,-0.002,0.002,-0.007,0
2018,4,13,16,42,34.253,-0.0946,0.4224,0.1355,-0.8912,0.9,0.4,-0.7,-0.004,0.007,-0.004,0
2018,4,13,16,42,34.29,-0.0946,0.4223,0.1353,-0.8912,0.8,0.2,-0.8,-0.007,0.008,0,0
2018,4,13,16,42,34.29,-0.0946,0.4223,0.135,-0.8912,0.5,0,-0.6,-0.008,0.01,-0.003,0
2018,4,13,16,42,34.31,-0.0944,0.4223,0.1349,-0.8913,0,0,0,-0.009,0.007,-0.007,0
2018,4,13,16,42,34.347,-0.0944,0.4223,0.1349,-0.8913,0,0,0,-0.008,0.007,-0.007,0
2018,4,13,16,42,34.368,-0.0944,0.4223,0.1348,-0.8913,0,0,0,-0.009,0.003,-0.007,0
2018,4,13,16,42,34.373,-0.0944,0.4223,0.1348,-0.8913,0,0,0,-0.01,0.006,-0.006,0
2018,4,13,16,42,34.408,-0.0944,0.4223,0.1348,-0.8913,0,0,0,-0.007,0.006,-0.005,0
2018,4,13,16,42,34.431,-0.0944,0.4223,0.1348,-0.8913,0,0,0,-0.009,0.005,-0.005,0
2018,4,13,16,42,34.435,-0.0944,0.4223,0.1348,-0.8913,0,0,0,-0.008,0.003,-0.01,0
2018,4,13,16,42,34.47,-0.0944,0.4223,0.1348,-0.8913,0,0,0,-0.009,0.004,-0.004,0
2018,4,13,16,42,34.492,-0.0944,0.4223,0.1348,-0.8913,0,0,0,-0.005,0,-0.008,0
2018,4,13,16,42,34.498,-0.0944,0.4223,0.1348,-0.8913,0,0,0,-0.005,0.007,-0.003,0
2018,4,13,16,42,34.511,-0.0945,0.4223,0.1348,-0.8913,-0.7,0,0.5,-0.006,0.001,-0.004,0
2018,4,13,16,42,34.547,-0.0947,0.4223,0.135,-0.8912,-0.5,0,0.5,-0.006,0.002,-0.004,1023
2018,4,13,16,42,34.569,-0.0948,0.4223,0.135,-0.8912,0,0,0,-0.002,0,-0.007,1023
2018,4,13,16,42,34.574,-0.0947,0.4223,0.1351,-0.8912,-0.5,0.1,0.5,-0.005,0.004,-0.006,1023
2018,4,13,16,42,34.609,-0.0947,0.4223,0.1352,-0.8912,-0.7,0,0.4,-0.006,0.002,-0.007,1023
2018,4,13,16,42,34.631,-0.0946,0.4223,0.1353,-0.8912,-0.4,0,0.5,-0.003,0.003,-0.004,1023
2018,4,13,16,42,34.635,-0.0947,0.4224,0.1353,-0.8912,0,0,0,-0.005,0.006,-0.003,1023
2018,4,13,16,42,34.671,-0.0946,0.4224,0.1354,-0.8912,-0.4,0,0.5,-0.003,0.004,-0.008,1023
2018,4,13,16,42,34.693,-0.0945,0.4224,0.1355,-0.8912,-0.7,0,0.6,-0.002,0.002,-0.005,1023
2018,4,13,16,42,34.697,-0.0947,0.4224,0.1356,-0.8911,-0.7,0,0.4,-0.005,0.006,-0.007,1023
2018,4,13,16,42,34.732,-0.0948,0.4224,0.1358,-0.8911,-0.5,0.1,0.5,-0.005,0,-0.004,1023
2018,4,13,16,42,34.754,-0.095,0.4224,0.1359,-0.891,-0.4,0.4,0.6,-0.009,0,-0.005,0
2018,4,13,16,42,34.758,-0.0949,0.4223,0.136,-0.8911,-0.5,0.2,0.6,-0.004,0.002,-0.003,0
2018,4,13,16,42,34.793,-0.0951,0.4223,0.1362,-0.891,-0.4,0.4,0.6,-0.006,0.001,-0.003,0
2018,4,13,16,42,34.793,-0.0953,0.4222,0.1363,-0.891,-0.7,0.2,0.5,-0.009,0.001,-0.006,0
2018,4,13,16,42,34.816,-0.0954,0.4222,0.1365,-0.891,0,0,0,-0.008,0.001,-0.004,0
2018,4,13,16,42,34.852,-0.0956,0.4221,0.1366,-0.891,0,0,0,-0.009,0,-0.006,0
2018,4,13,16,42,34.873,-0.0956,0.4221,0.1367,-0.891,-0.5,0,0.4,-0.004,0.002,0,0
2018,4,13,16,42,34.877,-0.0957,0.4221,0.1368,-0.8909,-0.4,0.1,0.5,-0.007,0.006,-0.009,0
2018,4,13,16,42,34.912,-0.0957,0.4221,0.1369,-0.8909,-0.4,0,0.6,-0.009,0.004,-0.006,0
2018,4,13,16,42,34.936,-0.0959,0.4221,0.137,-0.8909,-0.4,0,0.7,-0.005,0.006,-0.008,0
2018,4,13,16,42,34.94,-0.0962,0.4222,0.1371,-0.8908,-0.5,0,0.7,-0.002,0.006,-0.005,0
2018,4,13,16,42,34.971,-0.0962,0.4222,0.1372,-0.8908,-0.6,0.2,0.5,-0.002,0.002,-0.007,0
2018,4,13,16,42,34.994,-0.0963,0.4222,0.1373,-0.8908,-0.4,0.2,0.5,-0.002,0.004,-0.01,0
2018,4,13,16,42,34.998,-0.0963,0.4222,0.1373,-0.8908,0,0,0,-0.003,0.003,-0.01,0
2018,4,13,16,42,35.012,-0.0963,0.4222,0.1374,-0.8907,-0.7,0.2,0.5,-0.003,0.001,-0.005,0
2018,4,13,16,42,35.036,-0.0962,0.4222,0.1376,-0.8908,-0.7,0.1,0.5,-0.008,0.001,-0.006,0
2018,4,13,16,42,35.07,-0.0962,0.4221,0.1378,-0.8907,-0.4,0.2,0.5,-0.006,0.005,-0.008,0
2018,4,13,16,42,35.092,-0.0961,0.4221,0.1379,-0.8908,-1,0.3,0.7,-0.006,0.001,-0.001,0
2018,4,13,16,42,35.097,-0.0963,0.4221,0.1381,-0.8907,-0.7,0.2,0.5,-0.004,-0.004,-0.007,0
2018,4,13,16,42,35.131,-0.0963,0.422,0.1382,-0.8907,0,0,0,-0.006,0,-0.006,0
2018,4,13,16,42,35.155,-0.0964,0.422,0.1382,-0.8907,0.2,0.5,0.2,-0.011,0.004,0,0
2018,4,13,16,42,35.159,-0.0964,0.4219,0.1382,-0.8907,0,0,0,-0.012,0,-0.002,0
2018,4,13,16,42,35.193,-0.0964,0.4219,0.1382,-0.8907,0,0,0,-0.007,0.001,-0.006,0
2018,4,13,16,42,35.216,-0.0964,0.422,0.1383,-0.8907,-0.3,-0.2,0.5,-0.005,0.005,-0.006,0
2018,4,13,16,42,35.221,-0.0964,0.422,0.1383,-0.8907,-0.1,0,0.7,-0.002,0.004,-0.008,0
2018,4,13,16,42,35.236,-0.0962,0.422,0.1384,-0.8907,-0.2,0.1,0.5,0,0.007,-0.006,0
2018,4,13,16,42,35.271,-0.0961,0.422,0.1384,-0.8907,-0.3,0.3,0.5,0,0.01,-0.008,0
2018,4,13,16,42,35.294,-0.0962,0.422,0.1384,-0.8907,-0.5,0.2,0.4,-0.002,0.004,-0.005,0
2018,4,13,16,42,35.298,-0.0964,0.422,0.1386,-0.8907,-0.7,0.1,0.1,-0.006,0.001,-0.009,0
2018,4,13,16,42,35.333,-0.0963,0.422,0.1388,-0.8906,-0.7,0,0.1,-0.007,-0.002,-0.009,0
2018,4,13,16,42,35.356,-0.0964,0.422,0.1389,-0.8906,-0.6,0,0.4,-0.007,-0.003,-0.01,0
2018,4,13,16,42,35.36,-0.0965,0.422,0.139,-0.8906,0,0,0,-0.007,0,-0.011,0
2018,4,13,16,42,35.396,-0.0965,0.422,0.1392,-0.8906,-0.2,0.2,0.5,-0.008,-0.002,-0.011,0
2018,4,13,16,42,35.418,-0.0966,0.4219,0.1392,-0.8906,0,0,0,-0.005,0.001,-0.007,0
2018,4,13,16,42,35.422,-0.0966,0.4219,0.1393,-0.8906,0,0,0,-0.004,0.001,-0.004,0
2018,4,13,16,42,35.436,-0.0966,0.4219,0.1393,-0.8906,0,0,0,-0.002,0.002,-0.006,0
2018,4,13,16,42,35.47,-0.0966,0.4219,0.1393,-0.8906,0,0,0,-0.007,0.003,-0.007,0
2018,4,13,16,42,35.495,-0.0965,0.4219,0.1392,-0.8906,0,0,0,-0.01,0.011,-0.006,0
2018,4,13,16,42,35.498,-0.0965,0.4219,0.1392,-0.8906,0,0,0,-0.01,0.006,-0.006,0
2018,4,13,16,42,35.532,-0.0965,0.4219,0.1392,-0.8906,-0.6,0,0.5,-0.008,0.005,-0.004,0
2018,4,13,16,42,35.554,-0.0965,0.4219,0.1393,-0.8906,-0.7,0.2,0.5,-0.005,0.001,-0.001,0
2018,4,13,16,42,35.558,-0.0968,0.4219,0.1395,-0.8905,-0.4,0,0.5,-0.002,-0.001,-0.005,0
2018,4,13,16,42,35.595,-0.0967,0.4219,0.1396,-0.8905,-0.3,0,0.5,-0.003,0,-0.005,0
2018,4,13,16,42,35.616,-0.0967,0.4219,0.1397,-0.8905,-0.6,0,0.2,-0.006,0,-0.009,1023
2018,4,13,16,42,35.622,-0.0967,0.4219,0.1398,-0.8905,-0.5,0,0,-0.006,-0.003,-0.013,1023
2018,4,13,16,42,35.655,-0.0967,0.422,0.1399,-0.8904,0,0,0,-0.005,-0.002,-0.01,1023
2018,4,13,16,42,35.655,-0.0967,0.422,0.1399,-0.8904,0,0,0,-0.006,0.001,-0.005,1023
2018,4,13,16,42,35.678,-0.0967,0.422,0.1399,-0.8904,0,0,0,-0.008,0.006,-0.002,1023
2018,4,13,16,42,35.714,-0.0967,0.4219,0.1399,-0.8904,0,0,0,-0.006,0,-0.005,1023
2018,4,13,16,42,35.738,-0.0967,0.4219,0.1399,-0.8904,0,0,0,-0.008,-0.001,-0.002,1023
2018,4,13,16,42,35.742,-0.0967,0.422,0.14,-0.8904,0,0,0,-0.006,0,-0.004,1023
2018,4,13,16,42,35.776,-0.0967,0.4219,0.14,-0.8904,0,0,0,-0.007,0.002,-0.006,1023
2018,4,13,16,42,35.8,-0.0967,0.4219,0.14,-0.8904,0,0,0,-0.007,0.001,-0.008,0
2018,4,13,16,42,35.804,-0.0967,0.4219,0.1399,-0.8904,0,0,0,-0.007,0.006,-0.007,0
2018,4,13,16,42,35.837,-0.0967,0.4219,0.1399,-0.8905,0,0,0,-0.006,0.003,-0.001,0
2018,4,13,16,42,35.861,-0.0967,0.4219,0.1399,-0.8904,0,0,0,-0.007,0.001,-0.007,0
2018,4,13,16,42,35.865,-0.0967,0.4219,0.14,-0.8904,-0.5,0,0.2,-0.009,-0.003,-0.008,0
2018,4,13,16,42,35.882,-0.0967,0.4219,0.1401,-0.8904,0,0,0,-0.005,-0.005,-0.007,0
2018,4,13,16,42,35.903,-0.0967,0.4219,0.1401,-0.8904,0,0,0,-0.009,-0.006,-0.012,0
2018,4,13,16,42,35.919,-0.0968,0.4219,0.1402,-0.8904,0,0,0,-0.009,0.003,-0.009,0
2018,4,13,16,42,35.94,-0.0967,0.4219,0.1402,-0.8904,0,0,0,-0.006,0.01,-0.006,0
2018,4,13,16,42,35.975,-0.0967,0.422,0.1401,-0.8904,-0.1,0,0.5,-0.003,0.007,-0.008,0
2018,4,13,16,42,35.999,-0.0967,0.4219,0.1401,-0.8904,-0.5,0.2,0.5,0,0.001,-0.004,0
2018,4,13,16,42,36.003,-0.0968,0.4219,0.1403,-0.8904,-0.5,0,0.2,-0.003,-0.006,0,0
2018,4,13,16,42,36.04,-0.0968,0.4219,0.1405,-0.8904,0,0,0,-0.011,-0.009,-0.003,0
2018,4,13,16,42,36.061,-0.0967,0.4218,0.1405,-0.8904,0.5,-0.2,-0.1,-0.014,0.003,-0.01,0
2018,4,13,16,42,36.066,-0.0966,0.4218,0.1405,-0.8904,0,0,0,-0.009,0.01,-0.008,0
2018,4,13,16,42,36.1,-0.0965,0.4218,0.1404,-0.8904,0,0,0,-0.004,0.013,-0.006,0
2018,4,13,16,42,36.123,-0.0965,0.4219,0.1405,-0.8904,-0.9,0,0.3,-0.001,0.001,-0.004,0
2018,4,13,16,42,36.127,-0.0961,0.4219,0.1407,-0.8904,-0.7,0.2,0.2,-0.001,-0.007,-0.001,0
2018,4,13,16,42,36.141,-0.0961,0.4219,0.1408,-0.8904,0,0,0,-0.002,-0.002,-0.004,0
2018,4,13,16,42,36.177,-0.0959,0.4218,0.1408,-0.8904,0,0,0,-0.007,0,-0.004,0
2018,4,13,16,42,36.201,-0.0959,0.4217,0.1408,-0.8905,0,0,0,-0.011,0.001,-0.001,0
2018,4,13,16,42,36.206,-0.0959,0.4217,0.1408,-0.8905,0,0,0,-0.012,0.002,-0.007,0
2018,4,13,16,42,36.24,-0.0959,0.4217,0.1408,-0.8905,0,0,0,-0.007,0.003,-0.004,0
2018,4,13,16,42,36.263,-0.0959,0.4217,0.1408,-0.8905,0,0,0,-0.005,0,-0.01,0
2018,4,13,16,42,36.267,-0.0959,0.4217,0.1408,-0.8905,0.5,0,0.2,-0.001,0.001,-0.005,0
2018,4,13,16,42,36.283,-0.0959,0.4217,0.1407,-0.8905,0,0,0,-0.005,0.003,-0.001,0
2018,4,13,16,42,36.304,-0.0959,0.4217,0.1407,-0.8905,0,0,0,-0.002,0.009,-0.006,0
2018,4,13,16,42,36.339,-0.0959,0.4217,0.1407,-0.8905,0,0,0,-0.006,0.007,-0.008,0
2018,4,13,16,42,36.339,-0.0958,0.4218,0.1407,-0.8905,0,0,0,-0.008,0.002,-0.011,0
2018,4,13,16,42,36.362,-0.0959,0.4218,0.1407,-0.8905,0,0,0,-0.007,-0.003,-0.013,0
2018,4,13,16,42,36.398,-0.0959,0.4218,0.1408,-0.8905,0,0,0,-0.004,-0.006,-0.006,0
2018,4,13,16,42,36.422,-0.0959,0.4218,0.1408,-0.8904,0,0,0,-0.007,-0.006,-0.009,0
2018,4,13,16,42,36.426,-0.0959,0.4218,0.1409,-0.8904,0.5,0,-0.4,-0.003,-0.007,-0.002,0
2018,4,13,16,42,36.459,-0.096,0.4218,0.141,-0.8904,0.5,0,-0.3,-0.005,-0.006,-0.002,0
2018,4,13,16,42,36.483,-0.096,0.4218,0.1409,-0.8904,0,0,0,-0.006,0.002,-0.002,0
2018,4,13,16,42,36.487,-0.0959,0.4217,0.1408,-0.8905,0.8,0.1,-0.4,-0.01,0.002,0,0
2018,4,13,16,42,36.521,-0.0958,0.4216,0.1406,-0.8906,1,0,-0.5,-0.013,0.004,-0.007,0
2018,4,13,16,42,36.545,-0.0958,0.4216,0.1404,-0.8906,0.8,0,-0.4,-0.015,0.011,-0.008,0
2018,4,13,16,42,36.549,-0.0957,0.4215,0.1402,-0.8907,0,0,0,-0.01,0.013,-0.005,0
2018,4,13,16,42,36.564,-0.0957,0.4215,0.1402,-0.8907,0,0,0,-0.008,0,-0.003,1023
2018,4,13,16,42,36.601,-0.0957,0.4215,0.1402,-0.8907,0,0,0,-0.004,-0.003,-0.004,1023
2018,4,13,16,42,36.601,-0.0957,0.4216,0.1403,-0.8907,0,0,0,-0.005,-0.004,-0.009,1023
2018,4,13,16,42,36.624,-0.0956,0.4216,0.1403,-0.8907,0.5,-0.2,-0.4,-0.005,0,-0.006,1023
2018,4,13,16,42,36.659,-0.0957,0.4217,0.1402,-0.8906,0.3,-0.3,-0.6,-0.006,-0.001,-0.006,1023
2018,4,13,16,42,36.683,-0.0955,0.4217,0.1401,-0.8906,0.6,-0.4,-0.6,-0.003,0,-0.009,1023
2018,4,13,16,42,36.688,-0.0951,0.4218,0.14,-0.8907,0.6,0,-0.6,-0.001,0.001,-0.011,1023
2018,4,13,16,42,36.721,-0.0949,0.4218,0.1399,-0.8907,0.6,0,-0.6,-0.002,0.008,-0.007,1023
2018,4,13,16,42,36.743,-0.0949,0.4219,0.1397,-0.8907,0.5,0,-0.4,-0.003,0.007,-0.006,1023
2018,4,13,16,42,36.747,-0.0949,0.4219,0.1397,-0.8907,0,0,0,-0.002,0.004,-0.003,1023
2018,4,13,16,42,36.782,-0.0949,0.4219,0.1397,-0.8907,0.3,0,-0.5,-0.004,0,-0.007,0
2018,4,13,16,42,36.804,-0.0947,0.4219,0.1396,-0.8907,0.6,0.1,-0.6,-0.003,-0.002,-0.006,0
2018,4,13,16,42,36.808,-0.0945,0.4219,0.1394,-0.8908,0.9,0.2,-0.6,-0.005,0.001,-0.004,0
2018,4,13,16,42,36.822,-0.0944,0.4218,0.1392,-0.8909,0.9,0.3,-0.6,-0.01,0.008,-0.003,0
2018,4,13,16,42,36.846,-0.0942,0.4217,0.139,-0.8909,0.6,0.3,-0.5,-0.01,0.011,-0.003,0
2018,4,13,16,42,36.879,-0.0942,0.4217,0.1389,-0.891,0,0,0,-0.01,0.009,-0.003,0
2018,4,13,16,42,36.903,-0.0942,0.4216,0.1389,-0.891,0,0,0,-0.007,0.003,-0.004,0
2018,4,13,16,42,36.908,-0.0942,0.4216,0.139,-0.891,0.4,-0.2,-0.5,-0.005,-0.002,-0.002,0
2018,4,13,16,42,36.941,-0.0942,0.4216,0.1389,-0.891,0.8,-0.3,-0.5,-0.008,0,-0.007,0
2018,4,13,16,42,36.965,-0.0942,0.4217,0.1387,-0.891,1,-0.4,-0.7,-0.005,0.002,-0.008,0
2018,4,13,16,42,36.97,-0.0943,0.4218,0.1385,-0.891,0.8,-0.2,-0.4,-0.006,0.004,-0.004,0
2018,4,13,16,42,37.006,-0.0943,0.4218,0.1384,-0.891,0.8,0,-0.3,-0.008,0.004,-0.01,0
2018,4,13,16,42,37.028,-0.0943,0.4219,0.1382,-0.891,0.7,-0.2,-0.3,-0.004,0.005,-0.013,0
2018,4,13,16,42,37.032,-0.0943,0.4219,0.1381,-0.891,0.6,-0.1,-0.4,-0.004,0.008,-0.007,0
2018,4,13,16,42,37.047,-0.0942,0.422,0.138,-0.891,0.4,-0.2,-0.5,-0.003,0.004,-0.006,0
2018,4,13,16,42,37.084,-0.0941,0.4221,0.138,-0.891,0.4,-0.2,-0.5,-0.003,0.002,-0.008,0
2018,4,13,16,42,37.106,-0.0941,0.4221,0.1379,-0.891,0,0,0,-0.003,0.003,-0.01,0
2018,4,13,16,42,37.11,-0.0941,0.4221,0.1378,-0.891,0.5,0,-0.4,-0.003,0.002,-0.003,0
2018,4,13,16,42,37.149,-0.0941,0.4221,0.1377,-0.891,0.6,0.2,-0.5,-0.007,-0.002,-0.001,0
2018,4,13,16,42,37.151,-0.0944,0.4221,0.1375,-0.891,0.8,0.3,-0.4,-0.006,0.007,-0.003,0
2018,4,13,16,42,37.185,-0.0943,0.422,0.1374,-0.891,0.5,0,-0.3,-0.008,0.004,0,0
2018,4,13,16,42,37.209,-0.0943,0.422,0.1373,-0.8911,0.7,0,-0.3,-0.005,0,0,0
2018,4,13,16,42,37.213,-0.094,0.422,0.1371,-0.8912,0.9,0,-0.4,-0.008,0.003,-0.007,0
2018,4,13,16,42,37.229,-0.0938,0.4219,0.137,-0.8912,0.5,0,-0.3,-0.01,0.006,-0.005,0
2018,4,13,16,42,37.251,-0.0938,0.4219,0.137,-0.8912,0,0,0,-0.005,-0.001,-0.005,0
2018,4,13,16,42,37.266,-0.0939,0.4219,0.1371,-0.8912,0,0,0,-0.007,0,-0.003,0
2018,4,13,16,42,37.289,-0.0939,0.4219,0.1371,-0.8912,0,0,0,-0.006,-0.001,-0.002,0
2018,4,13,16,42,37.326,-0.0938,0.4219,0.1371,-0.8912,0.7,0,-0.1,-0.004,0.001,-0.006,0
2018,4,13,16,42,37.326,-0.0939,0.422,0.1369,-0.8912,0.9,0,-0.4,-0.003,0.007,0,0
2018,4,13,16,42,37.349,-0.0942,0.422,0.1367,-0.8912,0.7,0,-0.6,-0.004,0.009,-0.009,0
2018,4,13,16,42,37.385,-0.0941,0.4221,0.1364,-0.8912,0.8,-0.1,-0.6,-0.007,0.013,-0.009,0
2018,4,13,16,42,37.407,-0.0939,0.4221,0.1362,-0.8912,0.5,0,-0.3,-0.009,0.013,-0.009,0
2018,4,13,16,42,37.411,-0.0939,0.4221,0.1361,-0.8912,0,0,0,-0.01,0.008,-0.005,0
2018,4,13,16,42,37.446,-0.0939,0.4221,0.1361,-0.8912,0,0,0,-0.009,0.004,-0.009,0
2018,4,13,16,42,37.47,-0.0939,0.4221,0.1362,-0.8912,0,0,0,-0.005,-0.001,-0.002,0
2018,4,13,16,42,37.474,-0.0939,0.4221,0.1362,-0.8912,0,0,0,-0.003,-0.001,-0.008,0
2018,4,13,16,42,37.489,-0.0939,0.4221,0.1363,-0.8912,0,0,0,-0.006,0.001,-0.006,0
2018,4,13,16,42,37.525,-0.0939,0.4221,0.1363,-0.8912,0,0,0,-0.008,0.002,-0.011,0
2018,4,13,16,42,37.546,-0.0939,0.4222,0.1363,-0.8912,0,0,0,-0.008,0.004,-0.006,0
2018,4,13,16,42,37.55,-0.0939,0.4222,0.1363,-0.8912,0,0,0,-0.004,-0.001,-0.006,0
2018,4,13,16,42,37.585,-0.094,0.4222,0.1364,-0.8912,0,0,0,-0.007,0.001,-0.002,0
2018,4,13,16,42,37.607,-0.094,0.4222,0.1364,-0.8912,0,0,0,-0.008,0.009,-0.009,1023
2018,4,13,16,42,37.612,-0.094,0.4222,0.1363,-0.8912,-0.5,0,0.3,-0.011,0.009,-0.01,1023
2018,4,13,16,42,37.647,-0.0941,0.4221,0.1364,-0.8912,-0.4,0,0.7,-0.008,0.006,-0.007,1023
2018,4,13,16,42,37.669,-0.0942,0.4221,0.1365,-0.8911,-0.7,-0.2,0.9,-0.001,0.006,-0.002,1023
2018,4,13,16,42,37.674,-0.0947,0.4222,0.1382,-0.8908,-0.5,0.2,0.7,-0.006,0.006,0,1023
2018,4,13,16,42,37.707,-0.095,0.4221,0.1383,-0.8908,-0.5,0.2,0.6,-0.008,0.008,0.001,1023
2018,4,13,16,42,37.73,-0.095,0.422,0.1386,-0.8908,-0.8,0.1,0.7,-0.008,0.005,-0.002,1023
2018,4,13,16,42,37.734,-0.0952,0.422,0.1388,-0.8908,-0.6,0,0.5,-0.003,-0.001,-0.004,1023
2018,4,13,16,42,37.75,-0.0951,0.4219,0.1389,-0.8908,0,0,0,-0.003,0,-0.007,0
2018,4,13,16,42,37.771,-0.0951,0.422,0.1389,-0.8908,0,0,0,-0.007,0.005,-0.004,0
2018,4,13,16,42,37.806,-0.0952,0.422,0.1389,-0.8907,-0.4,0.2,0.5,-0.007,0.007,-0.01,0
2018,4,13,16,42,37.83,-0.0952,0.422,0.139,-0.8907,-0.7,0,0.6,-0.002,0.006,-0.004,0
2018,4,13,16,42,37.834,-0.0953,0.422,0.1392,-0.8907,-0.9,0.2,0.5,-0.003,-0.003,-0.007,0
2018,4,13,16,42,37.868,-0.0954,0.422,0.1394,-0.8906,-0.6,0.2,0.5,-0.003,0,-0.004,0
2018,4,13,16,42,37.891,-0.0952,0.4219,0.1396,-0.8907,-0.9,0.1,0.4,-0.007,-0.003,0,0
2018,4,13,16,42,37.895,-0.0952,0.4219,0.1397,-0.8907,0,0,0,-0.005,-0.002,-0.004,0
2018,4,13,16,42,37.932,-0.0952,0.4219,0.1398,-0.8907,0,0,0,-0.005,0.004,-0.009,0
2018,4,13,16,42,37.955,-0.0951,0.4218,0.1397,-0.8907,0,0,0,-0.005,0.001,-0.006,0
2018,4,13,16,42,37.959,-0.0951,0.4218,0.1398,-0.8907,-0.7,0,0.3,-0.005,-0.002,-0.008,0
2018,4,13,16,42,37.973,-0.095,0.4218,0.14,-0.8907,-0.6,0.1,0.5,-0.003,0,-0.005,0
2018,4,13,16,42,38.006,-0.0949,0.4217,0.1402,-0.8907,-0.1,0.4,0.5,-0.003,-0.007,-0.003,0
2018,4,13,16,42,38.03,-0.0948,0.4217,0.1402,-0.8907,0,0,0,-0.006,0,-0.006,0
2018,4,13,16,42,38.034,-0.0948,0.4217,0.1402,-0.8907,0,0,0,-0.007,0.006,-0.003,0
2018,4,13,16,42,38.066,-0.0948,0.4217,0.1402,-0.8907,0,0,0,-0.01,0.01,-0.005,0
2018,4,13,16,42,38.088,-0.0948,0.4217,0.1402,-0.8907,-0.7,0,0.4,-0.009,0.003,-0.004,0
2018,4,13,16,42,38.096,-0.0949,0.4217,0.1404,-0.8907,-0.7,0,0.4,-0.006,-0.002,0,0
2018,4,13,16,42,38.131,-0.0948,0.4217,0.1406,-0.8907,-0.5,0.2,0.4,-0.007,-0.005,-0.01,0
2018,4,13,16,42,38.154,-0.0948,0.4217,0.1407,-0.8907,0,0,0,-0.005,-0.004,-0.005,0
2018,4,13,16,42,38.158,-0.0948,0.4217,0.1407,-0.8906,0,0,0,-0.005,0.001,-0.009,0
2018,4,13,16,42,38.173,-0.0948,0.4217,0.1407,-0.8906,0,0,0,-0.006,0.002,-0.008,0
2018,4,13,16,42,38.209,-0.0948,0.4217,0.1407,-0.8906,0,0,0,-0.005,0.004,-0.008,0
2018,4,13,16,42,38.232,-0.0949,0.4217,0.1408,-0.8906,0,0,0,-0.005,-0.004,-0.005,1023
2018,4,13,16,42,38.236,-0.0949,0.4217,0.1408,-0.8906,0,0,0,-0.006,0.005,-0.004,1023
2018,4,13,16,42,38.272,-0.0949,0.4217,0.1408,-0.8906,0,0,0,-0.009,0.001,-0.009,1023
2018,4,13,16,42,38.294,-0.0949,0.4217,0.1408,-0.8906,0,0,0,-0.011,0.006,-0.004,1023
2018,4,13,16,42,38.298,-0.0948,0.4217,0.1408,-0.8906,-0.6,0,0.2,-0.007,0.001,-0.005,1023
2018,4,13,16,42,38.333,-0.0947,0.4217,0.141,-0.8906,-0.4,0,0.5,-0.005,-0.004,-0.003,1023
2018,4,13,16,42,38.355,-0.0947,0.4216,0.1411,-0.8906,0,0,0,-0.004,-0.001,-0.001,1023
2018,4,13,16,42,38.359,-0.0947,0.4216,0.1411,-0.8906,0,0,0,-0.006,0.001,0.002,1023
2018,4,13,16,42,38.395,-0.0947,0.4216,0.1411,-0.8906,0,0,0,-0.005,0.002,-0.004,1023
2018,4,13,16,42,38.395,-0.0947,0.4216,0.1411,-0.8906,0,0,0,-0.009,0.001,-0.006,1023
2018,4,13,16,42,38.419,-0.0948,0.4216,0.1411,-0.8906,0,0,0,-0.007,0.005,-0.005,1023
2018,4,13,16,42,38.452,-0.0948,0.4216,0.1411,-0.8906,0,0,0,-0.007,0.002,-0.008,1023
2018,4,13,16,42,38.452,-0.0948,0.4216,0.1411,-0.8906,0,0,0,-0.004,-0.001,-0.004,1023
2018,4,13,16,42,38.476,-0.0948,0.4216,0.1412,-0.8906,0,0,0,-0.006,-0.002,-0.001,1023
2018,4,13,16,42,38.511,-0.0948,0.4217,0.1412,-0.8906,0,0,0,-0.007,-0.002,-0.001,1023
2018,4,13,16,42,38.534,-0.0948,0.4217,0.1413,-0.8906,0,0,0,-0.006,0,-0.01,1023
2018,4,13,16,42,38.538,-0.0948,0.4217,0.1413,-0.8905,0,0,0,-0.007,0.001,-0.013,1023
2018,4,13,16,42,38.573,-0.0948,0.4217,0.1413,-0.8905,0,0,0,-0.003,0.003,-0.004,1023
2018,4,13,16,42,38.597,-0.0948,0.4217,0.1413,-0.8905,0,0,0,-0.007,0.003,-0.006,1023
2018,4,13,16,42,38.601,-0.0948,0.4217,0.1413,-0.8905,0,0,0,-0.006,0,-0.007,1023
2018,4,13,16,42,38.618,-0.0948,0.4217,0.1413,-0.8905,0,0,0,-0.007,0.005,-0.004,1023
2018,4,13,16,42,38.641,-0.0948,0.4217,0.1413,-0.8905,0,0,0,-0.008,0.001,-0.003,1023
2018,4,13,16,42,38.673,-0.0949,0.4217,0.1414,-0.8905,0,0,0,-0.008,0.001,-0.003,1023
2018,4,13,16,42,38.695,-0.0949,0.4217,0.1414,-0.8905,0,0,0,-0.004,-0.005,-0.002,1023
2018,4,13,16,42,38.701,-0.0949,0.4217,0.1415,-0.8905,0,0,0,-0.007,-0.003,-0.007,1023
2018,4,13,16,42,38.739,-0.0949,0.4216,0.1415,-0.8905,0,0,0,-0.005,0.003,-0.005,1023
2018,4,13,16,42,38.76,-0.0949,0.4216,0.1415,-0.8905,0,0,0,-0.002,0.006,-0.002,1023
2018,4,13,16,42,38.764,-0.0949,0.4216,0.1415,-0.8905,0,0,0,-0.006,0.001,-0.005,1023
2018,4,13,16,42,38.784,-0.0949,0.4216,0.1415,-0.8905,0,0,0,-0.01,-0.002,-0.005,1023
2018,4,13,16,42,38.802,-0.095,0.4216,0.1416,-0.8905,0,0,0,-0.009,-0.001,-0.005,1023
2018,4,13,16,42,38.818,-0.095,0.4216,0.1416,-0.8905,0,0,0,-0.004,0.002,-0.006,1023
2018,4,13,16,42,38.841,-0.095,0.4216,0.1416,-0.8905,0,0,0,-0.003,-0.001,-0.008,1023
2018,4,13,16,42,38.873,-0.095,0.4216,0.1416,-0.8905,0,0,0,-0.005,0.004,-0.003,1023
2018,4,13,16,42,38.897,-0.095,0.4216,0.1416,-0.8905,0,0,0,-0.006,-0.004,-0.008,1023
2018,4,13,16,42,38.903,-0.095,0.4217,0.1416,-0.8905,0.8,-0.2,-0.3,-0.007,0.004,-0.007,0
2018,4,13,16,42,38.937,-0.0947,0.4216,0.1414,-0.8906,0.8,0,-0.1,-0.01,0.006,-0.003,0
2018,4,13,16,42,38.96,-0.0944,0.4216,0.1413,-0.8906,0,0,0,-0.007,0.002,-0.003,0
2018,4,13,16,42,38.965,-0.0944,0.4216,0.1414,-0.8906,0,0,0,-0.004,-0.004,-0.008,0
2018,4,13,16,42,38.999,-0.0945,0.4216,0.1414,-0.8906,0,0,0,-0.002,0.001,-0.006,0
2018,4,13,16,42,39.021,-0.0945,0.4216,0.1414,-0.8906,0,0,0,-0.002,-0.005,-0.006,0
2018,4,13,16,42,39.026,-0.0943,0.4216,0.1414,-0.8906,0.9,0.1,-0.3,-0.001,-0.005,-0.008,0
2018,4,13,16,42,39.043,-0.0942,0.4216,0.1412,-0.8907,1.3,0.1,-0.4,-0.006,0.01,-0.005,0
2018,4,13,16,42,39.076,-0.0939,0.4215,0.1409,-0.8908,0.6,0,-0.6,-0.011,0.009,-0.006,0
2018,4,13,16,42,39.1,-0.0938,0.4215,0.1407,-0.8908,0.5,-0.4,-0.8,-0.008,0.01,-0.007,0
2018,4,13,16,42,39.104,-0.0936,0.4216,0.1406,-0.8908,-0.1,-0.5,-0.4,-0.008,0.006,-0.008,0
2018,4,13,16,42,39.138,-0.0935,0.4217,0.1406,-0.8908,0.3,-0.6,-0.4,-0.01,-0.002,-0.004,0
2018,4,13,16,42,39.162,-0.0935,0.4217,0.1407,-0.8908,0.5,-0.3,-0.3,-0.008,-0.004,-0.007,0
2018,4,13,16,42,39.166,-0.0936,0.4218,0.1406,-0.8907,0.7,-0.3,-0.2,-0.009,0,-0.01,0
2018,4,13,16,42,39.2,-0.0937,0.4218,0.1406,-0.8907,0.8,-0.2,-0.4,-0.004,-0.008,-0.016,0
2018,4,13,16,42,39.223,-0.0935,0.4219,0.1406,-0.8907,0.5,0,-0.5,-0.01,-0.007,-0.012,1023
2018,4,13,16,42,39.228,-0.0936,0.4219,0.1405,-0.8907,1,0,-0.7,-0.008,0.002,-0.01,1023
2018,4,13,16,42,39.261,-0.0937,0.4219,0.1403,-0.8907,0.8,0,-0.6,-0.008,0.012,0,1023
2018,4,13,16,42,39.284,-0.0935,0.4219,0.1401,-0.8908,-0.7,0,-0.8,-0.01,0.002,-0.002,1023
2018,4,13,16,42,39.288,-0.0933,0.4218,0.1403,-0.8908,-0.6,-0.3,-1.2,-0.019,-0.014,0.01,0
2018,4,13,16,42,39.302,-0.0932,0.4217,0.1402,-0.8909,1.1,-0.8,-1.4,-0.015,-0.008,0.017,0
2018,4,13,16,42,39.336,-0.0933,0.4217,0.1398,-0.8909,2.2,-1.3,-0.4,-0.01,0.01,0.008,0
2018,4,13,16,42,39.361,-0.0937,0.4218,0.1394,-0.8909,2.5,-1.7,-0.1,-0.018,0.002,0.001,0
2018,4,13,16,42,39.364,-0.0939,0.4219,0.1389,-0.8909,3,-2.2,-0.5,-0.029,0.012,0.01,0
2018,4,13,16,42,39.4,-0.094,0.422,0.1383,-0.8909,3.4,-3.3,-1.4,-0.035,0.009,0.002,0
2018,4,13,16,42,39.424,-0.0941,0.4223,0.1375,-0.8909,3.3,-5.2,-1.4,-0.04,0.029,0.021,0
2018,4,13,16,42,39.429,-0.0943,0.4229,0.1365,-0.8908,1.5,-7.4,-0.2,-0.048,0.051,0.029,0
2018,4,13,16,42,39.463,-0.0947,0.4238,0.136,-0.8904,-0.7,-10.2,1.5,-0.039,0.047,0.041,0
2018,4,13,16,42,39.486,-0.0949,0.425,0.136,-0.8898,-2.9,-11.7,2.2,-0.044,0.011,0.03,0
2018,4,13,16,42,39.491,-0.0953,0.4263,0.1366,-0.889,-6.3,-12.8,1.3,-0.11,-0.051,0.015,0
2018,4,13,16,42,39.505,-0.0956,0.4279,0.1374,-0.8881,-5,-15.2,-0.3,-0.012,-0.084,0.045,0
2018,4,13,16,42,39.542,-0.0959,0.4307,0.1377,-0.8867,-3.4,-27.4,-1,0.148,0.076,0.196,0
2018,4,13,16,42,39.563,-0.0957,0.4342,0.1384,-0.8849,-8.4,-21.8,0.7,-0.728,-0.261,0.134,0
2018,4,13,16,42,39.567,-0.0962,0.4389,0.1384,-0.8825,-8.8,-32.8,-2,-0.16,0.026,0.069,0
2018,4,13,16,42,39.585,-0.0959,0.4441,0.1397,-0.8797,-11.3,-31.3,-0.4,-0.154,-0.026,-0.058,0
2018,4,13,16,42,39.605,-0.0955,0.4493,0.1406,-0.877,-12.1,-26.3,0.6,-0.01,0.026,-0.131,0
2018,4,13,16,42,39.643,-0.0951,0.4538,0.1422,-0.8744,-10,-23.1,1.7,-0.004,0,-0.028,0
2018,4,13,16,42,39.666,-0.0952,0.4576,0.1434,-0.8722,-10.1,-24.7,3.7,0.001,0.014,-0.026,0
2018,4,13,16,42,39.67,-0.0957,0.4616,0.1446,-0.8699,-1.2,-27.7,-0.4,-0.073,-0.137,0.035,0
2018,4,13,16,42,39.704,-0.0963,0.4661,0.1429,-0.8677,11.1,-32,-4,-0.088,-0.11,0.052,0
2018,4,13,16,42,39.704,-0.098,0.4707,0.1402,-0.8655,16.5,-33,-4.3,-0.065,-0.076,-0.001,0
2018,4,13,16,42,39.727,-0.0997,0.4754,0.1378,-0.8631,14.2,-32.8,-4.9,-0.06,-0.09,-0.01,0
2018,4,13,16,42,39.761,-0.1007,0.4799,0.1352,-0.8609,12.8,-35.7,-7.6,-0.066,-0.087,0.076,0
2018,4,13,16,42,39.785,-0.1017,0.4856,0.1314,-0.8582,21.1,-40.9,-9,-0.096,-0.069,0.125,0
2018,4,13,16,42,39.789,-0.1029,0.4918,0.1267,-0.8552,20,-44.8,-8.1,-0.111,0.025,0.101,0
2018,4,13,16,42,39.825,-0.1043,0.4986,0.1225,-0.8517,14.8,-48.3,-6.6,-0.11,0.044,0.116,0
2018,4,13,16,42,39.825,-0.1056,0.5059,0.1193,-0.8477,11.1,-51,-4.1,-0.152,0.025,0.102,0
2018,4,13,16,42,39.848,-0.1073,0.5133,0.1162,-0.8434,18,-51.5,-0.8,-0.172,-0.008,0.078,0
2018,4,13,16,42,39.884,-0.1112,0.5195,0.1117,-0.8397,31.7,-50.3,3.2,-0.123,0.001,0.042,0
2018,4,13,16,42,39.907,-0.1159,0.5258,0.1055,-0.8359,42.8,-50.6,1.1,-0.168,-0.094,0.072,0
2018,4,13,16,42,39.912,-0.1214,0.5324,0.0978,-0.8319,49.7,-53.2,3.5,-0.129,-0.061,0.078,0
2018,4,13,16,42,39.927,-0.1282,0.5392,0.0895,-0.8275,55.2,-57.8,7,-0.127,-0.036,0.123,0
2018,4,13,16,42,39.945,-0.136,0.5466,0.0803,-0.8222,63,-66.5,8.6,-0.134,-0.068,0.15,0
2018,4,13,16,42,39.966,-0.1448,0.5551,0.0697,-0.816,73,-75.2,6.6,-0.145,-0.143,0.104,0
2018,4,13,16,42,40.002,-0.1551,0.564,0.0562,-0.8091,96.2,-82,3.5,-0.159,-0.193,0.046,0
2018,4,13,16,42,40.023,-0.167,0.5729,0.039,-0.8014,115.3,-88.9,-0.6,-0.203,-0.143,0.057,0
2018,4,13,16,42,40.029,-0.1791,0.5825,0.0195,-0.7925,118.3,-100,-2.3,-0.2,-0.065,0.086,0
2018,4,13,16,42,40.064,-0.191,0.5936,-0.0001,-0.7817,115,-117.4,-1.2,-0.16,-0.013,0.102,0
2018,4,13,16,42,40.087,-0.2024,0.6072,-0.0199,-0.768,109.1,-140.7,-0.9,-0.137,-0.028,0.088,0
2018,4,13,16,42,40.091,-0.2134,0.6232,-0.0393,-0.7512,108.9,-167.4,-2.8,-0.13,-0.077,-0.004,0
2018,4,13,16,42,40.126,-0.2242,0.6423,-0.0603,-0.7304,113.1,-188.8,-3.6,-0.13,-0.053,-0.109,0
2018,4,13,16,42,40.126,-0.234,0.6626,-0.0825,-0.7066,106.3,-205.6,-2.3,-0.129,0.02,-0.184,0
2018,4,13,16,42,40.149,-0.2415,0.6843,-0.1029,-0.6802,82,-216.7,0.2,-0.104,0.107,-0.275,0
2018,4,13,16,42,40.184,-0.2455,0.7069,-0.1199,-0.6523,56.1,-218.6,0.9,-0.064,0.024,-0.361,0
2018,4,13,16,42,40.207,-0.2473,0.7285,-0.1352,-0.6242,56.3,-210,-3.1,-0.009,-0.118,-0.397,0
2018,4,13,16,42,40.211,-0.2499,0.7469,-0.1515,-0.5971,69.7,-188.6,-8.1,0.059,-0.148,-0.414,0
2018,4,13,16,42,40.227,-0.2534,0.761,-0.1677,-0.573,70.8,-155.3,-13.6,0.138,-0.098,-0.413,0
2018,4,13,16,42,40.25,-0.2568,0.7709,-0.1825,-0.5534,64.4,-120.2,-16.7,0.09,-0.03,-0.357,0
2018,4,13,16,42,40.286,-0.2594,0.7779,-0.1949,-0.538,49.2,-95,-15,-0.034,0.056,-0.289,0
2018,4,13,16,42,40.309,-0.2608,0.7837,-0.2042,-0.5253,29.3,-80.1,-8.3,-0.086,0.081,-0.273,0
2018,4,13,16,42,40.313,-0.2595,0.79,-0.2094,-0.5144,-2,-76.9,1.2,-0.08,0.123,-0.269,1023
2018,4,13,16,42,40.348,-0.2543,0.7981,-0.2103,-0.5039,-35.9,-80.6,9.5,-0.043,0.123,-0.279,1023
2018,4,13,16,42,40.37,-0.2454,0.8077,-0.2081,-0.4939,-59.1,-79.5,10.9,0.017,0.108,-0.235,1023
2018,4,13,16,42,40.374,-0.2342,0.8172,-0.2044,-0.4852,-67.7,-70.8,6.2,0.017,0.059,-0.189,1023
2018,4,13,16,42,40.389,-0.2227,0.8256,-0.2017,-0.4774,-53.4,-60.2,-2,-0.002,0.01,-0.091,1023
2018,4,13,16,42,40.422,-0.2151,0.8316,-0.2017,-0.4704,-17.8,-58.5,-6.5,-0.033,-0.023,0.087,1023
2018,4,13,16,42,40.446,-0.2121,0.836,-0.2045,-0.4627,3.5,-65,-5.6,0.039,0.048,0.132,1023
2018,4,13,16,42,40.45,-0.2101,0.8409,-0.2081,-0.4531,6.9,-71.7,-2.7,0.072,0.039,0.09,1023
2018,4,13,16,42,40.485,-0.2089,0.8457,-0.2119,-0.4428,14.9,-71.7,-2.2,0.024,-0.017,0.055,1023
2018,4,13,16,42,40.509,-0.2105,0.8496,-0.2165,-0.4323,37.4,-63.9,-3.6,-0.017,-0.044,0.104,1023
2018,4,13,16,42,40.513,-0.2159,0.8516,-0.223,-0.4221,62.8,-54.8,-6.3,-0.083,-0.008,0.231,1023
2018,4,13,16,42,40.546,-0.2245,0.8523,-0.2318,-0.4116,85.5,-52.4,-9.7,-0.139,0.024,0.443,1023
2018,4,13,16,42,40.57,-0.2353,0.8518,-0.2422,-0.4003,96.7,-52.6,-14.4,-0.195,0.058,0.415,1023
2018,4,13,16,42,40.574,-0.2477,0.8501,-0.2548,-0.3884,117.6,-55.6,-22.6,-0.254,0.111,0.531,1023
2018,4,13,16,42,40.61,-0.2637,0.8472,-0.2698,-0.3737,158.9,-73,-17.5,-0.319,0.065,0.765,1023
2018,4,13,16,42,40.633,-0.286,0.8432,-0.2873,-0.3529,204.5,-92.9,-6.5,-0.416,-0.013,0.773,1023
2018,4,13,16,42,40.637,-0.3135,0.8376,-0.3053,-0.3268,234.2,-102.7,12,-0.479,0.068,0.539,1023
2018,4,13,16,42,40.672,-0.3456,0.8303,-0.3209,-0.2965,265.8,-104.2,40.7,-0.557,0.134,0.392,1023
2018,4,13,16,42,40.695,-0.3839,0.8204,-0.3337,-0.2609,312,-111.4,69.3,-0.58,0.163,0.444,1023
2018,4,13,16,42,40.699,-0.4264,0.8073,-0.3438,-0.2191,326.7,-125.5,94.3,-0.519,0.266,0.356,0
2018,4,13,16,42,40.711,-0.4664,0.7937,-0.3505,-0.1716,316.3,-152.8,122,-0.461,0.216,0.153,0
2018,4,13,16,42,40.745,-0.5036,0.7792,-0.3534,-0.1186,328.7,-164.2,147.3,-0.494,0.14,-0.163,0
2018,4,13,16,42,40.77,-0.5419,0.7607,-0.3517,-0.0614,346.5,-155.9,174.5,-0.565,0.327,-0.253,0
2018,4,13,16,42,40.774,-0.5782,0.7406,-0.3422,-0.0024,314.2,-136.9,219.1,-0.59,0.518,-0.38,0
2018,4,13,16,42,40.81,-0.606,0.7243,-0.3237,0.0562,272.8,-133.2,260.5,-0.676,0.139,0.002,0
2018,4,13,16,42,40.832,-0.6317,0.7042,-0.3009,0.1194,338.5,-150.1,267.7,-0.985,-0.703,0.42,0
2018,4,13,16,42,40.836,-0.6619,0.6723,-0.2742,0.1858,380.1,-121.4,279.3,-0.981,-0.4,-0.151,0
2018,4,13,16,42,40.872,-0.686,0.6418,-0.2396,0.2446,277.3,-63.6,277.7,-1.262,-0.215,-0.583,0
2018,4,13,16,42,40.894,-0.6955,0.6241,-0.2072,0.2892,173.7,-30.5,233.8,-0.706,-0.506,-0.645,0
2018,4,13,16,42,40.898,-0.7028,0.6101,-0.1754,0.3207,175.1,29.6,195.5,-0.446,0.268,-0.241,0
2018,4,13,16,42,40.914,-0.7125,0.5961,-0.137,0.3436,279,49.9,197.7,-0.807,-0.699,-0.048,0
2018,4,13,16,42,40.95,-0.7554,0.5402,-0.1316,0.3465,366.5,119.8,-346.2,1.812,-12.409,0.209,0
2018,4,13,16,42,40.972,-0.8092,0.4956,-0.1098,0.2956,425.1,166.4,-194.5,1.113,4.259,1.054,0
2018,4,13,16,42,40.976,-0.8419,0.4564,-0.0968,0.2707,154.7,13.4,-163.4,0.083,1.575,1.987,0
2018,4,13,16,42,41.012,-0.8429,0.4622,-0.1118,0.2512,-200.2,-22.1,-134.6,-0.328,-0.926,0.608,0
2018,4,13,16,42,41.034,-0.8305,0.4805,-0.1369,0.246,-64.5,-170.5,27.7,0.697,-0.336,-0.708,0
2018,4,13,16,42,41.038,-0.824,0.4772,-0.1593,0.2603,-16.2,-109.2,-15.8,0.333,0.312,-0.161,0
2018,4,13,16,42,41.055,-0.8256,0.4695,-0.1714,0.2615,24.8,-41.9,-34.1,0.037,0.495,0.168,0
2018,4,13,16,42,41.079,-0.8245,0.4698,-0.1755,0.2617,-23.4,-2.8,1.3,0.07,-0.035,-0.238,0
2018,4,13,16,42,41.113,-0.8277,0.4672,-0.1719,0.2587,86.4,54.4,-21.1,0.12,-0.575,-0.477,0
2018,4,13,16,42,41.113,-0.8426,0.4489,-0.1551,0.2534,178.1,103.3,-19.3,0.146,0.261,-0.384,0
2018,4,13,16,42,41.136,-0.8592,0.428,-0.1337,0.2462,134.1,98.8,-20.4,0.1,0.376,0.376,0
2018,4,13,16,42,41.153,-0.867,0.419,-0.1196,0.2414,50,51.9,7.2,-0.067,0.251,0.08,1023
2018,4,13,16,42,41.177,-0.8697,0.4155,-0.1113,0.2417,25.8,29.9,20.7,0.173,0.131,0.013,1023
2018,4,13,16,42,41.211,-0.8719,0.4107,-0.102,0.246,72,39.6,53.4,0.437,-0.387,-0.15,1023
2018,4,13,16,42,41.235,-0.8748,0.4029,-0.0854,0.2549,54.6,66.8,75.5,1.114,-0.128,0.197,1023
2018,4,13,16,42,41.239,-0.874,0.405,-0.0707,0.2587,-39.8,65.3,33,0.741,0.83,0.712,1023
2018,4,13,16,42,41.273,-0.8672,0.4211,-0.0647,0.2574,-88.4,30.9,32.3,1.15,-0.175,0.308,1023
2018,4,13,16,42,41.297,-0.8613,0.4282,-0.0627,0.266,-8.3,-29.2,81.4,0.221,-0.355,-0.078,1023
2018,4,13,16,42,41.301,-0.8577,0.4257,-0.0612,0.2813,28.8,-28.9,76.6,-0.295,-0.05,-0.2,1023
2018,4,13,16,42,41.334,-0.8592,0.4161,-0.0537,0.2925,101.7,16.8,58.8,-0.306,-0.026,0.151,1023
2018,4,13,16,42,41.357,-0.8652,0.3999,-0.0375,0.2998,138.6,53.2,63.9,-0.309,-0.281,-0.025,1023
2018,4,13,16,42,41.362,-0.8708,0.3818,-0.0136,0.3092,140.3,76,112.9,-0.627,-0.099,-0.199,1023
2018,4,13,16,42,41.397,-0.8703,0.368,0.0143,0.3269,91.2,71.9,180.5,-1.226,0.211,-0.163,1023
2018,4,13,16,42,41.418,-0.8609,0.3618,0.0401,0.3553,30.6,45.2,245.1,-0.447,-0.408,-0.211,1023
2018,4,13,16,42,41.422,-0.8428,0.3597,0.0655,0.3947,15.3,54.9,314.3,-0.965,-0.57,-0.409,1023
2018,4,13,16,42,41.437,-0.8236,0.352,0.1018,0.4327,97.1,118.2,276.1,-1.49,-0.415,-1.016,0
2018,4,13,16,42,41.47,-0.802,0.3623,0.1348,0.4551,-90.1,165.2,187.1,-1.629,-1.112,-0.824,0
2018,4,13,16,42,41.492,-0.7839,0.374,0.1656,0.4669,53.7,148.8,138.3,-0.401,-0.285,-0.313,0
2018,4,13,16,42,41.499,-0.7708,0.3456,0.23,0.483,146.5,44.1,147.8,0.459,0.069,-0.212,0
2018,4,13,16,42,41.535,-0.762,0.3288,0.2491,0.499,3.5,-9.7,156.6,0.338,0.214,0.194,0
2018,4,13,16,42,41.558,-0.7441,0.3311,0.2434,0.5266,-171.8,-75.3,156.4,0.256,0.023,0.169,0
2018,4,13,16,42,41.563,-0.7119,0.3303,0.2141,0.5814,3.6,-63.8,104.7,0.232,-0.35,-0.023,0
2018,4,13,16,42,41.597,-0.7058,0.3199,0.2161,0.5938,27,-28.5,75.2,0.136,0.243,0.587,0
2018,4,13,16,42,41.62,-0.7007,0.3126,0.2202,0.6021,21.5,-6.5,62.3,0.13,0.285,0.554,0
2018,4,13,16,42,41.624,-0.6954,0.3086,0.2264,0.6081,15,18.9,54.9,0.235,0.453,0.243,0
2018,4,13,16,42,41.638,-0.6889,0.3097,0.2328,0.6125,-7.4,38.3,45.5,0.404,0.546,-0.136,0
2018,4,13,16,42,41.674,-0.6828,0.3121,0.2403,0.6152,15.8,40.9,39.5,0.43,0.485,-0.217,0
2018,4,13,16,42,41.697,-0.6793,0.3095,0.2504,0.6164,53.9,23.6,39.1,0.399,0.464,-0.061,0
2018,4,13,16,42,41.702,-0.6775,0.3015,0.2603,0.6181,61.5,-3.2,45.6,0.382,0.33,0.03,0
2018,4,13,16,42,41.736,-0.6756,0.2912,0.2667,0.6225,40.1,-26.3,54.5,0.389,0.242,0.06,0
2018,4,13,16,42,41.759,-0.6714,0.2836,0.2666,0.6305,-23.4,-40.8,58.1,0.353,0.175,0.102,0
2018,4,13,16,42,41.763,-0.6646,0.283,0.2575,0.6417,-85.2,-48.5,47.5,0.284,0.086,0.134,0
2018,4,13,16,42,41.796,-0.6578,0.2867,0.2425,0.6528,-98.8,-52.6,28,0.275,0.141,0.204,0
2018,4,13,16,42,41.821,-0.6532,0.2899,0.2272,0.6614,-73.2,-54,13.5,0.227,0.178,0.156,0
2018,4,13,16,42,41.825,-0.6545,0.2817,0.2106,0.6692,28.9,-54.4,-2.9,0.076,0.072,0.166,0
2018,4,13,16,42,41.861,-0.6591,0.2707,0.2084,0.6699,37.8,-56.7,-9.5,-0.031,0.084,0.172,0
2018,4,13,16,42,41.861,-0.6635,0.2615,0.2041,0.6704,-1.2,-55.1,-17.9,-0.074,0.107,0.06,0
2018,4,13,16,42,41.882,-0.6682,0.264,0.1799,0.6717,-85.7,-42.8,-38.7,-0.075,0.075,-0.086,0
2018,4,13,16,42,41.917,-0.67,0.2718,0.1619,0.6714,-103.7,-37.5,-46.6,-0.037,0.091,-0.078,0
2018,4,13,16,42,41.94,-0.6716,0.2815,0.1437,0.67,-96.6,-35.5,-53.3,-0.029,-0.054,-0.066,0
2018,4,13,16,42,41.945,-0.6753,0.2879,0.1275,0.6668,-56.6,-39.7,-58.4,-0.067,-0.087,0.004,0
2018,4,13,16,42,41.96,-0.6807,0.2904,0.114,0.6627,-50.2,-43.9,-64.8,-0.047,0.067,-0.007,0
2018,4,13,16,42,41.983,-0.6863,0.2934,0.0998,0.6579,-58.3,-44.3,-71.1,-0.026,0.037,-0.158,0
2018,4,13,16,42,42.019,-0.6925,0.297,0.0847,0.6518,-51.4,-43,-79,-0.035,-0.008,-0.144,0
2018,4,13,16,42,42.043,-0.6994,0.3003,0.07,0.6446,-55.1,-43.3,-85.1,-0.063,0.033,-0.073,0
2018,4,13,16,42,42.047,-0.7058,0.3047,0.053,0.6372,-84.4,-48.4,-88.4,-0.053,0.076,-0.031,0
2018,4,13,16,42,42.06,-0.7102,0.3122,0.0314,0.6301,-113.4,-55.1,-87.3,-0.054,0.024,0.062,0
2018,4,13,16,42,42.097,-0.7144,0.3188,0.0079,0.6227,-91.3,-63.2,-91,-0.011,-0.025,-0.005,0
2018,4,13,16,42,42.12,-0.7199,0.3223,-0.0138,0.6144,-71.8,-62.2,-97,-0.027,-0.005,-0.063,1023
2018,4,13,16,42,42.124,-0.7261,0.3244,-0.0342,0.6051,-71.8,-61.1,-100.8,-0.045,0.063,-0.003,1023
2018,4,13,16,42,42.158,-0.7317,0.327,-0.0551,0.5953,-80.2,-62.9,-101.1,-0.049,0.036,-0.057,1023
2018,4,13,16,42,42.211,-0.7363,0.3309,-0.0773,0.5851,-85.5,-61,-98.9,-0.022,-0.069,-0.064,1023
2018,4,13,16,42,42.214,-0.7404,0.3344,-0.0994,0.5745,-77.3,-61.4,-98.1,-0.022,-0.035,-0.042,1023
2018,4,13,16,42,42.217,-0.7442,0.336,-0.1206,0.5643,-69.8,-68.1,-94.8,-0.037,-0.026,-0.048,1023
2018,4,13,16,42,42.224,-0.7472,0.3374,-0.1426,0.5544,-75.9,-70.6,-92.5,-0.012,-0.055,-0.128,1023
2018,4,13,16,42,42.259,-0.7489,0.3393,-0.1651,0.5446,-84.6,-73,-86.2,-0.034,-0.018,-0.167,0
2018,4,13,16,42,42.282,-0.7483,0.3425,-0.1889,0.5356,-106.2,-82.1,-76.9,-0.045,0.029,-0.09,0
2018,4,13,16,42,42.286,-0.7443,0.348,-0.2157,0.5275,-136.5,-93.3,-66.1,-0.031,0.067,-0.039,0
2018,4,13,16,42,42.323,-0.7368,0.3553,-0.2454,0.5201,-149.4,-105.6,-54.4,-0.017,0.067,-0.039,0
2018,4,13,16,42,42.323,-0.7265,0.3627,-0.2766,0.5136,-160.1,-115,-45.4,0.038,0.025,0.025,0
2018,4,13,16,42,42.344,-0.7184,0.3651,-0.3009,0.5097,-58.8,-65.5,-18.7,0.042,-0.589,-0.189,0
2018,4,13,16,42,42.38,-0.7126,0.3677,-0.3046,0.5139,-17.4,3.2,44.6,-0.526,-0.94,0.29,0
2018,4,13,16,42,42.403,-0.7116,0.3687,-0.301,0.5166,27.7,9.7,15.4,0.218,0.307,0.045,0
2018,4,13,16,42,42.407,-0.7113,0.3673,-0.2994,0.519,-9.2,-13.2,13.4,0.353,0.291,-0.195,0
2018,4,13,16,42,42.423,-0.7078,0.3702,-0.3028,0.5197,-36.5,-9.2,5.4,0.304,-0.134,-0.139,0
2018,4,13,16,42,42.444,-0.706,0.3725,-0.3059,0.5187,-6.7,-3,-3.4,0.063,-0.219,0.01,0
2018,4,13,16,42,42.479,-0.7067,0.3716,-0.3061,0.5183,20.8,3.6,-0.7,0.058,-0.031,-0.049,0
2018,4,13,16,42,42.503,-0.7084,0.369,-0.3038,0.5192,25.6,3.3,1.2,0.024,0.003,-0.025,0
2018,4,13,16,42,42.507,-0.7098,0.3663,-0.3015,0.5205,18.7,-0.8,3.5,0,0.051,-0.012,0
2018,4,13,16,42,42.542,-0.7104,0.3644,-0.2997,0.5221,13.3,-1.4,5.1,-0.022,0.032,0.012,0
2018,4,13,16,42,42.542,-0.7108,0.3628,-0.298,0.5236,11.9,-1,4.2,-0.016,0.028,0.064,0
2018,4,13,16,42,42.563,-0.7113,0.3609,-0.2967,0.525,10.2,-4.9,1,-0.009,0.035,0.042,0
2018,4,13,16,42,42.6,-0.7117,0.3589,-0.2961,0.5261,10.8,-5.4,1.6,0.008,0.009,-0.012,0
2018,4,13,16,42,42.621,-0.7119,0.3574,-0.2959,0.527,6.6,-4.3,2.1,0.011,0.023,-0.015,0
2018,4,13,16,42,42.625,-0.7118,0.3564,-0.2959,0.5277,2.5,-3.6,2.4,0.002,0.021,-0.005,0
2018,4,13,16,42,42.644,-0.7112,0.3564,-0.2962,0.5284,-4.6,-4.5,4.9,-0.011,0.034,-0.01,0
2018,4,13,16,42,42.665,-0.7098,0.3572,-0.2971,0.5293,-8,-7.2,7.1,-0.017,0.036,-0.007,0
2018,4,13,16,42,42.7,-0.7084,0.3576,-0.2982,0.5304,-5,-8.8,5.5,-0.004,-0.005,0.017,0
2018,4,13,16,42,42.723,-0.7073,0.3574,-0.2992,0.5313,-3.3,-7.4,3.7,0.004,0.002,0.012,0
2018,4,13,16,42,42.728,-0.7066,0.3573,-0.3001,0.5318,-2.6,-4.4,1.5,0.019,0.012,-0.004,0
2018,4,13,16,42,42.745,-0.7063,0.3572,-0.3008,0.5318,-5.3,-1.2,0.2,0.036,0.033,0.006,0
2018,4,13,16,42,42.779,-0.706,0.3579,-0.3016,0.5313,-11,0.8,0.1,0.012,0.047,0.003,0
2018,4,13,16,42,42.803,-0.7053,0.3595,-0.3026,0.5306,-15.1,1,0.7,0.006,0.018,-0.002,0
2018,4,13,16,42,42.807,-0.7043,0.3613,-0.3038,0.53,-10.2,-0.8,1,-0.009,-0.032,-0.009,0
2018,4,13,16,42,42.842,-0.7036,0.3622,-0.3047,0.5298,-3.4,-1.7,1,0.007,-0.032,-0.016,0
2018,4,13,16,42,42.867,-0.7033,0.3624,-0.3051,0.5299,0.3,-1.2,1.2,0.008,-0.019,-0.013,0
2018,4,13,16,42,42.872,-0.7031,0.3623,-0.3052,0.5301,0.9,-1,0.9,0.002,0.012,-0.005,0
2018,4,13,16,42,42.887,-0.7031,0.3622,-0.3052,0.5302,-2.4,-0.5,1.1,0.006,0.031,0.001,0
2018,4,13,16,42,42.921,-0.7024,0.3628,-0.3058,0.5304,-1,-1.2,1.5,0.002,-0.009,0.005,0
2018,4,13,16,42,42.945,-0.7022,0.3628,-0.3059,0.5306,0.3,-1.2,1.4,0,0.004,-0.004,0
2018,4,13,16,42,42.949,-0.702,0.3628,-0.3059,0.5308,-0.9,-0.8,0.9,0.002,0.01,-0.004,0
2018,4,13,16,42,42.981,-0.7018,0.363,-0.3062,0.5308,-3,-0.2,1,0.003,0,-0.008,1023
2018,4,13,16,42,43.005,-0.7015,0.3635,-0.3065,0.5308,-0.7,0,0.9,0.001,-0.021,-0.019,1023
2018,4,13,16,42,43.009,-0.7014,0.3633,-0.3064,0.5309,3.9,-1,0.1,0,-0.012,-0.003,1023
2018,4,13,16,42,43.045,-0.7017,0.3627,-0.3061,0.5312,5.3,-1,0,0,0.004,-0.006,1023
2018,4,13,16,42,43.068,-0.702,0.3619,-0.3057,0.5315,5,-0.5,-0.6,0.004,0.017,-0.006,1023
2018,4,13,16,42,43.072,-0.7024,0.3613,-0.3054,0.5317,1.5,0.2,-0.3,0.005,0.033,0.004,1023
2018,4,13,16,42,43.087,-0.7025,0.3611,-0.3053,0.5317,0.8,0.1,0,0.005,0.006,-0.013,1023
2018,4,13,16,42,43.11,-0.7026,0.3609,-0.3052,0.5318,3.4,0,0,0.003,-0.008,-0.004,1023
2018,4,13,16,42,43.144,-0.7028,0.3604,-0.3049,0.532,4.4,0,0.1,0.003,0.009,-0.005,1023
2018,4,13,16,42,43.166,-0.7031,0.3599,-0.3045,0.5322,2.6,0.2,0,0.002,0.022,-0.002,0
2018,4,13,16,42,43.17,-0.7032,0.3596,-0.3043,0.5323,0,0,0,-0.001,0.021,0.006,0
2018,4,13,16,42,43.204,-0.7032,0.3597,-0.3043,0.5323,-1,0,0.4,0,0.01,-0.003,0
2018,4,13,16,42,43.228,-0.7031,0.3599,-0.3043,0.5323,-2.2,0,0.4,0.005,0.013,-0.002,0
2018,4,13,16,42,43.232,-0.7029,0.3602,-0.3046,0.5322,-2.8,0.3,0.3,0.004,-0.001,-0.011,0
2018,4,13,16,42,43.247,-0.7027,0.3606,-0.3048,0.532,-0.9,0.6,0,0,-0.015,-0.012,0
2018,4,13,16,42,43.268,-0.7027,0.3607,-0.3048,0.5319,0.8,0.5,0,0.003,0.007,-0.003,0
2018,4,13,16,42,43.305,-0.7029,0.3606,-0.3047,0.532,1.5,0,0,0.001,0.008,-0.007,0
2018,4,13,16,42,43.326,-0.703,0.3603,-0.3045,0.532,2.5,0,-0.2,0,-0.002,-0.01,0
2018,4,13,16,42,43.331,-0.7032,0.3601,-0.3043,0.5321,3.5,0.7,-0.6,0.002,-0.018,-0.011,0
2018,4,13,16,42,43.364,-0.7036,0.3596,-0.3039,0.5321,6.8,0.7,-0.9,0,-0.011,-0.014,0
2018,4,13,16,42,43.389,-0.704,0.3588,-0.3032,0.5324,4,-1,0.4,-0.008,0.031,-0.013,0
2018,4,13,16,42,43.394,-0.704,0.3583,-0.303,0.5329,2.2,-2,0.5,0,0.02,0.003,0
2018,4,13,16,42,43.43,-0.704,0.3579,-0.303,0.5332,0.9,-1.7,0.7,0.001,0.02,0.008,0
2018,4,13,16,42,43.43,-0.704,0.3575,-0.303,0.5334,0.6,-1.2,0.7,0.011,0.013,0.005,0
2018,4,13,16,42,43.451,-0.704,0.3573,-0.3031,0.5335,-0.1,-0.6,0.9,0.003,0.014,-0.002,0
2018,4,13,16,42,43.488,-0.704,0.3572,-0.3031,0.5336,0,0,0,0.003,0.008,0.003,0
2018,4,13,16,42,43.488,-0.704,0.3571,-0.3031,0.5336,0,0,0,0.006,0.012,0.006,0
2018,4,13,16,42,43.511,-0.704,0.357,-0.3031,0.5337,-2,0,0.4,0.004,0.025,0.002,0
2018,4,13,16,42,43.546,-0.7038,0.3574,-0.3033,0.5336,-3.1,0,0.5,0,0.003,-0.001,0
2018,4,13,16,42,43.567,-0.7036,0.3578,-0.3036,0.5335,-1.2,0,0.3,0.001,-0.011,-0.013,0
2018,4,13,16,42,43.572,-0.7035,0.3578,-0.3037,0.5335,1.5,-0.1,0,0,0,-0.008,0
2018,4,13,16,42,43.609,-0.7037,0.3576,-0.3035,0.5335,1.5,-0.1,0,0,0.011,-0.003,0
2018,4,13,16,42,43.63,-0.7037,0.3574,-0.3035,0.5336,0,0,0,0.001,0.015,-0.005,0
2018,4,13,16,42,43.635,-0.7038,0.3574,-0.3035,0.5336,0,0,0,0.002,0.006,-0.007,0
2018,4,13,16,42,43.649,-0.7038,0.3574,-0.3035,0.5335,-0.5,0.5,0,0.002,0.011,-0.004,0
2018,4,13,16,42,43.672,-0.7038,0.3575,-0.3035,0.5334,0,0.8,-0.4,0,0.007,-0.004,0
2018,4,13,16,42,43.689,-0.7039,0.3576,-0.3034,0.5334,0,0,0,0,0.009,-0.004,0
2018,4,13,16,42,43.71,-0.7039,0.3576,-0.3034,0.5333,0,0,0,0,0.014,-0.001,0
2018,4,13,16,42,43.747,-0.7038,0.3576,-0.3034,0.5333,-1,0,0.2,0.001,0.011,-0.003,0
2018,4,13,16,42,43.769,-0.7038,0.3578,-0.3035,0.5333,-1.3,0.2,0.1,0.002,0,-0.004,0
2018,4,13,16,42,43.773,-0.7037,0.358,-0.3036,0.5332,-1.1,0.5,0,0.004,0.001,-0.007,0
2018,4,13,16,42,43.808,-0.7037,0.3582,-0.3037,0.533,-0.5,0.5,-0.1,0,0,-0.009,1023
2018,4,13,16,42,43.829,-0.7036,0.3583,-0.3037,0.533,0.6,0.5,-0.2,0.004,0.001,0,1023
2018,4,13,16,42,43.834,-0.7037,0.3582,-0.3037,0.533,-0.7,0.4,0,0.002,0.011,-0.004,1023
2018,4,13,16,42,43.869,-0.7037,0.3583,-0.3037,0.5329,-1.4,0.5,-0.2,-0.001,0.014,-0.001,1023
2018,4,13,16,42,43.892,-0.7037,0.3585,-0.3038,0.5327,-1.8,0.5,-0.2,0,0.008,-0.01,1023
2018,4,13,16,42,43.896,-0.7036,0.3588,-0.3039,0.5326,-2.1,0.4,-0.1,0.002,0.007,-0.005,1023
2018,4,13,16,42,43.91,-0.7035,0.359,-0.3041,0.5324,-2,0.2,0,0.001,0.003,-0.006,1023
2018,4,13,16,42,43.933,-0.7034,0.3593,-0.3043,0.5323,-1.5,0,0.1,0.001,0,-0.001,0
2018,4,13,16,42,43.969,-0.7033,0.3595,-0.3044,0.5322,-0.7,-0.1,0.1,0,0.003,-0.012,0
2018,4,13,16,42,43.991,-0.7032,0.3596,-0.3045,0.5322,0,0,0,0,0.009,-0.005,0
2018,4,13,16,42,43.996,-0.7032,0.3595,-0.3045,0.5322,0,0,0,0,0.004,-0.007,0
2018,4,13,16,42,44.032,-0.7033,0.3595,-0.3045,0.5322,0,0,0,0,0.009,-0.005,0
2018,4,13,16,42,44.054,-0.7033,0.3596,-0.3046,0.5322,-0.9,0.2,-0.4,0.001,0.005,-0.007,0
2018,4,13,16,42,44.059,-0.7032,0.3597,-0.3046,0.5321,0,0,0,0,-0.003,-0.01,0
2018,4,13,16,42,44.073,-0.7033,0.3596,-0.3046,0.5321,0.8,0.1,-0.1,0.005,0.004,-0.007,0
2018,4,13,16,42,44.096,-0.7034,0.3594,-0.3045,0.5321,1.1,0,-0.1,0.003,0.011,-0.001,0
2018,4,13,16,42,44.132,-0.7034,0.3593,-0.3045,0.5321,0,0,0,0,0.014,-0.003,0
2018,4,13,16,42,44.132,-0.7034,0.3594,-0.3045,0.5321,-1.6,0.2,0,0,0.008,0,0
2018,4,13,16,42,44.155,-0.7033,0.3596,-0.3047,0.5319,-1.3,0,0,0.002,0.001,-0.005,0
2018,4,13,16,42,44.172,-0.7033,0.3597,-0.3047,0.5319,0,0,0,0.003,0.003,-0.007,0
2018,4,13,16,42,44.195,-0.7033,0.3597,-0.3048,0.5319,-0.6,0.2,-0.1,0,0.011,-0.008,0
2018,4,13,16,42,44.23,-0.7033,0.3598,-0.3048,0.5318,-1.5,0.4,-0.1,0.002,0.01,-0.003,0
2018,4,13,16,42,44.254,-0.7032,0.3601,-0.305,0.5316,-2,0.2,0,0,0.005,-0.004,0
2018,4,13,16,42,44.258,-0.7031,0.3604,-0.3051,0.5315,-2.1,0.2,0.1,0.001,0.003,-0.004,0
2018,4,13,16,42,44.292,-0.7029,0.3606,-0.3053,0.5314,-2.3,0.1,0.2,0.003,0.009,-0.005,0
2018,4,13,16,42,44.313,-0.7028,0.361,-0.3055,0.5313,-2.4,0.1,0.3,-0.001,0.008,-0.004,0
2018,4,13,16,42,44.317,-0.7026,0.3612,-0.3057,0.5312,-1.2,-0.3,0,-0.001,-0.002,-0.007,0
2018,4,13,16,42,44.333,-0.7025,0.3613,-0.3058,0.5312,0,0,0,0.002,0.005,-0.002,0
2018,4,13,16,42,44.354,-0.7025,0.3613,-0.3059,0.5312,0,0,0,0,0.008,-0.006,0
2018,4,13,16,42,44.389,-0.7025,0.3614,-0.3059,0.5311,-0.9,0.1,0,0,0.006,-0.003,0
2018,4,13,16,42,44.413,-0.7024,0.3615,-0.306,0.5311,-1.2,0,0,0,0.001,-0.006,0
2018,4,13,16,42,44.416,-0.7024,0.3617,-0.3061,0.531,-0.9,0.1,0,0.001,-0.001,-0.008,0
2018,4,13,16,42,44.451,-0.7023,0.3618,-0.3062,0.531,0.5,-0.1,-0.1,0.004,0.002,-0.008,0
2018,4,13,16,42,44.473,-0.7024,0.3617,-0.3062,0.531,0,0,0,0.003,0.014,-0.004,0
2018,4,13,16,42,44.478,-0.7024,0.3617,-0.3062,0.5309,-0.6,0,-0.1,0,0.013,-0.001,0
2018,4,13,16,42,44.512,-0.7023,0.3618,-0.3063,0.5309,-1.5,0,0,0,0.009,-0.006,0
2018,4,13,16,42,44.534,-0.7022,0.362,-0.3064,0.5308,-1.3,-0.1,0,0.002,0.004,-0.004,0
2018,4,13,16,42,44.538,-0.7022,0.3621,-0.3066,0.5307,-1.1,0.2,-0.2,0.001,0.005,-0.011,0
2018,4,13,16,42,44.554,-0.7021,0.3623,-0.3067,0.5306,-0.5,0.2,0,0.003,0.004,-0.001,0
2018,4,13,16,42,44.577,-0.7021,0.3623,-0.3067,0.5306,0,0,0,-0.002,0.002,-0.004,0
2018,4,13,16,42,44.612,-0.7021,0.3623,-0.3067,0.5306,0,0,0,0.001,0.003,-0.005,1023
2018,4,13,16,42,44.633,-0.7021,0.3623,-0.3068,0.5306,0.5,0,0,0.003,-0.003,-0.01,1023
2018,4,13,16,42,44.638,-0.7022,0.3622,-0.3067,0.5306,0.9,0,-0.3,0.002,0.011,0,1023
2018,4,13,16,42,44.674,-0.7022,0.3621,-0.3066,0.5306,0,0,0,0,0.019,0,1023
2018,4,13,16,42,44.694,-0.7022,0.3622,-0.3067,0.5305,-0.8,0.4,0,0.001,0.007,-0.007,1023
2018,4,13,16,42,44.699,-0.7022,0.3623,-0.3067,0.5304,-1.2,0.5,-0.3,-0.002,0.005,-0.008,1023
2018,4,13,16,42,44.734,-0.7022,0.3626,-0.3068,0.5303,-0.7,0.6,-0.5,0,0.002,-0.006,1023
2018,4,13,16,42,44.756,-0.7022,0.3626,-0.3068,0.5302,0,0,0,0.002,0.001,-0.006,1023
2018,4,13,16,42,44.761,-0.7022,0.3626,-0.3068,0.5302,0.8,0,0,0.002,0.008,-0.002,1023
2018,4,13,16,42,44.794,-0.7023,0.3625,-0.3067,0.5302,0.5,0.2,0.2,0.001,0.006,-0.002,1023
2018,4,13,16,42,44.818,-0.7023,0.3625,-0.3066,0.5302,0.6,0.1,0.1,0.001,0.007,-0.007,1023
2018,4,13,16,42,44.822,-0.7023,0.3624,-0.3066,0.5303,0,0,0,-0.004,0.003,-0.006,1023
2018,4,13,16,42,44.858,-0.7023,0.3624,-0.3066,0.5302,1.1,0.4,-0.4,-0.001,-0.004,-0.004,0
2018,4,13,16,42,44.858,-0.7025,0.3623,-0.3065,0.5302,1.4,0.1,-0.5,0.002,0.007,-0.006,0
2018,4,13,16,42,44.88,-0.7026,0.3621,-0.3064,0.5302,0.7,0.3,-0.4,0.003,0.004,-0.001,0
2018,4,13,16,42,44.898,-0.7027,0.362,-0.3063,0.5302,0.6,0.6,-0.3,0.003,0.004,-0.004,0
2018,4,13,16,42,44.919,-0.7028,0.362,-0.3062,0.5301,0.2,0.5,0,0.002,0.008,-0.004,0
2018,4,13,16,42,44.955,-0.7028,0.362,-0.3062,0.5301,0.4,0.6,0,0.003,0.001,0.001,0
2018,4,13,16,42,44.979,-0.7029,0.3619,-0.3061,0.5301,1.9,0.2,-0.3,0,-0.006,-0.014,0
2018,4,13,16,42,44.983,-0.703,0.3618,-0.306,0.5301,2.5,0.2,0,0.006,-0.008,-0.011,0
2018,4,13,16,42,44.999,-0.7032,0.3615,-0.3058,0.5302,2,0.5,-0.3,0,0.011,-0.004,0
2018,4,13,16,42,45.022,-0.7034,0.3613,-0.3055,0.5301,1.2,0.8,-0.6,-0.004,0.016,0,0
2018,4,13,16,42,45.06,-0.7036,0.3612,-0.3054,0.5301,0.3,0.7,-0.8,0.001,0.005,0,0
2018,4,13,16,42,45.06,-0.7037,0.3612,-0.3053,0.5301,0,0,0,0,0.004,-0.002,0
2018,4,13,16,42,45.083,-0.7037,0.3612,-0.3054,0.5301,0,0,0,0,0.011,-0.009,0
2018,4,13,16,42,45.097,-0.7037,0.3612,-0.3054,0.53,0,0,0,0,0.011,-0.002,0
2018,4,13,16,42,45.118,-0.7036,0.3613,-0.3054,0.53,-0.7,0.3,0,0.006,-0.001,-0.002,0
2018,4,13,16,42,45.152,-0.7036,0.3613,-0.3054,0.53,0,0,0,0,0.003,-0.007,0
2018,4,13,16,42,45.175,-0.7037,0.3613,-0.3053,0.53,1.4,0,0,0,0.002,-0.005,0
2018,4,13,16,42,45.181,-0.7038,0.3611,-0.3052,0.53,1.4,0.4,-0.1,0.001,0.004,-0.007,0
2018,4,13,16,42,45.217,-0.7039,0.361,-0.3051,0.53,1,0.5,-0.4,0.002,0.008,0,0
2018,4,13,16,42,45.24,-0.704,0.3609,-0.305,0.53,-1,0.5,-0.1,0,0.013,0,0
2018,4,13,16,42,45.244,-0.704,0.361,-0.305,0.5299,-0.2,0.5,-0.3,0,0.006,0,0
2018,4,13,16,42,45.278,-0.704,0.361,-0.305,0.5299,0,0,0,0,0,-0.006,0
2018,4,13,16,42,45.278,-0.7041,0.3609,-0.3049,0.5299,1.1,-0.2,0.1,0.002,0.008,-0.003,0
2018,4,13,16,42,45.302,-0.7042,0.3608,-0.3048,0.53,0.6,0.1,0.1,0.001,0.01,-0.002,0
2018,4,13,16,42,45.337,-0.7042,0.3607,-0.3048,0.53,0,0,0,0,0.011,-0.004,0
2018,4,13,16,42,45.36,-0.7042,0.3607,-0.3048,0.53,-0.8,0.1,0,0,0.006,-0.007,0
2018,4,13,16,42,45.364,-0.7041,0.3609,-0.3049,0.5299,-1.1,0.2,0,0.003,0.003,-0.007,0
2018,4,13,16,42,45.399,-0.7041,0.3611,-0.3049,0.5298,-0.6,0.2,0.1,-0.003,0.003,-0.006,0
2018,4,13,16,42,45.423,-0.7041,0.3611,-0.305,0.5298,-0.6,0.1,0.2,0.003,0.012,-0.003,0
2018,4,13,16,42,45.426,-0.7041,0.3611,-0.305,0.5298,0,0,0,0,0.003,0,0
2018,4,13,16,42,45.442,-0.704,0.3611,-0.305,0.5298,-0.7,0,0.4,0,0.006,-0.002,0
2018,4,13,16,42,45.465,-0.704,0.3613,-0.305,0.5298,-1,0.4,0,0.002,0.005,-0.005,1023
2018,4,13,16,42,45.5,-0.7039,0.3615,-0.3051,0.5297,-1.3,0.5,0,0,0.005,-0.006,1023
2018,4,13,16,42,45.5,-0.7039,0.3616,-0.3051,0.5296,-0.5,0.3,-0.3,0,0.006,-0.01,1023
2018,4,13,16,42,45.522,-0.7039,0.3617,-0.3052,0.5295,-0.1,0.6,-0.8,-0.001,-0.003,-0.01,1023
2018,4,13,16,42,45.557,-0.704,0.3618,-0.3052,0.5293,0,0.7,-0.9,0.002,-0.009,-0.01,1023
2018,4,13,16,42,45.58,-0.7042,0.3618,-0.3051,0.5291,1.9,1,-0.9,-0.001,0.001,-0.007,1023
2018,4,13,16,42,45.586,-0.7044,0.3616,-0.3049,0.5291,0.8,0.5,-0.5,0.001,0.007,-0.006,1023
2018,4,13,16,42,45.601,-0.7046,0.3613,-0.3047,0.5291,3.4,0.5,-1,-0.001,0.003,-0.007,1023
2018,4,13,16,42,45.624,-0.705,0.3609,-0.3043,0.5291,4.2,0.5,-1,-0.001,0.009,-0.009,0
2018,4,13,16,42,45.662,-0.7053,0.3605,-0.304,0.5291,2.2,0.8,-0.7,0.005,0.003,-0.005,0
2018,4,13,16,42,45.683,-0.7055,0.3603,-0.3038,0.5291,1.7,0.9,-0.6,0.001,0.019,0,0
2018,4,13,16,42,45.687,-0.7058,0.3601,-0.3036,0.529,0.7,0.7,-0.6,0.001,0.015,0.002,0
2018,4,13,16,42,45.722,-0.7061,0.3598,-0.3033,0.529,2.4,0.3,-0.7,-0.003,0.019,0.007,0
2018,4,13,16,42,45.744,-0.7062,0.3595,-0.3031,0.5291,1.3,-0.2,-0.1,-0.001,0.012,0.001,0
2018,4,13,16,42,45.748,-0.7063,0.3593,-0.303,0.5292,0.5,-0.1,0,0.001,0.006,-0.001,0
2018,4,13,16,42,45.764,-0.7063,0.3593,-0.303,0.5292,0,0,0,0.003,0.002,-0.007,0
2018,4,13,16,42,45.797,-0.7063,0.3593,-0.303,0.5292,0.6,0,0,0,0.005,-0.01,0
2018,4,13,16,42,45.819,-0.7064,0.3592,-0.303,0.5292,0.5,0,0,0,0.009,-0.002,0
2018,4,13,16,42,45.826,-0.7064,0.3591,-0.3029,0.5292,0,0,0,0,0.012,-0.006,0
2018,4,13,16,42,45.844,-0.7064,0.3592,-0.303,0.5292,0,0,0,0,0.002,-0.005,0
2018,4,13,16,42,45.866,-0.7064,0.359,-0.3029,0.5292,1.6,-0.1,-0.1,-0.002,0.006,-0.009,0
2018,4,13,16,42,45.9,-0.7065,0.3589,-0.3028,0.5293,0.9,0.2,-0.2,0,0.014,0,0
2018,4,13,16,42,45.922,-0.7066,0.3588,-0.3028,0.5293,-1,0.4,-0.1,0,0.02,-0.002,0
2018,4,13,16,42,45.927,-0.7066,0.359,-0.3028,0.5291,-2.5,0.8,-0.1,0.001,0.015,-0.001,0
2018,4,13,16,42,45.961,-0.7064,0.3594,-0.303,0.5289,-3.3,0.7,0,0.002,0.012,-0.006,0
2018,4,13,16,42,45.961,-0.7063,0.3598,-0.3032,0.5287,-2.7,0.6,0,0.003,0.006,-0.004,0
2018,4,13,16,42,45.985,-0.7061,0.3602,-0.3034,0.5285,-2.8,0.5,0.2,0.005,0.003,-0.006,0
2018,4,13,16,42,46.02,-0.706,0.3606,-0.3036,0.5284,-3,0.7,0.2,0,0.003,-0.006,0
2018,4,13,16,42,46.043,-0.7058,0.3611,-0.3038,0.5282,-3.5,0.5,0.2,-0.002,0.008,-0.001,0
2018,4,13,16,42,46.048,-0.7055,0.3617,-0.3041,0.528,-3.4,0.7,0.2,0.004,0.001,-0.006,0
2018,4,13,16,42,46.083,-0.7054,0.3621,-0.3043,0.5278,-1.9,0.8,0,0,-0.009,-0.01,0
2018,4,13,16,42,46.106,-0.7053,0.3624,-0.3043,0.5277,-0.4,0.7,0,0.003,0.003,-0.001,0
2018,4,13,16,42,46.111,-0.7053,0.3625,-0.3043,0.5275,-0.7,0.5,-0.4,-0.002,0.008,-0.003,0
2018,4,13,16,42,46.125,-0.7054,0.3627,-0.3043,0.5274,-1.3,0.8,-0.6,0.002,0.007,-0.005,0
2018,4,13,16,42,46.149,-0.7054,0.3629,-0.3044,0.5271,-1.8,0.7,-0.4,0.003,0.002,0,0
2018,4,13,16,42,46.163,-0.7053,0.3631,-0.3045,0.527,-0.6,0.4,-0.2,-0.003,0,-0.005,0
2018,4,13,16,42,46.184,-0.7053,0.3632,-0.3046,0.5269,0.6,0.1,-0.3,0,-0.001,-0.011,0
2018,4,13,16,42,46.218,-0.7055,0.3631,-0.3046,0.5268,1.1,0.7,-0.9,0,0.004,-0.007,0
2018,4,13,16,42,46.242,-0.7057,0.363,-0.3044,0.5267,0.8,0.7,-0.8,-0.001,0.019,-0.002,0
2018,4,13,16,42,46.247,-0.7058,0.3629,-0.3043,0.5266,0,0,0,-0.003,0.01,0,1023
2018,4,13,16,42,46.282,-0.7058,0.3628,-0.3043,0.5266,0,0,0,0,0.005,-0.003,1023
2018,4,13,16,42,46.306,-0.7059,0.3628,-0.3043,0.5266,0,0,0,0,0.006,-0.005,1023
2018,4,13,16,42,46.311,-0.7059,0.3629,-0.3044,0.5266,0,0,0,0,0.006,-0.005,1023
2018,4,13,16,42,46.326,-0.7059,0.3629,-0.3044,0.5266,0,0,0,0.002,0.005,-0.007,1023
2018,4,13,16,42,46.349,-0.7058,0.3629,-0.3044,0.5266,0,0,0,0,0.004,-0.007,1023
2018,4,13,16,42,46.388,-0.7058,0.3629,-0.3044,0.5266,0,0,0,0.004,0.004,-0.002,1023
2018,4,13,16,42,46.41,-0.7059,0.3629,-0.3044,0.5265,-0.5,0.2,0.2,0,0.008,-0.008,1023
2018,4,13,16,42,46.415,-0.7058,0.363,-0.3044,0.5265,-0.9,0.3,0.1,0,0.006,-0.002,1023
2018,4,13,16,42,46.449,-0.7057,0.3631,-0.3045,0.5265,0,0,0,0,-0.004,-0.007,1023
2018,4,13,16,42,46.449,-0.7057,0.3632,-0.3045,0.5265,1.4,0,0,0.001,-0.004,-0.007,1023
2018,4,13,16,42,46.47,-0.7058,0.3629,-0.3044,0.5266,2,-0.1,0,0.003,0.008,-0.003,1023
2018,4,13,16,42,46.487,-0.7059,0.3627,-0.3042,0.5266,0.9,0,0,0.003,0.013,0,1023
2018,4,13,16,42,46.521,-0.706,0.3626,-0.3042,0.5267,-0.8,0.2,0.1,0,0.014,-0.006,1023
2018,4,13,16,42,46.545,-0.7059,0.3628,-0.3043,0.5266,-0.9,0.2,0.1,-0.001,0,-0.006,0
2018,4,13,16,42,46.548,-0.7059,0.3628,-0.3043,0.5266,1,-0.1,-0.1,0,-0.008,-0.006,0
2018,4,13,16,42,46.582,-0.706,0.3627,-0.3042,0.5266,2.2,0,-0.3,0.002,0,-0.004,0
2018,4,13,16,42,46.605,-0.7062,0.3624,-0.304,0.5267,0,0,0,0.002,0.015,-0.002,0
2018,4,13,16,42,46.611,-0.7062,0.3623,-0.3039,0.5267,-0.5,0,0,0.003,0.02,0.001,0
2018,4,13,16,42,46.645,-0.7062,0.3624,-0.304,0.5266,-2.3,0,0,-0.002,0.009,-0.002,0
2018,4,13,16,42,46.666,-0.706,0.3628,-0.3043,0.5265,-2.5,0,0,0.001,-0.001,-0.004,0
2018,4,13,16,42,46.671,-0.7058,0.3631,-0.3045,0.5264,-0.9,0,0.1,0.001,-0.007,-0.008,0
2018,4,13,16,42,46.704,-0.7058,0.3631,-0.3045,0.5264,0,0,0,0,-0.001,-0.009,0
2018,4,13,16,42,46.725,-0.7058,0.3631,-0.3045,0.5264,0.8,0.1,0.1,-0.003,0.005,-0.005,0
2018,4,13,16,42,46.73,-0.7059,0.363,-0.3044,0.5264,0,0,0,0,0.015,0.003,0
2018,4,13,16,42,46.763,-0.7059,0.363,-0.3044,0.5264,-0.8,0.1,0,0.001,0.011,0,0
2018,4,13,16,42,46.784,-0.7059,0.3631,-0.3044,0.5263,-0.5,0.2,0,0.003,-0.001,-0.008,0
2018,4,13,16,42,46.789,-0.7059,0.3631,-0.3045,0.5263,1,0,0,0,-0.002,-0.005,0
2018,4,13,16,42,46.823,-0.7059,0.363,-0.3043,0.5264,1.6,0.1,0,0,0.003,-0.007,0
2018,4,13,16,42,46.843,-0.706,0.3628,-0.3042,0.5265,1.1,0.1,-0.1,0,0.008,-0.004,0
2018,4,13,16,42,46.851,-0.7061,0.3628,-0.3041,0.5265,-1,0.2,0,0,0.004,0,0
2018,4,13,16,42,46.887,-0.7061,0.3629,-0.3042,0.5264,-0.8,0,-0.1,0,0.009,-0.001,0
2018,4,13,16,42,46.906,-0.7061,0.3629,-0.3042,0.5264,0,0,0,0.001,0,-0.007,0
2018,4,13,16,42,46.908,-0.7061,0.3629,-0.3042,0.5264,1.2,0.2,-0.1,-0.001,0.001,-0.009,0
2018,4,13,16,42,46.943,-0.7062,0.3627,-0.3041,0.5264,0.8,0.2,-0.1,0,0.008,-0.003,0
2018,4,13,16,42,46.963,-0.7062,0.3627,-0.3041,0.5264,0,0,0,-0.005,0.013,0,0
2018,4,13,16,42,46.973,-0.7062,0.3628,-0.3041,0.5264,0,0,0,0,0.013,0.003,0
2018,4,13,16,42,47.008,-0.7062,0.3628,-0.3041,0.5264,0.5,0,0.2,0,0.002,-0.007,0
2018,4,13,16,42,47.03,-0.7062,0.3627,-0.304,0.5264,1.1,-0.1,0.1,-0.002,0.006,0,0
2018,4,13,16,42,47.032,-0.7063,0.3625,-0.3039,0.5265,1,0,-0.1,-0.001,0.008,-0.007,0
2018,4,13,16,42,47.067,-0.7064,0.3624,-0.3038,0.5265,0.6,0,0.1,0.002,0.01,0.001,0
2018,4,13,16,42,47.086,-0.7064,0.3623,-0.3038,0.5266,0,0,0,0.001,0.009,-0.002,0
2018,4,13,16,42,47.094,-0.7064,0.3623,-0.3038,0.5266,0,0,0,-0.001,0.003,-0.005,0
2018,4,13,16,42,47.127,-0.7063,0.3623,-0.3038,0.5266,1.1,-0.1,0.5,0,0,-0.003,0
2018,4,13,16,42,47.149,-0.7064,0.3622,-0.3037,0.5267,0.9,0,0.8,0.009,0.006,-0.008,1023
2018,4,13,16,42,47.151,-0.7063,0.3621,-0.3037,0.5269,-0.3,-0.5,0.9,0.004,0.008,0,1023
2018,4,13,16,42,47.183,-0.7061,0.3622,-0.3038,0.527,-0.4,-0.2,1,0.003,-0.002,-0.009,1023
2018,4,13,16,42,47.205,-0.706,0.3623,-0.3038,0.527,-0.1,0.2,1.1,0.013,0.006,-0.003,1023
2018,4,13,16,42,47.213,-0.706,0.3621,-0.3036,0.5273,3.4,-0.5,1.7,0.011,-0.008,-0.006,1023
2018,4,13,16,42,47.249,-0.7061,0.3615,-0.3035,0.5277,5.2,-2,2.4,0.025,-0.007,-0.002,1023
2018,4,13,16,42,47.268,-0.7061,0.3607,-0.3033,0.5284,4.6,-1.6,2.4,0.031,-0.003,-0.013,1023
2018,4,13,16,42,47.271,-0.706,0.3603,-0.3031,0.5288,1.9,0,2.5,0.006,-0.003,-0.004,1023
2018,4,13,16,42,47.306,-0.7058,0.3604,-0.3028,0.5292,0,-0.2,3.1,-0.001,0.004,-0.003,0
2018,4,13,16,42,47.328,-0.7055,0.3604,-0.3026,0.5298,3.3,-1.6,3.8,-0.017,-0.011,-0.008,0
2018,4,13,16,42,47.333,-0.7052,0.3599,-0.302,0.5308,6.5,-3.1,4.1,-0.018,-0.012,-0.006,0
2018,4,13,16,42,47.369,-0.705,0.3591,-0.3015,0.532,5.5,-3.9,4.9,-0.011,0.023,-0.014,0
2018,4,13,16,42,47.389,-0.7044,0.3585,-0.3012,0.5333,3.3,-5.8,6.1,-0.007,0.008,-0.013,0
2018,4,13,16,42,47.392,-0.7036,0.358,-0.3014,0.5346,2,-6.5,6.8,-0.002,-0.006,-0.009,0
2018,4,13,16,42,47.426,-0.7026,0.3576,-0.3016,0.536,1.4,-7.8,6.9,-0.005,0.004,0,0
2018,4,13,16,42,47.448,-0.7016,0.3571,-0.3021,0.5374,-1.2,-8.2,6.7,0,0.021,-0.003,0
2018,4,13,16,42,47.454,-0.7005,0.3568,-0.3029,0.5386,-0.8,-8.1,6.1,0.017,0.01,-0.012,0
2018,4,13,16,42,47.49,-0.6996,0.3563,-0.3036,0.5397,1.5,-6.4,4.9,0.003,-0.005,-0.012,0
2018,4,13,16,42,47.509,-0.699,0.3558,-0.3039,0.5406,-0.2,-4.5,3.1,0.013,0.025,0.006,0
2018,4,13,16,42,47.515,-0.6986,0.3557,-0.3045,0.5409,-7.8,-2,2.2,0.025,0.06,0.022,0
2018,4,13,16,42,47.549,-0.698,0.3565,-0.3053,0.5407,-13.3,-0.3,1.7,0.014,0.071,0.036,0
2018,4,13,16,42,47.571,-0.6973,0.3574,-0.3063,0.5404,-9.3,-2.1,0.7,0.01,0.039,0.032,0
2018,4,13,16,42,47.577,-0.6969,0.3575,-0.3071,0.5404,-3.8,-3.8,-0.4,0.002,0.024,0.027,0
2018,4,13,16,42,47.592,-0.6967,0.3576,-0.3078,0.5402,-8.2,-2,-1.2,-0.003,0.039,0.015,0
2018,4,13,16,42,47.612,-0.6959,0.3587,-0.3089,0.5398,-16,-1.3,1.1,-0.011,0.025,0.014,0
2018,4,13,16,42,47.646,-0.6947,0.3606,-0.3102,0.5394,-11.2,-0.3,4.4,0.006,-0.036,0.013,0
2018,4,13,16,42,47.668,-0.6937,0.3618,-0.3107,0.5396,-4.6,0.5,5.9,0.029,-0.025,0.007,0
2018,4,13,16,42,47.673,-0.6932,0.3625,-0.3109,0.5397,-3.1,4.1,5.2,0.075,-0.012,-0.034,0
2018,4,13,16,42,47.707,-0.693,0.3635,-0.3109,0.5392,0.2,8.3,3.2,0.084,-0.064,-0.058,0
2018,4,13,16,42,47.727,-0.6937,0.3641,-0.31,0.5385,9.8,11.9,-0.9,0.064,-0.081,-0.04,0
2018,4,13,16,42,47.736,-0.6955,0.3636,-0.308,0.5376,17,14.1,-6.9,0.031,-0.044,-0.038,1023
2018,4,13,16,42,47.77,-0.6983,0.3624,-0.3055,0.5362,16.6,15,-12.8,0.004,0.03,-0.038,1023
2018,4,13,16,42,47.792,-0.7012,0.3616,-0.3035,0.5341,7.8,14.7,-15.7,-0.015,0.043,-0.041,1023
2018,4,13,16,42,47.797,-0.7035,0.362,-0.3023,0.5315,-0.5,14.2,-15.4,-0.037,0.016,-0.036,1023
2018,4,13,16,42,47.832,-0.7051,0.3634,-0.3018,0.5287,-4,12.7,-14.1,-0.047,-0.043,-0.02,1023
2018,4,13,16,42,47.852,-0.7067,0.3642,-0.301,0.5264,7.6,10.3,-14.4,-0.079,-0.059,-0.029,1023
2018,4,13,16,42,47.855,-0.7089,0.3636,-0.2995,0.5248,13.6,8,-15,-0.083,-0.019,-0.015,1023
2018,4,13,16,42,47.89,-0.7114,0.362,-0.2974,0.5237,15.8,5.9,-13.2,-0.088,0.034,0.015,1023
2018,4,13,16,42,47.91,-0.7135,0.3601,-0.2956,0.5231,11.1,3.4,-9.9,-0.059,0.053,0.036,1023
2018,4,13,16,42,47.916,-0.715,0.3587,-0.2942,0.5228,7.9,1.6,-5.2,-0.046,0.04,0.022,1023
2018,4,13,16,42,47.951,-0.7159,0.3574,-0.293,0.5231,9.4,-1,-1.9,-0.048,0.049,0.042,1023
2018,4,13,16,42,47.971,-0.7165,0.3559,-0.2923,0.5237,3.1,-3.3,-1.1,-0.001,0.064,0.008,1023
2018,4,13,16,42,47.977,-0.7165,0.3555,-0.2927,0.5238,-3.4,-2.1,-1.3,0.006,0.022,-0.012,1023
2018,4,13,16,42,48.011,-0.7163,0.3558,-0.2934,0.5234,-2.7,-0.9,-0.9,0.008,-0.016,-0.005,1023
2018,4,13,16,42,48.033,-0.7163,0.3557,-0.2936,0.5234,4,-1.2,-0.4,0.002,-0.028,-0.005,1023
2018,4,13,16,42,48.038,-0.7166,0.355,-0.2934,0.5236,6.1,-0.6,-0.8,0.005,0.002,-0.008,1023
2018,4,13,16,42,48.07,-0.7171,0.3542,-0.2931,0.5237,4.5,0.9,-1.2,0.014,0.012,-0.019,1023
2018,4,13,16,42,48.092,-0.7175,0.3538,-0.2927,0.5236,3.9,2,-1.2,0.006,0.002,-0.014,1023
2018,4,13,16,42,48.102,-0.718,0.3533,-0.292,0.5236,7.6,1.3,-0.9,-0.006,-0.018,0.003,1023
2018,4,13,16,42,48.137,-0.7187,0.3522,-0.2912,0.5239,10.7,-0.6,-1.7,-0.001,-0.032,-0.003,1023
2018,4,13,16,42,48.16,-0.7195,0.3506,-0.2904,0.5243,14.2,0.4,-2,0.012,-0.01,-0.024,1023
2018,4,13,16,42,48.165,-0.7207,0.3488,-0.2892,0.5246,14.1,2.1,-2,0.02,0.019,-0.006,1023
2018,4,13,16,42,48.178,-0.7218,0.3472,-0.2878,0.5248,9.4,3.6,-0.8,0.02,0.044,0.015,0
2018,4,13,16,42,48.201,-0.7226,0.3464,-0.2869,0.5248,2.7,2.8,0,0.011,0.051,0.009,0
2018,4,13,16,42,48.237,-0.7228,0.3463,-0.2864,0.5249,-1.3,1.3,0.7,0.001,0.025,0,0
2018,4,13,16,42,48.258,-0.7227,0.3468,-0.2863,0.5247,-3,2.1,0,-0.019,0.006,-0.004,0
2018,4,13,16,42,48.263,-0.7226,0.3474,-0.2862,0.5244,-2.3,2.3,-1.2,-0.011,-0.005,0.001,0
2018,4,13,16,42,48.297,-0.7227,0.348,-0.2861,0.524,-3.5,2.9,-0.6,0.005,0.035,-0.01,0
2018,4,13,16,42,48.321,-0.7226,0.3486,-0.2862,0.5236,-6.1,1.6,0.8,0,0.041,0.009,0
2018,4,13,16,42,48.325,-0.7223,0.3491,-0.2864,0.5237,-1.6,-1.9,2,-0.008,-0.017,0.005,0
2018,4,13,16,42,48.359,-0.7219,0.3491,-0.2866,0.524,0.4,-2.1,1.6,0.002,-0.014,-0.012,0
2018,4,13,16,42,48.382,-0.7217,0.3491,-0.2868,0.5243,-0.5,-1.2,1.3,0,0.008,-0.001,0
2018,4,13,16,42,48.387,-0.7214,0.3492,-0.2869,0.5245,-3.4,-1.6,1.7,0,0.039,0.004,0
2018,4,13,16,42,48.401,-0.7208,0.3498,-0.2874,0.5247,-6.9,-0.7,4.6,0.012,0.012,-0.009,0
2018,4,13,16,42,48.44,-0.7198,0.351,-0.2879,0.525,-5.2,0.8,7.2,0.021,-0.065,-0.032,0
2018,4,13,16,42,48.463,-0.719,0.352,-0.2878,0.5255,4.3,2.6,7.9,0.055,-0.055,-0.026,0
2018,4,13,16,42,48.467,-0.7188,0.3515,-0.2872,0.5263,7.2,0.7,5.8,0.041,-0.007,-0.029,0
2018,4,13,16,42,48.482,-0.719,0.351,-0.2865,0.5268,6.2,1.2,-0.2,-0.004,-0.003,-0.025,0
2018,4,13,16,42,48.503,-0.7195,0.3504,-0.2857,0.527,10.4,1,-3.6,-0.071,-0.017,-0.013,0
2018,4,13,16,42,48.539,-0.7207,0.349,-0.2839,0.5273,15.3,2.7,-3.7,-0.07,0.007,0.036,0
2018,4,13,16,42,48.561,-0.722,0.3471,-0.282,0.5277,9.5,2.6,-1.9,-0.001,0.058,0.027,0
2018,4,13,16,42,48.566,-0.7228,0.3464,-0.2811,0.5277,4.4,1.9,-1.5,0.013,0.01,-0.01,0
2018,4,13,16,42,48.6,-0.7234,0.3456,-0.2805,0.5276,7.2,1.1,-2.6,-0.002,0.011,-0.007,0
2018,4,13,16,42,48.6,-0.7242,0.3447,-0.2799,0.5275,7,1,-3.7,-0.007,-0.01,-0.006,0
2018,4,13,16,42,48.622,-0.7249,0.3439,-0.2794,0.5272,7.1,1.9,-4.2,-0.001,-0.012,-0.022,0
2018,4,13,16,42,48.662,-0.7258,0.3431,-0.2787,0.5269,6.6,2.4,-3.6,0,0.017,-0.002,0
2018,4,13,16,42,48.662,-0.7266,0.3422,-0.2781,0.5267,5.5,1.1,-2.2,0.002,0.039,0.018,0
2018,4,13,16,42,48.685,-0.7272,0.3413,-0.2776,0.5267,1.9,0.2,-1.3,-0.002,0.046,0.019,0
2018,4,13,16,42,48.703,-0.7274,0.3409,-0.2775,0.5267,-0.4,-0.5,-0.1,0.01,0.03,0.006,0
2018,4,13,16,42,48.725,-0.7274,0.3408,-0.2776,0.5268,-0.1,-1.5,0.5,0.001,0.003,0,0
2018,4,13,16,42,48.76,-0.7272,0.3407,-0.2778,0.527,1.1,-0.8,0.1,-0.014,-0.013,-0.022,0
2018,4,13,16,42,48.782,-0.7271,0.3409,-0.2776,0.5271,1.4,1,-0.2,-0.06,-0.005,-0.042,0
2018,4,13,16,42,48.787,-0.7274,0.3409,-0.2773,0.5269,3.5,2.6,-0.4,0,-0.002,0,1023
2018,4,13,16,42,48.821,-0.7277,0.3408,-0.2769,0.5267,2.8,2.9,-0.6,0.033,-0.017,-0.021,1023
2018,4,13,16,42,48.845,-0.7282,0.3406,-0.2764,0.5264,5.7,3.2,-1.2,0.013,-0.015,-0.025,1023
2018,4,13,16,42,48.85,-0.7289,0.3399,-0.2755,0.5264,9.4,2.9,-1.2,0.01,0.005,0.003,1023
2018,4,13,16,42,48.863,-0.7298,0.3387,-0.2743,0.5266,8,2.1,-1.2,0.007,0.041,0.016,1023
2018,4,13,16,42,48.897,-0.7304,0.3379,-0.2734,0.5266,1.9,2.6,-0.9,-0.002,0.042,0.018,0
2018,4,13,16,42,48.919,-0.7307,0.3382,-0.2731,0.5262,-3.8,3.4,-1.6,0,-0.011,-0.011,0
2018,4,13,16,42,48.925,-0.7309,0.3388,-0.273,0.5257,2.5,3.3,-2.5,-0.005,-0.014,-0.024,0
2018,4,13,16,42,48.96,-0.7315,0.3386,-0.2725,0.5253,4.8,2.9,-3.4,-0.006,0.001,0.002,0
2018,4,13,16,42,48.983,-0.7322,0.3381,-0.2718,0.5249,3.4,3.3,-3,-0.006,0.021,0.007,0
2018,4,13,16,42,48.988,-0.7328,0.3379,-0.2712,0.5245,-0.9,4.1,-2.5,-0.009,0.032,0.007,0
2018,4,13,16,42,49.021,-0.733,0.3385,-0.271,0.5239,-6,3.6,-1.3,0.005,0.037,0.003,0
2018,4,13,16,42,49.043,-0.733,0.3393,-0.2711,0.5233,-3.9,2.5,-1.2,0.003,-0.015,-0.001,0
2018,4,13,16,42,49.048,-0.7331,0.3399,-0.2712,0.5228,-1.3,3.2,-1.5,-0.009,-0.009,-0.011,0
2018,4,13,16,42,49.063,-0.7333,0.3404,-0.2709,0.5224,-1.9,3.3,-1.9,-0.016,0.014,0.007,0
2018,4,13,16,42,49.087,-0.7335,0.3409,-0.2708,0.5218,-3.2,4.2,-0.6,0.034,0.027,-0.02,0
2018,4,13,16,42,49.121,-0.7336,0.3413,-0.2708,0.5214,-0.6,1.9,0,0.032,0.012,0.01,0
2018,4,13,16,42,49.144,-0.7338,0.341,-0.2707,0.5214,1.5,0,0.9,0.008,-0.002,0.016,0
2018,4,13,16,42,49.149,-0.7337,0.3409,-0.2706,0.5215,-1.2,-0.2,2.1,0.011,0.016,0.004,0
2018,4,13,16,42,49.186,-0.7334,0.3412,-0.2708,0.5218,-4.1,-1.4,3,0.004,0.011,-0.001,0
2018,4,13,16,42,49.186,-0.7327,0.3418,-0.2712,0.5221,-6.1,-1.9,2.7,-0.001,0.02,0,0
2018,4,13,16,42,49.208,-0.732,0.3425,-0.2719,0.5223,-7.6,-1.4,3.2,0,0.009,-0.009,0
2018,4,13,16,42,49.246,-0.7311,0.3438,-0.2726,0.5223,-5.9,0,2.1,0,-0.046,-0.033,0
2018,4,13,16,42,49.267,-0.7307,0.3446,-0.2729,0.5222,0.6,0.8,0.3,-0.02,-0.019,-0.023,0
2018,4,13,16,42,49.272,-0.7309,0.3445,-0.2725,0.5222,2.6,1.3,-0.9,-0.004,0.024,0.007,0
2018,4,13,16,42,49.286,-0.7312,0.3443,-0.2721,0.5221,-1.6,1.4,-0.8,0,0.046,0.009,0
2018,4,13,16,42,49.323,-0.7312,0.3447,-0.2722,0.5218,-5.4,1.6,-0.3,0.001,0.016,-0.007,0
2018,4,13,16,42,49.345,-0.7309,0.3456,-0.2725,0.5214,-3.4,1.6,-0.4,0.003,-0.016,-0.018,0
2018,4,13,16,42,49.349,-0.7309,0.346,-0.2726,0.5211,0,1.9,-0.6,0.004,-0.008,-0.009,0
2018,4,13,16,42,49.386,-0.7311,0.3462,-0.2724,0.5208,0.1,2.2,-1.1,0.003,0.008,-0.011,0
2018,4,13,16,42,49.386,-0.7313,0.3464,-0.2722,0.5205,-0.2,2.5,-1.5,-0.002,-0.009,-0.013,0
2018,4,13,16,42,49.408,-0.7316,0.3465,-0.2719,0.5203,1.4,2.4,-1.1,0.003,0.002,-0.001,0
2018,4,13,16,42,49.444,-0.7319,0.3464,-0.2715,0.5201,0.9,2.1,-0.7,0,0.02,0.005,0
2018,4,13,16,42,49.465,-0.7321,0.3464,-0.2712,0.5199,-1,1.5,-0.7,0.001,0.014,0,0
2018,4,13,16,42,49.47,-0.7321,0.3467,-0.2712,0.5197,-3,1,-0.3,-0.002,0.016,0.003,0
2018,4,13,16,42,49.507,-0.7319,0.3472,-0.2715,0.5194,-3.8,0.5,0,0.001,-0.003,-0.011,0
2018,4,13,16,42,49.507,-0.7318,0.3477,-0.2718,0.5192,-2.7,0.4,-0.1,0,0.007,-0.002,0
2018,4,13,16,42,49.53,-0.7317,0.3481,-0.2719,0.519,-2.7,0.7,-0.3,0.001,0.012,-0.003,1023
2018,4,13,16,42,49.564,-0.7316,0.3485,-0.2721,0.5188,-2.7,1.1,-0.4,0.002,0.007,-0.003,1023
2018,4,13,16,42,49.586,-0.7315,0.349,-0.2723,0.5184,-3.4,1,-0.4,-0.005,0.017,0,1023
2018,4,13,16,42,49.591,-0.7314,0.3495,-0.2725,0.5182,-4.6,0.6,0,0.002,0.01,-0.002,1023
2018,4,13,16,42,49.626,-0.7311,0.3501,-0.2729,0.5179,-3.4,0,0.3,-0.002,-0.009,-0.011,1023
2018,4,13,16,42,49.648,-0.7309,0.3505,-0.2732,0.5178,0,0,0,0.002,-0.026,-0.025,1023
2018,4,13,16,42,49.652,-0.731,0.3504,-0.273,0.5179,5,0.7,-0.2,0,-0.011,-0.013,1023
2018,4,13,16,42,49.669,-0.7314,0.3499,-0.2725,0.5179,6.4,1,-0.9,-0.009,0.005,0.001,1023
2018,4,13,16,42,49.69,-0.7319,0.3492,-0.2719,0.518,5,0.8,-1,-0.008,0.019,-0.006,1023
2018,4,13,16,42,49.727,-0.7323,0.3486,-0.2714,0.518,3.7,0.7,-0.6,-0.001,0.023,-0.005,0
2018,4,13,16,42,49.749,-0.7326,0.3482,-0.2711,0.5181,2.7,0.6,-0.6,-0.003,0.005,0,0
2018,4,13,16,42,49.753,-0.7329,0.3477,-0.2707,0.5182,3,0,-0.1,0,0.02,0.003,0
2018,4,13,16,42,49.769,-0.733,0.3474,-0.2705,0.5183,0.6,0,0.1,0,0.01,-0.005,0
