time_1,time_2,time_3,time_4,time_5,time_6,w,x,y,z,droll,dpitch,dyaw,ax,ay,az,heart
2018,5,17,21,12,26.959,-0.1088,-0.8272,0.5267,0.1623,0,0,0,0.002,0.004,-0.012,0
2018,5,17,21,12,26.996,-0.109,-0.8272,0.5266,0.1623,0,0,0,0.002,0.007,-0.004,0
2018,5,17,21,12,27.019,-0.1091,-0.8273,0.5265,0.1623,0,0,0,0,0.003,-0.007,0
2018,5,17,21,12,27.022,-0.1093,-0.8273,0.5265,0.1622,0,0,0,0.001,0.004,-0.003,0
2018,5,17,21,12,27.04,-0.1092,-0.8274,0.5263,0.1622,0,0,0,0.001,0,-0.005,0
2018,5,17,21,12,27.057,-0.1092,-0.8275,0.5262,0.1622,0.6,0,0.3,0.001,0,-0.007,0
2018,5,17,21,12,27.075,-0.1092,-0.8276,0.526,0.1621,0.5,-0.3,0.1,-0.002,0,-0.006,0
2018,5,17,21,12,27.096,-0.1091,-0.8277,0.5259,0.162,0,0,0,0,0,-0.007,0
2018,5,17,21,12,27.134,-0.109,-0.8278,0.5258,0.1619,1,-0.3,-0.2,0.004,0.001,-0.009,0
2018,5,17,21,12,27.157,-0.109,-0.8278,0.5258,0.1617,1,-0.1,-0.2,0.002,0.006,-0.016,0
2018,5,17,21,12,27.162,-0.1089,-0.8279,0.5257,0.1616,0.6,0,-0.1,-0.001,0.004,-0.011,0
2018,5,17,21,12,27.178,-0.1091,-0.8279,0.5257,0.1616,0,0,0,-0.001,0.007,-0.014,0
2018,5,17,21,12,27.201,-0.109,-0.8281,0.5255,0.1615,0,0,0,-0.001,0.006,-0.014,0
2018,5,17,21,12,27.218,-0.1092,-0.8281,0.5254,0.1615,-0.5,0,0.3,0,0.003,-0.017,0
2018,5,17,21,12,27.241,-0.1093,-0.8282,0.5253,0.1614,-0.5,-0.2,0,0.002,0.003,-0.014,0
2018,5,17,21,12,27.258,-0.1094,-0.8282,0.5252,0.1614,0,0,0,0.001,0.003,-0.011,0
2018,5,17,21,12,27.294,-0.1094,-0.8283,0.5251,0.1614,0,0,0,0.001,0.003,-0.01,0
2018,5,17,21,12,27.316,-0.1096,-0.8283,0.5251,0.1613,-0.5,0.5,0.1,0,0.002,-0.009,0
2018,5,17,21,12,27.322,-0.1096,-0.8284,0.5249,0.1615,-0.8,0.6,-0.1,0.002,0,-0.008,0
2018,5,17,21,12,27.339,-0.1097,-0.8284,0.5248,0.1615,0,0,0,-0.001,0.001,-0.008,0
2018,5,17,21,12,27.375,-0.1099,-0.8284,0.5248,0.1614,0,0,0,0,0.005,-0.011,1023
2018,5,17,21,12,27.399,-0.1099,-0.8285,0.5247,0.1613,0.7,-0.3,0,-0.003,0.005,-0.006,1023
2018,5,17,21,12,27.402,-0.1099,-0.8286,0.5245,0.1612,0,0,0,-0.001,0.005,-0.013,1023
2018,5,17,21,12,27.421,-0.1097,-0.8288,0.5243,0.1613,0,0,0,0.002,0.006,-0.013,1023
2018,5,17,21,12,27.44,-0.1096,-0.8289,0.5241,0.1613,0,0,0,0.003,0.006,-0.011,1023
2018,5,17,21,12,27.464,-0.1096,-0.829,0.524,0.1613,0,0,0,0.004,0.006,-0.015,1023
2018,5,17,21,12,27.483,-0.1095,-0.8291,0.5238,0.1614,0,0,0,0.003,0.004,-0.012,1023
2018,5,17,21,12,27.501,-0.1096,-0.8292,0.5236,0.1615,-0.5,0,0.4,0.002,0.004,-0.011,1023
2018,5,17,21,12,27.525,-0.1097,-0.8293,0.5234,0.1615,0,0,0,0.002,0.003,-0.01,1023
2018,5,17,21,12,27.544,-0.1097,-0.8294,0.5233,0.1614,0,0,0,-0.001,0,-0.007,1023
2018,5,17,21,12,27.56,-0.1096,-0.8295,0.5232,0.1614,-0.5,-0.2,0,0.001,0.002,-0.01,1023
2018,5,17,21,12,27.598,-0.1097,-0.8296,0.5231,0.1613,0,0,0,0,0.002,-0.011,1023
2018,5,17,21,12,27.62,-0.1098,-0.8296,0.523,0.1613,0,0,0,0.003,0.004,-0.013,1023
2018,5,17,21,12,27.624,-0.1098,-0.8297,0.5229,0.1612,0,0,0,0.001,0.002,-0.011,1023
2018,5,17,21,12,27.642,-0.11,-0.8297,0.5228,0.1612,-0.6,0.1,-0.1,0.002,0.006,-0.009,0
2018,5,17,21,12,27.66,-0.11,-0.8298,0.5227,0.1612,0,0,0,0.002,0.009,-0.012,0
2018,5,17,21,12,27.684,-0.11,-0.8299,0.5226,0.1612,0,0,0,0.004,0.008,-0.008,0
2018,5,17,21,12,27.719,-0.1101,-0.8299,0.5224,0.1612,0,0,0,-0.001,0.006,-0.008,0
2018,5,17,21,12,27.74,-0.1102,-0.83,0.5224,0.1612,0,0,0,-0.002,0.006,-0.009,0
2018,5,17,21,12,27.745,-0.1101,-0.8301,0.5222,0.1612,-0.1,0.3,0.5,0,0.005,-0.007,0
2018,5,17,21,12,27.765,-0.1103,-0.8302,0.522,0.1612,-0.1,0,0.6,0,0.004,-0.009,0
2018,5,17,21,12,27.785,-0.1104,-0.8303,0.5218,0.1612,0,0,0,0,0,-0.008,0
2018,5,17,21,12,27.802,-0.1104,-0.8304,0.5217,0.1611,0,0,0,0.002,0.004,-0.01,0
2018,5,17,21,12,27.839,-0.1102,-0.8305,0.5215,0.161,0.6,-0.5,0,0.002,0.001,-0.01,0
2018,5,17,21,12,27.863,-0.1101,-0.8307,0.5214,0.1609,1.1,-0.3,0.1,0,0.002,-0.015,0
2018,5,17,21,12,27.866,-0.1099,-0.8308,0.5213,0.1608,0.5,0,0,0,0.001,-0.013,0
2018,5,17,21,12,27.883,-0.1099,-0.8309,0.5211,0.1608,0,0,0,0.003,0.004,-0.019,0
2018,5,17,21,12,27.906,-0.11,-0.8309,0.5211,0.1607,0,0,0,0,0.003,-0.016,0
2018,5,17,21,12,27.939,-0.11,-0.831,0.5209,0.1607,0,0,0,0,0.005,-0.015,0
2018,5,17,21,12,27.963,-0.11,-0.8311,0.5208,0.1606,0,0,0,0,0.006,-0.012,0
2018,5,17,21,12,27.966,-0.11,-0.8311,0.5207,0.1606,0,0,0,0.006,0.005,-0.012,0
2018,5,17,21,12,28.002,-0.1099,-0.8313,0.5205,0.1607,0,0,0,0.002,0.004,-0.012,0
2018,5,17,21,12,28.002,-0.1099,-0.8313,0.5204,0.1607,-0.5,0.3,0.1,0.002,0.003,-0.011,0
2018,5,17,21,12,28.024,-0.1101,-0.8314,0.5203,0.1607,-0.5,0.3,0.2,-0.001,0.005,-0.001,0
2018,5,17,21,12,28.041,-0.1103,-0.8314,0.5202,0.1607,0,0,0,0,0.005,-0.01,0
2018,5,17,21,12,28.065,-0.1102,-0.8315,0.52,0.1607,0,0,0,-0.001,0.004,-0.009,0
2018,5,17,21,12,28.082,-0.1104,-0.8316,0.52,0.1607,0,0,0,-0.002,0.003,-0.008,0
2018,5,17,21,12,28.104,-0.1105,-0.8316,0.5199,0.1606,0,0,0,0,0.007,-0.015,1023
2018,5,17,21,12,28.143,-0.1105,-0.8317,0.5197,0.1606,0,0,0,0.002,0.006,-0.005,1023
2018,5,17,21,12,28.166,-0.1105,-0.8318,0.5196,0.1606,0,0,0,0.001,0.005,-0.01,1023
2018,5,17,21,12,28.17,-0.1105,-0.8318,0.5195,0.1606,0,0,0,0.005,0.002,-0.012,1023
2018,5,17,21,12,28.186,-0.1105,-0.8319,0.5194,0.1606,0,0,0,0.006,0.004,-0.006,1023
2018,5,17,21,12,28.209,-0.1104,-0.832,0.5192,0.1606,0,0,0,0,0.003,-0.007,1023
2018,5,17,21,12,28.246,-0.1103,-0.8321,0.5191,0.1606,0,0,0,0.005,0.003,-0.009,1023
2018,5,17,21,12,28.246,-0.1104,-0.8322,0.519,0.1606,0,-0.6,-0.2,0.003,0.007,-0.013,1023
2018,5,17,21,12,28.269,-0.1106,-0.8322,0.5189,0.1605,0,0,0,0.001,0.007,-0.01,1023
2018,5,17,21,12,28.285,-0.1108,-0.8322,0.5188,0.1604,0,0,0,0,0.005,-0.013,1023
2018,5,17,21,12,28.322,-0.1108,-0.8323,0.5187,0.1604,0,0,0,0.001,0.001,-0.008,1023
2018,5,17,21,12,28.344,-0.1109,-0.8324,0.5186,0.1604,-0.6,0.3,0,-0.002,0.004,-0.01,1023
2018,5,17,21,12,28.349,-0.1111,-0.8324,0.5185,0.1605,-0.8,0.2,0,-0.001,0.005,-0.007,1023
2018,5,17,21,12,28.368,-0.1113,-0.8324,0.5184,0.1605,0,0,0,0.001,0.006,-0.01,1023
2018,5,17,21,12,28.386,-0.1113,-0.8325,0.5183,0.1605,0,0,0,0,0.005,-0.005,0
2018,5,17,21,12,28.409,-0.1114,-0.8325,0.5182,0.1604,0,0,0,0,0.007,-0.009,0
2018,5,17,21,12,28.429,-0.1116,-0.8326,0.5181,0.1604,0,0,0,0.001,0.008,-0.008,0
2018,5,17,21,12,28.465,-0.1118,-0.8326,0.5181,0.1603,0,0,0,0,0.004,-0.01,0
2018,5,17,21,12,28.487,-0.1119,-0.8327,0.518,0.1602,0.2,0,0.6,0.001,0.004,-0.006,0
2018,5,17,21,12,28.493,-0.112,-0.8327,0.5179,0.1602,0,0,0,0.003,0.002,-0.005,0
2018,5,17,21,12,28.51,-0.112,-0.8328,0.5178,0.1602,0,0,0,0.001,0.005,-0.005,0
2018,5,17,21,12,28.527,-0.112,-0.8329,0.5176,0.1602,0,0,0,0,0.004,-0.011,0
2018,5,17,21,12,28.545,-0.112,-0.8329,0.5175,0.1602,0,0,0,0,0.004,-0.011,0
2018,5,17,21,12,28.568,-0.1119,-0.8331,0.5174,0.1601,0,0,0,-0.001,0.005,-0.012,0
2018,5,17,21,12,28.604,-0.1117,-0.8332,0.5172,0.1602,0,0,0,0.001,0.004,-0.011,0
2018,5,17,21,12,28.626,-0.1118,-0.8333,0.5171,0.1601,0,0,0,0.001,0.002,-0.012,0
2018,5,17,21,12,28.631,-0.1117,-0.8334,0.5169,0.1601,0,0,0,0.002,0.002,-0.012,0
2018,5,17,21,12,28.647,-0.1116,-0.8335,0.5168,0.1601,0,0,0,0.003,0.002,-0.014,0
2018,5,17,21,12,28.671,-0.1118,-0.8335,0.5167,0.16,0,0,0,0.001,0.003,-0.01,0
2018,5,17,21,12,28.707,-0.1118,-0.8336,0.5166,0.16,0,0,0,0.003,0,-0.013,0
2018,5,17,21,12,28.728,-0.1117,-0.8337,0.5164,0.16,0,0,0,0.002,0.005,-0.012,0
2018,5,17,21,12,28.733,-0.1116,-0.8338,0.5163,0.16,0,0,0,0,0.004,-0.006,0
2018,5,17,21,12,28.748,-0.1117,-0.8339,0.5162,0.16,0,0,0,0.001,0.007,-0.01,0
2018,5,17,21,12,28.786,-0.1117,-0.8339,0.516,0.16,0,0,0,0.001,0.008,-0.006,0
2018,5,17,21,12,28.786,-0.1116,-0.834,0.5159,0.16,0,0,0,0,0.007,-0.006,0
2018,5,17,21,12,28.809,-0.1116,-0.8341,0.5158,0.16,0,0,0,0.004,0.003,-0.012,0
2018,5,17,21,12,28.828,-0.1119,-0.8341,0.5158,0.1599,0,0,0,0.002,0.007,-0.012,1023
2018,5,17,21,12,28.853,-0.1121,-0.8341,0.5157,0.1598,0,0,0,0,0.006,-0.009,1023
2018,5,17,21,12,28.872,-0.1121,-0.8342,0.5155,0.1599,0,0,0,0.002,0.008,-0.005,1023
2018,5,17,21,12,28.89,-0.1119,-0.8344,0.5153,0.1599,0.1,0.2,0.5,0.002,0.004,-0.009,1023
2018,5,17,21,12,28.913,-0.112,-0.8345,0.5151,0.16,-0.4,0,0.6,0.004,0.003,-0.009,1023
2018,5,17,21,12,28.93,-0.112,-0.8346,0.5149,0.16,-0.7,-0.2,0.3,0.004,0.003,-0.013,1023
2018,5,17,21,12,28.953,-0.112,-0.8347,0.5147,0.16,0,0,0,0.005,0.004,-0.011,1023
2018,5,17,21,12,28.971,-0.1121,-0.8348,0.5146,0.1599,0.7,-0.4,-0.3,0.001,0.001,-0.01,1023
2018,5,17,21,12,28.994,-0.112,-0.8349,0.5145,0.1598,0,0,0,-0.001,0.003,-0.011,1023
2018,5,17,21,12,29.012,-0.1121,-0.8349,0.5145,0.1598,0,0,0,0.003,0.008,-0.011,1023
2018,5,17,21,12,29.036,-0.1123,-0.8349,0.5144,0.1597,0,0,0,0,0.007,-0.009,1023
2018,5,17,21,12,29.051,-0.1124,-0.835,0.5143,0.1598,0,0,0,0,0.006,-0.009,1023
2018,5,17,21,12,29.073,-0.1124,-0.8351,0.5141,0.1598,0,0,0,-0.003,0.008,-0.015,1023
2018,5,17,21,12,29.091,-0.1125,-0.8351,0.514,0.1598,0,0,0,0,0.004,-0.012,0
2018,5,17,21,12,29.113,-0.1125,-0.8352,0.5139,0.1598,0,0,0,0.004,0.007,-0.003,0
2018,5,17,21,12,29.151,-0.1126,-0.8352,0.5138,0.1598,0,0,0,0.001,0.007,-0.007,0
2018,5,17,21,12,29.174,-0.1127,-0.8353,0.5137,0.1598,-0.6,0.3,0.2,0.002,0.009,-0.005,0
2018,5,17,21,12,29.178,-0.1131,-0.8353,0.5136,0.1598,-0.5,0.1,0.3,0,0.003,-0.008,0
2018,5,17,21,12,29.193,-0.1132,-0.8353,0.5135,0.1598,0,0,0,0,0.003,-0.012,0
2018,5,17,21,12,29.216,-0.1131,-0.8355,0.5133,0.1597,0,0,0,0.003,0.004,-0.01,0
2018,5,17,21,12,29.235,-0.1131,-0.8355,0.5132,0.1597,0,0,0,0.001,0.005,-0.012,0
2018,5,17,21,12,29.258,-0.1131,-0.8356,0.5131,0.1597,0,0,0,0.001,0.003,-0.009,0
2018,5,17,21,12,29.274,-0.1131,-0.8357,0.513,0.1597,0,0,0,0.003,0.003,-0.017,0
2018,5,17,21,12,29.29,-0.113,-0.8358,0.5128,0.1597,0.7,-0.1,-0.2,0.002,0.003,-0.013,0
2018,5,17,21,12,29.313,-0.1129,-0.8359,0.5128,0.1596,0.6,0,-0.2,0.002,0.003,-0.007,0
2018,5,17,21,12,29.332,-0.1128,-0.836,0.5126,0.1596,0,0,0,0.001,0.007,-0.012,0
2018,5,17,21,12,29.355,-0.1126,-0.8361,0.5124,0.1596,0,0,0,0,0.004,-0.014,0
2018,5,17,21,12,29.373,-0.1128,-0.8361,0.5124,0.1596,-0.3,-0.1,-0.6,0,0.007,-0.011,0
2018,5,17,21,12,29.412,-0.1129,-0.8361,0.5124,0.1595,0.2,0,-0.6,0.002,0.001,-0.006,0
2018,5,17,21,12,29.435,-0.1129,-0.8362,0.5123,0.1595,0.7,-0.1,-0.3,0.002,0.005,-0.007,0
2018,5,17,21,12,29.439,-0.1129,-0.8362,0.5123,0.1594,0.5,0.1,-0.2,-0.002,0.006,-0.002,0
2018,5,17,21,12,29.457,-0.1129,-0.8363,0.5122,0.1594,0,0,0,0,0.005,-0.003,0
2018,5,17,21,12,29.476,-0.1129,-0.8364,0.512,0.1594,0,0,0,0,0.004,-0.007,0
2018,5,17,21,12,29.492,-0.1129,-0.8364,0.5119,0.1594,0,0,0,0.002,0.005,-0.012,0
2018,5,17,21,12,29.514,-0.1131,-0.8365,0.5119,0.1593,0.5,-0.2,-0.1,0,0.003,-0.013,0
2018,5,17,21,12,29.533,-0.1132,-0.8365,0.5118,0.1591,0,0,0,0.001,0.002,-0.012,1023
2018,5,17,21,12,29.556,-0.1132,-0.8365,0.5118,0.159,0.8,-0.3,-0.4,0,0.002,-0.012,1023
2018,5,17,21,12,29.574,-0.1131,-0.8366,0.5117,0.1589,0.7,-0.2,-0.2,0.002,0.004,-0.016,1023
2018,5,17,21,12,29.598,-0.1131,-0.8367,0.5116,0.1588,0,0,0,0,0.006,-0.006,1023
2018,5,17,21,12,29.614,-0.1131,-0.8368,0.5115,0.1588,0,0,0,0.003,0.006,-0.015,1023
2018,5,17,21,12,29.637,-0.1128,-0.8369,0.5113,0.1588,0,0,0,0.004,0.005,-0.012,1023
2018,5,17,21,12,29.656,-0.1129,-0.837,0.5112,0.1588,0,0,0,0.002,0.002,-0.011,1023
2018,5,17,21,12,29.679,-0.113,-0.837,0.5111,0.1587,0,0,0,0.004,0.004,-0.007,1023
2018,5,17,21,12,29.716,-0.1132,-0.8371,0.5111,0.1586,0.1,-0.5,-0.4,-0.001,0.006,-0.006,1023
2018,5,17,21,12,29.716,-0.1132,-0.8371,0.511,0.1585,0.4,-0.5,-0.5,0.002,0.001,-0.013,1023
2018,5,17,21,12,29.739,-0.1131,-0.8372,0.5109,0.1584,0.5,-0.3,-0.5,0,0,-0.016,1023
2018,5,17,21,12,29.757,-0.113,-0.8373,0.5109,0.1583,0.4,-0.3,-0.5,-0.001,0.002,-0.007,1023
2018,5,17,21,12,29.778,-0.1132,-0.8373,0.5108,0.1582,0,0,0,0,0.004,-0.01,1023
2018,5,17,21,12,29.8,-0.1132,-0.8374,0.5107,0.1582,0,0,0,-0.001,0.003,-0.013,0
2018,5,17,21,12,29.816,-0.1132,-0.8374,0.5106,0.1581,0,0,0,0,0.008,-0.012,0
2018,5,17,21,12,29.839,-0.1134,-0.8374,0.5106,0.1581,0,0,0,0.004,0.007,-0.011,0
2018,5,17,21,12,29.858,-0.1135,-0.8375,0.5104,0.1581,0,0,0,0.004,0.006,-0.011,0
2018,5,17,21,12,29.878,-0.1135,-0.8376,0.5103,0.1581,0.5,0.2,0.1,0.002,0.006,-0.009,0
2018,5,17,21,12,29.897,-0.1136,-0.8376,0.5102,0.1581,0,0,0,-0.002,0.007,-0.011,0
2018,5,17,21,12,29.919,-0.1136,-0.8377,0.51,0.158,-0.3,0,0.6,-0.001,0.006,-0.012,0
2018,5,17,21,12,29.937,-0.1137,-0.8379,0.5098,0.1581,-0.7,-0.3,0.6,0.001,0.002,-0.011,0
2018,5,17,21,12,29.961,-0.1136,-0.8381,0.5095,0.1581,0,0,0,0,-0.001,-0.011,0
2018,5,17,21,12,29.981,-0.1137,-0.8381,0.5094,0.158,0.1,-0.6,0.3,0.001,0.002,-0.013,0
2018,5,17,21,12,29.999,-0.1138,-0.8382,0.5094,0.1579,0,0,0,0,-0.004,-0.009,0
2018,5,17,21,12,30.017,-0.1138,-0.8382,0.5093,0.1578,0,0,0,0.002,-0.002,-0.012,0
2018,5,17,21,12,30.039,-0.1136,-0.8384,0.5091,0.1578,0,0,0,0,0,-0.011,0
2018,5,17,21,12,30.075,-0.1134,-0.8385,0.509,0.1577,0.7,0,-0.5,-0.001,0.003,-0.009,0
2018,5,17,21,12,30.099,-0.1133,-0.8385,0.509,0.1576,1.2,0.1,-0.4,-0.003,0.005,-0.006,0
2018,5,17,21,12,30.103,-0.1133,-0.8385,0.509,0.1574,0.5,0,-0.3,0,0.005,-0.011,0
2018,5,17,21,12,30.119,-0.1133,-0.8386,0.5089,0.1574,-0.4,0,-0.5,0,0.01,-0.007,0
2018,5,17,21,12,30.158,-0.1134,-0.8386,0.5089,0.1574,0,0,0,0,0.007,-0.015,0
2018,5,17,21,12,30.18,-0.1136,-0.8386,0.5088,0.1573,0,0,0,-0.001,0.001,-0.011,0
2018,5,17,21,12,30.185,-0.1136,-0.8387,0.5087,0.1573,0,0,0,0,0.003,-0.013,0
2018,5,17,21,12,30.199,-0.1134,-0.8388,0.5086,0.1573,0,0,0,0,0.001,-0.012,0
2018,5,17,21,12,30.217,-0.1133,-0.8389,0.5084,0.1573,0,0,0,0.001,0.003,-0.005,0
2018,5,17,21,12,30.241,-0.1135,-0.8389,0.5084,0.1572,0,0,0,-0.001,0.001,-0.005,0
2018,5,17,21,12,30.257,-0.1136,-0.839,0.5083,0.1571,0.8,0,-0.1,0,0.002,-0.006,1023
2018,5,17,21,12,30.28,-0.1135,-0.839,0.5083,0.157,1.1,-0.3,-0.1,0.001,0.002,-0.004,1023
2018,5,17,21,12,30.316,-0.1136,-0.8391,0.5082,0.1568,0,0,0,-0.002,0.004,-0.006,1023
2018,5,17,21,12,30.34,-0.1136,-0.8392,0.5081,0.1568,0,0,0,0.002,0.005,-0.012,1023
2018,5,17,21,12,30.344,-0.1136,-0.8392,0.508,0.1568,0.7,-0.3,-0.1,0,0.003,-0.012,1023
2018,5,17,21,12,30.358,-0.1135,-0.8393,0.5079,0.1566,1.3,-0.4,0.1,0.003,0.006,-0.016,1023
2018,5,17,21,12,30.381,-0.1132,-0.8395,0.5077,0.1564,0,0,0,0,0.008,-0.011,1023
2018,5,17,21,12,30.419,-0.1133,-0.8396,0.5076,0.1564,-0.6,-0.3,-0.1,0.004,0.007,-0.017,1023
2018,5,17,21,12,30.443,-0.1137,-0.8396,0.5076,0.1563,0,0,0,0.004,0.003,-0.015,1023
2018,5,17,21,12,30.448,-0.1136,-0.8396,0.5075,0.1562,0.6,0,-0.2,-0.001,0.003,-0.012,1023
2018,5,17,21,12,30.465,-0.1135,-0.8397,0.5074,0.1561,0.8,0,0,-0.002,0.002,-0.014,1023
2018,5,17,21,12,30.484,-0.1136,-0.8397,0.5074,0.156,0,0,0,-0.002,0.005,-0.01,1023
2018,5,17,21,12,30.507,-0.1138,-0.8398,0.5073,0.1561,-1.1,0.5,-0.1,-0.001,0.004,-0.013,1023
2018,5,17,21,12,30.521,-0.1139,-0.8398,0.5071,0.1562,-0.5,0.4,0,-0.001,0,-0.009,0
2018,5,17,21,12,30.558,-0.1138,-0.8399,0.507,0.1562,0,0,0,0,0.003,-0.005,0
2018,5,17,21,12,30.581,-0.1136,-0.84,0.5069,0.1562,0.5,0.2,0,0.002,0.006,-0.007,0
2018,5,17,21,12,30.585,-0.1137,-0.8401,0.5068,0.1562,0,0,0,0,0.005,-0.013,0
2018,5,17,21,12,30.606,-0.1138,-0.8401,0.5066,0.1562,-0.6,0,0,-0.001,0.002,-0.007,0
2018,5,17,21,12,30.641,-0.1137,-0.8403,0.5064,0.1562,0,0,0,-0.002,0,-0.008,0
2018,5,17,21,12,30.664,-0.1137,-0.8403,0.5063,0.1562,0,0,0,0,0,-0.013,0
2018,5,17,21,12,30.669,-0.1137,-0.8404,0.5062,0.1561,0,0,0,0.002,0.004,-0.012,0
2018,5,17,21,12,30.684,-0.1135,-0.8405,0.506,0.1561,0,0,0,0.002,0.005,-0.015,0
2018,5,17,21,12,30.707,-0.1136,-0.8406,0.5059,0.1561,0,0,0,0.002,0.005,-0.01,0
2018,5,17,21,12,30.723,-0.1135,-0.8407,0.5058,0.1561,0,0,0,0.002,0.005,-0.015,0
2018,5,17,21,12,30.76,-0.1135,-0.8408,0.5056,0.1561,0,0,0,0.001,0.004,-0.013,0
2018,5,17,21,12,30.784,-0.1135,-0.8409,0.5055,0.1561,0,0,0,0.001,0.006,-0.013,0
2018,5,17,21,12,30.789,-0.1135,-0.841,0.5053,0.1561,0,0,0,0.003,0.004,-0.01,0
2018,5,17,21,12,30.804,-0.1135,-0.841,0.5052,0.1561,0,0,0,0.003,0.002,-0.015,0
2018,5,17,21,12,30.827,-0.1134,-0.8411,0.5051,0.1561,-0.5,0,-0.1,0.003,0.002,-0.01,0
2018,5,17,21,12,30.847,-0.1137,-0.8411,0.5051,0.156,0,0,0,-0.002,0,-0.012,0
2018,5,17,21,12,30.864,-0.1136,-0.8412,0.5049,0.1559,0,0,0,0,0.003,-0.011,0
2018,5,17,21,12,30.887,-0.1137,-0.8413,0.5049,0.1559,0,0,0,0.001,0.005,-0.006,0
2018,5,17,21,12,30.905,-0.1137,-0.8413,0.5047,0.1559,0,0,0,0,0.004,-0.008,0
2018,5,17,21,12,30.929,-0.1137,-0.8414,0.5046,0.1559,0,0,0,0.003,0.004,-0.003,0
2018,5,17,21,12,30.944,-0.1138,-0.8414,0.5045,0.1559,-0.7,0.1,0,-0.001,0.008,-0.009,0
2018,5,17,21,12,30.963,-0.1139,-0.8415,0.5044,0.156,0,0,0,-0.004,0.007,-0.005,0
2018,5,17,21,12,30.986,-0.1137,-0.8417,0.5042,0.1559,1,-0.3,0.2,0.001,0.002,-0.007,0
2018,5,17,21,12,31.004,-0.1135,-0.8418,0.504,0.1558,0.3,-0.5,0.3,0.001,0.003,-0.013,1023
2018,5,17,21,12,31.027,-0.1138,-0.8419,0.5039,0.1557,-0.5,0.1,0.4,0.002,0.004,-0.015,1023
2018,5,17,21,12,31.046,-0.114,-0.8419,0.5037,0.1557,-0.6,0,0.3,0.003,0.004,-0.013,1023
2018,5,17,21,12,31.084,-0.1139,-0.8421,0.5036,0.1557,0,-0.2,0.5,0.004,0.003,-0.015,1023
2018,5,17,21,12,31.084,-0.1139,-0.8421,0.5034,0.1557,0,0,0,0,0.002,-0.013,1023
2018,5,17,21,12,31.108,-0.1139,-0.8422,0.5033,0.1556,0,0,0,0.001,0.001,-0.013,1023
2018,5,17,21,12,31.125,-0.1142,-0.8422,0.5033,0.1555,0,0,0,0.004,0.002,-0.012,1023
2018,5,17,21,12,31.148,-0.1144,-0.8422,0.5032,0.1554,0,0,0,0.003,0.002,-0.015,1023
2018,5,17,21,12,31.185,-0.1143,-0.8423,0.5031,0.1554,0,0,0,0,0.002,-0.017,1023
2018,5,17,21,12,31.234,-0.1143,-0.8423,0.5031,0.1554,0,0,-0.5,0.002,0.007,-0.007,1023
2018,5,17,21,12,31.238,-0.1144,-0.8424,0.503,0.1554,0,0,0,0.003,0.006,-0.007,1023
2018,5,17,21,12,31.24,-0.1146,-0.8424,0.5029,0.1553,0,0,0,-0.001,0.007,-0.011,1023
2018,5,17,21,12,31.245,-0.1147,-0.8424,0.5028,0.1554,-0.5,0.1,-0.2,-0.001,0.01,-0.008,1023
2018,5,17,21,12,31.281,-0.1148,-0.8425,0.5027,0.1554,0,0,0,0.002,0.004,-0.01,1023
2018,5,17,21,12,31.302,-0.1148,-0.8426,0.5026,0.1554,0,0,0,0.003,0.004,-0.011,0
2018,5,17,21,12,31.307,-0.115,-0.8426,0.5025,0.1554,0,0,0,0.001,0.006,-0.009,0
2018,5,17,21,12,31.343,-0.115,-0.8427,0.5024,0.1554,-0.8,0.4,0.2,0.001,0.004,-0.009,0
2018,5,17,21,12,31.366,-0.1152,-0.8427,0.5022,0.1555,-0.5,0.3,0.5,0.001,0.006,-0.009,0
2018,5,17,21,12,31.37,-0.1153,-0.8428,0.502,0.1555,0.1,0,0.6,0.001,0.002,-0.014,0
2018,5,17,21,12,31.388,-0.1153,-0.8429,0.5018,0.1555,0,0,0,0,0.003,-0.009,0
2018,5,17,21,12,31.412,-0.1153,-0.8431,0.5016,0.1555,-0.6,-0.1,0.4,0,0.002,-0.009,0
2018,5,17,21,12,31.429,-0.1154,-0.8431,0.5015,0.1555,-0.5,-0.1,0.1,0.001,0.001,-0.01,0
2018,5,17,21,12,31.449,-0.1154,-0.8432,0.5013,0.1554,0.6,-0.1,0.1,0.002,0,-0.015,0
2018,5,17,21,12,31.468,-0.1152,-0.8434,0.5012,0.1553,0.9,-0.1,0,0,0.005,-0.01,0
2018,5,17,21,12,31.504,-0.1151,-0.8434,0.5011,0.1553,0,0,0,0.001,0.007,-0.01,0
2018,5,17,21,12,31.527,-0.1152,-0.8435,0.501,0.1553,-0.7,0,0,0.002,0.005,-0.013,0
2018,5,17,21,12,31.532,-0.1154,-0.8435,0.5008,0.1553,-0.5,0,0,0.002,0.005,-0.013,0
2018,5,17,21,12,31.55,-0.1153,-0.8436,0.5007,0.1553,0,0,0,-0.001,0.004,-0.012,0
2018,5,17,21,12,31.587,-0.1156,-0.8436,0.5007,0.1552,0,0,0,-0.001,0.003,-0.012,0
2018,5,17,21,12,31.61,-0.1154,-0.8438,0.5005,0.1552,0,0,0,0.001,0.007,-0.01,0
2018,5,17,21,12,31.614,-0.1154,-0.8438,0.5004,0.1552,0,0,0,0,0.002,-0.005,0
2018,5,17,21,12,31.649,-0.1155,-0.8439,0.5003,0.1552,0,0,0,0,0.004,-0.007,0
2018,5,17,21,12,31.673,-0.1157,-0.8439,0.5002,0.1551,0,0,0,0,0.006,-0.007,0
2018,5,17,21,12,31.677,-0.1157,-0.844,0.5001,0.1551,0,0,0,0.001,0.003,-0.008,0
2018,5,17,21,12,31.69,-0.1159,-0.844,0.5,0.1551,0,0,0,0,0.003,-0.006,0
2018,5,17,21,12,31.707,-0.1159,-0.8441,0.4999,0.155,0,0,0,0,0.001,-0.007,0
2018,5,17,21,12,31.73,-0.1161,-0.8441,0.4999,0.155,0.1,-0.5,0.1,0.001,0.003,-0.016,0
2018,5,17,21,12,31.766,-0.1162,-0.8441,0.4998,0.1549,0,0,0,-0.001,0.003,-0.013,1023
2018,5,17,21,12,31.79,-0.1162,-0.8442,0.4997,0.1549,0,0,0,-0.001,0.007,-0.013,1023
2018,5,17,21,12,31.794,-0.1161,-0.8443,0.4995,0.1549,0,0,0,0,0.005,-0.009,1023
2018,5,17,21,12,31.812,-0.1161,-0.8444,0.4994,0.1549,0,0,0,0.001,0,-0.01,1023
2018,5,17,21,12,31.834,-0.116,-0.8445,0.4992,0.155,-0.6,0,0.3,0,0.005,-0.009,1023
2018,5,17,21,12,31.85,-0.1164,-0.8445,0.4991,0.1549,0,0,0,0,0.002,-0.009,1023
2018,5,17,21,12,31.874,-0.1163,-0.8446,0.4989,0.1549,0,0,0,0.002,0.001,-0.011,1023
2018,5,17,21,12,31.909,-0.1162,-0.8447,0.4988,0.1549,0,0,0,0.002,0.003,-0.017,1023
2018,5,17,21,12,31.933,-0.116,-0.8448,0.4986,0.1549,0,0,0,0.002,0.001,-0.013,1023
2018,5,17,21,12,31.938,-0.116,-0.8449,0.4985,0.1549,0,0,0,0.003,0.004,-0.007,1023
2018,5,17,21,12,31.953,-0.116,-0.845,0.4984,0.1548,0,0,0,0,0.005,-0.012,1023
2018,5,17,21,12,31.989,-0.116,-0.845,0.4983,0.1549,-0.5,0.3,-0.1,0,0.002,-0.015,1023
2018,5,17,21,12,31.989,-0.1163,-0.845,0.4983,0.1549,0,0,0,0,0.007,-0.007,1023
2018,5,17,21,12,32.013,-0.1164,-0.845,0.4982,0.1548,0,0,0,0.001,0.002,-0.008,1023
2018,5,17,21,12,32.05,-0.1165,-0.8451,0.4981,0.1548,0,0,0,0,0.002,-0.01,0
2018,5,17,21,12,32.074,-0.1167,-0.8451,0.498,0.1548,0,0,0,0,0.007,-0.005,0
2018,5,17,21,12,32.079,-0.1167,-0.8452,0.4979,0.1548,0,0,0,0,0.007,-0.005,0
2018,5,17,21,12,32.096,-0.1168,-0.8453,0.4977,0.1548,0,-0.2,0.7,0.001,0.005,-0.008,0
2018,5,17,21,12,32.114,-0.117,-0.8454,0.4976,0.1547,0,-0.3,0.7,0.002,0.001,-0.013,0
2018,5,17,21,12,32.137,-0.1171,-0.8455,0.4974,0.1547,-0.2,-0.5,0.3,0.001,0.002,-0.008,0
2018,5,17,21,12,32.156,-0.1172,-0.8456,0.4972,0.1545,0.1,-0.6,0.1,0.003,0.002,-0.011,0
2018,5,17,21,12,32.194,-0.1171,-0.8457,0.4971,0.1545,0,0,0,0.005,0,-0.019,0
2018,5,17,21,12,32.194,-0.1171,-0.8457,0.497,0.1545,0,0,0,0.003,0.002,-0.013,0
2018,5,17,21,12,32.217,-0.1171,-0.8458,0.4969,0.1545,0,0,0,0.001,0.008,-0.01,0
2018,5,17,21,12,32.233,-0.1172,-0.8458,0.4968,0.1545,0,0,0,0.002,0.004,-0.015,0
2018,5,17,21,12,32.256,-0.1173,-0.8459,0.4967,0.1545,-0.5,0.1,-0.1,0,0.004,-0.012,0
2018,5,17,21,12,32.292,-0.1174,-0.8459,0.4966,0.1546,0,0,0,0,0.006,-0.01,0
2018,5,17,21,12,32.314,-0.1176,-0.8459,0.4965,0.1546,0,0,0,0.001,0.003,-0.006,0
2018,5,17,21,12,32.319,-0.1177,-0.846,0.4964,0.1546,0,0,0,0,0,-0.009,0
2018,5,17,21,12,32.335,-0.1175,-0.8461,0.4962,0.1546,0,0,0,0.001,0.008,-0.004,0
2018,5,17,21,12,32.358,-0.1177,-0.8461,0.4962,0.1545,0,0,0,0.004,0.005,-0.007,0
2018,5,17,21,12,32.378,-0.1177,-0.8462,0.496,0.1545,0,0,0,0,0.008,-0.005,0
2018,5,17,21,12,32.394,-0.1177,-0.8463,0.4959,0.1545,0,0,0,0,0.004,-0.008,0
2018,5,17,21,12,32.414,-0.1178,-0.8463,0.4958,0.1545,0,0,0,0,0.002,-0.008,0
2018,5,17,21,12,32.432,-0.1177,-0.8464,0.4957,0.1545,0.5,-0.1,0,0,0.003,-0.008,0
2018,5,17,21,12,32.456,-0.1177,-0.8465,0.4956,0.1544,0,0,0,0.002,0.003,-0.01,0
2018,5,17,21,12,32.474,-0.1177,-0.8466,0.4955,0.1544,0,0,0,0.001,0.004,-0.012,0
2018,5,17,21,12,32.497,-0.1176,-0.8467,0.4953,0.1544,0,0,0,0.004,0.005,-0.008,1023
2018,5,17,21,12,32.515,-0.1176,-0.8468,0.4951,0.1544,0,0,0,0.003,0.002,-0.01,1023
2018,5,17,21,12,32.539,-0.1176,-0.8468,0.4951,0.1544,0,0,0,0.001,0.006,-0.011,1023
2018,5,17,21,12,32.555,-0.1176,-0.8469,0.4949,0.1544,0,0,0,0.003,0.004,-0.015,1023
2018,5,17,21,12,32.579,-0.1177,-0.8469,0.4949,0.1543,0,0,0,0.002,0,-0.011,1023
2018,5,17,21,12,32.614,-0.1178,-0.8469,0.4948,0.1543,0,-0.1,-0.5,0.001,0.001,-0.01,1023
2018,5,17,21,12,32.637,-0.1179,-0.847,0.4948,0.1542,0.4,-0.3,-0.7,0.001,0.006,-0.012,1023
2018,5,17,21,12,32.642,-0.1178,-0.847,0.4948,0.1541,0.7,-0.4,-0.7,0,0.003,-0.01,1023
2018,5,17,21,12,32.659,-0.1176,-0.8471,0.4947,0.154,0.2,0,-0.6,-0.001,0.004,-0.015,1023
2018,5,17,21,12,32.682,-0.1177,-0.8471,0.4947,0.1539,0,0.1,-0.6,0,0.007,-0.009,1023
2018,5,17,21,12,32.697,-0.1178,-0.8471,0.4947,0.1539,0,0,0,0,0.006,-0.012,1023
2018,5,17,21,12,32.716,-0.1177,-0.8472,0.4945,0.1539,0,0,0,0,0.007,-0.008,1023
2018,5,17,21,12,32.739,-0.1178,-0.8472,0.4945,0.1539,0,0,0,0,0.007,-0.013,1023
2018,5,17,21,12,32.757,-0.1178,-0.8473,0.4943,0.1539,0,0,0,0.002,0.004,-0.011,0
2018,5,17,21,12,32.781,-0.1177,-0.8474,0.4942,0.1539,0.7,-0.1,-0.3,0,0.007,-0.008,0
2018,5,17,21,12,32.798,-0.1177,-0.8474,0.4942,0.1538,0.6,0.1,0,-0.001,0.005,-0.005,0
2018,5,17,21,12,32.822,-0.1178,-0.8475,0.4941,0.1537,0,0,0,0,0.005,-0.009,0
2018,5,17,21,12,32.838,-0.118,-0.8475,0.494,0.1536,0,0,0,-0.001,0.006,-0.008,0
2018,5,17,21,12,32.861,-0.1181,-0.8476,0.4939,0.1536,0.3,-0.3,0.6,0,0,-0.008,0
2018,5,17,21,12,32.896,-0.1182,-0.8476,0.4938,0.1534,0,0,0,0.001,0.004,-0.012,0
2018,5,17,21,12,32.92,-0.1182,-0.8477,0.4937,0.1533,0.1,-0.6,0.2,0,0.003,-0.017,0
2018,5,17,21,12,32.925,-0.1181,-0.8478,0.4936,0.1533,0,0,0,0,0,-0.019,0
2018,5,17,21,12,32.939,-0.1182,-0.8479,0.4935,0.1531,0.6,-0.2,-0.4,0.001,0.001,-0.019,0
2018,5,17,21,12,32.975,-0.118,-0.8479,0.4934,0.1531,0.7,0,-0.4,-0.001,0.005,-0.01,0
2018,5,17,21,12,32.998,-0.118,-0.848,0.4934,0.153,0,0,0,0,0.002,-0.009,0
2018,5,17,21,12,33.002,-0.118,-0.848,0.4933,0.153,0,0,0,0.002,0.001,-0.012,0
2018,5,17,21,12,33.021,-0.1181,-0.8481,0.4932,0.153,0,0,0,-0.001,0.007,-0.007,0
2018,5,17,21,12,33.056,-0.1182,-0.8481,0.4931,0.1529,0,0,0,-0.001,0.006,-0.006,0
2018,5,17,21,12,33.079,-0.1181,-0.8482,0.493,0.1529,0.5,-0.1,-0.1,0.003,0.006,-0.006,0
2018,5,17,21,12,33.084,-0.1181,-0.8483,0.4929,0.1529,0.6,0,-0.1,0.003,0.003,-0.009,0
2018,5,17,21,12,33.1,-0.1179,-0.8484,0.4927,0.1529,0,0,0,0,0.002,-0.007,0
2018,5,17,21,12,33.124,-0.1178,-0.8485,0.4926,0.1528,0,0,0,-0.001,0.003,-0.01,0
2018,5,17,21,12,33.141,-0.118,-0.8485,0.4925,0.1528,0,0,0,0.003,0.004,-0.015,0
2018,5,17,21,12,33.177,-0.1179,-0.8486,0.4924,0.1527,0.5,-0.1,0.1,0.001,0,-0.015,0
2018,5,17,21,12,33.177,-0.1177,-0.8487,0.4923,0.1526,0,0,0,0.002,0.005,-0.013,0
2018,5,17,21,12,33.202,-0.1177,-0.8488,0.4922,0.1527,0,0,0,0.003,0.004,-0.013,0
2018,5,17,21,12,33.219,-0.1179,-0.8488,0.4921,0.1526,0,0,0,0.001,0,-0.013,0
2018,5,17,21,12,33.243,-0.1178,-0.8489,0.492,0.1525,0,0,0,0.002,0.003,-0.015,1023
2018,5,17,21,12,33.262,-0.1179,-0.849,0.4919,0.1525,0,0,0,0,0.004,-0.012,1023
2018,5,17,21,12,33.286,-0.118,-0.849,0.4918,0.1524,0,0,0,-0.001,0.005,-0.013,1023
2018,5,17,21,12,33.303,-0.1178,-0.8491,0.4916,0.1524,0,0,0,-0.001,0.004,-0.013,1023
2018,5,17,21,12,33.339,-0.1176,-0.8493,0.4914,0.1525,0,0,0,0.004,0.003,-0.012,1023
2018,5,17,21,12,33.363,-0.1175,-0.8494,0.4913,0.1524,0,0,0,0,0.004,-0.011,1023
2018,5,17,21,12,33.367,-0.1176,-0.8494,0.4912,0.1524,0,0,0,0,0.004,-0.011,1023
2018,5,17,21,12,33.385,-0.1178,-0.8494,0.4912,0.1522,0.5,-0.6,-0.2,0.002,0.002,-0.01,1023
2018,5,17,21,12,33.401,-0.1178,-0.8495,0.4912,0.152,0,0,0,0.002,0.004,-0.015,1023
2018,5,17,21,12,33.438,-0.118,-0.8495,0.4911,0.152,0,0,0,0,0.004,-0.009,1023
2018,5,17,21,12,33.462,-0.118,-0.8496,0.491,0.152,-0.6,0.1,-0.2,-0.001,0.003,-0.013,1023
2018,5,17,21,12,33.466,-0.118,-0.8496,0.4909,0.152,0,0,0,-0.004,0.001,-0.015,1023
2018,5,17,21,12,33.482,-0.1181,-0.8497,0.4908,0.1519,0,0,0,-0.002,0.007,-0.011,1023
2018,5,17,21,12,33.505,-0.1181,-0.8497,0.4908,0.1518,0.6,0,-0.1,0,0.002,-0.008,1023
2018,5,17,21,12,33.524,-0.1181,-0.8498,0.4907,0.1517,0,0,0,0.002,0.005,-0.006,1023
2018,5,17,21,12,33.542,-0.1181,-0.8498,0.4906,0.1518,0,0,0,0.005,0.007,-0.007,1023
2018,5,17,21,12,33.566,-0.1181,-0.8499,0.4905,0.1518,0.1,0.5,-0.1,-0.001,0.006,-0.007,1023
2018,5,17,21,12,33.6,-0.1179,-0.85,0.4904,0.1519,0.5,0.5,0.1,0.005,0.006,-0.011,1023
2018,5,17,21,12,33.624,-0.1181,-0.85,0.4903,0.1518,0,0,0,0.001,0.004,-0.008,1023
2018,5,17,21,12,33.628,-0.1182,-0.85,0.4902,0.1518,0,0,0,-0.001,0.002,-0.013,1023
2018,5,17,21,12,33.644,-0.1183,-0.8501,0.4901,0.1516,-0.1,-0.5,0,-0.002,0.004,-0.016,1023
2018,5,17,21,12,33.668,-0.1183,-0.8502,0.49,0.1515,0.5,-0.7,0,-0.005,0.002,-0.012,1023
2018,5,17,21,12,33.703,-0.1183,-0.8503,0.4899,0.1512,1,-0.6,0.1,0,0.004,-0.016,1023
2018,5,17,21,12,33.724,-0.1183,-0.8504,0.4898,0.151,0.5,-0.3,0.3,0.005,0.007,-0.01,1023
2018,5,17,21,12,33.729,-0.1184,-0.8504,0.4897,0.151,0,0,0,0,0.007,-0.006,1023
2018,5,17,21,12,33.744,-0.1186,-0.8505,0.4896,0.151,0,0,0,-0.001,0.005,-0.009,1023
2018,5,17,21,12,33.768,-0.1187,-0.8505,0.4895,0.1509,0,0,0,0.002,0.004,-0.008,0
2018,5,17,21,12,33.803,-0.1185,-0.8506,0.4893,0.1509,0,0,0,0,0.005,-0.012,0
2018,5,17,21,12,33.826,-0.1186,-0.8507,0.4892,0.1509,0,0,0,0.001,0.003,-0.01,0
2018,5,17,21,12,33.831,-0.1185,-0.8508,0.4891,0.1509,0,0,0,0.002,-0.002,-0.013,0
2018,5,17,21,12,33.846,-0.1184,-0.8509,0.4889,0.1508,0,0,0,0.001,0,-0.013,0
2018,5,17,21,12,33.869,-0.1183,-0.8509,0.4889,0.1509,0.1,0.7,-0.1,0,-0.001,-0.011,0
2018,5,17,21,12,33.888,-0.1181,-0.851,0.4888,0.1509,1,0.8,-0.1,-0.002,0.001,-0.009,0
2018,5,17,21,12,33.912,-0.1179,-0.8511,0.4888,0.1508,0.6,0.6,-0.1,-0.004,0.004,-0.007,0
2018,5,17,21,12,33.93,-0.1179,-0.8511,0.4887,0.1508,0,0,0,0.001,0.008,-0.01,0
2018,5,17,21,12,33.967,-0.1181,-0.8511,0.4886,0.1508,0,0,0,-0.003,0.008,-0.005,0
2018,5,17,21,12,33.967,-0.1183,-0.8511,0.4885,0.1507,0.1,-0.6,0.3,0.001,0.007,-0.005,0
2018,5,17,21,12,33.99,-0.1184,-0.8512,0.4884,0.1507,0,0,0,0,0.008,-0.015,0
2018,5,17,21,12,34.023,-0.1187,-0.8513,0.4883,0.1507,-0.9,0,0.7,0,0.003,-0.013,0
2018,5,17,21,12,34.046,-0.1189,-0.8514,0.488,0.1508,-0.6,0,1.1,0.002,0.004,-0.012,0
2018,5,17,21,12,34.05,-0.1189,-0.8515,0.4877,0.1509,-0.7,-0.1,0.9,0.001,0.001,-0.017,0
2018,5,17,21,12,34.068,-0.1189,-0.8517,0.4874,0.1509,-0.7,0,0.5,0,-0.001,-0.015,0
2018,5,17,21,12,34.091,-0.119,-0.8518,0.4872,0.1509,-0.6,-0.3,0.3,0,0.001,-0.012,0
2018,5,17,21,12,34.109,-0.1191,-0.8518,0.4872,0.1508,0,0,0,0,0,-0.011,0
2018,5,17,21,12,34.148,-0.119,-0.8519,0.487,0.1507,0,0,0,0.005,0.002,-0.005,0
2018,5,17,21,12,34.169,-0.1189,-0.852,0.4869,0.1507,0,0,0,0.001,0.004,-0.006,0
2018,5,17,21,12,34.172,-0.1189,-0.8521,0.4868,0.1507,-0.6,0.4,-0.1,-0.001,0.002,-0.011,0
2018,5,17,21,12,34.205,-0.1192,-0.852,0.4868,0.1507,-0.5,0.3,0,0.001,0.005,-0.012,0
2018,5,17,21,12,34.228,-0.1193,-0.8521,0.4867,0.1507,0,0,0,-0.003,0.005,-0.004,0
2018,5,17,21,12,34.232,-0.1194,-0.8521,0.4866,0.1506,0,0,0,0,0.005,-0.01,0
2018,5,17,21,12,34.248,-0.1196,-0.8521,0.4866,0.1506,0,0,0,0.001,0.005,-0.009,0
2018,5,17,21,12,34.267,-0.1195,-0.8522,0.4864,0.1506,0,0,0,0,0.004,-0.004,0
2018,5,17,21,12,34.291,-0.1197,-0.8522,0.4864,0.1505,0,0,0,0.001,0.007,-0.01,0
2018,5,17,21,12,34.328,-0.1197,-0.8523,0.4863,0.1505,0,0,0,-0.002,0.005,-0.012,0
2018,5,17,21,12,34.328,-0.1196,-0.8524,0.4861,0.1505,0.1,0.3,0.5,0,0.006,-0.008,1023
2018,5,17,21,12,34.352,-0.1196,-0.8525,0.4859,0.1505,0.2,0,0.7,0.003,0.002,-0.01,1023
2018,5,17,21,12,34.389,-0.1195,-0.8527,0.4857,0.1505,0.5,-0.3,0.8,-0.001,0.004,-0.006,1023
2018,5,17,21,12,34.413,-0.1194,-0.8528,0.4855,0.1504,0,0,0,-0.005,0.004,0.001,1023
2018,5,17,21,12,34.417,-0.1195,-0.8529,0.4853,0.1504,1.2,0,0.4,-0.009,0.006,0.006,1023
2018,5,17,21,12,34.43,-0.1193,-0.853,0.4852,0.1501,4.4,-0.3,1.2,-0.012,0.006,0.016,1023
2018,5,17,21,12,34.465,-0.1186,-0.8534,0.485,0.1495,7.1,-0.9,2.6,-0.014,0.005,0.025,1023
2018,5,17,21,12,34.488,-0.1178,-0.8538,0.4846,0.1488,6.2,-1.7,3.3,-0.002,0.007,0.032,1023
2018,5,17,21,12,34.493,-0.1173,-0.8543,0.484,0.1481,4,-4.6,3.1,0.041,-0.006,0.027,1023
2018,5,17,21,12,34.512,-0.1173,-0.8548,0.4835,0.1473,1.8,-8.6,0.5,0.056,-0.029,0.035,1023
2018,5,17,21,12,34.529,-0.1175,-0.8551,0.4833,0.1459,5.4,-12.5,-2.1,0.05,-0.029,0.035,1023
2018,5,17,21,12,34.552,-0.1168,-0.8554,0.4837,0.1429,15.7,-15.8,-6,0.012,-0.054,0.021,1023
2018,5,17,21,12,34.588,-0.1149,-0.8558,0.4849,0.1384,23.7,-16.6,-8.7,-0.013,-0.038,0.027,1023
2018,5,17,21,12,34.612,-0.1123,-0.8561,0.4864,0.1333,27.9,-17,-9.3,0.023,-0.04,0.042,1023
2018,5,17,21,12,34.616,-0.1091,-0.8564,0.4878,0.1285,29.7,-18.6,-8.4,0.027,-0.03,0.076,1023
2018,5,17,21,12,34.634,-0.1063,-0.8568,0.4891,0.1231,29.6,-19.5,-7.5,0.006,-0.033,0.093,1023
2018,5,17,21,12,34.653,-0.1033,-0.8573,0.4904,0.117,36.6,-20.2,-7.3,-0.043,-0.058,0.102,1023
2018,5,17,21,12,34.675,-0.0987,-0.8579,0.4919,0.1099,46.7,-18.6,-7.6,0.003,-0.04,0.096,1023
2018,5,17,21,12,34.713,-0.0921,-0.8586,0.4936,0.1026,61.2,-16.4,-7.5,-0.018,-0.032,0.157,1023
2018,5,17,21,12,34.735,-0.083,-0.8594,0.4955,0.0941,81.2,-18.5,-6,0.046,-0.077,0.151,1023
2018,5,17,21,12,34.74,-0.0691,-0.8608,0.4972,0.0829,118,-19,-3.5,0.069,-0.124,0.121,1023
2018,5,17,21,12,34.756,-0.0489,-0.8624,0.4991,0.068,153.8,-21.4,-3.4,0.057,-0.102,0.17,1023
2018,5,17,21,12,34.771,-0.0258,-0.8634,0.5012,0.0501,170.7,-27.1,-5.4,0.025,0,0.191,1023
2018,5,17,21,12,34.794,-0.0033,-0.8635,0.5032,0.0317,168.3,-26.5,-7.6,0.024,0.079,0.157,1023
2018,5,17,21,12,34.83,0.0204,-0.8629,0.5046,0.0139,182.7,-21.9,-3.4,0.099,0.035,0.121,1023
2018,5,17,21,12,34.854,0.0499,-0.8618,0.5046,-0.0051,218.7,-10.3,4.5,0.17,0.026,0.122,1023
2018,5,17,21,12,34.858,0.0856,-0.8599,0.5023,-0.0268,253.3,-4.1,14.5,0.303,0.067,0.209,1023
2018,5,17,21,12,34.876,0.126,-0.8564,0.4979,-0.0505,279.7,-2.8,15.9,0.459,0.099,0.294,0
2018,5,17,21,12,34.899,0.1704,-0.8502,0.492,-0.0772,319,-8.3,21.9,0.307,0.191,0.411,0
2018,5,17,21,12,34.916,0.2214,-0.8407,0.4817,-0.1099,389.9,-15.3,44.4,0.016,0.294,0.553,0
2018,5,17,21,12,34.938,0.2811,-0.8263,0.4637,-0.1515,472.1,-30.2,76.7,0.021,0.36,0.513,0
2018,5,17,21,12,34.957,0.3522,-0.8038,0.4343,-0.2028,604.2,-16.8,122.3,0.15,0.462,0.103,0
2018,5,17,21,12,34.98,0.4407,-0.7671,0.3855,-0.2619,771.9,22.9,171.1,0.228,0.803,-0.15,0
2018,5,17,21,12,34.997,0.5432,-0.7082,0.3124,-0.325,918,59.4,217.3,0.191,1.745,-0.147,0
2018,5,17,21,12,35.014,0.6409,-0.6266,0.2197,-0.385,930.4,77,240.2,0.168,2.579,-0.346,0
2018,5,17,21,12,35.037,0.7138,-0.5398,0.1212,-0.4292,768.2,135.3,238.5,0.165,2.492,-0.447,0
2018,5,17,21,12,35.055,0.7549,-0.4724,0.0272,-0.454,530.1,205.4,246.7,0.096,2.127,-0.531,0
2018,5,17,21,12,35.078,0.7609,-0.4451,-0.054,-0.4689,163.2,280.5,275.8,-0.415,2.468,-0.455,0
2018,5,17,21,12,35.114,0.7296,-0.4678,-0.114,-0.4854,-160.7,303.8,332,-1.1,1.918,-0.947,0
2018,5,17,21,12,35.137,0.7393,-0.4747,-0.1139,-0.4636,473,43.5,132.3,-3.026,-15.387,7.364,0
2018,5,17,21,12,35.141,0.7983,-0.3821,-0.168,-0.4339,-164.2,-104.2,-130.8,1.194,11.65,1.151,0
2018,5,17,21,12,35.159,0.7898,-0.4212,-0.109,-0.4321,-289.2,-153.9,-148.4,1.297,3.817,1.924,0
2018,5,17,21,12,35.177,0.7825,-0.4479,-0.0628,-0.4278,-142.5,-93.1,-141.8,0.103,-1.675,-0.573,0
2018,5,17,21,12,35.2,0.788,-0.4523,-0.0351,-0.416,-4,-89.3,-119.1,0.378,-0.956,-0.412,1023
2018,5,17,21,12,35.235,0.7971,-0.4426,-0.0149,-0.4103,12.7,-117.5,-86.5,-0.096,0.227,0.087,1023
2018,5,17,21,12,35.235,0.8016,-0.4339,0.0089,-0.4109,-8.6,-140.9,-49.1,0.15,-0.266,0.158,1023
2018,5,17,21,12,35.259,0.8021,-0.4253,0.0315,-0.4179,-15.6,-141.3,-11.6,0.28,-0.221,-0.178,1023
2018,5,17,21,12,35.275,0.8024,-0.4098,0.0489,-0.4308,111.8,-151.3,41.8,0.082,-0.813,-0.181,1023
2018,5,17,21,12,35.299,0.8068,-0.3776,0.0469,-0.4519,243.2,-86.8,115.9,0.23,-0.569,0.461,1023
2018,5,17,21,12,35.336,0.8049,-0.3443,0.0292,-0.4822,176.2,-62,238,-0.194,-1.029,0.144,1023
2018,5,17,21,12,35.336,0.7891,-0.3188,0.0065,-0.5249,106.8,-37.9,320.2,0.23,-0.598,0.535,1023
2018,5,17,21,12,35.36,0.7648,-0.3123,-0.0102,-0.5632,-32.1,28.1,180.6,-1.077,-0.372,-0.164,1023
2018,5,17,21,12,35.397,0.7412,-0.3452,0.0059,-0.5756,-344.8,24.1,62.6,-2.366,-0.163,0.298,1023
2018,5,17,21,12,35.419,0.7168,-0.3742,0.0283,-0.5876,-133.4,-74.2,91.8,-1.955,-0.192,-0.127,1023
2018,5,17,21,12,35.424,0.706,-0.364,0.0355,-0.6064,76.6,-110.7,102,-0.458,0.037,-1.72,0
2018,5,17,21,12,35.441,0.7002,-0.3436,0.0313,-0.625,59.3,-66.5,100.2,0.336,0.336,-1.729,0
2018,5,17,21,12,35.463,0.6922,-0.3395,0.0327,-0.6359,-67.8,-25.1,52,0.2,0.676,-0.933,0
2018,5,17,21,12,35.482,0.6839,-0.3484,0.0451,-0.6393,-110.8,-12.3,9,0.418,0.618,-0.598,0
2018,5,17,21,12,35.505,0.6808,-0.3581,0.0562,-0.6363,-68,16.7,-21.3,1.057,0.588,-0.535,0
2018,5,17,21,12,35.521,0.6806,-0.3662,0.0601,-0.6315,-45.9,33.2,-10.2,1.415,0.468,-0.12,0
2018,5,17,21,12,35.555,0.6809,-0.3711,0.0627,-0.6281,-25.9,2,-12.8,0.946,-0.023,0.082,0
2018,5,17,21,12,35.578,0.6823,-0.3709,0.0709,-0.6258,-56.2,-43.2,-29,0.792,0.234,0.178,0
2018,5,17,21,12,35.582,0.6801,-0.3736,0.0911,-0.6241,-125,-72.9,-28,0.567,0.026,0.335,0
2018,5,17,21,12,35.601,0.6742,-0.3788,0.118,-0.6227,-125.8,-95.9,-34.1,0.573,-0.441,1.143,0
2018,5,17,21,12,35.619,0.673,-0.3679,0.1398,-0.6262,12.6,-135.7,12.1,-0.181,-0.069,1.988,0
2018,5,17,21,12,35.642,0.6689,-0.3547,0.1525,-0.6351,-30.6,-87,9.7,0.092,-0.343,0.857,0
2018,5,17,21,12,35.665,0.6687,-0.3513,0.1624,-0.6348,-24.5,-7.4,-27,0.266,0.031,0.089,0
2018,5,17,21,12,35.682,0.6736,-0.3538,0.1649,-0.6274,-23.2,45.4,-35.8,0.339,0.576,-0.045,0
2018,5,17,21,12,35.704,0.6759,-0.363,0.1635,-0.6201,-63.1,68.7,13.3,0.161,0.734,-0.019,0
2018,5,17,21,12,35.72,0.671,-0.3785,0.1617,-0.6167,-66.4,63.8,49.2,0.191,0.193,-0.097,0
2018,5,17,21,12,35.757,0.6621,-0.3913,0.1445,-0.6224,29,36.3,59.2,0.292,0.005,0.004,0
2018,5,17,21,12,35.781,0.6613,-0.3903,0.1355,-0.626,32,14.2,33.3,0.191,-0.306,0.354,0
2018,5,17,21,12,35.785,0.6628,-0.3848,0.1313,-0.6287,41,-20.6,10.6,0.14,-0.278,0.538,0
2018,5,17,21,12,35.802,0.6661,-0.3746,0.1309,-0.6314,44.8,-44.7,-5.4,0.177,0.061,0.337,1023
2018,5,17,21,12,35.821,0.6704,-0.3629,0.1329,-0.6333,38.6,-45.4,-16.6,0.236,0.151,0.043,1023
2018,5,17,21,12,35.844,0.6752,-0.3532,0.1355,-0.633,30.2,-26.5,-25.5,0.192,0.079,-0.112,1023
2018,5,17,21,12,35.863,0.6807,-0.3469,0.1357,-0.6306,31.2,1,-24.1,0.113,0.066,-0.076,1023
2018,5,17,21,12,35.882,0.6865,-0.3425,0.1309,-0.6278,46.7,20.3,-16.1,0.023,0.131,0.012,1023
2018,5,17,21,12,35.904,0.6922,-0.3386,0.1243,-0.6249,37.6,30.4,-10.5,-0.074,0.131,0.102,1023
2018,5,17,21,12,35.923,0.6973,-0.3368,0.1182,-0.6215,22.7,34,-12.3,-0.129,0.104,0.082,1023
2018,5,17,21,12,35.945,0.7015,-0.3371,0.1139,-0.6173,4.6,32.6,-13.1,-0.176,0.117,0.088,1023
2018,5,17,21,12,35.963,0.7047,-0.339,0.1117,-0.6131,-5.9,27.2,-12,-0.177,0.088,0.022,1023
2018,5,17,21,12,35.986,0.707,-0.3412,0.1111,-0.6092,-19.2,22.6,-8.5,-0.147,0.106,-0.044,1023
2018,5,17,21,12,36.004,0.7078,-0.3453,0.1124,-0.6058,-37.8,18.9,-3.4,-0.133,0.055,-0.091,1023
2018,5,17,21,12,36.022,0.707,-0.3512,0.116,-0.6026,-56.2,13.1,-2.7,-0.157,0.011,-0.084,1023
2018,5,17,21,12,36.045,0.705,-0.3587,0.1224,-0.5992,-71.3,7.5,-5.4,-0.185,-0.069,-0.098,1023
2018,5,17,21,12,36.065,0.7028,-0.3663,0.1305,-0.5955,-73.2,-0.4,-9.1,-0.14,-0.051,-0.151,0
2018,5,17,21,12,36.101,0.7005,-0.373,0.1392,-0.5921,-67.7,-8.4,-8.6,-0.038,0.045,-0.107,0
2018,5,17,21,12,36.125,0.6972,-0.3802,0.1472,-0.5896,-67.7,-14.6,-8.2,-0.007,0.044,0.006,0
2018,5,17,21,12,36.129,0.6938,-0.386,0.1562,-0.5875,-68.8,-20.7,-5.9,0.03,0.002,0.076,0
2018,5,17,21,12,36.145,0.69,-0.3916,0.1663,-0.5855,-77.9,-22.8,-5.8,0.03,-0.048,0.081,0
2018,5,17,21,12,36.168,0.6858,-0.3983,0.1776,-0.5825,-72.3,-20.6,-9,0.047,-0.168,0.016,0
2018,5,17,21,12,36.184,0.6838,-0.4014,0.1865,-0.5799,-39.3,-16.8,-9.5,0.09,-0.137,0.004,0
2018,5,17,21,12,36.207,0.6838,-0.4021,0.1917,-0.5778,-14.4,-11.1,-8.6,0.102,-0.034,0.017,0
2018,5,17,21,12,36.245,0.6848,-0.4016,0.1938,-0.5762,-4.4,-3.8,-5.9,0.038,0.053,0.022,0
2018,5,17,21,12,36.248,0.6855,-0.4022,0.1941,-0.5749,-13.3,1.2,-3.6,-0.008,0.061,-0.021,0
2018,5,17,21,12,36.281,0.6849,-0.4055,0.1951,-0.5729,-27.7,5.1,-1.5,-0.034,0.039,-0.057,0
2018,5,17,21,12,36.304,0.6838,-0.4098,0.1961,-0.5709,-20,6.5,1.1,-0.036,-0.005,-0.044,0
2018,5,17,21,12,36.308,0.683,-0.4131,0.196,-0.5694,-16.3,6.7,2.8,-0.045,0.021,-0.023,0
2018,5,17,21,12,36.326,0.6823,-0.4163,0.1958,-0.568,-17.8,5.8,3.6,-0.02,-0.003,-0.011,0
2018,5,17,21,12,36.344,0.6817,-0.4189,0.1959,-0.5668,-12.1,3.2,3.4,0.014,-0.01,0,0
2018,5,17,21,12,36.368,0.6816,-0.4203,0.1959,-0.5659,-5,1.1,2.7,0.024,-0.013,0.001,0
2018,5,17,21,12,36.404,0.6821,-0.4208,0.1953,-0.5652,1.9,1.5,1.1,0.024,0.006,-0.001,0
2018,5,17,21,12,36.424,0.6831,-0.4206,0.1942,-0.5645,3,2.3,1,0.027,0.007,0.025,0
2018,5,17,21,12,36.429,0.6842,-0.4203,0.193,-0.5637,3.3,2.4,0.2,0.026,0.007,0.042,1023
2018,5,17,21,12,36.447,0.6855,-0.4199,0.1916,-0.563,4.3,2.8,-0.7,0.004,0.001,0.033,1023
2018,5,17,21,12,36.471,0.6868,-0.4195,0.19,-0.5621,7.2,3.6,-1.5,0,0.023,0.004,1023
2018,5,17,21,12,36.486,0.6882,-0.4192,0.188,-0.5613,5.2,4.5,-1,-0.018,0.081,0,1023
2018,5,17,21,12,36.505,0.6891,-0.4196,0.1861,-0.5606,-4.5,4.2,0.4,-0.015,0.107,0.009,1023
2018,5,17,21,12,36.527,0.6888,-0.4215,0.1855,-0.5597,-18.5,4,1.1,-0.017,0.067,0.005,1023
2018,5,17,21,12,36.546,0.6879,-0.4245,0.1862,-0.5583,-21,3.3,1.7,-0.005,0.001,0.001,1023
2018,5,17,21,12,36.57,0.6872,-0.4272,0.1868,-0.5569,-12,3,0,-0.002,-0.019,-0.009,1023
2018,5,17,21,12,36.587,0.6874,-0.4287,0.1867,-0.5556,-2.2,2.6,-0.9,0.016,-0.012,0.001,1023
2018,5,17,21,12,36.61,0.6882,-0.4289,0.1859,-0.5547,2,1.5,-1.2,0.014,-0.003,0.035,1023
2018,5,17,21,12,36.645,0.6894,-0.4285,0.1851,-0.5538,1.6,0,-2.3,0.02,0.016,0.034,1023
2018,5,17,21,12,36.669,0.6905,-0.4282,0.1846,-0.5528,-1.2,-0.2,-3.1,0.024,0.025,0.024,1023
2018,5,17,21,12,36.673,0.6913,-0.4285,0.1845,-0.5517,-3.5,-0.3,-3.5,0.007,0.021,0.003,0
2018,5,17,21,12,36.688,0.692,-0.429,0.1845,-0.5504,-5.6,0.4,-3.7,0.004,0.028,-0.001,0
2018,5,17,21,12,36.711,0.6925,-0.4298,0.1844,-0.5491,-5.8,0.5,-2.4,0,0.027,0.009,0
2018,5,17,21,12,36.749,0.6929,-0.4304,0.1841,-0.5482,-2.2,0.3,-0.9,-0.009,0.026,0.016,0
2018,5,17,21,12,36.749,0.6935,-0.4308,0.1833,-0.5475,-1.7,0.3,-0.2,-0.008,0.028,-0.005,0
2018,5,17,21,12,36.773,0.6937,-0.4317,0.1828,-0.5466,-5.5,1,-0.6,-0.008,0.014,-0.027,0
2018,5,17,21,12,36.789,0.6938,-0.4331,0.1826,-0.5455,-6.4,1.9,-0.5,0,0.003,-0.021,0
2018,5,17,21,12,36.823,0.6939,-0.4343,0.1823,-0.5445,-3.4,1.7,-0.8,0.001,0.012,0.005,0
2018,5,17,21,12,36.846,0.6945,-0.4347,0.1815,-0.5437,1.5,0.7,-0.9,0,0.014,0.017,0
2018,5,17,21,12,36.85,0.6953,-0.4345,0.1805,-0.5431,3.6,0,-0.9,0.005,0.027,0.019,0
2018,5,17,21,12,36.87,0.6961,-0.4343,0.1796,-0.5426,0.6,-0.1,-0.8,0.004,0.02,0.012,0
2018,5,17,21,12,36.892,0.6966,-0.4346,0.1791,-0.5418,-2.1,0,-1,0.008,0.017,0.001,0
2018,5,17,21,12,36.911,0.6969,-0.4354,0.1788,-0.5409,-3.6,0.8,-1.9,0.004,0.005,0,0
2018,5,17,21,12,36.934,0.6975,-0.4359,0.1785,-0.5398,-1.3,0.4,-2.6,0.005,0.004,0.001,0
2018,5,17,21,12,36.947,0.6985,-0.436,0.178,-0.5387,2.6,0.1,-3.5,0.007,0.013,0.002,0
2018,5,17,21,12,36.986,0.6996,-0.4356,0.1771,-0.5378,2.1,0.2,-3.2,0.007,0.042,0.013,0
2018,5,17,21,12,37.009,0.7006,-0.4356,0.1765,-0.5368,-2.5,0.9,-2.9,0.01,0.048,0,0
2018,5,17,21,12,37.013,0.701,-0.4365,0.1763,-0.5356,-8.5,1.7,-2.4,0.007,0.021,-0.006,0
2018,5,17,21,12,37.031,0.701,-0.438,0.1766,-0.5341,-10,1.3,-2.7,0.004,-0.001,-0.006,1023
2018,5,17,21,12,37.054,0.7011,-0.4395,0.1769,-0.5328,-6.7,1,-2.6,0.001,-0.007,-0.002,1023
2018,5,17,21,12,37.088,0.7015,-0.4404,0.1769,-0.5315,-3.1,0.5,-2.8,0.005,0.001,-0.002,1023
2018,5,17,21,12,37.112,0.702,-0.4409,0.1765,-0.5304,-1.8,0.5,-2.6,-0.002,0.009,-0.005,1023
2018,5,17,21,12,37.117,0.7027,-0.4414,0.1761,-0.5293,-1.5,0.5,-2.8,0,0.011,-0.006,1023
2018,5,17,21,12,37.133,0.7033,-0.4419,0.1757,-0.5283,-1,0.3,-2.8,-0.001,0.021,0.005,1023
2018,5,17,21,12,37.17,0.7039,-0.4421,0.1752,-0.5274,-1.3,-0.1,-2.3,0.001,0.039,0.001,1023
2018,5,17,21,12,37.193,0.7045,-0.4424,0.1747,-0.5266,-2.9,-0.4,-1.1,0.002,0.042,0.012,1023
2018,5,17,21,12,37.197,0.7047,-0.4431,0.1745,-0.5258,-5.5,-0.6,-0.7,0.002,0.016,0.004,1023
2018,5,17,21,12,37.217,0.7047,-0.444,0.1745,-0.525,-6.1,-0.8,0,0.007,0,-0.002,1023
2018,5,17,21,12,37.252,0.7046,-0.445,0.1745,-0.5242,-3.9,-0.1,-0.1,0.007,-0.014,-0.01,1023
2018,5,17,21,12,37.252,0.705,-0.4456,0.1741,-0.5234,0.3,0.2,-0.7,0.007,-0.007,-0.011,0
2018,5,17,21,12,37.276,0.7057,-0.4457,0.1734,-0.5226,3,0,-1.2,0.005,0.017,0.001,0
2018,5,17,21,12,37.291,0.7065,-0.4455,0.1725,-0.522,2.1,-0.2,-1.3,-0.003,0.026,0.015,0
2018,5,17,21,12,37.314,0.7072,-0.4453,0.1717,-0.5214,1.2,-0.7,-1.1,0.002,0.032,0.016,0
2018,5,17,21,12,37.35,0.7078,-0.4454,0.1711,-0.5208,-1.2,-0.7,-0.6,0.007,0.036,0.008,0
2018,5,17,21,12,37.372,0.7081,-0.4459,0.1707,-0.5201,-4,0,-0.6,0.005,0.017,-0.003,0
2018,5,17,21,12,37.376,0.7082,-0.4467,0.1706,-0.5192,-4.8,0,-0.9,0.005,0.008,-0.003,0
2018,5,17,21,12,37.393,0.7085,-0.4474,0.1703,-0.5184,-2.9,-0.1,-0.6,0.005,0.011,-0.005,0
2018,5,17,21,12,37.415,0.7089,-0.4479,0.1699,-0.5176,-1.9,-0.1,-0.5,0.002,0.013,0.002,0
2018,5,17,21,12,37.452,0.7092,-0.4483,0.1694,-0.5168,-2.4,0,-0.4,0.004,0.01,-0.002,0
2018,5,17,21,12,37.452,0.7095,-0.4489,0.1691,-0.5161,-2.9,0.1,-0.8,0.006,0.012,-0.008,0
2018,5,17,21,12,37.475,0.7097,-0.4496,0.1687,-0.5153,-3,0.3,-0.6,0.005,0.009,-0.005,0
2018,5,17,21,12,37.492,0.71,-0.4502,0.1683,-0.5145,-2.2,0,-0.4,0.003,0.011,0.005,0
2018,5,17,21,12,37.516,0.7104,-0.4506,0.1679,-0.5137,-1.6,-0.4,-0.4,0.004,0.012,0,0
2018,5,17,21,12,37.533,0.7109,-0.4509,0.1674,-0.513,-2,-0.3,-0.2,0.003,0.014,-0.005,0
2018,5,17,21,12,37.553,0.7112,-0.4514,0.167,-0.5123,-2.3,-0.3,-0.2,0.005,0.019,-0.004,0
2018,5,17,21,12,37.574,0.7114,-0.452,0.1665,-0.5116,-2.8,0,-0.1,0.007,0.019,-0.005,0
2018,5,17,21,12,37.608,0.7116,-0.4526,0.1662,-0.5109,-3.9,0,-0.1,0.002,0.009,-0.003,0
2018,5,17,21,12,37.63,0.7118,-0.4533,0.1659,-0.5101,-3.6,-0.1,-0.1,0.006,0.004,0,1023
2018,5,17,21,12,37.634,0.7119,-0.454,0.1656,-0.5093,-2.1,0,-0.3,0.009,0.001,-0.006,1023
2018,5,17,21,12,37.675,0.7123,-0.4544,0.1651,-0.5086,0.8,0,-0.1,0.003,0.005,-0.004,1023
2018,5,17,21,12,37.675,0.7129,-0.4545,0.1644,-0.5079,1.3,-0.1,-0.4,0.001,0.02,0,1023
2018,5,17,21,12,37.697,0.7134,-0.4546,0.1637,-0.5073,0,-0.1,-0.5,0.003,0.023,0,1023
2018,5,17,21,12,37.715,0.7139,-0.4548,0.1631,-0.5066,-1.4,-0.1,-0.5,0.001,0.021,0,1023
2018,5,17,21,12,37.734,0.7142,-0.4553,0.1626,-0.506,-2.3,-0.3,-0.2,0.002,0.019,0,1023
2018,5,17,21,12,37.758,0.7144,-0.4559,0.1622,-0.5053,-2,-0.2,-0.4,0.008,0.009,0,1023
2018,5,17,21,12,37.774,0.7147,-0.4563,0.1618,-0.5046,-0.8,0,-0.6,0.009,0.006,0.002,1023
2018,5,17,21,12,37.798,0.7152,-0.4566,0.1612,-0.5039,0,0.1,-0.7,0.004,0.005,0,1023
2018,5,17,21,12,37.833,0.7156,-0.4569,0.1606,-0.5032,0,0.2,-0.7,0.003,0.019,-0.005,1023
2018,5,17,21,12,37.856,0.7161,-0.4571,0.16,-0.5025,-0.5,0,-0.4,0.004,0.019,0.001,1023
2018,5,17,21,12,37.861,0.7165,-0.4575,0.1594,-0.5018,-1.2,0.1,-0.2,0.002,0.018,0,1023
2018,5,17,21,12,37.876,0.7168,-0.4579,0.1588,-0.5011,-1.6,0,-0.3,0.005,0.013,0,0
2018,5,17,21,12,37.899,0.717,-0.4585,0.1584,-0.5005,-2,0.1,-0.6,0.006,0.011,-0.006,0
2018,5,17,21,12,37.936,0.7171,-0.4591,0.158,-0.4999,-1.2,0,-0.1,0.004,0.006,0,0
2018,5,17,21,12,37.96,0.7173,-0.4595,0.1575,-0.4993,-0.7,0,-0.2,0.008,0.01,-0.001,0
2018,5,17,21,12,37.964,0.7176,-0.4599,0.157,-0.4987,-0.9,0,-0.2,0.004,0.011,-0.001,0
2018,5,17,21,12,37.977,0.718,-0.4603,0.1565,-0.498,-0.6,0.1,-0.4,0.005,0.01,-0.005,0
2018,5,17,21,12,37.995,0.7183,-0.4606,0.1558,-0.4974,-0.5,0,-0.2,0.002,0.013,-0.006,0
2018,5,17,21,12,38.019,0.7187,-0.4609,0.1552,-0.4967,-1.2,0.3,0,0.004,0.019,-0.001,0
2018,5,17,21,12,38.036,0.7189,-0.4615,0.1547,-0.4961,-2.1,0.1,0.3,0.006,0.012,-0.004,0
2018,5,17,21,12,38.059,0.7191,-0.4621,0.1542,-0.4954,-1.9,0.1,0.3,0.008,0.009,-0.005,0
2018,5,17,21,12,38.096,0.7192,-0.4626,0.1537,-0.4948,-1.3,0.3,0.3,0.01,0.007,-0.006,0
2018,5,17,21,12,38.119,0.7195,-0.4631,0.1532,-0.4942,-0.9,0.4,0.3,0.012,0.012,0,0
2018,5,17,21,12,38.123,0.7198,-0.4634,0.1526,-0.4936,-0.5,0.3,0.3,0.009,0.008,0.01,0
2018,5,17,21,12,38.139,0.7202,-0.4636,0.1519,-0.493,0,0,0,0.005,0.007,-0.004,0
2018,5,17,21,12,38.163,0.7208,-0.4638,0.1512,-0.4923,0,0,0,0.007,0.014,-0.008,0
2018,5,17,21,12,38.196,0.7211,-0.4641,0.1505,-0.4916,0.2,0.7,-0.3,-0.002,0.017,-0.011,0
2018,5,17,21,12,38.196,0.7215,-0.4645,0.1497,-0.491,-0.4,0.7,-0.2,-0.001,0.024,-0.004,0
2018,5,17,21,12,38.22,0.7217,-0.465,0.149,-0.4904,-1.7,0.3,-0.2,0,0.022,-0.002,1023
2018,5,17,21,12,38.24,0.7219,-0.4655,0.1485,-0.4898,-2,-0.1,-0.2,0,0.016,0.001,1023
2018,5,17,21,12,38.276,0.7222,-0.466,0.1481,-0.4891,-2.5,-0.4,-0.5,0.006,0.008,-0.003,1023
2018,5,17,21,12,38.3,0.7222,-0.4666,0.1479,-0.4885,-2.2,-0.4,-0.5,0.009,0.007,-0.006,1023
2018,5,17,21,12,38.305,0.7223,-0.4672,0.1476,-0.4879,-1.6,-0.6,-0.3,0.006,0.01,-0.004,1023
2018,5,17,21,12,38.32,0.7225,-0.4676,0.1472,-0.4873,-1.6,-0.3,-0.1,0.003,0.017,0.003,1023
2018,5,17,21,12,38.343,0.7226,-0.4681,0.1467,-0.4868,-1.9,0,0.1,0.005,0.009,0,1023
2018,5,17,21,12,38.361,0.7228,-0.4686,0.1463,-0.4863,-1.5,0.1,0.3,0.004,0.006,0.001,1023
2018,5,17,21,12,38.38,0.7229,-0.4692,0.1458,-0.4858,-1.5,0.4,0.5,0.009,0.009,-0.007,1023
2018,5,17,21,12,38.402,0.723,-0.4697,0.1452,-0.4852,-1.7,0.9,0.6,0.008,0.008,-0.001,1023
2018,5,17,21,12,38.44,0.7231,-0.4703,0.1445,-0.4846,-1.6,0.9,0.9,0.003,0.012,-0.006,1023
2018,5,17,21,12,38.463,0.7232,-0.4709,0.1439,-0.4842,-1.9,0.9,1.2,0.006,0.01,-0.002,1023
2018,5,17,21,12,38.467,0.7233,-0.4715,0.1433,-0.4836,-1.7,0.8,1.5,0.007,0.008,-0.008,1023
2018,5,17,21,12,38.486,0.7235,-0.4719,0.1426,-0.4831,-0.9,1,1.5,0.008,0.009,-0.003,0
2018,5,17,21,12,38.502,0.7236,-0.4724,0.1419,-0.4826,-0.6,1.5,1,0.005,0.006,-0.001,0
2018,5,17,21,12,38.52,0.724,-0.4727,0.1411,-0.482,0.1,1.2,0.6,0.006,0.009,0.003,0
2018,5,17,21,12,38.541,0.7243,-0.4731,0.1403,-0.4815,0.2,1.1,0.1,0.004,0.02,0.001,0
2018,5,17,21,12,38.58,0.7246,-0.4733,0.1395,-0.4808,-0.6,0.9,0,0.002,0.025,-0.001,0
2018,5,17,21,12,38.58,0.7248,-0.4739,0.1388,-0.4803,-2,0.5,-0.1,0,0.023,-0.004,0
2018,5,17,21,12,38.604,0.7248,-0.4745,0.1383,-0.4797,-2.9,0,0.1,-0.007,0.011,-0.014,0
2018,5,17,21,12,38.639,0.7248,-0.4752,0.1379,-0.4792,-2.9,-0.3,0.3,0,0.01,-0.014,0
2018,5,17,21,12,38.663,0.7247,-0.476,0.1376,-0.4786,-2.5,-0.2,0.1,0.001,0.006,-0.021,0
2018,5,17,21,12,38.667,0.7248,-0.4766,0.1372,-0.478,-1,0,0.1,0.005,0.008,-0.001,0
2018,5,17,21,12,38.684,0.7251,-0.4768,0.1366,-0.4775,0,0,0,0.009,0.007,-0.002,0
2018,5,17,21,12,38.707,0.7255,-0.4769,0.1361,-0.4769,0,0,0,0.012,0.014,0.002,0
2018,5,17,21,12,38.724,0.7258,-0.4772,0.1355,-0.4764,-0.7,0,0.1,0.01,0.013,-0.005,0
2018,5,17,21,12,38.759,0.7261,-0.4775,0.135,-0.4758,-0.5,0.1,0.5,0.002,0.007,-0.007,0
2018,5,17,21,12,38.782,0.7263,-0.4778,0.1343,-0.4754,0,0.3,0.6,0.004,0.01,-0.01,0
2018,5,17,21,12,38.786,0.7265,-0.4782,0.1337,-0.4749,-0.3,0.6,0.6,0.003,0.011,-0.01,0
2018,5,17,21,12,38.804,0.7267,-0.4785,0.133,-0.4744,0,0.6,0.8,0.007,0.011,-0.002,0
2018,5,17,21,12,38.842,0.727,-0.4787,0.1323,-0.4739,0.2,0.3,0.8,0.006,0.013,0.006,0
2018,5,17,21,12,38.864,0.7273,-0.479,0.1316,-0.4735,0,0.2,0.7,0.01,0.014,-0.001,1023
2018,5,17,21,12,38.869,0.7275,-0.4792,0.131,-0.473,-0.9,0.2,0.6,0.006,0.013,-0.003,1023
2018,5,17,21,12,38.885,0.7277,-0.4797,0.1304,-0.4725,-1.4,0.4,0.6,0.004,0.012,-0.009,1023
2018,5,17,21,12,38.908,0.7278,-0.4801,0.1298,-0.4719,-0.9,0.6,0.4,0.002,0.012,-0.005,1023
2018,5,17,21,12,38.927,0.7281,-0.4805,0.1292,-0.4713,-1,0.5,0.4,0.004,0.011,-0.004,1023
2018,5,17,21,12,38.947,0.7282,-0.4809,0.1286,-0.4708,-1.5,0.4,0.5,0.008,0.019,-0.004,1023
2018,5,17,21,12,38.968,0.7283,-0.4814,0.1281,-0.4703,-1.6,0.4,0.3,0.004,0.013,0,1023
2018,5,17,21,12,38.986,0.7283,-0.482,0.1276,-0.4698,-1.7,0.3,0.3,0.005,0.014,0,1023
2018,5,17,21,12,39.005,0.7284,-0.4825,0.1271,-0.4693,-1.9,0.2,0.3,0.003,0.008,-0.009,1023
2018,5,17,21,12,39.042,0.7285,-0.4831,0.1267,-0.4687,-1.7,0.3,0.1,0.004,0.006,-0.014,1023
2018,5,17,21,12,39.065,0.7286,-0.4836,0.1262,-0.4681,-0.5,0.4,0,0.003,0.006,-0.01,1023
2018,5,17,21,12,39.069,0.7289,-0.4839,0.1256,-0.4676,0,0,0,0.001,0.01,-0.011,1023
2018,5,17,21,12,39.088,0.7291,-0.4841,0.1251,-0.4671,0,0,0,0.004,0.011,-0.002,0
2018,5,17,21,12,39.105,0.7295,-0.4843,0.1245,-0.4665,0,0,0,0.004,0.015,-0.003,0
2018,5,17,21,12,39.128,0.7298,-0.4845,0.1239,-0.466,0,0,0,0.004,0.011,0,0
2018,5,17,21,12,39.164,0.7301,-0.4847,0.1234,-0.4654,0,0,0,0.004,0.007,0,0
2018,5,17,21,12,39.186,0.7304,-0.4849,0.1228,-0.465,0.8,-0.3,-0.4,0.005,0.006,-0.005,0
2018,5,17,21,12,39.191,0.7307,-0.485,0.1223,-0.4645,0.6,-0.4,-0.3,0.001,0.014,-0.003,0
2018,5,17,21,12,39.209,0.7311,-0.485,0.1218,-0.464,0.1,-0.7,-0.2,0.003,0.015,-0.005,0
2018,5,17,21,12,39.226,0.7313,-0.4852,0.1213,-0.4635,-0.1,-0.7,0.1,0.005,0.013,-0.002,0
2018,5,17,21,12,39.247,0.7315,-0.4855,0.1209,-0.4631,-0.3,-0.6,0.3,0.01,0.011,-0.007,0
2018,5,17,21,12,39.265,0.7317,-0.4857,0.1204,-0.4627,0.3,0,0.8,0.009,0.007,-0.004,0
2018,5,17,21,12,39.288,0.7318,-0.4859,0.1198,-0.4623,0.3,0.1,0.5,0.006,0.006,0.002,0
2018,5,17,21,12,39.324,0.7321,-0.4861,0.1192,-0.4619,1,0.4,0.6,0.009,0.007,-0.005,0
2018,5,17,21,12,39.348,0.7324,-0.4862,0.1184,-0.4614,1.3,0.5,0.5,0.005,0.011,-0.003,0
2018,5,17,21,12,39.352,0.7327,-0.4863,0.1177,-0.461,1.9,0.6,0.4,0,0.01,-0.007,0
2018,5,17,21,12,39.37,0.7331,-0.4864,0.1168,-0.4606,1.4,0.1,0.3,-0.002,0.021,-0.003,0
2018,5,17,21,12,39.406,0.7335,-0.4864,0.1161,-0.4601,0,0,0,0.004,0.018,-0.005,0
2018,5,17,21,12,39.43,0.7337,-0.4867,0.1156,-0.4597,0,0,0,0.005,0.014,-0.004,0
2018,5,17,21,12,39.434,0.7339,-0.4869,0.1151,-0.4592,0,0,0,0.003,0.01,0.002,0
2018,5,17,21,12,39.447,0.7342,-0.4871,0.1145,-0.4587,0,0,0,0.006,0.01,-0.005,1023
2018,5,17,21,12,39.484,0.7344,-0.4873,0.1141,-0.4582,0,0,0,0.005,0.011,-0.004,1023
2018,5,17,21,12,39.505,0.7346,-0.4876,0.1136,-0.4578,0,0,0,0.004,0.01,-0.004,1023
2018,5,17,21,12,39.51,0.7348,-0.4878,0.1131,-0.4573,0,0,0,0.007,0.009,-0.005,1023
2018,5,17,21,12,39.527,0.7352,-0.4879,0.1125,-0.4568,0.5,0,0,0.008,0.014,-0.002,1023
2018,5,17,21,12,39.55,0.7355,-0.488,0.112,-0.4563,0,0,0,0.006,0.015,0,1023
2018,5,17,21,12,39.586,0.7357,-0.4883,0.1115,-0.4558,0,0,0,0.006,0.01,-0.002,1023
2018,5,17,21,12,39.609,0.7359,-0.4885,0.111,-0.4553,0,0,0,0.005,0.002,-0.005,1023
2018,5,17,21,12,39.613,0.7361,-0.4888,0.1105,-0.4548,0.5,0.3,0.2,0.004,0.007,-0.006,1023
2018,5,17,21,12,39.631,0.7365,-0.4889,0.1099,-0.4543,0.8,0,0.2,0.003,0.012,-0.006,1023
2018,5,17,21,12,39.654,0.7368,-0.489,0.1093,-0.4538,0.5,0,0,-0.002,0.014,-0.003,1023
2018,5,17,21,12,39.672,0.737,-0.4892,0.1088,-0.4534,0,0,0,0.002,0.014,-0.002,1023
2018,5,17,21,12,39.695,0.7372,-0.4893,0.1082,-0.4529,0,0,0,0.002,0.013,-0.006,1023
2018,5,17,21,12,39.73,0.7375,-0.4895,0.1077,-0.4525,0,0,0,0.007,0.016,-0.006,0
2018,5,17,21,12,39.753,0.7377,-0.4897,0.1073,-0.452,0,0,0,0.004,0.008,0,0
2018,5,17,21,12,39.758,0.738,-0.4898,0.1068,-0.4515,0,0,0,0.008,0.012,-0.005,0
2018,5,17,21,12,39.77,0.7382,-0.49,0.1063,-0.451,0,0,0,0.01,0.011,-0.003,0
2018,5,17,21,12,39.807,0.7385,-0.4902,0.1058,-0.4505,0,0,0,0.003,0.006,-0.006,0
2018,5,17,21,12,39.83,0.7387,-0.4904,0.1053,-0.45,0,0,0,0.003,0.012,-0.005,0
2018,5,17,21,12,39.835,0.739,-0.4906,0.1048,-0.4495,0,0,0,0.007,0.015,-0.003,0
2018,5,17,21,12,39.853,0.7392,-0.4908,0.1043,-0.4491,0,0,0,0.004,0.009,-0.003,0
2018,5,17,21,12,39.871,0.7394,-0.491,0.1039,-0.4486,0,0,0,0.006,0.012,-0.003,0
2018,5,17,21,12,39.895,0.7396,-0.4912,0.1034,-0.4482,0,0,0,0.009,0.015,-0.007,0
2018,5,17,21,12,39.931,0.7398,-0.4914,0.1029,-0.4477,0,0,0,0.007,0.007,-0.01,0
2018,5,17,21,12,39.955,0.74,-0.4916,0.1025,-0.4473,0,0,0,0.008,0.01,-0.003,0
2018,5,17,21,12,39.959,0.7402,-0.4918,0.102,-0.4468,0.8,0.3,0,0.005,0.011,-0.007,0
2018,5,17,21,12,39.972,0.7405,-0.4919,0.1014,-0.4463,0,0,0,0.005,0.01,-0.004,0
2018,5,17,21,12,40.008,0.7408,-0.492,0.1008,-0.4459,0,0,0,0.002,0.014,-0.004,0
2018,5,17,21,12,40.032,0.7409,-0.4923,0.1003,-0.4455,0,0,0,0.001,0.014,-0.004,0
2018,5,17,21,12,40.037,0.7411,-0.4925,0.0998,-0.4451,0,0,0,0.001,0.013,-0.004,0
2018,5,17,21,12,40.053,0.7412,-0.4927,0.0994,-0.4447,0,-0.9,0,0.006,0.01,-0.008,0
2018,5,17,21,12,40.074,0.7414,-0.4928,0.0991,-0.4443,0.2,-0.9,-0.1,0.007,0.01,-0.006,1023
2018,5,17,21,12,40.094,0.7416,-0.493,0.0987,-0.4439,0.6,-0.8,-0.2,0.007,0.011,-0.003,1023
2018,5,17,21,12,40.113,0.7418,-0.4931,0.0983,-0.4436,0.4,-0.9,-0.1,0.007,0.009,0,1023
2018,5,17,21,12,40.137,0.742,-0.4932,0.0979,-0.4432,0.5,-0.2,0,0.01,0.007,-0.006,1023
2018,5,17,21,12,40.173,0.7423,-0.4933,0.0974,-0.4428,0.7,0,0,0.011,0.01,-0.001,1023
2018,5,17,21,12,40.173,0.7424,-0.4934,0.0969,-0.4424,0,0,0,0.008,0.008,0,1023
2018,5,17,21,12,40.196,0.7427,-0.4936,0.0964,-0.442,0.4,0.6,0,0.011,0.012,-0.006,1023
2018,5,17,21,12,40.214,0.7428,-0.4939,0.096,-0.4416,0,0,0,0.004,0.013,-0.002,1023
2018,5,17,21,12,40.231,0.743,-0.494,0.0955,-0.4411,0,0,0,0.006,0.011,-0.002,1023
2018,5,17,21,12,40.253,0.7432,-0.4942,0.095,-0.4407,0,0,0,0.003,0.012,-0.008,1023
2018,5,17,21,12,40.288,0.7432,-0.4945,0.0946,-0.4404,0,0,0,0.001,0.014,-0.006,1023
2018,5,17,21,12,40.312,0.7433,-0.4948,0.0942,-0.44,-0.5,-0.3,-0.1,0.004,0.013,-0.009,1023
2018,5,17,21,12,40.317,0.7435,-0.495,0.0938,-0.4395,-0.9,-0.3,-0.2,0.004,0.009,-0.005,0
2018,5,17,21,12,40.353,0.7437,-0.4952,0.0935,-0.439,0,0,0,0.006,0.003,-0.008,0
2018,5,17,21,12,40.376,0.7439,-0.4954,0.0931,-0.4385,0,0,0,0.006,0.007,-0.009,0
2018,5,17,21,12,40.381,0.7441,-0.4956,0.0927,-0.4381,0.5,-0.3,-0.2,0.007,0.012,-0.001,0
2018,5,17,21,12,40.398,0.7444,-0.4956,0.0923,-0.4376,0,0,0,0.005,0.016,-0.004,0
2018,5,17,21,12,40.432,0.7447,-0.4957,0.0918,-0.4372,-0.5,-0.3,-0.1,0.005,0.012,-0.009,0
2018,5,17,21,12,40.456,0.7449,-0.4959,0.0914,-0.4367,0,0,0,0.004,0.01,-0.006,0
2018,5,17,21,12,40.46,0.7451,-0.4961,0.091,-0.4362,0,0,0,0.006,0.012,-0.004,0
2018,5,17,21,12,40.475,0.7453,-0.4962,0.0906,-0.4358,0,0,0,0.011,0.008,-0.001,0
2018,5,17,21,12,40.511,0.7455,-0.4964,0.0902,-0.4353,0,0,0,0.005,0.012,-0.003,0
2018,5,17,21,12,40.534,0.7457,-0.4966,0.0897,-0.4349,0,0,0,0.007,0.008,-0.005,0
2018,5,17,21,12,40.538,0.7457,-0.4969,0.0894,-0.4346,0,0,0,0.009,0.006,-0.006,0
2018,5,17,21,12,40.555,0.7459,-0.4971,0.0889,-0.4342,0.7,0,0.1,0.002,0.008,-0.012,0
2018,5,17,21,12,40.579,0.7461,-0.4972,0.0884,-0.4338,0.7,-0.1,0,0.002,0.011,-0.011,0
2018,5,17,21,12,40.596,0.7463,-0.4972,0.0879,-0.4334,0.7,-0.1,0.3,0.004,0.015,-0.005,0
2018,5,17,21,12,40.618,0.7465,-0.4973,0.0874,-0.4331,0,0,0,0.003,0.015,-0.001,0
2018,5,17,21,12,40.656,0.7468,-0.4974,0.087,-0.4326,0,0,0,0.004,0.008,0,0
2018,5,17,21,12,40.68,0.747,-0.4975,0.0865,-0.4322,0.8,-0.1,0.3,0.008,0.003,-0.01,0
2018,5,17,21,12,40.683,0.7474,-0.4974,0.086,-0.4318,1,-0.1,0.3,0.007,0.01,-0.001,1023
2018,5,17,21,12,40.697,0.7477,-0.4973,0.0856,-0.4314,1.2,-0.1,0.3,0.007,0.009,-0.002,1023
2018,5,17,21,12,40.734,0.7479,-0.4973,0.085,-0.4311,0.9,0,0,0.004,0.015,-0.005,1023
2018,5,17,21,12,40.757,0.7481,-0.4975,0.0846,-0.4307,0,0,0,0.002,0.016,-0.006,1023
2018,5,17,21,12,40.761,0.7482,-0.4977,0.0841,-0.4304,0,0,0,0.003,0.019,-0.002,1023
2018,5,17,21,12,40.778,0.7483,-0.4979,0.0838,-0.43,-0.5,-0.3,0,0.007,0.012,-0.003,1023
2018,5,17,21,12,40.816,0.7483,-0.4982,0.0834,-0.4297,-0.5,-0.3,0,0.008,0.012,-0.003,1023
2018,5,17,21,12,40.84,0.7485,-0.4984,0.0831,-0.4293,0,0,0,0.005,0.011,-0.003,1023
2018,5,17,21,12,40.844,0.7486,-0.4986,0.0828,-0.4289,-0.6,0,-0.1,0.009,0.012,-0.004,1023
2018,5,17,21,12,40.859,0.7486,-0.499,0.0825,-0.4286,-0.5,-0.2,0,0.003,0.011,-0.002,1023
2018,5,17,21,12,40.882,0.7487,-0.4991,0.0821,-0.4282,0,0,0,0.007,0.01,-0.01,1023
2018,5,17,21,12,40.901,0.7489,-0.4993,0.0817,-0.4278,-0.4,-0.6,0,0.004,0.009,-0.005,0
2018,5,17,21,12,40.924,0.749,-0.4995,0.0814,-0.4274,0,0,0,0.007,0.006,-0.006,0
2018,5,17,21,12,40.942,0.7491,-0.4998,0.081,-0.427,0,0,0,0.004,0.006,-0.004,0
2018,5,17,21,12,40.959,0.7493,-0.4999,0.0807,-0.4266,1,-0.2,-0.1,0.007,0.009,-0.006,0
2018,5,17,21,12,40.993,0.7495,-0.4999,0.0802,-0.4263,1,-0.3,-0.1,0.004,0.011,-0.003,0
2018,5,17,21,12,41.016,0.7497,-0.5,0.0798,-0.426,0.6,-0.4,0,0.004,0.018,-0.004,0
2018,5,17,21,12,41.02,0.7498,-0.5002,0.0794,-0.4257,0,0,0,0.005,0.018,-0.007,0
2018,5,17,21,12,41.038,0.7499,-0.5004,0.0791,-0.4253,-1.3,0.1,0,0.006,0.016,-0.009,0
2018,5,17,21,12,41.062,0.7499,-0.5008,0.0788,-0.4248,-1.7,0.4,-0.3,0.01,0.012,0,0
2018,5,17,21,12,41.099,0.75,-0.5011,0.0785,-0.4242,-1.8,0.9,-0.6,0.01,0.014,-0.001,0
2018,5,17,21,12,41.122,0.7501,-0.5016,0.0783,-0.4236,-2.2,1,-0.9,0.013,0.01,0.003,0
2018,5,17,21,12,41.127,0.7502,-0.502,0.078,-0.4229,-2.2,0.9,-1.3,0.009,0.012,0.001,0
2018,5,17,21,12,41.141,0.7504,-0.5024,0.0778,-0.4222,-2.7,0.7,-1.3,0.006,0.012,0.002,0
2018,5,17,21,12,41.163,0.7504,-0.5029,0.0777,-0.4216,-2.6,0.2,-1.3,0.005,0.009,-0.008,0
2018,5,17,21,12,41.181,0.7505,-0.5034,0.0775,-0.4209,-2.3,0.3,-1,0,0.01,-0.009,0
2018,5,17,21,12,41.199,0.7505,-0.5039,0.0774,-0.4203,-2.4,0.2,-0.9,-0.001,0.01,-0.013,0
2018,5,17,21,12,41.223,0.7505,-0.5044,0.0771,-0.4198,-1.6,0.2,-0.6,0.004,0.005,-0.005,0
2018,5,17,21,12,41.259,0.7505,-0.5048,0.0769,-0.4193,-1.6,0,0,0.006,0.012,-0.006,0
2018,5,17,21,12,41.297,0.7505,-0.5051,0.0766,-0.4189,-1.4,0.1,0.4,0.007,0.004,-0.009,0
2018,5,17,21,12,41.3,0.7504,-0.5056,0.0763,-0.4186,-0.5,0.3,0.4,0.009,0,-0.011,1023
2018,5,17,21,12,41.302,0.7506,-0.5058,0.0759,-0.4182,1,0.6,0.6,0.009,0.003,-0.007,1023
2018,5,17,21,12,41.324,0.7508,-0.5059,0.0753,-0.4178,1.9,0.7,0.8,0.009,0.01,-0.004,1023
2018,5,17,21,12,41.344,0.7511,-0.5058,0.0746,-0.4175,1.8,0.7,0.6,0.006,0.015,-0.002,1023
2018,5,17,21,12,41.38,0.7514,-0.5057,0.074,-0.4172,1,0.3,0.6,0.004,0.015,-0.004,1023
2018,5,17,21,12,41.402,0.7515,-0.5058,0.0734,-0.417,0.6,0.2,0.8,0.004,0.015,-0.008,1023
2018,5,17,21,12,41.404,0.7516,-0.506,0.0729,-0.4167,0,0.1,0.6,0.005,0.016,-0.005,1023
2018,5,17,21,12,41.441,0.7516,-0.5062,0.0725,-0.4165,-0.7,-0.1,0.6,0.003,0.012,-0.001,1023
2018,5,17,21,12,41.461,0.7518,-0.5063,0.0721,-0.4161,0,0,0,0.004,0.009,0.001,1023
2018,5,17,21,12,41.464,0.7519,-0.5064,0.0718,-0.4158,0,0,0,0.011,0.016,-0.002,1023
2018,5,17,21,12,41.501,0.752,-0.5066,0.0715,-0.4155,-0.6,0.1,0.3,0.009,0.011,0,1023
2018,5,17,21,12,41.501,0.7521,-0.5068,0.0711,-0.4151,-0.8,0.5,0.3,0.007,0.014,-0.005,0
2018,5,17,21,12,41.524,0.7522,-0.5071,0.0708,-0.4147,-1.1,0.7,0.2,0.005,0.012,-0.003,0
2018,5,17,21,12,41.56,0.7522,-0.5074,0.0704,-0.4143,-1.1,0.7,0,0.005,0.01,-0.009,0
2018,5,17,21,12,41.582,0.7522,-0.5078,0.07,-0.4139,-0.8,0.9,-0.1,0.001,0.011,-0.005,0
2018,5,17,21,12,41.585,0.7523,-0.5081,0.0696,-0.4134,-1,0.7,-0.2,0.003,0.012,-0.005,0
2018,5,17,21,12,41.621,0.7523,-0.5084,0.0693,-0.413,-1.4,0.1,-0.2,0.004,0.012,0.001,0
2018,5,17,21,12,41.643,0.7524,-0.5087,0.069,-0.4126,-1.6,-0.1,-0.2,0.006,0.018,-0.002,0
2018,5,17,21,12,41.648,0.7523,-0.5091,0.0688,-0.4122,-2,0,-0.3,0.004,0.012,-0.007,0
2018,5,17,21,12,41.666,0.7523,-0.5095,0.0687,-0.4118,-2.3,0,-0.2,0.003,0.006,-0.007,0
2018,5,17,21,12,41.69,0.7523,-0.5099,0.0685,-0.4114,-1.6,0,0,0.006,0.001,-0.011,0
2018,5,17,21,12,41.703,0.7523,-0.5103,0.0683,-0.4109,-1.1,0.1,0.2,0.008,0.01,-0.01,0
2018,5,17,21,12,41.725,0.7523,-0.5105,0.068,-0.4105,-0.5,0.3,0.5,0.007,0.005,-0.005,0
2018,5,17,21,12,41.759,0.7524,-0.5107,0.0676,-0.4102,0,0.3,0.6,0.008,0.005,-0.002,0
2018,5,17,21,12,41.783,0.7526,-0.5108,0.0671,-0.4099,0.7,0.3,0.6,0.007,0.012,-0.005,0
2018,5,17,21,12,41.788,0.7528,-0.5108,0.0666,-0.4096,0.4,0.6,0.8,0.007,0.014,-0.004,0
2018,5,17,21,12,41.823,0.7528,-0.511,0.0661,-0.4093,0,0.8,0.8,0.007,0.01,-0.007,0
2018,5,17,21,12,41.846,0.7529,-0.5112,0.0656,-0.409,0.4,0.9,0.6,0.004,0.013,-0.005,0
2018,5,17,21,12,41.85,0.753,-0.5114,0.065,-0.4087,0.6,0.6,0.6,0.002,0.013,-0.005,0
2018,5,17,21,12,41.867,0.7531,-0.5116,0.0645,-0.4085,0.7,0.3,0.4,0.004,0.01,-0.005,0
2018,5,17,21,12,41.883,0.7532,-0.5117,0.064,-0.4082,0,0,0,0.004,0.015,-0.004,0
2018,5,17,21,12,41.904,0.7533,-0.5118,0.0637,-0.4079,0,0,0,0.001,0.014,-0.005,1023
2018,5,17,21,12,41.926,0.7534,-0.512,0.0634,-0.4075,0,0,0,0.001,0.009,-0.006,1023
2018,5,17,21,12,41.944,0.7535,-0.5121,0.063,-0.4072,0,0,0,0.002,0.02,-0.009,1023
2018,5,17,21,12,41.968,0.7537,-0.5122,0.0627,-0.4068,-0.7,0,0,0.005,0.018,-0.005,1023
2018,5,17,21,12,42.005,0.7539,-0.5123,0.0624,-0.4064,-1.1,0.2,0,0.01,0.011,0.001,1023
2018,5,17,21,12,42.005,0.754,-0.5125,0.0621,-0.406,-0.9,0.1,0.2,0.007,0.012,0,1023
2018,5,17,21,12,42.027,0.754,-0.5127,0.0619,-0.4057,-0.6,0.3,0.2,0.007,0.006,-0.003,1023
2018,5,17,21,12,42.064,0.7541,-0.5129,0.0616,-0.4054,0,0,0,0.008,0.005,-0.006,1023
2018,5,17,21,12,42.087,0.7541,-0.5131,0.0613,-0.405,0,0,0,0.003,0.007,-0.005,1023
2018,5,17,21,12,42.092,0.7542,-0.5132,0.0609,-0.4047,0.8,0,0,0.002,0.014,-0.012,1023
2018,5,17,21,12,42.108,0.7544,-0.5133,0.0605,-0.4045,0.5,0,0,0,0.014,-0.006,1023
2018,5,17,21,12,42.131,0.7545,-0.5134,0.0601,-0.4041,0,0,0,0,0.016,-0.009,0
2018,5,17,21,12,42.148,0.7546,-0.5136,0.0597,-0.4038,0,0,0,0.005,0.01,-0.012,0
2018,5,17,21,12,42.172,0.7548,-0.5136,0.0594,-0.4034,0,0,0,0.004,0.007,-0.004,0
2018,5,17,21,12,42.188,0.7549,-0.5137,0.0591,-0.4031,0,0,0,0.008,0.009,-0.001,0
2018,5,17,21,12,42.225,0.755,-0.5138,0.0589,-0.4028,0.5,-0.5,-0.2,0.009,0.012,-0.003,0
2018,5,17,21,12,42.248,0.7552,-0.5138,0.0586,-0.4025,0.5,-0.4,0,0.007,0.019,-0.004,0
2018,5,17,21,12,42.252,0.7553,-0.5139,0.0583,-0.4023,0,0,0,0.005,0.013,0,0
2018,5,17,21,12,42.269,0.7553,-0.5142,0.058,-0.402,0,0,0,0.003,0.013,-0.005,0
2018,5,17,21,12,42.292,0.7554,-0.5143,0.0576,-0.4017,0,0,0,0.004,0.01,-0.005,0
2018,5,17,21,12,42.31,0.7555,-0.5144,0.0574,-0.4014,0,0,0,0.007,0.007,-0.005,0
2018,5,17,21,12,42.334,0.7557,-0.5145,0.0571,-0.401,0.5,-0.2,0.3,0.009,0.007,-0.006,0
2018,5,17,21,12,42.349,0.7559,-0.5144,0.0568,-0.4007,0.8,-0.3,0.2,0.007,0.012,-0.004,0
2018,5,17,21,12,42.373,0.756,-0.5144,0.0564,-0.4005,0.7,-0.2,0.3,0.007,0.012,-0.004,0
2018,5,17,21,12,42.387,0.7562,-0.5144,0.0561,-0.4003,0.7,-0.1,0.3,0.009,0.007,-0.001,0
2018,5,17,21,12,42.424,0.7564,-0.5144,0.0557,-0.4,0.9,0,0.2,0.007,0.01,-0.007,0
2018,5,17,21,12,42.448,0.7565,-0.5144,0.0553,-0.3997,0.8,0.3,0.2,0.004,0.013,-0.004,0
2018,5,17,21,12,42.451,0.7567,-0.5144,0.0549,-0.3994,0.6,0.1,0,0.003,0.014,-0.006,0
2018,5,17,21,12,42.488,0.7569,-0.5145,0.0545,-0.3991,0,0,0,0.002,0.013,0.001,0
2018,5,17,21,12,42.508,0.757,-0.5145,0.0542,-0.3988,0,0,0,0.003,0.014,-0.002,0
2018,5,17,21,12,42.513,0.7572,-0.5146,0.054,-0.3985,-0.2,-0.8,-0.1,0.004,0.009,0,0
2018,5,17,21,12,42.531,0.7572,-0.5147,0.0539,-0.3983,0,-0.8,0,0.005,0.007,-0.007,1023
2018,5,17,21,12,42.553,0.7574,-0.5147,0.0537,-0.398,0.5,-0.6,-0.1,0.007,0.01,-0.006,1023
2018,5,17,21,12,42.589,0.7575,-0.5148,0.0535,-0.3978,1,-0.2,-0.1,0.008,0.01,-0.003,1023
2018,5,17,21,12,42.612,0.7577,-0.5147,0.0532,-0.3975,0.7,0,0,0.009,0.014,0.001,1023
2018,5,17,21,12,42.617,0.7579,-0.5147,0.0529,-0.3972,0,0,0,0.011,0.015,-0.001,1023
2018,5,17,21,12,42.633,0.7581,-0.5147,0.0526,-0.3968,0,0,0,0.01,0.01,-0.004,1023
2018,5,17,21,12,42.657,0.7581,-0.5148,0.0524,-0.3965,0,0,0,0.01,0.009,0,1023
2018,5,17,21,12,42.67,0.7582,-0.515,0.0521,-0.3963,0,0,0,0.005,0.008,-0.007,1023
2018,5,17,21,12,42.689,0.7582,-0.5152,0.0518,-0.3961,0,0,0,0.004,0.012,-0.008,1023
2018,5,17,21,12,42.712,0.7583,-0.5153,0.0515,-0.3958,0,0,0,0.003,0.01,-0.007,1023
2018,5,17,21,12,42.73,0.7584,-0.5154,0.0512,-0.3954,0,0,0,0.004,0.012,-0.005,1023
2018,5,17,21,12,42.752,0.7585,-0.5156,0.0509,-0.3951,0,0,0,0.004,0.007,-0.005,1023
2018,5,17,21,12,42.771,0.7586,-0.5156,0.0506,-0.3948,0,0,0,0.006,0.01,-0.009,0
2018,5,17,21,12,42.793,0.7588,-0.5157,0.0504,-0.3945,0,0,0,0.007,0.011,-0.005,0
2018,5,17,21,12,42.828,0.7588,-0.5159,0.0501,-0.3943,0,0,0,0.006,0.008,-0.002,0
2018,5,17,21,12,42.852,0.7589,-0.5159,0.0499,-0.394,0,0,0,0.006,0.011,-0.002,0
2018,5,17,21,12,42.855,0.7591,-0.5159,0.0496,-0.3936,0,0,0,0.006,0.013,-0.001,0
2018,5,17,21,12,42.891,0.7593,-0.5159,0.0493,-0.3933,0,0,0,0.007,0.011,-0.003,0
2018,5,17,21,12,42.914,0.7594,-0.516,0.049,-0.393,0,0,0,0.004,0.008,-0.003,0
2018,5,17,21,12,42.919,0.7594,-0.5162,0.0488,-0.3927,0,0,0,0.009,0.009,-0.005,0
2018,5,17,21,12,42.935,0.7595,-0.5163,0.0486,-0.3925,0,0,0,0.011,0.01,-0.001,0
2018,5,17,21,12,42.954,0.7596,-0.5164,0.0483,-0.3922,0,0,0,0.008,0.011,-0.005,0
2018,5,17,21,12,42.991,0.7597,-0.5165,0.0481,-0.392,0,0,0,0.006,0.01,-0.008,0
2018,5,17,21,12,43.014,0.7598,-0.5166,0.0478,-0.3917,0,0,0,0.008,0.012,-0.004,0
2018,5,17,21,12,43.019,0.7599,-0.5167,0.0476,-0.3914,0,0,0,0.005,0.008,-0.005,0
2018,5,17,21,12,43.035,0.7599,-0.5168,0.0473,-0.3911,0,0,0,0.005,0.009,-0.006,0
2018,5,17,21,12,43.073,0.7601,-0.5168,0.047,-0.3908,0,0,0,0.008,0.015,-0.005,0
2018,5,17,21,12,43.095,0.7602,-0.517,0.0467,-0.3905,0,0,0,0.004,0.01,-0.004,0
2018,5,17,21,12,43.1,0.7603,-0.517,0.0465,-0.3902,0,0,0,0.007,0.012,-0.005,0
2018,5,17,21,12,43.114,0.7604,-0.5171,0.0462,-0.3899,0.5,-0.4,-0.1,0.006,0.013,-0.006,0
2018,5,17,21,12,43.15,0.7605,-0.5172,0.046,-0.3897,0,0,0,0.002,0.012,-0.002,0
2018,5,17,21,12,43.174,0.7606,-0.5173,0.0457,-0.3894,0,0,0,0.008,0.013,-0.003,1023
2018,5,17,21,12,43.178,0.7607,-0.5173,0.0455,-0.3892,0,0,0,0.008,0.016,-0.003,1023
2018,5,17,21,12,43.195,0.7608,-0.5174,0.0452,-0.3889,-0.6,-0.1,-0.1,0.005,0.012,-0.008,1023
2018,5,17,21,12,43.215,0.7609,-0.5176,0.045,-0.3886,0,0,0,0.005,0.007,-0.003,1023
2018,5,17,21,12,43.239,0.761,-0.5176,0.0448,-0.3883,0,0,0,0.011,0.009,0,1023
2018,5,17,21,12,43.254,0.7611,-0.5177,0.0445,-0.388,0,0,0,0.007,0.009,-0.002,1023
2018,5,17,21,12,43.277,0.7613,-0.5177,0.0443,-0.3877,0.5,0.3,0.1,0.004,0.009,-0.005,1023
2018,5,17,21,12,43.297,0.7614,-0.5178,0.044,-0.3874,0,0,0,0.004,0.008,-0.003,1023
2018,5,17,21,12,43.32,0.7614,-0.5179,0.0437,-0.3872,0,0,0,0.003,0.014,-0.005,1023
2018,5,17,21,12,43.339,0.7614,-0.5181,0.0435,-0.387,0,0,0,0.001,0.018,-0.007,1023
2018,5,17,21,12,43.376,0.7614,-0.5183,0.0432,-0.3868,0,0,0,0.002,0.016,-0.008,1023
2018,5,17,21,12,43.4,0.7614,-0.5184,0.0429,-0.3866,0,0,0,0.007,0.011,-0.009,1023
2018,5,17,21,12,43.403,0.7615,-0.5185,0.0427,-0.3863,0,0,0,0.006,0.009,-0.003,0
2018,5,17,21,12,43.417,0.7616,-0.5185,0.0425,-0.3861,0,0,0,0.008,0.011,0.001,0
2018,5,17,21,12,43.435,0.7617,-0.5185,0.0423,-0.3859,0.5,-0.3,-0.1,0.009,0.013,0,0
2018,5,17,21,12,43.459,0.7619,-0.5185,0.0421,-0.3857,0,0,0,0.011,0.015,0,0
2018,5,17,21,12,43.494,0.762,-0.5185,0.0419,-0.3854,-0.5,0.2,-0.1,0.008,0.014,-0.006,0
2018,5,17,21,12,43.516,0.7621,-0.5187,0.0416,-0.385,-0.6,0.4,-0.3,0.005,0.005,-0.005,0
2018,5,17,21,12,43.519,0.7621,-0.5189,0.0414,-0.3847,0,0,0,0.001,0.009,-0.004,0
2018,5,17,21,12,43.538,0.7622,-0.519,0.0412,-0.3845,-0.5,0.4,-0.1,0.008,0.017,-0.001,0
2018,5,17,21,12,43.561,0.7622,-0.5192,0.041,-0.3843,-0.8,0.1,0,0.01,0.015,-0.001,0
2018,5,17,21,12,43.579,0.7622,-0.5193,0.0408,-0.384,-0.9,-0.1,0.3,0.006,0.013,-0.002,0
2018,5,17,21,12,43.602,0.7621,-0.5196,0.0407,-0.3839,-0.9,-0.4,0.3,0.007,0.006,-0.008,0
2018,5,17,21,12,43.62,0.7621,-0.5198,0.0405,-0.3837,0,0,0,0.007,0.003,-0.006,0
2018,5,17,21,12,43.636,0.7622,-0.5199,0.0403,-0.3834,0.8,0.1,0,0.008,0.009,-0.01,0
2018,5,17,21,12,43.66,0.7623,-0.5198,0.04,-0.3832,1.5,0,0.1,0.005,0.01,-0.001,0
2018,5,17,21,12,43.679,0.7625,-0.5197,0.0396,-0.383,1.1,0.2,0.1,0.005,0.019,0,0
2018,5,17,21,12,43.697,0.7625,-0.5199,0.0393,-0.3829,0,0,0,0.001,0.019,-0.002,0
2018,5,17,21,12,43.72,0.7623,-0.5202,0.0391,-0.3829,-0.7,-0.1,0,0.005,0.013,-0.006,0
2018,5,17,21,12,43.753,0.7621,-0.5205,0.039,-0.3828,0,0,0,0.007,0.008,-0.003,0
2018,5,17,21,12,43.774,0.762,-0.5208,0.0388,-0.3827,0,0,0,0.005,0.008,-0.007,0
2018,5,17,21,12,43.779,0.762,-0.5209,0.0387,-0.3826,0.8,-0.4,-0.2,0.007,0.011,-0.002,0
2018,5,17,21,12,43.817,0.7622,-0.5207,0.0385,-0.3824,0.7,-0.4,-0.1,0.011,0.017,0,1023
2018,5,17,21,12,43.84,0.7622,-0.5209,0.0383,-0.3823,0,0,0,0.007,0.013,0,1023
2018,5,17,21,12,43.844,0.7619,-0.5212,0.0381,-0.3823,0,0,0,0.007,0.012,-0.006,1023
