time_1,time_2,time_3,time_4,time_5,time_6,w,x,y,z,droll,dpitch,dyaw,ax,ay,az,heart
2018,5,1,18,54,22.156,0.3538,-0.2677,-0.1379,-0.8854,0.1,0.5,-0.1,-0.001,-0.004,-0.002,0
2018,5,1,18,54,22.196,0.3538,-0.2678,-0.1379,-0.8854,0,0,0,0.002,0,-0.007,0
2018,5,1,18,54,22.218,0.3538,-0.2678,-0.138,-0.8854,0.1,0.5,0,0,0.001,-0.002,0
2018,5,1,18,54,22.222,0.3539,-0.2679,-0.1379,-0.8853,0,0,0,0.001,-0.002,-0.004,0
2018,5,1,18,54,22.234,0.3541,-0.2678,-0.1378,-0.8853,0.3,0.6,-0.2,0,0,-0.002,0
2018,5,1,18,54,22.272,0.3542,-0.2679,-0.1379,-0.8852,0.7,0.7,-0.3,0,0.001,-0.007,0
2018,5,1,18,54,22.292,0.3541,-0.268,-0.1382,-0.8852,0.7,0.4,-0.1,0,0.002,-0.001,0
2018,5,1,18,54,22.297,0.3541,-0.2681,-0.1384,-0.8851,0.6,0.3,0,-0.001,0.004,-0.005,0
2018,5,1,18,54,22.335,0.3541,-0.2681,-0.1384,-0.8851,0,0,0,0.001,0.005,-0.006,0
2018,5,1,18,54,22.353,0.354,-0.2682,-0.1386,-0.8851,0.1,0.6,0.1,-0.001,0.004,-0.007,0
2018,5,1,18,54,22.358,0.3539,-0.2683,-0.1387,-0.8851,0,0,0,-0.001,0.002,0,0
2018,5,1,18,54,22.395,0.3539,-0.2684,-0.1389,-0.885,0,0.6,-0.3,0,0.004,-0.003,0
2018,5,1,18,54,22.413,0.3539,-0.2686,-0.1389,-0.885,-0.4,0.6,-0.6,0.002,0.001,-0.003,0
2018,5,1,18,54,22.418,0.3538,-0.2687,-0.1389,-0.885,-0.7,0,-0.6,0.002,-0.003,-0.004,0
2018,5,1,18,54,22.438,0.3538,-0.2688,-0.1389,-0.885,0,0,0,0.002,-0.001,0,0
2018,5,1,18,54,22.457,0.3537,-0.2688,-0.1389,-0.885,-0.6,-0.1,-0.2,0,0.001,0.003,0
2018,5,1,18,54,22.475,0.3536,-0.2689,-0.1388,-0.885,-0.6,0.2,-0.2,0.001,0.002,0.001,0
2018,5,1,18,54,22.512,0.3536,-0.269,-0.1389,-0.885,0.1,0.6,-0.3,0,0.002,-0.003,0
2018,5,1,18,54,22.531,0.3537,-0.2691,-0.1389,-0.8849,0.4,0.7,-0.3,0,0,-0.002,0
2018,5,1,18,54,22.536,0.3537,-0.2692,-0.1391,-0.8848,0.7,0.9,-0.3,0,-0.003,-0.007,0
2018,5,1,18,54,22.575,0.3536,-0.2694,-0.1393,-0.8848,0.7,0.5,-0.3,-0.003,-0.001,-0.008,0
2018,5,1,18,54,22.595,0.3536,-0.2696,-0.1395,-0.8847,0.4,0.6,-0.2,0,0,-0.006,0
2018,5,1,18,54,22.6,0.3536,-0.2696,-0.1395,-0.8847,0,0,0,0,0.001,-0.001,0
2018,5,1,18,54,22.619,0.3536,-0.2697,-0.1395,-0.8847,0,0,0,-0.002,0,-0.007,0
2018,5,1,18,54,22.639,0.3536,-0.2697,-0.1395,-0.8847,0,0,0,0.002,0,-0.001,0
2018,5,1,18,54,22.66,0.3536,-0.2697,-0.1395,-0.8847,0,0,0,0,0.001,-0.002,1023
2018,5,1,18,54,22.68,0.3536,-0.2697,-0.1395,-0.8847,0,0,0,0.003,0,0,1023
2018,5,1,18,54,22.698,0.3536,-0.2696,-0.1394,-0.8847,-0.4,-0.6,-0.2,0.003,-0.001,-0.003,1023
2018,5,1,18,54,22.718,0.3534,-0.2696,-0.1395,-0.8847,-0.2,-0.7,0,0.001,0,-0.004,1023
2018,5,1,18,54,22.738,0.3534,-0.2696,-0.1394,-0.8848,0,0,0,-0.002,0.001,-0.008,1023
2018,5,1,18,54,22.759,0.3534,-0.2696,-0.1394,-0.8848,0,0,0,0.001,0,0,1023
2018,5,1,18,54,22.779,0.3534,-0.2695,-0.1393,-0.8848,0,0,0,0.004,-0.003,0,1023
2018,5,1,18,54,22.799,0.3534,-0.2695,-0.1393,-0.8848,0.1,0.5,0,0,0,-0.007,1023
2018,5,1,18,54,22.819,0.3535,-0.2695,-0.1393,-0.8848,0,0,0,0.001,0,-0.005,1023
2018,5,1,18,54,22.858,0.3534,-0.2695,-0.1393,-0.8848,0,0,0,0.001,0.003,-0.005,1023
2018,5,1,18,54,22.876,0.3536,-0.2695,-0.1393,-0.8848,0.6,0.3,-0.2,0,0,-0.005,1023
2018,5,1,18,54,22.881,0.3536,-0.2695,-0.1393,-0.8847,0,0,0,0,0.004,-0.005,1023
2018,5,1,18,54,22.902,0.3536,-0.2696,-0.1394,-0.8847,0,0,0,-0.003,0,-0.008,1023
2018,5,1,18,54,22.922,0.3536,-0.2696,-0.1394,-0.8847,0,0,0,0,0,-0.004,1023
2018,5,1,18,54,22.943,0.3536,-0.2697,-0.1394,-0.8847,-0.1,-0.6,0,0.001,-0.003,-0.01,1023
2018,5,1,18,54,22.963,0.3537,-0.2696,-0.1393,-0.8847,-0.4,-0.7,-0.2,0.003,0.002,0.001,1023
2018,5,1,18,54,22.985,0.3536,-0.2695,-0.1392,-0.8848,-0.6,-0.5,-0.1,0.002,0.002,0.003,1023
2018,5,1,18,54,23.005,0.3536,-0.2694,-0.1391,-0.8848,-0.2,-0.5,-0.3,0,0.001,-0.003,1023
2018,5,1,18,54,23.023,0.3536,-0.2694,-0.1391,-0.8848,0,0,0,0.002,0,-0.005,1023
2018,5,1,18,54,23.043,0.3536,-0.2694,-0.1391,-0.8848,0,0,0,0.002,-0.001,-0.002,1023
2018,5,1,18,54,23.061,0.3536,-0.2694,-0.139,-0.8848,0,0,0,0,0,-0.001,0
2018,5,1,18,54,23.1,0.3536,-0.2694,-0.139,-0.8848,0,0,0,0,0.001,-0.006,0
2018,5,1,18,54,23.12,0.3536,-0.2694,-0.139,-0.8848,0,0,0,0.002,0,-0.006,0
2018,5,1,18,54,23.124,0.3536,-0.2695,-0.139,-0.8848,0,0,0,0,-0.002,-0.005,0
2018,5,1,18,54,23.164,0.3537,-0.2695,-0.139,-0.8848,0,0,0,0.001,0.003,-0.002,0
2018,5,1,18,54,23.168,0.3537,-0.2695,-0.139,-0.8848,0,0,0,0,0.003,0.001,0
2018,5,1,18,54,23.186,0.3537,-0.2695,-0.139,-0.8848,0,0,0,0.001,0,-0.009,0
2018,5,1,18,54,23.206,0.3537,-0.2694,-0.1389,-0.8848,0,0,0,0.002,0,-0.006,0
2018,5,1,18,54,23.226,0.3537,-0.2694,-0.1389,-0.8848,0,0,0,0.002,0.002,-0.006,0
2018,5,1,18,54,23.242,0.3537,-0.2694,-0.139,-0.8848,0,0,0,0.001,0.004,-0.003,0
2018,5,1,18,54,23.278,0.3537,-0.2695,-0.139,-0.8848,0,0,0,-0.004,0,-0.005,0
2018,5,1,18,54,23.3,0.3537,-0.2695,-0.139,-0.8848,0,0,0,0,0.001,-0.005,0
2018,5,1,18,54,23.304,0.3537,-0.2695,-0.139,-0.8848,0,0,0,0.002,-0.001,-0.005,0
2018,5,1,18,54,23.326,0.3536,-0.2695,-0.1389,-0.8848,-0.1,-0.7,0,0.004,-0.006,-0.002,0
2018,5,1,18,54,23.347,0.3536,-0.2694,-0.1388,-0.8849,-0.7,-1,0,0.003,0.001,-0.003,0
2018,5,1,18,54,23.367,0.3536,-0.2692,-0.1386,-0.8849,-0.5,-0.6,0.1,0.005,0.001,0,0
2018,5,1,18,54,23.405,0.3536,-0.2692,-0.1386,-0.885,0,0,0,0.004,0.002,0.009,0
2018,5,1,18,54,23.425,0.3536,-0.2691,-0.1386,-0.885,0,0,0,0.001,-0.001,0,0
2018,5,1,18,54,23.429,0.3536,-0.2691,-0.1386,-0.885,0.5,-0.1,0,0.003,0,-0.001,0
2018,5,1,18,54,23.443,0.3536,-0.2691,-0.1386,-0.885,0,0,0,0.003,0,-0.011,0
2018,5,1,18,54,23.482,0.3536,-0.2691,-0.1386,-0.885,0,0,0,-0.002,-0.002,-0.002,0
2018,5,1,18,54,23.502,0.3536,-0.2692,-0.1386,-0.885,0,0,0,-0.002,-0.001,-0.006,0
2018,5,1,18,54,23.507,0.3536,-0.2692,-0.1387,-0.885,0.5,0,0.1,0.001,0.003,-0.009,0
2018,5,1,18,54,23.542,0.3535,-0.2692,-0.1388,-0.885,0,0,0,0.003,0.005,-0.005,0
2018,5,1,18,54,23.564,0.3535,-0.2691,-0.1388,-0.885,0.1,-0.6,0,0.003,0.002,-0.005,0
2018,5,1,18,54,23.568,0.3536,-0.269,-0.1388,-0.885,0.2,-0.8,-0.2,0,0.006,-0.006,0
2018,5,1,18,54,23.584,0.3537,-0.2687,-0.1386,-0.885,-0.1,-0.9,0,0.002,0,-0.001,1023
2018,5,1,18,54,23.603,0.3537,-0.2685,-0.1385,-0.8851,-0.2,-1.2,0,0,-0.004,-0.003,1023
2018,5,1,18,54,23.643,0.3538,-0.2683,-0.1382,-0.8852,-0.6,-1.2,0.1,-0.001,0.001,-0.003,1023
2018,5,1,18,54,23.664,0.3537,-0.2683,-0.1382,-0.8853,-0.8,-0.8,0,0,0.002,-0.005,1023
2018,5,1,18,54,23.668,0.3536,-0.2682,-0.138,-0.8853,-0.6,-0.2,0,0.002,0.004,0,1023
2018,5,1,18,54,23.687,0.3536,-0.2682,-0.138,-0.8853,0,0,0,0.009,0,0.006,1023
2018,5,1,18,54,23.708,0.3536,-0.2682,-0.138,-0.8854,0,0,0,0.003,0,0.003,1023
2018,5,1,18,54,23.745,0.3536,-0.2681,-0.138,-0.8854,0,0,0,0.003,0,-0.002,1023
2018,5,1,18,54,23.764,0.3536,-0.2681,-0.138,-0.8854,0,0,0,0.001,0.002,-0.004,1023
2018,5,1,18,54,23.768,0.3536,-0.2681,-0.1381,-0.8854,0,0,0,0.001,0.004,-0.005,1023
2018,5,1,18,54,23.788,0.3536,-0.2681,-0.1381,-0.8854,0,0,0,-0.001,0.002,-0.003,1023
2018,5,1,18,54,23.826,0.3536,-0.2682,-0.1381,-0.8854,0,-0.5,-0.2,-0.002,-0.001,-0.005,1023
2018,5,1,18,54,23.847,0.3537,-0.2681,-0.1379,-0.8854,-0.2,-0.7,0,0,0,-0.006,1023
2018,5,1,18,54,23.851,0.3536,-0.268,-0.138,-0.8854,-0.1,-0.6,0.1,0.001,0,-0.002,1023
2018,5,1,18,54,23.87,0.3535,-0.268,-0.1379,-0.8854,-0.4,-0.7,0.1,0,0.001,-0.001,1023
2018,5,1,18,54,23.89,0.3535,-0.2679,-0.1379,-0.8855,-0.2,-0.8,0,0.004,0,0.001,1023
2018,5,1,18,54,23.909,0.3535,-0.2677,-0.1378,-0.8855,-0.1,-0.9,-0.1,0.003,0,0,1023
2018,5,1,18,54,23.929,0.3535,-0.2676,-0.1378,-0.8856,0,-0.9,0,0.003,0,0.001,1023
2018,5,1,18,54,23.95,0.3535,-0.2675,-0.1377,-0.8856,0,-0.7,0,0,0,0.002,1023
2018,5,1,18,54,23.971,0.3535,-0.2674,-0.1377,-0.8857,0,0,0,0.003,0,-0.005,1023
2018,5,1,18,54,24.009,0.3535,-0.2675,-0.1377,-0.8856,0,0,0,0.002,0,-0.004,0
2018,5,1,18,54,24.013,0.3535,-0.2675,-0.1377,-0.8857,0,0,0,0.002,0,-0.001,0
2018,5,1,18,54,24.029,0.3535,-0.2674,-0.1377,-0.8857,0,0,0,0.002,0,0,0
2018,5,1,18,54,24.049,0.3535,-0.2674,-0.1377,-0.8857,0,0,0,0.002,0.002,-0.006,0
2018,5,1,18,54,24.069,0.3535,-0.2674,-0.1377,-0.8857,0,0,0,0.002,0,-0.005,0
2018,5,1,18,54,24.108,0.3535,-0.2674,-0.1377,-0.8857,0,0,0,0,0,-0.003,0
2018,5,1,18,54,24.128,0.3535,-0.2674,-0.1377,-0.8857,0,0,0,-0.001,0.001,-0.003,0
2018,5,1,18,54,24.132,0.3535,-0.2674,-0.1378,-0.8857,0,0,0,0.003,0.003,-0.002,0
2018,5,1,18,54,24.153,0.3534,-0.2674,-0.1378,-0.8857,0,0,0,0.002,0.005,-0.003,0
2018,5,1,18,54,24.172,0.3534,-0.2674,-0.1378,-0.8857,0,0,0,0,0.002,-0.005,0
2018,5,1,18,54,24.194,0.3534,-0.2674,-0.1378,-0.8857,0,0,0,0.005,0.002,0,0
2018,5,1,18,54,24.213,0.3534,-0.2673,-0.1378,-0.8857,0,0,0,0.003,-0.001,-0.004,0
2018,5,1,18,54,24.23,0.3535,-0.2673,-0.1378,-0.8857,-0.4,-0.8,-0.2,0.001,0.001,0.002,0
2018,5,1,18,54,24.25,0.3535,-0.2671,-0.1375,-0.8858,-0.9,-1.2,0,0,0.001,0,0
2018,5,1,18,54,24.269,0.3536,-0.267,-0.1373,-0.8858,-0.7,-0.8,0,0.003,0.001,-0.004,0
2018,5,1,18,54,24.308,0.3537,-0.2668,-0.137,-0.8859,-0.6,-0.4,-0.2,0.005,0.001,0.003,0
2018,5,1,18,54,24.327,0.3537,-0.2668,-0.137,-0.8859,0,0,0,0.004,-0.001,0.003,0
2018,5,1,18,54,24.331,0.3537,-0.2667,-0.137,-0.8859,0,0,0,0.004,-0.001,-0.006,0
2018,5,1,18,54,24.369,0.3537,-0.2668,-0.137,-0.8859,0,0,0,0,-0.002,-0.005,0
2018,5,1,18,54,24.389,0.3537,-0.2668,-0.137,-0.8859,0,0,0,-0.005,0,-0.002,0
2018,5,1,18,54,24.393,0.3537,-0.2668,-0.137,-0.8859,0.5,0.1,0,0,0,-0.007,0
2018,5,1,18,54,24.431,0.3537,-0.2668,-0.1371,-0.8859,0,0,0,0,0,0.001,0
2018,5,1,18,54,24.435,0.3537,-0.2668,-0.1371,-0.8859,0.5,0,0,0.004,0.001,-0.008,0
2018,5,1,18,54,24.453,0.3536,-0.2668,-0.1372,-0.8859,0,0,0,0.004,0.001,-0.006,0
2018,5,1,18,54,24.49,0.3537,-0.2667,-0.1371,-0.8859,-0.2,-0.7,0,0.005,0,-0.005,0
2018,5,1,18,54,24.511,0.3539,-0.2665,-0.1369,-0.8859,-0.1,-0.9,0,0.004,0.005,0.001,0
2018,5,1,18,54,24.515,0.3538,-0.2663,-0.1369,-0.886,0,-0.9,0.1,0.004,0,-0.001,0
2018,5,1,18,54,24.533,0.3536,-0.2663,-0.137,-0.8861,-0.4,-0.9,0.1,0.001,0.002,0,1023
2018,5,1,18,54,24.552,0.3535,-0.2662,-0.1369,-0.8861,-0.7,-0.7,0.2,0.001,0.002,-0.002,1023
2018,5,1,18,54,24.591,0.3534,-0.2662,-0.1369,-0.8862,0,0,0,0,0.002,0,1023
2018,5,1,18,54,24.612,0.3534,-0.2662,-0.1369,-0.8862,0,0,0,0.001,-0.001,-0.001,1023
2018,5,1,18,54,24.616,0.3534,-0.2661,-0.1368,-0.8862,0,0,0,0.003,-0.001,0.003,1023
2018,5,1,18,54,24.636,0.3534,-0.2661,-0.1368,-0.8862,0,0,0,0.005,0.002,-0.002,1023
2018,5,1,18,54,24.655,0.3534,-0.2661,-0.1368,-0.8862,0,0,0,0.001,-0.001,-0.003,1023
2018,5,1,18,54,24.675,0.3534,-0.2661,-0.1368,-0.8862,0,0,0,0.002,0.004,-0.005,1023
2018,5,1,18,54,24.695,0.3534,-0.2661,-0.1369,-0.8862,0,0,0,-0.002,0.003,-0.005,1023
2018,5,1,18,54,24.733,0.3534,-0.2661,-0.1369,-0.8862,0,0,0,-0.003,0.001,-0.006,1023
2018,5,1,18,54,24.737,0.3534,-0.2662,-0.1369,-0.8862,0,0,0,0,0.001,-0.007,1023
2018,5,1,18,54,24.754,0.3534,-0.2662,-0.1369,-0.8862,0,0,0,-0.001,0.003,-0.006,1023
2018,5,1,18,54,24.792,0.3533,-0.2662,-0.137,-0.8862,-0.6,-0.6,0,0.002,0.001,-0.007,1023
2018,5,1,18,54,24.812,0.3533,-0.2661,-0.1368,-0.8863,-0.5,-0.6,0,0.007,0.001,-0.003,1023
2018,5,1,18,54,24.817,0.3534,-0.2659,-0.1366,-0.8863,-0.4,-0.6,0,0.005,-0.001,0,1023
2018,5,1,18,54,24.835,0.3534,-0.2659,-0.1366,-0.8864,-0.2,-0.5,0,0.001,0.002,-0.001,1023
2018,5,1,18,54,24.857,0.3532,-0.2659,-0.1367,-0.8864,0,0,0,0.004,0.001,-0.001,1023
2018,5,1,18,54,24.879,0.3532,-0.2658,-0.1367,-0.8864,0,0,0,0.004,0,-0.002,1023
2018,5,1,18,54,24.898,0.3533,-0.2658,-0.1366,-0.8864,0,0,0,0.006,-0.002,0,1023
2018,5,1,18,54,24.936,0.3533,-0.2658,-0.1366,-0.8864,0,0,0,0.001,0,-0.001,1023
2018,5,1,18,54,24.956,0.3533,-0.2658,-0.1366,-0.8864,0,0,0,0,0.003,-0.001,1023
2018,5,1,18,54,24.96,0.3533,-0.2658,-0.1366,-0.8864,0,0,0,-0.001,0,-0.006,0
2018,5,1,18,54,24.998,0.3533,-0.2658,-0.1366,-0.8864,0,0,0,0.003,-0.001,-0.003,0
2018,5,1,18,54,25.017,0.3533,-0.2658,-0.1366,-0.8864,0,0,0,0.004,0.005,0,0
2018,5,1,18,54,25.021,0.3533,-0.2658,-0.1366,-0.8864,0,0,0,0.002,0.001,-0.01,0
2018,5,1,18,54,25.035,0.3533,-0.2658,-0.1366,-0.8864,0,0,0,0.001,0.001,0,0
2018,5,1,18,54,25.057,0.3533,-0.2658,-0.1366,-0.8864,0,0,0,-0.001,0.002,-0.001,0
2018,5,1,18,54,25.076,0.3532,-0.2658,-0.1366,-0.8864,0,0,0,0.001,0,-0.009,0
2018,5,1,18,54,25.114,0.3532,-0.2658,-0.1366,-0.8864,0,0,0,0,0.003,-0.002,0
2018,5,1,18,54,25.135,0.3532,-0.2657,-0.1367,-0.8864,0,0,0,0.006,0.005,-0.001,0
2018,5,1,18,54,25.139,0.3532,-0.2657,-0.1367,-0.8864,0,0,0,0.002,0.003,-0.003,0
2018,5,1,18,54,25.178,0.3532,-0.2657,-0.1367,-0.8864,0,0,0,0.001,-0.005,-0.002,0
2018,5,1,18,54,25.198,0.3533,-0.2657,-0.1365,-0.8865,-0.7,-0.8,0,0.001,-0.004,-0.001,0
2018,5,1,18,54,25.202,0.3532,-0.2656,-0.1364,-0.8865,-1.2,-1.1,0,0.001,0.003,-0.003,0
2018,5,1,18,54,25.222,0.3533,-0.2654,-0.1361,-0.8866,-0.6,-0.8,0,0.006,0,0,0
2018,5,1,18,54,25.238,0.3533,-0.2653,-0.136,-0.8866,0,0,0,0.006,0.001,0.001,0
2018,5,1,18,54,25.276,0.3533,-0.2653,-0.1359,-0.8867,0,0,0,0.004,0,0.007,0
2018,5,1,18,54,25.295,0.3533,-0.2652,-0.1359,-0.8867,0,0,0,0.002,-0.003,-0.007,0
2018,5,1,18,54,25.3,0.3531,-0.2654,-0.1362,-0.8867,0.5,0.3,0,0.001,0.003,-0.002,0
2018,5,1,18,54,25.319,0.3531,-0.2654,-0.1364,-0.8866,0.6,0.5,0,0,0.001,-0.006,0
2018,5,1,18,54,25.34,0.3529,-0.2656,-0.1367,-0.8866,0.7,0.3,0.1,0,-0.001,-0.006,0
2018,5,1,18,54,25.36,0.3529,-0.2656,-0.1369,-0.8866,0.6,0.2,0,0,0.002,-0.007,0
2018,5,1,18,54,25.377,0.3529,-0.2657,-0.137,-0.8866,0,0,0,0.002,0,-0.007,0
2018,5,1,18,54,25.417,0.3529,-0.2656,-0.137,-0.8866,0,-0.6,-0.2,0.006,0.005,-0.001,0
2018,5,1,18,54,25.438,0.353,-0.2654,-0.1368,-0.8866,-0.1,-0.8,-0.1,0.003,0.002,0,0
2018,5,1,18,54,25.442,0.3531,-0.2653,-0.1367,-0.8866,-0.2,-0.9,0,0.001,0.004,-0.006,0
2018,5,1,18,54,25.458,0.3529,-0.2652,-0.1367,-0.8867,-0.4,-0.8,0,0.002,-0.003,0,0
2018,5,1,18,54,25.494,0.3527,-0.2652,-0.1367,-0.8868,-0.7,-0.7,0,0.002,0.001,-0.003,0
2018,5,1,18,54,25.515,0.3526,-0.2652,-0.1366,-0.8869,-0.7,-0.4,0.1,0.001,0.001,-0.001,1023
2018,5,1,18,54,25.519,0.3526,-0.2651,-0.1364,-0.8869,-0.7,-0.3,0.1,0.003,0,-0.002,1023
2018,5,1,18,54,25.557,0.3526,-0.2651,-0.1363,-0.8869,0,0,0,0.007,0,0.005,1023
2018,5,1,18,54,25.578,0.3526,-0.265,-0.1363,-0.887,0,0,0,0.002,0.001,0,1023
2018,5,1,18,54,25.582,0.3526,-0.2649,-0.1363,-0.887,0,0,0,0.005,0.005,-0.004,1023
2018,5,1,18,54,25.601,0.3526,-0.2649,-0.1363,-0.887,0.1,0.5,-0.3,0.003,0.002,-0.006,1023
2018,5,1,18,54,25.622,0.3526,-0.2649,-0.1363,-0.887,0,0,0,0.002,0.003,-0.003,1023
2018,5,1,18,54,25.657,0.3526,-0.2649,-0.1363,-0.887,0,0,0,-0.001,0.001,-0.006,1023
2018,5,1,18,54,25.676,0.3526,-0.265,-0.1363,-0.8869,0,0,0,-0.002,-0.002,-0.007,1023
2018,5,1,18,54,25.681,0.3526,-0.265,-0.1363,-0.8869,0,0,0,-0.001,0,-0.01,1023
2018,5,1,18,54,25.718,0.3526,-0.2651,-0.1364,-0.8869,-0.2,-0.7,0,0.003,-0.001,-0.003,1023
2018,5,1,18,54,25.738,0.3526,-0.2649,-0.1362,-0.887,-0.2,-0.7,-0.1,0.003,0.001,-0.007,1023
2018,5,1,18,54,25.742,0.3527,-0.2648,-0.1361,-0.887,-0.2,-0.6,-0.1,0.005,0,-0.001,1023
2018,5,1,18,54,25.779,0.3527,-0.2647,-0.1359,-0.8871,0,0,0,0.006,0.002,0.002,1023
2018,5,1,18,54,25.8,0.3527,-0.2647,-0.1359,-0.8871,0,0,0,0.003,0,0.002,1023
2018,5,1,18,54,25.805,0.3528,-0.2646,-0.1358,-0.8871,0,0,0,0.001,0,-0.003,1023
2018,5,1,18,54,25.821,0.3528,-0.2646,-0.1358,-0.8871,0,0,0,0.001,-0.002,0,1023
2018,5,1,18,54,25.856,0.3528,-0.2646,-0.1358,-0.8871,0,0,0,0.001,-0.002,-0.004,1023
2018,5,1,18,54,25.876,0.3528,-0.2646,-0.1358,-0.8871,0,0,0,0.003,-0.001,-0.001,1023
2018,5,1,18,54,25.881,0.3528,-0.2646,-0.1357,-0.8871,0,0,0,0,0.001,-0.009,1023
2018,5,1,18,54,25.915,0.3528,-0.2646,-0.1358,-0.8871,0,0,0,0.001,0.002,-0.008,1023
2018,5,1,18,54,25.936,0.3528,-0.2647,-0.1358,-0.8871,0,0,0,0.004,0,-0.006,1023
2018,5,1,18,54,25.942,0.3528,-0.2646,-0.1358,-0.8871,0,0,0,0.001,0.001,-0.004,0
2018,5,1,18,54,25.978,0.3528,-0.2646,-0.1358,-0.8871,0.5,0,-0.2,0.004,0.004,-0.004,0
2018,5,1,18,54,25.999,0.3528,-0.2646,-0.1358,-0.8871,0,0,0,0.004,0.002,-0.001,0
2018,5,1,18,54,26.005,0.3528,-0.2646,-0.1359,-0.8871,0,0,0,0.001,0.001,-0.004,0
2018,5,1,18,54,26.038,0.3528,-0.2646,-0.1359,-0.8871,0,0,0,0.003,-0.003,-0.008,0
2018,5,1,18,54,26.059,0.3528,-0.2646,-0.1359,-0.8871,0,0,0,0.003,0.002,-0.002,0
2018,5,1,18,54,26.06,0.3528,-0.2646,-0.1359,-0.8871,0,0,0,0.002,0.006,-0.002,0
2018,5,1,18,54,26.098,0.3528,-0.2645,-0.1359,-0.8871,0,0,0,0.002,0.005,-0.002,0
2018,5,1,18,54,26.118,0.3527,-0.2645,-0.136,-0.8871,0,0,0,0.005,0.002,-0.003,0
2018,5,1,18,54,26.125,0.3528,-0.2645,-0.1359,-0.8871,0,0,0,0.004,-0.003,-0.005,0
2018,5,1,18,54,26.164,0.3529,-0.2644,-0.1358,-0.8871,-0.6,-0.7,-0.3,0.003,-0.001,-0.004,0
2018,5,1,18,54,26.186,0.3527,-0.2644,-0.1357,-0.8872,-1.2,-1.1,0,0.002,0.001,-0.005,0
2018,5,1,18,54,26.19,0.3525,-0.2645,-0.1357,-0.8873,-0.9,-0.7,0,0.005,0.002,-0.003,0
2018,5,1,18,54,26.208,0.3525,-0.2644,-0.1354,-0.8873,-0.5,-0.1,0,0.005,-0.002,-0.003,0
2018,5,1,18,54,26.228,0.3525,-0.2643,-0.1354,-0.8873,0,0,0,0.007,0.001,0.007,0
2018,5,1,18,54,26.246,0.3526,-0.2643,-0.1354,-0.8873,0,0,0,0.002,-0.001,-0.004,0
2018,5,1,18,54,26.265,0.3525,-0.2643,-0.1355,-0.8873,0.7,0.6,-0.2,0.003,0.002,-0.01,0
2018,5,1,18,54,26.285,0.3526,-0.2644,-0.1357,-0.8872,0.7,0.6,0,0.001,0.001,-0.008,0
2018,5,1,18,54,26.304,0.3525,-0.2645,-0.1359,-0.8872,0.6,0.8,0,-0.003,0,-0.003,0
2018,5,1,18,54,26.344,0.3524,-0.2647,-0.1361,-0.8872,0.5,0.4,0.1,-0.002,-0.002,-0.006,0
2018,5,1,18,54,26.367,0.3525,-0.2647,-0.1361,-0.8871,0.5,0.1,0.1,0.002,-0.002,-0.008,0
2018,5,1,18,54,26.371,0.3525,-0.2647,-0.1361,-0.8871,0,0,0,0.003,0.002,-0.006,0
2018,5,1,18,54,26.386,0.3525,-0.2647,-0.1361,-0.8871,0,0,0,0.006,0.006,0,0
2018,5,1,18,54,26.425,0.3525,-0.2646,-0.1361,-0.8871,0,-0.5,0,0.005,0.002,0.005,0
2018,5,1,18,54,26.446,0.3525,-0.2645,-0.1361,-0.8872,0,0,0,0.001,0.001,0.003,1023
2018,5,1,18,54,26.45,0.3525,-0.2645,-0.1361,-0.8872,0,0,0,0.002,-0.002,-0.005,1023
2018,5,1,18,54,26.467,0.3525,-0.2645,-0.1361,-0.8872,0,0,0,0.001,0.001,0,1023
2018,5,1,18,54,26.487,0.3525,-0.2645,-0.136,-0.8872,0,0,0,0.004,-0.001,0,1023
2018,5,1,18,54,26.507,0.3525,-0.2645,-0.136,-0.8872,0.1,0.8,-0.2,0.005,-0.001,0,1023
2018,5,1,18,54,26.527,0.3525,-0.2645,-0.136,-0.8872,0.2,0.9,-0.3,0.007,0,0.002,1023
2018,5,1,18,54,26.564,0.3526,-0.2646,-0.1361,-0.8871,0.1,0.9,-0.3,0.005,0.001,-0.003,1023
2018,5,1,18,54,26.584,0.3526,-0.2648,-0.1362,-0.887,0.3,0.9,-0.4,0.001,0.002,-0.005,1023
2018,5,1,18,54,26.588,0.3525,-0.265,-0.1364,-0.887,0.6,0.9,-0.5,0,0.004,-0.004,1023
2018,5,1,18,54,26.608,0.3526,-0.2651,-0.1366,-0.8869,0.2,0.9,-0.6,-0.002,0,-0.006,1023
2018,5,1,18,54,26.629,0.3527,-0.2653,-0.1367,-0.8868,0.3,0.6,-0.5,0,0,-0.01,1023
2018,5,1,18,54,26.669,0.3527,-0.2654,-0.1367,-0.8867,0,0,0,0.003,0,-0.006,1023
2018,5,1,18,54,26.689,0.3527,-0.2654,-0.1367,-0.8867,0,0,0,0,0,-0.008,1023
2018,5,1,18,54,26.717,0.3526,-0.2655,-0.1368,-0.8867,0,0,0,0,0.002,-0.003,1023
2018,5,1,18,54,26.734,0.3527,-0.2655,-0.1368,-0.8867,-0.6,0,-0.2,0,0,-0.003,1023
2018,5,1,18,54,26.736,0.3527,-0.2655,-0.1367,-0.8867,0,0,0,0.002,0,0,1023
2018,5,1,18,54,26.752,0.3527,-0.2655,-0.1367,-0.8867,0,0,0,0.003,-0.001,0,1023
2018,5,1,18,54,26.789,0.3527,-0.2655,-0.1366,-0.8867,0,0,0,0.007,0.002,0.002,1023
2018,5,1,18,54,26.792,0.3527,-0.2654,-0.1366,-0.8867,0,0,0,0.003,0,0,1023
2018,5,1,18,54,26.809,0.3528,-0.2655,-0.1366,-0.8867,0.1,0.6,-0.3,0,-0.001,-0.003,1023
2018,5,1,18,54,26.849,0.3527,-0.2656,-0.1368,-0.8867,0.2,0.7,-0.3,0,-0.001,-0.006,0
2018,5,1,18,54,26.868,0.3526,-0.2658,-0.1369,-0.8866,0.1,0.7,-0.2,0.001,-0.005,-0.004,0
2018,5,1,18,54,26.872,0.3527,-0.2659,-0.1369,-0.8866,0.4,0.6,-0.2,-0.001,0,0.001,0
2018,5,1,18,54,26.892,0.3524,-0.2661,-0.1373,-0.8865,0.1,0.7,-0.1,0.002,0.001,-0.005,0
2018,5,1,18,54,26.909,0.3523,-0.2663,-0.1374,-0.8865,0.3,0.5,-0.3,0,0.002,-0.006,0
2018,5,1,18,54,26.948,0.3524,-0.2663,-0.1374,-0.8865,0,0,0,0,0.002,-0.007,0
2018,5,1,18,54,26.968,0.3523,-0.2664,-0.1375,-0.8865,0.2,0.5,-0.5,0,0,-0.008,0
2018,5,1,18,54,26.972,0.3526,-0.2664,-0.1374,-0.8864,0.3,0.4,-0.5,0.001,0,-0.002,0
2018,5,1,18,54,27.012,0.3526,-0.2664,-0.1375,-0.8864,0.4,0.4,-0.5,0.001,0.001,-0.001,0
2018,5,1,18,54,27.016,0.3526,-0.2664,-0.1375,-0.8864,0,0,0,0,0.003,-0.006,0
2018,5,1,18,54,27.031,0.3526,-0.2664,-0.1375,-0.8864,0,0,0,0.004,0.002,-0.002,0
2018,5,1,18,54,27.05,0.3526,-0.2664,-0.1375,-0.8863,0,0,0,0.004,0.002,-0.003,0
2018,5,1,18,54,27.073,0.3526,-0.2666,-0.1375,-0.8863,-0.6,0.4,-0.5,0,0.002,-0.007,0
2018,5,1,18,54,27.093,0.3527,-0.2667,-0.1374,-0.8863,-0.4,0.4,-0.6,0.002,-0.001,-0.004,0
2018,5,1,18,54,27.112,0.3529,-0.2667,-0.1371,-0.8862,-0.7,0.3,-0.7,0,-0.002,-0.004,0
2018,5,1,18,54,27.133,0.3531,-0.2667,-0.1368,-0.8862,-0.9,-0.3,-0.5,0,-0.001,-0.005,0
2018,5,1,18,54,27.154,0.3531,-0.2668,-0.1367,-0.8862,-0.6,-0.1,-0.6,0.001,0.002,0,0
2018,5,1,18,54,27.192,0.353,-0.2668,-0.1367,-0.8862,-0.4,0.3,-0.5,0.002,0,0,0
2018,5,1,18,54,27.212,0.3531,-0.2669,-0.1367,-0.8861,0.1,0.8,-0.5,0.001,0,0.001,0
2018,5,1,18,54,27.217,0.3529,-0.2671,-0.1369,-0.8861,0.1,0.7,-0.3,0.002,-0.002,-0.001,0
2018,5,1,18,54,27.233,0.353,-0.2673,-0.137,-0.886,0.9,1,-0.3,0,0,-0.007,0
2018,5,1,18,54,27.268,0.3532,-0.2674,-0.1371,-0.8859,0.8,1.2,-0.2,-0.001,0,-0.005,0
2018,5,1,18,54,27.288,0.3532,-0.2676,-0.1373,-0.8858,0.5,0.9,-0.2,-0.003,-0.001,-0.004,0
2018,5,1,18,54,27.293,0.3534,-0.2676,-0.1373,-0.8857,0.5,0.6,-0.3,-0.003,0,-0.004,0
2018,5,1,18,54,27.313,0.3532,-0.2679,-0.1376,-0.8857,0.4,0.5,-0.3,0.001,0.003,-0.01,1023
2018,5,1,18,54,27.333,0.3532,-0.2679,-0.1377,-0.8856,0.3,0.1,-0.5,0,0.002,-0.008,1023
2018,5,1,18,54,27.37,0.3534,-0.2679,-0.1377,-0.8856,0,0,-0.5,0,0.001,-0.007,1023
2018,5,1,18,54,27.391,0.3535,-0.2678,-0.1376,-0.8855,0,-0.5,-0.4,0.004,0.006,0,1023
2018,5,1,18,54,27.395,0.3535,-0.2678,-0.1376,-0.8856,0,0,0,0,-0.002,-0.005,1023
2018,5,1,18,54,27.416,0.3535,-0.2678,-0.1375,-0.8856,0,0,0,0.004,-0.001,-0.005,1023
2018,5,1,18,54,27.433,0.3535,-0.2678,-0.1374,-0.8856,-0.8,-0.1,-0.2,0,0.001,-0.002,1023
2018,5,1,18,54,27.476,0.3535,-0.2678,-0.1373,-0.8856,0,0,0,0.001,0.003,-0.003,1023
2018,5,1,18,54,27.495,0.3536,-0.2678,-0.1372,-0.8856,0,0.6,-0.3,0.001,-0.001,0.005,1023
2018,5,1,18,54,27.5,0.3535,-0.2679,-0.1374,-0.8856,0,0.7,-0.4,0.002,-0.001,-0.002,1023
2018,5,1,18,54,27.514,0.3536,-0.268,-0.1374,-0.8855,0.1,0.8,-0.3,0.004,0.002,-0.003,1023
2018,5,1,18,54,27.553,0.3537,-0.2681,-0.1374,-0.8854,0.1,0.7,-0.5,0.003,0.005,-0.001,1023
2018,5,1,18,54,27.573,0.3539,-0.2682,-0.1374,-0.8853,0.3,0.8,-0.6,0,0.002,-0.003,1023
2018,5,1,18,54,27.577,0.3539,-0.2684,-0.1375,-0.8852,0.1,0.9,-0.7,0,0.002,-0.01,1023
2018,5,1,18,54,27.598,0.3539,-0.2686,-0.1376,-0.8852,0,0.6,-0.6,-0.001,-0.001,-0.008,1023
2018,5,1,18,54,27.616,0.3542,-0.2687,-0.1375,-0.8851,0,0.4,-0.5,0,0,-0.007,1023
2018,5,1,18,54,27.639,0.354,-0.2688,-0.1377,-0.885,0,0,0,0,-0.002,-0.01,1023
2018,5,1,18,54,27.658,0.3539,-0.2689,-0.1378,-0.885,-0.4,-0.2,-0.5,0,0.001,-0.005,1023
2018,5,1,18,54,27.678,0.354,-0.2689,-0.1377,-0.885,0,0,0,0.001,0,0,1023
2018,5,1,18,54,27.717,0.354,-0.2689,-0.1376,-0.885,0,0,0,0.002,-0.001,-0.006,1023
2018,5,1,18,54,27.736,0.3539,-0.269,-0.1377,-0.885,0,0,0,0.001,0,-0.002,0
2018,5,1,18,54,27.741,0.3539,-0.269,-0.1376,-0.885,0,0,0,0.005,-0.002,-0.001,0
2018,5,1,18,54,27.76,0.3539,-0.269,-0.1376,-0.885,0,0,0,0,-0.002,0.001,0
2018,5,1,18,54,27.798,0.354,-0.269,-0.1376,-0.885,0,0,0,0,-0.002,-0.003,0
2018,5,1,18,54,27.802,0.354,-0.2691,-0.1376,-0.885,0,0,0,0,0,-0.002,0
2018,5,1,18,54,27.819,0.354,-0.2691,-0.1375,-0.885,0,0,0,0.001,-0.001,-0.008,0
2018,5,1,18,54,27.839,0.354,-0.2692,-0.1376,-0.885,0,0,0,0,0,-0.002,0
2018,5,1,18,54,27.859,0.3539,-0.2693,-0.1377,-0.8849,0.3,0.6,-0.2,0,0,-0.004,0
2018,5,1,18,54,27.895,0.3539,-0.2694,-0.1378,-0.8849,0.4,0.5,0,0.001,0.002,-0.002,0
2018,5,1,18,54,27.916,0.3538,-0.2694,-0.1379,-0.8849,0.3,0.5,0,-0.002,0.001,-0.004,0
2018,5,1,18,54,27.92,0.3538,-0.2694,-0.138,-0.8849,0,0,0,0,0.001,-0.007,0
2018,5,1,18,54,27.941,0.3538,-0.2695,-0.138,-0.8849,0,0,0,-0.001,0.002,-0.004,0
2018,5,1,18,54,27.962,0.3537,-0.2695,-0.1381,-0.8849,0,0,0,0,0.005,-0.004,0
2018,5,1,18,54,27.982,0.3537,-0.2696,-0.1381,-0.8849,0,0,0,-0.003,0,-0.006,0
2018,5,1,18,54,27.997,0.3538,-0.2697,-0.1381,-0.8848,0.1,0.5,-0.3,0,0,-0.004,0
2018,5,1,18,54,28.018,0.3538,-0.2698,-0.1381,-0.8848,-0.3,0.5,-0.3,0.004,0.001,-0.007,0
2018,5,1,18,54,28.041,0.3538,-0.2699,-0.1381,-0.8847,-0.6,0,-0.5,0,-0.003,0,0
2018,5,1,18,54,28.06,0.3538,-0.2699,-0.1381,-0.8847,0,0,0,-0.002,0,-0.004,0
2018,5,1,18,54,28.081,0.3538,-0.2699,-0.1381,-0.8847,0,0,0,0,0.003,-0.004,0
2018,5,1,18,54,28.1,0.3538,-0.2699,-0.1381,-0.8847,0,0,0,0,0.003,0.004,0
2018,5,1,18,54,28.121,0.3538,-0.2699,-0.138,-0.8847,0.4,0.5,-0.4,0.001,0.001,-0.003,0
2018,5,1,18,54,28.14,0.3538,-0.2699,-0.1381,-0.8847,0,0,0,0,0,-0.003,0
2018,5,1,18,54,28.16,0.3538,-0.2699,-0.1381,-0.8847,0,0,0,0,-0.004,-0.01,0
2018,5,1,18,54,28.182,0.3538,-0.27,-0.138,-0.8847,0,0,0,-0.005,-0.002,-0.006,1023
2018,5,1,18,54,28.204,0.3538,-0.27,-0.1381,-0.8847,0,0,0,0,0,-0.008,1023
2018,5,1,18,54,28.222,0.3538,-0.2701,-0.1381,-0.8847,0,0,0,-0.005,0,-0.009,1023
2018,5,1,18,54,28.243,0.3538,-0.2701,-0.1381,-0.8846,0,0,0,0.001,-0.001,-0.007,1023
2018,5,1,18,54,28.262,0.3538,-0.2701,-0.1381,-0.8846,0,0,0,0.003,0,-0.005,1023
2018,5,1,18,54,28.28,0.3538,-0.2701,-0.1381,-0.8847,0,0,0,0.005,0.004,0,1023
2018,5,1,18,54,28.319,0.3538,-0.2701,-0.1381,-0.8847,0,0,0,0.001,0.003,-0.004,1023
2018,5,1,18,54,28.338,0.3538,-0.27,-0.138,-0.8847,-0.1,-0.7,0,0.003,-0.003,-0.002,1023
2018,5,1,18,54,28.343,0.3536,-0.27,-0.1381,-0.8848,-0.3,-0.6,0.1,0.001,-0.001,-0.005,1023
2018,5,1,18,54,28.381,0.3534,-0.27,-0.1381,-0.8848,-0.6,-0.5,0.1,0.001,0.001,-0.005,1023
2018,5,1,18,54,28.402,0.3534,-0.27,-0.1381,-0.8848,0,0,0,0,0.001,0,1023
2018,5,1,18,54,28.406,0.3534,-0.27,-0.138,-0.8849,0,0,0,0.003,-0.001,-0.001,1023
2018,5,1,18,54,28.423,0.3534,-0.27,-0.138,-0.8849,0,0,0,0.001,0,-0.004,1023
2018,5,1,18,54,28.461,0.3534,-0.27,-0.138,-0.8849,0,0,0,0.002,0.002,-0.001,1023
2018,5,1,18,54,28.481,0.3534,-0.27,-0.138,-0.8849,0,0,0,0.002,0.002,-0.005,1023
2018,5,1,18,54,28.485,0.3534,-0.27,-0.138,-0.8849,0,0,0,-0.002,0.004,-0.003,1023
2018,5,1,18,54,28.525,0.3534,-0.27,-0.138,-0.8849,0,0,0,0,0.003,-0.01,1023
2018,5,1,18,54,28.546,0.3534,-0.27,-0.138,-0.8848,0,0,0,0,-0.001,-0.007,1023
2018,5,1,18,54,28.55,0.3534,-0.2701,-0.138,-0.8848,0.1,-0.5,0,0,0.001,-0.007,1023
2018,5,1,18,54,28.566,0.3534,-0.27,-0.138,-0.8849,-0.1,-0.6,0,-0.002,0,-0.007,1023
2018,5,1,18,54,28.584,0.3533,-0.27,-0.138,-0.8849,-0.1,-0.8,0.1,0,0.002,-0.004,1023
2018,5,1,18,54,28.624,0.3533,-0.2699,-0.1379,-0.885,-0.4,-0.8,0,0.003,0.003,-0.003,1023
2018,5,1,18,54,28.643,0.3533,-0.2698,-0.1378,-0.885,-0.2,-0.5,-0.3,0.007,0,0,1023
2018,5,1,18,54,28.648,0.3532,-0.2698,-0.1378,-0.885,0,0,0,0.005,0,-0.001,1023
2018,5,1,18,54,28.666,0.3532,-0.2697,-0.1378,-0.8851,0,0,0,0,-0.002,-0.001,1023
2018,5,1,18,54,28.685,0.3532,-0.2697,-0.1378,-0.8851,0,0,0,0.003,0,-0.003,1023
2018,5,1,18,54,28.723,0.3532,-0.2697,-0.1377,-0.8851,0,0,0,0.003,0,-0.003,1023
2018,5,1,18,54,28.743,0.3532,-0.2697,-0.1377,-0.8851,0,0,0,0,-0.001,0,1023
2018,5,1,18,54,28.747,0.3533,-0.2697,-0.1377,-0.8851,0,0,0,0,-0.001,-0.003,1023
2018,5,1,18,54,28.785,0.3533,-0.2698,-0.1377,-0.8851,0,0,0,0.001,0.002,-0.007,1023
2018,5,1,18,54,28.805,0.3533,-0.2698,-0.1377,-0.8851,0,0,0,0.002,0.002,0,0
2018,5,1,18,54,28.809,0.3533,-0.2698,-0.1377,-0.8851,0,0,0,0,0.002,-0.003,0
2018,5,1,18,54,28.838,0.3533,-0.2697,-0.1377,-0.8851,0,0,0,0.002,0.002,-0.004,0
2018,5,1,18,54,28.85,0.3532,-0.2697,-0.1377,-0.8851,0,0,0,-0.001,0.004,-0.004,0
2018,5,1,18,54,28.866,0.3532,-0.2697,-0.1377,-0.8851,0,0,0,-0.002,0.005,-0.002,0
2018,5,1,18,54,28.885,0.3532,-0.2697,-0.1378,-0.8851,0,0,0,-0.002,0.002,-0.005,0
2018,5,1,18,54,28.924,0.3532,-0.2697,-0.1378,-0.8851,0,0,0,0.005,0,-0.009,0
2018,5,1,18,54,28.946,0.3533,-0.2697,-0.1377,-0.8851,-0.2,-0.7,-0.2,0.001,-0.006,-0.002,0
2018,5,1,18,54,28.95,0.3533,-0.2696,-0.1375,-0.8851,-0.7,-1.3,0,0.002,-0.004,0,0
2018,5,1,18,54,28.97,0.3532,-0.2695,-0.1373,-0.8852,-0.9,-1.2,0,0.003,0,-0.008,0
2018,5,1,18,54,28.99,0.353,-0.2695,-0.1373,-0.8853,-0.7,-0.7,0,0.001,0.003,-0.002,0
2018,5,1,18,54,29.01,0.3531,-0.2694,-0.1372,-0.8853,0,0,0,0.005,0,0.007,0
2018,5,1,18,54,29.047,0.3531,-0.2694,-0.1371,-0.8853,0,0,0,0.002,-0.001,0,0
2018,5,1,18,54,29.067,0.3531,-0.2694,-0.1371,-0.8853,0,0,0,0.001,-0.001,-0.01,0
2018,5,1,18,54,29.071,0.353,-0.2694,-0.1373,-0.8853,0.6,0,-0.1,0.002,0.001,-0.007,0
2018,5,1,18,54,29.087,0.353,-0.2694,-0.1374,-0.8853,0.5,0,0.1,-0.003,0.003,-0.006,0
2018,5,1,18,54,29.126,0.3531,-0.2694,-0.1374,-0.8853,0,0,0,-0.004,-0.003,-0.003,0
2018,5,1,18,54,29.145,0.3531,-0.2694,-0.1375,-0.8853,0.5,-0.1,0,-0.003,0,-0.005,0
2018,5,1,18,54,29.149,0.3532,-0.2693,-0.1375,-0.8852,0.5,-0.3,-0.1,0.002,0,-0.001,0
2018,5,1,18,54,29.187,0.3532,-0.2693,-0.1375,-0.8853,0,-0.7,-0.2,0.005,0.002,-0.006,0
2018,5,1,18,54,29.207,0.3532,-0.2692,-0.1375,-0.8853,0,-0.8,-0.2,0.005,0.007,0,0
2018,5,1,18,54,29.211,0.3531,-0.269,-0.1375,-0.8854,-0.3,-1,0.1,0.005,0.002,0.001,1023
2018,5,1,18,54,29.231,0.3531,-0.2688,-0.1374,-0.8854,-0.6,-1.3,0.1,0.001,-0.002,-0.007,1023
2018,5,1,18,54,29.251,0.3531,-0.2687,-0.1372,-0.8855,-0.8,-1.2,0.1,0.001,-0.003,-0.001,1023
2018,5,1,18,54,29.289,0.3531,-0.2686,-0.137,-0.8856,-0.6,-0.6,0.1,0.001,0.003,-0.005,1023
2018,5,1,18,54,29.311,0.3531,-0.2685,-0.1368,-0.8856,0,0,0,0.001,0.001,0.003,1023
2018,5,1,18,54,29.315,0.3531,-0.2684,-0.1368,-0.8856,0,0,0,0.006,0.002,0,0
2018,5,1,18,54,29.351,0.3531,-0.2684,-0.1368,-0.8857,0,0,0,0.004,0.002,0.001,0
2018,5,1,18,54,29.355,0.3531,-0.2683,-0.1368,-0.8857,0,0,0,0.002,0.001,-0.007,0
2018,5,1,18,54,29.372,0.3531,-0.2684,-0.1368,-0.8857,0,0,0,0.001,0.003,-0.002,0
2018,5,1,18,54,29.41,0.3531,-0.2684,-0.1368,-0.8857,0,0,0,0.001,0.005,-0.012,0
2018,5,1,18,54,29.43,0.3531,-0.2684,-0.1368,-0.8856,0,0,0,-0.003,0.002,-0.012,0
2018,5,1,18,54,29.434,0.3531,-0.2685,-0.1369,-0.8856,-0.1,-0.9,-0.2,-0.003,-0.002,-0.008,0
2018,5,1,18,54,29.451,0.3532,-0.2684,-0.1367,-0.8856,0,-1.2,0,-0.006,-0.008,-0.011,0
2018,5,1,18,54,29.472,0.3532,-0.2682,-0.1366,-0.8857,-0.2,-1.4,0.5,-0.003,-0.008,-0.007,1023
2018,5,1,18,54,29.512,0.3531,-0.268,-0.1364,-0.8858,-0.4,-1.7,0.9,0.001,-0.001,-0.008,1023
2018,5,1,18,54,29.53,0.3527,-0.2679,-0.1365,-0.886,-0.2,-2,1.5,0.003,0.002,-0.008,1023
2018,5,1,18,54,29.534,0.3524,-0.2676,-0.1366,-0.8862,0.4,-1.9,1.7,0.004,0.003,-0.011,1023
2018,5,1,18,54,29.572,0.3522,-0.267,-0.1366,-0.8865,1.4,-3,3,0,-0.002,-0.006,1023
2018,5,1,18,54,29.593,0.3518,-0.2663,-0.1368,-0.8868,2.6,-5.1,5.2,0.006,-0.018,-0.017,1023
2018,5,1,18,54,29.598,0.3512,-0.2651,-0.1371,-0.8874,5,-7.5,8.2,-0.005,-0.026,-0.033,1023
2018,5,1,18,54,29.613,0.3501,-0.2636,-0.1377,-0.8882,4.6,-9.8,12.9,-0.016,-0.042,-0.048,1023
2018,5,1,18,54,29.631,0.3481,-0.2618,-0.1382,-0.8894,5.6,-12.9,18.2,-0.02,-0.043,-0.028,1023
2018,5,1,18,54,29.651,0.3454,-0.2589,-0.1396,-0.8911,9.4,-16.2,26.1,-0.044,0.013,-0.001,1023
2018,5,1,18,54,29.673,0.3414,-0.2548,-0.1414,-0.8935,12.6,-21.4,36.9,-0.059,-0.031,0.004,1023
2018,5,1,18,54,29.693,0.3362,-0.2496,-0.1444,-0.8964,21.8,-23.8,49.6,-0.112,-0.049,-0.004,1023
2018,5,1,18,54,29.732,0.3293,-0.2438,-0.1492,-0.8998,28.9,-23.7,61.4,-0.083,-0.092,-0.014,1023
2018,5,1,18,54,29.753,0.321,-0.2368,-0.1565,-0.9035,45.3,-15.4,70.1,-0.104,-0.164,0.012,1023
2018,5,1,18,54,29.757,0.3123,-0.2302,-0.1678,-0.9062,67.9,-2.8,71.8,-0.257,-0.144,0.132,1023
2018,5,1,18,54,29.776,0.3046,-0.2245,-0.183,-0.9073,88.3,11.3,64,-0.281,-0.066,0.129,1023
2018,5,1,18,54,29.793,0.2987,-0.2207,-0.2017,-0.9062,107.8,22.5,54.1,-0.207,0.004,0.114,1023
2018,5,1,18,54,29.831,0.2941,-0.2179,-0.2238,-0.9032,115.2,30.7,50.3,-0.15,0.123,0.018,1023
2018,5,1,18,54,29.851,0.2885,-0.2155,-0.2431,-0.9006,88.1,27.1,53.9,-0.136,0.091,0.035,1023
2018,5,1,18,54,29.858,0.2821,-0.2128,-0.2619,-0.898,112.2,26.9,61.6,-0.14,-0.038,-0.026,1023
2018,5,1,18,54,29.878,0.2748,-0.2089,-0.2848,-0.8942,119.7,31.3,74.4,-0.139,0.07,0.021,0
2018,5,1,18,54,29.898,0.2642,-0.2047,-0.3091,-0.8903,127.6,46.4,91.6,-0.531,0.045,0.088,0
2018,5,1,18,54,29.916,0.2505,-0.2023,-0.3349,-0.8854,119,67.6,98,-0.835,0.016,0.119,0
2018,5,1,18,54,29.935,0.2344,-0.2047,-0.3583,-0.8801,100,99.7,93,-1.002,-0.221,0.103,0
2018,5,1,18,54,29.973,0.2165,-0.2141,-0.3809,-0.873,92.6,147.8,82.8,-1.121,-0.36,0.049,1023
2018,5,1,18,54,29.992,0.1969,-0.2314,-0.4045,-0.8625,104.7,194.3,72.9,-1.229,-0.444,0.026,1023
2018,5,1,18,54,29.996,0.1754,-0.2539,-0.4322,-0.8472,132.4,228.3,78.6,-1.135,-0.443,-0.011,1023
2018,5,1,18,54,30.018,0.1499,-0.2776,-0.4635,-0.8279,140.7,248.5,106.8,-0.985,-0.536,-0.149,1023
2018,5,1,18,54,30.036,0.1169,-0.2998,-0.495,-0.807,119.2,261.6,152.2,-0.856,-0.743,-0.269,1023
2018,5,1,18,54,30.073,0.0716,-0.3191,-0.5195,-0.7893,16.9,269.3,220.4,-0.683,-0.569,-0.311,1023
2018,5,1,18,54,30.093,0.008,-0.3303,-0.5291,-0.7815,-110.1,246.7,313.2,-0.434,-0.811,-0.475,1023
2018,5,1,18,54,30.098,-0.0697,-0.3276,-0.5301,-0.7789,-144.3,213.5,396.3,-0.569,-1.228,-0.626,1023
2018,5,1,18,54,30.12,-0.1539,-0.3123,-0.5318,-0.7719,-128.1,192.3,454.6,-0.656,-1.583,-0.881,1023
2018,5,1,18,54,30.139,-0.2427,-0.289,-0.5316,-0.7582,-158.3,196.7,496.6,-0.647,-1.536,-1.239,1023
2018,5,1,18,54,30.18,-0.3388,-0.2581,-0.52,-0.7403,-237.7,215.2,536.7,-0.796,-1.694,-1.505,0
2018,5,1,18,54,30.2,-0.4407,-0.2194,-0.4933,-0.717,-290.2,240.7,565.9,-0.951,-2.141,-1.754,0
2018,5,1,18,54,30.204,-0.5423,-0.1804,-0.4578,-0.6809,-239.1,285.5,586.8,-1.294,-2.426,-1.756,0
2018,5,1,18,54,30.219,-0.6393,-0.1537,-0.418,-0.6267,-166.7,379.2,574.1,-1.702,-2.038,-1.632,0
2018,5,1,18,54,30.239,-0.7314,-0.1372,-0.3604,-0.5623,-235.1,478.4,545.3,-2.367,-1.549,-1.323,0
2018,5,1,18,54,30.259,-0.8156,-0.1129,-0.2772,-0.4949,-337.2,516.2,538.6,-3.294,-1.875,-1.249,0
2018,5,1,18,54,30.295,-0.8827,-0.0926,-0.1828,-0.4226,-204.1,576,456.8,-3.173,-2.682,-1.279,0
2018,5,1,18,54,30.315,-0.9249,-0.113,-0.0854,-0.3527,24.5,647.7,332.4,-4.218,-1.816,-0.019,0
2018,5,1,18,54,30.319,-0.9472,-0.1471,0.0101,-0.2845,-108.8,590.3,345.3,-4.728,0.308,0.463,0
2018,5,1,18,54,30.357,-0.9656,-0.1192,0.0975,-0.2093,-425.6,402.3,340.9,-3.664,-2.4,0.139,0
2018,5,1,18,54,30.378,-0.9687,-0.0955,0.1638,-0.1598,-9.6,370.9,112.1,-1.838,-2.533,0.202,0
2018,5,1,18,54,30.382,-0.9569,-0.1183,0.2216,-0.1453,-12.1,323.5,46.5,-1.614,0.509,0.225,0
2018,5,1,18,54,30.404,-0.9498,-0.1024,0.2678,-0.1247,-230.4,256.5,38.8,-0.118,0.151,0.661,0
2018,5,1,18,54,30.422,-0.975,0.0314,0.1833,-0.1212,-32,-557.3,-507.9,0.165,-1.112,-14.084,0
2018,5,1,18,54,30.457,-0.9757,0.0628,0.1081,-0.1795,-215.2,-471.5,-205.7,-0.044,0.784,4.834,0
2018,5,1,18,54,30.479,-0.9753,0.1076,0.0526,-0.1851,-148.2,-239.5,-32.3,0.826,-0.633,1.43,0
2018,5,1,18,54,30.483,-0.9695,0.1673,0.0252,-0.1769,-440.4,-198.3,40.2,1.886,1.719,0.752,0
2018,5,1,18,54,30.501,-0.9589,0.2328,0.0045,-0.1619,-210.7,-190.2,29.4,-0.039,-0.252,-0.047,0
2018,5,1,18,54,30.523,-0.9549,0.253,-0.0181,-0.154,-39,-123.1,6.7,-0.806,0.824,-0.029,0
2018,5,1,18,54,30.542,-0.9543,0.2566,-0.0352,-0.1486,30.3,-86.8,-18.5,-0.679,-0.575,0.148,0
2018,5,1,18,54,30.561,-0.9547,0.2505,-0.049,-0.1522,28.9,-54,-61.6,0.053,-0.124,-0.004,0
2018,5,1,18,54,30.582,-0.9538,0.2462,-0.0614,-0.1601,67.2,-53.6,-54.7,-0.045,-0.347,0.001,0
2018,5,1,18,54,30.602,-0.9555,0.2339,-0.0761,-0.1626,54,-84.3,-15.2,0.038,0.445,0.244,0
2018,5,1,18,54,30.62,-0.9526,0.2442,-0.092,-0.156,-131,-118.8,42.9,0.202,0.207,0.039,0
2018,5,1,18,54,30.658,-0.9452,0.2727,-0.1064,-0.144,-109.3,-125,58.5,0.181,-0.298,-0.291,0
2018,5,1,18,54,30.679,-0.9424,0.284,-0.122,-0.1276,-4.2,-123.1,78,-0.674,0.307,-0.074,0
2018,5,1,18,54,30.683,-0.9403,0.2922,-0.1365,-0.1079,-60.2,-108.9,93,-0.512,0.276,-0.392,0
2018,5,1,18,54,30.7,-0.9349,0.3103,-0.1461,-0.0902,-101.5,-85.3,85.7,-0.357,-0.023,-0.186,0
2018,5,1,18,54,30.722,-0.9275,0.333,-0.152,-0.0743,-122.5,-71.5,96.1,-0.03,0.055,-0.137,0
2018,5,1,18,54,30.741,-0.9182,0.3594,-0.1561,-0.0567,-174.3,-76.7,108.8,-0.636,0.095,-0.155,1023
2018,5,1,18,54,30.779,-0.9031,0.3969,-0.1586,-0.0401,-250.1,-70.1,116.2,-0.391,0.226,-0.411,1023
2018,5,1,18,54,30.801,-0.8832,0.4407,-0.1579,-0.0252,-244.1,-47.4,106.3,0.091,-0.073,-0.251,1023
2018,5,1,18,54,30.805,-0.8635,0.4795,-0.1552,-0.0117,-208.8,-45.3,105.6,-0.337,0.019,-0.147,1023
2018,5,1,18,54,30.822,-0.8463,0.5101,-0.1533,0.0024,-175.9,-46.8,98,-0.277,-0.013,-0.344,1023
2018,5,1,18,54,30.842,-0.8284,0.5392,-0.1506,0.0153,-185.3,-33.3,96.3,-0.125,0.047,-0.309,1023
2018,5,1,18,54,30.88,-0.8091,0.5685,-0.1461,0.027,-190.2,-26.5,98.3,-0.139,0.075,-0.227,1023
2018,5,1,18,54,30.883,-0.788,0.598,-0.1406,0.0386,-199.9,-24.2,98.8,-0.232,0.099,-0.236,1023
2018,5,1,18,54,30.9,-0.7649,0.6277,-0.1351,0.0496,-203.8,-24.2,97.1,-0.228,-0.038,-0.275,1023
2018,5,1,18,54,30.939,-0.7414,0.6557,-0.1294,0.06,-191.2,-20.5,91.3,-0.132,-0.207,-0.262,1023
2018,5,1,18,54,30.959,-0.7186,0.6807,-0.1239,0.0687,-172.9,-12.9,74,0.086,-0.555,-0.327,1023
2018,5,1,18,54,30.963,-0.7014,0.6988,-0.1198,0.0719,-114.8,2.3,22.4,0.062,-1.006,-0.308,1023
2018,5,1,18,54,31.001,-0.6875,0.7123,-0.1216,0.0704,-97,-11.9,-13.4,0.009,-0.171,-0.078,0
2018,5,1,18,54,31.021,-0.6777,0.7211,-0.1268,0.0674,-42.9,-7.6,-23.3,0.164,-0.234,-0.092,0
2018,5,1,18,54,31.025,-0.6771,0.7213,-0.1304,0.0646,24,2.3,-20,-0.02,0.156,-0.064,0
2018,5,1,18,54,31.045,-0.6801,0.7185,-0.131,0.0627,21.6,9,-5.6,0.032,0.269,0,0
2018,5,1,18,54,31.067,-0.683,0.7165,-0.127,0.0624,-15,5.3,19,0.107,0.244,0.037,0
2018,5,1,18,54,31.085,-0.6782,0.7213,-0.1248,0.0639,-50.4,-3.1,18.5,0.185,-0.062,-0.097,0
2018,5,1,18,54,31.105,-0.673,0.7263,-0.1234,0.0647,-20.2,1.7,10.4,0.054,-0.339,-0.112,0
2018,5,1,18,54,31.123,-0.6704,0.7287,-0.1237,0.0642,-24.1,-0.7,-7.4,0.008,-0.056,-0.029,0
2018,5,1,18,54,31.145,-0.6656,0.733,-0.1248,0.063,-53.8,-1.2,-8.4,-0.126,0.115,0.057,0
2018,5,1,18,54,31.164,-0.6568,0.7407,-0.1261,0.0616,-78.7,-2.1,-4.4,-0.113,0.119,0.026,0
2018,5,1,18,54,31.185,-0.647,0.7493,-0.1266,0.0608,-59,0.1,0.1,-0.1,-0.037,-0.033,0
2018,5,1,18,54,31.206,-0.6429,0.753,-0.1258,0.0606,-7.6,5.3,3,-0.073,-0.031,0.011,0
2018,5,1,18,54,31.225,-0.6439,0.7524,-0.124,0.0608,11.5,6.7,4.5,-0.03,0.024,0.06,0
2018,5,1,18,54,31.265,-0.6457,0.7511,-0.1225,0.0609,3.9,4.5,5.5,0.032,0.002,0.096,0
2018,5,1,18,54,31.269,-0.6463,0.7508,-0.1216,0.0611,-6.7,-0.5,4.6,0.021,-0.018,0.087,0
2018,5,1,18,54,31.286,-0.6454,0.7514,-0.1219,0.0614,-9.6,-3.9,0.5,0.049,-0.062,0.029,0
2018,5,1,18,54,31.325,-0.6445,0.7521,-0.1228,0.0613,-6.6,-3.9,-1.6,0.023,0.045,0.023,0
2018,5,1,18,54,31.345,-0.6435,0.7528,-0.1235,0.0616,-8,-4,0.1,-0.001,0.045,0.016,0
2018,5,1,18,54,31.349,-0.6423,0.7537,-0.1236,0.0622,-8.2,-2.5,2.3,-0.046,0.045,0.011,0
2018,5,1,18,54,31.364,-0.6408,0.755,-0.1232,0.0631,-13.3,-1.8,3.5,-0.056,0.007,0.004,0
2018,5,1,18,54,31.402,-0.6384,0.7571,-0.1228,0.0636,-21.8,-1,1.3,-0.047,-0.01,-0.003,0
2018,5,1,18,54,31.423,-0.6345,0.7603,-0.1228,0.0635,-33.2,0,-0.9,-0.043,-0.006,-0.006,0
2018,5,1,18,54,31.427,-0.6298,0.7642,-0.1232,0.0627,-34.3,0.9,-2.7,-0.027,0,-0.002,0
2018,5,1,18,54,31.447,-0.6256,0.7677,-0.1237,0.0617,-27.7,1.6,-2.2,-0.004,0.012,0,0
2018,5,1,18,54,31.466,-0.6228,0.77,-0.1239,0.0608,-15.4,2.1,-0.8,0.021,0.012,-0.01,1023
2018,5,1,18,54,31.504,-0.6209,0.7716,-0.1239,0.06,-12.8,3.2,-0.2,-0.004,0.016,-0.006,1023
2018,5,1,18,54,31.525,-0.6193,0.773,-0.1236,0.0594,-10.1,3.1,-0.5,-0.035,-0.004,-0.012,1023
2018,5,1,18,54,31.529,-0.6181,0.774,-0.1232,0.0592,-6.6,2.1,-0.8,-0.04,0.008,-0.011,1023
2018,5,1,18,54,31.548,-0.6174,0.7747,-0.1228,0.0591,-2,2,0.1,-0.038,0.021,-0.005,1023
2018,5,1,18,54,31.568,-0.6172,0.7749,-0.1223,0.0591,0.7,2,1.1,-0.023,0.021,-0.013,1023
2018,5,1,18,54,31.607,-0.6171,0.775,-0.1218,0.0591,0,2.6,1.7,-0.01,0.008,-0.01,1023
2018,5,1,18,54,31.611,-0.6171,0.7751,-0.1213,0.0588,-0.1,3,1.3,0.01,0,0.001,1023
2018,5,1,18,54,31.629,-0.6171,0.7752,-0.1209,0.0584,-0.9,2.9,0.5,0.025,0.002,0.009,1023
2018,5,1,18,54,31.647,-0.6172,0.7752,-0.1206,0.058,0,2.4,0.3,0.017,0.008,0.016,1023
2018,5,1,18,54,31.669,-0.6174,0.7751,-0.1203,0.0577,0.9,1.4,0.3,0.006,0.013,0.016,1023
2018,5,1,18,54,31.689,-0.6177,0.7749,-0.1201,0.0576,1.1,1.1,0.2,0.007,0.012,0.014,1023
2018,5,1,18,54,31.708,-0.6178,0.7749,-0.12,0.0575,-1.5,0.7,0,0.001,0.012,0.019,1023
2018,5,1,18,54,31.734,-0.6178,0.7749,-0.1199,0.0576,-0.8,-1.2,0.7,0.01,0.015,0.011,1023
2018,5,1,18,54,31.746,-0.6176,0.775,-0.1201,0.0576,-2,-0.7,-0.2,-0.001,0.012,0.007,1023
2018,5,1,18,54,31.782,-0.6172,0.7753,-0.1202,0.0577,-4.4,-0.3,-0.6,-0.014,0.014,0.008,0
2018,5,1,18,54,31.803,-0.6165,0.7759,-0.1203,0.0577,-6.4,-0.4,-0.8,-0.017,0.009,0.004,0
2018,5,1,18,54,31.812,-0.6155,0.7766,-0.1204,0.0577,-6.5,-0.7,-1.1,-0.02,0.006,0.006,0
2018,5,1,18,54,31.848,-0.6148,0.7772,-0.1206,0.0577,-3.9,-1.2,-0.9,-0.013,0.009,-0.003,0
2018,5,1,18,54,31.87,-0.6146,0.7773,-0.1208,0.0579,1.7,-1.4,-0.4,-0.012,0.013,-0.008,0
2018,5,1,18,54,31.874,-0.6149,0.777,-0.1208,0.0581,3.9,0,-0.2,-0.006,0.015,-0.004,0
2018,5,1,18,54,31.889,-0.6153,0.7767,-0.1207,0.0582,3.1,0.6,0.1,-0.003,0.009,0.004,0
2018,5,1,18,54,31.926,-0.6157,0.7764,-0.1205,0.0582,2.2,0.8,0,-0.008,0.008,0.007,0
2018,5,1,18,54,31.946,-0.6161,0.7761,-0.1204,0.0583,2.3,0.3,0,-0.008,0.012,0.017,0
2018,5,1,18,54,31.95,-0.6164,0.7759,-0.1203,0.0584,0.7,0,0,-0.012,0.02,0.014,0
2018,5,1,18,54,31.971,-0.6164,0.7759,-0.1202,0.0585,0,0,0,-0.009,0.01,0.015,0
2018,5,1,18,54,31.991,-0.6165,0.7758,-0.1201,0.0586,0,0,0,-0.005,0.008,0.012,0
2018,5,1,18,54,32.031,-0.6164,0.7759,-0.1201,0.0587,-0.3,-0.7,0,-0.002,0.009,0.004,0
2018,5,1,18,54,32.05,-0.6164,0.7759,-0.1202,0.0589,0.3,-0.7,0.1,-0.003,0.014,-0.002,0
2018,5,1,18,54,32.054,-0.6164,0.7759,-0.1202,0.059,0,0,0,-0.003,0.014,0.003,0
2018,5,1,18,54,32.094,-0.6164,0.7759,-0.1202,0.059,0,0,0,-0.005,0.009,0,0
2018,5,1,18,54,32.098,-0.6164,0.7759,-0.1201,0.0591,0.7,-0.2,0,0.001,0.01,0.002,0
2018,5,1,18,54,32.113,-0.6165,0.7758,-0.1201,0.0592,0,0,0,-0.001,0.015,0.001,0
2018,5,1,18,54,32.132,-0.6165,0.7758,-0.1201,0.0592,0,0,0,-0.002,0.012,0.006,0
2018,5,1,18,54,32.15,-0.6165,0.7758,-0.1201,0.0592,0.1,-0.5,0,0,0.013,0.005,0
2018,5,1,18,54,32.173,-0.6165,0.7758,-0.1201,0.0593,0.7,-0.1,0,-0.005,0.015,0.007,0
2018,5,1,18,54,32.193,-0.6167,0.7756,-0.12,0.0594,2.5,-0.1,0.2,-0.001,0.015,0.001,1023
2018,5,1,18,54,32.213,-0.6171,0.7753,-0.12,0.0595,1.9,-0.2,0,-0.005,0.013,-0.002,1023
2018,5,1,18,54,32.233,-0.6173,0.7751,-0.12,0.0595,1.4,0.4,-0.2,-0.003,0.011,0.007,1023
2018,5,1,18,54,32.255,-0.6174,0.7751,-0.1199,0.0596,0,0,0,-0.004,0.011,0.01,1023
2018,5,1,18,54,32.275,-0.6174,0.775,-0.1199,0.0596,-1,-0.1,0,-0.003,0.014,0.013,1023
2018,5,1,18,54,32.296,-0.6174,0.7751,-0.1199,0.0597,-0.2,-0.6,0.5,0,0.011,0.005,1023
2018,5,1,18,54,32.313,-0.6174,0.7751,-0.1199,0.0598,0.7,-0.3,0.5,0.001,0.007,-0.004,1023
2018,5,1,18,54,32.335,-0.6175,0.775,-0.1198,0.0599,0.5,0.3,0.1,-0.009,0.011,0,1023
2018,5,1,18,54,32.356,-0.6175,0.775,-0.1197,0.06,0,0.7,0,-0.006,0.007,0,1023
2018,5,1,18,54,32.374,-0.6175,0.775,-0.1196,0.0599,-0.1,0.7,-0.2,-0.004,0.012,0.01,1023
2018,5,1,18,54,32.395,-0.6174,0.7751,-0.1195,0.0598,-1.3,0.6,0,0,0.012,0.009,1023
2018,5,1,18,54,32.43,-0.6172,0.7753,-0.1195,0.0597,-2.7,0.3,-0.3,-0.004,0.015,0.006,1023
2018,5,1,18,54,32.453,-0.6168,0.7756,-0.1195,0.0597,-2.3,-0.5,0,-0.008,0.01,0.007,1023
2018,5,1,18,54,32.457,-0.6166,0.7757,-0.1195,0.0598,-0.8,-0.5,0,-0.003,0.011,0.001,1023
2018,5,1,18,54,32.476,-0.6165,0.7758,-0.1195,0.0599,-0.7,0,0,-0.004,0.009,-0.002,1023
2018,5,1,18,54,32.495,-0.6164,0.7759,-0.1194,0.06,0,0,0,-0.004,0.011,-0.001,1023
2018,5,1,18,54,32.533,-0.6164,0.7759,-0.1194,0.06,0,0,0,-0.002,0.01,0,0
2018,5,1,18,54,32.553,-0.6165,0.7758,-0.1194,0.06,1.8,0,-0.1,-0.006,0.014,0.005,0
2018,5,1,18,54,32.557,-0.6169,0.7755,-0.1193,0.0601,2.8,0,0.1,-0.009,0.014,0.004,0
2018,5,1,18,54,32.591,-0.6172,0.7752,-0.1192,0.0603,1.7,0.2,-0.2,-0.007,0.014,0.009,0
2018,5,1,18,54,32.613,-0.6174,0.7751,-0.1192,0.0603,0,0,0,-0.005,0.011,0.012,0
2018,5,1,18,54,32.617,-0.6174,0.7751,-0.1192,0.0603,-1.3,-0.3,-0.2,-0.001,0.014,0.013,0
2018,5,1,18,54,32.634,-0.6171,0.7753,-0.1193,0.0603,-2.6,-0.4,-0.2,-0.003,0.013,0.004,0
2018,5,1,18,54,32.656,-0.6167,0.7756,-0.1193,0.0604,-2.3,-0.7,0.1,-0.005,0.011,0.003,0
2018,5,1,18,54,32.676,-0.6164,0.7759,-0.1194,0.0605,-2.1,-0.3,0,-0.001,0.009,0.001,0
2018,5,1,18,54,32.696,-0.6162,0.776,-0.1194,0.0606,0,-0.5,0.1,-0.003,0.009,-0.001,0
2018,5,1,18,54,32.717,-0.6162,0.776,-0.1194,0.0607,0.9,-0.1,0,-0.007,0.013,-0.003,0
2018,5,1,18,54,32.737,-0.6164,0.7759,-0.1193,0.0607,1.1,0.1,-0.2,-0.007,0.01,0.001,0
2018,5,1,18,54,32.756,-0.6165,0.7758,-0.1193,0.0607,1.1,0.4,-0.2,-0.007,0.009,0.002,0
2018,5,1,18,54,32.777,-0.6167,0.7757,-0.1192,0.0607,0.9,0.1,-0.1,-0.003,0.014,0.005,0
2018,5,1,18,54,32.814,-0.6168,0.7756,-0.1192,0.0607,0.6,-0.1,0.1,-0.002,0.012,0.007,0
2018,5,1,18,54,32.834,-0.6169,0.7755,-0.1192,0.0608,0.6,0,0,-0.004,0.008,0.004,0
2018,5,1,18,54,32.839,-0.617,0.7754,-0.1191,0.0609,0,0,0,-0.005,0.01,0.004,0
2018,5,1,18,54,32.855,-0.617,0.7754,-0.1191,0.0609,0,0,0,-0.003,0.01,0.002,0
2018,5,1,18,54,32.876,-0.617,0.7754,-0.1191,0.061,0.9,-0.2,-0.2,-0.005,0.013,0.004,0
2018,5,1,18,54,32.898,-0.6172,0.7752,-0.1191,0.061,1.7,-0.1,0.1,-0.001,0.01,-0.001,0
2018,5,1,18,54,32.917,-0.6174,0.7751,-0.119,0.0611,1.4,0.3,0.1,-0.003,0.01,0.003,0
2018,5,1,18,54,32.954,-0.6176,0.775,-0.1189,0.0611,0,0,0,-0.004,0.013,0.004,1023
2018,5,1,18,54,32.975,-0.6176,0.7749,-0.1189,0.0611,-0.6,-0.1,0,-0.004,0.011,0.008,1023
2018,5,1,18,54,32.979,-0.6176,0.7749,-0.1189,0.0611,0,0,0,0,0.013,0.003,1023
2018,5,1,18,54,33.018,-0.6176,0.7749,-0.1189,0.0612,0,0,0,-0.001,0.014,0.002,1023
2018,5,1,18,54,33.037,-0.6176,0.775,-0.1189,0.0612,0,0,0,-0.001,0.009,0.001,1023
2018,5,1,18,54,33.041,-0.6176,0.7749,-0.1188,0.0612,0,0,0,-0.003,0.009,0.006,1023
2018,5,1,18,54,33.061,-0.6176,0.775,-0.1188,0.0612,0,0,0,0.003,0.01,0.002,1023
2018,5,1,18,54,33.081,-0.6176,0.7749,-0.1188,0.0612,0.7,-0.1,-0.2,-0.004,0.01,0.002,1023
2018,5,1,18,54,33.102,-0.6177,0.7749,-0.1188,0.0614,0.8,0.1,0.1,-0.01,0.011,0.002,1023
2018,5,1,18,54,33.122,-0.6178,0.7748,-0.1187,0.0614,0.5,0.3,-0.2,-0.006,0.01,-0.002,1023
2018,5,1,18,54,33.138,-0.6179,0.7747,-0.1187,0.0613,0.6,0.4,-0.5,-0.005,0.011,0.002,1023
2018,5,1,18,54,33.176,-0.618,0.7746,-0.1187,0.0613,0.9,0.1,-0.3,0.001,0.014,0.004,1023
2018,5,1,18,54,33.197,-0.6182,0.7745,-0.1187,0.0613,1.2,0.1,0,-0.004,0.014,0.004,1023
2018,5,1,18,54,33.201,-0.6184,0.7743,-0.1186,0.0614,1.4,0,0.2,-0.004,0.014,0.005,1023
2018,5,1,18,54,33.22,-0.6186,0.7742,-0.1185,0.0614,0.9,-0.1,0.1,-0.005,0.01,0.005,1023
2018,5,1,18,54,33.241,-0.6187,0.7741,-0.1185,0.0615,0.6,0,-0.1,-0.006,0.012,0.004,0
2018,5,1,18,54,33.278,-0.6188,0.774,-0.1185,0.0616,0.8,-0.2,-0.2,-0.004,0.012,0.003,0
2018,5,1,18,54,33.297,-0.6189,0.7739,-0.1185,0.0616,0.6,0,-0.2,-0.004,0.014,0.007,0
2018,5,1,18,54,33.301,-0.6189,0.7739,-0.1185,0.0616,0,0,0,-0.001,0.009,0.003,0
2018,5,1,18,54,33.34,-0.6189,0.7739,-0.1185,0.0616,-0.6,-0.1,-0.3,-0.003,0.012,0.002,0
2018,5,1,18,54,33.36,-0.6188,0.774,-0.1186,0.0617,-1.1,-0.2,0,-0.001,0.012,0.005,0
2018,5,1,18,54,33.364,-0.6186,0.7742,-0.1186,0.0617,-1.2,-0.4,0,-0.002,0.013,0,0
2018,5,1,18,54,33.378,-0.6185,0.7743,-0.1186,0.0617,0,0,0,-0.004,0.008,0,0
2018,5,1,18,54,33.4,-0.6184,0.7743,-0.1186,0.0618,0,0,0,-0.005,0.01,0.001,0
2018,5,1,18,54,33.419,-0.6184,0.7743,-0.1186,0.0618,-0.6,0.2,-0.3,-0.004,0.012,0.002,0
2018,5,1,18,54,33.44,-0.6183,0.7744,-0.1186,0.0617,-1.4,0.3,-0.1,-0.002,0.012,0.002,0
2018,5,1,18,54,33.459,-0.6181,0.7746,-0.1186,0.0617,-2.4,0,-0.2,-0.001,0.014,0.006,0
2018,5,1,18,54,33.5,-0.6177,0.7749,-0.1187,0.0616,-4.1,0,-0.5,-0.004,0.012,0.009,0
2018,5,1,18,54,33.522,-0.617,0.7754,-0.1188,0.0615,-6.8,-0.3,-0.6,-0.007,0.017,0.013,0
2018,5,1,18,54,33.526,-0.616,0.7762,-0.1189,0.0614,-7.9,-0.8,-0.4,-0.005,0.017,0.007,0
2018,5,1,18,54,33.543,-0.6151,0.7769,-0.1191,0.0615,-4.5,-1.4,0,-0.003,0.007,-0.004,0
2018,5,1,18,54,33.564,-0.6146,0.7772,-0.1193,0.0616,-0.6,-1.2,-0.2,-0.002,0.008,-0.011,0
2018,5,1,18,54,33.582,-0.6146,0.7772,-0.1194,0.0618,2.3,-0.6,0.1,0.001,0.011,-0.017,0
2018,5,1,18,54,33.62,-0.6149,0.777,-0.1193,0.0618,3.4,0.7,0,-0.001,0.001,-0.013,0
2018,5,1,18,54,33.639,-0.6155,0.7765,-0.1192,0.0618,4.7,0.9,0,-0.003,0.011,0,0
2018,5,1,18,54,33.643,-0.6162,0.776,-0.1191,0.0618,5,0.6,0,-0.002,0.014,0.007,0
2018,5,1,18,54,33.661,-0.6169,0.7754,-0.1189,0.0619,4.9,0.4,0.3,-0.002,0.016,0.011,0
2018,5,1,18,54,33.682,-0.6175,0.775,-0.1188,0.062,2.9,0.3,0.2,-0.002,0.014,0.011,1023
2018,5,1,18,54,33.705,-0.6178,0.7747,-0.1187,0.0621,0,0,0,-0.005,0.013,0.011,1023
2018,5,1,18,54,33.724,-0.6178,0.7747,-0.1187,0.0621,-1.1,-0.1,-0.2,-0.005,0.011,0.006,1023
2018,5,1,18,54,33.743,-0.6176,0.7749,-0.1188,0.0621,-1.1,-0.6,-0.3,0.001,0.015,0.01,1023
2018,5,1,18,54,33.765,-0.6175,0.7749,-0.1189,0.0622,-0.1,-0.6,-0.2,0.006,0.013,0,1023
2018,5,1,18,54,33.784,-0.6175,0.7749,-0.119,0.0622,0.8,-0.1,-0.1,0.003,0.011,-0.002,1023
2018,5,1,18,54,33.822,-0.6176,0.7748,-0.119,0.0621,0.9,0.1,-0.3,-0.004,0.014,0,1023
2018,5,1,18,54,33.842,-0.6177,0.7748,-0.1189,0.0622,0,0,0,-0.013,0.012,0.003,1023
2018,5,1,18,54,33.847,-0.6177,0.7748,-0.1188,0.0623,0,0,0,-0.009,0.007,0.004,1023
2018,5,1,18,54,33.864,-0.6177,0.7748,-0.1188,0.0622,-0.6,0.4,-0.5,-0.004,0.013,0.009,1023
2018,5,1,18,54,33.882,-0.6175,0.7749,-0.1189,0.0621,-2.6,0.3,-0.4,-0.006,0.015,0.009,1023
2018,5,1,18,54,33.904,-0.6171,0.7753,-0.1189,0.062,-4.1,0,-0.3,0,0.012,0.01,1023
2018,5,1,18,54,33.924,-0.6165,0.7757,-0.1191,0.0619,-5.7,-0.4,-0.4,-0.003,0.013,0.007,1023
2018,5,1,18,54,33.946,-0.6157,0.7764,-0.1192,0.0619,-6,-0.9,-0.5,-0.002,0.014,0.006,1023
2018,5,1,18,54,33.965,-0.6149,0.777,-0.1194,0.0618,-5.1,-1,-0.5,-0.002,0.009,0.003,1023
2018,5,1,18,54,33.987,-0.6142,0.7774,-0.1196,0.0618,-3.2,-0.7,-0.2,0,0.01,-0.004,0
2018,5,1,18,54,34.025,-0.6139,0.7777,-0.1197,0.0619,-0.8,-0.6,0,0,0.009,-0.003,0
2018,5,1,18,54,34.045,-0.6138,0.7777,-0.1198,0.0619,0.6,0,0,0,0.01,-0.001,0
2018,5,1,18,54,34.049,-0.6139,0.7777,-0.1197,0.0619,0.7,0.4,-0.2,-0.007,0.01,0.006,0
2018,5,1,18,54,34.07,-0.614,0.7776,-0.1197,0.0619,0,0,0,-0.005,0.016,0.004,0
2018,5,1,18,54,34.089,-0.614,0.7776,-0.1197,0.0619,0,0,0,0,0.015,0.009,0
2018,5,1,18,54,34.106,-0.6141,0.7776,-0.1197,0.0619,0,0,0,-0.001,0.015,0.007,0
2018,5,1,18,54,34.125,-0.6141,0.7776,-0.1197,0.062,0,0,0,-0.005,0.009,0,0
2018,5,1,18,54,34.144,-0.6141,0.7775,-0.1197,0.062,1.1,0,0,-0.001,0.009,0,0
2018,5,1,18,54,34.182,-0.6143,0.7774,-0.1196,0.062,1.1,0.3,-0.3,0.001,0.012,0.002,0
2018,5,1,18,54,34.202,-0.6144,0.7773,-0.1196,0.062,0.9,0.4,-0.2,0,0.009,0.004,0
2018,5,1,18,54,34.207,-0.6145,0.7772,-0.1196,0.062,0,0,0,-0.002,0.012,0.007,0
2018,5,1,18,54,34.245,-0.6145,0.7772,-0.1195,0.062,-0.9,0.2,0.1,-0.003,0.015,0.011,0
2018,5,1,18,54,34.265,-0.6144,0.7773,-0.1195,0.062,-0.8,-0.4,0.1,-0.001,0.014,0,0
2018,5,1,18,54,34.269,-0.6143,0.7774,-0.1196,0.062,0,0,0,-0.004,0.007,-0.001,0
2018,5,1,18,54,34.289,-0.6143,0.7774,-0.1195,0.0621,0,0,0,0,0.011,0.003,0
2018,5,1,18,54,34.309,-0.6143,0.7774,-0.1195,0.0621,0,0,0,-0.001,0.009,0.001,0
2018,5,1,18,54,34.327,-0.6143,0.7774,-0.1195,0.062,0,0,0,-0.002,0.015,0.002,0
2018,5,1,18,54,34.348,-0.6143,0.7774,-0.1195,0.062,0,0,0,0,0.011,0.003,0
2018,5,1,18,54,34.387,-0.6143,0.7774,-0.1195,0.0621,0.6,-0.5,0,-0.001,0.011,0.001,0
2018,5,1,18,54,34.391,-0.6143,0.7773,-0.1195,0.0622,0.9,-0.1,0,-0.005,0.008,0,1023
2018,5,1,18,54,34.408,-0.6145,0.7772,-0.1195,0.0622,0.6,0.1,0,-0.004,0.01,0.007,1023
2018,5,1,18,54,34.447,-0.6145,0.7772,-0.1195,0.0622,0,0,0,0,0.011,0.008,1023
2018,5,1,18,54,34.451,-0.6145,0.7772,-0.1195,0.0622,-0.8,-0.2,-0.3,0,0.013,0.006,1023
2018,5,1,18,54,34.468,-0.6144,0.7773,-0.1196,0.0622,0,0,0,-0.004,0.01,0.001,1023
2018,5,1,18,54,34.489,-0.6144,0.7773,-0.1195,0.0622,0,0,0,-0.002,0.014,-0.001,1023
2018,5,1,18,54,34.53,-0.6144,0.7773,-0.1195,0.0622,0,0,0,-0.002,0.01,-0.002,1023
2018,5,1,18,54,34.534,-0.6143,0.7773,-0.1196,0.0622,0,0,0,0.007,0.009,0.001,1023
2018,5,1,18,54,34.55,-0.6145,0.7772,-0.1196,0.0622,1.4,-0.3,-0.2,-0.002,0.01,-0.002,1023
2018,5,1,18,54,34.588,-0.6146,0.7771,-0.1196,0.0623,1.8,0,-0.2,-0.009,0.013,-0.003,1023
2018,5,1,18,54,34.609,-0.6149,0.7769,-0.1195,0.0623,1.3,0.4,-0.4,-0.005,0.01,0.008,1023
2018,5,1,18,54,34.615,-0.615,0.7768,-0.1195,0.0623,0,0,0,-0.01,0.015,0.012,1023
2018,5,1,18,54,34.629,-0.6151,0.7768,-0.1194,0.0623,0,0,0,0.002,0.014,0.008,1023
2018,5,1,18,54,34.65,-0.615,0.7768,-0.1195,0.0623,-1.1,-0.1,-0.2,0,0.012,0.006,1023
2018,5,1,18,54,34.67,-0.6149,0.7769,-0.1195,0.0623,-0.6,-0.3,0,-0.005,0.011,0.003,1023
2018,5,1,18,54,34.709,-0.6148,0.777,-0.1195,0.0623,0,0,0,-0.004,0.009,0,1023
2018,5,1,18,54,34.729,-0.6148,0.777,-0.1195,0.0623,0,0,0,-0.008,0.017,0.001,0
2018,5,1,18,54,34.733,-0.6148,0.777,-0.1195,0.0624,0,0,0,-0.001,0.012,0.005,0
2018,5,1,18,54,34.751,-0.6149,0.7769,-0.1195,0.0624,0,0,0,-0.001,0.014,0.01,0
2018,5,1,18,54,34.771,-0.6149,0.7769,-0.1195,0.0624,0,0,0,-0.006,0.012,0.004,0
2018,5,1,18,54,34.808,-0.6149,0.7769,-0.1195,0.0624,-0.7,-0.5,-0.2,0,0.009,0.004,0
2018,5,1,18,54,34.828,-0.6148,0.777,-0.1196,0.0624,-1,-0.3,-0.2,0,0.008,0.003,0
2018,5,1,18,54,34.832,-0.6146,0.7771,-0.1196,0.0625,-0.7,-0.3,0,0,0.013,0.004,0
2018,5,1,18,54,34.871,-0.6145,0.7772,-0.1197,0.0625,0,0,0,-0.004,0.012,-0.002,0
2018,5,1,18,54,34.875,-0.6145,0.7772,-0.1197,0.0625,0,0,0,0,0.01,0,0
2018,5,1,18,54,34.892,-0.6146,0.7771,-0.1197,0.0625,1,0,0,-0.001,0.013,0.002,0
2018,5,1,18,54,34.912,-0.6147,0.777,-0.1196,0.0625,0.9,0.3,0,0,0.01,0.002,0
2018,5,1,18,54,34.933,-0.6148,0.7769,-0.1196,0.0625,0.6,0.1,0,-0.006,0.013,0.01,0
2018,5,1,18,54,34.953,-0.6149,0.7769,-0.1195,0.0626,0,0,0,-0.008,0.014,0.014,0
2018,5,1,18,54,34.973,-0.6148,0.7769,-0.1196,0.0626,-1,-0.3,-0.2,-0.001,0.013,0,0
2018,5,1,18,54,35.013,-0.6147,0.777,-0.1196,0.0626,-1.3,-0.1,-0.3,-0.003,0.012,-0.001,0
2018,5,1,18,54,35.017,-0.6145,0.7772,-0.1197,0.0625,-0.9,-0.1,-0.2,0,0.011,-0.002,0
2018,5,1,18,54,35.034,-0.6144,0.7772,-0.1197,0.0625,0,0,0,-0.004,0.008,0,0
2018,5,1,18,54,35.057,-0.6144,0.7772,-0.1197,0.0626,0,0,0,-0.005,0.01,0.003,0
2018,5,1,18,54,35.076,-0.6144,0.7772,-0.1196,0.0626,0,0,0,-0.006,0.014,-0.001,0
2018,5,1,18,54,35.093,-0.6145,0.7772,-0.1196,0.0626,0,0,0,-0.005,0.012,0.008,0
2018,5,1,18,54,35.113,-0.6145,0.7772,-0.1196,0.0626,0,0,0,0.004,0.013,0.01,1023
2018,5,1,18,54,35.134,-0.6145,0.7772,-0.1196,0.0626,0,0,0,0.003,0.013,0.001,1023
2018,5,1,18,54,35.154,-0.6144,0.7772,-0.1197,0.0626,-1,-0.3,0.1,-0.002,0.012,0.002,1023
2018,5,1,18,54,35.173,-0.6143,0.7773,-0.1197,0.0627,0,0,0,-0.003,0.008,0,1023
2018,5,1,18,54,35.196,-0.6143,0.7773,-0.1197,0.0627,0.6,-0.1,0.1,-0.002,0.011,0.002,1023
2018,5,1,18,54,35.215,-0.6144,0.7772,-0.1197,0.0628,0.8,-0.1,0,-0.001,0.011,0,1023
2018,5,1,18,54,35.25,-0.6145,0.7771,-0.1196,0.0628,1,0,0.1,-0.002,0.012,0.004,1023
2018,5,1,18,54,35.272,-0.6147,0.777,-0.1196,0.0628,0.6,-0.2,-0.1,-0.002,0.015,0.005,1023
2018,5,1,18,54,35.276,-0.6147,0.777,-0.1196,0.0629,0,0,0,0,0.011,0.008,1023
2018,5,1,18,54,35.315,-0.6146,0.7771,-0.1196,0.0629,0,0,0,0,0.011,0.003,1023
2018,5,1,18,54,35.334,-0.6146,0.7771,-0.1196,0.0629,0,0,0,-0.009,0.013,0,1023
2018,5,1,18,54,35.338,-0.6145,0.7771,-0.1196,0.063,-0.2,0.5,-0.4,-0.008,0.009,0.001,1023
2018,5,1,18,54,35.373,-0.6145,0.7771,-0.1195,0.0629,0,0,0,-0.015,0.015,0.007,1023
2018,5,1,18,54,35.395,-0.6146,0.7771,-0.1194,0.0629,0.3,0.5,0,-0.008,0.011,0.007,1023
2018,5,1,18,54,35.399,-0.6146,0.7771,-0.1194,0.0629,0,0,0,0.007,0.013,0.006,1023
2018,5,1,18,54,35.416,-0.6147,0.7771,-0.1194,0.0628,0,0,0,0.008,0.016,0.001,0
2018,5,1,18,54,35.454,-0.6146,0.7771,-0.1195,0.0628,-0.8,-0.3,-0.2,0,0.014,0.004,0
2018,5,1,18,54,35.474,-0.6144,0.7772,-0.1196,0.0629,0,0,0,-0.009,0.008,0,0
2018,5,1,18,54,35.478,-0.6144,0.7772,-0.1196,0.0629,0,0,0,0,0.012,0.004,0
2018,5,1,18,54,35.497,-0.6144,0.7773,-0.1196,0.0629,-0.5,-0.4,-0.2,0,0.014,0.006,0
2018,5,1,18,54,35.518,-0.6143,0.7773,-0.1197,0.0629,-0.8,-0.6,0,0.001,0.013,0.007,0
2018,5,1,18,54,35.538,-0.6141,0.7775,-0.1198,0.0629,-0.9,-0.3,-0.2,-0.002,0.015,-0.004,0
2018,5,1,18,54,35.575,-0.614,0.7775,-0.1198,0.063,0,0,0,0.003,0.011,0,0
2018,5,1,18,54,35.596,-0.614,0.7775,-0.1198,0.063,0,0,0,-0.004,0.009,-0.003,0
2018,5,1,18,54,35.6,-0.614,0.7775,-0.1198,0.063,0,0,0,-0.004,0.009,0.004,0
2018,5,1,18,54,35.616,-0.6141,0.7775,-0.1197,0.063,0.7,0.1,-0.1,-0.002,0.009,0.006,0
2018,5,1,18,54,35.655,-0.6142,0.7774,-0.1197,0.063,1,0,-0.1,-0.002,0.013,0.005,0
2018,5,1,18,54,35.659,-0.6144,0.7772,-0.1197,0.063,1.4,0.2,0,-0.004,0.014,0.003,0
2018,5,1,18,54,35.676,-0.6146,0.7771,-0.1196,0.063,1.5,0.1,-0.2,-0.003,0.01,0.003,0
2018,5,1,18,54,35.715,-0.6148,0.7769,-0.1196,0.063,1.2,0.3,0,-0.004,0.012,0.008,0
2018,5,1,18,54,35.737,-0.6149,0.7768,-0.1196,0.0631,0,0,0,-0.002,0.01,0.001,0
2018,5,1,18,54,35.741,-0.6149,0.7768,-0.1195,0.0631,0,0,0,-0.002,0.017,0.01,0
2018,5,1,18,54,35.762,-0.6149,0.7768,-0.1195,0.0631,-0.6,-0.1,-0.5,-0.003,0.015,0.008,0
2018,5,1,18,54,35.782,-0.6149,0.7768,-0.1195,0.0631,0,0,0,-0.003,0.015,0,0
2018,5,1,18,54,35.8,-0.6149,0.7768,-0.1196,0.0632,0.1,-0.5,0,-0.003,0.011,0,0
2018,5,1,18,54,35.821,-0.6149,0.7768,-0.1196,0.0632,0,0,0,-0.002,0.012,0.001,0
2018,5,1,18,54,35.838,-0.6149,0.7768,-0.1196,0.0632,0,0,0,-0.003,0.011,0.006,1023
2018,5,1,18,54,35.876,-0.6149,0.7768,-0.1195,0.0632,-0.5,0.1,-0.3,0,0.012,0.007,1023
2018,5,1,18,54,35.881,-0.6148,0.7769,-0.1196,0.0632,-0.7,-0.3,-0.2,-0.002,0.015,0.009,1023
2018,5,1,18,54,35.897,-0.6147,0.777,-0.1196,0.0632,-0.7,-0.4,0.1,-0.003,0.014,0.001,1023
2018,5,1,18,54,35.936,-0.6146,0.777,-0.1196,0.0633,0,0,0,0.001,0.007,0,1023
2018,5,1,18,54,35.956,-0.6146,0.777,-0.1196,0.0633,0,0,0,-0.009,0.012,0,1023
2018,5,1,18,54,35.959,-0.6146,0.777,-0.1196,0.0633,0,0,0,-0.002,0.011,0.001,1023
2018,5,1,18,54,36.001,-0.6147,0.777,-0.1196,0.0633,1,0,0,0.001,0.011,0.003,1023
2018,5,1,18,54,36.02,-0.6148,0.7769,-0.1196,0.0633,1.1,0.2,0,-0.002,0.015,0.001,1023
2018,5,1,18,54,36.024,-0.6149,0.7768,-0.1196,0.0634,0,0,0,-0.01,0.012,0.004,1023
2018,5,1,18,54,36.043,-0.6149,0.7768,-0.1195,0.0635,0,0,0,-0.005,0.009,0.005,1023
2018,5,1,18,54,36.082,-0.615,0.7768,-0.1195,0.0634,-0.4,0.4,-0.5,-0.003,0.012,0.007,1023
2018,5,1,18,54,36.102,-0.6149,0.7768,-0.1195,0.0634,-0.8,0,-0.3,-0.002,0.014,0.006,1023
2018,5,1,18,54,36.107,-0.6148,0.7769,-0.1196,0.0633,-0.9,0,-0.1,0.001,0.014,0.005,1023
2018,5,1,18,54,36.125,-0.6147,0.777,-0.1196,0.0633,-1,-0.3,0,-0.002,0.014,0,1023
2018,5,1,18,54,36.144,-0.6145,0.7771,-0.1197,0.0633,-0.5,-0.2,-0.2,-0.001,0.01,0.001,0
2018,5,1,18,54,36.161,-0.6145,0.7771,-0.1197,0.0634,0,0,0,-0.002,0.009,0,0
2018,5,1,18,54,36.182,-0.6145,0.7771,-0.1196,0.0634,0,0,0,-0.001,0.014,0,0
2018,5,1,18,54,36.217,-0.6145,0.7771,-0.1196,0.0634,0,0,0,0,0.014,0.009,0
2018,5,1,18,54,36.238,-0.6145,0.7771,-0.1196,0.0634,-0.7,-0.2,-0.1,-0.001,0.012,0.004,0
2018,5,1,18,54,36.242,-0.6143,0.7772,-0.1197,0.0634,-1.3,-0.4,-0.2,0.001,0.011,0.006,0
2018,5,1,18,54,36.282,-0.6141,0.7774,-0.1198,0.0634,-1.6,-0.4,0,0,0.014,0,0
2018,5,1,18,54,36.286,-0.6139,0.7775,-0.1198,0.0634,-1.3,-0.3,0.2,-0.001,0.014,0,0
2018,5,1,18,54,36.306,-0.6137,0.7777,-0.1198,0.0635,-0.7,0,0.1,-0.005,0.009,-0.004,0
2018,5,1,18,54,36.344,-0.6136,0.7777,-0.1198,0.0635,0,0,0,-0.004,0.012,0.002,0
2018,5,1,18,54,36.362,-0.6136,0.7778,-0.1198,0.0635,0,0,0,-0.001,0.012,0,0
2018,5,1,18,54,36.366,-0.6136,0.7778,-0.1198,0.0635,0,0,0,-0.002,0.017,0.004,0
2018,5,1,18,54,36.384,-0.6137,0.7777,-0.1198,0.0635,0,0,0,-0.001,0.012,0.002,0
2018,5,1,18,54,36.403,-0.6137,0.7777,-0.1198,0.0635,0,0,0,-0.002,0.01,0,0
2018,5,1,18,54,36.422,-0.6137,0.7777,-0.1198,0.0635,0,0,0,0,0.011,-0.003,0
2018,5,1,18,54,36.461,-0.6137,0.7777,-0.1198,0.0635,0.6,0,-0.2,-0.002,0.012,0.004,0
2018,5,1,18,54,36.482,-0.6138,0.7777,-0.1198,0.0635,0.8,0.1,-0.2,-0.005,0.01,0.001,0
2018,5,1,18,54,36.486,-0.6139,0.7776,-0.1198,0.0635,0.6,0.2,-0.4,-0.002,0.012,0.004,0
2018,5,1,18,54,36.507,-0.614,0.7775,-0.1198,0.0635,0,0,0,-0.002,0.013,0.002,0
2018,5,1,18,54,36.525,-0.614,0.7775,-0.1198,0.0635,-0.6,0,-0.1,0,0.015,0.009,0
2018,5,1,18,54,36.565,-0.6139,0.7776,-0.1198,0.0635,-0.6,-0.3,0,-0.004,0.012,0.004,0
2018,5,1,18,54,36.569,-0.6138,0.7776,-0.1198,0.0635,0,0,0,-0.002,0.014,0.001,1023
2018,5,1,18,54,36.585,-0.6138,0.7776,-0.1198,0.0636,0,0,0,-0.001,0.01,-0.001,1023
2018,5,1,18,54,36.604,-0.6138,0.7776,-0.1198,0.0636,0.5,-0.1,0,-0.001,0.015,-0.002,1023
2018,5,1,18,54,36.624,-0.6139,0.7776,-0.1198,0.0636,0.8,-0.3,0,-0.001,0.011,0.002,1023
2018,5,1,18,54,36.66,-0.6139,0.7775,-0.1198,0.0636,0,0,0,-0.001,0.01,0.005,1023
2018,5,1,18,54,36.68,-0.614,0.7775,-0.1198,0.0637,0,0,0,-0.001,0.015,0.007,1023
2018,5,1,18,54,36.684,-0.614,0.7775,-0.1198,0.0636,0,0,0,0.008,0.015,0.004,1023
2018,5,1,18,54,36.705,-0.614,0.7775,-0.1198,0.0636,0,0,0,0,0.009,0.002,1023
2018,5,1,18,54,36.726,-0.614,0.7775,-0.1198,0.0636,0,0,0,-0.003,0.009,-0.001,1023
2018,5,1,18,54,36.762,-0.6139,0.7775,-0.1198,0.0637,0,0,0,-0.009,0.013,-0.003,1023
2018,5,1,18,54,36.782,-0.6139,0.7776,-0.1197,0.0637,0.7,0.4,-0.6,-0.005,0.01,-0.002,1023
2018,5,1,18,54,36.796,-0.614,0.7774,-0.1197,0.0637,0.8,0.3,-0.3,-0.006,0.015,0.006,1023
2018,5,1,18,54,36.805,-0.6141,0.7774,-0.1197,0.0636,0,0,0,0.004,0.014,0.007,1023
2018,5,1,18,54,36.843,-0.6141,0.7774,-0.1197,0.0636,0,0,0,0.001,0.01,0.007,1023
2018,5,1,18,54,36.863,-0.6141,0.7774,-0.1197,0.0636,0,0,0,-0.001,0.012,0.004,1023
2018,5,1,18,54,36.871,-0.6141,0.7774,-0.1197,0.0636,0,0,0,-0.004,0.012,0.004,1023
2018,5,1,18,54,36.887,-0.6141,0.7774,-0.1197,0.0636,0,0,0,-0.001,0.011,0.005,0
2018,5,1,18,54,36.908,-0.6141,0.7774,-0.1197,0.0636,0,0,0,0,0.01,0.004,0
2018,5,1,18,54,36.926,-0.6141,0.7774,-0.1197,0.0636,0,0,0,-0.001,0.01,0,0
2018,5,1,18,54,36.965,-0.6141,0.7774,-0.1197,0.0637,0,0,0,0,0.009,0.002,0
2018,5,1,18,54,36.986,-0.6141,0.7774,-0.1197,0.0637,0,0,0,-0.002,0.013,0.004,0
2018,5,1,18,54,36.99,-0.6141,0.7774,-0.1197,0.0637,0,0,0,0.002,0.014,0.001,0
2018,5,1,18,54,37.011,-0.6141,0.7774,-0.1197,0.0637,0,0,0,0,0.01,0,0
2018,5,1,18,54,37.031,-0.6142,0.7773,-0.1197,0.0637,0.8,0.3,-0.2,-0.004,0.011,0.001,0
2018,5,1,18,54,37.05,-0.6143,0.7772,-0.1196,0.0636,0,0,0,-0.002,0.014,0.004,0
2018,5,1,18,54,37.072,-0.6143,0.7772,-0.1196,0.0636,0,0,0,-0.004,0.014,0.003,0
2018,5,1,18,54,37.09,-0.6143,0.7772,-0.1196,0.0637,0,0,0,-0.002,0.012,0.008,0
2018,5,1,18,54,37.112,-0.6143,0.7772,-0.1196,0.0637,0,0,0,0,0.012,-0.005,0
2018,5,1,18,54,37.129,-0.6143,0.7772,-0.1196,0.0637,0.6,0.4,0,-0.002,0.01,0.004,0
2018,5,1,18,54,37.148,-0.6144,0.7772,-0.1195,0.0637,0.9,0.2,-0.1,-0.003,0.011,0.007,0
2018,5,1,18,54,37.187,-0.6146,0.7771,-0.1195,0.0636,0.6,0.3,-0.2,-0.003,0.011,0.005,0
2018,5,1,18,54,37.205,-0.6146,0.777,-0.1195,0.0637,0,0,0,-0.003,0.011,0.005,0
2018,5,1,18,54,37.21,-0.6146,0.777,-0.1195,0.0637,0,0,0,0,0.014,0.006,0
2018,5,1,18,54,37.23,-0.6146,0.777,-0.1195,0.0637,-0.5,-0.2,-0.2,0,0.011,0.006,0
2018,5,1,18,54,37.251,-0.6145,0.7771,-0.1195,0.0637,-0.6,-0.1,-0.3,0,0.014,0.001,0
2018,5,1,18,54,37.272,-0.6145,0.7771,-0.1196,0.0637,0,0,0,0,0.011,0.003,0
2018,5,1,18,54,37.292,-0.6145,0.7771,-0.1196,0.0637,0,0,0,0,0.012,0.003,0
2018,5,1,18,54,37.309,-0.6145,0.7771,-0.1196,0.0637,0,0,0,-0.002,0.011,-0.002,0
2018,5,1,18,54,37.329,-0.6145,0.7771,-0.1196,0.0637,0,0,0,0,0.01,0,0
2018,5,1,18,54,37.348,-0.6146,0.777,-0.1196,0.0637,0.9,0,-0.3,0.001,0.014,0.003,1023
2018,5,1,18,54,37.37,-0.6147,0.777,-0.1196,0.0637,0,0,0,0,0.017,0.004,1023
2018,5,1,18,54,37.388,-0.6147,0.7769,-0.1196,0.0637,0.6,-0.2,-0.2,0.002,0.011,0.002,1023
2018,5,1,18,54,37.429,-0.6147,0.7769,-0.1196,0.0637,0.5,0,-0.2,-0.006,0.007,0.006,1023
2018,5,1,18,54,37.448,-0.6148,0.7769,-0.1196,0.0637,0.6,0.1,-0.2,-0.007,0.013,0.007,1023
2018,5,1,18,54,37.452,-0.6149,0.7768,-0.1196,0.0638,0.7,0.1,-0.3,-0.004,0.01,0.008,1023
2018,5,1,18,54,37.472,-0.615,0.7767,-0.1196,0.0637,0.4,0.3,-0.5,-0.006,0.013,0.003,1023
2018,5,1,18,54,37.492,-0.615,0.7767,-0.1195,0.0638,0,0,0,0,0.013,0.004,1023
2018,5,1,18,54,37.512,-0.615,0.7767,-0.1195,0.0638,0,0,0,0,0.01,0.006,1023
2018,5,1,18,54,37.533,-0.615,0.7767,-0.1196,0.0637,-0.5,0.1,0,0.004,0.01,0.004,1023
2018,5,1,18,54,37.554,-0.615,0.7767,-0.1196,0.0637,0,0,0,0.002,0.012,0,1023
2018,5,1,18,54,37.573,-0.615,0.7767,-0.1196,0.0637,0.6,-0.2,0.1,0.001,0.011,0,1023
2018,5,1,18,54,37.593,-0.6151,0.7766,-0.1196,0.0637,1.3,0.2,0,-0.001,0.01,-0.001,1023
2018,5,1,18,54,37.616,-0.6153,0.7765,-0.1195,0.0637,1.8,0.2,-0.1,-0.001,0.015,0.002,1023
2018,5,1,18,54,37.635,-0.6155,0.7763,-0.1195,0.0638,1.4,0.1,-0.3,-0.002,0.013,0.005,1023
2018,5,1,18,54,37.653,-0.6157,0.7762,-0.1195,0.0638,0,0,0,-0.005,0.013,0.011,1023
2018,5,1,18,54,37.689,-0.6157,0.7762,-0.1195,0.0638,-0.9,-0.2,0,-0.005,0.016,0.007,1023
2018,5,1,18,54,37.709,-0.6155,0.7763,-0.1196,0.0638,-1.1,-0.6,0,0.001,0.012,0.001,0
2018,5,1,18,54,37.714,-0.6154,0.7764,-0.1197,0.0639,-0.6,-0.5,0.2,0.001,0.012,0.001,0
2018,5,1,18,54,37.735,-0.6153,0.7764,-0.1197,0.0638,0,0,0,0,0.01,-0.009,0
2018,5,1,18,54,37.755,-0.6154,0.7763,-0.1196,0.0639,1.6,0.2,-0.2,-0.007,0.007,-0.002,0
2018,5,1,18,54,37.775,-0.6157,0.7761,-0.1196,0.0639,1.9,0.7,-0.2,-0.003,0.014,0.007,0
2018,5,1,18,54,37.797,-0.616,0.7759,-0.1195,0.0638,1.4,0.3,-0.2,0,0.014,0.01,0
2018,5,1,18,54,37.815,-0.6161,0.7758,-0.1195,0.0638,0,0,0,0,0.014,0.01,0
2018,5,1,18,54,37.836,-0.6162,0.7758,-0.1195,0.0638,-0.6,-0.1,0,-0.002,0.015,0.007,0
2018,5,1,18,54,37.853,-0.616,0.7759,-0.1195,0.0638,-1.3,-0.1,0,0,0.012,0.002,0
2018,5,1,18,54,37.872,-0.6158,0.776,-0.1196,0.0638,-0.9,-0.2,-0.1,-0.002,0.006,-0.005,0
2018,5,1,18,54,37.91,-0.6157,0.7761,-0.1196,0.0639,0,0,0,-0.003,0.01,-0.005,0
2018,5,1,18,54,37.931,-0.6158,0.7761,-0.1196,0.0639,1.1,0.1,-0.3,-0.002,0.011,0,0
2018,5,1,18,54,37.936,-0.6159,0.7759,-0.1196,0.0638,1.1,0.2,-0.3,-0.001,0.014,0.008,0
2018,5,1,18,54,37.954,-0.6161,0.7758,-0.1196,0.0638,0.9,0.1,-0.1,0,0.012,0.006,0
2018,5,1,18,54,37.993,-0.6162,0.7757,-0.1196,0.0638,0,0,0,-0.003,0.014,0.008,0
2018,5,1,18,54,38.013,-0.6162,0.7758,-0.1196,0.0638,-0.6,-0.2,0,0,0.013,0.006,0
2018,5,1,18,54,38.017,-0.6161,0.7758,-0.1196,0.0639,-0.8,-0.2,0.1,0,0.014,0.003,0
2018,5,1,18,54,38.055,-0.6159,0.7759,-0.1196,0.0639,-0.6,-0.1,0,-0.002,0.01,0.002,0
2018,5,1,18,54,38.076,-0.6159,0.776,-0.1196,0.0639,0,0,0,-0.004,0.008,0,0
2018,5,1,18,54,38.08,-0.6159,0.776,-0.1196,0.064,0,0,0,-0.001,0.012,0.004,0
2018,5,1,18,54,38.094,-0.616,0.7759,-0.1196,0.064,0.9,0,-0.2,0,0.011,0,0
2018,5,1,18,54,38.133,-0.616,0.7758,-0.1196,0.0639,0.5,0.1,-0.1,-0.002,0.013,0.006,1023
2018,5,1,18,54,38.155,-0.6161,0.7758,-0.1196,0.0639,0,0,0,0.001,0.015,0.008,1023
2018,5,1,18,54,38.159,-0.6161,0.7758,-0.1197,0.0639,0,0,0,0.007,0.008,-0.001,1023
2018,5,1,18,54,38.177,-0.6161,0.7758,-0.1196,0.0639,0,0,0,0,0.01,-0.001,1023
2018,5,1,18,54,38.214,-0.616,0.7759,-0.1196,0.0639,0,0,0,-0.015,0.01,0.003,1023
2018,5,1,18,54,38.235,-0.6161,0.7758,-0.1196,0.064,0.7,0.4,-0.4,-0.006,0.01,0.003,1023
2018,5,1,18,54,38.239,-0.6162,0.7757,-0.1195,0.0639,0,0,0,-0.009,0.013,0.007,1023
2018,5,1,18,54,38.26,-0.6162,0.7757,-0.1195,0.0639,-0.8,0,0,0.008,0.01,0.005,1023
2018,5,1,18,54,38.28,-0.6161,0.7758,-0.1196,0.0638,-0.7,0,-0.2,0.003,0.012,0.004,1023
2018,5,1,18,54,38.3,-0.616,0.7758,-0.1197,0.0638,-0.9,-0.1,-0.1,-0.001,0.011,0.004,1023
2018,5,1,18,54,38.334,-0.6159,0.7759,-0.1197,0.0638,0,0,0,-0.001,0.011,0,1023
2018,5,1,18,54,38.355,-0.6159,0.7759,-0.1197,0.0638,0.5,-0.2,-0.3,-0.003,0.013,0.002,1023
2018,5,1,18,54,38.359,-0.616,0.7759,-0.1197,0.0639,1,-0.1,-0.1,0,0.01,-0.001,1023
2018,5,1,18,54,38.382,-0.6162,0.7757,-0.1197,0.0639,1,0.1,0,-0.004,0.013,0.004,1023
2018,5,1,18,54,38.398,-0.6163,0.7757,-0.1197,0.0639,0,0,0,0,0.013,0.004,1023
2018,5,1,18,54,38.42,-0.6163,0.7756,-0.1197,0.0639,0,0,0,0,0.017,0.005,0
2018,5,1,18,54,38.44,-0.6163,0.7756,-0.1197,0.0639,0,0,0,0,0.01,0.006,0
2018,5,1,18,54,38.458,-0.6163,0.7756,-0.1198,0.0639,0,0,0,0,0.01,0.002,0
2018,5,1,18,54,38.48,-0.6163,0.7756,-0.1197,0.0639,0.8,0,0,-0.007,0.008,-0.002,0
2018,5,1,18,54,38.499,-0.6164,0.7756,-0.1197,0.0639,0.7,0.1,0,-0.001,0.01,0,0
2018,5,1,18,54,38.539,-0.6164,0.7755,-0.1197,0.0639,0,0,0,-0.001,0.012,0.007,0
2018,5,1,18,54,38.558,-0.6165,0.7755,-0.1197,0.0639,0,0,0,-0.001,0.014,0.003,0
2018,5,1,18,54,38.562,-0.6165,0.7755,-0.1197,0.0639,0,0,0,0,0.012,0.003,0
2018,5,1,18,54,38.6,-0.6165,0.7755,-0.1197,0.0639,-0.5,0.1,-0.1,0,0.01,0,0
2018,5,1,18,54,38.604,-0.6164,0.7756,-0.1197,0.0639,0,0,0,-0.001,0.01,0.003,0
2018,5,1,18,54,38.618,-0.6164,0.7756,-0.1197,0.0639,0,0,0,-0.001,0.01,0.003,0
2018,5,1,18,54,38.638,-0.6164,0.7756,-0.1197,0.0639,0.5,0,-0.3,-0.003,0.013,0.003,0
2018,5,1,18,54,38.658,-0.6165,0.7755,-0.1197,0.0639,0.5,0.2,-0.5,-0.003,0.011,0.008,0
2018,5,1,18,54,38.696,-0.6165,0.7755,-0.1197,0.0639,0.5,0,-0.3,-0.006,0.017,0.004,0
2018,5,1,18,54,38.717,-0.6165,0.7754,-0.1197,0.0639,0,0,0,0.002,0.01,0.007,0
2018,5,1,18,54,38.721,-0.6166,0.7754,-0.1197,0.0639,0,0,0,0.001,0.01,0.003,0
2018,5,1,18,54,38.761,-0.6166,0.7754,-0.1197,0.0639,0,0,0,0.002,0.011,0,0
2018,5,1,18,54,38.782,-0.6166,0.7754,-0.1197,0.0639,0,0,0,0,0.011,0.006,0
2018,5,1,18,54,38.786,-0.6166,0.7754,-0.1197,0.0639,0,0,0,-0.003,0.012,0.004,0
2018,5,1,18,54,38.805,-0.6166,0.7754,-0.1197,0.0639,0,0,0,-0.001,0.01,0.004,0
2018,5,1,18,54,38.819,-0.6166,0.7754,-0.1196,0.0639,0,0,0,-0.004,0.011,0.005,0
2018,5,1,18,54,38.857,-0.6166,0.7754,-0.1196,0.064,0,0,0,-0.002,0.012,0.006,0
