ax,ay,az,dpitch,droll,dyaw,heart,time_1,time_2,time_3,time_4,time_5,time_6,w,x,y,z
-0.267,0.646,-0.268,-14.5,-36.5,116.8,0,2018,4,25,20,15,12.928,0.207,0.5586,0.3256,-0.7341
-0.192,0.549,-0.143,-10.9,-52.6,166.1,0,2018,4,25,20,15,12.948,0.192,0.5501,0.3455,-0.7355
-0.028,0.307,0.06,-10.4,-68.7,187.5,0,2018,4,25,20,15,12.952,0.1742,0.5382,0.3707,-0.7365
0.165,-0.036,0.081,-12.3,-68.8,180.2,0,2018,4,25,20,15,12.97,0.1561,0.5251,0.3969,-0.7363
0.331,-0.107,-0.031,-9.5,-76.8,150.3,0,2018,4,25,20,15,12.991,0.1408,0.5131,0.421,-0.7345
0.393,-0.271,-0.174,1.8,-100.6,109.5,0,2018,4,25,20,15,13.01,0.1323,0.5022,0.4444,-0.7298
0.308,-0.275,-0.164,16.4,-92.3,76.9,0,2018,4,25,20,15,13.05,0.13,0.4915,0.4645,-0.725
0.177,-0.352,-0.068,27.5,-60.9,47.1,0,2018,4,25,20,15,13.072,0.1307,0.4818,0.4792,-0.7218
0.132,-0.27,-0.02,30.9,-23,22.4,0,2018,4,25,20,15,13.076,0.1321,0.474,0.4869,-0.7215
0.101,-0.151,-0.013,32.5,-13.9,3.2,0,2018,4,25,20,15,13.094,0.134,0.4683,0.4897,-0.723
0.07,-0.07,0.03,30.3,-33.7,-7,0,2018,4,25,20,15,13.132,0.1389,0.4638,0.492,-0.7234
0.1,-0.08,0.078,24.6,-50.2,-14.1,0,2018,4,25,20,15,13.152,0.1462,0.4599,0.496,-0.7217
0.101,-0.102,0.203,18.2,-52.2,-24.4,0,2018,4,25,20,15,13.157,0.1547,0.4571,0.5004,-0.7187
0.068,-0.019,0.274,6.8,-53.1,-32.5,0,2018,4,25,20,15,13.171,0.1636,0.4566,0.5046,-0.7141
0.037,0.015,0.19,-4.3,-54.5,-35.9,1023,2018,4,25,20,15,13.211,0.1723,0.458,0.5088,-0.7082
-0.034,-0.03,0.131,-12.6,-54.3,-35.6,1023,2018,4,25,20,15,13.23,0.1802,0.4606,0.513,-0.7015
-0.133,-0.107,0.032,-16.6,-62.1,-37.1,1023,2018,4,25,20,15,13.235,0.1879,0.4639,0.5177,-0.6938
-0.258,-0.068,-0.042,-17.1,-74.8,-39.2,1023,2018,4,25,20,15,13.253,0.1964,0.4671,0.5236,-0.6848
-0.347,0.021,-0.225,-11.7,-85.9,-36.9,1023,2018,4,25,20,15,13.274,0.2063,0.4696,0.5308,-0.6745
-0.377,0.113,-0.389,2.9,-84.3,-22.4,1023,2018,4,25,20,15,13.292,0.2165,0.4698,0.5389,-0.6647
-0.389,0.105,-0.368,20.7,-69.6,-0.4,1023,2018,4,25,20,15,13.333,0.2253,0.4664,0.5467,-0.6577
-0.323,0.161,-0.23,28.3,-52.4,24,1023,2018,4,25,20,15,13.354,0.2313,0.4598,0.554,-0.6542
-0.148,0.107,0.012,21.7,-20.2,46.3,0,2018,4,25,20,15,13.358,0.2326,0.4519,0.5601,-0.654
0.127,0.085,0.317,7.8,8.3,54,0,2018,4,25,20,15,13.377,0.2285,0.445,0.5637,-0.6572
0.389,0.056,0.51,-8.2,13.6,48.3,0,2018,4,25,20,15,13.398,0.2215,0.4404,0.5664,-0.6603
0.487,-0.004,0.562,-22.7,26.3,37.1,0,2018,4,25,20,15,13.413,0.2136,0.4387,0.5684,-0.6623
0.43,-0.014,0.49,-35.1,54.3,22.9,0,2018,4,25,20,15,13.433,0.204,0.4406,0.5671,-0.6652
0.305,0.012,0.326,-44.2,63.9,9.9,0,2018,4,25,20,15,13.47,0.1935,0.4458,0.5628,-0.6685
0.147,0.022,0.16,-50.6,63.6,2.4,0,2018,4,25,20,15,13.491,0.1831,0.453,0.5575,-0.671
-0.039,-0.053,-0.161,-50.1,53.9,-3.4,0,2018,4,25,20,15,13.495,0.1736,0.461,0.5521,-0.6726
-0.28,-0.238,-0.512,-39.2,32.4,-11,0,2018,4,25,20,15,13.517,0.1666,0.4683,0.5479,-0.6728
-0.457,-0.238,-0.631,-17.6,2.6,-21.4,0,2018,4,25,20,15,13.555,0.1643,0.4736,0.5455,-0.6715
-0.499,-0.068,-0.523,2.1,-27.4,-25.7,0,2018,4,25,20,15,13.574,0.1678,0.4763,0.5455,-0.6687
-0.411,0.017,-0.329,15.3,-27.7,-20.3,0,2018,4,25,20,15,13.579,0.174,0.4765,0.5469,-0.6659
-0.24,0.163,-0.095,20,-14.1,-6.1,0,2018,4,25,20,15,13.614,0.1789,0.4751,0.5476,-0.665
0.006,0.129,0.248,11.1,-12.9,15.5,0,2018,4,25,20,15,13.636,0.1812,0.4724,0.5491,-0.665
0.364,0.208,0.569,-6.9,-21.4,24.9,0,2018,4,25,20,15,13.64,0.1801,0.4696,0.5528,-0.6642
0.679,0.257,0.773,-24.8,-39.4,24.9,0,2018,4,25,20,15,13.654,0.1782,0.468,0.5593,-0.6604
0.76,0.216,0.643,-36.5,-37,17.4,0,2018,4,25,20,15,13.691,0.1759,0.4683,0.5669,-0.6544
0.606,0.041,0.272,-34.7,-24,3.5,0,2018,4,25,20,15,13.711,0.1735,0.4705,0.5723,-0.6487
0.394,-0.054,-0.142,-20.9,-18.9,-13.9,0,2018,4,25,20,15,13.715,0.1731,0.4737,0.5751,-0.6439
-0.05,-0.158,-0.488,-1,-34.1,-27.4,0,2018,4,25,20,15,13.752,0.1764,0.4763,0.5768,-0.6397
-0.552,-0.413,-0.82,18.3,-52.3,-47.6,0,2018,4,25,20,15,13.772,0.1853,0.4776,0.5783,-0.6348
-0.765,-0.218,-0.905,30.8,-67.3,-62.7,0,2018,4,25,20,15,13.776,0.199,0.4786,0.5791,-0.6291
-0.828,-0.102,-0.414,30.6,-43.1,-56,0,2018,4,25,20,15,13.796,0.2138,0.479,0.5798,-0.6233
-0.58,0.05,0.205,15.9,10,-43.8,0,2018,4,25,20,15,13.816,0.2228,0.481,0.5761,-0.6221
0.048,0.224,0.62,-8.7,10.5,-16.4,0,2018,4,25,20,15,13.836,0.2251,0.4843,0.5718,-0.6226
0.61,0.17,0.728,-15.9,-7.4,5.9,1023,2018,4,25,20,15,13.855,0.224,0.4862,0.5722,-0.6212
0.846,0.262,0.782,-12.1,-3.4,13.9,1023,2018,4,25,20,15,13.891,0.2221,0.4863,0.5746,-0.6196
0.829,0.385,0.591,-6.6,25,20.7,1023,2018,4,25,20,15,13.911,0.2185,0.486,0.5754,-0.6203
0.534,0.184,0.172,3.7,47.5,26.8,1023,2018,4,25,20,15,13.917,0.2123,0.4851,0.5738,-0.6247
0.213,0.013,-0.215,17.2,60.4,22.6,1023,2018,4,25,20,15,13.956,0.2058,0.4834,0.5696,-0.6319
-0.269,-0.204,-0.617,23.4,39.8,16.3,1023,2018,4,25,20,15,13.961,0.2013,0.481,0.5649,-0.6394
-0.669,-0.338,-0.813,30.1,7.2,2.2,1023,2018,4,25,20,15,13.978,0.201,0.4778,0.5625,-0.644
-0.78,-0.147,-0.639,30.8,-3.7,-5.8,1023,2018,4,25,20,15,14.015,0.2046,0.4744,0.5615,-0.6462
-0.701,0.069,-0.329,21.5,-11.6,0.5,0,2018,4,25,20,15,14.035,0.2087,0.4712,0.5619,-0.6469
-0.522,0.182,-0.058,3.5,0.9,16.1,0,2018,4,25,20,15,14.038,0.2093,0.4689,0.5625,-0.6479
-0.161,0.05,0.215,-14.7,2,31.6,0,2018,4,25,20,15,14.075,0.2057,0.467,0.565,-0.6482
0.314,0.058,0.482,-27.9,8.2,39.5,0,2018,4,25,20,15,14.095,0.1988,0.4661,0.5684,-0.648
0.714,0.086,0.708,-27.2,7.5,35.4,0,2018,4,25,20,15,14.098,0.1909,0.4658,0.5717,-0.6477
0.867,0.126,0.689,-16.9,10.3,22.8,0,2018,4,25,20,15,14.131,0.1846,0.4656,0.574,-0.6476
0.79,0.005,0.435,-3.2,16.6,6.6,0,2018,4,25,20,15,14.153,0.1809,0.4657,0.5743,-0.6484
0.611,0.03,0.166,6.5,32.9,-6.6,0,2018,4,25,20,15,14.156,0.1793,0.4662,0.5717,-0.6507
0.34,-0.033,-0.098,12,52.2,-9,0,2018,4,25,20,15,14.198,0.1776,0.4673,0.566,-0.6554
0.028,-0.238,-0.375,17.6,45.9,-18,0,2018,4,25,20,15,14.218,0.1763,0.4685,0.5586,-0.6612
-0.383,-0.54,-0.719,25.8,2.4,-39.4,0,2018,4,25,20,15,14.22,0.1797,0.4694,0.5529,-0.6644
-0.744,-0.466,-0.745,30.9,-22.7,-57.3,0,2018,4,25,20,15,14.24,0.1896,0.4703,0.5502,-0.6633
-0.935,-0.265,-0.445,29,2.8,-64.1,0,2018,4,25,20,15,14.259,0.2003,0.4723,0.5451,-0.663
-0.913,-0.166,-0.042,11.9,72.9,-70,0,2018,4,25,20,15,14.297,0.2067,0.4776,0.5342,-0.666
-0.633,0.127,0.439,-20.1,98,-59.6,0,2018,4,25,20,15,14.318,0.2063,0.4875,0.5182,-0.6717
-0.172,0.194,0.508,-53.7,86.3,-33.6,0,2018,4,25,20,15,14.32,0.2002,0.4996,0.5047,-0.6749
0.206,0.486,0.597,-72.1,32.6,1.6,0,2018,4,25,20,15,14.338,0.191,0.5105,0.4984,-0.674
0.467,0.324,0.419,-78,3.9,16.3,0,2018,4,25,20,15,14.36,0.1817,0.5189,0.5006,-0.6686
0.651,0.466,0.172,-67.8,-23.8,20,0,2018,4,25,20,15,14.397,0.1741,0.5255,0.5058,-0.6615
0.658,0.488,-0.042,-52.3,-16.3,25.7,0,2018,4,25,20,15,14.418,0.1683,0.5296,0.5126,-0.6545
0.54,0.198,-0.385,-31.8,16.5,22.4,0,2018,4,25,20,15,14.42,0.1616,0.532,0.5165,-0.6511
0.365,0.048,-0.541,-5.6,57.7,7.8,0,2018,4,25,20,15,14.455,0.1544,0.5339,0.5137,-0.6534
0.139,0.038,-0.468,18.6,42.3,0.9,0,2018,4,25,20,15,14.476,0.1497,0.5342,0.5078,-0.659
-0.106,-0.129,-0.356,36.3,12.6,-3,0,2018,4,25,20,15,14.48,0.1499,0.5316,0.5039,-0.664
-0.339,-0.319,-0.254,45.5,-2.6,-14.6,0,2018,4,25,20,15,14.517,0.1544,0.5275,0.5017,-0.6678
-0.505,-0.21,-0.079,39.2,16.9,-24.7,1023,2018,4,25,20,15,14.538,0.1599,0.5245,0.4974,-0.6721
-0.513,-0.289,0.066,24.1,44.7,-25.5,1023,2018,4,25,20,15,14.54,0.1631,0.5237,0.4911,-0.6766
-0.47,-0.138,0.312,4.4,82.3,-26.1,1023,2018,4,25,20,15,14.559,0.1612,0.5262,0.4803,-0.6828
-0.301,0.013,0.426,-18.3,91,-17.4,1023,2018,4,25,20,15,14.58,0.1552,0.5314,0.4679,-0.6888
-0.063,0.158,0.413,-34,80.8,-2.4,1023,2018,4,25,20,15,14.616,0.146,0.5378,0.4571,-0.6931
0.212,0.263,0.289,-38.8,48.4,12,1023,2018,4,25,20,15,14.636,0.1363,0.5436,0.4504,-0.695
0.454,0.371,0.117,-34.2,1.7,17.9,1023,2018,4,25,20,15,14.64,0.1291,0.5473,0.4498,-0.6937
0.609,0.514,0.002,-28.7,-50.5,17.7,1023,2018,4,25,20,15,14.678,0.1269,0.5491,0.4551,-0.6893
0.614,0.492,-0.147,-24,-76.3,17.3,1023,2018,4,25,20,15,14.697,0.1294,0.5495,0.4652,-0.6817
0.443,0.402,-0.188,-15.7,-50.7,23.1,0,2018,4,25,20,15,14.701,0.1318,0.5487,0.4754,-0.6748
0.174,0.242,-0.283,-1.8,-10,35.2,0,2018,4,25,20,15,14.738,0.1303,0.5466,0.4817,-0.6723
0.038,-0.028,-0.459,19.8,-6.6,40.5,0,2018,4,25,20,15,14.758,0.1267,0.5423,0.4855,-0.6738
-0.177,-0.262,-0.575,52.6,-76,25.5,0,2018,4,25,20,15,14.762,0.1294,0.5342,0.4923,-0.6748
-0.395,-0.223,-0.413,75.8,-147.1,6.4,0,2018,4,25,20,15,14.801,0.1443,0.5223,0.506,-0.671
-0.497,-0.459,-0.056,75.7,-130.7,-11.9,0,2018,4,25,20,15,14.803,0.1652,0.5093,0.5215,-0.6642
-0.413,-0.482,0.14,54.3,-24.9,-33.8,0,2018,4,25,20,15,14.824,0.1807,0.5016,0.5264,-0.6622
-0.269,-0.335,0.311,27.8,58.7,-51.3,0,2018,4,25,20,15,14.844,0.1875,0.5016,0.5186,-0.6664
-0.15,-0.037,0.547,-7.1,87.7,-57.1,0,2018,4,25,20,15,14.88,0.1878,0.508,0.5041,-0.6725
-0.022,0.439,0.659,-40.7,34.9,-40,0,2018,4,25,20,15,14.9,0.1855,0.5175,0.4928,-0.6743
0.258,0.458,0.382,-53.4,-29.3,-18.7,0,2018,4,25,20,15,14.904,0.1848,0.5257,0.4921,-0.6687
0.411,0.532,0.198,-52.2,-48.4,1.6,0,2018,4,25,20,15,14.926,0.1852,0.5312,0.498,-0.6598
0.336,0.387,-0.102,-43.7,-32.4,24.7,0,2018,4,25,20,15,14.945,0.1832,0.5343,0.5056,-0.6521
0.191,-0.124,-0.62,-14.4,-8.7,31.6,0,2018,4,25,20,15,14.967,0.1787,0.5343,0.5118,-0.6484
0.005,-0.288,-0.998,31.7,-13.5,17.5,0,2018,4,25,20,15,14.987,0.1776,0.5309,0.5149,-0.6491
-0.353,-0.631,-0.715,74.7,17.3,2.9,0,2018,4,25,20,15,15.006,0.1819,0.5231,0.5149,-0.6541
-0.394,-0.678,-0.17,82.8,96.1,-29.5,0,2018,4,25,20,15,15.024,0.1859,0.5166,0.505,-0.6658
-0.372,-0.294,0.261,62.1,161.6,-52.1,0,2018,4,25,20,15,15.059,0.185,0.5161,0.4826,-0.6829
-0.339,0.063,0.486,24.5,158.1,-56.1,0,2018,4,25,20,15,15.081,0.1804,0.5207,0.4563,-0.6986
-0.25,0.471,0.672,-18.4,118.4,-30.9,0,2018,4,25,20,15,15.084,0.1734,0.5282,0.435,-0.7082
-0.066,0.705,0.578,-55.9,43.7,7,0,2018,4,25,20,15,15.123,0.1643,0.5364,0.4247,-0.7104
0.162,0.774,0.271,-70.5,-30.4,46.8,0,2018,4,25,20,15,15.141,0.1557,0.5426,0.4287,-0.7052
0.284,0.678,0,-60.9,-67.7,75.6,0,2018,4,25,20,15,15.144,0.1479,0.5446,0.4428,-0.6966
0.346,0.315,-0.384,-39.2,-57.6,87.8,0,2018,4,25,20,15,15.181,0.1403,0.5424,0.4601,-0.6887
0.382,-0.306,-0.849,0.1,10,64.2,1023,2018,4,25,20,15,15.202,0.1315,0.5378,0.4706,-0.6869
0.197,-0.609,-0.837,43.1,26.3,16.1,1023,2018,4,25,20,15,15.205,0.1265,0.5322,0.4709,-0.692
-0.101,-0.801,-0.326,59,14.5,-34.9,1023,2018,4,25,20,15,15.243,0.1304,0.5267,0.4671,-0.698
-0.232,-0.527,0.155,47,96.3,-80.4,1023,2018,4,25,20,15,15.247,0.1371,0.5261,0.4535,-0.7061
-0.244,-0.188,0.306,17,143.6,-90.7,1023,2018,4,25,20,15,15.264,0.1395,0.5318,0.43,-0.716
-0.256,0.026,0.242,-12.7,241.4,-78.9,1023,2018,4,25,20,15,15.285,0.1324,0.5425,0.3974,-0.7281
-0.232,0.442,0.228,-37.7,316.4,-49.4,1023,2018,4,25,20,15,15.306,0.1114,0.5565,0.3545,-0.743
-0.178,1.019,0.247,-39.1,239.3,-0.7,1023,2018,4,25,20,15,15.346,0.0835,0.5683,0.3142,-0.7558
-0.167,0.875,0.113,-27.1,61.4,57.2,1023,2018,4,25,20,15,15.364,0.0635,0.5731,0.2983,-0.7605
-0.196,0.514,-0.005,-8.9,-33.6,106.4,0,2018,4,25,20,15,15.369,0.0509,0.5711,0.3065,-0.7597
-0.112,0.123,-0.082,5.2,-42.6,138.8,0,2018,4,25,20,15,15.403,0.0389,0.5642,0.3245,-0.7581
0.094,-0.318,-0.16,22,-4.9,133.6,0,2018,4,25,20,15,15.424,0.0237,0.554,0.3411,-0.7589
0.242,-0.397,-0.271,27.2,9.3,96.1,0,2018,4,25,20,15,15.428,0.0092,0.5437,0.3508,-0.7623
0.296,-0.568,-0.299,22.4,-21,39.7,0,2018,4,25,20,15,15.467,0.0022,0.5361,0.3578,-0.7645
0.436,-0.857,-0.345,17,43,-31.1,0,2018,4,25,20,15,15.487,0.0031,0.5335,0.3574,-0.7665
0.301,-0.581,-0.291,10.5,175.3,-81.9,0,2018,4,25,20,15,15.492,0.0013,0.5356,0.3362,-0.7746
0.049,-0.057,-0.154,5.8,260,-104.7,0,2018,4,25,20,15,15.505,-0.0061,0.5396,0.2963,-0.7879
-0.058,0.528,0.068,1.3,242.5,-96.1,0,2018,4,25,20,15,15.541,-0.0166,0.5436,0.2501,-0.801
-0.187,0.616,0.164,-4.6,148.8,-62.4,0,2018,4,25,20,15,15.562,-0.024,0.5464,0.2148,-0.809
-0.264,0.657,0.1,-1.5,67.7,-15.5,0,2018,4,25,20,15,15.566,-0.0287,0.548,0.1957,-0.8127
-0.262,0.796,0.014,6.4,-6.7,44,0,2018,4,25,20,15,15.606,-0.0331,0.547,0.1932,-0.8138
-0.327,0.683,0.017,15.1,-27.1,100.8,0,2018,4,25,20,15,15.625,-0.0413,0.543,0.2031,-0.8136
-0.384,0.301,0.169,16.3,-19.3,134.7,0,2018,4,25,20,15,15.629,-0.0556,0.5364,0.2178,-0.8134
-0.152,-0.235,0.092,11.4,-9.9,139.2,0,2018,4,25,20,15,15.648,-0.0737,0.5292,0.2328,-0.8125
0.216,-0.52,-0.081,14.8,-20.2,103,0,2018,4,25,20,15,15.689,-0.0895,0.5225,0.2457,-0.8115
0.455,-0.607,-0.174,9,-53.5,40.7,0,2018,4,25,20,15,15.707,-0.0954,0.5181,0.2578,-0.8098
0.513,-0.556,-0.22,-1.2,-39.8,-22.2,0,2018,4,25,20,15,15.711,-0.0916,0.5182,0.2657,-0.8076
0.386,-0.363,-0.137,-9.6,18.8,-68.8,0,2018,4,25,20,15,15.728,-0.084,0.5215,0.2627,-0.8073
0.151,0.02,-0.041,-12.8,76.8,-89.4,0,2018,4,25,20,15,15.767,-0.0777,0.5264,0.2473,-0.8096
-0.024,0.318,-0.038,-14,84.3,-77.1,0,2018,4,25,20,15,15.786,-0.0737,0.5309,0.2275,-0.8129
-0.125,0.446,-0.027,-8.2,83.8,-46.3,0,2018,4,25,20,15,15.79,-0.0733,0.5339,0.2093,-0.8158
-0.176,0.727,-0.005,2.3,26.1,1.8,0,2018,4,25,20,15,15.81,-0.0756,0.5344,0.1985,-0.818
-0.121,0.706,-0.027,18.3,-42,58.4,0,2018,4,25,20,15,15.83,-0.0787,0.5321,0.2029,-0.8181
-0.124,0.485,0.045,33.2,-69.5,103.8,1023,2018,4,25,20,15,15.869,-0.084,0.526,0.2198,-0.8172
-0.04,0.12,0.112,45.2,-49.6,121.4,1023,2018,4,25,20,15,15.873,-0.0934,0.5167,0.2393,-0.8166
0.054,-0.26,0.14,55.4,-43.5,105.7,1023,2018,4,25,20,15,15.89,-0.104,0.505,0.2562,-0.8175
0.157,-0.376,-0.067,55,-92.4,68.5,1023,2018,4,25,20,15,15.929,-0.1081,0.4943,0.2738,-0.8178
0.148,-0.674,-0.147,42.9,-138.2,16.7,1023,2018,4,25,20,15,15.949,-0.1013,0.4875,0.2953,-0.8153
0.173,-0.797,-0.219,30.7,-91.9,-37,1023,2018,4,25,20,15,15.953,-0.0872,0.4852,0.3119,-0.8121
0.038,-0.371,-0.155,21.5,-1.4,-73.1,1023,2018,4,25,20,15,15.968,-0.0739,0.4854,0.3129,-0.8129
-0.106,0.045,-0.093,10.3,50.6,-79.2,1023,2018,4,25,20,15,16.007,-0.0645,0.4872,0.3019,-0.8168
-0.144,0.293,-0.04,0,69.9,-61.6,1023,2018,4,25,20,15,16.012,-0.059,0.4897,0.2865,-0.8212
-0.157,0.349,-0.026,-5.1,68.9,-33.3,0,2018,4,25,20,15,16.028,-0.0585,0.4918,0.2722,-0.8249
-0.135,0.584,-0.042,0.9,32.1,7.7,0,2018,4,25,20,15,16.067,-0.0613,0.4924,0.2631,-0.8273
-0.089,0.709,-0.065,14.7,-24.4,59.5,0,2018,4,25,20,15,16.086,-0.066,0.4897,0.2656,-0.8277
-0.116,0.615,-0.069,29.8,-43.1,107.5,0,2018,4,25,20,15,16.09,-0.0741,0.4829,0.2782,-0.8269
-0.202,0.342,-0.017,41.1,-27.5,141.3,0,2018,4,25,20,15,16.128,-0.0875,0.4719,0.2945,-0.8263
-0.136,0.108,-0.034,48.7,-5.6,157.8,0,2018,4,25,20,15,16.15,-0.1057,0.4574,0.3095,-0.8269
-0.044,0.015,-0.049,50.4,-1.4,156.9,0,2018,4,25,20,15,16.152,-0.1256,0.4415,0.323,-0.8275
0.017,0.015,-0.152,52.8,-17.4,141.7,0,2018,4,25,20,15,16.192,-0.1435,0.4261,0.3369,-0.8271
0.01,-0.313,-0.08,53.1,0.1,121.7,0,2018,4,25,20,15,16.212,-0.1585,0.4109,0.3501,-0.8266
0.021,-0.532,0.032,54.2,54.5,86.6,0,2018,4,25,20,15,16.216,-0.1723,0.3957,0.3549,-0.8292
0.079,-0.377,0.194,45.3,70.7,52.4,0,2018,4,25,20,15,16.233,-0.1836,0.3819,0.3517,-0.8346
0.145,-0.153,0.267,28.7,59.8,31.4,0,2018,4,25,20,15,16.252,-0.1919,0.3712,0.3457,-0.8401
0.228,-0.014,0.241,11.4,34.8,19.4,0,2018,4,25,20,15,16.289,-0.1972,0.3652,0.3407,-0.8435
0.394,0.027,0.153,-4.5,15.4,16.3,0,2018,4,25,20,15,16.309,-0.2011,0.3629,0.3386,-0.8444
0.502,0.073,-0.03,-12.6,9.2,13,0,2018,4,25,20,15,16.313,-0.2046,0.363,0.3376,-0.8439
0.483,0.253,-0.25,-2.4,-1.2,10.5,0,2018,4,25,20,15,16.334,-0.2071,0.3633,0.3376,-0.8432
0.378,0.357,-0.379,21,-15.5,12,0,2018,4,25,20,15,16.354,-0.2075,0.3616,0.3403,-0.8427
0.262,0.078,-0.375,44.1,-1.3,11.7,0,2018,4,25,20,15,16.392,-0.2065,0.3562,0.3445,-0.8436
0.212,0.025,-0.293,59.1,77.8,3,0,2018,4,25,20,15,16.412,-0.2072,0.3469,0.34,-0.8491
0.193,0.347,-0.345,77.6,75.8,10,0,2018,4,25,20,15,16.416,-0.2094,0.3331,0.3298,-0.8581
0.118,0.04,-0.413,91.5,51.1,15.7,0,2018,4,25,20,15,16.433,-0.2097,0.3173,0.3255,-0.8656
-0.031,-0.372,-0.498,112.9,136.4,4.9,0,2018,4,25,20,15,16.452,-0.2104,0.2979,0.3163,-0.8757
-0.109,-0.11,-0.248,127.9,190.2,-13.3,0,2018,4,25,20,15,16.471,-0.212,0.2725,0.2937,-0.8913
-0.05,0.118,0.007,130.9,125.4,-17.1,1023,2018,4,25,20,15,16.507,-0.2102,0.2467,0.2726,-0.9058
-0.098,0.001,0.233,129.5,11.2,-10.3,1023,2018,4,25,20,15,16.528,-0.2049,0.224,0.2659,-0.9149
-0.464,-0.847,0.592,107.8,-81.8,-36.9,1023,2018,4,25,20,15,16.534,-0.1944,0.2072,0.2762,-0.918
-0.608,-1.153,0.638,70.4,-127,-96.1,1023,2018,4,25,20,15,16.57,-0.1754,0.1998,0.2936,-0.9181
-0.349,-0.929,0.469,41.8,-180.7,-154.8,1023,2018,4,25,20,15,16.592,-0.1468,0.2026,0.3149,-0.9155
-0.122,-0.855,0.387,24,-210.4,-199.6,1023,2018,4,25,20,15,16.595,-0.1092,0.2123,0.3413,-0.909
-0.09,-0.411,0.361,18.5,-144.9,-230.3,1023,2018,4,25,20,15,16.632,-0.0666,0.2254,0.3619,-0.902
-0.177,0.254,0.304,8.3,-66.5,-231.3,1023,2018,4,25,20,15,16.653,-0.0252,0.2391,0.3683,-0.898
-0.273,0.75,0.249,-6.6,-15.1,-208,1023,2018,4,25,20,15,16.656,0.011,0.2532,0.3648,-0.8959
-0.31,1.183,0.199,-19.2,42.4,-163.9,1023,2018,4,25,20,15,16.692,0.0385,0.2672,0.3536,-0.8955
-0.192,1.52,0.065,-23,39.1,-91.7,0,2018,4,25,20,15,16.695,0.0547,0.279,0.3404,-0.8962
-0.202,1.611,-0.159,1.4,-14.7,-10.1,0,2018,4,25,20,15,16.712,0.0612,0.2841,0.3364,-0.8957
-0.262,1.386,-0.144,35.4,-25.7,86.1,0,2018,4,25,20,15,16.748,0.0574,0.2783,0.3423,-0.8955
-0.181,1.188,-0.04,46.6,56.7,168.9,0,2018,4,25,20,15,16.768,0.0388,0.2638,0.3459,-0.8995
-0.152,1.03,-0.029,54.4,104.3,228.2,0,2018,4,25,20,15,16.773,0.0058,0.244,0.3404,-0.908
-0.118,0.471,-0.134,65.1,74,259.7,0,2018,4,25,20,15,16.808,-0.0339,0.2198,0.3358,-0.9152
-0.201,-1.09,-0.057,67.2,114.8,234.4,0,2018,4,25,20,15,16.831,-0.0734,0.1933,0.333,-0.9199
-0.46,-2.243,0.542,58.8,240.6,136.5,0,2018,4,25,20,15,16.833,-0.1062,0.1693,0.3088,-0.9298
-0.564,-1.966,0.932,22.6,176.5,24.1,0,2018,4,25,20,15,16.872,-0.1231,0.1539,0.2771,-0.9403
0.045,-1.11,0.421,-40.2,-39,-71.5,0,2018,4,25,20,15,16.891,-0.1212,0.155,0.2632,-0.9444
0.339,-1.489,-0.152,-55.6,-89.9,-146.5,0,2018,4,25,20,15,16.899,-0.1023,0.1711,0.2743,-0.9407
0.243,-0.489,-0.378,-42.1,-44.6,-192.4,0,2018,4,25,20,15,16.934,-0.0744,0.1884,0.277,-0.9392
-0.02,0.376,-0.318,-32.9,-59.8,-192.1,0,2018,4,25,20,15,16.955,-0.0424,0.2044,0.278,-0.9375
-0.121,1.051,-0.234,-20.9,-75.2,-158.9,0,2018,4,25,20,15,16.959,-0.0122,0.2179,0.2819,-0.9342
-0.154,1.473,-0.124,-7,-120.6,-90.7,0,2018,4,25,20,15,16.976,0.0108,0.2264,0.2925,-0.9289
-0.288,1.339,-0.037,9.4,-124.8,-24.8,0,2018,4,25,20,15,17.013,0.0249,0.2285,0.3103,-0.9223
-0.235,1.321,0.24,8.9,-50.8,54.4,0,2018,4,25,20,15,17.033,0.0269,0.2257,0.3256,-0.9177
-0.302,1.483,0.37,-5.4,50,153.2,0,2018,4,25,20,15,17.036,0.0094,0.2191,0.3289,-0.9185
-0.275,1.216,0.085,-4.7,121.4,219.1,0,2018,4,25,20,15,17.072,-0.0248,0.2094,0.3212,-0.9232
-0.289,0.958,-0.047,18.1,90.4,270.7,0,2018,4,25,20,15,17.092,-0.0687,0.1937,0.3108,-0.9279
-0.3,-0.221,-0.036,28,11.5,284.6,0,2018,4,25,20,15,17.096,-0.1145,0.1738,0.3136,-0.9264
-0.108,-1.736,0.159,39.7,89.7,219.2,0,2018,4,25,20,15,17.132,-0.1549,0.153,0.3151,-0.9237
-0.583,-2.292,1.143,7.9,46.9,110.7,0,2018,4,25,20,15,17.155,-0.1823,0.1363,0.3052,-0.9246
0.03,-2.074,0.673,-40.1,-11.3,-12.3,1023,2018,4,25,20,15,17.157,-0.1905,0.1365,0.3043,-0.9232
0.323,-1.469,-0.286,-53.5,-25,-109.6,1023,2018,4,25,20,15,17.175,-0.1818,0.1488,0.3047,-0.9229
0.372,-0.757,-0.679,-30.7,-30.2,-170.9,1023,2018,4,25,20,15,17.197,-0.1598,0.1641,0.3031,-0.9249
0.063,-0.454,-0.557,-1.8,-48.7,-207.2,1023,2018,4,25,20,15,17.233,-0.1284,0.1778,0.3037,-0.9271
-0.08,0.085,-0.341,17.9,-62.1,-219.8,1023,2018,4,25,20,15,17.252,-0.0912,0.1888,0.3059,-0.9286
-0.247,0.451,-0.104,28.1,-72.9,-207.7,1023,2018,4,25,20,15,17.257,-0.0526,0.1973,0.3102,-0.9284
-0.409,0.808,0.054,36.3,-36.6,-172.7,1023,2018,4,25,20,15,17.294,-0.018,0.2029,0.3123,-0.9278
-0.427,1.444,0.575,10,-64.8,-105.3,1023,2018,4,25,20,15,17.315,0.0068,0.2066,0.3143,-0.9265
-0.412,1.386,0.85,-33.8,-66.5,-35.5,1023,2018,4,25,20,15,17.32,0.02,0.2124,0.324,-0.9216
-0.263,1.115,0.455,-67.8,21.1,26,0,2018,4,25,20,15,17.354,0.0179,0.2211,0.3276,-0.9183
-0.187,1.289,0.034,-62,63.3,95.3,0,2018,4,25,20,15,17.375,0.002,0.2284,0.3218,-0.9188
-0.171,0.872,-0.221,-39,74.6,153.4,0,2018,4,25,20,15,17.38,-0.0239,0.2294,0.3157,-0.9203
-0.078,0.711,-0.142,-14.3,61.9,199.7,0,2018,4,25,20,15,17.397,-0.0569,0.2233,0.3107,-0.9221
0.001,0.306,0.074,-4.6,-8.5,231.3,0,2018,4,25,20,15,17.415,-0.0936,0.2123,0.3144,-0.9204
0.182,-0.859,0.072,-7.3,-34.9,213.8,0,2018,4,25,20,15,17.457,-0.129,0.2011,0.3278,-0.9139
0.07,-2.028,-0.012,-14.8,79.2,154.9,0,2018,4,25,20,15,17.479,-0.1601,0.1919,0.3312,-0.9098
-0.245,-1.674,0.412,-7.3,105.4,54.2,0,2018,4,25,20,15,17.483,-0.1805,0.1837,0.317,-0.9127
-0.29,-1.185,0.423,-49.7,5,-41.6,0,2018,4,25,20,15,17.498,-0.1838,0.186,0.3089,-0.9144
0.222,-1.53,-0.114,-61.4,-12.9,-149.1,0,2018,4,25,20,15,17.537,-0.1709,0.2015,0.3056,-0.9147
0.164,-0.717,-0.3,-36.1,-19.4,-210,0,2018,4,25,20,15,17.558,-0.1432,0.2195,0.3001,-0.9171
-0.084,0.143,-0.069,-23.8,-14,-227.4,0,2018,4,25,20,15,17.562,-0.1083,0.2358,0.2937,-0.9199
-0.259,0.812,0.055,-28,-1.3,-204.7,0,2018,4,25,20,15,17.603,-0.074,0.251,0.2854,-0.9219
-0.308,1.116,0.078,-19.7,12.1,-153.5,0,2018,4,25,20,15,17.607,-0.0468,0.2639,0.2761,-0.9229
-0.343,1.289,-0.079,-12.8,53.6,-110.5,0,2018,4,25,20,15,17.621,-0.0278,0.2725,0.2649,-0.9245
-0.306,1.491,0.01,-2.6,125.4,-24.9,0,2018,4,25,20,15,17.64,-0.0213,0.2767,0.2469,-0.9284
-0.141,1.822,0.008,12.1,169.2,75.5,0,2018,4,25,20,15,17.661,-0.0326,0.2746,0.223,-0.9347
-0.132,1.733,-0.053,40.1,150.6,176.1,0,2018,4,25,20,15,17.683,-0.0606,0.2642,0.2029,-0.9409
-0.21,1.294,-0.083,65.5,143.4,249.5,0,2018,4,25,20,15,17.701,-0.101,0.246,0.1895,-0.9451
-0.195,0.962,-0.136,93.9,155.3,300.9,0,2018,4,25,20,15,17.741,-0.1505,0.2206,0.1776,-0.9471
-0.25,0.506,0.033,116.6,131.4,327.1,0,2018,4,25,20,15,17.76,-0.2051,0.1888,0.1679,-0.9455
0.038,0.117,-0.067,130.1,111.6,332.7,0,2018,4,25,20,15,17.764,-0.2592,0.1541,0.1636,-0.9392
0.188,-0.118,-0.155,150.3,174.9,343.5,0,2018,4,25,20,15,17.8,-0.3137,0.1149,0.1558,-0.9295
-0.189,-0.501,0.174,172.5,194.6,313.5,0,2018,4,25,20,15,17.82,-0.366,0.0681,0.1392,-0.9175
-0.374,-0.531,0.228,166.5,138.1,280.9,1023,2018,4,25,20,15,17.825,-0.4102,0.0231,0.1277,-0.9027
-0.508,-0.509,0.173,147.7,127.3,247.7,1023,2018,4,25,20,15,17.841,-0.4478,-0.0169,0.1194,-0.8859
-0.407,-0.349,0.175,125,113.3,218.3,1023,2018,4,25,20,15,17.861,-0.4798,-0.0521,0.1103,-0.8688
-0.459,-0.546,0.27,111,67.8,184.7,1023,2018,4,25,20,15,17.881,-0.5068,-0.0814,0.1042,-0.8518
-0.373,-0.654,0.173,99.2,17.3,150.5,1023,2018,4,25,20,15,17.919,-0.5287,-0.1034,0.1055,-0.8358
-0.358,-0.825,0.141,90.2,25.9,108,1023,2018,4,25,20,15,17.941,-0.5451,-0.1212,0.1096,-0.8222
-0.207,-0.617,0.065,77.6,66.1,66.1,1023,2018,4,25,20,15,17.967,-0.5546,-0.1393,0.1091,-0.813
-0.183,-0.316,0.099,60.3,90,33.8,1023,2018,4,25,20,15,17.98,-0.5579,-0.1582,0.1031,-0.808
-0.061,-0.15,0.033,38.1,86.8,13.2,1023,2018,4,25,20,15,17.982,-0.5576,-0.1741,0.0945,-0.8061
-0.062,-0.099,-0.022,28.9,65.4,5.7,0,2018,4,25,20,15,18.02,-0.5557,-0.1862,0.0871,-0.8055
-0.095,-0.116,0.013,24.8,32.5,2.2,0,2018,4,25,20,15,18.041,-0.5542,-0.1947,0.0828,-0.8049
-0.065,-0.116,0.021,19.1,15.7,-2.2,0,2018,4,25,20,15,18.046,-0.5532,-0.1999,0.0819,-0.8045
-0.115,-0.077,0.13,13.6,8.3,-7.5,0,2018,4,25,20,15,18.068,-0.5515,-0.2034,0.0828,-0.8046
-0.219,0.001,0.293,-4,-11.3,-15.2,0,2018,4,25,20,15,18.087,-0.5497,-0.204,0.0846,-0.8055
-0.293,-0.049,0.292,-29.3,-26.6,-26.7,0,2018,4,25,20,15,18.104,-0.5476,-0.1998,0.0872,-0.8078
-0.175,-0.046,0.176,-46.8,-41.9,-42.5,0,2018,4,25,20,15,18.124,-0.5442,-0.1908,0.0903,-0.8119
-0.175,-0.264,0.245,-54.9,-39.1,-57.3,0,2018,4,25,20,15,18.143,-0.5392,-0.1786,0.0938,-0.8176
-0.312,-0.52,0.498,-74.5,-17.4,-81.8,0,2018,4,25,20,15,18.164,-0.5312,-0.1658,0.0939,-0.8254
-0.27,-0.513,0.416,-102.7,-25.4,-112.9,0,2018,4,25,20,15,18.184,-0.5188,-0.1495,0.0913,-0.8367
-0.19,-0.429,0.253,-121.5,-42.3,-139.2,0,2018,4,25,20,15,18.204,-0.5025,-0.1278,0.0896,-0.8503
-0.029,-0.185,0.104,-134.1,-45.8,-157.7,0,2018,4,25,20,15,18.226,-0.4829,-0.1023,0.0884,-0.8651
0.224,0.167,-0.161,-138.4,-30,-155.2,0,2018,4,25,20,15,18.246,-0.4612,-0.0752,0.0859,-0.8798
0.501,0.57,-0.496,-121.8,-7.7,-125.9,0,2018,4,25,20,15,18.286,-0.4412,-0.0515,0.08,-0.8923
0.641,0.79,-0.672,-82.6,-22.6,-95.1,0,2018,4,25,20,15,18.305,-0.4255,-0.0331,0.0752,-0.9011
0.555,0.61,-0.619,-37.9,-27.1,-77,0,2018,4,25,20,15,18.309,-0.4129,-0.0207,0.0762,-0.9073
0.428,0.501,-0.459,-2.9,12.3,-57.2,0,2018,4,25,20,15,18.324,-0.4023,-0.0163,0.0767,-0.9121
0.353,0.548,-0.268,27.3,64.9,-27.5,0,2018,4,25,20,15,18.363,-0.3951,-0.0208,0.0715,-0.9155
0.231,0.665,-0.142,53.1,77.6,10.2,0,2018,4,25,20,15,18.382,-0.3929,-0.0326,0.0622,-0.9168
0.179,0.68,-0.182,77.6,49.5,49.8,0,2018,4,25,20,15,18.386,-0.3967,-0.048,0.0564,-0.9149
0.087,0.517,-0.235,100.8,23.9,83.6,0,2018,4,25,20,15,18.425,-0.4062,-0.0655,0.0566,-0.9096
-0.099,0.314,-0.177,119.7,10.4,105.2,0,2018,4,25,20,15,18.444,-0.42,-0.0854,0.061,-0.9014
-0.33,0.041,0.1,118.8,4,114.2,0,2018,4,25,20,15,18.448,-0.4357,-0.1063,0.0672,-0.8912
-0.468,-0.191,0.291,94.8,-5.6,114.4,0,2018,4,25,20,15,18.467,-0.452,-0.1243,0.0738,-0.8801
-0.676,-0.513,0.541,52.3,-4.9,85.5,1023,2018,4,25,20,15,18.486,-0.4664,-0.1368,0.0783,-0.8703
-0.697,-0.538,0.48,0.1,-38.5,39.7,1023,2018,4,25,20,15,18.528,-0.4759,-0.1399,0.0819,-0.8644
-0.431,-0.358,0.249,-36.5,-95.9,-8.2,1023,2018,4,25,20,15,18.532,-0.4796,-0.1313,0.0905,-0.8628
-0.226,-0.43,0.213,-54.3,-97.6,-42.1,1023,2018,4,25,20,15,18.548,-0.4786,-0.1151,0.1028,-0.8643
-0.22,-0.263,0.218,-65.2,-54.8,-65.8,1023,2018,4,25,20,15,18.565,-0.4726,-0.0988,0.1104,-0.8687
-0.251,0.049,0.091,-69.6,-39.1,-77.3,1023,2018,4,25,20,15,18.585,-0.4634,-0.0838,0.1128,-0.8749
-0.252,0.202,-0.078,-69.7,-44.3,-76.7,1023,2018,4,25,20,15,18.624,-0.4532,-0.0682,0.1149,-0.8812
-0.204,0.321,-0.224,-64.8,-42.3,-68,1023,2018,4,25,20,15,18.644,-0.4436,-0.053,0.1176,-0.8868
-0.138,0.492,-0.252,-54.6,-31.3,-51.6,1023,2018,4,25,20,15,18.648,-0.4355,-0.0399,0.1197,-0.8912
-0.053,0.634,-0.251,-44,-25.1,-23.9,1023,2018,4,25,20,15,18.667,-0.4306,-0.0295,0.1207,-0.8939
0.023,0.739,-0.229,-32.1,-20.1,18.3,0,2018,4,25,20,15,18.707,-0.4309,-0.0219,0.1214,-0.8938
0.065,0.706,-0.153,-20.1,-12.3,66.7,0,2018,4,25,20,15,18.727,-0.4382,-0.0177,0.1222,-0.8903
0.165,0.736,-0.113,-18.9,-1.5,125.8,0,2018,4,25,20,15,18.731,-0.4535,-0.0164,0.1217,-0.8827
0.264,0.747,-0.096,-14.3,-6.2,195.3,0,2018,4,25,20,15,18.751,-0.4785,-0.0172,0.1203,-0.8696
0.108,0.572,0.078,-16.8,-64.9,259.6,0,2018,4,25,20,15,18.77,-0.5133,-0.0174,0.1234,-0.849
-0.224,-0.257,0.217,-48.7,-117.1,298.4,0,2018,4,25,20,15,18.807,-0.5555,-0.01,0.1344,-0.8205
-0.454,-0.997,0.067,-82.2,-63.2,294.7,0,2018,4,25,20,15,18.811,-0.599,0.0018,0.1412,-0.7881
-0.567,-1.085,0.065,-87.3,-33.4,244.2,0,2018,4,25,20,15,18.827,-0.6377,0.0108,0.1371,-0.7578
-0.531,-0.789,0.156,-84.4,-117.4,171.3,0,2018,4,25,20,15,18.864,-0.6663,0.0255,0.1377,-0.7323
-0.582,-0.943,-0.143,-81,-119.6,116.4,0,2018,4,25,20,15,18.886,-0.6853,0.0482,0.145,-0.7119
-0.447,-0.842,-0.451,-42.3,-46.3,75.7,0,2018,4,25,20,15,18.89,-0.6976,0.0634,0.1487,-0.6979
-0.403,-0.688,-0.484,7.2,8.3,43.3,0,2018,4,25,20,15,18.927,-0.7047,0.065,0.149,-0.6905
-0.294,-0.539,-0.479,53.1,-9.1,21,0,2018,4,25,20,15,18.948,-0.7076,0.0598,0.1532,-0.6871
-0.065,-0.362,-0.454,86.7,-44.5,9.8,0,2018,4,25,20,15,18.952,-0.7069,0.0539,0.1658,-0.6854
0.148,-0.243,-0.386,116.8,-74.8,11.9,0,2018,4,25,20,15,18.972,-0.7042,0.0485,0.1861,-0.6833
0.341,-0.183,-0.269,142.6,-92.1,22.5,0,2018,4,25,20,15,19.009,-0.7008,0.0425,0.213,-0.6794
0.54,0.057,0.16,152.6,-81.8,41.1,0,2018,4,25,20,15,19.013,-0.6978,0.0338,0.2421,-0.6731
0.95,0.172,0.516,118.1,-80.1,56.3,0,2018,4,25,20,15,19.028,-0.697,0.025,0.2686,-0.6642
1.462,0.155,0.859,70.6,-83.7,51.9,0,2018,4,25,20,15,19.066,-0.6984,0.0212,0.2902,-0.6538
1.694,0.222,1.051,6.8,-75.8,37.4,0,2018,4,25,20,15,19.087,-0.7011,0.0241,0.3043,-0.6443
1.685,0.205,0.985,-57.7,-65.3,10.6,0,2018,4,25,20,15,19.09,-0.7048,0.0342,0.3091,-0.6375
1.346,-0.095,0.758,-109.8,-46.2,-16.7,0,2018,4,25,20,15,19.127,-0.7086,0.0507,0.305,-0.6341
0.98,-0.211,0.355,-132.6,-0.2,-39.9,0,2018,4,25,20,15,19.149,-0.7115,0.0684,0.292,-0.6354
0.63,-0.166,-0.02,-123,29,-49.2,1023,2018,4,25,20,15,19.153,-0.7129,0.083,0.2734,-0.6403
0.136,-0.013,-0.231,-93.4,33.8,-41.4,1023,2018,4,25,20,15,19.174,-0.7131,0.0928,0.2557,-0.646
-0.387,-0.027,-0.25,-60.7,22.8,-22.3,1023,2018,4,25,20,15,19.192,-0.7132,0.0993,0.2427,-0.6499
-1.111,-0.445,-0.094,-40.1,45.3,-9.2,1023,2018,4,25,20,15,19.231,-0.7141,0.1013,0.2331,-0.6522
-1.632,-0.536,-0.159,-23.5,79.9,-6.9,1023,2018,4,25,20,15,19.252,-0.7155,0.0965,0.2219,-0.6553
-1.678,-0.197,-0.371,-9.9,42.9,-10.8,1023,2018,4,25,20,15,19.256,-0.7161,0.0899,0.2126,-0.6586
-1.401,-0.018,-0.469,3.7,-41.8,-10.3,1023,2018,4,25,20,15,19.271,-0.7148,0.0904,0.2124,-0.66
-1.042,-0.102,-0.48,25.1,-91,-5.8,1023,2018,4,25,20,15,19.29,-0.712,0.0975,0.2228,-0.6586
-0.749,-0.356,-0.399,47.2,-63.4,-1.3,1023,2018,4,25,20,15,19.31,-0.7086,0.1032,0.237,-0.6565
-0.319,-0.196,-0.416,76.7,-22.1,7.5,0,2018,4,25,20,15,19.348,-0.7054,0.1004,0.2495,-0.6556
0.158,0.1,-0.318,106.2,-34.6,20.7,0,2018,4,25,20,15,19.369,-0.7023,0.092,0.2643,-0.6544
0.783,0.341,0.236,120.9,-56.3,37.2,0,2018,4,25,20,15,19.373,-0.6992,0.0828,0.2848,-0.6503
1.481,0.245,0.819,98.1,-39.9,41.4,0,2018,4,25,20,15,19.394,-0.6973,0.074,0.3053,-0.6441
1.864,0.342,0.974,55.7,-13.6,25.1,0,2018,4,25,20,15,19.414,-0.6966,0.0657,0.3178,-0.6397
1.726,0.328,0.826,0.1,-36.6,8.5,0,2018,4,25,20,15,19.452,-0.6964,0.0647,0.3246,-0.6367
1.246,-0.216,0.873,-59.6,-24.4,-12.8,0,2018,4,25,20,15,19.471,-0.6974,0.072,0.3249,-0.6346
0.847,-0.374,0.582,-106.8,0.7,-33.5,0,2018,4,25,20,15,19.475,-0.6992,0.084,0.3155,-0.6359
0.41,-0.324,0.319,-127.5,25.8,-38.2,0,2018,4,25,20,15,19.491,-0.7017,0.0972,0.299,-0.6393
0.014,-0.241,0.072,-126,32,-34.9,0,2018,4,25,20,15,19.529,-0.7044,0.1093,0.2794,-0.6431
-0.492,-0.193,-0.145,-109.1,33.6,-26.1,0,2018,4,25,20,15,19.55,-0.707,0.1197,0.2611,-0.6461
-1.139,-0.259,-0.191,-85.6,45.7,-15.8,0,2018,4,25,20,15,19.554,-0.7098,0.1264,0.2446,-0.6483
-1.628,-0.341,-0.335,-62.8,62.3,-13.6,0,2018,4,25,20,15,19.591,-0.7123,0.1282,0.2292,-0.6508
-1.606,-0.122,-0.569,-35.2,40.8,-14,0,2018,4,25,20,15,19.611,-0.7137,0.1275,0.2169,-0.6536
-1.42,-0.001,-0.622,-3.7,3.4,-12.2,0,2018,4,25,20,15,19.615,-0.7133,0.1271,0.2119,-0.6557
-1.069,-0.053,-0.532,30.6,-23.5,-0.7,0,2018,4,25,20,15,19.636,-0.7117,0.1272,0.2152,-0.6564
-0.724,-0.209,-0.421,64.2,-9.3,12.8,0,2018,4,25,20,15,19.656,-0.7101,0.1235,0.2238,-0.656
-0.288,-0.119,-0.323,96.5,4.5,30.3,0,2018,4,25,20,15,19.693,-0.7093,0.113,0.2344,-0.6549
0.104,0.068,-0.158,120.4,-17.9,49.5,0,2018,4,25,20,15,19.714,-0.709,0.0993,0.2496,-0.6519
0.631,0.232,0.211,128.9,-44.9,68.6,0,2018,4,25,20,15,19.718,-0.7094,0.0862,0.2702,-0.6451
1.386,0.258,0.802,108.9,-53.1,71.3,0,2018,4,25,20,15,19.735,-0.7108,0.0751,0.2921,-0.6353
1.812,0.279,1.12,61.3,-39.7,46.5,0,2018,4,25,20,15,19.754,-0.7123,0.068,0.3087,-0.6266
1.751,0.37,0.921,1.8,-57.1,19.8,0,2018,4,25,20,15,19.774,-0.7134,0.0689,0.3185,-0.6203
1.359,-0.052,0.83,-54.6,-47.6,-13.9,1023,2018,4,25,20,15,19.814,-0.7145,0.0784,0.3212,-0.6164
0.929,-0.322,0.599,-99.5,-15.2,-47.7,1023,2018,4,25,20,15,19.836,-0.7148,0.0924,0.3144,-0.6176
0.562,-0.272,0.329,-122.3,29.7,-58.9,1023,2018,4,25,20,15,19.84,-0.715,0.1063,0.2988,-0.6229
0.277,-0.187,0.057,-126.2,56.2,-52.9,1023,2018,4,25,20,15,19.857,-0.7159,0.1167,0.2773,-0.6299
-0.058,-0.225,-0.147,-114.6,60.8,-42,1023,2018,4,25,20,15,19.877,-0.7174,0.1244,0.2551,-0.636
-0.651,-0.462,-0.16,-97.3,77.6,-36.6,1023,2018,4,25,20,15,19.898,-0.7191,0.1289,0.2337,-0.6415
-1.191,-0.555,-0.227,-79,99.2,-32,1023,2018,4,25,20,15,19.937,-0.7206,0.1284,0.2118,-0.6475
-1.457,-0.349,-0.393,-59.4,78.6,-25,1023,2018,4,25,20,15,19.956,-0.7217,0.1253,0.1923,-0.6529
-1.413,-0.148,-0.579,-34.4,6.7,-18.6,1023,2018,4,25,20,15,19.96,-0.7217,0.1258,0.1812,-0.656
-1.119,-0.179,-0.608,-2,-51.8,-18.4,0,2018,4,25,20,15,19.999,-0.7194,0.1319,0.1822,-0.657
-0.796,-0.257,-0.513,29.8,-52.4,-21.4,0,2018,4,25,20,15,20.003,-0.7153,0.1376,0.1898,-0.6582
-0.412,-0.276,-0.428,62.2,-45.2,-19.2,0,2018,4,25,20,15,20.019,-0.7102,0.139,0.2005,-0.6602
-0.01,-0.097,-0.317,94.8,-67.7,-9.9,0,2018,4,25,20,15,20.037,-0.7043,0.1372,0.2161,-0.662
0.444,0.107,0.092,111,-98.7,6.3,0,2018,4,25,20,15,20.057,-0.698,0.1356,0.2388,-0.6612
1.055,0.304,0.575,96.4,-107.4,10.6,0,2018,4,25,20,15,20.077,-0.6919,0.1358,0.2641,-0.6579
1.571,0.223,0.974,58.5,-70.6,-4.7,0,2018,4,25,20,15,20.096,-0.6865,0.1376,0.2842,-0.6549
1.692,0.37,0.883,11.3,-42.3,-39.6,0,2018,4,25,20,15,20.135,-0.681,0.1406,0.2937,-0.6558
1.388,0.223,0.726,-35.5,-22.1,-63.7,0,2018,4,25,20,15,20.155,-0.6749,0.1482,0.2947,-0.66
0.954,-0.109,0.616,-81,12.8,-81.2,0,2018,4,25,20,15,20.158,-0.6692,0.1596,0.2865,-0.6666
0.564,-0.347,0.377,-112.3,52.6,-96.3,0,2018,4,25,20,15,20.198,-0.6644,0.1712,0.2685,-0.676
0.242,-0.408,0.138,-127.2,57.4,-100.7,0,2018,4,25,20,15,20.201,-0.6599,0.1829,0.2446,-0.6863
-0.179,-0.595,-0.044,-128.1,22.7,-112.8,0,2018,4,25,20,15,20.219,-0.6536,0.1979,0.2216,-0.696
-0.702,-0.753,-0.144,-119.8,-11.1,-127.7,0,2018,4,25,20,15,20.257,-0.6435,0.217,0.2026,-0.7054
-0.919,-0.672,-0.381,-104,-49.6,-131.3,0,2018,4,25,20,15,20.277,-0.6299,0.2387,0.189,-0.7144
-1.06,-0.682,-0.425,-79.4,-89.9,-131.6,0,2018,4,25,20,15,20.281,-0.6131,0.2621,0.1824,-0.7224
-0.907,-0.333,-0.687,-49.5,-147.4,-126.9,0,2018,4,25,20,15,20.298,-0.5931,0.2866,0.1839,-0.7294
-0.663,-0.336,-0.69,-9.2,-174.2,-117.5,0,2018,4,25,20,15,20.336,-0.5699,0.3112,0.1955,-0.7348
-0.353,-0.315,-0.586,33.8,-184.9,-113,0,2018,4,25,20,15,20.356,-0.5446,0.3314,0.2129,-0.7404
-0.014,-0.196,-0.471,74.7,-221.2,-118.5,0,2018,4,25,20,15,20.36,-0.5156,0.3475,0.237,-0.7463
0.309,-0.075,-0.347,118,-262.7,-134.9,0,2018,4,25,20,15,20.4,-0.4796,0.3618,0.2696,-0.7525
0.481,-0.106,-0.028,152.1,-232.2,-160.8,0,2018,4,25,20,15,20.404,-0.4367,0.3719,0.3044,-0.7604
0.441,-0.144,0.412,168,-132.1,-191.6,0,2018,4,25,20,15,20.42,-0.3921,0.3733,0.3289,-0.7736
0.288,0.092,0.91,146.4,3.9,-216.4,0,2018,4,25,20,15,20.437,-0.3506,0.3675,0.3342,-0.7938
0.192,0.239,0.989,86.3,94.3,-232.7,1023,2018,4,25,20,15,20.476,-0.316,0.3606,0.3182,-0.8177
0.265,0.429,0.898,20.9,67.6,-245.8,1023,2018,4,25,20,15,20.496,-0.2844,0.3611,0.2919,-0.8386
0.118,0.272,0.955,-35.2,-8.2,-237.1,1023,2018,4,25,20,15,20.5,-0.2511,0.373,0.2718,-0.8507
-0.015,0.16,0.794,-77.9,-70.1,-224.6,1023,2018,4,25,20,15,20.521,-0.2166,0.3943,0.2601,-0.8543
-0.133,0.092,0.49,-102.6,-101.5,-210.2,1023,2018,4,25,20,15,20.54,-0.182,0.421,0.2545,-0.8513
-0.317,0.159,0.296,-112.9,-107.5,-190.2,1023,2018,4,25,20,15,20.58,-0.149,0.4491,0.2519,-0.8441
-0.513,0.121,0.059,-120.6,-78.8,-160,1023,2018,4,25,20,15,20.584,-0.1207,0.4762,0.249,-0.8346
-0.564,-0.089,-0.291,-120,0.2,-140.7,1023,2018,4,25,20,15,20.602,-0.1011,0.501,0.2397,-0.8253
-0.558,0.164,-0.416,-98.1,40.5,-121,1023,2018,4,25,20,15,20.641,-0.0893,0.5216,0.222,-0.8188
-0.544,0.212,-0.486,-63,16.2,-100.2,1023,2018,4,25,20,15,20.645,-0.0795,0.5368,0.2062,-0.8141
-0.339,0.188,-0.548,-14.8,-20.9,-80.9,0,2018,4,25,20,15,20.663,-0.0676,0.5455,0.1977,-0.8116
-0.089,0.204,-0.494,32.4,-46.1,-58,0,2018,4,25,20,15,20.685,-0.0543,0.5468,0.1959,-0.8121
0.035,0.35,-0.243,70.6,-69.3,-32.8,0,2018,4,25,20,15,20.704,-0.0401,0.5412,0.2008,-0.8155
0.205,0.629,0.075,86.4,-65,-7.3,0,2018,4,25,20,15,20.722,-0.0282,0.5308,0.2091,-0.8208
0.359,0.814,0.235,83.9,-65.9,20.3,0,2018,4,25,20,15,20.74,-0.0198,0.5183,0.2196,-0.8262
0.493,0.66,0.206,70.5,-57.9,40.8,0,2018,4,25,20,15,20.763,-0.0158,0.506,0.2318,-0.8305
0.525,0.405,0.111,55,-48.8,46.7,0,2018,4,25,20,15,20.781,-0.0154,0.4954,0.2433,-0.8337
0.291,-0.045,0.194,37.6,-59.9,35.5,0,2018,4,25,20,15,20.799,-0.0149,0.4869,0.2543,-0.8354
-0.016,-0.59,0.219,7.9,-109.4,8,0,2018,4,25,20,15,20.838,-0.0099,0.4825,0.2683,-0.8337
-0.246,-1.197,-0.097,-24.2,-117.6,-37.7,0,2018,4,25,20,15,20.858,0.0015,0.4849,0.2846,-0.8269
-0.478,-1.076,-0.282,-30.8,-46.8,-92.8,0,2018,4,25,20,15,20.862,0.0172,0.4923,0.2912,-0.82
-0.701,-0.515,-0.27,-35.7,51.8,-119.2,0,2018,4,25,20,15,20.901,0.0307,0.5026,0.2811,-0.8169
-0.736,-0.172,-0.287,-42.3,133.3,-116.2,0,2018,4,25,20,15,20.905,0.0372,0.5145,0.2568,-0.8172
-0.714,0.462,-0.294,-38.4,105.8,-90,0,2018,4,25,20,15,20.922,0.0389,0.5256,0.2287,-0.8184
-0.623,0.578,-0.246,-27.3,35.9,-37.5,0,2018,4,25,20,15,20.942,0.0405,0.5333,0.2137,-0.8174
-0.344,0.735,-0.162,-3.3,-1.5,20.8,0,2018,4,25,20,15,20.963,0.0395,0.5359,0.2108,-0.8165
0.093,1.021,0.145,18.1,-22.9,84.2,0,2018,4,25,20,15,21.002,0.0337,0.5325,0.2182,-0.817
0.489,0.92,0.388,25.8,20.4,131.2,0,2018,4,25,20,15,21.022,0.0192,0.5248,0.2291,-0.8195
0.706,0.676,0.283,27.9,78.6,139.7,0,2018,4,25,20,15,21.026,-0.0047,0.5154,0.2336,-0.8244
0.616,-0.035,0.319,38.6,67,109.3,0,2018,4,25,20,15,21.044,-0.0286,0.5052,0.2339,-0.8301
0.544,-0.594,0.213,21.9,-6.6,48.5,0,2018,4,25,20,15,21.084,-0.041,0.4968,0.236,-0.8341
0.159,-0.876,0.079,-11.2,-59.9,-1.5,0,2018,4,25,20,15,21.103,-0.0407,0.4955,0.2437,-0.8327
-0.156,-0.868,0.091,-35,-28.8,-50.2,1023,2018,4,25,20,15,21.108,-0.0331,0.5005,0.2488,-0.8284
-0.308,-0.651,-0.048,-56.4,110.9,-78.2,1023,2018,4,25,20,15,21.121,-0.0288,0.51,0.2372,-0.8262
-0.354,-0.186,-0.161,-66.2,241.5,-86,1023,2018,4,25,20,15,21.16,-0.0357,0.5212,0.2024,-0.8282
-0.338,0.193,-0.197,-64.9,288.7,-68.3,1023,2018,4,25,20,15,21.179,-0.0513,0.5314,0.155,-0.8311
-0.347,0.19,-0.11,-51.8,300.5,-45.7,1023,2018,4,25,20,15,21.182,-0.0723,0.5381,0.106,-0.833
-0.243,0.31,0.044,-32,275.3,-30.8,1023,2018,4,25,20,15,21.218,-0.0948,0.5404,0.0594,-0.8338
-0.06,0.379,0.154,-19.4,230.4,-16.9,1023,2018,4,25,20,15,21.238,-0.1156,0.5395,0.0199,-0.8337
0.277,0.567,0.166,-11.3,147.4,-9.4,0,2018,4,25,20,15,21.243,-0.1316,0.5376,-0.0091,-0.8327
0.556,0.496,0.155,-13.5,70.2,-10.8,0,2018,4,25,20,15,21.28,-0.14,0.5369,-0.0254,-0.8315
0.561,0.373,0.195,-18.4,30.3,-25.5,0,2018,4,25,20,15,21.299,-0.1417,0.5379,-0.0341,-0.8302
0.53,0.24,0.128,-29.6,18.7,-47.7,0,2018,4,25,20,15,21.304,-0.1383,0.5406,-0.0414,-0.8287
0.496,0.079,0.032,-43.5,27.4,-68.7,0,2018,4,25,20,15,21.345,-0.1315,0.5451,-0.0514,-0.8263
0.436,-0.158,-0.06,-59.3,34.7,-89.4,0,2018,4,25,20,15,21.364,-0.1223,0.5516,-0.0651,-0.8224
0.356,-0.339,-0.328,-72.8,41.4,-110.3,0,2018,4,25,20,15,21.369,-0.1107,0.5591,-0.0818,-0.8175
0.134,-0.432,-0.462,-73.7,45.9,-138.2,0,2018,4,25,20,15,21.385,-0.0962,0.5669,-0.1016,-0.8117
-0.158,-0.258,-0.472,-69.8,35,-162,0,2018,4,25,20,15,21.421,-0.0774,0.5734,-0.1237,-0.8061
-0.313,-0.14,-0.525,-61.4,17.2,-167.8,0,2018,4,25,20,15,21.44,-0.0551,0.5784,-0.1447,-0.8008
-0.451,-0.06,-0.591,-44,11.5,-156.4,0,2018,4,25,20,15,21.444,-0.0322,0.5813,-0.1636,-0.7963
-0.594,0.041,-0.573,-17.7,8.9,-128.5,0,2018,4,25,20,15,21.465,-0.0126,0.5812,-0.1797,-0.7934
-0.655,0.187,-0.516,12.7,-2.8,-89,0,2018,4,25,20,15,21.487,0.0021,0.578,-0.1913,-0.7932
-0.701,0.395,-0.393,48.1,-38.3,-37.7,0,2018,4,25,20,15,21.523,0.0118,0.5715,-0.1949,-0.7969
-0.693,0.393,-0.295,74.8,-76.3,26.6,0,2018,4,25,20,15,21.543,0.0164,0.5624,-0.187,-0.8052
-0.536,0.343,-0.26,94.4,-78.6,88.1,0,2018,4,25,20,15,21.547,0.0131,0.5519,-0.17,-0.8162
-0.356,0.24,-0.011,109.3,-27,135.3,0,2018,4,25,20,15,21.569,-0.0007,0.5402,-0.1512,-0.8278
-0.116,0.114,0.395,100.6,50,154.6,0,2018,4,25,20,15,21.588,-0.0263,0.5284,-0.1391,-0.837
0.251,-0.005,0.501,78.7,100.3,133.8,0,2018,4,25,20,15,21.606,-0.0571,0.5179,-0.1368,-0.8424
0.553,-0.088,0.529,51.8,109.9,90.2,0,2018,4,25,20,15,21.626,-0.0852,0.5097,-0.1419,-0.8442
0.704,0.032,0.631,10.4,40,33.8,0,2018,4,25,20,15,21.645,-0.1018,0.5053,-0.148,-0.844
0.676,-0.187,0.454,-32.6,-18.2,-18.3,0,2018,4,25,20,15,21.665,-0.1027,0.5072,-0.1482,-0.8426
0.482,-0.079,0.204,-69,-46.7,-60.2,0,2018,4,25,20,15,21.707,-0.0924,0.5145,-0.1478,-0.8395
0.214,-0.027,-0.006,-93.5,-62.3,-84.1,0,2018,4,25,20,15,21.726,-0.0743,0.5261,-0.1473,-0.8342
0.016,-0.092,-0.196,-106.7,-43.3,-93.5,0,2018,4,25,20,15,21.73,-0.0535,0.5396,-0.1489,-0.8268
-0.13,-0.083,-0.351,-101.9,4.9,-92.7,0,2018,4,25,20,15,21.75,-0.0354,0.5524,-0.156,-0.818
-0.281,0.025,-0.429,-80,27,-82.2,1023,2018,4,25,20,15,21.77,-0.0224,0.5628,-0.1678,-0.809
-0.499,0.076,-0.536,-44.9,17.1,-69.6,1023,2018,4,25,20,15,21.806,-0.0122,0.5693,-0.1788,-0.8023
-0.549,0.147,-0.617,1.5,-9.1,-50.2,1023,2018,4,25,20,15,21.826,-0.0035,0.5703,-0.1854,-0.8001
-0.602,0.159,-0.617,53,-29,-19.7,1023,2018,4,25,20,15,21.83,0.0025,0.5652,-0.1859,-0.8036
-0.574,0.194,-0.452,101.7,-17,19.9,1023,2018,4,25,20,15,21.846,0.0024,0.554,-0.1824,-0.8122
-0.456,0.366,-0.122,130.6,10.5,65.4,1023,2018,4,25,20,15,21.867,-0.007,0.5383,-0.1776,-0.8237
-0.32,0.554,0.165,135.7,42.3,119.5,1023,2018,4,25,20,15,21.888,-0.0271,0.5214,-0.1726,-0.8352
-0.301,0.631,0.211,122.1,58.5,175.4,1023,2018,4,25,20,15,21.908,-0.0576,0.5064,-0.1661,-0.8441
-0.291,0.681,0.332,98.9,18.3,226.5,1023,2018,4,25,20,15,21.928,-0.0945,0.4952,-0.1532,-0.8499
-0.23,0.523,0.375,72.2,-51.6,258.8,1023,2018,4,25,20,15,21.967,-0.1315,0.4889,-0.1277,-0.8528
-0.149,0.237,0.262,50.3,-103.6,268.3,0,2018,4,25,20,15,21.987,-0.1653,0.4871,-0.0914,-0.8526
-0.073,0.008,0.13,33.1,-132.9,254.9,0,2018,4,25,20,15,21.991,-0.1944,0.488,-0.0499,-0.8494
-0.002,-0.323,-0.02,27.8,-140.7,230.8,0,2018,4,25,20,15,22.012,-0.2189,0.4896,-0.0078,-0.8439
0.168,-0.537,-0.151,31.7,-150.9,191.3,0,2018,4,25,20,15,22.032,-0.2373,0.4906,0.0326,-0.8377
0.377,-0.666,-0.271,39.7,-163,143.4,0,2018,4,25,20,15,22.051,-0.2478,0.4906,0.0716,-0.8322
0.566,-0.812,-0.249,56.1,-151.8,75,0,2018,4,25,20,15,22.09,-0.249,0.4891,0.1063,-0.8291
0.745,-0.637,-0.027,65.7,-114.5,8.8,0,2018,4,25,20,15,22.095,-0.2418,0.4849,0.132,-0.8299
0.895,-0.463,0.31,54.6,-50.5,-54.1,0,2018,4,25,20,15,22.11,-0.2296,0.4803,0.1444,-0.834
0.946,-0.644,0.346,22.3,43.4,-117.9,0,2018,4,25,20,15,22.147,-0.2153,0.4777,0.139,-0.8402
0.83,-0.26,0.145,-9.3,103.8,-182.3,0,2018,4,25,20,15,22.168,-0.1995,0.4773,0.114,-0.8481
0.6,0.112,0.07,-33.2,68.9,-213.8,0,2018,4,25,20,15,22.173,-0.1775,0.4811,0.083,-0.8544
0.35,0.196,-0.096,-42.9,6.3,-225.5,0,2018,4,25,20,15,22.193,-0.1481,0.4886,0.0577,-0.8578
0.088,0.108,-0.266,-34.9,-37.7,-227.7,0,2018,4,25,20,15,22.212,-0.1125,0.497,0.0403,-0.8594
-0.172,0.199,-0.353,-17.3,-39.8,-211.7,0,2018,4,25,20,15,22.231,-0.0758,0.5028,0.0268,-0.8606
-0.212,0.235,-0.453,1.7,-21.6,-182.6,0,2018,4,25,20,15,22.252,-0.0435,0.5049,0.0141,-0.8619
-0.212,0.519,-0.436,20.6,-23.1,-142.8,0,2018,4,25,20,15,22.29,-0.0172,0.5035,0.0026,-0.8638
-0.25,0.422,-0.282,37.3,-11.7,-90.3,0,2018,4,25,20,15,22.295,0.0019,0.499,-0.0041,-0.8665
-0.305,0.47,-0.201,45.6,23.6,-42.1,0,2018,4,25,20,15,22.31,0.011,0.4925,-0.0111,-0.8701
-0.365,0.651,-0.212,48.1,28.3,12,0,2018,4,25,20,15,22.345,0.0105,0.4854,-0.0168,-0.874
-0.39,0.641,-0.234,51.6,12.3,64.9,0,2018,4,25,20,15,22.365,0.0022,0.4778,-0.0164,-0.8782
-0.448,0.505,-0.198,52.7,-16.6,103.6,0,2018,4,25,20,15,22.369,-0.0109,0.4699,-0.0089,-0.8825
-0.468,0.319,-0.158,50.6,-34.9,132.8,0,2018,4,25,20,15,22.408,-0.0272,0.4621,0.0053,-0.8863
-0.494,0.146,-0.081,47,-34.5,147.4,0,2018,4,25,20,15,22.428,-0.0462,0.4544,0.0224,-0.8892
-0.479,0.154,-0.033,45.8,-66.8,151.6,0,2018,4,25,20,15,22.432,-0.0655,0.4468,0.0421,-0.8912
-0.368,-0.011,-0.105,46.1,-120.7,145.6,1023,2018,4,25,20,15,22.47,-0.081,0.4395,0.0692,-0.8918
-0.272,-0.43,-0.078,54.1,-150.9,119.9,1023,2018,4,25,20,15,22.492,-0.0906,0.4318,0.1018,-0.8915
-0.293,-0.859,-0.008,54.4,-168.5,72.7,1023,2018,4,25,20,15,22.497,-0.0925,0.4237,0.1347,-0.8908
-0.196,-0.944,0.016,41.3,-162.9,17.9,1023,2018,4,25,20,15,22.514,-0.0855,0.4178,0.1653,-0.8892
-0.155,-1,0.404,7.7,-108.2,-41.9,1023,2018,4,25,20,15,22.535,-0.0727,0.4161,0.1861,-0.887
-0.068,-0.912,0.438,-38.3,-34.3,-104.9,1023,2018,4,25,20,15,22.552,-0.0567,0.422,0.1909,-0.8844
-0.106,-0.595,0.176,-75.7,4.3,-155.5,1023,2018,4,25,20,15,22.589,-0.0372,0.4356,0.1823,-0.8806
-0.231,-0.287,-0.039,-93.5,21.2,-186.9,1023,2018,4,25,20,15,22.609,-0.0144,0.454,0.1661,-0.8752
-0.22,0.111,-0.114,-95.2,11.7,-197.2,1023,2018,4,25,20,15,22.613,0.0111,0.4737,0.1473,-0.8681
-0.169,0.596,-0.123,-84.4,-5.6,-183.3,0,2018,4,25,20,15,22.652,0.0377,0.4919,0.1311,-0.8598
-0.051,1.161,-0.198,-60.1,-57.7,-141.1,0,2018,4,25,20,15,22.673,0.063,0.5062,0.1217,-0.8514
0.031,0.886,-0.292,-27.3,-70.1,-85.7,0,2018,4,25,20,15,22.677,0.0853,0.5139,0.1237,-0.8445
0.046,1.27,-0.098,10.1,-22.9,-18.4,0,2018,4,25,20,15,22.695,0.097,0.5154,0.1255,-0.842
0.1,1.79,0.024,31.1,-68.7,88,0,2018,4,25,20,15,22.716,0.0958,0.5107,0.1342,-0.8437
-0.003,1.316,0.12,39.3,-89.9,170.7,0,2018,4,25,20,15,22.735,0.0843,0.5005,0.1581,-0.8469
-0.113,0.756,0.221,31.4,-77.3,218,0,2018,4,25,20,15,22.772,0.0635,0.4879,0.1874,-0.8501
-0.212,-0.154,-0.078,26.8,-57,227.1,0,2018,4,25,20,15,22.777,0.0361,0.4751,0.2157,-0.8522
-0.309,-1.032,-0.611,32.5,-78.4,178.2,0,2018,4,25,20,15,22.793,0.0121,0.4622,0.2426,-0.8528
-0.393,-1.388,-0.45,41.7,-31.9,102.4,0,2018,4,25,20,15,22.831,-0.0018,0.4503,0.2627,-0.8533
-0.362,-1.395,0.166,29.2,41.8,9.1,0,2018,4,25,20,15,22.852,-0.0088,0.4419,0.2658,-0.8566
-0.232,-0.705,0.541,-14.8,80.8,-71,0,2018,4,25,20,15,22.857,-0.0083,0.4423,0.2528,-0.8604
-0.2,-0.193,0.498,-62.5,35.1,-111.4,0,2018,4,25,20,15,22.877,-0.0007,0.4524,0.2359,-0.86
-0.14,-0.028,0.245,-92.2,-15.6,-131,0,2018,4,25,20,15,22.895,0.014,0.4693,0.2254,-0.8536
-0.092,0.241,0.04,-107.3,-14,-131.3,0,2018,4,25,20,15,22.932,0.0314,0.4893,0.2175,-0.8439
-0.141,0.284,-0.108,-105.4,47.5,-117.5,0,2018,4,25,20,15,22.952,0.0444,0.5098,0.2053,-0.8342
-0.157,0.573,-0.184,-94.8,117.7,-90.2,0,2018,4,25,20,15,22.956,0.0483,0.5287,0.184,-0.8271
-0.107,0.82,-0.23,-76.4,155.9,-46,0,2018,4,25,20,15,22.994,0.0423,0.5442,0.1581,-0.8227
-0.102,0.967,-0.23,-53.7,167.6,10.4,0,2018,4,25,20,15,22.997,0.0273,0.555,0.1331,-0.8206
-0.05,0.933,-0.259,-18.3,108.9,65,0,2018,4,25,20,15,23.013,0.0066,0.5599,0.1165,-0.8202
-0.034,0.52,-0.271,22.6,22.3,103.4,0,2018,4,25,20,15,23.05,-0.0113,0.5577,0.1163,-0.8217
-0.041,0.439,-0.24,58.6,-21.9,133.3,0,2018,4,25,20,15,23.07,-0.0274,0.549,0.1282,-0.8254
-0.043,0.533,-0.254,82.5,-79.3,167.2,0,2018,4,25,20,15,23.074,-0.0426,0.5352,0.1505,-0.83
-0.11,0.204,-0.192,92.8,-109.3,186.1,1023,2018,4,25,20,15,23.112,-0.0569,0.518,0.1822,-0.8337
-0.116,-0.301,-0.252,98.8,-60.5,182.6,1023,2018,4,25,20,15,23.131,-0.0729,0.4987,0.2128,-0.837
-0.157,-0.214,-0.331,106.4,-37.3,155.6,1023,2018,4,25,20,15,23.135,-0.0897,0.4774,0.235,-0.8418
-0.249,-0.533,0.171,90,-15.9,120.7,1023,2018,4,25,20,15,23.169,-0.1036,0.4573,0.2523,-0.8464
-0.263,-0.626,0.887,29,36.2,77.8,1023,2018,4,25,20,15,23.191,-0.1162,0.4434,0.2598,-0.8498
-0.162,-0.56,0.943,-59.5,85.8,33,1023,2018,4,25,20,15,23.195,-0.1296,0.4422,0.2541,-0.8503
-0.126,-0.26,0.604,-138.2,78.9,11.5,1023,2018,4,25,20,15,23.218,-0.1439,0.4543,0.2401,-0.8456
-0.148,0.128,0.287,-196.8,20.6,6.5,1023,2018,4,25,20,15,23.237,-0.156,0.4777,0.2289,-0.8336
-0.231,0.397,0.039,-233.1,-46.7,17.2,0,2018,4,25,20,15,23.254,-0.1649,0.509,0.2258,-0.814
-0.105,0.625,-0.26,-241.3,-110.5,36.7,0,2018,4,25,20,15,23.273,-0.1707,0.5439,0.2326,-0.7879
-0.029,0.653,-0.563,-219.3,-143.3,62.1,0,2018,4,25,20,15,23.311,-0.1741,0.5771,0.2483,-0.7582
0.209,0.319,-0.98,-164.6,-102.7,86.8,0,2018,4,25,20,15,23.332,-0.1796,0.6029,0.2668,-0.73
0.516,0.079,-1.299,-60.1,-9.3,98.3,0,2018,4,25,20,15,23.336,-0.1908,0.6143,0.2799,-0.7125
0.488,-0.128,-1.03,46.1,26.8,105.8,0,2018,4,25,20,15,23.373,-0.2054,0.6089,0.2889,-0.7095
0.368,-0.228,-0.769,123.9,-5.9,97.5,0,2018,4,25,20,15,23.393,-0.2152,0.5919,0.3012,-0.7158
0.338,-0.264,-0.635,170.2,-36.1,76.1,0,2018,4,25,20,15,23.395,-0.2157,0.5691,0.3187,-0.7265
0.211,-0.207,-0.307,198.6,-24.2,48.8,0,2018,4,25,20,15,23.436,-0.2095,0.5427,0.3364,-0.7404
0.232,-0.156,0.306,193.6,3.8,4.1,0,2018,4,25,20,15,23.454,-0.2002,0.5155,0.3466,-0.7575
0.239,-0.173,0.609,153.1,-13.2,-40.3,0,2018,4,25,20,15,23.459,-0.1864,0.4935,0.3514,-0.7733
0.199,-0.519,0.668,97,11,-84.3,0,2018,4,25,20,15,23.478,-0.1697,0.4806,0.3511,-0.7854
0.192,-0.224,0.775,29.2,69.2,-129.2,0,2018,4,25,20,15,23.497,-0.1545,0.4775,0.3375,-0.7963
0.187,0.319,0.713,-30.1,44.1,-141.7,0,2018,4,25,20,15,23.518,-0.1409,0.4841,0.3167,-0.8033
0.055,0.39,0.486,-68.2,-28.5,-133.9,0,2018,4,25,20,15,23.557,-0.1247,0.4986,0.303,-0.8024
-0.063,0.307,0.268,-90.4,-63.4,-123.3,0,2018,4,25,20,15,23.579,-0.1064,0.5176,0.2971,-0.7952
-0.128,0.399,-0.014,-96.8,-71,-106.6,0,2018,4,25,20,15,23.583,-0.0893,0.5379,0.2941,-0.7849
-0.112,0.565,-0.31,-82.4,-95.9,-77.7,0,2018,4,25,20,15,23.602,-0.0735,0.5562,0.2951,-0.7733
-0.022,0.804,-0.663,-41.5,-137.6,-31.7,0,2018,4,25,20,15,23.621,-0.0577,0.569,0.3049,-0.7615
-0.091,0.575,-0.611,20.8,-117.7,26.7,0,2018,4,25,20,15,23.642,-0.0446,0.5714,0.3224,-0.7532
-0.271,0.352,-0.343,65.6,-55.4,74.9,0,2018,4,25,20,15,23.663,-0.0404,0.5628,0.3392,-0.7526
-0.297,0.333,-0.262,91,-21,114.6,0,2018,4,25,20,15,23.681,-0.045,0.5467,0.3535,-0.7576
-0.202,0.32,-0.153,119,-24.5,144.6,0,2018,4,25,20,15,23.7,-0.0537,0.5247,0.3699,-0.7648
-0.135,-0.315,0.35,129.5,-25.6,136.2,0,2018,4,25,20,15,23.735,-0.0625,0.4981,0.3868,-0.7734
0.119,-0.402,0.072,101.2,-48.8,92.1,1023,2018,4,25,20,15,23.756,-0.0668,0.4752,0.4029,-0.7793
0,-0.781,0.272,78.3,-63.1,30.5,1023,2018,4,25,20,15,23.76,-0.0642,0.459,0.4166,-0.782
0.018,-0.723,0.955,17.3,-112.4,-21.7,1023,2018,4,25,20,15,23.782,-0.0533,0.4527,0.43,-0.7792
0.15,-1.054,0.923,-60.2,-36.8,-102.3,1023,2018,4,25,20,15,23.802,-0.0399,0.4616,0.4358,-0.7715
0.214,-0.284,0.321,-103.6,17.9,-152.7,1023,2018,4,25,20,15,23.84,-0.0288,0.4832,0.4246,-0.765
0.164,0.305,-0.004,-106.2,-11.6,-168.7,1023,2018,4,25,20,15,23.86,-0.0156,0.5093,0.4089,-0.757
0.094,0.597,-0.171,-89.9,-63.7,-156,1023,2018,4,25,20,15,23.864,0.0027,0.5337,0.3992,-0.7454
0.044,0.727,-0.236,-68.8,-72.2,-124.7,1023,2018,4,25,20,15,23.884,0.0221,0.5535,0.3952,-0.7327
0.118,0.907,-0.291,-50.3,-74.9,-81.1,1023,2018,4,25,20,15,23.903,0.0381,0.5676,0.3946,-0.7214
0.237,0.914,-0.459,-25.5,-92.9,-31.6,1023,2018,4,25,20,15,23.924,0.0508,0.5757,0.3998,-0.7114
0.197,0.779,-0.508,8.2,-120.2,19.3,0,2018,4,25,20,15,23.961,0.0615,0.5759,0.4126,-0.703
0.092,0.683,-0.259,37.9,-129.8,65,0,2018,4,25,20,15,23.965,0.071,0.5682,0.4325,-0.6963
-0.02,0.475,0.144,49.7,-79.5,106.7,0,2018,4,25,20,15,23.981,0.0745,0.5544,0.4536,-0.6937
-0.022,0.028,0.34,50.2,-11.6,123.9,0,2018,4,25,20,15,24.02,0.0679,0.5382,0.4692,-0.6967
-0.065,-0.658,0.182,57.2,-30.4,89.6,0,2018,4,25,20,15,24.042,0.06,0.5224,0.4803,-0.7019
-0.167,-1.052,-0.197,60.2,-115.4,29.4,0,2018,4,25,20,15,24.046,0.0644,0.5091,0.4939,-0.7018
-0.447,-1.191,0.535,45.1,-104.3,-40.1,0,2018,4,25,20,15,24.065,0.0809,0.5017,0.5075,-0.6957
-0.263,-1.358,0.657,-2.2,38.1,-108.6,0,2018,4,25,20,15,24.084,0.0951,0.5051,0.5054,-0.693
-0.176,-0.762,0.349,-43.5,203.1,-177.6,0,2018,4,25,20,15,24.12,0.0991,0.523,0.4765,-0.6996
-0.126,0.134,0.089,-67.5,229,-193.2,0,2018,4,25,20,15,24.14,0.0965,0.5491,0.4315,-0.7091
-0.182,0.529,-0.051,-72,169.8,-172.8,0,2018,4,25,20,15,24.144,0.0946,0.5744,0.3895,-0.7136
-0.15,0.635,-0.208,-62.7,85.4,-144.2,0,2018,4,25,20,15,24.181,0.097,0.5953,0.3589,-0.7122
-0.175,0.627,-0.279,-39.7,30.2,-113,0,2018,4,25,20,15,24.185,0.1041,0.6104,0.3397,-0.7078
-0.223,0.922,-0.318,-10.2,-28,-69.7,0,2018,4,25,20,15,24.201,0.1138,0.6188,0.3301,-0.7036
-0.237,1,-0.328,13.8,-83.6,-12.8,0,2018,4,25,20,15,24.24,0.1254,0.6195,0.333,-0.6996
-0.152,0.918,-0.35,28.1,-92.5,45.3,0,2018,4,25,20,15,24.261,0.1344,0.6136,0.3455,-0.697
-0.072,0.936,-0.356,37.9,-97,104.4,0,2018,4,25,20,15,24.265,0.1371,0.6027,0.3641,-0.6966
-0.1,0.789,-0.255,47.1,-127.5,161.9,0,2018,4,25,20,15,24.284,0.135,0.5859,0.3907,-0.6969
-0.128,0.562,0.019,51.8,-148.2,208.3,0,2018,4,25,20,15,24.322,0.1302,0.5631,0.4258,-0.6961
-0.095,0.065,0.336,53.5,-95.4,232.5,0,2018,4,25,20,15,24.343,0.1191,0.5364,0.4614,-0.6964
0.13,-0.879,0.38,49.9,-24.9,197.7,0,2018,4,25,20,15,24.348,0.1015,0.5109,0.4872,-0.7008
0.394,-1.122,0.206,57.1,-16,115.3,0,2018,4,25,20,15,24.367,0.0882,0.4907,0.5016,-0.7069
0.347,-1.277,0.247,55.9,-87.3,27.6,0,2018,4,25,20,15,24.387,0.089,0.4765,0.5129,-0.7083
0.138,-0.912,0.555,45.6,-47.6,-60.2,1023,2018,4,25,20,15,24.405,0.1027,0.4705,0.5198,-0.7055
0.157,-1.015,0.575,6.8,57.4,-129.2,1023,2018,4,25,20,15,24.424,0.1168,0.4761,0.5114,-0.7057
0.007,-0.348,0.238,-20.4,172,-185.2,1023,2018,4,25,20,15,24.444,0.1253,0.4939,0.482,-0.7127
-0.183,0.36,-0.005,-35.6,168.2,-193.8,1023,2018,4,25,20,15,24.482,0.1315,0.517,0.4434,-0.7201
-0.328,0.598,-0.304,-35.6,115.3,-169.6,1023,2018,4,25,20,15,24.502,0.1386,0.5386,0.4095,-0.7231
-0.407,0.647,-0.427,-21.9,67.3,-129.6,1023,2018,4,25,20,15,24.508,0.1471,0.5548,0.385,-0.7226
-0.4,0.726,-0.38,-2.7,50.9,-79.4,1023,2018,4,25,20,15,24.527,0.1538,0.5647,0.3677,-0.7225
-0.381,0.837,-0.329,17.5,22.6,-6.9,1023,2018,4,25,20,15,24.547,0.156,0.5675,0.3586,-0.7245
-0.361,0.853,-0.322,36.6,-16.7,72.2,1023,2018,4,25,20,15,24.567,0.1532,0.5618,0.3609,-0.7283
-0.325,0.798,-0.245,53.9,-38.5,146,0,2018,4,25,20,15,24.589,0.1449,0.548,0.3746,-0.7336
-0.303,0.649,0.071,62.4,-9.4,207.4,0,2018,4,25,20,15,24.609,0.1284,0.5275,0.3937,-0.7417
-0.128,0.296,0.48,58.2,66.6,238.5,0,2018,4,25,20,15,24.627,0.1004,0.5041,0.4092,-0.7538
0.131,-0.37,0.626,45.2,122.8,213.6,0,2018,4,25,20,15,24.65,0.0647,0.482,0.4148,-0.7689
0.302,-0.417,0.704,29.1,68.7,156.4,0,2018,4,25,20,15,24.669,0.0343,0.4645,0.4158,-0.781
0.352,-0.134,0.778,-3.4,-26.2,110.7,0,2018,4,25,20,15,24.686,0.0155,0.4531,0.4232,-0.7843
0.453,-0.341,0.556,-34.7,-69.3,80.5,0,2018,4,25,20,15,24.724,0.0055,0.4487,0.4393,-0.7781
0.272,-0.168,0.002,-51.9,-99.3,46.4,0,2018,4,25,20,15,24.746,0,0.4503,0.4545,-0.7684
0.092,-0.237,-0.447,-44.9,-90.3,7.5,0,2018,4,25,20,15,24.751,0.0007,0.4549,0.4702,-0.7562
0.096,-0.477,-0.567,-28.6,19.5,-34.5,0,2018,4,25,20,15,24.768,0.0028,0.461,0.4741,-0.75
0.133,-0.221,-0.617,-9,99,-65.3,0,2018,4,25,20,15,24.806,0.0023,0.4677,0.4606,-0.7543
0.061,0.163,-0.543,8.1,70.8,-72.2,0,2018,4,25,20,15,24.827,0.0045,0.4733,0.4429,-0.7613
-0.102,0.287,-0.503,28,-1.4,-59.4,0,2018,4,25,20,15,24.831,0.0119,0.476,0.4328,-0.7653
-0.256,0.327,-0.394,50.6,-60.2,-42.7,0,2018,4,25,20,15,24.85,0.0245,0.4744,0.433,-0.7659
-0.315,0.434,-0.249,67.5,-97.6,-20.5,0,2018,4,25,20,15,24.87,0.0402,0.4683,0.4411,-0.7644
-0.324,0.533,0.136,73.1,-84.5,11.3,0,2018,4,25,20,15,24.887,0.054,0.4583,0.4527,-0.7628
-0.209,0.596,0.49,53.9,-39.2,51.1,0,2018,4,25,20,15,24.908,0.06,0.4464,0.463,-0.7633
-0.115,0.676,0.727,21.9,12.9,87.9,0,2018,4,25,20,15,24.927,0.0545,0.4355,0.4696,-0.766
-0.038,0.511,0.926,-20.9,55.6,121.9,0,2018,4,25,20,15,24.947,0.0374,0.427,0.4727,-0.7698
0.164,0.092,0.727,-49,76.8,128.9,0,2018,4,25,20,15,24.984,0.0116,0.422,0.4728,-0.7733
0.331,-0.501,0.343,-55.8,27.8,98.1,0,2018,4,25,20,15,25.004,-0.0123,0.4196,0.4739,-0.774
0.447,-0.865,0.309,-57.6,-38.1,38.3,0,2018,4,25,20,15,25.008,-0.0263,0.4209,0.4793,-0.7696
0.27,-0.498,0.692,-82.3,-133.5,-16.9,1023,2018,4,25,20,15,25.049,-0.0266,0.4296,0.4912,-0.7571
-0.038,-0.702,0.366,-119.1,-150.1,-59.9,1023,2018,4,25,20,15,25.053,-0.0185,0.4472,0.5081,-0.7357
0.13,-1.035,-0.623,-101.5,1.3,-130.2,1023,2018,4,25,20,15,25.069,-0.0107,0.4706,0.5099,-0.7199
0.16,-0.164,-0.912,-46.3,121.7,-169.4,1023,2018,4,25,20,15,25.11,-0.0039,0.4933,0.4874,-0.7204
0.027,0.392,-0.742,6.1,132.8,-164.1,1023,2018,4,25,20,15,25.13,0.0041,0.5094,0.4555,-0.73
-0.197,0.511,-0.485,41.6,78.4,-134.6,1023,2018,4,25,20,15,25.134,0.0159,0.5177,0.428,-0.7405
-0.332,0.561,-0.257,63.8,28.3,-104.2,1023,2018,4,25,20,15,25.148,0.0306,0.5196,0.4104,-0.7487
-0.343,0.706,-0.073,76.2,4,-61.1,1023,2018,4,25,20,15,25.186,0.0454,0.5163,0.4008,-0.7554
-0.265,0.898,0.107,85.6,-4.3,-3.5,1023,2018,4,25,20,15,25.207,0.0553,0.5075,0.3972,-0.7625
-0.145,0.929,0.228,68.3,5.5,60.2,0,2018,4,25,20,15,25.212,0.0571,0.4949,0.3996,-0.7694
-0.005,0.966,0.552,39,45.3,112.5,0,2018,4,25,20,15,25.231,0.0465,0.4816,0.403,-0.7767
0.13,0.771,0.731,2.8,47.6,147.4,0,2018,4,25,20,15,25.251,0.0257,0.4699,0.4071,-0.7827
0.208,-0.036,0.705,-26.5,12,141.4,0,2018,4,25,20,15,25.272,0.0016,0.4611,0.4147,-0.7844
0.33,-0.815,0.373,-54.9,-77.6,70.1,0,2018,4,25,20,15,25.293,-0.0136,0.4588,0.4271,-0.779
0.301,-0.851,0.048,-74.5,-145.9,2.1,0,2018,4,25,20,15,25.313,-0.0136,0.4655,0.4457,-0.7644
0.114,-0.595,-0.18,-77.4,-171,-59.7,0,2018,4,25,20,15,25.335,-0.0021,0.4786,0.4648,-0.7448
0.007,-1.164,-0.4,-62.9,2.5,-125,0,2018,4,25,20,15,25.352,0.0121,0.4951,0.4697,-0.7308
-0.066,-0.394,-0.568,-40.7,196.4,-177.6,0,2018,4,25,20,15,25.37,0.0175,0.5146,0.4408,-0.7352
-0.266,0.377,-0.605,-18.4,210.2,-175.7,0,2018,4,25,20,15,25.391,0.0192,0.5322,0.3967,-0.7476
-0.388,0.793,-0.562,7.6,148.4,-140.6,0,2018,4,25,20,15,25.411,0.0229,0.5439,0.3579,-0.7585
-0.442,0.909,-0.333,33.6,83.7,-89,0,2018,4,25,20,15,25.446,0.0285,0.5485,0.3318,-0.7668
-0.435,0.956,-0.077,53.3,57.9,-23.8,0,2018,4,25,20,15,25.468,0.0325,0.546,0.3174,-0.7745
-0.366,1.004,0.077,60,75.3,56.9,0,2018,4,25,20,15,25.472,0.0271,0.5375,0.3098,-0.7837
-0.049,1.307,0.226,55.5,58.4,144.2,0,2018,4,25,20,15,25.492,0.0095,0.5243,0.3092,-0.7932
0.104,1.143,0.281,47.9,24.3,213.8,0,2018,4,25,20,15,25.512,-0.0167,0.507,0.3206,-0.7998
0.202,0.677,0.273,41.1,20,241.4,0,2018,4,25,20,15,25.552,-0.0484,0.4874,0.338,-0.8035
0.194,-0.369,0.523,37.4,8.7,212.8,0,2018,4,25,20,15,25.572,-0.0799,0.4675,0.3555,-0.8053
0.298,-1.352,0.627,13.9,-9.7,140.8,0,2018,4,25,20,15,25.576,-0.1024,0.4528,0.3707,-0.8043
0.278,-1.007,0.481,-7.7,-56.3,61.7,0,2018,4,25,20,15,25.591,-0.1143,0.4464,0.3815,-0.8012
0.168,-0.085,0.099,-17.9,-222.6,-10.6,0,2018,4,25,20,15,25.611,-0.1073,0.4498,0.4014,-0.7905
0.32,-1.728,0.075,-43.1,-130.9,-78,0,2018,4,25,20,15,25.632,-0.0876,0.4608,0.4262,-0.7734
0.187,-0.849,-0.152,-43.2,145,-150.8,0,2018,4,25,20,15,25.653,-0.0764,0.4751,0.4126,-0.7733
-0.012,-0.093,-0.272,-44.5,242.6,-178.8,0,2018,4,25,20,15,25.673,-0.0743,0.4899,0.3692,-0.7861
-0.173,0.529,-0.293,-39.3,207.3,-170.8,1023,2018,4,25,20,15,25.712,-0.0724,0.5035,0.3209,-0.7988
-0.285,0.747,-0.311,-29.8,112.6,-137.1,1023,2018,4,25,20,15,25.732,-0.0667,0.5145,0.2842,-0.8062
-0.345,0.629,-0.4,-12.7,44,-100.7,1023,2018,4,25,20,15,25.736,-0.0575,0.5224,0.2633,-0.8089
-0.251,0.637,-0.454,11.7,35.4,-60.1,1023,2018,4,25,20,15,25.756,-0.0495,0.5256,0.2507,-0.8113
-0.222,0.811,-0.345,39.9,29.8,-6.3,1023,2018,4,25,20,15,25.774,-0.047,0.523,0.243,-0.8155
-0.15,0.879,-0.027,56.1,37.6,55,1023,2018,4,25,20,15,25.813,-0.051,0.5145,0.2418,-0.821
-0.005,0.883,0.202,55.9,90.8,112.2,1023,2018,4,25,20,15,25.816,-0.0669,0.5019,0.2404,-0.828
0.049,0.717,0.327,52.1,110.6,150.3,1023,2018,4,25,20,15,25.834,-0.0933,0.4872,0.2375,-0.8351
0.135,0.246,0.531,50.7,76.2,153.1,0,2018,4,25,20,15,25.853,-0.1222,0.4714,0.2372,-0.8405
0.147,-0.578,0.542,33,-2.4,115.8,0,2018,4,25,20,15,25.891,-0.143,0.4584,0.2443,-0.8423
0.187,-0.944,0.548,3.6,-40.2,50,0,2018,4,25,20,15,25.912,-0.1524,0.4529,0.2549,-0.8406
0.144,-0.469,0.765,-35.7,-155.2,-7.6,0,2018,4,25,20,15,25.915,-0.1489,0.4566,0.2691,-0.8347
0.171,-0.37,0.472,-82.7,-267.7,-39.4,0,2018,4,25,20,15,25.934,-0.1287,0.4723,0.2998,-0.8187
0.231,-1.509,0.242,-106.6,-25.5,-119.5,0,2018,4,25,20,15,25.953,-0.1098,0.494,0.3138,-0.8032
0.153,-0.703,-0.111,-116.6,225.4,-183,0,2018,4,25,20,15,25.99,-0.1041,0.5156,0.2814,-0.8024
0.097,-0.266,-0.186,-131.1,329.6,-208.7,0,2018,4,25,20,15,26.01,-0.1084,0.5363,0.22,-0.8075
0.079,-0.083,-0.23,-148.6,338.2,-215.3,0,2018,4,25,20,15,26.015,-0.1153,0.5563,0.149,-0.8093
0.066,0.061,-0.275,-158.8,288.7,-217.4,0,2018,4,25,20,15,26.053,-0.1191,0.5759,0.0798,-0.8048
0.002,0.163,-0.333,-156,209.5,-221.6,0,2018,4,25,20,15,26.056,-0.1152,0.5947,0.0195,-0.7953
-0.054,0.194,-0.417,-137.9,122.6,-227.1,0,2018,4,25,20,15,26.073,-0.1013,0.6116,-0.0294,-0.784
-0.18,0.218,-0.469,-105.6,46.7,-230.8,0,2018,4,25,20,15,26.111,-0.0779,0.6249,-0.0673,-0.7738
-0.245,0.325,-0.534,-63,-27.8,-226,0,2018,4,25,20,15,26.133,-0.0467,0.6327,-0.0945,-0.7671
-0.211,0.447,-0.623,-12.1,-106,-208.9,0,2018,4,25,20,15,26.136,-0.0092,0.6341,-0.1096,-0.7653
-0.213,0.737,-0.636,44.7,-176,-168.8,0,2018,4,25,20,15,26.155,0.0317,0.6276,-0.1113,-0.7698
-0.349,0.713,-0.528,93.5,-173,-109.3,0,2018,4,25,20,15,26.175,0.069,0.6137,-0.1021,-0.7798
-0.389,0.676,-0.426,123.9,-79.3,-47.7,0,2018,4,25,20,15,26.212,0.091,0.5953,-0.0945,-0.7926
-0.34,0.813,-0.237,136.7,-9.4,12.3,0,2018,4,25,20,15,26.233,0.0949,0.5761,-0.0931,-0.8064
-0.234,0.38,-0.19,131.3,17.3,67.5,0,2018,4,25,20,15,26.236,0.0862,0.5576,-0.0919,-0.8204
-0.184,0.719,-0.169,118.4,21.6,109.7,0,2018,4,25,20,15,26.277,0.0683,0.5413,-0.089,-0.8332
-0.173,0.448,-0.229,103.4,16.8,137.1,0,2018,4,25,20,15,26.281,0.0466,0.527,-0.0806,-0.8447
-0.11,0.214,-0.193,82.6,6.9,149.8,0,2018,4,25,20,15,26.296,0.0227,0.5153,-0.07,-0.8538
-0.099,-0.055,0.041,60.6,-14.2,144.2,0,2018,4,25,20,15,26.334,0.0002,0.5061,-0.057,-0.8605
-0.165,-0.419,0.213,32.2,-62.7,120.6,1023,2018,4,25,20,15,26.354,-0.017,0.5004,-0.0396,-0.8646
-0.21,-0.709,0.198,2.4,-133.4,80.3,1023,2018,4,25,20,15,26.358,-0.0236,0.4988,-0.0157,-0.8662
-0.261,-1.145,0.075,-16.3,-161,21.4,1023,2018,4,25,20,15,26.396,-0.018,0.5007,0.012,-0.8653
-0.278,-0.927,-0.117,-20.2,-137.7,-41.8,1023,2018,4,25,20,15,26.415,-0.0029,0.504,0.0337,-0.8629
-0.236,-0.611,-0.138,-15.2,-81.6,-93.6,1023,2018,4,25,20,15,26.419,0.0173,0.507,0.0442,-0.8605
-0.163,-0.509,-0.089,-14.8,-26.2,-131.7,1023,2018,4,25,20,15,26.439,0.0389,0.5099,0.042,-0.8583
-0.169,-0.278,-0.093,-13.8,24.3,-161.1,1023,2018,4,25,20,15,26.458,0.0608,0.513,0.0285,-0.8557
-0.196,0.075,-0.055,-12.8,41.7,-174.1,0,2018,4,25,20,15,26.479,0.0829,0.5158,0.0079,-0.8526
-0.185,0.565,0.008,-14.6,36.7,-160.9,0,2018,4,25,20,15,26.499,0.1044,0.5184,-0.0131,-0.8486
-0.09,0.955,-0.007,-19.1,24.1,-121.1,0,2018,4,25,20,15,26.539,0.1228,0.5209,-0.03,-0.8441
-0.056,1.002,-0.02,-17,34.7,-69.4,0,2018,4,25,20,15,26.543,0.1344,0.5237,-0.0419,-0.8401
-0.083,0.884,-0.06,-12.7,86.3,-22.4,0,2018,4,25,20,15,26.559,0.1356,0.527,-0.0539,-0.8371
-0.093,0.688,-0.032,-2.4,151.6,22.4,0,2018,4,25,20,15,26.579,0.1242,0.5308,-0.0713,-0.8352
-0.112,0.749,0.005,4.8,163.4,67.2,0,2018,4,25,20,15,26.599,0.1019,0.5344,-0.091,-0.834
-0.091,0.581,0.059,4.3,112.6,100,0,2018,4,25,20,15,26.638,0.0763,0.5374,-0.1034,-0.8334
-0.006,0.459,-0.034,6.7,39.9,121.3,0,2018,4,25,20,15,26.659,0.0527,0.5395,-0.1038,-0.8338
-0.023,0.106,-0.217,14.7,-36.2,125.3,0,2018,4,25,20,15,26.663,0.0342,0.5402,-0.0922,-0.8357
-0.101,-0.711,-0.192,27.5,-87.9,86.6,0,2018,4,25,20,15,26.681,0.0243,0.5382,-0.0723,-0.8393
0.006,-1.006,-0.357,26.1,-84.1,26.8,0,2018,4,25,20,15,26.702,0.0246,0.5346,-0.0541,-0.8429
-0.144,-0.558,-0.052,30.7,-63.3,-15.7,0,2018,4,25,20,15,26.74,0.0303,0.5302,-0.0433,-0.8461
-0.207,-0.414,0.09,25.9,-67.8,-52.7,0,2018,4,25,20,15,26.744,0.0412,0.5252,-0.0374,-0.8491
-0.118,-0.194,0.006,24.6,-69.1,-84.4,0,2018,4,25,20,15,26.76,0.0582,0.5206,-0.0336,-0.8511
-0.103,0.419,0.127,24.5,-62.6,-80,0,2018,4,25,20,15,26.779,0.0765,0.5154,-0.0322,-0.8528
-0.09,0.905,0.087,16.6,-92.6,-54.4,0,2018,4,25,20,15,26.797,0.0933,0.5108,-0.0275,-0.8541
-0.032,1.016,0.088,8.6,-110.9,-5.5,0,2018,4,25,20,15,26.836,0.1074,0.5071,-0.0141,-0.855
0.009,1.068,0.086,0.9,-64.3,50.8,0,2018,4,25,20,15,26.857,0.1115,0.5047,0.001,-0.856
-0.027,0.756,0.036,-8.2,-20.2,97.1,0,2018,4,25,20,15,26.861,0.1037,0.5044,0.0139,-0.857
-0.117,0.279,-0.097,-11.5,10.6,118.9,0,2018,4,25,20,15,26.881,0.0871,0.5056,0.0241,-0.8579
-0.053,-0.668,-0.426,-1.8,-7.1,93,0,2018,4,25,20,15,26.901,0.07,0.5063,0.0331,-0.8588
-0.015,-1.014,-0.447,12.8,-3.2,33.6,0,2018,4,25,20,15,26.922,0.0615,0.5049,0.0396,-0.86
-0.271,-0.647,-0.052,12.5,27.9,-18.5,0,2018,4,25,20,15,26.944,0.0597,0.5028,0.038,-0.8614
-0.085,-0.601,-0.054,2.1,46,-81.1,1023,2018,4,25,20,15,26.958,0.0637,0.5026,0.0274,-0.8616
0.001,-0.205,-0.051,-6.1,42.3,-125.2,1023,2018,4,25,20,15,26.979,0.0759,0.5039,0.0113,-0.8603
-0.058,0.202,-0.012,-9.3,18.1,-138.6,1023,2018,4,25,20,15,26.999,0.0935,0.5057,-0.0055,-0.8575
-0.07,0.742,-0.002,-8.3,-38.1,-124.6,1023,2018,4,25,20,15,27.036,0.1145,0.5066,-0.0155,-0.8543
-0.118,0.958,0.092,-9.1,-34.4,-80.3,1023,2018,4,25,20,15,27.055,0.1341,0.5066,-0.0173,-0.8514
-0.11,1.001,0.116,-14,29.1,-19.1,1023,2018,4,25,20,15,27.06,0.142,0.508,-0.0208,-0.8492
-0.035,1.053,0.062,-12.1,89.1,45.7,1023,2018,4,25,20,15,27.099,0.1345,0.5118,-0.0285,-0.8479
-0.094,1.053,-0.024,-0.6,101.3,114.1,1023,2018,4,25,20,15,27.119,0.1127,0.5155,-0.0361,-0.8486
-0.239,0.711,-0.043,17.2,45,154,0,2018,4,25,20,15,27.124,0.0855,0.5164,-0.0352,-0.8513
-0.294,-0.06,-0.29,31.4,-27,158.5,0,2018,4,25,20,15,27.144,0.0605,0.5142,-0.0227,-0.8552
-0.268,-1.454,-0.097,29.1,-125,80.8,0,2018,4,25,20,15,27.164,0.0498,0.5087,0.0005,-0.8594
-0.24,-1.414,-0.206,31.2,-140.4,0.4,0,2018,4,25,20,15,27.183,0.0564,0.5033,0.0245,-0.8618
-0.242,-0.697,-0.115,32.8,-139.3,-49,0,2018,4,25,20,15,27.203,0.0728,0.497,0.0423,-0.8636
-0.043,-0.85,-0.255,26.4,-82.9,-103,0,2018,4,25,20,15,27.221,0.0952,0.4915,0.0539,-0.8639
-0.114,-0.231,-0.124,18.2,60.3,-143.6,0,2018,4,25,20,15,27.241,0.1152,0.4891,0.0437,-0.8634
-0.149,0.515,0.056,-3.4,137.8,-141.7,0,2018,4,25,20,15,27.279,0.1282,0.491,0.0146,-0.8615
-0.108,1.321,0.115,-22.4,108.6,-97.4,0,2018,4,25,20,15,27.299,0.135,0.496,-0.0155,-0.8575
-0.113,1.177,0.027,-35.2,45.5,-23.6,0,2018,4,25,20,15,27.303,0.1379,0.5019,-0.0305,-0.8532
-0.11,1.408,0.09,-39.9,31.8,64.2,0,2018,4,25,20,15,27.322,0.1317,0.5086,-0.0337,-0.8501
-0.068,1.456,0.127,-53,-29.3,159.9,0,2018,4,25,20,15,27.361,0.1144,0.5163,-0.0229,-0.8484
-0.314,0.572,-0.073,-60.6,-19.1,219.3,0,2018,4,25,20,15,27.382,0.0885,0.5245,0.0009,-0.8467
-0.332,0.173,-0.174,-56.6,21.9,238.6,0,2018,4,25,20,15,27.386,0.0538,0.5328,0.0224,-0.8442
-0.338,-0.152,-0.198,-44.2,22.2,233.6,0,2018,4,25,20,15,27.406,0.0162,0.5391,0.0411,-0.841
-0.239,-0.544,-0.282,-34.6,2,209.4,0,2018,4,25,20,15,27.425,-0.0178,0.543,0.0602,-0.8373
-0.102,-0.572,-0.429,-16.8,-27.5,171.4,0,2018,4,25,20,15,27.443,-0.0446,0.5445,0.0798,-0.8337
-0.059,-0.222,-0.505,-1.4,-79.2,141,0,2018,4,25,20,15,27.462,-0.0621,0.5438,0.1023,-0.8305
-0.1,-0.081,-0.425,10.4,-112.2,116,0,2018,4,25,20,15,27.482,-0.0709,0.5416,0.1288,-0.8276
0.047,-0.164,-0.315,12.3,-116.2,97.8,0,2018,4,25,20,15,27.521,-0.0751,0.5388,0.1558,-0.8244
0.114,-0.124,-0.185,11.2,-90.3,80.3,0,2018,4,25,20,15,27.541,-0.0776,0.5358,0.1792,-0.8214
0.184,0.104,-0.133,9,-78.8,72.2,0,2018,4,25,20,15,27.545,-0.0804,0.5331,0.198,-0.8185
0.181,0.347,-0.061,6.8,-107.1,76.7,0,2018,4,25,20,15,27.564,-0.0821,0.5305,0.218,-0.8149
0.197,0.519,-0.035,2,-143.1,95.2,0,2018,4,25,20,15,27.586,-0.0823,0.5282,0.244,-0.809
0.242,0.562,-0.047,-0.8,-162.4,119.6,1023,2018,4,25,20,15,27.625,-0.0832,0.5255,0.2757,-0.8005
0.212,0.498,-0.008,2.5,-164.5,141.6,1023,2018,4,25,20,15,27.645,-0.0865,0.5211,0.3105,-0.7902
0.137,0.492,0.026,7.6,-167.9,160.2,1023,2018,4,25,20,15,27.649,-0.0919,0.5143,0.347,-0.7788
0.029,0.269,0.05,11.3,-181.3,173,1023,2018,4,25,20,15,27.669,-0.0984,0.5051,0.3855,-0.7657
0.001,-0.105,0.071,15,-206.1,168.9,1023,2018,4,25,20,15,27.684,-0.1034,0.4944,0.4259,-0.7506
0.082,-0.325,-0.03,16.7,-246.6,151.6,1023,2018,4,25,20,15,27.704,-0.1038,0.4835,0.4696,-0.7313
0.163,-0.417,-0.234,18.2,-258,132.7,1023,2018,4,25,20,15,27.727,-0.0989,0.4736,0.5141,-0.7081
0.114,-0.547,-0.09,26.8,-223.1,98.9,1023,2018,4,25,20,15,27.747,-0.0908,0.4641,0.5536,-0.6853
-0.016,-0.684,0.105,24.7,-107.6,65.9,0,2018,4,25,20,15,27.767,-0.0845,0.4551,0.5809,-0.6694
0.121,-0.706,0.113,21.4,47.7,27.8,0,2018,4,25,20,15,27.786,-0.0856,0.4482,0.5879,-0.6678
0.24,-0.292,0.145,21.5,161.7,2.6,0,2018,4,25,20,15,27.806,-0.0936,0.4424,0.5754,-0.6813
0.231,0.104,0.2,19.3,219.5,-1.8,0,2018,4,25,20,15,27.845,-0.1065,0.4367,0.5516,-0.7025
0.278,0.486,0.238,19.1,186.5,6.3,0,2018,4,25,20,15,27.866,-0.1209,0.4301,0.5256,-0.7238
0.368,0.71,0.308,22.3,67.9,31.1,0,2018,4,25,20,15,27.87,-0.1306,0.4231,0.5112,-0.7365
0.407,0.427,0.396,23.2,-12.3,54.5,0,2018,4,25,20,15,27.89,-0.1357,0.4158,0.5124,-0.7389
0.47,0.161,0.535,18.8,-22.6,61.2,0,2018,4,25,20,15,27.908,-0.1399,0.4081,0.5199,-0.7371
0.523,-0.25,0.543,11.4,-49.5,34.1,0,2018,4,25,20,15,27.927,-0.1428,0.4025,0.5279,-0.734
0.512,-0.278,0.165,1.3,-135.9,-6.4,0,2018,4,25,20,15,27.946,-0.1374,0.4026,0.5406,-0.7257
0.277,-0.578,-0.042,-9.1,-191,-53.8,0,2018,4,25,20,15,27.965,-0.1211,0.4108,0.5596,-0.7094
-0.011,-0.726,0.017,-12,-110.2,-96.2,0,2018,4,25,20,15,28.005,-0.1009,0.4226,0.5742,-0.6938
0.044,-1.012,-0.161,-14.6,120.3,-163.1,0,2018,4,25,20,15,28.024,-0.0872,0.4372,0.5631,-0.6957
-0.078,-0.133,-0.232,-19,267.6,-197.7,0,2018,4,25,20,15,28.04,-0.0822,0.4537,0.5223,-0.7172
-0.201,0.326,-0.236,-29.3,290,-200.5,0,2018,4,25,20,15,28.046,-0.0819,0.4702,0.4688,-0.7432
-0.292,0.624,-0.254,-36.9,228.4,-183.3,0,2018,4,25,20,15,28.084,-0.0811,0.4859,0.4173,-0.7636
-0.338,0.595,-0.32,-32.6,138.3,-157.5,0,2018,4,25,20,15,28.105,-0.0762,0.4999,0.3779,-0.7754
-0.275,0.531,-0.386,-16,80.9,-124.9,0,2018,4,25,20,15,28.108,-0.0679,0.511,0.3508,-0.7817
-0.274,0.664,-0.402,11.4,32.2,-80.9,0,2018,4,25,20,15,28.125,-0.0592,0.5168,0.3337,-0.7861
-0.309,0.794,-0.383,39.6,-52.9,-26.8,0,2018,4,25,20,15,28.161,-0.0492,0.5164,0.3308,-0.7883
-0.316,0.709,-0.334,64.7,-108.7,35.2,0,2018,4,25,20,15,28.181,-0.0391,0.5093,0.3435,-0.788
-0.268,0.785,-0.227,79.6,-143.2,104.1,0,2018,4,25,20,15,28.186,-0.0331,0.4956,0.3676,-0.7861
-0.248,0.724,0.039,76.4,-166.2,170.9,0,2018,4,25,20,15,28.208,-0.0335,0.4762,0.4016,-0.7815
-0.114,0.373,0.38,58.3,-146.8,210,0,2018,4,25,20,15,28.228,-0.0419,0.4536,0.4396,-0.774
0.066,-0.159,0.615,31.5,-109.9,202.1,1023,2018,4,25,20,15,28.265,-0.057,0.4318,0.4731,-0.7657
0.336,-0.149,0.539,5.1,-134,168.3,1023,2018,4,25,20,15,28.284,-0.0715,0.415,0.5023,-0.7551
0.361,-0.83,0.399,-15.9,-213,108.5,1023,2018,4,25,20,15,28.289,-0.0781,0.4054,0.5349,-0.737
0.344,-1.185,0.232,-28.6,-267.3,16,1023,2018,4,25,20,15,28.326,-0.0703,0.4057,0.5703,-0.7107
0.386,-1.658,0.415,-53.7,-86.8,-64.9,1023,2018,4,25,20,15,28.346,-0.0573,0.4158,0.5921,-0.6878
0.301,-1.156,0.289,-70.7,194.9,-154,1023,2018,4,25,20,15,28.35,-0.0553,0.4343,0.5745,-0.6915
0.152,-0.362,0.05,-86.2,305,-201.2,1023,2018,4,25,20,15,28.388,-0.0614,0.4588,0.5265,-0.713
0.005,0.134,-0.127,-92.2,287.5,-211,1023,2018,4,25,20,15,28.392,-0.0677,0.4851,0.4696,-0.7344
-0.14,0.487,-0.295,-81.5,201.7,-202.5,0,2018,4,25,20,15,28.409,-0.0689,0.5097,0.4184,-0.7485
-0.276,0.667,-0.482,-51.6,72.2,-178.8,0,2018,4,25,20,15,28.448,-0.0608,0.5302,0.3825,-0.7541
-0.321,0.683,-0.564,-11.3,-34.3,-143.9,0,2018,4,25,20,15,28.467,-0.0426,0.5446,0.3657,-0.7535
-0.359,0.725,-0.59,24.2,-62.7,-87.8,0,2018,4,25,20,15,28.472,-0.0214,0.5513,0.3619,-0.7514
-0.355,0.871,-0.548,54.8,-47.9,-15.1,0,2018,4,25,20,15,28.493,-0.0068,0.5492,0.3643,-0.7519
-0.363,0.995,-0.437,77.8,-46.7,65.2,0,2018,4,25,20,15,28.512,-0.0016,0.5386,0.373,-0.7554
-0.391,0.92,-0.253,97.3,-47.7,139,0,2018,4,25,20,15,28.55,-0.0052,0.5199,0.3891,-0.7603
-0.295,0.687,0.068,104.2,-23.2,195.6,0,2018,4,25,20,15,28.568,-0.0174,0.4944,0.4094,-0.7665
-0.154,0.211,0.409,95,32,220.8,0,2018,4,25,20,15,28.572,-0.0389,0.4653,0.4272,-0.7741
0.162,-0.348,0.557,78.1,75.5,198.2,0,2018,4,25,20,15,28.612,-0.0661,0.4369,0.4367,-0.7835
0.437,-0.853,0.558,51.5,60.3,134.5,0,2018,4,25,20,15,28.616,-0.0894,0.4143,0.4401,-0.7916
0.465,-0.964,0.859,10,-62.8,47.5,0,2018,4,25,20,15,28.632,-0.0991,0.4036,0.446,-0.7926
0.383,-0.698,0.76,-42.1,-140.1,-20.9,0,2018,4,25,20,15,28.652,-0.0937,0.4068,0.4617,-0.7825
0.376,-1.281,0.643,-94,9.4,-98.5,0,2018,4,25,20,15,28.672,-0.0856,0.4226,0.4672,-0.7717
0.115,-0.486,0.134,-116.4,187.6,-161.1,0,2018,4,25,20,15,28.708,-0.0846,0.4461,0.4396,-0.7748
-0.111,0.267,-0.326,-115.6,178.8,-177.8,0,2018,4,25,20,15,28.728,-0.0855,0.472,0.3974,-0.7822
-0.209,0.57,-0.527,-85.4,106.7,-159.1,0,2018,4,25,20,15,28.732,-0.0808,0.4951,0.3622,-0.7855
-0.302,0.684,-0.552,-45.7,48.8,-121,0,2018,4,25,20,15,28.77,-0.0722,0.5115,0.3388,-0.7863
-0.345,0.73,-0.585,-9.2,25.1,-74.7,0,2018,4,25,20,15,28.79,-0.0633,0.5203,0.3253,-0.7869
-0.306,0.741,-0.632,28.3,35.4,-17.8,0,2018,4,25,20,15,28.794,-0.0592,0.5212,0.3171,-0.79
-0.238,0.904,-0.582,70.3,23.5,50,0,2018,4,25,20,15,28.81,-0.0617,0.513,0.3146,-0.7962
-0.204,0.99,-0.432,107,-28.9,120.8,0,2018,4,25,20,15,28.844,-0.0686,0.4955,0.3237,-0.803
-0.207,0.795,-0.088,124.3,-51.7,184.2,0,2018,4,25,20,15,28.866,-0.0797,0.4704,0.3449,-0.8082
-0.084,0.257,0.248,117.5,-22.6,213.5,0,2018,4,25,20,15,28.873,-0.0977,0.4408,0.3685,-0.8125
0.168,-0.16,0.293,90.1,16.4,198,1023,2018,4,25,20,15,28.912,-0.1204,0.4124,0.3861,-0.8162
0.271,-0.037,0.439,63.4,16.4,167.4,1023,2018,4,25,20,15,28.928,-0.1428,0.3884,0.3975,-0.8189
0.385,0.082,0.558,29.7,-67.3,135,1023,2018,4,25,20,15,28.931,-0.1595,0.3717,0.4116,-0.8166
0.415,-0.198,0.488,-1.8,-118.5,105.5,1023,2018,4,25,20,15,28.967,-0.1693,0.3635,0.434,-0.8066
0.418,-0.419,0.358,-26.5,-107.1,61.9,1023,2018,4,25,20,15,28.987,-0.1745,0.3629,0.4552,-0.794
0.42,-0.242,0.191,-36.3,-70.9,26.2,1023,2018,4,25,20,15,28.992,-0.1771,0.367,0.4681,-0.784
0.431,-0.092,0.05,-35.7,-56.8,2.2,1023,2018,4,25,20,15,29.029,-0.1779,0.3728,0.4762,-0.7762
0.405,-0.206,-0.063,-33.1,-62.4,-23.9,1023,2018,4,25,20,15,29.049,-0.1754,0.3802,0.4825,-0.7692
0.378,-0.266,-0.122,-27.9,-58.4,-51.8,1023,2018,4,25,20,15,29.054,-0.1687,0.3895,0.4871,-0.7632
0.318,-0.278,-0.116,-16.5,-42.9,-75.9,0,2018,4,25,20,15,29.093,-0.1585,0.3994,0.4888,-0.7591
0.263,-0.247,-0.054,-5.6,-26,-98.4,0,2018,4,25,20,15,29.096,-0.1453,0.4092,0.4869,-0.7578
0.225,-0.129,-0.006,-1.6,-15.1,-114.6,0,2018,4,25,20,15,29.113,-0.1291,0.4201,0.4812,-0.7584
0.166,0.072,0.045,2.9,-48.9,-125.9,0,2018,4,25,20,15,29.15,-0.1102,0.4315,0.475,-0.7589
0.084,0.054,0.052,6.7,-109,-127.4,0,2018,4,25,20,15,29.169,-0.0865,0.4429,0.4761,-0.7547
0.071,-0.017,0.015,11,-135.7,-129.8,0,2018,4,25,20,15,29.172,-0.0584,0.4543,0.482,-0.7468
-0.01,0.009,0.077,13.9,-135.6,-129.7,0,2018,4,25,20,15,29.212,-0.0292,0.4649,0.4888,-0.7375
-0.121,0.204,0.133,16.2,-153.1,-127.7,0,2018,4,25,20,15,29.232,0.0005,0.4742,0.4962,-0.7272
-0.164,0.13,0.108,18.1,-163.3,-121,0,2018,4,25,20,15,29.236,0.031,0.4825,0.5061,-0.7141
-0.207,0.049,0.042,20.7,-140.2,-114.4,0,2018,4,25,20,15,29.257,0.0601,0.4889,0.5146,-0.7017
-0.297,0.162,0.056,22.9,-108.8,-102.5,0,2018,4,25,20,15,29.278,0.0858,0.4943,0.52,-0.6912
-0.372,0.244,0.013,27.2,-88.9,-87.5,0,2018,4,25,20,15,29.297,0.1075,0.4977,0.5229,-0.6835
-0.399,0.3,-0.005,32,-90.7,-66.6,0,2018,4,25,20,15,29.315,0.1277,0.4998,0.5257,-0.6763
-0.418,0.322,0.039,31.3,-85.1,-38.2,0,2018,4,25,20,15,29.334,0.1454,0.4992,0.5302,-0.6696
-0.38,0.253,0.051,24,-62.4,-6.8,0,2018,4,25,20,15,29.354,0.1577,0.496,0.5356,-0.6649
-0.274,0.218,0.064,14.5,-28.1,19.4,0,2018,4,25,20,15,29.393,0.1631,0.4918,0.5403,-0.6629
-0.083,0.268,0.224,5.3,6.5,39.4,0,2018,4,25,20,15,29.412,0.1613,0.4875,0.5435,-0.6639
0.116,0.245,0.371,-7.8,26.1,54.3,0,2018,4,25,20,15,29.415,0.1541,0.4836,0.5455,-0.6668
0.341,0.228,0.45,-19,28.5,58,0,2018,4,25,20,15,29.453,0.1437,0.4805,0.5474,-0.6698
0.498,0.167,0.45,-25.7,24.2,51.1,0,2018,4,25,20,15,29.473,0.1327,0.4786,0.5494,-0.6718
0.544,0.127,0.376,-25.9,12.3,35.3,0,2018,4,25,20,15,29.476,0.1237,0.4779,0.5515,-0.6722
0.485,0.098,0.289,-21.6,5.8,17.2,0,2018,4,25,20,15,29.497,0.1176,0.4784,0.5532,-0.6716
0.363,0.044,0.169,-15.9,11.4,2.7,0,2018,4,25,20,15,29.518,0.1141,0.4798,0.5534,-0.671
0.233,0.022,0.037,-8.2,29.3,-8,1023,2018,4,25,20,15,29.536,0.1118,0.482,0.5509,-0.6719
0.095,-0.009,-0.031,1.1,46.1,-13.9,1023,2018,4,25,20,15,29.561,0.1104,0.4848,0.5447,-0.6752
-0.036,-0.088,-0.098,10.4,41.7,-20.2,1023,2018,4,25,20,15,29.581,0.1092,0.4868,0.5378,-0.6795
-0.164,-0.118,-0.141,18.9,14.5,-29.9,1023,2018,4,25,20,15,29.595,0.1111,0.4879,0.5319,-0.683
-0.271,-0.009,-0.12,22.9,-14.9,-33.7,1023,2018,4,25,20,15,29.636,0.1172,0.4883,0.529,-0.684
-0.302,0.084,-0.079,22.3,-14.9,-31.1,1023,2018,4,25,20,15,29.656,0.1247,0.4882,0.5278,-0.6837
-0.277,0.222,-0.016,18.9,1.7,-19.4,1023,2018,4,25,20,15,29.659,0.1302,0.4881,0.526,-0.6841
-0.211,0.38,0.108,13.1,0.6,0.6,1023,2018,4,25,20,15,29.679,0.1329,0.4872,0.5242,-0.6855
-0.075,0.42,0.277,3.1,2.7,24.6,1023,2018,4,25,20,15,29.698,0.132,0.485,0.5251,-0.6866
0.17,0.457,0.358,-9.6,10.5,46.5,0,2018,4,25,20,15,29.738,0.1267,0.4823,0.5274,-0.6878
0.393,0.424,0.382,-15.8,14.8,60.1,0,2018,4,25,20,15,29.757,0.1177,0.4792,0.5306,-0.6891
0.489,0.282,0.318,-13.8,6.4,58.6,0,2018,4,25,20,15,29.76,0.108,0.4756,0.5346,-0.69
0.481,0.159,0.225,-8.7,-11,42.7,0,2018,4,25,20,15,29.797,0.101,0.4721,0.5394,-0.6898
0.402,0.004,0.09,-1.7,-20.7,21.7,0,2018,4,25,20,15,29.799,0.0981,0.4694,0.5442,-0.6883
0.294,-0.115,-0.034,6.4,-9.5,1.1,0,2018,4,25,20,15,29.817,0.0991,0.4683,0.5465,-0.6871
0.162,-0.172,-0.111,16.2,16.4,-15.3,0,2018,4,25,20,15,29.855,0.1011,0.4682,0.5452,-0.6879
0.016,-0.166,-0.112,23.5,34.5,-30.3,0,2018,4,25,20,15,29.876,0.1036,0.4685,0.5397,-0.6916
-0.095,-0.073,-0.071,26.2,39,-38.9,0,2018,4,25,20,15,29.879,0.1072,0.4694,0.5317,-0.6966
-0.177,0.113,-0.005,24.9,23.1,-36.4,0,2018,4,25,20,15,29.916,0.1114,0.4703,0.5243,-0.7009
-0.254,0.209,0.037,21.1,2.6,-25.9,0,2018,4,25,20,15,29.938,0.1166,0.4705,0.5194,-0.7036
-0.276,0.249,0.085,14,-7,-10,0,2018,4,25,20,15,29.941,0.1209,0.4698,0.5177,-0.7046
-0.2,0.254,0.132,6.1,-10.2,7.1,0,2018,4,25,20,15,29.981,0.1227,0.4684,0.5186,-0.7046
-0.091,0.221,0.219,-1.2,-3.7,20.9,0,2018,4,25,20,15,30.002,0.1217,0.4666,0.5206,-0.7044
0.088,0.21,0.262,-7,3.1,27.1,0,2018,4,25,20,15,30.006,0.1182,0.4649,0.5227,-0.7046
0.296,0.224,0.262,-8.7,2.6,27.2,0,2018,4,25,20,15,30.019,0.1137,0.4635,0.5247,-0.7048
0.39,0.227,0.27,-5.2,-3.1,21,0,2018,4,25,20,15,30.058,0.1101,0.4621,0.5268,-0.7047
0.38,0.199,0.234,-1.2,-8.1,10.8,0,2018,4,25,20,15,30.079,0.1083,0.4609,0.5289,-0.7042
0.331,0.15,0.16,2.9,-12.4,0.5,0,2018,4,25,20,15,30.083,0.1086,0.4601,0.5306,-0.7034
0.231,0.08,0.073,6.4,-12.2,-9.1,0,2018,4,25,20,15,30.102,0.1106,0.4597,0.5317,-0.7025
0.117,0.032,0.02,9.2,-9.2,-16.2,0,2018,4,25,20,15,30.14,0.1144,0.4601,0.5313,-0.702
0.026,-0.007,-0.012,11.9,2,-20.7,0,2018,4,25,20,15,30.144,0.1185,0.4607,0.5297,-0.7021
-0.064,0.01,-0.007,14,10.2,-23.8,0,2018,4,25,20,15,30.16,0.1219,0.4613,0.5266,-0.7034
-0.131,0.059,0.014,13.9,9.5,-23.4,0,2018,4,25,20,15,30.2,0.1252,0.4618,0.523,-0.7052
-0.163,0.154,0.049,12,2.9,-17.9,1023,2018,4,25,20,15,30.218,0.1287,0.462,0.5197,-0.7069
-0.173,0.2,0.078,8.1,-2.2,-6.7,1023,2018,4,25,20,15,30.223,0.1315,0.4618,0.5182,-0.7076
-0.163,0.197,0.102,4,-3.8,5.7,1023,2018,4,25,20,15,30.24,0.1323,0.461,0.5184,-0.7078
-0.085,0.191,0.147,-0.9,-5.6,18.2,1023,2018,4,25,20,15,30.275,0.1312,0.4596,0.52,-0.7078
0.053,0.191,0.193,-5.1,-0.8,26.9,1023,2018,4,25,20,15,30.296,0.1284,0.4578,0.5224,-0.7077
0.155,0.165,0.227,-6.2,8,29.5,1023,2018,4,25,20,15,30.3,0.124,0.456,0.5244,-0.7082
0.234,0.198,0.228,-4.9,13.6,26.6,1023,2018,4,25,20,15,30.321,0.119,0.4544,0.5253,-0.7094
0.26,0.203,0.191,-3.1,10,21.9,1023,2018,4,25,20,15,30.36,0.1147,0.4529,0.5258,-0.7107
0.243,0.151,0.139,-1.2,7,16,0,2018,4,25,20,15,30.38,0.1115,0.4515,0.5263,-0.7117
0.19,0.085,0.085,0,7.5,8.9,0,2018,4,25,20,15,30.384,0.1094,0.4506,0.5264,-0.7125
0.131,0.07,0.062,1.8,9.7,2.9,0,2018,4,25,20,15,30.419,0.1081,0.4501,0.5258,-0.7135
0.055,0.04,0.039,3.4,11.7,-1.1,0,2018,4,25,20,15,30.44,0.1082,0.4503,0.5236,-0.715
-0.015,0,0.031,4.5,14.2,-3.5,0,2018,4,25,20,15,30.444,0.1083,0.4503,0.5212,-0.7167
-0.078,0.005,0.067,3.7,25.5,-3.2,0,2018,4,25,20,15,30.466,0.1076,0.45,0.5181,-0.7192
-0.153,0.021,0.139,-1.2,48.4,2.3,0,2018,4,25,20,15,30.488,0.105,0.4504,0.5133,-0.7228
-0.225,0.087,0.203,-8.6,72.3,13.7,0,2018,4,25,20,15,30.503,0.0986,0.4515,0.5061,-0.7281
-0.247,0.19,0.218,-16.3,74.4,32.7,0,2018,4,25,20,15,30.541,0.0886,0.4523,0.4985,-0.7341
-0.259,0.221,0.219,-25.2,65.6,56.9,0,2018,4,25,20,15,30.562,0.0754,0.4521,0.4934,-0.7391
-0.251,0.249,0.227,-35.1,65.4,84.1,0,2018,4,25,20,15,30.566,0.0586,0.4507,0.491,-0.7431
-0.231,0.239,0.273,-46.3,85.6,112.2,0,2018,4,25,20,15,30.601,0.0363,0.4482,0.4894,-0.7471
-0.142,0.234,0.195,-55.9,107.9,138.5,0,2018,4,25,20,15,30.622,0.0077,0.4446,0.4866,-0.7519
-0.016,0.225,0.095,-60.5,123.1,164.1,0,2018,4,25,20,15,30.626,-0.0262,0.4393,0.4828,-0.757
0.095,0.029,0.104,-61.2,144.2,180.2,0,2018,4,25,20,15,30.647,-0.0645,0.4318,0.4777,-0.7622
0.172,0,0.129,-57.7,160.6,178.2,0,2018,4,25,20,15,30.666,-0.1046,0.4227,0.469,-0.7683
0.234,0.134,0.135,-51.5,137.7,172.7,0,2018,4,25,20,15,30.703,-0.144,0.4126,0.4596,-0.7731
0.268,0.069,0.004,-47.6,72.8,161.2,0,2018,4,25,20,15,30.708,-0.1779,0.403,0.456,-0.7732
0.335,-0.015,-0.039,-42.6,24.2,145,0,2018,4,25,20,15,30.722,-0.2053,0.3953,0.4591,-0.7685
0.338,-0.122,0.016,-42.4,7.3,123.7,0,2018,4,25,20,15,30.761,-0.2275,0.3896,0.465,-0.7616
0.339,-0.149,0.014,-45.9,20.6,101.3,0,2018,4,25,20,15,30.783,-0.2467,0.3859,0.4692,-0.755
0.326,-0.14,-0.064,-48.7,50.1,81.1,0,2018,4,25,20,15,30.787,-0.2649,0.3831,0.4684,-0.7507
0.322,-0.034,-0.137,-48.1,74.3,65.2,0,2018,4,25,20,15,30.807,-0.2825,0.3805,0.4625,-0.7492
0.273,0.051,-0.117,-47.2,90.8,59.6,1023,2018,4,25,20,15,30.825,-0.2998,0.3776,0.4534,-0.7495
0.216,0.141,-0.09,-46.5,117.7,63,1023,2018,4,25,20,15,30.864,-0.3183,0.3734,0.4411,-0.7513
0.171,0.257,-0.119,-45,137.5,72,1023,2018,4,25,20,15,30.885,-0.339,0.3669,0.4258,-0.7543
0.139,0.345,-0.152,-41.2,157.1,88.9,1023,2018,4,25,20,15,30.889,-0.362,0.3578,0.4088,-0.7573
0.073,0.395,-0.092,-32.5,195.3,114.5,1023,2018,4,25,20,15,30.908,-0.3888,0.3443,0.3893,-0.7606
-0.064,0.021,-0.113,-22.3,263.5,131.6,1023,2018,4,25,20,15,30.945,-0.4205,0.3237,0.3639,-0.7653
-0.015,0.056,-0.256,-6.1,319.7,136,1023,2018,4,25,20,15,30.965,-0.4553,0.2949,0.3303,-0.7723
0.016,0.244,-0.204,13.9,334.6,146.1,1023,2018,4,25,20,15,30.969,-0.4899,0.2599,0.2926,-0.7789
0.059,0.385,-0.059,34.4,288.7,153.2,1023,2018,4,25,20,15,30.987,-0.5224,0.2214,0.2582,-0.7819
0.024,0.146,0.119,45.7,197.9,145,1023,2018,4,25,20,15,31.006,-0.5497,0.1869,0.2338,-0.7798
0.033,-0.308,0.251,44.7,126.8,130.1,0,2018,4,25,20,15,31.024,-0.5713,0.1604,0.2207,-0.7739
0.061,-0.384,0.289,43.4,104.3,109.6,0,2018,4,25,20,15,31.062,-0.5884,0.1402,0.2133,-0.7671
0.028,-0.212,0.101,45.8,71.2,96.1,0,2018,4,25,20,15,31.082,-0.6022,0.1227,0.2087,-0.7607
0.036,-0.236,0.001,49.8,36.7,80.7,0,2018,4,25,20,15,31.086,-0.6131,0.1085,0.2087,-0.7541
0.04,-0.324,0.064,50.3,31.2,65.2,0,2018,4,25,20,15,31.126,-0.6213,0.096,0.2113,-0.7483
0.086,-0.25,0.066,48,53.3,58.8,0,2018,4,25,20,15,31.146,-0.6281,0.0828,0.2119,-0.744
0.148,-0.097,-0.025,48.4,50.3,61.3,0,2018,4,25,20,15,31.15,-0.6349,0.0683,0.2106,-0.7401
0.193,-0.105,-0.096,49.4,15.5,65,0,2018,4,25,20,15,31.169,-0.6417,0.0562,0.2124,-0.7347
0.291,-0.032,-0.035,47.3,-21.1,66.4,0,2018,4,25,20,15,31.188,-0.6483,0.0482,0.2189,-0.7275
0.544,0.074,0.08,34.5,-44.2,68,0,2018,4,25,20,15,31.225,-0.6549,0.0443,0.2285,-0.7188
0.91,0.167,0.158,13,-37.3,65.5,0,2018,4,25,20,15,31.245,-0.6621,0.0439,0.237,-0.7095
1.113,0.201,0.1,-10.6,-10.1,54.9,0,2018,4,25,20,15,31.249,-0.6694,0.044,0.2402,-0.7015
1.179,0.281,-0.064,-26.8,-3.9,44.8,0,2018,4,25,20,15,31.266,-0.6762,0.0452,0.2387,-0.6954
1.069,0.262,-0.21,-28,-1.3,41.1,0,2018,4,25,20,15,31.287,-0.6825,0.0472,0.236,-0.69
0.776,0.121,-0.154,-16,16.5,46.7,0,2018,4,25,20,15,31.309,-0.6887,0.0477,0.233,-0.6849
0.149,-0.483,0.234,-3.2,80.7,45,0,2018,4,25,20,15,31.329,-0.6951,0.041,0.2265,-0.6809
-0.328,-0.428,0.279,10.2,80.8,31.4,0,2018,4,25,20,15,31.367,-0.7,0.0279,0.2162,-0.6799
-0.707,-0.356,0.233,5.1,-13.5,12,0,2018,4,25,20,15,31.389,-0.7022,0.0219,0.2136,-0.6787
-0.888,-0.581,0.216,-2,-68.2,-10.3,0,2018,4,25,20,15,31.393,-0.7021,0.0278,0.2193,-0.6768
-0.86,-0.538,0.001,-3.7,-66.5,-23,0,2018,4,25,20,15,31.408,-0.6997,0.0377,0.227,-0.6763
-0.637,-0.293,-0.194,2.1,-43.5,-21.3,0,2018,4,25,20,15,31.445,-0.6966,0.0455,0.2332,-0.6769
-0.518,-0.281,-0.141,12.8,-8.2,-19.6,0,2018,4,25,20,15,31.465,-0.6937,0.0486,0.2368,-0.6784
-0.354,-0.176,-0.14,24.5,-2,-16.6,1023,2018,4,25,20,15,31.469,-0.6908,0.0473,0.2389,-0.6807
-0.082,0,-0.229,40.1,-34.4,-6.7,1023,2018,4,25,20,15,31.488,-0.6879,0.0462,0.2448,-0.6816
0.159,0.091,-0.171,55.6,-54.9,3.2,1023,2018,4,25,20,15,31.509,-0.6851,0.0468,0.2563,-0.6801
0.435,0.249,-0.018,62.9,-46.3,14.7,1023,2018,4,25,20,15,31.548,-0.683,0.0456,0.2699,-0.677
0.697,0.332,0.169,57.9,-16.2,24.7,1023,2018,4,25,20,15,31.568,-0.6822,0.0411,0.2812,-0.6736
0.933,0.336,0.322,46.1,23.9,27.9,1023,2018,4,25,20,15,31.573,-0.6829,0.0331,0.2868,-0.671
1.095,0.378,0.344,30.9,33.4,25.2,1023,2018,4,25,20,15,31.592,-0.6843,0.0235,0.2876,-0.6696
1.102,0.336,0.327,13.6,15.1,21.7,1023,2018,4,25,20,15,31.614,-0.686,0.0169,0.2874,-0.668
0.919,0.045,0.424,-9.3,5.3,14.2,1023,2018,4,25,20,15,31.634,-0.688,0.0146,0.2868,-0.6663
0.763,-0.101,0.278,-32.6,14.6,3.9,0,2018,4,25,20,15,31.654,-0.6901,0.0156,0.2831,-0.6657
0.628,-0.077,0.09,-44.7,26.9,1.4,0,2018,4,25,20,15,31.67,-0.6923,0.0174,0.276,-0.6664
0.461,-0.069,-0.004,-44.1,27.4,2.8,0,2018,4,25,20,15,31.69,-0.6948,0.0192,0.2672,-0.6673
0.16,-0.208,0.045,-42.7,29,4.1,0,2018,4,25,20,15,31.728,-0.6973,0.0209,0.2587,-0.668
-0.227,-0.364,0.197,-47.5,42.1,7.4,0,2018,4,25,20,15,31.748,-0.7002,0.0216,0.2492,-0.6686
-0.621,-0.458,0.299,-56.2,46.7,5.3,0,2018,4,25,20,15,31.752,-0.7034,0.0217,0.2372,-0.6696
-0.886,-0.342,0.13,-62,8.8,2.4,0,2018,4,25,20,15,31.788,-0.7064,0.025,0.2262,-0.6701
-0.816,-0.141,-0.165,-54.6,-53.8,2.6,0,2018,4,25,20,15,31.808,-0.7089,0.0347,0.2216,-0.6686
-0.688,-0.156,-0.271,-36,-86,4.6,0,2018,4,25,20,15,31.812,-0.7105,0.0492,0.2248,-0.6649
-0.465,-0.147,-0.314,-14.1,-69.8,7.1,0,2018,4,25,20,15,31.852,-0.7114,0.0617,0.2311,-0.6607
-0.221,-0.135,-0.33,12.1,-39.6,11.7,0,2018,4,25,20,15,31.871,-0.7119,0.0681,0.2373,-0.6573
0.018,-0.008,-0.284,35,-24.9,18.2,0,2018,4,25,20,15,31.876,-0.7122,0.0686,0.2439,-0.6545
0.267,0.134,-0.154,49.5,-24.1,28.6,0,2018,4,25,20,15,31.892,-0.7127,0.0661,0.2524,-0.651
0.585,0.217,0.019,54.5,-26,38.7,0,2018,4,25,20,15,31.93,-0.7139,0.0618,0.2623,-0.6462
0.935,0.198,0.145,50.8,-21.2,40.8,0,2018,4,25,20,15,31.951,-0.7158,0.0571,0.2719,-0.6405
1.104,0.15,0.2,39.7,-11.3,36.4,0,2018,4,25,20,15,31.955,-0.7178,0.0523,0.2798,-0.6353
1.079,0.128,0.311,21.2,-4.4,29.9,0,2018,4,25,20,15,31.973,-0.7198,0.0482,0.2847,-0.6311
0.87,-0.169,0.388,-7,3.7,15.8,0,2018,4,25,20,15,32.012,-0.7221,0.0464,0.2858,-0.6281
0.724,-0.189,0.236,-31.3,4.4,2.4,0,2018,4,25,20,15,32.033,-0.7241,0.0476,0.2826,-0.6272
0.534,-0.166,0.058,-38.6,-7.3,-6.1,0,2018,4,25,20,15,32.036,-0.7255,0.0516,0.2783,-0.6272
0.323,-0.152,-0.05,-33.4,-23,-10,0,2018,4,25,20,15,32.055,-0.7262,0.0579,0.2755,-0.6271
-0.095,-0.455,0.055,-30.6,-8.7,-20,0,2018,4,25,20,15,32.077,-0.7258,0.0644,0.2736,-0.6277
-0.457,-0.492,0.101,-31.5,29.6,-29.1,1023,2018,4,25,20,15,32.096,-0.7247,0.0675,0.268,-0.6311
-0.747,-0.404,0.049,-30.6,44.2,-34.5,1023,2018,4,25,20,15,32.111,-0.723,0.0673,0.2592,-0.6367
-0.865,-0.282,-0.115,-25.1,23.1,-34.7,1023,2018,4,25,20,15,32.149,-0.7208,0.0677,0.2512,-0.6423
-0.739,-0.123,-0.247,-12.2,-10.5,-29,1023,2018,4,25,20,15,32.169,-0.7181,0.0706,0.2478,-0.6464
-0.47,-0.038,-0.329,5.4,-32.6,-17.4,1023,2018,4,25,20,15,32.172,-0.7153,0.075,0.2497,-0.6483
-0.188,0,-0.382,29.3,-44.1,-3,1023,2018,4,25,20,15,32.212,-0.7129,0.0785,0.256,-0.648
0.068,0.102,-0.471,61.1,-71,11.1,1023,2018,4,25,20,15,32.233,-0.7105,0.0802,0.268,-0.6455
0.219,0.023,-0.406,87.3,-104.3,24.4,1023,2018,4,25,20,15,32.237,-0.7077,0.0819,0.2875,-0.64
0.381,0.085,-0.102,99.3,-109,35.3,0,2018,4,25,20,15,32.256,-0.7045,0.0837,0.312,-0.6318
0.678,0.136,0.345,86.1,-49.8,42.8,0,2018,4,25,20,15,32.292,-0.7024,0.0814,0.333,-0.6237
1.083,0.277,0.529,57.9,13.6,37.4,0,2018,4,25,20,15,32.312,-0.7024,0.073,0.3438,-0.6188
1.227,0.269,0.563,27.6,38.3,25.2,0,2018,4,25,20,15,32.315,-0.7037,0.0629,0.346,-0.6173
1.104,0.083,0.611,-2.9,23.2,5.4,0,2018,4,25,20,15,32.354,-0.7049,0.0567,0.344,-0.6175
0.858,-0.234,0.554,-32.6,0.2,-18.5,0,2018,4,25,20,15,32.373,-0.7054,0.0578,0.3405,-0.6188
0.607,-0.246,0.439,-54.8,-15.3,-35.1,0,2018,4,25,20,15,32.377,-0.7048,0.0653,0.3358,-0.6213
0.388,-0.324,0.279,-68.4,-2.3,-42.8,0,2018,4,25,20,15,32.395,-0.7041,0.0757,0.3288,-0.6247
0.172,-0.333,0.088,-70.6,25.7,-47.6,0,2018,4,25,20,15,32.414,-0.7032,0.0844,0.3182,-0.6301
-0.097,-0.237,-0.034,-64.8,48.3,-44.8,0,2018,4,25,20,15,32.434,-0.7022,0.0896,0.305,-0.6369
-0.534,-0.243,-0.056,-53.5,60.9,-33.2,0,2018,4,25,20,15,32.475,-0.7018,0.0914,0.291,-0.6437
-0.969,-0.314,-0.131,-40,62.5,-22.6,0,2018,4,25,20,15,32.493,-0.702,0.0901,0.2775,-0.6495
-0.982,-0.071,-0.351,-24.5,14.2,-8.2,0,2018,4,25,20,15,32.497,-0.7024,0.0895,0.2686,-0.6529
-0.728,-0.008,-0.477,-5.1,-42.6,6.5,0,2018,4,25,20,15,32.518,-0.7028,0.0935,0.2689,-0.6518
-0.449,-0.079,-0.457,18.1,-47.4,20,0,2018,4,25,20,15,32.537,-0.7032,0.098,0.2756,-0.6479
-0.169,-0.083,-0.414,41.5,-30.7,31.1,0,2018,4,25,20,15,32.576,-0.704,0.0981,0.2841,-0.6433
0.127,0.012,-0.389,68.2,-27.9,41,0,2018,4,25,20,15,32.58,-0.7048,0.0935,0.2946,-0.6384
0.401,0.119,-0.184,87.9,-40.8,46,0,2018,4,25,20,15,32.596,-0.705,0.0866,0.3088,-0.6324
0.772,0.229,0.125,92.8,-47.3,45.5,0,2018,4,25,20,15,32.614,-0.7044,0.0796,0.3257,-0.6255
1.082,0.18,0.361,80.1,-40.6,33.9,0,2018,4,25,20,15,32.636,-0.7031,0.0735,0.3417,-0.6191
1.145,0.064,0.519,56.5,-13.1,18.8,0,2018,4,25,20,15,32.675,-0.7014,0.068,0.3533,-0.6151
1.004,-0.093,0.58,25.1,18.3,1.4,0,2018,4,25,20,15,32.694,-0.6999,0.0623,0.3581,-0.6147
0.749,-0.153,0.529,-6.2,29.8,-10.3,0,2018,4,25,20,15,32.698,-0.6991,0.0585,0.3563,-0.6171
0.408,-0.335,0.513,-35.6,31.8,-20.2,0,2018,4,25,20,15,32.72,-0.6991,0.058,0.3501,-0.6206
0.071,-0.542,0.467,-61.2,40.6,-32.8,0,2018,4,25,20,15,32.739,-0.6995,0.0606,0.3401,-0.6254
-0.234,-0.483,0.218,-78.5,51.8,-44.7,1023,2018,4,25,20,15,32.774,-0.6997,0.0648,0.3258,-0.6323
-0.421,-0.361,-0.078,-79.2,47.6,-46.6,1023,2018,4,25,20,15,32.795,-0.6996,0.0698,0.3101,-0.6399
-0.469,-0.357,-0.298,-67.4,34.9,-45.1,1023,2018,4,25,20,15,32.799,-0.6988,0.0754,0.296,-0.6467
-0.43,-0.371,-0.383,-40.6,18.3,-49.7,1023,2018,4,25,20,15,32.816,-0.6966,0.0808,0.2856,-0.6531
-0.268,-0.271,-0.465,-6.5,-2.1,-56.1,1023,2018,4,25,20,15,32.855,-0.6917,0.0851,0.2811,-0.6596
-0.062,-0.178,-0.579,33.1,-22.3,-61.1,1023,2018,4,25,20,15,32.875,-0.6841,0.0881,0.2834,-0.6662
0.148,-0.126,-0.606,73.2,-25.5,-65.2,1023,2018,4,25,20,15,32.879,-0.6736,0.088,0.2918,-0.6732
0.343,-0.021,-0.534,109,-19,-70,1023,2018,4,25,20,15,32.897,-0.6604,0.0833,0.3042,-0.6813
0.598,0.133,-0.356,139.3,-2.6,-84.6,1023,2018,4,25,20,15,32.92,-0.6443,0.0737,0.3186,-0.6912
0.718,0.374,0.009,160.2,23.4,-105.4,1023,2018,4,25,20,15,32.938,-0.6242,0.0601,0.333,-0.7041
0.708,0.512,0.332,160.8,75.3,-123,0,2018,4,25,20,15,32.978,-0.6007,0.0416,0.3429,-0.7209
0.589,0.497,0.714,133.4,139,-129.5,0,2018,4,25,20,15,32.996,-0.5762,0.0194,0.3435,-0.7413
0.548,0.579,0.832,87.7,187.2,-121.1,0,2018,4,25,20,15,33,-0.5533,-0.0038,0.3322,-0.7638
0.476,0.524,0.655,47,212.5,-104.3,0,2018,4,25,20,15,33.022,-0.5336,-0.0256,0.3114,-0.7858
0.327,0.44,0.497,19,209.6,-84.4,0,2018,4,25,20,15,33.048,-0.5176,-0.0444,0.285,-0.8054
0.19,0.218,0.331,12.9,200.4,-71,0,2018,4,25,20,15,33.066,-0.5044,-0.0608,0.2576,-0.8218
0.049,0.203,0.242,23.2,190.4,-62.2,0,2018,4,25,20,15,33.076,-0.4917,-0.0776,0.2314,-0.8358
-0.079,0.041,0.235,31.5,173.6,-53.4,0,2018,4,25,20,15,33.113,-0.4796,-0.0948,0.2076,-0.8472
-0.196,-0.24,0.309,32.2,175.1,-43.4,0,2018,4,25,20,15,33.135,-0.4682,-0.1123,0.1857,-0.8565
-0.224,-0.28,0.272,21.2,174.2,-33.1,0,2018,4,25,20,15,33.137,-0.458,-0.1293,0.1621,-0.8643
-0.113,-0.246,0.091,10.4,157.5,-27.7,0,2018,4,25,20,15,33.175,-0.4492,-0.1439,0.1386,-0.8707
0.09,-0.228,-0.081,8.1,111.6,-26.3,0,2018,4,25,20,15,33.194,-0.4417,-0.155,0.1189,-0.8756
0.311,-0.472,-0.158,10.8,56.9,-33.8,0,2018,4,25,20,15,33.198,-0.4349,-0.1619,0.1077,-0.8791
0.491,-0.799,-0.13,11.2,31.1,-51.7,0,2018,4,25,20,15,33.236,-0.4274,-0.1658,0.1032,-0.8826
0.6,-0.938,-0.15,6.5,27,-83.2,0,2018,4,25,20,15,33.258,-0.416,-0.168,0.1013,-0.8879
0.588,-0.816,-0.201,0,16.5,-117.2,0,2018,4,25,20,15,33.262,-0.3998,-0.1681,0.1007,-0.8953
0.509,-0.622,-0.23,-7.3,-5.8,-145.6,0,2018,4,25,20,15,33.278,-0.3789,-0.1654,0.1033,-0.9046
0.288,-0.413,-0.17,-7.8,-25.8,-170.1,0,2018,4,25,20,15,33.317,-0.3544,-0.1601,0.11,-0.9146
0.059,-0.097,-0.048,-5.2,-30.9,-187.7,0,2018,4,25,20,15,33.335,-0.3264,-0.1535,0.1194,-0.9249
-0.181,0.342,0.123,-2.6,-23.1,-188,0,2018,4,25,20,15,33.338,-0.2964,-0.1473,0.1286,-0.9347
-0.468,0.76,0.302,-8.3,-15.3,-162.4,0,2018,4,25,20,15,33.376,-0.2682,-0.1415,0.1356,-0.9431
-0.63,0.986,0.292,-17.6,-20.3,-113.5,1023,2018,4,25,20,15,33.397,-0.2461,-0.1351,0.1412,-0.9493
-0.726,0.992,0.205,-24.5,-20,-57.5,1023,2018,4,25,20,15,33.401,-0.2332,-0.1285,0.1457,-0.9528
-0.651,1.006,0.165,-20.4,-4.4,2.3,1023,2018,4,25,20,15,33.44,-0.2298,-0.1235,0.1478,-0.9539
-0.656,1.031,0.281,-15.6,9.9,61.5,1023,2018,4,25,20,15,33.46,-0.2357,-0.1216,0.1457,-0.953
-0.578,0.917,0.318,-13.8,15.6,117.2,1023,2018,4,25,20,15,33.464,-0.2509,-0.1221,0.141,-0.9498
-0.471,0.682,0.246,-12,27,165.2,1023,2018,4,25,20,15,33.484,-0.2744,-0.1242,0.1339,-0.944
-0.366,0.522,0.152,-9.3,47,205,1023,2018,4,25,20,15,33.503,-0.3045,-0.1286,0.123,-0.9357
-0.264,0.324,0.059,-4.5,58.6,234,1023,2018,4,25,20,15,33.542,-0.3393,-0.135,0.1088,-0.9245
-0.162,0.109,0.021,0.6,66.6,249.8,1023,2018,4,25,20,15,33.563,-0.3769,-0.1428,0.0926,-0.9104
-0.007,-0.099,0.06,3.3,69.2,250.7,0,2018,4,25,20,15,33.567,-0.4147,-0.1518,0.0756,-0.8939
0.129,-0.432,0.135,-0.8,65.3,241.9,0,2018,4,25,20,15,33.582,-0.451,-0.1598,0.0586,-0.876
0.39,-0.982,-0.002,-10.4,68.6,216.5,0,2018,4,25,20,15,33.618,-0.4842,-0.1662,0.0415,-0.858
0.701,-1.344,-0.05,-15.3,76.4,166.8,0,2018,4,25,20,15,33.639,-0.5105,-0.1716,0.0235,-0.8421
0.793,-1.402,-0.059,-19.6,52.1,102.8,0,2018,4,25,20,15,33.643,-0.5282,-0.175,0.0084,-0.8307
0.712,-1.254,-0.194,-21.6,0.2,27.7,0,2018,4,25,20,15,33.663,-0.5368,-0.1745,0.0003,-0.8254
0.654,-1.115,-0.269,-17.8,-61.6,-47.4,0,2018,4,25,20,15,33.686,-0.5361,-0.1683,0.0033,-0.8271
0.559,-0.941,-0.273,-1.7,-104,-111.1,0,2018,4,25,20,15,33.721,-0.5269,-0.1584,0.0171,-0.8348
0.363,-0.624,-0.138,21.2,-120.1,-161.7,0,2018,4,25,20,15,33.742,-0.5096,-0.1488,0.0383,-0.8465
0.116,-0.136,0.198,31.8,-109.4,-189.8,0,2018,4,25,20,15,33.746,-0.4858,-0.141,0.0625,-0.8602
-0.153,0.452,0.436,26.5,-66.2,-180.4,0,2018,4,25,20,15,33.766,-0.4593,-0.1356,0.0828,-0.8739
-0.364,0.797,0.42,9.5,-8.1,-154.1,0,2018,4,25,20,15,33.783,-0.4343,-0.1329,0.093,-0.886
-0.524,1.333,0.28,-8.2,8.6,-105.8,0,2018,4,25,20,15,33.821,-0.4138,-0.1312,0.0951,-0.8957
-0.497,1.492,0.371,-18.7,16.2,-27.7,0,2018,4,25,20,15,33.841,-0.4039,-0.1291,0.0928,-0.9008
-0.463,1.426,0.345,-30.1,-16,54.7,0,2018,4,25,20,15,33.845,-0.407,-0.1253,0.0904,-0.9002
-0.325,1.044,0.175,-31.3,-31.9,119.4,0,2018,4,25,20,15,33.865,-0.4224,-0.1197,0.0903,-0.8938
-0.174,0.679,0.056,-25.1,-14.7,159.6,0,2018,4,25,20,15,33.904,-0.4455,-0.1156,0.0889,-0.8832
-0.034,0.458,-0.001,-14,4.5,181.7,0,2018,4,25,20,15,33.925,-0.4724,-0.1148,0.0843,-0.8697
0.098,0.24,-0.047,-2.7,11.4,191.5,0,2018,4,25,20,15,33.929,-0.5007,-0.117,0.0784,-0.854
0.181,-0.104,-0.032,4.2,28.3,190.4,0,2018,4,25,20,15,33.947,-0.5287,-0.1212,0.0717,-0.837
0.227,-0.51,0.114,0.8,62.6,172.2,0,2018,4,25,20,15,33.985,-0.5541,-0.1281,0.0611,-0.8202
0.352,-0.695,0.049,-6.6,71.7,143.4,0,2018,4,25,20,15,33.989,-0.5749,-0.136,0.0471,-0.8054
0.46,-1.035,0.017,-16.3,49.2,100.8,0,2018,4,25,20,15,34.003,-0.5907,-0.1415,0.0343,-0.7936
