ax,ay,az,dpitch,droll,dyaw,heart,time_1,time_2,time_3,time_4,time_5,time_6,w,x,y,z
-0.331,0.065,-0.174,133.7,15.3,-233,0,2018,5,17,19,59,5.674,-0.4682,0.529,-0.6517,0.2757
-0.312,0.211,-0.102,136.7,50.6,-220,0,2018,5,17,19,59,5.696,-0.4973,0.5064,-0.6592,0.2479
-0.265,0.28,-0.15,139.2,75.1,-204.7,0,2018,5,17,19,59,5.713,-0.5274,0.4817,-0.6627,0.2245
-0.123,0.35,-0.192,142.9,83.7,-186.6,0,2018,5,17,19,59,5.736,-0.5576,0.4567,-0.6624,0.2038
-0.027,0.341,-0.195,152.3,88.5,-168.2,0,2018,5,17,19,59,5.753,-0.5873,0.4327,-0.6585,0.1845
0.042,0.369,-0.224,165.1,86.4,-155.4,0,2018,5,17,19,59,5.789,-0.6169,0.4099,-0.651,0.1658
0.075,0.374,-0.25,182.5,78.5,-146.1,0,2018,5,17,19,59,5.812,-0.6464,0.3886,-0.64,0.1461
0.076,0.397,-0.202,196,86.7,-134,0,2018,5,17,19,59,5.816,-0.6761,0.3683,-0.6254,0.1263
0.066,0.406,-0.228,202.2,102,-125.9,0,2018,5,17,19,59,5.835,-0.7062,0.3469,-0.6074,0.1085
0.115,0.472,-0.296,210.4,98.6,-122.7,0,2018,5,17,19,59,5.872,-0.7359,0.3247,-0.587,0.091
0.156,0.495,-0.367,218.3,78.9,-116.9,0,2018,5,17,19,59,5.894,-0.7641,0.3039,-0.5642,0.0725
0.142,0.451,-0.399,227.5,55.6,-110.5,0,2018,5,17,19,59,5.898,-0.7903,0.2863,-0.539,0.0518
0.052,0.454,-0.412,234.8,31.2,-102.3,1023,2018,5,17,19,59,5.914,-0.8144,0.2722,-0.5115,0.0294
-0.026,0.428,-0.415,238.9,14.5,-92.7,1023,2018,5,17,19,59,5.937,-0.8363,0.2614,-0.4818,0.006
-0.117,0.453,-0.39,239.7,4.7,-84.7,1023,2018,5,17,19,59,5.957,-0.8562,0.2525,-0.4502,-0.0172
-0.209,0.401,-0.427,230.3,-7.7,-78.1,1023,2018,5,17,19,59,5.973,-0.8736,0.2453,-0.4181,-0.0402
-0.26,0.361,-0.456,212.9,-10,-69.4,1023,2018,5,17,19,59,5.995,-0.8882,0.2395,-0.387,-0.0618
-0.288,0.338,-0.491,193.1,-19.5,-63,1023,2018,5,17,19,59,6.03,-0.9,0.2347,-0.3578,-0.0818
-0.315,0.335,-0.493,168.9,-27.3,-54.2,1023,2018,5,17,19,59,6.053,-0.909,0.232,-0.3312,-0.1002
-0.36,0.294,-0.555,141.1,-32.9,-46.6,0,2018,5,17,19,59,6.058,-0.9155,0.2309,-0.308,-0.1162
-0.334,0.305,-0.681,115.9,-44.3,-39.9,0,2018,5,17,19,59,6.075,-0.9197,0.232,-0.2885,-0.1305
-0.336,0.292,-0.719,93.1,-55.7,-25.5,0,2018,5,17,19,59,6.113,-0.9219,0.236,-0.2718,-0.1428
-0.346,0.245,-0.701,72.3,-66.5,-5.2,0,2018,5,17,19,59,6.134,-0.9228,0.2429,-0.2576,-0.1516
-0.362,0.107,-0.682,55,-83.9,18.5,0,2018,5,17,19,59,6.138,-0.9225,0.2533,-0.2451,-0.1566
-0.389,-0.033,-0.592,41,-92,55.5,0,2018,5,17,19,59,6.157,-0.9214,0.268,-0.2333,-0.1568
-0.444,-0.198,-0.444,27.9,-72.9,96.1,0,2018,5,17,19,59,6.179,-0.9208,0.2837,-0.2218,-0.1494
-0.467,-0.263,-0.256,13.5,-28.3,129.2,0,2018,5,17,19,59,6.198,-0.9219,0.2956,-0.2114,-0.1339
-0.358,-0.232,-0.117,1.9,0.6,154.4,0,2018,5,17,19,59,6.22,-0.9247,0.302,-0.2028,-0.1114
-0.328,-0.394,-0.105,11.6,-12.1,170.3,0,2018,5,17,19,59,6.237,-0.9275,0.3083,-0.1932,-0.0855
-0.37,-0.443,-0.027,35.6,-20.8,186.1,0,2018,5,17,19,59,6.255,-0.9295,0.3167,-0.1794,-0.0584
-0.476,-0.492,0.164,55.9,-2.4,192.1,0,2018,5,17,19,59,6.279,-0.9316,0.3241,-0.1611,-0.0306
-0.52,-0.468,0.381,76.8,0.6,184.9,0,2018,5,17,19,59,6.296,-0.9342,0.3281,-0.1394,-0.0031
-0.537,-0.529,0.608,80,-14.3,160.7,0,2018,5,17,19,59,6.318,-0.9353,0.3334,-0.1163,0.0203
-0.476,-0.474,0.68,77.8,-45.8,125.5,0,2018,5,17,19,59,6.336,-0.9343,0.3411,-0.0953,0.0384
-0.318,-0.341,0.522,74.5,-92.4,97.3,0,2018,5,17,19,59,6.359,-0.9303,0.3549,-0.0768,0.0507
-0.161,-0.27,0.527,66,-114.9,74.9,0,2018,5,17,19,59,6.378,-0.9236,0.3737,-0.061,0.0587
-0.032,-0.259,0.533,58.1,-117.4,60.7,0,2018,5,17,19,59,6.416,-0.9156,0.3939,-0.0479,0.0642
0.044,-0.167,0.501,50.1,-102.9,54.2,0,2018,5,17,19,59,6.438,-0.908,0.4115,-0.0364,0.0687
0.117,-0.02,0.417,39.8,-96.6,53.8,0,2018,5,17,19,59,6.442,-0.9005,0.4277,-0.0266,0.0732
0.145,0.036,0.33,29.8,-103.1,56.1,0,2018,5,17,19,59,6.457,-0.8924,0.4438,-0.0183,0.0788
0.15,0.093,0.258,20.9,-120.3,57.7,0,2018,5,17,19,59,6.475,-0.8829,0.4615,-0.0115,0.0854
0.149,0.046,0.213,14.8,-142.3,53.3,0,2018,5,17,19,59,6.498,-0.8711,0.4822,-0.0063,0.0923
0.123,0.005,0.175,10.6,-155.1,45,0,2018,5,17,19,59,6.517,-0.8575,0.5048,-0.0027,0.0985
0.125,0.009,0.167,7.4,-163.8,35.2,0,2018,5,17,19,59,6.54,-0.8425,0.5285,-0.0005,0.1035
0.123,-0.094,0.101,3.7,-160.1,25.3,0,2018,5,17,19,59,6.559,-0.8267,0.5521,0,0.1073
0.133,-0.17,0.023,1,-136.9,17.4,0,2018,5,17,19,59,6.581,-0.8118,0.5734,-0.0011,0.1093
0.165,-0.19,-0.034,0.3,-105.5,9.4,0,2018,5,17,19,59,6.617,-0.7995,0.5902,-0.0022,0.1108
0.169,-0.185,-0.057,2.2,-74.6,1.9,0,2018,5,17,19,59,6.64,-0.7902,0.6025,-0.0032,0.1113
0.143,-0.193,-0.059,3.7,-46.5,-3.5,1023,2018,5,17,19,59,6.645,-0.784,0.6106,-0.004,0.1108
0.112,-0.131,-0.056,7.9,-34.3,-11,1023,2018,5,17,19,59,6.659,-0.7802,0.6158,-0.0047,0.1091
0.084,-0.105,-0.062,12.4,-31.6,-16.3,1023,2018,5,17,19,59,6.677,-0.7766,0.621,-0.0061,0.1054
0.063,-0.06,-0.081,17.9,-36.3,-24.6,1023,2018,5,17,19,59,6.701,-0.7726,0.6267,-0.0075,0.1002
0.04,-0.017,-0.094,24.8,-46.4,-29.6,1023,2018,5,17,19,59,6.719,-0.7679,0.6335,-0.0087,0.0937
0.022,0.07,-0.074,32.9,-72.9,-35.5,1023,2018,5,17,19,59,6.738,-0.7614,0.6425,-0.0095,0.0857
0.024,0.012,-0.124,38.3,-82.9,-34.1,0,2018,5,17,19,59,6.762,-0.7522,0.6543,-0.01,0.0765
0.027,0.049,-0.146,40.6,-73.7,-28.5,0,2018,5,17,19,59,6.78,-0.7425,0.6662,-0.0095,0.0674
0.045,0.128,-0.134,42.1,-60.4,-17.4,0,2018,5,17,19,59,6.8,-0.7339,0.6765,-0.0078,0.059
0.011,0.182,-0.094,42.2,-44.6,-2,0,2018,5,17,19,59,6.819,-0.7269,0.6846,-0.004,0.0526
0.021,0.178,-0.078,43.4,-39.1,11,0,2018,5,17,19,59,6.843,-0.7211,0.691,0.0014,0.0478
0.009,0.203,-0.033,42.3,-33.8,26.6,0,2018,5,17,19,59,6.86,-0.716,0.6965,0.009,0.0449
0.046,0.258,-0.008,39.2,-26.3,41.1,0,2018,5,17,19,59,6.883,-0.7117,0.7008,0.018,0.0441
0.058,0.258,-0.015,35.8,-17.2,55.5,0,2018,5,17,19,59,6.9,-0.7082,0.7039,0.0283,0.0452
0.045,0.124,-0.03,30.5,0,69.6,0,2018,5,17,19,59,6.936,-0.706,0.7053,0.0398,0.0486
0.001,0.084,0.02,23.9,9.5,76.9,0,2018,5,17,19,59,6.959,-0.7057,0.7043,0.0525,0.0543
0.007,0.03,0.074,15.2,9.1,78.6,0,2018,5,17,19,59,6.963,-0.7061,0.7024,0.0647,0.0615
0.047,0.024,0.098,5.4,16.8,75.3,0,2018,5,17,19,59,6.98,-0.7073,0.6993,0.0754,0.0694
0.103,-0.035,0.033,-0.9,14,70.5,0,2018,5,17,19,59,7,-0.709,0.6958,0.0842,0.0775
0.082,-0.235,-0.063,-5.7,41.2,63.6,0,2018,5,17,19,59,7.039,-0.711,0.6919,0.0915,0.0849
0.094,-0.245,-0.07,-10.5,92.9,56.9,0,2018,5,17,19,59,7.062,-0.7179,0.683,0.098,0.0914
0.123,-0.091,-0.019,-9.1,116.2,47.6,0,2018,5,17,19,59,7.067,-0.7299,0.6686,0.1039,0.0962
0.142,0.015,0.037,-7.4,109.3,37.8,0,2018,5,17,19,59,7.083,-0.7427,0.6531,0.1088,0.0996
0.168,0.004,0.07,-3.8,83.4,27.9,0,2018,5,17,19,59,7.104,-0.7533,0.6396,0.1135,0.1026
0.063,0.168,0.118,4.2,28.6,18.2,0,2018,5,17,19,59,7.122,-0.7596,0.6311,0.1173,0.1042
0.051,0.049,0.117,5.6,-21,9.7,0,2018,5,17,19,59,7.141,-0.7595,0.6306,0.1196,0.1054
0.078,0.025,0.076,4.7,-40.1,5,0,2018,5,17,19,59,7.159,-0.7563,0.6342,0.12,0.1061
0.071,-0.074,0.044,1.1,-29.7,5.7,0,2018,5,17,19,59,7.182,-0.7524,0.6388,0.1196,0.1066
0.011,-0.056,0.108,2.1,-1.1,5.8,0,2018,5,17,19,59,7.2,-0.7512,0.6401,0.1198,0.1069
-0.062,-0.089,0.02,0,19.3,7,0,2018,5,17,19,59,7.221,-0.7525,0.6383,0.1211,0.1077
-0.027,-0.036,0.009,-0.2,38.2,1.9,0,2018,5,17,19,59,7.259,-0.7558,0.6341,0.1223,0.1077
0.013,0.071,0.066,2.6,28.1,4.2,0,2018,5,17,19,59,7.281,-0.7599,0.6291,0.1234,0.1071
0.02,0.091,0.076,6.2,0.4,7.7,0,2018,5,17,19,59,7.286,-0.762,0.6261,0.1251,0.1073
-0.033,0.031,0.082,5.5,-3.7,11.6,0,2018,5,17,19,59,7.302,-0.7617,0.626,0.1271,0.108
-0.028,-0.055,0.077,5.1,3.7,9.2,0,2018,5,17,19,59,7.325,-0.7616,0.6254,0.1293,0.1092
0.039,-0.129,0.015,6.8,29.3,4.7,0,2018,5,17,19,59,7.342,-0.7632,0.6232,0.1308,0.1088
0.092,-0.042,-0.03,12.9,43.1,4,1023,2018,5,17,19,59,7.362,-0.767,0.6185,0.1326,0.1068
0.025,-0.012,-0.135,27,45.4,4.6,1023,2018,5,17,19,59,7.4,-0.771,0.6132,0.1366,0.1038
-0.034,-0.03,0.043,24.9,50,-1.1,1023,2018,5,17,19,59,7.423,-0.7751,0.6076,0.1414,0.0998
-0.051,-0.02,0.223,19.2,31.3,-6.9,1023,2018,5,17,19,59,7.428,-0.7794,0.6018,0.1449,0.0959
0.021,-0.02,0.151,11,13,-9.6,1023,2018,5,17,19,59,7.443,-0.7816,0.5991,0.1464,0.0926
0.057,0.066,0.067,8.9,-1,-8.9,0,2018,5,17,19,59,7.48,-0.7827,0.5981,0.1464,0.0899
0.073,0.032,-0.041,11,-5.5,-6.6,0,2018,5,17,19,59,7.503,-0.7823,0.5989,0.1466,0.0876
0.047,-0.015,-0.061,11.1,13.9,-4.2,0,2018,5,17,19,59,7.508,-0.7823,0.5991,0.1474,0.0851
0.057,-0.029,-0.068,12.2,30.4,-4.6,0,2018,5,17,19,59,7.524,-0.7842,0.5967,0.1487,0.0822
0.076,-0.051,-0.082,12.4,52.5,-2.5,0,2018,5,17,19,59,7.547,-0.7879,0.5919,0.1503,0.0787
0.048,-0.031,-0.054,13.7,70,-2.1,0,2018,5,17,19,59,7.564,-0.7935,0.5842,0.1523,0.0747
0.011,0.067,0.01,11.9,67.4,-1.4,0,2018,5,17,19,59,7.583,-0.8004,0.5747,0.1548,0.0711
-0.028,0.033,0.038,6.2,58,-0.9,0,2018,5,17,19,59,7.62,-0.8066,0.5657,0.157,0.0684
-0.017,-0.006,0.04,-0.6,53.9,-1.3,0,2018,5,17,19,59,7.644,-0.8122,0.5575,0.1581,0.0665
0.008,0.005,0.01,-6.8,55.8,1.4,0,2018,5,17,19,59,7.648,-0.8177,0.5495,0.1582,0.0652
-0.018,0.002,0.049,-17.1,69.3,4.7,0,2018,5,17,19,59,7.682,-0.8239,0.5403,0.1576,0.0651
-0.046,0.042,0.073,-20.1,70.3,3.5,0,2018,5,17,19,59,7.704,-0.8314,0.5291,0.1563,0.0657
-0.011,-0.03,-0.01,-20.7,69.8,2.8,0,2018,5,17,19,59,7.708,-0.8383,0.5185,0.1546,0.0663
0.025,0.183,0.057,-15,29.8,-1.2,0,2018,5,17,19,59,7.727,-0.8438,0.5099,0.1527,0.0665
0.065,0.035,-0.05,-6.5,-18.3,-3,0,2018,5,17,19,59,7.763,-0.8445,0.5094,0.1508,0.067
-0.012,0.014,-0.041,-1.8,-30.3,-0.4,0,2018,5,17,19,59,7.786,-0.8417,0.5141,0.1498,0.0675
0.013,-0.054,-0.082,0.8,-12.5,-0.7,0,2018,5,17,19,59,7.791,-0.8392,0.5183,0.1496,0.068
-0.031,0.005,-0.005,-0.1,-2.9,-1.6,0,2018,5,17,19,59,7.805,-0.8383,0.5196,0.1498,0.0679
0.022,-0.014,-0.004,1.1,-0.7,-1.4,0,2018,5,17,19,59,7.824,-0.8381,0.52,0.1497,0.0676
-0.015,0.009,-0.002,1,7,3.2,0,2018,5,17,19,59,7.847,-0.8382,0.5199,0.1501,0.0674
-0.001,0.03,0.044,0.4,0,1.9,0,2018,5,17,19,59,7.882,-0.8388,0.5186,0.1506,0.0677
0.023,0.021,0.025,-0.7,-5.1,2.9,0,2018,5,17,19,59,7.906,-0.8387,0.5187,0.1507,0.0681
0.018,0.04,0.053,-4.8,-15.1,2.3,0,2018,5,17,19,59,7.909,-0.8381,0.5197,0.1502,0.0689
0.021,0.017,0.056,-7,-20.6,4.1,0,2018,5,17,19,59,7.928,-0.8368,0.522,0.1492,0.0703
0.03,0.012,0.038,-8.7,-9,6.1,0,2018,5,17,19,59,7.948,-0.8359,0.5233,0.1482,0.0721
0.056,-0.026,-0.033,-8.4,1,5.6,0,2018,5,17,19,59,7.985,-0.8357,0.5238,0.1471,0.0734
0.062,0.062,-0.009,-6.6,3.7,6.6,0,2018,5,17,19,59,7.985,-0.8361,0.5234,0.1462,0.0745
0.041,0.071,0.025,-6.6,-7.3,7.6,0,2018,5,17,19,59,8.007,-0.836,0.5234,0.1457,0.0761
0.04,0.025,0.034,-5.9,-8.2,8.9,0,2018,5,17,19,59,8.023,-0.8355,0.5241,0.1451,0.0778
0.011,0.021,0.069,-8.1,-4.1,12.1,1023,2018,5,17,19,59,8.044,-0.8354,0.5241,0.1448,0.0801
0.05,-0.013,0.004,-4.6,-4,10,1023,2018,5,17,19,59,8.082,-0.8354,0.5237,0.1446,0.0822
0.076,0.003,-0.076,2.9,-0.7,6.2,0,2018,5,17,19,59,8.103,-0.8349,0.5243,0.1447,0.0831
0.084,-0.01,-0.113,10.8,6.2,5.5,0,2018,5,17,19,59,8.105,-0.8346,0.5245,0.146,0.0825
0.07,-0.009,0.004,12.3,7.7,1.9,0,2018,5,17,19,59,8.142,-0.8349,0.5238,0.1479,0.0812
0.074,0.06,0.117,13.7,-9.3,2.6,0,2018,5,17,19,59,8.163,-0.8347,0.5237,0.1497,0.0802
0.067,0.026,0.049,15.6,-23.7,1,0,2018,5,17,19,59,8.167,-0.8329,0.5262,0.1516,0.0795
0.074,-0.035,-0.026,16.4,-25.5,-2.5,0,2018,5,17,19,59,8.205,-0.8303,0.53,0.1529,0.078
0,0.1,0.116,12.3,-25.7,-3.5,0,2018,5,17,19,59,8.205,-0.8282,0.5332,0.1544,0.0766
0.022,-0.006,0.078,12.1,-38.2,-9.9,0,2018,5,17,19,59,8.227,-0.8255,0.5373,0.1549,0.0753
0.011,-0.058,0.013,11.8,-26,-9,0,2018,5,17,19,59,8.245,-0.8225,0.5421,0.1553,0.0734
0.018,-0.026,0.019,10.9,-12.4,-7.9,0,2018,5,17,19,59,8.268,-0.8204,0.5454,0.1556,0.0714
0,-0.022,-0.005,13.6,-7.4,-7.5,0,2018,5,17,19,59,8.286,-0.8191,0.5474,0.1564,0.0692
0.008,0.012,-0.022,13.9,5.3,-7.2,0,2018,5,17,19,59,8.309,-0.8189,0.5476,0.1578,0.0667
0.031,0.044,-0.04,17.3,4.3,-6.4,0,2018,5,17,19,59,8.327,-0.8191,0.5472,0.1595,0.0639
0.048,0.081,-0.089,22.4,3.8,-2.5,0,2018,5,17,19,59,8.351,-0.8185,0.5477,0.1619,0.061
-0.001,0.165,0.006,25.1,-10,1.4,0,2018,5,17,19,59,8.368,-0.8175,0.5484,0.1656,0.0586
-0.003,0.113,0.026,27.4,-45.5,-0.2,0,2018,5,17,19,59,8.39,-0.8142,0.5521,0.1695,0.0575
-0.005,-0.043,0.018,25.8,-53.9,0.4,0,2018,5,17,19,59,8.427,-0.8083,0.5598,0.1728,0.0565
0.013,-0.09,-0.002,24.5,-40.3,-0.5,0,2018,5,17,19,59,8.427,-0.8028,0.5669,0.1758,0.0552
0.043,-0.12,-0.011,22.1,-19.1,-1.1,0,2018,5,17,19,59,8.45,-0.7991,0.5715,0.1784,0.0532
0.058,-0.066,0.008,20.5,2.2,-1.6,0,2018,5,17,19,59,8.467,-0.7975,0.5732,0.1807,0.0505
0.028,-0.079,0.051,16.5,14.7,-4.5,0,2018,5,17,19,59,8.491,-0.798,0.5723,0.1826,0.0474
0.041,-0.035,0.026,10.7,18.5,-6.5,0,2018,5,17,19,59,8.509,-0.7994,0.5702,0.1836,0.0444
0.044,-0.021,0.006,7.5,23.6,-7.1,0,2018,5,17,19,59,8.528,-0.8011,0.568,0.1839,0.0415
-0.025,0.048,0.029,3.7,18.3,-9.4,0,2018,5,17,19,59,8.55,-0.8031,0.5651,0.1841,0.039
-0.048,0.055,0.035,-3.5,25.1,-4.4,0,2018,5,17,19,59,8.569,-0.8052,0.5625,0.1837,0.0374
-0.014,0.129,0.07,-9,15.1,1.4,0,2018,5,17,19,59,8.592,-0.8079,0.5588,0.1832,0.0376
-0.017,0.016,-0.019,-10.2,5.1,2.9,0,2018,5,17,19,59,8.611,-0.809,0.5573,0.1823,0.0389
0.008,0.081,-0.009,-9.9,4.8,4.5,0,2018,5,17,19,59,8.634,-0.8099,0.5562,0.1814,0.0403
0.023,0.012,-0.043,-5.1,-4.8,2.7,0,2018,5,17,19,59,8.65,-0.8097,0.5566,0.1808,0.0414
0.042,-0.03,-0.039,-2.5,-5.2,3.2,1023,2018,5,17,19,59,8.668,-0.8091,0.5575,0.1804,0.0421
0.049,-0.054,-0.017,-1.1,3.4,1.6,1023,2018,5,17,19,59,8.69,-0.8088,0.558,0.1802,0.0422
0.045,-0.038,0.038,-5.4,16.3,2.5,1023,2018,5,17,19,59,8.708,-0.8098,0.5567,0.1797,0.042
0.059,-0.016,0.093,-14.6,25.5,3.3,1023,2018,5,17,19,59,8.731,-0.8124,0.5535,0.1781,0.0424
0.115,-0.046,0.07,-24.3,46.7,5.5,1023,2018,5,17,19,59,8.748,-0.8165,0.5481,0.1756,0.0436
0.172,-0.014,0.071,-32.7,70.8,6.2,1023,2018,5,17,19,59,8.771,-0.8231,0.539,0.1725,0.0454
0.162,0.037,0.083,-35.4,68.4,3.7,0,2018,5,17,19,59,8.789,-0.8309,0.5279,0.1687,0.0471
0.143,-0.008,0.041,-37,55.7,1.2,0,2018,5,17,19,59,8.812,-0.8376,0.5186,0.1641,0.049
0.142,-0.018,0,-36.5,60.1,-0.3,0,2018,5,17,19,59,8.849,-0.8438,0.5101,0.1585,0.0502
0.145,0.108,0.086,-34.1,52.9,-1,0,2018,5,17,19,59,8.872,-0.8502,0.5007,0.1535,0.0514
0.149,0.09,0.102,-27.7,30.2,3.3,0,2018,5,17,19,59,8.877,-0.8545,0.4945,0.1495,0.0532
0.034,0.139,0.048,-22.6,16.8,3.9,0,2018,5,17,19,59,8.891,-0.8575,0.49,0.1461,0.0552
-0.011,0.1,-0.004,-17.9,0.2,1.3,0,2018,5,17,19,59,8.908,-0.8589,0.488,0.1435,0.0574
-0.026,-0.043,-0.027,-13.5,15.9,0,0,2018,5,17,19,59,8.931,-0.8596,0.4873,0.1414,0.0586
-0.057,0.004,-0.001,-10.7,27.1,1.9,0,2018,5,17,19,59,8.968,-0.8616,0.4841,0.1404,0.0593
-0.049,-0.018,0.021,-8.9,26.5,1.1,0,2018,5,17,19,59,8.991,-0.864,0.4799,0.1397,0.0599
-0.072,-0.062,-0.036,-3.3,30.6,-0.7,0,2018,5,17,19,59,8.996,-0.8664,0.4755,0.1394,0.0599
-0.103,-0.003,-0.058,4.5,31.4,-0.7,0,2018,5,17,19,59,9.012,-0.8685,0.4714,0.1406,0.0592
-0.11,0.082,-0.013,10.8,10.2,-2.4,0,2018,5,17,19,59,9.035,-0.8701,0.468,0.1428,0.0581
-0.099,-0.047,-0.062,15,-4.3,-4.3,0,2018,5,17,19,59,9.053,-0.8695,0.4687,0.145,0.0567
-0.091,0.034,-0.087,17.9,24.5,0.4,0,2018,5,17,19,59,9.075,-0.87,0.4671,0.1475,0.0547
-0.072,0.15,-0.007,18.6,10,5.8,0,2018,5,17,19,59,9.097,-0.8711,0.4642,0.1508,0.0534
-0.045,0.107,-0.045,22.6,-0.9,10,0,2018,5,17,19,59,9.113,-0.8706,0.4636,0.1552,0.0531
-0.051,0.053,-0.048,23.5,-8.8,11.7,0,2018,5,17,19,59,9.13,-0.8692,0.4644,0.1604,0.0535
-0.042,-0.051,-0.013,20.4,-19.4,7.6,0,2018,5,17,19,59,9.15,-0.8669,0.4671,0.1649,0.0537
0.009,-0.11,0.004,13.5,-12.1,8.5,0,2018,5,17,19,59,9.187,-0.8646,0.4703,0.1679,0.0539
0.026,-0.074,-0.007,8.3,-3.1,7.3,0,2018,5,17,19,59,9.209,-0.8635,0.4717,0.1697,0.0541
0.057,-0.054,0,3.1,-0.1,8.1,0,2018,5,17,19,59,9.213,-0.8629,0.4724,0.1708,0.0544
0.049,-0.013,0.016,-1.3,2.5,8,0,2018,5,17,19,59,9.232,-0.8629,0.4722,0.1711,0.0552
0.054,0.017,0.007,-3.7,-1.6,6.2,0,2018,5,17,19,59,9.256,-0.8631,0.4717,0.1708,0.0562
0.044,0.02,0.027,-6.2,-10.2,5.8,0,2018,5,17,19,59,9.274,-0.8628,0.4724,0.1702,0.0575
0.037,0.009,0.06,-7.7,-14.7,6,0,2018,5,17,19,59,9.297,-0.8621,0.4739,0.169,0.0591
0.037,0.023,0.048,-7.6,-15.5,6.1,0,2018,5,17,19,59,9.312,-0.8612,0.4757,0.1678,0.061
0.033,0.051,0.037,-8.1,-21.1,4.9,0,2018,5,17,19,59,9.33,-0.8601,0.4779,0.1665,0.0629
0.042,0.009,0.027,-6.6,-26.9,2.4,0,2018,5,17,19,59,9.353,-0.8583,0.4813,0.1651,0.0646
0.051,0.01,0.062,-4.3,-34.3,-0.3,1023,2018,5,17,19,59,9.39,-0.856,0.4858,0.1635,0.0658
0.037,-0.019,0.052,-3.5,-37.9,-0.7,1023,2018,5,17,19,59,9.413,-0.8532,0.4912,0.162,0.0668
0.043,-0.017,0.028,-3.5,-25.2,1,1023,2018,5,17,19,59,9.417,-0.8506,0.496,0.1606,0.0678
0.043,-0.044,0.027,-3.7,-3.7,0,1023,2018,5,17,19,59,9.437,-0.8494,0.4982,0.1595,0.0683
0.054,-0.022,0.08,-4.5,6.8,-2.1,1023,2018,5,17,19,59,9.454,-0.8501,0.4974,0.1583,0.0681
0.053,-0.015,0.091,-4.6,6.7,-4.8,1023,2018,5,17,19,59,9.476,-0.8513,0.496,0.1568,0.0675
0.05,0.039,0.107,-2.3,-11.7,-7.8,1023,2018,5,17,19,59,9.494,-0.8515,0.4962,0.1554,0.0667
0.018,0.027,0.039,-1,-19.4,-7.2,0,2018,5,17,19,59,9.517,-0.8505,0.4985,0.1539,0.0661
0.018,-0.042,-0.025,-1.3,5.6,-6.5,0,2018,5,17,19,59,9.538,-0.8497,0.5002,0.1529,0.0652
0.002,0.029,0.034,-1.9,33.2,-6,0,2018,5,17,19,59,9.556,-0.8517,0.4973,0.1521,0.0638
0.03,0.123,0.098,1.1,13.4,-7.5,0,2018,5,17,19,59,9.578,-0.8543,0.4931,0.1517,0.0621
0.016,0.028,0.094,1.5,-6.8,-5.6,0,2018,5,17,19,59,9.594,-0.8548,0.4925,0.1512,0.061
0.021,-0.019,0.04,0.1,5.5,-3,0,2018,5,17,19,59,9.613,-0.8551,0.4923,0.1508,0.0602
0.028,0.003,0.051,0.3,15.3,-3.5,0,2018,5,17,19,59,9.636,-0.8563,0.4904,0.1503,0.0593
0.012,0.024,0.036,-0.4,0.3,-5.7,0,2018,5,17,19,59,9.654,-0.8573,0.489,0.1498,0.0582
-0.007,-0.035,-0.05,-7.4,31.9,-2.2,0,2018,5,17,19,59,9.677,-0.8578,0.4897,0.1458,0.0541
0.017,0.02,-0.112,-12,60.9,2.1,0,2018,5,17,19,59,9.696,-0.8618,0.483,0.1449,0.0538
0.008,0.042,-0.104,-15.9,80.3,0.9,0,2018,5,17,19,59,9.72,-0.8677,0.4727,0.144,0.0533
-0.031,0.047,0.069,-19,62.3,-5.7,0,2018,5,17,19,59,9.737,-0.8742,0.4612,0.1421,0.0525
-0.003,-0.035,-0.016,-20.4,44.7,-6.5,0,2018,5,17,19,59,9.758,-0.8788,0.4534,0.139,0.0519
0.036,-0.001,-0.046,-20.4,50,-5,0,2018,5,17,19,59,9.776,-0.8828,0.4467,0.1357,0.0512
0.036,-0.029,-0.03,-19.9,54,-0.6,0,2018,5,17,19,59,9.8,-0.887,0.4391,0.1326,0.051
0.031,-0.067,-0.041,-20.3,61.1,-1.7,0,2018,5,17,19,59,9.815,-0.8916,0.4307,0.1297,0.0508
0.096,-0.008,0,-18.4,64.8,-3.8,0,2018,5,17,19,59,9.834,-0.8967,0.4211,0.1263,0.05
0.103,-0.067,-0.066,-15.1,63.7,-0.5,0,2018,5,17,19,59,9.857,-0.9016,0.4115,0.1235,0.049
0.102,0.023,-0.044,-11.5,86.4,-0.9,0,2018,5,17,19,59,9.876,-0.9074,0.3991,0.1218,0.0481
0.121,0.145,-0.014,-5.4,67.9,-3.4,0,2018,5,17,19,59,9.898,-0.9131,0.3865,0.1204,0.0464
0.082,0.179,0.049,1.8,28.6,-7.1,0,2018,5,17,19,59,9.916,-0.9164,0.3789,0.1202,0.0447
0.081,0.173,0.015,12.9,-18.4,-11.6,0,2018,5,17,19,59,9.94,-0.9166,0.3786,0.1208,0.0426
0.101,0.11,-0.063,23.9,-53.6,-15.7,0,2018,5,17,19,59,9.958,-0.914,0.3848,0.1219,0.0397
0.053,0.196,-0.003,35.6,-92.1,-18.4,0,2018,5,17,19,59,9.981,-0.9089,0.3962,0.1246,0.0363
-0.003,0.171,0.075,42.7,-151.8,-23.5,0,2018,5,17,19,59,9.997,-0.8994,0.4162,0.1286,0.0329
-0.055,0.024,-0.01,39.2,-176.7,-17.1,0,2018,5,17,19,59,10.034,-0.8859,0.4433,0.1328,0.0305
0,0.066,-0.032,32.5,-154.1,-6,0,2018,5,17,19,59,10.054,-0.8718,0.4691,0.1369,0.0301
0.061,0.163,-0.015,31.3,-157.5,-1.3,0,2018,5,17,19,59,10.059,-0.8584,0.4922,0.1404,0.0305
0.061,0.233,-0.014,31.7,-206.8,4.9,0,2018,5,17,19,59,10.077,-0.8419,0.5188,0.1441,0.0325
0.007,-0.168,-0.236,29.5,-139.1,11.8,0,2018,5,17,19,59,10.095,-0.8035,0.5739,0.1525,0.0398
0.012,-0.095,-0.186,31.4,-99.8,11.3,1023,2018,5,17,19,59,10.12,-0.7911,0.5897,0.1571,0.0414
0.011,-0.12,-0.215,36.7,-89.9,9.9,1023,2018,5,17,19,59,10.137,-0.7803,0.6025,0.1622,0.0419
-0.006,-0.141,-0.058,34.8,-83.3,3.8,1023,2018,5,17,19,59,10.16,-0.7698,0.6145,0.1672,0.0413
-0.065,-0.15,0.126,19.8,-47.7,7.7,1023,2018,5,17,19,59,10.196,-0.7621,0.623,0.171,0.0411
-0.063,-0.164,0.051,3.5,18.7,8,1023,2018,5,17,19,59,10.219,-0.7603,0.6245,0.1732,0.0414
-0.023,0.023,0.024,-8.7,61.5,9.8,1023,2018,5,17,19,59,10.223,-0.7655,0.6179,0.1741,0.0417
0.003,0.157,0.032,-11.5,53,11.4,1023,2018,5,17,19,59,10.239,-0.7726,0.6088,0.1746,0.0427
-0.016,0.164,0.06,-11.1,29.8,17.8,0,2018,5,17,19,59,10.262,-0.7775,0.6022,0.1752,0.0449
-0.04,0.076,0.068,-15.7,34.7,29.1,0,2018,5,17,19,59,10.279,-0.7813,0.5966,0.1765,0.049
-0.02,0.053,0.029,-17.8,48.2,34.9,0,2018,5,17,19,59,10.297,-0.7863,0.589,0.1782,0.0543
0.023,-0.031,-0.034,-19.9,73.7,42.4,0,2018,5,17,19,59,10.318,-0.7926,0.5793,0.1802,0.0597
0.022,-0.04,-0.038,-18.2,109.7,45.5,0,2018,5,17,19,59,10.356,-0.8019,0.565,0.1828,0.0647
0.014,-0.011,0.017,-16.6,119.5,46.8,0,2018,5,17,19,59,10.379,-0.8134,0.5467,0.1861,0.0688
0.013,0.038,0.047,-10.2,110,45.3,0,2018,5,17,19,59,10.383,-0.8246,0.5278,0.1899,0.0729
0.019,-0.037,0.049,-8.1,87.9,37.9,0,2018,5,17,19,59,10.402,-0.8335,0.5117,0.1935,0.0763
0.033,-0.114,0.043,-7.6,89.7,36.7,0,2018,5,17,19,59,10.42,-0.841,0.4978,0.1962,0.0791
0.026,-0.085,0.073,-7.6,89.4,32.4,0,2018,5,17,19,59,10.443,-0.8485,0.4834,0.1988,0.0814
0.074,-0.064,0.048,-6.8,75.9,26.9,0,2018,5,17,19,59,10.478,-0.8554,0.47,0.2007,0.0831
0.114,-0.039,-0.001,-3.1,66.6,24.1,0,2018,5,17,19,59,10.478,-0.8612,0.4586,0.202,0.0842
0.115,0.049,-0.04,4.3,59.1,20.8,0,2018,5,17,19,59,10.502,-0.8659,0.4487,0.2041,0.0848
0.072,0.012,0.033,4.4,41.2,15.3,0,2018,5,17,19,59,10.519,-0.8694,0.4407,0.2063,0.0849
0.026,-0.063,0.089,-0.8,42.5,10.3,0,2018,5,17,19,59,10.542,-0.8725,0.434,0.2075,0.085
0.066,-0.042,0.097,-5.8,36.9,4.1,0,2018,5,17,19,59,10.561,-0.8758,0.4274,0.2073,0.0844
0.082,-0.004,0.065,-7.7,18.7,-0.3,0,2018,5,17,19,59,10.596,-0.8785,0.4226,0.2059,0.0839
0.062,-0.048,0.044,-8.4,9.1,-3.9,0,2018,5,17,19,59,10.617,-0.88,0.4207,0.2038,0.0833
0.055,0.008,0.008,-6.8,4.7,-4.3,0,2018,5,17,19,59,10.622,-0.881,0.4196,0.2018,0.0828
0.036,0.039,-0.018,-2.2,-5.7,-7.7,0,2018,5,17,19,59,10.659,-0.8812,0.42,0.2004,0.082
0.014,0.065,-0.026,2.4,-12.7,-7.7,0,2018,5,17,19,59,10.679,-0.8806,0.4219,0.1996,0.081
-0.011,0.083,-0.064,9.6,-23.8,-11.5,0,2018,5,17,19,59,10.704,-0.8792,0.4248,0.1999,0.08
-0.027,-0.001,-0.047,12.9,2.2,-7.7,0,2018,5,17,19,59,10.722,-0.8749,0.4331,0.2024,0.0759
-0.043,0.124,0.01,10.1,13.6,-1.7,0,2018,5,17,19,59,10.724,-0.8754,0.4315,0.2045,0.0742
-0.043,0.134,0.011,6.2,8.4,4.1,0,2018,5,17,19,59,10.741,-0.8761,0.4291,0.2065,0.0739
-0.033,0.119,0.054,5.4,-21.2,4,0,2018,5,17,19,59,10.761,-0.8756,0.4295,0.2078,0.0745
-0.016,0.108,0.089,4.5,-60.5,7.8,0,2018,5,17,19,59,10.78,-0.8721,0.4359,0.2085,0.0765
-0.032,0.046,0.154,-3.8,-101.5,4.1,0,2018,5,17,19,59,10.801,-0.8658,0.4478,0.2081,0.0805
-0.002,-0.026,0.089,-12.7,-131.8,5.3,1023,2018,5,17,19,59,10.839,-0.8567,0.4652,0.2052,0.0864
-0.012,-0.15,-0.071,-15.2,-113.7,1.4,1023,2018,5,17,19,59,10.86,-0.8465,0.4841,0.2013,0.0923
0.009,-0.126,-0.14,-18.2,-80.2,-4.1,1023,2018,5,17,19,59,10.862,-0.8388,0.498,0.197,0.0968
0.048,-0.036,-0.106,-19.3,-54.9,-3.9,1023,2018,5,17,19,59,10.896,-0.8337,0.5076,0.1927,0.1001
0.017,-0.021,-0.067,-16.9,-48.5,-4.9,1023,2018,5,17,19,59,10.917,-0.8294,0.5156,0.1886,0.1024
-0.03,-0.032,-0.016,-18.7,-41.4,-5.6,1023,2018,5,17,19,59,10.923,-0.8256,0.5225,0.185,0.1045
0.025,-0.052,-0.063,-21.9,-29.8,-7.7,0,2018,5,17,19,59,10.959,-0.8229,0.5278,0.1809,0.1065
0.017,0.066,-0.057,-24.9,-15.1,3.8,0,2018,5,17,19,59,10.98,-0.8215,0.5308,0.177,0.1092
-0.022,0.033,-0.029,-24.9,-6.3,9.1,0,2018,5,17,19,59,10.981,-0.8209,0.5319,0.1742,0.1129
-0.089,-0.006,0.017,-27.5,9.9,12.7,0,2018,5,17,19,59,11.016,-0.8216,0.5306,0.172,0.1171
-0.083,0.006,0.059,-32.7,16.8,16.1,0,2018,5,17,19,59,11.037,-0.8235,0.5272,0.1699,0.122
-0.053,0.034,0.036,-37.3,25.9,22,0,2018,5,17,19,59,11.043,-0.8263,0.5223,0.1675,0.1277
-0.036,0.06,0.024,-42,29.6,28.5,0,2018,5,17,19,59,11.078,-0.8299,0.5156,0.1651,0.1345
-0.02,0.092,0.034,-45.4,25.4,33.8,0,2018,5,17,19,59,11.099,-0.833,0.5091,0.1626,0.1425
-0.06,0.005,0.063,-45.4,13.4,31.6,0,2018,5,17,19,59,11.102,-0.8354,0.5036,0.1598,0.1512
-0.055,-0.028,0.088,-46.5,-2.7,26.2,0,2018,5,17,19,59,11.137,-0.8365,0.5002,0.156,0.1596
0.006,0.004,0.086,-46.8,-20.2,20.9,0,2018,5,17,19,59,11.159,-0.8365,0.4993,0.1509,0.1675
0.028,-0.018,0.049,-44,-35.3,15.7,0,2018,5,17,19,59,11.162,-0.8349,0.5013,0.1447,0.1748
0.029,-0.027,0.036,-44.5,-36.9,11.1,0,2018,5,17,19,59,11.199,-0.8328,0.5044,0.138,0.1813
0.031,-0.007,0.075,-46.8,-37.1,8.5,0,2018,5,17,19,59,11.22,-0.8309,0.5073,0.1306,0.1874
0.069,-0.007,0.053,-47.8,-43.8,3.7,0,2018,5,17,19,59,11.222,-0.8286,0.5108,0.1225,0.1932
0.122,-0.001,-0.016,-46.1,-51.7,0.3,0,2018,5,17,19,59,11.256,-0.8256,0.5159,0.1133,0.1982
0.142,-0.022,-0.074,-44,-48.3,0.8,0,2018,5,17,19,59,11.277,-0.822,0.5215,0.1049,0.2031
0.152,-0.03,-0.078,-43.8,-29.9,0.9,0,2018,5,17,19,59,11.285,-0.8193,0.5253,0.0973,0.2079
0.197,-0.019,-0.078,-40.4,-16.7,-3.2,0,2018,5,17,19,59,11.32,-0.8181,0.5267,0.0903,0.212
0.249,-0.008,-0.122,-34.2,-15.7,-6.3,0,2018,5,17,19,59,11.341,-0.8176,0.5274,0.0839,0.215
0.266,0.027,-0.155,-24.4,-18.1,-7.8,0,2018,5,17,19,59,11.345,-0.8169,0.5286,0.0785,0.2168
0.258,-0.013,-0.174,-13.5,-21,-10.5,0,2018,5,17,19,59,11.378,-0.8157,0.5307,0.0742,0.2175
0.218,-0.053,-0.174,-4.6,-18.2,-11.5,0,2018,5,17,19,59,11.399,-0.8147,0.533,0.0712,0.2169
0.166,-0.122,-0.199,6.2,-8.5,-15.3,0,2018,5,17,19,59,11.404,-0.8141,0.5348,0.0696,0.215
0.106,-0.135,-0.205,18.9,0.7,-20.4,0,2018,5,17,19,59,11.441,-0.8145,0.5356,0.0696,0.2112
0.037,-0.099,-0.194,32.9,12.3,-25.5,0,2018,5,17,19,59,11.461,-0.816,0.5354,0.0715,0.2053
-0.049,-0.068,-0.126,44.8,21.9,-31.9,0,2018,5,17,19,59,11.463,-0.8186,0.5341,0.0751,0.1971
-0.086,-0.034,-0.059,49.8,24.5,-36,0,2018,5,17,19,59,11.501,-0.8213,0.5328,0.08,0.1874
-0.137,0.033,0.061,47.7,19.6,-34.6,0,2018,5,17,19,59,11.521,-0.8237,0.5316,0.0851,0.1777
-0.152,0.136,0.166,36.7,0.9,-27,1023,2018,5,17,19,59,11.527,-0.8252,0.5315,0.0888,0.1689
-0.159,0.163,0.203,17.3,-5.5,-15.1,1023,2018,5,17,19,59,11.564,-0.8255,0.5324,0.0907,0.1634
-0.135,0.22,0.185,-1.2,-17.3,-5.3,1023,2018,5,17,19,59,11.585,-0.8252,0.5336,0.0906,0.1613
-0.116,0.225,0.154,-20.9,-41.5,4.6,1023,2018,5,17,19,59,11.588,-0.8229,0.537,0.0882,0.1627
-0.096,0.207,0.182,-40.6,-65.2,15.6,1023,2018,5,17,19,59,11.623,-0.8184,0.5431,0.0831,0.1679
-0.11,0.149,0.227,-63,-81.5,26.8,1023,2018,5,17,19,59,11.645,-0.8117,0.5514,0.0756,0.1769
-0.119,0.195,0.31,-87.2,-94.6,36.9,1023,2018,5,17,19,59,11.65,-0.8035,0.5603,0.0654,0.1897
-0.121,0.221,0.292,-111.8,-119.9,42.9,0,2018,5,17,19,59,11.667,-0.7929,0.5709,0.0518,0.2063
-0.14,0.182,0.247,-134.2,-147.6,42,0,2018,5,17,19,59,11.685,-0.779,0.5839,0.034,0.2255
-0.127,0.063,0.171,-155.4,-160.5,39.9,0,2018,5,17,19,59,11.708,-0.7621,0.5984,0.0122,0.2466
-0.088,0.133,0.063,-169.1,-169.4,38,0,2018,5,17,19,59,11.726,-0.7431,0.6125,-0.0125,0.269
-0.041,0.171,-0.044,-174.6,-180.2,34.1,0,2018,5,17,19,59,11.748,-0.7215,0.6265,-0.0384,0.2921
0.017,0.248,-0.094,-173.2,-194.8,26.4,0,2018,5,17,19,59,11.767,-0.6969,0.6414,-0.0658,0.3138
0.052,0.275,-0.011,-172.1,-202.4,21.7,0,2018,5,17,19,59,11.79,-0.67,0.6563,-0.0944,0.3335
0.063,0.304,0.017,-176.5,-201.2,22.9,0,2018,5,17,19,59,11.808,-0.6418,0.6694,-0.1234,0.3529
0.007,0.416,-0.005,-178.5,-212.3,23.9,0,2018,5,17,19,59,11.832,-0.6113,0.6816,-0.1525,0.372
-0.023,0.406,-0.047,-180.2,-219.7,32.4,0,2018,5,17,19,59,11.848,-0.5785,0.6927,-0.1821,0.39
-0.061,0.161,-0.067,-178.6,-203.5,39.7,0,2018,5,17,19,59,11.868,-0.5439,0.7024,-0.2102,0.408
-0.076,0.019,-0.119,-180.8,-164.4,49.2,0,2018,5,17,19,59,11.905,-0.5112,0.7078,-0.2346,0.4271
-0.17,-0.146,-0.234,-175.9,-124,48.3,0,2018,5,17,19,59,11.928,-0.4815,0.7092,-0.2549,0.4472
-0.173,0.062,-0.363,-166.2,-92,50.8,0,2018,5,17,19,59,11.933,-0.4567,0.7064,-0.2712,0.4677
-0.205,-0.108,-0.432,-143.4,-98.5,36.4,0,2018,5,17,19,59,11.949,-0.434,0.7029,-0.2854,0.4858
-0.269,-0.227,-0.364,-118.7,-115.6,13.8,0,2018,5,17,19,59,11.97,-0.412,0.7009,-0.3013,0.4979
-0.307,-0.493,-0.165,-114.7,-111.3,-8.2,0,2018,5,17,19,59,11.988,-0.3911,0.6994,-0.3189,0.5059
-0.289,-0.463,-0.238,-114.2,-103.7,-38,0,2018,5,17,19,59,12.011,-0.3731,0.6952,-0.3389,0.5122
-0.209,-0.234,-0.337,-99.9,-119.3,-65.9,0,2018,5,17,19,59,12.048,-0.3578,0.6896,-0.362,0.515
-0.046,-0.155,-0.302,-79.1,-138.6,-82.8,0,2018,5,17,19,59,12.048,-0.343,0.6847,-0.3884,0.5124
0.048,-0.111,-0.17,-62.6,-123.6,-87.7,0,2018,5,17,19,59,12.071,-0.3299,0.6802,-0.4146,0.5063
0.073,-0.125,-0.043,-53.4,-88.4,-84.8,0,2018,5,17,19,59,12.087,-0.3208,0.6748,-0.4377,0.5
0.082,0.028,-0.082,-48,-55.2,-80.7,0,2018,5,17,19,59,12.108,-0.3158,0.6678,-0.4569,0.4953
0.109,0.057,-0.126,-36.9,-23.2,-71,0,2018,5,17,19,59,12.145,-0.3145,0.6601,-0.4713,0.493
0.117,0.135,-0.122,-25.7,-3.7,-60.2,0,2018,5,17,19,59,12.169,-0.3161,0.6526,-0.4816,0.4919
0.096,0.192,-0.106,-16.6,5.9,-45.2,0,2018,5,17,19,59,12.173,-0.3191,0.6463,-0.4885,0.4915
0.091,0.255,-0.162,-8.6,16.4,-29.1,0,2018,5,17,19,59,12.189,-0.3224,0.6415,-0.4924,0.4918
0.061,0.263,-0.193,0.1,35.1,-8.6,0,2018,5,17,19,59,12.212,-0.3265,0.6381,-0.4926,0.4934
-0.055,0.107,-0.139,0.6,67,8.3,0,2018,5,17,19,59,12.23,-0.3322,0.6354,-0.488,0.4977
-0.102,0.141,-0.144,-4.9,97.8,18.6,1023,2018,5,17,19,59,12.253,-0.3401,0.6314,-0.4791,0.506
-0.092,0.16,-0.224,-5.2,107.5,17.4,1023,2018,5,17,19,59,12.269,-0.3495,0.6261,-0.468,0.5164
-0.032,0.222,-0.206,-0.6,83.3,13,1023,2018,5,17,19,59,12.287,-0.3585,0.621,-0.4577,0.5255
0.013,0.164,-0.167,5.9,41.5,12.5,1023,2018,5,17,19,59,12.31,-0.3641,0.6184,-0.4505,0.5308
-0.03,0.02,-0.13,11.7,3.3,6.1,1023,2018,5,17,19,59,12.347,-0.366,0.619,-0.4468,0.5321
-0.059,0.006,-0.086,16,-53.6,-11.7,1023,2018,5,17,19,59,12.37,-0.3636,0.6225,-0.4484,0.5282
-0.014,-0.167,-0.081,20,-100.4,-36.5,0,2018,5,17,19,59,12.374,-0.358,0.6278,-0.4575,0.518
0.055,-0.1,-0.027,20.9,-129.2,-54.5,0,2018,5,17,19,59,12.391,-0.3513,0.6329,-0.4718,0.5033
0.105,-0.112,-0.065,22.1,-133.3,-55.2,0,2018,5,17,19,59,12.414,-0.3433,0.6381,-0.4888,0.4857
0.145,-0.111,0.016,21.3,-110.4,-48.6,0,2018,5,17,19,59,12.451,-0.3363,0.6425,-0.5038,0.4692
0.182,-0.032,0.101,17.5,-86.8,-38.9,0,2018,5,17,19,59,12.473,-0.3306,0.6458,-0.5154,0.4558
0.178,0.082,0.149,13.6,-82.3,-31.9,0,2018,5,17,19,59,12.478,-0.3255,0.6486,-0.5249,0.4446
0.108,0.037,0.267,3.1,-74.7,-24.6,0,2018,5,17,19,59,12.493,-0.3194,0.6512,-0.5337,0.4345
0.061,-0.041,0.207,-14.9,-60.9,-22.4,0,2018,5,17,19,59,12.517,-0.3129,0.6523,-0.5416,0.4278
-0.103,-0.169,-0.135,-19,-78.3,-45.6,0,2018,5,17,19,59,12.533,-0.306,0.6513,-0.5511,0.4222
-0.299,-0.156,-0.302,-5.4,-135.4,-81.1,0,2018,5,17,19,59,12.553,-0.2969,0.65,-0.5667,0.41
-0.361,-0.538,-0.285,15.4,-172.6,-127.7,0,2018,5,17,19,59,12.57,-0.2867,0.6479,-0.5893,0.388
-0.277,-0.583,-0.415,41.1,-185.6,-175,0,2018,5,17,19,59,12.593,-0.2789,0.6426,-0.6168,0.3586
-0.19,-0.539,-0.466,72.9,-172.6,-200.7,0,2018,5,17,19,59,12.611,-0.276,0.6341,-0.6455,0.3239
-0.069,-0.469,-0.495,108.7,-149.3,-208.4,0,2018,5,17,19,59,12.634,-0.279,0.6233,-0.6721,0.2858
0.034,-0.509,-0.439,139.3,-98.5,-200.6,0,2018,5,17,19,59,12.653,-0.2897,0.611,-0.6938,0.2474
0.047,-0.489,-0.403,160.1,-28.2,-191.1,0,2018,5,17,19,59,12.676,-0.3098,0.5963,-0.7087,0.2145
-0.054,-0.313,-0.354,181.7,13.4,-189.6,0,2018,5,17,19,59,12.694,-0.3368,0.5791,-0.7185,0.1863
-0.131,-0.26,-0.185,192.5,45.8,-193.6,0,2018,5,17,19,59,12.718,-0.369,0.559,-0.725,0.16
-0.238,-0.088,-0.14,195,64.1,-203.6,0,2018,5,17,19,59,12.734,-0.4043,0.5348,-0.7294,0.1353
-0.272,-0.075,-0.309,205,55.4,-215.8,0,2018,5,17,19,59,12.75,-0.4397,0.5078,-0.7326,0.1089
-0.315,0.023,-0.119,213.8,73.1,-215.1,0,2018,5,17,19,59,12.773,-0.4756,0.4786,-0.7335,0.081
-0.289,0.054,-0.093,212.3,114.5,-211.9,0,2018,5,17,19,59,12.791,-0.5133,0.4457,-0.731,0.0576
-0.302,0.159,-0.119,217.3,142.8,-214.4,0,2018,5,17,19,59,12.815,-0.5521,0.4082,-0.726,0.0376
-0.298,0.326,-0.01,221.4,172.3,-203.3,0,2018,5,17,19,59,12.852,-0.5915,0.3671,-0.7174,0.0216
-0.206,0.388,-0.161,225.3,167.5,-201.1,0,2018,5,17,19,59,12.875,-0.6302,0.3242,-0.7053,0.0078
-0.134,0.553,-0.214,236.5,142.7,-195.9,0,2018,5,17,19,59,12.879,-0.6666,0.2824,-0.6897,-0.0083
-0.098,0.617,-0.258,243.4,122.3,-179.8,0,2018,5,17,19,59,12.895,-0.7006,0.2436,-0.67,-0.0259
-0.088,0.56,-0.354,254,92.3,-173,0,2018,5,17,19,59,12.919,-0.7323,0.2085,-0.6465,-0.0457
-0.098,0.629,-0.239,257.5,65.1,-157.5,0,2018,5,17,19,59,12.934,-0.7618,0.1774,-0.6193,-0.0672
-0.13,0.586,-0.175,250.7,36.8,-141.3,0,2018,5,17,19,59,12.954,-0.788,0.1515,-0.5899,-0.0894
-0.189,0.562,-0.191,237.3,22.2,-124.8,0,2018,5,17,19,59,12.972,-0.8108,0.13,-0.5596,-0.1113
-0.236,0.595,-0.232,219.3,14.2,-107,1023,2018,5,17,19,59,12.995,-0.8305,0.1116,-0.5297,-0.1309
-0.285,0.598,-0.27,196.8,-0.5,-90.6,1023,2018,5,17,19,59,13.014,-0.8469,0.0966,-0.5013,-0.1484
-0.3,0.568,-0.315,170.1,-27.1,-71.7,1023,2018,5,17,19,59,13.037,-0.8601,0.0867,-0.4749,-0.1646
-0.332,0.521,-0.367,141.4,-59.1,-49.2,1023,2018,5,17,19,59,13.053,-0.8701,0.0839,-0.451,-0.1795
-0.335,0.488,-0.445,111.8,-87.9,-25.9,1023,2018,5,17,19,59,13.077,-0.8775,0.0883,-0.4299,-0.1928
-0.372,0.418,-0.513,84.2,-112.9,-4.5,1023,2018,5,17,19,59,13.096,-0.8825,0.0994,-0.4117,-0.2041
-0.418,0.32,-0.574,57.1,-138.1,15,1023,2018,5,17,19,59,13.118,-0.8853,0.1167,-0.3962,-0.2134
-0.423,0.192,-0.601,32.3,-155.2,34.5,0,2018,5,17,19,59,13.135,-0.8859,0.1397,-0.3832,-0.2205
-0.424,0.029,-0.594,11.1,-158.8,50.3,0,2018,5,17,19,59,13.156,-0.8848,0.1662,-0.3726,-0.2248
-0.384,-0.063,-0.601,-10.9,-155.3,61.7,0,2018,5,17,19,59,13.195,-0.882,0.194,-0.3647,-0.2263
-0.273,-0.12,-0.667,-25.5,-152.9,77.5,0,2018,5,17,19,59,13.195,-0.8779,0.223,-0.3592,-0.2246
-0.353,-0.131,-0.653,-25.7,-139.8,96.7,0,2018,5,17,19,59,13.218,-0.8735,0.2519,-0.3538,-0.2194
-0.393,-0.247,-0.578,-25.4,-126,111.9,0,2018,5,17,19,59,13.237,-0.8698,0.2795,-0.3479,-0.2103
-0.323,-0.368,-0.433,-25.5,-107.2,134.5,0,2018,5,17,19,59,13.253,-0.8666,0.3055,-0.3413,-0.1974
-0.284,-0.354,-0.253,-18.1,-79.7,154.9,0,2018,5,17,19,59,13.275,-0.8649,0.3289,-0.3336,-0.1797
-0.256,-0.292,-0.164,-4.6,-58.3,172.7,0,2018,5,17,19,59,13.312,-0.8652,0.3486,-0.3237,-0.1581
-0.28,-0.211,-0.211,17.9,-66.6,191.9,0,2018,5,17,19,59,13.335,-0.8663,0.3678,-0.3098,-0.1345
-0.452,-0.508,-0.111,37.4,-67.2,210.8,0,2018,5,17,19,59,13.34,-0.8675,0.3886,-0.2904,-0.1095
-0.409,-0.524,0.046,50.8,-24.8,221.3,0,2018,5,17,19,59,13.357,-0.87,0.4055,-0.2679,-0.082
-0.337,-0.37,0.122,74.2,5.6,220.8,0,2018,5,17,19,59,13.379,-0.8751,0.4153,-0.2425,-0.053
-0.331,-0.06,0.251,110.8,-54.9,208.9,0,2018,5,17,19,59,13.399,-0.879,0.4259,-0.2121,-0.0277
-0.533,-0.388,0.551,106.2,-75.1,192.2,0,2018,5,17,19,59,13.42,-0.8781,0.4432,-0.1796,-0.0075
-0.418,-0.461,0.623,84.6,-55.4,174.9,0,2018,5,17,19,59,13.438,-0.8756,0.4587,-0.1506,0.0109
-0.267,-0.434,0.448,70,-36.8,159.9,0,2018,5,17,19,59,13.457,-0.8732,0.4698,-0.1257,0.0291
-0.083,-0.352,0.36,69.4,-32.1,142.7,0,2018,5,17,19,59,13.475,-0.8709,0.4781,-0.103,0.0459
0.013,-0.312,0.463,75.3,-52,116.4,0,2018,5,17,19,59,13.496,-0.868,0.4862,-0.0811,0.0587
0.036,-0.327,0.548,72.8,-82.9,93.5,0,2018,5,17,19,59,13.533,-0.862,0.4984,-0.0616,0.0672
0.095,-0.302,0.496,65.4,-105.1,72.7,0,2018,5,17,19,59,13.553,-0.8532,0.5144,-0.0451,0.0725
0.101,-0.31,0.424,50,-96.3,57.1,0,2018,5,17,19,59,13.559,-0.8434,0.5307,-0.032,0.076
0.137,-0.26,0.299,31.3,-72.4,43.8,0,2018,5,17,19,59,13.596,-0.8352,0.5436,-0.0225,0.079
0.181,-0.143,0.203,15,-58.9,35.5,0,2018,5,17,19,59,13.619,-0.8287,0.5532,-0.0164,0.0823
0.178,-0.027,0.15,3.9,-62.6,28.8,0,2018,5,17,19,59,13.624,-0.8226,0.5619,-0.0129,0.0858
0.15,0.03,0.132,-1.1,-73.2,22.8,0,2018,5,17,19,59,13.638,-0.8158,0.5712,-0.0111,0.0891
0.13,0.028,0.099,-4.1,-85.6,15.7,0,2018,5,17,19,59,13.657,-0.8077,0.5822,-0.0108,0.0918
0.135,0.013,0.032,-6.2,-85.4,10,0,2018,5,17,19,59,13.68,-0.7989,0.5938,-0.0115,0.0938
0.11,0.012,-0.01,-6.4,-74.6,6.7,0,2018,5,17,19,59,13.696,-0.7906,0.6048,-0.0138,0.0946
0.102,0,-0.045,-5.4,-54.8,8,0,2018,5,17,19,59,13.719,-0.7834,0.6138,-0.0157,0.0954
0.048,-0.067,-0.068,-2.5,-27.6,8.2,1023,2018,5,17,19,59,13.738,-0.7784,0.62,-0.0166,0.0963
0.017,-0.077,-0.076,0,-2.2,9.7,1023,2018,5,17,19,59,13.76,-0.776,0.6228,-0.0163,0.0972
0.028,-0.006,-0.09,2.4,17.6,12.9,1023,2018,5,17,19,59,13.798,-0.7763,0.6223,-0.0148,0.0983
0.027,0.059,-0.086,7.8,24.3,17.8,1023,2018,5,17,19,59,13.82,-0.7782,0.6198,-0.0122,0.0996
-0.008,0.09,-0.073,16.1,14.5,20.2,1023,2018,5,17,19,59,13.825,-0.7797,0.6179,-0.008,0.1007
0,0.086,-0.078,25.7,1,21.4,1023,2018,5,17,19,59,13.839,-0.7796,0.6179,-0.0026,0.1014
0.017,0.101,-0.077,35.6,-13.5,23.7,1023,2018,5,17,19,59,13.862,-0.7782,0.6197,0.004,0.101
0.01,0.094,-0.07,43.1,-18.3,30.8,1023,2018,5,17,19,59,13.9,-0.7754,0.6233,0.0121,0.1002
-0.044,0.048,-0.027,47,-7.7,39.6,0,2018,5,17,19,59,13.905,-0.773,0.6259,0.0223,0.1002
-0.061,0.055,0,49.5,1.8,44.6,0,2018,5,17,19,59,13.921,-0.7718,0.6267,0.0342,0.1009
-0.017,0.058,0.016,48.8,9.5,49.4,0,2018,5,17,19,59,13.939,-0.7715,0.6262,0.0466,0.102
0.041,0.087,-0.021,47.5,16.9,55.5,0,2018,5,17,19,59,13.962,-0.7717,0.6245,0.0592,0.1036
0.053,0.047,-0.027,44.7,25.6,62.6,0,2018,5,17,19,59,13.997,-0.7724,0.6219,0.0721,0.1059
0.113,0.005,0.021,41,31.2,64.6,0,2018,5,17,19,59,14.02,-0.774,0.6177,0.085,0.109
0.173,-0.048,0.042,36,29.6,62.5,0,2018,5,17,19,59,14.025,-0.7759,0.6129,0.0975,0.1126
0.188,-0.095,0.049,27.7,34.2,58.9,0,2018,5,17,19,59,14.041,-0.7777,0.6079,0.1089,0.1168
0.202,-0.109,-0.019,21.3,57.6,52.4,0,2018,5,17,19,59,14.063,-0.7811,0.6008,0.1191,0.121
0.184,-0.128,-0.01,12.9,86.2,40.2,0,2018,5,17,19,59,14.082,-0.7878,0.5894,0.128,0.1239
0.179,-0.062,0.031,11.1,80.7,24.2,0,2018,5,17,19,59,14.105,-0.796,0.5766,0.1347,0.1251
0.159,0.013,0.058,12.1,56.1,12,0,2018,5,17,19,59,14.12,-0.8026,0.5662,0.1397,0.1247
0.139,0.049,0.105,12,18.3,3.6,0,2018,5,17,19,59,14.138,-0.806,0.5607,0.143,0.1236
0.071,-0.064,0.122,11.9,-13.6,-6.1,0,2018,5,17,19,59,14.161,-0.8061,0.5605,0.1448,0.1222
0.055,-0.065,0.1,7.6,-24.7,-13.1,0,2018,5,17,19,59,14.199,-0.8046,0.5632,0.1444,0.1201
0.042,-0.024,0.082,4.2,-28.9,-18.3,0,2018,5,17,19,59,14.221,-0.8028,0.5667,0.1426,0.1176
0.04,-0.036,0.074,2,-31.1,-21.6,0,2018,5,17,19,59,14.226,-0.8005,0.5711,0.14,0.1149
0.012,0.02,0.105,5,-43.4,-25.4,0,2018,5,17,19,59,14.242,-0.7979,0.576,0.1372,0.112
0.02,0.027,0.099,6.8,-51.5,-25.2,0,2018,5,17,19,59,14.265,-0.7942,0.5824,0.1344,0.109
0.011,0.068,0.131,7.5,-59,-25.4,0,2018,5,17,19,59,14.302,-0.7893,0.5901,0.1317,0.1059
-0.008,0.104,0.144,10.6,-59.6,-21.7,0,2018,5,17,19,59,14.325,-0.7836,0.5986,0.1294,0.1033
-0.017,0.006,0.105,16.2,-52.3,-21.2,0,2018,5,17,19,59,14.329,-0.7783,0.6063,0.1282,0.1002
-0.014,0.023,0.094,17.8,-41.8,-17.7,0,2018,5,17,19,59,14.342,-0.7739,0.6125,0.1277,0.0968
-0.017,0.021,0.127,17,-31.8,-11.9,0,2018,5,17,19,59,14.378,-0.7706,0.6172,0.128,0.0938
0.033,0.033,0.114,14.2,-12.3,-6.1,0,2018,5,17,19,59,14.4,-0.7687,0.6197,0.1287,0.0916
0.026,0.046,0.087,15.7,-10.9,-5.8,0,2018,5,17,19,59,14.405,-0.768,0.6206,0.1298,0.0893
0.041,-0.072,0.023,16.4,-4.9,-5.2,0,2018,5,17,19,59,14.422,-0.7671,0.6218,0.131,0.0867
0.061,0.008,0.031,16.6,-0.3,-5.2,0,2018,5,17,19,59,14.445,-0.7668,0.6224,0.1322,0.0838
0.072,0.033,0.024,17.9,-1.3,-1.8,0,2018,5,17,19,59,14.464,-0.7666,0.6226,0.1338,0.0811
0.066,0.052,0.017,19.3,-4,-1,1023,2018,5,17,19,59,14.487,-0.7661,0.6232,0.1357,0.0784
0.039,0.003,-0.019,20.6,-10.9,0,1023,2018,5,17,19,59,14.506,-0.7649,0.6245,0.138,0.076
0.031,-0.052,-0.073,22.5,-1.6,2.1,1023,2018,5,17,19,59,14.525,-0.7631,0.6263,0.1408,0.0736
0.043,-0.032,-0.084,24.7,12.6,5.3,1023,2018,5,17,19,59,14.548,-0.7626,0.6264,0.1443,0.0709
0,-0.111,-0.074,27.4,23.3,2.8,1023,2018,5,17,19,59,14.564,-0.7633,0.625,0.1485,0.0678
-0.023,-0.097,-0.077,28.6,39.5,4,1023,2018,5,17,19,59,14.582,-0.7652,0.6219,0.1529,0.064
-0.041,-0.096,-0.082,26.5,62.1,3.1,0,2018,5,17,19,59,14.606,-0.7695,0.6158,0.1578,0.0599
-0.031,-0.024,-0.072,21.1,84.2,8.2,0,2018,5,17,19,59,14.624,-0.7761,0.6066,0.1627,0.0559
-0.02,0.052,-0.082,14.3,104,13.8,0,2018,5,17,19,59,14.643,-0.7849,0.5941,0.1675,0.053
-0.045,0.057,-0.014,5.6,118.9,18.9,0,2018,5,17,19,59,14.666,-0.7955,0.5785,0.1723,0.051
-0.069,0.231,0.126,-10.1,95.1,13.5,0,2018,5,17,19,59,14.683,-0.82,0.5417,0.1774,0.0505
-0.036,0.242,0.088,-7,17.2,5.7,0,2018,5,17,19,59,14.707,-0.8256,0.533,0.1776,0.0508
-0.005,0.108,0.017,-2,-54.6,0.4,0,2018,5,17,19,59,14.727,-0.8236,0.5361,0.1771,0.0524
-0.033,0.034,0.002,-1.8,-73.7,1.3,0,2018,5,17,19,59,14.763,-0.8171,0.5458,0.1766,0.0548
-0.044,0.028,0.034,-5.2,-80.6,-0.2,0,2018,5,17,19,59,14.786,-0.8098,0.5565,0.1758,0.058
-0.025,-0.002,0.015,-5.4,-81.7,-1.9,0,2018,5,17,19,59,14.79,-0.8021,0.5678,0.1744,0.0609
0,-0.007,0.003,-7.4,-72.1,0.4,0,2018,5,17,19,59,14.806,-0.7944,0.5787,0.1727,0.0637
0.021,0.018,0,-7.6,-55.7,4.1,0,2018,5,17,19,59,14.824,-0.788,0.5876,0.1711,0.0666
0.021,0.033,0.014,-7.9,-46.9,6.5,0,2018,5,17,19,59,14.845,-0.7829,0.5943,0.17,0.0696
0.051,-0.046,0.002,-5.9,-35.2,8.7,0,2018,5,17,19,59,14.864,-0.7785,0.6,0.169,0.0722
0.065,-0.091,0.006,-6.8,-8.7,13.2,0,2018,5,17,19,59,14.887,-0.7762,0.6028,0.1686,0.0745
0.111,-0.075,-0.002,-6.8,27.2,17.2,0,2018,5,17,19,59,14.905,-0.7773,0.6011,0.1687,0.0763
0.112,-0.076,0.006,-7,63.9,21.4,0,2018,5,17,19,59,14.928,-0.7821,0.5945,0.1696,0.0774
0.104,-0.073,0.045,-8.8,97,23.8,0,2018,5,17,19,59,14.947,-0.7907,0.5825,0.1711,0.0781
0.109,-0.053,0.027,-7.6,122.5,26,0,2018,5,17,19,59,14.971,-0.802,0.5661,0.1732,0.0784
0.086,-0.059,-0.001,-10.2,153,29.6,0,2018,5,17,19,59,14.985,-0.8153,0.546,0.1758,0.0782
0.071,-0.008,0.067,-15.6,172.1,28.9,0,2018,5,17,19,59,15.023,-0.8307,0.5214,0.1782,0.078
0.074,0.04,0.078,-18.5,173.6,28,0,2018,5,17,19,59,15.046,-0.8468,0.4943,0.18,0.0779
0.058,0.064,0.095,-19.9,162.2,25.3,0,2018,5,17,19,59,15.051,-0.8616,0.4675,0.1812,0.0779
0.055,0.101,0.075,-19.5,128.7,24.4,0,2018,5,17,19,59,15.069,-0.8741,0.4433,0.1817,0.0786
0.032,0.09,0.063,-16.4,93.8,21,0,2018,5,17,19,59,15.086,-0.8833,0.4245,0.1818,0.0799
0.008,0.099,0.094,-13.6,56.1,16.9,0,2018,5,17,19,59,15.109,-0.8893,0.4116,0.1817,0.0816
-0.007,0.084,0.089,-13.5,30.3,12.7,0,2018,5,17,19,59,15.127,-0.8928,0.4037,0.1812,0.0837
-0.001,0.061,0.032,-8.5,13.4,6.2,0,2018,5,17,19,59,15.15,-0.8948,0.3991,0.1805,0.0854
0.013,0.088,0,-1.3,-5.6,3.6,0,2018,5,17,19,59,15.168,-0.8953,0.398,0.1801,0.0864
0.008,0.071,-0.023,6.7,-26.3,-1.7,0,2018,5,17,19,59,15.191,-0.8941,0.4002,0.1807,0.087
0.046,0.044,-0.051,14.8,-41.2,-5.5,0,2018,5,17,19,59,15.207,-0.8912,0.4063,0.1816,0.0866
0.025,-0.023,-0.072,19.7,-38.7,-5.8,0,2018,5,17,19,59,15.227,-0.8875,0.414,0.1832,0.0855
0.058,-0.049,-0.071,24.2,-26.3,-8.3,1023,2018,5,17,19,59,15.246,-0.8842,0.4202,0.1854,0.0834
0.047,0.034,-0.015,26.5,-26.4,-7.9,1023,2018,5,17,19,59,15.269,-0.8816,0.4251,0.1882,0.0808
0.082,0.025,-0.04,32.8,-34.3,-12.4,1023,2018,5,17,19,59,15.288,-0.8784,0.4308,0.1912,0.0778
0.094,-0.035,-0.064,36.6,-31.5,-13.1,1023,2018,5,17,19,59,15.306,-0.8745,0.4379,0.1945,0.0737
0.063,-0.08,-0.074,37.7,-17.6,-11.8,1023,2018,5,17,19,59,15.329,-0.8711,0.4438,0.1984,0.0692
0.05,-0.082,-0.06,36.6,5.1,-10.6,0,2018,5,17,19,59,15.348,-0.8689,0.4467,0.2028,0.0643
0.032,-0.069,-0.024,32.6,23.9,-10,0,2018,5,17,19,59,15.371,-0.8686,0.4461,0.2071,0.059
0.022,-0.029,-0.004,25.1,42.3,-6.3,0,2018,5,17,19,59,15.39,-0.87,0.4422,0.2109,0.054
-0.016,-0.011,0.031,15.9,43.6,-5.8,0,2018,5,17,19,59,15.412,-0.8727,0.436,0.2139,0.0499
-0.015,-0.114,0.038,6.6,54,-4.5,0,2018,5,17,19,59,15.429,-0.8757,0.4295,0.2155,0.0462
-0.026,0.064,0.055,-4.9,79,4,0,2018,5,17,19,59,15.452,-0.8807,0.419,0.2161,0.0436
-0.056,0.168,0.049,-14.3,67.2,9.9,0,2018,5,17,19,59,15.486,-0.8865,0.4069,0.2158,0.0428
-0.04,0.143,0.048,-19,45.6,10.2,0,2018,5,17,19,59,15.509,-0.8911,0.3976,0.2142,0.0435
-0.04,0.108,0.049,-20.4,20,11.1,0,2018,5,17,19,59,15.513,-0.8941,0.3915,0.2123,0.0455
-0.04,0.102,0.068,-19.5,-14.8,12,0,2018,5,17,19,59,15.53,-0.8951,0.39,0.2103,0.0489
-0.024,0.045,0.044,-17.8,-43.8,11.5,0,2018,5,17,19,59,15.549,-0.8937,0.3937,0.2081,0.0534
-0.045,0.048,0.069,-17.1,-56.5,11.3,0,2018,5,17,19,59,15.572,-0.8908,0.4006,0.2059,0.0583
-0.055,0.123,0.127,-16.7,-85,6,0,2018,5,17,19,59,15.591,-0.8866,0.4103,0.2032,0.0637
-0.019,0.099,0.055,-13.4,-116.5,2.1,0,2018,5,17,19,59,15.628,-0.8797,0.4258,0.2,0.0689
-0.016,-0.002,-0.015,-12.4,-122.7,0.2,0,2018,5,17,19,59,15.652,-0.8709,0.4439,0.197,0.0747
0.038,-0.03,-0.065,-8.4,-86.6,2.1,0,2018,5,17,19,59,15.656,-0.8625,0.4606,0.194,0.0788
0.028,-0.058,-0.034,-8,-53.5,2.7,0,2018,5,17,19,59,15.669,-0.8567,0.4716,0.1919,0.0818
0.026,0.043,0.049,-8.1,-36.8,3.9,0,2018,5,17,19,59,15.687,-0.8534,0.4779,0.1901,0.0842
0.032,0.074,0.088,-7.7,-48.5,4,0,2018,5,17,19,59,15.729,-0.8505,0.4832,0.1883,0.0869
0.024,0.041,0.095,-8,-63.4,2.7,0,2018,5,17,19,59,15.733,-0.8463,0.4908,0.1863,0.0899
0.035,0.037,0.085,-11.1,-74.1,2.3,0,2018,5,17,19,59,15.749,-0.841,0.5002,0.1836,0.0933
0.026,-0.008,0.069,-14.8,-75.6,3.3,0,2018,5,17,19,59,15.769,-0.835,0.5106,0.1803,0.0971
0.03,-0.008,0.041,-19.3,-71.4,3.4,0,2018,5,17,19,59,15.805,-0.829,0.5208,0.1765,0.1013
0.025,-0.015,0.026,-23.7,-62.1,4,0,2018,5,17,19,59,15.826,-0.8235,0.5299,0.1722,0.1057
0.016,-0.006,0.02,-28.4,-56.9,3.3,0,2018,5,17,19,59,15.833,-0.8187,0.538,0.1675,0.1103
0.028,-0.024,0.01,-29.4,-46.6,0.4,0,2018,5,17,19,59,15.871,-0.8146,0.5448,0.1623,0.1146
0.037,-0.018,0,-28.8,-42.3,-1.6,0,2018,5,17,19,59,15.871,-0.8113,0.5505,0.1569,0.1183
0.037,-0.018,-0.013,-27.7,-37.1,-1.6,0,2018,5,17,19,59,15.89,-0.8083,0.5556,0.1516,0.1215
0.058,0.007,-0.026,-24.9,-30.9,-1.7,0,2018,5,17,19,59,15.91,-0.8057,0.5601,0.1467,0.1244
0.058,0.005,-0.026,-22,-25.6,-1.4,0,2018,5,17,19,59,15.949,-0.8036,0.5636,0.1423,0.1269
0.058,0.021,-0.033,-16,-16.6,-0.8,0,2018,5,17,19,59,15.968,-0.8022,0.5662,0.1387,0.1286
0.06,0.028,-0.062,-10.1,-13.3,0,0,2018,5,17,19,59,15.972,-0.8011,0.5681,0.1363,0.1299
0.066,0.01,-0.087,-3.4,-9,1,0,2018,5,17,19,59,16.009,-0.8,0.5697,0.135,0.1305
0.052,0.018,-0.065,3.5,-0.6,1,0,2018,5,17,19,59,16.032,-0.7994,0.5706,0.1348,0.1301
0.017,0.02,-0.026,10.1,2.7,0.9,0,2018,5,17,19,59,16.036,-0.7993,0.5707,0.1358,0.1294
-0.008,-0.001,-0.018,18.1,-2.6,-3,0,2018,5,17,19,59,16.052,-0.7992,0.5707,0.1379,0.1277
-0.024,-0.055,-0.029,24.3,-6.5,-7.5,0,2018,5,17,19,59,16.076,-0.7984,0.5719,0.1405,0.1249
-0.019,-0.028,-0.034,26.5,-4.1,-8.9,0,2018,5,17,19,59,16.091,-0.7973,0.5736,0.1434,0.1211
-0.026,0.014,-0.018,28.1,-3.4,-8.7,0,2018,5,17,19,59,16.109,-0.7965,0.5746,0.1466,0.1172
-0.008,0.029,-0.01,27.2,-5.4,-7,0,2018,5,17,19,59,16.132,-0.7956,0.5758,0.1499,0.1135
0.013,0.046,0,26.2,-7.5,-5.5,0,2018,5,17,19,59,16.15,-0.7945,0.5772,0.153,0.1101
0.034,0.054,0.006,22.6,-10.7,-1.9,0,2018,5,17,19,59,16.173,-0.7929,0.5791,0.1558,0.1073
0.034,0.066,-0.005,18.3,-10.3,3.3,0,2018,5,17,19,59,16.21,-0.7912,0.581,0.1583,0.1055
0.066,0.077,-0.026,13.3,-8.7,8.2,0,2018,5,17,19,59,16.233,-0.7899,0.5823,0.161,0.1049
0.12,0.025,-0.015,10.6,2.1,12.4,0,2018,5,17,19,59,16.238,-0.7891,0.5828,0.163,0.1046
0.123,-0.002,0.016,6.5,20.8,15.9,0,2018,5,17,19,59,16.27,-0.7901,0.5808,0.1651,0.1046
0.12,-0.079,0.005,-1.8,59.2,19.9,0,2018,5,17,19,59,16.292,-0.7939,0.5751,0.167,0.1049
0.045,-0.114,0.022,-12.4,107.7,21,0,2018,5,17,19,59,16.297,-0.8022,0.5627,0.1689,0.1053
0.058,-0.031,0.019,-21.1,146.6,23.7,0,2018,5,17,19,59,16.314,-0.815,0.5434,0.1705,0.1058
0.034,0.019,-0.017,-26.1,173.9,26.7,0,2018,5,17,19,59,16.332,-0.8304,0.5189,0.1721,0.1066
0.031,0.024,-0.04,-26.5,183.2,24.4,0,2018,5,17,19,59,16.355,-0.8467,0.4912,0.1738,0.1071
0.037,0.124,0.002,-20.9,168.5,21.3,0,2018,5,17,19,59,16.374,-0.862,0.4632,0.1755,0.1071
-0.022,0.058,0.073,-16.6,132.9,15.2,0,2018,5,17,19,59,16.412,-0.8743,0.4389,0.177,0.1069
-0.05,0.044,0.108,-9.9,85.1,6.3,0,2018,5,17,19,59,16.435,-0.883,0.421,0.1779,0.1064
-0.064,0.119,0.183,-2.6,19.5,-1.5,0,2018,5,17,19,59,16.439,-0.887,0.4124,0.1782,0.1056
-0.031,0.125,0.17,9,-54.9,-10.3,0,2018,5,17,19,59,16.456,-0.8856,0.4157,0.1778,0.1051
-0.069,0.131,0.145,12.8,-118.3,-16.2,0,2018,5,17,19,59,16.492,-0.8788,0.4303,0.177,0.1049
-0.057,0.036,0.026,13.9,-150.2,-22.5,0,2018,5,17,19,59,16.515,-0.8682,0.4519,0.1753,0.1052
-0.027,-0.01,-0.062,15.8,-156.1,-23.4,0,2018,5,17,19,59,16.519,-0.8553,0.4766,0.1732,0.1054
-0.024,0.007,-0.062,16.5,-144.1,-21.2,0,2018,5,17,19,59,16.533,-0.8419,0.5006,0.1714,0.1051
-0.02,0.017,-0.006,10.8,-115.5,-17.2,0,2018,5,17,19,59,16.551,-0.83,0.5207,0.1696,0.1051
-0.007,-0.05,-0.018,14.8,-89.8,-23.2,0,2018,5,17,19,59,16.574,-0.8204,0.5364,0.1678,0.104
0.016,-0.017,-0.011,14.3,-77.6,-21.4,0,2018,5,17,19,59,16.61,-0.8123,0.5496,0.1661,0.1014
0.032,0.076,0.024,8.2,-67.9,-11.4,1023,2018,5,17,19,59,16.633,-0.8055,0.5602,0.1648,0.1002
0.057,0.065,0.013,12.9,-63.7,-10.6,1023,2018,5,17,19,59,16.637,-0.7994,0.5693,0.1637,0.0993
0.018,0.189,0.072,14.5,-81.2,-8.5,1023,2018,5,17,19,59,16.655,-0.7921,0.5797,0.1634,0.0983
0.01,0.114,0.04,17,-105.9,-11.9,1023,2018,5,17,19,59,16.678,-0.7822,0.593,0.1631,0.0983
0.035,-0.083,0,15.6,-100.4,-9.7,1023,2018,5,17,19,59,16.696,-0.7709,0.6081,0.1621,0.0978
0.02,-0.108,0.008,7.4,-64.6,-3.8,1023,2018,5,17,19,59,16.719,-0.7619,0.6195,0.1613,0.0978
0.006,0.008,0.033,0.9,-39.2,-1.4,0,2018,5,17,19,59,16.739,-0.7562,0.6267,0.1605,0.098
0.023,0.037,0.043,-1.6,-23.3,-4.3,0,2018,5,17,19,59,16.756,-0.7537,0.6297,0.1597,0.0988
0.024,-0.042,-0.014,0,-32.6,-2.9,0,2018,5,17,19,59,16.777,-0.7511,0.6331,0.1585,0.0988
0.035,-0.058,-0.041,-0.9,-23.7,0.7,0,2018,5,17,19,59,16.794,-0.7479,0.637,0.1577,0.0992
0.065,-0.079,-0.06,-2,-5.2,0,0,2018,5,17,19,59,16.818,-0.7461,0.6393,0.157,0.0994
0.057,-0.092,-0.06,-2,18.2,1,0,2018,5,17,19,59,16.838,-0.7468,0.6387,0.1564,0.0988
0.066,-0.09,-0.093,-0.4,41.4,1.9,0,2018,5,17,19,59,16.856,-0.7499,0.6352,0.1565,0.0977
0.071,-0.011,-0.083,4.3,54.2,2.4,0,2018,5,17,19,59,16.879,-0.7552,0.6288,0.1577,0.096
0.078,0.05,-0.061,10.1,58.6,6.3,0,2018,5,17,19,59,16.898,-0.761,0.6216,0.1598,0.0937
0.019,0.119,0.008,9.6,51.2,4.6,0,2018,5,17,19,59,16.916,-0.7666,0.6143,0.1628,0.0915
0.015,0.089,0.022,10.4,36.8,1.8,0,2018,5,17,19,59,16.939,-0.7711,0.6083,0.1652,0.0895
-0.024,0.066,0.049,10.8,13.3,0.5,0,2018,5,17,19,59,16.957,-0.7737,0.6045,0.1674,0.0882
-0.037,0.003,0.071,9.7,-4,-0.8,0,2018,5,17,19,59,16.978,-0.7741,0.6037,0.1691,0.0872
-0.038,-0.029,0.091,3.9,-4.6,-0.8,0,2018,5,17,19,59,16.994,-0.7739,0.6038,0.17,0.0866
-0.026,-0.027,0.092,-4.1,4.9,0.4,0,2018,5,17,19,59,17.014,-0.7745,0.603,0.1699,0.0868
-0.029,0.001,0.091,-8.4,6.5,-0.7,0,2018,5,17,19,59,17.05,-0.7761,0.601,0.1692,0.0873
-0.041,0.031,0.078,-10.5,2.6,-1.1,0,2018,5,17,19,59,17.073,-0.7776,0.5993,0.1681,0.0885
-0.046,0.012,0.051,-9.3,-5.4,-5.1,0,2018,5,17,19,59,17.077,-0.7783,0.5985,0.1668,0.0893
-0.044,-0.025,0.049,-10,-11.3,-6.1,0,2018,5,17,19,59,17.114,-0.7778,0.5996,0.1649,0.0899
-0.076,-0.056,0.071,-12.6,-8.7,-7.8,0,2018,5,17,19,59,17.135,-0.7774,0.6006,0.1628,0.0908
-0.075,-0.025,0.064,-12.4,-14,-11.6,0,2018,5,17,19,59,17.137,-0.7771,0.6016,0.1602,0.0912
-0.057,0.014,0.056,-16.2,-15.7,-9.4,0,2018,5,17,19,59,17.173,-0.7764,0.6032,0.1573,0.092
-0.038,0.014,0.032,-17.9,-17.4,-10,0,2018,5,17,19,59,17.194,-0.7757,0.6047,0.1541,0.0933
-0.027,0.007,0.024,-19.2,-17.4,-9.1,0,2018,5,17,19,59,17.196,-0.7747,0.6067,0.1506,0.0946
-0.02,0.006,0.032,-22.1,-15.3,-7.2,0,2018,5,17,19,59,17.232,-0.7738,0.6085,0.1468,0.0961
-0.017,-0.011,0.042,-25.7,-9.7,-5.2,0,2018,5,17,19,59,17.253,-0.7735,0.6095,0.1429,0.0982
-0.004,0.014,0.062,-32.3,-1.4,-2.4,0,2018,5,17,19,59,17.258,-0.7741,0.6093,0.1385,0.1009
0.036,0.055,0.047,-37,2.4,-0.2,0,2018,5,17,19,59,17.295,-0.7755,0.608,0.1336,0.1044
0.054,0.075,0.007,-38.7,0.8,1.9,0,2018,5,17,19,59,17.295,-0.777,0.6066,0.1284,0.1083
0.058,0.047,-0.014,-39.7,0.4,4.2,0,2018,5,17,19,59,17.321,-0.7779,0.6057,0.1232,0.1126
0.085,0.051,-0.025,-40.6,3.6,7.2,1023,2018,5,17,19,59,17.34,-0.779,0.6045,0.118,0.1171
0.095,0.066,-0.023,-40.9,3.4,9.7,1023,2018,5,17,19,59,17.378,-0.7798,0.6034,0.1129,0.1219
0.097,0.127,0.003,-44.5,-0.6,13.8,1023,2018,5,17,19,59,17.401,-0.7807,0.602,0.1079,0.1276
0.116,0.112,0.001,-46.1,-6.9,13.9,1023,2018,5,17,19,59,17.406,-0.7812,0.6009,0.1026,0.1339
0.128,0.059,-0.026,-47.9,-15.7,12.8,1023,2018,5,17,19,59,17.424,-0.7807,0.6011,0.0965,0.1402
0.093,-0.021,-0.043,-50.1,-19.6,10.9,1023,2018,5,17,19,59,17.44,-0.7793,0.6025,0.09,0.1465
0.089,-0.087,-0.065,-52.3,-17.7,5.9,1023,2018,5,17,19,59,17.457,-0.7776,0.6042,0.0827,0.1526
0.053,-0.12,-0.072,-52.4,-9.5,-0.3,0,2018,5,17,19,59,17.48,-0.7765,0.6053,0.0749,0.1579
0.029,-0.109,-0.007,-54.9,-1.7,-8.8,0,2018,5,17,19,59,17.517,-0.7766,0.605,0.0666,0.1624
0.041,-0.038,0.024,-57.9,-3.6,-16.9,0,2018,5,17,19,59,17.54,-0.7775,0.6037,0.0571,0.1662
0.062,-0.012,-0.004,-57.8,-12.9,-22.9,0,2018,5,17,19,59,17.544,-0.7779,0.6032,0.0464,0.1692
0.024,-0.038,-0.004,-56,-17.7,-25.2,0,2018,5,17,19,59,17.56,-0.7774,0.604,0.0353,0.1716
-0.093,-0.15,0.189,-65.5,-3.3,-27.7,0,2018,5,17,19,59,17.583,-0.7777,0.6034,0.0242,0.1744
-0.089,-0.101,0.243,-79.8,10.3,-35.3,0,2018,5,17,19,59,17.601,-0.7796,0.6002,0.0112,0.1778
-0.051,0.016,0.157,-90.5,3.6,-40.7,0,2018,5,17,19,59,17.624,-0.782,0.5961,-0.0042,0.1814
-0.027,0.058,0.069,-93.9,-9.4,-40.2,0,2018,5,17,19,59,17.643,-0.7833,0.5928,-0.0208,0.1856
-0.088,0.032,0.139,-98.7,-17,-36.3,0,2018,5,17,19,59,17.662,-0.7828,0.5911,-0.0379,0.1905
-0.179,-0.043,0.271,-116.2,-4.1,-33,0,2018,5,17,19,59,17.68,-0.782,0.5886,-0.0564,0.1967
-0.127,0.065,0.216,-132.6,2.1,-32.1,0,2018,5,17,19,59,17.718,-0.782,0.5835,-0.0769,0.205
-0.092,0.178,0.105,-140.3,-8.2,-26.8,0,2018,5,17,19,59,17.741,-0.7809,0.5781,-0.0987,0.2147
-0.105,0.229,0.075,-143,-19.7,-16.3,0,2018,5,17,19,59,17.745,-0.7777,0.5741,-0.1207,0.2256
-0.086,0.25,0.061,-145.1,-23.7,-3.9,0,2018,5,17,19,59,17.76,-0.7727,0.5709,-0.1422,0.238
-0.069,0.289,0.023,-143,-31.7,7.3,0,2018,5,17,19,59,17.783,-0.7663,0.5682,-0.1625,0.2518
-0.056,0.281,-0.019,-138.1,-41.9,19.4,0,2018,5,17,19,59,17.82,-0.7579,0.5671,-0.1813,0.2664
-0.054,0.225,-0.053,-131.2,-50.6,29,0,2018,5,17,19,59,17.841,-0.7475,0.5677,-0.1979,0.2821
-0.073,0.239,-0.008,-126.1,-55.5,39.1,0,2018,5,17,19,59,17.845,-0.7358,0.5695,-0.2129,0.2978
-0.037,0.298,-0.036,-121.5,-60.1,49.2,0,2018,5,17,19,59,17.861,-0.723,0.5719,-0.2265,0.3142
-0.014,0.231,-0.093,-114.3,-61.8,59.7,0,2018,5,17,19,59,17.88,-0.7087,0.5757,-0.2388,0.3304
-0.128,-0.031,-0.084,-113.2,-51.5,62.7,0,2018,5,17,19,59,17.903,-0.6939,0.5793,-0.2496,0.347
-0.17,-0.042,-0.09,-117.4,-46.8,60.2,0,2018,5,17,19,59,17.921,-0.6804,0.5805,-0.2601,0.3638
-0.111,0.114,-0.136,-118.7,-69.1,55.1,0,2018,5,17,19,59,17.942,-0.6655,0.5821,-0.2719,0.3797
-0.09,0.082,-0.181,-118.5,-102.5,48,0,2018,5,17,19,59,17.98,-0.6477,0.5863,-0.2861,0.3933
-0.088,0.104,-0.121,-120.7,-120.9,41.2,0,2018,5,17,19,59,18.003,-0.6269,0.5929,-0.3027,0.4046
-0.052,0.228,-0.095,-125.7,-141.7,38.5,0,2018,5,17,19,59,18.008,-0.6039,0.6001,-0.3213,0.4143
0.005,0.402,-0.122,-127.2,-175.6,40.5,0,2018,5,17,19,59,18.025,-0.5772,0.6094,-0.3419,0.4224
0.033,0.426,-0.172,-125.3,-202.7,47.9,1023,2018,5,17,19,59,18.043,-0.5457,0.6214,-0.3637,0.4285
-0.015,0.298,-0.176,-123.2,-207.6,56.3,1023,2018,5,17,19,59,18.065,-0.511,0.6345,-0.3849,0.4334
-0.065,0.258,-0.13,-124.1,-204,66.4,1023,2018,5,17,19,59,18.101,-0.4748,0.6471,-0.4044,0.4383
-0.108,0.274,-0.042,-125.5,-193.7,78.7,1023,2018,5,17,19,59,18.101,-0.4373,0.6587,-0.4216,0.4438
-0.111,0.16,-0.127,-126.3,-167.7,92.1,1023,2018,5,17,19,59,18.123,-0.4001,0.6685,-0.435,0.4512
-0.148,0.153,-0.203,-117.9,-142.6,100.3,0,2018,5,17,19,59,18.16,-0.365,0.6765,-0.4441,0.4602
-0.178,0.097,-0.186,-109.6,-128.8,108,0,2018,5,17,19,59,18.18,-0.3316,0.6837,-0.4495,0.4695
-0.184,0.058,-0.196,-104.1,-120,111,0,2018,5,17,19,59,18.183,-0.2992,0.6903,-0.4525,0.4786
-0.293,-0.057,-0.291,-92.1,-117.3,100.6,0,2018,5,17,19,59,18.222,-0.2682,0.6963,-0.4543,0.4864
-0.31,-0.311,-0.315,-82.4,-111.8,82.2,0,2018,5,17,19,59,18.244,-0.2391,0.7015,-0.4568,0.4918
-0.28,-0.437,-0.413,-74.6,-95.2,55.9,0,2018,5,17,19,59,18.249,-0.2136,0.7048,-0.4605,0.4954
-0.239,-0.444,-0.417,-59.6,-83.3,27.8,0,2018,5,17,19,59,18.265,-0.1932,0.7059,-0.4657,0.4972
-0.153,-0.475,-0.353,-46,-75.2,-6,0,2018,5,17,19,59,18.288,-0.1784,0.7049,-0.4732,0.4972
-0.049,-0.486,-0.316,-27.6,-69.8,-36.5,0,2018,5,17,19,59,18.324,-0.1683,0.7021,-0.4834,0.4949
0.052,-0.562,-0.285,-8.5,-53.2,-63.2,0,2018,5,17,19,59,18.324,-0.1636,0.698,-0.4955,0.4903
0.124,-0.586,-0.23,9.5,-28.8,-80.1,0,2018,5,17,19,59,18.347,-0.1649,0.6929,-0.5078,0.4844
0.121,-0.615,-0.181,26,1.3,-94.7,0,2018,5,17,19,59,18.364,-0.1725,0.6869,-0.5188,0.4786
0.063,-0.539,-0.12,42.9,13,-114.3,0,2018,5,17,19,59,18.399,-0.1854,0.68,-0.5294,0.472
0.002,-0.556,-0.067,53.3,14,-138,0,2018,5,17,19,59,18.419,-0.202,0.6717,-0.5416,0.4632
-0.086,-0.555,-0.082,56.1,15.6,-162.9,0,2018,5,17,19,59,18.425,-0.221,0.661,-0.556,0.4526
-0.142,-0.418,-0.112,57,7.4,-187.8,0,2018,5,17,19,59,18.462,-0.2421,0.6473,-0.5725,0.4409
-0.166,-0.247,-0.158,66.1,-21.4,-213.5,0,2018,5,17,19,59,18.485,-0.2625,0.6318,-0.5925,0.425
-0.197,-0.221,-0.165,77.6,-45.9,-234.3,0,2018,5,17,19,59,18.489,-0.2815,0.6155,-0.6157,0.4033
-0.259,-0.234,-0.174,88.3,-56.7,-251.7,0,2018,5,17,19,59,18.505,-0.3011,0.5973,-0.6407,0.3766
-0.294,-0.158,-0.157,96.9,-53,-261.7,0,2018,5,17,19,59,18.528,-0.3222,0.5768,-0.6656,0.3467
-0.341,-0.104,-0.221,108.5,-47.3,-270.4,0,2018,5,17,19,59,18.544,-0.3448,0.5541,-0.6888,0.3152
-0.374,0.013,-0.221,124.1,-52.5,-275.8,0,2018,5,17,19,59,18.562,-0.3687,0.5297,-0.7101,0.2811
-0.338,0.005,-0.152,137.2,-52.2,-275.2,0,2018,5,17,19,59,18.585,-0.393,0.5046,-0.7288,0.2441
-0.346,0.022,-0.13,149.6,-50.9,-274.4,0,2018,5,17,19,59,18.603,-0.4178,0.4785,-0.7443,0.2058
-0.355,0.089,-0.1,160.7,-44.8,-264.1,0,2018,5,17,19,59,18.626,-0.443,0.4518,-0.7561,0.1667
-0.339,0.076,-0.106,170.6,-25,-250.7,0,2018,5,17,19,59,18.645,-0.469,0.4247,-0.7635,0.1287
-0.275,0.114,-0.133,178.3,-1.6,-237.5,0,2018,5,17,19,59,18.667,-0.4961,0.3965,-0.7666,0.094
-0.174,0.079,-0.171,192.5,17.1,-226.7,0,2018,5,17,19,59,18.704,-0.5245,0.3673,-0.7655,0.0618
-0.152,0.192,-0.071,203.7,43.3,-215.9,0,2018,5,17,19,59,18.728,-0.5547,0.3365,-0.7601,0.0327
-0.128,0.291,-0.132,214.8,50.4,-206.5,0,2018,5,17,19,59,18.732,-0.5858,0.3046,-0.7509,0.0061
-0.063,0.402,-0.101,225.7,60.6,-186,1023,2018,5,17,19,59,18.745,-0.6171,0.2729,-0.7377,-0.0186
0.029,0.48,-0.146,238.7,56.4,-161.7,1023,2018,5,17,19,59,18.765,-0.6485,0.243,-0.7201,-0.0407
0.002,0.424,-0.155,254.5,41.9,-140.2,1023,2018,5,17,19,59,18.788,-0.6797,0.2165,-0.6979,-0.0625
-0.027,0.437,-0.097,258.4,45.9,-114.8,1023,2018,5,17,19,59,18.804,-0.7104,0.1929,-0.6718,-0.0822
-0.049,0.468,-0.108,254.4,54.8,-95,1023,2018,5,17,19,59,18.828,-0.7398,0.1704,-0.6434,-0.0979
-0.031,0.522,-0.134,248.3,52.8,-81.1,1023,2018,5,17,19,59,18.848,-0.7672,0.149,-0.6138,-0.1105
-0.076,0.534,-0.113,242.3,39.8,-73.3,0,2018,5,17,19,59,18.866,-0.7925,0.1297,-0.5832,-0.1221
-0.156,0.467,-0.108,224.7,27.7,-68.9,0,2018,5,17,19,59,18.888,-0.8147,0.1129,-0.5526,-0.134
-0.192,0.389,-0.11,198.9,22.2,-67.6,0,2018,5,17,19,59,18.906,-0.8334,0.0978,-0.5241,-0.1454
-0.226,0.321,-0.147,165.8,22.2,-68.8,0,2018,5,17,19,59,18.929,-0.8482,0.0837,-0.4989,-0.1564
-0.256,0.288,-0.259,128.9,28.7,-67.6,0,2018,5,17,19,59,18.966,-0.8591,0.0699,-0.4788,-0.1664
-0.249,0.289,-0.356,98.9,28.6,-63.9,0,2018,5,17,19,59,18.989,-0.8667,0.0566,-0.4635,-0.1751
-0.254,0.31,-0.395,76,10.2,-55.5,0,2018,5,17,19,59,18.993,-0.8719,0.0461,-0.4515,-0.1833
-0.308,0.324,-0.409,56.5,-21.8,-44.4,0,2018,5,17,19,59,19.01,-0.8754,0.041,-0.4417,-0.1919
-0.289,0.324,-0.442,38,-56.7,-29.7,0,2018,5,17,19,59,19.027,-0.8774,0.0427,-0.4334,-0.201
-0.3,0.306,-0.48,21.6,-89.3,-12.7,0,2018,5,17,19,59,19.05,-0.8782,0.0514,-0.4265,-0.21
-0.319,0.276,-0.559,8.4,-123.9,6.1,0,2018,5,17,19,59,19.067,-0.878,0.0671,-0.4203,-0.2185
-0.353,0.183,-0.578,-0.2,-149.2,26.9,0,2018,5,17,19,59,19.087,-0.8771,0.0893,-0.4142,-0.2261
-0.398,0.148,-0.579,-6.5,-163.7,48.5,0,2018,5,17,19,59,19.108,-0.8755,0.1164,-0.4077,-0.2315
-0.44,0.086,-0.576,-12.5,-162.1,70.8,0,2018,5,17,19,59,19.131,-0.8735,0.1461,-0.4012,-0.2337
-0.466,0.116,-0.57,-15.9,-154.8,95.7,0,2018,5,17,19,59,19.149,-0.8714,0.1766,-0.3946,-0.2315
-0.503,0.101,-0.606,-11.6,-162.3,117.9,0,2018,5,17,19,59,19.172,-0.8695,0.2083,-0.387,-0.2252
-0.53,0.025,-0.586,-6.8,-177.9,140.5,0,2018,5,17,19,59,19.191,-0.8671,0.2432,-0.3765,-0.2168
-0.416,-0.099,-0.561,-10.1,-171.5,181.7,0,2018,5,17,19,59,19.213,-0.8643,0.2807,-0.364,-0.2037
-0.46,-0.253,-0.492,3.1,-131.8,223.9,0,2018,5,17,19,59,19.229,-0.863,0.3165,-0.3488,-0.1821
-0.658,-0.555,-0.361,18.9,-78.3,247.5,0,2018,5,17,19,59,19.247,-0.8646,0.3461,-0.3302,-0.1533
-0.749,-0.67,-0.179,30.6,-32.8,254.7,0,2018,5,17,19,59,19.27,-0.8688,0.3673,-0.3094,-0.1196
-0.659,-0.484,-0.02,42.6,-11.5,252.7,0,2018,5,17,19,59,19.291,-0.8739,0.3831,-0.2868,-0.0846
-0.587,-0.496,0.157,58.1,15.4,246.7,0,2018,5,17,19,59,19.312,-0.8794,0.3941,-0.2621,-0.0496
-0.534,-0.503,0.213,77.1,28.7,238.9,0,2018,5,17,19,59,19.348,-0.8857,0.3999,-0.235,-0.0158
-0.401,-0.447,0.223,104.7,-0.4,225.8,0,2018,5,17,19,59,19.371,-0.8903,0.4065,-0.2046,0.0142
-0.385,-0.421,0.39,135.4,-41.5,209.6,0,2018,5,17,19,59,19.376,-0.8915,0.4179,-0.1701,0.0384
-0.493,-0.592,0.581,135.3,-47.7,192.6,0,2018,5,17,19,59,19.39,-0.8898,0.4321,-0.1341,0.058
-0.447,-0.659,0.712,113.5,3.4,167.5,0,2018,5,17,19,59,19.412,-0.8887,0.4404,-0.1015,0.0763
-0.305,-0.495,0.664,93.3,30.3,139.6,0,2018,5,17,19,59,19.43,-0.8896,0.4411,-0.0734,0.0924
-0.098,-0.302,0.536,88.6,9.6,112.6,0,2018,5,17,19,59,19.447,-0.8902,0.4404,-0.0494,0.1052
0.002,-0.122,0.437,90,-56,91.7,0,2018,5,17,19,59,19.47,-0.8871,0.4462,-0.0282,0.1138
0.057,-0.101,0.394,87.9,-135.2,78.6,0,2018,5,17,19,59,19.488,-0.8778,0.4635,-0.0097,0.1195
0.072,-0.21,0.386,74.2,-168.9,67.1,1023,2018,5,17,19,59,19.511,-0.8633,0.4892,0.0053,0.1237
0.126,-0.238,0.343,54,-160.6,57.2,1023,2018,5,17,19,59,19.53,-0.8472,0.5153,0.0166,0.1276
0.186,-0.22,0.24,33.3,-135.1,50.5,1023,2018,5,17,19,59,19.553,-0.8322,0.5378,0.0245,0.132
0.195,-0.19,0.144,17.2,-105.6,43.6,1023,2018,5,17,19,59,19.574,-0.8198,0.5551,0.0297,0.137
0.195,-0.109,0.107,7.5,-91.5,35.5,1023,2018,5,17,19,59,19.593,-0.8094,0.5687,0.0329,0.142
0.193,-0.022,0.121,2.3,-106.8,24.8,1023,2018,5,17,19,59,19.611,-0.799,0.5822,0.0341,0.1462
0.196,-0.063,0.086,-1.2,-120.1,14.2,1023,2018,5,17,19,59,19.634,-0.7869,0.5977,0.0333,0.1495
0.205,-0.098,0.04,-2.6,-116.5,4.1,0,2018,5,17,19,59,19.653,-0.7744,0.6134,0.0308,0.1515
0.196,-0.159,0,-3.7,-96.9,-3.7,0,2018,5,17,19,59,19.675,-0.7631,0.6274,0.0276,0.1522
0.165,-0.176,-0.03,-3.1,-68.7,-11.4,0,2018,5,17,19,59,19.692,-0.7545,0.6379,0.0241,0.1519
0.135,-0.114,-0.016,-1,-50.4,-19.1,0,2018,5,17,19,59,19.71,-0.7487,0.6453,0.0202,0.1498
0.134,-0.084,-0.031,3.4,-38.4,-26.1,0,2018,5,17,19,59,19.733,-0.7443,0.6514,0.0157,0.1459
0.105,-0.01,-0.045,9.8,-37,-29.6,0,2018,5,17,19,59,19.751,-0.7406,0.6569,0.0115,0.1406
0.067,0.018,-0.03,16.7,-43.7,-30,0,2018,5,17,19,59,19.774,-0.7364,0.6629,0.0083,0.1346
0.04,0.022,-0.011,24.2,-46.6,-30.8,0,2018,5,17,19,59,19.81,-0.7316,0.6694,0.0063,0.128
0.06,0.071,-0.017,32.9,-59,-29.9,0,2018,5,17,19,59,19.81,-0.7261,0.6768,0.005,0.1205
0.062,0.093,-0.041,42.7,-67.3,-25.9,0,2018,5,17,19,59,19.833,-0.7188,0.686,0.0049,0.112
0.044,0.068,-0.029,48,-62.7,-16.7,0,2018,5,17,19,59,19.871,-0.7108,0.6956,0.0066,0.1035
0.013,0.092,0.033,46.9,-42.2,-6.3,0,2018,5,17,19,59,19.894,-0.7045,0.703,0.0102,0.0962
0.019,0.113,0.069,46.7,-31.3,0,0,2018,5,17,19,59,19.898,-0.7005,0.7077,0.0151,0.0901
0.031,0.07,0.064,44.9,-22.6,7.6,0,2018,5,17,19,59,19.914,-0.6972,0.7114,0.0207,0.0849
0.012,0.056,0.044,42.6,-4.9,16,0,2018,5,17,19,59,19.932,-0.6952,0.7136,0.0273,0.0809
0.001,0.031,0.058,40.4,14.8,21.3,0,2018,5,17,19,59,19.956,-0.6958,0.713,0.0349,0.078
-0.028,-0.016,0.079,36,32.3,25.7,0,2018,5,17,19,59,19.974,-0.6985,0.7101,0.043,0.0761
-0.034,-0.02,0.073,28.9,50.7,29.4,0,2018,5,17,19,59,19.994,-0.7037,0.7045,0.0513,0.0753
-0.009,0.011,0.061,23.1,63,31.1,0,2018,5,17,19,59,20.031,-0.7104,0.6971,0.0591,0.0755
0,0.034,0.064,18.6,63.1,32.1,0,2018,5,17,19,59,20.054,-0.7177,0.6889,0.0664,0.0762
0.008,0.028,0.076,13,58,30.7,0,2018,5,17,19,59,20.059,-0.7246,0.6807,0.073,0.0777
0.031,0.018,0.053,12,47.2,23.3,0,2018,5,17,19,59,20.075,-0.7308,0.6733,0.0783,0.0788
0.073,0.033,0.031,12.2,23.9,18.8,0,2018,5,17,19,59,20.099,-0.7348,0.6685,0.0825,0.0792
0.086,-0.002,-0.006,14.8,2.4,15.6,0,2018,5,17,19,59,20.114,-0.7357,0.6671,0.0859,0.0791
0.069,-0.037,-0.024,17.2,-3.2,12.9,0,2018,5,17,19,59,20.15,-0.735,0.6675,0.0891,0.0784
0.035,-0.07,-0.019,17.2,7,9.4,0,2018,5,17,19,59,20.173,-0.7345,0.6677,0.0923,0.0774
0.047,-0.056,-0.022,20.6,14.1,1.3,0,2018,5,17,19,59,20.178,-0.7354,0.6666,0.0953,0.0752
0.073,-0.018,-0.029,23.9,13.1,-3.1,0,2018,5,17,19,59,20.193,-0.7365,0.6654,0.0979,0.0717
0.059,0,-0.012,27.3,10.3,-4.1,0,2018,5,17,19,59,20.216,-0.7373,0.6645,0.1004,0.0674
-0.004,-0.046,0.017,27.3,13.7,-3.1,0,2018,5,17,19,59,20.233,-0.7382,0.6634,0.1036,0.0633
-0.028,-0.009,0.042,24.7,23.2,-5.7,0,2018,5,17,19,59,20.256,-0.7402,0.6611,0.1068,0.0594
-0.007,0.046,0.029,26,16.8,-9.7,0,2018,5,17,19,59,20.294,-0.7425,0.6584,0.1097,0.0552
0.009,0.045,0.013,28.2,7.3,-10.5,1023,2018,5,17,19,59,20.317,-0.7436,0.6571,0.1123,0.0505
0.018,0.017,-0.001,28.8,6.2,-9.2,1023,2018,5,17,19,59,20.321,-0.7439,0.6566,0.115,0.0457
-0.003,0.034,0.018,27.8,5.3,-8.5,1023,2018,5,17,19,59,20.335,-0.7441,0.6562,0.1179,0.0411
0.012,0.049,0.051,23.7,7.1,-5.2,1023,2018,5,17,19,59,20.371,-0.7445,0.6555,0.1204,0.0371
-0.02,-0.019,0.108,17.6,6.8,-7.8,1023,2018,5,17,19,59,20.394,-0.7452,0.6545,0.1224,0.0337
-0.045,-0.019,0.129,7.3,7.4,-7.5,1023,2018,5,17,19,59,20.398,-0.7466,0.6529,0.1233,0.0313
-0.026,-0.05,0.084,-6.6,16.8,-7.7,1023,2018,5,17,19,59,20.414,-0.7486,0.6508,0.1226,0.0302
0.015,0.023,0.044,-14.1,26.1,-6.4,0,2018,5,17,19,59,20.437,-0.7518,0.6474,0.1204,0.03
0.012,0.058,0.02,-15.9,20.2,-5.3,0,2018,5,17,19,59,20.459,-0.7551,0.6441,0.1178,0.0304
-0.021,0.059,0.006,-16.9,11.3,-5,0,2018,5,17,19,59,20.476,-0.7573,0.6419,0.1154,0.0313
-0.052,0.054,0.042,-20.7,7.1,-3.9,0,2018,5,17,19,59,20.499,-0.7588,0.6406,0.1128,0.0329
-0.058,0.072,0.097,-22.8,4.5,-3.2,0,2018,5,17,19,59,20.534,-0.7606,0.6387,0.1101,0.0353
-0.035,-0.017,0.011,-21.6,2.6,-4.8,0,2018,5,17,19,59,20.558,-0.7616,0.6379,0.1071,0.0374
-0.033,0.02,-0.018,-18.5,7.6,-2.6,0,2018,5,17,19,59,20.561,-0.7628,0.6368,0.1044,0.0392
-0.016,0.039,-0.058,-11.5,1,-1.5,0,2018,5,17,19,59,20.577,-0.763,0.6368,0.1025,0.0406
-0.001,0.044,-0.021,-6,-2.3,-1.1,0,2018,5,17,19,59,20.614,-0.7628,0.6372,0.1015,0.0414
0,0.065,0.007,-0.6,-16.7,-0.1,0,2018,5,17,19,59,20.637,-0.7617,0.6385,0.101,0.0419
0.002,0.023,0.011,2.6,-25.6,0,0,2018,5,17,19,59,20.641,-0.7593,0.6413,0.1012,0.0421
0.016,0.013,0.019,3.3,-24.3,1.1,0,2018,5,17,19,59,20.656,-0.7565,0.6445,0.1015,0.0421
0.03,-0.001,0.039,2,-17,3.1,0,2018,5,17,19,59,20.694,-0.7544,0.647,0.1018,0.0422
0.019,-0.04,0.005,0.9,-2.3,5.4,0,2018,5,17,19,59,20.717,-0.7533,0.6481,0.1024,0.0426
0.022,-0.054,0.018,-2.1,18.7,5.2,0,2018,5,17,19,59,20.721,-0.7544,0.6468,0.1028,0.0429
0.045,0.008,0.024,-2.4,23.7,5.5,0,2018,5,17,19,59,20.769,-0.7571,0.6435,0.1031,0.0432
0.059,0.017,0.024,-1.6,19.3,4.9,0,2018,5,17,19,59,20.771,-0.7598,0.6403,0.1033,0.0434
0.042,0.033,0.028,0.8,6.9,4,0,2018,5,17,19,59,20.78,-0.7615,0.6382,0.1035,0.0434
0.031,-0.007,0.007,1.7,2,3.9,0,2018,5,17,19,59,20.796,-0.762,0.6375,0.104,0.0434
0.021,-0.004,-0.017,1.4,10.1,4.3,0,2018,5,17,19,59,20.835,-0.7627,0.6366,0.1046,0.0434
0.007,-0.019,-0.007,-0.6,22.6,3.9,0,2018,5,17,19,59,20.857,-0.7643,0.6346,0.1053,0.0434
0.017,0.025,0.023,-0.9,26.4,3.3,0,2018,5,17,19,59,20.86,-0.7672,0.631,0.1057,0.0434
0.005,0.042,0.009,0.8,13.1,2,0,2018,5,17,19,59,20.877,-0.7694,0.6282,0.1062,0.0433
0.013,0.057,0,2.8,1.1,2.7,0,2018,5,17,19,59,20.9,-0.7702,0.6272,0.1068,0.0432
0.001,0.017,-0.007,3.6,-3.9,2.1,0,2018,5,17,19,59,20.92,-0.7699,0.6274,0.1076,0.0431
0.025,0.016,-0.017,3.5,-1.6,3.3,0,2018,5,17,19,59,20.939,-0.7693,0.628,0.1083,0.043
0.004,0.088,0.031,2.8,-7.7,4.4,0,2018,5,17,19,59,20.962,-0.7689,0.6283,0.1092,0.0432
0.015,0.021,0.019,4,-23.3,2.3,0,2018,5,17,19,59,20.98,-0.7674,0.6301,0.11,0.0435
0.011,-0.034,-0.013,3.9,-13.8,3.9,0,2018,5,17,19,59,21.004,-0.765,0.6329,0.1106,0.0436
0.001,-0.044,0.007,1.5,6.8,5.2,0,2018,5,17,19,59,21.019,-0.7645,0.6332,0.1116,0.0439
0.032,-0.038,0.009,-0.1,20.9,4.5,0,2018,5,17,19,59,21.037,-0.7662,0.6311,0.1122,0.0439
0.015,0.025,0.068,-1.5,22.3,5.2,1023,2018,5,17,19,59,21.06,-0.7689,0.6277,0.1126,0.0439
0.047,0.027,0.061,0.4,12.5,3.3,1023,2018,5,17,19,59,21.097,-0.7714,0.6246,0.1129,0.0441
0.045,0.057,0.027,3.3,-1.5,3.2,1023,2018,5,17,19,59,21.119,-0.7724,0.6233,0.1133,0.0439
0.057,0.086,0.003,4,-22.1,4.9,1023,2018,5,17,19,59,21.122,-0.7711,0.6248,0.1139,0.0439
0.063,0.09,0.025,5.9,-36.6,7.2,1023,2018,5,17,19,59,21.14,-0.768,0.6283,0.1148,0.0445
0.033,0.052,0.061,5.1,-36.3,11.1,1023,2018,5,17,19,59,21.163,-0.7641,0.6329,0.116,0.0456
0.057,0.019,0.074,7.8,-29.8,12.1,0,2018,5,17,19,59,21.199,-0.7607,0.6365,0.1175,0.0469
0.059,0.151,0.094,15.4,-42,12.4,0,2018,5,17,19,59,21.221,-0.7574,0.64,0.1198,0.0475
0.052,0.176,0.149,25,-94.3,8.9,0,2018,5,17,19,59,21.225,-0.7495,0.6485,0.1231,0.048
0.009,0.109,0.139,32,-135.8,9.7,0,2018,5,17,19,59,21.243,-0.7352,0.664,0.127,0.0484
0.036,0.054,-0.003,37.3,-133.2,12.7,0,2018,5,17,19,59,21.266,-0.7186,0.6809,0.1316,0.0489
0.059,-0.13,-0.143,44.5,-104.9,15.2,0,2018,5,17,19,59,21.282,-0.7029,0.6962,0.1372,0.0482
0.064,-0.124,-0.121,53.4,-70.6,21.7,0,2018,5,17,19,59,21.3,-0.6914,0.7061,0.1449,0.0465
0.054,-0.105,-0.111,60.2,-56.8,26.9,0,2018,5,17,19,59,21.321,-0.6815,0.7139,0.1541,0.0435
0.017,-0.016,-0.107,65.9,-62.1,24.6,0,2018,5,17,19,59,21.359,-0.6719,0.7209,0.1644,0.0399
0.055,0.075,-0.127,71.7,-88.8,23.7,0,2018,5,17,19,59,21.381,-0.6594,0.7301,0.1751,0.0361
0.063,-0.076,-0.166,73.9,-75,26.7,0,2018,5,17,19,59,21.386,-0.6461,0.7393,0.1863,0.0322
-0.01,-0.094,-0.07,63.8,-20.6,33,0,2018,5,17,19,59,21.402,-0.637,0.7445,0.1977,0.0279
-0.019,0.079,0.037,48.7,0.2,33.2,0,2018,5,17,19,59,21.423,-0.6342,0.744,0.2085,0.0248
0.033,0.085,-0.024,42.9,-17.3,33.5,0,2018,5,17,19,59,21.442,-0.6312,0.7439,0.2179,0.0229
0,-0.049,-0.045,36.4,-19.7,29.6,0,2018,5,17,19,59,21.465,-0.6263,0.7456,0.2264,0.0219
-0.038,-0.09,0.021,25.8,10.4,27.5,0,2018,5,17,19,59,21.481,-0.624,0.7453,0.2334,0.0211
-0.052,-0.074,-0.013,15.7,56.5,27.1,0,2018,5,17,19,59,21.519,-0.6278,0.7403,0.2393,0.0202
-0.054,0.019,-0.038,9.4,80.8,21,0,2018,5,17,19,59,21.542,-0.6363,0.7314,0.2443,0.0184
-0.049,0.02,-0.074,9.9,62.9,11,0,2018,5,17,19,59,21.547,-0.6447,0.7228,0.248,0.0162
-0.041,0.063,-0.138,14.3,39.3,5.5,0,2018,5,17,19,59,21.562,-0.6497,0.7173,0.2509,0.0137
-0.021,0.031,-0.06,12.3,41.8,1.6,0,2018,5,17,19,59,21.585,-0.6538,0.7127,0.2534,0.0107
-0.053,-0.001,0.01,10.3,36.8,-4,0,2018,5,17,19,59,21.603,-0.6583,0.7081,0.255,0.0076
-0.099,-0.017,0.129,0.1,29.8,-6.7,0,2018,5,17,19,59,21.626,-0.6622,0.7045,0.2551,0.005
-0.063,0.025,0.117,-13.8,39.3,-3.5,0,2018,5,17,19,59,21.644,-0.6668,0.7005,0.2538,0.0039
-0.087,-0.091,0.066,-24.5,43,-5.9,0,2018,5,17,19,59,21.667,-0.6734,0.6952,0.2512,0.0042
-0.157,-0.266,0.076,-33.1,47.9,-13.9,0,2018,5,17,19,59,21.683,-0.6804,0.69,0.2467,0.0047
-0.159,-0.174,0.202,-49.7,68.5,-18.3,0,2018,5,17,19,59,21.701,-0.6896,0.6831,0.2401,0.0053
-0.081,-0.139,0.17,-66.9,88.9,-20.8,0,2018,5,17,19,59,21.724,-0.7016,0.674,0.2306,0.0068
-0.046,-0.004,0.109,-70.6,73,-28.2,1023,2018,5,17,19,59,21.761,-0.715,0.6637,0.2192,0.0087
-0.036,-0.027,0.054,-62.9,22.5,-40.4,1023,2018,5,17,19,59,21.783,-0.7236,0.6583,0.207,0.0106
0.021,-0.052,-0.006,-52.1,-20.7,-51.6,1023,2018,5,17,19,59,21.788,-0.7256,0.6599,0.1944,0.0111
0.141,-0.014,-0.086,-42.4,-32,-52.8,1023,2018,5,17,19,59,21.804,-0.7237,0.6655,0.1821,0.0106
0.159,0.048,-0.039,-29.9,-34.5,-53.6,0,2018,5,17,19,59,21.827,-0.7215,0.6707,0.1713,0.0092
0.148,0.186,0.048,-15.9,-77.8,-57.7,0,2018,5,17,19,59,21.845,-0.7158,0.6793,0.161,0.0053
0.153,0.152,0.055,-8.2,-118.6,-59.2,0,2018,5,17,19,59,21.869,-0.7042,0.6933,0.1525,0.0022
0.156,0.035,0.053,-6.2,-122.3,-59.4,0,2018,5,17,19,59,21.886,-0.6896,0.7095,0.1444,-0.0009
0.199,-0.127,-0.12,-1,-83.1,-54.7,0,2018,5,17,19,59,21.909,-0.6766,0.7234,0.1368,-0.0049
0.125,-0.04,-0.12,4.8,-38.5,-52.4,0,2018,5,17,19,59,21.925,-0.6694,0.7312,0.1305,-0.0103
0.107,0.179,0.031,13.6,-61.8,-57.7,0,2018,5,17,19,59,21.943,-0.6629,0.738,0.1242,-0.0174
0.122,0.057,0.007,21.5,-88.5,-56,0,2018,5,17,19,59,21.965,-0.6517,0.7486,0.1184,-0.0257
0.086,0.022,0.057,20.8,-90.5,-58.1,0,2018,5,17,19,59,22.001,-0.6391,0.7599,0.1132,-0.034
0.013,-0.135,0.02,15.8,-53.3,-51.7,0,2018,5,17,19,59,22.024,-0.6287,0.7689,0.1081,-0.0416
0.02,0.002,0.002,9,-24.7,-51.1,0,2018,5,17,19,59,22.028,-0.6232,0.7737,0.1025,-0.0484
0.044,0.059,-0.039,8.8,-9.8,-42.8,0,2018,5,17,19,59,22.045,-0.6196,0.7769,0.097,-0.0547
0.021,0.081,0.006,8.1,19.5,-31.8,0,2018,5,17,19,59,22.066,-0.619,0.7775,0.0926,-0.0603
0.025,0.006,-0.038,6.2,49.6,-26,0,2018,5,17,19,59,22.104,-0.6226,0.7746,0.089,-0.0651
-0.018,0.072,-0.05,5.1,67.1,-21.2,0,2018,5,17,19,59,22.126,-0.6298,0.7687,0.0858,-0.0693
0.007,0.156,-0.049,6.1,63.9,-12.5,0,2018,5,17,19,59,22.131,-0.6375,0.7623,0.0834,-0.0729
-0.015,0.124,-0.096,13.2,50,-6.4,0,2018,5,17,19,59,22.146,-0.6437,0.7569,0.0825,-0.0759
-0.055,0,-0.102,17.6,46.3,-5,0,2018,5,17,19,59,22.164,-0.6484,0.7525,0.0832,-0.0788
-0.057,-0.009,0.021,13.7,67.9,-0.7,0,2018,5,17,19,59,22.188,-0.6549,0.7464,0.0841,-0.0818
-0.108,-0.016,0.113,8,67.2,-7.6,0,2018,5,17,19,59,22.206,-0.6643,0.7379,0.0839,-0.0843
-0.046,0.106,0.082,-0.7,34,-8.4,0,2018,5,17,19,59,22.229,-0.6709,0.7318,0.0827,-0.086
-0.046,0.001,0.064,-9.1,21.4,-7,0,2018,5,17,19,59,22.247,-0.6743,0.7288,0.0808,-0.0865
-0.055,0.059,0.074,-18.2,17.3,-6.1,0,2018,5,17,19,59,22.266,-0.6776,0.7261,0.0783,-0.0854
-0.016,-0.093,-0.016,-24.1,30.6,-4.2,0,2018,5,17,19,59,22.288,-0.6805,0.724,0.0751,-0.0835
-0.011,-0.268,-0.012,-31.9,82.5,-1,0,2018,5,17,19,59,22.306,-0.6873,0.7182,0.0708,-0.081
-0.032,-0.061,0.168,-43,123.2,-5.2,0,2018,5,17,19,59,22.33,-0.702,0.7048,0.0644,-0.0777
-0.002,-0.133,0.074,-47.4,115.2,-12.1,0,2018,5,17,19,59,22.346,-0.7171,0.6906,0.0562,-0.0747
0.046,0.036,0.067,-51.2,117,-11.1,0,2018,5,17,19,59,22.364,-0.7316,0.6762,0.0467,-0.0715
0.084,0.188,0.074,-45.4,68.3,-15.3,0,2018,5,17,19,59,22.387,-0.7433,0.6643,0.0373,-0.0687
0.083,0.289,0.112,-39.1,-13.1,-20.2,0,2018,5,17,19,59,22.406,-0.7463,0.6615,0.0294,-0.0664
0.081,0.186,0.148,-34.1,-80.1,-28.8,1023,2018,5,17,19,59,22.429,-0.7407,0.6682,0.0226,-0.0651
0.067,-0.037,0.043,-25.7,-130.6,-42.2,1023,2018,5,17,19,59,22.447,-0.7275,0.6826,0.0156,-0.0659
0.139,-0.116,-0.096,-16.1,-126.1,-52.5,1023,2018,5,17,19,59,22.469,-0.7108,0.6997,0.0081,-0.0697
0.138,-0.031,-0.117,-7.9,-109.6,-52.9,1023,2018,5,17,19,59,22.489,-0.6954,0.7147,0.0015,-0.0748
0.15,0.014,-0.099,2.3,-87.7,-48.3,1023,2018,5,17,19,59,22.507,-0.6822,0.7266,-0.0038,-0.0804
0.111,-0.019,-0.119,12.6,-79.8,-44.5,1023,2018,5,17,19,59,22.53,-0.6708,0.7364,-0.0076,-0.087
0.088,-0.114,-0.138,20.9,-46.2,-44.7,0,2018,5,17,19,59,22.548,-0.6612,0.7441,-0.0106,-0.0947
0.085,-0.07,-0.115,26.3,-12.1,-43.3,0,2018,5,17,19,59,22.569,-0.6556,0.7477,-0.0137,-0.1033
0.061,-0.054,-0.112,28.9,22.8,-40.7,0,2018,5,17,19,59,22.607,-0.6547,0.7473,-0.0167,-0.112
0.055,-0.074,-0.122,32.1,57.6,-37.7,0,2018,5,17,19,59,22.607,-0.6582,0.7428,-0.0194,-0.1205
0.036,-0.044,-0.104,32.2,95.3,-36.7,0,2018,5,17,19,59,22.63,-0.6666,0.7337,-0.0225,-0.1287
-0.002,0.071,0.066,29.8,113.3,-37,0,2018,5,17,19,59,22.648,-0.6791,0.7207,-0.0263,-0.1367
-0.011,0.111,0.119,23.6,103.4,-38.5,0,2018,5,17,19,59,22.671,-0.6923,0.7063,-0.0308,-0.1442
-0.031,0.059,0.038,17.3,106.1,-34.2,0,2018,5,17,19,59,22.69,-0.7044,0.6926,-0.0356,-0.1507
-0.088,0.063,0.043,10,120,-27.7,0,2018,5,17,19,59,22.708,-0.7173,0.6779,-0.0404,-0.1552
-0.069,0.114,0.076,5.6,107.4,-27.1,0,2018,5,17,19,59,22.731,-0.7306,0.6624,-0.0455,-0.1586
-0.04,0.133,0.037,5,80.4,-23.7,0,2018,5,17,19,59,22.749,-0.7411,0.6495,-0.0503,-0.1618
-0.022,0.1,0.016,6.8,54.2,-18.9,0,2018,5,17,19,59,22.773,-0.7482,0.6403,-0.0541,-0.1647
-0.016,0.009,-0.083,7.6,61.2,-9.8,0,2018,5,17,19,59,22.809,-0.7536,0.6333,-0.0563,-0.1667
0.004,0.111,-0.005,6.8,72.6,-5.6,0,2018,5,17,19,59,22.809,-0.7608,0.6241,-0.0584,-0.1676
-0.004,0.328,0.147,10.1,19.3,-3.8,0,2018,5,17,19,59,22.832,-0.7664,0.6168,-0.0594,-0.1688
-0.038,0.038,0.015,10,-39.4,-0.9,0,2018,5,17,19,59,22.85,-0.7644,0.6189,-0.0576,-0.1708
-0.034,-0.103,-0.038,1.7,10.3,6.1,0,2018,5,17,19,59,22.872,-0.7623,0.6216,-0.0554,-0.1711
-0.008,0.012,0,-1.9,54,9.5,0,2018,5,17,19,59,22.889,-0.7666,0.6167,-0.0555,-0.1695
0.02,-0.005,0.01,-7.1,71.1,14.3,0,2018,5,17,19,59,22.912,-0.7735,0.6087,-0.0567,-0.1668
0.065,-0.029,-0.005,-7.6,79.5,14.4,0,2018,5,17,19,59,22.93,-0.7817,0.5988,-0.0588,-0.1635
0.055,-0.083,-0.033,-6.5,92.7,14.3,0,2018,5,17,19,59,22.953,-0.7906,0.5878,-0.0609,-0.1601
0.059,0.019,0.021,-7.8,112.9,15.7,0,2018,5,17,19,59,22.972,-0.8013,0.5737,-0.0635,-0.1565
0.06,0.096,0.066,-7.6,113.3,10,0,2018,5,17,19,59,22.992,-0.8133,0.5571,-0.0669,-0.1533
0.055,0.08,0.023,-4.4,78.3,1,0,2018,5,17,19,59,23.014,-0.8229,0.543,-0.0701,-0.1513
0.061,0.051,0.001,-2.9,59.2,-5,0,2018,5,17,19,59,23.029,-0.8291,0.5332,-0.0731,-0.151
0.073,-0.144,-0.019,-9.3,72.6,-5.4,0,2018,5,17,19,59,23.048,-0.8343,0.5246,-0.0764,-0.151
0.063,0.052,-0.001,-17,107.6,-4.2,0,2018,5,17,19,59,23.069,-0.8425,0.5111,-0.0815,-0.1492
0.056,0.183,0.056,-13.2,87.2,-10.3,0,2018,5,17,19,59,23.107,-0.8513,0.4958,-0.0871,-0.1475
0.056,0.233,0.097,-4.3,19.3,-20.3,0,2018,5,17,19,59,23.13,-0.8556,0.4874,-0.091,-0.1483
0.035,0.283,0.166,3.1,-86.8,-31.8,0,2018,5,17,19,59,23.135,-0.8519,0.4921,-0.0923,-0.1529
0.022,0.014,0.014,4.4,-135.1,-39.3,0,2018,5,17,19,59,23.149,-0.8406,0.5089,-0.0915,-0.1609
0.037,-0.076,-0.048,-1.2,-116,-43.1,1023,2018,5,17,19,59,23.172,-0.8276,0.5272,-0.0915,-0.1693
0.073,-0.011,-0.041,0.8,-90.7,-48.2,1023,2018,5,17,19,59,23.209,-0.8165,0.5413,-0.0931,-0.1774
0.066,0.087,-0.006,4.3,-106.8,-50.3,1023,2018,5,17,19,59,23.231,-0.8056,0.554,-0.0952,-0.1869
0.055,0.049,-0.041,9.4,-115.9,-51.3,0,2018,5,17,19,59,23.236,-0.7926,0.5687,-0.096,-0.1972
0.036,0.023,-0.043,14.6,-112.7,-53.5,0,2018,5,17,19,59,23.253,-0.7792,0.5832,-0.096,-0.2081
0.021,-0.124,-0.052,18.4,-89.4,-51.6,0,2018,5,17,19,59,23.276,-0.7668,0.5958,-0.0952,-0.2187
0.039,-0.023,0.008,18.4,-56.3,-48,0,2018,5,17,19,59,23.292,-0.7577,0.6037,-0.0952,-0.2286
0.051,0.047,-0.003,21.2,-42.3,-43.3,0,2018,5,17,19,59,23.31,-0.751,0.6084,-0.0959,-0.2377
0.04,0.056,0.002,24.3,-29.1,-38.1,0,2018,5,17,19,59,23.333,-0.7456,0.6115,-0.0962,-0.2465
0.028,0.057,0.017,26.7,-23.8,-34.6,0,2018,5,17,19,59,23.352,-0.7417,0.6128,-0.0959,-0.2549
0.049,0.044,0.012,27.9,-23,-27.8,0,2018,5,17,19,59,23.375,-0.7384,0.6136,-0.095,-0.2628
0.035,-0.063,-0.024,28.2,-10.9,-24.5,0,2018,5,17,19,59,23.393,-0.7354,0.6144,-0.0934,-0.2698
0,-0.055,0.025,26.1,21.2,-17.4,0,2018,5,17,19,59,23.416,-0.7355,0.612,-0.0922,-0.2753
0.013,0.031,0.044,26.4,36.9,-18.1,0,2018,5,17,19,59,23.436,-0.7386,0.606,-0.0922,-0.2802
0.016,0.117,0.046,29,35.1,-18.8,0,2018,5,17,19,59,23.453,-0.7422,0.5991,-0.0925,-0.2854
0.076,0.068,-0.006,32.9,25.1,-13.6,0,2018,5,17,19,59,23.476,-0.7448,0.5933,-0.0924,-0.2908
-0.098,0.02,0.057,31.1,14.8,-9.2,0,2018,5,17,19,59,23.492,-0.7469,0.5886,-0.0903,-0.2954
-0.011,-0.009,-0.016,32,21.9,-2.2,0,2018,5,17,19,59,23.531,-0.7488,0.5847,-0.0876,-0.2994
0.005,-0.077,-0.094,32.1,55,4.3,0,2018,5,17,19,59,23.554,-0.7529,0.5786,-0.085,-0.3018
-0.027,0.143,0.009,33.4,77,4.8,0,2018,5,17,19,59,23.558,-0.7609,0.5673,-0.0839,-0.3033
-0.021,0.145,0.093,40.7,18.9,-3,0,2018,5,17,19,59,23.574,-0.7664,0.5582,-0.0816,-0.3068
-0.052,-0.024,0.113,34.7,-9.4,1.8,0,2018,5,17,19,59,23.592,-0.7671,0.5559,-0.0763,-0.3108
-0.042,-0.018,0.071,23.6,3.5,6.5,0,2018,5,17,19,59,23.615,-0.7679,0.5542,-0.071,-0.3131
-0.069,-0.054,0.068,10.2,33.5,12.3,0,2018,5,17,19,59,23.653,-0.7708,0.5504,-0.0682,-0.3131
0.003,-0.098,-0.14,2.2,76.2,15.7,0,2018,5,17,19,59,23.676,-0.7769,0.5428,-0.0685,-0.3113
-0.018,0.05,-0.038,-2.6,118.1,17.2,0,2018,5,17,19,59,23.68,-0.7876,0.529,-0.0724,-0.3074
0.023,-0.004,-0.002,-1.2,93.6,13.2,0,2018,5,17,19,59,23.694,-0.7982,0.5142,-0.0772,-0.304
-0.047,-0.103,0.12,-6.8,121.2,11.3,0,2018,5,17,19,59,23.712,-0.8075,0.5005,-0.0816,-0.3011
-0.044,0.323,0.334,-13.5,75.8,-1.1,0,2018,5,17,19,59,23.735,-0.8176,0.4849,-0.0881,-0.2974
-0.008,-0.014,0.037,-17.9,39,-0.2,0,2018,5,17,19,59,23.771,-0.8214,0.4785,-0.0925,-0.2959
-0.027,-0.054,-0.045,-26.9,82.2,0,0,2018,5,17,19,59,23.794,-0.826,0.4711,-0.0984,-0.2931
-0.017,0.058,-0.008,-33.1,107.9,2.5,0,2018,5,17,19,59,23.799,-0.8334,0.4588,-0.1075,-0.2886
-0.03,0.072,0.017,-33.7,95.4,5.2,0,2018,5,17,19,59,23.819,-0.8412,0.4449,-0.1173,-0.2838
-0.034,0.038,-0.09,-30.6,86.1,4.2,1023,2018,5,17,19,59,23.835,-0.8476,0.4334,-0.126,-0.2786
-0.005,0.027,-0.076,-29.6,80.1,3.3,1023,2018,5,17,19,59,23.858,-0.853,0.4233,-0.1343,-0.274
-0.024,0.147,0.012,-29.9,72.2,5,1023,2018,5,17,19,59,23.877,-0.8582,0.4127,-0.1425,-0.2696
0.018,0.2,0.018,-28.7,41.8,1.3,1023,2018,5,17,19,59,23.9,-0.8618,0.4049,-0.1498,-0.2659
0.009,0.304,0.078,-26.2,-2.7,2.5,1023,2018,5,17,19,59,23.919,-0.8627,0.4031,-0.1548,-0.263
0.027,0.379,0.04,-17.9,-76.5,-1.8,1023,2018,5,17,19,59,23.937,-0.8592,0.4103,-0.1563,-0.2625
0.056,0.281,-0.103,-8.9,-134,-1.5,0,2018,5,17,19,59,23.953,-0.8506,0.4274,-0.1533,-0.2649
0.104,0.09,-0.175,-0.2,-136.7,-2.8,0,2018,5,17,19,59,23.975,-0.8398,0.448,-0.1477,-0.2685
0.134,-0.008,-0.17,3.9,-116.8,-1.1,0,2018,5,17,19,59,23.994,-0.8295,0.4665,-0.1413,-0.2724
0.115,-0.005,-0.092,10.2,-98.5,-6.6,0,2018,5,17,19,59,24.018,-0.8209,0.4811,-0.1355,-0.2761
0.085,-0.009,0.014,15.2,-113.2,-18.6,0,2018,5,17,19,59,24.036,-0.8115,0.495,-0.13,-0.2816
0.084,-0.075,0.033,18.9,-136.9,-37.8,0,2018,5,17,19,59,24.06,-0.7993,0.5111,-0.1238,-0.2904
0.134,-0.095,0.004,22.3,-150.9,-55,0,2018,5,17,19,59,24.078,-0.7839,0.5292,-0.1179,-0.3022
0.155,-0.03,0.021,26.8,-158.3,-63.6,0,2018,5,17,19,59,24.116,-0.7662,0.5478,-0.1126,-0.3161
0.128,-0.051,0.009,32.2,-150.1,-65.4,0,2018,5,17,19,59,24.14,-0.7475,0.5656,-0.1066,-0.3314
0.087,-0.012,0.053,33.4,-112,-62.1,0,2018,5,17,19,59,24.144,-0.7313,0.579,-0.1013,-0.3458
0.057,0.034,0.066,33.1,-79,-53.5,0,2018,5,17,19,59,24.158,-0.7187,0.5875,-0.0977,-0.3587
0.062,0.158,0.105,31.1,-67.6,-43.9,0,2018,5,17,19,59,24.174,-0.7089,0.5932,-0.0942,-0.3695
0.028,0.213,0.102,31.8,-87.6,-35.8,0,2018,5,17,19,59,24.198,-0.6989,0.5998,-0.0893,-0.379
0.006,0.017,0.003,32.9,-98.2,-29,0,2018,5,17,19,59,24.215,-0.6872,0.6085,-0.0823,-0.388
0.009,-0.049,-0.055,32.6,-79.1,-23.8,0,2018,5,17,19,59,24.236,-0.6759,0.617,-0.0751,-0.3957
0,-0.098,-0.047,33.9,-48.5,-22.8,0,2018,5,17,19,59,24.276,-0.6677,0.6224,-0.0688,-0.4024
0.007,-0.091,-0.024,36.1,-36.3,-26.9,0,2018,5,17,19,59,24.299,-0.6615,0.6249,-0.0641,-0.4094
0.049,-0.11,-0.07,38.8,-16.8,-27.8,0,2018,5,17,19,59,24.304,-0.6567,0.6255,-0.0605,-0.4166
0.042,-0.04,0,39.7,12.4,-25.5,0,2018,5,17,19,59,24.317,-0.6547,0.623,-0.0587,-0.4238
-0.077,-0.119,0.021,38.5,28.4,-18.9,0,2018,5,17,19,59,24.338,-0.6559,0.6173,-0.0576,-0.4303
-0.043,-0.086,0.024,32.6,51.6,-17,0,2018,5,17,19,59,24.354,-0.6596,0.6098,-0.0577,-0.4355
-0.03,0.05,0.074,27.7,61.4,-9.6,0,2018,5,17,19,59,24.375,-0.6654,0.6003,-0.0597,-0.4396
-0.095,0.039,0.168,18.7,39.2,-12.8,0,2018,5,17,19,59,24.411,-0.6704,0.5919,-0.0618,-0.443
-0.068,-0.03,0.098,10.6,27.6,-9.5,0,2018,5,17,19,59,24.434,-0.6729,0.5869,-0.0635,-0.4456
-0.061,-0.131,-0.009,0.9,66.5,7.7,0,2018,5,17,19,59,24.439,-0.6776,0.5812,-0.0655,-0.4456
-0.12,0.087,0.189,-14.8,119.8,25.5,0,2018,5,17,19,59,24.475,-0.6889,0.5704,-0.0714,-0.4413
-0.113,0.265,0.002,0.3,14.3,-0.6,0,2018,5,17,19,59,24.498,-0.6973,0.5622,-0.0767,-0.4378
-0.076,0.003,-0.032,-4.3,-8.2,9.8,1023,2018,5,17,19,59,24.503,-0.6962,0.5639,-0.0753,-0.4376
-0.092,0.125,0.013,-8.8,8.5,15,1023,2018,5,17,19,59,24.518,-0.6978,0.5637,-0.075,-0.4353
-0.078,0.009,-0.035,-15.4,28.4,20.3,1023,2018,5,17,19,59,24.541,-0.7008,0.5626,-0.0755,-0.4318
-0.055,0.101,-0.034,-21.1,50.1,25.7,1023,2018,5,17,19,59,24.559,-0.7064,0.5592,-0.0783,-0.4265
-0.034,0.153,-0.006,-22.3,44.3,28,1023,2018,5,17,19,59,24.582,-0.7128,0.5547,-0.0823,-0.421
-0.023,0.198,0.018,-21.2,24.8,28.4,0,2018,5,17,19,59,24.619,-0.718,0.5517,-0.085,-0.4156
-0.038,0.243,0.049,-20.1,-5.7,29.7,0,2018,5,17,19,59,24.619,-0.7207,0.5523,-0.0854,-0.4099
-0.063,0.219,0.034,-21.4,-29.5,32.3,0,2018,5,17,19,59,24.64,-0.7208,0.5565,-0.0833,-0.4045
-0.053,0.137,-0.08,-27.1,-22,40.8,0,2018,5,17,19,59,24.658,-0.7202,0.5621,-0.0811,-0.3983
-0.035,0.219,0.037,-34.5,-16.1,47.4,0,2018,5,17,19,59,24.679,-0.7212,0.5666,-0.0798,-0.3903
-0.027,0.217,0.094,-36,-63.7,44.8,0,2018,5,17,19,59,24.714,-0.72,0.5743,-0.0767,-0.3816
-0.032,0.079,0.098,-42,-95.8,42.4,0,2018,5,17,19,59,24.737,-0.714,0.5876,-0.0714,-0.3736
-0.065,-0.064,0.074,-52.6,-80.4,42.8,0,2018,5,17,19,59,24.742,-0.707,0.6021,-0.0666,-0.3646
-0.072,-0.063,0.078,-65.3,-47.1,46.5,0,2018,5,17,19,59,24.78,-0.703,0.6136,-0.0645,-0.3535
-0.051,-0.009,0.064,-76.6,-29,48.5,0,2018,5,17,19,59,24.78,-0.7016,0.6225,-0.0653,-0.3403
-0.013,0,0.015,-84.2,-20.1,51.4,0,2018,5,17,19,59,24.802,-0.7011,0.6305,-0.068,-0.3257
0.017,0.054,0.002,-87.6,-7.6,56.3,0,2018,5,17,19,59,24.819,-0.7015,0.6376,-0.0719,-0.31
-0.012,0.025,0.003,-87.3,5.3,63.2,0,2018,5,17,19,59,24.839,-0.7032,0.6431,-0.0762,-0.2931
-0.019,0.002,-0.009,-89.1,28.2,71.7,0,2018,5,17,19,59,24.862,-0.707,0.6465,-0.0803,-0.2748
-0.025,0.079,-0.026,-90.1,49.4,80.7,0,2018,5,17,19,59,24.898,-0.7136,0.6471,-0.0846,-0.2545
-0.007,0.141,-0.012,-89.7,54,93.3,0,2018,5,17,19,59,24.922,-0.7215,0.6458,-0.0888,-0.2331
-0.028,0.135,-0.029,-89.1,54.8,104.2,0,2018,5,17,19,59,24.926,-0.7299,0.644,-0.0914,-0.2098
-0.011,0.198,-0.034,-87.3,52.4,115.3,0,2018,5,17,19,59,24.942,-0.7378,0.6424,-0.0928,-0.1852
-0.019,0.143,-0.063,-84.2,52.9,126.3,0,2018,5,17,19,59,24.978,-0.7454,0.6405,-0.0924,-0.1595
-0.022,0.023,-0.138,-81.9,73.6,137.5,0,2018,5,17,19,59,25.001,-0.7537,0.6374,-0.0902,-0.1319
0.013,0.003,-0.182,-76.1,101,146.6,0,2018,5,17,19,59,25.006,-0.7653,0.6294,-0.0868,-0.1028
0.06,0.208,-0.15,-59,69.6,149.4,0,2018,5,17,19,59,25.021,-0.7764,0.6205,-0.081,-0.0743
0.098,0.343,-0.149,-46.3,21.6,158.2,0,2018,5,17,19,59,25.044,-0.7819,0.6173,-0.0721,-0.0472
0.048,0.195,-0.152,-30.2,-21.3,156.3,0,2018,5,17,19,59,25.06,-0.7823,0.6196,-0.0601,-0.0214
-0.01,-0.144,-0.156,-21.3,-32.4,147.6,0,2018,5,17,19,59,25.083,-0.7783,0.6261,-0.047,0.0016
0.028,-0.241,-0.128,-14,-12,136.2,0,2018,5,17,19,59,25.119,-0.7742,0.6315,-0.0339,0.0226
0.134,-0.055,-0.073,2.8,-27.6,125,0,2018,5,17,19,59,25.142,-0.7713,0.6348,-0.0206,0.0406
0.156,0.055,-0.06,15.8,-59.5,116.6,0,2018,5,17,19,59,25.146,-0.7653,0.6411,-0.0061,0.0553
0.074,-0.186,-0.055,21.2,-74.9,104.3,0,2018,5,17,19,59,25.165,-0.756,0.6509,0.0078,0.0675
0.021,-0.322,-0.034,16.1,-63.2,91.1,0,2018,5,17,19,59,25.183,-0.7463,0.6606,0.0201,0.0777
0.016,-0.31,0.025,9,-41.9,76.9,1023,2018,5,17,19,59,25.204,-0.7389,0.6674,0.0304,0.087
0.084,-0.201,0.066,4.2,-22.6,62.9,1023,2018,5,17,19,59,25.223,-0.7344,0.6709,0.0384,0.0948
0.138,-0.083,0.077,3.3,-17.2,52.7,1023,2018,5,17,19,59,25.246,-0.7314,0.6727,0.0449,0.1014
0.13,-0.022,0.083,3.9,-26.3,45.6,1023,2018,5,17,19,59,25.266,-0.7282,0.6749,0.0508,0.1073
0.045,-0.146,0.093,2.5,-35.7,42.2,1023,2018,5,17,19,59,25.282,-0.7238,0.6783,0.0557,0.1127
-0.045,-0.096,0.13,-3.8,-30.9,39.2,1023,2018,5,17,19,59,25.301,-0.7196,0.6816,0.0595,0.1181
-0.068,-0.082,0.133,-11.8,-25.8,33.2,1023,2018,5,17,19,59,25.324,-0.7161,0.6839,0.0625,0.1243
-0.092,-0.123,0.109,-18.3,-21.2,23.3,1023,2018,5,17,19,59,25.342,-0.7133,0.6856,0.0637,0.1302
-0.091,-0.092,0.146,-25.6,-18.5,17.2,0,2018,5,17,19,59,25.365,-0.7114,0.6865,0.0632,0.1358
-0.117,-0.07,0.174,-32.6,-25.4,11.3,0,2018,5,17,19,59,25.383,-0.7089,0.6882,0.0607,0.1412
-0.116,0.004,0.176,-39.9,-41.5,8.8,0,2018,5,17,19,59,25.406,-0.7053,0.691,0.0566,0.1472
-0.122,0.024,0.169,-47.6,-60.1,8.9,0,2018,5,17,19,59,25.443,-0.6993,0.696,0.051,0.154
-0.116,-0.012,0.123,-57.4,-67.2,7.5,0,2018,5,17,19,59,25.465,-0.6919,0.7021,0.0439,0.1619
-0.082,0.044,0.105,-64,-71.5,7,0,2018,5,17,19,59,25.469,-0.6839,0.7083,0.0355,0.1708
-0.067,0.079,0.132,-71.7,-80.1,7.5,0,2018,5,17,19,59,25.485,-0.6746,0.7152,0.026,0.1804
-0.056,0.05,0.12,-80.9,-82.8,7.4,0,2018,5,17,19,59,25.508,-0.6645,0.7221,0.0153,0.1912
-0.032,0.029,0.09,-88.2,-81.8,6.4,0,2018,5,17,19,59,25.523,-0.654,0.7286,0.0038,0.2032
-0.028,0.043,0.082,-94.5,-87.9,5,0,2018,5,17,19,59,25.542,-0.6435,0.7342,-0.0084,0.216
-0.035,0.078,0.106,-101.3,-99.5,3.4,0,2018,5,17,19,59,25.565,-0.6313,0.7405,-0.0221,0.2291
-0.025,0.058,0.052,-108.4,-110.8,-2.4,0,2018,5,17,19,59,25.601,-0.617,0.7476,-0.0375,0.2428
-0.004,0.049,0.01,-113.3,-115.2,-7.4,0,2018,5,17,19,59,25.625,-0.6015,0.7546,-0.0547,0.2561
0.016,0.056,-0.017,-114.5,-116,-10.2,0,2018,5,17,19,59,25.629,-0.585,0.7615,-0.0729,0.2691
0.038,0.087,-0.023,-113.5,-117.3,-12.4,0,2018,5,17,19,59,25.646,-0.568,0.7679,-0.0915,0.2814
0.049,0.177,0.024,-111.8,-130.8,-14.9,0,2018,5,17,19,59,25.669,-0.5498,0.7743,-0.1104,0.2929
0.01,0.033,-0.059,-110.7,-163.4,-25.3,0,2018,5,17,19,59,25.705,-0.5283,0.7822,-0.1311,0.3028
0.037,0.019,-0.148,-110.8,-171.2,-27.3,0,2018,5,17,19,59,25.728,-0.5034,0.7912,-0.154,0.311
0.024,0.057,-0.179,-105.6,-161.2,-27.8,0,2018,5,17,19,59,25.732,-0.4788,0.7987,-0.1763,0.3187
0.016,0.005,-0.156,-99.2,-140.6,-33.8,0,2018,5,17,19,59,25.746,-0.4558,0.8046,-0.1975,0.3252
0.043,-0.088,-0.123,-97.6,-100.5,-32.4,0,2018,5,17,19,59,25.787,-0.4367,0.8076,-0.217,0.3314
-0.032,-0.124,-0.121,-95,-71.8,-36.9,0,2018,5,17,19,59,25.789,-0.4226,0.8073,-0.2343,0.3386
-0.052,-0.069,-0.102,-91.6,-54.8,-40.3,0,2018,5,17,19,59,25.805,-0.4117,0.8049,-0.2502,0.3461
0.03,-0.019,-0.123,-86.1,-48.1,-43.8,0,2018,5,17,19,59,25.828,-0.4027,0.8016,-0.2656,0.3529
0.037,-0.032,-0.086,-83.2,-42.9,-45.8,0,2018,5,17,19,59,25.845,-0.3945,0.7979,-0.2808,0.3586
0.082,-0.025,-0.096,-85.1,-29.1,-46.8,0,2018,5,17,19,59,25.868,-0.3878,0.7931,-0.2957,0.3647
0.097,0.022,-0.076,-85.6,-13,-46.5,0,2018,5,17,19,59,25.887,-0.3836,0.7864,-0.3092,0.3723
0.11,0.105,-0.043,-85.6,-10.9,-43,0,2018,5,17,19,59,25.91,-0.3804,0.779,-0.3218,0.3804
0.138,0.176,-0.018,-84.5,-18.2,-34.6,0,2018,5,17,19,59,25.931,-0.3762,0.772,-0.3336,0.3885
0.133,0.215,0.015,-81.9,-30.7,-20.2,0,2018,5,17,19,59,25.948,-0.3699,0.7663,-0.3445,0.3965
-0.016,0.031,-0.056,-74.5,-48.8,-15.8,1023,2018,5,17,19,59,25.965,-0.3602,0.7629,-0.3548,0.4028
-0.046,-0.016,-0.065,-69.8,-48,-10.7,1023,2018,5,17,19,59,25.988,-0.3492,0.7605,-0.3644,0.4083
0.021,-0.032,-0.089,-66.8,-29.9,-8.6,1023,2018,5,17,19,59,26.023,-0.3397,0.7578,-0.3726,0.4139
0.03,-0.084,-0.132,-65.6,-5.4,-9.5,1023,2018,5,17,19,59,26.046,-0.3335,0.7537,-0.3791,0.4204
0.005,0,-0.134,-62.8,-12.3,-19.9,1023,2018,5,17,19,59,26.051,-0.3291,0.7488,-0.3856,0.4268
0.003,0.013,-0.2,-51.6,-69.2,-38.2,1023,2018,5,17,19,59,26.067,-0.3217,0.7451,-0.3957,0.4297
-0.064,-0.19,-0.229,-37.9,-125.7,-61.9,0,2018,5,17,19,59,26.09,-0.3089,0.7442,-0.4123,0.425
-0.068,-0.308,-0.291,-19,-153.9,-87.7,0,2018,5,17,19,59,26.127,-0.2933,0.7444,-0.4342,0.4136
0.003,-0.405,-0.34,0.4,-144.4,-110.3,0,2018,5,17,19,59,26.148,-0.2798,0.7438,-0.459,0.397
0.085,-0.26,-0.387,18.3,-112,-124.1,0,2018,5,17,19,59,26.151,-0.2722,0.7408,-0.4824,0.3798
0.095,-0.257,-0.282,43.5,-89.8,-128,0,2018,5,17,19,59,26.187,-0.2703,0.7367,-0.5037,0.361
0.132,-0.289,-0.221,59.1,-80.9,-132.9,0,2018,5,17,19,59,26.187,-0.2722,0.7321,-0.5231,0.3408
0.074,-0.212,-0.213,77.2,-65.4,-129.8,0,2018,5,17,19,59,26.208,-0.2767,0.7274,-0.5411,0.3184
0.035,-0.132,-0.182,86.5,-26.7,-126.9,0,2018,5,17,19,59,26.245,-0.2859,0.7217,-0.556,0.2968
-0.032,-0.081,-0.179,91.8,6.7,-125.8,0,2018,5,17,19,59,26.268,-0.2997,0.7144,-0.5676,0.2782
-0.143,0.055,-0.069,97,26.8,-122.9,0,2018,5,17,19,59,26.271,-0.3167,0.7057,-0.5772,0.2614
-0.182,0.156,-0.004,94.6,39.3,-119.9,0,2018,5,17,19,59,26.289,-0.336,0.6957,-0.5852,0.246
-0.203,0.197,0.018,88.2,46.1,-114.9,0,2018,5,17,19,59,26.309,-0.3557,0.6847,-0.5919,0.2326
-0.247,0.268,-0.002,86,34.4,-113.4,0,2018,5,17,19,59,26.343,-0.3741,0.6737,-0.5984,0.2191
-0.244,0.165,-0.028,83.3,22.3,-112.5,0,2018,5,17,19,59,26.363,-0.3904,0.6632,-0.6048,0.2045
-0.216,0.051,0.062,76.6,29.4,-116.1,0,2018,5,17,19,59,26.372,-0.406,0.6522,-0.6114,0.1895
-0.185,-0.002,0.114,63.1,34.2,-128,0,2018,5,17,19,59,26.408,-0.4214,0.6389,-0.6189,0.1761
-0.086,-0.006,-0.01,55,11.1,-144,0,2018,5,17,19,59,26.408,-0.4345,0.6241,-0.6286,0.1624
-0.008,-0.122,-0.079,61.3,-28.8,-159.8,0,2018,5,17,19,59,26.43,-0.4437,0.6098,-0.6406,0.1437
0.076,-0.418,-0.125,74.7,-45.2,-183.3,0,2018,5,17,19,59,26.467,-0.4514,0.5954,-0.6538,0.1188
0.064,-0.603,-0.044,84.7,-16.3,-213.8,0,2018,5,17,19,59,26.488,-0.4611,0.5765,-0.6683,0.0905
0.042,-0.63,-0.061,89.4,25.9,-249.4,0,2018,5,17,19,59,26.493,-0.4752,0.5498,-0.6839,0.0634
-0.014,-0.5,-0.066,96.1,60,-283.6,0,2018,5,17,19,59,26.509,-0.4931,0.5143,-0.7005,0.0373
0.009,-0.258,-0.128,110.1,76.4,-308.3,0,2018,5,17,19,59,26.532,-0.513,0.4718,-0.7169,0.0109
0.014,-0.019,-0.141,130.1,76.8,-317.9,0,2018,5,17,19,59,26.566,-0.5337,0.4251,-0.7307,-0.0168
