ax,ay,az,dpitch,droll,dyaw,heart,time_1,time_2,time_3,time_4,time_5,time_6,w,x,y,z
0.006,0.008,-0.004,0,0,0,1023,2018,4,25,20,26,59.469,-0.6641,0.1892,0.2377,-0.683
0.005,0.011,-0.002,0,0,0,1023,2018,4,25,20,26,59.49,-0.6641,0.1893,0.2375,-0.6831
0.008,0.008,-0.001,-0.2,-0.2,0.5,0,2018,4,25,20,26,59.495,-0.664,0.1893,0.2375,-0.6831
0.01,0.01,-0.005,-0.1,-0.5,0.7,0,2018,4,25,20,26,59.512,-0.664,0.1893,0.2374,-0.6831
0.008,0.007,0,0,-0.7,0.8,0,2018,4,25,20,26,59.547,-0.6641,0.1895,0.2373,-0.6831
0.007,0.001,-0.004,0.1,-0.6,1,0,2018,4,25,20,26,59.567,-0.6641,0.1897,0.2373,-0.683
0.009,0.003,-0.001,0.4,-0.3,0.7,0,2018,4,25,20,26,59.574,-0.6641,0.1897,0.2373,-0.683
0.008,0.006,-0.007,0.8,0,0.5,0,2018,4,25,20,26,59.612,-0.664,0.1895,0.2375,-0.683
0.009,0.01,-0.005,0.8,0,0.2,0,2018,4,25,20,26,59.634,-0.664,0.1894,0.2375,-0.6831
0.006,0.012,-0.003,0.8,-0.2,0.3,0,2018,4,25,20,26,59.638,-0.6639,0.1893,0.2376,-0.6832
0.001,0.009,-0.003,0.5,-0.4,0.3,0,2018,4,25,20,26,59.655,-0.6639,0.1894,0.2376,-0.6832
0.003,0.009,-0.004,0,0,0,0,2018,4,25,20,26,59.694,-0.6638,0.1893,0.2377,-0.6832
0.001,0.005,-0.011,0,-0.3,0.5,0,2018,4,25,20,26,59.698,-0.6638,0.1891,0.2379,-0.6832
0.004,0.008,-0.005,-0.2,0,0.5,0,2018,4,25,20,26,59.715,-0.6638,0.1892,0.2379,-0.6832
0.007,0.009,-0.003,-0.1,0,0.8,0,2018,4,25,20,26,59.736,-0.6639,0.1894,0.2377,-0.6832
0.006,0.011,-0.007,-0.5,-0.1,0.9,0,2018,4,25,20,26,59.755,-0.664,0.1893,0.2376,-0.6831
0.01,0.008,-0.006,-0.2,-0.5,0.5,0,2018,4,25,20,26,59.775,-0.664,0.1893,0.2376,-0.6831
0.01,0.005,-0.003,0,0,0,0,2018,4,25,20,26,59.813,-0.664,0.1894,0.2375,-0.6831
0.008,0.003,0.001,-0.1,-0.2,0.5,0,2018,4,25,20,26,59.833,-0.664,0.1895,0.2375,-0.6831
0.012,0.005,-0.003,0,-0.2,0.6,0,2018,4,25,20,26,59.838,-0.664,0.1896,0.2374,-0.6831
0.01,0.008,-0.002,0.1,-0.2,0.5,0,2018,4,25,20,26,59.858,-0.664,0.1897,0.2373,-0.6831
0.008,0.009,-0.007,0,-0.1,0.7,0,2018,4,25,20,26,59.877,-0.664,0.1896,0.2374,-0.6831
0.008,0.009,-0.009,-0.1,-0.2,0.5,0,2018,4,25,20,26,59.894,-0.6639,0.1895,0.2375,-0.6832
0.008,0.008,-0.002,0.1,0,0.7,0,2018,4,25,20,26,59.914,-0.6639,0.1895,0.2375,-0.6831
0.009,0.006,-0.002,-0.1,0,0.8,0,2018,4,25,20,26,59.934,-0.664,0.1895,0.2375,-0.6831
0.005,0.006,-0.002,0,0,0.8,1023,2018,4,25,20,26,59.972,-0.664,0.1894,0.2376,-0.6831
0.007,0.007,-0.002,-0.1,0,1,1023,2018,4,25,20,26,59.991,-0.664,0.1893,0.2375,-0.6831
0.007,0.009,-0.001,0,0,0.7,1023,2018,4,25,20,26,59.995,-0.6641,0.1893,0.2374,-0.6831
0.009,0.009,-0.005,0.1,-0.1,0.7,1023,2018,4,25,20,27,0.015,-0.6641,0.1894,0.2373,-0.6831
0.007,0.009,-0.004,0.1,-0.1,0.5,1023,2018,4,25,20,27,0.035,-0.6641,0.1894,0.2373,-0.6831
0.007,0.006,0,0.2,-0.1,0.5,1023,2018,4,25,20,27,0.074,-0.6641,0.1894,0.2373,-0.6831
0.009,0.006,-0.005,0.3,-0.1,0.6,1023,2018,4,25,20,27,0.093,-0.6641,0.1893,0.2374,-0.6831
0.008,0.007,-0.003,0.1,-0.5,0.5,1023,2018,4,25,20,27,0.097,-0.6641,0.1894,0.2373,-0.6831
0.004,0.007,-0.004,0,-0.5,0.4,0,2018,4,25,20,27,0.135,-0.6641,0.1894,0.2373,-0.6831
0.007,0.007,-0.007,-0.1,-0.3,0.5,0,2018,4,25,20,27,0.154,-0.6641,0.1896,0.2373,-0.6831
0.012,0.011,-0.001,0,-0.1,0.6,0,2018,4,25,20,27,0.158,-0.6641,0.1895,0.2373,-0.6831
0.009,0.009,-0.003,-0.1,-0.2,0.9,0,2018,4,25,20,27,0.177,-0.664,0.1894,0.2374,-0.6831
0.011,0.005,0.003,0.1,-0.2,1,0,2018,4,25,20,27,0.198,-0.6641,0.1894,0.2374,-0.6831
0.007,0.004,-0.001,0.1,-0.3,1,0,2018,4,25,20,27,0.217,-0.6641,0.1894,0.2374,-0.683
0.008,0.004,-0.003,0.2,-0.4,0.8,0,2018,4,25,20,27,0.255,-0.6642,0.1895,0.2373,-0.683
0.007,0.007,-0.005,0,0,0,0,2018,4,25,20,27,0.275,-0.6641,0.1895,0.2373,-0.683
0.005,0.009,0,0,0,0,0,2018,4,25,20,27,0.28,-0.6641,0.1897,0.2372,-0.6831
0.005,0.011,-0.006,0,0,0,0,2018,4,25,20,27,0.298,-0.6641,0.1897,0.237,-0.6831
0.006,0.013,-0.007,0,-0.4,0.7,0,2018,4,25,20,27,0.318,-0.6641,0.1898,0.2369,-0.6831
0.005,0.007,-0.004,0.1,-0.5,0.7,0,2018,4,25,20,27,0.355,-0.6641,0.1898,0.2369,-0.6831
0.006,0.006,0.003,-0.2,-0.4,0.8,0,2018,4,25,20,27,0.377,-0.6642,0.1898,0.2369,-0.683
0.01,0.013,0.007,0.2,0,0.8,0,2018,4,25,20,27,0.381,-0.6642,0.1897,0.2371,-0.683
0.015,0.051,0.052,0,-1.4,2.4,0,2018,4,25,20,27,0.395,-0.6643,0.1893,0.2369,-0.6831
0.009,0.397,0.408,-2.9,-19,8.1,0,2018,4,25,20,27,0.435,-0.6646,0.1897,0.2378,-0.6824
-0.19,0.271,0.686,-50.4,-84.8,24.4,0,2018,4,25,20,27,0.457,-0.666,0.1965,0.2409,-0.6779
-0.162,0.667,0.719,-88,-293.8,30.9,0,2018,4,25,20,27,0.461,-0.6649,0.226,0.2575,-0.6635
-0.275,0.19,0.211,-134.9,-400.5,49.6,0,2018,4,25,20,27,0.479,-0.6592,0.2783,0.2877,-0.6365
-0.113,-0.06,0.187,-163.5,-421.9,23.3,0,2018,4,25,20,27,0.499,-0.649,0.3399,0.3171,-0.6021
0.018,-0.271,0.388,-189.9,-367.6,0,0,2018,4,25,20,27,0.521,-0.6346,0.4017,0.3386,-0.5667
0.149,-0.181,0.5,-197.1,-296.2,-31.6,0,2018,4,25,20,27,0.54,-0.6203,0.4569,0.3474,-0.5344
0.261,-0.074,0.23,-187.6,-286.4,-57.3,0,2018,4,25,20,27,0.58,-0.604,0.5076,0.3488,-0.5057
0.288,-0.078,0.01,-158.4,-308.5,-77.8,0,2018,4,25,20,27,0.584,-0.5809,0.5573,0.3503,-0.4786
0.177,-0.045,-0.145,-134.6,-325.6,-87.8,1023,2018,4,25,20,27,0.6,-0.5505,0.6058,0.3531,-0.4528
0.011,0.089,-0.321,-122.7,-284.2,-84.2,1023,2018,4,25,20,27,0.618,-0.5177,0.65,0.3554,-0.4277
-0.232,0.337,-0.617,-111.1,-167.7,-70,1023,2018,4,25,20,27,0.637,-0.4931,0.6833,0.3522,-0.407
-0.266,0.353,-1.12,-82,-54.9,-61.6,1023,2018,4,25,20,27,0.674,-0.4812,0.7036,0.3434,-0.3941
-0.264,0.397,-1.289,-28.2,28.6,-44.9,1023,2018,4,25,20,27,0.696,-0.48,0.7111,0.3325,-0.3915
-0.447,0.396,-1.178,31.6,43.3,-29.4,1023,2018,4,25,20,27,0.7,-0.4827,0.7093,0.3253,-0.3974
-0.468,0.568,-1.035,82.8,-1.8,-13.9,1023,2018,4,25,20,27,0.738,-0.4807,0.7043,0.326,-0.4079
-0.391,0.589,-0.958,125.8,-52.3,6.6,1023,2018,4,25,20,27,0.759,-0.4705,0.6995,0.3366,-0.4194
-0.358,0.566,-0.843,158.2,-60.7,30.7,1023,2018,4,25,20,27,0.763,-0.456,0.6924,0.3551,-0.4317
-0.361,0.563,-0.736,176.6,-56.6,51.3,1023,2018,4,25,20,27,0.783,-0.4414,0.6813,0.3777,-0.445
-0.345,0.541,-0.683,185.8,-68.8,73,0,2018,4,25,20,27,0.804,-0.4266,0.6674,0.4037,-0.4576
-0.335,0.399,-0.696,192.2,-98.4,94,0,2018,4,25,20,27,0.822,-0.4101,0.6521,0.4339,-0.4671
-0.399,0.289,-0.676,203.5,-140.7,112,0,2018,4,25,20,27,0.864,-0.3891,0.6364,0.4689,-0.4728
-0.4,0.288,-0.643,214.3,-150,142.2,0,2018,4,25,20,27,0.883,-0.3652,0.6184,0.5087,-0.4746
-0.463,0.166,-0.607,229.9,-107.4,173.8,0,2018,4,25,20,27,0.887,-0.3438,0.5935,0.5499,-0.4764
-0.594,-0.045,-0.673,258.6,-77.7,191.3,0,2018,4,25,20,27,0.903,-0.3262,0.56,0.5897,-0.4818
-0.839,-0.172,-0.885,293,-156.7,198.8,0,2018,4,25,20,27,0.922,-0.3026,0.5219,0.6326,-0.4854
-1.156,-0.469,-1.026,323.1,-244.5,214.1,0,2018,4,25,20,27,0.943,-0.2659,0.4826,0.6839,-0.478
-1.445,-0.961,-0.868,356.7,-208.6,218.5,0,2018,4,25,20,27,0.964,-0.2221,0.4377,0.7361,-0.4658
-1.409,-1.529,-0.04,388.6,-36.9,152.6,0,2018,4,25,20,27,1.002,-0.1793,0.3861,0.7729,-0.4704
1.11,-4.864,-6.556,28.1,-797.2,105.7,0,2018,4,25,20,27,1.022,-0.1232,0.3768,0.8428,-0.3638
-0.274,-4.215,0.292,-13.4,-72,60.7,0,2018,4,25,20,27,1.026,-0.0759,0.3797,0.8806,-0.273
-0.189,-1.711,0.49,-25.6,304.3,-35.9,0,2018,4,25,20,27,1.045,-0.0889,0.3804,0.872,-0.2946
-0.097,-0.594,0.809,2.2,214,-28.3,0,2018,4,25,20,27,1.065,-0.104,0.384,0.8552,-0.3319
0.536,0.08,-0.161,9.2,331.5,19.1,0,2018,4,25,20,27,1.081,-0.1213,0.3789,0.8379,-0.3734
-0.018,0.627,-0.288,3.3,277.3,21,0,2018,4,25,20,27,1.102,-0.1429,0.3681,0.8171,-0.4197
-0.413,0.448,-0.238,1.4,46.3,23.4,0,2018,4,25,20,27,1.121,-0.1544,0.3605,0.8067,-0.4418
-0.152,-0.05,-0.278,5.9,-67.7,18.7,0,2018,4,25,20,27,1.161,-0.1539,0.3576,0.8107,-0.4371
0.103,-0.305,-0.151,12.5,-32.9,19.5,0,2018,4,25,20,27,1.182,-0.1496,0.356,0.8173,-0.4274
0.118,0.074,-0.083,17.3,90.3,16.9,0,2018,4,25,20,27,1.186,-0.1515,0.3505,0.8154,-0.4349
0.053,0.078,-0.063,21.6,67,12.3,0,2018,4,25,20,27,1.204,-0.1542,0.345,0.8108,-0.4467
0.021,0.102,-0.004,27.2,37.5,11.7,0,2018,4,25,20,27,1.242,-0.1539,0.3403,0.8085,-0.4546
0.016,0.059,-0.023,25.8,15.6,14,0,2018,4,25,20,27,1.262,-0.1523,0.3356,0.8084,-0.4588
0.115,-0.01,-0.062,22,21,12.7,0,2018,4,25,20,27,1.267,-0.1502,0.3316,0.8087,-0.4618
0.156,0.016,-0.128,19.8,37,12.1,1023,2018,4,25,20,27,1.304,-0.15,0.3273,0.8077,-0.4667
0.126,0.081,-0.138,21.2,37,11,1023,2018,4,25,20,27,1.308,-0.1502,0.3229,0.8059,-0.4727
0.081,0.074,-0.019,21.4,14.2,8.6,1023,2018,4,25,20,27,1.326,-0.1493,0.3191,0.8049,-0.4774
0.045,0.071,0.057,17.1,-19.7,6.2,1023,2018,4,25,20,27,1.344,-0.1463,0.3167,0.8061,-0.4779
0.02,-0.051,-0.039,9.8,-36.5,0.4,1023,2018,4,25,20,27,1.363,-0.1386,0.3154,0.8134,-0.4685
-0.004,-0.044,0.003,8.9,-23.2,-3.2,1023,2018,4,25,20,27,1.384,-0.1354,0.3155,0.8158,-0.4652
-0.013,-0.024,0.035,5.9,-17.5,-5.5,1023,2018,4,25,20,27,1.404,-0.1331,0.3156,0.8174,-0.4629
-0.022,-0.008,0.035,3.1,-17.6,-6.9,1023,2018,4,25,20,27,1.427,-0.1312,0.3163,0.8186,-0.461
-0.019,0.002,0.05,0,-17.1,-7,1023,2018,4,25,20,27,1.445,-0.1296,0.3174,0.8195,-0.4591
-0.003,0.01,0.028,-3.4,-13.4,-5.5,0,2018,4,25,20,27,1.465,-0.1285,0.3185,0.8204,-0.457
0.005,0.012,0.009,-5.7,-8.4,-3.3,0,2018,4,25,20,27,1.501,-0.1282,0.3196,0.8209,-0.4553
-0.005,0.01,0.001,-6.7,-7.8,-1.8,0,2018,4,25,20,27,1.522,-0.1284,0.3205,0.8214,-0.4538
-0.013,0.022,0.002,-6.8,-10.7,-1.2,0,2018,4,25,20,27,1.526,-0.1288,0.3213,0.8221,-0.4519
-0.018,0.009,-0.004,-6.7,-11.7,-1.4,0,2018,4,25,20,27,1.564,-0.1291,0.322,0.823,-0.4496
-0.004,-0.02,-0.015,-6.2,-3,-2.7,0,2018,4,25,20,27,1.568,-0.1295,0.3228,0.8235,-0.448
0.008,-0.015,-0.007,-5.2,5,-3.8,0,2018,4,25,20,27,1.584,-0.1301,0.3235,0.8232,-0.4479
0.014,0.009,-0.004,-4,7,-3.7,0,2018,4,25,20,27,1.622,-0.1307,0.3242,0.8224,-0.4486
0.027,0.019,0.001,-3,5.1,-3.1,0,2018,4,25,20,27,1.644,-0.1311,0.3247,0.8218,-0.4492
0.039,0.022,0,-2.6,2.8,-1.7,0,2018,4,25,20,27,1.648,-0.1311,0.3252,0.8214,-0.4497
0.022,0.018,-0.001,-1.8,0.6,0,0,2018,4,25,20,27,1.669,-0.1311,0.3255,0.8212,-0.4498
0.014,0.019,0,-1.3,2.1,1.4,0,2018,4,25,20,27,1.689,-0.1312,0.3255,0.8212,-0.4498
0.007,0.017,-0.004,-1.3,3.1,2.2,0,2018,4,25,20,27,1.707,-0.1315,0.3252,0.8211,-0.4501
0.006,0.02,-0.016,-1.2,2,2.5,0,2018,4,25,20,27,1.73,-0.1319,0.3249,0.8211,-0.4502
0.008,0.02,-0.018,-0.8,-0.6,2.8,0,2018,4,25,20,27,1.75,-0.1321,0.3245,0.8213,-0.45
0.004,0.03,-0.019,-0.5,-2.1,3.2,0,2018,4,25,20,27,1.77,-0.1321,0.3242,0.8218,-0.4494
0.006,0.029,-0.015,0,-3.9,2.8,0,2018,4,25,20,27,1.785,-0.1319,0.3237,0.8224,-0.4485
0.011,0.023,-0.01,0.3,-3.1,2.7,0,2018,4,25,20,27,1.808,-0.1317,0.3233,0.8232,-0.4476
0.017,0.02,-0.002,0,-2.4,2.4,0,2018,4,25,20,27,1.827,-0.1315,0.3229,0.8237,-0.4469
0.018,0.013,0.001,0.2,-2.7,2.4,0,2018,4,25,20,27,1.846,-0.1313,0.3224,0.8242,-0.4464
0.012,0.013,0.001,0.4,-4,1.9,0,2018,4,25,20,27,1.868,-0.131,0.3221,0.8247,-0.4458
0.005,0.008,-0.003,0.3,-4,1.7,0,2018,4,25,20,27,1.906,-0.1307,0.3218,0.8253,-0.4451
0.005,0.005,-0.008,0.6,-2.4,1.1,0,2018,4,25,20,27,1.927,-0.1304,0.3216,0.8256,-0.4447
0.009,0.006,-0.003,0.9,-1.5,0.7,0,2018,4,25,20,27,1.931,-0.1301,0.3214,0.8259,-0.4444
0.007,0.005,0.005,0.8,-1.5,0.1,1023,2018,4,25,20,27,1.951,-0.1298,0.3213,0.8261,-0.4443
0.008,0.01,0.012,0.4,-2.8,0,1023,2018,4,25,20,27,1.972,-0.1294,0.3211,0.8263,-0.444
0.006,0.003,0,-0.2,-4.6,-0.1,1023,2018,4,25,20,27,1.992,-0.1291,0.321,0.8268,-0.4433
-0.002,0.006,0.003,-0.4,-5.9,0,1023,2018,4,25,20,27,2.012,-0.1287,0.321,0.8273,-0.4425
0.003,0.001,-0.002,-0.5,-5.4,0,1023,2018,4,25,20,27,2.032,-0.1284,0.321,0.8279,-0.4414
0.007,0.004,0.003,-0.2,-2.9,-0.2,1023,2018,4,25,20,27,2.048,-0.1281,0.321,0.8283,-0.4407
0.011,0.003,0.004,-1,-1.8,-0.2,1023,2018,4,25,20,27,2.086,-0.1279,0.321,0.8285,-0.4405
0.015,0.006,0.009,-0.9,-2.4,0.1,1023,2018,4,25,20,27,2.104,-0.1278,0.321,0.8287,-0.4401
0.01,0.007,-0.002,-0.7,-3.2,0.3,1023,2018,4,25,20,27,2.108,-0.1276,0.321,0.829,-0.4396
0.008,0.006,-0.003,-0.6,-1.6,0,0,2018,4,25,20,27,2.129,-0.1274,0.3209,0.8294,-0.439
0.011,0.005,-0.002,0,0,0,0,2018,4,25,20,27,2.149,-0.1273,0.321,0.8294,-0.4391
0.011,0.004,0.002,0.3,-0.6,0.1,0,2018,4,25,20,27,2.187,-0.1271,0.321,0.8293,-0.4393
0.012,0.01,0.001,0.8,-1.9,-0.2,0,2018,4,25,20,27,2.208,-0.1267,0.321,0.8294,-0.4391
0.012,0.014,0.004,0.7,-3.2,-0.5,0,2018,4,25,20,27,2.212,-0.1263,0.321,0.8297,-0.4388
0.011,0.018,-0.005,0.6,-5.1,-0.2,0,2018,4,25,20,27,2.231,-0.1257,0.321,0.8301,-0.4381
0.006,0.013,-0.001,0.4,-6.6,0.1,0,2018,4,25,20,27,2.254,-0.1251,0.321,0.8307,-0.4371
0.005,0.012,-0.01,0.1,-5.7,-0.1,0,2018,4,25,20,27,2.267,-0.1246,0.321,0.8314,-0.436
0.004,0.005,-0.004,0.4,-4.2,-0.5,0,2018,4,25,20,27,2.304,-0.1241,0.3209,0.8319,-0.4352
0.004,0.008,0.003,0.8,-4.1,-0.7,0,2018,4,25,20,27,2.324,-0.1236,0.3209,0.8323,-0.4346
0.005,0.008,0.003,1,-4.7,-0.3,0,2018,4,25,20,27,2.328,-0.1231,0.3209,0.8327,-0.434
0.005,0.016,0.015,1,-3.7,0,0,2018,4,25,20,27,2.368,-0.1226,0.3208,0.8331,-0.4334
0.009,0.014,0.012,0.8,-2.3,0.4,0,2018,4,25,20,27,2.389,-0.1222,0.3206,0.8335,-0.4329
0.002,0.013,0.002,0.5,-1.2,0.7,0,2018,4,25,20,27,2.394,-0.1219,0.3204,0.8337,-0.4327
0,0.013,0.001,0,-0.6,1.3,0,2018,4,25,20,27,2.412,-0.1218,0.3202,0.8338,-0.4327
0.004,0.017,-0.001,-0.2,-0.7,1.9,0,2018,4,25,20,27,2.452,-0.1218,0.3199,0.834,-0.4325
0.007,0.009,-0.001,-0.3,-2.3,2,0,2018,4,25,20,27,2.472,-0.1217,0.3197,0.8342,-0.4323
0.005,0.015,0.001,-0.4,-4.9,1.9,0,2018,4,25,20,27,2.476,-0.1216,0.3195,0.8346,-0.4318
0.009,0.004,-0.009,-0.2,-6.6,1.8,0,2018,4,25,20,27,2.49,-0.1212,0.3193,0.8351,-0.4309
0.01,0,-0.003,0.1,-6.3,1.4,0,2018,4,25,20,27,2.53,-0.1208,0.3192,0.8357,-0.43
0.014,-0.003,-0.008,0.4,-3.9,1.1,0,2018,4,25,20,27,2.549,-0.1204,0.3191,0.8362,-0.4292
0.015,0.001,-0.003,0.8,-1.2,0.8,0,2018,4,25,20,27,2.554,-0.1201,0.3189,0.8364,-0.429
0.01,0,0,0.9,-0.3,0.3,0,2018,4,25,20,27,2.571,-0.1198,0.3187,0.8365,-0.4291
0.002,0.003,0.005,1.3,-0.5,0.2,0,2018,4,25,20,27,2.61,-0.1195,0.3186,0.8366,-0.4292
0.002,0.003,0.001,1.9,-0.4,0,1023,2018,4,25,20,27,2.63,-0.1192,0.3184,0.8367,-0.4293
0.005,0.008,0.005,2.2,0.1,-0.3,1023,2018,4,25,20,27,2.635,-0.1187,0.3181,0.8368,-0.4294
0.005,0.014,0.008,1.9,0.7,-0.6,1023,2018,4,25,20,27,2.671,-0.1183,0.3179,0.8368,-0.4297
-0.001,0.012,0.01,1.5,0.1,-0.6,1023,2018,4,25,20,27,2.692,-0.1179,0.3178,0.8368,-0.4298
0.002,0.017,0.01,0.9,-0.5,0,1023,2018,4,25,20,27,2.696,-0.1177,0.3177,0.8368,-0.43
0.001,0.015,0.011,1,-1.6,0.7,1023,2018,4,25,20,27,2.734,-0.1174,0.3175,0.8369,-0.4299
0,0.009,0.001,1.1,-2.4,1,1023,2018,4,25,20,27,2.739,-0.1171,0.3173,0.8372,-0.4297
-0.003,0.008,0.003,0.8,-2,1.1,1023,2018,4,25,20,27,2.754,-0.1169,0.317,0.8375,-0.4294
0.001,0.001,-0.003,0.7,-0.3,1,1023,2018,4,25,20,27,2.775,-0.1167,0.3166,0.8377,-0.4292
0.006,-0.001,-0.001,0.6,-0.2,0.4,0,2018,4,25,20,27,2.794,-0.1166,0.3163,0.8379,-0.4291
0.005,0.005,0.003,0,-2.1,0.1,0,2018,4,25,20,27,2.815,-0.1164,0.3162,0.838,-0.429
0.01,0.004,0,-0.1,-3.2,-0.2,0,2018,4,25,20,27,2.834,-0.1161,0.3163,0.8382,-0.4287
0.017,0.001,-0.001,-0.3,-2.1,-0.4,0,2018,4,25,20,27,2.871,-0.1157,0.3163,0.8384,-0.4283
0.02,0,-0.001,-0.5,-1.6,-0.6,0,2018,4,25,20,27,2.892,-0.1154,0.3165,0.8385,-0.4282
0.012,-0.005,0,-0.1,-1.1,-1.1,0,2018,4,25,20,27,2.896,-0.1152,0.3166,0.8386,-0.428
0.01,-0.001,0.004,0.1,0.2,-1.4,0,2018,4,25,20,27,2.915,-0.1149,0.3167,0.8385,-0.428
0.011,0.004,-0.006,0.6,0.6,-1.4,0,2018,4,25,20,27,2.936,-0.1146,0.3168,0.8384,-0.4283
0.007,0.009,-0.003,0.9,0,-1.4,0,2018,4,25,20,27,2.971,-0.1142,0.3169,0.8383,-0.4285
0.005,0.007,-0.005,1.2,0.3,-1.3,0,2018,4,25,20,27,2.991,-0.1138,0.3169,0.8384,-0.4285
0.012,0.01,0.006,1.3,1.1,-1.1,0,2018,4,25,20,27,2.995,-0.1134,0.3169,0.8383,-0.4287
0.013,0.01,0.008,1.2,0.8,-0.7,0,2018,4,25,20,27,3.033,-0.1131,0.3168,0.8382,-0.429
0.005,0.015,0.003,1.3,0.7,-0.6,0,2018,4,25,20,27,3.053,-0.1127,0.3169,0.8381,-0.4293
0.009,0.013,0.008,1.3,1,-0.4,0,2018,4,25,20,27,3.057,-0.1123,0.3168,0.838,-0.4296
0.006,0.016,0.001,1.4,0.4,0,0,2018,4,25,20,27,3.074,-0.112,0.3167,0.838,-0.4298
0.008,0.013,0.003,1.3,-0.2,0.3,0,2018,4,25,20,27,3.113,-0.1117,0.3164,0.8382,-0.4298
0.006,0.011,0.013,1.4,0.3,0.5,0,2018,4,25,20,27,3.134,-0.1114,0.3162,0.8382,-0.4299
0.007,0.016,0.007,1,0.6,1,0,2018,4,25,20,27,3.139,-0.1111,0.3158,0.8383,-0.4301
0.007,0.013,0.004,0.8,-0.2,1.2,0,2018,4,25,20,27,3.157,-0.1109,0.3155,0.8385,-0.4301
0.008,0.013,0.004,1.1,-1.3,1.2,0,2018,4,25,20,27,3.175,-0.1107,0.315,0.8388,-0.4299
0.004,0.005,0.004,0.9,-1.6,1,0,2018,4,25,20,27,3.195,-0.1104,0.3149,0.8389,-0.4299
0.003,0.007,0.009,1.1,-1.7,0.7,0,2018,4,25,20,27,3.215,-0.1101,0.3146,0.8391,-0.4297
0.006,0.011,0.013,0.6,-1.8,0.8,0,2018,4,25,20,27,3.237,-0.1098,0.3143,0.8393,-0.4295
0.008,0.004,0.003,0,-2.1,1,0,2018,4,25,20,27,3.258,-0.1095,0.3142,0.8395,-0.4293
0.01,0.002,0.004,0,-2.1,0.8,1023,2018,4,25,20,27,3.277,-0.1093,0.314,0.8398,-0.429
0.003,-0.001,-0.002,0,-3.1,0.3,1023,2018,4,25,20,27,3.316,-0.1091,0.3139,0.84,-0.4288
0.01,0.001,0.001,0.3,-3.5,0,1023,2018,4,25,20,27,3.336,-0.1088,0.3139,0.8402,-0.4283
0.01,-0.001,0.001,0.3,-2.3,-0.2,1023,2018,4,25,20,27,3.339,-0.1084,0.3138,0.8405,-0.4279
0.012,-0.003,0.004,0.8,-1.5,-0.4,1023,2018,4,25,20,27,3.375,-0.1081,0.3138,0.8406,-0.4278
0.014,0,0.005,1.4,-1.8,-0.5,1023,2018,4,25,20,27,3.396,-0.1076,0.3138,0.8408,-0.4277
0.011,0,0.005,1.5,-2,-0.5,1023,2018,4,25,20,27,3.4,-0.1071,0.3138,0.8408,-0.4277
0.007,0.003,0.009,1.7,-2.1,-0.5,1023,2018,4,25,20,27,3.421,-0.1065,0.3138,0.8409,-0.4277
0.004,0.001,0.005,1.7,-0.7,-0.7,1023,2018,4,25,20,27,3.442,-0.1061,0.3137,0.841,-0.4277
-0.003,0.009,0.009,1.6,-0.2,-0.7,1023,2018,4,25,20,27,3.457,-0.1057,0.3135,0.8411,-0.4278
0,0.014,0.012,1.3,-1,-0.3,0,2018,4,25,20,27,3.495,-0.1053,0.3135,0.8411,-0.4279
-0.003,0.01,0.011,1.1,-2.1,0,0,2018,4,25,20,27,3.514,-0.105,0.3133,0.8413,-0.4277
-0.007,0.009,0.008,0.9,-2.5,0,0,2018,4,25,20,27,3.518,-0.1047,0.3131,0.8416,-0.4273
-0.008,0.009,0.007,0.9,-2.1,-0.2,0,2018,4,25,20,27,3.539,-0.1045,0.3129,0.8418,-0.4271
0.004,0.009,0.004,0.5,-1.7,-0.3,0,2018,4,25,20,27,3.56,-0.1042,0.3128,0.8419,-0.4269
0.008,0.011,0.001,0.2,-1.8,-0.5,0,2018,4,25,20,27,3.597,-0.1038,0.3128,0.8421,-0.4267
0.011,0.013,0.009,0.1,-2.3,-0.2,0,2018,4,25,20,27,3.617,-0.1035,0.313,0.8421,-0.4267
0.011,0.005,0.006,0,-2.6,-0.2,0,2018,4,25,20,27,3.621,-0.1031,0.3131,0.8422,-0.4264
0.011,0.006,0.01,-0.1,-2.8,0,0,2018,4,25,20,27,3.642,-0.1028,0.3132,0.8423,-0.4262
0.01,0,0.004,0,-2.9,0,0,2018,4,25,20,27,3.662,-0.1025,0.3133,0.8424,-0.426
0.012,-0.004,0.004,0.2,-2,0,0,2018,4,25,20,27,3.677,-0.1022,0.3133,0.8426,-0.4258
0.015,0.006,0.002,0.4,-1.3,0,0,2018,4,25,20,27,3.715,-0.1019,0.3132,0.8427,-0.4257
0.013,0.003,0.002,0.6,-1.2,0,0,2018,4,25,20,27,3.735,-0.1015,0.3132,0.8428,-0.4256
0.009,0.003,0.003,0.5,-1,0,0,2018,4,25,20,27,3.74,-0.1012,0.313,0.843,-0.4254
0.007,0.002,0.006,0.1,-0.6,0,0,2018,4,25,20,27,3.759,-0.101,0.313,0.843,-0.4255
0.008,0.001,0.004,0,0,0,0,2018,4,25,20,27,3.78,-0.1008,0.313,0.8429,-0.4257
0.004,0.008,0.012,0,0,0,0,2018,4,25,20,27,3.817,-0.1007,0.3131,0.8427,-0.426
0.004,0.004,0.007,0,0,0,0,2018,4,25,20,27,3.839,-0.1007,0.313,0.8427,-0.4261
0.005,0.004,0.004,0,0,0,0,2018,4,25,20,27,3.843,-0.1006,0.313,0.8426,-0.4263
0,0.001,0.008,0,-1.3,0.5,0,2018,4,25,20,27,3.862,-0.1005,0.313,0.8426,-0.4263
0.002,0.004,0.006,0.3,-1.6,0.4,0,2018,4,25,20,27,3.879,-0.1004,0.3128,0.8428,-0.4261
0.004,0.003,0.002,0.7,-0.6,0.7,0,2018,4,25,20,27,3.917,-0.1002,0.3127,0.8429,-0.426
0.005,0.004,0.01,0.4,-0.1,0.8,0,2018,4,25,20,27,3.937,-0.1001,0.3125,0.8429,-0.4262
0.003,0.007,0.01,0.1,0,1,0,2018,4,25,20,27,3.941,-0.1,0.3123,0.843,-0.4262
0.002,0.001,0.005,0,0.4,0.8,1023,2018,4,25,20,27,3.96,-0.1,0.312,0.843,-0.4263
0.002,0.005,0.001,-0.2,0.6,0.5,1023,2018,4,25,20,27,3.999,-0.1001,0.3118,0.843,-0.4264
0.001,0.011,0.009,0,0,0,1023,2018,4,25,20,27,4.02,-0.1,0.3118,0.843,-0.4266
0.001,0.002,0.006,-0.1,-1.8,0,1023,2018,4,25,20,27,4.024,-0.0999,0.3118,0.843,-0.4265
0.003,0.008,0.002,0.1,-3,-0.5,1023,2018,4,25,20,27,4.042,-0.0997,0.3119,0.8432,-0.4263
0.01,0.002,0.003,0,-2.8,-1,1023,2018,4,25,20,27,4.081,-0.0993,0.3119,0.8434,-0.4259
0.014,0.004,0.003,0.1,-1.8,-1.3,1023,2018,4,25,20,27,4.1,-0.0989,0.3122,0.8434,-0.4257
0.009,0.002,-0.003,0.4,-1.3,-1.4,1023,2018,4,25,20,27,4.104,-0.0985,0.3124,0.8435,-0.4256
0.009,0.007,-0.004,0.7,-1.5,-1.3,1023,2018,4,25,20,27,4.126,-0.0981,0.3125,0.8436,-0.4253
0.005,0.012,-0.002,0.7,-1.9,-0.8,1023,2018,4,25,20,27,4.146,-0.0977,0.3126,0.8437,-0.4251
0.005,0.004,0,1,-2.2,-0.2,0,2018,4,25,20,27,4.161,-0.0973,0.3125,0.844,-0.4246
0,-0.001,-0.001,1.4,-1.6,0.2,0,2018,4,25,20,27,4.198,-0.097,0.3122,0.8443,-0.4243
0.003,-0.003,0.005,1.8,-0.7,0,0,2018,4,25,20,27,4.219,-0.0966,0.312,0.8445,-0.4242
0.004,0.001,0.012,1.8,0.5,-0.7,0,2018,4,25,20,27,4.224,-0.0962,0.3118,0.8446,-0.4243
0.003,0.007,0.01,1.7,1.5,-1,0,2018,4,25,20,27,4.243,-0.0959,0.3117,0.8445,-0.4247
0,0.013,0.011,1.2,1.7,-0.9,0,2018,4,25,20,27,4.278,-0.0956,0.3116,0.8444,-0.425
0,0.015,0.006,1,0.6,-0.4,0,2018,4,25,20,27,4.3,-0.0953,0.3116,0.8443,-0.4253
0.001,0.018,0.006,0.8,-0.9,0.2,0,2018,4,25,20,27,4.304,-0.0951,0.3115,0.8442,-0.4254
-0.003,0.011,0.007,0.4,-1.9,1.1,0,2018,4,25,20,27,4.343,-0.0949,0.3114,0.8444,-0.4254
0,0.012,0.011,0,-2.6,1.9,0,2018,4,25,20,27,4.361,-0.0949,0.311,0.8447,-0.425
0.002,0.004,0.007,-0.7,-3.2,2.8,0,2018,4,25,20,27,4.366,-0.0949,0.3107,0.845,-0.4246
0.003,-0.001,0.012,-0.7,-4.1,2.9,0,2018,4,25,20,27,4.381,-0.0949,0.3102,0.8455,-0.4239
0.004,0,0.01,-0.6,-4.6,2.5,0,2018,4,25,20,27,4.418,-0.0949,0.3099,0.8459,-0.4234
0.014,-0.003,0.006,-0.5,-3.4,1.9,0,2018,4,25,20,27,4.439,-0.0948,0.3097,0.8462,-0.423
0.014,-0.009,0.004,-0.2,-0.4,1.3,0,2018,4,25,20,27,4.443,-0.0947,0.3096,0.8463,-0.4229
0.017,-0.003,0.017,0.1,1.8,0.5,0,2018,4,25,20,27,4.48,-0.0947,0.3094,0.8462,-0.4232
0.02,0.003,0.01,0.3,1.3,-0.4,0,2018,4,25,20,27,4.51,-0.0946,0.3093,0.8461,-0.4235
0.017,0.01,0.009,0.3,-0.4,-0.5,0,2018,4,25,20,27,4.513,-0.0944,0.3093,0.846,-0.4238
0.016,0.01,0.005,0.4,-1.8,-0.3,0,2018,4,25,20,27,4.524,-0.094,0.3095,0.8459,-0.4238
0.014,0.006,0.003,0.4,-2.6,-0.2,0,2018,4,25,20,27,4.56,-0.0936,0.3096,0.846,-0.4236
0.011,-0.001,0,0.4,-2.3,-0.2,0,2018,4,25,20,27,4.58,-0.0932,0.3096,0.8462,-0.4233
0.005,-0.008,0.003,0.6,-2.1,-0.3,0,2018,4,25,20,27,4.581,-0.0929,0.3097,0.8463,-0.4232
0.007,-0.002,0.007,0.9,-0.7,-0.7,0,2018,4,25,20,27,4.619,-0.0926,0.3097,0.8463,-0.4232
0.01,0.004,0.01,0.8,-0.2,-0.9,0,2018,4,25,20,27,4.639,-0.0922,0.3097,0.8463,-0.4233
0.008,0.014,0.014,0.7,0,-0.6,0,2018,4,25,20,27,4.643,-0.0919,0.3097,0.8463,-0.4234
0.012,0.019,0.008,0.3,-0.6,0,1023,2018,4,25,20,27,4.679,-0.0916,0.3097,0.8463,-0.4235
0.004,0.011,0.003,0.1,-2.2,0.5,1023,2018,4,25,20,27,4.699,-0.0914,0.3096,0.8465,-0.4232
0,0.013,0.007,0.4,-3.4,0.6,1023,2018,4,25,20,27,4.705,-0.0912,0.3094,0.8468,-0.4228
0.003,0.006,0.007,0.8,-4.5,0.7,1023,2018,4,25,20,27,4.743,-0.0909,0.3092,0.8471,-0.4223
0.006,0.007,0.004,1.2,-4.9,0.7,1023,2018,4,25,20,27,4.764,-0.0904,0.3091,0.8476,-0.4216
0.003,0.002,0.006,1.2,-3.5,0.7,1023,2018,4,25,20,27,4.769,-0.09,0.309,0.8478,-0.4212
0.001,0.001,0.009,1.1,-0.6,0.7,1023,2018,4,25,20,27,4.808,-0.0897,0.3088,0.848,-0.4211
0.003,0.002,0.015,0.3,2.1,0.3,1023,2018,4,25,20,27,4.813,-0.0896,0.3085,0.848,-0.4214
-0.001,0.003,0.009,0,1.5,0.3,1023,2018,4,25,20,27,4.828,-0.0897,0.3084,0.8478,-0.4218
0.003,0.011,0.007,-0.3,0,0.9,0,2018,4,25,20,27,4.866,-0.0898,0.3083,0.8477,-0.422
0.006,0.011,0.015,-0.2,-1.5,1.1,0,2018,4,25,20,27,4.87,-0.0897,0.308,0.8479,-0.4218
0.007,0.006,0.008,-0.4,-2.9,1.5,0,2018,4,25,20,27,4.884,-0.0896,0.3079,0.8481,-0.4216
0.008,-0.004,0.01,-0.4,-2.9,1.4,0,2018,4,25,20,27,4.923,-0.0895,0.3077,0.8484,-0.4212
0.005,-0.008,0.008,-0.2,-2,1,0,2018,4,25,20,27,4.943,-0.0895,0.3075,0.8486,-0.4209
0.006,-0.004,0.008,-0.5,-0.7,0.4,0,2018,4,25,20,27,4.947,-0.0895,0.3074,0.8486,-0.4209
0.009,-0.003,0.008,-0.6,0.2,0,0,2018,4,25,20,27,4.983,-0.0895,0.3075,0.8485,-0.4211
0.007,0.005,0.006,0,0,0,0,2018,4,25,20,27,5.003,-0.0895,0.3075,0.8484,-0.4212
0.007,0.005,0.006,-0.1,-1.4,-0.2,0,2018,4,25,20,27,5.009,-0.0893,0.3076,0.8484,-0.4212
0.007,0.008,0.001,0,-2.1,0,0,2018,4,25,20,27,5.05,-0.0891,0.3077,0.8485,-0.421
0.007,0.003,0.006,0.2,-1.6,0.2,0,2018,4,25,20,27,5.069,-0.0888,0.3076,0.8487,-0.4208
0.003,-0.002,0.01,0,-1.2,0,0,2018,4,25,20,27,5.073,-0.0886,0.3076,0.8487,-0.4208
0,0.005,0.006,0,-1.9,-0.2,0,2018,4,25,20,27,5.088,-0.0885,0.3076,0.8488,-0.4205
0.001,0.007,0.005,-0.1,-3.5,-0.2,0,2018,4,25,20,27,5.108,-0.0883,0.3075,0.8492,-0.42
0.002,0.001,-0.004,0.1,-2.9,-0.3,0,2018,4,25,20,27,5.127,-0.088,0.3076,0.8494,-0.4195
0.007,0.002,0.003,0,0,0,0,2018,4,25,20,27,5.165,-0.0878,0.3077,0.8495,-0.4193
0.007,0.007,0.01,0.2,0.1,-0.7,0,2018,4,25,20,27,5.188,-0.0876,0.3077,0.8494,-0.4194
0.013,0.007,0.009,-0.1,-0.6,-0.3,0,2018,4,25,20,27,5.192,-0.0875,0.3078,0.8494,-0.4195
0.011,0.008,0.009,-0.2,-2,0,0,2018,4,25,20,27,5.21,-0.0872,0.3079,0.8494,-0.4195
0.007,0.006,0.011,0,-2.3,0.3,0,2018,4,25,20,27,5.231,-0.087,0.3078,0.8496,-0.4191
0.011,-0.003,0.008,0.1,-0.1,0.5,0,2018,4,25,20,27,5.269,-0.0868,0.3077,0.8498,-0.4189
0.009,0,0.008,0.3,0.9,0.3,0,2018,4,25,20,27,5.29,-0.0867,0.3076,0.8497,-0.4192
0.006,0,0.007,0.1,0.8,0.2,0,2018,4,25,20,27,5.294,-0.0867,0.3074,0.8497,-0.4193
0.004,0.004,0.005,0,0,0,0,2018,4,25,20,27,5.307,-0.0866,0.3074,0.8496,-0.4195
0.002,0.008,0.009,0.7,-0.1,0,0,2018,4,25,20,27,5.346,-0.0865,0.3074,0.8495,-0.4197
0.002,0.002,0.006,0.3,-0.5,0,1023,2018,4,25,20,27,5.367,-0.0864,0.3073,0.8495,-0.4198
0.001,0.008,0.003,0.3,-1,0.2,1023,2018,4,25,20,27,5.371,-0.0862,0.3073,0.8496,-0.4197
0.001,0.005,0.008,0.2,-0.7,0,1023,2018,4,25,20,27,5.41,-0.0861,0.3071,0.8498,-0.4195
0.003,0.008,0.011,-0.1,-0.6,0.5,1023,2018,4,25,20,27,5.43,-0.086,0.3071,0.8498,-0.4195
0.002,0.008,0.017,-0.2,-1.5,0.5,1023,2018,4,25,20,27,5.434,-0.0859,0.307,0.8499,-0.4194
0.004,0.009,0.011,-0.4,-2,0.6,1023,2018,4,25,20,27,5.451,-0.0859,0.3068,0.8501,-0.4191
0.003,0.008,0.008,-0.7,-1.9,1,1023,2018,4,25,20,27,5.49,-0.0858,0.3068,0.8502,-0.4188
0.001,0.004,0.008,-0.7,-0.6,1.4,1023,2018,4,25,20,27,5.512,-0.0859,0.3067,0.8504,-0.4187
0.005,0.007,0.004,-1,-0.1,1.2,1023,2018,4,25,20,27,5.516,-0.0861,0.3066,0.8504,-0.4187
0.005,0.003,0.004,-0.9,-0.6,1.3,0,2018,4,25,20,27,5.534,-0.0862,0.3065,0.8503,-0.4188
0.005,0.002,0.009,-0.9,-0.1,1.3,0,2018,4,25,20,27,5.553,-0.0863,0.3064,0.8504,-0.4187
0.009,0.002,0.008,-0.8,-0.1,1,0,2018,4,25,20,27,5.571,-0.0864,0.3062,0.8504,-0.4188
0.01,0,-0.003,-0.5,-0.7,0.8,0,2018,4,25,20,27,5.591,-0.0865,0.3061,0.8505,-0.4188
0.008,0.001,0,-0.3,-0.6,0.7,0,2018,4,25,20,27,5.627,-0.0864,0.306,0.8505,-0.4187
0.008,0.002,0.006,0,0.6,0.3,0,2018,4,25,20,27,5.647,-0.0864,0.306,0.8505,-0.4188
0.004,0.002,0,0,1.2,0.1,0,2018,4,25,20,27,5.652,-0.0863,0.306,0.8504,-0.4191
0,0,0.002,0,2.9,-0.2,0,2018,4,25,20,27,5.673,-0.0864,0.3059,0.8503,-0.4194
0.005,0,0.007,-0.1,4.8,-0.4,0,2018,4,25,20,27,5.692,-0.0866,0.3058,0.8499,-0.4201
0.012,0.002,0.011,-0.6,5.5,-0.2,0,2018,4,25,20,27,5.729,-0.0868,0.3058,0.8494,-0.421
0.009,0.007,0.013,-0.5,3.9,0,0,2018,4,25,20,27,5.749,-0.087,0.3058,0.8491,-0.4217
0.007,0.013,0.011,-0.3,2,0,0,2018,4,25,20,27,5.755,-0.0871,0.3057,0.8488,-0.4222
0.008,0.011,0.006,0,0,0,0,2018,4,25,20,27,5.772,-0.0871,0.3058,0.8487,-0.4225
0.01,0.012,0.004,-0.3,-2.1,0.7,0,2018,4,25,20,27,5.808,-0.087,0.3057,0.8488,-0.4223
0.008,0.003,0.005,-0.6,-3.2,0.7,0,2018,4,25,20,27,5.829,-0.0868,0.3057,0.8491,-0.4218
0.007,-0.002,0.007,-0.6,-3.2,0.4,0,2018,4,25,20,27,5.833,-0.0867,0.3056,0.8493,-0.4214
0.006,0.004,0.007,-0.4,-4,0.3,0,2018,4,25,20,27,5.871,-0.0865,0.3056,0.8496,-0.4208
0.006,0,0.006,0,-4,0.1,0,2018,4,25,20,27,5.893,-0.0862,0.3056,0.8499,-0.4203
0.003,0.004,0.006,0.2,-3.4,0.2,0,2018,4,25,20,27,5.897,-0.086,0.3056,0.8502,-0.4199
0.001,0.001,0.007,0.1,-1.9,0.3,0,2018,4,25,20,27,5.915,-0.0858,0.3056,0.8503,-0.4196
0,0.007,0.011,0.1,-1.2,0.3,0,2018,4,25,20,27,5.951,-0.0857,0.3056,0.8504,-0.4195
0,0.009,0.013,0,-0.9,0.5,0,2018,4,25,20,27,5.971,-0.0856,0.3054,0.8506,-0.4193
0.003,0.013,0.01,-0.1,-0.6,0.9,0,2018,4,25,20,27,5.975,-0.0856,0.3053,0.8506,-0.4193
0.005,0.01,0.016,-0.7,-0.4,1.4,0,2018,4,25,20,27,5.992,-0.0856,0.3052,0.8507,-0.4193
0.004,0.012,0.012,-0.7,-1,1.6,0,2018,4,25,20,27,6.031,-0.0857,0.3049,0.8508,-0.4191
0.006,0.001,0.009,-1.2,-0.6,1.6,1023,2018,4,25,20,27,6.05,-0.0859,0.3047,0.851,-0.4189
0.005,-0.002,0.006,-1.5,-0.1,1.4,1023,2018,4,25,20,27,6.054,-0.0861,0.3045,0.8511,-0.4188
0.004,0,0.005,-1.5,-0.7,1,1023,2018,4,25,20,27,6.074,-0.0864,0.3044,0.8511,-0.4187
0.006,0.001,0.006,-1.8,-0.9,0.7,1023,2018,4,25,20,27,6.095,-0.0865,0.3044,0.8511,-0.4186
0.02,0.009,0.005,-1.7,-1.2,0.7,1023,2018,4,25,20,27,6.116,-0.0866,0.3044,0.8513,-0.4183
0.017,-0.001,0.004,-1.3,-1.6,0.8,1023,2018,4,25,20,27,6.153,-0.0867,0.3044,0.8514,-0.4181
0.009,-0.003,0.003,-1,-1.7,0.7,1023,2018,4,25,20,27,6.174,-0.0867,0.3045,0.8515,-0.4179
0.005,-0.005,0.002,-0.5,-1.8,0.7,1023,2018,4,25,20,27,6.178,-0.0866,0.3045,0.8515,-0.4178
0.005,-0.003,0,-0.4,-0.4,0.5,1023,2018,4,25,20,27,6.197,-0.0867,0.3045,0.8516,-0.4177
0.004,0.002,0,-0.1,0.1,0.6,1023,2018,4,25,20,27,6.218,-0.0867,0.3043,0.8516,-0.4177
0.01,0.002,0.001,0.2,0,0.8,0,2018,4,25,20,27,6.257,-0.0866,0.3042,0.8516,-0.4177
0.013,0.006,0.004,0.6,-1,1.3,0,2018,4,25,20,27,6.276,-0.0865,0.304,0.8517,-0.4177
0.015,0.003,0.004,1,-1.9,1.1,0,2018,4,25,20,27,6.281,-0.0862,0.3039,0.8518,-0.4177
0.011,0.001,0.001,1.2,-0.6,1,0,2018,4,25,20,27,6.295,-0.0859,0.3036,0.852,-0.4176
0.006,0,0.007,1.3,0.1,0.5,0,2018,4,25,20,27,6.334,-0.0856,0.3034,0.852,-0.4177
0.005,0.001,0.01,1.1,1.1,0.3,0,2018,4,25,20,27,6.355,-0.0854,0.3032,0.852,-0.4179
0.006,0.01,0.013,0.6,1.4,0.3,0,2018,4,25,20,27,6.359,-0.0853,0.3031,0.8519,-0.4183
0.002,0.012,0.005,0.2,0.6,0.6,0,2018,4,25,20,27,6.379,-0.0853,0.3029,0.8518,-0.4186
0,0.011,0.003,0,-0.6,0.9,0,2018,4,25,20,27,6.397,-0.0853,0.3027,0.852,-0.4184
-0.005,0.008,0.002,0,-1,0.8,0,2018,4,25,20,27,6.434,-0.0853,0.3025,0.8521,-0.4182
0,0.004,0.009,0,-1.2,0.8,0,2018,4,25,20,27,6.456,-0.0853,0.3023,0.8523,-0.4181
0.004,0.004,0.009,-0.5,-1.3,0.6,0,2018,4,25,20,27,6.46,-0.0852,0.3022,0.8524,-0.4179
0.007,0.003,0.011,-0.9,-1.3,0.7,0,2018,4,25,20,27,6.478,-0.0852,0.3022,0.8524,-0.4178
0.009,0,0.006,-1,-0.6,0.9,0,2018,4,25,20,27,6.496,-0.0853,0.3021,0.8525,-0.4178
0.009,-0.007,0.004,-0.7,0.9,0.6,0,2018,4,25,20,27,6.517,-0.0854,0.3021,0.8524,-0.4179
0.01,-0.007,0.005,-0.1,2.2,0.5,0,2018,4,25,20,27,6.557,-0.0855,0.302,0.8523,-0.4182
0.011,-0.004,0.011,0.3,2.5,0.5,0,2018,4,25,20,27,6.577,-0.0856,0.3019,0.8521,-0.4187
0.014,0.012,0.006,0.7,1.7,0.9,0,2018,4,25,20,27,6.581,-0.0855,0.3017,0.852,-0.4191
0.011,0.005,0.004,0.8,0.6,0.8,0,2018,4,25,20,27,6.598,-0.0853,0.3016,0.8519,-0.4194
0.003,0.004,0.003,0.8,-0.3,0.7,0,2018,4,25,20,27,6.637,-0.0852,0.3013,0.8519,-0.4195
0.002,0.004,0.003,1.3,-1.2,0.4,0,2018,4,25,20,27,6.657,-0.0849,0.3012,0.852,-0.4195
0.006,0.001,0.007,1.1,-1.4,0.3,0,2018,4,25,20,27,6.662,-0.0847,0.301,0.8522,-0.4194
0.004,0.003,0.011,0.6,-0.9,0.2,0,2018,4,25,20,27,6.681,-0.0845,0.3008,0.8524,-0.4191
0.002,0.004,0.008,0.5,-0.6,0,0,2018,4,25,20,27,6.697,-0.0843,0.3007,0.8524,-0.4191
0,0.008,0.005,0.5,-0.1,0.2,0,2018,4,25,20,27,6.718,-0.0841,0.3007,0.8524,-0.4193
0.002,0.008,0.009,0.6,0,0.5,1023,2018,4,25,20,27,6.757,-0.0841,0.3006,0.8524,-0.4194
0.001,0.01,0.015,0.3,-0.4,0.8,1023,2018,4,25,20,27,6.776,-0.084,0.3004,0.8524,-0.4194
0.002,0.006,0.01,0.2,-0.5,1,1023,2018,4,25,20,27,6.78,-0.0839,0.3002,0.8525,-0.4194
-0.004,0.007,0.014,0,-0.4,0.7,1023,2018,4,25,20,27,6.8,-0.084,0.3,0.8525,-0.4195
0.001,0.005,0.014,-0.2,-0.5,0.8,1023,2018,4,25,20,27,6.82,-0.084,0.2998,0.8527,-0.4193
0.001,0.004,0.004,-0.5,-0.6,0.7,1023,2018,4,25,20,27,6.84,-0.084,0.2996,0.8528,-0.4192
0,0.007,0.009,-0.2,-0.9,0.9,1023,2018,4,25,20,27,6.86,-0.084,0.2995,0.8529,-0.4191
0.001,0.001,0.008,-0.4,-1,0.9,1023,2018,4,25,20,27,6.882,-0.0841,0.2994,0.853,-0.419
0.007,0.002,0.002,-0.2,-1,1.1,1023,2018,4,25,20,27,6.902,-0.0841,0.2993,0.8531,-0.4189
0.009,0,0.006,-0.2,-0.6,1,0,2018,4,25,20,27,6.939,-0.0841,0.2991,0.8532,-0.4187
0.011,-0.001,0.007,-0.1,-0.7,1.1,0,2018,4,25,20,27,6.959,-0.0841,0.2989,0.8533,-0.4187
0.005,-0.003,0.006,0,-0.9,1.1,0,2018,4,25,20,27,6.963,-0.084,0.2988,0.8533,-0.4187
0.01,-0.002,0.008,0.3,0,0.8,0,2018,4,25,20,27,6.98,-0.084,0.2986,0.8534,-0.4188
0.005,-0.001,0.005,0,0,0,0,2018,4,25,20,27,7.019,-0.0839,0.2985,0.8533,-0.4189
0.006,0,0.007,0.5,0.2,0.2,0,2018,4,25,20,27,7.04,-0.0837,0.2984,0.8533,-0.4191
0.006,0,0.004,0.6,0.1,0.2,0,2018,4,25,20,27,7.044,-0.0836,0.2983,0.8533,-0.4192
0.007,0.002,0.005,0.8,0,0,0,2018,4,25,20,27,7.062,-0.0834,0.2982,0.8533,-0.4193
0.008,0.004,0.01,0.6,0.4,0,0,2018,4,25,20,27,7.082,-0.0832,0.2979,0.8535,-0.4192
0.007,0.009,0.01,0.6,0.3,-0.2,0,2018,4,25,20,27,7.104,-0.083,0.298,0.8533,-0.4196
0.007,0.013,0.007,0,0,0,0,2018,4,25,20,27,7.14,-0.0829,0.298,0.8532,-0.4197
0,0.008,0.005,0.2,-0.6,0.3,0,2018,4,25,20,27,7.16,-0.0828,0.2981,0.8532,-0.4198
0.001,0.007,0.002,0,-1,0.5,0,2018,4,25,20,27,7.164,-0.0827,0.298,0.8532,-0.4197
0.002,0.001,0.003,-0.2,-0.6,0.6,0,2018,4,25,20,27,7.179,-0.0827,0.2978,0.8534,-0.4196
0.006,-0.001,0.008,0,-0.2,0.5,0,2018,4,25,20,27,7.217,-0.0827,0.2978,0.8534,-0.4197
0.004,0.003,0.005,-0.1,0.1,0.7,0,2018,4,25,20,27,7.239,-0.0827,0.2976,0.8534,-0.4197
0.009,0.004,0.005,0,0,0.7,0,2018,4,25,20,27,7.244,-0.0826,0.2976,0.8533,-0.4198
0.005,0.007,0.007,0.1,-0.6,0.7,0,2018,4,25,20,27,7.282,-0.0826,0.2974,0.8534,-0.4198
0.007,0.005,0.007,0,-1,0.8,0,2018,4,25,20,27,7.301,-0.0825,0.2972,0.8535,-0.4197
0.01,0.002,0.006,0,-0.9,0.8,0,2018,4,25,20,27,7.305,-0.0824,0.2971,0.8537,-0.4196
0.008,0.001,0.005,-0.1,-0.6,0.5,0,2018,4,25,20,27,7.323,-0.0823,0.297,0.8537,-0.4195
0.006,-0.002,0.008,0,0,0,0,2018,4,25,20,27,7.343,-0.0822,0.2969,0.8537,-0.4196
0.005,0.001,0.006,0.1,0.5,0.2,0,2018,4,25,20,27,7.38,-0.0821,0.2969,0.8537,-0.4197
0.006,0.007,0.006,0,0,0,0,2018,4,25,20,27,7.403,-0.082,0.2969,0.8536,-0.4199
0.006,0.005,0.009,-0.1,-0.7,0.7,1023,2018,4,25,20,27,7.406,-0.082,0.297,0.8536,-0.42
0.008,0.005,0.008,-0.3,-0.4,0.7,1023,2018,4,25,20,27,7.421,-0.0819,0.2969,0.8535,-0.4201
0.004,0.004,0.006,-0.1,-0.6,0.7,1023,2018,4,25,20,27,7.458,-0.0819,0.2969,0.8535,-0.4202
0.002,0,0.007,0,-0.7,0.5,1023,2018,4,25,20,27,7.479,-0.0819,0.2968,0.8536,-0.4201
0.004,-0.002,0.001,-0.1,-0.2,0.5,1023,2018,4,25,20,27,7.483,-0.0819,0.2966,0.8537,-0.4199
0.003,0.006,0.005,-0.1,0,0.7,1023,2018,4,25,20,27,7.504,-0.0819,0.2965,0.8538,-0.4198
0.009,0.005,0.012,-0.2,-0.3,0.7,1023,2018,4,25,20,27,7.525,-0.0819,0.2964,0.8538,-0.4199
0.002,0.003,0.005,-0.1,0,0.8,1023,2018,4,25,20,27,7.544,-0.0819,0.2962,0.8539,-0.4198
0,0.002,0.007,0.1,1.2,1.1,0,2018,4,25,20,27,7.564,-0.0819,0.296,0.854,-0.4199
-0.003,0.006,0.01,0,1.4,1.3,0,2018,4,25,20,27,7.604,-0.0821,0.2958,0.8539,-0.4201
0.003,0.005,0.005,-0.1,0.9,1.4,0,2018,4,25,20,27,7.624,-0.0822,0.2955,0.8538,-0.4204
0.004,0.01,0.007,-0.4,-0.2,1.9,0,2018,4,25,20,27,7.628,-0.0823,0.2954,0.8538,-0.4206
0.007,0.004,0,-0.6,-1,2,0,2018,4,25,20,27,7.65,-0.0824,0.2952,0.8539,-0.4205
0.009,-0.003,0.003,-0.5,-0.9,1.8,0,2018,4,25,20,27,7.668,-0.0825,0.2948,0.8541,-0.4202
0.005,-0.004,0.008,0,-0.1,1.2,0,2018,4,25,20,27,7.686,-0.0825,0.2946,0.8542,-0.4202
0.005,-0.001,0.012,0.4,1.4,1.1,0,2018,4,25,20,27,7.705,-0.0826,0.2943,0.8543,-0.4203
0.008,0.002,0.01,0.4,2.6,1.5,0,2018,4,25,20,27,7.725,-0.0827,0.2941,0.8541,-0.4208
0.01,-0.006,0.027,0.7,2.3,1.8,0,2018,4,25,20,27,7.746,-0.0828,0.2937,0.854,-0.4213
0.014,-0.05,0.052,0.3,8.3,0.2,0,2018,4,25,20,27,7.765,-0.083,0.2933,0.8535,-0.4225
0.014,-0.056,-0.011,-0.9,18.9,-2,0,2018,4,25,20,27,7.785,-0.0837,0.2932,0.8523,-0.4249
-0.003,-0.065,0.004,0,30.5,-4.3,0,2018,4,25,20,27,7.824,-0.0849,0.2932,0.8502,-0.4288
-0.009,-0.062,0.043,0.5,40.1,-6.5,0,2018,4,25,20,27,7.845,-0.0864,0.2932,0.8471,-0.4345
-0.044,-0.086,0.134,-1.1,49.4,-10.4,0,2018,4,25,20,27,7.849,-0.0884,0.2934,0.8429,-0.442
-0.073,-0.141,0.223,-9.5,56.8,-15.8,0,2018,4,25,20,27,7.865,-0.091,0.2949,0.8381,-0.4496
-0.118,-0.142,0.255,-20.1,62.2,-21.6,0,2018,4,25,20,27,7.884,-0.0947,0.2979,0.8322,-0.4578
-0.163,-0.133,0.332,-33.1,38.4,-30.6,0,2018,4,25,20,27,7.904,-0.0992,0.303,0.8262,-0.4643
-0.187,-0.115,0.306,-45.6,29.8,-30,0,2018,4,25,20,27,7.926,-0.1042,0.3098,0.8213,-0.4673
-0.199,-0.165,0.273,-56.5,41.1,-32.4,0,2018,4,25,20,27,7.945,-0.1109,0.3179,0.8159,-0.4699
-0.216,-0.192,0.287,-67,71.4,-33.8,0,2018,4,25,20,27,7.983,-0.1202,0.3265,0.8082,-0.475
-0.248,-0.196,0.289,-78.9,92.3,-38.6,0,2018,4,25,20,27,8.003,-0.1323,0.3358,0.7975,-0.4833
-0.251,-0.144,0.276,-91.5,93.6,-42.5,0,2018,4,25,20,27,8.007,-0.1463,0.3464,0.7851,-0.4921
-0.251,-0.11,0.25,-104,81.1,-44.5,0,2018,4,25,20,27,8.043,-0.1612,0.3583,0.7723,-0.4991
-0.234,-0.121,0.163,-114.5,72.6,-46.7,1023,2018,4,25,20,27,8.064,-0.1767,0.3718,0.7596,-0.5035
-0.202,-0.176,0.088,-121.4,82,-48.8,1023,2018,4,25,20,27,8.068,-0.1931,0.386,0.7459,-0.5071
-0.17,-0.157,0.047,-127.3,94.4,-51.3,1023,2018,4,25,20,27,8.089,-0.2108,0.4004,0.7301,-0.5118
-0.151,-0.104,0.005,-132.6,103.2,-50.7,1023,2018,4,25,20,27,8.109,-0.2297,0.4147,0.7125,-0.5171
-0.129,-0.049,-0.034,-135.4,97.9,-49.6,1023,2018,4,25,20,27,8.125,-0.2498,0.4285,0.694,-0.5217
-0.115,-0.043,-0.017,-137.6,79.6,-48.8,1023,2018,4,25,20,27,8.165,-0.269,0.4425,0.6762,-0.5237
-0.122,-0.033,-0.018,-142,67.7,-48,1023,2018,4,25,20,27,8.187,-0.2873,0.4571,0.6591,-0.5234
-0.124,0.002,-0.046,-147.1,58.9,-47.7,1023,2018,4,25,20,27,8.191,-0.3051,0.4721,0.6423,-0.5209
-0.116,0.012,-0.077,-152,52.9,-46.5,1023,2018,4,25,20,27,8.209,-0.322,0.4882,0.6249,-0.5171
-0.121,-0.007,-0.081,-156.6,61.1,-44.9,1023,2018,4,25,20,27,8.227,-0.3392,0.504,0.6067,-0.5126
-0.11,0.004,-0.075,-161.2,76.4,-42.3,0,2018,4,25,20,27,8.267,-0.358,0.5185,0.587,-0.5082
-0.101,0.016,-0.091,-166.1,92,-37.5,0,2018,4,25,20,27,8.288,-0.3787,0.5316,0.5653,-0.5043
-0.079,0.028,-0.111,-167.3,96.9,-31.7,0,2018,4,25,20,27,8.292,-0.4008,0.5431,0.5422,-0.5002
-0.077,0.013,-0.132,-162.7,82.6,-27.4,0,2018,4,25,20,27,8.31,-0.4223,0.5536,0.5197,-0.495
-0.091,-0.03,-0.128,-157.7,57.8,-25.8,0,2018,4,25,20,27,8.331,-0.441,0.5644,0.499,-0.4876
-0.083,-0.012,-0.144,-153.7,27.6,-26.3,0,2018,4,25,20,27,8.351,-0.4563,0.5764,0.4807,-0.4778
-0.07,0.032,-0.219,-148.2,-5.8,-26.2,0,2018,4,25,20,27,8.372,-0.4676,0.5902,0.465,-0.4654
-0.062,-0.022,-0.268,-140.1,-29.1,-27.8,0,2018,4,25,20,27,8.389,-0.4749,0.6055,0.4519,-0.451
-0.061,-0.072,-0.373,-129.3,-25.5,-31.9,0,2018,4,25,20,27,8.425,-0.48,0.6207,0.4398,-0.4367
-0.03,0.01,-0.445,-111.8,-8.8,-31.6,0,2018,4,25,20,27,8.445,-0.4848,0.6336,0.4274,-0.425
0.019,0.095,-0.467,-91,-0.2,-28,0,2018,4,25,20,27,8.448,-0.4897,0.6435,0.4157,-0.416
0.053,0.16,-0.461,-69.9,-8.3,-24.2,0,2018,4,25,20,27,8.487,-0.4933,0.6514,0.4061,-0.409
0.086,0.188,-0.493,-51.5,-22.3,-19.9,0,2018,4,25,20,27,8.507,-0.494,0.6586,0.3996,-0.4029
0.075,0.209,-0.575,-32.9,-22.8,-15,0,2018,4,25,20,27,8.51,-0.493,0.6648,0.3956,-0.3979
0.064,0.3,-0.69,-11.6,-20.1,-8.8,0,2018,4,25,20,27,8.55,-0.4912,0.669,0.3938,-0.3949
0.062,0.393,-0.76,12,-16.5,0.2,0,2018,4,25,20,27,8.571,-0.4887,0.6708,0.3946,-0.394
0.021,0.428,-0.778,35.4,-15.5,9.1,0,2018,4,25,20,27,8.574,-0.4856,0.6701,0.3983,-0.3954
-0.05,0.469,-0.772,57.6,-26.8,16.4,0,2018,4,25,20,27,8.589,-0.4808,0.6676,0.4052,-0.3984
-0.08,0.504,-0.767,78.4,-49.5,27.9,0,2018,4,25,20,27,8.608,-0.473,0.6644,0.4162,-0.4018
-0.132,0.528,-0.777,98.8,-76.7,42.8,0,2018,4,25,20,27,8.628,-0.4615,0.6607,0.432,-0.4045
-0.197,0.521,-0.807,117.8,-105.9,60.7,0,2018,4,25,20,27,8.669,-0.4462,0.6563,0.4531,-0.4058
-0.283,0.44,-0.839,138,-134.9,79.6,0,2018,4,25,20,27,8.687,-0.4269,0.6507,0.4796,-0.4052
-0.351,0.4,-0.845,159,-150.2,102.5,0,2018,4,25,20,27,8.69,-0.404,0.6428,0.5109,-0.4029
-0.443,0.37,-0.841,179.5,-155.3,127.7,1023,2018,4,25,20,27,8.729,-0.3794,0.6307,0.5462,-0.3998
-0.533,0.255,-0.841,197.1,-143.5,152.7,1023,2018,4,25,20,27,8.75,-0.354,0.6133,0.5841,-0.3964
-0.591,0.238,-0.769,216.5,-112.4,180.1,1023,2018,4,25,20,27,8.753,-0.3303,0.589,0.6228,-0.3949
-0.673,0.196,-0.683,231.9,-89.6,206.9,1023,2018,4,25,20,27,8.79,-0.3086,0.5571,0.6616,-0.3956
-0.739,-0.027,-0.903,252.8,-89.3,229,1023,2018,4,25,20,27,8.811,-0.2865,0.5191,0.701,-0.396
-1.094,-0.107,-0.972,286.1,-115.6,244.7,1023,2018,4,25,20,27,8.813,-0.2603,0.4753,0.7413,-0.3958
-1.313,-0.501,-0.547,322.3,-137.4,253.5,1023,2018,4,25,20,27,8.836,-0.2265,0.4265,0.7829,-0.392
-1.075,-1.109,-0.068,345.6,-91.8,216,1023,2018,4,25,20,27,8.852,-0.1869,0.3749,0.8199,-0.39
-3.015,0.281,10.433,321.1,-22.3,158.6,1023,2018,4,25,20,27,8.874,-0.1474,0.3257,0.8435,-0.4007
1.289,-2.522,0.32,31.6,-994.1,-49.8,0,2018,4,25,20,27,8.893,-0.1126,0.3272,0.8906,-0.2947
-0.064,-2.981,-0.001,-8.8,-135.2,68.6,0,2018,4,25,20,27,8.913,-0.0783,0.3318,0.9179,-0.2028
-0.425,-1.655,-0.027,-3.2,513.9,-37.3,0,2018,4,25,20,27,8.932,-0.0976,0.3279,0.9068,-0.246
-0.417,0.152,0.324,52.1,351.6,-27.3,0,2018,4,25,20,27,8.969,-0.118,0.3216,0.8821,-0.323
0.041,-0.16,0.151,54.4,59.3,-24,0,2018,4,25,20,27,8.99,-0.1184,0.3183,0.8712,-0.3542
-0.071,-0.575,0.36,8.5,93.7,-48.3,0,2018,4,25,20,27,8.994,-0.1074,0.3234,0.8637,-0.3711
-0.122,-0.278,0.234,-18.6,204.2,-61.2,0,2018,4,25,20,27,9.033,-0.1134,0.3292,0.85,-0.3951
-0.115,0.03,0.189,-40.7,253.4,-60.4,0,2018,4,25,20,27,9.055,-0.1272,0.3356,0.8288,-0.4291
-0.144,0.119,0.16,-56,251.8,-51.9,0,2018,4,25,20,27,9.059,-0.1449,0.3413,0.8046,-0.4636
-0.206,0.13,0.104,-66.3,245.3,-39.6,0,2018,4,25,20,27,9.073,-0.1646,0.3461,0.7794,-0.4955
-0.202,0.191,0.047,-72.9,231.4,-26.1,0,2018,4,25,20,27,9.093,-0.1855,0.3495,0.7539,-0.5243
-0.148,0.243,-0.03,-79,219.7,-10,0,2018,4,25,20,27,9.116,-0.2074,0.3513,0.7292,-0.5492
-0.122,0.198,-0.082,-85.2,232.1,6.3,0,2018,4,25,20,27,9.135,-0.2313,0.351,0.7039,-0.5723
-0.08,0.201,-0.111,-88.1,243.3,21,0,2018,4,25,20,27,9.155,-0.2578,0.3482,0.6764,-0.5955
-0.046,0.187,-0.144,-88.8,239.5,34.7,0,2018,4,25,20,27,9.177,-0.2858,0.343,0.6479,-0.617
-0.022,0.194,-0.183,-83.5,206.7,44.7,0,2018,4,25,20,27,9.195,-0.313,0.3364,0.6211,-0.6348
-0.028,0.059,-0.215,-77.6,182.1,50.5,0,2018,4,25,20,27,9.217,-0.3382,0.3296,0.5974,-0.648
-0.018,0.011,-0.253,-67.3,164.8,54.7,0,2018,4,25,20,27,9.237,-0.3615,0.322,0.5759,-0.6586
-0.022,-0.019,-0.202,-59.6,146.2,55.3,0,2018,4,25,20,27,9.275,-0.3827,0.3139,0.5569,-0.6669
-0.014,-0.154,-0.133,-59.4,154.5,52.6,0,2018,4,25,20,27,9.279,-0.4024,0.3059,0.539,-0.6736
-0.027,-0.213,-0.101,-63.1,177.1,47.7,0,2018,4,25,20,27,9.295,-0.4223,0.2972,0.5184,-0.6815
-0.025,-0.11,-0.169,-61.4,187.5,44.4,0,2018,4,25,20,27,9.314,-0.4425,0.2872,0.4944,-0.6908
0.01,-0.111,-0.17,-60.2,164.3,41.1,0,2018,4,25,20,27,9.335,-0.4613,0.2772,0.4704,-0.6992
0.01,-0.114,-0.096,-56.4,132.2,40.4,1023,2018,4,25,20,27,9.374,-0.478,0.2689,0.4496,-0.7049
0.071,-0.021,-0.045,-55.6,98.3,39.7,1023,2018,4,25,20,27,9.393,-0.4921,0.2637,0.4327,-0.7077
0.079,0.01,-0.049,-54.5,70.5,40.3,1023,2018,4,25,20,27,9.397,-0.5045,0.2611,0.4196,-0.7078
0.044,-0.164,-0.125,-56.4,57.8,38.3,1023,2018,4,25,20,27,9.416,-0.516,0.2602,0.4088,-0.7062
0.108,-0.108,-0.144,-48.6,86.4,32.5,1023,2018,4,25,20,27,9.438,-0.5275,0.2571,0.3961,-0.7061
0.124,-0.082,-0.111,-40.2,56,26,1023,2018,4,25,20,27,9.458,-0.5374,0.2539,0.3841,-0.7064
0.158,-0.074,-0.125,-28.7,24.8,21,1023,2018,4,25,20,27,9.477,-0.5443,0.253,0.3771,-0.7052
0.163,-0.011,-0.102,-19.8,10.3,19.4,1023,2018,4,25,20,27,9.498,-0.549,0.2531,0.3738,-0.7033
0.168,0.034,-0.07,-15.9,7.4,21.3,1023,2018,4,25,20,27,9.542,-0.553,0.2532,0.372,-0.7011
0.161,0.013,-0.078,-14.5,11.5,22.9,1023,2018,4,25,20,27,9.544,-0.5571,0.2527,0.3705,-0.6988
0.176,-0.024,-0.114,-11.6,25.1,22.8,0,2018,4,25,20,27,9.555,-0.5615,0.2511,0.368,-0.6972
0.144,-0.091,-0.108,-7.9,41.3,19.4,0,2018,4,25,20,27,9.591,-0.5662,0.2477,0.3637,-0.6968
0.124,-0.203,-0.037,-5.1,67.8,12.1,0,2018,4,25,20,27,9.611,-0.5708,0.2422,0.3571,-0.6984
0.097,-0.187,0.034,-2,103,4.8,0,2018,4,25,20,27,9.615,-0.5756,0.2335,0.3462,-0.7029
0.076,-0.05,0.092,-1.3,124.2,2.8,0,2018,4,25,20,27,9.652,-0.5805,0.2225,0.3314,-0.7096
0.052,0.044,0.067,-0.2,113,3.5,0,2018,4,25,20,27,9.672,-0.5854,0.2103,0.3157,-0.7164
0.035,0.052,0.033,1.4,93.3,3.7,0,2018,4,25,20,27,9.676,-0.5896,0.1998,0.302,-0.7218
0.006,0.055,0.075,3.3,79,2.8,0,2018,4,25,20,27,9.716,-0.593,0.1902,0.2908,-0.7263
-0.001,0.08,0.115,2.8,62.3,1.4,0,2018,4,25,20,27,9.735,-0.5957,0.1818,0.2811,-0.7299
0.005,0.121,0.1,2.3,44.2,0.6,0,2018,4,25,20,27,9.737,-0.5979,0.1755,0.2732,-0.7328
0.003,0.124,0.069,2.5,26.1,0.6,0,2018,4,25,20,27,9.776,-0.5993,0.171,0.2676,-0.7347
0.019,0.113,0.05,3.4,15,-0.3,0,2018,4,25,20,27,9.778,-0.6001,0.1679,0.2642,-0.736
0.027,0.09,0.033,5.4,6.7,-1.9,0,2018,4,25,20,27,9.797,-0.6003,0.1662,0.2619,-0.737
0.029,0.041,0.021,7.3,2.4,-4.2,0,2018,4,25,20,27,9.835,-0.5999,0.1651,0.2611,-0.7379
0.034,0.016,0.017,9.5,0.8,-7.4,0,2018,4,25,20,27,9.855,-0.5989,0.1644,0.2609,-0.7389
0.038,0.006,0.017,11.1,-0.7,-9.9,0,2018,4,25,20,27,9.857,-0.5974,0.1639,0.2611,-0.7402
0.046,0.001,0.008,12,-1.8,-12,0,2018,4,25,20,27,9.894,-0.5955,0.1636,0.2615,-0.7417
0.042,-0.002,-0.001,12.6,-0.4,-13.2,0,2018,4,25,20,27,9.913,-0.5933,0.1634,0.2619,-0.7433
0.04,-0.008,-0.002,12.8,0.4,-13.2,0,2018,4,25,20,27,9.919,-0.591,0.1629,0.2624,-0.7451
0.033,0,-0.014,12.2,4.8,-12.8,0,2018,4,25,20,27,9.954,-0.5888,0.1623,0.2625,-0.7469
0.037,0.001,-0.011,11.4,7.9,-11.5,0,2018,4,25,20,27,9.975,-0.5868,0.1612,0.2621,-0.7489
0.035,0.019,-0.014,10.6,10.2,-9.2,0,2018,4,25,20,27,9.977,-0.5852,0.1596,0.2613,-0.7507
0.029,0.016,0,8.9,10.6,-6.7,0,2018,4,25,20,27,10.015,-0.5842,0.158,0.26,-0.7523
0.021,0.015,0.014,6.1,8.4,-4.4,0,2018,4,25,20,27,10.034,-0.5835,0.1566,0.2589,-0.7535
0.021,0.024,0.015,3.3,4.4,-1.4,1023,2018,4,25,20,27,10.036,-0.5832,0.1558,0.2577,-0.7543
0.024,0.014,0.004,0.4,0.7,0.7,1023,2018,4,25,20,27,10.073,-0.5834,0.1558,0.2569,-0.7545
0.025,0.007,-0.001,-1.8,-0.4,1.9,1023,2018,4,25,20,27,10.093,-0.5837,0.1561,0.2565,-0.7543
0.025,0.008,-0.012,-2.7,0.6,2.5,1023,2018,4,25,20,27,10.099,-0.5842,0.1568,0.2558,-0.754
0.027,0.011,-0.013,-3.1,2.6,2.7,1023,2018,4,25,20,27,10.14,-0.5848,0.1574,0.2549,-0.7537
0.031,0.016,-0.004,-3.3,4.2,2.5,1023,2018,4,25,20,27,10.159,-0.5855,0.1578,0.2536,-0.7535
0.025,0.017,0.007,-2.9,4.3,2.4,1023,2018,4,25,20,27,10.163,-0.5863,0.158,0.2522,-0.7533
0.028,0.019,0.002,-2.7,3.7,2.1,1023,2018,4,25,20,27,10.182,-0.5869,0.1583,0.2509,-0.7532
0.024,0.021,0.01,-2.1,2.9,1.5,1023,2018,4,25,20,27,10.203,-0.5875,0.1584,0.2497,-0.7531
0.02,0.018,0.008,-1.5,1.8,0.6,1023,2018,4,25,20,27,10.223,-0.5879,0.1586,0.2487,-0.7531
0.024,0.026,0.006,-0.9,1.2,0,0,2018,4,25,20,27,10.245,-0.5882,0.1587,0.248,-0.7531
0.022,0.023,0.009,0,0,0,0,2018,4,25,20,27,10.265,-0.5883,0.1588,0.2475,-0.7532
0.023,0.02,0.009,0,-0.5,-0.5,0,2018,4,25,20,27,10.282,-0.5883,0.1589,0.2472,-0.7533
0.029,0.016,0,0.4,-1.2,-0.5,0,2018,4,25,20,27,10.302,-0.5883,0.1591,0.247,-0.7533
0.03,0.014,0,0.8,-1.8,-0.3,0,2018,4,25,20,27,10.34,-0.5882,0.1596,0.2468,-0.7533
0.029,0.011,-0.001,0.7,-1.9,-0.3,0,2018,4,25,20,27,10.362,-0.5882,0.16,0.2466,-0.7533
0.028,0.012,-0.005,0.8,-1.5,-0.1,0,2018,4,25,20,27,10.366,-0.5882,0.1604,0.2466,-0.7532
0.023,0.004,-0.001,0.8,-0.6,-0.1,0,2018,4,25,20,27,10.384,-0.5881,0.1606,0.2466,-0.7532
0.024,0.011,0.005,0,0,0,0,2018,4,25,20,27,10.404,-0.5882,0.1609,0.2463,-0.7532
0.021,0.011,-0.008,0,0,0,0,2018,4,25,20,27,10.443,-0.5882,0.1609,0.2463,-0.7532
0.024,0.014,-0.004,0,0,0,0,2018,4,25,20,27,10.448,-0.5882,0.1609,0.2461,-0.7532
0.018,0.013,0.004,0.6,0.4,0.6,0,2018,4,25,20,27,10.464,-0.5884,0.1611,0.2458,-0.7532
0.022,0.014,-0.002,0.2,0.1,0.9,0,2018,4,25,20,27,10.48,-0.5886,0.1611,0.2455,-0.7531
0.021,0.009,0.001,0,-0.1,0.8,0,2018,4,25,20,27,10.517,-0.5887,0.1611,0.2454,-0.753
0.021,0.011,0,0.1,0.4,0.5,0,2018,4,25,20,27,10.538,-0.5889,0.1612,0.2451,-0.753
0.023,0.011,-0.006,0.2,0.4,0.5,0,2018,4,25,20,27,10.541,-0.589,0.1613,0.2449,-0.7529
0.024,0.007,-0.003,0.6,0.6,0.5,0,2018,4,25,20,27,10.58,-0.5891,0.1613,0.2447,-0.7529
0.02,0.012,0,0.4,0.9,0.5,0,2018,4,25,20,27,10.601,-0.5892,0.1613,0.2443,-0.7529
0.022,0.014,0.001,0.6,0.7,0.3,0,2018,4,25,20,27,10.604,-0.5894,0.1614,0.2439,-0.7529
0.018,0.009,0,0.4,0.4,0.5,0,2018,4,25,20,27,10.641,-0.5896,0.1615,0.2436,-0.7529
0.021,0.007,0,0.3,0.7,0.6,0,2018,4,25,20,27,10.662,-0.5897,0.1614,0.2434,-0.7528
0.015,0.011,-0.004,0.1,1.1,0.7,0,2018,4,25,20,27,10.666,-0.5899,0.1614,0.2431,-0.7528
0.018,0.013,-0.003,0.1,1,0.8,0,2018,4,25,20,27,10.682,-0.5901,0.1614,0.2428,-0.7527
0.015,0.013,0.003,-0.1,1.1,0.8,1023,2018,4,25,20,27,10.72,-0.5904,0.1615,0.2423,-0.7527
0.018,0.009,-0.001,-0.2,0.9,0.9,1023,2018,4,25,20,27,10.74,-0.5906,0.1615,0.2419,-0.7526
0.02,0.013,0,0,0.7,0.8,1023,2018,4,25,20,27,10.744,-0.5909,0.1615,0.2416,-0.7525
0.021,0.01,0.002,0.1,0.4,0.7,1023,2018,4,25,20,27,10.783,-0.5911,0.1614,0.2414,-0.7524
0.021,0.012,0,0,-0.1,0.8,1023,2018,4,25,20,27,10.803,-0.5912,0.1615,0.2411,-0.7524
0.02,0.012,-0.001,0.1,-0.1,0.8,1023,2018,4,25,20,27,10.807,-0.5914,0.1617,0.2409,-0.7523
0.02,0.008,-0.005,0.6,0.3,0.6,1023,2018,4,25,20,27,10.827,-0.5915,0.1617,0.2408,-0.7522
0.016,0.01,-0.001,0.4,0.5,0.5,1023,2018,4,25,20,27,10.847,-0.5916,0.1616,0.2407,-0.7522
0.015,0.011,-0.004,0.3,0.5,0.3,1023,2018,4,25,20,27,10.867,-0.5917,0.1615,0.2406,-0.7521
0.018,0.009,-0.003,0,0,0,0,2018,4,25,20,27,10.888,-0.5917,0.1614,0.2406,-0.7521
0.017,0.012,0,0.1,0.5,0.5,0,2018,4,25,20,27,10.926,-0.5919,0.1614,0.2404,-0.7521
0.017,0.011,0,0.2,0.4,0.5,0,2018,4,25,20,27,10.947,-0.5921,0.1614,0.2401,-0.752
0.021,0.007,0.008,0.2,0.3,1,0,2018,4,25,20,27,10.951,-0.5923,0.1616,0.2397,-0.7519
0.019,0.012,0.003,0.3,-0.1,1,0,2018,4,25,20,27,10.965,-0.5925,0.1616,0.2395,-0.7518
0.016,0.011,-0.007,0.4,-0.1,0.8,0,2018,4,25,20,27,11.004,-0.5927,0.1616,0.2395,-0.7517
0.011,0.007,0,0.4,0,0.8,0,2018,4,25,20,27,11.023,-0.5928,0.1615,0.2396,-0.7516
0.011,0.01,0.001,0.2,0.1,0.7,0,2018,4,25,20,27,11.028,-0.5929,0.1615,0.2395,-0.7516
0.013,0.012,-0.002,0.1,0.3,0.5,0,2018,4,25,20,27,11.065,-0.593,0.1614,0.2394,-0.7515
0.012,0.012,-0.001,0,0.4,0.6,0,2018,4,25,20,27,11.085,-0.5932,0.1613,0.2392,-0.7515
0.013,0.015,-0.003,0,0.2,0.8,0,2018,4,25,20,27,11.089,-0.5933,0.1612,0.2391,-0.7514
0.014,0.012,0.001,-0.3,-0.1,0.7,0,2018,4,25,20,27,11.127,-0.5935,0.1613,0.2389,-0.7513
0.012,0.008,-0.004,-0.1,0,0.6,0,2018,4,25,20,27,11.146,-0.5937,0.1615,0.2387,-0.7512
0.017,0.011,0.001,0,0.1,0.5,0,2018,4,25,20,27,11.151,-0.5939,0.1615,0.2385,-0.7511
0.015,0.011,-0.003,0,0,0,0,2018,4,25,20,27,11.171,-0.594,0.1616,0.2384,-0.7511
0.016,0.013,-0.003,-0.1,0.1,0.5,0,2018,4,25,20,27,11.193,-0.594,0.1615,0.2383,-0.7511
0.014,0.012,-0.001,0,0,0,0,2018,4,25,20,27,11.206,-0.5941,0.1615,0.2383,-0.751
0.015,0.008,-0.001,0.2,-0.2,0.5,0,2018,4,25,20,27,11.245,-0.5941,0.1615,0.2383,-0.751
0.013,0.01,0,0.3,0,0.8,0,2018,4,25,20,27,11.266,-0.5943,0.1615,0.2381,-0.7509
0.015,0.01,0.003,0.5,-0.1,0.8,0,2018,4,25,20,27,11.27,-0.5945,0.1616,0.238,-0.7508
0.015,0.008,-0.002,0.6,-0.6,0.7,0,2018,4,25,20,27,11.289,-0.5947,0.1618,0.2378,-0.7506
0.01,0.008,-0.004,0.6,-0.1,0.7,0,2018,4,25,20,27,11.308,-0.5948,0.1618,0.2378,-0.7505
0.012,0.011,-0.005,0.6,0,0.5,0,2018,4,25,20,27,11.347,-0.5949,0.1619,0.2376,-0.7505
0.009,0.009,0,0.7,0.1,0.3,0,2018,4,25,20,27,11.37,-0.595,0.1618,0.2376,-0.7504
0.01,0.01,-0.003,0.5,0,0.5,0,2018,4,25,20,27,11.374,-0.5952,0.1617,0.2375,-0.7504
0.014,0.008,-0.002,0.2,-0.3,0.7,1023,2018,4,25,20,27,11.393,-0.5952,0.1616,0.2376,-0.7503
0.01,0.004,0,0.3,-0.5,0.4,1023,2018,4,25,20,27,11.41,-0.5953,0.1617,0.2375,-0.7503
0.01,0.009,0.001,0.2,-0.1,0.5,1023,2018,4,25,20,27,11.428,-0.5954,0.1616,0.2375,-0.7502
0.01,0.006,-0.005,0,0,0,1023,2018,4,25,20,27,11.448,-0.5954,0.1616,0.2375,-0.7502
0.014,0.01,0,0,0,0,1023,2018,4,25,20,27,11.485,-0.5954,0.1615,0.2376,-0.7502
0.008,0.009,-0.004,0.3,0,0.5,1023,2018,4,25,20,27,11.505,-0.5955,0.1615,0.2375,-0.7501
0.011,0.009,0,0.2,-0.1,0.7,1023,2018,4,25,20,27,11.508,-0.5956,0.1615,0.2374,-0.7501
0.01,0.012,-0.003,0,0,0,1023,2018,4,25,20,27,11.529,-0.5957,0.1615,0.2374,-0.75
0.01,0.01,-0.003,0,0,0,1023,2018,4,25,20,27,11.549,-0.5958,0.1614,0.2374,-0.75
0.01,0.007,-0.003,0,0,0,1023,2018,4,25,20,27,11.584,-0.5958,0.1614,0.2374,-0.7499
0.014,0.005,-0.001,0,0,0,0,2018,4,25,20,27,11.603,-0.5958,0.1613,0.2374,-0.7499
0.015,0.007,0,0.5,0.3,0.6,0,2018,4,25,20,27,11.608,-0.5959,0.1613,0.2374,-0.7499
0.017,0.006,-0.006,0.6,-0.1,0.5,0,2018,4,25,20,27,11.645,-0.596,0.1613,0.2373,-0.7499
0.015,0.008,-0.002,0.6,0.1,0.5,0,2018,4,25,20,27,11.666,-0.5961,0.1613,0.2372,-0.7498
0.015,0.006,-0.004,0.8,0.3,0.4,0,2018,4,25,20,27,11.669,-0.5962,0.1612,0.2373,-0.7498
0.016,0.005,-0.007,1.1,1.2,0.2,0,2018,4,25,20,27,11.705,-0.5962,0.161,0.2372,-0.7498
0.014,0.005,-0.008,1.2,2.2,0.2,0,2018,4,25,20,27,11.726,-0.5962,0.1606,0.2372,-0.7498
0.016,0.007,-0.002,1.4,2.3,0.5,0,2018,4,25,20,27,11.731,-0.5963,0.1602,0.237,-0.7499
0.007,0.006,-0.001,1.2,2,0.8,0,2018,4,25,20,27,11.751,-0.5965,0.1598,0.2367,-0.75
0,0.008,-0.002,0.7,1.2,1.1,0,2018,4,25,20,27,11.772,-0.5967,0.1596,0.2365,-0.7499
-0.002,0.008,0,0.2,1.4,1.1,0,2018,4,25,20,27,11.792,-0.5969,0.1592,0.2365,-0.7498
-0.002,0.012,0.004,0,1.5,0.9,0,2018,4,25,20,27,11.813,-0.5972,0.1588,0.2363,-0.7498
0.003,0.016,-0.008,-0.6,1.2,0.9,0,2018,4,25,20,27,11.848,-0.5975,0.1587,0.2359,-0.7497
0.007,0.018,-0.002,-0.6,0.9,0.7,0,2018,4,25,20,27,11.868,-0.5977,0.1586,0.2356,-0.7496
0.012,0.016,0.001,-0.5,-0.1,0.7,0,2018,4,25,20,27,11.875,-0.5979,0.1586,0.2353,-0.7495
0.018,0.011,-0.003,-0.2,-0.6,0.5,0,2018,4,25,20,27,11.891,-0.5981,0.1588,0.2351,-0.7494
0.02,0.01,-0.002,-0.2,-1.3,0.5,0,2018,4,25,20,27,11.91,-0.5982,0.159,0.2351,-0.7493
0.017,0.004,-0.008,0.1,-1.3,0.1,0,2018,4,25,20,27,11.93,-0.5982,0.1591,0.2353,-0.7492
0.017,0,-0.004,0.3,-0.9,0,0,2018,4,25,20,27,11.971,-0.5982,0.1593,0.2354,-0.7492
0.017,0.001,-0.008,0,0,0,0,2018,4,25,20,27,11.991,-0.5982,0.1595,0.2354,-0.7491
0.014,0.004,-0.007,0.6,0,0.2,0,2018,4,25,20,27,11.995,-0.5981,0.1594,0.2355,-0.7491
0.007,0.01,-0.003,0,0,0,0,2018,4,25,20,27,12.016,-0.5982,0.1594,0.2355,-0.7491
0.002,0.01,-0.003,0,-0.2,0.5,0,2018,4,25,20,27,12.033,-0.5982,0.1593,0.2355,-0.7491
0.003,0.012,-0.003,-0.3,-0.1,0.7,0,2018,4,25,20,27,12.07,-0.5984,0.1593,0.2354,-0.749
0.001,0.015,-0.001,-0.1,0.1,0.7,0,2018,4,25,20,27,12.089,-0.5986,0.1593,0.2353,-0.7489
0.003,0.014,0.003,0,0,0,1023,2018,4,25,20,27,12.093,-0.5986,0.1591,0.2353,-0.7489
0.004,0.009,0.004,-0.1,-0.7,0.2,1023,2018,4,25,20,27,12.111,-0.5987,0.159,0.2353,-0.7488
0.006,0.009,0.002,-0.1,-1.5,-0.1,1023,2018,4,25,20,27,12.151,-0.5987,0.159,0.2354,-0.7488
0.007,0.006,0,0,-1.9,-0.3,1023,2018,4,25,20,27,12.17,-0.5986,0.1592,0.2357,-0.7487
0.009,0.005,-0.005,0,-1.8,-0.3,1023,2018,4,25,20,27,12.173,-0.5986,0.1594,0.2358,-0.7487
0.007,0.005,-0.005,-0.2,-1.5,-0.3,1023,2018,4,25,20,27,12.211,-0.5985,0.1597,0.236,-0.7486
0.009,0.003,-0.008,-0.4,-1.2,-0.5,1023,2018,4,25,20,27,12.23,-0.5984,0.1598,0.2361,-0.7486
0.009,0.001,-0.003,-0.5,-0.6,-0.2,1023,2018,4,25,20,27,12.233,-0.5984,0.16,0.2363,-0.7486
0.009,0.002,-0.003,-0.6,-0.2,0.5,1023,2018,4,25,20,27,12.269,-0.5984,0.1601,0.2363,-0.7485
0.009,0.005,0.001,-1,-0.2,0.8,1023,2018,4,25,20,27,12.289,-0.5986,0.1602,0.2362,-0.7484
0.008,0.005,-0.004,-1,-0.4,0.9,0,2018,4,25,20,27,12.296,-0.5987,0.1604,0.236,-0.7483
0.011,0.008,-0.002,-1,-0.5,0.5,0,2018,4,25,20,27,12.333,-0.5989,0.1606,0.2359,-0.7481
0.011,0.01,-0.001,-1.1,-0.5,0.3,0,2018,4,25,20,27,12.354,-0.599,0.1609,0.2357,-0.748
0.011,0.01,-0.006,-1,-0.6,0,0,2018,4,25,20,27,12.357,-0.5991,0.1609,0.2358,-0.748
0.007,0.01,0,-1,-0.5,0,0,2018,4,25,20,27,12.374,-0.5991,0.1612,0.2356,-0.7479
0.006,0.009,-0.002,-0.9,-0.4,-0.2,0,2018,4,25,20,27,12.396,-0.5992,0.1613,0.2356,-0.7479
0.006,0.009,-0.001,-0.6,-0.4,-0.2,0,2018,4,25,20,27,12.415,-0.5992,0.1615,0.2354,-0.7478
0.006,0.006,-0.001,-0.6,-0.8,0,0,2018,4,25,20,27,12.436,-0.5992,0.1616,0.2354,-0.7478
0.009,0.005,-0.005,-0.4,-1,0.1,0,2018,4,25,20,27,12.455,-0.5993,0.1618,0.2354,-0.7477
0.011,0.004,0.003,-0.4,-0.8,0.1,0,2018,4,25,20,27,12.475,-0.5993,0.162,0.2355,-0.7476
0.012,0.008,-0.007,-0.4,-0.5,0,0,2018,4,25,20,27,12.497,-0.5994,0.1622,0.2354,-0.7476
0.007,0.007,-0.006,0,0,0,0,2018,4,25,20,27,12.516,-0.5994,0.1623,0.2354,-0.7475
0.011,0.006,-0.001,0,0,0,0,2018,4,25,20,27,12.555,-0.5994,0.1623,0.2354,-0.7475
0.013,0.007,-0.006,0,-0.7,0.2,0,2018,4,25,20,27,12.575,-0.5994,0.1623,0.2354,-0.7475
0.011,0.005,-0.004,-0.1,-1.2,0.1,0,2018,4,25,20,27,12.579,-0.5995,0.1626,0.2353,-0.7474
0.01,0.002,-0.008,-0.2,-1.1,0.2,0,2018,4,25,20,27,12.598,-0.5995,0.1628,0.2354,-0.7473
0.008,0.006,-0.004,0,-0.7,0.1,0,2018,4,25,20,27,12.618,-0.5995,0.1629,0.2355,-0.7473
0.004,0.005,-0.003,0,0,0,0,2018,4,25,20,27,12.655,-0.5995,0.1629,0.2355,-0.7473
0.002,0.008,-0.002,0,0,0,0,2018,4,25,20,27,12.674,-0.5996,0.1629,0.2355,-0.7472
0.007,0.012,-0.005,-0.3,0,0.5,0,2018,4,25,20,27,12.678,-0.5996,0.1628,0.2355,-0.7472
0.003,0.009,0.002,-0.5,-0.3,0.5,0,2018,4,25,20,27,12.698,-0.5997,0.1628,0.2354,-0.7471
0.009,0.005,-0.004,-0.6,-0.5,0.3,0,2018,4,25,20,27,12.715,-0.5997,0.1627,0.2356,-0.7471
0.006,0.004,-0.002,0,0,0,0,2018,4,25,20,27,12.757,-0.5998,0.1628,0.2356,-0.747
0.008,0.01,-0.007,0,0,0,0,2018,4,25,20,27,12.777,-0.5999,0.163,0.2355,-0.747
0.01,0.008,-0.003,0,0,0,0,2018,4,25,20,27,12.781,-0.5999,0.1629,0.2355,-0.7469
0.009,0.005,-0.006,0,-0.4,0.5,0,2018,4,25,20,27,12.797,-0.6,0.163,0.2354,-0.7469
0.009,0.003,-0.004,0,0,0,1023,2018,4,25,20,27,12.817,-0.6,0.163,0.2355,-0.7469
0.007,0.003,0,0,0,0,1023,2018,4,25,20,27,12.837,-0.6,0.163,0.2355,-0.7469
0.007,0.005,-0.001,0,0,0,1023,2018,4,25,20,27,12.877,-0.6,0.1629,0.2355,-0.7469
0.004,0.004,-0.002,-0.4,0,0.5,1023,2018,4,25,20,27,12.896,-0.6,0.1629,0.2355,-0.7469
0.007,0.008,-0.005,-0.5,0,0.5,1023,2018,4,25,20,27,12.9,-0.6001,0.1629,0.2355,-0.7468
0.008,0.009,-0.002,-0.2,0.3,0.8,1023,2018,4,25,20,27,12.92,-0.6002,0.1629,0.2354,-0.7467
0.009,0.012,0,-0.1,0.6,0.9,1023,2018,4,25,20,27,12.939,-0.6004,0.163,0.2351,-0.7466
0.009,0.009,-0.006,0.1,0.6,0.9,1023,2018,4,25,20,27,12.977,-0.6006,0.1628,0.2351,-0.7466
0.01,0.008,-0.002,0.1,0,1,1023,2018,4,25,20,27,12.998,-0.6007,0.1628,0.235,-0.7465
0.01,0.002,0.002,0.3,-0.3,0.8,1023,2018,4,25,20,27,13.002,-0.6009,0.1629,0.2349,-0.7464
0.007,0.004,0,0.2,-0.4,0.7,0,2018,4,25,20,27,13.04,-0.601,0.163,0.2348,-0.7463
0.006,0.007,-0.007,0,0,0,0,2018,4,25,20,27,13.061,-0.601,0.163,0.2349,-0.7462
0.008,0.009,-0.006,0,0,0,0,2018,4,25,20,27,13.065,-0.6011,0.163,0.2349,-0.7462
0.006,0.009,-0.002,0,0,0,0,2018,4,25,20,27,13.101,-0.6011,0.163,0.2349,-0.7462
0.004,0.009,-0.007,0.1,0.3,0.5,0,2018,4,25,20,27,13.105,-0.6011,0.163,0.2348,-0.7462
0.008,0.007,-0.005,0.1,0,0.8,0,2018,4,25,20,27,13.122,-0.6013,0.1629,0.2347,-0.7461
0.006,0.008,0.002,-0.1,-0.1,1,0,2018,4,25,20,27,13.14,-0.6014,0.163,0.2346,-0.746
0.006,0.005,0.001,0,0.1,1.1,0,2018,4,25,20,27,13.177,-0.6016,0.163,0.2346,-0.7459
0.01,0.006,-0.004,0.1,0.4,0.8,0,2018,4,25,20,27,13.2,-0.6017,0.1629,0.2346,-0.7458
0.009,0.009,-0.004,0.1,0.5,0.6,0,2018,4,25,20,27,13.204,-0.6018,0.1627,0.2346,-0.7457
0.007,0.006,0,0,0,0,0,2018,4,25,20,27,13.223,-0.6019,0.1626,0.2346,-0.7457
0.01,0.007,-0.004,0.3,0,0.7,0,2018,4,25,20,27,13.242,-0.6019,0.1624,0.2347,-0.7457
0.007,0.006,0,0.3,-0.1,0.7,0,2018,4,25,20,27,13.281,-0.602,0.1624,0.2346,-0.7456
0.004,0.006,0,0.2,0,0.5,0,2018,4,25,20,27,13.301,-0.6021,0.1624,0.2347,-0.7456
0.008,0.004,-0.005,0.1,0,0.7,0,2018,4,25,20,27,13.305,-0.6022,0.1622,0.2348,-0.7455
0.007,0.005,-0.003,0,0.1,0.7,0,2018,4,25,20,27,13.321,-0.6023,0.1622,0.2348,-0.7454
0.006,0.007,-0.007,-0.1,0.3,0.9,0,2018,4,25,20,27,13.358,-0.6024,0.1621,0.2348,-0.7454
0.008,0.01,-0.003,-0.2,0.2,0.8,0,2018,4,25,20,27,13.379,-0.6026,0.1623,0.2345,-0.7452
0.008,0.008,0,-0.2,0.4,0.8,0,2018,4,25,20,27,13.383,-0.6027,0.1623,0.2344,-0.7452
0.007,0.007,-0.002,-0.1,0.1,0.7,0,2018,4,25,20,27,13.421,-0.6029,0.1623,0.2342,-0.7451
0.01,0.006,0,0,0,0.5,0,2018,4,25,20,27,13.442,-0.6031,0.1625,0.2339,-0.745
0.009,0.006,0.001,0.1,-0.1,0.8,0,2018,4,25,20,27,13.446,-0.6032,0.1625,0.2339,-0.7449
0.009,0.007,-0.002,0.2,-0.2,0.6,0,2018,4,25,20,27,13.463,-0.6033,0.1625,0.2339,-0.7448
0.008,0.006,-0.002,0.4,-0.2,0.5,0,2018,4,25,20,27,13.484,-0.6033,0.1624,0.234,-0.7448
0.003,0.007,-0.003,0,0,0,0,2018,4,25,20,27,13.503,-0.6033,0.1624,0.234,-0.7448
0.003,0.004,-0.001,0.3,-0.1,0.5,0,2018,4,25,20,27,13.52,-0.6034,0.1624,0.2339,-0.7448
0.005,0.006,-0.004,0.1,0,0.5,1023,2018,4,25,20,27,13.558,-0.6034,0.1624,0.2339,-0.7447
0.003,0.008,-0.001,0,-0.1,0.6,1023,2018,4,25,20,27,13.578,-0.6035,0.1624,0.2339,-0.7447
0.007,0.009,-0.005,-0.2,-0.2,0.6,1023,2018,4,25,20,27,13.581,-0.6036,0.1623,0.2339,-0.7446
0.007,0.008,-0.005,-0.5,-0.2,0.6,1023,2018,4,25,20,27,13.619,-0.6037,0.1623,0.2339,-0.7445
0.008,0.005,-0.005,-0.4,-0.2,0.5,1023,2018,4,25,20,27,13.64,-0.6037,0.1623,0.234,-0.7445
0.01,0.007,-0.001,0,0.1,0.5,1023,2018,4,25,20,27,13.642,-0.6038,0.1624,0.234,-0.7444
0.009,0.007,-0.005,-0.1,-0.2,0.5,1023,2018,4,25,20,27,13.681,-0.6039,0.1624,0.2339,-0.7444
0.009,0.007,-0.003,0.1,-0.4,0.6,1023,2018,4,25,20,27,13.702,-0.6039,0.1624,0.2339,-0.7443
0.01,0.005,0,0.3,-0.4,0.7,1023,2018,4,25,20,27,13.706,-0.604,0.1625,0.2338,-0.7443
0.008,0.007,-0.004,0.3,-0.8,0.5,1023,2018,4,25,20,27,13.743,-0.604,0.1626,0.2339,-0.7442
0.004,0.008,-0.004,0.1,-0.6,0.3,1023,2018,4,25,20,27,13.764,-0.6041,0.1627,0.2339,-0.7441
0.006,0.002,-0.006,0,0,0,0,2018,4,25,20,27,13.768,-0.6041,0.1627,0.2339,-0.7441
0.008,0.009,-0.005,0,0,0,0,2018,4,25,20,27,13.79,-0.6041,0.1627,0.2339,-0.7441
0.002,0.009,-0.001,0,0,0,0,2018,4,25,20,27,13.81,-0.6042,0.1627,0.2339,-0.7441
0.002,0.007,0,0,-0.5,0.5,0,2018,4,25,20,27,13.825,-0.6043,0.1628,0.2337,-0.744
0.005,0.006,-0.005,-0.1,-0.6,0.6,0,2018,4,25,20,27,13.844,-0.6043,0.1629,0.2337,-0.7439
0.005,0.003,-0.006,-0.1,-0.2,0.6,0,2018,4,25,20,27,13.864,-0.6044,0.163,0.2337,-0.7438
0.006,0.007,-0.008,0,0,0.6,0,2018,4,25,20,27,13.902,-0.6045,0.163,0.2337,-0.7437
0.009,0.008,-0.008,-0.1,0,0.5,0,2018,4,25,20,27,13.923,-0.6046,0.1629,0.2338,-0.7437
0.007,0.008,-0.005,0,0,0,0,2018,4,25,20,27,13.927,-0.6046,0.1629,0.2337,-0.7437
0.007,0.007,-0.001,0,0,0,0,2018,4,25,20,27,13.946,-0.6046,0.1629,0.2337,-0.7437
0.005,0.003,0.002,0,0,0,0,2018,4,25,20,27,13.966,-0.6047,0.1629,0.2336,-0.7437
0.003,0.002,-0.004,0,0,0,0,2018,4,25,20,27,14.005,-0.6047,0.1629,0.2336,-0.7437
0.008,0.002,0,0,0,0,0,2018,4,25,20,27,14.027,-0.6047,0.1629,0.2336,-0.7436
0.008,0.004,-0.008,0,-0.1,0.5,0,2018,4,25,20,27,14.031,-0.6048,0.163,0.2336,-0.7436
0.009,0.004,-0.005,0,0.2,0.8,0,2018,4,25,20,27,14.048,-0.6049,0.163,0.2336,-0.7435
0.006,0.005,-0.003,0,0.4,0.7,0,2018,4,25,20,27,14.065,-0.605,0.163,0.2335,-0.7435
0.007,0.009,-0.006,0.1,0,0.8,0,2018,4,25,20,27,14.104,-0.605,0.1628,0.2335,-0.7434
0.003,0.008,-0.002,0,-0.4,0.7,0,2018,4,25,20,27,14.123,-0.6052,0.1629,0.2335,-0.7433
0.005,0.007,0,0.1,-0.5,0.6,0,2018,4,25,20,27,14.128,-0.6053,0.163,0.2334,-0.7432
0.005,0.005,-0.001,0.2,-0.4,0.5,0,2018,4,25,20,27,14.167,-0.6054,0.1631,0.2334,-0.7431
0.005,0.008,-0.004,0,0,0,0,2018,4,25,20,27,14.187,-0.6054,0.1631,0.2334,-0.7431
0.007,0.008,-0.002,0,0,0,0,2018,4,25,20,27,14.191,-0.6054,0.1631,0.2333,-0.7431
0.007,0.008,-0.004,0,0,0,0,2018,4,25,20,27,14.21,-0.6054,0.163,0.2333,-0.7432
0.007,0.008,-0.003,0.2,-0.4,0.5,0,2018,4,25,20,27,14.23,-0.6055,0.1631,0.2333,-0.7431
0.007,0.006,-0.004,0.1,-0.1,0.7,0,2018,4,25,20,27,14.246,-0.6055,0.1629,0.2335,-0.7431
0.006,0.004,0,0.1,0.1,0.7,0,2018,4,25,20,27,14.267,-0.6056,0.1629,0.2336,-0.743
0.007,0.006,-0.004,0,0.1,0.7,1023,2018,4,25,20,27,14.288,-0.6056,0.1628,0.2336,-0.7429
0.006,0.005,-0.003,-0.1,0,0.7,1023,2018,4,25,20,27,14.325,-0.6057,0.1627,0.2337,-0.7429
0.007,0.006,-0.006,-0.1,-0.2,0.5,1023,2018,4,25,20,27,14.347,-0.6058,0.1628,0.2336,-0.7428
0.008,0.005,-0.007,-0.1,-0.2,0.6,1023,2018,4,25,20,27,14.351,-0.6059,0.163,0.2334,-0.7427
0.005,0.002,-0.005,0,0.3,0.6,1023,2018,4,25,20,27,14.369,-0.606,0.1631,0.2332,-0.7426
0.004,0.01,-0.004,0,0.4,0.7,1023,2018,4,25,20,27,14.389,-0.6061,0.163,0.2332,-0.7426
0.005,0.005,-0.002,0,1.3,0.9,1023,2018,4,25,20,27,14.409,-0.6063,0.163,0.2329,-0.7426
0.008,0.012,-0.004,0.2,1,0.7,1023,2018,4,25,20,27,14.447,-0.6065,0.1629,0.2327,-0.7425
0.006,0.006,-0.002,0.2,-0.1,0.8,1023,2018,4,25,20,27,14.467,-0.6066,0.1629,0.2325,-0.7425
0.006,0.006,-0.003,0.1,-0.9,0.6,1023,2018,4,25,20,27,14.471,-0.6067,0.163,0.2324,-0.7424
0.005,0.006,-0.007,0.2,-0.7,0.5,1023,2018,4,25,20,27,14.508,-0.6068,0.1631,0.2324,-0.7423
0.005,0.006,-0.008,0,0,0,0,2018,4,25,20,27,14.528,-0.6068,0.1631,0.2325,-0.7422
0.003,0.009,-0.008,0,0,0,0,2018,4,25,20,27,14.532,-0.6068,0.1631,0.2325,-0.7422
0.003,0.009,-0.009,0,0,0.5,0,2018,4,25,20,27,14.574,-0.6068,0.1631,0.2325,-0.7423
0.004,0.004,-0.004,0,-0.2,0.6,0,2018,4,25,20,27,14.576,-0.6069,0.1631,0.2324,-0.7422
0.003,0.007,-0.008,0,-0.3,0.7,0,2018,4,25,20,27,14.59,-0.6071,0.1632,0.2324,-0.7421
0.007,0.003,-0.002,-0.2,-0.1,0.7,0,2018,4,25,20,27,14.612,-0.6072,0.1632,0.2324,-0.742
0.008,0.006,-0.002,0,0.1,0.9,0,2018,4,25,20,27,14.629,-0.6073,0.1633,0.2323,-0.7419
0.009,0.007,-0.003,-0.1,0.1,0.7,0,2018,4,25,20,27,14.651,-0.6074,0.1634,0.2322,-0.7418
0.007,0.007,-0.002,0.1,0,0.5,0,2018,4,25,20,27,14.689,-0.6075,0.1633,0.2321,-0.7417
0.008,0.008,0,0,-0.4,0.5,0,2018,4,25,20,27,14.709,-0.6076,0.1632,0.2322,-0.7417
0.008,0.007,-0.002,0.1,-0.6,0.4,0,2018,4,25,20,27,14.713,-0.6076,0.1632,0.2322,-0.7417
0.005,0.004,-0.003,0,0,0,0,2018,4,25,20,27,14.728,-0.6076,0.1633,0.2322,-0.7416
0.007,0.006,-0.004,0.2,-0.3,0.5,0,2018,4,25,20,27,14.766,-0.6076,0.1633,0.2323,-0.7416
0.006,0.006,-0.008,0,-0.1,0.5,0,2018,4,25,20,27,14.786,-0.6077,0.1633,0.2322,-0.7416
0.007,0.006,-0.003,-0.1,0,0.5,0,2018,4,25,20,27,14.79,-0.6078,0.1635,0.2321,-0.7415
0.004,0.004,0,0,0,0.7,0,2018,4,25,20,27,14.831,-0.6079,0.1634,0.2321,-0.7414
0.005,0.009,-0.004,-0.1,0,0.6,0,2018,4,25,20,27,14.849,-0.608,0.1634,0.2321,-0.7414
0.007,0.008,-0.001,-0.1,-0.2,0.7,0,2018,4,25,20,27,14.854,-0.6081,0.1634,0.232,-0.7413
0.007,0.01,0.001,-0.1,-0.2,0.5,0,2018,4,25,20,27,14.873,-0.6082,0.1634,0.2321,-0.7412
0.007,0.006,-0.007,0,-0.2,0.5,0,2018,4,25,20,27,14.895,-0.6083,0.1634,0.2321,-0.7411
0.005,0.009,-0.002,0,0,0,0,2018,4,25,20,27,14.914,-0.6083,0.1634,0.2321,-0.7411
0.007,0.008,-0.011,0,0,0,0,2018,4,25,20,27,14.935,-0.6083,0.1635,0.232,-0.7411
0.004,0.004,-0.003,-0.1,-0.6,0.5,0,2018,4,25,20,27,14.951,-0.6084,0.1635,0.232,-0.7411
0.005,0.005,-0.005,0,0,0,0,2018,4,25,20,27,14.973,-0.6084,0.1635,0.2321,-0.741
0.005,0.003,-0.005,0,0,0,0,2018,4,25,20,27,14.992,-0.6084,0.1635,0.2321,-0.741
0.007,0.003,-0.002,0,0,0,1023,2018,4,25,20,27,15.027,-0.6084,0.1635,0.2321,-0.741
0.004,0.007,-0.005,-0.2,-0.2,0.7,1023,2018,4,25,20,27,15.047,-0.6085,0.1635,0.232,-0.7409
0.007,0.01,-0.002,-0.1,-0.4,0.8,1023,2018,4,25,20,27,15.051,-0.6086,0.1635,0.2321,-0.7409
0.006,0.008,-0.005,0,-0.3,0.7,1023,2018,4,25,20,27,15.092,-0.6087,0.1636,0.232,-0.7408
0.008,0.005,-0.004,-0.1,-0.2,0.5,1023,2018,4,25,20,27,15.113,-0.6088,0.1637,0.232,-0.7407
0.005,0.005,-0.002,0,0,0,1023,2018,4,25,20,27,15.117,-0.6088,0.1637,0.2319,-0.7407
0.005,0.004,-0.003,0,0,0,1023,2018,4,25,20,27,15.136,-0.6088,0.1637,0.2319,-0.7407
0.007,0.004,-0.002,0.1,-0.4,0.5,1023,2018,4,25,20,27,15.174,-0.6088,0.1637,0.2319,-0.7407
0.008,0.004,-0.004,0.3,-0.5,0.7,1023,2018,4,25,20,27,15.194,-0.6088,0.1637,0.232,-0.7406
0.006,0.005,-0.008,0.4,-0.5,0.5,0,2018,4,25,20,27,15.198,-0.6089,0.1637,0.2321,-0.7406
0.006,0.005,-0.005,0.4,-0.4,0.5,0,2018,4,25,20,27,15.214,-0.6089,0.1637,0.2322,-0.7405
0.006,0.004,0,0.3,-0.1,0.6,0,2018,4,25,20,27,15.252,-0.6089,0.1634,0.2326,-0.7405
0.001,0.007,-0.004,0.2,0,0.6,0,2018,4,25,20,27,15.273,-0.6089,0.1633,0.2326,-0.7404
0.001,0.007,-0.003,0.1,0,0.6,0,2018,4,25,20,27,15.277,-0.609,0.1632,0.2327,-0.7404
0.001,0.01,-0.004,0.1,-0.1,0.6,0,2018,4,25,20,27,15.295,-0.6091,0.1632,0.2327,-0.7403
0.002,0.011,-0.001,-0.1,-0.3,0.6,0,2018,4,25,20,27,15.316,-0.6092,0.1633,0.2326,-0.7402
0.005,0.006,-0.003,-0.2,-0.6,0.5,0,2018,4,25,20,27,15.336,-0.6094,0.1635,0.2324,-0.7401
0.005,0.004,-0.003,0,0,0,0,2018,4,25,20,27,15.375,-0.6094,0.1635,0.2324,-0.74
0.006,0.009,-0.004,0.2,0,0.5,0,2018,4,25,20,27,15.395,-0.6095,0.1635,0.2324,-0.74
0.008,0.004,-0.002,0.3,0,0.6,0,2018,4,25,20,27,15.399,-0.6095,0.1635,0.2324,-0.74
0.008,0.006,-0.004,0.3,-0.2,0.5,0,2018,4,25,20,27,15.437,-0.6095,0.1635,0.2324,-0.74
0.006,0.004,0.003,0.3,-0.1,0.5,0,2018,4,25,20,27,15.441,-0.6095,0.1635,0.2323,-0.74
0.007,0.005,-0.006,0.3,-0.5,0.5,0,2018,4,25,20,27,15.456,-0.6095,0.1635,0.2325,-0.7399
0.008,0.002,-0.003,0.4,-0.2,0.6,0,2018,4,25,20,27,15.475,-0.6096,0.1634,0.2326,-0.7399
0.007,0.004,-0.003,0.4,0,0.7,0,2018,4,25,20,27,15.494,-0.6096,0.1633,0.2328,-0.7398
0.01,0.008,-0.005,0.4,0,0.7,0,2018,4,25,20,27,15.517,-0.6097,0.1632,0.2328,-0.7398
0.005,0.01,-0.004,0.5,0,0.8,0,2018,4,25,20,27,15.538,-0.6098,0.1631,0.2328,-0.7397
0.008,0.007,-0.005,0.4,0.2,0.8,0,2018,4,25,20,27,15.576,-0.6098,0.1629,0.2329,-0.7397
0.005,0.004,-0.002,0.4,0,0.7,0,2018,4,25,20,27,15.596,-0.61,0.1629,0.2328,-0.7396
0.006,0.004,-0.001,0.4,-0.1,0.8,0,2018,4,25,20,27,15.6,-0.61,0.1627,0.233,-0.7396
0.003,0.004,0,0.4,-0.1,0.8,0,2018,4,25,20,27,15.62,-0.61,0.1625,0.2333,-0.7395
0.004,0.006,-0.003,0.6,-0.1,0.8,0,2018,4,25,20,27,15.64,-0.6101,0.1625,0.2332,-0.7394
0.013,0.021,0.01,0.7,-0.4,1.3,0,2018,4,25,20,27,15.657,-0.6103,0.1625,0.2331,-0.7394
0.012,0.04,0.062,0.6,-7.5,2.7,0,2018,4,25,20,27,15.694,-0.6105,0.1627,0.2331,-0.7391
0.001,0.132,0.24,0.2,-29.3,5.7,0,2018,4,25,20,27,15.714,-0.6107,0.1639,0.2346,-0.7382
-0.006,0.204,0.422,-13.3,-62.1,4.2,1023,2018,4,25,20,27,15.718,-0.6104,0.1691,0.2397,-0.7356
0.021,0.359,0.428,-29.1,-167.2,8.9,1023,2018,4,25,20,27,15.738,-0.6086,0.1837,0.2516,-0.7296
-0.045,0.369,0.399,-51.9,-279.4,22.5,1023,2018,4,25,20,27,15.758,-0.6044,0.2128,0.2772,-0.7158
-0.056,0.204,0.316,-79.6,-320.2,28,1023,2018,4,25,20,27,15.778,-0.5987,0.2519,0.3087,-0.6947
-0.001,0.109,0.3,-104.5,-329.8,25.1,1023,2018,4,25,20,27,15.799,-0.5914,0.2955,0.3395,-0.669
0,0.008,0.354,-133.1,-292.3,18,1023,2018,4,25,20,27,15.837,-0.5838,0.3401,0.3643,-0.6408
-0.007,-0.094,0.385,-157.1,-212.3,5.2,1023,2018,4,25,20,27,15.857,-0.5788,0.3809,0.3775,-0.6142
-0.029,0.046,0.345,-167,-175,-5.2,1023,2018,4,25,20,27,15.861,-0.5765,0.4171,0.3806,-0.5905
-0.077,0.071,0.284,-170.6,-190.3,-15.7,1023,2018,4,25,20,27,15.881,-0.5729,0.4531,0.3808,-0.5668
-0.116,0.016,0.177,-169.1,-206.6,-26,1023,2018,4,25,20,27,15.902,-0.5656,0.4911,0.3813,-0.5416
-0.165,-0.052,0.095,-164,-197.7,-37.1,1023,2018,4,25,20,27,15.924,-0.5555,0.5288,0.3808,-0.5163
-0.193,-0.059,0.02,-156.5,-157.7,-44.1,0,2018,4,25,20,27,15.938,-0.5453,0.563,0.3771,-0.4932
-0.209,-0.09,-0.107,-145.6,-106.2,-47.4,0,2018,4,25,20,27,15.977,-0.5379,0.5914,0.3691,-0.4737
-0.205,-0.113,-0.201,-128.1,-45.4,-49.6,0,2018,4,25,20,27,15.981,-0.5348,0.6128,0.357,-0.4592
-0.207,-0.017,-0.292,-104.8,-7.2,-48.5,0,2018,4,25,20,27,16.001,-0.5354,0.6272,0.3425,-0.4499
-0.195,0.065,-0.346,-82.1,-1.4,-43,0,2018,4,25,20,27,16.019,-0.537,0.6374,0.3289,-0.4438
-0.191,0.12,-0.382,-61.6,-9.3,-36.4,0,2018,4,25,20,27,16.057,-0.5374,0.6455,0.3182,-0.4393
-0.129,0.104,-0.456,-48.2,-7.7,-30.2,0,2018,4,25,20,27,16.076,-0.5367,0.6524,0.3102,-0.4357
-0.037,0.114,-0.614,-37.3,7,-27.3,0,2018,4,25,20,27,16.08,-0.5367,0.6572,0.303,-0.4335
-0.019,0.203,-0.771,-26.6,20.1,-24.3,0,2018,4,25,20,27,16.119,-0.5382,0.6596,0.2959,-0.4331
-0.016,0.286,-0.885,-11,12.2,-20.6,0,2018,4,25,20,27,16.139,-0.5396,0.6605,0.2902,-0.4339
-0.062,0.326,-0.939,10.5,-17.6,-17.8,0,2018,4,25,20,27,16.144,-0.538,0.6616,0.2881,-0.4356
-0.091,0.349,-0.944,33,-54.1,-14.1,0,2018,4,25,20,27,16.159,-0.5312,0.6642,0.2912,-0.4378
-0.149,0.355,-0.949,57.1,-74.8,-7.2,0,2018,4,25,20,27,16.197,-0.5204,0.6673,0.2992,-0.4407
-0.191,0.373,-0.946,84.7,-90.3,4.2,0,2018,4,25,20,27,16.218,-0.5067,0.6694,0.3118,-0.4447
-0.26,0.366,-0.897,114.7,-103.5,20.8,0,2018,4,25,20,27,16.222,-0.4907,0.6693,0.3296,-0.4499
-0.349,0.325,-0.842,143.2,-121.9,40.3,0,2018,4,25,20,27,16.241,-0.4723,0.6666,0.353,-0.4558
-0.448,0.238,-0.835,167.6,-144.9,60.7,0,2018,4,25,20,27,16.263,-0.4507,0.6617,0.3823,-0.4612
-0.525,0.166,-0.788,192,-159.2,82.9,0,2018,4,25,20,27,16.301,-0.4264,0.6538,0.4168,-0.4657
-0.594,0.099,-0.712,215.4,-164.3,104.2,0,2018,4,25,20,27,16.322,-0.4001,0.6416,0.4556,-0.4697
-0.642,0.033,-0.654,235.5,-165.6,124.4,0,2018,4,25,20,27,16.326,-0.3725,0.6245,0.4971,-0.4732
-0.686,0.009,-0.654,253.2,-164.8,146,0,2018,4,25,20,27,16.342,-0.3437,0.6023,0.5406,-0.4761
-0.717,-0.066,-0.681,271,-151.2,168.9,0,2018,4,25,20,27,16.359,-0.3143,0.5743,0.585,-0.4784
-0.771,-0.191,-0.55,292.8,-97.7,188.5,0,2018,4,25,20,27,16.4,-0.2871,0.5384,0.6275,-0.4834
-0.87,-0.294,-0.472,318.1,-63.6,193.7,0,2018,4,25,20,27,16.404,-0.2624,0.4941,0.6657,-0.4936
-1.043,-0.302,-0.654,350.3,-109.9,188.9,0,2018,4,25,20,27,16.42,-0.2319,0.4458,0.7033,-0.5026
-1.172,-0.697,-0.414,383.9,-133.4,187.1,0,2018,4,25,20,27,16.457,-0.1925,0.394,0.7425,-0.5061
-1.534,-0.687,1.454,397.6,-65.1,156.6,1023,2018,4,25,20,27,16.477,-0.149,0.339,0.7748,-0.5123
-0.997,2.509,-3.935,-31.4,-694.9,-60.7,1023,2018,4,25,20,27,16.481,-0.1145,0.3507,0.8203,-0.4368
0.665,-1.975,0.816,-31.9,-122.6,-1.3,1023,2018,4,25,20,27,16.522,-0.0893,0.3606,0.8513,-0.3704
0.184,-0.251,-0.31,8,294.8,-44.2,1023,2018,4,25,20,27,16.542,-0.0987,0.3636,0.8389,-0.3927
-0.158,-0.283,0.025,70.9,186.6,-11.7,1023,2018,4,25,20,27,16.546,-0.1061,0.3597,0.8196,-0.433
0.1,-0.091,0.25,88.6,162.3,8.3,1023,2018,4,25,20,27,16.564,-0.1048,0.3497,0.8081,-0.4621
-0.028,0.491,0.124,79.8,116.1,15.4,1023,2018,4,25,20,27,16.585,-0.103,0.3381,0.7983,-0.4874
0.032,0.296,-0.198,73.8,47.5,28.6,1023,2018,4,25,20,27,16.624,-0.0982,0.3274,0.7949,-0.5011
-0.019,0.268,0.039,56.4,40.6,39,1023,2018,4,25,20,27,16.627,-0.094,0.3166,0.7953,-0.5082
-0.103,0.169,-0.006,45.5,84.5,44.2,1023,2018,4,25,20,27,16.642,-0.0945,0.3052,0.7929,-0.5187
-0.084,0.078,-0.027,39,62.2,33.3,0,2018,4,25,20,27,16.681,-0.0967,0.2944,0.789,-0.5304
-0.057,-0.091,-0.012,35.6,22.7,20.7,0,2018,4,25,20,27,16.701,-0.0967,0.286,0.7876,-0.5369
-0.035,0.032,0.06,24.8,-16.7,9.6,0,2018,4,25,20,27,16.705,-0.0946,0.2806,0.7888,-0.5385
0.027,0.114,0.061,8.8,-57.6,2.5,0,2018,4,25,20,27,16.724,-0.0909,0.2786,0.7931,-0.5338
0.071,0.041,0.031,-2.7,-67.4,-2.2,0,2018,4,25,20,27,16.76,-0.0867,0.2797,0.7994,-0.5245
0.061,0.014,0.062,-11.3,-50.6,-6.9,0,2018,4,25,20,27,16.78,-0.084,0.282,0.8042,-0.5162
0.025,0.037,0.091,-18.8,-50.1,-9.2,0,2018,4,25,20,27,16.784,-0.0826,0.2853,0.8079,-0.5089
0.027,0.033,0.053,-22.6,-62.3,-9.5,0,2018,4,25,20,27,16.824,-0.0817,0.2891,0.812,-0.5002
0.011,-0.003,0.03,-24.2,-68,-8.4,0,2018,4,25,20,27,16.845,-0.0807,0.2932,0.8172,-0.4894
0.057,0.021,-0.052,-25.5,-52.6,-5.4,0,2018,4,25,20,27,16.849,-0.0803,0.2972,0.8219,-0.479
-0.001,0.017,-0.094,-20.6,-43.7,-4,0,2018,4,25,20,27,16.864,-0.0805,0.3005,0.8257,-0.4704
-0.06,-0.006,0.05,-18.6,-45.4,-3.5,0,2018,4,25,20,27,16.883,-0.0808,0.3029,0.8294,-0.4623
-0.051,0.007,0.049,-23.5,-44.1,-3.8,0,2018,4,25,20,27,16.903,-0.082,0.3051,0.8326,-0.4548
0.026,-0.053,-0.076,-23.9,-34.8,-4.6,0,2018,4,25,20,27,16.942,-0.0831,0.308,0.8355,-0.4473
0.035,-0.052,-0.064,-21,-19.5,-6.7,0,2018,4,25,20,27,16.962,-0.0843,0.3109,0.8371,-0.442
0.026,0.004,-0.018,-18.8,-13.6,-6.6,0,2018,4,25,20,27,16.966,-0.0855,0.3137,0.8377,-0.4385
0.023,0.016,-0.002,-17.3,-11.7,-5,0,2018,4,25,20,27,16.987,-0.0867,0.3162,0.8382,-0.4356
0.026,0.028,-0.017,-15.1,-7.7,-2.2,0,2018,4,25,20,27,17.007,-0.088,0.3182,0.8385,-0.4333
0.033,0.044,-0.042,-11.9,-9.5,1,0,2018,4,25,20,27,17.045,-0.089,0.3195,0.8393,-0.4306
0.023,0.003,-0.021,-8.5,-9.5,3.3,0,2018,4,25,20,27,17.067,-0.0898,0.3201,0.8403,-0.4281
0.033,-0.005,-0.009,-7.1,-7.7,4.2,0,2018,4,25,20,27,17.071,-0.0906,0.3202,0.8411,-0.4262
0.036,0.005,-0.014,-6.3,-6.9,4.2,0,2018,4,25,20,27,17.084,-0.0911,0.3202,0.8419,-0.4244
0.031,-0.002,-0.024,-5.7,-5.3,3.9,0,2018,4,25,20,27,17.12,-0.0917,0.32,0.8428,-0.4227
0.028,-0.011,-0.043,-4.6,-2.4,3.1,0,2018,4,25,20,27,17.141,-0.0922,0.3199,0.8434,-0.4215
0.018,0,-0.042,-3.2,-2,2.7,0,2018,4,25,20,27,17.145,-0.0927,0.3198,0.8439,-0.4205
0.022,-0.005,-0.033,-1.3,-1.5,2.2,0,2018,4,25,20,27,17.18,-0.0928,0.3195,0.8444,-0.4196
0.019,-0.006,-0.032,0,0.9,1.4,1023,2018,4,25,20,27,17.201,-0.0929,0.3192,0.8448,-0.4191
0.017,0.007,-0.015,1.2,2.6,0.6,1023,2018,4,25,20,27,17.208,-0.0928,0.319,0.8448,-0.4193
0.02,0.014,-0.009,1.6,1.5,0.1,1023,2018,4,25,20,27,17.229,-0.0925,0.3187,0.8448,-0.4195
0.017,0.011,-0.011,1.6,0.1,-0.2,1023,2018,4,25,20,27,17.249,-0.0921,0.3185,0.845,-0.4194
0.004,0.014,-0.003,1.6,0,-0.7,1023,2018,4,25,20,27,17.289,-0.0917,0.3183,0.8452,-0.4192
0.003,0.015,-0.011,1.8,0,-0.9,1023,2018,4,25,20,27,17.307,-0.0913,0.3183,0.8453,-0.4191
0,0.021,-0.004,1.8,0,-1,1023,2018,4,25,20,27,17.312,-0.0908,0.3182,0.8455,-0.4189
0,0.016,-0.006,1.3,-0.1,-0.7,1023,2018,4,25,20,27,17.326,-0.0904,0.3182,0.8456,-0.4188
-0.003,0.011,-0.004,1,0.7,-0.4,1023,2018,4,25,20,27,17.364,-0.0902,0.318,0.8458,-0.4185
-0.004,0.018,0,0.4,0.9,-0.1,1023,2018,4,25,20,27,17.384,-0.0901,0.3178,0.8459,-0.4184
-0.001,0.016,-0.001,0,0.6,0.1,0,2018,4,25,20,27,17.389,-0.0901,0.3176,0.8461,-0.4182
0.002,0.014,0.007,0,-0.2,0.5,0,2018,4,25,20,27,17.409,-0.0901,0.3176,0.8462,-0.4182
-0.002,0.013,0.003,-0.1,-0.6,0.7,0,2018,4,25,20,27,17.43,-0.0901,0.3173,0.8464,-0.4179
0,0.007,-0.002,0.1,-0.4,0.9,0,2018,4,25,20,27,17.451,-0.09,0.3171,0.8466,-0.4176
0,0.011,0.002,0.3,0.9,0.8,0,2018,4,25,20,27,17.489,-0.09,0.3168,0.8468,-0.4174
0.003,0.011,0,0.1,1.3,0.7,0,2018,4,25,20,27,17.509,-0.0901,0.3165,0.8469,-0.4175
0.006,0.003,0.001,-0.1,0.6,0.5,0,2018,4,25,20,27,17.513,-0.0901,0.3164,0.8469,-0.4177
0.009,0.006,-0.006,-0.7,0,0.7,0,2018,4,25,20,27,17.532,-0.0901,0.3163,0.8469,-0.4176
0.011,0.008,-0.006,-0.7,0.3,1,0,2018,4,25,20,27,17.548,-0.0902,0.3161,0.847,-0.4175
0.008,0.009,0,-0.1,1.8,1,0,2018,4,25,20,27,17.584,-0.0902,0.316,0.8471,-0.4176
0.014,0.012,-0.002,0.4,1.8,1,0,2018,4,25,20,27,17.605,-0.0903,0.3157,0.8471,-0.4177
0.015,0.006,-0.003,0.6,0.8,1.1,0,2018,4,25,20,27,17.608,-0.0901,0.3155,0.847,-0.418
0.015,0.009,-0.001,0.7,0.4,1.1,0,2018,4,25,20,27,17.646,-0.09,0.3153,0.8471,-0.4181
0.011,0.014,-0.003,0.7,-0.7,0.4,0,2018,4,25,20,27,17.666,-0.0897,0.315,0.8473,-0.4179
0.013,0.01,-0.01,0.7,-1,0.3,0,2018,4,25,20,27,17.671,-0.0894,0.3149,0.8475,-0.4177
0.012,0.007,-0.005,0.3,1.2,0,0,2018,4,25,20,27,17.691,-0.0892,0.3149,0.8475,-0.4177
0.008,0.01,-0.003,0.3,1.4,-0.5,0,2018,4,25,20,27,17.712,-0.0891,0.3149,0.8473,-0.418
0.005,0.011,-0.002,0.5,-0.2,-0.8,0,2018,4,25,20,27,17.731,-0.0889,0.315,0.8473,-0.4181
0.007,0.005,-0.004,0.9,-1.4,-1.4,0,2018,4,25,20,27,17.75,-0.0885,0.3151,0.8473,-0.418
0.008,0.007,-0.001,1.2,-0.9,-1.7,0,2018,4,25,20,27,17.769,-0.0881,0.3153,0.8473,-0.418
0.007,0.009,0.006,1.2,0.3,-1.2,0,2018,4,25,20,27,17.789,-0.0877,0.3153,0.8473,-0.418
0.003,0.013,0.01,1.1,1.2,-0.7,0,2018,4,25,20,27,17.809,-0.0874,0.3153,0.8473,-0.4182
0.001,0.011,0.006,1.2,0.3,-0.2,0,2018,4,25,20,27,17.832,-0.0872,0.3152,0.8473,-0.4184
-0.001,0.017,0,1.2,0.1,0.3,0,2018,4,25,20,27,17.852,-0.087,0.315,0.8474,-0.4184
0,0.015,0.004,1.1,-0.1,0.5,0,2018,4,25,20,27,17.872,-0.0868,0.3147,0.8475,-0.4183
-0.002,0.015,0.004,0.5,0.3,0.6,1023,2018,4,25,20,27,17.909,-0.0867,0.3145,0.8476,-0.4184
0.007,0.014,-0.004,0,-0.5,0.5,1023,2018,4,25,20,27,17.93,-0.0866,0.3143,0.8478,-0.4182
0.006,0.007,-0.003,-0.2,-1,0.3,1023,2018,4,25,20,27,17.934,-0.0865,0.3142,0.8479,-0.418
0.001,0.004,0,-0.2,-1,0,1023,2018,4,25,20,27,17.952,-0.0864,0.3141,0.8481,-0.4177
0.002,0.001,0.003,0.1,-0.5,-0.1,1023,2018,4,25,20,27,17.974,-0.0863,0.3141,0.8482,-0.4175
0.009,0.008,0.01,0,0,0,1023,2018,4,25,20,27,17.994,-0.0862,0.3141,0.8481,-0.4177
0.007,0.011,0.008,0,-0.7,0.2,1023,2018,4,25,20,27,18.015,-0.0861,0.3141,0.8481,-0.4177
0.007,0.008,0.01,0.1,-1.3,1,1023,2018,4,25,20,27,18.031,-0.0859,0.314,0.8482,-0.4176
0.002,0.009,0.006,0.1,-1.2,1.4,1023,2018,4,25,20,27,18.07,-0.0858,0.3137,0.8485,-0.4174
0.003,0.002,0,0.1,-0.9,1.4,1023,2018,4,25,20,27,18.091,-0.0857,0.3134,0.8487,-0.4171
0.001,-0.001,-0.002,0.3,-1.1,1.4,0,2018,4,25,20,27,18.095,-0.0857,0.3132,0.8488,-0.417
0.007,0.006,-0.007,0.1,-0.9,1,0,2018,4,25,20,27,18.113,-0.0856,0.3129,0.8491,-0.4168
0.007,0.002,0.001,0.4,0,0.8,0,2018,4,25,20,27,18.153,-0.0855,0.3127,0.8492,-0.4167
0.008,0.011,0.009,0.4,1.3,0.3,0,2018,4,25,20,27,18.172,-0.0854,0.3124,0.8492,-0.4169
0.006,0.017,0.007,0.1,0.9,0.3,0,2018,4,25,20,27,18.176,-0.0853,0.3123,0.8492,-0.417
0.007,0.018,0.012,-0.4,-0.3,0.8,0,2018,4,25,20,27,18.196,-0.0853,0.312,0.8494,-0.4168
0.007,0.019,0.013,-1.2,-1.3,1.4,0,2018,4,25,20,27,18.215,-0.0853,0.3119,0.8495,-0.4167
0.005,0.014,0.01,-1.9,-1.5,1.7,0,2018,4,25,20,27,18.237,-0.0854,0.3119,0.8495,-0.4166
-0.005,0.012,0.008,-2.7,-0.7,1.5,0,2018,4,25,20,27,18.253,-0.0858,0.3118,0.8498,-0.4162
-0.001,0.005,-0.007,-2.9,-0.7,1.6,0,2018,4,25,20,27,18.292,-0.0863,0.3116,0.85,-0.4157
-0.002,0.004,-0.003,-2.6,-0.4,1.4,0,2018,4,25,20,27,18.311,-0.0868,0.3115,0.8502,-0.4153
-0.001,0.007,0,-2.1,0.2,1.1,0,2018,4,25,20,27,18.315,-0.0872,0.3113,0.8503,-0.4151
0.003,0.007,0.003,-1.5,-0.7,1,0,2018,4,25,20,27,18.335,-0.0875,0.3112,0.8505,-0.4148
0.005,0.002,0.004,-0.8,-1.6,1.4,0,2018,4,25,20,27,18.355,-0.0876,0.3111,0.8506,-0.4146
0.006,0.003,-0.003,-0.4,-2.3,2.1,0,2018,4,25,20,27,18.375,-0.0876,0.3109,0.8508,-0.4142
0.009,-0.003,0,0,-1.6,2.1,0,2018,4,25,20,27,18.396,-0.0876,0.3105,0.8511,-0.4139
0.009,0,0.001,0.1,-0.3,1.6,0,2018,4,25,20,27,18.432,-0.0876,0.3102,0.8513,-0.4137
0.01,-0.005,0.002,0.2,0.6,1,0,2018,4,25,20,27,18.454,-0.0875,0.3099,0.8514,-0.4138
0.016,-0.005,0.002,0.1,0.4,0.8,0,2018,4,25,20,27,18.458,-0.0874,0.3097,0.8514,-0.4139
0.007,0.004,0.006,-0.1,0.2,0.5,0,2018,4,25,20,27,18.475,-0.0873,0.3096,0.8514,-0.414
0.011,0.001,-0.003,0,0,0,0,2018,4,25,20,27,18.494,-0.0872,0.3096,0.8514,-0.4142
0.008,0.004,0,0,0,0,0,2018,4,25,20,27,18.513,-0.0871,0.3097,0.8513,-0.4143
0.008,0,-0.004,0.8,-1,-0.3,0,2018,4,25,20,27,18.534,-0.0868,0.3097,0.8512,-0.4144
0.007,0,0.003,1.1,-1,0,0,2018,4,25,20,27,18.572,-0.0865,0.3097,0.8513,-0.4144
0.008,0,0,1.4,0.8,0,0,2018,4,25,20,27,18.593,-0.0861,0.3096,0.8513,-0.4145
0,0.002,0,1.5,2.9,0.2,0,2018,4,25,20,27,18.597,-0.086,0.3093,0.8512,-0.4149
0.001,0.017,0.001,1.4,2.5,0.1,1023,2018,4,25,20,27,18.634,-0.0859,0.3091,0.8511,-0.4153
0.001,0.02,0.005,1,1.4,0.2,1023,2018,4,25,20,27,18.655,-0.0857,0.3088,0.8511,-0.4156
0.002,0.013,0.009,0.7,0.6,0.3,1023,2018,4,25,20,27,18.659,-0.0856,0.3086,0.8511,-0.4157
0.002,0.013,0.003,0,0,0,1023,2018,4,25,20,27,18.679,-0.0855,0.3086,0.8511,-0.4158
0.002,0.009,0.006,0,-1.2,-0.2,1023,2018,4,25,20,27,18.699,-0.0854,0.3086,0.8511,-0.4159
0.008,0.003,0.008,-0.4,-1.8,-0.3,1023,2018,4,25,20,27,18.72,-0.0852,0.3086,0.8512,-0.4156
0.008,0.006,0.004,-0.3,-1.3,-0.5,1023,2018,4,25,20,27,18.737,-0.085,0.3088,0.8513,-0.4155
0.009,0.002,0.003,-0.6,-1,-0.2,1023,2018,4,25,20,27,18.758,-0.0848,0.309,0.8512,-0.4155
0.007,0.002,0.001,-0.3,-1,0,1023,2018,4,25,20,27,18.778,-0.0847,0.3091,0.8512,-0.4155
0.006,0.001,-0.002,0.1,-0.6,0.5,0,2018,4,25,20,27,18.798,-0.0846,0.309,0.8513,-0.4153
0.005,0.003,0,0.8,0,1.1,0,2018,4,25,20,27,18.818,-0.0845,0.3088,0.8514,-0.4153
0.001,-0.001,0.002,1.1,1.2,1.9,0,2018,4,25,20,27,18.853,-0.0844,0.3084,0.8515,-0.4154
0.004,0.004,0.001,1.7,2.2,2.4,0,2018,4,25,20,27,18.873,-0.0843,0.3079,0.8515,-0.4158
0.005,0.008,0.006,1.7,3.4,2.4,0,2018,4,25,20,27,18.877,-0.0843,0.3073,0.8515,-0.4163
0.004,0.01,0.008,1.6,3.7,1.9,0,2018,4,25,20,27,18.918,-0.0843,0.3067,0.8513,-0.417
0.001,0.009,0.011,1.1,2.3,1.8,0,2018,4,25,20,27,18.938,-0.0843,0.3063,0.8512,-0.4175
0.001,0.005,0.005,1,0.1,1.2,0,2018,4,25,20,27,18.942,-0.0843,0.306,0.8512,-0.4179
0.003,0.008,0.001,0.8,-0.6,0.8,0,2018,4,25,20,27,18.956,-0.0841,0.3057,0.8513,-0.4178
0.008,0.009,0.009,0.6,0.3,0.5,0,2018,4,25,20,27,18.994,-0.084,0.3054,0.8514,-0.4178
0.013,0.007,0.007,0,0.2,0.6,0,2018,4,25,20,27,19.015,-0.0839,0.3053,0.8514,-0.418
0.008,0.006,0,-0.2,-0.8,0.7,0,2018,4,25,20,27,19.019,-0.0838,0.3053,0.8514,-0.4181
0.003,0.003,-0.005,-0.2,-1.6,0.8,0,2018,4,25,20,27,19.039,-0.0837,0.3051,0.8515,-0.4179
0.002,0.002,-0.004,0.3,-0.9,0.6,0,2018,4,25,20,27,19.074,-0.0836,0.305,0.8517,-0.4177
0.006,0,0.002,0.6,-0.4,0.6,0,2018,4,25,20,27,19.094,-0.0835,0.3048,0.8518,-0.4176
0.01,0,0.003,0.9,-0.2,0.5,0,2018,4,25,20,27,19.098,-0.0833,0.3046,0.8519,-0.4176
0.013,0.003,0.008,1.2,-0.2,0.7,0,2018,4,25,20,27,19.135,-0.083,0.3044,0.8519,-0.4177
0.012,-0.001,0.004,1.3,0,0.6,0,2018,4,25,20,27,19.156,-0.0828,0.3042,0.852,-0.4178
0.013,0.001,-0.001,1.5,1,0.8,0,2018,4,25,20,27,19.16,-0.0825,0.3039,0.852,-0.418
0.008,-0.001,0,2,1.8,1,0,2018,4,25,20,27,19.179,-0.0823,0.3036,0.852,-0.4184
0.009,0,0.008,2,2.6,0.9,0,2018,4,25,20,27,19.216,-0.0821,0.3031,0.852,-0.4187
0.005,0,0.008,1.7,3.3,0.7,0,2018,4,25,20,27,19.236,-0.082,0.3028,0.8518,-0.4194
0.006,0.011,0.008,1.3,3.1,0.6,0,2018,4,25,20,27,19.24,-0.0819,0.3024,0.8517,-0.4199
-0.003,0.013,0.013,0.9,1.5,0.3,0,2018,4,25,20,27,19.26,-0.0818,0.3021,0.8516,-0.4204
0,0.01,0.009,0.4,0.1,0.6,0,2018,4,25,20,27,19.281,-0.0817,0.3018,0.8516,-0.4204
-0.001,0.01,0.007,0,0,0,0,2018,4,25,20,27,19.319,-0.0817,0.3018,0.8516,-0.4206
-0.003,0.005,0.005,0.3,-0.8,0.2,1023,2018,4,25,20,27,19.339,-0.0816,0.3017,0.8516,-0.4206
-0.003,0.006,0,0.1,-1,0,1023,2018,4,25,20,27,19.343,-0.0815,0.3017,0.8517,-0.4205
0,0.006,0.001,0.3,-0.9,-0.1,1023,2018,4,25,20,27,19.362,-0.0814,0.3016,0.8518,-0.4204
0.005,0.008,0.01,0.1,-1.4,0,1023,2018,4,25,20,27,19.382,-0.0812,0.3016,0.8518,-0.4204
0.007,0.008,0.008,0.1,-2,0,1023,2018,4,25,20,27,19.421,-0.081,0.3017,0.8518,-0.4203
0.007,0.009,0.005,-0.1,-2.1,0,1023,2018,4,25,20,27,19.425,-0.0808,0.3018,0.8519,-0.4202
0.004,0.005,0.007,0,-2.7,0,1023,2018,4,25,20,27,19.441,-0.0806,0.3017,0.8521,-0.4199
0.007,0.004,0.001,0.1,-2.9,0,1023,2018,4,25,20,27,19.461,-0.0803,0.3017,0.8523,-0.4194
0.003,0,0.007,0.1,-1.8,0,1023,2018,4,25,20,27,19.479,-0.0801,0.3016,0.8525,-0.4191
0,0,0.007,0,-0.7,-0.2,1023,2018,4,25,20,27,19.499,-0.08,0.3016,0.8526,-0.419
0.003,0.001,0,0,0,0,0,2018,4,25,20,27,19.519,-0.0799,0.3016,0.8526,-0.4191
0.001,-0.003,0.002,0,-0.7,0.6,0,2018,4,25,20,27,19.559,-0.0799,0.3015,0.8527,-0.419
-0.001,0.004,0.007,0,0,0,0,2018,4,25,20,27,19.579,-0.0798,0.3014,0.8526,-0.419
0.006,0,0.001,-0.2,0.5,0.2,0,2018,4,25,20,27,19.606,-0.0798,0.3014,0.8526,-0.4191
0.006,0.003,0.006,-0.1,0.6,0.4,0,2018,4,25,20,27,19.624,-0.0798,0.3014,0.8525,-0.4194
0.008,0.005,0.004,0,0,0,0,2018,4,25,20,27,19.625,-0.0797,0.3014,0.8524,-0.4196
0.007,0.001,0.003,0,0,0,0,2018,4,25,20,27,19.645,-0.0796,0.3014,0.8523,-0.4198
0.007,0.005,0.001,-0.1,1.3,-0.3,0,2018,4,25,20,27,19.664,-0.0795,0.3015,0.8522,-0.42
0.007,0.005,0.002,-0.2,1.1,-0.3,0,2018,4,25,20,27,19.68,-0.0795,0.3015,0.8521,-0.4202
0.007,0.01,0.007,0,0,0,0,2018,4,25,20,27,19.719,-0.0794,0.3015,0.8521,-0.4203
0.007,0.007,0.004,0.1,-0.6,0.2,0,2018,4,25,20,27,19.74,-0.0793,0.3015,0.8521,-0.4203
0.002,0.006,0.006,0.1,-0.6,0.2,0,2018,4,25,20,27,19.742,-0.0792,0.3013,0.8522,-0.4201
0.004,0.003,0.006,0,0,0,0,2018,4,25,20,27,19.779,-0.0791,0.3013,0.8522,-0.4202
0.007,0.004,0.005,0,0,0,0,2018,4,25,20,27,19.8,-0.079,0.3013,0.8521,-0.4203
0.002,0.006,0.004,0.1,-0.2,0.5,0,2018,4,25,20,27,19.802,-0.079,0.3013,0.8521,-0.4204
0.005,0.009,0.002,0.2,-0.9,0.5,0,2018,4,25,20,27,19.838,-0.0789,0.3012,0.8522,-0.4203
0.005,0.003,0.001,0.3,-1,0.4,0,2018,4,25,20,27,19.859,-0.0787,0.301,0.8524,-0.4201
0.008,0.007,0.006,0.4,-0.6,0.4,0,2018,4,25,20,27,19.863,-0.0786,0.301,0.8524,-0.4202
0.005,0.004,0.003,0.4,-0.2,0.5,0,2018,4,25,20,27,19.88,-0.0785,0.3008,0.8525,-0.4201
0.004,0.004,0.002,0.6,-0.4,0.2,0,2018,4,25,20,27,19.9,-0.0783,0.3008,0.8525,-0.4201
0.006,0.007,0.008,0.4,-0.9,0.3,0,2018,4,25,20,27,19.935,-0.0781,0.3007,0.8526,-0.4201
0.005,0.004,0.004,0.4,-1,0.3,0,2018,4,25,20,27,19.957,-0.078,0.3006,0.8526,-0.42
0.005,0.008,0.004,0.3,-0.7,0.2,0,2018,4,25,20,27,19.964,-0.0778,0.3005,0.8528,-0.4199
0.006,0,0.009,0.6,-0.8,0.1,0,2018,4,25,20,27,20.002,-0.0776,0.3003,0.8529,-0.4197
0.008,0.005,0.006,0.6,-1.1,-0.1,0,2018,4,25,20,27,20.023,-0.0774,0.3002,0.853,-0.4196
0.003,-0.001,0.007,0.4,-0.9,-0.1,0,2018,4,25,20,27,20.027,-0.0772,0.3002,0.8531,-0.4195
0.005,0.002,0.005,0,0,0,1023,2018,4,25,20,27,20.046,-0.077,0.3001,0.8531,-0.4195
0.001,0,0.007,0.6,0,-0.3,1023,2018,4,25,20,27,20.086,-0.0768,0.3001,0.8531,-0.4196
0,0.004,0.006,0.9,-0.2,-0.3,1023,2018,4,25,20,27,20.105,-0.0766,0.3,0.8531,-0.4197
-0.002,0,0.009,0.9,-0.8,-0.2,1023,2018,4,25,20,27,20.109,-0.0764,0.2999,0.8533,-0.4196
-0.001,0.011,0.007,0.7,-0.9,-0.2,1023,2018,4,25,20,27,20.126,-0.0763,0.2998,0.8533,-0.4196
0,0.011,0.014,0.2,-1.5,0.1,1023,2018,4,25,20,27,20.144,-0.0761,0.2997,0.8535,-0.4193
0,0.006,0.007,0,-2,0.1,1023,2018,4,25,20,27,20.163,-0.0759,0.2997,0.8536,-0.4192
0.002,0.015,0.009,-0.2,-1.4,0.7,1023,2018,4,25,20,27,20.201,-0.0758,0.2996,0.8537,-0.419
0.007,0.009,0.007,-0.2,0.1,1.1,1023,2018,4,25,20,27,20.223,-0.0758,0.2995,0.8538,-0.4189
0.002,0.008,0.004,-0.5,0.6,1.6,0,2018,4,25,20,27,20.227,-0.0759,0.2994,0.8537,-0.4191
0.001,0.003,0.004,-0.6,0.1,1.7,0,2018,4,25,20,27,20.248,-0.0761,0.2991,0.8538,-0.419
0.004,0.004,0.003,-0.6,-0.1,1.7,0,2018,4,25,20,27,20.266,-0.0762,0.2988,0.854,-0.4189
0.009,0.001,0.005,-1.1,0,1.3,0,2018,4,25,20,27,20.305,-0.0764,0.2985,0.8541,-0.4188
0.01,0.003,0,-1.2,-0.6,1.1,0,2018,4,25,20,27,20.327,-0.0766,0.2984,0.8542,-0.4187
0.008,-0.004,-0.003,-0.7,-1.5,0.4,0,2018,4,25,20,27,20.331,-0.0766,0.2984,0.8542,-0.4186
0.005,-0.001,-0.007,-0.1,-1.6,0,0,2018,4,25,20,27,20.348,-0.0765,0.2985,0.8543,-0.4184
0.007,0,0.002,0,0,0,0,2018,4,25,20,27,20.367,-0.0763,0.2985,0.8543,-0.4184
0.004,0.001,0.007,-0.1,0.5,-0.1,0,2018,4,25,20,27,20.386,-0.0763,0.2986,0.8542,-0.4186
0.004,0.007,0.003,0,0,0,0,2018,4,25,20,27,20.408,-0.0762,0.2986,0.8541,-0.4188
0.005,0.009,0.005,-0.5,-1.5,0,0,2018,4,25,20,27,20.428,-0.0762,0.2987,0.8541,-0.4188
0.009,0.005,0.004,-0.6,-1.4,0,0,2018,4,25,20,27,20.464,-0.076,0.2988,0.8541,-0.4186
0.008,0.001,0.003,-0.5,-1.1,-0.2,0,2018,4,25,20,27,20.483,-0.0759,0.2989,0.8542,-0.4185
0.004,0.002,0,-0.6,-0.4,-0.7,0,2018,4,25,20,27,20.487,-0.0758,0.2991,0.8541,-0.4185
0.006,0.006,0.004,-0.8,-0.2,-1,0,2018,4,25,20,27,20.51,-0.0758,0.2993,0.854,-0.4185
0.003,0.007,0.009,-0.6,-0.6,-1.1,0,2018,4,25,20,27,20.529,-0.0757,0.2994,0.8541,-0.4183
0.003,0.008,0.01,-0.2,-1.6,-0.6,0,2018,4,25,20,27,20.549,-0.0756,0.2996,0.8541,-0.4182
0.001,0.007,0.007,0.2,-1.8,0,0,2018,4,25,20,27,20.57,-0.0754,0.2997,0.8542,-0.4181
0.006,0.001,0.005,0.3,-1.7,0.1,0,2018,4,25,20,27,20.584,-0.0752,0.2996,0.8543,-0.4178
0.006,0.007,0.01,0.5,-0.6,0.4,0,2018,4,25,20,27,20.622,-0.075,0.2995,0.8544,-0.4178
0.004,0.002,0.009,0.2,-0.1,0.8,0,2018,4,25,20,27,20.643,-0.0749,0.2993,0.8545,-0.4177
0,0,0.004,0.6,0.1,1,0,2018,4,25,20,27,20.648,-0.0749,0.2991,0.8546,-0.4177
0.005,0,0.01,0.6,0.1,1,0,2018,4,25,20,27,20.67,-0.0748,0.2989,0.8545,-0.4179
0.004,0.002,0.013,0.4,0.1,0.8,0,2018,4,25,20,27,20.69,-0.0747,0.2987,0.8546,-0.418
0.003,0.003,0.003,0.1,0.1,0.7,0,2018,4,25,20,27,20.71,-0.0747,0.2986,0.8546,-0.4181
0.005,0,0.002,0,0,0.7,0,2018,4,25,20,27,20.73,-0.0746,0.2984,0.8546,-0.4182
0.006,-0.002,0,0.3,-0.6,0.5,1023,2018,4,25,20,27,20.769,-0.0746,0.2982,0.8547,-0.4181
0.002,-0.002,0.006,0.4,0.5,0.3,1023,2018,4,25,20,27,20.789,-0.0745,0.2982,0.8547,-0.4182
0.008,0.005,0.005,0.3,1.4,0,1023,2018,4,25,20,27,20.793,-0.0744,0.2982,0.8545,-0.4186
0.004,0.006,0.009,0.2,1,0,1023,2018,4,25,20,27,20.809,-0.0743,0.2982,0.8543,-0.419
0.004,0.005,0.008,0,0,0,1023,2018,4,25,20,27,20.829,-0.0743,0.2982,0.8542,-0.4191
0.006,0.005,0.008,0,-0.6,0.3,1023,2018,4,25,20,27,20.85,-0.0742,0.2982,0.8543,-0.4191
0.006,0,0.004,0,0,0,1023,2018,4,25,20,27,20.887,-0.0741,0.2982,0.8543,-0.4191
0.005,0.006,0,0,0,0,1023,2018,4,25,20,27,20.908,-0.074,0.2982,0.8542,-0.4192
0.004,0.006,0.005,0,0,0,1023,2018,4,25,20,27,20.912,-0.0739,0.2981,0.8543,-0.4192
0.004,0.008,0.006,0,0,0,0,2018,4,25,20,27,20.931,-0.0738,0.2981,0.8543,-0.4193
0.002,0.009,0.008,0,0,0,0,2018,4,25,20,27,20.968,-0.0737,0.2981,0.8542,-0.4194
0.005,0.01,0.009,-0.3,-0.4,0.7,0,2018,4,25,20,27,20.988,-0.0737,0.298,0.8542,-0.4194
0.006,0.007,0.009,-0.6,-1.1,1,0,2018,4,25,20,27,20.993,-0.0737,0.2979,0.8543,-0.4192
0.003,0.004,0.008,-0.6,-1.4,1.1,0,2018,4,25,20,27,21.014,-0.0737,0.2977,0.8545,-0.4189
0.004,-0.001,0.007,-0.1,-1,0.9,0,2018,4,25,20,27,21.034,-0.0738,0.2976,0.8547,-0.4188
0.007,0,-0.002,0,0,0,0,2018,4,25,20,27,21.072,-0.0737,0.2975,0.8547,-0.4188
0.002,-0.001,0.006,0,0,0,0,2018,4,25,20,27,21.077,-0.0737,0.2974,0.8547,-0.4187
0.004,0.001,0.001,0,0,0,0,2018,4,25,20,27,21.092,-0.0736,0.2975,0.8547,-0.4189
0.004,0.006,0.006,0,0,0,0,2018,4,25,20,27,21.109,-0.0735,0.2975,0.8546,-0.419
0.005,0.01,0.008,0.1,0.2,0.7,0,2018,4,25,20,27,21.149,-0.0735,0.2974,0.8546,-0.4191
0.004,0.007,0.007,-0.1,-0.1,1.1,0,2018,4,25,20,27,21.168,-0.0735,0.2972,0.8547,-0.419
0.003,0.003,0.001,0,-0.6,1.4,0,2018,4,25,20,27,21.172,-0.0735,0.2969,0.8549,-0.4189
0.005,-0.004,0.002,0.1,-0.4,1.4,0,2018,4,25,20,27,21.209,-0.0735,0.2966,0.855,-0.4187
0.009,-0.003,0.006,0.3,0.6,1.1,0,2018,4,25,20,27,21.23,-0.0735,0.2963,0.8552,-0.4186
0.007,-0.003,0.006,0.3,1.4,0.7,0,2018,4,25,20,27,21.234,-0.0736,0.2961,0.8551,-0.4189
0.009,0,0.008,0.3,1.5,0.8,0,2018,4,25,20,27,21.273,-0.0735,0.2959,0.855,-0.4192
0.008,0.006,0.006,0.4,0.9,0.6,0,2018,4,25,20,27,21.277,-0.0735,0.2957,0.855,-0.4194
0.004,0.007,0.004,0.6,0.3,0.7,0,2018,4,25,20,27,21.293,-0.0734,0.2956,0.855,-0.4196
0.003,0.004,0.004,0.7,-0.1,0.5,0,2018,4,25,20,27,21.312,-0.0733,0.2953,0.8552,-0.4195
0.002,0.002,0.008,0.5,0.1,0.3,0,2018,4,25,20,27,21.333,-0.0732,0.2952,0.8551,-0.4196
0,0.001,0,0.6,0.3,0,0,2018,4,25,20,27,21.371,-0.0731,0.2951,0.8552,-0.4196
0,0.012,0.011,0.5,0.6,0,0,2018,4,25,20,27,21.391,-0.073,0.2949,0.8552,-0.4196
0.003,0.011,0.008,0,0,0,0,2018,4,25,20,27,21.395,-0.073,0.295,0.8552,-0.4197
0.003,0.01,0.005,0,-0.9,0.7,0,2018,4,25,20,27,21.413,-0.0729,0.2949,0.8552,-0.4197
0.001,0.003,-0.001,-0.1,-1.4,0.9,1023,2018,4,25,20,27,21.45,-0.0728,0.2948,0.8553,-0.4197
0.001,0.002,0.006,0,-1.3,0.8,1023,2018,4,25,20,27,21.47,-0.0728,0.2947,0.8554,-0.4196
0.003,-0.003,0.001,-0.1,-0.1,0.7,1023,2018,4,25,20,27,21.474,-0.0728,0.2946,0.8554,-0.4196
0.004,0.001,0.007,0,0.8,1,1023,2018,4,25,20,27,21.495,-0.0728,0.2945,0.8554,-0.4197
0.002,0.002,0.002,0,0.9,1,1023,2018,4,25,20,27,21.515,-0.0729,0.2943,0.8553,-0.4199
0.004,0.005,0.007,0.4,0.6,0.9,1023,2018,4,25,20,27,21.551,-0.0729,0.2941,0.8554,-0.4199
0.004,0.003,0.012,0.3,0.2,0.8,1023,2018,4,25,20,27,21.573,-0.0728,0.2938,0.8554,-0.42
0.009,0.003,0.004,0.3,0.2,0.6,1023,2018,4,25,20,27,21.577,-0.0728,0.2937,0.8554,-0.4201
0.007,0.003,0.015,0.3,0.4,0.5,1023,2018,4,25,20,27,21.595,-0.0727,0.2936,0.8554,-0.4204
0.005,0.001,0.009,0,0,0,1023,2018,4,25,20,27,21.614,-0.0726,0.2936,0.8552,-0.4206
0,0.006,0.011,0,0,0,0,2018,4,25,20,27,21.636,-0.0726,0.2936,0.8552,-0.4208
0,0.01,0.011,0,0,0,0,2018,4,25,20,27,21.674,-0.0725,0.2936,0.8551,-0.4209
0.004,0.006,0.008,-0.2,-0.8,0.3,0,2018,4,25,20,27,21.694,-0.0725,0.2935,0.8552,-0.4208
0.003,0.011,0.012,-0.6,-1.5,0.7,0,2018,4,25,20,27,21.698,-0.0725,0.2935,0.8553,-0.4206
0.003,0.004,0.011,-1,-1,1,0,2018,4,25,20,27,21.718,-0.0725,0.2934,0.8554,-0.4204
0.007,0.003,0.011,-0.8,0.2,0.9,0,2018,4,25,20,27,21.738,-0.0726,0.2934,0.8554,-0.4205
0.004,0.009,0.008,-0.8,0.4,0.8,0,2018,4,25,20,27,21.777,-0.0728,0.2933,0.8554,-0.4204
0.008,0.007,0.011,-0.8,0,1,0,2018,4,25,20,27,21.781,-0.0729,0.2931,0.8555,-0.4204
0.004,0.009,0.004,-0.9,-0.4,0.8,0,2018,4,25,20,27,21.796,-0.073,0.293,0.8556,-0.4202
0.01,0.007,0.005,-0.9,-0.7,0.7,0,2018,4,25,20,27,21.817,-0.0731,0.2929,0.8558,-0.42
0.008,0.005,0.002,-1.1,-0.5,0.2,0,2018,4,25,20,27,21.835,-0.0732,0.2928,0.8559,-0.4198
0.009,0.001,0,-1.1,-0.8,0,0,2018,4,25,20,27,21.875,-0.0732,0.2929,0.8559,-0.4197
0.006,0.004,0,-0.7,-0.7,0.2,0,2018,4,25,20,27,21.896,-0.0732,0.293,0.8559,-0.4196
0.005,0.002,-0.001,-0.1,-1,0.3,0,2018,4,25,20,27,21.901,-0.0732,0.293,0.856,-0.4193
0.002,-0.001,0,0.4,-1.3,0.2,0,2018,4,25,20,27,21.918,-0.073,0.293,0.8561,-0.4192
0.001,-0.003,0,1.2,-1.2,0.5,0,2018,4,25,20,27,21.938,-0.0728,0.2928,0.8562,-0.4191
0.008,-0.004,0.01,1.7,0,0.7,0,2018,4,25,20,27,21.979,-0.0726,0.2925,0.8564,-0.4191
0.01,0,0.017,1.5,0.5,0.7,0,2018,4,25,20,27,21.983,-0.0723,0.2922,0.8564,-0.4192
0.009,0.004,0.01,1.4,0.6,0.4,0,2018,4,25,20,27,21.998,-0.0721,0.292,0.8563,-0.4196
0.006,0.004,0.005,0.9,0.3,0.5,0,2018,4,25,20,27,22.017,-0.0719,0.2919,0.8562,-0.4199
0.001,0.004,0.006,0.8,0,0.5,0,2018,4,25,20,27,22.038,-0.0717,0.2918,0.8562,-0.4201
-0.001,0.001,0.001,0.5,-0.7,0.2,0,2018,4,25,20,27,22.075,-0.0716,0.2917,0.8563,-0.4201
0.001,0,0.007,0.9,-0.6,0,0,2018,4,25,20,27,22.08,-0.0714,0.2917,0.8562,-0.4202
0.003,0.002,0.007,0.6,-0.2,-0.5,0,2018,4,25,20,27,22.097,-0.0712,0.2916,0.8563,-0.4202
0,0.005,0.009,0,0,0,0,2018,4,25,20,27,22.135,-0.0711,0.2915,0.8563,-0.4201
0.004,0.007,0.015,0,0,0,1023,2018,4,25,20,27,22.155,-0.071,0.2915,0.8563,-0.4202
0,0.007,0.012,0,0,0,1023,2018,4,25,20,27,22.159,-0.071,0.2916,0.8562,-0.4204
-0.002,0.009,0.01,0,0,0.5,1023,2018,4,25,20,27,22.179,-0.0709,0.2915,0.8562,-0.4205
0,0.006,0.006,-0.2,0.2,0.7,1023,2018,4,25,20,27,22.199,-0.071,0.2914,0.8562,-0.4205
0.001,0.01,0.003,-0.4,-0.3,0.7,1023,2018,4,25,20,27,22.237,-0.0711,0.2913,0.8562,-0.4205
0.003,0.008,0.005,-0.5,-1.3,0.6,1023,2018,4,25,20,27,22.241,-0.0711,0.2912,0.8564,-0.4202
0.002,0.004,0.004,-0.5,-1.6,0.2,1023,2018,4,25,20,27,22.259,-0.071,0.2912,0.8565,-0.4201
0.009,0.003,0.008,-0.7,-1.3,0,1023,2018,4,25,20,27,22.298,-0.071,0.2913,0.8565,-0.4199
0.011,0.002,0.014,-0.7,-1.6,-0.2,0,2018,4,25,20,27,22.319,-0.0709,0.2914,0.8565,-0.4198
0.008,0.004,0,-0.8,-2,0,0,2018,4,25,20,27,22.323,-0.0708,0.2915,0.8567,-0.4195
0.009,0,0.001,-0.3,-1.6,0.3,0,2018,4,25,20,27,22.339,-0.0707,0.2915,0.8568,-0.4192
0.008,0,0.007,0,-1.9,0.3,0,2018,4,25,20,27,22.377,-0.0706,0.2914,0.857,-0.4189
0.005,-0.005,0,0.1,-0.9,0.5,0,2018,4,25,20,27,22.397,-0.0704,0.2913,0.8571,-0.4187
0.008,-0.004,0,0.4,0,0.6,0,2018,4,25,20,27,22.401,-0.0704,0.2911,0.8572,-0.4186
0.004,-0.001,0.003,0.9,0,0.6,0,2018,4,25,20,27,22.44,-0.0702,0.2908,0.8574,-0.4186
0.011,0.002,0.003,0.9,0.2,0.2,0,2018,4,25,20,27,22.459,-0.0701,0.2907,0.8574,-0.4187
0.008,0.004,0.015,0.8,0.9,-0.1,0,2018,4,25,20,27,22.464,-0.0699,0.2906,0.8574,-0.4188
-0.001,0.008,0.011,0.6,0.9,-0.3,0,2018,4,25,20,27,22.479,-0.0698,0.2904,0.8574,-0.4189
-0.003,0.013,0.01,-0.1,0.8,-0.2,0,2018,4,25,20,27,22.517,-0.0697,0.2904,0.8573,-0.4191
-0.004,0.014,0.018,-0.7,0.3,0,0,2018,4,25,20,27,22.538,-0.0698,0.2905,0.8572,-0.4193
-0.007,0.015,0.01,-1.3,0,0.3,0,2018,4,25,20,27,22.542,-0.07,0.2905,0.8572,-0.4193
-0.005,0.008,0.009,-1.6,-0.6,0.5,0,2018,4,25,20,27,22.562,-0.0702,0.2904,0.8573,-0.4191
-0.005,0.003,0.009,-2,-1,0.6,0,2018,4,25,20,27,22.582,-0.0705,0.2904,0.8574,-0.4188
-0.003,0.003,0.008,-2,-0.9,0.5,0,2018,4,25,20,27,22.603,-0.0709,0.2904,0.8575,-0.4186
-0.005,0,0.008,-1.9,-0.8,0.5,0,2018,4,25,20,27,22.643,-0.0712,0.2904,0.8575,-0.4184
0.003,0.001,0.006,-2,-0.8,0.5,0,2018,4,25,20,27,22.646,-0.0714,0.2905,0.8575,-0.4184
0.006,0,0.004,-1.5,-1.2,0.5,0,2018,4,25,20,27,22.661,-0.0716,0.2906,0.8575,-0.4182
0.013,-0.003,0,-1.2,-1.6,0.2,0,2018,4,25,20,27,22.679,-0.0717,0.2906,0.8576,-0.418
0.016,-0.003,0.004,-1,-1.3,-0.2,0,2018,4,25,20,27,22.717,-0.0716,0.2908,0.8576,-0.4179
0.018,-0.006,0.002,-0.6,-0.8,-0.3,0,2018,4,25,20,27,22.737,-0.0715,0.2909,0.8576,-0.4178
0.017,-0.004,0,-0.4,-0.6,-0.7,0,2018,4,25,20,27,22.74,-0.0714,0.2911,0.8575,-0.4179
0.015,-0.005,0,0.1,-0.4,-1.1,0,2018,4,25,20,27,22.779,-0.0711,0.2913,0.8575,-0.4179
0.01,-0.005,0,0.6,0.6,-1.1,0,2018,4,25,20,27,22.799,-0.0709,0.2914,0.8574,-0.418
0.005,0.008,0.001,1,0.5,-1.2,1023,2018,4,25,20,27,22.802,-0.0706,0.2915,0.8574,-0.4181
0.004,0.013,0.005,1.3,-0.6,-1,1023,2018,4,25,20,27,22.841,-0.0703,0.2916,0.8573,-0.4182
0.003,0.016,0.005,1.3,-2.4,-0.8,1023,2018,4,25,20,27,22.859,-0.0698,0.2917,0.8574,-0.4181
-0.002,0.016,0.009,0.7,-2.5,-0.5,1023,2018,4,25,20,27,22.862,-0.0694,0.2918,0.8575,-0.4178
-0.007,0.017,0.013,0.1,-2.2,-0.6,1023,2018,4,25,20,27,22.901,-0.0691,0.2918,0.8577,-0.4175
-0.005,0.015,0.011,-0.6,-3,-0.7,1023,2018,4,25,20,27,22.922,-0.069,0.2919,0.8579,-0.4171
-0.003,0.018,0.011,-1.4,-3.4,-0.3,1023,2018,4,25,20,27,22.925,-0.0689,0.2921,0.8581,-0.4165
0.001,0.016,0.006,-1.8,-3.6,-0.1,1023,2018,4,25,20,27,22.94,-0.0689,0.2922,0.8584,-0.4158
0.001,0.008,0.006,-2,-3.6,0.3,1023,2018,4,25,20,27,22.979,-0.069,0.2924,0.8586,-0.4152
0.002,0.002,0.01,-1.6,-4.1,0.1,0,2018,4,25,20,27,23,-0.0691,0.2926,0.8587,-0.4147
0.005,-0.001,0,-1,-4.9,0.1,0,2018,4,25,20,27,23.003,-0.069,0.2927,0.8591,-0.414
0.012,-0.006,0.003,-0.6,-3.9,0.3,0,2018,4,25,20,27,23.042,-0.0689,0.2928,0.8594,-0.4134
0.014,-0.009,0.004,-0.4,-1.2,0.5,0,2018,4,25,20,27,23.062,-0.0687,0.2928,0.8595,-0.4131
0.003,-0.011,0.001,-0.3,0,0.5,0,2018,4,25,20,27,23.064,-0.0688,0.2927,0.8595,-0.4132
0.008,-0.006,0.003,-0.2,0.2,0.8,0,2018,4,25,20,27,23.103,-0.0688,0.2926,0.8594,-0.4133
0.016,-0.01,0.009,0,0.8,0.7,0,2018,4,25,20,27,23.123,-0.0688,0.2925,0.8594,-0.4136
0.011,-0.005,0.006,0.1,1,0.6,0,2018,4,25,20,27,23.127,-0.0688,0.2924,0.8593,-0.4138
0.01,-0.004,0.007,0.4,1.1,0.2,0,2018,4,25,20,27,23.164,-0.0688,0.2923,0.8592,-0.4141
0.011,-0.004,0.002,0.7,1.3,0,0,2018,4,25,20,27,23.169,-0.0687,0.2922,0.8591,-0.4144
0.011,-0.003,0.002,0.8,2.1,-0.4,0,2018,4,25,20,27,23.185,-0.0685,0.2922,0.8589,-0.4148
0.008,0.002,0.004,1.1,2.6,-0.9,0,2018,4,25,20,27,23.223,-0.0683,0.2922,0.8586,-0.4154
0.007,0.013,0.008,0.9,1.8,-0.8,0,2018,4,25,20,27,23.244,-0.0681,0.2923,0.8584,-0.4159
0.007,0.013,0.005,0.7,1.4,-0.5,0,2018,4,25,20,27,23.248,-0.068,0.2923,0.8583,-0.4162
0,0.015,-0.001,0.8,0.4,-0.2,0,2018,4,25,20,27,23.266,-0.0678,0.2922,0.8582,-0.4163
-0.005,0.015,0.002,1,0,0.1,0,2018,4,25,20,27,23.303,-0.0677,0.2922,0.8582,-0.4164
-0.006,0.017,0.004,0.7,0,0.3,0,2018,4,25,20,27,23.323,-0.0676,0.292,0.8584,-0.4162
-0.002,0.016,0.007,0.4,-0.1,0.8,0,2018,4,25,20,27,23.327,-0.0675,0.2919,0.8583,-0.4163
0,0.015,0.004,0.3,-0.6,1.4,0,2018,4,25,20,27,23.362,-0.0674,0.2918,0.8584,-0.4164
0,0.013,0.004,0.5,-0.2,2.1,0,2018,4,25,20,27,23.366,-0.0674,0.2915,0.8585,-0.4163
0.004,0.012,0.007,0.6,0.6,2.3,0,2018,4,25,20,27,23.384,-0.0675,0.2912,0.8586,-0.4164
0,0.014,0.006,0.9,0.6,3,0,2018,4,25,20,27,23.423,-0.0675,0.2908,0.8586,-0.4166
0,0.009,0.008,1.2,0.5,3.6,0,2018,4,25,20,27,23.443,-0.0676,0.2902,0.8587,-0.4168
0.002,0.007,0.011,1.4,1.5,4.1,0,2018,4,25,20,27,23.447,-0.0677,0.2895,0.8588,-0.417
0.003,-0.002,0.019,2,5,4.3,1023,2018,4,25,20,27,23.467,-0.0679,0.2887,0.8587,-0.4178
0.007,-0.015,0.032,2.1,9.3,3.9,1023,2018,4,25,20,27,23.488,-0.0683,0.2877,0.8583,-0.4192
0,-0.02,0.025,1.5,14.4,4.2,1023,2018,4,25,20,27,23.508,-0.0689,0.2868,0.8575,-0.4213
-0.003,-0.012,0.026,1.8,18.6,4.6,1023,2018,4,25,20,27,23.527,-0.0699,0.2857,0.8564,-0.4242
-0.009,0,0.032,2,23.2,5.7,1023,2018,4,25,20,27,23.566,-0.0712,0.2844,0.8551,-0.4275
-0.021,0.015,0.038,1.7,25.8,6.9,1023,2018,4,25,20,27,23.586,-0.0728,0.2828,0.8535,-0.4313
-0.007,0.031,0.004,1,21.2,7.7,1023,2018,4,25,20,27,23.59,-0.0744,0.2812,0.8521,-0.435
0.008,0.03,-0.023,-0.2,10.7,7.9,1023,2018,4,25,20,27,23.628,-0.0756,0.2799,0.8513,-0.4371
0.011,0.014,-0.026,-0.6,4.3,7.3,1023,2018,4,25,20,27,23.648,-0.0764,0.2788,0.8512,-0.4378
0.005,0.006,-0.025,-0.6,2.2,5.4,0,2018,4,25,20,27,23.652,-0.077,0.2779,0.8514,-0.438
0.017,0.01,-0.013,-1.2,0.2,3.5,0,2018,4,25,20,27,23.666,-0.0774,0.2774,0.8515,-0.438
0.027,0.01,0.001,-2,-2.3,2.6,0,2018,4,25,20,27,23.701,-0.0775,0.2773,0.8517,-0.4377
0.019,-0.003,0,-3,-3.8,2.2,0,2018,4,25,20,27,23.722,-0.0777,0.2772,0.852,-0.4371
0.02,-0.01,0.006,-3.1,-4.2,1.3,0,2018,4,25,20,27,23.727,-0.078,0.2773,0.8523,-0.4364
0.012,-0.017,0.003,-2.4,-3.5,0.9,0,2018,4,25,20,27,23.766,-0.0782,0.2773,0.8526,-0.4357
0.017,-0.019,0.005,-1.4,-1.3,0.6,0,2018,4,25,20,27,23.787,-0.0783,0.2774,0.8527,-0.4354
0.015,-0.021,0.022,-0.6,-0.2,0,0,2018,4,25,20,27,23.79,-0.0784,0.2774,0.8527,-0.4354
0.018,-0.008,0.014,-0.2,0.5,-0.3,0,2018,4,25,20,27,23.827,-0.0783,0.2775,0.8526,-0.4357
0.008,-0.014,0.036,0.2,0.4,-1.1,0,2018,4,25,20,27,23.847,-0.0782,0.2776,0.8524,-0.4361
-0.001,-0.05,0.09,-1.5,-0.9,-4.8,0,2018,4,25,20,27,23.85,-0.0781,0.2778,0.852,-0.4366
-0.021,-0.103,0.14,-8.8,-1.3,-12,0,2018,4,25,20,27,23.869,-0.0785,0.2791,0.8511,-0.4375
-0.045,-0.105,0.156,-20.4,-1.7,-21.7,0,2018,4,25,20,27,23.887,-0.0793,0.2828,0.8501,-0.4368
-0.059,-0.179,0.184,-31.5,-11.5,-34,0,2018,4,25,20,27,23.925,-0.0809,0.289,0.8488,-0.4352
-0.107,-0.171,0.192,-40.6,-15.7,-42.6,0,2018,4,25,20,27,23.947,-0.0826,0.2977,0.8474,-0.4317
-0.147,-0.221,0.229,-49.9,2.4,-50.5,0,2018,4,25,20,27,23.951,-0.0854,0.308,0.845,-0.4285
-0.189,-0.189,0.26,-60.1,32.9,-54.6,0,2018,4,25,20,27,23.97,-0.0906,0.3196,0.84,-0.4288
-0.23,-0.224,0.293,-70.6,64.2,-58.5,0,2018,4,25,20,27,24.007,-0.0987,0.3319,0.832,-0.4333
-0.222,-0.17,0.217,-77.9,75.8,-59.9,0,2018,4,25,20,27,24.027,-0.1093,0.3449,0.8215,-0.4406
-0.205,-0.088,0.163,-80.6,55.3,-58.3,0,2018,4,25,20,27,24.031,-0.1201,0.3583,0.811,-0.4465
-0.177,-0.086,0.18,-82.4,38.2,-54.2,0,2018,4,25,20,27,24.07,-0.13,0.3716,0.8021,-0.4488
-0.183,-0.172,0.225,-88.5,52,-55.1,0,2018,4,25,20,27,24.074,-0.1404,0.3849,0.7932,-0.4504
-0.197,-0.221,0.185,-99.2,85.4,-60.4,0,2018,4,25,20,27,24.091,-0.1534,0.3984,0.7814,-0.455
-0.193,-0.18,0.07,-108.2,114.3,-64.7,0,2018,4,25,20,27,24.11,-0.1697,0.4124,0.7658,-0.4632
-0.195,-0.113,-0.011,-111.4,121.6,-65.3,1023,2018,4,25,20,27,24.129,-0.1877,0.4264,0.7475,-0.4732
-0.225,-0.107,0.086,-116.4,116.2,-65.8,1023,2018,4,25,20,27,24.17,-0.2057,0.4404,0.7285,-0.4824
-0.246,-0.14,0.207,-131,120.2,-68.6,1023,2018,4,25,20,27,24.189,-0.2245,0.4551,0.7085,-0.4903
-0.247,-0.098,0.153,-149.9,124.3,-72.2,1023,2018,4,25,20,27,24.194,-0.2454,0.471,0.6861,-0.497
-0.243,0.012,0.051,-165.9,112.2,-70,1023,2018,4,25,20,27,24.213,-0.2677,0.4882,0.6623,-0.5012
-0.217,0.054,0.011,-178.1,92.6,-62.1,1023,2018,4,25,20,27,24.234,-0.2902,0.5061,0.6389,-0.5013
-0.208,0.116,-0.036,-186.2,75.1,-52,1023,2018,4,25,20,27,24.254,-0.3125,0.5243,0.6165,-0.4972
-0.192,0.171,-0.122,-189.5,64.7,-39.1,1023,2018,4,25,20,27,24.274,-0.3347,0.5418,0.5953,-0.4898
-0.197,0.166,-0.193,-185.7,64.4,-24.7,1023,2018,4,25,20,27,24.293,-0.357,0.5575,0.5751,-0.4804
-0.195,0.052,-0.266,-178.4,67.5,-15.7,1023,2018,4,25,20,27,24.316,-0.3799,0.5703,0.5559,-0.4703
-0.181,0.069,-0.28,-167.7,56.4,-10.5,0,2018,4,25,20,27,24.353,-0.4017,0.5813,0.5377,-0.4598
-0.144,0.117,-0.245,-157.5,25.7,-7.5,0,2018,4,25,20,27,24.358,-0.4202,0.592,0.5219,-0.4477
-0.106,0.112,-0.307,-151.2,-5.4,-7.5,0,2018,4,25,20,27,24.374,-0.4343,0.6039,0.509,-0.4329
-0.064,0.043,-0.392,-142,-14.3,-8.8,0,2018,4,25,20,27,24.412,-0.4453,0.6164,0.4978,-0.4168
-0.009,0.038,-0.45,-128.2,-10.2,-11.9,0,2018,4,25,20,27,24.416,-0.4549,0.6279,0.4869,-0.4019
0.063,0.111,-0.525,-111.6,-14.4,-13,0,2018,4,25,20,27,24.432,-0.4628,0.6382,0.4766,-0.3888
0.146,0.142,-0.641,-90.4,-30.7,-12.9,0,2018,4,25,20,27,24.454,-0.4677,0.6479,0.4685,-0.3766
0.181,0.137,-0.718,-65.3,-39.3,-11.8,0,2018,4,25,20,27,24.474,-0.4691,0.6568,0.4631,-0.3659
0.204,0.194,-0.788,-37.9,-42.7,-10,0,2018,4,25,20,27,24.493,-0.4677,0.6644,0.4602,-0.3576
0.186,0.236,-0.84,-5.5,-38.7,-4.4,0,2018,4,25,20,27,24.515,-0.4641,0.6697,0.4602,-0.3523
0.129,0.258,-0.842,27,-26.3,1.4,0,2018,4,25,20,27,24.555,-0.4593,0.6717,0.463,-0.3512
0.06,0.3,-0.873,58.2,-30.7,5.2,0,2018,4,25,20,27,24.575,-0.4529,0.6709,0.4684,-0.3538
0.021,0.365,-0.898,90.4,-53.2,13.4,0,2018,4,25,20,27,24.579,-0.4423,0.6687,0.478,-0.3585
-0.035,0.39,-0.871,121.3,-77.6,27,0,2018,4,25,20,27,24.594,-0.4268,0.6653,0.4926,-0.3637
-0.124,0.344,-0.8,148.7,-87.4,43.9,0,2018,4,25,20,27,24.639,-0.4074,0.6596,0.5121,-0.3695
-0.237,0.292,-0.758,172.9,-86.2,60,0,2018,4,25,20,27,24.642,-0.3861,0.6503,0.5349,-0.3764
-0.352,0.299,-0.706,195.5,-94.3,78,0,2018,4,25,20,27,24.655,-0.3629,0.6372,0.5608,-0.3841
-0.44,0.225,-0.654,214.5,-98.1,99.2,0,2018,4,25,20,27,24.692,-0.3376,0.6203,0.5898,-0.3915
-0.544,0.192,-0.57,229.5,-98.1,118.3,0,2018,4,25,20,27,24.712,-0.3111,0.5989,0.6208,-0.3987
-0.581,0.194,-0.506,238.8,-80.4,138.3,0,2018,4,25,20,27,24.713,-0.2845,0.5729,0.6525,-0.406
-0.587,0.18,-0.434,247.4,-41.1,157.4,0,2018,4,25,20,27,24.749,-0.2608,0.5411,0.6828,-0.4157
-0.631,0.124,-0.357,256.6,0.9,173,0,2018,4,25,20,27,24.769,-0.2406,0.5031,0.7102,-0.4294
-0.818,0.02,-0.39,271.3,-20.7,176.4,0,2018,4,25,20,27,24.771,-0.2204,0.461,0.7357,-0.4443
-0.951,-0.033,-0.414,293.9,-79.9,188,0,2018,4,25,20,27,24.809,-0.1935,0.4171,0.7638,-0.4527
-1.009,-0.506,-0.254,318,-76.5,183.6,1023,2018,4,25,20,27,24.828,-0.1609,0.3699,0.7928,-0.4567
-0.992,-0.764,-0.118,338.3,-3.8,149.3,1023,2018,4,25,20,27,24.832,-0.1254,0.3212,0.8144,-0.4666
1.091,-2.482,-1.26,-9.4,-604.8,-71.1,1023,2018,4,25,20,27,24.871,-0.0933,0.313,0.8509,-0.4113
-0.198,-0.977,0.251,-40.6,-219.2,-3.8,1023,2018,4,25,20,27,24.891,-0.0667,0.3274,0.88,-0.3374
-0.168,-1.585,0.028,-63.9,372.6,-67.3,1023,2018,4,25,20,27,24.895,-0.0805,0.3344,0.8707,-0.3513
-0.054,0.364,0.038,-2,325.4,-41.6,1023,2018,4,25,20,27,24.932,-0.1049,0.3385,0.8403,-0.4101
