ax,ay,az,dpitch,droll,dyaw,heart,time_1,time_2,time_3,time_4,time_5,time_6,w,x,y,z
-0.114,-0.698,-0.065,40.9,-54.2,52,0,2018,4,25,20,16,59.359,-0.7546,0.3192,0.1526,-0.5525
-0.107,-0.737,-0.014,36.4,39.8,20.7,0,2018,4,25,20,16,59.364,-0.7562,0.3129,0.1643,-0.5505
-0.046,-0.423,0.037,32.7,69.3,-8.6,0,2018,4,25,20,16,59.366,-0.7587,0.2988,0.1666,-0.5542
-0.063,-0.323,0.094,26.1,14.3,-36.5,0,2018,4,25,20,16,59.383,-0.7572,0.2886,0.1692,-0.5608
-0.064,-0.442,0.06,22,-33.2,-63.9,0,2018,4,25,20,16,59.402,-0.7503,0.2876,0.1752,-0.5688
-0.084,-0.645,0.029,20,-35.6,-100.5,0,2018,4,25,20,16,59.423,-0.7388,0.2909,0.1812,-0.5801
-0.027,-0.599,0.036,23.5,-21,-136.8,0,2018,4,25,20,16,59.459,-0.7237,0.294,0.1848,-0.5962
-0.035,-0.388,0.168,20.1,-9.4,-164.7,0,2018,4,25,20,16,59.481,-0.7055,0.2965,0.185,-0.6164
-0.052,-0.223,0.238,7.6,-14.3,-186.7,0,2018,4,25,20,16,59.483,-0.6845,0.3,0.1824,-0.6388
0.02,-0.023,0.225,-4.3,-33.2,-197.5,1023,2018,4,25,20,16,59.526,-0.6608,0.3067,0.1778,-0.6614
0.027,0.133,0.248,-14.1,-45.2,-200,1023,2018,4,25,20,16,59.545,-0.6348,0.3167,0.1737,-0.6829
0.005,0.251,0.259,-25.4,-40.7,-193.2,1023,2018,4,25,20,16,59.549,-0.6085,0.3284,0.1691,-0.7022
-0.008,0.262,0.248,-38.2,-14.5,-180.9,1023,2018,4,25,20,16,59.569,-0.584,0.3395,0.1616,-0.7193
0.07,0.518,0.229,-51,12.3,-161.9,1023,2018,4,25,20,16,59.588,-0.5629,0.3485,0.1497,-0.7342
0.055,0.568,0.17,-60.9,20.7,-133.6,1023,2018,4,25,20,16,59.628,-0.5458,0.3569,0.1361,-0.7457
0.019,0.622,0.1,-63,23.6,-102.5,1023,2018,4,25,20,16,59.648,-0.5328,0.3645,0.1229,-0.7536
-0.011,0.608,0.038,-63,23.5,-70.8,1023,2018,4,25,20,16,59.652,-0.5238,0.3714,0.1115,-0.7583
-0.046,0.553,0.033,-62.6,33.7,-40.2,0,2018,4,25,20,16,59.666,-0.5191,0.3773,0.1015,-0.7601
-0.043,0.63,0.002,-65.1,59.3,-6.5,0,2018,4,25,20,16,59.686,-0.5198,0.3812,0.0909,-0.759
-0.051,0.642,-0.133,-61.8,83.3,27.8,0,2018,4,25,20,16,59.724,-0.5268,0.3819,0.0791,-0.7551
-0.084,0.625,-0.269,-46.1,87.8,62,0,2018,4,25,20,16,59.747,-0.5389,0.3795,0.0684,-0.7488
-0.121,0.546,-0.348,-24.3,86.4,93.9,0,2018,4,25,20,16,59.751,-0.555,0.3739,0.0615,-0.7404
-0.171,0.536,-0.388,1.1,64.6,122.4,0,2018,4,25,20,16,59.769,-0.5739,0.3657,0.06,-0.7301
-0.194,0.474,-0.416,26.3,24.7,146.9,0,2018,4,25,20,16,59.789,-0.5934,0.357,0.0669,-0.7182
-0.242,0.407,-0.422,51.2,-10,171.6,0,2018,4,25,20,16,59.808,-0.6128,0.3484,0.0826,-0.7044
-0.398,-0.025,-0.268,71.8,-12,179.1,0,2018,4,25,20,16,59.847,-0.6321,0.3385,0.1038,-0.6891
-0.513,-0.513,-0.135,78.1,5,155,0,2018,4,25,20,16,59.869,-0.6503,0.3252,0.1241,-0.6751
-0.437,-0.63,-0.11,76.1,41,127.1,0,2018,4,25,20,16,59.873,-0.6661,0.3092,0.1398,-0.6641
-0.433,-0.741,0.028,76.7,66.7,96.7,0,2018,4,25,20,16,59.886,-0.6798,0.2894,0.1502,-0.6568
-0.362,-0.823,0.195,72.6,32.9,50.3,0,2018,4,25,20,16,59.925,-0.6884,0.2711,0.1588,-0.6536
-0.255,-0.675,0.484,64,-35.6,4.5,0,2018,4,25,20,16,59.946,-0.6889,0.2616,0.1707,-0.654
0,-0.255,0.939,30.8,-104.8,-23.4,0,2018,4,25,20,16,59.95,-0.6824,0.2638,0.1864,-0.6557
0.392,-0.347,1.204,-27.7,-146.3,-46.1,0,2018,4,25,20,16,59.97,-0.6719,0.2788,0.2018,-0.6557
0.655,-0.634,1.045,-73.8,-145.8,-81.8,0,2018,4,25,20,16,59.99,-0.6583,0.3033,0.2121,-0.6553
0.57,-0.739,1.009,-114,-84.6,-130.9,0,2018,4,25,20,17,0.025,-0.6423,0.331,0.2095,-0.6587
0.474,-0.397,0.996,-153.4,-13.4,-166.6,0,2018,4,25,20,17,0.045,-0.6264,0.3556,0.1912,-0.6667
0.299,-0.055,0.812,-185.8,-14.3,-185.2,0,2018,4,25,20,17,0.052,-0.6101,0.3809,0.1646,-0.6749
0.209,0.028,0.481,-195.2,-54.9,-193.8,0,2018,4,25,20,17,0.09,-0.5901,0.4113,0.1374,-0.6808
0.08,-0.023,0.187,-181.5,-88.1,-200.7,0,2018,4,25,20,17,0.094,-0.565,0.4447,0.1143,-0.6854
-0.033,-0.113,0.003,-156.5,-92.7,-204.7,0,2018,4,25,20,17,0.111,-0.5356,0.4772,0.0935,-0.6903
-0.123,-0.192,-0.15,-128.6,-71.4,-203.1,0,2018,4,25,20,17,0.131,-0.5058,0.5043,0.0747,-0.6957
-0.1,-0.124,-0.356,-93.2,-53.5,-197.2,1023,2018,4,25,20,17,0.15,-0.4773,0.5247,0.0559,-0.7026
-0.018,0.055,-0.49,-47.5,-53.9,-183.6,1023,2018,4,25,20,17,0.188,-0.4494,0.5387,0.0404,-0.7113
-0.068,0.178,-0.489,-1.2,-72.2,-161.9,1023,2018,4,25,20,17,0.208,-0.4224,0.5468,0.0308,-0.7222
-0.174,0.249,-0.439,33,-112.6,-132.8,1023,2018,4,25,20,17,0.212,-0.3947,0.5516,0.0307,-0.734
-0.273,0.155,-0.362,55,-145.8,-103.8,1023,2018,4,25,20,17,0.23,-0.3663,0.5552,0.0406,-0.7455
-0.449,0.018,-0.321,66.3,-157.6,-80,0,2018,4,25,20,17,0.252,-0.3389,0.5571,0.0565,-0.7559
-0.599,-0.115,-0.37,67.1,-137.9,-63,0,2018,4,25,20,17,0.273,-0.3141,0.5574,0.0742,-0.7648
-0.721,-0.167,-0.35,67,-97.3,-58.2,0,2018,4,25,20,17,0.293,-0.2939,0.5552,0.0883,-0.7729
-0.712,0.029,-0.397,67.3,-84.9,-58.3,0,2018,4,25,20,17,0.313,-0.2764,0.5513,0.0989,-0.7808
-0.727,0.025,-0.412,69.3,-56.5,-61.1,0,2018,4,25,20,17,0.333,-0.2599,0.5462,0.1075,-0.7889
-0.769,-0.247,-0.022,55.7,-9.1,-79.8,0,2018,4,25,20,17,0.351,-0.2463,0.5397,0.1087,-0.7975
-0.635,-0.312,0.165,29.3,-4.7,-102.4,0,2018,4,25,20,17,0.372,-0.2322,0.5355,0.1033,-0.8053
-0.618,-0.099,0.242,1.8,-19.5,-115,0,2018,4,25,20,17,0.392,-0.2153,0.5355,0.0963,-0.8108
-0.528,0.021,0.218,-21.5,-30.2,-114.6,0,2018,4,25,20,17,0.412,-0.1965,0.5398,0.0897,-0.8135
-0.467,0.057,0.089,-34,-30.9,-109.4,0,2018,4,25,20,17,0.449,-0.1781,0.5465,0.0832,-0.814
-0.373,0.075,-0.04,-34.6,-31.2,-98.9,0,2018,4,25,20,17,0.469,-0.1607,0.5538,0.0773,-0.8132
-0.264,0.083,-0.093,-25.4,-13.2,-85.1,0,2018,4,25,20,17,0.473,-0.1445,0.5593,0.0695,-0.8132
-0.164,0.061,-0.137,-15.7,19.7,-68.1,0,2018,4,25,20,17,0.495,-0.1325,0.5632,0.0597,-0.8133
-0.127,0.075,-0.121,-5.8,55.2,-48.2,0,2018,4,25,20,17,0.514,-0.1265,0.565,0.0465,-0.8139
-0.127,0.198,-0.071,3.3,53.6,-28.3,0,2018,4,25,20,17,0.531,-0.1267,0.5641,0.0348,-0.8151
-0.072,0.249,-0.077,12.9,17.9,-7.5,0,2018,4,25,20,17,0.551,-0.1277,0.5621,0.0289,-0.8165
0.016,0.227,-0.088,17.2,-5.9,11.7,0,2018,4,25,20,17,0.586,-0.1283,0.5598,0.0297,-0.818
0.064,0.15,-0.134,22.2,-6,27.2,0,2018,4,25,20,17,0.607,-0.1303,0.557,0.0337,-0.8195
0.075,0.142,-0.069,25,14.8,41.1,0,2018,4,25,20,17,0.611,-0.1355,0.5531,0.0374,-0.821
0.026,0.189,0.006,22.7,18.6,55,0,2018,4,25,20,17,0.652,-0.144,0.5488,0.0406,-0.8224
-0.015,0.25,0.03,18.5,11.7,69.7,0,2018,4,25,20,17,0.672,-0.1544,0.5449,0.0452,-0.8228
0,0.25,0.011,13.8,2.2,85,0,2018,4,25,20,17,0.677,-0.1661,0.5417,0.0524,-0.8222
0.025,0.184,-0.074,13.6,-2.4,97.8,0,2018,4,25,20,17,0.695,-0.1791,0.5389,0.0618,-0.8207
0.045,0.109,-0.067,12.4,-3.8,108.8,0,2018,4,25,20,17,0.731,-0.1934,0.5358,0.073,-0.8185
0.028,0.063,-0.109,13.6,-7.7,117.5,1023,2018,4,25,20,17,0.751,-0.2075,0.5333,0.0834,-0.8157
-0.015,0.089,-0.141,16.4,-24.6,130.4,1023,2018,4,25,20,17,0.755,-0.2231,0.5299,0.0979,-0.8122
-0.083,0.183,-0.136,23.4,-48.9,149.6,1023,2018,4,25,20,17,0.773,-0.2391,0.5258,0.1173,-0.8077
-0.154,0.113,-0.062,34.3,-58.6,172.4,1023,2018,4,25,20,17,0.81,-0.2556,0.5204,0.1413,-0.8023
-0.182,-0.044,0.031,42.8,-29.3,193.3,1023,2018,4,25,20,17,0.831,-0.2754,0.5117,0.1656,-0.7967
-0.21,-0.065,0.01,53,12.9,213.3,1023,2018,4,25,20,17,0.835,-0.3015,0.4987,0.1878,-0.7905
-0.249,0.036,0.016,63.9,3.9,232.8,1023,2018,4,25,20,17,0.854,-0.3314,0.4817,0.2092,-0.7837
-0.303,0.139,0.031,64.7,-78.2,253.1,1023,2018,4,25,20,17,0.893,-0.359,0.465,0.239,-0.773
-0.35,-0.062,-0.013,50.6,-153.2,271.2,0,2018,4,25,20,17,0.913,-0.3815,0.4529,0.2812,-0.755
-0.358,-0.301,-0.011,25.2,-147.6,280.3,0,2018,4,25,20,17,0.917,-0.4031,0.4434,0.3267,-0.7307
-0.275,-0.3,-0.002,-4.8,-102.7,280.6,0,2018,4,25,20,17,0.937,-0.4281,0.4336,0.3655,-0.7035
-0.165,-0.264,-0.02,-31.5,-53.4,277.2,0,2018,4,25,20,17,0.956,-0.4572,0.4227,0.3951,-0.6753
-0.055,-0.155,-0.024,-51.1,-4.1,271.7,0,2018,4,25,20,17,0.994,-0.4898,0.4096,0.4158,-0.6475
0.065,0.01,0.016,-59.1,24.8,260.5,0,2018,4,25,20,17,1.012,-0.5235,0.3952,0.4279,-0.6216
0.238,0.228,0.207,-60.8,33.3,249.9,0,2018,4,25,20,17,1.017,-0.557,0.3789,0.4369,-0.596
0.367,0.299,0.383,-61.9,51.6,246,0,2018,4,25,20,17,1.035,-0.5895,0.3609,0.4439,-0.5701
0.496,0.252,0.384,-56.5,91.2,241.4,0,2018,4,25,20,17,1.074,-0.6221,0.3392,0.447,-0.5458
0.51,-0.273,0.252,-36.2,135.3,209.6,0,2018,4,25,20,17,1.093,-0.6537,0.3117,0.4451,-0.5266
0.732,-0.319,0.273,-6,162.8,163.2,0,2018,4,25,20,17,1.097,-0.6799,0.2805,0.4396,-0.5154
0.729,-0.242,0.353,19.8,124.9,117.5,0,2018,4,25,20,17,1.116,-0.6984,0.2502,0.4349,-0.5102
0.566,-0.614,0.329,27.8,71.2,75.1,0,2018,4,25,20,17,1.136,-0.7087,0.2279,0.435,-0.5063
0.256,-1.429,0.165,19,114.2,7.9,0,2018,4,25,20,17,1.174,-0.7136,0.2113,0.4332,-0.5082
0.104,-1.382,0.239,6.6,211.8,-60.6,0,2018,4,25,20,17,1.194,-0.7157,0.19,0.4199,-0.5246
0.061,-0.795,0.314,-23.9,217.1,-113.5,0,2018,4,25,20,17,1.198,-0.7145,0.1681,0.396,-0.5516
0.111,-0.284,0.168,-55,128.7,-142.4,0,2018,4,25,20,17,1.219,-0.7092,0.1578,0.3706,-0.5785
0.123,-0.132,-0.067,-69.6,9.3,-152.8,0,2018,4,25,20,17,1.239,-0.6993,0.1649,0.3532,-0.599
0.149,-0.137,-0.239,-66,-55,-157.4,0,2018,4,25,20,17,1.255,-0.6858,0.184,0.3443,-0.614
0.177,-0.18,-0.353,-44.2,-101,-154.2,0,2018,4,25,20,17,1.292,-0.6512,0.2331,0.3415,-0.6362
0.19,-0.198,-0.387,-27.4,-100.1,-156.9,0,2018,4,25,20,17,1.313,-0.6315,0.2569,0.343,-0.646
0.247,-0.334,-0.407,-7.1,-73.4,-162.7,0,2018,4,25,20,17,1.317,-0.6101,0.2771,0.3448,-0.6573
0.226,-0.289,-0.381,18.1,-26.5,-167.3,1023,2018,4,25,20,17,1.337,-0.5878,0.2909,0.3438,-0.6719
0.149,-0.001,-0.208,36.7,27.2,-159.3,1023,2018,4,25,20,17,1.376,-0.5666,0.2962,0.3387,-0.6902
0.063,0.271,-0.178,50.8,43.1,-133,1023,2018,4,25,20,17,1.398,-0.5478,0.2953,0.3319,-0.7088
0.059,0.531,-0.202,63.6,39.6,-95.5,1023,2018,4,25,20,17,1.402,-0.5324,0.29,0.3266,-0.725
0.098,0.553,-0.175,76.9,30.2,-43.4,1023,2018,4,25,20,17,1.42,-0.521,0.2815,0.3264,-0.7366
0.06,0.379,-0.023,87.2,54,4.7,1023,2018,4,25,20,17,1.439,-0.5161,0.2676,0.328,-0.7445
-0.016,0.424,0.065,93.9,25.6,43.9,1023,2018,4,25,20,17,1.46,-0.5159,0.2502,0.3325,-0.7487
-0.212,-0.183,-0.088,109.2,31.6,71.1,0,2018,4,25,20,17,1.495,-0.5186,0.2311,0.3419,-0.7487
-0.546,-0.641,-0.043,119.7,114.6,56,0,2018,4,25,20,17,1.517,-0.5228,0.2049,0.346,-0.7515
-0.674,-0.596,0.05,131.1,141.1,24,0,2018,4,25,20,17,1.521,-0.525,0.1725,0.3413,-0.7602
-0.84,-0.63,0.22,123.1,97.9,-24.8,0,2018,4,25,20,17,1.54,-0.5204,0.1437,0.3375,-0.771
-1.01,-0.709,0.398,99.5,37.1,-86.8,0,2018,4,25,20,17,1.558,-0.5071,0.1256,0.3384,-0.7825
-1.03,-0.605,0.488,56,2.6,-138.9,0,2018,4,25,20,17,1.596,-0.4868,0.1197,0.3411,-0.7951
-0.888,-0.326,0.288,16.1,-17.6,-176.3,0,2018,4,25,20,17,1.615,-0.462,0.1249,0.3421,-0.8086
-0.669,-0.037,0.004,5.6,-75.1,-202.8,0,2018,4,25,20,17,1.619,-0.433,0.1381,0.345,-0.8211
-0.658,0.02,-0.047,6.1,-137.9,-217.4,0,2018,4,25,20,17,1.64,-0.3992,0.158,0.3562,-0.8298
-0.619,0.131,0.007,13.1,-182.1,-224.4,0,2018,4,25,20,17,1.66,-0.3613,0.1813,0.3744,-0.8344
-0.647,0.209,0.146,20.8,-213.4,-228.3,0,2018,4,25,20,17,1.699,-0.3201,0.2057,0.3974,-0.8349
-0.653,0.28,0.152,21.1,-211,-227.3,0,2018,4,25,20,17,1.703,-0.277,0.2301,0.4213,-0.8323
-0.428,0.297,0.097,18.5,-170.7,-214.4,0,2018,4,25,20,17,1.719,-0.2353,0.2523,0.441,-0.8284
-0.275,0.35,0.083,20.9,-129.1,-196.3,0,2018,4,25,20,17,1.739,-0.1972,0.271,0.4539,-0.8255
-0.219,0.539,0.115,23.7,-129,-174.6,0,2018,4,25,20,17,1.76,-0.1625,0.2864,0.464,-0.8223
-0.198,0.586,0.195,19.7,-137.2,-141.2,0,2018,4,25,20,17,1.781,-0.1312,0.2994,0.4759,-0.8164
-0.15,0.529,0.267,8.1,-142.9,-108.2,0,2018,4,25,20,17,1.801,-0.1047,0.3107,0.49,-0.8076
-0.015,0.534,0.19,-3,-129.9,-71.4,0,2018,4,25,20,17,1.838,-0.0844,0.3203,0.5047,-0.7971
0.14,0.409,0.153,-12,-99.6,-39.9,0,2018,4,25,20,17,1.858,-0.0712,0.3276,0.5175,-0.7872
0.096,0.337,0.114,-16.5,-79.6,-16,0,2018,4,25,20,17,1.862,-0.0637,0.333,0.5281,-0.7785
0.06,0.375,0.151,-19.5,-74.1,5,0,2018,4,25,20,17,1.901,-0.0601,0.3366,0.5383,-0.7702
0.118,0.322,0.169,-25.9,-66.2,24.2,0,2018,4,25,20,17,1.921,-0.0601,0.3387,0.549,-0.7617
0.092,0.302,0.141,-33.1,-49.1,38.7,0,2018,4,25,20,17,1.925,-0.0637,0.34,0.5586,-0.7538
0.155,0.272,0.098,-39.3,-35.6,53,1023,2018,4,25,20,17,1.941,-0.0708,0.3406,0.5669,-0.7467
0.116,0.15,0.146,-43.5,-0.6,64.9,1023,2018,4,25,20,17,1.961,-0.0814,0.3401,0.5726,-0.7414
0.055,0.119,0.127,-48.4,41.4,71.6,1023,2018,4,25,20,17,1.981,-0.0962,0.3387,0.5735,-0.7395
0.022,0.183,0.111,-48.1,71,79.2,1023,2018,4,25,20,17,2.018,-0.1142,0.3362,0.57,-0.7408
-0.054,0.258,0.198,-43.1,89,91,1023,2018,4,25,20,17,2.039,-0.1343,0.3316,0.5642,-0.744
-0.169,0.27,0.289,-40.8,116.8,108.6,1023,2018,4,25,20,17,2.043,-0.1572,0.3245,0.5559,-0.7488
-0.297,0.274,0.3,-41.7,153.9,128.7,1023,2018,4,25,20,17,2.064,-0.1843,0.3142,0.5441,-0.7557
-0.349,0.225,0.307,-43.4,201.2,150.2,1023,2018,4,25,20,17,2.083,-0.2162,0.3002,0.5273,-0.7648
-0.336,0.362,0.226,-41,255.6,172.1,0,2018,4,25,20,17,2.103,-0.2534,0.2816,0.5033,-0.7765
-0.336,0.534,0.178,-33.4,278.7,201.4,0,2018,4,25,20,17,2.124,-0.2948,0.2575,0.4737,-0.7888
-0.378,0.713,0.213,-20.6,234.5,233.4,0,2018,4,25,20,17,2.144,-0.338,0.229,0.4459,-0.7964
-0.409,0.664,0.212,-16.4,173.1,271.2,0,2018,4,25,20,17,2.167,-0.3819,0.1995,0.4268,-0.795
-0.395,0.356,0.204,-27.6,189.2,308.1,0,2018,4,25,20,17,2.182,-0.429,0.1687,0.4112,-0.7862
-0.228,0.084,0.114,-31.9,302.4,340.9,0,2018,4,25,20,17,2.203,-0.4818,0.1308,0.3848,-0.7762
-0.156,0.039,0.046,-8.3,404.3,361,0,2018,4,25,20,17,2.223,-0.5371,0.0785,0.3406,-0.7676
-0.001,0.408,0.06,51.5,315.4,369.2,0,2018,4,25,20,17,2.242,-0.5875,0.018,0.2962,-0.7528
-0.155,0.26,0.228,98.2,31.3,351.7,0,2018,4,25,20,17,2.262,-0.6298,-0.0287,0.2825,-0.7229
-0.601,-0.832,0.437,64.8,52,255.2,0,2018,4,25,20,17,2.283,-0.7236,-0.0893,0.3301,-0.5993
-0.547,-0.539,0.279,57,51.4,199,0,2018,4,25,20,17,2.303,-0.742,-0.1164,0.328,-0.5728
-0.554,-0.312,0.344,42.4,4.2,156.2,0,2018,4,25,20,17,2.342,-0.7555,-0.1357,0.3281,-0.5505
-0.468,-0.16,0.304,12.2,-48.9,112.2,0,2018,4,25,20,17,2.361,-0.767,-0.143,0.3307,-0.5308
-0.372,-0.006,0.101,-14.3,-90.9,76.7,0,2018,4,25,20,17,2.365,-0.7771,-0.1389,0.335,-0.5142
-0.497,-0.29,0.159,-51.1,-117.7,24.9,0,2018,4,25,20,17,2.404,-0.7859,-0.1251,0.339,-0.5016
-0.42,-0.171,0.066,-84,-124.2,-29.5,0,2018,4,25,20,17,2.408,-0.7918,-0.1022,0.3406,-0.4964
-0.396,-0.062,0.016,-102.9,-104.9,-67.1,0,2018,4,25,20,17,2.425,-0.7947,-0.0751,0.3386,-0.4979
-0.495,-0.035,0.079,-114.2,-73.7,-91.7,0,2018,4,25,20,17,2.444,-0.7949,-0.0492,0.3323,-0.5051
-0.59,0.125,0.003,-125.6,-82.6,-110.2,0,2018,4,25,20,17,2.464,-0.7929,-0.0226,0.3233,-0.5158
-0.603,0.128,-0.196,-125.1,-108.2,-117.2,0,2018,4,25,20,17,2.483,-0.7895,0.0078,0.3149,-0.5266
-0.62,0.079,-0.237,-116.4,-153.7,-122.3,0,2018,4,25,20,17,2.524,-0.7843,0.0429,0.3101,-0.5355
-0.621,-0.059,-0.209,-103.1,-193.8,-129.6,0,2018,4,25,20,17,2.545,-0.7761,0.0843,0.311,-0.5418
-0.609,-0.288,-0.113,-97.5,-173.7,-133.3,1023,2018,4,25,20,17,2.549,-0.7655,0.1257,0.3134,-0.5476
-0.382,-0.149,-0.223,-96,-138.8,-125.2,1023,2018,4,25,20,17,2.568,-0.7542,0.1623,0.3125,-0.5541
-0.068,0.019,-0.323,-87.4,-106,-101.7,1023,2018,4,25,20,17,2.586,-0.7443,0.1931,0.3089,-0.5596
0.166,0.131,-0.287,-76.1,-84.5,-73.8,1023,2018,4,25,20,17,2.607,-0.7366,0.2175,0.3047,-0.563
0.355,0.263,-0.263,-67.5,-75.7,-40.5,1023,2018,4,25,20,17,2.626,-0.7317,0.2374,0.3014,-0.5633
0.511,0.311,-0.235,-62.6,-59.4,-7.5,1023,2018,4,25,20,17,2.646,-0.7299,0.2535,0.299,-0.5599
0.597,0.28,-0.256,-58.3,-33.1,21,1023,2018,4,25,20,17,2.663,-0.7316,0.2648,0.2963,-0.5537
0.574,0.229,-0.275,-52.4,-10.2,39.1,0,2018,4,25,20,17,2.684,-0.7365,0.2709,0.2926,-0.5462
0.56,0.162,-0.285,-45.7,5,53.5,0,2018,4,25,20,17,2.724,-0.7434,0.2731,0.289,-0.5376
0.528,0.156,-0.264,-36.5,7.9,59.5,0,2018,4,25,20,17,2.744,-0.7512,0.2726,0.2859,-0.5287
0.485,0.144,-0.203,-28.9,-1.5,62.6,0,2018,4,25,20,17,2.748,-0.7586,0.2719,0.2844,-0.5192
0.474,0.18,-0.143,-23.2,-9.6,61.9,0,2018,4,25,20,17,2.766,-0.7651,0.2717,0.2848,-0.5094
0.491,0.174,-0.114,-19.3,-5,60.7,0,2018,4,25,20,17,2.806,-0.7712,0.2713,0.2858,-0.4998
0.464,0.1,-0.101,-14.5,5.8,57.4,0,2018,4,25,20,17,2.827,-0.7772,0.2697,0.2863,-0.491
0.387,-0.075,-0.084,-9.7,17.6,47.4,0,2018,4,25,20,17,2.831,-0.7828,0.2664,0.2861,-0.4838
0.332,-0.119,-0.041,-4.9,33.5,35.6,0,2018,4,25,20,17,2.849,-0.7878,0.2615,0.2849,-0.4792
0.262,-0.126,0.007,-2,40.3,22.4,0,2018,4,25,20,17,2.865,-0.7921,0.2549,0.2826,-0.477
0.229,-0.097,0.032,-0.4,29.4,10.6,0,2018,4,25,20,17,2.903,-0.7951,0.2489,0.2803,-0.4765
0.206,-0.079,0.012,3.3,-1.1,-0.3,0,2018,4,25,20,17,2.924,-0.7961,0.2465,0.2795,-0.4766
0.233,-0.008,-0.028,10,-28.8,-8.2,0,2018,4,25,20,17,2.929,-0.7946,0.2486,0.2816,-0.4768
0.259,0.04,-0.04,18.7,-41.3,-13.1,0,2018,4,25,20,17,2.948,-0.7913,0.2529,0.2863,-0.4771
0.279,0.091,-0.076,26.2,-31.5,-12.1,0,2018,4,25,20,17,2.966,-0.7874,0.2568,0.2921,-0.478
0.291,0.132,-0.118,32.3,-0.7,-5,0,2018,4,25,20,17,3.007,-0.7844,0.2571,0.2971,-0.4797
0.24,0.111,-0.101,38.6,30.6,1.3,0,2018,4,25,20,17,3.028,-0.7832,0.2517,0.3006,-0.4824
0.211,0.187,-0.118,45.5,47.9,10.3,0,2018,4,25,20,17,3.032,-0.7832,0.2422,0.3032,-0.4856
0.129,0.262,-0.064,53.9,62.9,26.3,0,2018,4,25,20,17,3.05,-0.7843,0.2292,0.3063,-0.4882
-0.069,0.048,0.017,60.8,94.5,37.7,0,2018,4,25,20,17,3.088,-0.7869,0.2125,0.3078,-0.4906
-0.236,-0.036,0.074,64.2,137,40,0,2018,4,25,20,17,3.092,-0.7909,0.189,0.3077,-0.4938
-0.42,-0.094,0.231,60.4,145.6,29.4,0,2018,4,25,20,17,3.11,-0.7951,0.1612,0.305,-0.4987
-0.542,-0.072,0.382,42.1,116.9,16.7,0,2018,4,25,20,17,3.129,-0.7977,0.137,0.3013,-0.5039
-0.604,-0.012,0.354,23.7,69.5,10.9,0,2018,4,25,20,17,3.148,-0.7992,0.1202,0.2979,-0.5078
-0.517,0.165,0.105,9.2,9.2,11.9,0,2018,4,25,20,17,3.166,-0.8002,0.1127,0.297,-0.5086
-0.315,0.354,-0.164,8.8,-54.1,20.8,1023,2018,4,25,20,17,3.206,-0.8006,0.1145,0.3006,-0.5053
-0.204,0.307,-0.259,13.9,-103.3,37.2,1023,2018,4,25,20,17,3.228,-0.8008,0.1232,0.3101,-0.4971
-0.131,0.192,-0.253,18.3,-113.3,55.7,1023,2018,4,25,20,17,3.232,-0.8014,0.1348,0.3232,-0.4847
-0.109,0.044,-0.217,19.7,-78.7,72.8,1023,2018,4,25,20,17,3.249,-0.8033,0.143,0.3359,-0.4705
-0.09,-0.052,-0.172,18.3,-21.9,85.5,1023,2018,4,25,20,17,3.269,-0.8073,0.1434,0.3447,-0.4568
-0.102,-0.025,-0.146,21.4,16.7,92.4,1023,2018,4,25,20,17,3.308,-0.8132,0.1361,0.3496,-0.4448
-0.185,-0.072,-0.115,29.7,32.3,94.9,0,2018,4,25,20,17,3.328,-0.8194,0.1245,0.3536,-0.4335
-0.253,-0.173,0.036,33.1,22.7,86.6,0,2018,4,25,20,17,3.332,-0.8248,0.1119,0.3579,-0.4229
-0.162,-0.137,0.145,32.9,-24.7,74.9,0,2018,4,25,20,17,3.35,-0.8285,0.105,0.364,-0.4123
-0.075,-0.162,0.138,30.4,-71.5,69.3,0,2018,4,25,20,17,3.39,-0.8303,0.1081,0.3722,-0.4003
-0.013,-0.161,0.077,29.8,-91.4,67.8,0,2018,4,25,20,17,3.394,-0.8309,0.1164,0.3824,-0.3867
0.042,-0.149,0.021,31.2,-90.8,66.1,0,2018,4,25,20,17,3.409,-0.8308,0.1262,0.3931,-0.3729
0.055,-0.209,0.147,26.7,-57.1,62.4,0,2018,4,25,20,17,3.448,-0.8308,0.1342,0.402,-0.3606
0.016,-0.021,0.275,21.6,-30.7,64.5,0,2018,4,25,20,17,3.468,-0.8318,0.1351,0.4088,-0.35
-0.064,-0.093,0.335,11.3,-21.5,66.2,0,2018,4,25,20,17,3.473,-0.834,0.133,0.4143,-0.339
-0.055,0.035,0.277,3.7,-14.1,69.5,0,2018,4,25,20,17,3.492,-0.8371,0.1301,0.4175,-0.3283
-0.068,0.054,0.233,-1.1,-21.9,72.7,0,2018,4,25,20,17,3.511,-0.8407,0.1271,0.4203,-0.3166
-0.086,0.057,0.208,1.1,-43.7,71.4,0,2018,4,25,20,17,3.551,-0.844,0.1264,0.4236,-0.3035
-0.167,-0.215,0.241,2.5,-58.8,63.4,0,2018,4,25,20,17,3.555,-0.8462,0.13,0.4273,-0.2903
-0.139,-0.129,0.181,7.2,-60.8,56.7,0,2018,4,25,20,17,3.571,-0.8472,0.1362,0.4313,-0.2784
-0.098,-0.14,0.318,8.4,-52.4,52.6,0,2018,4,25,20,17,3.591,-0.8477,0.1421,0.4353,-0.2674
-0.031,-0.147,0.411,-4.4,-42.5,46.7,0,2018,4,25,20,17,3.612,-0.8487,0.1451,0.4389,-0.2567
0.084,-0.417,0.275,-28.5,-30,31.6,0,2018,4,25,20,17,3.63,-0.8508,0.1478,0.439,-0.2476
0.296,-0.259,0.028,-41.8,-12,21.3,0,2018,4,25,20,17,3.667,-0.8542,0.1502,0.4352,-0.2413
0.466,-0.18,-0.142,-49.3,-11.4,9.7,0,2018,4,25,20,17,3.687,-0.8581,0.1523,0.4292,-0.237
0.575,-0.2,-0.19,-53.5,-18.5,-6.6,0,2018,4,25,20,17,3.691,-0.8616,0.1565,0.4221,-0.2342
0.658,-0.138,-0.174,-56.7,-25.7,-26.7,0,2018,4,25,20,17,3.729,-0.8643,0.1633,0.4142,-0.2336
0.706,-0.099,-0.228,-57.7,-40.6,-51.2,0,2018,4,25,20,17,3.748,-0.8659,0.1731,0.4058,-0.2355
0.711,-0.099,-0.34,-50.9,-63.4,-80.5,0,2018,4,25,20,17,3.753,-0.8653,0.1877,0.3977,-0.24
0.656,-0.215,-0.41,-36.6,-67,-113.9,1023,2018,4,25,20,17,3.771,-0.8618,0.2065,0.3906,-0.2486
0.578,-0.197,-0.389,-19,-52.5,-145.7,1023,2018,4,25,20,17,3.791,-0.8556,0.2253,0.3843,-0.2632
0.52,-0.096,-0.392,-1.6,-40.2,-169.2,1023,2018,4,25,20,17,3.812,-0.8468,0.2432,0.3786,-0.2834
0.417,-0.046,-0.403,20.9,-38.1,-184.2,1023,2018,4,25,20,17,3.832,-0.8354,0.2597,0.3742,-0.3075
0.295,-0.059,-0.398,49,-46,-192.4,1023,2018,4,25,20,17,3.867,-0.8205,0.276,0.3729,-0.3337
0.233,-0.003,-0.371,77,-57.6,-196.6,1023,2018,4,25,20,17,3.887,-0.8019,0.2921,0.3755,-0.3612
0.208,0.024,-0.376,101.2,-69,-196.1,0,2018,4,25,20,17,3.893,-0.7797,0.3078,0.3819,-0.3889
0.208,0.108,-0.434,122,-76.3,-187.5,0,2018,4,25,20,17,3.931,-0.7546,0.3223,0.3917,-0.416
0.168,0.15,-0.496,145.3,-86.9,-168.2,0,2018,4,25,20,17,3.952,-0.7273,0.3351,0.405,-0.4411
0.069,-0.06,-0.51,168.4,-88.5,-146.3,0,2018,4,25,20,17,3.955,-0.6982,0.3448,0.4227,-0.4634
-0.02,-0.186,-0.469,185.6,-64.8,-127,0,2018,4,25,20,17,3.993,-0.6688,0.3492,0.4424,-0.4846
-0.063,-0.097,-0.454,196.1,-46.6,-108,0,2018,4,25,20,17,4.011,-0.6403,0.3477,0.4621,-0.5054
-0.088,0.12,-0.426,202.9,-51,-82.2,0,2018,4,25,20,17,4.014,-0.6123,0.3425,0.4827,-0.524
-0.184,0.233,-0.46,209.6,-57.4,-47.4,0,2018,4,25,20,17,4.034,-0.5853,0.3344,0.5058,-0.5381
-0.266,0.224,-0.426,213.6,-48.6,-12,0,2018,4,25,20,17,4.052,-0.5603,0.3222,0.5305,-0.5483
-0.313,0.171,-0.382,214,-34,15,0,2018,4,25,20,17,4.089,-0.5379,0.3052,0.5552,-0.5559
-0.418,-0.049,-0.356,215.3,-25.1,30.6,0,2018,4,25,20,17,4.109,-0.5177,0.2841,0.5792,-0.5618
-0.516,-0.168,-0.312,211.5,-5.9,36.2,0,2018,4,25,20,17,4.112,-0.4982,0.2608,0.6016,-0.5671
-0.676,-0.191,-0.094,201.8,23.3,28.2,0,2018,4,25,20,17,4.149,-0.4798,0.2357,0.6197,-0.5745
-0.676,-0.016,0.125,181.3,8.9,20.5,0,2018,4,25,20,17,4.17,-0.4619,0.2121,0.6344,-0.5822
-0.646,-0.031,0.192,156.5,-37.6,21,0,2018,4,25,20,17,4.175,-0.4446,0.1937,0.6501,-0.5847
-0.788,-0.268,0.396,124,-40.7,16,0,2018,4,25,20,17,4.214,-0.4289,0.1805,0.6661,-0.5827
-0.86,-0.378,0.587,74.3,-1.3,2.3,0,2018,4,25,20,17,4.217,-0.4175,0.1709,0.676,-0.5825
-0.764,-0.103,0.687,19.5,20,-8.9,0,2018,4,25,20,17,4.234,-0.4122,0.1657,0.6775,-0.586
-0.62,0.256,0.655,-24.8,-33.6,-4.9,0,2018,4,25,20,17,4.253,-0.4118,0.1675,0.6773,-0.586
-0.484,0.253,0.614,-60.4,-79.7,6.9,0,2018,4,25,20,17,4.273,-0.4153,0.1763,0.6804,-0.5773
-0.382,0.167,0.526,-85.4,-88.1,19.4,0,2018,4,25,20,17,4.312,-0.4227,0.1884,0.6841,-0.5636
-0.102,0.183,0.348,-97.6,-74.5,30.6,0,2018,4,25,20,17,4.334,-0.4335,0.2005,0.6859,-0.5488
0.27,0.197,0.045,-91,-72.1,43,0,2018,4,25,20,17,4.361,-0.4459,0.2106,0.6867,-0.5339
0.474,0.013,-0.157,-65.6,-61.1,50.7,1023,2018,4,25,20,17,4.383,-0.4573,0.2175,0.6885,-0.519
0.535,-0.274,-0.239,-32,-24.1,46.1,1023,2018,4,25,20,17,4.386,-0.4658,0.2195,0.6906,-0.5077
0.479,-0.44,-0.235,0,48,29.1,1023,2018,4,25,20,17,4.395,-0.4714,0.2151,0.6897,-0.5056
0.379,-0.402,-0.194,24.1,110.8,8,1023,2018,4,25,20,17,4.432,-0.4744,0.2047,0.6842,-0.5145
0.274,-0.215,-0.078,38.4,129.7,-9.4,1023,2018,4,25,20,17,4.453,-0.4747,0.1916,0.6755,-0.5306
0.124,-0.129,0.026,39.2,111.1,-22.7,1023,2018,4,25,20,17,4.455,-0.4722,0.18,0.6664,-0.548
0.019,-0.1,0.07,29.7,84.5,-32,0,2018,4,25,20,17,4.475,-0.4678,0.1737,0.6569,-0.5651
-0.038,-0.029,0.073,16.7,62.3,-36.2,0,2018,4,25,20,17,4.494,-0.4637,0.1705,0.6482,-0.5792
-0.074,0.081,0.067,2.6,37,-34.2,0,2018,4,25,20,17,4.534,-0.4608,0.1702,0.6407,-0.5899
-0.095,0.109,0.039,-10.4,15.5,-29.6,0,2018,4,25,20,17,4.553,-0.4588,0.1723,0.6365,-0.5954
-0.151,0.065,0.066,-22.1,3.8,-26.4,0,2018,4,25,20,17,4.557,-0.458,0.1764,0.6335,-0.598
-0.171,0.035,0.11,-35,11.5,-24.2,0,2018,4,25,20,17,4.596,-0.4587,0.1817,0.6298,-0.5998
-0.163,0.109,0.148,-49.3,23.4,-20.3,0,2018,4,25,20,17,4.617,-0.4616,0.1871,0.6236,-0.6023
-0.155,0.183,0.16,-61.5,17.7,-13.4,0,2018,4,25,20,17,4.621,-0.4667,0.193,0.6161,-0.6043
-0.174,0.176,0.155,-70.7,-3.2,-6.4,0,2018,4,25,20,17,4.639,-0.473,0.2005,0.6096,-0.6036
-0.146,0.191,0.156,-79.1,-24.6,1.3,0,2018,4,25,20,17,4.661,-0.4802,0.2099,0.6048,-0.5995
-0.141,0.122,0.205,-86.9,-32,7.5,0,2018,4,25,20,17,4.679,-0.4884,0.2205,0.601,-0.5928
-0.065,0.103,0.262,-92.1,-38.3,12.1,0,2018,4,25,20,17,4.696,-0.4974,0.2317,0.5973,-0.5848
0.036,0.073,0.294,-96.3,-43.4,17.3,0,2018,4,25,20,17,4.717,-0.507,0.2434,0.5938,-0.5752
0.116,0.055,0.237,-97.1,-39.5,20.2,0,2018,4,25,20,17,4.737,-0.5171,0.2549,0.5901,-0.565
0.184,0.039,0.145,-93.1,-30.2,20.7,0,2018,4,25,20,17,4.778,-0.5274,0.2653,0.5858,-0.5551
0.345,0.014,0.057,-79.9,-17.6,20.7,0,2018,4,25,20,17,4.798,-0.5371,0.2738,0.581,-0.5467
0.431,0.009,0.033,-60.9,0.2,19.2,0,2018,4,25,20,17,4.802,-0.5456,0.2793,0.5762,-0.5405
0.419,-0.04,0.069,-43.4,30.1,15.9,0,2018,4,25,20,17,4.82,-0.5532,0.2808,0.5706,-0.5378
0.337,0.012,0.087,-27.8,51.3,12.3,0,2018,4,25,20,17,4.859,-0.56,0.2786,0.5639,-0.539
0.433,0.077,0.106,-15.1,59.8,15.2,0,2018,4,25,20,17,4.878,-0.5661,0.2736,0.5573,-0.5421
0.368,0.089,0.049,-3.8,67,21.1,0,2018,4,25,20,17,4.882,-0.5716,0.2664,0.5514,-0.546
0.162,-0.298,-0.058,3.5,91.7,16.8,0,2018,4,25,20,17,4.899,-0.5771,0.2566,0.5449,-0.5513
-0.076,-0.652,-0.222,8.5,155.6,-6.1,0,2018,4,25,20,17,4.917,-0.5823,0.2432,0.5339,-0.5626
-0.183,-0.567,-0.354,17.5,213.1,-29,1023,2018,4,25,20,17,4.957,-0.5871,0.2239,0.5157,-0.5823
-0.268,-0.522,-0.316,24.1,197.8,-62.3,1023,2018,4,25,20,17,4.976,-0.5883,0.2039,0.4943,-0.6064
-0.191,-0.365,-0.288,31.1,112.9,-95.5,1023,2018,4,25,20,17,4.98,-0.5827,0.1917,0.4774,-0.629
-0.1,-0.272,-0.288,41.7,30.9,-114.1,1023,2018,4,25,20,17,5.02,-0.57,0.1893,0.4704,-0.6463
-0.055,-0.291,-0.327,54.3,0.1,-127.2,1023,2018,4,25,20,17,5.024,-0.5526,0.1925,0.47,-0.6607
-0.042,-0.188,-0.352,69.6,-6,-137.9,1023,2018,4,25,20,17,5.038,-0.5317,0.1966,0.472,-0.6751
-0.037,-0.025,-0.229,84.8,-5.6,-141.8,1023,2018,4,25,20,17,5.078,-0.5083,0.1995,0.4751,-0.6899
-0.012,0.236,0.193,89.7,-20.2,-142.4,1023,2018,4,25,20,17,5.1,-0.4829,0.2018,0.4778,-0.7054
0.079,0.203,0.418,77.2,-30.4,-130.6,1023,2018,4,25,20,17,5.104,-0.4578,0.205,0.4836,-0.7172
0.115,0.068,0.496,60.4,1.2,-119.3,0,2018,4,25,20,17,5.122,-0.4357,0.2082,0.4866,-0.7279
0.089,0.085,0.469,42.9,44.6,-113.5,0,2018,4,25,20,17,5.159,-0.4174,0.2096,0.4831,-0.7405
0.048,0.205,0.499,25.2,78.1,-105.4,0,2018,4,25,20,17,5.181,-0.4025,0.2096,0.4734,-0.7548
0.092,0.395,0.507,4,84.4,-85.3,0,2018,4,25,20,17,5.185,-0.3916,0.2095,0.46,-0.7688
0.103,0.356,0.507,-12.6,78.4,-63.9,0,2018,4,25,20,17,5.2,-0.3849,0.2104,0.446,-0.78
0.108,0.282,0.487,-27.6,68.1,-46,0,2018,4,25,20,17,5.238,-0.3817,0.2124,0.4328,-0.7885
0.076,0.102,0.47,-40.2,61.1,-33.6,0,2018,4,25,20,17,5.259,-0.3812,0.2156,0.4206,-0.7944
0.033,-0.095,0.37,-53.6,68,-30.2,0,2018,4,25,20,17,5.263,-0.3826,0.22,0.4072,-0.7995
-0.003,-0.174,0.298,-65.4,76.9,-32.7,0,2018,4,25,20,17,5.283,-0.3849,0.2256,0.3892,-0.8058
-0.043,-0.173,0.328,-80,73.6,-37.1,0,2018,4,25,20,17,5.301,-0.3877,0.2329,0.3703,-0.8113
-0.116,-0.249,0.291,-102.1,66.3,-44.3,0,2018,4,25,20,17,5.341,-0.3905,0.2435,0.3528,-0.8146
-0.186,-0.336,0.137,-123,68.7,-57.1,0,2018,4,25,20,17,5.361,-0.3929,0.2581,0.3335,-0.817
-0.246,-0.321,0.02,-138.8,64,-73.9,0,2018,4,25,20,17,5.365,-0.394,0.2759,0.3119,-0.8192
-0.367,-0.291,-0.091,-153.2,40.3,-92,0,2018,4,25,20,17,5.382,-0.3924,0.2976,0.2902,-0.8204
-0.519,-0.273,-0.195,-167.1,8.3,-113.6,0,2018,4,25,20,17,5.402,-0.3866,0.324,0.2703,-0.8199
-0.584,-0.159,-0.286,-180.4,-28.3,-131.4,0,2018,4,25,20,17,5.422,-0.3764,0.3553,0.2527,-0.8173
-0.66,-0.097,-0.362,-185.5,-68.7,-150.1,0,2018,4,25,20,17,5.441,-0.361,0.3908,0.2385,-0.8124
-0.778,-0.086,-0.409,-182.1,-91.8,-173.9,0,2018,4,25,20,17,5.479,-0.3394,0.4287,0.2271,-0.8058
-0.851,0.032,-0.389,-176.3,-80,-185.4,0,2018,4,25,20,17,5.5,-0.3142,0.4659,0.2149,-0.7987
-0.907,0.12,-0.39,-164.7,-42.5,-186.2,0,2018,4,25,20,17,5.504,-0.2893,0.4997,0.1986,-0.7919
-0.875,0.215,-0.445,-147,-12,-175.3,0,2018,4,25,20,17,5.541,-0.2672,0.5284,0.1779,-0.7859
-0.845,0.255,-0.438,-126.4,5.1,-151.6,0,2018,4,25,20,17,5.562,-0.2485,0.552,0.1564,-0.7803
-0.798,0.256,-0.402,-104.9,18.5,-118,1023,2018,4,25,20,17,5.566,-0.2344,0.5707,0.1361,-0.7751
-0.747,0.236,-0.399,-83.1,21.1,-72.8,1023,2018,4,25,20,17,5.586,-0.2258,0.5847,0.1195,-0.7699
-0.57,0.263,-0.449,-58.8,2.9,-20.7,1023,2018,4,25,20,17,5.606,-0.2223,0.5946,0.1102,-0.7646
-0.405,0.132,-0.477,-29.6,-19,28.6,1023,2018,4,25,20,17,5.622,-0.2229,0.6008,0.1103,-0.7597
-0.131,0.092,-0.377,-0.2,-21,71.6,1023,2018,4,25,20,17,5.643,-0.2277,0.6023,0.1181,-0.7558
0.227,0.065,-0.241,15.8,-6.9,110.4,1023,2018,4,25,20,17,5.662,-0.2381,0.5998,0.1303,-0.7526
0.446,-0.058,0.122,26.7,42.1,133.5,1023,2018,4,25,20,17,5.683,-0.2547,0.5936,0.1406,-0.7502
0.74,0.108,0.354,25.9,73.3,136.9,0,2018,4,25,20,17,5.704,-0.2774,0.5839,0.1463,-0.7486
0.856,0.444,0.252,30.6,44.8,140.4,0,2018,4,25,20,17,5.743,-0.3011,0.5735,0.1533,-0.7462
0.82,0.438,0.184,44.6,-15.2,146.2,0,2018,4,25,20,17,5.764,-0.32,0.564,0.1681,-0.7424
0.693,0.269,0.225,55.2,-52.9,134.4,0,2018,4,25,20,17,5.768,-0.3328,0.5553,0.1899,-0.738
0.66,0.017,0.416,55.6,-36.3,107.7,0,2018,4,25,20,17,5.786,-0.3418,0.5466,0.2114,-0.7345
0.625,-0.043,0.438,49.1,15.1,65.8,0,2018,4,25,20,17,5.806,-0.3499,0.5373,0.2239,-0.7339
0.483,0.128,0.301,41.8,54.3,28.2,0,2018,4,25,20,17,5.844,-0.3574,0.5273,0.2259,-0.7369
0.349,0.291,0.095,36.4,56.9,4.6,0,2018,4,25,20,17,5.864,-0.3631,0.5181,0.222,-0.7418
0.2,0.366,-0.096,33.6,37.2,-5.4,0,2018,4,25,20,17,5.868,-0.3658,0.5108,0.2177,-0.7468
0.102,0.418,-0.229,33.6,18.3,-4.2,0,2018,4,25,20,17,5.884,-0.3661,0.5051,0.2155,-0.7512
0.052,0.481,-0.317,35.3,6.5,7.1,0,2018,4,25,20,17,5.904,-0.3659,0.4999,0.216,-0.7545
0.015,0.52,-0.374,39.2,-0.3,25,0,2018,4,25,20,17,5.928,-0.3669,0.4943,0.2191,-0.7568
-0.007,0.53,-0.408,43.6,-10.9,48,0,2018,4,25,20,17,5.948,-0.3697,0.4879,0.2255,-0.7578
-0.004,0.445,-0.428,48.6,-22.2,72.5,0,2018,4,25,20,17,5.968,-0.3745,0.4805,0.2358,-0.7571
0.046,0.345,-0.449,55.9,-37.5,91.7,0,2018,4,25,20,17,5.988,-0.3808,0.4721,0.2499,-0.7547
0.167,0.267,-0.45,61.5,-48.6,103.6,0,2018,4,25,20,17,6.008,-0.3873,0.463,0.2678,-0.7509
0.236,0.197,-0.41,68,-22.6,111.1,0,2018,4,25,20,17,6.027,-0.3951,0.452,0.2857,-0.7468
0.247,0.067,-0.263,77.2,37.8,112.8,0,2018,4,25,20,17,6.066,-0.4069,0.4361,0.2984,-0.745
0.273,-0.029,-0.139,84.7,74.2,100.6,0,2018,4,25,20,17,6.07,-0.421,0.4155,0.3044,-0.7465
0.28,-0.013,-0.108,90.2,83.7,90,0,2018,4,25,20,17,6.087,-0.4341,0.3932,0.3073,-0.7499
0.326,0.089,-0.153,94.1,115.8,86.6,0,2018,4,25,20,17,6.123,-0.4474,0.3689,0.3069,-0.7546
0.31,0.196,-0.094,110.3,114.5,89.9,0,2018,4,25,20,17,6.143,-0.4613,0.341,0.3041,-0.7605
0.243,0.244,-0.07,126.4,30.3,93.6,0,2018,4,25,20,17,6.147,-0.4713,0.3144,0.3093,-0.7637
0.148,0.04,-0.053,138.2,-21.9,104,1023,2018,4,25,20,17,6.168,-0.4768,0.2915,0.3263,-0.7623
0.035,-0.28,0.06,141.1,29.4,110.8,1023,2018,4,25,20,17,6.186,-0.4821,0.2682,0.3423,-0.7605
-0.2,-0.713,0.162,146.6,106.8,91.9,1023,2018,4,25,20,17,6.224,-0.4903,0.2366,0.3493,-0.7625
-0.315,-0.397,0.252,145.6,139.7,64,1023,2018,4,25,20,17,6.244,-0.4962,0.2011,0.3481,-0.7694
-0.458,-0.044,0.304,128.6,139.7,54.6,1023,2018,4,25,20,17,6.248,-0.5001,0.1665,0.343,-0.7774
-0.345,0.104,0.386,95.9,126.5,51,0,2018,4,25,20,17,6.27,-0.5041,0.1363,0.3361,-0.7837
-0.396,-0.042,0.327,76.3,67.6,43.3,0,2018,4,25,20,17,6.289,-0.5078,0.1128,0.3312,-0.7871
-0.473,-0.356,0.217,57.2,28.4,24.6,0,2018,4,25,20,17,6.325,-0.5093,0.0979,0.3324,-0.7876
-0.471,-0.507,0.194,47,36.4,-8.7,0,2018,4,25,20,17,6.345,-0.5079,0.0873,0.3331,-0.7895
-0.552,-0.482,0.204,38.3,33.6,-52.6,0,2018,4,25,20,17,6.349,-0.5016,0.0798,0.3315,-0.795
-0.6,-0.259,0.13,27.3,-4.2,-104.2,0,2018,4,25,20,17,6.367,-0.4886,0.0783,0.3316,-0.8031
-0.583,-0.326,0.004,18.9,-12.7,-152,0,2018,4,25,20,17,6.387,-0.4687,0.0836,0.3334,-0.8136
-0.495,-0.273,-0.045,25.1,-44,-192.8,0,2018,4,25,20,17,6.41,-0.4421,0.0923,0.336,-0.8264
-0.462,-0.263,-0.058,34.1,-99,-224.8,0,2018,4,25,20,17,6.429,-0.4083,0.1059,0.3456,-0.8381
-0.521,-0.161,0.052,40.3,-122.3,-249.3,0,2018,4,25,20,17,6.469,-0.3685,0.1227,0.3603,-0.8481
-0.494,0.087,0.144,40.8,-159.5,-264.3,0,2018,4,25,20,17,6.473,-0.3241,0.1415,0.3776,-0.8557
-0.476,0.113,0.16,35.5,-187,-266.5,0,2018,4,25,20,17,6.488,-0.2769,0.1631,0.3992,-0.8586
-0.431,0.153,0.174,33.6,-177.5,-262.8,0,2018,4,25,20,17,6.529,-0.2289,0.1851,0.4207,-0.858
-0.425,0.248,0.288,26.1,-130.1,-250.4,0,2018,4,25,20,17,6.533,-0.1828,0.2052,0.4363,-0.8567
-0.407,0.426,0.33,7.9,-86.4,-231,0,2018,4,25,20,17,6.548,-0.1414,0.2242,0.4438,-0.856
-0.341,0.569,0.249,-11.6,-70.2,-202.4,0,2018,4,25,20,17,6.569,-0.1062,0.2431,0.4461,-0.8547
-0.344,0.721,0.261,-26.8,-68.3,-170.3,0,2018,4,25,20,17,6.59,-0.077,0.2616,0.4476,-0.8515
-0.322,0.883,0.251,-48.2,-94.2,-132.5,0,2018,4,25,20,17,6.609,-0.0538,0.28,0.4516,-0.8454
-0.302,0.714,0.188,-66.2,-130.9,-90.5,0,2018,4,25,20,17,6.629,-0.0366,0.2982,0.4622,-0.8342
-0.222,0.534,0.115,-78.5,-129.6,-58.3,0,2018,4,25,20,17,6.668,-0.0249,0.3156,0.4769,-0.8199
-0.159,0.363,0.076,-86.6,-93.7,-26.8,0,2018,4,25,20,17,6.687,-0.0196,0.3313,0.4902,-0.8059
-0.085,0.197,0.097,-93.2,-37.9,1.3,0,2018,4,25,20,17,6.691,-0.022,0.3453,0.4983,-0.7949
-0.124,0.179,0.154,-96.5,7.8,25.7,0,2018,4,25,20,17,6.729,-0.0317,0.3572,0.5002,-0.7881
-0.103,0.105,0.175,-95.7,53.8,45.1,0,2018,4,25,20,17,6.734,-0.047,0.3671,0.4976,-0.7844
-0.134,0.219,0.193,-92.2,77,66,1023,2018,4,25,20,17,6.747,-0.0673,0.3745,0.4907,-0.7837
-0.07,0.199,0.212,-87.5,83.7,88.6,1023,2018,4,25,20,17,6.785,-0.0908,0.379,0.4838,-0.7835
0.122,0.187,0.209,-82.1,89.3,110,1023,2018,4,25,20,17,6.804,-0.1173,0.3806,0.4773,-0.7832
0.164,0.242,0.207,-78.3,94.3,128.3,1023,2018,4,25,20,17,6.808,-0.1465,0.3794,0.4709,-0.7828
0.157,0.363,0.101,-69.9,90,143.6,1023,2018,4,25,20,17,6.847,-0.1774,0.3757,0.4651,-0.7816
0.061,0.374,0.013,-59.4,65.4,159,1023,2018,4,25,20,17,6.867,-0.2082,0.3697,0.4622,-0.7786
0.089,0.304,0.022,-51.2,65.3,173.1,0,2018,4,25,20,17,6.871,-0.2392,0.3612,0.4622,-0.7737
0.153,0.252,0.037,-47.3,100.2,185.8,0,2018,4,25,20,17,6.891,-0.2723,0.3497,0.4603,-0.7691
0.214,0.27,-0.02,-42.9,166.7,199.3,0,2018,4,25,20,17,6.911,-0.3097,0.3335,0.4517,-0.7672
0.228,0.235,-0.052,-32.5,209.5,208.7,0,2018,4,25,20,17,6.949,-0.3511,0.3114,0.4352,-0.7682
0.154,0.212,-0.046,-25.1,201,210.4,0,2018,4,25,20,17,6.968,-0.392,0.2861,0.4169,-0.7685
0.202,0.237,-0.108,-13.5,181.8,217.1,0,2018,4,25,20,17,6.973,-0.4311,0.2597,0.4001,-0.7658
0.18,0.2,-0.199,-1,171.4,224.1,0,2018,4,25,20,17,6.989,-0.4685,0.2316,0.3858,-0.7601
0.142,0.233,-0.179,14.7,152.3,225.7,0,2018,4,25,20,17,7.029,-0.5037,0.2019,0.374,-0.752
0.065,0.195,-0.115,28.6,136,228.9,0,2018,4,25,20,17,7.05,-0.5366,0.1712,0.3647,-0.7413
-0.052,0.089,-0.043,36.7,136.2,230.2,0,2018,4,25,20,17,7.054,-0.5675,0.1402,0.3551,-0.7294
-0.215,-0.208,0.051,41.7,156.4,221.9,0,2018,4,25,20,17,7.091,-0.5968,0.1065,0.345,-0.7164
-0.286,-0.189,0.069,52.3,132.5,197.8,0,2018,4,25,20,17,7.095,-0.6221,0.0719,0.335,-0.7038
-0.296,-0.039,0.093,51.6,53.2,175.7,0,2018,4,25,20,17,7.112,-0.6425,0.0444,0.3318,-0.6892
-0.206,-0.134,0.088,45.6,5.2,158.2,0,2018,4,25,20,17,7.15,-0.6594,0.0259,0.3359,-0.672
-0.053,-0.259,0.067,41.5,10.7,143.3,0,2018,4,25,20,17,7.17,-0.674,0.0111,0.3412,-0.655
0.008,-0.321,0.127,45,19.8,127.5,0,2018,4,25,20,17,7.174,-0.6867,-0.004,0.3446,-0.64
-0.015,-0.266,0.196,48.6,9.3,107.7,0,2018,4,25,20,17,7.213,-0.6966,-0.018,0.3483,-0.6268
-0.062,-0.261,0.183,45.5,-4,87.3,0,2018,4,25,20,17,7.217,-0.7038,-0.0271,0.3527,-0.6159
-0.065,-0.257,0.157,39.2,-2.7,65.8,0,2018,4,25,20,17,7.233,-0.7089,-0.0335,0.3573,-0.6071
-0.049,-0.234,0.146,30.2,7.8,46.4,0,2018,4,25,20,17,7.252,-0.7121,-0.0386,0.3602,-0.6012
-0.029,-0.132,0.161,19.5,19.8,33.6,0,2018,4,25,20,17,7.274,-0.7142,-0.0437,0.3606,-0.5982
-0.029,-0.012,0.177,9.1,11.9,25.6,0,2018,4,25,20,17,7.294,-0.7164,-0.0477,0.3585,-0.5966
-0.084,0.019,0.246,-3.4,-11,19.7,0,2018,4,25,20,17,7.314,-0.7189,-0.0486,0.3565,-0.5946
-0.16,0.012,0.292,-17.9,-39.3,8.9,0,2018,4,25,20,17,7.332,-0.7217,-0.0444,0.3556,-0.592
-0.187,0.071,0.25,-32.9,-78.5,-5.2,1023,2018,4,25,20,17,7.354,-0.7239,-0.0345,0.3582,-0.5884
-0.192,0.111,0.175,-44.6,-116.9,-20.5,1023,2018,4,25,20,17,7.374,-0.7254,-0.0171,0.3636,-0.584
-0.188,0.02,0.146,-54.4,-123.8,-33.6,1023,2018,4,25,20,17,7.394,-0.7259,0.0053,0.3699,-0.5796
-0.251,0.037,0.179,-63.4,-119.7,-47.6,1023,2018,4,25,20,17,7.432,-0.7252,0.0289,0.3747,-0.5768
-0.304,0.018,0.174,-74.8,-126.5,-60.2,1023,2018,4,25,20,17,7.453,-0.7234,0.055,0.3778,-0.5751
-0.299,0.143,0.052,-81.7,-145.1,-69.1,1023,2018,4,25,20,17,7.457,-0.7204,0.0842,0.3807,-0.5735
-0.184,0.168,-0.004,-81,-176.6,-72.6,1023,2018,4,25,20,17,7.476,-0.7159,0.1174,0.3853,-0.5702
-0.088,0.117,0.083,-80.2,-200.4,-75.1,1023,2018,4,25,20,17,7.496,-0.7094,0.1541,0.3924,-0.5646
-0.05,0.043,0.064,-85.8,-198.7,-72.2,0,2018,4,25,20,17,7.516,-0.7017,0.1925,0.3994,-0.5575
0.009,-0.05,-0.039,-90.7,-149.1,-64.1,0,2018,4,25,20,17,7.535,-0.6945,0.2287,0.4018,-0.5512
-0.005,-0.141,-0.066,-91.1,-85.9,-61.7,0,2018,4,25,20,17,7.572,-0.6891,0.2578,0.3983,-0.5476
-0.07,-0.107,-0.035,-92.4,-45.3,-66.2,0,2018,4,25,20,17,7.593,-0.6854,0.2805,0.3899,-0.5472
-0.114,-0.172,0.055,-99.9,-19.1,-70.6,0,2018,4,25,20,17,7.596,-0.6832,0.2989,0.3774,-0.549
-0.061,-0.015,0.148,-112.7,-5.9,-68.1,0,2018,4,25,20,17,7.633,-0.6823,0.3158,0.3611,-0.5515
-0.095,-0.109,0.243,-133.8,-3.3,-63.7,0,2018,4,25,20,17,7.653,-0.6834,0.3321,0.3424,-0.5524
-0.072,-0.038,0.209,-158.5,-15.9,-57.8,0,2018,4,25,20,17,7.655,-0.6855,0.3506,0.3224,-0.5505
-0.092,-0.075,0.135,-178.5,-33.3,-55.8,0,2018,4,25,20,17,7.694,-0.6877,0.3727,0.3013,-0.5452
-0.124,-0.09,0.149,-204,-31.3,-52.4,0,2018,4,25,20,17,7.697,-0.6901,0.3973,0.2781,-0.5371
-0.106,-0.173,0.04,-230.8,-20.8,-55.6,0,2018,4,25,20,17,7.716,-0.6932,0.4232,0.2505,-0.5267
-0.067,-0.248,-0.112,-246.8,-9.5,-66.9,0,2018,4,25,20,17,7.735,-0.6964,0.449,0.2184,-0.5153
-0.055,-0.124,-0.078,-259.1,-0.9,-77.5,0,2018,4,25,20,17,7.754,-0.6984,0.4745,0.1824,-0.5036
-0.051,-0.012,-0.017,-274,14.5,-89.7,0,2018,4,25,20,17,7.774,-0.6987,0.5,0.1419,-0.4914
-0.091,0.22,-0.078,-286,-33.2,-108.1,0,2018,4,25,20,17,7.816,-0.6948,0.5275,0.0983,-0.4788
-0.004,0.19,-0.343,-281.2,-101.2,-143,0,2018,4,25,20,17,7.836,-0.6814,0.5613,0.0574,-0.4661
0.051,0.431,-0.476,-255.9,-160.3,-174.7,0,2018,4,25,20,17,7.838,-0.6566,0.5996,0.0207,-0.4569
0.105,0.453,-0.53,-217.5,-179,-201.1,0,2018,4,25,20,17,7.857,-0.6232,0.6377,-0.0123,-0.4524
0.146,0.375,-0.495,-166,-174.3,-223.4,0,2018,4,25,20,17,7.877,-0.5848,0.6707,-0.0424,-0.4541
0.247,0.28,-0.509,-110.1,-126.5,-233.2,0,2018,4,25,20,17,7.897,-0.547,0.6943,-0.0712,-0.462
0.198,0.503,-0.423,-59.6,-95.2,-228.5,0,2018,4,25,20,17,7.915,-0.514,0.7074,-0.0988,-0.4748
0.186,0.704,-0.553,-15.7,-88.7,-207.5,0,2018,4,25,20,17,7.954,-0.4829,0.7145,-0.1216,-0.4912
0.278,0.816,-0.681,32.6,-23.8,-172.2,0,2018,4,25,20,17,7.956,-0.4593,0.7142,-0.14,-0.5091
0.377,1.03,-0.752,83.8,10.3,-125.2,1023,2018,4,25,20,17,7.978,-0.4473,0.7051,-0.1541,-0.528
0.4,1.071,-0.734,135.6,2.7,-72.1,1023,2018,4,25,20,17,7.999,-0.442,0.6915,-0.1582,-0.5489
0.264,1.143,-0.723,191,-29.6,-10.1,1023,2018,4,25,20,17,8.017,-0.441,0.6753,-0.1492,-0.5719
-0.013,0.913,-0.618,242.5,-69.1,51.9,1023,2018,4,25,20,17,8.055,-0.4427,0.6574,-0.1244,-0.5968
-0.248,0.507,-0.627,280.3,-81.7,100,1023,2018,4,25,20,17,8.076,-0.4471,0.6368,-0.0868,-0.622
-0.434,0.189,-0.673,309.3,-66.7,134.9,1023,2018,4,25,20,17,8.081,-0.4552,0.6114,-0.0421,-0.6458
-0.725,0.089,-0.65,329.9,-35.6,157.1,0,2018,4,25,20,17,8.1,-0.4678,0.5791,0.0048,-0.6676
-0.899,0.102,-0.692,343.2,-35.1,168.4,0,2018,4,25,20,17,8.119,-0.4826,0.5407,0.0524,-0.6869
-1.023,0.031,-0.795,348.3,-69.8,173.6,0,2018,4,25,20,17,8.141,-0.4939,0.5008,0.1039,-0.7031
-1.09,0.068,-0.748,340.9,-105.2,177.9,0,2018,4,25,20,17,8.156,-0.5003,0.4615,0.1596,-0.7149
-1.054,0.258,-0.62,316.4,-166.9,187.3,0,2018,4,25,20,17,8.195,-0.502,0.4259,0.2192,-0.72
-1.035,-0.086,-0.503,278.1,-245.9,190.3,0,2018,4,25,20,17,8.214,-0.4974,0.399,0.2854,-0.7154
-0.836,-0.615,-0.147,221.3,-225,173.5,0,2018,4,25,20,17,8.218,-0.4899,0.3786,0.3493,-0.7032
-0.442,-0.381,0.074,163.4,-167.9,148.6,0,2018,4,25,20,17,8.257,-0.4845,0.3612,0.3995,-0.6892
-0.224,-0.348,0.223,103.3,-143.1,128.8,0,2018,4,25,20,17,8.277,-0.4814,0.3488,0.4381,-0.6742
-0.074,-0.498,0.437,63.7,-88.6,112,0,2018,4,25,20,17,8.282,-0.4821,0.3391,0.4659,-0.6598
-0.024,-0.862,0.54,35.3,-44.8,77.4,0,2018,4,25,20,17,8.301,-0.4852,0.331,0.4831,-0.6491
0.015,-0.532,0.613,6.5,-9.5,51.1,0,2018,4,25,20,17,8.319,-0.4893,0.3253,0.4908,-0.6433
0.106,-0.283,0.593,-17.7,-46,37.2,0,2018,4,25,20,17,8.36,-0.4933,0.3245,0.4954,-0.637
0.122,-0.274,0.45,-33.3,-98.1,27.1,0,2018,4,25,20,17,8.364,-0.4948,0.3312,0.5031,-0.6262
0.075,-0.397,0.321,-38.2,-108.4,15.5,0,2018,4,25,20,17,8.38,-0.4939,0.3429,0.5114,-0.6138
0.06,-0.335,0.287,-40.2,-86.5,2.6,0,2018,4,25,20,17,8.4,-0.4921,0.3551,0.5168,-0.6036
0.059,-0.129,0.273,-44.5,-65.4,-6.6,0,2018,4,25,20,17,8.42,-0.4908,0.3665,0.5194,-0.5957
0.059,0.03,0.231,-50.9,-51.8,-10.2,0,2018,4,25,20,17,8.456,-0.4905,0.3772,0.5207,-0.5881
0.051,0.113,0.143,-56.7,-39.7,-11.7,0,2018,4,25,20,17,8.476,-0.4912,0.3876,0.5199,-0.5813
0.052,0.135,0.045,-61.1,-30.1,-11.8,0,2018,4,25,20,17,8.481,-0.4926,0.3982,0.5163,-0.5762
0.067,0.179,-0.008,-64.9,-19.3,-10,0,2018,4,25,20,17,8.499,-0.4944,0.4089,0.5106,-0.5722
0.095,0.235,-0.024,-68.1,-17.5,-5.4,0,2018,4,25,20,17,8.522,-0.4975,0.4186,0.5048,-0.5677
0.126,0.284,-0.025,-72.4,-31.3,2.1,0,2018,4,25,20,17,8.541,-0.5018,0.4278,0.5008,-0.5606
0.145,0.26,-0.04,-75.2,-48.4,11.1,0,2018,4,25,20,17,8.58,-0.5059,0.438,0.4987,-0.5508
0.149,0.17,-0.059,-72.4,-51.1,19.1,1023,2018,4,25,20,17,8.585,-0.5098,0.4483,0.4982,-0.5392
0.15,0.022,-0.083,-66.6,-36.8,23.4,1023,2018,4,25,20,17,8.602,-0.5143,0.4569,0.4979,-0.5279
0.169,-0.003,-0.085,-57.1,-17.6,27.1,1023,2018,4,25,20,17,8.622,-0.5199,0.4627,0.4968,-0.5183
0.192,0.047,-0.032,-43.4,-8.3,30.2,1023,2018,4,25,20,17,8.641,-0.5259,0.4658,0.4955,-0.5106
0.214,0.124,0.01,-28.6,-14.3,36,1023,2018,4,25,20,17,8.663,-0.5311,0.4671,0.4959,-0.5037
0.222,0.127,-0.015,-12,-23.2,43.3,1023,2018,4,25,20,17,8.683,-0.5348,0.4671,0.4989,-0.4967
0.201,0.086,-0.089,9.7,-28.4,48.9,1023,2018,4,25,20,17,8.703,-0.5367,0.4655,0.5051,-0.4899
0.19,0.146,-0.136,34.2,-20.7,56.3,0,2018,4,25,20,17,8.723,-0.5371,0.4613,0.5136,-0.4845
0.137,0.223,-0.11,58.3,0.5,70.6,0,2018,4,25,20,17,8.743,-0.5373,0.4526,0.5239,-0.4814
-0.014,0.181,-0.052,80.8,22.2,87.2,0,2018,4,25,20,17,8.762,-0.5378,0.4389,0.5353,-0.481
-0.192,-0.037,0.05,94.7,47.2,93.6,0,2018,4,25,20,17,8.785,-0.5394,0.4198,0.5473,-0.4827
-0.247,-0.163,0.166,95.3,97,89.6,0,2018,4,25,20,17,8.805,-0.5432,0.3958,0.5569,-0.4878
-0.265,0.019,0.199,87.7,126.9,84.9,0,2018,4,25,20,17,8.841,-0.5493,0.3684,0.5615,-0.4971
-0.223,0.181,0.246,74.5,97.4,86,0,2018,4,25,20,17,8.845,-0.556,0.3417,0.5643,-0.5054
-0.212,0.089,0.282,56.2,32.7,89.2,0,2018,4,25,20,17,8.862,-0.561,0.321,0.5701,-0.5069
-0.208,-0.281,0.343,-0.3,26.4,78.8,0,2018,4,25,20,17,8.882,-0.5708,0.2972,0.5836,-0.4951
-0.117,-0.154,0.421,-29.1,54.2,73.3,0,2018,4,25,20,17,8.904,-0.5813,0.2861,0.5821,-0.4912
-0.079,-0.097,0.302,-52.5,10.4,62.9,0,2018,4,25,20,17,8.924,-0.5931,0.2791,0.5781,-0.4857
0.007,-0.236,0.123,-66.6,-23.4,52.5,0,2018,4,25,20,17,8.963,-0.6033,0.2804,0.5742,-0.4769
0.055,-0.139,0.134,-77,-27.4,47.4,0,2018,4,25,20,17,8.984,-0.613,0.2855,0.5694,-0.4672
0.095,-0.132,0.093,-85.8,-26.6,37.7,0,2018,4,25,20,17,8.988,-0.6232,0.2909,0.5646,-0.4561
0.174,-0.061,0.007,-90.2,-27.4,30.5,0,2018,4,25,20,17,9.006,-0.6326,0.2989,0.5577,-0.4464
0.217,-0.024,-0.045,-89.8,-30,25.3,0,2018,4,25,20,17,9.026,-0.6419,0.3063,0.5513,-0.4358
0.264,0.009,-0.109,-85.9,-35.1,21.3,0,2018,4,25,20,17,9.044,-0.6503,0.3144,0.5451,-0.4253
0.308,0.029,-0.157,-77.5,-40.5,19.2,0,2018,4,25,20,17,9.062,-0.6574,0.3229,0.5397,-0.4148
0.344,0.027,-0.18,-65,-39.3,18,0,2018,4,25,20,17,9.1,-0.6631,0.3309,0.5354,-0.4048
0.388,0.009,-0.205,-49.5,-29.9,17.3,0,2018,4,25,20,17,9.12,-0.6677,0.3373,0.5322,-0.3962
0.389,0.029,-0.247,-30.3,-22.7,17,0,2018,4,25,20,17,9.124,-0.671,0.3414,0.5304,-0.3895
0.366,-0.082,-0.279,-7.6,-12.9,13.5,0,2018,4,25,20,17,9.164,-0.6727,0.3434,0.5303,-0.3848
0.333,-0.156,-0.272,15.8,7.8,5.4,0,2018,4,25,20,17,9.184,-0.6727,0.3425,0.5317,-0.3837
0.281,-0.183,-0.234,36.5,37.6,-3.1,1023,2018,4,25,20,17,9.188,-0.6717,0.3378,0.5333,-0.3874
0.249,-0.153,-0.2,53.7,65.3,-11.7,1023,2018,4,25,20,17,9.207,-0.67,0.3292,0.5346,-0.3959
0.208,-0.1,-0.158,68.7,77.7,-20,1023,2018,4,25,20,17,9.226,-0.6672,0.3178,0.5358,-0.4082
0.142,-0.099,-0.109,81,70.9,-28.7,1023,2018,4,25,20,17,9.247,-0.6625,0.3058,0.5377,-0.4222
0.07,-0.071,-0.043,92.1,50.7,-36.7,1023,2018,4,25,20,17,9.265,-0.6547,0.296,0.5411,-0.4368
-0.027,-0.126,0.061,97,23.2,-44.4,1023,2018,4,25,20,17,9.306,-0.6437,0.2898,0.5461,-0.4509
-0.052,-0.112,0.171,90,4.5,-52.7,1023,2018,4,25,20,17,9.311,-0.6313,0.2863,0.5518,-0.4635
-0.043,-0.098,0.232,75.5,-2.2,-57.3,1023,2018,4,25,20,17,9.33,-0.619,0.2853,0.5567,-0.4748
-0.026,-0.025,0.252,56.8,4.6,-57.5,0,2018,4,25,20,17,9.346,-0.6077,0.2853,0.5608,-0.4843
-0.008,0.046,0.283,36.1,13.4,-53.9,0,2018,4,25,20,17,9.386,-0.5989,0.2859,0.5621,-0.4934
0.012,0.079,0.307,15.3,14.9,-48.3,0,2018,4,25,20,17,9.387,-0.5927,0.2872,0.5608,-0.5015
0.047,0.115,0.307,-21.3,-1.2,-35.8,0,2018,4,25,20,17,9.406,-0.5869,0.2944,0.5543,-0.5114
0.071,0.109,0.272,-34.7,-9.1,-29.4,0,2018,4,25,20,17,9.424,-0.5864,0.3007,0.5502,-0.5126
0.078,0.079,0.215,-44.1,-12.9,-25.1,0,2018,4,25,20,17,9.46,-0.5873,0.308,0.5456,-0.5122
0.1,0.053,0.159,-48,-15.1,-21.6,0,2018,4,25,20,17,9.483,-0.5889,0.3158,0.5408,-0.5107
0.109,0.033,0.094,-47.9,-17.7,-19.7,0,2018,4,25,20,17,9.487,-0.5906,0.3237,0.5362,-0.5086
0.128,0.016,0.023,-43.4,-18.7,-18.7,0,2018,4,25,20,17,9.525,-0.5919,0.332,0.5314,-0.5068
0.172,-0.02,-0.048,-32.4,-20.4,-18.3,0,2018,4,25,20,17,9.529,-0.5922,0.34,0.5272,-0.5055
0.183,-0.014,-0.064,-18.1,-21.2,-19.2,0,2018,4,25,20,17,9.546,-0.5915,0.3461,0.5254,-0.504
0.157,-0.061,0.031,-9.1,-8,-21.4,0,2018,4,25,20,17,9.566,-0.5896,0.3512,0.5239,-0.5043
0.184,-0.175,0.17,-7.6,18.7,-25,0,2018,4,25,20,17,9.585,-0.5886,0.3535,0.5213,-0.5066
0.145,-0.454,0.32,-16.2,70.4,-36.4,0,2018,4,25,20,17,9.624,-0.5897,0.3528,0.5143,-0.513
0.092,-0.442,0.305,-22.5,108.5,-57.2,0,2018,4,25,20,17,9.644,-0.5929,0.3491,0.5009,-0.5249
0.067,-0.284,0.256,-28.6,108.3,-81.3,0,2018,4,25,20,17,9.647,-0.5952,0.3465,0.482,-0.5415
0.075,-0.183,0.233,-34.5,75.6,-99.9,0,2018,4,25,20,17,9.687,-0.5945,0.3477,0.4636,-0.5573
0.057,-0.176,0.188,-41.1,37.9,-111.5,0,2018,4,25,20,17,9.709,-0.5901,0.3548,0.4458,-0.5718
0.026,-0.218,0.124,-47,17.6,-119.6,0,2018,4,25,20,17,9.712,-0.5829,0.3663,0.43,-0.5838
-0.035,-0.224,0.07,-53.7,27.9,-127,0,2018,4,25,20,17,9.73,-0.5749,0.3792,0.4138,-0.5952
-0.084,-0.091,-0.017,-60.2,48.6,-130.3,0,2018,4,25,20,17,9.747,-0.5676,0.391,0.3949,-0.6073
-0.095,0.074,-0.114,-64.8,52.9,-128.5,0,2018,4,25,20,17,9.766,-0.5611,0.402,0.374,-0.6193
-0.036,0.192,-0.172,-63.8,39.5,-120.5,0,2018,4,25,20,17,9.806,-0.5541,0.4137,0.3534,-0.6299
-0.013,0.265,-0.228,-57.6,18,-110.2,1023,2018,4,25,20,17,9.825,-0.5468,0.425,0.3358,-0.6383
-0.016,0.329,-0.278,-47.2,-5.1,-97.4,1023,2018,4,25,20,17,9.828,-0.5387,0.4362,0.3223,-0.6446
0.036,0.361,-0.312,-38.2,-31.2,-82.2,1023,2018,4,25,20,17,9.847,-0.5295,0.4476,0.3136,-0.6487
0.165,0.337,-0.386,-37.6,-48.9,-66.1,1023,2018,4,25,20,17,9.867,-0.5198,0.4598,0.3091,-0.6501
0.247,0.275,-0.507,-30.6,-36.2,-53.3,1023,2018,4,25,20,17,9.904,-0.5112,0.471,0.3063,-0.6502
0.233,0.249,-0.51,-12.1,-2.2,-43.2,1023,2018,4,25,20,17,9.925,-0.5054,0.4777,0.3025,-0.6517
0.237,0.28,-0.41,6,28.4,-34.4,0,2018,4,25,20,17,9.929,-0.5023,0.4786,0.2976,-0.6556
0.365,0.358,-0.351,16.7,42.8,-20.5,0,2018,4,25,20,17,9.965,-0.5017,0.4752,0.2922,-0.6611
0.438,0.412,-0.353,28.4,42.4,-1.7,0,2018,4,25,20,17,9.986,-0.5029,0.4692,0.2885,-0.666
0.423,0.356,-0.355,43,52.9,17.3,0,2018,4,25,20,17,9.99,-0.5057,0.4604,0.2872,-0.6705
0.439,0.226,-0.352,54.4,81.8,38.3,0,2018,4,25,20,17,10.009,-0.5119,0.4471,0.2862,-0.6752
0.48,0.207,-0.345,72.7,101,56.1,0,2018,4,25,20,17,10.028,-0.5217,0.4286,0.2845,-0.6804
0.286,0.095,-0.269,83.9,100,68.2,0,2018,4,25,20,17,10.07,-0.5324,0.4068,0.2847,-0.6854
0.274,0,-0.259,91.5,119,76.8,0,2018,4,25,20,17,10.089,-0.5444,0.3823,0.285,-0.69
0.127,-0.082,-0.276,105.5,130.4,80.2,0,2018,4,25,20,17,10.093,-0.5572,0.3543,0.2841,-0.6951
-0.098,-0.291,-0.239,121.5,114.7,75.5,0,2018,4,25,20,17,10.112,-0.5686,0.3242,0.2849,-0.7002
-0.418,-0.383,-0.291,141.7,85,47.8,0,2018,4,25,20,17,10.133,-0.575,0.295,0.2892,-0.7061
-0.613,-0.466,-0.322,161.4,67.6,16,0,2018,4,25,20,17,10.153,-0.5746,0.2672,0.2971,-0.7141
-0.686,-0.432,-0.355,183.3,80.1,-23.6,0,2018,4,25,20,17,10.173,-0.5682,0.2382,0.305,-0.7261
-0.801,-0.459,-0.35,208.7,79.3,-65.5,0,2018,4,25,20,17,10.193,-0.5548,0.2072,0.3126,-0.7425
-0.957,-0.642,-0.093,205.1,128.9,-120.6,0,2018,4,25,20,17,10.215,-0.5343,0.1752,0.3164,-0.7639
-1.048,-0.623,-0.042,184.5,180.4,-190.6,0,2018,4,25,20,17,10.231,-0.5068,0.143,0.3079,-0.7923
-1.048,-0.196,0.147,160.6,134.3,-249.4,0,2018,4,25,20,17,10.269,-0.4698,0.1161,0.2942,-0.8241
-0.961,0.042,0.408,127.7,13.6,-283.6,0,2018,4,25,20,17,10.291,-0.4244,0.1028,0.2899,-0.8516
-0.801,0.118,0.515,93.7,-99.7,-291.7,0,2018,4,25,20,17,10.295,-0.3742,0.1044,0.2996,-0.8713
-0.585,0.164,0.351,70.2,-162.7,-284.1,0,2018,4,25,20,17,10.312,-0.3231,0.1162,0.3201,-0.8829
-0.528,0.211,0.399,60,-191.7,-273.2,0,2018,4,25,20,17,10.332,-0.2722,0.1314,0.3455,-0.8883
-0.542,0.133,0.447,45.5,-192.7,-268,0,2018,4,25,20,17,10.351,-0.222,0.1487,0.3719,-0.8889
-0.481,0.117,0.432,31.6,-157.1,-257.5,0,2018,4,25,20,17,10.389,-0.1737,0.1663,0.3938,-0.8871
-0.378,0.301,0.558,15.3,-111.5,-242.5,0,2018,4,25,20,17,10.41,-0.1291,0.1836,0.4072,-0.8852
-0.302,0.63,0.619,-7.3,-98.7,-217.5,1023,2018,4,25,20,17,10.414,-0.0897,0.2015,0.4156,-0.8823
-0.188,0.844,0.594,-24.1,-112.6,-181.8,1023,2018,4,25,20,17,10.432,-0.0563,0.2199,0.4245,-0.8764
-0.24,0.629,0.498,-38.1,-100.6,-149.6,1023,2018,4,25,20,17,10.452,-0.0291,0.2377,0.4348,-0.868
-0.14,0.636,0.404,-46.7,-67.6,-113.9,1023,2018,4,25,20,17,10.471,-0.009,0.2546,0.442,-0.86
-0.119,0.58,0.382,-50.1,-39.6,-81.9,1023,2018,4,25,20,17,10.51,0.0042,0.2692,0.4457,-0.8537
-0.071,0.508,0.291,-52.1,-19.6,-52.1,1023,2018,4,25,20,17,10.53,0.0115,0.2818,0.4473,-0.8486
-0.095,0.455,0.2,-49.6,-1.9,-27.7,1023,2018,4,25,20,17,10.534,0.0139,0.2923,0.4472,-0.8451
-0.131,0.394,0.148,-46.5,15.9,-3,1023,2018,4,25,20,17,10.554,0.012,0.3005,0.4458,-0.843
-0.203,0.314,0.107,-46,38.1,19.6,0,2018,4,25,20,17,10.574,0.0057,0.3065,0.4426,-0.8426
-0.286,0.347,0.029,-46.8,57.8,40.7,0,2018,4,25,20,17,10.612,-0.0048,0.3109,0.4376,-0.8436
-0.351,0.4,-0.04,-47.8,67.6,64.7,0,2018,4,25,20,17,10.632,-0.0196,0.3137,0.4315,-0.8455
-0.378,0.455,-0.092,-48.2,69.9,93,0,2018,4,25,20,17,10.636,-0.0387,0.3145,0.4253,-0.8477
-0.402,0.509,-0.137,-46.5,58.8,124.4,0,2018,4,25,20,17,10.673,-0.062,0.3129,0.4215,-0.8488
-0.389,0.544,-0.126,-41.9,35.9,158.2,0,2018,4,25,20,17,10.694,-0.0888,0.3083,0.4219,-0.8479
-0.404,0.519,-0.093,-36.1,12.3,189.3,0,2018,4,25,20,17,10.698,-0.1186,0.3005,0.4274,-0.8442
-0.255,0.472,-0.043,-32.4,5.5,220,0,2018,4,25,20,17,10.712,-0.1516,0.2898,0.4365,-0.838
0.033,0.307,0.037,-30.3,35.9,250.7,0,2018,4,25,20,17,10.747,-0.1893,0.2755,0.4448,-0.8308
0.351,0.173,0.125,-27.5,84.6,271.9,0,2018,4,25,20,17,10.768,-0.2323,0.2569,0.4473,-0.8245
0.41,0.11,0.09,-13.5,132.2,282.2,0,2018,4,25,20,17,10.775,-0.2787,0.2334,0.4423,-0.8198
0.356,0.298,-0.076,9.7,170.6,286.8,0,2018,4,25,20,17,10.795,-0.3251,0.2039,0.4315,-0.8163
0.322,0.281,-0.117,39,215.9,294.9,0,2018,4,25,20,17,10.815,-0.3711,0.167,0.4146,-0.8139
0.237,0.271,0.087,68,195.4,294.8,0,2018,4,25,20,17,10.854,-0.4144,0.1238,0.3958,-0.81
0.063,0.093,0.338,76.5,123.7,288.6,0,2018,4,25,20,17,10.876,-0.4532,0.0815,0.3842,-0.8001
-0.141,0.05,0.474,67.9,41.9,279,0,2018,4,25,20,17,10.881,-0.4884,0.0458,0.3822,-0.783
-0.348,-0.261,0.424,40.8,16.7,268.3,0,2018,4,25,20,17,10.896,-0.5218,0.0183,0.3857,-0.7606
-0.414,-0.37,0.289,26.1,40.3,247.5,0,2018,4,25,20,17,10.915,-0.5535,-0.0061,0.3849,-0.7384
-0.423,-0.375,0.262,19.8,20.2,208.3,0,2018,4,25,20,17,10.935,-0.5809,-0.0275,0.3822,-0.7181
-0.425,-0.37,0.298,14.2,-32.5,161.6,0,2018,4,25,20,17,10.955,-0.6025,-0.0413,0.3836,-0.6986
-0.43,-0.35,0.305,2.6,-89,113.8,0,2018,4,25,20,17,10.977,-0.6188,-0.0447,0.3911,-0.6797
-0.438,-0.334,0.289,-12.4,-121.3,72.7,0,2018,4,25,20,17,10.996,-0.6307,-0.0388,0.4024,-0.6623
-0.359,-0.36,0.253,-30.9,-128.4,33.8,0,2018,4,25,20,17,11.033,-0.6389,-0.0258,0.4142,-0.6476
-0.261,-0.322,0.197,-46.8,-102,1.9,0,2018,4,25,20,17,11.054,-0.6438,-0.0086,0.4228,-0.6376
-0.218,-0.204,0.151,-57.1,-69,-22.3,1023,2018,4,25,20,17,11.059,-0.6461,0.0082,0.426,-0.6331
-0.174,-0.096,0.122,-64.5,-55.1,-38,1023,2018,4,25,20,17,11.078,-0.6471,0.0246,0.4251,-0.6323
-0.136,0.01,0.105,-70.2,-50.9,-45,1023,2018,4,25,20,17,11.096,-0.6473,0.0412,0.4222,-0.6332
-0.129,0.02,0.106,-76.9,-55.7,-47.1,1023,2018,4,25,20,17,11.136,-0.6474,0.0586,0.4185,-0.6341
-0.11,0.068,0.046,-83.7,-65.1,-48.1,1023,2018,4,25,20,17,11.14,-0.6472,0.0779,0.4155,-0.6342
-0.004,0.08,-0.034,-86.9,-71.8,-44.9,1023,2018,4,25,20,17,11.157,-0.6474,0.0987,0.4118,-0.6336
0.092,0.109,-0.101,-83.7,-70.1,-39.9,1023,2018,4,25,20,17,11.176,-0.6473,0.1202,0.408,-0.6324
0.188,0.085,-0.144,-77.4,-59.2,-32.5,0,2018,4,25,20,17,11.198,-0.6474,0.1397,0.4045,-0.6304
0.229,0.104,-0.175,-67.6,-44.3,-25.6,0,2018,4,25,20,17,11.219,-0.648,0.1556,0.4013,-0.6282
0.244,0.125,-0.162,-57.4,-28.2,-18,0,2018,4,25,20,17,11.238,-0.649,0.1679,0.3975,-0.6264
0.252,0.153,-0.133,-48.2,-19.3,-10.5,0,2018,4,25,20,17,11.259,-0.6504,0.1772,0.3937,-0.6249
0.239,0.175,-0.115,-39.3,-19.4,-3.8,0,2018,4,25,20,17,11.279,-0.652,0.1846,0.3905,-0.623
0.191,0.145,-0.081,-32.4,-29.3,0.8,0,2018,4,25,20,17,11.301,-0.6535,0.1912,0.389,-0.6203
0.175,0.084,-0.042,-28.8,-36.1,5.2,0,2018,4,25,20,17,11.32,-0.6548,0.1981,0.3893,-0.6166
0.175,0.033,-0.016,-26.7,-40,6.9,0,2018,4,25,20,17,11.358,-0.656,0.205,0.3905,-0.6124
0.24,0.061,-0.007,-26.1,-44.2,11.9,0,2018,4,25,20,17,11.362,-0.6573,0.212,0.3923,-0.6075
0.291,0.049,-0.006,-24.6,-49.3,14.4,0,2018,4,25,20,17,11.377,-0.6587,0.2191,0.3948,-0.6017
0.365,0.04,0.036,-23.4,-55.9,15.6,0,2018,4,25,20,17,11.397,-0.6598,0.2267,0.3981,-0.5954
0.429,-0.054,0.141,-21.4,-60.3,15.5,0,2018,4,25,20,17,11.417,-0.6607,0.2346,0.4022,-0.5886
0.492,-0.131,0.287,-22.4,-63.4,12.6,0,2018,4,25,20,17,11.457,-0.6611,0.243,0.4067,-0.5817
0.477,-0.23,0.328,-26.7,-63.2,2.4,0,2018,4,25,20,17,11.478,-0.6609,0.2522,0.4106,-0.5751
0.389,-0.343,0.353,-36.2,-46.9,-15.3,0,2018,4,25,20,17,11.482,-0.66,0.2623,0.4123,-0.5704
0.262,-0.488,0.426,-52.2,-13.2,-39.9,0,2018,4,25,20,17,11.499,-0.659,0.2722,0.4091,-0.5694
0.149,-0.517,0.469,-75.9,30.7,-68,0,2018,4,25,20,17,11.536,-0.6586,0.2812,0.3979,-0.5733
0.181,-0.411,0.403,-99.6,49.5,-92.1,0,2018,4,25,20,17,11.558,-0.6586,0.2907,0.3793,-0.5811
0.106,-0.507,0.332,-114.5,51.9,-119.7,0,2018,4,25,20,17,11.562,-0.6568,0.3037,0.3553,-0.5916
-0.122,-1.024,0.463,-143.5,95.9,-161,0,2018,4,25,20,17,11.577,-0.6531,0.3183,0.3254,-0.605
-0.181,-0.883,0.573,-181.5,162.3,-208.6,0,2018,4,25,20,17,11.613,-0.6492,0.3308,0.2818,-0.6241
0.031,-0.091,0.523,-210.9,124.7,-227.5,0,2018,4,25,20,17,11.634,-0.6427,0.3449,0.2293,-0.6444
0.229,0.235,0.261,-218.5,-11.2,-236.7,0,2018,4,25,20,17,11.639,-0.6274,0.3718,0.1844,-0.6588
0.293,0.276,-0.025,-193.9,-130.4,-239.4,1023,2018,4,25,20,17,11.679,-0.6004,0.4112,0.1548,-0.668
0.307,0.299,-0.296,-148.2,-204.9,-236.4,1023,2018,4,25,20,17,11.698,-0.5637,0.4549,0.1396,-0.675
0.301,0.211,-0.448,-92.1,-238.7,-230.6,1023,2018,4,25,20,17,11.702,-0.5199,0.496,0.1359,-0.6819
0.239,0.151,-0.433,-34.5,-229,-216.3,1023,2018,4,25,20,17,11.72,-0.4735,0.529,0.139,-0.6903
0.116,0.241,-0.249,3.3,-195.7,-188.3,1023,2018,4,25,20,17,11.758,-0.4288,0.5524,0.1452,-0.6998
-0.203,-0.17,-0.244,18.6,-104,-160.8,1023,2018,4,25,20,17,11.778,-0.3928,0.5659,0.1479,-0.7095
-0.512,-0.481,-0.488,35,-34.9,-163.4,1023,2018,4,25,20,17,11.782,-0.366,0.5708,0.1415,-0.7211
-0.837,-0.479,-0.531,46.3,-24.1,-181.7,1023,2018,4,25,20,17,11.821,-0.3399,0.5713,0.131,-0.7354
-0.955,-0.405,-0.066,34.7,-19.1,-205.6,0,2018,4,25,20,17,11.841,-0.3121,0.5709,0.1169,-0.7502
-0.909,-0.166,0.113,6,-59.6,-231.4,0,2018,4,25,20,17,11.845,-0.2788,0.5743,0.101,-0.7629
-0.939,0.017,0.021,-17.3,-99.3,-240.5,0,2018,4,25,20,17,11.86,-0.2387,0.583,0.0879,-0.7715
-0.985,0.134,-0.091,-24.8,-103.8,-237.8,0,2018,4,25,20,17,11.898,-0.1959,0.5933,0.0768,-0.7769
-0.992,0.193,-0.131,-21.3,-84.5,-223.5,0,2018,4,25,20,17,11.918,-0.1548,0.6022,0.0649,-0.7804
-1.021,0.185,-0.14,-15.4,-57.4,-198.6,0,2018,4,25,20,17,11.924,-0.1187,0.6086,0.0515,-0.7827
-0.974,0.219,-0.193,-9.8,-30.9,-163,0,2018,4,25,20,17,11.943,-0.0894,0.6126,0.0377,-0.7843
-0.841,0.205,-0.206,-1.6,2.2,-114.2,0,2018,4,25,20,17,11.962,-0.0689,0.6143,0.0248,-0.7855
-0.726,0.192,-0.11,2.2,50.8,-60.8,0,2018,4,25,20,17,12.001,-0.0599,0.6142,0.0118,-0.7867
-0.541,0.196,-0.035,-0.9,105.6,0,0,2018,4,25,20,17,12.021,-0.0643,0.6133,-0.0024,-0.7871
-0.245,0.409,0.082,11.2,103.8,70.8,0,2018,4,25,20,17,12.026,-0.0811,0.6114,-0.0141,-0.7869
-0.041,0.507,0.27,22.4,73.3,157.2,0,2018,4,25,20,17,12.045,-0.1062,0.6079,-0.0137,-0.7867
-0.017,0.45,0.429,19.7,74,250.1,0,2018,4,25,20,17,12.065,-0.1421,0.6036,-0.0017,-0.7844
0.042,0.199,0.336,2,111.1,327.3,0,2018,4,25,20,17,12.083,-0.1912,0.5991,0.0169,-0.7772
0.154,-0.069,0.149,-6.6,177.5,387.2,0,2018,4,25,20,17,12.119,-0.2545,0.5922,0.034,-0.7637
0.21,-0.296,-0.043,-0.8,243.5,423.7,0,2018,4,25,20,17,12.141,-0.3298,0.5792,0.0472,-0.7439
0.284,-0.505,-0.225,16.5,300.9,432.9,0,2018,4,25,20,17,12.145,-0.412,0.5565,0.0552,-0.7193
0.281,-0.413,-0.247,39.8,309.2,424.3,0,2018,4,25,20,17,12.164,-0.4937,0.5241,0.0599,-0.6912
0.226,-0.313,-0.175,49.8,285.1,409.2,0,2018,4,25,20,17,12.184,-0.5687,0.4866,0.0656,-0.6598
0.17,-0.006,-0.249,58.1,198.9,388.8,0,2018,4,25,20,17,12.203,-0.6326,0.4498,0.0766,-0.6256
0.082,0.165,-0.383,62.1,67,376.1,0,2018,4,25,20,17,12.24,-0.6822,0.4225,0.0988,-0.5884
0.08,-0.168,-0.343,55.4,-16.5,341.7,0,2018,4,25,20,17,12.26,-0.7181,0.407,0.1307,-0.549
0.295,-0.381,-0.327,45.9,-35.2,286.8,0,2018,4,25,20,17,12.264,-0.7437,0.3982,0.1621,-0.5118
0.501,-0.431,-0.272,35,-17.4,229.9,1023,2018,4,25,20,17,12.282,-0.7627,0.3905,0.1874,-0.4801
0.614,-0.105,-0.246,28.6,-19.1,183.2,1023,2018,4,25,20,17,12.302,-0.7773,0.3828,0.2067,-0.4543
0.628,-0.109,-0.157,24.5,-31,144,1023,2018,4,25,20,17,12.322,-0.787,0.3784,0.2233,-0.4329
0.617,-0.261,0.063,23.7,-18.1,100.6,1023,2018,4,25,20,17,12.361,-0.7934,0.3751,0.2367,-0.4166
0.713,-0.19,0.282,17.6,-13.1,51.4,1023,2018,4,25,20,17,12.382,-0.797,0.3725,0.2454,-0.407
0.774,-0.085,0.32,9.8,-20.1,11.5,1023,2018,4,25,20,17,12.386,-0.7974,0.3725,0.2504,-0.4031
0.715,-0.112,0.22,6.2,-28.2,-21.5,1023,2018,4,25,20,17,12.406,-0.795,0.3758,0.2528,-0.4033
0.581,-0.194,0.153,10.4,-27.6,-48.3,1023,2018,4,25,20,17,12.426,-0.7902,0.3808,0.2535,-0.4076
0.409,-0.287,0.152,16.8,-12.7,-71.3,0,2018,4,25,20,17,12.445,-0.7838,0.3854,0.2529,-0.4159
0.252,-0.216,0.205,20.7,13.1,-87.3,0,2018,4,25,20,17,12.486,-0.7771,0.3874,0.25,-0.4282
0.146,-0.041,0.198,19,20.8,-92.2,0,2018,4,25,20,17,12.506,-0.7706,0.3871,0.2451,-0.4428
0.034,0.074,0.239,15.9,10.9,-82.1,0,2018,4,25,20,17,12.511,-0.7642,0.3871,0.2401,-0.4565
-0.074,0.084,0.26,5.1,-9.9,-66.2,0,2018,4,25,20,17,12.528,-0.7577,0.3894,0.2366,-0.467
-0.134,0.048,0.167,-7.5,-13.7,-48.2,0,2018,4,25,20,17,12.544,-0.7521,0.3937,0.2337,-0.4739
-0.185,-0.134,0.138,-25.4,21.4,-35,0,2018,4,25,20,17,12.584,-0.7495,0.3966,0.2285,-0.4781
-0.167,-0.198,0.118,-44.9,74.7,-22.1,0,2018,4,25,20,17,12.601,-0.7519,0.3942,0.2178,-0.4813
-0.195,-0.155,0.063,-65,119.4,-8.9,0,2018,4,25,20,17,12.606,-0.7594,0.3864,0.201,-0.4831
-0.196,0.059,-0.07,-76.9,128.6,5.8,0,2018,4,25,20,17,12.626,-0.7702,0.3754,0.1805,-0.4828
-0.155,0.171,-0.186,-78.1,110.3,24.4,0,2018,4,25,20,17,12.647,-0.7815,0.3654,0.1608,-0.4792
-0.131,0.177,-0.195,-70.7,99.2,45.5,0,2018,4,25,20,17,12.685,-0.7927,0.3571,0.1445,-0.4723
-0.08,0.179,-0.141,-64.8,116,64.1,0,2018,4,25,20,17,12.705,-0.8051,0.3472,0.1297,-0.4629
0.006,0.324,-0.208,-53.4,124.1,82.4,0,2018,4,25,20,17,12.709,-0.8193,0.3334,0.1152,-0.4518
0.092,0.397,-0.275,-36.7,109.8,103.5,0,2018,4,25,20,17,12.728,-0.8341,0.318,0.105,-0.4381
0.143,0.351,-0.331,-14.2,78.5,119.7,0,2018,4,25,20,17,12.748,-0.8482,0.3036,0.1006,-0.422
0.168,0.145,-0.352,11.9,45.9,126.3,0,2018,4,25,20,17,12.765,-0.8603,0.2922,0.1027,-0.4046
0.227,0.06,-0.396,37.9,18.9,123.1,0,2018,4,25,20,17,12.803,-0.8701,0.2834,0.1106,-0.3876
0.301,0.027,-0.44,64.7,-8.7,116,0,2018,4,25,20,17,12.823,-0.8772,0.2766,0.1243,-0.372
0.355,-0.092,-0.542,94.7,-42.7,101.3,0,2018,4,25,20,17,12.827,-0.8811,0.2727,0.1434,-0.3585
0.438,-0.159,-0.688,126.5,-96.2,82.7,0,2018,4,25,20,17,12.849,-0.8804,0.274,0.1691,-0.3479
0.47,-0.409,-0.773,154.3,-142.6,62.8,0,2018,4,25,20,17,12.867,-0.8742,0.2821,0.2017,-0.3396
0.463,-0.692,-0.705,175.6,-137.4,34.4,0,2018,4,25,20,17,12.906,-0.8634,0.2924,0.2378,-0.3351
0.439,-0.786,-0.631,190.9,-95.5,-1.1,0,2018,4,25,20,17,12.926,-0.8501,0.2985,0.2731,-0.3369
0.361,-0.796,-0.662,203.3,-28.1,-43.7,1023,2018,4,25,20,17,12.93,-0.8353,0.2974,0.3046,-0.3475
0.245,-0.587,-0.636,216.4,51.7,-80,1023,2018,4,25,20,17,12.966,-0.8205,0.2854,0.3309,-0.3683
0.102,-0.444,-0.505,219.5,80.3,-117.9,1023,2018,4,25,20,17,12.988,-0.8042,0.2665,0.3523,-0.3974
0.065,-0.347,-0.339,215.9,54.3,-148.5,1023,2018,4,25,20,17,12.992,-0.7839,0.2496,0.3714,-0.4303
0.087,-0.19,-0.2,211.9,-3.8,-160.4,1023,2018,4,25,20,17,13.006,-0.7585,0.2399,0.3916,-0.4622
0.082,-0.102,-0.151,209.9,-66.1,-156.2,1023,2018,4,25,20,17,13.044,-0.7288,0.2384,0.4155,-0.489
0.081,-0.026,-0.151,212.4,-115.8,-135.9,1023,2018,4,25,20,17,13.066,-0.6962,0.2426,0.4438,-0.5091
0.057,-0.014,-0.165,216.1,-149.3,-107.5,1023,2018,4,25,20,17,13.07,-0.6623,0.249,0.4762,-0.5219
-0.054,-0.048,-0.138,216.2,-158,-70.6,0,2018,4,25,20,17,13.091,-0.6282,0.255,0.5112,-0.528
-0.256,-0.164,-0.06,214.4,-149.8,-37.7,0,2018,4,25,20,17,13.11,-0.5965,0.2565,0.5461,-0.5292
-0.599,-0.486,-0.029,202.8,-114.6,-28.5,0,2018,4,25,20,17,13.149,-0.567,0.254,0.5785,-0.5284
-0.709,-0.392,0.024,189,-30.6,-28.4,0,2018,4,25,20,17,13.168,-0.5411,0.2457,0.6029,-0.5322
-0.677,-0.24,0.292,168.3,9.2,-41.7,0,2018,4,25,20,17,13.172,-0.5185,0.2329,0.6183,-0.5425
-0.651,-0.061,0.519,138.1,-14,-50.3,0,2018,4,25,20,17,13.191,-0.4974,0.2235,0.6301,-0.5528
-0.572,0.046,0.554,105.3,-49.7,-48,0,2018,4,25,20,17,13.209,-0.4778,0.2202,0.6417,-0.5579
-0.523,0.007,0.51,76,-51.8,-45.8,0,2018,4,25,20,17,13.248,-0.461,0.2212,0.6526,-0.559
-0.525,0.043,0.526,46.5,-25.7,-43.9,0,2018,4,25,20,17,13.252,-0.4482,0.2234,0.6594,-0.5605
-0.41,0.218,0.497,19.3,5.2,-38.3,0,2018,4,25,20,17,13.269,-0.4401,0.2257,0.6611,-0.564
-0.336,0.368,0.47,-3.7,16.7,-27,0,2018,4,25,20,17,13.308,-0.4367,0.2277,0.6589,-0.5684
-0.272,0.372,0.384,-19.3,7.3,-13.6,0,2018,4,25,20,17,13.328,-0.4366,0.2303,0.6559,-0.5709
-0.201,0.349,0.333,-29.5,-0.8,1.9,0,2018,4,25,20,17,13.332,-0.439,0.2333,0.6535,-0.5706
-0.138,0.326,0.373,-37.6,-7.2,17.8,0,2018,4,25,20,17,13.368,-0.4437,0.2357,0.6517,-0.568
-0.045,0.226,0.346,-46.2,-16.8,33.3,0,2018,4,25,20,17,13.388,-0.4506,0.2379,0.6507,-0.5628
0.033,0.057,0.223,-51.9,-9.8,43.3,0,2018,4,25,20,17,13.392,-0.4594,0.2394,0.6498,-0.556
0.13,-0.002,0.131,-52.7,0,50.2,0,2018,4,25,20,17,13.412,-0.4698,0.2395,0.648,-0.5495
0.193,-0.054,0.078,-49.6,7.5,54.2,0,2018,4,25,20,17,13.433,-0.4808,0.2381,0.6455,-0.5434
0.233,-0.078,0.039,-45.4,9.5,53.9,0,2018,4,25,20,17,13.45,-0.4916,0.2357,0.6428,-0.5379
0.238,-0.065,0.007,-40.1,2.4,50.9,0,2018,4,25,20,17,13.47,-0.5016,0.2332,0.6407,-0.5323
0.233,-0.074,0.001,-35.6,-11.7,45.8,0,2018,4,25,20,17,13.491,-0.51,0.2317,0.6398,-0.526
0.231,-0.135,0.016,-33.3,-14,39.2,0,2018,4,25,20,17,13.528,-0.5172,0.2313,0.6397,-0.5192
0.238,-0.146,0.01,-31.7,-5.2,31.1,0,2018,4,25,20,17,13.549,-0.5236,0.2313,0.6391,-0.5136
0.229,-0.118,0,-29.4,6.3,24.2,0,2018,4,25,20,17,13.553,-0.5294,0.2309,0.6373,-0.5099
0.211,-0.104,0.031,-27.1,20.1,18.8,0,2018,4,25,20,17,13.592,-0.535,0.2298,0.6344,-0.5082
0.194,-0.063,0.095,-26.8,33.4,13.1,1023,2018,4,25,20,17,13.597,-0.5405,0.2279,0.6301,-0.5087
0.172,-0.023,0.173,-30.6,38.7,9.6,1023,2018,4,25,20,17,13.614,-0.546,0.2257,0.6245,-0.5106
0.182,0.011,0.199,-36.6,33.1,9.4,1023,2018,4,25,20,17,13.634,-0.552,0.2241,0.6184,-0.5124
0.187,-0.005,0.204,-42,18.7,11,1023,2018,4,25,20,17,13.652,-0.5581,0.2241,0.6126,-0.5126
0.185,-0.067,0.256,-46.4,15.6,10.3,1023,2018,4,25,20,17,13.694,-0.5644,0.2254,0.6074,-0.5114
0.204,-0.152,0.282,-54.9,26.5,6.1,1023,2018,4,25,20,17,13.698,-0.5713,0.227,0.6008,-0.5108
0.288,-0.196,0.264,-64.9,37.5,1.7,0,2018,4,25,20,17,13.711,-0.5792,0.2287,0.592,-0.5114
0.401,-0.214,0.217,-73.7,28.9,-4.4,0,2018,4,25,20,17,13.749,-0.5876,0.2315,0.5817,-0.5124
0.49,-0.241,0.15,-82.1,2.6,-13,0,2018,4,25,20,17,13.769,-0.5954,0.2376,0.5718,-0.5117
0.536,-0.328,0.06,-86.2,-29.3,-26.6,0,2018,4,25,20,17,13.772,-0.6014,0.2487,0.5634,-0.5087
0.525,-0.401,-0.046,-85,-35.8,-43.3,0,2018,4,25,20,17,13.811,-0.605,0.2635,0.556,-0.5051
0.579,-0.389,-0.176,-80.4,-4.3,-60.3,0,2018,4,25,20,17,13.834,-0.6074,0.2781,0.5466,-0.5047
0.542,-0.282,-0.24,-69.5,30.8,-75.1,0,2018,4,25,20,17,13.838,-0.6092,0.2896,0.5339,-0.5097
0.474,-0.215,-0.26,-54.2,67.6,-80.7,0,2018,4,25,20,17,13.856,-0.6105,0.297,0.5186,-0.5195
0.406,-0.074,-0.297,-33.8,89.4,-79.4,0,2018,4,25,20,17,13.894,-0.6112,0.2995,0.5023,-0.5331
0.315,0.019,-0.344,-10.4,90,-69.5,0,2018,4,25,20,17,13.914,-0.6108,0.2983,0.4875,-0.5478
0.099,0.067,-0.345,45.4,49.1,-39.5,0,2018,4,25,20,17,13.918,-0.6039,0.2895,0.4725,-0.5728
-0.027,0.014,-0.352,73.5,64.6,-23.8,0,2018,4,25,20,17,13.933,-0.5986,0.2802,0.4717,-0.5835
-0.169,-0.06,-0.337,102.2,90.3,-15.2,0,2018,4,25,20,17,13.972,-0.5931,0.2645,0.4719,-0.5961
-0.39,-0.329,-0.292,125.5,118.5,-27.1,0,2018,4,25,20,17,13.991,-0.5862,0.2431,0.4719,-0.6119
-0.496,-0.3,-0.255,145.2,150.4,-54.6,0,2018,4,25,20,17,13.995,-0.576,0.2178,0.4693,-0.6327
-0.558,-0.043,-0.211,154.3,172.6,-84.5,0,2018,4,25,20,17,14.032,-0.5615,0.1904,0.4635,-0.6584
-0.681,0.063,-0.016,144.5,177,-114.3,0,2018,4,25,20,17,14.054,-0.5432,0.1634,0.4541,-0.687
-0.734,-0.09,0.116,120.8,141.9,-154.7,0,2018,4,25,20,17,14.058,-0.5206,0.1427,0.4431,-0.7156
-0.809,-0.305,0.248,101.1,91.1,-203.3,0,2018,4,25,20,17,14.074,-0.4919,0.1321,0.4338,-0.7431
-0.919,-0.123,0.442,78.5,8.6,-244.1,0,2018,4,25,20,17,14.114,-0.4564,0.1328,0.4294,-0.7678
-0.817,0.191,0.422,50.4,-94.4,-265.6,0,2018,4,25,20,17,14.118,-0.4156,0.147,0.434,-0.7856
-0.582,0.3,0.377,29.2,-192.3,-267.4,0,2018,4,25,20,17,14.135,-0.3716,0.1725,0.4497,-0.7936
-0.449,0.3,0.314,24.1,-247.6,-260.4,0,2018,4,25,20,17,14.153,-0.3252,0.2041,0.474,-0.7923
-0.35,0.336,0.265,22.5,-236.2,-241.4,0,2018,4,25,20,17,14.192,-0.2791,0.2353,0.4997,-0.7854
-0.219,0.297,0.241,20.6,-188.1,-214.4,0,2018,4,25,20,17,14.212,-0.2369,0.2622,0.5195,-0.7778
-0.044,0.569,0.303,21.4,-148.7,-179.4,1023,2018,4,25,20,17,14.217,-0.2005,0.2838,0.5331,-0.7712
0.054,0.974,0.311,21,-159.1,-133,1023,2018,4,25,20,17,14.238,-0.1698,0.3005,0.5459,-0.7633
0.15,1.007,0.346,16.9,-196.3,-79.4,1023,2018,4,25,20,17,14.256,-0.1445,0.313,0.5645,-0.7499
0.268,0.846,0.312,8.7,-207,-31.1,1023,2018,4,25,20,17,14.295,-0.1252,0.3214,0.588,-0.7315
0.247,0.483,0.291,1.9,-172.3,4.5,1023,2018,4,25,20,17,14.315,-0.1122,0.3258,0.6123,-0.7114
0.257,0.413,0.324,-8.1,-116.6,25,1023,2018,4,25,20,17,14.32,-0.1065,0.3272,0.6304,-0.6957
0.244,0.291,0.301,-18.4,-93.3,33.9,1023,2018,4,25,20,17,14.34,-0.1058,0.3273,0.6443,-0.6829
0.16,0.095,0.309,-28,-71,34.6,0,2018,4,25,20,17,14.358,-0.1079,0.3276,0.6557,-0.6715
0.06,-0.117,0.325,-37.1,-32,26.1,0,2018,4,25,20,17,14.375,-0.1123,0.3289,0.6628,-0.6631
-0.02,-0.146,0.335,-45.7,3.7,15.8,0,2018,4,25,20,17,14.415,-0.1188,0.3316,0.6645,-0.6589
-0.101,-0.039,0.369,-55.9,18.1,9.9,0,2018,4,25,20,17,14.418,-0.1268,0.3357,0.6627,-0.6572
-0.161,0.059,0.41,-70.4,18.3,12.7,0,2018,4,25,20,17,14.434,-0.1365,0.3413,0.6597,-0.6554
-0.23,0.106,0.43,-90.3,20.8,21.4,0,2018,4,25,20,17,14.456,-0.1488,0.3481,0.6565,-0.6523
-0.267,0.135,0.447,-112.3,43.5,34.9,0,2018,4,25,20,17,14.475,-0.1655,0.3556,0.652,-0.6488
-0.262,0.149,0.449,-136.2,93.4,54.8,0,2018,4,25,20,17,14.512,-0.1889,0.3625,0.6434,-0.6471
-0.142,0.171,0.405,-154.6,170.8,83,0,2018,4,25,20,17,14.533,-0.2214,0.3667,0.6275,-0.6501
0.008,0.249,0.328,-162.9,261.5,118.7,0,2018,4,25,20,17,14.537,-0.2641,0.3649,0.6022,-0.659
0.239,0.432,0.208,-154.8,323.4,160.8,0,2018,4,25,20,17,14.578,-0.3155,0.3541,0.5683,-0.6722
0.436,0.599,0.09,-127.5,328.1,203.2,0,2018,4,25,20,17,14.597,-0.3708,0.3336,0.5314,-0.6845
0.43,0.548,0.047,-90.4,255.6,234.2,0,2018,4,25,20,17,14.601,-0.4235,0.3063,0.5008,-0.6898
0.379,0.292,-0.008,-58.7,155.5,246.6,0,2018,4,25,20,17,14.618,-0.4692,0.2787,0.4832,-0.6845
0.292,0.32,-0.162,-33.4,110.1,261.2,0,2018,4,25,20,17,14.638,-0.5086,0.2522,0.4765,-0.6712
-0.03,0.125,-0.125,-11.3,124.5,272.1,0,2018,4,25,20,17,14.658,-0.5464,0.2219,0.4716,-0.6555
-0.442,-0.451,0.16,-6.8,72.1,233.8,0,2018,4,25,20,17,14.695,-0.5793,0.1918,0.4688,-0.6385
-0.492,-0.58,0.274,-17.7,12.7,191.3,0,2018,4,25,20,17,14.715,-0.6047,0.1717,0.4699,-0.6196
-0.468,-0.43,0.323,-35.7,-47.1,152.5,0,2018,4,25,20,17,14.719,-0.6245,0.1625,0.4739,-0.599
-0.468,-0.429,0.324,-62.2,-107.7,112,0,2018,4,25,20,17,14.739,-0.6399,0.1653,0.4803,-0.5765
-0.405,-0.519,0.205,-81.5,-165.8,66.7,0,2018,4,25,20,17,14.759,-0.6507,0.1807,0.4883,-0.5526
-0.3,-0.461,0.046,-89.6,-202.4,24.9,0,2018,4,25,20,17,14.798,-0.6559,0.2066,0.4976,-0.5285
-0.197,-0.355,-0.015,-86.6,-201.6,-9.9,0,2018,4,25,20,17,14.802,-0.6563,0.2376,0.5062,-0.5064
-0.157,-0.353,0.043,-82.7,-165.9,-39.4,1023,2018,4,25,20,17,14.819,-0.6528,0.2692,0.5115,-0.4894
-0.132,-0.28,0.092,-79.8,-120,-59.7,1023,2018,4,25,20,17,14.837,-0.6484,0.2973,0.5114,-0.4789
-0.109,-0.121,0.086,-79.5,-85.3,-72.6,1023,2018,4,25,20,17,14.877,-0.6443,0.3217,0.5067,-0.4737
-0.045,-0.014,0.062,-80.4,-56.8,-72.4,1023,2018,4,25,20,17,14.898,-0.6413,0.3427,0.4986,-0.4717
0.005,0.109,0.039,-81.4,-38.9,-67,1023,2018,4,25,20,17,14.902,-0.6397,0.3608,0.4882,-0.4713
0.002,0.052,0.009,-80.8,-31.3,-59.9,1023,2018,4,25,20,17,14.921,-0.639,0.3771,0.477,-0.4709
-0.004,0.101,-0.014,-80.5,-29.1,-53.6,1023,2018,4,25,20,17,14.942,-0.6387,0.3922,0.4661,-0.4699
0.053,0.129,-0.023,-79.9,-34.9,-43.9,1023,2018,4,25,20,17,14.961,-0.6385,0.407,0.4557,-0.4678
0.152,0.184,-0.04,-78.9,-39.9,-32,0,2018,4,25,20,17,14.981,-0.6384,0.4216,0.4461,-0.4643
0.278,0.203,-0.032,-76.6,-43.2,-18.8,0,2018,4,25,20,17,15.018,-0.6392,0.4345,0.439,-0.458
0.428,0.237,-0.05,-74,-44.1,-4.2,0,2018,4,25,20,17,15.039,-0.6406,0.4463,0.4332,-0.4501
0.539,0.188,-0.138,-66.9,-49.4,6.5,0,2018,4,25,20,17,15.043,-0.6424,0.4569,0.429,-0.4408
0.67,0.076,-0.211,-52.9,-55.7,11.9,0,2018,4,25,20,17,15.079,-0.6434,0.4666,0.4271,-0.4309
0.711,-0.188,-0.216,-38.5,-41.4,4.9,0,2018,4,25,20,17,15.083,-0.6433,0.475,0.4266,-0.4223
0.704,-0.39,-0.181,-24.2,-3.7,-17.2,0,2018,4,25,20,17,15.101,-0.6433,0.4802,0.4243,-0.4187
0.731,-0.444,-0.154,-12.3,33.4,-45.5,0,2018,4,25,20,17,15.121,-0.6437,0.482,0.4184,-0.422
0.684,-0.469,-0.147,-2,49.2,-79.5,0,2018,4,25,20,17,15.141,-0.6433,0.482,0.409,-0.4317
0.629,-0.461,-0.139,3.6,32.8,-114.5,0,2018,4,25,20,17,15.161,-0.6392,0.4841,0.3977,-0.4458
0.594,-0.603,-0.08,6.6,23.8,-149.7,0,2018,4,25,20,17,15.199,-0.6305,0.4898,0.3849,-0.4628
0.597,-0.569,-0.005,10.6,26.6,-182.2,0,2018,4,25,20,17,15.221,-0.6184,0.4973,0.3694,-0.4834
0.529,-0.446,-0.018,19,26.9,-210.5,0,2018,4,25,20,17,15.225,-0.6027,0.5054,0.3515,-0.5075
0.45,-0.329,-0.068,32.1,22,-229.7,0,2018,4,25,20,17,15.243,-0.5833,0.5136,0.3322,-0.5342
0.425,-0.249,-0.163,48.3,10,-237.1,0,2018,4,25,20,17,15.262,-0.56,0.5213,0.3138,-0.5622
0.41,-0.131,-0.252,72.6,-3.9,-237.7,0,2018,4,25,20,17,15.279,-0.5332,0.5274,0.2975,-0.5906
0.399,0.081,-0.269,103.3,-28.7,-229.2,0,2018,4,25,20,17,15.32,-0.5024,0.5312,0.2858,-0.6192
0.326,0.18,-0.227,130.1,-57.4,-206.6,0,2018,4,25,20,17,15.339,-0.4684,0.5325,0.2807,-0.6466
0.232,0.207,-0.257,145.3,-64.8,-173.8,0,2018,4,25,20,17,15.344,-0.4339,0.5307,0.2813,-0.6714
0.049,0.15,-0.281,149.7,-61.8,-139.3,0,2018,4,25,20,17,15.362,-0.4019,0.5254,0.2857,-0.6932
-0.132,-0.059,-0.143,136.1,-8.6,-113.8,0,2018,4,25,20,17,15.4,-0.376,0.5165,0.2889,-0.7129
-0.33,-0.185,-0.032,106,62,-112.9,0,2018,4,25,20,17,15.42,-0.3588,0.5047,0.2827,-0.7325
-0.62,-0.339,-0.199,70.7,96.8,-132.2,0,2018,4,25,20,17,15.424,-0.3459,0.4941,0.2671,-0.7514
-0.874,-0.594,-0.091,35.6,91.2,-169.9,0,2018,4,25,20,17,15.463,-0.332,0.488,0.2447,-0.7692
-1.023,-0.469,0.2,-8.1,48,-217.1,1023,2018,4,25,20,17,15.468,-0.311,0.4898,0.2191,-0.7843
-1.067,-0.137,0.306,-52.1,-28.7,-246.6,1023,2018,4,25,20,17,15.484,-0.2805,0.5022,0.1964,-0.794
-1.101,-0.066,0.154,-78.5,-73.3,-265,1023,2018,4,25,20,17,15.507,-0.2419,0.5226,0.1786,-0.7977
-1.156,-0.128,0.018,-87.8,-53.2,-277.8,1023,2018,4,25,20,17,15.523,-0.2001,0.5449,0.1596,-0.7983
-1.212,-0.013,0,-91,8.9,-278.3,1023,2018,4,25,20,17,15.561,-0.1611,0.5652,0.1331,-0.7979
-1.109,0.167,-0.09,-92.1,73.6,-257.3,1023,2018,4,25,20,17,15.58,-0.13,0.5823,0.0978,-0.7964
-1.015,0.219,-0.192,-88.5,127.8,-220,1023,2018,4,25,20,17,15.585,-0.1087,0.596,0.0575,-0.7934
-0.915,0.2,-0.326,-76.5,162,-177.4,1023,2018,4,25,20,17,15.622,-0.0974,0.606,0.0148,-0.7892
-0.733,0.262,-0.349,-56.3,175.1,-128.6,0,2018,4,25,20,17,15.643,-0.0945,0.6122,-0.0262,-0.7845
-0.594,0.304,-0.311,-37.9,174.1,-71.6,0,2018,4,25,20,17,15.647,-0.0993,0.6148,-0.0616,-0.7799
-0.452,0.307,-0.282,-25.4,178.9,-7.5,0,2018,4,25,20,17,15.666,-0.1126,0.6153,-0.0904,-0.7749
-0.267,0.352,-0.254,-18.2,186.9,62.1,0,2018,4,25,20,17,15.686,-0.1357,0.6148,-0.1128,-0.7686
0.002,0.548,-0.195,-6.8,173.4,140.7,0,2018,4,25,20,17,15.725,-0.1687,0.6138,-0.1269,-0.7606
0.03,0.639,-0.14,7.8,122.4,234.5,0,2018,4,25,20,17,15.745,-0.2094,0.6131,-0.1264,-0.7511
-0.04,0.561,-0.204,3.6,93.1,329.2,0,2018,4,25,20,17,15.749,-0.2578,0.6138,-0.1096,-0.738
0.042,0.459,-0.446,6.4,72.8,408,0,2018,4,25,20,17,15.763,-0.3139,0.6157,-0.0798,-0.7183
0.064,0.229,-0.571,21.3,61.1,445.9,0,2018,4,25,20,17,15.804,-0.3744,0.6145,-0.041,-0.6931
0.151,-0.014,-0.472,38.7,45,452.2,0,2018,4,25,20,17,15.824,-0.4335,0.6086,0.0029,-0.6644
0.184,-0.132,-0.301,50.5,2,438.3,0,2018,4,25,20,17,15.828,-0.4867,0.5993,0.0502,-0.6335
0.177,-0.217,-0.313,45.3,-68.2,413.9,0,2018,4,25,20,17,15.848,-0.5278,0.5918,0.1027,-0.6004
0.227,-0.752,-0.052,31.8,-22.5,380.7,0,2018,4,25,20,17,15.867,-0.5615,0.5846,0.1529,-0.5652
0.348,-0.65,0.223,16.7,99.2,335,0,2018,4,25,20,17,15.887,-0.5986,0.568,0.1873,-0.5328
0.446,-0.223,0.147,12.2,168.8,289.7,0,2018,4,25,20,17,15.906,-0.6398,0.5408,0.205,-0.506
0.493,0.373,0.073,19.5,116.6,266.9,0,2018,4,25,20,17,15.928,-0.6768,0.5118,0.2192,-0.4813
0.396,0.289,0.466,12,60,258.8,0,2018,4,25,20,17,15.949,-0.705,0.4897,0.2378,-0.4544
0.374,0.026,0.636,-9.1,65.6,235,0,2018,4,25,20,17,15.968,-0.7286,0.4717,0.2549,-0.426
0.352,-0.158,0.803,-40.6,153.5,205.6,0,2018,4,25,20,17,15.984,-0.7541,0.4496,0.2622,-0.4004
0.346,-0.52,0.806,-63.7,247.3,158.8,0,2018,4,25,20,17,16.004,-0.7849,0.4166,0.2546,-0.3812
0.277,-0.15,0.797,-77,227.4,121.6,0,2018,4,25,20,17,16.024,-0.8141,0.3805,0.2383,-0.3681
0.177,-0.122,0.752,-94.4,135.1,115.1,0,2018,4,25,20,17,16.065,-0.8364,0.3554,0.2222,-0.3529
0.112,-0.506,0.246,-127,76.4,92.7,0,2018,4,25,20,17,16.085,-0.8673,0.3348,0.1902,-0.3151
0.109,-0.571,-0.13,-131,94,76.7,1023,2018,4,25,20,17,16.089,-0.8808,0.3264,0.1707,-0.2974
0.137,-0.349,-0.333,-123.7,121.5,72.2,1023,2018,4,25,20,17,16.109,-0.8942,0.3135,0.1497,-0.282
0.15,-0.189,-0.493,-108.9,110.4,68.5,1023,2018,4,25,20,17,16.13,-0.9069,0.2981,0.1296,-0.2677
0.146,-0.298,-0.66,-88.2,64.7,55.2,1023,2018,4,25,20,17,16.151,-0.9163,0.2874,0.1131,-0.2546
0.16,-0.488,-0.852,-62,35.3,34.8,1023,2018,4,25,20,17,16.169,-0.9219,0.2825,0.1014,-0.2446
0.198,-0.557,-0.975,-37.6,54,10.5,1023,2018,4,25,20,17,16.189,-0.9258,0.2772,0.0929,-0.2394
0.223,-0.416,-1.055,-19.5,86.7,-10.2,1023,2018,4,25,20,17,16.211,-0.9296,0.2666,0.0854,-0.2393
0.288,-0.22,-1.116,-1.2,97.7,-25.5,0,2018,4,25,20,17,16.231,-0.9333,0.2516,0.079,-0.2434
0.332,-0.058,-1.068,22.1,80,-36.6,0,2018,4,25,20,17,16.246,-0.9357,0.2362,0.0757,-0.2505
0.362,0.039,-0.986,46.3,33,-42.6,0,2018,4,25,20,17,16.285,-0.9358,0.2255,0.0774,-0.2593
0.351,0.012,-0.938,72.1,-31.7,-44.6,0,2018,4,25,20,17,16.305,-0.933,0.2231,0.0856,-0.269
0.305,-0.187,-0.899,97.6,-84.6,-46.8,0,2018,4,25,20,17,16.309,-0.927,0.2295,0.1008,-0.2788
0.253,-0.405,-0.847,123.6,-104,-54.7,0,2018,4,25,20,17,16.331,-0.9183,0.2406,0.1216,-0.2897
0.205,-0.555,-0.727,147.8,-100.1,-66.1,0,2018,4,25,20,17,16.348,-0.9075,0.251,0.1462,-0.303
0.154,-0.549,-0.647,169.5,-99.3,-75.4,0,2018,4,25,20,17,16.37,-0.8949,0.2596,0.1735,-0.3186
0.093,-0.537,-0.573,192.2,-114.6,-81,0,2018,4,25,20,17,16.389,-0.8795,0.2682,0.2042,-0.3357
0.022,-0.507,-0.493,215,-130.5,-82.4,0,2018,4,25,20,17,16.428,-0.8607,0.2779,0.2389,-0.3532
-0.149,-0.836,-0.445,232.5,-98.7,-90.6,0,2018,4,25,20,17,16.448,-0.8393,0.285,0.2756,-0.3717
-0.304,-0.971,-0.354,247.7,-31.5,-110.7,0,2018,4,25,20,17,16.452,-0.817,0.2835,0.3099,-0.3948
-0.393,-0.832,-0.227,259.9,26.7,-139.9,0,2018,4,25,20,17,16.471,-0.7937,0.2721,0.3393,-0.4251
-0.383,-0.375,-0.124,268.7,3.1,-158.9,0,2018,4,25,20,17,16.491,-0.7666,0.258,0.3668,-0.4594
-0.364,-0.19,-0.131,277.8,-67.6,-159.2,0,2018,4,25,20,17,16.511,-0.7336,0.2504,0.3984,-0.4902
-0.364,-0.13,0.013,284,-102.7,-143.8,0,2018,4,25,20,17,16.53,-0.6955,0.2482,0.4352,-0.5148
-0.369,-0.102,0.255,270.1,-67.3,-121.6,0,2018,4,25,20,17,16.55,-0.6576,0.2435,0.4705,-0.5355
-0.352,0.017,0.278,244.2,-22.4,-101.1,0,2018,4,25,20,17,16.57,-0.6234,0.2331,0.4988,-0.555
-0.547,-0.122,0.304,220.6,19.8,-86.9,0,2018,4,25,20,17,16.609,-0.5937,0.2185,0.5198,-0.5739
-0.678,-0.104,0.482,191,53.6,-86.2,0,2018,4,25,20,17,16.629,-0.5674,0.2014,0.5335,-0.5938
-0.735,0.026,0.707,152.2,66.8,-92.8,0,2018,4,25,20,17,16.633,-0.544,0.1857,0.5404,-0.6143
-0.727,0.264,0.761,108.3,40.6,-94.3,0,2018,4,25,20,17,16.649,-0.5233,0.1753,0.5434,-0.6324
-0.687,0.387,0.7,70,-14.4,-87.2,0,2018,4,25,20,17,16.669,-0.5052,0.1731,0.5471,-0.6444
-0.567,0.429,0.629,39.4,-51,-75.8,0,2018,4,25,20,17,16.689,-0.4898,0.1779,0.5533,-0.6497
-0.462,0.449,0.569,15.2,-64.3,-59.7,1023,2018,4,25,20,17,16.726,-0.4776,0.1866,0.5603,-0.6504
-0.401,0.485,0.574,-4.8,-52.6,-41.2,1023,2018,4,25,20,17,16.746,-0.4695,0.1959,0.5657,-0.6489
-0.295,0.54,0.538,-23.2,-45.6,-19.6,1023,2018,4,25,20,17,16.751,-0.4659,0.2045,0.5688,-0.646
-0.226,0.549,0.457,-39.5,-40.6,4.6,1023,2018,4,25,20,17,16.771,-0.4667,0.2123,0.5708,-0.6411
-0.188,0.5,0.391,-52.6,-34.5,28.5,1023,2018,4,25,20,17,16.791,-0.4718,0.2189,0.5719,-0.6342
-0.161,0.46,0.334,-63.9,-29.1,52.2,1023,2018,4,25,20,17,16.812,-0.481,0.2238,0.5721,-0.6254
-0.144,0.375,0.3,-73.8,-21.6,72.4,1023,2018,4,25,20,17,16.832,-0.4937,0.2271,0.5714,-0.6148
-0.112,0.311,0.275,-81.3,-23.8,89.9,0,2018,4,25,20,17,16.87,-0.5093,0.2292,0.5702,-0.6024
-0.061,0.249,0.185,-85.2,-35.9,105.2,0,2018,4,25,20,17,16.891,-0.5266,0.2308,0.5696,-0.5872
-0.001,0.154,0.094,-85.3,-55.4,116.9,0,2018,4,25,20,17,16.894,-0.5445,0.2326,0.5708,-0.5687
0.013,-0.035,0.008,-84,-64.9,121.5,0,2018,4,25,20,17,16.911,-0.5622,0.2352,0.5725,-0.5483
0.068,-0.202,0.009,-81.2,-55.4,119,0,2018,4,25,20,17,16.93,-0.5786,0.2382,0.5744,-0.5276
0.139,-0.28,0.023,-79.5,-39.2,113.9,0,2018,4,25,20,17,16.95,-0.5949,0.2391,0.575,-0.5081
0.216,-0.316,-0.007,-77.2,-28.3,106.2,0,2018,4,25,20,17,16.988,-0.611,0.2383,0.5742,-0.4899
0.323,-0.335,-0.017,-73.7,-21.9,95.2,0,2018,4,25,20,17,17.008,-0.626,0.2373,0.5723,-0.4733
0.401,-0.394,-0.016,-69.6,-7,81.1,0,2018,4,25,20,17,17.011,-0.6397,0.236,0.5693,-0.4592
0.452,-0.409,-0.03,-66.2,11.3,63.5,0,2018,4,25,20,17,17.047,-0.6522,0.2339,0.5644,-0.4486
0.523,-0.383,-0.014,-64.1,21.4,47,0,2018,4,25,20,17,17.067,-0.6635,0.2316,0.5578,-0.4414
0.599,-0.365,-0.014,-64.1,23.3,30.7,0,2018,4,25,20,17,17.074,-0.6736,0.2301,0.5501,-0.4365
0.633,-0.368,-0.093,-62.2,20.2,-3.5,0,2018,4,25,20,17,17.093,-0.6894,0.2319,0.5325,-0.4326
0.626,-0.358,-0.129,-59.3,16,-16.7,0,2018,4,25,20,17,17.114,-0.6949,0.2353,0.5234,-0.4331
0.611,-0.334,-0.187,-55.1,10.9,-26.7,0,2018,4,25,20,17,17.132,-0.699,0.24,0.5144,-0.4347
0.571,-0.357,-0.219,-48.8,5.8,-35.1,0,2018,4,25,20,17,17.152,-0.7016,0.2458,0.5062,-0.437
0.569,-0.39,-0.261,-39.1,7.3,-42.2,0,2018,4,25,20,17,17.175,-0.7027,0.2518,0.4986,-0.4404
0.579,-0.44,-0.317,-27.5,12.8,-46.9,0,2018,4,25,20,17,17.192,-0.7025,0.2571,0.4918,-0.4453
0.554,-0.453,-0.405,-13.2,35.9,-47.4,0,2018,4,25,20,17,17.232,-0.7016,0.26,0.4854,-0.4521
0.497,-0.452,-0.442,5.9,64.2,-49.1,0,2018,4,25,20,17,17.252,-0.7004,0.2579,0.4787,-0.4621
0.361,-0.516,-0.41,28,80.3,-57.3,0,2018,4,25,20,17,17.256,-0.6979,0.2519,0.4724,-0.4755
0.226,-0.436,-0.391,50.1,89.7,-63.6,0,2018,4,25,20,17,17.293,-0.6932,0.2431,0.4673,-0.4917
0.12,-0.385,-0.417,74.1,92.6,-68.9,0,2018,4,25,20,17,17.313,-0.6861,0.2321,0.4641,-0.5097
-0.051,-0.503,-0.407,98.9,113,-77.8,0,2018,4,25,20,17,17.317,-0.6764,0.218,0.4625,-0.53
-0.344,-0.641,-0.343,120.6,149.1,-103,1023,2018,4,25,20,17,17.335,-0.6638,0.1992,0.4597,-0.5552
-0.577,-0.615,-0.264,132.5,174.8,-142.1,1023,2018,4,25,20,17,17.356,-0.6467,0.1775,0.454,-0.5866
-0.8,-0.556,-0.238,135.3,196.4,-191.9,1023,2018,4,25,20,17,17.373,-0.6238,0.1556,0.4443,-0.6238
-0.956,-0.4,-0.177,129.9,189.1,-244.9,1023,2018,4,25,20,17,17.409,-0.5938,0.1364,0.4308,-0.6656
-1.01,-0.231,-0.122,117.6,159.8,-293.8,1023,2018,4,25,20,17,17.431,-0.556,0.1241,0.4162,-0.7086
-1.051,-0.101,-0.012,101.2,139.4,-330.8,1023,2018,4,25,20,17,17.435,-0.5112,0.1186,0.4008,-0.7508
-1.075,0.115,0.143,81.4,81.2,-357.1,1023,2018,4,25,20,17,17.457,-0.4608,0.1202,0.386,-0.79
-1.018,0.277,0.182,69.7,-31.3,-372.2,1023,2018,4,25,20,17,17.477,-0.4047,0.1322,0.3806,-0.8208
-0.974,0.544,0.326,52.9,-133.2,-368.6,0,2018,4,25,20,17,17.495,-0.3439,0.1536,0.3887,-0.8408
-0.805,0.612,0.26,33.9,-171.4,-338.6,0,2018,4,25,20,17,17.517,-0.2838,0.1804,0.4046,-0.8503
-0.724,0.547,0.243,25.1,-142.4,-307.8,0,2018,4,25,20,17,17.539,-0.2283,0.2064,0.419,-0.8541
-0.669,0.723,0.311,16.3,-106.8,-273,0,2018,4,25,20,17,17.559,-0.1786,0.229,0.4272,-0.8562
-0.595,1.067,0.347,4.7,-104,-222.4,0,2018,4,25,20,17,17.577,-0.1365,0.2488,0.4328,-0.8556
-0.543,1.351,0.429,-5.7,-127,-157.1,0,2018,4,25,20,17,17.597,-0.1031,0.2656,0.4414,-0.8508
-0.525,1.346,0.511,-23.4,-163.1,-84,0,2018,4,25,20,17,17.618,-0.0797,0.2792,0.4571,-0.8406
-0.526,1.048,0.465,-48.3,-181.8,-18.2,0,2018,4,25,20,17,17.637,-0.0668,0.2906,0.4799,-0.825
-0.496,0.724,0.391,-68.6,-159.8,33.3,0,2018,4,25,20,17,17.657,-0.0646,0.3002,0.5044,-0.8069
-0.533,0.48,0.402,-83.9,-128.2,73.3,0,2018,4,25,20,17,17.675,-0.0715,0.3072,0.5267,-0.7893
-0.561,0.371,0.304,-110.2,-98.5,105.7,0,2018,4,25,20,17,17.713,-0.0868,0.3134,0.5459,-0.7721
-0.524,0.37,0.255,-131.8,-83.2,137.5,0,2018,4,25,20,17,17.732,-0.11,0.3192,0.5623,-0.7547
-0.405,0.245,0.197,-152.5,-74,165.6,0,2018,4,25,20,17,17.735,-0.1395,0.3242,0.5786,-0.7352
-0.263,0.132,0.152,-170.2,-32.9,187.4,0,2018,4,25,20,17,17.774,-0.1754,0.3279,0.5912,-0.7155
0.036,0.006,0.075,-184.5,17.9,206.4,0,2018,4,25,20,17,17.792,-0.2179,0.3295,0.5968,-0.6983
0.341,-0.109,-0.042,-188.1,80,223.3,0,2018,4,25,20,17,17.8,-0.2658,0.328,0.5944,-0.6843
0.603,-0.173,-0.204,-173.8,107.8,228.3,0,2018,4,25,20,17,17.815,-0.3168,0.3211,0.5866,-0.6725
0.693,-0.08,-0.328,-144.9,128.4,228.9,0,2018,4,25,20,17,17.853,-0.3662,0.3093,0.576,-0.662
0.55,-0.083,-0.316,-112.2,143.7,221.6,0,2018,4,25,20,17,17.873,-0.4119,0.2921,0.5636,-0.6535
0.463,-0.175,-0.185,-83.8,152.8,205.9,0,2018,4,25,20,17,17.877,-0.4532,0.2709,0.5496,-0.6473
0.392,-0.132,-0.033,-54.7,74.3,179.2,0,2018,4,25,20,17,17.898,-0.4866,0.2506,0.5395,-0.6397
0.328,-0.063,0.065,-47.2,-16.2,160.7,0,2018,4,25,20,17,17.917,-0.5108,0.2382,0.5399,-0.6251
0.231,-0.13,0.141,-52.1,-43,149.7,0,2018,4,25,20,17,17.935,-0.5305,0.2323,0.5458,-0.6054
0.165,-0.261,0.191,-56.6,-11.9,135.6,0,2018,4,25,20,17,17.976,-0.5494,0.2269,0.5493,-0.5871
0.101,-0.298,0.171,-54.4,0.1,113.9,1023,2018,4,25,20,17,17.995,-0.5674,0.2208,0.5489,-0.5726
0.167,-0.207,0.062,-44,-22.9,95.7,1023,2018,4,25,20,17,17.999,-0.582,0.2168,0.5488,-0.5593
0.181,-0.143,0.001,-30.3,-51.3,85.4,1023,2018,4,25,20,17,18.02,-0.5928,0.2156,0.5521,-0.5451
0.173,-0.187,0.052,-18.7,-62.6,75.1,1023,2018,4,25,20,17,18.042,-0.6004,0.2163,0.5582,-0.5301
0.154,-0.278,0.141,-12.1,-56.6,62.5,1023,2018,4,25,20,17,18.061,-0.6059,0.2172,0.5648,-0.5163
0.111,-0.325,0.193,-8.6,-48.1,44.1,0,2018,4,25,20,17,18.079,-0.6096,0.2184,0.5704,-0.5051
0.108,-0.318,0.206,-6.8,-26.7,28.5,0,2018,4,25,20,17,18.099,-0.612,0.2196,0.5743,-0.4972
0.11,-0.253,0.227,-5.7,1.2,15.2,0,2018,4,25,20,17,18.12,-0.614,0.2192,0.5755,-0.4935
0.114,-0.142,0.24,-6.1,17.2,4.5,0,2018,4,25,20,17,18.14,-0.6158,0.2176,0.5742,-0.4934
0.106,-0.056,0.242,-7.9,19.5,-3.6,0,2018,4,25,20,17,18.161,-0.6173,0.2161,0.5718,-0.4951
0.089,0,0.238,-11,13.6,-9.9,0,2018,4,25,20,17,18.182,-0.6182,0.2159,0.5691,-0.4972
0.078,0.049,0.225,-15.3,7.1,-11.6,0,2018,4,25,20,17,18.201,-0.6189,0.217,0.5663,-0.4989
0.062,0.052,0.219,-21,4.3,-11.4,0,2018,4,25,20,17,18.22,-0.6199,0.2192,0.5634,-0.5
0.02,0.024,0.201,-27.3,4.7,-12.8,0,2018,4,25,20,17,18.258,-0.6215,0.222,0.5599,-0.5008
-0.014,0.021,0.168,-32.9,3.1,-16.1,0,2018,4,25,20,17,18.278,-0.6233,0.2257,0.5557,-0.5015
-0.028,0.048,0.134,-37.6,2.1,-19.6,0,2018,4,25,20,17,18.282,-0.6253,0.2303,0.5509,-0.5023
-0.013,0.087,0.122,-41.9,0.8,-21.3,0,2018,4,25,20,17,18.299,-0.6273,0.2356,0.5456,-0.5031
-0.029,0.014,0.142,-46,5,-24.8,0,2018,4,25,20,17,18.337,-0.6298,0.2413,0.539,-0.5044
-0.074,-0.051,0.193,-50.9,4.4,-32.8,0,2018,4,25,20,17,18.359,-0.6324,0.2476,0.531,-0.5066
-0.109,-0.109,0.265,-59.9,-1.5,-43.3,0,2018,4,25,20,17,18.363,-0.6341,0.256,0.5231,-0.5085
-0.089,-0.153,0.302,-71.9,-2.8,-56.1,0,2018,4,25,20,17,18.381,-0.6355,0.2666,0.5137,-0.5108
0.072,-0.05,0.308,-82,-6.3,-61.1,0,2018,4,25,20,17,18.401,-0.6368,0.2793,0.5026,-0.5134
0.175,-0.048,0.303,-91.5,-13.7,-60.9,0,2018,4,25,20,17,18.423,-0.6384,0.2936,0.4908,-0.515
0.19,-0.183,0.221,-99.3,-11,-64.1,0,2018,4,25,20,17,18.462,-0.6402,0.309,0.478,-0.5157
0.218,-0.153,0.097,-102.9,5.1,-68.3,0,2018,4,25,20,17,18.483,-0.6423,0.324,0.4633,-0.5173
0.294,-0.069,0.063,-105.1,23.1,-65.7,0,2018,4,25,20,17,18.487,-0.6454,0.337,0.4463,-0.5201
0.317,-0.042,0.026,-106.3,28.7,-65.5,0,2018,4,25,20,17,18.499,-0.6491,0.3487,0.4279,-0.5232
0.279,-0.045,-0.008,-107.7,29.1,-66.6,0,2018,4,25,20,17,18.539,-0.6527,0.36,0.4091,-0.5262
0.276,0.04,-0.07,-109.5,24.8,-66.1,0,2018,4,25,20,17,18.558,-0.6558,0.3716,0.3899,-0.5288
0.287,0.058,-0.139,-109.3,17.1,-63.3,0,2018,4,25,20,17,18.562,-0.6585,0.3835,0.3712,-0.5304
0.26,0,-0.221,-104.8,6.1,-64.4,1023,2018,4,25,20,17,18.581,-0.6602,0.3961,0.3534,-0.5312
0.25,0.007,-0.26,-99.5,-8.5,-67.4,1023,2018,4,25,20,17,18.6,-0.6601,0.4097,0.3373,-0.5315
0.232,-0.041,-0.256,-94.5,-6.5,-72.8,1023,2018,4,25,20,17,18.637,-0.6585,0.4236,0.322,-0.532
0.201,0.026,-0.287,-84.3,21.6,-88.3,1023,2018,4,25,20,17,18.657,-0.6545,0.4463,0.2879,-0.5379
0.207,0.104,-0.318,-76.5,12.6,-92.9,1023,2018,4,25,20,17,18.661,-0.6513,0.456,0.2701,-0.5429
0.266,0.19,-0.323,-65.5,-11.8,-93.7,1023,2018,4,25,20,17,18.702,-0.6457,0.4668,0.2546,-0.5478
0.272,0.062,-0.327,-52.5,-38.2,-97.7,1023,2018,4,25,20,17,18.72,-0.637,0.4794,0.2428,-0.5525
0.256,0.014,-0.272,-37.9,-43.2,-109.4,1023,2018,4,25,20,17,18.724,-0.6252,0.4926,0.2336,-0.5584
0.242,-0.111,-0.119,-31.6,-16.8,-124.1,0,2018,4,25,20,17,18.766,-0.6123,0.5041,0.2229,-0.5667
0.321,-0.19,0.022,-32.9,30.8,-145,0,2018,4,25,20,17,18.77,-0.601,0.5113,0.2066,-0.5785
0.463,0.007,0.068,-35.4,38.8,-166.6,0,2018,4,25,20,17,18.786,-0.5896,0.516,0.1852,-0.5931
0.468,0.156,0.105,-35.3,19.8,-181.1,0,2018,4,25,20,17,18.805,-0.5751,0.5218,0.1628,-0.6085
0.376,0.123,0.139,-34.7,-3.9,-195.7,0,2018,4,25,20,17,18.841,-0.5563,0.5299,0.1412,-0.6242
0.333,0.011,0.062,-34.1,-12.4,-207.7,0,2018,4,25,20,17,18.861,-0.5337,0.5393,0.1204,-0.64
0.251,0.032,0.074,-36.3,14.6,-219.7,0,2018,4,25,20,17,18.865,-0.5102,0.5473,0.0971,-0.6562
0.178,0.128,0.08,-43.8,39.8,-226.6,0,2018,4,25,20,17,18.885,-0.4875,0.5527,0.0686,-0.6723
0.196,0.122,0.027,-46.6,54.5,-229.1,0,2018,4,25,20,17,18.904,-0.4656,0.5563,0.0369,-0.6872
0.141,0.155,0.02,-43.5,60.8,-229.6,0,2018,4,25,20,17,18.943,-0.4435,0.5579,0.0039,-0.7013
0.046,0.196,0.075,-46.5,66.1,-223,0,2018,4,25,20,17,18.963,-0.4215,0.5582,-0.0296,-0.714
0.019,0.284,0.024,-50.1,72.8,-207.9,0,2018,4,25,20,17,18.967,-0.4008,0.5575,-0.0629,-0.7241
0.066,0.333,-0.107,-47.4,65.9,-190.7,0,2018,4,25,20,17,18.983,-0.3817,0.5563,-0.095,-0.7318
0.171,0.444,-0.136,-35,48.3,-171.7,0,2018,4,25,20,17,19.02,-0.3632,0.5546,-0.123,-0.7384
0.078,0.411,-0.134,-23.8,28.5,-145.8,0,2018,4,25,20,17,19.039,-0.3457,0.5523,-0.1453,-0.7445
-0.312,0.257,-0.206,-10.8,-3.6,-89.5,0,2018,4,25,20,17,19.043,-0.3161,0.5488,-0.173,-0.7542
-0.43,0.214,-0.225,-6.8,-6.2,-59.4,0,2018,4,25,20,17,19.064,-0.3054,0.5481,-0.18,-0.7575
-0.519,0.212,-0.243,-6.6,6,-29,0,2018,4,25,20,17,19.085,-0.2994,0.5476,-0.1846,-0.7591
-0.606,0.208,-0.282,-5.4,18.9,0,0,2018,4,25,20,17,19.125,-0.2987,0.5474,-0.1883,-0.7587
-0.614,0.199,-0.316,-3.3,24.7,24.4,0,2018,4,25,20,17,19.145,-0.3025,0.5472,-0.1904,-0.7567
-0.548,0.202,-0.331,3.5,22.8,42.8,0,2018,4,25,20,17,19.149,-0.3093,0.5471,-0.1902,-0.7541
-0.554,0.213,-0.268,10.5,15.4,57.1,0,2018,4,25,20,17,19.168,-0.3181,0.5466,-0.1876,-0.7514
-0.555,0.186,-0.26,15.4,3.6,67.5,0,2018,4,25,20,17,19.184,-0.3278,0.5464,-0.1824,-0.7487
-0.481,0.209,-0.251,22.1,-22,76,1023,2018,4,25,20,17,19.204,-0.3369,0.5467,-0.1732,-0.7466
-0.347,0.119,-0.234,27.1,-42.6,81.6,1023,2018,4,25,20,17,19.222,-0.3448,0.5478,-0.1598,-0.7452
-0.138,0.06,-0.22,34.3,-56.2,78.3,1023,2018,4,25,20,17,19.262,-0.3513,0.5491,-0.1439,-0.7445
0.013,0.183,-0.282,45.2,-77.1,76.1,1023,2018,4,25,20,17,19.282,-0.3559,0.5497,-0.1256,-0.7451
0.104,0.331,-0.423,68.2,-123.6,80.6,1023,2018,4,25,20,17,19.286,-0.3574,0.5503,-0.1014,-0.7476
0.041,0.316,-0.453,97.5,-159.3,90.8,1023,2018,4,25,20,17,19.307,-0.3561,0.5496,-0.0693,-0.7524
-0.07,0.385,-0.514,137.8,-215.4,103.5,1023,2018,4,25,20,17,19.327,-0.3517,0.5465,-0.0279,-0.7594
-0.146,0.309,-0.487,182.6,-216.8,132.8,0,2018,4,25,20,17,19.365,-0.3464,0.5387,0.0225,-0.7676
-0.274,0.407,-0.508,229.4,-194.3,165.4,0,2018,4,25,20,17,19.387,-0.3457,0.5217,0.0765,-0.7761
-0.52,0.252,-0.44,263.2,-141.6,197.6,0,2018,4,25,20,17,19.391,-0.3509,0.4947,0.131,-0.7841
-0.786,-0.13,-0.106,269.2,-79,210.7,0,2018,4,25,20,17,19.409,-0.3631,0.4587,0.1796,-0.7908
-0.806,0.03,-0.025,254.9,-63.6,211.1,0,2018,4,25,20,17,19.449,-0.378,0.4192,0.2216,-0.795
-0.715,0.144,-0.037,232.6,-93.3,213.8,0,2018,4,25,20,17,19.451,-0.3918,0.3817,0.2634,-0.7946
-0.524,-0.146,0.176,204.5,-97.7,211.2,0,2018,4,25,20,17,19.464,-0.4041,0.3479,0.3058,-0.7886
-0.302,-0.496,0.544,163.2,-62.9,188.5,0,2018,4,25,20,17,19.504,-0.4165,0.3171,0.3416,-0.7805
0.028,-0.511,0.813,114.1,-44.1,153.9,0,2018,4,25,20,17,19.525,-0.4285,0.2914,0.3674,-0.7722
0.313,-0.635,0.954,60.5,-56.9,116.7,0,2018,4,25,20,17,19.529,-0.4383,0.2748,0.3877,-0.7628
0.458,-0.568,0.817,10.8,-63.5,77,0,2018,4,25,20,17,19.566,-0.4457,0.2682,0.4028,-0.753
0.512,-0.546,0.691,-26.4,-68.9,39.6,0,2018,4,25,20,17,19.588,-0.4507,0.2705,0.4136,-0.7432
0.547,-0.376,0.648,-54.5,-60.6,4.9,0,2018,4,25,20,17,19.592,-0.4532,0.2793,0.4201,-0.7348
0.525,-0.198,0.526,-75.2,-40.2,-21.1,0,2018,4,25,20,17,19.611,-0.4543,0.2924,0.4209,-0.7285
0.442,-0.068,0.342,-83.5,-19.6,-39.1,0,2018,4,25,20,17,19.631,-0.4547,0.3071,0.4167,-0.7246
0.348,-0.019,0.181,-78.6,0.8,-52.2,0,2018,4,25,20,17,19.648,-0.4542,0.3214,0.4091,-0.7231
0.283,0.035,0.12,-66.8,19.8,-60.6,0,2018,4,25,20,17,19.667,-0.4527,0.3334,0.399,-0.7242
0.239,0.146,0.107,-57,25.8,-64.7,0,2018,4,25,20,17,19.704,-0.4503,0.3434,0.3877,-0.7272
0.179,0.223,0.026,-50.1,27.8,-62.2,0,2018,4,25,20,17,19.725,-0.4473,0.3522,0.3764,-0.7308
0.081,0.277,-0.036,-42.9,33.7,-51.4,0,2018,4,25,20,17,19.73,-0.4448,0.3593,0.3656,-0.7343
-0.058,0.246,-0.071,-35.7,47.1,-36.5,0,2018,4,25,20,17,19.748,-0.444,0.3639,0.3544,-0.738
-0.132,0.345,-0.092,-27.3,62.9,-18.9,0,2018,4,25,20,17,19.783,-0.4457,0.365,0.342,-0.7422
-0.105,0.5,-0.155,-20.7,56.6,5.2,0,2018,4,25,20,17,19.802,-0.4502,0.3635,0.3319,-0.7449
-0.085,0.585,-0.216,-11.8,30.3,37.2,0,2018,4,25,20,17,19.809,-0.4566,0.3608,0.3266,-0.7446
-0.075,0.614,-0.26,-1.6,-1.3,71.2,0,2018,4,25,20,17,19.851,-0.4649,0.3572,0.3281,-0.7406
-0.038,0.66,-0.326,6.4,-30.9,105.7,1023,2018,4,25,20,17,19.87,-0.4752,0.3529,0.3362,-0.7324
0,0.707,-0.428,15,-54.8,143.3,1023,2018,4,25,20,17,19.874,-0.4877,0.3478,0.3503,-0.7199
0.023,0.684,-0.443,25.8,-71.3,180.7,1023,2018,4,25,20,17,19.888,-0.5028,0.3405,0.3699,-0.703
0.04,0.646,-0.413,32.3,-71.5,214.2,1023,2018,4,25,20,17,19.927,-0.5205,0.3302,0.3931,-0.6822
-0.02,0.643,-0.376,40.3,-53.4,249.7,1023,2018,4,25,20,17,19.947,-0.5415,0.3151,0.4171,-0.6582
-0.171,0.625,-0.278,54.6,-28.9,287.3,1023,2018,4,25,20,17,19.952,-0.5659,0.2935,0.4409,-0.6317
-0.354,0.448,-0.134,68.2,4.2,317.8,1023,2018,4,25,20,17,19.973,-0.5932,0.2637,0.4634,-0.603
-0.483,0.281,-0.048,83.6,1.1,335.3,0,2018,4,25,20,17,19.992,-0.6208,0.2276,0.4849,-0.5722
-0.693,0.143,-0.004,96.6,-23.5,349.9,0,2018,4,25,20,17,20.012,-0.6455,0.1905,0.5091,-0.5363
-0.907,-0.067,0.178,101.7,-45.2,354.2,0,2018,4,25,20,17,20.051,-0.6672,0.1526,0.5344,-0.4957
-0.969,-0.53,0.331,86.5,-73.1,342.7,0,2018,4,25,20,17,20.07,-0.6855,0.1183,0.5592,-0.4508
-0.868,-0.929,0.258,68.7,-63.1,315.7,0,2018,4,25,20,17,20.074,-0.7008,0.0886,0.5802,-0.4052
-0.687,-0.997,0.178,56.7,-17.3,283,0,2018,4,25,20,17,20.094,-0.7137,0.059,0.5947,-0.3652
-0.512,-1.048,0.283,48.8,1.8,245.7,0,2018,4,25,20,17,20.114,-0.7242,0.0281,0.6035,-0.3322
-0.381,-0.986,0.491,32,-29.9,200.3,0,2018,4,25,20,17,20.129,-0.732,0.0034,0.61,-0.303
-0.094,-0.916,0.539,4.1,-97.1,159.2,0,2018,4,25,20,17,20.15,-0.7391,-0.0084,0.6156,-0.2731
0.198,-0.973,0.472,-24.7,-132.5,126,0,2018,4,25,20,17,20.17,-0.7469,-0.0079,0.6193,-0.2418
0.377,-0.963,0.431,-48.5,-131.3,96.8,0,2018,4,25,20,17,20.21,-0.7554,-0.001,0.6196,-0.2128
0.452,-0.81,0.47,-71.6,-117.9,69.4,0,2018,4,25,20,17,20.23,-0.7647,0.0086,0.616,-0.1884
0.553,-0.717,0.418,-94.9,-119.5,41.4,0,2018,4,25,20,17,20.234,-0.7752,0.0209,0.6085,-0.1681
0.592,-0.839,0.289,-107.9,-121.5,4.6,0,2018,4,25,20,17,20.255,-0.786,0.0375,0.5981,-0.1516
0.673,-0.856,0.149,-108.9,-100.5,-37.1,0,2018,4,25,20,17,20.274,-0.7959,0.0572,0.5857,-0.1413
0.794,-0.667,0.015,-95.3,-83.4,-78.2,0,2018,4,25,20,17,20.313,-0.8038,0.0781,0.5729,-0.1393
0.844,-0.492,-0.096,-69.9,-82.9,-112.4,0,2018,4,25,20,17,20.333,-0.8083,0.101,0.5619,-0.1433
0.841,-0.401,-0.146,-44.1,-77,-139.7,0,2018,4,25,20,17,20.337,-0.8089,0.1259,0.5536,-0.1523
0.826,-0.306,-0.209,-22.2,-68.2,-161.3,0,2018,4,25,20,17,20.351,-0.806,0.1514,0.5474,-0.1659
0.813,-0.265,-0.273,-2.1,-55.8,-176.7,0,2018,4,25,20,17,20.39,-0.8002,0.1764,0.5429,-0.1834
0.757,-0.267,-0.371,20,-43.4,-188.1,0,2018,4,25,20,17,20.41,-0.7916,0.2002,0.5398,-0.2045
0.686,-0.177,-0.466,48.7,-43.1,-195.3,0,2018,4,25,20,17,20.414,-0.7795,0.2225,0.5391,-0.2282
0.601,-0.122,-0.472,77.2,-48.3,-191.6,0,2018,4,25,20,17,20.435,-0.7634,0.2443,0.5418,-0.2526
0.426,-0.306,-0.492,102.8,-32.1,-181.3,0,2018,4,25,20,17,20.454,-0.7443,0.2632,0.5476,-0.2771
0.199,-0.505,-0.444,121.2,-2,-173.2,1023,2018,4,25,20,17,20.474,-0.7236,0.2765,0.5546,-0.3036
0.062,-0.521,-0.418,128.6,25.5,-160.4,1023,2018,4,25,20,17,20.491,-0.7028,0.2838,0.5614,-0.332
