heart,z,y,x,w,droll,dpitch,dyaw,ax,ay,az,time_1,time_2,time_3,time_4,time_5,time_6
0,0.658,-0.698,-0.2794,0.0408,-9.4,57.9,-124.2,-0.085,0.134,-0.014,2018,4,24,22,43,40.984
0,0.6612,-0.6934,-0.2856,0.0163,-16.8,59.8,-117.4,-0.112,0.132,-0.057,2018,4,24,22,43,41.006
0,0.664,-0.6887,-0.2908,-0.0069,-7.9,63.1,-111.4,-0.139,0.054,-0.041,2018,4,24,22,43,41.014
0,0.6684,-0.6821,-0.2949,-0.0288,4.5,64.3,-105,-0.148,0.119,-0.021,2018,4,24,22,43,41.032
0,0.6731,-0.6743,-0.2994,-0.0487,3.1,61.9,-99,-0.144,0.179,-0.018,2018,4,24,22,43,41.051
0,0.6768,-0.6669,-0.3042,-0.0671,1.4,59.6,-91.4,-0.128,0.195,0.021,2018,4,24,22,43,41.074
0,0.6807,-0.6591,-0.3082,-0.0839,10.8,56.5,-82.5,-0.135,0.17,0.015,2018,4,24,22,43,41.111
0,0.6851,-0.6509,-0.3121,-0.0974,20.1,52.6,-75,-0.139,0.194,0.026,2018,4,24,22,43,41.134
0,0.6885,-0.6436,-0.3159,-0.1084,14,46.3,-67.8,-0.138,0.238,0.051,2018,4,24,22,43,41.139
0,0.6893,-0.6396,-0.3191,-0.1175,2.5,39.5,-58.9,-0.125,0.22,0.056,2018,4,24,22,43,41.173
0,0.6896,-0.6366,-0.3219,-0.1241,5.4,34.6,-50,-0.112,0.15,0.037,2018,4,24,22,43,41.195
0,0.6921,-0.6313,-0.3246,-0.13,17.4,30.7,-43.4,-0.113,0.14,0.009,2018,4,24,22,43,41.198
0,0.695,-0.626,-0.3271,-0.134,12.9,26.1,-37.4,-0.113,0.195,0.008,2018,4,24,22,43,41.215
0,0.6959,-0.6232,-0.3294,-0.1366,-1.4,22.5,-31.1,-0.097,0.189,0.026,2018,4,24,22,43,41.238
0,0.696,-0.6219,-0.3307,-0.1388,-7.9,19.8,-26.6,-0.102,0.106,0.008,2018,4,24,22,43,41.254
0,0.6961,-0.621,-0.3317,-0.1402,-1.5,17.8,-22.9,-0.085,0.076,-0.001,2018,4,24,22,43,41.272
0,0.6975,-0.6186,-0.3331,-0.1404,11.5,15.9,-19.1,-0.069,0.096,0.035,2018,4,24,22,43,41.295
0,0.6994,-0.616,-0.3346,-0.1385,17,12.1,-14.8,-0.059,0.159,0.061,2018,4,24,22,43,41.315
0,0.6995,-0.6159,-0.3358,-0.1355,3.1,7,-9.4,-0.043,0.18,0.057,2018,4,24,22,43,41.338
0,0.699,-0.6164,-0.337,-0.1334,-9.2,3.7,-4.7,-0.025,0.124,0.035,2018,4,24,22,43,41.353
0,0.6985,-0.6174,-0.3373,-0.1306,-7.8,1.9,-0.8,-0.014,0.062,0.025,2018,4,24,22,43,41.377
0,0.6985,-0.6177,-0.3378,-0.1273,-4.2,-0.5,1.5,-0.02,0.103,0.053,2018,4,24,22,43,41.413
0,0.6969,-0.6203,-0.3384,-0.122,-7.3,-4.9,4.3,-0.026,0.144,0.077,2018,4,24,22,43,41.436
0,0.6938,-0.6245,-0.3389,-0.1164,-17.4,-10.1,10.2,-0.016,0.188,0.083,2018,4,24,22,43,41.441
0,0.6897,-0.6302,-0.3392,-0.1096,-21.8,-14.3,18.6,-0.017,0.208,0.088,2018,4,24,22,43,41.453
1023,0.6855,-0.636,-0.3391,-0.1018,-16.7,-18.2,27.9,-0.051,0.204,0.117,2018,4,24,22,43,41.489
1023,0.6821,-0.6415,-0.3384,-0.0923,-6.5,-22.8,38.2,-0.08,0.208,0.112,2018,4,24,22,43,41.512
1023,0.6794,-0.6466,-0.3373,-0.0803,-2,-28.2,48.8,-0.078,0.211,0.083,2018,4,24,22,43,41.516
1023,0.6764,-0.6519,-0.3357,-0.0674,-5.9,-32.8,58.3,-0.087,0.184,0.051,2018,4,24,22,43,41.535
1023,0.6744,-0.6561,-0.3338,-0.0549,-10.4,-36.5,65.8,-0.101,0.128,0.031,2018,4,24,22,43,41.558
1023,0.673,-0.6599,-0.3312,-0.0418,-1.8,-38.5,71.3,-0.106,0.063,0.031,2018,4,24,22,43,41.576
1023,0.674,-0.6611,-0.3282,-0.0271,31.5,-38.2,76.1,-0.096,0.025,0.036,2018,4,24,22,43,41.599
1023,0.6802,-0.657,-0.3248,-0.0087,80.8,-37.6,82.5,-0.099,0.034,0.021,2018,4,24,22,43,41.617
1023,0.6893,-0.6493,-0.3209,0.011,86.7,-36.5,87.2,-0.121,0.152,-0.046,2018,4,24,22,43,41.64
1023,0.6961,-0.6436,-0.3166,0.0303,56.9,-33.2,95.5,-0.112,0.184,-0.06,2018,4,24,22,43,41.658
1023,0.7003,-0.6408,-0.3106,0.049,47.4,-28.7,103.9,-0.104,0.115,0,2018,4,24,22,43,41.681
1023,0.7067,-0.6361,-0.3019,0.0683,85.9,-24.2,111.1,-0.085,0.026,0.016,2018,4,24,22,43,41.699
0,0.7185,-0.6251,-0.291,0.0907,142.6,-19.2,118.8,-0.053,-0.013,-0.058,2018,4,24,22,43,41.722
0,0.732,-0.6107,-0.2789,0.1151,140.6,-9.6,121.2,-0.049,0.198,-0.148,2018,4,24,22,43,41.759
0,0.7419,-0.6002,-0.2657,0.1361,78.1,-4.9,128,-0.101,0.331,-0.072,2018,4,24,22,43,41.759
0,0.7434,-0.5996,-0.2519,0.1559,24.8,-6.3,133.3,-0.108,0.238,0.041,2018,4,24,22,43,41.782
0,0.7412,-0.6024,-0.2382,0.1754,23,-10.3,139.1,-0.075,0.109,0.077,2018,4,24,22,43,41.798
0,0.7411,-0.602,-0.2242,0.1948,27.5,-13.5,141.2,-0.046,0.046,0.001,2018,4,24,22,43,41.834
0,0.7386,-0.6035,-0.2109,0.2134,-5.7,-14.5,141.6,-0.057,0.144,-0.069,2018,4,24,22,43,41.857
0,0.7309,-0.6108,-0.1987,0.2303,-50.4,-16.5,144.4,-0.07,0.139,-0.027,2018,4,24,22,43,41.863
0,0.7196,-0.6213,-0.1867,0.2471,-58.4,-20.7,146.9,-0.086,0.006,0.054,2018,4,24,22,43,41.879
0,0.7078,-0.6311,-0.1749,0.2644,-48.1,-24.9,141.9,-0.112,-0.25,-0.003,2018,4,24,22,43,41.901
0,0.6951,-0.6411,-0.1636,0.2808,-45.7,-23.5,129,-0.113,-0.33,-0.084,2018,4,24,22,43,41.92
0,0.6835,-0.6496,-0.1526,0.2957,-30.6,-20.3,120,-0.102,-0.277,-0.02,2018,4,24,22,43,41.943
0,0.676,-0.6537,-0.1415,0.309,6.2,-17.4,111.5,-0.033,-0.251,-0.008,2018,4,24,22,43,41.96
0,0.674,-0.6521,-0.1287,0.3221,53.9,-14.1,107.2,-0.002,-0.179,-0.072,2018,4,24,22,43,41.977
0,0.6732,-0.6492,-0.1152,0.3347,30.3,-10.6,99.7,-0.062,0.044,-0.142,2018,4,24,22,43,41.999
0,0.6669,-0.6518,-0.1038,0.3455,-28.9,-9.5,96,-0.091,0.113,-0.062,2018,4,24,22,43,42.017
0,0.6558,-0.659,-0.0964,0.3552,-68.8,-15.3,82.8,-0.202,-0.275,0.105,2018,4,24,22,43,42.041
0,0.6405,-0.6716,-0.0998,0.3585,-89.2,-31.4,-3.7,0.171,-2.508,0.131,2018,4,24,22,43,42.076
0,0.643,-0.6682,-0.1023,0.3596,78.3,-36.5,-16.3,0.056,-0.061,-0.096,2018,4,24,22,43,42.099
0,0.6506,-0.6601,-0.1058,0.36,26.4,-38.5,-25.1,0.023,0.219,-0.077,2018,4,24,22,43,42.104
0,0.6517,-0.6581,-0.1116,0.3601,-24.5,-36.7,-12.8,0.008,0.243,-0.042,2018,4,24,22,43,42.122
0,0.6486,-0.6599,-0.1185,0.3599,-34.5,-31.8,-8.9,0.048,-0.101,0.017,2018,4,24,22,43,42.16
0,0.6481,-0.6603,-0.124,0.3585,11.2,-24,-14.5,0.106,-0.258,-0.003,2018,4,24,22,43,42.183
0,0.6531,-0.6559,-0.1258,0.3567,44,-17,-12.8,0.058,0.037,-0.039,2018,4,24,22,43,42.187
0,0.6586,-0.6511,-0.1257,0.3555,27.4,-13.3,-6.1,0.019,0.153,0.013,2018,4,24,22,43,42.201
0,0.6615,-0.6486,-0.1255,0.3547,2.5,-7.8,1.6,0.025,0.174,0.056,2018,4,24,22,43,42.218
0,0.6624,-0.6485,-0.125,0.3535,0.1,-2.1,4.9,0.033,-0.032,0.106,2018,4,24,22,43,42.241
0,0.6639,-0.6481,-0.1236,0.3516,6.2,1.8,2.9,0.035,-0.07,0.069,2018,4,24,22,43,42.259
0,0.6653,-0.6483,-0.1224,0.3492,0.3,3.2,1.7,0.021,-0.056,0.015,2018,4,24,22,43,42.278
0,0.6657,-0.6496,-0.1215,0.3462,-9.1,2.5,0.5,0.01,0.002,0.005,2018,4,24,22,43,42.319
1023,0.665,-0.652,-0.1212,0.3431,-16,2.5,0.4,0.007,0.016,0.002,2018,4,24,22,43,42.341
1023,0.6642,-0.6544,-0.1211,0.3402,-12.8,3.9,1.3,0.016,0.017,-0.013,2018,4,24,22,43,42.343
1023,0.664,-0.6564,-0.1202,0.3371,-5.3,5.1,2.2,0.026,0.01,-0.026,2018,4,24,22,43,42.377
1023,0.6643,-0.6578,-0.119,0.3341,-3,4.6,2.5,0.026,0.012,-0.039,2018,4,24,22,43,42.401
1023,0.6646,-0.6591,-0.118,0.3314,-3.9,3.9,3,0.037,0.005,-0.016,2018,4,24,22,43,42.405
1023,0.665,-0.6602,-0.117,0.3286,-3.4,4.8,2.9,0.051,-0.034,0.001,2018,4,24,22,43,42.421
1023,0.6658,-0.6611,-0.1158,0.3256,-2.3,5.6,1.4,0.049,-0.065,0.032,2018,4,24,22,43,42.439
1023,0.6663,-0.6622,-0.1153,0.3226,-11.8,3.4,-1.9,0.038,-0.051,0.025,2018,4,24,22,43,42.462
1023,0.6649,-0.6651,-0.1163,0.3191,-36.4,1.7,-6.4,0.021,-0.025,0.014,2018,4,24,22,43,42.5
1023,0.6597,-0.672,-0.1198,0.314,-70.3,2.9,-13.3,0.002,-0.126,-0.044,2018,4,24,22,43,42.5
1023,0.6527,-0.6809,-0.1245,0.3077,-73.2,5.2,-22,-0.052,-0.218,-0.004,2018,4,24,22,43,42.524
1023,0.6463,-0.6893,-0.1302,0.3001,-67.3,4.3,-34.5,-0.029,-0.287,-0.008,2018,4,24,22,43,42.542
1023,0.6413,-0.6967,-0.1371,0.2905,-55,8.3,-50.6,0.003,-0.378,-0.072,2018,4,24,22,43,42.565
0,0.6397,-0.7014,-0.1443,0.2789,-25.5,14.6,-65.3,0.037,-0.407,-0.059,2018,4,24,22,43,42.583
0,0.642,-0.703,-0.1514,0.2655,-11.3,19.4,-79.8,0.04,-0.319,-0.039,2018,4,24,22,43,42.606
0,0.6448,-0.7044,-0.1596,0.2499,-24.5,23.7,-93,0.05,-0.239,-0.013,2018,4,24,22,43,42.643
0,0.6462,-0.7069,-0.1694,0.2319,-36.8,27.6,-104.2,0.055,-0.28,-0.007,2018,4,24,22,43,42.643
0,0.6479,-0.7091,-0.1797,0.212,-23.6,32.6,-114.5,0.042,-0.308,-0.011,2018,4,24,22,43,42.666
0,0.652,-0.7087,-0.1897,0.1909,-8.9,36.7,-123.4,0.03,-0.216,-0.005,2018,4,24,22,43,42.684
0,0.6565,-0.7073,-0.2003,0.1688,-18.1,39.1,-131.2,0.014,-0.146,-0.012,2018,4,24,22,43,42.703
0,0.659,-0.707,-0.2113,0.1449,-35.5,41.3,-135.5,0.003,-0.083,-0.003,2018,4,24,22,43,42.725
0,0.6598,-0.7076,-0.2224,0.1198,-36.4,46.4,-138.1,-0.013,-0.128,-0.031,2018,4,24,22,43,42.742
0,0.6614,-0.7066,-0.2327,0.0942,-20.3,52.2,-139.8,-0.029,-0.073,-0.003,2018,4,24,22,43,42.764
0,0.6648,-0.7033,-0.2421,0.0685,-15.1,55.1,-138.1,-0.034,0.026,-0.013,2018,4,24,22,43,42.801
0,0.6679,-0.6992,-0.251,0.0429,-11.2,59.3,-135.9,-0.062,0.01,-0.028,2018,4,24,22,43,42.824
0,0.6717,-0.6938,-0.2589,0.0179,-2.5,62.2,-132.3,-0.086,0.047,-0.03,2018,4,24,22,43,42.829
0,0.6766,-0.6864,-0.2663,-0.006,3.5,62.4,-128.4,-0.116,0.124,0.034,2018,4,24,22,43,42.847
0,0.6819,-0.6778,-0.2731,-0.0291,9.2,60.3,-122.2,-0.116,0.138,0.022,2018,4,24,22,43,42.865
0,0.6865,-0.6691,-0.2799,-0.0503,12.4,60.1,-117.1,-0.149,0.099,-0.063,2018,4,24,22,43,42.888
0,0.6907,-0.6602,-0.2863,-0.0702,9.8,59.8,-109.9,-0.159,0.205,-0.021,2018,4,24,22,43,42.904
0,0.6942,-0.6516,-0.2924,-0.0883,7.8,57,-101.9,-0.149,0.189,0.026,2018,4,24,22,43,42.923
0,0.6975,-0.6431,-0.298,-0.1047,9.6,53.3,-93.9,-0.151,0.181,0.007,2018,4,24,22,43,42.946
0,0.6998,-0.6358,-0.3031,-0.1185,10.1,52.4,-86.3,-0.174,0.16,-0.011,2018,4,24,22,43,42.963
0,0.7024,-0.6286,-0.3074,-0.1297,14.8,50.8,-79.3,-0.18,0.142,-0.026,2018,4,24,22,43,42.986
0,0.7056,-0.621,-0.3111,-0.1398,23,47,-71.6,-0.143,0.204,0.036,2018,4,24,22,43,43.023
0,0.7079,-0.615,-0.3146,-0.1464,28.7,42.4,-63.4,-0.126,0.196,0.024,2018,4,24,22,43,43.046
0,0.7123,-0.6071,-0.3177,-0.1516,33.8,38.2,-55.6,-0.13,0.139,-0.041,2018,4,24,22,43,43.051
0,0.7169,-0.5993,-0.3203,-0.1551,36.5,35.9,-48.7,-0.128,0.167,-0.049,2018,4,24,22,43,43.066
0,0.7212,-0.5924,-0.3229,-0.1569,31.5,32.5,-42.7,-0.135,0.215,0.013,2018,4,24,22,43,43.089
0,0.7235,-0.5885,-0.3247,-0.1568,23.5,26.5,-37.2,-0.118,0.185,0.037,2018,4,24,22,43,43.105
0,0.7261,-0.5842,-0.3263,-0.1575,15.6,21.6,-32,-0.086,0.158,0.019,2018,4,24,22,43,43.125
0,0.727,-0.5829,-0.328,-0.1549,12.4,16.3,-25.3,-0.074,0.166,0.028,2018,4,24,22,43,43.162
0,0.7274,-0.5826,-0.329,-0.1517,9.5,11.8,-19.1,-0.068,0.161,0.039,2018,4,24,22,43,43.184
0,0.7272,-0.5833,-0.33,-0.1479,2.6,5.9,-13,-0.066,0.219,0.091,2018,4,24,22,43,43.189
1023,0.7259,-0.5855,-0.3311,-0.1431,-3.9,-1.2,-5.8,-0.047,0.191,0.106,2018,4,24,22,43,43.207
1023,0.7241,-0.5887,-0.3321,-0.1365,-3.5,-7.6,2.2,-0.039,0.183,0.087,2018,4,24,22,43,43.228
1023,0.7222,-0.5924,-0.3329,-0.128,-5,-12.9,11.5,-0.038,0.207,0.073,2018,4,24,22,43,43.265
1023,0.7198,-0.5972,-0.3332,-0.1187,-9,-17.1,20.5,-0.051,0.204,0.063,2018,4,24,22,43,43.288
1023,0.717,-0.6028,-0.3328,-0.1082,-9.8,-20.1,29.4,-0.069,0.171,0.043,2018,4,24,22,43,43.293
1023,0.7141,-0.6085,-0.3322,-0.0965,-7,-21.5,37.9,-0.087,0.152,0.039,2018,4,24,22,43,43.309
1023,0.7114,-0.6142,-0.331,-0.0836,-4.6,-23.4,45.8,-0.092,0.159,0.038,2018,4,24,22,43,43.331
1023,0.7099,-0.6182,-0.3294,-0.0716,-5.9,-25.1,53.2,-0.075,0.141,0.012,2018,4,24,22,43,43.349
1023,0.7092,-0.6214,-0.3275,-0.0595,-3.9,-25.4,59.2,-0.064,0.075,-0.014,2018,4,24,22,43,43.373
1023,0.709,-0.624,-0.3249,-0.0463,8.9,-24.1,63.2,-0.065,0.014,-0.012,2018,4,24,22,43,43.39
1023,0.7103,-0.6249,-0.3222,-0.0324,20.4,-24.6,65.4,-0.078,0.051,-0.006,2018,4,24,22,43,43.406
1023,0.7122,-0.6246,-0.3196,-0.0179,23.6,-24.5,67.6,-0.058,0.058,-0.021,2018,4,24,22,43,43.431
1023,0.7144,-0.6238,-0.3167,-0.0033,31.7,-23,70.4,-0.02,0.042,-0.001,2018,4,24,22,43,43.448
0,0.7177,-0.6216,-0.3135,0.0122,40.9,-22.1,72.4,-0.031,0.022,0,2018,4,24,22,43,43.471
0,0.7209,-0.6189,-0.3104,0.0275,31.2,-21.8,72.6,-0.038,0.077,-0.027,2018,4,24,22,43,43.49
0,0.7224,-0.6179,-0.3072,0.0412,11.3,-22.3,74.4,-0.041,0.114,0.008,2018,4,24,22,43,43.508
0,0.7224,-0.6187,-0.3038,0.0539,-0.3,-24,77.1,-0.014,0.087,0.041,2018,4,24,22,43,43.532
0,0.7218,-0.6199,-0.3002,0.067,8.1,-24.3,79.7,-0.021,-0.003,0.013,2018,4,24,22,43,43.566
0,0.723,-0.619,-0.2957,0.0811,31,-24,81.7,-0.032,-0.036,-0.024,2018,4,24,22,43,43.589
0,0.7256,-0.6161,-0.2908,0.0958,35.3,-24.2,82.7,-0.046,0.086,-0.025,2018,4,24,22,43,43.594
0,0.7272,-0.6139,-0.2864,0.1096,12.6,-24.5,84.6,-0.023,0.169,0.017,2018,4,24,22,43,43.609
0,0.7267,-0.6141,-0.2819,0.1227,-1.8,-25.9,88.5,-0.026,0.11,0.017,2018,4,24,22,43,43.632
0,0.7253,-0.6153,-0.2768,0.1362,6.8,-25.3,90.7,-0.038,-0.01,-0.012,2018,4,24,22,43,43.65
0,0.7251,-0.6152,-0.2704,0.15,23.6,-23.7,91,-0.037,-0.044,-0.051,2018,4,24,22,43,43.668
0,0.7262,-0.6134,-0.2633,0.164,31,-21,91.9,-0.042,0.04,-0.054,2018,4,24,22,43,43.69
0,0.7277,-0.6114,-0.2552,0.1772,34.4,-18.3,94,-0.041,0.096,-0.047,2018,4,24,22,43,43.726
0,0.7296,-0.6086,-0.2462,0.1909,43.7,-17,96.1,-0.06,0.022,-0.045,2018,4,24,22,43,43.748
0,0.7325,-0.6046,-0.2359,0.2051,57.3,-13.5,95.8,-0.056,-0.064,-0.052,2018,4,24,22,43,43.754
0,0.736,-0.5997,-0.225,0.2188,56,-11,93.3,-0.062,0.004,-0.047,2018,4,24,22,43,43.79
0,0.7373,-0.5972,-0.2149,0.2311,15.9,-12.1,92.3,-0.062,0.15,-0.068,2018,4,24,22,43,43.79
0,0.7337,-0.6003,-0.2069,0.2417,-28.1,-13.3,94.7,-0.034,0.161,-0.075,2018,4,24,22,43,43.813
0,0.7268,-0.607,-0.1997,0.2515,-37.3,-10.9,99.6,0.004,0.076,-0.058,2018,4,24,22,43,43.849
0,0.72,-0.6135,-0.1912,0.2617,-17.7,-7.3,102.6,0,-0.048,-0.039,2018,4,24,22,43,43.849
0,0.7152,-0.6176,-0.1808,0.2722,-4.8,-5.4,100.3,-0.025,-0.092,-0.043,2018,4,24,22,43,43.872
0,0.71,-0.622,-0.1706,0.2822,-20.4,-3.7,97.1,-0.016,0.024,-0.022,2018,4,24,22,43,43.889
0,0.7029,-0.6286,-0.1613,0.2908,-37,-2.7,95.9,0.012,-0.013,0.032,2018,4,24,22,43,43.913
0,0.6954,-0.6353,-0.1522,0.2992,-23.6,-1.6,92.7,0.009,-0.238,0.029,2018,4,24,22,43,43.949
0,0.6917,-0.6378,-0.1414,0.3076,32.1,1.1,87.6,0.001,-0.315,0.022,2018,4,24,22,43,43.97
0,0.6943,-0.6336,-0.128,0.3162,71,3.6,78.8,-0.021,-0.248,0.041,2018,4,24,22,43,43.972
0,0.6978,-0.6283,-0.1155,0.3238,38,2.1,68.7,-0.039,-0.001,0.068,2018,4,24,22,43,44.007
1023,0.6956,-0.6289,-0.1074,0.33,-28.4,-2.9,62.1,-0.046,0.023,0.064,2018,4,24,22,43,44.03
1023,0.6876,-0.6359,-0.1047,0.3342,-71.7,-10.6,39.9,0.023,-0.653,0.174,2018,4,24,22,43,44.035
1023,0.6812,-0.6421,-0.1071,0.3347,-14,-20.9,-6.3,0.195,-0.974,0.129,2018,4,24,22,43,44.071
1023,0.6828,-0.6403,-0.1086,0.3344,27.4,-22.6,-12.1,0.092,-0.187,-0.022,2018,4,24,22,43,44.094
1023,0.6857,-0.6374,-0.1117,0.333,-1,-20.6,-9.7,0.059,0.171,-0.066,2018,4,24,22,43,44.099
1023,0.685,-0.6382,-0.1155,0.3315,-31,-14.2,-2.3,0.081,0.207,-0.02,2018,4,24,22,43,44.113
1023,0.6829,-0.6411,-0.1183,0.3292,-19.6,-5.9,0.7,0.081,-0.04,0.034,2018,4,24,22,43,44.131
1023,0.6833,-0.6421,-0.1187,0.3265,4.4,1.2,-2.2,0.047,-0.144,0.02,2018,4,24,22,43,44.154
1023,0.6862,-0.6408,-0.1175,0.3233,23.6,5.5,-5.3,0.022,-0.119,0.025,2018,4,24,22,43,44.172
1023,0.6906,-0.6381,-0.1154,0.32,25.3,6.8,-6.2,0.008,0.01,0.024,2018,4,24,22,43,44.196
1023,0.6942,-0.6362,-0.1136,0.3165,11.6,6,-6.4,0.018,0.046,0.027,2018,4,24,22,43,44.213
1023,0.6967,-0.6354,-0.1128,0.3131,5.3,4,-6.3,0.026,0.036,0.007,2018,4,24,22,43,44.236
0,0.6987,-0.635,-0.1123,0.3095,6.6,2.3,-5.9,0.046,0.013,-0.009,2018,4,24,22,43,44.254
0,0.7014,-0.6337,-0.1118,0.3063,17.4,1.5,-4.2,0.056,0.008,-0.023,2018,4,24,22,43,44.276
0,0.705,-0.6312,-0.1107,0.3036,23.9,1.4,-2.3,0.048,0.004,-0.032,2018,4,24,22,43,44.315
0,0.7086,-0.6286,-0.1092,0.3011,22.4,2.6,-1.6,0.033,-0.018,-0.049,2018,4,24,22,43,44.315
0,0.7117,-0.6267,-0.1077,0.2983,14.5,4.8,-3.2,0.014,-0.02,-0.036,2018,4,24,22,43,44.337
0,0.7138,-0.6259,-0.1068,0.2951,2.9,7,-7.4,0,-0.048,-0.016,2018,4,24,22,43,44.355
0,0.7154,-0.6261,-0.1067,0.2909,-3.2,7.8,-14.8,-0.019,-0.124,0.011,2018,4,24,22,43,44.374
0,0.7166,-0.6271,-0.1077,0.2854,-14.5,7.6,-24.5,-0.014,-0.135,0.03,2018,4,24,22,43,44.411
0,0.7161,-0.6302,-0.111,0.2784,-40.9,7,-34.8,-0.016,-0.13,0.032,2018,4,24,22,43,44.434
0,0.713,-0.6366,-0.1167,0.2695,-60.9,7.9,-47.1,-0.026,-0.236,0.01,2018,4,24,22,43,44.439
0,0.71,-0.6431,-0.1235,0.2586,-46.4,10.3,-57.5,0.003,-0.294,0.017,2018,4,24,22,43,44.458
0,0.7095,-0.6471,-0.1305,0.2466,-36.9,11.7,-69.2,0,-0.237,0.037,2018,4,24,22,43,44.475
0,0.7083,-0.6517,-0.1389,0.2328,-58.8,12.8,-79.8,-0.004,-0.186,0.028,2018,4,24,22,43,44.496
0,0.705,-0.6585,-0.1486,0.2171,-72.2,16.1,-87.2,0.009,-0.22,0.025,2018,4,24,22,43,44.533
0,0.702,-0.6647,-0.1587,0.2001,-52.1,21.1,-95.8,0.006,-0.307,-0.008,2018,4,24,22,43,44.556
0,0.7021,-0.6675,-0.1679,0.182,-34.5,23.1,-104.1,-0.005,-0.17,0.035,2018,4,24,22,43,44.561
0,0.702,-0.6699,-0.1781,0.1628,-54.8,24.2,-112,-0.014,-0.051,0.041,2018,4,24,22,43,44.574
0,0.6993,-0.6744,-0.1893,0.1419,-70,25.9,-115.9,0.012,-0.136,0.038,2018,4,24,22,43,44.597
0,0.6966,-0.6782,-0.2001,0.1203,-44.6,32.7,-120,-0.01,-0.235,-0.012,2018,4,24,22,43,44.616
0,0.6984,-0.6771,-0.2094,0.0988,-11.1,36.3,-122.3,-0.029,-0.095,0.053,2018,4,24,22,43,44.654
0,0.7016,-0.6736,-0.2189,0.0774,-20.7,36.5,-124.1,-0.03,0.055,0.056,2018,4,24,22,43,44.678
0,0.7022,-0.672,-0.2283,0.0548,-36.4,39.6,-122.6,-0.005,0.007,0.005,2018,4,24,22,43,44.681
0,0.7027,-0.6702,-0.2364,0.0318,-13.5,48.5,-120.2,0,-0.103,0,2018,4,24,22,43,44.699
0,0.7079,-0.6631,-0.2429,0.0102,35.9,53.7,-117.2,-0.028,-0.053,0.029,2018,4,24,22,43,44.717
0,0.7179,-0.6498,-0.2493,-0.0085,64.5,52.8,-115.4,-0.071,0.056,0.011,2018,4,24,22,43,44.74
0,0.7277,-0.6353,-0.2569,-0.0255,45.8,48.7,-113.8,-0.097,0.129,-0.029,2018,4,24,22,43,44.758
0,0.734,-0.624,-0.2646,-0.0421,29.3,47.8,-109.2,-0.105,0.117,-0.002,2018,4,24,22,43,44.781
0,0.7395,-0.6131,-0.2716,-0.0574,38.6,46.4,-103.4,-0.089,0.069,-0.017,2018,4,24,22,43,44.798
0,0.7459,-0.6007,-0.279,-0.0696,56.8,44.9,-99.1,-0.092,0.075,-0.04,2018,4,24,22,43,44.815
0,0.7533,-0.5867,-0.2858,-0.0806,56.2,41.4,-96.9,-0.147,0.162,-0.013,2018,4,24,22,43,44.836
1023,0.7569,-0.5772,-0.2926,-0.0903,19.4,35.4,-92.2,-0.116,0.246,0.008,2018,4,24,22,43,44.873
1023,0.7574,-0.5716,-0.2991,-0.1004,-1.8,32.1,-84.8,-0.092,0.126,-0.018,2018,4,24,22,43,44.896
1023,0.7581,-0.5661,-0.3045,-0.1091,13.5,31.4,-77.2,-0.097,0.074,-0.051,2018,4,24,22,43,44.901
1023,0.7606,-0.5588,-0.3094,-0.1154,33.7,30.9,-73.1,-0.134,0.087,-0.062,2018,4,24,22,43,44.918
1023,0.7647,-0.5493,-0.3144,-0.1205,43.3,29.6,-69.6,-0.132,0.142,-0.066,2018,4,24,22,43,44.941
1023,0.7699,-0.5382,-0.3193,-0.124,54.5,27.8,-63.4,-0.122,0.176,-0.011,2018,4,24,22,43,44.959
1023,0.7747,-0.5287,-0.3235,-0.1246,59.2,24.5,-56,-0.121,0.21,-0.001,2018,4,24,22,43,44.982
1023,0.7796,-0.5194,-0.3275,-0.1229,55.6,20.7,-48.4,-0.115,0.197,-0.007,2018,4,24,22,43,45
1023,0.7831,-0.5127,-0.3304,-0.1206,29.7,16.7,-41.8,-0.092,0.26,-0.01,2018,4,24,22,43,45.023
1023,0.7836,-0.5112,-0.3322,-0.119,-1.7,14.5,-34.8,-0.076,0.223,0.006,2018,4,24,22,43,45.041
1023,0.7829,-0.5115,-0.3336,-0.1177,-0.6,12.5,-27.5,-0.075,0.14,0.002,2018,4,24,22,43,45.064
1023,0.7848,-0.5081,-0.3351,-0.1156,17.6,9,-20.3,-0.07,0.137,0,2018,4,24,22,43,45.081
1023,0.7861,-0.5065,-0.3364,-0.1102,13.7,3.7,-13.9,-0.076,0.205,-0.003,2018,4,24,22,43,45.098
1023,0.7851,-0.5085,-0.3376,-0.1045,-16.9,-1,-7.1,-0.065,0.241,0.004,2018,4,24,22,43,45.12
0,0.7815,-0.5146,-0.3384,-0.0989,-35.3,-5.7,0.8,-0.068,0.171,0,2018,4,24,22,43,45.139
0,0.779,-0.5187,-0.3393,-0.0938,-20.9,-9,7.5,-0.062,0.136,-0.006,2018,4,24,22,43,45.161
0,0.7782,-0.5207,-0.3403,-0.0857,4,-12.8,15,-0.079,0.176,0.019,2018,4,24,22,43,45.199
0,0.7772,-0.5234,-0.3411,-0.0745,3,-17.1,23.8,-0.094,0.277,0.022,2018,4,24,22,43,45.222
0,0.7747,-0.5285,-0.3413,-0.0624,-17,-21.5,34.9,-0.105,0.282,0.009,2018,4,24,22,43,45.227
0,0.77,-0.5369,-0.3409,-0.0498,-34.2,-25.8,45.7,-0.127,0.249,-0.005,2018,4,24,22,43,45.242
0,0.7638,-0.5474,-0.3398,-0.0367,-39.5,-29.4,56.9,-0.11,0.243,0.011,2018,4,24,22,43,45.264
0,0.7572,-0.5582,-0.3381,-0.022,-35.5,-31.6,68,-0.093,0.227,0.002,2018,4,24,22,43,45.301
0,0.7514,-0.5678,-0.3359,-0.0063,-29.3,-32.2,78,-0.116,0.172,-0.018,2018,4,24,22,43,45.301
0,0.7476,-0.5743,-0.3332,0.0091,-19.3,-33.7,87,-0.147,0.132,-0.038,2018,4,24,22,43,45.324
0,0.7443,-0.5799,-0.3299,0.0269,-7.1,-34.6,94.3,-0.129,0.103,-0.054,2018,4,24,22,43,45.343
0,0.7421,-0.5839,-0.3258,0.045,4.9,-33.6,100.4,-0.109,0.112,-0.044,2018,4,24,22,43,45.361
0,0.7407,-0.5864,-0.3211,0.0646,15.7,-32.2,106,-0.111,0.115,-0.016,2018,4,24,22,43,45.384
0,0.7411,-0.5865,-0.3152,0.0855,37.5,-31.7,112.8,-0.125,0.084,-0.002,2018,4,24,22,43,45.402
0,0.7431,-0.5841,-0.3083,0.1071,49.3,-32.4,116.7,-0.093,0.093,-0.056,2018,4,24,22,43,45.441
0,0.7443,-0.5819,-0.3015,0.1278,27.4,-30.5,120.7,-0.065,0.203,-0.056,2018,4,24,22,43,45.463
0,0.7422,-0.5837,-0.2941,0.1477,3.2,-29.5,127.2,-0.11,0.186,-0.014,2018,4,24,22,43,45.467
0,0.7399,-0.5856,-0.2854,0.1669,27.9,-25.4,133.8,-0.04,0.014,-0.021,2018,4,24,22,43,45.486
0,0.7419,-0.582,-0.2737,0.189,78.5,-22.5,135.3,-0.046,-0.108,-0.035,2018,4,24,22,43,45.502
0,0.7453,-0.5762,-0.2613,0.2101,55.4,-18.2,131,-0.034,0.114,-0.068,2018,4,24,22,43,45.52
0,0.7437,-0.5765,-0.2502,0.2278,-8.7,-16.1,133.4,-0.039,0.136,0.004,2018,4,24,22,43,45.543
0,0.7382,-0.5816,-0.2391,0.2438,-6.7,-15.8,136.2,-0.024,-0.001,0.031,2018,4,24,22,43,45.56
0,0.7349,-0.5829,-0.2267,0.2617,29.8,-16.2,137.8,0.01,-0.098,-0.008,2018,4,24,22,43,45.581
0,0.7314,-0.5843,-0.2142,0.2786,-1.5,-14.6,127.7,-0.049,-0.044,-0.09,2018,4,24,22,43,45.618
0,0.7215,-0.5932,-0.2052,0.2921,-81.6,-15.7,123.3,-0.073,0.058,-0.01,2018,4,24,22,43,45.641
0,0.7051,-0.6093,-0.199,0.3031,-107.5,-19.4,119.5,-0.068,-0.106,0.023,2018,4,24,22,43,45.647
0,0.6911,-0.6219,-0.1915,0.3142,-30.6,-18.3,117.9,0.008,-0.308,0.037,2018,4,24,22,43,45.663
0,0.6859,-0.6244,-0.18,0.3272,29.9,-14.2,109.8,0,-0.278,-0.088,2018,4,24,22,43,45.686
0,0.6821,-0.626,-0.1677,0.3385,2.4,-6.2,98.9,-0.074,-0.031,-0.02,2018,4,24,22,43,45.703
1023,0.6759,-0.6302,-0.1573,0.348,-14.4,-6,95,-0.061,-0.129,0.089,2018,4,24,22,43,45.727
1023,0.6709,-0.6329,-0.1471,0.3571,12.4,-7.4,90.3,-0.02,-0.144,0.076,2018,4,24,22,43,45.745
1023,0.6701,-0.6307,-0.1353,0.367,54.9,-6.8,91.2,0.015,-0.015,0.045,2018,4,24,22,43,45.765
1023,0.6722,-0.6249,-0.1212,0.3778,63.2,-7.1,95.6,-0.006,0.186,0.068,2018,4,24,22,43,45.785
1023,0.665,-0.6294,-0.113,0.3856,-134.8,-19.5,40.6,-0.035,-1.45,0.448,2018,4,24,22,43,45.802
1023,0.6526,-0.6403,-0.1205,0.3866,-9.2,-32.4,2.5,0.257,-0.835,-0.104,2018,4,24,22,43,45.825
1023,0.6509,-0.6407,-0.1229,0.388,-26,-30.4,1.5,0.031,0.051,-0.153,2018,4,24,22,43,45.844
1023,0.6463,-0.6447,-0.1284,0.3873,-50.6,-24.1,0.5,-0.043,0.159,-0.076,2018,4,24,22,43,45.867
1023,0.6396,-0.6508,-0.1337,0.3864,-61.4,-19,1.7,-0.011,-0.053,-0.047,2018,4,24,22,43,45.886
1023,0.6348,-0.6561,-0.1384,0.3837,-20.1,-11.3,-6.4,0.051,-0.247,-0.08,2018,4,24,22,43,45.905
1023,0.6359,-0.6568,-0.1398,0.3802,21.1,-2.8,-10.8,0.016,-0.062,-0.09,2018,4,24,22,43,45.928
1023,0.6404,-0.6546,-0.1384,0.377,33.7,2.6,-7,0.005,0.073,-0.032,2018,4,24,22,43,45.947
1023,0.6457,-0.6515,-0.1352,0.3744,34.8,7.3,0.1,0.017,0.117,0.014,2018,4,24,22,43,45.97
1023,0.651,-0.6484,-0.1309,0.3721,36.5,10.3,4.3,0.022,0.089,0.049,2018,4,24,22,43,45.988
0,0.6565,-0.6452,-0.1262,0.3697,35.3,10.2,3.2,0.035,-0.01,0.061,2018,4,24,22,43,46.029
0,0.6615,-0.6423,-0.1223,0.367,30.9,8.2,0.1,0.03,-0.072,0.045,2018,4,24,22,43,46.031
0,0.6656,-0.6402,-0.1196,0.3641,18.1,4.3,-0.5,0.035,-0.021,0.039,2018,4,24,22,43,46.045
0,0.6683,-0.6393,-0.1182,0.3614,4.7,1.2,-1,0.027,0.013,0.027,2018,4,24,22,43,46.081
0,0.6695,-0.6395,-0.1177,0.3587,-0.6,0.4,-0.5,0.03,-0.01,-0.022,2018,4,24,22,43,46.102
0,0.6707,-0.6398,-0.1174,0.3561,2.8,2.5,-0.9,0.028,-0.024,-0.024,2018,4,24,22,43,46.107
0,0.6724,-0.6397,-0.1167,0.3533,6.4,4.2,-2.8,0.007,-0.036,-0.007,2018,4,24,22,43,46.144
0,0.6746,-0.6396,-0.1154,0.3498,8.1,5.6,-6.1,-0.015,-0.038,-0.006,2018,4,24,22,43,46.167
0,0.677,-0.6393,-0.1146,0.346,4,7.5,-10,-0.009,-0.015,0,2018,4,24,22,43,46.172
0,0.6793,-0.6392,-0.114,0.3417,2.3,7,-13.2,0.004,-0.022,0.039,2018,4,24,22,43,46.19
0,0.6812,-0.6396,-0.1149,0.3369,-8.5,4.9,-18.6,0.009,-0.041,0.003,2018,4,24,22,43,46.208
0,0.6816,-0.6416,-0.1174,0.3313,-24.5,3.5,-23.1,0.012,-0.062,-0.012,2018,4,24,22,43,46.232
0,0.679,-0.6584,-0.1446,0.2905,-36.6,6,-57.3,0.037,-0.193,0.028,2018,4,24,22,43,46.247
0,0.6793,-0.6615,-0.152,0.2788,-35.6,7.5,-65.6,0.049,-0.17,0.048,2018,4,24,22,43,46.264
0,0.6796,-0.6644,-0.1603,0.2661,-41,8.2,-73.7,0.039,-0.166,0.059,2018,4,24,22,43,46.287
0,0.6794,-0.6679,-0.1694,0.252,-43.6,10,-81.7,0.017,-0.179,0.02,2018,4,24,22,43,46.326
0,0.6796,-0.6708,-0.1786,0.2368,-35,13.1,-87.7,0.018,-0.151,0.038,2018,4,24,22,43,46.326
0,0.6812,-0.6722,-0.1874,0.2208,-27,14.3,-92.2,0.017,-0.133,0.047,2018,4,24,22,43,46.349
0,0.6833,-0.6729,-0.1963,0.204,-26.1,16.2,-98.8,-0.004,-0.119,0.047,2018,4,24,22,43,46.367
0,0.6852,-0.6731,-0.206,0.1867,-27.9,17.3,-104.1,-0.011,-0.089,0.031,2018,4,24,22,43,46.391
0,0.6874,-0.6726,-0.2157,0.1685,-22.3,20.3,-107,0.008,-0.123,0.015,2018,4,24,22,43,46.409
0,0.6906,-0.6707,-0.225,0.1501,-11,23.6,-108.4,-0.001,-0.099,0.028,2018,4,24,22,43,46.432
0,0.6939,-0.6682,-0.2338,0.1311,-17.8,25.9,-111.2,-0.025,-0.04,0,2018,4,24,22,43,46.448
0,0.6958,-0.667,-0.2422,0.1104,-26.1,30.9,-111.7,-0.014,-0.033,-0.016,2018,4,24,22,43,46.465
0,0.6978,-0.6653,-0.2496,0.0891,-11.3,36.6,-111.7,-0.005,-0.095,-0.009,2018,4,24,22,43,46.489
0,0.7021,-0.6605,-0.2568,0.0687,0.3,38.8,-113.2,-0.027,-0.005,-0.007,2018,4,24,22,43,46.507
0,0.7055,-0.6558,-0.2642,0.0476,-18.2,41.4,-113.4,-0.022,0.053,-0.041,2018,4,24,22,43,46.53
0,0.7068,-0.6524,-0.272,0.0264,-22.9,46.1,-111.1,-0.015,-0.008,-0.036,2018,4,24,22,43,46.548
1023,0.7092,-0.6473,-0.2789,0.0064,3.5,50.8,-110.1,-0.038,-0.053,-0.028,2018,4,24,22,43,46.568
1023,0.7148,-0.6384,-0.2849,-0.0128,24.6,51.5,-109.8,-0.04,0.036,-0.012,2018,4,24,22,43,46.606
1023,0.7202,-0.6284,-0.292,-0.0307,15.2,51.2,-107.2,-0.032,0.137,0.002,2018,4,24,22,43,46.63
1023,0.7241,-0.6196,-0.2989,-0.0477,5.8,50.1,-101.7,-0.045,0.106,0.003,2018,4,24,22,43,46.635
1023,0.727,-0.6118,-0.3048,-0.0633,11.7,50.1,-96.7,-0.082,0.043,-0.026,2018,4,24,22,43,46.652
1023,0.7304,-0.6036,-0.31,-0.0765,22.8,50,-92.7,-0.1,0.112,0.01,2018,4,24,22,43,46.67
1023,0.733,-0.5962,-0.3151,-0.0879,10.6,45.7,-87.6,-0.105,0.23,0.043,2018,4,24,22,43,46.693
1023,0.7337,-0.5911,-0.3199,-0.099,-5.3,42.5,-81.9,-0.125,0.159,-0.019,2018,4,24,22,43,46.731
1023,0.7349,-0.5858,-0.3236,-0.1087,7,40.3,-74.2,-0.147,0.093,-0.018,2018,4,24,22,43,46.731
1023,0.7382,-0.5785,-0.3268,-0.1159,28.9,38.5,-67.5,-0.139,0.104,-0.029,2018,4,24,22,43,46.753
1023,0.7426,-0.5699,-0.3302,-0.1204,35.3,36.7,-62.5,-0.144,0.199,0.013,2018,4,24,22,43,46.771
1023,0.7456,-0.5638,-0.333,-0.123,31.1,31.2,-54.5,-0.139,0.25,0.068,2018,4,24,22,43,46.809
1023,0.7481,-0.5589,-0.3355,-0.1235,28,25,-45.3,-0.118,0.211,0.044,2018,4,24,22,43,46.831
0,0.7504,-0.5547,-0.3376,-0.1224,31.4,19.4,-35.5,-0.1,0.184,-0.002,2018,4,24,22,43,46.833
0,0.7527,-0.5511,-0.3395,-0.12,25.9,14.4,-27.3,-0.098,0.244,0.009,2018,4,24,22,43,46.871
0,0.7534,-0.5498,-0.3411,-0.1163,5.7,7.9,-19.2,-0.097,0.253,0.018,2018,4,24,22,43,46.892
0,0.7531,-0.55,-0.3426,-0.1129,-3,4.1,-12.7,-0.079,0.129,-0.023,2018,4,24,22,43,46.894
0,0.7537,-0.5493,-0.3437,-0.1091,5.1,2,-7.7,-0.079,0.08,-0.045,2018,4,24,22,43,46.928
0,0.7548,-0.5479,-0.3449,-0.1043,5.1,-0.6,-4.7,-0.087,0.138,-0.03,2018,4,24,22,43,46.949
0,0.7546,-0.5482,-0.3463,-0.0993,-9,-4.2,-1.4,-0.078,0.189,-0.017,2018,4,24,22,43,46.952
0,0.7518,-0.5525,-0.3473,-0.0933,-16.8,-8,4.7,-0.063,0.207,-0.021,2018,4,24,22,43,46.989
0,0.7486,-0.5576,-0.3478,-0.0862,-13.7,-11.2,13.2,-0.084,0.188,-0.01,2018,4,24,22,43,47.012
0,0.7461,-0.5624,-0.3478,-0.0767,-2.5,-15.3,23.2,-0.093,0.203,0.027,2018,4,24,22,43,47.017
0,0.7444,-0.5663,-0.3475,-0.0649,6.2,-20.1,33.3,-0.108,0.229,0.014,2018,4,24,22,43,47.05
0,0.7429,-0.57,-0.347,-0.0516,8.4,-24.3,44.4,-0.111,0.265,-0.017,2018,4,24,22,43,47.074
0,0.7412,-0.5742,-0.3456,-0.0366,10.2,-27,58.2,-0.102,0.296,-0.011,2018,4,24,22,43,47.079
0,0.7398,-0.5785,-0.3429,-0.0196,17.6,-27.9,72.1,-0.109,0.244,0.02,2018,4,24,22,43,47.093
0,0.7393,-0.5816,-0.3391,-0.0005,34.2,-27.9,84.3,-0.129,0.178,0.034,2018,4,24,22,43,47.116
0,0.7403,-0.583,-0.334,0.0208,49.3,-27.6,96.3,-0.11,0.191,0.007,2018,4,24,22,43,47.133
0,0.7418,-0.5836,-0.3274,0.0434,49.3,-25.4,107.4,-0.09,0.228,0.002,2018,4,24,22,43,47.156
0,0.7424,-0.5849,-0.3195,0.0669,43.5,-23.1,118.4,-0.094,0.249,0.026,2018,4,24,22,43,47.174
0,0.7428,-0.5862,-0.3101,0.0907,45.9,-19.5,128.1,-0.098,0.157,0.028,2018,4,24,22,43,47.197
0,0.7457,-0.584,-0.2998,0.1134,48.9,-15.1,134.1,-0.088,0.08,-0.013,2018,4,24,22,43,47.213
0,0.7479,-0.5819,-0.2885,0.1364,49.5,-9.2,140.2,-0.093,0.081,-0.031,2018,4,24,22,43,47.231
0,0.7495,-0.5805,-0.2759,0.1582,28.7,-4.5,143.7,-0.079,0.162,-0.004,2018,4,24,22,43,47.254
0,0.7482,-0.5821,-0.2631,0.1787,-0.6,-2.7,147.1,-0.103,0.125,0.016,2018,4,24,22,43,47.274
0,0.7441,-0.5871,-0.2497,0.1976,-15.6,-2.9,147.7,-0.112,-0.001,0.016,2018,4,24,22,43,47.297
0,0.739,-0.5928,-0.2361,0.2158,-12.7,-3.1,146.6,-0.1,-0.071,0.008,2018,4,24,22,43,47.315
0,0.7339,-0.5978,-0.2222,0.2334,-13.1,-3.8,143.7,-0.084,-0.059,0.009,2018,4,24,22,43,47.337
0,0.7271,-0.6044,-0.2093,0.2494,-40.6,-7.4,138,-0.083,0.006,0.023,2018,4,24,22,43,47.357
0,0.7174,-0.6133,-0.1981,0.2642,-46.9,-10.6,135.3,-0.052,-0.107,0.029,2018,4,24,22,43,47.38
0,0.71,-0.619,-0.1859,0.2792,3.4,-10.9,131.5,-0.038,-0.305,-0.005,2018,4,24,22,43,47.394
0,0.706,-0.6206,-0.171,0.2951,34,-7.9,120.6,-0.071,-0.221,-0.086,2018,4,24,22,43,47.412
0,0.7032,-0.6207,-0.1574,0.3087,9.4,-6.7,112.4,-0.044,-0.042,-0.013,2018,4,24,22,43,47.434
1023,0.6981,-0.623,-0.1468,0.3207,-15.2,-8,105.3,-0.028,-0.05,0.019,2018,4,24,22,43,47.452
1023,0.6923,-0.6257,-0.1374,0.3318,-2.1,-9.8,101.5,0.001,-0.087,-0.02,2018,4,24,22,43,47.475
1023,0.6881,-0.6268,-0.1274,0.3425,11.3,-9.5,97.3,-0.016,-0.092,-0.09,2018,4,24,22,43,47.512
1023,0.6839,-0.6276,-0.1176,0.3526,2,-8.4,93.2,-0.036,-0.035,-0.058,2018,4,24,22,43,47.535
1023,0.6783,-0.6297,-0.1091,0.3623,-18.6,-9.4,90.4,-0.039,0.018,-0.01,2018,4,24,22,43,47.539
1023,0.6713,-0.6331,-0.1015,0.3715,-19,-10.1,89.1,-0.024,0.015,-0.039,2018,4,24,22,43,47.557
1023,0.6651,-0.6353,-0.0934,0.3808,-0.7,-8.7,92,-0.01,0.079,-0.092,2018,4,24,22,43,47.595
1023,0.6581,-0.638,-0.0838,0.3907,-59.8,-11.6,66.5,0.03,-0.423,0.427,2018,4,24,22,43,47.618
1023,0.6463,-0.6474,-0.0913,0.3933,-7,-43.5,-10.3,0.335,-1.824,0.045,2018,4,24,22,43,47.623
1023,0.6497,-0.6418,-0.0928,0.3964,7.2,-48.2,-7,0.032,0.278,-0.217,2018,4,24,22,43,47.639
1023,0.6452,-0.6441,-0.1025,0.3977,-82.1,-47.5,-10.3,-0.003,0.201,-0.057,2018,4,24,22,43,47.661
1023,0.6354,-0.6517,-0.1148,0.3977,-97.5,-41.5,-5.8,0.038,-0.096,0.035,2018,4,24,22,43,47.68
1023,0.6284,-0.6572,-0.1251,0.3966,-38.5,-32.1,-11.8,0.116,-0.273,0.004,2018,4,24,22,43,47.703
0,0.6289,-0.657,-0.1302,0.3946,14.9,-18.7,-13.5,0.076,-0.022,-0.045,2018,4,24,22,43,47.719
0,0.6329,-0.6541,-0.1314,0.3927,20.6,-10.4,-8.3,0.028,0.126,-0.004,2018,4,24,22,43,47.738
0,0.6363,-0.6518,-0.131,0.391,18.6,-4,0.4,0.026,0.095,-0.014,2018,4,24,22,43,47.773
0,0.6393,-0.6504,-0.129,0.3891,20.5,2.6,5.5,0.029,0.052,0.009,2018,4,24,22,43,47.797
0,0.6432,-0.6483,-0.1258,0.3873,28.1,6.4,5.4,0.028,-0.017,0.061,2018,4,24,22,43,47.802
0,0.6475,-0.646,-0.1223,0.385,25.7,6.8,2.2,0.017,-0.045,0.081,2018,4,24,22,43,47.818
0,0.6511,-0.6445,-0.1199,0.3824,10.9,4.8,-0.6,0.02,-0.014,0.049,2018,4,24,22,43,47.84
0,0.6529,-0.6445,-0.1191,0.3795,-2.8,2.1,-1.2,0.028,0.001,0.017,2018,4,24,22,43,47.858
0,0.6535,-0.6457,-0.1191,0.3764,-6.4,1.2,-1.1,0.037,0.016,-0.014,2018,4,24,22,43,47.881
0,0.6541,-0.6468,-0.1192,0.3735,-4.3,1.5,1,0.045,0.028,-0.02,2018,4,24,22,43,47.919
0,0.6548,-0.6477,-0.1189,0.3709,0.2,2,3.3,0.045,0.006,-0.023,2018,4,24,22,43,47.919
0,0.6562,-0.6478,-0.1177,0.3685,9.2,3.4,3.8,0.022,-0.025,-0.034,2018,4,24,22,43,47.942
0,0.6588,-0.647,-0.1155,0.3659,20.4,6.3,3.3,0.035,-0.042,-0.046,2018,4,24,22,43,47.959
0,0.6625,-0.6453,-0.1126,0.3631,27.4,10.2,2.1,0.037,-0.033,-0.024,2018,4,24,22,43,47.977
0,0.667,-0.643,-0.1092,0.3599,31,12.5,0,0.03,-0.023,-0.029,2018,4,24,22,43,48
0,0.6716,-0.6407,-0.106,0.3564,26.2,14.7,-2.8,0.024,-0.008,-0.068,2018,4,24,22,43,48.018
0,0.676,-0.639,-0.1028,0.3522,24.5,17.3,-4.9,0.015,-0.004,-0.038,2018,4,24,22,43,48.041
0,0.68,-0.6377,-0.0999,0.3476,14.8,18.2,-8.2,-0.005,0.01,-0.013,2018,4,24,22,43,48.059
0,0.6824,-0.6381,-0.0982,0.3425,-12.1,17.7,-10,0,0.106,-0.009,2018,4,24,22,43,48.082
0,0.676,-0.6509,-0.1017,0.3299,-63.9,18.8,-13.7,-0.006,-0.089,0.013,2018,4,24,22,43,48.118
0,0.6717,-0.6585,-0.1046,0.3227,-52.9,18.8,-19.7,-0.006,-0.167,0.014,2018,4,24,22,43,48.118
0,0.6689,-0.6645,-0.1076,0.315,-42.8,18,-28.8,-0.023,-0.191,0,2018,4,24,22,43,48.14
0,0.6674,-0.6695,-0.1114,0.3062,-38.6,16.4,-39.4,-0.008,-0.191,0.044,2018,4,24,22,43,48.158
0,0.6671,-0.6733,-0.1163,0.2965,-31.5,14.3,-49.4,0.026,-0.246,0.062,2018,4,24,22,43,48.181
0,0.6678,-0.6763,-0.1225,0.2854,-32.4,14,-63,0.026,-0.251,0.091,2018,4,24,22,43,48.201
0,0.6685,-0.6793,-0.1308,0.2728,-43,10.6,-75.7,0.034,-0.247,0.095,2018,4,24,22,43,48.22
0,0.6686,-0.6826,-0.141,0.2589,-44.6,9.6,-86.7,0.039,-0.267,0.073,2018,4,24,22,43,48.243
0,0.6697,-0.6847,-0.1518,0.2439,-27,10.7,-95.1,0.042,-0.304,0.082,2018,4,24,22,43,48.261
0,0.6733,-0.6842,-0.1623,0.228,-8.7,12,-105,0.011,-0.26,0.087,2018,4,24,22,43,48.284
0,0.6781,-0.6823,-0.1732,0.2112,-14.5,12.7,-113.4,0.005,-0.159,0.073,2018,4,24,22,43,48.302
0,0.6813,-0.6813,-0.1852,0.1928,-27.4,15.6,-119.1,0.016,-0.126,0.05,2018,4,24,22,43,48.339
1023,0.684,-0.6804,-0.1974,0.1733,-21.4,19.9,-122.5,0.023,-0.17,0.054,2018,4,24,22,43,48.339
1023,0.6882,-0.6779,-0.2082,0.1527,-0.6,24.9,-125.6,-0.01,-0.173,0.048,2018,4,24,22,43,48.363
1023,0.6942,-0.6726,-0.219,0.1326,1.7,26.5,-128.3,-0.007,-0.048,0.046,2018,4,24,22,43,48.381
1023,0.6992,-0.6677,-0.2297,0.1113,-7.6,28.6,-127.8,-0.005,0.05,0.015,2018,4,24,22,43,48.399
1023,0.7037,-0.6625,-0.24,0.09,-3.1,31.5,-124.8,-0.019,0.006,0.01,2018,4,24,22,43,48.422
1023,0.7091,-0.6557,-0.2495,0.0696,15.5,34.8,-124.5,-0.057,-0.062,-0.005,2018,4,24,22,43,48.458
1023,0.7163,-0.6461,-0.2585,0.0505,31.9,35.4,-122.9,-0.073,0.023,0.012,2018,4,24,22,43,48.482
1023,0.7232,-0.6356,-0.2679,0.0321,17.5,34.9,-121.4,-0.097,0.12,-0.019,2018,4,24,22,43,48.486
1023,0.7281,-0.6269,-0.2766,0.013,9.2,35,-117.9,-0.09,0.066,-0.044,2018,4,24,22,43,48.502
1023,0.7321,-0.6182,-0.2858,-0.0039,16.5,35,-114.1,-0.104,0.05,-0.076,2018,4,24,22,43,48.525
1023,0.736,-0.6091,-0.2944,-0.0199,19.6,35.7,-111.1,-0.114,0.12,-0.065,2018,4,24,22,43,48.543
1023,0.7399,-0.5996,-0.3029,-0.0347,22,36.2,-106.6,-0.12,0.146,-0.066,2018,4,24,22,43,48.566
1023,0.7435,-0.59,-0.3109,-0.0477,27,35.8,-101.2,-0.108,0.141,-0.099,2018,4,24,22,43,48.584
0,0.7472,-0.5803,-0.3181,-0.0597,31.1,36.7,-94.8,-0.123,0.146,-0.09,2018,4,24,22,43,48.608
0,0.7516,-0.57,-0.3242,-0.0701,38.7,36,-88.1,-0.129,0.169,-0.054,2018,4,24,22,43,48.626
0,0.7567,-0.5591,-0.3295,-0.0781,41.2,33.7,-82.5,-0.134,0.205,-0.043,2018,4,24,22,43,48.649
0,0.7599,-0.5511,-0.334,-0.0842,26.7,29.5,-76.5,-0.129,0.232,-0.037,2018,4,24,22,43,48.666
0,0.7621,-0.5444,-0.3386,-0.0903,9.6,26.1,-69.2,-0.126,0.215,-0.047,2018,4,24,22,43,48.681
0,0.7633,-0.5392,-0.3424,-0.0965,6.6,24.4,-63,-0.127,0.166,-0.048,2018,4,24,22,43,48.705
0,0.7649,-0.5343,-0.3455,-0.0998,19.1,21.3,-54.5,-0.105,0.201,0.012,2018,4,24,22,43,48.723
0,0.766,-0.5307,-0.3483,-0.1007,17.4,16.4,-47.3,-0.102,0.235,-0.006,2018,4,24,22,43,48.746
0,0.7663,-0.5287,-0.3508,-0.1,6.5,11.5,-39.1,-0.098,0.215,-0.024,2018,4,24,22,43,48.764
0,0.7662,-0.528,-0.3527,-0.0977,7.5,9,-28.8,-0.063,0.194,0,2018,4,24,22,43,48.788
0,0.7668,-0.5269,-0.3541,-0.0935,21.7,6.7,-19.4,-0.058,0.171,0.027,2018,4,24,22,43,48.805
0,0.7681,-0.5252,-0.3553,-0.0878,19.6,1.1,-11.1,-0.072,0.24,0.061,2018,4,24,22,43,48.828
0,0.7675,-0.5265,-0.3563,-0.0813,-8.5,-4.2,-3.4,-0.051,0.21,0.007,2018,4,24,22,43,48.844
0,0.7659,-0.5292,-0.3569,-0.0761,-18.1,-5.7,3.7,-0.033,0.098,0.012,2018,4,24,22,43,48.881
0,0.7653,-0.5306,-0.3572,-0.0706,-5.3,-6.5,8.7,-0.032,0.075,0.028,2018,4,24,22,43,48.904
0,0.7654,-0.5311,-0.3576,-0.0638,-0.5,-9.2,12.4,-0.042,0.141,0.022,2018,4,24,22,43,48.909
0,0.7632,-0.5353,-0.3575,-0.055,-13.7,-11,18.3,-0.029,0.199,-0.005,2018,4,24,22,43,48.924
0,0.7596,-0.5417,-0.3567,-0.0461,-23.9,-11.4,26.8,-0.025,0.176,0.004,2018,4,24,22,43,48.947
0,0.7569,-0.5471,-0.3553,-0.0374,-18.2,-12,34.6,-0.047,0.111,0.034,2018,4,24,22,43,48.965
0,0.7564,-0.5493,-0.3538,-0.028,2.9,-14,41.3,-0.069,0.102,0.03,2018,4,24,22,43,48.988
0,0.7576,-0.549,-0.3524,-0.0159,22,-16.1,48.2,-0.069,0.112,-0.004,2018,4,24,22,43,49.006
0,0.7585,-0.5493,-0.3504,-0.002,16.1,-18.6,55.5,-0.076,0.229,0.006,2018,4,24,22,43,49.029
0,0.7559,-0.5546,-0.3474,0.0126,-13.2,-21.3,64.9,-0.089,0.239,0.041,2018,4,24,22,43,49.065
0,0.7507,-0.5631,-0.3441,0.0279,-21.5,-24.5,74.8,-0.103,0.19,0.056,2018,4,24,22,43,49.065
0,0.7458,-0.5708,-0.3403,0.0447,-0.2,-27.4,86,-0.097,0.183,0.043,2018,4,24,22,43,49.088
0,0.7433,-0.5754,-0.3351,0.0635,22.7,-29,96.6,-0.074,0.215,-0.015,2018,4,24,22,43,49.107
0,0.7407,-0.5793,-0.3295,0.0841,8.5,-29.8,104.2,-0.093,0.261,-0.016,2018,4,24,22,43,49.124
0,0.7348,-0.5871,-0.3234,0.1035,-25.4,-32.9,111.8,-0.102,0.239,0.017,2018,4,24,22,43,49.147
0,0.7282,-0.5948,-0.3178,0.1212,-20.4,-34.2,117.6,-0.102,0.056,-0.004,2018,4,24,22,43,49.183
0,0.7253,-0.5979,-0.3108,0.1403,26.4,-32.6,120.4,-0.069,-0.067,-0.028,2018,4,24,22,43,49.206
0,0.7261,-0.5962,-0.3024,0.1606,48.6,-28.8,123,-0.041,0.079,-0.101,2018,4,24,22,43,49.21
1023,0.7272,-0.5939,-0.2928,0.1802,38.7,-24.3,124.6,-0.069,0.111,-0.031,2018,4,24,22,43,49.227
1023,0.7277,-0.5923,-0.2826,0.1988,33.4,-20.1,130,-0.066,0.076,-0.012,2018,4,24,22,43,49.248
1023,0.7278,-0.5913,-0.2706,0.2172,34.9,-17.9,129.7,-0.072,-0.035,-0.06,2018,4,24,22,43,49.285
1023,0.7254,-0.593,-0.2595,0.2336,-10.1,-19.6,125.5,-0.095,0.12,-0.087,2018,4,24,22,43,49.308
1023,0.7173,-0.601,-0.251,0.2472,-58,-21.7,124.2,-0.069,0.076,-0.055,2018,4,24,22,43,49.313
1023,0.707,-0.6113,-0.2423,0.2598,-36.1,-20.6,126.8,-0.032,-0.06,-0.021,2018,4,24,22,43,49.326
1023,0.7015,-0.6159,-0.2304,0.2743,18,-17.9,129.1,0,-0.085,0,2018,4,24,22,43,49.365
1023,0.6973,-0.6184,-0.2183,0.2891,-10,-18.8,122.7,-0.066,0.104,-0.081,2018,4,24,22,43,49.388
1023,0.6859,-0.6282,-0.2095,0.3012,-90.9,-23.4,119.3,-0.081,0.094,-0.015,2018,4,24,22,43,49.393
1023,0.6688,-0.6433,-0.2038,0.3117,-93,-26.7,116.1,-0.069,-0.208,0.033,2018,4,24,22,43,49.408
1023,0.6565,-0.6527,-0.1957,0.3234,-12,-28.1,113.8,-0.006,-0.339,0.051,2018,4,24,22,43,49.431
1023,0.6514,-0.6545,-0.1849,0.3361,19.3,-26.7,105.5,0,-0.081,-0.103,2018,4,24,22,43,49.451
1023,0.6439,-0.6588,-0.1757,0.3469,-32.2,-22.8,96.3,-0.085,-0.041,-0.099,2018,4,24,22,43,49.486
0,0.6322,-0.667,-0.1696,0.3556,-62.3,-21.8,89.6,-0.057,-0.126,0.025,2018,4,24,22,43,49.509
0,0.6204,-0.6751,-0.1645,0.3634,-38.4,-21.5,83.5,-0.036,-0.261,0.047,2018,4,24,22,43,49.514
0,0.614,-0.6783,-0.1574,0.3714,10.9,-21.2,78,0.008,-0.182,-0.034,2018,4,24,22,43,49.531
0,0.6107,-0.6788,-0.1491,0.3792,11.5,-18.1,74.1,-0.08,0.061,-0.054,2018,4,24,22,43,49.554
0,0.6023,-0.6841,-0.1451,0.3846,-98.4,-21.2,35.4,-0.073,-1.056,0.24,2018,4,24,22,43,49.57
0,0.5932,-0.6907,-0.1513,0.3847,1.3,-36.1,-8.3,0.193,-0.816,-0.047,2018,4,24,22,43,49.593
0,0.5943,-0.6884,-0.1546,0.3857,-2.5,-37,-11.3,-0.007,0.069,-0.097,2018,4,24,22,43,49.612
0,0.5916,-0.6896,-0.1606,0.3853,-33.9,-32.9,-9.2,-0.008,0.189,-0.093,2018,4,24,22,43,49.629
0,0.587,-0.6928,-0.1664,0.3842,-32.2,-26.9,-4.9,0.038,0.053,-0.083,2018,4,24,22,43,49.652
0,0.5854,-0.6942,-0.1704,0.3822,7.4,-18.1,-9.6,0.083,-0.229,-0.045,2018,4,24,22,43,49.671
0,0.5903,-0.6911,-0.1711,0.3801,50.2,-10.3,-12.4,0.089,-0.128,-0.022,2018,4,24,22,43,49.707
0,0.5978,-0.686,-0.1694,0.3783,47.9,-6.5,-7.8,0.046,0.105,-0.01,2018,4,24,22,43,49.728
0,0.6033,-0.6827,-0.1675,0.3765,25,-2,-1.2,0.033,0.154,0.034,2018,4,24,22,43,49.734
0,0.6067,-0.6815,-0.1654,0.3742,17.9,3,2.2,0.049,0.011,0.074,2018,4,24,22,43,49.751
0,0.6108,-0.6799,-0.1625,0.3715,29.1,6.8,0.7,0.052,-0.067,0.094,2018,4,24,22,43,49.774
0,0.6159,-0.6777,-0.1592,0.3686,28.5,8.9,-1,0.036,-0.018,0.087,2018,4,24,22,43,49.791
0,0.6199,-0.6765,-0.1563,0.3653,10.4,7,-0.8,0.024,0.033,0.057,2018,4,24,22,43,49.808
0,0.6212,-0.6775,-0.1549,0.3619,-7.8,4.3,1.2,0.024,0.042,0.022,2018,4,24,22,43,49.831
0,0.6207,-0.6798,-0.1544,0.3586,-13.4,3,3.8,0.039,0.019,-0.005,2018,4,24,22,43,49.849
0,0.62,-0.6822,-0.1538,0.3555,-8.5,3.6,6.5,0.051,-0.001,-0.02,2018,4,24,22,43,49.871
0,0.6199,-0.6841,-0.1524,0.3527,-2.9,4,8.7,0.048,-0.012,-0.005,2018,4,24,22,43,49.91
0,0.6203,-0.6855,-0.1503,0.3502,4.1,5.1,9.1,0.028,-0.052,-0.043,2018,4,24,22,43,49.91
0,0.622,-0.6858,-0.1474,0.3477,18.9,9.9,8.8,0.051,-0.056,-0.044,2018,4,24,22,43,49.933
0,0.6261,-0.6845,-0.143,0.3447,37.3,16.6,7.6,0.059,-0.074,-0.007,2018,4,24,22,43,49.952
0,0.6322,-0.6817,-0.1373,0.3413,44.7,20,4.8,0.043,-0.074,-0.019,2018,4,24,22,43,49.975
0,0.6386,-0.6789,-0.1316,0.3374,41.2,23,2.4,0.044,-0.032,-0.042,2018,4,24,22,43,49.993
0,0.6449,-0.6761,-0.126,0.3331,41.2,26.5,0.5,0.024,-0.008,0.005,2018,4,24,22,43,50.014
0,0.6516,-0.673,-0.1203,0.3284,39.3,26.6,-4.7,-0.008,-0.058,0.035,2018,4,24,22,43,50.031
0,0.658,-0.6701,-0.1158,0.3232,27.2,23.2,-11.7,-0.025,-0.024,0.026,2018,4,24,22,43,50.05
1023,0.6608,-0.6707,-0.1144,0.3166,-23.4,20.7,-20.7,-0.032,0.027,-0.024,2018,4,24,22,43,50.072
1023,0.6588,-0.6761,-0.1164,0.3086,-47.9,19.5,-26.2,-0.057,-0.102,-0.023,2018,4,24,22,43,50.092
1023,0.6562,-0.6818,-0.1198,0.3,-38.8,19,-36.1,-0.021,-0.271,-0.022,2018,4,24,22,43,50.112
1023,0.6566,-0.6851,-0.1234,0.2902,-14.2,18.1,-47.9,-0.021,-0.291,-0.002,2018,4,24,22,43,50.132
1023,0.6592,-0.6861,-0.1281,0.2794,-12.7,16.5,-61.9,-0.001,-0.236,0.016,2018,4,24,22,43,50.154
1023,0.6614,-0.6878,-0.1348,0.2667,-29.9,15.4,-74.9,0.004,-0.19,0.036,2018,4,24,22,43,50.192
1023,0.662,-0.6908,-0.1438,0.2524,-44.8,15.3,-85.6,0.016,-0.203,0.046,2018,4,24,22,43,50.215
1023,0.6621,-0.694,-0.1543,0.2367,-43.5,16.4,-96.2,0.018,-0.231,0.043,2018,4,24,22,43,50.22
1023,0.6632,-0.6959,-0.1654,0.2198,-32.3,18.6,-105.3,0.009,-0.248,0.034,2018,4,24,22,43,50.234
1023,0.6652,-0.6967,-0.1767,0.2016,-32.9,21.5,-113.6,0,-0.202,0.01,2018,4,24,22,43,50.257
1023,0.6663,-0.6981,-0.1885,0.1816,-46.5,25,-120.8,0.004,-0.105,0.033,2018,4,24,22,43,50.275
1023,0.6666,-0.6997,-0.2007,0.1602,-43,28.6,-126.1,0.003,-0.157,0.056,2018,4,24,22,43,50.299
0,0.6688,-0.6989,-0.2121,0.1382,-13.6,31.9,-130.6,-0.003,-0.203,0.044,2018,4,24,22,43,50.315
0,0.6741,-0.6944,-0.2228,0.1164,5.1,33.2,-134.5,-0.031,-0.092,0.012,2018,4,24,22,43,50.333
0,0.6801,-0.6885,-0.2332,0.094,5.9,34.6,-137.1,-0.041,-0.015,0.045,2018,4,24,22,43,50.356
0,0.686,-0.6816,-0.2439,0.0717,5.6,35.8,-137.5,-0.044,-0.037,0.016,2018,4,24,22,43,50.374
0,0.692,-0.6736,-0.2544,0.0495,17.4,38.4,-136.4,-0.048,-0.002,0.026,2018,4,24,22,43,50.398
0,0.6992,-0.6634,-0.2646,0.0282,23.4,39.1,-135.9,-0.085,0.059,0.019,2018,4,24,22,43,50.417
0,0.7055,-0.653,-0.2752,0.0069,6,36.7,-133.9,-0.084,0.166,0.034,2018,4,24,22,43,50.455
0,0.7078,-0.6456,-0.2861,-0.0144,-21.4,36.7,-129.1,-0.078,0.131,-0.012,2018,4,24,22,43,50.479
0,0.7083,-0.6398,-0.296,-0.0351,-14,40.1,-121.6,-0.094,0.043,-0.017,2018,4,24,22,43,50.483
0,0.7106,-0.6318,-0.3048,-0.0531,17.1,42,-115.9,-0.111,0.028,-0.037,2018,4,24,22,43,50.5
0,0.7148,-0.6213,-0.3135,-0.0678,29.5,40.8,-110.3,-0.123,0.157,-0.03,2018,4,24,22,43,50.514
0,0.7189,-0.6107,-0.3214,-0.0818,22.9,40.7,-102.9,-0.117,0.156,-0.013,2018,4,24,22,43,50.533
0,0.7224,-0.6013,-0.328,-0.0936,27.6,42.7,-95.9,-0.131,0.074,-0.036,2018,4,24,22,43,50.556
0,0.7272,-0.5909,-0.3335,-0.1029,41.2,42.3,-89.9,-0.123,0.124,-0.012,2018,4,24,22,43,50.594
0,0.7323,-0.5801,-0.3385,-0.1111,40.1,40,-84.7,-0.1,0.19,0.012,2018,4,24,22,43,50.617
0,0.7355,-0.5726,-0.3425,-0.1171,29.2,38.6,-77.4,-0.092,0.18,0.002,2018,4,24,22,43,50.621
0,0.7401,-0.5635,-0.3454,-0.1235,34.9,36.8,-69.9,-0.102,0.103,0.005,2018,4,24,22,43,50.64
0,0.7455,-0.5536,-0.3483,-0.1275,45.1,33.2,-63.6,-0.093,0.17,0.03,2018,4,24,22,43,50.658
0,0.749,-0.547,-0.3506,-0.129,28.1,27.7,-56.6,-0.099,0.262,0.048,2018,4,24,22,43,50.694
0,0.7504,-0.5438,-0.3522,-0.1303,9.5,23.8,-49.6,-0.106,0.151,0.012,2018,4,24,22,43,50.718
0,0.7531,-0.5387,-0.3537,-0.1319,17.8,22,-41.4,-0.07,0.112,-0.009,2018,4,24,22,43,50.722
0,0.7568,-0.5327,-0.3548,-0.1318,30.6,20.6,-36,-0.072,0.103,-0.035,2018,4,24,22,43,50.736
0,0.7614,-0.5257,-0.356,-0.1305,30.4,17.5,-30,-0.094,0.154,-0.012,2018,4,24,22,43,50.773
0,0.7641,-0.5224,-0.3563,-0.1264,24.5,13.7,-23.3,-0.092,0.159,0.001,2018,4,24,22,43,50.796
0,0.7676,-0.5178,-0.3571,-0.1223,28.2,10.4,-16.2,-0.09,0.17,-0.021,2018,4,24,22,43,50.8
0,0.7705,-0.515,-0.3574,-0.115,39.5,7.3,-6.9,-0.086,0.194,-0.036,2018,4,24,22,43,50.818
0,0.7743,-0.5115,-0.357,-0.1057,46.7,3.9,3.1,-0.104,0.256,-0.021,2018,4,24,22,43,50.836
0,0.7774,-0.5096,-0.3561,-0.0951,25.4,-0.6,13.8,-0.101,0.343,-0.02,2018,4,24,22,43,50.86
0,0.7778,-0.5121,-0.3544,-0.084,-1.6,-4.6,26.9,-0.095,0.316,-0.005,2018,4,24,22,43,50.896
0,0.7763,-0.5179,-0.3518,-0.0725,-10.8,-7.6,39.6,-0.097,0.241,-0.016,2018,4,24,22,43,50.917
0,0.7746,-0.5246,-0.3482,-0.0589,-7.6,-9.3,50.9,-0.107,0.182,-0.026,2018,4,24,22,43,50.923
1023,0.7728,-0.5315,-0.3439,-0.0441,-8.8,-11.3,60.8,-0.118,0.199,-0.014,2018,4,24,22,43,50.938
1023,0.7697,-0.5399,-0.3393,-0.0291,-23.6,-14.3,69.7,-0.12,0.213,-0.016,2018,4,24,22,43,50.956
1023,0.7649,-0.5503,-0.3343,-0.014,-36.1,-16.5,77.9,-0.09,0.181,-0.033,2018,4,24,22,43,50.979
1023,0.7611,-0.5583,-0.33,-0.0005,-36.8,-17.8,85.1,-0.091,0.129,-0.015,2018,4,24,22,43,51.014
1023,0.757,-0.5666,-0.3249,0.0141,-36,-20.6,90,-0.12,0.092,-0.021,2018,4,24,22,43,51.037
1023,0.7521,-0.5753,-0.32,0.0294,-41.7,-24.2,94,-0.124,0.106,-0.031,2018,4,24,22,43,51.063
1023,0.7463,-0.5842,-0.3157,0.0443,-42.4,-25.9,97.6,-0.059,0.088,-0.032,2018,4,24,22,43,51.084
1023,0.7408,-0.5923,-0.311,0.0588,-29.5,-25,99.6,-0.038,0.016,-0.013,2018,4,24,22,43,51.087
1023,0.7371,-0.5978,-0.3058,0.0752,-8.5,-24.6,101,-0.05,-0.03,0.009,2018,4,24,22,43,51.101
1023,0.7343,-0.6017,-0.3004,0.0914,-10.7,-25.5,97.6,-0.074,-0.003,-0.025,2018,4,24,22,43,51.119
1023,0.7295,-0.6071,-0.2962,0.1065,-35.4,-25.7,95.2,-0.032,0.014,-0.03,2018,4,24,22,43,51.139
1023,0.7227,-0.6147,-0.2924,0.1188,-51.7,-26.7,93.3,-0.024,0,0.002,2018,4,24,22,43,51.176
1023,0.7158,-0.6222,-0.2885,0.1309,-32.4,-26.5,93.2,-0.035,-0.093,-0.015,2018,4,24,22,43,51.197
0,0.7135,-0.6245,-0.2825,0.1442,31.8,-20.6,91.5,-0.015,-0.233,-0.031,2018,4,24,22,43,51.202
0,0.7185,-0.6186,-0.2745,0.1598,81.3,-17.2,89,-0.028,-0.082,-0.008,2018,4,24,22,43,51.239
0,0.7255,-0.61,-0.2662,0.1746,57.8,-17.8,88,-0.03,0.179,0.018,2018,4,24,22,43,51.239
0,0.7279,-0.6062,-0.2596,0.1875,13.2,-19,90.5,-0.006,0.162,-0.002,2018,4,24,22,43,51.261
0,0.727,-0.6064,-0.253,0.1991,6.7,-15.7,95.7,0.016,0.07,-0.037,2018,4,24,22,43,51.297
0,0.7266,-0.6061,-0.2447,0.2113,29.2,-9.6,99.8,0.008,-0.026,-0.06,2018,4,24,22,43,51.317
0,0.7284,-0.6035,-0.2342,0.2241,45.5,-5.1,100.1,-0.01,0.023,-0.048,2018,4,24,22,43,51.32
0,0.7305,-0.6005,-0.2232,0.2361,26.8,-3.6,100.4,0.007,0.157,-0.016,2018,4,24,22,43,51.357
0,0.7296,-0.6007,-0.2134,0.2472,-5,-3.6,103,0.015,0.152,0.021,2018,4,24,22,43,51.377
0,0.726,-0.6039,-0.2037,0.258,-9.5,-3.5,105.4,0.006,0.007,0.003,2018,4,24,22,43,51.381
0,0.7235,-0.6057,-0.1922,0.2693,30.4,-0.6,107.9,0.006,-0.124,-0.016,2018,4,24,22,43,51.417
0,0.7248,-0.6028,-0.1786,0.2815,54.4,2.9,103,-0.022,-0.12,-0.021,2018,4,24,22,43,51.437
0,0.7256,-0.6001,-0.1658,0.2928,17.4,1.7,95.8,-0.038,0.007,0.061,2018,4,24,22,43,51.444
0,0.7218,-0.6025,-0.1561,0.3023,-23.1,-2.5,89.3,-0.039,-0.068,0.076,2018,4,24,22,43,51.461
0,0.7162,-0.6069,-0.1484,0.3107,-15.8,-5,84.1,-0.007,-0.158,0.04,2018,4,24,22,43,51.497
0,0.7126,-0.6088,-0.1403,0.3188,11.4,-4.3,79.6,0.012,-0.193,-0.021,2018,4,24,22,43,51.52
0,0.7117,-0.6078,-0.1312,0.3265,30.7,-2.9,71.8,-0.022,-0.163,0,2018,4,24,22,43,51.525
0,0.7118,-0.6056,-0.1229,0.3337,20.1,-4.1,63.7,-0.032,-0.071,0.034,2018,4,24,22,43,51.542
0,0.7106,-0.6049,-0.1162,0.3398,4.8,-5.7,58.3,-0.006,-0.051,0.015,2018,4,24,22,43,51.58
0,0.7087,-0.6051,-0.1107,0.3453,7.3,-4.6,56.9,0.016,-0.026,-0.027,2018,4,24,22,43,51.603
0,0.7078,-0.6043,-0.1042,0.3503,23.2,-0.7,57.9,0.009,-0.046,-0.06,2018,4,24,22,43,51.608
0,0.7078,-0.6029,-0.0965,0.3551,23.1,2.7,55.8,-0.027,0,-0.068,2018,4,24,22,43,51.642
0,0.7067,-0.6025,-0.0893,0.3599,-8.2,3.5,53.8,-0.032,0.093,0.025,2018,4,24,22,43,51.665
0,0.702,-0.6064,-0.086,0.3631,-40.7,-2.7,33.2,-0.018,-0.629,0.266,2018,4,24,22,43,51.669
0,0.6994,-0.6091,-0.0868,0.3635,14,-12.9,1,0.13,-0.775,0.118,2018,4,24,22,43,51.682
0,0.7035,-0.605,-0.0856,0.3627,35.2,-10.9,-4.8,0.067,0,-0.063,2018,4,24,22,43,51.718
0,0.7065,-0.6024,-0.0866,0.361,0.7,-8.2,-2.7,0.034,0.085,-0.031,2018,4,24,22,43,51.742
0,0.7071,-0.6025,-0.0879,0.3593,-7.9,-4.5,1,0.018,0.044,-0.032,2018,4,24,22,43,51.747
0,0.7079,-0.6027,-0.0884,0.3573,7.3,-0.7,0,0.025,-0.066,-0.008,2018,4,24,22,43,51.781
0,0.7111,-0.6005,-0.0874,0.355,27.3,2.7,-2.9,0.009,-0.058,0.008,2018,4,24,22,43,51.804
1023,0.7156,-0.5967,-0.0855,0.3527,26.4,3,-2.8,0.002,0.075,0.014,2018,4,24,22,43,51.809
1023,0.7192,-0.5938,-0.0838,0.3505,12.4,3.1,1.1,0.008,0.124,0.015,2018,4,24,22,43,51.824
1023,0.7215,-0.5922,-0.0825,0.349,5.2,2.9,4.2,0.013,0.073,0.041,2018,4,24,22,43,51.847
1023,0.7233,-0.5909,-0.0814,0.3476,3.5,1.4,4,0.013,0.017,0.068,2018,4,24,22,43,51.865
1023,0.7247,-0.5902,-0.081,0.3462,-4.4,-1.2,1.8,0.007,-0.006,0.05,2018,4,24,22,43,51.886
1023,0.7248,-0.5909,-0.0819,0.3444,-15.6,-4.4,-0.5,0.009,-0.013,0.019,2018,4,24,22,43,51.924
1023,0.7238,-0.5929,-0.0839,0.3425,-24.9,-6.6,-1.1,0.023,0.012,0.008,2018,4,24,22,43,51.924
1023,0.7224,-0.5954,-0.0865,0.3406,-24.9,-6.4,-0.3,0.034,0.013,0.003,2018,4,24,22,43,51.946
1023,0.7211,-0.5978,-0.0887,0.3386,-20.1,-5.1,0,0.031,-0.015,-0.015,2018,4,24,22,43,51.964
1023,0.7203,-0.5998,-0.0901,0.3363,-13.7,-3.7,-0.2,0.021,-0.011,-0.021,2018,4,24,22,43,51.987
1023,0.72,-0.6013,-0.0911,0.3342,-9.1,-2.6,0,0.02,-0.004,-0.042,2018,4,24,22,43,52.003
1023,0.7202,-0.6022,-0.0917,0.3318,-2.4,0,-0.8,0.025,-0.058,-0.032,2018,4,24,22,43,52.026
1023,0.7215,-0.6022,-0.0914,0.329,7,2.3,-2.3,0.025,-0.031,-0.011,2018,4,24,22,43,52.065
0,0.7237,-0.6013,-0.0908,0.3261,9.5,3.8,-3.1,0.043,0.006,-0.03,2018,4,24,22,43,52.065
0,0.7261,-0.6001,-0.09,0.3231,13.4,5.8,-2.5,0.042,-0.01,-0.037,2018,4,24,22,43,52.088
0,0.7286,-0.599,-0.0888,0.3198,10.2,6.7,-3.8,0.018,-0.021,-0.028,2018,4,24,22,43,52.124
0,0.7305,-0.5986,-0.0879,0.3163,-1.3,8.2,-7.7,0.015,0.01,-0.008,2018,4,24,22,43,52.147
0,0.7305,-0.6009,-0.0888,0.3117,-34.2,9.2,-13.9,0.002,-0.001,-0.014,2018,4,24,22,43,52.152
0,0.7266,-0.6083,-0.0923,0.3056,-75.4,7.9,-19.4,0.01,0.003,-0.005,2018,4,24,22,43,52.169
0,0.7189,-0.62,-0.0982,0.2984,-103.1,7.1,-24.6,0.001,-0.126,-0.005,2018,4,24,22,43,52.192
0,0.7098,-0.6332,-0.1058,0.2898,-97.8,9,-35.8,0,-0.294,-0.026,2018,4,24,22,43,52.207
0,0.7029,-0.644,-0.1133,0.2796,-74,11.9,-48.8,-0.004,-0.322,-0.004,2018,4,24,22,43,52.243
0,0.6993,-0.6516,-0.1205,0.2678,-54.5,14.3,-61.7,0.007,-0.322,0.05,2018,4,24,22,43,52.266
0,0.6979,-0.6568,-0.1284,0.2546,-48.1,15,-74.5,0.015,-0.277,0.059,2018,4,24,22,43,52.271
0,0.6968,-0.6619,-0.1371,0.2395,-49.4,16.4,-85.6,0.017,-0.237,0.046,2018,4,24,22,43,52.289
0,0.6961,-0.6663,-0.1467,0.2231,-42.7,20.6,-94.3,0.014,-0.287,0.036,2018,4,24,22,43,52.306
0,0.6977,-0.6683,-0.1557,0.2055,-15.6,25,-103,-0.003,-0.288,0.05,2018,4,24,22,43,52.329
0,0.7018,-0.6673,-0.1643,0.1872,-8.5,26.2,-111.2,-0.029,-0.158,0.058,2018,4,24,22,43,52.347
0,0.7045,-0.6673,-0.1739,0.1675,-38.1,25.9,-116.9,-0.025,-0.037,0.046,2018,4,24,22,43,52.371
0,0.7036,-0.6702,-0.1848,0.1463,-55.3,28.8,-119.4,-0.019,-0.112,0.027,2018,4,24,22,43,52.387
0,0.7031,-0.6722,-0.1952,0.1246,-32.9,34.1,-121.7,-0.025,-0.219,0.015,2018,4,24,22,43,52.423
0,0.7053,-0.6709,-0.2044,0.1028,-13.5,38.6,-125.8,-0.063,-0.098,0.037,2018,4,24,22,43,52.446
0,0.7085,-0.6677,-0.2133,0.0806,-17.9,39.8,-124.4,-0.026,0.049,0.072,2018,4,24,22,43,52.451
0,0.711,-0.6644,-0.2223,0.0585,-14.8,42.8,-122,-0.013,-0.028,0.02,2018,4,24,22,43,52.468
0,0.7144,-0.6597,-0.23,0.037,8.2,46.8,-120.4,-0.061,-0.077,0.002,2018,4,24,22,43,52.486
0,0.721,-0.6507,-0.2371,0.0172,34.7,47.1,-115.4,-0.058,0.045,0.062,2018,4,24,22,43,52.51
0,0.7293,-0.6389,-0.2443,-0.0009,37.9,44,-111.1,-0.065,0.137,0.078,2018,4,24,22,43,52.547
0,0.7358,-0.6281,-0.2522,-0.0172,23.2,40.9,-105.3,-0.064,0.129,0.047,2018,4,24,22,43,52.571
0,0.7405,-0.619,-0.2593,-0.0329,21.4,40.7,-98.7,-0.08,0.063,-0.002,2018,4,24,22,43,52.576
0,0.7457,-0.6089,-0.2661,-0.0461,38.9,40.4,-92.6,-0.082,0.057,-0.028,2018,4,24,22,43,52.59
0,0.7521,-0.5971,-0.2729,-0.0571,51,39,-88.8,-0.086,0.13,-0.007,2018,4,24,22,43,52.615
1023,0.7583,-0.585,-0.2794,-0.0671,44.6,36.8,-84,-0.083,0.119,-0.043,2018,4,24,22,43,52.63
1023,0.7632,-0.5745,-0.2857,-0.075,43.6,37.1,-79.4,-0.09,0.1,-0.056,2018,4,24,22,43,52.647
1023,0.7686,-0.5636,-0.2909,-0.082,54.4,37,-75.8,-0.087,0.054,-0.076,2018,4,24,22,43,52.669
1023,0.7751,-0.5511,-0.296,-0.0878,63.6,35,-73.1,-0.09,0.14,-0.056,2018,4,24,22,43,52.688
1023,0.7813,-0.5387,-0.3011,-0.0926,50.4,31.8,-70.3,-0.1,0.191,-0.043,2018,4,24,22,43,52.711
1023,0.7858,-0.5285,-0.3058,-0.0972,32.9,28.5,-66.1,-0.11,0.17,-0.036,2018,4,24,22,43,52.748
1023,0.7891,-0.5203,-0.3101,-0.1011,28.2,25.1,-62,-0.113,0.132,-0.055,2018,4,24,22,43,52.773
1023,0.7923,-0.5124,-0.3141,-0.104,32.3,21.6,-58,-0.104,0.141,-0.051,2018,4,24,22,43,52.777
1023,0.796,-0.5038,-0.3182,-0.1055,35.7,18.2,-53.5,-0.107,0.145,-0.037,2018,4,24,22,43,52.794
1023,0.7996,-0.4952,-0.3225,-0.1058,32,15.8,-48.5,-0.098,0.159,-0.077,2018,4,24,22,43,52.812
1023,0.8028,-0.4876,-0.3263,-0.1056,32,13.4,-43.2,-0.084,0.163,-0.044,2018,4,24,22,43,52.835
0,0.8063,-0.4796,-0.33,-0.104,36.7,10.7,-37.5,-0.079,0.148,-0.039,2018,4,24,22,43,52.853
0,0.8102,-0.4712,-0.3335,-0.101,43,8.7,-32.7,-0.101,0.119,-0.036,2018,4,24,22,43,52.872
0,0.8136,-0.4642,-0.3364,-0.0964,29.4,3.6,-29.3,-0.097,0.198,-0.015,2018,4,24,22,43,52.896
0,0.8138,-0.4627,-0.3391,-0.0916,-0.7,-0.7,-24,-0.058,0.2,-0.038,2018,4,24,22,43,52.912
0,0.8128,-0.4634,-0.3416,-0.0882,-10.4,-2.4,-16.8,-0.036,0.139,-0.041,2018,4,24,22,43,52.948
0,0.8129,-0.4622,-0.3439,-0.0839,5.9,-3.1,-8.7,-0.048,0.127,0.01,2018,4,24,22,43,52.971
0,0.8141,-0.46,-0.3459,-0.0763,24.7,-5.2,-0.3,-0.073,0.186,0.009,2018,4,24,22,43,52.975
0,0.815,-0.4589,-0.3472,-0.0662,18.7,-8.4,9.7,-0.074,0.291,0.004,2018,4,24,22,43,52.994
0,0.8147,-0.4606,-0.3478,-0.0548,0.8,-10.9,23.3,-0.076,0.314,-0.005,2018,4,24,22,43,53.012
0,0.8131,-0.4652,-0.3472,-0.0421,-8.6,-12.8,38.5,-0.102,0.269,-0.021,2018,4,24,22,43,53.035
0,0.8109,-0.471,-0.3458,-0.0278,-5.9,-13.7,52.7,-0.121,0.236,-0.035,2018,4,24,22,43,53.053
0,0.8091,-0.4766,-0.3433,-0.0115,3.3,-14.3,66,-0.125,0.242,-0.028,2018,4,24,22,43,53.076
0,0.8073,-0.4823,-0.3399,0.0062,-4.8,-15.8,77.1,-0.143,0.323,-0.01,2018,4,24,22,43,53.094
0,0.8029,-0.4917,-0.3359,0.0244,-35.8,-19.8,89.6,-0.144,0.317,-0.024,2018,4,24,22,43,53.118
0,0.7956,-0.505,-0.3316,0.0426,-49.4,-24,101.2,-0.142,0.189,-0.032,2018,4,24,22,43,53.134
0,0.7896,-0.5154,-0.3273,0.0607,-42.9,-28.1,109.2,-0.149,0.112,-0.026,2018,4,24,22,43,53.151
0,0.7833,-0.525,-0.3231,0.0792,-43.8,-32,113.3,-0.163,0.116,-0.022,2018,4,24,22,43,53.174
0,0.7756,-0.5354,-0.3194,0.0978,-58.7,-38,115.3,-0.167,0.145,-0.028,2018,4,24,22,43,53.21
0,0.7656,-0.5478,-0.3165,0.1157,-67.7,-43.2,119,-0.157,0.097,-0.067,2018,4,24,22,43,53.233
0,0.7557,-0.5591,-0.3132,0.1343,-40.4,-42.7,123.5,-0.085,-0.001,-0.068,2018,4,24,22,43,53.238
0,0.7487,-0.5661,-0.3083,0.1539,-11.2,-38.8,125.3,-0.071,-0.002,-0.041,2018,4,24,22,43,53.257
0,0.7431,-0.5711,-0.3024,0.1732,-13.5,-37.5,125.5,-0.093,0.031,-0.042,2018,4,24,22,43,53.273
0,0.7369,-0.577,-0.2957,0.1909,-22,-37.3,126.9,-0.064,-0.005,-0.04,2018,4,24,22,43,53.295
0,0.7304,-0.583,-0.2884,0.2081,-9.3,-34.5,127.6,-0.024,-0.077,-0.059,2018,4,24,22,43,53.313
0,0.7257,-0.5868,-0.2793,0.2252,12.6,-30.2,127.4,-0.011,-0.065,-0.03,2018,4,24,22,43,53.35
0,0.7234,-0.588,-0.2683,0.2424,30.7,-26.3,127.1,-0.023,-0.013,0,2018,4,24,22,43,53.374
0,0.7215,-0.5885,-0.2566,0.2591,15.3,-25.9,125.7,-0.025,0.069,-0.041,2018,4,24,22,43,53.378
0,0.7153,-0.5936,-0.2466,0.2739,-29.6,-23.8,126.9,-0.034,0.083,-0.059,2018,4,24,22,43,53.396
0,0.7054,-0.6029,-0.2369,0.2876,-34.7,-20.5,130.5,-0.044,-0.031,-0.03,2018,4,24,22,43,53.413
1023,0.697,-0.6102,-0.2249,0.3018,-3.7,-20,131.5,-0.036,-0.102,0.027,2018,4,24,22,43,53.436
1023,0.6904,-0.6147,-0.2123,0.3166,-6.3,-22,126.9,-0.024,-0.032,-0.033,2018,4,24,22,43,53.454
1023,0.68,-0.6226,-0.2021,0.3299,-52.5,-21.9,121,-0.066,0,-0.04,2018,4,24,22,43,53.477
1023,0.6656,-0.6346,-0.1943,0.341,-71.9,-20.9,116.1,-0.055,-0.117,-0.014,2018,4,24,22,43,53.494
1023,0.6527,-0.6446,-0.1859,0.3518,-22.8,-18.4,111,-0.045,-0.321,0.009,2018,4,24,22,43,53.517
1023,0.648,-0.6463,-0.1733,0.3635,57.3,-16.3,102.4,-0.048,-0.439,-0.027,2018,4,24,22,43,53.555
1023,0.6484,-0.6431,-0.1595,0.3746,50.4,-13.5,86.1,-0.091,-0.129,-0.077,2018,4,24,22,43,53.578
1023,0.6446,-0.6444,-0.1497,0.383,-18.1,-11.7,73.5,-0.096,-0.057,0.006,2018,4,24,22,43,53.583
1023,0.6357,-0.6507,-0.1451,0.3889,-50.2,-13.1,63.4,-0.068,-0.161,-0.018,2018,4,24,22,43,53.596
1023,0.6263,-0.6581,-0.1418,0.393,-36.9,-11.3,56.3,-0.088,-0.179,-0.025,2018,4,24,22,43,53.614
1023,0.6193,-0.6638,-0.1404,0.3948,-29.5,-13.4,21.4,0.03,-1.076,0.117,2018,4,24,22,43,53.637
1023,0.6203,-0.6633,-0.1392,0.3947,57.4,-15.7,-13.4,0.135,-0.578,-0.028,2018,4,24,22,43,53.656
1023,0.628,-0.6568,-0.1375,0.3938,50.9,-15.7,-12,0.051,0.089,-0.074,2018,4,24,22,43,53.68
0,0.6324,-0.6533,-0.1373,0.3926,15.7,-12.7,-3.7,0.022,0.197,-0.062,2018,4,24,22,43,53.698
0,0.6341,-0.6526,-0.1375,0.3911,11.2,-9.9,-0.3,0.051,-0.018,-0.006,2018,4,24,22,43,53.734
0,0.6373,-0.6506,-0.1371,0.3894,26.7,-8.7,-6.1,0.05,-0.124,0.021,2018,4,24,22,43,53.757
0,0.6416,-0.6477,-0.1365,0.3873,27.1,-8.1,-7.5,0.031,0.012,0.005,2018,4,24,22,43,53.762
0,0.6452,-0.6455,-0.1357,0.3852,14.5,-5.8,-3.8,0.017,0.106,0.011,2018,4,24,22,43,53.78
0,0.6476,-0.6445,-0.1347,0.3833,10.9,-1.4,0.8,0.018,0.053,0.028,2018,4,24,22,43,53.815
0,0.6503,-0.6434,-0.1327,0.3813,17.9,3.1,2.4,0.026,-0.017,0.055,2018,4,24,22,43,53.839
0,0.6539,-0.6417,-0.1298,0.3789,22,4.7,0.2,0.014,-0.011,0.075,2018,4,24,22,43,53.843
0,0.6572,-0.6402,-0.1276,0.3765,10.6,3.8,-2,0,0.005,0.065,2018,4,24,22,43,53.859
0,0.6591,-0.6402,-0.1264,0.3737,0.2,2.2,-2.3,0.009,0.004,0.027,2018,4,24,22,43,53.877
0,0.6601,-0.6409,-0.126,0.3708,-2.8,1.3,-2,0.01,0.012,0.01,2018,4,24,22,43,53.9
0,0.6609,-0.6417,-0.1256,0.3681,-3.8,1.2,-0.2,0.027,0.026,0.013,2018,4,24,22,43,53.918
0,0.6617,-0.6427,-0.1249,0.3652,-5.6,0.8,0.7,0.036,0.009,0.022,2018,4,24,22,43,53.939
0,0.6622,-0.6437,-0.1243,0.3626,-4.3,0.1,1.4,0.025,0.01,0.013,2018,4,24,22,43,53.977
0,0.6627,-0.6447,-0.1239,0.3602,-3.2,-0.2,0.9,0.024,-0.042,-0.015,2018,4,24,22,43,54
0,0.6636,-0.6454,-0.1231,0.3575,3.8,1.4,0.3,0.032,-0.029,0.008,2018,4,24,22,43,54.004
0,0.6656,-0.6449,-0.1221,0.3551,9.9,2,0,0.041,-0.009,0.01,2018,4,24,22,43,54.022
0,0.6681,-0.6441,-0.1204,0.3522,15.7,2.6,0,0.044,0.001,-0.053,2018,4,24,22,43,54.042
0,0.6709,-0.643,-0.1186,0.3495,17.6,4.5,0.7,0.045,0,-0.092,2018,4,24,22,43,54.058
0,0.6734,-0.6423,-0.1167,0.3466,15.1,7.7,1.7,0.043,-0.032,-0.091,2018,4,24,22,43,54.077
0,0.6763,-0.6414,-0.1141,0.3435,20.1,12,0.4,0.033,-0.084,-0.032,2018,4,24,22,43,54.101
0,0.6801,-0.64,-0.1109,0.3397,19.7,15.4,-3.9,0.004,-0.043,0.015,2018,4,24,22,43,54.118
0,0.6833,-0.6393,-0.1083,0.3355,2.2,13.6,-8.7,-0.009,0,0.026,2018,4,24,22,43,54.141
0,0.6824,-0.6428,-0.1092,0.3302,-64.5,12,-17.8,-0.021,0.127,-0.006,2018,4,24,22,43,54.16
0,0.6715,-0.6569,-0.1162,0.3221,-160.5,9.8,-26.2,-0.025,-0.012,-0.042,2018,4,24,22,43,54.183
0,0.6531,-0.6782,-0.1276,0.3114,-177.6,11.5,-34.2,-0.023,-0.354,-0.039,2018,4,24,22,43,54.203
0,0.6386,-0.6953,-0.1381,0.2991,-107.8,16.7,-49.4,-0.008,-0.543,-0.035,2018,4,24,22,43,54.222
0,0.634,-0.7034,-0.146,0.2859,-40.9,21.2,-68,0.013,-0.437,-0.012,2018,4,24,22,43,54.259
0,0.6345,-0.7072,-0.1536,0.2712,-36.2,24.5,-83,0.016,-0.301,-0.011,2018,4,24,22,43,54.259
1023,0.635,-0.7111,-0.1625,0.2542,-44.3,29.7,-95,0.028,-0.26,0.019,2018,4,24,22,43,54.281
1023,0.6358,-0.7146,-0.1722,0.2352,-34.9,35.3,-105.5,0.049,-0.355,0.029,2018,4,24,22,43,54.299
1023,0.6393,-0.7156,-0.1812,0.2148,-8.9,41.1,-115.4,0.024,-0.381,0.018,2018,4,24,22,43,54.32
1023,0.6457,-0.7136,-0.1902,0.1937,-0.9,42.3,-125.6,-0.005,-0.197,0.057,2018,4,24,22,43,54.356
1023,0.6511,-0.7116,-0.2004,0.1714,-18.7,43,-132.5,-0.019,-0.082,0.052,2018,4,24,22,43,54.38
1023,0.6549,-0.7104,-0.211,0.1477,-20.8,45,-136.6,-0.018,-0.184,0.047,2018,4,24,22,43,54.385
1023,0.6601,-0.707,-0.2211,0.124,7.5,48.1,-138.1,-0.037,-0.19,0.056,2018,4,24,22,43,54.402
1023,0.6681,-0.7003,-0.2303,0.1007,19.1,47.6,-140.3,-0.082,-0.01,0.05,2018,4,24,22,43,54.42
1023,0.6749,-0.6935,-0.2397,0.0772,1.8,47.8,-139.8,-0.098,0.077,0.003,2018,4,24,22,43,54.443
1023,0.6795,-0.688,-0.2489,0.053,-3,52.3,-136.5,-0.09,0.02,-0.038,2018,4,24,22,43,54.461
1023,0.6857,-0.6802,-0.2571,0.03,25.1,54.7,-130.5,-0.109,0.038,0.053,2018,4,24,22,43,54.484
1023,0.6929,-0.6703,-0.2654,0.0096,36.9,50.1,-126.2,-0.133,0.136,0.048,2018,4,24,22,43,54.503
0,0.7003,-0.6592,-0.2736,-0.0102,23.3,47.1,-122,-0.132,0.177,-0.047,2018,4,24,22,43,54.526
0,0.7061,-0.6488,-0.2819,-0.0293,21,46.3,-113.7,-0.104,0.188,-0.015,2018,4,24,22,43,54.544
0,0.7114,-0.6384,-0.2898,-0.0462,26.8,45.8,-106.9,-0.11,0.133,-0.043,2018,4,24,22,43,54.567
0,0.7168,-0.6275,-0.2977,-0.0603,30.6,44.2,-99.8,-0.116,0.161,-0.02,2018,4,24,22,43,54.583
0,0.7213,-0.6175,-0.3047,-0.0734,22.6,42.7,-94.7,-0.128,0.14,-0.051,2018,4,24,22,43,54.601
0,0.7247,-0.6089,-0.311,-0.0852,24.5,42.8,-89.4,-0.131,0.131,-0.053,2018,4,24,22,43,54.624
0,0.7291,-0.5991,-0.3168,-0.0948,39.4,40.3,-83.9,-0.116,0.145,-0.012,2018,4,24,22,43,54.642
0,0.7349,-0.5875,-0.3224,-0.1027,48.1,35.9,-77.9,-0.108,0.195,0.004,2018,4,24,22,43,54.665
0,0.7406,-0.5763,-0.3279,-0.1084,43.9,32.5,-72.1,-0.135,0.141,-0.031,2018,4,24,22,43,54.683
0,0.7457,-0.5662,-0.3325,-0.1126,43.1,29.9,-66.1,-0.146,0.125,-0.072,2018,4,24,22,43,54.706
0,0.7509,-0.5561,-0.3365,-0.1163,47.6,27,-61.4,-0.126,0.133,-0.04,2018,4,24,22,43,54.724
0,0.7563,-0.546,-0.3403,-0.1183,50.9,23,-55.9,-0.112,0.191,0,2018,4,24,22,43,54.748
0,0.7602,-0.5381,-0.3442,-0.1175,42.8,18.5,-49.2,-0.101,0.178,-0.031,2018,4,24,22,43,54.765
0,0.7642,-0.5301,-0.3477,-0.1178,30.5,15.8,-43.2,-0.094,0.19,-0.033,2018,4,24,22,43,54.781
0,0.7667,-0.5247,-0.3506,-0.1176,11.8,12.5,-37.3,-0.077,0.183,-0.022,2018,4,24,22,43,54.803
0,0.7669,-0.5232,-0.3528,-0.116,5.5,9.8,-31.4,-0.054,0.133,0.009,2018,4,24,22,43,54.841
0,0.7688,-0.5194,-0.355,-0.1142,19,8.9,-27.3,-0.056,0.047,-0.023,2018,4,24,22,43,54.864
0,0.7723,-0.5134,-0.3573,-0.1104,31.5,7,-23.4,-0.05,0.106,-0.01,2018,4,24,22,43,54.869
0,0.7749,-0.5088,-0.3596,-0.1057,21.5,4.3,-19,-0.037,0.177,0.007,2018,4,24,22,43,54.884
0,0.7756,-0.508,-0.3609,-0.1,14.5,2.2,-12.5,-0.028,0.148,0.035,2018,4,24,22,43,54.907
0,0.7778,-0.505,-0.3622,-0.0933,36,1.7,-4.5,-0.028,0.113,0.024,2018,4,24,22,43,54.943
0,0.7842,-0.4957,-0.3634,-0.0841,92.5,2.5,4.6,-0.025,0.063,-0.038,2018,4,24,22,43,54.965
0,0.7961,-0.478,-0.3643,-0.0693,155.5,5,14.4,-0.069,0.147,0,2018,4,24,22,43,54.97
0,0.8082,-0.4601,-0.3639,-0.0498,129.6,0,24.6,-0.094,0.495,0.053,2018,4,24,22,43,54.984
0,0.814,-0.4529,-0.3621,-0.0324,36.2,-5.7,41.9,-0.103,0.505,0.069,2018,4,24,22,43,55.001
0,0.8129,-0.4579,-0.3592,-0.0171,-18.3,-11.4,59.7,-0.132,0.336,0.014,2018,4,24,22,43,55.024
0,0.8095,-0.4671,-0.3554,-0.0009,-17.5,-13.3,75,-0.12,0.202,-0.05,2018,4,24,22,43,55.042
1023,0.8085,-0.4716,-0.3512,0.0168,11.4,-12.4,87.4,-0.118,0.124,-0.073,2018,4,24,22,43,55.066
1023,0.8098,-0.472,-0.3462,0.0367,34.7,-9.3,97.1,-0.117,0.155,-0.077,2018,4,24,22,43,55.083
1023,0.8106,-0.4734,-0.3394,0.0589,27.1,-7.4,106.2,-0.137,0.24,-0.053,2018,4,24,22,43,55.106
1023,0.8084,-0.4793,-0.3315,0.0811,0.3,-7.3,113.2,-0.153,0.224,-0.062,2018,4,24,22,43,55.124
1023,0.8055,-0.4854,-0.3241,0.1017,-9.8,-7.4,119.1,-0.129,0.109,-0.052,2018,4,24,22,43,55.148
1023,0.8025,-0.4907,-0.3162,0.1226,3.9,-7.3,122.9,-0.098,0.022,-0.019,2018,4,24,22,43,55.166
1023,0.8,-0.4941,-0.3081,0.144,8.7,-10,124.1,-0.103,0.049,-0.022,2018,4,24,22,43,55.189
1023,0.7964,-0.4978,-0.3009,0.1648,-14.5,-15.2,124,-0.11,0.129,-0.004,2018,4,24,22,43,55.207
1023,0.79,-0.5045,-0.2952,0.1844,-36.9,-21.7,126.9,-0.105,0.12,0.001,2018,4,24,22,43,55.229
1023,0.7826,-0.5117,-0.2897,0.204,-23.8,-25,132.8,-0.083,0.064,0.014,2018,4,24,22,43,55.265
1023,0.7766,-0.516,-0.2825,0.225,11.8,-23.1,136.3,-0.084,-0.105,-0.02,2018,4,24,22,43,55.265
1023,0.7717,-0.5183,-0.2734,0.2466,8.9,-20.7,134.6,-0.082,-0.002,-0.075,2018,4,24,22,43,55.287
0,0.7643,-0.5244,-0.2662,0.2642,-52.4,-19.1,133.7,-0.095,0.158,-0.118,2018,4,24,22,43,55.325
0,0.7516,-0.5379,-0.2609,0.2783,-91,-16.8,134.5,-0.074,0.102,-0.089,2018,4,24,22,43,55.348
0,0.7381,-0.5526,-0.2545,0.2914,-66.8,-14.3,135.4,-0.054,-0.072,-0.021,2018,4,24,22,43,55.353
0,0.7276,-0.5632,-0.2452,0.3051,-35.7,-12,133.2,-0.046,-0.158,-0.043,2018,4,24,22,43,55.368
0,0.7167,-0.574,-0.2357,0.3179,-62.3,-11,130.7,-0.06,0.096,-0.134,2018,4,24,22,43,55.404
0,0.7016,-0.5895,-0.2281,0.3285,-102.5,-14,129.2,-0.079,0.081,-0.076,2018,4,24,22,43,55.427
0,0.6846,-0.6061,-0.2211,0.339,-85.5,-17.1,128.7,-0.062,-0.074,0.038,2018,4,24,22,43,55.433
0,0.6712,-0.6177,-0.2118,0.3506,-38.7,-18.7,124.5,-0.031,-0.239,-0.039,2018,4,24,22,43,55.449
0,0.6581,-0.6283,-0.2019,0.3623,-56.7,-18,112.4,-0.069,-0.164,-0.144,2018,4,24,22,43,55.472
0,0.6413,-0.6424,-0.1946,0.3715,-95.1,-16.1,106.7,-0.088,-0.112,-0.04,2018,4,24,22,43,55.487
0,0.6239,-0.6569,-0.1894,0.3786,-78.9,-16,99.3,-0.054,-0.301,0.006,2018,4,24,22,43,55.506
0,0.6113,-0.666,-0.1829,0.3862,-30.3,-17.3,90.7,-0.033,-0.34,0.047,2018,4,24,22,43,55.529
0,0.6023,-0.6717,-0.1761,0.3935,-32.8,-20.4,80.1,-0.013,-0.047,-0.062,2018,4,24,22,43,55.548
0,0.5897,-0.6802,-0.1725,0.3995,-82.5,-22.9,74.1,-0.06,0.076,-0.04,2018,4,24,22,43,55.571
0,0.5713,-0.6929,-0.1726,0.4043,-121.2,-29.5,69,-0.112,-0.164,0.048,2018,4,24,22,43,55.589
0,0.5505,-0.707,-0.1793,0.4058,-144.1,-37.9,17.6,-0.006,-1.676,0.115,2018,4,24,22,43,55.612
0,0.5389,-0.7139,-0.188,0.4054,-19.7,-39.4,-11.2,0.17,-0.412,-0.116,2018,4,24,22,43,55.63
0,0.537,-0.7145,-0.193,0.4046,-12.9,-27.7,-20.2,0.017,0.044,-0.089,2018,4,24,22,43,55.654
0,0.535,-0.7162,-0.1979,0.4019,-23.1,-18.2,-14.8,-0.031,0.221,-0.047,2018,4,24,22,43,55.67
0,0.5325,-0.7186,-0.2012,0.3993,-11.9,-10.6,-6.7,0.012,0.063,-0.041,2018,4,24,22,43,55.693
0,0.5335,-0.7193,-0.2019,0.3962,22.9,-2.6,-8.8,0.071,-0.204,-0.047,2018,4,24,22,43,55.71
0,0.5394,-0.7171,-0.2004,0.3931,52.1,0.1,-10.3,0.087,-0.097,-0.045,2018,4,24,22,43,55.727
0,0.5474,-0.7129,-0.1972,0.3911,57.3,0.3,-4.5,0.046,0.085,-0.02,2018,4,24,22,43,55.75
0,0.5546,-0.7092,-0.1933,0.3897,47.4,1.1,1.4,0.046,0.099,0.009,2018,4,24,22,43,55.768
0,0.5605,-0.7066,-0.1892,0.3881,39,2.7,4.4,0.064,-0.002,0.016,2018,4,24,22,43,55.791
0,0.5656,-0.7046,-0.1854,0.3862,32.7,3.6,3.8,0.064,-0.081,0.038,2018,4,24,22,43,55.808
0,0.57,-0.7031,-0.1821,0.384,24.6,3.7,2.1,0.035,-0.042,0.045,2018,4,24,22,43,55.831
0,0.5732,-0.7026,-0.1793,0.3815,13.3,3.8,1.6,0.006,0.006,0.026,2018,4,24,22,43,55.867
1023,0.5753,-0.7027,-0.177,0.3791,9.4,5.2,2.1,-0.015,0.017,0.023,2018,4,24,22,43,55.89
1023,0.5775,-0.7029,-0.1743,0.3766,13.4,6.3,2.7,-0.019,0.029,0.02,2018,4,24,22,43,55.895
1023,0.5803,-0.7028,-0.171,0.3741,18.6,6.8,3,-0.014,0.027,0.003,2018,4,24,22,43,55.913
1023,0.5837,-0.702,-0.1676,0.3717,24.6,7.5,3.5,0,0.008,-0.008,2018,4,24,22,43,55.936
1023,0.588,-0.7004,-0.164,0.3696,31.2,8.7,3.1,0.022,-0.014,-0.005,2018,4,24,22,43,55.952
1023,0.5931,-0.6984,-0.1598,0.3671,38,10.2,2.7,0.033,-0.027,-0.016,2018,4,24,22,43,55.987
1023,0.5991,-0.6957,-0.1552,0.3644,41.8,11.1,2.2,0.037,-0.025,-0.016,2018,4,24,22,43,56.01
1023,0.6054,-0.6926,-0.1506,0.3619,43.2,12.1,2.3,0.038,-0.062,-0.04,2018,4,24,22,43,56.014
1023,0.6123,-0.6891,-0.1454,0.359,51.9,15.1,1.6,0.039,-0.072,-0.041,2018,4,24,22,43,56.032
1023,0.6203,-0.6848,-0.1397,0.3558,55.4,18.7,-1.3,0.024,-0.053,0.013,2018,4,24,22,43,56.069
1023,0.6277,-0.6808,-0.1346,0.3523,29.3,16.9,-4.9,0.018,0.086,0.042,2018,4,24,22,43,56.11
1023,0.6309,-0.6805,-0.1323,0.3481,-6.4,14.2,-8.9,0,0.031,0.014,2018,4,24,22,43,56.112
1023,0.6316,-0.6826,-0.1319,0.3429,-18.2,13.4,-12.7,-0.027,-0.026,0.013,2018,4,24,22,43,56.114
0,0.63,-0.6866,-0.1332,0.3372,-49,10.9,-19,-0.068,-0.02,0.002,2018,4,24,22,43,56.149
0,0.6245,-0.6941,-0.1376,0.3302,-81.8,9,-26.7,-0.052,-0.067,-0.004,2018,4,24,22,43,56.172
0,0.6164,-0.704,-0.1446,0.3215,-92.6,10.1,-34.8,-0.004,-0.187,-0.007,2018,4,24,22,43,56.177
0,0.6096,-0.7128,-0.1522,0.3113,-67.1,13.9,-43.3,0.031,-0.285,-0.006,2018,4,24,22,43,56.212
0,0.607,-0.7182,-0.1589,0.3004,-42.8,16.5,-53.7,0.046,-0.304,-0.023,2018,4,24,22,43,56.212
0,0.6067,-0.7221,-0.1655,0.288,-36,21.8,-64.4,0.048,-0.314,-0.031,2018,4,24,22,43,56.234
0,0.6078,-0.7249,-0.1727,0.274,-28,26.9,-74.7,0.043,-0.278,0.026,2018,4,24,22,43,56.252
0,0.6099,-0.727,-0.1802,0.2586,-27.2,29.7,-85.9,0.04,-0.267,0.048,2018,4,24,22,43,56.276
0,0.6124,-0.7286,-0.1885,0.2414,-27.1,34.8,-96.3,0.053,-0.318,-0.007,2018,4,24,22,43,56.311
0,0.6159,-0.7296,-0.1969,0.2221,-19.2,42.6,-107.3,0.022,-0.309,0,2018,4,24,22,43,56.334
0,0.6201,-0.7296,-0.2059,0.2014,-22.9,46.1,-118.5,-0.007,-0.25,0.037,2018,4,24,22,43,56.339
0,0.6243,-0.7291,-0.2155,0.1792,-19,46.7,-128.7,-0.028,-0.209,0.056,2018,4,24,22,43,56.357
0,0.6298,-0.7266,-0.2255,0.1561,-4.8,46.5,-136,-0.018,-0.168,0.023,2018,4,24,22,43,56.375
0,0.6366,-0.7221,-0.2358,0.1324,4,47.8,-141.4,-0.041,-0.075,0.029,2018,4,24,22,43,56.397
0,0.6434,-0.7165,-0.2464,0.1086,0.7,48.9,-143.4,-0.06,-0.026,0.007,2018,4,24,22,43,56.416
0,0.6498,-0.7103,-0.2567,0.0843,7.5,50,-142.7,-0.043,-0.026,0,2018,4,24,22,43,56.439
0,0.6575,-0.7021,-0.2664,0.0604,23,51.5,-140.9,-0.054,-0.011,-0.009,2018,4,24,22,43,56.454
0,0.6665,-0.6918,-0.2751,0.0371,36.7,52.3,-138,-0.096,0.063,0.005,2018,4,24,22,43,56.474
0,0.6765,-0.6793,-0.2838,0.0154,44.1,50.9,-134.5,-0.107,0.088,-0.015,2018,4,24,22,43,56.512
0,0.6863,-0.6655,-0.2931,-0.0046,52.2,51.2,-130.3,-0.108,0.097,-0.053,2018,4,24,22,43,56.535
0,0.6964,-0.6504,-0.3021,-0.0228,60,52,-125.4,-0.128,0.125,-0.08,2018,4,24,22,43,56.539
0,0.7059,-0.635,-0.3109,-0.0394,53.9,51.4,-120.2,-0.153,0.161,-0.075,2018,4,24,22,43,56.555
0,0.7136,-0.6211,-0.3193,-0.0541,44,50.1,-114.7,-0.154,0.169,-0.045,2018,4,24,22,43,56.578
0,0.7203,-0.6081,-0.3265,-0.0679,45.7,48.9,-107.3,-0.136,0.167,-0.035,2018,4,24,22,43,56.595
0,0.7275,-0.5945,-0.3329,-0.0795,57.4,48,-99,-0.142,0.157,-0.058,2018,4,24,22,43,56.619
0,0.7353,-0.5803,-0.3384,-0.0887,62.4,46.1,-93,-0.173,0.198,-0.061,2018,4,24,22,43,56.636
0,0.7413,-0.5684,-0.3433,-0.0969,39.6,40.9,-85.8,-0.168,0.306,0.002,2018,4,24,22,43,56.653
1023,0.7435,-0.5621,-0.3471,-0.1033,13.8,36.4,-76.8,-0.145,0.216,0.001,2018,4,24,22,43,56.676
1023,0.7453,-0.5567,-0.3499,-0.1092,18.9,33.9,-66.7,-0.125,0.152,-0.012,2018,4,24,22,43,56.712
1023,0.7501,-0.5479,-0.3523,-0.1135,41.9,31.1,-58.3,-0.128,0.145,-0.019,2018,4,24,22,43,56.734
1023,0.7553,-0.5389,-0.3548,-0.1142,45.9,25.6,-51.1,-0.148,0.248,0.006,2018,4,24,22,43,56.739
1023,0.758,-0.5338,-0.3569,-0.1136,18.4,20.1,-42.1,-0.131,0.264,0.009,2018,4,24,22,43,56.757
1023,0.7588,-0.532,-0.3582,-0.1128,-0.5,16.7,-33.7,-0.107,0.157,-0.022,2018,4,24,22,43,56.775
1023,0.7604,-0.5292,-0.3589,-0.1126,4.1,14.6,-27.2,-0.092,0.1,-0.025,2018,4,24,22,43,56.799
1023,0.7632,-0.5251,-0.3597,-0.1106,25.1,13,-22.1,-0.068,0.066,-0.018,2018,4,24,22,43,56.835
1023,0.7678,-0.5186,-0.3607,-0.1062,36.5,10.6,-19.8,-0.075,0.047,-0.021,2018,4,24,22,43,56.858
1023,0.7711,-0.5137,-0.3618,-0.1016,17,6.8,-17.2,-0.048,0.161,0.017,2018,4,24,22,43,56.863
1023,0.7707,-0.5148,-0.3626,-0.0968,-7.4,2.6,-14.8,-0.029,0.137,0.039,2018,4,24,22,43,56.878
1023,0.7705,-0.515,-0.3634,-0.0936,-7.5,0.4,-12.6,0.002,0.031,0.014,2018,4,24,22,43,56.901
1023,0.7714,-0.5137,-0.3644,-0.0901,13.8,0,-10.6,0,0.007,0.005,2018,4,24,22,43,56.92
0,0.7745,-0.509,-0.3658,-0.0845,28.9,-1.3,-8.1,-0.017,0.093,0.034,2018,4,24,22,43,56.944
0,0.7758,-0.5074,-0.367,-0.0769,13.2,-4.2,-4.4,-0.021,0.206,0.045,2018,4,24,22,43,56.959
0,0.7748,-0.5095,-0.3676,-0.0695,-4.3,-6.2,2.1,-0.023,0.188,0.066,2018,4,24,22,43,56.977
0,0.7734,-0.5125,-0.3678,-0.0614,3.9,-7.1,10.4,-0.037,0.117,0.05,2018,4,24,22,43,57
0,0.7733,-0.5141,-0.3672,-0.0515,22.1,-8,19.4,-0.064,0.162,0.032,2018,4,24,22,43,57.034
0,0.7747,-0.5138,-0.3662,-0.0385,37.1,-8.5,30.4,-0.081,0.197,-0.006,2018,4,24,22,43,57.057
0,0.7772,-0.5125,-0.3641,-0.0235,47.8,-7.6,42.7,-0.083,0.233,-0.034,2018,4,24,22,43,57.061
0,0.7802,-0.5107,-0.3608,-0.0067,54.3,-6.5,56.3,-0.09,0.27,-0.035,2018,4,24,22,43,57.098
0,0.7835,-0.5091,-0.3558,0.0121,57,-5.8,70,-0.123,0.277,-0.034,2018,4,24,22,43,57.121
0,0.7864,-0.5081,-0.3495,0.0325,51.9,-5.9,83.5,-0.147,0.302,-0.056,2018,4,24,22,43,57.126
0,0.7875,-0.5095,-0.3423,0.0537,28.8,-6.6,96.9,-0.17,0.349,-0.097,2018,4,24,22,43,57.141
0,0.7851,-0.516,-0.3341,0.0745,-9.6,-7.9,110.7,-0.206,0.352,-0.156,2018,4,24,22,43,57.164
0,0.7789,-0.5276,-0.3252,0.095,-32.7,-9.8,126.3,-0.26,0.305,-0.149,2018,4,24,22,43,57.181
0,0.7722,-0.5388,-0.3155,0.1165,-24.2,-12.9,141.6,-0.284,0.202,-0.115,2018,4,24,22,43,57.217
0,0.7665,-0.5475,-0.3051,0.1394,-17.7,-15.7,150.4,-0.223,0.176,-0.11,2018,4,24,22,43,57.24
0,0.76,-0.5559,-0.2951,0.1616,-40.7,-17.5,158.2,-0.183,0.254,-0.115,2018,4,24,22,43,57.244
0,0.7495,-0.5684,-0.2849,0.1839,-53.7,-19.6,163.3,-0.196,0.086,0.009,2018,4,24,22,43,57.261
0,0.738,-0.5813,-0.2734,0.2063,-29.4,-20.1,164.6,-0.115,-0.103,0.037,2018,4,24,22,43,57.283
0,0.7308,-0.5878,-0.2599,0.2295,12.9,-18.3,161.9,-0.032,-0.166,0.043,2018,4,24,22,43,57.301
0,0.7264,-0.59,-0.2476,0.2506,-15.3,-18.7,153.3,0.008,0.067,0.058,2018,4,24,22,43,57.324
0,0.7166,-0.5983,-0.2381,0.2677,-79.5,-22.3,148.4,0.013,0.016,0.121,2018,4,24,22,43,57.342
0,0.7024,-0.6109,-0.2307,0.2829,-82.4,-25.3,145.7,0.037,-0.142,0.074,2018,4,24,22,43,57.366
0,0.6915,-0.6196,-0.2209,0.2984,-9.4,-22.4,144,0.065,-0.311,0.035,2018,4,24,22,43,57.378
0,0.6869,-0.6209,-0.2081,0.315,22.7,-19,133.8,0.056,-0.204,-0.02,2018,4,24,22,43,57.417
0,0.6815,-0.6232,-0.1961,0.3295,-27,-16.8,129.1,0.005,0.037,0.066,2018,4,24,22,43,57.44
0,0.6703,-0.6309,-0.1874,0.3426,-68.1,-19.8,125.9,-0.032,-0.039,0.088,2018,4,24,22,43,57.444
0,0.6575,-0.64,-0.1792,0.3546,-35.7,-17.4,120.7,-0.054,-0.292,-0.049,2018,4,24,22,43,57.46
0,0.6495,-0.6444,-0.1655,0.3678,36.2,-9.8,110.4,-0.052,-0.408,-0.094,2018,4,24,22,43,57.483
1023,0.6494,-0.6415,-0.1492,0.3799,70.9,-3.4,99.4,-0.047,-0.182,-0.034,2018,4,24,22,43,57.52
1023,0.6517,-0.6363,-0.1343,0.3901,53.4,-0.4,91.4,-0.059,0.025,0.004,2018,4,24,22,43,57.543
1023,0.6515,-0.6335,-0.1218,0.399,26.3,-0.7,88.2,-0.046,0.076,-0.029,2018,4,24,22,43,57.548
1023,0.6492,-0.6326,-0.1106,0.4073,22.7,1.7,90.4,-0.022,0.108,-0.105,2018,4,24,22,43,57.564
1023,0.6469,-0.6314,-0.0983,0.4158,27,3.3,97.1,-0.024,0.241,-0.138,2018,4,24,22,43,57.587
1023,0.6414,-0.6326,-0.085,0.4254,-23.7,3.9,105.4,-0.317,0.475,0.121,2018,4,24,22,43,57.605
1023,0.6229,-0.6471,-0.0892,0.4301,-137.9,-37.9,9,0.262,-3.117,0.466,2018,4,24,22,43,57.623
1023,0.6226,-0.6452,-0.0897,0.4335,56,-33.5,9.9,-0.032,0.439,-0.232,2018,4,24,22,43,57.641
1023,0.6182,-0.6466,-0.0951,0.4366,-90.9,-41.2,2.6,-0.005,0.117,-0.101,2018,4,24,22,43,57.665
1023,0.6065,-0.6552,-0.1077,0.4371,-111.4,-37,1.3,-0.018,-0.198,0.058,2018,4,24,22,43,57.682
1023,0.5973,-0.6622,-0.1186,0.4364,-57.8,-29.9,-5.5,0.025,-0.238,-0.023,2018,4,24,22,43,57.705
1023,0.5948,-0.6644,-0.1249,0.4346,-6,-16.2,-9.8,0.007,-0.089,-0.112,2018,4,24,22,43,57.724
1023,0.5975,-0.6635,-0.1265,0.4319,20.1,-5.2,-11.2,-0.028,0.021,-0.063,2018,4,24,22,43,57.742
0,0.6022,-0.6612,-0.1259,0.4292,28.3,-0.8,-6.7,-0.007,0.067,-0.018,2018,4,24,22,43,57.765
0,0.6078,-0.658,-0.1235,0.4268,39.9,3.4,-1.9,0.006,0.054,-0.006,2018,4,24,22,43,57.783
0,0.6145,-0.6539,-0.1197,0.4245,46,7.1,-0.8,0.016,0.017,0.033,2018,4,24,22,43,57.807
0,0.6217,-0.6494,-0.1158,0.4221,44.5,7.6,-2,0.033,-0.041,0.067,2018,4,24,22,43,57.842
0,0.6281,-0.6454,-0.1129,0.4195,30.1,5.4,-3.5,0.044,-0.018,0.064,2018,4,24,22,43,57.866
0,0.6329,-0.6429,-0.1114,0.4166,15.2,2.8,-4,0.045,0.014,0.042,2018,4,24,22,43,57.87
0,0.636,-0.6417,-0.1112,0.4138,5.1,1.2,-2.7,0.051,0.039,0.004,2018,4,24,22,43,57.884
0,0.6382,-0.6413,-0.1113,0.4109,2,1.5,-0.1,0.047,0.032,-0.017,2018,4,24,22,43,57.902
0,0.6402,-0.6412,-0.1109,0.4081,7.5,3.1,2.7,0.072,0.012,-0.029,2018,4,24,22,43,57.925
0,0.6427,-0.6405,-0.1097,0.4055,14.8,4.9,5.6,0.071,-0.033,-0.046,2018,4,24,22,43,57.943
0,0.6462,-0.639,-0.1073,0.4031,28.4,8.9,8.7,0.078,-0.041,-0.061,2018,4,24,22,43,57.964
0,0.6496,-0.6375,-0.101,0.4015,43.8,17.1,12.1,0.138,-0.103,-0.077,2018,4,24,22,43,58.003
0,0.6547,-0.6347,-0.0912,0.3999,66.4,28.8,12.7,0.132,-0.092,-0.02,2018,4,24,22,43,58.025
0,0.6637,-0.6288,-0.0823,0.3964,63,32.2,9.4,0.128,0.059,-0.005,2018,4,24,22,43,58.03
0,0.6712,-0.6243,-0.0752,0.3922,43.6,31.3,5.2,0.034,0,-0.02,2018,4,24,22,43,58.045
0,0.6775,-0.6213,-0.0694,0.3873,32,31.1,-1.1,0.102,0.092,-0.046,2018,4,24,22,43,58.068
0,0.6817,-0.6205,-0.0648,0.382,4.1,30.8,-11.4,0.252,0.163,-0.05,2018,4,24,22,43,58.086
0,0.6823,-0.6233,-0.0625,0.3765,-18.9,25,-8,-0.051,0.031,0.054,2018,4,24,22,43,58.109
0,0.6812,-0.6276,-0.0636,0.3714,-60.8,17.3,-13.4,-0.034,0.092,0.04,2018,4,24,22,43,58.127
0,0.6743,-0.6376,-0.069,0.3658,-110.8,13.4,-18.1,-0.11,0.024,-0.004,2018,4,24,22,43,58.144
0,0.6628,-0.6523,-0.0781,0.3591,-144.8,10.2,-26.4,-0.062,-0.091,0.035,2018,4,24,22,43,58.167
0,0.6484,-0.6696,-0.0903,0.3505,-162.3,7.3,-35.3,-0.038,-0.147,0.022,2018,4,24,22,43,58.186
0,0.6333,-0.687,-0.1039,0.3405,-148.5,7.5,-44.3,-0.015,-0.334,-0.027,2018,4,24,22,43,58.21
0,0.622,-0.7008,-0.1164,0.3291,-105.5,12.9,-54.8,-0.011,-0.433,-0.024,2018,4,24,22,43,58.227
0,0.6164,-0.7097,-0.1266,0.3164,-70.4,17.8,-64.7,-0.008,-0.33,0.049,2018,4,24,22,43,58.249
0,0.6134,-0.7165,-0.1365,0.3027,-71,18.9,-76.2,-0.012,-0.259,0.046,2018,4,24,22,43,58.267
0,0.6104,-0.723,-0.148,0.2875,-69.3,20.7,-88.3,-0.032,-0.302,0.049,2018,4,24,22,43,58.29
0,0.6091,-0.728,-0.1597,0.2709,-51,25.8,-99.7,-0.032,-0.379,0.044,2018,4,24,22,43,58.307
1023,0.6107,-0.7305,-0.1711,0.2529,-33.2,30.1,-110.9,-0.038,-0.291,0.041,2018,4,24,22,43,58.323
1023,0.6139,-0.7314,-0.1829,0.2337,-32.4,33.6,-120.2,-0.046,-0.204,0.027,2018,4,24,22,43,58.35
1023,0.6168,-0.7322,-0.1949,0.2128,-30.9,38.9,-126.4,-0.043,-0.192,0.003,2018,4,24,22,43,58.367
1023,0.6209,-0.7317,-0.2062,0.1908,-14.8,43.9,-130,-0.045,-0.191,0.018,2018,4,24,22,43,58.386
1023,0.6273,-0.7287,-0.2166,0.1685,4.3,47,-133.1,-0.068,-0.136,0.012,2018,4,24,22,43,58.409
1023,0.6352,-0.7237,-0.2265,0.1461,14.1,50.5,-134.8,-0.073,-0.045,-0.023,2018,4,24,22,43,58.429
1023,0.6435,-0.7177,-0.2356,0.1229,13.4,53.7,-133.1,-0.056,0.004,-0.035,2018,4,24,22,43,58.465
1023,0.6516,-0.7111,-0.2443,0.0997,16.4,57.1,-128.9,-0.067,0.059,0.011,2018,4,24,22,43,58.488
1023,0.6603,-0.7032,-0.2518,0.0772,27.3,58.2,-125.3,-0.097,0.01,-0.067,2018,4,24,22,43,58.493
1023,0.6702,-0.693,-0.2592,0.0562,42.6,59.4,-122.2,-0.099,0.086,-0.042,2018,4,24,22,43,58.512
1023,0.6814,-0.6808,-0.266,0.0357,44.9,57.9,-118.3,-0.094,0.156,-0.015,2018,4,24,22,43,58.531
1023,0.6914,-0.6685,-0.2732,0.0163,37.6,55.2,-114.8,-0.103,0.139,-0.048,2018,4,24,22,43,58.549
0,0.6996,-0.657,-0.2805,-0.002,32.9,53.1,-110.2,-0.113,0.165,-0.027,2018,4,24,22,43,58.572
0,0.7072,-0.6454,-0.2878,-0.0188,35.7,50.9,-104.8,-0.099,0.14,-0.02,2018,4,24,22,43,58.59
0,0.7149,-0.6331,-0.2945,-0.0341,44.5,48.4,-101.1,-0.119,0.152,-0.001,2018,4,24,22,43,58.613
0,0.7219,-0.6209,-0.3016,-0.0475,35.4,43.8,-98.4,-0.12,0.192,-0.028,2018,4,24,22,43,58.631
0,0.7263,-0.6111,-0.3088,-0.06,18.4,39.3,-93.4,-0.097,0.237,-0.009,2018,4,24,22,43,58.649
0,0.7274,-0.6054,-0.3151,-0.07,14.3,36.4,-86.3,-0.074,0.209,0.02,2018,4,24,22,43,58.687
0,0.73,-0.5981,-0.3212,-0.0784,28.4,33.1,-78.3,-0.089,0.151,-0.001,2018,4,24,22,43,58.711
0,0.7348,-0.5881,-0.3267,-0.0854,45.7,29.7,-71.7,-0.101,0.149,-0.033,2018,4,24,22,43,58.715
0,0.7406,-0.5769,-0.3321,-0.0902,53.2,25.6,-64.5,-0.102,0.233,0,2018,4,24,22,43,58.733
0,0.7443,-0.5693,-0.3367,-0.0919,35.4,20.2,-55.6,-0.089,0.309,0.053,2018,4,24,22,43,58.751
0,0.7456,-0.5651,-0.3406,-0.0928,14.4,15.4,-47,-0.09,0.203,0.016,2018,4,24,22,43,58.789
0,0.7474,-0.5604,-0.3439,-0.0937,15.4,13.4,-38.8,-0.075,0.096,-0.024,2018,4,24,22,43,58.813
0,0.7506,-0.5547,-0.3466,-0.0928,34.5,13.2,-34.2,-0.08,0.036,-0.041,2018,4,24,22,43,58.817
0,0.7547,-0.5477,-0.3493,-0.0906,34.9,9.6,-32.5,-0.079,0.175,0.036,2018,4,24,22,43,58.832
0,0.7556,-0.5454,-0.3518,-0.0875,5.1,4.9,-28.8,-0.051,0.233,0.059,2018,4,24,22,43,58.849
0,0.7543,-0.5461,-0.3542,-0.0851,-7.5,2.6,-22.5,-0.032,0.126,0.005,2018,4,24,22,43,58.872
0,0.7546,-0.5446,-0.3562,-0.0836,4.2,2.5,-16.1,-0.027,0.078,-0.029,2018,4,24,22,43,58.89
0,0.7559,-0.5419,-0.3582,-0.0807,7.9,1.6,-11.5,-0.033,0.161,-0.003,2018,4,24,22,43,58.913
0,0.7547,-0.5436,-0.3592,-0.0754,-9.1,-0.1,-6.9,-0.01,0.196,0.027,2018,4,24,22,43,58.931
0,0.7531,-0.546,-0.3597,-0.0716,-16.6,-0.1,-2.2,0,0.065,-0.016,2018,4,24,22,43,58.954
0,0.7526,-0.5471,-0.3599,-0.068,-2.9,1.7,0.3,-0.013,-0.008,-0.033,2018,4,24,22,43,58.972
0,0.7536,-0.5459,-0.3604,-0.0634,5.5,1.4,0.4,-0.027,0.062,0.012,2018,4,24,22,43,58.995
0,0.7547,-0.5443,-0.3611,-0.0593,-0.4,-1.3,0.6,-0.03,0.113,0.027,2018,4,24,22,43,59.013
0,0.7552,-0.5436,-0.3619,-0.0545,0.3,-4,4,-0.03,0.133,0.029,2018,4,24,22,43,59.036
0,0.7562,-0.5424,-0.3625,-0.0488,9.7,-6.3,10.1,-0.043,0.135,0.021,2018,4,24,22,43,59.051
0,0.7561,-0.5433,-0.3625,-0.0391,19.1,-8.6,18.3,-0.065,0.167,0.022,2018,4,24,22,43,59.069
0,0.7565,-0.544,-0.3617,-0.0281,25.3,-10.3,27.9,-0.072,0.196,-0.004,2018,4,24,22,43,59.092
0,0.7572,-0.5446,-0.36,-0.0155,29,-10.3,38.3,-0.068,0.208,-0.031,2018,4,24,22,43,59.11
0,0.7585,-0.5448,-0.3573,-0.0012,40,-8.1,50.1,-0.067,0.218,-0.002,2018,4,24,22,43,59.134
1023,0.7616,-0.5431,-0.353,0.0153,67.8,-5.4,63.5,-0.074,0.208,0.006,2018,4,24,22,43,59.152
1023,0.7675,-0.5376,-0.3471,0.0349,97.5,-2.4,75.6,-0.102,0.236,-0.001,2018,4,24,22,43,59.175
1023,0.7746,-0.5304,-0.3394,0.0569,96.2,-0.5,87.1,-0.115,0.328,-0.04,2018,4,24,22,43,59.193
1023,0.7794,-0.5262,-0.3305,0.079,66.2,0.5,100.4,-0.113,0.372,-0.027,2018,4,24,22,43,59.216
1023,0.7813,-0.526,-0.3202,0.101,49.6,1.4,115.8,-0.123,0.308,0.006,2018,4,24,22,43,59.234
1023,0.7821,-0.5266,-0.3086,0.1246,56.2,0.7,128,-0.143,0.195,0.021,2018,4,24,22,43,59.257
1023,0.7818,-0.5278,-0.2964,0.1488,31,-2.9,132.9,-0.142,0.227,-0.051,2018,4,24,22,43,59.275
1023,0.7759,-0.5357,-0.2855,0.1712,-37.6,-6.8,141.2,-0.137,0.312,-0.053,2018,4,24,22,43,59.299
1023,0.7632,-0.5518,-0.2762,0.1914,-81,-13.6,148.7,-0.146,0.168,0.026,2018,4,24,22,43,59.314
1023,0.7488,-0.5681,-0.2674,0.2119,-62.5,-22.2,152.1,-0.162,-0.094,0.068,2018,4,24,22,43,59.331
1023,0.7358,-0.5809,-0.2586,0.2324,-54.8,-31.5,147.5,-0.113,-0.064,-0.005,2018,4,24,22,43,59.354
1023,0.7235,-0.5915,-0.2523,0.2508,-75.7,-35.9,145.4,-0.056,0.012,-0.014,2018,4,24,22,43,59.39
1023,0.7104,-0.6021,-0.2463,0.2683,-56.2,-37.2,144.9,-0.028,-0.067,0.035,2018,4,24,22,43,59.413
0,0.7018,-0.6074,-0.237,0.2867,1.4,-37.6,141.9,-0.04,-0.223,0.026,2018,4,24,22,43,59.417
0,0.6964,-0.6086,-0.2265,0.3052,3,-36.7,133.5,-0.058,-0.08,-0.037,2018,4,24,22,43,59.434
0,0.6876,-0.6138,-0.2179,0.3206,-53.2,-34.7,127.4,-0.041,0.021,-0.024,2018,4,24,22,43,59.458
0,0.6742,-0.6238,-0.2121,0.3335,-69.1,-31.2,123.7,-0.015,-0.097,0.019,2018,4,24,22,43,59.476
0,0.6637,-0.6306,-0.204,0.3465,-2.6,-26.1,121.8,0.01,-0.259,0.022,2018,4,24,22,43,59.499
0,0.6603,-0.6301,-0.1916,0.3608,52.5,-19.1,115.9,0.02,-0.222,-0.113,2018,4,24,22,43,59.519
0,0.6594,-0.6276,-0.1777,0.3735,40.4,-6.9,111.4,-0.001,-0.013,-0.146,2018,4,24,22,43,59.537
0,0.6566,-0.6278,-0.1644,0.3841,20.3,-0.3,106.6,-0.024,-0.036,-0.017,2018,4,24,22,43,59.56
0,0.6538,-0.6278,-0.1511,0.3942,29.8,0.6,103.5,-0.012,-0.089,0.018,2018,4,24,22,43,59.575
0,0.6529,-0.6259,-0.1369,0.4039,55.9,3.4,99.2,-0.039,-0.185,-0.051,2018,4,24,22,43,59.613
0,0.6529,-0.6229,-0.1226,0.4129,41,6,91.7,-0.054,-0.036,-0.107,2018,4,24,22,43,59.634
0,0.6496,-0.6236,-0.111,0.4203,-8.9,7.1,83.5,-0.081,0.029,-0.034,2018,4,24,22,43,59.636
0,0.642,-0.6288,-0.1036,0.4262,-45.1,3.9,76,-0.073,0.006,-0.013,2018,4,24,22,43,59.673
0,0.6321,-0.6362,-0.0989,0.431,-52.7,2.2,73.2,-0.038,0.001,-0.074,2018,4,24,22,43,59.697
0,0.6218,-0.6436,-0.0938,0.4362,-55.2,-2.1,64.9,-0.112,-0.274,0.217,2018,4,24,22,43,59.701
0,0.6117,-0.6514,-0.0974,0.4379,-47.6,-24.2,3.9,0.235,-1.954,0.339,2018,4,24,22,43,59.72
0,0.6147,-0.6478,-0.0964,0.4394,57.6,-25.7,-3.5,0.034,0.058,-0.141,2018,4,24,22,43,59.756
0,0.6173,-0.6445,-0.0999,0.4399,-32.5,-29.2,-10.8,0.014,0.224,0.004,2018,4,24,22,43,59.756
0,0.6107,-0.6499,-0.1078,0.4393,-92.1,-24,-10.4,0.024,0.202,0.067,2018,4,24,22,43,59.779
0,0.6025,-0.6572,-0.1177,0.4371,-67.9,-19.3,-6.9,-0.034,-0.164,0.037,2018,4,24,22,43,59.797
0,0.6,-0.6601,-0.1232,0.4347,-13.7,-11.7,-8.7,0.04,-0.083,-0.009,2018,4,24,22,43,59.814
0,0.6022,-0.6592,-0.1253,0.4324,15.1,-6,-8.3,0.022,0.013,-0.01,2018,4,24,22,43,59.837
0,0.6058,-0.6572,-0.1252,0.4303,14.1,-4.4,-3.7,0.018,0.134,0.016,2018,4,24,22,43,59.875
0,0.6084,-0.656,-0.1248,0.4287,2,-1.9,2.8,0.031,0.124,0.045,2018,4,24,22,43,59.898
0,0.6098,-0.656,-0.1243,0.4269,-0.3,0,5.1,0.051,0.014,0.069,2018,4,24,22,43,59.903
0,0.6112,-0.6561,-0.1238,0.4249,-0.4,0.1,4,0.053,-0.04,0.057,2018,4,24,22,43,59.919
0,0.6121,-0.6567,-0.1242,0.4225,-9.5,-1.8,0.3,0.049,-0.067,0.023,2018,4,24,22,43,59.942
0,0.6118,-0.6584,-0.126,0.4198,-17.8,-3.8,-1.9,0.042,-0.034,-0.003,2018,4,24,22,43,59.96
0,0.6109,-0.6606,-0.1282,0.4169,-19,-3.8,-1.9,0.047,-0.012,-0.025,2018,4,24,22,43,59.979
0,0.6105,-0.6625,-0.1299,0.4139,-8.1,-0.9,-0.5,0.051,0,-0.049,2018,4,24,22,43,59.996
1023,0.6118,-0.6631,-0.1299,0.4111,8.2,2.2,1,0.046,0.004,-0.042,2018,4,24,22,44,0.019
1023,0.6148,-0.6622,-0.1284,0.4085,21.7,4.8,2.3,0.052,0.005,-0.02,2018,4,24,22,44,0.037
1023,0.6191,-0.6602,-0.1257,0.4061,29.1,6,3.5,0.053,-0.009,-0.007,2018,4,24,22,44,0.059
1023,0.624,-0.6577,-0.1224,0.4037,33.5,7,4.1,0.052,-0.025,0,2018,4,24,22,44,0.097
1023,0.6293,-0.6547,-0.1187,0.4014,35.1,8.5,3.8,0.044,-0.006,0.019,2018,4,24,22,44,0.117
1023,0.6346,-0.6516,-0.115,0.3991,32.4,9.6,3.5,0.031,0.002,0.017,2018,4,24,22,44,0.12
1023,0.6397,-0.6488,-0.1111,0.3966,30.5,10.5,3.4,0.032,0,0.015,2018,4,24,22,44,0.157
1023,0.6446,-0.6461,-0.1074,0.3941,30.6,11.1,3.5,0.028,0.008,0.023,2018,4,24,22,44,0.179
1023,0.6495,-0.6433,-0.1036,0.3916,28.7,11.7,4.1,0.02,0.012,0.005,2018,4,24,22,44,0.184
1023,0.6541,-0.6407,-0.0998,0.3892,27,12.8,4.1,0.018,0.013,0.014,2018,4,24,22,44,0.217
1023,0.6583,-0.6385,-0.0964,0.3866,18.4,13.4,3.5,0.033,0.01,0.032,2018,4,24,22,44,0.241
1023,0.6615,-0.6374,-0.0937,0.3837,10.1,13,1.6,0.012,-0.045,0.044,2018,4,24,22,44,0.245
1023,0.6641,-0.637,-0.0918,0.3804,-0.4,12.8,-2.7,0.022,-0.014,0.028,2018,4,24,22,44,0.281
0,0.6651,-0.6383,-0.0915,0.3764,-21.7,11.2,-9.2,0.011,0.066,0.007,2018,4,24,22,44,0.281
0,0.6613,-0.6446,-0.0952,0.3714,-92.8,7.7,-16.1,-0.025,0.108,0.013,2018,4,24,22,44,0.304
0,0.6505,-0.6578,-0.1042,0.3649,-138.7,4.5,-21.7,-0.024,-0.078,0.026,2018,4,24,22,44,0.322
0,0.6377,-0.6728,-0.1149,0.3567,-121.4,3.4,-30.4,-0.013,-0.323,-0.005,2018,4,24,22,44,0.341
0,0.6293,-0.6838,-0.1245,0.3475,-71.5,6.4,-42.8,-0.003,-0.393,-0.079,2018,4,24,22,44,0.364
0,0.6274,-0.6893,-0.132,0.337,-27.3,11.8,-55.7,0.018,-0.32,-0.038,2018,4,24,22,44,0.383
0,0.6302,-0.6909,-0.1387,0.3258,-13.4,13.6,-67.4,0,-0.266,0.019,2018,4,24,22,44,0.42
0,0.6331,-0.6924,-0.1466,0.3132,-32,13.4,-80,-0.024,-0.194,0.033,2018,4,24,22,44,0.443
0,0.6333,-0.6962,-0.1574,0.2988,-63.7,14.4,-90.1,0.003,-0.167,0.029,2018,4,24,22,44,0.448
0,0.631,-0.7022,-0.1702,0.282,-76.5,19.1,-98.6,0.031,-0.232,0.012,2018,4,24,22,44,0.464
0,0.6294,-0.7078,-0.1827,0.2632,-53.5,25.3,-106.6,0.018,-0.326,0,2018,4,24,22,44,0.482
0,0.6309,-0.7104,-0.1942,0.2437,-32.2,30.4,-116.7,-0.013,-0.251,-0.015,2018,4,24,22,44,0.5
0,0.634,-0.7113,-0.2054,0.2227,-31.5,34.8,-125,-0.034,-0.137,0.002,2018,4,24,22,44,0.523
0,0.6374,-0.7116,-0.2168,0.2004,-29.1,38.5,-129.2,-0.009,-0.126,0.024,2018,4,24,22,44,0.542
0,0.6418,-0.7104,-0.2276,0.1773,-13,41.6,-133.4,-0.015,-0.168,0.006,2018,4,24,22,44,0.561
0,0.6478,-0.7071,-0.2378,0.1541,2.1,45.3,-136.5,-0.037,-0.09,-0.013,2018,4,24,22,44,0.583
0,0.655,-0.702,-0.2472,0.1301,2.6,47.2,-136.7,-0.038,0.018,0.014,2018,4,24,22,44,0.62
0,0.6622,-0.6959,-0.2566,0.1062,4.5,47.5,-135.8,-0.05,0.017,0.035,2018,4,24,22,44,0.641
0,0.6691,-0.689,-0.2655,0.0829,9.3,48.1,-134.3,-0.092,0.022,0.012,2018,4,24,22,44,0.644
0,0.6759,-0.6812,-0.2744,0.0601,9.2,48.9,-132.7,-0.095,0.07,-0.018,2018,4,24,22,44,0.678
0,0.6823,-0.6726,-0.2836,0.0379,8.1,49.4,-128.9,-0.086,0.123,0.014,2018,4,24,22,44,0.7
0,0.6888,-0.6632,-0.292,0.0161,9.6,47.7,-123.3,-0.099,0.103,0.005,2018,4,24,22,44,0.702
0,0.6944,-0.654,-0.2997,-0.0044,14.9,49.5,-118.5,-0.115,0.082,-0.044,2018,4,24,22,44,0.738
0,0.7006,-0.6434,-0.3076,-0.0221,30.6,50.6,-113.1,-0.13,0.114,-0.002,2018,4,24,22,44,0.762
0,0.7061,-0.6327,-0.3155,-0.0372,22.1,45.8,-107,-0.131,0.28,0.066,2018,4,24,22,44,0.764
0,0.7078,-0.6261,-0.3227,-0.0517,-6,43.1,-97.2,-0.097,0.172,-0.004,2018,4,24,22,44,0.783
1023,0.7095,-0.62,-0.3282,-0.0662,6.6,46.5,-86.6,-0.105,0.092,-0.002,2018,4,24,22,44,0.804
1023,0.7141,-0.611,-0.3325,-0.0773,36.2,46.3,-76.8,-0.129,0.153,0.005,2018,4,24,22,44,0.842
1023,0.7192,-0.6019,-0.3363,-0.0848,37.8,42.4,-69.6,-0.122,0.271,0.009,2018,4,24,22,44,0.863
1023,0.722,-0.5961,-0.3391,-0.0909,16.5,38.6,-61.9,-0.107,0.215,0.006,2018,4,24,22,44,0.868
1023,0.7252,-0.59,-0.3413,-0.0969,17.3,36.2,-52.7,-0.093,0.136,-0.004,2018,4,24,22,44,0.884
1023,0.7293,-0.5832,-0.343,-0.1011,30.7,34.7,-46.6,-0.097,0.112,-0.021,2018,4,24,22,44,0.907
1023,0.7349,-0.5749,-0.3442,-0.1036,42.1,31.5,-41.8,-0.095,0.158,0.018,2018,4,24,22,44,0.944
1023,0.7396,-0.568,-0.3456,-0.1037,35,27,-37.5,-0.086,0.152,-0.009,2018,4,24,22,44,0.964
1023,0.744,-0.5612,-0.347,-0.1048,23,23.9,-33.5,-0.071,0.111,-0.03,2018,4,24,22,44,0.969
1023,0.7477,-0.5555,-0.3483,-0.1046,26.7,21.5,-31.4,-0.069,0.07,0.015,2018,4,24,22,44,0.985
1023,0.7526,-0.5482,-0.3496,-0.1033,44.6,17.5,-30.3,-0.076,0.051,0.039,2018,4,24,22,44,1.003
1023,0.7586,-0.539,-0.3517,-0.1006,48.5,12.8,-30.6,-0.075,0.108,0.047,2018,4,24,22,44,1.026
0,0.7627,-0.532,-0.3544,-0.0974,25.6,6.2,-30.3,-0.071,0.167,0.046,2018,4,24,22,44,1.045
0,0.7622,-0.5316,-0.357,-0.0941,-8.2,-0.4,-28.4,-0.046,0.139,0.036,2018,4,24,22,44,1.067
0,0.761,-0.5313,-0.3603,-0.0926,-13.2,-5.4,-25,-0.04,0.099,0.01,2018,4,24,22,44,1.103
0,0.7608,-0.5296,-0.3638,-0.0904,7.6,-7.9,-20.8,-0.037,0.099,0.021,2018,4,24,22,44,1.131
0,0.7627,-0.5248,-0.3677,-0.086,30.6,-10.4,-14.3,-0.026,0.137,0.009,2018,4,24,22,44,1.132
0,0.7649,-0.5209,-0.3709,-0.0768,46.1,-12.3,-3.9,-0.044,0.227,0.002,2018,4,24,22,44,1.147
0,0.7674,-0.5172,-0.373,-0.0654,47.6,-14.2,9.7,-0.045,0.261,0.015,2018,4,24,22,44,1.181
0,0.7701,-0.514,-0.374,-0.0518,50.8,-15.5,22.9,-0.057,0.231,-0.007,2018,4,24,22,44,1.204
0,0.7731,-0.511,-0.3737,-0.0361,55.3,-15.7,35,-0.059,0.203,-0.049,2018,4,24,22,44,1.206
0,0.7759,-0.5088,-0.3721,-0.0191,47.4,-15.6,47.2,-0.048,0.26,-0.066,2018,4,24,22,44,1.24
0,0.7773,-0.5092,-0.3692,-0.0022,29.9,-15.6,58.4,-0.056,0.249,-0.015,2018,4,24,22,44,1.261
0,0.7769,-0.5123,-0.3655,0.0148,17.1,-16.6,66.9,-0.08,0.196,0.021,2018,4,24,22,44,1.265
0,0.7761,-0.5157,-0.3613,0.0324,22.5,-18.2,74,-0.097,0.145,-0.005,2018,4,24,22,44,1.3
0,0.7778,-0.5143,-0.3575,0.0499,39.2,-19,80.7,-0.108,0.136,-0.072,2018,4,24,22,44,1.321
0,0.7786,-0.514,-0.3529,0.0697,34,-18.7,88.2,-0.074,0.257,-0.103,2018,4,24,22,44,1.327
0,0.7766,-0.5179,-0.347,0.0899,9.7,-16.2,95.8,-0.07,0.241,-0.049,2018,4,24,22,44,1.363
0,0.7733,-0.5234,-0.3406,0.1087,2.9,-15.2,103.8,-0.082,0.14,0,2018,4,24,22,44,1.384
0,0.7716,-0.5259,-0.3341,0.1275,13.2,-15.2,109.3,-0.085,0.069,-0.022,2018,4,24,22,44,1.39
0,0.7699,-0.5275,-0.3277,0.1464,11.5,-13.8,113.2,-0.047,0.174,-0.074,2018,4,24,22,44,1.406
0,0.7654,-0.5331,-0.3201,0.1653,-10.1,-11.9,117.2,-0.039,0.207,-0.03,2018,4,24,22,44,1.426
0,0.76,-0.5396,-0.3124,0.1828,-15.9,-10.2,124,-0.069,0.068,0.008,2018,4,24,22,44,1.463
0,0.7563,-0.5436,-0.3033,0.2008,14.7,-7.6,127.9,-0.067,-0.065,0.018,2018,4,24,22,44,1.484
0,0.7555,-0.5433,-0.2921,0.2204,47.8,-5.1,129,-0.087,-0.038,-0.031,2018,4,24,22,44,1.488
0,0.7561,-0.5405,-0.2803,0.2395,37.3,-3.2,128.2,-0.064,0.157,-0.042,2018,4,24,22,44,1.524
0,0.7538,-0.5415,-0.2694,0.2566,-3.5,-1.1,129.8,-0.055,0.197,0.009,2018,4,24,22,44,1.544
0,0.7485,-0.5466,-0.2585,0.272,-17.7,0.1,133.2,-0.07,0.052,0.027,2018,4,24,22,44,1.548
0,0.743,-0.5515,-0.2467,0.2877,-5,0.4,135.2,-0.074,-0.083,-0.006,2018,4,24,22,44,1.584
0,0.7362,-0.5579,-0.234,0.3031,-19.3,0.8,130.4,-0.104,0.016,-0.072,2018,4,24,22,44,1.608
1023,0.7272,-0.567,-0.2235,0.3154,-64.5,-1.2,129.1,-0.076,0.112,-0.034,2018,4,24,22,44,1.612
1023,0.7139,-0.5805,-0.2157,0.3266,-93.6,-5.3,128.7,-0.069,0.056,0.012,2018,4,24,22,44,1.63
1023,0.6998,-0.5941,-0.2075,0.3377,-58.1,-8.7,130.7,-0.054,-0.164,-0.001,2018,4,24,22,44,1.652
1023,0.6894,-0.6025,-0.1954,0.3512,-2.4,-6.8,124.2,-0.083,-0.328,-0.099,2018,4,24,22,44,1.669
1023,0.6828,-0.6068,-0.1804,0.3645,14.7,-0.6,118.5,-0.061,-0.104,-0.092,2018,4,24,22,44,1.687
1023,0.6774,-0.6098,-0.167,0.3757,-1.2,2,114,-0.069,-0.015,-0.003,2018,4,24,22,44,1.712
1023,0.671,-0.6137,-0.1544,0.386,-7,0.3,109.9,-0.07,-0.047,0.059,2018,4,24,22,44,1.728
1023,0.6643,-0.6175,-0.1427,0.396,-6.4,-3.3,103.5,-0.096,-0.132,-0.004,2018,4,24,22,44,1.749
1023,0.6568,-0.6216,-0.1328,0.4054,-21.8,-6.3,97.9,-0.092,-0.051,-0.036,2018,4,24,22,44,1.787
1023,0.6473,-0.6274,-0.1247,0.4143,-35.5,-9.1,94.4,-0.092,-0.018,-0.038,2018,4,24,22,44,1.81
1023,0.6374,-0.6332,-0.1174,0.4229,-29.5,-11.3,93.2,-0.074,0.013,-0.046,2018,4,24,22,44,1.815
1023,0.6283,-0.6374,-0.1092,0.4322,-17.9,-12.7,92.8,-0.285,0.17,0.115,2018,4,24,22,44,1.833
0,0.6136,-0.6476,-0.1107,0.4378,-131.2,-39.6,19.9,0.128,-2.42,0.516,2018,4,24,22,44,1.851
0,0.6096,-0.6489,-0.1138,0.4407,59.5,-36.2,3.5,0.052,-0.186,-0.217,2018,4,24,22,44,1.874
0,0.6098,-0.6466,-0.115,0.4435,-31.7,-37,-8.3,0.052,0.132,-0.196,2018,4,24,22,44,1.892
0,0.6045,-0.6504,-0.1234,0.4429,-62.3,-31,-3.3,-0.004,0.082,-0.011,2018,4,24,22,44,1.915
0,0.5978,-0.6556,-0.1316,0.442,-57.6,-27,-2.6,0.058,-0.149,0.021,2018,4,24,22,44,1.933
0,0.5942,-0.6588,-0.1368,0.4403,-8.5,-15.2,-8.1,0.077,-0.185,-0.101,2018,4,24,22,44,1.95
0,0.5961,-0.6587,-0.1375,0.4379,26.5,-3.9,-9.8,0.036,-0.031,-0.08,2018,4,24,22,44,1.974
0,0.601,-0.6563,-0.1364,0.435,29.7,0.4,-6.7,0.01,0.085,-0.007,2018,4,24,22,44,1.99
0,0.6057,-0.654,-0.1343,0.4327,25.4,3.7,-0.5,0.016,0.114,0.035,2018,4,24,22,44,2.013
0,0.61,-0.652,-0.1314,0.4305,22,6.4,2.8,0.025,0.067,0.072,2018,4,24,22,44,2.05
0,0.6138,-0.6504,-0.1286,0.4283,18.2,6.5,2.8,0.029,-0.005,0.08,2018,4,24,22,44,2.072
0,0.6168,-0.6497,-0.1267,0.4258,6.8,3.7,0.8,0.018,-0.028,0.043,2018,4,24,22,44,2.077
0,0.6179,-0.6504,-0.1265,0.4231,-7.6,-0.3,0.7,0.028,-0.012,-0.004,2018,4,24,22,44,2.093
0,0.6176,-0.6521,-0.1274,0.4205,-13.5,-2.5,1.6,0.03,0.003,-0.034,2018,4,24,22,44,2.113
0,0.617,-0.6541,-0.1284,0.4181,-8.5,-2.3,3.5,0.038,-0.008,-0.058,2018,4,24,22,44,2.13
0,0.6175,-0.6552,-0.1282,0.4158,4.9,-0.6,4.9,0.036,-0.017,-0.057,2018,4,24,22,44,2.168
0,0.6193,-0.6551,-0.1268,0.4135,14.9,0.1,4.4,0.025,-0.038,-0.048,2018,4,24,22,44,2.189
0,0.6221,-0.6541,-0.1249,0.4115,18.4,0.7,3.2,0.014,-0.014,-0.018,2018,4,24,22,44,2.193
0,0.625,-0.6531,-0.1229,0.4092,14.2,2.8,1.3,0.021,-0.037,0.001,2018,4,24,22,44,2.23
0,0.6277,-0.6525,-0.1216,0.4065,7.1,4.8,-2,0.031,-0.066,0.004,2018,4,24,22,44,2.253
0,0.6288,-0.6538,-0.1219,0.4027,-29,7.6,-7.9,0.064,0.12,-0.021,2018,4,24,22,44,2.258
0,0.624,-0.6609,-0.126,0.3971,-82,7.1,-10.9,0.04,0.038,0.023,2018,4,24,22,44,2.291
0,0.6138,-0.6731,-0.1342,0.3899,-132.6,8.3,-19,-0.028,0.003,-0.012,2018,4,24,22,44,2.315
0,0.5999,-0.6885,-0.1445,0.3809,-129.5,11.1,-23.5,-0.041,-0.247,-0.089,2018,4,24,22,44,2.319
0,0.5895,-0.7012,-0.1531,0.3704,-81.6,18.1,-34.7,-0.028,-0.362,-0.147,2018,4,24,22,44,2.335
0,0.5853,-0.7093,-0.1595,0.3586,-48.1,25.3,-49.5,-0.015,-0.323,-0.099,2018,4,24,22,44,2.358
0,0.585,-0.7146,-0.1659,0.3455,-39.2,28.1,-62.7,0.027,-0.253,-0.005,2018,4,24,22,44,2.375
1023,0.5853,-0.7196,-0.1737,0.3306,-47.1,30,-76.1,0.042,-0.284,-0.015,2018,4,24,22,44,2.393
1023,0.5864,-0.7239,-0.1826,0.3139,-32.5,33.9,-88.6,0.043,-0.352,-0.01,2018,4,24,22,44,2.416
1023,0.5909,-0.7255,-0.1911,0.2962,-7.7,36.5,-100.3,0.043,-0.309,0.025,2018,4,24,22,44,2.434
1023,0.5978,-0.7248,-0.2001,0.2775,-5.7,37.7,-112.2,0.035,-0.225,0.001,2018,4,24,22,44,2.457
1023,0.6042,-0.7241,-0.2102,0.2574,-17.2,38.2,-120.5,0.009,-0.209,0.034,2018,4,24,22,44,2.475
1023,0.6098,-0.7235,-0.221,0.2361,-14.2,40.7,-128,-0.02,-0.235,0.035,2018,4,24,22,44,2.513
1023,0.6169,-0.721,-0.2316,0.214,3.5,43.2,-134.9,-0.025,-0.225,0.003,2018,4,24,22,44,2.534
1023,0.6258,-0.7163,-0.2418,0.1914,12.9,45.4,-140,-0.038,-0.107,0,2018,4,24,22,44,2.539
1023,0.6343,-0.7114,-0.2517,0.1675,3.6,48.5,-143.7,-0.069,-0.063,-0.007,2018,4,24,22,44,2.575
1023,0.6424,-0.706,-0.2615,0.1427,8.9,53.1,-144.3,-0.07,-0.102,-0.01,2018,4,24,22,44,2.597
1023,0.6523,-0.6982,-0.27,0.1181,33.2,55.6,-143.9,-0.083,-0.062,0,2018,4,24,22,44,2.601
1023,0.6648,-0.6868,-0.2778,0.0944,52.1,54.9,-142.3,-0.093,0.063,0.003,2018,4,24,22,44,2.617
0,0.6775,-0.6737,-0.2859,0.0715,45.7,52.7,-139.4,-0.098,0.132,-0.019,2018,4,24,22,44,2.638
0,0.6886,-0.6608,-0.2943,0.0493,42.5,52.9,-132.3,-0.088,0.115,-0.008,2018,4,24,22,44,2.657
0,0.7,-0.6464,-0.302,0.0291,58,53.1,-124.8,-0.095,0.097,0.014,2018,4,24,22,44,2.675
0,0.7125,-0.6296,-0.3093,0.0118,75.1,51.4,-118.3,-0.129,0.111,0.005,2018,4,24,22,44,2.698
0,0.7247,-0.6118,-0.3166,-0.0026,69.7,47.5,-114.4,-0.136,0.192,-0.021,2018,4,24,22,44,2.717
0,0.7337,-0.5967,-0.3242,-0.0168,41.5,44.7,-109.7,-0.132,0.21,-0.034,2018,4,24,22,44,2.754
0,0.7395,-0.5851,-0.3312,-0.0301,27.9,43.7,-103.3,-0.124,0.157,-0.005,2018,4,24,22,44,2.777
0,0.7451,-0.5741,-0.3367,-0.0414,37.3,41.8,-96.5,-0.128,0.088,-0.024,2018,4,24,22,44,2.782
0,0.7513,-0.5621,-0.3417,-0.051,51.6,39.9,-92.5,-0.146,0.106,-0.051,2018,4,24,22,44,2.799
0,0.7579,-0.5494,-0.3465,-0.059,42.7,35.2,-89.9,-0.15,0.221,-0.027,2018,4,24,22,44,2.837
0,0.7609,-0.5414,-0.3512,-0.0655,27.8,30.3,-83.1,-0.114,0.205,-0.007,2018,4,24,22,44,2.86
0,0.764,-0.5337,-0.3554,-0.0709,30,26.4,-75.8,-0.115,0.13,-0.034,2018,4,24,22,44,2.864
0,0.7683,-0.5241,-0.3593,-0.0757,34,22.8,-68.6,-0.115,0.174,-0.049,2018,4,24,22,44,2.878
0,0.7724,-0.5149,-0.3632,-0.079,30.3,19.1,-61.9,-0.107,0.191,-0.027,2018,4,24,22,44,2.896
