ax,ay,az,dpitch,droll,dyaw,heart,time_1,time_2,time_3,time_4,time_5,time_6,w,x,y,z
0.084,-0.138,-0.199,-7,-94,11.1,0,2018,5,10,15,43,48.255,-0.0485,-0.5941,0.1602,-0.7867
0.077,-0.136,-0.191,-1.4,-83.7,12.7,0,2018,5,10,15,43,48.276,-0.0594,-0.5931,0.1711,-0.7844
0.062,-0.15,-0.169,4.2,-70.6,14.5,0,2018,5,10,15,43,48.288,-0.0693,-0.5928,0.1803,-0.7817
0.057,-0.149,-0.157,9.5,-56.1,16.1,0,2018,5,10,15,43,48.306,-0.0777,-0.5935,0.1873,-0.7788
0.051,-0.142,-0.142,15.2,-42.8,16.7,0,2018,5,10,15,43,48.327,-0.0846,-0.5951,0.1925,-0.7756
0.045,-0.147,-0.127,20.8,-31.3,16.4,0,2018,5,10,15,43,48.365,-0.0901,-0.5975,0.196,-0.7722
0.019,-0.164,-0.094,25.7,-19.4,15.2,0,2018,5,10,15,43,48.387,-0.094,-0.6008,0.1981,-0.7686
-0.018,-0.172,-0.055,29.2,-7.6,12.5,0,2018,5,10,15,43,48.391,-0.0963,-0.6048,0.1988,-0.765
-0.023,-0.151,-0.037,29.5,0.2,7.8,0,2018,5,10,15,43,48.409,-0.097,-0.609,0.1987,-0.7616
0.03,-0.125,-0.038,29.7,2.8,2,0,2018,5,10,15,43,48.426,-0.0957,-0.6132,0.1993,-0.7582
0.061,-0.117,-0.024,30.9,5.3,-4.1,0,2018,5,10,15,43,48.462,-0.0933,-0.6173,0.2003,-0.755
0.019,-0.126,0.004,31.5,10.5,-10.7,0,2018,5,10,15,43,48.484,-0.0896,-0.6211,0.2015,-0.752
-0.052,-0.108,0.03,29.4,16.7,-17.3,0,2018,5,10,15,43,48.489,-0.0844,-0.6246,0.2023,-0.7495
-0.093,-0.078,0.023,25.8,20.1,-22.5,0,2018,5,10,15,43,48.51,-0.0784,-0.6276,0.2029,-0.7475
-0.11,-0.025,0.011,22.4,19.9,-26,0,2018,5,10,15,43,48.529,-0.072,-0.6301,0.2034,-0.7458
-0.094,0.011,0.02,18,16.6,-27.2,0,2018,5,10,15,43,48.55,-0.0657,-0.6322,0.2041,-0.7445
-0.065,0.055,0.024,12.5,8.6,-26.9,0,2018,5,10,15,43,48.571,-0.0605,-0.6334,0.2051,-0.7436
-0.053,0.091,0.021,6.6,-2.3,-24.7,0,2018,5,10,15,43,48.59,-0.0569,-0.6339,0.2071,-0.7429
-0.048,0.114,0.009,0,-16.8,-21.6,0,2018,5,10,15,43,48.612,-0.0556,-0.6336,0.21,-0.7424
-0.02,0.12,-0.012,-5.7,-32.1,-18.3,0,2018,5,10,15,43,48.627,-0.0568,-0.6326,0.2145,-0.7419
0,0.138,-0.029,-9.4,-47.7,-15.3,0,2018,5,10,15,43,48.666,-0.0603,-0.6311,0.2206,-0.7411
0.008,0.127,-0.034,-10.9,-57.1,-12,1023,2018,5,10,15,43,48.687,-0.0657,-0.6293,0.228,-0.7399
-0.004,0.119,-0.039,-11.1,-59.7,-8.9,1023,2018,5,10,15,43,48.691,-0.0722,-0.6274,0.2358,-0.7385
-0.012,0.111,-0.054,-10.3,-56.5,-5.9,1023,2018,5,10,15,43,48.709,-0.0789,-0.6256,0.2433,-0.7369
0,0.117,-0.057,-7.6,-49.7,-0.7,1023,2018,5,10,15,43,48.73,-0.0855,-0.6243,0.2497,-0.7352
-0.015,0.104,-0.043,-4,-37.5,5.1,1023,2018,5,10,15,43,48.768,-0.0915,-0.6237,0.2542,-0.7333
-0.022,0.093,-0.033,-0.7,-23.5,11.9,1023,2018,5,10,15,43,48.788,-0.0967,-0.6239,0.2565,-0.7317
-0.02,0.056,-0.026,3.1,-6,19.6,1023,2018,5,10,15,43,48.792,-0.1008,-0.625,0.2561,-0.7303
-0.021,0.006,-0.013,7.8,15,27.5,1023,2018,5,10,15,43,48.812,-0.1034,-0.6272,0.2528,-0.7293
-0.063,-0.022,-0.013,12.7,38,35.5,1023,2018,5,10,15,43,48.831,-0.1041,-0.6306,0.246,-0.7286
-0.112,-0.047,-0.006,18.3,59.5,43.5,1023,2018,5,10,15,43,48.853,-0.1029,-0.6353,0.2357,-0.7281
-0.145,-0.113,0.009,24.4,83,51.7,1023,2018,5,10,15,43,48.87,-0.1,-0.6412,0.222,-0.7276
-0.061,-0.169,0.061,29.8,111.8,58.6,1023,2018,5,10,15,43,48.911,-0.0944,-0.6481,0.2044,-0.7274
0.175,-0.181,0.1,34.4,139.2,59,1023,2018,5,10,15,43,48.931,-0.0864,-0.6562,0.182,-0.7271
0.307,-0.16,0.106,39.5,156.8,52.3,1023,2018,5,10,15,43,48.936,-0.075,-0.6647,0.1572,-0.7265
0.29,-0.124,0.073,45,159.9,44.9,1023,2018,5,10,15,43,48.951,-0.0612,-0.6731,0.1318,-0.725
0.128,-0.171,0.113,51,160.6,40.2,0,2018,5,10,15,43,48.986,-0.0463,-0.6816,0.1072,-0.7222
-0.095,-0.236,0.234,50.2,167.9,38.6,0,2018,5,10,15,43,49.006,-0.0307,-0.6898,0.0822,-0.7185
-0.197,-0.255,0.321,41.7,174.2,39.8,0,2018,5,10,15,43,49.011,-0.0137,-0.6968,0.0563,-0.7149
-0.178,-0.248,0.348,31.3,169.5,42.4,0,2018,5,10,15,43,49.049,0.0028,-0.7017,0.0298,-0.7117
-0.108,-0.258,0.366,19.2,156.7,43.8,0,2018,5,10,15,43,49.07,0.0179,-0.7047,0.0041,-0.7092
0.001,-0.214,0.348,9.6,127.2,41.6,0,2018,5,10,15,43,49.074,0.0301,-0.7057,-0.0187,-0.7075
0.073,-0.187,0.386,2.5,91.2,35.5,0,2018,5,10,15,43,49.093,0.0389,-0.7056,-0.0369,-0.7065
0.117,-0.201,0.453,-3.5,61.2,24.9,0,2018,5,10,15,43,49.112,0.0445,-0.7047,-0.0498,-0.7062
0.135,-0.223,0.481,-11.5,40.6,13,0,2018,5,10,15,43,49.135,0.0486,-0.7032,-0.0582,-0.7068
0.134,-0.281,0.419,-19.7,33.9,2.5,0,2018,5,10,15,43,49.154,0.0524,-0.7008,-0.0633,-0.7085
0.125,-0.302,0.361,-26.7,35,-5.8,0,2018,5,10,15,43,49.173,0.0574,-0.6976,-0.0671,-0.7109
0.097,-0.288,0.35,-33.9,36.5,-13,0,2018,5,10,15,43,49.192,0.0635,-0.6935,-0.07,-0.7141
0.077,-0.265,0.362,-42.9,33.9,-19.6,0,2018,5,10,15,43,49.211,0.0706,-0.6884,-0.072,-0.7181
0.068,-0.208,0.315,-50.7,17.3,-24.2,0,2018,5,10,15,43,49.233,0.0771,-0.6824,-0.072,-0.7232
0.06,-0.216,0.262,-54.2,-2.3,-29.1,0,2018,5,10,15,43,49.253,0.0821,-0.676,-0.069,-0.729
0.042,-0.235,0.225,-55.5,-15.7,-34.9,0,2018,5,10,15,43,49.276,0.0856,-0.6694,-0.0631,-0.7351
0.006,-0.229,0.211,-56.2,-22.8,-41.5,0,2018,5,10,15,43,49.295,0.0889,-0.6629,-0.0554,-0.7412
-0.006,-0.214,0.142,-55.5,-31.7,-47.6,0,2018,5,10,15,43,49.332,0.092,-0.6565,-0.0457,-0.7472
-0.015,-0.212,0.074,-51.1,-37.6,-53.2,1023,2018,5,10,15,43,49.352,0.095,-0.6504,-0.0344,-0.7527
-0.021,-0.219,0.042,-45.1,-37,-58.2,1023,2018,5,10,15,43,49.356,0.0984,-0.645,-0.0223,-0.7574
-0.028,-0.215,0.046,-39.1,-29.3,-63.2,1023,2018,5,10,15,43,49.395,0.103,-0.6402,-0.0103,-0.7611
-0.004,-0.185,0.007,-33.6,-20.6,-68.3,1023,2018,5,10,15,43,49.415,0.1091,-0.6358,0.0009,-0.764
0.006,-0.14,-0.065,-25.6,-15,-72.6,1023,2018,5,10,15,43,49.42,0.1166,-0.6321,0.0116,-0.7659
-0.007,-0.133,-0.166,-11.2,-12.8,-74.8,1023,2018,5,10,15,43,49.433,0.1249,-0.6297,0.0223,-0.7663
-0.138,-0.193,-0.083,4.2,15,-76.9,1023,2018,5,10,15,43,49.471,0.1351,-0.629,0.0307,-0.7649
-0.195,-0.164,-0.008,8.6,48.1,-78.9,1023,2018,5,10,15,43,49.494,0.1496,-0.6289,0.035,-0.7621
-0.102,-0.051,-0.002,9.8,63,-82.5,1023,2018,5,10,15,43,49.498,0.1669,-0.6283,0.0363,-0.7589
-0.06,-0.003,-0.055,10.4,48.1,-86.1,1023,2018,5,10,15,43,49.516,0.1841,-0.6278,0.0375,-0.7552
-0.052,-0.022,-0.076,10.3,21.4,-87.3,1023,2018,5,10,15,43,49.553,0.1992,-0.6281,0.0421,-0.7509
-0.148,-0.084,-0.024,11.2,-3.7,-89.9,0,2018,5,10,15,43,49.571,0.2116,-0.6292,0.0505,-0.7461
-0.273,-0.199,0.014,8.5,-16.5,-93.8,0,2018,5,10,15,43,49.575,0.2225,-0.6304,0.062,-0.741
-0.32,-0.275,0.008,3.6,-21.7,-97.5,0,2018,5,10,15,43,49.613,0.233,-0.6312,0.0754,-0.7358
-0.189,-0.274,-0.04,0,-20.5,-102.5,0,2018,5,10,15,43,49.635,0.2435,-0.6311,0.0895,-0.731
-0.054,-0.23,-0.031,1.1,-9.9,-111.2,0,2018,5,10,15,43,49.639,0.2551,-0.63,0.1032,-0.7261
-0.029,-0.174,0.078,0,0,-124.1,0,2018,5,10,15,43,49.661,0.2699,-0.6279,0.1171,-0.7204
-0.106,-0.114,0.053,-7.5,-1.8,-135.7,0,2018,5,10,15,43,49.678,0.2865,-0.6243,0.1319,-0.7146
-0.13,-0.017,-0.053,-12.2,-12.1,-142.4,0,2018,5,10,15,43,49.695,0.3024,-0.6202,0.1483,-0.7083
-0.101,0.035,-0.129,-11.3,-18,-145.2,0,2018,5,10,15,43,49.732,0.3176,-0.6159,0.1663,-0.7014
-0.061,0.065,-0.084,-8,-10.4,-144.5,0,2018,5,10,15,43,49.753,0.3331,-0.6112,0.1842,-0.6938
-0.05,0.117,-0.045,-9.3,1.8,-141.3,0,2018,5,10,15,43,49.758,0.3486,-0.6063,0.1996,-0.6862
-0.024,0.218,-0.086,-10.4,11.2,-135.7,0,2018,5,10,15,43,49.795,0.3648,-0.5999,0.2137,-0.6791
-0.01,0.321,-0.123,-8.7,18.9,-127.2,0,2018,5,10,15,43,49.816,0.3814,-0.5927,0.2261,-0.6723
-0.009,0.401,-0.126,-5.4,26.1,-116.6,0,2018,5,10,15,43,49.82,0.3973,-0.5855,0.2364,-0.6658
-0.045,0.469,-0.116,-2.4,31.8,-103.3,0,2018,5,10,15,43,49.84,0.4125,-0.5784,0.2443,-0.6599
-0.072,0.518,-0.125,0.8,35.4,-85.3,0,2018,5,10,15,43,49.86,0.4265,-0.5718,0.2499,-0.6546
-0.097,0.533,-0.147,3.9,39,-64.4,0,2018,5,10,15,43,49.876,0.4385,-0.566,0.2529,-0.6505
-0.161,0.537,-0.15,7.8,45.4,-41.7,0,2018,5,10,15,43,49.914,0.4485,-0.5612,0.2527,-0.6479
-0.203,0.574,-0.15,10.5,51.1,-17.4,0,2018,5,10,15,43,49.936,0.4567,-0.5572,0.2493,-0.647
-0.216,0.61,-0.18,11.8,50.7,8.5,0,2018,5,10,15,43,49.94,0.4624,-0.5542,0.2429,-0.6479
-0.244,0.619,-0.199,13.8,46.1,35.3,0,2018,5,10,15,43,49.957,0.465,-0.5527,0.2342,-0.6505
-0.334,0.618,-0.194,14.5,38.2,62.3,1023,2018,5,10,15,43,49.997,0.464,-0.5529,0.2234,-0.6549
-0.375,0.632,-0.198,11.5,22.8,88.7,1023,2018,5,10,15,43,50.017,0.4586,-0.5549,0.2114,-0.661
-0.386,0.624,-0.207,7,-0.3,113.2,1023,2018,5,10,15,43,50.021,0.4481,-0.5587,0.1995,-0.6686
-0.442,0.608,-0.221,1.1,-27.1,136.9,1023,2018,5,10,15,43,50.04,0.4322,-0.5645,0.1886,-0.6774
-0.558,0.58,-0.234,-6.6,-56.6,162.6,1023,2018,5,10,15,43,50.061,0.4102,-0.572,0.179,-0.6873
-0.732,0.544,-0.264,-16.4,-91.5,191.5,1023,2018,5,10,15,43,50.081,0.3808,-0.5811,0.1709,-0.6985
-0.807,0.492,-0.327,-24.7,-134,221.8,1023,2018,5,10,15,43,50.102,0.3431,-0.5918,0.165,-0.7104
-0.791,0.378,-0.344,-28.2,-171.9,248.2,1023,2018,5,10,15,43,50.138,0.2969,-0.6037,0.1613,-0.722
-0.698,0.227,-0.278,-31.1,-194.2,264.9,1023,2018,5,10,15,43,50.158,0.2438,-0.6158,0.1588,-0.7321
-0.566,0.077,-0.173,-37.2,-202.4,269.2,1023,2018,5,10,15,43,50.162,0.1869,-0.6263,0.1567,-0.7403
-0.408,-0.043,-0.101,-42.1,-192.6,261.4,1023,2018,5,10,15,43,50.178,0.1294,-0.6338,0.1544,-0.7467
-0.366,-0.085,-0.108,-42.8,-167.5,245.3,1023,2018,5,10,15,43,50.216,0.0748,-0.6389,0.1505,-0.7506
-0.392,-0.146,-0.13,-36.6,-122.6,225.6,0,2018,5,10,15,43,50.235,0.0265,-0.642,0.1439,-0.7525
-0.452,-0.226,-0.16,-28.6,-66.2,204.5,0,2018,5,10,15,43,50.24,-0.0129,-0.6431,0.1321,-0.7541
-0.448,-0.278,-0.242,-20.7,-20.2,183.5,0,2018,5,10,15,43,50.278,-0.0434,-0.6438,0.1156,-0.755
-0.343,-0.318,-0.29,-11.3,3.6,162.7,0,2018,5,10,15,43,50.3,-0.0671,-0.6449,0.0968,-0.755
-0.195,-0.345,-0.283,-1.1,11,143.2,0,2018,5,10,15,43,50.304,-0.0863,-0.6466,0.0784,-0.7538
-0.104,-0.33,-0.238,7,1,126.4,0,2018,5,10,15,43,50.321,-0.103,-0.6488,0.0623,-0.7513
-0.042,-0.34,-0.199,13,-23.7,112.7,0,2018,5,10,15,43,50.359,-0.1198,-0.6511,0.0505,-0.7477
0.009,-0.395,-0.151,17.7,-49.1,102.1,0,2018,5,10,15,43,50.379,-0.1378,-0.6531,0.0436,-0.7432
0.042,-0.472,-0.137,21.1,-67.3,94.6,0,2018,5,10,15,43,50.383,-0.1571,-0.6548,0.0406,-0.7381
0.053,-0.529,-0.134,23.7,-78.4,90.3,0,2018,5,10,15,43,50.401,-0.1772,-0.6562,0.0401,-0.7323
0.065,-0.604,-0.125,25.7,-78.7,88.1,0,2018,5,10,15,43,50.42,-0.1975,-0.6574,0.0409,-0.726
0.101,-0.665,-0.118,27.2,-67.4,86.6,0,2018,5,10,15,43,50.461,-0.2168,-0.6587,0.0411,-0.7192
0.147,-0.716,-0.108,30.6,-51.3,83.8,0,2018,5,10,15,43,50.466,-0.234,-0.6606,0.0398,-0.7121
0.134,-0.751,-0.077,36.7,-35.5,78.8,0,2018,5,10,15,43,50.485,-0.2488,-0.6635,0.0371,-0.7045
0.075,-0.818,0.007,43.4,-15.4,71,0,2018,5,10,15,43,50.502,-0.2606,-0.6678,0.0333,-0.6963
0.023,-0.884,0.119,48.7,7.3,59.6,0,2018,5,10,15,43,50.522,-0.2688,-0.6735,0.0283,-0.6879
-0.003,-0.936,0.263,51.4,34.1,44,0,2018,5,10,15,43,50.561,-0.2722,-0.6808,0.022,-0.6795
-0.102,-0.948,0.444,51.4,58.1,23.1,0,2018,5,10,15,43,50.581,-0.2704,-0.6892,0.0148,-0.6719
-0.244,-0.819,0.577,43.5,50.8,-2.2,0,2018,5,10,15,43,50.585,-0.2645,-0.6975,0.0092,-0.6658
-0.365,-0.801,0.657,31.3,36.1,-30,0,2018,5,10,15,43,50.6,-0.2574,-0.7038,0.008,-0.662
-0.37,-0.732,0.762,8.4,23.6,-67.1,0,2018,5,10,15,43,50.638,-0.2478,-0.7074,0.0112,-0.6617
-0.31,-0.582,0.656,-18.2,-34,-107.5,1023,2018,5,10,15,43,50.658,-0.2382,-0.7063,0.0224,-0.6662
-0.194,-0.603,0.573,-36.9,-78.2,-153.3,1023,2018,5,10,15,43,50.662,-0.2303,-0.6997,0.0443,-0.6747
-0.174,-0.635,0.523,-46.8,-88.1,-201.1,1023,2018,5,10,15,43,50.683,-0.22,-0.6893,0.0745,-0.6861
-0.328,-0.542,0.471,-53.2,-74.1,-248,1023,2018,5,10,15,43,50.702,-0.2032,-0.6765,0.1095,-0.6992
-0.568,-0.383,0.417,-57.2,-54.5,-288.2,1023,2018,5,10,15,43,50.742,-0.1786,-0.6615,0.1471,-0.7133
-0.899,-0.208,0.355,-65,-39.1,-320.2,1023,2018,5,10,15,43,50.761,-0.1472,-0.6435,0.186,-0.7276
-1.208,-0.055,0.318,-77,-27.1,-341.2,1023,2018,5,10,15,43,50.765,-0.1109,-0.6211,0.225,-0.7424
-1.309,0.099,0.224,-92.1,-23.8,-351.1,1023,2018,5,10,15,43,50.787,-0.0718,-0.5946,0.2634,-0.7561
-1.306,0.235,0.12,-102.7,-28.2,-351.6,1023,2018,5,10,15,43,50.805,-0.0325,-0.5639,0.3017,-0.768
-1.371,0.355,0.021,-110.4,-35.8,-345.8,1023,2018,5,10,15,43,50.847,0.0055,-0.5298,0.339,-0.7773
-1.294,0.477,-0.102,-115.3,-49.8,-334.9,1023,2018,5,10,15,43,50.851,0.041,-0.4932,0.3758,-0.7834
-1.21,0.605,-0.183,-114.3,-60.2,-320.8,0,2018,5,10,15,43,50.866,0.0733,-0.4554,0.4118,-0.7858
-1.196,0.701,-0.241,-113,-67,-302.7,0,2018,5,10,15,43,50.904,0.1026,-0.4173,0.4462,-0.7849
-1.07,0.787,-0.276,-110,-65.2,-281.8,0,2018,5,10,15,43,50.906,0.1288,-0.3798,0.4779,-0.7814
-0.939,0.862,-0.272,-106.4,-58.5,-258.5,0,2018,5,10,15,43,50.926,0.1523,-0.3434,0.5061,-0.7763
-0.925,0.876,-0.23,-104,-42.3,-230.5,0,2018,5,10,15,43,50.945,0.1729,-0.3085,0.5298,-0.7707
-0.874,0.931,-0.243,-106.4,-28.4,-197.3,0,2018,5,10,15,43,50.965,0.1899,-0.2754,0.5486,-0.7661
-0.764,0.979,-0.278,-107.7,-20.8,-159.3,0,2018,5,10,15,43,51.005,0.2021,-0.2446,0.5636,-0.7625
-0.726,0.96,-0.22,-105,-7.3,-116.7,0,2018,5,10,15,43,51.024,0.2092,-0.2173,0.575,-0.7604
-0.733,0.973,-0.222,-109.6,5,-66.9,0,2018,5,10,15,43,51.028,0.2104,-0.1939,0.5823,-0.7609
-0.611,1.005,-0.271,-110.4,8.6,-14.7,0,2018,5,10,15,43,51.046,0.2046,-0.1749,0.5866,-0.7638
-0.475,1.013,-0.302,-104.1,5.7,36.9,0,2018,5,10,15,43,51.086,0.1921,-0.1615,0.589,-0.7681
-0.378,1,-0.276,-93.6,3.3,87.6,0,2018,5,10,15,43,51.106,0.1735,-0.1546,0.5898,-0.7733
-0.365,0.945,-0.185,-82.4,8.9,137.2,0,2018,5,10,15,43,51.11,0.1492,-0.1543,0.5886,-0.7793
-0.38,0.888,-0.11,-75,22.7,186,0,2018,5,10,15,43,51.126,0.1193,-0.1599,0.5838,-0.7869
-0.407,0.839,-0.058,-71,44.5,233.3,0,2018,5,10,15,43,51.146,0.0837,-0.1706,0.5744,-0.7961
-0.473,0.741,0.009,-72,77.2,278.7,0,2018,5,10,15,43,51.167,0.0426,-0.1855,0.5587,-0.8072
-0.517,0.724,-0.007,-76.7,93.4,322.4,0,2018,5,10,15,43,51.186,-0.0043,-0.2034,0.5361,-0.8192
-0.574,0.765,-0.139,-77.7,64.6,363.8,0,2018,5,10,15,43,51.209,-0.0578,-0.224,0.5109,-0.8278
-0.704,0.787,-0.33,-80.4,-11.8,405,0,2018,5,10,15,43,51.226,-0.1193,-0.2465,0.4899,-0.8275
-0.943,0.729,-0.547,-88.8,-128.3,441.7,0,2018,5,10,15,43,51.266,-0.1906,-0.2682,0.4787,-0.8139
-1.251,0.494,-0.714,-108.8,-267.5,461.3,0,2018,5,10,15,43,51.285,-0.2718,-0.2842,0.4806,-0.7837
-1.573,0.237,-0.772,-147,-417.4,452.2,1023,2018,5,10,15,43,51.289,-0.3608,-0.2873,0.4962,-0.7355
-1.716,0.088,-0.924,-191.6,-555.9,416,1023,2018,5,10,15,43,51.31,-0.4535,-0.2699,0.5228,-0.6693
-1.68,-0.266,-1.267,-215.3,-630.3,356.4,1023,2018,5,10,15,43,51.329,-0.5419,-0.2308,0.5543,-0.5878
-1.422,-0.612,-1.317,-211.5,-576.1,292.4,1023,2018,5,10,15,43,51.364,-0.6159,-0.1806,0.5789,-0.5027
-1.027,-0.596,-1.05,-196.9,-459.6,244.8,1023,2018,5,10,15,43,51.385,-0.6723,-0.1337,0.5904,-0.4259
-0.833,-0.363,-0.876,-182.9,-349.1,212.5,1023,2018,5,10,15,43,51.389,-0.7154,-0.0956,0.5904,-0.3609
-0.676,-0.212,-0.924,-161.8,-242.1,190,1023,2018,5,10,15,43,51.409,-0.749,-0.0687,0.5826,-0.3078
-0.572,-0.152,-1.082,-136.8,-145.1,172.5,1023,2018,5,10,15,43,51.429,-0.775,-0.0545,0.5704,-0.2664
-0.438,-0.039,-1.286,-112.8,-98.9,154.6,1023,2018,5,10,15,43,51.465,-0.7954,-0.0492,0.5569,-0.2337
-0.251,-0.092,-1.275,-83.5,-81.3,139.1,1023,2018,5,10,15,43,51.486,-0.8111,-0.0471,0.5454,-0.2055
-0.189,-0.105,-1.102,-58.5,-82.6,125,1023,2018,5,10,15,43,51.491,-0.8228,-0.0457,0.5371,-0.1798
-0.177,-0.133,-0.988,-42.9,-106.3,117,1023,2018,5,10,15,43,51.51,-0.8316,-0.0419,0.5317,-0.154
-0.146,-0.212,-0.913,-32.6,-125.2,115.4,0,2018,5,10,15,43,51.546,-0.8387,-0.0347,0.5284,-0.1266
-0.148,-0.259,-0.88,-24.4,-135.7,119.2,0,2018,5,10,15,43,51.566,-0.8443,-0.0256,0.5262,-0.0974
-0.208,-0.299,-0.894,-16.9,-143.3,127.5,0,2018,5,10,15,43,51.571,-0.8484,-0.016,0.5247,-0.0665
-0.29,-0.331,-0.926,-8.6,-147.6,138.7,0,2018,5,10,15,43,51.61,-0.8511,-0.0064,0.5238,-0.0334
-0.404,-0.414,-0.935,0,-142.4,150.1,0,2018,5,10,15,43,51.63,-0.8519,0.002,0.5236,0.0014
-0.508,-0.509,-0.911,8.4,-126.3,160,0,2018,5,10,15,43,51.635,-0.8509,0.0078,0.5239,0.0368
-0.587,-0.635,-0.864,19.4,-102,166.1,0,2018,5,10,15,43,51.65,-0.8478,0.0099,0.5252,0.0715
-0.601,-0.765,-0.797,33.9,-72.1,166.2,0,2018,5,10,15,43,51.672,-0.8427,0.0077,0.5281,0.104
-0.556,-0.861,-0.687,55.5,-46,158,0,2018,5,10,15,43,51.692,-0.8351,0.0019,0.5335,0.1332
-0.438,-0.899,-0.477,75.6,-39.7,136.9,0,2018,5,10,15,43,51.711,-0.8251,-0.0048,0.5422,0.1583
-0.234,-0.899,-0.269,90.5,-65.2,108,0,2018,5,10,15,43,51.732,-0.8135,-0.0066,0.5525,0.1809
-0.045,-0.993,-0.084,99.5,-85.3,75.9,0,2018,5,10,15,43,51.752,-0.8012,-0.0013,0.5634,0.2014
0.049,-1.067,0.036,104.2,-90.9,42.3,0,2018,5,10,15,43,51.792,-0.7888,0.0091,0.5743,0.2183
0.064,-1.222,0.084,106.4,-69.9,6.7,0,2018,5,10,15,43,51.81,-0.777,0.022,0.5856,0.2296
0.089,-1.397,0.112,109.2,-22.6,-32.7,0,2018,5,10,15,43,51.815,-0.7662,0.0342,0.5981,0.2321
0.071,-1.431,0.139,113.3,38.1,-75.3,0,2018,5,10,15,43,51.83,-0.7566,0.0434,0.613,0.223
-0.01,-1.286,0.198,113.3,90.4,-118,0,2018,5,10,15,43,51.849,-0.7484,0.0494,0.6297,0.202
-0.122,-1.128,0.219,106.6,131.8,-155.8,0,2018,5,10,15,43,51.886,-0.7417,0.0537,0.6463,0.1705
-0.28,-0.98,0.234,94.8,173.7,-188.3,1023,2018,5,10,15,43,51.909,-0.7362,0.0558,0.6617,0.1297
-0.444,-0.728,0.274,74.9,199.9,-212.5,1023,2018,5,10,15,43,51.913,-0.7319,0.0566,0.6741,0.081
-0.575,-0.553,0.3,47,201.8,-230.5,1023,2018,5,10,15,43,51.932,-0.7288,0.0576,0.6816,0.028
-0.682,-0.386,0.261,15.8,173.6,-245.8,1023,2018,5,10,15,43,51.953,-0.7272,0.062,0.6831,-0.0252
-0.713,-0.218,0.199,-11.9,122,-254.1,1023,2018,5,10,15,43,51.972,-0.7269,0.0734,0.6786,-0.0749
-0.707,-0.097,0.125,-34.5,66.2,-255.4,1023,2018,5,10,15,43,51.994,-0.7272,0.0919,0.6699,-0.1178
-0.715,-0.024,0.079,-49.9,19.8,-253,1023,2018,5,10,15,43,52.016,-0.7272,0.1165,0.6588,-0.1534
-0.7,0.08,-0.012,-62.8,-18.5,-250,1023,2018,5,10,15,43,52.036,-0.7262,0.1466,0.6459,-0.1836
-0.628,0.191,-0.1,-69.3,-45,-246,1023,2018,5,10,15,43,52.055,-0.7242,0.1808,0.6316,-0.2094
-0.542,0.291,-0.179,-69.3,-58.6,-240.3,1023,2018,5,10,15,43,52.076,-0.7205,0.2167,0.6164,-0.2318
-0.535,0.383,-0.196,-63.4,-57.1,-232.4,1023,2018,5,10,15,43,52.096,-0.7151,0.252,0.601,-0.2525
-0.549,0.476,-0.213,-59.5,-50.8,-221.6,1023,2018,5,10,15,43,52.117,-0.7085,0.285,0.5852,-0.2723
-0.537,0.567,-0.246,-54.9,-42.9,-206,0,2018,5,10,15,43,52.136,-0.7013,0.3151,0.5693,-0.2909
-0.478,0.638,-0.277,-48.3,-34.2,-185,0,2018,5,10,15,43,52.154,-0.6939,0.3417,0.5538,-0.308
-0.415,0.681,-0.275,-39.7,-21.2,-159.2,0,2018,5,10,15,43,52.173,-0.6869,0.3638,0.5395,-0.3233
-0.379,0.779,-0.242,-31.3,-6.8,-128.8,0,2018,5,10,15,43,52.193,-0.6811,0.3808,0.5267,-0.3369
-0.27,0.926,-0.228,-25,3.7,-91.5,0,2018,5,10,15,43,52.231,-0.677,0.3927,0.5161,-0.3479
-0.156,0.981,-0.183,-17.1,17.8,-48.4,0,2018,5,10,15,43,52.252,-0.6754,0.3987,0.5082,-0.3556
-0.166,0.952,-0.172,-13.2,24.8,-3.2,0,2018,5,10,15,43,52.256,-0.6766,0.3993,0.5033,-0.3595
-0.237,0.857,-0.217,-11.6,25.4,46.9,0,2018,5,10,15,43,52.277,-0.681,0.395,0.5018,-0.3582
-0.279,0.752,-0.248,-8.6,22.3,99.8,0,2018,5,10,15,43,52.298,-0.6881,0.3862,0.5042,-0.3506
-0.276,0.724,-0.249,-6,16.6,150.6,0,2018,5,10,15,43,52.318,-0.6977,0.373,0.5105,-0.3366
-0.234,0.69,-0.241,-2.9,3.9,192.2,0,2018,5,10,15,43,52.339,-0.7086,0.3564,0.5204,-0.3159
-0.197,0.612,-0.216,0.7,-5.8,220.8,0,2018,5,10,15,43,52.356,-0.7196,0.3376,0.533,-0.2897
-0.235,0.54,-0.188,5,-12.2,242.8,0,2018,5,10,15,43,52.375,-0.7299,0.3166,0.5471,-0.2596
-0.333,0.443,-0.161,10.2,-17.5,261.9,0,2018,5,10,15,43,52.396,-0.7391,0.2938,0.5623,-0.2261
-0.496,0.317,-0.128,16.5,-16.3,276.8,0,2018,5,10,15,43,52.415,-0.7466,0.2687,0.578,-0.1899
-0.664,0.144,-0.064,24.4,2.2,285.2,0,2018,5,10,15,43,52.455,-0.7525,0.2404,0.5936,-0.1531
-0.75,-0.054,-0.001,31.6,44.4,287.8,0,2018,5,10,15,43,52.475,-0.7572,0.2066,0.6081,-0.1188
-0.695,-0.225,0.061,38.5,97,281.1,0,2018,5,10,15,43,52.479,-0.7607,0.1655,0.6211,-0.0896
-0.524,-0.327,0.077,44.5,143.7,261.7,0,2018,5,10,15,43,52.496,-0.7627,0.119,0.6319,-0.0681
-0.33,-0.388,0.085,53.1,185.2,232.8,1023,2018,5,10,15,43,52.536,-0.7625,0.0691,0.6408,-0.0548
-0.182,-0.384,0.094,63.6,213.7,195.2,1023,2018,5,10,15,43,52.555,-0.7593,0.0176,0.6485,-0.0495
-0.103,-0.352,0.133,72.8,224.4,154.9,1023,2018,5,10,15,43,52.559,-0.7527,-0.0322,0.6555,-0.0515
-0.066,-0.302,0.172,77.7,210.5,116.4,1023,2018,5,10,15,43,52.573,-0.7431,-0.0773,0.6621,-0.0584
-0.035,-0.263,0.212,79.4,171.4,83.4,1023,2018,5,10,15,43,52.609,-0.7317,-0.1143,0.6685,-0.0666
-0.006,-0.258,0.25,78.1,118.9,58.5,1023,2018,5,10,15,43,52.631,-0.7201,-0.1418,0.6752,-0.0729
0.012,-0.319,0.301,74.3,71.6,40.7,1023,2018,5,10,15,43,52.635,-0.7092,-0.1602,0.6823,-0.0758
0.045,-0.348,0.36,70,35,28.1,1023,2018,5,10,15,43,52.675,-0.6995,-0.1715,0.6895,-0.0757
0.085,-0.411,0.421,66.5,11.7,19.6,1023,2018,5,10,15,43,52.695,-0.6909,-0.1779,0.6967,-0.0734
0.1,-0.51,0.505,63.7,8.1,15.2,1023,2018,5,10,15,43,52.699,-0.6829,-0.1817,0.7039,-0.0703
0.083,-0.63,0.599,60.2,28.3,12.7,1023,2018,5,10,15,43,52.721,-0.6749,-0.1862,0.7106,-0.0688
0.046,-0.726,0.68,54.5,70.5,10.7,1023,2018,5,10,15,43,52.741,-0.6662,-0.1941,0.7164,-0.0716
0.011,-0.778,0.722,45.8,126.7,7.8,1023,2018,5,10,15,43,52.761,-0.6566,-0.2074,0.7205,-0.0812
-0.111,-0.816,0.737,35.1,190,1.3,0,2018,5,10,15,43,52.781,-0.6455,-0.2267,0.7224,-0.0991
-0.328,-0.822,0.762,19.8,261.7,-10,0,2018,5,10,15,43,52.801,-0.6324,-0.2521,0.7212,-0.1272
-0.506,-0.75,0.787,-4.6,325.3,-24.5,0,2018,5,10,15,43,52.821,-0.6171,-0.2825,0.7153,-0.1659
-0.581,-0.526,0.719,-36.6,355.1,-37.1,0,2018,5,10,15,43,52.84,-0.6006,-0.3146,0.7033,-0.2132
-0.516,-0.283,0.572,-68.3,338.3,-42,0,2018,5,10,15,43,52.86,-0.5854,-0.3436,0.6855,-0.2629
-0.389,-0.09,0.431,-93.4,291.2,-38.2,0,2018,5,10,15,43,52.879,-0.5734,-0.3666,0.664,-0.3094
-0.339,0.018,0.384,-112.5,234.8,-28.8,0,2018,5,10,15,43,52.899,-0.5661,-0.3829,0.6408,-0.3494
-0.335,0.072,0.347,-129.9,166.1,-16.9,0,2018,5,10,15,43,52.919,-0.5645,-0.3923,0.6176,-0.3818
-0.365,0.029,0.286,-145.6,94.3,-6.6,0,2018,5,10,15,43,52.958,-0.5695,-0.3943,0.5958,-0.4062
-0.387,-0.053,0.221,-160.1,21,0.4,0,2018,5,10,15,43,52.977,-0.5819,-0.388,0.5759,-0.4231
-0.407,-0.222,0.164,-172.4,-37.4,1.2,0,2018,5,10,15,43,52.982,-0.5994,-0.3742,0.5593,-0.4332
-0.455,-0.387,0.097,-183.6,-80.8,-3.3,0,2018,5,10,15,43,53.018,-0.6204,-0.354,0.5451,-0.4387
-0.512,-0.457,0.002,-195.4,-109.4,-13,0,2018,5,10,15,43,53.04,-0.6434,-0.328,0.5321,-0.4418
-0.582,-0.42,-0.166,-206.9,-131.5,-24.7,0,2018,5,10,15,43,53.044,-0.667,-0.2968,0.5194,-0.4439
-0.623,-0.366,-0.374,-213.6,-147.6,-37.7,0,2018,5,10,15,43,53.064,-0.6902,-0.2609,0.5069,-0.4454
-0.726,-0.31,-0.597,-214.4,-162.7,-52.7,0,2018,5,10,15,43,53.085,-0.712,-0.2213,0.4946,-0.4465
-0.797,-0.271,-0.791,-209.5,-174.5,-69.9,1023,2018,5,10,15,43,53.101,-0.7311,-0.1781,0.4833,-0.4472
-0.686,-0.2,-0.929,-199.2,-181.8,-90.3,1023,2018,5,10,15,43,53.122,-0.7467,-0.1323,0.473,-0.4482
-0.635,-0.142,-1.012,-179.6,-178,-113.3,1023,2018,5,10,15,43,53.141,-0.7576,-0.0853,0.4643,-0.4505
-0.568,-0.012,-1.071,-156.8,-167.1,-133.8,1023,2018,5,10,15,43,53.161,-0.7632,-0.0391,0.457,-0.455
-0.537,0.108,-1.103,-129.4,-148.9,-149.8,1023,2018,5,10,15,43,53.198,-0.7635,0.0046,0.4511,-0.4619
-0.587,0.176,-1.079,-100.4,-122.1,-161.1,1023,2018,5,10,15,43,53.219,-0.7591,0.0442,0.4463,-0.4716
-0.606,0.305,-1.077,-73.3,-95.3,-167.5,1023,2018,5,10,15,43,53.223,-0.7508,0.0783,0.4422,-0.4841
-0.572,0.428,-1.083,-44.5,-75.3,-168.1,1023,2018,5,10,15,43,53.262,-0.7395,0.1071,0.4391,-0.4987
-0.557,0.559,-1.102,-14.2,-70.2,-163.4,1023,2018,5,10,15,43,53.28,-0.7255,0.1316,0.4383,-0.5138
-0.538,0.649,-1.08,17.9,-64.6,-150.7,1023,2018,5,10,15,43,53.306,-0.7093,0.1519,0.4409,-0.5285
-0.494,0.766,-1.026,47.4,-50.7,-128.3,1023,2018,5,10,15,43,53.317,-0.692,0.1667,0.4465,-0.5421
-0.372,0.895,-0.948,74.5,-21.6,-93.3,1023,2018,5,10,15,43,53.321,-0.6754,0.1739,0.4541,-0.5543
-0.245,0.894,-0.867,98.3,22.3,-51.5,1023,2018,5,10,15,43,53.359,-0.6614,0.171,0.4621,-0.5653
-0.163,0.806,-0.818,121.1,74.3,-6.8,1023,2018,5,10,15,43,53.379,-0.6511,0.1567,0.469,-0.5757
-0.174,0.701,-0.8,146.7,129.2,35.2,0,2018,5,10,15,43,53.381,-0.6442,0.13,0.474,-0.5859
-0.231,0.711,-0.751,173.1,178.3,73.7,0,2018,5,10,15,43,53.401,-0.6396,0.0914,0.477,-0.5957
-0.315,0.678,-0.677,197.5,231.4,106.9,0,2018,5,10,15,43,53.421,-0.636,0.0413,0.4773,-0.6048
-0.38,0.583,-0.541,217.2,298.7,129.2,0,2018,5,10,15,43,53.461,-0.6318,-0.0201,0.4723,-0.6141
-0.484,0.442,-0.53,233,356.7,138.3,0,2018,5,10,15,43,53.48,-0.6248,-0.0917,0.4601,-0.624
-0.549,0.413,-0.479,245.9,406.6,135.3,0,2018,5,10,15,43,53.482,-0.6119,-0.1706,0.4408,-0.6341
-0.494,0.41,-0.411,248.2,438.3,132.8,0,2018,5,10,15,43,53.517,-0.5924,-0.2529,0.4146,-0.6427
-0.584,0.052,-0.345,249.5,472.2,114.6,0,2018,5,10,15,43,53.537,-0.5656,-0.3357,0.3822,-0.649
-0.542,-0.033,-0.179,239.3,509.4,84.2,0,2018,5,10,15,43,53.543,-0.5287,-0.4171,0.3431,-0.6546
-0.345,0.142,-0.097,213,504.4,54.1,0,2018,5,10,15,43,53.578,-0.483,-0.4922,0.2991,-0.6594
-0.268,0.273,0,184.8,463,30.2,0,2018,5,10,15,43,53.598,-0.4335,-0.5559,0.2555,-0.6615
-0.228,0.172,0.136,155.2,413.3,13.4,0,2018,5,10,15,43,53.602,-0.3852,-0.6077,0.2143,-0.6605
-0.217,0.043,0.294,128.1,380.3,-1,0,2018,5,10,15,43,53.639,-0.3379,-0.6489,0.177,-0.6582
-0.28,-0.058,0.427,98.6,368.5,-12.7,0,2018,5,10,15,43,53.659,-0.2903,-0.6822,0.1413,-0.6559
-0.274,-0.035,0.496,67.4,359.2,-21.7,0,2018,5,10,15,43,53.663,-0.2421,-0.7082,0.1057,-0.6546
-0.202,-0.056,0.481,40,346.3,-28.4,0,2018,5,10,15,43,53.7,-0.1939,-0.7273,0.0707,-0.6544
-0.079,-0.113,0.424,16.9,335.6,-32.2,0,2018,5,10,15,43,53.72,-0.1462,-0.7403,0.0366,-0.6551
0.014,-0.215,0.393,0.5,340.5,-33.2,1023,2018,5,10,15,43,53.722,-0.0982,-0.7483,0.0026,-0.6559
-0.008,-0.249,0.414,-16.2,361.6,-32.7,1023,2018,5,10,15,43,53.761,-0.048,-0.752,-0.0333,-0.6564
-0.051,-0.202,0.417,-36.3,375.8,-27.7,1023,2018,5,10,15,43,53.782,0.0043,-0.7506,-0.0718,-0.6567
-0.115,-0.163,0.418,-56.4,372.4,-17.6,1023,2018,5,10,15,43,53.788,0.0566,-0.7436,-0.1116,-0.6567
-0.257,-0.174,0.524,-79.8,351.2,-7.5,1023,2018,5,10,15,43,53.81,0.106,-0.731,-0.1507,-0.6569
-0.399,-0.105,0.472,-103.2,281.6,3.2,1023,2018,5,10,15,43,53.83,0.149,-0.7134,-0.1849,-0.6592
-0.46,-0.033,0.398,-127.5,154.9,14.1,1023,2018,5,10,15,43,53.851,0.1787,-0.6934,-0.2081,-0.6662
-0.489,-0.205,0.279,-147.7,1.6,16.5,1023,2018,5,10,15,43,53.866,0.1903,-0.6742,-0.2143,-0.6805
-0.539,-0.417,0.209,-161.4,-126.3,-0.2,1023,2018,5,10,15,43,53.904,0.1864,-0.6575,-0.2018,-0.7014
-0.592,-0.536,0.096,-171.4,-216.7,-33,1023,2018,5,10,15,43,53.925,0.1742,-0.6427,-0.1731,-0.7256
-0.616,-0.519,-0.138,-171,-299.7,-79.1,1023,2018,5,10,15,43,53.929,0.157,-0.6295,-0.1282,-0.75
-0.603,-0.45,-0.37,-157.5,-361.7,-131.3,1023,2018,5,10,15,43,53.946,0.1376,-0.6179,-0.0677,-0.7711
-0.598,-0.482,-0.442,-128.8,-379.7,-180.3,1023,2018,5,10,15,43,53.967,0.1198,-0.6076,0.0033,-0.7851
-0.604,-0.48,-0.446,-98.5,-362.9,-223,0,2018,5,10,15,43,54.007,0.1083,-0.5979,0.0783,-0.7903
-0.456,-0.35,-0.49,-67.3,-329.3,-252.2,0,2018,5,10,15,43,54.027,0.104,-0.5879,0.1525,-0.7875
-0.319,-0.182,-0.508,-29.7,-280.7,-267,0,2018,5,10,15,43,54.031,0.1075,-0.5783,0.2218,-0.7776
-0.365,-0.089,-0.455,7.2,-214.2,-268.7,0,2018,5,10,15,43,54.049,0.1186,-0.5698,0.2823,-0.7625
-0.557,-0.027,-0.333,33.6,-126.4,-259.4,0,2018,5,10,15,43,54.07,0.1381,-0.5622,0.3303,-0.7453
-0.714,0.114,-0.312,42.4,-40.1,-242.1,0,2018,5,10,15,43,54.09,0.1653,-0.5541,0.364,-0.73
-0.614,0.306,-0.395,47.8,19,-222.8,0,2018,5,10,15,43,54.106,0.1972,-0.5447,0.3859,-0.7178
-0.508,0.44,-0.435,55.7,59.2,-203.5,0,2018,5,10,15,43,54.125,0.2313,-0.5351,0.3989,-0.7077
-0.418,0.54,-0.362,62.2,84.8,-185,0,2018,5,10,15,43,54.166,0.2663,-0.5255,0.4053,-0.6989
-0.396,0.611,-0.257,65.3,103.4,-167.4,0,2018,5,10,15,43,54.188,0.3011,-0.5161,0.4066,-0.691
-0.383,0.671,-0.182,64.4,115.5,-151.7,0,2018,5,10,15,43,54.192,0.3348,-0.5065,0.404,-0.6841
-0.344,0.728,-0.155,64.2,122,-139.1,0,2018,5,10,15,43,54.21,0.3667,-0.4967,0.3985,-0.6781
-0.306,0.791,-0.163,63.9,121.1,-127.2,0,2018,5,10,15,43,54.248,0.3973,-0.4869,0.3913,-0.6722
-0.279,0.825,-0.19,64.7,113.6,-113.6,0,2018,5,10,15,43,54.27,0.4255,-0.4779,0.3831,-0.666
-0.29,0.836,-0.214,68.1,107.2,-97.4,0,2018,5,10,15,43,54.274,0.4513,-0.4701,0.374,-0.6597
-0.312,0.865,-0.209,72.1,105,-77.2,0,2018,5,10,15,43,54.292,0.4742,-0.4641,0.3633,-0.6539
-0.307,0.889,-0.209,74.9,103,-52.5,0,2018,5,10,15,43,54.311,0.4943,-0.4597,0.3504,-0.6491
-0.305,0.867,-0.211,78.4,105.7,-23.6,0,2018,5,10,15,43,54.327,0.5111,-0.457,0.3349,-0.6461
-0.366,0.802,-0.182,82.8,119.6,8.9,0,2018,5,10,15,43,54.349,0.5252,-0.4556,0.3154,-0.6457
-0.364,0.792,-0.201,86.4,125.2,46.4,1023,2018,5,10,15,43,54.369,0.5361,-0.4552,0.2913,-0.6484
-0.338,0.797,-0.271,94.2,114.7,87.7,1023,2018,5,10,15,43,54.39,0.5421,-0.4574,0.2636,-0.6536
-0.387,0.782,-0.311,107.7,92.8,131.4,1023,2018,5,10,15,43,54.409,0.5418,-0.464,0.2331,-0.6608
-0.49,0.794,-0.298,121.1,56.5,179.9,1023,2018,5,10,15,43,54.432,0.5338,-0.4762,0.2007,-0.6691
-0.654,0.777,-0.286,134.9,3.9,234.9,1023,2018,5,10,15,43,54.45,0.5159,-0.4952,0.1677,-0.6785
-0.86,0.655,-0.268,148.1,-53.5,292.7,1023,2018,5,10,15,43,54.489,0.4854,-0.5215,0.135,-0.6885
-1.08,0.484,-0.19,154.7,-108.9,346,1023,2018,5,10,15,43,54.509,0.442,-0.5532,0.1026,-0.6985
-1.232,0.242,-0.001,150.1,-138.5,385.5,1023,2018,5,10,15,43,54.513,0.3863,-0.5867,0.0705,-0.7081
-1.206,-0.004,0.253,130.5,-132.6,405.9,1023,2018,5,10,15,43,54.536,0.3234,-0.6166,0.0371,-0.7167
-1.042,-0.286,0.449,101.5,-81.6,402.8,1023,2018,5,10,15,43,54.555,0.2607,-0.6381,0.0004,-0.7244
-0.77,-0.405,0.422,78,-5.4,368.8,1023,2018,5,10,15,43,54.574,0.2067,-0.6494,-0.0415,-0.7306
-0.555,-0.424,0.302,71.3,71.2,314.2,0,2018,5,10,15,43,54.593,0.1666,-0.6537,-0.0871,-0.7329
-0.439,-0.43,0.23,77.6,150.3,251,0,2018,5,10,15,43,54.611,0.1425,-0.6546,-0.1356,-0.7299
-0.389,-0.331,0.221,85.6,189.9,189.5,0,2018,5,10,15,43,54.632,0.133,-0.6545,-0.1849,-0.7208
-0.362,-0.234,0.229,86,157.1,136.6,0,2018,5,10,15,43,54.651,0.1304,-0.6554,-0.2274,-0.7082
-0.269,-0.19,0.247,77.7,75.1,97.4,0,2018,5,10,15,43,54.691,0.1265,-0.6579,-0.2567,-0.6965
-0.194,-0.271,0.268,66.9,-9.2,70.9,0,2018,5,10,15,43,54.71,0.1169,-0.662,-0.2712,-0.6887
-0.121,-0.321,0.32,53.9,-82.6,50.7,0,2018,5,10,15,43,54.715,0.1013,-0.6672,-0.2734,-0.6853
-0.03,-0.387,0.37,40,-147.5,35.3,0,2018,5,10,15,43,54.732,0.0808,-0.6726,-0.265,-0.6861
0.068,-0.503,0.394,25.5,-204,23.9,0,2018,5,10,15,43,54.772,0.0551,-0.6772,-0.2473,-0.6907
0.164,-0.625,0.345,12.2,-240.2,16,0,2018,5,10,15,43,54.792,0.0257,-0.6802,-0.2224,-0.6979
0.263,-0.706,0.257,1.9,-256,10.7,0,2018,5,10,15,43,54.797,-0.0056,-0.6809,-0.1932,-0.7063
0.338,-0.752,0.158,-3.2,-250.7,8,0,2018,5,10,15,43,54.815,-0.037,-0.6795,-0.1626,-0.7144
0.351,-0.772,0.084,-4.1,-224.1,7.3,0,2018,5,10,15,43,54.835,-0.0661,-0.6767,-0.1337,-0.7209
0.309,-0.794,0.029,-1.5,-181.8,8.2,0,2018,5,10,15,43,54.854,-0.0909,-0.6733,-0.109,-0.7255
0.186,-0.821,0.01,1.7,-132.3,9.1,0,2018,5,10,15,43,54.892,-0.1102,-0.6705,-0.0903,-0.728
0.051,-0.85,0.003,4.6,-87.4,10.5,0,2018,5,10,15,43,54.911,-0.1241,-0.6686,-0.0776,-0.729
-0.112,-0.859,0.034,8,-57.6,9.3,0,2018,5,10,15,43,54.916,-0.1338,-0.6676,-0.0696,-0.7289
-0.322,-0.894,0.096,10.5,-35.7,3.5,0,2018,5,10,15,43,54.936,-0.1401,-0.6677,-0.0644,-0.7282
-0.499,-0.999,0.225,13,-8.9,-10.3,0,2018,5,10,15,43,54.956,-0.1426,-0.6686,-0.0608,-0.7272
-0.637,-0.927,0.396,10,15.7,-38.2,1023,2018,5,10,15,43,54.992,-0.1388,-0.6706,-0.0586,-0.7262
-0.544,-0.652,0.464,-1.6,-9.3,-79.2,1023,2018,5,10,15,43,55.013,-0.1307,-0.6719,-0.0525,-0.727
-0.336,-0.427,0.413,-12.8,-62.2,-129.3,1023,2018,5,10,15,43,55.016,-0.1216,-0.6709,-0.0356,-0.7305
-0.287,-0.288,0.335,-16.2,-104.6,-183,1023,2018,5,10,15,43,55.054,-0.1114,-0.6678,-0.0066,-0.7359
-0.428,-0.32,0.28,-13.8,-123.3,-237.7,1023,2018,5,10,15,43,55.076,-0.0978,-0.6631,0.0328,-0.7413
-0.665,-0.334,0.247,-10.6,-108.8,-292.1,1023,2018,5,10,15,43,55.08,-0.0758,-0.6567,0.081,-0.7458
-0.9,-0.343,0.23,-8.3,-77.6,-332.2,1023,2018,5,10,15,43,55.094,-0.0472,-0.6491,0.1266,-0.7485
-1.072,-0.237,0.162,-11.3,-42.7,-360.5,1023,2018,5,10,15,43,55.132,-0.0083,-0.6381,0.1736,-0.75
-1.123,-0.075,0.159,-17,-2.9,-372.2,1023,2018,5,10,15,43,55.152,0.036,-0.6239,0.2165,-0.7499
-1.193,0.171,0.202,-28.3,36.6,-371,1023,2018,5,10,15,43,55.156,0.0859,-0.6054,0.2542,-0.7492
-1.196,0.37,0.186,-48.1,60,-358.7,0,2018,5,10,15,43,55.175,0.137,-0.582,0.2864,-0.7485
-1.076,0.549,0.094,-68,63.2,-340,0,2018,5,10,15,43,55.197,0.186,-0.5542,0.3144,-0.7479
-0.874,0.699,-0.041,-81.5,39.3,-314.9,0,2018,5,10,15,43,55.216,0.2296,-0.5236,0.3412,-0.746
-0.718,0.763,-0.083,-85.8,9.8,-287.5,0,2018,5,10,15,43,55.235,0.2656,-0.493,0.3687,-0.7418
-0.806,0.778,-0.065,-93.3,-4.1,-258.6,0,2018,5,10,15,43,55.274,0.2949,-0.4632,0.3956,-0.736
-0.722,0.85,-0.138,-104.1,-14.2,-225.7,0,2018,5,10,15,43,55.295,0.3181,-0.4339,0.4211,-0.7301
-0.585,0.898,-0.221,-109.4,-21.1,-193.8,0,2018,5,10,15,43,55.299,0.3351,-0.4054,0.4448,-0.7248
-0.482,0.91,-0.277,-107.7,-20.5,-160.3,0,2018,5,10,15,43,55.315,0.3473,-0.3789,0.4662,-0.72
-0.567,0.869,-0.228,-104.4,-7.1,-123.5,0,2018,5,10,15,43,55.353,0.3554,-0.3548,0.4835,-0.7168
-0.671,0.859,-0.191,-108.7,10.3,-81.2,0,2018,5,10,15,43,55.373,0.3593,-0.3327,0.4961,-0.7168
-0.76,0.863,-0.223,-119.5,16.6,-37.2,0,2018,5,10,15,43,55.377,0.3574,-0.3124,0.5048,-0.7209
-0.737,0.916,-0.302,-124.6,9.3,6.2,0,2018,5,10,15,43,55.397,0.3491,-0.2947,0.5114,-0.7277
-0.694,0.967,-0.359,-121.8,-13.3,48.8,0,2018,5,10,15,43,55.417,0.3343,-0.2816,0.5176,-0.7355
-0.766,0.929,-0.318,-114.2,-39.3,90.5,0,2018,5,10,15,43,55.454,0.3133,-0.2744,0.5243,-0.7426
-0.754,0.872,-0.287,-105.9,-60.1,131.6,0,2018,5,10,15,43,55.474,0.2861,-0.273,0.5315,-0.749
-0.71,0.828,-0.239,-94.4,-68.6,171.7,0,2018,5,10,15,43,55.478,0.2535,-0.2772,0.5375,-0.7549
-0.645,0.776,-0.181,-77.9,-66.5,210.5,0,2018,5,10,15,43,55.517,0.2165,-0.2868,0.5406,-0.7605
-0.618,0.71,-0.082,-59.6,-54.4,247.1,0,2018,5,10,15,43,55.537,0.1763,-0.3015,0.5393,-0.7662
-0.645,0.614,0.024,-45.7,-34.6,281.3,0,2018,5,10,15,43,55.542,0.1334,-0.3206,0.5323,-0.772
-0.696,0.553,0.055,-37.5,-11.4,310.3,1023,2018,5,10,15,43,55.557,0.0882,-0.3427,0.5189,-0.7781
-0.734,0.525,0.02,-36.3,1.7,333.7,1023,2018,5,10,15,43,55.579,0.0407,-0.3665,0.4997,-0.7837
-0.79,0.51,-0.048,-41,-4.6,353.3,1023,2018,5,10,15,43,55.598,-0.0097,-0.3905,0.477,-0.7872
-0.919,0.483,-0.15,-50.8,-30.7,371.1,1023,2018,5,10,15,43,55.638,-0.0645,-0.4135,0.4536,-0.7867
-1.122,0.429,-0.269,-66.8,-75.7,386.1,1023,2018,5,10,15,43,55.658,-0.1248,-0.4338,0.4317,-0.7808
-1.315,0.377,-0.414,-91.5,-152.2,394.6,1023,2018,5,10,15,43,55.661,-0.1922,-0.4487,0.4146,-0.7679
-1.326,0.165,-0.828,-152.3,-413.5,356.9,1023,2018,5,10,15,43,55.679,-0.3521,-0.4449,0.4131,-0.7122
-1.203,-0.058,-0.981,-174.4,-560.5,303.5,1023,2018,5,10,15,43,55.7,-0.4411,-0.4153,0.4359,-0.6653
-1.002,-0.349,-0.931,-194.1,-649.6,232.8,1023,2018,5,10,15,43,55.72,-0.5272,-0.364,0.47,-0.607
-0.795,-0.529,-0.792,-210,-659.9,159.6,1023,2018,5,10,15,43,55.741,-0.6019,-0.2951,0.5048,-0.5436
-0.685,-0.361,-0.658,-213.7,-618.3,98.3,1023,2018,5,10,15,43,55.761,-0.661,-0.2173,0.5327,-0.4815
-0.608,0,-0.651,-210,-584.6,50.7,1023,2018,5,10,15,43,55.799,-0.7054,-0.1358,0.5523,-0.4228
-0.574,0.181,-0.726,-197.5,-532.8,17.1,1023,2018,5,10,15,43,55.821,-0.7368,-0.0545,0.5647,-0.3677
-0.547,0.27,-0.817,-182.2,-450.9,-4,1023,2018,5,10,15,43,55.825,-0.7573,0.0204,0.5693,-0.319
-0.507,0.289,-0.885,-164.6,-345.3,-16.6,0,2018,5,10,15,43,55.844,-0.7703,0.0835,0.5669,-0.2795
-0.498,0.327,-0.95,-145.7,-235.5,-22.2,0,2018,5,10,15,43,55.861,-0.7792,0.1313,0.5589,-0.2511
-0.49,0.345,-1.013,-124.6,-141.4,-23.2,0,2018,5,10,15,43,55.881,-0.7865,0.1644,0.5476,-0.233
-0.446,0.327,-1,-104.5,-73.4,-20.2,0,2018,5,10,15,43,55.901,-0.7932,0.1854,0.5354,-0.2227
-0.368,0.307,-0.917,-88.9,-23.5,-10.7,0,2018,5,10,15,43,55.939,-0.8,0.1968,0.5233,-0.2174
-0.268,0.332,-0.79,-78.1,0.3,4.4,0,2018,5,10,15,43,55.959,-0.807,0.2015,0.5119,-0.2142
-0.164,0.393,-0.689,-71.2,1.9,20.3,0,2018,5,10,15,43,55.963,-0.8142,0.2027,0.5017,-0.21
-0.061,0.451,-0.656,-66.7,-14.3,36.4,0,2018,5,10,15,43,55.999,-0.821,0.2035,0.4931,-0.2029
-0.009,0.436,-0.654,-60.4,-36.5,51.8,0,2018,5,10,15,43,56.019,-0.8271,0.2055,0.4865,-0.192
-0.105,0.38,-0.677,-55.4,-66.5,63.8,0,2018,5,10,15,43,56.021,-0.832,0.2099,0.4819,-0.1771
-0.224,0.361,-0.753,-54.3,-106.1,74.2,0,2018,5,10,15,43,56.062,-0.8353,0.2183,0.4791,-0.1577
-0.305,0.4,-0.814,-54.9,-149,86.7,0,2018,5,10,15,43,56.064,-0.8369,0.2318,0.4776,-0.1331
-0.35,0.377,-0.858,-58.1,-183.7,103,0,2018,5,10,15,43,56.081,-0.8364,0.2497,0.4768,-0.1028
-0.339,0.303,-0.876,-64,-199.1,121.8,0,2018,5,10,15,43,56.118,-0.8344,0.2694,0.4758,-0.0675
-0.332,0.237,-0.881,-71.3,-195.1,143.1,0,2018,5,10,15,43,56.139,-0.8315,0.2878,0.4741,-0.0284
-0.329,0.18,-0.881,-78.7,-177.9,166.4,0,2018,5,10,15,43,56.142,-0.8283,0.3022,0.4714,0.0133
-0.334,0.12,-0.887,-82.8,-151.3,190,1023,2018,5,10,15,43,56.178,-0.825,0.3108,0.4683,0.057
-0.366,0.042,-0.894,-81.1,-119.1,213.4,1023,2018,5,10,15,43,56.197,-0.8216,0.3125,0.4656,0.1016
-0.399,-0.101,-0.878,-72.7,-78.5,234.8,1023,2018,5,10,15,43,56.202,-0.8176,0.3067,0.4647,0.146
-0.427,-0.328,-0.848,-56.4,-32.6,246.9,1023,2018,5,10,15,43,56.24,-0.813,0.2928,0.4666,0.1883
-0.398,-0.552,-0.809,-32.7,26.2,248.8,1023,2018,5,10,15,43,56.259,-0.8075,0.271,0.4725,0.2258
-0.353,-0.7,-0.721,-2.3,80.8,233.3,1023,2018,5,10,15,43,56.264,-0.8013,0.2418,0.4835,0.2559
-0.265,-0.66,-0.724,28,103.1,201.7,1023,2018,5,10,15,43,56.302,-0.7937,0.2105,0.4985,0.2775
-0.215,-0.683,-0.698,61.7,120,164.1,1023,2018,5,10,15,43,56.323,-0.7844,0.1813,0.5166,0.2912
-0.194,-0.754,-0.47,93.7,123.8,119.2,1023,2018,5,10,15,43,56.326,-0.7734,0.1556,0.538,0.2967
-0.15,-0.797,-0.228,111.1,79.3,71.1,1023,2018,5,10,15,43,56.343,-0.7613,0.1379,0.5597,0.2966
-0.098,-1.004,-0.051,118.4,24.1,30.9,1023,2018,5,10,15,43,56.363,-0.7484,0.1326,0.5785,0.2957
-0.043,-1.276,0.091,123.9,16.7,-1.1,0,2018,5,10,15,43,56.385,-0.7357,0.1351,0.5953,0.293
-0.01,-1.462,0.256,130.6,53,-33.9,0,2018,5,10,15,43,56.405,-0.7241,0.139,0.6127,0.2843
-0.123,-1.565,0.388,138.1,125.9,-75.2,0,2018,5,10,15,43,56.427,-0.7143,0.1402,0.6325,0.2644
-0.372,-1.388,0.391,137.4,213,-123.2,0,2018,5,10,15,43,56.447,-0.7072,0.1358,0.6547,0.2294
-0.664,-1.29,0.486,120.4,298.9,-170.6,0,2018,5,10,15,43,56.484,-0.7032,0.1265,0.6764,0.1785
-0.788,-0.583,0.489,80.6,453.4,-206,0,2018,5,10,15,43,56.505,-0.7035,0.1038,0.6952,0.1038
-0.702,-0.256,0.14,33.3,573.3,-206.4,0,2018,5,10,15,43,56.509,-0.7067,0.0651,0.7043,0.0133
-0.662,0.325,0.288,-19.4,474.6,-181.2,0,2018,5,10,15,43,56.545,-0.7092,0.0215,0.7002,-0.0784
-0.927,0.127,0.294,-69.1,305.3,-174.7,0,2018,5,10,15,43,56.565,-0.7117,-0.002,0.6876,-0.1433
-1.022,0.479,0.195,-111.1,137,-161.6,0,2018,5,10,15,43,56.569,-0.7175,-0.0067,0.6699,-0.1904
-0.889,0.518,0.004,-142.4,-54.1,-154.1,0,2018,5,10,15,43,56.585,-0.7267,0.0114,0.6525,-0.2143
-0.63,0.458,-0.221,-153.6,-214.7,-159.7,0,2018,5,10,15,43,56.622,-0.7368,0.0529,0.6379,-0.2174
-0.392,0.417,-0.371,-143.5,-315.4,-174.7,0,2018,5,10,15,43,56.643,-0.7431,0.1122,0.6263,-0.2069
-0.256,0.4,-0.416,-118.2,-361,-195,0,2018,5,10,15,43,56.647,-0.742,0.1813,0.6165,-0.1904
-0.216,0.532,-0.35,-84.5,-360.7,-213.2,0,2018,5,10,15,43,56.667,-0.7324,0.2535,0.6073,-0.1741
-0.182,0.789,-0.202,-50.4,-319,-215,0,2018,5,10,15,43,56.688,-0.7158,0.3214,0.5982,-0.1622
-0.154,1.008,-0.021,-24.1,-242.8,-196.7,0,2018,5,10,15,43,56.725,-0.6965,0.3786,0.5889,-0.1564
-0.203,0.99,0.069,-12.4,-143.2,-163.2,0,2018,5,10,15,43,56.747,-0.68,0.4203,0.5797,-0.1572
-0.277,0.939,0.03,-17.1,-61.6,-120.7,1023,2018,5,10,15,43,56.752,-0.67,0.4464,0.57,-0.1632
-0.19,0.872,-0.074,-17.2,-9.4,-70.2,1023,2018,5,10,15,43,56.771,-0.6665,0.4599,0.5615,-0.1695
-0.124,0.972,-0.069,-12.3,26.6,-16,1023,2018,5,10,15,43,56.79,-0.6677,0.4627,0.5563,-0.1741
-0.104,1.089,-0.066,-9.6,44.4,36.3,1023,2018,5,10,15,43,56.807,-0.6723,0.4573,0.555,-0.1755
-0.088,0.993,-0.087,-5.9,45.9,79.4,1023,2018,5,10,15,43,56.845,-0.6785,0.4462,0.5574,-0.1722
-0.079,0.833,-0.085,0.2,50.7,116.7,1023,2018,5,10,15,43,56.866,-0.6855,0.4304,0.5634,-0.1647
-0.065,0.701,-0.055,8.9,60.9,150.7,1023,2018,5,10,15,43,56.87,-0.693,0.4099,0.5725,-0.1543
-0.071,0.596,-0.017,17.4,72.8,182.8,1023,2018,5,10,15,43,56.89,-0.7008,0.384,0.5842,-0.1414
-0.087,0.475,0.006,26.7,90.9,213,1023,2018,5,10,15,43,56.91,-0.7084,0.3527,0.5979,-0.1268
-0.119,0.343,-0.021,38.4,118.4,241.5,1023,2018,5,10,15,43,56.93,-0.7158,0.3146,0.6132,-0.1113
-0.164,0.169,-0.037,53,154.2,266.6,1023,2018,5,10,15,43,56.969,-0.7224,0.2687,0.6297,-0.0964
-0.212,-0.044,-0.014,68.9,200.1,285.7,1023,2018,5,10,15,43,56.986,-0.7273,0.2142,0.6466,-0.0834
-0.264,-0.307,0.053,84.4,262.4,295.5,0,2018,5,10,15,43,56.991,-0.7298,0.151,0.6624,-0.0757
-0.345,-0.596,0.133,99.4,351.1,291.5,0,2018,5,10,15,43,57.012,-0.7288,0.0763,0.6761,-0.0761
-0.427,-0.79,0.16,114.4,452.2,269.6,0,2018,5,10,15,43,57.032,-0.7222,-0.0098,0.6858,-0.0889
-0.505,-0.874,0.136,124.7,545.8,226.1,0,2018,5,10,15,43,57.071,-0.7069,-0.1048,0.6895,-0.1171
-0.591,-0.781,0.16,130.8,606.9,161.6,0,2018,5,10,15,43,57.075,-0.6786,-0.2068,0.6857,-0.1623
-0.724,-0.571,0.323,125.5,604.4,92.2,0,2018,5,10,15,43,57.089,-0.6402,-0.2966,0.6752,-0.2147
-0.775,-0.245,0.622,100.1,550.2,28.9,0,2018,5,10,15,43,57.109,-0.5952,-0.3711,0.6597,-0.2695
-0.611,0.116,0.832,59.7,438.6,-16.1,0,2018,5,10,15,43,57.13,-0.5516,-0.4256,0.6418,-0.3202
-0.335,0.269,0.847,22.5,313.1,-41.9,0,2018,5,10,15,43,57.17,-0.5167,-0.4591,0.6258,-0.3611
-0.113,0.279,0.776,-3.2,218.3,-55,0,2018,5,10,15,43,57.188,-0.4911,-0.4773,0.6135,-0.393
0.011,0.221,0.714,-21.8,153.9,-55.5,0,2018,5,10,15,43,57.192,-0.4732,-0.4857,0.6042,-0.4183
0.072,0.147,0.675,-35.1,113.2,-48.8,0,2018,5,10,15,43,57.23,-0.4618,-0.4886,0.5969,-0.4378
0.11,0.067,0.646,-46.6,84.8,-35,0,2018,5,10,15,43,57.252,-0.4545,-0.4887,0.5896,-0.4547
0.126,-0.052,0.627,-56.5,78.6,-13.8,0,2018,5,10,15,43,57.256,-0.4511,-0.4883,0.5812,-0.4692
0.092,-0.202,0.642,-65.4,103.4,12.9,0,2018,5,10,15,43,57.275,-0.4496,-0.4902,0.569,-0.4833
-0.02,-0.366,0.699,-79.3,160.8,44.8,0,2018,5,10,15,43,57.295,-0.4477,-0.4972,0.5494,-0.5002
-0.18,-0.424,0.717,-99.6,209.5,81.6,0,2018,5,10,15,43,57.311,-0.4453,-0.5098,0.5201,-0.5207
-0.425,-0.419,0.631,-127.5,231.5,119.7,0,2018,5,10,15,43,57.348,-0.4443,-0.5263,0.4792,-0.5439
-0.563,-0.346,0.383,-155.7,196.9,156.1,1023,2018,5,10,15,43,57.366,-0.4488,-0.5405,0.4341,-0.5638
-0.73,-0.338,0.143,-182.4,121.1,184.8,1023,2018,5,10,15,43,57.37,-0.4622,-0.5482,0.3906,-0.5772
-0.87,-0.366,-0.089,-209.2,10.1,203.9,1023,2018,5,10,15,43,57.411,-0.4885,-0.5462,0.349,-0.584
-0.998,-0.361,-0.366,-237.2,-129.4,199.1,1023,2018,5,10,15,43,57.43,-0.5279,-0.5297,0.3161,-0.5837
-1.042,-0.37,-0.7,-260.1,-299.4,156.2,1023,2018,5,10,15,43,57.434,-0.5786,-0.4931,0.2977,-0.5773
-0.951,-0.385,-1.017,-275.9,-471.5,72,1023,2018,5,10,15,43,57.454,-0.6356,-0.4305,0.2989,-0.5668
-0.773,-0.414,-1.149,-266.4,-595.2,-39.5,1023,2018,5,10,15,43,57.474,-0.688,-0.3419,0.3191,-0.5548
-0.722,-0.359,-1.139,-230.7,-667.6,-161.4,1023,2018,5,10,15,43,57.495,-0.7259,-0.2278,0.356,-0.5424
-0.701,-0.245,-1.189,-186.1,-694.1,-253.5,1023,2018,5,10,15,43,57.515,-0.7391,-0.1123,0.3977,-0.5317
-0.724,0.058,-1.247,-115,-660.7,-302.1,1023,2018,5,10,15,43,57.553,-0.73,0.0101,0.4433,-0.5199
-0.793,0.443,-1.216,-29.8,-594.4,-299.1,1023,2018,5,10,15,43,57.574,-0.7009,0.1197,0.4873,-0.5067
-0.763,0.76,-1.015,57.5,-485.5,-253,0,2018,5,10,15,43,57.578,-0.657,0.2123,0.5307,-0.4914
-0.476,0.927,-0.609,106.2,-288.7,-174,0,2018,5,10,15,43,57.596,-0.6141,0.269,0.5644,-0.4814
-0.177,0.859,-0.392,131.6,-30.8,-94.2,0,2018,5,10,15,43,57.615,-0.5835,0.288,0.5835,-0.4857
-0.106,0.649,-0.5,152.7,193,-32.7,0,2018,5,10,15,43,57.633,-0.5681,0.2727,0.5868,-0.5083
-0.099,0.74,-0.551,172.9,377.7,22.8,0,2018,5,10,15,43,57.656,-0.5639,0.229,0.576,-0.5456
-0.071,1.031,-0.696,188,497.4,68.6,0,2018,5,10,15,43,57.693,-0.5661,0.1657,0.5524,-0.5889
-0.11,1.172,-0.938,208.3,547.5,104.4,0,2018,5,10,15,43,57.713,-0.5684,0.0836,0.5173,-0.6341
-0.297,1.033,-1.046,236.7,539.5,126,0,2018,5,10,15,43,57.717,-0.566,-0.0061,0.4778,-0.6717
-0.401,0.808,-0.954,259.9,500.4,138.7,0,2018,5,10,15,43,57.738,-0.5571,-0.098,0.4387,-0.6982
-0.361,0.638,-0.779,271.9,439.6,143.2,0,2018,5,10,15,43,57.755,-0.5433,-0.1863,0.4029,-0.7125
-0.35,0.357,-0.571,273.8,381.9,137.5,0,2018,5,10,15,43,57.795,-0.5258,-0.2685,0.3721,-0.7161
-0.343,0.079,-0.397,262.7,345.3,122.4,0,2018,5,10,15,43,57.799,-0.5046,-0.3465,0.3432,-0.7123
-0.259,-0.174,-0.283,243.9,332,104.9,0,2018,5,10,15,43,57.815,-0.4815,-0.4135,0.3157,-0.7052
-0.187,-0.367,-0.222,221.1,331,83.5,0,2018,5,10,15,43,57.852,-0.4551,-0.4738,0.287,-0.697
-0.143,-0.41,-0.147,201.2,345.3,59.7,0,2018,5,10,15,43,57.872,-0.4256,-0.526,0.2577,-0.6897
-0.163,-0.519,-0.051,182.9,373.7,29.3,0,2018,5,10,15,43,57.877,-0.3863,-0.5787,0.2225,-0.6828
-0.162,-0.474,0.062,166.1,404.5,-2.7,0,2018,5,10,15,43,57.896,-0.3403,-0.6247,0.1859,-0.6776
-0.095,-0.373,0.164,149.2,419.4,-27.4,0,2018,5,10,15,43,57.936,-0.287,-0.6655,0.1476,-0.6729
-0.081,-0.368,0.264,132.6,418.3,-41.8,1023,2018,5,10,15,43,57.955,-0.2294,-0.7,0.1093,-0.6672
-0.268,-0.451,0.48,110.2,447.3,-55.8,1023,2018,5,10,15,43,57.959,-0.1677,-0.7285,0.0698,-0.6604
-0.275,-0.295,0.545,73.3,467.1,-67.7,1023,2018,5,10,15,43,57.998,-0.1,-0.7492,0.0274,-0.654
-0.245,-0.113,0.535,35.8,460.8,-71.1,1023,2018,5,10,15,43,58.016,-0.0304,-0.7606,-0.0156,-0.6482
-0.256,-0.015,0.502,0.3,432.1,-66,1023,2018,5,10,15,43,58.019,0.0363,-0.7627,-0.0567,-0.6431
-0.295,0.072,0.409,-31.4,375.1,-51.7,1023,2018,5,10,15,43,58.038,0.0966,-0.757,-0.094,-0.6393
-0.424,0.027,0.344,-56.5,293.9,-32.7,1023,2018,5,10,15,43,58.055,0.1455,-0.7458,-0.1246,-0.6379
-0.576,-0.107,0.34,-80.2,221.2,-16.6,1023,2018,5,10,15,43,58.075,0.1825,-0.7314,-0.1479,-0.6401
-0.715,-0.283,0.451,-107.5,171.6,-10.5,1023,2018,5,10,15,43,58.094,0.2109,-0.7146,-0.1648,-0.6462
-0.832,-0.308,0.469,-136.8,115,-12.8,1023,2018,5,10,15,43,58.131,0.2335,-0.6954,-0.1748,-0.6566
-0.922,-0.331,0.355,-163.8,52.8,-21.7,1023,2018,5,10,15,43,58.152,0.25,-0.6749,-0.176,-0.6715
-0.906,-0.258,0.185,-184.9,-14.6,-39.5,1023,2018,5,10,15,43,58.154,0.2611,-0.6541,-0.1665,-0.6899
-0.706,-0.198,0.043,-197.9,-84,-65.9,1023,2018,5,10,15,43,58.191,0.2674,-0.6347,-0.145,-0.7102
-0.527,-0.155,-0.098,-198.5,-151,-94.6,0,2018,5,10,15,43,58.211,0.269,-0.6189,-0.1133,-0.7291
-0.463,-0.139,-0.246,-188.7,-215.8,-124.8,0,2018,5,10,15,43,58.217,0.2663,-0.6044,-0.0685,-0.7476
-0.545,-0.142,-0.386,-177.2,-262.3,-151,0,2018,5,10,15,43,58.252,0.2604,-0.5925,-0.0136,-0.7621
-0.572,-0.099,-0.505,-163.5,-286.9,-173.6,0,2018,5,10,15,43,58.273,0.253,-0.5816,0.0478,-0.7716
-0.494,-0.031,-0.593,-145.5,-283,-190.3,0,2018,5,10,15,43,58.28,0.2462,-0.5707,0.1116,-0.7753
-0.341,0.074,-0.626,-124.6,-260,-198.7,0,2018,5,10,15,43,58.296,0.2421,-0.5591,0.1733,-0.7737
-0.244,0.17,-0.599,-100.8,-225.1,-201.1,0,2018,5,10,15,43,58.329,0.2414,-0.5471,0.23,-0.7677
-0.197,0.268,-0.536,-78,-177.3,-197.5,0,2018,5,10,15,43,58.337,0.245,-0.5349,0.2793,-0.7587
-0.199,0.381,-0.481,-57.9,-127,-188,0,2018,5,10,15,43,58.375,0.253,-0.5224,0.3199,-0.7487
-0.225,0.464,-0.439,-40.6,-78.6,-173.5,0,2018,5,10,15,43,58.395,0.2645,-0.51,0.3516,-0.739
-0.219,0.58,-0.411,-25.9,-42.4,-155.5,0,2018,5,10,15,43,58.397,0.2783,-0.4981,0.375,-0.7305
-0.219,0.638,-0.408,-11.6,-14.6,-133,0,2018,5,10,15,43,58.435,0.2939,-0.4869,0.3927,-0.7226
-0.24,0.684,-0.412,1.5,6.6,-107.7,0,2018,5,10,15,43,58.453,0.3085,-0.4781,0.4035,-0.7164
-0.277,0.699,-0.406,15.8,25.5,-80,0,2018,5,10,15,43,58.461,0.3223,-0.4717,0.4087,-0.7116
-0.249,0.681,-0.396,31.6,48.3,-54.1,0,2018,5,10,15,43,58.479,0.3354,-0.4678,0.4082,-0.7084
-0.272,0.705,-0.345,48.3,67.3,-34.1,0,2018,5,10,15,43,58.499,0.3478,-0.4663,0.4024,-0.7067
-0.27,0.719,-0.303,64.1,90.2,-12.5,0,2018,5,10,15,43,58.519,0.3612,-0.4668,0.3911,-0.706
-0.311,0.705,-0.272,78.8,118.1,9.7,0,2018,5,10,15,43,58.538,0.3747,-0.4689,0.3737,-0.707
-0.34,0.71,-0.258,91.5,148.8,31.5,1023,2018,5,10,15,43,58.572,0.3886,-0.4719,0.3496,-0.7098
-0.377,0.718,-0.28,103.8,173.7,55.5,1023,2018,5,10,15,43,58.592,0.4029,-0.4755,0.3175,-0.7145
-0.422,0.708,-0.338,116.1,180.7,81.4,1023,2018,5,10,15,43,58.598,0.4152,-0.4801,0.2814,-0.7195
-0.517,0.634,-0.393,129.5,170.4,110.7,1023,2018,5,10,15,43,58.636,0.4236,-0.4871,0.242,-0.7243
-0.582,0.566,-0.408,144.6,147.5,142.1,1023,2018,5,10,15,43,58.656,0.4262,-0.4976,0.2006,-0.7283
-0.544,0.536,-0.352,157.6,113.1,172.7,1023,2018,5,10,15,43,58.66,0.4219,-0.5122,0.1586,-0.7309
-0.458,0.496,-0.239,164.6,69.1,196.3,1023,2018,5,10,15,43,58.7,0.41,-0.5308,0.1183,-0.7321
-0.366,0.417,-0.116,166.9,28.3,211.4,1023,2018,5,10,15,43,58.72,0.3909,-0.5523,0.0813,-0.7317
-0.357,0.281,0.038,165.8,7.3,218.6,1023,2018,5,10,15,43,58.724,0.3664,-0.575,0.047,-0.7299
-0.377,0.193,0.126,159.6,0.5,219.5,1023,2018,5,10,15,43,58.745,0.3394,-0.5967,0.0141,-0.7269
-0.413,0.117,0.144,154.2,2.5,217.9,1023,2018,5,10,15,43,58.766,0.3118,-0.6164,-0.018,-0.7228
-0.487,0.005,0.172,151.1,18.2,213.9,1023,2018,5,10,15,43,58.784,0.2845,-0.6338,-0.0508,-0.7174
-0.557,-0.135,0.22,147.8,48.7,204.8,0,2018,5,10,15,43,58.805,0.2601,-0.648,-0.0859,-0.7105
-0.569,-0.252,0.312,144.1,85.7,189.5,0,2018,5,10,15,43,58.823,0.241,-0.6593,-0.123,-0.7014
-0.516,-0.401,0.472,136.3,93.8,168.4,0,2018,5,10,15,43,58.86,0.2265,-0.6681,-0.1605,-0.6903
-0.479,-0.392,0.62,127.2,129.4,140.8,0,2018,5,10,15,43,58.882,0.217,-0.6747,-0.1972,-0.6772
-0.326,-0.273,0.766,114.3,138.3,107.3,0,2018,5,10,15,43,58.886,0.2144,-0.679,-0.2323,-0.6625
-0.217,-0.224,0.831,98.3,131.4,75.8,0,2018,5,10,15,43,58.904,0.2156,-0.6821,-0.2627,-0.6474
-0.076,-0.135,0.817,78.7,95,48.5,0,2018,5,10,15,43,58.923,0.2181,-0.6848,-0.286,-0.6337
0.017,-0.086,0.759,59.6,44.6,29.7,0,2018,5,10,15,43,58.946,0.2183,-0.6878,-0.3009,-0.6233
0.097,-0.089,0.71,41.4,-6.9,17.8,0,2018,5,10,15,43,58.964,0.215,-0.6914,-0.3074,-0.6173
0.127,-0.124,0.689,26.6,-51.3,10.7,0,2018,5,10,15,43,58.984,0.2079,-0.6955,-0.3071,-0.6153
0.165,-0.198,0.682,11.4,-84.9,6.1,0,2018,5,10,15,43,59.025,0.1973,-0.6996,-0.3013,-0.617
0.203,-0.273,0.656,-2.7,-107.6,2.5,0,2018,5,10,15,43,59.029,0.1846,-0.7031,-0.2914,-0.6217
0.198,-0.326,0.599,-13.8,-121.6,-0.3,0,2018,5,10,15,43,59.046,0.1707,-0.7056,-0.2786,-0.6286
0.161,-0.388,0.557,-21.7,-128,-1.8,0,2018,5,10,15,43,59.066,0.1563,-0.7072,-0.264,-0.6368
0.102,-0.458,0.557,-28,-124.2,-3.2,0,2018,5,10,15,43,59.103,0.142,-0.7078,-0.2488,-0.6455
-0.001,-0.505,0.569,-34,-115.4,-5.2,0,2018,5,10,15,43,59.122,0.1292,-0.7072,-0.234,-0.6544
-0.216,-0.52,0.553,-39.6,-110.5,-7.1,0,2018,5,10,15,43,59.127,0.1178,-0.7056,-0.2194,-0.6633
-0.482,-0.527,0.586,-49.4,-109.5,-11.3,0,2018,5,10,15,43,59.146,0.1072,-0.7029,-0.2046,-0.6726
-0.592,-0.552,0.589,-65.1,-111,-20.5,0,2018,5,10,15,43,59.168,0.0977,-0.6985,-0.1885,-0.6832
-0.577,-0.502,0.531,-80.6,-117.8,-39.5,1023,2018,5,10,15,43,59.186,0.0899,-0.6924,-0.17,-0.6952
-0.428,-0.386,0.375,-95,-141,-70.8,1023,2018,5,10,15,43,59.209,0.0838,-0.685,-0.1462,-0.7087
-0.327,-0.315,0.193,-100.2,-161.1,-111.3,1023,2018,5,10,15,43,59.228,0.0794,-0.6769,-0.1149,-0.7226
-0.393,-0.26,0.062,-94.7,-161.8,-157.7,1023,2018,5,10,15,43,59.263,0.0792,-0.6689,-0.0769,-0.735
-0.611,-0.17,0.004,-84.7,-151.4,-206.7,1023,2018,5,10,15,43,59.284,0.0864,-0.6617,-0.0334,-0.7439
-0.822,-0.044,-0.084,-77.5,-149.4,-253.7,1023,2018,5,10,15,43,59.289,0.0998,-0.6547,0.014,-0.7491
-0.897,0.063,-0.146,-70.2,-152,-293.6,1023,2018,5,10,15,43,59.306,0.1183,-0.6463,0.0663,-0.7508
-0.869,0.161,-0.142,-63.1,-144,-320.6,1023,2018,5,10,15,43,59.326,0.1415,-0.6357,0.1219,-0.7489
-0.823,0.26,-0.108,-57,-127.6,-331.8,1023,2018,5,10,15,43,59.346,0.1678,-0.6229,0.1773,-0.7431
-0.817,0.337,-0.067,-53.9,-108.5,-329.7,1023,2018,5,10,15,43,59.384,0.196,-0.6077,0.2299,-0.7344
-0.773,0.417,-0.067,-56.6,-89.9,-314.6,1023,2018,5,10,15,43,59.405,0.2242,-0.5899,0.2782,-0.724
-0.671,0.52,-0.114,-59.5,-76.5,-291.7,1023,2018,5,10,15,43,59.408,0.2507,-0.57,0.3216,-0.7132
-0.648,0.609,-0.138,-61.6,-64.6,-268.4,1023,2018,5,10,15,43,59.427,0.2746,-0.549,0.3604,-0.7022
-0.725,0.698,-0.12,-67.9,-49,-246.7,1023,2018,5,10,15,43,59.449,0.296,-0.5271,0.3945,-0.6919
-0.771,0.826,-0.123,-82.4,-36.5,-226.2,0,2018,5,10,15,43,59.487,0.315,-0.5034,0.4249,-0.6832
-0.731,0.92,-0.17,-97.5,-27.1,-205.5,0,2018,5,10,15,43,59.509,0.3308,-0.4778,0.4522,-0.6765
-0.684,0.993,-0.218,-108.8,-23.8,-182.9,0,2018,5,10,15,43,59.512,0.3433,-0.4514,0.477,-0.6713
-0.797,0.942,-0.161,-119.2,-14,-154.5,0,2018,5,10,15,43,59.529,0.3517,-0.4249,0.4991,-0.6682
-0.86,0.958,-0.161,-138.8,-3.7,-117.7,0,2018,5,10,15,43,59.549,0.3555,-0.3982,0.5178,-0.6683
-0.807,0.994,-0.221,-154.7,-7.1,-74.9,0,2018,5,10,15,43,59.568,0.353,-0.3724,0.534,-0.6718
-0.734,1,-0.25,-162.1,-17.6,-27.5,0,2018,5,10,15,43,59.59,0.3433,-0.3497,0.5484,-0.6775
-0.721,0.979,-0.239,-164.4,-29.9,24.1,0,2018,5,10,15,43,59.609,0.3264,-0.3317,0.5608,-0.6846
-0.688,0.936,-0.226,-164.6,-45.8,78.3,0,2018,5,10,15,43,59.63,0.3017,-0.3192,0.5715,-0.693
-0.663,0.882,-0.202,-161.1,-58.5,130.8,0,2018,5,10,15,43,59.649,0.2695,-0.3127,0.5803,-0.7019
-0.646,0.843,-0.186,-156.5,-66.5,180.5,0,2018,5,10,15,43,59.686,0.2305,-0.3119,0.5865,-0.711
-0.596,0.808,-0.183,-148.8,-69.4,228,0,2018,5,10,15,43,59.706,0.1853,-0.3164,0.5893,-0.7198
-0.622,0.757,-0.145,-140.9,-72.1,271.9,0,2018,5,10,15,43,59.71,0.1347,-0.326,0.5883,-0.7276
-0.715,0.672,-0.1,-138.2,-72.1,312.7,0,2018,5,10,15,43,59.75,0.0788,-0.3396,0.583,-0.7337
-0.817,0.57,-0.11,-140,-74.1,348.2,0,2018,5,10,15,43,59.769,0.0177,-0.3559,0.5735,-0.7376
-0.937,0.483,-0.155,-147.1,-84.8,375.4,0,2018,5,10,15,43,59.773,-0.0482,-0.3731,0.5601,-0.738
-1.074,0.429,-0.266,-162.7,-116.2,393.3,1023,2018,5,10,15,43,59.787,-0.1193,-0.3889,0.545,-0.7331
-1.157,0.377,-0.444,-183.2,-165.5,401.2,1023,2018,5,10,15,43,59.827,-0.1958,-0.4003,0.5306,-0.7209
-1.246,0.316,-0.615,-204.4,-229.3,394.8,1023,2018,5,10,15,43,59.849,-0.2771,-0.4046,0.519,-0.7
-1.31,0.218,-0.734,-226.3,-309.3,369.1,1023,2018,5,10,15,43,59.854,-0.3612,-0.3981,0.5122,-0.6697
-1.331,0.227,-0.985,-250.4,-442.2,322.7,1023,2018,5,10,15,43,59.87,-0.4469,-0.3758,0.5139,-0.6283
-1.234,0.155,-1.497,-269.3,-597.1,255.4,1023,2018,5,10,15,43,59.91,-0.5337,-0.329,0.5291,-0.5717
-1.012,-0.389,-1.532,-258.6,-599.3,193.8,1023,2018,5,10,15,43,59.93,-0.6111,-0.2639,0.5483,-0.506
-0.869,-0.539,-1.18,-238.9,-510.1,145.8,1023,2018,5,10,15,43,59.934,-0.6714,-0.1974,0.5596,-0.4438
-0.74,-0.229,-1.031,-219.6,-416.1,122.2,1023,2018,5,10,15,43,59.953,-0.7169,-0.1378,0.5616,-0.3893
-0.661,0.017,-1.081,-186.8,-301.6,118,1023,2018,5,10,15,43,59.99,-0.7514,-0.0909,0.5559,-0.3434
-0.591,0.176,-1.234,-151.4,-197.6,122.9,1023,2018,5,10,15,44,0.011,-0.7775,-0.0602,0.5459,-0.306
-0.448,0.137,-1.381,-119.2,-111.4,132.8,0,2018,5,10,15,44,0.015,-0.7981,-0.0449,0.5339,-0.2754
-0.296,0.083,-1.448,-88.8,-68,137.4,0,2018,5,10,15,44,0.034,-0.8144,-0.0409,0.5222,-0.2493
-0.208,0.049,-1.443,-60,-73.8,133.9,0,2018,5,10,15,44,0.05,-0.8272,-0.0404,0.5135,-0.2242
-0.176,-0.038,-1.4,-34.8,-96.8,128.9,0,2018,5,10,15,44,0.071,-0.8368,-0.0378,0.509,-0.1978
-0.154,-0.127,-1.335,-11.6,-116.5,121.9,0,2018,5,10,15,44,0.091,-0.8435,-0.0325,0.5084,-0.17
-0.13,-0.169,-1.272,7.4,-137.6,114.6,0,2018,5,10,15,44,0.128,-0.8474,-0.024,0.5111,-0.1412
-0.158,-0.311,-1.188,27.5,-139.3,110.6,0,2018,5,10,15,44,0.15,-0.8488,-0.0136,0.5164,-0.1119
-0.212,-0.469,-1.096,47.6,-124.3,105.7,0,2018,5,10,15,44,0.155,-0.8474,-0.0044,0.5242,-0.0837
-0.237,-0.586,-1.004,67.5,-106.6,97.4,0,2018,5,10,15,44,0.175,-0.8433,0.0021,0.5342,-0.0582
-0.253,-0.614,-0.95,85.4,-110.8,83.2,0,2018,5,10,15,44,0.195,-0.8366,0.0087,0.5464,-0.0349
-0.322,-0.679,-0.851,105.7,-118.2,67.1,0,2018,5,10,15,44,0.232,-0.8274,0.0179,0.561,-0.0131
-0.421,-0.799,-0.608,121.3,-116.5,48.5,0,2018,5,10,15,44,0.25,-0.8155,0.0291,0.5778,0.0064
-0.452,-0.857,-0.435,127.7,-100,25,0,2018,5,10,15,44,0.255,-0.802,0.0411,0.5954,0.022
-0.316,-0.882,-0.374,130.8,-77.5,-2.6,0,2018,5,10,15,44,0.272,-0.7875,0.0529,0.613,0.0317
-0.134,-0.968,-0.202,135.4,-55.1,-33.7,0,2018,5,10,15,44,0.308,-0.7725,0.0644,0.6307,0.0348
-0.054,-0.952,-0.03,132,-62.7,-69.5,0,2018,5,10,15,44,0.328,-0.7571,0.0787,0.6476,0.0325
0.003,-1.003,0.064,129.7,-67.8,-100.1,0,2018,5,10,15,44,0.332,-0.7416,0.098,0.663,0.0268
0.02,-0.983,0.177,129.2,-57.3,-126.9,0,2018,5,10,15,44,0.37,-0.7257,0.1201,0.6771,0.0172
-0.056,-0.925,0.349,128.1,-26.5,-151.9,0,2018,5,10,15,44,0.392,-0.7095,0.1424,0.69,0.0017
-0.175,-0.773,0.438,118,14,-172.8,0,2018,5,10,15,44,0.396,-0.6941,0.1628,0.7008,-0.0208
-0.301,-0.586,0.433,101.6,60.2,-186.2,1023,2018,5,10,15,44,0.414,-0.6806,0.1797,0.7083,-0.0504
-0.339,-0.368,0.374,81.2,102.2,-190.5,1023,2018,5,10,15,44,0.452,-0.6698,0.1923,0.7119,-0.086
-0.363,-0.207,0.343,61.4,135.3,-186.9,1023,2018,5,10,15,44,0.471,-0.6616,0.2006,0.7114,-0.1253
-0.379,-0.056,0.322,37.6,157.9,-177.2,1023,2018,5,10,15,44,0.475,-0.6561,0.2049,0.7068,-0.1664
-0.326,0.134,0.231,12.2,162.8,-162.4,1023,2018,5,10,15,44,0.515,-0.6535,0.2064,0.6982,-0.2066
-0.255,0.328,0.12,-8.9,146.7,-143.2,1023,2018,5,10,15,44,0.535,-0.6531,0.207,0.6866,-0.2429
-0.179,0.485,0.03,-23.6,113.3,-121.4,1023,2018,5,10,15,44,0.539,-0.6539,0.2086,0.674,-0.2728
-0.118,0.608,-0.016,-34.1,69.7,-99.1,1023,2018,5,10,15,44,0.554,-0.6552,0.2125,0.6621,-0.2949
-0.054,0.671,-0.033,-41.4,25.6,-77.1,1023,2018,5,10,15,44,0.593,-0.6567,0.2193,0.652,-0.3087
-0.047,0.703,-0.073,-47.7,-12.4,-54.9,1023,2018,5,10,15,44,0.613,-0.6584,0.2286,0.6441,-0.3151
-0.098,0.737,-0.122,-53.9,-43.3,-30.6,1023,2018,5,10,15,44,0.617,-0.6605,0.2394,0.6381,-0.3147
-0.176,0.738,-0.186,-62,-70.4,-5.2,1023,2018,5,10,15,44,0.636,-0.6636,0.2512,0.6338,-0.3078
-0.217,0.742,-0.235,-72,-95.2,21.7,0,2018,5,10,15,44,0.657,-0.6677,0.2635,0.6308,-0.2946
-0.323,0.727,-0.291,-82.7,-121.5,52.1,0,2018,5,10,15,44,0.694,-0.6729,0.2759,0.6288,-0.2746
-0.524,0.678,-0.387,-93.8,-152.7,84.6,0,2018,5,10,15,44,0.715,-0.679,0.2887,0.6281,-0.247
-0.615,0.584,-0.444,-98.9,-171.6,118.3,0,2018,5,10,15,44,0.719,-0.6853,0.3009,0.6284,-0.2117
-0.561,0.46,-0.398,-96.4,-157.9,149.7,0,2018,5,10,15,44,0.738,-0.6917,0.3095,0.6294,-0.1718
-0.424,0.29,-0.279,-85.5,-114,170.3,0,2018,5,10,15,44,0.758,-0.6986,0.3107,0.6307,-0.1323
-0.243,0.203,-0.162,-70.4,-70.8,178.5,0,2018,5,10,15,44,0.777,-0.7058,0.304,0.6324,-0.0965
-0.154,0.149,-0.065,-48.2,-27.1,176.6,0,2018,5,10,15,44,0.815,-0.7123,0.2911,0.6351,-0.0661
-0.139,0.188,-0.004,-26.5,15.6,170.2,0,2018,5,10,15,44,0.834,-0.7178,0.2727,0.6391,-0.0421
-0.16,0.215,-0.005,-7.7,57,162.8,0,2018,5,10,15,44,0.839,-0.7222,0.2495,0.6445,-0.0246
-0.154,0.159,-0.033,5.7,94.7,156.8,0,2018,5,10,15,44,0.857,-0.726,0.2216,0.6508,-0.0133
-0.1,0.077,-0.085,14,118,153.2,0,2018,5,10,15,44,0.878,-0.7287,0.1901,0.6578,-0.0061
-0.065,-0.048,-0.153,19.6,130.6,152.1,0,2018,5,10,15,44,0.897,-0.7304,0.1568,0.6646,-0.0016
-0.069,-0.142,-0.159,25.3,126.4,155,0,2018,5,10,15,44,0.937,-0.7309,0.1222,0.6713,0.0022
-0.076,-0.234,-0.088,30,118.6,159.4,0,2018,5,10,15,44,0.957,-0.7297,0.0881,0.6779,0.0073
-0.101,-0.265,0.035,30.5,106.2,163,0,2018,5,10,15,44,0.962,-0.7271,0.0545,0.6841,0.014
-0.084,-0.238,0.103,28.6,75.5,163,0,2018,5,10,15,44,0.98,-0.7237,0.0234,0.6892,0.0236
-0.078,-0.292,0.138,27.9,35,158.4,0,2018,5,10,15,44,0.999,-0.7195,-0.0027,0.6934,0.0372
-0.049,-0.381,0.167,27.7,-1.2,148.3,0,2018,5,10,15,44,1.017,-0.7149,-0.023,0.6966,0.0547
-0.004,-0.488,0.212,28.1,-25.2,133.5,1023,2018,5,10,15,44,1.035,-0.71,-0.038,0.6991,0.0742
0.075,-0.607,0.253,30,-29.1,113.7,1023,2018,5,10,15,44,1.068,-0.7049,-0.0491,0.7013,0.0932
0.117,-0.698,0.3,33.7,-22.3,91.1,1023,2018,5,10,15,44,1.09,-0.6994,-0.0578,0.7038,0.1093
0.088,-0.869,0.384,37.7,11.5,69.2,1023,2018,5,10,15,44,1.096,-0.6935,-0.066,0.7072,0.1203
0.02,-1.011,0.479,39.2,75.3,46.1,1023,2018,5,10,15,44,1.132,-0.6869,-0.0777,0.7121,0.1224
-0.053,-1.044,0.546,36.3,147.6,21.8,1023,2018,5,10,15,44,1.152,-0.6797,-0.0951,0.7184,0.1129
-0.166,-1.065,0.575,29.7,215.6,-2.3,1023,2018,5,10,15,44,1.156,-0.6719,-0.1175,0.7254,0.0916
-0.4,-1.091,0.648,17.1,283.6,-26,1023,2018,5,10,15,44,1.191,-0.6633,-0.1447,0.7318,0.0586
-0.583,-1.043,0.743,-7.9,343.7,-50.1,1023,2018,5,10,15,44,1.211,-0.654,-0.1761,0.7355,0.0136
-0.646,-0.803,0.696,-43.8,364.6,-69.7,1023,2018,5,10,15,44,1.219,-0.6451,-0.209,0.7338,-0.0401
-0.571,-0.529,0.544,-80.8,336.5,-82.8,1023,2018,5,10,15,44,1.258,-0.6384,-0.2379,0.7255,-0.0964
-0.49,-0.342,0.383,-110.5,279.3,-85.8,1023,2018,5,10,15,44,1.278,-0.6355,-0.2593,0.7118,-0.1487
-0.504,-0.276,0.291,-132,223.7,-81.3,1023,2018,5,10,15,44,1.283,-0.6364,-0.273,0.6947,-0.1944
-0.628,-0.311,0.282,-150.6,183,-70.6,1023,2018,5,10,15,44,1.297,-0.6407,-0.2809,0.6751,-0.2339
-0.735,-0.314,0.265,-174.3,148.6,-56.7,1023,2018,5,10,15,44,1.334,-0.6485,-0.2851,0.6526,-0.2683
-0.756,-0.362,0.189,-199.6,100.8,-44.4,0,2018,5,10,15,44,1.354,-0.6608,-0.2844,0.6276,-0.2973
-0.716,-0.421,0.063,-221.6,43.8,-37.8,0,2018,5,10,15,44,1.357,-0.6778,-0.277,0.601,-0.3201
-0.73,-0.468,-0.079,-238.5,-16.8,-40.2,0,2018,5,10,15,44,1.391,-0.6987,-0.2612,0.5744,-0.3368
-0.812,-0.393,-0.272,-255,-88.6,-55,0,2018,5,10,15,44,1.411,-0.7223,-0.2352,0.549,-0.3483
-0.866,-0.25,-0.547,-264.4,-170.7,-82.2,0,2018,5,10,15,44,1.42,-0.7475,-0.1959,0.5263,-0.3546
-0.85,-0.107,-0.822,-262.2,-250.4,-119,0,2018,5,10,15,44,1.455,-0.7712,-0.1422,0.5075,-0.3568
-0.814,0.007,-1.068,-243.6,-321.7,-161.2,0,2018,5,10,15,44,1.475,-0.79,-0.0747,0.4936,-0.3557
-0.874,0.094,-1.213,-209.4,-368.8,-203.9,0,2018,5,10,15,44,1.48,-0.8001,0.0034,0.4849,-0.353
-0.921,0.211,-1.234,-167.5,-380.5,-240.3,0,2018,5,10,15,44,1.514,-0.799,0.0868,0.4801,-0.3511
-0.863,0.34,-1.133,-119.3,-346.2,-262.3,0,2018,5,10,15,44,1.534,-0.7872,0.1673,0.4773,-0.3527
-0.79,0.497,-1.006,-75,-289.3,-264.5,0,2018,5,10,15,44,1.54,-0.7673,0.2384,0.4747,-0.359
-0.789,0.595,-0.911,-36.3,-220.1,-250.7,0,2018,5,10,15,44,1.578,-0.7435,0.2967,0.4715,-0.3696
-0.811,0.687,-0.853,-3.5,-146.6,-225.3,0,2018,5,10,15,44,1.599,-0.7192,0.3407,0.4678,-0.3842
-0.744,0.846,-0.794,22.9,-75.1,-190.3,0,2018,5,10,15,44,1.602,-0.6974,0.3703,0.4637,-0.4017
-0.613,1.012,-0.752,43.5,-18.8,-152.2,0,2018,5,10,15,44,1.638,-0.6795,0.3868,0.4597,-0.4209
-0.497,1.117,-0.713,59,23.5,-110.6,0,2018,5,10,15,44,1.659,-0.6658,0.3927,0.4567,-0.4402
-0.432,1.173,-0.672,72,60.6,-62.4,1023,2018,5,10,15,44,1.664,-0.6568,0.3892,0.4552,-0.458
-0.327,1.148,-0.703,85.6,93.8,-11.2,1023,2018,5,10,15,44,1.702,-0.6529,0.3762,0.4557,-0.4736
-0.258,1.056,-0.717,106.9,123,38.5,1023,2018,5,10,15,44,1.721,-0.6535,0.3541,0.4587,-0.4867
-0.18,1.016,-0.7,132.6,143.3,83.8,1023,2018,5,10,15,44,1.724,-0.6572,0.323,0.4647,-0.4976
-0.18,0.972,-0.581,157.7,153.6,121.4,1023,2018,5,10,15,44,1.759,-0.6622,0.2844,0.474,-0.5056
-0.284,0.878,-0.402,172.5,167.3,152.2,1023,2018,5,10,15,44,1.778,-0.6678,0.2395,0.4856,-0.5106
-0.447,0.686,-0.307,181.1,198.4,178.6,1023,2018,5,10,15,44,1.78,-0.6742,0.1881,0.4964,-0.5133
-0.591,0.284,-0.232,197.4,267,197.4,1023,2018,5,10,15,44,1.813,-0.681,0.1269,0.5033,-0.5165
-0.561,-0.018,-0.269,210,341.9,201.9,1023,2018,5,10,15,44,1.834,-0.686,0.0542,0.5031,-0.5227
-0.502,-0.076,-0.341,225.7,409.6,189.7,1023,2018,5,10,15,44,1.843,-0.6858,-0.0284,0.4949,-0.5328
-0.447,-0.017,-0.478,248,441.9,169.9,0,2018,5,10,15,44,1.879,-0.6769,-0.1171,0.4805,-0.545
-0.595,-0.139,-0.409,267.6,462,138.1,0,2018,5,10,15,44,1.901,-0.6574,-0.2074,0.4632,-0.5568
-0.7,-0.289,-0.061,262.1,524.9,92,0,2018,5,10,15,44,1.902,-0.6254,-0.2987,0.4393,-0.5715
-0.542,-0.027,0.084,235.6,536.3,42.8,0,2018,5,10,15,44,1.942,-0.5809,-0.3859,0.407,-0.5897
-0.308,0.175,0.104,208.3,451.8,5.1,0,2018,5,10,15,44,1.962,-0.5316,-0.4596,0.3744,-0.6048
-0.134,0.119,0.169,186.3,345,-16.7,0,2018,5,10,15,44,1.967,-0.4859,-0.5154,0.3491,-0.6133
-0.041,-0.068,0.268,170.8,296.9,-29.2,0,2018,5,10,15,44,2,-0.4432,-0.5587,0.3317,-0.6174
-0.019,-0.215,0.46,155,309.1,-40.7,0,2018,5,10,15,44,2.02,-0.4002,-0.5963,0.3152,-0.6203
-0.035,-0.222,0.553,131.3,333.9,-50.4,0,2018,5,10,15,44,2.022,-0.3526,-0.6308,0.2944,-0.6253
-0.051,-0.208,0.569,106.7,350.8,-54.7,0,2018,5,10,15,44,2.057,-0.3019,-0.6608,0.2696,-0.6319
-0.061,-0.177,0.594,81.8,363.4,-50.5,0,2018,5,10,15,44,2.077,-0.2493,-0.6862,0.2407,-0.6394
-0.041,-0.185,0.475,62,396.6,-30.2,0,2018,5,10,15,44,2.085,-0.1958,-0.7072,0.2059,-0.6472
-0.128,-0.291,0.595,36,423.9,-12.4,0,2018,5,10,15,44,2.119,-0.14,-0.7244,0.1628,-0.655
-0.215,-0.396,0.812,-8.2,403.7,-2.7,0,2018,5,10,15,44,2.139,-0.0857,-0.734,0.1157,-0.6636
-0.279,-0.282,0.732,-57.1,306.1,5.5,0,2018,5,10,15,44,2.146,-0.0406,-0.734,0.0734,-0.6739
-0.354,-0.511,0.449,-99.1,157.3,20.3,0,2018,5,10,15,44,2.182,-0.0141,-0.7256,0.0444,-0.6865
-0.525,-0.861,0.081,-118.3,64.4,25.7,0,2018,5,10,15,44,2.204,-0.005,-0.7125,0.0287,-0.701
-0.803,-1.021,0.073,-135.6,40.8,12.4,0,2018,5,10,15,44,2.21,-0.0016,-0.6969,0.0198,-0.7168
-0.963,-0.974,-0.029,-159.7,-10.4,-16.5,0,2018,5,10,15,44,2.224,0.0005,-0.6781,0.0177,-0.7346
-0.952,-0.861,-0.121,-182.3,-102.3,-63.7,1023,2018,5,10,15,44,2.246,-0.0012,-0.6555,0.0297,-0.7545
-0.804,-0.777,-0.386,-180.5,-187.3,-133,1023,2018,5,10,15,44,2.264,-0.0056,-0.6301,0.0608,-0.774
-0.651,-0.567,-0.527,-156.3,-244,-202.2,1023,2018,5,10,15,44,2.298,-0.0079,-0.6042,0.1089,-0.7892
-0.52,-0.463,-0.51,-128.3,-288.8,-259.7,1023,2018,5,10,15,44,2.317,-0.0063,-0.5785,0.1703,-0.7976
-0.468,-0.427,-0.472,-96.5,-308.6,-299.6,1023,2018,5,10,15,44,2.326,-0.0005,-0.5525,0.2405,-0.798
-0.488,-0.237,-0.502,-63.5,-287.7,-313.9,1023,2018,5,10,15,44,2.359,0.0108,-0.5267,0.3112,-0.7908
-0.581,0.125,-0.614,-30,-271.3,-305.3,1023,2018,5,10,15,44,2.38,0.0259,-0.5025,0.3776,-0.7772
-0.578,0.335,-0.692,3.1,-244.8,-284.2,1023,2018,5,10,15,44,2.385,0.0425,-0.4813,0.438,-0.758
-0.526,0.465,-0.667,29.5,-186.8,-257.4,1023,2018,5,10,15,44,2.418,0.0616,-0.4636,0.4885,-0.7365
-0.465,0.581,-0.579,50.2,-107.1,-228.1,1023,2018,5,10,15,44,2.44,0.0846,-0.4492,0.5259,-0.7172
-0.441,0.626,-0.484,62.7,-21.6,-200.3,1023,2018,5,10,15,44,2.451,0.1119,-0.4373,0.5492,-0.7031
-0.455,0.7,-0.394,67,50,-174.4,1023,2018,5,10,15,44,2.489,0.1425,-0.4268,0.5598,-0.6957
-0.438,0.756,-0.342,67.2,109.7,-146.4,1023,2018,5,10,15,44,2.508,0.1747,-0.417,0.5598,-0.6943
-0.427,0.834,-0.318,65.3,152.3,-117.8,0,2018,5,10,15,44,2.512,0.207,-0.4079,0.5509,-0.6979
-0.414,0.891,-0.325,63.1,175.3,-89,0,2018,5,10,15,44,2.55,0.2376,-0.3996,0.5354,-0.705
-0.418,0.902,-0.351,62.8,184.1,-57.1,0,2018,5,10,15,44,2.555,0.2651,-0.3928,0.5154,-0.7138
-0.371,0.889,-0.371,64.5,181.2,-22.8,0,2018,5,10,15,44,2.571,0.2882,-0.3885,0.492,-0.7237
-0.348,0.866,-0.392,70.8,168.9,11.4,0,2018,5,10,15,44,2.588,0.3067,-0.3876,0.4666,-0.7334
-0.3,0.853,-0.405,80.3,148.6,46.8,0,2018,5,10,15,44,2.607,0.3197,-0.391,0.44,-0.7424
-0.33,0.813,-0.387,94.2,125.1,84.2,0,2018,5,10,15,44,2.64,0.3273,-0.3996,0.4129,-0.7501
-0.305,0.781,-0.349,108.6,103.6,123.4,0,2018,5,10,15,44,2.661,0.3287,-0.4137,0.3846,-0.7567
-0.272,0.728,-0.329,123,81.1,160.6,0,2018,5,10,15,44,2.668,0.324,-0.4331,0.3552,-0.7623
-0.303,0.658,-0.276,139.2,59.8,193.3,0,2018,5,10,15,44,2.704,0.3136,-0.4573,0.3249,-0.766
-0.372,0.629,-0.167,150.6,44.4,224.9,0,2018,5,10,15,44,2.725,0.2976,-0.4854,0.2929,-0.768
-0.374,0.584,-0.096,156.6,35.8,254.4,0,2018,5,10,15,44,2.731,0.2762,-0.5156,0.259,-0.7685
-0.445,0.408,-0.021,162.2,37.5,274.9,0,2018,5,10,15,44,2.765,0.2505,-0.5465,0.2222,-0.7675
-0.528,0.259,0.077,163.8,50.6,286.9,0,2018,5,10,15,44,2.786,0.223,-0.5764,0.182,-0.7647
-0.637,0.09,0.154,162.9,69.7,291.1,0,2018,5,10,15,44,2.787,0.1952,-0.604,0.1384,-0.7601
-0.677,-0.073,0.195,162.5,105.8,286.9,0,2018,5,10,15,44,2.827,0.1697,-0.6285,0.0902,-0.7536
-0.694,-0.206,0.225,166.4,153.7,272.1,0,2018,5,10,15,44,2.847,0.1491,-0.6494,0.0369,-0.7447
-0.677,-0.319,0.317,171.7,211.2,244.7,1023,2018,5,10,15,44,2.853,0.1369,-0.6669,-0.0205,-0.7321
-0.649,-0.42,0.502,178.6,280.1,204.6,1023,2018,5,10,15,44,2.888,0.1359,-0.6812,-0.0823,-0.7146
-0.571,-0.449,0.741,175.1,344.4,152.5,1023,2018,5,10,15,44,2.907,0.148,-0.6917,-0.1467,-0.6913
-0.471,-0.35,0.899,158.3,375.6,93.2,1023,2018,5,10,15,44,2.912,0.1723,-0.6977,-0.2092,-0.6631
-0.297,-0.161,0.938,130,358.7,36.8,1023,2018,5,10,15,44,2.945,0.2042,-0.6993,-0.2635,-0.6322
-0.101,0.069,0.916,96.9,288.8,-5.2,1023,2018,5,10,15,44,2.965,0.2366,-0.6984,-0.3045,-0.6028
-0.019,0.238,0.963,64.9,201.9,-28.4,1023,2018,5,10,15,44,2.973,0.2638,-0.6971,-0.3309,-0.5786
0.043,0.431,0.934,31.6,92.3,-34.8,1023,2018,5,10,15,44,3.008,0.2822,-0.6968,-0.3437,-0.5626
0.145,0.443,0.84,7.5,-22.1,-27.8,1023,2018,5,10,15,44,3.028,0.2879,-0.699,-0.3437,-0.557
0.19,0.331,0.805,-8.5,-114.2,-17.2,1023,2018,5,10,15,44,3.03,0.2812,-0.7038,-0.3339,-0.5603
0.226,0.109,0.773,-21.4,-173.3,-10.9,1023,2018,5,10,15,44,3.064,0.2651,-0.7101,-0.3169,-0.57
0.252,-0.111,0.758,-31.6,-202.5,-9.6,1023,2018,5,10,15,44,3.085,0.2437,-0.7164,-0.2952,-0.5831
0.223,-0.314,0.764,-40.7,-202.3,-11.1,0,2018,5,10,15,44,3.092,0.2205,-0.7216,-0.2714,-0.5974
0.155,-0.454,0.749,-48.9,-178.6,-13.2,0,2018,5,10,15,44,3.127,0.1992,-0.7245,-0.248,-0.6113
0.062,-0.547,0.724,-55.2,-133.5,-14,0,2018,5,10,15,44,3.148,0.1826,-0.7248,-0.2277,-0.6239
-0.062,-0.6,0.736,-61.7,-72.4,-14.2,0,2018,5,10,15,44,3.153,0.1732,-0.7222,-0.2129,-0.6348
-0.234,-0.54,0.751,-71.1,-13.7,-15.8,0,2018,5,10,15,44,3.191,0.172,-0.7165,-0.2047,-0.6441
-0.379,-0.408,0.655,-83.2,9.7,-20.4,0,2018,5,10,15,44,3.211,0.1766,-0.7084,-0.2004,-0.6532
-0.523,-0.297,0.538,-90.9,3,-27.6,0,2018,5,10,15,44,3.212,0.1831,-0.699,-0.1957,-0.6629
-0.718,-0.27,0.513,-97.5,-6.2,-38.1,0,2018,5,10,15,44,3.247,0.1894,-0.6893,-0.1884,-0.6733
-0.896,-0.241,0.574,-112.5,-9,-54.1,0,2018,5,10,15,44,3.267,0.1971,-0.6787,-0.1787,-0.6844
-0.831,-0.055,0.434,-141.3,-51.7,-76.9,0,2018,5,10,15,44,3.272,0.2055,-0.6663,-0.1633,-0.6978
-0.52,0.018,0.108,-165.7,-127.8,-106.5,0,2018,5,10,15,44,3.309,0.2101,-0.6527,-0.136,-0.7149
-0.387,0.039,-0.138,-170.5,-195.2,-145.7,0,2018,5,10,15,44,3.328,0.21,-0.6406,-0.0953,-0.7323
-0.524,0.111,-0.284,-159.3,-244.5,-191,0,2018,5,10,15,44,3.333,0.209,-0.6294,-0.0419,-0.7472
-0.745,0.223,-0.321,-143.9,-280.4,-236,0,2018,5,10,15,44,3.352,0.2088,-0.6195,0.0217,-0.7563
-0.838,0.289,-0.337,-127.3,-311.8,-275.8,0,2018,5,10,15,44,3.374,0.2094,-0.6097,0.0937,-0.7586
-0.895,0.278,-0.314,-106.9,-318.4,-306.2,0,2018,5,10,15,44,3.411,0.2122,-0.599,0.1708,-0.7529
-0.934,0.264,-0.286,-86.3,-304.7,-322.6,0,2018,5,10,15,44,3.431,0.2178,-0.5865,0.2478,-0.7396
-0.956,0.281,-0.255,-61.8,-275.3,-326.7,0,2018,5,10,15,44,3.434,0.2262,-0.572,0.3208,-0.7201
-0.99,0.404,-0.198,-39.6,-230.8,-319,1023,2018,5,10,15,44,3.468,0.2386,-0.556,0.3859,-0.6963
-0.904,0.633,-0.121,-20.8,-175.4,-298.9,1023,2018,5,10,15,44,3.488,0.2542,-0.5387,0.441,-0.6712
-0.823,0.808,-0.051,-7.1,-115.1,-271.7,1023,2018,5,10,15,44,3.491,0.2729,-0.5207,0.4846,-0.6476
-0.691,1.11,0.04,-4.3,-58,-233,1023,2018,5,10,15,44,3.525,0.2934,-0.5023,0.5168,-0.628
-0.561,1.148,0.063,-11.4,-15.5,-190.3,1023,2018,5,10,15,44,3.545,0.3128,-0.4839,0.5391,-0.6142
-0.514,1.029,0.031,-19.8,16.9,-149.6,1023,2018,5,10,15,44,3.555,0.3298,-0.466,0.5538,-0.606
-0.549,0.948,0.028,-31.1,38.4,-107.6,1023,2018,5,10,15,44,3.59,0.3432,-0.4491,0.5625,-0.6032
-0.568,0.999,0.029,-47.5,53.2,-62.3,1023,2018,5,10,15,44,3.612,0.3518,-0.4339,0.5665,-0.6057
-0.54,1.093,0.013,-66.9,61.7,-16.4,1023,2018,5,10,15,44,3.614,0.3547,-0.4204,0.5667,-0.6133
-0.509,1.128,-0.018,-86.9,60,27.5,1023,2018,5,10,15,44,3.648,0.3511,-0.4089,0.5644,-0.6251
-0.492,1.117,-0.067,-106,49.5,72.7,1023,2018,5,10,15,44,3.67,0.34,-0.3999,0.5606,-0.6403
-0.503,1.048,-0.108,-124.8,28.6,120.4,1023,2018,5,10,15,44,3.677,0.3206,-0.394,0.5561,-0.6577
-0.571,0.971,-0.114,-145.4,-0.7,173,1023,2018,5,10,15,44,3.712,0.2912,-0.3918,0.5516,-0.6762
-0.707,0.906,-0.144,-170.6,-38.8,232.4,0,2018,5,10,15,44,3.732,0.2503,-0.3933,0.5475,-0.6948
-0.876,0.828,-0.244,-196.3,-87.6,295.5,0,2018,5,10,15,44,3.738,0.1957,-0.3983,0.5442,-0.7118
-1.073,0.685,-0.357,-218,-143.3,352,0,2018,5,10,15,44,3.771,0.1268,-0.4064,0.5419,-0.7245
-1.299,0.511,-0.426,-237.5,-205.4,392,0,2018,5,10,15,44,3.793,0.045,-0.4153,0.5408,-0.73
-1.559,0.282,-0.466,-261.5,-269.8,409.4,0,2018,5,10,15,44,3.796,-0.0472,-0.4216,0.5416,-0.7256
-1.641,0.198,-0.581,-284.9,-346.3,402.6,0,2018,5,10,15,44,3.83,-0.1471,-0.4206,0.5456,-0.7097
-1.593,0.147,-0.647,-294.6,-419.6,369.8,0,2018,5,10,15,44,3.849,-0.2499,-0.409,0.554,-0.6805
-1.367,0.025,-0.617,-291.4,-471.2,314,0,2018,5,10,15,44,3.856,-0.3493,-0.385,0.5666,-0.6391
-1.075,-0.164,-0.503,-277.9,-465.4,250.3,0,2018,5,10,15,44,3.892,-0.4382,-0.3501,0.5797,-0.5909
-0.81,-0.157,-0.422,-260.3,-406.9,193.5,0,2018,5,10,15,44,3.914,-0.5125,-0.3097,0.5879,-0.5437
-0.727,0.057,-0.521,-244.1,-341.6,149.1,0,2018,5,10,15,44,3.92,-0.5726,-0.269,0.5894,-0.5023
-0.675,0.183,-0.756,-216.1,-258.7,119.6,0,2018,5,10,15,44,3.959,-0.6205,-0.2319,0.585,-0.4678
-0.597,0.181,-0.948,-186.5,-155.8,104.5,0,2018,5,10,15,44,3.979,-0.6574,-0.2043,0.5747,-0.4422
-0.513,0.109,-1.077,-161.4,-52,99.6,0,2018,5,10,15,44,3.982,-0.6856,-0.1895,0.5587,-0.4263
-0.457,0.061,-1.189,-139.4,29.1,102.4,0,2018,5,10,15,44,3.997,-0.7076,-0.1874,0.5376,-0.4183
-0.376,0.088,-1.308,-123.5,66.1,114,0,2018,5,10,15,44,4.017,-0.7256,-0.1944,0.5139,-0.414
-0.268,0.014,-1.323,-103.7,66.9,134.4,0,2018,5,10,15,44,4.053,-0.7421,-0.206,0.4901,-0.4081
-0.176,-0.019,-1.267,-89.3,24.7,155.4,0,2018,5,10,15,44,4.072,-0.7585,-0.2177,0.4687,-0.3966
-0.185,-0.008,-1.243,-77.2,-52.4,168.5,1023,2018,5,10,15,44,4.079,-0.7768,-0.2234,0.4522,-0.3769
-0.226,-0.09,-1.287,-60.9,-134.1,172.7,1023,2018,5,10,15,44,4.112,-0.7968,-0.2189,0.4422,-0.3485
-0.228,-0.249,-1.265,-37.7,-182.9,171,1023,2018,5,10,15,44,4.134,-0.8166,-0.2063,0.4383,-0.3135
-0.222,-0.356,-1.203,-10.7,-198.6,163,1023,2018,5,10,15,44,4.139,-0.8337,-0.1901,0.439,-0.2755
-0.223,-0.4,-1.153,20.2,-193.8,151.9,1023,2018,5,10,15,44,4.174,-0.8467,-0.1734,0.4435,-0.2371
-0.266,-0.453,-1.093,55.8,-170.5,139.5,1023,2018,5,10,15,44,4.193,-0.8545,-0.1591,0.452,-0.2001
-0.36,-0.54,-1.017,91.9,-137.4,125.8,1023,2018,5,10,15,44,4.201,-0.8569,-0.1491,0.4646,-0.166
-0.442,-0.661,-0.901,123.5,-92.6,109.8,1023,2018,5,10,15,44,4.24,-0.8539,-0.1444,0.4809,-0.1361
-0.442,-0.757,-0.762,148.9,-38.3,91.1,1023,2018,5,10,15,44,4.261,-0.8459,-0.1464,0.5002,-0.1123
-0.386,-0.831,-0.568,166.8,11.6,67.2,1023,2018,5,10,15,44,4.264,-0.8334,-0.1549,0.5217,-0.0956
-0.306,-0.814,-0.377,174.4,33.6,40,1023,2018,5,10,15,44,4.281,-0.8176,-0.1662,0.5445,-0.0855
-0.23,-0.797,-0.183,172.4,29.5,13.7,1023,2018,5,10,15,44,4.3,-0.8,-0.1759,0.5679,-0.0799
-0.264,-0.715,0.014,164.9,-3.6,-9.6,0,2018,5,10,15,44,4.335,-0.7825,-0.1803,0.591,-0.0759
-0.286,-0.733,0.233,145.8,-57.3,-27.4,0,2018,5,10,15,44,4.356,-0.7669,-0.1759,0.6131,-0.0702
-0.239,-0.821,0.315,120.3,-105.8,-40.5,0,2018,5,10,15,44,4.361,-0.7546,-0.1627,0.6326,-0.0618
-0.149,-1.03,0.3,102.5,-135.8,-58,0,2018,5,10,15,44,4.396,-0.745,-0.142,0.6496,-0.0515
-0.114,-1.172,0.323,94.6,-135.7,-77.4,0,2018,5,10,15,44,4.417,-0.7364,-0.1171,0.6649,-0.0422
-0.142,-1.21,0.407,88.9,-113.6,-96.7,0,2018,5,10,15,44,4.423,-0.7273,-0.0914,0.6791,-0.037
-0.177,-1.102,0.46,83.1,-82.4,-118,0,2018,5,10,15,44,4.458,-0.7176,-0.0668,0.6921,-0.0378
-0.212,-0.933,0.426,76.4,-57.5,-140.8,0,2018,5,10,15,44,4.479,-0.7076,-0.0429,0.7037,-0.0448
-0.256,-0.812,0.343,69.4,-32.5,-163,0,2018,5,10,15,44,4.484,-0.6975,-0.0193,0.7139,-0.0576
-0.368,-0.651,0.34,59.8,-6.6,-182.2,0,2018,5,10,15,44,4.501,-0.6873,0.004,0.7222,-0.0761
-0.395,-0.508,0.281,44.8,22.4,-196.9,0,2018,5,10,15,44,4.523,-0.6779,0.0262,0.7278,-0.1001
-0.407,-0.37,0.213,30.3,41,-206.4,0,2018,5,10,15,44,4.559,-0.6693,0.0473,0.7302,-0.1284
-0.413,-0.276,0.139,15.6,48.9,-210.5,0,2018,5,10,15,44,4.578,-0.6617,0.0681,0.7295,-0.1587
-0.421,-0.162,0.093,1,54.3,-209.3,0,2018,5,10,15,44,4.581,-0.6558,0.0889,0.725,-0.1904
-0.44,-0.003,0.048,-13.6,55.1,-204.9,0,2018,5,10,15,44,4.617,-0.6511,0.1085,0.7179,-0.2208
-0.378,0.164,-0.007,-27.1,49.7,-196.8,0,2018,5,10,15,44,4.636,-0.6465,0.1284,0.7092,-0.2497
-0.307,0.297,-0.052,-35.6,40.6,-186.7,0,2018,5,10,15,44,4.643,-0.6427,0.1483,0.699,-0.276
-0.289,0.39,-0.068,-41.6,30.6,-175,0,2018,5,10,15,44,4.676,-0.6393,0.1682,0.6879,-0.2995
-0.287,0.492,-0.081,-47.2,17.2,-161.1,0,2018,5,10,15,44,4.698,-0.6363,0.1879,0.6764,-0.3196
-0.254,0.587,-0.128,-50.5,0.1,-143,1023,2018,5,10,15,44,4.705,-0.6336,0.2076,0.6652,-0.3358
-0.212,0.628,-0.167,-49.1,-13.8,-121,1023,2018,5,10,15,44,4.738,-0.6312,0.2267,0.6552,-0.3475
-0.25,0.749,-0.18,-46.6,-24.1,-93.5,1023,2018,5,10,15,44,4.759,-0.6293,0.2438,0.6467,-0.3552
-0.255,0.841,-0.221,-43,-32.7,-56.9,1023,2018,5,10,15,44,4.763,-0.6283,0.2584,0.6403,-0.358
-0.208,0.882,-0.166,-37.4,-28.9,-17.1,1023,2018,5,10,15,44,4.799,-0.6291,0.2682,0.6363,-0.3568
-0.201,0.838,-0.119,-39.7,-25.4,22.4,1023,2018,5,10,15,44,4.818,-0.6322,0.2731,0.6339,-0.3516
-0.282,0.794,-0.114,-48.5,-26.8,63.7,1023,2018,5,10,15,44,4.825,-0.6385,0.2738,0.6327,-0.3418
-0.4,0.749,-0.211,-59.6,-39.6,108,1023,2018,5,10,15,44,4.863,-0.6481,0.271,0.6326,-0.3259
-0.463,0.712,-0.319,-65.6,-59.2,154.1,1023,2018,5,10,15,44,4.883,-0.66,0.2655,0.6343,-0.3023
-0.488,0.625,-0.325,-65,-77.9,193.3,1023,2018,5,10,15,44,4.887,-0.6729,0.2574,0.6382,-0.2712
-0.446,0.449,-0.298,-62,-83.8,220.5,1023,2018,5,10,15,44,4.928,-0.6856,0.2466,0.6435,-0.2344
-0.326,0.335,-0.224,-57.3,-76.8,232.8,0,2018,5,10,15,44,4.948,-0.6975,0.2329,0.6489,-0.1952
-0.241,0.265,-0.167,-53.2,-63.8,232.3,0,2018,5,10,15,44,4.952,-0.7081,0.2167,0.6535,-0.1564
-0.218,0.231,-0.162,-46.4,-42.5,227.8,0,2018,5,10,15,44,4.968,-0.7174,0.1983,0.6569,-0.1198
-0.256,0.178,-0.169,-34.4,-4.9,222.5,0,2018,5,10,15,44,4.988,-0.7253,0.1761,0.6596,-0.0874
-0.339,-0.255,-0.065,0.5,108.7,206,0,2018,5,10,15,44,5.022,-0.7391,0.08,0.6682,-0.0247
-0.273,-0.3,-0.109,6.6,111.5,197.4,0,2018,5,10,15,44,5.041,-0.7405,0.042,0.6705,-0.0118
-0.217,-0.316,-0.151,14.6,100.2,187.5,0,2018,5,10,15,44,5.043,-0.7399,0.0057,0.6726,0.0004
-0.189,-0.364,-0.071,24.7,86,175.2,0,2018,5,10,15,44,5.076,-0.7371,-0.0275,0.675,0.0129
-0.146,-0.406,0.052,30.8,65.6,159.3,0,2018,5,10,15,44,5.096,-0.7326,-0.0569,0.6777,0.0256
-0.09,-0.446,0.131,33.3,34.7,140.7,0,2018,5,10,15,44,5.108,-0.7273,-0.0809,0.6803,0.0392
-0.028,-0.515,0.146,33.4,1,120.2,0,2018,5,10,15,44,5.143,-0.722,-0.0982,0.6826,0.0542
0.043,-0.621,0.141,33.2,-17.9,99.5,0,2018,5,10,15,44,5.164,-0.717,-0.1095,0.6847,0.0699
0.137,-0.695,0.165,33.9,-14.7,78.2,0,2018,5,10,15,44,5.169,-0.7122,-0.1175,0.6869,0.0836
0.203,-0.744,0.198,35,-3,58.3,0,2018,5,10,15,44,5.206,-0.7072,-0.1239,0.6896,0.0938
0.199,-0.797,0.243,36.1,16.7,40,0,2018,5,10,15,44,5.225,-0.7019,-0.13,0.6931,0.0998
0.145,-0.873,0.318,36.1,47.2,23.8,0,2018,5,10,15,44,5.226,-0.6962,-0.1371,0.6973,0.1006
0.078,-0.892,0.422,31.9,77,8,0,2018,5,10,15,44,5.262,-0.6901,-0.1461,0.7022,0.0956
-0.04,-0.917,0.478,24.3,101.1,-6.3,0,2018,5,10,15,44,5.281,-0.6842,-0.1566,0.707,0.0853
-0.291,-1.045,0.536,14.8,142.3,-20.7,0,2018,5,10,15,44,5.287,-0.6786,-0.1689,0.7113,0.0695
-0.615,-1.228,0.719,-4.2,226.6,-38.3,1023,2018,5,10,15,44,5.321,-0.6725,-0.1868,0.7148,0.0433
-0.895,-1.152,0.8,-38.1,303.4,-62.1,1023,2018,5,10,15,44,5.341,-0.6658,-0.2123,0.7152,0.0028
-0.956,-0.76,0.583,-83.8,300.5,-88.2,1023,2018,5,10,15,44,5.349,-0.661,-0.2383,0.7099,-0.0468
-0.675,-0.433,0.273,-124,247.5,-106,1023,2018,5,10,15,44,5.383,-0.661,-0.2565,0.6984,-0.0966
-0.491,-0.274,0.118,-140.7,195.6,-117.2,1023,2018,5,10,15,44,5.403,-0.6649,-0.2655,0.6835,-0.1421
-0.557,-0.158,0.133,-154,155.1,-126.6,1023,2018,5,10,15,44,5.408,-0.6706,-0.2671,0.667,-0.1838
-0.66,-0.008,0.138,-171.4,101.2,-132.3,1023,2018,5,10,15,44,5.443,-0.6794,-0.2609,0.6488,-0.2221
-0.678,0.094,0.085,-192.2,17.2,-137.3,1023,2018,5,10,15,44,5.464,-0.6921,-0.2452,0.6298,-0.2531
-0.652,0.01,-0.044,-209.7,-82.9,-146.1,1023,2018,5,10,15,44,5.472,-0.709,-0.2164,0.6124,-0.2745
-0.634,-0.118,-0.22,-216.5,-170.5,-162.7,1023,2018,5,10,15,44,5.51,-0.7282,-0.1733,0.5974,-0.2873
-0.686,-0.163,-0.368,-210.7,-229.6,-185.9,1023,2018,5,10,15,44,5.511,-0.7466,-0.118,0.5847,-0.2942
-0.845,-0.063,-0.463,-199.5,-257.6,-210.9,1023,2018,5,10,15,44,5.529,-0.7606,-0.055,0.5736,-0.2989
-0.837,0.145,-0.592,-183.5,-274.9,-228.9,1023,2018,5,10,15,44,5.566,-0.7689,0.0127,0.5629,-0.3026
-0.782,0.304,-0.684,-157.7,-273.8,-239.1,0,2018,5,10,15,44,5.587,-0.7707,0.0817,0.5528,-0.306
-0.735,0.413,-0.754,-128.7,-257.5,-241.1,0,2018,5,10,15,44,5.592,-0.766,0.1482,0.5432,-0.31
-0.728,0.476,-0.773,-98,-222.1,-234.6,0,2018,5,10,15,44,5.626,-0.756,0.2087,0.5339,-0.3156
-0.737,0.535,-0.773,-70.3,-176.2,-223,0,2018,5,10,15,44,5.646,-0.7428,0.2605,0.5248,-0.3238
-0.731,0.594,-0.755,-45.5,-124.9,-208.9,0,2018,5,10,15,44,5.65,-0.7282,0.3026,0.5154,-0.3351
-0.718,0.652,-0.705,-23.7,-69.6,-192.1,0,2018,5,10,15,44,5.684,-0.7139,0.3345,0.5058,-0.3499
-0.695,0.73,-0.672,-6.9,-20.2,-174.2,0,2018,5,10,15,44,5.704,-0.7011,0.3566,0.4957,-0.3679
-0.68,0.819,-0.65,7.3,8.7,-157.4,0,2018,5,10,15,44,5.713,-0.69,0.3712,0.4855,-0.3877
-0.644,0.868,-0.646,21.3,26.9,-139.5,0,2018,5,10,15,44,5.728,-0.6797,0.3802,0.4762,-0.408
-0.583,0.941,-0.603,33.9,34.5,-120.4,0,2018,5,10,15,44,5.749,-0.6701,0.3851,0.4685,-0.4278
-0.499,1.018,-0.594,43.9,34.3,-97.5,0,2018,5,10,15,44,5.788,-0.6609,0.3867,0.4632,-0.4459
-0.475,1.132,-0.559,55.8,34.9,-66.6,0,2018,5,10,15,44,5.808,-0.6527,0.3855,0.4607,-0.4615
-0.512,1.208,-0.506,70.8,49.1,-23,0,2018,5,10,15,44,5.81,-0.6467,0.379,0.4617,-0.4741
-0.503,1.162,-0.494,86.3,72.6,28.8,0,2018,5,10,15,44,5.85,-0.6446,0.3652,0.4658,-0.4837
-0.407,1.049,-0.548,106.1,99.9,85.3,0,2018,5,10,15,44,5.87,-0.6471,0.3421,0.4731,-0.4902
-0.402,0.907,-0.543,135.2,132.5,146,0,2018,5,10,15,44,5.873,-0.6536,0.3085,0.4836,-0.4935
-0.537,0.764,-0.408,168.5,174.8,207,0,2018,5,10,15,44,5.906,-0.6635,0.2622,0.4969,-0.4938
-0.622,0.605,-0.365,197.8,218.4,261.6,1023,2018,5,10,15,44,5.927,-0.6757,0.2022,0.5111,-0.491
-0.713,0.359,-0.379,230.5,258.9,298.9,1023,2018,5,10,15,44,5.934,-0.6872,0.1296,0.5246,-0.4853
-0.821,0.164,-0.284,263.6,314.9,320.7,1023,2018,5,10,15,44,5.969,-0.6946,0.0451,0.5355,-0.4781
-0.871,-0.291,-0.096,291,417.2,313.5,1023,2018,5,10,15,44,5.989,-0.6945,-0.0519,0.5394,-0.4732
-0.829,-0.665,-0.019,300,551.7,266.1,1023,2018,5,10,15,44,5.991,-0.6813,-0.1628,0.5296,-0.4782
-0.694,-0.714,-0.157,289.2,662.5,178.8,1023,2018,5,10,15,44,6.025,-0.6491,-0.28,0.5035,-0.4966
-0.508,-0.382,-0.283,270,675.9,77.7,1023,2018,5,10,15,44,6.046,-0.596,-0.3901,0.4663,-0.5244
-0.32,0.029,-0.19,245.9,586.7,0.6,1023,2018,5,10,15,44,6.056,-0.5304,-0.4798,0.4295,-0.5512
-0.259,0.291,0.061,230.3,474.7,-39.2,1023,2018,5,10,15,44,6.074,-0.4635,-0.5474,0.4006,-0.57
-0.309,0.464,0.406,212.7,389,-57.5,1023,2018,5,10,15,44,6.094,-0.4004,-0.5986,0.3795,-0.5806
-0.35,0.573,0.739,184.4,330.9,-66,1023,2018,5,10,15,44,6.13,-0.3423,-0.6381,0.3627,-0.5864
-0.249,0.552,0.929,152.9,276.6,-64.2,1023,2018,5,10,15,44,6.152,-0.2905,-0.668,0.3485,-0.5897
-0.182,0.39,1.013,125.3,223,-53.2,0,2018,5,10,15,44,6.156,-0.2465,-0.6904,0.3365,-0.5909
-0.018,0.758,1.046,86.5,192.2,-19.2,0,2018,5,10,15,44,6.194,-0.2105,-0.7074,0.324,-0.5916
0.062,-0.223,0.553,107.2,308.4,12.7,0,2018,5,10,15,44,6.214,-0.1765,-0.7249,0.3034,-0.5925
0.018,-0.488,0.261,114.1,532.8,27.7,0,2018,5,10,15,44,6.216,-0.118,-0.7486,0.2594,-0.5985
-0.115,0.147,0.485,102.8,664.1,48,0,2018,5,10,15,44,6.253,-0.0352,-0.77,0.1903,-0.6079
-0.065,0.434,0.874,72.5,548.7,68.8,0,2018,5,10,15,44,6.275,0.0456,-0.7809,0.1154,-0.612
-0.128,0.34,1.031,45.1,399,78.9,0,2018,5,10,15,44,6.279,0.1026,-0.782,0.0546,-0.6122
-0.174,0.124,0.963,21.2,280.2,97.6,0,2018,5,10,15,44,6.296,0.1388,-0.779,0.0061,-0.6113
-0.217,-0.086,0.973,-7.1,191.7,112.5,0,2018,5,10,15,44,6.335,0.1588,-0.7734,-0.033,-0.6127
-0.333,-0.386,1.027,-37.8,126.7,122.8,0,2018,5,10,15,44,6.355,0.1674,-0.7654,-0.065,-0.6178
-0.446,-0.648,0.949,-70.9,85.2,127,0,2018,5,10,15,44,6.359,0.1681,-0.7547,-0.0912,-0.6275
-0.517,-0.863,0.838,-100.9,81.1,125.2,0,2018,5,10,15,44,6.396,0.166,-0.7405,-0.1139,-0.6411
-0.581,-0.926,0.749,-128.8,102.6,120.3,0,2018,5,10,15,44,6.417,0.1666,-0.722,-0.1369,-0.6574
-0.617,-0.927,0.655,-154.6,103.6,113.7,0,2018,5,10,15,44,6.421,0.1697,-0.6992,-0.1594,-0.6758
-0.658,-0.906,0.549,-178.4,78,106.1,0,2018,5,10,15,44,6.44,0.1726,-0.6732,-0.1787,-0.6964
-0.679,-0.9,0.478,-203.9,23.2,93.9,0,2018,5,10,15,44,6.457,0.1723,-0.6446,-0.1908,-0.7198
-0.689,-0.853,0.388,-231.7,-59.2,68.6,0,2018,5,10,15,44,6.495,0.167,-0.6145,-0.1911,-0.7469
-0.653,-0.78,0.192,-257.2,-157,29.1,1023,2018,5,10,15,44,6.5,0.1568,-0.5833,-0.1747,-0.7775
-0.643,-0.659,-0.065,-274.4,-258.5,-19.2,1023,2018,5,10,15,44,6.517,0.1424,-0.5517,-0.1392,-0.8098
-0.636,-0.53,-0.38,-279.9,-362,-75.7,1023,2018,5,10,15,44,6.557,0.1251,-0.5197,-0.0831,-0.8409
-0.6,-0.425,-0.708,-269.6,-448.3,-138.1,1023,2018,5,10,15,44,6.577,0.1069,-0.4876,-0.007,-0.8664
-0.549,-0.287,-0.962,-243.3,-503.3,-196.5,1023,2018,5,10,15,44,6.581,0.0913,-0.4554,0.0845,-0.8815
-0.532,-0.113,-1.107,-200.6,-525.7,-242.2,1023,2018,5,10,15,44,6.601,0.0805,-0.4234,0.1846,-0.8832
-0.622,0.083,-1.12,-149.5,-518,-271.9,1023,2018,5,10,15,44,6.62,0.0757,-0.3929,0.2856,-0.8707
-0.606,0.27,-1.073,-95.2,-481.3,-280.7,1023,2018,5,10,15,44,6.661,0.0772,-0.365,0.3807,-0.846
-0.531,0.409,-0.932,-38.3,-413.2,-270.6,1023,2018,5,10,15,44,6.679,0.0851,-0.3412,0.4636,-0.8132
-0.498,0.469,-0.733,12.4,-317.3,-243.7,1023,2018,5,10,15,44,6.684,0.0988,-0.323,0.5294,-0.7781
-0.577,0.458,-0.52,54.5,-196.9,-205.9,1023,2018,5,10,15,44,6.702,0.1179,-0.3108,0.5752,-0.7473
-0.673,0.452,-0.308,84.4,-59.3,-162.1,0,2018,5,10,15,44,6.742,0.1421,-0.3038,0.5996,-0.7265
-0.632,0.586,-0.192,101.3,68.3,-116.7,0,2018,5,10,15,44,6.762,0.1699,-0.3008,0.6033,-0.7187
-0.503,0.802,-0.137,110.7,185.2,-68.8,0,2018,5,10,15,44,6.766,0.1994,-0.3004,0.5881,-0.7238
-0.381,0.961,-0.153,117.8,278.7,-23.4,0,2018,5,10,15,44,6.78,0.2289,-0.3017,0.556,-0.7398
-0.342,1,-0.226,125.2,344.8,16.4,0,2018,5,10,15,44,6.819,0.2572,-0.304,0.5094,-0.7627
-0.298,1.008,-0.366,137,366.7,52.6,0,2018,5,10,15,44,6.84,0.2828,-0.3078,0.4525,-0.7877
-0.253,1.043,-0.499,158.5,335.9,88.2,0,2018,5,10,15,44,6.844,0.3028,-0.3154,0.3918,-0.8094
-0.316,1.035,-0.488,190.7,281,123.8,0,2018,5,10,15,44,6.863,0.3162,-0.3304,0.3321,-0.8249
-0.373,0.999,-0.352,215.2,210.1,157.1,0,2018,5,10,15,44,6.882,0.3211,-0.3538,0.2768,-0.8336
-0.396,0.951,-0.299,233.1,116.5,180.8,0,2018,5,10,15,44,6.921,0.3166,-0.385,0.2297,-0.8358
-0.498,0.834,-0.172,244.6,38,200,0,2018,5,10,15,44,6.942,0.3025,-0.423,0.1928,-0.832
-0.625,0.623,-0.059,245.5,-8.7,216.4,0,2018,5,10,15,44,6.945,0.2806,-0.4644,0.1623,-0.8241
-0.729,0.439,0.04,235.9,-27.9,228.2,0,2018,5,10,15,44,6.96,0.253,-0.5056,0.1349,-0.8136
-0.697,0.307,0.066,221.4,-23.5,234.9,0,2018,5,10,15,44,6.999,0.2226,-0.5438,0.1081,-0.8018
-0.687,0.085,0.073,211.1,12.5,233.9,0,2018,5,10,15,44,7.02,0.1928,-0.5778,0.0784,-0.7891
-0.697,-0.06,0.11,205.6,76.4,223.8,0,2018,5,10,15,44,7.024,0.1678,-0.6078,0.0413,-0.7749
-0.661,-0.173,0.201,203.6,139.8,207,0,2018,5,10,15,44,7.043,0.1514,-0.6332,-0.0026,-0.7589
-0.622,-0.264,0.339,204.4,199.5,182.7,0,2018,5,10,15,44,7.083,0.1445,-0.6545,-0.0521,-0.7402
-0.57,-0.29,0.527,202,241.9,150.9,0,2018,5,10,15,44,7.102,0.1464,-0.6724,-0.1049,-0.7178
-0.499,-0.271,0.718,193.8,267,113.8,1023,2018,5,10,15,44,7.107,0.156,-0.687,-0.1573,-0.6919
-0.394,-0.218,0.899,177.9,270.7,72.8,1023,2018,5,10,15,44,7.124,0.1717,-0.6984,-0.2058,-0.6635
-0.287,-0.162,1.045,153.7,259.5,31,1023,2018,5,10,15,44,7.163,0.1918,-0.7069,-0.2474,-0.6342
-0.234,-0.034,1.206,117.7,239.7,-7.2,1023,2018,5,10,15,44,7.183,0.2149,-0.7124,-0.2804,-0.6062
-0.178,0.289,1.144,72,168,-31.4,1023,2018,5,10,15,44,7.186,0.2383,-0.7151,-0.3032,-0.5829
-0.001,0.458,0.968,37.5,42.5,-36.1,1023,2018,5,10,15,44,7.223,0.2515,-0.718,-0.3115,-0.5692
0.119,0.355,0.887,18.1,-64.4,-27.4,1023,2018,5,10,15,44,7.226,0.2507,-0.7232,-0.307,-0.5654
0.168,0.191,0.892,4.9,-128.3,-17.3,1023,2018,5,10,15,44,7.244,0.2391,-0.7299,-0.2946,-0.5684
0.189,-0.018,0.93,-8.3,-151.7,-10.7,1023,2018,5,10,15,44,7.263,0.2219,-0.7363,-0.2785,-0.5753
0.161,-0.196,0.932,-21.8,-148,-6.9,1023,2018,5,10,15,44,7.283,0.2037,-0.7408,-0.2615,-0.5841
0.064,-0.349,0.939,-37.1,-118.4,-4.4,0,2018,5,10,15,44,7.303,0.188,-0.7427,-0.2459,-0.5937
-0.042,-0.408,0.926,-55.4,-78.2,-2.7,0,2018,5,10,15,44,7.323,0.1775,-0.7411,-0.2339,-0.6036
-0.077,-0.378,0.834,-72.1,-50.3,-1.5,0,2018,5,10,15,44,7.364,0.172,-0.7363,-0.2251,-0.6144
-0.191,-0.344,0.748,-82.3,-38,-1.1,0,2018,5,10,15,44,7.384,0.1696,-0.7292,-0.218,-0.6259
-0.46,-0.327,0.768,-93.2,-32.7,-1.8,0,2018,5,10,15,44,7.388,0.1687,-0.7206,-0.2114,-0.6383
-0.688,-0.282,0.764,-111.6,-40.5,-6.6,0,2018,5,10,15,44,7.407,0.1686,-0.7102,-0.2039,-0.6522
-0.808,-0.217,0.678,-134.3,-72.2,-19.4,0,2018,5,10,15,44,7.427,0.1675,-0.698,-0.1923,-0.669
-0.728,-0.171,0.479,-160.4,-122.7,-42,0,2018,5,10,15,44,7.466,0.1644,-0.6842,-0.1727,-0.6891
-0.581,-0.133,0.238,-175.8,-182.1,-75.4,0,2018,5,10,15,44,7.471,0.1582,-0.6693,-0.1421,-0.7118
-0.603,-0.065,0.028,-179.4,-237.8,-120.7,0,2018,5,10,15,44,7.487,0.1504,-0.6546,-0.0989,-0.7341
-0.674,0.013,-0.119,-172.2,-281,-171.3,0,2018,5,10,15,44,7.522,0.1422,-0.6411,-0.044,-0.7528
-0.751,0.061,-0.23,-154.2,-313,-220.2,0,2018,5,10,15,44,7.543,0.1357,-0.6271,0.0215,-0.7666
-0.906,0.089,-0.277,-132.2,-324.1,-266.8,0,2018,5,10,15,44,7.547,0.133,-0.6128,0.0945,-0.7731
-0.881,0.103,-0.315,-109,-314.3,-302.1,0,2018,5,10,15,44,7.586,0.1353,-0.5973,0.171,-0.7717
-0.818,0.125,-0.279,-79.5,-277.9,-320.5,0,2018,5,10,15,44,7.605,0.1436,-0.5803,0.2454,-0.763
-0.935,0.153,-0.196,-53.3,-220.3,-326.3,0,2018,5,10,15,44,7.609,0.1589,-0.5623,0.3124,-0.7489
-0.992,0.264,-0.168,-35,-156.8,-321.7,0,2018,5,10,15,44,7.628,0.1805,-0.5428,0.3693,-0.7323
-0.949,0.439,-0.156,-21.4,-93.7,-308.5,0,2018,5,10,15,44,7.666,0.2072,-0.5217,0.4151,-0.7158
-0.887,0.597,-0.14,-12.5,-40.7,-289.4,1023,2018,5,10,15,44,7.687,0.2374,-0.4996,0.4505,-0.7007
-0.87,0.71,-0.137,-10.6,0.5,-268.5,1023,2018,5,10,15,44,7.691,0.2688,-0.4764,0.477,-0.6878
-0.853,0.814,-0.135,-13.5,31.9,-245,1023,2018,5,10,15,44,7.708,0.2997,-0.4523,0.4963,-0.6776
-0.816,0.881,-0.128,-22.4,54.6,-218.6,1023,2018,5,10,15,44,7.727,0.3287,-0.4274,0.5098,-0.6702
-0.79,0.932,-0.125,-34.7,70.1,-189.4,1023,2018,5,10,15,44,7.747,0.3542,-0.402,0.5189,-0.666
-0.808,0.972,-0.13,-50.9,79.4,-157.5,1023,2018,5,10,15,44,7.787,0.3755,-0.3764,0.5246,-0.6647
-0.752,1.041,-0.169,-69.4,75.8,-121.4,1023,2018,5,10,15,44,7.807,0.3912,-0.3513,0.5284,-0.6664
-0.67,1.091,-0.216,-85.1,58.7,-80.5,1023,2018,5,10,15,44,7.811,0.3997,-0.3282,0.5319,-0.6704
-0.636,1.115,-0.234,-98.9,32.8,-33.2,1023,2018,5,10,15,44,7.83,0.4003,-0.3089,0.5361,-0.6758
-0.603,1.115,-0.239,-111.9,1.9,22.8,1023,2018,5,10,15,44,7.849,0.3921,-0.2948,0.5418,-0.6824
-0.577,1.088,-0.266,-122.7,-29.8,89.1,1023,2018,5,10,15,44,7.886,0.3735,-0.2871,0.5487,-0.6905
-0.536,1.001,-0.303,-128.7,-60.4,160.7,0,2018,5,10,15,44,7.908,0.344,-0.287,0.556,-0.7
-0.502,0.885,-0.325,-129,-86.4,228.9,0,2018,5,10,15,44,7.912,0.3033,-0.2945,0.5625,-0.7104
-0.482,0.851,-0.37,-124.1,-115.1,287.2,0,2018,5,10,15,44,7.93,0.2528,-0.3092,0.5675,-0.7198
-0.502,0.817,-0.333,-116.9,-155,331.2,0,2018,5,10,15,44,7.952,0.194,-0.3303,0.5719,-0.7252
-0.601,0.758,-0.226,-119.4,-199.6,362.3,0,2018,5,10,15,44,7.967,0.1274,-0.3555,0.5771,-0.724
-0.72,0.665,-0.182,-129.4,-227.4,386.5,0,2018,5,10,15,44,8.006,0.0535,-0.3813,0.5821,-0.716
-0.975,0.54,-0.12,-147.9,-240,406.8,0,2018,5,10,15,44,8.026,-0.0258,-0.4052,0.5841,-0.7027
-1.309,0.396,-0.177,-175.4,-256.8,422.7,0,2018,5,10,15,44,8.03,-0.1107,-0.425,0.5821,-0.6842
-1.681,0.163,-0.316,-204.6,-262.1,432.2,0,2018,5,10,15,44,8.049,-0.1998,-0.4389,0.5752,-0.6607
-1.85,-0.062,-0.553,-231.6,-263.5,430.5,0,2018,5,10,15,44,8.069,-0.2908,-0.4458,0.562,-0.633
-1.746,-0.247,-0.761,-246.3,-248.2,412.2,0,2018,5,10,15,44,8.109,-0.3794,-0.4457,0.5427,-0.6022
-1.431,-0.701,-0.816,-236.1,-157.7,383.3,0,2018,5,10,15,44,8.13,-0.4591,-0.442,0.5157,-0.5725
-1.067,-0.878,-0.771,-196.1,-30.6,340.3,0,2018,5,10,15,44,8.135,-0.52,-0.4449,0.4777,-0.5507
-0.735,-0.722,-0.885,-141.8,17.3,285.9,0,2018,5,10,15,44,8.169,-0.5629,-0.4539,0.4373,-0.5345
-0.456,-0.646,-0.914,-79.4,-0.2,230.3,0,2018,5,10,15,44,8.172,-0.5936,-0.4639,0.4047,-0.5181
-0.347,-0.675,-0.715,-26.5,-39.6,178.1,0,2018,5,10,15,44,8.19,-0.6166,-0.4714,0.3845,-0.4996
-0.227,-0.794,-0.589,8.6,-86.9,131,0,2018,5,10,15,44,8.225,-0.6355,-0.4738,0.3767,-0.4791
-0.132,-0.83,-0.665,28.3,-117.1,95.2,0,2018,5,10,15,44,8.246,-0.6518,-0.471,0.3783,-0.4582
-0.032,-0.85,-0.715,42,-138.3,73.6,1023,2018,5,10,15,44,8.248,-0.6665,-0.4644,0.3858,-0.4371
-0.01,-0.958,-0.755,48,-130.1,63.8,1023,2018,5,10,15,44,8.284,-0.6794,-0.4564,0.3959,-0.4161
0.076,-0.937,-0.757,51.4,-108.1,58.9,1023,2018,5,10,15,44,8.304,-0.6896,-0.4501,0.4054,-0.3967
0.098,-0.887,-0.766,50.6,-104.4,54.7,1023,2018,5,10,15,44,8.31,-0.698,-0.4448,0.4143,-0.3783
0.065,-0.886,-0.807,52.2,-105.4,52.2,1023,2018,5,10,15,44,8.35,-0.7058,-0.4392,0.4231,-0.3602
-0.062,-0.962,-0.74,61.9,-111.9,46.6,1023,2018,5,10,15,44,8.37,-0.7129,-0.433,0.433,-0.3416
-0.257,-0.984,-0.566,72.2,-131.1,30.2,1023,2018,5,10,15,44,8.374,-0.7189,-0.4249,0.4455,-0.3225
-0.345,-0.829,-0.425,81.9,-194.3,3.8,1023,2018,5,10,15,44,8.41,-0.7255,-0.4102,0.4627,-0.302
-0.35,-0.753,-0.303,94.1,-271.4,-24.4,1023,2018,5,10,15,44,8.412,-0.734,-0.3835,0.4866,-0.2776
-0.311,-0.663,-0.183,107.8,-334,-52,1023,2018,5,10,15,44,8.432,-0.7427,-0.3457,0.5161,-0.2497
-0.276,-0.596,-0.152,121.9,-398.5,-78.3,0,2018,5,10,15,44,8.454,-0.7499,-0.2962,0.5499,-0.2176
-0.292,-0.673,-0.115,128.3,-451.9,-99.9,0,2018,5,10,15,44,8.473,-0.7542,-0.2352,0.5856,-0.1811
-0.272,-0.918,-0.098,132.8,-446.8,-114.6,0,2018,5,10,15,44,8.492,-0.7534,-0.1676,0.6195,-0.1429
-0.276,-1.31,-0.076,139.1,-375.2,-131.4,0,2018,5,10,15,44,8.531,-0.7455,-0.1026,0.6493,-0.1098
-0.35,-1.403,0.024,148,-258.3,-153.1,0,2018,5,10,15,44,8.551,-0.7304,-0.048,0.6752,-0.09
-0.442,-1.307,0.231,148.6,-157.2,-178,0,2018,5,10,15,44,8.556,-0.7109,-0.0048,0.6978,-0.086
-0.471,-1.153,0.398,141.8,-76.9,-201.7,0,2018,5,10,15,44,8.574,-0.6896,0.0303,0.7171,-0.0957
-0.444,-0.838,0.421,130.1,-27.2,-218.3,0,2018,5,10,15,44,8.614,-0.6681,0.0604,0.7325,-0.1156
-0.407,-0.627,0.422,113.2,-0.7,-229.3,0,2018,5,10,15,44,8.634,-0.6472,0.0879,0.7438,-0.1415
-0.352,-0.503,0.421,93.9,15.8,-236.9,0,2018,5,10,15,44,8.638,-0.6275,0.1148,0.751,-0.1703
-0.314,-0.363,0.408,69.9,34.3,-240.3,0,2018,5,10,15,44,8.658,-0.6095,0.1407,0.7536,-0.2013
-0.265,-0.187,0.321,43,55,-240,0,2018,5,10,15,44,8.676,-0.5942,0.1656,0.7514,-0.2339
-0.211,0.034,0.197,16.5,71.7,-233.3,0,2018,5,10,15,44,8.694,-0.5821,0.1887,0.7442,-0.2675
-0.19,0.184,0.118,-5.7,88.8,-218.2,0,2018,5,10,15,44,8.732,-0.5731,0.2095,0.7328,-0.3009
-0.242,0.28,0.072,-25.3,104.7,-197.5,0,2018,5,10,15,44,8.752,-0.5673,0.227,0.7179,-0.3333
-0.315,0.397,0.001,-45.8,109,-173.2,0,2018,5,10,15,44,8.756,-0.565,0.2414,0.7002,-0.3635
-0.281,0.542,-0.085,-62.5,93.3,-145.9,0,2018,5,10,15,44,8.778,-0.5656,0.2541,0.6811,-0.3892
-0.232,0.65,-0.127,-72.1,67.6,-117.9,0,2018,5,10,15,44,8.795,-0.568,0.2663,0.6628,-0.4085
-0.219,0.702,-0.133,-77.2,41.5,-90.3,1023,2018,5,10,15,44,8.836,-0.5717,0.2783,0.6466,-0.4214
-0.26,0.721,-0.127,-80.5,19.2,-64.4,1023,2018,5,10,15,44,8.855,-0.5763,0.2897,0.6326,-0.4284
-0.299,0.758,-0.16,-82.7,-0.5,-38.6,1023,2018,5,10,15,44,8.86,-0.5818,0.3006,0.6211,-0.4303
-0.294,0.761,-0.217,-81.2,-15.3,-11.7,1023,2018,5,10,15,44,8.878,-0.5884,0.3103,0.612,-0.4275
-0.313,0.736,-0.254,-76.9,-20.7,16.8,1023,2018,5,10,15,44,8.898,-0.596,0.3178,0.6055,-0.4208
-0.368,0.714,-0.291,-72.5,-17.7,48.1,1023,2018,5,10,15,44,8.935,-0.6051,0.3218,0.6009,-0.4111
-0.402,0.72,-0.324,-67.5,-14.7,81,1023,2018,5,10,15,44,8.939,-0.6162,0.3216,0.5982,-0.3985
-0.409,0.711,-0.33,-62,-12.6,113.8,1023,2018,5,10,15,44,8.955,-0.6288,0.3173,0.5976,-0.3829
-0.476,0.696,-0.311,-58.3,-12.1,150,1023,2018,5,10,15,44,8.994,-0.643,0.3087,0.599,-0.3636
-0.599,0.657,-0.355,-57.6,-18.2,191,1023,2018,5,10,15,44,9.014,-0.6588,0.2959,0.6024,-0.3396
-0.712,0.592,-0.416,-56,-29.9,230.5,0,2018,5,10,15,44,9.019,-0.6756,0.2795,0.6078,-0.3094
-0.68,0.512,-0.433,-51.6,-42.7,263.1,0,2018,5,10,15,44,9.037,-0.6923,0.2602,0.615,-0.2733
-0.549,0.423,-0.393,-46.1,-52.5,285,0,2018,5,10,15,44,9.058,-0.7076,0.2384,0.6231,-0.2323
-0.483,0.305,-0.324,-41.9,-59.7,294,0,2018,5,10,15,44,9.097,-0.7208,0.2153,0.6313,-0.1881
-0.475,0.165,-0.286,-37.5,-48.8,295.4,0,2018,5,10,15,44,9.117,-0.7317,0.1907,0.6384,-0.1431
-0.531,0.036,-0.239,-28.7,-13.8,289.7,0,2018,5,10,15,44,9.121,-0.7406,0.1628,0.644,-0.1008
-0.549,-0.112,-0.181,-17.1,42.8,278,0,2018,5,10,15,44,9.14,-0.7476,0.1292,0.6481,-0.065
-0.522,-0.243,-0.166,-3.6,102.6,262.3,0,2018,5,10,15,44,9.16,-0.7525,0.0889,0.6514,-0.0379
-0.429,-0.332,-0.22,11.7,147.6,242.7,0,2018,5,10,15,44,9.175,-0.7546,0.0432,0.6543,-0.0193
