ax,ay,az,dpitch,droll,dyaw,heart,time_1,time_2,time_3,time_4,time_5,time_6,w,x,y,z
0.017,-0.029,0.102,31.1,-23.2,11.6,1023,2018,5,17,22,17,30.802,-0.2495,-0.6049,0.3011,-0.6935
0.026,-0.001,0.132,31.5,-25.3,13.4,1023,2018,5,17,22,17,30.823,-0.2521,-0.6074,0.3038,-0.6892
0.046,0.006,0.178,30.4,-33,14.2,1023,2018,5,17,22,17,30.84,-0.2555,-0.6096,0.3067,-0.6848
0.063,-0.017,0.192,29,-38.6,15.9,1023,2018,5,17,22,17,30.856,-0.2596,-0.6123,0.3108,-0.6789
0.052,-0.06,0.205,27.6,-38,18.1,1023,2018,5,17,22,17,30.879,-0.264,-0.6149,0.3149,-0.6729
0.056,-0.08,0.209,25.6,-30.1,21.2,1023,2018,5,17,22,17,30.915,-0.2684,-0.6175,0.3181,-0.6672
0.048,-0.1,0.217,23.4,-20,23.3,1023,2018,5,17,22,17,30.939,-0.2722,-0.6205,0.3199,-0.6621
0.05,-0.105,0.216,21.8,-7.9,24.8,1023,2018,5,17,22,17,30.943,-0.2751,-0.6239,0.3199,-0.6577
0.049,-0.115,0.218,20.7,-2,23.1,1023,2018,5,17,22,17,30.959,-0.2771,-0.6274,0.3189,-0.6539
0.046,-0.113,0.214,19.5,3,20.9,1023,2018,5,17,22,17,30.98,-0.2782,-0.6311,0.3174,-0.6507
0.042,-0.125,0.188,18.6,9,17.7,1023,2018,5,17,22,17,31.018,-0.2785,-0.6347,0.3156,-0.6479
0.034,-0.101,0.179,17.5,12.5,14.7,1023,2018,5,17,22,17,31.041,-0.2779,-0.6382,0.3135,-0.6457
0.04,-0.09,0.175,16,13.5,12.6,1023,2018,5,17,22,17,31.046,-0.2771,-0.6415,0.3113,-0.6439
0.057,-0.049,0.157,14.3,10.7,11.2,0,2018,5,17,22,17,31.06,-0.276,-0.6445,0.3093,-0.6423
0.067,-0.021,0.13,13.2,3.1,10.8,0,2018,5,17,22,17,31.096,-0.2759,-0.6463,0.3078,-0.6413
0.07,-0.012,0.121,13.9,-2.3,12.4,0,2018,5,17,22,17,31.119,-0.2768,-0.6475,0.3068,-0.6402
0.071,0.009,0.106,15.3,-5.3,15.9,0,2018,5,17,22,17,31.124,-0.2783,-0.6489,0.3061,-0.6384
0.065,0.038,0.094,18.2,-8.2,20.4,0,2018,5,17,22,17,31.142,-0.2806,-0.6509,0.3051,-0.6359
0.033,0.06,0.095,21.7,-9.2,25.8,0,2018,5,17,22,17,31.178,-0.2837,-0.6534,0.3038,-0.6325
-0.013,0.084,0.088,25.1,-8.5,32.7,0,2018,5,17,22,17,31.201,-0.2877,-0.6567,0.3018,-0.6283
-0.091,0.095,0.084,29,-7.5,39.6,0,2018,5,17,22,17,31.206,-0.2919,-0.6609,0.2991,-0.6232
-0.148,0.11,0.109,31.4,-5.8,45.9,0,2018,5,17,22,17,31.222,-0.2964,-0.6659,0.2956,-0.6174
-0.217,0.128,0.143,33.2,-5.9,49.1,0,2018,5,17,22,17,31.244,-0.3004,-0.6715,0.2924,-0.6108
-0.295,0.084,0.16,31.9,-6.5,52.1,0,2018,5,17,22,17,31.281,-0.3047,-0.6773,0.2889,-0.604
-0.316,0.036,0.171,28.2,-6.4,52.4,0,2018,5,17,22,17,31.281,-0.31,-0.682,0.2844,-0.5981
-0.345,0.024,0.175,22.4,-13.2,49.6,0,2018,5,17,22,17,31.304,-0.3157,-0.6857,0.2802,-0.5928
-0.372,-0.038,0.224,14.6,-22.3,43.3,0,2018,5,17,22,17,31.32,-0.3218,-0.6887,0.2775,-0.5874
-0.406,-0.145,0.269,6.5,-27.5,33.9,0,2018,5,17,22,17,31.343,-0.3284,-0.6901,0.276,-0.5827
-0.445,-0.261,0.303,-2.8,-28.6,21.3,0,2018,5,17,22,17,31.36,-0.3345,-0.69,0.2757,-0.5795
-0.443,-0.331,0.314,-12.9,-26.2,6,1023,2018,5,17,22,17,31.383,-0.3396,-0.6882,0.2764,-0.5784
-0.367,-0.337,0.3,-23.8,-19.6,-9.2,1023,2018,5,17,22,17,31.402,-0.3429,-0.6849,0.2779,-0.5796
-0.186,-0.315,0.295,-35.3,-8.8,-23.7,1023,2018,5,17,22,17,31.425,-0.3445,-0.6801,0.2795,-0.5835
0,-0.334,0.287,-45.8,8.4,-38.1,1023,2018,5,17,22,17,31.442,-0.3432,-0.6744,0.2808,-0.5902
0.098,-0.352,0.257,-55.3,26.5,-48.8,1023,2018,5,17,22,17,31.465,-0.3391,-0.6679,0.281,-0.5997
0.145,-0.348,0.21,-63.5,41.7,-53.9,0,2018,5,17,22,17,31.502,-0.3326,-0.6611,0.2799,-0.6114
0.141,-0.336,0.173,-69.3,57.2,-54.2,0,2018,5,17,22,17,31.525,-0.3244,-0.654,0.2769,-0.6246
0.095,-0.291,0.161,-75.2,72.7,-51.9,0,2018,5,17,22,17,31.53,-0.3145,-0.6472,0.2717,-0.639
0.075,-0.236,0.118,-82.8,80.1,-48.9,0,2018,5,17,22,17,31.545,-0.3038,-0.6401,0.2643,-0.6542
0.035,-0.215,0.04,-88.8,75.5,-46.4,0,2018,5,17,22,17,31.562,-0.2937,-0.632,0.2559,-0.6699
0.017,-0.21,-0.032,-94,60.2,-44.3,0,2018,5,17,22,17,31.601,-0.2851,-0.6225,0.248,-0.6852
-0.004,-0.216,-0.09,-97,42,-44.6,0,2018,5,17,22,17,31.601,-0.2786,-0.6114,0.2419,-0.6999
-0.051,-0.199,-0.126,-99.2,25.4,-48.6,0,2018,5,17,22,17,31.624,-0.2738,-0.5988,0.2378,-0.714
-0.047,-0.188,-0.167,-100.7,11,-56.1,0,2018,5,17,22,17,31.644,-0.2697,-0.5848,0.2362,-0.7275
-0.033,-0.17,-0.217,-99.5,1.1,-65.8,0,2018,5,17,22,17,31.662,-0.2657,-0.5695,0.2368,-0.7408
-0.013,-0.161,-0.274,-95.8,-5.4,-75.3,0,2018,5,17,22,17,31.685,-0.2611,-0.5536,0.2396,-0.7536
0.005,-0.125,-0.306,-89.4,-8.6,-84.2,0,2018,5,17,22,17,31.704,-0.2553,-0.5374,0.2438,-0.7657
0.012,-0.088,-0.341,-70.3,-0.2,-93.6,0,2018,5,17,22,17,31.725,-0.2395,-0.507,0.2547,-0.7877
0.005,-0.062,-0.338,-59,10.9,-94.4,0,2018,5,17,22,17,31.741,-0.2289,-0.4941,0.2595,-0.7975
-0.037,-0.009,-0.327,-48.3,21.9,-93.7,0,2018,5,17,22,17,31.764,-0.2171,-0.4828,0.263,-0.8065
-0.095,0.013,-0.331,-39,34.9,-90.3,0,2018,5,17,22,17,31.786,-0.204,-0.4733,0.2648,-0.8149
-0.147,0.052,-0.335,-32.4,46.3,-85.8,0,2018,5,17,22,17,31.803,-0.1899,-0.4655,0.2648,-0.8228
-0.185,0.094,-0.35,-25.9,53.3,-80.4,0,2018,5,17,22,17,31.826,-0.1756,-0.4589,0.263,-0.8302
-0.258,0.119,-0.338,-18.8,60.5,-73.9,1023,2018,5,17,22,17,31.844,-0.1612,-0.4537,0.26,-0.8369
-0.295,0.178,-0.342,-11.7,67,-65.3,1023,2018,5,17,22,17,31.867,-0.1469,-0.4499,0.2555,-0.8429
-0.29,0.278,-0.378,-2.2,69.9,-55.3,1023,2018,5,17,22,17,31.886,-0.1333,-0.4478,0.2496,-0.8481
-0.251,0.393,-0.38,8.9,70.6,-44.5,1023,2018,5,17,22,17,31.907,-0.1202,-0.4478,0.2431,-0.8519
-0.223,0.462,-0.432,20.1,62.7,-29.5,1023,2018,5,17,22,17,31.926,-0.1091,-0.4497,0.2359,-0.8544
-0.237,0.472,-0.502,31.9,44,-11.1,1023,2018,5,17,22,17,31.949,-0.1012,-0.4537,0.2297,-0.855
-0.256,0.487,-0.559,44.6,10.3,8.9,1023,2018,5,17,22,17,31.969,-0.0975,-0.4598,0.2262,-0.8531
-0.288,0.492,-0.559,55.9,-35.1,31,1023,2018,5,17,22,17,31.988,-0.0999,-0.4678,0.2271,-0.8482
-0.23,0.442,-0.504,65.4,-79,51.8,1023,2018,5,17,22,17,32.011,-0.1087,-0.4775,0.2333,-0.84
-0.108,0.388,-0.445,72.5,-115.6,66.8,1023,2018,5,17,22,17,32.027,-0.1232,-0.4879,0.2438,-0.8289
-0.058,0.323,-0.405,78.4,-144.1,75.7,1023,2018,5,17,22,17,32.046,-0.1418,-0.4988,0.258,-0.8151
-0.063,0.225,-0.365,83.1,-160.4,81.5,1023,2018,5,17,22,17,32.07,-0.1628,-0.5098,0.2749,-0.7987
-0.039,0.163,-0.289,85,-152.6,85.1,1023,2018,5,17,22,17,32.087,-0.1846,-0.5207,0.2916,-0.7808
-0.002,0.118,-0.214,83.2,-120.1,85.8,1023,2018,5,17,22,17,32.124,-0.2046,-0.5317,0.305,-0.763
-0.01,0.059,-0.178,82,-74.9,85.9,1023,2018,5,17,22,17,32.124,-0.2207,-0.5436,0.3126,-0.7469
-0.036,0.002,-0.178,80.6,-34,86.6,1023,2018,5,17,22,17,32.147,-0.2326,-0.5567,0.3143,-0.7329
-0.033,-0.048,-0.131,77.7,-5.6,86.4,1023,2018,5,17,22,17,32.183,-0.2411,-0.5707,0.3113,-0.7205
-0.026,-0.055,-0.054,72.8,5.5,84.9,1023,2018,5,17,22,17,32.204,-0.247,-0.5852,0.3064,-0.7089
-0.049,-0.032,0.006,68.6,-6.4,81.9,0,2018,5,17,22,17,32.209,-0.2531,-0.5984,0.301,-0.6979
-0.074,-0.029,0.039,66.6,-36.2,77.3,0,2018,5,17,22,17,32.246,-0.2615,-0.6095,0.2982,-0.6863
-0.118,-0.058,0.073,64.9,-71.1,72.9,0,2018,5,17,22,17,32.267,-0.2727,-0.6183,0.2999,-0.6732
-0.116,-0.098,0.108,63.1,-101.5,69,0,2018,5,17,22,17,32.269,-0.2871,-0.6244,0.3056,-0.6589
-0.059,-0.151,0.144,59.6,-124,65.9,0,2018,5,17,22,17,32.305,-0.304,-0.6289,0.3144,-0.6427
0.017,-0.216,0.179,55.4,-135,63.6,0,2018,5,17,22,17,32.325,-0.3224,-0.6317,0.3249,-0.6255
0.078,-0.278,0.223,51,-127.3,62.4,0,2018,5,17,22,17,32.328,-0.3408,-0.6333,0.3352,-0.6084
0.138,-0.326,0.253,47.3,-104.4,62.4,0,2018,5,17,22,17,32.366,-0.3574,-0.635,0.3435,-0.5923
0.15,-0.337,0.258,45.6,-69.1,63.2,0,2018,5,17,22,17,32.388,-0.3708,-0.6379,0.3482,-0.578
0.197,-0.336,0.298,45.2,-27.9,64.5,0,2018,5,17,22,17,32.391,-0.3797,-0.6433,0.3489,-0.5658
0.252,-0.307,0.342,44,10.3,63.6,0,2018,5,17,22,17,32.428,-0.3841,-0.651,0.3452,-0.5561
0.323,-0.277,0.391,41.1,35.5,59.7,0,2018,5,17,22,17,32.452,-0.3848,-0.6604,0.3386,-0.5485
0.38,-0.236,0.446,35.6,41.8,52.5,0,2018,5,17,22,17,32.455,-0.3834,-0.67,0.3307,-0.5427
0.354,-0.198,0.548,24.8,20.4,37,0,2018,5,17,22,17,32.473,-0.3822,-0.6776,0.3242,-0.5381
0.339,-0.192,0.592,7.5,-29.2,14.5,1023,2018,5,17,22,17,32.492,-0.3843,-0.6801,0.3228,-0.5342
0.36,-0.383,0.633,-11,-54.1,-3.7,1023,2018,5,17,22,17,32.515,-0.3904,-0.677,0.3263,-0.5316
0.392,-0.481,0.634,-29.8,-51.5,-17.8,1023,2018,5,17,22,17,32.531,-0.3973,-0.6704,0.3311,-0.5318
0.464,-0.53,0.643,-44.8,-33.3,-29.1,1023,2018,5,17,22,17,32.567,-0.4027,-0.6622,0.3352,-0.5355
0.544,-0.526,0.621,-55.3,-3,-32.7,1023,2018,5,17,22,17,32.59,-0.405,-0.6541,0.3369,-0.5426
0.612,-0.511,0.57,-60.9,23,-34.2,1023,2018,5,17,22,17,32.595,-0.4043,-0.6471,0.3354,-0.5523
0.621,-0.552,0.413,-57.8,44.6,-30.6,1023,2018,5,17,22,17,32.611,-0.4011,-0.6414,0.3314,-0.5636
-0.027,-0.702,0.373,-43.8,78.1,-18.9,1023,2018,5,17,22,17,32.65,-0.3949,-0.6391,0.3246,-0.5745
-0.272,-0.73,0.417,-47.6,128.1,-1.9,1023,2018,5,17,22,17,32.65,-0.385,-0.6409,0.3121,-0.586
-0.79,-0.684,0.298,-53.5,152.8,4.8,1023,2018,5,17,22,17,32.673,-0.3717,-0.6454,0.2933,-0.5992
-1.525,-0.811,0.106,-68.3,142.4,4.7,0,2018,5,17,22,17,32.708,-0.3582,-0.6489,0.2732,-0.6131
-1.813,-0.902,-0.156,-95.6,99.3,-7.1,0,2018,5,17,22,17,32.731,-0.3482,-0.6475,0.2547,-0.6281
-1.685,-0.781,-0.386,-131,33.6,-49.5,0,2018,5,17,22,17,32.735,-0.3428,-0.6376,0.2436,-0.6453
-1.156,-0.425,-0.351,-150.4,-9.5,-102.2,0,2018,5,17,22,17,32.753,-0.339,-0.6185,0.2426,-0.666
-0.844,-0.205,-0.341,-153.4,-28.8,-168.3,0,2018,5,17,22,17,32.776,-0.3317,-0.5932,0.2506,-0.6892
-0.743,-0.028,-0.358,-145.3,-24.5,-224.7,0,2018,5,17,22,17,32.792,-0.3169,-0.5643,0.2656,-0.7144
-0.601,0.045,-0.373,-127.8,-17.4,-257.7,0,2018,5,17,22,17,32.811,-0.2945,-0.5341,0.2849,-0.7393
-0.575,-0.033,-0.406,-111.7,13.2,-263.7,0,2018,5,17,22,17,32.835,-0.2663,-0.5048,0.3032,-0.763
-0.606,-0.057,-0.515,-96.5,54.2,-249.8,0,2018,5,17,22,17,32.853,-0.234,-0.4784,0.3161,-0.785
-0.521,0.048,-0.604,-87.8,92.4,-222.6,0,2018,5,17,22,17,32.876,-0.2001,-0.4552,0.3216,-0.8057
-0.337,0.284,-0.636,-79.5,112.7,-186.1,0,2018,5,17,22,17,32.895,-0.1676,-0.4354,0.3197,-0.8246
-0.166,0.399,-0.617,-70.5,116.4,-154.9,0,2018,5,17,22,17,32.914,-0.1386,-0.4182,0.3135,-0.8411
-0.083,0.445,-0.571,-62.1,108.1,-132,0,2018,5,17,22,17,32.934,-0.113,-0.4032,0.3055,-0.8551
-0.091,0.454,-0.496,-53,91.1,-114.5,0,2018,5,17,22,17,32.972,-0.0906,-0.3899,0.2979,-0.8665
-0.105,0.51,-0.458,-45.7,63.4,-101.4,0,2018,5,17,22,17,32.972,-0.0716,-0.378,0.2927,-0.8753
-0.086,0.538,-0.463,-36.9,32.9,-88.6,0,2018,5,17,22,17,32.995,-0.0562,-0.3674,0.2911,-0.8814
-0.112,0.527,-0.496,-24.8,4.5,-73.3,0,2018,5,17,22,17,33.013,-0.0441,-0.3587,0.2933,-0.885
-0.205,0.422,-0.519,-5.5,-20.6,-50.7,0,2018,5,17,22,17,33.031,-0.036,-0.3531,0.2986,-0.8858
-0.249,0.344,-0.475,9.8,-34.9,-27.8,0,2018,5,17,22,17,33.053,-0.0316,-0.3514,0.3054,-0.8844
-0.269,0.298,-0.38,25.7,-44.2,-5.5,0,2018,5,17,22,17,33.091,-0.0307,-0.353,0.3127,-0.8812
-0.26,0.272,-0.276,40.9,-52,16.5,1023,2018,5,17,22,17,33.114,-0.0327,-0.3584,0.3199,-0.8764
-0.197,0.254,-0.221,53.1,-63.2,32.9,1023,2018,5,17,22,17,33.119,-0.0376,-0.3667,0.3273,-0.87
-0.147,0.251,-0.183,62,-75,40.9,1023,2018,5,17,22,17,33.137,-0.0445,-0.3771,0.3358,-0.8619
-0.092,0.211,-0.134,70.5,-77.2,45.8,1023,2018,5,17,22,17,33.154,-0.0522,-0.3891,0.345,-0.8525
-0.095,0.073,-0.081,77.6,-62.8,47.1,1023,2018,5,17,22,17,33.177,-0.0595,-0.4022,0.3531,-0.8425
-0.098,-0.051,-0.039,83.7,-22.3,50.2,1023,2018,5,17,22,17,33.197,-0.0648,-0.4174,0.3571,-0.833
-0.096,-0.081,0.003,87.2,28.1,52.7,1023,2018,5,17,22,17,33.232,-0.0666,-0.4335,0.3541,-0.8259
-0.087,-0.075,0.016,87.3,67.8,53,1023,2018,5,17,22,17,33.255,-0.0648,-0.45,0.3441,-0.8214
-0.068,-0.052,0.02,83.9,85.4,50.9,1023,2018,5,17,22,17,33.259,-0.0608,-0.4663,0.3298,-0.8185
-0.049,-0.021,0.038,78.7,81.3,47.4,1023,2018,5,17,22,17,33.275,-0.0561,-0.4816,0.3146,-0.816
-0.021,0.037,0.092,71.1,58.6,42.9,1023,2018,5,17,22,17,33.296,-0.0526,-0.4951,0.3011,-0.8132
0.021,0.051,0.129,62.5,26.2,38.4,1023,2018,5,17,22,17,33.333,-0.0513,-0.5068,0.292,-0.8094
0.056,0.024,0.151,54,-1.8,34.8,0,2018,5,17,22,17,33.356,-0.0525,-0.5169,0.2878,-0.8044
0.097,-0.028,0.141,47.4,-15.6,33.8,0,2018,5,17,22,17,33.36,-0.0557,-0.5256,0.2866,-0.799
0.119,-0.096,0.12,44.9,-10.4,35.7,0,2018,5,17,22,17,33.377,-0.0596,-0.5335,0.2859,-0.7937
0.124,-0.121,0.115,44,10.4,38.9,0,2018,5,17,22,17,33.4,-0.0626,-0.5415,0.2829,-0.7891
0.093,-0.12,0.108,43.6,37.4,42.1,0,2018,5,17,22,17,33.418,-0.0637,-0.5498,0.2762,-0.7856
0.087,-0.111,0.087,42.5,61.3,43.2,0,2018,5,17,22,17,33.436,-0.0627,-0.5583,0.2655,-0.7834
0.063,-0.131,0.074,41.2,71,37.6,0,2018,5,17,22,17,33.46,-0.0598,-0.5666,0.2527,-0.7819
0.038,-0.221,0.05,41.6,78.8,28.2,0,2018,5,17,22,17,33.478,-0.0551,-0.5744,0.2397,-0.7807
0.013,-0.271,0.038,41.5,94.6,15.3,0,2018,5,17,22,17,33.499,-0.0476,-0.5817,0.2261,-0.7798
0.014,-0.229,0.044,41.3,111.8,-1.2,0,2018,5,17,22,17,33.516,-0.0364,-0.5884,0.2116,-0.7795
-0.004,-0.2,0.061,40.4,126.8,-17.8,0,2018,5,17,22,17,33.539,-0.0212,-0.5942,0.1965,-0.7795
0.009,-0.175,0.051,37.2,138.4,-31.9,0,2018,5,17,22,17,33.556,-0.0025,-0.5989,0.1811,-0.7799
0.024,-0.153,0.023,32.7,143.1,-42.2,0,2018,5,17,22,17,33.58,0.0186,-0.6023,0.166,-0.7805
0.053,-0.11,-0.004,26.9,137.9,-49.7,0,2018,5,17,22,17,33.598,0.0416,-0.604,0.1526,-0.781
0.084,-0.061,-0.034,20.7,124.3,-55,0,2018,5,17,22,17,33.621,0.064,-0.6046,0.1409,-0.7813
0.089,-0.02,-0.059,15.7,107.7,-57.8,0,2018,5,17,22,17,33.639,0.0848,-0.6044,0.1316,-0.7811
0.084,0.024,-0.064,11.7,92.3,-59,0,2018,5,17,22,17,33.662,0.1038,-0.6036,0.1244,-0.7805
0.085,0.058,-0.085,8.9,78.4,-59,1023,2018,5,17,22,17,33.698,0.121,-0.6025,0.119,-0.7797
0.091,0.077,-0.103,7.1,65.9,-58,1023,2018,5,17,22,17,33.719,0.1365,-0.6014,0.1152,-0.7786
0.101,0.1,-0.148,9.2,46.8,-51,1023,2018,5,17,22,17,33.721,0.1629,-0.5996,0.1111,-0.7755
0.088,0.109,-0.17,13.5,42.1,-44.2,1023,2018,5,17,22,17,33.755,0.1741,-0.5989,0.1098,-0.7738
0.061,0.109,-0.186,19.6,42.4,-35.4,1023,2018,5,17,22,17,33.776,0.1842,-0.5991,0.1077,-0.7716
0.036,0.111,-0.196,27.5,47.8,-24.7,1023,2018,5,17,22,17,33.781,0.1934,-0.6002,0.1041,-0.769
0.009,0.106,-0.207,37,57.7,-12.2,1023,2018,5,17,22,17,33.799,0.2019,-0.6024,0.0978,-0.7659
-0.007,0.107,-0.212,47.3,68.8,1.3,1023,2018,5,17,22,17,33.818,0.21,-0.6057,0.0883,-0.7623
-0.034,0.104,-0.211,57.4,79.4,14.1,1023,2018,5,17,22,17,33.838,0.2176,-0.61,0.0756,-0.7581
-0.064,0.099,-0.198,66.6,87.4,25.9,1023,2018,5,17,22,17,33.876,0.2246,-0.6153,0.0599,-0.7531
-0.096,0.108,-0.175,74.2,86.7,34.8,1023,2018,5,17,22,17,33.899,0.2307,-0.6213,0.0423,-0.7475
-0.114,0.105,-0.131,79.5,77.1,41,1023,2018,5,17,22,17,33.904,0.2352,-0.6282,0.0242,-0.7411
-0.132,0.087,-0.097,81.1,58.6,43.4,1023,2018,5,17,22,17,33.919,0.2374,-0.6359,0.0075,-0.7342
-0.14,0.064,-0.076,79.2,35.4,45.2,1023,2018,5,17,22,17,33.943,0.2367,-0.6444,-0.0069,-0.727
-0.146,0.016,-0.044,75.5,15.4,48,1023,2018,5,17,22,17,33.981,0.2329,-0.6536,-0.0189,-0.7198
-0.132,-0.039,-0.028,69.3,4.3,50.7,0,2018,5,17,22,17,33.981,0.2272,-0.6624,-0.0286,-0.7132
-0.102,-0.089,-0.012,63.8,2.7,52.9,0,2018,5,17,22,17,34.005,0.2209,-0.6705,-0.0373,-0.7072
-0.075,-0.13,0.015,59.6,10.4,55.4,0,2018,5,17,22,17,34.026,0.2151,-0.6774,-0.0461,-0.7018
-0.046,-0.147,0.052,56.4,20.9,56.2,0,2018,5,17,22,17,34.041,0.2105,-0.6833,-0.056,-0.6968
-0.024,-0.16,0.09,54,30.8,55.6,0,2018,5,17,22,17,34.077,0.2068,-0.6882,-0.0673,-0.692
-0.023,-0.165,0.124,52.8,40.4,53.4,0,2018,5,17,22,17,34.099,0.2039,-0.6926,-0.0801,-0.6871
-0.028,-0.175,0.15,51.2,49.6,50.4,0,2018,5,17,22,17,34.104,0.2024,-0.6964,-0.0937,-0.6819
-0.031,-0.189,0.152,49.3,58.6,46.5,0,2018,5,17,22,17,34.121,0.2024,-0.6996,-0.1078,-0.6766
-0.016,-0.203,0.152,47,66.9,42,0,2018,5,17,22,17,34.144,0.2039,-0.7022,-0.1224,-0.671
0,-0.204,0.165,44.8,75.7,36.8,0,2018,5,17,22,17,34.179,0.2071,-0.7041,-0.1372,-0.6652
0.001,-0.197,0.189,41.4,84,30.9,0,2018,5,17,22,17,34.202,0.2119,-0.7053,-0.1522,-0.6591
0.001,-0.176,0.191,37.3,90.3,24.5,0,2018,5,17,22,17,34.207,0.2185,-0.7057,-0.1671,-0.6528
0.02,-0.156,0.176,32.3,91.1,17.3,0,2018,5,17,22,17,34.225,0.2263,-0.7055,-0.1813,-0.6465
0.018,-0.135,0.173,27.3,85.7,10.4,0,2018,5,17,22,17,34.248,0.2347,-0.7048,-0.1942,-0.6405
0.014,-0.111,0.179,20.3,74.8,4,1023,2018,5,17,22,17,34.264,0.243,-0.7039,-0.205,-0.6351
0.044,-0.095,0.147,12.3,58.8,-1.2,1023,2018,5,17,22,17,34.283,0.2505,-0.7027,-0.2132,-0.6307
0.08,-0.09,0.109,6,40.2,-5.7,1023,2018,5,17,22,17,34.301,0.2566,-0.7017,-0.2186,-0.6276
0.062,-0.107,0.072,0,22.9,-9.2,1023,2018,5,17,22,17,34.324,0.2611,-0.7009,-0.2211,-0.6257
0.076,-0.083,0.029,-3.8,10.2,-10.3,1023,2018,5,17,22,17,34.343,0.2651,-0.7003,-0.2208,-0.6249
0.12,-0.028,-0.029,-4.3,-0.2,-10,1023,2018,5,17,22,17,34.366,0.2675,-0.7002,-0.2193,-0.6245
0.134,-0.03,-0.053,-2.7,-7,-8,1023,2018,5,17,22,17,34.403,0.2683,-0.7008,-0.2173,-0.6241
0.179,-0.044,-0.056,0,-8.8,-4.5,1023,2018,5,17,22,17,34.403,0.2683,-0.7019,-0.2152,-0.6236
0.188,-0.083,-0.018,4.5,-5.3,-0.3,1023,2018,5,17,22,17,34.426,0.2682,-0.7031,-0.2136,-0.6228
0.151,-0.123,0.027,9.6,3.2,4.5,1023,2018,5,17,22,17,34.444,0.2686,-0.7042,-0.2131,-0.6216
0.044,-0.142,0.064,14.8,11.7,8.7,1023,2018,5,17,22,17,34.467,0.2684,-0.705,-0.2153,-0.62
0.008,-0.144,0.088,18.4,20.8,10.7,1023,2018,5,17,22,17,34.485,0.2687,-0.7056,-0.2191,-0.6178
-0.032,-0.142,0.112,20.5,31.8,10.6,1023,2018,5,17,22,17,34.508,0.27,-0.7061,-0.2242,-0.6149
-0.045,-0.148,0.118,22.7,42.8,10.3,0,2018,5,17,22,17,34.527,0.2727,-0.7062,-0.2306,-0.6112
-0.064,-0.172,0.133,25.3,55.1,8.7,0,2018,5,17,22,17,34.55,0.2767,-0.706,-0.2381,-0.6067
-0.09,-0.202,0.162,26.7,72.4,6.2,0,2018,5,17,22,17,34.567,0.2827,-0.7053,-0.247,-0.6012
-0.105,-0.208,0.204,27.6,93.1,4.5,0,2018,5,17,22,17,34.603,0.2911,-0.7038,-0.2577,-0.5944
-0.105,-0.207,0.231,27.4,113.7,3.4,0,2018,5,17,22,17,34.626,0.3022,-0.7011,-0.2704,-0.5864
-0.078,-0.182,0.253,26.2,131.7,2,0,2018,5,17,22,17,34.631,0.3157,-0.697,-0.2847,-0.5773
-0.013,-0.145,0.234,24.5,143.7,-0.3,0,2018,5,17,22,17,34.646,0.3311,-0.6917,-0.3001,-0.5672
-0.008,-0.128,0.253,23,152,-3.6,0,2018,5,17,22,17,34.669,0.3478,-0.6853,-0.3158,-0.5563
-0.032,-0.097,0.246,17.1,154.3,-6.7,0,2018,5,17,22,17,34.687,0.3655,-0.678,-0.3312,-0.5448
-0.018,-0.067,0.218,10.4,147.7,-11.2,0,2018,5,17,22,17,34.709,0.3834,-0.6699,-0.3453,-0.5337
0.026,-0.052,0.186,4,134.8,-15.9,0,2018,5,17,22,17,34.745,0.4005,-0.6618,-0.3572,-0.5233
0.038,-0.082,0.177,0.9,128.5,-20,0,2018,5,17,22,17,34.768,0.417,-0.6538,-0.3671,-0.5135
-0.019,-0.092,0.154,-3.7,129,-23.4,0,2018,5,17,22,17,34.772,0.4336,-0.6456,-0.3759,-0.5037
-0.058,-0.107,0.081,-8.2,132.3,-26.2,0,2018,5,17,22,17,34.787,0.4509,-0.6366,-0.3839,-0.4938
-0.196,-0.129,-0.015,-11,137.1,-26.2,0,2018,5,17,22,17,34.805,0.4694,-0.6268,-0.391,-0.4835
-0.326,-0.167,-0.097,-13.5,146.1,-20.8,1023,2018,5,17,22,17,34.828,0.4879,-0.6159,-0.3989,-0.4726
-0.317,-0.139,-0.167,-14.6,152.7,-16.7,1023,2018,5,17,22,17,34.848,0.5063,-0.6036,-0.4079,-0.4613
-0.275,-0.129,-0.197,-13.7,151,-15,1023,2018,5,17,22,17,34.868,0.5241,-0.5905,-0.4171,-0.4499
-0.18,-0.109,-0.199,-10.8,148.7,-13.4,1023,2018,5,17,22,17,34.891,0.5414,-0.5766,-0.4262,-0.4388
-0.119,-0.063,-0.191,-8.4,145.1,-12.5,1023,2018,5,17,22,17,34.909,0.5578,-0.5627,-0.4352,-0.4274
-0.049,-0.009,-0.239,-8.1,128.9,-12.3,1023,2018,5,17,22,17,34.927,0.5726,-0.5495,-0.4433,-0.4164
0.008,0.023,-0.282,-5.2,106.2,-12.3,0,2018,5,17,22,17,34.95,0.5849,-0.5385,-0.45,-0.4066
0.1,0.033,-0.286,-3,81.6,-10.3,0,2018,5,17,22,17,34.987,0.5945,-0.5297,-0.4551,-0.3984
0.214,0.02,-0.263,-2.2,64.8,-6.7,0,2018,5,17,22,17,35.009,0.6018,-0.5227,-0.459,-0.392
0.287,0.014,-0.239,-1.1,56.7,-1.9,0,2018,5,17,22,17,35.014,0.6078,-0.5165,-0.4625,-0.3869
0.325,0.02,-0.247,-0.2,51.9,3.9,0,2018,5,17,22,17,35.029,0.6128,-0.5105,-0.4661,-0.3827
0.357,0.032,-0.237,2.3,49.5,10.2,0,2018,5,17,22,17,35.048,0.6168,-0.5044,-0.4702,-0.3794
0.368,0.053,-0.197,6.3,48.2,16.3,0,2018,5,17,22,17,35.071,0.6199,-0.4982,-0.475,-0.3764
0.356,0.065,-0.152,10,44.2,21.8,0,2018,5,17,22,17,35.087,0.6221,-0.4919,-0.4806,-0.374
0.325,0.057,-0.111,14.3,36.3,26.8,0,2018,5,17,22,17,35.111,0.6229,-0.4863,-0.4867,-0.3722
0.24,0.017,-0.092,18.1,26.2,31.7,0,2018,5,17,22,17,35.13,0.6217,-0.4822,-0.4933,-0.3707
0.185,-0.017,-0.068,21.1,20,36.9,0,2018,5,17,22,17,35.152,0.6194,-0.4788,-0.4999,-0.3702
0.096,-0.052,-0.024,23.5,19.2,39.2,0,2018,5,17,22,17,35.17,0.6166,-0.4754,-0.5065,-0.3702
-0.009,-0.098,0.013,22.3,20.6,37.7,0,2018,5,17,22,17,35.193,0.614,-0.4717,-0.5131,-0.3702
-0.19,-0.156,0.004,18.8,24.9,33.5,0,2018,5,17,22,17,35.212,0.6121,-0.4678,-0.5191,-0.3698
-0.398,-0.219,-0.042,14.8,35.7,26.2,0,2018,5,17,22,17,35.235,0.6114,-0.4636,-0.5249,-0.3682
-0.569,-0.228,-0.069,8.7,48.2,15.1,0,2018,5,17,22,17,35.253,0.6125,-0.4585,-0.5304,-0.3649
-0.8,-0.245,-0.125,2,57.6,3.7,0,2018,5,17,22,17,35.274,0.6156,-0.4529,-0.535,-0.3599
-0.932,-0.259,-0.167,-2.5,66.2,-5.3,0,2018,5,17,22,17,35.29,0.6203,-0.447,-0.5389,-0.3534
-0.976,-0.24,-0.174,-2,74.9,-8.7,0,2018,5,17,22,17,35.308,0.6261,-0.4404,-0.5426,-0.3455
-1.04,-0.267,-0.182,4,80.1,-4.2,0,2018,5,17,22,17,35.331,0.632,-0.4332,-0.5472,-0.3367
-0.907,-0.193,-0.253,15.1,80.6,5.6,0,2018,5,17,22,17,35.349,0.6365,-0.4253,-0.5535,-0.3278
-0.614,0.045,-0.292,31.8,72.7,13.5,0,2018,5,17,22,17,35.372,0.639,-0.4173,-0.5614,-0.3196
-0.385,0.294,-0.221,47.9,63.4,23.8,0,2018,5,17,22,17,35.39,0.6388,-0.4101,-0.5711,-0.312
-0.156,0.295,-0.145,52.6,48.6,32.9,1023,2018,5,17,22,17,35.413,0.6361,-0.4038,-0.5819,-0.3059
0.158,0.337,-0.142,46.2,21.1,36.7,1023,2018,5,17,22,17,35.432,0.6315,-0.3988,-0.5918,-0.3027
0.447,0.457,-0.18,35.8,-22.5,35.1,1023,2018,5,17,22,17,35.456,0.6253,-0.3973,-0.5988,-0.3039
0.523,0.532,-0.216,22.9,-74.4,30.3,1023,2018,5,17,22,17,35.472,0.6171,-0.4008,-0.6016,-0.3106
0.412,0.461,-0.24,12.5,-119.4,25.5,1023,2018,5,17,22,17,35.494,0.6067,-0.4094,-0.5999,-0.3228
0.344,0.336,-0.216,1.2,-143.7,23.7,1023,2018,5,17,22,17,35.533,0.5949,-0.4214,-0.5946,-0.3388
0.313,0.293,-0.144,-6.7,-144.2,27.3,1023,2018,5,17,22,17,35.556,0.5829,-0.4336,-0.5872,-0.3567
0.294,0.248,-0.1,-9.3,-131.2,33.9,1023,2018,5,17,22,17,35.561,0.5712,-0.4438,-0.5799,-0.3746
0.265,0.184,-0.101,-8.3,-113.2,38,1023,2018,5,17,22,17,35.575,0.5601,-0.4516,-0.5737,-0.3911
0.245,0.093,-0.094,-3.3,-95.2,39.1,1023,2018,5,17,22,17,35.594,0.5498,-0.4573,-0.569,-0.4057
0.219,0.051,-0.064,3.7,-82,36.2,0,2018,5,17,22,17,35.632,0.5396,-0.462,-0.5661,-0.418
0.225,0.045,-0.015,12.5,-73.8,31.9,0,2018,5,17,22,17,35.655,0.5294,-0.4665,-0.5644,-0.4282
0.207,0.033,0.053,22.3,-61.4,28.8,0,2018,5,17,22,17,35.659,0.5198,-0.4707,-0.5635,-0.4365
0.177,0.037,0.089,30.9,-48.7,27.9,0,2018,5,17,22,17,35.675,0.5108,-0.4741,-0.5638,-0.443
0.172,0.023,0.082,37.9,-41.4,29.1,0,2018,5,17,22,17,35.693,0.5018,-0.4773,-0.5655,-0.4477
0.19,-0.015,0.09,43.9,-36.5,33.7,0,2018,5,17,22,17,35.717,0.4924,-0.4804,-0.5683,-0.4513
0.172,-0.104,0.142,47.8,-31.4,38.4,0,2018,5,17,22,17,35.735,0.4826,-0.4832,-0.5721,-0.4541
0.191,-0.129,0.188,48.7,-23.8,44,0,2018,5,17,22,17,35.758,0.4721,-0.4852,-0.5775,-0.4562
0.219,-0.134,0.239,50,-11.9,49.8,0,2018,5,17,22,17,35.775,0.4618,-0.4858,-0.584,-0.4577
0.189,-0.152,0.293,49.5,2,52.4,0,2018,5,17,22,17,35.811,0.4521,-0.4848,-0.5921,-0.458
0.136,-0.17,0.338,44.8,7.3,48.4,0,2018,5,17,22,17,35.832,0.4438,-0.4827,-0.6005,-0.4575
0.125,-0.194,0.39,36.3,0,38.4,0,2018,5,17,22,17,35.845,0.4364,-0.481,-0.6076,-0.457
0.168,-0.206,0.446,23.6,-13.4,25.1,0,2018,5,17,22,17,35.874,0.4303,-0.4803,-0.6118,-0.4578
0.227,-0.239,0.535,8.8,-24,9.2,0,2018,5,17,22,17,35.875,0.4257,-0.481,-0.6128,-0.46
0.324,-0.302,0.607,-6.7,-30.9,-9.1,0,2018,5,17,22,17,35.913,0.4235,-0.4829,-0.6105,-0.4631
0.413,-0.362,0.639,-21.1,-32.2,-29.3,0,2018,5,17,22,17,35.936,0.424,-0.4862,-0.6052,-0.4662
0.443,-0.4,0.673,-31.3,-24.9,-47.8,0,2018,5,17,22,17,35.941,0.4276,-0.4902,-0.5974,-0.4687
0.422,-0.42,0.697,-40.8,-4.9,-59.3,0,2018,5,17,22,17,35.957,0.4347,-0.4939,-0.5886,-0.4695
0.34,-0.405,0.638,-47.2,25.2,-61.4,0,2018,5,17,22,17,35.98,0.4452,-0.4957,-0.5808,-0.4675
0.158,-0.456,0.53,-51.7,55.3,-54,1023,2018,5,17,22,17,35.996,0.4586,-0.4941,-0.5751,-0.4632
-0.022,-0.483,0.412,-58.1,84.2,-40.1,1023,2018,5,17,22,17,36.015,0.474,-0.4886,-0.5723,-0.457
-0.313,-0.482,0.265,-66.1,94.5,-23,1023,2018,5,17,22,17,36.038,0.4904,-0.4791,-0.5717,-0.4505
-0.546,-0.5,0.108,-77.6,81.5,-8.7,1023,2018,5,17,22,17,36.057,0.5061,-0.4672,-0.5712,-0.4462
-0.804,-0.57,-0.059,-91.1,56.8,-2.5,1023,2018,5,17,22,17,36.077,0.5204,-0.4549,-0.5687,-0.4457
-0.712,-0.551,-0.187,-108.9,27.6,-12,1023,2018,5,17,22,17,36.095,0.534,-0.4438,-0.5622,-0.4489
-0.581,-0.406,-0.249,-118.2,4.9,-44.2,1023,2018,5,17,22,17,36.118,0.5483,-0.4363,-0.5503,-0.4539
-0.559,-0.228,-0.36,-122,-9.9,-86.3,1023,2018,5,17,22,17,36.137,0.5646,-0.4334,-0.5332,-0.457
-0.477,-0.013,-0.48,-117.1,-12.2,-129.7,1023,2018,5,17,22,17,36.16,0.5833,-0.4351,-0.5118,-0.4564
-0.316,0.228,-0.53,-103.1,-6.1,-169,1023,2018,5,17,22,17,36.177,0.6044,-0.4403,-0.4881,-0.45
-0.197,0.283,-0.531,-88.4,7.6,-189.4,1023,2018,5,17,22,17,36.201,0.6264,-0.4479,-0.4638,-0.4378
-0.134,0.224,-0.512,-76.5,24.1,-194,1023,2018,5,17,22,17,36.237,0.6486,-0.4551,-0.4408,-0.4216
-0.109,0.325,-0.599,-67,32.4,-182.3,1023,2018,5,17,22,17,36.26,0.67,-0.4608,-0.4195,-0.4033
-0.041,0.45,-0.624,-56.2,30.9,-153.4,1023,2018,5,17,22,17,36.265,0.6885,-0.4648,-0.4008,-0.3861
0.043,0.477,-0.555,-46.1,31.5,-120.1,1023,2018,5,17,22,17,36.281,0.7035,-0.4669,-0.3858,-0.3715
0.101,0.51,-0.471,-38.9,22.9,-96.7,0,2018,5,17,22,17,36.303,0.7154,-0.4679,-0.3736,-0.3599
0.116,0.709,-0.481,-30.6,1.6,-76.9,0,2018,5,17,22,17,36.32,0.724,-0.4697,-0.3629,-0.351
0.166,0.8,-0.459,-20.7,-17.9,-54.5,0,2018,5,17,22,17,36.338,0.7287,-0.4735,-0.3538,-0.3455
0.186,0.735,-0.423,-16.4,-20.3,-38.1,0,2018,5,17,22,17,36.359,0.7308,-0.4778,-0.3465,-0.3425
0.228,0.65,-0.409,-15.7,-9.7,-25.1,0,2018,5,17,22,17,36.397,0.7323,-0.4807,-0.341,-0.3408
0.221,0.575,-0.398,-15.4,6.9,-12.5,0,2018,5,17,22,17,36.419,0.7343,-0.481,-0.3374,-0.3398
0.154,0.66,-0.419,-15.1,22.4,6.3,0,2018,5,17,22,17,36.424,0.7367,-0.4784,-0.336,-0.3397
-0.107,0.587,-0.359,-13.8,37.2,32.9,0,2018,5,17,22,17,36.44,0.7389,-0.4724,-0.3376,-0.3416
-0.338,0.495,-0.463,-13.6,19.5,64.6,0,2018,5,17,22,17,36.464,0.7393,-0.4645,-0.3417,-0.3473
-0.655,0.39,-0.467,-1.8,-33.3,93.9,0,2018,5,17,22,17,36.482,0.7344,-0.46,-0.3467,-0.3587
-1.268,0.357,-0.384,18,-115.9,122.8,0,2018,5,17,22,17,36.501,0.7209,-0.4632,-0.3519,-0.3764
-1.588,0.195,-0.292,36.5,-236.7,148.4,0,2018,5,17,22,17,36.523,0.6954,-0.4786,-0.3543,-0.4021
-1.123,0.086,-0.1,58.2,-342.2,154.8,0,2018,5,17,22,17,36.541,0.6556,-0.5076,-0.3514,-0.4345
-0.713,-0.035,0.266,83.2,-376.2,142.2,1023,2018,5,17,22,17,36.559,0.6056,-0.5448,-0.344,-0.4668
-0.515,-0.128,0.657,85.7,-317.5,115.9,1023,2018,5,17,22,17,36.598,0.5554,-0.58,-0.3361,-0.4919
-0.434,-0.193,0.499,72.6,-207.1,100,1023,2018,5,17,22,17,36.62,0.5136,-0.6058,-0.3313,-0.5092
-0.389,-0.447,0.289,65,-23.9,88.1,1023,2018,5,17,22,17,36.624,0.4891,-0.6163,-0.337,-0.5169
-0.405,-0.348,0.088,53.3,151.7,73.2,1023,2018,5,17,22,17,36.641,0.4863,-0.6106,-0.3574,-0.5126
-0.243,-0.308,-0.001,37.2,251.7,71.5,1023,2018,5,17,22,17,36.665,0.4995,-0.5921,-0.387,-0.5
-0.073,-0.112,0.056,24.9,274.8,80.3,1023,2018,5,17,22,17,36.681,0.5189,-0.5658,-0.4196,-0.4841
0.062,0.127,0.183,19,225.7,87.7,1023,2018,5,17,22,17,36.704,0.5353,-0.5373,-0.4505,-0.4708
0.106,0.322,0.325,12.3,102.7,80.3,1023,2018,5,17,22,17,36.722,0.5426,-0.5158,-0.4734,-0.464
0.194,0.305,0.349,2.7,-53.9,61.8,1023,2018,5,17,22,17,36.745,0.538,-0.5085,-0.4821,-0.4684
0.236,0.229,0.273,-8,-180.7,39.7,1023,2018,5,17,22,17,36.763,0.5231,-0.5154,-0.4757,-0.4839
0.27,0.11,0.182,-17.7,-261.6,27.3,1023,2018,5,17,22,17,36.786,0.5006,-0.532,-0.4578,-0.5065
0.282,-0.029,0.119,-23.6,-298.7,23.4,1023,2018,5,17,22,17,36.804,0.473,-0.5524,-0.4325,-0.5328
0.277,-0.19,0.076,-28.6,-292,24,0,2018,5,17,22,17,36.827,0.4433,-0.5721,-0.4042,-0.5592
0.268,-0.296,0.035,-31.5,-250.3,23.8,0,2018,5,17,22,17,36.844,0.4154,-0.5878,-0.3772,-0.5826
0.238,-0.35,-0.001,-31.5,-194.3,21.6,0,2018,5,17,22,17,36.879,0.3921,-0.5987,-0.3544,-0.6017
0.181,-0.374,-0.019,-29.3,-138,15.6,0,2018,5,17,22,17,36.902,0.3746,-0.6053,-0.3369,-0.6161
0.118,-0.366,-0.007,-25.5,-90,7.3,0,2018,5,17,22,17,36.906,0.3631,-0.6088,-0.3242,-0.6262
-0.002,-0.342,0.02,-21,-57.3,-3.9,0,2018,5,17,22,17,36.922,0.3566,-0.6107,-0.315,-0.6328
-0.162,-0.313,0.055,-17.2,-38.5,-16.1,0,2018,5,17,22,17,36.943,0.3538,-0.612,-0.3076,-0.6367
-0.288,-0.278,0.08,-13.7,-30.7,-29.7,0,2018,5,17,22,17,36.964,0.3536,-0.6136,-0.3004,-0.6387
-0.264,-0.215,0.107,-12.9,-31.5,-43.7,0,2018,5,17,22,17,36.984,0.3551,-0.616,-0.2923,-0.6394
-0.155,-0.144,0.124,-13.2,-36.7,-59.8,0,2018,5,17,22,17,37.023,0.3579,-0.6192,-0.282,-0.6393
-0.058,-0.099,0.116,-15.8,-41.7,-76.3,0,2018,5,17,22,17,37.046,0.3629,-0.623,-0.2684,-0.6387
-0.011,-0.076,0.112,-19.6,-36.6,-90.9,0,2018,5,17,22,17,37.051,0.3695,-0.6269,-0.2527,-0.6375
-0.014,-0.058,0.084,-24,-16,-100.8,0,2018,5,17,22,17,37.064,0.3789,-0.6299,-0.237,-0.6351
-0.058,-0.013,0.043,-28,15.5,-105.6,0,2018,5,17,22,17,37.084,0.3918,-0.6309,-0.2235,-0.6312
-0.136,0.038,-0.009,-32.1,49.5,-104.8,0,2018,5,17,22,17,37.106,0.408,-0.6292,-0.2136,-0.626
-0.174,0.132,-0.055,-37.7,81.4,-96.3,0,2018,5,17,22,17,37.125,0.4273,-0.6242,-0.2077,-0.6201
-0.155,0.223,-0.072,-41.7,99.4,-82.4,0,2018,5,17,22,17,37.148,0.4484,-0.616,-0.2048,-0.6143
-0.1,0.332,-0.082,-44.2,102.6,-64.4,0,2018,5,17,22,17,37.166,0.4688,-0.6057,-0.2045,-0.6094
-0.046,0.397,-0.085,-43.4,85.4,-45,0,2018,5,17,22,17,37.188,0.4861,-0.595,-0.2052,-0.6061
-0.034,0.411,-0.073,-41.4,49.4,-27.8,1023,2018,5,17,22,17,37.205,0.4984,-0.586,-0.205,-0.6049
-0.009,0.395,-0.058,-38.7,1.6,-12.9,1023,2018,5,17,22,17,37.228,0.5046,-0.5803,-0.202,-0.6064
0.015,0.375,-0.061,-36.4,-46.2,0,1023,2018,5,17,22,17,37.264,0.5042,-0.5785,-0.1955,-0.6105
0.005,0.355,-0.096,-35,-82.8,12.7,1023,2018,5,17,22,17,37.288,0.4979,-0.5803,-0.1859,-0.6169
-0.016,0.324,-0.148,-36.3,-108.5,24,1023,2018,5,17,22,17,37.293,0.4873,-0.5841,-0.1741,-0.6252
-0.026,0.292,-0.202,-38.7,-122.6,35.2,1023,2018,5,17,22,17,37.305,0.4734,-0.5887,-0.161,-0.635
-0.03,0.261,-0.236,-42.3,-128.4,45.6,1023,2018,5,17,22,17,37.343,0.457,-0.5932,-0.1478,-0.6459
-0.023,0.223,-0.258,-46.3,-130.7,54.9,1023,2018,5,17,22,17,37.366,0.4389,-0.5971,-0.1348,-0.6577
-0.014,0.188,-0.266,-49.2,-134.2,63.4,1023,2018,5,17,22,17,37.371,0.4192,-0.6001,-0.1221,-0.6701
-0.025,0.156,-0.276,-51.3,-143.4,71.7,1023,2018,5,17,22,17,37.386,0.3977,-0.6026,-0.1092,-0.6831
-0.048,0.12,-0.288,-52.4,-157.2,80,1023,2018,5,17,22,17,37.409,0.3737,-0.6051,-0.0955,-0.6964
-0.064,0.089,-0.303,-52.8,-172.5,86.7,1023,2018,5,17,22,17,37.427,0.347,-0.6075,-0.0806,-0.7098
-0.088,0.061,-0.314,-52.5,-186.8,91.3,1023,2018,5,17,22,17,37.45,0.3174,-0.6103,-0.0645,-0.7229
-0.106,0.029,-0.334,-50.7,-197.7,95.1,1023,2018,5,17,22,17,37.468,0.2856,-0.6128,-0.047,-0.7352
-0.138,0.004,-0.369,-47,-203.9,97.3,0,2018,5,17,22,17,37.491,0.2521,-0.6152,-0.0288,-0.7463
-0.143,-0.048,-0.397,-41.5,-206.3,99.1,0,2018,5,17,22,17,37.51,0.2172,-0.6175,-0.0105,-0.7558
-0.146,-0.097,-0.394,-33.5,-199.4,100.2,0,2018,5,17,22,17,37.532,0.1822,-0.6196,0.0071,-0.7634
-0.111,-0.136,-0.377,-24.6,-184,100.4,0,2018,5,17,22,17,37.569,0.1481,-0.6215,0.0228,-0.7689
-0.072,-0.171,-0.363,-14.5,-164,100.6,0,2018,5,17,22,17,37.569,0.1157,-0.6233,0.0358,-0.7724
-0.035,-0.177,-0.348,-3.4,-146.5,99.7,0,2018,5,17,22,17,37.591,0.0856,-0.6255,0.0461,-0.774
-0.01,-0.213,-0.321,10.7,-126.1,96.2,0,2018,5,17,22,17,37.61,0.058,-0.6285,0.054,-0.7736
0.012,-0.221,-0.283,24.6,-107.3,91.8,0,2018,5,17,22,17,37.646,0.0333,-0.6328,0.0594,-0.7712
0.016,-0.231,-0.24,37.9,-90.3,86.4,0,2018,5,17,22,17,37.646,0.0111,-0.6384,0.0628,-0.767
0.002,-0.255,-0.186,49.7,-77.1,80,0,2018,5,17,22,17,37.669,-0.0082,-0.6452,0.0649,-0.7611
-0.025,-0.284,-0.091,58.1,-63.4,74.2,0,2018,5,17,22,17,37.708,-0.0253,-0.6531,0.0658,-0.7539
-0.04,-0.3,0,61.5,-49,69,0,2018,5,17,22,17,37.73,-0.04,-0.6615,0.0654,-0.7459
-0.017,-0.265,0.019,61.1,-48.3,62.1,0,2018,5,17,22,17,37.735,-0.0529,-0.6698,0.0645,-0.7377
-0.019,-0.261,0.031,58.6,-60.4,53.5,0,2018,5,17,22,17,37.768,-0.0657,-0.6776,0.0654,-0.7295
-0.032,-0.28,0.069,52.8,-76,44.8,0,2018,5,17,22,17,37.768,-0.079,-0.6844,0.0692,-0.7214
-0.037,-0.302,0.141,44.8,-89.8,35.4,0,2018,5,17,22,17,37.791,-0.0931,-0.6897,0.0757,-0.7139
-0.015,-0.311,0.213,36.4,-100.3,25.2,0,2018,5,17,22,17,37.809,-0.1075,-0.6935,0.0847,-0.7072
-0.002,-0.315,0.268,29,-107.5,13.7,1023,2018,5,17,22,17,37.828,-0.1217,-0.6958,0.096,-0.7012
0.004,-0.317,0.306,23.4,-110.5,2.4,1023,2018,5,17,22,17,37.851,-0.1352,-0.6967,0.1091,-0.6959
0.007,-0.326,0.314,17.9,-107.5,-7.9,1023,2018,5,17,22,17,37.888,-0.1474,-0.6964,0.1234,-0.6913
-0.001,-0.323,0.318,13,-100.9,-17.5,1023,2018,5,17,22,17,37.911,-0.1578,-0.6953,0.138,-0.6874
-0.013,-0.322,0.32,8.3,-91.4,-25.8,1023,2018,5,17,22,17,37.915,-0.1663,-0.6933,0.1526,-0.6843
-0.014,-0.316,0.341,4,-76.4,-31.7,1023,2018,5,17,22,17,37.933,-0.1724,-0.6908,0.1665,-0.682
-0.002,-0.301,0.344,0.3,-56.7,-36.1,1023,2018,5,17,22,17,37.951,-0.1761,-0.688,0.1786,-0.6808
0.013,-0.284,0.33,-3.4,-33.9,-38.2,1023,2018,5,17,22,17,37.974,-0.1768,-0.6853,0.1885,-0.6808
0.023,-0.258,0.312,-5.6,-9.8,-39.5,1023,2018,5,17,22,17,37.993,-0.1746,-0.6828,0.1956,-0.6818
0.028,-0.226,0.307,-7.6,13.1,-39.4,1023,2018,5,17,22,17,38.016,-0.1695,-0.6808,0.1999,-0.6838
0.018,-0.184,0.293,-10,32.1,-38.3,1023,2018,5,17,22,17,38.034,-0.1622,-0.6791,0.2015,-0.6868
0.007,-0.133,0.275,-12.6,44.8,-37.3,1023,2018,5,17,22,17,38.058,-0.1532,-0.6776,0.201,-0.6905
-0.007,-0.087,0.261,-15.9,49.3,-36.2,1023,2018,5,17,22,17,38.076,-0.1434,-0.6758,0.1993,-0.6948
-0.015,-0.039,0.245,-20.4,45.5,-35.3,1023,2018,5,17,22,17,38.092,-0.1338,-0.6736,0.1972,-0.6995
-0.024,0,0.221,-24.9,34.9,-35.1,0,2018,5,17,22,17,38.129,-0.1254,-0.6705,0.1959,-0.7044
-0.028,0.039,0.21,-29.6,17.9,-36.5,0,2018,5,17,22,17,38.151,-0.1187,-0.6665,0.1963,-0.7092
-0.023,0.064,0.185,-33.7,0,-38.3,0,2018,5,17,22,17,38.156,-0.1139,-0.6615,0.1991,-0.7139
-0.019,0.072,0.156,-36.7,-15.7,-40.1,0,2018,5,17,22,17,38.174,-0.1112,-0.6555,0.204,-0.7185
-0.007,0.097,0.13,-37.9,-25,-40.4,0,2018,5,17,22,17,38.212,-0.1097,-0.6489,0.2106,-0.7227
0.001,0.114,0.105,-37.1,-26.2,-39.2,0,2018,5,17,22,17,38.235,-0.1089,-0.6422,0.2178,-0.7267
0,0.122,0.085,-34.9,-21.6,-36.3,0,2018,5,17,22,17,38.239,-0.1081,-0.6357,0.2245,-0.7305
-0.004,0.143,0.064,-31.2,-12.8,-31.1,0,2018,5,17,22,17,38.257,-0.107,-0.6298,0.2298,-0.7341
-0.019,0.174,0.034,-27.1,-4.5,-24,0,2018,5,17,22,17,38.277,-0.1054,-0.6248,0.2334,-0.7375
-0.039,0.21,0.022,-23.4,2.2,-15.2,0,2018,5,17,22,17,38.296,-0.1039,-0.6208,0.2352,-0.7405
-0.045,0.257,-0.003,-20.4,5.1,-5.3,0,2018,5,17,22,17,38.319,-0.1029,-0.6176,0.2354,-0.7432
-0.05,0.291,-0.034,-18.4,0.7,4.8,0,2018,5,17,22,17,38.335,-0.1033,-0.6152,0.2346,-0.7454
-0.056,0.292,-0.058,-17,-10.8,15.4,0,2018,5,17,22,17,38.369,-0.1059,-0.6132,0.2337,-0.747
-0.049,0.267,-0.062,-16.5,-27.3,25.5,0,2018,5,17,22,17,38.392,-0.1112,-0.6115,0.2338,-0.7475
-0.061,0.236,-0.069,-16,-43.4,34.8,0,2018,5,17,22,17,38.397,-0.1195,-0.61,0.2351,-0.7471
-0.064,0.233,-0.078,-15.8,-58.4,42.9,0,2018,5,17,22,17,38.415,-0.1306,-0.6084,0.2373,-0.7459
-0.077,0.211,-0.091,-15.6,-72.2,49.9,0,2018,5,17,22,17,38.438,-0.1442,-0.6067,0.2406,-0.7436
-0.085,0.159,-0.103,-15.9,-81.4,55.1,1023,2018,5,17,22,17,38.456,-0.1599,-0.6049,0.2446,-0.7406
-0.082,0.099,-0.114,-16.7,-87.3,58.4,1023,2018,5,17,22,17,38.479,-0.1768,-0.6028,0.2491,-0.737
-0.06,0.086,-0.142,-17.2,-93,60.9,1023,2018,5,17,22,17,38.515,-0.1947,-0.6002,0.2539,-0.7329
-0.048,0.05,-0.152,-16.3,-97.3,62.7,1023,2018,5,17,22,17,38.537,-0.2133,-0.5975,0.259,-0.7282
-0.044,0.001,-0.159,-14.5,-97.7,63.5,1023,2018,5,17,22,17,38.541,-0.2323,-0.5955,0.2643,-0.7221
-0.043,-0.054,-0.143,-11.3,-93.6,64.4,1023,2018,5,17,22,17,38.556,-0.2505,-0.5936,0.2695,-0.7156
-0.029,-0.093,-0.135,-7.3,-84.7,65.4,1023,2018,5,17,22,17,38.574,-0.268,-0.5916,0.2735,-0.7094
-0.007,-0.107,-0.129,-1.7,-72.2,67.5,1023,2018,5,17,22,17,38.595,-0.2846,-0.5904,0.2761,-0.7029
-0.012,-0.145,-0.111,4.2,-56.1,69.1,1023,2018,5,17,22,17,38.634,-0.2994,-0.5907,0.2769,-0.6961
-0.014,-0.189,-0.098,9.5,-39.9,69.8,1023,2018,5,17,22,17,38.657,-0.3124,-0.5924,0.2758,-0.6894
-0.005,-0.219,-0.087,12.6,-27.8,68.1,1023,2018,5,17,22,17,38.662,-0.3235,-0.5952,0.2732,-0.6828
0.011,-0.231,-0.071,14.5,-21.3,64.3,1023,2018,5,17,22,17,38.677,-0.3333,-0.5986,0.2699,-0.6764
0.035,-0.215,-0.051,15.4,-20.1,58.8,1023,2018,5,17,22,17,38.714,-0.342,-0.602,0.2667,-0.6703
0.018,-0.222,-0.029,15,-22.7,51.9,0,2018,5,17,22,17,38.737,-0.35,-0.6051,0.2643,-0.6643
0.02,-0.245,-0.025,12.9,-27.8,45.1,0,2018,5,17,22,17,38.742,-0.3577,-0.6073,0.263,-0.6587
0.019,-0.287,-0.013,10.7,-32.8,37.9,0,2018,5,17,22,17,38.758,-0.3653,-0.6086,0.2628,-0.6534
-0.006,-0.318,-0.016,8.1,-36.5,31,0,2018,5,17,22,17,38.781,-0.3725,-0.6089,0.2637,-0.6486
-0.022,-0.348,-0.029,5.5,-37.6,24,0,2018,5,17,22,17,38.799,-0.3794,-0.6084,0.2654,-0.6444
-0.023,-0.366,-0.038,3.4,-36.5,16.6,0,2018,5,17,22,17,38.823,-0.3856,-0.6073,0.2676,-0.6409
-0.002,-0.38,-0.039,2.7,-32.7,7.8,0,2018,5,17,22,17,38.838,-0.3905,-0.6058,0.2704,-0.6381
0.017,-0.381,-0.032,3,-26.3,-2.1,0,2018,5,17,22,17,38.856,-0.3939,-0.6041,0.2736,-0.6362
0.009,-0.372,-0.026,3.7,-18.1,-13.2,0,2018,5,17,22,17,38.879,-0.3953,-0.6025,0.277,-0.6354
0.035,-0.327,-0.035,4.8,-11.5,-23.6,0,2018,5,17,22,17,38.9,-0.3946,-0.6011,0.2809,-0.6355
0.052,-0.301,-0.033,6.6,-4.8,-33.1,0,2018,5,17,22,17,38.918,-0.3921,-0.5997,0.2852,-0.6365
0.062,-0.286,-0.017,8,2.1,-40.5,0,2018,5,17,22,17,38.941,-0.3878,-0.5985,0.2897,-0.6382
0.042,-0.285,-0.007,9.2,7.6,-46.2,0,2018,5,17,22,17,38.96,-0.382,-0.5976,0.2942,-0.6405
0.005,-0.289,0.018,10.8,12.3,-51.5,0,2018,5,17,22,17,38.98,-0.3753,-0.5966,0.2987,-0.6433
-0.059,-0.265,0.055,11.4,20.4,-55.9,0,2018,5,17,22,17,39.019,-0.3671,-0.596,0.3032,-0.6465
-0.078,-0.215,0.079,9.8,29.4,-59.8,0,2018,5,17,22,17,39.041,-0.3576,-0.5956,0.3069,-0.6504
-0.086,-0.189,0.108,7.8,35,-65.7,1023,2018,5,17,22,17,39.046,-0.3467,-0.5951,0.3102,-0.6551
-0.14,-0.182,0.189,6.1,40.3,-73.9,1023,2018,5,17,22,17,39.06,-0.3344,-0.5943,0.3136,-0.6606
-0.239,-0.174,0.291,0.8,50.1,-80.6,1023,2018,5,17,22,17,39.079,-0.3206,-0.593,0.3166,-0.6672
-0.273,-0.125,0.303,-9.9,62.1,-84.6,1023,2018,5,17,22,17,39.098,-0.3054,-0.5909,0.3183,-0.6753
-0.242,-0.046,0.269,-23.1,70.2,-87.7,1023,2018,5,17,22,17,39.121,-0.2894,-0.5875,0.3182,-0.6853
-0.191,0.025,0.209,-36.5,72.9,-89.7,1023,2018,5,17,22,17,39.139,-0.2736,-0.5817,0.3165,-0.6974
-0.173,0.071,0.171,-49.4,74.2,-87.7,1023,2018,5,17,22,17,39.162,-0.2576,-0.5749,0.3144,-0.71
-0.126,0.134,0.113,-63.8,70.6,-80.9,1023,2018,5,17,22,17,39.183,-0.243,-0.5663,0.3112,-0.7234
-0.082,0.173,0.047,-74.6,61.1,-71,1023,2018,5,17,22,17,39.218,-0.2308,-0.5559,0.3073,-0.737
-0.017,0.206,-0.001,-81.2,45.7,-58.4,1023,2018,5,17,22,17,39.242,-0.2216,-0.5443,0.3034,-0.7499
0.052,0.213,-0.027,-84.2,25.8,-44.5,1023,2018,5,17,22,17,39.247,-0.216,-0.5319,0.3002,-0.7616
0.106,0.207,-0.05,-84,0.9,-31.2,1023,2018,5,17,22,17,39.263,-0.2142,-0.5192,0.2987,-0.7715
0.128,0.198,-0.077,-81.8,-34.7,-20.4,1023,2018,5,17,22,17,39.286,-0.2167,-0.5059,0.3002,-0.779
0.148,0.155,-0.123,-76.5,-70.3,-10.9,1023,2018,5,17,22,17,39.304,-0.2237,-0.4921,0.3057,-0.7837
0.156,0.092,-0.137,-68.1,-92.7,-1.8,1023,2018,5,17,22,17,39.327,-0.2342,-0.4792,0.3144,-0.7852
0.153,0.056,-0.143,-58.1,-102.9,6.8,0,2018,5,17,22,17,39.346,-0.2465,-0.4673,0.3251,-0.7842
0.143,0.014,-0.134,-47.1,-102.3,14.1,0,2018,5,17,22,17,39.363,-0.2593,-0.4567,0.3364,-0.7816
0.09,-0.044,-0.108,-36.7,-86,20.7,0,2018,5,17,22,17,39.38,-0.2714,-0.4479,0.3466,-0.7781
0.078,-0.064,-0.114,-27.2,-62.1,27,0,2018,5,17,22,17,39.404,-0.2823,-0.4415,0.3533,-0.7749
0.092,-0.067,-0.122,-17.4,-38.9,32,0,2018,5,17,22,17,39.421,-0.2914,-0.438,0.3567,-0.7719
0.084,-0.07,-0.089,-8.8,-20.7,35.2,0,2018,5,17,22,17,39.442,-0.2989,-0.4369,0.3574,-0.7694
0.063,-0.063,-0.017,-2.8,-9.1,36.8,0,2018,5,17,22,17,39.481,-0.3046,-0.4374,0.3569,-0.767
0.027,-0.055,0.043,0.8,-5,37.5,0,2018,5,17,22,17,39.504,-0.3099,-0.4387,0.355,-0.765
0.01,-0.05,0.067,1.2,-7.8,36.8,0,2018,5,17,22,17,39.508,-0.3151,-0.4403,0.353,-0.7629
0.011,-0.057,0.059,3.1,-13.5,35.2,0,2018,5,17,22,17,39.524,-0.3205,-0.4415,0.3517,-0.7606
0.017,-0.073,0.059,6.1,-16.5,34,0,2018,5,17,22,17,39.547,-0.3259,-0.4427,0.3514,-0.7577
0.003,-0.1,0.082,9.5,-14.5,34,0,2018,5,17,22,17,39.563,-0.3307,-0.4441,0.3516,-0.7547
-0.021,-0.117,0.081,13.1,-9.5,35.4,0,2018,5,17,22,17,39.582,-0.3352,-0.4461,0.3514,-0.7516
-0.077,-0.126,0.068,17.9,-3.7,39.3,0,2018,5,17,22,17,39.602,-0.3393,-0.4493,0.3505,-0.7483
-0.146,-0.125,0.041,22.8,2,45.7,0,2018,5,17,22,17,39.622,-0.3431,-0.4541,0.349,-0.7443
-0.178,-0.115,-0.008,27.7,8.3,54.6,0,2018,5,17,22,17,39.645,-0.3472,-0.4608,0.3464,-0.7396
-0.199,-0.096,-0.056,33.7,13.2,62.6,0,2018,5,17,22,17,39.682,-0.3516,-0.4692,0.3428,-0.7338
-0.207,-0.089,-0.098,41.3,14.2,68.5,0,2018,5,17,22,17,39.705,-0.3563,-0.4791,0.3383,-0.7273
-0.204,-0.082,-0.13,49.8,11.9,70.9,0,2018,5,17,22,17,39.71,-0.3614,-0.4898,0.3335,-0.7198
-0.169,-0.052,-0.141,58.2,9.5,69.1,1023,2018,5,17,22,17,39.726,-0.366,-0.5014,0.3297,-0.7112
-0.101,0.016,-0.148,65.3,9.6,63.7,1023,2018,5,17,22,17,39.748,-0.3696,-0.5141,0.327,-0.7014
-0.01,0.081,-0.142,71.6,11.4,54.8,1023,2018,5,17,22,17,39.765,-0.3719,-0.5269,0.3249,-0.6916
0.018,0.091,-0.146,77,14.7,43.7,1023,2018,5,17,22,17,39.788,-0.3724,-0.5394,0.3235,-0.6823
0.028,0.092,-0.147,79.8,19,34.6,1023,2018,5,17,22,17,39.807,-0.3709,-0.552,0.3229,-0.6732
0.005,0.097,-0.139,79.7,23.5,27.9,1023,2018,5,17,22,17,39.83,-0.3678,-0.5645,0.3226,-0.6646
-0.006,0.146,-0.13,74.8,26.5,24.5,1023,2018,5,17,22,17,39.846,-0.3638,-0.5766,0.3222,-0.6566
0,0.183,-0.127,66.1,25.6,22.1,1023,2018,5,17,22,17,39.883,-0.3596,-0.5877,0.3213,-0.6495
0.028,0.231,-0.133,55.9,15.7,20.8,1023,2018,5,17,22,17,39.907,-0.3564,-0.5971,0.3205,-0.643
0.063,0.243,-0.126,45.5,-4.2,18.8,1023,2018,5,17,22,17,39.912,-0.355,-0.6044,0.3209,-0.6368
0.092,0.247,-0.098,37,-30.7,17.3,1023,2018,5,17,22,17,39.927,-0.3564,-0.6089,0.3236,-0.6304
0.105,0.242,-0.058,31.2,-58.1,16.8,0,2018,5,17,22,17,39.949,-0.3611,-0.6107,0.3289,-0.6231
0.1,0.211,-0.028,28.1,-82.1,18,0,2018,5,17,22,17,39.967,-0.3687,-0.6105,0.3367,-0.6147
0.111,0.17,-0.014,26.8,-101.5,21.3,0,2018,5,17,22,17,39.988,-0.3789,-0.6086,0.3463,-0.605
0.123,0.106,-0.005,27.6,-115.9,26.4,0,2018,5,17,22,17,40.026,-0.3921,-0.606,0.3562,-0.5932
0.129,0.031,0.002,29.3,-123.8,32.3,0,2018,5,17,22,17,40.049,-0.4066,-0.6027,0.3668,-0.5802
0.125,-0.021,0.001,31.8,-123.9,39.1,0,2018,5,17,22,17,40.055,-0.4214,-0.5992,0.3775,-0.5663
0.104,-0.093,-0.008,34.6,-116.7,44.6,0,2018,5,17,22,17,40.067,-0.4355,-0.5961,0.3877,-0.5519
0.074,-0.139,0.001,39.4,-102.9,49,0,2018,5,17,22,17,40.086,-0.4479,-0.5941,0.3969,-0.5373
0.029,-0.173,0.023,44.2,-82.5,51.8,0,2018,5,17,22,17,40.11,-0.4583,-0.5936,0.4044,-0.5233
0.019,-0.183,0.038,48.7,-59.5,54.7,0,2018,5,17,22,17,40.126,-0.4667,-0.5959,0.4093,-0.5094
0.003,-0.206,0.056,52.5,-38.1,54,0,2018,5,17,22,17,40.149,-0.4726,-0.6005,0.412,-0.4961
-0.002,-0.202,0.079,55.4,-22.2,51.3,0,2018,5,17,22,17,40.167,-0.4762,-0.6066,0.4135,-0.4839
-0.018,-0.185,0.127,57.1,-10.8,47.6,0,2018,5,17,22,17,40.19,-0.4778,-0.6137,0.4143,-0.4725
-0.035,-0.139,0.163,57.6,-1.7,44.5,0,2018,5,17,22,17,40.209,-0.4778,-0.6213,0.4147,-0.462
-0.067,-0.084,0.21,57,5.1,42.6,0,2018,5,17,22,17,40.231,-0.4768,-0.6293,0.4146,-0.4523
-0.101,-0.065,0.259,54.9,8.2,42.3,0,2018,5,17,22,17,40.25,-0.4751,-0.6375,0.4141,-0.443
-0.162,-0.058,0.307,50.8,5.1,41.7,0,2018,5,17,22,17,40.273,-0.4737,-0.6452,0.4132,-0.4341
-0.241,-0.079,0.349,45.3,-0.6,41.7,1023,2018,5,17,22,17,40.289,-0.4729,-0.6521,0.4123,-0.4253
-0.314,-0.117,0.37,39.1,-8.2,41.9,1023,2018,5,17,22,17,40.305,-0.4733,-0.658,0.4114,-0.4167
-0.373,-0.161,0.409,32.8,-13.5,39.8,1023,2018,5,17,22,17,40.328,-0.4749,-0.6626,0.4105,-0.4083
-0.359,-0.221,0.465,25.4,-12,34.7,1023,2018,5,17,22,17,40.347,-0.4768,-0.6664,0.4095,-0.4008
-0.398,-0.317,0.532,19.4,-1.4,24.9,1023,2018,5,17,22,17,40.369,-0.4781,-0.6695,0.4085,-0.3952
-0.451,-0.427,0.596,11.2,19.3,14,1023,2018,5,17,22,17,40.39,-0.4772,-0.6727,0.4069,-0.3924
-0.495,-0.466,0.58,-0.3,41.6,3,1023,2018,5,17,22,17,40.427,-0.4736,-0.6763,0.4043,-0.3932
-0.46,-0.474,0.552,-15.3,59.2,-7.2,1023,2018,5,17,22,17,40.449,-0.4679,-0.6798,0.4004,-0.398
-0.349,-0.466,0.553,-34.1,71.2,-17.6,1023,2018,5,17,22,17,40.454,-0.4611,-0.6825,0.3952,-0.4066
-0.15,-0.416,0.53,-55.5,74.3,-29.9,1023,2018,5,17,22,17,40.47,-0.4537,-0.6834,0.3891,-0.4189
0.015,-0.384,0.501,-74.2,71.8,-43,1023,2018,5,17,22,17,40.493,-0.4466,-0.6818,0.3829,-0.4346
0.103,-0.363,0.474,-89.3,71.8,-53.7,1023,2018,5,17,22,17,40.53,-0.4398,-0.6777,0.3768,-0.4529
0.06,-0.345,0.422,-103,74.2,-62.5,0,2018,5,17,22,17,40.553,-0.4329,-0.6715,0.3704,-0.4735
0.062,-0.329,0.353,-118,76.4,-68.3,0,2018,5,17,22,17,40.557,-0.4256,-0.6636,0.3634,-0.4963
0.03,-0.344,0.249,-131.2,78.8,-70.8,0,2018,5,17,22,17,40.573,-0.4186,-0.6536,0.3552,-0.5207
-0.037,-0.36,0.16,-143.3,82.8,-68.9,0,2018,5,17,22,17,40.596,-0.4116,-0.6422,0.3456,-0.5464
-0.161,-0.33,0.095,-155.6,85.4,-63.8,0,2018,5,17,22,17,40.612,-0.4048,-0.6295,0.334,-0.5728
-0.239,-0.282,-0.018,-170.6,75.2,-59.4,0,2018,5,17,22,17,40.631,-0.3991,-0.6149,0.3208,-0.5996
-0.271,-0.263,-0.129,-183.7,51.4,-59.2,0,2018,5,17,22,17,40.652,-0.396,-0.5969,0.3078,-0.626
-0.307,-0.26,-0.239,-194.2,17.7,-66.1,0,2018,5,17,22,17,40.671,-0.3958,-0.5747,0.2972,-0.6516
-0.35,-0.256,-0.34,-201.5,-20.4,-79.8,0,2018,5,17,22,17,40.694,-0.398,-0.5476,0.2907,-0.676
-0.375,-0.211,-0.433,-203.4,-55.1,-98.7,0,2018,5,17,22,17,40.73,-0.4013,-0.5158,0.2896,-0.6992
-0.299,-0.147,-0.511,-196.5,-81.4,-122.3,0,2018,5,17,22,17,40.753,-0.4039,-0.4803,0.2938,-0.7209
-0.151,-0.077,-0.574,-179.8,-91.5,-146.4,0,2018,5,17,22,17,40.758,-0.4037,-0.4428,0.3025,-0.7411
-0.009,-0.045,-0.594,-155.1,-83.6,-164,0,2018,5,17,22,17,40.774,-0.3991,-0.4059,0.3139,-0.7598
0.044,-0.044,-0.588,-127.1,-54.7,-169.8,0,2018,5,17,22,17,40.797,-0.3894,-0.3727,0.3249,-0.777
-0.012,-0.032,-0.581,-102.1,-10.1,-165.4,0,2018,5,17,22,17,40.813,-0.3749,-0.3452,0.3322,-0.7936
0.026,0.041,-0.613,-84,38.1,-153.3,0,2018,5,17,22,17,40.831,-0.3575,-0.3237,0.3331,-0.8101
0.108,0.173,-0.654,-68.7,79.6,-139.3,0,2018,5,17,22,17,40.854,-0.338,-0.3079,0.3276,-0.8267
0.162,0.3,-0.691,-56.3,105.9,-124.8,0,2018,5,17,22,17,40.894,-0.3173,-0.2968,0.3172,-0.8429
0.17,0.362,-0.71,-47.3,119,-109.5,0,2018,5,17,22,17,40.897,-0.2969,-0.289,0.3035,-0.8579
0.16,0.416,-0.745,-41.4,123.7,-94.5,1023,2018,5,17,22,17,40.914,-0.2777,-0.2832,0.2879,-0.8716
0.193,0.486,-0.769,-39,121.7,-76.4,1023,2018,5,17,22,17,40.951,-0.2605,-0.2787,0.2713,-0.8835
0.241,0.537,-0.769,-38.2,108.4,-59.2,1023,2018,5,17,22,17,40.973,-0.2462,-0.2748,0.2548,-0.8937
0.239,0.581,-0.776,-37.1,67.7,-47.9,1023,2018,5,17,22,17,40.978,-0.2353,-0.2704,0.2417,-0.9016
0.204,0.602,-0.852,-30.6,15.6,-38.4,1023,2018,5,17,22,17,40.994,-0.2281,-0.2648,0.2361,-0.9066
0.178,0.575,-0.818,-15.4,-15.7,-26.8,1023,2018,5,17,22,17,41.017,-0.224,-0.2596,0.2372,-0.9089
-0.212,0.379,-0.642,13.2,-28.3,-14.4,1023,2018,5,17,22,17,41.036,-0.222,-0.2577,0.2417,-0.9087
-0.483,0.234,-0.515,41.1,-56.4,-2.6,1023,2018,5,17,22,17,41.057,-0.2212,-0.2602,0.2494,-0.9061
-0.603,0.221,-0.522,72.4,-103.4,13.8,1023,2018,5,17,22,17,41.076,-0.2232,-0.2662,0.2642,-0.8996
-1.082,0.008,-0.487,115.1,-133.5,37.5,1023,2018,5,17,22,17,41.094,-0.2284,-0.2775,0.2855,-0.8884
-1.139,-0.22,-0.209,165.3,-154.4,68.6,1023,2018,5,17,22,17,41.118,-0.2366,-0.296,0.3109,-0.8715
-1.064,-0.321,0.164,211.1,-149.4,98.4,1023,2018,5,17,22,17,41.135,-0.2468,-0.323,0.3375,-0.8489
-0.958,-0.221,0.382,231.9,-131.2,110.9,0,2018,5,17,22,17,41.158,-0.2569,-0.356,0.3617,-0.8224
-0.797,-0.283,0.377,229.8,-86.4,121.5,0,2018,5,17,22,17,41.175,-0.2659,-0.3917,0.3799,-0.7946
-0.655,-0.487,0.374,219.3,-0.4,130.8,0,2018,5,17,22,17,41.198,-0.2711,-0.4285,0.3875,-0.7698
-0.562,-0.455,0.467,206.2,92,128.8,0,2018,5,17,22,17,41.215,-0.2701,-0.4678,0.3806,-0.7504
-0.48,-0.216,0.627,192.7,138.2,111.5,0,2018,5,17,22,17,41.236,-0.2625,-0.5072,0.364,-0.7357
-0.336,-0.102,0.66,172,142.6,86,0,2018,5,17,22,17,41.274,-0.2506,-0.5428,0.345,-0.7234
-0.19,-0.066,0.625,150,127.3,60.4,0,2018,5,17,22,17,41.297,-0.237,-0.573,0.3277,-0.7127
-0.059,0.012,0.617,129.2,92.8,37.8,0,2018,5,17,22,17,41.302,-0.2239,-0.5973,0.3147,-0.7027
0.011,-0.001,0.568,111.5,53.8,22.2,0,2018,5,17,22,17,41.319,-0.2133,-0.6162,0.3076,-0.6928
0.066,-0.043,0.507,98.1,27.9,18.8,0,2018,5,17,22,17,41.337,-0.2059,-0.6312,0.3045,-0.6829
0.1,-0.168,0.478,89.5,24.8,21.1,0,2018,5,17,22,17,41.355,-0.2009,-0.644,0.3029,-0.673
0.193,-0.185,0.497,81.6,48.4,23.8,0,2018,5,17,22,17,41.378,-0.195,-0.6564,0.2991,-0.6645
0.243,-0.224,0.502,77.8,81.2,25.1,0,2018,5,17,22,17,41.396,-0.1862,-0.6689,0.2914,-0.6578
0.244,-0.26,0.511,75.6,126.5,25.7,0,2018,5,17,22,17,41.418,-0.173,-0.6822,0.2789,-0.6532
0.173,-0.246,0.497,73.2,177.6,26.3,0,2018,5,17,22,17,41.437,-0.154,-0.6963,0.2605,-0.6507
0.056,-0.266,0.423,68.7,229.5,30.2,0,2018,5,17,22,17,41.459,-0.1289,-0.7107,0.2354,-0.6502
-0.105,-0.223,0.347,60,267.4,35.3,0,2018,5,17,22,17,41.496,-0.0986,-0.7242,0.2041,-0.6511
-0.281,-0.196,0.299,47,284.9,42.4,0,2018,5,17,22,17,41.52,-0.0659,-0.7356,0.1682,-0.6528
-0.469,-0.158,0.237,29.4,283.8,52.9,1023,2018,5,17,22,17,41.524,-0.0333,-0.7436,0.1297,-0.6549
-0.638,-0.131,0.147,5.2,246.7,64.1,1023,2018,5,17,22,17,41.538,-0.005,-0.7476,0.0916,-0.6577
-0.566,-0.134,0.08,-22.4,185.2,74.1,1023,2018,5,17,22,17,41.557,0.0152,-0.7465,0.0577,-0.6626
-0.374,-0.163,0.007,-48.7,112.6,75.6,1023,2018,5,17,22,17,41.579,0.0257,-0.7419,0.0313,-0.6692
-0.199,-0.26,-0.086,-69.8,50.7,68.1,1023,2018,5,17,22,17,41.597,0.0278,-0.7346,0.0133,-0.6777
-0.071,-0.336,-0.124,-81.7,19.8,52.1,1023,2018,5,17,22,17,41.621,0.0244,-0.7254,0.0024,-0.6878
0.042,-0.355,-0.21,-84.3,17.2,34.1,1023,2018,5,17,22,17,41.638,0.0214,-0.7152,-0.0046,-0.6985
0.088,-0.346,-0.266,-80.3,35.9,16.5,1023,2018,5,17,22,17,41.661,0.0218,-0.7049,-0.0107,-0.7088
0.107,-0.283,-0.339,-74.7,50.1,5.7,1023,2018,5,17,22,17,41.68,0.0261,-0.695,-0.0171,-0.7182
0.152,-0.329,-0.354,-60.2,66.6,-5.5,0,2018,5,17,22,17,41.704,0.0334,-0.6862,-0.024,-0.7262
0.16,-0.38,-0.368,-45.6,86.5,-6.8,0,2018,5,17,22,17,41.721,0.0436,-0.679,-0.0326,-0.732
0.196,-0.404,-0.367,-32.3,107,-2.2,0,2018,5,17,22,17,41.758,0.056,-0.6733,-0.0442,-0.7358
0.192,-0.406,-0.383,-20.7,119.5,4.1,0,2018,5,17,22,17,41.781,0.0695,-0.6687,-0.0588,-0.7379
0.199,-0.383,-0.414,-11.5,118.4,10.2,0,2018,5,17,22,17,41.786,0.0827,-0.665,-0.0749,-0.7384
0.194,-0.36,-0.43,-5.4,105.7,13.4,0,2018,5,17,22,17,41.799,0.0943,-0.662,-0.0907,-0.7379
0.171,-0.336,-0.441,-1.6,87.4,13,0,2018,5,17,22,17,41.818,0.1037,-0.6597,-0.1047,-0.7369
0.16,-0.328,-0.438,1.5,67.3,9,0,2018,5,17,22,17,41.841,0.1111,-0.658,-0.1158,-0.7356
0.154,-0.338,-0.425,5,51,2.3,0,2018,5,17,22,17,41.859,0.117,-0.6571,-0.124,-0.7341
0.131,-0.373,-0.398,10.3,44.5,-5,0,2018,5,17,22,17,41.882,0.1223,-0.6572,-0.13,-0.7322
0.105,-0.402,-0.36,16.5,47.2,-12.5,0,2018,5,17,22,17,41.92,0.1284,-0.6581,-0.135,-0.7294
0.083,-0.428,-0.327,23.7,59,-19.6,0,2018,5,17,22,17,41.92,0.136,-0.6599,-0.1403,-0.7254
0.059,-0.435,-0.295,30.5,76.5,-26.8,0,2018,5,17,22,17,41.942,0.1461,-0.6623,-0.1469,-0.7199
0.035,-0.409,-0.275,36.6,92.4,-35.8,0,2018,5,17,22,17,41.981,0.159,-0.6651,-0.1548,-0.7129
0.018,-0.374,-0.241,41.2,105.7,-46,0,2018,5,17,22,17,42.003,0.1746,-0.6682,-0.1635,-0.7044
-0.021,-0.326,-0.196,43.7,116.6,-57.2,0,2018,5,17,22,17,42.006,0.1928,-0.6713,-0.1724,-0.6945
-0.038,-0.282,-0.174,44.5,125.7,-67.9,0,2018,5,17,22,17,42.021,0.2132,-0.6743,-0.1812,-0.6833
-0.057,-0.207,-0.154,44.8,133.2,-76.5,0,2018,5,17,22,17,42.038,0.2357,-0.6768,-0.1897,-0.671
-0.052,-0.098,-0.155,45.1,139.3,-81.4,0,2018,5,17,22,17,42.062,0.2595,-0.6788,-0.198,-0.6576
-0.067,0.007,-0.125,46.1,145.7,-79,0,2018,5,17,22,17,42.08,0.2838,-0.6806,-0.2069,-0.6429
-0.18,0.006,-0.074,44.7,155.8,-68.6,0,2018,5,17,22,17,42.103,0.3078,-0.6812,-0.2176,-0.6275
-0.207,0.018,-0.085,37.8,161,-55.6,1023,2018,5,17,22,17,42.122,0.3313,-0.6795,-0.2302,-0.6126
-0.12,0.129,-0.104,31.5,151,-45.5,1023,2018,5,17,22,17,42.146,0.3533,-0.6761,-0.2434,-0.5988
-0.05,0.26,-0.116,26.9,128.6,-37.5,1023,2018,5,17,22,17,42.162,0.3728,-0.6721,-0.2548,-0.5867
-0.035,0.33,-0.092,24.3,101.3,-32.3,1023,2018,5,17,22,17,42.185,0.3885,-0.6686,-0.2641,-0.5763
-0.089,0.304,-0.05,22.5,80.6,-31.3,1023,2018,5,17,22,17,42.206,0.401,-0.6663,-0.2709,-0.5672
-0.15,0.324,-0.058,19.7,74.6,-28.1,1023,2018,5,17,22,17,42.241,0.4118,-0.6644,-0.2765,-0.5589
-0.193,0.354,-0.114,16.5,72.3,-21,1023,2018,5,17,22,17,42.264,0.4218,-0.662,-0.282,-0.5515
-0.21,0.352,-0.15,13.1,68.1,-11.7,1023,2018,5,17,22,17,42.269,0.4307,-0.659,-0.2879,-0.5451
-0.198,0.312,-0.148,10.1,61.3,-1,1023,2018,5,17,22,17,42.283,0.4382,-0.6555,-0.2943,-0.54
-0.174,0.286,-0.116,9.7,47,7,1023,2018,5,17,22,17,42.301,0.4436,-0.652,-0.3005,-0.5363
-0.151,0.317,-0.028,11.8,22.7,12,1023,2018,5,17,22,17,42.321,0.4461,-0.6497,-0.3058,-0.534
-0.126,0.356,0.091,12.9,-15.4,10.8,1023,2018,5,17,22,17,42.359,0.4447,-0.65,-0.3084,-0.5333
-0.065,0.374,0.202,10.9,-61.8,8.3,0,2018,5,17,22,17,42.381,0.4387,-0.6536,-0.3068,-0.5348
-0.043,0.08,0.2,10.5,-77.9,8.3,0,2018,5,17,22,17,42.386,0.4286,-0.66,-0.3013,-0.5383
0.077,-0.047,0.091,12.1,-18,21.6,0,2018,5,17,22,17,42.405,0.421,-0.6639,-0.2986,-0.5409
0.067,0.011,0.146,17.9,24.7,30.2,0,2018,5,17,22,17,42.428,0.4193,-0.6627,-0.3034,-0.5411
0.075,-0.054,0.236,19.9,46,31.5,0,2018,5,17,22,17,42.446,0.4196,-0.6601,-0.3118,-0.5392
0.078,-0.123,0.268,22.1,67.7,32.4,0,2018,5,17,22,17,42.465,0.422,-0.6561,-0.3224,-0.536
0.085,-0.126,0.264,22,86.2,31.4,0,2018,5,17,22,17,42.488,0.4267,-0.6505,-0.3351,-0.5313
0.097,-0.117,0.242,21.4,94.6,27.9,0,2018,5,17,22,17,42.524,0.4329,-0.6439,-0.3484,-0.5257
0.103,-0.136,0.223,21.4,101.2,23.1,0,2018,5,17,22,17,42.524,0.4402,-0.6368,-0.3619,-0.5192
0.099,-0.196,0.233,22.9,110.8,18.1,0,2018,5,17,22,17,42.547,0.4487,-0.6293,-0.3754,-0.5115
0.076,-0.209,0.262,22.7,119.3,12.2,0,2018,5,17,22,17,42.565,0.4584,-0.6211,-0.3891,-0.5024
0.047,-0.199,0.251,20.4,118.1,6.6,0,2018,5,17,22,17,42.584,0.469,-0.6127,-0.4022,-0.4926
-0.048,-0.215,0.197,18.4,107.7,1.6,0,2018,5,17,22,17,42.606,0.4793,-0.6047,-0.4138,-0.4828
-0.197,-0.273,0.132,15.7,97,-0.1,0,2018,5,17,22,17,42.644,0.4887,-0.5976,-0.4238,-0.4736
-0.272,-0.304,0.08,12.1,93,0,0,2018,5,17,22,17,42.667,0.4975,-0.5906,-0.4327,-0.4651
-0.235,-0.309,0.043,8,96.5,-1.4,0,2018,5,17,22,17,42.672,0.5064,-0.5832,-0.4411,-0.4568
-0.131,-0.293,-0.011,4.7,107.8,-5.6,0,2018,5,17,22,17,42.688,0.5165,-0.5749,-0.4494,-0.4479
-0.012,-0.245,-0.078,1.1,120.4,-12,0,2018,5,17,22,17,42.706,0.5284,-0.5653,-0.4576,-0.4378
0.002,-0.185,-0.154,-1.8,129.9,-18.9,0,2018,5,17,22,17,42.729,0.5419,-0.5548,-0.4655,-0.4262
0,-0.145,-0.202,-5,138.7,-22.8,1023,2018,5,17,22,17,42.745,0.5566,-0.5434,-0.473,-0.4136
-0.014,-0.09,-0.231,-6.5,146.5,-22.6,1023,2018,5,17,22,17,42.781,0.572,-0.5309,-0.4805,-0.3999
-0.003,-0.049,-0.236,-10.1,142.9,-21.8,1023,2018,5,17,22,17,42.802,0.5875,-0.5175,-0.4877,-0.386
0.041,0.003,-0.252,-14,123.9,-21.2,1023,2018,5,17,22,17,42.807,0.6017,-0.5049,-0.4934,-0.3733
0.085,0.053,-0.287,-16.2,92.7,-20.7,1023,2018,5,17,22,17,42.843,0.6136,-0.4945,-0.497,-0.363
0.136,0.084,-0.309,-16.2,57.1,-20.1,1023,2018,5,17,22,17,42.866,0.6226,-0.4873,-0.4981,-0.3558
0.164,0.112,-0.299,-14.9,24.7,-20.6,1023,2018,5,17,22,17,42.871,0.6286,-0.4837,-0.4971,-0.3515
0.157,0.109,-0.264,-11.5,-1.1,-21.2,1023,2018,5,17,22,17,42.887,0.632,-0.4835,-0.4945,-0.3494
0.15,0.09,-0.233,-7.3,-18,-20.6,1023,2018,5,17,22,17,42.909,0.6334,-0.4856,-0.491,-0.349
0.159,0.084,-0.228,-2.3,-25.1,-18.4,1023,2018,5,17,22,17,42.929,0.6332,-0.4893,-0.4874,-0.3492
0.15,0.063,-0.232,3,-21.6,-16.1,1023,2018,5,17,22,17,42.949,0.6321,-0.4935,-0.4844,-0.3493
0.111,0.041,-0.211,8.4,-8.2,-12.6,1023,2018,5,17,22,17,42.986,0.6312,-0.4967,-0.4829,-0.3485
0.103,0.03,-0.204,14.7,10.9,-7.9,0,2018,5,17,22,17,43.009,0.6311,-0.4979,-0.4833,-0.3464
0.112,0.036,-0.171,22.2,30.4,-3.9,0,2018,5,17,22,17,43.014,0.6318,-0.4971,-0.4862,-0.3423
0.135,0.066,-0.106,29.3,46.5,-0.6,0,2018,5,17,22,17,43.03,0.6328,-0.4947,-0.4914,-0.3363
0.129,0.073,-0.035,34.6,58.8,0.9,0,2018,5,17,22,17,43.049,0.6341,-0.4908,-0.4987,-0.3289
0.078,0.099,0.033,37.2,63.2,1.3,0,2018,5,17,22,17,43.066,0.6359,-0.4856,-0.5066,-0.3208
0.024,0.106,0.064,35.8,57.7,1.6,0,2018,5,17,22,17,43.09,0.6378,-0.4801,-0.5143,-0.3131
-0.084,0.071,0.067,31.2,45.7,3.7,0,2018,5,17,22,17,43.108,0.639,-0.4752,-0.5212,-0.3066
-0.184,-0.002,0.048,23.4,36.7,5.9,0,2018,5,17,22,17,43.131,0.6397,-0.4712,-0.5269,-0.3016
-0.34,-0.105,0.053,13.4,30.9,7,0,2018,5,17,22,17,43.168,0.6405,-0.4676,-0.5311,-0.298
-0.504,-0.189,0.041,4.8,34.7,9,0,2018,5,17,22,17,43.191,0.6422,-0.4638,-0.534,-0.2951
-0.746,-0.248,0.023,1,43.1,13.2,0,2018,5,17,22,17,43.196,0.6447,-0.4586,-0.537,-0.2924
-0.938,-0.281,0.026,0.9,54.9,16.1,0,2018,5,17,22,17,43.212,0.6478,-0.4517,-0.5407,-0.2893
-0.949,-0.283,0.024,4.2,64.1,16.2,0,2018,5,17,22,17,43.234,0.6515,-0.4435,-0.5452,-0.2853
-0.82,-0.247,0.023,11.3,65.8,14.9,0,2018,5,17,22,17,43.251,0.6551,-0.435,-0.5504,-0.28
-0.673,-0.174,-0.013,20.5,63.5,15.3,1023,2018,5,17,22,17,43.269,0.6578,-0.4271,-0.5564,-0.2742
-0.548,-0.089,-0.023,28.6,63.8,18,1023,2018,5,17,22,17,43.292,0.659,-0.4194,-0.5637,-0.268
-0.355,0.039,-0.065,31.5,64.2,26.7,1023,2018,5,17,22,17,43.31,0.6592,-0.411,-0.5723,-0.2623
-0.103,0.171,-0.151,28,51.7,37.2,1023,2018,5,17,22,17,43.333,0.6588,-0.4023,-0.5809,-0.258
0.151,0.253,-0.186,18.1,21.3,42.8,1023,2018,5,17,22,17,43.368,0.6571,-0.3949,-0.5881,-0.2573
0.356,0.341,-0.217,4.8,-24.6,39.8,1023,2018,5,17,22,17,43.368,0.654,-0.3912,-0.5922,-0.2615
0.429,0.454,-0.241,-7.3,-77.6,34.8,1023,2018,5,17,22,17,43.39,0.6488,-0.3933,-0.5921,-0.2713
0.372,0.464,-0.236,-14.6,-117.3,32.6,1023,2018,5,17,22,17,43.427,0.6414,-0.4006,-0.5882,-0.2862
0.277,0.326,-0.209,-22,-134.4,33.3,1023,2018,5,17,22,17,43.447,0.6326,-0.4105,-0.5819,-0.3043
0.267,0.244,-0.233,-29,-138.5,37.6,1023,2018,5,17,22,17,43.453,0.6233,-0.4206,-0.5741,-0.3238
0.242,0.253,-0.282,-32.3,-135.3,44.4,1023,2018,5,17,22,17,43.49,0.6138,-0.4295,-0.5657,-0.3442
0.173,0.233,-0.304,-32.5,-126.1,51.8,1023,2018,5,17,22,17,43.511,0.6041,-0.4366,-0.5578,-0.3647
0.127,0.17,-0.328,-31.4,-117.3,53.4,1023,2018,5,17,22,17,43.513,0.5945,-0.4419,-0.5506,-0.3846
0.145,0.143,-0.31,-25.9,-110.7,47.9,1023,2018,5,17,22,17,43.547,0.585,-0.4468,-0.5436,-0.403
0.153,0.135,-0.227,-15.4,-99.2,42,0,2018,5,17,22,17,43.57,0.5756,-0.4515,-0.5374,-0.4192
0.174,0.127,-0.147,-3.8,-82,38.2,0,2018,5,17,22,17,43.573,0.5665,-0.456,-0.5328,-0.4326
0.164,0.078,-0.101,8.3,-59,38.2,0,2018,5,17,22,17,43.611,0.5578,-0.4594,-0.5307,-0.4427
0.139,0.02,-0.101,17.9,-37,40.3,0,2018,5,17,22,17,43.632,0.549,-0.4617,-0.5322,-0.4495
0.144,0.023,-0.099,25.9,-23.4,46,0,2018,5,17,22,17,43.634,0.5405,-0.4625,-0.5363,-0.4541
0.141,-0.008,-0.064,30.6,-18.3,50.7,0,2018,5,17,22,17,43.671,0.5317,-0.4626,-0.5419,-0.4576
0.136,-0.031,-0.013,32.7,-20.7,54,0,2018,5,17,22,17,43.692,0.5229,-0.4621,-0.5477,-0.4614
0.135,-0.021,0.011,33.4,-30.1,55.1,0,2018,5,17,22,17,43.694,0.5135,-0.4619,-0.5529,-0.466
0.13,-0.02,0.031,35,-41.4,54.1,0,2018,5,17,22,17,43.734,0.5029,-0.4625,-0.5573,-0.4715
0.1,-0.071,0.059,36,-48,51.3,0,2018,5,17,22,17,43.734,0.4918,-0.4643,-0.5605,-0.4777
0.088,-0.114,0.083,36.2,-45.4,49.1,0,2018,5,17,22,17,43.757,0.4812,-0.4666,-0.5628,-0.4835
0.092,-0.147,0.108,36.9,-34.5,49,0,2018,5,17,22,17,43.775,0.4701,-0.4682,-0.5665,-0.4885
0.093,-0.117,0.129,38,-25.7,48.6,0,2018,5,17,22,17,43.812,0.46,-0.4688,-0.571,-0.4924
0.09,-0.115,0.196,37.3,-22.5,46.1,0,2018,5,17,22,17,43.836,0.4502,-0.469,-0.5758,-0.4955
0.101,-0.124,0.243,34.2,-20.4,42,0,2018,5,17,22,17,43.84,0.441,-0.4693,-0.5803,-0.4983
0.134,-0.144,0.26,30.1,-15.1,38.2,0,2018,5,17,22,17,43.855,0.4329,-0.4693,-0.5844,-0.5006
0.153,-0.179,0.297,25.8,-12.2,32.5,0,2018,5,17,22,17,43.875,0.426,-0.4689,-0.5882,-0.5024
0.162,-0.217,0.324,19.1,-17,25.6,1023,2018,5,17,22,17,43.896,0.4201,-0.4689,-0.591,-0.5042
0.211,-0.266,0.349,11.2,-22.2,17.4,1023,2018,5,17,22,17,43.915,0.4151,-0.4694,-0.592,-0.5066
0.245,-0.318,0.372,4.6,-21.1,7.6,1023,2018,5,17,22,17,43.938,0.4114,-0.4703,-0.5916,-0.5093
0.289,-0.356,0.406,-1.2,-14.5,-2.9,1023,2018,5,17,22,17,43.974,0.4098,-0.4714,-0.5902,-0.5113
0.342,-0.368,0.436,-7.3,-9.9,-15.8,1023,2018,5,17,22,17,43.997,0.4101,-0.4728,-0.5881,-0.5121
0.337,-0.416,0.448,-12.7,-9.3,-29.7,1023,2018,5,17,22,17,44.002,0.4127,-0.4747,-0.5844,-0.5125
0.35,-0.448,0.454,-19.4,-7.1,-41.4,1023,2018,5,17,22,17,44.019,0.417,-0.4774,-0.5795,-0.5122
0.324,-0.454,0.425,-24,-3.6,-50.2,1023,2018,5,17,22,17,44.036,0.423,-0.4803,-0.5734,-0.5112
0.313,-0.448,0.44,-29,3.9,-56.2,1023,2018,5,17,22,17,44.055,0.4305,-0.4831,-0.5669,-0.5096
0.373,-0.436,0.443,-34.3,18.5,-59.9,1023,2018,5,17,22,17,44.078,0.4401,-0.4848,-0.5603,-0.507
0.322,-0.404,0.4,-38.7,34.9,-60.3,1023,2018,5,17,22,17,44.095,0.4515,-0.4852,-0.5547,-0.5029
0.126,-0.414,0.314,-41.7,46.9,-58.4,1023,2018,5,17,22,17,44.118,0.4643,-0.4838,-0.55,-0.4977
-0.142,-0.417,0.209,-45.9,53.8,-53.4,0,2018,5,17,22,17,44.136,0.4779,-0.481,-0.5459,-0.492
-0.441,-0.44,0.136,-53.1,57.6,-48,0,2018,5,17,22,17,44.159,0.4918,-0.4764,-0.5422,-0.4868
-0.843,-0.487,0.037,-62.8,56.8,-46.1,0,2018,5,17,22,17,44.196,0.506,-0.4709,-0.5382,-0.482
-1.064,-0.518,-0.15,-78.8,51.4,-50.1,0,2018,5,17,22,17,44.219,0.5211,-0.4644,-0.5325,-0.4785
-0.882,-0.379,-0.24,-95.1,39,-70,0,2018,5,17,22,17,44.223,0.5378,-0.4583,-0.5234,-0.476
-0.689,-0.22,-0.301,-102.7,28.1,-109,0,2018,5,17,22,17,44.239,0.5568,-0.4549,-0.5094,-0.4725
-0.589,-0.038,-0.355,-100.2,26,-152.9,0,2018,5,17,22,17,44.262,0.5786,-0.4557,-0.4909,-0.4652
-0.483,0.084,-0.378,-91.7,42.1,-185.8,0,2018,5,17,22,17,44.278,0.6031,-0.4589,-0.4699,-0.4524
-0.42,0.219,-0.402,-81.7,62.4,-202.4,0,2018,5,17,22,17,44.297,0.6294,-0.4623,-0.4491,-0.434
-0.295,0.373,-0.432,-74.8,85.4,-195.3,0,2018,5,17,22,17,44.32,0.6562,-0.4636,-0.4295,-0.4121
-0.231,0.444,-0.456,-72.6,99.3,-172.3,0,2018,5,17,22,17,44.338,0.6821,-0.4609,-0.4128,-0.3896
-0.144,0.401,-0.508,-72.6,86.9,-145,0,2018,5,17,22,17,44.361,0.7054,-0.4557,-0.3975,-0.3696
-0.053,0.508,-0.572,-66.2,53.5,-107.4,0,2018,5,17,22,17,44.38,0.7237,-0.4511,-0.3833,-0.3545
0.036,0.608,-0.54,-56.2,4.6,-74.4,0,2018,5,17,22,17,44.416,0.7354,-0.4496,-0.3703,-0.3461
0.084,0.638,-0.45,-46,-44.8,-50.1,0,2018,5,17,22,17,44.44,0.7406,-0.4533,-0.3576,-0.3436
0.116,0.63,-0.386,-35.4,-76,-31.5,1023,2018,5,17,22,17,44.444,0.7405,-0.4614,-0.3454,-0.3454
0.147,0.609,-0.348,-26.3,-85.9,-17.5,1023,2018,5,17,22,17,44.46,0.7369,-0.4717,-0.3345,-0.3498
0.185,0.576,-0.335,-20.9,-81,-5.8,1023,2018,5,17,22,17,44.484,0.7319,-0.4818,-0.3254,-0.3551
0.207,0.522,-0.337,-19.5,-63.5,4.2,1023,2018,5,17,22,17,44.518,0.7269,-0.4898,-0.3183,-0.3608
0.214,0.476,-0.336,-21,-39.7,14.5,1023,2018,5,17,22,17,44.518,0.723,-0.4945,-0.3133,-0.3666
0.2,0.47,-0.315,-27.4,-18.8,26,1023,2018,5,17,22,17,44.54,0.7206,-0.4954,-0.3102,-0.3727
0.016,0.425,-0.315,-32.7,-5.2,44.9,1023,2018,5,17,22,17,44.558,0.719,-0.4928,-0.3088,-0.3803
-0.157,0.398,-0.364,-37.7,-9.3,72.3,1023,2018,5,17,22,17,44.578,0.7165,-0.4879,-0.3089,-0.3911
-0.428,0.329,-0.507,-32.8,-38.2,108.1,1023,2018,5,17,22,17,44.615,0.7103,-0.4833,-0.3105,-0.4066
-0.664,0.25,-0.511,-12.5,-80.4,144.9,1023,2018,5,17,22,17,44.636,0.6973,-0.4818,-0.3141,-0.4276
-1.233,0.097,-0.379,16.6,-142,180.5,1023,2018,5,17,22,17,44.642,0.6751,-0.4864,-0.3196,-0.4531
-1.086,-0.065,-0.181,59.8,-208.9,206.3,1023,2018,5,17,22,17,44.68,0.6416,-0.499,-0.3262,-0.4825
-0.753,-0.046,0.078,105.3,-258.9,203,1023,2018,5,17,22,17,44.7,0.5975,-0.5202,-0.3331,-0.5111
-0.68,-0.179,0.512,140.8,-247.6,188.1,1023,2018,5,17,22,17,44.703,0.5479,-0.546,-0.3405,-0.5344
-0.594,-0.175,0.72,148.7,-169.7,158.7,1023,2018,5,17,22,17,44.738,0.502,-0.5688,-0.3509,-0.5487
-0.623,-0.18,0.439,140,-58.1,128.4,1023,2018,5,17,22,17,44.76,0.4677,-0.5836,-0.3663,-0.5533
-0.671,-0.404,0.039,109.9,90,100.6,0,2018,5,17,22,17,44.763,0.4505,-0.5868,-0.39,-0.5482
-0.368,-0.323,-0.153,72.2,199.7,76.2,0,2018,5,17,22,17,44.801,0.4515,-0.5772,-0.4205,-0.5348
-0.004,-0.222,-0.025,42.8,216.4,57.2,0,2018,5,17,22,17,44.824,0.4627,-0.5599,-0.4512,-0.5183
0.098,-0.077,0.166,24.3,168.3,45.1,0,2018,5,17,22,17,44.828,0.4745,-0.5427,-0.476,-0.5036
0.148,0.02,0.322,6.3,82.1,39.3,0,2018,5,17,22,17,44.843,0.4815,-0.5298,-0.4919,-0.4952
0.154,0.078,0.406,-9.2,-11.2,32.7,0,2018,5,17,22,17,44.861,0.4816,-0.5237,-0.4979,-0.4957
0.187,0.034,0.4,-21.4,-90.9,22.2,0,2018,5,17,22,17,44.884,0.4757,-0.5244,-0.494,-0.5044
0.282,-0.013,0.346,-24.9,-135.7,15.1,0,2018,5,17,22,17,44.902,0.4657,-0.53,-0.4831,-0.5183
0.348,-0.061,0.319,-21.2,-163.6,14.2,0,2018,5,17,22,17,44.924,0.4527,-0.5383,-0.4685,-0.5345
0.385,-0.145,0.276,-13.4,-183.4,12.9,0,2018,5,17,22,17,44.96,0.4365,-0.5487,-0.4516,-0.5515
0.403,-0.253,0.204,-5.4,-188.3,12.7,0,2018,5,17,22,17,44.983,0.4182,-0.5606,-0.4335,-0.5681
0.389,-0.362,0.166,2.2,-172.4,15.6,0,2018,5,17,22,17,44.987,0.399,-0.5723,-0.4165,-0.5827
0.339,-0.445,0.229,11.5,-139.5,18.6,0,2018,5,17,22,17,45.005,0.3812,-0.5822,-0.4024,-0.5946
0.226,-0.556,0.32,18.6,-88.3,22.8,0,2018,5,17,22,17,45.028,0.3665,-0.5897,-0.3936,-0.6023
0.033,-0.681,0.379,23.7,-24.3,24.9,1023,2018,5,17,22,17,45.044,0.3569,-0.5937,-0.3915,-0.6055
-0.254,-0.816,0.386,26,47.6,22.6,1023,2018,5,17,22,17,45.063,0.3539,-0.5939,-0.397,-0.6035
-0.351,-0.874,0.39,16.1,115.4,6,1023,2018,5,17,22,17,45.085,0.3594,-0.5899,-0.4087,-0.5963
-0.42,-0.768,0.34,1.9,182.1,-17.9,1023,2018,5,17,22,17,45.103,0.3748,-0.5816,-0.4242,-0.584
-0.453,-0.481,0.239,-18.4,232.6,-41,1023,2018,5,17,22,17,45.126,0.3996,-0.5689,-0.4418,-0.5668
-0.403,-0.211,0.187,-53.5,246.7,-70.8,1023,2018,5,17,22,17,45.145,0.4319,-0.5519,-0.4572,-0.5473
-0.387,-0.05,0.142,-92,222.1,-103.3,1023,2018,5,17,22,17,45.182,0.4691,-0.5332,-0.4649,-0.5286
-0.447,0.037,0.048,-128.2,170.9,-129.7,1023,2018,5,17,22,17,45.204,0.5071,-0.5155,-0.4622,-0.5131
-0.544,0.068,-0.066,-162.7,110.4,-150.8,1023,2018,5,17,22,17,45.208,0.5431,-0.501,-0.4491,-0.5021
-0.626,0.091,-0.176,-190.7,50.6,-168.8,1023,2018,5,17,22,17,45.243,0.5771,-0.4901,-0.4251,-0.4957
-0.615,0.114,-0.252,-208.5,-2.8,-181.8,0,2018,5,17,22,17,45.267,0.6085,-0.4831,-0.3912,-0.493
-0.571,0.179,-0.316,-214.8,-41.8,-188.4,0,2018,5,17,22,17,45.271,0.6363,-0.4794,-0.3505,-0.4922
-0.461,0.204,-0.453,-211.2,-78.7,-187.9,0,2018,5,17,22,17,45.287,0.6596,-0.4787,-0.3053,-0.4922
-0.308,0.309,-0.606,-199.1,-114.8,-184.9,0,2018,5,17,22,17,45.31,0.6776,-0.4816,-0.2572,-0.4925
-0.207,0.376,-0.668,-177.9,-140,-179,0,2018,5,17,22,17,45.326,0.69,-0.4881,-0.2083,-0.492
-0.158,0.456,-0.675,-153,-153.9,-168.9,0,2018,5,17,22,17,45.363,0.6975,-0.4975,-0.1606,-0.4899
-0.145,0.472,-0.631,-125.8,-150.5,-154.3,0,2018,5,17,22,17,45.386,0.7011,-0.5083,-0.1164,-0.4861
-0.169,0.475,-0.566,-98.4,-131.6,-135.6,0,2018,5,17,22,17,45.39,0.7025,-0.5187,-0.0778,-0.4808
-0.193,0.472,-0.516,-72.6,-97.1,-111.1,0,2018,5,17,22,17,45.409,0.7032,-0.5271,-0.0466,-0.4746
-0.217,0.487,-0.487,-49.3,-53.7,-82.2,0,2018,5,17,22,17,45.426,0.7046,-0.5319,-0.0241,-0.4689
-0.195,0.508,-0.487,-28.8,-7.7,-51.4,0,2018,5,17,22,17,45.449,0.7074,-0.5326,-0.0108,-0.4644
-0.177,0.551,-0.489,-10.6,28.4,-19.9,0,2018,5,17,22,17,45.485,0.7114,-0.5295,-0.0063,-0.4619
-0.165,0.603,-0.459,5,40.7,9.3,0,2018,5,17,22,17,45.508,0.7152,-0.5247,-0.0086,-0.4614
-0.159,0.608,-0.421,17.1,24.8,37.1,0,2018,5,17,22,17,45.513,0.7164,-0.5213,-0.015,-0.4633
-0.169,0.539,-0.344,26,-4.5,64.5,0,2018,5,17,22,17,45.528,0.713,-0.5217,-0.0233,-0.4677
-0.199,0.427,-0.286,30.2,-39.3,91,0,2018,5,17,22,17,45.545,0.7043,-0.5265,-0.0321,-0.4749
-0.225,0.255,-0.241,29.9,-72.6,116,0,2018,5,17,22,17,45.568,0.6901,-0.5353,-0.0407,-0.4852
-0.258,0.075,-0.187,27.6,-95.9,135.4,0,2018,5,17,22,17,45.589,0.6709,-0.5469,-0.0487,-0.4982
-0.24,-0.019,-0.134,23.2,-107.3,146.6,1023,2018,5,17,22,17,45.626,0.6482,-0.5597,-0.0563,-0.513
-0.199,-0.044,-0.095,17.8,-109.2,149.8,1023,2018,5,17,22,17,45.649,0.6237,-0.5721,-0.0633,-0.5287
-0.146,-0.018,-0.067,11.4,-106.5,146.1,1023,2018,5,17,22,17,45.653,0.5987,-0.5833,-0.0698,-0.5443
-0.104,0.006,-0.039,5.9,-100.4,138.1,1023,2018,5,17,22,17,45.688,0.5735,-0.5937,-0.076,-0.5592
-0.077,0.005,-0.032,1.4,-91.8,130.7,1023,2018,5,17,22,17,45.711,0.5495,-0.6021,-0.0815,-0.5734
-0.062,-0.035,-0.04,-1,-84.5,126,1023,2018,5,17,22,17,45.716,0.5268,-0.6089,-0.0865,-0.5865
-0.06,-0.074,-0.058,-0.9,-81,125.1,1023,2018,5,17,22,17,45.731,0.5047,-0.615,-0.0913,-0.5988
-0.072,-0.117,-0.055,0.3,-79.5,126.8,1023,2018,5,17,22,17,45.753,0.4826,-0.6205,-0.0962,-0.6104
-0.078,-0.147,-0.035,2,-78.4,128.7,1023,2018,5,17,22,17,45.77,0.4603,-0.6256,-0.1014,-0.6215
-0.08,-0.149,-0.014,4.5,-78.6,128.9,1023,2018,5,17,22,17,45.794,0.4378,-0.6304,-0.1067,-0.632
-0.097,-0.126,0.014,6.2,-81.4,126.5,1023,2018,5,17,22,17,45.809,0.4151,-0.6347,-0.1118,-0.642
-0.109,-0.1,0.038,7.1,-84.8,120.6,1023,2018,5,17,22,17,45.828,0.392,-0.639,-0.1163,-0.6514
-0.123,-0.094,0.063,7.1,-88.9,111,1023,2018,5,17,22,17,45.85,0.369,-0.6432,-0.1196,-0.6601
-0.114,-0.102,0.063,6.1,-92.3,99.2,1023,2018,5,17,22,17,45.87,0.3468,-0.6473,-0.121,-0.6678
-0.091,-0.124,0.055,3.5,-95,85.5,1023,2018,5,17,22,17,45.893,0.3258,-0.6513,-0.1203,-0.6746
-0.047,-0.134,0.052,0.4,-95.9,71,0,2018,5,17,22,17,45.933,0.3063,-0.6551,-0.1173,-0.6805
-0.017,-0.159,0.045,-3.5,-94.7,58,0,2018,5,17,22,17,45.937,0.2883,-0.6586,-0.1123,-0.6858
0.02,-0.161,0.055,-5.4,-90.6,45.4,0,2018,5,17,22,17,45.951,0.2721,-0.6616,-0.1062,-0.6905
0.028,-0.153,0.049,-8.1,-83.4,36.1,0,2018,5,17,22,17,45.987,0.2574,-0.664,-0.1,-0.6948
0.026,-0.149,0.054,-9.6,-80.2,29.5,0,2018,5,17,22,17,46.007,0.244,-0.666,-0.0936,-0.6986
0.013,-0.142,0.051,-10.9,-80.7,25.2,0,2018,5,17,22,17,46.012,0.2318,-0.6676,-0.086,-0.7022
-0.001,-0.149,0.047,-10.9,-82.9,22.9,0,2018,5,17,22,17,46.047,0.2203,-0.669,-0.0773,-0.7055
-0.002,-0.143,0.046,-11.5,-87.9,21.5,0,2018,5,17,22,17,46.069,0.2083,-0.6705,-0.0682,-0.7087
0,-0.136,0.045,-11.4,-94.5,20.5,0,2018,5,17,22,17,46.074,0.1957,-0.6719,-0.0582,-0.7118
0.029,-0.127,0.05,-11.4,-102.3,19.1,0,2018,5,17,22,17,46.09,0.1821,-0.6735,-0.0472,-0.7148
0.054,-0.118,0.052,-11.3,-109,17.1,0,2018,5,17,22,17,46.113,0.1679,-0.675,-0.0351,-0.7175
0.091,-0.105,0.073,-10.8,-113.5,13.8,0,2018,5,17,22,17,46.13,0.1529,-0.6765,-0.0222,-0.72
0.056,-0.103,0.113,-9.8,-110.8,10.8,0,2018,5,17,22,17,46.153,0.1376,-0.6781,-0.0094,-0.7218
0.058,-0.1,0.115,-10,-104.2,9.1,0,2018,5,17,22,17,46.171,0.1234,-0.6792,0.0031,-0.7234
0.056,-0.114,0.103,-9.3,-96.5,7.4,0,2018,5,17,22,17,46.194,0.1102,-0.6801,0.0149,-0.7245
0.046,-0.112,0.121,-7.8,-87.6,5.4,1023,2018,5,17,22,17,46.213,0.0981,-0.6807,0.0258,-0.7254
0.028,-0.105,0.141,-6.3,-79.2,2.3,1023,2018,5,17,22,17,46.235,0.0873,-0.6812,0.0359,-0.7259
0.01,-0.1,0.163,-4.5,-68.7,-0.8,1023,2018,5,17,22,17,46.253,0.0781,-0.6816,0.0452,-0.726
-0.013,-0.092,0.18,-2.5,-54.5,-4.6,1023,2018,5,17,22,17,46.276,0.0709,-0.6819,0.0533,-0.7259
-0.036,-0.08,0.188,-0.3,-39.5,-9.2,1023,2018,5,17,22,17,46.294,0.0659,-0.6823,0.0599,-0.7256
-0.051,-0.069,0.203,0.9,-22.9,-13.9,1023,2018,5,17,22,17,46.317,0.0635,-0.6825,0.0652,-0.7251
-0.056,-0.053,0.214,1.5,-4.5,-17.9,1023,2018,5,17,22,17,46.333,0.0636,-0.6827,0.0687,-0.7246
-0.072,-0.024,0.223,1.2,13.4,-20.6,1023,2018,5,17,22,17,46.37,0.0663,-0.6826,0.0702,-0.7243
-0.05,0.01,0.209,-0.5,28,-22,1023,2018,5,17,22,17,46.394,0.0711,-0.6821,0.0698,-0.7243
-0.019,0.039,0.184,-2.8,37.3,-22.9,1023,2018,5,17,22,17,46.398,0.0776,-0.6812,0.0682,-0.7247
-0.004,0.061,0.17,-5.7,41.8,-22.1,1023,2018,5,17,22,17,46.416,0.0847,-0.6798,0.0657,-0.7254
0.005,0.083,0.155,-9.3,42.6,-20,1023,2018,5,17,22,17,46.434,0.092,-0.6779,0.0628,-0.7265
0.012,0.095,0.145,-12.3,39.8,-16.7,0,2018,5,17,22,17,46.457,0.0987,-0.6757,0.0597,-0.728
0.017,0.11,0.13,-14.3,33.3,-12.4,0,2018,5,17,22,17,46.494,0.1042,-0.6732,0.0569,-0.7298
0.021,0.122,0.116,-16.3,23.2,-8.1,0,2018,5,17,22,17,46.517,0.1084,-0.6706,0.0546,-0.7317
0.026,0.121,0.096,-17.5,10.9,-3.6,0,2018,5,17,22,17,46.522,0.1108,-0.668,0.0534,-0.7338
0.023,0.097,0.074,-17.6,-0.1,0.9,0,2018,5,17,22,17,46.536,0.1111,-0.6656,0.0532,-0.7359
0.021,0.081,0.061,-18.1,-10.3,5.2,0,2018,5,17,22,17,46.559,0.1089,-0.663,0.053,-0.7386
0.021,0.057,0.04,-17.9,-17.9,8.5,0,2018,5,17,22,17,46.577,0.1053,-0.6607,0.0537,-0.7412
0.021,0.038,0.017,-18,-21.8,11.2,0,2018,5,17,22,17,46.596,0.101,-0.6587,0.055,-0.7435
0.017,0.022,0.003,-17.8,-23.1,12.4,0,2018,5,17,22,17,46.632,0.096,-0.6568,0.0564,-0.7457
0.023,0.006,-0.013,-18.1,-22.5,12.4,0,2018,5,17,22,17,46.655,0.0909,-0.6551,0.0579,-0.7477
0.018,-0.004,-0.032,-18.3,-20.1,11.8,0,2018,5,17,22,17,46.66,0.0862,-0.6533,0.0594,-0.7497
0.018,-0.013,-0.045,-18.5,-17.9,11.1,0,2018,5,17,22,17,46.677,0.0819,-0.6516,0.0608,-0.7515
0.02,-0.021,-0.061,-18.1,-16.1,10.3,0,2018,5,17,22,17,46.696,0.078,-0.65,0.0621,-0.7533
0.01,-0.026,-0.073,-16.8,-14.7,9.5,0,2018,5,17,22,17,46.719,0.0744,-0.6485,0.0633,-0.7548
0.004,-0.034,-0.081,-15,-14.2,8.8,0,2018,5,17,22,17,46.737,0.071,-0.6473,0.0645,-0.7561
0.012,-0.039,-0.077,-12.5,-14.1,8.4,0,2018,5,17,22,17,46.76,0.0678,-0.6463,0.0657,-0.7571
0.01,-0.047,-0.083,-9.1,-12.9,7.9,0,2018,5,17,22,17,46.777,0.0649,-0.6458,0.067,-0.7577
0.035,-0.051,-0.081,-5.7,-11.4,7.1,0,2018,5,17,22,17,46.796,0.0624,-0.6456,0.0681,-0.758
0.051,-0.053,-0.07,-1.7,-8.6,5.9,1023,2018,5,17,22,17,46.819,0.0603,-0.6458,0.0691,-0.7578
0.058,-0.054,-0.059,1.8,-3.7,4.2,1023,2018,5,17,22,17,46.836,0.059,-0.6464,0.0698,-0.7574
0.066,-0.052,-0.059,5,3.4,2.9,1023,2018,5,17,22,17,46.859,0.059,-0.6474,0.07,-0.7566
0.065,-0.055,-0.047,7.2,11.5,1.7,1023,2018,5,17,22,17,46.895,0.0595,-0.6485,0.0691,-0.7557
0.056,-0.053,-0.046,8.4,19,1.3,1023,2018,5,17,22,17,46.918,0.0613,-0.6497,0.0672,-0.7547
0.042,-0.042,-0.04,9,24.3,1.6,1023,2018,5,17,22,17,46.922,0.0638,-0.6509,0.0644,-0.7536
0.015,-0.029,-0.034,8.4,25.5,2.7,1023,2018,5,17,22,17,46.938,0.0665,-0.6521,0.0611,-0.7527
0.007,-0.025,-0.034,7.5,21.6,3.8,1023,2018,5,17,22,17,46.962,0.0691,-0.6531,0.0577,-0.7518
-0.006,-0.024,-0.032,6,13.5,4.8,1023,2018,5,17,22,17,46.998,0.0706,-0.6541,0.055,-0.751
-0.007,-0.02,-0.028,4.7,2.7,4.7,1023,2018,5,17,22,17,47.021,0.0711,-0.655,0.0536,-0.7503
-0.021,-0.027,-0.024,3.8,-8.8,3.6,1023,2018,5,17,22,17,47.026,0.0703,-0.6559,0.0537,-0.7496
-0.008,-0.034,-0.013,3.5,-17.6,1.6,0,2018,5,17,22,17,47.042,0.0683,-0.6567,0.0553,-0.749
-0.005,-0.046,-0.008,3.4,-22.2,-1.2,0,2018,5,17,22,17,47.065,0.066,-0.6574,0.0581,-0.7483
0.002,-0.057,-0.002,3.4,-22.1,-4.3,0,2018,5,17,22,17,47.081,0.0636,-0.6581,0.0615,-0.7476
0,-0.058,0.003,3.4,-17.5,-7.7,0,2018,5,17,22,17,47.099,0.0621,-0.6587,0.065,-0.7469
0.001,-0.052,0.009,3.6,-9.7,-10.9,0,2018,5,17,22,17,47.12,0.0617,-0.6591,0.0681,-0.7463
-0.002,-0.034,0.014,3.2,-0.3,-12.8,0,2018,5,17,22,17,47.157,0.0628,-0.6593,0.0703,-0.7458
-0.003,-0.018,0.029,1.7,7.7,-14.2,0,2018,5,17,22,17,47.179,0.0653,-0.6593,0.0715,-0.7455
-0.003,0.002,0.023,0.5,13.5,-14.3,0,2018,5,17,22,17,47.183,0.0681,-0.659,0.0716,-0.7455
-0.003,0.025,0.023,-1.7,14,-13.3,0,2018,5,17,22,17,47.199,0.0712,-0.6584,0.0712,-0.7458
0,0.049,0.02,-4.3,9.9,-11.7,0,2018,5,17,22,17,47.223,0.0736,-0.6576,0.0706,-0.7464
-0.003,0.06,0.014,-6.9,1.2,-10,0,2018,5,17,22,17,47.26,0.075,-0.6565,0.0707,-0.7471
-0.01,0.076,0.008,-9.5,-11.1,-7.7,0,2018,5,17,22,17,47.283,0.0745,-0.6553,0.0718,-0.7481
-0.015,0.075,0.002,-11.1,-25,-5.3,0,2018,5,17,22,17,47.288,0.0723,-0.6542,0.0744,-0.7491
-0.026,0.059,-0.003,-12.2,-36.5,-2.2,0,2018,5,17,22,17,47.302,0.0684,-0.6531,0.0785,-0.75
-0.035,0.046,0.013,-12.9,-46.4,0.1,0,2018,5,17,22,17,47.32,0.0631,-0.6519,0.0839,-0.7509
-0.049,0.043,0.006,-13.5,-57.7,0.9,0,2018,5,17,22,17,47.343,0.0561,-0.6507,0.0903,-0.7517
-0.069,0.025,0.009,-13.5,-67.6,1,1023,2018,5,17,22,17,47.361,0.048,-0.6496,0.0982,-0.7523
-0.066,0.014,0.022,-13,-73.6,0.2,1023,2018,5,17,22,17,47.384,0.039,-0.6484,0.1072,-0.7526
-0.053,0.002,0.03,-11.7,-75.1,-1.8,1023,2018,5,17,22,17,47.404,0.0301,-0.6471,0.117,-0.7527
-0.018,-0.006,0.046,-10.6,-72.7,-5.1,1023,2018,5,17,22,17,47.423,0.0217,-0.6456,0.1271,-0.7526
0.026,-0.007,0.066,-8.7,-65.6,-8.4,1023,2018,5,17,22,17,47.441,0.0144,-0.644,0.137,-0.7524
0.063,-0.009,0.084,-6.5,-52.8,-10.8,1023,2018,5,17,22,17,47.464,0.0086,-0.6422,0.1458,-0.7524
0.087,-0.002,0.085,-4.1,-38,-12.4,1023,2018,5,17,22,17,47.501,0.0051,-0.6405,0.1532,-0.7524
0.077,0.002,0.093,-1.4,-21.7,-12.3,1023,2018,5,17,22,17,47.522,0.0034,-0.639,0.1585,-0.7526
0.052,0.004,0.1,0.7,-6.1,-10.9,1023,2018,5,17,22,17,47.527,0.0032,-0.6378,0.1614,-0.753
0.036,0.014,0.106,1.8,7.3,-7.4,1023,2018,5,17,22,17,47.563,0.0045,-0.6369,0.1621,-0.7536
0.022,0.033,0.107,2.2,14.9,-3.9,1023,2018,5,17,22,17,47.585,0.0065,-0.6362,0.1609,-0.7544
-0.004,0.038,0.101,1.4,16.6,0,1023,2018,5,17,22,17,47.59,0.0083,-0.6357,0.1586,-0.7553
-0.013,0.045,0.093,-0.7,14,2.8,1023,2018,5,17,22,17,47.605,0.0096,-0.6351,0.156,-0.7563
-0.015,0.056,0.088,-3.6,6.8,4.3,1023,2018,5,17,22,17,47.622,0.01,-0.6344,0.1538,-0.7574
-0.003,0.062,0.081,-7,-3.3,3.5,1023,2018,5,17,22,17,47.645,0.0091,-0.6333,0.1527,-0.7585
0.014,0.051,0.073,-9.6,-13.1,1.4,0,2018,5,17,22,17,47.681,0.0072,-0.6318,0.1531,-0.7598
0.018,0.033,0.074,-11.8,-18.9,-1.2,0,2018,5,17,22,17,47.703,0.0048,-0.6298,0.155,-0.761
0.003,0.027,0.054,-12.9,-20.5,-4.5,0,2018,5,17,22,17,47.708,0.0025,-0.6277,0.1578,-0.7622
-0.011,0.021,0.046,-13.3,-20,-7.8,0,2018,5,17,22,17,47.724,0.0007,-0.6255,0.161,-0.7634
-0.025,0.013,0.066,-13.5,-18.4,-11,0,2018,5,17,22,17,47.744,-0.0005,-0.6231,0.1644,-0.7646
-0.012,0.024,0.087,-14,-20,-14.5,0,2018,5,17,22,17,47.783,-0.0016,-0.6204,0.1681,-0.766
-0.027,0.015,0.087,-15.3,-19.2,-16.8,0,2018,5,17,22,17,47.805,-0.0023,-0.6174,0.1722,-0.7675
-0.047,0.015,0.082,-18.7,-17.1,-17.6,0,2018,5,17,22,17,47.808,-0.0025,-0.6141,0.1763,-0.7692
-0.055,0.016,0.069,-22.7,-13.5,-17.5,0,2018,5,17,22,17,47.823,-0.0026,-0.6103,0.18,-0.7713
-0.069,0.015,0.059,-27.8,-6.1,-15.1,0,2018,5,17,22,17,47.86,-0.0023,-0.6061,0.1829,-0.774
-0.088,0.039,0.025,-33.5,3.2,-10.6,0,2018,5,17,22,17,47.883,-0.0019,-0.6015,0.1841,-0.7773
-0.114,0.095,-0.021,-40.4,7.8,-5.7,0,2018,5,17,22,17,47.888,-0.0017,-0.5965,0.1836,-0.7812
-0.109,0.167,-0.098,-47.6,2.8,-0.7,0,2018,5,17,22,17,47.904,-0.0023,-0.5905,0.1828,-0.7859
-0.088,0.223,-0.176,-53.1,-12.6,3.6,0,2018,5,17,22,17,47.927,-0.0046,-0.5836,0.1832,-0.791
-0.063,0.255,-0.256,-56.3,-37.3,6.1,1023,2018,5,17,22,17,47.945,-0.0096,-0.5761,0.1861,-0.7958
-0.035,0.209,-0.324,-55.3,-60.3,9.4,1023,2018,5,17,22,17,47.968,-0.0174,-0.5684,0.1923,-0.7997
-0.008,0.182,-0.352,-50.2,-74,13.3,1023,2018,5,17,22,17,48.004,-0.0274,-0.5611,0.2005,-0.8025
0.01,0.167,-0.343,-42.1,-79.1,18.8,1023,2018,5,17,22,17,48.027,-0.0388,-0.5548,0.2096,-0.8041
0.028,0.155,-0.323,-32.5,-75.4,26.2,1023,2018,5,17,22,17,48.032,-0.0506,-0.5499,0.2182,-0.8046
0.047,0.149,-0.308,-20.7,-65.3,34.7,1023,2018,5,17,22,17,48.047,-0.0625,-0.5467,0.225,-0.804
0.053,0.126,-0.295,-7.4,-56.6,42.2,1023,2018,5,17,22,17,48.071,-0.074,-0.5456,0.2297,-0.8025
0.038,0.096,-0.277,6.4,-54.3,48.2,1023,2018,5,17,22,17,48.087,-0.0854,-0.5466,0.2332,-0.7996
0.024,0.085,-0.225,18.7,-56.6,52.4,1023,2018,5,17,22,17,48.123,-0.0971,-0.5497,0.2363,-0.7953
0.01,0.074,-0.157,28.5,-61.6,54.5,1023,2018,5,17,22,17,48.147,-0.109,-0.5542,0.2398,-0.7895
-0.017,0.061,-0.086,35.4,-65.3,56.5,1023,2018,5,17,22,17,48.151,-0.1215,-0.5602,0.2439,-0.7822
-0.039,0.044,-0.022,39.5,-65.7,59,1023,2018,5,17,22,17,48.167,-0.1341,-0.567,0.2479,-0.7739
-0.069,0.013,0.041,41.5,-64.8,61.4,0,2018,5,17,22,17,48.19,-0.147,-0.5737,0.2515,-0.7654
-0.078,-0.012,0.09,40.1,-64.5,63.4,0,2018,5,17,22,17,48.208,-0.16,-0.5799,0.2548,-0.757
-0.09,-0.039,0.113,36.6,-63.8,65.8,0,2018,5,17,22,17,48.231,-0.173,-0.5855,0.2577,-0.7487
-0.077,-0.052,0.11,31.8,-65.3,68.2,0,2018,5,17,22,17,48.25,-0.1865,-0.5904,0.2604,-0.7407
-0.051,-0.065,0.102,27.7,-68.2,69.8,0,2018,5,17,22,17,48.288,-0.2006,-0.5945,0.263,-0.7328
-0.047,-0.084,0.113,24.3,-70.2,70.6,0,2018,5,17,22,17,48.311,-0.2151,-0.5978,0.2657,-0.725
-0.031,-0.098,0.109,22.9,-70.4,70.4,0,2018,5,17,22,17,48.316,-0.2296,-0.6005,0.2684,-0.7172
0,-0.106,0.101,23.8,-70.6,70.1,0,2018,5,17,22,17,48.331,-0.244,-0.6031,0.2713,-0.7092
0.026,-0.13,0.112,26,-70.3,68.7,0,2018,5,17,22,17,48.353,-0.2584,-0.6065,0.2738,-0.7001
0.048,-0.152,0.111,28.9,-67.5,66.2,0,2018,5,17,22,17,48.369,-0.2722,-0.61,0.2765,-0.6908
0.045,-0.172,0.11,32.4,-62.6,63.1,0,2018,5,17,22,17,48.387,-0.2853,-0.6137,0.2789,-0.6811
0.041,-0.199,0.114,35.7,-53.5,59.7,0,2018,5,17,22,17,48.41,-0.2967,-0.618,0.2811,-0.6715
0.046,-0.205,0.113,38.6,-40.6,55.4,0,2018,5,17,22,17,48.447,-0.3065,-0.6227,0.2824,-0.6621
0.05,-0.193,0.121,41.7,-26.4,49.9,0,2018,5,17,22,17,48.47,-0.3139,-0.6283,0.2827,-0.6532
0.07,-0.169,0.136,43.2,-14.9,44.1,0,2018,5,17,22,17,48.475,-0.319,-0.6345,0.2823,-0.6449
0.097,-0.137,0.151,43,-5.7,37.9,0,2018,5,17,22,17,48.491,-0.3222,-0.6409,0.2813,-0.6372
0.116,-0.081,0.173,41.8,-2.2,32.4,0,2018,5,17,22,17,48.514,-0.3241,-0.6473,0.2803,-0.6303
0.133,-0.013,0.197,38.8,-7.9,29.4,0,2018,5,17,22,17,48.532,-0.3257,-0.6531,0.2796,-0.6237
0.144,0.03,0.226,34.1,-21.5,27.5,0,2018,5,17,22,17,48.556,-0.3284,-0.6577,0.2801,-0.6172
0.1,0.01,0.231,27.8,-38.2,26.7,0,2018,5,17,22,17,48.57,-0.3329,-0.6607,0.2821,-0.6106
0.052,-0.005,0.219,21,-55.1,27.6,0,2018,5,17,22,17,48.588,-0.3399,-0.6619,0.2854,-0.6038
-0.048,-0.015,0.224,15.9,-69,30.4,0,2018,5,17,22,17,48.61,-0.349,-0.6617,0.2898,-0.5968
-0.204,-0.055,0.208,11.8,-80.7,31.6,1023,2018,5,17,22,17,48.65,-0.3599,-0.6602,0.2949,-0.5894
-0.335,-0.081,0.158,11.4,-86.8,32.9,1023,2018,5,17,22,17,48.65,-0.372,-0.6578,0.3006,-0.5817
-0.443,-0.126,0.172,14.7,-81.6,32.9,1023,2018,5,17,22,17,48.672,-0.3843,-0.6553,0.3063,-0.5735
-0.483,-0.171,0.196,20,-70.2,29.3,1023,2018,5,17,22,17,48.709,-0.395,-0.6537,0.3115,-0.5653
-0.415,-0.215,0.226,26.4,-55.1,23.7,1023,2018,5,17,22,17,48.732,-0.4034,-0.6531,0.3163,-0.5573
-0.405,-0.284,0.305,34.3,-30.1,16.4,1023,2018,5,17,22,17,48.737,-0.4084,-0.6542,0.3204,-0.55
-0.398,-0.305,0.333,37.1,-1.8,9.3,0,2018,5,17,22,17,48.753,-0.4092,-0.6573,0.323,-0.544
-0.373,-0.321,0.349,35,23.9,-0.2,0,2018,5,17,22,17,48.776,-0.4061,-0.6619,0.3239,-0.5402
-0.367,-0.328,0.359,29.6,46.3,-11.4,0,2018,5,17,22,17,48.794,-0.3994,-0.6672,0.3236,-0.5389
-0.358,-0.293,0.357,18.7,63.4,-21.4,0,2018,5,17,22,17,48.817,-0.3897,-0.6725,0.322,-0.5403
-0.313,-0.248,0.339,1.7,68.4,-31.6,0,2018,5,17,22,17,48.833,-0.3787,-0.6765,0.3194,-0.5447
-0.173,-0.178,0.316,-19.9,56.2,-44.6,0,2018,5,17,22,17,48.867,-0.3679,-0.6777,0.3173,-0.5518
-0.017,-0.131,0.306,-40.8,31.2,-59.7,0,2018,5,17,22,17,48.888,-0.3594,-0.6745,0.3172,-0.5612
0.093,-0.098,0.288,-57.4,2.9,-74,0,2018,5,17,22,17,48.893,-0.3536,-0.6668,0.3204,-0.5722
0.145,-0.114,0.276,-68.9,-14.1,-85.6,0,2018,5,17,22,17,48.929,-0.3498,-0.6555,0.3266,-0.584
0.169,-0.118,0.26,-75.6,-14.8,-92.7,0,2018,5,17,22,17,48.952,-0.3466,-0.6418,0.334,-0.5969
0.136,-0.144,0.253,-78.7,1.3,-95.8,0,2018,5,17,22,17,48.957,-0.342,-0.6276,0.3406,-0.6107
0.106,-0.154,0.224,-81,29.5,-93.9,0,2018,5,17,22,17,48.973,-0.3348,-0.6142,0.3446,-0.6259
0.079,-0.134,0.156,-82.9,61.2,-87.8,0,2018,5,17,22,17,48.996,-0.3248,-0.6022,0.3443,-0.6427
0.076,-0.098,0.088,-85.2,86.3,-80.4,0,2018,5,17,22,17,49.014,-0.3124,-0.5918,0.3398,-0.6606
0.066,-0.054,0.02,-88.1,101.2,-73.4,0,2018,5,17,22,17,49.037,-0.2986,-0.5815,0.3322,-0.6798
0.017,-0.016,0.006,-92,101.4,-68.6,0,2018,5,17,22,17,49.053,-0.285,-0.5716,0.3224,-0.6985
-0.068,-0.009,-0.016,-97.8,96.5,-63.6,1023,2018,5,17,22,17,49.072,-0.2724,-0.561,0.312,-0.7166
-0.103,-0.003,-0.082,-104.2,84.9,-60.1,1023,2018,5,17,22,17,49.095,-0.2614,-0.5494,0.3018,-0.7339
-0.121,-0.015,-0.139,-108.2,66.7,-60,1023,2018,5,17,22,17,49.113,-0.2519,-0.5368,0.2932,-0.7498
-0.122,-0.013,-0.176,-110,47.9,-61.9,1023,2018,5,17,22,17,49.136,-0.2443,-0.522,0.2867,-0.7651
-0.119,-0.004,-0.186,-108.9,34,-64.4,1023,2018,5,17,22,17,49.155,-0.2378,-0.5057,0.2823,-0.7797
-0.146,0.001,-0.187,-106.1,25.2,-65.8,1023,2018,5,17,22,17,49.177,-0.232,-0.4887,0.2793,-0.7932
-0.208,0.004,-0.211,-102.1,17.9,-65.9,1023,2018,5,17,22,17,49.214,-0.2263,-0.4717,0.2776,-0.8057
-0.246,0,-0.274,-96.9,7.6,-64.3,1023,2018,5,17,22,17,49.214,-0.2209,-0.4549,0.2771,-0.8169
-0.297,0,-0.311,-90.3,-3.3,-62.2,1023,2018,5,17,22,17,49.237,-0.2165,-0.4383,0.278,-0.8267
-0.329,0.015,-0.328,-83.9,-10.4,-59.1,1023,2018,5,17,22,17,49.276,-0.2127,-0.4224,0.2804,-0.8352
-0.319,0.037,-0.348,-76.6,-12.6,-56.2,1023,2018,5,17,22,17,49.298,-0.2092,-0.4073,0.2832,-0.8426
-0.294,0.059,-0.374,-66.6,-10.4,-53.1,1023,2018,5,17,22,17,49.303,-0.206,-0.3933,0.286,-0.8491
-0.304,0.097,-0.394,-54.4,-2.6,-48.9,0,2018,5,17,22,17,49.319,-0.2022,-0.3814,0.288,-0.8547
-0.311,0.169,-0.442,-40.9,9.8,-39.6,0,2018,5,17,22,17,49.343,-0.198,-0.372,0.2886,-0.8596
-0.289,0.262,-0.519,-25.1,23.5,-27.2,0,2018,5,17,22,17,49.356,-0.1936,-0.366,0.2869,-0.8638
-0.232,0.358,-0.579,-7.6,28.4,-13.7,0,2018,5,17,22,17,49.375,-0.19,-0.3633,0.2834,-0.8669
-0.19,0.43,-0.599,10.3,25.2,2.7,0,2018,5,17,22,17,49.397,-0.1877,-0.364,0.2794,-0.8683
-0.172,0.47,-0.561,26.7,20.7,23,0,2018,5,17,22,17,49.416,-0.1877,-0.3682,0.2755,-0.8679
-0.137,0.455,-0.512,41.2,15.3,44.5,0,2018,5,17,22,17,49.439,-0.1903,-0.3755,0.2715,-0.8654
-0.103,0.454,-0.526,53.1,4,64.4,0,2018,5,17,22,17,49.458,-0.1959,-0.3855,0.2677,-0.8609
-0.023,0.493,-0.567,63.6,-19.8,82.8,0,2018,5,17,22,17,49.481,-0.205,-0.3974,0.2657,-0.854
-0.032,0.468,-0.544,71.8,-48.6,95.6,0,2018,5,17,22,17,49.499,-0.2178,-0.4103,0.2669,-0.8443
-0.062,0.421,-0.5,77.3,-75.6,107.3,0,2018,5,17,22,17,49.522,-0.234,-0.4234,0.2715,-0.8319
-0.055,0.371,-0.448,81.1,-98.5,115.6,0,2018,5,17,22,17,49.539,-0.2531,-0.4365,0.2791,-0.8169
-0.041,0.311,-0.397,85.2,-112.6,119.3,0,2018,5,17,22,17,49.562,-0.274,-0.449,0.2888,-0.7998
-0.018,0.293,-0.361,90.1,-113.8,122.7,0,2018,5,17,22,17,49.578,-0.2954,-0.4617,0.2992,-0.781
-0.017,0.24,-0.299,96.2,-102.6,125,0,2018,5,17,22,17,49.614,-0.316,-0.4749,0.3087,-0.761
-0.022,0.13,-0.232,102.5,-82.2,126.2,0,2018,5,17,22,17,49.637,-0.335,-0.4895,0.3158,-0.7404
-0.038,0.037,-0.171,108.2,-59.5,127.6,0,2018,5,17,22,17,49.641,-0.3515,-0.5057,0.32,-0.7198
-0.065,-0.038,-0.14,114.3,-39.2,130.6,1023,2018,5,17,22,17,49.66,-0.365,-0.5247,0.3221,-0.6982
-0.081,-0.065,-0.107,119.6,-26.5,132.3,1023,2018,5,17,22,17,49.678,-0.3766,-0.5448,0.322,-0.6764
-0.161,-0.097,-0.052,125.2,-23.1,131.9,1023,2018,5,17,22,17,49.701,-0.3868,-0.5651,0.321,-0.654
-0.234,-0.142,0.011,128.5,-29.2,128.8,1023,2018,5,17,22,17,49.719,-0.3964,-0.5847,0.3202,-0.6311
-0.248,-0.16,0.059,130.4,-39.7,126.3,1023,2018,5,17,22,17,49.74,-0.4058,-0.6029,0.3206,-0.6074
-0.275,-0.237,0.118,132.8,-50.4,121.2,1023,2018,5,17,22,17,49.779,-0.4163,-0.6201,0.3216,-0.5819
-0.26,-0.265,0.207,133.8,-49.9,117.3,1023,2018,5,17,22,17,49.802,-0.4264,-0.6361,0.3234,-0.5557
-0.195,-0.299,0.311,132.6,-32.4,115.3,1023,2018,5,17,22,17,49.806,-0.4348,-0.652,0.3243,-0.5296
-0.136,-0.357,0.375,129.5,-5.7,113.2,1023,2018,5,17,22,17,49.826,-0.4402,-0.6686,0.3228,-0.5048
-0.098,-0.464,0.434,122.8,22.7,107,1023,2018,5,17,22,17,49.841,-0.4418,-0.6863,0.3186,-0.4819
-0.018,-0.542,0.506,110,43.7,94,1023,2018,5,17,22,17,49.86,-0.4396,-0.704,0.3125,-0.4619
0.054,-0.471,0.558,95.1,54.8,79.3,1023,2018,5,17,22,17,49.897,-0.4345,-0.7206,0.3056,-0.4454
0.156,-0.412,0.639,78.2,56,63.8,0,2018,5,17,22,17,49.919,-0.4285,-0.7351,0.2987,-0.432
0.22,-0.382,0.771,60.6,51.6,46.3,0,2018,5,17,22,17,49.924,-0.4219,-0.7471,0.2927,-0.4218
0.223,-0.393,0.915,44.3,43.4,28.2,0,2018,5,17,22,17,49.941,-0.4157,-0.7563,0.2883,-0.4147
0.263,-0.404,1.034,21.5,29.8,15.4,0,2018,5,17,22,17,49.965,-0.4108,-0.7623,0.2852,-0.4107
0.381,-0.372,1.058,-3.9,9.2,6.9,0,2018,5,17,22,17,49.982,-0.4087,-0.7647,0.283,-0.4099
0.499,-0.298,1.014,-27,-21.2,2.9,0,2018,5,17,22,17,50.005,-0.4111,-0.763,0.2816,-0.4115
0.544,-0.31,0.964,-48.7,-54.7,1.1,0,2018,5,17,22,17,50.023,-0.4185,-0.7574,0.2814,-0.4146
0.542,-0.427,0.722,-64.9,-93.4,-1.4,0,2018,5,17,22,17,50.046,-0.4312,-0.7475,0.2824,-0.4187
0.18,-0.879,0.46,-58,-133.4,-10.8,0,2018,5,17,22,17,50.062,-0.4495,-0.7334,0.287,-0.4214
-0.539,-1.285,0.547,-75.1,-107.9,-17.6,0,2018,5,17,22,17,50.081,-0.4674,-0.7179,0.2931,-0.4243
-0.587,-1.171,0.532,-109.4,-80.9,-29,0,2018,5,17,22,17,50.104,-0.4824,-0.7018,0.2945,-0.4333
-1.692,-1.299,0.244,-119.8,-56.2,-62.1,0,2018,5,17,22,17,50.122,-0.4932,-0.6848,0.2956,-0.4476
-1.773,-1.055,-0.088,-140.7,-35.1,-112.4,0,2018,5,17,22,17,50.143,-0.4986,-0.6657,0.2979,-0.4683
-1.666,-0.757,0.048,-137.5,21.4,-187.8,0,2018,5,17,22,17,50.161,-0.4944,-0.6449,0.3039,-0.4971
-1.532,-0.52,-0.047,-135.1,71,-260.1,0,2018,5,17,22,17,50.184,-0.476,-0.6247,0.313,-0.5339
-1.471,-0.404,-0.247,-142.8,91.7,-319.8,0,2018,5,17,22,17,50.202,-0.4462,-0.6018,0.3249,-0.5771
-1.642,-0.392,-0.376,-149.9,95.4,-369.3,0,2018,5,17,22,17,50.223,-0.4086,-0.5733,0.3397,-0.6235
-1.725,-0.327,-0.525,-162.9,95.2,-399.8,1023,2018,5,17,22,17,50.261,-0.365,-0.5385,0.356,-0.6707
-1.68,-0.215,-0.62,-169.1,117.9,-404.3,1023,2018,5,17,22,17,50.284,-0.317,-0.4989,0.3696,-0.7168
-1.6,-0.022,-0.677,-172.4,137.1,-392.8,1023,2018,5,17,22,17,50.289,-0.2659,-0.4572,0.3776,-0.7599
-1.38,0.264,-0.721,-168.7,150.7,-365.8,1023,2018,5,17,22,17,50.302,-0.2145,-0.4148,0.3796,-0.7985
-1.099,0.477,-0.692,-157.1,159.5,-329.8,1023,2018,5,17,22,17,50.341,-0.165,-0.3738,0.3759,-0.8316
-0.825,0.598,-0.674,-146.9,154.8,-298.4,1023,2018,5,17,22,17,50.364,-0.119,-0.3351,0.3681,-0.859
-0.658,0.612,-0.681,-137,133.9,-275.8,1023,2018,5,17,22,17,50.368,-0.0765,-0.2978,0.3595,-0.8809
-0.563,0.817,-0.809,-120.4,108.9,-248.7,1023,2018,5,17,22,17,50.386,-0.0378,-0.2626,0.3522,-0.8974
-0.462,0.91,-0.832,-97.9,88.3,-217.5,1023,2018,5,17,22,17,50.403,-0.0036,-0.2317,0.3466,-0.9089
-0.428,0.844,-0.816,-77.6,81.5,-185.6,1023,2018,5,17,22,17,50.427,0.0262,-0.2056,0.341,-0.9168
-0.372,0.753,-0.812,-55.5,82.2,-149.8,1023,2018,5,17,22,17,50.444,0.052,-0.1846,0.3341,-0.9227
-0.297,0.71,-0.83,-28.7,84.9,-107.6,1023,2018,5,17,22,17,50.467,0.0728,-0.1695,0.325,-0.9275
-0.244,0.705,-0.828,3.4,87.5,-62.6,1023,2018,5,17,22,17,50.488,0.0882,-0.1616,0.3136,-0.9315
-0.184,0.701,-0.824,41.7,87,-15,0,2018,5,17,22,17,50.525,0.0981,-0.1619,0.3,-0.9349
-0.155,0.666,-0.805,86.8,75.9,28.9,0,2018,5,17,22,17,50.548,0.1024,-0.1715,0.285,-0.9374
-0.135,0.629,-0.762,137.6,44.4,64.9,0,2018,5,17,22,17,50.552,0.1018,-0.1913,0.2714,-0.9377
-0.189,0.638,-0.647,188.2,-10,88.8,0,2018,5,17,22,17,50.568,0.0973,-0.2215,0.2628,-0.9339
-0.314,0.633,-0.474,232.2,-74.7,108.4,0,2018,5,17,22,17,50.592,0.089,-0.2612,0.2623,-0.9246
-0.457,0.607,-0.307,263.9,-134.8,128.3,0,2018,5,17,22,17,50.606,0.0762,-0.3082,0.27,-0.9089
-0.582,0.506,-0.182,281.8,-167.3,156.3,0,2018,5,17,22,17,50.624,0.0581,-0.3599,0.2827,-0.8871
-0.667,0.385,-0.164,289.8,-157.9,194.5,0,2018,5,17,22,17,50.647,0.0345,-0.4139,0.2938,-0.8609
-0.732,0.227,-0.211,290.2,-109.8,233.3,0,2018,5,17,22,17,50.684,0.0073,-0.4684,0.2961,-0.8323
-0.777,0.041,-0.269,282.6,-32.2,260.1,0,2018,5,17,22,17,50.707,-0.0196,-0.5219,0.2851,-0.8036
-0.774,-0.172,-0.119,270.9,72.6,271.4,0,2018,5,17,22,17,50.712,-0.0411,-0.5729,0.2582,-0.7767
-0.675,-0.269,0.103,257.8,182.4,265.9,0,2018,5,17,22,17,50.727,-0.0523,-0.6207,0.2151,-0.752
-0.475,-0.256,0.264,243.2,266.3,245,0,2018,5,17,22,17,50.765,-0.0511,-0.6632,0.1594,-0.7293
-0.331,-0.125,0.35,227.3,304.6,210.9,0,2018,5,17,22,17,50.788,-0.0397,-0.7001,0.0978,-0.7061
-0.298,-0.001,0.474,205.5,293.4,171.8,0,2018,5,17,22,17,50.793,-0.022,-0.7303,0.0383,-0.6816
-0.264,0.002,0.466,178.2,290.6,129.6,1023,2018,5,17,22,17,50.807,-0.0009,-0.7536,-0.0148,-0.657
-0.325,0.081,0.552,149,260.6,91.4,1023,2018,5,17,22,17,50.824,0.0224,-0.7708,-0.0608,-0.6337
-0.359,0.099,0.642,117.2,215.8,55.2,1023,2018,5,17,22,17,50.847,0.0449,-0.7828,-0.0972,-0.6129
-0.36,0.075,0.702,87.1,169.3,26.2,1023,2018,5,17,22,17,50.885,0.0651,-0.7908,-0.1236,-0.5957
-0.388,0.021,0.723,62.1,136.7,9.9,1023,2018,5,17,22,17,50.908,0.0825,-0.7961,-0.1423,-0.5822
-0.418,-0.037,0.75,39.8,117.1,7,1023,2018,5,17,22,17,50.913,0.098,-0.799,-0.1567,-0.5721
-0.337,-0.086,0.757,20.9,108.7,16,1023,2018,5,17,22,17,50.927,0.1117,-0.7996,-0.1699,-0.5649
-0.199,-0.237,0.672,-7.4,124.5,57.3,1023,2018,5,17,22,17,50.953,0.1363,-0.7935,-0.2021,-0.5575
-0.119,-0.28,0.612,-21.2,136.4,84.2,1023,2018,5,17,22,17,50.968,0.1479,-0.7861,-0.2244,-0.5564
-0.081,-0.299,0.541,-35.7,145.6,109.5,1023,2018,5,17,22,17,51.005,0.1589,-0.7755,-0.2507,-0.5571
-0.123,-0.315,0.456,-50.3,149.8,131.5,1023,2018,5,17,22,17,51.026,0.169,-0.7614,-0.2801,-0.5596
-0.235,-0.318,0.389,-67.9,140.7,149.7,1023,2018,5,17,22,17,51.029,0.1775,-0.7438,-0.3113,-0.564
-0.304,-0.349,0.305,-90.9,112,161.3,1023,2018,5,17,22,17,51.066,0.1829,-0.7229,-0.3415,-0.572
-0.366,-0.384,0.221,-116.3,59,160.3,1023,2018,5,17,22,17,51.088,0.1837,-0.6996,-0.367,-0.5848
-0.443,-0.511,0.132,-145.7,-7.6,146.9,1023,2018,5,17,22,17,51.093,0.1795,-0.675,-0.3841,-0.6037
-0.454,-0.649,0.003,-176.6,-87,116,0,2018,5,17,22,17,51.13,0.1706,-0.6501,-0.3891,-0.6299
-0.392,-0.724,-0.116,-204.1,-155.8,64.9,0,2018,5,17,22,17,51.134,0.1591,-0.626,-0.379,-0.6625
-0.394,-0.678,-0.272,-217.1,-197.3,11.3,0,2018,5,17,22,17,51.15,0.149,-0.6033,-0.3559,-0.6979
-0.345,-0.59,-0.394,-217.4,-212.9,-39.1,0,2018,5,17,22,17,51.187,0.1427,-0.5822,-0.3229,-0.7323
-0.204,-0.583,-0.548,-202.9,-206.1,-89,0,2018,5,17,22,17,51.21,0.1412,-0.5632,-0.2834,-0.7631
-0.134,-0.604,-0.62,-177.6,-179.5,-126.9,0,2018,5,17,22,17,51.214,0.1462,-0.5473,-0.2418,-0.7876
-0.16,-0.637,-0.728,-151.5,-142.6,-147.4,0,2018,5,17,22,17,51.23,0.1567,-0.534,-0.2022,-0.8057
-0.168,-0.603,-0.849,-122.6,-104.6,-159.2,0,2018,5,17,22,17,51.254,0.1717,-0.5231,-0.1667,-0.8179
-0.128,-0.531,-0.892,-92.2,-63.7,-163.5,0,2018,5,17,22,17,51.271,0.1902,-0.5146,-0.1367,-0.8247
-0.107,-0.408,-0.874,-63.8,-20.1,-163,0,2018,5,17,22,17,51.295,0.2119,-0.5085,-0.1135,-0.8268
-0.158,-0.301,-0.846,-39.9,14,-158.4,0,2018,5,17,22,17,51.312,0.2361,-0.504,-0.0973,-0.825
-0.171,-0.195,-0.824,-17.9,37.6,-155.9,0,2018,5,17,22,17,51.335,0.2615,-0.5013,-0.086,-0.8202
-0.167,-0.117,-0.805,1.1,55.9,-147.9,0,2018,5,17,22,17,51.351,0.2874,-0.5001,-0.0791,-0.813
-0.134,-0.068,-0.781,20.1,68.4,-142.8,0,2018,5,17,22,17,51.39,0.3133,-0.5003,-0.0759,-0.8035
-0.119,-0.05,-0.752,40.2,81.2,-136.4,0,2018,5,17,22,17,51.39,0.3388,-0.5021,-0.0759,-0.7919
-0.118,-0.051,-0.686,58.5,100.6,-130,0,2018,5,17,22,17,51.412,0.3644,-0.5052,-0.0797,-0.7781
-0.165,-0.026,-0.647,73.6,119.7,-124.7,0,2018,5,17,22,17,51.434,0.3903,-0.5087,-0.0878,-0.7623
-0.213,-0.002,-0.611,87,135.9,-123.3,0,2018,5,17,22,17,51.472,0.4167,-0.5123,-0.0993,-0.7443
-0.247,0.023,-0.579,99.2,152.5,-122.8,1023,2018,5,17,22,17,51.472,0.4436,-0.5157,-0.1138,-0.724
-0.353,0.062,-0.552,111.2,165.1,-121.5,1023,2018,5,17,22,17,51.494,0.471,-0.5187,-0.1311,-0.7012
-0.446,0.052,-0.435,119.3,188.5,-118.4,1023,2018,5,17,22,17,51.533,0.4983,-0.5209,-0.151,-0.6764
-0.509,0.116,-0.218,120.7,252.5,-107.3,1023,2018,5,17,22,17,51.533,0.5279,-0.5185,-0.1765,-0.649
-0.509,0.365,-0.178,114.5,328,-87.5,1023,2018,5,17,22,17,51.556,0.5608,-0.5069,-0.2115,-0.6193
-0.519,0.773,-0.234,99.3,330.6,-77.1,1023,2018,5,17,22,17,51.575,0.5943,-0.4875,-0.2507,-0.5883
-0.415,0.971,-0.31,82.3,266.2,-65.4,1023,2018,5,17,22,17,51.599,0.6223,-0.468,-0.2843,-0.5592
-0.292,0.967,-0.3,76.1,177,-48.6,1023,2018,5,17,22,17,51.614,0.6414,-0.4541,-0.3095,-0.5352
-0.306,0.902,-0.185,71.8,85.7,-28.4,1023,2018,5,17,22,17,51.633,0.651,-0.4485,-0.3266,-0.5179
-0.315,0.809,-0.096,69.5,7.9,-6,1023,2018,5,17,22,17,51.656,0.6518,-0.4508,-0.3372,-0.508
-0.342,0.693,-0.027,74,-38.2,17.2,1023,2018,5,17,22,17,51.674,0.6455,-0.459,-0.3441,-0.5042
-0.333,0.569,0.022,80.6,-49.8,40.2,1023,2018,5,17,22,17,51.695,0.6344,-0.4692,-0.351,-0.504
-0.347,0.474,0.037,85,-44,59.3,1023,2018,5,17,22,17,51.731,0.6208,-0.4786,-0.3601,-0.5056
-0.323,0.441,0.023,83,-34.2,75,1023,2018,5,17,22,17,51.755,0.6061,-0.4859,-0.3715,-0.5082
-0.217,0.384,0.007,80.2,-26.5,82.7,1023,2018,5,17,22,17,51.759,0.5911,-0.491,-0.3841,-0.5116
-0.111,0.31,0.002,77.3,-20.1,84.3,1023,2018,5,17,22,17,51.775,0.5762,-0.4947,-0.3973,-0.515
-0.073,0.207,-0.003,76.4,-16.3,82.7,1023,2018,5,17,22,17,51.798,0.5617,-0.4975,-0.4106,-0.5179
-0.041,0.108,-0.016,74.6,-16.7,78.8,0,2018,5,17,22,17,51.817,0.5471,-0.4998,-0.4239,-0.5207
-0.004,0.029,0.014,74.8,-15.6,74.8,0,2018,5,17,22,17,51.841,0.5328,-0.502,-0.4364,-0.5229
-0.011,-0.004,0.057,76.6,-10.7,74,0,2018,5,17,22,17,51.859,0.5192,-0.5042,-0.4485,-0.5243
-0.009,-0.056,0.098,79.2,-3.5,76.6,0,2018,5,17,22,17,51.877,0.5061,-0.5057,-0.4608,-0.525
0.035,-0.118,0.127,82.8,7.2,81.4,0,2018,5,17,22,17,51.895,0.4929,-0.5064,-0.4745,-0.5246
0.06,-0.193,0.133,86.6,16.2,83.9,0,2018,5,17,22,17,51.914,0.4792,-0.5061,-0.4902,-0.5232
0.084,-0.225,0.152,89,20.8,83.7,0,2018,5,17,22,17,51.936,0.4655,-0.5053,-0.5066,-0.5207
0.114,-0.221,0.18,88.7,22.3,81.8,0,2018,5,17,22,17,51.957,0.4519,-0.5041,-0.523,-0.5175
0.16,-0.214,0.213,88,27.6,77.6,1023,2018,5,17,22,17,51.994,0.4387,-0.5028,-0.5391,-0.5137
0.179,-0.24,0.277,87.1,41.5,70.6,1023,2018,5,17,22,17,52.016,0.4267,-0.5009,-0.5553,-0.5084
0.193,-0.28,0.338,84.1,62.7,62.3,1023,2018,5,17,22,17,52.021,0.417,-0.4981,-0.572,-0.5006
0.152,-0.306,0.407,78.9,84.9,54.5,1023,2018,5,17,22,17,52.039,0.4102,-0.4939,-0.5894,-0.4901
0.121,-0.327,0.458,69.1,103.3,49.1,1023,2018,5,17,22,17,52.058,0.4062,-0.488,-0.6072,-0.4775
0.142,-0.319,0.488,56.2,115.9,43.4,1023,2018,5,17,22,17,52.081,0.405,-0.4803,-0.6246,-0.4637
0.088,-0.312,0.52,43.4,122.4,36.3,1023,2018,5,17,22,17,52.118,0.4063,-0.4714,-0.6409,-0.4492
-0.119,-0.305,0.505,32.4,121.6,29,1023,2018,5,17,22,17,52.141,0.4095,-0.4619,-0.6557,-0.4346
-0.409,-0.333,0.589,19.6,126.2,24.2,1023,2018,5,17,22,17,52.146,0.4144,-0.452,-0.6688,-0.4201
-0.668,-0.296,0.643,0.3,137.1,22.4,1023,2018,5,17,22,17,52.158,0.4218,-0.4403,-0.6808,-0.4055
-0.939,-0.24,0.597,-22.6,133.2,17.2,0,2018,5,17,22,17,52.176,0.4321,-0.4269,-0.6911,-0.3914
-1.007,-0.19,0.504,-51.3,98.2,5.2,0,2018,5,17,22,17,52.2,0.4445,-0.414,-0.697,-0.3808
-0.96,-0.176,0.441,-81.7,42.9,-14,0,2018,5,17,22,17,52.218,0.4577,-0.405,-0.6961,-0.3764
-0.931,-0.186,0.363,-108,-13.2,-37.8,0,2018,5,17,22,17,52.241,0.4717,-0.401,-0.6875,-0.3793
-0.863,-0.183,0.315,-131.1,-60.2,-67.6,0,2018,5,17,22,17,52.259,0.4866,-0.4027,-0.6711,-0.3878
-0.792,-0.2,0.264,-147.3,-86.5,-99.3,0,2018,5,17,22,17,52.282,0.5031,-0.4094,-0.6479,-0.3991
-0.706,-0.202,0.126,-157.4,-95.9,-127.5,0,2018,5,17,22,17,52.3,0.5216,-0.4193,-0.6196,-0.41
-0.456,-0.212,0.007,-162,-100.9,-154.6,0,2018,5,17,22,17,52.323,0.5417,-0.4319,-0.5867,-0.4191
-0.236,-0.216,-0.019,-159.7,-86.6,-178.6,0,2018,5,17,22,17,52.343,0.5637,-0.4464,-0.5505,-0.424
-0.138,-0.182,-0.054,-154.7,-52.4,-198.4,0,2018,5,17,22,17,52.361,0.5873,-0.4597,-0.5141,-0.4234
-0.082,-0.094,-0.117,-148.2,-6.3,-210.7,0,2018,5,17,22,17,52.384,0.6131,-0.4694,-0.4794,-0.4168
-0.192,0.003,-0.199,-141.8,46,-213.6,0,2018,5,17,22,17,52.4,0.642,-0.4736,-0.4475,-0.4038
-0.344,0.087,-0.322,-141.7,92.9,-204.6,0,2018,5,17,22,17,52.418,0.6733,-0.4712,-0.4189,-0.386
-0.297,0.16,-0.453,-145.6,126.9,-185.6,0,2018,5,17,22,17,52.439,0.7054,-0.462,-0.3929,-0.3665
-0.272,0.194,-0.505,-147.4,153.4,-163,0,2018,5,17,22,17,52.478,0.7374,-0.4463,-0.3694,-0.3469
-0.297,0.205,-0.54,-151.2,169.6,-134.6,1023,2018,5,17,22,17,52.497,0.7681,-0.4252,-0.348,-0.3287
-0.33,0.238,-0.593,-157,171.8,-104.5,1023,2018,5,17,22,17,52.503,0.7963,-0.3999,-0.328,-0.3135
-0.35,0.272,-0.651,-160.9,158.6,-76.6,1023,2018,5,17,22,17,52.539,0.8213,-0.3725,-0.3083,-0.3024
-0.311,0.339,-0.777,-161.9,120,-56.5,1023,2018,5,17,22,17,52.562,0.8421,-0.3468,-0.288,-0.2958
-0.231,0.403,-0.862,-157.3,60.4,-47.9,1023,2018,5,17,22,17,52.567,0.8579,-0.3273,-0.2658,-0.2933
-0.186,0.43,-0.877,-146.5,-4.8,-47.3,1023,2018,5,17,22,17,52.583,0.8687,-0.3173,-0.2415,-0.2935
-0.163,0.42,-0.873,-129.8,-59.8,-47.3,1023,2018,5,17,22,17,52.606,0.8748,-0.3172,-0.216,-0.2953
-0.097,0.413,-0.855,-108.5,-97.5,-46.4,1023,2018,5,17,22,17,52.626,0.877,-0.3251,-0.191,-0.2977
-0.026,0.409,-0.842,-82.1,-117.1,-42.3,1023,2018,5,17,22,17,52.644,0.8759,-0.3383,-0.1682,-0.2997
0.026,0.391,-0.811,-52.4,-115.7,-30.8,1023,2018,5,17,22,17,52.667,0.8726,-0.3539,-0.1496,-0.3014
0.056,0.368,-0.774,-20.9,-95.6,-11.6,1023,2018,5,17,22,17,52.684,0.8679,-0.3687,-0.1371,-0.303
0.064,0.337,-0.741,11,-60.8,13.2,1023,2018,5,17,22,17,52.719,0.8628,-0.3803,-0.1324,-0.3053
0.056,0.331,-0.717,44,-18.9,41.4,0,2018,5,17,22,17,52.741,0.8582,-0.3868,-0.1364,-0.3084
0.036,0.337,-0.696,78.2,18.5,68.5,0,2018,5,17,22,17,52.746,0.8538,-0.3884,-0.1496,-0.3125
-0.025,0.33,-0.647,111.4,49.4,90.4,0,2018,5,17,22,17,52.764,0.849,-0.3862,-0.1712,-0.317
-0.055,0.345,-0.597,142.5,71.8,107.2,0,2018,5,17,22,17,52.783,0.8436,-0.3807,-0.2003,-0.3211
-0.128,0.325,-0.521,169.3,89.9,120.6,0,2018,5,17,22,17,52.806,0.8368,-0.3727,-0.2355,-0.3245
-0.22,0.307,-0.497,190.8,97.6,127.9,0,2018,5,17,22,17,52.823,0.8279,-0.3631,-0.2752,-0.3268
-0.294,0.269,-0.464,206.7,94.1,129.4,0,2018,5,17,22,17,52.846,0.8162,-0.354,-0.3176,-0.3278
-0.368,0.231,-0.448,213.7,81.2,128.1,0,2018,5,17,22,17,52.865,0.8017,-0.346,-0.3603,-0.3279
-0.368,0.209,-0.406,210.8,60.7,124.1,0,2018,5,17,22,17,52.888,0.7846,-0.3398,-0.4015,-0.328
-0.32,0.205,-0.312,198.9,32.4,118,0,2018,5,17,22,17,52.904,0.7654,-0.3361,-0.439,-0.329
-0.286,0.185,-0.218,181.4,-0.3,111.1,0,2018,5,17,22,17,52.922,0.7446,-0.3359,-0.4717,-0.3317
-0.269,0.154,-0.16,159,-38.5,104.1,0,2018,5,17,22,17,52.943,0.7228,-0.3392,-0.4986,-0.3372
-0.22,0.116,-0.121,135.3,-77.4,97.1,0,2018,5,17,22,17,52.981,0.7002,-0.3462,-0.5193,-0.3463
-0.245,0.085,-0.087,113.4,-112.6,89.6,0,2018,5,17,22,17,53.004,0.6772,-0.3568,-0.534,-0.3588
-0.314,0.029,-0.061,94.3,-146.6,85.8,0,2018,5,17,22,17,53.007,0.653,-0.3703,-0.5439,-0.3748
-0.35,-0.067,-0.057,79.3,-181.2,82.9,1023,2018,5,17,22,17,53.025,0.6278,-0.3868,-0.5485,-0.394
-0.418,-0.148,-0.022,69.3,-210.2,79.5,1023,2018,5,17,22,17,53.047,0.6013,-0.4061,-0.548,-0.4159
-0.499,-0.212,0.032,61.8,-230.3,82.4,1023,2018,5,17,22,17,53.066,0.5734,-0.4268,-0.5435,-0.4398
-0.507,-0.27,0.024,56.8,-242.2,88.7,1023,2018,5,17,22,17,53.089,0.5437,-0.4474,-0.5362,-0.4653
-0.413,-0.321,0.05,54.3,-234.8,91,1023,2018,5,17,22,17,53.106,0.5121,-0.4661,-0.5281,-0.4913
-0.394,-0.367,0.101,55.1,-207,89.8,1023,2018,5,17,22,17,53.128,0.481,-0.4817,-0.5208,-0.515
-0.359,-0.415,0.111,55.7,-170.5,89.9,1023,2018,5,17,22,17,53.145,0.4517,-0.494,-0.5157,-0.5346
-0.293,-0.48,0.118,57.5,-127,88.8,1023,2018,5,17,22,17,53.181,0.4252,-0.5027,-0.5138,-0.5498
-0.217,-0.482,0.138,58.5,-81.7,85.1,1023,2018,5,17,22,17,53.204,0.4027,-0.5076,-0.5154,-0.5606
-0.101,-0.5,0.209,58.9,-39.2,81.4,1023,2018,5,17,22,17,53.209,0.3844,-0.5096,-0.5209,-0.5666
0.023,-0.492,0.271,55.7,-8.2,77.1,0,2018,5,17,22,17,53.225,0.3698,-0.509,-0.5293,-0.5691
0.114,-0.499,0.316,52.2,9.7,71.2,0,2018,5,17,22,17,53.249,0.3581,-0.5068,-0.5393,-0.5691
0.176,-0.496,0.364,46.4,13.9,63.5,0,2018,5,17,22,17,53.285,0.3483,-0.5041,-0.5493,-0.568
0.228,-0.486,0.426,38.1,8.5,53.2,0,2018,5,17,22,17,53.308,0.3399,-0.5014,-0.5579,-0.5671
0.273,-0.47,0.458,28.1,-4.7,41.2,0,2018,5,17,22,17,53.313,0.3327,-0.4996,-0.5639,-0.5671
0.324,-0.464,0.468,16.7,-22.7,29.3,0,2018,5,17,22,17,53.347,0.3262,-0.4987,-0.5666,-0.5689
0.386,-0.471,0.469,5,-42,18.2,0,2018,5,17,22,17,53.37,0.3202,-0.4991,-0.5658,-0.5728
0.469,-0.501,0.458,-6.4,-59.6,7.9,0,2018,5,17,22,17,53.374,0.315,-0.5001,-0.5614,-0.579
0.497,-0.545,0.46,-15.2,-72.7,-3.1,0,2018,5,17,22,17,53.387,0.3105,-0.502,-0.5539,-0.5871
0.468,-0.588,0.467,-22.4,-78.8,-14.8,0,2018,5,17,22,17,53.406,0.3069,-0.5047,-0.5439,-0.5959
0.287,-0.689,0.461,-24.2,-74.6,-25.2,0,2018,5,17,22,17,53.429,0.3048,-0.508,-0.5324,-0.6045
0.03,-0.893,0.517,-25.3,-46,-34.8,0,2018,5,17,22,17,53.447,0.3047,-0.5114,-0.5217,-0.6109
-0.471,-1.109,0.594,-28.9,6,-48.4,0,2018,5,17,22,17,53.47,0.3102,-0.513,-0.5142,-0.6132
-1.14,-1.31,0.655,-39.8,82.9,-67,0,2018,5,17,22,17,53.491,0.3238,-0.5118,-0.5116,-0.6093
-1.83,-0.946,0.081,-76.3,122.2,-91,0,2018,5,17,22,17,53.51,0.3475,-0.5059,-0.5129,-0.6
-1.494,-0.437,-0.091,-129,83.8,-135,0,2018,5,17,22,17,53.53,0.3778,-0.4982,-0.5071,-0.593
-1.227,-0.175,0.024,-167.3,38.5,-217.3,1023,2018,5,17,22,17,53.551,0.4144,-0.4939,-0.4871,-0.5889
-1.266,-0.139,-0.1,-195.3,27.3,-298.1,1023,2018,5,17,22,17,53.569,0.4596,-0.495,-0.4529,-0.5817
