ax,ay,az,dpitch,droll,dyaw,heart,time_1,time_2,time_3,time_4,time_5,time_6,w,x,y,z
-0.304,0.415,-0.254,-15.4,-39.3,142.7,0,2018,4,25,16,34,54.419,-0.5294,0.563,-0.1217,0.6228
-0.324,0.382,-0.252,-19.1,-47.4,160.2,0,2018,4,25,16,34,54.438,-0.508,0.5681,-0.1131,0.6374
-0.446,0.33,-0.236,-24.1,-58,183.6,0,2018,4,25,16,34,54.444,-0.4829,0.5735,-0.1038,0.6534
-0.632,0.257,-0.241,-31.7,-71.4,214.5,0,2018,4,25,16,34,54.48,-0.4529,0.579,-0.0935,0.6714
-0.804,0.172,-0.245,-39.3,-88.4,245.8,0,2018,4,25,16,34,54.502,-0.4166,0.5843,-0.0823,0.6914
-0.791,0.085,-0.239,-44.4,-106.6,266.5,0,2018,4,25,16,34,54.504,-0.3744,0.5893,-0.0708,0.7123
-0.595,0.014,-0.213,-44.9,-127.3,269.5,0,2018,4,25,16,34,54.544,-0.3277,0.5939,-0.0606,0.7322
-0.344,-0.056,-0.174,-39.9,-142.6,255.7,0,2018,4,25,16,34,54.563,-0.2789,0.5982,-0.0531,0.7492
-0.158,-0.092,-0.132,-31.8,-142.7,229.2,0,2018,4,25,16,34,54.567,-0.2315,0.602,-0.0483,0.7625
-0.057,-0.151,-0.113,-22.1,-123,199.6,0,2018,4,25,16,34,54.606,-0.1885,0.6051,-0.0448,0.7721
-0.15,-0.228,-0.125,-12.4,-92.3,173.6,0,2018,4,25,16,34,54.627,-0.152,0.6074,-0.0401,0.7786
-0.286,-0.318,-0.149,-6.1,-70.3,153.1,0,2018,4,25,16,34,54.631,-0.1213,0.6091,-0.0339,0.7829
-0.345,-0.357,-0.169,-3.5,-65.5,137.5,0,2018,4,25,16,34,54.646,-0.0944,0.6105,-0.0277,0.7858
-0.288,-0.376,-0.187,-2.4,-76.5,125.2,0,2018,4,25,16,34,54.685,-0.069,0.6117,-0.0234,0.7876
-0.169,-0.387,-0.19,-0.9,-95.3,113.4,0,2018,4,25,16,34,54.705,-0.0433,0.6128,-0.0226,0.7886
-0.013,-0.422,-0.143,1.9,-112.4,100.9,0,2018,4,25,16,34,54.709,-0.0174,0.6139,-0.0256,0.7887
0.109,-0.472,-0.057,3,-120.5,85.7,0,2018,4,25,16,34,54.745,0.0079,0.6148,-0.0317,0.7879
0.204,-0.489,-0.057,3.7,-124,70.7,0,2018,4,25,16,34,54.764,0.0317,0.6154,-0.0402,0.7865
0.26,-0.522,-0.068,4.6,-123.6,56.4,0,2018,4,25,16,34,54.768,0.0537,0.6155,-0.0506,0.7846
0.281,-0.535,-0.095,6.8,-116.9,45.1,1023,2018,4,25,16,34,54.806,0.0735,0.6154,-0.0617,0.7822
0.264,-0.549,-0.057,8.3,-109.9,35.3,1023,2018,4,25,16,34,54.828,0.091,0.6154,-0.073,0.7795
0.251,-0.559,-0.033,8.8,-104.1,26.4,1023,2018,4,25,16,34,54.832,0.1065,0.6151,-0.0843,0.7766
0.24,-0.591,0.036,9.7,-98.7,15.9,1023,2018,4,25,16,34,54.848,0.1201,0.6147,-0.096,0.7735
0.237,-0.593,0.073,11,-89.6,3.6,1023,2018,4,25,16,34,54.871,0.1313,0.6142,-0.1079,0.7706
0.192,-0.592,0.088,13.8,-81,-8.4,1023,2018,4,25,16,34,54.907,0.1398,0.6138,-0.1199,0.7676
0.117,-0.612,0.163,15.6,-67.4,-21.1,1023,2018,4,25,16,34,54.926,0.1454,0.6136,-0.1318,0.7647
0.062,-0.596,0.228,15.3,-52.6,-34.2,1023,2018,4,25,16,34,54.931,0.1477,0.6135,-0.1431,0.7624
0.032,-0.559,0.246,15.1,-43.4,-47,1023,2018,4,25,16,34,54.949,0.1469,0.6132,-0.1542,0.7606
0.014,-0.542,0.282,15.6,-34.4,-59.8,0,2018,4,25,16,34,54.988,0.1435,0.6128,-0.1655,0.7592
-0.016,-0.528,0.344,15.2,-21,-72.4,0,2018,4,25,16,34,55.007,0.1372,0.6121,-0.1767,0.7583
-0.08,-0.493,0.382,11.9,-5.7,-84,0,2018,4,25,16,34,55.011,0.1277,0.6111,-0.1871,0.7583
-0.181,-0.44,0.41,6.1,6.1,-94.2,0,2018,4,25,16,34,55.031,0.1155,0.6094,-0.1967,0.7593
-0.273,-0.392,0.423,-1.7,14.4,-102.4,0,2018,4,25,16,34,55.051,0.1011,0.6064,-0.2058,0.7613
-0.309,-0.322,0.417,-11.2,17.8,-110.6,0,2018,4,25,16,34,55.072,0.0854,0.6018,-0.2147,0.7643
-0.302,-0.243,0.379,-20.2,17.2,-118.4,0,2018,4,25,16,34,55.092,0.0688,0.5955,-0.2241,0.7683
-0.28,-0.165,0.332,-28.7,14.8,-126.3,0,2018,4,25,16,34,55.113,0.0517,0.5874,-0.2344,0.7727
-0.247,-0.087,0.283,-35.7,13,-134.3,0,2018,4,25,16,34,55.134,0.034,0.5777,-0.2456,0.7776
-0.205,-0.019,0.246,-41.6,14.2,-142.9,0,2018,4,25,16,34,55.149,0.0155,0.5664,-0.2575,0.7827
-0.181,0.049,0.199,-47.8,16.7,-151.3,0,2018,4,25,16,34,55.187,-0.0041,0.5534,-0.2697,0.7879
-0.224,0.114,0.164,-54.7,18.6,-158.7,0,2018,4,25,16,34,55.207,-0.0248,0.5388,-0.2822,0.7933
-0.317,0.181,0.115,-62.8,19.1,-162.4,0,2018,4,25,16,34,55.211,-0.046,0.5223,-0.2948,0.7987
-0.465,0.236,0.053,-70.9,16.1,-158.1,0,2018,4,25,16,34,55.231,-0.0666,0.5043,-0.3075,0.8041
-0.622,0.269,-0.011,-79.4,11.9,-144.4,0,2018,4,25,16,34,55.254,-0.085,0.4852,-0.3196,0.8094
-0.711,0.299,-0.054,-88,7.2,-126.4,0,2018,4,25,16,34,55.272,-0.1002,0.4654,-0.3308,0.8147
-0.699,0.337,-0.084,-96.9,-4.1,-108.4,0,2018,4,25,16,34,55.292,-0.1115,0.4453,-0.3415,0.82
-0.611,0.388,-0.129,-104.9,-22.7,-94.3,0,2018,4,25,16,34,55.331,-0.1188,0.4249,-0.3531,0.8249
-0.488,0.458,-0.181,-109.2,-44.3,-86.1,0,2018,4,25,16,34,55.335,-0.1225,0.4045,-0.3668,0.8286
-0.378,0.501,-0.232,-109.3,-61.6,-82.5,0,2018,4,25,16,34,55.351,-0.1238,0.3843,-0.3827,0.8309
-0.309,0.527,-0.268,-105.7,-70.4,-81.2,0,2018,4,25,16,34,55.371,-0.124,0.3645,-0.4001,0.8316
-0.285,0.54,-0.286,-100.4,-71.8,-79.2,0,2018,4,25,16,34,55.39,-0.1238,0.3454,-0.4178,0.8311
-0.288,0.534,-0.302,-94.3,-64.9,-74.1,0,2018,4,25,16,34,55.414,-0.1237,0.327,-0.4344,0.83
-0.299,0.54,-0.295,-89.3,-50.9,-64,1023,2018,4,25,16,34,55.433,-0.1234,0.3097,-0.4486,0.8291
-0.306,0.559,-0.301,-85.8,-35.1,-47.8,1023,2018,4,25,16,34,55.453,-0.1224,0.2935,-0.4596,0.8292
-0.303,0.581,-0.309,-83.9,-22.3,-25.4,1023,2018,4,25,16,34,55.47,-0.1194,0.2788,-0.4673,0.8304
-0.282,0.596,-0.319,-83,-16.2,2.1,1023,2018,4,25,16,34,55.51,-0.1133,0.2662,-0.4722,0.8326
-0.263,0.61,-0.322,-82.2,-16.3,33.4,1023,2018,4,25,16,34,55.53,-0.1031,0.256,-0.4752,0.8354
-0.262,0.615,-0.329,-82.6,-23,67.3,1023,2018,4,25,16,34,55.533,-0.088,0.2485,-0.4772,0.8382
-0.284,0.616,-0.349,-84.5,-35,105.3,1023,2018,4,25,16,34,55.57,-0.067,0.2439,-0.4788,0.8406
-0.329,0.6,-0.363,-87.4,-53,144.3,1023,2018,4,25,16,34,55.589,-0.0394,0.2423,-0.4808,0.8417
-0.376,0.568,-0.358,-92.2,-79.9,181.8,1023,2018,4,25,16,34,55.592,-0.0049,0.2431,-0.4838,0.8406
-0.456,0.548,-0.336,-102.5,-137.9,210.7,0,2018,4,25,16,34,55.631,0.0367,0.2455,-0.4908,0.835
-0.523,0.325,-0.394,-119.7,-192.7,230.6,0,2018,4,25,16,34,55.651,0.0858,0.2468,-0.5046,0.8228
-0.469,-0.041,-0.488,-133.5,-208.1,236.7,0,2018,4,25,16,34,55.655,0.194,0.2432,-0.536,0.7847
-0.473,-0.114,-0.536,-129.9,-194.3,227.4,0,2018,4,25,16,34,55.675,0.2464,0.2397,-0.5483,0.7623
-0.46,-0.085,-0.557,-123.5,-194.1,213.3,0,2018,4,25,16,34,55.712,0.2951,0.2355,-0.5585,0.7385
-0.46,-0.079,-0.511,-116.9,-206.5,203.3,0,2018,4,25,16,34,55.732,0.3412,0.2297,-0.5687,0.7122
-0.497,-0.167,-0.491,-109.9,-223.7,195.9,0,2018,4,25,16,34,55.736,0.3853,0.2223,-0.5799,0.6824
-0.469,-0.283,-0.493,-106,-230.9,190.6,0,2018,4,25,16,34,55.773,0.4274,0.2132,-0.5915,0.6495
-0.383,-0.319,-0.513,-100.2,-216.4,187,0,2018,4,25,16,34,55.793,0.4672,0.204,-0.6014,0.6151
-0.285,-0.349,-0.52,-92.7,-180.1,185.3,0,2018,4,25,16,34,55.797,0.5037,0.1967,-0.6075,0.5817
-0.221,-0.358,-0.498,-83.5,-130.8,184.8,0,2018,4,25,16,34,55.815,0.5365,0.1937,-0.6085,0.5515
-0.155,-0.34,-0.46,-73.6,-89.8,183.2,0,2018,4,25,16,34,55.852,0.5657,0.1956,-0.6048,0.525
-0.101,-0.315,-0.395,-65.6,-68.7,180,0,2018,4,25,16,34,55.872,0.5919,0.2007,-0.5985,0.501
-0.098,-0.264,-0.363,-60.9,-65.9,174.1,0,2018,4,25,16,34,55.876,0.6159,0.2067,-0.5912,0.4777
-0.096,-0.222,-0.359,-57.5,-83.3,166.1,0,2018,4,25,16,34,55.895,0.6385,0.2114,-0.5844,0.4537
-0.117,-0.227,-0.349,-54.9,-116.3,154.3,0,2018,4,25,16,34,55.915,0.6602,0.212,-0.5798,0.4275
-0.142,-0.241,-0.361,-52.7,-154.3,141.4,0,2018,4,25,16,34,55.951,0.6813,0.2071,-0.5779,0.3985
-0.13,-0.312,-0.357,-50.9,-182.4,132.6,0,2018,4,25,16,34,55.972,0.7017,0.1968,-0.5782,0.3667
-0.133,-0.41,-0.323,-49.9,-193.5,128.7,0,2018,4,25,16,34,55.976,0.721,0.1834,-0.5792,0.3331
-0.127,-0.456,-0.294,-52.7,-199,123.9,0,2018,4,25,16,34,55.996,0.7391,0.1683,-0.5796,0.2987
-0.043,-0.479,-0.367,-52.1,-199,121.2,0,2018,4,25,16,34,56.019,0.7561,0.152,-0.5791,0.264
0.026,-0.553,-0.359,-45.6,-185.8,116.3,0,2018,4,25,16,34,56.035,0.7711,0.1361,-0.5779,0.2298
0.081,-0.618,-0.314,-34.6,-154.8,110.6,0,2018,4,25,16,34,56.073,0.7832,0.1229,-0.5762,0.1982
0.087,-0.668,-0.234,-24.2,-119,103.9,0,2018,4,25,16,34,56.095,0.7924,0.1141,-0.5744,0.1704
0.069,-0.707,-0.155,-15.7,-81.9,97.2,0,2018,4,25,16,34,56.099,0.7991,0.1098,-0.5725,0.1468
0.089,-0.74,-0.118,-10.3,-55.6,88.8,1023,2018,4,25,16,34,56.118,0.8039,0.1093,-0.5705,0.1274
0.124,-0.752,-0.103,-3.6,-37.1,78.1,1023,2018,4,25,16,34,56.138,0.8071,0.1111,-0.5689,0.1113
0.143,-0.775,-0.073,2.5,-22.9,64.4,1023,2018,4,25,16,34,56.158,0.8091,0.114,-0.568,0.0983
0.162,-0.772,-0.046,8.3,-13.3,47.9,1023,2018,4,25,16,34,56.178,0.8097,0.1172,-0.568,0.0885
0.145,-0.788,-0.031,13.5,-9,29.3,1023,2018,4,25,16,34,56.2,0.8094,0.1196,-0.5689,0.0818
0.118,-0.799,-0.01,17.2,-6.1,8.7,1023,2018,4,25,16,34,56.22,0.8083,0.1206,-0.5708,0.0781
0.078,-0.789,-0.037,21.8,-4.9,-12.4,1023,2018,4,25,16,34,56.241,0.8065,0.1199,-0.5737,0.0775
-0.013,-0.793,-0.07,28,-1.3,-30.8,1023,2018,4,25,16,34,56.259,0.8037,0.1174,-0.5777,0.0797
-0.129,-0.843,-0.075,32.8,15.3,-47.3,1023,2018,4,25,16,34,56.28,0.7999,0.1147,-0.5828,0.0852
-0.177,-0.832,-0.079,36.4,41.7,-64.1,1023,2018,4,25,16,34,56.32,0.7949,0.1135,-0.5882,0.0953
-0.182,-0.785,-0.073,39,69.9,-82.6,0,2018,4,25,16,34,56.324,0.7885,0.1144,-0.5939,0.1106
-0.159,-0.693,-0.074,42,94.1,-104.5,0,2018,4,25,16,34,56.339,0.7806,0.1169,-0.5996,0.1313
-0.15,-0.59,-0.077,44.2,105.1,-126.1,0,2018,4,25,16,34,56.358,0.7711,0.1195,-0.6053,0.1567
-0.156,-0.524,-0.072,44.9,110.6,-147.1,0,2018,4,25,16,34,56.381,0.76,0.1207,-0.6109,0.1856
-0.213,-0.464,-0.062,42.8,116.3,-164.9,0,2018,4,25,16,34,56.401,0.7473,0.1204,-0.616,0.2175
-0.299,-0.391,-0.099,38.6,112,-178.3,0,2018,4,25,16,34,56.42,0.7334,0.1184,-0.6202,0.2515
-0.396,-0.344,-0.097,33,93,-185.7,0,2018,4,25,16,34,56.441,0.7189,0.1133,-0.6237,0.2851
-0.496,-0.338,-0.106,24.6,75.3,-190.5,0,2018,4,25,16,34,56.461,0.7042,0.1046,-0.6264,0.317
-0.533,-0.277,-0.133,14.9,60.1,-194.1,0,2018,4,25,16,34,56.497,0.6897,0.0929,-0.6283,0.3475
-0.488,-0.203,-0.15,6.1,42,-198.4,0,2018,4,25,16,34,56.518,0.6754,0.0781,-0.6292,0.3763
-0.435,-0.101,-0.16,-1.1,13.2,-205.7,0,2018,4,25,16,34,56.521,0.6611,0.0592,-0.63,0.4029
-0.397,-0.022,-0.201,-4.4,-16.9,-213.2,0,2018,4,25,16,34,56.539,0.6462,0.0356,-0.6317,0.4266
-0.369,0.026,-0.244,-2.7,-38.8,-219.3,0,2018,4,25,16,34,56.558,0.6302,0.008,-0.6343,0.4475
-0.354,0.048,-0.259,3.7,-41.2,-222.3,0,2018,4,25,16,34,56.577,0.6124,-0.0209,-0.6375,0.4669
-0.339,0.094,-0.238,9.7,-30.1,-221.8,0,2018,4,25,16,34,56.616,0.5929,-0.0489,-0.6399,0.4863
-0.314,0.164,-0.221,13.1,-11.9,-216.3,0,2018,4,25,16,34,56.639,0.5723,-0.0746,-0.6405,0.5064
-0.3,0.257,-0.213,15.6,3.3,-205.7,0,2018,4,25,16,34,56.643,0.5516,-0.0972,-0.6391,0.527
-0.27,0.322,-0.142,15.9,11.3,-193.4,0,2018,4,25,16,34,56.661,0.5312,-0.1171,-0.6361,0.5471
-0.237,0.381,-0.128,13.2,15.8,-177.7,0,2018,4,25,16,34,56.681,0.5119,-0.135,-0.632,0.5658
-0.187,0.445,-0.14,12.4,19.8,-158.7,0,2018,4,25,16,34,56.701,0.4941,-0.1506,-0.6271,0.5829
-0.131,0.46,-0.125,14.2,28.1,-137.7,0,2018,4,25,16,34,56.721,0.478,-0.1633,-0.6218,0.5984
-0.122,0.454,-0.073,15,43.3,-115.9,0,2018,4,25,16,34,56.74,0.4641,-0.1724,-0.6155,0.613
-0.114,0.472,-0.057,11.4,60.8,-93.2,1023,2018,4,25,16,34,56.76,0.453,-0.1779,-0.6077,0.6274
-0.111,0.52,-0.095,8.5,70.8,-68.5,1023,2018,4,25,16,34,56.797,0.4452,-0.18,-0.5985,0.6411
-0.118,0.552,-0.134,7.1,71.6,-42,1023,2018,4,25,16,34,56.817,0.4405,-0.1793,-0.5892,0.653
-0.096,0.563,-0.156,9.6,67.9,-13.8,1023,2018,4,25,16,34,56.821,0.4387,-0.1758,-0.581,0.6625
-0.093,0.552,-0.161,13.9,61.4,13.2,1023,2018,4,25,16,34,56.859,0.4395,-0.1694,-0.5744,0.6694
-0.071,0.544,-0.153,20.1,53.6,38,1023,2018,4,25,16,34,56.88,0.4426,-0.1603,-0.5697,0.6736
-0.089,0.515,-0.15,26.9,40.6,61.2,1023,2018,4,25,16,34,56.884,0.4474,-0.1489,-0.5673,0.675
-0.128,0.487,-0.166,33,23.7,84.3,1023,2018,4,25,16,34,56.902,0.4539,-0.1355,-0.5677,0.6731
-0.227,0.451,-0.208,39.9,2.2,109.3,1023,2018,4,25,16,34,56.941,0.4619,-0.1205,-0.5713,0.6675
-0.377,0.351,-0.219,43.5,-13.3,136.5,1023,2018,4,25,16,34,56.963,0.4718,-0.1038,-0.578,0.6575
-0.49,0.223,-0.229,42.5,-5.1,161.2,1023,2018,4,25,16,34,56.967,0.4843,-0.0846,-0.5854,0.6445
-0.494,0.138,-0.24,41.8,29.7,178.7,0,2018,4,25,16,34,56.986,0.4992,-0.0614,-0.59,0.6315
-0.403,0.124,-0.234,45.9,67.8,182.9,0,2018,4,25,16,34,57.005,0.5149,-0.0334,-0.5899,0.6209
-0.251,0.138,-0.221,53.1,97.5,175.9,0,2018,4,25,16,34,57.026,0.5295,-0.0019,-0.5859,0.6134
-0.145,0.224,-0.206,61.6,108.2,162.1,0,2018,4,25,16,34,57.042,0.5413,0.0312,-0.5796,0.6081
-0.201,0.281,-0.18,69.7,62,141.7,0,2018,4,25,16,34,57.078,0.5574,0.0925,-0.5704,0.596
-0.34,0.209,-0.16,65.1,23.9,144.3,0,2018,4,25,16,34,57.099,0.5645,0.1177,-0.5701,0.585
-0.458,0.107,-0.148,54.9,-12.4,155.8,0,2018,4,25,16,34,57.104,0.5735,0.1392,-0.5723,0.5692
-0.53,0.005,-0.121,42.4,-42.4,169.2,0,2018,4,25,16,34,57.141,0.5853,0.1574,-0.5757,0.5486
-0.479,-0.066,-0.11,30.2,-66.6,178,0,2018,4,25,16,34,57.161,0.5996,0.1726,-0.5795,0.524
-0.375,-0.087,-0.097,22.4,-89.8,180,0,2018,4,25,16,34,57.166,0.6155,0.1848,-0.5837,0.4961
-0.296,-0.041,-0.108,20,-120.1,173.6,0,2018,4,25,16,34,57.186,0.6315,0.1936,-0.5892,0.4652
-0.221,-0.039,0.012,13.5,-184.3,162.3,0,2018,4,25,16,34,57.207,0.6476,0.196,-0.598,0.4295
-0.029,-0.244,0.072,17.3,-132.1,149,0,2018,4,25,16,34,57.226,0.6634,0.1958,-0.6043,0.3953
-0.113,-0.483,0.012,10.6,-159.8,147.5,0,2018,4,25,16,34,57.243,0.6768,0.194,-0.6109,0.3618
-0.058,-0.511,0.033,20.2,-110.9,138.1,0,2018,4,25,16,34,57.281,0.6883,0.194,-0.6161,0.3297
-0.052,-0.659,0.118,22.2,-53.5,129.7,0,2018,4,25,16,34,57.303,0.6962,0.1999,-0.6187,0.304
0.014,-0.628,0.154,22.8,-7.4,117.4,0,2018,4,25,16,34,57.307,0.7011,0.211,-0.6184,0.2852
0.063,-0.638,0.153,24.2,18.3,106.5,0,2018,4,25,16,34,57.326,0.7037,0.225,-0.6167,0.2714
0.087,-0.682,0.181,26.1,40.8,95.4,0,2018,4,25,16,34,57.362,0.7044,0.2408,-0.6143,0.2613
0.104,-0.72,0.231,26.4,56.1,82.3,0,2018,4,25,16,34,57.383,0.7032,0.2578,-0.6116,0.2544
0.128,-0.746,0.276,24.8,65.4,66.7,0,2018,4,25,16,34,57.387,0.7008,0.2748,-0.6087,0.2506
0.125,-0.764,0.311,21.7,69.7,49.9,0,2018,4,25,16,34,57.408,0.6973,0.2905,-0.6057,0.2495
0.117,-0.777,0.322,17.4,71.7,31.5,1023,2018,4,25,16,34,57.428,0.6933,0.3044,-0.6029,0.251
0.106,-0.785,0.326,12.2,73.7,11.8,1023,2018,4,25,16,34,57.448,0.6886,0.3163,-0.6004,0.2552
0.086,-0.774,0.313,6.7,74.1,-8.5,1023,2018,4,25,16,34,57.466,0.6834,0.326,-0.5982,0.2621
0.045,-0.769,0.292,0,75.9,-28.9,1023,2018,4,25,16,34,57.483,0.6777,0.3333,-0.5962,0.272
-0.007,-0.741,0.275,-7,80.1,-48.3,1023,2018,4,25,16,34,57.522,0.6714,0.3385,-0.5944,0.2848
-0.071,-0.695,0.236,-14,82.7,-65.3,1023,2018,4,25,16,34,57.544,0.6645,0.3419,-0.5924,0.3006
-0.164,-0.644,0.2,-19.8,82.3,-78.7,1023,2018,4,25,16,34,57.547,0.6572,0.3433,-0.5904,0.3184
-0.317,-0.643,0.181,-25.4,83.5,-87.5,1023,2018,4,25,16,34,57.566,0.6497,0.3431,-0.5882,0.3377
-0.488,-0.668,0.191,-34.2,90.1,-93.5,1023,2018,4,25,16,34,57.585,0.6418,0.3421,-0.585,0.3585
-0.575,-0.63,0.166,-45.5,90.1,-100.5,1023,2018,4,25,16,34,57.626,0.634,0.3402,-0.5805,0.381
-0.487,-0.53,0.084,-56.8,71.4,-112.1,0,2018,4,25,16,34,57.647,0.6268,0.3354,-0.5757,0.4038
-0.314,-0.427,-0.036,-62.7,44.5,-130.4,0,2018,4,25,16,34,57.651,0.6206,0.3254,-0.572,0.4262
-0.158,-0.311,-0.114,-63.6,21.4,-152.4,0,2018,4,25,16,34,57.668,0.6143,0.3098,-0.5706,0.4482
-0.105,-0.243,-0.171,-61.7,1.9,-174.1,0,2018,4,25,16,34,57.69,0.6067,0.2897,-0.5717,0.47
-0.173,-0.23,-0.222,-58.5,-10,-190.9,0,2018,4,25,16,34,57.729,0.5975,0.2658,-0.5748,0.4917
-0.314,-0.238,-0.28,-56.5,-10,-200.3,0,2018,4,25,16,34,57.748,0.5865,0.2399,-0.5785,0.5135
-0.502,-0.237,-0.369,-55.9,-7,-202.8,0,2018,4,25,16,34,57.752,0.574,0.2134,-0.5816,0.5353
-0.621,-0.219,-0.439,-56.5,-1.6,-198.9,0,2018,4,25,16,34,57.767,0.5607,0.1871,-0.5835,0.5567
-0.665,-0.155,-0.48,-56.3,5.9,-191.7,0,2018,4,25,16,34,57.789,0.547,0.1618,-0.5837,0.5776
-0.646,-0.037,-0.502,-54.6,7,-185.7,0,2018,4,25,16,34,57.808,0.5331,0.1376,-0.5826,0.5976
-0.592,0.074,-0.513,-50.3,-1.9,-183.2,0,2018,4,25,16,34,57.846,0.5189,0.1136,-0.5816,0.616
-0.505,0.181,-0.518,-41.5,-11.1,-183.9,0,2018,4,25,16,34,57.866,0.5037,0.0893,-0.5815,0.6325
-0.43,0.262,-0.521,-31.1,-15.7,-185,0,2018,4,25,16,34,57.87,0.4869,0.0653,-0.5824,0.6475
-0.368,0.322,-0.527,-19.7,-13.2,-184.8,0,2018,4,25,16,34,57.91,0.4685,0.0423,-0.5837,0.6617
-0.329,0.374,-0.54,-7.8,-1.8,-180.5,0,2018,4,25,16,34,57.929,0.4485,0.0214,-0.5846,0.6756
-0.304,0.424,-0.553,3.2,14.7,-170.6,0,2018,4,25,16,34,57.933,0.4278,0.0038,-0.584,0.6898
-0.292,0.471,-0.562,14.5,33.1,-156.1,0,2018,4,25,16,34,57.949,0.407,-0.0099,-0.5816,0.7042
-0.291,0.516,-0.565,25.3,49.6,-138.2,0,2018,4,25,16,34,57.967,0.3867,-0.0193,-0.5774,0.7187
-0.277,0.562,-0.556,35.1,62.7,-117.2,0,2018,4,25,16,34,57.989,0.3677,-0.0245,-0.5717,0.7329
-0.247,0.599,-0.545,44.4,72,-94.5,0,2018,4,25,16,34,58.009,0.3505,-0.0256,-0.565,0.7464
-0.234,0.6,-0.516,53.6,80.5,-70.7,0,2018,4,25,16,34,58.028,0.3352,-0.0225,-0.5575,0.7591
-0.229,0.605,-0.495,71.6,94.7,-22.7,0,2018,4,25,16,34,58.063,0.311,-0.0043,-0.5404,0.7817
-0.251,0.595,-0.489,81.6,93.6,1.7,1023,2018,4,25,16,34,58.085,0.3022,0.0105,-0.5316,0.7911
-0.24,0.594,-0.472,91.4,87.8,25.2,1023,2018,4,25,16,34,58.089,0.2954,0.029,-0.5236,0.7985
-0.261,0.572,-0.482,104,73.3,50.1,1023,2018,4,25,16,34,58.127,0.2912,0.0503,-0.5171,0.8032
-0.23,0.532,-0.534,122.9,60.8,77.1,1023,2018,4,25,16,34,58.148,0.2893,0.0753,-0.5128,0.8047
-0.27,0.445,-0.437,149.2,59.7,108.2,1023,2018,4,25,16,34,58.152,0.2893,0.1057,-0.51,0.803
-0.411,0.233,-0.266,172.2,88.4,137.3,1023,2018,4,25,16,34,58.173,0.291,0.1428,-0.5052,0.7997
-0.598,0.134,-0.047,184.6,119.4,157.9,1023,2018,4,25,16,34,58.193,0.2933,0.1859,-0.4952,0.7963
-0.561,0.104,0.072,178.4,133.4,168.3,1023,2018,4,25,16,34,58.228,0.2962,0.2314,-0.4807,0.7921
-0.368,0.118,-0.089,179.4,144,167.1,1023,2018,4,25,16,34,58.232,0.2985,0.2771,-0.4632,0.787
-0.235,0.111,-0.06,182,149.8,155.9,1023,2018,4,25,16,34,58.248,0.2986,0.3223,-0.4441,0.7807
-0.208,0.172,0.061,184.1,161.2,143.4,1023,2018,4,25,16,34,58.287,0.2955,0.3666,-0.4235,0.7738
-0.286,0.127,0.176,177.8,156.6,133.7,1023,2018,4,25,16,34,58.307,0.2901,0.4091,-0.4019,0.766
-0.402,0.027,0.279,165.8,147.6,126.2,0,2018,4,25,16,34,58.311,0.2842,0.4484,-0.3807,0.757
-0.423,-0.008,0.369,151.7,133.4,120.4,0,2018,4,25,16,34,58.332,0.2786,0.4841,-0.3599,0.7472
-0.39,-0.068,0.404,137.1,108.1,112.8,0,2018,4,25,16,34,58.352,0.2744,0.5157,-0.341,0.7364
-0.348,-0.123,0.36,123.6,83.6,102.4,0,2018,4,25,16,34,58.391,0.2718,0.543,-0.3252,0.7248
-0.317,-0.156,0.261,112.3,62,92,0,2018,4,25,16,34,58.413,0.2705,0.5665,-0.3124,0.7129
-0.24,-0.234,0.231,106.7,54.7,81.1,0,2018,4,25,16,34,58.417,0.2696,0.5871,-0.3019,0.7009
-0.101,-0.267,0.279,107.3,74.7,70.9,0,2018,4,25,16,34,58.436,0.2666,0.607,-0.2913,0.6895
-0.005,-0.311,0.375,109.3,106.2,63.1,0,2018,4,25,16,34,58.451,0.2594,0.6274,-0.2783,0.6793
0.064,-0.327,0.443,108.5,140.8,58.4,0,2018,4,25,16,34,58.488,0.2475,0.6486,-0.2617,0.6703
0.089,-0.319,0.503,103.2,168.3,56.4,0,2018,4,25,16,34,58.506,0.2315,0.67,-0.2414,0.6626
0.134,-0.351,0.52,93.1,183.5,54.2,0,2018,4,25,16,34,58.51,0.2128,0.6904,-0.2183,0.6559
0.161,-0.369,0.46,80.7,195,50.4,0,2018,4,25,16,34,58.548,0.1925,0.7089,-0.1934,0.6503
0.142,-0.368,0.424,66.1,208.4,46.1,0,2018,4,25,16,34,58.569,0.1703,0.7251,-0.1669,0.6459
0.122,-0.341,0.429,46.3,218.1,41.4,0,2018,4,25,16,34,58.573,0.1463,0.7385,-0.1388,0.6433
0.093,-0.239,0.42,22.8,213,40.2,0,2018,4,25,16,34,58.611,0.1219,0.7483,-0.11,0.6426
0.079,-0.181,0.403,-3,191.2,43.1,0,2018,4,25,16,34,58.633,0.0998,0.754,-0.0819,0.644
0.045,-0.264,0.362,-26.1,161,43.6,0,2018,4,25,16,34,58.637,0.0818,0.7555,-0.0562,0.6475
-0.003,-0.307,0.288,-41.6,133.8,40.7,0,2018,4,25,16,34,58.674,0.0676,0.7538,-0.0336,0.6526
-0.057,-0.385,0.237,-53.5,115.1,34.2,0,2018,4,25,16,34,58.678,0.056,0.7498,-0.0141,0.6591
-0.078,-0.418,0.137,-60.7,109,24.8,0,2018,4,25,16,34,58.695,0.0449,0.7441,0.0031,0.6665
-0.049,-0.464,0.008,-64.7,105.8,13.2,0,2018,4,25,16,34,58.714,0.0331,0.7374,0.0185,0.6743
-0.019,-0.456,-0.093,-65.3,102.9,0.7,0,2018,4,25,16,34,58.734,0.0202,0.7301,0.0321,0.6821
0.004,-0.454,-0.152,-64,92.8,-11.7,1023,2018,4,25,16,34,58.773,0.0066,0.7226,0.0433,0.6897
-0.084,-0.482,-0.222,-61.2,79.4,-21.5,1023,2018,4,25,16,34,58.793,-0.0066,0.7152,0.0515,0.6969
-0.09,-0.603,-0.244,-56.1,79,-30.3,1023,2018,4,25,16,34,58.797,-0.0199,0.708,0.0575,0.7034
-0.115,-0.655,-0.161,-51,97.5,-39.8,1023,2018,4,25,16,34,58.817,-0.0358,0.7014,0.0639,0.7089
-0.182,-0.686,-0.147,-49.8,103.3,-49.9,1023,2018,4,25,16,34,58.836,-0.0544,0.6949,0.0707,0.7134
-0.205,-0.7,-0.154,-49.3,97.8,-64,1023,2018,4,25,16,34,58.876,-0.0743,0.6883,0.0758,0.7175
-0.198,-0.706,-0.166,-48.1,95.1,-80.7,1023,2018,4,25,16,34,58.894,-0.0956,0.6818,0.0785,0.7209
-0.157,-0.629,-0.203,-46,95.5,-102.9,1023,2018,4,25,16,34,58.899,-0.1191,0.6753,0.0787,0.7235
-0.075,-0.531,-0.254,-41.4,94.6,-126.3,1023,2018,4,25,16,34,58.918,-0.1454,0.6691,0.0762,0.7247
-0.078,-0.476,-0.25,-37.2,96.6,-148.4,1023,2018,4,25,16,34,58.938,-0.1745,0.6633,0.0711,0.7241
-0.206,-0.458,-0.205,-38.4,103.3,-164.5,1023,2018,4,25,16,34,58.954,-0.2063,0.6571,0.0644,0.722
-0.43,-0.415,-0.206,-49.3,100,-172.4,0,2018,4,25,16,34,58.975,-0.2399,0.6495,0.0563,0.7193
-0.694,-0.34,-0.272,-63.5,78,-171.8,0,2018,4,25,16,34,58.997,-0.2722,0.6399,0.0455,0.7171
-0.787,-0.288,-0.339,-77.1,47.4,-166.4,0,2018,4,25,16,34,59.034,-0.3007,0.6291,0.031,0.7161
-0.752,-0.207,-0.357,-87.1,17.7,-164.5,0,2018,4,25,16,34,59.056,-0.3251,0.6176,0.0126,0.7159
-0.694,-0.025,-0.385,-92.8,-26.9,-175.2,0,2018,4,25,16,34,59.06,-0.3458,0.6065,-0.0112,0.7157
-0.516,0.129,-0.421,-89.4,-81.8,-193.2,0,2018,4,25,16,34,59.079,-0.3625,0.5977,-0.0432,0.7137
-0.384,0.186,-0.402,-77.4,-116.8,-211.5,0,2018,4,25,16,34,59.099,-0.3761,0.5917,-0.0825,0.7082
-0.329,0.194,-0.395,-61.1,-113.7,-223.1,0,2018,4,25,16,34,59.119,-0.3895,0.5871,-0.1241,0.6986
-0.316,0.204,-0.425,-45,-84.3,-226,0,2018,4,25,16,34,59.139,-0.4052,0.5819,-0.1629,0.6859
-0.342,0.212,-0.446,-30.5,-42.9,-221,0,2018,4,25,16,34,59.178,-0.4242,0.575,-0.1956,0.6715
-0.373,0.287,-0.456,-18.6,-4.3,-208.2,0,2018,4,25,16,34,59.182,-0.4461,0.566,-0.2214,0.6568
-0.387,0.385,-0.432,-9.7,22.1,-187.2,0,2018,4,25,16,34,59.197,-0.469,0.5556,-0.2407,0.6429
-0.429,0.504,-0.397,-3.3,31.6,-162.4,0,2018,4,25,16,34,59.236,-0.4909,0.5449,-0.2548,0.6301
-0.368,0.601,-0.376,2.2,28.8,-134.9,0,2018,4,25,16,34,59.255,-0.5099,0.5354,-0.2655,0.6186
-0.313,0.648,-0.37,8.9,19.7,-107,0,2018,4,25,16,34,59.259,-0.5253,0.5281,-0.2735,0.6084
-0.252,0.666,-0.379,16.3,12.6,-79.6,0,2018,4,25,16,34,59.297,-0.5371,0.5236,-0.2792,0.5994
-0.218,0.653,-0.374,25.6,14.2,-52.9,0,2018,4,25,16,34,59.317,-0.5461,0.5214,-0.2819,0.5919
-0.196,0.648,-0.358,36,24.7,-27,0,2018,4,25,16,34,59.321,-0.5534,0.5208,-0.2805,0.5862
-0.191,0.628,-0.326,47.1,39.5,-1.9,0,2018,4,25,16,34,59.34,-0.5598,0.5212,-0.2743,0.5827
-0.206,0.628,-0.287,56.5,45.9,20,0,2018,4,25,16,34,59.362,-0.5653,0.5227,-0.2638,0.5809
-0.234,0.62,-0.256,62.6,41.2,41.1,0,2018,4,25,16,34,59.381,-0.5689,0.5258,-0.2506,0.5805
-0.273,0.609,-0.255,67.5,27,61.9,0,2018,4,25,16,34,59.397,-0.5695,0.5312,-0.2358,0.5811
-0.267,0.565,-0.263,71.5,10.6,84,1023,2018,4,25,16,34,59.418,-0.5665,0.5393,-0.2202,0.5827
-0.28,0.511,-0.272,75.6,-3.1,107.5,1023,2018,4,25,16,34,59.464,-0.5597,0.5501,-0.2035,0.5852
-0.355,0.428,-0.263,78.5,-8.8,131.5,1023,2018,4,25,16,34,59.466,-0.5493,0.5628,-0.1851,0.5891
-0.38,0.327,-0.249,80.4,3.3,153.7,1023,2018,4,25,16,34,59.478,-0.5365,0.5757,-0.1637,0.5947
-0.394,0.266,-0.23,81.8,20.8,173.4,1023,2018,4,25,16,34,59.515,-0.5228,0.5873,-0.1381,0.602
-0.434,0.22,-0.189,82.8,29.2,189,1023,2018,4,25,16,34,59.536,-0.508,0.5977,-0.1091,0.6105
-0.472,0.172,-0.145,81.4,30,201.2,1023,2018,4,25,16,34,59.538,-0.4915,0.6071,-0.0782,0.6194
-0.46,0.106,-0.105,78.3,28.3,209.4,1023,2018,4,25,16,34,59.576,-0.473,0.6155,-0.0463,0.6286
-0.423,0.013,-0.057,75.8,31,210.3,1023,2018,4,25,16,34,59.596,-0.4533,0.6228,-0.0141,0.6375
-0.422,-0.064,0.011,71.4,39.4,204.6,0,2018,4,25,16,34,59.6,-0.4336,0.6283,0.0184,0.6455
-0.396,-0.116,0.058,65.4,47.7,193,0,2018,4,25,16,34,59.641,-0.4148,0.6319,0.0511,0.6526
-0.353,-0.135,0.079,59.6,51.7,178.6,0,2018,4,25,16,34,59.66,-0.3981,0.6334,0.0821,0.6583
-0.352,-0.134,0.078,54.8,44.4,166.1,0,2018,4,25,16,34,59.665,-0.3827,0.6337,0.1107,0.6629
-0.38,-0.153,0.093,50,20.9,157.2,0,2018,4,25,16,34,59.68,-0.3667,0.6342,0.1358,0.6669
-0.373,-0.182,0.139,44.6,-16.2,148.9,0,2018,4,25,16,34,59.716,-0.3482,0.6355,0.1556,0.6712
-0.266,-0.225,0.198,40,-59.4,138.9,0,2018,4,25,16,34,59.736,-0.3261,0.6385,0.1691,0.6762
-0.164,-0.325,0.249,37.8,-95.2,126.7,0,2018,4,25,16,34,59.74,-0.3002,0.6434,0.1766,0.6816
-0.038,-0.446,0.294,36.7,-105.5,111.8,0,2018,4,25,16,34,59.763,-0.2732,0.6493,0.1796,0.6866
0.051,-0.56,0.33,36,-86.9,95.6,0,2018,4,25,16,34,59.782,-0.2485,0.6549,0.1813,0.6902
0.099,-0.618,0.352,34.7,-55,78.5,0,2018,4,25,16,34,59.803,-0.2288,0.6593,0.1842,0.692
0.154,-0.654,0.386,33.3,-19.3,58.7,0,2018,4,25,16,34,59.824,-0.2152,0.6626,0.189,0.6919
0.203,-0.625,0.413,30.2,12.4,39,0,2018,4,25,16,34,59.843,-0.2081,0.6649,0.1955,0.6901
0.226,-0.566,0.431,25,30.1,20.4,0,2018,4,25,16,34,59.865,-0.2063,0.6664,0.2027,0.6871
0.239,-0.504,0.427,17.4,31.8,5,0,2018,4,25,16,34,59.881,-0.2079,0.6673,0.2088,0.6839
0.215,-0.473,0.413,8.6,21.9,-8.9,0,2018,4,25,16,34,59.92,-0.2109,0.6679,0.2122,0.6813
0.221,-0.461,0.397,-0.1,9.7,-22.6,0,2018,4,25,16,34,59.941,-0.2144,0.6684,0.2123,0.6797
0.224,-0.456,0.396,-8.3,3,-36.7,0,2018,4,25,16,34,59.945,-0.2188,0.6688,0.2093,0.6789
0.198,-0.444,0.384,-16.3,1.3,-49.6,0,2018,4,25,16,34,59.964,-0.2246,0.6688,0.2039,0.6786
0.142,-0.419,0.381,-23.7,2.2,-61,0,2018,4,25,16,34,59.982,-0.2322,0.6683,0.1968,0.6787
0.089,-0.378,0.358,-31,0.6,-70.1,0,2018,4,25,16,35,0.006,-0.2411,0.6672,0.1882,0.6791
0,-0.341,0.303,-37.5,-5.2,-76.6,0,2018,4,25,16,35,0.026,-0.2507,0.6655,0.1778,0.68
-0.044,-0.32,0.257,-42.1,-10,-82,0,2018,4,25,16,35,0.061,-0.2604,0.6635,0.1659,0.6814
-0.072,-0.273,0.237,-45,-15.7,-87.6,1023,2018,4,25,16,35,0.081,-0.2703,0.6612,0.1525,0.6829
-0.131,-0.246,0.217,-47.4,-22.9,-93.2,1023,2018,4,25,16,35,0.085,-0.28,0.6589,0.1375,0.6844
-0.251,-0.24,0.182,-48.2,-27.8,-93.7,1023,2018,4,25,16,35,0.106,-0.2894,0.6566,0.1212,0.6858
-0.451,-0.298,0.195,-50.3,-24,-88.8,1023,2018,4,25,16,35,0.126,-0.2982,0.6539,0.105,0.6872
-0.577,-0.335,0.249,-57.3,-8.3,-85.4,1023,2018,4,25,16,35,0.145,-0.3077,0.6498,0.0903,0.689
-0.533,-0.283,0.22,-66.6,7.2,-88.1,1023,2018,4,25,16,35,0.164,-0.3193,0.6433,0.0769,0.6914
-0.438,-0.153,0.125,-72.4,10.3,-101,1023,2018,4,25,16,35,0.183,-0.3329,0.6352,0.0634,0.6939
-0.328,-0.021,0.055,-72.4,5.3,-121,1023,2018,4,25,16,35,0.204,-0.3477,0.627,0.0481,0.6953
-0.357,0.047,0.027,-69.7,-0.1,-138.8,1023,2018,4,25,16,35,0.223,-0.3635,0.6194,0.0307,0.6951
-0.541,-0.008,0.037,-69,6.4,-151.5,1023,2018,4,25,16,35,0.261,-0.3816,0.6114,0.0108,0.693
-0.754,-0.002,0.043,-72.4,22.3,-162.4,1023,2018,4,25,16,35,0.282,-0.4022,0.6019,-0.0089,0.6897
-0.804,0.116,-0.018,-78.6,31.2,-171,1023,2018,4,25,16,35,0.286,-0.4249,0.5902,-0.0283,0.6856
-0.772,0.234,-0.095,-84.1,29.8,-177.3,0,2018,4,25,16,35,0.308,-0.4483,0.577,-0.0487,0.6809
-0.707,0.346,-0.149,-87.9,21.6,-181.5,0,2018,4,25,16,35,0.329,-0.4713,0.5628,-0.0704,0.6753
-0.636,0.421,-0.198,-90.3,6.5,-183.1,0,2018,4,25,16,35,0.348,-0.4928,0.5485,-0.094,0.6688
-0.578,0.458,-0.242,-91.3,-6.8,-181.5,0,2018,4,25,16,35,0.386,-0.5122,0.5346,-0.1193,0.6614
-0.527,0.499,-0.274,-91.9,-15.1,-177.3,0,2018,4,25,16,35,0.405,-0.5296,0.521,-0.1455,0.6532
-0.482,0.549,-0.314,-91.6,-20,-168.1,0,2018,4,25,16,35,0.409,-0.5451,0.5074,-0.1717,0.6448
-0.465,0.581,-0.35,-90.7,-22.7,-154.6,0,2018,4,25,16,35,0.426,-0.5583,0.4941,-0.197,0.6365
-0.436,0.618,-0.369,-90.2,-24.6,-137,0,2018,4,25,16,35,0.464,-0.569,0.4812,-0.2209,0.629
-0.415,0.652,-0.384,-89,-26,-115.9,0,2018,4,25,16,35,0.485,-0.5771,0.4688,-0.2431,0.6228
-0.38,0.678,-0.392,-88,-28.3,-90.9,0,2018,4,25,16,35,0.489,-0.5821,0.4575,-0.2634,0.6184
-0.358,0.703,-0.392,-87.4,-30.8,-65.4,0,2018,4,25,16,35,0.505,-0.5839,0.4473,-0.2816,0.616
-0.343,0.72,-0.39,-86.8,-33.5,-37.8,0,2018,4,25,16,35,0.526,-0.5825,0.4387,-0.2979,0.6159
-0.32,0.739,-0.387,-86,-39,-8,0,2018,4,25,16,35,0.549,-0.5776,0.4319,-0.3123,0.6182
-0.306,0.743,-0.374,-85.2,-44.6,23.2,0,2018,4,25,16,35,0.568,-0.5688,0.4273,-0.3248,0.6231
-0.294,0.732,-0.357,-85,-49.3,57.3,0,2018,4,25,16,35,0.603,-0.5558,0.425,-0.3353,0.6307
-0.296,0.711,-0.332,-86.3,-52.5,93.4,0,2018,4,25,16,35,0.606,-0.5385,0.4249,-0.3435,0.6413
-0.327,0.685,-0.3,-90.2,-57.3,132,0,2018,4,25,16,35,0.628,-0.5163,0.4268,-0.3493,0.655
-0.373,0.657,-0.264,-97.1,-65.9,171.8,0,2018,4,25,16,35,0.646,-0.4882,0.4308,-0.3532,0.6717
-0.42,0.645,-0.255,-106.8,-84.7,211.5,0,2018,4,25,16,35,0.683,-0.4532,0.4367,-0.3559,0.6907
-0.484,0.604,-0.254,-118.7,-113,248.9,0,2018,4,25,16,35,0.703,-0.4102,0.4448,-0.3588,0.7106
-0.583,0.558,-0.244,-133.2,-152.9,281.5,0,2018,4,25,16,35,0.707,-0.3582,0.4546,-0.3631,0.7301
-0.739,0.44,-0.251,-152.6,-201.5,305.9,0,2018,4,25,16,35,0.746,-0.2966,0.4652,-0.3707,0.747
-0.89,0.223,-0.318,-174.9,-237.3,319.1,1023,2018,4,25,16,35,0.766,-0.2262,0.4743,-0.3817,0.7603
-1.009,0.054,-0.38,-193.3,-256.8,322,1023,2018,4,25,16,35,0.77,-0.1499,0.4796,-0.3942,0.7694
-1.081,-0.003,-0.414,-203.6,-273.3,315.5,1023,2018,4,25,16,35,0.79,-0.0707,0.4802,-0.4071,0.7737
-1.117,-0.073,-0.444,-208,-286.8,303.6,1023,2018,4,25,16,35,0.811,0.0094,0.4761,-0.4202,0.7723
-1.052,-0.157,-0.462,-205.6,-297.8,285.4,1023,2018,4,25,16,35,0.829,0.0885,0.4678,-0.4334,0.7651
-0.894,-0.247,-0.486,-195.4,-299,261.7,1023,2018,4,25,16,35,0.85,0.1643,0.4555,-0.4466,0.7522
-0.699,-0.326,-0.473,-177.9,-276.2,235.7,1023,2018,4,25,16,35,0.884,0.2339,0.4409,-0.4583,0.7353
-0.519,-0.416,-0.4,-156.4,-221.3,208.4,1023,2018,4,25,16,35,0.906,0.2945,0.426,-0.4655,0.7176
-0.366,-0.465,-0.356,-134.7,-139,178.9,1023,2018,4,25,16,35,0.91,0.3435,0.4137,-0.4655,0.7029
-0.25,-0.428,-0.415,-113.4,-55.9,148,1023,2018,4,25,16,35,0.931,0.3798,0.406,-0.4575,0.6938
-0.181,-0.312,-0.504,-93.8,-8.8,118.4,1023,2018,4,25,16,35,0.95,0.4054,0.4025,-0.4446,0.6898
-0.162,-0.243,-0.56,-76.9,-0.6,94,1023,2018,4,25,16,35,0.989,0.4246,0.4002,-0.4314,0.6879
-0.139,-0.221,-0.572,-63.9,-19.9,75,0,2018,4,25,16,35,1.008,0.4404,0.3974,-0.4214,0.6858
-0.117,-0.214,-0.563,-55.3,-51.8,60,0,2018,4,25,16,35,1.012,0.4552,0.3924,-0.4165,0.682
-0.057,-0.211,-0.554,-50.5,-86.9,50.6,0,2018,4,25,16,35,1.051,0.4702,0.3844,-0.4169,0.6761
-0.015,-0.217,-0.541,-46.9,-114.6,43.9,0,2018,4,25,16,35,1.07,0.486,0.3737,-0.4217,0.6679
0.017,-0.212,-0.543,-44.1,-136.2,39.2,0,2018,4,25,16,35,1.074,0.5023,0.3606,-0.4297,0.6579
0.062,-0.198,-0.569,-39.4,-153.7,34.9,0,2018,4,25,16,35,1.092,0.5187,0.3457,-0.4403,0.6461
0.081,-0.164,-0.56,-33.2,-163.5,30.6,0,2018,4,25,16,35,1.115,0.5345,0.3295,-0.4529,0.6328
0.147,-0.109,-0.548,-27,-166.4,31.7,0,2018,4,25,16,35,1.131,0.5495,0.3131,-0.4663,0.6183
0.13,-0.105,-0.532,-19.3,-163.2,36.1,0,2018,4,25,16,35,1.151,0.5638,0.2974,-0.4799,0.6026
0.098,-0.109,-0.498,-12.1,-155.5,40.7,0,2018,4,25,16,35,1.185,0.5772,0.2832,-0.4929,0.5861
0.077,-0.085,-0.477,-5.7,-147.7,46.7,0,2018,4,25,16,35,1.206,0.5897,0.2707,-0.5052,0.5689
0.06,-0.076,-0.437,1.7,-142.3,52.8,0,2018,4,25,16,35,1.21,0.6014,0.2599,-0.5168,0.5509
0.031,-0.088,-0.394,9.6,-138,59.3,0,2018,4,25,16,35,1.251,0.6124,0.2508,-0.5282,0.5319
-0.015,-0.114,-0.325,15.5,-129.8,65.8,0,2018,4,25,16,35,1.27,0.6227,0.2433,-0.5391,0.512
-0.049,-0.137,-0.31,24.1,-114.5,71.1,0,2018,4,25,16,35,1.275,0.632,0.2382,-0.549,0.4921
-0.052,-0.159,-0.302,35.1,-100.8,75.9,0,2018,4,25,16,35,1.295,0.6397,0.236,-0.5583,0.4724
-0.002,-0.214,-0.218,44.2,-92.8,80.7,0,2018,4,25,16,35,1.317,0.6461,0.2362,-0.5673,0.4525
0.002,-0.273,-0.114,48.3,-89.1,83.4,0,2018,4,25,16,35,1.332,0.6515,0.2378,-0.5762,0.4321
-0.023,-0.336,-0.016,48.5,-82.7,84.4,0,2018,4,25,16,35,1.369,0.6564,0.24,-0.5846,0.4118
-0.082,-0.381,0.026,48.5,-78.1,84.4,0,2018,4,25,16,35,1.374,0.6607,0.2429,-0.5922,0.3919
-0.142,-0.432,0.1,45.3,-82.7,82.1,1023,2018,4,25,16,35,1.392,0.6648,0.2455,-0.5995,0.3718
-0.146,-0.51,0.145,37,-87.9,75.4,1023,2018,4,25,16,35,1.428,0.6691,0.2465,-0.6063,0.3519
-0.11,-0.571,0.161,29.2,-92.8,65.4,1023,2018,4,25,16,35,1.45,0.6737,0.2454,-0.6125,0.3326
-0.069,-0.667,0.178,22.6,-95.9,53.4,1023,2018,4,25,16,35,1.454,0.6783,0.242,-0.6183,0.3143
-0.011,-0.773,0.215,17.5,-96.9,36.5,1023,2018,4,25,16,35,1.474,0.6827,0.2364,-0.624,0.2976
0.087,-0.854,0.267,13.9,-86.3,12.6,1023,2018,4,25,16,35,1.493,0.6859,0.2289,-0.6295,0.284
0.141,-0.854,0.273,10.2,-72.5,-15,1023,2018,4,25,16,35,1.531,0.6876,0.2198,-0.6349,0.275
0.13,-0.825,0.224,7.4,-48.8,-39.8,1023,2018,4,25,16,35,1.552,0.6876,0.2097,-0.6399,0.2713
0.057,-0.795,0.191,4.1,-28.5,-64.3,1023,2018,4,25,16,35,1.556,0.6857,0.1999,-0.6442,0.2734
-0.02,-0.82,0.149,-1.7,-23.6,-85.6,1023,2018,4,25,16,35,1.576,0.6828,0.1882,-0.6481,0.2795
-0.07,-0.74,0.109,-8.1,-20.9,-106.4,1023,2018,4,25,16,35,1.595,0.6792,0.1745,-0.6517,0.2887
-0.094,-0.685,0.091,-14.4,-21.2,-126.2,1023,2018,4,25,16,35,1.633,0.6752,0.158,-0.6548,0.3004
-0.11,-0.595,0.032,-19.4,-22.9,-144.6,0,2018,4,25,16,35,1.635,0.6704,0.1389,-0.6575,0.3144
-0.13,-0.511,-0.005,-21.5,-28.3,-159.6,0,2018,4,25,16,35,1.656,0.6647,0.1172,-0.66,0.3297
-0.153,-0.435,-0.054,-21.5,-30,-171.5,0,2018,4,25,16,35,1.675,0.6579,0.0933,-0.6623,0.3459
-0.166,-0.346,-0.084,-20.8,-24.2,-180.4,0,2018,4,25,16,35,1.695,0.6498,0.0684,-0.6641,0.3631
-0.189,-0.245,-0.116,-19.9,-12.3,-185.1,0,2018,4,25,16,35,1.715,0.6404,0.0438,-0.6648,0.3819
-0.228,-0.127,-0.154,-19.9,-2.9,-184.8,0,2018,4,25,16,35,1.737,0.6301,0.0201,-0.6641,0.4017
-0.244,-0.017,-0.188,-19.3,4.2,-179.7,0,2018,4,25,16,35,1.756,0.6192,-0.0023,-0.6622,0.4218
-0.242,0.081,-0.207,-18,10,-170.6,0,2018,4,25,16,35,1.776,0.6082,-0.0231,-0.6593,0.4414
-0.222,0.162,-0.217,-16,15.2,-158.6,0,2018,4,25,16,35,1.813,0.5972,-0.042,-0.6555,0.46
-0.19,0.238,-0.216,-13.6,20.9,-145.1,0,2018,4,25,16,35,1.833,0.5867,-0.0586,-0.6512,0.4777
-0.154,0.303,-0.201,-10.8,25.7,-131.3,0,2018,4,25,16,35,1.837,0.5766,-0.0728,-0.6464,0.4942
-0.106,0.368,-0.186,-8.2,29.1,-117.7,0,2018,4,25,16,35,1.855,0.5672,-0.0849,-0.6413,0.5096
-0.071,0.425,-0.199,-4.9,31.9,-102.7,0,2018,4,25,16,35,1.894,0.5585,-0.0947,-0.6361,0.5237
-0.064,0.463,-0.206,-1.6,32.7,-85.7,0,2018,4,25,16,35,1.915,0.5507,-0.1022,-0.6312,0.5364
-0.082,0.485,-0.165,-1.1,31.4,-68,0,2018,4,25,16,35,1.919,0.5442,-0.1077,-0.6266,0.5472
-0.089,0.501,-0.173,-1.9,29.3,-48.2,0,2018,4,25,16,35,1.937,0.5394,-0.1112,-0.6225,0.556
-0.072,0.512,-0.184,-1.2,25.3,-27.1,0,2018,4,25,16,35,1.957,0.5364,-0.1129,-0.6189,0.5624
-0.064,0.507,-0.187,0.8,18.6,-5.6,0,2018,4,25,16,35,1.979,0.5354,-0.1126,-0.6164,0.5662
-0.086,0.497,-0.158,4.1,8,15.1,0,2018,4,25,16,35,1.997,0.5359,-0.1105,-0.6154,0.5672
-0.151,0.466,-0.116,3.9,-1,36.5,0,2018,4,25,16,35,2.017,0.538,-0.107,-0.616,0.5652
-0.288,0.43,-0.11,0,-12.4,62,0,2018,4,25,16,35,2.04,0.5425,-0.102,-0.6178,0.5599
-0.421,0.385,-0.129,-5.2,-26.6,91.5,0,2018,4,25,16,35,2.06,0.55,-0.0958,-0.6207,0.5503
-0.475,0.337,-0.126,-9.7,-42.1,120,0,2018,4,25,16,35,2.076,0.5604,-0.0884,-0.625,0.536
-0.378,0.272,-0.114,-12.1,-46.8,141.4,1023,2018,4,25,16,35,2.096,0.5731,-0.0795,-0.63,0.5178
-0.23,0.226,-0.069,-12.1,-42,153,1023,2018,4,25,16,35,2.12,0.5871,-0.0688,-0.6347,0.4976
-0.11,0.197,-0.032,-10.8,-27.1,154.4,1023,2018,4,25,16,35,2.138,0.6011,-0.0562,-0.6381,0.4776
-0.003,0.178,-0.039,-5.7,-7.6,148.2,1023,2018,4,25,16,35,2.177,0.6144,-0.0416,-0.64,0.4595
0.038,0.173,-0.053,1.3,10.3,138.3,1023,2018,4,25,16,35,2.198,0.6263,-0.0246,-0.6405,0.4435
-0.05,0.167,-0.075,7.2,22.3,131.7,1023,2018,4,25,16,35,2.202,0.6362,-0.0069,-0.6401,0.4304
-0.228,0.122,-0.076,8.4,24.2,131.9,1023,2018,4,25,16,35,2.218,0.6449,0.0109,-0.6393,0.4185
-0.365,0.058,-0.082,4.4,16.7,141.4,1023,2018,4,25,16,35,2.257,0.6539,0.029,-0.638,0.4054
-0.401,-0.001,-0.07,-2.4,3.1,153.7,1023,2018,4,25,16,35,2.277,0.664,0.0467,-0.6365,0.3895
-0.334,-0.047,-0.033,-9.1,-16.7,162.5,0,2018,4,25,16,35,2.281,0.6752,0.0634,-0.6349,0.3699
-0.237,-0.079,-0.005,-12.8,-45.2,163.2,0,2018,4,25,16,35,2.321,0.6869,0.0774,-0.6337,0.3469
-0.155,-0.13,0.008,-15.5,-73.3,155.1,0,2018,4,25,16,35,2.34,0.6985,0.0867,-0.6334,0.3213
-0.063,-0.191,0.004,-16.6,-91.3,141.2,0,2018,4,25,16,35,2.344,0.7093,0.091,-0.6337,0.2947
-0.006,-0.26,-0.015,-16.1,-96,125.3,0,2018,4,25,16,35,2.36,0.7191,0.0929,-0.6342,0.2681
0.021,-0.333,-0.05,-14.4,-90,109.7,0,2018,4,25,16,35,2.38,0.7276,0.0933,-0.6345,0.2432
0.049,-0.396,-0.081,-11.9,-76.5,97,0,2018,4,25,16,35,2.4,0.7346,0.0936,-0.6345,0.2211
0.058,-0.443,-0.084,-8.3,-60.1,87,0,2018,4,25,16,35,2.421,0.7402,0.0946,-0.6342,0.2019
0.05,-0.471,-0.071,-5,-43.8,78,0,2018,4,25,16,35,2.441,0.7445,0.0969,-0.6337,0.1857
0.059,-0.482,-0.061,-2,-33.5,70.6,0,2018,4,25,16,35,2.48,0.7479,0.1,-0.6332,0.172
0.08,-0.51,-0.058,1.8,-26.7,64.6,0,2018,4,25,16,35,2.484,0.7504,0.1035,-0.6329,0.1598
0.08,-0.553,-0.013,6.2,-17.6,58.4,0,2018,4,25,16,35,2.502,0.752,0.1076,-0.6329,0.1492
0.091,-0.575,0.034,8.3,-9.1,49.6,0,2018,4,25,16,35,2.524,0.7526,0.1125,-0.6333,0.1403
0.118,-0.59,0.052,9.6,-3.7,38.7,0,2018,4,25,16,35,2.544,0.7527,0.1171,-0.6338,0.1335
0.121,-0.625,0.06,12.2,2.5,28,0,2018,4,25,16,35,2.56,0.7522,0.1213,-0.6346,0.1286
0.108,-0.672,0.062,15.2,20.5,17.7,0,2018,4,25,16,35,2.58,0.7508,0.1259,-0.6358,0.1264
0.101,-0.686,0.077,17.4,41.2,6.8,0,2018,4,25,16,35,2.599,0.7485,0.132,-0.637,0.1278
0.092,-0.69,0.091,18,59.8,-5.8,0,2018,4,25,16,35,2.637,0.7452,0.1395,-0.6383,0.1329
0.085,-0.663,0.093,18,75.6,-19.5,0,2018,4,25,16,35,2.657,0.7411,0.1477,-0.6393,0.1416
0.035,-0.64,0.084,17.5,87,-32.3,0,2018,4,25,16,35,2.66,0.7361,0.1561,-0.6403,0.1535
-0.133,-0.653,0.074,16.4,97,-41.2,0,2018,4,25,16,35,2.699,0.7305,0.1646,-0.6411,0.1679
-0.315,-0.714,0.098,11.2,116,-47,0,2018,4,25,16,35,2.72,0.7244,0.1736,-0.6409,0.1849
-0.428,-0.724,0.121,2.4,138.6,-54.5,0,2018,4,25,16,35,2.724,0.7179,0.1844,-0.639,0.2054
-0.34,-0.645,0.095,-7.9,152.8,-68.2,0,2018,4,25,16,35,2.761,0.711,0.1958,-0.6351,0.2295
-0.149,-0.497,0.019,-15.5,150.1,-90.2,1023,2018,4,25,16,35,2.765,0.7036,0.2054,-0.6299,0.2566
0.019,-0.349,-0.043,-19.4,133.8,-115.2,1023,2018,4,25,16,35,2.782,0.6955,0.2107,-0.6247,0.2855
0.052,-0.291,-0.072,-21.9,114.4,-137.3,1023,2018,4,25,16,35,2.801,0.6865,0.2106,-0.6204,0.315
-0.034,-0.276,-0.101,-25.2,106.5,-151.2,1023,2018,4,25,16,35,2.838,0.6767,0.2065,-0.6166,0.3449
-0.186,-0.281,-0.141,-31,108.4,-154.5,1023,2018,4,25,16,35,2.859,0.6662,0.2008,-0.6121,0.3754
-0.36,-0.278,-0.186,-40.9,114.5,-148.2,1023,2018,4,25,16,35,2.864,0.6558,0.1951,-0.6056,0.4061
-0.501,-0.259,-0.223,-53.9,118.6,-136.3,1023,2018,4,25,16,35,2.901,0.6464,0.19,-0.5963,0.4362
-0.542,-0.174,-0.275,-66.9,109.7,-124.3,1023,2018,4,25,16,35,2.921,0.6387,0.1848,-0.5846,0.4647
-0.491,-0.058,-0.337,-76.1,80.9,-116.3,1023,2018,4,25,16,35,2.925,0.633,0.1773,-0.5724,0.49
-0.432,0.042,-0.395,-79.8,41.3,-115.9,1023,2018,4,25,16,35,2.945,0.6288,0.1657,-0.5619,0.5111
-0.368,0.097,-0.444,-78.7,4.6,-122,1023,2018,4,25,16,35,2.964,0.6252,0.1492,-0.5545,0.5284
-0.306,0.134,-0.491,-72.4,-22.6,-131.2,0,2018,4,25,16,35,3.003,0.6209,0.1288,-0.5503,0.543
-0.259,0.157,-0.533,-62.7,-38.3,-139.3,0,2018,4,25,16,35,3.022,0.615,0.1058,-0.5489,0.556
-0.239,0.175,-0.56,-50.5,-39.9,-145.1,0,2018,4,25,16,35,3.026,0.6071,0.0823,-0.5492,0.5682
-0.23,0.189,-0.582,-38,-26.5,-146.2,0,2018,4,25,16,35,3.042,0.5971,0.0603,-0.5498,0.5809
-0.253,0.196,-0.59,-25.2,1.9,-142.8,0,2018,4,25,16,35,3.079,0.5853,0.0419,-0.5491,0.5949
-0.28,0.231,-0.596,-13.8,35.6,-135.8,0,2018,4,25,16,35,3.1,0.5723,0.0285,-0.546,0.611
-0.281,0.285,-0.594,-3.8,64.1,-125.5,0,2018,4,25,16,35,3.104,0.5588,0.0204,-0.5401,0.6288
-0.261,0.321,-0.586,5.6,84.4,-114.2,0,2018,4,25,16,35,3.143,0.5451,0.0166,-0.5322,0.6474
-0.244,0.364,-0.571,14.6,94.6,-104.2,0,2018,4,25,16,35,3.163,0.5314,0.0163,-0.5231,0.666
-0.217,0.397,-0.568,24.1,92.6,-94.2,0,2018,4,25,16,35,3.167,0.5177,0.0183,-0.5141,0.6836
-0.192,0.414,-0.552,33.8,83.1,-84,0,2018,4,25,16,35,3.187,0.504,0.0218,-0.5063,0.6993
-0.166,0.419,-0.519,43.8,68.4,-74.1,0,2018,4,25,16,35,3.206,0.4906,0.0262,-0.5007,0.7126
-0.149,0.415,-0.482,53.8,55.7,-62.9,0,2018,4,25,16,35,3.243,0.4774,0.0317,-0.4974,0.7235
-0.149,0.407,-0.463,63.6,47.2,-47.8,0,2018,4,25,16,35,3.264,0.4649,0.0385,-0.4962,0.7321
-0.172,0.383,-0.402,74.7,48,-27.5,0,2018,4,25,16,35,3.268,0.4537,0.0479,-0.4961,0.7386
-0.224,0.353,-0.336,83.8,56.9,-1.2,0,2018,4,25,16,35,3.286,0.4445,0.0611,-0.4956,0.7435
-0.294,0.325,-0.289,93.4,62.5,28.7,0,2018,4,25,16,35,3.304,0.438,0.0785,-0.4944,0.7466
-0.368,0.274,-0.185,101.4,65,56.7,0,2018,4,25,16,35,3.34,0.4342,0.1,-0.4929,0.7472
-0.324,0.208,-0.114,106.4,72.7,76.1,0,2018,4,25,16,35,3.36,0.4328,0.1246,-0.4905,0.7459
-0.196,0.2,-0.056,111.6,85.5,81.4,0,2018,4,25,16,35,3.366,0.4319,0.1516,-0.4865,0.744
-0.098,0.222,-0.039,120,94.8,77.6,0,2018,4,25,16,35,3.386,0.4297,0.1804,-0.4812,0.7423
-0.096,0.228,-0.025,130.1,99.7,71.8,0,2018,4,25,16,35,3.406,0.4252,0.2104,-0.4755,0.7407
-0.162,0.188,0.015,135.8,100.6,71.6,0,2018,4,25,16,35,3.444,0.4192,0.2411,-0.4697,0.7385
-0.198,0.127,0.028,137.4,99.4,78.2,1023,2018,4,25,16,35,3.464,0.4131,0.2721,-0.4634,0.7351
-0.228,0.06,0.069,136.5,92.2,87.5,1023,2018,4,25,16,35,3.469,0.4081,0.3031,-0.4567,0.73
-0.237,0.007,0.104,133.5,80.8,96.2,1023,2018,4,25,16,35,3.485,0.4053,0.3341,-0.4493,0.7226
-0.189,-0.062,0.147,129.2,71.4,100.8,1023,2018,4,25,16,35,3.524,0.4037,0.3635,-0.4423,0.7135
-0.106,-0.078,0.178,125.2,66.5,100,1023,2018,4,25,16,35,3.546,0.4024,0.391,-0.4354,0.7038
-0.047,-0.092,0.178,122.6,62.4,98.2,1023,2018,4,25,16,35,3.55,0.4008,0.4175,-0.4289,0.6935
-0.001,-0.133,0.147,122.2,61.4,97.8,1023,2018,4,25,16,35,3.57,0.3988,0.4437,-0.4226,0.6821
-0.036,-0.274,0.162,124.1,76.9,95.7,1023,2018,4,25,16,35,3.589,0.3958,0.47,-0.4155,0.6705
-0.103,-0.412,0.235,123.8,120.6,86.1,1023,2018,4,25,16,35,3.61,0.3893,0.4977,-0.4049,0.6608
-0.098,-0.412,0.269,122.4,173,69.6,1023,2018,4,25,16,35,3.629,0.3764,0.5272,-0.3892,0.6548
-0.1,-0.344,0.297,118.3,210.3,50.6,0,2018,4,25,16,35,3.668,0.3567,0.5573,-0.3691,0.6525
-0.085,-0.255,0.334,109.2,219.1,35.1,0,2018,4,25,16,35,3.671,0.3326,0.586,-0.347,0.6522
-0.03,-0.207,0.388,74.1,173.7,17.5,0,2018,4,25,16,35,3.688,0.2852,0.6316,-0.3062,0.6525
0.042,-0.228,0.368,56,149.2,12.5,0,2018,4,25,16,35,3.727,0.2656,0.6474,-0.2894,0.653
0.087,-0.25,0.35,38.5,132.5,8.7,0,2018,4,25,16,35,3.748,0.2485,0.6595,-0.2744,0.6541
0.102,-0.279,0.315,22,122.1,6.4,0,2018,4,25,16,35,3.752,0.2333,0.6686,-0.2603,0.6562
0.094,-0.306,0.259,7.9,117.4,5,0,2018,4,25,16,35,3.768,0.2194,0.6752,-0.2465,0.6595
0.116,-0.327,0.223,-4.3,117.3,2.1,0,2018,4,25,16,35,3.788,0.2058,0.6799,-0.2326,0.6642
0.139,-0.332,0.195,-14.5,115.3,-1.9,0,2018,4,25,16,35,3.826,0.1924,0.6828,-0.2187,0.6699
0.162,-0.338,0.118,-21.3,113.7,-6,0,2018,4,25,16,35,3.847,0.1789,0.6842,-0.2051,0.6765
0.147,-0.346,0.068,-23.9,114.3,-9.3,0,2018,4,25,16,35,3.851,0.1652,0.6846,-0.1918,0.6834
0.119,-0.368,0.052,-27.5,118.6,-12.7,0,2018,4,25,16,35,3.889,0.1508,0.6844,-0.1785,0.6906
0.102,-0.36,0.034,-31.4,122.3,-16.3,0,2018,4,25,16,35,3.909,0.1354,0.6834,-0.1649,0.6981
0.071,-0.35,-0.03,-34.6,118.9,-18.4,0,2018,4,25,16,35,3.913,0.1197,0.6815,-0.1514,0.7058
-0.034,-0.359,-0.109,-34.4,109.8,-16.2,0,2018,4,25,16,35,3.931,0.1048,0.679,-0.1386,0.7132
-0.158,-0.456,-0.126,-33.8,108.4,-12.7,0,2018,4,25,16,35,3.968,0.0911,0.6762,-0.1262,0.72
-0.225,-0.503,-0.113,-34.1,108,-11.9,0,2018,4,25,16,35,3.972,0.0774,0.6733,-0.1133,0.7264
-0.21,-0.527,-0.151,-35.1,94.8,-17,0,2018,4,25,16,35,3.989,0.0643,0.6699,-0.1015,0.7325
-0.1,-0.52,-0.249,-34.2,80.1,-30.6,0,2018,4,25,16,35,4.027,0.0518,0.6659,-0.0928,0.7383
0.044,-0.517,-0.296,-29.8,82,-49.8,0,2018,4,25,16,35,4.047,0.0379,0.6617,-0.087,0.7436
0.09,-0.507,-0.316,-24.1,99.5,-69.2,0,2018,4,25,16,35,4.051,0.02,0.6578,-0.082,0.7484
-0.031,-0.549,-0.339,-20.7,113.7,-82.5,0,2018,4,25,16,35,4.089,-0.002,0.654,-0.0767,0.7525
-0.251,-0.6,-0.356,-19.4,127,-91.2,0,2018,4,25,16,35,4.108,-0.027,0.65,-0.0707,0.7561
-0.378,-0.606,-0.332,-23.7,141.1,-99.8,1023,2018,4,25,16,35,4.112,-0.0545,0.6451,-0.0639,0.7594
-0.412,-0.522,-0.352,-26.7,147.6,-113.4,1023,2018,4,25,16,35,4.133,-0.0848,0.6389,-0.0568,0.7624
-0.399,-0.4,-0.345,-30.3,125.2,-131.4,1023,2018,4,25,16,35,4.153,-0.1162,0.6314,-0.0525,0.7648
-0.372,-0.281,-0.341,-32.1,85.3,-152.2,1023,2018,4,25,16,35,4.172,-0.1464,0.6235,-0.0547,0.7659
-0.329,-0.174,-0.334,-33.4,41.6,-172.4,1023,2018,4,25,16,35,4.192,-0.1746,0.6157,-0.065,0.7656
-0.276,-0.114,-0.355,-32.8,3.8,-188.2,1023,2018,4,25,16,35,4.21,-0.2006,0.6082,-0.0826,0.7635
-0.241,-0.088,-0.384,-31.3,-19.6,-198.3,1023,2018,4,25,16,35,4.231,-0.2248,0.6011,-0.1057,0.7595
-0.229,-0.067,-0.409,-27.8,-23.2,-201.7,1023,2018,4,25,16,35,4.252,-0.2483,0.594,-0.1308,0.7538
-0.225,-0.034,-0.43,-24.1,-13.5,-198.8,1023,2018,4,25,16,35,4.273,-0.2719,0.5864,-0.1552,0.7469
-0.233,0.025,-0.433,-20.2,5.8,-189.7,1023,2018,4,25,16,35,4.295,-0.2962,0.578,-0.1765,0.7394
-0.236,0.126,-0.429,-17.9,18.3,-175.1,1023,2018,4,25,16,35,4.313,-0.3204,0.5689,-0.1941,0.732
-0.246,0.214,-0.411,-15.8,19.7,-157.6,0,2018,4,25,16,35,4.334,-0.3428,0.5598,-0.2089,0.7248
-0.238,0.282,-0.402,-13.7,15.7,-137.6,0,2018,4,25,16,35,4.354,-0.3625,0.5513,-0.2218,0.7178
-0.218,0.336,-0.393,-10.6,10.9,-119,0,2018,4,25,16,35,4.375,-0.3792,0.5438,-0.2332,0.7113
-0.205,0.378,-0.384,-6.2,8.3,-102.6,0,2018,4,25,16,35,4.412,-0.3933,0.5376,-0.243,0.7051
-0.181,0.404,-0.386,-0.2,11.7,-88,0,2018,4,25,16,35,4.432,-0.4057,0.5324,-0.2509,0.6991
-0.165,0.429,-0.387,7.1,20.8,-73.8,0,2018,4,25,16,35,4.436,-0.4171,0.5281,-0.2561,0.6938
-0.152,0.46,-0.379,14.6,33.4,-59.2,0,2018,4,25,16,35,4.455,-0.4281,0.5244,-0.2581,0.6891
-0.156,0.476,-0.372,21.7,44.4,-43.3,0,2018,4,25,16,35,4.482,-0.4387,0.5214,-0.2567,0.6853
-0.154,0.511,-0.352,29.1,53.2,-26.9,0,2018,4,25,16,35,4.502,-0.4484,0.519,-0.252,0.6825
-0.156,0.522,-0.333,36.3,58,-9.1,0,2018,4,25,16,35,4.515,-0.4571,0.5178,-0.2443,0.6806
-0.157,0.528,-0.309,43.1,58.7,8.9,0,2018,4,25,16,35,4.533,-0.464,0.5178,-0.2341,0.6794
-0.196,0.509,-0.274,49.9,57.3,27.5,0,2018,4,25,16,35,4.57,-0.4689,0.5193,-0.2217,0.679
-0.21,0.488,-0.237,53.8,55.7,45.9,0,2018,4,25,16,35,4.593,-0.4716,0.5223,-0.2073,0.6795
-0.27,0.462,-0.235,55.8,50.3,65.4,0,2018,4,25,16,35,4.595,-0.4717,0.5263,-0.1913,0.6809
-0.33,0.442,-0.257,58,37.6,87.4,0,2018,4,25,16,35,4.614,-0.4684,0.5319,-0.1743,0.6834
-0.407,0.421,-0.259,60.8,16.7,110,0,2018,4,25,16,35,4.633,-0.4608,0.5397,-0.1569,0.6867
-0.431,0.373,-0.194,63.5,-4.1,130.6,0,2018,4,25,16,35,4.672,-0.4484,0.5499,-0.1398,0.6905
-0.371,0.315,-0.137,63.7,-19.1,147.3,0,2018,4,25,16,35,4.674,-0.4317,0.5618,-0.1228,0.6948
-0.31,0.237,-0.09,63.2,-26.7,159.8,0,2018,4,25,16,35,4.693,-0.4118,0.5743,-0.1058,0.6994
-0.288,0.156,-0.08,63,-24,166.2,0,2018,4,25,16,35,4.73,-0.3902,0.5866,-0.088,0.7041
-0.189,0.105,-0.074,64.9,-11.3,166.2,0,2018,4,25,16,35,4.75,-0.3686,0.598,-0.0688,0.7082
-0.148,0.064,-0.07,68.4,5.7,163.1,0,2018,4,25,16,35,4.754,-0.3487,0.6081,-0.0476,0.7115
-0.237,0.012,-0.036,72,20,159.8,0,2018,4,25,16,35,4.791,-0.3301,0.6174,-0.0241,0.7136
-0.319,-0.065,0.014,74.1,29.1,157.9,1023,2018,4,25,16,35,4.814,-0.3125,0.626,0.0009,0.7144
-0.385,-0.138,0.084,73.8,30.8,156.1,1023,2018,4,25,16,35,4.818,-0.2959,0.6335,0.0262,0.7144
-0.369,-0.209,0.176,70.8,24.7,149.3,1023,2018,4,25,16,35,4.837,-0.2796,0.6399,0.0502,0.7139
-0.274,-0.265,0.224,66.7,14.8,138,1023,2018,4,25,16,35,4.858,-0.2633,0.6458,0.0719,0.7129
-0.154,-0.32,0.242,64.6,5.5,123.3,1023,2018,4,25,16,35,4.877,-0.2473,0.6517,0.0907,0.7112
-0.065,-0.418,0.299,63.6,9.3,107.8,1023,2018,4,25,16,35,4.916,-0.2326,0.6574,0.1074,0.7086
0.013,-0.512,0.354,61.1,29.1,90.8,1023,2018,4,25,16,35,4.935,-0.2212,0.6623,0.1236,0.7049
0.07,-0.573,0.392,56.7,55.4,72.5,1023,2018,4,25,16,35,4.939,-0.2149,0.6661,0.1405,0.7002
0.123,-0.583,0.426,51.2,78.5,54.2,1023,2018,4,25,16,35,4.956,-0.2138,0.6685,0.1582,0.6944
0.155,-0.539,0.442,43.2,85.5,36,1023,2018,4,25,16,35,4.993,-0.2168,0.6698,0.1753,0.6881
0.165,-0.507,0.44,33.1,81.2,19.3,1023,2018,4,25,16,35,5.012,-0.2221,0.6702,0.1899,0.6821
0.152,-0.482,0.431,22.2,71.9,4,0,2018,4,25,16,35,5.016,-0.2288,0.6701,0.2014,0.6767
0.131,-0.482,0.423,11.1,62,-10.4,0,2018,4,25,16,35,5.037,-0.2364,0.6695,0.2095,0.6722
0.114,-0.485,0.407,0.5,56.6,-25.1,0,2018,4,25,16,35,5.078,-0.2452,0.6683,0.2145,0.6686
0.107,-0.458,0.378,-9.6,54.7,-39.9,0,2018,4,25,16,35,5.082,-0.2557,0.6665,0.2168,0.6657
0.099,-0.41,0.331,-17.6,52.7,-52.2,0,2018,4,25,16,35,5.102,-0.2679,0.6642,0.217,0.6632
0.074,-0.373,0.285,-23.7,50.5,-62.1,0,2018,4,25,16,35,5.119,-0.2813,0.6615,0.2153,0.6609
0.033,-0.357,0.252,-29.1,49.7,-69.7,0,2018,4,25,16,35,5.141,-0.2957,0.6584,0.2121,0.6587
-0.014,-0.342,0.215,-34.8,53.1,-74.9,0,2018,4,25,16,35,5.179,-0.311,0.6547,0.2079,0.6567
-0.066,-0.304,0.166,-40,59.2,-78.3,0,2018,4,25,16,35,5.183,-0.3276,0.65,0.2035,0.6547
-0.124,-0.256,0.14,-45.6,56.4,-80.9,0,2018,4,25,16,35,5.199,-0.3448,0.6445,0.1986,0.6528
-0.205,-0.233,0.132,-50.9,51.1,-85.2,0,2018,4,25,16,35,5.217,-0.362,0.6385,0.1925,0.6512
-0.274,-0.157,0.104,-56.5,31.7,-91.2,0,2018,4,25,16,35,5.237,-0.3789,0.6324,0.1836,0.6501
-0.352,-0.1,0.028,-59.6,0.3,-96.8,0,2018,4,25,16,35,5.276,-0.3933,0.6278,0.1708,0.6495
-0.447,-0.109,-0.028,-59.6,-28.3,-101,0,2018,4,25,16,35,5.296,-0.4042,0.6253,0.1543,0.6493
-0.504,-0.13,-0.049,-57.8,-42.4,-104.8,0,2018,4,25,16,35,5.3,-0.4128,0.6246,0.1351,0.6489
-0.469,-0.109,-0.061,-56.9,-44.4,-110,0,2018,4,25,16,35,5.319,-0.4207,0.6244,0.1147,0.6479
-0.323,-0.035,-0.093,-54.7,-43.5,-117.5,0,2018,4,25,16,35,5.357,-0.4293,0.624,0.0936,0.646
-0.166,0.033,-0.144,-48.2,-42.1,-125.9,0,2018,4,25,16,35,5.377,-0.4391,0.6232,0.0716,0.6431
-0.077,0.077,-0.116,-40.2,-37.6,-137,0,2018,4,25,16,35,5.381,-0.4499,0.6228,0.0494,0.6381
-0.074,0.132,-0.139,-34.4,-32.5,-147,0,2018,4,25,16,35,5.397,-0.4622,0.6223,0.0271,0.631
-0.156,0.16,-0.185,-27.5,-24.6,-150.3,0,2018,4,25,16,35,5.419,-0.4755,0.6217,0.0052,0.6222
-0.282,0.154,-0.198,-22.2,-8,-145.6,0,2018,4,25,16,35,5.438,-0.4896,0.6203,-0.0147,0.6124
-0.405,0.166,-0.197,-20.3,14.7,-135.9,0,2018,4,25,16,35,5.477,-0.5049,0.6172,-0.0313,0.6025
-0.495,0.214,-0.189,-21.1,32.3,-124.2,1023,2018,4,25,16,35,5.498,-0.521,0.612,-0.0445,0.5932
-0.505,0.297,-0.194,-22.7,36.8,-114,1023,2018,4,25,16,35,5.502,-0.5368,0.6053,-0.0555,0.585
-0.459,0.379,-0.207,-21.8,30.8,-106.5,1023,2018,4,25,16,35,5.522,-0.5513,0.5986,-0.0657,0.5773
-0.377,0.433,-0.204,-18.1,19.8,-101.7,1023,2018,4,25,16,35,5.543,-0.564,0.5929,-0.0759,0.5696
-0.29,0.448,-0.2,-12.5,12.3,-97.9,1023,2018,4,25,16,35,5.581,-0.5752,0.5885,-0.0862,0.5614
-0.223,0.464,-0.186,-7.4,13.1,-94.2,1023,2018,4,25,16,35,5.599,-0.5857,0.5847,-0.0959,0.5529
-0.174,0.492,-0.196,-2.9,20.2,-88.2,1023,2018,4,25,16,35,5.604,-0.596,0.5809,-0.1041,0.5443
-0.15,0.529,-0.211,0.3,26,-78.4,1023,2018,4,25,16,35,5.624,-0.6063,0.5768,-0.1104,0.5361
-0.156,0.554,-0.221,3.3,30.9,-64.4,0,2018,4,25,16,35,5.645,-0.6158,0.5725,-0.1147,0.5288
-0.18,0.572,-0.216,4.9,32.2,-45.9,0,2018,4,25,16,35,5.659,-0.6241,0.5683,-0.1168,0.5231
-0.203,0.57,-0.209,5.5,31.1,-23.8,0,2018,4,25,16,35,5.679,-0.6305,0.5646,-0.1167,0.5194
-0.211,0.576,-0.209,4.8,27,0.2,0,2018,4,25,16,35,5.7,-0.6346,0.5616,-0.1146,0.5183
-0.2,0.592,-0.222,4.6,16.2,25.4,0,2018,4,25,16,35,5.735,-0.6356,0.5599,-0.1108,0.5197
-0.2,0.572,-0.222,4.5,3.8,50.7,0,2018,4,25,16,35,5.756,-0.6331,0.5599,-0.1057,0.5238
-0.22,0.542,-0.217,3.6,-5.7,76.2,0,2018,4,25,16,35,5.761,-0.627,0.5617,-0.099,0.5305
-0.234,0.512,-0.218,1.4,-13,99.8,0,2018,4,25,16,35,5.798,-0.6178,0.5644,-0.0909,0.5397
-0.244,0.482,-0.219,-1.9,-20.8,123.1,0,2018,4,25,16,35,5.819,-0.6054,0.5679,-0.0815,0.5514
-0.258,0.445,-0.206,-5.9,-29.3,145.4,0,2018,4,25,16,35,5.824,-0.5897,0.572,-0.0709,0.5656
-0.282,0.398,-0.191,-10.4,-37,166.1,0,2018,4,25,16,35,5.859,-0.5706,0.5763,-0.0595,0.5819
-0.3,0.345,-0.175,-15.8,-43.9,184.6,0,2018,4,25,16,35,5.862,-0.5482,0.5805,-0.0472,0.6001
-0.33,0.288,-0.161,-22.1,-49.3,200.1,0,2018,4,25,16,35,5.883,-0.5227,0.5842,-0.0343,0.6198
-0.367,0.229,-0.143,-29.2,-55.4,212.3,0,2018,4,25,16,35,5.902,-0.4944,0.587,-0.0212,0.6405
-0.474,0.154,-0.122,-36.8,-62.6,224.2,0,2018,4,25,16,35,5.923,-0.4634,0.5888,-0.0083,0.6621
-0.716,0.08,-0.112,-46.9,-76.3,238.2,0,2018,4,25,16,35,5.942,-0.4291,0.5893,0.004,0.6844
-0.974,0.012,-0.136,-58.5,-103.3,250.4,0,2018,4,25,16,35,5.963,-0.3902,0.5888,0.0146,0.7076
-1.029,-0.009,-0.205,-68.2,-151.2,251.5,0,2018,4,25,16,35,6.003,-0.3457,0.5881,0.0205,0.7308
-0.825,-0.032,-0.278,-74.1,-223.4,238.5,0,2018,4,25,16,35,6.021,-0.2948,0.5884,0.0173,0.7526
-0.518,-0.077,-0.297,-75.2,-300.9,210.3,0,2018,4,25,16,35,6.026,-0.2377,0.5903,0.0016,0.7713
-0.233,-0.183,-0.241,-75.7,-346.2,173.2,0,2018,4,25,16,35,6.065,-0.1777,0.5923,-0.026,0.7854
-0.047,-0.28,-0.181,-76.7,-340.3,136.7,0,2018,4,25,16,35,6.085,-0.1199,0.592,-0.06,0.7946
0.036,-0.349,-0.216,-74.1,-294.3,104,1023,2018,4,25,16,35,6.089,-0.0694,0.5883,-0.0934,0.8001
0.063,-0.399,-0.286,-69.3,-222.1,78.2,1023,2018,4,25,16,35,6.101,-0.0292,0.5822,-0.1209,0.8034
0.029,-0.388,-0.35,-63.6,-144.4,60.6,1023,2018,4,25,16,35,6.139,0.0001,0.5749,-0.1395,0.8062
-0.047,-0.348,-0.369,-57,-87,46.3,1023,2018,4,25,16,35,6.16,0.0202,0.5675,-0.1499,0.8092
-0.063,-0.276,-0.353,-51.9,-59.4,36.1,1023,2018,4,25,16,35,6.164,0.0343,0.5606,-0.1556,0.8125
-0.079,-0.205,-0.311,-49.1,-60.5,29.9,1023,2018,4,25,16,35,6.201,0.046,0.554,-0.1602,0.8156
-0.052,-0.148,-0.248,-48,-82.7,24.4,1023,2018,4,25,16,35,6.223,0.058,0.5472,-0.1673,0.818
-0.019,-0.113,-0.182,-48.3,-113,19.2,1023,2018,4,25,16,35,6.227,0.0719,0.5398,-0.1787,0.8193
0.037,-0.081,-0.184,-49.6,-146.1,13.9,1023,2018,4,25,16,35,6.249,0.088,0.5315,-0.1952,0.8195
0.102,-0.061,-0.244,-48,-172.8,9.5,1023,2018,4,25,16,35,6.268,0.1063,0.5222,-0.2164,0.818
0.172,-0.081,-0.271,-43,-179.4,7,1023,2018,4,25,16,35,6.286,0.1254,0.5124,-0.2401,0.8148
0.212,-0.108,-0.259,-35.8,-163.3,5.4,1023,2018,4,25,16,35,6.321,0.1433,0.503,-0.2631,0.8106
0.231,-0.117,-0.229,-28.9,-132.2,5.4,1023,2018,4,25,16,35,6.341,0.1584,0.4948,-0.2826,0.8062
0.246,-0.094,-0.191,-23.1,-101.1,8.4,1023,2018,4,25,16,35,6.348,0.1705,0.4883,-0.2975,0.8024
0.2,-0.073,-0.176,-18.5,-80.8,14,1023,2018,4,25,16,35,6.384,0.1808,0.4832,-0.3084,0.7991
0.114,-0.048,-0.163,-14.8,-75,20,1023,2018,4,25,16,35,6.404,0.1905,0.4794,-0.3171,0.7957
0.041,-0.029,-0.136,-12.1,-80.5,24.1,0,2018,4,25,16,35,6.408,0.2008,0.4761,-0.3255,0.7917
0.009,0,-0.115,-9.1,-91.3,27.1,0,2018,4,25,16,35,6.428,0.212,0.4738,-0.3352,0.7861
-0.045,-0.021,-0.096,-4.2,-102.5,27.8,0,2018,4,25,16,35,6.448,0.2241,0.4717,-0.3464,0.7792
-0.08,-0.062,-0.085,2.2,-101.4,26.6,0,2018,4,25,16,35,6.467,0.2362,0.4697,-0.3586,0.7712
-0.088,-0.058,-0.062,8.6,-89.1,24.3,0,2018,4,25,16,35,6.486,0.2469,0.4686,-0.37,0.7631
-0.095,-0.031,-0.071,15.3,-76.6,21.1,0,2018,4,25,16,35,6.524,0.2557,0.4686,-0.38,0.7553
-0.095,-0.007,-0.057,21.1,-68.3,18.6,0,2018,4,25,16,35,6.545,0.263,0.4698,-0.3888,0.7475
-0.062,0.016,-0.046,26,-63.7,17.1,0,2018,4,25,16,35,6.549,0.2692,0.4717,-0.397,0.7398
-0.031,0.022,-0.035,29.6,-58,17.6,0,2018,4,25,16,35,6.59,0.2747,0.4741,-0.4046,0.732
0.021,0.053,-0.004,32.9,-45.7,24.5,0,2018,4,25,16,35,6.609,0.2844,0.4807,-0.4168,0.717
0.022,0.043,0.004,32.3,-41.4,32.1,0,2018,4,25,16,35,6.613,0.2896,0.4849,-0.4211,0.7096
0.038,0.025,0.017,30.6,-36.9,40.1,0,2018,4,25,16,35,6.626,0.2953,0.4896,-0.424,0.7022
0.032,0.001,0.021,27.7,-32.5,47,0,2018,4,25,16,35,6.662,0.3016,0.4945,-0.4258,0.695
0.003,0.001,0.007,22.4,-32.9,52.5,0,2018,4,25,16,35,6.682,0.3087,0.4995,-0.4265,0.6878
-0.053,0.011,-0.023,15.7,-40.4,56.8,0,2018,4,25,16,35,6.686,0.3172,0.5041,-0.4269,0.6804
-0.139,0.008,-0.07,7.7,-57.6,59.9,0,2018,4,25,16,35,6.723,0.3277,0.5075,-0.4281,0.672
-0.136,0.018,-0.14,0.7,-82.4,60.8,0,2018,4,25,16,35,6.743,0.3407,0.5092,-0.4312,0.6622
-0.096,0,-0.188,-2.8,-106.3,60.1,0,2018,4,25,16,35,6.748,0.3562,0.5079,-0.4367,0.6514
-0.092,-0.039,-0.207,-4.8,-121.2,60,0,2018,4,25,16,35,6.784,0.3735,0.5047,-0.4441,0.639
-0.111,-0.083,-0.21,-8.1,-124.8,59.3,0,2018,4,25,16,35,6.804,0.3914,0.5004,-0.4521,0.626
-0.073,-0.091,-0.24,-10.3,-124,57.9,0,2018,4,25,16,35,6.812,0.4095,0.4952,-0.4597,0.6128
-0.04,-0.098,-0.259,-10.7,-122.4,56.8,0,2018,4,25,16,35,6.828,0.4274,0.4893,-0.4669,0.5997
-0.036,-0.094,-0.273,-10.3,-121,55.4,0,2018,4,25,16,35,6.848,0.4447,0.4833,-0.4738,0.5864
-0.021,-0.086,-0.284,-9.1,-121.6,54.8,1023,2018,4,25,16,35,6.868,0.4615,0.4771,-0.4807,0.5729
0.005,-0.111,-0.28,-6.9,-121.2,55.2,1023,2018,4,25,16,35,6.906,0.4778,0.4708,-0.4874,0.5588
-0.005,-0.158,-0.258,-5.2,-115.2,55.9,1023,2018,4,25,16,35,6.929,0.4935,0.4649,-0.4937,0.5444
-0.058,-0.165,-0.252,-3.9,-106.3,55.8,1023,2018,4,25,16,35,6.933,0.5082,0.4595,-0.4992,0.5303
-0.073,-0.165,-0.255,-1.8,-99.8,53.9,1023,2018,4,25,16,35,6.95,0.5218,0.4547,-0.5038,0.5167
-0.064,-0.189,-0.244,0.8,-92.9,50.7,1023,2018,4,25,16,35,6.99,0.5342,0.4503,-0.5082,0.5034
-0.05,-0.194,-0.216,3.5,-88.6,47.1,1023,2018,4,25,16,35,7.01,0.5455,0.4462,-0.5123,0.4906
-0.06,-0.178,-0.18,4.9,-85.5,42.9,1023,2018,4,25,16,35,7.014,0.5557,0.4421,-0.5166,0.4782
-0.029,-0.173,-0.169,5.5,-85.3,39,0,2018,4,25,16,35,7.048,0.5654,0.4376,-0.5209,0.4661
-0.014,-0.197,-0.153,6,-83.8,35.5,0,2018,4,25,16,35,7.069,0.5744,0.4329,-0.5255,0.4543
-0.06,-0.221,-0.127,5.3,-79.2,33.2,0,2018,4,25,16,35,7.073,0.5827,0.4282,-0.5298,0.4429
-0.162,-0.237,-0.111,2.8,-75.7,32.4,0,2018,4,25,16,35,7.093,0.5907,0.4234,-0.5336,0.4322
-0.193,-0.228,-0.101,1.2,-82.3,29.4,0,2018,4,25,16,35,7.113,0.5988,0.4181,-0.5373,0.4216
-0.145,-0.228,-0.076,1.7,-98.2,25.9,0,2018,4,25,16,35,7.13,0.6074,0.411,-0.5419,0.4101
-0.043,-0.268,-0.02,4.6,-113.8,23.1,0,2018,4,25,16,35,7.151,0.6166,0.4019,-0.548,0.3972
0.056,-0.37,0.045,8.8,-113.7,20.9,0,2018,4,25,16,35,7.171,0.6256,0.3917,-0.5551,0.3833
0.121,-0.452,0.163,9.6,-97.1,18.4,0,2018,4,25,16,35,7.191,0.6333,0.3822,-0.5618,0.3702
0.17,-0.492,0.186,6.4,-75.7,16.9,0,2018,4,25,16,35,7.211,0.6394,0.3747,-0.5669,0.3594
0.19,-0.512,0.163,3.7,-58.8,18.2,0,2018,4,25,16,35,7.25,0.6444,0.369,-0.5704,0.3506
0.186,-0.555,0.162,1,-47.4,19.1,0,2018,4,25,16,35,7.271,0.6489,0.3649,-0.5726,0.3432
0.178,-0.626,0.247,-4.9,-37.7,15.6,0,2018,4,25,16,35,7.275,0.6529,0.3614,-0.5738,0.3371
0.149,-0.643,0.256,-10.9,-30,9.8,0,2018,4,25,16,35,7.294,0.6568,0.358,-0.5739,0.333
0.109,-0.681,0.245,-15,-25.5,2.6,0,2018,4,25,16,35,7.313,0.6604,0.3543,-0.5736,0.3304
0.114,-0.754,0.29,-17.6,-16.3,-8.5,0,2018,4,25,16,35,7.334,0.6634,0.3503,-0.573,0.3298
0.092,-0.785,0.352,-20,-7.1,-23.8,0,2018,4,25,16,35,7.353,0.6651,0.3459,-0.5724,0.3318
0.061,-0.788,0.377,-22.5,1.4,-41.8,0,2018,4,25,16,35,7.371,0.6656,0.3407,-0.572,0.3368
0.004,-0.763,0.348,-25.9,8.3,-60.7,0,2018,4,25,16,35,7.412,0.6648,0.3345,-0.5719,0.3448
-0.034,-0.72,0.32,-29.8,14.5,-79.8,0,2018,4,25,16,35,7.434,0.6627,0.3269,-0.572,0.3559
-0.071,-0.658,0.284,-35,19.1,-97.6,0,2018,4,25,16,35,7.438,0.6593,0.3178,-0.5721,0.3698
-0.107,-0.583,0.241,-40.1,20.1,-113.8,0,2018,4,25,16,35,7.456,0.655,0.307,-0.5723,0.386
-0.136,-0.499,0.212,-44.5,21.4,-128.3,0,2018,4,25,16,35,7.474,0.6496,0.2945,-0.5725,0.4041
-0.183,-0.401,0.169,-48.3,17.3,-141,0,2018,4,25,16,35,7.513,0.6433,0.2802,-0.5727,0.4237
-0.207,-0.315,0.136,-52.2,8,-150.7,1023,2018,4,25,16,35,7.534,0.6365,0.2633,-0.5731,0.4437
-0.228,-0.228,0.09,-54,-7.8,-158.4,1023,2018,4,25,16,35,7.538,0.6295,0.2435,-0.5741,0.4633
-0.24,-0.168,0.041,-54.3,-24.1,-164.4,1023,2018,4,25,16,35,7.552,0.6219,0.2202,-0.5764,0.482
-0.235,-0.11,-0.009,-51,-33.6,-169,1023,2018,4,25,16,35,7.574,0.6137,0.1955,-0.5797,0.4989
-0.221,-0.062,-0.057,-45.4,-33.8,-172.6,1023,2018,4,25,16,35,7.593,0.6042,0.1705,-0.5836,0.5148
-0.196,0.003,-0.086,-38.2,-25.4,-174.7,1023,2018,4,25,16,35,7.613,0.5933,0.1463,-0.5873,0.5306
-0.249,0.065,-0.087,-31,-13.3,-173,1023,2018,4,25,16,35,7.633,0.5809,0.1232,-0.5897,0.5473
-0.348,0.112,-0.099,-26.5,-1.3,-164,1023,2018,4,25,16,35,7.675,0.5676,0.1023,-0.5908,0.564
-0.411,0.156,-0.117,-22.4,8.9,-148.5,1023,2018,4,25,16,35,7.693,0.5544,0.0842,-0.5906,0.5802
-0.383,0.2,-0.12,-18.9,17.5,-131.2,1023,2018,4,25,16,35,7.698,0.542,0.069,-0.5891,0.5952
-0.269,0.26,-0.136,-16.4,23.2,-116.3,0,2018,4,25,16,35,7.718,0.5306,0.0564,-0.5866,0.6091
-0.169,0.336,-0.163,-14,27.2,-105.1,0,2018,4,25,16,35,7.755,0.5201,0.0459,-0.5834,0.6219
-0.126,0.396,-0.201,-11.9,29.1,-96,0,2018,4,25,16,35,7.776,0.5102,0.0369,-0.5799,0.6339
-0.15,0.429,-0.228,-10.7,26.8,-86.1,0,2018,4,25,16,35,7.778,0.5011,0.0289,-0.5763,0.6449
-0.21,0.45,-0.261,-10.2,19.6,-72.6,0,2018,4,25,16,35,7.798,0.493,0.0218,-0.5731,0.6541
-0.276,0.453,-0.266,-10.5,11.9,-53.9,0,2018,4,25,16,35,7.817,0.4867,0.0156,-0.5706,0.6611
-0.302,0.449,-0.258,-12,5.7,-32.6,0,2018,4,25,16,35,7.836,0.4829,0.0107,-0.5687,0.6657
-0.271,0.466,-0.246,-14.5,-3.9,-13,0,2018,4,25,16,35,7.856,0.4816,0.0071,-0.5675,0.6676
-0.203,0.498,-0.251,-15.8,-18.4,2.5,0,2018,4,25,16,35,7.876,0.4826,0.0039,-0.5675,0.6669
-0.132,0.519,-0.26,-15.5,-35.2,13.2,0,2018,4,25,16,35,7.915,0.4852,0.0006,-0.5694,0.6635
-0.083,0.519,-0.27,-13.4,-48.8,21.6,0,2018,4,25,16,35,7.936,0.4887,-0.0028,-0.5731,0.6577
-0.07,0.491,-0.272,-10,-54.3,29.9,0,2018,4,25,16,35,7.94,0.4928,-0.0061,-0.5781,0.6502
-0.073,0.469,-0.263,-5.9,-52.2,41.1,0,2018,4,25,16,35,7.958,0.4975,-0.008,-0.5835,0.6417
-0.07,0.459,-0.243,-3.6,-49.3,56.2,0,2018,4,25,16,35,7.979,0.5033,-0.0079,-0.5888,0.6323
-0.081,0.449,-0.233,-2.7,-52.7,75,0,2018,4,25,16,35,8.017,0.5108,-0.0059,-0.5941,0.6212
-0.083,0.417,-0.22,-2.8,-60.5,96.6,0,2018,4,25,16,35,8.021,0.5203,-0.0024,-0.6,0.6075
-0.095,0.349,-0.209,-5.2,-67.9,119.4,0,2018,4,25,16,35,8.037,0.5321,0.0026,-0.6064,0.5907
-0.108,0.268,-0.206,-8.4,-68.5,142.9,0,2018,4,25,16,35,8.076,0.5462,0.0095,-0.6126,0.571
-0.142,0.203,-0.194,-12.1,-72.9,165.4,0,2018,4,25,16,35,8.095,0.5626,0.0183,-0.6181,0.5485
-0.178,0.128,-0.141,-16.1,-87.8,184.3,0,2018,4,25,16,35,8.099,0.5809,0.0281,-0.6234,0.5224
-0.217,0.031,-0.111,-20.7,-112.4,196.2,0,2018,4,25,16,35,8.137,0.6005,0.037,-0.6293,0.4919
-0.269,-0.059,-0.159,-23.3,-136.3,201.8,0,2018,4,25,16,35,8.158,0.6204,0.0439,-0.6358,0.457
-0.306,-0.162,-0.222,-25.2,-158.2,203.8,0,2018,4,25,16,35,8.162,0.6398,0.0484,-0.6428,0.4182
-0.356,-0.317,-0.24,-26.1,-153,200.6,1023,2018,4,25,16,35,8.18,0.6581,0.0516,-0.6491,0.3777
-0.337,-0.457,-0.226,-24.6,-121.5,189.4,1023,2018,4,25,16,35,8.199,0.6745,0.0561,-0.653,0.3395
-0.306,-0.514,-0.224,-18.8,-76.9,172.5,1023,2018,4,25,16,35,8.22,0.6882,0.0638,-0.6541,0.307
-0.267,-0.526,-0.211,-9.9,-36.6,156.1,1023,2018,4,25,16,35,8.258,0.6989,0.0751,-0.6532,0.2811
-0.303,-0.542,-0.147,-1,-1.1,141.5,1023,2018,4,25,16,35,8.278,0.7067,0.0896,-0.6513,0.2611
-0.368,-0.546,-0.099,4.9,15.7,131.4,1023,2018,4,25,16,35,8.283,0.7123,0.1063,-0.6489,0.2452
-0.437,-0.581,-0.026,7.6,16.9,122.6,1023,2018,4,25,16,35,8.298,0.7165,0.1231,-0.6464,0.2312
-0.416,-0.62,0.013,7.4,13.4,112.2,1023,2018,4,25,16,35,8.319,0.7198,0.1385,-0.6441,0.2181
-0.254,-0.65,0.03,7.4,9.7,99.3,1023,2018,4,25,16,35,8.339,0.7226,0.1521,-0.642,0.2058
-0.02,-0.679,0.068,8.6,9.2,79.6,1023,2018,4,25,16,35,8.359,0.7247,0.1635,-0.6402,0.1953
0.241,-0.657,0.102,9.4,13.7,52.9,1023,2018,4,25,16,35,8.38,0.7255,0.1726,-0.639,0.1879
0.398,-0.62,0.089,11.1,20.6,27.2,0,2018,4,25,16,35,8.4,0.7251,0.1795,-0.6386,0.1845
0.409,-0.638,0.045,13.9,35,8.4,0,2018,4,25,16,35,8.42,0.7234,0.1852,-0.6388,0.1851
0.346,-0.696,0.051,14.9,61.6,-1.9,0,2018,4,25,16,35,8.461,0.7202,0.192,-0.639,0.1897
0.258,-0.744,0.072,11.4,93.9,-5.5,0,2018,4,25,16,35,8.48,0.7158,0.2018,-0.6382,0.1985
0.14,-0.75,0.085,2.5,118.4,-6.3,0,2018,4,25,16,35,8.484,0.7109,0.2148,-0.6354,0.211
0.05,-0.729,0.083,-8.5,132.4,-8.1,0,2018,4,25,16,35,8.504,0.7061,0.2296,-0.6305,0.2259
0.024,-0.668,0.076,-18.3,135.1,-15.1,0,2018,4,25,16,35,8.523,0.7016,0.2444,-0.6237,0.2427
0.009,-0.622,0.066,-25.7,127.5,-28.8,0,2018,4,25,16,35,8.54,0.6973,0.2571,-0.6161,0.2606
0.005,-0.593,0.046,-29.5,114.4,-46.2,0,2018,4,25,16,35,8.577,0.693,0.2664,-0.6088,0.2794
-0.019,-0.577,0.021,-31.5,107,-65.9,0,2018,4,25,16,35,8.598,0.6882,0.2722,-0.6022,0.2992
-0.056,-0.565,-0.007,-32.3,108.8,-84.8,0,2018,4,25,16,35,8.602,0.6823,0.2753,-0.5962,0.3211
-0.106,-0.526,-0.044,-32.8,116.4,-99.8,0,2018,4,25,16,35,8.621,0.6748,0.2771,-0.5902,0.3454
-0.156,-0.477,-0.078,-34.3,124.1,-110.1,0,2018,4,25,16,35,8.641,0.6658,0.2783,-0.5839,0.3717
-0.191,-0.423,-0.107,-36.9,126.7,-116.2,0,2018,4,25,16,35,8.663,0.6556,0.2789,-0.5768,0.3994
-0.216,-0.366,-0.136,-40.4,121.2,-119.2,0,2018,4,25,16,35,8.682,0.6449,0.2785,-0.5691,0.4271
-0.231,-0.309,-0.158,-43.8,109,-120.6,0,2018,4,25,16,35,8.704,0.6342,0.2763,-0.5614,0.4539
-0.25,-0.27,-0.191,-47.6,93.4,-121,0,2018,4,25,16,35,8.739,0.624,0.2719,-0.5539,0.4792
-0.25,-0.237,-0.223,-51.4,77.4,-121.8,0,2018,4,25,16,35,8.743,0.6144,0.2651,-0.547,0.5029
-0.262,-0.209,-0.241,-55.8,62.5,-122.1,0,2018,4,25,16,35,8.759,0.6054,0.2561,-0.5406,0.5249
-0.275,-0.175,-0.285,-60.8,47,-124.6,0,2018,4,25,16,35,8.801,0.597,0.2449,-0.5347,0.5455
-0.28,-0.07,-0.352,-63.3,22.6,-131.2,0,2018,4,25,16,35,8.82,0.5889,0.2306,-0.5301,0.5647
-0.277,0.013,-0.39,-61.1,-10.1,-140.9,0,2018,4,25,16,35,8.824,0.5808,0.2123,-0.5284,0.5815
-0.279,0.077,-0.407,-54.3,-41.2,-152.3,0,2018,4,25,16,35,8.861,0.572,0.1901,-0.5305,0.5959
-0.292,0.119,-0.417,-43.5,-64.6,-162.6,1023,2018,4,25,16,35,8.883,0.5616,0.1649,-0.5363,0.608
-0.309,0.145,-0.416,-30,-74.8,-169.2,1023,2018,4,25,16,35,8.887,0.5491,0.1383,-0.5448,0.6184
-0.301,0.169,-0.422,-14.8,-70.7,-171.5,1023,2018,4,25,16,35,8.905,0.5342,0.1125,-0.5545,0.6279
-0.307,0.215,-0.42,1.7,-54.9,-169.1,1023,2018,4,25,16,35,8.924,0.5171,0.0894,-0.5639,0.6376
-0.345,0.264,-0.419,18.1,-34.4,-161.2,1023,2018,4,25,16,35,8.962,0.4981,0.0702,-0.5721,0.6477
-0.38,0.313,-0.406,34.4,-13.7,-147.2,1023,2018,4,25,16,35,8.982,0.478,0.0557,-0.5787,0.6582
-0.343,0.354,-0.396,49.9,4.5,-127.5,1023,2018,4,25,16,35,8.986,0.4578,0.0464,-0.5839,0.6687
-0.242,0.378,-0.357,64.7,22.4,-104.9,1023,2018,4,25,16,35,9.002,0.4382,0.0425,-0.5877,0.6787
-0.012,0.421,-0.316,92.7,71.2,-69.6,1023,2018,4,25,16,35,9.04,0.4006,0.0505,-0.5895,0.6995
0.029,0.461,-0.338,105.1,94.1,-55.4,1023,2018,4,25,16,35,9.061,0.3819,0.0621,-0.5866,0.7114
-0.03,0.489,-0.36,114.7,106.4,-36.6,0,2018,4,25,16,35,9.065,0.3636,0.0779,-0.5816,0.7234
-0.141,0.479,-0.361,119.5,109.2,-10.5,0,2018,4,25,16,35,9.086,0.3467,0.0976,-0.5756,0.734
-0.277,0.438,-0.322,119.4,104.5,22,0,2018,4,25,16,35,9.106,0.3332,0.1203,-0.5689,0.7421
-0.318,0.399,-0.293,114.9,95,55,0,2018,4,25,16,35,9.125,0.3243,0.1453,-0.5617,0.747
-0.307,0.375,-0.256,109.7,80.5,82.2,0,2018,4,25,16,35,9.146,0.3201,0.1717,-0.5546,0.7485
-0.246,0.362,-0.217,104.6,63.1,100.3,0,2018,4,25,16,35,9.168,0.3198,0.1984,-0.5482,0.7468
-0.178,0.333,-0.193,101,49.6,110.7,0,2018,4,25,16,35,9.19,0.322,0.2247,-0.5427,0.7424
-0.154,0.304,-0.161,98.1,40.9,115.8,0,2018,4,25,16,35,9.207,0.3258,0.2505,-0.5377,0.7361
-0.133,0.259,-0.15,95.3,37.2,119.7,0,2018,4,25,16,35,9.226,0.3305,0.2757,-0.5328,0.7285
-0.101,0.2,-0.143,93.8,35.8,125.3,0,2018,4,25,16,35,9.245,0.3356,0.3009,-0.5274,0.7201
-0.101,0.126,-0.115,92.7,38.2,133.5,0,2018,4,25,16,35,9.266,0.3415,0.3262,-0.5212,0.7107
-0.102,0.047,-0.066,91.1,46.4,144.5,0,2018,4,25,16,35,9.285,0.3479,0.3528,-0.5133,0.7006
-0.128,-0.04,-0.001,89,58,154.6,0,2018,4,25,16,35,9.305,0.3549,0.3809,-0.503,0.6898
-0.197,-0.134,0.074,84.3,72.8,160.8,0,2018,4,25,16,35,9.341,0.3617,0.4091,-0.4897,0.6796
-0.196,-0.191,0.125,77.4,86.7,160.9,0,2018,4,25,16,35,9.36,0.3678,0.4368,-0.4735,0.6705
-0.163,-0.245,0.159,70.1,96.3,154.8,0,2018,4,25,16,35,9.365,0.3728,0.4637,-0.4552,0.6622
-0.13,-0.289,0.184,61.7,101.3,144.2,0,2018,4,25,16,35,9.406,0.3766,0.4894,-0.4357,0.6547
-0.089,-0.324,0.187,53.8,99.4,131.7,0,2018,4,25,16,35,9.428,0.3791,0.5128,-0.416,0.6481
-0.073,-0.366,0.223,44.5,92.2,117.1,0,2018,4,25,16,35,9.432,0.3809,0.5335,-0.3971,0.6422
-0.038,-0.392,0.244,34.1,80.6,101.6,0,2018,4,25,16,35,9.446,0.3822,0.5511,-0.3797,0.6371
-0.025,-0.423,0.251,23.5,63.1,85.8,0,2018,4,25,16,35,9.483,0.3836,0.5651,-0.3646,0.6327
-0.036,-0.455,0.235,13.2,44.1,70.9,0,2018,4,25,16,35,9.503,0.3858,0.5755,-0.3522,0.629
-0.091,-0.515,0.234,4.6,28.4,59,1023,2018,4,25,16,35,9.53,0.3888,0.5827,-0.3424,0.626
-0.196,-0.613,0.256,-3.8,19.2,49.9,1023,2018,4,25,16,35,9.547,0.3923,0.5875,-0.3344,0.6236
-0.254,-0.708,0.278,-12.8,20,40.4,1023,2018,4,25,16,35,9.549,0.3958,0.5905,-0.3271,0.6225
-0.201,-0.746,0.286,-21,27.3,25.4,1023,2018,4,25,16,35,9.567,0.398,0.5921,-0.3199,0.6233
-0.051,-0.713,0.246,-26.3,31.2,1.2,1023,2018,4,25,16,35,9.588,0.3977,0.5923,-0.3135,0.6266
0.115,-0.643,0.19,-28.1,29.6,-29.3,1023,2018,4,25,16,35,9.624,0.3944,0.5906,-0.3098,0.6321
0.241,-0.565,0.134,-27.5,31.8,-60.7,1023,2018,4,25,16,35,9.645,0.3877,0.587,-0.3093,0.6397
0.29,-0.514,0.083,-25.2,40.1,-88.2,1023,2018,4,25,16,35,9.648,0.3769,0.5824,-0.3112,0.6494
0.233,-0.498,0.041,-23.6,51.5,-107.1,1023,2018,4,25,16,35,9.686,0.3623,0.5771,-0.3144,0.6608
0.087,-0.49,0.001,-23.3,70.6,-114.8,1023,2018,4,25,16,35,9.706,0.3445,0.5719,-0.3171,0.6734
-0.105,-0.473,-0.022,-24.4,87.2,-114.3,1023,2018,4,25,16,35,9.71,0.3241,0.5674,-0.3177,0.6869
-0.285,-0.505,-0.031,-27.8,105.1,-109.3,0,2018,4,25,16,35,9.727,0.3026,0.5632,-0.3157,0.7009
-0.411,-0.465,-0.07,-30.9,139.5,-101.7,0,2018,4,25,16,35,9.748,0.2793,0.56,-0.3096,0.7158
-0.42,-0.28,-0.071,-32.6,163.1,-104,0,2018,4,25,16,35,9.768,0.2524,0.558,-0.2979,0.7321
-0.314,-0.111,-0.068,-38.4,109.5,-109.3,0,2018,4,25,16,35,9.787,0.2268,0.5541,-0.2892,0.7468
-0.201,-0.154,-0.098,-39.5,40.9,-124,0,2018,4,25,16,35,9.826,0.2062,0.546,-0.29,0.7584
-0.141,-0.161,-0.178,-36.8,28.1,-137.9,0,2018,4,25,16,35,9.846,0.1878,0.5352,-0.2968,0.7681
-0.15,-0.165,-0.246,-32,32.3,-150.4,0,2018,4,25,16,35,9.85,0.1673,0.5239,-0.3051,0.7773
-0.2,-0.144,-0.302,-27.5,44.7,-160.1,0,2018,4,25,16,35,9.871,0.1441,0.5125,-0.3132,0.7864
-0.252,-0.069,-0.334,-23.3,61.9,-164.1,0,2018,4,25,16,35,9.891,0.1183,0.5012,-0.3196,0.7953
-0.28,0.037,-0.355,-20.5,73.7,-163.2,0,2018,4,25,16,35,9.932,0.0906,0.4902,-0.3237,0.8041
-0.278,0.132,-0.367,-18.7,71,-157.4,0,2018,4,25,16,35,9.951,0.0629,0.4793,-0.3267,0.812
-0.275,0.195,-0.373,-16.4,56.7,-149,0,2018,4,25,16,35,9.955,0.0368,0.4686,-0.33,0.8185
-0.277,0.246,-0.378,-13.8,38.1,-140.2,0,2018,4,25,16,35,9.97,0.0131,0.4582,-0.3349,0.8231
-0.237,0.288,-0.401,-9,20.6,-131,0,2018,4,25,16,35,9.991,-0.0079,0.4486,-0.3415,0.8258
-0.206,0.312,-0.425,-1.6,9.1,-121.9,0,2018,4,25,16,35,10.011,-0.0268,0.4402,-0.3493,0.8266
-0.176,0.334,-0.441,8.2,5.5,-113.4,0,2018,4,25,16,35,10.05,-0.0445,0.4334,-0.3573,0.8261
-0.138,0.356,-0.448,20,9.3,-104.2,0,2018,4,25,16,35,10.07,-0.0616,0.4285,-0.3643,0.8244
-0.113,0.37,-0.442,33.9,19.2,-95.4,0,2018,4,25,16,35,10.074,-0.0787,0.4259,-0.3694,0.8221
-0.098,0.396,-0.422,47.9,31.6,-86,0,2018,4,25,16,35,10.093,-0.0962,0.4255,-0.3718,0.8193
-0.072,0.418,-0.397,61.8,42.5,-75.8,0,2018,4,25,16,35,10.113,-0.1142,0.4275,-0.3714,0.8162
-0.052,0.442,-0.376,75.5,50.6,-63.5,0,2018,4,25,16,35,10.133,-0.132,0.4319,-0.3684,0.8125
-0.086,0.454,-0.331,86.6,54.1,-50.4,0,2018,4,25,16,35,10.153,-0.1493,0.4385,-0.3633,0.8083
-0.143,0.457,-0.287,94.1,55.3,-36,0,2018,4,25,16,35,10.169,-0.1653,0.447,-0.3564,0.8036
-0.152,0.453,-0.252,100.6,53.8,-19.5,1023,2018,4,25,16,35,10.191,-0.1795,0.4573,-0.3479,0.7984
-0.179,0.469,-0.224,106,47.6,0.7,1023,2018,4,25,16,35,10.21,-0.1911,0.4695,-0.3382,0.7928
-0.244,0.456,-0.199,111.8,33.6,29.3,1023,2018,4,25,16,35,10.231,-0.1988,0.484,-0.3276,0.7866
-0.319,0.39,-0.139,116.5,20.8,65.4,1023,2018,4,25,16,35,10.271,-0.201,0.5014,-0.3158,0.7799
-0.338,0.326,-0.057,119.6,10.8,102.7,1023,2018,4,25,16,35,10.289,-0.1972,0.5215,-0.302,0.7732
-0.296,0.255,0.035,119.9,5.2,132.1,1023,2018,4,25,16,35,10.293,-0.1879,0.5435,-0.286,0.7664
-0.232,0.208,0.104,117.3,7.9,148.6,1023,2018,4,25,16,35,10.329,-0.1754,0.5659,-0.2677,0.7597
-0.145,0.199,0.108,116.4,19.5,155.8,1023,2018,4,25,16,35,10.349,-0.1618,0.5878,-0.247,0.7531
-0.041,0.195,0.109,117.2,36.2,158.6,1023,2018,4,25,16,35,10.356,-0.1489,0.6088,-0.2238,0.7463
-0.024,0.176,0.119,119.5,58.6,160.4,0,2018,4,25,16,35,10.377,-0.1377,0.6288,-0.1974,0.7393
-0.085,0.183,0.151,119.8,78.4,166.9,0,2018,4,25,16,35,10.396,-0.1283,0.6478,-0.1675,0.7319
-0.222,0.105,0.196,116.5,93.4,178.4,0,2018,4,25,16,35,10.415,-0.1194,0.6655,-0.1341,0.7244
-0.44,-0.121,0.246,108.6,111.1,185,0,2018,4,25,16,35,10.434,-0.1107,0.6813,-0.0975,0.7169
-0.562,-0.272,0.322,92.7,137.6,179.3,0,2018,4,25,16,35,10.453,-0.1043,0.6939,-0.0581,0.71
-0.43,-0.303,0.331,73.3,157.4,160,0,2018,4,25,16,35,10.492,-0.102,0.7026,-0.0175,0.704
-0.242,-0.25,0.262,57.2,156.2,133.4,0,2018,4,25,16,35,10.511,-0.1037,0.7075,0.0211,0.6986
-0.101,-0.191,0.196,46.9,130.3,109.5,0,2018,4,25,16,35,10.515,-0.1066,0.7103,0.0545,0.6935
-0.026,-0.279,0.223,39.4,103.3,89.2,0,2018,4,25,16,35,10.535,-0.1084,0.7122,0.0814,0.6887
0.02,-0.423,0.286,31,93.8,69,0,2018,4,25,16,35,10.555,-0.1105,0.7132,0.1035,0.6843
0.067,-0.499,0.33,19.6,90.9,49,0,2018,4,25,16,35,10.593,-0.1145,0.7133,0.1223,0.6804
0.124,-0.521,0.327,6.4,87.2,30.5,0,2018,4,25,16,35,10.613,-0.1206,0.7121,0.1379,0.6776
0.141,-0.513,0.296,-5.9,83,15,0,2018,4,25,16,35,10.617,-0.1286,0.7097,0.1507,0.676
0.116,-0.507,0.271,-18.6,76.1,2,0,2018,4,25,16,35,10.654,-0.1379,0.7061,0.1608,0.6755
0.076,-0.522,0.252,-32.5,68.1,-9,0,2018,4,25,16,35,10.658,-0.1479,0.7014,0.1682,0.6765
0.034,-0.527,0.225,-47.1,59.6,-20.3,0,2018,4,25,16,35,10.676,-0.1586,0.6954,0.1729,0.6791
-0.003,-0.511,0.176,-60.7,49.2,-31.8,0,2018,4,25,16,35,10.695,-0.17,0.6881,0.1746,0.6833
-0.046,-0.494,0.135,-72.4,35.3,-45.1,0,2018,4,25,16,35,10.716,-0.1817,0.68,0.173,0.6888
-0.123,-0.466,0.097,-82.4,18.1,-60.6,0,2018,4,25,16,35,10.736,-0.1936,0.6713,0.1674,0.6955
-0.217,-0.423,0.039,-90.5,-4.5,-77.4,0,2018,4,25,16,35,10.756,-0.2053,0.6624,0.1571,0.703
-0.285,-0.389,-0.014,-95.3,-27.7,-94.9,1023,2018,4,25,16,35,10.793,-0.2165,0.6538,0.1416,0.711
-0.323,-0.341,-0.072,-95.7,-47.3,-112.4,1023,2018,4,25,16,35,10.814,-0.2273,0.6457,0.1213,0.7187
-0.339,-0.267,-0.11,-92.1,-66.4,-131.3,1023,2018,4,25,16,35,10.816,-0.2382,0.6384,0.0966,0.7254
-0.353,-0.195,-0.107,-86.2,-85.4,-150.9,1023,2018,4,25,16,35,10.855,-0.2489,0.6324,0.0673,0.7303
-0.366,-0.123,-0.101,-81.3,-100.2,-169.3,1023,2018,4,25,16,35,10.875,-0.2599,0.6279,0.0338,0.7327
-0.445,-0.06,-0.121,-73.8,-110,-185.1,1023,2018,4,25,16,35,10.879,-0.2711,0.624,-0.0026,0.7328
-0.499,-0.041,-0.158,-63.6,-102.7,-193.7,1023,2018,4,25,16,35,10.898,-0.2834,0.6196,-0.0404,0.7307
-0.547,-0.017,-0.173,-52.7,-76.8,-195.9,1023,2018,4,25,16,35,10.917,-0.2979,0.6148,-0.0759,0.7262
-0.568,0.004,-0.14,-44.4,-34.5,-195.1,1023,2018,4,25,16,35,10.935,-0.3159,0.6086,-0.1064,0.72
-0.594,0.104,-0.092,-42.8,1.9,-193.8,1023,2018,4,25,16,35,10.953,-0.3378,0.5999,-0.1311,0.7132
-0.539,0.242,-0.123,-42.8,21.5,-192,1023,2018,4,25,16,35,10.994,-0.3621,0.5889,-0.1521,0.7062
-0.508,0.39,-0.147,-39.7,27,-190.1,1023,2018,4,25,16,35,11.015,-0.3869,0.5768,-0.1711,0.6987
-0.448,0.488,-0.142,-35.5,21.6,-186.7,1023,2018,4,25,16,35,11.019,-0.411,0.5645,-0.1896,0.6901
-0.365,0.551,-0.153,-29,17.5,-180.4,1023,2018,4,25,16,35,11.037,-0.4337,0.5529,-0.2076,0.6804
-0.268,0.652,-0.159,-22.8,17.7,-167.6,1023,2018,4,25,16,35,11.059,-0.4549,0.5419,-0.2242,0.67
-0.204,0.807,-0.174,-16,15.9,-145.7,0,2018,4,25,16,35,11.081,-0.474,0.5319,-0.2385,0.6598
-0.166,0.933,-0.19,-7,6.5,-114.2,0,2018,4,25,16,35,11.101,-0.4895,0.5241,-0.2501,0.6504
-0.129,0.971,-0.182,3,-5.8,-72.7,0,2018,4,25,16,35,11.137,-0.4998,0.5198,-0.2588,0.6425
-0.125,0.89,-0.146,13.3,-8.9,-27.7,0,2018,4,25,16,35,11.158,-0.505,0.5192,-0.2634,0.637
-0.134,0.821,-0.097,21.8,-2.4,16,0,2018,4,25,16,35,11.162,-0.5058,0.5215,-0.2629,0.6348
-0.128,0.808,-0.074,28.2,3.3,56.1,0,2018,4,25,16,35,11.177,-0.5028,0.526,-0.2572,0.6358
-0.135,0.757,-0.064,32.3,1.1,89.8,0,2018,4,25,16,35,11.218,-0.4962,0.5324,-0.2473,0.6396
-0.161,0.688,-0.081,36,-8.5,116.8,0,2018,4,25,16,35,11.237,-0.4856,0.5409,-0.2349,0.6452
-0.172,0.624,-0.074,39.4,-27.4,138.3,0,2018,4,25,16,35,11.241,-0.4708,0.5518,-0.2215,0.6516
-0.217,0.533,-0.062,41.2,-43.8,156.5,0,2018,4,25,16,35,11.26,-0.4518,0.5649,-0.208,0.6582
-0.288,0.423,-0.075,39.9,-48,172.6,0,2018,4,25,16,35,11.279,-0.4294,0.5791,-0.1939,0.6652
-0.275,0.319,-0.1,38.5,-37.8,186.8,0,2018,4,25,16,35,11.301,-0.4052,0.5926,-0.1777,0.6729
-0.275,0.217,-0.105,40,-20.6,200.6,0,2018,4,25,16,35,11.321,-0.3803,0.605,-0.1582,0.6813
-0.334,0.126,-0.06,42.7,-5.8,212.8,0,2018,4,25,16,35,11.341,-0.3552,0.616,-0.1349,0.6899
-0.352,0.057,-0.006,44.2,4.8,222.9,0,2018,4,25,16,35,11.38,-0.3297,0.6259,-0.1086,0.6982
-0.348,-0.002,0.026,45.7,9.8,230.6,0,2018,4,25,16,35,11.385,-0.3031,0.6349,-0.0798,0.7061
-0.341,-0.09,0.04,48.3,13.6,234.4,0,2018,4,25,16,35,11.399,-0.2756,0.643,-0.0494,0.7128
-0.316,-0.203,0.05,53.3,23.5,234.3,0,2018,4,25,16,35,11.42,-0.2486,0.65,-0.0184,0.7178
-0.301,-0.324,0.109,59.2,42.5,228.1,0,2018,4,25,16,35,11.442,-0.2239,0.6558,0.0137,0.7207
-0.248,-0.438,0.175,63.3,67.6,213.1,0,2018,4,25,16,35,11.461,-0.2021,0.6603,0.0483,0.7216
-0.189,-0.524,0.246,64.7,90.3,190.1,0,2018,4,25,16,35,11.499,-0.1852,0.6633,0.0839,0.7201
-0.153,-0.552,0.304,62.2,98.8,159.6,1023,2018,4,25,16,35,11.518,-0.1734,0.6652,0.1182,0.7165
-0.087,-0.54,0.313,57.4,90,125.7,1023,2018,4,25,16,35,11.522,-0.1654,0.6665,0.1485,0.7115
-0.042,-0.522,0.328,52.1,66.9,92,1023,2018,4,25,16,35,11.544,-0.1597,0.6679,0.1723,0.706
-0.014,-0.509,0.364,44.7,33.6,59.9,1023,2018,4,25,16,35,11.563,-0.1548,0.6701,0.1886,0.7009
-0.003,-0.538,0.403,35,-2.1,29.7,1023,2018,4,25,16,35,11.601,-0.1498,0.6731,0.1966,0.6969
0.02,-0.533,0.413,23.3,-38.1,1.5,1023,2018,4,25,16,35,11.621,-0.1446,0.6767,0.1965,0.6946
-0.051,-0.59,0.396,11.6,-64.9,-18.9,1023,2018,4,25,16,35,11.625,-0.1388,0.6804,0.1892,0.6941
-0.151,-0.656,0.385,-0.7,-74.7,-31.7,1023,2018,4,25,16,35,11.644,-0.1333,0.6836,0.1776,0.6951
-0.191,-0.705,0.365,-12.8,-73.7,-41.8,1023,2018,4,25,16,35,11.678,-0.1291,0.6856,0.1639,0.6974
-0.17,-0.672,0.357,-25.7,-74,-54.8,1023,2018,4,25,16,35,11.699,-0.1268,0.6861,0.1488,0.7006
-0.045,-0.545,0.29,-33.3,-84.9,-72.4,0,2018,4,25,16,35,11.703,-0.1259,0.6857,0.1308,0.7048
0.092,-0.488,0.231,-31.6,-91.8,-93.2,0,2018,4,25,16,35,11.723,-0.126,0.6853,0.109,0.7089
0.162,-0.47,0.223,-24.1,-77.3,-115.7,0,2018,4,25,16,35,11.743,-0.1293,0.6855,0.0851,0.7113
0.137,-0.464,0.224,-16.4,-45,-136.3,0,2018,4,25,16,35,11.762,-0.1379,0.686,0.0618,0.7116
0.01,-0.441,0.227,-12.5,-1.7,-151.4,0,2018,4,25,16,35,11.782,-0.1533,0.6861,0.0413,0.7098
-0.188,-0.409,0.238,-15.8,44.8,-158.1,0,2018,4,25,16,35,11.803,-0.1753,0.6847,0.0251,0.7069
-0.38,-0.314,0.228,-27.3,83.3,-158.1,0,2018,4,25,16,35,11.825,-0.2028,0.6804,0.0137,0.704
-0.529,-0.206,0.212,-45.3,103.1,-155.7,0,2018,4,25,16,35,11.861,-0.2336,0.6722,0.0053,0.7024
-0.713,-0.024,0.19,-67.7,92.9,-157.9,0,2018,4,25,16,35,11.885,-0.2645,0.6605,-0.0028,0.7026
-0.689,0.194,0.092,-88.2,42.8,-161.2,0,2018,4,25,16,35,11.889,-0.2919,0.6471,-0.0162,0.704
-0.621,0.288,0.013,-98.9,-17.6,-166.8,0,2018,4,25,16,35,11.904,-0.3129,0.6342,-0.0382,0.7059
-0.538,0.319,-0.041,-101.9,-66,-173.4,0,2018,4,25,16,35,11.922,-0.328,0.6226,-0.0681,0.7071
-0.491,0.309,-0.086,-98,-91.5,-178.1,0,2018,4,25,16,35,11.943,-0.3395,0.6123,-0.103,0.7064
-0.475,0.275,-0.116,-92.4,-96,-180.7,0,2018,4,25,16,35,11.983,-0.3495,0.6025,-0.1395,0.7037
-0.466,0.28,-0.133,-85.8,-80.7,-180.3,0,2018,4,25,16,35,12.004,-0.3598,0.5921,-0.1748,0.6994
-0.474,0.335,-0.144,-79.4,-53.5,-176.5,0,2018,4,25,16,35,12.008,-0.372,0.5804,-0.2066,0.6942
-0.473,0.403,-0.154,-74.1,-24.9,-167,0,2018,4,25,16,35,12.024,-0.3859,0.567,-0.2335,0.6891
-0.483,0.48,-0.167,-70.5,-3,-153.8,0,2018,4,25,16,35,12.043,-0.4008,0.5524,-0.2556,0.6846
-0.475,0.536,-0.187,-68.7,9.7,-138.1,0,2018,4,25,16,35,12.079,-0.4154,0.537,-0.2739,0.681
-0.456,0.601,-0.209,-68.2,14.8,-121,0,2018,4,25,16,35,12.096,-0.4285,0.5216,-0.2894,0.6785
-0.43,0.646,-0.228,-69.1,12,-103.1,0,2018,4,25,16,35,12.101,-0.4394,0.5067,-0.303,0.6769
-0.398,0.679,-0.24,-70.8,5.1,-84.1,0,2018,4,25,16,35,12.135,-0.4474,0.4927,-0.3155,0.6763
-0.363,0.7,-0.254,-72.9,-1.8,-63.8,1023,2018,4,25,16,35,12.154,-0.4522,0.4799,-0.3272,0.6767
-0.32,0.704,-0.258,-75.5,-8.9,-40.3,1023,2018,4,25,16,35,12.162,-0.4535,0.4686,-0.3381,0.6784
-0.281,0.7,-0.269,-78.3,-12.6,-13.7,1023,2018,4,25,16,35,12.197,-0.4512,0.4587,-0.3476,0.6819
-0.248,0.694,-0.27,-81.3,-15.6,15.6,1023,2018,4,25,16,35,12.217,-0.445,0.4504,-0.3554,0.6875
-0.243,0.686,-0.266,-85,-21.2,47.3,1023,2018,4,25,16,35,12.225,-0.4345,0.4438,-0.3616,0.6953
-0.254,0.673,-0.268,-89.8,-32.4,81.1,1023,2018,4,25,16,35,12.261,-0.4189,0.4391,-0.3663,0.7052
-0.314,0.634,-0.277,-96.4,-52.3,115.5,1023,2018,4,25,16,35,12.279,-0.3974,0.437,-0.3707,0.7166
-0.396,0.562,-0.288,-104.9,-73.2,149.8,1023,2018,4,25,16,35,12.286,-0.3691,0.4372,-0.3752,0.7291
-0.503,0.502,-0.307,-115,-98.5,181.7,0,2018,4,25,16,35,12.32,-0.3338,0.4393,-0.3802,0.7421
-0.611,0.417,-0.351,-125.6,-137,207.2,0,2018,4,25,16,35,12.34,-0.2911,0.4431,-0.3871,0.7542
-0.655,0.327,-0.386,-135.3,-182.3,223.1,0,2018,4,25,16,35,12.345,-0.2409,0.448,-0.3977,0.7635
-0.638,0.246,-0.38,-142.7,-224.4,227.7,0,2018,4,25,16,35,12.363,-0.1846,0.453,-0.4126,0.7683
-0.597,0.132,-0.378,-147.7,-247.7,224.1,0,2018,4,25,16,35,12.382,-0.1245,0.4565,-0.4306,0.7685
-0.585,0.064,-0.346,-150.8,-251.3,215.9,0,2018,4,25,16,35,12.418,-0.0635,0.4575,-0.449,0.7648
-0.565,0.013,-0.349,-152.7,-247.8,207.6,0,2018,4,25,16,35,12.438,-0.0033,0.4557,-0.4663,0.7581
-0.527,-0.087,-0.375,-152.5,-229.8,202.6,0,2018,4,25,16,35,12.444,0.0552,0.4515,-0.4809,0.7495
-0.477,-0.148,-0.388,-148.5,-200.2,202,0,2018,4,25,16,35,12.484,0.111,0.446,-0.4908,0.7401
-0.425,-0.194,-0.402,-142.7,-163.6,204.9,0,2018,4,25,16,35,12.505,0.1637,0.4405,-0.4949,0.7308
-0.379,-0.211,-0.399,-135,-124.3,209,0,2018,4,25,16,35,12.509,0.2129,0.4361,-0.4926,0.7223
-0.346,-0.2,-0.395,-126.9,-95.6,212.5,0,2018,4,25,16,35,12.548,0.2588,0.4332,-0.4847,0.7144
-0.303,-0.201,-0.392,-118.3,-82.7,213.8,0,2018,4,25,16,35,12.568,0.3023,0.4313,-0.4734,0.7059
-0.28,-0.214,-0.405,-109.1,-81.3,211.6,0,2018,4,25,16,35,12.572,0.3438,0.4302,-0.4609,0.6958
-0.241,-0.243,-0.409,-99.1,-87.8,204,0,2018,4,25,16,35,12.587,0.3832,0.429,-0.4489,0.6837
-0.202,-0.288,-0.424,-88.9,-96.3,191.5,0,2018,4,25,16,35,12.625,0.4205,0.4269,-0.4385,0.6696
-0.18,-0.32,-0.456,-78.5,-105,174.4,0,2018,4,25,16,35,12.643,0.4554,0.4235,-0.4302,0.6542
-0.147,-0.336,-0.503,-66.4,-117.4,153.5,0,2018,4,25,16,35,12.646,0.4874,0.4184,-0.4248,0.6378
-0.083,-0.375,-0.517,-54,-129,131.3,0,2018,4,25,16,35,12.679,0.5164,0.4114,-0.4229,0.6206
-0.043,-0.399,-0.528,-42.6,-134.9,109.9,0,2018,4,25,16,35,12.7,0.5421,0.4029,-0.4241,0.6031
-0.023,-0.412,-0.544,-31.9,-138.8,90,0,2018,4,25,16,35,12.707,0.5647,0.3932,-0.4278,0.5859
-0.012,-0.408,-0.563,-21.3,-144.5,72.8,0,2018,4,25,16,35,12.741,0.5844,0.3824,-0.4339,0.569
-0.031,-0.399,-0.576,-10.5,-150.4,58.8,0,2018,4,25,16,35,12.761,0.6017,0.3706,-0.4424,0.552
0.009,-0.405,-0.566,0.6,-152.1,48.5,0,2018,4,25,16,35,12.768,0.6167,0.3581,-0.453,0.5348
0.059,-0.409,-0.509,10.5,-147.9,42.1,1023,2018,4,25,16,35,12.804,0.6296,0.346,-0.4646,0.5175
0.053,-0.383,-0.449,14.3,-150.8,38.9,1023,2018,4,25,16,35,12.823,0.6409,0.3339,-0.4769,0.5001
0.098,-0.36,-0.465,16.3,-160.9,39.8,1023,2018,4,25,16,35,12.825,0.6519,0.3209,-0.4897,0.4817
0.126,-0.402,-0.48,22,-169.8,42.8,1023,2018,4,25,16,35,12.858,0.6627,0.307,-0.5033,0.4615
0.104,-0.461,-0.383,29.7,-163.8,44.3,1023,2018,4,25,16,35,12.877,0.6726,0.2934,-0.5173,0.4401
0.038,-0.461,-0.204,29,-154.1,38.8,1023,2018,4,25,16,35,12.887,0.6809,0.2808,-0.5306,0.4192
0.086,-0.407,-0.225,31.7,-156.8,35.4,1023,2018,4,25,16,35,12.92,0.6882,0.2679,-0.5434,0.3989
0.069,-0.511,-0.127,41.4,-158.4,33.6,1023,2018,4,25,16,35,12.943,0.6943,0.2545,-0.5571,0.3778
0.034,-0.661,0.101,48.2,-131.9,30,1023,2018,4,25,16,35,12.949,0.6982,0.2427,-0.5706,0.3575
-0.058,-0.668,0.228,49.4,-97.7,27.2,1023,2018,4,25,16,35,12.983,0.6997,0.2347,-0.5824,0.3405
-0.164,-0.728,0.295,46.7,-65.2,24.4,0,2018,4,25,16,35,13.003,0.6995,0.2304,-0.5919,0.3272
-0.157,-0.777,0.363,36.9,-49.8,12.8,0,2018,4,25,16,35,13.009,0.6984,0.228,-0.5994,0.3173
-0.066,-0.841,0.397,22.4,-44.6,-9.2,0,2018,4,25,16,35,13.045,0.6973,0.2241,-0.6055,0.311
0,-0.76,0.386,8.1,-39,-34.7,0,2018,4,25,16,35,13.068,0.6962,0.2173,-0.6105,0.3087
-0.009,-0.761,0.339,-1.3,-49.4,-62.9,0,2018,4,25,16,35,13.07,0.6947,0.207,-0.615,0.31
-0.046,-0.781,0.268,-5.2,-36.6,-86,0,2018,4,25,16,35,13.105,0.6927,0.1931,-0.6196,0.3144
-0.128,-0.699,0.214,-12,-23.8,-105.3,0,2018,4,25,16,35,13.124,0.6892,0.1788,-0.6232,0.3233
-0.128,-0.647,0.1,-16.9,-10.5,-122.3,0,2018,4,25,16,35,13.129,0.6848,0.1634,-0.6257,0.3356
-0.108,-0.545,0,-20,-9.4,-136.5,0,2018,4,25,16,35,13.162,0.6793,0.1471,-0.6275,0.3506
-0.116,-0.47,-0.079,-21.3,-22.2,-151.9,0,2018,4,25,16,35,13.182,0.6729,0.1281,-0.6295,0.3665
-0.114,-0.396,-0.148,-20.8,-33.7,-166.3,0,2018,4,25,16,35,13.191,0.6654,0.1057,-0.6322,0.3824
-0.137,-0.332,-0.191,-18.5,-31.8,-179.2,0,2018,4,25,16,35,13.225,0.6563,0.0813,-0.6351,0.399
-0.161,-0.248,-0.226,-15.8,-22.6,-189,0,2018,4,25,16,35,13.244,0.6453,0.0565,-0.6373,0.4171
-0.207,-0.145,-0.241,-13.3,-13.4,-195,0,2018,4,25,16,35,13.251,0.6327,0.032,-0.6385,0.4368
-0.245,-0.027,-0.238,-13.2,-12.5,-196.7,0,2018,4,25,16,35,13.285,0.6189,0.0077,-0.6388,0.4569
-0.242,0.073,-0.22,-14.3,-19,-193.4,0,2018,4,25,16,35,13.309,0.6044,-0.0168,-0.6384,0.4761
-0.234,0.149,-0.24,-14.4,-25.1,-184.6,0,2018,4,25,16,35,13.313,0.5899,-0.0415,-0.6379,0.4932
-0.217,0.209,-0.249,-12.5,-25.1,-171,0,2018,4,25,16,35,13.332,0.5756,-0.065,-0.6371,0.5083
-0.19,0.256,-0.224,-10.1,-20.5,-155,0,2018,4,25,16,35,13.369,0.5619,-0.0865,-0.6359,0.5217
-0.148,0.299,-0.169,-8.9,-10.1,-137.9,0,2018,4,25,16,35,13.389,0.5492,-0.105,-0.634,0.534
-0.121,0.353,-0.162,-9.3,2.5,-118.3,0,2018,4,25,16,35,13.392,0.5381,-0.1203,-0.631,0.5456
-0.091,0.405,-0.166,-9.2,13.1,-97.1,0,2018,4,25,16,35,13.426,0.529,-0.1323,-0.6269,0.5563
-0.039,0.467,-0.131,-5.8,26.1,-56.6,0,2018,4,25,16,35,13.446,0.5166,-0.1466,-0.6178,0.5742
-0.042,0.487,-0.124,-4.6,32.4,-36.5,1023,2018,4,25,16,35,13.451,0.5132,-0.1494,-0.6132,0.5814
-0.066,0.502,-0.118,-4,37.5,-15.7,1023,2018,4,25,16,35,13.486,0.512,-0.1495,-0.6085,0.5874
-0.073,0.524,-0.127,-3.5,36.5,6.1,1023,2018,4,25,16,35,13.506,0.5129,-0.1469,-0.6042,0.5917
-0.082,0.523,-0.138,-2.3,23.3,28.2,1023,2018,4,25,16,35,13.51,0.5158,-0.1426,-0.6012,0.5932
-0.104,0.501,-0.153,-0.4,2.5,50,1023,2018,4,25,16,35,13.547,0.5204,-0.1375,-0.6007,0.591
-0.128,0.469,-0.146,1.6,-21.9,70.4,1023,2018,4,25,16,35,13.567,0.5263,-0.132,-0.6033,0.5843
-0.202,0.389,-0.142,1.8,-40.7,91.2,1023,2018,4,25,16,35,13.569,0.5336,-0.1262,-0.6086,0.5734
-0.327,0.294,-0.162,0,-49.2,114.5,1023,2018,4,25,16,35,13.604,0.5427,-0.1194,-0.6154,0.5588
-0.466,0.205,-0.193,-4.6,-54.4,139.5,1023,2018,4,25,16,35,13.623,0.5542,-0.1108,-0.6228,0.5409
-0.428,0.002,-0.175,-8.7,-14.1,173.4,0,2018,4,25,16,35,13.632,0.5835,-0.085,-0.6342,0.4999
-0.265,-0.007,-0.141,-5.5,21.9,175.3,0,2018,4,25,16,35,13.665,0.5994,-0.0657,-0.6354,0.4823
-0.1,0.024,-0.116,0,55.9,169.2,0,2018,4,25,16,35,13.686,0.6144,-0.0425,-0.6333,0.4684
0.015,0.077,-0.116,5.4,73.3,158,0,2018,4,25,16,35,13.695,0.6276,-0.017,-0.6291,0.4581
0.062,0.126,-0.139,10.3,69.1,147.9,0,2018,4,25,16,35,13.73,0.6388,0.0083,-0.6244,0.4492
-0.01,0.103,-0.151,12.2,49.7,143.1,0,2018,4,25,16,35,13.749,0.6486,0.0317,-0.6206,0.4394
-0.156,0.037,-0.146,9.5,26.6,144.8,0,2018,4,25,16,35,13.754,0.658,0.0523,-0.6179,0.427
-0.291,-0.035,-0.132,3.3,5.1,151.5,0,2018,4,25,16,35,13.79,0.6679,0.0705,-0.616,0.4114
-0.384,-0.111,-0.12,-4.3,-15.7,159.5,0,2018,4,25,16,35,13.812,0.679,0.0865,-0.6142,0.3925
-0.41,-0.13,-0.106,-10.5,-42.6,163.9,0,2018,4,25,16,35,13.814,0.6908,0.1001,-0.613,0.3699
-0.355,-0.244,0.016,-20.2,-70.7,163.3,0,2018,4,25,16,35,13.852,0.7033,0.1095,-0.6123,0.3439
-0.226,-0.219,0.041,-25.1,-82.9,154.5,0,2018,4,25,16,35,13.87,0.7164,0.1158,-0.6106,0.3168
-0.111,-0.264,-0.005,-32.2,-122.3,141.2,0,2018,4,25,16,35,13.875,0.7293,0.1163,-0.6095,0.2881
-0.025,-0.326,-0.006,-33.5,-145.7,122.5,0,2018,4,25,16,35,13.908,0.7418,0.1113,-0.6091,0.2574
0.04,-0.379,-0.025,-34.5,-157.3,101.7,0,2018,4,25,16,35,13.93,0.753,0.1018,-0.609,0.2272
0.081,-0.451,-0.046,-33.6,-149.8,82.1,0,2018,4,25,16,35,13.934,0.7626,0.0899,-0.6088,0.1992
0.103,-0.494,-0.085,-31.8,-130.3,66.1,0,2018,4,25,16,35,13.969,0.7705,0.0782,-0.6079,0.1749
0.103,-0.54,-0.113,-28,-106.4,55.2,0,2018,4,25,16,35,13.988,0.7768,0.0679,-0.6065,0.1546
0.102,-0.591,-0.096,-24.5,-76,48.1,0,2018,4,25,16,35,13.993,0.7819,0.0604,-0.6048,0.1382
0.096,-0.614,-0.078,-20.7,-42.9,43,0,2018,4,25,16,35,14.028,0.7859,0.0565,-0.6026,0.1261
0.104,-0.613,-0.052,-16.5,-15.2,38.4,0,2018,4,25,16,35,14.047,0.789,0.0563,-0.6002,0.1179
0.106,-0.609,-0.044,-12.8,7.1,32,0,2018,4,25,16,35,14.055,0.7913,0.0588,-0.5979,0.113
0.095,-0.601,-0.041,-9.9,21.7,22.9,1023,2018,4,25,16,35,14.093,0.7929,0.0632,-0.5957,0.1111
0.077,-0.599,-0.043,-8.5,29,11.1,1023,2018,4,25,16,35,14.112,0.7938,0.0679,-0.5938,0.1117
0.068,-0.6,-0.037,-8,31.3,-3.4,1023,2018,4,25,16,35,14.118,0.7944,0.072,-0.592,0.1145
0.049,-0.581,-0.044,-8,30.5,-20.1,1023,2018,4,25,16,35,14.151,0.7946,0.0746,-0.5903,0.1196
0.039,-0.56,-0.061,-7.1,28,-38.4,1023,2018,4,25,16,35,14.172,0.7944,0.0752,-0.589,0.1269
0.037,-0.522,-0.069,-5.5,25,-57.4,1023,2018,4,25,16,35,14.178,0.7936,0.0737,-0.5882,0.1364
0.027,-0.477,-0.089,-2.7,20.1,-75,1023,2018,4,25,16,35,14.212,0.7921,0.0701,-0.5879,0.148
-0.037,-0.469,-0.079,1.1,18.5,-89.8,1023,2018,4,25,16,35,14.232,0.7896,0.0644,-0.5883,0.1614
-0.119,-0.469,-0.075,4.6,27,-101.2,1023,2018,4,25,16,35,14.239,0.7863,0.0577,-0.5891,0.1768
-0.188,-0.455,-0.089,7.8,43.1,-109.2,1023,2018,4,25,16,35,14.272,0.7818,0.0518,-0.5898,0.1949
-0.216,-0.416,-0.101,10.3,60.5,-115.7,0,2018,4,25,16,35,14.294,0.7764,0.0477,-0.5902,0.2155
-0.185,-0.346,-0.119,11.4,72.6,-124.2,0,2018,4,25,16,35,14.298,0.77,0.0449,-0.59,0.2386
-0.132,-0.251,-0.149,12.5,78.4,-134.8,0,2018,4,25,16,35,14.337,0.7625,0.0423,-0.5892,0.2637
-0.136,-0.181,-0.175,14.5,73.7,-146.4,0,2018,4,25,16,35,14.356,0.7537,0.0386,-0.5883,0.2902
-0.226,-0.131,-0.206,15.9,54.9,-154.9,0,2018,4,25,16,35,14.359,0.7436,0.0324,-0.5878,0.3166
-0.385,-0.157,-0.235,16.1,40.6,-155.9,0,2018,4,25,16,35,14.393,0.7328,0.0232,-0.588,0.3413
-0.543,-0.215,-0.257,13.5,43.9,-152.6,0,2018,4,25,16,35,14.414,0.7216,0.0135,-0.5879,0.3651
-0.581,-0.2,-0.288,8.1,51.7,-148.7,0,2018,4,25,16,35,14.419,0.7105,0.0049,-0.5863,0.3889
-0.512,-0.118,-0.315,3.7,51.6,-148.7,0,2018,4,25,16,35,14.454,0.6995,-0.0033,-0.5834,0.4125
-0.399,0.003,-0.338,3.8,41.9,-154.5,0,2018,4,25,16,35,14.473,0.688,-0.0127,-0.5801,0.4356
-0.304,0.1,-0.348,7.5,32.7,-164,0,2018,4,25,16,35,14.475,0.6751,-0.024,-0.5774,0.4583
-0.241,0.165,-0.359,14.1,28,-172.8,0,2018,4,25,16,35,14.509,0.6603,-0.0366,-0.5754,0.4811
-0.209,0.212,-0.38,21.3,31.9,-177.1,0,2018,4,25,16,35,14.529,0.6436,-0.0494,-0.5736,0.5042
-0.2,0.254,-0.388,27.1,43.4,-174.8,0,2018,4,25,16,35,14.547,0.6256,-0.0607,-0.5712,0.5277
-0.216,0.292,-0.391,31.4,60.6,-166.6,0,2018,4,25,16,35,14.56,0.6072,-0.0693,-0.5675,0.5516
-0.224,0.344,-0.385,33.5,79.4,-153.2,0,2018,4,25,16,35,14.596,0.5891,-0.0745,-0.562,0.5757
-0.239,0.397,-0.384,33.7,93,-135.1,0,2018,4,25,16,35,14.614,0.5721,-0.0762,-0.5545,0.5993
-0.233,0.446,-0.39,32.7,98.4,-114,0,2018,4,25,16,35,14.619,0.557,-0.075,-0.5459,0.6213
-0.235,0.485,-0.383,31.4,94.5,-92,1023,2018,4,25,16,35,14.652,0.5439,-0.0719,-0.5369,0.6407
-0.229,0.51,-0.385,30.5,84.5,-69,1023,2018,4,25,16,35,14.673,0.5331,-0.0673,-0.5287,0.657
-0.217,0.522,-0.377,29.1,69.8,-45.9,1023,2018,4,25,16,35,14.681,0.5246,-0.062,-0.5218,0.6697
-0.217,0.517,-0.35,28.1,55.6,-23.9,1023,2018,4,25,16,35,14.718,0.5186,-0.056,-0.5168,0.6787
-0.218,0.503,-0.321,26.3,43,-4.3,1023,2018,4,25,16,35,14.72,0.515,-0.0496,-0.5133,0.6846
-0.163,0.489,-0.296,26,33.1,12.3,1023,2018,4,25,16,35,14.74,0.5136,-0.0427,-0.5111,0.6877
-0.101,0.479,-0.266,27.8,26.8,26.3,1023,2018,4,25,16,35,14.772,0.5138,-0.035,-0.5101,0.6888
-0.12,0.468,-0.243,30.3,20.6,41.9,1023,2018,4,25,16,35,14.795,0.5154,-0.0263,-0.5101,0.688
-0.176,0.44,-0.237,33.1,12.2,64.2,1023,2018,4,25,16,35,14.8,0.519,-0.0163,-0.5112,0.6848
-0.308,0.394,-0.222,35.6,2.6,92.7,1023,2018,4,25,16,35,14.838,0.5253,-0.0045,-0.5136,0.6783
-0.368,0.35,-0.184,36.3,-10.1,123.9,1023,2018,4,25,16,35,14.857,0.5348,0.0091,-0.5173,0.6679
-0.314,0.285,-0.11,36.9,-24.1,151.8,1023,2018,4,25,16,35,14.862,0.5476,0.0242,-0.5224,0.6531
-0.23,0.218,-0.036,36.6,-29.1,173.2,1023,2018,4,25,16,35,14.895,0.5627,0.0407,-0.5282,0.6344
-0.149,0.16,0.014,35.6,-28.5,186.7,1023,2018,4,25,16,35,14.916,0.5793,0.0585,-0.5334,0.6134
-0.072,0.097,0.032,35.3,-24.3,193.2,1023,2018,4,25,16,35,14.923,0.5965,0.0777,-0.5375,0.5909
-0.096,-0.033,0.011,36.3,-10.1,200.4,1023,2018,4,25,16,35,14.956,0.6299,0.1192,-0.5414,0.5438
-0.236,-0.122,0.011,36.3,-5,204.8,0,2018,4,25,16,35,14.976,0.6453,0.1412,-0.5418,0.5196
-0.363,-0.24,0.031,34.9,1.1,208.1,0,2018,4,25,16,35,14.985,0.6598,0.1636,-0.5412,0.4948
-0.434,-0.366,0.095,32.5,9.3,206.8,0,2018,4,25,16,35,15.018,0.674,0.1867,-0.5383,0.4701
-0.414,-0.471,0.151,29.6,16.9,195.7,0,2018,4,25,16,35,15.042,0.6867,0.2097,-0.534,0.4463
-0.29,-0.536,0.15,30,20.5,172.5,0,2018,4,25,16,35,15.046,0.6972,0.2314,-0.529,0.4246
-0.15,-0.587,0.135,33.5,24.2,140.6,0,2018,4,25,16,35,15.065,0.7047,0.2507,-0.5247,0.4062
-0.023,-0.652,0.142,39.1,37.7,103.9,0,2018,4,25,16,35,15.085,0.7085,0.2681,-0.5216,0.3922
0.069,-0.712,0.151,45.2,65.8,65.9,0,2018,4,25,16,35,15.122,0.7078,0.285,-0.5193,0.3845
0.119,-0.752,0.126,50.2,98.6,31.5,0,2018,4,25,16,35,15.141,0.7024,0.3027,-0.5173,0.3837
0.15,-0.754,0.107,53.1,127.6,4.2,0,2018,4,25,16,35,15.142,0.6926,0.3216,-0.515,0.3892
0.173,-0.742,0.091,54.7,154.4,-15.6,0,2018,4,25,16,35,15.177,0.679,0.3417,-0.5121,0.3996
0.182,-0.725,0.112,55.6,180.9,-28.4,0,2018,4,25,16,35,15.197,0.6621,0.3634,-0.5081,0.4139
0.161,-0.722,0.159,54.4,208.6,-36.2,0,2018,4,25,16,35,15.206,0.6417,0.3871,-0.5022,0.4312
0.122,-0.703,0.206,49.6,231.9,-40.3,0,2018,4,25,16,35,15.239,0.6184,0.4125,-0.4937,0.451
0.052,-0.681,0.237,41.1,242.2,-41.8,0,2018,4,25,16,35,15.261,0.5934,0.4381,-0.4824,0.4723
-0.038,-0.674,0.244,28.8,238.1,-42.9,0,2018,4,25,16,35,15.262,0.568,0.4618,-0.469,0.4939
-0.093,-0.676,0.215,13.3,234.7,-46.6,0,2018,4,25,16,35,15.297,0.5431,0.4828,-0.4538,0.5156
-0.127,-0.654,0.148,-2.7,235.1,-54.3,0,2018,4,25,16,35,15.316,0.5181,0.5008,-0.4369,0.5382
-0.155,-0.594,0.082,-17.4,232.5,-62.9,0,2018,4,25,16,35,15.328,0.4928,0.5157,-0.4185,0.562
-0.192,-0.519,0.064,-32.2,216.2,-70.1,0,2018,4,25,16,35,15.362,0.4673,0.5274,-0.3999,0.586
-0.205,-0.472,0.058,-45.5,186.7,-74.6,0,2018,4,25,16,35,15.383,0.4436,0.5344,-0.3824,0.6092
-0.202,-0.448,0.028,-58,143.8,-79.5,0,2018,4,25,16,35,15.385,0.4232,0.5362,-0.3679,0.6307
-0.189,-0.478,-0.038,-68.2,101.3,-86.3,1023,2018,4,25,16,35,15.42,0.4067,0.5326,-0.3575,0.6504
-0.185,-0.504,-0.113,-75.3,73.2,-95.6,1023,2018,4,25,16,35,15.44,0.3928,0.5246,-0.351,0.6687
-0.153,-0.506,-0.231,-78,56.2,-106.5,1023,2018,4,25,16,35,15.448,0.3797,0.5136,-0.3475,0.6864
-0.104,-0.479,-0.37,-76.7,40.5,-117.1,1023,2018,4,25,16,35,15.463,0.3665,0.5005,-0.3465,0.7035
-0.045,-0.52,-0.515,-68.8,42.4,-127.1,1023,2018,4,25,16,35,15.483,0.3523,0.4865,-0.3476,0.7199
-0.007,-0.512,-0.649,-55.8,63.1,-132.5,1023,2018,4,25,16,35,15.519,0.3352,0.4737,-0.3482,0.7361
-0.001,-0.481,-0.737,-40.9,93.7,-130.6,1023,2018,4,25,16,35,15.539,0.3144,0.464,-0.346,0.7523
-0.048,-0.441,-0.735,-29.1,116.5,-124.5,1023,2018,4,25,16,35,15.546,0.2909,0.4574,-0.3402,0.7683
-0.176,-0.405,-0.699,-22.2,117.3,-115.2,1023,2018,4,25,16,35,15.583,0.2667,0.4528,-0.3324,0.7831
-0.24,-0.392,-0.701,-18.2,104.7,-108.1,0,2018,4,25,16,35,15.601,0.2438,0.4486,-0.3249,0.796
-0.244,-0.334,-0.761,-11.6,87.6,-108.2,0,2018,4,25,16,35,15.608,0.2221,0.4444,-0.3191,0.8069
-0.251,-0.277,-0.788,-2.3,68.4,-117.1,0,2018,4,25,16,35,15.641,0.2006,0.4401,-0.3167,0.8159
-0.318,-0.251,-0.763,7.1,59.5,-130.6,0,2018,4,25,16,35,15.661,0.1779,0.4357,-0.3172,0.8232
-0.446,-0.208,-0.723,13.1,54.4,-144.9,0,2018,4,25,16,35,15.669,0.1531,0.4312,-0.3197,0.8296
-0.596,-0.149,-0.704,17,38.6,-157,0,2018,4,25,16,35,15.703,0.1267,0.426,-0.3245,0.8348
-0.7,-0.089,-0.691,22.3,12.5,-166.8,0,2018,4,25,16,35,15.723,0.0999,0.4201,-0.3332,0.8381
-0.712,-0.015,-0.661,31.8,-15.2,-175.5,0,2018,4,25,16,35,15.725,0.0734,0.4139,-0.3464,0.8386
-0.649,0.053,-0.615,46.1,-34.9,-184.2,0,2018,4,25,16,35,15.759,0.0466,0.4081,-0.3636,0.836
-0.579,0.102,-0.537,62.5,-38.8,-191.2,0,2018,4,25,16,35,15.779,0.0184,0.4036,-0.3828,0.8307
-0.504,0.156,-0.48,78.9,-25.6,-195.6,0,2018,4,25,16,35,15.786,-0.0121,0.4005,-0.4012,0.8236
-0.447,0.202,-0.452,94.9,-3.8,-195.6,0,2018,4,25,16,35,15.823,-0.0453,0.3991,-0.4166,0.8155
-0.391,0.262,-0.432,111.4,26.9,-191.8,0,2018,4,25,16,35,15.843,-0.0813,0.3993,-0.4273,0.807
-0.36,0.335,-0.402,125.8,57.1,-184.3,0,2018,4,25,16,35,15.848,-0.1196,0.4011,-0.4323,0.7986
-0.377,0.402,-0.372,136.1,83.6,-172.8,0,2018,4,25,16,35,15.883,-0.1593,0.4041,-0.4317,0.7904
-0.415,0.467,-0.343,142.2,103.4,-157.2,0,2018,4,25,16,35,15.902,-0.1992,0.4079,-0.4261,0.7825
-0.421,0.523,-0.316,145.2,113.6,-137.3,0,2018,4,25,16,35,15.909,-0.2376,0.4124,-0.4162,0.7746
-0.381,0.57,-0.291,146.2,112.9,-113.5,0,2018,4,25,16,35,15.942,-0.2731,0.418,-0.4034,0.7667
-0.347,0.593,-0.252,147.7,105.2,-86.9,0,2018,4,25,16,35,15.964,-0.3046,0.4251,-0.3888,0.7584
-0.321,0.589,-0.189,146.7,96.8,-59.2,0,2018,4,25,16,35,15.967,-0.3314,0.4341,-0.3728,0.75
-0.293,0.596,-0.148,143.9,91.6,-31.5,0,2018,4,25,16,35,16.003,-0.3537,0.4446,-0.3553,0.7422
-0.277,0.6,-0.14,141.1,82.9,-5,0,2018,4,25,16,35,16.022,-0.3714,0.4563,-0.3364,0.7352
-0.259,0.602,-0.143,138.9,71.3,19.4,1023,2018,4,25,16,35,16.029,-0.3846,0.4696,-0.3166,0.7288
-0.239,0.592,-0.138,137.2,59.5,42.2,1023,2018,4,25,16,35,16.063,-0.3934,0.4843,-0.2964,0.7229
-0.258,0.557,-0.085,134.9,50.5,64,1023,2018,4,25,16,35,16.084,-0.3981,0.5003,-0.2755,0.7177
