ax,ay,az,dpitch,droll,dyaw,heart,time_1,time_2,time_3,time_4,time_5,time_6,w,x,y,z
0.428,-0.57,0.825,-2.4,44.2,33.8,1023,2018,4,25,16,18,38.742,0.6671,-0.5859,0.4517,-0.0861
0.541,-0.223,0.76,-22,81.9,1.8,1023,2018,4,25,16,18,38.761,0.673,-0.5797,0.4493,-0.0948
0.56,-0.108,0.561,-34.4,26.1,-22.8,1023,2018,4,25,16,18,38.768,0.6756,-0.5736,0.452,-0.1
0.505,-0.066,0.374,-37.3,-34.7,-43.2,1023,2018,4,25,16,18,38.808,0.6716,-0.5735,0.4585,-0.098
0.307,-0.06,0.19,-34.9,-45.3,-57.1,1023,2018,4,25,16,18,38.826,0.6644,-0.5756,0.4677,-0.0916
0.095,-0.065,-0.092,-26.8,-29.4,-61.3,0,2018,4,25,16,18,38.83,0.6602,-0.5733,0.4782,-0.0812
-0.021,-0.056,-0.303,-16.1,-14.1,-61.3,0,2018,4,25,16,18,38.846,0.6566,-0.5717,0.4863,-0.0735
-0.144,-0.076,-0.426,-2.5,-6.4,-59,0,2018,4,25,16,18,38.865,0.6551,-0.5688,0.4927,-0.0661
-0.272,-0.07,-0.377,9.7,9.4,-53.4,0,2018,4,25,16,18,38.885,0.6554,-0.5657,0.4968,-0.0586
-0.335,0.037,-0.291,18.6,38.9,-44,0,2018,4,25,16,18,38.925,0.6589,-0.5604,0.4987,-0.0531
-0.381,0.161,-0.228,20,60.5,-30.2,0,2018,4,25,16,18,38.944,0.6652,-0.5533,0.4986,-0.0506
-0.43,0.248,-0.124,15.5,66.6,-10.3,0,2018,4,25,16,18,38.948,0.6722,-0.5466,0.4966,-0.0511
-0.427,0.336,-0.003,5,53.1,12.9,0,2018,4,25,16,18,38.969,0.6785,-0.5407,0.4942,-0.0534
-0.418,0.378,0.094,-14.1,14.7,39.5,0,2018,4,25,16,18,38.99,0.6801,-0.5412,0.4909,-0.0591
-0.421,0.371,0.144,-34.1,-13.7,69.5,0,2018,4,25,16,18,39.027,0.6762,-0.5481,0.4875,-0.0671
-0.436,0.37,0.13,-51.3,-18,101.4,0,2018,4,25,16,18,39.032,0.6689,-0.559,0.4835,-0.0791
-0.44,0.406,0.214,-68.2,-6.7,136.1,0,2018,4,25,16,18,39.049,0.6601,-0.5711,0.478,-0.0972
-0.44,0.398,0.311,-86.3,25.3,172.6,0,2018,4,25,16,18,39.069,0.6512,-0.5825,0.4705,-0.123
-0.427,0.38,0.318,-103,78.3,211.9,0,2018,4,25,16,18,39.088,0.6439,-0.5903,0.4599,-0.1586
-0.411,0.358,0.126,-108,151.7,254.6,0,2018,4,25,16,18,39.123,0.64,-0.5921,0.4444,-0.2053
-0.404,0.546,0.025,-100.2,155.8,288.2,0,2018,4,25,16,18,39.143,0.6382,-0.5891,0.4218,-0.2599
-0.385,0.594,0.042,-105.4,20.3,311.1,0,2018,4,25,16,18,39.147,0.6246,-0.5948,0.3986,-0.3113
-0.323,0.211,-0.052,-119.3,-43,325.2,0,2018,4,25,16,18,39.187,0.5933,-0.613,0.3805,-0.3566
-0.152,-0.489,-0.104,-97.1,223.4,344.8,0,2018,4,25,16,18,39.209,0.57,-0.619,0.3513,-0.4103
-0.122,-0.401,-0.302,-28.6,459.6,337.1,0,2018,4,25,16,18,39.213,0.5772,-0.5964,0.2927,-0.4747
-0.1,-0.066,-0.128,25.6,332.5,306.9,0,2018,4,25,16,18,39.227,0.5885,-0.5696,0.2237,-0.5282
-0.088,-0.341,-0.08,48.1,229.4,285.3,0,2018,4,25,16,18,39.249,0.5853,-0.5567,0.1651,-0.5657
-0.159,-0.7,-0.111,66.3,308.1,265.1,0,2018,4,25,16,18,39.269,0.5816,-0.5434,0.1057,-0.596
-0.101,-0.607,-0.046,100.8,380.1,224.4,1023,2018,4,25,16,18,39.289,0.5878,-0.5194,0.0355,-0.6191
-0.298,-0.267,-0.01,119.4,320,179.5,1023,2018,4,25,16,18,39.309,0.5958,-0.4961,-0.0338,-0.6305
-0.427,-0.315,0.226,109.7,234.5,135.8,1023,2018,4,25,16,18,39.348,0.5997,-0.479,-0.0903,-0.6344
-0.325,-0.349,0.409,92.5,172.8,100.6,1023,2018,4,25,16,18,39.369,0.6014,-0.4668,-0.1327,-0.6345
-0.21,-0.441,0.428,74.7,104.2,76.2,1023,2018,4,25,16,18,39.373,0.6028,-0.4579,-0.16,-0.6334
-0.1,-0.345,0.307,61.4,69.8,61,1023,2018,4,25,16,18,39.392,0.6024,-0.4531,-0.1774,-0.6326
-0.108,-0.145,0.388,50.4,23.7,45.9,1023,2018,4,25,16,18,39.413,0.601,-0.4503,-0.1891,-0.6325
-0.039,-0.112,0.256,36.2,-22.7,33.4,1023,2018,4,25,16,18,39.431,0.5975,-0.4514,-0.1925,-0.634
0.022,-0.107,0.092,32.7,-40.7,22.6,1023,2018,4,25,16,18,39.471,0.5931,-0.4555,-0.1906,-0.6358
0.055,-0.112,-0.065,35.2,-49.3,17.5,1023,2018,4,25,16,18,39.491,0.5884,-0.4619,-0.1868,-0.6367
0.086,-0.064,-0.084,38.8,-22.9,17.7,1023,2018,4,25,16,18,39.495,0.5819,-0.4691,-0.1885,-0.6369
0.08,0.042,-0.043,39.9,-4.6,19.9,1023,2018,4,25,16,18,39.513,0.5799,-0.4724,-0.1889,-0.6361
0.027,-0.114,0.205,28.5,6.8,24.9,0,2018,4,25,16,18,39.53,0.5788,-0.473,-0.1909,-0.6361
-0.003,-0.218,0.488,7.7,33.4,12.4,0,2018,4,25,16,18,39.57,0.5784,-0.4715,-0.196,-0.6361
-0.002,0,0.372,-12.2,-11,6.5,0,2018,4,25,16,18,39.59,0.5784,-0.4696,-0.1981,-0.6367
0.049,0.001,0.044,-17.7,-38.6,8,0,2018,4,25,16,18,39.594,0.5769,-0.4692,-0.1923,-0.6402
0.056,0.046,-0.139,-11.3,-38,10,0,2018,4,25,16,18,39.612,0.5752,-0.4696,-0.1839,-0.6439
0.018,0.048,-0.157,-1.6,-25.7,9.8,0,2018,4,25,16,18,39.63,0.5732,-0.4709,-0.1777,-0.6465
-0.033,-0.013,-0.092,6.3,-12.2,6.7,0,2018,4,25,16,18,39.667,0.5722,-0.4719,-0.174,-0.6476
-0.048,-0.058,0.016,10.1,-5.7,2.6,0,2018,4,25,16,18,39.69,0.5724,-0.4726,-0.1716,-0.6476
-0.046,0.004,0.103,7,-9.8,-2.9,0,2018,4,25,16,18,39.694,0.5732,-0.4728,-0.1692,-0.6474
0.002,0.034,0.098,3.9,-32.1,-4.8,0,2018,4,25,16,18,39.713,0.5735,-0.4732,-0.165,-0.6479
0.005,0.005,0.176,4.6,-83.7,-8.1,0,2018,4,25,16,18,39.733,0.571,-0.4772,-0.1563,-0.6493
-0.066,0.213,0.389,-3,-190.5,-16.5,0,2018,4,25,16,18,39.751,0.5606,-0.4907,-0.1409,-0.6518
-0.29,-0.185,0.368,-35,-353.7,-39,0,2018,4,25,16,18,39.772,0.5382,-0.5167,-0.1052,-0.6574
-0.223,-0.952,0.187,-53.4,-283.8,-74.2,0,2018,4,25,16,18,39.808,0.5144,-0.5422,-0.0574,-0.6617
-0.117,-0.43,0.151,-53.7,-264,-111.9,0,2018,4,25,16,18,39.828,0.5004,-0.5597,-0.0135,-0.6603
-0.019,-0.126,0.022,-54,-374.6,-145.4,0,2018,4,25,16,18,39.833,0.4846,-0.5797,0.0428,-0.6535
0.081,-0.739,-0.329,-40.5,-376.5,-181,0,2018,4,25,16,18,39.87,0.4604,-0.6051,0.1088,-0.6403
0.114,-0.82,-0.264,-11.8,-244.8,-202.7,0,2018,4,25,16,18,39.889,0.4467,-0.6222,0.1642,-0.6214
-0.007,-0.502,-0.095,6.1,-173.2,-216.9,0,2018,4,25,16,18,39.894,0.4458,-0.6311,0.2092,-0.5992
-0.016,-0.154,-0.13,26.2,-157.3,-231.4,0,2018,4,25,16,18,39.934,0.4521,-0.636,0.2516,-0.5724
-0.017,-0.095,-0.246,48.3,-169.6,-238.1,0,2018,4,25,16,18,39.952,0.4574,-0.6418,0.2916,-0.5419
-0.113,-0.121,-0.22,68.3,-167.8,-236.2,0,2018,4,25,16,18,39.956,0.4615,-0.6481,0.3286,-0.5088
-0.195,-0.023,-0.161,88.3,-178.2,-232.3,0,2018,4,25,16,18,39.974,0.4646,-0.6548,0.3635,-0.4722
-0.218,-0.036,-0.121,110,-150.9,-221.3,1023,2018,4,25,16,18,39.994,0.4681,-0.6614,0.3944,-0.4333
-0.217,0.074,-0.001,126.6,-108.8,-206.8,1023,2018,4,25,16,18,40.015,0.4745,-0.6657,0.4192,-0.3947
-0.223,0.135,-0.026,139.7,-73.2,-193.2,1023,2018,4,25,16,18,40.035,0.4855,-0.6666,0.4371,-0.3586
-0.156,0.056,-0.033,151.1,-70.2,-179.6,1023,2018,4,25,16,18,40.07,0.4976,-0.667,0.451,-0.3224
-0.034,-0.059,0.153,155.3,-65.2,-174.5,1023,2018,4,25,16,18,40.091,0.5109,-0.6659,0.4627,-0.2851
0.033,-0.108,0.287,154.5,-46.3,-172.2,1023,2018,4,25,16,18,40.095,0.523,-0.6639,0.4726,-0.2493
0.077,-0.097,0.183,151.6,-12.5,-175.9,1023,2018,4,25,16,18,40.116,0.5376,-0.6579,0.4811,-0.2158
-0.044,-0.02,0.147,146.2,26.1,-179.8,1023,2018,4,25,16,18,40.135,0.556,-0.6462,0.4886,-0.1855
-0.131,0.056,0.137,134.3,54.2,-179.8,1023,2018,4,25,16,18,40.176,0.5768,-0.6298,0.4955,-0.158
-0.247,0.177,0.098,112,76.5,-176.5,1023,2018,4,25,16,18,40.194,0.5988,-0.6096,0.5018,-0.1337
-0.4,0.221,0.028,85.6,81.9,-167.3,1023,2018,4,25,16,18,40.198,0.6203,-0.5864,0.5085,-0.1122
-0.512,0.275,-0.098,61.5,68.7,-151.3,1023,2018,4,25,16,18,40.236,0.6385,-0.564,0.5153,-0.0924
-0.632,0.259,-0.26,40.8,41.3,-128.2,1023,2018,4,25,16,18,40.257,0.6502,-0.5471,0.5214,-0.076
-0.715,0.285,-0.213,21.2,18,-100.6,0,2018,4,25,16,18,40.261,0.6564,-0.5359,0.5272,-0.0619
-0.742,0.296,-0.215,2.7,-1,-69.8,0,2018,4,25,16,18,40.277,0.6581,-0.5294,0.5327,-0.0511
-0.686,0.295,-0.271,-7.8,-5.7,-36.1,0,2018,4,25,16,18,40.295,0.6568,-0.5274,0.5369,-0.0442
-0.607,0.337,-0.31,-9.9,3.1,-0.3,0,2018,4,25,16,18,40.315,0.6549,-0.5284,0.5385,-0.042
-0.483,0.318,-0.338,-8.3,9.1,34.1,0,2018,4,25,16,18,40.353,0.6537,-0.5317,0.5366,-0.0447
-0.308,0.237,-0.171,-8,10.9,63.1,0,2018,4,25,16,18,40.373,0.6526,-0.5373,0.5316,-0.0512
-0.064,0.176,-0.027,-9.5,5.1,80.5,0,2018,4,25,16,18,40.377,0.6517,-0.544,0.525,-0.0594
0.212,0.074,0.113,-11.9,-31.8,83.7,0,2018,4,25,16,18,40.4,0.6492,-0.5527,0.5182,-0.0657
0.458,-0.091,0.277,-13.9,-67.8,73.4,0,2018,4,25,16,18,40.42,0.6413,-0.5676,0.5114,-0.0702
0.648,-0.241,0.469,-11.6,-64.5,49.8,0,2018,4,25,16,18,40.458,0.632,-0.5816,0.5069,-0.0719
0.694,-0.283,0.611,-6.9,-34.5,17.8,0,2018,4,25,16,18,40.476,0.6254,-0.591,0.5043,-0.0716
0.634,-0.359,0.55,-2.7,6.1,-14,0,2018,4,25,16,18,40.481,0.6233,-0.5935,0.504,-0.0704
0.474,-0.361,0.344,-2.1,35.9,-41.2,0,2018,4,25,16,18,40.495,0.6257,-0.5891,0.5065,-0.0692
0.256,-0.343,0.118,-4.1,39.2,-62.2,0,2018,4,25,16,18,40.535,0.63,-0.5808,0.511,-0.0669
0.097,-0.237,-0.024,-7.5,22.8,-76.7,0,2018,4,25,16,18,40.555,0.6351,-0.5697,0.5179,-0.0599
-0.052,-0.161,-0.134,-8.8,1.4,-85.7,0,2018,4,25,16,18,40.56,0.6361,-0.5617,0.5263,-0.0522
-0.215,-0.113,-0.252,-5.5,5.2,-85.6,0,2018,4,25,16,18,40.578,0.6356,-0.5553,0.5345,-0.0426
-0.311,-0.028,-0.397,4.7,26.2,-77.5,0,2018,4,25,16,18,40.614,0.637,-0.5477,0.5413,-0.0341
-0.433,0.13,-0.388,15.2,50,-62.2,0,2018,4,25,16,18,40.635,0.6416,-0.5384,0.5455,-0.0284
-0.495,0.213,-0.364,22.3,54.4,-42.1,0,2018,4,25,16,18,40.643,0.6479,-0.5295,0.5469,-0.0251
-0.531,0.29,-0.319,24.4,45.5,-18.9,0,2018,4,25,16,18,40.662,0.6541,-0.5231,0.5457,-0.0235
-0.497,0.322,-0.28,24.1,29.8,8.9,1023,2018,4,25,16,18,40.68,0.659,-0.5209,0.5419,-0.0233
-0.395,0.295,-0.144,19.2,17.8,37.1,1023,2018,4,25,16,18,40.701,0.6621,-0.5231,0.5359,-0.0252
-0.324,0.344,0.019,6.1,-1.8,61.9,1023,2018,4,25,16,18,40.719,0.6629,-0.5293,0.5286,-0.0298
-0.308,0.269,0.102,-12.7,-30.1,84.3,1023,2018,4,25,16,18,40.738,0.6597,-0.5401,0.5212,-0.0364
-0.32,0.238,0.13,-30.7,-50.2,106.4,1023,2018,4,25,16,18,40.778,0.6521,-0.5556,0.5137,-0.0447
-0.257,0.121,0.209,-49.1,-45.8,127.8,1023,2018,4,25,16,18,40.797,0.642,-0.573,0.5061,-0.0569
-0.168,-0.053,0.303,-71.1,-19,140.8,1023,2018,4,25,16,18,40.802,0.6313,-0.5888,0.499,-0.0748
-0.135,0.092,0.369,-90.8,-7.5,150.8,1023,2018,4,25,16,18,40.822,0.6208,-0.6018,0.4925,-0.0981
-0.149,0.136,0.309,-101.8,25.1,165.2,1023,2018,4,25,16,18,40.84,0.6101,-0.6128,0.4861,-0.1259
-0.183,0.23,0.202,-103.2,64,187,1023,2018,4,25,16,18,40.881,0.602,-0.6198,0.4772,-0.1598
-0.219,0.257,0.186,-101.6,106,214.5,1023,2018,4,25,16,18,40.885,0.5964,-0.6235,0.4642,-0.1998
-0.197,0.314,0.231,-99.2,127.6,240,1023,2018,4,25,16,18,40.903,0.592,-0.6244,0.4465,-0.2453
-0.149,0.294,0.293,-92.6,159.2,265.1,0,2018,4,25,16,18,40.924,0.5869,-0.6237,0.4237,-0.2946
-0.11,0.153,0.155,-73.1,231.3,286.9,0,2018,4,25,16,18,40.944,0.5849,-0.6184,0.3925,-0.3482
-0.091,0,-0.09,-39.3,280.6,297.3,0,2018,4,25,16,18,40.979,0.5902,-0.6047,0.3518,-0.4026
-0.091,0.105,-0.037,-21,196.1,297.1,0,2018,4,25,16,18,40.983,0.5913,-0.5933,0.3083,-0.4506
-0.026,-0.414,-0.132,-10,258.1,299.9,0,2018,4,25,16,18,41,0.5857,-0.5856,0.2643,-0.494
0.021,-0.432,-0.275,38.9,450.9,287.5,0,2018,4,25,16,18,41.038,0.5944,-0.561,0.1991,-0.5405
-0.071,-0.14,-0.185,89,433.5,255.7,0,2018,4,25,16,18,41.059,0.6111,-0.5274,0.1205,-0.5776
-0.245,-0.087,0.011,102.2,303,218.9,0,2018,4,25,16,18,41.063,0.6187,-0.5031,0.0502,-0.6012
-0.258,-0.021,-0.021,111.1,235.8,189.2,0,2018,4,25,16,18,41.084,0.6187,-0.4874,-0.0082,-0.6159
-0.277,-0.232,-0.095,116.6,196.2,162,0,2018,4,25,16,18,41.104,0.616,-0.4761,-0.0598,-0.6246
-0.301,-0.505,0.138,120.8,162.8,135.1,0,2018,4,25,16,18,41.124,0.612,-0.4684,-0.1056,-0.6283
-0.34,-0.309,0.364,109.3,112.5,112.4,0,2018,4,25,16,18,41.144,0.6073,-0.4635,-0.143,-0.629
-0.312,-0.159,0.279,89.6,48,91.8,0,2018,4,25,16,18,41.165,0.6011,-0.4619,-0.1683,-0.6299
-0.184,-0.243,0.093,74.8,6.9,72.9,0,2018,4,25,16,18,41.201,0.5935,-0.4646,-0.1827,-0.6311
-0.096,-0.25,0.018,69.3,-3,59.2,0,2018,4,25,16,18,41.205,0.5839,-0.4703,-0.1955,-0.6321
-0.092,-0.17,-0.068,65,9.5,50.2,0,2018,4,25,16,18,41.221,0.5755,-0.4757,-0.207,-0.632
-0.039,-0.029,0.142,66.9,27.8,29.2,0,2018,4,25,16,18,41.256,0.5721,-0.4774,-0.2202,-0.6294
0.053,-0.436,1.037,14.4,-65.7,26.6,0,2018,4,25,16,18,41.277,0.5655,-0.4828,-0.2234,-0.63
-0.034,-0.262,0.944,-9.9,-79.8,19,0,2018,4,25,16,18,41.284,0.5568,-0.4891,-0.2171,-0.6351
0.105,-0.089,0.223,-27,-94.2,18.4,0,2018,4,25,16,18,41.303,0.5479,-0.4945,-0.2068,-0.6421
0.09,-0.04,-0.195,-22.1,-86.4,14.2,0,2018,4,25,16,18,41.324,0.5389,-0.5,-0.1955,-0.649
0.109,0.032,-0.292,-14.5,-54.4,12.5,0,2018,4,25,16,18,41.361,0.5318,-0.5039,-0.1869,-0.6544
0.033,0.04,-0.223,-0.3,-16.3,9.8,1023,2018,4,25,16,18,41.381,0.5276,-0.506,-0.1833,-0.6571
-0.005,0.03,-0.068,8,6.1,7.6,1023,2018,4,25,16,18,41.385,0.528,-0.5057,-0.1817,-0.6575
-0.032,-0.043,0.089,7.7,7,4.5,1023,2018,4,25,16,18,41.424,0.5302,-0.5041,-0.1803,-0.6573
-0.043,-0.019,0.156,1.9,-3.2,1.6,1023,2018,4,25,16,18,41.443,0.5324,-0.5022,-0.1778,-0.6577
-0.019,0.001,0.11,-1.7,-21.9,-0.7,1023,2018,4,25,16,18,41.447,0.5336,-0.5012,-0.173,-0.6587
-0.013,-0.035,0.145,-1.4,-44.4,-3.1,1023,2018,4,25,16,18,41.464,0.5334,-0.502,-0.1658,-0.6602
-0.061,0.117,0.439,-8,-144.6,-14,1023,2018,4,25,16,18,41.484,0.5278,-0.5087,-0.1539,-0.6624
-0.199,0.009,0.45,-36.3,-357.7,-32.9,1023,2018,4,25,16,18,41.504,0.5077,-0.53,-0.1197,-0.6685
-0.22,-0.96,0.189,-53.9,-334.6,-60.7,1023,2018,4,25,16,18,41.526,0.4795,-0.5563,-0.0663,-0.6753
-0.267,-0.529,0.109,-52.4,-297.5,-106.8,1023,2018,4,25,16,18,41.546,0.4607,-0.5753,-0.0178,-0.6755
-0.109,-0.31,0.075,-56.3,-393.6,-146.3,1023,2018,4,25,16,18,41.568,0.4427,-0.5947,0.0433,-0.6695
0.073,-0.311,-0.113,-35.8,-484.3,-188.6,1023,2018,4,25,16,18,41.588,0.4163,-0.6197,0.1199,-0.6543
0.214,-1.051,-0.59,8.1,-381.9,-219.6,1023,2018,4,25,16,18,41.623,0.3898,-0.6436,0.1937,-0.6294
0.091,-1.055,-0.606,54.9,-213.1,-236.7,0,2018,4,25,16,18,41.644,0.3826,-0.6579,0.2486,-0.599
-0.09,-0.744,-0.275,88.9,-55,-249.5,0,2018,4,25,16,18,41.648,0.3966,-0.6626,0.2858,-0.5673
-0.186,-0.186,-0.09,104.7,2.3,-265.8,0,2018,4,25,16,18,41.687,0.4262,-0.6592,0.3117,-0.5353
-0.234,-0.111,-0.187,115.4,-45.4,-279.9,0,2018,4,25,16,18,41.707,0.4551,-0.655,0.3362,-0.5006
-0.213,-0.143,-0.157,130.1,-103.7,-285.7,0,2018,4,25,16,18,41.711,0.4776,-0.6543,0.365,-0.4587
-0.152,-0.052,-0.03,145.3,-130.2,-283.1,0,2018,4,25,16,18,41.725,0.4944,-0.6562,0.3952,-0.4106
-0.122,0.034,0.059,155.2,-99.7,-274.6,0,2018,4,25,16,18,41.762,0.512,-0.6555,0.4234,-0.3588
-0.114,0.17,0.016,155.6,-38.3,-265.3,0,2018,4,25,16,18,41.783,0.5341,-0.6485,0.4453,-0.3093
-0.264,0.2,0.026,149.3,-1.4,-259.2,0,2018,4,25,16,18,41.787,0.5587,-0.6358,0.4621,-0.2644
-0.391,0.313,0.214,133.1,-0.2,-255.6,0,2018,4,25,16,18,41.823,0.5818,-0.6203,0.4762,-0.2234
-0.457,0.217,0.149,113.5,-9.3,-249.5,0,2018,4,25,16,18,41.842,0.6005,-0.6039,0.4907,-0.1836
-0.573,0.239,0.077,91.7,-6.8,-237,0,2018,4,25,16,18,41.845,0.6154,-0.5867,0.5054,-0.1464
-0.676,0.267,0.032,73.1,10.3,-215.5,0,2018,4,25,16,18,41.883,0.6279,-0.5681,0.5195,-0.1136
-0.754,0.326,-0.009,55.3,26.2,-184.6,0,2018,4,25,16,18,41.903,0.6392,-0.5485,0.5317,-0.0872
-0.772,0.341,-0.109,41.9,28.7,-145.3,0,2018,4,25,16,18,41.91,0.6486,-0.5306,0.5415,-0.0669
-0.757,0.426,-0.138,32.7,23.9,-98,0,2018,4,25,16,18,41.927,0.6558,-0.5164,0.5481,-0.0522
-0.678,0.364,-0.182,29,23.7,-47.2,0,2018,4,25,16,18,41.966,0.6612,-0.5073,0.5508,-0.0435
-0.573,0.37,-0.148,25.8,29.4,-1.8,0,2018,4,25,16,18,41.986,0.6666,-0.502,0.5494,-0.0412
-0.459,0.295,0.019,21.1,7.3,36.1,0,2018,4,25,16,18,41.99,0.6703,-0.5017,0.5449,-0.0431
-0.253,0.19,0.186,15,-21.3,62.7,0,2018,4,25,16,18,42.008,0.671,-0.5076,0.5383,-0.0468
0.026,0.138,0.314,2.1,-47.2,75.7,0,2018,4,25,16,18,42.045,0.668,-0.5184,0.5312,-0.051
0.261,0.06,0.331,-11.6,-60,76.2,0,2018,4,25,16,18,42.066,0.6618,-0.5318,0.5253,-0.0554
0.509,-0.115,0.528,-17.6,-53,62.6,0,2018,4,25,16,18,42.07,0.6541,-0.5449,0.5211,-0.0595
0.72,-0.15,0.57,-20.8,-21.9,33.6,1023,2018,4,25,16,18,42.108,0.6483,-0.5532,0.5191,-0.0636
0.668,-0.194,0.373,-21.5,-9.8,-1.5,1023,2018,4,25,16,18,42.13,0.6449,-0.5559,0.5202,-0.0662
0.484,-0.237,0.169,-17.7,-7.6,-32.1,1023,2018,4,25,16,18,42.134,0.6428,-0.5544,0.5244,-0.0646
0.241,-0.203,0.034,-12.8,18.6,-50.1,1023,2018,4,25,16,18,42.152,0.6444,-0.5472,0.5307,-0.0592
0.041,-0.188,-0.119,-9.7,45.5,-58.8,1023,2018,4,25,16,18,42.174,0.6482,-0.5366,0.5373,-0.0558
-0.045,-0.119,-0.27,-9.9,37.7,-64,1023,2018,4,25,16,18,42.188,0.652,-0.5256,0.5437,-0.0539
-0.178,0.034,-0.375,-7.1,-2.1,-63.8,1023,2018,4,25,16,18,42.21,0.6533,-0.5173,0.5505,-0.0491
-0.352,0.043,-0.457,3.8,-20.6,-51.8,1023,2018,4,25,16,18,42.229,0.6522,-0.5133,0.5561,-0.0411
-0.438,0.162,-0.478,22,-3.2,-31.2,1023,2018,4,25,16,18,42.25,0.6526,-0.5109,0.5584,-0.0339
-0.48,0.294,-0.413,36,12.9,-5.3,1023,2018,4,25,16,18,42.268,0.6561,-0.5086,0.5566,-0.0298
-0.478,0.359,-0.333,44.6,6,22.6,1023,2018,4,25,16,18,42.308,0.6611,-0.5084,0.5509,-0.0283
-0.372,0.322,-0.157,43.3,-22.2,47.4,1023,2018,4,25,16,18,42.328,0.6646,-0.5129,0.5425,-0.0277
-0.237,0.264,-0.012,28.7,-63.6,65,0,2018,4,25,16,18,42.332,0.6637,-0.5236,0.5333,-0.027
-0.021,0.08,0.211,11.6,-92.8,69.2,0,2018,4,25,16,18,42.369,0.6577,-0.5394,0.5251,-0.0256
0.225,-0.1,0.482,-4.6,-82,58.2,0,2018,4,25,16,18,42.389,0.649,-0.5557,0.5189,-0.0244
0.453,-0.241,0.553,-16.5,-42.4,35.1,0,2018,4,25,16,18,42.391,0.6416,-0.567,0.5159,-0.0251
0.487,-0.286,0.472,-26.6,5.6,7.3,0,2018,4,25,16,18,42.43,0.6382,-0.5702,0.5163,-0.0284
0.422,-0.333,0.323,-32.8,13.5,-20.7,0,2018,4,25,16,18,42.432,0.6366,-0.5681,0.5204,-0.0316
0.287,-0.334,0.159,-34.5,11.6,-44.5,0,2018,4,25,16,18,42.449,0.6349,-0.5635,0.5274,-0.0323
0.1,-0.224,0.028,-32.4,23.9,-59.9,0,2018,4,25,16,18,42.469,0.6345,-0.5557,0.5363,-0.0308
-0.047,-0.143,-0.101,-26.9,39.8,-63.4,0,2018,4,25,16,18,42.492,0.6359,-0.545,0.5456,-0.0285
-0.144,-0.044,-0.23,-18,56.3,-57.3,0,2018,4,25,16,18,42.511,0.6387,-0.5335,0.5536,-0.0286
-0.208,0.044,-0.301,-8.1,60,-47.3,0,2018,4,25,16,18,42.531,0.6432,-0.5217,0.5595,-0.0298
-0.254,0.152,-0.329,2.2,54.2,-33.9,0,2018,4,25,16,18,42.571,0.6484,-0.5112,0.5632,-0.0311
-0.291,0.253,-0.322,12.5,42.9,-17,0,2018,4,25,16,18,42.592,0.6535,-0.5032,0.5643,-0.0323
-0.292,0.275,-0.308,22.9,32,3.7,0,2018,4,25,16,18,42.596,0.6586,-0.4985,0.5625,-0.0337
-0.201,0.296,-0.26,29,16.5,22.4,0,2018,4,25,16,18,42.615,0.6633,-0.4971,0.5581,-0.0354
-0.107,0.294,-0.218,28.1,-11.6,36.7,0,2018,4,25,16,18,42.634,0.6662,-0.4999,0.5521,-0.0366
-0.075,0.214,-0.117,20.5,-40.2,46.3,0,2018,4,25,16,18,42.652,0.6658,-0.5073,0.5457,-0.0367
-0.047,0.038,0.126,8.3,-48.5,50.6,0,2018,4,25,16,18,42.69,0.6642,-0.5152,0.5404,-0.0347
0.092,-0.02,0.268,-6.4,-54.6,46.1,0,2018,4,25,16,18,42.709,0.6593,-0.5257,0.5362,-0.0356
0.266,-0.08,0.367,-18.3,-67.1,29.8,0,2018,4,25,16,18,42.713,0.6521,-0.5363,0.5346,-0.0354
0.393,-0.16,0.495,-28,-64.4,8.2,0,2018,4,25,16,18,42.752,0.6434,-0.5455,0.5359,-0.0334
0.424,-0.174,0.486,-34,-37.9,-13.7,0,2018,4,25,16,18,42.773,0.6356,-0.5507,0.54,-0.0313
0.348,-0.147,0.31,-33,-15,-31.1,1023,2018,4,25,16,18,42.777,0.63,-0.5511,0.5462,-0.0296
0.203,-0.132,0.105,-26,0.5,-41.3,1023,2018,4,25,16,18,42.796,0.6277,-0.547,0.5531,-0.0268
0.067,-0.074,-0.047,-17.1,18.8,-42.9,1023,2018,4,25,16,18,42.816,0.6284,-0.5394,0.5599,-0.0227
-0.058,-0.02,-0.144,-9.2,35.8,-38.4,1023,2018,4,25,16,18,42.836,0.6305,-0.5309,0.5657,-0.0205
-0.18,0.01,-0.27,-1.8,43,-29.2,1023,2018,4,25,16,18,42.855,0.6338,-0.5231,0.5692,-0.0213
-0.271,0.052,-0.324,5.3,35.6,-17.2,1023,2018,4,25,16,18,42.894,0.6377,-0.5163,0.571,-0.0226
-0.341,0.116,-0.347,13.4,20.7,-3,1023,2018,4,25,16,18,42.914,0.6412,-0.5123,0.5707,-0.0234
-0.36,0.16,-0.325,22.7,12.8,13.7,1023,2018,4,25,16,18,42.919,0.6444,-0.5111,0.5681,-0.0239
-0.313,0.181,-0.292,28.5,10,31.2,1023,2018,4,25,16,18,42.935,0.6479,-0.5122,0.5631,-0.0253
-0.254,0.195,-0.224,30,3.6,46,1023,2018,4,25,16,18,42.955,0.6513,-0.5153,0.5562,-0.0278
-0.221,0.172,-0.078,30.2,-3.4,59.6,1023,2018,4,25,16,18,42.974,0.6539,-0.5205,0.548,-0.031
-0.11,0.093,0.075,27.2,-9.1,68.6,1023,2018,4,25,16,18,42.994,0.6572,-0.5251,0.5396,-0.0325
0.094,-0.002,0.236,16.7,-19,68.8,0,2018,4,25,16,18,43.015,0.6579,-0.5329,0.5307,-0.0368
0.313,-0.048,0.34,0.6,-26.9,57.5,0,2018,4,25,16,18,43.056,0.656,-0.5415,0.524,-0.0412
0.37,-0.105,0.389,-12.2,-29.9,39.6,0,2018,4,25,16,18,43.076,0.6522,-0.5493,0.5203,-0.0446
0.401,-0.138,0.39,-19.8,-19.5,19.8,0,2018,4,25,16,18,43.08,0.648,-0.5548,0.5196,-0.0472
0.402,-0.159,0.326,-22.7,-4.6,-0.5,0,2018,4,25,16,18,43.097,0.6449,-0.5567,0.5212,-0.0493
0.368,-0.122,0.173,-22.2,-3,-20,0,2018,4,25,16,18,43.134,0.6426,-0.5558,0.5248,-0.05
0.247,-0.113,0.025,-18.1,-8.7,-36.7,0,2018,4,25,16,18,43.154,0.642,-0.5514,0.5306,-0.0459
0.106,-0.108,-0.086,-10.7,-1.9,-46.8,0,2018,4,25,16,18,43.158,0.6415,-0.546,0.5371,-0.0397
-0.012,-0.063,-0.179,-2.1,17.5,-50.3,0,2018,4,25,16,18,43.177,0.6422,-0.54,0.5428,-0.0348
-0.097,-0.021,-0.263,6.1,42.3,-47.9,0,2018,4,25,16,18,43.197,0.6456,-0.5318,0.547,-0.0319
-0.171,0.05,-0.288,12.2,51.5,-41.3,0,2018,4,25,16,18,43.217,0.6512,-0.5221,0.5498,-0.0306
-0.24,0.116,-0.267,17.3,50,-30.8,0,2018,4,25,16,18,43.236,0.6575,-0.5128,0.5511,-0.03
-0.276,0.172,-0.263,21.6,44.3,-16.9,0,2018,4,25,16,18,43.257,0.6637,-0.5051,0.5507,-0.0301
-0.298,0.231,-0.235,26.1,35.4,0.3,0,2018,4,25,16,18,43.276,0.6696,-0.4998,0.5484,-0.0309
-0.266,0.249,-0.162,28.3,24.1,18.1,0,2018,4,25,16,18,43.315,0.6748,-0.4974,0.5441,-0.0324
-0.182,0.263,-0.112,26,7.5,34,0,2018,4,25,16,18,43.336,0.6786,-0.4982,0.5384,-0.0348
-0.103,0.233,-0.052,21,-16.9,47.6,0,2018,4,25,16,18,43.34,0.6801,-0.5028,0.532,-0.0372
-0.051,0.141,0.039,14.6,-44.9,56.7,0,2018,4,25,16,18,43.359,0.6793,-0.5101,0.5261,-0.0372
0.029,0.017,0.151,4.9,-53.8,58.4,0,2018,4,25,16,18,43.377,0.6754,-0.5213,0.5201,-0.0383
0.141,-0.06,0.201,-2.7,-51.7,51.7,0,2018,4,25,16,18,43.397,0.6701,-0.5325,0.5153,-0.0399
0.238,-0.173,0.277,-6,-44.5,37.8,0,2018,4,25,16,18,43.435,0.6648,-0.5422,0.512,-0.0412
0.304,-0.243,0.328,-7.5,-28.7,18.6,0,2018,4,25,16,18,43.455,0.6605,-0.5489,0.5104,-0.0419
0.337,-0.216,0.267,-8.3,-13.6,-2,1023,2018,4,25,16,18,43.459,0.6578,-0.5519,0.5107,-0.0417
0.304,-0.207,0.21,-8,3,-20.3,1023,2018,4,25,16,18,43.478,0.657,-0.5509,0.5129,-0.0402
0.201,-0.165,0.137,-7.2,25.2,-34.2,1023,2018,4,25,16,18,43.516,0.6602,-0.544,0.5164,-0.0371
0.116,-0.107,0.05,-7.7,44.1,-44,1023,2018,4,25,16,18,43.536,0.6649,-0.5339,0.521,-0.0346
0.039,-0.03,-0.016,-9.4,55.8,-47.8,1023,2018,4,25,16,18,43.541,0.6704,-0.5217,0.5265,-0.0326
-0.053,0.014,-0.083,-11.9,55.9,-47.1,1023,2018,4,25,16,18,43.56,0.6756,-0.5088,0.5325,-0.0313
-0.134,0.046,-0.164,-12.4,44.9,-43.7,1023,2018,4,25,16,18,43.58,0.6793,-0.4977,0.5382,-0.0308
-0.205,0.073,-0.204,-9.6,33.7,-37.1,1023,2018,4,25,16,18,43.617,0.6818,-0.4892,0.5429,-0.0306
-0.236,0.105,-0.199,-5,31.1,-27.4,1023,2018,4,25,16,18,43.638,0.6839,-0.4824,0.5463,-0.0303
-0.255,0.137,-0.216,-1.1,37,-15.7,1023,2018,4,25,16,18,43.642,0.6866,-0.4762,0.5483,-0.0313
-0.254,0.215,-0.281,2.8,34.1,-1.4,1023,2018,4,25,16,18,43.66,0.6898,-0.471,0.5487,-0.0337
-0.232,0.237,-0.27,7.9,17.1,15.1,1023,2018,4,25,16,18,43.679,0.6925,-0.4685,0.5472,-0.0366
-0.196,0.194,-0.196,11.1,-2.5,31.5,1023,2018,4,25,16,18,43.719,0.6938,-0.4701,0.5441,-0.0394
-0.104,0.187,-0.189,14.5,-24.8,44.6,0,2018,4,25,16,18,43.739,0.6935,-0.4756,0.5394,-0.0416
-0.023,0.171,-0.168,18.8,-45.5,54.6,0,2018,4,25,16,18,43.743,0.6917,-0.4847,0.5334,-0.043
0.08,0.04,0.026,22.2,-51,58.5,0,2018,4,25,16,18,43.78,0.6894,-0.4952,0.5269,-0.0424
0.233,-0.077,0.253,21.6,-42.5,51.8,0,2018,4,25,16,18,43.782,0.6873,-0.5053,0.5199,-0.0419
0.342,-0.145,0.359,17.4,-21.1,35.4,0,2018,4,25,16,18,43.802,0.686,-0.5132,0.5139,-0.0426
0.396,-0.16,0.375,12.1,-7.8,14.6,0,2018,4,25,16,18,43.823,0.6859,-0.5171,0.51,-0.043
0.376,-0.186,0.384,6.8,0.3,-7.6,0,2018,4,25,16,18,43.861,0.6864,-0.5178,0.5087,-0.0423
0.302,-0.204,0.34,0.8,7.3,-27.5,0,2018,4,25,16,18,43.882,0.6872,-0.5158,0.5098,-0.04
0.176,-0.172,0.228,-4.9,18.1,-42.4,0,2018,4,25,16,18,43.886,0.6884,-0.511,0.5132,-0.0371
0.057,-0.103,0.082,-9,28,-50,0,2018,4,25,16,18,43.9,0.691,-0.5028,0.5181,-0.0335
-0.033,-0.069,-0.053,-10.7,33.4,-51.2,0,2018,4,25,16,18,43.939,0.6942,-0.4926,0.5239,-0.0296
-0.111,-0.008,-0.138,-9.7,34.9,-47.4,0,2018,4,25,16,18,43.958,0.6966,-0.4833,0.5294,-0.0271
-0.183,0.052,-0.222,-6.8,33.6,-39.6,0,2018,4,25,16,18,43.962,0.6989,-0.475,0.5339,-0.0257
-0.235,0.088,-0.244,-1.6,30.4,-29.9,0,2018,4,25,16,18,44,0.7013,-0.4679,0.5372,-0.0248
-0.263,0.131,-0.282,4.7,28,-18.2,0,2018,4,25,16,18,44.02,0.7039,-0.462,0.5388,-0.0245
-0.282,0.193,-0.333,11.6,19.4,-4.9,0,2018,4,25,16,18,44.024,0.7067,-0.458,0.5386,-0.0247
-0.288,0.236,-0.343,17.7,4.5,11.1,0,2018,4,25,16,18,44.043,0.709,-0.4569,0.5364,-0.025
-0.245,0.233,-0.319,21.2,-14.9,27.8,0,2018,4,25,16,18,44.064,0.7104,-0.4595,0.5324,-0.0254
-0.189,0.22,-0.247,24,-36.8,42,0,2018,4,25,16,18,44.084,0.7102,-0.4662,0.5268,-0.0256
-0.119,0.196,-0.18,26.3,-52.1,52.8,0,2018,4,25,16,18,44.104,0.7085,-0.4763,0.5199,-0.0252
-0.071,0.108,-0.114,26,-56.8,60.3,0,2018,4,25,16,18,44.122,0.706,-0.4884,0.5121,-0.025
0.06,-0.019,0.085,23,-47.5,62,0,2018,4,25,16,18,44.157,0.7042,-0.4986,0.5047,-0.0238
0.256,-0.09,0.279,15.3,-33.9,52.7,0,2018,4,25,16,18,44.178,0.703,-0.5075,0.4974,-0.025
0.403,-0.138,0.373,5.5,-35.2,33.8,1023,2018,4,25,16,18,44.182,0.7007,-0.5154,0.4924,-0.0265
0.432,-0.189,0.404,-2.7,-34.6,9.9,1023,2018,4,25,16,18,44.221,0.6974,-0.5216,0.4905,-0.0259
0.36,-0.185,0.399,-9.6,-20.2,-13,1023,2018,4,25,16,18,44.241,0.6943,-0.5248,0.4917,-0.0239
0.276,-0.19,0.359,-13.1,-0.4,-31.2,1023,2018,4,25,16,18,44.245,0.6925,-0.524,0.4953,-0.0212
0.196,-0.176,0.232,-12.1,20.1,-43.7,1023,2018,4,25,16,18,44.283,0.6925,-0.5193,0.5003,-0.0187
0.108,-0.127,0.106,-11.8,39.9,-50.4,1023,2018,4,25,16,18,44.303,0.6954,-0.51,0.5058,-0.0157
-0.006,-0.075,-0.016,-11.6,55.9,-51.6,1023,2018,4,25,16,18,44.308,0.7001,-0.4977,0.5117,-0.0136
-0.109,-0.001,-0.125,-10.8,57.4,-47.4,1023,2018,4,25,16,18,44.328,0.7046,-0.4849,0.5177,-0.0125
-0.182,0.038,-0.217,-8.8,44.8,-40.4,1023,2018,4,25,16,18,44.348,0.7081,-0.4746,0.5225,-0.0126
-0.248,0.067,-0.267,-4.4,32,-30.1,1023,2018,4,25,16,18,44.387,0.7107,-0.4667,0.5262,-0.0122
-0.302,0.113,-0.281,1,23.1,-17.1,1023,2018,4,25,16,18,44.391,0.7128,-0.4611,0.5282,-0.0119
-0.316,0.175,-0.301,6.3,16.9,-1.9,1023,2018,4,25,16,18,44.405,0.7147,-0.4578,0.5285,-0.0123
-0.297,0.207,-0.304,10.4,8.5,14.5,1023,2018,4,25,16,18,44.44,0.7166,-0.4568,0.5268,-0.0137
-0.228,0.22,-0.292,12.2,-9.1,29.2,0,2018,4,25,16,18,44.462,0.7176,-0.4588,0.5235,-0.0156
-0.159,0.219,-0.291,11.7,-38.7,41,0,2018,4,25,16,18,44.465,0.7167,-0.4651,0.5192,-0.0169
-0.116,0.165,-0.235,10.8,-65.7,50.5,0,2018,4,25,16,18,44.502,0.7131,-0.4761,0.5142,-0.0168
-0.045,0.083,-0.093,12,-71.1,57.3,0,2018,4,25,16,18,44.524,0.708,-0.4895,0.5086,-0.016
0.05,0.02,0.038,13.3,-60.3,58.7,0,2018,4,25,16,18,44.528,0.7041,-0.5009,0.503,-0.0142
0.119,-0.003,0.163,12.7,-45.1,56.4,0,2018,4,25,16,18,44.565,0.7015,-0.5107,0.4966,-0.0143
0.281,-0.13,0.341,8.2,-34.2,48.6,0,2018,4,25,16,18,44.588,0.6987,-0.5202,0.4907,-0.0164
0.433,-0.106,0.574,0.7,-24.6,31.2,0,2018,4,25,16,18,44.592,0.6965,-0.527,0.4864,-0.0186
0.493,-0.229,0.625,-6.4,6,3.6,0,2018,4,25,16,18,44.606,0.6954,-0.5295,0.4853,-0.0202
0.433,-0.225,0.455,-12.4,16.4,-22.6,0,2018,4,25,16,18,44.625,0.6958,-0.527,0.4874,-0.0209
0.342,-0.108,0.233,-16,8.5,-41.1,0,2018,4,25,16,18,44.645,0.6959,-0.5226,0.4921,-0.0194
0.192,-0.137,0.043,-15.8,15.7,-52.4,0,2018,4,25,16,18,44.668,0.6964,-0.5157,0.4986,-0.0147
0.011,-0.082,-0.034,-12.7,42.5,-56.9,0,2018,4,25,16,18,44.687,0.6988,-0.5058,0.5056,-0.0105
-0.11,0.032,-0.119,-10.9,66.1,-53.7,0,2018,4,25,16,18,44.725,0.7031,-0.4929,0.5123,-0.0086
-0.196,0.113,-0.213,-10.9,63.6,-45.3,0,2018,4,25,16,18,44.747,0.7079,-0.4802,0.5177,-0.0095
-0.269,0.104,-0.254,-10,40.6,-33.7,0,2018,4,25,16,18,44.751,0.7114,-0.47,0.5222,-0.0103
-0.301,0.125,-0.252,-7.3,18.7,-20.3,0,2018,4,25,16,18,44.77,0.7129,-0.4641,0.5255,-0.0102
-0.313,0.138,-0.242,-2.8,9,-6.3,0,2018,4,25,16,18,44.79,0.7135,-0.4613,0.5271,-0.0102
-0.287,0.162,-0.219,1.3,5.9,7,0,2018,4,25,16,18,44.811,0.7141,-0.4604,0.5271,-0.011
-0.241,0.171,-0.239,4.4,-2.4,20.1,0,2018,4,25,16,18,44.831,0.7145,-0.4614,0.5256,-0.0127
-0.193,0.107,-0.206,6.5,-18.3,31.6,0,2018,4,25,16,18,44.847,0.7141,-0.4652,0.5228,-0.0146
-0.147,0.058,-0.109,6.9,-31.5,39.6,0,2018,4,25,16,18,44.886,0.7125,-0.4715,0.5192,-0.0159
-0.068,0.06,-0.105,5.3,-37.3,45.1,1023,2018,4,25,16,18,44.905,0.7102,-0.4785,0.5159,-0.016
0.025,0.086,-0.106,4.3,-42.7,49,1023,2018,4,25,16,18,44.909,0.7072,-0.4871,0.512,-0.0171
0.093,0.09,-0.11,6.5,-48.3,52.4,1023,2018,4,25,16,18,44.93,0.7036,-0.4973,0.5071,-0.0188
0.207,-0.021,0.049,11.7,-53.8,50.7,1023,2018,4,25,16,18,44.949,0.7001,-0.5071,0.5022,-0.0187
0.361,-0.132,0.258,17.4,-50,38.5,1023,2018,4,25,16,18,44.972,0.697,-0.5167,0.4967,-0.0175
0.472,-0.175,0.393,17.6,-29.7,16.8,1023,2018,4,25,16,18,44.991,0.6948,-0.5241,0.4921,-0.0158
0.484,-0.193,0.434,14.6,-0.4,-8.3,1023,2018,4,25,16,18,45.011,0.6948,-0.5262,0.4899,-0.0134
0.412,-0.197,0.422,11.1,29.6,-32.3,1023,2018,4,25,16,18,45.03,0.6974,-0.5226,0.4902,-0.011
0.319,-0.145,0.351,5.6,55,-52.2,1023,2018,4,25,16,18,45.069,0.7022,-0.5134,0.493,-0.0087
0.197,-0.102,0.206,-2.3,62.3,-65.9,1023,2018,4,25,16,18,45.09,0.7077,-0.5008,0.4981,-0.0064
0.079,-0.063,0.085,-11.2,56.7,-72.5,1023,2018,4,25,16,18,45.094,0.7137,-0.4854,0.5048,-0.0023
-0.038,-0.008,-0.034,-19.3,45.8,-73,1023,2018,4,25,16,18,45.113,0.7175,-0.4709,0.5131,0.0021
-0.184,0.003,-0.144,-22.9,41.9,-67.6,1023,2018,4,25,16,18,45.13,0.7191,-0.4586,0.5219,0.006
-0.278,0.031,-0.227,-22.5,40.1,-58.5,1023,2018,4,25,16,18,45.169,0.7202,-0.4476,0.5299,0.0083
-0.34,0.07,-0.314,-19.5,26.6,-48.4,1023,2018,4,25,16,18,45.187,0.7208,-0.4384,0.5367,0.0102
-0.377,0.094,-0.333,-13.9,13.6,-35.5,0,2018,4,25,16,18,45.191,0.7205,-0.4321,0.542,0.0125
-0.4,0.15,-0.361,-5.7,13.1,-19.2,0,2018,4,25,16,18,45.229,0.7205,-0.4279,0.5453,0.0139
-0.424,0.224,-0.393,3.8,7.5,0.5,0,2018,4,25,16,18,45.249,0.7212,-0.4257,0.5461,0.0139
-0.377,0.209,-0.371,12.8,-2.6,22.6,0,2018,4,25,16,18,45.253,0.7223,-0.4265,0.5441,0.0128
-0.28,0.215,-0.285,17.3,-17.9,43.6,0,2018,4,25,16,18,45.271,0.7231,-0.4309,0.5396,0.0107
-0.204,0.173,-0.146,17.3,-39,60.7,0,2018,4,25,16,18,45.304,0.7227,-0.4395,0.5333,0.008
-0.028,0.057,0.053,11.3,-50.8,69.6,0,2018,4,25,16,18,45.312,0.721,-0.4499,0.5268,0.0066
0.151,0.039,0.143,-0.3,-52.4,69.4,0,2018,4,25,16,18,45.35,0.7181,-0.4618,0.5205,0.0038
0.334,0.006,0.236,-15.3,-52.9,62.1,0,2018,4,25,16,18,45.352,0.713,-0.4744,0.5161,-0.0003
0.464,-0.146,0.416,-29.1,-43.9,44.6,0,2018,4,25,16,18,45.371,0.7068,-0.4854,0.5145,-0.0045
0.494,-0.172,0.496,-36.3,-31.8,17.3,0,2018,4,25,16,18,45.407,0.7006,-0.4927,0.516,-0.0078
0.435,-0.238,0.46,-38.2,-22.9,-13.1,0,2018,4,25,16,18,45.427,0.6948,-0.4961,0.5205,-0.0087
0.327,-0.276,0.241,-34.1,3.7,-37.4,0,2018,4,25,16,18,45.431,0.6906,-0.4949,0.5272,-0.0077
0.195,-0.202,0.074,-27.8,37.2,-51.8,0,2018,4,25,16,18,45.47,0.6906,-0.4867,0.5347,-0.006
0.063,-0.119,-0.039,-20.8,61.2,-57.2,0,2018,4,25,16,18,45.489,0.6935,-0.4741,0.5422,-0.0052
-0.018,-0.036,-0.133,-14.1,66.3,-55.9,0,2018,4,25,16,18,45.493,0.6974,-0.4601,0.5493,-0.0053
-0.085,0.033,-0.23,-8.6,54.2,-50.7,0,2018,4,25,16,18,45.529,0.7012,-0.4475,0.5548,-0.0055
-0.17,0.097,-0.279,-2.4,38.1,-41.8,0,2018,4,25,16,18,45.55,0.7042,-0.4374,0.5591,-0.0046
-0.242,0.149,-0.312,5.6,29.9,-29,0,2018,4,25,16,18,45.556,0.7069,-0.4299,0.5615,-0.0034
-0.29,0.207,-0.339,15.3,27.3,-13.4,0,2018,4,25,16,18,45.571,0.7101,-0.4243,0.5618,-0.0028
-0.323,0.27,-0.376,25.6,18.2,4.7,0,2018,4,25,16,18,45.591,0.7139,-0.4209,0.5595,-0.0031
-0.286,0.307,-0.385,35.3,-4.1,23.7,1023,2018,4,25,16,18,45.611,0.7174,-0.4215,0.5545,-0.0034
-0.232,0.299,-0.378,42.5,-34.1,43.2,1023,2018,4,25,16,18,45.65,0.7197,-0.4273,0.547,-0.0028
-0.196,0.216,-0.221,49.2,-55.1,61.4,1023,2018,4,25,16,18,45.67,0.7205,-0.4382,0.5372,-0.0016
-0.145,0.092,0.015,52.5,-56.9,73.2,1023,2018,4,25,16,18,45.675,0.7211,-0.4509,0.5259,-0.0001
-0.002,0.03,0.251,47.4,-49.8,73.4,1023,2018,4,25,16,18,45.696,0.7219,-0.4638,0.5135,-0.0003
0.136,-0.308,0.514,29,26.3,62.1,1023,2018,4,25,16,18,45.714,0.7238,-0.4721,0.5031,-0.0042
0.265,-0.186,0.685,4.7,55.1,38.1,1023,2018,4,25,16,18,45.735,0.7296,-0.4697,0.4967,-0.0138
0.348,-0.289,0.605,-19,25.5,11.9,1023,2018,4,25,16,18,45.756,0.732,-0.4668,0.4957,-0.021
0.351,-0.078,0.446,-36.4,-22.2,-10.9,1023,2018,4,25,16,18,45.775,0.7296,-0.4664,0.4994,-0.0235
0.303,-0.043,0.251,-43.6,-57.3,-27.5,1023,2018,4,25,16,18,45.797,0.7224,-0.4701,0.5065,-0.0204
0.194,-0.045,0.106,-39.3,-35.3,-36.8,1023,2018,4,25,16,18,45.834,0.7148,-0.4729,0.5148,-0.0148
0.093,-0.026,-0.031,-29.6,18.9,-40.1,1023,2018,4,25,16,18,45.852,0.7121,-0.4684,0.5227,-0.0107
0.031,0.01,-0.139,-20.9,48.5,-40,0,2018,4,25,16,18,45.857,0.713,-0.459,0.5298,-0.01
-0.022,0.013,-0.26,-12,38.4,-39.6,0,2018,4,25,16,18,45.876,0.7152,-0.4496,0.5349,-0.0105
-0.086,0.061,-0.317,-5,11.1,-37.8,0,2018,4,25,16,18,45.897,0.7163,-0.4429,0.539,-0.0085
-0.165,0.098,-0.321,3.6,4.4,-31.2,0,2018,4,25,16,18,45.916,0.7167,-0.439,0.5418,-0.0047
-0.206,0.174,-0.353,14.4,12.7,-20.2,0,2018,4,25,16,18,45.936,0.7183,-0.4354,0.5426,-0.0017
-0.235,0.237,-0.378,25.4,14.2,-6,0,2018,4,25,16,18,45.956,0.7213,-0.4323,0.541,0
-0.249,0.265,-0.356,34.1,2.5,10.6,0,2018,4,25,16,18,45.976,0.7248,-0.4314,0.537,0.0011
-0.207,0.248,-0.338,40.3,-20,27.1,0,2018,4,25,16,18,46.013,0.7276,-0.4343,0.5308,0.0023
-0.154,0.246,-0.244,43.1,-46.9,41.1,0,2018,4,25,16,18,46.033,0.7289,-0.4418,0.5228,0.0042
-0.11,0.124,-0.015,41.9,-64.6,50.9,0,2018,4,25,16,18,46.036,0.7285,-0.4528,0.5139,0.0075
0.01,0.004,0.237,34.6,-57.6,53.7,0,2018,4,25,16,18,46.076,0.7274,-0.4646,0.5047,0.0101
0.202,-0.292,0.419,18.5,-20.8,45.8,0,2018,4,25,16,18,46.078,0.7262,-0.4746,0.4971,0.0098
0.278,-0.198,0.689,1.3,36.1,28.7,0,2018,4,25,16,18,46.096,0.7284,-0.4758,0.4927,0.0045
0.331,-0.286,0.666,-18.8,15.8,6.7,0,2018,4,25,16,18,46.134,0.7299,-0.4739,0.4925,-0.0007
0.327,-0.26,0.544,-31.9,1.9,-15.1,0,2018,4,25,16,18,46.151,0.7283,-0.4724,0.4963,-0.0029
0.246,-0.154,0.326,-38.1,-8.1,-32.2,0,2018,4,25,16,18,46.156,0.7248,-0.4708,0.5029,-0.0023
0.134,-0.121,0.125,-35.6,9,-41.7,0,2018,4,25,16,18,46.196,0.7219,-0.4668,0.5106,0
0.034,-0.066,-0.046,-28.6,43.8,-46.2,0,2018,4,25,16,18,46.217,0.722,-0.4581,0.5183,0.0013
-0.046,-0.005,-0.192,-22.2,60.4,-45.9,0,2018,4,25,16,18,46.22,0.724,-0.4467,0.5255,0.0008
-0.115,0.052,-0.303,-16.6,57.8,-41.7,0,2018,4,25,16,18,46.24,0.7268,-0.435,0.5314,-0.0006
-0.18,0.118,-0.379,-9.7,43.7,-34,0,2018,4,25,16,18,46.26,0.7294,-0.425,0.5359,-0.0015
-0.223,0.191,-0.388,-2.7,27.6,-22.9,0,2018,4,25,16,18,46.296,0.7315,-0.4178,0.5387,-0.0016
-0.22,0.239,-0.399,6,16.3,-9.2,0,2018,4,25,16,18,46.298,0.7332,-0.4136,0.5396,-0.0014
-0.195,0.281,-0.376,14.6,7.2,7.5,1023,2018,4,25,16,18,46.317,0.7351,-0.412,0.5383,-0.0017
-0.155,0.254,-0.311,21.3,-5.4,23.9,1023,2018,4,25,16,18,46.339,0.7368,-0.4134,0.5348,-0.0026
-0.111,0.231,-0.222,25.1,-26,36.9,1023,2018,4,25,16,18,46.358,0.7379,-0.4183,0.5295,-0.0034
-0.07,0.181,-0.121,26.5,-53.7,46.4,1023,2018,4,25,16,18,46.396,0.7372,-0.4274,0.5231,-0.0032
-0.003,0.1,-0.002,28.6,-70.1,52.7,1023,2018,4,25,16,18,46.414,0.7352,-0.439,0.5164,-0.0006
0.069,-0.001,0.162,29.3,-68.2,54.1,1023,2018,4,25,16,18,46.417,0.7331,-0.4513,0.5086,0.0022
0.153,-0.159,0.356,24.9,-49,47.5,1023,2018,4,25,16,18,46.453,0.7309,-0.4634,0.5009,0.0031
0.243,-0.366,0.479,11.2,-19.1,30.8,1023,2018,4,25,16,18,46.474,0.7295,-0.4714,0.4954,0.0027
0.247,-0.353,0.612,-4.6,14,7.6,1023,2018,4,25,16,18,46.479,0.7299,-0.4729,0.4934,0.0005
0.264,-0.232,0.487,-17.5,11.2,-14.3,1023,2018,4,25,16,18,46.517,0.73,-0.4707,0.4953,-0.0011
0.229,-0.178,0.257,-24,6.9,-32,1023,2018,4,25,16,18,46.537,0.7288,-0.4676,0.5,-0.0004
0.128,-0.129,0.119,-24.3,25.8,-42.4,1023,2018,4,25,16,18,46.542,0.7287,-0.4613,0.506,0.0017
0.035,-0.005,-0.044,-22.4,44.7,-47.5,1023,2018,4,25,16,18,46.565,0.7303,-0.4512,0.5128,0.0033
-0.027,0.044,-0.202,-18.8,44.1,-48.2,0,2018,4,25,16,18,46.585,0.7319,-0.4406,0.5197,0.0044
-0.093,0.1,-0.317,-13.1,33.5,-44.3,0,2018,4,25,16,18,46.6,0.7334,-0.4313,0.5253,0.0056
-0.134,0.159,-0.376,-7.2,19.8,-35.7,0,2018,4,25,16,18,46.638,0.7343,-0.4243,0.5296,0.0076
-0.184,0.185,-0.397,1.2,15,-23.7,0,2018,4,25,16,18,46.659,0.7352,-0.4195,0.5322,0.0096
-0.21,0.237,-0.414,11.1,10.9,-10,0,2018,4,25,16,18,46.663,0.7368,-0.4161,0.5326,0.011
-0.232,0.256,-0.387,20.2,4.1,5.6,0,2018,4,25,16,18,46.68,0.7388,-0.415,0.5307,0.0117
-0.246,0.238,-0.293,26,-4.1,22.3,0,2018,4,25,16,18,46.703,0.741,-0.4163,0.5266,0.0116
-0.226,0.217,-0.208,30,-14.9,37.8,0,2018,4,25,16,18,46.724,0.7429,-0.4203,0.5207,0.0105
-0.138,0.163,-0.055,31.3,-26.2,49.6,0,2018,4,25,16,18,46.742,0.7443,-0.4264,0.5137,0.0095
-0.004,0.097,0.061,26.4,-37,55.6,0,2018,4,25,16,18,46.761,0.7454,-0.4333,0.5064,0.0092
0.09,0.014,0.181,19.4,-52.6,56,0,2018,4,25,16,18,46.801,0.7441,-0.4439,0.4991,0.0077
0.207,-0.126,0.355,12.1,-56.2,48.5,0,2018,4,25,16,18,46.805,0.7411,-0.4557,0.4928,0.0069
0.302,-0.232,0.468,4.3,-48.4,30.6,0,2018,4,25,16,18,46.822,0.7377,-0.4659,0.4885,0.0069
0.315,-0.334,0.56,-3.6,-9.7,6.8,0,2018,4,25,16,18,46.843,0.7352,-0.4713,0.4869,0.0071
0.283,-0.294,0.446,-12.3,18.8,-16.5,0,2018,4,25,16,18,46.863,0.7351,-0.47,0.4885,0.0066
0.224,-0.203,0.243,-16.9,36.1,-34.7,0,2018,4,25,16,18,46.883,0.7361,-0.464,0.4926,0.0063
0.124,-0.147,0.075,-18.9,48,-46.6,0,2018,4,25,16,18,46.904,0.7387,-0.454,0.4981,0.0071
0.015,-0.055,-0.043,-19.7,64.4,-52.2,0,2018,4,25,16,18,46.924,0.7418,-0.4414,0.5047,0.0078
-0.065,0.04,-0.175,-18.9,69.5,-51.8,0,2018,4,25,16,18,46.945,0.7451,-0.4275,0.5118,0.0076
-0.136,0.114,-0.268,-16.2,62.9,-46,0,2018,4,25,16,18,46.966,0.7483,-0.4143,0.5178,0.0067
-0.181,0.186,-0.308,-11.8,46.4,-35.6,0,2018,4,25,16,18,46.985,0.7509,-0.4034,0.5226,0.0061
-0.213,0.234,-0.331,-6.2,25.7,-21.8,0,2018,4,25,16,18,47.006,0.7526,-0.3962,0.5258,0.0059
-0.217,0.277,-0.365,0.6,5.5,-5.9,0,2018,4,25,16,18,47.022,0.7533,-0.3929,0.5271,0.0062
-0.205,0.268,-0.309,8.4,-14.6,10.7,1023,2018,4,25,16,18,47.061,0.7534,-0.3939,0.5263,0.0066
-0.145,0.235,-0.224,14.7,-28.3,25.6,1023,2018,4,25,16,18,47.065,0.7529,-0.3986,0.5235,0.007
-0.078,0.208,-0.179,18.9,-35.7,37.6,1023,2018,4,25,16,18,47.081,0.7523,-0.4057,0.5189,0.0069
-0.046,0.166,-0.151,21.7,-43,47.9,1023,2018,4,25,16,18,47.122,0.7514,-0.4148,0.513,0.0063
-0.039,0.096,-0.055,23,-59.1,55.8,1023,2018,4,25,16,18,47.14,0.7497,-0.4257,0.5065,0.0061
0.018,-0.038,0.129,22.5,-67.9,58.2,1023,2018,4,25,16,18,47.144,0.7476,-0.4378,0.4992,0.0071
0.112,-0.14,0.324,16.4,-65.8,50.6,1023,2018,4,25,16,18,47.165,0.7443,-0.4512,0.4921,0.0073
0.199,-0.233,0.527,4.6,-19.8,34,1023,2018,4,25,16,18,47.188,0.742,-0.4602,0.4873,0.0062
0.295,-0.269,0.556,-12.8,2.6,11.7,1023,2018,4,25,16,18,47.225,0.741,-0.463,0.4861,0.0035
0.307,-0.195,0.413,-24.5,3,-10.5,1023,2018,4,25,16,18,47.241,0.7397,-0.4624,0.4886,0.0015
0.268,-0.112,0.232,-28.3,-2.8,-27.7,1023,2018,4,25,16,18,47.245,0.7374,-0.4608,0.4938,0.002
0.159,-0.141,0.106,-26.3,10.7,-38.8,1023,2018,4,25,16,18,47.285,0.7357,-0.4567,0.4999,0.0048
0.066,-0.083,-0.012,-20.6,49.8,-45.7,1023,2018,4,25,16,18,47.306,0.7367,-0.4479,0.5064,0.0064
-0.005,0.003,-0.141,-16.9,64.1,-47.4,0,2018,4,25,16,18,47.307,0.7396,-0.4353,0.5132,0.0065
-0.07,0.051,-0.231,-14.2,54.5,-45.9,0,2018,4,25,16,18,47.323,0.7426,-0.4232,0.5189,0.006
-0.132,0.105,-0.291,-9.4,38.6,-39.9,0,2018,4,25,16,18,47.341,0.7448,-0.4133,0.5236,0.0066
-0.186,0.163,-0.32,-2.7,30.8,-29.9,0,2018,4,25,16,18,47.377,0.7467,-0.4057,0.527,0.0076
-0.214,0.212,-0.333,4.4,25.2,-16.6,0,2018,4,25,16,18,47.398,0.7487,-0.3999,0.5285,0.0081
-0.214,0.246,-0.344,10.8,17.8,-1.4,0,2018,4,25,16,18,47.404,0.7509,-0.3963,0.5281,0.0078
-0.207,0.27,-0.299,15.3,1.4,14.4,0,2018,4,25,16,18,47.44,0.7528,-0.3955,0.5259,0.0069
-0.174,0.245,-0.237,18.3,-22.2,29.4,0,2018,4,25,16,18,47.46,0.7537,-0.399,0.5221,0.0061
-0.102,0.201,-0.141,21.4,-42.1,41.4,0,2018,4,25,16,18,47.466,0.7532,-0.4066,0.5169,0.0057
-0.015,0.153,-0.054,21.9,-53.8,49.8,0,2018,4,25,16,18,47.504,0.7517,-0.4169,0.5108,0.006
0.024,0.109,0.003,19.9,-62.6,54.4,0,2018,4,25,16,18,47.524,0.7497,-0.4274,0.5051,0.0076
0.048,-0.035,0.158,16.4,-63,55.1,0,2018,4,25,16,18,47.525,0.7474,-0.4389,0.4986,0.0086
0.144,-0.192,0.343,12,-52.8,46.4,0,2018,4,25,16,18,47.56,0.7442,-0.4509,0.4926,0.008
0.284,-0.253,0.426,3.6,-40.8,27.3,0,2018,4,25,16,18,47.58,0.7413,-0.4601,0.4885,0.0079
0.32,-0.274,0.507,-6.4,-2.6,4.5,0,2018,4,25,16,18,47.583,0.7396,-0.464,0.4874,0.0074
0.318,-0.255,0.436,-15.8,14.4,-18.9,0,2018,4,25,16,18,47.62,0.7392,-0.4622,0.4896,0.0067
0.28,-0.22,0.269,-18.7,16.7,-38.3,0,2018,4,25,16,18,47.642,0.7389,-0.4578,0.4943,0.0079
0.18,-0.193,0.147,-18.3,40.1,-52.1,0,2018,4,25,16,18,47.646,0.7403,-0.4491,0.5,0.0105
0.069,-0.1,0.032,-17.6,68.9,-59.5,0,2018,4,25,16,18,47.685,0.7437,-0.4359,0.5065,0.012
-0.017,-0.019,-0.103,-17.1,73.1,-62.1,0,2018,4,25,16,18,47.704,0.7476,-0.4204,0.5139,0.0128
-0.091,0.059,-0.22,-16,55.8,-59.8,0,2018,4,25,16,18,47.711,0.7505,-0.4063,0.5209,0.0139
-0.171,0.122,-0.285,-13.1,34.6,-52,0,2018,4,25,16,18,47.731,0.7521,-0.3954,0.5268,0.0162
-0.232,0.179,-0.317,-7.4,27,-39.3,0,2018,4,25,16,18,47.748,0.753,-0.3873,0.5314,0.0188
-0.255,0.228,-0.358,0.4,21.5,-23.9,1023,2018,4,25,16,18,47.767,0.7543,-0.3811,0.534,0.0204
-0.255,0.263,-0.38,6.9,2.5,-7.9,1023,2018,4,25,16,18,47.786,0.7555,-0.3779,0.5346,0.0215
-0.275,0.252,-0.375,11.8,-21.7,9.6,1023,2018,4,25,16,18,47.825,0.7557,-0.3794,0.5332,0.023
-0.279,0.243,-0.28,15.6,-39.8,27.6,1023,2018,4,25,16,18,47.846,0.7549,-0.3853,0.53,0.0243
-0.227,0.208,-0.152,17.5,-44.9,43.7,1023,2018,4,25,16,18,47.85,0.7536,-0.3943,0.5251,0.0247
-0.139,0.151,-0.033,15.7,-42.6,55.2,1023,2018,4,25,16,18,47.869,0.7525,-0.4034,0.5198,0.0244
-0.06,0.116,0.014,11.4,-48.2,62.5,1023,2018,4,25,16,18,47.888,0.7513,-0.413,0.5141,0.023
0.036,-0.023,0.249,3,-54.3,65.1,1023,2018,4,25,16,18,47.909,0.7487,-0.4249,0.5082,0.0202
0.196,-0.128,0.363,-9.6,-58,58,1023,2018,4,25,16,18,47.932,0.7444,-0.4377,0.5038,0.0167
0.337,-0.216,0.398,-20,-65.4,40.4,1023,2018,4,25,16,18,47.952,0.7384,-0.4501,0.5019,0.0145
0.425,-0.29,0.404,-23.3,-63.7,15.8,1023,2018,4,25,16,18,47.973,0.7312,-0.4611,0.5023,0.015
0.418,-0.321,0.317,-20.4,-29.7,-8.7,1023,2018,4,25,16,18,47.993,0.7253,-0.4676,0.5048,0.0171
0.343,-0.267,0.188,-14.1,21.4,-29.4,1023,2018,4,25,16,18,48.013,0.7242,-0.4654,0.5083,0.0189
0.217,-0.178,0.094,-8.2,58,-44.4,0,2018,4,25,16,18,48.033,0.7274,-0.4555,0.5127,0.0196
0.097,-0.101,-0.008,-4.9,71.6,-53.5,0,2018,4,25,16,18,48.053,0.7324,-0.4418,0.5176,0.02
0.001,-0.02,-0.1,-4.4,68.9,-57.4,0,2018,4,25,16,18,48.071,0.7371,-0.4271,0.5231,0.0209
-0.082,0.058,-0.185,-4.6,59.1,-56,0,2018,4,25,16,18,48.092,0.741,-0.4135,0.5284,0.0223
-0.167,0.103,-0.241,-3.5,51.1,-49.9,0,2018,4,25,16,18,48.11,0.7443,-0.4016,0.533,0.0239
-0.234,0.143,-0.263,-1,48.1,-39.9,0,2018,4,25,16,18,48.131,0.7473,-0.3909,0.5366,0.0249
-0.273,0.197,-0.287,1.9,43,-26.7,0,2018,4,25,16,18,48.15,0.7503,-0.3818,0.539,0.025
-0.307,0.268,-0.32,5.4,29.1,-11.2,0,2018,4,25,16,18,48.188,0.753,-0.3752,0.5399,0.0243
-0.31,0.271,-0.297,8.5,4.9,7.5,0,2018,4,25,16,18,48.208,0.7548,-0.3728,0.5391,0.0234
-0.238,0.284,-0.266,11.2,-21.3,27.7,0,2018,4,25,16,18,48.211,0.7552,-0.3756,0.5366,0.0224
-0.16,0.271,-0.214,13.2,-42.3,46.5,0,2018,4,25,16,18,48.248,0.7543,-0.3834,0.5324,0.0214
-0.099,0.188,-0.083,14.7,-51.3,60.8,0,2018,4,25,16,18,48.271,0.7525,-0.3948,0.5266,0.0196
0.004,0.088,0.077,13.7,-49.1,68.4,0,2018,4,25,16,18,48.275,0.7509,-0.4059,0.5204,0.0179
0.132,-0.006,0.204,9.6,-44,67.2,0,2018,4,25,16,18,48.291,0.7488,-0.4182,0.5138,0.014
0.216,-0.131,0.285,3.8,-44.3,57.3,0,2018,4,25,16,18,48.314,0.7463,-0.4295,0.5082,0.0102
0.272,-0.279,0.332,-3.1,-42.9,40.6,0,2018,4,25,16,18,48.334,0.743,-0.4397,0.5043,0.0079
0.293,-0.255,0.419,-9.6,-23.2,20.3,0,2018,4,25,16,18,48.354,0.7401,-0.4463,0.5028,0.0061
0.342,-0.263,0.372,-14.6,-4.9,-2,0,2018,4,25,16,18,48.374,0.738,-0.4489,0.5037,0.0052
0.338,-0.192,0.185,-14.6,8.1,-22.3,0,2018,4,25,16,18,48.394,0.7371,-0.447,0.5066,0.0058
0.224,-0.119,0.065,-11.8,21.2,-37.6,0,2018,4,25,16,18,48.412,0.7378,-0.4412,0.5107,0.0084
0.124,-0.159,-0.026,-7.4,51.4,-48.7,0,2018,4,25,16,18,48.45,0.7398,-0.432,0.5155,0.0106
0.046,-0.031,-0.103,-4.6,69.1,-56.4,0,2018,4,25,16,18,48.471,0.7437,-0.4188,0.5208,0.0118
-0.032,0.046,-0.156,-3.9,63.7,-57.2,1023,2018,4,25,16,18,48.474,0.7477,-0.4047,0.5262,0.0132
-0.126,0.108,-0.197,-2.8,55.7,-52.6,1023,2018,4,25,16,18,48.492,0.7514,-0.3918,0.5306,0.0147
-0.196,0.179,-0.203,-0.7,46.1,-43.1,1023,2018,4,25,16,18,48.511,0.7545,-0.3807,0.5343,0.0162
-0.202,0.188,-0.202,1.9,35,-31.3,1023,2018,4,25,16,18,48.549,0.7571,-0.3718,0.5367,0.0173
-0.208,0.23,-0.205,3.9,20,-18.1,1023,2018,4,25,16,18,48.57,0.7591,-0.3659,0.538,0.0182
-0.227,0.26,-0.23,6.1,6.6,-1.7,1023,2018,4,25,16,18,48.574,0.7603,-0.3632,0.538,0.0186
-0.242,0.267,-0.208,9.2,-9,17.6,1023,2018,4,25,16,18,48.595,0.761,-0.3642,0.5364,0.0181
-0.21,0.27,-0.144,12.3,-25.7,37,1023,2018,4,25,16,18,48.615,0.761,-0.3691,0.5331,0.0168
-0.095,0.206,-0.052,13.7,-39.1,52.7,1023,2018,4,25,16,18,48.654,0.7602,-0.3778,0.5283,0.0146
0.004,0.14,0.057,10.6,-42.1,62.5,1023,2018,4,25,16,18,48.676,0.7588,-0.3881,0.5228,0.0119
0.094,0.003,0.061,4.7,-48.7,62.9,1023,2018,4,25,16,18,48.68,0.7569,-0.3988,0.5174,0.0088
0.201,-0.153,0.162,-1.6,-60.3,52.1,1023,2018,4,25,16,18,48.698,0.754,-0.4102,0.5129,0.0068
0.341,-0.252,0.234,-6.9,-68.8,29.6,1023,2018,4,25,16,18,48.716,0.7498,-0.4213,0.51,0.0074
0.374,-0.314,0.237,-6.9,-53.7,1.7,0,2018,4,25,16,18,48.74,0.7454,-0.4299,0.5091,0.011
0.323,-0.283,0.174,-3.1,-5.2,-23.1,0,2018,4,25,16,18,48.759,0.7435,-0.4319,0.5101,0.0152
0.229,-0.185,0.126,0.5,47,-41.3,0,2018,4,25,16,18,48.778,0.7459,-0.425,0.5124,0.0177
0.125,-0.101,0.069,1,70.2,-53.1,0,2018,4,25,16,18,48.817,0.7509,-0.4118,0.5158,0.0189
0.024,-0.011,-0.008,-1.1,68.6,-57.7,0,2018,4,25,16,18,48.819,0.756,-0.3967,0.52,0.0205
-0.072,0.062,-0.058,-3.6,55.8,-55.1,0,2018,4,25,16,18,48.836,0.7599,-0.3826,0.5249,0.0228
-0.159,0.117,-0.091,-5,44.1,-47.1,0,2018,4,25,16,18,48.856,0.7624,-0.3708,0.5296,0.0255
-0.216,0.168,-0.12,-6.1,36.9,-34.4,0,2018,4,25,16,18,48.895,0.7639,-0.361,0.534,0.0277
-0.255,0.21,-0.156,-6.3,33,-19.5,0,2018,4,25,16,18,48.914,0.7653,-0.3537,0.537,0.0279
-0.25,0.242,-0.198,-5.2,27.8,-2,0,2018,4,25,16,18,48.916,0.7666,-0.3486,0.5385,0.026
-0.238,0.263,-0.233,-2.3,12.1,17,0,2018,4,25,16,18,48.955,0.7675,-0.3466,0.5387,0.0228
-0.212,0.255,-0.254,0.6,-14.5,36.1,0,2018,4,25,16,18,48.976,0.7675,-0.3492,0.5371,0.0192
-0.124,0.235,-0.258,3.6,-45.7,52.4,0,2018,4,25,16,18,48.98,0.7659,-0.3577,0.5339,0.0163
-0.052,0.197,-0.243,7.7,-68,64.5,0,2018,4,25,16,18,48.996,0.7628,-0.3709,0.5293,0.0141
0.009,0.093,-0.167,12.7,-80,70.4,0,2018,4,25,16,18,49.018,0.759,-0.3872,0.5232,0.0127
0.058,-0.023,-0.056,16.4,-82.3,69.3,0,2018,4,25,16,18,49.037,0.7546,-0.4042,0.5165,0.0121
0.166,-0.184,0.168,17.7,-72.3,58.9,0,2018,4,25,16,18,49.076,0.7511,-0.4197,0.5094,0.0123
0.3,-0.278,0.346,14.5,-49.3,39,0,2018,4,25,16,18,49.098,0.7481,-0.4319,0.5034,0.0125
0.371,-0.379,0.437,5.2,-16.8,13.1,0,2018,4,25,16,18,49.103,0.7465,-0.4386,0.5,0.0129
0.288,-0.291,0.49,-3.6,29.1,-13.4,0,2018,4,25,16,18,49.12,0.7475,-0.4371,0.5,0.0121
0.245,-0.237,0.366,-13.8,39.8,-34.6,0,2018,4,25,16,18,49.157,0.7493,-0.4302,0.5032,0.0116
0.187,-0.178,0.189,-20.3,52.2,-50.1,0,2018,4,25,16,18,49.177,0.7513,-0.4203,0.5086,0.0119
0.081,-0.096,0.107,-24.9,64.4,-60,0,2018,4,25,16,18,49.181,0.7543,-0.4066,0.5152,0.0125
-0.007,-0.001,-0.023,-28.6,65.9,-63,1023,2018,4,25,16,18,49.2,0.7567,-0.3917,0.5231,0.0132
-0.09,0.072,-0.167,-28.3,55.9,-59.3,1023,2018,4,25,16,18,49.221,0.7577,-0.3778,0.5318,0.0142
-0.163,0.143,-0.263,-23,42.3,-51,1023,2018,4,25,16,18,49.238,0.7583,-0.3662,0.5389,0.0153
-0.211,0.174,-0.308,-14.1,36.9,-37.6,1023,2018,4,25,16,18,49.256,0.7589,-0.3569,0.5443,0.0163
-0.235,0.235,-0.338,-4.6,35.3,-21.3,1023,2018,4,25,16,18,49.275,0.7601,-0.3494,0.5474,0.0162
-0.243,0.275,-0.361,4.9,27.8,-3.4,1023,2018,4,25,16,18,49.309,0.7621,-0.3439,0.5482,0.0148
-0.221,0.281,-0.33,12.6,13.2,15,1023,2018,4,25,16,18,49.328,0.7642,-0.3418,0.5466,0.0125
-0.166,0.271,-0.265,16.1,-4.6,31.7,1023,2018,4,25,16,18,49.337,0.7659,-0.3435,0.5432,0.0098
-0.13,0.235,-0.194,15.8,-20.9,45.6,1023,2018,4,25,16,18,49.37,0.7667,-0.349,0.5386,0.0068
-0.116,0.199,-0.148,13.9,-33,57.1,1023,2018,4,25,16,18,49.39,0.7665,-0.3575,0.5334,0.0034
-0.129,0.148,-0.101,12.5,-47.9,68,1023,2018,4,25,16,18,49.399,0.7651,-0.3687,0.5278,-0.0002
-0.089,0.044,0.055,12.2,-58.8,76.4,1023,2018,4,25,16,18,49.433,0.7629,-0.3818,0.5215,-0.0035
-0.036,-0.063,0.197,9.8,-64.3,79.4,1023,2018,4,25,16,18,49.454,0.7599,-0.3969,0.5146,-0.0075
0.101,-0.171,0.33,5.3,-62.7,74.3,1023,2018,4,25,16,18,49.462,0.7559,-0.4124,0.5082,-0.0115
0.256,-0.255,0.386,-1,-54.4,60.4,0,2018,4,25,16,18,49.499,0.7516,-0.4261,0.5031,-0.0151
0.392,-0.305,0.426,-9.1,-36.9,39.4,0,2018,4,25,16,18,49.519,0.7475,-0.4365,0.5002,-0.0179
0.446,-0.297,0.409,-16.1,-9.1,13.3,0,2018,4,25,16,18,49.521,0.7446,-0.4416,0.4999,-0.0204
0.435,-0.293,0.266,-21.5,12,-14.3,0,2018,4,25,16,18,49.555,0.7431,-0.4411,0.5025,-0.0219
0.351,-0.196,0.097,-22.9,26.3,-38.4,0,2018,4,25,16,18,49.574,0.7436,-0.4348,0.5074,-0.0212
0.24,-0.111,-0.047,-21.1,32.6,-56.7,0,2018,4,25,16,18,49.579,0.7441,-0.4258,0.5143,-0.0184
0.118,-0.046,-0.147,-17.1,43,-67.6,0,2018,4,25,16,18,49.612,0.745,-0.4149,0.5219,-0.0145
0.005,-0.016,-0.209,-11.9,58.1,-71.7,0,2018,4,25,16,18,49.632,0.7475,-0.4019,0.5287,-0.0111
-0.087,0.062,-0.245,-7.6,68.4,-71.5,0,2018,4,25,16,18,49.64,0.7512,-0.3867,0.5348,-0.0084
-0.168,0.136,-0.273,-3.5,67,-65.2,0,2018,4,25,16,18,49.674,0.7552,-0.3713,0.54,-0.0061
-0.228,0.214,-0.29,0.8,60.5,-53.9,0,2018,4,25,16,18,49.693,0.7592,-0.3572,0.5439,-0.0043
-0.274,0.271,-0.294,6.1,50.2,-37,0,2018,4,25,16,18,49.703,0.763,-0.3455,0.5462,-0.0033
-0.306,0.321,-0.299,11.4,31.8,-16,0,2018,4,25,16,18,49.717,0.7663,-0.3374,0.5466,-0.0032
-0.327,0.337,-0.259,18,5,7.3,0,2018,4,25,16,18,49.754,0.7688,-0.3346,0.5448,-0.0035
-0.284,0.312,-0.197,22.4,-19.8,30.9,0,2018,4,25,16,18,49.775,0.7703,-0.3376,0.5408,-0.0042
-0.204,0.284,-0.165,21.6,-43.6,51.5,0,2018,4,25,16,18,49.78,0.7704,-0.346,0.5354,-0.0055
-0.136,0.224,-0.162,18.6,-63.2,68.2,0,2018,4,25,16,18,49.813,0.7689,-0.3589,0.529,-0.0074
-0.106,0.12,-0.12,15.6,-77.9,80.1,0,2018,4,25,16,18,49.835,0.7656,-0.3754,0.5221,-0.0097
-0.028,-0.082,0.098,14.7,-73.8,83.1,0,2018,4,25,16,18,49.84,0.7619,-0.3929,0.5147,-0.0125
0.113,-0.209,0.286,10.1,-61.2,72.8,0,2018,4,25,16,18,49.875,0.7581,-0.4089,0.5077,-0.016
0.276,-0.268,0.308,2.7,-44.1,53.4,0,2018,4,25,16,18,49.895,0.7546,-0.4214,0.5024,-0.0193
0.44,-0.391,0.351,-7.1,-25.1,27.8,0,2018,4,25,16,18,49.903,0.7516,-0.4297,0.4998,-0.0216
0.429,-0.309,0.453,-15.5,14.7,-0.4,1023,2018,4,25,16,18,49.937,0.7505,-0.431,0.5003,-0.024
0.378,-0.243,0.351,-23.3,26.8,-26.5,1023,2018,4,25,16,18,49.957,0.7504,-0.4268,0.5039,-0.0255
0.261,-0.179,0.191,-25.7,40.8,-46.3,1023,2018,4,25,16,18,49.959,0.7512,-0.4185,0.5096,-0.0251
0.135,-0.087,0.084,-25.5,58.1,-56.4,1023,2018,4,25,16,18,49.998,0.7535,-0.4061,0.5163,-0.0241
0.05,-0.049,-0.001,-25.1,61.6,-60,1023,2018,4,25,16,18,50.017,0.756,-0.392,0.5235,-0.0233
0.002,0.008,-0.093,-24.6,54.5,-59.9,1023,2018,4,25,16,18,50.023,0.7577,-0.3783,0.5311,-0.022
-0.08,0.058,-0.184,-22.8,36.5,-57.5,1023,2018,4,25,16,18,50.042,0.7584,-0.3667,0.5384,-0.0197
-0.155,0.101,-0.243,-17.6,26.9,-51.5,1023,2018,4,25,16,18,50.061,0.7585,-0.3574,0.5445,-0.0166
-0.205,0.142,-0.271,-9.3,30.6,-41,1023,2018,4,25,16,18,50.1,0.7591,-0.3492,0.549,-0.014
-0.232,0.185,-0.303,-0.2,35,-27.4,1023,2018,4,25,16,18,50.119,0.7608,-0.3414,0.5516,-0.013
-0.262,0.222,-0.341,8.6,31.7,-10.4,1023,2018,4,25,16,18,50.124,0.7633,-0.3351,0.5521,-0.0135
-0.285,0.253,-0.322,16.7,17.6,8.1,1023,2018,4,25,16,18,50.16,0.766,-0.3317,0.5503,-0.0151
-0.259,0.258,-0.276,23.6,-0.4,26.8,1023,2018,4,25,16,18,50.179,0.7684,-0.3324,0.5465,-0.017
-0.212,0.269,-0.242,27.3,-15.9,45.2,0,2018,4,25,16,18,50.186,0.7702,-0.3371,0.5409,-0.0196
-0.167,0.214,-0.144,28.6,-27.6,61.7,0,2018,4,25,16,18,50.219,0.7713,-0.3453,0.534,-0.0231
-0.055,0.114,0.044,24.7,-32.7,71.1,0,2018,4,25,16,18,50.241,0.7718,-0.355,0.5267,-0.027
0.079,0.062,0.178,14.7,-41.6,70.9,0,2018,4,25,16,18,50.244,0.771,-0.3665,0.5197,-0.032
0.179,-0.019,0.19,2.7,-56.8,64.8,0,2018,4,25,16,18,50.279,0.7681,-0.3794,0.5144,-0.0361
0.26,-0.194,0.321,-6.3,-60.2,51.6,0,2018,4,25,16,18,50.3,0.7635,-0.3926,0.5111,-0.0388
0.413,-0.312,0.408,-14.8,-52.5,27.6,0,2018,4,25,16,18,50.306,0.7583,-0.4037,0.5102,-0.0398
0.48,-0.336,0.335,-21.7,-39.9,-3.4,0,2018,4,25,16,18,50.325,0.7532,-0.4107,0.5122,-0.0385
0.4,-0.326,0.205,-23.2,-13.2,-33.1,0,2018,4,25,16,18,50.347,0.7499,-0.4117,0.5165,-0.0348
0.25,-0.26,0.047,-18.3,33,-54.7,0,2018,4,25,16,18,50.383,0.7495,-0.4056,0.5221,-0.0312
0.108,-0.088,-0.075,-11,58.8,-66.5,0,2018,4,25,16,18,50.402,0.7518,-0.3933,0.5284,-0.0284
-0.009,-0.006,-0.145,-4.3,64.7,-68.5,0,2018,4,25,16,18,50.405,0.7551,-0.3788,0.5343,-0.0254
-0.108,0.093,-0.187,2.3,63.8,-62.1,0,2018,4,25,16,18,50.441,0.7595,-0.364,0.5384,-0.0229
-0.183,0.195,-0.196,7.7,55.1,-48.9,0,2018,4,25,16,18,50.46,0.764,-0.3508,0.541,-0.0208
-0.23,0.266,-0.204,11.9,43,-32,0,2018,4,25,16,18,50.463,0.768,-0.3405,0.5419,-0.0194
-0.273,0.325,-0.187,14.3,30,-11.8,0,2018,4,25,16,18,50.498,0.7715,-0.3336,0.5412,-0.0191
-0.27,0.359,-0.147,13.3,15.6,10.5,0,2018,4,25,16,18,50.517,0.7742,-0.3306,0.5392,-0.0204
-0.252,0.359,-0.103,8.8,0.7,33.4,0,2018,4,25,16,18,50.524,0.7756,-0.3317,0.5364,-0.0236
-0.255,0.347,-0.045,0.2,-13.5,55.1,0,2018,4,25,16,18,50.558,0.7754,-0.3368,0.5332,-0.0288
-0.242,0.33,-0.018,-10.7,-24.9,74.7,0,2018,4,25,16,18,50.578,0.7733,-0.3456,0.5301,-0.0361
-0.216,0.357,-0.012,-19.2,-16.2,96.1,0,2018,4,25,16,18,50.587,0.7699,-0.3565,0.5272,-0.0465
-0.206,0.374,-0.063,-22.5,20,122.8,0,2018,4,25,16,18,50.62,0.7669,-0.3662,0.5231,-0.0626
-0.232,0.44,-0.13,-18.5,62.7,154.7,0,2018,4,25,16,18,50.64,0.7661,-0.3726,0.5163,-0.0867
-0.254,0.548,-0.15,-11.3,51,185,1023,2018,4,25,16,18,50.649,0.7658,-0.3793,0.506,-0.1161
-0.236,0.56,0.023,-2.3,1.9,209.7,1023,2018,4,25,16,18,50.683,0.7624,-0.393,0.493,-0.1453
-0.143,0.412,0.034,3.4,-40.2,226.6,1023,2018,4,25,16,18,50.703,0.7548,-0.4145,0.4781,-0.1724
-0.094,0.31,-0.034,3.7,-56.8,240,1023,2018,4,25,16,18,50.705,0.7437,-0.4405,0.4618,-0.1986
-0.089,0.269,-0.053,2.3,-78.2,247.5,1023,2018,4,25,16,18,50.74,0.7303,-0.4672,0.4451,-0.2238
-0.131,0.175,-0.093,-3.1,-170.6,243.9,1023,2018,4,25,16,18,50.759,0.71,-0.5008,0.4298,-0.2453
-0.146,-0.18,-0.099,-16.8,-250.6,235.9,1023,2018,4,25,16,18,50.767,0.6779,-0.5455,0.4193,-0.2585
-0.068,-0.452,-0.371,-9.4,-135,227.9,1023,2018,4,25,16,18,50.806,0.6461,-0.5851,0.4075,-0.272
-0.146,-0.62,-0.28,4.6,-29.2,198.8,1023,2018,4,25,16,18,50.826,0.6278,-0.6081,0.3891,-0.2905
-0.059,-0.661,-0.153,13.7,46.6,165.5,1023,2018,4,25,16,18,50.828,0.6211,-0.6185,0.3674,-0.3108
0.061,-0.619,-0.297,23,-13.8,128.2,1023,2018,4,25,16,18,50.866,0.6164,-0.6263,0.3484,-0.3258
-0.064,-0.04,-0.17,13.8,-212.7,116.5,1023,2018,4,25,16,18,50.885,0.5965,-0.6477,0.3405,-0.3295
-0.024,-0.454,-0.397,16.1,-263.2,105.8,1023,2018,4,25,16,18,50.888,0.5612,-0.681,0.3411,-0.3238
0.047,-0.487,-0.486,43,-112.3,102.1,0,2018,4,25,16,18,50.922,0.5336,-0.7072,0.3367,-0.3187
-0.105,-0.281,-0.088,55.3,-60.4,91.1,0,2018,4,25,16,18,50.943,0.5221,-0.7225,0.3238,-0.3167
-0.11,-0.68,0.028,49.1,-8,74.2,0,2018,4,25,16,18,50.952,0.5159,-0.7331,0.3108,-0.3156
0.098,0.113,0.289,41.1,-41.4,57.3,0,2018,4,25,16,18,50.985,0.5148,-0.739,0.2986,-0.3154
0.16,-0.347,0.425,21.3,-100.1,43.9,0,2018,4,25,16,18,51.005,0.5027,-0.7508,0.2938,-0.3115
0.237,-0.386,0.553,-3,-88.2,28.3,0,2018,4,25,16,18,51.008,0.4886,-0.7615,0.2934,-0.3085
-0.067,-0.284,0.183,-14.4,-62,12.9,0,2018,4,25,16,18,51.042,0.4772,-0.7682,0.2955,-0.3076
0.12,-0.157,0.38,-29.7,-47.4,3.7,0,2018,4,25,16,18,51.063,0.4685,-0.7718,0.2991,-0.3085
0.204,-0.121,0.416,-53.4,-58.5,-2.8,0,2018,4,25,16,18,51.071,0.459,-0.7739,0.3055,-0.3113
0.223,-0.08,0.299,-72.5,-46,-5.6,0,2018,4,25,16,18,51.107,0.4483,-0.7746,0.3142,-0.3166
0.147,0.047,-0.049,-83.3,-18.8,-5.9,0,2018,4,25,16,18,51.127,0.4405,-0.7719,0.3226,-0.3253
-0.181,-0.091,-0.392,-73.9,-17.3,-4.6,0,2018,4,25,16,18,51.131,0.4331,-0.7688,0.3307,-0.3344
-0.283,-0.02,-0.629,-52.5,-37.5,-6.2,0,2018,4,25,16,18,51.164,0.4262,-0.7666,0.3379,-0.341
0.105,0.042,-0.703,-8,6.4,-4.2,0,2018,4,25,16,18,51.184,0.4221,-0.7661,0.3421,-0.3431
-0.196,-0.079,-0.636,32.9,43.9,-3.8,0,2018,4,25,16,18,51.189,0.4266,-0.7647,0.3399,-0.3427
-0.227,0.089,-0.327,61.3,45.5,-4.3,0,2018,4,25,16,18,51.223,0.4365,-0.7637,0.3337,-0.3388
-0.098,0.113,-0.283,74.5,24.2,-5.8,0,2018,4,25,16,18,51.244,0.4452,-0.7648,0.3271,-0.3311
0.056,-0.106,-0.313,91.1,61.9,-2.4,0,2018,4,25,16,18,51.249,0.455,-0.7664,0.3191,-0.3218
0.216,0.34,0.431,79.4,52.3,1.7,0,2018,4,25,16,18,51.286,0.4691,-0.7658,0.3081,-0.3137
0.255,-0.12,1.057,33.2,37.5,-4.4,0,2018,4,25,16,18,51.308,0.4767,-0.766,0.3017,-0.308
-0.078,-0.012,0.605,-8.8,0.8,-11.9,0,2018,4,25,16,18,51.311,0.4808,-0.7638,0.3009,-0.3076
0.116,0.011,0.666,-42.5,-19.7,-8.3,0,2018,4,25,16,18,51.348,0.4776,-0.7632,0.3055,-0.3098
0.127,0.057,0.498,-71.6,-36.6,-7.8,0,2018,4,25,16,18,51.37,0.4714,-0.7617,0.3129,-0.3154
0.112,0.077,0.305,-93.4,-67.9,-2.3,1023,2018,4,25,16,18,51.377,0.4599,-0.7611,0.3235,-0.3231
0.157,-0.031,-0.271,-98.2,-53.9,5.9,1023,2018,4,25,16,18,51.396,0.4458,-0.7606,0.3345,-0.3327
-0.168,-0.15,-0.721,-73.5,-44.8,7.3,1023,2018,4,25,16,18,51.415,0.4339,-0.7595,0.343,-0.3421
-0.425,-0.297,-0.88,-26.1,-17.4,-5.7,1023,2018,4,25,16,18,51.432,0.4268,-0.7589,0.3482,-0.347
0.129,0.228,-0.629,17.6,54.1,-7.9,1023,2018,4,25,16,18,51.452,0.4295,-0.7571,0.3485,-0.3474
-0.094,0.184,-0.181,66.3,28,-8.2,1023,2018,4,25,16,18,51.487,0.45,-0.7542,0.3374,-0.3386
-0.074,0.129,-0.13,73.5,4.7,-2,1023,2018,4,25,16,18,51.506,0.456,-0.757,0.3319,-0.3297
0.018,0.014,-0.122,86.1,68.1,8.6,1023,2018,4,25,16,18,51.515,0.4643,-0.7595,0.3237,-0.3203
0.082,0.324,0.605,79.6,131.4,30.6,1023,2018,4,25,16,18,51.549,0.4812,-0.757,0.3084,-0.3164
-0.053,-0.24,0.932,43.6,169.5,38.1,1023,2018,4,25,16,18,51.568,0.5011,-0.75,0.2908,-0.3187
0.036,-0.122,0.548,22.8,259.2,44.1,1023,2018,4,25,16,18,51.573,0.5294,-0.7337,0.2698,-0.3292
0.157,-0.123,0.455,4.4,346.4,55.3,1023,2018,4,25,16,18,51.608,0.5652,-0.7077,0.2444,-0.346
0.26,-0.165,0.199,-6.6,416,67,1023,2018,4,25,16,18,51.629,0.6072,-0.6709,0.2135,-0.3682
0.529,-0.633,-0.431,-8.3,575.3,85.5,0,2018,4,25,16,18,51.636,0.6562,-0.6197,0.1732,-0.394
0.357,-0.378,-0.637,13.5,736.9,62.8,0,2018,4,25,16,18,51.671,0.7196,-0.5399,0.1165,-0.4206
0.264,0.092,-0.568,37.1,668.7,31.7,0,2018,4,25,16,18,51.693,0.778,-0.4493,0.0557,-0.4355
0.043,0.099,-0.35,46.6,557.6,5.9,0,2018,4,25,16,18,51.696,0.8202,-0.3673,0.0016,-0.4384
-0.092,0.153,0.004,40.7,474.5,-17.6,0,2018,4,25,16,18,51.732,0.8497,-0.2972,-0.0435,-0.4331
-0.07,0.114,0.254,33.6,433.7,-31.2,0,2018,4,25,16,18,51.751,0.8722,-0.2314,-0.082,-0.4228
-0.05,0.712,0.44,11.4,331.2,-26.9,0,2018,4,25,16,18,51.753,0.8882,-0.1729,-0.1133,-0.4101
-0.177,0.163,-0.235,-9,172.3,-28.1,0,2018,4,25,16,18,51.784,0.8967,-0.1376,-0.1287,-0.4004
-0.033,-0.144,-0.22,13.8,133.7,-33.1,0,2018,4,25,16,18,51.804,0.9022,-0.1149,-0.1388,-0.3916
-0.12,-0.413,0.028,11.3,104.5,-39.5,0,2018,4,25,16,18,51.816,0.9063,-0.0991,-0.1479,-0.3831
0.097,-0.059,0.271,6.5,117.3,-50.5,0,2018,4,25,16,18,51.849,0.911,-0.0824,-0.1562,-0.3724
0.164,0.118,0.27,-12.1,62.8,-49.2,0,2018,4,25,16,18,51.87,0.9158,-0.0684,-0.1603,-0.3617
0.233,0.144,0.05,-26.3,4.4,-36.3,0,2018,4,25,16,18,51.876,0.9194,-0.0636,-0.1584,-0.3542
0.333,0.453,-0.308,-25.3,-40,-8.2,0,2018,4,25,16,18,51.914,0.9211,-0.0659,-0.1527,-0.3517
0.163,0.661,-0.496,-6,-76.7,20.5,0,2018,4,25,16,18,51.917,0.9204,-0.0743,-0.1466,-0.3544
-0.033,0.14,-0.268,3.8,-65.9,40.2,0,2018,4,25,16,18,51.935,0.9174,-0.0861,-0.1419,-0.3616
-0.07,0.259,-0.238,10.3,-35.2,54.5,0,2018,4,25,16,18,51.971,0.9135,-0.0925,-0.1411,-0.3701
-0.016,0.204,-0.067,10.3,-57.6,72.9,0,2018,4,25,16,18,51.989,0.9082,-0.0988,-0.1408,-0.3814
-0.108,0.21,0.229,1.6,-106.9,84.5,0,2018,4,25,16,18,51.996,0.9011,-0.1101,-0.1379,-0.3959
-0.162,-0.224,0.447,-26.8,-129.9,89.7,0,2018,4,25,16,18,52.031,0.8925,-0.1271,-0.1287,-0.413
-0.257,-0.541,0.411,-43.1,-118.7,63.4,0,2018,4,25,16,18,52.051,0.8847,-0.1414,-0.1161,-0.4286
-0.105,-0.489,0.189,-62.4,-165.8,32.3,0,2018,4,25,16,18,52.057,0.8784,-0.1581,-0.0984,-0.44
-0.195,-0.304,0.047,-69.8,-194.2,6.7,1023,2018,4,25,16,18,52.093,0.8723,-0.1811,-0.0744,-0.4478
-0.038,-0.598,-0.039,-69.1,-146.6,-19.1,1023,2018,4,25,16,18,52.113,0.8677,-0.2027,-0.0486,-0.451
0.142,-0.244,-0.117,-51.7,-52.9,-34.5,1023,2018,4,25,16,18,52.119,0.8673,-0.2122,-0.031,-0.449
-0.045,0.188,-0.199,-42.8,-8.8,-25,1023,2018,4,25,16,18,52.155,0.8689,-0.2126,-0.0211,-0.4464
-0.053,0.535,-0.123,-43.5,-34.7,-12.7,1023,2018,4,25,16,18,52.157,0.8699,-0.2115,-0.0127,-0.4453
0.035,0.083,-0.045,-59.1,-61.4,7,1023,2018,4,25,16,18,52.177,0.8681,-0.2162,0.0002,-0.4467
0.05,0.328,-0.074,-58.5,-43.1,20,1023,2018,4,25,16,18,52.21,0.8653,-0.2184,0.012,-0.4508
0.146,0.182,-0.19,-60.3,-42.4,35.1,1023,2018,4,25,16,18,52.231,0.8611,-0.2203,0.024,-0.4574
0.148,0.223,-0.298,-46.4,-65.6,39.2,1023,2018,4,25,16,18,52.236,0.8559,-0.2236,0.0343,-0.4649
0.24,-0.159,-0.55,-15.2,-61.2,34.9,1023,2018,4,25,16,18,52.27,0.8498,-0.2318,0.0433,-0.4713
0.134,0.221,-0.227,7,-50.5,15.5,1023,2018,4,25,16,18,52.291,0.8456,-0.239,0.0463,-0.4749
0.189,-0.217,0.071,8.9,-66,-0.5,1023,2018,4,25,16,18,52.298,0.8426,-0.2493,0.0503,-0.4745
0.047,-0.025,0.224,15.3,-7.3,-6.8,1023,2018,4,25,16,18,52.334,0.8415,-0.2554,0.0517,-0.4732
0.114,0.14,0.07,13.6,-17.1,-13.7,0,2018,4,25,16,18,52.353,0.8423,-0.2571,0.0508,-0.4708
0.139,0.232,-0.137,21.9,-74.2,-13.4,0,2018,4,25,16,18,52.359,0.8415,-0.2648,0.0525,-0.4677
0.117,0.009,-0.279,35.6,-123,-28.2,0,2018,4,25,16,18,52.395,0.8385,-0.2823,0.0577,-0.4623
0.124,-0.068,-0.266,49.8,-137.9,-21.5,0,2018,4,25,16,18,52.414,0.8342,-0.3049,0.0636,-0.4549
-0.055,0.747,0.076,49.7,-201,11.8,0,2018,4,25,16,18,52.417,0.8269,-0.3315,0.068,-0.449
-0.154,0.294,0.868,8.1,-221.3,43.2,0,2018,4,25,16,18,52.452,0.8117,-0.3656,0.0794,-0.4483
-0.036,0.082,0.838,-31.5,-135.4,58.1,0,2018,4,25,16,18,52.472,0.7957,-0.3905,0.0918,-0.4537
0.158,0.57,0.195,-55.6,-201.5,73.1,0,2018,4,25,16,18,52.479,0.7787,-0.4097,0.1061,-0.463
0.135,0.378,-0.32,-59.9,-249.6,93.2,0,2018,4,25,16,18,52.512,0.7527,-0.4388,0.1275,-0.4738
0.038,-0.366,-0.212,-47,-91.8,92.1,0,2018,4,25,16,18,52.533,0.73,-0.4584,0.1413,-0.4866
-0.12,-0.004,0.016,-35.3,-72.3,81.2,0,2018,4,25,16,18,52.54,0.7166,-0.4653,0.1448,-0.4988
-0.065,-0.149,-0.171,-32.1,-174.1,73.1,0,2018,4,25,16,18,52.576,0.6986,-0.4795,0.1535,-0.5083
-0.137,-0.885,-0.487,-22.4,-194.6,45.9,0,2018,4,25,16,18,52.595,0.6743,-0.5038,0.1702,-0.5122
-0.19,-1.554,-0.575,4.1,3.1,-10.8,0,2018,4,25,16,18,52.6,0.6639,-0.5148,0.1783,-0.5121
-0.16,-0.846,-0.451,24.9,138.9,-59.9,0,2018,4,25,16,18,52.635,0.6753,-0.5053,0.1722,-0.5087
-0.062,-0.373,-0.178,33.3,168.9,-90.7,0,2018,4,25,16,18,52.656,0.6968,-0.4866,0.1613,-0.5015
-0.018,-0.242,-0.2,32.1,132,-113,0,2018,4,25,16,18,52.659,0.7194,-0.4675,0.1525,-0.4903
0.168,0.002,-0.156,39.9,142.8,-116.5,0,2018,4,25,16,18,52.696,0.7412,-0.4499,0.1456,-0.4763
0.17,0.521,-0.059,40,81.1,-107,0,2018,4,25,16,18,52.715,0.7603,-0.4361,0.14,-0.4604
0.343,1.152,0.014,40.9,23.6,-75.6,0,2018,4,25,16,18,52.721,0.7727,-0.4301,0.1374,-0.446
0.189,0.91,0.392,22.5,46,-19.3,0,2018,4,25,16,18,52.754,0.7785,-0.4285,0.135,-0.4381
0.006,1.206,0.639,-8.7,24.4,25.6,1023,2018,4,25,16,18,52.775,0.782,-0.4225,0.1296,-0.4393
0.068,0.41,0.326,-32.7,-5.6,52.8,1023,2018,4,25,16,18,52.78,0.7784,-0.4214,0.1297,-0.4467
-0.032,0.81,0.25,-42.4,-63,83.7,1023,2018,4,25,16,18,52.816,0.7705,-0.4229,0.1314,-0.4583
-0.169,0.51,0.076,-61.7,-208,111.9,1023,2018,4,25,16,18,52.835,0.7502,-0.4402,0.1425,-0.4723
-0.231,-0.276,-0.2,-68.9,-233.3,110.9,1023,2018,4,25,16,18,52.845,0.7202,-0.4681,0.1618,-0.4857
-0.215,-0.693,-0.326,-49.2,-153,85.4,1023,2018,4,25,16,18,52.88,0.6938,-0.4896,0.1774,-0.4973
-0.2,-0.491,-0.43,-25.8,-145.1,55.2,1023,2018,4,25,16,18,52.899,0.6744,-0.5055,0.1879,-0.5041
-0.186,-0.178,-0.483,-3.4,-205.4,34.2,1023,2018,4,25,16,18,52.902,0.6547,-0.5254,0.2005,-0.5049
-0.112,-0.183,-0.556,1.8,-290.8,14.3,1023,2018,4,25,16,18,52.94,0.6285,-0.555,0.2207,-0.4981
0.098,-0.357,-0.546,16.4,-278.5,-4.2,1023,2018,4,25,16,18,52.958,0.5993,-0.5872,0.2443,-0.4859
0.149,-0.53,-0.389,35.6,-195,-10.7,1023,2018,4,25,16,18,52.962,0.5761,-0.6135,0.2623,-0.472
0.186,-0.052,-0.194,42.5,-180.2,-20.8,1023,2018,4,25,16,18,52.996,0.5597,-0.6337,0.2746,-0.4578
0.152,-0.125,-0.263,55.1,-199.9,-31.2,0,2018,4,25,16,18,53.015,0.5427,-0.6549,0.2878,-0.44
0.188,-0.017,-0.019,53.4,-204.1,-32.1,0,2018,4,25,16,18,53.024,0.524,-0.6765,0.3022,-0.4199
0.216,0.138,0.053,55.2,-187.9,-24.9,0,2018,4,25,16,18,53.057,0.506,-0.6961,0.3143,-0.4006
0.24,-0.043,0.117,45.8,-174.7,-16.5,0,2018,4,25,16,18,53.079,0.4876,-0.7144,0.325,-0.3821
0.115,-0.101,0.303,32.7,-77.8,-3.2,0,2018,4,25,16,18,53.086,0.4735,-0.7277,0.332,-0.3686
-0.024,0.225,0.655,8,-58.4,0,0,2018,4,25,16,18,53.121,0.4684,-0.7331,0.3336,-0.3629
0.037,-0.252,0.67,-31.4,-109.2,-4,0,2018,4,25,16,18,53.14,0.4552,-0.74,0.3415,-0.3583
0.081,0.124,0.575,-57.5,-79.8,1.9,0,2018,4,25,16,18,53.142,0.4407,-0.7441,0.351,-0.3586
-0.075,0.037,0.06,-72.1,-97.1,11.5,0,2018,4,25,16,18,53.178,0.4248,-0.7469,0.3606,-0.3626
-0.141,-0.18,-0.658,-50.8,-79.6,15.4,0,2018,4,25,16,18,53.197,0.4078,-0.7504,0.3692,-0.3662
-0.337,-0.451,-0.918,3.3,-52.6,3.8,0,2018,4,25,16,18,53.203,0.397,-0.7542,0.3735,-0.3659
-0.144,-0.146,-0.566,47.8,18.5,-7.3,0,2018,4,25,16,18,53.238,0.3971,-0.7569,0.3728,-0.3609
-0.088,-0.017,-0.586,74.4,60.8,-12.9,0,2018,4,25,16,18,53.259,0.4078,-0.7569,0.367,-0.355
0.021,0.084,-0.322,92.8,30.2,-13.5,0,2018,4,25,16,18,53.265,0.4204,-0.7578,0.3598,-0.3456
0.035,0.206,0.078,91.1,11.1,-9.7,0,2018,4,25,16,18,53.299,0.4297,-0.761,0.3535,-0.3334
0.082,-0.092,0.083,94.2,21.5,-4.8,0,2018,4,25,16,18,53.32,0.4376,-0.7647,0.3472,-0.321
0.185,0.23,0.437,88.9,48.1,1.3,0,2018,4,25,16,18,53.329,0.4493,-0.7663,0.3376,-0.311
0.229,0.067,1.067,48.3,32.1,-2.3,0,2018,4,25,16,18,53.365,0.4588,-0.7669,0.3298,-0.304
-0.009,-0.206,0.605,4,-0.3,-13.7,0,2018,4,25,16,18,53.366,0.4619,-0.7666,0.3285,-0.3013
0.18,0.147,0.582,-22.7,27.3,-7.4,0,2018,4,25,16,18,53.384,0.4633,-0.7645,0.3303,-0.3026
0.188,0.187,0.476,-52.7,43.9,1,0,2018,4,25,16,18,53.42,0.4667,-0.759,0.3315,-0.3099
0.097,0.168,0.304,-82.5,-15.7,5.6,0,2018,4,25,16,18,53.44,0.4647,-0.754,0.3358,-0.3203
0.144,-0.013,-0.276,-89.9,-31.5,14.6,1023,2018,4,25,16,18,53.447,0.4547,-0.752,0.3434,-0.331
-0.169,-0.26,-0.57,-67.3,-38.5,5,1023,2018,4,25,16,18,53.482,0.4454,-0.7504,0.3498,-0.3405
-0.363,-0.202,-0.764,-32.2,-54,3.3,1023,2018,4,25,16,18,53.502,0.4349,-0.7518,0.3564,-0.3442
0.055,0.142,-0.735,13.9,-0.1,4.9,1023,2018,4,25,16,18,53.505,0.4316,-0.7532,0.3575,-0.344
-0.186,-0.186,-0.654,51.3,-22,-4.3,1023,2018,4,25,16,18,53.539,0.4312,-0.7566,0.3562,-0.3385
-0.05,0.064,-0.243,72.5,-7.1,-2.4,1023,2018,4,25,16,18,53.56,0.4334,-0.7612,0.3526,-0.3289
0.025,0.114,-0.146,81.2,4.9,-0.4,1023,2018,4,25,16,18,53.567,0.4381,-0.7656,0.347,-0.3183
0.248,0.084,-0.056,92.2,48.6,6.8,1023,2018,4,25,16,18,53.604,0.4469,-0.7685,0.3384,-0.3083
0.191,0.163,0.708,72,35.2,13.1,1023,2018,4,25,16,18,53.624,0.4572,-0.7701,0.3279,-0.3004
0.265,-0.1,1.249,20.4,14.7,5,1023,2018,4,25,16,18,53.633,0.4622,-0.7714,0.3218,-0.2961
-0.166,-0.249,0.408,-11.8,0.9,-7.4,1023,2018,4,25,16,18,53.649,0.4637,-0.7703,0.3215,-0.2966
0.109,0.059,0.508,-35.1,5.6,-1.9,1023,2018,4,25,16,18,53.667,0.4628,-0.7687,0.324,-0.2996
0.121,0.039,0.389,-60.1,-1.6,-1.6,0,2018,4,25,16,18,53.703,0.4609,-0.7656,0.3278,-0.3063
0.127,0.025,0.253,-81.9,-27.9,-1.8,0,2018,4,25,16,18,53.722,0.4546,-0.7629,0.3348,-0.3148
0.174,-0.041,-0.232,-88.8,-34.2,5.2,0,2018,4,25,16,18,53.729,0.4449,-0.7607,0.3433,-0.3246
-0.133,-0.117,-0.574,-72.4,-22.4,3.4,0,2018,4,25,16,18,53.765,0.4364,-0.7581,0.3502,-0.3345
-0.354,-0.312,-0.565,-40.2,-34.8,-7.8,0,2018,4,25,16,18,53.784,0.4294,-0.7568,0.3563,-0.3402
0.004,0.03,-0.688,4.6,-1.7,-7.9,0,2018,4,25,16,18,53.789,0.4257,-0.7571,0.3602,-0.34
-0.19,-0.073,-0.58,34.9,-24.9,-6.7,0,2018,4,25,16,18,53.822,0.4267,-0.7584,0.3598,-0.3362
-0.041,0.005,-0.223,54.4,-19.9,-6.8,0,2018,4,25,16,18,53.844,0.4268,-0.7625,0.3588,-0.3279
0.033,0.161,-0.006,57.4,-9.6,-2.9,0,2018,4,25,16,18,53.851,0.4283,-0.7668,0.3564,-0.3184
0.068,0.065,0.093,55.5,4,0,0,2018,4,25,16,18,53.885,0.432,-0.7697,0.3528,-0.3101
0.148,0.047,0.144,54.1,19.7,2,0,2018,4,25,16,18,53.906,0.4376,-0.7715,0.348,-0.3034
0.179,0.115,0.493,36.6,9.8,5.1,0,2018,4,25,16,18,53.908,0.4423,-0.773,0.3431,-0.2984
0.195,0.143,0.751,4.6,19.1,5.9,0,2018,4,25,16,18,53.943,0.4451,-0.7733,0.34,-0.2968
0.004,-0.135,0.197,-13.4,43.4,6.2,0,2018,4,25,16,18,53.964,0.4481,-0.7711,0.3383,-0.2999
0.15,-0.213,0.139,-13.6,144.7,11,0,2018,4,25,16,18,53.969,0.4594,-0.7635,0.3333,-0.3078
0.101,-0.094,0.067,-21.6,181.1,7.1,0,2018,4,25,16,18,54.004,0.4815,-0.7484,0.3235,-0.3212
0.102,-0.141,0.145,-34.6,126.3,4.1,0,2018,4,25,16,18,54.025,0.499,-0.7342,0.3167,-0.3338
0.069,-0.169,0.085,-41.3,109.3,0.7,0,2018,4,25,16,18,54.031,0.5117,-0.7217,0.3129,-0.3453
0.06,0.008,-0.06,-41.3,93.3,1.7,0,2018,4,25,16,18,54.067,0.5224,-0.7098,0.3112,-0.3555
0.055,-0.142,-0.196,-30.5,143.9,6.8,0,2018,4,25,16,18,54.087,0.5341,-0.6973,0.307,-0.3662
-0.11,-0.019,-0.043,-23.7,222.6,15.3,0,2018,4,25,16,18,54.089,0.5542,-0.6785,0.2965,-0.3799
-0.153,-0.201,0.111,-18,310.2,13.5,1023,2018,4,25,16,18,54.125,0.5827,-0.6518,0.2785,-0.3973
0.002,-0.148,-0.314,-6,385.9,10.5,1023,2018,4,25,16,18,54.147,0.6206,-0.6141,0.253,-0.4166
0.061,-0.179,-0.513,7.2,366,2.6,1023,2018,4,25,16,18,54.151,0.6597,-0.5717,0.2236,-0.4333
0.036,0.028,-0.215,16.1,303.9,-2.4,1023,2018,4,25,16,18,54.19,0.6925,-0.5332,0.1964,-0.4444
0.085,0.052,-0.12,15.4,242.5,-10.9,1023,2018,4,25,16,18,54.208,0.718,-0.5008,0.1744,-0.4506
0.157,-0.156,-0.265,22.8,168.1,-23.2,1023,2018,4,25,16,18,54.212,0.7374,-0.4756,0.1574,-0.4528
0.045,0.189,-0.43,37.5,78.7,-29.2,1023,2018,4,25,16,18,54.246,0.7501,-0.4619,0.1462,-0.4499
-0.021,-0.49,0.054,26.6,111.9,-33.2,1023,2018,4,25,16,18,54.265,0.7591,-0.4546,0.1387,-0.4446
-0.108,0.544,0.422,23.3,90.7,-49.4,1023,2018,4,25,16,18,54.274,0.7733,-0.4385,0.1288,-0.4393
0.125,-0.126,-0.175,13.8,25,-53.6,1023,2018,4,25,16,18,54.312,0.7807,-0.4329,0.128,-0.4319
0.085,-0.077,-0.196,22.2,73.6,-53.4,1023,2018,4,25,16,18,54.332,0.7889,-0.426,0.1259,-0.4245
0.021,0.166,0.019,29.2,87.1,-50.5,1023,2018,4,25,16,18,54.335,0.7996,-0.4151,0.1202,-0.4169
0.122,0.636,0.175,23.1,47,-34.9,0,2018,4,25,16,18,54.373,0.8084,-0.4062,0.1144,-0.4103
0.139,0.88,0.239,9.8,-6.6,3.2,0,2018,4,25,16,18,54.377,0.8112,-0.4043,0.112,-0.4072
0.081,0.907,0.258,-8.9,-103.4,44.6,0,2018,4,25,16,18,54.394,0.8055,-0.4125,0.1138,-0.4097
0.11,0.341,0.132,-26.1,-126.4,72.1,0,2018,4,25,16,18,54.43,0.7914,-0.4301,0.1213,-0.4169
0.102,0.582,0.075,-32.5,-116.3,97.3,0,2018,4,25,16,18,54.451,0.7755,-0.4458,0.1274,-0.4282
0.092,0.375,0.104,-42.5,-91.9,124.2,0,2018,4,25,16,18,54.456,0.7577,-0.4597,0.132,-0.4438
-0.208,0.299,0.256,-59.8,-191.7,123.2,0,2018,4,25,16,18,54.493,0.7365,-0.475,0.138,-0.4612
-0.217,-0.592,-0.117,-74.2,-175.5,117.1,0,2018,4,25,16,18,54.515,0.707,-0.4981,0.1536,-0.4778
-0.192,-0.77,-0.196,-55.2,-110.5,81.4,0,2018,4,25,16,18,54.52,0.6849,-0.5117,0.1641,-0.4919
-0.267,-0.29,-0.329,-31.1,-152.5,52.5,0,2018,4,25,16,18,54.539,0.667,-0.5242,0.1738,-0.4999
-0.134,-0.094,-0.588,-16.3,-282.4,25.4,0,2018,4,25,16,18,54.559,0.6422,-0.549,0.1921,-0.4991
0.078,-0.421,-0.336,-2.2,-278.5,4.2,0,2018,4,25,16,18,54.58,0.612,-0.5806,0.217,-0.491
0.193,-0.308,-0.02,-3.2,-205.5,1,0,2018,4,25,16,18,54.599,0.5866,-0.6059,0.2376,-0.4819
0.227,-0.249,-0.12,-1.3,-99.6,-0.3,0,2018,4,25,16,18,54.615,0.5703,-0.621,0.2505,-0.4756
0.155,-0.251,-0.176,7.7,-4.5,-5.4,0,2018,4,25,16,18,54.656,0.5654,-0.6262,0.2546,-0.4724
0.196,-0.08,-0.109,18.5,105.5,0,0,2018,4,25,16,18,54.673,0.5719,-0.622,0.2493,-0.4729
0.207,-0.195,-0.107,29.1,226,-1.1,0,2018,4,25,16,18,54.678,0.5913,-0.6066,0.2329,-0.4775
0.076,0.092,-0.026,31.5,270.2,1.5,0,2018,4,25,16,18,54.699,0.6192,-0.5822,0.2085,-0.4836
0.064,-0.044,0.029,29.2,335.1,-2.8,0,2018,4,25,16,18,54.719,0.6509,-0.5505,0.18,-0.4906
0.008,0.189,0.276,13.1,319.5,0.6,0,2018,4,25,16,18,54.739,0.6827,-0.5134,0.1488,-0.4981
0.115,-0.201,0.05,10.5,293.1,-3.7,0,2018,4,25,16,18,54.76,0.7091,-0.4774,0.1212,-0.5044
0.243,0.002,-0.205,26.5,234.6,-12.2,1023,2018,4,25,16,18,54.781,0.7325,-0.4449,0.0958,-0.5062
0.084,0.029,-0.216,37.4,188.9,-7.2,1023,2018,4,25,16,18,54.8,0.7492,-0.4207,0.0741,-0.5059
0.024,0.446,-0.174,33.4,65,-9.3,1023,2018,4,25,16,18,54.817,0.7594,-0.4071,0.0584,-0.504
0,-0.292,-0.098,25,39.8,-23.2,1023,2018,4,25,16,18,54.838,0.764,-0.4041,0.0522,-0.5
-0.025,-1.003,-0.197,25.3,190.9,-46.3,1023,2018,4,25,16,18,54.857,0.7743,-0.3921,0.0424,-0.4947
-0.04,-0.479,-0.155,31.9,322.3,-73.2,1023,2018,4,25,16,18,54.88,0.7976,-0.3571,0.0189,-0.4856
-0.046,0.088,0.083,19.5,333.7,-83.5,1023,2018,4,25,16,18,54.899,0.8239,-0.3117,-0.0081,-0.473
-0.23,0.921,-0.139,9.8,303.7,-46.4,1023,2018,4,25,16,18,54.919,0.846,-0.265,-0.0321,-0.4614
0.172,0.678,-0.146,-24.1,95.2,-26,1023,2018,4,25,16,18,54.938,0.8579,-0.2348,-0.0446,-0.4547
0.213,0.091,-0.252,-17.7,2.5,-21.1,1023,2018,4,25,16,18,54.977,0.8615,-0.2287,-0.0432,-0.4511
0.008,0.042,-0.167,2.3,11.2,-19.3,1023,2018,4,25,16,18,54.997,0.8634,-0.2278,-0.0422,-0.4481
-0.021,0.296,0.036,1,-8.8,-14.3,1023,2018,4,25,16,18,55.002,0.865,-0.2268,-0.0424,-0.4454
0.105,0.374,0.175,-9.1,-71,-4.8,0,2018,4,25,16,18,55.023,0.8643,-0.2323,-0.0384,-0.4444
0.297,0.502,0.106,-13.9,-192,15.7,0,2018,4,25,16,18,55.042,0.8583,-0.2509,-0.0264,-0.4467
0.287,0.557,0.05,-19.1,-319.5,33.3,0,2018,4,25,16,18,55.063,0.8439,-0.2888,-0.0047,-0.4519
0.176,0.455,0.065,-22.7,-393.4,49.1,0,2018,4,25,16,18,55.083,0.8207,-0.3396,0.0245,-0.4587
0.066,0.374,0.008,-32.6,-450.9,57.9,0,2018,4,25,16,18,55.099,0.7887,-0.3975,0.0594,-0.465
0.071,0.37,-0.151,-43,-488.5,65.4,0,2018,4,25,16,18,55.134,0.7476,-0.4589,0.0984,-0.4697
0.069,0.131,-0.282,-54.4,-481.3,65.6,0,2018,4,25,16,18,55.155,0.6993,-0.5176,0.1392,-0.4727
-0.119,-0.015,-0.163,-66.8,-501.8,51.1,0,2018,4,25,16,18,55.162,0.6459,-0.5723,0.1813,-0.4715
-0.068,-0.501,-0.271,-70.3,-446.9,29.6,0,2018,4,25,16,18,55.183,0.5896,-0.62,0.224,-0.4665
-0.19,-0.158,-0.582,-53.7,-432.8,-2,0,2018,4,25,16,18,55.203,0.5377,-0.6578,0.2639,-0.4564
-0.037,-0.512,-1.223,-18.2,-404.4,-21.3,0,2018,4,25,16,18,55.223,0.4859,-0.6929,0.3025,-0.4383
0.12,-0.643,-0.882,36,-194.6,-22.3,0,2018,4,25,16,18,55.243,0.4515,-0.7169,0.3269,-0.4185
-0.008,0.061,-0.326,62.1,-137.8,-24.3,0,2018,4,25,16,18,55.265,0.4374,-0.7308,0.3364,-0.4016
-0.01,-0.137,-0.212,66.3,-136.9,-24.4,0,2018,4,25,16,18,55.285,0.4242,-0.7449,0.3448,-0.3823
0.122,-0.675,-0.52,84.2,-41.4,-35.5,0,2018,4,25,16,18,55.305,0.418,-0.7549,0.3497,-0.3645
0.091,0.604,0.122,96.7,-15.5,-21.4,0,2018,4,25,16,18,55.321,0.4242,-0.7597,0.3473,-0.3495
0.165,0.019,0.592,68.9,-36.6,-16.5,0,2018,4,25,16,18,55.341,0.4251,-0.7664,0.3462,-0.3344
0.041,0.228,1.257,20.5,10,-10.3,0,2018,4,25,16,18,55.362,0.428,-0.7685,0.3444,-0.3278
-0.084,-0.154,0.588,-14,-24.3,-14.1,0,2018,4,25,16,18,55.382,0.4271,-0.7687,0.347,-0.3257
0.249,-0.03,0.319,-27.5,13.8,-3.5,0,2018,4,25,16,18,55.403,0.4261,-0.7671,0.3498,-0.3279
0.259,0.058,0.226,-39.7,18.2,7.7,1023,2018,4,25,16,18,55.421,0.4261,-0.7641,0.3509,-0.3337
0.137,-0.015,0.11,-50.2,-20.5,7.7,1023,2018,4,25,16,18,55.442,0.423,-0.7618,0.3531,-0.3404
0.148,-0.085,0.025,-56.6,-32.7,11.7,1023,2018,4,25,16,18,55.467,0.4147,-0.7615,0.3577,-0.3463
-0.094,-0.174,-0.518,-44.9,-9.1,6.9,1023,2018,4,25,16,18,55.486,0.4084,-0.7603,0.3614,-0.3527
-0.278,-0.324,-0.648,-10.7,-22.4,-8.7,1023,2018,4,25,16,18,55.506,0.4055,-0.7592,0.364,-0.3556
-0.01,0.155,-0.127,16.6,6.6,-4.3,1023,2018,4,25,16,18,55.526,0.4047,-0.7601,0.3654,-0.3533
-0.12,-0.089,-0.267,26.6,0.7,-10.3,1023,2018,4,25,16,18,55.545,0.407,-0.7607,0.3645,-0.3503
-0.022,0,-0.378,45.3,-5.1,-14.3,1023,2018,4,25,16,18,55.585,0.4094,-0.7624,0.364,-0.3442
-0.033,0.04,-0.346,61.3,-2.4,-12.8,1023,2018,4,25,16,18,55.589,0.413,-0.7651,0.3622,-0.3358
0.105,0.156,-0.299,79.7,25.3,-6,1023,2018,4,25,16,18,55.606,0.4198,-0.7676,0.3577,-0.3263
0.172,0.348,0.316,78.2,6.5,7.3,1023,2018,4,25,16,18,55.624,0.4273,-0.7709,0.3503,-0.3165
0.16,0.068,0.893,41.2,10.5,4.3,0,2018,4,25,16,18,55.641,0.4314,-0.7742,0.3446,-0.3092
0.285,0.06,0.821,-3.8,-4,1.4,0,2018,4,25,16,18,55.681,0.4327,-0.775,0.3427,-0.3073
0.17,-0.041,0.322,-18,-6.2,-0.1,0,2018,4,25,16,18,55.702,0.4307,-0.7751,0.3443,-0.3083
0.232,0.086,0.305,-33.9,14.8,7.9,0,2018,4,25,16,18,55.706,0.4299,-0.7734,0.3452,-0.3125
0.071,-0.037,0.282,-53,-9.5,5.5,0,2018,4,25,16,18,55.725,0.4273,-0.7711,0.3474,-0.3192
0.068,-0.058,0.208,-68.9,-23.4,2.1,0,2018,4,25,16,18,55.746,0.4212,-0.7691,0.3524,-0.3268
0.118,-0.001,-0.07,-77.9,-25.9,3.1,0,2018,4,25,16,18,55.767,0.4131,-0.7667,0.3589,-0.3354
-0.033,-0.104,-0.457,-65,-16.9,2.7,0,2018,4,25,16,18,55.788,0.4054,-0.7641,0.365,-0.344
-0.254,-0.173,-0.778,-32.4,-35.8,-2.4,0,2018,4,25,16,18,55.808,0.3988,-0.7629,0.37,-0.349
-0.075,0.171,-0.342,5.5,-4.9,2.1,0,2018,4,25,16,18,55.828,0.3945,-0.7642,0.3726,-0.3483
-0.151,-0.041,-0.361,26.2,-25.7,-4,0,2018,4,25,16,18,55.846,0.3944,-0.7658,0.3722,-0.3453
-0.032,-0.102,-0.324,47.4,-34.9,-9.9,0,2018,4,25,16,18,55.866,0.3925,-0.7701,0.3729,-0.3372
0.082,-0.06,-0.327,64.1,-6.6,-7.1,0,2018,4,25,16,18,55.887,0.3936,-0.7743,0.3715,-0.3275
0.188,0.18,-0.009,72.5,36.4,2,0,2018,4,25,16,18,55.906,0.4009,-0.7768,0.366,-0.3191
0.195,0.223,0.669,53.6,22.5,5.9,0,2018,4,25,16,18,55.942,0.4094,-0.7783,0.3588,-0.3127
0.245,-0.03,0.956,8.3,-23,2.5,0,2018,4,25,16,18,55.964,0.4099,-0.7807,0.3566,-0.3085
-0.038,-0.209,0.343,-21.5,-38.3,-2.4,0,2018,4,25,16,18,55.968,0.4051,-0.7823,0.3589,-0.3081
0.203,0.083,0.46,-38.7,-21.8,1.1,0,2018,4,25,16,18,55.989,0.3986,-0.7829,0.3631,-0.31
0.186,0.096,0.299,-57.7,5.6,6.2,0,2018,4,25,16,18,56.011,0.3946,-0.7809,0.3662,-0.3166
0.105,0.007,0.098,-76.1,-13.8,4.3,0,2018,4,25,16,18,56.03,0.3899,-0.7774,0.3701,-0.3263
0.117,-0.121,-0.262,-79.9,-52.7,2.5,0,2018,4,25,16,18,56.046,0.3796,-0.7755,0.3775,-0.3344
-0.062,-0.189,-0.586,-56.3,-31.8,0.9,1023,2018,4,25,16,18,56.065,0.3688,-0.7744,0.3844,-0.3411
-0.358,-0.151,-0.724,-15.4,-8.1,-3,1023,2018,4,25,16,18,56.088,0.364,-0.7734,0.388,-0.3445
0,0.164,-0.329,15.3,18.4,0.6,1023,2018,4,25,16,18,56.108,0.3654,-0.773,0.3875,-0.3445
-0.127,-0.107,-0.347,32.8,-30.9,-7.3,1023,2018,4,25,16,18,56.128,0.3663,-0.7747,0.3868,-0.3403
-0.039,-0.098,-0.351,50.8,-25.2,-12.8,1023,2018,4,25,16,18,56.148,0.3655,-0.7785,0.3876,-0.3316
0.086,-0.032,-0.37,69.1,14.5,-9.4,1023,2018,4,25,16,18,56.168,0.3693,-0.7816,0.3857,-0.3222
0.127,0.216,-0.051,82.2,54.7,-0.1,1023,2018,4,25,16,18,56.188,0.3803,-0.7828,0.3791,-0.314
0.093,0.19,0.772,62.3,38.5,5.1,1023,2018,4,25,16,18,56.208,0.3915,-0.784,0.3711,-0.3069
0.176,0.097,0.861,20.3,18,3.4,1023,2018,4,25,16,18,56.247,0.3977,-0.7845,0.3663,-0.3035
0.078,-0.102,0.394,-11.3,4.6,-0.1,1023,2018,4,25,16,18,56.269,0.3994,-0.7838,0.3651,-0.3044
0.155,0.136,0.378,-27.6,1.8,3.8,1023,2018,4,25,16,18,56.274,0.3975,-0.7829,0.3667,-0.3071
0.172,0.095,0.183,-42.3,16.4,10,1023,2018,4,25,16,18,56.292,0.3963,-0.7807,0.3676,-0.3131
0.106,-0.025,0.145,-54.7,4.1,10.8,0,2018,4,25,16,18,56.313,0.3939,-0.7781,0.3689,-0.3212
0.044,-0.102,0.014,-63.2,-9.5,5.6,0,2018,4,25,16,18,56.332,0.3901,-0.7749,0.3722,-0.3295
-0.012,-0.113,-0.32,-60.9,-31.5,2.9,0,2018,4,25,16,18,56.349,0.3828,-0.773,0.3777,-0.3364
-0.136,-0.171,-0.639,-33.2,-14.1,0.5,0,2018,4,25,16,18,56.37,0.376,-0.7719,0.3822,-0.3413
-0.248,-0.014,-0.585,7.2,7.6,2.3,0,2018,4,25,16,18,56.39,0.375,-0.7713,0.3829,-0.3429
-0.111,-0.021,-0.311,24.2,-22.7,5.1,0,2018,4,25,16,18,56.41,0.3757,-0.7728,0.3812,-0.3408
-0.255,-0.247,-0.379,36.7,-78.7,-6.4,0,2018,4,25,16,18,56.429,0.3695,-0.7785,0.3828,-0.3326
0.01,-0.189,-0.357,54.9,-35.4,-12.8,0,2018,4,25,16,18,56.468,0.3647,-0.7844,0.3849,-0.3215
0.101,0.053,-0.176,70.5,19.8,-9.6,0,2018,4,25,16,18,56.489,0.3691,-0.7874,0.3827,-0.3116
0.148,0.151,0.253,70.2,30.3,-5.3,0,2018,4,25,16,18,56.494,0.3785,-0.7888,0.3775,-0.3029
0.135,0.126,0.727,45.8,9.8,-2.7,0,2018,4,25,16,18,56.512,0.3853,-0.7903,0.373,-0.2959
0.254,0.021,0.733,10.1,-12.9,-4.6,0,2018,4,25,16,18,56.528,0.3868,-0.7918,0.3719,-0.2917
0.092,-0.176,0.218,-12.9,-7.8,-8.8,0,2018,4,25,16,18,56.549,0.3853,-0.7918,0.3736,-0.2912
0.199,0.083,0.244,-24.7,4.8,-2,0,2018,4,25,16,18,56.568,0.384,-0.7906,0.3757,-0.2935
0.179,0.046,0.203,-37.2,19.4,3.7,0,2018,4,25,16,18,56.607,0.3839,-0.7881,0.3768,-0.2989
0.1,-0.055,0.174,-48.2,3.3,1.4,0,2018,4,25,16,18,56.626,0.3825,-0.7853,0.3786,-0.3058
0.065,-0.074,0.135,-59.6,-17.8,-2.3,0,2018,4,25,16,18,56.634,0.3781,-0.7827,0.3827,-0.3127
0.001,-0.041,-0.108,-64.9,-46.3,-3.7,0,2018,4,25,16,18,56.651,0.37,-0.7809,0.3892,-0.3188
-0.077,-0.107,-0.419,-50.1,-40.2,-2,0,2018,4,25,16,18,56.672,0.3594,-0.7806,0.3963,-0.3229
-0.226,-0.115,-0.726,-15.4,-21.8,1.8,0,2018,4,25,16,18,56.71,0.353,-0.7806,0.4,-0.3254
0.02,0.089,-0.334,15.7,22.3,8.2,0,2018,4,25,16,18,56.731,0.3525,-0.7812,0.3993,-0.3252
-0.042,-0.103,-0.088,27.2,46.9,7.1,0,2018,4,25,16,18,56.735,0.3588,-0.7808,0.3945,-0.3251
0.057,-0.044,-0.126,34.4,47,2.3,1023,2018,4,25,16,18,56.75,0.3674,-0.7799,0.3895,-0.3238
0.086,-0.005,-0.147,37.3,32,-0.1,1023,2018,4,25,16,18,56.79,0.3752,-0.7795,0.385,-0.3213
0.125,0.023,-0.102,43.4,25.5,-0.9,1023,2018,4,25,16,18,56.811,0.3816,-0.7799,0.3809,-0.3176
0.121,0.083,0.078,45.1,31.2,3.5,1023,2018,4,25,16,18,56.815,0.3885,-0.7805,0.3765,-0.313
0.16,0.175,0.378,33.5,52,9.7,1023,2018,4,25,16,18,56.833,0.3966,-0.7802,0.3705,-0.3106
0.115,0.091,0.558,12,84.8,16.9,1023,2018,4,25,16,18,56.852,0.4065,-0.7776,0.3634,-0.3129
0.077,0.048,0.476,-9.7,88.2,19.3,1023,2018,4,25,16,18,56.873,0.4178,-0.7722,0.3558,-0.3199
0.035,-0.086,0.34,-26.6,95.1,22.6,1023,2018,4,25,16,18,56.893,0.4271,-0.7661,0.3495,-0.3292
0.043,-0.028,0.276,-38.3,165.2,31.9,1023,2018,4,25,16,18,56.913,0.4404,-0.7561,0.3409,-0.3434
0.021,0.022,0.27,-46.2,276.7,48.9,1023,2018,4,25,16,18,56.954,0.4643,-0.7383,0.3254,-0.3651
0.015,0.042,0.188,-46,383.1,67.8,1023,2018,4,25,16,18,56.974,0.5003,-0.7102,0.2994,-0.3944
-0.028,-0.056,-0.087,-42.2,432.8,79.8,1023,2018,4,25,16,18,56.978,0.5429,-0.6727,0.2649,-0.4269
-0.054,-0.169,-0.226,-33.9,513.2,97.8,0,2018,4,25,16,18,56.997,0.5873,-0.6275,0.2222,-0.4602
-0.011,0.121,-0.304,-16.9,572.7,111.2,0,2018,4,25,16,18,57.016,0.6355,-0.5699,0.1676,-0.493
0.019,0.392,-0.222,6.5,494.7,122.7,0,2018,4,25,16,18,57.037,0.6762,-0.5099,0.1088,-0.5204
-0.027,0.184,-0.146,18,362.6,125.2,0,2018,4,25,16,18,57.059,0.7003,-0.4625,0.0577,-0.5405
-0.065,0.089,-0.024,27.7,277.7,115.3,0,2018,4,25,16,18,57.074,0.7133,-0.4263,0.0144,-0.556
-0.006,-0.056,-0.017,38,204.1,97.5,0,2018,4,25,16,18,57.095,0.7201,-0.3994,-0.0209,-0.5669
-0.045,-0.113,-0.021,42.2,104.9,82.5,0,2018,4,25,16,18,57.116,0.7213,-0.3843,-0.0469,-0.5741
-0.03,-0.226,-0.04,41.5,53.5,69.3,0,2018,4,25,16,18,57.153,0.7181,-0.3789,-0.0644,-0.5801
-0.028,-0.216,-0.072,41.4,41.2,56.1,0,2018,4,25,16,18,57.175,0.7143,-0.3766,-0.0785,-0.5845
-0.116,-0.336,0.145,32.8,68.4,44.5,0,2018,4,25,16,18,57.179,0.712,-0.3732,-0.092,-0.5875
0.001,-0.329,0.765,3.6,40.1,-7.1,0,2018,4,25,16,18,57.197,0.7147,-0.3651,-0.1036,-0.5874
-0.077,-0.144,0.554,-24.7,-66.5,-3.6,0,2018,4,25,16,18,57.216,0.7139,-0.3671,-0.0988,-0.5879
0.04,-0.115,0.012,-35,-71.8,0,0,2018,4,25,16,18,57.236,0.71,-0.3727,-0.0866,-0.5911
0.155,-0.154,-0.275,-22.5,-45.7,-2.9,0,2018,4,25,16,18,57.255,0.7067,-0.3771,-0.0763,-0.5937
0.212,-0.112,-0.316,5.8,1.4,-13.1,0,2018,4,25,16,18,57.275,0.7061,-0.3792,-0.0724,-0.5935
0.239,-0.006,0.004,27,57,-20.7,0,2018,4,25,16,18,57.296,0.7097,-0.3774,-0.0768,-0.5897
0.274,0.313,0.351,24.8,57.5,-21,0,2018,4,25,16,18,57.315,0.7158,-0.3727,-0.0854,-0.5842
0.352,0.532,0.383,7.3,4.2,-5.6,0,2018,4,25,16,18,57.353,0.719,-0.3705,-0.0897,-0.581
0.276,0.368,0.284,-5.3,-73.4,10.3,0,2018,4,25,16,18,57.373,0.7164,-0.3751,-0.0862,-0.5818
0.286,-0.023,0.101,-11.4,-88,24.8,0,2018,4,25,16,18,57.377,0.7087,-0.3851,-0.077,-0.586
0.237,-0.005,0.053,-11,-23.8,35.4,0,2018,4,25,16,18,57.416,0.7018,-0.3904,-0.072,-0.5913
0.117,0.083,0.01,-14.6,-11,44.9,0,2018,4,25,16,18,57.437,0.6971,-0.3899,-0.0719,-0.5973
-0.012,0.021,-0.083,-17.8,-32.8,50.6,1023,2018,4,25,16,18,57.442,0.6908,-0.3897,-0.071,-0.6047
-0.14,-0.136,-0.092,-16.8,-44,48.8,1023,2018,4,25,16,18,57.46,0.6828,-0.3924,-0.0682,-0.6124
-0.257,-0.381,-0.128,-13,-30.1,35.7,1023,2018,4,25,16,18,57.481,0.6757,-0.3948,-0.0651,-0.619
-0.385,-0.54,-0.219,-2.2,-5.7,10.6,1023,2018,4,25,16,18,57.5,0.6719,-0.3959,-0.0638,-0.6226
-0.279,-0.387,-0.184,17.1,55.3,-20.4,1023,2018,4,25,16,18,57.518,0.6742,-0.394,-0.067,-0.6209
-0.346,0.078,-0.05,15.3,29.4,-42.6,1023,2018,4,25,16,18,57.536,0.6811,-0.3902,-0.0725,-0.6151
-0.183,-0.067,-0.128,19.3,16.9,-55.1,1023,2018,4,25,16,18,57.556,0.6873,-0.3907,-0.0728,-0.6079
-0.068,-0.006,-0.071,22.8,32.2,-60.3,1023,2018,4,25,16,18,57.577,0.6949,-0.3908,-0.0742,-0.599
0.089,0.135,0.018,22.2,35.8,-58.4,1023,2018,4,25,16,18,57.597,0.7033,-0.3894,-0.0767,-0.5897
0.239,0.325,0.145,14.7,22.2,-46.6,1023,2018,4,25,16,18,57.634,0.7105,-0.3884,-0.0784,-0.5815
0.351,0.354,0.222,1.2,8.9,-24.3,1023,2018,4,25,16,18,57.655,0.7149,-0.3879,-0.0784,-0.5762
0.426,0.392,0.282,-10.8,-8.2,-1.8,1023,2018,4,25,16,18,57.659,0.7163,-0.3873,-0.0772,-0.5751
0.387,0.238,0.268,-22.4,-49,13,1023,2018,4,25,16,18,57.68,0.714,-0.389,-0.0727,-0.5775
0.356,-0.056,0.136,-22.7,-42.7,24.5,0,2018,4,25,16,18,57.7,0.7087,-0.3932,-0.0655,-0.582
0.316,0.062,0.073,-24.8,-14.1,33.7,0,2018,4,25,16,18,57.738,0.7042,-0.3935,-0.062,-0.5875
0.242,0.11,0.078,-25.5,-14.8,42.6,0,2018,4,25,16,18,57.759,0.6997,-0.392,-0.0603,-0.5941
0.115,-0.005,0.064,-25.9,-35,48.1,0,2018,4,25,16,18,57.763,0.6934,-0.3919,-0.0576,-0.6018
-0.032,-0.214,0.032,-26.6,-39.6,43.2,0,2018,4,25,16,18,57.779,0.6863,-0.3935,-0.0524,-0.6093
-0.127,-0.369,0.043,-23.8,-11.2,30.6,0,2018,4,25,16,18,57.798,0.6808,-0.3935,-0.0491,-0.6157
-0.305,-0.352,0.224,-24,-11,9.2,0,2018,4,25,16,18,57.819,0.6784,-0.3915,-0.0473,-0.6197
-0.369,-0.083,0.209,-35.5,-93.9,-20.7,0,2018,4,25,16,18,57.838,0.6756,-0.3948,-0.038,-0.6213
-0.28,0.125,0.042,-45,-177.1,-42.6,0,2018,4,25,16,18,57.878,0.6698,-0.4067,-0.0158,-0.621
-0.155,0.245,0.051,-47.8,-292.3,-58.5,0,2018,4,25,16,18,57.9,0.6583,-0.4287,0.0184,-0.6184
-0.085,0.158,-0.072,-54.1,-425.8,-74.8,0,2018,4,25,16,18,57.904,0.6366,-0.464,0.0686,-0.612
0.043,-0.075,-0.23,-57.2,-465.4,-86.2,0,2018,4,25,16,18,57.922,0.6056,-0.506,0.1298,-0.6001
0.072,0.064,-0.191,-59.4,-497.2,-93.1,0,2018,4,25,16,18,57.943,0.5694,-0.5463,0.1933,-0.5829
0.122,-0.242,-0.395,-54.9,-483.5,-94.8,0,2018,4,25,16,18,57.963,0.5266,-0.5851,0.2584,-0.5598
0.126,-0.768,-0.376,-31.3,-278.6,-102.3,0,2018,4,25,16,18,57.979,0.494,-0.6099,0.3089,-0.537
-0.059,-0.38,-0.105,-14.9,-169.7,-124.8,0,2018,4,25,16,18,57.999,0.4808,-0.6193,0.3425,-0.5175
0.052,-0.228,0.197,-5,-137.3,-137,0,2018,4,25,16,18,58.038,0.4758,-0.6226,0.3712,-0.498
0.129,-0.13,0.05,7.1,-120.6,-140.7,0,2018,4,25,16,18,58.042,0.4742,-0.6235,0.3971,-0.478
0.08,-0.242,-0.299,22.9,-139.3,-140.5,0,2018,4,25,16,18,58.06,0.4725,-0.6255,0.4222,-0.4549
0.139,-0.446,-0.127,39.2,-77,-138.5,0,2018,4,25,16,18,58.081,0.473,-0.6271,0.4439,-0.431
0.131,-0.477,0.121,54,76.2,-144.6,0,2018,4,25,16,18,58.101,0.4876,-0.6191,0.4553,-0.4141
0.113,-0.177,0.045,57.5,169.9,-152.4,1023,2018,4,25,16,18,58.14,0.5172,-0.5993,0.4568,-0.4056
0.137,0.08,-0.109,57.1,153.3,-159.8,1023,2018,4,25,16,18,58.159,0.5505,-0.5747,0.4559,-0.3983
0.136,0.003,-0.153,58.8,104.7,-160.3,1023,2018,4,25,16,18,58.163,0.5785,-0.5535,0.4573,-0.3869
0.094,-0.031,-0.18,63.8,53.9,-164.5,1023,2018,4,25,16,18,58.184,0.6016,-0.5364,0.4612,-0.3707
0.128,-0.101,-0.201,75.7,40.6,-173.2,1023,2018,4,25,16,18,58.203,0.6217,-0.5226,0.4668,-0.3496
0.09,-0.118,-0.211,88.1,57.3,-186,1023,2018,4,25,16,18,58.223,0.6436,-0.5072,0.4708,-0.3265
0.138,-0.024,-0.187,98.8,44.7,-198.7,1023,2018,4,25,16,18,58.242,0.6665,-0.4904,0.474,-0.3006
0.273,0.001,-0.135,102,12.4,-211.6,1023,2018,4,25,16,18,58.264,0.6876,-0.4751,0.4779,-0.2701
0.173,0.028,0.079,97.5,1.3,-219.9,1023,2018,4,25,16,18,58.283,0.706,-0.4605,0.4834,-0.2358
-0.009,0.159,0.186,89,-9.6,-224,1023,2018,4,25,16,18,58.321,0.7221,-0.4456,0.4896,-0.2003
-0.164,0.195,0.105,81.3,-19.7,-219.6,1023,2018,4,25,16,18,58.34,0.7353,-0.4311,0.4963,-0.1643
-0.262,0.244,0.05,73,-40.9,-207.5,1023,2018,4,25,16,18,58.344,0.7453,-0.4182,0.503,-0.1283
-0.369,0.197,0.059,60.1,-42.1,-188,0,2018,4,25,16,18,58.365,0.7518,-0.4077,0.5095,-0.0939
-0.482,0.271,0.042,45,-40,-164.9,0,2018,4,25,16,18,58.383,0.756,-0.398,0.5156,-0.0633
-0.559,0.221,-0.036,31.6,-15.4,-139.3,0,2018,4,25,16,18,58.404,0.7587,-0.3885,0.5214,-0.0381
-0.599,0.207,-0.142,23.3,33.6,-109.9,0,2018,4,25,16,18,58.424,0.7623,-0.3762,0.5261,-0.0205
-0.584,0.238,-0.138,20,85.9,-79.6,0,2018,4,25,16,18,58.463,0.7687,-0.3591,0.5291,-0.0125
-0.524,0.292,-0.153,18.5,112.8,-48,0,2018,4,25,16,18,58.484,0.7767,-0.3397,0.5302,-0.0124
-0.443,0.316,-0.232,21.2,110.8,-18.5,0,2018,4,25,16,18,58.489,0.7849,-0.3212,0.5294,-0.0177
-0.31,0.329,-0.227,25.1,53.9,5,0,2018,4,25,16,18,58.505,0.7918,-0.3091,0.5262,-0.0234
-0.183,0.255,-0.039,26.4,-7.5,24.8,0,2018,4,25,16,18,58.523,0.7951,-0.3079,0.5216,-0.026
-0.02,0.18,0.152,23.7,-33.3,39,0,2018,4,25,16,18,58.542,0.796,-0.3145,0.5164,-0.0269
0.159,0.176,0.274,16.8,-15.7,45.7,0,2018,4,25,16,18,58.565,0.7961,-0.3221,0.5114,-0.0295
0.319,0.202,0.265,8.9,-11.3,43.7,0,2018,4,25,16,18,58.585,0.7964,-0.3275,0.507,-0.0342
0.389,0.091,0.331,1.7,-30.9,32.9,0,2018,4,25,16,18,58.622,0.7954,-0.334,0.5042,-0.0374
0.439,0.033,0.417,-4.1,-46.7,13.9,0,2018,4,25,16,18,58.643,0.7927,-0.3416,0.5033,-0.0372
0.384,0.011,0.396,-11.1,-47.9,-5.5,0,2018,4,25,16,18,58.647,0.7891,-0.3486,0.5045,-0.0338
0.269,0.022,0.275,-16.6,-41.8,-19.5,0,2018,4,25,16,18,58.668,0.7852,-0.3535,0.5075,-0.0289
0.163,0.049,0.078,-19.3,-41,-26.4,0,2018,4,25,16,18,58.687,0.7811,-0.3568,0.5117,-0.023
0.056,0.039,-0.071,-19.6,-30.4,-26.5,0,2018,4,25,16,18,58.704,0.7771,-0.3586,0.5168,-0.0165
-0.065,-0.024,-0.171,-17.2,-22.4,-25.3,0,2018,4,25,16,18,58.726,0.7735,-0.3598,0.5216,-0.0116
-0.163,-0.081,-0.255,-12.9,-20.4,-26.9,0,2018,4,25,16,18,58.746,0.7709,-0.3601,0.5253,-0.0072
-0.225,-0.072,-0.266,-6.1,-15.6,-27.1,0,2018,4,25,16,18,58.766,0.7687,-0.3602,0.5283,-0.0023
-0.262,-0.003,-0.299,3.3,7.2,-22.6,1023,2018,4,25,16,18,58.788,0.7684,-0.3584,0.5301,0.0013
-0.264,0.133,-0.28,12.4,26.3,-12.8,1023,2018,4,25,16,18,58.805,0.7703,-0.3543,0.5301,0.0025
-0.225,0.197,-0.264,20.6,19.7,0,1023,2018,4,25,16,18,58.842,0.7734,-0.3503,0.5282,0.002
-0.151,0.2,-0.174,27.4,-8.7,13.2,1023,2018,4,25,16,18,58.863,0.7759,-0.3502,0.5245,0.0021
-0.064,0.196,-0.05,31,-28.3,25.3,1023,2018,4,25,16,18,58.888,0.7774,-0.3545,0.5195,0.0032
-0.006,0.158,0.108,29.3,-38.6,32.8,1023,2018,4,25,16,18,58.9,0.778,-0.3617,0.5135,0.0043
0.113,0.13,0.187,23.3,-44,34.8,1023,2018,4,25,16,18,58.91,0.7777,-0.3705,0.5077,0.0051
0.244,0.059,0.337,15.3,-37,30.1,1023,2018,4,25,16,18,58.927,0.7767,-0.379,0.5028,0.0055
0.339,0.01,0.43,5.4,-18.5,19.4,1023,2018,4,25,16,18,58.949,0.7758,-0.3849,0.4997,0.0053
0.322,-0.02,0.424,-4.3,-3.2,5.9,1023,2018,4,25,16,18,58.989,0.7752,-0.3874,0.4989,0.0045
0.285,-0.067,0.393,-13,7.9,-7.3,1023,2018,4,25,16,18,59.009,0.7746,-0.3869,0.5001,0.0037
0.269,-0.099,0.337,-22.4,14.1,-22,1023,2018,4,25,16,18,59.013,0.7738,-0.3841,0.5036,0.0036
0.196,-0.074,0.231,-29.5,18.7,-33.6,1023,2018,4,25,16,18,59.027,0.7725,-0.3793,0.5091,0.0042
0.083,-0.06,0.078,-33.2,22.3,-41,0,2018,4,25,16,18,59.066,0.7715,-0.3726,0.5155,0.0055
-0.022,-0.002,-0.062,-33.2,19.4,-44.8,0,2018,4,25,16,18,59.086,0.7698,-0.3658,0.5229,0.0072
-0.125,0.009,-0.185,-28.6,7.8,-43.2,0,2018,4,25,16,18,59.09,0.7674,-0.3602,0.5302,0.0099
-0.207,0.019,-0.268,-19.9,7.8,-37.4,0,2018,4,25,16,18,59.111,0.7655,-0.3555,0.536,0.0132
-0.263,0.076,-0.285,-9.9,18.4,-27.4,0,2018,4,25,16,18,59.13,0.7648,-0.3509,0.54,0.0154
-0.285,0.149,-0.32,-1.7,25.6,-16.2,0,2018,4,25,16,18,59.152,0.7657,-0.3456,0.5421,0.0157
-0.285,0.223,-0.344,5.2,19.1,-2.1,0,2018,4,25,16,18,59.188,0.7672,-0.3417,0.5424,0.0149
-0.267,0.243,-0.324,11.3,9.2,15.1,0,2018,4,25,16,18,59.209,0.7689,-0.3404,0.5409,0.0131
-0.17,0.168,-0.16,17.4,-3,30,0,2018,4,25,16,18,59.213,0.7705,-0.3422,0.5376,0.0106
0.017,0.157,-0.04,21.2,-19.6,37,0,2018,4,25,16,18,59.23,0.7716,-0.3467,0.5331,0.0084
0.148,0.104,0.031,24,-34.6,38.3,0,2018,4,25,16,18,59.249,0.7721,-0.3534,0.5279,0.0079
0.23,0.042,0.155,24.7,-35,35.9,0,2018,4,25,16,18,59.271,0.7722,-0.3614,0.5224,0.008
0.348,-0.017,0.345,23,-19,26.7,0,2018,4,25,16,18,59.289,0.7727,-0.3679,0.517,0.0078
0.389,-0.07,0.431,16.9,-5.8,10,0,2018,4,25,16,18,59.33,0.7738,-0.3711,0.5131,0.0076
0.334,-0.108,0.377,7.2,2.6,-10,0,2018,4,25,16,18,59.348,0.7748,-0.3712,0.5115,0.0085
0.21,-0.089,0.294,-3.2,12.1,-27.2,0,2018,4,25,16,18,59.353,0.7754,-0.3684,0.5126,0.0106
0.101,-0.094,0.163,-12.1,16.6,-40.4,0,2018,4,25,16,18,59.372,0.7759,-0.3631,0.5156,0.0135
-0.001,-0.044,0.023,-17.4,23,-46.7,0,2018,4,25,16,18,59.392,0.7761,-0.3562,0.5199,0.0166
-0.08,0.047,-0.104,-17.4,22.8,-46,0,2018,4,25,16,18,59.414,0.7755,-0.3489,0.5256,0.0198
-0.149,0.112,-0.151,-13,26.6,-38.8,0,2018,4,25,16,18,59.432,0.775,-0.3419,0.5309,0.0225
-0.188,0.183,-0.174,-7,26.5,-27.6,0,2018,4,25,16,18,59.451,0.7755,-0.3352,0.5343,0.0238
-0.225,0.261,-0.167,-2.1,19.5,-13.4,1023,2018,4,25,16,18,59.47,0.7764,-0.3301,0.5362,0.0242
-0.249,0.309,-0.138,0.1,5.8,3.7,1023,2018,4,25,16,18,59.509,0.7771,-0.328,0.5366,0.0236
-0.279,0.368,-0.058,-0.8,-0.5,24.9,1023,2018,4,25,16,18,59.513,0.7772,-0.3291,0.5357,0.0215
-0.29,0.463,0.039,-6.5,14.1,52.3,1023,2018,4,25,16,18,59.531,0.7773,-0.3321,0.534,0.0155
-0.321,0.523,0.099,-15.9,34.5,84.4,1023,2018,4,25,16,18,59.568,0.7778,-0.335,0.5316,0.0031
-0.36,0.636,0.154,-25.5,46.1,122.4,1023,2018,4,25,16,18,59.587,0.7782,-0.3391,0.5283,-0.0159
-0.404,0.696,0.177,-32.5,55.4,166.1,1023,2018,4,25,16,18,59.59,0.7778,-0.3452,0.5234,-0.0421
-0.445,0.685,0.19,-36.3,64.9,213,1023,2018,4,25,16,18,59.629,0.7763,-0.3541,0.5158,-0.0754
-0.493,0.66,0.186,-35.1,85,258.6,1023,2018,4,25,16,18,59.65,0.7738,-0.3645,0.5046,-0.1165
-0.504,0.608,0.099,-25.4,110,300,1023,2018,4,25,16,18,59.655,0.7706,-0.3747,0.4882,-0.1649
-0.485,0.536,-0.033,-7.5,119.7,334,1023,2018,4,25,16,18,59.693,0.7663,-0.385,0.4654,-0.2186
-0.501,0.432,-0.038,9.2,71.6,353.7,1023,2018,4,25,16,18,59.712,0.7585,-0.3988,0.4372,-0.2726
-0.384,0.144,-0.09,17.3,15.5,367.4,1023,2018,4,25,16,18,59.716,0.743,-0.4218,0.408,-0.3214
-0.232,-0.533,-0.097,36.8,120.2,369.8,0,2018,4,25,16,18,59.736,0.7267,-0.4413,0.3734,-0.3708
-0.088,-0.647,-0.098,74.8,254.4,349.3,0,2018,4,25,16,18,59.756,0.7205,-0.4424,0.3242,-0.4242
-0.094,-0.368,-0.075,104.1,259.1,314.9,0,2018,4,25,16,18,59.772,0.7196,-0.433,0.2662,-0.4729
-0.231,-0.305,-0.019,114.2,175.6,277.5,0,2018,4,25,16,18,59.81,0.7152,-0.4273,0.2114,-0.5109
-0.394,-0.56,0.067,110.1,144.6,233.2,0,2018,4,25,16,18,59.83,0.7068,-0.4271,0.1646,-0.5392
-0.278,-0.552,0.124,110,156.9,189.9,0,2018,4,25,16,18,59.834,0.7006,-0.4241,0.1208,-0.5608
-0.166,-0.547,0.231,104.6,124.5,151.7,0,2018,4,25,16,18,59.873,0.6961,-0.4209,0.0815,-0.5757
-0.226,-0.472,0.394,86.9,67.4,123.1,0,2018,4,25,16,18,59.894,0.6904,-0.4212,0.051,-0.5859
-0.147,-0.447,0.363,67.1,42,98.1,0,2018,4,25,16,18,59.898,0.6835,-0.4235,0.0291,-0.5936
-0.048,-0.393,0.232,55.6,29.3,75.7,0,2018,4,25,16,18,59.916,0.6775,-0.426,0.0126,-0.5993
-0.048,-0.432,0.09,48.3,54.2,54.5,0,2018,4,25,16,18,59.954,0.6735,-0.4273,-0.0019,-0.6031
0.059,-0.375,0.155,59.4,141.6,25.9,0,2018,4,25,16,18,59.959,0.6771,-0.4201,-0.0225,-0.6036
0.062,0.01,0.513,38,101.4,20.4,0,2018,4,25,16,18,59.976,0.684,-0.4099,-0.0435,-0.6017
0.097,-0.186,0.765,4.2,23.7,-1.8,0,2018,4,25,16,18,59.995,0.6871,-0.4054,-0.0517,-0.6006
0.092,-0.116,0.445,-10.7,5.7,-1,0,2018,4,25,16,19,0.014,0.6881,-0.4036,-0.0523,-0.6006
0.108,0.14,0.056,-12.5,-4.8,0.2,0,2018,4,25,16,19,0.051,0.6885,-0.4018,-0.0512,-0.6014
0.089,0.151,-0.141,-9.9,-30.8,1.8,0,2018,4,25,16,19,0.072,0.687,-0.4028,-0.0478,-0.6027
0.036,0.069,-0.155,-1.8,-20.8,3.1,0,2018,4,25,16,19,0.077,0.6847,-0.4058,-0.0447,-0.6036
0.031,-0.057,-0.065,3,-1,3.6,0,2018,4,25,16,19,0.095,0.6834,-0.4077,-0.0437,-0.6039
0.024,-0.081,0.012,4,18.2,2.6,0,2018,4,25,16,19,0.116,0.6839,-0.4073,-0.0447,-0.6036
0.062,-0.027,0.07,-0.7,17.2,1.7,0,2018,4,25,16,19,0.154,0.6854,-0.4048,-0.0464,-0.6034
0.069,0,0.048,-4,7.7,2.8,0,2018,4,25,16,19,0.175,0.6865,-0.4023,-0.0468,-0.6038
0.066,0.006,0.005,-6.1,1.2,4,1023,2018,4,25,16,19,0.179,0.6867,-0.4007,-0.0463,-0.6046
0.066,0,-0.014,-6.1,-1.9,4.9,1023,2018,4,25,16,19,0.195,0.6866,-0.3997,-0.0452,-0.6055
0.058,0.002,0.037,-6.3,-2.3,5.6,1023,2018,4,25,16,19,0.234,0.6862,-0.399,-0.0441,-0.6065
0.068,-0.018,0.051,-4.9,1.7,6.5,1023,2018,4,25,16,19,0.256,0.686,-0.3978,-0.043,-0.6076
0.065,-0.012,0.057,-5.2,2.5,6.5,1023,2018,4,25,16,19,0.26,0.6859,-0.3963,-0.0425,-0.6088
0.059,0.022,0.054,-5.6,0.3,6.4,1023,2018,4,25,16,19,0.276,0.6857,-0.3947,-0.0419,-0.61
0.052,0.041,0.035,-6.6,-5.1,6.7,1023,2018,4,25,16,19,0.313,0.6852,-0.3935,-0.0411,-0.6114
0.039,0.036,0.017,-7.5,-10.2,7,1023,2018,4,25,16,19,0.334,0.6842,-0.3931,-0.0397,-0.6129
0.04,0.019,0.007,-7.8,-13.8,7.3,1023,2018,4,25,16,19,0.339,0.6828,-0.3932,-0.0378,-0.6145
0.036,0.006,0.048,-8.5,-13.6,7,1023,2018,4,25,16,19,0.359,0.6814,-0.3935,-0.0355,-0.616
0.04,-0.002,0.05,-8.6,-11.9,6.1,1023,2018,4,25,16,19,0.38,0.6801,-0.3934,-0.0332,-0.6175
0.053,-0.026,0.026,-7.8,-10,4.6,1023,2018,4,25,16,19,0.417,0.6791,-0.3934,-0.0308,-0.6188
0.059,-0.018,0.014,-5.5,-5.5,2.7,0,2018,4,25,16,19,0.437,0.6785,-0.3932,-0.0288,-0.6196
0.054,-0.006,0.013,-3,-2.6,1.4,0,2018,4,25,16,19,0.441,0.6783,-0.3929,-0.0275,-0.6201
0.056,0.004,0.02,-1.4,-0.9,0.5,0,2018,4,25,16,19,0.459,0.6784,-0.3924,-0.0267,-0.6204
0.053,0.004,0.034,-0.3,-1.3,0.1,0,2018,4,25,16,19,0.479,0.6786,-0.3919,-0.0261,-0.6206
0.05,0.003,0.024,0,-2.2,-0.1,0,2018,4,25,16,19,0.497,0.6787,-0.3916,-0.0255,-0.6206
0.049,-0.001,0.01,0.3,-2.5,-0.1,0,2018,4,25,16,19,0.536,0.6788,-0.3915,-0.0249,-0.6206
0.049,-0.009,0.002,0.8,-1.6,-0.2,0,2018,4,25,16,19,0.557,0.6789,-0.3916,-0.0242,-0.6205
0.045,-0.01,0.005,0.8,0.1,-0.4,0,2018,4,25,16,19,0.561,0.6791,-0.3915,-0.0237,-0.6203
0.042,0,0.007,0,0,0,0,2018,4,25,16,19,0.596,0.6794,-0.3913,-0.0234,-0.6202
0.042,0.003,0.016,-0.5,-1,0,0,2018,4,25,16,19,0.617,0.6796,-0.3909,-0.023,-0.6202
0.037,0,0.007,-0.7,-1.7,0,0,2018,4,25,16,19,0.619,0.6797,-0.3907,-0.0224,-0.6203
0.044,-0.008,0.004,-0.5,-1.4,-0.1,0,2018,4,25,16,19,0.658,0.6798,-0.3906,-0.0217,-0.6203
0.032,0.008,0.038,-0.3,-11.7,-0.1,0,2018,4,25,16,19,0.678,0.6796,-0.3909,-0.0207,-0.6203
0.043,0.042,0.054,-0.5,-29.6,-0.4,0,2018,4,25,16,19,0.682,0.6785,-0.3927,-0.0182,-0.6205
0.071,0.086,0.133,0.5,-55.4,-1.7,0,2018,4,25,16,19,0.7,0.6759,-0.3969,-0.0136,-0.6207
0.038,0.07,0.227,-1.8,-101.3,-3.8,0,2018,4,25,16,19,0.719,0.6708,-0.4059,-0.005,-0.6205
-0.006,0.069,0.219,-10.5,-166.2,-7.6,0,2018,4,25,16,19,0.76,0.6618,-0.4208,0.0105,-0.6202
-0.065,0.1,0.201,-25.2,-269.8,-20.6,0,2018,4,25,16,19,0.779,0.6468,-0.4436,0.0369,-0.6192
-0.106,0.033,0.041,-48.5,-437.6,-44.4,0,2018,4,25,16,19,0.783,0.621,-0.4788,0.0819,-0.615
-0.076,-0.805,-0.21,-68.5,-443.3,-71.4,0,2018,4,25,16,19,0.802,0.5846,-0.521,0.1436,-0.605
-0.066,-0.945,-0.231,-53.2,-241.2,-103,0,2018,4,25,16,19,0.839,0.5604,-0.5455,0.1932,-0.5923
-0.044,-0.318,-0.173,-38.2,-195.6,-130,0,2018,4,25,16,19,0.86,0.5518,-0.5557,0.229,-0.578
0.003,-0.137,-0.395,-15,-277.4,-153.5,1023,2018,4,25,16,19,0.864,0.5413,-0.5695,0.2691,-0.5568
0.057,-0.383,-0.401,15.8,-304.9,-166.7,1023,2018,4,25,16,19,0.883,0.5264,-0.5892,0.3138,-0.5263
0.07,-0.403,-0.261,43.9,-274.1,-170.7,1023,2018,4,25,16,19,0.902,0.5129,-0.6085,0.3544,-0.4908
-0.006,-0.308,-0.184,61.7,-267.4,-176.5,1023,2018,4,25,16,19,0.919,0.5023,-0.6251,0.3898,-0.4526
0,-0.341,0.031,76.9,-274.6,-183.4,1023,2018,4,25,16,19,0.957,0.4901,-0.6416,0.4247,-0.4094
0.039,-0.5,0.1,95.2,-201.2,-186,1023,2018,4,25,16,19,0.976,0.4828,-0.653,0.4546,-0.3656
-0.013,-0.404,-0.084,115.5,-109.9,-188.4,1023,2018,4,25,16,19,0.983,0.4863,-0.6563,0.4757,-0.326
-0.029,-0.413,0.05,127.4,-56.3,-192.6,1023,2018,4,25,16,19,1.002,0.4983,-0.6532,0.4908,-0.2897
0.024,-0.518,0.269,129,10.9,-201.4,1023,2018,4,25,16,19,1.021,0.5156,-0.6448,0.5031,-0.2552
-0.062,-0.225,0.348,120.5,61.5,-216.4,1023,2018,4,25,16,19,1.059,0.5405,-0.6272,0.5129,-0.2263
-0.02,-0.23,0.225,108.4,68.1,-227.9,1023,2018,4,25,16,19,1.08,0.566,-0.6049,0.5236,-0.1985
-0.034,0.057,0.046,101.3,42.9,-233.8,1023,2018,4,25,16,19,1.084,0.5894,-0.5807,0.5351,-0.1699
-0.13,0.136,-0.011,100,24.3,-225.7,1023,2018,4,25,16,19,1.121,0.6078,-0.5587,0.5467,-0.1388
-0.275,0.152,-0.133,104.4,32.5,-214.5,0,2018,4,25,16,19,1.142,0.6248,-0.5369,0.5563,-0.1081
-0.339,0.248,-0.242,112.7,60.1,-199.9,0,2018,4,25,16,19,1.146,0.643,-0.5134,0.5626,-0.0796
-0.438,0.305,-0.242,117.7,93.1,-183.1,0,2018,4,25,16,19,1.165,0.6634,-0.487,0.5653,-0.0554
-0.537,0.375,-0.241,115,94.6,-164.6,0,2018,4,25,16,19,1.187,0.6844,-0.4592,0.5651,-0.0351
-0.598,0.451,-0.154,104.6,60.2,-143.2,0,2018,4,25,16,19,1.203,0.7021,-0.435,0.5634,-0.0156
-0.582,0.426,-0.116,90.3,13.5,-116.1,0,2018,4,25,16,19,1.225,0.7144,-0.4181,0.561,0.004
-0.539,0.496,-0.134,78.3,-26.1,-87,0,2018,4,25,16,19,1.243,0.7217,-0.4091,0.5577,0.0236
-0.535,0.498,-0.041,64.7,-36.8,-55.8,0,2018,4,25,16,19,1.263,0.7258,-0.4061,0.5536,0.041
-0.474,0.407,0.098,51.6,-18.5,-22.3,0,2018,4,25,16,19,1.285,0.7289,-0.4058,0.5487,0.0528
-0.281,0.384,0.168,37.8,5.3,6.9,0,2018,4,25,16,19,1.305,0.7329,-0.4051,0.5434,0.0571
-0.083,0.354,0.21,18.9,-2.9,27.9,0,2018,4,25,16,19,1.325,0.736,-0.4062,0.5385,0.0564
0.07,0.226,0.411,4.7,-20.2,41.9,0,2018,4,25,16,19,1.363,0.7364,-0.4112,0.5344,0.0538
0.254,0.103,0.665,-4.3,1.3,47.3,0,2018,4,25,16,19,1.383,0.7359,-0.4171,0.531,0.0491
0.399,0.026,0.713,-13.8,43.1,43.8,0,2018,4,25,16,19,1.387,0.737,-0.4185,0.529,0.0403
0.506,-0.086,0.447,-18.1,60,29.6,0,2018,4,25,16,19,1.403,0.7398,-0.4148,0.5287,0.0292
0.493,-0.134,0.235,-22.5,31.9,4.6,0,2018,4,25,16,19,1.442,0.7416,-0.4102,0.5303,0.021
0.307,-0.203,0.182,-32.2,-19,-25.1,0,2018,4,25,16,19,1.446,0.7395,-0.4085,0.5345,0.02
0.123,-0.349,-0.024,-40.5,-31.9,-51.8,0,2018,4,25,16,19,1.463,0.734,-0.409,0.5414,0.0247
-0.056,-0.351,-0.26,-41,-11.8,-72.6,0,2018,4,25,16,19,1.503,0.7282,-0.4061,0.5511,0.0319
-0.202,-0.217,-0.329,-35.7,26.5,-81.5,0,2018,4,25,16,19,1.524,0.7244,-0.3978,0.5615,0.0385
-0.294,-0.024,-0.408,-26.9,55.8,-78.8,0,2018,4,25,16,19,1.528,0.7238,-0.3844,0.5714,0.0422
-0.362,0.128,-0.372,-14.6,68.1,-64.9,1023,2018,4,25,16,19,1.546,0.7253,-0.3693,0.5792,0.0436
-0.382,0.294,-0.321,-4.4,61.9,-43.2,1023,2018,4,25,16,19,1.583,0.7282,-0.3554,0.5843,0.0431
-0.37,0.4,-0.303,4.6,29.5,-16.4,1023,2018,4,25,16,19,1.606,0.7309,-0.3464,0.5864,0.0421
-0.302,0.443,-0.211,10.3,-7.8,11.7,1023,2018,4,25,16,19,1.61,0.7322,-0.345,0.5856,0.0419
-0.246,0.476,-0.156,12.9,-33.2,40.4,1023,2018,4,25,16,19,1.626,0.7323,-0.3506,0.5822,0.0415
-0.19,0.472,-0.12,12.7,-36.2,68.7,1023,2018,4,25,16,19,1.646,0.7317,-0.3608,0.5769,0.0389
-0.182,0.406,-0.026,12,-15.7,94.9,1023,2018,4,25,16,19,1.684,0.7317,-0.3725,0.5699,0.0319
-0.206,0.262,0.01,13.5,21.4,117.8,1023,2018,4,25,16,19,1.688,0.7336,-0.3826,0.5611,0.0188
-0.159,0.294,-0.051,16.4,76.3,140.3,1023,2018,4,25,16,19,1.706,0.7386,-0.3883,0.551,-0.0009
-0.095,0.648,-0.124,17.5,33.5,158.9,1023,2018,4,25,16,19,1.742,0.7441,-0.3944,0.5384,-0.0252
-0.097,0.27,-0.119,24.5,8.7,172,1023,2018,4,25,16,19,1.762,0.7462,-0.4077,0.524,-0.0471
-0.254,0.034,0.114,25.6,-4.9,182.5,1023,2018,4,25,16,19,1.766,0.7465,-0.4243,0.5078,-0.0678
-0.3,0.025,0.635,12.5,-19.3,187.9,0,2018,4,25,16,19,1.807,0.7457,-0.4413,0.4909,-0.0899
-0.368,-0.493,0.67,-44.1,-125.8,173.3,0,2018,4,25,16,19,1.827,0.7329,-0.4687,0.4811,-0.1074
0.124,0.115,-0.749,-29.1,-142.7,176.4,0,2018,4,25,16,19,1.831,0.715,-0.4989,0.4742,-0.1216
0.004,-0.133,-0.582,10.1,-91.6,185.3,0,2018,4,25,16,19,1.851,0.6988,-0.5293,0.4618,-0.1345
-0.068,-0.078,-0.268,41.3,-39.8,189.6,0,2018,4,25,16,19,1.871,0.6906,-0.5522,0.4421,-0.1501
-0.095,-0.2,0.386,39.6,-66.6,175.9,0,2018,4,25,16,19,1.893,0.6843,-0.5729,0.4198,-0.1645
0.133,-0.4,0.555,11.2,-90.2,157,0,2018,4,25,16,19,1.909,0.6721,-0.596,0.4026,-0.1753
0.214,-0.077,0.567,-11,-50.8,144.4,0,2018,4,25,16,19,1.927,0.66,-0.6145,0.3891,-0.1878
0.174,0.084,0.49,-37.4,-39.8,136.8,0,2018,4,25,16,19,1.947,0.6495,-0.6273,0.3779,-0.2042
0.083,-0.028,0.479,-64.4,-88.5,134,0,2018,4,25,16,19,1.969,0.6331,-0.6422,0.3716,-0.2202
0.109,-0.078,0.301,-94.1,-121.5,122.7,0,2018,4,25,16,19,1.988,0.6113,-0.6584,0.3697,-0.2367
-0.002,-0.185,0.201,-120.5,-170.8,102.8,0,2018,4,25,16,19,2.025,0.5815,-0.677,0.3744,-0.2513
0.007,-0.17,0.111,-136.4,-158,78.9,0,2018,4,25,16,19,2.046,0.5493,-0.6932,0.384,-0.2646
-0.014,-0.129,-0.126,-140.6,-107.6,72.1,0,2018,4,25,16,19,2.05,0.5199,-0.7041,0.3942,-0.28
-0.012,0.061,-0.577,-119.4,-57.2,75.4,0,2018,4,25,16,19,2.086,0.4975,-0.7095,0.4007,-0.2973
-0.284,-0.231,-0.782,-86.9,-92.9,71.3,0,2018,4,25,16,19,2.106,0.4776,-0.7152,0.4039,-0.3116
-0.05,0.13,-0.56,-55.2,-107.4,70.7,0,2018,4,25,16,19,2.11,0.4552,-0.7252,0.4069,-0.318
-0.182,-0.114,-0.476,-27.1,-131,67.6,0,2018,4,25,16,19,2.128,0.4334,-0.7371,0.4077,-0.32
-0.116,-0.229,-0.575,3.1,-93.5,60,0,2018,4,25,16,19,2.148,0.4141,-0.7495,0.4067,-0.3181
0.02,-0.454,-0.676,41.3,-16.9,51.9,0,2018,4,25,16,19,2.186,0.405,-0.7588,0.4009,-0.3151
0.208,-0.137,-0.298,73.9,77.5,49,0,2018,4,25,16,19,2.206,0.4113,-0.763,0.388,-0.313
0.052,-0.192,0.697,58.5,102.5,45,1023,2018,4,25,16,19,2.21,0.4248,-0.7635,0.3721,-0.313
0.163,-0.339,0.643,35.3,240.5,43.5,1023,2018,4,25,16,19,2.232,0.4479,-0.7559,0.3533,-0.3209
0.195,0.239,0.527,16.3,364.2,59.3,1023,2018,4,25,16,19,2.251,0.4883,-0.734,0.3263,-0.3407
0.232,0,0.353,-1.3,454.5,78.1,1023,2018,4,25,16,19,2.273,0.5353,-0.7018,0.2918,-0.3684
0.077,0.63,0.307,-11,393.4,89,1023,2018,4,25,16,19,2.292,0.5828,-0.6615,0.252,-0.3988
0.057,-0.159,0.123,-13.5,283.4,90.5,1023,2018,4,25,16,19,2.311,0.6114,-0.6312,0.2208,-0.4229
0.092,-0.592,0.061,-8.1,368,85.4,1023,2018,4,25,16,19,2.332,0.6388,-0.5985,0.1886,-0.4449
0.308,-0.482,-0.426,23.3,427.3,61.4,1023,2018,4,25,16,19,2.369,0.6743,-0.5543,0.1476,-0.4648
