ax,ay,az,dpitch,droll,dyaw,heart,time_1,time_2,time_3,time_4,time_5,time_6,w,x,y,z
-0.291,0.29,0.247,-57.2,-190.8,137.6,0,2018,5,1,18,35,31.784,-0.4888,-0.4992,-0.2037,0.6857
-0.279,-1.146,-1.09,-27.7,-126.5,128.8,0,2018,5,1,18,35,31.804,-0.4846,-0.4856,-0.2394,0.6869
-0.4,-1.98,-0.869,28.9,17,62.1,0,2018,5,1,18,35,31.818,-0.4767,-0.4773,-0.2527,0.6935
-0.188,-1.916,0.381,27.1,56.4,-33.9,0,2018,5,1,18,35,31.859,-0.4743,-0.4749,-0.2474,0.6987
-0.252,-0.503,0.74,-30,194.1,-101.4,0,2018,5,1,18,35,31.879,-0.471,-0.4902,-0.2235,0.6984
-0.181,-0.107,-0.121,-67.1,147.1,-114.5,0,2018,5,1,18,35,31.883,-0.4672,-0.515,-0.1974,0.6909
0.057,0.487,-0.798,-31.2,123.4,-105.6,0,2018,5,1,18,35,31.902,-0.467,-0.5356,-0.1756,0.6812
0.301,1.481,-0.711,14.1,73.1,-56.7,0,2018,5,1,18,35,31.922,-0.4675,-0.547,-0.1568,0.6763
0.314,2.048,0.07,37.2,42.6,24,0,2018,5,1,18,35,31.937,-0.4636,-0.5496,-0.1454,0.6795
0.043,1.151,0.839,6.2,-149,95.7,0,2018,5,1,18,35,31.957,-0.4622,-0.5402,-0.1568,0.6854
-0.169,0.345,0.11,-27.1,-176.1,130.3,0,2018,5,1,18,35,31.977,-0.4631,-0.525,-0.1885,0.6886
-0.173,-1.035,-1.118,-2.6,-118.6,115.8,0,2018,5,1,18,35,32.019,-0.461,-0.5101,-0.2204,0.6917
-0.232,-1.896,-0.698,47.5,20.7,47.6,1023,2018,5,1,18,35,32.038,-0.456,-0.5,-0.2312,0.6989
-0.194,-1.512,0.533,31.2,94,-41.3,1023,2018,5,1,18,35,32.042,-0.4535,-0.4986,-0.2211,0.7048
-0.259,0.127,0.851,-25.2,180.7,-81.4,1023,2018,5,1,18,35,32.062,-0.4474,-0.5136,-0.1946,0.7057
-0.12,-0.185,-0.14,-56.2,110.3,-87.8,1023,2018,5,1,18,35,32.081,-0.4442,-0.5323,-0.1743,0.6992
0.019,0.405,-0.694,-27.4,99.5,-81,1023,2018,5,1,18,35,32.102,-0.443,-0.5486,-0.1562,0.6916
0.052,0.515,-0.529,4.6,93.1,-63.6,1023,2018,5,1,18,35,32.122,-0.4428,-0.5586,-0.1391,0.6873
0.057,1.154,0.011,10,95.6,-25.2,1023,2018,5,1,18,35,32.16,-0.4381,-0.5665,-0.1212,0.6872
0.156,1.463,0.271,-6.4,-29.8,31.2,1023,2018,5,1,18,35,32.181,-0.4345,-0.5689,-0.1179,0.6881
0.1,0.956,0.232,-21.5,-139.9,78.2,1023,2018,5,1,18,35,32.186,-0.4359,-0.5626,-0.1357,0.6891
-0.088,0.151,-0.098,-24,-150.6,106.1,1023,2018,5,1,18,35,32.2,-0.4398,-0.5507,-0.1662,0.6896
-0.033,-0.54,-0.285,-7.3,-100.8,103.5,1023,2018,5,1,18,35,32.221,-0.4381,-0.5397,-0.1925,0.6925
-0.181,-0.964,-0.278,13.7,-88.4,70.3,1023,2018,5,1,18,35,32.241,-0.4357,-0.5294,-0.2112,0.6965
-0.095,-1.72,0.048,18.2,-33.1,5.7,1023,2018,5,1,18,35,32.28,-0.4381,-0.5205,-0.2224,0.6982
-0.116,-0.969,0.412,1.5,107,-57,1023,2018,5,1,18,35,32.298,-0.4384,-0.5234,-0.214,0.6985
0.026,-0.23,0.146,-15.4,118.4,-86.1,1023,2018,5,1,18,35,32.302,-0.4357,-0.5366,-0.1931,0.6963
0.136,-0.036,-0.205,-9.8,73.9,-97.4,1023,2018,5,1,18,35,32.323,-0.4374,-0.5486,-0.1737,0.6909
0.146,0.574,-0.087,8.5,54.4,-92.7,0,2018,5,1,18,35,32.362,-0.4428,-0.5564,-0.1565,0.6853
0.107,0.537,0.039,11.9,55.9,-74.3,0,2018,5,1,18,35,32.382,-0.4483,-0.5612,-0.1417,0.6811
0.106,0.498,0.095,11.2,78.2,-52.7,0,2018,5,1,18,35,32.386,-0.4491,-0.5668,-0.1261,0.679
0.065,0.493,0.156,6.3,64.7,-32.7,0,2018,5,1,18,35,32.406,-0.4468,-0.5725,-0.1126,0.6781
0.118,0.231,0.128,3.2,47.8,-17.6,0,2018,5,1,18,35,32.426,-0.4444,-0.5766,-0.1036,0.6776
0.097,-0.071,0.14,4,57.8,-15,0,2018,5,1,18,35,32.461,-0.4414,-0.58,-0.0955,0.6779
0.205,-0.265,0.242,6.6,91,-23.9,0,2018,5,1,18,35,32.466,-0.4361,-0.5854,-0.0844,0.6781
0.317,-0.242,0.244,10.2,97.3,-43.3,0,2018,5,1,18,35,32.482,-0.43,-0.5924,-0.0691,0.6776
0.284,-0.206,0.297,12.4,75.1,-66.9,0,2018,5,1,18,35,32.52,-0.4278,-0.5982,-0.0525,0.6755
0.285,-0.404,-0.002,23.4,72.3,-90.6,0,2018,5,1,18,35,32.539,-0.4298,-0.602,-0.0346,0.6719
0.357,-0.255,-0.345,50,85.1,-113.4,0,2018,5,1,18,35,32.546,-0.4333,-0.6044,-0.0114,0.6683
0.336,-0.054,-0.597,86.6,62.6,-129.1,0,2018,5,1,18,35,32.582,-0.4397,-0.6021,0.0152,0.6662
0.181,0.013,-0.613,124.2,78.1,-135.2,0,2018,5,1,18,35,32.601,-0.4477,-0.594,0.0452,0.6667
0.048,0.216,-0.559,152,115.3,-129.8,0,2018,5,1,18,35,32.605,-0.4516,-0.584,0.0813,0.6694
-0.12,0.629,-0.533,174.3,104.9,-113,0,2018,5,1,18,35,32.643,-0.4514,-0.5717,0.1203,0.6743
-0.21,0.804,-0.23,190.1,60.1,-76.2,0,2018,5,1,18,35,32.663,-0.4502,-0.554,0.1535,0.6831
-0.248,1.48,-0.014,187,0.6,-15.3,0,2018,5,1,18,35,32.667,-0.4473,-0.5323,0.1769,0.6965
-0.267,1.809,-0.079,162.6,-130.2,70.9,0,2018,5,1,18,35,32.682,-0.4431,-0.507,0.1808,0.7168
-0.376,0.537,0.505,128.4,40.6,120.2,0,2018,5,1,18,35,32.722,-0.4317,-0.4865,0.1751,0.739
-0.336,1.498,0.852,58,-259,178,0,2018,5,1,18,35,32.741,-0.4161,-0.4726,0.1597,0.7602
-0.519,0.689,-0.189,-8.9,-376.7,228,0,2018,5,1,18,35,32.747,-0.4148,-0.4499,0.0982,0.7847
-0.531,0.573,-0.969,-29.4,-419.1,249.6,1023,2018,5,1,18,35,32.766,-0.4124,-0.4262,0.0216,0.8047
-0.699,0.332,-1.34,-22.1,-402,256,1023,2018,5,1,18,35,32.787,-0.4063,-0.3993,-0.0577,0.8198
-0.804,-0.251,-1.355,-6,-341.5,248.8,1023,2018,5,1,18,35,32.826,-0.3944,-0.3709,-0.1296,0.8306
-0.898,-0.424,-1.148,5,-274.6,224,1023,2018,5,1,18,35,32.846,-0.3786,-0.3439,-0.1882,0.8383
-0.876,-0.627,-0.923,8.4,-229.3,177.7,1023,2018,5,1,18,35,32.85,-0.3639,-0.319,-0.2364,0.8425
-0.755,-0.739,-0.562,7.9,-173.2,119,1023,2018,5,1,18,35,32.87,-0.3535,-0.2986,-0.2732,0.8433
-0.602,-0.637,-0.181,0.1,-139.8,73.5,1023,2018,5,1,18,35,32.888,-0.3473,-0.2841,-0.2996,0.8419
-0.498,-0.634,0.071,-9.5,-106.3,36.3,1023,2018,5,1,18,35,32.926,-0.3449,-0.2747,-0.3199,0.8385
-0.491,-0.89,0.608,-40.6,-36.7,-13,1023,2018,5,1,18,35,32.947,-0.3452,-0.273,-0.3323,0.8341
-0.399,-0.638,0.488,-81.1,31.5,-55.4,1023,2018,5,1,18,35,32.952,-0.3465,-0.2845,-0.3331,0.8294
-0.37,-0.327,0.084,-97.9,45.4,-77,1023,2018,5,1,18,35,32.966,-0.3484,-0.3047,-0.3281,0.8234
-0.155,-0.773,-0.344,-92.8,45.4,-99.1,1023,2018,5,1,18,35,33.005,-0.3532,-0.3258,-0.3239,0.8149
0.019,-0.975,-0.537,-75.4,118.7,-133.2,1023,2018,5,1,18,35,33.026,-0.3603,-0.349,-0.3113,0.8071
0.225,-0.811,-0.446,-59.9,199.2,-167.3,1023,2018,5,1,18,35,33.03,-0.3678,-0.3764,-0.2833,0.8016
0.448,-0.462,-0.446,-52.1,227,-203.3,1023,2018,5,1,18,35,33.047,-0.376,-0.4071,-0.2431,0.796
0.637,0.003,-0.502,-38.7,201.2,-229.5,1023,2018,5,1,18,35,33.068,-0.3885,-0.4362,-0.2004,0.7864
0.558,0.253,-0.312,-22.1,186.8,-241.6,0,2018,5,1,18,35,33.09,-0.4044,-0.4611,-0.1572,0.7739
0.467,0.624,-0.098,-13.4,226.9,-245.4,0,2018,5,1,18,35,33.126,-0.4208,-0.4831,-0.1124,0.7594
0.45,1.725,-0.114,-11.6,181,-210,0,2018,5,1,18,35,33.147,-0.4317,-0.5047,-0.0643,0.7447
0.391,1.877,0.141,-15.1,43.4,-148.8,0,2018,5,1,18,35,33.151,-0.4451,-0.5162,-0.0351,0.7308
0.121,1.468,0.267,-24.9,-19.6,-72.7,0,2018,5,1,18,35,33.188,-0.459,-0.519,-0.0267,0.7205
-0.061,1.145,0.13,-37.4,-24.2,-0.2,0,2018,5,1,18,35,33.21,-0.4651,-0.5214,-0.0286,0.7148
-0.221,1.067,-0.066,-38,-78.3,62.5,0,2018,5,1,18,35,33.214,-0.465,-0.5221,-0.0402,0.7137
-0.425,1.014,-0.288,-28.7,-167.9,121.7,0,2018,5,1,18,35,33.23,-0.4636,-0.5159,-0.0656,0.7173
-0.558,0.87,-0.511,-15.5,-239.2,173.2,0,2018,5,1,18,35,33.248,-0.4635,-0.4992,-0.1069,0.7242
-0.76,0.308,-0.579,-7.1,-283.8,212.1,0,2018,5,1,18,35,33.268,-0.4615,-0.4738,-0.1588,0.7329
-0.887,0.433,-0.248,-17.4,-357.5,236.4,0,2018,5,1,18,35,33.308,-0.4568,-0.4426,-0.2175,0.7402
-0.936,-0.785,-0.407,-41.4,-352,210.2,0,2018,5,1,18,35,33.327,-0.4539,-0.4063,-0.2854,0.7397
-0.966,-1.196,-0.61,-50.6,-225.2,162.2,0,2018,5,1,18,35,33.331,-0.4472,-0.3795,-0.3392,0.7354
-0.794,-1.043,-0.527,-37.9,-92.9,106.9,0,2018,5,1,18,35,33.37,-0.4371,-0.3659,-0.3699,0.7336
-0.581,-0.754,-0.279,-25.6,-79.5,63.6,0,2018,5,1,18,35,33.39,-0.4294,-0.3582,-0.3876,0.7327
-0.338,-1.116,0.015,-29.8,-40.6,9.1,0,2018,5,1,18,35,33.394,-0.427,-0.354,-0.4007,0.7291
-0.151,-0.807,0.211,-45.9,51.9,-44.3,0,2018,5,1,18,35,33.412,-0.4262,-0.3613,-0.4008,0.7259
-0.087,-0.627,0.14,-58.9,86.5,-75.2,0,2018,5,1,18,35,33.43,-0.4256,-0.3775,-0.3917,0.723
0,-0.597,-0.157,-65.1,135,-101.4,0,2018,5,1,18,35,33.45,-0.425,-0.3997,-0.3764,0.7196
0.172,-0.437,-0.333,-58.2,174.1,-125.9,0,2018,5,1,18,35,33.471,-0.424,-0.4265,-0.3529,0.7166
0.337,-0.158,-0.345,-50.5,197.3,-144.5,0,2018,5,1,18,35,33.509,-0.4231,-0.4553,-0.3228,0.7136
0.419,0.3,-0.169,-45.7,130.8,-155.1,1023,2018,5,1,18,35,33.53,-0.4252,-0.4822,-0.2929,0.7076
0.393,0.094,-0.241,-45.4,69.9,-165.6,1023,2018,5,1,18,35,33.534,-0.4349,-0.5024,-0.2718,0.6959
0.367,0.548,-0.238,-39.8,70.3,-162.6,1023,2018,5,1,18,35,33.553,-0.446,-0.5212,-0.2511,0.6827
0.413,0.796,-0.275,-26,78.7,-140.4,1023,2018,5,1,18,35,33.573,-0.4562,-0.5371,-0.2318,0.6704
0.336,1.433,-0.255,-4.8,111.1,-91.9,1023,2018,5,1,18,35,33.613,-0.46,-0.5515,-0.2107,0.6631
0.193,1.837,-0.038,10.9,33.8,-14.7,1023,2018,5,1,18,35,33.633,-0.4583,-0.5595,-0.1963,0.662
-0.104,1.386,0.253,6.7,-101.6,61.6,1023,2018,5,1,18,35,33.637,-0.4592,-0.5544,-0.2027,0.6637
-0.378,0.666,0.31,-19.8,-218.4,112.2,1023,2018,5,1,18,35,33.655,-0.4645,-0.5382,-0.2316,0.6639
-0.399,0.173,-0.194,-29.4,-212.4,139.2,1023,2018,5,1,18,35,33.674,-0.4685,-0.518,-0.2709,0.6623
-0.492,-0.73,-0.509,-8.2,-148.4,138.7,1023,2018,5,1,18,35,33.694,-0.4677,-0.4977,-0.3072,0.6626
-0.541,-1.654,-0.855,27.5,-90,100.1,1023,2018,5,1,18,35,33.713,-0.4642,-0.4799,-0.3309,0.6667
-0.432,-2.353,-0.209,50.5,-22.7,1.8,1023,2018,5,1,18,35,33.733,-0.4648,-0.4675,-0.3381,0.6715
-0.284,-1.923,0.883,14.3,150.7,-121.9,1023,2018,5,1,18,35,33.752,-0.4703,-0.4712,-0.3239,0.6721
-0.272,-0.481,0.571,-51.4,212.2,-184.8,1023,2018,5,1,18,35,33.773,-0.471,-0.4991,-0.2888,0.6675
-0.047,0.581,-0.719,-57.3,225.6,-191.3,1023,2018,5,1,18,35,33.792,-0.4704,-0.5337,-0.2513,0.6562
0.261,1.789,-1.017,-2.7,125,-122.1,1023,2018,5,1,18,35,33.833,-0.4706,-0.5583,-0.2191,0.6471
0.289,2.442,-0.375,48.7,88.1,-11.3,1023,2018,5,1,18,35,33.853,-0.4688,-0.5662,-0.1987,0.6481
0.062,2.2,1.08,32,-158.1,109.1,1023,2018,5,1,18,35,33.857,-0.4656,-0.5573,-0.202,0.657
-0.32,0.27,0.39,-21.5,-162.9,156.9,0,2018,5,1,18,35,33.874,-0.4683,-0.536,-0.2382,0.6607
-0.054,-1.402,-1.225,1.3,-120.1,146.5,0,2018,5,1,18,35,33.894,-0.4625,-0.5189,-0.2709,0.6657
-0.102,-2.283,-0.466,51.7,17.3,45.4,0,2018,5,1,18,35,33.935,-0.456,-0.5074,-0.282,0.6745
-0.126,-1.774,0.501,32.1,82.3,-67.3,0,2018,5,1,18,35,33.956,-0.4569,-0.5055,-0.2724,0.6792
-0.17,-0.148,0.453,-20.4,197.4,-121.9,0,2018,5,1,18,35,33.96,-0.4539,-0.523,-0.2433,0.679
-0.037,0.038,-0.415,-33.9,193.1,-137.5,0,2018,5,1,18,35,33.975,-0.4508,-0.5469,-0.2119,0.6728
0.075,0.93,-0.802,-7.2,148.5,-120.2,0,2018,5,1,18,35,33.995,-0.4476,-0.5681,-0.18,0.6666
0.171,1.725,-0.502,31.7,70.1,-53.9,0,2018,5,1,18,35,34.015,-0.4474,-0.5778,-0.1572,0.6641
0.009,2.663,0.535,36.4,-22.9,45.4,0,2018,5,1,18,35,34.053,-0.4452,-0.5764,-0.1495,0.6686
-0.152,0.914,0.775,-9.8,-257.2,134.1,0,2018,5,1,18,35,34.076,-0.4509,-0.5591,-0.1778,0.6726
-0.34,0.801,-0.51,-28.9,-258.8,183.1,0,2018,5,1,18,35,34.08,-0.4552,-0.5363,-0.2248,0.6741
-0.277,-1.747,-2.912,15.6,-186.2,168.5,0,2018,5,1,18,35,34.097,-0.4556,-0.5097,-0.2711,0.6775
-0.361,-2.224,-0.334,58.9,-74.5,59.7,0,2018,5,1,18,35,34.117,-0.4536,-0.49,-0.2905,0.6853
-0.112,-2.14,0.563,28,-9.4,-58.9,0,2018,5,1,18,35,34.139,-0.462,-0.4794,-0.2942,0.6856
-0.299,-0.003,0.805,-35.4,192,-118.6,0,2018,5,1,18,35,34.158,-0.462,-0.4951,-0.2711,0.6839
-0.042,-0.501,-0.307,-58.7,174.3,-134.8,0,2018,5,1,18,35,34.196,-0.4598,-0.5209,-0.2444,0.6763
-0.058,0.288,-0.714,-31.7,174.5,-139.4,0,2018,5,1,18,35,34.2,-0.4569,-0.5466,-0.2131,0.6684
0.001,0.469,-0.648,-1.4,140.8,-121.2,0,2018,5,1,18,35,34.216,-0.457,-0.565,-0.1843,0.6616
0.003,0.976,-0.421,23.5,112.3,-89.7,0,2018,5,1,18,35,34.236,-0.4566,-0.577,-0.1578,0.6584
-0.086,1.631,0.299,18,33,-26.5,0,2018,5,1,18,35,34.258,-0.4566,-0.5817,-0.1415,0.658
-0.08,1.619,0.782,-14.8,-82.9,55.4,0,2018,5,1,18,35,34.294,-0.457,-0.5791,-0.1459,0.659
-0.083,0.125,0.318,-44.2,-117.8,95.1,0,2018,5,1,18,35,34.314,-0.4584,-0.5713,-0.1701,0.659
-0.209,0.157,-0.157,-39.1,-65,113.5,0,2018,5,1,18,35,34.318,-0.4535,-0.5663,-0.1944,0.66
-0.176,-0.261,-0.26,-13.2,-90.7,127.9,1023,2018,5,1,18,35,34.355,-0.4467,-0.5584,-0.2184,0.6639
-0.187,-0.519,-0.148,16,-17,120.8,1023,2018,5,1,18,35,34.373,-0.4373,-0.549,-0.2368,0.6716
-0.13,-0.72,0.121,28.1,0.9,103.3,1023,2018,5,1,18,35,34.377,-0.426,-0.5409,-0.2473,0.6816
-0.003,-0.549,0.227,39.6,56.8,76.6,1023,2018,5,1,18,35,34.417,-0.4136,-0.5354,-0.2496,0.6927
0.164,-0.527,0.173,47.7,57.3,52.1,1023,2018,5,1,18,35,34.437,-0.4022,-0.5314,-0.2453,0.7039
0.254,-0.524,0.177,54.6,97,26.1,1023,2018,5,1,18,35,34.441,-0.3926,-0.5286,-0.2362,0.7145
0.409,-0.311,0.408,44.9,105,-6,1023,2018,5,1,18,35,34.459,-0.3835,-0.5291,-0.2203,0.7241
0.458,-0.357,0.454,23.9,86.2,-36.2,1023,2018,5,1,18,35,34.479,-0.3787,-0.5319,-0.2043,0.7292
0.421,-0.393,0.281,0.1,98.7,-69.1,1023,2018,5,1,18,35,34.496,-0.3777,-0.5382,-0.1874,0.7296
0.53,-0.313,-0.212,-4,136.9,-102.4,1023,2018,5,1,18,35,34.536,-0.377,-0.5494,-0.1641,0.7272
0.428,-0.201,-0.274,4.9,124,-131.1,1023,2018,5,1,18,35,34.556,-0.3792,-0.5612,-0.1359,0.723
0.301,-0.218,-0.403,16.6,115.9,-157.6,1023,2018,5,1,18,35,34.56,-0.386,-0.5707,-0.1061,0.7168
0.238,-0.174,-0.545,35.1,129.3,-177.8,1023,2018,5,1,18,35,34.581,-0.3952,-0.5784,-0.0721,0.7098
0.134,-0.057,-0.604,58.8,158.1,-188.4,1023,2018,5,1,18,35,34.601,-0.4038,-0.5843,-0.0325,0.7031
-0.005,0.172,-0.589,79.3,169.2,-189.2,1023,2018,5,1,18,35,34.623,-0.4101,-0.5878,0.0122,0.6972
-0.142,0.362,-0.513,97.3,164.5,-179.9,1023,2018,5,1,18,35,34.641,-0.4147,-0.5879,0.0584,0.692
-0.247,0.359,-0.487,116.4,155.2,-161.5,0,2018,5,1,18,35,34.662,-0.4175,-0.584,0.1029,0.6884
-0.32,0.465,-0.352,131.2,142,-134.2,0,2018,5,1,18,35,34.683,-0.4172,-0.5767,0.1452,0.687
-0.376,0.446,-0.288,140.9,101.1,-100.4,0,2018,5,1,18,35,34.721,-0.4153,-0.5659,0.1813,0.6886
-0.501,0.432,-0.299,150.5,46.6,-64.2,0,2018,5,1,18,35,34.725,-0.4127,-0.5509,0.2089,0.6945
-0.582,0.287,-0.187,157,-22.4,-28.2,0,2018,5,1,18,35,34.74,-0.4113,-0.5311,0.2255,0.7055
-0.628,0.237,-0.028,155.4,-116.7,2.5,0,2018,5,1,18,35,34.761,-0.4123,-0.5063,0.2297,0.7216
-0.613,-1.457,0.863,113.8,-154.5,9.1,0,2018,5,1,18,35,34.78,-0.4206,-0.476,0.217,0.7411
-0.269,-0.821,0.659,58.9,94.5,-46.1,0,2018,5,1,18,35,34.819,-0.42,-0.4651,0.2247,0.7461
-0.241,-0.684,-0.438,35.3,79.2,-69.7,0,2018,5,1,18,35,34.841,-0.419,-0.4636,0.2434,0.7417
-0.155,-0.267,-0.445,44.2,63.4,-92.1,0,2018,5,1,18,35,34.845,-0.4217,-0.4603,0.2626,0.7356
-0.076,-0.197,-0.193,41.9,34.3,-106.2,0,2018,5,1,18,35,34.862,-0.4291,-0.4532,0.2793,0.7296
-0.109,0.434,-0.005,34.2,60.3,-101.6,0,2018,5,1,18,35,34.883,-0.4369,-0.4468,0.2972,0.7218
-0.083,1.868,-0.024,21.8,1.4,-48,0,2018,5,1,18,35,34.921,-0.4425,-0.4421,0.3101,0.7158
-0.059,2.19,0.218,21.4,-40,58.5,0,2018,5,1,18,35,34.94,-0.4424,-0.4378,0.308,0.7194
-0.129,0.942,0.612,-12.7,-102.8,139.4,0,2018,5,1,18,35,34.944,-0.435,-0.4365,0.2898,0.7322
-0.277,0.521,0.447,-45.1,-96.6,173.6,0,2018,5,1,18,35,34.962,-0.4234,-0.441,0.2628,0.7464
-0.209,0.035,-0.54,-53.3,-120.3,177.3,0,2018,5,1,18,35,34.982,-0.4098,-0.4487,0.232,0.7594
-0.101,-1.969,-0.846,-17.4,-4.5,122.5,0,2018,5,1,18,35,35.003,-0.3974,-0.4538,0.206,0.7704
-0.029,-1.877,-0.45,25.9,26.9,28.3,0,2018,5,1,18,35,35.042,-0.3835,-0.4583,0.2065,0.7747
0.078,-1.852,-0.157,40,-11,-69.2,0,2018,5,1,18,35,35.061,-0.3869,-0.4518,0.2087,0.7762
-0.147,-0.578,0.633,14.1,91.4,-133.4,0,2018,5,1,18,35,35.066,-0.3963,-0.4469,0.2258,0.7695
-0.086,-0.468,-0.472,1.8,54.8,-169.1,0,2018,5,1,18,35,35.083,-0.4119,-0.4446,0.2465,0.7561
-0.363,0.677,-0.236,20.8,104.9,-157.5,0,2018,5,1,18,35,35.121,-0.426,-0.4421,0.2723,0.7408
-0.188,0.823,-0.196,27.2,38.4,-127.5,0,2018,5,1,18,35,35.142,-0.4381,-0.4371,0.2941,0.7283
-0.223,1.204,0.077,26.8,46.8,-60,1023,2018,5,1,18,35,35.146,-0.4459,-0.4313,0.3078,0.7212
-0.216,1.872,0.181,15.3,54.9,32.3,1023,2018,5,1,18,35,35.161,-0.4419,-0.4327,0.3177,0.7186
-0.18,1.03,0.261,-2.5,-76.1,111.5,1023,2018,5,1,18,35,35.184,-0.4332,-0.4349,0.3103,0.7258
-0.258,0.322,0.252,-22,-61.4,157.4,1023,2018,5,1,18,35,35.203,-0.4219,-0.4379,0.289,0.7393
-0.338,0.569,0.023,-34.9,-1.8,178.6,1023,2018,5,1,18,35,35.222,-0.4032,-0.4487,0.2706,0.7501
-0.185,-0.145,-0.127,-34.3,-121.5,186.6,1023,2018,5,1,18,35,35.245,-0.3854,-0.4572,0.2451,0.763
-0.285,0.203,-0.064,-35.6,-143.1,182.3,1023,2018,5,1,18,35,35.263,-0.3723,-0.4607,0.211,0.7775
-0.359,0.421,-0.279,-43.4,-206.3,196.5,1023,2018,5,1,18,35,35.281,-0.3619,-0.4614,0.1687,0.7922
-0.39,-0.041,-0.272,-48.2,-157,202.5,1023,2018,5,1,18,35,35.32,-0.3507,-0.4609,0.1221,0.8059
-0.243,0.247,-0.255,-44.8,-176.9,204.2,1023,2018,5,1,18,35,35.341,-0.3354,-0.4618,0.0809,0.8171
-0.232,0.008,-0.404,-45.5,-203.4,199.1,1023,2018,5,1,18,35,35.346,-0.3224,-0.459,0.0338,0.8271
0.025,0.053,-0.656,-48.1,-223.8,179.4,1023,2018,5,1,18,35,35.365,-0.3115,-0.4545,-0.0138,0.8343
0.177,-0.02,-0.404,-64.9,-298.1,150.2,1023,2018,5,1,18,35,35.385,-0.3076,-0.4472,-0.0682,0.837
0.285,-0.333,-0.131,-102.7,-343.2,101.8,1023,2018,5,1,18,35,35.425,-0.3129,-0.4396,-0.1301,0.8317
0.368,-0.586,-0.182,-133.5,-303.4,40.1,1023,2018,5,1,18,35,35.445,-0.3247,-0.4365,-0.1898,0.8172
0.381,-0.551,-0.411,-140.6,-197.9,-24,1023,2018,5,1,18,35,35.449,-0.3375,-0.4417,-0.2331,0.7978
0.352,-0.08,-0.527,-127,-161.7,-63.2,1023,2018,5,1,18,35,35.468,-0.3515,-0.4521,-0.2605,0.7772
0.225,0,-0.507,-104,-173.7,-75.9,0,2018,5,1,18,35,35.49,-0.3688,-0.4604,-0.2842,0.7557
0.052,-0.082,-0.364,-75.5,-178.8,-74.1,0,2018,5,1,18,35,35.505,-0.3886,-0.464,-0.3072,0.7343
-0.09,0.137,-0.33,-48.4,-155.1,-61.1,0,2018,5,1,18,35,35.526,-0.4071,-0.4642,-0.3261,0.7157
-0.187,0.219,-0.238,-20.5,-166.5,-37.1,0,2018,5,1,18,35,35.546,-0.4241,-0.4597,-0.3441,0.7002
-0.219,0.16,-0.139,1,-198.4,-4.7,0,2018,5,1,18,35,35.582,-0.4406,-0.4481,-0.3654,0.6866
-0.266,-0.259,-0.233,23.7,-194.8,19.1,0,2018,5,1,18,35,35.601,-0.4558,-0.4304,-0.3891,0.6749
-0.304,-0.352,-0.164,46.7,-149.1,26.9,0,2018,5,1,18,35,35.606,-0.4678,-0.411,-0.4078,0.6677
-0.349,-0.287,0.124,55.2,-129.4,28,0,2018,5,1,18,35,35.647,-0.478,-0.3916,-0.4213,0.6637
-0.288,-0.198,1.098,17.6,-201.2,33.6,0,2018,5,1,18,35,35.666,-0.488,-0.3709,-0.4388,0.6569
-0.318,-0.373,0.655,-38.9,-81.5,5.2,0,2018,5,1,18,35,35.671,-0.4934,-0.3593,-0.4571,0.6468
-0.324,-0.301,-0.076,-54.3,-35.2,2.1,0,2018,5,1,18,35,35.687,-0.493,-0.3597,-0.4686,0.6386
-0.218,-0.197,-0.444,-40.5,-16.6,7.6,0,2018,5,1,18,35,35.725,-0.4899,-0.3624,-0.4762,0.6337
-0.187,-0.065,-0.362,-21.3,-12.4,5.6,0,2018,5,1,18,35,35.746,-0.4875,-0.3642,-0.4808,0.6311
-0.071,-0.103,0.049,-15.9,-11.5,3.2,0,2018,5,1,18,35,35.75,-0.4864,-0.3644,-0.4845,0.629
-0.016,-0.128,0.168,-22,7.4,0.2,0,2018,5,1,18,35,35.77,-0.4849,-0.3657,-0.4866,0.6278
-0.09,-0.327,0.082,-23,20.3,-7,0,2018,5,1,18,35,35.789,-0.4826,-0.3695,-0.4874,0.6268
-0.03,-0.476,0.038,-22.5,48.7,-24.8,0,2018,5,1,18,35,35.809,-0.4803,-0.3761,-0.485,0.6264
-0.008,-0.307,0.145,-24.2,59.3,-41.1,0,2018,5,1,18,35,35.847,-0.4785,-0.3861,-0.4788,0.6266
-0.033,-0.41,0.197,-37.5,84.7,-55.1,0,2018,5,1,18,35,35.867,-0.4763,-0.3996,-0.4705,0.6261
-0.093,-0.574,0.123,-47,130,-70.6,0,2018,5,1,18,35,35.871,-0.4721,-0.4182,-0.458,0.6263
-0.048,-0.574,-0.064,-50.4,197.4,-93.3,0,2018,5,1,18,35,35.89,-0.4647,-0.4439,-0.4378,0.6286
0.036,-0.38,-0.138,-47.8,189.9,-114.2,0,2018,5,1,18,35,35.908,-0.4566,-0.4731,-0.4115,0.631
0.129,-0.439,-0.368,-41.3,197,-133.4,0,2018,5,1,18,35,35.946,-0.4511,-0.5016,-0.3841,0.6302
0.229,0.012,-0.316,-30.9,205.3,-146.2,0,2018,5,1,18,35,35.95,-0.4456,-0.5309,-0.3515,0.6292
0.316,0.06,-0.333,-22.4,158.1,-155.5,1023,2018,5,1,18,35,35.967,-0.4435,-0.5566,-0.3199,0.6253
0.433,0.261,-0.358,-10.6,142.6,-164.1,1023,2018,5,1,18,35,36.006,-0.4454,-0.5784,-0.2894,0.6189
0.413,0.569,-0.425,4.7,139,-164.1,1023,2018,5,1,18,35,36.026,-0.4486,-0.5976,-0.258,0.6123
0.401,0.988,-0.19,15.9,115.8,-144.9,1023,2018,5,1,18,35,36.031,-0.4517,-0.6133,-0.2269,0.6068
0.354,1.067,-0.034,16.6,68.2,-114.2,1023,2018,5,1,18,35,36.05,-0.4563,-0.6235,-0.2021,0.6016
0.193,0.855,-0.072,15.2,52.8,-78.1,1023,2018,5,1,18,35,36.07,-0.4605,-0.6298,-0.1847,0.5975
0.09,0.836,-0.31,22.6,61.3,-43.6,1023,2018,5,1,18,35,36.107,-0.4611,-0.6344,-0.1708,0.5963
0.005,0.859,-0.422,37.5,30.1,-1.6,1023,2018,5,1,18,35,36.128,-0.4586,-0.636,-0.1609,0.5993
-0.163,0.662,-0.385,53,-27,34.5,1023,2018,5,1,18,35,36.133,-0.4579,-0.6307,-0.1592,0.6058
-0.333,0.33,-0.287,65.3,-57.7,63.2,1023,2018,5,1,18,35,36.154,-0.4592,-0.6192,-0.1648,0.6151
-0.465,0.043,-0.26,73.1,-64,80.1,1023,2018,5,1,18,35,36.174,-0.4602,-0.6044,-0.1739,0.6265
-0.549,-0.09,-0.139,75.2,-53.6,87.4,1023,2018,5,1,18,35,36.196,-0.4592,-0.5888,-0.1831,0.6393
-0.647,-0.108,-0.033,67.7,-75.3,90.4,1023,2018,5,1,18,35,36.214,-0.4578,-0.5727,-0.1934,0.6518
-0.712,-0.038,0.058,54.3,-128.8,95.3,1023,2018,5,1,18,35,36.232,-0.4592,-0.5544,-0.2093,0.6617
-0.441,-1.075,0.663,9.6,-293.6,89.3,1023,2018,5,1,18,35,36.27,-0.4716,-0.5278,-0.2421,0.6635
-0.676,-1.375,0.767,-52.9,-53.6,16.3,1023,2018,5,1,18,35,36.29,-0.4802,-0.514,-0.2687,0.6579
-0.547,-0.705,-0.043,-75.6,41.2,-14.2,1023,2018,5,1,18,35,36.294,-0.477,-0.5223,-0.2739,0.6515
-0.379,-0.404,-0.505,-55.6,67.9,-25.8,1023,2018,5,1,18,35,36.313,-0.4708,-0.5359,-0.2707,0.6463
-0.16,0.005,-0.222,-23.2,65.4,-19.5,1023,2018,5,1,18,35,36.334,-0.4649,-0.5472,-0.2638,0.644
-0.069,0.102,0.177,-18.2,39.8,-3.6,1023,2018,5,1,18,35,36.354,-0.4596,-0.5547,-0.2578,0.6438
0.027,-0.027,0.15,-19.3,54.1,4.3,0,2018,5,1,18,35,36.374,-0.4539,-0.5604,-0.2544,0.6442
0.103,-0.076,-0.02,-17.6,98.6,9.7,0,2018,5,1,18,35,36.413,-0.4442,-0.5683,-0.2475,0.6467
0.211,-0.229,0.071,-6.2,88.1,5,0,2018,5,1,18,35,36.417,-0.4333,-0.5761,-0.2389,0.6505
0.388,-0.196,-0.041,7.4,118,-6,0,2018,5,1,18,35,36.435,-0.4232,-0.5834,-0.2275,0.6546
0.492,-0.168,0.047,1.7,158.6,-24.8,0,2018,5,1,18,35,36.456,-0.4107,-0.5936,-0.2094,0.6595
0.574,0.451,0.156,-12.6,147.8,-38.3,0,2018,5,1,18,35,36.476,-0.3979,-0.6068,-0.1881,0.6617
0.617,1.064,0.337,-38.2,37.3,-41.6,0,2018,5,1,18,35,36.492,-0.3914,-0.6175,-0.1744,0.6595
0.55,0.534,0.232,-65.8,-44.9,-34.5,0,2018,5,1,18,35,36.513,-0.3953,-0.6238,-0.1759,0.6507
0.469,0.445,-0.252,-67.8,-25.6,-35.2,0,2018,5,1,18,35,36.551,-0.4017,-0.6299,-0.1813,0.6394
0.391,0.468,-0.621,-41,1.4,-25.3,0,2018,5,1,18,35,36.572,-0.4044,-0.6364,-0.1828,0.6308
0.204,0.496,-0.551,-7.2,-4.2,-9.6,0,2018,5,1,18,35,36.576,-0.4055,-0.6396,-0.1826,0.6269
0.086,0.559,-0.49,20.7,-29.9,12.3,0,2018,5,1,18,35,36.614,-0.4073,-0.6376,-0.1838,0.6274
-0.13,0.34,-0.44,44.3,-64.3,35.5,0,2018,5,1,18,35,36.635,-0.4112,-0.6296,-0.1899,0.6311
-0.281,0.04,-0.352,60.4,-56.8,49.1,0,2018,5,1,18,35,36.639,-0.415,-0.6177,-0.1978,0.6379
-0.412,-0.068,-0.279,74.5,-41.5,56.9,0,2018,5,1,18,35,36.657,-0.4165,-0.6047,-0.2043,0.6472
-0.559,-0.228,-0.049,79.5,-54,56.8,0,2018,5,1,18,35,36.679,-0.4175,-0.5906,-0.2098,0.6578
-0.624,-0.472,-0.059,76.1,-73.2,47.1,0,2018,5,1,18,35,36.696,-0.421,-0.5749,-0.2171,0.6671
-0.58,0.342,0.253,62.6,-178.7,31.2,0,2018,5,1,18,35,36.715,-0.4292,-0.5573,-0.2278,0.6732
-0.496,-1.622,0.351,16.4,-193.5,21.6,0,2018,5,1,18,35,36.735,-0.4508,-0.5326,-0.2572,0.6684
-0.573,-0.19,0.329,-22.6,53.6,-19.9,0,2018,5,1,18,35,36.755,-0.4518,-0.5325,-0.2587,0.6673
-0.256,-0.163,-0.178,-28.9,42.3,-10.8,0,2018,5,1,18,35,36.776,-0.4485,-0.5398,-0.2546,0.6652
-0.123,0.067,-0.153,-17.1,1.5,-3,1023,2018,5,1,18,35,36.815,-0.4461,-0.5446,-0.253,0.6635
-0.096,-0.14,0.201,-3.4,10.4,8.5,1023,2018,5,1,18,35,36.839,-0.4451,-0.5456,-0.254,0.663
-0.045,-0.138,0.256,-9.3,11.9,16.2,1023,2018,5,1,18,35,36.852,-0.4425,-0.5464,-0.2546,0.6637
0.006,-0.22,0.031,-9.8,11.3,11.6,1023,2018,5,1,18,35,36.855,-0.4389,-0.5484,-0.2555,0.6642
0.201,-0.089,-0.011,0,43.2,8.2,1023,2018,5,1,18,35,36.894,-0.4354,-0.5503,-0.2542,0.6654
0.185,0.208,0.235,2.6,46.8,9.4,1023,2018,5,1,18,35,36.915,-0.4294,-0.5533,-0.2489,0.6688
0.272,0.155,0.218,1.1,20.2,11.2,1023,2018,5,1,18,35,36.917,-0.4256,-0.5545,-0.2455,0.6715
0.311,0.359,0.375,-12.3,5.5,13.5,1023,2018,5,1,18,35,36.956,-0.4225,-0.5555,-0.2458,0.6725
0.563,0.345,0.363,-35.1,-11,5.1,1023,2018,5,1,18,35,36.96,-0.4209,-0.5575,-0.2492,0.6707
0.595,0.5,0.307,-58,-2.8,-4.5,1023,2018,5,1,18,35,36.976,-0.4196,-0.5624,-0.2533,0.6658
0.486,0.73,0.224,-79.2,-9.9,-6.3,1023,2018,5,1,18,35,36.997,-0.4175,-0.5705,-0.258,0.6584
0.381,0.575,-0.091,-90.9,-19.8,-9.8,1023,2018,5,1,18,35,37.017,-0.4161,-0.5796,-0.2654,0.6483
0.361,0.58,-0.42,-82.1,-16.4,-5,1023,2018,5,1,18,35,37.055,-0.4144,-0.5886,-0.2727,0.6382
0.206,0.544,-0.439,-70.6,-76.6,1.5,1023,2018,5,1,18,35,37.075,-0.4155,-0.5939,-0.2832,0.6279
0.125,0.273,-0.56,-54.5,-101.2,5.1,1023,2018,5,1,18,35,37.079,-0.4219,-0.5936,-0.2988,0.6165
-0.077,0.271,-0.634,-31.8,-90.7,12.6,1023,2018,5,1,18,35,37.1,-0.4286,-0.5906,-0.3132,0.6076
-0.208,0.24,-0.61,-6.4,-104.8,25.7,0,2018,5,1,18,35,37.12,-0.4352,-0.5844,-0.3266,0.6018
-0.324,0.137,-0.426,13.1,-129.7,39.4,0,2018,5,1,18,35,37.14,-0.4439,-0.573,-0.3421,0.5978
-0.388,0.005,-0.212,20.5,-152.3,50.1,0,2018,5,1,18,35,37.179,-0.4543,-0.5572,-0.3602,0.5943
-0.422,0,-0.256,21.1,-164.6,58.8,0,2018,5,1,18,35,37.199,-0.4651,-0.5389,-0.3804,0.5903
-0.438,0.037,-0.414,27.9,-184.8,69.7,0,2018,5,1,18,35,37.203,-0.4763,-0.5176,-0.4025,0.5856
-0.494,-0.574,-0.313,28,-209.7,66.8,0,2018,5,1,18,35,37.218,-0.4896,-0.4918,-0.4278,0.579
-0.589,0.427,0.462,-0.1,-221.8,66.8,0,2018,5,1,18,35,37.255,-0.4996,-0.4694,-0.4505,0.5717
-0.401,-0.121,0.069,-36.1,-283.9,75.5,0,2018,5,1,18,35,37.277,-0.5124,-0.4416,-0.4852,0.5539
-0.377,0.11,-0.067,-47.9,-269.3,82.4,0,2018,5,1,18,35,37.281,-0.5218,-0.4143,-0.5211,0.5332
-0.364,-0.04,-0.012,-52.4,-214.9,94.1,0,2018,5,1,18,35,37.301,-0.5259,-0.3882,-0.5545,0.5148
-0.359,0.039,-0.155,-51.6,-186,112.7,0,2018,5,1,18,35,37.321,-0.5246,-0.3644,-0.5836,0.5013
-0.277,-0.219,-0.199,-41.2,-116,133.1,0,2018,5,1,18,35,37.357,-0.5182,-0.3416,-0.6088,0.4939
-0.19,-0.349,-0.29,-19.3,-37.3,146.3,0,2018,5,1,18,35,37.378,-0.5072,-0.3223,-0.6262,0.4965
-0.05,-0.424,-0.15,5.6,18.2,147.3,0,2018,5,1,18,35,37.382,-0.4938,-0.3064,-0.6352,0.5086
0.09,-0.578,0.21,14.7,-1,135.4,0,2018,5,1,18,35,37.422,-0.4817,-0.2904,-0.6406,0.5226
0.279,-1.077,0.384,4.4,-17.9,97.9,0,2018,5,1,18,35,37.426,-0.4726,-0.2752,-0.647,0.5312
0.474,-1.442,0.378,-7.7,13.8,33.8,0,2018,5,1,18,35,37.443,-0.4666,-0.2673,-0.651,0.5356
0.504,-1.127,0.611,-29.6,51.1,-33.6,0,2018,5,1,18,35,37.46,-0.463,-0.2723,-0.649,0.5385
0.499,-0.714,0.34,-57.2,27.5,-92.5,0,2018,5,1,18,35,37.479,-0.4622,-0.2874,-0.6457,0.5354
0.436,-0.483,-0.098,-66.8,-19.4,-133.4,0,2018,5,1,18,35,37.499,-0.4653,-0.3064,-0.6449,0.523
0.261,-0.342,-0.437,-51.8,-35.7,-162.2,0,2018,5,1,18,35,37.54,-0.4737,-0.326,-0.6446,0.5035
0.047,-0.071,-0.556,-23.8,-1,-175,0,2018,5,1,18,35,37.559,-0.4854,-0.3468,-0.6398,0.4843
-0.113,0.403,-0.653,8,25.9,-164.3,0,2018,5,1,18,35,37.563,-0.4978,-0.3679,-0.6283,0.471
-0.194,0.759,-0.645,44.2,-3.1,-129.2,1023,2018,5,1,18,35,37.582,-0.5118,-0.3828,-0.6153,0.4612
-0.273,0.789,-0.524,77.6,-32.1,-80.2,1023,2018,5,1,18,35,37.618,-0.5281,-0.387,-0.6043,0.4537
-0.406,0.677,-0.242,99.1,-30.4,-32.3,1023,2018,5,1,18,35,37.639,-0.5441,-0.3825,-0.5949,0.4511
-0.483,0.358,-0.041,100.9,23.7,5.1,1023,2018,5,1,18,35,37.643,-0.5565,-0.3742,-0.5855,0.4552
-0.75,1.478,1.908,34.6,-114.5,31.7,1023,2018,5,1,18,35,37.664,-0.563,-0.3658,-0.5798,0.4614
-0.544,-0.199,0.546,-37.1,-72.4,43.3,1023,2018,5,1,18,35,37.684,-0.5658,-0.3502,-0.593,0.4531
-0.444,0,-0.476,-33.3,-31.7,50.3,1023,2018,5,1,18,35,37.702,-0.561,-0.3436,-0.6038,0.4499
-0.382,0.16,-0.47,-7.6,-55.2,67.8,1023,2018,5,1,18,35,37.723,-0.5564,-0.3355,-0.612,0.4508
-0.27,0.085,0.041,-2.1,-87,77,1023,2018,5,1,18,35,37.742,-0.555,-0.3205,-0.6223,0.4493
-0.175,0.046,0.527,-23.4,-63.2,74.6,1023,2018,5,1,18,35,37.762,-0.5522,-0.3053,-0.6337,0.4473
-0.17,-0.017,0.165,-43.4,-9.5,79.7,1023,2018,5,1,18,35,37.782,-0.5442,-0.296,-0.644,0.4486
0.016,0.269,-0.129,-39.8,7.8,97.7,1023,2018,5,1,18,35,37.803,-0.5324,-0.2902,-0.6519,0.4552
0.26,0.105,-0.241,-22.5,-4,119.1,1023,2018,5,1,18,35,37.824,-0.5199,-0.2804,-0.6602,0.4637
0.41,-0.296,-0.109,-2.1,29.5,118.7,1023,2018,5,1,18,35,37.845,-0.5078,-0.2682,-0.6667,0.475
0.495,-0.378,0.192,4.6,44.3,100.6,1023,2018,5,1,18,35,37.865,-0.4967,-0.2581,-0.6682,0.4899
0.54,-0.446,0.295,-8.4,6.1,70.7,1023,2018,5,1,18,35,37.902,-0.4879,-0.2507,-0.6697,0.5004
0.627,-0.674,0.291,-20,-28.7,33,1023,2018,5,1,18,35,37.921,-0.4823,-0.2446,-0.6749,0.5019
0.52,-0.765,0.234,-26.7,-13.5,-13.2,1023,2018,5,1,18,35,37.925,-0.4798,-0.2436,-0.6794,0.4987
0.35,-0.504,-0.079,-25.6,-8.8,-51.1,0,2018,5,1,18,35,37.962,-0.4799,-0.2494,-0.681,0.4935
0.222,-0.225,-0.356,-13.2,-34.9,-67.3,0,2018,5,1,18,35,37.982,-0.4837,-0.2566,-0.6818,0.4849
0.1,-0.196,-0.503,10.4,-32.8,-76.8,0,2018,5,1,18,35,37.983,-0.4913,-0.2622,-0.6819,0.4741
-0.031,-0.013,-0.419,37.3,-12.5,-77.7,0,2018,5,1,18,35,38.02,-0.5017,-0.2676,-0.678,0.4657
-0.15,0.15,-0.327,56.8,-10,-68.1,0,2018,5,1,18,35,38.042,-0.5138,-0.2715,-0.6712,0.46
-0.231,0.264,-0.23,71.6,-20.9,-48.4,0,2018,5,1,18,35,38.046,-0.5268,-0.2718,-0.664,0.4556
-0.36,0.336,-0.137,83.1,-22.5,-22.8,0,2018,5,1,18,35,38.083,-0.5396,-0.2677,-0.6569,0.4532
-0.459,0.246,0.067,87.6,-23.2,2.6,0,2018,5,1,18,35,38.102,-0.5514,-0.2596,-0.6504,0.4532
-0.538,0.193,0.128,77.9,-21.8,23.2,0,2018,5,1,18,35,38.104,-0.5607,-0.2492,-0.6448,0.4555
-0.508,0.426,0.692,52.3,10.7,36.6,0,2018,5,1,18,35,38.139,-0.566,-0.2399,-0.6401,0.4606
-0.505,-0.011,0.644,4.3,-36.1,50.8,0,2018,5,1,18,35,38.157,-0.5666,-0.23,-0.6415,0.4631
-0.434,-0.107,0.093,-21.5,-24.4,48.6,0,2018,5,1,18,35,38.166,-0.5622,-0.2226,-0.6467,0.4647
-0.335,-0.127,-0.25,-23.2,-9.9,34.7,0,2018,5,1,18,35,38.199,-0.5567,-0.2183,-0.6518,0.4662
-0.207,-0.114,-0.167,-18.9,-16,20.1,0,2018,5,1,18,35,38.222,-0.5527,-0.2155,-0.6559,0.4665
-0.082,0.044,0.055,-20.7,-17.9,9.5,0,2018,5,1,18,35,38.223,-0.5501,-0.2134,-0.6597,0.4653
-0.069,0.041,0.193,-30.4,-24.9,1.8,0,2018,5,1,18,35,38.264,-0.5477,-0.2126,-0.664,0.4622
-0.075,-0.106,0.034,-39.8,-4.6,-10.6,0,2018,5,1,18,35,38.283,-0.5446,-0.2142,-0.6687,0.4584
-0.01,0.078,-0.063,-40,7.4,-12.6,0,2018,5,1,18,35,38.286,-0.5404,-0.2187,-0.6721,0.4563
-0.031,0.019,0.016,-37.6,0.3,-9.1,0,2018,5,1,18,35,38.319,-0.5368,-0.2235,-0.6747,0.4544
-0.06,0.027,0.131,-36.2,14.2,-0.5,0,2018,5,1,18,35,38.34,-0.5331,-0.2272,-0.6771,0.4534
0.012,0.059,0.187,-42.3,9.2,14.6,0,2018,5,1,18,35,38.345,-0.5277,-0.2306,-0.6798,0.4539
0.078,-0.167,0.237,-48.2,13.9,25.5,0,2018,5,1,18,35,38.379,-0.5203,-0.2326,-0.684,0.4551
0.125,-0.44,0.236,-55.1,38.4,29.7,0,2018,5,1,18,35,38.402,-0.5108,-0.2355,-0.688,0.4584
0.246,-0.53,0.149,-54.1,99.8,28.3,1023,2018,5,1,18,35,38.407,-0.4989,-0.2426,-0.6885,0.4669
0.288,-0.182,0.213,-51.7,153.6,34.7,1023,2018,5,1,18,35,38.423,-0.4845,-0.2545,-0.6836,0.4827
0.267,-0.138,0.28,-57.6,163.6,53.3,1023,2018,5,1,18,35,38.446,-0.4668,-0.2675,-0.6762,0.5031
0.235,-0.532,0.236,-62.4,171.8,62.7,1023,2018,5,1,18,35,38.481,-0.4466,-0.279,-0.6694,0.5239
0.221,-0.796,0.117,-62,234.8,54.3,1023,2018,5,1,18,35,38.502,-0.4236,-0.2933,-0.6584,0.5485
0.179,-0.754,-0.092,-57.6,302.5,31.4,1023,2018,5,1,18,35,38.506,-0.3982,-0.314,-0.6383,0.579
0.241,-0.561,-0.312,-46.9,286.7,7.8,1023,2018,5,1,18,35,38.54,-0.3733,-0.3377,-0.6115,0.6103
0.269,-0.647,-0.462,-31.8,216,-16.7,1023,2018,5,1,18,35,38.563,-0.3544,-0.3583,-0.5864,0.634
0.188,-1.018,-0.473,-18.7,202.5,-57.9,1023,2018,5,1,18,35,38.568,-0.3434,-0.3769,-0.5633,0.6501
0.139,-1.006,-0.747,-2.3,310.3,-107.2,1023,2018,5,1,18,35,38.607,-0.3347,-0.4012,-0.5289,0.6686
0.133,-0.48,-0.91,15.9,375.1,-142.7,1023,2018,5,1,18,35,38.627,-0.3247,-0.4319,-0.477,0.6931
0.12,-0.164,-0.769,28.1,334.4,-164.5,1023,2018,5,1,18,35,38.631,-0.3175,-0.4612,-0.4195,0.7144
0.018,-0.165,-0.704,35.6,286.5,-178.9,1023,2018,5,1,18,35,38.652,-0.316,-0.4858,-0.3648,0.7286
-0.169,-0.215,-0.781,43.7,285.4,-193.2,1023,2018,5,1,18,35,38.671,-0.3178,-0.5072,-0.3105,0.7383
-0.211,-0.097,-0.989,61.8,306.2,-204.8,1023,2018,5,1,18,35,38.711,-0.3193,-0.5268,-0.2512,0.7465
-0.303,0.075,-1.036,87.6,300.3,-209.6,1023,2018,5,1,18,35,38.715,-0.3206,-0.542,-0.1874,0.7538
-0.46,-0.047,-0.894,112.3,287.3,-214.7,1023,2018,5,1,18,35,38.732,-0.3235,-0.5507,-0.1232,0.7594
-0.628,0.141,-0.74,127.6,305.3,-219.4,0,2018,5,1,18,35,38.747,-0.3254,-0.5548,-0.0554,0.7636
-0.62,0.66,-0.587,129.6,212.3,-209.5,0,2018,5,1,18,35,38.767,-0.3288,-0.5538,0.0087,0.7649
-0.596,0.587,-0.465,135,44.3,-181.9,0,2018,5,1,18,35,38.802,-0.3424,-0.542,0.0517,0.7656
-0.629,0.413,-0.403,141.5,-50.2,-148.2,0,2018,5,1,18,35,38.821,-0.3642,-0.5208,0.0737,0.7685
-0.605,0.25,-0.375,145.6,-34,-120,0,2018,5,1,18,35,38.83,-0.3841,-0.4963,0.0886,0.7734
-0.634,0.605,-0.378,142.7,-19,-86.6,0,2018,5,1,18,35,38.865,-0.3975,-0.4736,0.1044,0.7789
-0.35,0.513,0.32,106,-112.8,-41.9,0,2018,5,1,18,35,38.885,-0.4107,-0.4488,0.1072,0.7862
-0.425,0.793,1.276,27.3,74.4,-28.9,0,2018,5,1,18,35,38.891,-0.4116,-0.4411,0.1167,0.7888
-0.105,-0.453,-0.027,-30,-82.6,-9.2,0,2018,5,1,18,35,38.929,-0.4176,-0.4389,0.1108,0.7877
-0.217,-0.13,-0.355,-29,-27.6,-15.6,0,2018,5,1,18,35,38.95,-0.4229,-0.4401,0.1039,0.7852
-0.108,-0.275,-0.391,-12.2,-0.5,-32.6,0,2018,5,1,18,35,38.954,-0.4283,-0.4408,0.1015,0.7821
-0.036,0.114,-0.144,-6.4,44,-40.1,0,2018,5,1,18,35,38.969,-0.4313,-0.4436,0.108,0.778
0.045,0.287,0.039,-7.8,26.6,-41.1,0,2018,5,1,18,35,39.009,-0.434,-0.4468,0.1167,0.7735
0.047,0.325,0.177,-11.7,15.7,-35.1,0,2018,5,1,18,35,39.03,-0.4379,-0.4487,0.1222,0.7692
-0.008,0.188,0.101,-13.1,-22.4,-26.5,0,2018,5,1,18,35,39.034,-0.4434,-0.4487,0.1222,0.7661
0.016,0.305,0.062,-8.9,-10.2,-16.1,0,2018,5,1,18,35,39.07,-0.4476,-0.4488,0.1214,0.7638
0,0.15,0.006,-3.5,-12.9,-14.1,0,2018,5,1,18,35,39.088,-0.4506,-0.4486,0.1211,0.7621
-0.022,-0.016,0.134,4,12.8,-12,0,2018,5,1,18,35,39.089,-0.4524,-0.4483,0.1232,0.7609
-0.004,0.152,0.133,5.8,16.8,-14.5,0,2018,5,1,18,35,39.125,-0.4539,-0.4478,0.1273,0.7597
0.032,0.238,0.156,3.2,21.2,-10.8,0,2018,5,1,18,35,39.145,-0.4541,-0.4485,0.1315,0.7584
0.125,0.043,0.246,6.5,4.7,-7.3,0,2018,5,1,18,35,39.153,-0.4535,-0.4488,0.1355,0.7579
0.182,0.404,0.213,6.9,-15.9,-5.2,0,2018,5,1,18,35,39.187,-0.4549,-0.4467,0.1352,0.7584
0.224,0.536,0.05,1,-16.5,15,1023,2018,5,1,18,35,39.21,-0.4555,-0.4449,0.1332,0.7594
0.214,0.528,0.244,-17.5,26.4,26.8,1023,2018,5,1,18,35,39.211,-0.4529,-0.4467,0.1317,0.7601
0.301,0.504,0.521,-44.3,83.4,42.6,1023,2018,5,1,18,35,39.244,-0.4449,-0.4557,0.135,0.7589
0.272,-0.105,0.336,-65.6,162.4,46.5,1023,2018,5,1,18,35,39.264,-0.4313,-0.4728,0.1424,0.755
0.273,0.673,-0.173,-62.3,144.1,66.3,1023,2018,5,1,18,35,39.272,-0.4097,-0.4963,0.1572,0.7489
0.112,0.592,-0.399,-58.4,-61.7,78.4,1023,2018,5,1,18,35,39.31,-0.3991,-0.5086,0.1504,0.7478
0.008,-0.067,-0.494,-44.2,-122,72.1,1023,2018,5,1,18,35,39.332,-0.3999,-0.5098,0.1259,0.7511
-0.03,-0.271,-0.6,-16.4,-79.6,66,1023,2018,5,1,18,35,39.337,-0.4006,-0.508,0.1041,0.7553
-0.194,-0.142,-0.566,15.7,-59.9,60.8,1023,2018,5,1,18,35,39.354,-0.3976,-0.5046,0.0904,0.7609
-0.393,-0.247,-0.384,36.7,-140.4,55.1,1023,2018,5,1,18,35,39.374,-0.3979,-0.495,0.0742,0.7688
-0.466,-0.501,-0.357,49.5,-182.3,42.5,1023,2018,5,1,18,35,39.41,-0.4052,-0.4778,0.0503,0.7777
-0.565,-0.522,-0.315,58.2,-195.5,27.7,1023,2018,5,1,18,35,39.43,-0.4155,-0.457,0.0256,0.786
-0.533,-0.485,-0.472,58.4,-199.9,11.1,1023,2018,5,1,18,35,39.434,-0.4283,-0.4341,0.0011,0.7924
-0.44,-1.804,1.167,11.8,69.3,11.5,1023,2018,5,1,18,35,39.47,-0.4353,-0.4193,-0.0118,0.7965
-0.354,0.284,0.493,-31.7,35.4,-32.7,1023,2018,5,1,18,35,39.488,-0.4283,-0.43,0.0072,0.7946
-0.096,-0.269,-0.139,-32.5,-16.8,-29,0,2018,5,1,18,35,39.494,-0.4344,-0.433,0.0035,0.7897
0.054,0,-0.343,13.4,45.5,-44.5,0,2018,5,1,18,35,39.53,-0.4439,-0.4367,0.0103,0.7823
0.058,-0.053,-0.25,23.7,144.9,-35,0,2018,5,1,18,35,39.551,-0.4419,-0.4411,0.0275,0.7805
0.069,-0.04,-0.108,31.5,225.5,-43.7,0,2018,5,1,18,35,39.556,-0.4315,-0.4521,0.0593,0.7783
0.028,0.516,0.35,31.7,153.6,-38.9,0,2018,5,1,18,35,39.577,-0.4202,-0.4626,0.0935,0.7749
-0.033,0.448,0.475,16.5,-21.2,-30.3,0,2018,5,1,18,35,39.597,-0.4205,-0.4623,0.1056,0.7734
-0.044,0.162,0.33,-10.1,-54.8,-26,0,2018,5,1,18,35,39.634,-0.4287,-0.4575,0.1006,0.7724
0.05,0.432,0.213,-26.2,23.9,-7.8,0,2018,5,1,18,35,39.653,-0.4323,-0.4592,0.0991,0.7696
0.137,0.191,-0.093,-33.2,33.7,6.9,0,2018,5,1,18,35,39.657,-0.4305,-0.4654,0.1004,0.7667
0.156,0.815,0.149,-45.8,36.8,23.8,0,2018,5,1,18,35,39.69,-0.4261,-0.4737,0.1018,0.7639
0.103,0.821,0.353,-73.2,11.7,52.9,0,2018,5,1,18,35,39.711,-0.4198,-0.484,0.0973,0.7615
0.108,0.842,0.441,-112.2,-21.3,79,0,2018,5,1,18,35,39.713,-0.4128,-0.4972,0.0843,0.7583
0.114,0.449,0.264,-149.6,-55.7,93.5,0,2018,5,1,18,35,39.748,-0.407,-0.5127,0.0611,0.7534
0.091,0.44,0.024,-166.2,-34.7,106.6,0,2018,5,1,18,35,39.768,-0.3989,-0.5315,0.0353,0.7463
-0.007,0.473,-0.204,-174.2,-114.4,105,0,2018,5,1,18,35,39.773,-0.3924,-0.5491,0.0042,0.7378
-0.036,0.219,-0.502,-165.7,-172,95,0,2018,5,1,18,35,39.814,-0.3939,-0.5604,-0.0365,0.7276
-0.149,0.11,-0.615,-140.8,-178.9,91.3,0,2018,5,1,18,35,39.834,-0.3981,-0.5665,-0.0786,0.7171
-0.092,0.056,-0.812,-100.9,-187.3,89.6,0,2018,5,1,18,35,39.838,-0.4031,-0.5671,-0.1188,0.7083
-0.11,-0.239,-0.701,-56.7,-158.4,89.7,0,2018,5,1,18,35,39.875,-0.4076,-0.562,-0.1549,0.7028
-0.212,-0.199,-0.457,-21.1,-116,89.3,0,2018,5,1,18,35,39.896,-0.4086,-0.5543,-0.1825,0.7016
-0.292,-0.063,-0.362,3.8,-136.6,88.7,0,2018,5,1,18,35,39.898,-0.409,-0.5436,-0.2062,0.7032
-0.44,-0.34,-0.384,20.7,-184.6,89.7,0,2018,5,1,18,35,39.915,-0.4139,-0.5265,-0.2337,0.7047
-0.401,-0.699,-0.469,33.8,-157.6,71.3,0,2018,5,1,18,35,39.935,-0.4208,-0.5068,-0.2598,0.706
-0.249,-1.064,1.237,-9.1,-206.3,35.5,0,2018,5,1,18,35,39.971,-0.4327,-0.4872,-0.2872,0.7019
-0.317,-1.024,0.561,-63.5,-61,-18.9,1023,2018,5,1,18,35,39.99,-0.4409,-0.4815,-0.307,0.6923
-0.302,-0.455,-0.054,-69.5,31.1,-32.9,1023,2018,5,1,18,35,39.997,-0.4415,-0.4908,-0.3116,0.6833
-0.182,0.091,-0.391,-42.8,50.8,-32.5,1023,2018,5,1,18,35,40.032,-0.4381,-0.5033,-0.3065,0.6787
-0.078,0.052,-0.327,-20.1,30.1,-20.4,1023,2018,5,1,18,35,40.054,-0.4362,-0.5111,-0.3019,0.6761
0.015,-0.002,-0.061,-9,51.3,-11.2,1023,2018,5,1,18,35,40.063,-0.4336,-0.5167,-0.2972,0.6756
-0.095,-0.161,0.263,-13.2,66.8,-4.4,1023,2018,5,1,18,35,40.081,-0.4289,-0.5225,-0.2903,0.6772
-0.008,-0.084,0.069,-8.5,76.4,-1.7,1023,2018,5,1,18,35,40.102,-0.4219,-0.5294,-0.2818,0.6798
-0.124,-0.013,0.054,-3.3,77.2,2.4,1023,2018,5,1,18,35,40.12,-0.4153,-0.5353,-0.273,0.6828
-0.025,0.05,-0.001,4.4,77.5,10.2,1023,2018,5,1,18,35,40.14,-0.4075,-0.5406,-0.2634,0.6871
0.024,0.051,0.071,13.4,77.3,17.8,1023,2018,5,1,18,35,40.175,-0.3994,-0.5442,-0.2539,0.6926
0.115,0.013,0.185,18.7,77.1,20.4,1023,2018,5,1,18,35,40.194,-0.3914,-0.546,-0.245,0.6989
0.123,0.191,0.206,18.9,75.6,26.8,1023,2018,5,1,18,35,40.201,-0.3821,-0.5475,-0.2355,0.7061
0.201,0.177,0.271,14.3,53.5,26.3,1023,2018,5,1,18,35,40.235,-0.3732,-0.5486,-0.229,0.7122
0.299,0.204,0.292,6.3,34,24.9,1023,2018,5,1,18,35,40.254,-0.3662,-0.5491,-0.2254,0.7165
0.386,0.073,0.225,0,32.2,21.9,1023,2018,5,1,18,35,40.259,-0.3606,-0.5496,-0.2233,0.7196
0.463,0.05,0.157,-2.8,44.3,11.4,1023,2018,5,1,18,35,40.297,-0.3548,-0.5515,-0.2202,0.722
0.569,0.245,0.426,-17.7,59.2,-0.6,0,2018,5,1,18,35,40.317,-0.3491,-0.5555,-0.214,0.7235
0.616,0.343,0.407,-46.5,35.9,-12.1,0,2018,5,1,18,35,40.321,-0.3438,-0.5629,-0.209,0.7219
0.545,0.383,0.304,-76.8,-13.5,-25.7,0,2018,5,1,18,35,40.359,-0.3429,-0.5721,-0.2092,0.715
0.442,0.312,-0.008,-97.4,-65.1,-39.3,0,2018,5,1,18,35,40.378,-0.3482,-0.5816,-0.2164,0.7025
0.372,0.571,-0.29,-102.1,-116.6,-45.7,0,2018,5,1,18,35,40.381,-0.3585,-0.5901,-0.2286,0.6861
0.271,0.456,-0.543,-95.8,-173.1,-42,0,2018,5,1,18,35,40.415,-0.3752,-0.5942,-0.2483,0.6665
0.131,0.452,-0.78,-71.1,-191.3,-31.4,0,2018,5,1,18,35,40.436,-0.3951,-0.5931,-0.2711,0.6469
-0.1,0.425,-0.713,-39.3,-188.8,-8.3,0,2018,5,1,18,35,40.441,-0.414,-0.5867,-0.2939,0.6307
-0.243,0.386,-0.707,-11.5,-200.1,22.6,0,2018,5,1,18,35,40.477,-0.4318,-0.5746,-0.3179,0.6182
-0.382,0.152,-0.595,19.8,-168,54.3,0,2018,5,1,18,35,40.498,-0.4462,-0.5575,-0.3417,0.6109
-0.534,0.195,-0.357,41.6,-138.2,80.3,0,2018,5,1,18,35,40.5,-0.4551,-0.5383,-0.3616,0.6101
-0.621,0.257,-0.337,50.1,-167.4,108.8,0,2018,5,1,18,35,40.535,-0.4617,-0.5151,-0.3828,0.6121
-0.609,0.146,-0.385,60.9,-210.2,135.5,0,2018,5,1,18,35,40.556,-0.469,-0.4851,-0.41,0.6135
-0.645,-0.128,-0.347,62.6,-229.9,140.7,0,2018,5,1,18,35,40.562,-0.4766,-0.4497,-0.44,0.6139
-0.505,-0.127,0.508,34.4,-251.8,112.2,0,2018,5,1,18,35,40.597,-0.4853,-0.4143,-0.4709,0.609
-0.432,-0.898,0.467,-14.1,-225.2,70.4,0,2018,5,1,18,35,40.617,-0.4941,-0.3839,-0.5031,0.596
-0.492,-0.82,0.198,-42.1,-148.3,32.4,0,2018,5,1,18,35,40.623,-0.4983,-0.3665,-0.5282,0.5815
-0.418,-0.331,-0.065,-46.2,-84,7.7,0,2018,5,1,18,35,40.657,-0.4988,-0.3604,-0.5439,0.5703
-0.397,-0.353,-0.094,-40.8,-79.1,-4.3,0,2018,5,1,18,35,40.678,-0.4997,-0.3574,-0.5559,0.5597
-0.287,-0.607,0.025,-38,-34.6,-22.8,0,2018,5,1,18,35,40.679,-0.501,-0.3572,-0.5646,0.5499
-0.155,-0.606,0.208,-44.9,13.9,-42.3,0,2018,5,1,18,35,40.713,-0.5007,-0.3637,-0.567,0.5434
-0.037,-0.574,0.191,-55.9,54.9,-66.3,0,2018,5,1,18,35,40.734,-0.4986,-0.377,-0.5647,0.5387
0.063,-0.402,0.089,-67.2,75,-93.1,1023,2018,5,1,18,35,40.742,-0.4953,-0.3968,-0.5583,0.5342
0.06,-0.402,-0.185,-70.7,82.7,-119.3,1023,2018,5,1,18,35,40.779,-0.4929,-0.4202,-0.5497,0.5273
0.135,-0.085,-0.578,-61.2,116.7,-140.1,1023,2018,5,1,18,35,40.798,-0.4913,-0.4474,-0.5367,0.5199
0.264,0.674,-0.754,-34.5,147.1,-128,1023,2018,5,1,18,35,40.804,-0.4885,-0.4757,-0.5181,0.5161
0.353,1.703,-0.772,15.5,110.6,-66.8,1023,2018,5,1,18,35,40.843,-0.4851,-0.4972,-0.4979,0.519
0.267,2.01,0.276,35.4,-99.6,36.5,1023,2018,5,1,18,35,40.862,-0.4878,-0.4967,-0.493,0.5217
-0.036,0.157,0.725,5.8,-182.1,88.2,1023,2018,5,1,18,35,40.866,-0.4975,-0.4742,-0.5122,0.5149
-0.188,-0.237,0.363,-17.3,-99.8,97.1,1023,2018,5,1,18,35,40.902,-0.4994,-0.4544,-0.5331,0.5097
-0.286,-1.204,-0.219,-13.5,-38.9,75.4,1023,2018,5,1,18,35,40.923,-0.4958,-0.4408,-0.5486,0.5087
-0.18,-1.307,-0.263,1.6,13.6,19.7,1023,2018,5,1,18,35,40.925,-0.4911,-0.4365,-0.5532,0.5119
-0.102,-1.236,0.123,2.9,72.5,-47.4,1023,2018,5,1,18,35,40.959,-0.4902,-0.4407,-0.5486,0.5142
-0.146,-0.429,0.36,-21.1,124.2,-93.9,1023,2018,5,1,18,35,40.979,-0.4876,-0.4578,-0.5338,0.5172
-0.194,-0.221,-0.285,-43.5,159.8,-115,1023,2018,5,1,18,35,40.984,-0.4825,-0.4827,-0.5157,0.5178
0.056,0.73,-0.794,-20.3,172.4,-102.7,1023,2018,5,1,18,35,41.021,-0.4739,-0.5109,-0.4928,0.5209
0.237,1.484,-0.529,19,127.9,-54.5,1023,2018,5,1,18,35,41.041,-0.4676,-0.5301,-0.4718,0.5269
0.227,2.005,0.487,20.6,-64.2,36,1023,2018,5,1,18,35,41.044,-0.4665,-0.5319,-0.4651,0.532
-0.008,1.072,0.523,-17.1,-194.2,99.5,1023,2018,5,1,18,35,41.08,-0.473,-0.514,-0.4851,0.5259
-0.247,0.234,-0.074,-30.4,-186.5,134.7,0,2018,5,1,18,35,41.099,-0.477,-0.4894,-0.5161,0.5161
-0.249,-0.673,-0.652,-15.3,-142.1,132.9,0,2018,5,1,18,35,41.107,-0.4758,-0.4654,-0.5443,0.5105
-0.275,-1.521,-0.625,12.7,-42,78.3,0,2018,5,1,18,35,41.142,-0.4734,-0.4473,-0.5615,0.5102
-0.125,-2.048,0.132,18.5,-2.7,-17,0,2018,5,1,18,35,41.162,-0.4742,-0.4407,-0.5642,0.5122
-0.012,-1.262,0.754,-17.2,163.3,-116,0,2018,5,1,18,35,41.169,-0.4749,-0.4541,-0.5514,0.5138
-0.064,-0.621,-0.058,-58.8,169.2,-165.6,0,2018,5,1,18,35,41.205,-0.4695,-0.4861,-0.5273,0.5149
0.105,0.452,-1.213,-37.1,171.7,-168.1,0,2018,5,1,18,35,41.207,-0.4646,-0.5205,-0.5009,0.5119
0.172,1.328,-0.829,15.8,154.6,-115.7,0,2018,5,1,18,35,41.225,-0.462,-0.5465,-0.474,0.5128
0.146,2.013,-0.473,62.5,122.9,-28.6,0,2018,5,1,18,35,41.26,-0.4581,-0.5602,-0.4505,0.5227
-0.1,1.875,0.963,45.3,-100,76,0,2018,5,1,18,35,41.279,-0.4585,-0.5537,-0.4465,0.5325
-0.284,-0.02,0.612,-22.7,-251.6,124.3,0,2018,5,1,18,35,41.286,-0.4698,-0.5274,-0.4756,0.5242
-0.22,-0.388,-0.618,-19.6,-135.6,126.7,0,2018,5,1,18,35,41.32,-0.4723,-0.5041,-0.5057,0.5166
-0.185,-1.194,-0.993,20.2,-101,101.5,0,2018,5,1,18,35,41.339,-0.4716,-0.4842,-0.5259,0.5161
-0.215,-1.705,0.109,32,-44.6,24.3,0,2018,5,1,18,35,41.35,-0.4745,-0.4697,-0.535,0.5175
-0.126,-1.292,0.768,-1.4,167.9,-67.8,0,2018,5,1,18,35,41.388,-0.4737,-0.4751,-0.5266,0.5219
-0.076,-0.079,0.297,-33.9,175,-100.9,0,2018,5,1,18,35,41.409,-0.464,-0.5006,-0.5034,0.5296
0.048,0.045,-0.623,-32.6,163.1,-120.1,0,2018,5,1,18,35,41.413,-0.4569,-0.5266,-0.4818,0.5306
0.18,1.466,-0.537,-11.7,75.4,-88.9,0,2018,5,1,18,35,41.429,-0.4536,-0.5473,-0.4624,0.5299
0.162,1.453,-0.61,27.6,52.3,-19.9,0,2018,5,1,18,35,41.45,-0.454,-0.5551,-0.4518,0.5305
-0.007,1.955,0.156,50.8,-24.9,70.4,0,2018,5,1,18,35,41.47,-0.452,-0.5512,-0.448,0.5394
-0.375,0.792,0.767,3.7,-216.2,131,0,2018,5,1,18,35,41.488,-0.4572,-0.5291,-0.4685,0.5398
-0.437,-0.192,-0.37,-28.5,-257.3,157.8,0,2018,5,1,18,35,41.509,-0.4649,-0.4975,-0.5072,0.5281
-0.316,-0.857,-1.372,0.6,-129.5,133.6,0,2018,5,1,18,35,41.545,-0.4657,-0.4704,-0.5384,0.5213
-0.238,-0.843,-0.168,18.1,-113.4,93.5,1023,2018,5,1,18,35,41.565,-0.4654,-0.4495,-0.5569,0.5207
-0.076,-1.247,0.292,7.6,-94.4,39.9,1023,2018,5,1,18,35,41.569,-0.4694,-0.4324,-0.5711,0.5161
0.057,-1.446,0.443,-8.9,41.1,-26.3,1023,2018,5,1,18,35,41.604,-0.4709,-0.4295,-0.5742,0.5136
-0.014,-0.622,0.386,-28.9,140.2,-75.8,1023,2018,5,1,18,35,41.623,-0.4658,-0.4455,-0.5621,0.5181
0.085,-0.655,-0.23,-35.2,112.2,-104.5,1023,2018,5,1,18,35,41.63,-0.4609,-0.4674,-0.5469,0.5195
0.027,-0.13,-0.27,-17.9,123.6,-116.7,1023,2018,5,1,18,35,41.664,-0.4585,-0.4901,-0.529,0.5191
-0.087,-0.015,-0.167,-5,150.3,-112,1023,2018,5,1,18,35,41.685,-0.4561,-0.5124,-0.5079,0.5208
-0.096,0.285,-0.059,-2.3,121.2,-101,1023,2018,5,1,18,35,41.686,-0.4529,-0.533,-0.4857,0.5241
-0.042,0.212,0.053,0.1,124.7,-87.5,1023,2018,5,1,18,35,41.723,-0.4499,-0.5509,-0.4657,0.5262
0.053,-0.179,0.081,-3.6,107.2,-81.6,1023,2018,5,1,18,35,41.744,-0.4472,-0.5662,-0.4476,0.5281
0.09,-0.123,0.098,-2,146.2,-85,1023,2018,5,1,18,35,41.751,-0.4419,-0.5828,-0.4277,0.5309
0.179,0.078,0.186,-1.4,174.3,-83.8,1023,2018,5,1,18,35,41.774,-0.4331,-0.6013,-0.404,0.5362
0.242,0.292,0.253,-3,160.2,-78.9,1023,2018,5,1,18,35,41.794,-0.4223,-0.6199,-0.3798,0.5413
0.288,0.416,0.212,-5.7,122.4,-70.3,1023,2018,5,1,18,35,41.814,-0.4134,-0.6355,-0.3588,0.5443
0.387,0.38,-0.057,-0.7,88.9,-65.2,1023,2018,5,1,18,35,41.832,-0.408,-0.6474,-0.342,0.5452
0.376,0.31,-0.265,15.9,71.4,-59.4,1023,2018,5,1,18,35,41.879,-0.4054,-0.656,-0.3267,0.5462
0.476,0.489,-0.403,33,68.1,-55.8,1023,2018,5,1,18,35,41.88,-0.4041,-0.662,-0.3115,0.5489
0.452,0.549,-0.465,46.8,59.9,-51.4,1023,2018,5,1,18,35,41.894,-0.4039,-0.6654,-0.2966,0.5531
0.38,0.463,-0.426,60.4,48.1,-48.9,1023,2018,5,1,18,35,41.928,-0.4052,-0.6665,-0.282,0.5585
0.311,0.405,-0.497,70.7,43.9,-46.1,1023,2018,5,1,18,35,41.948,-0.4076,-0.6657,-0.2675,0.5648
0.197,0.368,-0.458,79.7,34.3,-37.3,1023,2018,5,1,18,35,41.954,-0.4106,-0.6629,-0.2536,0.5722
0.064,0.208,-0.418,85,29.8,-27,1023,2018,5,1,18,35,41.988,-0.4137,-0.6583,-0.241,0.5807
-0.084,0.073,-0.345,91.6,35.6,-15.6,1023,2018,5,1,18,35,42.007,-0.4157,-0.6526,-0.2293,0.5904
-0.254,-0.049,-0.32,96.8,47.6,-5.8,1023,2018,5,1,18,35,42.013,-0.4156,-0.6463,-0.2169,0.602
-0.38,-0.169,-0.154,103.6,61.5,0.1,0,2018,5,1,18,35,42.05,-0.4134,-0.6397,-0.2038,0.615
-0.512,-0.05,0.068,104.5,49,6.8,0,2018,5,1,18,35,42.069,-0.4102,-0.6324,-0.1899,0.629
-0.647,0.038,0.151,96.2,-27.5,15.7,0,2018,5,1,18,35,42.072,-0.4108,-0.6217,-0.1823,0.6413
-0.769,-0.073,0.1,83.1,-132.9,27.1,0,2018,5,1,18,35,42.107,-0.4202,-0.6048,-0.1874,0.6499
-0.75,-0.367,-0.119,70.9,-158.2,36.9,0,2018,5,1,18,35,42.126,-0.4352,-0.5833,-0.2026,0.6551
-0.658,-0.337,0.377,51.4,-167.2,35.4,0,2018,5,1,18,35,42.136,-0.4495,-0.562,-0.2199,0.6584
-0.548,-0.677,0.984,-14.6,-33.5,10.5,0,2018,5,1,18,35,42.171,-0.457,-0.5512,-0.2316,0.6584
-0.366,-0.482,-0.031,-43.5,41.5,-6.1,0,2018,5,1,18,35,42.19,-0.455,-0.5556,-0.2334,0.6555
-0.326,-0.238,-0.232,-34.8,49.4,-10.7,0,2018,5,1,18,35,42.195,-0.4487,-0.5649,-0.2289,0.6534
-0.159,-0.374,-0.201,-22.6,54.2,-23.1,0,2018,5,1,18,35,42.23,-0.4451,-0.5723,-0.2242,0.6511
-0.155,-0.35,0.073,-21.2,71,-38,0,2018,5,1,18,35,42.25,-0.4411,-0.5808,-0.2148,0.6494
-0.118,-0.261,0.18,-28.6,82.7,-50.1,0,2018,5,1,18,35,42.253,-0.4376,-0.5911,-0.2031,0.6463
0.112,0.059,0.067,-26.4,116.8,-58.3,0,2018,5,1,18,35,42.287,-0.4317,-0.6041,-0.1873,0.6429
0.178,-0.055,-0.187,-20.3,83.6,-59.7,0,2018,5,1,18,35,42.31,-0.4289,-0.6153,-0.1723,0.6383
0.252,0.568,-0.423,-4.6,105.1,-53.7,0,2018,5,1,18,35,42.317,-0.4239,-0.626,-0.1553,0.6357
0.297,1.131,-0.375,8.7,89.8,-23,1023,2018,5,1,18,35,42.355,-0.4176,-0.634,-0.1398,0.6356
0.38,1.612,-0.159,16.5,1.8,26.6,1023,2018,5,1,18,35,42.374,-0.4124,-0.6358,-0.1332,0.6386
0.209,1.028,0.328,1.6,-109.5,74.5,1023,2018,5,1,18,35,42.376,-0.4131,-0.629,-0.1448,0.6423
-0.025,0.416,0.274,-24,-154.5,96,1023,2018,5,1,18,35,42.411,-0.4177,-0.6181,-0.1703,0.6436
-0.106,-0.128,-0.06,-34.9,-129.6,100.7,1023,2018,5,1,18,35,42.431,-0.4213,-0.6076,-0.1996,0.6429
-0.129,-0.363,-0.441,-18.3,-102.3,93.8,1023,2018,5,1,18,35,42.437,-0.4211,-0.5987,-0.2244,0.6431
-0.258,-1.062,-0.489,11.4,-69.5,67.1,1023,2018,5,1,18,35,42.471,-0.4209,-0.5892,-0.2432,0.6453
-0.282,-1.636,-0.001,20.9,4.1,4.9,1023,2018,5,1,18,35,42.491,-0.4211,-0.5827,-0.2492,0.6487
-0.116,-0.932,0.422,2.3,125.6,-58.9,1023,2018,5,1,18,35,42.499,-0.4184,-0.5874,-0.2373,0.6506
-0.186,0.018,0.32,-24.6,91.2,-81.6,1023,2018,5,1,18,35,42.517,-0.4135,-0.6008,-0.2163,0.6489
0.025,0.025,-0.26,-19.3,84.1,-85.4,1023,2018,5,1,18,35,42.54,-0.414,-0.6122,-0.2002,0.6431
0,0.424,-0.295,1.4,81.9,-72.3,1023,2018,5,1,18,35,42.558,-0.4137,-0.6219,-0.1825,0.6392
0.11,1.07,-0.219,13.1,72,-33.9,1023,2018,5,1,18,35,42.579,-0.4117,-0.6283,-0.1672,0.6384
0.145,1.72,0.095,8.4,14,29.6,1023,2018,5,1,18,35,42.598,-0.4065,-0.6306,-0.1603,0.6413
0.1,0.984,0.327,-6.5,-93,85.5,0,2018,5,1,18,35,42.633,-0.4045,-0.6255,-0.1719,0.6445
-0.133,0.185,0.179,-23.6,-123.5,110.7,0,2018,5,1,18,35,42.653,-0.4054,-0.6157,-0.1969,0.6462
-0.062,-0.562,-0.416,-21.1,-56.4,109.1,0,2018,5,1,18,35,42.658,-0.4023,-0.6076,-0.2213,0.6479
0.033,-1.137,-0.522,14,19.8,73,0,2018,5,1,18,35,42.693,-0.3929,-0.6034,-0.2326,0.6536
-0.116,-1.074,-0.006,32.2,28,15.2,0,2018,5,1,18,35,42.712,-0.3851,-0.6009,-0.2313,0.661
-0.096,-0.751,0.53,8,44.7,-38.4,0,2018,5,1,18,35,42.721,-0.3854,-0.6006,-0.2259,0.663
-0.164,-0.105,0.361,-23.2,49,-57.3,0,2018,5,1,18,35,42.754,-0.3845,-0.6075,-0.2144,0.661
0.125,-0.008,-0.384,-12,68.7,-73.6,0,2018,5,1,18,35,42.776,-0.3857,-0.6162,-0.2023,0.6561
0.083,0.799,-0.408,16.2,55.6,-58.4,0,2018,5,1,18,35,42.779,-0.3867,-0.6223,-0.1874,0.6541
0.053,1.665,0.032,27.8,44.5,5.4,0,2018,5,1,18,35,42.818,-0.3848,-0.6241,-0.1764,0.6566
0.074,1.622,0.322,15,-71.6,89.7,0,2018,5,1,18,35,42.838,-0.3807,-0.6193,-0.1814,0.6622
-0.207,0.558,0.162,-0.8,-146.3,137.6,0,2018,5,1,18,35,42.842,-0.38,-0.6066,-0.2074,0.6666
-0.242,-0.416,-0.627,4.6,-152,157,0,2018,5,1,18,35,42.86,-0.3794,-0.59,-0.2418,0.6703
-0.235,-1.234,-0.368,40.5,-44.1,113,0,2018,5,1,18,35,42.881,-0.3727,-0.5754,-0.264,0.6783
-0.249,-1.436,0.227,43.1,-86.3,46.3,0,2018,5,1,18,35,42.918,-0.3716,-0.5621,-0.2767,0.685
-0.059,-1.212,0.525,10.7,-5.4,-19.1,0,2018,5,1,18,35,42.939,-0.3776,-0.5545,-0.2835,0.6852
-0.038,-0.218,0.378,-20.1,80.4,-47,0,2018,5,1,18,35,42.943,-0.376,-0.5607,-0.2733,0.6851
0.155,-0.102,-0.076,-23.9,60.3,-63.2,0,2018,5,1,18,35,42.96,-0.3746,-0.5709,-0.2608,0.6823
0.15,0.008,0.026,-14.3,34.3,-70.4,0,2018,5,1,18,35,42.98,-0.3777,-0.5791,-0.2501,0.6777
0.141,0.057,0.057,-9.4,91.2,-74.6,0,2018,5,1,18,35,43.015,-0.3795,-0.5873,-0.2362,0.6746
0.145,0.277,0.111,-8.9,121.1,-68.1,0,2018,5,1,18,35,43.035,-0.3764,-0.5985,-0.216,0.6733
0.244,0.507,0.249,-13.1,103.6,-58.8,0,2018,5,1,18,35,43.038,-0.3711,-0.6096,-0.1965,0.6722
0.305,0.458,0.311,-22.6,86.2,-46.3,0,2018,5,1,18,35,43.078,-0.3669,-0.6194,-0.1814,0.6698
0.361,0.447,0.277,-30.9,91.5,-31.9,0,2018,5,1,18,35,43.099,-0.3611,-0.6293,-0.1688,0.6671
0.427,0.509,0.261,-36.3,89.7,-20.2,1023,2018,5,1,18,35,43.103,-0.3527,-0.6398,-0.1569,0.6645
0.387,0.311,0.246,-45.2,47.3,-13.7,1023,2018,5,1,18,35,43.123,-0.3457,-0.6491,-0.1498,0.6607
0.42,0.224,-0.157,-40,18.9,-17.4,1023,2018,5,1,18,35,43.143,-0.3431,-0.6567,-0.1461,0.6554
0.4,0.364,-0.392,-22.8,-40.6,-19.6,1023,2018,5,1,18,35,43.184,-0.3454,-0.6602,-0.1469,0.6504
0.361,0.241,-0.479,-0.8,-81.9,-19.1,1023,2018,5,1,18,35,43.202,-0.3553,-0.6578,-0.1528,0.6462
0.333,0.113,-0.5,17.3,-57.9,-19.4,1023,2018,5,1,18,35,43.207,-0.3661,-0.6526,-0.158,0.6441
0.204,0.537,-0.513,31.3,-70.2,-11.1,1023,2018,5,1,18,35,43.228,-0.3751,-0.6466,-0.1607,0.6443
-0.001,0.805,-0.423,41.7,-151.2,16.7,1023,2018,5,1,18,35,43.242,-0.3883,-0.635,-0.1707,0.6455
-0.226,0.742,-0.317,38.3,-219.2,55.5,1023,2018,5,1,18,35,43.264,-0.4065,-0.6158,-0.1931,0.6466
-0.329,0.653,-0.429,32.1,-245.9,99.9,1023,2018,5,1,18,35,43.285,-0.4237,-0.5919,-0.2255,0.6473
-0.456,0.431,-0.721,38.9,-244.9,134.5,1023,2018,5,1,18,35,43.323,-0.4364,-0.5645,-0.2624,0.6495
-0.644,0.25,-0.828,49.8,-265.6,156,1023,2018,5,1,18,35,43.344,-0.4462,-0.5325,-0.3017,0.6527
-0.72,-0.227,-0.573,55.9,-261.1,155.1,1023,2018,5,1,18,35,43.348,-0.4556,-0.4961,-0.3424,0.6549
-0.707,-0.34,-0.316,50,-216.7,140.4,1023,2018,5,1,18,35,43.367,-0.4619,-0.4616,-0.3774,0.6565
-0.633,-0.149,-0.473,48.7,-212.6,125.7,1023,2018,5,1,18,35,43.388,-0.4663,-0.43,-0.4079,0.6566
-0.617,-0.4,-0.498,58.9,-226.9,108,1023,2018,5,1,18,35,43.408,-0.473,-0.3968,-0.4379,0.6534
-0.629,-0.707,-0.343,68.6,-195.4,77.4,1023,2018,5,1,18,35,43.428,-0.4817,-0.3641,-0.4631,0.6486
-0.59,-0.439,0.236,56,-197.3,47.1,0,2018,5,1,18,35,43.45,-0.4916,-0.336,-0.4823,0.6424
-0.361,-1.15,0.829,7.9,-154.7,-3.9,0,2018,5,1,18,35,43.47,-0.5025,-0.3139,-0.5017,0.6302
-0.167,-0.645,0.872,-46,-61.3,-41.8,0,2018,5,1,18,35,43.49,-0.5088,-0.3098,-0.513,0.6179
-0.082,-0.417,0.408,-71,-18.3,-52.3,0,2018,5,1,18,35,43.528,-0.5104,-0.3175,-0.5194,0.6071
-0.195,-0.323,0.081,-77.1,-10.6,-60.5,0,2018,5,1,18,35,43.532,-0.5101,-0.3297,-0.524,0.597
-0.258,-0.398,-0.159,-74.8,-2.7,-73.6,0,2018,5,1,18,35,43.549,-0.5104,-0.3431,-0.5275,0.5859
-0.169,-0.219,-0.226,-73.2,14.4,-90.3,0,2018,5,1,18,35,43.585,-0.5115,-0.3587,-0.5285,0.5746
-0.072,0.071,-0.327,-77.5,8.1,-107.9,0,2018,5,1,18,35,43.589,-0.5137,-0.3764,-0.5278,0.5618
0.163,0.702,-0.546,-70.8,-6.8,-95.2,0,2018,5,1,18,35,43.609,-0.5165,-0.3938,-0.5271,0.5478
0.436,1.429,-0.769,-33.4,-20.3,-34.1,0,2018,5,1,18,35,43.646,-0.5188,-0.4038,-0.5286,0.5368
0.31,1.43,-0.401,9.5,-87.8,51.9,0,2018,5,1,18,35,43.667,-0.5203,-0.3992,-0.535,0.5325
0.026,0.148,0.441,17.1,-122.4,102.8,0,2018,5,1,18,35,43.671,-0.5221,-0.379,-0.5503,0.5299
-0.174,-0.376,0.381,-0.1,-97,104.7,0,2018,5,1,18,35,43.689,-0.5196,-0.3587,-0.5661,0.5299
-0.202,-0.991,0.06,-7.6,-40.6,72.6,0,2018,5,1,18,35,43.728,-0.5151,-0.3439,-0.5788,0.5303
-0.233,-1.167,0.106,-7.1,-19.6,29.5,0,2018,5,1,18,35,43.732,-0.5113,-0.3368,-0.585,0.5317
-0.167,-1.2,0.228,-16.7,28.4,-28,0,2018,5,1,18,35,43.748,-0.5102,-0.338,-0.5862,0.5308
-0.165,-0.628,0.308,-37.2,70.1,-76.7,0,2018,5,1,18,35,43.767,-0.5092,-0.3509,-0.5802,0.5298
-0.125,0.133,-0.106,-64.7,65,-112.3,0,2018,5,1,18,35,43.787,-0.5085,-0.372,-0.5722,0.5248
0.173,0.858,-0.692,-52,32.8,-99.7,0,2018,5,1,18,35,43.823,-0.5097,-0.3922,-0.5668,0.5147
0.199,1.511,-0.495,-18,12.7,-35.2,0,2018,5,1,18,35,43.843,-0.5105,-0.4046,-0.5628,0.5087
0.169,1.779,-0.042,1.8,-95.9,53.9,1023,2018,5,1,18,35,43.848,-0.5112,-0.4011,-0.5673,0.5057
-0.107,0.602,0.038,-1.7,-159.9,110.5,1023,2018,5,1,18,35,43.889,-0.5137,-0.3791,-0.5863,0.4984
-0.153,-0.376,-0.079,0.9,-94.9,125,1023,2018,5,1,18,35,43.908,-0.5115,-0.3544,-0.6058,0.4956
-0.136,-1.029,-0.156,8,-55.5,98,1023,2018,5,1,18,35,43.912,-0.5063,-0.3355,-0.6186,0.4983
-0.065,-1.284,0.076,12,-13.5,37.8,1023,2018,5,1,18,35,43.933,-0.5033,-0.3245,-0.6243,0.5014
0.087,-1.324,0.11,4.3,1.3,-31.3,1023,2018,5,1,18,35,43.952,-0.5046,-0.3227,-0.6247,0.5008
0.064,-0.738,0.301,-10.7,45.4,-90,1023,2018,5,1,18,35,43.972,-0.5085,-0.3323,-0.619,0.4976
-0.11,-0.421,0.23,-40.9,56.8,-132,1023,2018,5,1,18,35,43.993,-0.5123,-0.3515,-0.6101,0.4915
-0.093,0.472,-0.309,-62.9,58.1,-148.3,1023,2018,5,1,18,35,44.008,-0.5147,-0.3768,-0.6008,0.4816
-0.01,1.206,-0.767,-41.1,30.3,-118.5,1023,2018,5,1,18,35,44.046,-0.5177,-0.3996,-0.593,0.4695
0.151,1.822,-0.461,3.1,10.8,-29.2,1023,2018,5,1,18,35,44.066,-0.5203,-0.4111,-0.5873,0.4639
-0.023,1.258,0.367,6.5,-177.2,72.6,1023,2018,5,1,18,35,44.07,-0.5249,-0.4001,-0.595,0.4585
-0.262,0.036,0.155,-8.8,-150.1,116.8,1023,2018,5,1,18,35,44.108,-0.5286,-0.3737,-0.6161,0.4484
-0.208,-0.594,-0.232,0,-72.7,123.6,1023,2018,5,1,18,35,44.128,-0.5251,-0.3506,-0.6326,0.4482
-0.111,-1.108,-0.053,15.7,-31,93.6,1023,2018,5,1,18,35,44.132,-0.5202,-0.3331,-0.6425,0.4532
-0.009,-1.478,0.286,15.1,-6.7,32.7,1023,2018,5,1,18,35,44.171,-0.518,-0.3234,-0.6459,0.458
0.123,-1.697,0.473,-9.2,56.7,-55.8,1023,2018,5,1,18,35,44.175,-0.5185,-0.3261,-0.6435,0.4589
-0.05,-0.318,0.513,-51,90.7,-124.1,1023,2018,5,1,18,35,44.194,-0.5173,-0.3476,-0.6333,0.4587
0.02,0.344,-0.663,-64.8,55.4,-152.4,0,2018,5,1,18,35,44.215,-0.5176,-0.3742,-0.6252,0.4484
0.189,1.606,-0.848,-14.6,65.8,-104.1,0,2018,5,1,18,35,44.235,-0.5193,-0.3977,-0.6152,0.44
0.065,2.444,-0.117,27.9,19.3,13.2,0,2018,5,1,18,35,44.254,-0.5202,-0.4064,-0.607,0.4422
-0.273,0.478,0.337,6.8,-187.7,110.5,0,2018,5,1,18,35,44.276,-0.5245,-0.3867,-0.6188,0.4384
-0.352,-0.58,0.126,-7.3,-69.9,121,0,2018,5,1,18,35,44.294,-0.5238,-0.3614,-0.6373,0.4344
-0.232,-0.47,-0.236,4.6,-38.8,115.3,0,2018,5,1,18,35,44.312,-0.5168,-0.3451,-0.6475,0.4409
-0.238,-0.708,0.087,12.4,-19.3,93.5,0,2018,5,1,18,35,44.334,-0.5115,-0.3299,-0.6551,0.4474
-0.198,-0.87,0.48,-1.1,-10.1,72.4,0,2018,5,1,18,35,44.353,-0.5068,-0.3184,-0.6605,0.4532
-0.175,-1.008,0.524,-16.4,80.6,45.8,0,2018,5,1,18,35,44.374,-0.4991,-0.3153,-0.6622,0.4613
-0.098,-0.756,0.411,-28.2,151.6,28.8,0,2018,5,1,18,35,44.393,-0.4867,-0.3236,-0.6562,0.4772
-0.014,-0.392,0.403,-49.8,159.1,20.8,0,2018,5,1,18,35,44.416,-0.4711,-0.3373,-0.6475,0.4947
0.037,-0.268,0.515,-77.9,105.6,23.2,0,2018,5,1,18,35,44.435,-0.4538,-0.3514,-0.6424,0.5077
0.182,-0.727,0.182,-95.4,115.6,6,0,2018,5,1,18,35,44.475,-0.4361,-0.3655,-0.6414,0.5145
0.328,-0.644,-0.288,-91.5,170.8,-15.3,0,2018,5,1,18,35,44.494,-0.4164,-0.3856,-0.6352,0.5238
0.431,-0.618,-0.59,-70.3,202.2,-36.9,0,2018,5,1,18,35,44.499,-0.3967,-0.4095,-0.6217,0.5369
0.474,-0.531,-0.655,-43.4,234.9,-66.9,0,2018,5,1,18,35,44.514,-0.3794,-0.4353,-0.6008,0.5526
0.497,-0.301,-0.866,-11.1,249.9,-94.9,0,2018,5,1,18,35,44.535,-0.3654,-0.4624,-0.5721,0.5703
0.518,-0.043,-0.894,22.1,241.9,-116.7,0,2018,5,1,18,35,44.556,-0.3563,-0.4876,-0.5379,0.588
0.493,0.201,-0.831,52.3,222.3,-129.4,0,2018,5,1,18,35,44.574,-0.3525,-0.5092,-0.5005,0.6048
0.393,0.235,-0.714,75.2,195.4,-137.3,0,2018,5,1,18,35,44.594,-0.3535,-0.5262,-0.4622,0.6199
0.2,0.234,-0.595,92.5,189.8,-140.9,0,2018,5,1,18,35,44.615,-0.3576,-0.5395,-0.4231,0.6339
0.042,0.231,-0.503,103.7,208.3,-141.3,0,2018,5,1,18,35,44.635,-0.3613,-0.5509,-0.3812,0.6485
-0.149,0.304,-0.328,104.1,203.9,-132.2,1023,2018,5,1,18,35,44.656,-0.3635,-0.5607,-0.3376,0.6628
-0.344,0.54,-0.093,100.3,166.2,-114.6,1023,2018,5,1,18,35,44.694,-0.365,-0.5676,-0.2969,0.6755
-0.427,0.716,-0.032,94.8,75.6,-85.1,1023,2018,5,1,18,35,44.716,-0.3696,-0.5687,-0.2665,0.6847
-0.511,0.624,0.025,84.8,-6,-45.9,1023,2018,5,1,18,35,44.72,-0.379,-0.5623,-0.2511,0.6906
-0.532,0.342,-0.016,76.2,-24.3,-17.3,1023,2018,5,1,18,35,44.733,-0.3877,-0.5528,-0.2448,0.6957
-0.555,0.341,-0.067,73.6,-42.8,6.9,1023,2018,5,1,18,35,44.772,-0.3945,-0.5417,-0.2431,0.7012
-0.472,0.153,0.104,63.2,-68.7,30.3,1023,2018,5,1,18,35,44.793,-0.4014,-0.5275,-0.2481,0.7063
-0.436,0.285,0.277,48.4,-24.2,38.6,1023,2018,5,1,18,35,44.797,-0.4023,-0.5167,-0.2512,0.7127
-0.31,0.112,0.069,29.5,-89.6,44.3,1023,2018,5,1,18,35,44.818,-0.4043,-0.5058,-0.2601,0.7162
-0.174,-0.102,-0.077,19,-104.3,42.2,1023,2018,5,1,18,35,44.856,-0.4089,-0.4933,-0.274,0.7171
-0.128,-0.155,-0.105,11.1,-87.4,30.1,1023,2018,5,1,18,35,44.877,-0.4133,-0.4826,-0.2882,0.7163
0.016,0.037,-0.261,10.6,-80.6,23.3,1023,2018,5,1,18,35,44.881,-0.4175,-0.4742,-0.2998,0.7147
0.043,0.263,-0.013,11,-86.2,21.1,1023,2018,5,1,18,35,44.9,-0.4218,-0.4658,-0.3104,0.7132
0.066,0.431,0.125,0.9,-143.5,34.3,1023,2018,5,1,18,35,44.918,-0.428,-0.4549,-0.326,0.7095
0.014,0.104,0.196,-12.3,-163.5,42.4,1023,2018,5,1,18,35,44.94,-0.4353,-0.4413,-0.3491,0.7026
-0.017,-0.252,0.116,-21.8,-123.7,42.1,1023,2018,5,1,18,35,44.96,-0.4403,-0.4291,-0.3712,0.6957
-0.095,-0.317,0.094,-24.2,-69.2,34.3,1023,2018,5,1,18,35,44.979,-0.441,-0.4223,-0.3867,0.691
-0.204,-0.442,-0.048,-22.6,-23.3,21.2,1023,2018,5,1,18,35,44.999,-0.4394,-0.4197,-0.3959,0.6884
-0.248,-0.447,-0.071,-19.3,9.5,5,0,2018,5,1,18,35,45.034,-0.4366,-0.421,-0.3987,0.6877
-0.181,-0.6,-0.048,-14.8,30.2,-14.8,0,2018,5,1,18,35,45.052,-0.4346,-0.4248,-0.3971,0.6876
-0.154,-0.62,-0.024,-14.7,71.7,-40.9,0,2018,5,1,18,35,45.054,-0.4332,-0.4323,-0.3897,0.6881
-0.114,-0.451,-0.037,-16.9,118.6,-64.4,0,2018,5,1,18,35,45.091,-0.4312,-0.445,-0.3752,0.6892
-0.064,-0.145,-0.162,-16.7,146,-78,0,2018,5,1,18,35,45.111,-0.428,-0.4619,-0.3542,0.6913
0.025,0.011,-0.166,-13.9,139.7,-82.3,0,2018,5,1,18,35,45.12,-0.4249,-0.4795,-0.3309,0.6927
0.023,0.049,-0.041,-13.4,140.1,-80.6,0,2018,5,1,18,35,45.158,-0.4224,-0.4963,-0.3081,0.6929
0.042,0.118,-0.042,-9.9,134.5,-80.2,0,2018,5,1,18,35,45.179,-0.4197,-0.5127,-0.2843,0.6928
0.007,0.121,-0.199,-2.6,126.7,-72.4,0,2018,5,1,18,35,45.183,-0.417,-0.5264,-0.2623,0.6928
0.109,0.349,-0.304,12.3,112.2,-61.8,0,2018,5,1,18,35,45.219,-0.414,-0.5377,-0.2404,0.6939
0.143,0.398,-0.22,28.9,91,-45.4,0,2018,5,1,18,35,45.241,-0.4121,-0.5444,-0.2217,0.6961
0.1,0.56,-0.141,44.3,53.1,-24.9,0,2018,5,1,18,35,45.245,-0.4106,-0.5464,-0.2063,0.7
0.111,0.635,-0.168,56.2,-8.4,-2.2,0,2018,5,1,18,35,45.258,-0.412,-0.5421,-0.1986,0.7048
0.046,0.546,-0.249,63,-52.5,21,0,2018,5,1,18,35,45.281,-0.4161,-0.5317,-0.1993,0.7101
0.199,0.472,0.515,47.8,-77.4,27.4,0,2018,5,1,18,35,45.3,-0.4216,-0.5184,-0.205,0.7151
-0.264,-0.131,0.552,16.1,16.5,31.6,0,2018,5,1,18,35,45.32,-0.4211,-0.5112,-0.2093,0.7193
0.016,0.393,0.167,-5.3,-73.5,34.8,0,2018,5,1,18,35,45.34,-0.4184,-0.5085,-0.2135,0.7215
-0.122,0.209,-0.12,-9.8,-158.3,42.9,0,2018,5,1,18,35,45.36,-0.4243,-0.4986,-0.2334,0.7188
-0.137,-0.025,-0.259,-8.5,-166.7,47.7,0,2018,5,1,18,35,45.381,-0.4327,-0.4852,-0.2588,0.7143
-0.178,-0.181,-0.147,-0.6,-105.3,45.7,0,2018,5,1,18,35,45.42,-0.438,-0.4731,-0.2798,0.7112
-0.21,-0.034,-0.025,-0.1,-64.9,44.2,0,2018,5,1,18,35,45.442,-0.4391,-0.464,-0.2931,0.7112
-0.221,-0.042,-0.093,-3.3,-54.3,43.3,1023,2018,5,1,18,35,45.446,-0.4385,-0.4569,-0.3034,0.7119
-0.281,-0.133,-0.248,-5.2,-44.2,43,1023,2018,5,1,18,35,45.463,-0.4369,-0.4511,-0.3136,0.7121
-0.296,-0.287,-0.195,-4.5,6,40.7,1023,2018,5,1,18,35,45.484,-0.4329,-0.4478,-0.3197,0.7139
-0.307,-0.169,0.103,-11.5,60.8,34,1023,2018,5,1,18,35,45.504,-0.4249,-0.4494,-0.3181,0.7184
-0.289,0.029,0.294,-32.7,27.5,27.9,1023,2018,5,1,18,35,45.521,-0.4158,-0.4542,-0.3157,0.7217
-0.176,-0.058,0.204,-53.5,-39,18.5,1023,2018,5,1,18,35,45.542,-0.411,-0.4579,-0.3215,0.7196
-0.036,-0.318,0.034,-63.5,-69.2,7.1,1023,2018,5,1,18,35,45.561,-0.4111,-0.4601,-0.3346,0.7122
0.013,-0.346,-0.075,-64.3,0.7,-8,1023,2018,5,1,18,35,45.596,-0.4102,-0.4655,-0.3435,0.7049
0.143,-0.156,-0.056,-59.3,45.6,-17.7,1023,2018,5,1,18,35,45.616,-0.4058,-0.4759,-0.3433,0.7005
0.329,-0.106,-0.193,-45.3,74,-25.4,1023,2018,5,1,18,35,45.619,-0.4003,-0.488,-0.3377,0.6981
0.465,-0.017,-0.352,-19,95.4,-29.1,1023,2018,5,1,18,35,45.657,-0.3941,-0.4996,-0.327,0.6986
0.453,0.009,-0.218,8.2,98.7,-36.4,1023,2018,5,1,18,35,45.677,-0.3892,-0.5086,-0.3125,0.7014
0.341,0.267,0.227,17.1,75.4,-36.4,1023,2018,5,1,18,35,45.681,-0.3863,-0.5152,-0.2966,0.7051
0.229,0.238,0.285,8.1,-3.3,-31.7,1023,2018,5,1,18,35,45.717,-0.3885,-0.5175,-0.289,0.7054
0.173,0.185,0.077,7.6,0,-25.8,1023,2018,5,1,18,35,45.737,-0.3934,-0.5177,-0.2862,0.7036
0.079,0.164,0.052,9.5,0,-16,1023,2018,5,1,18,35,45.742,-0.3964,-0.5177,-0.2838,0.7029
-0.021,0.194,0.179,9,12,-7,1023,2018,5,1,18,35,45.777,-0.3978,-0.5178,-0.2804,0.7034
-0.102,0.348,0.235,-1.3,-56.5,3.3,0,2018,5,1,18,35,45.799,-0.3998,-0.516,-0.282,0.703
-0.168,0.108,0.156,-13.6,-100.4,14.7,0,2018,5,1,18,35,45.8,-0.4059,-0.5105,-0.2938,0.6987
-0.199,-0.21,0.042,-17.1,-58.7,19.1,0,2018,5,1,18,35,45.837,-0.4105,-0.5053,-0.3067,0.6942
-0.215,-0.138,-0.104,-16.2,-0.2,17.5,0,2018,5,1,18,35,45.857,-0.4095,-0.5047,-0.3123,0.6927
-0.231,-0.145,-0.173,-13.9,22.6,17.8,0,2018,5,1,18,35,45.86,-0.4054,-0.5063,-0.3134,0.6935
-0.334,-0.207,-0.056,-18.9,43.6,14.3,0,2018,5,1,18,35,45.895,-0.3995,-0.5098,-0.3117,0.6951
-0.394,-0.316,0.002,-29.5,57.3,9.2,0,2018,5,1,18,35,45.917,-0.3922,-0.5157,-0.3085,0.6964
-0.366,-0.259,-0.045,-44.2,71.2,2.8,0,2018,5,1,18,35,45.924,-0.3835,-0.5244,-0.3035,0.6969
-0.219,-0.15,-0.246,-52,52.8,-4.2,0,2018,5,1,18,35,45.961,-0.3752,-0.5346,-0.2989,0.6956
-0.028,-0.077,-0.261,-48.6,30.3,-11.3,0,2018,5,1,18,35,45.983,-0.3696,-0.544,-0.2965,0.6924
0.149,-0.109,-0.206,-37.7,24.5,-17.3,0,2018,5,1,18,35,45.984,-0.3669,-0.5514,-0.2952,0.6885
0.277,-0.197,-0.116,-25.9,70.4,-27.1,0,2018,5,1,18,35,46.019,-0.3634,-0.5593,-0.2895,0.6864
0.362,0.063,-0.125,-11.9,102.9,-35.6,0,2018,5,1,18,35,46.039,-0.3571,-0.5695,-0.2772,0.6864
0.511,0.169,-0.2,10.6,86.8,-44,0,2018,5,1,18,35,46.042,-0.3518,-0.5776,-0.2615,0.6885
0.449,0.186,-0.024,31.5,80,-49.8,0,2018,5,1,18,35,46.076,-0.3507,-0.5819,-0.2461,0.6912
0.39,0.269,0.017,44.8,104.2,-46.4,0,2018,5,1,18,35,46.098,-0.3492,-0.5853,-0.2268,0.6955
0.309,0.432,-0.026,48.1,127.6,-34.2,0,2018,5,1,18,35,46.102,-0.3441,-0.5882,-0.2061,0.7021
0.194,0.662,0.123,46.2,121.9,-23.3,0,2018,5,1,18,35,46.143,-0.3357,-0.5911,-0.1844,0.7097
0.095,0.52,0.241,40.9,57.5,-11.4,0,2018,5,1,18,35,46.162,-0.33,-0.5913,-0.1689,0.7161
0.037,0.317,0.257,33.4,-13.5,-2.8,0,2018,5,1,18,35,46.165,-0.3298,-0.588,-0.1634,0.7201
-0.003,0.032,0.096,29.9,-56.8,0,0,2018,5,1,18,35,46.202,-0.3351,-0.5815,-0.1661,0.7224
-0.089,-0.077,-0.048,31.8,-60.5,2.9,1023,2018,5,1,18,35,46.224,-0.3422,-0.5738,-0.1718,0.7239
-0.227,-0.108,0.085,28.1,-45.4,0.1,1023,2018,5,1,18,35,46.227,-0.3481,-0.5665,-0.1767,0.7256
-0.211,-0.328,0.006,21.4,-9,-1.4,1023,2018,5,1,18,35,46.246,-0.3525,-0.5613,-0.1791,0.7269
-0.405,-0.371,-0.021,10.7,30.2,-12.7,1023,2018,5,1,18,35,46.265,-0.3521,-0.5603,-0.1754,0.7288
-0.223,0.03,0.006,6,30.6,-14,1023,2018,5,1,18,35,46.306,-0.3513,-0.5614,-0.1684,0.73
-0.287,-0.073,0.112,-3.3,2.8,-11.1,1023,2018,5,1,18,35,46.326,-0.3516,-0.5624,-0.1653,0.7298
-0.201,0.051,0.118,-14.2,-1.8,-4.5,1023,2018,5,1,18,35,46.328,-0.3523,-0.5638,-0.1648,0.7285
-0.122,0.112,0.103,-23.5,-42.9,0.7,1023,2018,5,1,18,35,46.347,-0.3539,-0.5651,-0.1682,0.726
-0.065,0.015,0.089,-31.1,-82.9,4.5,1023,2018,5,1,18,35,46.368,-0.3601,-0.5638,-0.1786,0.7214
-0.095,-0.031,0.175,-42.6,-84.7,5.5,1023,2018,5,1,18,35,46.407,-0.3667,-0.5625,-0.1915,0.7157
-0.003,-0.265,0.038,-50.9,-56.5,4.9,1023,2018,5,1,18,35,46.427,-0.3716,-0.5635,-0.2045,0.7087
0.117,-0.006,-0.071,-45.5,15.1,3.9,1023,2018,5,1,18,35,46.432,-0.3711,-0.5682,-0.2103,0.7036
0.231,0.118,-0.158,-31.7,53.9,8.2,1023,2018,5,1,18,35,46.451,-0.3653,-0.5754,-0.209,0.7011
0.281,0.308,-0.136,-16.3,87.3,16.3,1023,2018,5,1,18,35,46.47,-0.3557,-0.5824,-0.2027,0.7021
0.242,0.274,-0.084,-4.2,105.5,26,1023,2018,5,1,18,35,46.489,-0.3425,-0.5888,-0.1936,0.706
0.278,0.09,-0.287,12.8,151.9,27.7,1023,2018,5,1,18,35,46.511,-0.3257,-0.5951,-0.1801,0.7122
0.243,0.33,-0.329,32.6,115.2,28.1,1023,2018,5,1,18,35,46.53,-0.308,-0.5992,-0.1638,0.7205
0.127,0.14,-0.134,43.1,55.4,22.1,0,2018,5,1,18,35,46.569,-0.2976,-0.5977,-0.1545,0.7281
0.067,-0.016,0.064,44.9,29.4,12.2,0,2018,5,1,18,35,46.574,-0.2926,-0.5937,-0.1485,0.7346
0.075,0.165,0.094,38.5,-15.9,6.6,0,2018,5,1,18,35,46.591,-0.2922,-0.5881,-0.1457,0.7398
-0.014,0.17,0,34.9,-48.7,8.6,0,2018,5,1,18,35,46.611,-0.2962,-0.5814,-0.1486,0.743
-0.03,0.306,-0.158,37.1,-81.8,11.5,0,2018,5,1,18,35,46.65,-0.3025,-0.573,-0.1559,0.7455
-0.06,0.194,0.043,32.8,-139.7,16.8,0,2018,5,1,18,35,46.671,-0.3129,-0.5617,-0.1698,0.7467
-0.041,-0.291,-0.078,26.5,-83.4,18.7,0,2018,5,1,18,35,46.675,-0.3236,-0.5502,-0.1858,0.7469
-0.043,-0.269,-0.179,28.1,16.5,15.4,0,2018,5,1,18,35,46.694,-0.3247,-0.5447,-0.1895,0.7495
-0.112,-0.221,-0.165,34.7,84.7,11.6,0,2018,5,1,18,35,46.713,-0.319,-0.5431,-0.1818,0.755
-0.153,0.114,-0.082,40.3,97,11.8,0,2018,5,1,18,35,46.732,-0.3092,-0.5435,-0.1674,0.7621
-0.147,0.095,0.067,39.3,33.9,14,0,2018,5,1,18,35,46.768,-0.3025,-0.5413,-0.158,0.7683
-0.195,-0.003,0.146,30.7,-16.2,15.7,0,2018,5,1,18,35,46.79,-0.3008,-0.5365,-0.1566,0.7727
-0.241,-0.221,0.19,16.9,-32.3,13.4,0,2018,5,1,18,35,46.794,-0.3022,-0.5313,-0.1604,0.7749
-0.235,-0.138,0.16,7,-9.2,15.4,0,2018,5,1,18,35,46.811,-0.3026,-0.5281,-0.1639,0.7762
-0.344,-0.127,0.224,-8.9,-22.1,11,0,2018,5,1,18,35,46.833,-0.3018,-0.5272,-0.1668,0.7765
-0.227,-0.101,0.145,-19.5,-23.3,6.3,0,2018,5,1,18,35,46.852,-0.3022,-0.5277,-0.1712,0.775
-0.18,-0.208,0.157,-26.8,-31.3,1.9,0,2018,5,1,18,35,46.873,-0.3037,-0.5291,-0.1766,0.7723
-0.185,-0.289,0.252,-40.3,-11.3,-5.5,0,2018,5,1,18,35,46.9,-0.3051,-0.5325,-0.1813,0.7684
-0.144,-0.259,0.186,-52.9,-1.1,-12.5,0,2018,5,1,18,35,46.92,-0.305,-0.5389,-0.1833,0.7634
-0.083,-0.125,0.012,-59.5,-26.2,-18.8,0,2018,5,1,18,35,46.932,-0.3066,-0.5463,-0.1867,0.7566
0.004,-0.165,-0.173,-52.2,-26.2,-22.9,0,2018,5,1,18,35,46.967,-0.3104,-0.5527,-0.1918,0.7491
-0.001,-0.009,-0.123,-42.6,7.1,-23.1,0,2018,5,1,18,35,46.988,-0.3125,-0.5595,-0.193,0.7429
0.064,0.028,-0.059,-34.7,36.7,-19.8,1023,2018,5,1,18,35,46.991,-0.3117,-0.5672,-0.1901,0.7381
0.111,0.2,-0.01,-30.5,43.9,-13.5,1023,2018,5,1,18,35,47.009,-0.3087,-0.5746,-0.1842,0.7351
0.17,0.274,0.013,-29,22.6,-7.7,1023,2018,5,1,18,35,47.03,-0.3057,-0.5806,-0.1803,0.7327
0.211,0.236,0.084,-29.2,-6.7,-5.4,1023,2018,5,1,18,35,47.068,-0.3048,-0.5849,-0.1804,0.7296
0.226,0.123,0.055,-30.7,-20.1,-6.4,1023,2018,5,1,18,35,47.089,-0.3069,-0.5882,-0.1826,0.7255
0.313,0.036,-0.072,-28.7,-2.3,-11.3,1023,2018,5,1,18,35,47.093,-0.3086,-0.5921,-0.1846,0.721
0.333,-0.007,-0.167,-21.7,62,-17.8,1023,2018,5,1,18,35,47.115,-0.3068,-0.5978,-0.1812,0.718
0.379,0.138,-0.22,-7.1,129.9,-25.2,1023,2018,5,1,18,35,47.135,-0.298,-0.6059,-0.1667,0.7185
0.309,0.217,-0.144,1.1,109.1,-29.7,1023,2018,5,1,18,35,47.174,-0.2885,-0.6131,-0.1486,0.7201
0.265,0.327,-0.112,8.6,69.2,-30.5,1023,2018,5,1,18,35,47.194,-0.2825,-0.6179,-0.1334,0.7214
0.185,0.245,-0.108,19.7,-0.5,-27.9,1023,2018,5,1,18,35,47.198,-0.2832,-0.6183,-0.1257,0.7221
0.095,0.168,-0.09,29.5,-31.8,-22.3,1023,2018,5,1,18,35,47.217,-0.2892,-0.6146,-0.124,0.7232
0.03,0.219,-0.049,33.2,-45.9,-13,1023,2018,5,1,18,35,47.238,-0.2964,-0.6089,-0.1252,0.7249
-0.002,0.193,-0.113,35.9,-61.2,-3.4,1023,2018,5,1,18,35,47.275,-0.304,-0.6018,-0.1296,0.7269
-0.1,0.268,0.033,39.5,-75.9,5.4,1023,2018,5,1,18,35,47.296,-0.3113,-0.5935,-0.1357,0.7296
-0.145,-0.047,0.087,33.3,-83.7,11.9,1023,2018,5,1,18,35,47.301,-0.3204,-0.5833,-0.1459,0.7319
-0.134,0.202,0.137,26.1,-89.2,19.6,1023,2018,5,1,18,35,47.32,-0.3273,-0.5743,-0.1556,0.7339
-0.125,-0.107,-0.027,19.5,-106,27.7,0,2018,5,1,18,35,47.336,-0.3353,-0.5645,-0.1697,0.7348
-0.096,-0.169,-0.146,22.5,-43,29.3,0,2018,5,1,18,35,47.355,-0.3395,-0.5565,-0.181,0.7363
-0.132,-0.095,-0.049,25.2,3.9,30.7,0,2018,5,1,18,35,47.389,-0.3377,-0.5515,-0.1849,0.7399
-0.141,0.011,0.001,27.2,13.2,32.7,0,2018,5,1,18,35,47.412,-0.3332,-0.5477,-0.1849,0.7447
-0.206,0.073,0.152,24,-26.9,34.9,0,2018,5,1,18,35,47.416,-0.3304,-0.5427,-0.1868,0.7492
-0.321,0.04,0.192,12.5,-74.6,40.7,0,2018,5,1,18,35,47.452,-0.3311,-0.536,-0.1962,0.7513
-0.175,-0.235,-0.135,12.1,-65.1,40.2,0,2018,5,1,18,35,47.472,-0.3332,-0.5286,-0.2091,0.7521
-0.313,-0.337,0.009,12.1,-48.3,36,0,2018,5,1,18,35,47.477,-0.3335,-0.5224,-0.2189,0.7535
-0.394,-0.485,0.082,9.5,12.8,26.3,0,2018,5,1,18,35,47.518,-0.3319,-0.5184,-0.2241,0.7555
-0.282,-0.38,0.011,5.4,50.5,15.5,0,2018,5,1,18,35,47.538,-0.3265,-0.5187,-0.2211,0.7585
-0.319,-0.145,0.086,-2.3,61.4,13.2,0,2018,5,1,18,35,47.542,-0.3191,-0.5215,-0.2143,0.7617
-0.285,-0.224,0.147,-12.1,60.7,7.7,0,2018,5,1,18,35,47.557,-0.3119,-0.5254,-0.2078,0.7638
-0.22,-0.164,0.093,-21.6,56.5,3.6,0,2018,5,1,18,35,47.594,-0.3048,-0.5309,-0.201,0.7646
-0.093,-0.133,0.037,-25.1,27.9,1.3,0,2018,5,1,18,35,47.616,-0.2999,-0.5362,-0.197,0.7639
-0.032,-0.082,0.022,-24.9,16.8,0.3,0,2018,5,1,18,35,47.62,-0.2968,-0.5403,-0.1959,0.7625
0.01,0.046,0.03,-24.9,18.1,-0.3,0,2018,5,1,18,35,47.641,-0.2944,-0.5443,-0.1949,0.7609
0.109,0.166,0.006,-27.8,15.3,1.6,0,2018,5,1,18,35,47.658,-0.2924,-0.5489,-0.1934,0.7587
0.159,0.275,0.014,-32.3,7.6,8.4,0,2018,5,1,18,35,47.679,-0.2895,-0.5533,-0.1935,0.7566
0.204,0.336,-0.016,-35.3,-7.4,16.6,0,2018,5,1,18,35,47.7,-0.2866,-0.5574,-0.1964,0.7539
0.275,0.367,-0.076,-33,-22.9,22.7,0,2018,5,1,18,35,47.72,-0.2844,-0.5604,-0.2019,0.7511
0.326,0.443,-0.13,-29.5,-39.6,27.9,0,2018,5,1,18,35,47.741,-0.283,-0.5621,-0.2099,0.7482
0.392,0.451,-0.206,-18.4,-124.8,35.8,1023,2018,5,1,18,35,47.757,-0.2886,-0.5576,-0.2397,0.7403
0.396,0.275,-0.198,-13.9,-135,36,1023,2018,5,1,18,35,47.779,-0.2962,-0.5514,-0.2615,0.7346
0.328,0.156,-0.15,-7.5,-143.4,30.6,1023,2018,5,1,18,35,47.799,-0.3047,-0.5439,-0.2832,0.7287
0.245,0.096,-0.095,-4.5,-143,29,1023,2018,5,1,18,35,47.835,-0.3142,-0.5353,-0.3048,0.7222
0.168,0.151,-0.095,-3.5,-148.1,26.6,1023,2018,5,1,18,35,47.855,-0.324,-0.5264,-0.3258,0.7153
0.098,0.01,-0.09,-1.7,-137.6,25.4,1023,2018,5,1,18,35,47.859,-0.3335,-0.5173,-0.3465,0.7078
0.111,-0.048,-0.139,2.3,-125.6,17.4,1023,2018,5,1,18,35,47.88,-0.3424,-0.5091,-0.3653,0.7
0.054,-0.088,-0.134,8.7,-115.4,11.9,1023,2018,5,1,18,35,47.901,-0.3516,-0.5002,-0.381,0.6935
0.018,-0.057,-0.142,11.9,-117.9,6.8,1023,2018,5,1,18,35,47.92,-0.3611,-0.4911,-0.3952,0.687
0.009,-0.115,-0.115,14.3,-117.1,2,1023,2018,5,1,18,35,47.942,-0.3717,-0.4816,-0.4094,0.6798
0.014,-0.136,-0.042,15.6,-95.9,-4.7,1023,2018,5,1,18,35,47.961,-0.3819,-0.4729,-0.421,0.6731
-0.045,-0.079,0.01,12.8,-78.3,-8.1,1023,2018,5,1,18,35,47.981,-0.3901,-0.4654,-0.4302,0.6678
-0.05,-0.021,-0.029,9.2,-104.3,-6.3,1023,2018,5,1,18,35,48.003,-0.3992,-0.4584,-0.4395,0.6612
-0.119,-0.124,-0.083,8.4,-97.1,-2.1,1023,2018,5,1,18,35,48.023,-0.4082,-0.4505,-0.4509,0.6534
-0.164,-0.195,-0.124,13.1,-75.4,1.8,1023,2018,5,1,18,35,48.061,-0.4158,-0.443,-0.4604,0.647
-0.231,-0.268,-0.13,19.8,-37.5,2.5,1023,2018,5,1,18,35,48.081,-0.4214,-0.4368,-0.4663,0.6435
-0.335,-0.216,-0.073,24.4,-10.6,5.1,0,2018,5,1,18,35,48.085,-0.4244,-0.4325,-0.4676,0.6434
-0.382,-0.234,-0.03,26.3,15.1,9.9,0,2018,5,1,18,35,48.103,-0.4255,-0.4292,-0.4665,0.6457
-0.433,-0.152,-0.004,28.2,35.5,11.9,0,2018,5,1,18,35,48.122,-0.4244,-0.4273,-0.4626,0.6505
-0.4,-0.086,0.16,25.6,47.3,12.3,0,2018,5,1,18,35,48.143,-0.4221,-0.4263,-0.457,0.6565
-0.376,-0.117,0.203,19.2,35.1,13.3,0,2018,5,1,18,35,48.164,-0.4192,-0.4258,-0.4517,0.6624
-0.255,-0.092,0.253,10.3,3,13.6,0,2018,5,1,18,35,48.185,-0.4174,-0.4245,-0.4495,0.6658
-0.204,-0.276,0.241,-5.3,6.5,12.9,0,2018,5,1,18,35,48.204,-0.4161,-0.4232,-0.4506,0.6668
-0.1,-0.115,0.119,-16.4,42.5,12.9,0,2018,5,1,18,35,48.226,-0.4119,-0.4255,-0.4497,0.6685
-0.003,0.072,0.047,-15.9,67.8,20.5,0,2018,5,1,18,35,48.246,-0.4046,-0.4299,-0.4454,0.673
0.069,0.259,0.052,-11,62.2,31.8,0,2018,5,1,18,35,48.266,-0.3954,-0.4343,-0.4405,0.6789
0.206,0.296,0.112,-9.6,43.7,42.9,0,2018,5,1,18,35,48.285,-0.3862,-0.4362,-0.438,0.6845
0.355,0.321,0.094,-11.2,22.3,51.7,0,2018,5,1,18,35,48.321,-0.3771,-0.4361,-0.4386,0.6893
0.447,0.302,0.043,-13.3,-36,52.4,0,2018,5,1,18,35,48.34,-0.3703,-0.4331,-0.4444,0.6911
0.487,0.188,0,-17.4,-106.2,45.4,0,2018,5,1,18,35,48.344,-0.3686,-0.4263,-0.4582,0.6872
0.436,-0.028,-0.073,-19.3,-151.6,29.4,0,2018,5,1,18,35,48.381,-0.3724,-0.4169,-0.4783,0.6772
0.363,-0.235,-0.145,-17.7,-151.2,7.9,0,2018,5,1,18,35,48.386,-0.3797,-0.4076,-0.4993,0.6634
0.222,-0.162,-0.157,-13.2,-137,-11.4,0,2018,5,1,18,35,48.403,-0.3889,-0.4,-0.5167,0.6493
0.17,-0.1,-0.237,-4.9,-116.7,-22.6,0,2018,5,1,18,35,48.443,-0.3988,-0.394,-0.5306,0.6356
0.093,-0.103,-0.334,10.6,-82.9,-29.1,0,2018,5,1,18,35,48.463,-0.4088,-0.3892,-0.5398,0.6244
0.041,0.137,-0.216,24.5,-60.5,-31.5,0,2018,5,1,18,35,48.467,-0.4185,-0.3853,-0.544,0.6167
-0.017,0.062,-0.153,30.3,-71.7,-25.2,0,2018,5,1,18,35,48.486,-0.4288,-0.38,-0.5476,0.6097
-0.095,0.059,-0.087,35.1,-49,-18.8,0,2018,5,1,18,35,48.505,-0.4381,-0.3742,-0.5502,0.6042
-0.149,0.16,-0.046,34.7,-52.1,-11.1,0,2018,5,1,18,35,48.523,-0.4469,-0.3688,-0.5515,0.5999
-0.152,0.268,-0.087,34.2,-62.4,0.7,0,2018,5,1,18,35,48.562,-0.4547,-0.3618,-0.554,0.5961
-0.196,0.259,-0.006,32.7,-107.6,15.1,1023,2018,5,1,18,35,48.582,-0.4623,-0.3508,-0.5605,0.5906
-0.2,-0.175,0,29.1,-102.8,25,1023,2018,5,1,18,35,48.586,-0.4701,-0.3361,-0.5709,0.5831
-0.203,-0.323,-0.041,29.7,-45.7,21.9,1023,2018,5,1,18,35,48.606,-0.4748,-0.3247,-0.5775,0.5792
-0.248,-0.239,-0.07,33.2,-15.7,19.1,1023,2018,5,1,18,35,48.625,-0.4775,-0.3173,-0.579,0.5796
-0.277,-0.135,-0.13,40.4,-1.3,20.2,1023,2018,5,1,18,35,48.646,-0.4797,-0.311,-0.5779,0.5822
-0.325,-0.003,0.031,41.2,-15.2,23.8,1023,2018,5,1,18,35,48.685,-0.482,-0.3041,-0.5765,0.5854
-0.283,-0.154,0.203,36.7,-19.8,29.3,1023,2018,5,1,18,35,48.704,-0.4844,-0.2955,-0.5771,0.5872
-0.297,-0.196,0.269,27.8,1,31.6,1023,2018,5,1,18,35,48.709,-0.4849,-0.2883,-0.577,0.5904
-0.238,-0.145,0.31,16.2,7.2,33.3,1023,2018,5,1,18,35,48.727,-0.4836,-0.2833,-0.5764,0.5945
-0.198,-0.203,0.29,1,33.2,34.3,1023,2018,5,1,18,35,48.75,-0.4801,-0.2805,-0.5758,0.5992
-0.177,0.048,0.261,-9.2,65,43.5,1023,2018,5,1,18,35,48.771,-0.473,-0.2817,-0.5727,0.6073
-0.221,0.262,0.268,-12.1,68.6,65.1,1023,2018,5,1,18,35,48.79,-0.4627,-0.2832,-0.569,0.6179
-0.199,0.464,0.176,-6.4,43.4,96.9,1023,2018,5,1,18,35,48.81,-0.4501,-0.2809,-0.5677,0.6294
-0.074,0.23,0.313,-5.5,-2.6,126.3,1023,2018,5,1,18,35,48.826,-0.4363,-0.2714,-0.572,0.6393
-0.067,-0.304,0.332,-13.4,25.4,133.3,1023,2018,5,1,18,35,48.866,-0.4203,-0.2596,-0.5782,0.6492
-0.002,-0.576,0.493,-30.9,86,123.7,1023,2018,5,1,18,35,48.87,-0.4008,-0.2531,-0.5793,0.663
0.157,-0.563,0.491,-54.3,110.2,104.2,1023,2018,5,1,18,35,48.886,-0.3785,-0.2538,-0.5752,0.6792
0.276,-0.62,0.348,-76.3,83,76.1,1023,2018,5,1,18,35,48.924,-0.3568,-0.259,-0.572,0.6916
0.341,-0.8,0.176,-93.1,51.8,36.3,0,2018,5,1,18,35,48.945,-0.3383,-0.2679,-0.5719,0.6975
0.403,-0.988,0.101,-100.6,41.4,-13.4,0,2018,5,1,18,35,48.949,-0.3251,-0.2811,-0.573,0.6977
0.504,-0.995,-0.086,-99,60.3,-67.8,0,2018,5,1,18,35,48.987,-0.3178,-0.3004,-0.5708,0.6948
0.495,-0.799,-0.253,-88.2,76,-114.8,0,2018,5,1,18,35,49.006,-0.316,-0.3248,-0.5626,0.6913
0.473,-0.546,-0.356,-71.7,77.7,-151.8,0,2018,5,1,18,35,49.01,-0.32,-0.3518,-0.5499,0.6865
0.385,-0.404,-0.342,-58.5,74.2,-183.3,0,2018,5,1,18,35,49.048,-0.3292,-0.3797,-0.534,0.6798
0.216,-0.336,-0.477,-45.1,75.2,-206.6,0,2018,5,1,18,35,49.051,-0.3424,-0.4082,-0.5151,0.6713
-0.016,-0.294,-0.622,-26.9,82,-225.2,0,2018,5,1,18,35,49.067,-0.3586,-0.4363,-0.4924,0.6622
-0.213,-0.166,-0.644,-5.7,87.9,-233.2,0,2018,5,1,18,35,49.108,-0.377,-0.4628,-0.4659,0.653
-0.4,-0.065,-0.634,17.5,90.1,-234.5,0,2018,5,1,18,35,49.112,-0.3966,-0.4866,-0.4361,0.6447
-0.588,0.042,-0.58,39,72.2,-229,0,2018,5,1,18,35,49.128,-0.4173,-0.5064,-0.4048,0.6367
-0.787,-0.092,-0.585,63.4,64.5,-223.8,0,2018,5,1,18,35,49.167,-0.44,-0.5209,-0.3736,0.6287
-0.894,-0.064,-0.425,79.7,81,-217,0,2018,5,1,18,35,49.188,-0.462,-0.5323,-0.34,0.6224
-0.865,0.335,-0.333,86.2,94.2,-203.3,0,2018,5,1,18,35,49.192,-0.4808,-0.5427,-0.3035,0.618
-0.754,1.078,-0.04,83.7,41.1,-160.9,0,2018,5,1,18,35,49.211,-0.4981,-0.5488,-0.2711,0.614
-0.652,1.281,0.195,68,-31.5,-88.6,0,2018,5,1,18,35,49.233,-0.5149,-0.5462,-0.2525,0.6104
-0.602,1.325,0.32,38.8,-44.5,-6.9,0,2018,5,1,18,35,49.269,-0.5262,-0.5386,-0.2476,0.6095
-0.539,1.026,0.385,5.9,-6.4,66.5,0,2018,5,1,18,35,49.274,-0.5264,-0.532,-0.2515,0.6136
-0.449,1.012,0.735,-35,-9.6,119,0,2018,5,1,18,35,49.29,-0.5161,-0.5288,-0.2618,0.6207
-0.456,0.852,0.461,-80.3,-215.1,171.3,0,2018,5,1,18,35,49.311,-0.5073,-0.5182,-0.2925,0.6232
-0.38,-0.278,-0.123,-98.2,-245.5,182.4,1023,2018,5,1,18,35,49.331,-0.5043,-0.4964,-0.3432,0.6175
-0.332,-1.124,-0.683,-78.9,-157.6,150.3,1023,2018,5,1,18,35,49.35,-0.4982,-0.4769,-0.3876,0.6115
-0.136,-1.593,-1.073,-27.8,-22,82.5,1023,2018,5,1,18,35,49.373,-0.4884,-0.4675,-0.4101,0.6119
0.075,-1.503,-0.45,9.1,-24.3,-0.6,1023,2018,5,1,18,35,49.392,-0.4845,-0.4643,-0.4152,0.614
0.186,-1.482,0.508,-5.6,11,-93.6,1023,2018,5,1,18,35,49.411,-0.4922,-0.4652,-0.4132,0.6086
-0.08,-0.243,0.79,-67,137.2,-161.8,1023,2018,5,1,18,35,49.432,-0.4958,-0.4869,-0.3954,0.6005
0.154,0.063,-0.522,-79.6,98.6,-176.6,1023,2018,5,1,18,35,49.451,-0.4989,-0.5162,-0.3762,0.5857
0.228,1.174,-0.689,-37,75.6,-141.8,1023,2018,5,1,18,35,49.493,-0.5035,-0.5403,-0.3573,0.5716
0.241,1.712,-0.523,8.9,77.6,-50.8,1023,2018,5,1,18,35,49.498,-0.5056,-0.5538,-0.3424,0.5659
0.174,2.369,0.541,32.9,-47.9,63.5,1023,2018,5,1,18,35,49.513,-0.5017,-0.5547,-0.3369,0.5717
-0.325,-0.121,0.658,-1,-149.6,129.7,1023,2018,5,1,18,35,49.553,-0.5053,-0.5344,-0.3596,0.5741
-0.319,-1.257,-0.36,-4,-53.2,115,1023,2018,5,1,18,35,49.573,-0.5014,-0.518,-0.3821,0.578
-0.244,-2.072,-0.643,33.5,34.3,41.1,1023,2018,5,1,18,35,49.577,-0.4945,-0.5109,-0.3882,0.5862
-0.045,-1.632,0.257,42.7,156.4,-55.9,1023,2018,5,1,18,35,49.592,-0.4914,-0.5142,-0.375,0.5944
-0.153,0.426,0.507,-0.1,186.4,-86.8,1023,2018,5,1,18,35,49.629,-0.4822,-0.5343,-0.3445,0.6026
-0.064,0.063,-0.22,-14.8,119.3,-82.5,1023,2018,5,1,18,35,49.65,-0.4773,-0.5521,-0.3229,0.6025
0.025,0.69,-0.324,5.2,126.4,-66.8,1023,2018,5,1,18,35,49.654,-0.4731,-0.567,-0.3025,0.6025
0.153,0.919,-0.264,22.3,94.2,-31.9,1023,2018,5,1,18,35,49.675,-0.4689,-0.5766,-0.2856,0.6049
0.178,1.51,0.191,25,60.4,22.3,0,2018,5,1,18,35,49.712,-0.4619,-0.5812,-0.2737,0.6114
0.094,1.019,0.493,1.2,-83.4,76.8,0,2018,5,1,18,35,49.734,-0.4582,-0.5762,-0.2791,0.6164
-0.291,-0.043,-0.077,-20.2,-122.8,102.6,0,2018,5,1,18,35,49.738,-0.4595,-0.5632,-0.3022,0.6166
-0.163,-1.247,-0.777,-1.5,-47,79.4,0,2018,5,1,18,35,49.775,-0.4569,-0.5524,-0.3218,0.6183
-0.233,-1.465,-0.375,29.5,33.8,10.7,0,2018,5,1,18,35,49.795,-0.4519,-0.5488,-0.3238,0.6242
-0.082,-0.972,0.51,16.8,59.7,-51.3,0,2018,5,1,18,35,49.799,-0.4536,-0.5496,-0.3165,0.6259
-0.229,0.138,0.56,-25.7,88.9,-67.1,0,2018,5,1,18,35,49.815,-0.4504,-0.5615,-0.3,0.6258
-0.05,-0.04,-0.273,-24.9,68.1,-61.3,0,2018,5,1,18,35,49.833,-0.4494,-0.5734,-0.2887,0.6211
-0.037,0.133,-0.468,11.8,70.6,-47.1,0,2018,5,1,18,35,49.872,-0.4479,-0.5822,-0.2762,0.6196
-0.053,0.187,-0.108,37.2,100.5,-24,0,2018,5,1,18,35,49.892,-0.4443,-0.5877,-0.261,0.6236
-0.099,0.315,0.331,33.5,75.3,-2.5,0,2018,5,1,18,35,49.897,-0.438,-0.5912,-0.2469,0.6305
-0.019,0.122,0.262,28.5,75.3,13.6,0,2018,5,1,18,35,49.915,-0.4314,-0.5929,-0.238,0.6368
0.085,0.164,0.188,26,92.9,28.7,0,2018,5,1,18,35,49.935,-0.4212,-0.5953,-0.2287,0.6448
0.099,0.014,0.164,28.2,100.5,34.7,0,2018,5,1,18,35,49.958,-0.4087,-0.5973,-0.218,0.6546
0.278,-0.046,0.255,24.4,99.7,30.7,0,2018,5,1,18,35,49.996,-0.3954,-0.6,-0.2081,0.6635
0.472,-0.178,0.174,19.7,88.2,14,0,2018,5,1,18,35,50.015,-0.3837,-0.6029,-0.1979,0.6707
0.479,-0.002,0.247,13.9,79.6,-9.1,0,2018,5,1,18,35,50.019,-0.3751,-0.6065,-0.1868,0.6756
0.481,0.019,0.285,0,59.5,-33.8,0,2018,5,1,18,35,50.035,-0.3709,-0.6106,-0.1757,0.6771
0.53,-0.064,0.012,-7.2,61.5,-58.7,0,2018,5,1,18,35,50.074,-0.3697,-0.6162,-0.164,0.6757
0.607,-0.037,-0.302,1.4,73.8,-81.3,0,2018,5,1,18,35,50.094,-0.3709,-0.6228,-0.1485,0.6726
0.48,0.077,-0.417,23.3,93.6,-94.5,1023,2018,5,1,18,35,50.098,-0.3725,-0.6289,-0.1279,0.6702
0.307,0.158,-0.442,45.6,114.8,-97,1023,2018,5,1,18,35,50.118,-0.3731,-0.6334,-0.1024,0.67
0.227,0.13,-0.486,68.7,117.5,-100.6,1023,2018,5,1,18,35,50.138,-0.3724,-0.636,-0.0738,0.6718
0.152,0.053,-0.527,93.8,88.9,-100.5,1023,2018,5,1,18,35,50.158,-0.3737,-0.634,-0.0448,0.6755
-0.054,-0.163,-0.321,113.5,90.1,-98.5,1023,2018,5,1,18,35,50.178,-0.3768,-0.6275,-0.0167,0.6811
-0.26,-0.157,-0.277,123.5,135.6,-100.3,1023,2018,5,1,18,35,50.216,-0.3763,-0.6208,0.0156,0.6875
-0.434,-0.009,-0.35,130,125.9,-100.2,1023,2018,5,1,18,35,50.236,-0.3728,-0.6139,0.0511,0.6938
-0.457,-0.001,-0.299,136.3,50.3,-96.2,1023,2018,5,1,18,35,50.241,-0.3735,-0.6024,0.0814,0.7006
-0.54,0.084,-0.307,142.2,-64.8,-79,1023,2018,5,1,18,35,50.26,-0.383,-0.5832,0.0987,0.7094
-0.641,-0.244,-0.354,153.5,-148.4,-57,1023,2018,5,1,18,35,50.281,-0.4001,-0.5557,0.101,0.7216
-0.733,-0.816,-0.032,136,-85.2,-45,1023,2018,5,1,18,35,50.3,-0.4182,-0.5251,0.0978,0.7346
-0.768,0.683,1.891,31.8,77.8,-50.1,1023,2018,5,1,18,35,50.339,-0.4156,-0.5195,0.1169,0.7372
-0.171,-0.202,-0.518,-3,-91.8,-39,1023,2018,5,1,18,35,50.343,-0.4238,-0.5152,0.1176,0.7355
-0.296,-0.453,-0.609,14.6,-27.7,-41.2,1023,2018,5,1,18,35,50.359,-0.4348,-0.5085,0.1125,0.7345
-0.117,-0.106,-0.278,23.4,20.4,-55.5,1023,2018,5,1,18,35,50.379,-0.4403,-0.5053,0.1191,0.7324
-0.107,0.175,0.073,12.3,14.9,-55.5,0,2018,5,1,18,35,50.399,-0.4448,-0.5037,0.1285,0.7293
-0.033,0.228,0.04,2.5,-3.2,-50.4,0,2018,5,1,18,35,50.422,-0.4516,-0.5013,0.1332,0.7258
-0.032,0.484,-0.052,5.1,10.5,-35.8,0,2018,5,1,18,35,50.441,-0.4565,-0.5003,0.138,0.7225
-0.012,0.737,0.035,11.9,4.1,-14.1,0,2018,5,1,18,35,50.461,-0.4584,-0.4994,0.1428,0.721
-0.061,0.334,0.118,11.2,-13.1,8.3,0,2018,5,1,18,35,50.479,-0.4592,-0.4973,0.1426,0.7221
0.003,0.178,0.298,12,-20.8,14.7,0,2018,5,1,18,35,50.519,-0.459,-0.4946,0.1403,0.7244
0.014,0.222,0.448,-3.3,-44.4,19.3,0,2018,5,1,18,35,50.539,-0.4594,-0.4922,0.1348,0.7269
0.056,0.152,0.355,-12.3,-73,20.7,0,2018,5,1,18,35,50.543,-0.4624,-0.4888,0.1245,0.7291
0.17,0.095,-0.026,-9.6,-107.3,24.9,0,2018,5,1,18,35,50.56,-0.4674,-0.4835,0.1109,0.7317
0.203,0.134,0.034,-13.5,-57.5,22.4,0,2018,5,1,18,35,50.58,-0.4721,-0.4781,0.0964,0.7342
0.312,0.143,0.209,-18.5,31.4,21.4,0,2018,5,1,18,35,50.6,-0.4704,-0.4797,0.0915,0.7349
0.397,0.146,0.291,-31.4,126.5,13.8,0,2018,5,1,18,35,50.62,-0.4614,-0.4898,0.0985,0.733
0.442,0.323,0.076,-40.7,182.4,10.8,0,2018,5,1,18,35,50.658,-0.4465,-0.5077,0.1145,0.7277
0.375,0.232,-0.054,-41.2,196.5,18.6,0,2018,5,1,18,35,50.679,-0.4276,-0.5284,0.1348,0.7208
0.299,0.56,-0.243,-36.3,80.2,25.2,0,2018,5,1,18,35,50.683,-0.4122,-0.5444,0.1482,0.7152
0.162,0.239,-0.353,-23.9,-45.9,27.3,0,2018,5,1,18,35,50.701,-0.409,-0.5495,0.1443,0.714
0.031,-0.114,-0.499,-0.9,-76.3,23.8,0,2018,5,1,18,35,50.723,-0.4129,-0.5466,0.1321,0.7163
-0.116,-0.141,-0.517,30.5,-47.7,19.1,0,2018,5,1,18,35,50.743,-0.4155,-0.5408,0.1237,0.7207
-0.193,-0.139,-0.357,62.5,-103,14.7,0,2018,5,1,18,35,50.783,-0.4188,-0.5301,0.117,0.7279
-0.434,-0.257,-0.184,76.9,-182.1,11,0,2018,5,1,18,35,50.787,-0.4292,-0.5102,0.1023,0.7381
-0.524,-0.553,-0.137,79.3,-201.8,6.2,0,2018,5,1,18,35,50.802,-0.444,-0.4851,0.0817,0.7488
-0.62,-0.508,0.06,68.4,-188.2,-3.7,0,2018,5,1,18,35,50.821,-0.4589,-0.4598,0.062,0.7576
-0.673,-1.826,1.611,-4,52.8,-10.1,0,2018,5,1,18,35,50.861,-0.4684,-0.4454,0.0504,0.7612
-0.417,0.342,0.17,-56.8,-23.7,-25.5,0,2018,5,1,18,35,50.88,-0.4662,-0.456,0.0593,0.7557
-0.275,-0.456,-0.656,-36.5,-73.8,-22,1023,2018,5,1,18,35,50.885,-0.4758,-0.4559,0.0466,0.7506
-0.128,-0.422,-0.742,-1.3,7.4,-35.5,1023,2018,5,1,18,35,50.904,-0.4822,-0.4553,0.0434,0.7471
-0.045,0.063,-0.109,18.3,93.5,-37.7,1023,2018,5,1,18,35,50.941,-0.4819,-0.4589,0.0555,0.7442
0.002,0.008,0.202,9.5,42.9,-38,1023,2018,5,1,18,35,50.963,-0.481,-0.4623,0.0687,0.7417
0.074,0.136,0.186,4.4,24.7,-38.5,1023,2018,5,1,18,35,50.967,-0.4835,-0.4633,0.0763,0.7386
-0.004,0.21,0.088,2.9,23.4,-33.8,1023,2018,5,1,18,35,50.986,-0.4871,-0.4637,0.0828,0.7353
-0.015,0.363,0.08,3.4,39.2,-23.4,1023,2018,5,1,18,35,51.007,-0.4881,-0.4656,0.0899,0.7326
0.077,0.415,0.14,3.1,34.9,-14.5,1023,2018,5,1,18,35,51.027,-0.487,-0.4685,0.0972,0.7305
0.111,0.385,0.151,6.4,10.4,-5.2,1023,2018,5,1,18,35,51.046,-0.4865,-0.4695,0.1012,0.7297
0.096,0.243,0.272,2.3,-10.8,1.3,1023,2018,5,1,18,35,51.061,-0.4874,-0.4686,0.103,0.7295
0.155,0.005,0.251,1,-8.2,2.4,1023,2018,5,1,18,35,51.1,-0.4881,-0.467,0.1017,0.7302
0.26,0.181,0.3,-1.5,-15,-2.7,1023,2018,5,1,18,35,51.119,-0.4889,-0.4658,0.1003,0.7306
0.281,0.513,0.361,-17.9,6.8,3,1023,2018,5,1,18,35,51.123,-0.4901,-0.4661,0.0992,0.7297
0.27,0.267,0.336,-35.3,68,9.7,1023,2018,5,1,18,35,51.146,-0.487,-0.4725,0.1014,0.7274
0.236,0.282,0.237,-46.1,132.6,11.7,1023,2018,5,1,18,35,51.166,-0.4778,-0.4865,0.1104,0.723
0.241,0.235,0.134,-51.7,158.1,15.5,1023,2018,5,1,18,35,51.205,-0.4646,-0.5051,0.1239,0.7166
0.27,0.493,-0.121,-45.9,142.5,31.8,1023,2018,5,1,18,35,51.226,-0.4485,-0.5248,0.1376,0.7102
0.317,0.485,-0.408,-24.8,68.2,37.2,0,2018,5,1,18,35,51.23,-0.4353,-0.5381,0.1445,0.7071
0.27,0.303,-0.419,3.4,-1.1,35.5,0,2018,5,1,18,35,51.246,-0.4281,-0.5427,0.1441,0.708
0.116,-0.053,-0.445,28.4,-39.6,38.8,0,2018,5,1,18,35,51.285,-0.4257,-0.5395,0.138,0.7131
0.064,-0.027,-0.427,59.2,-38.8,34.6,0,2018,5,1,18,35,51.305,-0.4236,-0.532,0.1334,0.7208
-0.118,-0.138,-0.326,83.6,-68.3,33.7,0,2018,5,1,18,35,51.309,-0.4225,-0.5195,0.1289,0.7313
-0.298,-0.346,-0.138,92.3,-100.9,31.1,0,2018,5,1,18,35,51.324,-0.4238,-0.5025,0.1216,0.7436
-0.349,-0.402,-0.107,92.6,-129.5,25.9,0,2018,5,1,18,35,51.363,-0.4283,-0.4823,0.1107,0.756
-0.466,-0.362,-0.123,88.7,-148.8,22.4,0,2018,5,1,18,35,51.383,-0.4348,-0.4602,0.0971,0.7679
-0.553,-0.512,-0.223,86.7,-155.2,12.2,0,2018,5,1,18,35,51.387,-0.4432,-0.4367,0.0815,0.7785
-0.51,-0.596,-0.186,81.2,-115.9,-6.4,0,2018,5,1,18,35,51.408,-0.4522,-0.414,0.069,0.7869
-0.382,-0.567,0.259,51.4,-2.6,-19.4,0,2018,5,1,18,35,51.428,-0.4581,-0.3991,0.0669,0.7913
-0.295,0.029,0.83,-4.3,114.2,-21.4,0,2018,5,1,18,35,51.448,-0.4557,-0.4015,0.0802,0.7903
-0.357,-0.152,0.233,-40.1,16.1,-18.7,0,2018,5,1,18,35,51.467,-0.4543,-0.4096,0.0886,0.786
-0.11,-0.16,-0.363,-42.9,3.9,-24.3,0,2018,5,1,18,35,51.508,-0.4574,-0.416,0.0877,0.7809
-0.053,-0.428,-0.45,-23.4,66.5,-30.2,0,2018,5,1,18,35,51.527,-0.4595,-0.4225,0.091,0.7758
-0.021,-0.041,-0.203,-3.7,78.2,-40.2,0,2018,5,1,18,35,51.531,-0.4587,-0.4299,0.1033,0.7707
0.012,0.317,0.077,3.2,47.4,-33.3,0,2018,5,1,18,35,51.545,-0.4587,-0.4343,0.1153,0.7665
0.011,0.171,0.04,-1.7,32.2,-27.1,0,2018,5,1,18,35,51.567,-0.4605,-0.4363,0.123,0.7631
0.002,-0.011,-0.045,-3.2,25.9,-21.6,0,2018,5,1,18,35,51.586,-0.4619,-0.4385,0.1289,0.76
-0.049,0.142,-0.047,-7.9,77.8,-11.3,0,2018,5,1,18,35,51.607,-0.4599,-0.4435,0.1379,0.7567
0.001,0.048,-0.108,-14.4,113.1,-3.1,0,2018,5,1,18,35,51.628,-0.4539,-0.4526,0.1504,0.7525
0.037,0.563,0.197,-14.9,52.3,9.6,1023,2018,5,1,18,35,51.649,-0.4459,-0.4626,0.1627,0.7486
0.003,0.115,0.118,-23.4,-8.3,19.1,1023,2018,5,1,18,35,51.668,-0.4442,-0.4659,0.161,0.748
-0.038,-0.018,0.03,-30.9,-18.7,18.5,1023,2018,5,1,18,35,51.689,-0.444,-0.4683,0.1563,0.7476
-0.019,-0.126,-0.013,-29.8,5.3,10.2,1023,2018,5,1,18,35,51.708,-0.4432,-0.4721,0.152,0.7466
-0.062,-0.199,-0.081,-31,3.4,2.9,1023,2018,5,1,18,35,51.73,-0.4429,-0.4763,0.1491,0.7447
-0.04,-0.209,-0.1,-23.3,14.2,-4.7,1023,2018,5,1,18,35,51.75,-0.4428,-0.4806,0.1476,0.7423
-0.025,-0.068,0.134,-17,70.4,-10.1,1023,2018,5,1,18,35,51.79,-0.4402,-0.4866,0.1528,0.7388
-0.071,-0.208,0.154,-22.2,21.4,-11.4,1023,2018,5,1,18,35,51.795,-0.4395,-0.4915,0.1569,0.7352
-0.09,0.162,0.143,-24.4,24.2,-10.9,1023,2018,5,1,18,35,51.81,-0.4392,-0.4963,0.1602,0.7314
-0.077,0.075,-0.108,-22.9,-13.5,-4.5,1023,2018,5,1,18,35,51.831,-0.4407,-0.4996,0.1589,0.7285
-0.105,0.239,-0.07,-13.1,-10,7.6,1023,2018,5,1,18,35,51.862,-0.4424,-0.5009,0.1562,0.7272
-0.014,0.443,-0.015,-7.8,-19.8,25.7,1023,2018,5,1,18,35,51.867,-0.442,-0.5012,0.1523,0.7281
0.068,0.441,0.078,-6.3,11.5,52.2,1023,2018,5,1,18,35,51.902,-0.4378,-0.5026,0.1473,0.7307
0.082,0.387,0.078,-25.3,-5.2,78.6,1023,2018,5,1,18,35,51.925,-0.4295,-0.5064,0.1403,0.7343
0.138,0.518,0.209,-47.2,-25.8,96.2,1023,2018,5,1,18,35,51.937,-0.4203,-0.512,0.1282,0.738
0.175,0.487,0.417,-81.7,-75.7,107,1023,2018,5,1,18,35,51.948,-0.413,-0.5186,0.1074,0.7408
0.17,0.412,0.3,-115.8,-89.9,110.3,1023,2018,5,1,18,35,51.986,-0.4086,-0.5271,0.0788,0.7409
0.095,0.334,0.32,-148.5,-83.7,105.1,0,2018,5,1,18,35,52.007,-0.4039,-0.5393,0.0484,0.7372
0.003,0.352,0.031,-168.9,-98.2,102.7,0,2018,5,1,18,35,52.01,-0.4003,-0.5541,0.0157,0.7296
0.074,0.334,-0.404,-168.5,-133.8,99.1,0,2018,5,1,18,35,52.047,-0.3986,-0.5677,-0.0205,0.7199
0.074,0.271,-0.437,-151.9,-197.1,90.5,0,2018,5,1,18,35,52.069,-0.4021,-0.5754,-0.0618,0.7093
-0.036,0.092,-0.447,-132,-214.5,82.3,0,2018,5,1,18,35,52.073,-0.4108,-0.5766,-0.1065,0.698
-0.079,0.146,-0.683,-96.3,-196.1,84.6,0,2018,5,1,18,35,52.09,-0.4189,-0.5737,-0.1477,0.688
-0.131,0.013,-0.739,-52.7,-183.2,92.2,0,2018,5,1,18,35,52.11,-0.4252,-0.5658,-0.1845,0.6818
-0.189,-0.221,-0.59,-9.2,-152,99,0,2018,5,1,18,35,52.151,-0.4291,-0.5534,-0.2157,0.6803
-0.255,-0.236,-0.366,26.4,-121.2,101.4,0,2018,5,1,18,35,52.17,-0.4305,-0.5381,-0.2401,0.6836
-0.341,-0.33,-0.193,45.8,-128.1,100.7,0,2018,5,1,18,35,52.175,-0.4313,-0.5199,-0.2613,0.6894
-0.36,-0.423,-0.172,54.5,-157.7,93.2,0,2018,5,1,18,35,52.193,-0.4347,-0.4982,-0.2832,0.6946
-0.378,-0.624,-0.395,65,-140.9,80.9,0,2018,5,1,18,35,52.213,-0.4401,-0.4747,-0.3048,0.6984
-0.079,-0.499,0.356,42,-213.1,46.8,0,2018,5,1,18,35,52.25,-0.4476,-0.4519,-0.3238,0.7003
-0.41,-1.515,1.048,-16.8,-64.3,8.9,0,2018,5,1,18,35,52.267,-0.4583,-0.4349,-0.3472,0.6929
0.029,-0.311,0.103,-45.1,21.2,-28,0,2018,5,1,18,35,52.273,-0.458,-0.4404,-0.3487,0.6888
-0.01,-0.165,-0.556,-20.7,60.7,-32.3,0,2018,5,1,18,35,52.29,-0.4561,-0.4501,-0.3435,0.6864
0.038,0.126,-0.229,6.7,37.4,-26.6,0,2018,5,1,18,35,52.312,-0.4554,-0.4564,-0.3357,0.6866
-0.024,0.376,0.233,2.6,8.2,-11.6,0,2018,5,1,18,35,52.33,-0.4564,-0.4586,-0.3308,0.6869
0.074,0.138,0.28,-9.8,-2.3,-1.6,0,2018,5,1,18,35,52.354,-0.4571,-0.4592,-0.331,0.6859
0.04,0.03,-0.015,-12.9,-10,5.7,0,2018,5,1,18,35,52.375,-0.4565,-0.4605,-0.3325,0.6847
0.01,-0.073,-0.21,0.6,-4,7.4,1023,2018,5,1,18,35,52.396,-0.4563,-0.4601,-0.335,0.6839
-0.018,0.083,-0.018,11.9,13.7,11.5,1023,2018,5,1,18,35,52.414,-0.4551,-0.4592,-0.3343,0.6856
0.014,-0.052,0.289,8.9,24.7,16,1023,2018,5,1,18,35,52.454,-0.4531,-0.4583,-0.3324,0.6885
-0.07,0.25,0.348,-1,21.7,17.4,1023,2018,5,1,18,35,52.473,-0.4488,-0.4593,-0.3296,0.692
0.044,0.116,0.202,-11.2,-18.1,23.9,1023,2018,5,1,18,35,52.478,-0.4461,-0.4587,-0.3323,0.6928
-0.009,0.122,0.096,-15.3,-37.6,30.5,1023,2018,5,1,18,35,52.497,-0.4442,-0.4565,-0.3391,0.6921
0.048,0.035,0.061,-14.9,-22.6,33.7,1023,2018,5,1,18,35,52.517,-0.4422,-0.4542,-0.3467,0.6912
0.054,-0.207,0.141,-16.7,21.4,30.8,1023,2018,5,1,18,35,52.538,-0.4374,-0.4537,-0.3507,0.6925
0.191,-0.05,0.185,-22.9,23.7,20.1,1023,2018,5,1,18,35,52.558,-0.4311,-0.4563,-0.3506,0.6949
0.231,-0.099,0.356,-38.5,22.9,9.1,1023,2018,5,1,18,35,52.575,-0.4257,-0.4606,-0.3516,0.6949
0.35,-0.056,0.335,-55,9.2,-4.7,1023,2018,5,1,18,35,52.595,-0.4215,-0.4668,-0.3529,0.6927
0.418,-0.064,0.298,-67.5,0,-21.1,1023,2018,5,1,18,35,52.615,-0.4193,-0.4744,-0.3556,0.6873
0.441,-0.054,0.24,-76.7,6,-37.2,1023,2018,5,1,18,35,52.634,-0.4184,-0.4845,-0.3579,0.6796
0.369,-0.027,0.172,-84.2,17.2,-50,1023,2018,5,1,18,35,52.655,-0.418,-0.4971,-0.3584,0.6704
0.443,0.087,-0.129,-74.6,43,-56.3,1023,2018,5,1,18,35,52.692,-0.4164,-0.5125,-0.3558,0.6612
0.37,0.297,-0.282,-59.9,14.7,-54.1,1023,2018,5,1,18,35,52.714,-0.4157,-0.526,-0.352,0.653
0.269,0.283,-0.307,-44,-16,-44.2,1023,2018,5,1,18,35,52.719,-0.4184,-0.5346,-0.3516,0.6445
0.118,0.259,-0.307,-27.9,-36.1,-33.4,1023,2018,5,1,18,35,52.759,-0.4231,-0.539,-0.3538,0.6365
0.029,0.308,-0.432,-8.6,-39.5,-15.3,0,2018,5,1,18,35,52.763,-0.4282,-0.5398,-0.3571,0.6305
-0.098,0.382,-0.404,10.7,-66.7,7.9,0,2018,5,1,18,35,52.778,-0.4336,-0.536,-0.3624,0.6271
-0.268,0.377,-0.386,25.4,-101.3,34.8,0,2018,5,1,18,35,52.8,-0.4403,-0.526,-0.3725,0.6249
-0.429,0.327,-0.341,38.7,-125.2,63.3,0,2018,5,1,18,35,52.819,-0.4475,-0.5101,-0.3873,0.6239
-0.54,0.181,-0.247,48.1,-124.7,88,0,2018,5,1,18,35,52.842,-0.4532,-0.4901,-0.4044,0.625
-0.638,0.172,-0.257,52,-141.2,110,0,2018,5,1,18,35,52.856,-0.4569,-0.4669,-0.4231,0.6277
-0.702,-0.045,-0.305,58.9,-137.3,125.4,0,2018,5,1,18,35,52.876,-0.4593,-0.4404,-0.4438,0.6309
-0.673,-0.24,-0.245,64.6,-108.4,124.1,0,2018,5,1,18,35,52.895,-0.4593,-0.4137,-0.4619,0.6358
