ax,ay,az,dpitch,droll,dyaw,heart,time_1,time_2,time_3,time_4,time_5,time_6,w,x,y,z
-0.22,-0.192,0.021,-38.6,-63.9,-44.1,0,2018,5,1,18,42,27.557,0.5982,-0.3491,0.067,-0.7181
-0.13,-0.157,-0.155,-26.8,-49.5,-55.2,0,2018,5,1,18,42,27.578,0.6007,-0.3497,0.0807,-0.7142
-0.103,-0.134,-0.255,-19.7,-43.2,-60.9,0,2018,5,1,18,42,27.582,0.6048,-0.3511,0.0933,-0.7085
-0.065,-0.092,-0.264,-7.3,-13.5,-61.5,0,2018,5,1,18,42,27.599,0.6106,-0.3512,0.1015,-0.7023
-0.046,-0.1,-0.24,1.9,3.9,-59.4,0,2018,5,1,18,42,27.618,0.6179,-0.3501,0.106,-0.6959
0.012,0.036,-0.256,9.8,-4.3,-58.5,0,2018,5,1,18,42,27.639,0.6254,-0.3495,0.109,-0.689
0.11,0.19,-0.355,19.6,-28.1,-50.3,0,2018,5,1,18,42,27.674,0.6314,-0.3519,0.1126,-0.6817
0.165,0.217,-0.347,28.4,-51.8,-38.9,0,2018,5,1,18,42,27.697,0.6346,-0.3593,0.1184,-0.6738
0.045,-0.022,-0.2,30.4,-47.2,-29.3,1023,2018,5,1,18,42,27.701,0.6359,-0.3681,0.1239,-0.6668
0.009,-0.073,-0.103,27.2,-19.2,-24.5,1023,2018,5,1,18,42,27.739,0.6375,-0.3749,0.1265,-0.661
0.06,0.035,-0.152,27.8,-10.1,-24.9,1023,2018,5,1,18,42,27.758,0.6401,-0.3793,0.1272,-0.6558
0.105,0.096,-0.181,34.3,-35.9,-27,1023,2018,5,1,18,42,27.761,0.6425,-0.385,0.1287,-0.6498
0.086,0.119,-0.132,42.7,-63,-23.5,1023,2018,5,1,18,42,27.797,0.643,-0.3946,0.1325,-0.6427
0.103,0.012,-0.077,46.6,-60,-21,1023,2018,5,1,18,42,27.819,0.6422,-0.4064,0.137,-0.6352
0.142,-0.007,-0.05,50.3,-33.7,-20.1,1023,2018,5,1,18,42,27.823,0.6426,-0.4162,0.1384,-0.6281
0.218,0.194,-0.031,53.4,-33.2,-15.2,1023,2018,5,1,18,42,27.841,0.6436,-0.4248,0.1373,-0.6215
0.269,0.278,-0.126,58.9,-42.1,-5.7,1023,2018,5,1,18,42,27.861,0.6432,-0.4351,0.1363,-0.615
0.273,0.944,0.569,41,-93.3,30.6,1023,2018,5,1,18,42,27.9,0.6392,-0.4471,0.1352,-0.6108
0.139,0.213,0.681,7.8,-172,41.5,1023,2018,5,1,18,42,27.921,0.6239,-0.4669,0.1452,-0.6095
0.143,-0.326,0.236,-12.8,-113.1,30.4,1023,2018,5,1,18,42,27.925,0.6076,-0.483,0.1583,-0.6102
0.14,-0.352,-0.084,-15.1,-45.4,19.1,1023,2018,5,1,18,42,27.944,0.5977,-0.4905,0.1663,-0.6118
0.195,-0.09,-0.167,-4.4,31.5,5.8,1023,2018,5,1,18,42,27.963,0.5961,-0.4899,0.1665,-0.6138
0.172,0.134,0.013,2.1,39.1,4.3,1023,2018,5,1,18,42,27.984,0.599,-0.4858,0.1618,-0.6155
0.073,0.173,0.225,-0.5,-7,6.2,1023,2018,5,1,18,42,28.004,0.6001,-0.4841,0.1593,-0.6164
0.052,0.15,0.122,-1,-73.8,10.4,1023,2018,5,1,18,42,28.024,0.5958,-0.4885,0.1631,-0.6161
0.071,0.144,0.038,-5.1,-146.8,18.2,1023,2018,5,1,18,42,28.043,0.5844,-0.5001,0.1743,-0.6147
0.105,0.198,-0.07,-6.7,-196.2,23.7,1023,2018,5,1,18,42,28.08,0.5666,-0.5171,0.1915,-0.6121
0.053,0.059,0.098,-7.1,-239.4,23.1,0,2018,5,1,18,42,28.1,0.5439,-0.5383,0.2133,-0.6072
-0.094,-0.399,0.226,-25.3,-196.7,16.1,0,2018,5,1,18,42,28.108,0.5198,-0.5578,0.2368,-0.602
-0.135,-0.213,0.124,-43.2,-110.4,6.6,0,2018,5,1,18,42,28.128,0.5034,-0.567,0.2541,-0.6003
-0.012,0.054,0.034,-47.9,-124.3,-4.6,0,2018,5,1,18,42,28.148,0.4901,-0.5718,0.2695,-0.6
0.104,-0.053,-0.041,-51.4,-122.4,-10,0,2018,5,1,18,42,28.164,0.4762,-0.5768,0.2887,-0.5974
0.163,0.057,0.227,-61,-97.6,-12.2,0,2018,5,1,18,42,28.184,0.4644,-0.5789,0.306,-0.5962
0.081,0.17,0.397,-79.6,-41.9,0,0,2018,5,1,18,42,28.204,0.4543,-0.5767,0.3196,-0.5989
0.14,0.338,0.293,-93.5,29.5,25.6,0,2018,5,1,18,42,28.242,0.4478,-0.5685,0.3258,-0.6083
0.199,0.682,0,-93.9,30.3,54.9,0,2018,5,1,18,42,28.262,0.4415,-0.5577,0.3253,-0.6229
0.12,0.364,-0.079,-81.4,49.2,85.4,0,2018,5,1,18,42,28.266,0.4319,-0.5497,0.3209,-0.6388
-0.1,0.21,-0.266,-66.3,107.7,111.1,0,2018,5,1,18,42,28.288,0.4237,-0.541,0.3079,-0.6579
-0.297,-0.282,-0.669,-31,196.1,119.1,0,2018,5,1,18,42,28.308,0.4218,-0.5302,0.2826,-0.6789
-0.728,-0.792,-0.314,7.5,102.4,91.1,0,2018,5,1,18,42,28.345,0.4236,-0.522,0.254,-0.6952
-0.289,-1.412,-0.284,22.5,61.2,6.5,0,2018,5,1,18,42,28.349,0.4236,-0.5221,0.2411,-0.6998
-0.177,-0.58,-0.117,17.9,130.1,-43.4,0,2018,5,1,18,42,28.365,0.4371,-0.516,0.2291,-0.7001
-0.079,-0.077,0.019,4.5,137.6,-60,0,2018,5,1,18,42,28.386,0.4568,-0.5044,0.2159,-0.7001
0.038,0.429,0.296,-9.2,-0.7,-60.2,0,2018,5,1,18,42,28.406,0.471,-0.4956,0.2121,-0.6981
-0.009,0.109,0.162,-19.6,-117.4,-53.2,0,2018,5,1,18,42,28.425,0.4716,-0.4971,0.2267,-0.6921
0.076,0.086,0.017,-26.5,-167.4,-52.5,0,2018,5,1,18,42,28.446,0.4642,-0.5039,0.2513,-0.6836
0.033,-0.083,-0.095,-24.6,-143,-50.9,0,2018,5,1,18,42,28.484,0.4549,-0.5115,0.2774,-0.674
0.026,-0.09,-0.164,-22.4,-52.8,-47.7,1023,2018,5,1,18,42,28.504,0.4507,-0.5145,0.296,-0.6666
0.073,0.14,-0.182,-20.9,62.9,-34.3,1023,2018,5,1,18,42,28.508,0.4551,-0.5092,0.3006,-0.6656
0.147,0.222,-0.134,-14.8,142.9,-25,1023,2018,5,1,18,42,28.546,0.4678,-0.4967,0.2921,-0.67
0.197,0.216,-0.123,-2.4,171,-13.4,1023,2018,5,1,18,42,28.566,0.4836,-0.4814,0.2766,-0.6765
0.122,0.328,-0.047,9.6,196.3,3,1023,2018,5,1,18,42,28.57,0.5002,-0.4652,0.2546,-0.6844
0.073,0.448,0.045,20.6,171,18.8,1023,2018,5,1,18,42,28.608,0.5149,-0.4507,0.2296,-0.692
0.006,0.508,0.09,29.4,58.7,31.5,1023,2018,5,1,18,42,28.612,0.522,-0.444,0.2111,-0.6968
-0.1,0.297,0.147,27.2,-44.3,42.9,1023,2018,5,1,18,42,28.628,0.5185,-0.4488,0.2055,-0.6981
-0.137,-0.139,-0.037,25.3,-64,33.8,1023,2018,5,1,18,42,28.649,0.5096,-0.4595,0.2076,-0.6971
-0.137,-0.224,-0.159,23.4,-18.2,25.9,1023,2018,5,1,18,42,28.669,0.5038,-0.467,0.2081,-0.6961
-0.122,-0.193,-0.195,26.5,4.8,14.4,1023,2018,5,1,18,42,28.705,0.5021,-0.471,0.2048,-0.6956
-0.152,-0.196,-0.148,29.3,3,3.6,1023,2018,5,1,18,42,28.725,0.5024,-0.4743,0.2009,-0.6943
-0.154,-0.112,-0.063,27.6,-15.1,-3,1023,2018,5,1,18,42,28.729,0.5033,-0.4782,0.1992,-0.6915
-0.13,-0.176,-0.156,25.9,-29.4,-10.6,1023,2018,5,1,18,42,28.767,0.503,-0.4833,0.2006,-0.6878
-0.133,-0.117,-0.244,29.6,-26.8,-16.6,1023,2018,5,1,18,42,28.77,0.5034,-0.4884,0.2025,-0.6833
-0.073,-0.022,-0.148,39.3,-51.7,-26.9,1023,2018,5,1,18,42,28.789,0.5042,-0.495,0.2059,-0.6769
-0.017,0.541,0.171,34,-112.7,-3,0,2018,5,1,18,42,28.826,0.5002,-0.5061,0.2134,-0.6692
-0.236,0.267,0.32,13.8,-120.4,7.4,0,2018,5,1,18,42,28.847,0.4892,-0.5204,0.2265,-0.6621
-0.266,-0.307,0.179,-4.2,-0.1,1.9,0,2018,5,1,18,42,28.851,0.4833,-0.5259,0.232,-0.6601
-0.347,-0.167,0.213,-4.9,44.3,-14.6,0,2018,5,1,18,42,28.892,0.4867,-0.5222,0.2287,-0.6618
-0.233,-0.01,0.008,3.9,21.5,-25.5,0,2018,5,1,18,42,28.896,0.4923,-0.5182,0.2267,-0.6615
-0.328,-0.611,-0.326,25,20.8,-47.7,0,2018,5,1,18,42,28.912,0.4983,-0.5172,0.2268,-0.6577
-0.03,-1.346,-0.863,55.9,93.7,-96.7,0,2018,5,1,18,42,28.93,0.5125,-0.514,0.2248,-0.65
0.103,0.163,-0.314,69.7,90,-102.9,0,2018,5,1,18,42,28.952,0.5366,-0.5072,0.2153,-0.639
0.287,-0.072,-0.024,58.2,35.8,-94.5,0,2018,5,1,18,42,28.987,0.554,-0.5067,0.2128,-0.6252
0.449,0.463,0.053,31.5,86.2,-72.7,0,2018,5,1,18,42,29.008,0.5707,-0.5016,0.2086,-0.6156
0.404,0.72,0.166,10.1,49.8,-40.3,0,2018,5,1,18,42,29.012,0.5838,-0.4945,0.2038,-0.6107
0.332,0.739,0.241,-10.7,4.6,-8,0,2018,5,1,18,42,29.033,0.5884,-0.4911,0.2034,-0.6091
0.266,0.645,0.179,-29.7,0.6,26.7,0,2018,5,1,18,42,29.054,0.5863,-0.4894,0.2048,-0.6121
-0.162,0.328,0.173,-42.9,57.3,56.9,0,2018,5,1,18,42,29.074,0.5826,-0.4842,0.2016,-0.6207
-0.136,0.232,0.255,-56.7,78.8,66,0,2018,5,1,18,42,29.093,0.5804,-0.4731,0.1936,-0.6338
-0.152,0.299,0.272,-53.7,1.5,71.1,0,2018,5,1,18,42,29.113,0.5744,-0.4646,0.1886,-0.6469
-0.309,0.285,0.4,-59.3,-99.8,71.9,0,2018,5,1,18,42,29.131,0.5602,-0.4659,0.1945,-0.6566
-0.297,-0.213,0.341,-63.5,-105.6,65.7,0,2018,5,1,18,42,29.15,0.5408,-0.4722,0.2081,-0.6641
-0.14,-0.275,0.074,-56.7,-16,51.1,0,2018,5,1,18,42,29.17,0.5268,-0.4729,0.2159,-0.6723
0.021,-0.145,-0.099,-31.3,36.2,36.9,0,2018,5,1,18,42,29.212,0.5213,-0.4682,0.2148,-0.6802
0.076,-0.103,-0.152,2.2,40.1,25.1,0,2018,5,1,18,42,29.231,0.5206,-0.4639,0.2087,-0.6856
0.062,-0.205,-0.143,29.5,39.3,14.1,0,2018,5,1,18,42,29.235,0.5223,-0.463,0.2011,-0.6871
0.08,-0.258,-0.196,49.4,50.4,2.6,0,2018,5,1,18,42,29.254,0.5265,-0.4641,0.1915,-0.686
0.1,-0.305,-0.273,65.3,74.4,-10.7,1023,2018,5,1,18,42,29.274,0.534,-0.465,0.179,-0.683
0.104,-0.25,-0.361,79.6,84.8,-22.4,1023,2018,5,1,18,42,29.294,0.5447,-0.4655,0.1639,-0.6779
-0.058,-0.014,0.027,73.1,65.2,-24.7,1023,2018,5,1,18,42,29.313,0.5561,-0.4667,0.1488,-0.6713
-0.075,0.045,0.25,49.9,38.7,-17,1023,2018,5,1,18,42,29.337,0.5638,-0.4686,0.1392,-0.6656
-0.108,0.136,0.176,25.6,44.3,-12,1023,2018,5,1,18,42,29.352,0.5701,-0.468,0.1314,-0.6622
-0.088,0.002,0.113,11.3,20.3,-9.1,1023,2018,5,1,18,42,29.374,0.5738,-0.4669,0.1268,-0.6607
-0.064,-0.15,0.058,1.5,54.2,-12.7,1023,2018,5,1,18,42,29.392,0.5778,-0.4641,0.123,-0.6599
-0.038,-0.053,0.059,-2,87.2,-17.1,1023,2018,5,1,18,42,29.43,0.5855,-0.4561,0.1157,-0.66
-0.06,0.018,0.022,-2.2,79,-19.8,1023,2018,5,1,18,42,29.449,0.5939,-0.4469,0.1072,-0.6602
-0.119,-0.134,0.045,-1.5,56.7,-28.4,1023,2018,5,1,18,42,29.453,0.6014,-0.4398,0.101,-0.6592
-0.185,-0.264,0.031,-1.8,45.6,-41.8,1023,2018,5,1,18,42,29.476,0.6087,-0.4346,0.0979,-0.6564
-0.231,-0.741,-0.134,2.9,23.2,-78.8,1023,2018,5,1,18,42,29.495,0.6176,-0.4306,0.0988,-0.6505
-0.241,-0.156,-0.018,9.5,61.3,-79.9,1023,2018,5,1,18,42,29.515,0.6303,-0.4251,0.0988,-0.6419
-0.288,0.018,0.139,8.9,12.2,-102.1,1023,2018,5,1,18,42,29.534,0.6435,-0.4198,0.0999,-0.6321
-0.237,-0.495,0.1,10.4,-83.8,-138.4,1023,2018,5,1,18,42,29.575,0.6533,-0.4237,0.1115,-0.6173
-0.215,-0.33,0.154,10.1,-134.2,-150.8,1023,2018,5,1,18,42,29.596,0.6602,-0.4354,0.1332,-0.5972
-0.298,-0.849,0.329,0.7,-115.1,-180.2,1023,2018,5,1,18,42,29.6,0.6668,-0.4478,0.1588,-0.574
-0.292,-0.6,0.477,-21.8,-83.5,-210.2,0,2018,5,1,18,42,29.62,0.6779,-0.4524,0.1845,-0.5491
-0.131,-0.311,0.449,-36.8,-111.1,-238.1,0,2018,5,1,18,42,29.639,0.6906,-0.4524,0.2141,-0.5219
-0.03,-0.015,0.286,-36.4,-174,-257,0,2018,5,1,18,42,29.656,0.6992,-0.4568,0.251,-0.4891
-0.019,-0.144,0.104,-18.9,-167.5,-271.3,0,2018,5,1,18,42,29.677,0.7054,-0.4635,0.2899,-0.451
-0.105,0.072,0.095,-6.3,-95.6,-276.8,0,2018,5,1,18,42,29.712,0.7147,-0.4642,0.3231,-0.4113
0.05,0.699,0.308,-15.7,-26.1,-243,0,2018,5,1,18,42,29.732,0.7272,-0.4565,0.3501,-0.3743
-0.252,1.774,0.516,-21.4,48.8,-170.2,0,2018,5,1,18,42,29.736,0.7421,-0.4369,0.3659,-0.3526
0.138,0.663,-0.099,-24.1,81.9,-131.8,0,2018,5,1,18,42,29.758,0.7539,-0.4172,0.3769,-0.3395
0.125,0.647,-0.437,29.6,-104.7,-108.4,0,2018,5,1,18,42,29.779,0.761,-0.4093,0.3848,-0.3242
0.018,-0.519,-0.627,78.4,-201.5,-101.7,0,2018,5,1,18,42,29.795,0.7568,-0.4302,0.3949,-0.2932
0.002,-0.05,0.251,56.7,83.3,-88.2,0,2018,5,1,18,42,29.818,0.7622,-0.4341,0.3955,-0.2721
0.068,0.648,0.049,56.8,53.3,-60.3,0,2018,5,1,18,42,29.837,0.7758,-0.4201,0.3898,-0.2637
0.04,0.307,-0.269,65.5,9,-45.9,0,2018,5,1,18,42,29.858,0.7844,-0.4154,0.3836,-0.2546
-0.003,-0.268,-0.154,65.9,-15.2,-53.1,0,2018,5,1,18,42,29.876,0.7902,-0.4166,0.3783,-0.2424
-0.043,-0.193,0.044,53.5,-24.8,-75.6,0,2018,5,1,18,42,29.896,0.7952,-0.4177,0.3753,-0.2285
-0.108,-0.031,0.133,41,-29.8,-91.8,0,2018,5,1,18,42,29.916,0.7992,-0.4185,0.3758,-0.2115
-0.137,0.224,-0.012,25.7,-72.7,-95.6,0,2018,5,1,18,42,29.957,0.8013,-0.4199,0.3797,-0.1929
-0.137,-0.144,-0.131,16.4,-73.5,-96,0,2018,5,1,18,42,29.977,0.7997,-0.4258,0.3862,-0.1729
-0.219,-0.096,0.048,3.5,11.5,-92.7,0,2018,5,1,18,42,29.981,0.8006,-0.4241,0.3929,-0.157
-0.248,0.074,0.002,-11.7,131.2,-75.1,0,2018,5,1,18,42,30,0.8078,-0.4079,0.3977,-0.1508
-0.198,0.417,-0.138,-25.8,197.8,-52.3,0,2018,5,1,18,42,30.02,0.8201,-0.3782,0.4001,-0.1553
-0.173,0.746,-0.099,-39.8,150.4,-28.6,1023,2018,5,1,18,42,30.039,0.8305,-0.3481,0.4024,-0.1646
-0.103,0.611,-0.131,-45.1,35.8,-4,1023,2018,5,1,18,42,30.078,0.8333,-0.3325,0.4069,-0.1713
-0.104,0.086,-0.347,-39.6,-22,5.8,1023,2018,5,1,18,42,30.099,0.8301,-0.3316,0.413,-0.1738
-0.069,-0.169,-0.529,-29,8.4,-1.6,1023,2018,5,1,18,42,30.103,0.827,-0.3321,0.4181,-0.1752
-0.041,-0.009,-0.322,-21.1,23.4,-15.4,1023,2018,5,1,18,42,30.118,0.8268,-0.3277,0.4214,-0.1766
-0.083,-0.027,-0.069,-29,20.7,-28.8,1023,2018,5,1,18,42,30.157,0.8268,-0.3225,0.4255,-0.1765
-0.047,0.003,-0.119,-40.6,22.6,-38.2,1023,2018,5,1,18,42,30.177,0.8261,-0.3164,0.4319,-0.1754
-0.036,-0.039,-0.186,-46.3,43.7,-45.4,1023,2018,5,1,18,42,30.181,0.8257,-0.3074,0.4397,-0.1738
-0.057,-0.053,-0.147,-49.6,88.9,-49.2,1023,2018,5,1,18,42,30.2,0.827,-0.2925,0.4471,-0.1745
-0.071,0.282,0.069,-59.5,84.2,-47.3,1023,2018,5,1,18,42,30.22,0.829,-0.2733,0.4544,-0.1773
-0.057,0.272,0.056,-71.2,17.1,-39.6,1023,2018,5,1,18,42,30.241,0.8275,-0.2604,0.4644,-0.1776
0.012,0.107,-0.084,-77.3,-13,-32,1023,2018,5,1,18,42,30.261,0.8224,-0.2553,0.4771,-0.175
0.047,-0.02,-0.184,-72.2,13.9,-26.7,1023,2018,5,1,18,42,30.296,0.8169,-0.2508,0.4893,-0.1735
0.051,0.011,-0.101,-63.5,53.1,-18.3,1023,2018,5,1,18,42,30.317,0.8134,-0.2416,0.4989,-0.1759
0.014,0.178,0.03,-56.5,58.2,-6.8,1023,2018,5,1,18,42,30.322,0.8112,-0.2295,0.5064,-0.1811
-0.043,0.221,0.03,-53,12.1,6.8,1023,2018,5,1,18,42,30.362,0.8078,-0.2225,0.5129,-0.1861
-0.03,0.044,-0.039,-50.5,-21.8,17.2,0,2018,5,1,18,42,30.381,0.8026,-0.2228,0.52,-0.1886
0.029,-0.041,-0.073,-41.2,-28.2,23.4,0,2018,5,1,18,42,30.385,0.7962,-0.2273,0.527,-0.1909
0.102,-0.131,0.049,-27.8,-24.9,24.7,0,2018,5,1,18,42,30.401,0.791,-0.2323,0.5319,-0.1928
0.16,-0.133,0.137,-18.1,-17.1,21.5,0,2018,5,1,18,42,30.42,0.7876,-0.2367,0.5344,-0.1948
0.191,-0.09,0.121,-10.9,-24.4,16.3,0,2018,5,1,18,42,30.442,0.7851,-0.2404,0.536,-0.1958
0.166,-0.18,0.126,-4.9,-21.9,7.4,0,2018,5,1,18,42,30.463,0.7833,-0.2445,0.537,-0.1952
0.145,-0.176,0.117,-2.3,-4.2,-4.2,0,2018,5,1,18,42,30.5,0.7826,-0.2465,0.5375,-0.1942
0.106,-0.063,0.11,-3.2,4,-13.6,0,2018,5,1,18,42,30.522,0.783,-0.2453,0.5378,-0.1933
0.062,-0.021,0.068,-5.3,2.6,-19.1,0,2018,5,1,18,42,30.526,0.7838,-0.2427,0.5386,-0.1911
0.011,-0.014,0.046,-8.1,2.2,-22.4,0,2018,5,1,18,42,30.544,0.7843,-0.2401,0.5401,-0.1883
-0.026,-0.04,-0.004,-10.3,15.8,-24,0,2018,5,1,18,42,30.564,0.7846,-0.2366,0.5418,-0.1861
-0.042,-0.013,-0.036,-11.4,32.3,-23.5,0,2018,5,1,18,42,30.582,0.7853,-0.231,0.5435,-0.1855
-0.049,-0.016,0.02,-13.6,58.6,-21.6,0,2018,5,1,18,42,30.604,0.7866,-0.2226,0.5444,-0.1875
-0.065,0.019,-0.019,-15,68.1,-18.1,0,2018,5,1,18,42,30.625,0.7884,-0.2115,0.5448,-0.1915
-0.063,0.146,-0.026,-16.4,57.8,-11.9,0,2018,5,1,18,42,30.642,0.79,-0.2003,0.5453,-0.1956
-0.071,0.176,-0.067,-15.1,26.1,-3.3,0,2018,5,1,18,42,30.664,0.7904,-0.1925,0.5465,-0.1983
-0.082,0.084,-0.171,-7.6,-0.9,3.8,0,2018,5,1,18,42,30.683,0.7896,-0.1904,0.5483,-0.1989
-0.076,0.029,-0.235,2.1,-4.5,10.4,0,2018,5,1,18,42,30.721,0.7891,-0.1914,0.5485,-0.1991
-0.07,0.137,-0.259,13.8,-8.5,19.1,0,2018,5,1,18,42,30.742,0.7893,-0.1937,0.5471,-0.2001
-0.096,0.288,-0.214,26.3,-32.7,33.3,0,2018,5,1,18,42,30.746,0.7897,-0.1996,0.5441,-0.2009
-0.141,0.305,-0.233,38.3,-66.8,52,0,2018,5,1,18,42,30.783,0.7896,-0.2117,0.5398,-0.2004
-0.185,0.28,-0.255,45.2,-81.6,74.5,0,2018,5,1,18,42,30.802,0.7884,-0.2296,0.5342,-0.2002
-0.203,0.268,-0.256,49.3,-77.6,96.5,0,2018,5,1,18,42,30.806,0.7866,-0.2501,0.5269,-0.2022
-0.21,0.232,-0.214,53.5,-78.9,115.8,1023,2018,5,1,18,42,30.823,0.7841,-0.2722,0.5177,-0.2073
-0.243,0.105,-0.168,57.4,-91.3,131.5,1023,2018,5,1,18,42,30.859,0.7803,-0.297,0.5071,-0.2137
-0.205,-0.079,-0.098,59.2,-94.8,139.1,1023,2018,5,1,18,42,30.879,0.7752,-0.3239,0.4954,-0.2206
-0.166,-0.148,-0.12,61,-96.2,138.3,1023,2018,5,1,18,42,30.882,0.7691,-0.3511,0.4829,-0.2278
-0.085,-0.038,-0.39,71.2,-80.8,138.2,1023,2018,5,1,18,42,30.919,0.7632,-0.3772,0.469,-0.2345
-0.201,0.144,0.345,59.4,-150.6,144,1023,2018,5,1,18,42,30.94,0.7554,-0.4057,0.4546,-0.2408
-0.213,-0.525,0.535,27.3,-95.4,130.8,1023,2018,5,1,18,42,30.943,0.7434,-0.4357,0.4445,-0.2443
-0.029,-0.026,0.127,11.8,-18.8,129.7,1023,2018,5,1,18,42,30.983,0.7353,-0.4529,0.4342,-0.2559
0.034,0.158,0.103,10.3,-11.8,134,1023,2018,5,1,18,42,31.002,0.7292,-0.4645,0.4227,-0.2715
0.008,0.245,0.079,15.1,-24.4,143.4,1023,2018,5,1,18,42,31.005,0.7218,-0.4774,0.4106,-0.2869
0.085,0.185,-0.09,20.4,36.9,152.7,1023,2018,5,1,18,42,31.046,0.7154,-0.4888,0.396,-0.3038
0.015,0.232,-0.034,29.5,37.1,165.1,1023,2018,5,1,18,42,31.066,0.7119,-0.4956,0.3769,-0.3246
0.03,0.013,-0.116,41.5,93.1,162.4,1023,2018,5,1,18,42,31.071,0.7099,-0.5006,0.3545,-0.3458
0.049,-0.031,-0.17,52.8,99.1,157,1023,2018,5,1,18,42,31.088,0.7108,-0.5014,0.3293,-0.3669
0.055,0.235,-0.169,62.1,134,154.7,1023,2018,5,1,18,42,31.129,0.7143,-0.4988,0.3007,-0.3877
-0.001,0.114,0.061,62.9,112.6,154.5,1023,2018,5,1,18,42,31.133,0.7173,-0.4955,0.2707,-0.408
0.038,-0.284,0.122,50.6,184.2,138.2,1023,2018,5,1,18,42,31.147,0.7211,-0.4886,0.2404,-0.4282
0.153,-0.266,-0.057,37.9,282.3,114.9,1023,2018,5,1,18,42,31.167,0.7328,-0.4672,0.2066,-0.4493
0.299,0.296,-0.165,37.6,361.3,118.2,0,2018,5,1,18,42,31.187,0.7503,-0.4315,0.1663,-0.4722
0.31,0.925,-0.103,40,336.2,142.4,0,2018,5,1,18,42,31.209,0.7659,-0.3908,0.1215,-0.4958
0.046,0.532,0.128,31.4,272.8,167,0,2018,5,1,18,42,31.228,0.7721,-0.3564,0.0796,-0.52
-0.025,0.496,0.443,18.6,206.7,187.6,0,2018,5,1,18,42,31.262,0.77,-0.3286,0.0431,-0.5451
-0.214,0.221,0.651,-1,89.7,195,0,2018,5,1,18,42,31.284,0.7597,-0.3103,0.0169,-0.5711
-0.223,0.425,0.379,-21.1,-42,207.6,0,2018,5,1,18,42,31.288,0.7403,-0.3067,0.0056,-0.5981
-0.197,0.342,0.168,-39,-148.7,220.9,0,2018,5,1,18,42,31.325,0.7114,-0.3168,0.0087,-0.6271
-0.381,-0.218,0.194,-56.9,-163.4,219.1,0,2018,5,1,18,42,31.347,0.677,-0.3323,0.0207,-0.6562
-0.378,-0.339,0.123,-67.6,-101.2,212.2,0,2018,5,1,18,42,31.351,0.6436,-0.3412,0.0309,-0.6843
-0.966,-1.166,0.441,-29.5,-184.4,169.6,0,2018,5,1,18,42,31.371,0.6115,-0.3503,0.0404,-0.7082
-0.278,-1.804,0.646,-88.5,-232.4,40.8,0,2018,5,1,18,42,31.391,0.5843,-0.3675,0.0666,-0.7204
-0.175,-0.213,-0.335,-92.8,-220.9,-0.5,0,2018,5,1,18,42,31.409,0.5664,-0.3788,0.1047,-0.7243
0.039,-0.12,-0.63,-57,-81.1,-4.6,0,2018,5,1,18,42,31.427,0.5548,-0.3845,0.1323,-0.7258
0.088,-0.057,-0.35,-16,62.7,-10.8,0,2018,5,1,18,42,31.466,0.5553,-0.3798,0.1357,-0.7272
0.012,0.06,-0.128,-1.8,115.6,-20.1,0,2018,5,1,18,42,31.485,0.5632,-0.3696,0.1256,-0.7282
0.023,0.198,-0.023,13.5,135.7,-21.6,0,2018,5,1,18,42,31.489,0.5743,-0.357,0.1094,-0.7284
-0.02,0.21,0.108,23.6,96.2,-19.4,0,2018,5,1,18,42,31.529,0.5845,-0.3471,0.0933,-0.7273
-0.056,0.177,0.187,23,36.4,-22.6,0,2018,5,1,18,42,31.549,0.5914,-0.3433,0.0839,-0.7247
-0.038,0.085,0.159,15.9,2.5,-25,0,2018,5,1,18,42,31.553,0.5957,-0.3436,0.0816,-0.7212
0.05,0.058,0.088,9.6,18.7,-24.9,0,2018,5,1,18,42,31.572,0.5994,-0.3441,0.0809,-0.7181
0.081,0.121,0.086,2.8,77.5,-20,0,2018,5,1,18,42,31.589,0.6056,-0.3382,0.0749,-0.7163
0.055,0.17,0.136,-6.5,94.6,-14.7,0,2018,5,1,18,42,31.627,0.613,-0.3283,0.065,-0.7156
0.062,0.227,0.1,-12.6,95,-1.3,0,2018,5,1,18,42,31.647,0.6192,-0.3168,0.0547,-0.7163
0.051,0.197,0.157,-18.1,100.3,11.5,1023,2018,5,1,18,42,31.651,0.6236,-0.3042,0.0437,-0.7186
0.025,0.278,0.125,-17,67.8,20.4,1023,2018,5,1,18,42,31.672,0.6259,-0.2926,0.0338,-0.722
-0.038,0.142,-0.028,-8.9,12.2,26,1023,2018,5,1,18,42,31.692,0.6248,-0.2867,0.0291,-0.7255
-0.111,-0.008,-0.128,1.2,-36.5,21.5,1023,2018,5,1,18,42,31.712,0.6209,-0.2884,0.0299,-0.7282
-0.149,-0.166,-0.115,6.1,-30.5,15.8,1023,2018,5,1,18,42,31.731,0.6167,-0.2929,0.0333,-0.7298
-0.168,-0.144,-0.032,7.3,-15.9,9,1023,2018,5,1,18,42,31.751,0.6139,-0.2965,0.0346,-0.7306
-0.215,-0.215,0.021,3.4,5.8,3.2,1023,2018,5,1,18,42,31.771,0.6129,-0.2977,0.0343,-0.731
-0.183,-0.174,0.035,-1.9,11,-3,1023,2018,5,1,18,42,31.809,0.6134,-0.2968,0.0329,-0.731
-0.085,-0.14,-0.057,-5,18.9,-5.9,1023,2018,5,1,18,42,31.828,0.6146,-0.295,0.0317,-0.7308
-0.019,0.019,-0.023,-8.6,26.5,-5.9,1023,2018,5,1,18,42,31.833,0.6163,-0.2921,0.0295,-0.7306
-0.008,0.047,-0.012,-13.9,26.4,-5.2,1023,2018,5,1,18,42,31.871,0.6182,-0.2879,0.0272,-0.7308
-0.015,-0.023,0.043,-20.3,41.1,-3.1,1023,2018,5,1,18,42,31.891,0.6201,-0.2822,0.0248,-0.7315
0.022,-0.02,0.03,-24,56.1,-4,1023,2018,5,1,18,42,31.895,0.6228,-0.274,0.021,-0.7324
0.089,0.009,0.018,-24.2,68.3,-7,1023,2018,5,1,18,42,31.913,0.6264,-0.2639,0.0162,-0.7332
0.167,0.217,0.016,-21,77.6,-5.8,1023,2018,5,1,18,42,31.933,0.6306,-0.2522,0.0096,-0.7338
0.193,0.313,0.053,-17.9,50.2,-1.8,1023,2018,5,1,18,42,31.955,0.6339,-0.2426,0.0036,-0.7343
0.24,0.272,0.035,-12.6,10.1,5.8,1023,2018,5,1,18,42,31.974,0.6348,-0.2375,0.0014,-0.7352
0.253,0.184,0.008,-3.1,-8.9,12.7,0,2018,5,1,18,42,32.01,0.6333,-0.2369,0.0019,-0.7367
0.249,0.107,-0.035,3.5,-8,22.1,0,2018,5,1,18,42,32.03,0.6305,-0.2383,0.0024,-0.7386
0.232,0.115,-0.057,10.3,18.8,33,0,2018,5,1,18,42,32.034,0.627,-0.2386,-0.0003,-0.7415
0.205,0.186,-0.054,17.9,23.3,42.9,0,2018,5,1,18,42,32.073,0.6229,-0.238,-0.0067,-0.7451
0.208,0.172,-0.083,27.6,8.6,55.8,0,2018,5,1,18,42,32.094,0.617,-0.2392,-0.0133,-0.7495
0.108,0.086,-0.096,39.5,-2.9,64.6,0,2018,5,1,18,42,32.098,0.6089,-0.2427,-0.02,-0.7548
0.063,0.031,-0.117,49,-10,70.5,0,2018,5,1,18,42,32.133,0.5995,-0.2489,-0.0266,-0.7601
-0.03,0.006,-0.138,56.8,-7.5,73.3,0,2018,5,1,18,42,32.137,0.5889,-0.2572,-0.0344,-0.7653
-0.099,0.025,-0.147,62.8,-1.6,75.4,0,2018,5,1,18,42,32.154,0.578,-0.266,-0.0438,-0.7701
-0.111,0.028,-0.197,71.5,-10,77.6,0,2018,5,1,18,42,32.175,0.5667,-0.275,-0.0537,-0.7747
-0.189,0.012,-0.162,79.2,-34.8,79.6,0,2018,5,1,18,42,32.193,0.5538,-0.2869,-0.0622,-0.7791
-0.271,-0.003,-0.11,78.1,-55.3,81.6,0,2018,5,1,18,42,32.235,0.5392,-0.3016,-0.0676,-0.7833
-0.272,0.053,-0.227,78.2,-57.6,79.6,0,2018,5,1,18,42,32.253,0.5239,-0.3163,-0.0717,-0.7875
-0.357,-0.222,-0.053,66,-85,73.6,0,2018,5,1,18,42,32.258,0.5078,-0.3322,-0.0724,-0.7915
-0.371,-0.466,0.192,51.1,-67.1,43.2,0,2018,5,1,18,42,32.278,0.4941,-0.3462,-0.0713,-0.7942
-0.224,-0.263,0.278,26.2,-74.2,15.7,0,2018,5,1,18,42,32.296,0.4852,-0.3571,-0.0669,-0.7952
-0.209,-0.131,0.054,2.6,-84.2,-5.3,0,2018,5,1,18,42,32.317,0.4794,-0.3665,-0.0562,-0.7953
-0.141,0.016,-0.094,-3.5,-58.1,-12.7,0,2018,5,1,18,42,32.337,0.4759,-0.3729,-0.0457,-0.7951
-0.075,0.096,-0.142,-3.2,-29.7,-11.3,0,2018,5,1,18,42,32.354,0.4748,-0.3761,-0.0385,-0.7946
-0.032,0.123,-0.153,-0.1,-3,-6.1,0,2018,5,1,18,42,32.374,0.4747,-0.3774,-0.0359,-0.7942
0.034,0.19,-0.11,3.1,10.3,-1.7,0,2018,5,1,18,42,32.414,0.4752,-0.3772,-0.037,-0.7939
0.044,0.081,-0.039,7,3.1,-0.5,0,2018,5,1,18,42,32.419,0.4754,-0.3774,-0.0387,-0.7936
0.007,-0.025,0.056,7.8,4.4,-1.2,0,2018,5,1,18,42,32.435,0.4754,-0.3781,-0.0401,-0.7932
-0.004,-0.088,0.126,4.5,4,-4.4,0,2018,5,1,18,42,32.474,0.4762,-0.3784,-0.0407,-0.7926
-0.008,-0.089,0.124,-0.4,-1.2,-6.7,1023,2018,5,1,18,42,32.494,0.4772,-0.3782,-0.04,-0.7921
-0.01,-0.015,0.059,-3.2,-7.1,-6,1023,2018,5,1,18,42,32.499,0.4779,-0.3781,-0.0385,-0.7918
0,0.054,0.005,-3.1,-15.4,-4.2,1023,2018,5,1,18,42,32.517,0.4775,-0.3786,-0.0367,-0.7919
-0.035,0.06,0.011,-3.5,-24.3,-3.4,1023,2018,5,1,18,42,32.539,0.4763,-0.3798,-0.0341,-0.7922
-0.064,0.03,0.026,-7.7,-25.3,-6.1,1023,2018,5,1,18,42,32.577,0.4747,-0.3815,-0.0305,-0.7925
-0.159,-0.054,0.03,-13.6,-13.8,-12,1023,2018,5,1,18,42,32.604,0.474,-0.3823,-0.0268,-0.7926
-0.177,-0.054,0.043,-16,7.3,-22,1023,2018,5,1,18,42,32.618,0.4756,-0.3816,-0.0245,-0.7921
-0.248,-0.04,0.098,-25.1,23.4,-36.3,1023,2018,5,1,18,42,32.62,0.4804,-0.3782,-0.0238,-0.7909
-0.214,0.056,0.013,-34.7,26.1,-50.2,1023,2018,5,1,18,42,32.636,0.4877,-0.3725,-0.0222,-0.7891
-0.16,0.133,-0.034,-36.6,23.9,-52.8,1023,2018,5,1,18,42,32.656,0.4965,-0.3657,-0.0195,-0.7869
-0.15,-0.014,0.007,-40.4,26.4,-52.4,1023,2018,5,1,18,42,32.696,0.5049,-0.3588,-0.0164,-0.7848
-0.127,0.011,-0.016,-40.5,39,-52.2,1023,2018,5,1,18,42,32.718,0.5138,-0.3514,-0.0148,-0.7824
-0.114,0.112,-0.056,-43.3,31.5,-47.3,1023,2018,5,1,18,42,32.722,0.5227,-0.3428,-0.0132,-0.7804
-0.099,0.109,-0.143,-44,30.9,-44.4,1023,2018,5,1,18,42,32.74,0.5307,-0.3341,-0.0106,-0.7788
-0.134,0.028,-0.192,-41.1,33.5,-43.3,1023,2018,5,1,18,42,32.758,0.5383,-0.3256,-0.0085,-0.7771
-0.13,-0.061,-0.218,-34,47.2,-44.8,1023,2018,5,1,18,42,32.799,0.5465,-0.3167,-0.0081,-0.7751
-0.147,-0.001,-0.185,-26.9,41.7,-48.9,1023,2018,5,1,18,42,32.82,0.5553,-0.3084,-0.009,-0.7722
-0.023,-0.081,-0.288,-17.6,54.8,-51.3,1023,2018,5,1,18,42,32.824,0.5644,-0.3009,-0.0103,-0.7685
0.133,-0.069,-0.111,-7.4,65.7,-55.2,1023,2018,5,1,18,42,32.842,0.5748,-0.2935,-0.0147,-0.7636
0.026,-0.218,0.107,-5.4,84.3,-59.4,0,2018,5,1,18,42,32.861,0.5863,-0.2853,-0.0209,-0.7578
0.118,-0.165,0.147,-3.9,94.3,-55.3,0,2018,5,1,18,42,32.898,0.5984,-0.2755,-0.0296,-0.7517
0.099,0.092,0.011,-4.5,75.7,-43.4,0,2018,5,1,18,42,32.919,0.6091,-0.2655,-0.038,-0.7462
0.246,0.065,-0.174,-6.2,47.5,-38.6,0,2018,5,1,18,42,32.921,0.6171,-0.2585,-0.0427,-0.7419
0.142,0.252,0.175,-12,35.7,-34.5,0,2018,5,1,18,42,32.939,0.6243,-0.2522,-0.0467,-0.7378
-0.003,0.3,0.359,-16.6,-98.1,-33.6,0,2018,5,1,18,42,32.961,0.6275,-0.2537,-0.04,-0.735
0.052,0.006,0.219,-24.6,-209.9,-35.2,0,2018,5,1,18,42,32.999,0.6242,-0.2696,-0.0149,-0.733
0.085,-0.253,0.067,-29.5,-201.7,-36.3,0,2018,5,1,18,42,33.018,0.6183,-0.2888,0.017,-0.7306
0.081,-0.309,-0.091,-25.3,-172.6,-46.7,0,2018,5,1,18,42,33.021,0.6138,-0.305,0.0461,-0.7266
0.087,-0.186,-0.164,-9.9,-142.6,-58.6,0,2018,5,1,18,42,33.061,0.6121,-0.3186,0.0703,-0.7202
0.061,-0.002,-0.264,7.2,-164.3,-67.3,0,2018,5,1,18,42,33.082,0.6115,-0.3337,0.0932,-0.7112
0.023,-0.182,-0.29,29,-163.8,-75.2,0,2018,5,1,18,42,33.086,0.6107,-0.3523,0.1162,-0.6994
-0.005,0.039,-0.27,53.9,-177.7,-79.9,0,2018,5,1,18,42,33.104,0.6107,-0.3735,0.137,-0.6845
-0.042,-0.15,-0.295,70.9,-158.5,-79,0,2018,5,1,18,42,33.124,0.6099,-0.3977,0.1565,-0.6672
-0.043,-0.104,-0.429,80.2,-55.3,-76.1,0,2018,5,1,18,42,33.142,0.6136,-0.4156,0.1664,-0.6503
-0.238,0.65,0.268,63.7,79.3,-46.3,0,2018,5,1,18,42,33.16,0.6255,-0.4189,0.1594,-0.6385
-0.294,0.971,0.695,19.3,84.3,-6.6,0,2018,5,1,18,42,33.201,0.6352,-0.4129,0.1475,-0.6357
0.134,0.743,0.292,-3.4,39.5,22.4,0,2018,5,1,18,42,33.205,0.6393,-0.4067,0.1392,-0.6375
0.101,0.487,0.3,-9.9,-84.8,31.3,0,2018,5,1,18,42,33.223,0.6347,-0.4086,0.1401,-0.6406
0.178,-0.211,-0.073,-6.3,-137.7,30.7,0,2018,5,1,18,42,33.242,0.6219,-0.4222,0.1532,-0.6413
0.195,-0.479,-0.225,6.5,-51,20.7,0,2018,5,1,18,42,33.28,0.6119,-0.4334,0.1623,-0.6412
0.214,-0.359,-0.175,11.5,61.3,11.6,0,2018,5,1,18,42,33.301,0.6111,-0.434,0.1592,-0.6423
0.236,0.173,-0.031,13.6,121.7,10.5,1023,2018,5,1,18,42,33.305,0.618,-0.4247,0.1456,-0.6452
0.162,0.247,0.244,8.4,90.6,14,1023,2018,5,1,18,42,33.342,0.6249,-0.4148,0.1313,-0.6481
0.026,-0.185,0.281,-9,113.2,18.1,1023,2018,5,1,18,42,33.364,0.6297,-0.4051,0.1197,-0.6519
0.075,-0.226,0.157,-27.7,202.9,16.3,1023,2018,5,1,18,42,33.368,0.6386,-0.385,0.1024,-0.6582
0.08,0.047,0.162,-34.3,230.2,16.6,1023,2018,5,1,18,42,33.382,0.651,-0.3559,0.0791,-0.6656
0.075,0.212,0.171,-32.7,155.7,13.6,1023,2018,5,1,18,42,33.42,0.6609,-0.3293,0.0591,-0.6716
0.011,0.042,0.14,-32,64.9,14.6,1023,2018,5,1,18,42,33.441,0.6649,-0.3135,0.0501,-0.6759
-0.036,-0.067,0.014,-29.9,56.7,7.9,1023,2018,5,1,18,42,33.445,0.6664,-0.3033,0.0466,-0.6794
-0.052,0.108,-0.037,-22.1,58.2,5,1023,2018,5,1,18,42,33.465,0.6687,-0.2934,0.0422,-0.6818
-0.142,-0.233,-0.039,-16.2,20.1,-15.9,1023,2018,5,1,18,42,33.484,0.671,-0.2864,0.0399,-0.6826
0.111,0.638,-0.139,5.6,11.2,3.4,1023,2018,5,1,18,42,33.524,0.6735,-0.2827,0.0389,-0.6818
-0.008,-0.278,-0.195,19.5,-168.5,-39.9,1023,2018,5,1,18,42,33.545,0.6714,-0.2952,0.049,-0.6779
0.079,-0.149,-0.135,25.9,-170.4,-18.6,1023,2018,5,1,18,42,33.549,0.6652,-0.3192,0.0695,-0.6712
0.063,-0.233,-0.099,13.6,-43.1,-8.6,1023,2018,5,1,18,42,33.566,0.6609,-0.3343,0.0812,-0.6669
0.118,0.093,-0.143,-0.4,94.8,8.4,1023,2018,5,1,18,42,33.586,0.6633,-0.3304,0.0763,-0.667
0.162,0.412,-0.124,-5.9,106.4,31.1,1023,2018,5,1,18,42,33.626,0.667,-0.3172,0.0627,-0.6711
0.098,0.466,-0.076,-4.2,43.1,52.1,1023,2018,5,1,18,42,33.646,0.6663,-0.3079,0.0521,-0.677
-0.007,0.18,0.002,-9.5,-12.5,67.6,0,2018,5,1,18,42,33.651,0.6597,-0.3064,0.0489,-0.6843
-0.015,-0.175,-0.15,-5.4,36,75.1,0,2018,5,1,18,42,33.664,0.6514,-0.3054,0.0455,-0.693
-0.063,-0.085,-0.219,10.1,54.2,63.4,0,2018,5,1,18,42,33.687,0.6459,-0.2998,0.0351,-0.7011
-0.119,-0.188,-0.173,28.1,17.2,43.3,0,2018,5,1,18,42,33.707,0.6412,-0.2987,0.0256,-0.7063
-0.38,-0.571,0.207,31.5,3,6,0,2018,5,1,18,42,33.727,0.6387,-0.3018,0.0196,-0.7074
-0.34,-0.474,0.313,18.2,51.5,-11.2,0,2018,5,1,18,42,33.748,0.6407,-0.3022,0.0146,-0.7055
-0.22,0.245,0.341,6.3,48.6,-16.8,0,2018,5,1,18,42,33.766,0.6458,-0.2968,0.0061,-0.7033
-0.06,0.327,0.123,-2.4,-27.7,-12.1,0,2018,5,1,18,42,33.785,0.6482,-0.2961,0.0062,-0.7014
0.005,0.339,0.026,-2.2,-59,-2.5,0,2018,5,1,18,42,33.824,0.6466,-0.301,0.0126,-0.7007
0.015,0.218,0.009,-1.5,-71,3.1,0,2018,5,1,18,42,33.845,0.6428,-0.3084,0.0209,-0.7007
-0.028,0.03,0.024,-3.1,-55.2,4.3,0,2018,5,1,18,42,33.85,0.6389,-0.315,0.0284,-0.7012
-0.022,-0.077,0.015,-2.9,-29.4,1.5,0,2018,5,1,18,42,33.887,0.636,-0.3195,0.0336,-0.7015
-0.03,-0.081,0.024,-2.1,-21.5,-3.1,0,2018,5,1,18,42,33.891,0.6347,-0.3222,0.0371,-0.7012
-0.057,-0.081,0.056,-1.8,-32.2,-9.7,0,2018,5,1,18,42,33.907,0.634,-0.3253,0.0411,-0.7003
-0.129,-0.152,0.122,-6.7,-48.7,-21,0,2018,5,1,18,42,33.926,0.6332,-0.3299,0.0475,-0.6984
-0.22,-0.305,0.157,-15.9,-42.9,-35.6,0,2018,5,1,18,42,33.948,0.6335,-0.3346,0.0564,-0.6953
-0.298,-0.401,0.074,-22,-30.8,-57.5,0,2018,5,1,18,42,33.969,0.6368,-0.3357,0.0658,-0.6908
-0.276,-0.267,0.035,-24.5,-39.7,-77.7,0,2018,5,1,18,42,33.99,0.6429,-0.3357,0.0764,-0.6841
-0.31,-0.464,0.204,-33.5,-49,-99.8,0,2018,5,1,18,42,34.009,0.6501,-0.3363,0.0904,-0.6752
-0.253,-0.295,0.251,-41.4,-54.4,-118.4,0,2018,5,1,18,42,34.03,0.6592,-0.3361,0.1069,-0.664
-0.209,-0.303,0.247,-44.9,-72.9,-135.1,0,2018,5,1,18,42,34.049,0.6688,-0.3367,0.1265,-0.6505
-0.235,-0.208,0.279,-42.1,-115.2,-154.6,0,2018,5,1,18,42,34.089,0.6785,-0.3397,0.1502,-0.6337
-0.277,-0.402,0.256,-37.3,-135.4,-177.3,1023,2018,5,1,18,42,34.109,0.6872,-0.3466,0.1784,-0.6129
-0.285,-0.524,0.106,-29.1,-87,-199.1,1023,2018,5,1,18,42,34.113,0.699,-0.3503,0.2059,-0.5883
-0.251,-0.19,0.035,-17.9,-55.7,-216.5,1023,2018,5,1,18,42,34.129,0.7151,-0.3481,0.2282,-0.5614
-0.152,0.125,-0.06,-1.3,-88.8,-224.8,1023,2018,5,1,18,42,34.166,0.7317,-0.3467,0.2496,-0.531
-0.048,0.419,-0.07,25.2,-150.3,-220.3,1023,2018,5,1,18,42,34.187,0.7451,-0.3529,0.2722,-0.496
0.008,0.535,-0.031,50.9,-220.1,-208,1023,2018,5,1,18,42,34.191,0.7531,-0.3702,0.2961,-0.4561
0.071,0.626,0.03,67.8,-288.5,-182.6,1023,2018,5,1,18,42,34.21,0.7542,-0.3976,0.3203,-0.4126
0.097,0.553,0.11,73.7,-329.9,-150.8,1023,2018,5,1,18,42,34.23,0.7469,-0.4342,0.3444,-0.3673
0.215,0.823,0.441,54.1,-287.4,-99.2,1023,2018,5,1,18,42,34.251,0.7333,-0.472,0.3654,-0.3253
-0.265,1.02,0.643,20.8,-192.5,-43.9,1023,2018,5,1,18,42,34.271,0.7196,-0.4993,0.3791,-0.2983
0.129,-0.134,0.299,-31.3,6.5,-39.5,1023,2018,5,1,18,42,34.292,0.7119,-0.5078,0.3888,-0.2897
0.124,-0.025,-0.346,-14,-97.1,-43.2,1023,2018,5,1,18,42,34.314,0.7094,-0.5078,0.3971,-0.2844
0.182,-0.401,-0.25,6.7,11,-55.8,1023,2018,5,1,18,42,34.333,0.7066,-0.5117,0.4045,-0.274
0.172,0.219,0.112,12.9,30.3,-69.7,1023,2018,5,1,18,42,34.369,0.7135,-0.503,0.4072,-0.2681
0.141,0.134,0.138,16,12.6,-66.4,1023,2018,5,1,18,42,34.389,0.7191,-0.4968,0.4106,-0.2596
0.157,0.103,-0.002,19.9,16.7,-67.2,1023,2018,5,1,18,42,34.393,0.7243,-0.4912,0.4136,-0.2506
0.151,0.06,-0.126,28.8,31.8,-64.8,1023,2018,5,1,18,42,34.415,0.7311,-0.4842,0.415,-0.2424
0.127,0.028,-0.083,42.3,18.1,-63.4,1023,2018,5,1,18,42,34.434,0.7383,-0.4779,0.4148,-0.2331
0.092,-0.125,-0.039,50,19.2,-68.2,0,2018,5,1,18,42,34.453,0.7454,-0.4728,0.4139,-0.2221
0.004,-0.19,-0.017,51.5,41.8,-76.6,0,2018,5,1,18,42,34.472,0.7535,-0.4665,0.4123,-0.2108
-0.007,0.213,0.004,49.6,23.4,-78.4,0,2018,5,1,18,42,34.512,0.7632,-0.4572,0.4107,-0.199
-0.039,0.074,-0.08,47.9,-5.2,-72.8,0,2018,5,1,18,42,34.531,0.7696,-0.4525,0.4106,-0.185
-0.068,0.033,0.046,42.9,5,-70.3,0,2018,5,1,18,42,34.535,0.7748,-0.4493,0.41,-0.1718
-0.091,0.105,0.06,33.5,11.9,-69.6,0,2018,5,1,18,42,34.556,0.7806,-0.4439,0.4094,-0.1606
-0.121,0.126,-0.049,21.8,0.5,-71.9,0,2018,5,1,18,42,34.575,0.785,-0.4389,0.4104,-0.1502
-0.149,0.118,-0.11,13.2,-14.9,-76.6,0,2018,5,1,18,42,34.595,0.7871,-0.4357,0.4139,-0.1385
-0.128,0.161,-0.162,2.8,-15,-75.5,0,2018,5,1,18,42,34.614,0.7876,-0.4331,0.4195,-0.1264
-0.173,0.261,-0.064,-6.2,4.2,-67.6,0,2018,5,1,18,42,34.65,0.7882,-0.4289,0.4255,-0.1162
-0.19,0.293,-0.018,-17.5,19.7,-52.2,0,2018,5,1,18,42,34.671,0.7898,-0.4221,0.4312,-0.1096
-0.209,0.129,-0.069,-28.9,44.2,-37.7,0,2018,5,1,18,42,34.676,0.7913,-0.4138,0.4367,-0.108
-0.157,0.016,-0.141,-34.8,76.5,-29.7,0,2018,5,1,18,42,34.693,0.7937,-0.4025,0.4421,-0.1109
-0.103,0.094,-0.209,-33.4,72.1,-26.4,0,2018,5,1,18,42,34.714,0.7971,-0.3888,0.4473,-0.1153
-0.051,0.112,-0.205,-26.5,33.2,-24.4,0,2018,5,1,18,42,34.735,0.7989,-0.3786,0.452,-0.1178
0.01,0.088,-0.12,-19.9,-11,-24.3,0,2018,5,1,18,42,34.754,0.7982,-0.3749,0.4567,-0.1166
0.034,-0.034,-0.097,-15.2,-27.9,-25.8,0,2018,5,1,18,42,34.772,0.7953,-0.3761,0.4618,-0.112
-0.002,-0.107,-0.117,-10.1,-3.5,-27.3,0,2018,5,1,18,42,34.813,0.7936,-0.3762,0.4658,-0.1074
-0.01,0.029,-0.13,-5.2,16.5,-24.5,0,2018,5,1,18,42,34.834,0.7937,-0.3729,0.4688,-0.105
-0.045,0.136,-0.124,-0.7,8.7,-17.6,0,2018,5,1,18,42,34.838,0.7946,-0.3693,0.4705,-0.1033
-0.078,0.146,-0.054,0.1,0.2,-8.6,0,2018,5,1,18,42,34.852,0.7948,-0.3677,0.4717,-0.1015
-0.104,0.277,0.118,-5.6,-14.8,3.6,0,2018,5,1,18,42,34.874,0.7945,-0.3678,0.4723,-0.1008
-0.119,0.214,0.149,-12.7,-47.1,19.6,1023,2018,5,1,18,42,34.893,0.7915,-0.373,0.4734,-0.1004
-0.105,-0.076,-0.096,-15.4,-53.2,32,1023,2018,5,1,18,42,34.929,0.7863,-0.3826,0.4744,-0.1005
-0.08,-0.157,-0.136,-13.4,-22.4,33.5,1023,2018,5,1,18,42,34.952,0.7821,-0.3903,0.4746,-0.1029
-0.083,0.071,0.226,-26.1,-10.8,24.6,1023,2018,5,1,18,42,34.956,0.7795,-0.3933,0.4755,-0.1071
-0.028,-0.069,0.084,-32.6,-66.2,21,1023,2018,5,1,18,42,34.976,0.7738,-0.4004,0.4786,-0.1085
-0.015,-0.128,0.024,-36.2,-52.9,15.3,1023,2018,5,1,18,42,34.995,0.7662,-0.4101,0.4826,-0.1086
0.021,-0.075,-0.002,-36.4,-29.7,12.7,1023,2018,5,1,18,42,35.032,0.7599,-0.4162,0.4869,-0.1099
0.084,-0.053,0.022,-34.2,-16.8,10.4,1023,2018,5,1,18,42,35.052,0.755,-0.4194,0.4912,-0.1122
0.162,-0.114,0.13,-27,-3.2,7.2,1023,2018,5,1,18,42,35.056,0.7518,-0.4205,0.4947,-0.1143
0.165,-0.123,0.19,-21.7,18.4,4,1023,2018,5,1,18,42,35.094,0.7509,-0.4188,0.4969,-0.1173
0.137,-0.073,0.09,-14.5,32,3,1023,2018,5,1,18,42,35.114,0.7514,-0.4149,0.4984,-0.1213
0.116,-0.016,0.023,-5.9,35.1,2.8,1023,2018,5,1,18,42,35.119,0.7532,-0.4098,0.4989,-0.1249
0.086,-0.023,-0.04,3.7,29.5,2,1023,2018,5,1,18,42,35.14,0.7554,-0.4055,0.4985,-0.1276
0.055,-0.029,0.004,9.1,16.2,-1.6,1023,2018,5,1,18,42,35.16,0.7575,-0.4026,0.4974,-0.1289
0.017,-0.07,0.024,10,7.7,-6.2,1023,2018,5,1,18,42,35.177,0.7592,-0.401,0.496,-0.1285
-0.001,-0.034,0.008,7.8,14.8,-10.5,1023,2018,5,1,18,42,35.198,0.7609,-0.3993,0.495,-0.1278
-0.032,0.048,0.006,3.9,18.4,-11.4,1023,2018,5,1,18,42,35.219,0.763,-0.396,0.4945,-0.1275
-0.042,0.144,0.002,0.4,11.8,-10.2,0,2018,5,1,18,42,35.238,0.7648,-0.3925,0.4947,-0.127
-0.056,0.114,-0.039,-2.1,0.9,-6.3,0,2018,5,1,18,42,35.259,0.7653,-0.3907,0.4955,-0.1259
-0.068,0.066,-0.075,-4.8,6.4,-3.1,0,2018,5,1,18,42,35.281,0.7651,-0.39,0.4966,-0.1256
-0.06,0.125,-0.086,-5.3,9.2,1.7,0,2018,5,1,18,42,35.301,0.765,-0.3887,0.4976,-0.1263
-0.074,0.143,-0.081,-5.7,-1.7,9.1,0,2018,5,1,18,42,35.32,0.7643,-0.3885,0.4986,-0.1272
-0.097,0.03,-0.048,-6.8,0.2,16,0,2018,5,1,18,42,35.361,0.7631,-0.3899,0.4988,-0.1289
-0.093,-0.037,-0.044,-8.7,27.3,20.8,0,2018,5,1,18,42,35.365,0.7626,-0.3903,0.4981,-0.1335
-0.127,0.123,0.038,-9.7,36.7,25.9,0,2018,5,1,18,42,35.381,0.7638,-0.3875,0.4965,-0.1407
-0.15,0.301,0.102,-12.5,-5.4,41.5,0,2018,5,1,18,42,35.397,0.7634,-0.3876,0.4951,-0.1473
-0.189,0.126,0.179,-22,-52.9,58.6,0,2018,5,1,18,42,35.418,0.7583,-0.3961,0.4947,-0.1521
-0.213,0.068,0.06,-32.8,-36.7,73.3,0,2018,5,1,18,42,35.439,0.7509,-0.4071,0.495,-0.1585
-0.151,0.117,-0.176,-32.8,-11,89.7,0,2018,5,1,18,42,35.478,0.744,-0.4162,0.4941,-0.1699
-0.059,0.221,-0.182,-21.3,-35.7,105.2,0,2018,5,1,18,42,35.498,0.7372,-0.4265,0.491,-0.1826
-0.042,0.123,-0.051,-13.2,-61.7,114.5,0,2018,5,1,18,42,35.502,0.7282,-0.442,0.4867,-0.1934
-0.003,0.037,0.057,-14.5,-67,117.9,0,2018,5,1,18,42,35.54,0.7179,-0.4596,0.4815,-0.2033
-0.041,-0.231,0.064,-19.9,-39.1,113.6,0,2018,5,1,18,42,35.56,0.7077,-0.476,0.4757,-0.2147
-0.013,0.114,-0.047,-20.5,6.1,112.9,0,2018,5,1,18,42,35.565,0.701,-0.4856,0.4688,-0.2299
0.028,-0.155,-0.05,-16.8,33.2,110.8,0,2018,5,1,18,42,35.58,0.6953,-0.493,0.4616,-0.2456
0.013,0.366,-0.003,-11,25.9,119.8,0,2018,5,1,18,42,35.602,0.6928,-0.4963,0.4515,-0.2639
-0.015,0.108,-0.074,-8.6,21.4,130.3,0,2018,5,1,18,42,35.623,0.6873,-0.5038,0.4413,-0.2808
0.005,-0.042,-0.068,-7.4,71.5,137.4,0,2018,5,1,18,42,35.641,0.683,-0.509,0.4288,-0.3005
-0.039,0.107,-0.277,5.9,153.9,146.7,0,2018,5,1,18,42,35.659,0.6859,-0.505,0.4094,-0.3265
-0.015,0.036,-0.433,36.3,275.6,150.2,1023,2018,5,1,18,42,35.7,0.6973,-0.4906,0.381,-0.3573
0.083,0.278,-0.493,74.5,335.2,155.1,1023,2018,5,1,18,42,35.72,0.7164,-0.4658,0.3412,-0.3915
-0.008,0.588,-0.364,112.9,368.1,156.8,1023,2018,5,1,18,42,35.724,0.739,-0.4355,0.291,-0.4234
-0.025,0.67,0.013,132.5,321.1,155.2,1023,2018,5,1,18,42,35.741,0.7584,-0.4067,0.2369,-0.4506
-0.041,0.245,0.122,132.7,292,145,1023,2018,5,1,18,42,35.761,0.772,-0.3831,0.1845,-0.4723
0.042,0.269,0.254,123.7,319,140.4,1023,2018,5,1,18,42,35.797,0.7836,-0.356,0.1319,-0.4916
0.095,0.423,0.433,104.5,306.7,138.5,1023,2018,5,1,18,42,35.817,0.7923,-0.325,0.0803,-0.5098
0.155,0.519,0.479,84.7,257.4,144,1023,2018,5,1,18,42,35.826,0.796,-0.2951,0.0339,-0.5273
0.062,0.326,0.511,62.8,186.3,154.6,1023,2018,5,1,18,42,35.844,0.7928,-0.2726,-0.0042,-0.545
-0.03,0.078,0.476,41.6,169.9,156,1023,2018,5,1,18,42,35.865,0.7857,-0.2526,-0.0351,-0.5634
0.043,0.222,0.464,25.9,122.9,159.1,1023,2018,5,1,18,42,35.886,0.7762,-0.2334,-0.0614,-0.5823
0.095,0.381,0.333,19.6,4.3,163.1,1023,2018,5,1,18,42,35.905,0.762,-0.225,-0.0772,-0.6022
0.076,0.039,0.264,14.5,-57.6,170.2,1023,2018,5,1,18,42,35.921,0.7424,-0.2295,-0.0818,-0.624
-0.073,-0.297,0.281,8.3,15.1,173,1023,2018,5,1,18,42,35.961,0.7221,-0.2318,-0.0866,-0.6458
-0.119,-0.111,0.194,10,101.4,165.4,1023,2018,5,1,18,42,35.98,0.7055,-0.2208,-0.1021,-0.6655
-0.109,-0.512,0.102,22.9,-30.8,126.2,1023,2018,5,1,18,42,35.982,0.6889,-0.2157,-0.1152,-0.6822
-0.463,-0.546,1.03,7.6,-109.8,71,1023,2018,5,1,18,42,36.004,0.6741,-0.2245,-0.1124,-0.6945
0.044,-0.579,0.423,-16.2,-94.4,47.1,1023,2018,5,1,18,42,36.023,0.6624,-0.2362,-0.0993,-0.7039
0.056,0.001,0.062,-22.5,17,37.1,0,2018,5,1,18,42,36.061,0.6562,-0.2365,-0.0946,-0.7102
0.268,0.451,-0.431,9.8,32.6,49.6,0,2018,5,1,18,42,36.084,0.6525,-0.2306,-0.1004,-0.7147
0.074,0.247,-0.511,39.7,18.4,54.1,0,2018,5,1,18,42,36.086,0.646,-0.2306,-0.1081,-0.7195
-0.404,0.267,-0.129,62.7,15,68.3,0,2018,5,1,18,42,36.104,0.6379,-0.234,-0.1193,-0.7238
-0.423,-0.151,0.308,60.9,-21.1,61.5,0,2018,5,1,18,42,36.124,0.6278,-0.2411,-0.1289,-0.7287
-0.112,0.038,0.322,49.1,-73.8,38.8,0,2018,5,1,18,42,36.162,0.6183,-0.2525,-0.1306,-0.7326
-0.207,0.28,-0.006,37.8,-129.2,37.6,0,2018,5,1,18,42,36.164,0.6075,-0.2683,-0.1239,-0.7371
-0.2,0.01,-0.29,29.7,-116,30.7,0,2018,5,1,18,42,36.182,0.5959,-0.2855,-0.1126,-0.742
-0.338,-0.114,-0.217,27.6,-67.5,16.7,0,2018,5,1,18,42,36.22,0.5875,-0.2984,-0.1053,-0.7447
-0.42,-0.241,-0.059,14.2,-19,2.4,0,2018,5,1,18,42,36.24,0.5835,-0.3053,-0.1029,-0.7454
-0.262,-0.186,-0.091,4.7,8.4,-14.2,0,2018,5,1,18,42,36.244,0.5837,-0.307,-0.1034,-0.7444
-0.287,-0.039,-0.062,1.9,23.4,-29.3,0,2018,5,1,18,42,36.279,0.5873,-0.3062,-0.1051,-0.7417
-0.186,0.137,-0.054,-3.2,13.3,-39.7,0,2018,5,1,18,42,36.3,0.5925,-0.3048,-0.1062,-0.7379
-0.127,0.197,-0.095,-5.6,-21.1,-40.9,0,2018,5,1,18,42,36.304,0.5976,-0.3056,-0.103,-0.7339
-0.028,0.168,-0.079,-4.9,-42.4,-27.8,0,2018,5,1,18,42,36.343,0.6001,-0.3093,-0.0964,-0.7313
0.038,0.175,0.012,-6.7,-50.2,-9.8,0,2018,5,1,18,42,36.363,0.5999,-0.3139,-0.089,-0.7304
0.065,0.127,0.049,-9.9,-49.8,4,0,2018,5,1,18,42,36.365,0.5974,-0.3181,-0.0816,-0.7315
0.092,0.054,0.092,-13.2,-49.8,7.9,0,2018,5,1,18,42,36.385,0.5939,-0.3216,-0.0744,-0.7336
0.091,0.009,0.11,-14.1,-49.4,5.1,0,2018,5,1,18,42,36.422,0.5907,-0.3236,-0.0665,-0.736
0.043,-0.03,0.098,-13.4,-46.7,0.5,0,2018,5,1,18,42,36.442,0.588,-0.326,-0.0586,-0.7378
0.064,-0.002,0.041,-12,-45.9,-2.6,0,2018,5,1,18,42,36.444,0.5855,-0.3288,-0.051,-0.7391
0.056,0.04,0.008,-9,-41.9,-3.6,0,2018,5,1,18,42,36.482,0.5836,-0.3316,-0.0439,-0.7398
0.028,0.063,0.022,-7.3,-50.5,-2.9,1023,2018,5,1,18,42,36.503,0.5815,-0.3346,-0.0371,-0.7405
0.061,0.06,0.018,-6.4,-56.9,0.1,1023,2018,5,1,18,42,36.505,0.5784,-0.3387,-0.0296,-0.7414
0.051,0.036,-0.001,-5.5,-51,4.3,1023,2018,5,1,18,42,36.54,0.5748,-0.343,-0.0221,-0.7425
0.062,0.037,0.006,-5.6,-40.8,7.4,1023,2018,5,1,18,42,36.56,0.5712,-0.3464,-0.0161,-0.7438
0.05,0.063,0.048,-6.7,-42.6,10.2,1023,2018,5,1,18,42,36.568,0.5676,-0.3491,-0.0109,-0.7454
0.067,0.111,0.068,-6.9,-60.7,13.3,1023,2018,5,1,18,42,36.605,0.5631,-0.3525,-0.0043,-0.7473
0.082,0.147,0.054,-5.2,-88.5,18,1023,2018,5,1,18,42,36.625,0.5563,-0.3589,0.0049,-0.7493
0.111,0.107,0.02,-0.2,-118.3,22.1,1023,2018,5,1,18,42,36.629,0.5468,-0.369,0.0175,-0.7513
0.135,0.084,0.057,4.2,-133.2,24,1023,2018,5,1,18,42,36.667,0.5353,-0.3811,0.0323,-0.753
0.217,0.178,0.049,11.3,-162.8,33,1023,2018,5,1,18,42,36.669,0.5217,-0.396,0.049,-0.7539
0.203,0.156,0.08,12.7,-192.3,49.7,1023,2018,5,1,18,42,36.686,0.5036,-0.4142,0.0685,-0.755
0.042,-0.088,0.058,6.1,-174.1,63.5,1023,2018,5,1,18,42,36.724,0.482,-0.4325,0.0886,-0.7567
-0.054,-0.281,0.001,-6.9,-84.6,68.8,1023,2018,5,1,18,42,36.744,0.4633,-0.4443,0.1011,-0.7599
-0.115,-0.113,-0.051,-14.9,-4.3,63,1023,2018,5,1,18,42,36.748,0.4512,-0.447,0.1019,-0.7655
-0.153,-0.012,-0.085,-15.3,6.8,50.4,1023,2018,5,1,18,42,36.786,0.4437,-0.4457,0.0981,-0.7711
-0.194,0.005,-0.083,-13.2,-6.7,34.4,1023,2018,5,1,18,42,36.808,0.4378,-0.4445,0.0957,-0.7755
-0.228,-0.09,-0.146,-9.6,-19,16.9,1023,2018,5,1,18,42,36.813,0.4329,-0.4445,0.0966,-0.7781
-0.229,-0.13,-0.254,-1,-7.8,-2.3,0,2018,5,1,18,42,36.832,0.4307,-0.445,0.0985,-0.7788
-0.212,-0.133,-0.338,12.1,19,-24.2,0,2018,5,1,18,42,36.852,0.433,-0.4452,0.0983,-0.7775
-0.226,-0.054,-0.371,26.4,39.1,-46.4,0,2018,5,1,18,42,36.892,0.4407,-0.4448,0.0952,-0.7738
-0.23,0.037,-0.417,40.2,22.2,-63.3,0,2018,5,1,18,42,36.912,0.4513,-0.4458,0.0926,-0.7673
-0.202,0.179,-0.432,53.2,-12.3,-69.8,0,2018,5,1,18,42,36.916,0.4612,-0.4507,0.0931,-0.7585
-0.201,0.103,-0.354,61.2,-49.2,-70.1,0,2018,5,1,18,42,36.929,0.4688,-0.46,0.0985,-0.7475
-0.177,-0.024,-0.319,65.3,-33.3,-67.3,0,2018,5,1,18,42,36.949,0.4749,-0.4708,0.1046,-0.736
-0.142,-0.036,-0.258,66.8,10.1,-62.7,0,2018,5,1,18,42,36.969,0.4833,-0.4791,0.1058,-0.725
-0.112,0.028,-0.207,66.4,33.7,-59.8,0,2018,5,1,18,42,37.008,0.4942,-0.4842,0.102,-0.7147
-0.08,-0.274,0.201,44.8,69.5,-56.6,0,2018,5,1,18,42,37.028,0.5062,-0.4866,0.0961,-0.7053
-0.073,0.225,1.016,-10.5,137.5,-52.2,0,2018,5,1,18,42,37.032,0.5224,-0.4773,0.0851,-0.7013
-0.045,0.867,0.843,-50.7,-33.5,-36.7,0,2018,5,1,18,42,37.052,0.5325,-0.4667,0.084,-0.701
0.079,-0.012,0.166,-50,-144.5,-32.1,0,2018,5,1,18,42,37.072,0.5266,-0.4702,0.1056,-0.7002
0.03,-0.175,0.009,-38.8,-98.7,-33,0,2018,5,1,18,42,37.092,0.5197,-0.4752,0.1282,-0.6982
0.063,-0.062,-0.024,-27,-22.6,-35.6,0,2018,5,1,18,42,37.131,0.5185,-0.4759,0.1419,-0.696
0.121,-0.005,0.014,-19.6,23.3,-32.2,0,2018,5,1,18,42,37.15,0.5228,-0.4715,0.1469,-0.6947
0.169,0.043,0.023,-14.5,40.4,-24.2,0,2018,5,1,18,42,37.154,0.5286,-0.4656,0.1469,-0.6944
0.236,0.076,-0.008,-10.6,61.1,-10.7,0,2018,5,1,18,42,37.173,0.5344,-0.459,0.1432,-0.695
0.235,0.025,-0.032,-7.8,85,0,0,2018,5,1,18,42,37.192,0.5406,-0.4507,0.1354,-0.6972
0.212,0.062,-0.084,-2.8,94.5,8,0,2018,5,1,18,42,37.212,0.5471,-0.4415,0.1245,-0.7001
0.179,0.081,-0.108,6.2,79.8,13.3,0,2018,5,1,18,42,37.232,0.5525,-0.4335,0.1127,-0.7029
0.043,-0.008,-0.032,13.5,33.6,10.4,0,2018,5,1,18,42,37.272,0.5559,-0.429,0.1043,-0.7042
-0.021,-0.014,0.011,17,-45.1,2.4,1023,2018,5,1,18,42,37.291,0.5549,-0.4318,0.1034,-0.7033
-0.091,-0.176,0.069,11.2,-42,-0.8,1023,2018,5,1,18,42,37.295,0.5513,-0.4389,0.1088,-0.701
-0.051,-0.077,0.02,6.4,1.2,-6.7,1023,2018,5,1,18,42,37.314,0.5503,-0.4419,0.1107,-0.6996
-0.005,0.11,-0.016,10.6,23,-10,1023,2018,5,1,18,42,37.334,0.5525,-0.4416,0.1088,-0.6984
0.018,0.227,0.068,16.8,36.8,-6.7,1023,2018,5,1,18,42,37.374,0.556,-0.4401,0.1038,-0.6973
-0.036,0.193,0.144,17,35.7,0.2,1023,2018,5,1,18,42,37.394,0.5595,-0.4386,0.0977,-0.6964
-0.029,0.135,0.129,14.1,21.6,7.7,1023,2018,5,1,18,42,37.398,0.5612,-0.4378,0.0923,-0.6962
-0.035,0.151,0.122,5.3,9.8,15,1023,2018,5,1,18,42,37.414,0.561,-0.4378,0.0888,-0.6967
-0.068,0.176,0.177,-7.6,-0.8,21.3,1023,2018,5,1,18,42,37.432,0.5591,-0.4375,0.0866,-0.6988
-0.117,0.04,0.112,-21.3,-2.5,26.8,1023,2018,5,1,18,42,37.472,0.5554,-0.4364,0.0864,-0.7024
-0.102,0.056,-0.001,-31.8,9.5,29.6,1023,2018,5,1,18,42,37.493,0.5515,-0.433,0.0858,-0.7077
-0.059,-0.021,-0.392,-29,27.1,20.2,1023,2018,5,1,18,42,37.497,0.5492,-0.4278,0.0843,-0.7128
-0.16,-0.073,-0.175,-24.1,11.5,9.7,1023,2018,5,1,18,42,37.517,0.5482,-0.4229,0.083,-0.7166
-0.202,-0.046,-0.243,-15.9,-10.9,-2.6,1023,2018,5,1,18,42,37.537,0.5477,-0.4202,0.084,-0.7185
-0.321,-0.414,-0.217,-9.7,-26.2,-25.6,1023,2018,5,1,18,42,37.558,0.5474,-0.4207,0.0893,-0.7178
-0.317,-0.494,-0.249,0.4,-13.4,-57.3,1023,2018,5,1,18,42,37.577,0.5508,-0.4214,0.0951,-0.714
-0.379,-0.478,-0.209,15.4,-10.7,-92,1023,2018,5,1,18,42,37.597,0.5595,-0.4222,0.101,-0.7059
-0.364,-0.407,-0.188,27.8,-18.1,-122.8,1023,2018,5,1,18,42,37.619,0.5718,-0.4246,0.1086,-0.6934
-0.329,-0.247,-0.057,30.6,-31,-142,0,2018,5,1,18,42,37.636,0.5866,-0.4279,0.1183,-0.6772
-0.16,-0.094,-0.056,32.1,-55.4,-145.5,0,2018,5,1,18,42,37.674,0.601,-0.4331,0.1313,-0.6586
0.002,0.076,0.123,27.3,-24.3,-137.5,0,2018,5,1,18,42,37.693,0.6146,-0.4375,0.1433,-0.6404
0.096,0.313,0.246,13.7,-7,-121.7,0,2018,5,1,18,42,37.696,0.6285,-0.4378,0.1525,-0.6244
0.238,0.637,0.317,-1.9,-32,-94.1,0,2018,5,1,18,42,37.733,0.6391,-0.4373,0.1618,-0.6115
0.289,0.804,0.428,-29,-67.8,-53.1,0,2018,5,1,18,42,37.753,0.6422,-0.4396,0.1747,-0.603
0.432,0.877,0.38,-61.2,-72.4,-4.7,0,2018,5,1,18,42,37.756,0.6382,-0.442,0.1898,-0.601
0.537,0.959,0.258,-80,-40.8,45.8,0,2018,5,1,18,42,37.791,0.6289,-0.4414,0.2023,-0.6071
0.464,0.614,0.009,-75.9,40.7,92.7,0,2018,5,1,18,42,37.815,0.6181,-0.4359,0.206,-0.6207
0.275,0.62,-0.14,-52.6,103.5,126.5,0,2018,5,1,18,42,37.819,0.6101,-0.4236,0.1953,-0.6404
-0.01,-0.003,-0.098,-28.1,99.3,133.7,0,2018,5,1,18,42,37.84,0.6011,-0.4129,0.1786,-0.6604
-0.096,-0.369,-0.01,-11.3,145.5,119.7,0,2018,5,1,18,42,37.859,0.5943,-0.4021,0.1575,-0.6783
-0.144,-0.362,-0.024,0,183.6,98.6,0,2018,5,1,18,42,37.899,0.5928,-0.3868,0.1304,-0.6941
-0.129,-0.125,-0.041,9.9,171.2,79.3,0,2018,5,1,18,42,37.903,0.5943,-0.3702,0.1014,-0.7067
-0.063,-0.064,-0.015,16.8,100.3,66.7,0,2018,5,1,18,42,37.92,0.5939,-0.3596,0.0786,-0.7152
-0.082,-0.09,-0.005,19.2,48.6,57.8,0,2018,5,1,18,42,37.936,0.5909,-0.3559,0.0642,-0.7211
-0.143,-0.379,0.048,15,10.6,45.2,0,2018,5,1,18,42,37.974,0.5859,-0.3564,0.0562,-0.7255
-0.172,-0.472,0.101,4.2,10.7,25.3,0,2018,5,1,18,42,37.995,0.5821,-0.3571,0.0519,-0.7285
-0.076,-0.309,-0.025,0.3,34.2,10.4,0,2018,5,1,18,42,38,0.5813,-0.3549,0.0475,-0.7306
0.01,-0.064,-0.056,-1.6,5.9,-2.3,0,2018,5,1,18,42,38.021,0.5821,-0.3529,0.0447,-0.731
-0.024,0.099,-0.105,2.8,-35.9,-4.8,0,2018,5,1,18,42,38.04,0.5819,-0.3546,0.0472,-0.7303
0.004,0.004,-0.186,7.5,-67.6,-4.7,0,2018,5,1,18,42,38.06,0.5789,-0.3617,0.054,-0.7287
-0.017,-0.099,-0.233,18.7,-37.4,-6.2,1023,2018,5,1,18,42,38.08,0.576,-0.3691,0.0602,-0.7268
-0.011,-0.055,-0.182,29.3,16.8,-9.7,1023,2018,5,1,18,42,38.118,0.5768,-0.3729,0.0594,-0.7242
-0.008,0.067,-0.144,38.8,53.4,-8,1023,2018,5,1,18,42,38.139,0.5807,-0.3738,0.0516,-0.7213
-0.047,0.138,0.053,42.4,59.3,-5.9,1023,2018,5,1,18,42,38.143,0.5853,-0.3733,0.0395,-0.7186
-0.132,0.379,0.337,31.1,-22.8,1.2,1023,2018,5,1,18,42,38.159,0.5872,-0.3758,0.033,-0.7161
-0.145,-0.023,0.342,8.1,-54.7,7.5,1023,2018,5,1,18,42,38.198,0.5833,-0.3835,0.0372,-0.7149
-0.076,0.157,0.122,-4.2,-23.5,13.9,1023,2018,5,1,18,42,38.202,0.5793,-0.3871,0.0403,-0.7161
-0.09,0.173,0,-3.2,-38.8,14.1,1023,2018,5,1,18,42,38.222,0.5754,-0.3896,0.0435,-0.7177
-0.149,-0.102,-0.118,3,-20.9,8.9,1023,2018,5,1,18,42,38.249,0.5716,-0.3932,0.0473,-0.7186
-0.221,-0.276,-0.083,3.8,49.5,-2.6,1023,2018,5,1,18,42,38.261,0.5718,-0.3926,0.0451,-0.7188
-0.203,-0.189,-0.032,-3.5,142,-16,1023,2018,5,1,18,42,38.3,0.5796,-0.3826,0.0329,-0.7186
-0.105,0.096,-0.047,-10.9,180.4,-17.8,1023,2018,5,1,18,42,38.32,0.5924,-0.3649,0.0137,-0.718
-0.02,0.35,-0.035,-12,159.2,-12.5,1023,2018,5,1,18,42,38.324,0.605,-0.3452,-0.0062,-0.7174
0.024,0.263,-0.102,-9.9,100.1,-1.9,1023,2018,5,1,18,42,38.342,0.6132,-0.3303,-0.0206,-0.7171
0.071,-0.085,-0.17,-5.7,88,2.5,1023,2018,5,1,18,42,38.378,0.618,-0.3199,-0.031,-0.7174
0.064,-0.035,0.036,5,79.5,-2.2,1023,2018,5,1,18,42,38.399,0.6228,-0.3105,-0.0419,-0.7168
0.147,-0.014,0.256,4.8,34.8,1.8,1023,2018,5,1,18,42,38.403,0.6256,-0.3052,-0.0492,-0.7161
0.129,-0.122,0.184,-3.6,19.8,10.2,1023,2018,5,1,18,42,38.425,0.6261,-0.3024,-0.0525,-0.7166
0.151,0.135,0.106,-6.2,-2.1,19,0,2018,5,1,18,42,38.445,0.6251,-0.3003,-0.0542,-0.7183
0.099,-0.01,-0.039,-6.7,-19.8,20.9,0,2018,5,1,18,42,38.463,0.6217,-0.3005,-0.0524,-0.7213
-0.052,-0.13,0.029,-7.6,-10.4,16.9,0,2018,5,1,18,42,38.482,0.6185,-0.3015,-0.05,-0.7238
-0.161,-0.156,0.063,-9.7,18.6,3.2,0,2018,5,1,18,42,38.503,0.6175,-0.3001,-0.0503,-0.7253
-0.251,0.028,0.136,-17.3,1.5,-14.4,0,2018,5,1,18,42,38.522,0.6189,-0.2976,-0.0506,-0.725
-0.229,0.132,0.083,-22.7,-26.3,-26.5,0,2018,5,1,18,42,38.561,0.621,-0.2967,-0.0456,-0.7239
-0.204,0.169,0.034,-23.5,-50.3,-35.5,0,2018,5,1,18,42,38.583,0.6231,-0.2983,-0.0364,-0.722
-0.231,0.183,0.023,-19.3,-84,-44.2,0,2018,5,1,18,42,38.587,0.6247,-0.3027,-0.0242,-0.7193
-0.142,-0.015,-0.055,-14.5,-89.3,-47.5,0,2018,5,1,18,42,38.606,0.6256,-0.3114,-0.0076,-0.7152
-0.185,-0.06,0.055,-12.4,-61.6,-54.5,0,2018,5,1,18,42,38.645,0.6277,-0.3175,0.0047,-0.7106
-0.032,-0.182,-0.09,-6,-47.6,-61.6,0,2018,5,1,18,42,38.663,0.632,-0.3228,0.0163,-0.7043
-0.015,-0.235,0.017,-7.4,6.4,-58.5,0,2018,5,1,18,42,38.668,0.6377,-0.3247,0.0236,-0.6979
-0.013,0.196,0.046,-6.7,39.8,-56.1,0,2018,5,1,18,42,38.684,0.6467,-0.3197,0.0236,-0.692
0.037,0.116,-0.063,-2.1,-5,-55.1,0,2018,5,1,18,42,38.705,0.6542,-0.3169,0.0251,-0.6862
0.054,0.214,-0.065,6.6,-59.3,-50.8,0,2018,5,1,18,42,38.724,0.6587,-0.3204,0.0314,-0.68
0.007,0.042,-0.065,15.5,-99.8,-50.8,0,2018,5,1,18,42,38.746,0.6603,-0.3306,0.0427,-0.6728
-0.11,-0.076,-0.014,18.2,-91,-51.5,0,2018,5,1,18,42,38.767,0.6601,-0.3444,0.055,-0.6652
-0.259,-0.198,0.184,8.2,-45.1,-57.5,0,2018,5,1,18,42,38.786,0.662,-0.354,0.0644,-0.6573
-0.27,-0.458,0.332,-4,-41.9,-91.5,0,2018,5,1,18,42,38.805,0.6679,-0.3584,0.0727,-0.6481
-0.24,-0.445,0.417,-16.3,-76.8,-107.6,0,2018,5,1,18,42,38.825,0.6747,-0.3635,0.0871,-0.6364
-0.224,-0.692,0.366,-29.6,-65.4,-138.4,0,2018,5,1,18,42,38.847,0.683,-0.3682,0.1065,-0.6217
-0.237,-0.826,0.443,-45,-29.2,-172.5,0,2018,5,1,18,42,38.866,0.6957,-0.3671,0.1265,-0.6042
-0.291,-0.736,0.54,-62.1,10,-212.1,1023,2018,5,1,18,42,38.886,0.714,-0.3581,0.1462,-0.5835
-0.223,-0.311,0.562,-75.3,-29.7,-244.2,1023,2018,5,1,18,42,38.903,0.7345,-0.3455,0.1689,-0.5589
-0.135,0.101,0.399,-76.8,-113.5,-262.8,1023,2018,5,1,18,42,38.925,0.7519,-0.3395,0.2012,-0.528
-0.101,0.225,0.13,-63.4,-157.2,-269.5,1023,2018,5,1,18,42,38.962,0.7643,-0.3421,0.2391,-0.4915
-0.155,0.248,0.058,-44.2,-127.9,-266.8,1023,2018,5,1,18,42,38.983,0.7752,-0.3452,0.2743,-0.4521
-0.221,0.357,0.101,-33.6,-81.9,-253.4,1023,2018,5,1,18,42,38.987,0.7867,-0.3434,0.3031,-0.4137
-0.181,0.51,0.005,-24.2,-44.1,-232.3,1023,2018,5,1,18,42,39.007,0.7984,-0.3362,0.3257,-0.3785
-0.177,0.583,-0.213,-9.4,-23.2,-206.2,1023,2018,5,1,18,42,39.025,0.8095,-0.3268,0.3428,-0.3467
-0.143,0.492,-0.231,2,0.8,-176.1,1023,2018,5,1,18,42,39.062,0.8198,-0.3165,0.3545,-0.3192
-0.111,0.569,-0.141,-0.4,26.5,-148.8,1023,2018,5,1,18,42,39.082,0.8295,-0.3042,0.3623,-0.2966
-0.071,0.445,-0.122,0.1,41.1,-128.4,1023,2018,5,1,18,42,39.088,0.8384,-0.2901,0.3678,-0.2785
-0.022,0.372,-0.068,-3.2,57,-110.6,1023,2018,5,1,18,42,39.128,0.8464,-0.2751,0.3716,-0.264
-0.013,0.377,-0.162,-7.3,79,-97.3,1023,2018,5,1,18,42,39.147,0.854,-0.258,0.3742,-0.2528
-0.023,0.334,-0.051,-11.8,92.2,-86.7,1023,2018,5,1,18,42,39.151,0.8612,-0.2384,0.3758,-0.2451
-0.077,0.191,0.027,-25.6,95.7,-75.5,1023,2018,5,1,18,42,39.17,0.8672,-0.218,0.3778,-0.24
-0.101,0.277,-0.083,-37.8,101.3,-66.7,1023,2018,5,1,18,42,39.192,0.8717,-0.1966,0.3812,-0.2365
-0.083,0.371,-0.239,-42.8,92,-53.6,1023,2018,5,1,18,42,39.212,0.8747,-0.1758,0.3855,-0.235
-0.128,0.347,-0.36,-38.1,75.1,-34.2,0,2018,5,1,18,42,39.229,0.8762,-0.1584,0.3897,-0.2348
-0.16,0.185,-0.324,-33.1,76.9,-17.8,0,2018,5,1,18,42,39.247,0.877,-0.1435,0.3926,-0.2368
-0.169,0.115,-0.163,-34,77.4,-7,0,2018,5,1,18,42,39.267,0.8769,-0.1292,0.3952,-0.2409
-0.125,0.122,-0.184,-37.1,49.8,-2.7,0,2018,5,1,18,42,39.307,0.8761,-0.1171,0.3981,-0.2451
-0.069,-0.002,-0.234,-32.7,-2.9,-1.6,0,2018,5,1,18,42,39.328,0.8741,-0.1117,0.4031,-0.2465
-0.064,-0.178,-0.161,-27,-18.3,-5.8,0,2018,5,1,18,42,39.332,0.872,-0.1122,0.4083,-0.2453
-0.08,-0.14,-0.055,-24.8,-15,-12,0,2018,5,1,18,42,39.351,0.8703,-0.1128,0.4131,-0.2429
-0.044,-0.054,-0.02,-24.6,-25.9,-16.7,0,2018,5,1,18,42,39.371,0.8688,-0.1139,0.418,-0.2396
0.007,-0.045,0.012,-24,-38.4,-19,0,2018,5,1,18,42,39.39,0.8671,-0.1167,0.4235,-0.2344
0.006,-0.104,0.05,-23.2,-24.9,-21,0,2018,5,1,18,42,39.425,0.8655,-0.1197,0.4288,-0.2291
0.009,-0.049,0.068,-22.8,-7.4,-22,0,2018,5,1,18,42,39.446,0.8645,-0.1194,0.4332,-0.2248
0.002,-0.018,0.108,-24.4,-5.8,-20.9,0,2018,5,1,18,42,39.45,0.8638,-0.1177,0.4369,-0.2214
-0.006,-0.032,0.092,-27.9,0.3,-19.5,0,2018,5,1,18,42,39.488,0.8628,-0.1157,0.4407,-0.2188
0.008,0.011,0.031,-27.9,7.2,-17.3,0,2018,5,1,18,42,39.509,0.8616,-0.1123,0.4448,-0.217
-0.007,0.067,0.055,-24.8,10.7,-12.8,0,2018,5,1,18,42,39.513,0.8606,-0.1081,0.4486,-0.2152
-0.046,0.019,0.033,-22.1,16.2,-8.4,0,2018,5,1,18,42,39.531,0.8597,-0.1041,0.4513,-0.215
-0.047,0.035,-0.023,-17.5,16.8,-4.6,0,2018,5,1,18,42,39.551,0.859,-0.0998,0.4535,-0.2154
-0.033,0.054,-0.067,-9.9,10,-1.5,0,2018,5,1,18,42,39.588,0.8582,-0.0969,0.4552,-0.2161
-0.035,0.069,-0.045,-3.2,3.9,1.7,0,2018,5,1,18,42,39.609,0.8577,-0.0955,0.4563,-0.2166
-0.047,0.063,-0.013,0,-6.5,5.7,0,2018,5,1,18,42,39.613,0.8576,-0.0954,0.4564,-0.2169
-0.029,0.045,-0.012,1.1,-7.1,8.1,0,2018,5,1,18,42,39.632,0.8574,-0.0966,0.4564,-0.2169
-0.025,0.071,0.017,-0.8,-6.3,9.7,0,2018,5,1,18,42,39.649,0.8571,-0.098,0.4563,-0.2175
-0.019,0.033,0.005,-3.5,-3.5,11,0,2018,5,1,18,42,39.686,0.8568,-0.0989,0.4564,-0.2182
-0.015,0.046,0.021,-6.5,2,11.9,0,2018,5,1,18,42,39.706,0.8561,-0.0994,0.4569,-0.2199
-0.016,0.066,0.005,-7.9,-8.2,12.9,0,2018,5,1,18,42,39.71,0.8552,-0.0999,0.4577,-0.2215
-0.007,-0.025,-0.001,-9.6,-11.1,11.7,1023,2018,5,1,18,42,39.751,0.8539,-0.1022,0.4592,-0.2224
0.012,-0.047,0.004,-10.1,-5.4,8.6,1023,2018,5,1,18,42,39.771,0.8526,-0.1038,0.4609,-0.2228
0.023,-0.039,0.028,-10.1,-1.4,4.4,1023,2018,5,1,18,42,39.775,0.8515,-0.1046,0.4624,-0.2235
0.006,-0.044,0.034,-10.4,8.4,1.3,1023,2018,5,1,18,42,39.794,0.8507,-0.1041,0.4638,-0.2239
-0.006,-0.014,0.005,-9.9,17.2,-0.5,1023,2018,5,1,18,42,39.814,0.8503,-0.1017,0.4647,-0.2247
-0.012,0,-0.051,-8.8,24.7,-1.4,1023,2018,5,1,18,42,39.848,0.8498,-0.0984,0.4654,-0.2265
-0.029,0.069,0.004,-7.9,23.4,-0.5,1023,2018,5,1,18,42,39.869,0.8498,-0.0938,0.4658,-0.2281
-0.001,0.134,0.033,-7.4,1.5,0.5,1023,2018,5,1,18,42,39.873,0.8495,-0.0913,0.4662,-0.2291
0.013,0.041,0.008,-6.8,-10.4,1.9,1023,2018,5,1,18,42,39.912,0.849,-0.0914,0.4676,-0.2283
0.001,0.019,0.003,-7,-0.6,2.7,1023,2018,5,1,18,42,39.932,0.8483,-0.092,0.4688,-0.2281
-0.025,0.024,-0.03,-7.7,5.1,3.5,1023,2018,5,1,18,42,39.936,0.8476,-0.0914,0.4697,-0.229
-0.048,0.042,-0.012,-8.4,-4.7,3.9,1023,2018,5,1,18,42,39.954,0.8469,-0.0909,0.4708,-0.2294
-0.064,0.005,-0.031,-9.9,-17.5,4.3,1023,2018,5,1,18,42,39.974,0.846,-0.0926,0.4724,-0.2287
-0.081,0.018,-0.071,-11.7,-18,5.4,1023,2018,5,1,18,42,39.994,0.8447,-0.0954,0.4748,-0.2277
-0.088,0.094,-0.131,-9.9,-24.3,9.7,1023,2018,5,1,18,42,40.031,0.8429,-0.0987,0.4775,-0.2271
-0.1,0.162,-0.157,-4.2,-39.3,18.6,1023,2018,5,1,18,42,40.05,0.8412,-0.1035,0.4801,-0.2258
-0.125,0.19,-0.206,1.2,-56.3,33.1,1023,2018,5,1,18,42,40.054,0.8392,-0.1127,0.4817,-0.2253
-0.146,0.2,-0.269,8.6,-57,51,0,2018,5,1,18,42,40.092,0.8369,-0.1248,0.4825,-0.2259
-0.157,0.22,-0.255,21,-39.4,70.1,0,2018,5,1,18,42,40.115,0.8346,-0.1375,0.4809,-0.2303
-0.171,0.245,-0.237,36.9,-27.1,92.2,0,2018,5,1,18,42,40.119,0.8329,-0.1502,0.476,-0.2387
-0.174,0.206,-0.227,55.5,-27.4,114.1,0,2018,5,1,18,42,40.138,0.8315,-0.1645,0.4676,-0.2504
-0.14,0.26,-0.19,75.2,-63.1,130.2,0,2018,5,1,18,42,40.157,0.83,-0.1833,0.4566,-0.2623
-0.13,0.141,-0.234,92.6,-110.1,141.8,0,2018,5,1,18,42,40.177,0.8272,-0.2108,0.444,-0.2719
-0.152,-0.156,-0.253,107.9,-107.9,144.7,0,2018,5,1,18,42,40.197,0.8236,-0.2431,0.4292,-0.2797
-0.195,-0.263,-0.011,112.9,-67.1,140.9,0,2018,5,1,18,42,40.215,0.8209,-0.2714,0.4111,-0.2884
-0.145,-0.244,0.094,105.9,-16.1,131.6,0,2018,5,1,18,42,40.237,0.8197,-0.2924,0.3908,-0.2994
-0.114,-0.079,0.114,96.1,32.6,125.2,0,2018,5,1,18,42,40.255,0.8203,-0.3046,0.3692,-0.3129
-0.081,0.133,0.107,87.6,56.8,125.5,0,2018,5,1,18,42,40.296,0.8216,-0.3107,0.3467,-0.3286
-0.011,0.295,0.134,79,73.9,134.1,0,2018,5,1,18,42,40.314,0.8227,-0.3135,0.3239,-0.3462
-0.006,0.334,0.184,69.6,78.1,145,0,2018,5,1,18,42,40.319,0.8223,-0.3146,0.3008,-0.3663
0.022,0.109,0.193,61,101.1,149,0,2018,5,1,18,42,40.339,0.8207,-0.3138,0.2776,-0.3882
0.108,0.078,0.107,55.3,168.7,146.8,0,2018,5,1,18,42,40.358,0.8205,-0.3051,0.2518,-0.4124
0.108,0.341,-0.062,61.4,220.1,148.3,0,2018,5,1,18,42,40.38,0.8223,-0.2868,0.2211,-0.4387
0.025,0.451,0.088,69.5,199.7,153.2,0,2018,5,1,18,42,40.395,0.8231,-0.2666,0.1871,-0.4651
0.039,0.37,0.194,68.1,147.5,152.5,0,2018,5,1,18,42,40.415,0.8201,-0.2524,0.156,-0.4891
0.079,0.17,0.172,63.2,124.2,156.8,0,2018,5,1,18,42,40.434,0.814,-0.2431,0.1285,-0.5115
0.054,0.049,-0.073,65,161.4,157.6,0,2018,5,1,18,42,40.474,0.8069,-0.2317,0.1006,-0.5338
0.001,0.13,-0.076,74.9,200.4,154.9,0,2018,5,1,18,42,40.495,0.8005,-0.2142,0.0669,-0.5556
-0.061,0.059,-0.037,85.5,232,147.8,0,2018,5,1,18,42,40.499,0.7938,-0.1933,0.0282,-0.5758
-0.085,0.118,-0.015,100.4,245.4,138.6,0,2018,5,1,18,42,40.518,0.787,-0.1692,-0.0146,-0.593
-0.103,0.238,0.071,110.3,190.9,130.4,0,2018,5,1,18,42,40.539,0.7786,-0.1489,-0.0559,-0.607
-0.068,0.289,-0.279,126.9,119.6,126.6,1023,2018,5,1,18,42,40.577,0.7671,-0.1394,-0.091,-0.6194
-0.27,-0.358,0.43,122.8,19.2,98.2,1023,2018,5,1,18,42,40.597,0.7541,-0.143,-0.1179,-0.6299
-0.068,0.094,0.466,110.9,47.8,113,1023,2018,5,1,18,42,40.601,0.7408,-0.1504,-0.1382,-0.6397
-0.092,0.295,0.065,116.5,47.3,111.4,1023,2018,5,1,18,42,40.621,0.7264,-0.1511,-0.1641,-0.6499
-0.797,0.172,0.241,119,-45.9,118.5,1023,2018,5,1,18,42,40.64,0.7098,-0.1626,-0.1811,-0.6609
-0.461,-0.884,1.474,67.6,-96.9,100.9,1023,2018,5,1,18,42,40.658,0.6909,-0.1802,-0.1867,-0.6746
-0.005,-0.588,0.666,22.6,-75.6,60.2,1023,2018,5,1,18,42,40.679,0.6772,-0.1939,-0.1836,-0.6855
0.189,-0.294,0.126,8.9,-8.2,28.5,1023,2018,5,1,18,42,40.699,0.67,-0.1985,-0.1827,-0.6915
0.132,0.19,0,8.2,0.6,12.6,1023,2018,5,1,18,42,40.719,0.6676,-0.1989,-0.1841,-0.6934
-0.031,0.381,-0.148,19.5,-19.3,23.4,1023,2018,5,1,18,42,40.739,0.6647,-0.201,-0.1851,-0.6952
-0.086,0.327,-0.153,29.2,-60.1,43.2,1023,2018,5,1,18,42,40.777,0.6583,-0.2078,-0.1844,-0.6995
-0.081,0.2,-0.198,31.8,-75.9,58.9,1023,2018,5,1,18,42,40.797,0.6481,-0.2181,-0.1812,-0.7067
-0.111,0.116,-0.298,35.7,-54.8,63,1023,2018,5,1,18,42,40.801,0.6365,-0.2282,-0.1793,-0.7145
-0.164,0.085,-0.372,45,-22.9,56.6,1023,2018,5,1,18,42,40.819,0.626,-0.2356,-0.1815,-0.7207
-0.254,0.027,-0.234,48.7,-5.5,45.7,1023,2018,5,1,18,42,40.84,0.6176,-0.2414,-0.1872,-0.7246
-0.256,0.077,-0.149,46.1,-10.7,38.1,1023,2018,5,1,18,42,40.862,0.6104,-0.2468,-0.1935,-0.7273
-0.24,0.048,-0.106,40,-27,32.5,1023,2018,5,1,18,42,40.883,0.6036,-0.2532,-0.1971,-0.7298
-0.283,0.033,0.008,29.1,-35.3,25.5,1023,2018,5,1,18,42,40.903,0.5973,-0.2599,-0.1981,-0.7323
-0.193,-0.154,0.244,6.5,-61.3,12.6,0,2018,5,1,18,42,40.942,0.5919,-0.2671,-0.1945,-0.7351
-0.094,-0.202,0.213,-7.6,-51.9,2.4,0,2018,5,1,18,42,40.962,0.5882,-0.2729,-0.1871,-0.7378
-0.059,-0.101,0.063,-12.4,-26.5,-6.4,0,2018,5,1,18,42,40.966,0.5871,-0.2758,-0.1806,-0.7392
-0.132,-0.006,0.047,-14.8,-18.2,-10.5,0,2018,5,1,18,42,40.982,0.5877,-0.2769,-0.1761,-0.7394
-0.083,0.14,0.053,-19.1,-40.9,-12,0,2018,5,1,18,42,41.019,0.5882,-0.278,-0.1709,-0.7399
-0.034,0.204,0.03,-21.4,-94.3,-11.6,0,2018,5,1,18,42,41.04,0.5869,-0.2827,-0.1597,-0.7416
-0.052,0.178,0.032,-23.2,-148.8,-11.8,0,2018,5,1,18,42,41.042,0.5827,-0.2928,-0.1408,-0.7448
-0.082,0.147,-0.01,-27.4,-187.3,-14.2,0,2018,5,1,18,42,41.081,0.5758,-0.3072,-0.1155,-0.7487
-0.061,0.137,-0.113,-28.8,-204.5,-19.7,0,2018,5,1,18,42,41.102,0.5676,-0.3235,-0.0857,-0.7521
-0.04,0.089,-0.182,-24.1,-199.5,-24.1,0,2018,5,1,18,42,41.106,0.5589,-0.3404,-0.0551,-0.754
0.008,0,-0.185,-16.7,-172.3,-25.1,0,2018,5,1,18,42,41.124,0.5508,-0.3562,-0.0271,-0.7542
0.076,-0.087,-0.102,-10.1,-124.4,-25.8,0,2018,5,1,18,42,41.145,0.5447,-0.3688,-0.0048,-0.753
0.095,-0.083,-0.023,-7.6,-66.5,-22.5,0,2018,5,1,18,42,41.164,0.5416,-0.3766,0.0097,-0.7514
0.087,-0.116,-0.018,-7.9,-23.7,-20.4,0,2018,5,1,18,42,41.18,0.5415,-0.3797,0.0173,-0.7498
0.144,-0.079,-0.009,-4.6,0.4,-17.1,0,2018,5,1,18,42,41.219,0.543,-0.38,0.0203,-0.7485
0.141,-0.071,0.017,-0.3,19.1,-10.8,0,2018,5,1,18,42,41.241,0.5454,-0.3787,0.0203,-0.7473
0.115,0.005,0.014,1.8,34.2,-5.3,0,2018,5,1,18,42,41.245,0.5482,-0.376,0.0172,-0.7468
0.091,0.032,0.002,3.7,34.5,-0.2,0,2018,5,1,18,42,41.265,0.551,-0.3724,0.013,-0.7466
0.026,0.044,0.035,4.5,29,5.6,0,2018,5,1,18,42,41.284,0.5527,-0.3693,0.0079,-0.7469
-0.015,0.077,0.053,2.6,11.5,8.5,0,2018,5,1,18,42,41.306,0.5529,-0.3674,0.0039,-0.7477
-0.032,0.066,0.027,0.1,-3.9,8.6,0,2018,5,1,18,42,41.325,0.5516,-0.3671,0.0021,-0.7489
-0.043,0.048,-0.005,-0.9,-8.8,5.2,0,2018,5,1,18,42,41.359,0.5497,-0.3679,0.0018,-0.7498
-0.055,0.059,0.008,-1.7,-11,1.7,0,2018,5,1,18,42,41.379,0.5484,-0.3688,0.0022,-0.7504
-0.068,-0.008,0.014,-3.3,-16.1,-5,1023,2018,5,1,18,42,41.383,0.5473,-0.3702,0.0038,-0.7505
-0.093,0.018,0.012,-4.8,-19.6,-10.7,1023,2018,5,1,18,42,41.403,0.5469,-0.3718,0.0066,-0.75
-0.063,0.014,0.014,-6.2,-29.8,-11.5,1023,2018,5,1,18,42,41.422,0.5461,-0.3739,0.0104,-0.7494
-0.086,0.013,-0.006,-7.3,-31.8,-14.1,1023,2018,5,1,18,42,41.461,0.5453,-0.3765,0.0155,-0.7487
-0.068,0.004,-0.018,-9.2,-34.6,-13.3,1023,2018,5,1,18,42,41.482,0.5443,-0.3791,0.0208,-0.748
-0.06,0.012,-0.016,-11.6,-36.8,-14.1,1023,2018,5,1,18,42,41.487,0.543,-0.3817,0.0268,-0.7474
-0.03,0.012,-0.026,-13.3,-41.3,-14.5,1023,2018,5,1,18,42,41.504,0.5417,-0.3842,0.0334,-0.7468
0.02,-0.026,-0.042,-12.9,-38.7,-16.6,1023,2018,5,1,18,42,41.543,0.5405,-0.3868,0.0409,-0.7459
0.019,0.017,-0.043,-11.8,-29,-17.5,1023,2018,5,1,18,42,41.562,0.54,-0.3888,0.0476,-0.7448
0.016,0.014,-0.033,-9.5,-24.9,-17.7,1023,2018,5,1,18,42,41.567,0.5401,-0.39,0.053,-0.7438
0.012,0.018,-0.034,-6.3,-18.6,-17.3,1023,2018,5,1,18,42,41.587,0.5407,-0.391,0.0577,-0.7425
0.026,0,-0.013,-4.1,-15.8,-17.7,1023,2018,5,1,18,42,41.608,0.5418,-0.3917,0.0616,-0.741
0.006,-0.029,-0.014,-3.1,-9.6,-18.3,1023,2018,5,1,18,42,41.646,0.5432,-0.3923,0.0651,-0.7393
0.044,0.04,-0.037,0,1.8,-17.3,1023,2018,5,1,18,42,41.666,0.5453,-0.3922,0.0672,-0.7376
0.064,0.105,-0.017,4.4,9.2,-13.3,1023,2018,5,1,18,42,41.67,0.548,-0.3912,0.0674,-0.7361
0.092,0.063,0.006,6.6,11.1,-8.7,1023,2018,5,1,18,42,41.69,0.5504,-0.3901,0.0662,-0.7351
0.099,0.017,0.033,8.3,15.6,-3.9,1023,2018,5,1,18,42,41.712,0.5524,-0.389,0.0643,-0.7344
0.075,0.031,0.052,9.3,19,0.2,1023,2018,5,1,18,42,41.727,0.5542,-0.3875,0.0616,-0.734
0.072,0.009,0.037,9.6,12.8,2.8,0,2018,5,1,18,42,41.746,0.5554,-0.3864,0.0588,-0.7339
0.067,-0.002,0.012,10.9,13.4,5.1,0,2018,5,1,18,42,41.766,0.5559,-0.3861,0.0561,-0.7338
0.039,0.001,0.004,11.7,17.5,5.8,0,2018,5,1,18,42,41.788,0.5564,-0.3858,0.0528,-0.7339
0.017,-0.005,-0.043,13.4,24.5,6,0,2018,5,1,18,42,41.808,0.5571,-0.3855,0.0488,-0.7338
-0.001,-0.004,-0.063,14.8,30.1,6.8,0,2018,5,1,18,42,41.847,0.5581,-0.3851,0.0435,-0.7336
-0.01,0.022,-0.04,16.7,31.7,5.3,0,2018,5,1,18,42,41.866,0.5594,-0.3845,0.0375,-0.7332
-0.032,0.037,0.023,15.6,23.7,4.3,0,2018,5,1,18,42,41.871,0.5605,-0.3841,0.0315,-0.7329
-0.052,0.063,0.063,12.2,15.9,3.6,0,2018,5,1,18,42,41.892,0.5611,-0.3838,0.0267,-0.7328
-0.058,0.064,0.057,7.1,9.2,3.4,0,2018,5,1,18,42,41.929,0.5612,-0.3836,0.0231,-0.7329
-0.052,0.059,0.024,2.8,-0.1,4.4,0,2018,5,1,18,42,41.933,0.5608,-0.3835,0.0211,-0.7333
-0.038,0.023,-0.002,0.3,-8.8,4.1,0,2018,5,1,18,42,41.949,0.5598,-0.3842,0.0207,-0.7338
-0.033,0.002,-0.017,-1.7,-11.5,2.9,0,2018,5,1,18,42,41.968,0.5583,-0.3855,0.0217,-0.7342
-0.045,-0.045,-0.033,-2,-3.7,0.4,0,2018,5,1,18,42,41.989,0.5574,-0.3865,0.0228,-0.7343
-0.053,-0.044,-0.026,-1.2,9.3,-2.4,0,2018,5,1,18,42,42.008,0.5574,-0.3867,0.0227,-0.7342
-0.084,-0.006,-0.038,-1.5,19,-7,0,2018,5,1,18,42,42.046,0.5586,-0.3858,0.0209,-0.7338
-0.119,0.005,-0.005,0.1,-0.9,-11.8,0,2018,5,1,18,42,42.066,0.5599,-0.3855,0.0194,-0.7331
-0.138,-0.024,-0.008,-0.3,-8.3,-18.3,0,2018,5,1,18,42,42.07,0.561,-0.3868,0.0208,-0.7315
-0.188,-0.027,0.022,-3.9,-2.1,-25.8,0,2018,5,1,18,42,42.092,0.563,-0.3877,0.0224,-0.7294
-0.17,0.041,0.01,-7.8,4.3,-31,0,2018,5,1,18,42,42.112,0.5663,-0.3872,0.0242,-0.7271
-0.15,0.084,0.01,-8.6,-1.6,-35.3,0,2018,5,1,18,42,42.149,0.5707,-0.3857,0.0269,-0.7243
-0.029,0.078,-0.084,-6.8,3.9,-31.7,0,2018,5,1,18,42,42.153,0.5745,-0.3851,0.03,-0.7215
-0.02,0.156,-0.104,-0.3,-9.4,-28.3,0,2018,5,1,18,42,42.17,0.5781,-0.3846,0.0319,-0.7188
-0.032,-0.068,-0.061,3,-19,-26.6,1023,2018,5,1,18,42,42.19,0.58,-0.3869,0.0356,-0.7158
-0.065,-0.152,0.024,1.3,-3.7,-33.9,1023,2018,5,1,18,42,42.21,0.5831,-0.3888,0.0394,-0.7121
-0.038,-0.094,0.003,-2.6,0.1,-40.8,1023,2018,5,1,18,42,42.247,0.5877,-0.3892,0.0428,-0.7079
0.001,0.014,-0.008,-5.6,2.9,-40.8,1023,2018,5,1,18,42,42.266,0.593,-0.3882,0.0461,-0.7038
0.047,0.147,-0.039,-6.2,-0.1,-35.6,1023,2018,5,1,18,42,42.27,0.5979,-0.3866,0.0489,-0.7004
-0.102,0.09,0.148,-6,-78.2,-43.4,1023,2018,5,1,18,42,42.29,0.6001,-0.3888,0.0553,-0.6967
-0.069,-0.368,0.175,-6.9,-153,-62,1023,2018,5,1,18,42,42.313,0.5983,-0.4004,0.0755,-0.6899
-0.051,-0.316,0.1,-4.9,-156,-73.7,1023,2018,5,1,18,42,42.333,0.5954,-0.4152,0.1006,-0.6803
-0.179,-0.675,0.126,-12.3,-98.1,-93.2,1023,2018,5,1,18,42,42.353,0.5952,-0.4264,0.1235,-0.6696
-0.211,-0.624,0.178,-21,-0.7,-121.7,1023,2018,5,1,18,42,42.373,0.6042,-0.4265,0.1385,-0.6586
-0.258,-0.4,0.276,-29.5,30.4,-149.1,1023,2018,5,1,18,42,42.394,0.6207,-0.4182,0.1491,-0.6461
-0.316,-0.262,0.381,-38.5,-19.8,-173.4,1023,2018,5,1,18,42,42.432,0.6382,-0.4093,0.1634,-0.6311
-0.307,-0.359,0.42,-43.7,-70,-193.9,1023,2018,5,1,18,42,42.453,0.6534,-0.4047,0.1863,-0.6119
-0.356,-0.487,0.356,-49.5,-99.8,-217.6,1023,2018,5,1,18,42,42.457,0.6669,-0.4031,0.2156,-0.5883
-0.402,-0.615,0.326,-55.3,-56.8,-246.9,1023,2018,5,1,18,42,42.472,0.6826,-0.3976,0.2462,-0.5615
-0.246,-0.081,0.209,-53.3,-60.5,-275.1,1023,2018,5,1,18,42,42.508,0.7017,-0.3862,0.2754,-0.5315
0.02,0.398,0.072,-35.1,-129.8,-280.5,1023,2018,5,1,18,42,42.53,0.7182,-0.3796,0.3082,-0.4949
0.115,0.586,0.019,-5.8,-180.1,-271.1,1023,2018,5,1,18,42,42.534,0.7293,-0.3825,0.3426,-0.452
0.083,0.557,0.132,20.4,-167,-252.4,0,2018,5,1,18,42,42.553,0.7376,-0.3894,0.3724,-0.4067
-0.031,0.627,0.276,31.9,-117.3,-227.2,0,2018,5,1,18,42,42.572,0.7458,-0.3936,0.3948,-0.3644
0.007,0.882,0.379,29.8,-55.8,-187.2,0,2018,5,1,18,42,42.612,0.7549,-0.392,0.4102,-0.3286
0.036,0.882,0.265,28.5,-26.2,-143.3,0,2018,5,1,18,42,42.632,0.7637,-0.3863,0.4193,-0.3026
-0.002,0.407,0.06,23.4,15.7,-103.3,0,2018,5,1,18,42,42.636,0.7712,-0.3801,0.4244,-0.2838
-0.047,0.282,-0.068,20.1,55.6,-81.4,0,2018,5,1,18,42,42.672,0.7799,-0.3686,0.4256,-0.2729
-0.056,0.164,-0.116,22.6,60.4,-67.1,0,2018,5,1,18,42,42.674,0.7888,-0.3555,0.4252,-0.2654
-0.04,-0.036,-0.193,28.3,64,-65.7,0,2018,5,1,18,42,42.692,0.7972,-0.3436,0.4233,-0.259
0.019,-0.12,-0.198,34.1,99.7,-69.5,0,2018,5,1,18,42,42.712,0.8074,-0.3286,0.4192,-0.2535
0.015,0.034,-0.079,34.6,132.2,-73.9,0,2018,5,1,18,42,42.752,0.8197,-0.3081,0.4133,-0.2495
0.009,0.22,0.013,26.8,139.3,-70.1,0,2018,5,1,18,42,42.772,0.8324,-0.2837,0.4067,-0.2469
0.008,0.297,-0.017,14.6,118.6,-58.9,0,2018,5,1,18,42,42.776,0.8429,-0.2608,0.4013,-0.2454
-0.006,0.324,-0.08,5.1,93.9,-43.8,0,2018,5,1,18,42,42.798,0.8506,-0.242,0.3977,-0.2441
-0.056,0.144,-0.153,2.4,90.8,-33,0,2018,5,1,18,42,42.817,0.8562,-0.2257,0.3952,-0.2442
-0.055,0.081,-0.199,3.2,96.1,-28.2,0,2018,5,1,18,42,42.837,0.861,-0.2094,0.3929,-0.2455
-0.047,0.177,-0.255,5.3,80.7,-24.8,0,2018,5,1,18,42,42.856,0.8658,-0.194,0.3893,-0.2471
-0.098,0.149,-0.232,5.4,45.9,-22.8,0,2018,5,1,18,42,42.877,0.8694,-0.1828,0.3867,-0.2472
-0.137,0.011,-0.196,4.1,7.4,-25.2,0,2018,5,1,18,42,42.897,0.8714,-0.1774,0.3863,-0.2446
-0.129,-0.032,-0.168,0,-6.7,-29.4,0,2018,5,1,18,42,42.915,0.8728,-0.1757,0.3869,-0.2397
-0.137,-0.05,-0.12,-7.8,-2.3,-34.4,0,2018,5,1,18,42,42.935,0.8738,-0.1742,0.3887,-0.2342
-0.153,-0.034,-0.079,-18.9,7.4,-36.9,0,2018,5,1,18,42,42.955,0.8746,-0.1703,0.3918,-0.2289
-0.121,0.077,-0.037,-29.8,2,-36.8,0,2018,5,1,18,42,42.976,0.8747,-0.1661,0.3959,-0.2245
-0.129,0.123,-0.034,-38.2,-11.8,-33.2,0,2018,5,1,18,42,42.996,0.8739,-0.1629,0.4018,-0.2194
-0.14,0.123,-0.069,-44.4,-12.3,-24.5,1023,2018,5,1,18,42,43.015,0.8722,-0.1605,0.4088,-0.2148
-0.095,0.101,-0.145,-45.3,-16.8,-16.1,1023,2018,5,1,18,42,43.055,0.8696,-0.1588,0.4167,-0.2116
-0.034,0.04,-0.07,-40.2,-19.4,-10.6,1023,2018,5,1,18,42,43.073,0.8663,-0.1591,0.4248,-0.2088
-0.014,-0.02,0.051,-34.9,-18.8,-7.4,1023,2018,5,1,18,42,43.077,0.8634,-0.1599,0.4313,-0.2067
0,-0.007,0.081,-31.3,-14.9,-5.9,1023,2018,5,1,18,42,43.116,0.861,-0.1607,0.4366,-0.2051
-0.007,0.005,0.041,-27.9,-15.9,-3.4,1023,2018,5,1,18,42,43.136,0.8588,-0.1613,0.4413,-0.2037
0.021,0.015,0.035,-23.7,-21.8,-0.6,1023,2018,5,1,18,42,43.14,0.8566,-0.1628,0.4457,-0.2024
0.014,-0.014,0.05,-19.3,-21.4,1.8,1023,2018,5,1,18,42,43.177,0.8545,-0.1652,0.4495,-0.201
0.007,-0.009,0.075,-16.5,-10.6,6,1023,2018,5,1,18,42,43.198,0.8528,-0.1669,0.4522,-0.2003
-0.001,0.042,0.065,-15.4,-4.3,10.4,1023,2018,5,1,18,42,43.202,0.8516,-0.1675,0.4541,-0.201
-0.014,0.007,0.007,-12.6,-1.7,14.4,1023,2018,5,1,18,42,43.218,0.8502,-0.1683,0.4558,-0.2025
-0.02,-0.01,0.027,-8.6,1.9,17.1,1023,2018,5,1,18,42,43.237,0.8489,-0.169,0.4567,-0.2049
-0.023,-0.015,0.105,-5.4,6,19.9,1023,2018,5,1,18,42,43.257,0.8481,-0.1698,0.4564,-0.2084
-0.021,-0.014,0.089,-5.4,7.8,21,1023,2018,5,1,18,42,43.296,0.8476,-0.17,0.4555,-0.2121
0.044,-0.033,0.029,-7.1,9.3,20.8,1023,2018,5,1,18,42,43.315,0.8469,-0.1701,0.4551,-0.2159
0.073,-0.03,-0.008,-7.5,9.3,18.2,1023,2018,5,1,18,42,43.319,0.8457,-0.1699,0.4555,-0.2195
0.058,-0.005,-0.073,-7.8,2.2,13.2,1023,2018,5,1,18,42,43.357,0.8445,-0.1699,0.4566,-0.222
0.039,-0.024,-0.067,-6.5,-6.3,6.6,1023,2018,5,1,18,42,43.376,0.8432,-0.1709,0.4583,-0.223
0.031,-0.022,-0.035,-8.5,-10.7,-0.6,0,2018,5,1,18,42,43.381,0.842,-0.1723,0.4601,-0.2225
0.025,0.019,-0.08,-12.3,-16.2,-8,0,2018,5,1,18,42,43.417,0.8407,-0.1737,0.4628,-0.2206
0.042,0.018,-0.131,-13.2,-16.7,-15.2,0,2018,5,1,18,42,43.439,0.8395,-0.1745,0.4663,-0.2173
0.004,0.057,-0.037,-13.6,-20.2,-21,0,2018,5,1,18,42,43.443,0.8385,-0.1748,0.4699,-0.2128
-0.016,0.089,0.002,-16.8,-25.4,-22.7,0,2018,5,1,18,42,43.459,0.8376,-0.1754,0.4737,-0.2076
-0.02,0.088,0.001,-19.6,-27.1,-20.5,0,2018,5,1,18,42,43.496,0.8363,-0.1761,0.478,-0.2023
-0.02,0.096,-0.018,-19.5,-28.4,-16.9,0,2018,5,1,18,42,43.516,0.8347,-0.1773,0.4824,-0.1975
-0.007,0.084,-0.061,-15,-34.8,-12,0,2018,5,1,18,42,43.52,0.8328,-0.1795,0.4867,-0.1928
-0.02,0.057,-0.079,-8.4,-41.3,-6.7,0,2018,5,1,18,42,43.557,0.8308,-0.1837,0.4905,-0.1878
-0.049,0.04,-0.051,-1,-44,-0.9,0,2018,5,1,18,42,43.577,0.829,-0.1894,0.4931,-0.1834
-0.073,0.04,0,4.7,-40.3,6.6,0,2018,5,1,18,42,43.581,0.8277,-0.196,0.4939,-0.18
-0.094,0.027,0.014,6.9,-33.8,15.7,0,2018,5,1,18,42,43.603,0.8269,-0.2025,0.4933,-0.1782
-0.108,0.046,0.025,8,-32.1,25.2,0,2018,5,1,18,42,43.623,0.8261,-0.2092,0.4918,-0.1781
-0.145,0.034,0.034,7.6,-31.8,35,0,2018,5,1,18,42,43.661,0.8251,-0.2168,0.4896,-0.1795
-0.191,0.023,0.001,8.5,-25.7,44.6,0,2018,5,1,18,42,43.681,0.8238,-0.2249,0.4872,-0.1825
-0.202,0.052,0.038,4.6,-21.5,54.6,0,2018,5,1,18,42,43.685,0.8219,-0.2325,0.4848,-0.1875
-0.156,0.126,-0.005,-1.6,-38.7,65.8,0,2018,5,1,18,42,43.701,0.8189,-0.2418,0.483,-0.1936
-0.058,0.128,-0.111,1.5,-57.9,77.4,0,2018,5,1,18,42,43.721,0.8144,-0.2545,0.4817,-0.1995
-0.01,0.058,-0.203,13.6,-71.1,85.7,0,2018,5,1,18,42,43.76,0.809,-0.271,0.4794,-0.2049
0.007,0,-0.202,28.7,-69.2,88.4,0,2018,5,1,18,42,43.779,0.8042,-0.2891,0.4747,-0.2102
-0.023,0.008,-0.098,37.7,-64.2,90.1,0,2018,5,1,18,42,43.783,0.8,-0.3072,0.4682,-0.2151
-0.076,0.027,-0.04,41.3,-57.2,91.6,0,2018,5,1,18,42,43.803,0.796,-0.3253,0.4601,-0.2208
-0.095,0.431,0.142,37.7,-85.2,104.1,1023,2018,5,1,18,42,43.823,0.7915,-0.3437,0.4512,-0.227
-0.171,0.072,0.244,24.2,-126.2,114.4,1023,2018,5,1,18,42,43.862,0.7824,-0.3694,0.4447,-0.2313
-0.14,-0.067,0.167,6,-64.2,123.8,1023,2018,5,1,18,42,43.884,0.7719,-0.3929,0.4389,-0.2387
-0.114,0.025,-0.012,-0.8,25.4,135.4,1023,2018,5,1,18,42,43.889,0.7653,-0.4051,0.4301,-0.2551
-0.09,0.18,-0.06,4.8,73.2,149.7,1023,2018,5,1,18,42,43.907,0.7626,-0.4086,0.4169,-0.2784
-0.046,0.218,-0.057,14.6,92,161.9,1023,2018,5,1,18,42,43.923,0.7613,-0.4092,0.4002,-0.3044
-0.003,0.213,-0.006,25,133.4,170.5,1023,2018,5,1,18,42,43.943,0.7618,-0.4062,0.3793,-0.3326
0.035,0.283,-0.03,35.2,180.4,180,1023,2018,5,1,18,42,43.962,0.7642,-0.3981,0.3533,-0.3639
0.019,0.151,-0.021,44.8,223.1,184.5,1023,2018,5,1,18,42,43.982,0.7687,-0.3839,0.3217,-0.3976
0.107,0.152,-0.004,57.5,258.1,176.2,1023,2018,5,1,18,42,44.003,0.7743,-0.3642,0.2855,-0.4314
0.197,0.423,0.038,69.5,250.9,169.3,1023,2018,5,1,18,42,44.043,0.7798,-0.3418,0.2458,-0.463
0.184,0.771,0.118,70.9,161.8,179.9,1023,2018,5,1,18,42,44.062,0.7804,-0.3262,0.2087,-0.4908
0.027,0.339,0.195,62.6,55.7,188.6,1023,2018,5,1,18,42,44.066,0.772,-0.3245,0.1798,-0.5159
-0.018,-0.262,0.18,41.2,54.2,179.2,1023,2018,5,1,18,42,44.085,0.759,-0.3289,0.1582,-0.539
0.069,-0.369,0.021,24.2,145.2,168.3,1023,2018,5,1,18,42,44.106,0.7489,-0.3234,0.1348,-0.5623
0.174,-0.028,-0.033,20.7,212.6,168.9,1023,2018,5,1,18,42,44.144,0.7429,-0.3046,0.104,-0.5868
0.082,-0.12,0.278,14.2,216,173.4,1023,2018,5,1,18,42,44.161,0.7362,-0.2811,0.07,-0.6114
-0.155,-0.249,0.402,4.8,215.5,160.5,1023,2018,5,1,18,42,44.164,0.7283,-0.2563,0.0382,-0.6343
-0.069,0.026,0.23,14.2,142.9,146,0,2018,5,1,18,42,44.188,0.7191,-0.2339,0.009,-0.6542
-0.096,0.063,0.039,30.2,1.4,132.4,0,2018,5,1,18,42,44.207,0.7055,-0.2277,-0.0083,-0.6709
-0.122,0.009,-0.022,46.5,-92.3,121.2,0,2018,5,1,18,42,44.222,0.6879,-0.2394,-0.0128,-0.685
-0.304,-0.001,-0.013,61.1,-165.8,101.7,0,2018,5,1,18,42,44.26,0.6686,-0.2614,-0.009,-0.696
-0.153,-0.152,-0.038,70.1,-140.1,109,0,2018,5,1,18,42,44.281,0.6476,-0.288,-0.0016,-0.7054
-0.196,0.07,-0.111,75.3,-45.4,114.7,0,2018,5,1,18,42,44.286,0.6287,-0.3076,-0.004,-0.7141
-0.247,0.142,-0.141,84.8,-13.6,115.7,0,2018,5,1,18,42,44.324,0.6128,-0.3202,-0.0162,-0.7221
-0.452,-0.547,0.521,76,1.8,108.2,0,2018,5,1,18,42,44.346,0.5976,-0.3309,-0.032,-0.7295
-0.039,-0.543,0.893,38.1,62.8,68.5,0,2018,5,1,18,42,44.35,0.5878,-0.333,-0.0475,-0.7356
-0.132,-0.149,0.196,19.3,40,41.3,0,2018,5,1,18,42,44.369,0.5837,-0.3306,-0.0596,-0.7391
-0.139,0.169,-0.155,20.1,10.3,28.6,0,2018,5,1,18,42,44.39,0.5804,-0.3305,-0.0671,-0.7411
-0.147,0.233,-0.186,23.9,-28.2,22.7,0,2018,5,1,18,42,44.428,0.5762,-0.3342,-0.0698,-0.7425
-0.223,0.115,-0.161,22.4,-41.6,20.1,0,2018,5,1,18,42,44.448,0.5707,-0.341,-0.0684,-0.7438
-0.256,0.084,-0.147,16.2,-21.3,20.7,0,2018,5,1,18,42,44.452,0.5657,-0.3466,-0.0676,-0.7451
-0.262,0.056,-0.125,8.6,-18.5,14.6,0,2018,5,1,18,42,44.466,0.562,-0.3497,-0.0676,-0.7464
-0.26,-0.066,-0.083,0.6,-19.7,0.2,0,2018,5,1,18,42,44.487,0.5594,-0.3525,-0.066,-0.7472
-0.176,-0.047,-0.081,-4.6,5.6,-12.7,0,2018,5,1,18,42,44.507,0.5596,-0.3532,-0.0645,-0.7469
-0.142,-0.027,-0.07,-8.7,30.7,-23.1,0,2018,5,1,18,42,44.543,0.5629,-0.3508,-0.0655,-0.7454
-0.047,0.008,0.022,-15.1,45.4,-30.3,0,2018,5,1,18,42,44.562,0.5687,-0.3464,-0.0682,-0.7428
-0.01,0.045,0.078,-20.4,45.4,-31.8,0,2018,5,1,18,42,44.568,0.5756,-0.3397,-0.0711,-0.7403
-0.036,0.087,0.079,-24,31.5,-25.5,0,2018,5,1,18,42,44.589,0.5816,-0.3328,-0.0727,-0.7386
0.024,0.122,0.063,-25.6,1.9,-15.6,1023,2018,5,1,18,42,44.611,0.5855,-0.3281,-0.0712,-0.7378
0.051,0.117,0.018,-23.1,-22.3,-7.3,1023,2018,5,1,18,42,44.648,0.5863,-0.3264,-0.0669,-0.7382
0.151,0.053,0.001,-19.3,-32.2,-2.7,1023,2018,5,1,18,42,44.669,0.5853,-0.3261,-0.061,-0.7397
0.082,0.056,0.048,-14.7,-30.7,-2.3,1023,2018,5,1,18,42,44.673,0.5842,-0.3262,-0.0549,-0.741
0.071,0.02,0.045,-11.6,-32.5,-3.4,1023,2018,5,1,18,42,44.69,0.5829,-0.327,-0.0491,-0.7421
0.053,0.011,0.014,-8.3,-31.7,-2.6,1023,2018,5,1,18,42,44.71,0.5817,-0.3285,-0.0434,-0.7427
0.034,-0.009,-0.02,-4.3,-27.6,0,1023,2018,5,1,18,42,44.729,0.5803,-0.3305,-0.0386,-0.7432
0.014,0.036,-0.031,-0.4,-23.6,3.3,1023,2018,5,1,18,42,44.75,0.5787,-0.3327,-0.0351,-0.7437
0.015,-0.004,-0.034,2.5,-22,4.9,1023,2018,5,1,18,42,44.769,0.5764,-0.3355,-0.0328,-0.7443
-0.035,0.027,0.017,2.5,-18.2,5.5,1023,2018,5,1,18,42,44.79,0.5743,-0.338,-0.0311,-0.7448
-0.039,0.053,0.005,0.9,-32.6,8.9,1023,2018,5,1,18,42,44.81,0.5718,-0.3406,-0.0291,-0.7457
-0.047,0.079,0.046,-4.2,-44,9.3,1023,2018,5,1,18,42,44.831,0.5681,-0.3439,-0.0252,-0.7471
-0.032,0.033,-0.006,-7.8,-55.3,9.1,1023,2018,5,1,18,42,44.851,0.5635,-0.348,-0.0193,-0.7489
-0.028,-0.013,-0.036,-7.8,-52.7,6.5,1023,2018,5,1,18,42,44.872,0.5587,-0.3529,-0.0121,-0.7504
-0.006,-0.002,-0.059,-4.1,-41.7,3.2,1023,2018,5,1,18,42,44.891,0.5549,-0.3573,-0.0057,-0.7511
-0.009,0.002,-0.061,-2.3,-26.7,0.5,1023,2018,5,1,18,42,44.912,0.5523,-0.3608,-0.0011,-0.7514
-0.018,-0.032,-0.023,-0.1,-13.4,-2.5,0,2018,5,1,18,42,44.949,0.5508,-0.3631,0.0013,-0.7514
-0.007,-0.028,0.015,0.4,-5.7,-5.4,0,2018,5,1,18,42,44.969,0.5506,-0.3643,0.0028,-0.751
-0.007,-0.013,0.019,0.6,-5.4,-7,0,2018,5,1,18,42,44.973,0.5511,-0.3649,0.0039,-0.7503
0.006,-0.001,0.011,-0.2,-7.9,-8.3,0,2018,5,1,18,42,44.993,0.5515,-0.3657,0.0053,-0.7496
-0.007,-0.041,-0.027,-0.6,-3,-8.6,0,2018,5,1,18,42,45.013,0.5521,-0.3664,0.0067,-0.7488
0.014,0.053,-0.032,0.1,2.3,-7.7,0,2018,5,1,18,42,45.031,0.5531,-0.3665,0.0071,-0.748
-0.005,0.018,-0.043,1.8,3,-5.4,0,2018,5,1,18,42,45.054,0.5539,-0.3666,0.0068,-0.7474
-0.004,0.039,-0.001,0.7,14.5,-3.9,0,2018,5,1,18,42,45.072,0.5549,-0.366,0.0055,-0.747
0.03,0.028,-0.044,1.4,15.9,-1.7,0,2018,5,1,18,42,45.091,0.556,-0.3647,0.0031,-0.7468
0.001,-0.005,-0.016,1.5,21.5,-1.8,0,2018,5,1,18,42,45.132,0.5571,-0.3633,0.0006,-0.7466
0.017,-0.028,0.01,1.8,27.5,-3.4,0,2018,5,1,18,42,45.153,0.559,-0.3612,-0.0023,-0.7462
0.01,-0.02,0.006,3.4,32.9,-3.1,0,2018,5,1,18,42,45.157,0.5614,-0.3586,-0.006,-0.7457
0,0.01,-0.005,5.7,35.9,-2.9,0,2018,5,1,18,42,45.176,0.5636,-0.356,-0.011,-0.7452
-0.015,0.008,0.03,7.2,34.8,-4.3,0,2018,5,1,18,42,45.192,0.5662,-0.3534,-0.0162,-0.7444
-0.014,0.06,0.062,8,25.9,-4.8,0,2018,5,1,18,42,45.212,0.5685,-0.351,-0.0211,-0.7436
-0.023,0.106,0.069,7,5.6,-3.3,0,2018,5,1,18,42,45.231,0.5695,-0.35,-0.0246,-0.7432
-0.039,0.101,0.078,5.6,-20.3,-3.1,0,2018,5,1,18,42,45.271,0.569,-0.3511,-0.0251,-0.743
-0.152,0.056,0.082,2.1,-47.3,-6.2,0,2018,5,1,18,42,45.292,0.5672,-0.3546,-0.0216,-0.7429
-0.161,0.002,0.03,-0.7,-86.8,-9.7,0,2018,5,1,18,42,45.296,0.5635,-0.3619,-0.0129,-0.7424
-0.191,-0.011,-0.02,-3.2,-110,-19.2,0,2018,5,1,18,42,45.312,0.5586,-0.3718,0.0007,-0.7413
-0.171,-0.092,-0.069,-6.8,-110.6,-29.5,0,2018,5,1,18,42,45.353,0.5543,-0.3821,0.0174,-0.7391
-0.219,-0.155,-0.08,-9.6,-90.2,-41,0,2018,5,1,18,42,45.357,0.5517,-0.3908,0.0334,-0.7359
-0.23,-0.169,-0.078,-13.1,-54.1,-52.5,0,2018,5,1,18,42,45.375,0.5524,-0.3962,0.0471,-0.7317
-0.2,-0.162,-0.101,-14.2,5.1,-63.3,1023,2018,5,1,18,42,45.416,0.558,-0.3962,0.0554,-0.7269
-0.161,-0.06,-0.148,-11.5,36.7,-69.2,1023,2018,5,1,18,42,45.42,0.5677,-0.3916,0.0579,-0.7217
-0.158,0.032,-0.062,-4.3,24.8,-75.5,1023,2018,5,1,18,42,45.434,0.579,-0.3863,0.0592,-0.7155
-0.123,-0.415,-0.063,-3.9,46.6,-84.4,1023,2018,5,1,18,42,45.453,0.5904,-0.3825,0.0616,-0.7079
-0.109,-0.234,0.031,-4.3,111.8,-96.3,1023,2018,5,1,18,42,45.492,0.6072,-0.3721,0.0575,-0.6996
-0.143,-0.046,0.106,-7.1,91.3,-106.4,1023,2018,5,1,18,42,45.512,0.626,-0.3595,0.0515,-0.69
-0.119,0.045,0.106,-10.3,24.2,-115.5,1023,2018,5,1,18,42,45.516,0.6426,-0.3511,0.0517,-0.6789
-0.045,0.008,0.112,-8.7,-43.5,-122,1023,2018,5,1,18,42,45.535,0.6556,-0.3499,0.0609,-0.6662
-0.075,-0.072,0.21,-9.6,-86.1,-128.4,1023,2018,5,1,18,42,45.555,0.6659,-0.3547,0.0772,-0.6517
-0.061,-0.104,0.212,-13.5,-113.3,-133.8,1023,2018,5,1,18,42,45.595,0.6742,-0.3627,0.0978,-0.6357
-0.018,-0.114,0.224,-15.7,-142.6,-139.1,1023,2018,5,1,18,42,45.614,0.6808,-0.3729,0.1221,-0.6183
0.08,-0.061,0.239,-18.4,-187.2,-148.3,1023,2018,5,1,18,42,45.618,0.6848,-0.3872,0.1516,-0.5983
0.169,-0.262,0.274,-18.1,-191,-157.8,1023,2018,5,1,18,42,45.655,0.6864,-0.4039,0.184,-0.5759
0.105,-0.343,0.334,-20.2,-177.3,-173.5,1023,2018,5,1,18,42,45.676,0.6888,-0.4184,0.2162,-0.551
0.121,-0.35,0.314,-23.6,-173.8,-193.6,1023,2018,5,1,18,42,45.68,0.6919,-0.43,0.2488,-0.5237
0.103,-0.535,0.267,-23.2,-151.3,-222,1023,2018,5,1,18,42,45.699,0.6968,-0.4379,0.2827,-0.4925
-0.007,-0.556,0.305,-23.7,-85.7,-255.2,1023,2018,5,1,18,42,45.719,0.7064,-0.438,0.3141,-0.4586
-0.1,-0.219,0.239,-29.5,-18.9,-276.1,0,2018,5,1,18,42,45.735,0.7218,-0.4265,0.3409,-0.425
-0.235,0.019,0.146,-35.1,15.8,-291.9,0,2018,5,1,18,42,45.777,0.7399,-0.4066,0.3657,-0.3914
-0.319,0.189,0.071,-40.6,22.4,-293.1,0,2018,5,1,18,42,45.796,0.7579,-0.3819,0.3895,-0.3575
-0.369,0.459,-0.012,-42.9,5.3,-284.6,0,2018,5,1,18,42,45.801,0.773,-0.3574,0.4131,-0.3224
-0.353,0.45,-0.2,-34,-8.2,-265.2,0,2018,5,1,18,42,45.82,0.7845,-0.3352,0.4351,-0.2876
-0.297,0.597,-0.308,-17.2,-18.2,-235.6,0,2018,5,1,18,42,45.84,0.7935,-0.3164,0.4535,-0.2537
-0.278,0.521,-0.31,4.4,-21,-201.4,0,2018,5,1,18,42,45.86,0.8009,-0.3018,0.4671,-0.2218
-0.234,0.503,-0.197,18.6,0.9,-161.9,0,2018,5,1,18,42,45.899,0.808,-0.2888,0.475,-0.1948
-0.211,0.462,-0.204,24.2,28.9,-120,0,2018,5,1,18,42,45.918,0.8151,-0.2756,0.4783,-0.1751
-0.118,0.607,-0.299,28.9,50.7,-81.5,0,2018,5,1,18,42,45.922,0.8224,-0.2618,0.478,-0.1628
-0.114,0.537,-0.213,32.6,37.8,-44.8,0,2018,5,1,18,42,45.959,0.8289,-0.2505,0.4749,-0.1561
-0.141,0.358,-0.063,32.3,-4.6,-21.6,0,2018,5,1,18,42,45.963,0.8334,-0.2463,0.471,-0.1509
-0.157,0.047,-0.059,27,-33.2,-7.8,0,2018,5,1,18,42,45.979,0.8354,-0.249,0.4677,-0.1454
-0.134,-0.174,-0.108,20.3,-25.1,-7.4,0,2018,5,1,18,42,45.999,0.8362,-0.2536,0.4652,-0.1407
-0.094,-0.105,-0.124,13.9,-21.4,-14.1,0,2018,5,1,18,42,46.019,0.837,-0.2562,0.4637,-0.1365
-0.072,-0.034,-0.155,12.6,-37.6,-21.9,0,2018,5,1,18,42,46.055,0.8373,-0.2591,0.4633,-0.1305
-0.058,-0.083,-0.098,13.9,-61,-28.4,0,2018,5,1,18,42,46.075,0.8367,-0.2645,0.4636,-0.1218
-0.071,-0.073,0.012,10.4,-63.3,-30.1,0,2018,5,1,18,42,46.079,0.8353,-0.2723,0.4642,-0.1119
-0.072,-0.096,0.045,3.3,-35.4,-30.5,0,2018,5,1,18,42,46.1,0.8341,-0.2776,0.4653,-0.1029
-0.066,-0.077,0.021,-1.5,5.5,-28.3,0,2018,5,1,18,42,46.121,0.8342,-0.2775,0.4662,-0.0976
-0.056,0.091,0.041,-3.8,24.8,-23.4,0,2018,5,1,18,42,46.16,0.8357,-0.2724,0.467,-0.0951
-0.066,0.122,0.038,-5.5,19.3,-16.1,1023,2018,5,1,18,42,46.181,0.8374,-0.2665,0.4678,-0.0937
-0.062,0.078,0.022,-8.6,15,-7.3,1023,2018,5,1,18,42,46.185,0.838,-0.2627,0.4689,-0.0931
-0.029,0.053,0,-11.7,24.3,-1.6,1023,2018,5,1,18,42,46.201,0.8384,-0.2591,0.4701,-0.0941
-0.026,0.032,-0.011,-13.5,42.5,3,1023,2018,5,1,18,42,46.221,0.839,-0.2536,0.4713,-0.0972
-0.036,0.108,0.005,-14.3,38.1,6.5,1023,2018,5,1,18,42,46.239,0.8399,-0.2469,0.4724,-0.1015
-0.087,0.043,-0.025,-16.2,28,10.7,1023,2018,5,1,18,42,46.279,0.8401,-0.2422,0.4735,-0.1057
-0.055,0.012,-0.021,-16.6,30.4,14,1023,2018,5,1,18,42,46.301,0.8398,-0.2388,0.4747,-0.1103
-0.053,-0.04,0.001,-17.7,36.4,16.8,1023,2018,5,1,18,42,46.305,0.8396,-0.2349,0.4757,-0.1159
-0.029,0.023,0.004,-19.5,30.6,18.5,1023,2018,5,1,18,42,46.321,0.8392,-0.231,0.4767,-0.1222
-0.006,0.012,-0.027,-19.6,21.7,21.7,1023,2018,5,1,18,42,46.343,0.8382,-0.2284,0.4783,-0.1279
-0.001,-0.01,-0.062,-19.3,26.7,22.2,1023,2018,5,1,18,42,46.363,0.8368,-0.2266,0.48,-0.1338
0,0.018,-0.103,-17.1,24.7,23.8,1023,2018,5,1,18,42,46.383,0.8355,-0.2241,0.4817,-0.1394
0.003,0.079,-0.091,-12.8,10.3,25.5,1023,2018,5,1,18,42,46.404,0.834,-0.2233,0.4833,-0.1445
0.006,0.019,-0.069,-8.9,13.6,28.8,1023,2018,5,1,18,42,46.424,0.8325,-0.2236,0.4843,-0.1493
0.023,0.075,0.001,-8.9,7,30.3,1023,2018,5,1,18,42,46.445,0.8315,-0.2236,0.4844,-0.1541
0.068,-0.041,0.002,-10.7,10,29.7,1023,2018,5,1,18,42,46.466,0.8302,-0.2245,0.4846,-0.1591
0.058,-0.001,0.002,-12.8,11.8,25.6,1023,2018,5,1,18,42,46.485,0.8289,-0.2245,0.4852,-0.1641
0.062,0.012,0.031,-14.7,3.4,19.3,0,2018,5,1,18,42,46.504,0.8275,-0.2246,0.4863,-0.168
0.052,-0.04,0.052,-17.4,-4,12.8,0,2018,5,1,18,42,46.524,0.8259,-0.2251,0.488,-0.1701
0.025,-0.062,0.044,-19.7,-1,5.5,0,2018,5,1,18,42,46.544,0.824,-0.2259,0.4902,-0.1719
0.014,-0.07,0.001,-20.3,4.6,-1.7,0,2018,5,1,18,42,46.581,0.8223,-0.2253,0.4928,-0.1731
0.031,0.04,-0.008,-18.5,8.6,-4.4,0,2018,5,1,18,42,46.601,0.8209,-0.2234,0.4958,-0.1736
-0.002,0.026,0.02,-17.8,6.1,-7.9,0,2018,5,1,18,42,46.605,0.8199,-0.2212,0.4985,-0.1739
-0.006,0.024,0.034,-19.3,8.1,-9.4,0,2018,5,1,18,42,46.643,0.8191,-0.2185,0.501,-0.1738
0.009,0.017,0.003,-20.6,13.6,-11.6,0,2018,5,1,18,42,46.663,0.8182,-0.2153,0.5038,-0.1737
0.015,0.042,-0.027,-20.9,14.2,-12.7,0,2018,5,1,18,42,46.667,0.8174,-0.2112,0.5069,-0.1737
0.009,0.066,-0.016,-20.7,7.8,-11.6,0,2018,5,1,18,42,46.686,0.8163,-0.2075,0.5104,-0.1729
-0.01,-0.013,-0.022,-21.1,5.9,-10.6,0,2018,5,1,18,42,46.702,0.815,-0.2049,0.5137,-0.1723
-0.037,0.011,-0.021,-22.1,2.5,-7.2,0,2018,5,1,18,42,46.741,0.8134,-0.2029,0.5171,-0.172
-0.059,-0.023,-0.019,-23.4,11.5,-2.9,0,2018,5,1,18,42,46.761,0.8117,-0.2011,0.5203,-0.1726
-0.088,0.016,-0.002,-24,16.7,4.4,0,2018,5,1,18,42,46.765,0.8101,-0.1987,0.523,-0.1747
-0.103,-0.002,-0.032,-24.2,17.9,12.3,0,2018,5,1,18,42,46.804,0.8084,-0.1966,0.5253,-0.1782
-0.096,0.05,-0.046,-23.2,13.6,22.1,0,2018,5,1,18,42,46.824,0.8061,-0.1955,0.5275,-0.1832
-0.074,0.018,-0.044,-22.2,10.5,31,0,2018,5,1,18,42,46.828,0.8034,-0.1959,0.5295,-0.1886
-0.063,-0.001,-0.035,-21.9,16.4,38.9,0,2018,5,1,18,42,46.845,0.8006,-0.1968,0.531,-0.1952
-0.074,0.009,-0.031,-22.3,22.9,43.8,0,2018,5,1,18,42,46.882,0.7978,-0.1974,0.5319,-0.2036
-0.078,0.002,-0.061,-20.9,25.1,47.5,0,2018,5,1,18,42,46.902,0.7948,-0.1979,0.5325,-0.2129
-0.064,0.011,-0.054,-18.3,27.5,49.8,0,2018,5,1,18,42,46.908,0.7919,-0.1984,0.5327,-0.2227
-0.05,0.024,-0.042,-16.4,20.8,52.4,0,2018,5,1,18,42,46.925,0.7889,-0.1994,0.5324,-0.2327
-0.043,-0.006,-0.057,-15.1,16.3,54,0,2018,5,1,18,42,46.946,0.7858,-0.2014,0.5322,-0.2421
-0.031,-0.077,-0.094,-14,12.8,52.1,1023,2018,5,1,18,42,46.983,0.7824,-0.2043,0.5319,-0.2511
0.041,-0.104,-0.102,-12.2,16.5,47.1,1023,2018,5,1,18,42,47.003,0.7796,-0.2062,0.5313,-0.2594
0.056,-0.061,-0.078,-11.2,13.6,40,1023,2018,5,1,18,42,47.007,0.777,-0.2076,0.5309,-0.2668
0.073,-0.113,-0.094,-10,4.1,32.1,1023,2018,5,1,18,42,47.026,0.7742,-0.2097,0.5313,-0.2723
0.086,-0.142,-0.075,-6.4,2.1,21.9,1023,2018,5,1,18,42,47.045,0.7723,-0.2115,0.5315,-0.2759
0.067,-0.166,-0.04,-2.8,10.7,11.9,1023,2018,5,1,18,42,47.083,0.7711,-0.2123,0.5314,-0.2788
0.057,-0.071,0.007,-1.4,9.6,3.4,1023,2018,5,1,18,42,47.104,0.7707,-0.2118,0.5311,-0.2809
0.055,-0.027,-0.006,1,-8.2,-1.5,1023,2018,5,1,18,42,47.108,0.7707,-0.2117,0.5313,-0.2807
0.063,-0.023,-0.052,5.1,-24.4,-4.7,1023,2018,5,1,18,42,47.126,0.7704,-0.2138,0.5323,-0.278
0.019,-0.031,-0.006,9.3,-34,-7,1023,2018,5,1,18,42,47.145,0.7702,-0.2178,0.5332,-0.2737
0.014,0.064,-0.013,15.2,-48.9,-6.1,1023,2018,5,1,18,42,47.181,0.7702,-0.223,0.5339,-0.268
0.006,0.146,-0.037,20.5,-67.5,-1.1,1023,2018,5,1,18,42,47.203,0.77,-0.2307,0.5347,-0.2604
-0.034,0.191,0.072,24,-70.1,8.6,1023,2018,5,1,18,42,47.21,0.7693,-0.2407,0.5349,-0.253
-0.118,-0.256,0.368,7.9,-17.6,13.4,1023,2018,5,1,18,42,47.226,0.768,-0.25,0.5345,-0.2484
-0.008,0.418,0.339,-7.4,-4.9,24.7,1023,2018,5,1,18,42,47.248,0.7673,-0.251,0.5336,-0.2515
-0.007,0.131,0.038,-10.9,-23.1,36.8,1023,2018,5,1,18,42,47.268,0.7643,-0.256,0.5344,-0.254
0.004,0.039,-0.121,-5.7,-20.9,41,1023,2018,5,1,18,42,47.288,0.7606,-0.262,0.5353,-0.257
-0.008,0.046,-0.098,1.3,-19.9,42.6,1023,2018,5,1,18,42,47.326,0.7572,-0.2686,0.5352,-0.2606
-0.017,0.011,0.013,4.5,-30.5,42.6,0,2018,5,1,18,42,47.344,0.7543,-0.2762,0.5341,-0.2634
-0.045,-0.059,0.075,1.2,-21,40.9,0,2018,5,1,18,42,47.348,0.7515,-0.284,0.5325,-0.2662
-0.054,0.128,0.054,-0.8,-12.2,46.3,0,2018,5,1,18,42,47.388,0.7491,-0.2899,0.5303,-0.2709
-0.058,0.144,-0.026,0.6,-32.8,57.3,0,2018,5,1,18,42,47.409,0.7457,-0.2974,0.5288,-0.2751
-0.064,0.077,-0.045,4.5,-39.5,66.8,0,2018,5,1,18,42,47.413,0.7411,-0.3079,0.527,-0.2793
-0.035,0.025,0.016,3.3,-28.5,71.6,0,2018,5,1,18,42,47.432,0.7361,-0.3192,0.5242,-0.2849
-0.027,0.064,-0.004,-0.2,-15.7,77.4,0,2018,5,1,18,42,47.454,0.7313,-0.329,0.5208,-0.2924
-0.031,0.18,-0.138,0.8,-14,88.2,0,2018,5,1,18,42,47.474,0.7264,-0.3379,0.5169,-0.3014
0.023,0.088,-0.223,8.3,7.3,92.9,0,2018,5,1,18,42,47.491,0.7216,-0.3469,0.5112,-0.3122
0.062,-0.033,-0.067,15.3,13.1,84.7,0,2018,5,1,18,42,47.512,0.7183,-0.3541,0.5039,-0.3233
0.026,0.016,0.071,13,-20.6,83.4,0,2018,5,1,18,42,47.532,0.7146,-0.3627,0.497,-0.3325
-0.001,-0.037,0.019,5.8,2.9,81,0,2018,5,1,18,42,47.552,0.71,-0.3718,0.491,-0.3413
-0.012,0.021,-0.021,5.4,40.3,79.5,0,2018,5,1,18,42,47.572,0.707,-0.3762,0.4836,-0.3529
0.017,0.262,-0.085,12.1,64.7,84.1,0,2018,5,1,18,42,47.609,0.7061,-0.3767,0.4742,-0.3667
0.022,0.653,-0.053,21.7,37.8,101.9,0,2018,5,1,18,42,47.63,0.705,-0.3786,0.4623,-0.3817
0.024,0.402,-0.169,30.7,35.1,122.8,0,2018,5,1,18,42,47.635,0.7013,-0.3859,0.4499,-0.3959
-0.049,-0.029,-0.214,39.3,73.4,131.9,0,2018,5,1,18,42,47.651,0.698,-0.3923,0.4336,-0.4132
0.057,0.024,-0.18,51.7,136.7,129,0,2018,5,1,18,42,47.688,0.699,-0.3923,0.4112,-0.4339
0.13,0.294,-0.112,67.1,197.3,127.5,0,2018,5,1,18,42,47.697,0.7049,-0.3849,0.382,-0.4571
0.136,0.585,-0.001,81.5,192,131.9,0,2018,5,1,18,42,47.709,0.7124,-0.3745,0.3477,-0.4807
0.056,0.513,0.077,90.2,159.8,139.7,0,2018,5,1,18,42,47.745,0.7172,-0.3678,0.3131,-0.5021
-0.051,0.108,0.221,85.3,143.4,140.2,1023,2018,5,1,18,42,47.766,0.7187,-0.3646,0.2799,-0.5216
0.011,-0.151,0.189,72.5,200.7,129,1023,2018,5,1,18,42,47.771,0.7205,-0.3565,0.2452,-0.5417
0.045,-0.166,0.219,62.9,225,110.8,1023,2018,5,1,18,42,47.81,0.725,-0.3398,0.2083,-0.5616
0.154,0.149,0.198,61.4,170.7,97.9,1023,2018,5,1,18,42,47.832,0.7286,-0.3233,0.1742,-0.578
0.117,0.374,0.177,65.7,56.5,98.5,1023,2018,5,1,18,42,47.836,0.7266,-0.3183,0.149,-0.5902
-0.048,-0.071,0.276,57.3,2.5,104.6,1023,2018,5,1,18,42,47.855,0.7184,-0.3252,0.1336,-0.6001
-0.144,-0.632,0.337,32.8,114.7,99.3,1023,2018,5,1,18,42,47.875,0.7112,-0.3264,0.1169,-0.6115
0.058,-0.245,0.13,22.5,241.2,89.5,1023,2018,5,1,18,42,47.911,0.7119,-0.3073,0.0879,-0.6251
0.093,0.285,0.058,28.7,214.9,90.9,1023,2018,5,1,18,42,47.932,0.7148,-0.281,0.0537,-0.638
0,0.244,0.101,37.1,96.4,94.1,1023,2018,5,1,18,42,47.936,0.7119,-0.2664,0.028,-0.6491
-0.241,-0.406,0.201,30.5,66.5,91.2,1023,2018,5,1,18,42,47.957,0.7043,-0.2629,0.0113,-0.6593
-0.295,-0.61,0.36,13.7,164.5,72.4,1023,2018,5,1,18,42,47.977,0.6998,-0.2514,-0.0085,-0.6685
-0.23,-0.293,0.349,-2.2,188.9,54.4,1023,2018,5,1,18,42,47.993,0.7002,-0.2294,-0.0338,-0.6752
-0.061,0.094,0.071,-7.9,145.9,49.9,1023,2018,5,1,18,42,48.032,0.7007,-0.2078,-0.0552,-0.6802
0.029,0.203,-0.133,4.8,49.5,58.8,1023,2018,5,1,18,42,48.052,0.6974,-0.1952,-0.0687,-0.6861
0.01,0.178,-0.239,23.1,-24.5,63.9,1023,2018,5,1,18,42,48.056,0.6898,-0.1952,-0.0737,-0.6931
-0.047,0.211,-0.303,43.5,-72.4,67.2,0,2018,5,1,18,42,48.095,0.6795,-0.2047,-0.074,-0.7005
-0.146,0.251,-0.237,58.7,-123.6,72.9,0,2018,5,1,18,42,48.115,0.6663,-0.222,-0.0709,-0.7082
-0.235,0.178,-0.128,64.1,-174.3,82.2,0,2018,5,1,18,42,48.119,0.6497,-0.2464,-0.0624,-0.7164
-0.454,-0.245,0.226,42.5,-143.9,95.7,0,2018,5,1,18,42,48.154,0.6299,-0.2715,-0.0511,-0.7257
-0.215,-0.356,0.233,12.9,-83.8,76,0,2018,5,1,18,42,48.177,0.6133,-0.2869,-0.0439,-0.7345
-0.166,-0.182,0.065,-3.6,-34.1,53.6,0,2018,5,1,18,42,48.181,0.6022,-0.2922,-0.0411,-0.7417
-0.147,-0.046,-0.119,-6.5,-27.7,39.3,0,2018,5,1,18,42,48.199,0.5946,-0.2943,-0.0393,-0.7471
-0.103,-0.043,-0.251,3,-22.6,27.3,0,2018,5,1,18,42,48.22,0.5889,-0.2969,-0.037,-0.7507
-0.229,-0.042,-0.104,7.3,-4.7,16.6,0,2018,5,1,18,42,48.239,0.585,-0.299,-0.0374,-0.7528
-0.173,-0.079,-0.048,4.4,33.5,3.3,0,2018,5,1,18,42,48.255,0.5843,-0.2984,-0.0406,-0.7535
-0.125,0.027,-0.036,0.7,68.6,-7.7,0,2018,5,1,18,42,48.276,0.5872,-0.2936,-0.0482,-0.7527
-0.087,0.136,-0.018,-0.3,67,-15.2,0,2018,5,1,18,42,48.295,0.5921,-0.2867,-0.0573,-0.7509
-0.029,0.186,0.016,0.4,40,-16,0,2018,5,1,18,42,48.318,0.5966,-0.2815,-0.0637,-0.7487
0.02,0.172,0.109,0.1,13.8,-11.9,0,2018,5,1,18,42,48.336,0.5996,-0.2791,-0.0666,-0.747
0.045,0.128,0.138,-1.7,-11.5,-6.8,0,2018,5,1,18,42,48.374,0.6007,-0.2792,-0.0662,-0.7461
0.068,0.083,0.098,-2.7,-32.1,-1.9,0,2018,5,1,18,42,48.394,0.6001,-0.2814,-0.0628,-0.7461
0.067,0.035,0.064,-1.7,-39.3,0.9,0,2018,5,1,18,42,48.399,0.5982,-0.2844,-0.0578,-0.7468
0.024,0.016,0.03,0,-42.2,1.1,0,2018,5,1,18,42,48.421,0.5959,-0.2881,-0.0526,-0.7476
-0.002,0.05,0.007,1.2,-50.4,2.6,0,2018,5,1,18,42,48.436,0.5933,-0.2927,-0.0469,-0.7483
-0.018,0.042,-0.013,2.1,-55.4,2.9,0,2018,5,1,18,42,48.455,0.5899,-0.2985,-0.0409,-0.7491
-0.023,0.026,-0.012,2.1,-52,1,0,2018,5,1,18,42,48.477,0.5863,-0.3046,-0.0348,-0.7497
-0.029,0.02,-0.027,0.9,-47.3,-1.2,0,2018,5,1,18,42,48.515,0.5832,-0.3103,-0.029,-0.75
-0.05,0.031,-0.019,-0.3,-45.5,-3.1,0,2018,5,1,18,42,48.534,0.5807,-0.3155,-0.0235,-0.7501
-0.038,0.024,-0.028,-0.3,-43.3,-5.7,1023,2018,5,1,18,42,48.539,0.5784,-0.3205,-0.0179,-0.7498
-0.025,0.038,0.007,-1.4,-44.9,-8,1023,2018,5,1,18,42,48.578,0.5766,-0.3251,-0.0121,-0.7494
-0.006,0.041,0.009,-2.7,-48.5,-9.5,1023,2018,5,1,18,42,48.596,0.5746,-0.3297,-0.0059,-0.749
0.027,0.061,0.02,-2.4,-54.8,-9.2,1023,2018,5,1,18,42,48.601,0.5726,-0.3342,0.0009,-0.7485
0.051,0.03,0.009,-0.5,-60.7,-6.3,1023,2018,5,1,18,42,48.619,0.57,-0.3396,0.0088,-0.748
0.052,-0.034,-0.013,0.7,-61.2,-1.3,1023,2018,5,1,18,42,48.639,0.5669,-0.3455,0.0174,-0.7475
0.067,-0.043,-0.027,5.1,-54.6,4.1,1023,2018,5,1,18,42,48.677,0.5634,-0.3516,0.0253,-0.7471
