ax,ay,az,dpitch,droll,dyaw,heart,time_1,time_2,time_3,time_4,time_5,time_6,w,x,y,z
-0.093,0.057,0.002,18.5,31.1,-9.5,1023,2018,4,24,23,8,14.771,0.6818,-0.2382,0.2202,-0.6556
-0.029,0.072,0.005,15.4,18.7,-11.9,0,2018,4,24,23,8,14.774,0.6847,-0.2368,0.215,-0.6547
0.027,0.069,-0.03,14.4,12.3,-13.2,0,2018,4,24,23,8,14.79,0.6874,-0.2358,0.2118,-0.6533
0.025,0.053,-0.05,16.1,11.7,-12.9,0,2018,4,24,23,8,14.812,0.6901,-0.2353,0.2092,-0.6515
0.027,0.049,-0.047,18.4,11.9,-10,0,2018,4,24,23,8,14.83,0.6926,-0.2352,0.2063,-0.6498
0.091,0.018,-0.006,20,14.2,-5.9,0,2018,4,24,23,8,14.853,0.6948,-0.2352,0.2031,-0.6484
0.15,0.009,-0.006,19.6,16.4,-3.9,0,2018,4,24,23,8,14.871,0.6969,-0.2349,0.1996,-0.6475
0.17,0.041,-0.081,21.1,14.5,-1.9,0,2018,4,24,23,8,14.893,0.6986,-0.2351,0.1954,-0.6468
0.172,0.013,-0.116,25,7.9,1.1,0,2018,4,24,23,8,14.911,0.6998,-0.2363,0.1913,-0.6462
0.178,-0.056,-0.071,28.7,10,2.1,0,2018,4,24,23,8,14.928,0.7009,-0.2384,0.187,-0.6456
0.186,-0.066,-0.027,31.8,16.7,1.9,0,2018,4,24,23,8,14.951,0.7022,-0.2403,0.1817,-0.645
0.131,-0.026,-0.041,35,19,2.3,0,2018,4,24,23,8,14.969,0.7038,-0.2418,0.1754,-0.6444
0.079,-0.027,-0.043,39.2,17.9,5.7,0,2018,4,24,23,8,14.992,0.7053,-0.2437,0.1693,-0.6436
0.104,-0.08,0.026,42.1,19.2,7.7,0,2018,4,24,23,8,15.012,0.7066,-0.246,0.1629,-0.643
0.136,-0.068,0.066,44.2,22.4,9,0,2018,4,24,23,8,15.035,0.7078,-0.2484,0.155,-0.6427
0.087,-0.049,0.062,47,20.7,9.7,0,2018,4,24,23,8,15.053,0.7091,-0.2506,0.1472,-0.6423
0.017,-0.067,0.039,50.4,17.8,11.5,0,2018,4,24,23,8,15.075,0.7101,-0.2537,0.1391,-0.6418
0.046,-0.092,0.045,53.9,22.5,11.9,0,2018,4,24,23,8,15.093,0.7109,-0.2575,0.1304,-0.6412
0.033,-0.087,0.059,57,32.3,12.9,0,2018,4,24,23,8,15.116,0.712,-0.2607,0.1205,-0.6407
-0.055,-0.052,0.078,56.4,38.1,14.1,0,2018,4,24,23,8,15.133,0.7132,-0.263,0.109,-0.6404
-0.151,-0.039,0.024,53.7,32.9,13.3,1023,2018,4,24,23,8,15.149,0.7141,-0.2654,0.0967,-0.6404
-0.109,-0.028,0.026,52.1,26.7,8.2,1023,2018,4,24,23,8,15.172,0.7149,-0.2683,0.086,-0.6398
-0.062,0.003,0.048,50.8,23.7,1.9,1023,2018,4,24,23,8,15.19,0.7161,-0.2713,0.076,-0.6385
-0.086,0.048,0.037,49.4,19.3,-3.9,1023,2018,4,24,23,8,15.213,0.7178,-0.2742,0.0667,-0.6364
-0.1,0.083,-0.035,49.3,9.5,-6.2,1023,2018,4,24,23,8,15.251,0.7196,-0.2778,0.0588,-0.6336
-0.059,0.059,-0.067,51.3,3.9,-6.2,1023,2018,4,24,23,8,15.274,0.7209,-0.2828,0.0517,-0.6305
0.056,0.03,-0.015,53.8,16.2,-6.4,1023,2018,4,24,23,8,15.279,0.7225,-0.2873,0.0442,-0.6272
0.049,0.043,-0.015,54.2,34.6,-5.5,1023,2018,4,24,23,8,15.297,0.7251,-0.2894,0.0351,-0.6238
0.011,0.1,-0.059,52.4,39.4,-2.8,1023,2018,4,24,23,8,15.314,0.7278,-0.2898,0.0242,-0.6209
0.017,0.091,-0.074,51.2,31.8,-0.1,1023,2018,4,24,23,8,15.337,0.7299,-0.2906,0.0131,-0.6185
0.101,0.03,0.002,48.2,30.4,0.8,1023,2018,4,24,23,8,15.355,0.7316,-0.2915,0.0036,-0.6161
0.078,0.036,-0.003,42.7,35.4,0.4,1023,2018,4,24,23,8,15.378,0.7335,-0.2914,-0.0051,-0.6139
0,0.078,-0.06,36.4,29.9,-0.1,1023,2018,4,24,23,8,15.396,0.7352,-0.2908,-0.0139,-0.612
-0.046,0.058,-0.066,31.6,18,0.5,1023,2018,4,24,23,8,15.419,0.7361,-0.2915,-0.0216,-0.6103
0.005,0.023,-0.019,27.1,7.8,0.4,1023,2018,4,24,23,8,15.434,0.7364,-0.2931,-0.027,-0.6089
0.032,0.013,0.003,24.8,6.8,-1.4,1023,2018,4,24,23,8,15.471,0.7368,-0.2948,-0.0309,-0.6076
-0.026,0.008,-0.043,22.8,7.4,-2.8,0,2018,4,24,23,8,15.493,0.7373,-0.2963,-0.0347,-0.606
-0.091,0.041,-0.106,21.6,-0.3,-2.2,0,2018,4,24,23,8,15.499,0.7373,-0.2988,-0.0385,-0.6045
-0.016,0.038,-0.09,22.3,-12.5,-2.5,0,2018,4,24,23,8,15.517,0.7367,-0.3027,-0.0413,-0.6032
0.014,-0.012,-0.08,26.2,-9.8,-4.5,0,2018,4,24,23,8,15.534,0.7361,-0.3072,-0.043,-0.6015
-0.006,0.002,-0.102,30,4.7,-6.8,0,2018,4,24,23,8,15.557,0.7362,-0.3111,-0.046,-0.5991
-0.045,0.061,-0.177,33.9,11,-6.9,0,2018,4,24,23,8,15.593,0.737,-0.3139,-0.0512,-0.5963
-0.025,0.108,-0.179,38.6,4.3,-5.9,0,2018,4,24,23,8,15.614,0.7377,-0.3168,-0.0564,-0.5933
-0.041,0.104,-0.133,44.2,-3.6,-3.4,0,2018,4,24,23,8,15.62,0.7378,-0.3211,-0.0615,-0.5904
-0.039,0.089,-0.099,46.8,-4.5,1.9,0,2018,4,24,23,8,15.656,0.7368,-0.3267,-0.0677,-0.5879
-0.046,0.114,-0.138,47.8,-4.6,8.8,0,2018,4,24,23,8,15.656,0.7353,-0.3321,-0.0741,-0.586
-0.065,0.121,-0.164,51.5,-10.2,15.9,0,2018,4,24,23,8,15.679,0.7329,-0.338,-0.0804,-0.5848
-0.083,0.098,-0.114,56,-11.4,22.5,0,2018,4,24,23,8,15.697,0.7294,-0.3446,-0.0873,-0.5843
-0.063,0.098,-0.055,59.3,-10.3,25.7,0,2018,4,24,23,8,15.733,0.7253,-0.3515,-0.0951,-0.5841
-0.06,0.081,-0.025,58.7,-7.5,25.3,0,2018,4,24,23,8,15.756,0.7209,-0.3582,-0.1041,-0.584
-0.112,0.105,-0.111,58,-7.6,24.2,0,2018,4,24,23,8,15.761,0.7167,-0.3645,-0.1126,-0.5837
-0.104,0.123,-0.107,58.1,-20.4,21.5,0,2018,4,24,23,8,15.778,0.7122,-0.3716,-0.12,-0.5831
-0.16,0.083,-0.082,57.8,-32.1,18.1,0,2018,4,24,23,8,15.799,0.7072,-0.3805,-0.1257,-0.5823
-0.166,-0.143,0.127,48.4,-11.8,14.9,0,2018,4,24,23,8,15.837,0.7023,-0.3892,-0.131,-0.5813
-0.214,-0.021,0.147,39.4,29.5,9.9,0,2018,4,24,23,8,15.859,0.701,-0.3918,-0.1384,-0.5794
-0.231,0.059,0.076,32,21,11.4,0,2018,4,24,23,8,15.862,0.7009,-0.3916,-0.1466,-0.5776
-0.196,0.039,0.055,23.6,-10.9,14.1,1023,2018,4,24,23,8,15.877,0.6993,-0.3934,-0.1514,-0.5772
-0.084,0.042,-0.055,16.1,-49.3,16.6,1023,2018,4,24,23,8,15.913,0.6947,-0.3989,-0.1526,-0.5786
-0.031,-0.058,-0.124,15.7,-72.6,18.6,1023,2018,4,24,23,8,15.936,0.6875,-0.4084,-0.1498,-0.5813
0.001,-0.119,-0.132,21.1,-64.8,20.1,1023,2018,4,24,23,8,15.941,0.68,-0.4182,-0.1461,-0.584
0.043,-0.173,-0.093,25.5,-35.6,25.4,1023,2018,4,24,23,8,15.96,0.6734,-0.426,-0.1454,-0.5862
0.075,-0.176,-0.053,31,-4.2,27.4,1023,2018,4,24,23,8,15.977,0.6686,-0.4304,-0.1488,-0.5877
0.107,-0.107,-0.025,37.6,8.1,29.8,1023,2018,4,24,23,8,16,0.6651,-0.4327,-0.1554,-0.5883
0.034,-0.097,0.139,40.1,8.9,32.4,1023,2018,4,24,23,8,16.035,0.6617,-0.4347,-0.1626,-0.5887
0.048,-0.119,0.121,41.8,19.3,35.4,1023,2018,4,24,23,8,16.059,0.6573,-0.4365,-0.1717,-0.5897
0.056,0.013,0.182,44.5,27.4,40.5,1023,2018,4,24,23,8,16.063,0.6492,-0.4367,-0.187,-0.5938
0.06,0.031,0.157,48.5,5.8,47.4,1023,2018,4,24,23,8,16.08,0.6393,-0.4383,-0.2024,-0.5983
0.083,0.05,0.081,54.3,-20,54.8,1023,2018,4,24,23,8,16.103,0.6267,-0.4427,-0.2159,-0.6037
0.112,-0.003,0.026,66.7,-30.7,61.5,1023,2018,4,24,23,8,16.12,0.6119,-0.4493,-0.2279,-0.6096
0.057,-0.047,0.046,76.5,-20,66.4,1023,2018,4,24,23,8,16.143,0.5961,-0.4572,-0.2408,-0.6144
0.069,-0.021,0.049,83.7,-0.3,70.4,1023,2018,4,24,23,8,16.18,0.5809,-0.4638,-0.2565,-0.6176
0.083,0.044,0.002,90.9,-0.5,73.3,1023,2018,4,24,23,8,16.203,0.5655,-0.4697,-0.2741,-0.6199
0.109,0.062,0.019,94.4,1.7,77.7,0,2018,4,24,23,8,16.208,0.5494,-0.4757,-0.2922,-0.6215
0.058,0.046,0.034,94.3,14.9,80.8,0,2018,4,24,23,8,16.221,0.5335,-0.4808,-0.3112,-0.6222
0.067,0.11,-0.016,90.4,17,80.1,0,2018,4,24,23,8,16.256,0.518,-0.4846,-0.3308,-0.6223
0.079,0.123,-0.115,87.5,4.1,85.6,0,2018,4,24,23,8,16.28,0.5014,-0.4885,-0.3496,-0.6225
-0.006,-0.207,-0.173,87.5,12.6,91.5,0,2018,4,24,23,8,16.285,0.4838,-0.4924,-0.368,-0.6228
-0.118,-0.205,-0.082,85.8,49.8,82.9,0,2018,4,24,23,8,16.302,0.4687,-0.4935,-0.3889,-0.6207
-0.048,0.022,-0.117,87.9,34.6,75.2,0,2018,4,24,23,8,16.326,0.4561,-0.4947,-0.4091,-0.6162
-0.057,0.086,-0.075,91.1,14.6,75.2,0,2018,4,24,23,8,16.361,0.4414,-0.4976,-0.4267,-0.6126
-0.071,0.055,-0.024,89.2,13.4,75.1,0,2018,4,24,23,8,16.384,0.4264,-0.5011,-0.4424,-0.6093
-0.08,0.026,0.077,85,16.4,73.7,0,2018,4,24,23,8,16.389,0.4123,-0.5037,-0.4572,-0.6058
-0.08,0.041,0.156,77.1,9.9,71.5,0,2018,4,24,23,8,16.402,0.3993,-0.5052,-0.4705,-0.6032
-0.155,-0.051,0.25,68.4,1.2,70.3,0,2018,4,24,23,8,16.42,0.3863,-0.5063,-0.4817,-0.6018
-0.121,-0.04,0.29,59.3,-0.6,71.4,0,2018,4,24,23,8,16.442,0.3727,-0.5073,-0.4929,-0.6005
-0.19,-0.065,0.346,46.4,1.2,68.9,0,2018,4,24,23,8,16.46,0.36,-0.5069,-0.5032,-0.6
-0.237,-0.013,0.327,27.8,-20.3,60.2,0,2018,4,24,23,8,16.483,0.3488,-0.5058,-0.5108,-0.6012
-0.186,-0.116,-0.063,14.1,-49,46.3,0,2018,4,24,23,8,16.504,0.3386,-0.5058,-0.5119,-0.606
-0.317,-0.201,-0.078,7,-64,18,0,2018,4,24,23,8,16.537,0.3288,-0.5074,-0.5101,-0.6117
-0.268,-0.245,0.071,-8.2,-85.8,-17.3,0,2018,4,24,23,8,16.559,0.3217,-0.5119,-0.5022,-0.6181
-0.196,-0.192,0.049,-19.9,-101.7,-41.9,1023,2018,4,24,23,8,16.565,0.3172,-0.5185,-0.4886,-0.6258
-0.165,-0.132,0.017,-27.8,-114,-61.6,1023,2018,4,24,23,8,16.598,0.3159,-0.527,-0.4699,-0.6336
-0.154,-0.071,0.002,-34.3,-134.3,-76.1,1023,2018,4,24,23,8,16.624,0.3156,-0.5369,-0.4468,-0.6421
-0.202,-0.052,0.002,-40.6,-153,-86.9,1023,2018,4,24,23,8,16.628,0.3146,-0.5477,-0.4199,-0.6515
-0.169,-0.017,-0.049,-43.7,-168.7,-93.8,1023,2018,4,24,23,8,16.648,0.3124,-0.5591,-0.3899,-0.6615
-0.108,-0.052,-0.084,-40.7,-171.5,-99.5,1023,2018,4,24,23,8,16.664,0.3093,-0.5709,-0.358,-0.6709
-0.043,-0.072,-0.079,-35.1,-158.4,-104.1,1023,2018,4,24,23,8,16.682,0.3064,-0.5828,-0.3261,-0.6782
-0.057,-0.04,-0.033,-28.2,-128.9,-108,1023,2018,4,24,23,8,16.704,0.3053,-0.5936,-0.2963,-0.6829
-0.041,0.024,-0.027,-24,-91.4,-109.8,1023,2018,4,24,23,8,16.722,0.3072,-0.6025,-0.2707,-0.685
-0.023,0.108,-0.042,-22.4,-61,-109.5,1023,2018,4,24,23,8,16.745,0.3119,-0.6093,-0.2498,-0.6848
-0.006,0.159,-0.062,-21,-42.4,-106.8,1023,2018,4,24,23,8,16.763,0.3181,-0.6144,-0.2323,-0.6835
0.014,0.198,-0.068,-20.6,-32,-100.2,1023,2018,4,24,23,8,16.788,0.3247,-0.6182,-0.2173,-0.6819
0.03,0.211,-0.07,-20.2,-28.2,-92,1023,2018,4,24,23,8,16.804,0.331,-0.6212,-0.2038,-0.6803
0.064,0.216,-0.066,-19.3,-23.9,-82.8,1023,2018,4,24,23,8,16.827,0.3363,-0.6236,-0.1917,-0.679
0.101,0.215,-0.06,-17.5,-15.4,-72.7,1023,2018,4,24,23,8,16.864,0.3411,-0.6253,-0.1815,-0.6779
0.128,0.217,-0.047,-15.3,-3.8,-63.2,1023,2018,4,24,23,8,16.888,0.3457,-0.6263,-0.1736,-0.6767
0.157,0.212,-0.037,-12.9,8.4,-55.3,1023,2018,4,24,23,8,16.892,0.3503,-0.6264,-0.1684,-0.6755
0.168,0.221,-0.033,-11.2,21.4,-48.1,1023,2018,4,24,23,8,16.91,0.3555,-0.6258,-0.1655,-0.6741
0.151,0.234,-0.042,-11.3,31.6,-42.3,0,2018,4,24,23,8,16.93,0.3609,-0.6244,-0.1649,-0.6727
0.131,0.242,-0.053,-12.1,37.1,-37.2,0,2018,4,24,23,8,16.965,0.3667,-0.6222,-0.1657,-0.6714
0.095,0.245,-0.056,-13.9,39.3,-31.6,0,2018,4,24,23,8,16.965,0.3723,-0.6195,-0.1674,-0.6704
0.049,0.237,-0.053,-16.4,39.6,-24.7,0,2018,4,24,23,8,16.989,0.3772,-0.6162,-0.1698,-0.67
0.016,0.219,-0.058,-19.5,39.9,-16.9,0,2018,4,24,23,8,17.005,0.3813,-0.6124,-0.1729,-0.6705
-0.028,0.189,-0.042,-23.7,42.8,-8.4,0,2018,4,24,23,8,17.027,0.3847,-0.6078,-0.1768,-0.6716
-0.063,0.166,-0.046,-29.6,46.5,-1.1,0,2018,4,24,23,8,17.065,0.3878,-0.6022,-0.1816,-0.6737
-0.097,0.176,-0.051,-37,46.2,5.3,0,2018,4,24,23,8,17.087,0.3905,-0.5954,-0.187,-0.6767
-0.185,0.214,-0.103,-43.8,32.3,12,0,2018,4,24,23,8,17.091,0.3917,-0.5879,-0.1918,-0.6812
-0.243,0.244,-0.16,-48.8,2.8,20.1,0,2018,4,24,23,8,17.11,0.3901,-0.5809,-0.1943,-0.6873
-0.267,0.256,-0.176,-52.3,-40.1,28.6,0,2018,4,24,23,8,17.146,0.384,-0.5757,-0.1928,-0.6955
-0.223,0.235,-0.173,-54.2,-89.3,34.4,0,2018,4,24,23,8,17.168,0.3722,-0.573,-0.1861,-0.706
-0.136,0.188,-0.185,-53.3,-124.1,37.1,0,2018,4,24,23,8,17.173,0.3556,-0.5725,-0.1744,-0.7178
-0.007,0.171,-0.2,-49.5,-145.6,36,0,2018,4,24,23,8,17.189,0.3359,-0.5736,-0.1592,-0.7298
0.075,0.132,-0.199,-41.3,-149.9,33.3,0,2018,4,24,23,8,17.207,0.3149,-0.5757,-0.1423,-0.7409
0.136,0.088,-0.185,-30.2,-135.4,31,0,2018,4,24,23,8,17.23,0.2942,-0.5783,-0.1263,-0.7503
0.155,0.037,-0.171,-16.3,-102.1,30.7,1023,2018,4,24,23,8,17.247,0.2759,-0.5808,-0.1138,-0.7572
0.148,0.014,-0.146,-1.5,-55.4,32.7,1023,2018,4,24,23,8,17.27,0.2613,-0.583,-0.1074,-0.7616
0.118,0.009,-0.12,13.1,-5.5,37.1,1023,2018,4,24,23,8,17.288,0.2517,-0.5851,-0.1077,-0.7633
0.084,0.045,-0.105,26,32.2,43.3,1023,2018,4,24,23,8,17.311,0.2469,-0.5877,-0.1132,-0.762
0.063,0.051,-0.058,37.9,56.7,50.1,1023,2018,4,24,23,8,17.329,0.2441,-0.5902,-0.1243,-0.7593
0.062,0.047,-0.007,46.4,70.5,55.5,1023,2018,4,24,23,8,17.351,0.2423,-0.5926,-0.1388,-0.7555
0.07,0.028,0.024,51.7,78.6,58.7,1023,2018,4,24,23,8,17.389,0.2411,-0.5948,-0.1553,-0.7509
0.032,-0.003,0.064,54.9,83.4,59.4,1023,2018,4,24,23,8,17.389,0.2404,-0.5968,-0.1726,-0.7456
-0.054,-0.034,0.115,55.1,86.4,58.7,1023,2018,4,24,23,8,17.411,0.2402,-0.5986,-0.1904,-0.7399
-0.142,-0.055,0.176,51.6,87.6,57.5,1023,2018,4,24,23,8,17.447,0.2405,-0.5997,-0.2082,-0.7342
-0.17,-0.065,0.223,43.5,84.3,54.1,1023,2018,4,24,23,8,17.47,0.2413,-0.5997,-0.2253,-0.7288
-0.101,-0.033,0.226,32,68.2,47.6,1023,2018,4,24,23,8,17.473,0.2413,-0.5989,-0.2411,-0.7244
0,0.01,0.202,19.6,36.4,38,1023,2018,4,24,23,8,17.49,0.2389,-0.5983,-0.254,-0.7213
0.071,0.02,0.186,7.3,-6,26.7,1023,2018,4,24,23,8,17.511,0.2346,-0.5982,-0.2603,-0.7205
0.107,-0.002,0.162,-3.5,-41.8,14.6,1023,2018,4,24,23,8,17.547,0.2282,-0.5988,-0.2598,-0.7223
0.108,-0.064,0.142,-12.9,-61.3,3.7,1023,2018,4,24,23,8,17.567,0.2209,-0.5996,-0.2542,-0.7259
0.076,-0.122,0.124,-19.8,-64.7,-4.7,1023,2018,4,24,23,8,17.571,0.214,-0.6002,-0.2458,-0.7303
0.034,-0.136,0.111,-24.5,-56.9,-10.7,1023,2018,4,24,23,8,17.604,0.2085,-0.6001,-0.2368,-0.7349
-0.019,-0.112,0.09,-27.1,-48.5,-15.9,0,2018,4,24,23,8,17.627,0.2055,-0.5994,-0.2274,-0.7393
-0.074,-0.105,0.06,-27.5,-41,-20.1,0,2018,4,24,23,8,17.633,0.2057,-0.5986,-0.2162,-0.7433
-0.115,-0.092,0.052,-26.6,-33.5,-23.7,0,2018,4,24,23,8,17.67,0.2067,-0.5978,-0.2059,-0.7466
-0.13,-0.086,0.048,-25.4,-26.5,-27.1,0,2018,4,24,23,8,17.691,0.2087,-0.5969,-0.1963,-0.7493
-0.104,-0.074,0.038,-23.9,-16.1,-30.3,0,2018,4,24,23,8,17.694,0.2117,-0.596,-0.1877,-0.7514
-0.055,-0.043,0.025,-22.5,-5.1,-34.5,0,2018,4,24,23,8,17.731,0.2161,-0.5949,-0.1804,-0.7528
-0.005,-0.004,0.007,-21.1,1.7,-39.3,0,2018,4,24,23,8,17.731,0.2218,-0.5937,-0.174,-0.7536
0.019,0.024,-0.012,-20.2,6.4,-43.7,0,2018,4,24,23,8,17.752,0.2283,-0.5926,-0.1681,-0.7539
0.027,0.055,-0.025,-19.5,8.4,-46.7,0,2018,4,24,23,8,17.787,0.2354,-0.5915,-0.1626,-0.7538
0.023,0.083,-0.034,-19.3,8,-47.1,0,2018,4,24,23,8,17.81,0.2423,-0.5903,-0.1572,-0.7536
0.013,0.102,-0.047,-18.5,5.6,-45,0,2018,4,24,23,8,17.812,0.2487,-0.5893,-0.152,-0.7534
-0.001,0.115,-0.062,-17,2.8,-40.7,0,2018,4,24,23,8,17.849,0.2541,-0.5885,-0.147,-0.7532
-0.007,0.119,-0.065,-14.6,0,-34.8,0,2018,4,24,23,8,17.87,0.2584,-0.588,-0.1423,-0.7531
-0.014,0.118,-0.07,-11.9,-1.3,-28.1,0,2018,4,24,23,8,17.875,0.2613,-0.5878,-0.1383,-0.753
-0.018,0.117,-0.063,-8.4,0.1,-21.1,0,2018,4,24,23,8,17.91,0.2633,-0.5877,-0.1351,-0.7529
-0.016,0.109,-0.061,-5.1,3.5,-14.5,0,2018,4,24,23,8,17.933,0.2645,-0.5877,-0.1331,-0.7528
-0.014,0.116,-0.065,-1.8,8.6,-8.9,1023,2018,4,24,23,8,17.936,0.2655,-0.5879,-0.1324,-0.7524
-0.014,0.118,-0.067,1,12,-4.2,1023,2018,4,24,23,8,17.952,0.266,-0.5882,-0.133,-0.752
-0.015,0.118,-0.061,3.2,13.8,-0.8,1023,2018,4,24,23,8,17.99,0.2663,-0.5885,-0.1345,-0.7513
-0.015,0.12,-0.054,4.3,13.5,2.1,1023,2018,4,24,23,8,18.014,0.2661,-0.5889,-0.1365,-0.7507
-0.014,0.119,-0.046,4.5,9.8,4.6,1023,2018,4,24,23,8,18.016,0.2654,-0.5893,-0.1385,-0.7503
-0.016,0.116,-0.038,4.5,4.4,6.9,1023,2018,4,24,23,8,18.052,0.264,-0.5898,-0.1401,-0.7501
-0.016,0.101,-0.042,4.2,-1,9.3,1023,2018,4,24,23,8,18.073,0.2618,-0.5905,-0.1412,-0.7501
-0.014,0.084,-0.036,4.5,-4.2,11.9,1023,2018,4,24,23,8,18.076,0.2588,-0.5914,-0.1418,-0.7504
-0.015,0.07,-0.023,4.8,-5.3,14.8,1023,2018,4,24,23,8,18.113,0.2554,-0.5922,-0.1423,-0.7507
-0.019,0.057,-0.017,5.1,-5.1,17.6,1023,2018,4,24,23,8,18.134,0.2518,-0.593,-0.143,-0.7512
-0.019,0.051,-0.015,5.4,-4.6,19.9,1023,2018,4,24,23,8,18.137,0.248,-0.5938,-0.1438,-0.7516
-0.021,0.045,-0.011,5.1,-4.8,21.8,1023,2018,4,24,23,8,18.172,0.244,-0.5945,-0.1449,-0.7522
-0.016,0.039,-0.007,4.3,-6.6,23.5,1023,2018,4,24,23,8,18.195,0.2398,-0.5951,-0.1458,-0.7529
-0.007,0.033,-0.003,3.4,-8.9,24.3,1023,2018,4,24,23,8,18.199,0.2352,-0.5956,-0.1466,-0.7538
-0.001,0.024,-0.007,2.4,-11.3,24.5,1023,2018,4,24,23,8,18.237,0.2304,-0.596,-0.1471,-0.7549
-0.006,0.008,-0.01,1.2,-13.7,24.4,1023,2018,4,24,23,8,18.258,0.2256,-0.5964,-0.1469,-0.7561
-0.003,-0.004,-0.008,0.4,-15.8,24.3,1023,2018,4,24,23,8,18.261,0.2207,-0.5968,-0.1464,-0.7573
-0.005,-0.014,-0.016,-0.1,-17.4,23.8,1023,2018,4,24,23,8,18.278,0.2157,-0.5973,-0.1454,-0.7586
-0.006,-0.022,-0.02,0,-18.5,23.2,1023,2018,4,24,23,8,18.296,0.2108,-0.5978,-0.1441,-0.7598
-0.006,-0.03,-0.018,0,-19.3,22.1,0,2018,4,24,23,8,18.317,0.2058,-0.5984,-0.1426,-0.761
-0.002,-0.039,-0.012,0,-19.2,21,0,2018,4,24,23,8,18.355,0.2011,-0.599,-0.1408,-0.7621
0.014,-0.051,-0.017,-0.1,-18.4,19.3,0,2018,4,24,23,8,18.375,0.1967,-0.5996,-0.1388,-0.7631
-0.008,-0.047,-0.027,-0.8,-18.7,17.4,0,2018,4,24,23,8,18.377,0.1927,-0.6002,-0.1367,-0.764
-0.01,-0.046,-0.037,-1.4,-20.9,14.9,0,2018,4,24,23,8,18.415,0.1887,-0.601,-0.1343,-0.7649
-0.01,-0.047,-0.041,-1.4,-24.8,12.4,0,2018,4,24,23,8,18.436,0.1847,-0.6019,-0.1311,-0.7657
-0.001,-0.043,-0.036,-1.6,-27.6,10.1,0,2018,4,24,23,8,18.438,0.1808,-0.6029,-0.1272,-0.7665
0.013,-0.048,-0.03,-1.7,-29.8,8.3,0,2018,4,24,23,8,18.476,0.1769,-0.6039,-0.1227,-0.7673
0.014,-0.048,-0.041,-1.5,-30.6,7.4,0,2018,4,24,23,8,18.497,0.173,-0.6051,-0.1178,-0.7681
-0.009,-0.059,-0.052,-0.6,-29.8,7,0,2018,4,24,23,8,18.499,0.169,-0.6064,-0.113,-0.7686
-0.056,-0.055,-0.039,0.9,-25.3,7,0,2018,4,24,23,8,18.537,0.1655,-0.6078,-0.1085,-0.769
-0.132,-0.063,-0.019,0.9,-28.2,9.1,0,2018,4,24,23,8,18.558,0.1617,-0.6091,-0.1046,-0.7692
-0.05,-0.209,0.04,-6.5,-32.7,10.2,0,2018,4,24,23,8,18.56,0.1573,-0.6099,-0.1,-0.7701
0.029,-0.213,0.007,-10.3,-10.7,10.7,0,2018,4,24,23,8,18.578,0.1524,-0.6092,-0.0984,-0.7719
-0.036,-0.261,0.056,-14,0.6,9.9,0,2018,4,24,23,8,18.598,0.1489,-0.6076,-0.0991,-0.7738
-0.027,0.016,0.046,-12.8,29,2.6,1023,2018,4,24,23,8,18.635,0.1502,-0.6053,-0.101,-0.7751
0.086,0.435,-0.072,-9.3,-17.6,1.7,1023,2018,4,24,23,8,18.656,0.1503,-0.6034,-0.1027,-0.7763
0.161,0.632,-0.199,-0.3,-111.5,10.4,1023,2018,4,24,23,8,18.66,0.1414,-0.6045,-0.0947,-0.7781
0.047,0.457,-0.151,2.3,-191.4,23.9,1023,2018,4,24,23,8,18.698,0.1213,-0.6082,-0.076,-0.7807
0.01,0.308,-0.125,-4.1,-237.1,32.2,1023,2018,4,24,23,8,18.719,0.0931,-0.6119,-0.0497,-0.7838
0.057,0.15,-0.228,-8.4,-266.5,31.2,1023,2018,4,24,23,8,18.721,0.0606,-0.6142,-0.0187,-0.7865
0.038,-0.013,-0.217,-8.3,-258.2,23.6,1023,2018,4,24,23,8,18.757,0.0278,-0.615,0.0143,-0.7878
0.136,-0.287,-0.283,0.1,-221.5,17,1023,2018,4,24,23,8,18.778,-0.0017,-0.6151,0.0457,-0.787
0.09,-0.151,-0.12,8.9,-120.6,9.1,1023,2018,4,24,23,8,18.78,-0.0217,-0.6156,0.0676,-0.7848
-0.048,0.047,0.134,12.2,-75.6,6.2,1023,2018,4,24,23,8,18.815,-0.0316,-0.617,0.0806,-0.7821
-0.151,0.07,0.276,8.1,-72.4,5,1023,2018,4,24,23,8,18.836,-0.0402,-0.618,0.0899,-0.7799
-0.279,0.104,0.27,0.4,-99.8,7.1,1023,2018,4,24,23,8,18.843,-0.05,-0.6181,0.1005,-0.7779
-0.149,0.137,0.322,-13.5,-152.9,15,1023,2018,4,24,23,8,18.878,-0.0652,-0.6161,0.1165,-0.7762
-0.078,-0.162,0.242,-22.8,-193.2,25.4,1023,2018,4,24,23,8,18.901,-0.0877,-0.6117,0.1382,-0.7739
-0.014,-0.394,0.127,-26.5,-166.1,22.3,1023,2018,4,24,23,8,18.903,-0.111,-0.6058,0.16,-0.7714
0.079,-0.535,0.022,-22.3,-111.7,14.9,1023,2018,4,24,23,8,18.938,-0.1284,-0.6001,0.1765,-0.7695
0.113,-0.375,0.137,-11.7,-50.8,6.3,0,2018,4,24,23,8,18.958,-0.1381,-0.5965,0.1852,-0.7685
0.094,-0.303,0.212,-16,-50.7,-8.7,0,2018,4,24,23,8,18.964,-0.1431,-0.5936,0.1915,-0.7683
0.187,-0.243,0.136,-19,-99.9,-22.2,0,2018,4,24,23,8,19.002,-0.1491,-0.5887,0.2027,-0.7681
0.223,-0.481,-0.045,-8.6,-109.3,-31.3,0,2018,4,24,23,8,19.023,-0.1575,-0.5828,0.22,-0.7662
0.218,-0.655,-0.036,3.7,-58.4,-49.9,0,2018,4,24,23,8,19.025,-0.161,-0.5785,0.2356,-0.764
0.193,-0.453,0.058,11.4,-3.2,-65.3,0,2018,4,24,23,8,19.042,-0.1555,-0.5763,0.2454,-0.7637
0.15,-0.443,0.111,13.9,16.6,-78,0,2018,4,24,23,8,19.063,-0.1443,-0.5752,0.2517,-0.7647
0.113,-0.341,0.077,14.5,11.1,-87.4,0,2018,4,24,23,8,19.098,-0.1307,-0.5737,0.2586,-0.766
0.05,-0.265,0.062,17.9,6.8,-88.5,0,2018,4,24,23,8,19.119,-0.1172,-0.5722,0.2667,-0.7665
0.031,-0.275,0.071,20.1,6,-90.5,0,2018,4,24,23,8,19.123,-0.1036,-0.5707,0.2751,-0.7666
0.017,-0.246,0.007,22.1,9.3,-91.6,0,2018,4,24,23,8,19.16,-0.0897,-0.5692,0.2836,-0.7664
0.016,-0.169,-0.114,25.6,0.9,-95.5,0,2018,4,24,23,8,19.182,-0.0752,-0.5677,0.2924,-0.7657
0.011,-0.012,-0.162,36,-40.7,-102.3,0,2018,4,24,23,8,19.184,-0.0626,-0.5663,0.3051,-0.763
0.011,-0.024,-0.092,50.6,-61.9,-106.3,0,2018,4,24,23,8,19.223,-0.0512,-0.5666,0.3249,-0.7554
0,-0.036,-0.123,64,-14,-101.1,0,2018,4,24,23,8,19.244,-0.0369,-0.5687,0.3435,-0.7464
-0.04,-0.08,-0.235,73.1,71.9,-92.9,0,2018,4,24,23,8,19.246,-0.0171,-0.5721,0.3497,-0.7416
-0.208,0.106,-0.233,69.8,129.5,-86.6,1023,2018,4,24,23,8,19.28,0.0095,-0.5761,0.3448,-0.7409
-0.323,0.253,-0.235,57.3,122.1,-77,1023,2018,4,24,23,8,19.301,0.0371,-0.5789,0.3361,-0.7419
-0.345,0.243,-0.272,46.7,87.5,-63.7,1023,2018,4,24,23,8,19.304,0.0596,-0.5806,0.3292,-0.7422
-0.312,0.194,-0.265,42.8,67.5,-53.5,1023,2018,4,24,23,8,19.341,0.0773,-0.5821,0.3248,-0.7413
-0.248,0.159,-0.181,42.6,66,-48.4,1023,2018,4,24,23,8,19.362,0.0929,-0.5838,0.3209,-0.7399
-0.169,0.173,-0.05,42.8,81.6,-45.8,1023,2018,4,24,23,8,19.366,0.1088,-0.5854,0.3155,-0.7387
-0.08,0.217,-0.014,41.4,101.8,-43.3,1023,2018,4,24,23,8,19.403,0.1262,-0.5865,0.3073,-0.7386
-0.034,0.18,-0.092,44.4,136.4,-38.7,1023,2018,4,24,23,8,19.424,0.146,-0.587,0.2953,-0.7394
-0.004,0.213,-0.137,49.6,176.5,-31.1,1023,2018,4,24,23,8,19.428,0.169,-0.587,0.2771,-0.7415
-0.025,0.326,-0.071,49.3,197.3,-22.5,1023,2018,4,24,23,8,19.464,0.1943,-0.5863,0.2535,-0.7444
-0.04,0.393,-0.033,43.3,163.1,-14.2,1023,2018,4,24,23,8,19.485,0.2173,-0.5849,0.2299,-0.7467
-0.035,0.295,-0.101,40,118.3,-3.8,1023,2018,4,24,23,8,19.489,0.2342,-0.5845,0.2111,-0.7475
-0.029,0.248,-0.092,38.7,100,3.5,1023,2018,4,24,23,8,19.526,0.2464,-0.5852,0.1955,-0.7473
-0.021,0.235,0.015,36.1,104.7,7.4,1023,2018,4,24,23,8,19.547,0.2572,-0.5859,0.18,-0.747
-0.009,0.321,0.058,29.3,103.5,10.2,1023,2018,4,24,23,8,19.549,0.2679,-0.5855,0.1638,-0.7473
0.042,0.222,-0.022,28.7,94.3,14.1,1023,2018,4,24,23,8,19.584,0.2771,-0.5849,0.1486,-0.7476
0.06,0.231,-0.014,33.2,93.7,22.9,0,2018,4,24,23,8,19.605,0.2855,-0.5847,0.1336,-0.7474
0.025,0.188,0.058,36.2,96.3,33.3,0,2018,4,24,23,8,19.607,0.2923,-0.5851,0.1165,-0.7473
0.018,0.187,0.052,37.6,87.2,43.3,0,2018,4,24,23,8,19.641,0.2975,-0.5858,0.0985,-0.7473
0.023,0.085,0.056,40.1,68.4,49.3,0,2018,4,24,23,8,19.665,0.3002,-0.5873,0.082,-0.747
0.028,0.042,0.09,42.8,58.2,49.3,0,2018,4,24,23,8,19.669,0.302,-0.5893,0.0682,-0.7461
0.055,0.046,0.115,42.9,58.1,45.7,0,2018,4,24,23,8,19.706,0.3036,-0.5912,0.0551,-0.7451
0.074,0.034,0.096,40.5,70,37.1,0,2018,4,24,23,8,19.729,0.3064,-0.5925,0.0416,-0.7437
0.064,0.08,0.067,34.5,71.2,25.8,0,2018,4,24,23,8,19.734,0.3114,-0.5925,0.0285,-0.7423
0.06,0.097,0.015,27.9,63.2,15.9,0,2018,4,24,23,8,19.75,0.317,-0.5921,0.0174,-0.7406
0.033,0.128,0.011,18.9,52.4,9.3,0,2018,4,24,23,8,19.794,0.3223,-0.5913,0.0084,-0.7391
0.028,0.132,-0.022,12,40.7,4.3,0,2018,4,24,23,8,19.797,0.327,-0.5902,0.0016,-0.738
0.006,0.135,-0.055,6.3,26.5,-0.8,0,2018,4,24,23,8,19.809,0.3307,-0.5892,-0.0026,-0.7371
0.005,0.135,-0.094,2.9,13.1,-6.7,0,2018,4,24,23,8,19.844,0.3335,-0.5888,-0.0043,-0.7361
0.024,0.108,-0.091,1.8,8.4,-11.9,0,2018,4,24,23,8,19.867,0.336,-0.5888,-0.0041,-0.735
0.034,0.149,-0.08,2.5,9.9,-15.6,1023,2018,4,24,23,8,19.869,0.3391,-0.5888,-0.0033,-0.7336
0.019,0.173,-0.08,2.2,12.4,-19.7,1023,2018,4,24,23,8,19.905,0.3427,-0.5885,-0.0029,-0.7322
-0.036,0.133,-0.102,0.9,9.8,-25.3,1023,2018,4,24,23,8,19.927,0.3467,-0.588,-0.0021,-0.7307
-0.059,0.107,-0.106,-0.9,9.3,-27.8,1023,2018,4,24,23,8,19.93,0.3511,-0.5874,-0.0005,-0.729
-0.059,0.105,-0.096,-2.8,11.4,-28,1023,2018,4,24,23,8,19.966,0.3557,-0.5865,0.001,-0.7275
-0.077,0.099,-0.09,-3.8,13.1,-26.6,1023,2018,4,24,23,8,19.986,0.3605,-0.5853,0.0025,-0.7262
-0.083,0.086,-0.108,-2.1,12.2,-24.3,1023,2018,4,24,23,8,19.992,0.365,-0.5841,0.0037,-0.7249
-0.065,0.07,-0.128,2.9,4.9,-22.7,1023,2018,4,24,23,8,20.028,0.3689,-0.5835,0.0048,-0.7234
-0.085,0.045,-0.054,5.8,-8.4,-22,1023,2018,4,24,23,8,20.048,0.3717,-0.5843,0.0073,-0.7212
-0.102,-0.068,-0.003,4.3,-44.5,-25,1023,2018,4,24,23,8,20.054,0.3728,-0.5866,0.0134,-0.7187
-0.197,-0.141,0.015,-1.9,-108.1,-32.5,1023,2018,4,24,23,8,20.074,0.3693,-0.5917,0.0274,-0.7159
-0.199,-0.26,-0.046,-6.1,-143.7,-37,1023,2018,4,24,23,8,20.089,0.3607,-0.5997,0.0493,-0.7125
-0.126,-0.396,-0.056,-8,-117.6,-42.3,1023,2018,4,24,23,8,20.129,0.3515,-0.6067,0.0706,-0.7094
-0.019,-0.438,0.018,-12.8,-70.3,-50.1,1023,2018,4,24,23,8,20.151,0.3472,-0.6105,0.0875,-0.7064
0.012,-0.459,0.012,-23.1,-50.4,-62,1023,2018,4,24,23,8,20.154,0.3477,-0.6108,0.1015,-0.704
0.106,-0.419,-0.003,-30.7,-58.5,-72.2,1023,2018,4,24,23,8,20.191,0.3499,-0.6093,0.1169,-0.7018
0.186,-0.376,0.071,-35.4,-82,-80,1023,2018,4,24,23,8,20.212,0.3509,-0.6079,0.1357,-0.6991
0.255,-0.372,0.078,-41.8,-91.5,-86.1,0,2018,4,24,23,8,20.214,0.3506,-0.6065,0.1577,-0.6958
0.346,-0.422,0.04,-42.1,-71,-93.6,0,2018,4,24,23,8,20.25,0.3515,-0.6037,0.1799,-0.6924
0.287,-0.398,0.137,-39.9,-42.6,-103.6,0,2018,4,24,23,8,20.273,0.3563,-0.599,0.1994,-0.6887
0.217,-0.253,0.134,-43,-26.7,-110.1,0,2018,4,24,23,8,20.276,0.3641,-0.5922,0.2172,-0.6851
0.205,-0.25,0.082,-39.3,-10.1,-113.3,0,2018,4,24,23,8,20.312,0.3739,-0.584,0.2337,-0.6814
0.169,-0.217,0.074,-31.3,5.6,-115.5,0,2018,4,24,23,8,20.334,0.3859,-0.575,0.2478,-0.6773
0.094,-0.107,0.092,-28.2,11,-114.6,0,2018,4,24,23,8,20.337,0.3991,-0.5658,0.2602,-0.6728
0.085,-0.008,0.012,-25.1,11.5,-113,0,2018,4,24,23,8,20.351,0.4135,-0.5557,0.2735,-0.6672
0.075,-0.017,-0.018,-20,7.5,-112.8,0,2018,4,24,23,8,20.372,0.4276,-0.5462,0.2867,-0.6606
0.067,0.035,0.004,-16.2,10.3,-110.6,0,2018,4,24,23,8,20.411,0.4414,-0.5372,0.2994,-0.6532
0.097,0.112,-0.028,-17.3,14.8,-104.7,0,2018,4,24,23,8,20.432,0.455,-0.5277,0.3108,-0.6463
0.128,0.056,-0.093,-17.1,14.8,-98.8,0,2018,4,24,23,8,20.436,0.4678,-0.5183,0.3214,-0.6396
0.103,0.03,-0.09,-14.6,3.2,-94.7,0,2018,4,24,23,8,20.471,0.4786,-0.5102,0.3304,-0.6335
0.065,0.073,-0.086,-14.4,-14.6,-90.2,0,2018,4,24,23,8,20.493,0.4881,-0.5033,0.3424,-0.6253
0.045,0.045,-0.115,-12.1,-31.6,-87.2,0,2018,4,24,23,8,20.496,0.4954,-0.4983,0.3557,-0.6162
0.01,0.09,-0.124,-7.1,-65.6,-87.5,0,2018,4,24,23,8,20.531,0.5001,-0.496,0.371,-0.605
-0.002,0.103,-0.09,-0.5,-86.2,-84.5,1023,2018,4,24,23,8,20.554,0.5022,-0.497,0.3886,-0.5913
0.01,0.162,-0.079,6.9,-74.9,-77.5,1023,2018,4,24,23,8,20.557,0.5038,-0.4988,0.4051,-0.5771
-0.004,0.141,-0.059,15.1,-45.6,-68.8,1023,2018,4,24,23,8,20.593,0.507,-0.4998,0.4177,-0.5643
-0.051,0.123,-0.037,19.7,-17.9,-59.5,1023,2018,4,24,23,8,20.614,0.5121,-0.4995,0.4257,-0.554
-0.1,0.079,-0.045,20.8,7.1,-48.6,1023,2018,4,24,23,8,20.617,0.5184,-0.4979,0.4296,-0.5465
-0.163,0.054,-0.042,17.7,11,-42.8,1023,2018,4,24,23,8,20.652,0.525,-0.4955,0.4308,-0.5414
-0.215,0.029,-0.03,10.6,-14.8,-42,1023,2018,4,24,23,8,20.675,0.5299,-0.4937,0.4332,-0.5362
-0.22,0.027,-0.027,3.9,-41,-42.4,1023,2018,4,24,23,8,20.678,0.5319,-0.4939,0.4389,-0.5294
-0.2,0.007,-0.027,-1.5,-46.7,-41.4,1023,2018,4,24,23,8,20.714,0.5317,-0.4951,0.4469,-0.5218
-0.168,0.049,0.007,-3.4,-23.1,-37,1023,2018,4,24,23,8,20.736,0.5319,-0.4952,0.4537,-0.5156
-0.14,0.091,0.043,-4.2,3.9,-29.6,1023,2018,4,24,23,8,20.737,0.5338,-0.493,0.4576,-0.5123
-0.137,0.123,0.052,-6.2,6.9,-22.9,1023,2018,4,24,23,8,20.775,0.5364,-0.4897,0.4595,-0.511
-0.105,0.148,0.056,-8.7,-18,-16.9,1023,2018,4,24,23,8,20.797,0.5372,-0.4878,0.4624,-0.5094
-0.023,0.125,0.027,-6.3,-36.7,-9.2,1023,2018,4,24,23,8,20.8,0.5356,-0.4883,0.4671,-0.5062
0.06,0.077,0.008,0,-33.2,-2.2,0,2018,4,24,23,8,20.836,0.5334,-0.4902,0.4719,-0.5022
0.135,0.027,0.038,9.2,-9.7,2.7,0,2018,4,24,23,8,20.859,0.533,-0.4915,0.4746,-0.4989
0.191,0.009,0.067,17.2,16.3,5.2,0,2018,4,24,23,8,20.862,0.5344,-0.4923,0.4729,-0.4982
0.225,0.019,0.093,23.7,33.4,6.5,0,2018,4,24,23,8,20.877,0.5379,-0.4922,0.4682,-0.4991
0.214,-0.011,0.1,27,48.5,8,0,2018,4,24,23,8,20.899,0.5429,-0.4911,0.4615,-0.5009
0.164,-0.049,0.108,26.2,68.1,8.5,0,2018,4,24,23,8,20.918,0.5493,-0.4886,0.453,-0.5042
0.136,-0.092,0.112,20.3,80.6,1.8,0,2018,4,24,23,8,20.941,0.5573,-0.4835,0.4438,-0.5084
0.106,-0.071,0.104,11.9,80.9,-6.4,0,2018,4,24,23,8,20.959,0.5669,-0.4753,0.436,-0.5123
0.059,-0.118,0.083,2.5,77.9,-14.2,0,2018,4,24,23,8,20.981,0.576,-0.4659,0.4297,-0.5162
-0.004,-0.101,0.007,-7,64.7,-24.7,0,2018,4,24,23,8,21.017,0.5838,-0.4563,0.4258,-0.5191
0.009,-0.059,-0.03,-14.3,46.2,-32,0,2018,4,24,23,8,21.043,0.5901,-0.4472,0.425,-0.5205
0.031,-0.09,-0.05,-20.1,32.4,-38,0,2018,4,24,23,8,21.047,0.5951,-0.4388,0.4273,-0.5201
0.026,-0.124,-0.004,-23.7,41.5,-39.5,0,2018,4,24,23,8,21.064,0.5998,-0.4299,0.4304,-0.5195
-0.036,-0.165,0.018,-26.7,55,-40.9,0,2018,4,24,23,8,21.079,0.6054,-0.4191,0.4322,-0.5205
-0.06,-0.112,-0.05,-31.4,41.8,-46.7,0,2018,4,24,23,8,21.097,0.6106,-0.4081,0.4344,-0.5214
-0.005,-0.023,-0.109,-33,17.7,-51.2,0,2018,4,24,23,8,21.12,0.6143,-0.3985,0.4397,-0.5199
0.013,-0.089,-0.091,-31.5,12.7,-52.7,1023,2018,4,24,23,8,21.154,0.6172,-0.3903,0.447,-0.5165
0.007,-0.122,-0.054,-28.5,36.5,-50.6,1023,2018,4,24,23,8,21.178,0.6209,-0.3811,0.4527,-0.5139
-0.024,-0.11,-0.006,-28.3,54.6,-49.1,1023,2018,4,24,23,8,21.183,0.6261,-0.3695,0.4555,-0.5136
-0.005,0.05,-0.051,-28.2,57.9,-43.6,1023,2018,4,24,23,8,21.201,0.6316,-0.3568,0.4572,-0.5143
0.028,0.15,-0.041,-24.8,58,-34.2,1023,2018,4,24,23,8,21.224,0.6368,-0.3442,0.4583,-0.5155
0.074,0.068,-0.044,-20.9,65,-21.7,1023,2018,4,24,23,8,21.259,0.6417,-0.3319,0.4581,-0.5177
0.009,-0.005,-0.019,-14.3,78.5,-12.8,1023,2018,4,24,23,8,21.259,0.6461,-0.3203,0.4556,-0.5217
-0.045,0.082,0.067,-13.5,90.7,-6.3,1023,2018,4,24,23,8,21.281,0.6509,-0.3081,0.45,-0.5279
0,0.124,0.047,-14.9,95.7,0.5,1023,2018,4,24,23,8,21.32,0.6557,-0.2948,0.4429,-0.5356
0.072,0.078,-0.053,-11.5,82.4,6.4,1023,2018,4,24,23,8,21.343,0.6593,-0.2823,0.4366,-0.543
0.001,0.104,0.005,-3.8,64.6,13.8,1023,2018,4,24,23,8,21.348,0.6617,-0.2729,0.4309,-0.5494
-0.011,0.056,0.106,-5.6,53.2,19.1,1023,2018,4,24,23,8,21.365,0.6631,-0.2661,0.4249,-0.5557
0.097,0.069,0.049,-11.3,54.2,24.4,1023,2018,4,24,23,8,21.387,0.6634,-0.2596,0.4197,-0.5623
0.211,0.1,-0.123,-8.5,56.3,35.6,1023,2018,4,24,23,8,21.403,0.6621,-0.2542,0.414,-0.5704
0.119,0.102,-0.136,1.1,43.7,41.9,1023,2018,4,24,23,8,21.421,0.6601,-0.2509,0.4076,-0.5787
0.048,0.098,-0.036,2.6,37.6,44.1,0,2018,4,24,23,8,21.444,0.6579,-0.249,0.402,-0.586
0.052,0.148,-0.093,0,34.2,41.6,0,2018,4,24,23,8,21.462,0.6555,-0.2469,0.3972,-0.5928
0.08,0.28,-0.199,0.8,20.7,43.2,0,2018,4,24,23,8,21.483,0.6525,-0.2463,0.3927,-0.5994
0.058,0.278,-0.287,9.8,0.5,53.8,0,2018,4,24,23,8,21.521,0.6481,-0.249,0.389,-0.6054
0.063,0.205,-0.196,21.9,-11.9,58.1,0,2018,4,24,23,8,21.543,0.6429,-0.2554,0.3854,-0.6105
0.093,0.107,-0.112,30.9,-1.7,61.1,0,2018,4,24,23,8,21.546,0.6379,-0.2634,0.3806,-0.6154
0.179,0.107,-0.065,37,28.6,67.7,0,2018,4,24,23,8,21.583,0.6338,-0.2698,0.3724,-0.6218
0.216,0.171,-0.021,42.6,56,84.6,0,2018,4,24,23,8,21.604,0.6302,-0.2741,0.3595,-0.6311
0.085,0.059,0.093,44,64.6,99.4,0,2018,4,24,23,8,21.606,0.6256,-0.2779,0.3433,-0.6429
-0.052,-0.092,0.22,37.1,71.6,105.1,0,2018,4,24,23,8,21.623,0.6199,-0.2805,0.326,-0.6562
-0.015,-0.185,0.282,27.6,92.5,100.7,0,2018,4,24,23,8,21.659,0.6139,-0.2807,0.3078,-0.6704
0.024,-0.407,0.426,14.5,79.3,71.8,0,2018,4,24,23,8,21.682,0.6093,-0.2772,0.29,-0.6838
-0.156,-0.985,0.478,-7.7,39.4,13.8,0,2018,4,24,23,8,21.684,0.607,-0.2738,0.2821,-0.6905
-0.002,-0.185,0.121,-17.5,38.7,-15.2,0,2018,4,24,23,8,21.719,0.6083,-0.2681,0.2795,-0.6926
-0.023,0.194,0.006,-15.3,16.2,-23.2,0,2018,4,24,23,8,21.742,0.6118,-0.2613,0.2788,-0.6925
-0.018,0.275,-0.034,-14.2,-4.3,-15.5,0,2018,4,24,23,8,21.745,0.6136,-0.2582,0.2808,-0.6912
0.014,0.242,-0.096,-9.3,8.1,-4.6,0,2018,4,24,23,8,21.782,0.6147,-0.2551,0.2821,-0.6909
-0.005,0.252,-0.107,-3.4,17.3,6.2,0,2018,4,24,23,8,21.803,0.6154,-0.2516,0.2808,-0.6921
0.026,0.219,-0.079,1.5,23.4,15.2,0,2018,4,24,23,8,21.808,0.6154,-0.2486,0.2778,-0.6943
0.05,0.194,-0.068,6,17.5,24.4,1023,2018,4,24,23,8,21.823,0.6142,-0.2475,0.2738,-0.6974
0.044,0.041,0.01,6.9,-7.4,28.5,1023,2018,4,24,23,8,21.846,0.6117,-0.2485,0.2716,-0.7001
0.014,-0.164,0.086,2.3,-33.9,20.7,1023,2018,4,24,23,8,21.864,0.608,-0.2521,0.2732,-0.7014
0.018,-0.236,0.07,-4.2,-49.8,6.5,1023,2018,4,24,23,8,21.884,0.6044,-0.2573,0.2791,-0.7003
0.043,-0.152,-0.016,-7.7,-56.7,-4.4,1023,2018,4,24,23,8,21.919,0.6014,-0.2626,0.2879,-0.6973
0.038,-0.023,-0.064,-5.9,-47.1,-6.2,1023,2018,4,24,23,8,21.941,0.5994,-0.2669,0.2966,-0.6937
0.014,0.026,-0.081,-3.7,-31.8,-2.5,1023,2018,4,24,23,8,21.946,0.5979,-0.2701,0.3031,-0.691
-0.005,0.033,-0.099,-1.9,-16.2,2.4,1023,2018,4,24,23,8,21.983,0.5966,-0.2723,0.307,-0.6895
0.005,0.027,-0.13,1.3,-4.1,7.8,1023,2018,4,24,23,8,22.004,0.5954,-0.2737,0.309,-0.6891
-0.033,-0.01,-0.092,3.5,-11.9,9.9,1023,2018,4,24,23,8,22.006,0.594,-0.2756,0.3101,-0.6891
-0.025,-0.12,-0.048,3,-1.7,9,1023,2018,4,24,23,8,22.041,0.5923,-0.278,0.3112,-0.6891
-0.023,-0.122,-0.004,2.7,7.9,4.8,1023,2018,4,24,23,8,22.064,0.5916,-0.2789,0.311,-0.6894
-0.034,-0.106,0.01,1.5,17.6,1.2,1023,2018,4,24,23,8,22.071,0.5919,-0.2783,0.3097,-0.69
0.002,-0.052,0.01,0.7,28.5,-1.9,1023,2018,4,24,23,8,22.108,0.5931,-0.2761,0.3075,-0.6909
0.031,0.041,-0.018,1,34.9,-3.3,1023,2018,4,24,23,8,22.13,0.5952,-0.2723,0.3041,-0.6921
0.041,0.067,-0.03,3.3,33,-2.7,0,2018,4,24,23,8,22.134,0.5976,-0.2682,0.3004,-0.6932
0.053,0.07,-0.012,5.1,33,0.4,0,2018,4,24,23,8,22.149,0.5999,-0.2643,0.2965,-0.6944
0.046,0.046,-0.017,5.6,34.3,1.2,0,2018,4,24,23,8,22.166,0.6019,-0.2608,0.2923,-0.6958
0.034,0.078,-0.016,5.8,31.5,1.2,0,2018,4,24,23,8,22.189,0.6039,-0.2572,0.2879,-0.6972
0.012,0.073,0.001,5,22.6,1.8,0,2018,4,24,23,8,22.208,0.6054,-0.2544,0.2842,-0.6984
0.002,0.051,0.045,3,17.7,0.5,0,2018,4,24,23,8,22.23,0.6066,-0.2523,0.2813,-0.6993
0.01,0.04,0.074,1.1,18.4,-2,0,2018,4,24,23,8,22.267,0.6078,-0.25,0.2789,-0.7001
-0.003,0.058,0.076,-0.4,17,-3.5,0,2018,4,24,23,8,22.289,0.6093,-0.2472,0.2765,-0.7007
-0.003,0.059,0.072,-2.4,8.4,-2.3,0,2018,4,24,23,8,22.294,0.6105,-0.2447,0.2749,-0.7012
-0.006,0.06,0.068,-5.5,1.7,-0.6,0,2018,4,24,23,8,22.312,0.6109,-0.2429,0.2744,-0.7016
0.001,0.093,0.015,-8.2,-0.9,0.3,0,2018,4,24,23,8,22.349,0.6108,-0.2415,0.2749,-0.702
0.03,0.097,-0.027,-7.8,-9.5,-0.5,0,2018,4,24,23,8,22.349,0.6105,-0.2403,0.2764,-0.7021
0.054,0.068,-0.034,-6.2,-15,-1.8,0,2018,4,24,23,8,22.372,0.6101,-0.24,0.2791,-0.7015
0.064,0.022,-0.01,-4.6,-22.9,-3.8,0,2018,4,24,23,8,22.389,0.6097,-0.2404,0.2828,-0.7003
0.072,-0.07,0.004,-4.4,-15.1,-5,0,2018,4,24,23,8,22.412,0.6093,-0.2414,0.2869,-0.6986
0.049,-0.066,-0.006,-3.8,-1.5,-6.4,0,2018,4,24,23,8,22.431,0.6096,-0.2411,0.2894,-0.6974
0.037,-0.051,-0.012,-2.9,7.3,-7.2,0,2018,4,24,23,8,22.468,0.6104,-0.2398,0.2906,-0.6966
-0.002,-0.038,-0.009,-1.8,14.6,-7.1,1023,2018,4,24,23,8,22.468,0.6117,-0.2379,0.2903,-0.6962
-0.016,0.021,-0.019,-1.2,17.3,-5.6,1023,2018,4,24,23,8,22.492,0.6131,-0.2356,0.289,-0.6964
-0.012,-0.003,-0.04,-0.6,19,-3.2,1023,2018,4,24,23,8,22.529,0.6143,-0.2336,0.2876,-0.6966
-0.035,0.074,-0.03,-0.3,16.5,-1.6,1023,2018,4,24,23,8,22.551,0.6153,-0.2314,0.2855,-0.6973
-0.028,0.095,-0.034,-2.3,-2.9,-0.7,1023,2018,4,24,23,8,22.557,0.6157,-0.2302,0.2845,-0.6977
-0.002,-0.007,-0.047,-4.3,-24.5,-0.7,1023,2018,4,24,23,8,22.574,0.615,-0.2314,0.2869,-0.6969
0.011,-0.048,-0.044,-4,-22,-0.5,1023,2018,4,24,23,8,22.592,0.6137,-0.2337,0.2911,-0.6955
0.012,-0.05,-0.019,-2.3,-10.1,-0.6,1023,2018,4,24,23,8,22.614,0.613,-0.2351,0.2941,-0.6945
0.013,-0.03,-0.029,-0.6,0.3,-0.9,1023,2018,4,24,23,8,22.633,0.6128,-0.2353,0.2954,-0.694
0.008,-0.007,-0.036,0,2.1,-0.8,1023,2018,4,24,23,8,22.651,0.613,-0.235,0.2958,-0.6938
0.006,-0.008,-0.038,0.3,1.4,-0.9,1023,2018,4,24,23,8,22.689,0.6131,-0.2348,0.2961,-0.6936
-0.003,0.008,-0.023,0.3,2.8,-1.1,1023,2018,4,24,23,8,22.712,0.6134,-0.2346,0.2962,-0.6934
-0.005,0.02,-0.01,0.7,4,-0.5,1023,2018,4,24,23,8,22.715,0.6137,-0.2342,0.296,-0.6934
-0.001,0.013,0,0.8,4.4,-0.2,1023,2018,4,24,23,8,22.733,0.614,-0.2337,0.2956,-0.6934
-0.004,0.017,0.011,0.3,3.7,-0.2,1023,2018,4,24,23,8,22.755,0.6143,-0.2331,0.2951,-0.6936
0,0.022,0.009,-0.4,1,-0.2,1023,2018,4,24,23,8,22.792,0.6145,-0.2325,0.2948,-0.6937
0.01,0.025,0,-1,-1.9,0,1023,2018,4,24,23,8,22.813,0.6146,-0.2322,0.2951,-0.6936
0.013,0.024,-0.01,-0.9,-3.2,0.4,0,2018,4,24,23,8,22.816,0.6145,-0.2321,0.2957,-0.6935
0.011,0.02,-0.014,-0.8,-2.9,0.4,0,2018,4,24,23,8,22.834,0.6143,-0.2322,0.2964,-0.6933
0.012,0.009,-0.007,-0.7,-2.7,0.4,0,2018,4,24,23,8,22.855,0.6142,-0.2322,0.2971,-0.6931
0.018,0,-0.014,-0.6,-1.9,0.3,0,2018,4,24,23,8,22.891,0.6141,-0.2322,0.2978,-0.6929
0.01,0.005,-0.017,-0.4,-0.9,0.3,0,2018,4,24,23,8,22.891,0.614,-0.2321,0.2983,-0.6928
0.005,0.01,-0.01,0,0,0,0,2018,4,24,23,8,22.912,0.614,-0.232,0.2986,-0.6927
0.005,0.009,-0.014,0,0,0,0,2018,4,24,23,8,22.949,0.614,-0.2319,0.2989,-0.6926
0.006,0.014,-0.008,0,0,0,0,2018,4,24,23,8,22.97,0.6141,-0.2317,0.2991,-0.6925
0.004,0.015,-0.002,0,0,0,0,2018,4,24,23,8,22.975,0.6141,-0.2316,0.2992,-0.6924
0,0.017,-0.006,-0.1,-0.5,0.2,0,2018,4,24,23,8,23.01,0.6142,-0.2314,0.2994,-0.6924
-0.002,0.02,-0.003,-0.4,-1.5,0.4,0,2018,4,24,23,8,23.033,0.6142,-0.2313,0.2996,-0.6924
0,0.014,-0.008,-0.3,-2.2,0.4,0,2018,4,24,23,8,23.036,0.6141,-0.2314,0.3,-0.6923
0,0.009,-0.008,-0.4,-1.9,0.2,0,2018,4,24,23,8,23.073,0.6139,-0.2315,0.3005,-0.6921
0.005,0.008,-0.007,0,-1.7,0.1,0,2018,4,24,23,8,23.096,0.6139,-0.2315,0.3009,-0.692
0.003,0.012,-0.009,-0.2,-1.4,-0.2,0,2018,4,24,23,8,23.1,0.6138,-0.2316,0.3013,-0.6918
0.006,0.01,-0.011,-0.2,-1.8,-0.2,0,2018,4,24,23,8,23.114,0.6138,-0.2316,0.3017,-0.6917
0.004,0.014,-0.013,-0.2,-2.3,-0.1,0,2018,4,24,23,8,23.15,0.6138,-0.2316,0.3022,-0.6915
0.006,0.01,-0.008,-0.2,-1.8,0.3,1023,2018,4,24,23,8,23.173,0.6137,-0.2317,0.3027,-0.6913
0.007,0.006,-0.015,-0.1,-1.3,0.4,1023,2018,4,24,23,8,23.176,0.6136,-0.2318,0.3031,-0.6911
0.005,0.004,-0.015,-0.1,-0.9,0.5,1023,2018,4,24,23,8,23.214,0.6135,-0.2318,0.3035,-0.691
0.004,0.006,-0.006,0,0,0,1023,2018,4,24,23,8,23.235,0.6135,-0.2318,0.3038,-0.691
0.004,0.008,-0.013,0.1,0.6,0.1,1023,2018,4,24,23,8,23.237,0.6135,-0.2317,0.3039,-0.6909
0.001,0.012,-0.009,0.3,0.9,0.1,1023,2018,4,24,23,8,23.274,0.6136,-0.2315,0.304,-0.6909
0.005,0.012,-0.01,0.1,0.9,0.2,1023,2018,4,24,23,8,23.295,0.6137,-0.2314,0.304,-0.6909
0.004,0.017,-0.007,0,0,0,1023,2018,4,24,23,8,23.298,0.6137,-0.2311,0.304,-0.6909
0.001,0.021,-0.004,-0.4,-0.5,0.2,1023,2018,4,24,23,8,23.332,0.6138,-0.231,0.3041,-0.6908
0.002,0.023,0,-0.7,-2,0.2,1023,2018,4,24,23,8,23.353,0.6138,-0.2309,0.3044,-0.6908
0,0.019,0.003,-0.8,-3.2,0.7,1023,2018,4,24,23,8,23.361,0.6136,-0.2309,0.3048,-0.6907
0,0.006,-0.005,-0.5,-3.2,0.7,1023,2018,4,24,23,8,23.396,0.6134,-0.2311,0.3053,-0.6906
0.001,0.008,-0.003,-0.4,-2.5,0.2,1023,2018,4,24,23,8,23.419,0.6132,-0.2313,0.3058,-0.6905
0,0.008,-0.012,-0.5,-2.2,-0.2,1023,2018,4,24,23,8,23.423,0.6131,-0.2315,0.3063,-0.6903
0,0.011,-0.01,-0.4,-2,0.1,1023,2018,4,24,23,8,23.437,0.613,-0.2316,0.3067,-0.6902
-0.003,0.01,-0.017,-0.3,-1.5,0.2,1023,2018,4,24,23,8,23.474,0.6129,-0.2317,0.3071,-0.69
0,0.008,-0.013,-0.1,-0.7,0.1,0,2018,4,24,23,8,23.496,0.6128,-0.2317,0.3074,-0.69
0.001,0.007,-0.011,0,0,0,0,2018,4,24,23,8,23.499,0.6128,-0.2317,0.3076,-0.6899
0.007,0.012,-0.009,0,0,0,0,2018,4,24,23,8,23.534,0.6129,-0.2316,0.3077,-0.6898
0.007,0.013,-0.009,-0.1,-0.8,-0.2,0,2018,4,24,23,8,23.557,0.6129,-0.2315,0.3079,-0.6897
0.006,0.011,-0.007,0,-0.6,0.2,0,2018,4,24,23,8,23.56,0.613,-0.2314,0.3081,-0.6897
0.003,0.01,-0.012,0,0,0,0,2018,4,24,23,8,23.598,0.613,-0.2313,0.3082,-0.6896
0.001,0.008,-0.012,0,0,0,0,2018,4,24,23,8,23.619,0.613,-0.2312,0.3084,-0.6895
0.001,0.008,-0.013,0,0,0,0,2018,4,24,23,8,23.623,0.613,-0.2312,0.3085,-0.6895
0,0.01,-0.011,0,0,0,0,2018,4,24,23,8,23.644,0.613,-0.2311,0.3086,-0.6894
-0.002,0.011,-0.009,0,0,0,0,2018,4,24,23,8,23.659,0.6131,-0.2311,0.3087,-0.6894
-0.003,0.01,-0.009,0,0,0,0,2018,4,24,23,8,23.677,0.6131,-0.231,0.3088,-0.6894
-0.002,0.011,-0.01,0,0,0,0,2018,4,24,23,8,23.7,0.6131,-0.231,0.3089,-0.6893
0,0.011,-0.013,0,0.6,0.1,0,2018,4,24,23,8,23.736,0.6131,-0.2309,0.3089,-0.6893
0,0.011,-0.008,0.2,0.7,0,0,2018,4,24,23,8,23.757,0.6132,-0.2308,0.3089,-0.6893
0.003,0.012,-0.004,0.1,0.6,-0.1,0,2018,4,24,23,8,23.762,0.6133,-0.2307,0.3089,-0.6893
-0.004,0.007,-0.009,0,0,0,0,2018,4,24,23,8,23.796,0.6133,-0.2306,0.3089,-0.6893
-0.004,0.011,-0.005,0,0,0,0,2018,4,24,23,8,23.819,0.6133,-0.2305,0.3089,-0.6893
0.002,0.009,-0.016,0,0,0,0,2018,4,24,23,8,23.822,0.6133,-0.2305,0.309,-0.6893
0.006,0.016,-0.022,0.3,1.3,-0.2,0,2018,4,24,23,8,23.86,0.6133,-0.2305,0.309,-0.6893
0.023,0.02,-0.035,1.4,1.9,-0.4,0,2018,4,24,23,8,23.86,0.6135,-0.2303,0.309,-0.6892
0.017,0.001,-0.024,2.9,3.5,0.4,0,2018,4,24,23,8,23.881,0.6137,-0.2302,0.3087,-0.6891
0.01,-0.028,0.006,3.2,4.6,0.7,0,2018,4,24,23,8,23.916,0.614,-0.2301,0.3081,-0.6892
0.006,-0.025,0.004,2.8,5.9,0,1023,2018,4,24,23,8,23.938,0.6143,-0.2299,0.3073,-0.6893
0.01,0.02,-0.012,2.9,4.6,-1.2,1023,2018,4,24,23,8,23.942,0.6148,-0.2295,0.3066,-0.6893
0.023,0.061,-0.045,3.1,-1.5,-0.5,1023,2018,4,24,23,8,23.975,0.6153,-0.2294,0.3062,-0.6891
0.021,0.061,-0.069,3.2,-10.1,1.5,1023,2018,4,24,23,8,23.998,0.6153,-0.2301,0.3068,-0.6886
0.012,-0.003,-0.031,4.5,-14.9,1.5,1023,2018,4,24,23,8,24.001,0.6147,-0.232,0.3082,-0.6878
0.005,-0.066,0.039,5.6,-6.4,-0.8,1023,2018,4,24,23,8,24.037,0.6145,-0.234,0.3093,-0.6869
0,-0.026,0.064,5.4,4.9,-2.3,1023,2018,4,24,23,8,24.058,0.615,-0.2345,0.3087,-0.6865
0.005,0.052,0.036,2.7,0.9,-2.1,1023,2018,4,24,23,8,24.063,0.6159,-0.2341,0.3076,-0.6864
0.018,0.075,-0.019,0.6,-12.3,-0.6,1023,2018,4,24,23,8,24.101,0.6161,-0.2344,0.308,-0.6859
0.039,0.044,-0.018,1.4,-18.5,2,1023,2018,4,24,23,8,24.124,0.6155,-0.2358,0.3099,-0.685
0.036,-0.023,0.014,2.7,-11,3.5,1023,2018,4,24,23,8,24.128,0.6148,-0.2377,0.3117,-0.6843
0.028,-0.006,0.009,2.9,1,4,1023,2018,4,24,23,8,24.161,0.6144,-0.2383,0.3119,-0.6842
0.016,0.001,-0.01,4.6,0.8,3.2,1023,2018,4,24,23,8,24.161,0.6144,-0.2385,0.3115,-0.6845
0.031,-0.03,0.002,6.4,-1.7,4.5,0,2018,4,24,23,8,24.185,0.6142,-0.2393,0.311,-0.6845
0.034,-0.046,0.024,6,6.6,4.7,0,2018,4,24,23,8,24.221,0.6141,-0.2401,0.3103,-0.6847
0.065,0.047,-0.016,5.3,9.6,4,0,2018,4,24,23,8,24.244,0.6144,-0.2396,0.3087,-0.6853
0.1,0.073,-0.038,7.8,-6.4,4.9,0,2018,4,24,23,8,24.248,0.6147,-0.2396,0.3078,-0.6855
0.108,-0.008,0.017,9.5,-13.1,7.8,0,2018,4,24,23,8,24.267,0.6142,-0.2414,0.3086,-0.6849
0.088,-0.051,0.05,8.8,-7.9,9.3,0,2018,4,24,23,8,24.285,0.6135,-0.2435,0.3091,-0.6845
0.093,-0.062,0.016,9.6,2.1,10.2,0,2018,4,24,23,8,24.305,0.6129,-0.2449,0.3087,-0.6848
0.069,-0.065,0,11.7,8.7,10.9,0,2018,4,24,23,8,24.325,0.6126,-0.2458,0.3072,-0.6854
0.031,-0.064,0.01,13,10.4,10.2,0,2018,4,24,23,8,24.345,0.6124,-0.2467,0.3047,-0.6863
0.019,-0.085,0.008,15.3,18.5,8.2,0,2018,4,24,23,8,24.384,0.6126,-0.2475,0.3016,-0.6872
0.001,-0.109,0.045,18.4,37.9,4.7,0,2018,4,24,23,8,24.384,0.6139,-0.2471,0.2965,-0.6885
-0.027,-0.07,0.031,20.1,55.3,0.7,0,2018,4,24,23,8,24.408,0.6165,-0.2447,0.2888,-0.6903
-0.081,0.021,-0.007,20.2,56.9,-3,0,2018,4,24,23,8,24.426,0.6199,-0.2412,0.2795,-0.6922
-0.094,0.009,-0.039,22.6,52.4,-4.2,0,2018,4,24,23,8,24.462,0.6234,-0.2385,0.2703,-0.6937
-0.101,-0.05,0.015,23.2,64.8,-4.4,0,2018,4,24,23,8,24.486,0.6271,-0.2356,0.2605,-0.6951
-0.091,-0.014,0.036,19,77.2,-5,0,2018,4,24,23,8,24.49,0.6313,-0.2308,0.2491,-0.6971
-0.068,0.077,-0.012,15.5,77.2,-6.3,0,2018,4,24,23,8,24.506,0.6357,-0.2243,0.2372,-0.6994
-0.019,0.07,-0.043,16.2,74.5,-6.2,0,2018,4,24,23,8,24.529,0.64,-0.2176,0.2259,-0.7013
0,0.093,-0.031,15.6,76,-8,0,2018,4,24,23,8,24.566,0.6444,-0.2106,0.2147,-0.703
0.047,0.166,-0.069,14.8,65.6,-9.5,0,2018,4,24,23,8,24.588,0.6488,-0.2032,0.2041,-0.7042
0.067,0.188,-0.119,17.8,44.4,-7.5,0,2018,4,24,23,8,24.594,0.6524,-0.1985,0.1958,-0.7046
0.113,0.144,-0.091,23.5,26.2,-2.6,1023,2018,4,24,23,8,24.605,0.655,-0.197,0.1894,-0.7044
0.159,0.021,-0.046,31.9,30.3,3.7,1023,2018,4,24,23,8,24.624,0.6567,-0.1974,0.183,-0.7044
0.112,-0.031,0.024,39.5,46.5,10.4,1023,2018,4,24,23,8,24.646,0.6583,-0.1975,0.174,-0.7051
0.076,0.005,0.027,45.3,58.1,17.6,1023,2018,4,24,23,8,24.684,0.6599,-0.1964,0.1626,-0.7067
0.133,0.034,0.022,51.4,61,25.4,1023,2018,4,24,23,8,24.706,0.6607,-0.1953,0.1492,-0.7091
0.136,-0.001,0.052,55.3,60.2,31.1,1023,2018,4,24,23,8,24.711,0.6606,-0.1956,0.1344,-0.7121
0.099,-0.03,0.069,55.8,52.3,34.4,1023,2018,4,24,23,8,24.726,0.6599,-0.1958,0.1206,-0.7152
0.033,-0.057,0.082,54.3,42.8,35.6,1023,2018,4,24,23,8,24.765,0.6584,-0.1975,0.1076,-0.7182
0.089,-0.095,0.066,50.1,33.3,32,1023,2018,4,24,23,8,24.788,0.6564,-0.2001,0.0965,-0.7209
0.123,-0.136,0.059,48.7,34,26,1023,2018,4,24,23,8,24.793,0.6547,-0.2029,0.0857,-0.7229
0.041,-0.144,0.018,49.3,34.4,22.7,1023,2018,4,24,23,8,24.833,0.6536,-0.2056,0.075,-0.7244
-0.078,-0.171,-0.031,49,31.2,19.9,1023,2018,4,24,23,8,24.834,0.6527,-0.2087,0.065,-0.7253
-0.008,-0.126,-0.004,47.5,28.1,14.4,1023,2018,4,24,23,8,24.851,0.652,-0.2123,0.0556,-0.7257
-0.012,-0.093,0.035,44.6,19.5,5.4,1023,2018,4,24,23,8,24.888,0.6521,-0.2159,0.0476,-0.7251
-0.078,-0.082,-0.027,41.3,3,-2.7,1023,2018,4,24,23,8,24.911,0.6527,-0.2207,0.0417,-0.7235
-0.12,-0.126,-0.105,42.2,-8.4,-9.4,1023,2018,4,24,23,8,24.915,0.6536,-0.2265,0.0377,-0.7211
-0.058,-0.161,-0.006,42.6,-1.8,-18.7,1023,2018,4,24,23,8,24.929,0.6554,-0.2325,0.0342,-0.7177
0.064,-0.104,-0.001,40.7,8.9,-29.5,0,2018,4,24,23,8,24.947,0.6589,-0.2376,0.0309,-0.7129
0.081,-0.033,-0.039,40.5,10.9,-36.4,0,2018,4,24,23,8,24.97,0.6638,-0.2411,0.0266,-0.7073
0.07,-0.025,-0.057,41.8,5.9,-39.5,0,2018,4,24,23,8,24.988,0.6692,-0.245,0.0233,-0.701
0.124,-0.037,0.021,42.5,9.5,-40.5,0,2018,4,24,23,8,25.012,0.6747,-0.249,0.0201,-0.6944
0.185,-0.022,0.043,39.8,21.5,-39.8,0,2018,4,24,23,8,25.049,0.6804,-0.252,0.0151,-0.6879
0.197,0.043,-0.022,36,25.7,-38.1,0,2018,4,24,23,8,25.071,0.6862,-0.2534,0.0094,-0.6816
0.084,0.049,-0.04,34.1,18.8,-35.9,0,2018,4,24,23,8,25.077,0.6918,-0.2543,0.0044,-0.6757
0.022,0.072,-0.032,29.3,8.7,-33.4,0,2018,4,24,23,8,25.092,0.6966,-0.2559,0.0003,-0.6702
0,0.064,-0.055,24.6,-4.1,-32.3,0,2018,4,24,23,8,25.114,0.7004,-0.2586,-0.002,-0.6651
-0.028,0.047,-0.083,22.4,-9.8,-31.7,0,2018,4,24,23,8,25.13,0.7036,-0.2623,-0.0029,-0.6602
-0.116,0.033,-0.145,22.1,-9.8,-29.8,0,2018,4,24,23,8,25.167,0.7065,-0.2666,-0.0035,-0.6554
-0.171,0.039,-0.181,23.9,-6.2,-26.1,0,2018,4,24,23,8,25.19,0.7093,-0.2703,-0.0041,-0.6509
-0.127,0.036,-0.092,26.4,4,-23.9,0,2018,4,24,23,8,25.196,0.712,-0.2733,-0.0059,-0.6466
-0.126,0.052,-0.093,28.1,12.9,-24.8,0,2018,4,24,23,8,25.212,0.715,-0.2757,-0.0097,-0.6423
-0.144,0.097,-0.203,31.1,9,-24.7,0,2018,4,24,23,8,25.231,0.7183,-0.2775,-0.0136,-0.6377
-0.142,0.123,-0.227,36.5,-3.1,-22.7,0,2018,4,24,23,8,25.253,0.721,-0.281,-0.017,-0.633
-0.104,0.094,-0.146,42.3,-9.5,-19.4,0,2018,4,24,23,8,25.27,0.7228,-0.2864,-0.0201,-0.6285
-0.058,0.043,-0.087,46.1,-2,-17,0,2018,4,24,23,8,25.294,0.7241,-0.2925,-0.0246,-0.624
-0.039,0.058,-0.12,47.5,11.4,-15.6,0,2018,4,24,23,8,25.329,0.7256,-0.2975,-0.031,-0.6195
-0.041,0.135,-0.168,47.9,12.5,-14.8,0,2018,4,24,23,8,25.352,0.7275,-0.3013,-0.0382,-0.6151
-0.034,0.135,-0.12,49.5,6.2,-14.3,1023,2018,4,24,23,8,25.356,0.7292,-0.3055,-0.0446,-0.6106
-0.057,0.115,-0.102,48.2,1.2,-11.7,1023,2018,4,24,23,8,25.372,0.7304,-0.3104,-0.0506,-0.6062
-0.051,0.12,-0.102,47.6,-1.4,-7.3,1023,2018,4,24,23,8,25.39,0.7309,-0.3156,-0.0561,-0.6024
-0.088,0.124,-0.085,46.2,-3.9,-1.3,1023,2018,4,24,23,8,25.413,0.7307,-0.3209,-0.0616,-0.5993
-0.097,0.15,-0.097,42.6,-14.2,5.6,1023,2018,4,24,23,8,25.448,0.7295,-0.3266,-0.0665,-0.5971
-0.068,0.188,-0.142,41,-35.7,13.8,1023,2018,4,24,23,8,25.47,0.7266,-0.3339,-0.0698,-0.5963
-0.014,0.172,-0.139,43.2,-57.2,21,1023,2018,4,24,23,8,25.476,0.7214,-0.3441,-0.0711,-0.5967
-0.013,0.118,-0.09,47.8,-60.2,27.7,1023,2018,4,24,23,8,25.492,0.7145,-0.3561,-0.0723,-0.5977
-0.011,0.085,-0.087,50.7,-46.2,34.3,1023,2018,4,24,23,8,25.514,0.7069,-0.3676,-0.0756,-0.5994
0,0.067,-0.102,55.9,-29.6,38.5,1023,2018,4,24,23,8,25.55,0.6996,-0.3775,-0.0813,-0.6011
-0.026,0.101,-0.105,61.8,-5.8,45.4,1023,2018,4,24,23,8,25.573,0.6928,-0.3856,-0.0901,-0.6025
-0.037,0.078,-0.094,68.4,11.8,48.4,1023,2018,4,24,23,8,25.579,0.6868,-0.3912,-0.1022,-0.6039
-0.005,0.069,-0.129,74.5,18.5,49.3,1023,2018,4,24,23,8,25.595,0.681,-0.3963,-0.1166,-0.6045
-0.033,0.146,-0.179,82.5,11.6,52.6,1023,2018,4,24,23,8,25.618,0.6748,-0.402,-0.1314,-0.6047
-0.074,0.206,-0.223,90.5,-9.9,57.1,1023,2018,4,24,23,8,25.637,0.667,-0.4095,-0.1458,-0.605
-0.219,-0.055,-0.243,95.8,-36,53.5,0,2018,4,24,23,8,25.658,0.6565,-0.4215,-0.1576,-0.6052
-0.176,-0.605,0.391,77.5,67.8,36.4,0,2018,4,24,23,8,25.674,0.6501,-0.4278,-0.1723,-0.6038
-0.284,0.365,0.477,56.8,13.5,35.6,0,2018,4,24,23,8,25.711,0.6491,-0.427,-0.1887,-0.6005
-0.139,-0.133,0.207,38.5,-71.2,43.7,0,2018,4,24,23,8,25.733,0.6402,-0.435,-0.1922,-0.6032
0.096,0.188,0.045,41.8,-125.3,45.6,0,2018,4,24,23,8,25.736,0.627,-0.4481,-0.1892,-0.6084
0.146,-0.091,-0.117,61.8,-137,60.1,0,2018,4,24,23,8,25.772,0.6084,-0.467,-0.1841,-0.6146
0.075,-0.172,0.116,80.1,-56.2,67.3,0,2018,4,24,23,8,25.796,0.5909,-0.4831,-0.1864,-0.6185
-0.066,0.048,0.359,75.1,0.2,67.6,0,2018,4,24,23,8,25.8,0.5792,-0.4913,-0.1982,-0.6194
-0.001,0.305,0.227,64.6,-37.2,69.1,0,2018,4,24,23,8,25.817,0.5683,-0.4977,-0.2096,-0.6207
0.146,0.143,-0.037,61.5,-68.1,78,0,2018,4,24,23,8,25.837,0.5528,-0.5073,-0.2158,-0.6247
0.123,-0.125,-0.074,68.6,-35.8,80.5,0,2018,4,24,23,8,25.875,0.5366,-0.5167,-0.223,-0.6286
-0.065,-0.112,0.001,71.4,-11.1,73.8,0,2018,4,24,23,8,25.875,0.5238,-0.5236,-0.234,-0.6297
-0.181,0.045,-0.072,70.6,-11.7,68.7,0,2018,4,24,23,8,25.898,0.512,-0.5298,-0.246,-0.6297
-0.09,0.004,-0.326,76.1,-13.8,68.7,0,2018,4,24,23,8,25.915,0.4998,-0.5361,-0.2572,-0.6296
-0.138,0.013,-0.27,83.7,-6,69.8,0,2018,4,24,23,8,25.937,0.4877,-0.5426,-0.2697,-0.6283
-0.148,0.029,-0.141,81.1,3.2,70.2,0,2018,4,24,23,8,25.956,0.476,-0.5482,-0.2834,-0.6264
-0.116,0.082,-0.125,73,3.5,68.5,0,2018,4,24,23,8,25.979,0.4647,-0.553,-0.2969,-0.6244
-0.111,0.004,-0.114,67.8,2.1,67.3,1023,2018,4,24,23,8,26.015,0.4533,-0.5577,-0.3096,-0.6224
-0.109,-0.013,-0.082,65.6,0.1,69.7,1023,2018,4,24,23,8,26.038,0.4419,-0.5617,-0.322,-0.6207
-0.153,-0.029,-0.047,63.9,-1.8,72.4,1023,2018,4,24,23,8,26.044,0.4302,-0.565,-0.3343,-0.6194
-0.146,-0.058,-0.004,61.4,-3.8,73.3,1023,2018,4,24,23,8,26.06,0.4183,-0.568,-0.3459,-0.6185
-0.121,-0.068,-0.012,59,-2.2,76,1023,2018,4,24,23,8,26.078,0.4065,-0.5706,-0.3567,-0.6178
-0.093,-0.132,0.024,59.5,-3.9,77.5,1023,2018,4,24,23,8,26.101,0.3947,-0.5728,-0.3675,-0.6172
-0.132,-0.104,0.123,59.6,2.3,80.3,1023,2018,4,24,23,8,26.118,0.3829,-0.5741,-0.3787,-0.6165
-0.142,-0.235,0.166,59.7,19.7,82.6,1023,2018,4,24,23,8,26.141,0.3709,-0.5745,-0.3917,-0.6154
-0.141,-0.246,0.168,53.6,33.7,80.1,1023,2018,4,24,23,8,26.159,0.361,-0.5732,-0.4062,-0.6131
-0.123,-0.175,0.155,43.4,37.1,78.2,1023,2018,4,24,23,8,26.177,0.3528,-0.5702,-0.4214,-0.6104
-0.05,-0.377,0.033,38.6,53.1,62.1,1023,2018,4,24,23,8,26.197,0.3465,-0.5667,-0.4356,-0.6073
-0.057,-0.454,-0.038,38.7,79,35.4,1023,2018,4,24,23,8,26.236,0.3448,-0.563,-0.4498,-0.6014
-0.141,-0.288,-0.03,32.1,105.6,6.3,1023,2018,4,24,23,8,26.256,0.3488,-0.5595,-0.4642,-0.5913
-0.203,-0.23,-0.113,26.7,100.9,-26.8,1023,2018,4,24,23,8,26.263,0.3574,-0.557,-0.4758,-0.5792
-0.306,-0.058,-0.078,20.5,89.3,-54.4,1023,2018,4,24,23,8,26.277,0.3687,-0.5572,-0.483,-0.5658
-0.34,0.242,-0.013,0.9,47.9,-72,1023,2018,4,24,23,8,26.302,0.3806,-0.5589,-0.4847,-0.5546
-0.27,0.423,0.006,-17.7,-31.3,-82.2,1023,2018,4,24,23,8,26.339,0.3894,-0.5639,-0.4776,-0.5496
-0.25,0.371,0.073,-30.9,-130.7,-91.3,1023,2018,4,24,23,8,26.339,0.3911,-0.5744,-0.4595,-0.553
-0.213,0.157,0.117,-40.9,-195.9,-102.7,1023,2018,4,24,23,8,26.361,0.3859,-0.5898,-0.4309,-0.5633
-0.175,0.037,0.133,-48.2,-215,-108.1,0,2018,4,24,23,8,26.396,0.378,-0.6064,-0.3959,-0.5766
-0.13,0.043,0.096,-50.5,-201.4,-108.8,0,2018,4,24,23,8,26.419,0.3702,-0.6215,-0.3593,-0.5895
-0.106,0.029,0.059,-45.9,-165.4,-104.1,0,2018,4,24,23,8,26.424,0.364,-0.634,-0.3252,-0.5997
-0.069,0.031,0.052,-38.2,-112.5,-98.4,0,2018,4,24,23,8,26.443,0.3615,-0.6434,-0.2968,-0.6059
-0.025,0.051,0.074,-33.8,-58.8,-93.1,0,2018,4,24,23,8,26.46,0.3639,-0.6492,-0.2749,-0.6086
0.029,0.086,0.085,-33.8,-14.2,-90,0,2018,4,24,23,8,26.482,0.3712,-0.6514,-0.2589,-0.6089
0.087,0.134,0.087,-36.9,16.5,-88.3,0,2018,4,24,23,8,26.5,0.3825,-0.6511,-0.2469,-0.6071
0.11,0.192,0.069,-42.3,29.6,-85.8,0,2018,4,24,23,8,26.523,0.3963,-0.6489,-0.2369,-0.6046
0.103,0.281,0.038,-49.2,24,-80,0,2018,4,24,23,8,26.54,0.4101,-0.6454,-0.2273,-0.6028
0.106,0.321,0.022,-55.9,2.1,-70.5,0,2018,4,24,23,8,26.563,0.4216,-0.6418,-0.2164,-0.6027
0.123,0.326,-0.011,-61,-28.8,-58.1,0,2018,4,24,23,8,26.601,0.4289,-0.639,-0.2034,-0.6051
0.11,0.282,-0.024,-64.2,-57.3,-44.2,0,2018,4,24,23,8,26.624,0.4315,-0.6375,-0.1883,-0.6098
0.091,0.208,-0.047,-65.4,-71,-31.4,0,2018,4,24,23,8,26.629,0.4302,-0.6367,-0.1722,-0.6162
0.106,0.159,-0.059,-65.2,-69.8,-22.5,0,2018,4,24,23,8,26.642,0.4267,-0.6357,-0.1569,-0.6237
0.137,0.13,-0.096,-62.9,-58.2,-18.3,1023,2018,4,24,23,8,26.659,0.4227,-0.6343,-0.1437,-0.631
0.126,0.114,-0.112,-58.9,-41.8,-17.1,1023,2018,4,24,23,8,26.683,0.4199,-0.6322,-0.1324,-0.6374
0.052,0.125,-0.107,-57.6,-25.1,-16.5,1023,2018,4,24,23,8,26.72,0.4192,-0.6288,-0.1229,-0.6432
-0.006,0.16,-0.128,-58.4,-17,-15,1023,2018,4,24,23,8,26.742,0.42,-0.624,-0.1147,-0.6487
-0.048,0.191,-0.151,-60.4,-21.1,-12.5,1023,2018,4,24,23,8,26.747,0.4207,-0.6189,-0.1068,-0.6545
-0.071,0.221,-0.164,-62.6,-36.2,-8.9,1023,2018,4,24,23,8,26.761,0.42,-0.6141,-0.0978,-0.6609
-0.097,0.212,-0.169,-64.8,-56,-3.9,1023,2018,4,24,23,8,26.799,0.4168,-0.6102,-0.0871,-0.668
-0.108,0.196,-0.189,-66,-72.6,1.9,1023,2018,4,24,23,8,26.822,0.4109,-0.6072,-0.0745,-0.6758
-0.116,0.152,-0.204,-64.2,-78.6,8.2,1023,2018,4,24,23,8,26.826,0.4029,-0.6049,-0.0613,-0.684
-0.113,0.118,-0.217,-59.2,-74.3,15.4,1023,2018,4,24,23,8,26.845,0.3939,-0.6027,-0.0489,-0.6921
-0.082,0.083,-0.214,-52.1,-62.7,21.4,1023,2018,4,24,23,8,26.867,0.3848,-0.6005,-0.0388,-0.6997
-0.044,0.083,-0.21,-43.9,-47.1,26.1,1023,2018,4,24,23,8,26.885,0.3765,-0.5981,-0.0314,-0.7067
0.001,0.094,-0.198,-35.1,-36.4,29,1023,2018,4,24,23,8,26.907,0.369,-0.5957,-0.0266,-0.7128
0.045,0.086,-0.174,-26.5,-26.6,30.3,1023,2018,4,24,23,8,26.944,0.3621,-0.5938,-0.0239,-0.718
0.146,0.082,-0.147,-5.4,-1.4,26.4,1023,2018,4,24,23,8,26.968,0.3467,-0.5917,-0.0255,-0.7272
0.125,0.071,-0.14,1.1,2,25.4,1023,2018,4,24,23,8,26.972,0.3431,-0.5922,-0.0284,-0.7284
0.105,0.086,-0.119,7.1,5.5,26.9,1023,2018,4,24,23,8,26.987,0.3398,-0.5932,-0.0321,-0.729
0.07,0.049,-0.099,12.3,4.2,29.8,1023,2018,4,24,23,8,27.004,0.3362,-0.5947,-0.0365,-0.7293
0.032,0.031,-0.068,17.6,7.8,34.1,0,2018,4,24,23,8,27.025,0.3324,-0.5966,-0.0415,-0.7292
0.011,0.006,-0.016,21.4,9.7,38.7,0,2018,4,24,23,8,27.063,0.3284,-0.5985,-0.0477,-0.729
0.016,-0.006,0.02,24,13.7,40.4,0,2018,4,24,23,8,27.085,0.3245,-0.6003,-0.0545,-0.7288
0.03,-0.044,0.044,25,19,38.5,0,2018,4,24,23,8,27.09,0.3212,-0.6019,-0.0618,-0.7283
0.065,-0.015,0.055,24.6,20.1,32.4,0,2018,4,24,23,8,27.108,0.319,-0.6031,-0.0691,-0.7277
0.079,-0.034,0.053,24.6,18.9,24,0,2018,4,24,23,8,27.126,0.3176,-0.6043,-0.0754,-0.7267
0.021,0.005,0.077,24.2,11.5,15.9,0,2018,4,24,23,8,27.149,0.3168,-0.6056,-0.0806,-0.7254
-0.041,0.008,0.097,23.4,2.3,9,0,2018,4,24,23,8,27.187,0.3158,-0.6075,-0.0839,-0.7239
-0.093,-0.016,0.125,21.7,-2,5.1,0,2018,4,24,23,8,27.21,0.3148,-0.6097,-0.0858,-0.7223
-0.09,-0.021,0.153,18.3,-5.2,3.7,0,2018,4,24,23,8,27.214,0.3138,-0.6116,-0.0868,-0.721
-0.023,-0.019,0.165,14.4,-7.7,2.5,0,2018,4,24,23,8,27.229,0.3128,-0.6129,-0.0869,-0.7202
0.043,-0.019,0.168,10.7,-8.5,1.4,0,2018,4,24,23,8,27.246,0.3115,-0.6147,-0.0867,-0.7193
0.094,-0.009,0.175,6.9,-8.3,-0.8,0,2018,4,24,23,8,27.269,0.3104,-0.6163,-0.0861,-0.7185
0.104,0,0.181,2.3,-8.3,-3.8,1023,2018,4,24,23,8,27.306,0.3098,-0.6173,-0.0851,-0.718
0.084,0,0.169,-2.4,-8.9,-6,1023,2018,4,24,23,8,27.329,0.3095,-0.6179,-0.0834,-0.7179
0.032,-0.01,0.148,-6.7,-5.8,-6.6,1023,2018,4,24,23,8,27.334,0.3096,-0.6177,-0.0814,-0.7182
-0.03,-0.011,0.117,-9.1,0.6,-4.8,1023,2018,4,24,23,8,27.352,0.3106,-0.616,-0.0798,-0.7194
-0.089,-0.002,0.116,-11.4,2.4,-1.6,1023,2018,4,24,23,8,27.369,0.3115,-0.6139,-0.0791,-0.7209
-0.124,0.004,0.102,-14.8,-0.3,1.2,1023,2018,4,24,23,8,27.392,0.3119,-0.6116,-0.0787,-0.7227
-0.107,0.01,0.086,-18.9,-7.1,2.1,1023,2018,4,24,23,8,27.41,0.3114,-0.6091,-0.0777,-0.7251
-0.069,0.012,0.056,-22.5,-16.9,0,1023,2018,4,24,23,8,27.433,0.3102,-0.6068,-0.0753,-0.7278
-0.02,0.017,0.024,-24.6,-26.2,-4.8,1023,2018,4,24,23,8,27.45,0.3085,-0.6047,-0.0711,-0.7307
0.015,0.009,0.008,-25.9,-31.5,-10.5,1023,2018,4,24,23,8,27.471,0.3067,-0.603,-0.0652,-0.7334
0.042,0.006,-0.016,-25.9,-31.7,-15,1023,2018,4,24,23,8,27.49,0.3053,-0.6015,-0.0582,-0.7358
0.055,0.007,-0.035,-24.7,-26.4,-17.5,1023,2018,4,24,23,8,27.524,0.3046,-0.6001,-0.0513,-0.7378
0.047,0.009,-0.058,-22.8,-19,-17.5,1023,2018,4,24,23,8,27.549,0.3048,-0.5986,-0.0452,-0.7393
0.024,0.016,-0.065,-20,-11.1,-14.5,1023,2018,4,24,23,8,27.555,0.3053,-0.5972,-0.0405,-0.7405
-0.011,0.015,-0.065,-17,-3.4,-9.2,1023,2018,4,24,23,8,27.572,0.3061,-0.5958,-0.0374,-0.7415
-0.023,0.016,-0.063,-14.5,2.9,-3,1023,2018,4,24,23,8,27.59,0.3067,-0.5943,-0.0362,-0.7424
-0.03,0.026,-0.069,-12.5,5.1,2.7,1023,2018,4,24,23,8,27.614,0.307,-0.5929,-0.0363,-0.7435
-0.02,0.034,-0.075,-10.7,2.6,6.6,1023,2018,4,24,23,8,27.631,0.3065,-0.5917,-0.037,-0.7446
-0.014,0.024,-0.089,-9.3,-1.7,7.3,1023,2018,4,24,23,8,27.653,0.3053,-0.591,-0.0376,-0.7456
-0.008,0.011,-0.094,-8.1,-4.1,6,1023,2018,4,24,23,8,27.671,0.3038,-0.5908,-0.0376,-0.7464
-0.006,0.003,-0.096,-7,-4.8,3.4,0,2018,4,24,23,8,27.694,0.3025,-0.5908,-0.0372,-0.7469
-0.012,0,-0.099,-5.6,-4,0.4,0,2018,4,24,23,8,27.731,0.3016,-0.591,-0.0365,-0.7472
-0.022,0.002,-0.1,-3.7,-2.6,-2.1,0,2018,4,24,23,8,27.754,0.3012,-0.5914,-0.0358,-0.7471
-0.031,0.004,-0.089,-1.5,-0.6,-3.5,0,2018,4,24,23,8,27.76,0.3012,-0.5919,-0.0353,-0.7467
-0.023,0.008,-0.082,0.6,1.8,-3.9,0,2018,4,24,23,8,27.773,0.3015,-0.5926,-0.0351,-0.746
-0.019,0.018,-0.082,2.6,3.4,-3.9,0,2018,4,24,23,8,27.791,0.302,-0.5933,-0.0353,-0.7452
-0.012,0.025,-0.069,4.2,3.3,-3.7,0,2018,4,24,23,8,27.813,0.3025,-0.5942,-0.0357,-0.7442
-0.005,0.032,-0.059,5.6,2.8,-3.4,0,2018,4,24,23,8,27.831,0.303,-0.5952,-0.0363,-0.7432
0.004,0.032,-0.05,6.4,2.1,-3.1,0,2018,4,24,23,8,27.854,0.3033,-0.5963,-0.0368,-0.7422
0.003,0.036,-0.037,7.1,1.8,-2.7,0,2018,4,24,23,8,27.872,0.3036,-0.5974,-0.0374,-0.7412
0.004,0.04,-0.03,7.3,1,-2.2,0,2018,4,24,23,8,27.894,0.3038,-0.5985,-0.0381,-0.7402
0.003,0.039,-0.024,7.8,0.3,-1.7,0,2018,4,24,23,8,27.931,0.3038,-0.5996,-0.0386,-0.7392
-0.002,0.042,-0.012,7.8,-0.4,-0.9,1023,2018,4,24,23,8,27.954,0.3037,-0.6008,-0.0392,-0.7383
-0.015,0.043,-0.002,7.7,-0.6,0.2,1023,2018,4,24,23,8,27.959,0.3034,-0.6018,-0.0398,-0.7376
-0.032,0.046,0.006,7.3,-0.9,1.5,1023,2018,4,24,23,8,27.975,0.3029,-0.6029,-0.0406,-0.7369
-0.05,0.045,0.005,6.5,-2.1,2.7,1023,2018,4,24,23,8,27.997,0.3021,-0.6038,-0.0415,-0.7364
-0.062,0.05,0.008,5.3,-4.5,3.7,1023,2018,4,24,23,8,28.013,0.301,-0.6047,-0.0421,-0.7361
-0.069,0.052,0.013,3.6,-8.1,4.3,1023,2018,4,24,23,8,28.051,0.2994,-0.6055,-0.0425,-0.7361
-0.065,0.053,0.014,2.3,-11.8,4.6,1023,2018,4,24,23,8,28.073,0.2973,-0.6063,-0.0423,-0.7362
-0.043,0.057,0.012,0.8,-15,4.7,1023,2018,4,24,23,8,28.079,0.2949,-0.6071,-0.0416,-0.7366
-0.028,0.048,0.005,-0.4,-18.4,4.3,1023,2018,4,24,23,8,28.096,0.2923,-0.6079,-0.0405,-0.737
-0.033,0,0.015,-2.9,-19.5,4.4,1023,2018,4,24,23,8,28.114,0.2894,-0.6086,-0.0384,-0.7377
0.026,0.045,0.003,-3.4,-10,3.8,1023,2018,4,24,23,8,28.137,0.2872,-0.6089,-0.0369,-0.7384
0.065,0.096,0.004,-4,-7,2.5,1023,2018,4,24,23,8,28.154,0.2857,-0.6086,-0.0365,-0.7393
0.058,0.155,-0.001,-5.1,-16,3.8,1023,2018,4,24,23,8,28.178,0.2838,-0.6082,-0.036,-0.7403
0.074,0.178,-0.046,-5.3,-31.7,9.9,0,2018,4,24,23,8,28.214,0.2798,-0.6085,-0.034,-0.7417
0.008,0.151,-0.035,-0.1,-38.2,21.2,0,2018,4,24,23,8,28.238,0.2739,-0.6098,-0.0308,-0.743
-0.003,0.091,0.018,9.3,-19.4,34.7,0,2018,4,24,23,8,28.242,0.2665,-0.6115,-0.0309,-0.7442
-0.003,0.086,-0.039,21.4,0.1,54,0,2018,4,24,23,8,28.258,0.2592,-0.6137,-0.0363,-0.7448
-0.071,0.013,-0.031,30.6,11.7,66.1,0,2018,4,24,23,8,28.296,0.2515,-0.6168,-0.045,-0.7444
-0.114,0.027,0.087,35.6,25.7,72.9,0,2018,4,24,23,8,28.296,0.2439,-0.6197,-0.0568,-0.7437
-0.099,0.008,0.204,38.6,27.8,69.9,0,2018,4,24,23,8,28.318,0.2372,-0.622,-0.07,-0.7428
0.034,0.386,0.201,42.7,-4.9,66.9,0,2018,4,24,23,8,28.336,0.2297,-0.6258,-0.0813,-0.7409
0.056,0.5,0.27,40.4,-121.5,63.5,0,2018,4,24,23,8,28.357,0.2138,-0.6326,-0.0821,-0.7397
0.004,0.242,0.261,30,-241.1,55.4,0,2018,4,24,23,8,28.395,0.1848,-0.6429,-0.0659,-0.7403
0.062,0.086,0.191,16.7,-302.8,46.4,0,2018,4,24,23,8,28.395,0.1464,-0.6535,-0.0361,-0.7417
0.126,-0.152,-0.075,9.5,-328.8,33.5,0,2018,4,24,23,8,28.419,0.1042,-0.6618,0.0006,-0.7423
0.225,-0.321,-0.186,10.9,-292.6,16,0,2018,4,24,23,8,28.456,0.065,-0.6678,0.038,-0.7405
0.199,-0.51,-0.233,9.1,-251.5,-1.2,0,2018,4,24,23,8,28.479,0.0326,-0.6714,0.0719,-0.7367
0.311,-1.285,-0.314,15.1,-147.3,-24.1,0,2018,4,24,23,8,28.483,0.0092,-0.6732,0.1009,-0.7324
0.371,-0.247,-0.073,30.9,13.7,-6.9,0,2018,4,24,23,8,28.498,0.0065,-0.6761,0.1084,-0.7287
0.183,0.019,0.27,37,-5.4,4.2,0,2018,4,24,23,8,28.531,0.0086,-0.6804,0.1074,-0.7247
-0.019,-0.072,0.298,27.1,-27.4,11.1,0,2018,4,24,23,8,28.554,0.0061,-0.6847,0.1088,-0.7205
-0.08,-0.11,0.249,18.2,-14.4,21.3,0,2018,4,24,23,8,28.56,0.0013,-0.6878,0.1102,-0.7174
-0.253,-0.015,0.219,11.1,18.2,34.2,1023,2018,4,24,23,8,28.577,-0.0015,-0.6901,0.1063,-0.7158
-0.173,-0.047,-0.074,18.7,36.7,34.7,1023,2018,4,24,23,8,28.6,-0.0028,-0.6923,0.0979,-0.7148
-0.096,-0.016,-0.135,35.1,86.8,20.5,1023,2018,4,24,23,8,28.633,0.0021,-0.6964,0.087,-0.7122
0.108,0.129,-0.113,49.1,79.6,8.3,1023,2018,4,24,23,8,28.657,0.0115,-0.702,0.0742,-0.7081
0.179,0.147,-0.013,51.7,61.4,-1.4,1023,2018,4,24,23,8,28.662,0.0197,-0.7083,0.0652,-0.7025
0.166,0.033,-0.044,48.7,57.1,-7.3,1023,2018,4,24,23,8,28.698,0.0272,-0.7144,0.058,-0.6967
0.037,0.046,-0.075,47.6,36.5,-12.8,1023,2018,4,24,23,8,28.698,0.0352,-0.7203,0.0527,-0.6906
0.034,-0.142,-0.043,41.3,22.2,-14.8,1023,2018,4,24,23,8,28.72,0.041,-0.7258,0.0516,-0.6847
-0.068,-0.111,0.005,24.6,23.6,-15.7,1023,2018,4,24,23,8,28.743,0.0467,-0.7295,0.051,-0.6804
-0.294,0.18,0.179,-5.1,-18,-18.9,1023,2018,4,24,23,8,28.777,0.0501,-0.7302,0.0521,-0.6793
-0.308,-0.233,0.112,-30.5,-117.9,-41.7,1023,2018,4,24,23,8,28.798,0.0438,-0.7281,0.0646,-0.6809
-0.252,-0.447,-0.103,-38.7,-148.4,-63,1023,2018,4,24,23,8,28.8,0.0321,-0.724,0.0884,-0.6832
-0.2,-0.401,-0.106,-34,-133.6,-78.1,1023,2018,4,24,23,8,28.837,0.0223,-0.719,0.114,-0.6851
-0.127,-0.352,-0.105,-25.7,-138.4,-97.2,1023,2018,4,24,23,8,28.86,0.0151,-0.7139,0.1415,-0.6855
-0.114,-0.358,-0.148,-11.9,-134.3,-115,1023,2018,4,24,23,8,28.864,0.0103,-0.709,0.1713,-0.6839
-0.11,-0.266,-0.101,-0.6,-113.2,-124.6,1023,2018,4,24,23,8,28.883,0.0091,-0.7046,0.2012,-0.6803
-0.073,-0.18,-0.089,7.7,-82,-127.4,0,2018,4,24,23,8,28.901,0.0127,-0.7006,0.2284,-0.6758
-0.073,-0.138,-0.105,10.9,-54,-130.3,0,2018,4,24,23,8,28.923,0.021,-0.6966,0.2526,-0.671
-0.03,-0.023,-0.11,12.5,-40.9,-130.3,0,2018,4,24,23,8,28.941,0.0315,-0.6926,0.2743,-0.6662
0.037,0.065,-0.059,12.3,-37,-124.4,0,2018,4,24,23,8,28.964,0.0419,-0.6886,0.294,-0.6614
0.023,0.09,-0.011,11.9,-27,-116.2,0,2018,4,24,23,8,28.983,0.0521,-0.6843,0.312,-0.6569
0.005,0.111,-0.024,11.7,-8,-106.2,0,2018,4,24,23,8,29.006,0.0627,-0.68,0.3268,-0.6532
-0.031,0.187,-0.024,11.5,8.8,-97,0,2018,4,24,23,8,29.023,0.0747,-0.6757,0.3381,-0.6507
-0.026,0.166,-0.01,11.8,17.3,-91.1,0,2018,4,24,23,8,29.046,0.0875,-0.6712,0.3473,-0.6488
-0.025,0.205,0.031,13.2,22.2,-82.8,0,2018,4,24,23,8,29.062,0.1,-0.6672,0.3548,-0.6472
0.004,0.287,0.07,13.2,35.4,-71.4,0,2018,4,24,23,8,29.081,0.1129,-0.6634,0.3601,-0.646
0.046,0.267,0.024,14.7,38.4,-61.4,0,2018,4,24,23,8,29.103,0.1255,-0.66,0.3632,-0.6454
0.036,0.21,0.021,16.8,45.1,-52,0,2018,4,24,23,8,29.123,0.1374,-0.6573,0.3645,-0.6449
0.088,0.258,0.101,16.7,59.7,-40.1,0,2018,4,24,23,8,29.146,0.1494,-0.6551,0.3633,-0.6453
0.114,0.253,0.145,16.3,72.8,-28.7,1023,2018,4,24,23,8,29.163,0.1619,-0.653,0.3591,-0.6467
0.155,0.22,0.037,20.1,87.9,-18.9,1023,2018,4,24,23,8,29.185,0.1746,-0.6513,0.3519,-0.6491
0.146,0.205,0.001,23.2,96.3,-16.1,1023,2018,4,24,23,8,29.203,0.1881,-0.6501,0.3423,-0.6517
0.107,0.255,0.09,20,85.3,-15.8,1023,2018,4,24,23,8,29.226,0.2012,-0.6487,0.3324,-0.6543
0.051,0.205,0.144,10,67.8,-13,1023,2018,4,24,23,8,29.263,0.2122,-0.6469,0.3248,-0.6564
0.044,0.145,0.066,0.5,66.5,-7.2,1023,2018,4,24,23,8,29.263,0.221,-0.6443,0.3182,-0.6592
0.069,0.136,-0.018,-4.5,65.1,-2.7,1023,2018,4,24,23,8,29.288,0.2285,-0.6413,0.3107,-0.6632
0.05,0.069,-0.031,-5.6,49.2,-2.1,1023,2018,4,24,23,8,29.308,0.2346,-0.6386,0.3044,-0.6666
-0.029,0.017,0.004,-7.1,36.8,-2.6,1023,2018,4,24,23,8,29.326,0.239,-0.6361,0.3,-0.6694
-0.079,-0.014,0.02,-7.3,34.8,-5.4,1023,2018,4,24,23,8,29.344,0.2428,-0.6336,0.2963,-0.672
-0.093,-0.019,0.032,-4.8,39.6,-10.3,1023,2018,4,24,23,8,29.366,0.2473,-0.6309,0.2927,-0.6745
-0.11,0.008,0.042,-2.3,40.1,-15.6,1023,2018,4,24,23,8,29.384,0.2527,-0.628,0.2891,-0.6768
-0.119,0.034,0.027,0.6,39.7,-20.3,1023,2018,4,24,23,8,29.406,0.2587,-0.6253,0.2857,-0.6785
-0.133,0.062,0.051,3.1,40.3,-25.1,1023,2018,4,24,23,8,29.442,0.2653,-0.6227,0.2825,-0.6796
-0.125,0.115,0.068,3,38.1,-28.4,1023,2018,4,24,23,8,29.465,0.2729,-0.6199,0.2805,-0.68
-0.095,0.117,0.022,1.6,35.9,-30.1,1023,2018,4,24,23,8,29.469,0.2804,-0.617,0.2792,-0.6801
-0.044,0.138,-0.035,2,32.1,-30.2,1023,2018,4,24,23,8,29.487,0.2869,-0.6145,0.2773,-0.6804
-0.022,0.161,-0.032,1.8,12.8,-28.9,1023,2018,4,24,23,8,29.511,0.2921,-0.6128,0.2768,-0.68
-0.022,0.142,0,1.4,-16,-28.3,1023,2018,4,24,23,8,29.545,0.2944,-0.6122,0.2792,-0.6785
0.013,0.077,0.011,0.7,-31.7,-28.8,1023,2018,4,24,23,8,29.566,0.2946,-0.6124,0.2847,-0.676
0.05,0.009,0.004,1.6,-27.6,-31.2,1023,2018,4,24,23,8,29.568,0.295,-0.6125,0.2915,-0.6728
0.072,0.026,-0.024,1.7,-18.6,-32.9,0,2018,4,24,23,8,29.603,0.2966,-0.6121,0.2977,-0.6697
0.038,0.054,-0.053,1.1,-20.7,-34.9,0,2018,4,24,23,8,29.625,0.2987,-0.6117,0.3037,-0.6665
0,-0.003,-0.07,-0.6,-30.9,-37.5,0,2018,4,24,23,8,29.628,0.2999,-0.6116,0.3107,-0.6628
-0.049,-0.036,-0.073,-3.7,-37,-39.5,0,2018,4,24,23,8,29.664,0.3004,-0.6115,0.3192,-0.6587
-0.104,-0.108,-0.086,-7.8,-38.1,-41.1,0,2018,4,24,23,8,29.686,0.3003,-0.611,0.3283,-0.6546
-0.186,-0.173,-0.12,-11.2,-37.3,-42.8,0,2018,4,24,23,8,29.688,0.3001,-0.6102,0.3378,-0.6507
-0.213,-0.207,-0.17,-12.8,-46.6,-44.3,0,2018,4,24,23,8,29.725,0.2998,-0.6084,0.3477,-0.6471
-0.155,-0.242,-0.135,-12.4,-54,-46.3,0,2018,4,24,23,8,29.746,0.2985,-0.6073,0.3592,-0.6426
-0.016,-0.224,-0.092,-13.7,-53,-47.1,0,2018,4,24,23,8,29.75,0.2972,-0.6061,0.3714,-0.6373
0.116,-0.202,-0.084,-16.7,-54.8,-49.2,0,2018,4,24,23,8,29.784,0.2959,-0.6039,0.3832,-0.633
0.186,-0.228,-0.098,-19.6,-61.5,-51.7,0,2018,4,24,23,8,29.806,0.2941,-0.6015,0.3959,-0.6283
0.295,-0.22,-0.075,-20.4,-63.4,-51.2,0,2018,4,24,23,8,29.81,0.2917,-0.5989,0.4093,-0.6233
0.401,-0.201,-0.057,-18.2,-58.1,-48.8,0,2018,4,24,23,8,29.828,0.2893,-0.5962,0.4221,-0.6184
0.476,-0.212,-0.046,-13.4,-49.6,-46.9,1023,2018,4,24,23,8,29.849,0.2876,-0.5937,0.4337,-0.6136
0.47,-0.268,0.003,-8.7,-30.7,-47.3,1023,2018,4,24,23,8,29.883,0.2876,-0.591,0.4435,-0.6092
0.461,-0.236,-0.006,-5.9,-7.1,-49.7,1023,2018,4,24,23,8,29.907,0.2903,-0.5873,0.4507,-0.6062
0.417,-0.211,-0.053,-3.6,3.3,-54.2,1023,2018,4,24,23,8,29.91,0.2954,-0.5827,0.4562,-0.604
0.352,-0.2,-0.088,0,-1,-59.8,1023,2018,4,24,23,8,29.948,0.3014,-0.5779,0.4619,-0.6014
0.291,-0.191,-0.09,5.4,-8.2,-64.6,1023,2018,4,24,23,8,29.969,0.3076,-0.5733,0.4686,-0.5973
0.251,-0.183,-0.064,11.9,-5.4,-68.4,1023,2018,4,24,23,8,29.972,0.3145,-0.5692,0.4757,-0.5922
0.218,-0.141,-0.051,17.5,8.1,-72.2,1023,2018,4,24,23,8,29.989,0.3231,-0.5647,0.4816,-0.5869
0.196,-0.097,-0.036,22.7,14.9,-75.6,1023,2018,4,24,23,8,30.012,0.3336,-0.5598,0.4865,-0.5817
0.146,-0.066,-0.001,27,19.9,-75.9,1023,2018,4,24,23,8,30.032,0.3456,-0.5545,0.4911,-0.5759
0.118,-0.018,0.018,30.7,30.6,-71.9,1023,2018,4,24,23,8,30.053,0.3589,-0.5489,0.4945,-0.5703
0.082,0.028,0.038,32,37.1,-66.7,1023,2018,4,24,23,8,30.09,0.3724,-0.5433,0.4961,-0.5656
0.038,0.034,0.016,29.8,44.3,-62.2,0,2018,4,24,23,8,30.112,0.3858,-0.5376,0.4962,-0.5619
-0.048,0.166,0.047,24,46.7,-56.4,0,2018,4,24,23,8,30.116,0.3982,-0.532,0.495,-0.5596
-0.078,0.167,0.067,17.1,25.6,-51.4,0,2018,4,24,23,8,30.132,0.4084,-0.5269,0.4944,-0.5577
-0.112,0.147,0.075,10.5,6.2,-44.4,0,2018,4,24,23,8,30.15,0.4155,-0.523,0.4964,-0.5542
-0.116,0.139,0.051,3.7,-1.8,-36.9,0,2018,4,24,23,8,30.172,0.4201,-0.5201,0.4995,-0.5507
-0.094,0.134,0.017,-1.2,-4.5,-31.1,0,2018,4,24,23,8,30.192,0.4227,-0.5179,0.5021,-0.5485
-0.056,0.153,-0.035,-2.8,-17.4,-26,0,2018,4,24,23,8,30.215,0.4235,-0.5165,0.5054,-0.5461
-0.054,0.098,-0.014,-1.3,-31.5,-22,0,2018,4,24,23,8,30.251,0.4226,-0.5167,0.51,-0.5423
-0.078,0.013,0.026,-0.7,-26.4,-18.5,0,2018,4,24,23,8,30.274,0.4212,-0.5175,0.5144,-0.5385
-0.075,0.017,0.018,-1.8,-3.7,-15.6,0,2018,4,24,23,8,30.279,0.4211,-0.5171,0.5169,-0.5365
-0.058,0.032,-0.025,0,9.1,-17.7,0,2018,4,24,23,8,30.296,0.4224,-0.5156,0.5178,-0.5361
-0.051,0.053,0.018,2.3,8.2,-21.2,0,2018,4,24,23,8,30.316,0.4248,-0.5136,0.5184,-0.5356
-0.044,0.039,0.041,4.1,6.5,-23.6,0,2018,4,24,23,8,30.333,0.4277,-0.5115,0.5191,-0.5346
-0.026,0.028,0.043,5.4,7.8,-26.6,0,2018,4,24,23,8,30.356,0.4311,-0.5091,0.5199,-0.5334
0.015,0.032,0.047,7,6.9,-28.6,0,2018,4,24,23,8,30.375,0.435,-0.5065,0.5209,-0.5317
0.065,0.07,0.013,8.9,0.8,-30.3,0,2018,4,24,23,8,30.392,0.4392,-0.5038,0.5227,-0.529
0.107,0.069,0.015,11.5,-2.1,-30.3,0,2018,4,24,23,8,30.415,0.4433,-0.5017,0.5251,-0.5252
0.128,0,0.045,12.1,4.3,-31.7,0,2018,4,24,23,8,30.432,0.4482,-0.4992,0.5273,-0.5214
0.153,-0.056,0.029,10.7,17.4,-33.4,0,2018,4,24,23,8,30.455,0.4541,-0.4954,0.5286,-0.5184
0.16,-0.039,-0.001,10.1,22.8,-34.8,0,2018,4,24,23,8,30.473,0.4609,-0.4907,0.5295,-0.5161
0.16,0.011,-0.042,11.4,16.9,-34.9,1023,2018,4,24,23,8,30.497,0.4673,-0.4861,0.5305,-0.5135
0.148,-0.027,-0.029,14.8,20.3,-34.9,1023,2018,4,24,23,8,30.514,0.4735,-0.4823,0.5313,-0.5106
0.125,-0.088,-0.016,15.2,31.6,-34.5,1023,2018,4,24,23,8,30.537,0.4807,-0.4777,0.5314,-0.5081
0.093,-0.098,-0.03,14.2,43.7,-32.8,1023,2018,4,24,23,8,30.555,0.4887,-0.4722,0.53,-0.507
0.077,-0.059,-0.058,14.5,41.9,-31.4,1023,2018,4,24,23,8,30.578,0.4967,-0.4665,0.5281,-0.5066
0.073,-0.014,-0.089,16.5,34.8,-28.2,1023,2018,4,24,23,8,30.595,0.5038,-0.4618,0.5266,-0.5055
0.066,-0.032,-0.112,20.3,44.3,-23.3,1023,2018,4,24,23,8,30.613,0.5106,-0.4578,0.5245,-0.5044
0.036,-0.09,-0.074,23.2,65.9,-21.7,1023,2018,4,24,23,8,30.636,0.5187,-0.4529,0.5201,-0.5051
0.041,-0.05,-0.056,22,71.8,-25,1023,2018,4,24,23,8,30.654,0.5283,-0.4465,0.514,-0.5071
0.053,0.018,-0.042,18.1,60.7,-26.4,1023,2018,4,24,23,8,30.675,0.5376,-0.4397,0.5087,-0.5087
0.003,0.022,-0.029,12.8,41.2,-28.3,1023,2018,4,24,23,8,30.71,0.5452,-0.4338,0.5051,-0.5091
0.022,-0.054,-0.042,9.3,32.1,-30.6,1023,2018,4,24,23,8,30.731,0.5513,-0.429,0.5034,-0.5084
0.034,-0.101,-0.055,6.1,30.4,-32.8,1023,2018,4,24,23,8,30.736,0.5569,-0.424,0.5027,-0.5071
-0.016,-0.095,-0.035,4.2,33.5,-34.2,1023,2018,4,24,23,8,30.773,0.5624,-0.4187,0.5022,-0.506
-0.092,-0.077,0.011,1.3,38.5,-31.9,0,2018,4,24,23,8,30.796,0.5678,-0.4129,0.5009,-0.5059
-0.107,-0.094,0.051,-2.3,40.6,-31.1,0,2018,4,24,23,8,30.798,0.573,-0.4067,0.499,-0.507
-0.07,-0.084,-0.001,-4.4,38.2,-34,0,2018,4,24,23,8,30.833,0.578,-0.4001,0.4977,-0.5079
-0.032,-0.036,-0.021,-2.7,40,-36.7,0,2018,4,24,23,8,30.854,0.5831,-0.3933,0.497,-0.5081
-0.037,0.006,0.008,-1,46.7,-38,0,2018,4,24,23,8,30.859,0.5891,-0.3856,0.4957,-0.5082
-0.029,0.002,0.039,0.7,51.7,-37.8,0,2018,4,24,23,8,30.875,0.5957,-0.3773,0.4936,-0.5089
0.066,0.02,0.106,0.6,57.8,-38.6,0,2018,4,24,23,8,30.897,0.6032,-0.3679,0.4907,-0.5097
0.179,0.161,0.059,-4.4,58.3,-37.5,0,2018,4,24,23,8,30.934,0.6103,-0.358,0.4881,-0.5108
0.199,0.255,-0.001,-7.8,50.9,-28.9,0,2018,4,24,23,8,30.955,0.6162,-0.3487,0.4859,-0.5123
0.126,0.242,-0.045,-5.7,36.4,-14.3,0,2018,4,24,23,8,30.959,0.62,-0.3416,0.4843,-0.5139
0.071,0.133,-0.003,-1.5,47.8,0.6,0,2018,4,24,23,8,30.994,0.6229,-0.336,0.4817,-0.5167
0.128,0.106,0.027,-1,80.4,6.6,0,2018,4,24,23,8,31.018,0.6264,-0.3289,0.4758,-0.5224
0.213,0.202,-0.072,-2.4,105.9,8.8,0,2018,4,24,23,8,31.021,0.6309,-0.3188,0.4668,-0.5313
0.221,0.325,-0.163,2.6,88.5,7.5,0,2018,4,24,23,8,31.057,0.6356,-0.3083,0.4569,-0.5404
0.126,0.353,-0.075,11.7,39.2,4.7,0,2018,4,24,23,8,31.078,0.639,-0.3025,0.4497,-0.5456
0.02,0.289,0.14,9.2,-2.3,3.1,0,2018,4,24,23,8,31.081,0.6404,-0.3021,0.4466,-0.5467
0.057,0.265,0.172,-2.4,-35.3,1.2,0,2018,4,24,23,8,31.098,0.6394,-0.3048,0.4482,-0.5452
0.381,0.233,0.187,-3.2,-52.6,17.4,0,2018,4,24,23,8,31.134,0.6359,-0.3101,0.4527,-0.5426
0.408,-0.149,0.311,-1.1,-21.4,54.2,0,2018,4,24,23,8,31.157,0.6301,-0.3174,0.4546,-0.5435
0.026,-0.464,0.255,-6.3,40.1,71.6,0,2018,4,24,23,8,31.161,0.6243,-0.3208,0.45,-0.552
-0.006,-0.293,0.023,-12.4,86.3,68.7,0,2018,4,24,23,8,31.18,0.6199,-0.3187,0.4404,-0.5657
0.006,-0.011,-0.091,-8.4,94.3,49.4,1023,2018,4,24,23,8,31.202,0.6179,-0.3125,0.4293,-0.5797
0.051,0.139,-0.023,-4.4,66,28.2,1023,2018,4,24,23,8,31.22,0.6181,-0.3057,0.4201,-0.5897
0.076,0.127,0.073,-3.4,31.5,24.3,1023,2018,4,24,23,8,31.243,0.618,-0.3018,0.4143,-0.596
0.089,0.014,0.102,-3.6,17.6,30.2,1023,2018,4,24,23,8,31.262,0.6161,-0.3009,0.4109,-0.6007
0.066,-0.063,0.017,-1.7,32.3,36.7,1023,2018,4,24,23,8,31.28,0.6139,-0.2998,0.4072,-0.606
0.036,-0.057,-0.055,4.3,64.5,40.3,1023,2018,4,24,23,8,31.302,0.6123,-0.2976,0.4005,-0.6132
0.007,0.014,-0.06,11.1,86.7,40.5,1023,2018,4,24,23,8,31.34,0.6123,-0.2932,0.3896,-0.6222
0.005,0.127,-0.011,14.8,81.4,37.6,1023,2018,4,24,23,8,31.363,0.6133,-0.2879,0.3768,-0.6315
0.021,0.151,0.039,14.9,58.4,34,1023,2018,4,24,23,8,31.368,0.6143,-0.2837,0.3651,-0.6393
0.056,0.126,0.042,12.6,33.8,31,1023,2018,4,24,23,8,31.381,0.6142,-0.2816,0.3565,-0.6451
0.058,0.07,0.047,10.3,14,32.1,1023,2018,4,24,23,8,31.419,0.6127,-0.282,0.3511,-0.6493
0.062,-0.055,0.039,6.9,6.9,29.7,1023,2018,4,24,23,8,31.442,0.6104,-0.2832,0.3478,-0.6527
0.065,-0.17,0.029,1.5,4,23.2,1023,2018,4,24,23,8,31.447,0.6079,-0.2847,0.3461,-0.6553
0.048,-0.19,0.038,-2.6,-3.4,10.7,1023,2018,4,24,23,8,31.464,0.6058,-0.2857,0.346,-0.6568
0.007,-0.055,0.054,-6.9,-31,3.2,1023,2018,4,24,23,8,31.482,0.604,-0.2873,0.3484,-0.6566
-0.009,-0.045,0.001,-8.8,-46,-0.2,0,2018,4,24,23,8,31.505,0.6012,-0.2908,0.354,-0.6546
0.002,-0.001,-0.03,-6,-29.3,-1.6,0,2018,4,24,23,8,31.522,0.5987,-0.2941,0.3594,-0.6524
0.014,0.065,-0.034,-2.6,-20.8,-3.1,0,2018,4,24,23,8,31.545,0.5976,-0.2959,0.3628,-0.6508
0.066,0.061,-0.052,0.9,-9,-3.6,0,2018,4,24,23,8,31.563,0.5973,-0.2968,0.365,-0.6494
0.094,0.059,-0.03,3.2,-2,-3,0,2018,4,24,23,8,31.586,0.5979,-0.2967,0.366,-0.6483
0.117,0.027,0.003,2.2,1,-0.2,0,2018,4,24,23,8,31.607,0.5987,-0.2961,0.3664,-0.6476
0.107,0.018,0,-1.3,-3.2,2.7,0,2018,4,24,23,8,31.623,0.599,-0.2955,0.3669,-0.6474
0.071,-0.007,-0.007,-4.5,-10.8,4.3,0,2018,4,24,23,8,31.658,0.5983,-0.2956,0.3684,-0.6471
0.038,-0.001,-0.026,-5.7,-12.1,3.8,0,2018,4,24,23,8,31.682,0.5969,-0.2963,0.3705,-0.6468
0.022,0.003,-0.014,-3.7,-3.4,2.5,0,2018,4,24,23,8,31.686,0.5959,-0.2967,0.3721,-0.6467
0.011,0.037,0.007,-1.7,7,1.8,0,2018,4,24,23,8,31.703,0.5957,-0.2961,0.372,-0.6472
0.012,0.036,0.014,-0.4,10.3,3,0,2018,4,24,23,8,31.726,0.596,-0.2949,0.3708,-0.6482
0.018,0.023,0,-1.4,4.3,4.2,0,2018,4,24,23,8,31.744,0.5961,-0.2939,0.3698,-0.6491
0.031,-0.016,0.013,-2,0.4,3.7,0,2018,4,24,23,8,31.766,0.5957,-0.2936,0.3697,-0.6497
0.025,-0.017,0.027,-3.3,0.5,2.1,0,2018,4,24,23,8,31.802,0.5953,-0.2932,0.3699,-0.6501
0.03,0.007,0.024,-3.5,-0.4,0.7,0,2018,4,24,23,8,31.823,0.5951,-0.2926,0.3701,-0.6504
0.032,0.021,0.022,-2.6,-0.9,0,0,2018,4,24,23,8,31.826,0.595,-0.292,0.3705,-0.6506
0.038,0.032,0.009,-0.4,2.8,-1.1,0,2018,4,24,23,8,31.842,0.5952,-0.2913,0.3707,-0.6506
0.031,0.061,0.001,0.9,8.1,-1.4,0,2018,4,24,23,8,31.865,0.5959,-0.2902,0.3701,-0.6508
0.004,0.08,0.013,1.5,11.4,-1.7,1023,2018,4,24,23,8,31.884,0.597,-0.2887,0.3686,-0.6513
-0.009,0.072,0.028,1.2,11.6,-1.2,1023,2018,4,24,23,8,31.922,0.598,-0.2871,0.3669,-0.652
-0.011,0.053,0.044,0.3,10.9,0,1023,2018,4,24,23,8,31.922,0.5989,-0.2857,0.3651,-0.6529
-0.009,0.038,0.06,-1,8.3,1.6,1023,2018,4,24,23,8,31.945,0.5995,-0.2844,0.3634,-0.6538
0.011,0.046,0.053,-2.8,3.5,3.1,1023,2018,4,24,23,8,31.982,0.5997,-0.2832,0.3623,-0.6548
0.03,0.033,0.031,-4.6,-3,4,1023,2018,4,24,23,8,32.004,0.5992,-0.2825,0.3622,-0.6555
0.04,0.022,0.011,-5.7,-10.6,3.8,1023,2018,4,24,23,8,32.01,0.5983,-0.2824,0.3634,-0.6557
0.045,-0.036,-0.01,-5.7,-9.5,4.1,1023,2018,4,24,23,8,32.027,0.5971,-0.2829,0.3655,-0.6555
0.054,0.018,-0.031,-4.8,4.1,4.9,1023,2018,4,24,23,8,32.048,0.5962,-0.2825,0.3665,-0.6559
0.032,0.087,-0.046,-3.3,0.9,6,1023,2018,4,24,23,8,32.085,0.5957,-0.2816,0.3664,-0.6568
0.009,0.051,-0.041,-3.1,-12.5,6.2,1023,2018,4,24,23,8,32.108,0.5946,-0.282,0.3673,-0.6571
0.025,-0.016,-0.05,-3.2,-17.1,5.2,1023,2018,4,24,23,8,32.113,0.5929,-0.2836,0.3695,-0.6567
0.017,-0.05,-0.021,-2.3,-13.1,3.8,1023,2018,4,24,23,8,32.127,0.5914,-0.2854,0.3718,-0.6561
0.018,-0.065,-0.008,-1.4,-5.7,2.1,1023,2018,4,24,23,8,32.163,0.5903,-0.2865,0.3733,-0.6557
0.021,-0.035,-0.012,-0.7,-0.3,0.5,1023,2018,4,24,23,8,32.185,0.59,-0.2867,0.3739,-0.6555
0.021,-0.012,-0.014,-0.3,1.8,-0.1,1023,2018,4,24,23,8,32.19,0.59,-0.2866,0.3741,-0.6555
0.014,0.008,-0.019,-0.1,2.6,-0.6,1023,2018,4,24,23,8,32.207,0.5901,-0.2863,0.3741,-0.6555
0.009,0.017,-0.019,0.2,4.5,-0.3,1023,2018,4,24,23,8,32.227,0.5904,-0.2858,0.3739,-0.6556
0.009,0.018,-0.016,1,7,0,1023,2018,4,24,23,8,32.246,0.5908,-0.2852,0.3733,-0.6558
0.007,0.02,0,1.5,9.8,0.2,0,2018,4,24,23,8,32.269,0.5913,-0.2844,0.3722,-0.6563
0.01,0.029,0.01,1.7,10.2,0,0,2018,4,24,23,8,32.308,0.592,-0.2833,0.3708,-0.6569
0.013,0.029,0.014,1.4,8.7,-0.2,0,2018,4,24,23,8,32.308,0.5927,-0.2823,0.3694,-0.6575
0.015,0.034,0.014,0.9,6.1,-0.2,0,2018,4,24,23,8,32.329,0.5934,-0.2813,0.3683,-0.658
0.014,0.033,0.016,0.3,3.1,0.1,0,2018,4,24,23,8,32.367,0.5938,-0.2806,0.3676,-0.6583
0.017,0.027,0.01,-0.1,0.4,0.5,0,2018,4,24,23,8,32.389,0.594,-0.2802,0.3673,-0.6585
0.018,0.022,0.013,-0.4,-1,0.6,0,2018,4,24,23,8,32.392,0.594,-0.28,0.3673,-0.6585
0.021,0.02,0.001,-0.4,-1.8,0.5,0,2018,4,24,23,8,32.409,0.594,-0.2799,0.3675,-0.6585
0.021,0.019,-0.005,-0.2,-2,0.4,0,2018,4,24,23,8,32.445,0.5939,-0.2799,0.3679,-0.6584
0.019,0.019,-0.006,-0.1,-1.6,0.5,0,2018,4,24,23,8,32.467,0.5938,-0.2799,0.3681,-0.6583
0.012,0.02,-0.01,0,-1.2,0.2,0,2018,4,24,23,8,32.47,0.5938,-0.2799,0.3684,-0.6582
0.014,0.016,-0.004,-0.2,-1.1,0.1,0,2018,4,24,23,8,32.505,0.5938,-0.2799,0.3686,-0.6581
0.012,0.017,0.003,0,-0.9,0,0,2018,4,24,23,8,32.527,0.5938,-0.2798,0.3687,-0.658
0.013,0.013,0.003,-0.1,-0.7,0,0,2018,4,24,23,8,32.53,0.5939,-0.2797,0.3689,-0.6579
0.01,0.013,0.005,0,0,0,0,2018,4,24,23,8,32.566,0.5939,-0.2796,0.3689,-0.6579
0.011,0.009,-0.005,0,0,0,0,2018,4,24,23,8,32.587,0.5939,-0.2795,0.369,-0.6578
0.013,0.013,-0.014,0,-1.3,0.1,0,2018,4,24,23,8,32.591,0.594,-0.2795,0.3691,-0.6578
0.01,0.01,-0.006,0,0,0,1023,2018,4,24,23,8,32.606,0.594,-0.2795,0.3692,-0.6577
0.013,0.012,-0.007,0.5,1.5,0,1023,2018,4,24,23,8,32.628,0.5941,-0.2793,0.3691,-0.6577
0.011,0.014,-0.004,0.7,2.1,0,1023,2018,4,24,23,8,32.663,0.5943,-0.279,0.3689,-0.6578
0.009,0.014,-0.001,0.4,1.8,-0.1,1023,2018,4,24,23,8,32.685,0.5945,-0.2787,0.3686,-0.6579
0.007,0.016,-0.005,0.1,1.7,-0.2,1023,2018,4,24,23,8,32.69,0.5947,-0.2785,0.3684,-0.6579
0.014,0.023,0.001,0.4,1.8,0,1023,2018,4,24,23,8,32.727,0.5949,-0.2781,0.3682,-0.658
0.013,0.023,0.002,0.4,1.6,0.1,1023,2018,4,24,23,8,32.746,0.5951,-0.2778,0.3679,-0.6581
0.007,0.018,0.001,0.2,0.7,0.2,1023,2018,4,24,23,8,32.751,0.5953,-0.2776,0.3677,-0.6582
0.008,0.016,-0.004,0,0,0,1023,2018,4,24,23,8,32.787,0.5953,-0.2775,0.3677,-0.6582
0.013,0.014,-0.002,0,0,0,1023,2018,4,24,23,8,32.807,0.5954,-0.2774,0.3677,-0.6582
0.01,0.018,0.002,0.5,0.5,0,1023,2018,4,24,23,8,32.812,0.5955,-0.2772,0.3677,-0.6582
0.009,0.014,0.001,0,0,0,1023,2018,4,24,23,8,32.846,0.5955,-0.2771,0.3676,-0.6582
0.005,0.014,0.004,0,0,0,1023,2018,4,24,23,8,32.868,0.5956,-0.277,0.3676,-0.6582
0.007,0.018,-0.002,0,0,0,1023,2018,4,24,23,8,32.874,0.5957,-0.2769,0.3676,-0.6582
0.008,0.017,0,0,0,0,1023,2018,4,24,23,8,32.909,0.5957,-0.2768,0.3676,-0.6582
0.01,0.013,-0.005,0,0,0,1023,2018,4,24,23,8,32.932,0.5958,-0.2767,0.3676,-0.6582
0.014,0.015,0,0,0,0,0,2018,4,24,23,8,32.934,0.5958,-0.2765,0.3676,-0.6582
0.015,0.013,-0.002,0,0,0,0,2018,4,24,23,8,32.951,0.5959,-0.2764,0.3677,-0.6581
0.007,0.012,-0.002,0,0,0,0,2018,4,24,23,8,32.973,0.596,-0.2763,0.3677,-0.6581
0.007,0.013,-0.002,0.3,0.8,0.4,0,2018,4,24,23,8,33.01,0.596,-0.2762,0.3677,-0.6581
0.002,0.012,-0.002,0.2,0.7,0.1,0,2018,4,24,23,8,33.031,0.5961,-0.2761,0.3675,-0.6582
0.003,0.018,-0.001,0.1,0.6,-0.3,0,2018,4,24,23,8,33.035,0.5962,-0.2759,0.3674,-0.6582
0.01,0.018,0.002,0,0,0,0,2018,4,24,23,8,33.069,0.5963,-0.2758,0.3673,-0.6582
0.005,0.018,-0.002,0,-0.6,0.1,0,2018,4,24,23,8,33.092,0.5963,-0.2757,0.3673,-0.6582
0.001,0.016,-0.007,-0.1,-0.8,0.2,0,2018,4,24,23,8,33.095,0.5963,-0.2757,0.3674,-0.6582
0.006,0.012,-0.004,0,-0.7,0.3,0,2018,4,24,23,8,33.131,0.5963,-0.2757,0.3675,-0.6582
0.005,0.007,-0.005,0,0,0,0,2018,4,24,23,8,33.131,0.5963,-0.2757,0.3676,-0.6582
0.009,0.012,-0.002,0.5,0.9,0.1,0,2018,4,24,23,8,33.152,0.5963,-0.2756,0.3675,-0.6582
0.006,0.012,-0.004,0.3,1.2,0,0,2018,4,24,23,8,33.189,0.5964,-0.2754,0.3674,-0.6582
0.012,0.013,0,0.3,1.4,-0.2,0,2018,4,24,23,8,33.209,0.5966,-0.2753,0.3672,-0.6583
0.011,0.017,-0.001,0.4,1.4,-0.2,0,2018,4,24,23,8,33.213,0.5967,-0.275,0.367,-0.6583
0.008,0.018,-0.003,0.2,0.9,0,0,2018,4,24,23,8,33.249,0.5969,-0.2748,0.3669,-0.6583
0.006,0.015,0.001,0.3,0.9,0.3,0,2018,4,24,23,8,33.271,0.597,-0.2747,0.3667,-0.6584
0.003,0.016,-0.005,0.2,1.2,0.1,0,2018,4,24,23,8,33.275,0.5971,-0.2745,0.3666,-0.6585
0.007,0.015,-0.004,0.3,1,0.1,0,2018,4,24,23,8,33.311,0.5972,-0.2744,0.3664,-0.6585
0.008,0.011,-0.001,0.4,1.4,0.1,0,2018,4,24,23,8,33.334,0.5973,-0.2742,0.3663,-0.6586
0.012,0.015,-0.021,0.8,2.2,0.2,0,2018,4,24,23,8,33.339,0.5974,-0.2741,0.366,-0.6587
0.023,0.004,-0.029,2.1,4.3,0.7,0,2018,4,24,23,8,33.357,0.5976,-0.2739,0.3657,-0.6587
0.029,-0.013,-0.029,3.9,8.3,1.2,0,2018,4,24,23,8,33.375,0.598,-0.2736,0.365,-0.6589
0.012,-0.013,-0.033,5.1,12.3,0.9,0,2018,4,24,23,8,33.393,0.5986,-0.2732,0.3636,-0.6593
0,-0.008,-0.021,5.7,14,0,0,2018,4,24,23,8,33.416,0.5994,-0.2726,0.3617,-0.6598
-0.007,0.002,0.004,6.2,14.7,-1.4,1023,2018,4,24,23,8,33.454,0.6006,-0.2717,0.3595,-0.6603
-0.002,0.011,0.028,6.2,15.2,-2.2,1023,2018,4,24,23,8,33.477,0.6019,-0.2707,0.3571,-0.6608
0.006,0.027,0.033,6.1,14.5,-2.2,1023,2018,4,24,23,8,33.482,0.6034,-0.2695,0.3546,-0.6613
0.018,0.04,0.032,5.9,12.6,-1.3,1023,2018,4,24,23,8,33.5,0.6048,-0.2683,0.3522,-0.6618
0.018,0.062,0.012,5,7.7,-0.8,1023,2018,4,24,23,8,33.516,0.606,-0.2673,0.3502,-0.6622
0.013,0.069,0.011,3.9,0.8,-1.1,1023,2018,4,24,23,8,33.539,0.6068,-0.2669,0.3491,-0.6622
-0.019,0.038,0.022,2.9,-1.8,-1.1,1023,2018,4,24,23,8,33.576,0.6073,-0.267,0.3487,-0.6619
0.002,0.007,0.032,3.4,-1.7,-1,1023,2018,4,24,23,8,33.599,0.6077,-0.2672,0.3485,-0.6616
0.02,-0.023,0.036,3.5,3.2,0,1023,2018,4,24,23,8,33.604,0.6081,-0.2673,0.348,-0.6615
0.011,0.011,0.035,2.6,10.3,-0.6,1023,2018,4,24,23,8,33.622,0.6087,-0.2666,0.3467,-0.6618
0.034,0.051,-0.013,1.8,3.9,-0.9,1023,2018,4,24,23,8,33.637,0.6095,-0.2655,0.3456,-0.6621
0.04,0.01,-0.028,3,-3.4,0.7,1023,2018,4,24,23,8,33.676,0.6098,-0.2656,0.3456,-0.6618
0.037,-0.053,0,4.3,6,2.3,1023,2018,4,24,23,8,33.676,0.6099,-0.266,0.3455,-0.6616
0.033,-0.022,-0.017,3.9,21.2,3,1023,2018,4,24,23,8,33.698,0.6105,-0.265,0.3436,-0.6624
0.038,0.047,-0.048,4.5,20.2,2.4,1023,2018,4,24,23,8,33.736,0.6116,-0.2631,0.3408,-0.6637
0.071,0.038,-0.058,5.9,7.4,3.3,1023,2018,4,24,23,8,33.76,0.6123,-0.2621,0.339,-0.6643
0.102,-0.01,-0.043,7.1,2.4,3.1,1023,2018,4,24,23,8,33.764,0.6126,-0.2623,0.3385,-0.6642
0.135,0.003,-0.086,7.1,8.3,3.2,0,2018,4,24,23,8,33.782,0.6129,-0.2627,0.337,-0.6645
0.132,0.064,-0.133,9.6,5.8,5.1,0,2018,4,24,23,8,33.801,0.6133,-0.263,0.335,-0.665
0.1,0.041,-0.118,14.5,-3,9.4,0,2018,4,24,23,8,33.823,0.6133,-0.2647,0.3332,-0.6653
0.026,-0.056,-0.029,18.6,-6.2,13.3,0,2018,4,24,23,8,33.842,0.6126,-0.2679,0.3319,-0.6653
-0.02,-0.169,0.065,18.4,3.1,14.2,0,2018,4,24,23,8,33.88,0.6117,-0.2716,0.3299,-0.6656
-0.03,-0.133,0.088,17.9,18.5,11.8,0,2018,4,24,23,8,33.902,0.6116,-0.2736,0.3261,-0.6668
-0.026,-0.051,0.1,19.7,20.6,7.6,0,2018,4,24,23,8,33.907,0.6125,-0.2742,0.321,-0.6682
-0.027,-0.009,0.106,19.8,15.1,3.7,0,2018,4,24,23,8,33.921,0.6139,-0.2747,0.3159,-0.6691
-0.019,-0.029,0.071,18.9,14.3,0.6,0,2018,4,24,23,8,33.956,0.6155,-0.2754,0.3117,-0.6693
0.004,-0.086,-0.02,22,30.9,-0.1,0,2018,4,24,23,8,33.977,0.6175,-0.2756,0.3071,-0.6695
-0.024,-0.089,-0.035,27.5,62.8,-1.6,0,2018,4,24,23,8,33.983,0.6209,-0.274,0.2994,-0.6705
-0.036,-0.027,0.006,32,78.9,-0.9,0,2018,4,24,23,8,34,0.6259,-0.27,0.2877,-0.6726
-0.019,0.027,0.039,33.5,76.2,1.3,0,2018,4,24,23,8,34.022,0.6311,-0.2653,0.2745,-0.6751
0.002,0.039,0.043,33.1,66.5,2.6,0,2018,4,24,23,8,34.06,0.6358,-0.2612,0.2618,-0.6773
0.029,0.038,0.01,34.5,61.2,3.4,0,2018,4,24,23,8,34.083,0.64,-0.2578,0.2503,-0.679
0.031,0.043,0.03,38.4,59.2,4.7,0,2018,4,24,23,8,34.087,0.6439,-0.2551,0.2388,-0.6805
0.055,0.017,0.081,38.6,62.3,5.3,0,2018,4,24,23,8,34.102,0.6478,-0.2525,0.2269,-0.6819
0.078,0.023,0.036,36.4,64.9,7.4,0,2018,4,24,23,8,34.12,0.6516,-0.2491,0.2148,-0.6834
0.081,-0.01,0.028,33.9,63.9,9.6,0,2018,4,24,23,8,34.143,0.6549,-0.2456,0.2031,-0.6852
0.099,0.015,-0.011,32.8,60.5,9.4,0,2018,4,24,23,8,34.161,0.6577,-0.2421,0.1919,-0.6869
0.127,0.001,0.007,32.8,52.2,9.4,1023,2018,4,24,23,8,34.185,0.6603,-0.2391,0.1817,-0.6882
0.126,-0.019,0.031,31.5,48.1,8,1023,2018,4,24,23,8,34.202,0.6626,-0.2368,0.1724,-0.6892
0.059,-0.027,-0.015,29.3,45.3,7.1,1023,2018,4,24,23,8,34.225,0.6647,-0.2346,0.1636,-0.6901
-0.001,-0.057,-0.079,28.9,39.8,9.1,1023,2018,4,24,23,8,34.242,0.6662,-0.2338,0.1555,-0.6908
-0.005,-0.064,-0.04,30.4,48.1,12.7,1023,2018,4,24,23,8,34.265,0.6672,-0.2334,0.1469,-0.6918
0.018,-0.018,-0.002,30.9,60.2,14.1,1023,2018,4,24,23,8,34.283,0.6686,-0.2313,0.1365,-0.6934
-0.058,-0.023,-0.042,30.9,63.2,11.9,1023,2018,4,24,23,8,34.305,0.6701,-0.2284,0.1249,-0.695
-0.098,0.055,-0.093,31.4,54,8.7,1023,2018,4,24,23,8,34.341,0.6716,-0.2261,0.113,-0.6963
-0.068,0.024,-0.03,31.2,38.1,3.7,1023,2018,4,24,23,8,34.362,0.6729,-0.2255,0.1027,-0.6968
-0.012,0.016,0.004,28.3,30.5,-3.2,1023,2018,4,24,23,8,34.365,0.6747,-0.2252,0.0948,-0.6963
-0.022,0.048,-0.033,27.9,26.1,-8.6,1023,2018,4,24,23,8,34.402,0.677,-0.2251,0.088,-0.695
-0.07,0.087,-0.11,29.8,18.7,-9.8,1023,2018,4,24,23,8,34.402,0.6794,-0.226,0.0815,-0.6932
-0.001,0.058,-0.059,33.7,11,-9.1,1023,2018,4,24,23,8,34.423,0.6813,-0.2285,0.0756,-0.6912
0.087,0.024,0.038,35,13.6,-10.6,1023,2018,4,24,23,8,34.458,0.6836,-0.2305,0.0707,-0.6888
0.047,0.037,-0.011,35.3,15.4,-10.7,1023,2018,4,24,23,8,34.481,0.6861,-0.2321,0.0654,-0.6863
-0.009,0.076,-0.111,38.5,10.4,-8,1023,2018,4,24,23,8,34.484,0.6882,-0.2345,0.0596,-0.6838
-0.061,0.022,-0.072,42.6,9.9,-3.1,1023,2018,4,24,23,8,34.519,0.6894,-0.2388,0.0531,-0.6817
0.035,-0.015,0.02,42.1,21.1,0.6,1023,2018,4,24,23,8,34.54,0.6906,-0.2421,0.0462,-0.6799
0.047,0.026,-0.005,41.7,26.2,2.2,1023,2018,4,24,23,8,34.549,0.6918,-0.2438,0.0384,-0.6785
0.023,0.057,-0.07,42.9,20.4,3.9,1023,2018,4,24,23,8,34.566,0.6928,-0.2456,0.0304,-0.6772
-0.023,0.03,-0.074,45.9,16.4,6.1,1023,2018,4,24,23,8,34.586,0.6931,-0.2489,0.0224,-0.6761
0.035,-0.019,0.072,43.9,26.7,5.9,0,2018,4,24,23,8,34.624,0.6934,-0.2517,0.0142,-0.6749
0.087,-0.01,0.08,39.5,43,1.6,0,2018,4,24,23,8,34.645,0.6948,-0.2516,0.0054,-0.6736
0.051,0.054,-0.001,35.3,42.3,-2.2,0,2018,4,24,23,8,34.648,0.697,-0.2498,-0.004,-0.672
-0.029,0.094,-0.008,30.5,22,-3.3,0,2018,4,24,23,8,34.683,0.6987,-0.2492,-0.0121,-0.6703
-0.005,0.057,0.071,24.1,7.6,-3.4,0,2018,4,24,23,8,34.683,0.6996,-0.2503,-0.0176,-0.6689
0.034,0.029,0.049,17.8,2.3,-5.7,0,2018,4,24,23,8,34.705,0.7003,-0.2515,-0.0205,-0.6676
0.018,0.045,-0.034,14.6,-5.3,-7.3,0,2018,4,24,23,8,34.741,0.7011,-0.253,-0.0221,-0.6662
-0.021,0.046,-0.061,14.4,-15.9,-7.2,0,2018,4,24,23,8,34.765,0.7013,-0.2561,-0.0226,-0.6647
-0.058,0.026,-0.019,13.2,-20.1,-5.3,0,2018,4,24,23,8,34.768,0.701,-0.2603,-0.0225,-0.6635
-0.011,0.009,-0.025,10.7,-18.7,-3.8,0,2018,4,24,23,8,34.804,0.7005,-0.2642,-0.0218,-0.6625
-0.003,0.014,-0.077,10.9,-18.5,-3.2,0,2018,4,24,23,8,34.825,0.7,-0.2679,-0.0209,-0.6616
-0.036,0.005,-0.103,12,-18.1,-3.3,0,2018,4,24,23,8,34.83,0.6993,-0.2721,-0.0203,-0.6606
-0.067,0.016,-0.142,13.2,-17.8,-3.1,0,2018,4,24,23,8,34.864,0.6984,-0.2767,-0.0202,-0.6596
-0.029,0.014,-0.15,16.8,-16.2,-1.2,0,2018,4,24,23,8,34.887,0.6975,-0.2814,-0.0204,-0.6586
-0.017,0,-0.171,22.6,-12.3,4.4,0,2018,4,24,23,8,34.895,0.6963,-0.2864,-0.0215,-0.6576
-0.067,-0.027,-0.195,28,-5,13.5,1023,2018,4,24,23,8,34.924,0.6946,-0.2908,-0.0241,-0.6574
-0.056,-0.029,-0.193,32.9,7.8,20.4,1023,2018,4,24,23,8,34.927,0.6925,-0.2941,-0.0288,-0.658
-0.029,-0.043,-0.144,37.2,24.2,21.5,1023,2018,4,24,23,8,34.965,0.6907,-0.2962,-0.036,-0.6586
-0.042,-0.048,-0.113,39.2,42.4,16.9,1023,2018,4,24,23,8,34.986,0.6898,-0.2969,-0.0456,-0.6586
-0.06,0.024,-0.125,38.6,48.4,10.1,1023,2018,4,24,23,8,34.989,0.6901,-0.2966,-0.0569,-0.6576
-0.058,0.082,-0.121,37.2,41.1,3.5,1023,2018,4,24,23,8,35.024,0.6909,-0.2961,-0.0678,-0.6559
-0.05,0.105,-0.113,35.1,27.6,-1.9,1023,2018,4,24,23,8,35.045,0.6921,-0.2961,-0.0761,-0.6537
-0.041,0.106,-0.091,34.8,12.8,-4.7,1023,2018,4,24,23,8,35.047,0.6931,-0.2977,-0.0824,-0.6512
-0.032,0.131,-0.075,35.7,-5.3,-6,1023,2018,4,24,23,8,35.084,0.6934,-0.3013,-0.0868,-0.6486
-0.043,0.135,-0.07,37,-22.6,-5,1023,2018,4,24,23,8,35.105,0.6927,-0.3074,-0.0892,-0.6462
-0.021,0.118,-0.065,37.9,-32.4,-2,1023,2018,4,24,23,8,35.109,0.691,-0.3151,-0.0903,-0.6442
0.017,0.113,-0.108,39.1,-37,1.8,1023,2018,4,24,23,8,35.147,0.6882,-0.3234,-0.0918,-0.6428
0.034,0.091,-0.074,44.8,-36.8,7.6,1023,2018,4,24,23,8,35.168,0.6847,-0.3323,-0.0937,-0.6418
0.014,0.055,-0.029,49.3,-27.8,14.5,0,2018,4,24,23,8,35.172,0.6806,-0.3411,-0.0967,-0.641
0.005,0.056,-0.041,52.6,-14.2,22.1,0,2018,4,24,23,8,35.189,0.6763,-0.3488,-0.102,-0.6406
-0.01,0.066,-0.077,55.9,-4.3,30.8,0,2018,4,24,23,8,35.21,0.6716,-0.3553,-0.1096,-0.6407
-0.006,0.079,-0.088,61.5,-1.6,37.7,0,2018,4,24,23,8,35.246,0.6661,-0.3617,-0.1191,-0.6412
-0.041,0.082,-0.033,65.6,-2,43,0,2018,4,24,23,8,35.267,0.6597,-0.3682,-0.1298,-0.642
-0.062,0.096,-0.014,66.4,-0.7,49.1,0,2018,4,24,23,8,35.269,0.6526,-0.3746,-0.1411,-0.6433
-0.216,0.293,0.132,53.1,-56.6,50.4,0,2018,4,24,23,8,35.306,0.6437,-0.3827,-0.1487,-0.6456
-0.16,-0.285,0.273,38.5,-100.4,37.9,0,2018,4,24,23,8,35.327,0.6316,-0.3969,-0.1465,-0.6495
-0.256,-0.329,0.272,32.8,-60.8,35.9,0,2018,4,24,23,8,35.333,0.6208,-0.4089,-0.1437,-0.6531
-0.125,-0.063,0.176,28.6,-41.7,34,0,2018,4,24,23,8,35.371,0.6128,-0.4166,-0.1436,-0.6558
-0.11,-0.064,-0.003,28.8,-59.9,25,0,2018,4,24,23,8,35.392,0.6049,-0.4245,-0.1434,-0.6582
-0.048,-0.154,-0.076,35.3,-52.1,17.2,0,2018,4,24,23,8,35.394,0.5972,-0.4342,-0.1413,-0.6593
-0.083,-0.055,-0.071,37,-29.6,16.2,0,2018,4,24,23,8,35.412,0.5913,-0.4424,-0.1419,-0.659
-0.018,0.004,-0.069,39,-17.8,18.6,0,2018,4,24,23,8,35.431,0.5864,-0.4495,-0.1447,-0.6581
0.054,0.117,-0.096,42.5,-19.5,26.2,0,2018,4,24,23,8,35.452,0.5811,-0.4555,-0.1493,-0.6575
0.108,0.087,-0.095,45.3,-33,37.7,0,2018,4,24,23,8,35.47,0.5737,-0.4624,-0.1541,-0.6581
0.128,0.023,-0.185,54,-59.5,47.1,0,2018,4,24,23,8,35.494,0.5635,-0.4716,-0.1575,-0.6596
0.055,-0.256,0.018,76.9,-69.3,51.7,0,2018,4,24,23,8,35.513,0.5502,-0.4844,-0.1603,-0.6608
0.007,-0.552,0.267,87.7,-2.1,47.9,0,2018,4,24,23,8,35.532,0.5386,-0.4966,-0.1679,-0.6595
0.089,-0.167,0.249,84.6,60.3,43.5,0,2018,4,24,23,8,35.555,0.5343,-0.5013,-0.1845,-0.6549
0.148,0.052,0.07,91.3,26,50.6,0,2018,4,24,23,8,35.591,0.5301,-0.5054,-0.2019,-0.6501
0.12,-0.104,-0.019,101,22.7,57.4,1023,2018,4,24,23,8,35.614,0.5224,-0.5123,-0.2171,-0.646
0.096,0.068,0.032,105.7,45,63.2,1023,2018,4,24,23,8,35.619,0.5152,-0.5179,-0.2358,-0.6407
0.113,0.169,-0.01,109.4,44.2,71.3,1023,2018,4,24,23,8,35.636,0.5069,-0.5225,-0.2569,-0.6355
0.053,0.138,0.012,111.4,36.3,78.7,1023,2018,4,24,23,8,35.654,0.4971,-0.5273,-0.2783,-0.6303
-0.018,0.025,0.075,107.5,26.7,81.5,1023,2018,4,24,23,8,35.672,0.4853,-0.5321,-0.2987,-0.6261
-0.02,0.015,-0.011,103.5,29.3,83.7,1023,2018,4,24,23,8,35.695,0.4729,-0.5365,-0.3183,-0.6221
-0.056,0.008,-0.034,102.1,35.6,83.3,1023,2018,4,24,23,8,35.713,0.4612,-0.5402,-0.3385,-0.617
-0.117,-0.055,-0.015,97.3,29.2,80.7,1023,2018,4,24,23,8,35.737,0.4497,-0.5435,-0.3577,-0.6118
-0.11,-0.066,-0.028,90.2,14.9,80.3,1023,2018,4,24,23,8,35.755,0.437,-0.5472,-0.3746,-0.6075
-0.062,-0.088,-0.054,85.9,18,81.5,1023,2018,4,24,23,8,35.793,0.4242,-0.5504,-0.3907,-0.6036
-0.085,-0.108,0.054,82.3,20.3,77.8,1023,2018,4,24,23,8,35.815,0.4126,-0.5526,-0.4061,-0.5994
-0.056,-0.156,0.111,76.1,18,74.8,1023,2018,4,24,23,8,35.821,0.4009,-0.5541,-0.4205,-0.596
-0.033,-0.197,0.101,73.4,25.8,69.3,1023,2018,4,24,23,8,35.838,0.39,-0.5549,-0.435,-0.5921
-0.054,-0.319,0.194,71.8,41,59.6,1023,2018,4,24,23,8,35.874,0.3809,-0.5552,-0.4495,-0.5869
-0.078,-0.276,0.325,66.6,62.9,50.1,1023,2018,4,24,23,8,35.874,0.375,-0.5543,-0.465,-0.5794
-0.087,-0.286,0.446,51.7,80.4,43,1023,2018,4,24,23,8,35.898,0.372,-0.552,-0.4808,-0.5706
-0.264,-0.084,0.438,28.7,74,33.1,1023,2018,4,24,23,8,35.934,0.3723,-0.5475,-0.4952,-0.5622
-0.351,-0.027,0.167,6.2,34.2,12,1023,2018,4,24,23,8,35.957,0.3738,-0.5436,-0.504,-0.5573
-0.34,-0.079,-0.069,-7.9,0.3,-12.3,0,2018,4,24,23,8,35.961,0.3758,-0.5428,-0.505,-0.5558
-0.286,-0.11,-0.035,-21.5,-36.5,-43.4,0,2018,4,24,23,8,35.977,0.3786,-0.5457,-0.4992,-0.5563
-0.206,-0.035,-0.012,-30.8,-76.9,-74.5,0,2018,4,24,23,8,35.995,0.3815,-0.5525,-0.4857,-0.5595
-0.29,-0.064,0.017,-39.5,-97.3,-101.2,0,2018,4,24,23,8,36.018,0.3846,-0.5627,-0.4657,-0.5642
-0.386,-0.006,0.038,-49.9,-99.3,-117.7,0,2018,4,24,23,8,36.035,0.3897,-0.5737,-0.4416,-0.569
-0.227,0.029,0.057,-60.8,-108.2,-127.1,0,2018,4,24,23,8,36.06,0.3959,-0.5841,-0.4149,-0.5743
-0.144,0.134,0,-62.6,-120.9,-128.9,0,2018,4,24,23,8,36.081,0.4012,-0.5945,-0.3858,-0.5802
-0.08,0.168,-0.051,-56.8,-124.3,-118.1,0,2018,4,24,23,8,36.099,0.404,-0.6047,-0.3569,-0.5862
-0.058,0.148,-0.069,-47.6,-114.7,-108.4,0,2018,4,24,23,8,36.122,0.4059,-0.6146,-0.3288,-0.5909
-0.056,0.163,-0.07,-42.4,-86.5,-99.5,0,2018,4,24,23,8,36.14,0.4081,-0.6229,-0.3039,-0.594
0.007,0.232,-0.061,-40.5,-53.3,-91.4,0,2018,4,24,23,8,36.159,0.4126,-0.6284,-0.2835,-0.5952
0.041,0.279,-0.054,-40.7,-31.4,-86.5,0,2018,4,24,23,8,36.181,0.4193,-0.6314,-0.2666,-0.5952
0.052,0.303,-0.049,-42.7,-23.8,-81.5,0,2018,4,24,23,8,36.201,0.427,-0.6328,-0.2514,-0.5948
0.042,0.326,-0.037,-46.5,-25,-75.3,0,2018,4,24,23,8,36.217,0.4344,-0.6333,-0.237,-0.5949
0.04,0.337,-0.047,-50.7,-33.7,-67.8,0,2018,4,24,23,8,36.236,0.4405,-0.6333,-0.2223,-0.596
0.052,0.336,-0.069,-53.1,-45.2,-60.5,0,2018,4,24,23,8,36.258,0.4448,-0.6333,-0.2071,-0.5983
0.046,0.309,-0.081,-52.9,-56.3,-53.4,1023,2018,4,24,23,8,36.296,0.4469,-0.6337,-0.1913,-0.6016
0.053,0.271,-0.094,-50.6,-57.6,-45.9,1023,2018,4,24,23,8,36.319,0.4473,-0.6344,-0.1756,-0.6053
0.064,0.247,-0.108,-46.5,-52.3,-38.5,1023,2018,4,24,23,8,36.324,0.4471,-0.6348,-0.1613,-0.6091
0.085,0.22,-0.1,-41.6,-39.4,-30.6,1023,2018,4,24,23,8,36.339,0.4468,-0.6346,-0.1491,-0.6125
0.103,0.206,-0.103,-37.2,-24.5,-22.8,1023,2018,4,24,23,8,36.362,0.4472,-0.6335,-0.1397,-0.6156
0.101,0.198,-0.109,-33.2,-10.2,-14.7,1023,2018,4,24,23,8,36.38,0.4481,-0.6315,-0.1331,-0.6184
0.079,0.187,-0.112,-30.8,2,-7,1023,2018,4,24,23,8,36.402,0.4496,-0.6286,-0.1291,-0.6212
0.009,0.178,-0.107,-30.9,10.6,0.4,1023,2018,4,24,23,8,36.421,0.4514,-0.6248,-0.1271,-0.6241
-0.052,0.17,-0.113,-33.1,13.3,7.2,1023,2018,4,24,23,8,36.444,0.4531,-0.6202,-0.1264,-0.6276
-0.086,0.164,-0.115,-36.5,8.6,12.7,1023,2018,4,24,23,8,36.46,0.4539,-0.6153,-0.126,-0.6319
-0.104,0.151,-0.114,-40.7,-1.3,16.3,1023,2018,4,24,23,8,36.479,0.4535,-0.6104,-0.1249,-0.6372
-0.107,0.141,-0.107,-45.3,-14.2,16.9,1023,2018,4,24,23,8,36.501,0.4517,-0.6058,-0.1224,-0.6432
-0.112,0.143,-0.125,-49,-29.2,15.7,1023,2018,4,24,23,8,36.539,0.4486,-0.6018,-0.118,-0.65
-0.115,0.147,-0.145,-50.9,-45.6,13.5,1023,2018,4,24,23,8,36.561,0.4439,-0.5988,-0.1112,-0.6572
-0.106,0.134,-0.131,-51,-58.5,12.3,1023,2018,4,24,23,8,36.566,0.4379,-0.5967,-0.1025,-0.6645
-0.05,0.128,-0.13,-51,-66.8,11.2,1023,2018,4,24,23,8,36.582,0.4309,-0.5953,-0.0925,-0.6718
-0.06,0.085,-0.142,-49.1,-67.5,13.8,1023,2018,4,24,23,8,36.604,0.4231,-0.5943,-0.0821,-0.6789
-0.023,0.088,-0.142,-46.7,-63.2,19.3,1023,2018,4,24,23,8,36.625,0.415,-0.5931,-0.0725,-0.686
0.025,0.098,-0.156,-44.7,-59.6,25.5,0,2018,4,24,23,8,36.643,0.4064,-0.5917,-0.0642,-0.6931
0.084,0.106,-0.168,-41.8,-59.3,31.4,0,2018,4,24,23,8,36.666,0.3973,-0.5903,-0.0569,-0.7002
0.129,0.099,-0.173,-37.6,-61,35.4,0,2018,4,24,23,8,36.685,0.3873,-0.5893,-0.0502,-0.7071
0.156,0.091,-0.182,-32.7,-61.2,37.7,0,2018,4,24,23,8,36.703,0.3767,-0.5887,-0.0441,-0.7137
0.161,0.069,-0.184,-26.7,-59,39.9,0,2018,4,24,23,8,36.725,0.3659,-0.5887,-0.0386,-0.7197
0.145,0.053,-0.194,-19.9,-55.4,43.1,0,2018,4,24,23,8,36.743,0.3549,-0.5892,-0.0342,-0.725
0.11,0.033,-0.195,-11.5,-50.6,47.5,0,2018,4,24,23,8,36.761,0.3437,-0.5901,-0.0312,-0.7297
0.062,0.004,-0.185,-2.3,-44,52.6,0,2018,4,24,23,8,36.784,0.3325,-0.5918,-0.0299,-0.7336
0.007,-0.021,-0.165,7.4,-36.4,58,0,2018,4,24,23,8,36.803,0.3212,-0.5942,-0.0306,-0.7367
-0.034,-0.049,-0.137,17.1,-28.9,62.6,0,2018,4,24,23,8,36.827,0.3099,-0.5972,-0.0335,-0.7389
-0.042,-0.088,-0.087,25.7,-20.7,64.3,0,2018,4,24,23,8,36.844,0.2989,-0.601,-0.0381,-0.7402
-0.004,-0.122,-0.036,32.5,-9.5,61.9,0,2018,4,24,23,8,36.866,0.2892,-0.6055,-0.0437,-0.74
0,-0.162,-0.006,38.6,6,54.8,0,2018,4,24,23,8,36.884,0.2819,-0.6101,-0.0505,-0.7387
-0.067,-0.187,0.055,43.2,25.9,45.3,0,2018,4,24,23,8,36.908,0.2777,-0.6141,-0.0587,-0.7363
-0.113,-0.206,0.095,44.3,47.9,35.1,0,2018,4,24,23,8,36.926,0.2762,-0.6175,-0.0699,-0.733
-0.128,-0.18,0.144,41.6,66.1,24.7,0,2018,4,24,23,8,36.948,0.2781,-0.6198,-0.0827,-0.729
-0.051,-0.141,0.172,34.3,74.1,13.3,1023,2018,4,24,23,8,36.965,0.2829,-0.6209,-0.0956,-0.7247
0.053,-0.067,0.162,24.6,64.8,2.6,1023,2018,4,24,23,8,37,0.289,-0.6209,-0.1069,-0.7206
0.137,0.002,0.141,14.2,40.6,-7.4,1023,2018,4,24,23,8,37.024,0.2948,-0.6207,-0.1142,-0.7174
0.151,0.036,0.115,4.5,5.7,-15.8,1023,2018,4,24,23,8,37.028,0.2986,-0.6207,-0.1161,-0.7155
0.088,0.04,0.113,-3.1,-28.2,-20.3,1023,2018,4,24,23,8,37.043,0.3,-0.6206,-0.1125,-0.7156
0.026,0.009,0.116,-8.6,-55.3,-20,1023,2018,4,24,23,8,37.083,0.2982,-0.6215,-0.1044,-0.7168
-0.059,-0.029,0.12,-12.6,-71,-16.3,1023,2018,4,24,23,8,37.083,0.2939,-0.623,-0.0935,-0.7187
-0.098,-0.071,0.121,-13.7,-71.3,-11.7,1023,2018,4,24,23,8,37.107,0.2884,-0.6246,-0.0819,-0.721
-0.099,-0.098,0.123,-13.7,-60,-8.7,1023,2018,4,24,23,8,37.145,0.2831,-0.6256,-0.0712,-0.7233
-0.063,-0.095,0.113,-12.1,-40.4,-8.7,1023,2018,4,24,23,8,37.167,0.2794,-0.626,-0.0627,-0.7252
-0.028,-0.078,0.097,-9.3,-17.9,-12,1023,2018,4,24,23,8,37.172,0.2783,-0.6256,-0.0568,-0.7265
-0.051,-0.04,0.095,-7.3,1.3,-17.8,1023,2018,4,24,23,8,37.188,0.2799,-0.6245,-0.0535,-0.7271
0.021,-0.005,0.077,-7.1,14.3,-23.4,1023,2018,4,24,23,8,37.211,0.2839,-0.6227,-0.0517,-0.7272
-0.001,0.032,0.048,-7.3,19,-28.3,1023,2018,4,24,23,8,37.227,0.2893,-0.6206,-0.0508,-0.7269
0.025,0.058,0.026,-8.5,20.5,-31.9,1023,2018,4,24,23,8,37.25,0.2953,-0.6185,-0.0499,-0.7264
0.029,0.083,-0.009,-8.6,15.9,-31.7,1023,2018,4,24,23,8,37.265,0.3011,-0.6165,-0.0487,-0.7257
0.028,0.08,-0.032,-8,12.4,-29.3,1023,2018,4,24,23,8,37.283,0.3061,-0.615,-0.0473,-0.725
0.018,0.08,-0.045,-7.6,11.1,-23.6,1023,2018,4,24,23,8,37.307,0.3104,-0.6138,-0.046,-0.7243
0.007,0.077,-0.055,-6.7,9.8,-16.4,1023,2018,4,24,23,8,37.326,0.3136,-0.6128,-0.0454,-0.7239
0.008,0.077,-0.064,-6,8.5,-8.9,0,2018,4,24,23,8,37.349,0.3156,-0.6119,-0.0455,-0.7237
0.014,0.076,-0.062,-5.6,7.3,-2.8,0,2018,4,24,23,8,37.368,0.3167,-0.6112,-0.0461,-0.7238
0.022,0.073,-0.073,-5,4,1,0,2018,4,24,23,8,37.391,0.3169,-0.6107,-0.0471,-0.7241
0.016,0.068,-0.075,-4,-1.2,3.2,0,2018,4,24,23,8,37.409,0.3163,-0.6104,-0.0478,-0.7245
0.007,0.051,-0.071,-3.1,-5.9,3.9,0,2018,4,24,23,8,37.432,0.315,-0.6106,-0.0479,-0.7248
-0.007,0.037,-0.071,-1.7,-8,4.4,0,2018,4,24,23,8,37.467,0.3133,-0.6112,-0.0477,-0.7251
-0.02,0.018,-0.06,-0.1,-6.6,4.7,0,2018,4,24,23,8,37.467,0.3116,-0.612,-0.0474,-0.7252
-0.027,0.007,-0.052,0.8,-2.7,4.7,0,2018,4,24,23,8,37.49,0.3103,-0.6127,-0.0475,-0.7252
-0.016,0.011,-0.049,2,1.8,4.3,0,2018,4,24,23,8,37.508,0.3095,-0.6133,-0.0482,-0.725
-0.008,0.016,-0.044,3.2,4.6,2.9,0,2018,4,24,23,8,37.53,0.3092,-0.6138,-0.0493,-0.7246
-0.004,0.022,-0.041,4,5.3,2,0,2018,4,24,23,8,37.548,0.3092,-0.6143,-0.0506,-0.7241
-0.008,0.021,-0.033,4.3,4.6,1.5,0,2018,4,24,23,8,37.571,0.3093,-0.6148,-0.0518,-0.7235
-0.024,0.019,-0.013,4.1,3.4,2.4,1023,2018,4,24,23,8,37.59,0.3092,-0.6153,-0.0529,-0.723
-0.015,0.029,-0.008,2.9,0.9,4.1,1023,2018,4,24,23,8,37.612,0.3089,-0.6157,-0.054,-0.7228
-0.017,0.008,-0.011,1.9,-2.6,5.4,1023,2018,4,24,23,8,37.63,0.3079,-0.6161,-0.0547,-0.7228
-0.079,-0.004,-0.004,1.1,-4.9,5.9,1023,2018,4,24,23,8,37.652,0.3067,-0.6166,-0.0551,-0.7228
-0.104,-0.085,0.058,-4.9,-13.2,7.1,1023,2018,4,24,23,8,37.671,0.3049,-0.6169,-0.0543,-0.7235
-0.092,-0.142,0.153,-14,-5.2,8.4,1023,2018,4,24,23,8,37.694,0.3031,-0.6159,-0.0531,-0.7251
-0.035,-0.112,-0.01,-17.7,13.1,10.8,1023,2018,4,24,23,8,37.711,0.303,-0.6132,-0.0529,-0.7275
-0.025,-0.047,-0.123,-10.4,31.5,11.3,1023,2018,4,24,23,8,37.733,0.3044,-0.6103,-0.056,-0.7291
-0.102,-0.147,0.068,-9.5,46.2,4.3,1023,2018,4,24,23,8,37.769,0.3077,-0.6073,-0.0606,-0.7298
0.021,0.218,-0.025,-6.5,41.6,3.3,1023,2018,4,24,23,8,37.792,0.313,-0.6033,-0.0669,-0.7304
0.084,0.424,-0.18,2.4,-34.5,6.5,1023,2018,4,24,23,8,37.797,0.3126,-0.6029,-0.0676,-0.7308
0.016,0.264,-0.14,7.7,-77.8,9.9,1023,2018,4,24,23,8,37.812,0.3051,-0.6068,-0.0613,-0.7313
-0.039,0.116,-0.037,6.5,-114.2,11.5,1023,2018,4,24,23,8,37.831,0.2928,-0.6128,-0.0502,-0.7322
0.041,0.111,0,-0.9,-111.7,12.6,1023,2018,4,24,23,8,37.854,0.2786,-0.6187,-0.0378,-0.7335
0.022,-0.075,0.013,2.8,-89,11.3,1023,2018,4,24,23,8,37.872,0.2657,-0.6235,-0.0262,-0.7347
0.09,0.017,-0.06,9.9,-56.4,8.6,1023,2018,4,24,23,8,37.894,0.2572,-0.6277,-0.0181,-0.7344
0.112,0.097,-0.098,15.4,-42.9,6.5,0,2018,4,24,23,8,37.931,0.2507,-0.632,-0.0135,-0.7331
0.052,0.139,-0.032,20.7,-31.1,3.2,0,2018,4,24,23,8,37.954,0.2454,-0.6362,-0.0108,-0.7312
-0.074,0.088,0.156,22.9,-28.1,-3.2,0,2018,4,24,23,8,37.959,0.2419,-0.6404,-0.0084,-0.7288
-0.232,0.224,0.11,10.8,-55,-8.9,0,2018,4,24,23,8,37.976,0.2386,-0.644,-0.0038,-0.7268
-0.2,-0.027,0.284,-8.2,-95.7,-13.1,0,2018,4,24,23,8,37.997,0.2307,-0.6473,0.0081,-0.7263
-0.108,-0.017,0.277,-24.3,-108.4,-19.5,0,2018,4,24,23,8,38.03,0.2212,-0.649,0.0235,-0.7274
-0.126,-0.18,0.195,-36.2,-118.7,-24.7,0,2018,4,24,23,8,38.053,0.1982,-0.6497,0.0629,-0.7311
-0.044,-0.104,0.15,-32.3,-101.4,-28.7,0,2018,4,24,23,8,38.058,0.1888,-0.6486,0.081,-0.7328
0.031,-0.106,0.166,-26.5,-91.5,-33.4,0,2018,4,24,23,8,38.073,0.1814,-0.6475,0.0979,-0.7336
0.095,-0.109,0.154,-21,-79.6,-36.2,0,2018,4,24,23,8,38.097,0.1759,-0.6465,0.1133,-0.7336
0.175,-0.133,0.09,-12,-71.1,-39.4,0,2018,4,24,23,8,38.115,0.1719,-0.6458,0.1277,-0.7327
0.21,-0.158,0.023,-0.9,-54.3,-39.8,0,2018,4,24,23,8,38.133,0.1697,-0.646,0.1406,-0.7307
0.177,-0.145,0.067,8.9,-19.1,-36.4,0,2018,4,24,23,8,38.155,0.1705,-0.6467,0.1495,-0.7282
0.158,-0.112,0.108,16.7,9.3,-34.1,0,2018,4,24,23,8,38.192,0.175,-0.6475,0.1534,-0.7255
0.18,-0.063,0.087,25.3,22.6,-30.5,0,2018,4,24,23,8,38.215,0.1817,-0.6488,0.1542,-0.7226
0.24,0.014,0.004,36.4,23.1,-27,0,2018,4,24,23,8,38.22,0.1889,-0.6511,0.1536,-0.7188
0.273,0.063,-0.051,48.3,26.5,-25.5,1023,2018,4,24,23,8,38.237,0.1968,-0.6548,0.153,-0.7134
0.301,0.072,-0.015,56.8,40.8,-22.1,1023,2018,4,24,23,8,38.275,0.2057,-0.6595,0.1506,-0.707
0.298,0.071,0.001,59.1,57.5,-14.8,1023,2018,4,24,23,8,38.275,0.2161,-0.664,0.1452,-0.7008
0.27,0.064,-0.041,56.9,65.7,-6.7,1023,2018,4,24,23,8,38.299,0.227,-0.6681,0.1375,-0.695
0.163,0.112,-0.104,48.4,69.2,3.4,1023,2018,4,24,23,8,38.315,0.2365,-0.6722,0.1278,-0.6897
0.045,0.101,-0.145,33.2,62,10.6,1023,2018,4,24,23,8,38.336,0.2443,-0.6746,0.1171,-0.6866
-0.103,0.005,-0.206,13.1,37.9,12.1,1023,2018,4,24,23,8,38.36,0.2493,-0.6754,0.1087,-0.6854
-0.236,-0.054,-0.254,-6,12.9,14.1,1023,2018,4,24,23,8,38.377,0.2506,-0.6749,0.1041,-0.6861
-0.331,-0.076,-0.266,-19.6,-3.9,13.1,1023,2018,4,24,23,8,38.395,0.249,-0.6734,0.1027,-0.6884
-0.354,-0.096,-0.236,-26,-14.3,5.8,1023,2018,4,24,23,8,38.417,0.2463,-0.6711,0.1036,-0.6914
-0.342,-0.134,-0.212,-26.7,-23.9,-7.7,1023,2018,4,24,23,8,38.455,0.2435,-0.6687,0.1074,-0.6941
-0.28,-0.103,-0.152,-23.1,-19.4,-20.2,1023,2018,4,24,23,8,38.479,0.2422,-0.6664,0.1128,-0.696
-0.19,-0.066,-0.14,-19.2,-4.9,-26.9,1023,2018,4,24,23,8,38.483,0.2432,-0.6638,0.1181,-0.6972
-0.092,0.026,-0.156,-11.6,17.8,-27,1023,2018,4,24,23,8,38.501,0.2472,-0.661,0.121,-0.6979
-0.02,0.071,-0.155,-4.2,29.2,-21.2,1023,2018,4,24,23,8,38.537,0.2527,-0.6585,0.1212,-0.6983
-0.027,0.127,-0.108,1.2,43.1,-14.8,0,2018,4,24,23,8,38.537,0.2591,-0.6564,0.1189,-0.6984
-0.011,0.102,-0.082,6.1,53.5,-8.9,0,2018,4,24,23,8,38.562,0.2661,-0.6544,0.1141,-0.6984
0.011,0.072,-0.092,11.4,62.8,-5.3,0,2018,4,24,23,8,38.581,0.2733,-0.6532,0.107,-0.6979
0.017,0.074,-0.114,17,69.7,-2.2,0,2018,4,24,23,8,38.595,0.2812,-0.6523,0.0984,-0.6969
0.01,0.106,-0.107,21.4,78.5,0.2,0,2018,4,24,23,8,38.62,0.2901,-0.6509,0.0884,-0.6958
0.042,0.134,-0.071,25.6,83.4,2.1,0,2018,4,24,23,8,38.637,0.2994,-0.6497,0.0769,-0.6943
0.112,0.128,-0.079,31,87.4,3,0,2018,4,24,23,8,38.66,0.3084,-0.6492,0.0643,-0.6922
0.148,0.153,-0.062,37.3,90.4,2.9,0,2018,4,24,23,8,38.68,0.318,-0.649,0.0509,-0.6892
0.191,0.139,-0.071,43.4,97,3.5,0,2018,4,24,23,8,38.717,0.328,-0.649,0.0367,-0.6853
0.178,0.187,-0.06,47,107.4,5.6,0,2018,4,24,23,8,38.737,0.3389,-0.6488,0.0208,-0.6809
0.155,0.187,-0.067,48.5,112,10.2,0,2018,4,24,23,8,38.744,0.3497,-0.6481,0.0029,-0.6764
0.061,0.147,-0.047,48.1,111.5,13.9,0,2018,4,24,23,8,38.76,0.3601,-0.6471,-0.0155,-0.6717
-0.002,0.122,0.003,43.2,101.4,16.6,0,2018,4,24,23,8,38.783,0.3695,-0.6456,-0.0335,-0.6674
-0.028,0.116,0.038,36.2,85.6,16.9,0,2018,4,24,23,8,38.798,0.3772,-0.6438,-0.0497,-0.6638
-0.013,0.145,0.035,29,68.5,14.4,0,2018,4,24,23,8,38.817,0.3834,-0.642,-0.063,-0.6609
-0.004,0.132,0.032,24.3,48.7,11.8,0,2018,4,24,23,8,38.837,0.388,-0.6409,-0.073,-0.6582
-0.017,0.102,0.028,22.8,35.9,9.6,0,2018,4,24,23,8,38.875,0.3905,-0.6403,-0.0814,-0.6563
0.006,0.11,0.045,22.8,33.1,9,1023,2018,4,24,23,8,38.899,0.3925,-0.64,-0.0885,-0.6545
0.07,0.111,0.054,25.5,34.5,7.4,1023,2018,4,24,23,8,38.903,0.3946,-0.6397,-0.0956,-0.6525
0.105,0.09,0.033,28.6,38.4,3.6,1023,2018,4,24,23,8,38.921,0.3975,-0.6396,-0.1026,-0.6498
0.079,0.095,0.039,29.8,40.6,-0.1,1023,2018,4,24,23,8,38.943,0.4011,-0.6396,-0.1097,-0.6464
0.077,0.089,0.036,27.5,41.4,-4.8,1023,2018,4,24,23,8,38.964,0.4053,-0.6394,-0.1164,-0.6428
0.073,0.09,0.011,22.6,40.8,-10.3,1023,2018,4,24,23,8,38.981,0.4101,-0.639,-0.1224,-0.639
0.05,0.054,-0.002,15.1,37.9,-17.7,1023,2018,4,24,23,8,39.003,0.4155,-0.6383,-0.1269,-0.6353
0.023,0.034,-0.019,6.4,32,-25.2,1023,2018,4,24,23,8,39.021,0.4214,-0.6374,-0.1293,-0.6318
-0.01,0.026,-0.022,-3.7,25.3,-33.3,1023,2018,4,24,23,8,39.044,0.4276,-0.6362,-0.1294,-0.6289
-0.052,-0.02,-0.066,-20.6,11.8,-48.4,1023,2018,4,24,23,8,39.083,0.4409,-0.6329,-0.1229,-0.6243
-0.073,-0.078,-0.067,-26.5,-1.8,-56.5,1023,2018,4,24,23,8,39.087,0.4475,-0.6316,-0.1157,-0.6223
-0.092,-0.135,-0.045,-30.9,-11.3,-64.6,1023,2018,4,24,23,8,39.102,0.4538,-0.6309,-0.1056,-0.6203
-0.082,-0.147,-0.038,-33.8,-10.4,-72.5,1023,2018,4,24,23,8,39.12,0.4608,-0.63,-0.0936,-0.618
-0.072,-0.103,-0.026,-35.4,-3.7,-78.8,1023,2018,4,24,23,8,39.143,0.4688,-0.6285,-0.0812,-0.6152
-0.103,-0.122,0.007,-37.8,2.3,-83,1023,2018,4,24,23,8,39.161,0.478,-0.6259,-0.069,-0.6122
-0.16,-0.113,0.019,-42.1,4.4,-86.6,1023,2018,4,24,23,8,39.184,0.488,-0.6224,-0.0565,-0.6091
-0.22,-0.103,0.01,-48.5,-0.4,-86.9,1023,2018,4,24,23,8,39.219,0.4977,-0.6184,-0.0436,-0.6064
-0.288,-0.115,0.012,-57,-11.7,-85.5,1023,2018,4,24,23,8,39.243,0.5062,-0.6142,-0.0294,-0.6046
-0.329,-0.144,0.017,-67.8,-18,-81.4,0,2018,4,24,23,8,39.248,0.513,-0.6097,-0.0138,-0.6039
-0.309,-0.153,-0.014,-79.9,-20.8,-75.3,0,2018,4,24,23,8,39.267,0.5187,-0.6042,0.0025,-0.6047
-0.254,-0.141,-0.036,-91.1,-28.2,-68,0,2018,4,24,23,8,39.284,0.523,-0.5979,0.02,-0.607
-0.197,-0.117,-0.028,-99.4,-41.4,-62,0,2018,4,24,23,8,39.307,0.5252,-0.5913,0.0388,-0.6107
-0.118,-0.09,-0.02,-103.1,-58.5,-59.7,0,2018,4,24,23,8,39.325,0.5252,-0.5851,0.0595,-0.615
0.012,-0.048,-0.016,-100.6,-69.5,-60.7,0,2018,4,24,23,8,39.348,0.5237,-0.5796,0.0821,-0.6188
0.19,0.003,0,-90.3,-72.9,-63.8,0,2018,4,24,23,8,39.364,0.5219,-0.5747,0.1056,-0.6213
0.294,0.038,0.075,-77.6,-63.3,-66.4,0,2018,4,24,23,8,39.382,0.5204,-0.5705,0.1272,-0.6223
0.346,0.072,0.171,-68,-38.6,-65.6,0,2018,4,24,23,8,39.405,0.5207,-0.5658,0.146,-0.6222
0.351,0.04,0.197,-63.7,0.9,-62.3,0,2018,4,24,23,8,39.442,0.5241,-0.5587,0.1602,-0.6224
0.364,0.071,0.095,-59.5,29.8,-59.6,0,2018,4,24,23,8,39.442,0.5307,-0.5485,0.1698,-0.6233
0.337,0.108,0.111,-57.9,29.2,-58.1,0,2018,4,24,23,8,39.468,0.5384,-0.5374,0.1773,-0.6243
0.311,0.128,0.117,-58.9,8.1,-56.7,0,2018,4,24,23,8,39.503,0.5445,-0.5274,0.1861,-0.6249
0.236,0.052,0.12,-60.4,-6.8,-56.1,0,2018,4,24,23,8,39.526,0.5486,-0.5191,0.1971,-0.6249
0.16,-0.05,0.079,-61.7,-0.9,-55.2,0,2018,4,24,23,8,39.53,0.552,-0.511,0.2085,-0.6249
0.066,-0.068,0.01,-63,7.9,-54.5,0,2018,4,24,23,8,39.544,0.5564,-0.5014,0.2194,-0.6251
0.001,-0.04,-0.027,-65.4,0.3,-53.9,1023,2018,4,24,23,8,39.58,0.5603,-0.4918,0.2302,-0.6253
-0.019,0.001,-0.056,-67,-20.2,-51.5,1023,2018,4,24,23,8,39.603,0.5623,-0.4837,0.2425,-0.6252
-0.018,-0.006,-0.083,-66.7,-40.6,-47.7,1023,2018,4,24,23,8,39.604,0.5619,-0.4779,0.2568,-0.6243
-0.009,0,-0.111,-63.9,-52.1,-44.2,1023,2018,4,24,23,8,39.642,0.5595,-0.4741,0.2725,-0.6227
-0.015,0.003,-0.085,-60,-57.4,-41.6,1023,2018,4,24,23,8,39.664,0.5561,-0.4714,0.2884,-0.6206
0.001,0.04,-0.065,-55.5,-64.6,-40.3,1023,2018,4,24,23,8,39.669,0.5522,-0.4695,0.3041,-0.618
0.025,0.062,-0.081,-49.3,-74.1,-39.1,1023,2018,4,24,23,8,39.687,0.5477,-0.4688,0.3202,-0.6144
0.045,0.062,-0.078,-41.1,-78.5,-37.3,1023,2018,4,24,23,8,39.71,0.5428,-0.4694,0.3363,-0.6097
0.037,0.038,-0.063,-32.4,-69.6,-34.1,1023,2018,4,24,23,8,39.728,0.5381,-0.4707,0.3511,-0.6045
0.026,0.01,-0.034,-25.9,-54.8,-32.8,1023,2018,4,24,23,8,39.749,0.5347,-0.4715,0.3634,-0.5996
0.018,0.01,-0.013,-20.9,-44.2,-33.7,1023,2018,4,24,23,8,39.786,0.5327,-0.4715,0.3736,-0.5951
0.02,0.033,-0.014,-17.2,-40,-35.2,1023,2018,4,24,23,8,39.81,0.5316,-0.4711,0.3827,-0.5906
0.034,0.028,-0.017,-14.5,-36.5,-35,1023,2018,4,24,23,8,39.814,0.5311,-0.4706,0.3912,-0.5859
0.03,0.007,-0.024,-12,-29.5,-34.5,0,2018,4,24,23,8,39.832,0.5311,-0.4698,0.3989,-0.5813
0.044,-0.009,-0.03,-9.4,-18.5,-34,0,2018,4,24,23,8,39.851,0.5319,-0.4686,0.4055,-0.577
0.059,0,-0.025,-5.8,-3.9,-33.3,0,2018,4,24,23,8,39.871,0.534,-0.4663,0.4105,-0.5733
0.064,0.024,-0.028,0.5,14.5,-31,0,2018,4,24,23,8,39.889,0.5376,-0.4631,0.4135,-0.5705
0.055,-0.003,-0.022,7.8,43.5,-28.1,0,2018,4,24,23,8,39.925,0.5433,-0.4585,0.413,-0.5691
0.081,0.019,-0.007,13.7,67.8,-26.4,0,2018,4,24,23,8,39.974,0.5517,-0.4518,0.4088,-0.5694
0.125,0.089,0.002,18.1,60.7,-26.3,0,2018,4,24,23,8,39.976,0.5612,-0.4443,0.4032,-0.57
0.139,0.066,-0.012,22.3,35.8,-23.4,0,2018,4,24,23,8,39.978,0.5694,-0.4392,0.399,-0.5688
0.121,-0.064,-0.007,27.1,33.9,-18.6,0,2018,4,24,23,8,39.99,0.5761,-0.4364,0.3958,-0.5664
0.098,-0.132,0.062,28.2,61.1,-14.1,0,2018,4,24,23,8,40.028,0.5836,-0.4328,0.3903,-0.5654
0.095,-0.076,0.045,24.5,85.4,-12.9,0,2018,4,24,23,8,40.049,0.5928,-0.4261,0.3814,-0.5668
0.05,-0.054,-0.055,19.8,83.4,-17.3,0,2018,4,24,23,8,40.051,0.6023,-0.4181,0.3723,-0.5689
0.014,-0.086,-0.034,15,71.2,-25.8,0,2018,4,24,23,8,40.066,0.611,-0.4106,0.365,-0.5699
0.02,-0.072,0.045,7.7,62.5,-33.4,0,2018,4,24,23,8,40.088,0.6193,-0.4028,0.3595,-0.5699
0.056,-0.048,0.07,-0.9,59.7,-38.6,0,2018,4,24,23,8,40.125,0.6276,-0.3938,0.3557,-0.5695
0.097,-0.001,-0.031,-4.4,57.4,-42.3,0,2018,4,24,23,8,40.147,0.6357,-0.384,0.3534,-0.5686
0.127,0.002,-0.087,-3.9,56.5,-45.7,0,2018,4,24,23,8,40.149,0.6436,-0.3745,0.3516,-0.5672
0.115,-0.055,-0.012,-1.5,72.4,-46.9,0,2018,4,24,23,8,40.188,0.6522,-0.3641,0.3488,-0.5659
0.092,-0.037,0.017,-1.8,96.1,-45.8,0,2018,4,24,23,8,40.209,0.6622,-0.3509,0.3441,-0.5654
0.057,0.02,-0.011,-3.8,104.8,-43.9,0,2018,4,24,23,8,40.211,0.6729,-0.3355,0.3375,-0.5662
0.012,0.081,-0.027,-7.5,90.3,-42.4,1023,2018,4,24,23,8,40.249,0.6826,-0.3205,0.3311,-0.567
-0.027,0.076,-0.014,-13.7,71.7,-37.5,1023,2018,4,24,23,8,40.269,0.6905,-0.3073,0.3264,-0.5675
-0.031,0.039,-0.05,-19.6,64.1,-29.2,1023,2018,4,24,23,8,40.273,0.6964,-0.2956,0.3234,-0.5682
-0.094,0.027,-0.095,-22.7,56.9,-22,1023,2018,4,24,23,8,40.308,0.7005,-0.2853,0.3211,-0.5698
-0.133,0.034,-0.095,-25.7,39.5,-18.7,1023,2018,4,24,23,8,40.308,0.7035,-0.2759,0.3202,-0.5713
-0.132,0.049,-0.023,-30.2,18.5,-17.4,1023,2018,4,24,23,8,40.329,0.7049,-0.2689,0.3213,-0.5721
-0.025,0.054,-0.049,-33.5,4.3,-12.9,1023,2018,4,24,23,8,40.366,0.705,-0.2639,0.3245,-0.5726
0.107,0.03,-0.052,-30.5,7,-0.3,1023,2018,4,24,23,8,40.387,0.7041,-0.2595,0.329,-0.5731
0.121,-0.067,-0.056,-24.5,39.8,15.3,1023,2018,4,24,23,8,40.391,0.7028,-0.2544,0.3298,-0.5766
0.121,-0.011,-0.083,-16.2,72.5,27.3,1023,2018,4,24,23,8,40.43,0.7019,-0.2464,0.3253,-0.5836
0.009,0.057,-0.049,-8.7,63.5,28.5,1023,2018,4,24,23,8,40.451,0.7013,-0.2378,0.3187,-0.5915
-0.139,0.075,0.046,-7.3,34,18.7,1023,2018,4,24,23,8,40.453,0.7004,-0.2325,0.3134,-0.5975
-0.177,-0.006,0.1,-13.6,17.4,6.6,1023,2018,4,24,23,8,40.472,0.6996,-0.2291,0.3114,-0.6008
-0.108,-0.011,0.025,-22.2,8.2,-4.4,0,2018,4,24,23,8,40.493,0.699,-0.2257,0.3122,-0.6023
-0.09,0.114,-0.059,-20.6,-20,-6.9,0,2018,4,24,23,8,40.531,0.6982,-0.224,0.3149,-0.6024
-0.177,0.105,0.025,-14.5,-49.3,-0.4,0,2018,4,24,23,8,40.552,0.6962,-0.2265,0.3207,-0.6008
-0.143,0.059,0.07,-11,-63.6,0,0,2018,4,24,23,8,40.554,0.6931,-0.2322,0.3283,-0.5981
0.073,0.028,0.041,0.3,-58.7,0.2,0,2018,4,24,23,8,40.591,0.6903,-0.2391,0.3354,-0.5947
0.321,-0.071,0.211,21.4,-16.5,10.8,0,2018,4,24,23,8,40.591,0.6888,-0.2452,0.338,-0.5924
0.223,-0.057,0.296,32.1,36.1,28,0,2018,4,24,23,8,40.613,0.689,-0.2478,0.3324,-0.5943
0.078,0.089,0.18,27.4,55.7,36.4,0,2018,4,24,23,8,40.65,0.6894,-0.247,0.3221,-0.5999
0.118,0.176,-0.003,18.4,60.5,30.1,0,2018,4,24,23,8,40.671,0.6896,-0.2442,0.3117,-0.6062
0.203,0.271,0.013,10.8,57,21.8,0,2018,4,24,23,8,40.673,0.6902,-0.2399,0.3025,-0.6119
0.227,0.241,0.081,3.9,40.1,25.1,0,2018,4,24,23,8,40.711,0.6902,-0.236,0.2956,-0.6168
0.211,0.122,0.101,-0.3,30.6,38.9,0,2018,4,24,23,8,40.732,0.6882,-0.2337,0.2904,-0.6223
0.12,0.04,0.078,-1.8,39.4,51.8,0,2018,4,24,23,8,40.734,0.6845,-0.2317,0.285,-0.6296
0.074,0.086,0.042,-0.9,47.4,58.3,0,2018,4,24,23,8,40.773,0.6801,-0.2287,0.278,-0.6385
0.036,0.117,-0.016,-0.9,39,59.9,0,2018,4,24,23,8,40.794,0.6755,-0.2251,0.2705,-0.6478
0.043,0.134,-0.059,-2.2,10.2,56.3,0,2018,4,24,23,8,40.796,0.6701,-0.2238,0.2653,-0.656
0.041,0.001,0.029,-5.4,-20.7,49,0,2018,4,24,23,8,40.813,0.6638,-0.2261,0.2646,-0.6618
0.044,-0.05,0.084,-12.2,-54.2,44.4,0,2018,4,24,23,8,40.835,0.6567,-0.2312,0.2681,-0.6658
0.014,-0.241,0.049,-19.3,-86.2,33.5,0,2018,4,24,23,8,40.852,0.6482,-0.2397,0.2774,-0.6673
0,-0.359,-0.003,-22.4,-90.3,17.7,1023,2018,4,24,23,8,40.875,0.64,-0.2494,0.2901,-0.6662
-0.022,-0.252,-0.075,-19.7,-60.3,7.4,1023,2018,4,24,23,8,40.912,0.6342,-0.256,0.3007,-0.6646
-0.035,-0.109,-0.119,-13.2,-24.2,2.9,1023,2018,4,24,23,8,40.933,0.6309,-0.2589,0.3071,-0.6636
-0.041,-0.007,-0.122,-5.9,0.3,3.2,1023,2018,4,24,23,8,40.935,0.6292,-0.26,0.3098,-0.6636
-0.022,0.056,-0.113,-1.5,5.7,5.2,1023,2018,4,24,23,8,40.972,0.6284,-0.26,0.3097,-0.6644
0,0.027,-0.085,0.4,-0.5,5.8,1023,2018,4,24,23,8,40.994,0.6277,-0.2604,0.3095,-0.665
0.014,-0.038,-0.052,0.9,2.4,5.1,1023,2018,4,24,23,8,40.996,0.6269,-0.2611,0.3096,-0.6654
0.017,-0.044,-0.001,2.5,10.3,1.7,1023,2018,4,24,23,8,41.033,0.6268,-0.2609,0.309,-0.6659
-0.002,-0.025,0.053,3.9,16.2,-2.3,1023,2018,4,24,23,8,41.054,0.6276,-0.2598,0.3071,-0.6664
-0.005,0.005,0.058,4.8,17.9,-5,1023,2018,4,24,23,8,41.058,0.6292,-0.258,0.3045,-0.6668
-0.01,0.039,0.04,5.3,15.9,-6.7,1023,2018,4,24,23,8,41.094,0.6311,-0.2561,0.3018,-0.667
0.008,0.055,0,6.2,11.3,-5.3,1023,2018,4,24,23,8,41.094,0.6328,-0.2546,0.2996,-0.6669
-0.002,0.041,0.016,5.8,9.5,-2.6,1023,2018,4,24,23,8,41.115,0.6342,-0.2538,0.2976,-0.6668
0.017,0.05,0.02,3.4,11.5,-1.6,1023,2018,4,24,23,8,41.151,0.6352,-0.2527,0.2957,-0.6671
0.035,0.077,0.001,1.1,9.2,-3.2,1023,2018,4,24,23,8,41.172,0.6363,-0.2511,0.2941,-0.6673
0.05,0.078,0,0.9,1.5,-3.7,1023,2018,4,24,23,8,41.179,0.6374,-0.2496,0.2936,-0.6671
0.081,0.056,0.008,1.1,-1.7,-0.5,0,2018,4,24,23,8,41.216,0.638,-0.2488,0.2937,-0.6667
0.076,0.024,0.008,-0.4,-2.6,1.9,0,2018,4,24,23,8,41.237,0.6381,-0.2485,0.2943,-0.6665
0.076,0.064,-0.045,-1.7,-10.2,3.2,0,2018,4,24,23,8,41.239,0.6378,-0.2484,0.2953,-0.6664
0.05,0.036,-0.039,-1.2,-28.4,5.7,0,2018,4,24,23,8,41.258,0.6365,-0.2501,0.298,-0.6658
0.024,-0.037,-0.006,-1.4,-32.3,7.4,0,2018,4,24,23,8,41.28,0.6343,-0.2538,0.302,-0.6648
0.011,-0.074,-0.008,-1,-18.8,5.5,0,2018,4,24,23,8,41.315,0.6322,-0.257,0.3053,-0.664
-0.016,0.005,-0.038,-0.6,-9.6,1.8,0,2018,4,24,23,8,41.335,0.6311,-0.2588,0.3069,-0.6636
-0.018,0.035,-0.03,0.5,-11.8,2.1,0,2018,4,24,23,8,41.337,0.6303,-0.2602,0.308,-0.6633
-0.006,0.01,-0.03,1.1,-13.5,4.7,0,2018,4,24,23,8,41.375,0.6293,-0.262,0.3092,-0.663
0.014,-0.023,-0.043,2.2,-5.1,4.7,0,2018,4,24,23,8,41.396,0.6283,-0.2638,0.3102,-0.6628
0.014,0.029,-0.037,3.2,4.1,2.5,0,2018,4,24,23,8,41.398,0.628,-0.2643,0.3099,-0.663
0.014,0.043,0,3.3,8.2,-0.9,0,2018,4,24,23,8,41.437,0.6284,-0.2639,0.3089,-0.6632
0.003,0.035,0.052,3.6,15.1,-4.5,0,2018,4,24,23,8,41.458,0.6297,-0.2625,0.307,-0.6635
-0.004,0.063,0.084,3.9,24.1,-7.8,0,2018,4,24,23,8,41.46,0.6318,-0.2599,0.3039,-0.6639
0,0.078,0.086,4.2,25.6,-9,0,2018,4,24,23,8,41.497,0.6345,-0.2564,0.3001,-0.6644
-0.028,0.073,0.103,2.7,19.9,-8.4,0,2018,4,24,23,8,41.518,0.637,-0.2532,0.2965,-0.6648
-0.048,0.089,0.085,-1.2,11.5,-7.5,0,2018,4,24,23,8,41.52,0.6389,-0.2506,0.2939,-0.6652
-0.057,0.097,0.051,-4.5,0.7,-6.2,1023,2018,4,24,23,8,41.557,0.64,-0.2489,0.2929,-0.6653
-0.061,0.08,0.031,-5.9,-9.6,-2,1023,2018,4,24,23,8,41.557,0.6401,-0.2484,0.2932,-0.6652
-0.044,0.023,0.017,-7.8,-14.2,3.3,1023,2018,4,24,23,8,41.578,0.6391,-0.2491,0.2947,-0.6652
-0.017,-0.002,-0.008,-9.9,-12.6,6.2,1023,2018,4,24,23,8,41.616,0.6374,-0.2499,0.2968,-0.6656
0.038,-0.018,-0.048,-9.9,-13.7,6.2,1023,2018,4,24,23,8,41.637,0.6355,-0.2506,0.2994,-0.666
0.061,-0.02,-0.054,-8.1,-16.6,6.6,1023,2018,4,24,23,8,41.639,0.6336,-0.2515,0.3026,-0.666
0.056,-0.015,-0.07,-6.3,-21.5,6.5,1023,2018,4,24,23,8,41.676,0.6316,-0.2531,0.3061,-0.6657
0.048,-0.046,-0.091,-5.8,-24.5,5.4,1023,2018,4,24,23,8,41.697,0.6294,-0.2555,0.3102,-0.665
0.047,-0.078,-0.116,-3.5,-20.3,3.2,1023,2018,4,24,23,8,41.699,0.6274,-0.258,0.3141,-0.664
0.034,-0.088,-0.086,0.1,-1.9,0.8,1023,2018,4,24,23,8,41.738,0.6264,-0.2595,0.3162,-0.6634
0.007,-0.053,-0.038,3.4,15.3,-0.8,1023,2018,4,24,23,8,41.759,0.6267,-0.2593,0.3158,-0.6634
-0.009,-0.036,-0.01,5.5,27.3,-2.3,1023,2018,4,24,23,8,41.763,0.628,-0.2577,0.3131,-0.6641
-0.017,0.009,0.005,5.7,30.9,-3.7,1023,2018,4,24,23,8,41.8,0.6299,-0.255,0.3091,-0.6651
-0.016,0.036,0.021,5.1,26.5,-4.7,1023,2018,4,24,23,8,41.821,0.6321,-0.2522,0.305,-0.6661
-0.026,0.055,0.036,3.9,20,-3.6,1023,2018,4,24,23,8,41.825,0.6339,-0.2497,0.3015,-0.6669
-0.014,0.075,0.027,2.2,12.4,-1.9,1023,2018,4,24,23,8,41.86,0.6353,-0.2478,0.2987,-0.6675
-0.005,0.075,0.015,0.6,3.6,-0.7,0,2018,4,24,23,8,41.881,0.636,-0.2466,0.2972,-0.668
0.009,0.063,0.002,-0.4,-3.5,-0.1,0,2018,4,24,23,8,41.883,0.6362,-0.2462,0.2969,-0.668
0.005,0.048,0.006,-1.5,-7.9,1.1,0,2018,4,24,23,8,41.92,0.636,-0.2465,0.2974,-0.6679
0.001,0.029,-0.001,-2.3,-10.5,1.8,0,2018,4,24,23,8,41.942,0.6354,-0.2471,0.2985,-0.6678
0.002,0.007,-0.01,-2.9,-12.2,2,0,2018,4,24,23,8,41.944,0.6345,-0.2481,0.3,-0.6675
0.012,-0.007,-0.023,-2.7,-11.7,1.6,0,2018,4,24,23,8,41.979,0.6336,-0.2493,0.3018,-0.6672
