time_1,time_2,time_3,time_4,time_5,time_6,w,x,y,z,droll,dpitch,dyaw,ax,ay,az,heart
2018,5,11,13,55,16.316,-0.0139,-0.4541,-0.2995,0.8389,-0.8,0,0.8,0.007,0.019,0.003,0
2018,5,11,13,55,16.336,-0.014,-0.4541,-0.2994,0.8389,-0.9,0.1,0.8,0.001,0.017,0.001,0
2018,5,11,13,55,16.34,-0.014,-0.4541,-0.2995,0.8389,-0.7,0.1,0.7,0.006,0.014,0.002,0
2018,5,11,13,55,16.378,-0.0141,-0.454,-0.2997,0.8389,-0.5,0.2,0.7,0.004,0.015,0.003,0
2018,5,11,13,55,16.397,-0.0141,-0.454,-0.2996,0.8389,-0.5,0.1,0.7,0.005,0.016,0.007,0
2018,5,11,13,55,16.4,-0.0142,-0.4539,-0.2994,0.839,-0.6,0.3,0.9,0.003,0.019,0.001,0
2018,5,11,13,55,16.436,-0.0142,-0.4539,-0.2994,0.839,-0.5,0.4,1,0.006,0.018,-0.001,0
2018,5,11,13,55,16.456,-0.0142,-0.4539,-0.2995,0.839,-0.2,0.2,1.1,0.009,0.023,-0.001,0
2018,5,11,13,55,16.46,-0.0142,-0.4538,-0.2994,0.8391,-0.6,0.2,1,0.006,0.022,0.002,0
2018,5,11,13,55,16.499,-0.0143,-0.4538,-0.2993,0.8391,-1,0,1,0.009,0.02,0.002,0
2018,5,11,13,55,16.52,-0.0143,-0.4538,-0.2993,0.8391,-0.5,0,1,0.005,0.02,0,0
2018,5,11,13,55,16.521,-0.0143,-0.4538,-0.2992,0.8391,-0.3,0.4,0.7,0.006,0.018,-0.002,0
2018,5,11,13,55,16.557,-0.0143,-0.4538,-0.2994,0.8391,-0.8,0.2,0.7,0.005,0.014,0.002,0
2018,5,11,13,55,16.577,-0.0144,-0.4538,-0.2994,0.8391,-1,0.3,0.6,0.003,0.01,-0.005,0
2018,5,11,13,55,16.581,-0.0145,-0.4537,-0.2994,0.8391,-0.6,0.1,0.5,0,0.014,0,0
2018,5,11,13,55,16.615,-0.0145,-0.4538,-0.2993,0.8392,-0.4,-0.1,1,0.001,0.017,0.003,0
2018,5,11,13,55,16.635,-0.0145,-0.4537,-0.2994,0.8391,-0.3,0.1,1,0.006,0.019,0.001,1023
2018,5,11,13,55,16.639,-0.0145,-0.4538,-0.2992,0.8392,-0.5,0.1,1.1,0.008,0.02,-0.003,1023
2018,5,11,13,55,16.675,-0.0145,-0.4538,-0.2993,0.8391,-0.4,0.2,1,0.007,0.022,0.001,1023
2018,5,11,13,55,16.694,-0.0145,-0.4538,-0.2994,0.8391,-0.6,0.4,0.9,0.009,0.022,0.001,1023
2018,5,11,13,55,16.702,-0.0145,-0.4537,-0.2994,0.8391,-0.7,0.4,1,0.007,0.021,0.002,1023
2018,5,11,13,55,16.723,-0.0146,-0.4537,-0.2992,0.8392,-0.6,0.4,1,0.003,0.021,0.002,1023
2018,5,11,13,55,16.743,-0.0146,-0.4536,-0.2993,0.8392,-0.6,0.4,1.1,0.005,0.016,0.001,1023
2018,5,11,13,55,16.782,-0.0147,-0.4535,-0.2991,0.8393,-0.9,0.4,1.1,0.001,0.018,0.005,1023
2018,5,11,13,55,16.802,-0.0147,-0.4534,-0.2992,0.8394,-1,0.1,1.1,0,0.017,0,1023
2018,5,11,13,55,16.807,-0.0147,-0.4534,-0.2991,0.8394,-0.4,0.2,0.9,0.002,0.019,-0.001,1023
2018,5,11,13,55,16.826,-0.0147,-0.4533,-0.2991,0.8394,-0.5,0.6,1,0.008,0.017,0.002,1023
2018,5,11,13,55,16.866,-0.0147,-0.4533,-0.2992,0.8394,-0.9,0.3,1,0.006,0.016,0.003,1023
2018,5,11,13,55,16.871,-0.0147,-0.4532,-0.2993,0.8394,-0.7,0.2,0.9,0.008,0.012,0.003,1023
2018,5,11,13,55,16.886,-0.0148,-0.4532,-0.2994,0.8394,-0.6,0.3,0.8,0.005,0.018,0,1023
2018,5,11,13,55,16.924,-0.0148,-0.4531,-0.2993,0.8395,-0.2,0.4,1.1,0.001,0.016,0,1023
2018,5,11,13,55,16.945,-0.0148,-0.4531,-0.299,0.8396,-0.4,0.4,1,0.003,0.024,0.001,0
2018,5,11,13,55,16.949,-0.0148,-0.4531,-0.299,0.8396,-0.9,0.3,1,0.001,0.025,0.003,0
2018,5,11,13,55,16.966,-0.0149,-0.453,-0.2988,0.8397,-0.8,0.4,1.1,0.003,0.021,0.004,0
2018,5,11,13,55,16.986,-0.015,-0.453,-0.2988,0.8397,-0.8,0.5,0.7,0.006,0.019,-0.001,0
2018,5,11,13,55,17.024,-0.0151,-0.4529,-0.2988,0.8398,-0.7,0.4,0.8,0.003,0.02,0.001,0
2018,5,11,13,55,17.044,-0.0151,-0.4529,-0.2988,0.8398,-0.8,0.3,0.8,0.007,0.021,0.004,0
2018,5,11,13,55,17.048,-0.0152,-0.4528,-0.2989,0.8397,-0.7,0.1,1,0.006,0.018,0,0
2018,5,11,13,55,17.087,-0.0152,-0.4528,-0.299,0.8397,-0.7,0.1,0.9,0,0.018,0.001,0
2018,5,11,13,55,17.105,-0.0153,-0.4528,-0.2991,0.8397,-0.6,0,0.7,0.003,0.015,0,0
2018,5,11,13,55,17.11,-0.0153,-0.4528,-0.2991,0.8397,-0.4,0.1,0.8,0.003,0.017,-0.003,0
2018,5,11,13,55,17.129,-0.0153,-0.4528,-0.2991,0.8397,-0.5,0.1,0.7,0.006,0.018,0,0
2018,5,11,13,55,17.148,-0.0153,-0.4528,-0.2994,0.8396,-0.7,0.2,0.7,0.005,0.017,-0.001,0
2018,5,11,13,55,17.166,-0.0154,-0.4528,-0.2995,0.8396,-0.8,0.1,0.6,0.008,0.018,0.001,0
2018,5,11,13,55,17.204,-0.0154,-0.4528,-0.2995,0.8396,-0.9,0.2,0.7,0.007,0.013,0.002,0
2018,5,11,13,55,17.225,-0.0155,-0.4528,-0.2995,0.8396,-0.9,0.3,0.5,0.004,0.016,0.001,0
2018,5,11,13,55,17.229,-0.0156,-0.4527,-0.2997,0.8395,-0.6,0.2,0.5,0.006,0.018,0,0
2018,5,11,13,55,17.249,-0.0156,-0.4527,-0.2998,0.8395,-0.6,0.7,0.7,0.004,0.019,0,0
2018,5,11,13,55,17.268,-0.0157,-0.4526,-0.2998,0.8396,-0.5,0.6,0.7,0.004,0.018,0,0
2018,5,11,13,55,17.289,-0.0157,-0.4526,-0.2997,0.8396,-0.4,0.4,0.9,0.001,0.018,-0.001,0
2018,5,11,13,55,17.328,-0.0157,-0.4525,-0.2997,0.8396,-0.7,0.2,1,0.006,0.02,0.002,0
2018,5,11,13,55,17.349,-0.0157,-0.4525,-0.2997,0.8397,-0.6,0,1,0.007,0.018,0.008,0
2018,5,11,13,55,17.353,-0.0158,-0.4524,-0.2996,0.8397,-0.1,0.3,0.9,0.005,0.019,-0.002,0
2018,5,11,13,55,17.367,-0.0158,-0.4524,-0.2992,0.8398,-0.1,0.7,0.6,0.005,0.022,-0.001,0
2018,5,11,13,55,17.407,-0.0159,-0.4524,-0.2993,0.8399,-0.8,0.3,0.5,0.002,0.016,0,0
2018,5,11,13,55,17.411,-0.0159,-0.4523,-0.2994,0.8398,-0.9,0.2,0.3,0.002,0.009,0.001,0
2018,5,11,13,55,17.427,-0.016,-0.4523,-0.2993,0.8399,0,0,0,0,0.017,0.002,0
2018,5,11,13,55,17.466,-0.0161,-0.4524,-0.2992,0.8399,-0.1,0.3,0.7,0.001,0.019,0,0
2018,5,11,13,55,17.485,-0.0161,-0.4524,-0.2991,0.8399,-0.1,0.1,0.9,0.005,0.019,0,1023
2018,5,11,13,55,17.488,-0.016,-0.4523,-0.2991,0.8399,-0.1,0.3,0.9,0.004,0.021,0,1023
2018,5,11,13,55,17.525,-0.0161,-0.4523,-0.2991,0.84,-0.2,0.2,0.8,0.006,0.023,-0.003,1023
2018,5,11,13,55,17.546,-0.0161,-0.4523,-0.2989,0.84,-0.4,0.3,0.5,0.006,0.024,0,1023
2018,5,11,13,55,17.549,-0.0162,-0.4523,-0.2988,0.84,-0.5,0.3,0.6,0.006,0.024,0,1023
2018,5,11,13,55,17.588,-0.0162,-0.4523,-0.2991,0.84,-0.5,0.1,0.8,0.002,0.019,0.001,1023
2018,5,11,13,55,17.608,-0.0163,-0.4523,-0.299,0.84,-0.5,0.2,0.8,0.003,0.018,0.004,1023
2018,5,11,13,55,17.613,-0.0162,-0.4522,-0.2992,0.84,-0.7,0,0.8,0,0.02,0.003,1023
2018,5,11,13,55,17.629,-0.0162,-0.4522,-0.2992,0.84,-0.6,0,0.8,0,0.017,-0.003,1023
2018,5,11,13,55,17.666,-0.0162,-0.4522,-0.2994,0.8399,-0.6,0.1,0.8,0.005,0.016,0,1023
2018,5,11,13,55,17.687,-0.0162,-0.4522,-0.2996,0.8399,-0.9,0,1,0.004,0.02,0.006,1023
2018,5,11,13,55,17.689,-0.0162,-0.4522,-0.2999,0.8397,-0.9,0,0.8,0.007,0.012,0,1023
2018,5,11,13,55,17.728,-0.0162,-0.4522,-0.3,0.8397,-0.4,0,0.8,0.005,0.013,-0.001,1023
2018,5,11,13,55,17.748,-0.0162,-0.4522,-0.2999,0.8397,-0.1,0.2,0.9,0.003,0.016,-0.003,1023
2018,5,11,13,55,17.751,-0.0161,-0.4522,-0.2999,0.8398,0,0.3,1,0,0.024,0.002,1023
2018,5,11,13,55,17.786,-0.0161,-0.4521,-0.2997,0.8399,-0.4,0.2,1.2,0.004,0.026,0.002,1023
2018,5,11,13,55,17.807,-0.0162,-0.4521,-0.2995,0.8399,-0.5,0,1.1,0.003,0.024,0.001,1023
2018,5,11,13,55,17.81,-0.0161,-0.4521,-0.2997,0.8398,-0.5,-0.1,0.9,0.002,0.022,-0.001,0
2018,5,11,13,55,17.848,-0.0161,-0.4521,-0.2997,0.8398,-0.4,-0.1,0.7,0.005,0.021,0.001,0
2018,5,11,13,55,17.868,-0.0162,-0.4522,-0.2995,0.8399,-0.4,-0.4,0.9,0.001,0.022,0.003,0
2018,5,11,13,55,17.873,-0.0162,-0.4523,-0.2995,0.8398,-0.7,-0.6,0.7,0.004,0.023,0.005,0
2018,5,11,13,55,17.894,-0.0162,-0.4524,-0.2997,0.8397,-0.9,-0.8,0.6,0.002,0.018,0.001,0
2018,5,11,13,55,17.913,-0.0162,-0.4526,-0.2997,0.8396,-0.6,-0.9,0.6,0.006,0.016,-0.003,0
2018,5,11,13,55,17.931,-0.0162,-0.4528,-0.2996,0.8395,-0.6,-0.9,0.6,0.004,0.016,-0.002,0
2018,5,11,13,55,17.972,-0.0162,-0.4529,-0.2995,0.8395,-0.2,-0.6,0.7,0.004,0.021,0,0
2018,5,11,13,55,17.991,-0.0162,-0.453,-0.2994,0.8395,-0.4,-0.4,0.6,0.002,0.02,0.002,0
2018,5,11,13,55,17.993,-0.0162,-0.4531,-0.2995,0.8394,-0.5,-0.6,0.7,0.005,0.018,-0.002,0
2018,5,11,13,55,18.031,-0.0162,-0.4532,-0.2994,0.8394,-0.4,-0.2,0.8,0.004,0.017,-0.004,0
2018,5,11,13,55,18.05,-0.0162,-0.4533,-0.2993,0.8393,-0.5,-0.4,0.8,0.006,0.016,0.006,0
2018,5,11,13,55,18.054,-0.0162,-0.4534,-0.2993,0.8393,-0.4,0,0.9,0.008,0.016,0,0
2018,5,11,13,55,18.095,-0.0162,-0.4534,-0.2992,0.8393,-0.2,-0.1,0.9,0.01,0.015,0,0
2018,5,11,13,55,18.114,-0.0162,-0.4534,-0.2993,0.8393,-0.3,0,1.1,0.006,0.016,0.001,0
2018,5,11,13,55,18.118,-0.0161,-0.4534,-0.2993,0.8393,-0.2,0,1.1,0.003,0.016,0.005,0
2018,5,11,13,55,18.133,-0.0161,-0.4535,-0.2992,0.8393,-0.3,-0.2,1.2,0.003,0.018,0.007,0
2018,5,11,13,55,18.171,-0.016,-0.4534,-0.2993,0.8393,-0.5,-0.3,1.2,0.003,0.019,0.003,0
2018,5,11,13,55,18.191,-0.016,-0.4535,-0.2991,0.8393,-0.1,-0.4,1,0.003,0.019,0.003,0
2018,5,11,13,55,18.196,-0.0159,-0.4536,-0.2991,0.8393,-0.2,-0.1,0.7,0.008,0.019,0.003,0
2018,5,11,13,55,18.234,-0.0159,-0.4536,-0.2993,0.8392,-0.9,-0.1,0.5,0.008,0.016,0.008,0
2018,5,11,13,55,18.254,-0.016,-0.4537,-0.2991,0.8392,-0.9,-0.3,0.2,0.007,0.01,0.004,0
2018,5,11,13,55,18.258,-0.0161,-0.4538,-0.2989,0.8392,-0.3,-0.3,0.5,0.001,0.018,-0.003,0
2018,5,11,13,55,18.276,-0.0162,-0.4539,-0.2987,0.8392,-0.4,-0.4,0.6,0.002,0.023,0.002,0
2018,5,11,13,55,18.315,-0.0162,-0.4539,-0.2987,0.8392,-0.2,-0.5,1.1,0.004,0.02,0,0
2018,5,11,13,55,18.335,-0.0161,-0.454,-0.2986,0.8392,-0.4,-0.2,0.9,0.006,0.021,0,0
2018,5,11,13,55,18.339,-0.0161,-0.4541,-0.2989,0.8391,-0.5,-0.1,0.9,0.005,0.021,-0.001,1023
2018,5,11,13,55,18.354,-0.0161,-0.4541,-0.2989,0.8391,-0.5,0,1.1,0.007,0.019,0,1023
2018,5,11,13,55,18.392,-0.0161,-0.4541,-0.2991,0.839,-0.5,0.1,1.1,0.006,0.017,0.002,1023
2018,5,11,13,55,18.413,-0.0161,-0.4541,-0.2989,0.839,-0.3,0.1,1,0.002,0.019,0.003,1023
2018,5,11,13,55,18.417,-0.016,-0.4541,-0.299,0.839,-0.4,0.1,1.1,0.008,0.016,-0.001,1023
2018,5,11,13,55,18.435,-0.016,-0.4541,-0.299,0.839,-0.6,0,1.1,0.003,0.016,0.002,1023
2018,5,11,13,55,18.456,-0.016,-0.4542,-0.2988,0.8391,-0.6,-0.1,1,0.005,0.017,0.003,1023
2018,5,11,13,55,18.495,-0.016,-0.4542,-0.2989,0.839,-0.3,0,1.1,0.004,0.016,-0.003,1023
2018,5,11,13,55,18.514,-0.0159,-0.4542,-0.299,0.839,-0.6,0.1,1.3,0.004,0.016,-0.001,1023
2018,5,11,13,55,18.517,-0.0159,-0.4541,-0.2992,0.839,-0.6,0.1,1,0.001,0.015,0.001,1023
2018,5,11,13,55,18.555,-0.0159,-0.4541,-0.299,0.839,-0.2,0.3,0.9,0.003,0.016,0.004,1023
2018,5,11,13,55,18.575,-0.0159,-0.4542,-0.2987,0.8391,-0.2,0.1,0.9,0.003,0.018,0.002,1023
2018,5,11,13,55,18.578,-0.0159,-0.4542,-0.2988,0.8391,-0.4,-0.1,1,0.004,0.019,0.003,1023
2018,5,11,13,55,18.615,-0.0159,-0.4542,-0.2988,0.8391,-0.6,-0.2,1.3,0.005,0.021,0.002,1023
2018,5,11,13,55,18.635,-0.0158,-0.4542,-0.2988,0.839,-0.7,-0.1,1.1,0.007,0.021,0.002,1023
2018,5,11,13,55,18.638,-0.0158,-0.4542,-0.2988,0.839,-0.9,0,1.1,0.005,0.019,0.002,1023
2018,5,11,13,55,18.655,-0.0158,-0.4542,-0.2989,0.839,-0.8,0,1,0.004,0.018,0.005,0
2018,5,11,13,55,18.674,-0.0159,-0.4543,-0.2986,0.8391,-0.6,-0.1,0.8,0.002,0.02,0.004,0
2018,5,11,13,55,18.713,-0.0159,-0.4543,-0.2987,0.839,-0.6,-0.1,0.9,0.003,0.016,0.006,0
2018,5,11,13,55,18.735,-0.0159,-0.4543,-0.2987,0.839,-0.7,-0.2,1,0.005,0.017,0,0
2018,5,11,13,55,18.739,-0.0159,-0.4544,-0.2987,0.839,-0.6,-0.2,0.8,0.006,0.016,0.001,0
2018,5,11,13,55,18.757,-0.0158,-0.4544,-0.2987,0.839,-0.4,-0.2,1.1,0.004,0.014,0,0
2018,5,11,13,55,18.78,-0.0158,-0.4545,-0.2988,0.8389,-0.6,0,1,0.007,0.018,0.001,0
2018,5,11,13,55,18.817,-0.0158,-0.4545,-0.2989,0.8389,-0.6,-0.1,0.8,0.004,0.019,0.001,0
2018,5,11,13,55,18.836,-0.0157,-0.4545,-0.2992,0.8387,-0.4,0.1,1,0.006,0.016,0,0
2018,5,11,13,55,18.841,-0.0157,-0.4545,-0.2994,0.8387,-0.5,0.3,0.9,0.005,0.012,0.001,0
2018,5,11,13,55,18.859,-0.0157,-0.4544,-0.2993,0.8388,-0.3,0.6,0.9,0.005,0.015,0.007,0
2018,5,11,13,55,18.895,-0.0157,-0.4543,-0.2993,0.8388,-0.4,0.4,1,0.006,0.02,0,0
2018,5,11,13,55,18.918,-0.0157,-0.4543,-0.2993,0.8389,-0.3,0.3,0.8,0.002,0.023,0,0
2018,5,11,13,55,18.922,-0.0157,-0.4542,-0.2994,0.8388,-0.4,0.1,0.9,0.002,0.02,0.004,0
2018,5,11,13,55,18.939,-0.0157,-0.4542,-0.2995,0.8388,-0.5,0,0.8,0.004,0.019,-0.002,0
2018,5,11,13,55,18.976,-0.0157,-0.4542,-0.2995,0.8388,-0.6,-0.2,0.8,0.004,0.02,-0.001,0
2018,5,11,13,55,18.995,-0.0157,-0.4543,-0.2996,0.8387,-0.6,-0.1,1.1,0.004,0.021,0.001,0
2018,5,11,13,55,18.999,-0.0157,-0.4542,-0.2999,0.8386,-0.7,-0.1,1.2,0.004,0.019,0.007,0
2018,5,11,13,55,19.041,-0.0157,-0.4542,-0.2998,0.8387,-0.4,0.1,1.1,0.006,0.018,0.006,0
2018,5,11,13,55,19.06,-0.0157,-0.4542,-0.2996,0.8388,-0.2,0.2,1,0.003,0.017,-0.001,0
2018,5,11,13,55,19.064,-0.0158,-0.4542,-0.2994,0.8388,-0.4,0.4,0.7,0.004,0.019,0,0
2018,5,11,13,55,19.08,-0.0158,-0.4542,-0.2994,0.8389,-0.9,0.1,0.5,0.003,0.009,0.005,0
2018,5,11,13,55,19.1,-0.0159,-0.4541,-0.2996,0.8388,-0.6,0,0.4,0.001,0.011,-0.002,0
2018,5,11,13,55,19.12,-0.0159,-0.4541,-0.2998,0.8387,-0.1,0,0.5,0,0.02,0,0
2018,5,11,13,55,19.139,-0.0158,-0.4542,-0.2999,0.8387,0,-0.1,0.9,0.003,0.019,0,0
2018,5,11,13,55,19.177,-0.0158,-0.4542,-0.3,0.8386,-0.2,-0.1,1.1,0.008,0.019,-0.002,0
2018,5,11,13,55,19.197,-0.0157,-0.4543,-0.2999,0.8386,-0.3,0,1.1,0.008,0.024,-0.002,0
2018,5,11,13,55,19.202,-0.0158,-0.4543,-0.2996,0.8387,-0.4,0.1,1,0.008,0.019,0.003,1023
2018,5,11,13,55,19.223,-0.0158,-0.4543,-0.2997,0.8387,-0.4,0.3,1.1,0.008,0.02,-0.002,1023
2018,5,11,13,55,19.242,-0.0158,-0.4543,-0.2998,0.8387,-0.6,0.3,1,0.005,0.019,0,1023
2018,5,11,13,55,19.262,-0.0158,-0.4542,-0.2998,0.8387,-0.4,0.2,1,0.006,0.016,0,1023
2018,5,11,13,55,19.284,-0.0158,-0.4542,-0.3,0.8386,-0.9,0.4,1.1,0.006,0.018,0.007,1023
2018,5,11,13,55,19.305,-0.0158,-0.4541,-0.3002,0.8386,-0.8,0.1,1,0,0.016,0.002,1023
2018,5,11,13,55,19.325,-0.0158,-0.4541,-0.3002,0.8386,-0.6,-0.1,1,-0.001,0.019,0.002,1023
2018,5,11,13,55,19.341,-0.0158,-0.4541,-0.3,0.8387,-0.4,0.1,0.8,0,0.019,0,1023
2018,5,11,13,55,19.378,-0.0158,-0.4541,-0.3001,0.8387,-0.4,0,1,0.006,0.017,0,1023
2018,5,11,13,55,19.397,-0.0158,-0.4541,-0.3,0.8387,-0.9,0,0.9,0.006,0.013,0.005,1023
2018,5,11,13,55,19.402,-0.0158,-0.4541,-0.3001,0.8386,-0.4,0,0.8,0.007,0.013,0,1023
2018,5,11,13,55,19.441,-0.0158,-0.4541,-0.3002,0.8386,-0.4,0.1,0.8,0.002,0.014,0.001,1023
2018,5,11,13,55,19.462,-0.0157,-0.454,-0.3005,0.8386,-0.5,0.2,1.2,0.002,0.018,0.004,1023
2018,5,11,13,55,19.466,-0.0157,-0.454,-0.3007,0.8385,-0.6,0.1,1,0.004,0.022,0.001,1023
2018,5,11,13,55,19.485,-0.0157,-0.454,-0.3008,0.8385,-0.6,0.3,0.9,0.007,0.021,0,1023
2018,5,11,13,55,19.506,-0.0158,-0.4539,-0.3007,0.8385,-0.6,0.3,0.9,0.007,0.02,0.003,0
2018,5,11,13,55,19.523,-0.0158,-0.4539,-0.3007,0.8385,-0.7,0.4,0.8,0.006,0.016,0.002,0
2018,5,11,13,55,19.559,-0.0159,-0.4539,-0.3005,0.8386,-0.5,0.1,0.7,0.005,0.018,0.002,0
2018,5,11,13,55,19.58,-0.016,-0.4539,-0.3005,0.8386,-0.6,0,0.9,0.004,0.02,0,0
2018,5,11,13,55,19.588,-0.016,-0.454,-0.3002,0.8387,-0.5,-0.2,0.8,0.004,0.017,0,0
2018,5,11,13,55,19.602,-0.016,-0.454,-0.3001,0.8387,-0.5,0,0.9,0.003,0.017,0,0
2018,5,11,13,55,19.638,-0.016,-0.454,-0.3003,0.8386,-0.6,0,1,0.003,0.016,-0.005,0
2018,5,11,13,55,19.66,-0.016,-0.454,-0.3003,0.8386,-0.4,0,0.8,0.005,0.017,0,0
2018,5,11,13,55,19.664,-0.016,-0.454,-0.3004,0.8386,-0.7,0.1,1,0.002,0.016,0,0
2018,5,11,13,55,19.686,-0.016,-0.454,-0.3002,0.8386,-0.6,0.1,0.9,0.005,0.014,0.001,0
2018,5,11,13,55,19.707,-0.016,-0.454,-0.3001,0.8387,-0.7,0,0.7,0.007,0.016,0,0
2018,5,11,13,55,19.745,-0.0161,-0.454,-0.3002,0.8386,-0.7,0.2,0.7,0.005,0.014,0,0
2018,5,11,13,55,19.764,-0.0161,-0.454,-0.3002,0.8386,-0.6,0.1,0.7,0.004,0.019,0.001,0
2018,5,11,13,55,19.768,-0.0161,-0.454,-0.3004,0.8386,-0.2,0.1,0.7,0,0.018,0.002,0
2018,5,11,13,55,19.805,-0.0161,-0.4539,-0.3003,0.8386,-0.4,0.1,0.9,0.002,0.022,0,0
2018,5,11,13,55,19.827,-0.0161,-0.4539,-0.3003,0.8387,-0.6,0.1,0.8,0.005,0.022,0.004,0
2018,5,11,13,55,19.831,-0.0161,-0.4539,-0.3002,0.8387,-0.4,-0.1,0.9,0.005,0.02,0,0
2018,5,11,13,55,19.845,-0.0162,-0.454,-0.3001,0.8387,-0.4,0,1,0.006,0.019,-0.001,0
2018,5,11,13,55,19.867,-0.0162,-0.454,-0.3,0.8388,-0.8,-0.1,1.1,0.006,0.019,0.006,0
2018,5,11,13,55,19.887,-0.0162,-0.454,-0.2997,0.8388,-0.6,0,0.8,0.007,0.019,0,0
2018,5,11,13,55,19.907,-0.0163,-0.454,-0.2997,0.8388,-0.2,0.3,0.7,0.001,0.019,-0.002,0
2018,5,11,13,55,19.926,-0.0163,-0.454,-0.2999,0.8388,-0.4,0.3,0.5,0.001,0.019,0,0
2018,5,11,13,55,19.95,-0.0163,-0.4539,-0.3001,0.8387,-1,0.1,0.6,0.002,0.013,0.002,0
2018,5,11,13,55,19.968,-0.0163,-0.4539,-0.3002,0.8387,-0.6,-0.1,0.5,0,0.013,0.003,0
2018,5,11,13,55,19.99,-0.0164,-0.454,-0.3002,0.8387,-0.5,-0.3,0.8,0.003,0.017,0.002,1023
2018,5,11,13,55,20.01,-0.0163,-0.454,-0.3001,0.8387,-0.5,-0.1,1,0.009,0.018,0,1023
2018,5,11,13,55,20.03,-0.0163,-0.4541,-0.3001,0.8386,-0.3,0.1,1.3,0.012,0.016,-0.004,1023
2018,5,11,13,55,20.049,-0.0163,-0.4541,-0.3003,0.8386,-0.6,0.3,0.9,0.006,0.02,0.002,1023
2018,5,11,13,55,20.067,-0.0163,-0.454,-0.3003,0.8386,-0.4,0.3,0.9,0.008,0.023,-0.001,1023
2018,5,11,13,55,20.087,-0.0164,-0.454,-0.3002,0.8387,-0.7,0.5,1,0,0.023,0.001,1023
2018,5,11,13,55,20.107,-0.0164,-0.4539,-0.3001,0.8387,-0.7,0.3,1,0.003,0.02,0.001,1023
2018,5,11,13,55,20.144,-0.0165,-0.4539,-0.3002,0.8387,-0.8,0.3,1,0.004,0.019,-0.001,1023
2018,5,11,13,55,20.163,-0.0165,-0.4538,-0.3002,0.8388,-0.9,0.2,1.2,0.003,0.016,0,1023
2018,5,11,13,55,20.167,-0.0165,-0.4538,-0.3003,0.8388,-1,-0.1,1,0.003,0.013,0,1023
2018,5,11,13,55,20.205,-0.0165,-0.4538,-0.3006,0.8386,-0.7,0,0.9,0.005,0.013,0.001,1023
2018,5,11,13,55,20.226,-0.0164,-0.4538,-0.3007,0.8386,-0.2,0.1,0.9,0.008,0.014,0.002,1023
2018,5,11,13,55,20.231,-0.0164,-0.4537,-0.3008,0.8386,-0.6,0.3,1.1,0.006,0.015,0.006,1023
2018,5,11,13,55,20.25,-0.0165,-0.4537,-0.3006,0.8387,-0.7,0.5,1,0.006,0.014,0.004,1023
2018,5,11,13,55,20.288,-0.0165,-0.4536,-0.3007,0.8387,-0.7,0.6,0.8,0.004,0.013,-0.003,0
2018,5,11,13,55,20.309,-0.0165,-0.4535,-0.3006,0.8388,-0.4,0.4,1,0.005,0.015,-0.001,0
2018,5,11,13,55,20.313,-0.0165,-0.4535,-0.3005,0.8388,-0.3,0.6,1.1,0.002,0.02,-0.002,0
2018,5,11,13,55,20.333,-0.0165,-0.4534,-0.3005,0.8389,-0.4,0.2,0.9,0.001,0.022,0.004,0
2018,5,11,13,55,20.352,-0.0166,-0.4533,-0.3005,0.8389,-0.9,0.1,1,0.005,0.023,0.005,0
2018,5,11,13,55,20.388,-0.0166,-0.4533,-0.3007,0.8388,-0.9,0,0.7,0.006,0.023,0.003,0
2018,5,11,13,55,20.409,-0.0167,-0.4534,-0.3008,0.8388,-1.2,0.1,0.7,0.007,0.017,0.002,0
2018,5,11,13,55,20.413,-0.0168,-0.4534,-0.3009,0.8387,-1,0.3,0.7,0.006,0.016,-0.001,0
2018,5,11,13,55,20.45,-0.0169,-0.4534,-0.3009,0.8387,-0.8,0.2,1,0.009,0.016,0.003,0
2018,5,11,13,55,20.469,-0.0169,-0.4533,-0.3011,0.8387,-0.6,0.3,0.8,0.006,0.018,0.002,0
2018,5,11,13,55,20.473,-0.0168,-0.4532,-0.301,0.8388,-0.4,0.4,1.1,0.003,0.016,0,0
2018,5,11,13,55,20.492,-0.0168,-0.4532,-0.3008,0.8388,-0.3,0.2,1,0,0.016,0,0
2018,5,11,13,55,20.514,-0.0168,-0.4532,-0.3008,0.8389,-0.2,0.2,1,0,0.018,0,0
2018,5,11,13,55,20.532,-0.0169,-0.4532,-0.3006,0.8389,-0.6,0.1,0.8,0.004,0.023,-0.006,0
2018,5,11,13,55,20.567,-0.0169,-0.4533,-0.3007,0.8389,-0.8,-0.1,0.7,0.008,0.02,-0.002,0
2018,5,11,13,55,20.57,-0.017,-0.4533,-0.3007,0.8389,-1,0,0.9,0.006,0.017,0,0
2018,5,11,13,55,20.587,-0.0171,-0.4533,-0.3008,0.8388,-0.8,0,0.7,0.006,0.012,0.001,0
2018,5,11,13,55,20.625,-0.0171,-0.4533,-0.3009,0.8388,-0.6,0.1,0.5,0.005,0.016,0.001,0
2018,5,11,13,55,20.649,-0.0171,-0.4533,-0.301,0.8388,-0.5,0.4,0.8,0.007,0.019,0.001,0
2018,5,11,13,55,20.653,-0.0172,-0.4532,-0.3009,0.8388,-0.6,0.7,0.9,0.005,0.019,0.002,0
2018,5,11,13,55,20.673,-0.0173,-0.4531,-0.3006,0.839,-0.5,0.6,0.8,0.008,0.019,0.002,0
2018,5,11,13,55,20.694,-0.0174,-0.453,-0.3003,0.8391,-0.4,0.6,1,0.009,0.02,0,0
2018,5,11,13,55,20.732,-0.0174,-0.453,-0.3003,0.8392,-0.5,0.7,1.2,0.007,0.02,0.001,0
2018,5,11,13,55,20.753,-0.0174,-0.4529,-0.3001,0.8393,-0.4,0.4,1.3,0.004,0.019,0.003,0
2018,5,11,13,55,20.757,-0.0175,-0.4528,-0.2999,0.8394,-0.2,0.6,1,0.001,0.023,0.004,0
2018,5,11,13,55,20.771,-0.0175,-0.4527,-0.2998,0.8394,-0.2,0.5,0.7,0.004,0.022,0,1023
2018,5,11,13,55,20.807,-0.0175,-0.4526,-0.2998,0.8395,-0.9,0.5,0.8,0.003,0.014,0.003,1023
2018,5,11,13,55,20.827,-0.0176,-0.4526,-0.2997,0.8396,-1.1,0.1,0.5,0.001,0.006,-0.002,1023
2018,5,11,13,55,20.831,-0.0177,-0.4526,-0.2998,0.8395,0,0,0,0,0.011,-0.001,1023
2018,5,11,13,55,20.872,-0.0177,-0.4526,-0.2998,0.8395,-0.2,0.1,0.6,0.001,0.017,0,1023
2018,5,11,13,55,20.89,-0.0176,-0.4526,-0.2998,0.8395,-0.1,0.1,1,0.006,0.018,-0.003,1023
2018,5,11,13,55,20.895,-0.0176,-0.4526,-0.2998,0.8395,-0.4,0,0.9,0.005,0.021,0.002,1023
2018,5,11,13,55,20.914,-0.0176,-0.4526,-0.2998,0.8395,-0.4,0.1,0.9,0.007,0.02,0.002,1023
2018,5,11,13,55,20.937,-0.0177,-0.4526,-0.2997,0.8396,-0.6,0.3,0.8,0.005,0.024,0.002,1023
2018,5,11,13,55,20.952,-0.0177,-0.4526,-0.2996,0.8396,-0.6,0.4,1,0.006,0.019,0,1023
2018,5,11,13,55,20.993,-0.0177,-0.4525,-0.2997,0.8396,-0.5,0.4,0.9,0.005,0.022,-0.001,1023
2018,5,11,13,55,21.012,-0.0177,-0.4525,-0.3001,0.8395,-0.5,0.3,1,0.005,0.018,0.002,1023
2018,5,11,13,55,21.014,-0.0177,-0.4524,-0.2999,0.8396,-0.9,0.1,0.8,0.003,0.016,0.003,1023
2018,5,11,13,55,21.053,-0.0177,-0.4524,-0.3001,0.8395,-0.4,0,0.8,0,0.018,0.003,1023
2018,5,11,13,55,21.072,-0.0177,-0.4524,-0.3001,0.8395,-0.1,0,0.8,0.001,0.017,-0.001,1023
2018,5,11,13,55,21.077,-0.0177,-0.4525,-0.3001,0.8395,-0.4,0,0.8,0.005,0.021,0,0
2018,5,11,13,55,21.094,-0.0178,-0.4525,-0.3002,0.8394,-0.8,0,0.8,0.006,0.014,0.002,0
2018,5,11,13,55,21.114,-0.0178,-0.4525,-0.3004,0.8394,-0.5,0.2,0.7,0.004,0.015,0,0
2018,5,11,13,55,21.152,-0.0178,-0.4524,-0.3004,0.8394,-0.1,0.3,0.7,0.004,0.011,0,0
2018,5,11,13,55,21.172,-0.0178,-0.4524,-0.3001,0.8395,0.1,0.5,0.8,0.004,0.019,0,0
2018,5,11,13,55,21.176,-0.0178,-0.4523,-0.3001,0.8396,-0.2,0.2,1,0.002,0.024,0.006,0
2018,5,11,13,55,21.197,-0.0179,-0.4523,-0.2999,0.8397,-0.4,0.3,0.8,0.001,0.025,0.003,0
2018,5,11,13,55,21.217,-0.0179,-0.4522,-0.2999,0.8397,-0.7,0.3,0.7,0.004,0.02,0.002,0
2018,5,11,13,55,21.239,-0.0179,-0.4522,-0.2999,0.8397,-0.5,0.3,0.8,0.009,0.018,0.004,0
2018,5,11,13,55,21.258,-0.018,-0.4522,-0.2997,0.8398,-0.4,0.1,0.7,0.001,0.019,0.002,0
2018,5,11,13,55,21.278,-0.018,-0.4521,-0.2997,0.8398,-0.4,0.3,0.7,0.003,0.022,0.003,0
2018,5,11,13,55,21.299,-0.018,-0.4521,-0.2998,0.8398,-0.4,0,0.8,0.002,0.019,0.001,0
2018,5,11,13,55,21.314,-0.018,-0.4521,-0.3,0.8397,-0.2,0.1,0.8,0.003,0.019,0.004,0
2018,5,11,13,55,21.353,-0.018,-0.4521,-0.3001,0.8397,-0.2,0,0.9,0.003,0.018,0,0
2018,5,11,13,55,21.374,-0.0179,-0.4521,-0.3001,0.8397,-0.3,-0.1,0.7,0.004,0.021,0,0
2018,5,11,13,55,21.378,-0.0179,-0.4522,-0.3002,0.8396,-0.4,-0.1,0.7,0.005,0.02,-0.003,0
2018,5,11,13,55,21.415,-0.018,-0.4522,-0.3001,0.8396,-0.5,0,0.8,0.003,0.019,-0.004,0
2018,5,11,13,55,21.435,-0.018,-0.4523,-0.3,0.8396,-0.7,0.1,0.7,0.001,0.018,-0.004,0
2018,5,11,13,55,21.439,-0.018,-0.4523,-0.3002,0.8395,-0.6,-0.1,0.6,0.001,0.013,-0.002,0
2018,5,11,13,55,21.458,-0.0181,-0.4523,-0.3002,0.8395,-0.6,-0.3,0.7,0.002,0.017,0.004,0
2018,5,11,13,55,21.481,-0.0181,-0.4524,-0.3002,0.8395,-0.5,-0.4,0.7,0.002,0.019,0,0
2018,5,11,13,55,21.518,-0.0181,-0.4525,-0.3003,0.8394,-0.7,-0.6,0.9,0.007,0.022,0.004,0
2018,5,11,13,55,21.523,-0.0181,-0.4526,-0.3004,0.8393,-0.6,-0.4,0.8,0.009,0.016,0.009,0
2018,5,11,13,55,21.537,-0.0181,-0.4527,-0.3,0.8394,-0.1,-0.4,0.7,0.008,0.018,0.003,0
2018,5,11,13,55,21.574,-0.0181,-0.4528,-0.2999,0.8394,0,0,0.6,0.004,0.02,0,0
2018,5,11,13,55,21.594,-0.0182,-0.4528,-0.2997,0.8394,-0.5,0.3,0.5,0.005,0.022,0.003,0
2018,5,11,13,55,21.597,-0.0183,-0.4528,-0.2995,0.8395,-0.9,0,0.4,0.005,0.013,0,0
2018,5,11,13,55,21.636,-0.0183,-0.4529,-0.2995,0.8395,0,0,0,0.006,0.013,0,0
2018,5,11,13,55,21.655,-0.0184,-0.4529,-0.2993,0.8395,0,-0.1,0.7,0.002,0.022,-0.002,1023
2018,5,11,13,55,21.658,-0.0184,-0.453,-0.2991,0.8395,-0.4,-0.2,0.8,0.006,0.021,-0.002,1023
2018,5,11,13,55,21.696,-0.0184,-0.4531,-0.2991,0.8395,-0.4,-0.2,0.9,0.003,0.023,0,1023
2018,5,11,13,55,21.716,-0.0184,-0.4532,-0.299,0.8394,-0.8,-0.2,0.8,0.006,0.023,-0.001,1023
2018,5,11,13,55,21.719,-0.0185,-0.4533,-0.299,0.8394,-0.7,-0.2,0.6,0.003,0.022,-0.003,1023
2018,5,11,13,55,21.758,-0.0185,-0.4534,-0.2989,0.8394,-0.6,-0.1,0.8,0.004,0.018,0.001,1023
2018,5,11,13,55,21.778,-0.0185,-0.4534,-0.299,0.8394,-0.4,-0.1,0.8,0.005,0.018,0,1023
2018,5,11,13,55,21.781,-0.0185,-0.4534,-0.299,0.8393,-0.5,0,0.8,0.007,0.021,-0.002,1023
2018,5,11,13,55,21.799,-0.0185,-0.4535,-0.299,0.8393,-0.9,-0.1,0.8,0.001,0.015,0.002,1023
2018,5,11,13,55,21.819,-0.0186,-0.4535,-0.299,0.8393,-0.6,-0.3,0.6,0.002,0.017,0.002,1023
2018,5,11,13,55,21.855,-0.0186,-0.4536,-0.299,0.8392,-0.3,-0.1,0.5,0.003,0.014,-0.001,1023
2018,5,11,13,55,21.875,-0.0186,-0.4537,-0.2989,0.8392,-0.3,0,0.8,0.005,0.021,-0.002,1023
2018,5,11,13,55,21.878,-0.0186,-0.4537,-0.2987,0.8393,-0.5,0,0.7,0.004,0.018,0.001,1023
2018,5,11,13,55,21.917,-0.0186,-0.4537,-0.2988,0.8393,-0.3,0.1,0.7,0.006,0.018,-0.001,1023
2018,5,11,13,55,21.937,-0.0186,-0.4537,-0.299,0.8392,-0.2,0.3,0.8,0.003,0.015,-0.001,1023
2018,5,11,13,55,21.941,-0.0185,-0.4536,-0.299,0.8393,-0.1,0.4,1,0.006,0.016,0,1023
2018,5,11,13,55,21.982,-0.0185,-0.4536,-0.2989,0.8393,-0.2,0.2,1.3,0.004,0.021,0.002,1023
2018,5,11,13,55,22.001,-0.0185,-0.4536,-0.2988,0.8393,-0.4,0,1.1,0.001,0.023,0.002,0
2018,5,11,13,55,22.005,-0.0185,-0.4536,-0.2988,0.8393,-0.6,-0.1,0.9,0.002,0.021,0.005,0
2018,5,11,13,55,22.024,-0.0185,-0.4536,-0.299,0.8392,-0.7,0,0.7,0.005,0.022,-0.001,0
2018,5,11,13,55,22.045,-0.0185,-0.4536,-0.2991,0.8392,-0.4,-0.1,1,0.003,0.021,0.002,0
2018,5,11,13,55,22.065,-0.0185,-0.4537,-0.2991,0.8392,-0.4,-0.4,0.8,0.001,0.018,0,0
2018,5,11,13,55,22.08,-0.0184,-0.4537,-0.2992,0.8391,-0.2,-0.3,0.8,0.004,0.015,0,0
2018,5,11,13,55,22.116,-0.0184,-0.4538,-0.2995,0.839,-0.3,-0.2,1.1,0.005,0.017,-0.001,0
2018,5,11,13,55,22.136,-0.0183,-0.4538,-0.2995,0.839,-0.4,-0.2,1.1,0.006,0.015,0.004,0
2018,5,11,13,55,22.143,-0.0183,-0.4539,-0.2997,0.8389,-0.4,-0.1,1.1,0.007,0.015,0.001,0
2018,5,11,13,55,22.182,-0.0182,-0.4539,-0.2997,0.8389,-0.4,-0.1,1,0.006,0.016,0,0
2018,5,11,13,55,22.203,-0.0182,-0.4539,-0.2996,0.8389,-0.4,-0.2,1,0.004,0.017,0,0
2018,5,11,13,55,22.207,-0.0182,-0.454,-0.2996,0.8388,-0.4,-0.1,0.8,0.002,0.017,0.001,0
2018,5,11,13,55,22.226,-0.0182,-0.454,-0.2996,0.8388,-0.4,-0.2,0.8,0.001,0.015,0.001,0
2018,5,11,13,55,22.246,-0.0181,-0.4541,-0.2997,0.8388,-0.4,-0.2,0.8,0.002,0.02,0,0
2018,5,11,13,55,22.285,-0.0181,-0.4541,-0.2997,0.8387,-0.8,-0.2,0.8,0.003,0.018,0,0
2018,5,11,13,55,22.289,-0.0181,-0.4541,-0.2999,0.8387,-0.4,-0.2,1.1,0.004,0.018,0,0
2018,5,11,13,55,22.305,-0.018,-0.4542,-0.3,0.8386,-0.4,-0.1,1.3,0.008,0.02,0.004,0
2018,5,11,13,55,22.322,-0.018,-0.4542,-0.2998,0.8386,-0.7,-0.2,1.3,0.007,0.02,0.006,0
2018,5,11,13,55,22.361,-0.018,-0.4542,-0.2999,0.8386,-0.6,-0.2,1.1,0.005,0.02,0.004,0
2018,5,11,13,55,22.381,-0.0179,-0.4543,-0.2998,0.8386,-0.2,0.1,0.8,0.007,0.018,-0.004,0
2018,5,11,13,55,22.385,-0.018,-0.4543,-0.2996,0.8387,-0.6,0,0.8,0.005,0.019,0.004,0
2018,5,11,13,55,22.405,-0.018,-0.4543,-0.2996,0.8387,-1,-0.1,0.5,0.007,0.012,-0.001,0
2018,5,11,13,55,22.44,-0.018,-0.4543,-0.2997,0.8386,-0.4,-0.2,0.6,0.001,0.01,0.002,0
2018,5,11,13,55,22.46,-0.018,-0.4544,-0.2996,0.8386,-0.3,0,0.8,0.001,0.019,0,0
2018,5,11,13,55,22.466,-0.018,-0.4544,-0.2995,0.8387,-0.2,0,1,0.005,0.019,0,0
2018,5,11,13,55,22.483,-0.018,-0.4544,-0.2994,0.8387,-0.3,0,1,0.006,0.022,0,0
2018,5,11,13,55,22.523,-0.0179,-0.4544,-0.2994,0.8387,-0.2,0.1,1.1,0.003,0.02,-0.001,0
2018,5,11,13,55,22.543,-0.0179,-0.4544,-0.2996,0.8386,-0.5,0.1,1,0.005,0.023,0.001,0
2018,5,11,13,55,22.547,-0.0179,-0.4544,-0.2995,0.8386,-0.6,0.1,1.1,0.004,0.02,0.002,1023
2018,5,11,13,55,22.564,-0.0179,-0.4544,-0.2996,0.8386,-0.7,0.1,1.1,0.009,0.015,0,1023
2018,5,11,13,55,22.585,-0.0179,-0.4544,-0.2997,0.8386,-0.6,0.1,1.4,0.006,0.017,0.002,1023
2018,5,11,13,55,22.62,-0.0178,-0.4544,-0.2998,0.8386,-0.7,0,1.1,0.003,0.014,0.001,1023
2018,5,11,13,55,22.639,-0.0178,-0.4544,-0.2999,0.8385,-0.6,-0.2,1.1,0.003,0.018,0,1023
2018,5,11,13,55,22.647,-0.0177,-0.4544,-0.3001,0.8385,-0.4,-0.1,1,0.004,0.017,0,1023
2018,5,11,13,55,22.686,-0.0177,-0.4544,-0.2999,0.8385,-0.2,0,0.8,0.006,0.017,0,1023
2018,5,11,13,55,22.706,-0.0177,-0.4544,-0.2999,0.8385,-0.7,0,1.1,0.005,0.015,0.001,1023
2018,5,11,13,55,22.71,-0.0177,-0.4544,-0.2998,0.8385,-0.9,0.1,1,0.005,0.015,0.003,1023
2018,5,11,13,55,22.728,-0.0177,-0.4544,-0.2997,0.8386,-0.3,0.2,1,0.005,0.013,0.001,1023
2018,5,11,13,55,22.763,-0.0177,-0.4544,-0.2996,0.8386,0,0,0.9,0.001,0.015,0.004,1023
2018,5,11,13,55,22.784,-0.0177,-0.4544,-0.2995,0.8386,-0.4,0,0.9,0.006,0.024,0,1023
2018,5,11,13,55,22.788,-0.0177,-0.4544,-0.2994,0.8387,-0.9,0,1,0.002,0.024,0,1023
2018,5,11,13,55,22.806,-0.0177,-0.4545,-0.2994,0.8386,-0.7,0,1,0.006,0.022,0.002,1023
2018,5,11,13,55,22.844,-0.0177,-0.4545,-0.2996,0.8386,-0.7,0,0.9,0.005,0.018,-0.001,1023
2018,5,11,13,55,22.865,-0.0178,-0.4545,-0.2995,0.8386,-0.6,0.1,0.8,0.005,0.021,0.006,1023
2018,5,11,13,55,22.869,-0.0178,-0.4545,-0.2994,0.8387,-0.7,0.1,0.8,0.007,0.017,0.001,1023
2018,5,11,13,55,22.89,-0.0178,-0.4545,-0.2993,0.8387,-0.5,0.2,1,0.004,0.015,0,1023
2018,5,11,13,55,22.91,-0.0178,-0.4545,-0.2994,0.8387,-0.4,0,1,0.005,0.016,-0.002,1023
2018,5,11,13,55,22.929,-0.0178,-0.4545,-0.2996,0.8386,-0.4,0,1,0.003,0.016,0,1023
2018,5,11,13,55,22.949,-0.0177,-0.4545,-0.2996,0.8386,-0.4,-0.1,0.8,0.004,0.019,0.001,0
2018,5,11,13,55,22.988,-0.0177,-0.4545,-0.2997,0.8385,-0.4,0,0.9,0.006,0.017,0.001,0
2018,5,11,13,55,23.009,-0.0177,-0.4545,-0.2998,0.8385,-0.7,0,1,0.008,0.018,0.001,0
2018,5,11,13,55,23.013,-0.0177,-0.4545,-0.2998,0.8385,-0.7,0,1,0.006,0.019,0,0
2018,5,11,13,55,23.032,-0.0177,-0.4545,-0.2999,0.8385,-0.6,0,0.9,0.002,0.018,0.002,0
2018,5,11,13,55,23.049,-0.0177,-0.4544,-0.3001,0.8384,-0.6,0.1,0.7,0.004,0.02,0.002,0
2018,5,11,13,55,23.069,-0.0177,-0.4544,-0.3002,0.8384,-0.6,0.1,0.8,0.003,0.017,0.003,0
2018,5,11,13,55,23.089,-0.0177,-0.4544,-0.3003,0.8384,-0.7,0.1,1,0.003,0.017,-0.002,0
2018,5,11,13,55,23.11,-0.0177,-0.4544,-0.3005,0.8383,-0.7,0.1,0.7,0.004,0.015,0.001,0
2018,5,11,13,55,23.149,-0.0177,-0.4544,-0.3004,0.8384,-0.5,0.1,0.9,0.009,0.019,0.002,0
2018,5,11,13,55,23.169,-0.0178,-0.4544,-0.3002,0.8384,-0.6,-0.1,0.9,0.005,0.017,0,0
2018,5,11,13,55,23.173,-0.0178,-0.4545,-0.3001,0.8384,-0.3,0.1,0.9,0.004,0.019,0,0
2018,5,11,13,55,23.19,-0.0178,-0.4544,-0.3003,0.8384,-0.7,0.1,1.1,0.003,0.022,0.007,0
2018,5,11,13,55,23.23,-0.0178,-0.4544,-0.3003,0.8384,-0.8,0.1,1.1,0.007,0.018,0.006,0
2018,5,11,13,55,23.25,-0.0177,-0.4544,-0.3003,0.8384,-0.4,0.3,1.1,0.002,0.017,-0.001,0
2018,5,11,13,55,23.254,-0.0177,-0.4543,-0.3003,0.8384,-0.4,0.7,0.8,0.003,0.014,0.004,0
2018,5,11,13,55,23.27,-0.0178,-0.4542,-0.3003,0.8385,-0.7,0.2,0.6,0.001,0.014,-0.001,0
2018,5,11,13,55,23.291,-0.0178,-0.4542,-0.3003,0.8385,-0.8,0,0.3,0,0.01,0,0
2018,5,11,13,55,23.311,-0.0179,-0.4543,-0.3001,0.8385,-0.4,-0.2,0.7,0.001,0.019,0,0
2018,5,11,13,55,23.35,-0.0179,-0.4544,-0.2998,0.8386,-0.2,-0.2,1,0.003,0.017,-0.003,0
2018,5,11,13,55,23.37,-0.0179,-0.4544,-0.2998,0.8386,-0.1,-0.1,1.2,0.007,0.018,0,0
2018,5,11,13,55,23.374,-0.0178,-0.4544,-0.2998,0.8385,-0.4,0,1.1,0.005,0.019,0.005,0
2018,5,11,13,55,23.393,-0.0178,-0.4544,-0.2999,0.8385,-0.4,0,1.1,0.01,0.024,0,1023
2018,5,11,13,55,23.43,-0.0178,-0.4544,-0.3,0.8385,-0.4,0.1,1,0.009,0.02,0,1023
2018,5,11,13,55,23.451,-0.0178,-0.4544,-0.3001,0.8384,-0.6,0.2,1.1,0.009,0.019,-0.002,1023
2018,5,11,13,55,23.456,-0.0178,-0.4545,-0.3,0.8384,-0.6,0.1,1.1,0.007,0.022,-0.003,1023
2018,5,11,13,55,23.474,-0.0178,-0.4545,-0.3001,0.8384,-0.7,0,1.1,0.005,0.017,0.005,1023
2018,5,11,13,55,23.513,-0.0178,-0.4544,-0.3001,0.8384,-0.9,0.1,0.9,0.004,0.018,0.006,1023
2018,5,11,13,55,23.533,-0.0178,-0.4544,-0.3002,0.8384,-0.2,-0.1,1,0.001,0.018,0,1023
2018,5,11,13,55,23.537,-0.0177,-0.4544,-0.3003,0.8384,-0.4,0.4,1,0.002,0.019,-0.004,0
2018,5,11,13,55,23.553,-0.0177,-0.4543,-0.3004,0.8384,-0.6,0.2,1.1,0.004,0.018,0,0
2018,5,11,13,55,23.572,-0.0177,-0.4543,-0.3006,0.8383,-0.9,0,1,0.004,0.014,-0.005,0
2018,5,11,13,55,23.604,-0.0176,-0.4543,-0.3007,0.8383,-0.3,0,0.8,0.001,0.017,0.003,0
2018,5,11,13,55,23.626,-0.0176,-0.4542,-0.3009,0.8382,-0.3,-0.4,1.4,-0.013,0.023,0.012,0
2018,5,11,13,55,23.634,-0.0174,-0.4541,-0.3009,0.8383,-3.1,-3,2.9,-0.034,0.075,0.053,0
2018,5,11,13,55,23.673,-0.0173,-0.4544,-0.3018,0.8378,-11.1,-7.7,4.5,-0.069,0.096,0.066,0
2018,5,11,13,55,23.694,-0.0173,-0.455,-0.3041,0.8367,-19.5,-12.3,5.3,-0.088,0.069,0.048,0
2018,5,11,13,55,23.698,-0.0174,-0.4561,-0.3077,0.8348,-24.9,-16,6.4,-0.11,0.067,0.024,0
2018,5,11,13,55,23.716,-0.0173,-0.4575,-0.3122,0.8323,-25.2,-17.1,6.9,-0.112,0.015,0.005,0
2018,5,11,13,55,23.754,-0.0173,-0.4593,-0.3163,0.8298,-28.1,-20.9,9.4,-0.129,0.107,0.029,0
2018,5,11,13,55,23.758,-0.0175,-0.4618,-0.3221,0.8262,-42.2,-25.5,11.1,-0.09,0.133,0.026,0
2018,5,11,13,55,23.774,-0.018,-0.4647,-0.3304,0.8212,-59,-28.1,14.9,-0.045,0.123,0.063,0
2018,5,11,13,55,23.811,-0.0194,-0.4672,-0.3412,0.8153,-70.3,-28.2,18.3,-0.043,0.061,0.04,0
2018,5,11,13,55,23.831,-0.0213,-0.469,-0.3526,0.8093,-80.7,-21.1,20.7,0.031,0.052,0.113,0
2018,5,11,13,55,23.835,-0.0239,-0.4687,-0.3663,0.8034,-78.8,-6,27.7,0.044,-0.108,0.148,0
2018,5,11,13,55,23.855,-0.0234,-0.4656,-0.3764,0.8005,-12.4,12.2,39.3,-0.045,-0.477,0.346,0
2018,5,11,13,55,23.876,-0.0145,-0.4598,-0.3723,0.806,124.7,33.5,43,-0.356,-0.873,0.515,0
2018,5,11,13,55,23.913,0.005,-0.4523,-0.3468,0.8216,262.6,33.1,38.8,-0.759,-0.867,0.958,0
2018,5,11,13,55,23.933,0.0315,-0.4471,-0.3074,0.8393,299.6,2.5,26,-0.782,-0.405,0.993,0
2018,5,11,13,55,23.937,0.0588,-0.4452,-0.2639,0.8535,327.9,-23.8,15.1,-1.033,-0.604,0.795,0
2018,5,11,13,55,23.972,0.0918,-0.4459,-0.2087,0.8655,394.7,-57.7,18.8,-1.163,-0.19,0.716,0
2018,5,11,13,55,23.995,0.1278,-0.45,-0.1539,0.8703,322.8,-100.2,43.9,-1.214,0.246,0.674,0
2018,5,11,13,55,23.999,0.161,-0.4604,-0.1139,0.8654,238.6,-141.3,73.8,-1.125,0.112,0.577,0
2018,5,11,13,55,24.016,0.1956,-0.4757,-0.084,0.8534,206.7,-169,112.2,-1.119,-0.032,0.414,1023
2018,5,11,13,55,24.052,0.2366,-0.4922,-0.055,0.8358,262.8,-189.9,155,-1.204,-0.438,0.11,1023
2018,5,11,13,55,24.072,0.2922,-0.5038,-0.0154,0.8126,377.5,-189.1,209.1,-1.224,-0.448,-0.236,1023
2018,5,11,13,55,24.076,0.3631,-0.5051,0.0316,0.7822,447.9,-164.6,282.9,-1.145,0.003,-0.416,1023
2018,5,11,13,55,24.115,0.4463,-0.4954,0.0754,0.7413,489.8,-138.7,374.2,-1.356,0.074,-0.51,1023
2018,5,11,13,55,24.134,0.5404,-0.4734,0.1137,0.6861,531.8,-97.3,467.9,-1.4,0.297,-0.806,1023
2018,5,11,13,55,24.139,0.6399,-0.4367,0.1401,0.6165,536.4,-21.2,547.4,-1.425,0.224,-1.113,1023
2018,5,11,13,55,24.177,0.7366,-0.3845,0.1489,0.536,540.9,73.4,591,-1.744,-0.071,-0.887,1023
2018,5,11,13,55,24.198,0.8223,-0.3169,0.1396,0.4513,497.1,180.3,570.1,-2.264,-0.461,-0.11,1023
2018,5,11,13,55,24.203,0.8872,-0.2515,0.1115,0.3702,341.2,225,532.7,-2.684,-0.544,0.328,1023
2018,5,11,13,55,24.22,0.9309,-0.2055,0.0709,0.2932,204.2,216.6,491.6,-2.614,-1.65,0.232,1023
2018,5,11,13,55,24.242,0.9587,-0.1738,0.0272,0.2234,118.4,214,429.2,-1.955,-1.424,0.332,1023
2018,5,11,13,55,24.261,0.9746,-0.1545,-0.0154,0.1612,40.4,185.3,378,-1.835,-1.205,0.765,1023
2018,5,11,13,55,24.278,0.9826,-0.1447,-0.0503,0.1046,17.8,125.4,332.1,-1.82,-1.588,0.676,1023
2018,5,11,13,55,24.315,0.9862,-0.1357,-0.0754,0.0566,34,93.3,262.8,-1.687,-1.544,0.015,1023
2018,5,11,13,55,24.335,0.9868,-0.1276,-0.0974,0.0194,-1.1,106.4,205.2,-1.715,-0.795,-1.086,0
2018,5,11,13,55,24.337,0.984,-0.1275,-0.1236,-0.0089,-18.7,163,157.7,-1.465,-0.874,-1.915,0
2018,5,11,13,55,24.358,0.9806,-0.1342,-0.1399,-0.026,-375.7,-276,-53.2,-2.774,-9.441,15.023,0
2018,5,11,13,55,24.379,0.9787,-0.1789,-0.0955,-0.0301,-78.3,-138.5,102.7,2.814,1.221,-3.103,0
2018,5,11,13,55,24.401,0.9729,-0.2191,-0.0688,-0.0264,-191.6,-125.2,-35.9,3.577,-1.016,2.708,0
2018,5,11,13,55,24.421,0.9645,-0.2586,-0.043,-0.0291,-273,-177,-74.3,2.988,0.135,0.984,0
2018,5,11,13,55,24.458,0.9528,-0.302,-0.0073,-0.0275,-221.8,-188.4,-128.6,-0.366,0.105,-0.183,0
2018,5,11,13,55,24.479,0.9392,-0.3417,0.0301,-0.0106,-303.5,-149,-183.6,0.152,0.424,1.076,0
2018,5,11,13,55,24.483,0.9219,-0.3829,0.0556,0.0163,-133.2,-53.4,-151.1,-0.574,-0.92,0.495,0
2018,5,11,13,55,24.5,0.9235,-0.376,0.0728,0.0197,110.3,-112.7,46.1,-1.029,0.811,0.114,0
2018,5,11,13,55,24.519,0.9264,-0.3669,0.0838,-0.0103,54.7,-93.3,162.2,1.174,-0.087,-0.865,0
2018,5,11,13,55,24.556,0.9295,-0.3579,0.0812,-0.0337,67.4,13.1,92.1,0.112,-0.058,-0.098,0
2018,5,11,13,55,24.579,0.9361,-0.3422,0.0703,-0.0394,122.2,62.6,-2.8,-0.31,0.128,0.406,0
2018,5,11,13,55,24.583,0.9452,-0.3182,0.062,-0.0356,167.8,28.7,-8.5,0.444,-0.807,-0.42,0
2018,5,11,13,55,24.6,0.9546,-0.2878,0.0618,-0.0441,183.1,-55.2,78.6,0.469,-0.548,-0.485,0
2018,5,11,13,55,24.62,0.9584,-0.2687,0.0665,-0.0682,44.8,-54,149.7,-0.648,-0.362,-0.648,0
2018,5,11,13,55,24.641,0.9583,-0.2609,0.0658,-0.0954,157.2,-39.9,121.9,0.077,-2.039,-0.745,0
2018,5,11,13,55,24.662,0.9675,-0.2158,0.0611,-0.1163,333.7,-15.9,74.7,0.045,-0.419,-0.336,0
2018,5,11,13,55,24.681,0.9763,-0.1674,0.0528,-0.1263,187,31.4,28.8,0.361,1.285,0.562,0
2018,5,11,13,55,24.721,0.9781,-0.1536,0.0441,-0.133,32.9,35.4,60,-0.071,-0.013,-0.249,0
2018,5,11,13,55,24.725,0.9782,-0.1456,0.0346,-0.1435,68.1,26,64.9,-0.584,-0.313,0.049,0
2018,5,11,13,55,24.743,0.9778,-0.1362,0.0292,-0.1558,102.8,14.2,60.3,0.241,-2.142,-0.62,0
2018,5,11,13,55,24.762,0.9812,-0.1004,0.0077,-0.1642,310.4,145,45,0.287,-0.905,-0.242,0
2018,5,11,13,55,24.782,0.9836,-0.0515,-0.0242,-0.1709,232.3,86.2,65.8,-0.512,1.547,0.058,0
2018,5,11,13,55,24.802,0.9826,-0.0367,-0.031,-0.1793,23.9,-19.1,41.4,-0.127,-0.403,0.146,1023
2018,5,11,13,55,24.821,0.9824,-0.0271,-0.0292,-0.1821,81.7,-8.7,-0.5,0.453,-0.264,-0.013,1023
2018,5,11,13,55,24.861,0.983,-0.0146,-0.0316,-0.1802,37.5,-0.8,-5.7,0.169,1.105,0.053,1023
2018,5,11,13,55,24.881,0.9828,-0.0154,-0.0297,-0.1814,-34.6,-11.9,20.5,-0.047,0.783,0.034,1023
2018,5,11,13,55,24.885,0.9816,-0.0223,-0.027,-0.1873,-52,-5.6,47.2,-0.33,0.656,0.022,1023
2018,5,11,13,55,24.904,0.9795,-0.0311,-0.0245,-0.1974,-49,-5.7,64.6,-0.241,0.259,0.002,1023
2018,5,11,13,55,24.941,0.9772,-0.0376,-0.023,-0.2076,-25.8,-0.1,50.2,-0.117,-0.213,-0.07,1023
2018,5,11,13,55,24.961,0.9758,-0.0385,-0.0242,-0.2135,6.4,7.5,24.4,-0.094,0.079,0,1023
2018,5,11,13,55,24.966,0.9753,-0.0386,-0.0252,-0.2156,-14.3,3.3,3.9,-0.028,0.253,0.039,1023
2018,5,11,13,55,24.986,0.9752,-0.0443,-0.0242,-0.2151,-53.9,-1.2,-6,-0.017,0.389,0.044,1023
2018,5,11,13,55,25.007,0.975,-0.0571,-0.0209,-0.2136,-94.1,-3.8,-18.4,-0.063,-0.028,-0.007,1023
2018,5,11,13,55,25.023,0.9749,-0.0713,-0.0172,-0.2099,-45.7,2,-23.3,0.053,-0.116,-0.091,1023
2018,5,11,13,55,25.044,0.9755,-0.0758,-0.0166,-0.2054,-12.9,9.2,-25.7,0.001,-0.013,0.017,1023
2018,5,11,13,55,25.062,0.9765,-0.0778,-0.0173,-0.2,-18.4,5.4,-33.9,-0.032,0.122,0.034,1023
2018,5,11,13,55,25.083,0.9774,-0.0822,-0.0162,-0.1936,-41.5,-1.4,-39.8,0.002,0.149,0.025,1023
2018,5,11,13,55,25.104,0.9781,-0.0901,-0.0134,-0.187,-65.8,-1.9,-38.2,-0.004,0.054,-0.001,0
2018,5,11,13,55,25.144,0.9781,-0.1028,-0.0105,-0.1804,-82.7,7.2,-36,0.025,-0.001,0.039,0
2018,5,11,13,55,25.148,0.9777,-0.1167,-0.0089,-0.174,-74.4,13.3,-34.8,0.017,-0.023,-0.021,0
2018,5,11,13,55,25.165,0.9774,-0.1283,-0.0085,-0.1673,-56.6,13.1,-38,-0.007,-0.001,-0.027,0
2018,5,11,13,55,25.205,0.9773,-0.1377,-0.0082,-0.1606,-53.1,6.9,-36.4,-0.052,0.022,-0.003,0
2018,5,11,13,55,25.224,0.9769,-0.1471,-0.0064,-0.1547,-53.5,1.2,-31.9,-0.01,-0.066,-0.006,0
2018,5,11,13,55,25.228,0.9764,-0.1557,-0.0045,-0.1494,-36.3,3.3,-26.9,0.024,-0.106,-0.05,0
2018,5,11,13,55,25.243,0.9761,-0.1612,-0.0039,-0.145,-12.8,7.1,-23.3,-0.001,-0.099,-0.038,0
2018,5,11,13,55,25.264,0.9765,-0.1625,-0.0045,-0.1409,3.3,7.6,-22.9,-0.011,0,-0.025,0
2018,5,11,13,55,25.284,0.9771,-0.162,-0.0053,-0.1371,-2.5,6.5,-19.3,-0.011,0.076,0.01,0
2018,5,11,13,55,25.321,0.9774,-0.1628,-0.0056,-0.1342,-15.7,3.8,-12.4,0.014,0.051,0.016,0
2018,5,11,13,55,25.34,0.9771,-0.1659,-0.0052,-0.1326,-11.1,1.1,-6.9,0.009,-0.045,-0.024,0
2018,5,11,13,55,25.347,0.9771,-0.1667,-0.005,-0.1316,4.7,0.6,-3.9,-0.007,-0.05,-0.009,0
2018,5,11,13,55,25.366,0.9774,-0.1655,-0.0052,-0.1309,8.4,0.8,-1.7,-0.008,0.012,0,0
2018,5,11,13,55,25.403,0.9777,-0.1639,-0.0055,-0.1306,3.9,0.6,0,-0.012,0.051,0.009,0
2018,5,11,13,55,25.424,0.9778,-0.1633,-0.0056,-0.1307,-5,0.4,0.3,0.009,0.057,0.017,0
2018,5,11,13,55,25.428,0.9776,-0.1645,-0.0054,-0.1306,-11.3,0.5,0.6,0.009,-0.017,0.011,0
2018,5,11,13,55,25.45,0.9773,-0.1665,-0.0053,-0.1307,-3.9,2.5,0.7,0.004,-0.049,-0.029,0
2018,5,11,13,55,25.469,0.9772,-0.1667,-0.0058,-0.1307,5.9,3.4,-0.3,0,-0.017,-0.006,0
2018,5,11,13,55,25.487,0.9775,-0.1653,-0.0065,-0.1303,8.6,3.3,-1.5,0.001,0.049,0.013,0
2018,5,11,13,55,25.505,0.9778,-0.1636,-0.0072,-0.13,2.3,1.9,-0.6,-0.006,0.071,0.022,0
2018,5,11,13,55,25.545,0.9779,-0.1632,-0.0075,-0.1299,-4.3,0.4,1,-0.012,0.046,0.002,0
2018,5,11,13,55,25.564,0.9777,-0.164,-0.0076,-0.1302,-4,-0.4,1.5,-0.015,-0.027,-0.008,0
2018,5,11,13,55,25.568,0.9777,-0.1642,-0.0077,-0.1303,0.8,-0.4,1.4,-0.011,0.004,-0.011,0
2018,5,11,13,55,25.587,0.9777,-0.1638,-0.0077,-0.1306,3.3,-0.1,1.1,0,0.012,0,0
2018,5,11,13,55,25.626,0.9778,-0.1629,-0.0079,-0.1307,2.6,-0.2,1,-0.003,0.036,0.003,1023
2018,5,11,13,55,25.644,0.978,-0.1622,-0.0079,-0.1307,-0.1,-0.4,1,0,0.032,0.009,1023
2018,5,11,13,55,25.648,0.9779,-0.1622,-0.0079,-0.1309,-2.6,-0.6,1.1,-0.004,0.016,-0.001,1023
2018,5,11,13,55,25.687,0.9779,-0.1624,-0.0078,-0.1311,1.3,0,1,0.005,-0.018,-0.011,1023
2018,5,11,13,55,25.706,0.978,-0.1618,-0.0079,-0.1312,6.9,0.6,0.5,0,-0.009,-0.001,1023
2018,5,11,13,55,25.709,0.9782,-0.1603,-0.0082,-0.1314,7.4,0.6,0.3,-0.005,0.052,0.004,1023
2018,5,11,13,55,25.725,0.9784,-0.159,-0.0085,-0.1314,2.2,0.3,0.5,-0.002,0.044,0.003,1023
2018,5,11,13,55,25.745,0.9785,-0.1584,-0.0086,-0.1313,-1.2,0,0.5,-0.004,0.031,0.002,1023
2018,5,11,13,55,25.783,0.9785,-0.1584,-0.0086,-0.1312,-2.5,-0.4,0.3,-0.003,0.025,0.002,1023
2018,5,11,13,55,25.805,0.9784,-0.1588,-0.0084,-0.1314,-3.2,-0.5,0.5,-0.001,0.013,-0.008,1023
2018,5,11,13,55,25.809,0.9784,-0.1591,-0.0083,-0.1313,0.3,0.1,1,0,-0.028,-0.002,1023
2018,5,11,13,55,25.83,0.9784,-0.1588,-0.0085,-0.1314,3.4,0.5,1,0,0.016,0.004,1023
2018,5,11,13,55,25.849,0.9785,-0.1581,-0.0087,-0.1316,1.8,0.3,1.3,-0.002,0.037,0.002,1023
2018,5,11,13,55,25.89,0.9786,-0.1577,-0.0088,-0.1318,-0.1,0.2,1.1,0,0.023,0.003,1023
2018,5,11,13,55,25.909,0.9786,-0.1575,-0.0089,-0.1318,-1.3,0,0.7,-0.001,0.022,0.002,1023
2018,5,11,13,55,25.913,0.9786,-0.1574,-0.0089,-0.1316,-2,0.1,0.4,0,0.012,-0.002,1023
2018,5,11,13,55,25.931,0.9786,-0.1576,-0.0089,-0.1316,-0.9,0,0.4,0.005,0.01,-0.009,0
2018,5,11,13,55,25.968,0.9786,-0.1577,-0.0089,-0.1316,0.5,-0.5,0.8,-0.003,-0.007,-0.003,0
2018,5,11,13,55,25.994,0.9786,-0.1574,-0.0087,-0.1318,2.6,-1,1.7,0,0,-0.004,0
2018,5,11,13,55,26.01,0.9787,-0.1567,-0.0087,-0.1321,3.9,-0.2,2.2,-0.001,0.009,0.003,0
2018,5,11,13,55,26.012,0.9787,-0.1559,-0.0089,-0.1325,4.6,0,2.2,0,0.021,0,0
2018,5,11,13,55,26.028,0.9788,-0.1549,-0.0091,-0.1329,4,0.1,1.9,0,0.027,0.001,0
2018,5,11,13,55,26.065,0.979,-0.154,-0.0092,-0.1331,1.5,-0.1,1.3,0.001,0.04,0.009,0
2018,5,11,13,55,26.085,0.979,-0.1538,-0.0092,-0.1333,-1.8,-0.2,0.9,0.001,0.03,0.007,0
2018,5,11,13,55,26.089,0.9789,-0.1542,-0.0091,-0.1335,-1.8,0,1,0,-0.006,-0.003,0
2018,5,11,13,55,26.129,0.9789,-0.1541,-0.0092,-0.1335,1.6,0.4,1.2,0.002,0.005,-0.002,0
2018,5,11,13,55,26.149,0.9789,-0.1537,-0.0093,-0.1337,1.2,0.2,0.9,0,0.027,0.004,0
2018,5,11,13,55,26.153,0.979,-0.1534,-0.0094,-0.1338,-0.8,0.1,0.9,0.003,0.03,0.003,0
2018,5,11,13,55,26.172,0.9789,-0.1535,-0.0094,-0.134,-1.2,0,1.1,0.002,0.009,-0.008,0
2018,5,11,13,55,26.194,0.9789,-0.1536,-0.0094,-0.1342,0,0,1,0.001,0.005,-0.006,0
2018,5,11,13,55,26.214,0.9789,-0.1534,-0.0095,-0.1343,0.6,0.2,1,-0.001,0.018,-0.001,0
2018,5,11,13,55,26.231,0.979,-0.153,-0.0095,-0.1342,-0.9,0,0.8,0,0.019,0.008,0
2018,5,11,13,55,26.268,0.979,-0.153,-0.0095,-0.1342,-1.3,0,0.8,0,0.012,-0.006,0
2018,5,11,13,55,26.289,0.979,-0.153,-0.0095,-0.1342,-1.2,-0.2,0.7,-0.001,0.02,-0.001,0
2018,5,11,13,55,26.293,0.9789,-0.1531,-0.0095,-0.1343,-2,-0.1,0.6,0,0.021,-0.005,0
2018,5,11,13,55,26.332,0.9789,-0.1534,-0.0094,-0.1345,-2,0,0.5,0.003,0.011,-0.002,0
2018,5,11,13,55,26.353,0.9788,-0.1536,-0.0094,-0.1345,-1.3,0.4,0.5,0.001,0.007,-0.001,0
2018,5,11,13,55,26.357,0.9788,-0.1537,-0.0094,-0.1345,-1.2,0.2,0.4,0.001,0.017,0,0
2018,5,11,13,55,26.375,0.9788,-0.1537,-0.0094,-0.1345,-1.7,0,0.5,0,0.018,0,0
2018,5,11,13,55,26.412,0.9788,-0.1539,-0.0094,-0.1346,-2.6,-0.1,0.5,0.002,0.016,0.001,0
2018,5,11,13,55,26.433,0.9787,-0.1543,-0.0093,-0.1348,-2.4,0,0.6,0.003,0.012,-0.001,1023
2018,5,11,13,55,26.438,0.9786,-0.1545,-0.0092,-0.1349,-1.7,0.1,0.7,0.004,0.004,0,1023
2018,5,11,13,55,26.453,0.9786,-0.1547,-0.0092,-0.1349,-1.6,-0.1,0.8,0.001,0.011,0.004,1023
2018,5,11,13,55,26.474,0.9786,-0.1548,-0.0092,-0.135,-1.5,0,1,0.004,0.011,-0.002,1023
2018,5,11,13,55,26.495,0.9785,-0.1551,-0.0091,-0.1352,-1.5,0,0.8,0.004,0.011,0,1023
2018,5,11,13,55,26.531,0.9785,-0.1552,-0.0091,-0.1353,-1.1,0,0.8,0.007,0.006,-0.001,1023
2018,5,11,13,55,26.552,0.9784,-0.1555,-0.0091,-0.1356,-0.4,0.2,1,0.003,0.012,-0.003,1023
2018,5,11,13,55,26.556,0.9784,-0.1554,-0.0091,-0.1357,-0.9,0,0.8,0.002,0.018,-0.002,1023
2018,5,11,13,55,26.574,0.9783,-0.1555,-0.0091,-0.1358,-1.4,-0.1,1,0.001,0.01,-0.004,1023
2018,5,11,13,55,26.594,0.9783,-0.1557,-0.0091,-0.136,-0.8,0.1,1.1,0.004,0.006,-0.006,1023
2018,5,11,13,55,26.633,0.9782,-0.1558,-0.0091,-0.1363,0.1,0,1.1,0.002,0.011,0,1023
2018,5,11,13,55,26.653,0.9782,-0.1557,-0.0091,-0.1366,-0.2,0.1,0.8,0.002,0.017,0.001,1023
2018,5,11,13,55,26.657,0.9782,-0.1556,-0.0092,-0.1366,-0.6,0.1,0.7,0.002,0.013,-0.001,1023
2018,5,11,13,55,26.694,0.9782,-0.1555,-0.0092,-0.1365,-0.7,0,0.9,0.003,0.008,-0.003,1023
2018,5,11,13,55,26.714,0.9782,-0.1555,-0.0092,-0.1366,-0.8,0,1,0.003,0.014,0.002,1023
2018,5,11,13,55,26.717,0.9782,-0.1554,-0.0091,-0.1367,-1,0,0.8,0.005,0.012,0.002,0
2018,5,11,13,55,26.753,0.9783,-0.1554,-0.0091,-0.1366,-0.9,0.2,0.7,0.002,0.01,-0.001,0
2018,5,11,13,55,26.756,0.9782,-0.1555,-0.0092,-0.1367,-0.1,0.3,0.8,0.003,0.005,-0.002,0
2018,5,11,13,55,26.795,0.9783,-0.1552,-0.0092,-0.1367,0.1,0.3,0.8,0.004,0.016,-0.002,0
2018,5,11,13,55,26.813,0.9783,-0.1549,-0.0092,-0.1367,-1,0,0.9,0.002,0.021,0,0
2018,5,11,13,55,26.816,0.9783,-0.155,-0.0092,-0.1367,-1.6,0,0.8,0.003,0.01,-0.002,0
2018,5,11,13,55,26.852,0.9783,-0.1551,-0.0092,-0.1367,-1.2,0,0.7,0.006,0.007,0,0
2018,5,11,13,55,26.874,0.9783,-0.1551,-0.0091,-0.1368,-0.8,0.1,0.8,0.006,0.009,0.003,0
2018,5,11,13,55,26.878,0.9783,-0.1551,-0.0091,-0.1367,-0.7,0,0.7,0.002,0.013,-0.006,0
2018,5,11,13,55,26.899,0.9783,-0.155,-0.0092,-0.1366,-0.9,0.1,0.8,0.004,0.013,-0.001,0
2018,5,11,13,55,26.92,0.9783,-0.155,-0.0092,-0.1366,-1.1,0.1,0.8,0.005,0.013,-0.001,0
2018,5,11,13,55,26.958,0.9783,-0.155,-0.0091,-0.1367,-1,-0.1,0.9,0.006,0.01,0,0
2018,5,11,13,55,26.962,0.9783,-0.1551,-0.0091,-0.1368,-0.9,0,1,0.003,0.011,0.004,0
2018,5,11,13,55,26.977,0.9783,-0.1552,-0.0091,-0.1369,-0.6,0,0.8,0.005,0.005,0,0
2018,5,11,13,55,26.997,0.9783,-0.1551,-0.0091,-0.1369,-0.4,0.1,0.8,0,0.014,-0.002,0
2018,5,11,13,55,27.018,0.9782,-0.1551,-0.0091,-0.1371,-0.3,0,0.8,0.004,0.012,-0.001,0
2018,5,11,13,55,27.037,0.9782,-0.155,-0.0091,-0.1371,-0.7,0,0.8,0.004,0.014,-0.001,0
2018,5,11,13,55,27.058,0.9782,-0.155,-0.0091,-0.1372,-0.9,0,0.8,0.001,0.011,0,0
2018,5,11,13,55,27.079,0.9782,-0.155,-0.0091,-0.1373,-1,0,1,0.006,0.01,0,0
2018,5,11,13,55,27.116,0.9782,-0.1551,-0.0091,-0.1374,-0.4,0.1,0.9,0.006,0.001,-0.005,0
2018,5,11,13,55,27.136,0.9782,-0.1551,-0.0091,-0.1374,0,0,0.9,0.004,0.014,0.005,0
2018,5,11,13,55,27.14,0.9782,-0.1549,-0.0091,-0.1374,-0.8,0,0.9,0.005,0.017,0.002,0
2018,5,11,13,55,27.161,0.9782,-0.1548,-0.0091,-0.1374,-1.1,0,0.8,0.004,0.009,0,0
2018,5,11,13,55,27.178,0.9783,-0.1548,-0.0091,-0.1373,-0.9,0,1,0.003,0.012,0.003,1023
2018,5,11,13,55,27.198,0.9783,-0.1547,-0.0091,-0.1373,-1.3,0,1,0.005,0.011,0.001,1023
2018,5,11,13,55,27.236,0.9782,-0.155,-0.009,-0.1375,-1.2,-0.2,1,0.002,0.008,0.008,1023
2018,5,11,13,55,27.255,0.9782,-0.1551,-0.009,-0.1377,-0.7,0,0.9,0.002,0.017,-0.002,1023
2018,5,11,13,55,27.259,0.9781,-0.1551,-0.0089,-0.1378,-1.6,-0.1,0.9,0.005,0.021,-0.002,1023
2018,5,11,13,55,27.28,0.9781,-0.1554,-0.0089,-0.1379,-1.8,0,0.9,0.005,0.003,-0.003,1023
2018,5,11,13,55,27.299,0.9781,-0.1555,-0.0089,-0.1379,-0.9,0.2,0.9,0.004,0.009,0,1023
2018,5,11,13,55,27.338,0.978,-0.1556,-0.0089,-0.1381,-0.7,0.1,1,0.005,0.013,0.002,1023
2018,5,11,13,55,27.358,0.978,-0.1556,-0.0089,-0.1382,-1.3,-0.1,1,0.004,0.013,0,1023
2018,5,11,13,55,27.362,0.978,-0.1557,-0.0088,-0.1383,-1.2,-0.1,1,0.008,0.008,0.001,1023
2018,5,11,13,55,27.401,0.9779,-0.1558,-0.0087,-0.1384,-1.3,0.1,1,0.003,0.014,-0.003,1023
2018,5,11,13,55,27.422,0.9779,-0.1559,-0.0087,-0.1384,-1,0.1,1,0.007,0.008,0.003,1023
2018,5,11,13,55,27.426,0.9779,-0.1559,-0.0087,-0.1384,-0.4,0,1,0.006,0.007,-0.002,1023
2018,5,11,13,55,27.444,0.9779,-0.1559,-0.0087,-0.1386,-0.1,0,0.8,0.005,0.013,0.001,0
2018,5,11,13,55,27.464,0.9779,-0.1557,-0.0088,-0.1385,-0.7,0.1,1,0.004,0.017,0,0
2018,5,11,13,55,27.481,0.9779,-0.1558,-0.0087,-0.1386,-1.3,0,0.9,0.006,0.01,-0.002,0
2018,5,11,13,55,27.501,0.9779,-0.1558,-0.0087,-0.1386,-1.1,-0.1,0.8,0.006,0.014,0,0
2018,5,11,13,55,27.539,0.9779,-0.1559,-0.0086,-0.1387,-1.3,0,1,0.01,0.009,0,0
2018,5,11,13,55,27.558,0.9779,-0.156,-0.0086,-0.1388,-1,0,0.8,0.006,0.004,0.004,0
2018,5,11,13,55,27.562,0.9778,-0.1561,-0.0086,-0.1388,-0.9,0,0.7,0.003,0.013,-0.002,0
2018,5,11,13,55,27.582,0.9778,-0.1562,-0.0085,-0.1389,-1.2,-0.1,0.8,0.006,0.011,-0.002,0
2018,5,11,13,55,27.602,0.9778,-0.1563,-0.0085,-0.1391,-0.7,0,0.8,0.006,0.002,-0.001,0
2018,5,11,13,55,27.642,0.9778,-0.1562,-0.0085,-0.1391,-0.2,0.1,1,0.008,0.012,0,0
2018,5,11,13,55,27.664,0.9778,-0.156,-0.0085,-0.139,-0.6,0,1,0.005,0.017,-0.001,0
2018,5,11,13,55,27.668,0.9778,-0.156,-0.0085,-0.139,-1,0,0.9,0.003,0.013,0,0
2018,5,11,13,55,27.681,0.9778,-0.156,-0.0084,-0.139,-0.9,0,0.8,0.003,0.009,-0.002,0
2018,5,11,13,55,27.72,0.9778,-0.1562,-0.0084,-0.1393,-1,-0.2,0.9,0.008,0.014,0.003,0
2018,5,11,13,55,27.742,0.9777,-0.1563,-0.0083,-0.1394,-1.2,0.1,0.9,0.002,0.005,0,0
2018,5,11,13,55,27.745,0.9777,-0.1563,-0.0083,-0.1394,-0.7,0.1,0.9,0.008,0.01,-0.001,0
2018,5,11,13,55,27.763,0.9778,-0.1562,-0.0083,-0.1393,-0.3,0.1,0.8,0.005,0.009,0.003,0
2018,5,11,13,55,27.783,0.9778,-0.156,-0.0083,-0.1392,-0.3,0,1,0.006,0.009,-0.004,0
2018,5,11,13,55,27.803,0.9778,-0.1559,-0.0083,-0.1392,-0.5,0.1,0.9,0.006,0.013,0,0
2018,5,11,13,55,27.841,0.9778,-0.156,-0.0083,-0.1393,-0.9,0,1,0.006,0.014,-0.003,0
2018,5,11,13,55,27.861,0.9778,-0.1561,-0.0083,-0.1394,-0.9,0,1,0.003,0.005,-0.004,0
2018,5,11,13,55,27.865,0.9777,-0.1561,-0.0083,-0.1395,0,0,0.9,0.01,0.008,-0.007,0
2018,5,11,13,55,27.904,0.9777,-0.1561,-0.0083,-0.1396,-0.2,0,0.9,0.004,0.014,0,0
2018,5,11,13,55,27.908,0.9777,-0.156,-0.0083,-0.1396,-0.7,0.1,0.7,0.006,0.012,0.002,0
2018,5,11,13,55,27.924,0.9778,-0.156,-0.0083,-0.1396,-0.9,0,0.9,0.007,0.006,0,1023
2018,5,11,13,55,27.961,0.9777,-0.156,-0.0083,-0.1396,-0.4,0.1,0.9,0.007,0.007,0,1023
2018,5,11,13,55,27.981,0.9778,-0.1558,-0.0083,-0.1394,-0.3,0,1,0.009,0.008,0.002,1023
2018,5,11,13,55,27.985,0.9778,-0.1557,-0.0083,-0.1395,-0.6,0,1,0.006,0.012,-0.004,1023
2018,5,11,13,55,28.025,0.9778,-0.1558,-0.0083,-0.1395,0,0,1.2,0.008,-0.004,-0.003,1023
2018,5,11,13,55,28.029,0.9778,-0.1557,-0.0082,-0.1398,2.2,0,1.5,0.005,-0.001,-0.004,1023
2018,5,11,13,55,28.044,0.9778,-0.1552,-0.0083,-0.1401,3,0,1.8,0.006,0.012,-0.003,1023
2018,5,11,13,55,28.085,0.9779,-0.1545,-0.0084,-0.1403,1.8,0,1.5,0.008,0.021,0,1023
2018,5,11,13,55,28.089,0.9779,-0.1541,-0.0084,-0.1404,0.6,0,1.2,0.008,0.019,-0.004,1023
2018,5,11,13,55,28.107,0.978,-0.1538,-0.0084,-0.1404,0,-0.4,1.3,0.006,0,-0.002,1023
2018,5,11,13,55,28.126,0.9779,-0.154,-0.0082,-0.1407,1.8,-1.5,1.9,0.004,-0.019,-0.013,1023
2018,5,11,13,55,28.147,0.9779,-0.1536,-0.0081,-0.1412,5.6,-1.8,3,0.008,-0.004,-0.001,1023
2018,5,11,13,55,28.187,0.978,-0.1523,-0.008,-0.1417,7,-1.3,3.8,0.006,0.011,0.001,1023
2018,5,11,13,55,28.208,0.9782,-0.1509,-0.0081,-0.1423,6.7,-0.9,3.8,0.007,0.025,0,1023
2018,5,11,13,55,28.212,0.9783,-0.1496,-0.0081,-0.1428,5.2,-0.4,3.1,0.01,0.027,0,0
2018,5,11,13,55,28.225,0.9784,-0.1484,-0.0082,-0.143,2.6,-0.3,2.1,0.007,0.034,0.003,0
2018,5,11,13,55,28.262,0.9785,-0.1477,-0.0082,-0.143,-0.4,-0.4,1.4,0.007,0.028,0.003,0
2018,5,11,13,55,28.283,0.9785,-0.1477,-0.0082,-0.143,-2,-0.1,0.8,0.008,0.014,0,0
2018,5,11,13,55,28.288,0.9785,-0.1478,-0.0081,-0.143,-2,0.3,0.6,0.01,0.007,0,0
2018,5,11,13,55,28.307,0.9785,-0.1482,-0.0081,-0.1431,-1.6,0.3,0.7,0.006,0.009,-0.003,0
2018,5,11,13,55,28.327,0.9785,-0.1481,-0.0081,-0.1428,-2.1,0.4,0.4,0.007,0.011,0,0
2018,5,11,13,55,28.349,0.9785,-0.1484,-0.008,-0.1427,-2.1,0.3,0.3,0.009,0.01,-0.004,0
2018,5,11,13,55,28.369,0.9785,-0.1486,-0.008,-0.1426,-2.4,0.3,0.2,0.004,0.011,-0.001,0
2018,5,11,13,55,28.41,0.9784,-0.1489,-0.008,-0.1426,-2.8,0.1,0,0.004,0.016,0,0
2018,5,11,13,55,28.414,0.9784,-0.1494,-0.0079,-0.1424,-3.8,0,0.3,0.005,-0.002,-0.005,0
2018,5,11,13,55,28.428,0.9783,-0.1501,-0.0077,-0.1425,-1,-0.6,1.4,0.009,-0.034,-0.014,0
2018,5,11,13,55,28.446,0.9782,-0.15,-0.0076,-0.1428,4.5,-0.3,2.2,0.005,-0.014,-0.001,0
2018,5,11,13,55,28.484,0.9783,-0.149,-0.0077,-0.1431,5.8,-0.2,2.4,0.005,0.02,0,0
2018,5,11,13,55,28.505,0.9784,-0.1479,-0.0079,-0.1435,3.9,-0.1,2.2,0.006,0.027,-0.003,0
2018,5,11,13,55,28.51,0.9785,-0.1471,-0.008,-0.1437,2.2,-0.4,1.8,0.006,0.023,0.002,0
2018,5,11,13,55,28.527,0.9785,-0.1467,-0.008,-0.144,0.7,-0.1,1.3,0.008,0.029,0.002,0
2018,5,11,13,55,28.549,0.9785,-0.1466,-0.0079,-0.1442,-1,0,0.9,0.008,0.018,0.001,0
2018,5,11,13,55,28.589,0.9785,-0.1468,-0.0079,-0.1443,-1.9,0.1,0.8,0.007,0.01,-0.001,0
2018,5,11,13,55,28.608,0.9784,-0.1471,-0.0079,-0.1443,-1.4,0.1,0.6,0.004,0.005,0.001,0
2018,5,11,13,55,28.612,0.9785,-0.1471,-0.0078,-0.1442,-1,0,1,0.008,0.005,-0.008,0
2018,5,11,13,55,28.65,0.9784,-0.1472,-0.0078,-0.1443,-0.1,0,1.3,0.006,0,-0.004,1023
2018,5,11,13,55,28.654,0.9785,-0.147,-0.0078,-0.1443,0.7,0,1.4,0.006,0.007,-0.005,1023
2018,5,11,13,55,28.672,0.9784,-0.1468,-0.0078,-0.1446,0.4,-0.1,1,0.005,0.017,0.003,1023
2018,5,11,13,55,28.688,0.9784,-0.1467,-0.0078,-0.1447,-0.4,-0.1,0.8,0.005,0.015,0,1023
2018,5,11,13,55,28.709,0.9785,-0.1466,-0.0078,-0.1447,-0.5,0,0.7,0.009,0.011,-0.005,1023
2018,5,11,13,55,28.73,0.9785,-0.1466,-0.0077,-0.1447,-1.1,-0.1,0.7,0.008,0.006,0,1023
2018,5,11,13,55,28.766,0.9785,-0.1466,-0.0077,-0.1445,-0.3,0.1,0.8,0.009,0.002,-0.005,1023
2018,5,11,13,55,28.787,0.9785,-0.1466,-0.0077,-0.1447,-0.4,0.1,0.6,0.004,0.014,-0.001,1023
2018,5,11,13,55,28.791,0.9785,-0.1466,-0.0077,-0.1447,-0.7,0.1,0.5,0.007,0.017,0.001,1023
2018,5,11,13,55,28.81,0.9784,-0.1467,-0.0076,-0.1448,-1.4,0,0.4,0.006,0.008,-0.001,1023
2018,5,11,13,55,28.849,0.9784,-0.1469,-0.0075,-0.1448,-0.9,-0.1,0.7,0.009,0.003,0,1023
2018,5,11,13,55,28.869,0.9784,-0.1469,-0.0075,-0.1447,-0.4,0.1,0.8,0.007,0.007,-0.001,0
2018,5,11,13,55,28.874,0.9784,-0.1467,-0.0075,-0.1446,-0.6,0.2,0.8,0.007,0.015,0.001,0
2018,5,11,13,55,28.894,0.9785,-0.1467,-0.0075,-0.1446,-1.6,-0.2,0.8,0.004,0.014,0.001,0
2018,5,11,13,55,28.913,0.9784,-0.1469,-0.0074,-0.1446,-1.8,0,0.7,0.006,0.007,-0.001,0
2018,5,11,13,55,28.931,0.9784,-0.1471,-0.0073,-0.1447,-1.1,-0.1,0.7,0.006,0.004,0.002,0
2018,5,11,13,55,28.952,0.9784,-0.147,-0.0072,-0.1446,-0.4,-0.3,0.8,0.007,0.004,-0.001,0
2018,5,11,13,55,28.973,0.9784,-0.147,-0.0072,-0.1446,-0.4,-0.1,0.8,0.006,0.017,-0.001,0
2018,5,11,13,55,28.992,0.9784,-0.147,-0.0071,-0.1447,-1.8,-0.1,0.6,0.007,0.02,0.002,0
2018,5,11,13,55,29.012,0.9784,-0.1471,-0.007,-0.1445,-2.3,-0.2,0.7,0.005,0.005,-0.003,0
2018,5,11,13,55,29.033,0.9784,-0.1474,-0.0069,-0.1446,-0.7,-0.6,1.2,0.006,-0.008,-0.001,0
2018,5,11,13,55,29.072,0.9783,-0.1475,-0.0068,-0.1449,0.8,-0.4,1.4,0.007,0.008,0.003,0
2018,5,11,13,55,29.076,0.9784,-0.1471,-0.0067,-0.1449,0.4,-0.2,1.3,0.006,0.02,0,0
2018,5,11,13,55,29.092,0.9784,-0.147,-0.0067,-0.145,-0.8,-0.2,0.8,0.005,0.022,0,0
2018,5,11,13,55,29.132,0.9784,-0.147,-0.0066,-0.1449,-1.8,-0.1,0.5,0.004,0.013,-0.003,0
2018,5,11,13,55,29.136,0.9783,-0.1472,-0.0065,-0.1449,-2.1,-0.2,0.5,0.006,0.007,0,0
2018,5,11,13,55,29.152,0.9783,-0.1476,-0.0064,-0.145,-1.6,0,0.7,0.005,0.006,-0.002,0
2018,5,11,13,55,29.171,0.9783,-0.1476,-0.0064,-0.1448,-1.6,0.1,0.4,0.007,0.013,-0.003,0
2018,5,11,13,55,29.191,0.9782,-0.1479,-0.0063,-0.1449,-1.7,0,0.4,0.008,0.01,-0.004,0
2018,5,11,13,55,29.229,0.9782,-0.1482,-0.0063,-0.1449,-1.7,0,0.4,0.005,0.009,-0.002,0
2018,5,11,13,55,29.248,0.9782,-0.1482,-0.0063,-0.1448,-1.6,0.3,0.3,0.004,0.012,-0.001,0
2018,5,11,13,55,29.252,0.9782,-0.1484,-0.0062,-0.1446,-2.3,0.2,0.2,0.005,0.01,-0.002,0
2018,5,11,13,55,29.291,0.9782,-0.1486,-0.0062,-0.1444,-2.3,0,0.3,0.007,0.007,0.001,0
2018,5,11,13,55,29.311,0.9782,-0.1488,-0.0061,-0.1442,-1.5,0,0.7,0.005,0,-0.005,1023
2018,5,11,13,55,29.315,0.9782,-0.1489,-0.0061,-0.1442,-0.4,0,0.7,0.007,0.007,-0.006,1023
2018,5,11,13,55,29.356,0.9782,-0.1488,-0.0061,-0.1441,-0.6,0.1,0.8,0.007,0.014,0,1023
2018,5,11,13,55,29.375,0.9782,-0.1489,-0.006,-0.1442,-1.4,0,0.6,0.007,0.009,-0.002,1023
2018,5,11,13,55,29.379,0.9782,-0.1489,-0.006,-0.144,-1.3,-0.1,0.7,0.006,0.004,-0.002,1023
2018,5,11,13,55,29.394,0.9782,-0.1492,-0.0059,-0.1442,-0.6,-0.1,0.8,0.005,0.006,0,1023
2018,5,11,13,55,29.413,0.9781,-0.1492,-0.0058,-0.1443,-0.9,-0.1,1,0.005,0.013,-0.001,1023
2018,5,11,13,55,29.434,0.9781,-0.1494,-0.0058,-0.1443,-0.9,0,0.8,0.007,0.012,0.002,1023
2018,5,11,13,55,29.455,0.9781,-0.1494,-0.0058,-0.1443,-1,0,0.8,0.008,0.011,-0.004,1023
2018,5,11,13,55,29.475,0.9781,-0.1494,-0.0057,-0.1442,-0.7,0,0.7,0.006,0.003,-0.006,1023
2018,5,11,13,55,29.513,0.9781,-0.1493,-0.0057,-0.1442,-0.6,0.1,0.9,0.006,0.011,0.001,1023
2018,5,11,13,55,29.533,0.9781,-0.1493,-0.0057,-0.1442,-0.8,0.1,0.8,0.006,0.012,0,1023
2018,5,11,13,55,29.537,0.9781,-0.1494,-0.0056,-0.1443,-1.2,-0.1,0.7,0.01,0.007,0.003,1023
2018,5,11,13,55,29.575,0.9781,-0.1496,-0.0056,-0.1444,-1.2,0,0.6,0.005,0.015,0,0
2018,5,11,13,55,29.594,0.9781,-0.1496,-0.0055,-0.1443,-1.7,0,0.7,0.006,0.013,-0.002,0
2018,5,11,13,55,29.599,0.978,-0.1499,-0.0054,-0.1443,-1.8,-0.1,0.7,0.007,0.009,-0.003,0
2018,5,11,13,55,29.619,0.978,-0.1501,-0.0054,-0.1443,-1.8,0,0.6,0.007,0.009,0,0
2018,5,11,13,55,29.64,0.978,-0.1503,-0.0053,-0.1444,-1.3,0,0.7,0.008,0.004,-0.006,0
2018,5,11,13,55,29.656,0.9779,-0.1505,-0.0052,-0.1444,-1,0,0.6,0.006,0.012,0,0
2018,5,11,13,55,29.675,0.9779,-0.1506,-0.0051,-0.1445,-1.1,0,0.7,0.01,0.008,-0.003,0
2018,5,11,13,55,29.712,0.9779,-0.1508,-0.0051,-0.1445,-0.9,0,0.9,0.009,0.004,0,0
2018,5,11,13,55,29.731,0.9778,-0.1509,-0.005,-0.1446,-0.3,0,1,0.006,0.007,0,0
2018,5,11,13,55,29.734,0.9778,-0.1508,-0.005,-0.1448,-0.1,0,1,0.006,0.013,0.004,0
2018,5,11,13,55,29.772,0.9778,-0.1507,-0.005,-0.1448,-0.4,0,0.9,0.006,0.011,-0.001,0
2018,5,11,13,55,29.793,0.9778,-0.1507,-0.0049,-0.1449,-0.5,0,1,0.008,0.007,-0.006,0
2018,5,11,13,55,29.798,0.9778,-0.1507,-0.0049,-0.1449,-0.4,0,1.1,0.006,0.004,-0.002,0
2018,5,11,13,55,29.835,0.9778,-0.1506,-0.0049,-0.1449,-0.1,0.1,0.8,0.007,0.014,-0.002,0
2018,5,11,13,55,29.853,0.9779,-0.1504,-0.0049,-0.1448,-0.4,0,0.8,0.007,0.008,-0.001,0
2018,5,11,13,55,29.859,0.9779,-0.1504,-0.0049,-0.1448,-0.2,0.1,1,0.009,0.005,0.003,0
2018,5,11,13,55,29.876,0.9779,-0.1504,-0.0049,-0.145,0,0,1.1,0.006,0.011,-0.002,0
2018,5,11,13,55,29.912,0.9778,-0.1503,-0.0049,-0.1452,-0.2,0,1.1,0.005,0.014,0,0
2018,5,11,13,55,29.931,0.9778,-0.1503,-0.0049,-0.1452,-0.7,0.1,1.1,0.003,0.01,0,0
2018,5,11,13,55,29.936,0.9778,-0.1503,-0.005,-0.1453,-0.2,0.2,1,0.004,0.011,-0.009,0
2018,5,11,13,55,29.955,0.9778,-0.1503,-0.005,-0.1454,-0.4,0.2,0.8,0.005,0.015,0.002,0
2018,5,11,13,55,29.978,0.9779,-0.1502,-0.005,-0.1453,-1.5,0.3,0.7,0.004,0.015,-0.002,1023
2018,5,11,13,55,30.017,0.9779,-0.1502,-0.005,-0.1451,-1.8,0.3,0.7,0.007,0.016,0.001,1023
2018,5,11,13,55,30.036,0.9778,-0.1506,-0.005,-0.1452,-2,0.3,0.3,0.008,0.013,0,1023
2018,5,11,13,55,30.039,0.9777,-0.151,-0.0049,-0.1453,-2.6,0.1,0.5,0.008,0,-0.004,1023
2018,5,11,13,55,30.076,0.9776,-0.1515,-0.0048,-0.1454,-1.1,0.1,0.9,0.005,-0.003,-0.005,1023
2018,5,11,13,55,30.097,0.9776,-0.1516,-0.0048,-0.1455,0.4,0.1,1,0.006,0,-0.005,1023
2018,5,11,13,55,30.102,0.9776,-0.1513,-0.0049,-0.1455,0,0.2,1,0.002,0.016,0.002,1023
2018,5,11,13,55,30.142,0.9777,-0.1513,-0.0049,-0.1454,-0.6,0.1,1,0.008,0.006,-0.003,1023
2018,5,11,13,55,30.146,0.9776,-0.1513,-0.0049,-0.1455,0.4,0,1,0.007,0.007,0,1023
2018,5,11,13,55,30.161,0.9777,-0.1511,-0.0049,-0.1456,0.4,0.2,1.2,0.009,0.014,0,1023
2018,5,11,13,55,30.181,0.9777,-0.1508,-0.005,-0.1455,0.2,0.1,1.2,0.006,0.004,0,1023
2018,5,11,13,55,30.202,0.9777,-0.1508,-0.005,-0.1458,0.6,0.5,1.2,0.007,0.013,0.001,1023
2018,5,11,13,55,30.222,0.9777,-0.1506,-0.0051,-0.1459,-0.1,0.1,1.1,0.006,0.018,0.002,1023
2018,5,11,13,55,30.241,0.9777,-0.1506,-0.0051,-0.1461,-0.9,0.3,0.7,0.008,0.01,0.002,0
2018,5,11,13,55,30.262,0.9776,-0.1508,-0.0051,-0.1461,-0.6,0,0.8,0.006,0.007,-0.001,0
2018,5,11,13,55,30.298,0.9776,-0.1507,-0.005,-0.1461,0,0.1,0.9,0.009,0.008,0,0
2018,5,11,13,55,30.318,0.9776,-0.1507,-0.0051,-0.1462,-0.5,0.1,0.8,0.005,0.017,-0.002,0
2018,5,11,13,55,30.322,0.9776,-0.1508,-0.0051,-0.1463,-1,0.1,0.7,0.007,0.01,0,0
2018,5,11,13,55,30.342,0.9775,-0.151,-0.005,-0.1465,-1,0.1,0.7,0.006,0.002,0,0
2018,5,11,13,55,30.364,0.9775,-0.1511,-0.005,-0.1465,-0.4,0,1,0.007,0.004,0.002,0
2018,5,11,13,55,30.38,0.9775,-0.151,-0.005,-0.1465,-0.1,0,1.1,0.009,0.007,-0.007,0
2018,5,11,13,55,30.401,0.9775,-0.151,-0.005,-0.1466,0.4,0,1.3,0.007,0.001,-0.002,0
2018,5,11,13,55,30.441,0.9776,-0.1507,-0.0051,-0.1467,1.1,0.2,1.3,0.004,0.013,0.003,0
2018,5,11,13,55,30.445,0.9776,-0.1504,-0.0051,-0.1468,0.2,0.1,1,0.004,0.019,0,0
2018,5,11,13,55,30.464,0.9776,-0.1503,-0.0052,-0.1468,-0.5,0,0.9,0.006,0.011,0.003,0
2018,5,11,13,55,30.483,0.9776,-0.1503,-0.0051,-0.1469,-0.1,0.2,1,0.01,0.003,-0.001,0
2018,5,11,13,55,30.504,0.9776,-0.1503,-0.0051,-0.147,0.6,0.3,1.1,0.004,0.009,-0.003,0
2018,5,11,13,55,30.524,0.9776,-0.15,-0.0052,-0.147,0.4,0.2,1.1,0.006,0.01,0,0
2018,5,11,13,55,30.546,0.9776,-0.1499,-0.0052,-0.147,0.1,0.3,0.9,0.006,0.01,0.003,0
2018,5,11,13,55,30.565,0.9777,-0.1498,-0.0052,-0.147,0.2,0.3,1.1,0.007,0.007,-0.003,0
2018,5,11,13,55,30.585,0.9777,-0.1495,-0.0053,-0.147,0.1,0,1,0.008,0.017,-0.002,0
2018,5,11,13,55,30.604,0.9777,-0.1493,-0.0053,-0.1469,-0.7,0.1,0.9,0.008,0.013,0,0
2018,5,11,13,55,30.622,0.9777,-0.1494,-0.0053,-0.147,-0.8,0.1,0.8,0.011,0.01,0,0
2018,5,11,13,55,30.656,0.9777,-0.1494,-0.0053,-0.147,-0.2,0,0.9,0.006,0.002,-0.004,0
2018,5,11,13,55,30.678,0.9777,-0.1494,-0.0053,-0.147,0.2,0,1,0.007,0.01,-0.003,0
2018,5,11,13,55,30.682,0.9777,-0.1492,-0.0053,-0.1471,-0.3,0,0.9,0.007,0.013,0,1023
2018,5,11,13,55,30.717,0.9778,-0.1491,-0.0053,-0.147,-0.9,0.1,0.8,0.011,0.01,-0.004,1023
2018,5,11,13,55,30.738,0.9777,-0.1492,-0.0053,-0.147,-0.9,0.1,0.8,0.008,0.008,-0.002,1023
2018,5,11,13,55,30.745,0.9777,-0.1494,-0.0052,-0.1472,-0.6,0,0.8,0.008,0.005,-0.001,1023
2018,5,11,13,55,30.764,0.9777,-0.1494,-0.0052,-0.1472,-0.2,0.1,1,0.007,0.007,0,1023
2018,5,11,13,55,30.785,0.9777,-0.1494,-0.0052,-0.1474,0,0.1,1,0.006,0.011,0.002,1023
2018,5,11,13,55,30.825,0.9776,-0.1494,-0.0052,-0.1475,-0.4,0.1,0.9,0.007,0.012,0,1023
2018,5,11,13,55,30.846,0.9776,-0.1493,-0.0053,-0.1475,-0.8,0.1,0.8,0.007,0.009,-0.001,1023
2018,5,11,13,55,30.85,0.9776,-0.1494,-0.0052,-0.1475,-0.3,0,0.9,0.004,0.005,-0.002,1023
2018,5,11,13,55,30.868,0.9776,-0.1493,-0.0052,-0.1475,0,0.1,1,0.008,0.009,-0.001,1023
2018,5,11,13,55,30.885,0.9777,-0.1492,-0.0052,-0.1476,-0.2,0.1,0.8,0.005,0.016,0.001,1023
2018,5,11,13,55,30.906,0.9777,-0.1491,-0.0053,-0.1476,-0.6,0,0.8,0.004,0.009,0,1023
2018,5,11,13,55,30.925,0.9776,-0.1492,-0.0053,-0.1477,-0.4,0.1,0.8,0.009,0.007,0.002,1023
2018,5,11,13,55,30.944,0.9776,-0.1492,-0.0053,-0.1479,-0.1,0.1,1,0.006,0.013,-0.001,1023
2018,5,11,13,55,30.983,0.9776,-0.1491,-0.0053,-0.1479,-0.7,0.1,0.7,0.006,0.014,0,0
2018,5,11,13,55,31.004,0.9776,-0.1492,-0.0053,-0.1479,-1.2,0,0.7,0.006,0.015,0,0
2018,5,11,13,55,31.031,0.9776,-0.1493,-0.0052,-0.1479,-1.1,0.1,0.8,0.005,0.002,0,0
2018,5,11,13,55,31.048,0.9776,-0.1494,-0.0052,-0.1479,-0.2,0,0.7,0.004,0.005,-0.004,0
2018,5,11,13,55,31.05,0.9776,-0.1492,-0.0052,-0.1478,-0.6,0.1,0.9,0.006,0.014,-0.004,0
2018,5,11,13,55,31.065,0.9776,-0.1492,-0.0052,-0.1478,-0.7,0,0.9,0.01,0.004,-0.002,0
2018,5,11,13,55,31.103,0.9776,-0.1491,-0.0052,-0.1477,0,0,1,0.004,0.004,0,0
2018,5,11,13,55,31.123,0.9777,-0.1487,-0.0053,-0.1475,0.4,0.1,1,0.007,0.014,0.005,0
2018,5,11,13,55,31.125,0.9778,-0.1486,-0.0053,-0.1475,-0.4,0.2,0.8,0.004,0.011,-0.002,0
2018,5,11,13,55,31.146,0.9778,-0.1483,-0.0053,-0.1473,-0.1,0,1,0.005,0.003,-0.003,0
2018,5,11,13,55,31.164,0.9778,-0.1482,-0.0054,-0.1474,0.2,0.1,0.9,0.008,0.014,-0.001,0
2018,5,11,13,55,31.203,0.9778,-0.1482,-0.0054,-0.1475,-0.1,0,0.9,0.006,0.012,-0.001,0
2018,5,11,13,55,31.222,0.9778,-0.1481,-0.0054,-0.1475,-0.4,0.1,0.7,0.009,0.009,-0.005,0
2018,5,11,13,55,31.226,0.9778,-0.1481,-0.0054,-0.1475,-0.1,0.1,0.9,0.013,0.007,-0.008,0
2018,5,11,13,55,31.263,0.9779,-0.1479,-0.0054,-0.1474,0,0,0.9,0.008,0.012,-0.002,0
2018,5,11,13,55,31.285,0.9778,-0.1479,-0.0054,-0.1476,-0.6,0,0.8,0.007,0.018,0,0
2018,5,11,13,55,31.289,0.9778,-0.1481,-0.0054,-0.1478,-1.3,0,0.8,0.007,0.009,0,0
2018,5,11,13,55,31.329,0.9778,-0.1482,-0.0054,-0.1478,-1,0.1,0.7,0.004,0.004,0.002,0
2018,5,11,13,55,31.348,0.9778,-0.1483,-0.0053,-0.1477,-0.7,0.1,0.7,0.007,0.011,0.001,0
2018,5,11,13,55,31.353,0.9778,-0.1483,-0.0053,-0.1477,-1.1,0,0.7,0.007,0.012,0.001,0
2018,5,11,13,55,31.369,0.9778,-0.1483,-0.0053,-0.1476,-0.9,0.1,0.8,0.007,0.002,-0.004,0
2018,5,11,13,55,31.388,0.9778,-0.1484,-0.0053,-0.1477,0.2,0.1,1.1,0.007,0.007,-0.004,0
2018,5,11,13,55,31.424,0.9778,-0.1481,-0.0054,-0.1477,0.1,0,1.1,0.004,0.016,-0.001,0
2018,5,11,13,55,31.444,0.9777,-0.1482,-0.0054,-0.1479,-0.7,0,0.8,0.005,0.013,-0.003,1023
2018,5,11,13,55,31.448,0.9777,-0.1483,-0.0053,-0.1479,-0.9,0,0.8,0.006,0.003,-0.003,1023
2018,5,11,13,55,31.488,0.9778,-0.1483,-0.0053,-0.1478,0,0.1,1,0.007,0.005,-0.004,1023
2018,5,11,13,55,31.508,0.9778,-0.1481,-0.0054,-0.1479,-0.1,0.1,0.9,0.004,0.014,-0.001,1023
2018,5,11,13,55,31.512,0.9778,-0.148,-0.0054,-0.1478,-0.4,0.1,0.8,0.01,0.009,-0.004,1023
2018,5,11,13,55,31.531,0.9778,-0.148,-0.0054,-0.1478,-0.7,0,0.8,0.008,0.005,-0.004,1023
2018,5,11,13,55,31.551,0.9779,-0.1479,-0.0054,-0.1476,-0.4,0,0.9,0.007,0.009,-0.003,1023
2018,5,11,13,55,31.573,0.9778,-0.1478,-0.0053,-0.1477,-0.7,0,0.9,0.007,0.011,0,1023
2018,5,11,13,55,31.592,0.9779,-0.1478,-0.0054,-0.1477,-0.4,0.1,0.7,0.005,0.014,0,1023
2018,5,11,13,55,31.631,0.9779,-0.1478,-0.0054,-0.1476,-0.6,0.1,0.6,0.003,0.007,-0.003,1023
2018,5,11,13,55,31.635,0.9778,-0.148,-0.0054,-0.1479,-0.2,0,0.8,0.005,0.004,0.001,1023
2018,5,11,13,55,31.651,0.9778,-0.148,-0.0054,-0.148,-0.3,0,0.9,0.004,0.007,0.001,1023
2018,5,11,13,55,31.67,0.9778,-0.1479,-0.0054,-0.1479,-0.6,0.1,0.7,0.004,0.014,0.003,1023
2018,5,11,13,55,31.691,0.9778,-0.148,-0.0054,-0.148,-1.1,0.2,0.7,0.004,0.009,0.001,1023
2018,5,11,13,55,31.713,0.9777,-0.1482,-0.0054,-0.1482,-0.9,0,1,0.007,0.006,0,0
2018,5,11,13,55,31.731,0.9777,-0.1482,-0.0054,-0.1482,-0.4,0,0.8,0.006,0.006,-0.003,0
2018,5,11,13,55,31.77,0.9778,-0.148,-0.0054,-0.148,-0.4,0.1,1,0.009,0.008,0.002,0
2018,5,11,13,55,31.789,0.9777,-0.148,-0.0054,-0.1482,-0.2,0.1,0.8,0.004,0.008,0,0
2018,5,11,13,55,31.793,0.9778,-0.1479,-0.0053,-0.148,-0.2,0,0.8,0.005,0.01,-0.001,0
2018,5,11,13,55,31.814,0.9778,-0.1477,-0.0054,-0.1479,-0.4,0,0.8,0.009,0.009,0,0
2018,5,11,13,55,31.833,0.9778,-0.1477,-0.0053,-0.1479,-0.4,-0.1,0.9,0.007,0.01,0.002,0
2018,5,11,13,55,31.871,0.9778,-0.1478,-0.0053,-0.148,-0.4,0,1,0.007,0.011,-0.003,0
2018,5,11,13,55,31.875,0.9778,-0.1479,-0.0053,-0.1481,-0.6,0,0.7,0.004,0.013,-0.005,0
2018,5,11,13,55,31.893,0.9777,-0.1479,-0.0053,-0.1483,-0.6,0,0.7,0.005,0.007,0,0
2018,5,11,13,55,31.913,0.9777,-0.148,-0.0053,-0.1484,-0.5,0.1,0.7,0.007,0.01,0,0
2018,5,11,13,55,31.932,0.9777,-0.1481,-0.0053,-0.1485,-0.6,0.1,0.8,0.007,0.012,0,0
2018,5,11,13,55,31.969,0.9777,-0.1482,-0.0053,-0.1485,-0.9,0.1,0.8,0.008,0.01,0,0
2018,5,11,13,55,31.987,0.9776,-0.1483,-0.0052,-0.1486,-1,0,0.6,0.003,0.009,0,0
2018,5,11,13,55,31.995,0.9776,-0.1484,-0.0052,-0.1486,-1,0,0.8,0.007,0.008,-0.006,0
2018,5,11,13,55,32.032,0.9776,-0.1485,-0.0052,-0.1487,-0.4,0,0.9,0.009,0.006,-0.004,0
2018,5,11,13,55,32.051,0.9776,-0.1484,-0.0052,-0.1487,-0.3,0.1,0.9,0.006,0.012,-0.001,0
2018,5,11,13,55,32.055,0.9776,-0.1485,-0.0052,-0.1488,-1,0.1,0.7,0.007,0.012,-0.002,0
2018,5,11,13,55,32.073,0.9776,-0.1485,-0.0052,-0.1488,-0.9,0,0.8,0.004,0.01,0.004,0
2018,5,11,13,55,32.111,0.9776,-0.1485,-0.0051,-0.1487,-0.5,0,0.9,0.004,0.004,0.002,0
2018,5,11,13,55,32.13,0.9776,-0.1485,-0.0052,-0.1488,-0.6,0.1,0.9,0.003,0.01,-0.002,1023
2018,5,11,13,55,32.135,0.9776,-0.1485,-0.0052,-0.1488,-0.7,0.2,0.8,0.004,0.011,0.002,1023
2018,5,11,13,55,32.154,0.9776,-0.1485,-0.0052,-0.1488,-1.2,0.3,0.8,0.008,0.009,0,1023
2018,5,11,13,55,32.174,0.9775,-0.1487,-0.0052,-0.149,-0.7,0.2,0.8,0.005,0.006,0.002,1023
2018,5,11,13,55,32.214,0.9775,-0.1488,-0.0052,-0.1491,-0.4,0,1,0.004,0.006,-0.001,1023
2018,5,11,13,55,32.218,0.9775,-0.1488,-0.0051,-0.1491,-0.4,0,1,0.004,0.011,0,1023
2018,5,11,13,55,32.236,0.9775,-0.1486,-0.0052,-0.1491,-0.4,0,0.9,0.003,0.01,-0.003,1023
2018,5,11,13,55,32.276,0.9776,-0.1485,-0.0052,-0.1489,-1,0,0.7,0.006,0.012,0.001,1023
2018,5,11,13,55,32.295,0.9775,-0.1486,-0.0051,-0.1489,-0.4,-0.1,0.8,0.006,0.002,-0.006,1023
2018,5,11,13,55,32.299,0.9775,-0.1487,-0.0051,-0.1492,0.1,0.1,1.2,0.009,0.007,-0.003,1023
2018,5,11,13,55,32.336,0.9775,-0.1487,-0.0051,-0.1494,-0.1,0.1,0.9,0.006,0.018,0,1023
2018,5,11,13,55,32.358,0.9775,-0.1486,-0.0052,-0.1494,-0.5,0.2,0.7,0.005,0.006,-0.005,1023
2018,5,11,13,55,32.363,0.9775,-0.1486,-0.0051,-0.1494,-0.2,0.1,1,0.009,0.002,-0.004,1023
2018,5,11,13,55,32.375,0.9775,-0.1485,-0.0051,-0.1494,0.5,0.1,1.1,0.007,0.01,0,0
2018,5,11,13,55,32.413,0.9775,-0.1482,-0.0052,-0.1493,-0.1,0.1,1,0.005,0.016,0.002,0
2018,5,11,13,55,32.433,0.9776,-0.148,-0.0052,-0.1491,-1.1,0,0.8,0.006,0.013,-0.005,0
2018,5,11,13,55,32.437,0.9776,-0.1481,-0.0052,-0.1492,-0.9,0,0.7,0.008,0.005,0,0
2018,5,11,13,55,32.474,0.9775,-0.1482,-0.0052,-0.1492,-0.2,0.3,0.9,0.005,0.01,-0.001,0
2018,5,11,13,55,32.495,0.9775,-0.1482,-0.0052,-0.1494,-0.6,0.1,0.8,0.007,0.012,-0.002,0
2018,5,11,13,55,32.499,0.9775,-0.1483,-0.0052,-0.1495,-0.6,0,0.8,0.005,0.009,-0.001,0
2018,5,11,13,55,32.538,0.9775,-0.1482,-0.0052,-0.1493,-0.5,0.1,0.8,0.007,0.005,-0.002,0
2018,5,11,13,55,32.542,0.9776,-0.1481,-0.0052,-0.1492,-0.1,0.1,0.8,0.005,0.009,0.001,0
2018,5,11,13,55,32.556,0.9776,-0.148,-0.0052,-0.1491,-0.7,0.1,0.8,0.008,0.011,-0.006,0
2018,5,11,13,55,32.597,0.9776,-0.148,-0.0052,-0.1491,-0.7,0.1,0.8,0.004,0.006,-0.004,0
2018,5,11,13,55,32.601,0.9776,-0.148,-0.0052,-0.149,-0.2,0,0.8,0.007,0.004,-0.003,0
2018,5,11,13,55,32.617,0.9777,-0.1478,-0.0052,-0.1489,0,0,0.9,0.004,0.012,0.002,0
2018,5,11,13,55,32.655,0.9777,-0.1475,-0.0052,-0.1487,-0.3,0.2,1,0.005,0.011,-0.002,0
2018,5,11,13,55,32.673,0.9778,-0.1474,-0.0052,-0.1486,0.1,0,1,0.005,-0.002,-0.005,0
2018,5,11,13,55,32.675,0.9778,-0.1472,-0.0053,-0.1485,1.3,0,1.6,0.004,-0.001,-0.004,0
2018,5,11,13,55,32.713,0.9779,-0.1467,-0.0053,-0.1485,2.4,0,1.7,0.003,0.009,0,0
2018,5,11,13,55,32.733,0.978,-0.146,-0.0055,-0.1485,1.8,0.1,1.4,0.004,0.022,0,0
2018,5,11,13,55,32.738,0.9781,-0.1456,-0.0055,-0.1485,1,0,1.3,0.008,0.016,-0.005,0
2018,5,11,13,55,32.776,0.9781,-0.1453,-0.0056,-0.1486,0.3,0.1,1.1,0.004,0.015,-0.005,0
2018,5,11,13,55,32.794,0.9781,-0.1452,-0.0056,-0.1487,-0.7,0,0.7,0.005,0.022,0,0
