time_1,time_2,time_3,time_4,time_5,time_6,w,x,y,z,droll,dpitch,dyaw,ax,ay,az,heart
2018,5,1,18,45,8.495,0.0715,-0.782,0.6082,-0.1155,-0.2,-0.4,-0.5,0.001,-0.002,0.001,1023
2018,5,1,18,45,8.498,0.0713,-0.7821,0.608,-0.1156,0,0,0,-0.002,0.006,0,1023
2018,5,1,18,45,8.514,0.0714,-0.7823,0.6078,-0.1156,0,0,0,-0.004,0.001,0.003,1023
2018,5,1,18,45,8.535,0.0715,-0.7825,0.6075,-0.1155,0,0,0,-0.001,0,0,0
2018,5,1,18,45,8.571,0.0715,-0.7826,0.6073,-0.1156,0,0,0,-0.004,-0.003,0.005,0
2018,5,1,18,45,8.59,0.0718,-0.7828,0.6071,-0.1155,0,0,0,0.001,-0.004,0,0
2018,5,1,18,45,8.592,0.0718,-0.783,0.6069,-0.1156,0,0,0,0.001,-0.006,0.002,0
2018,5,1,18,45,8.63,0.072,-0.7831,0.6067,-0.1156,0.4,-0.5,-0.3,0.006,-0.002,0.001,0
2018,5,1,18,45,8.651,0.0718,-0.7831,0.6066,-0.1158,0.4,-0.5,-0.6,0.004,0.001,0.001,0
2018,5,1,18,45,8.653,0.0717,-0.7832,0.6065,-0.116,0.4,-0.6,-0.7,0.005,0.001,0,0
2018,5,1,18,45,8.674,0.0715,-0.7832,0.6064,-0.1161,0.3,-0.4,-0.5,0.005,0.003,0,0
2018,5,1,18,45,8.693,0.0715,-0.7834,0.6062,-0.1161,0,0,0,0.004,0.003,0,0
2018,5,1,18,45,8.731,0.0715,-0.7835,0.6061,-0.1161,0,0,0,-0.001,-0.001,-0.004,0
2018,5,1,18,45,8.751,0.0713,-0.7836,0.6059,-0.1163,0.3,-0.7,-0.3,-0.001,-0.001,0.001,0
2018,5,1,18,45,8.755,0.0714,-0.7838,0.6057,-0.1165,0.2,-0.7,-0.3,-0.002,-0.005,0.002,0
2018,5,1,18,45,8.777,0.0716,-0.7839,0.6055,-0.1165,0.2,-0.1,-0.6,0,-0.005,0.001,0
2018,5,1,18,45,8.797,0.0716,-0.7839,0.6054,-0.1166,0.4,0,-0.9,0,-0.003,0,0
2018,5,1,18,45,8.835,0.0717,-0.784,0.6054,-0.1167,0.2,0,-1,-0.002,0.003,-0.003,0
2018,5,1,18,45,8.854,0.0717,-0.7841,0.6053,-0.1166,-0.4,0.3,-0.6,-0.006,0.007,-0.005,0
2018,5,1,18,45,8.858,0.0714,-0.7842,0.6051,-0.1166,0,0,0,-0.005,0.003,0.002,0
2018,5,1,18,45,8.875,0.0712,-0.7844,0.6048,-0.1167,-0.2,0,1.3,0,0.002,-0.001,0
2018,5,1,18,45,8.894,0.0713,-0.7847,0.6044,-0.1166,0,0.1,1.3,0.001,-0.003,-0.001,0
2018,5,1,18,45,8.918,0.0712,-0.785,0.6041,-0.1166,-0.2,0.3,0.8,0.006,-0.002,0,0
2018,5,1,18,45,8.937,0.071,-0.7852,0.6039,-0.1167,-0.7,0.4,0.1,0.007,-0.007,0.001,0
2018,5,1,18,45,8.957,0.071,-0.7853,0.6038,-0.1167,0,0,0,0.006,-0.002,0.004,0
2018,5,1,18,45,8.978,0.071,-0.7854,0.6036,-0.1167,0,0,0,0.004,-0.005,0.009,0
2018,5,1,18,45,9.016,0.0709,-0.7855,0.6035,-0.1168,-0.1,-0.6,-0.5,-0.002,0.003,0.012,0
2018,5,1,18,45,9.02,0.0708,-0.7856,0.6034,-0.1169,-0.3,-0.5,-0.6,-0.002,-0.004,0.006,0
2018,5,1,18,45,9.038,0.0706,-0.7856,0.6033,-0.117,0,-0.3,-0.6,-0.005,0.001,0.002,0
2018,5,1,18,45,9.078,0.0707,-0.7857,0.6031,-0.117,0,-0.1,-0.6,-0.001,0,0,0
2018,5,1,18,45,9.082,0.0708,-0.7859,0.603,-0.117,0,0,0,-0.004,0.008,0,1023
2018,5,1,18,45,9.098,0.071,-0.786,0.6027,-0.1169,0,0,0,-0.004,0.001,-0.003,1023
2018,5,1,18,45,9.135,0.0708,-0.7862,0.6026,-0.117,0,0,0,-0.002,0,-0.002,1023
2018,5,1,18,45,9.154,0.0711,-0.7864,0.6023,-0.1169,0.1,0.6,0,0,-0.001,0,1023
2018,5,1,18,45,9.158,0.0711,-0.7865,0.6021,-0.1168,0,0.6,0.5,0,0.007,0,1023
2018,5,1,18,45,9.195,0.0712,-0.7868,0.6018,-0.1167,-0.1,0.5,0.7,0.001,0,0,1023
2018,5,1,18,45,9.214,0.0714,-0.7871,0.6014,-0.1165,-0.1,0.3,1.1,0.006,0.004,0.003,1023
2018,5,1,18,45,9.219,0.0715,-0.7873,0.6011,-0.1165,0.1,0,0.7,0.006,-0.001,0.002,1023
2018,5,1,18,45,9.257,0.0716,-0.7875,0.6008,-0.1165,0,0,0,0.003,-0.008,0.004,1023
2018,5,1,18,45,9.277,0.0718,-0.7877,0.6005,-0.1164,0,0,0,0.001,-0.005,0.001,1023
2018,5,1,18,45,9.281,0.0719,-0.7878,0.6003,-0.1165,0,0,0,0.001,-0.006,0.004,1023
2018,5,1,18,45,9.301,0.0719,-0.788,0.6002,-0.1165,0,0,0,0.001,0,0,1023
2018,5,1,18,45,9.32,0.0721,-0.7881,0.6,-0.1164,-0.3,-0.2,-0.7,0.003,0.001,0.002,1023
2018,5,1,18,45,9.34,0.0719,-0.7882,0.5999,-0.1165,0,0,0,0.001,0.004,0.002,1023
2018,5,1,18,45,9.381,0.0717,-0.7883,0.5997,-0.1165,0,0,0,-0.001,0.004,-0.001,1023
2018,5,1,18,45,9.401,0.0715,-0.7885,0.5995,-0.1166,0,0,0.7,-0.007,0.003,0.001,1023
2018,5,1,18,45,9.405,0.0714,-0.7887,0.5992,-0.1167,0.1,0.1,0.7,-0.003,0,0.001,1023
2018,5,1,18,45,9.419,0.0714,-0.7889,0.5989,-0.1167,-0.3,0.2,0.8,-0.002,-0.003,-0.001,1023
2018,5,1,18,45,9.457,0.0712,-0.7892,0.5986,-0.1167,-0.7,0.1,0.7,-0.003,-0.003,0,1023
2018,5,1,18,45,9.478,0.0711,-0.7894,0.5983,-0.1166,-0.6,-0.3,0.7,-0.004,0.001,0.01,1023
2018,5,1,18,45,9.482,0.0708,-0.7896,0.5981,-0.1168,0.4,-0.3,1.3,0.004,0.001,0.002,0
2018,5,1,18,45,9.502,0.0705,-0.7899,0.5978,-0.1169,-0.7,0.2,0.9,0.007,0.006,0.002,0
2018,5,1,18,45,9.522,0.0704,-0.7901,0.5975,-0.1168,-0.2,0.4,0.7,0.005,-0.006,0,0
2018,5,1,18,45,9.542,0.0707,-0.7903,0.5971,-0.1168,0.6,0.1,0.7,0.005,-0.006,-0.007,0
2018,5,1,18,45,9.564,0.0709,-0.7905,0.5969,-0.1168,0,0,0,0.001,-0.007,-0.003,0
2018,5,1,18,45,9.585,0.0712,-0.7907,0.5966,-0.1167,-0.4,-0.6,0,-0.002,-0.008,0.004,0
2018,5,1,18,45,9.604,0.0712,-0.7908,0.5965,-0.1168,-0.3,-0.5,-0.3,0,-0.008,0.003,0
2018,5,1,18,45,9.623,0.0712,-0.7908,0.5964,-0.1169,-0.3,-0.1,-0.9,0,-0.006,0.003,0
2018,5,1,18,45,9.639,0.0714,-0.7909,0.5963,-0.1169,0,-0.1,-0.7,-0.002,-0.002,0.001,0
2018,5,1,18,45,9.678,0.0712,-0.7909,0.5963,-0.117,-0.1,-0.3,-0.9,-0.003,0.004,0.002,0
2018,5,1,18,45,9.7,0.0712,-0.791,0.5962,-0.117,-0.2,-0.3,-0.9,-0.003,0.006,0.004,0
2018,5,1,18,45,9.704,0.0711,-0.791,0.5962,-0.1169,-0.2,-0.1,-0.5,-0.002,0.014,0,0
2018,5,1,18,45,9.722,0.0709,-0.7912,0.596,-0.1169,0,0,0,-0.003,0.004,-0.003,0
2018,5,1,18,45,9.742,0.0707,-0.7914,0.5957,-0.1168,-0.4,0.5,1.1,-0.007,0.009,-0.004,0
2018,5,1,18,45,9.764,0.0708,-0.7918,0.5953,-0.1166,-0.4,0.7,1.8,0,-0.007,0,0
2018,5,1,18,45,9.787,0.071,-0.7922,0.5947,-0.1165,-0.4,0.3,1.9,0,-0.006,0.003,0
2018,5,1,18,45,9.806,0.0709,-0.7924,0.5944,-0.1165,-0.4,0.2,0.8,0.005,-0.008,0.006,0
2018,5,1,18,45,9.843,0.0712,-0.7926,0.5941,-0.1164,-0.5,0.1,0.2,0.008,-0.004,0.007,0
2018,5,1,18,45,9.863,0.0713,-0.7928,0.5939,-0.1163,0,0,0,0.009,-0.002,0.002,0
2018,5,1,18,45,9.867,0.0713,-0.7929,0.5937,-0.1163,0,0,0,0.006,-0.002,0.005,0
2018,5,1,18,45,9.883,0.0716,-0.7931,0.5935,-0.1162,0.1,-0.3,-0.5,0.003,-0.001,0.002,0
2018,5,1,18,45,9.92,0.0717,-0.7931,0.5934,-0.1163,-0.2,-0.7,-0.9,-0.001,-0.003,0.004,0
2018,5,1,18,45,9.941,0.0718,-0.7931,0.5934,-0.1164,-0.4,-1,-1.2,-0.003,-0.004,0.004,0
2018,5,1,18,45,9.945,0.0714,-0.7931,0.5934,-0.1166,0.1,-0.9,-0.9,-0.002,-0.001,0.004,0
2018,5,1,18,45,9.984,0.0711,-0.7931,0.5933,-0.1169,0.3,-0.7,-0.4,-0.001,0.009,-0.001,0
2018,5,1,18,45,9.988,0.0709,-0.7933,0.5932,-0.117,0,0,0,0,0.007,-0.003,0
2018,5,1,18,45,10.004,0.0706,-0.7934,0.593,-0.117,0,0,0,-0.001,0.004,-0.005,0
2018,5,1,18,45,10.042,0.0705,-0.7935,0.5929,-0.117,0,0,0,0,0.01,-0.005,1023
2018,5,1,18,45,10.062,0.0708,-0.7937,0.5926,-0.1169,-0.1,0.3,0.5,0,0.007,0,1023
2018,5,1,18,45,10.067,0.0709,-0.794,0.5923,-0.1168,0.1,0.2,1,0.004,-0.001,0,1023
2018,5,1,18,45,10.087,0.0709,-0.7942,0.5919,-0.1167,-0.1,0.5,1.1,0.004,-0.003,0,1023
2018,5,1,18,45,10.104,0.071,-0.7945,0.5916,-0.1166,0,0.3,0.8,0.002,-0.001,0.005,1023
2018,5,1,18,45,10.143,0.0713,-0.7947,0.5913,-0.1165,0,0,0,0.005,-0.008,0.002,1023
2018,5,1,18,45,10.162,0.0713,-0.7948,0.5911,-0.1166,0,0,0,0.005,-0.005,0.006,1023
2018,5,1,18,45,10.167,0.0715,-0.795,0.5909,-0.1166,0,0,0,0.001,-0.007,0.001,1023
2018,5,1,18,45,10.186,0.0715,-0.7951,0.5907,-0.1167,0.1,-0.5,-0.5,0,-0.007,0.001,1023
2018,5,1,18,45,10.206,0.0715,-0.7951,0.5907,-0.1168,0.2,-0.5,-0.9,0.003,-0.003,0,1023
2018,5,1,18,45,10.227,0.0714,-0.7951,0.5906,-0.117,-0.1,-0.5,-1.1,-0.001,-0.001,0.007,1023
2018,5,1,18,45,10.248,0.0714,-0.7951,0.5906,-0.117,0,-0.6,-0.8,0,0.005,0.001,1023
2018,5,1,18,45,10.268,0.071,-0.7952,0.5905,-0.1172,0,-0.4,-0.5,-0.003,0.005,-0.002,1023
2018,5,1,18,45,10.288,0.0708,-0.7953,0.5904,-0.1173,0,0,0,-0.006,0.005,-0.005,1023
2018,5,1,18,45,10.309,0.0708,-0.7955,0.5902,-0.1173,0,0,0,-0.004,0.002,0,1023
2018,5,1,18,45,10.345,0.0709,-0.7956,0.59,-0.1172,0,0,0,-0.004,0,-0.002,1023
2018,5,1,18,45,10.364,0.071,-0.7958,0.5898,-0.1172,0,0,0,0,0.003,0.002,1023
2018,5,1,18,45,10.369,0.0711,-0.7959,0.5895,-0.1171,0,0,0,0,0.001,0.004,1023
2018,5,1,18,45,10.409,0.0712,-0.7961,0.5893,-0.1171,0,0,0,0.002,0,0.001,1023
2018,5,1,18,45,10.429,0.0712,-0.7963,0.5891,-0.117,0,0,0,0.001,0.002,0.002,0
2018,5,1,18,45,10.434,0.0712,-0.7964,0.5889,-0.1171,0,0.1,0.5,0.003,0.003,0.003,0
2018,5,1,18,45,10.445,0.0712,-0.7966,0.5887,-0.117,-0.2,0,0.5,0.004,0.002,0.003,0
2018,5,1,18,45,10.485,0.0709,-0.7967,0.5885,-0.1171,-0.2,-0.1,0.5,0.004,-0.002,0,0
2018,5,1,18,45,10.506,0.071,-0.7969,0.5883,-0.1171,0,-0.3,0.5,0.002,0.003,0.004,0
2018,5,1,18,45,10.511,0.0708,-0.7971,0.588,-0.1171,-0.7,-0.1,0.4,-0.002,-0.015,-0.004,0
2018,5,1,18,45,10.53,0.0707,-0.7972,0.5879,-0.1173,0,0,0,-0.002,-0.005,-0.004,0
2018,5,1,18,45,10.566,0.0707,-0.7973,0.5877,-0.1173,0,0,0,-0.001,-0.006,0.002,0
2018,5,1,18,45,10.586,0.0706,-0.7974,0.5875,-0.1174,0,0,0,-0.001,-0.003,0.002,0
2018,5,1,18,45,10.59,0.0709,-0.7976,0.5873,-0.1174,0,0,0,0,-0.004,-0.001,0
2018,5,1,18,45,10.612,0.0709,-0.7977,0.5872,-0.1173,-0.4,-0.1,-0.5,0,0.003,0.004,0
2018,5,1,18,45,10.631,0.071,-0.7977,0.5871,-0.1173,0,0,-0.9,0,0.006,0.004,0
2018,5,1,18,45,10.65,0.0709,-0.7978,0.587,-0.1172,-0.1,0.3,-0.5,-0.001,0.008,-0.001,0
2018,5,1,18,45,10.668,0.0709,-0.7979,0.5868,-0.1172,0,0,0,-0.002,0.007,0,0
2018,5,1,18,45,10.707,0.0707,-0.7982,0.5866,-0.1171,-0.3,0.4,1.2,0,0.003,-0.003,0
2018,5,1,18,45,10.727,0.0705,-0.7985,0.5862,-0.1171,-0.2,0.3,1.7,0.002,-0.003,-0.005,0
2018,5,1,18,45,10.732,0.0704,-0.7987,0.5858,-0.1172,0.1,0,1.2,0.005,-0.01,0.001,0
2018,5,1,18,45,10.75,0.0704,-0.7989,0.5856,-0.1173,0,0,0,0.01,-0.007,0.003,0
2018,5,1,18,45,10.769,0.0704,-0.799,0.5854,-0.1173,0,0,0,0.008,-0.004,0,0
2018,5,1,18,45,10.792,0.0704,-0.7991,0.5853,-0.1173,0,0.1,-0.6,0.005,-0.003,0.002,0
2018,5,1,18,45,10.812,0.0705,-0.7992,0.5852,-0.1172,-0.1,-0.3,-0.8,0.001,0.001,0.002,0
2018,5,1,18,45,10.834,0.0704,-0.7992,0.5852,-0.1173,-0.6,-0.6,-0.9,-0.004,0,0.006,0
2018,5,1,18,45,10.849,0.0701,-0.7992,0.5852,-0.1174,-0.4,-0.8,-1.1,-0.002,-0.005,0.003,0
2018,5,1,18,45,10.869,0.0703,-0.7992,0.5851,-0.1175,-0.2,-0.9,-1.3,-0.008,-0.004,0.004,0
2018,5,1,18,45,10.89,0.0702,-0.7992,0.5851,-0.1176,-0.1,-0.9,-1.3,-0.002,-0.005,-0.002,0
2018,5,1,18,45,10.91,0.0702,-0.7992,0.5851,-0.1177,-0.4,-0.7,-1.6,0.001,-0.006,0,0
2018,5,1,18,45,10.93,0.0699,-0.7991,0.5853,-0.1178,-1.2,-0.6,-1.9,-0.001,-0.005,0,0
2018,5,1,18,45,10.967,0.0698,-0.799,0.5854,-0.1178,-1.3,-0.6,-2.5,0,-0.007,0.001,0
2018,5,1,18,45,10.989,0.0697,-0.7988,0.5856,-0.1177,-0.7,-0.7,-2.3,0.001,0.002,-0.006,1023
2018,5,1,18,45,10.993,0.0696,-0.7987,0.5858,-0.1177,-0.6,-0.7,-2.2,0.005,0.006,0.001,1023
2018,5,1,18,45,11.014,0.0694,-0.7987,0.5859,-0.1176,-1.5,-0.7,-1.8,0.005,0.012,0,1023
2018,5,1,18,45,11.052,0.0692,-0.7987,0.586,-0.1174,-0.9,-0.6,-1.2,0.007,0.023,0.001,1023
2018,5,1,18,45,11.07,0.069,-0.7987,0.586,-0.1172,-0.2,-0.7,-0.6,0.004,0.011,-0.003,1023
2018,5,1,18,45,11.073,0.069,-0.7989,0.5858,-0.1171,0,-0.8,0.1,0.004,0.013,0,1023
2018,5,1,18,45,11.092,0.0687,-0.7991,0.5855,-0.1172,0,-0.1,1,0.002,0.028,0.001,1023
2018,5,1,18,45,11.11,0.0686,-0.7994,0.5851,-0.117,0.3,0.3,1.9,0,0.001,-0.003,1023
2018,5,1,18,45,11.132,0.0686,-0.7998,0.5847,-0.1171,0.3,0.1,2.1,0,0.001,0,1023
2018,5,1,18,45,11.17,0.0688,-0.8001,0.5841,-0.1171,0.2,0,1.9,0,-0.009,0.001,1023
2018,5,1,18,45,11.189,0.069,-0.8004,0.5837,-0.1172,0.3,0.1,1.4,-0.003,-0.015,0,1023
2018,5,1,18,45,11.193,0.0693,-0.8006,0.5833,-0.1173,0,0,0,-0.003,-0.02,0,1023
2018,5,1,18,45,11.232,0.0695,-0.8007,0.5831,-0.1174,0,0,0,-0.006,-0.011,0.005,1023
2018,5,1,18,45,11.251,0.0695,-0.8008,0.583,-0.1175,-0.6,0,-0.6,-0.007,-0.011,0.005,1023
2018,5,1,18,45,11.255,0.0694,-0.8009,0.5829,-0.1176,-0.6,-0.1,-0.5,0,0.004,0.003,1023
2018,5,1,18,45,11.276,0.0693,-0.801,0.5828,-0.1175,0,0,0,-0.001,0.011,0.002,1023
2018,5,1,18,45,11.295,0.069,-0.8011,0.5826,-0.1175,-0.1,-0.4,0.5,0.003,0.013,0.001,1023
2018,5,1,18,45,11.335,0.0688,-0.8014,0.5823,-0.1175,-0.2,-0.4,1.1,0,0.015,0.005,1023
2018,5,1,18,45,11.339,0.0688,-0.8017,0.5819,-0.1175,0.1,-0.4,1.6,0.002,0.006,-0.004,1023
2018,5,1,18,45,11.356,0.0688,-0.802,0.5815,-0.1175,0,0,1.5,0.007,0.001,-0.002,0
2018,5,1,18,45,11.394,0.0689,-0.8022,0.5812,-0.1174,-0.3,0.2,1.1,0.004,-0.006,0,0
2018,5,1,18,45,11.398,0.069,-0.8025,0.5808,-0.1173,-0.7,0.1,0.6,0.003,-0.005,0.003,0
2018,5,1,18,45,11.415,0.0693,-0.8026,0.5806,-0.1172,-0.5,0,0.2,0.002,-0.007,0,0
2018,5,1,18,45,11.452,0.0695,-0.8028,0.5804,-0.1172,0,0,0,0,-0.005,0.002,0
2018,5,1,18,45,11.472,0.0694,-0.8029,0.5802,-0.1172,0,0,0,0,0,0.009,0
2018,5,1,18,45,11.476,0.0697,-0.8031,0.5799,-0.1172,0,0,0,-0.001,-0.003,0.003,0
2018,5,1,18,45,11.497,0.0697,-0.8032,0.5798,-0.1172,0,0,0,-0.001,0,0.001,0
2018,5,1,18,45,11.516,0.0698,-0.8034,0.5795,-0.1172,0,0,0,-0.004,-0.002,0.006,0
2018,5,1,18,45,11.537,0.0699,-0.8035,0.5794,-0.1172,0,0,0,0,0.004,0,0
2018,5,1,18,45,11.558,0.0697,-0.8036,0.5792,-0.1173,0,0,0,-0.001,0.004,0,0
2018,5,1,18,45,11.578,0.0697,-0.8038,0.579,-0.1172,0,0,0,0.005,0.006,-0.006,0
2018,5,1,18,45,11.597,0.0697,-0.8039,0.5788,-0.1171,-0.2,0.4,0.5,0,0.006,-0.008,0
2018,5,1,18,45,11.615,0.0697,-0.8042,0.5785,-0.1169,-0.4,0.9,1.1,-0.003,0.007,-0.003,0
2018,5,1,18,45,11.653,0.0694,-0.8045,0.5781,-0.1167,-0.9,1.2,1.8,0,-0.006,0.004,0
2018,5,1,18,45,11.673,0.0692,-0.8049,0.5776,-0.1167,-0.4,0.5,2.5,-0.001,0.002,-0.007,0
2018,5,1,18,45,11.678,0.0693,-0.8053,0.577,-0.1165,-0.4,0.3,2.6,0.006,-0.008,-0.005,0
2018,5,1,18,45,11.698,0.0696,-0.8057,0.5765,-0.1163,-0.7,0.6,1.9,0.007,-0.011,-0.004,0
2018,5,1,18,45,11.718,0.0696,-0.806,0.5761,-0.1163,-0.4,0.4,0.8,0.008,-0.009,0.003,0
2018,5,1,18,45,11.739,0.0699,-0.8061,0.5759,-0.1162,0,0,0,0.007,-0.008,0.008,0
2018,5,1,18,45,11.759,0.0699,-0.8062,0.5757,-0.1162,-0.3,0.1,-0.6,0.006,-0.002,0.01,0
2018,5,1,18,45,11.779,0.0701,-0.8063,0.5756,-0.1161,-0.5,-0.4,-0.7,-0.001,-0.004,0.009,0
2018,5,1,18,45,11.8,0.0699,-0.8063,0.5756,-0.1162,-0.1,-0.9,-0.8,-0.003,0.004,0.012,0
2018,5,1,18,45,11.82,0.0699,-0.8064,0.5755,-0.1163,0.1,-1.1,-0.8,-0.001,0.004,0.002,0
2018,5,1,18,45,11.837,0.0697,-0.8064,0.5754,-0.1165,-0.1,-0.9,-0.5,-0.001,0.002,-0.003,0
2018,5,1,18,45,11.857,0.0695,-0.8065,0.5753,-0.1167,0.2,-0.6,-0.1,0.001,0.005,-0.002,1023
2018,5,1,18,45,11.876,0.0693,-0.8066,0.5751,-0.1168,0.3,-0.7,0,-0.001,0.003,-0.009,1023
2018,5,1,18,45,11.914,0.0694,-0.8068,0.5749,-0.1167,0,0,0,-0.001,0.009,-0.003,1023
2018,5,1,18,45,11.934,0.0692,-0.8069,0.5747,-0.1166,-0.6,0.1,0.6,0.001,0.011,0,1023
2018,5,1,18,45,11.936,0.0691,-0.8072,0.5744,-0.1165,-0.2,0.3,1.2,0,0.008,0.005,1023
2018,5,1,18,45,11.976,0.069,-0.8075,0.574,-0.1165,0,0.4,1.9,0.003,0.013,0.003,1023
2018,5,1,18,45,11.997,0.0691,-0.8078,0.5735,-0.1165,0,0.3,2.1,-0.002,-0.006,-0.005,1023
2018,5,1,18,45,12.001,0.0691,-0.8081,0.5731,-0.1165,-0.4,0.1,1.5,0,-0.008,0,1023
2018,5,1,18,45,12.021,0.069,-0.8084,0.5728,-0.1165,-0.4,-0.1,0.7,0.003,-0.009,0.002,1023
2018,5,1,18,45,12.041,0.0691,-0.8085,0.5725,-0.1166,-0.2,-0.5,0.1,0.001,-0.008,0.007,1023
2018,5,1,18,45,12.061,0.0692,-0.8086,0.5723,-0.1167,0.6,-0.3,0.1,0.004,-0.006,-0.005,1023
2018,5,1,18,45,12.101,0.0691,-0.8087,0.5722,-0.1168,-0.6,0.1,-0.8,0.001,-0.01,0.005,1023
2018,5,1,18,45,12.122,0.0693,-0.8087,0.5722,-0.1168,-0.1,-0.1,-1.3,0,-0.005,0.006,1023
2018,5,1,18,45,12.126,0.0693,-0.8086,0.5723,-0.117,0.4,-0.7,-1.8,0,-0.011,0.004,1023
2018,5,1,18,45,12.138,0.0693,-0.8085,0.5723,-0.1172,0.2,-1.2,-1.9,-0.004,0.004,0.012,1023
2018,5,1,18,45,12.159,0.0691,-0.8084,0.5725,-0.1176,0.3,-2,-2,-0.004,0.001,0.018,1023
2018,5,1,18,45,12.181,0.0692,-0.8083,0.5725,-0.1179,0.4,-2.3,-1.7,-0.004,0.006,0.006,1023
2018,5,1,18,45,12.2,0.069,-0.8082,0.5726,-0.1182,0.4,-2.1,-1.7,-0.004,0.003,-0.005,0
2018,5,1,18,45,12.221,0.0687,-0.8082,0.5727,-0.1186,0.5,-1.6,-1.4,-0.002,0.003,-0.01,0
2018,5,1,18,45,12.259,0.0686,-0.8081,0.5727,-0.1187,0.4,-1,-1,0,0.003,-0.013,0
2018,5,1,18,45,12.28,0.0686,-0.8082,0.5726,-0.1188,0.1,-0.4,-0.6,0,0.006,-0.011,0
2018,5,1,18,45,12.284,0.0687,-0.8083,0.5724,-0.1187,0,0,0,0.004,0.004,-0.01,0
2018,5,1,18,45,12.303,0.0686,-0.8085,0.5722,-0.1186,0,0.6,0,0.005,0.007,-0.003,0
2018,5,1,18,45,12.325,0.069,-0.8087,0.5719,-0.1183,0.1,0.8,0.4,0.001,0.003,0,0
2018,5,1,18,45,12.345,0.0691,-0.8089,0.5717,-0.1182,0,0,0,0.002,0.003,0,0
2018,5,1,18,45,12.365,0.0691,-0.8091,0.5714,-0.1181,-0.1,0.3,0.7,0.001,0,0.007,0
2018,5,1,18,45,12.381,0.0691,-0.8093,0.5711,-0.1182,-0.1,0,0.8,-0.002,0.001,0.009,0
2018,5,1,18,45,12.417,0.0692,-0.8095,0.5708,-0.1182,0.1,-0.2,0.8,0,-0.003,0.001,0
2018,5,1,18,45,12.439,0.0693,-0.8097,0.5704,-0.1183,-0.1,-0.1,0.8,0,-0.004,0.002,0
2018,5,1,18,45,12.443,0.0692,-0.8099,0.5701,-0.1184,0,-0.3,0.7,-0.001,-0.003,0,0
2018,5,1,18,45,12.481,0.0692,-0.8101,0.5698,-0.1185,0.2,-0.7,0.5,0.001,-0.004,0.001,0
2018,5,1,18,45,12.502,0.069,-0.8103,0.5696,-0.1187,0,-1.1,0.4,0.004,-0.001,0.005,0
2018,5,1,18,45,12.506,0.0688,-0.8104,0.5695,-0.119,-0.1,-1.1,0.1,0.004,-0.001,-0.006,0
2018,5,1,18,45,12.542,0.0687,-0.8105,0.5693,-0.119,0,0,0,0.006,0,-0.004,0
2018,5,1,18,45,12.564,0.0689,-0.8106,0.5691,-0.1188,-0.7,0.1,-0.2,0.001,0.006,-0.005,0
2018,5,1,18,45,12.568,0.0687,-0.8108,0.569,-0.1186,-1.3,0.4,0.2,-0.003,0.011,-0.006,0
2018,5,1,18,45,12.581,0.0685,-0.811,0.5687,-0.1183,-1.7,0.2,1.1,-0.002,0.004,-0.005,0
2018,5,1,18,45,12.62,0.0683,-0.8113,0.5683,-0.1181,-2.2,-0.3,1.7,0.002,0.002,-0.013,0
2018,5,1,18,45,12.64,0.0681,-0.8117,0.5679,-0.1178,-2.4,0,2,0.005,-0.01,-0.01,0
2018,5,1,18,45,12.644,0.0678,-0.812,0.5675,-0.1176,-1.3,0.3,1.3,0.004,-0.002,0.002,0
2018,5,1,18,45,12.683,0.0677,-0.8122,0.5672,-0.1174,-1.3,0.7,0.7,0.007,-0.002,0.004,0
2018,5,1,18,45,12.703,0.0675,-0.8124,0.567,-0.1172,-1.8,0.6,0.4,0.004,-0.002,0.009,0
2018,5,1,18,45,12.707,0.0672,-0.8126,0.5668,-0.117,-1.8,0.1,0.1,0.001,-0.004,0.008,0
2018,5,1,18,45,12.724,0.067,-0.8127,0.5667,-0.1169,-1.6,-0.3,0,0.002,0,0.009,0
2018,5,1,18,45,12.746,0.0669,-0.8129,0.5665,-0.1169,-1.3,-1,-0.1,-0.003,-0.006,0.006,1023
2018,5,1,18,45,12.767,0.0665,-0.8129,0.5665,-0.1171,-1.5,-1.2,-0.9,-0.006,-0.009,0.009,1023
2018,5,1,18,45,12.804,0.0663,-0.8129,0.5665,-0.1172,-1,-1.2,-1.3,0,-0.011,0,1023
2018,5,1,18,45,12.825,0.0663,-0.8129,0.5665,-0.1173,-0.4,-1,-1.4,-0.001,-0.003,-0.002,1023
2018,5,1,18,45,12.829,0.0659,-0.8128,0.5666,-0.1175,-1,-1.2,-1.4,0.001,0,-0.003,1023
2018,5,1,18,45,12.846,0.0657,-0.8128,0.5667,-0.1174,-2.4,-1.1,-1.1,0.001,0.001,-0.008,1023
2018,5,1,18,45,12.864,0.0655,-0.8129,0.5666,-0.1172,-2.9,-1.4,-0.6,0.005,-0.002,-0.009,1023
2018,5,1,18,45,12.902,0.0649,-0.813,0.5666,-0.1171,-2.3,-1.2,0,0.006,-0.004,-0.006,1023
2018,5,1,18,45,12.923,0.0644,-0.8131,0.5665,-0.117,-3.3,-1.2,0.2,0.012,-0.002,0,1023
2018,5,1,18,45,12.927,0.0638,-0.8132,0.5664,-0.1168,-4.5,-1.8,-0.2,0.014,-0.023,0,1023
2018,5,1,18,45,12.948,0.0633,-0.8132,0.5665,-0.1167,-4.4,-3,-0.8,0.017,-0.021,-0.001,1023
2018,5,1,18,45,12.967,0.0627,-0.8131,0.5666,-0.1168,-4.5,-4.4,-1.9,0.019,-0.03,0.009,1023
2018,5,1,18,45,13.004,0.0621,-0.813,0.5669,-0.117,-5,-5.7,-2.8,0.026,-0.015,0.015,1023
2018,5,1,18,45,13.023,0.0609,-0.8126,0.5674,-0.1173,-5.2,-7.5,-4.1,0.008,-0.024,0.017,1023
2018,5,1,18,45,13.027,0.0598,-0.8122,0.5681,-0.1182,-4.3,-8.4,-5.1,0.005,-0.023,0.019,1023
2018,5,1,18,45,13.067,0.0587,-0.8115,0.569,-0.1191,-4.6,-9.1,-7.2,-0.001,-0.04,0.011,1023
2018,5,1,18,45,13.086,0.0573,-0.8105,0.5702,-0.1203,-4.3,-9.6,-9.4,0.005,-0.038,-0.003,1023
2018,5,1,18,45,13.091,0.0564,-0.8094,0.5716,-0.1213,-2.7,-9.8,-10.7,-0.011,-0.027,-0.011,0
2018,5,1,18,45,13.107,0.0554,-0.8082,0.5732,-0.1226,-1.8,-9.3,-11.2,-0.01,0.002,-0.025,0
2018,5,1,18,45,13.128,0.0542,-0.8071,0.5747,-0.1233,-3.9,-7.3,-11.8,-0.017,0.016,-0.021,0
2018,5,1,18,45,13.167,0.0531,-0.806,0.5763,-0.1233,-7,-4,-11.4,-0.009,0.02,-0.034,0
2018,5,1,18,45,13.188,0.0517,-0.8053,0.5776,-0.1225,-7.1,-0.1,-7.5,-0.029,0.046,-0.036,0
2018,5,1,18,45,13.192,0.0504,-0.805,0.5783,-0.1216,-5.8,2,-3.8,-0.044,0.05,-0.019,0
2018,5,1,18,45,13.208,0.0495,-0.8052,0.5784,-0.1208,-4.4,2.1,-0.2,-0.059,0.064,-0.008,0
2018,5,1,18,45,13.249,0.0479,-0.8056,0.5781,-0.12,-9.3,2.1,2,-0.068,0.058,0.002,0
2018,5,1,18,45,13.253,0.0463,-0.806,0.5778,-0.1192,-7.4,0.6,1.9,-0.03,0.006,-0.004,0
2018,5,1,18,45,13.269,0.0456,-0.8063,0.5775,-0.1188,-4,0,1.1,-0.001,-0.032,0.003,0
2018,5,1,18,45,13.306,0.0456,-0.8065,0.5773,-0.1186,-1.3,0.5,-0.8,0.017,-0.022,-0.004,0
2018,5,1,18,45,13.326,0.0457,-0.8064,0.5775,-0.1183,-2.1,2.1,-2.5,0.032,-0.011,0.004,0
2018,5,1,18,45,13.33,0.0456,-0.8063,0.5778,-0.1173,-3.5,2.9,-3.7,0.033,0.03,0.018,0
2018,5,1,18,45,13.347,0.0449,-0.8062,0.5783,-0.116,-6.7,2.7,-3.5,0.019,0.05,0,0
2018,5,1,18,45,13.385,0.0435,-0.8062,0.5787,-0.1144,-8.5,2,-2,0.021,0.052,-0.002,0
2018,5,1,18,45,13.404,0.0421,-0.8064,0.5788,-0.113,-5.9,1.1,0,0.03,0.064,-0.011,0
2018,5,1,18,45,13.409,0.0406,-0.8067,0.5788,-0.112,-6.7,1.6,0.4,0.01,0.034,0.004,0
2018,5,1,18,45,13.448,0.0395,-0.8069,0.5787,-0.111,-5.8,2.5,0.9,0.024,0.023,-0.007,0
2018,5,1,18,45,13.467,0.0387,-0.8072,0.5786,-0.11,-5.8,3.9,0.7,0.013,-0.019,-0.01,0
2018,5,1,18,45,13.471,0.0383,-0.8074,0.5784,-0.1091,-5.7,3.9,0.3,-0.008,-0.029,0.002,0
2018,5,1,18,45,13.492,0.0376,-0.8076,0.5783,-0.1084,-5.8,2.6,-0.4,-0.011,-0.022,0.025,0
2018,5,1,18,45,13.518,0.0375,-0.8076,0.5783,-0.1082,0.7,1.2,-1.2,0,-0.008,0.028,0
2018,5,1,18,45,13.535,0.0374,-0.8076,0.5784,-0.1081,-1.4,1,-2.2,0.004,0.014,0.062,0
2018,5,1,18,45,13.548,0.0375,-0.8074,0.5786,-0.1082,4.5,0.7,-2.7,0.018,0.018,0.069,0
2018,5,1,18,45,13.588,0.0387,-0.8072,0.5787,-0.1088,10.4,1.2,-2.6,0.019,0.02,0.086,0
2018,5,1,18,45,13.607,0.0404,-0.807,0.5787,-0.1101,15.6,1.1,-2.8,0.011,0.033,0.088,1023
2018,5,1,18,45,13.611,0.0421,-0.8067,0.5786,-0.1117,16.4,-0.3,-2.4,-0.01,0.026,0.077,1023
2018,5,1,18,45,13.63,0.0438,-0.8064,0.5785,-0.1141,17.3,-3.3,-2.3,-0.029,0.037,0.066,1023
2018,5,1,18,45,13.648,0.0448,-0.806,0.5784,-0.1169,15.6,-7,-2.4,-0.031,0.027,0.057,1023
2018,5,1,18,45,13.688,0.0453,-0.8056,0.5783,-0.1199,12.3,-8.7,-2,-0.022,0.015,-0.01,1023
2018,5,1,18,45,13.708,0.0454,-0.8052,0.5783,-0.1223,9.2,-6.5,-1.7,-0.014,-0.02,-0.054,1023
2018,5,1,18,45,13.712,0.0458,-0.8049,0.5782,-0.1245,9.8,-3.7,-0.4,-0.026,-0.045,-0.079,1023
2018,5,1,18,45,13.752,0.047,-0.8048,0.5778,-0.1264,12.2,-1.4,1.2,-0.035,-0.046,-0.111,1023
2018,5,1,18,45,13.772,0.0483,-0.805,0.5772,-0.128,12.4,1.9,2.6,-0.024,-0.025,-0.109,1023
2018,5,1,18,45,13.776,0.0497,-0.8053,0.5764,-0.1288,10,5,3.2,-0.01,0.012,-0.086,1023
2018,5,1,18,45,13.795,0.0508,-0.8058,0.5756,-0.1287,6.7,8.2,4,0.01,0.028,-0.061,1023
2018,5,1,18,45,13.815,0.0519,-0.8065,0.5747,-0.1278,4.7,10.7,5.2,0.021,0.021,-0.04,1023
2018,5,1,18,45,13.835,0.0531,-0.8074,0.5737,-0.1266,4,12.6,6.3,0.03,0.013,-0.022,1023
2018,5,1,18,45,13.854,0.0544,-0.8084,0.5725,-0.125,2.5,13.9,7.1,0.024,0,0.002,1023
2018,5,1,18,45,13.872,0.0558,-0.8094,0.5713,-0.1235,1.8,14,7.6,0.017,-0.016,0.015,1023
2018,5,1,18,45,13.893,0.057,-0.8105,0.5699,-0.1221,0.1,12,8.3,0.013,-0.029,0.024,1023
2018,5,1,18,45,13.914,0.0579,-0.8116,0.5685,-0.1209,-1.1,8.2,9,0.009,-0.038,0.025,1023
2018,5,1,18,45,13.952,0.0582,-0.8126,0.5671,-0.1205,-1.6,3.7,9.9,0.01,-0.054,0.021,0
2018,5,1,18,45,13.973,0.0583,-0.8136,0.5657,-0.1206,-2.1,-0.8,8.7,0.016,-0.067,0.016,0
2018,5,1,18,45,13.977,0.0582,-0.8143,0.5646,-0.121,-3.1,-4.3,6.8,0.023,-0.068,0.009,0
2018,5,1,18,45,13.996,0.0576,-0.8147,0.5639,-0.1217,-4.2,-6.2,4,0.029,-0.059,0.008,0
2018,5,1,18,45,14.017,0.0568,-0.8148,0.5637,-0.1223,-4.9,-6.3,0.6,0.037,-0.042,0.012,0
2018,5,1,18,45,14.034,0.0555,-0.8146,0.564,-0.1228,-5.1,-5.4,-2.3,0.028,-0.026,0.007,0
2018,5,1,18,45,14.055,0.0544,-0.8142,0.5646,-0.1231,-4.1,-4.6,-4.8,0.026,-0.004,0.005,0
2018,5,1,18,45,14.096,0.0534,-0.8136,0.5655,-0.1233,-3.8,-3.4,-6.3,0.009,0.003,0.004,0
2018,5,1,18,45,14.1,0.0524,-0.813,0.5665,-0.1233,-3.5,-2.9,-7.1,-0.008,0.027,0.001,0
2018,5,1,18,45,14.115,0.0513,-0.8124,0.5675,-0.1233,-3.4,-2.4,-7,-0.022,0.029,0.003,0
2018,5,1,18,45,14.134,0.05,-0.8118,0.5684,-0.1235,-2.9,-2.3,-5.8,-0.035,0.036,0,0
2018,5,1,18,45,14.152,0.0487,-0.8113,0.5691,-0.1237,-2.5,-1,-4.1,-0.04,0.032,-0.017,0
2018,5,1,18,45,14.192,0.0474,-0.8112,0.5695,-0.1238,-2.3,0.1,-1.4,-0.042,0.041,-0.017,0
2018,5,1,18,45,14.213,0.0464,-0.8113,0.5694,-0.1237,-2.1,1.5,1.2,-0.04,0.038,-0.014,0
2018,5,1,18,45,14.217,0.0457,-0.8117,0.5689,-0.1234,-1.7,2.6,3.8,-0.03,0.026,-0.002,0
2018,5,1,18,45,14.237,0.0451,-0.8123,0.5681,-0.1232,0,3.1,6,-0.022,0.024,-0.002,0
2018,5,1,18,45,14.257,0.0446,-0.8131,0.567,-0.123,-0.1,3.1,7.4,-0.004,0.015,0.003,0
2018,5,1,18,45,14.278,0.0444,-0.814,0.5659,-0.1226,-0.2,3.4,8.2,0.007,0.014,0.007,0
2018,5,1,18,45,14.299,0.0445,-0.815,0.5646,-0.1222,0.7,3.1,8.2,0.011,-0.006,0.008,0
2018,5,1,18,45,14.315,0.0447,-0.8158,0.5634,-0.1221,1.4,2.9,7.7,0.014,-0.012,0.008,0
2018,5,1,18,45,14.334,0.0449,-0.8166,0.5623,-0.122,1.1,2.5,6.6,0.018,-0.015,0.003,0
2018,5,1,18,45,14.356,0.0451,-0.8172,0.5614,-0.1219,0.7,1.8,5.8,0.017,-0.019,0.01,0
2018,5,1,18,45,14.375,0.0455,-0.8178,0.5605,-0.1218,1.1,1.3,4.9,0.019,-0.021,0.011,0
2018,5,1,18,45,14.415,0.0458,-0.8182,0.5599,-0.122,1.9,0.6,3.6,0.021,-0.018,0.012,0
2018,5,1,18,45,14.436,0.046,-0.8184,0.5594,-0.1223,2.2,-0.1,2,0.016,-0.011,0.015,0
2018,5,1,18,45,14.44,0.0465,-0.8186,0.5591,-0.1226,2.3,-0.9,0.8,0.01,-0.025,0.014,0
2018,5,1,18,45,14.458,0.0469,-0.8186,0.5589,-0.1231,2.6,-2.5,0,0.008,-0.012,-0.002,1023
2018,5,1,18,45,14.497,0.0468,-0.8185,0.5589,-0.1239,1.9,-3.2,-0.5,0.007,-0.003,-0.002,1023
2018,5,1,18,45,14.502,0.0464,-0.8184,0.559,-0.1246,0.8,-3,-0.6,0.005,0.007,-0.006,1023
2018,5,1,18,45,14.518,0.0458,-0.8183,0.559,-0.1251,0.6,-2.7,0.1,-0.001,0.018,-0.029,1023
2018,5,1,18,45,14.539,0.0452,-0.8184,0.5588,-0.1253,0.1,-0.9,1.9,0.001,0.028,-0.035,1023
2018,5,1,18,45,14.559,0.0447,-0.8188,0.5583,-0.1253,1,1.4,4.6,-0.002,0.037,-0.027,1023
2018,5,1,18,45,14.595,0.0445,-0.8195,0.5574,-0.1251,2.5,3.4,6.8,-0.015,0.037,-0.02,1023
2018,5,1,18,45,14.617,0.0444,-0.8204,0.5561,-0.1249,2.3,4.5,8.3,-0.005,0.025,-0.01,1023
2018,5,1,18,45,14.621,0.0444,-0.8213,0.5548,-0.1245,0.3,4.8,8.5,-0.01,0.002,0.012,1023
2018,5,1,18,45,14.636,0.0445,-0.8222,0.5535,-0.1243,1.4,4.3,7.8,-0.02,-0.028,0.02,1023
2018,5,1,18,45,14.676,0.045,-0.8229,0.5523,-0.1246,3,3.2,6.3,-0.019,-0.033,0.03,1023
2018,5,1,18,45,14.697,0.0456,-0.8235,0.5514,-0.125,2.4,2.1,4.6,-0.011,-0.039,0.028,1023
2018,5,1,18,45,14.701,0.0462,-0.8238,0.5507,-0.1254,1.4,0.7,3.2,-0.005,-0.03,0.025,1023
2018,5,1,18,45,14.721,0.0467,-0.8241,0.5502,-0.1258,1.5,-0.6,2.4,0.001,-0.028,0.02,1023
2018,5,1,18,45,14.74,0.0468,-0.8243,0.5498,-0.1264,2,-1.5,1.6,0.009,-0.007,0.021,1023
2018,5,1,18,45,14.778,0.0468,-0.8243,0.5496,-0.1269,1.8,-2.2,1.2,0.013,0.004,0.016,1023
2018,5,1,18,45,14.8,0.0466,-0.8244,0.5493,-0.1275,1.8,-2.8,1.3,0.016,0.021,0.011,1023
2018,5,1,18,45,14.804,0.0462,-0.8245,0.5491,-0.128,1.4,-3.2,1.9,0.012,0.019,0.006,1023
2018,5,1,18,45,14.822,0.0458,-0.8247,0.5487,-0.1287,2,-3.9,2.8,0,0.017,0.004,1023
2018,5,1,18,45,14.844,0.0454,-0.8249,0.5482,-0.1296,3.1,-4.5,3.6,0,-0.001,-0.004,1023
2018,5,1,18,45,14.864,0.0451,-0.8252,0.5476,-0.1306,1.7,-4,3.5,-0.002,-0.016,-0.014,1023
2018,5,1,18,45,14.903,0.0448,-0.8253,0.5471,-0.1315,1.5,-3.3,2.4,-0.002,-0.022,-0.017,1023
2018,5,1,18,45,14.907,0.0447,-0.8254,0.5469,-0.1323,1.4,-2.5,0.7,-0.003,-0.037,-0.027,0
2018,5,1,18,45,14.922,0.0447,-0.8254,0.5468,-0.1329,0.4,-1.8,-0.2,0,-0.02,-0.029,0
2018,5,1,18,45,14.941,0.0444,-0.8252,0.5469,-0.1331,-1,-0.6,-1.1,0.006,-0.005,-0.029,0
2018,5,1,18,45,14.962,0.0441,-0.8252,0.5471,-0.133,-1.3,0.4,-1.1,0.008,0.006,-0.018,0
2018,5,1,18,45,15,0.0438,-0.8251,0.5473,-0.1327,-1,1.2,-0.8,0.006,0.017,-0.01,0
2018,5,1,18,45,15.022,0.0435,-0.8251,0.5474,-0.1323,-0.8,1.7,0,0.004,0.02,0.004,0
2018,5,1,18,45,15.026,0.0432,-0.8253,0.5473,-0.1319,-0.8,1.6,0.9,-0.001,0.016,0.004,0
2018,5,1,18,45,15.061,0.0429,-0.8255,0.547,-0.1318,-0.8,0.8,1.9,-0.004,0.009,0.007,0
2018,5,1,18,45,15.082,0.0425,-0.8257,0.5467,-0.1317,-0.8,0.1,2,-0.007,-0.001,0.009,0
2018,5,1,18,45,15.086,0.0422,-0.8259,0.5464,-0.1319,-0.5,-0.1,1.8,-0.003,-0.01,0.015,1023
2018,5,1,18,45,15.105,0.042,-0.826,0.5461,-0.1322,-0.3,-0.6,1.3,-0.003,-0.012,0.013,1023
2018,5,1,18,45,15.126,0.0418,-0.8261,0.546,-0.1324,0,-0.6,0.4,-0.001,-0.011,0.007,1023
2018,5,1,18,45,15.142,0.0417,-0.8261,0.5459,-0.1327,0.1,-0.5,0,-0.002,-0.004,0.002,1023
2018,5,1,18,45,15.179,0.0415,-0.8261,0.5459,-0.1329,0.3,-0.9,-0.3,-0.002,0,-0.004,1023
2018,5,1,18,45,15.201,0.0412,-0.8261,0.546,-0.133,0,0,0,0.003,0.011,-0.005,1023
2018,5,1,18,45,15.203,0.0409,-0.8261,0.546,-0.1331,0,0,0,-0.002,0.008,-0.001,1023
2018,5,1,18,45,15.241,0.0409,-0.8262,0.5457,-0.133,-0.2,0,1.5,0.002,0.01,-0.007,0
2018,5,1,18,45,15.261,0.0406,-0.8264,0.5455,-0.1329,-0.2,0.6,2.1,0.003,0.002,-0.004,0
2018,5,1,18,45,15.265,0.0405,-0.8267,0.5451,-0.1328,0,0.6,2,0.002,-0.001,0,0
2018,5,1,18,45,15.301,0.0404,-0.8269,0.5448,-0.1327,-0.3,0.6,1.6,0.003,-0.002,0.001,0
2018,5,1,18,45,15.322,0.0402,-0.8271,0.5446,-0.1327,-1,0.3,1.3,0.008,0.004,0.002,0
2018,5,1,18,45,15.326,0.0399,-0.8272,0.5445,-0.1325,-1.2,0.3,1,0.006,-0.004,0,0
2018,5,1,18,45,15.345,0.0397,-0.8273,0.5443,-0.1325,-0.4,0,0.7,0.002,-0.008,0.002,0
2018,5,1,18,45,15.363,0.0396,-0.8273,0.5443,-0.1326,0,0,0,-0.001,-0.01,0.006,0
2018,5,1,18,45,15.382,0.0396,-0.8273,0.5443,-0.1327,0,0,0,-0.003,-0.01,0.008,0
2018,5,1,18,45,15.42,0.0394,-0.8272,0.5444,-0.1329,-0.9,-0.6,-1.2,0.004,-0.008,0,0
2018,5,1,18,45,15.442,0.0393,-0.827,0.5447,-0.1329,-1.2,-0.3,-2.1,0.008,-0.011,-0.003,0
2018,5,1,18,45,15.446,0.0391,-0.8268,0.545,-0.1328,-1,-0.1,-2.3,0.008,-0.007,-0.007,0
2018,5,1,18,45,15.485,0.039,-0.8266,0.5454,-0.1328,-1.1,-0.3,-2.7,0.003,0,-0.004,0
2018,5,1,18,45,15.489,0.0386,-0.8263,0.5458,-0.1326,-1.9,0,-2.8,0.009,0.002,-0.005,0
2018,5,1,18,45,15.505,0.0382,-0.8261,0.5463,-0.1323,-1.8,0.3,-2.5,0.004,0.01,-0.011,0
2018,5,1,18,45,15.543,0.0379,-0.8259,0.5466,-0.132,-1.2,0.7,-2,0.001,0.01,-0.006,0
2018,5,1,18,45,15.564,0.0377,-0.8258,0.5468,-0.1318,-0.6,1.2,-1.3,-0.003,0.015,0,0
2018,5,1,18,45,15.568,0.0375,-0.8258,0.5469,-0.1316,-0.5,0.9,-0.3,-0.005,0.01,0,0
2018,5,1,18,45,15.586,0.0373,-0.8259,0.5469,-0.1315,-0.7,0.6,0,-0.003,0.007,0.005,0
2018,5,1,18,45,15.604,0.0371,-0.8259,0.5469,-0.1314,-1,0.4,-0.2,-0.002,0,0.002,0
2018,5,1,18,45,15.624,0.0369,-0.8259,0.547,-0.1313,-0.6,0.3,-0.5,-0.002,-0.007,-0.002,0
2018,5,1,18,45,15.646,0.0368,-0.8258,0.5471,-0.1313,-0.5,0.3,-0.9,-0.002,-0.008,0.001,0
2018,5,1,18,45,15.666,0.0368,-0.8257,0.5472,-0.1314,-0.2,0.1,-0.9,-0.001,-0.007,0.003,0
2018,5,1,18,45,15.701,0.0367,-0.8256,0.5473,-0.1314,-0.6,-0.3,-1,0.002,-0.001,-0.003,0
2018,5,1,18,45,15.722,0.0364,-0.8255,0.5475,-0.1314,-1.8,-0.7,-1,0.002,-0.006,0.001,0
2018,5,1,18,45,15.726,0.0361,-0.8254,0.5477,-0.1315,-1.8,-1.4,-1.1,0.002,-0.004,0.004,0
2018,5,1,18,45,15.766,0.0357,-0.8252,0.548,-0.1315,-1.5,-1.3,-1.8,0.008,-0.014,-0.003,0
2018,5,1,18,45,15.786,0.0355,-0.825,0.5483,-0.1316,-1,-0.7,-2.7,0.004,-0.009,0,0
2018,5,1,18,45,15.791,0.0356,-0.8247,0.5488,-0.1316,-0.2,0.3,-3.6,0.002,-0.012,0.008,0
2018,5,1,18,45,15.807,0.0358,-0.8243,0.5493,-0.1318,1.4,0.3,-4.2,0.002,-0.005,0.024,0
2018,5,1,18,45,15.826,0.0362,-0.8239,0.5498,-0.1321,3.3,-0.7,-4.1,0,0.006,0.039,0
2018,5,1,18,45,15.846,0.0367,-0.8234,0.5503,-0.1329,4.8,-2.6,-3.7,0.004,0.009,0.055,0
2018,5,1,18,45,15.866,0.037,-0.8229,0.5507,-0.134,5.8,-5.1,-3.2,0.009,0.01,0.063,0
2018,5,1,18,45,15.905,0.0375,-0.8224,0.551,-0.1357,7,-8.1,-2.7,0.016,-0.014,0.061,0
2018,5,1,18,45,15.925,0.0382,-0.8219,0.5513,-0.138,9.2,-10.3,-2.3,0.04,-0.054,0.032,0
2018,5,1,18,45,15.929,0.0399,-0.8211,0.5516,-0.1407,13.6,-9.5,-3.8,0.056,-0.093,-0.005,0
2018,5,1,18,45,15.95,0.0416,-0.8203,0.552,-0.1431,16.2,-5.6,-5.8,0.087,-0.145,-0.044,0
2018,5,1,18,45,15.971,0.0444,-0.8194,0.5526,-0.1455,25.4,-0.7,-8.6,0.077,-0.182,-0.088,0
2018,5,1,18,45,16.007,0.0497,-0.8181,0.5533,-0.1481,39.6,7.5,-14.3,0.015,-0.183,-0.108,0
2018,5,1,18,45,16.011,0.059,-0.8162,0.5543,-0.1517,57.9,16.7,-19.2,-0.082,-0.153,-0.175,0
2018,5,1,18,45,16.027,0.0715,-0.8138,0.5554,-0.1549,74.5,37.3,-27.5,-0.136,0.008,-0.1,0
2018,5,1,18,45,16.047,0.0906,-0.8105,0.557,-0.1566,123.6,65.9,-41.9,-0.171,0.081,0.044,0
2018,5,1,18,45,16.085,0.1236,-0.8053,0.5568,-0.1615,210.8,83.5,-38.7,-0.273,0.349,0.296,0
2018,5,1,18,45,16.105,0.1653,-0.7985,0.5523,-0.1729,247.9,64.2,-26.6,-0.215,0.631,0.302,0
2018,5,1,18,45,16.11,0.2044,-0.7901,0.5456,-0.1897,230,24.4,-11,-0.047,0.736,0.142,0
2018,5,1,18,45,16.129,0.2269,-0.785,0.5389,-0.2042,72.2,-4.5,22.3,0.354,1.032,-0.069,1023
2018,5,1,18,45,16.148,0.2284,-0.7886,0.5311,-0.2091,18.8,1.7,70.1,-0.269,0.406,-0.434,1023
2018,5,1,18,45,16.187,0.2328,-0.795,0.517,-0.2154,75.4,18.4,104.4,-0.146,0.424,-0.446,1023
2018,5,1,18,45,16.208,0.2462,-0.8024,0.4941,-0.2262,142.1,43.2,139.7,-0.137,0.312,-0.307,1023
2018,5,1,18,45,16.212,0.2664,-0.8106,0.4637,-0.2382,155.4,64.6,165.7,-0.102,0.273,-0.01,1023
2018,5,1,18,45,16.251,0.2844,-0.8207,0.4292,-0.2475,128.2,78.4,185.5,-0.024,0.232,0.005,1023
2018,5,1,18,45,16.27,0.3011,-0.8316,0.3912,-0.2539,138.9,94.6,198.6,-0.099,0.226,0.095,1023
2018,5,1,18,45,16.274,0.3218,-0.8405,0.3491,-0.2606,176.2,99.4,204.6,-0.197,0.151,0.371,1023
2018,5,1,18,45,16.289,0.3457,-0.8453,0.3057,-0.2691,195.2,85.4,190.3,-0.291,-0.092,0.715,1023
2018,5,1,18,45,16.327,0.3711,-0.8446,0.2645,-0.2807,228.6,54.6,176.8,-0.309,-0.365,0.78,1023
2018,5,1,18,45,16.347,0.4019,-0.8366,0.2242,-0.2969,279.4,32,157.9,-0.166,-0.228,0.572,1023
2018,5,1,18,45,16.352,0.4361,-0.8223,0.1853,-0.3149,289.6,15.5,146.5,0.067,0.091,0.398,1023
2018,5,1,18,45,16.369,0.4699,-0.804,0.1471,-0.3331,302.6,10.7,140.8,0.279,0.239,0.331,1023
2018,5,1,18,45,16.409,0.5053,-0.7807,0.1088,-0.3508,333.7,4.6,132.6,0.334,0.31,0.204,1023
2018,5,1,18,45,16.429,0.5473,-0.7487,0.0672,-0.3678,406.6,10.2,128.2,0.353,0.495,-0.053,1023
2018,5,1,18,45,16.433,0.5925,-0.7086,0.0209,-0.3824,434.3,20.5,140.1,0.336,0.796,-0.064,1023
2018,5,1,18,45,16.453,0.6352,-0.6634,-0.0297,-0.3941,448,40.7,147,0.367,0.891,-0.009,1023
2018,5,1,18,45,16.473,0.6743,-0.6146,-0.084,-0.4004,437.8,74.8,149,0.228,1.14,-0.03,1023
2018,5,1,18,45,16.495,0.7044,-0.5689,-0.1398,-0.4005,384,111.6,147.7,0.086,1.148,-0.342,1023
2018,5,1,18,45,16.514,0.7231,-0.5301,-0.1941,-0.3979,306.4,130.4,164.9,0.323,1.256,-0.439,1023
2018,5,1,18,45,16.552,0.7284,-0.4986,-0.2485,-0.3987,234.6,165.7,217.6,0.864,1.485,-0.916,1023
2018,5,1,18,45,16.573,0.7162,-0.4783,-0.3081,-0.4039,127.7,255.2,270.8,1.261,1.187,-1.58,0
2018,5,1,18,45,16.577,0.6849,-0.4709,-0.3769,-0.4086,132,331.7,311.9,0.055,0.274,-2.908,0
2018,5,1,18,45,16.591,0.7076,-0.413,-0.4561,-0.3473,449.5,197.6,-308.9,-10.053,-0.947,11.046,0
2018,5,1,18,45,16.613,0.7233,-0.4079,-0.4402,-0.3413,-77.4,-271.2,4.9,-3.607,3.777,-1.522,0
2018,5,1,18,45,16.632,0.7458,-0.402,-0.4064,-0.3418,98.4,-153.6,-155.2,1.715,-0.692,2.104,0
2018,5,1,18,45,16.655,0.7675,-0.3933,-0.3848,-0.3287,46,-103.3,-124.7,-0.982,-0.129,0.362,0
2018,5,1,18,45,16.675,0.7809,-0.3931,-0.3666,-0.3179,-2.3,-85.5,-89.5,-0.083,-0.4,0.096,0
2018,5,1,18,45,16.713,0.7913,-0.3899,-0.351,-0.3139,28.2,-91.7,-46.8,-0.998,0.473,0.411,0
2018,5,1,18,45,16.732,0.7986,-0.3873,-0.3394,-0.3112,9.9,-46.3,-40.2,-0.505,0.135,0.422,0
2018,5,1,18,45,16.736,0.802,-0.3883,-0.3327,-0.3084,-2.1,-19.6,-25.5,0.385,-0.115,-0.306,0
2018,5,1,18,45,16.754,0.8032,-0.3846,-0.3303,-0.3125,8.5,-36.7,57.4,-0.047,-0.352,0.068,0
2018,5,1,18,45,16.775,0.8007,-0.3766,-0.3301,-0.3284,3.2,-50.2,115.6,0.01,-0.373,-0.013,0
2018,5,1,18,45,16.793,0.7963,-0.3643,-0.3323,-0.3502,-7.3,-52.4,153.8,-0.156,0.026,0.075,0
2018,5,1,18,45,16.812,0.7869,-0.3532,-0.3351,-0.379,-20.8,-43.5,201.8,0.029,-0.385,0.028,0
2018,5,1,18,45,16.833,0.7709,-0.3425,-0.3432,-0.4127,-28.4,-4.2,232.2,0.062,-0.144,0.109,0
2018,5,1,18,45,16.853,0.7526,-0.3316,-0.3602,-0.4401,21.4,71.9,209.3,0.164,0.913,-0.604,0
2018,5,1,18,45,16.873,0.7316,-0.3255,-0.3852,-0.4585,31.5,121.2,177.9,0.081,-0.447,0.786,0
2018,5,1,18,45,16.894,0.7135,-0.3161,-0.4182,-0.4646,116.4,154.3,139.1,0.151,0.262,0.22,0
2018,5,1,18,45,16.914,0.6971,-0.3025,-0.4556,-0.4635,117.3,137.6,149.5,-0.285,-0.217,-1.571,0
2018,5,1,18,45,16.951,0.6777,-0.2922,-0.4904,-0.4632,36.3,139.9,116.8,0.104,-0.607,0.209,1023
2018,5,1,18,45,16.973,0.6613,-0.2861,-0.5133,-0.466,53.1,80.6,103.5,-0.063,-0.104,0.022,1023
2018,5,1,18,45,16.977,0.6508,-0.2772,-0.5241,-0.474,-5.1,-5.6,109.5,-0.212,-0.076,0.576,1023
2018,5,1,18,45,16.998,0.6441,-0.2666,-0.5215,-0.4918,-44.5,-80.3,114,0.065,-0.216,0.664,1023
2018,5,1,18,45,17.018,0.6414,-0.2514,-0.5101,-0.5149,-58.6,-141.5,127.3,0.058,-0.258,0.73,1023
2018,5,1,18,45,17.054,0.6402,-0.2315,-0.4917,-0.5427,-59.4,-173.1,144.9,0.184,-0.219,0.282,1023
2018,5,1,18,45,17.074,0.6387,-0.2097,-0.4709,-0.5711,-85.2,-183.5,136.1,-0.048,-0.154,0.401,1023
2018,5,1,18,45,17.078,0.637,-0.1913,-0.444,-0.6002,-113.5,-195.3,123.8,-0.181,-0.029,0.375,1023
2018,5,1,18,45,17.113,0.6356,-0.1739,-0.4121,-0.6291,-115.2,-206.2,116.2,-0.208,0.139,0.157,1023
2018,5,1,18,45,17.135,0.6351,-0.1558,-0.3803,-0.6539,-114,-207.7,87.2,-0.246,0.04,-0.059,1023
2018,5,1,18,45,17.139,0.637,-0.1429,-0.3457,-0.6739,-121.2,-180.7,41,0.042,-0.151,-0.627,1023
2018,5,1,18,45,17.156,0.6425,-0.1321,-0.318,-0.6844,-42,-146.9,-9.1,0.14,-0.432,-0.693,1023
2018,5,1,18,45,17.194,0.6536,-0.1189,-0.3023,-0.6835,22.9,-113.2,-56.4,0.129,-0.186,-0.547,1023
2018,5,1,18,45,17.216,0.6682,-0.1068,-0.2935,-0.6751,41.3,-89.8,-87.9,0.057,0.006,-0.497,1023
2018,5,1,18,45,17.22,0.6847,-0.0966,-0.2877,-0.6625,54.1,-73.5,-104.7,-0.053,0.1,-0.445,1023
2018,5,1,18,45,17.239,0.7013,-0.087,-0.285,-0.6475,71.7,-59.7,-108.1,-0.19,0.201,-0.395,1023
2018,5,1,18,45,17.259,0.7165,-0.076,-0.2865,-0.6313,92.5,-44,-97.2,-0.265,0.313,-0.394,0
2018,5,1,18,45,17.28,0.7293,-0.0643,-0.2909,-0.6158,94.4,-33.7,-80.4,-0.263,0.416,-0.362,0
2018,5,1,18,45,17.301,0.7393,-0.0531,-0.2964,-0.6022,90.3,-23.2,-63.9,-0.2,0.432,-0.352,0
2018,5,1,18,45,17.337,0.7468,-0.0423,-0.3025,-0.5906,87.2,-16.5,-47.7,-0.12,0.422,-0.265,0
2018,5,1,18,45,17.342,0.7522,-0.0324,-0.3087,-0.5811,68.6,-11,-34.4,-0.103,0.5,-0.122,0
2018,5,1,18,45,17.358,0.7558,-0.0276,-0.3119,-0.5749,17.6,-3.5,-25.4,-0.028,0.524,-0.033,0
2018,5,1,18,45,17.378,0.7578,-0.0296,-0.3114,-0.5725,-23.3,5.1,-16.1,-0.041,0.481,-0.007,0
2018,5,1,18,45,17.398,0.7584,-0.0349,-0.3092,-0.5726,-29.2,6.2,-7.6,-0.06,0.328,-0.003,0
2018,5,1,18,45,17.436,0.7585,-0.0381,-0.3079,-0.5729,-10.7,2.5,-2.2,-0.061,0.272,0.06,0
2018,5,1,18,45,17.456,0.7585,-0.0395,-0.3071,-0.5733,-10.1,0.6,-1.2,-0.005,0.195,0.006,0
2018,5,1,18,45,17.46,0.7585,-0.0409,-0.3065,-0.5735,-10.8,2.4,-5,0.029,0.096,-0.066,0
2018,5,1,18,45,17.499,0.7585,-0.0425,-0.3065,-0.5734,-15.4,6.4,-7.3,0.074,0.07,-0.123,0
2018,5,1,18,45,17.52,0.7584,-0.0455,-0.3062,-0.5734,-21,8.9,-8.4,0.073,0.014,-0.111,0
2018,5,1,18,45,17.524,0.7588,-0.0497,-0.3051,-0.5731,-22.7,8.4,-11.5,0.059,-0.014,-0.042,0
2018,5,1,18,45,17.537,0.7594,-0.0549,-0.3024,-0.5733,-42.4,5.3,-13.3,0.089,0.018,0.004,0
2018,5,1,18,45,17.576,0.7603,-0.0624,-0.2966,-0.5744,-58.7,-0.3,-14.5,0.094,-0.027,0.032,0
2018,5,1,18,45,17.596,0.7617,-0.0704,-0.2889,-0.5755,-56.5,-9.5,-16.9,0.074,-0.056,0.059,0
2018,5,1,18,45,17.6,0.7661,-0.0819,-0.271,-0.5768,-58.8,-28.9,-18.8,0.013,0.075,0.107,0
2018,5,1,18,45,17.62,0.7687,-0.0871,-0.2599,-0.5777,-62.1,-37.7,-19.4,-0.025,0.054,0.091,0
2018,5,1,18,45,17.64,0.7714,-0.0923,-0.2478,-0.5787,-68.3,-41.9,-20.6,-0.02,0.081,0.019,0
2018,5,1,18,45,17.663,0.774,-0.0977,-0.2355,-0.5794,-65.3,-43.1,-22,-0.024,0.082,-0.039,0
2018,5,1,18,45,17.682,0.7767,-0.1021,-0.2241,-0.5795,-56.5,-42.5,-23.8,-0.041,0.101,-0.026,0
2018,5,1,18,45,17.703,0.7797,-0.1056,-0.2133,-0.579,-51.5,-43.5,-25.8,-0.04,0.075,0.012,1023
2018,5,1,18,45,17.724,0.783,-0.1089,-0.2021,-0.578,-51.9,-44.2,-28,-0.071,0.035,0.055,1023
2018,5,1,18,45,17.743,0.7862,-0.1129,-0.1902,-0.5768,-57.3,-44.3,-28.7,-0.005,0.002,0.027,1023
2018,5,1,18,45,17.779,0.7895,-0.1168,-0.178,-0.5755,-49.2,-44.9,-28.6,0.005,-0.007,-0.003,1023
2018,5,1,18,45,17.783,0.7929,-0.119,-0.1669,-0.5737,-33.9,-46.6,-28.9,0.002,-0.008,0,1023
2018,5,1,18,45,17.797,0.7965,-0.1194,-0.1566,-0.5716,-29.9,-47.1,-28.4,0.003,-0.006,0.02,1023
2018,5,1,18,45,17.833,0.7998,-0.1197,-0.1465,-0.5696,-29,-45.1,-25.2,-0.001,-0.023,0.013,1023
2018,5,1,18,45,17.853,0.8026,-0.1203,-0.1368,-0.5678,-29.8,-42.4,-22.7,-0.011,-0.012,0.005,1023
2018,5,1,18,45,17.859,0.8051,-0.1211,-0.1276,-0.5663,-30.1,-39.8,-20.7,-0.007,0.014,-0.006,1023
2018,5,1,18,45,17.897,0.8068,-0.1224,-0.1185,-0.5656,-44,-38.1,-13.3,0.006,0.082,0.027,1023
2018,5,1,18,45,17.917,0.8075,-0.1243,-0.1091,-0.5661,-34.3,-35.3,-2.5,0.025,0.012,0.003,1023
2018,5,1,18,45,17.921,0.8073,-0.1244,-0.1017,-0.5677,-23.2,-32.3,3.8,0.018,-0.008,0.011,1023
2018,5,1,18,45,17.957,0.8071,-0.1242,-0.0951,-0.5691,-14.2,-27.4,3.3,0.04,-0.089,-0.002,1023
2018,5,1,18,45,17.976,0.8072,-0.1239,-0.0898,-0.57,-6,-22.8,1,0.025,-0.13,-0.001,1023
2018,5,1,18,45,17.983,0.8075,-0.1237,-0.0857,-0.5702,-7,-15.6,-2.8,0.001,-0.125,-0.015,1023
2018,5,1,18,45,18.022,0.8079,-0.1229,-0.0835,-0.5701,6.7,-10.1,-0.8,0.013,0.022,0.013,1023
2018,5,1,18,45,18.043,0.8082,-0.1207,-0.0832,-0.5702,8.1,-6.6,0.4,0.011,0.02,0.004,1023
2018,5,1,18,45,18.047,0.8084,-0.119,-0.0834,-0.5702,10.2,-2.3,0.7,0.016,-0.002,0,0
2018,5,1,18,45,18.066,0.8086,-0.1172,-0.0845,-0.5702,13.9,2.3,1.3,0.02,0.009,0.009,0
2018,5,1,18,45,18.086,0.8087,-0.1152,-0.0867,-0.5701,16.2,6.6,2.4,0.015,0.026,0.011,0
2018,5,1,18,45,18.105,0.8086,-0.1134,-0.0896,-0.5702,17.7,9.7,4.2,0.01,0.002,0.005,0
2018,5,1,18,45,18.123,0.8084,-0.1116,-0.0932,-0.5703,23.1,11.6,4.3,0.004,-0.004,-0.006,0
2018,5,1,18,45,18.146,0.8082,-0.1091,-0.0975,-0.5703,25.9,12.1,4.6,0,0.018,-0.002,0
2018,5,1,18,45,18.164,0.808,-0.1066,-0.102,-0.5703,24.8,12.4,4.9,-0.002,0.019,-0.001,0
2018,5,1,18,45,18.202,0.8077,-0.1042,-0.1064,-0.5703,23.1,11.5,4.4,0.007,0.029,-0.004,0
2018,5,1,18,45,18.222,0.8074,-0.102,-0.1104,-0.5704,21.6,10.2,4,0,0.03,0,0
2018,5,1,18,45,18.224,0.8072,-0.0998,-0.114,-0.5704,19,8.3,3.9,-0.002,0.04,-0.003,0
2018,5,1,18,45,18.261,0.8069,-0.0978,-0.1171,-0.5705,15.1,6.5,3.6,0.01,0.04,-0.008,0
2018,5,1,18,45,18.281,0.8066,-0.0963,-0.1196,-0.5707,11.1,5.1,3.4,-0.001,0.042,-0.007,0
2018,5,1,18,45,18.284,0.8063,-0.095,-0.1215,-0.571,9.7,3.3,3.5,-0.015,0.03,-0.012,0
2018,5,1,18,45,18.304,0.806,-0.0938,-0.1232,-0.5712,7.9,1.7,2.8,-0.016,0.042,-0.018,0
2018,5,1,18,45,18.343,0.8057,-0.0926,-0.1245,-0.5715,5.4,0.6,2.7,-0.016,0.059,-0.01,0
2018,5,1,18,45,18.364,0.8055,-0.0915,-0.1254,-0.5718,2.3,-0.9,2.4,-0.005,0.05,-0.006,0
2018,5,1,18,45,18.368,0.8053,-0.091,-0.1255,-0.5721,0.7,-1.4,1.1,0,0.028,-0.003,0
2018,5,1,18,45,18.387,0.8053,-0.0906,-0.1255,-0.5722,-0.6,-1.2,-0.2,0.004,0.032,-0.001,0
2018,5,1,18,45,18.424,0.8053,-0.0903,-0.1254,-0.5722,-1.2,-1.2,-1.2,0.003,0.024,-0.001,0
2018,5,1,18,45,18.445,0.8055,-0.0903,-0.1252,-0.572,-1.8,-1,-2.2,0,0.021,0.001,0
2018,5,1,18,45,18.449,0.8057,-0.0904,-0.1249,-0.5717,-2.2,-1.5,-2.8,-0.001,0.027,-0.005,0
2018,5,1,18,45,18.47,0.806,-0.0905,-0.1245,-0.5715,-4.3,-2.3,-2.7,-0.001,0.027,-0.003,0
2018,5,1,18,45,18.491,0.8062,-0.091,-0.1236,-0.5712,-4.9,-2.7,-2.8,0.001,0.006,-0.005,1023
2018,5,1,18,45,18.511,0.8065,-0.0914,-0.1227,-0.571,-5.2,-3.1,-2.8,0,0.021,-0.005,1023
2018,5,1,18,45,18.53,0.8067,-0.0917,-0.1218,-0.5708,-5,-4,-2.9,-0.001,0.006,-0.007,1023
2018,5,1,18,45,18.573,0.807,-0.092,-0.1207,-0.5706,-4.3,-4.2,-2.4,0,0.006,0,1023
2018,5,1,18,45,18.575,0.8072,-0.0922,-0.1197,-0.5704,-5.3,-4.2,-1.9,0,0.013,0,1023
2018,5,1,18,45,18.583,0.8074,-0.0925,-0.1186,-0.5704,-5.6,-3.5,-1.6,0.003,0.014,0.005,1023
2018,5,1,18,45,18.62,0.8075,-0.0929,-0.1176,-0.5703,-5.5,-3,-1.6,0.004,0.007,0.001,1023
2018,5,1,18,45,18.639,0.8077,-0.0934,-0.1167,-0.5702,-3.8,-2.3,-1.7,0.002,0.004,-0.001,1023
2018,5,1,18,45,18.645,0.8078,-0.0936,-0.1161,-0.5701,-3.1,-1.8,-1.9,0.004,0.013,-0.006,1023
2018,5,1,18,45,18.685,0.808,-0.0938,-0.1157,-0.5699,-2.6,-1,-2,0.001,0.005,0.002,1023
2018,5,1,18,45,18.706,0.8082,-0.0941,-0.1153,-0.5697,-4,-0.1,-2,0.001,0.022,0.001,1023
2018,5,1,18,45,18.708,0.8083,-0.0947,-0.1149,-0.5695,-4,0,-1.6,0.001,0.003,-0.005,1023
2018,5,1,18,45,18.743,0.8084,-0.0952,-0.1146,-0.5693,-2.8,0.1,-1.6,-0.001,0.003,-0.002,1023
2018,5,1,18,45,18.764,0.8085,-0.0956,-0.1144,-0.5692,-1.5,0,-0.9,0,0.002,0,1023
2018,5,1,18,45,18.768,0.8085,-0.0957,-0.1143,-0.5692,0,0,0,0,0,-0.004,1023
2018,5,1,18,45,18.806,0.8085,-0.0956,-0.1144,-0.5692,0.3,0,0.5,-0.003,0.007,-0.001,1023
2018,5,1,18,45,18.826,0.8084,-0.0955,-0.1145,-0.5693,0.3,-0.2,1.1,-0.002,0,-0.003,0
2018,5,1,18,45,18.83,0.8083,-0.0953,-0.1146,-0.5695,2.1,-0.4,1.1,0,0.003,-0.003,0
2018,5,1,18,45,18.849,0.8082,-0.0948,-0.1149,-0.5696,3.1,-0.5,1.3,0.004,0.012,0,0
2018,5,1,18,45,18.886,0.8081,-0.0943,-0.1152,-0.5697,2.3,0,1.3,0.004,0.02,-0.003,0
2018,5,1,18,45,18.905,0.808,-0.0939,-0.1156,-0.5699,0.8,0.7,1.3,0.003,0.018,0.001,0
2018,5,1,18,45,18.909,0.8079,-0.0938,-0.1158,-0.5701,0.6,1.2,0.8,0.002,0.013,0,0
2018,5,1,18,45,18.93,0.8078,-0.0937,-0.1162,-0.5702,1.2,1.5,0.5,0.001,0.013,-0.001,0
2018,5,1,18,45,18.95,0.8077,-0.0936,-0.1166,-0.5702,1.3,1.4,0.3,0,0.015,-0.001,0
2018,5,1,18,45,18.989,0.8077,-0.0935,-0.117,-0.5702,0.7,1.5,0,-0.001,0.015,-0.001,0
2018,5,1,18,45,19.009,0.8076,-0.0935,-0.1174,-0.5702,-0.6,1.1,0.1,-0.004,0.017,-0.002,0
2018,5,1,18,45,19.013,0.8076,-0.0937,-0.1175,-0.5702,-1.1,0.7,-0.1,-0.004,0.008,0,0
2018,5,1,18,45,19.034,0.8076,-0.0938,-0.1175,-0.5701,0,0,0,-0.003,0.004,-0.004,0
2018,5,1,18,45,19.054,0.8076,-0.0938,-0.1176,-0.5701,0,0,0,0,0.008,-0.008,0
2018,5,1,18,45,19.071,0.8076,-0.0937,-0.1176,-0.5701,-0.3,-0.9,-0.1,-0.004,0.014,-0.007,0
2018,5,1,18,45,19.109,0.8076,-0.0936,-0.1174,-0.5702,-1,-1.2,-0.2,0.002,0.011,-0.001,0
2018,5,1,18,45,19.13,0.8076,-0.0936,-0.1171,-0.5702,-2,-1.6,-0.3,0,0.008,-0.001,0
2018,5,1,18,45,19.135,0.8076,-0.0937,-0.1167,-0.5702,-2.4,-1.7,-0.2,0,0.009,0.001,0
2018,5,1,18,45,19.153,0.8077,-0.0939,-0.1163,-0.5703,-2.3,-1.5,-0.3,0.001,0.003,-0.003,0
2018,5,1,18,45,19.175,0.8077,-0.094,-0.1159,-0.5703,-2.2,-1,-0.3,0.003,0.01,0.001,0
2018,5,1,18,45,19.193,0.8077,-0.0941,-0.1156,-0.5703,-2.3,-0.5,-0.3,0.002,0.008,-0.002,0
2018,5,1,18,45,19.213,0.8077,-0.0944,-0.1154,-0.5703,-2.9,0,-0.2,0.002,0.012,0.001,0
2018,5,1,18,45,19.251,0.8077,-0.0947,-0.1151,-0.5703,-2.4,0,-0.2,-0.003,0.004,-0.001,0
2018,5,1,18,45,19.272,0.8077,-0.095,-0.115,-0.5703,-1.6,0,-0.2,-0.001,0,-0.002,1023
2018,5,1,18,45,19.276,0.8077,-0.0951,-0.1149,-0.5703,-0.6,-0.3,-0.4,-0.003,0.005,0.004,1023
2018,5,1,18,45,19.291,0.8077,-0.0952,-0.1148,-0.5703,-0.7,-0.5,-0.5,0,0.001,-0.004,1023
2018,5,1,18,45,19.312,0.8077,-0.0952,-0.1148,-0.5703,0.1,-0.5,-0.2,-0.001,0.006,-0.001,1023
2018,5,1,18,45,19.331,0.8077,-0.0952,-0.1148,-0.5703,0.6,-0.2,0.1,0.003,0.007,-0.004,1023
2018,5,1,18,45,19.369,0.8077,-0.095,-0.1149,-0.5703,0.7,-0.3,0.2,0.003,0.007,-0.001,1023
2018,5,1,18,45,19.389,0.8077,-0.0949,-0.1149,-0.5703,0,0,0,0,0.003,-0.003,1023
2018,5,1,18,45,19.393,0.8077,-0.0949,-0.115,-0.5703,0.3,0.6,0.1,0.002,0.008,-0.001,1023
2018,5,1,18,45,19.431,0.8077,-0.0948,-0.1152,-0.5703,1.2,0.5,-0.2,-0.002,0.005,-0.004,1023
2018,5,1,18,45,19.453,0.8077,-0.0947,-0.1155,-0.5702,1.2,0.5,-0.4,0,0.008,-0.002,1023
2018,5,1,18,45,19.457,0.8077,-0.0946,-0.1157,-0.5702,0.1,0.6,-0.3,0,0.008,-0.005,1023
2018,5,1,18,45,19.476,0.8077,-0.0946,-0.1159,-0.5701,0.2,0.5,-0.3,0,0.011,-0.005,1023
2018,5,1,18,45,19.497,0.8077,-0.0946,-0.1159,-0.5701,0,0,0,0,0.002,-0.007,1023
2018,5,1,18,45,19.517,0.8077,-0.0946,-0.116,-0.5701,0,0,0,-0.002,0.009,0.001,1023
2018,5,1,18,45,19.538,0.8077,-0.0945,-0.1161,-0.5701,0,0,0,-0.001,0.008,-0.004,1023
2018,5,1,18,45,19.558,0.8077,-0.0945,-0.116,-0.5701,-0.3,-0.5,0.2,0,0.006,-0.004,1023
2018,5,1,18,45,19.578,0.8077,-0.0945,-0.116,-0.5702,-0.4,-0.6,0.2,0.003,0.01,-0.001,0
2018,5,1,18,45,19.596,0.8077,-0.0944,-0.1159,-0.5702,0,-0.9,0,0,0.013,0,0
2018,5,1,18,45,19.615,0.8077,-0.0942,-0.1158,-0.5702,-0.4,-0.7,-0.3,0,0.005,0,0
2018,5,1,18,45,19.635,0.8077,-0.0942,-0.1156,-0.5703,-1,-0.6,-0.4,0,0.007,-0.004,0
2018,5,1,18,45,19.655,0.8077,-0.0943,-0.1155,-0.5702,-1,-0.4,-0.3,0,0.004,-0.001,0
2018,5,1,18,45,19.676,0.8078,-0.0944,-0.1154,-0.5702,-0.7,0,-0.4,0,0.002,-0.001,0
2018,5,1,18,45,19.716,0.8078,-0.0944,-0.1154,-0.5702,0,0,0,0,0.006,0.003,0
2018,5,1,18,45,19.735,0.8078,-0.0944,-0.1154,-0.5702,0,0,-0.5,0,0,-0.005,0
2018,5,1,18,45,19.739,0.8078,-0.0944,-0.1154,-0.5701,0,0,0,0.001,0.008,0.001,0
2018,5,1,18,45,19.759,0.8078,-0.0944,-0.1154,-0.5701,-0.6,0.1,-0.2,-0.001,0.003,-0.005,0
2018,5,1,18,45,19.779,0.8078,-0.0945,-0.1154,-0.5701,0,0,0,0,0,-0.004,0
2018,5,1,18,45,19.795,0.8078,-0.0945,-0.1154,-0.5701,0,0,0,0,0,-0.004,0
2018,5,1,18,45,19.815,0.8078,-0.0945,-0.1155,-0.5701,0,0,0,-0.002,0.003,-0.001,0
2018,5,1,18,45,19.853,0.8078,-0.0944,-0.1155,-0.5701,0,0,0,-0.002,0.004,-0.002,0
2018,5,1,18,45,19.875,0.8078,-0.0944,-0.1155,-0.5701,0,0,0,0,0.002,-0.004,0
2018,5,1,18,45,19.879,0.8078,-0.0944,-0.1156,-0.5701,0.5,-0.4,0,-0.001,0.001,-0.003,0
2018,5,1,18,45,19.897,0.8078,-0.0943,-0.1156,-0.5701,0,0,0,0,0.005,-0.007,0
2018,5,1,18,45,19.92,0.8078,-0.0943,-0.1157,-0.5701,0,0,0,-0.001,0.003,-0.003,0
2018,5,1,18,45,19.938,0.8078,-0.0942,-0.1157,-0.5701,0,0,0,0.003,0.001,-0.001,0
2018,5,1,18,45,19.96,0.8078,-0.0941,-0.1157,-0.5701,0.8,-0.2,0.1,0.002,0.004,-0.003,0
2018,5,1,18,45,19.981,0.8078,-0.0939,-0.1158,-0.5701,0.9,-0.1,0,0,0.007,0,0
2018,5,1,18,45,20.001,0.8078,-0.0938,-0.1159,-0.5701,0,0,0,0,0.008,-0.004,0
2018,5,1,18,45,20.018,0.8078,-0.0938,-0.116,-0.5701,0,0,0,0,0.005,-0.008,0
2018,5,1,18,45,20.053,0.8078,-0.0938,-0.116,-0.5701,0,0,0,-0.001,0.007,0.003,1023
2018,5,1,18,45,20.071,0.8078,-0.0937,-0.116,-0.5701,0,0,0,0,0.009,-0.006,1023
2018,5,1,18,45,20.078,0.8078,-0.0938,-0.116,-0.5701,-1,-0.3,-0.4,-0.002,0.005,-0.006,1023
2018,5,1,18,45,20.116,0.8078,-0.0938,-0.1159,-0.5701,-0.4,-0.6,-0.1,-0.001,0.002,-0.005,1023
2018,5,1,18,45,20.136,0.8079,-0.0938,-0.1158,-0.5701,-0.4,-0.6,-0.2,-0.001,0.002,-0.004,1023
2018,5,1,18,45,20.14,0.8079,-0.0938,-0.1157,-0.5701,-0.6,-0.4,0,0.001,0.004,-0.006,1023
2018,5,1,18,45,20.159,0.8079,-0.0938,-0.1156,-0.5701,0,0,0,0,0,-0.004,1023
2018,5,1,18,45,20.18,0.8079,-0.0938,-0.1156,-0.5701,-0.6,0.1,-0.3,0.001,0.001,-0.004,1023
2018,5,1,18,45,20.219,0.8079,-0.0939,-0.1156,-0.5701,-1,0.6,-0.4,0.001,0.007,0.001,1023
2018,5,1,18,45,20.238,0.8079,-0.0941,-0.1156,-0.57,-1,0.4,-0.5,0,0.005,-0.004,1023
2018,5,1,18,45,20.243,0.8079,-0.0943,-0.1156,-0.57,-1.2,0.4,-0.5,-0.001,0,-0.002,1023
2018,5,1,18,45,20.263,0.8079,-0.0945,-0.1155,-0.5699,-0.9,0.4,-0.3,0,-0.001,-0.002,1023
2018,5,1,18,45,20.28,0.808,-0.0946,-0.1155,-0.5699,0,0,0,0,-0.002,0,1023
2018,5,1,18,45,20.322,0.808,-0.0945,-0.1156,-0.5698,0.8,-0.3,0,-0.002,0.005,0,1023
2018,5,1,18,45,20.326,0.808,-0.0943,-0.1156,-0.5698,0.9,-0.4,0,0,0.002,-0.005,0
2018,5,1,18,45,20.342,0.808,-0.0941,-0.1157,-0.5699,0.8,-0.4,0.2,0,0.005,-0.003,0
2018,5,1,18,45,20.36,0.808,-0.0939,-0.1157,-0.5699,0.7,-0.7,0.1,0.001,0.008,0,0
2018,5,1,18,45,20.38,0.808,-0.0938,-0.1156,-0.5699,-0.2,-0.5,0,0,0.008,-0.003,0
2018,5,1,18,45,20.418,0.808,-0.0937,-0.1156,-0.5699,0,0,0,0.004,0.004,-0.001,0
2018,5,1,18,45,20.439,0.808,-0.0937,-0.1155,-0.5699,0,0,0,0.001,0.002,-0.006,0
2018,5,1,18,45,20.443,0.808,-0.0937,-0.1155,-0.5699,0,0,0,0,0,-0.005,0
2018,5,1,18,45,20.463,0.808,-0.0937,-0.1155,-0.5699,0,0,0,0.003,0.001,-0.003,0
2018,5,1,18,45,20.483,0.808,-0.0937,-0.1155,-0.5699,0,0,0,0,0.003,0,0
2018,5,1,18,45,20.521,0.808,-0.0937,-0.1156,-0.5699,0.6,0.2,-0.3,0.002,0.002,-0.005,0
2018,5,1,18,45,20.542,0.808,-0.0937,-0.1156,-0.5699,0,0,0,0,0.001,-0.003,0
2018,5,1,18,45,20.546,0.808,-0.0937,-0.1156,-0.5699,0,0,0,-0.001,0.001,0,0
2018,5,1,18,45,20.56,0.808,-0.0937,-0.1157,-0.5699,0,0,0,-0.001,0.004,-0.005,0
2018,5,1,18,45,20.601,0.808,-0.0936,-0.1157,-0.5699,0,0,0,-0.001,0.001,-0.001,0
2018,5,1,18,45,20.621,0.808,-0.0936,-0.1157,-0.5699,0,0,0,0,-0.002,-0.001,0
2018,5,1,18,45,20.625,0.808,-0.0936,-0.1157,-0.5699,0,0,0,-0.001,0,-0.002,0
2018,5,1,18,45,20.643,0.808,-0.0936,-0.1157,-0.5699,0.1,-0.5,-0.1,0.001,0.003,-0.001,0
2018,5,1,18,45,20.662,0.8081,-0.0935,-0.1157,-0.5699,-0.1,-0.6,-0.3,0,0,-0.004,0
2018,5,1,18,45,20.683,0.8081,-0.0934,-0.1156,-0.5699,0.1,-0.8,-0.3,-0.002,0.003,-0.001,0
2018,5,1,18,45,20.723,0.8081,-0.0934,-0.1155,-0.5698,0,-0.7,-0.3,0,0,-0.005,0
2018,5,1,18,45,20.744,0.8082,-0.0933,-0.1154,-0.5698,0,-0.7,-0.3,0.002,0.004,-0.003,0
2018,5,1,18,45,20.748,0.8082,-0.0933,-0.1154,-0.5698,0,0,0,0,-0.001,-0.005,0
2018,5,1,18,45,20.763,0.8082,-0.0933,-0.1154,-0.5698,0.5,0,0,0.001,0.005,0,0
2018,5,1,18,45,20.801,0.8082,-0.0932,-0.1154,-0.5698,0,0,0,-0.001,0.005,-0.004,1023
2018,5,1,18,45,20.822,0.8082,-0.0931,-0.1155,-0.5698,0.5,0,-0.4,-0.002,0.001,0,1023
2018,5,1,18,45,20.826,0.8082,-0.0931,-0.1156,-0.5698,0,0,0,0,0.005,0,1023
2018,5,1,18,45,20.843,0.8082,-0.0931,-0.1156,-0.5697,0,0,0,-0.001,0.001,-0.003,1023
2018,5,1,18,45,20.863,0.8082,-0.0931,-0.1156,-0.5697,-0.3,-0.2,-0.5,-0.001,0,0,1023
2018,5,1,18,45,20.901,0.8082,-0.0931,-0.1155,-0.5697,0,0,0,0,0.001,0.003,1023
2018,5,1,18,45,20.922,0.8083,-0.093,-0.1155,-0.5697,0.4,-0.6,0,0,-0.002,0.005,1023
2018,5,1,18,45,20.926,0.8083,-0.0929,-0.1155,-0.5697,0,0,0,0,0.004,-0.001,1023
2018,5,1,18,45,20.946,0.8083,-0.0929,-0.1155,-0.5697,-0.5,0.1,-0.1,0.002,0.006,0.002,1023
2018,5,1,18,45,20.967,0.8083,-0.0929,-0.1155,-0.5697,-0.2,0.5,-0.3,0.001,0.004,-0.001,1023
2018,5,1,18,45,21.007,0.8083,-0.0929,-0.1156,-0.5696,0,0.6,-0.6,0.001,0.005,-0.003,1023
2018,5,1,18,45,21.011,0.8084,-0.093,-0.1157,-0.5695,-0.2,0.7,-0.6,0,0.005,-0.002,1023
2018,5,1,18,45,21.029,0.8084,-0.0931,-0.1158,-0.5694,-0.3,0.3,-0.9,-0.004,0.001,-0.002,1023
2018,5,1,18,45,21.049,0.8085,-0.0933,-0.1158,-0.5693,-0.2,0.2,-0.8,-0.001,-0.005,-0.007,1023
2018,5,1,18,45,21.066,0.8085,-0.0933,-0.1158,-0.5692,0,0,0,0.001,-0.003,-0.001,1023
2018,5,1,18,45,21.086,0.8085,-0.0933,-0.1158,-0.5692,0,0,0,-0.001,-0.001,0,1023
2018,5,1,18,45,21.105,0.8085,-0.0932,-0.1158,-0.5692,0.6,-0.7,0.1,-0.003,0.003,-0.001,0
2018,5,1,18,45,21.144,0.8086,-0.0929,-0.1158,-0.5692,1.1,-0.6,0,0,0.002,-0.004,0
2018,5,1,18,45,21.164,0.8086,-0.0927,-0.1158,-0.5692,0.3,-0.5,0,0.001,0.009,0.003,0
2018,5,1,18,45,21.168,0.8086,-0.0926,-0.1158,-0.5692,0,0,0,0.003,0.006,-0.005,0
2018,5,1,18,45,21.207,0.8087,-0.0926,-0.1158,-0.5691,0,-0.3,-0.5,0.002,0.004,-0.005,0
2018,5,1,18,45,21.226,0.8087,-0.0925,-0.1158,-0.5691,0.4,-0.2,-0.7,0.001,-0.001,-0.006,0
2018,5,1,18,45,21.231,0.8088,-0.0924,-0.1158,-0.569,0,-0.1,-0.5,0.001,0,-0.001,0
2018,5,1,18,45,21.248,0.8088,-0.0925,-0.1158,-0.5689,-0.4,-0.2,-0.5,-0.001,0,-0.005,0
2018,5,1,18,45,21.285,0.8089,-0.0925,-0.1157,-0.5688,0,-0.3,-0.6,0.001,0,-0.002,0
2018,5,1,18,45,21.289,0.809,-0.0925,-0.1157,-0.5688,-0.1,-0.3,-0.5,0.003,0.006,-0.002,0
2018,5,1,18,45,21.305,0.809,-0.0925,-0.1156,-0.5687,-0.7,-0.4,-0.5,0.002,0.002,-0.001,0
2018,5,1,18,45,21.326,0.809,-0.0925,-0.1155,-0.5687,0,-0.5,-0.5,-0.002,0.003,0,0
2018,5,1,18,45,21.367,0.8091,-0.0925,-0.1155,-0.5686,0.2,-0.6,-0.6,0.002,0.005,-0.003,0
2018,5,1,18,45,21.387,0.8092,-0.0924,-0.1154,-0.5685,0,-0.6,-0.6,0.001,0,0,0
2018,5,1,18,45,21.391,0.8092,-0.0924,-0.1154,-0.5685,0,0,0,0,0,-0.001,0
2018,5,1,18,45,21.409,0.8093,-0.0924,-0.1153,-0.5684,0.3,-0.4,-0.5,0.001,0.001,-0.004,0
2018,5,1,18,45,21.448,0.8093,-0.0923,-0.1153,-0.5684,0,0,0,0.002,0.004,-0.007,0
2018,5,1,18,45,21.468,0.8093,-0.0922,-0.1153,-0.5684,-0.2,-0.5,-0.5,-0.001,0,-0.004,0
2018,5,1,18,45,21.472,0.8094,-0.0922,-0.1152,-0.5683,0,0,0,0.002,0,0,0
2018,5,1,18,45,21.491,0.8094,-0.0922,-0.1152,-0.5683,0,0,0,0.001,-0.002,-0.005,0
2018,5,1,18,45,21.509,0.8094,-0.0922,-0.1152,-0.5683,0.9,0,-0.2,0.002,0,-0.004,0
2018,5,1,18,45,21.528,0.8094,-0.0921,-0.1153,-0.5682,1.5,0.1,-0.2,0.002,0.003,0,0
2018,5,1,18,45,21.567,0.8095,-0.0918,-0.1155,-0.5682,2.1,-0.1,-0.2,0,0.004,-0.002,0
2018,5,1,18,45,21.587,0.8095,-0.0915,-0.1158,-0.5681,1.5,0.4,-0.2,0,0.008,-0.002,1023
2018,5,1,18,45,21.591,0.8096,-0.0913,-0.116,-0.568,0.7,0.3,-0.3,0,0.005,-0.002,1023
2018,5,1,18,45,21.61,0.8096,-0.0913,-0.1161,-0.568,0,0,0,0,0.004,-0.004,1023
2018,5,1,18,45,21.629,0.8096,-0.0913,-0.1161,-0.568,-0.7,0,0,0,0,-0.003,1023
2018,5,1,18,45,21.652,0.8096,-0.0914,-0.116,-0.568,-0.6,-0.4,-0.1,0,-0.003,-0.005,1023
2018,5,1,18,45,21.687,0.8096,-0.0914,-0.1159,-0.568,0,-0.6,0,0.003,-0.001,-0.004,1023
2018,5,1,18,45,21.708,0.8096,-0.0914,-0.1158,-0.568,0.4,-0.5,0,0,0,-0.004,1023
2018,5,1,18,45,21.712,0.8096,-0.0913,-0.1159,-0.568,0,0,0,0.003,0,-0.002,1023
2018,5,1,18,45,21.732,0.8096,-0.0912,-0.1159,-0.568,0,0,0,0.001,0.007,-0.002,1023
2018,5,1,18,45,21.752,0.8096,-0.0911,-0.116,-0.568,0,0,0,0,0.006,0,1023
2018,5,1,18,45,21.773,0.8096,-0.0911,-0.1161,-0.568,-0.4,0.5,-0.4,0.002,0.006,-0.001,1023
2018,5,1,18,45,21.795,0.8096,-0.0913,-0.1161,-0.5679,-0.7,0.6,-0.6,0.001,-0.001,-0.006,1023
2018,5,1,18,45,21.813,0.8097,-0.0915,-0.1161,-0.5678,-0.1,0.5,-0.3,-0.002,-0.008,-0.008,1023
2018,5,1,18,45,21.833,0.8097,-0.0916,-0.1161,-0.5678,0,0,0,-0.004,-0.004,-0.005,1023
2018,5,1,18,45,21.852,0.8097,-0.0916,-0.1162,-0.5678,0,0,0,-0.001,0.005,-0.001,1023
2018,5,1,18,45,21.872,0.8097,-0.0914,-0.1162,-0.5678,0.9,-1,0.1,-0.001,-0.004,-0.003,1023
2018,5,1,18,45,21.893,0.8097,-0.0912,-0.1162,-0.5678,0.4,-0.5,0.4,0,0.005,-0.002,0
2018,5,1,18,45,21.913,0.8097,-0.091,-0.1161,-0.5679,0.2,-0.8,0.2,0,0.003,-0.001,0
2018,5,1,18,45,21.933,0.8097,-0.0909,-0.1161,-0.5679,-0.2,-0.5,0.1,0.002,0.006,-0.002,0
2018,5,1,18,45,21.973,0.8097,-0.0909,-0.116,-0.568,-0.4,-0.6,-0.1,0,0.006,-0.003,0
2018,5,1,18,45,21.977,0.8097,-0.0909,-0.116,-0.568,-0.9,-0.3,-0.1,0.001,0.004,-0.005,0
2018,5,1,18,45,21.995,0.8097,-0.091,-0.1158,-0.568,-0.7,-0.1,-0.2,0.004,-0.003,0,0
2018,5,1,18,45,22.015,0.8097,-0.091,-0.1158,-0.568,0,0,0,0,-0.001,-0.002,0
2018,5,1,18,45,22.036,0.8097,-0.091,-0.1158,-0.568,0,0,0,0,0.001,-0.001,0
2018,5,1,18,45,22.051,0.8097,-0.091,-0.1158,-0.568,0,0,0,-0.001,0,-0.004,0
2018,5,1,18,45,22.088,0.8097,-0.091,-0.1159,-0.5679,0,0,0,0,0.007,0,0
2018,5,1,18,45,22.107,0.8097,-0.091,-0.1159,-0.5679,-0.1,0,-0.5,0,0.001,-0.004,0
2018,5,1,18,45,22.111,0.8097,-0.091,-0.1159,-0.5679,-0.6,0.3,-0.3,0.001,0.005,0.001,0
2018,5,1,18,45,22.151,0.8097,-0.0911,-0.1158,-0.5678,-1,-0.1,-0.3,0,0,-0.003,0
2018,5,1,18,45,22.17,0.8097,-0.0912,-0.1158,-0.5678,0,0,0,-0.002,-0.001,-0.003,0
2018,5,1,18,45,22.177,0.8098,-0.0911,-0.1157,-0.5678,0.6,-0.7,-0.2,0,0,-0.001,0
2018,5,1,18,45,22.195,0.8098,-0.091,-0.1157,-0.5678,0.4,-0.9,0.1,0,-0.001,-0.004,0
2018,5,1,18,45,22.215,0.8098,-0.0909,-0.1156,-0.5678,0,-0.6,0.2,0.001,0,-0.007,0
2018,5,1,18,45,22.238,0.8098,-0.0909,-0.1156,-0.5678,-0.2,-0.5,0.2,0,-0.001,-0.005,0
2018,5,1,18,45,22.252,0.8098,-0.0909,-0.1155,-0.5678,0,0,0,0.001,0.004,-0.001,0
2018,5,1,18,45,22.273,0.8098,-0.0909,-0.1155,-0.5678,0,0,0,0.001,0.002,-0.001,0
2018,5,1,18,45,22.293,0.8098,-0.0908,-0.1156,-0.5678,0,0,0,0.002,0.001,-0.003,0
2018,5,1,18,45,22.331,0.8098,-0.0908,-0.1156,-0.5678,0,0,0,0,0.005,-0.006,0
2018,5,1,18,45,22.353,0.8098,-0.0908,-0.1156,-0.5678,0.5,0.4,-0.3,0,-0.001,-0.004,0
2018,5,1,18,45,22.357,0.8098,-0.0908,-0.1157,-0.5678,0,0,0,0.001,0,-0.008,1023
2018,5,1,18,45,22.376,0.8098,-0.0908,-0.1157,-0.5678,0,0,0,-0.004,0.004,-0.002,1023
2018,5,1,18,45,22.394,0.8098,-0.0909,-0.1157,-0.5678,-0.9,-0.4,0,-0.003,0.003,-0.004,1023
2018,5,1,18,45,22.416,0.8098,-0.091,-0.1155,-0.5678,-0.7,-0.9,-0.3,0,-0.002,-0.004,1023
2018,5,1,18,45,22.436,0.8098,-0.0911,-0.1153,-0.5678,-0.4,-0.7,-0.2,0.003,-0.001,-0.001,1023
2018,5,1,18,45,22.472,0.8099,-0.091,-0.1152,-0.5678,0.6,-0.5,-0.2,0.001,-0.005,-0.001,1023
2018,5,1,18,45,22.492,0.8099,-0.0908,-0.1152,-0.5678,0.9,0,-0.2,0.002,0.006,0,1023
2018,5,1,18,45,22.499,0.81,-0.0907,-0.1153,-0.5677,0.1,0.5,-0.4,0,0.003,-0.001,1023
2018,5,1,18,45,22.52,0.81,-0.0907,-0.1154,-0.5677,-0.6,0.6,-0.5,0.001,0.006,-0.001,1023
2018,5,1,18,45,22.539,0.81,-0.0908,-0.1155,-0.5676,-0.5,0.9,-0.7,-0.002,0.001,-0.006,1023
2018,5,1,18,45,22.557,0.81,-0.091,-0.1156,-0.5675,-0.2,0.6,-0.6,0.002,-0.003,-0.002,1023
2018,5,1,18,45,22.596,0.8101,-0.0911,-0.1156,-0.5674,0,0,0,0,-0.003,-0.002,1023
2018,5,1,18,45,22.6,0.8101,-0.0911,-0.1157,-0.5673,1.2,-0.2,-0.2,-0.002,-0.003,0.001,1023
2018,5,1,18,45,22.619,0.8102,-0.091,-0.1157,-0.5673,0.9,-0.4,0,0,0,-0.002,1023
2018,5,1,18,45,22.639,0.8102,-0.0908,-0.1157,-0.5673,0.7,-0.6,0.3,0,-0.001,-0.004,1023
2018,5,1,18,45,22.66,0.8101,-0.0906,-0.1157,-0.5674,0.9,-0.8,0.4,-0.001,0.003,-0.005,1023
2018,5,1,18,45,22.695,0.8101,-0.0903,-0.1157,-0.5674,0.1,-0.9,0.4,0,0.005,-0.003,1023
2018,5,1,18,45,22.715,0.8101,-0.0902,-0.1156,-0.5675,0.4,-1,0.1,0,0.002,-0.007,0
2018,5,1,18,45,22.719,0.8101,-0.0901,-0.1156,-0.5675,0.1,-0.5,0,0.002,0.007,-0.001,0
2018,5,1,18,45,22.739,0.8101,-0.09,-0.1156,-0.5675,0,0,0,0.001,0.002,-0.002,0
2018,5,1,18,45,22.759,0.8101,-0.0901,-0.1155,-0.5675,-0.9,0.3,0,0,0.001,0.002,0
2018,5,1,18,45,22.782,0.8101,-0.0902,-0.1155,-0.5675,0,0,0,0,0.001,-0.001,0
2018,5,1,18,45,22.801,0.8101,-0.0902,-0.1155,-0.5675,0,0,0,0,0.002,-0.002,0
2018,5,1,18,45,22.817,0.8101,-0.0902,-0.1155,-0.5675,0,0,0,0.001,0,-0.004,0
2018,5,1,18,45,22.838,0.8101,-0.0903,-0.1155,-0.5675,-0.7,0.4,-0.4,0,0.001,-0.004,0
2018,5,1,18,45,22.86,0.8101,-0.0904,-0.1155,-0.5674,-0.2,0.1,-0.5,0,0.001,-0.001,0
2018,5,1,18,45,22.878,0.8102,-0.0904,-0.1155,-0.5674,-0.5,0.1,-0.5,-0.002,0.001,-0.003,0
2018,5,1,18,45,22.901,0.8102,-0.0906,-0.1154,-0.5673,-0.9,-0.1,-0.5,0,-0.001,-0.002,0
2018,5,1,18,45,22.919,0.8102,-0.0907,-0.1153,-0.5673,-0.7,-0.3,-0.4,0,-0.001,-0.003,0
2018,5,1,18,45,22.94,0.8103,-0.0907,-0.1153,-0.5673,0,0,0,0,-0.001,0,0
2018,5,1,18,45,22.979,0.8103,-0.0908,-0.1152,-0.5673,0,0,0,0,0,-0.001,0
2018,5,1,18,45,22.999,0.8103,-0.0908,-0.1151,-0.5672,0,0,0,0.001,0,-0.002,0
2018,5,1,18,45,23.003,0.8103,-0.0908,-0.1151,-0.5672,0,0,0,0.001,0,-0.007,0
2018,5,1,18,45,23.02,0.8103,-0.0908,-0.1151,-0.5672,0,0,0,0.001,0.004,-0.004,0
2018,5,1,18,45,23.041,0.8103,-0.0908,-0.1151,-0.5672,0,0,0,-0.001,-0.004,-0.002,0
2018,5,1,18,45,23.06,0.8103,-0.0908,-0.1151,-0.5672,0,0,0,-0.001,-0.002,0,0
2018,5,1,18,45,23.081,0.8103,-0.0908,-0.1151,-0.5672,0.7,0.1,0,-0.003,-0.001,-0.002,0
2018,5,1,18,45,23.101,0.8103,-0.0907,-0.1152,-0.5672,0,0,0,0,0.002,-0.004,0
2018,5,1,18,45,23.137,0.8103,-0.0907,-0.1152,-0.5672,0.5,0,0,0,0,-0.004,0
2018,5,1,18,45,23.157,0.8103,-0.0907,-0.1152,-0.5672,0,0,0,0,-0.001,-0.001,0
2018,5,1,18,45,23.161,0.8103,-0.0907,-0.1153,-0.5672,0,0,0,-0.001,0.007,-0.005,1023
2018,5,1,18,45,23.201,0.8103,-0.0907,-0.1153,-0.5672,-1,-0.1,0,-0.002,0.003,-0.004,1023
2018,5,1,18,45,23.221,0.8103,-0.0908,-0.1151,-0.5672,-0.9,-0.5,0,0,0,0,1023
2018,5,1,18,45,23.226,0.8103,-0.0909,-0.115,-0.5672,-0.7,-0.6,0,0.002,-0.001,-0.003,1023
2018,5,1,18,45,23.244,0.8103,-0.0909,-0.1149,-0.5673,-0.7,-0.2,0,0,0.001,-0.002,1023
2018,5,1,18,45,23.261,0.8103,-0.091,-0.1148,-0.5673,-0.6,0.2,0,0.002,0,0.001,1023
2018,5,1,18,45,23.3,0.8103,-0.0911,-0.1148,-0.5673,0,0,0,-0.001,0,0,1023
2018,5,1,18,45,23.304,0.8103,-0.0911,-0.1149,-0.5672,-0.3,0.5,-0.4,0,0.002,-0.002,1023
2018,5,1,18,45,23.322,0.8103,-0.0912,-0.1149,-0.5672,-0.6,0.7,-0.5,0,0.001,-0.004,1023
2018,5,1,18,45,23.362,0.8103,-0.0914,-0.115,-0.5671,-0.7,0.7,-0.3,-0.003,0,-0.008,1023
2018,5,1,18,45,23.382,0.8103,-0.0915,-0.115,-0.5671,0,0,0,-0.001,-0.006,-0.002,1023
2018,5,1,18,45,23.386,0.8103,-0.0916,-0.115,-0.5671,0,0,0,-0.002,0,-0.006,1023
2018,5,1,18,45,23.403,0.8103,-0.0916,-0.1151,-0.5671,0.3,-0.6,0,-0.003,-0.003,-0.007,1023
2018,5,1,18,45,23.443,0.8103,-0.0915,-0.115,-0.5671,-0.1,-0.6,0.2,0,0,0,1023
2018,5,1,18,45,23.462,0.8103,-0.0915,-0.1149,-0.5671,-0.1,-0.9,0.3,0,0,-0.002,1023
2018,5,1,18,45,23.466,0.8103,-0.0913,-0.1148,-0.5672,0,-0.8,0.1,0,0.003,-0.003,1023
2018,5,1,18,45,23.503,0.8103,-0.0913,-0.1147,-0.5672,-0.7,-0.6,0,-0.002,0.004,-0.004,1023
2018,5,1,18,45,23.525,0.8103,-0.0913,-0.1145,-0.5673,-0.9,-0.5,-0.1,0.002,0.004,0,0
2018,5,1,18,45,23.529,0.8103,-0.0913,-0.1144,-0.5673,0,0,0,0,-0.003,-0.002,0
2018,5,1,18,45,23.547,0.8103,-0.0913,-0.1144,-0.5673,0,0,0,0,0,0,0
2018,5,1,18,45,23.565,0.8103,-0.0913,-0.1144,-0.5673,0.6,0,0,0,0.001,-0.003,0
2018,5,1,18,45,23.61,0.8103,-0.0912,-0.1144,-0.5672,0,0,0,0,0,0.001,0
2018,5,1,18,45,23.613,0.8103,-0.0912,-0.1145,-0.5672,0,0,0,0,0.002,-0.003,0
2018,5,1,18,45,23.622,0.8103,-0.0912,-0.1145,-0.5672,0,0,0,-0.001,0.001,0,0
2018,5,1,18,45,23.661,0.8104,-0.0913,-0.1145,-0.5672,0,0,0,-0.002,0.002,-0.003,0
2018,5,1,18,45,23.682,0.8104,-0.0914,-0.1146,-0.5671,-0.4,0.2,-0.5,0,0.004,-0.003,0
2018,5,1,18,45,23.684,0.8104,-0.0915,-0.1146,-0.5671,-0.6,0,-0.3,0,-0.003,-0.007,0
2018,5,1,18,45,23.724,0.8104,-0.0915,-0.1145,-0.5671,-0.6,-0.6,-0.2,0,0.001,-0.005,0
2018,5,1,18,45,23.743,0.8104,-0.0915,-0.1144,-0.5671,-0.3,-0.7,0,0.001,-0.003,-0.001,0
2018,5,1,18,45,23.746,0.8105,-0.0915,-0.1143,-0.5671,0,-0.6,0,0,-0.004,-0.003,0
2018,5,1,18,45,23.764,0.8105,-0.0914,-0.1143,-0.5671,0.6,-0.6,0,-0.001,0,-0.004,0
2018,5,1,18,45,23.784,0.8105,-0.0913,-0.1142,-0.5671,0.3,-0.6,0.1,0.001,0.002,-0.003,0
2018,5,1,18,45,23.823,0.8105,-0.0912,-0.1142,-0.5671,0.7,-0.4,0,0.001,-0.004,-0.001,0
2018,5,1,18,45,23.842,0.8105,-0.091,-0.1142,-0.5671,0.5,-0.1,-0.2,0,0.001,-0.002,0
2018,5,1,18,45,23.845,0.8105,-0.091,-0.1142,-0.5671,0.5,0.1,-0.3,0,0.003,-0.005,0
2018,5,1,18,45,23.881,0.8105,-0.091,-0.1142,-0.5671,0,0,0,0,0,-0.003,0
2018,5,1,18,45,23.903,0.8105,-0.091,-0.1144,-0.567,0.7,0.5,-0.1,0.001,0.001,-0.003,0
2018,5,1,18,45,23.906,0.8105,-0.091,-0.1144,-0.567,0,0,0,-0.001,0,-0.005,0
2018,5,1,18,45,23.945,0.8105,-0.0909,-0.1145,-0.567,0.5,0.1,0,0,-0.001,-0.003,0
2018,5,1,18,45,23.966,0.8105,-0.0909,-0.1145,-0.567,0,0,0,-0.001,0.002,-0.002,0
2018,5,1,18,45,23.97,0.8105,-0.091,-0.1146,-0.567,-0.9,-0.1,-0.2,-0.004,0.007,-0.004,1023
2018,5,1,18,45,23.989,0.8105,-0.0911,-0.1145,-0.567,-0.9,-0.4,-0.2,-0.001,-0.001,-0.003,1023
2018,5,1,18,45,24.023,0.8105,-0.0911,-0.1143,-0.567,-0.7,-0.6,0,0,0,-0.007,1023
2018,5,1,18,45,24.043,0.8105,-0.0912,-0.1142,-0.567,0,0,0,0.001,-0.002,-0.001,1023
2018,5,1,18,45,24.048,0.8105,-0.0912,-0.1142,-0.567,0,0,0,0,0,-0.002,1023
2018,5,1,18,45,24.087,0.8106,-0.0912,-0.1142,-0.567,0,0.7,-0.2,0.002,0.002,-0.003,1023
2018,5,1,18,45,24.105,0.8106,-0.0913,-0.1143,-0.5669,0,1.1,-0.2,0,0.003,-0.008,1023
2018,5,1,18,45,24.11,0.8106,-0.0914,-0.1145,-0.5668,-0.2,1,-0.8,0,0.005,-0.003,1023
2018,5,1,18,45,24.129,0.8106,-0.0916,-0.1147,-0.5667,-0.6,1,-0.8,0,0,-0.003,1023
2018,5,1,18,45,24.149,0.8107,-0.0918,-0.1148,-0.5666,0,0.7,-0.6,0,-0.004,-0.005,1023
2018,5,1,18,45,24.17,0.8107,-0.0919,-0.1149,-0.5665,0.4,0.7,-0.4,-0.002,-0.004,-0.006,1023
2018,5,1,18,45,24.19,0.8108,-0.0919,-0.115,-0.5664,1.1,0.2,-0.1,-0.002,-0.006,-0.006,1023
2018,5,1,18,45,24.227,0.8108,-0.0917,-0.1152,-0.5664,1.5,0,0,-0.003,0.003,-0.001,1023
2018,5,1,18,45,24.248,0.8108,-0.0915,-0.1153,-0.5664,1,-0.3,0,-0.004,0.004,0,1023
2018,5,1,18,45,24.253,0.8108,-0.0914,-0.1154,-0.5664,0,0,0,0,0.006,-0.004,1023
2018,5,1,18,45,24.289,0.8108,-0.0913,-0.1154,-0.5664,0,0,0,-0.001,0.004,-0.001,1023
2018,5,1,18,45,24.31,0.8108,-0.0913,-0.1155,-0.5664,0,0,0,0,0.006,-0.003,1023
2018,5,1,18,45,24.314,0.8108,-0.0913,-0.1154,-0.5664,-0.9,-0.1,-0.3,0.001,0.001,-0.001,0
2018,5,1,18,45,24.329,0.8108,-0.0915,-0.1153,-0.5664,-1.2,0.1,-0.2,0,0.003,0,0
2018,5,1,18,45,24.368,0.8108,-0.0917,-0.1152,-0.5663,-1,0.3,-0.3,0,-0.005,-0.004,0
2018,5,1,18,45,24.389,0.8108,-0.0918,-0.1152,-0.5663,0,0,0,0,-0.001,-0.005,0
2018,5,1,18,45,24.393,0.8109,-0.0918,-0.1152,-0.5662,0,0.6,-0.3,-0.002,0.001,-0.002,0
2018,5,1,18,45,24.41,0.8109,-0.0918,-0.1153,-0.5662,0,0.6,-0.6,-0.002,0.001,-0.003,0
2018,5,1,18,45,24.433,0.811,-0.0919,-0.1154,-0.5661,0.3,0.3,-0.7,-0.004,0.001,-0.003,0
2018,5,1,18,45,24.453,0.811,-0.0919,-0.1155,-0.5659,0.4,0.1,-0.6,-0.001,-0.003,-0.001,0
2018,5,1,18,45,24.474,0.8111,-0.0919,-0.1156,-0.5658,0.3,0.2,-0.6,-0.001,0,-0.006,0
2018,5,1,18,45,24.493,0.8111,-0.0919,-0.1156,-0.5657,0,0,0,-0.002,0,-0.002,0
2018,5,1,18,45,24.531,0.8112,-0.092,-0.1157,-0.5657,0,0,0,-0.002,-0.001,-0.008,0
2018,5,1,18,45,24.535,0.8112,-0.092,-0.1157,-0.5657,0,0,0,0,0.001,-0.005,0
2018,5,1,18,45,24.552,0.8112,-0.092,-0.1156,-0.5657,-0.2,-0.6,-0.1,0,-0.001,-0.004,0
2018,5,1,18,45,24.571,0.8112,-0.092,-0.1156,-0.5657,0,0,0,0,0.002,-0.004,0
2018,5,1,18,45,24.591,0.8112,-0.092,-0.1156,-0.5657,0,0,0,0,0.001,-0.001,0
2018,5,1,18,45,24.611,0.8112,-0.092,-0.1155,-0.5657,0,0,0,0.001,-0.002,-0.006,0
2018,5,1,18,45,24.631,0.8112,-0.092,-0.1155,-0.5657,0,0,0,0,-0.003,-0.001,0
2018,5,1,18,45,24.671,0.8112,-0.092,-0.1155,-0.5657,0,0,0,-0.002,-0.002,-0.003,0
2018,5,1,18,45,24.689,0.8112,-0.092,-0.1155,-0.5657,0,0,0,0,0,-0.002,0
2018,5,1,18,45,24.693,0.8112,-0.092,-0.1155,-0.5657,0,0,0,-0.001,0,0.002,0
2018,5,1,18,45,24.714,0.8112,-0.092,-0.1156,-0.5657,0,0,0,0,0.002,-0.005,0
2018,5,1,18,45,24.734,0.8112,-0.092,-0.1156,-0.5657,0,0,0,-0.002,0,-0.009,0
2018,5,1,18,45,24.75,0.8112,-0.092,-0.1156,-0.5657,0,0,0,-0.006,0,-0.007,0
2018,5,1,18,45,24.77,0.8112,-0.0921,-0.1156,-0.5657,-0.6,-0.3,-0.2,-0.004,0.003,0.002,0
2018,5,1,18,45,24.792,0.8112,-0.0922,-0.1155,-0.5657,-1.2,-0.6,-0.2,-0.001,0,-0.003,0
2018,5,1,18,45,24.813,0.8112,-0.0923,-0.1152,-0.5657,-1,-0.9,-0.2,0.001,0,0,1023
2018,5,1,18,45,24.833,0.8112,-0.0923,-0.115,-0.5657,-0.9,-0.6,-0.1,0.003,-0.005,0,1023
2018,5,1,18,45,24.87,0.8112,-0.0924,-0.1149,-0.5657,0,0,0,0.002,0,0.002,1023
2018,5,1,18,45,24.89,0.8112,-0.0924,-0.1149,-0.5657,0,0,0,0.001,-0.005,-0.004,1023
2018,5,1,18,45,24.894,0.8113,-0.0924,-0.1149,-0.5657,0,0.7,-0.4,0,0.007,0,1023
2018,5,1,18,45,24.933,0.8113,-0.0925,-0.115,-0.5656,-0.4,0.8,-0.8,-0.002,0.002,-0.001,1023
2018,5,1,18,45,24.953,0.8113,-0.0926,-0.1151,-0.5655,-0.4,0.7,-0.9,-0.004,0,-0.004,1023
2018,5,1,18,45,24.957,0.8114,-0.0928,-0.1151,-0.5653,0,0.6,-0.6,-0.002,-0.004,-0.004,1023
2018,5,1,18,45,24.977,0.8115,-0.0929,-0.1152,-0.5652,0,0.4,-0.5,-0.002,-0.005,0.005,1023
2018,5,1,18,45,24.996,0.8115,-0.093,-0.1152,-0.5652,0.6,-0.1,-0.1,-0.004,-0.011,-0.01,1023
2018,5,1,18,45,25.033,0.8115,-0.0928,-0.1153,-0.5652,0.7,-0.7,0.3,-0.003,0.005,0,1023
2018,5,1,18,45,25.037,0.8114,-0.0926,-0.1153,-0.5653,0.4,-0.7,0.4,-0.002,-0.001,-0.004,1023
2018,5,1,18,45,25.053,0.8114,-0.0925,-0.1152,-0.5654,0.2,-0.6,0.5,0,0.004,-0.002,1023
2018,5,1,18,45,25.093,0.8113,-0.0924,-0.1152,-0.5655,-0.4,-0.4,0.5,0,0.003,0.003,1023
2018,5,1,18,45,25.112,0.8113,-0.0924,-0.1151,-0.5655,-0.5,-0.2,0.4,0.003,0.004,-0.004,1023
2018,5,1,18,45,25.117,0.8113,-0.0924,-0.115,-0.5656,-0.6,0,0.1,0,0.001,0,1023
2018,5,1,18,45,25.137,0.8113,-0.0925,-0.115,-0.5656,-0.7,0.1,0,0.001,0,-0.002,1023
2018,5,1,18,45,25.158,0.8113,-0.0926,-0.115,-0.5656,0,0,0,0,-0.002,-0.001,1023
2018,5,1,18,45,25.195,0.8113,-0.0926,-0.115,-0.5656,0,0,0,0.001,0.001,-0.007,0
2018,5,1,18,45,25.215,0.8113,-0.0926,-0.115,-0.5656,0,0,0,-0.001,0.001,0,0
2018,5,1,18,45,25.219,0.8113,-0.0926,-0.115,-0.5656,0,0,0,0,-0.001,-0.004,0
2018,5,1,18,45,25.24,0.8112,-0.0926,-0.115,-0.5656,0,0,0,-0.003,0,-0.006,0
2018,5,1,18,45,25.26,0.8112,-0.0926,-0.1151,-0.5656,0,0,0,0.001,0.002,-0.004,0
2018,5,1,18,45,25.279,0.8112,-0.0926,-0.1151,-0.5656,0,0,0,-0.003,0,-0.007,0
2018,5,1,18,45,25.299,0.8113,-0.0926,-0.115,-0.5656,-0.2,-0.7,-0.1,-0.001,-0.001,-0.004,0
2018,5,1,18,45,25.317,0.8113,-0.0926,-0.1149,-0.5656,-0.6,-0.6,0,-0.002,0.001,-0.003,0
2018,5,1,18,45,25.336,0.8113,-0.0926,-0.1148,-0.5656,-0.5,-0.9,0,0.002,-0.001,-0.002,0
2018,5,1,18,45,25.356,0.8113,-0.0926,-0.1146,-0.5656,-0.7,-0.7,0.2,-0.002,0.001,-0.004,0
