time_1,time_2,time_3,time_4,time_5,time_6,w,x,y,z,droll,dpitch,dyaw,ax,ay,az,heart
2018,5,16,19,21,17.008,-0.4493,0.3579,0.1817,0.798,-0.2,-0.3,1.3,0.007,-0.001,-0.012,0
2018,5,16,19,21,17.013,-0.4494,0.3577,0.1817,0.7981,-0.2,-0.7,1.3,0.007,-0.009,-0.004,0
2018,5,16,19,21,17.033,-0.4492,0.3577,0.1817,0.7982,-0.9,-0.8,1.2,0.006,-0.001,-0.002,0
2018,5,16,19,21,17.053,-0.4491,0.3576,0.1816,0.7983,-0.7,-0.8,1.1,0.01,-0.001,-0.006,0
2018,5,16,19,21,17.091,-0.4491,0.3575,0.1815,0.7984,-1.1,-0.5,0.8,0.009,-0.003,-0.006,0
2018,5,16,19,21,17.095,-0.4492,0.3575,0.1813,0.7984,-1.1,0,0.6,0.008,-0.003,-0.006,0
2018,5,16,19,21,17.111,-0.4493,0.3575,0.1811,0.7984,-1.3,0,0.4,0.006,-0.001,-0.008,0
2018,5,16,19,21,17.13,-0.4493,0.3575,0.1811,0.7984,-0.6,0.1,0.5,0.007,-0.005,-0.003,0
2018,5,16,19,21,17.166,-0.4492,0.3576,0.1811,0.7983,-0.2,0.3,0.8,0.003,-0.005,-0.003,0
2018,5,16,19,21,17.186,-0.4492,0.3576,0.1811,0.7983,-0.5,0.3,0.8,0.004,-0.011,0.001,0
2018,5,16,19,21,17.193,-0.4493,0.3576,0.181,0.7983,-0.9,0,1,0.001,-0.011,0,0
2018,5,16,19,21,17.232,-0.4492,0.3576,0.1809,0.7983,-0.6,-0.2,0.8,0.006,-0.005,0.001,0
2018,5,16,19,21,17.252,-0.4491,0.3577,0.181,0.7984,-0.2,-0.2,0.8,0.008,0.001,0.001,1023
2018,5,16,19,21,17.256,-0.4491,0.3576,0.1811,0.7984,-0.2,0,0.8,0.007,-0.002,-0.003,1023
2018,5,16,19,21,17.274,-0.4493,0.3574,0.181,0.7984,-0.1,0.4,0.8,0.007,-0.011,-0.002,1023
2018,5,16,19,21,17.312,-0.4494,0.3574,0.181,0.7983,-0.4,0.6,0.9,0.006,-0.009,-0.006,1023
2018,5,16,19,21,17.332,-0.4494,0.3575,0.181,0.7983,-0.4,0.8,0.8,0.006,-0.01,-0.003,1023
2018,5,16,19,21,17.336,-0.4492,0.3577,0.1811,0.7983,-0.7,0.6,1,0.007,-0.006,-0.004,1023
2018,5,16,19,21,17.353,-0.4494,0.3577,0.181,0.7982,-0.5,0.8,0.8,0.01,-0.004,-0.001,1023
2018,5,16,19,21,17.371,-0.4495,0.3577,0.181,0.7982,0,0.6,0.8,0.004,-0.003,-0.004,1023
2018,5,16,19,21,17.391,-0.4495,0.3576,0.1812,0.7981,0.3,0.3,0.9,0.007,-0.005,-0.006,1023
2018,5,16,19,21,17.428,-0.4493,0.3578,0.1815,0.7981,0,0,1,0.002,-0.006,-0.012,1023
2018,5,16,19,21,17.449,-0.4493,0.3578,0.1814,0.7981,-0.4,-0.1,0.8,0.006,-0.011,-0.008,1023
2018,5,16,19,21,17.453,-0.4493,0.3578,0.1814,0.7981,-1,-0.2,0.7,0.007,-0.005,-0.009,1023
2018,5,16,19,21,17.492,-0.4494,0.3577,0.1812,0.7981,-1,-0.4,0.7,0.005,-0.006,0,1023
2018,5,16,19,21,17.512,-0.4494,0.3577,0.1811,0.7982,-1.6,-0.2,0.7,0.012,-0.003,-0.009,1023
2018,5,16,19,21,17.516,-0.4494,0.3578,0.1809,0.7982,-1.2,0,0.5,0.008,-0.009,-0.003,1023
2018,5,16,19,21,17.537,-0.4494,0.3578,0.1808,0.7982,-1.2,0.1,0.4,0.009,0,0.007,1023
2018,5,16,19,21,17.556,-0.4495,0.3578,0.1807,0.7982,-0.5,0.1,0.3,0.001,0,0.001,1023
2018,5,16,19,21,17.595,-0.4494,0.3579,0.1808,0.7982,-0.8,0.4,0.2,0.006,-0.005,-0.006,1023
2018,5,16,19,21,17.614,-0.4494,0.3581,0.1807,0.7981,-0.7,0.6,0,0.003,-0.014,-0.001,1023
2018,5,16,19,21,17.618,-0.4495,0.3583,0.1806,0.798,-0.9,0.6,0,-0.003,-0.008,0.005,0
2018,5,16,19,21,17.639,-0.4494,0.3585,0.1806,0.7979,-1.4,0.6,0,0.002,-0.003,-0.006,0
2018,5,16,19,21,17.659,-0.4495,0.3586,0.1804,0.7979,-1,0.7,0,0.007,-0.007,-0.01,0
2018,5,16,19,21,17.675,-0.4496,0.3588,0.1803,0.7978,-0.9,0.9,0,0.012,-0.006,-0.007,0
2018,5,16,19,21,17.695,-0.4498,0.3589,0.1802,0.7977,-0.6,0.8,0.2,0.01,-0.006,-0.004,0
2018,5,16,19,21,17.715,-0.4499,0.359,0.1801,0.7975,-0.3,0.8,0.2,0.002,-0.008,-0.003,0
2018,5,16,19,21,17.752,-0.45,0.3591,0.1801,0.7975,-0.7,0.4,0.4,-0.001,-0.007,-0.001,0
2018,5,16,19,21,17.773,-0.45,0.3592,0.18,0.7974,-1.2,0.3,0.5,0.006,-0.009,-0.004,0
2018,5,16,19,21,17.777,-0.4497,0.3595,0.1801,0.7974,-0.8,0.3,0.7,0.002,-0.008,0.002,0
2018,5,16,19,21,17.797,-0.4498,0.3594,0.18,0.7974,-0.4,0.1,0.9,0.004,0,0.002,0
2018,5,16,19,21,17.818,-0.4498,0.3594,0.1801,0.7974,0,0.1,0.9,0.005,0,-0.004,0
2018,5,16,19,21,17.856,-0.4499,0.3594,0.1801,0.7974,-0.5,0.3,0.5,0.009,-0.003,-0.009,0
2018,5,16,19,21,17.858,-0.45,0.3594,0.1801,0.7974,-0.4,0.6,0.3,0.007,-0.006,-0.003,0
2018,5,16,19,21,17.876,-0.4501,0.3594,0.1801,0.7973,-0.4,0.6,0.3,0.006,-0.004,-0.001,0
2018,5,16,19,21,17.914,-0.4502,0.3595,0.18,0.7972,-0.6,0.6,0.1,0.008,-0.003,-0.01,0
2018,5,16,19,21,17.933,-0.4502,0.3596,0.18,0.7971,-1.2,0.5,0.2,0.006,-0.004,-0.009,0
2018,5,16,19,21,17.936,-0.4502,0.3598,0.1799,0.797,-1,0.7,0.2,0.007,-0.01,-0.005,0
2018,5,16,19,21,17.976,-0.4504,0.3599,0.1798,0.797,-0.4,0.6,0.4,0.004,-0.006,0.001,0
2018,5,16,19,21,17.997,-0.4503,0.36,0.1799,0.7969,-0.6,0.4,0.5,0.004,-0.002,-0.011,0
2018,5,16,19,21,18.001,-0.4503,0.3601,0.1799,0.7969,-1.1,0.3,0.7,0,-0.006,-0.01,0
2018,5,16,19,21,18.021,-0.4503,0.3602,0.1798,0.7969,-0.9,0.2,0.5,0.002,-0.009,-0.002,0
2018,5,16,19,21,18.039,-0.4504,0.3602,0.1796,0.7968,-0.5,0.1,0.4,0.003,-0.009,0.001,1023
2018,5,16,19,21,18.062,-0.4504,0.3602,0.1796,0.7968,-0.5,-0.1,0.6,0.008,-0.003,-0.002,1023
2018,5,16,19,21,18.081,-0.4505,0.3601,0.1796,0.7968,-0.1,0,0.7,0.01,-0.007,-0.009,1023
2018,5,16,19,21,18.099,-0.4505,0.3601,0.1796,0.7968,-0.2,0.2,0.7,0.009,-0.009,-0.016,1023
2018,5,16,19,21,18.118,-0.4504,0.3603,0.1797,0.7968,-0.6,0.6,1,0.008,-0.005,-0.005,1023
2018,5,16,19,21,18.154,-0.4504,0.3604,0.1798,0.7967,-0.2,0.8,1.1,0.006,-0.01,-0.003,1023
2018,5,16,19,21,18.175,-0.4503,0.3605,0.1798,0.7967,-0.4,1,0.9,0.004,-0.003,-0.008,1023
2018,5,16,19,21,18.179,-0.4504,0.3606,0.1798,0.7966,-0.7,1.1,0.9,0.006,-0.011,-0.003,1023
2018,5,16,19,21,18.2,-0.4504,0.3606,0.1799,0.7966,-0.4,0.9,0.7,0.003,0,0.011,1023
2018,5,16,19,21,18.22,-0.4504,0.3607,0.18,0.7965,0.2,1.1,0.7,0.004,-0.006,-0.005,1023
2018,5,16,19,21,18.243,-0.4504,0.3608,0.1802,0.7964,0,0.8,0.8,0.002,-0.004,-0.002,1023
2018,5,16,19,21,18.263,-0.4505,0.3609,0.1803,0.7963,0.5,0.8,0.9,0.006,-0.006,-0.007,1023
2018,5,16,19,21,18.281,-0.4504,0.361,0.1805,0.7963,0,0.4,1.1,0.004,-0.01,0,1023
2018,5,16,19,21,18.303,-0.4504,0.3609,0.1805,0.7963,-0.2,0.2,1.1,0.009,-0.005,-0.01,1023
2018,5,16,19,21,18.324,-0.4505,0.3608,0.1805,0.7963,0,0.4,1.3,0.009,-0.006,-0.006,1023
2018,5,16,19,21,18.343,-0.4506,0.3607,0.1805,0.7963,0.1,0,1.3,0.003,0.003,-0.001,1023
2018,5,16,19,21,18.364,-0.4505,0.3607,0.1807,0.7963,0,0.2,1,0.013,0,-0.003,1023
2018,5,16,19,21,18.386,-0.4505,0.3606,0.1809,0.7963,-0.1,0.5,1,0.013,-0.002,-0.007,1023
2018,5,16,19,21,18.406,-0.4504,0.3607,0.1811,0.7963,0,0.4,0.8,0.006,-0.006,-0.001,1023
2018,5,16,19,21,18.426,-0.4503,0.3608,0.1813,0.7963,0,0.4,0.9,0.004,-0.005,-0.004,0
2018,5,16,19,21,18.443,-0.4503,0.3608,0.1814,0.7962,0.3,0.3,1.1,0.005,-0.004,-0.004,0
2018,5,16,19,21,18.461,-0.4504,0.3607,0.1814,0.7962,0.2,0.3,1.3,0.006,-0.009,-0.006,0
2018,5,16,19,21,18.499,-0.4505,0.3607,0.1815,0.7962,0,0.3,1.1,0.004,-0.005,-0.007,0
2018,5,16,19,21,18.52,-0.4505,0.3607,0.1816,0.7961,0,0.2,1.1,0.006,-0.004,-0.004,0
2018,5,16,19,21,18.523,-0.4505,0.3606,0.1817,0.7961,0,0.1,1,0.003,-0.003,0,0
2018,5,16,19,21,18.543,-0.4506,0.3605,0.1817,0.7961,-0.2,-0.3,1.1,0.007,-0.005,-0.008,0
2018,5,16,19,21,18.562,-0.4507,0.3604,0.1816,0.7961,-0.1,-0.2,1.1,0.005,-0.007,-0.011,0
2018,5,16,19,21,18.602,-0.4506,0.3604,0.1817,0.7962,-0.4,-0.4,1.4,0.004,-0.008,-0.007,0
2018,5,16,19,21,18.622,-0.4505,0.3603,0.1817,0.7963,-0.1,-0.2,1.5,0.008,-0.008,0.002,0
2018,5,16,19,21,18.625,-0.4504,0.3602,0.1818,0.7964,0,-0.4,1.9,0.008,-0.002,0,0
2018,5,16,19,21,18.643,-0.4503,0.36,0.1819,0.7965,0.1,-0.3,2,0.005,-0.003,-0.003,0
2018,5,16,19,21,18.663,-0.4502,0.3598,0.1821,0.7966,0.7,0,2.1,0.008,-0.015,-0.002,0
2018,5,16,19,21,18.682,-0.4501,0.3597,0.1823,0.7966,0.4,0,1.7,0.011,-0.009,0,0
2018,5,16,19,21,18.703,-0.4501,0.3596,0.1825,0.7967,-0.1,-0.1,1.3,0.009,0.001,-0.007,0
2018,5,16,19,21,18.743,-0.45,0.3595,0.1826,0.7967,-0.1,0,1.1,0.01,0,-0.009,0
2018,5,16,19,21,18.764,-0.4499,0.3596,0.1828,0.7967,-0.4,0.3,0.6,0.012,-0.003,-0.011,0
2018,5,16,19,21,18.768,-0.4499,0.3597,0.1829,0.7966,0,0,0,0.011,-0.003,-0.006,0
2018,5,16,19,21,18.785,-0.4499,0.3598,0.183,0.7965,-0.9,0.4,0.2,0.009,0.001,-0.01,0
2018,5,16,19,21,18.823,-0.4499,0.3599,0.183,0.7965,-1.3,0.2,0.2,0.005,-0.005,-0.011,0
2018,5,16,19,21,18.845,-0.4499,0.3602,0.1828,0.7964,-2.1,-0.2,0,0,-0.008,-0.007,0
2018,5,16,19,21,18.849,-0.4499,0.3603,0.1825,0.7965,-2.6,-0.8,0,0.005,-0.002,-0.001,0
2018,5,16,19,21,18.863,-0.4497,0.3605,0.1822,0.7965,-2.1,-0.7,0.3,0.007,-0.007,0.002,1023
2018,5,16,19,21,18.901,-0.4497,0.3605,0.1819,0.7966,-1.5,-0.6,0.3,0.01,-0.005,-0.005,1023
2018,5,16,19,21,18.921,-0.4497,0.3605,0.1817,0.7966,-1.2,-0.4,0.4,0.005,-0.009,-0.006,1023
2018,5,16,19,21,18.925,-0.4496,0.3606,0.1816,0.7967,-1.3,-0.4,0.7,0.003,-0.012,0,1023
2018,5,16,19,21,18.944,-0.4494,0.3608,0.1815,0.7967,-1.4,-0.1,0.8,0,-0.01,0.007,1023
2018,5,16,19,21,18.964,-0.4493,0.3609,0.1815,0.7968,-0.6,0.1,0.7,0.007,-0.009,0.001,1023
2018,5,16,19,21,18.985,-0.4494,0.3608,0.1813,0.7967,-0.3,0.3,0.7,0.007,-0.013,0.005,1023
2018,5,16,19,21,19.006,-0.4496,0.3607,0.1813,0.7967,0.1,0.4,0.8,0.004,0,-0.001,1023
2018,5,16,19,21,19.042,-0.4496,0.3607,0.1814,0.7967,0.3,0.2,0.7,0.01,-0.007,-0.001,1023
2018,5,16,19,21,19.061,-0.4498,0.3606,0.1815,0.7966,0.8,0.1,0.9,0.006,-0.005,-0.008,1023
2018,5,16,19,21,19.066,-0.4499,0.3605,0.1816,0.7966,0.2,0,1.1,0.007,-0.004,-0.008,1023
2018,5,16,19,21,19.105,-0.4499,0.3604,0.1817,0.7966,-0.2,-0.2,1.4,0.011,-0.004,-0.011,1023
2018,5,16,19,21,19.125,-0.4499,0.3603,0.1817,0.7966,0.2,0,1.6,0.008,-0.008,-0.011,1023
2018,5,16,19,21,19.129,-0.4499,0.3602,0.1818,0.7966,-0.2,-0.2,1.4,0.004,-0.004,-0.004,1023
2018,5,16,19,21,19.168,-0.4498,0.3601,0.1817,0.7967,-0.3,-0.2,1.6,0.007,-0.005,0.002,1023
2018,5,16,19,21,19.172,-0.4498,0.3599,0.1817,0.7968,0,-0.4,1.7,0.004,-0.009,0.003,1023
2018,5,16,19,21,19.187,-0.4498,0.3597,0.1818,0.7969,0.6,-0.1,1.4,0.004,-0.004,0.006,1023
2018,5,16,19,21,19.226,-0.4499,0.3595,0.1818,0.797,-0.1,-0.6,1,0.001,-0.005,0.002,1023
2018,5,16,19,21,19.246,-0.4499,0.3594,0.1818,0.797,-0.9,-0.6,0.7,0.003,-0.001,-0.009,1023
2018,5,16,19,21,19.25,-0.4498,0.3594,0.1818,0.797,-1.2,-0.3,0.6,0.003,-0.001,-0.002,0
2018,5,16,19,21,19.269,-0.4497,0.3595,0.1816,0.7971,-1.4,-0.5,0.7,0.006,-0.01,-0.007,0
2018,5,16,19,21,19.288,-0.4497,0.3596,0.1814,0.7971,0,0,0,0.013,-0.022,-0.014,0
2018,5,16,19,21,19.326,-0.4498,0.3596,0.1815,0.797,-0.9,-0.7,0,0.006,0.008,0,0
2018,5,16,19,21,19.347,-0.4498,0.3595,0.1814,0.7971,-0.8,-0.7,0.8,0.006,0,-0.019,0
2018,5,16,19,21,19.351,-0.4498,0.3594,0.1814,0.7971,-0.1,-0.6,1.2,0.01,-0.012,-0.013,0
2018,5,16,19,21,19.372,-0.4497,0.3594,0.1814,0.7972,-0.7,-0.6,1,0.006,-0.009,-0.008,0
2018,5,16,19,21,19.392,-0.4496,0.3594,0.1814,0.7973,-0.7,-0.6,1.1,0.004,-0.007,0,0
2018,5,16,19,21,19.409,-0.4496,0.3592,0.1813,0.7973,-0.7,-0.7,1.1,0.005,-0.002,0.005,0
2018,5,16,19,21,19.429,-0.4494,0.3592,0.1813,0.7975,-0.8,-0.8,1.3,0.007,-0.008,-0.001,0
2018,5,16,19,21,19.45,-0.4493,0.3591,0.1812,0.7976,-0.6,-0.3,1,0.007,-0.004,-0.003,0
2018,5,16,19,21,19.469,-0.4492,0.3591,0.1812,0.7976,-0.3,0,1,0.008,-0.007,0,0
2018,5,16,19,21,19.509,-0.4494,0.359,0.1812,0.7976,-0.2,0,0.8,0.007,-0.004,0,0
2018,5,16,19,21,19.512,-0.4493,0.3589,0.1813,0.7977,0.1,0,1,0.008,-0.004,0.001,0
2018,5,16,19,21,19.528,-0.4494,0.3587,0.1818,0.7976,0.1,-0.2,0.8,0.001,-0.007,-0.01,0
2018,5,16,19,21,19.564,-0.4495,0.3585,0.1818,0.7976,-0.4,-0.7,1,0.004,-0.005,-0.005,0
2018,5,16,19,21,19.583,-0.4495,0.3584,0.1817,0.7977,-0.9,-1.2,0.8,0.01,-0.007,-0.01,0
2018,5,16,19,21,19.593,-0.4494,0.3583,0.1816,0.7978,-0.8,-1.1,0.7,0.009,0.001,-0.015,0
2018,5,16,19,21,19.608,-0.4495,0.3582,0.1815,0.7979,-1.3,-0.9,0.8,0.009,0.001,-0.008,0
2018,5,16,19,21,19.646,-0.4494,0.3581,0.1813,0.798,-1,-0.9,0.7,0.005,-0.011,0.005,0
2018,5,16,19,21,19.666,-0.4495,0.358,0.1811,0.798,-0.9,-1,0.4,0.001,-0.007,0.007,0
2018,5,16,19,21,19.669,-0.4497,0.3577,0.1808,0.7981,-0.8,-0.9,0.2,0.003,-0.004,-0.003,0
2018,5,16,19,21,19.708,-0.4499,0.3576,0.1806,0.7981,-1.3,-0.5,0.1,0.007,0.001,-0.005,0
2018,5,16,19,21,19.728,-0.4499,0.3576,0.1804,0.7981,-1.1,0,0.5,0.005,-0.007,-0.01,1023
2018,5,16,19,21,19.731,-0.45,0.3577,0.1803,0.7981,-1.3,0,0.3,0.01,-0.009,0,1023
2018,5,16,19,21,19.751,-0.4501,0.3577,0.1801,0.7981,-0.9,0,0.4,0.011,-0.002,-0.003,1023
2018,5,16,19,21,19.771,-0.4501,0.3576,0.18,0.7981,-0.2,-0.1,0.7,0.006,-0.007,-0.004,1023
2018,5,16,19,21,19.807,-0.4502,0.3576,0.1799,0.7981,-0.4,-0.2,1.3,0.007,-0.008,-0.005,1023
2018,5,16,19,21,19.829,-0.4502,0.3575,0.1799,0.7981,-0.4,-0.3,1.4,0.001,-0.008,0.002,1023
2018,5,16,19,21,19.832,-0.4501,0.3574,0.1799,0.7982,-0.1,-0.3,1.4,0.006,-0.007,0.003,1023
2018,5,16,19,21,19.869,-0.45,0.3573,0.1799,0.7983,-0.1,-0.2,1.9,0.003,-0.006,-0.001,1023
2018,5,16,19,21,19.889,-0.45,0.3572,0.18,0.7984,0.3,0,1.7,0.004,-0.012,0.002,1023
2018,5,16,19,21,19.895,-0.4499,0.3571,0.1801,0.7984,0.1,0,1.7,0.003,-0.008,0.004,1023
2018,5,16,19,21,19.911,-0.45,0.3569,0.1802,0.7984,0.5,0.3,1.6,0.008,-0.004,0,1023
2018,5,16,19,21,19.95,-0.45,0.3567,0.1804,0.7985,0.6,0.4,1.6,0.006,0,-0.007,1023
2018,5,16,19,21,19.971,-0.4499,0.3567,0.1807,0.7984,0.9,0.4,1.2,0.012,-0.008,-0.006,1023
2018,5,16,19,21,19.976,-0.4498,0.3568,0.181,0.7984,0.4,0.4,1.2,0.01,-0.002,-0.013,1023
2018,5,16,19,21,19.993,-0.4496,0.3569,0.1813,0.7984,0,0.2,1.1,0.007,-0.003,-0.012,1023
2018,5,16,19,21,20.013,-0.4496,0.3569,0.1814,0.7984,0,0.1,1.4,0.006,0,-0.01,1023
2018,5,16,19,21,20.036,-0.4496,0.3568,0.1815,0.7984,-0.2,0,1.4,0.01,-0.003,-0.009,1023
2018,5,16,19,21,20.055,-0.4495,0.3568,0.1816,0.7984,-0.6,0.1,1.1,0.012,0,-0.015,1023
2018,5,16,19,21,20.076,-0.4494,0.3568,0.1817,0.7985,-0.5,0.1,1,0.005,-0.001,-0.008,1023
2018,5,16,19,21,20.113,-0.4492,0.3569,0.1818,0.7985,-0.3,0.3,0.9,0.001,-0.008,-0.001,0
2018,5,16,19,21,20.134,-0.4493,0.3569,0.1817,0.7985,-0.4,-0.1,0.8,0.002,-0.008,0.003,0
2018,5,16,19,21,20.138,-0.4492,0.3569,0.1818,0.7985,0,-0.4,0.9,0.003,-0.011,0.005,0
2018,5,16,19,21,20.157,-0.4491,0.3568,0.1819,0.7986,0,-0.8,1.1,0.001,-0.003,-0.003,0
2018,5,16,19,21,20.176,-0.4492,0.3566,0.1819,0.7986,-0.6,-0.6,1.6,0.003,-0.004,-0.011,0
2018,5,16,19,21,20.196,-0.4491,0.3566,0.1818,0.7987,-0.9,-0.7,1.9,0.006,-0.005,-0.005,0
2018,5,16,19,21,20.214,-0.4489,0.3564,0.1817,0.7989,-0.6,-0.6,1.9,0.005,-0.006,0.001,0
2018,5,16,19,21,20.234,-0.4488,0.3563,0.1817,0.799,-0.6,-0.7,1.8,0.005,-0.005,-0.002,0
2018,5,16,19,21,20.273,-0.4487,0.3561,0.1816,0.7991,-0.2,-0.7,1.6,0.007,-0.005,-0.007,0
2018,5,16,19,21,20.295,-0.4486,0.356,0.1817,0.7992,-0.4,-0.5,1.3,0.013,-0.004,-0.008,0
2018,5,16,19,21,20.299,-0.4486,0.3559,0.1818,0.7993,-0.1,-0.4,1,0.012,0.004,-0.003,0
2018,5,16,19,21,20.318,-0.4485,0.3559,0.1819,0.7993,0.3,0.3,1.2,0.01,-0.003,-0.007,0
2018,5,16,19,21,20.338,-0.4482,0.356,0.1823,0.7993,0.1,0.7,1.6,0.004,-0.009,0.004,0
2018,5,16,19,21,20.377,-0.4481,0.3561,0.1824,0.7993,-0.4,0.8,1.4,0,-0.016,0,0
2018,5,16,19,21,20.397,-0.448,0.3562,0.1825,0.7993,0.1,0.6,1.5,0.003,-0.008,0.002,0
2018,5,16,19,21,20.401,-0.4479,0.3562,0.1827,0.7993,0,0.8,1.6,0.001,-0.004,-0.003,0
2018,5,16,19,21,20.416,-0.4477,0.3563,0.1829,0.7993,0.4,0.6,1.4,0.007,-0.011,-0.003,0
2018,5,16,19,21,20.455,-0.448,0.3561,0.1829,0.7993,0,0.4,1,0.007,-0.003,-0.004,0
2018,5,16,19,21,20.474,-0.448,0.3561,0.183,0.7993,-0.2,0,0.7,0.009,-0.001,-0.006,0
2018,5,16,19,21,20.478,-0.448,0.356,0.1831,0.7993,0,0,0.9,0.012,-0.005,-0.01,0
2018,5,16,19,21,20.496,-0.448,0.356,0.1832,0.7993,0,-0.1,1,0.009,-0.011,-0.009,0
2018,5,16,19,21,20.533,-0.448,0.3559,0.1832,0.7993,-0.2,-0.4,0.9,0.007,-0.005,-0.008,0
2018,5,16,19,21,20.554,-0.4481,0.3559,0.1832,0.7993,-0.4,-0.1,0.9,0.001,-0.001,-0.009,1023
2018,5,16,19,21,20.56,-0.4482,0.3557,0.183,0.7993,-0.7,-0.1,0.7,0.007,-0.001,-0.008,1023
2018,5,16,19,21,20.579,-0.4483,0.3557,0.1829,0.7993,-1.2,0,0.6,0.006,-0.006,-0.009,1023
2018,5,16,19,21,20.599,-0.4482,0.3557,0.1828,0.7993,-1,-0.1,0.5,0.008,-0.002,-0.001,1023
2018,5,16,19,21,20.639,-0.4482,0.3557,0.1827,0.7994,-1,-0.1,0.6,0.008,0,-0.007,1023
2018,5,16,19,21,20.644,-0.4483,0.3557,0.1827,0.7993,-0.6,-0.1,0.7,0.005,-0.008,-0.011,1023
2018,5,16,19,21,20.659,-0.4483,0.3558,0.1826,0.7993,-0.4,0.1,0.6,0.001,-0.011,0.004,1023
2018,5,16,19,21,20.678,-0.4483,0.3558,0.1825,0.7993,-1,-0.4,0.7,0,-0.01,0.002,1023
2018,5,16,19,21,20.697,-0.4483,0.3558,0.1824,0.7994,-1,-0.3,0.7,0.009,-0.005,-0.006,1023
2018,5,16,19,21,20.718,-0.4483,0.3558,0.1822,0.7994,-1,-0.1,0.9,0.006,-0.005,-0.009,1023
2018,5,16,19,21,20.738,-0.4483,0.3558,0.1821,0.7994,-1.5,0,0.7,0.007,-0.005,-0.004,1023
2018,5,16,19,21,20.777,-0.4483,0.3558,0.1819,0.7995,-1.5,-0.2,0.7,0.008,-0.001,-0.007,1023
2018,5,16,19,21,20.796,-0.4484,0.3558,0.1817,0.7995,-1,-0.1,0.4,0.009,0,0,1023
2018,5,16,19,21,20.8,-0.4485,0.3557,0.1816,0.7995,-0.2,-0.1,0.8,0.003,-0.008,0.009,1023
2018,5,16,19,21,20.82,-0.4486,0.3556,0.1815,0.7995,0,-0.2,1,0.001,-0.012,0.003,1023
2018,5,16,19,21,20.84,-0.4485,0.3556,0.1815,0.7996,-0.2,-0.2,1.3,0.001,-0.012,0.002,1023
2018,5,16,19,21,20.875,-0.4486,0.3554,0.1814,0.7996,-0.4,-0.2,1.6,0.006,-0.009,0,1023
2018,5,16,19,21,20.897,-0.4485,0.3554,0.1815,0.7996,-0.4,0.2,1.7,0.006,-0.005,-0.005,1023
2018,5,16,19,21,20.904,-0.4484,0.3554,0.1816,0.7997,-0.1,0.4,1.3,0.007,-0.004,-0.002,1023
2018,5,16,19,21,20.942,-0.4484,0.3553,0.1817,0.7997,0.3,0.3,1.1,0.005,-0.004,0.003,1023
2018,5,16,19,21,20.961,-0.4483,0.3554,0.1819,0.7996,0.1,0.3,0.8,0.006,0,-0.007,0
2018,5,16,19,21,20.966,-0.4483,0.3554,0.1821,0.7996,-0.2,0.3,0.8,0.009,0,-0.011,0
2018,5,16,19,21,20.981,-0.4483,0.3555,0.1822,0.7996,0,0.4,0.7,0.011,-0.007,-0.008,0
2018,5,16,19,21,21.021,-0.4484,0.3555,0.1822,0.7995,0,0.4,0.9,0.005,-0.002,-0.002,0
2018,5,16,19,21,21.041,-0.4484,0.3555,0.1823,0.7995,-0.2,0.3,1.1,0.004,-0.009,0,0
2018,5,16,19,21,21.046,-0.4484,0.3555,0.1823,0.7995,-0.6,0,1.2,0.004,-0.003,-0.007,0
2018,5,16,19,21,21.063,-0.4484,0.3554,0.1823,0.7995,-0.4,0,1.1,0.007,-0.009,-0.003,0
2018,5,16,19,21,21.1,-0.4482,0.3555,0.1824,0.7996,0,0.1,1,0.009,-0.003,0,0
2018,5,16,19,21,21.121,-0.4482,0.3554,0.1825,0.7996,0.1,0.1,1.1,0.007,-0.003,-0.002,0
2018,5,16,19,21,21.125,-0.4482,0.3554,0.1826,0.7996,-0.3,0.1,1.1,0.004,-0.001,-0.012,0
2018,5,16,19,21,21.145,-0.4482,0.3554,0.1826,0.7995,-0.4,0.5,1,0.005,-0.005,-0.009,0
2018,5,16,19,21,21.164,-0.4483,0.3554,0.1826,0.7995,-0.1,0.4,0.8,0.003,-0.006,0.003,0
2018,5,16,19,21,21.181,-0.4482,0.3555,0.1827,0.7995,-0.2,0.6,0.7,0,-0.009,-0.001,0
2018,5,16,19,21,21.218,-0.4481,0.3556,0.1828,0.7995,-0.2,0.2,0.7,0.001,-0.006,-0.007,0
2018,5,16,19,21,21.239,-0.448,0.3557,0.1829,0.7994,-0.4,0.3,0.7,0.008,-0.004,-0.011,0
2018,5,16,19,21,21.243,-0.4479,0.3559,0.1831,0.7994,-0.7,0.4,0.7,0.009,0,-0.01,0
2018,5,16,19,21,21.263,-0.4477,0.3561,0.1832,0.7994,-0.6,0.3,0.5,0.004,-0.004,-0.006,0
2018,5,16,19,21,21.285,-0.4478,0.3561,0.1832,0.7994,-0.1,0.1,0.7,0.003,-0.003,0.003,0
2018,5,16,19,21,21.305,-0.4479,0.3559,0.1831,0.7994,-0.6,0,0.7,0.001,-0.007,0.002,0
2018,5,16,19,21,21.344,-0.448,0.3559,0.183,0.7994,-0.3,0.2,1,0.004,-0.016,0.001,0
2018,5,16,19,21,21.363,-0.4481,0.3558,0.1829,0.7993,0,0.1,1.1,0.001,-0.008,0.007,0
2018,5,16,19,21,21.368,-0.448,0.3558,0.183,0.7994,0,0,1.4,0.003,-0.004,-0.001,1023
2018,5,16,19,21,21.387,-0.448,0.3557,0.1832,0.7994,0.9,0.4,1.6,0.001,-0.008,-0.003,1023
2018,5,16,19,21,21.406,-0.4479,0.3558,0.1834,0.7994,-0.3,0.5,1.1,0.006,-0.01,-0.019,1023
2018,5,16,19,21,21.421,-0.4479,0.3557,0.1845,0.7991,0.3,0.1,0.7,0.01,0.002,-0.011,1023
2018,5,16,19,21,21.461,-0.448,0.3558,0.1846,0.7991,0,0.1,0.5,0.005,-0.014,-0.007,1023
2018,5,16,19,21,21.48,-0.448,0.3557,0.1846,0.7991,-0.7,-0.2,0.5,0.007,-0.005,-0.001,1023
2018,5,16,19,21,21.484,-0.4481,0.3557,0.1844,0.7991,-1.4,-0.7,0,0.01,-0.003,-0.008,1023
2018,5,16,19,21,21.522,-0.448,0.3558,0.1842,0.7991,-2,-0.4,-0.2,0.009,-0.002,-0.013,1023
2018,5,16,19,21,21.543,-0.4479,0.3561,0.184,0.7991,-1.8,0,0,0.008,-0.004,0,1023
2018,5,16,19,21,21.547,-0.4479,0.3562,0.1838,0.7991,-1.6,0,0,0,-0.012,0.008,1023
2018,5,16,19,21,21.568,-0.4479,0.3563,0.1835,0.7991,-1.3,-0.1,0.3,0.002,-0.01,0.011,1023
2018,5,16,19,21,21.588,-0.448,0.3563,0.1833,0.7991,-1.6,-0.2,0.2,0,-0.004,0,1023
2018,5,16,19,21,21.627,-0.4481,0.3563,0.1831,0.7991,-1.3,0.1,0.2,0.005,-0.003,-0.003,1023
2018,5,16,19,21,21.654,-0.4482,0.3564,0.1829,0.7991,-0.9,0.3,0,0.007,-0.008,-0.013,1023
2018,5,16,19,21,21.67,-0.4482,0.3566,0.1829,0.799,-1,0.4,0.2,0.014,-0.001,-0.011,1023
2018,5,16,19,21,21.673,-0.4483,0.3566,0.1827,0.7989,-1.2,0.5,0,0.009,-0.004,-0.006,1023
2018,5,16,19,21,21.687,-0.4484,0.3567,0.1826,0.7989,-0.5,0.5,0.1,0.008,-0.009,0.001,1023
2018,5,16,19,21,21.721,-0.4485,0.3568,0.1826,0.7988,-0.1,0.4,0.5,0.002,-0.012,0.001,1023
2018,5,16,19,21,21.743,-0.4486,0.3568,0.1825,0.7987,-0.5,0.3,0.5,0.005,-0.01,-0.001,1023
2018,5,16,19,21,21.747,-0.4486,0.3569,0.1825,0.7987,-0.5,0.4,0.4,0.008,-0.004,-0.008,1023
2018,5,16,19,21,21.783,-0.4485,0.357,0.1826,0.7986,-0.5,0.6,0.5,0.012,-0.002,-0.004,0
2018,5,16,19,21,21.804,-0.4487,0.357,0.1827,0.7986,0.5,0.9,0.4,0.009,-0.005,0.003,0
2018,5,16,19,21,21.807,-0.4488,0.357,0.1829,0.7985,0.8,0.4,0.5,0.004,-0.01,0,0
2018,5,16,19,21,21.845,-0.4488,0.3571,0.183,0.7984,-0.1,-0.1,0.5,0.004,-0.004,-0.007,0
2018,5,16,19,21,21.864,-0.4488,0.3571,0.183,0.7983,-0.7,0,0.6,0.009,-0.004,-0.014,0
2018,5,16,19,21,21.867,-0.4489,0.3571,0.183,0.7983,-0.8,0,0.8,0.009,-0.004,-0.004,0
2018,5,16,19,21,21.904,-0.4487,0.3572,0.183,0.7983,-0.6,0,0.9,0.005,-0.003,-0.006,0
2018,5,16,19,21,21.926,-0.4488,0.3572,0.1829,0.7984,-0.9,-0.1,1,0.007,-0.003,-0.001,0
2018,5,16,19,21,21.93,-0.4488,0.3571,0.1828,0.7984,-1,0,0.7,0.007,-0.008,-0.005,0
2018,5,16,19,21,21.947,-0.4488,0.3572,0.1827,0.7984,-1.1,0,0.6,0.008,0,-0.009,0
2018,5,16,19,21,21.968,-0.4488,0.3572,0.1827,0.7984,-0.9,0.2,0.5,0.011,-0.004,-0.007,0
2018,5,16,19,21,22.008,-0.4488,0.3573,0.1826,0.7984,-0.3,0.3,0.7,0.006,-0.006,-0.001,0
2018,5,16,19,21,22.012,-0.4488,0.3573,0.1826,0.7984,-0.5,0.1,0.9,0.001,-0.011,0,0
2018,5,16,19,21,22.03,-0.4487,0.3574,0.1826,0.7984,-0.6,-0.1,0.7,0.001,-0.005,0.005,0
2018,5,16,19,21,22.07,-0.4488,0.3573,0.1825,0.7984,-0.9,-0.1,0.5,0.004,-0.007,0.001,0
2018,5,16,19,21,22.089,-0.4487,0.3574,0.1825,0.7984,-0.6,0,0.8,0.006,-0.002,-0.007,0
2018,5,16,19,21,22.092,-0.4487,0.3574,0.1825,0.7984,-0.2,0.3,1,0.008,-0.006,-0.006,0
2018,5,16,19,21,22.111,-0.4485,0.3575,0.1826,0.7984,0,0.4,1.3,0.006,-0.012,-0.003,0
2018,5,16,19,21,22.132,-0.4484,0.3576,0.1828,0.7984,0.3,0.6,1.6,0.005,-0.013,-0.002,0
2018,5,16,19,21,22.153,-0.4482,0.3577,0.183,0.7984,0.4,0.6,1.9,0.003,-0.006,-0.007,0
2018,5,16,19,21,22.173,-0.4481,0.3576,0.1833,0.7985,0.1,0.6,2.1,0.007,-0.006,-0.008,0
2018,5,16,19,21,22.189,-0.4479,0.3576,0.1835,0.7985,0.9,0.8,2,0.009,-0.01,0.005,0
2018,5,16,19,21,22.209,-0.4479,0.3575,0.1838,0.7985,1.1,0.1,1.6,0.005,-0.001,-0.002,0
2018,5,16,19,21,22.228,-0.4478,0.3573,0.1841,0.7986,0.6,-0.2,1.9,0.003,0,-0.01,1023
2018,5,16,19,21,22.266,-0.4477,0.3572,0.1843,0.7986,0.3,-0.3,1.8,0.007,-0.009,-0.018,1023
2018,5,16,19,21,22.287,-0.4477,0.3571,0.1844,0.7987,0.1,-0.2,1.3,0.009,-0.013,-0.003,1023
2018,5,16,19,21,22.289,-0.4477,0.3569,0.1844,0.7987,-0.1,-0.3,1.3,0.006,-0.003,-0.002,1023
2018,5,16,19,21,22.328,-0.4478,0.3568,0.1844,0.7988,-0.4,-0.6,1.3,0.004,0.002,-0.005,1023
2018,5,16,19,21,22.347,-0.4478,0.3566,0.1842,0.7989,-1.3,-0.4,1.3,0.009,-0.001,-0.016,1023
2018,5,16,19,21,22.35,-0.4477,0.3566,0.1841,0.799,-1.5,-0.2,0.7,0.014,-0.001,-0.017,1023
2018,5,16,19,21,22.389,-0.4478,0.3565,0.1839,0.799,-1,0.3,0.5,0.009,0.004,-0.005,1023
2018,5,16,19,21,22.41,-0.4479,0.3565,0.1838,0.799,-0.6,0.3,0.8,0.004,-0.002,0,1023
2018,5,16,19,21,22.413,-0.4478,0.3566,0.1838,0.799,-0.8,0,0.7,-0.001,-0.011,0.003,1023
2018,5,16,19,21,22.45,-0.448,0.3565,0.1836,0.799,-0.9,-0.6,0.6,0.001,-0.013,0.003,1023
2018,5,16,19,21,22.452,-0.448,0.3565,0.1835,0.799,-0.7,-0.4,0.6,0.008,0,-0.009,1023
2018,5,16,19,21,22.472,-0.4479,0.3565,0.1834,0.799,-1.3,-0.6,0.6,0.007,0,-0.014,1023
2018,5,16,19,21,22.509,-0.4479,0.3566,0.1832,0.799,-1.5,-0.4,0.5,0.007,-0.007,-0.008,1023
2018,5,16,19,21,22.529,-0.4481,0.3565,0.1829,0.7991,-1.2,-0.4,0.3,0.008,-0.009,0,1023
2018,5,16,19,21,22.532,-0.4481,0.3565,0.1827,0.7991,-1.5,-0.8,0,0.005,0.001,-0.006,1023
2018,5,16,19,21,22.568,-0.4481,0.3565,0.1826,0.7991,-0.7,-0.6,0.1,0.011,-0.002,-0.012,1023
2018,5,16,19,21,22.589,-0.4481,0.3566,0.1826,0.7991,-0.7,0,0,0.008,-0.005,-0.014,1023
2018,5,16,19,21,22.596,-0.4483,0.3566,0.1824,0.799,-0.6,0.3,-0.1,0.002,-0.013,0.009,1023
2018,5,16,19,21,22.616,-0.4484,0.3567,0.1823,0.7989,-0.9,-0.1,0,-0.002,0,0.015,1023
2018,5,16,19,21,22.636,-0.4486,0.3566,0.1822,0.7989,-1,0,0.2,0.006,0.004,-0.005,0
2018,5,16,19,21,22.656,-0.4487,0.3566,0.182,0.7989,-0.8,0,0,0.008,-0.004,-0.006,0
2018,5,16,19,21,22.697,-0.4489,0.3565,0.1817,0.7988,-1,0,-0.3,0.015,-0.01,-0.006,0
2018,5,16,19,21,22.701,-0.4491,0.3565,0.1816,0.7988,-0.9,-0.2,-0.4,0.006,0.006,-0.011,0
2018,5,16,19,21,22.715,-0.4491,0.3567,0.1815,0.7987,-1.6,0,0,0.01,-0.003,-0.022,0
2018,5,16,19,21,22.733,-0.449,0.3569,0.1814,0.7987,-1.7,0,-0.1,0.014,-0.009,-0.008,0
2018,5,16,19,21,22.771,-0.4491,0.3571,0.1811,0.7986,-1.6,0.2,-0.2,0.01,-0.011,0.003,0
2018,5,16,19,21,22.792,-0.4491,0.3572,0.1809,0.7986,-1.2,0,0,0,-0.004,0.003,0
2018,5,16,19,21,22.797,-0.4489,0.3575,0.1809,0.7986,-1.5,0.2,0.1,0.004,-0.007,0,0
2018,5,16,19,21,22.818,-0.4491,0.3575,0.1806,0.7985,-1.2,0.2,-0.2,0.008,-0.004,0.001,0
2018,5,16,19,21,22.837,-0.4492,0.3577,0.1804,0.7985,-1.4,0.1,-0.3,0.006,-0.004,-0.005,0
2018,5,16,19,21,22.876,-0.4491,0.3579,0.1804,0.7985,-1,0,0,0.002,-0.002,-0.001,0
2018,5,16,19,21,22.896,-0.4492,0.3579,0.1802,0.7984,-1.3,-0.1,0,0.004,-0.012,0.003,0
2018,5,16,19,21,22.9,-0.4494,0.3579,0.1799,0.7984,-1,-0.4,0.2,0.006,-0.014,0.007,0
2018,5,16,19,21,22.919,-0.4494,0.3579,0.1797,0.7984,-0.6,-0.7,0.1,0.005,-0.006,-0.008,0
2018,5,16,19,21,22.936,-0.4496,0.3578,0.1794,0.7984,-1.4,-1,0.3,0.009,-0.007,-0.017,0
2018,5,16,19,21,22.954,-0.4497,0.3577,0.1792,0.7985,-1.5,-0.5,0.7,0.004,0,-0.002,0
2018,5,16,19,21,22.975,-0.4496,0.3578,0.1789,0.7985,-1.5,-0.6,0.8,0.007,-0.016,0.001,0
2018,5,16,19,21,23.014,-0.4496,0.3578,0.1787,0.7986,-1.6,-0.3,0.7,0.01,-0.005,-0.008,0
2018,5,16,19,21,23.033,-0.4496,0.3577,0.1784,0.7987,-1.7,-0.8,0.5,0.008,-0.011,0.004,0
2018,5,16,19,21,23.037,-0.4498,0.3575,0.1782,0.7987,0,-0.1,0.9,0,0.005,-0.002,0
2018,5,16,19,21,23.076,-0.4499,0.3573,0.1781,0.7988,-0.6,-0.5,0.7,0.007,-0.007,0.005,0
2018,5,16,19,21,23.097,-0.4499,0.3572,0.178,0.7988,-0.4,-0.6,0.8,0.01,-0.005,-0.006,1023
2018,5,16,19,21,23.101,-0.4499,0.3571,0.178,0.7989,-0.1,-0.5,1.1,0.009,-0.005,-0.006,1023
2018,5,16,19,21,23.12,-0.45,0.3569,0.1779,0.7989,-0.2,-0.5,1.4,0.009,-0.008,0.002,1023
2018,5,16,19,21,23.158,-0.4499,0.3568,0.1779,0.799,-0.4,-0.1,1.4,0.007,-0.004,0,1023
2018,5,16,19,21,23.179,-0.4499,0.3567,0.1779,0.7991,-0.6,-0.3,1.2,0.009,0,-0.003,1023
2018,5,16,19,21,23.183,-0.4499,0.3566,0.1778,0.7991,-0.9,0,1,0.015,0,-0.008,1023
2018,5,16,19,21,23.199,-0.4498,0.3567,0.1779,0.7992,-0.6,0.3,0.8,0.01,0.005,-0.004,1023
2018,5,16,19,21,23.218,-0.4499,0.3566,0.1779,0.7991,0,0.6,0.5,0.004,-0.003,-0.003,1023
2018,5,16,19,21,23.235,-0.4499,0.3567,0.178,0.799,-0.1,0.5,0.4,0.002,-0.007,0.001,1023
2018,5,16,19,21,23.258,-0.45,0.3567,0.178,0.799,-0.6,0.2,0.4,0.004,-0.009,-0.006,1023
2018,5,16,19,21,23.279,-0.4499,0.3569,0.178,0.799,-0.7,0,0.7,0.005,-0.005,-0.007,1023
2018,5,16,19,21,23.318,-0.4499,0.357,0.178,0.7989,-1.3,0,0.5,0.005,-0.003,-0.01,1023
2018,5,16,19,21,23.338,-0.4499,0.3571,0.1778,0.7989,-1.5,0,0.3,0.004,-0.003,-0.007,1023
2018,5,16,19,21,23.343,-0.4499,0.3571,0.1777,0.7989,-1,0.1,0.2,0.011,-0.003,-0.005,1023
2018,5,16,19,21,23.36,-0.4499,0.3572,0.1776,0.7989,-0.6,0.6,0,0.011,-0.008,-0.005,1023
2018,5,16,19,21,23.398,-0.4499,0.3574,0.1776,0.7988,0,0,0,0.007,-0.011,-0.007,1023
2018,5,16,19,21,23.419,-0.4502,0.3574,0.1775,0.7987,0,0,0,0.001,-0.009,-0.004,1023
2018,5,16,19,21,23.424,-0.4503,0.3575,0.1774,0.7986,-0.9,0.4,0.2,0.002,-0.009,-0.006,1023
2018,5,16,19,21,23.462,-0.4503,0.3576,0.1774,0.7986,-0.7,0.4,0.3,0.001,-0.007,0,1023
2018,5,16,19,21,23.48,-0.4502,0.3577,0.1774,0.7986,-1,0,0.5,0.006,-0.003,0.003,1023
2018,5,16,19,21,23.485,-0.4503,0.3577,0.1772,0.7986,-1.1,0,0.7,0.009,-0.001,-0.01,1023
2018,5,16,19,21,23.503,-0.4502,0.3578,0.1772,0.7986,-0.8,0.6,0.7,0.007,-0.006,-0.01,1023
2018,5,16,19,21,23.523,-0.4503,0.3579,0.1771,0.7985,-0.7,0.8,0.3,0.008,-0.007,0.012,1023
2018,5,16,19,21,23.542,-0.4501,0.3581,0.1772,0.7985,-0.6,0.4,0.2,0.002,-0.01,0.008,0
2018,5,16,19,21,23.563,-0.4501,0.3583,0.1773,0.7984,0,0,0,0.002,0.001,-0.003,0
2018,5,16,19,21,23.582,-0.4501,0.3583,0.1772,0.7984,-2,-0.1,-0.2,0.006,0,-0.011,0
2018,5,16,19,21,23.603,-0.4503,0.3584,0.1769,0.7983,-1.6,0.1,-0.4,0.009,-0.006,-0.013,0
2018,5,16,19,21,23.622,-0.4505,0.3585,0.1767,0.7982,-1.1,0.4,-0.3,0.02,0.002,-0.014,0
2018,5,16,19,21,23.642,-0.4506,0.3586,0.1766,0.7981,-1.1,0.4,0.5,0.014,-0.006,-0.011,0
2018,5,16,19,21,23.683,-0.4506,0.3587,0.1764,0.7981,-0.7,0.9,1,0.01,-0.016,0.002,0
2018,5,16,19,21,23.702,-0.4506,0.3589,0.1764,0.7981,-1,0.5,1.5,-0.006,-0.024,0.001,0
2018,5,16,19,21,23.706,-0.4504,0.3592,0.1764,0.798,-0.6,0.8,0.7,0.003,-0.007,-0.001,0
2018,5,16,19,21,23.744,-0.4503,0.3591,0.1765,0.7981,-0.5,0.6,1.9,0.007,0.002,0.009,0
2018,5,16,19,21,23.748,-0.4502,0.359,0.1767,0.7982,0.9,0.5,2,0.008,-0.015,0.005,0
2018,5,16,19,21,23.764,-0.4501,0.3589,0.177,0.7982,1.7,0.4,1.9,0,-0.011,-0.004,0
2018,5,16,19,21,23.783,-0.4502,0.3588,0.1773,0.7981,1.4,0.8,2.2,0.002,-0.011,-0.005,0
2018,5,16,19,21,23.802,-0.4494,0.3587,0.1787,0.7983,1.4,1.1,3.8,0.001,-0.013,-0.002,0
2018,5,16,19,21,23.824,-0.4489,0.3587,0.1793,0.7985,1.2,0.8,4.7,0.006,-0.007,0.004,0
2018,5,16,19,21,23.844,-0.4485,0.3584,0.1798,0.7987,1.8,0.4,5.3,0.007,-0.017,0,0
2018,5,16,19,21,23.88,-0.448,0.3581,0.1805,0.799,3.3,-0.2,5.7,-0.001,-0.014,0.002,0
2018,5,16,19,21,23.901,-0.4476,0.3576,0.1812,0.7992,3.1,-0.7,5.8,0.003,-0.014,-0.012,0
2018,5,16,19,21,23.905,-0.4472,0.3571,0.1818,0.7995,2.9,-0.9,6,0.004,-0.011,-0.011,0
2018,5,16,19,21,23.943,-0.4467,0.3565,0.1826,0.7999,2.1,-1.2,6.9,0.002,-0.002,0.004,0
2018,5,16,19,21,23.963,-0.446,0.3559,0.1831,0.8004,1.5,-1,6.9,-0.002,-0.012,0.002,0
2018,5,16,19,21,23.968,-0.4453,0.3556,0.1837,0.8008,1.1,-0.4,6.2,-0.007,-0.021,0.014,1023
2018,5,16,19,21,23.982,-0.4448,0.3553,0.184,0.8012,0.1,-0.2,4.6,-0.015,-0.003,0.015,1023
2018,5,16,19,21,24.005,-0.4444,0.3551,0.1841,0.8015,-1.2,-0.3,3.3,0.002,0,0.002,1023
2018,5,16,19,21,24.024,-0.4441,0.3549,0.1842,0.8017,-1.1,-0.3,2.8,0.018,0.013,-0.017,1023
2018,5,16,19,21,24.044,-0.4437,0.3547,0.1844,0.8019,-0.2,-0.2,2.7,0.028,0.024,-0.029,1023
2018,5,16,19,21,24.065,-0.4435,0.3544,0.1849,0.8021,2.2,0,3.3,0.03,0.008,-0.03,0
2018,5,16,19,21,24.103,-0.4431,0.3541,0.1858,0.8022,2.2,-0.4,3.6,0.019,0.023,-0.038,0
2018,5,16,19,21,24.124,-0.4428,0.3537,0.1863,0.8024,-0.1,-1.2,2.8,0.02,0.015,-0.032,0
2018,5,16,19,21,24.128,-0.4426,0.3536,0.1865,0.8026,-1.5,-0.5,1,0.021,0.016,-0.022,0
2018,5,16,19,21,24.146,-0.4426,0.3534,0.1863,0.8027,-2.3,-0.1,-0.6,0.023,0.03,-0.007,0
2018,5,16,19,21,24.184,-0.4427,0.3534,0.1862,0.8027,-2.1,0.1,-1.7,0.027,0.023,-0.005,0
2018,5,16,19,21,24.203,-0.443,0.3534,0.186,0.8026,-1.3,0.6,-2.9,0.022,0.014,-0.002,0
2018,5,16,19,21,24.207,-0.4434,0.3536,0.1858,0.8023,-1.4,0.8,-3.9,0.019,0.006,-0.006,0
2018,5,16,19,21,24.223,-0.444,0.3539,0.1854,0.8019,-1.8,1.4,-4.6,0.019,-0.003,-0.007,0
2018,5,16,19,21,24.265,-0.4447,0.3543,0.1849,0.8014,-3,1.4,-4.7,0.009,0.001,-0.003,0
2018,5,16,19,21,24.286,-0.4454,0.3549,0.1841,0.801,-4,1.7,-4.9,0.011,-0.006,-0.006,0
2018,5,16,19,21,24.29,-0.4459,0.3556,0.1834,0.8006,-4.8,2,-5.3,0.008,0.006,-0.016,0
2018,5,16,19,21,24.308,-0.4465,0.3565,0.1826,0.8001,-6.2,2.5,-6.7,0.017,0.017,-0.013,0
2018,5,16,19,21,24.347,-0.4469,0.3576,0.1818,0.7995,-5.6,3.6,-7.4,0.027,0.007,-0.019,0
2018,5,16,19,21,24.367,-0.4476,0.3589,0.1811,0.7987,-4.1,4.8,-7.7,0.019,-0.006,-0.018,0
2018,5,16,19,21,24.371,-0.4486,0.36,0.1805,0.7977,-1.6,5.6,-8.3,0.012,-0.018,-0.009,0
2018,5,16,19,21,24.388,-0.4498,0.3612,0.1801,0.7966,-1.1,5.9,-9.1,0.008,-0.012,-0.006,0
2018,5,16,19,21,24.427,-0.4511,0.3624,0.1797,0.7954,-1.8,5.9,-9.2,-0.002,0.001,-0.006,1023
2018,5,16,19,21,24.431,-0.4522,0.3637,0.1794,0.7943,-1.4,6,-8.6,-0.014,-0.017,0,1023
2018,5,16,19,21,24.448,-0.4533,0.365,0.1792,0.7931,1.4,5.1,-7.8,-0.022,-0.028,0.02,1023
2018,5,16,19,21,24.466,-0.455,0.3653,0.1794,0.7919,5.9,3.3,-7.5,-0.015,0.002,0.014,1023
2018,5,16,19,21,24.505,-0.4561,0.3658,0.1793,0.7911,1.8,0.4,-4.6,-0.001,-0.097,-0.019,0
2018,5,16,19,21,24.524,-0.4571,0.3661,0.1789,0.7905,3.4,-2.3,0,-0.026,-0.093,-0.008,0
2018,5,16,19,21,24.529,-0.4573,0.3655,0.1787,0.7907,4.6,-7.8,8,-0.058,-0.098,0.029,0
2018,5,16,19,21,24.549,-0.4565,0.3637,0.1791,0.7919,7.8,-13.5,17.9,-0.086,-0.112,0.016,0
2018,5,16,19,21,24.568,-0.4547,0.3606,0.1803,0.7941,14.4,-17.3,29.1,-0.102,-0.129,0.024,0
2018,5,16,19,21,24.605,-0.4522,0.3553,0.1834,0.7972,27.3,-20.6,40,-0.135,-0.169,0.101,0
2018,5,16,19,21,24.624,-0.4488,0.3481,0.1884,0.8011,34.2,-25.5,52.2,-0.187,-0.194,0.197,0
2018,5,16,19,21,24.627,-0.4443,0.3388,0.1953,0.8059,51.1,-28.9,65,-0.233,-0.234,0.27,0
2018,5,16,19,21,24.665,-0.4398,0.3259,0.2066,0.8109,92.2,-38,77.6,-0.4,-0.188,0.368,0
2018,5,16,19,21,24.687,-0.4351,0.3088,0.2246,0.8153,132.2,-40.1,104.7,-0.674,0.06,0.24,0
2018,5,16,19,21,24.691,-0.4263,0.2877,0.2487,0.8206,133.6,-31.7,144.2,-0.92,0.302,-0.07,0
2018,5,16,19,21,24.709,-0.4092,0.2695,0.2677,0.8295,59.7,-24.6,170.6,-0.944,0.091,-0.186,0
2018,5,16,19,21,24.73,-0.386,0.2565,0.2793,0.8408,8.7,-3.4,178.5,-0.741,-0.068,-0.22,0
2018,5,16,19,21,24.767,-0.3579,0.25,0.2851,0.8532,-37.4,18.1,185.8,-0.734,-0.045,-0.012,0
2018,5,16,19,21,24.789,-0.3264,0.246,0.2905,0.8651,-8.7,33.9,199.9,-0.718,-0.318,0.282,0
2018,5,16,19,21,24.793,-0.2944,0.2402,0.3054,0.873,52.9,45.8,208.9,-0.81,-0.441,0.545,0
2018,5,16,19,21,24.811,-0.2622,0.2312,0.3284,0.8773,107.9,45.4,222.3,-0.729,-0.818,0.351,0
2018,5,16,19,21,24.848,-0.23,0.2195,0.3603,0.8769,156.1,55.9,227.4,-0.64,-0.86,0.081,0
2018,5,16,19,21,24.868,-0.1973,0.2071,0.3957,0.8726,158.5,58.2,233.6,-0.782,-0.775,0.151,0
2018,5,16,19,21,24.873,-0.1613,0.1927,0.426,0.869,103.8,39.5,258.2,-0.923,-0.765,0.216,0
2018,5,16,19,21,24.889,-0.1197,0.1735,0.4454,0.87,36.8,11.8,295.7,-1.051,-1.078,0.088,0
2018,5,16,19,21,24.908,-0.0721,0.1477,0.4567,0.8742,2.8,-12.7,339.7,-1.052,-1.419,-0.156,0
2018,5,16,19,21,24.93,-0.0185,0.115,0.4638,0.8782,-9.8,-31.1,383.5,-1.178,-1.533,-0.483,0
2018,5,16,19,21,24.951,0.0407,0.0765,0.469,0.8788,-10.9,-35.9,422.7,-1.299,-1.703,-0.842,0
2018,5,16,19,21,24.97,0.1054,0.0343,0.4694,0.8759,-47.9,-37,460.3,-1.435,-1.729,-1.014,0
2018,5,16,19,21,24.991,0.1764,-0.0127,0.4601,0.87,-83.9,-37,510.9,-1.53,-1.983,-1.321,0
2018,5,16,19,21,25.031,0.2554,-0.0599,0.4498,0.8537,4,7.3,557.4,-1.462,-2.776,-1.599,0
2018,5,16,19,21,25.051,0.3428,-0.0954,0.4469,0.8207,70.8,77.5,577.4,-1.382,-2.47,-1.468,0
2018,5,16,19,21,25.055,0.432,-0.122,0.4346,0.7807,3.9,131.3,567.8,-1.339,-2.146,-1.538,0
2018,5,16,19,21,25.073,0.5161,-0.1473,0.4028,0.7413,-87.8,161.1,556.9,-1.539,-2.35,-1.319,0
2018,5,16,19,21,25.09,0.5938,-0.1729,0.3585,0.6992,-106.8,172.5,548,-1.442,-2.601,-1.184,0
2018,5,16,19,21,25.111,0.6635,-0.1959,0.3068,0.6535,-148.2,191.7,520.6,-1.271,-1.651,-1.598,0
2018,5,16,19,21,25.13,0.7213,-0.2198,0.2456,0.609,-189.6,197.2,480,-1.388,-1.815,-1.071,0
2018,5,16,19,21,25.168,0.77,-0.2379,0.1859,0.5619,-112,188.2,466.7,-1.619,-2.57,-0.364,0
2018,5,16,19,21,25.187,0.8146,-0.2486,0.1304,0.5073,-144.6,174.1,467.1,-1.406,-1.521,-1.449,0
2018,5,16,19,21,25.192,0.8445,-0.2754,0.0696,0.4538,-278.7,139.7,426.7,-1.498,-1.778,-1.528,0
2018,5,16,19,21,25.229,0.8624,-0.3102,0.0083,0.3998,-250.7,121.2,416.2,-1.818,-2.224,-0.59,0
2018,5,16,19,21,25.249,0.8771,-0.3312,-0.047,0.3444,-168.1,137,394.2,-1.568,-2.033,-0.951,0
2018,5,16,19,21,25.253,0.8998,-0.3374,-0.0194,0.2756,1369.7,-700.5,320.8,-7.865,-15.317,-10.317,1023
2018,5,16,19,21,25.273,0.8911,-0.2521,0.0886,0.3665,-654.1,-362.1,-76.1,-1.246,14.265,-9.005,1023
2018,5,16,19,21,25.294,0.7938,-0.4409,0.0921,0.4083,-977.9,-257.4,-348,6.436,-6.138,-1.166,1023
2018,5,16,19,21,25.311,0.7761,-0.4303,0.1094,0.4476,490.5,152.4,-186.4,-2.251,4.75,4.404,1023
2018,5,16,19,21,25.329,0.7954,-0.3813,0.1538,0.4451,315.3,-190,8.1,-3.094,-0.552,2.636,1023
2018,5,16,19,21,25.369,0.8044,-0.3688,0.1965,0.422,109.4,-216,15.7,-3.57,-0.074,0.099,1023
2018,5,16,19,21,25.391,0.7945,-0.3921,0.2288,0.4031,-193.4,-294.1,20.3,-1.913,0.394,-0.261,1023
2018,5,16,19,21,25.395,0.7617,-0.45,0.2518,0.3922,-285.5,-303.5,-22.1,-1.261,-1.356,-0.175,1023
2018,5,16,19,21,25.413,0.7265,-0.4987,0.2748,0.3844,-181.5,-247.8,-39.8,0.35,-1.155,0.059,1023
2018,5,16,19,21,25.432,0.7021,-0.526,0.2954,0.3781,-85.3,-154.6,-47.1,0.84,-0.576,0.239,1023
2018,5,16,19,21,25.472,0.6892,-0.536,0.3088,0.3769,-8.4,-47,-61.4,-0.034,-1.051,-0.349,1023
2018,5,16,19,21,25.494,0.6894,-0.5228,0.3197,0.386,129.3,54.3,-118.1,-1.303,-0.219,-0.46,1023
2018,5,16,19,21,25.498,0.7,-0.4887,0.3356,0.398,194,72.3,-132.2,-0.494,0.849,-0.083,1023
2018,5,16,19,21,25.513,0.7096,-0.4596,0.3479,0.405,112.8,33.9,-47,-0.204,1.304,-0.252,1023
2018,5,16,19,21,25.553,0.7155,-0.4537,0.3492,0.4001,-2,-15.4,75.8,-0.339,1.073,-0.444,1023
2018,5,16,19,21,25.574,0.7197,-0.4653,0.3422,0.3851,-21.8,-32.8,130.7,-0.204,0.226,-0.577,1023
2018,5,16,19,21,25.579,0.7261,-0.4746,0.3349,0.3676,11.8,-12,111.8,-0.047,0.192,-0.77,1023
2018,5,16,19,21,25.599,0.7346,-0.477,0.3269,0.3546,28,27.8,89.9,-0.086,0.417,-0.808,1023
2018,5,16,19,21,25.619,0.7451,-0.4758,0.3151,0.345,24.1,60.4,97.5,-0.283,0.326,-0.717,1023
2018,5,16,19,21,25.654,0.7576,-0.4741,0.2974,0.3356,25,89.3,123,-0.217,0.143,-0.652,1023
2018,5,16,19,21,25.657,0.7731,-0.4705,0.2744,0.3246,38.6,115.1,140.5,-0.174,0.052,-0.53,1023
2018,5,16,19,21,25.676,0.7905,-0.4638,0.2485,0.3132,51.9,128.7,142.5,-0.272,-0.02,-0.243,1023
2018,5,16,19,21,25.711,0.8192,-0.4547,0.1937,0.2905,-23.1,108.4,147.4,-0.323,-0.068,-0.298,1023
2018,5,16,19,21,25.731,0.8264,-0.461,0.1649,0.2779,-56.9,93.8,157.6,-0.297,-0.17,-0.304,1023
2018,5,16,19,21,25.734,0.8314,-0.4695,0.1358,0.2642,-56.5,95.1,155.2,-0.159,-0.337,-0.22,1023
2018,5,16,19,21,25.771,0.8365,-0.4745,0.1067,0.2521,-33.2,109.5,139.7,-0.075,-0.38,-0.007,1023
2018,5,16,19,21,25.793,0.8425,-0.4742,0.0779,0.2431,-7,121.2,121.5,-0.187,-0.289,0.149,1023
2018,5,16,19,21,25.798,0.8479,-0.4719,0.0511,0.2357,-16.3,106.9,110,-0.218,-0.22,0.183,1023
2018,5,16,19,21,25.816,0.8499,-0.474,0.0265,0.2283,-52.9,87.6,101.2,-0.093,-0.306,0.259,0
2018,5,16,19,21,25.838,0.8472,-0.4821,0.0044,0.2228,-68.8,84.2,49.4,0.519,-1.887,-0.004,0
2018,5,16,19,21,25.857,0.8472,-0.4778,-0.0105,0.2316,68.4,108.9,-24.2,-0.006,-1.128,0.76,0
2018,5,16,19,21,25.877,0.8507,-0.4668,-0.0183,0.2409,10,40.1,-15.9,-0.135,-0.134,0.942,0
2018,5,16,19,21,25.916,0.8485,-0.4688,-0.0186,0.2445,-25.1,-14,-23.3,-0.28,-0.264,0.652,0
2018,5,16,19,21,25.936,0.8451,-0.4743,-0.0137,0.2459,-35.9,-35.8,-26.5,-0.05,0.168,0.28,0
2018,5,16,19,21,25.94,0.8396,-0.4837,-0.0077,0.2466,-66.4,-41,-30.2,-0.015,0.358,0.097,0
2018,5,16,19,21,25.96,0.8319,-0.4964,-0.003,0.2476,-78,-31.2,-26.5,0.017,0.338,-0.061,0
2018,5,16,19,21,25.98,0.8247,-0.5076,-0.0008,0.249,-60.3,-14,-18,0,0.26,-0.104,0
2018,5,16,19,21,25.999,0.8199,-0.5146,-0.0002,0.2508,-32,2.6,-9.1,-0.018,0.226,-0.068,0
2018,5,16,19,21,26.018,0.8184,-0.516,-0.0017,0.2525,-3,16.1,0.7,-0.07,0.197,0.012,0
2018,5,16,19,21,26.058,0.8192,-0.5142,-0.0047,0.2534,9.5,19.4,10.6,-0.079,0.246,0.092,0
2018,5,16,19,21,26.062,0.8207,-0.5123,-0.0082,0.2526,7.2,14,21.3,0.014,0.199,0.095,1023
2018,5,16,19,21,26.08,0.8227,-0.5102,-0.0118,0.2503,10.6,12.6,26.6,0.007,0.046,0.094,1023
2018,5,16,19,21,26.118,0.8248,-0.5078,-0.0151,0.248,6.5,10.6,21.1,0.015,-0.05,0.126,1023
2018,5,16,19,21,26.139,0.8258,-0.5069,-0.0179,0.2463,-6,4.1,12,-0.032,-0.101,0.194,1023
2018,5,16,19,21,26.143,0.825,-0.5088,-0.0189,0.245,-20.2,-8.4,4.5,-0.029,-0.118,0.205,1023
2018,5,16,19,21,26.164,0.8232,-0.5125,-0.0184,0.2432,-25.9,-17.6,1.9,-0.001,-0.109,0.139,1023
2018,5,16,19,21,26.184,0.8211,-0.517,-0.0169,0.2409,-28.6,-22.2,2,0.011,-0.017,0.075,1023
2018,5,16,19,21,26.199,0.8187,-0.522,-0.0148,0.2387,-25.4,-21.8,1.6,0.012,0.019,0.006,1023
2018,5,16,19,21,26.24,0.8169,-0.5258,-0.0129,0.2366,-14.3,-18.7,2.2,-0.009,0.065,-0.016,1023
2018,5,16,19,21,26.245,0.8158,-0.5284,-0.0109,0.2344,-11.8,-18.8,3.9,-0.021,0.13,-0.046,1023
2018,5,16,19,21,26.26,0.8144,-0.5317,-0.0091,0.2319,-19.9,-19.8,6.7,-0.015,0.131,-0.067,1023
2018,5,16,19,21,26.302,0.8122,-0.5364,-0.0079,0.2289,-26.3,-18.9,9.6,-0.002,0.098,-0.081,1023
2018,5,16,19,21,26.306,0.8093,-0.5421,-0.0073,0.2257,-35.7,-17.6,11.1,0,0.075,-0.081,1023
2018,5,16,19,21,26.321,0.8051,-0.5496,-0.0074,0.2225,-50.4,-16.1,10.5,0,0.048,-0.069,1023
2018,5,16,19,21,26.342,0.7999,-0.5584,-0.0081,0.2195,-51.3,-14.1,8.8,0.023,-0.05,-0.072,1023
2018,5,16,19,21,26.363,0.7949,-0.5663,-0.0089,0.217,-44,-10.9,6.7,0.022,-0.063,-0.049,1023
2018,5,16,19,21,26.403,0.7906,-0.5731,-0.0095,0.2151,-37.8,-9.5,6,0.036,-0.048,-0.04,1023
2018,5,16,19,21,26.421,0.7869,-0.5788,-0.0101,0.2132,-33.5,-9.3,6,0.024,-0.024,-0.028,1023
2018,5,16,19,21,26.425,0.7834,-0.5842,-0.0104,0.2116,-32.7,-7.8,6.1,0.024,0.033,-0.062,1023
2018,5,16,19,21,26.446,0.78,-0.5893,-0.0111,0.2098,-24.2,-5.1,7.1,0.021,-0.026,-0.092,1023
2018,5,16,19,21,26.467,0.7779,-0.5925,-0.0122,0.2086,-11.5,1.2,6.7,0.007,-0.002,-0.04,1023
2018,5,16,19,21,26.487,0.777,-0.5939,-0.0134,0.208,-7.4,3.7,6.6,0.022,0.019,0.012,1023
2018,5,16,19,21,26.506,0.7765,-0.5946,-0.0147,0.2077,-6.5,4.5,6.3,0.024,0.001,0.039,1023
2018,5,16,19,21,26.523,0.7763,-0.5949,-0.016,0.2075,-2.7,4.3,5.5,0,-0.011,0.072,0
2018,5,16,19,21,26.543,0.7764,-0.5948,-0.017,0.2072,-4.7,2,3.5,-0.001,-0.012,0.085,0
2018,5,16,19,21,26.58,0.776,-0.5954,-0.0176,0.2069,-8.7,-0.8,2.1,0.008,-0.002,0.068,0
2018,5,16,19,21,26.598,0.7754,-0.5964,-0.0177,0.2066,-7,-1.7,1,0.02,-0.013,0.039,0
2018,5,16,19,21,26.604,0.7747,-0.5972,-0.0177,0.2064,-5.8,-1.2,0.8,0.005,0.017,0.019,0
2018,5,16,19,21,26.624,0.7741,-0.5981,-0.0178,0.2062,-7.1,-1.8,1.2,-0.003,0.045,0.019,0
2018,5,16,19,21,26.646,0.7734,-0.5992,-0.0178,0.2058,-8.2,-2.4,1.4,0.008,0.044,0.021,0
2018,5,16,19,21,26.683,0.7726,-0.6003,-0.0177,0.2054,-6.2,-3.1,1.6,0.009,0.017,0.015,0
2018,5,16,19,21,26.685,0.7721,-0.6011,-0.0176,0.2049,-3.4,-2,1.8,0.009,0.009,-0.007,0
2018,5,16,19,21,26.724,0.7717,-0.6019,-0.0176,0.2045,-4.2,-1.2,1.8,0.003,0.008,0,0
2018,5,16,19,21,26.726,0.7712,-0.6026,-0.0178,0.2042,-5.4,-0.7,1.8,0.017,0.013,0.023,0
2018,5,16,19,21,26.744,0.7707,-0.6032,-0.0179,0.2041,-3.8,-0.6,1.3,0.02,0.015,0.023,0
2018,5,16,19,21,26.778,0.7703,-0.6038,-0.0178,0.2039,-4.2,-0.7,0.8,0.005,0.029,0.007,0
2018,5,16,19,21,26.799,0.7698,-0.6045,-0.0179,0.2038,-4.8,-0.8,1,0,0.03,0.008,0
2018,5,16,19,21,26.803,0.7694,-0.6051,-0.018,0.2036,-4.6,-0.6,1.3,0.005,0.035,0.017,0
2018,5,16,19,21,26.839,0.7691,-0.6055,-0.018,0.2034,-2.8,-0.6,1.7,0.008,0.028,0.03,1023
2018,5,16,19,21,26.861,0.769,-0.6057,-0.0181,0.2032,-1.5,-1,1.9,0.004,0.011,0.025,1023
2018,5,16,19,21,26.863,0.769,-0.6059,-0.0181,0.2029,-1.2,-0.9,1.6,0.006,0.016,0.022,1023
2018,5,16,19,21,26.901,0.7689,-0.6061,-0.0181,0.2026,-2.4,-1.3,1.3,0.008,0.024,0.017,1023
2018,5,16,19,21,26.921,0.7686,-0.6065,-0.018,0.2024,-3.1,-2,1.4,0.015,0.019,0.011,1023
2018,5,16,19,21,26.925,0.7682,-0.607,-0.0178,0.2021,-2.7,-1.5,1.4,0.011,0.023,0,1023
2018,5,16,19,21,26.963,0.768,-0.6074,-0.0178,0.2018,-1,-0.8,1.6,0.006,0.02,-0.002,1023
2018,5,16,19,21,26.984,0.7681,-0.6074,-0.0178,0.2016,4.3,0.9,1.7,0.017,0.004,-0.005,1023
2018,5,16,19,21,26.988,0.7689,-0.6063,-0.0178,0.2018,10.3,3.2,1.2,0.017,0.004,0.018,1023
2018,5,16,19,21,27.005,0.7701,-0.6046,-0.018,0.2022,10.9,3.7,1.1,0.001,0.027,0.023,1023
2018,5,16,19,21,27.024,0.7712,-0.6032,-0.0182,0.2025,8.6,2.7,1.6,0.002,0.026,0.008,1023
2018,5,16,19,21,27.061,0.7719,-0.6022,-0.0183,0.2025,4.3,1.2,1.6,0.006,0.021,0.008,1023
2018,5,16,19,21,27.082,0.7722,-0.6019,-0.0183,0.2025,0.4,0,1.2,0.013,0.02,0.011,1023
2018,5,16,19,21,27.086,0.7722,-0.6018,-0.0183,0.2024,0.3,0.2,1,0.007,0.02,0.014,1023
2018,5,16,19,21,27.124,0.7724,-0.6016,-0.0183,0.2024,4,1,1,0.013,0.011,0.006,1023
2018,5,16,19,21,27.146,0.773,-0.6008,-0.0183,0.2026,5.3,1.7,1.2,0.011,0.035,0.009,1023
2018,5,16,19,21,27.15,0.7734,-0.6002,-0.0183,0.2026,2.4,1,1.5,0.009,0.035,0.013,1023
2018,5,16,19,21,27.169,0.7736,-0.6,-0.0184,0.2026,-2.3,0,1.1,0.003,0.04,0.018,1023
2018,5,16,19,21,27.191,0.7732,-0.6006,-0.0185,0.2025,-6.5,-1.3,1,0.002,0.034,0.015,1023
2018,5,16,19,21,27.227,0.7725,-0.6015,-0.0186,0.2022,-7.9,-2.3,1.2,0.008,0.025,0.021,1023
2018,5,16,19,21,27.247,0.7718,-0.6026,-0.0185,0.2019,-7.5,-2.1,1.3,0.011,0.014,0.026,0
2018,5,16,19,21,27.251,0.7714,-0.6032,-0.0184,0.2017,-3,-1.4,1.1,0.022,0.002,0.024,0
2018,5,16,19,21,27.291,0.7712,-0.6034,-0.0183,0.2015,-0.9,-1,1.3,0.013,0.019,0.014,0
2018,5,16,19,21,27.295,0.7711,-0.6036,-0.0182,0.2013,-1.9,-1.3,1.2,0.009,0.03,0.009,0
2018,5,16,19,21,27.31,0.7709,-0.604,-0.0181,0.2011,-2.6,-1.4,1.3,0.003,0.031,0.006,0
2018,5,16,19,21,27.33,0.7707,-0.6044,-0.018,0.2008,-2.1,-1.2,1.2,0.01,0.026,0,0
2018,5,16,19,21,27.35,0.7705,-0.6047,-0.0179,0.2006,0,-0.4,1.4,0.013,0.002,-0.003,0
2018,5,16,19,21,27.37,0.7705,-0.6046,-0.018,0.2005,0.7,0.1,1.4,0.006,0.016,0.008,0
2018,5,16,19,21,27.392,0.7705,-0.6047,-0.018,0.2004,-1.6,-0.2,1.2,0.012,0.019,0.004,0
2018,5,16,19,21,27.413,0.7703,-0.605,-0.018,0.2003,-2.3,-0.4,0.8,0.013,0.021,0.012,0
2018,5,16,19,21,27.431,0.7701,-0.6053,-0.018,0.2002,-1.5,0,0.8,0.013,0.019,0.011,0
2018,5,16,19,21,27.47,0.7702,-0.6052,-0.018,0.2002,0.4,0.5,0.7,0.003,0.019,0.024,0
2018,5,16,19,21,27.491,0.7703,-0.6051,-0.018,0.2002,-2.6,-1,0.5,-0.001,0.031,0.037,0
2018,5,16,19,21,27.495,0.7698,-0.6057,-0.0178,0.2,-9.1,-3.5,0.2,0.007,0.039,0.032,0
2018,5,16,19,21,27.51,0.7688,-0.6072,-0.0176,0.1996,-12.1,-4.5,0.2,0.015,0.015,0.026,0
2018,5,16,19,21,27.548,0.7678,-0.6085,-0.0172,0.1992,-6.8,-3.5,0.4,0.011,0.006,0.016,0
2018,5,16,19,21,27.569,0.7675,-0.6091,-0.0169,0.1989,-0.9,-2.3,1.3,0.01,0.02,0.002,0
2018,5,16,19,21,27.573,0.7675,-0.6092,-0.0166,0.1985,-0.8,-2.1,1.7,0.009,0.042,-0.008,1023
2018,5,16,19,21,27.592,0.7671,-0.6098,-0.0165,0.1982,-4.9,-2.4,2,0.006,0.044,-0.009,1023
2018,5,16,19,21,27.629,0.7664,-0.6108,-0.0164,0.1977,-7.1,-2.5,1.6,0.014,0.01,-0.006,1023
2018,5,16,19,21,27.65,0.7657,-0.6119,-0.0164,0.1973,-5.6,-1.7,1.3,0.018,-0.006,-0.007,1023
2018,5,16,19,21,27.654,0.7651,-0.6127,-0.0164,0.197,-4,-1,1,0.014,0.003,-0.001,1023
2018,5,16,19,21,27.672,0.7646,-0.6133,-0.0164,0.1968,-4.9,-1.1,0.5,0.008,0.016,0.002,1023
2018,5,16,19,21,27.691,0.7641,-0.614,-0.0164,0.1968,-3.2,-0.4,0,0.014,0.006,0,1023
2018,5,16,19,21,27.729,0.7639,-0.6142,-0.0163,0.1969,0.1,0.6,0,0.018,0.014,-0.001,1023
2018,5,16,19,21,27.748,0.7641,-0.614,-0.0163,0.1971,3.9,1.8,0.4,0.01,0.014,0,1023
2018,5,16,19,21,27.757,0.7645,-0.6133,-0.0164,0.1973,4.8,2.3,0.8,0.007,0.022,0.006,1023
2018,5,16,19,21,27.795,0.765,-0.6126,-0.0165,0.1975,3.3,1.8,0.8,0.009,0.024,0.003,1023
2018,5,16,19,21,27.799,0.7652,-0.6123,-0.0166,0.1977,0.9,1.1,0.8,0.007,0.022,0.011,1023
2018,5,16,19,21,27.814,0.7654,-0.612,-0.0167,0.1978,0.5,0.9,0.8,0.009,0.02,0.017,1023
2018,5,16,19,21,27.851,0.7656,-0.6118,-0.0167,0.1979,0.8,0.8,1.1,0.011,0.025,0.016,1023
2018,5,16,19,21,27.872,0.7658,-0.6115,-0.0168,0.1979,0.1,0.6,1.3,0.004,0.03,0.019,1023
2018,5,16,19,21,27.876,0.7659,-0.6114,-0.0169,0.1979,0,0.3,1,0.007,0.022,0.015,1023
2018,5,16,19,21,27.895,0.7661,-0.6111,-0.0169,0.1979,0.9,0.3,1.1,0.008,0.027,0.011,1023
2018,5,16,19,21,27.916,0.7662,-0.611,-0.0169,0.1979,-1,-0.3,1.5,0.005,0.029,0.007,1023
2018,5,16,19,21,27.936,0.766,-0.6114,-0.017,0.1977,-4.5,-1.2,1.3,0.006,0.021,0.008,1023
2018,5,16,19,21,27.958,0.7655,-0.6121,-0.017,0.1974,-5.8,-1.8,0.9,0.009,0.018,0.012,1023
2018,5,16,19,21,27.977,0.7649,-0.6128,-0.0169,0.1972,-5.2,-1.7,0.8,0.012,0.013,0.004,0
2018,5,16,19,21,28.017,0.7644,-0.6135,-0.0169,0.1969,-4.5,-1.2,1.1,0.009,0.014,-0.004,0
2018,5,16,19,21,28.037,0.7639,-0.6142,-0.0169,0.1967,-3.7,-0.8,1.1,0.009,0.013,-0.001,0
2018,5,16,19,21,28.039,0.7636,-0.6146,-0.017,0.1966,-2.1,-0.1,1,0.01,0.018,0.009,0
2018,5,16,19,21,28.059,0.7635,-0.6148,-0.017,0.1966,-1.3,0.1,1.2,0.015,0.019,0.005,0
2018,5,16,19,21,28.08,0.7634,-0.6149,-0.0171,0.1965,-0.7,0.1,1.1,0.009,0.013,0.007,0
2018,5,16,19,21,28.097,0.7634,-0.6149,-0.0171,0.1965,-0.1,0.1,1.1,0.008,0.018,0.012,0
2018,5,16,19,21,28.115,0.7635,-0.6149,-0.0171,0.1965,-0.4,-0.2,1,0.013,0.025,0.007,0
2018,5,16,19,21,28.154,0.7634,-0.6149,-0.0171,0.1964,-0.9,-0.1,1,0.012,0.026,0.008,0
2018,5,16,19,21,28.174,0.7633,-0.6151,-0.0171,0.1963,-1.6,-0.1,1.2,0.009,0.019,0.007,0
2018,5,16,19,21,28.177,0.7632,-0.6152,-0.0172,0.1963,-0.7,0.2,1,0.008,0.011,0.003,0
2018,5,16,19,21,28.214,0.7632,-0.6152,-0.0172,0.1963,0,0,0,0.02,0.009,0.008,0
2018,5,16,19,21,28.234,0.7632,-0.6152,-0.0172,0.1965,-0.5,0.8,0,0.016,0.024,0,0
2018,5,16,19,21,28.239,0.7629,-0.6155,-0.0172,0.1966,-4,0.4,0.1,0.001,0.033,0,0
2018,5,16,19,21,28.278,0.7625,-0.616,-0.0174,0.1967,-3.3,0.1,0.2,0.004,0.009,0.004,0
2018,5,16,19,21,28.28,0.7624,-0.6161,-0.0174,0.1968,2.2,1.3,0.4,0.014,0,0.005,0
2018,5,16,19,21,28.298,0.7629,-0.6154,-0.0175,0.197,5.5,2.8,0.5,0.007,0.017,0.009,0
2018,5,16,19,21,28.316,0.7635,-0.6146,-0.0177,0.1972,2.4,1.6,0.7,-0.014,0.047,0.014,1023
2018,5,16,19,21,28.337,0.7635,-0.6146,-0.0178,0.1973,-4,-0.6,0.5,0.012,0.05,0.005,1023
2018,5,16,19,21,28.357,0.7629,-0.6153,-0.0177,0.1972,-6.2,-1.1,0.8,0.021,0.021,0.005,1023
2018,5,16,19,21,28.377,0.7625,-0.6159,-0.0177,0.1971,-2.8,-0.4,0.8,0.011,-0.005,0.016,1023
2018,5,16,19,21,28.416,0.7625,-0.6158,-0.0177,0.1971,0.9,0.3,1,0.015,0.007,0.018,1023
2018,5,16,19,21,28.434,0.7626,-0.6157,-0.0177,0.1971,-0.9,0,1.1,0.014,0.029,0.01,1023
2018,5,16,19,21,28.439,0.7625,-0.6159,-0.0177,0.197,-2.9,-0.6,0.9,0.01,0.019,0.003,1023
2018,5,16,19,21,28.476,0.7621,-0.6164,-0.0177,0.1969,-4.8,-1,1,0.003,0.039,0.01,1023
2018,5,16,19,21,28.495,0.7616,-0.6171,-0.0177,0.1966,-6.7,-1.8,1,0.005,0.036,0.011,1023
2018,5,16,19,21,28.5,0.761,-0.618,-0.0176,0.1964,-5.9,-2,1.1,0.018,0.019,0.009,1023
2018,5,16,19,21,28.537,0.7604,-0.6188,-0.0175,0.1961,-6,-1.7,1.2,0.013,0.017,0.008,1023
2018,5,16,19,21,28.557,0.7599,-0.6194,-0.0175,0.1959,-4.1,-1.2,1.1,0.012,0.006,0.005,1023
2018,5,16,19,21,28.56,0.7597,-0.6198,-0.0175,0.1957,-2,-0.3,1.1,0.014,0.018,-0.002,1023
2018,5,16,19,21,28.598,0.7594,-0.6202,-0.0175,0.1956,-4.1,-0.7,1.1,0.014,0.034,-0.001,1023
2018,5,16,19,21,28.6,0.7588,-0.6209,-0.0176,0.1955,-6.3,-1,1.1,0.005,0.032,0.003,1023
2018,5,16,19,21,28.618,0.7583,-0.6215,-0.0177,0.1953,-2.7,0,1.3,0.013,0,-0.002,1023
2018,5,16,19,21,28.656,0.7582,-0.6217,-0.0179,0.1952,-1,0.1,1.1,0.013,0.001,0.016,1023
2018,5,16,19,21,28.676,0.7582,-0.6218,-0.0179,0.1951,-2.4,-0.9,1.4,0.006,0.026,0.015,0
2018,5,16,19,21,28.679,0.7578,-0.6223,-0.0179,0.1948,-4.6,-1.7,1,0.008,0.024,0.001,0
2018,5,16,19,21,28.718,0.7573,-0.623,-0.0178,0.1946,-5.1,-1.6,0.9,0.012,0.021,0,0
2018,5,16,19,21,28.738,0.7568,-0.6237,-0.0178,0.1944,-4.3,-1,1.1,0.007,0.016,0.012,0
2018,5,16,19,21,28.741,0.7566,-0.624,-0.0178,0.1943,-1.4,-0.5,1.4,0.013,0.009,0.002,0
2018,5,16,19,21,28.764,0.7565,-0.6241,-0.0179,0.1942,-0.7,0.1,1.1,0.013,0.013,0.005,0
2018,5,16,19,21,28.785,0.7564,-0.6243,-0.0179,0.1941,-2.3,-0.4,0.9,0.009,0.013,0.005,0
2018,5,16,19,21,28.805,0.7562,-0.6245,-0.0179,0.194,-1.5,-0.4,0.7,0.018,0.008,0.003,0
2018,5,16,19,21,28.825,0.7562,-0.6245,-0.0179,0.194,0.7,0.1,0.6,0.012,0.018,0.002,0
2018,5,16,19,21,28.841,0.7563,-0.6244,-0.0178,0.194,1.5,0.1,0.8,0.011,0.027,-0.005,0
2018,5,16,19,21,28.879,0.7564,-0.6243,-0.0178,0.1941,-0.2,0.3,1,0.008,0.038,0.001,0
2018,5,16,19,21,28.899,0.7563,-0.6243,-0.0178,0.1941,-1.2,0.2,1.1,0.011,0.023,0,0
2018,5,16,19,21,28.903,0.7562,-0.6245,-0.0179,0.194,-1.9,0.1,0.7,0.008,0.007,0.016,0
2018,5,16,19,21,28.924,0.7562,-0.6246,-0.0179,0.194,-1.2,-0.2,0.8,0.008,0.011,0.012,0
2018,5,16,19,21,28.944,0.7561,-0.6246,-0.0179,0.194,-1.3,-0.2,0.8,0.012,0.027,0.006,0
2018,5,16,19,21,28.983,0.756,-0.6247,-0.0178,0.1939,-1.2,-0.6,0.9,0.014,0.025,0.001,0
2018,5,16,19,21,29.002,0.756,-0.6248,-0.0178,0.1939,0,0,1,0.006,0.017,0.002,0
2018,5,16,19,21,29.006,0.7561,-0.6247,-0.0178,0.1938,0.5,0.5,1.1,0.004,0.02,0.01,0
2018,5,16,19,21,29.043,0.7562,-0.6246,-0.0179,0.1938,-0.9,0,1,0.005,0.027,0.006,0
2018,5,16,19,21,29.047,0.756,-0.6248,-0.0179,0.1938,-4.4,-0.7,0.8,0.014,0.033,0.009,0
2018,5,16,19,21,29.063,0.7556,-0.6254,-0.0179,0.1936,-4.6,-0.9,1.1,0.01,0.019,0.008,0
2018,5,16,19,21,29.083,0.7553,-0.6258,-0.018,0.1935,-2.3,-0.4,1.5,0.004,0.015,0.017,0
2018,5,16,19,21,29.102,0.7553,-0.6258,-0.0181,0.1933,-0.4,-0.1,1.6,0.007,0.015,0.016,1023
2018,5,16,19,21,29.125,0.7554,-0.6258,-0.0182,0.1932,-0.2,-0.2,1.7,0.015,0.017,0.004,1023
2018,5,16,19,21,29.147,0.7552,-0.626,-0.0182,0.1931,-2.3,-0.1,1.1,0.014,0.018,-0.001,1023
2018,5,16,19,21,29.166,0.755,-0.6263,-0.0183,0.193,-2.6,-0.3,0.8,0.011,0.014,-0.004,1023
2018,5,16,19,21,29.186,0.7547,-0.6267,-0.0183,0.1929,-2.6,-0.4,1,0.01,0.018,-0.002,1023
2018,5,16,19,21,29.227,0.7544,-0.627,-0.0183,0.1927,-1.7,-0.4,1.1,0.011,0.008,-0.003,1023
2018,5,16,19,21,29.231,0.7543,-0.6272,-0.0183,0.1927,-0.4,0,0.9,0.015,0.014,-0.004,1023
2018,5,16,19,21,29.245,0.7543,-0.6272,-0.0183,0.1927,0,0.1,0.8,0.015,0.02,0.001,1023
2018,5,16,19,21,29.287,0.7543,-0.6273,-0.0183,0.1927,-0.3,0.1,0.8,0.014,0.022,0.004,1023
2018,5,16,19,21,29.306,0.7543,-0.6272,-0.0183,0.1927,0.1,0.6,0.9,0.012,0.015,0.007,1023
2018,5,16,19,21,29.31,0.7544,-0.6271,-0.0184,0.1928,-0.2,0.5,1,0.006,0.025,0.019,1023
2018,5,16,19,21,29.331,0.7544,-0.6271,-0.0185,0.1927,-4.6,-0.9,0.9,0.002,0.047,0.025,1023
2018,5,16,19,21,29.349,0.7537,-0.6279,-0.0184,0.1925,-10.1,-2.4,0.7,0.003,0.049,0.026,1023
2018,5,16,19,21,29.366,0.7526,-0.6294,-0.0184,0.1922,-15,-4,0.8,0.003,0.047,0.037,1023
2018,5,16,19,21,29.404,0.7511,-0.6313,-0.0183,0.1916,-15.6,-4.9,1.4,0.01,0.027,0.027,1023
2018,5,16,19,21,29.423,0.7498,-0.6331,-0.0182,0.1909,-11.7,-4.8,1.9,0.016,0,0.022,1023
2018,5,16,19,21,29.428,0.7489,-0.6345,-0.018,0.1902,-8.1,-4.4,2.1,0.016,-0.002,0.005,0
2018,5,16,19,21,29.465,0.7481,-0.6355,-0.0178,0.1896,-6,-3.5,1.9,0.016,0.005,-0.009,0
2018,5,16,19,21,29.485,0.7474,-0.6365,-0.0177,0.189,-5.8,-3.1,1.8,0.008,0.005,-0.017,0
2018,5,16,19,21,29.49,0.7466,-0.6376,-0.0176,0.1885,-6.8,-2.6,1.6,0.007,0.015,-0.02,0
2018,5,16,19,21,29.509,0.7458,-0.6387,-0.0176,0.1881,-5.2,-1.7,1.4,0.016,0,-0.025,0
2018,5,16,19,21,29.529,0.7452,-0.6395,-0.0177,0.1878,-4.8,-0.7,1.5,0.003,0.019,-0.017,0
2018,5,16,19,21,29.569,0.7445,-0.6403,-0.018,0.1876,-6.9,-0.4,1.5,0,0.021,-0.008,0
2018,5,16,19,21,29.573,0.7437,-0.6413,-0.0182,0.1874,-7.6,-0.5,1.6,0.018,0.014,0.017,0
2018,5,16,19,21,29.59,0.7432,-0.6419,-0.0183,0.1873,-3.8,-0.1,1.3,0.023,0.009,0.024,0
2018,5,16,19,21,29.609,0.7431,-0.642,-0.0184,0.1873,-1,0.2,1.3,0.012,0.024,0.022,0
2018,5,16,19,21,29.63,0.7432,-0.642,-0.0185,0.1873,-1.2,-0.4,1.3,0.003,0.037,0.021,0
2018,5,16,19,21,29.648,0.743,-0.6422,-0.0186,0.187,-5.6,-1.5,1.8,-0.005,0.039,0.014,0
2018,5,16,19,21,29.668,0.7423,-0.6432,-0.0186,0.1866,-8.2,-2.6,2,0.023,0.014,0.005,0
2018,5,16,19,21,29.706,0.7415,-0.6442,-0.0186,0.1862,-5.7,-2,1.7,0.014,0,0.009,0
2018,5,16,19,21,29.727,0.7411,-0.6447,-0.0185,0.1859,-2.3,-1.6,1.6,0.013,0.003,-0.003,0
2018,5,16,19,21,29.73,0.741,-0.645,-0.0184,0.1856,-0.1,-1,1.3,0.012,0.015,-0.008,0
2018,5,16,19,21,29.751,0.7409,-0.6451,-0.0184,0.1855,-1,-0.6,1.1,0.01,0.026,-0.017,0
2018,5,16,19,21,29.771,0.7407,-0.6454,-0.0184,0.1853,-2.3,-0.4,1.5,0.004,0.016,-0.011,0
2018,5,16,19,21,29.788,0.7404,-0.6458,-0.0185,0.1851,-1.6,0.2,1.4,0.019,-0.002,-0.001,0
2018,5,16,19,21,29.808,0.7404,-0.6458,-0.0186,0.1852,1.5,0.8,0.9,0.022,-0.002,0.003,0
2018,5,16,19,21,29.846,0.7407,-0.6453,-0.0186,0.1853,3.9,1.8,0.7,0.006,0.02,0.004,0
2018,5,16,19,21,29.868,0.7411,-0.6448,-0.0187,0.1855,2.3,1.1,0.9,0.004,0.033,0.006,0
2018,5,16,19,21,29.872,0.7413,-0.6446,-0.0188,0.1855,-0.4,0.4,0.9,0.004,0.029,0.011,1023
2018,5,16,19,21,29.891,0.7413,-0.6446,-0.0188,0.1856,-0.7,0,1,0.018,0.013,0.014,1023
2018,5,16,19,21,29.912,0.7414,-0.6445,-0.0188,0.1856,0.1,0.3,0.9,0.01,0.012,0.013,1023
2018,5,16,19,21,29.949,0.7415,-0.6444,-0.0188,0.1856,-0.1,0.1,0.9,0.005,0.021,0.017,1023
2018,5,16,19,21,29.97,0.7416,-0.6443,-0.0189,0.1856,0.1,0,1.3,0.01,0.014,0.012,1023
2018,5,16,19,21,29.974,0.7417,-0.6442,-0.0189,0.1856,0.6,0,1,0.013,0.02,0,1023
2018,5,16,19,21,29.994,0.7418,-0.644,-0.0189,0.1855,0.1,0,1,0.013,0.022,0.007,1023
2018,5,16,19,21,30.013,0.7418,-0.6441,-0.0188,0.1855,-0.8,-0.2,0.9,0.012,0.022,0,1023
2018,5,16,19,21,30.049,0.7417,-0.6441,-0.0188,0.1855,-0.7,-0.1,0.8,0.009,0.016,0,1023
2018,5,16,19,21,30.069,0.7417,-0.6442,-0.0188,0.1854,-0.4,-0.1,1,0.011,0.014,0.004,1023
2018,5,16,19,21,30.073,0.7418,-0.6441,-0.0188,0.1854,0.2,0,0.8,0.014,0.011,0.008,1023
2018,5,16,19,21,30.092,0.7419,-0.644,-0.0188,0.1854,0.8,0.1,1,0.01,0.015,0,1023
2018,5,16,19,21,30.111,0.742,-0.6439,-0.0187,0.1854,-0.1,0,0.8,0.011,0.021,0.006,1023
2018,5,16,19,21,30.129,0.742,-0.6439,-0.0187,0.1854,-0.6,-0.1,1,0.009,0.021,0.001,1023
2018,5,16,19,21,30.169,0.7419,-0.644,-0.0187,0.1853,-1.5,-0.2,0.8,0.011,0.021,0.004,1023
2018,5,16,19,21,30.189,0.7418,-0.6441,-0.0187,0.1853,-1,0,0.8,0.015,0.017,0.008,1023
2018,5,16,19,21,30.194,0.7418,-0.6441,-0.0187,0.1853,-0.2,0,0.8,0.013,0.016,0.01,1023
2018,5,16,19,21,30.214,0.7418,-0.6441,-0.0187,0.1853,-0.2,0,0.8,0.013,0.015,0.006,1023
2018,5,16,19,21,30.234,0.7419,-0.6441,-0.0187,0.1853,0.5,0.3,0.9,0.012,0.014,0,1023
2018,5,16,19,21,30.254,0.742,-0.6439,-0.0187,0.1853,0.4,0.3,0.8,0.008,0.021,0.001,0
2018,5,16,19,21,30.278,0.742,-0.6438,-0.0187,0.1854,0,0.4,0.8,0.009,0.024,0.003,0
2018,5,16,19,21,30.297,0.742,-0.6438,-0.0187,0.1854,-0.9,0.1,0.8,0.007,0.022,0.007,0
2018,5,16,19,21,30.335,0.742,-0.6439,-0.0188,0.1854,-1.2,0,0.7,0.011,0.016,0.01,0
2018,5,16,19,21,30.356,0.742,-0.6439,-0.0187,0.1854,0.1,0,0.9,0.014,0.016,0.009,0
2018,5,16,19,21,30.36,0.7421,-0.6437,-0.0187,0.1854,0.9,0.3,0.8,0.015,0.017,0.007,0
2018,5,16,19,21,30.374,0.7423,-0.6435,-0.0187,0.1855,1.8,0.6,1,0.012,0.019,0.001,0
2018,5,16,19,21,30.411,0.7426,-0.6432,-0.0187,0.1855,1.2,0.3,1.1,0.005,0.026,0.007,0
2018,5,16,19,21,30.43,0.7427,-0.6431,-0.0187,0.1855,-0.1,0,0.8,0.012,0.024,0.004,0
2018,5,16,19,21,30.434,0.7427,-0.6431,-0.0186,0.1854,-0.4,-0.1,0.7,0.01,0.018,0.002,0
2018,5,16,19,21,30.472,0.7427,-0.643,-0.0186,0.1854,0.2,0,0.9,0.014,0.016,0.01,0
2018,5,16,19,21,30.493,0.7428,-0.6429,-0.0186,0.1854,0.6,0.1,1,0.011,0.014,0.004,0
2018,5,16,19,21,30.497,0.743,-0.6428,-0.0186,0.1854,0.6,0,1,0.014,0.017,0.004,0
2018,5,16,19,21,30.518,0.743,-0.6427,-0.0186,0.1854,0.2,0.1,0.8,0.01,0.018,-0.001,0
2018,5,16,19,21,30.538,0.7431,-0.6426,-0.0186,0.1854,0,0.1,0.7,0.006,0.018,0.005,0
2018,5,16,19,21,30.574,0.7431,-0.6426,-0.0186,0.1854,0,0,0.8,0.009,0.019,0.002,0
2018,5,16,19,21,30.578,0.7431,-0.6425,-0.0186,0.1854,0,0.2,1,0.015,0.013,0.002,0
2018,5,16,19,21,30.594,0.7432,-0.6425,-0.0186,0.1855,-0.1,0.4,0.7,0.013,0.019,0.007,0
2018,5,16,19,21,30.614,0.7432,-0.6424,-0.0186,0.1855,-0.5,0.3,0.8,0.005,0.021,0.011,0
2018,5,16,19,21,30.634,0.7432,-0.6424,-0.0187,0.1855,-0.4,0,0.8,0.01,0.014,0.004,0
2018,5,16,19,21,30.672,0.7433,-0.6423,-0.0187,0.1855,0.8,0.3,1,0.014,0.02,0.005,1023
2018,5,16,19,21,30.693,0.7434,-0.6421,-0.0186,0.1855,0.2,0.1,0.9,0.012,0.023,0.01,1023
2018,5,16,19,21,30.698,0.7434,-0.6422,-0.0186,0.1855,-1.9,-0.3,0.8,0.008,0.025,0.005,1023
2018,5,16,19,21,30.717,0.7433,-0.6424,-0.0186,0.1855,-2.6,-0.4,0.8,0.01,0.018,0.012,1023
2018,5,16,19,21,30.735,0.7431,-0.6426,-0.0186,0.1854,-1.1,-0.2,0.9,0.015,0.012,0.01,1023
2018,5,16,19,21,30.772,0.7431,-0.6426,-0.0186,0.1854,-0.2,0,0.8,0.009,0.016,0.004,1023
2018,5,16,19,21,30.793,0.7431,-0.6426,-0.0186,0.1854,-0.4,0.1,1,0.011,0.019,0.007,1023
2018,5,16,19,21,30.797,0.7431,-0.6426,-0.0186,0.1854,-1.5,-0.4,0.8,0.013,0.024,0.003,1023
2018,5,16,19,21,30.832,0.7429,-0.6428,-0.0186,0.1853,-2.3,-0.7,0.7,0.012,0.019,0.007,1023
2018,5,16,19,21,30.852,0.7427,-0.6431,-0.0185,0.1852,-1.5,-0.5,0.7,0.009,0.011,0.004,1023
2018,5,16,19,21,30.855,0.7427,-0.6431,-0.0185,0.1852,-0.3,0,0.8,0.013,0.017,0.006,1023
2018,5,16,19,21,30.892,0.7427,-0.6431,-0.0185,0.1851,-1.2,-0.1,1,0.008,0.028,0.005,1023
2018,5,16,19,21,30.912,0.7425,-0.6434,-0.0185,0.1851,-4.3,-1,1,0.006,0.031,0.012,1023
2018,5,16,19,21,30.917,0.742,-0.644,-0.0186,0.1848,-6.3,-2.2,1,0.003,0.011,0.022,1023
2018,5,16,19,21,30.952,0.7415,-0.6447,-0.0184,0.1845,-5.2,-2.7,0.9,0.013,0.006,0.013,1023
2018,5,16,19,21,30.972,0.741,-0.6454,-0.0182,0.1841,-6.6,-3.1,0.9,0.005,0.032,0.006,1023
2018,5,16,19,21,30.977,0.7402,-0.6465,-0.018,0.1837,-8.3,-3.2,1,0.015,0.026,-0.002,1023
2018,5,16,19,21,31.015,0.7392,-0.6477,-0.0179,0.1833,-7.9,-2.7,1.6,0.008,0.016,-0.001,0
2018,5,16,19,21,31.037,0.7385,-0.6487,-0.0179,0.1828,-6.5,-2,1.6,0.014,0.008,0.006,0
2018,5,16,19,21,31.04,0.7379,-0.6493,-0.0179,0.1825,-4.1,-1.3,1.6,0.016,0.009,0.001,0
2018,5,16,19,21,31.077,0.7376,-0.6498,-0.0179,0.1823,-2.6,-1.2,1.4,0.019,0.011,0,0
2018,5,16,19,21,31.096,0.7373,-0.6501,-0.0178,0.1822,-1.5,-0.7,1.2,0.012,0.015,-0.004,0
2018,5,16,19,21,31.099,0.7372,-0.6503,-0.0178,0.1821,-1.8,-0.5,0.9,0.009,0.024,0.001,0
2018,5,16,19,21,31.118,0.737,-0.6505,-0.0178,0.182,-1,-0.2,1,0.012,0.019,0,0
2018,5,16,19,21,31.139,0.7368,-0.6508,-0.0178,0.1819,-1.4,-0.6,1.1,0.013,0.016,0.001,0
2018,5,16,19,21,31.179,0.7369,-0.6508,-0.0178,0.1818,0.4,-0.2,0.9,0.01,0.002,0.011,0
2018,5,16,19,21,31.198,0.7371,-0.6505,-0.0178,0.1818,0.4,-0.4,0.7,0.002,0.022,0.019,0
2018,5,16,19,21,31.202,0.7371,-0.6505,-0.0176,0.1818,-0.9,-0.7,0.5,0.014,0.022,0.001,0
2018,5,16,19,21,31.238,0.737,-0.6506,-0.0175,0.1818,0.2,-0.4,0.7,0.018,0.017,-0.004,0
2018,5,16,19,21,31.259,0.7372,-0.6505,-0.0174,0.1818,1.4,0.4,0.9,0.015,0.013,0.005,0
2018,5,16,19,21,31.263,0.7374,-0.6501,-0.0174,0.1818,2,0.7,1,0.01,0.022,0.004,0
2018,5,16,19,21,31.282,0.7376,-0.6499,-0.0175,0.1819,0.4,0.3,1,0.011,0.02,-0.004,0
2018,5,16,19,21,31.322,0.7377,-0.6499,-0.0175,0.1818,-0.2,0.1,1,0.009,0.022,0.002,0
2018,5,16,19,21,31.326,0.7378,-0.6497,-0.0175,0.1819,1.5,0.7,1,0.011,0.006,0.006,0
2018,5,16,19,21,31.343,0.7381,-0.6493,-0.0176,0.1819,3.7,1.3,1,0.006,0.016,0.004,0
2018,5,16,19,21,31.361,0.7385,-0.6488,-0.0177,0.182,0.9,0.7,1.1,0.007,0.029,0.003,0
2018,5,16,19,21,31.4,0.7385,-0.6488,-0.0178,0.1821,-1,0.4,0.9,0.013,0.018,0.004,0
2018,5,16,19,21,31.42,0.7385,-0.6488,-0.0178,0.1821,-0.2,0.3,1,0.01,0.012,0.009,0
2018,5,16,19,21,31.424,0.7386,-0.6487,-0.0179,0.1821,0.6,0.4,1.1,0.01,0.01,0.007,0
2018,5,16,19,21,31.443,0.7388,-0.6485,-0.0179,0.1821,0.8,0.6,1,0.011,0.018,0.003,1023
2018,5,16,19,21,31.462,0.7389,-0.6484,-0.018,0.1822,-0.9,0.3,1,0.006,0.028,0.005,1023
2018,5,16,19,21,31.498,0.7387,-0.6485,-0.018,0.1821,-1.6,-0.4,1,0.012,0.021,0.01,1023
2018,5,16,19,21,31.519,0.7387,-0.6486,-0.018,0.1821,-1,-0.2,1,0.015,0.016,0.006,1023
2018,5,16,19,21,31.523,0.7387,-0.6487,-0.018,0.182,-0.1,-0.2,0.9,0.009,0.015,0.007,1023
2018,5,16,19,21,31.564,0.7386,-0.6487,-0.018,0.1819,-2,-0.7,0.9,0.001,0.034,0.008,1023
2018,5,16,19,21,31.583,0.7383,-0.6492,-0.018,0.1817,-5.6,-2,1.1,0.009,0.027,0,1023
2018,5,16,19,21,31.587,0.7377,-0.65,-0.0178,0.1814,-5.1,-2,1,0.019,0.005,0.012,1023
2018,5,16,19,21,31.601,0.7373,-0.6505,-0.0177,0.1812,-2.9,-1.5,0.7,0.012,0.005,0.017,1023
2018,5,16,19,21,31.642,0.7371,-0.6507,-0.0176,0.1811,-1.8,-1.3,0.7,0.017,0.009,-0.001,1023
2018,5,16,19,21,31.661,0.7368,-0.6511,-0.0174,0.181,-3.1,-0.7,0.7,0.013,0.02,0,1023
2018,5,16,19,21,31.665,0.7364,-0.6515,-0.0174,0.1809,-3.2,-0.6,0.7,0.012,0.018,-0.002,1023
2018,5,16,19,21,31.685,0.7362,-0.6518,-0.0174,0.1808,-0.9,-0.1,0.8,0.017,0.014,0.001,1023
2018,5,16,19,21,31.723,0.7363,-0.6517,-0.0174,0.1809,0.4,0.1,1,0.007,0.018,0.001,1023
2018,5,16,19,21,31.725,0.7363,-0.6517,-0.0174,0.1809,-0.3,0,0.7,0.008,0.015,0.002,1023
2018,5,16,19,21,31.762,0.7363,-0.6517,-0.0173,0.1808,-0.7,-0.7,0.4,0.007,0.007,0.001,1023
2018,5,16,19,21,31.782,0.7362,-0.6518,-0.0172,0.1807,-0.4,-1.1,0.2,0.011,0.011,-0.008,1023
2018,5,16,19,21,31.784,0.7362,-0.6518,-0.017,0.1807,1.1,-0.6,0.3,0.018,0.015,-0.006,0
2018,5,16,19,21,31.822,0.7364,-0.6516,-0.0168,0.1808,2.9,0.2,0.5,0.008,0.019,-0.002,0
2018,5,16,19,21,31.842,0.7368,-0.6511,-0.0167,0.1809,3.7,1,0.8,0.017,0.013,0.001,0
2018,5,16,19,21,31.846,0.7374,-0.6504,-0.0167,0.1811,4.5,1.4,0.7,0.016,0.013,0,0
2018,5,16,19,21,31.864,0.7379,-0.6497,-0.0167,0.1813,4.2,1.5,0.7,0.008,0.025,0.01,0
2018,5,16,19,21,31.883,0.7384,-0.6491,-0.0167,0.1815,2.3,0.4,1,0.01,0.025,0.015,0
2018,5,16,19,21,31.92,0.7387,-0.6487,-0.0167,0.1815,1.2,0.3,0.8,0.012,0.027,0.01,0
2018,5,16,19,21,31.94,0.7389,-0.6485,-0.0166,0.1816,0.3,0,0.9,0.015,0.017,0.012,0
2018,5,16,19,21,31.944,0.739,-0.6484,-0.0166,0.1816,0.3,0.1,0.7,0.01,0.019,0.006,0
2018,5,16,19,21,31.983,0.7391,-0.6483,-0.0166,0.1816,-0.7,-0.1,1,0.01,0.023,0.01,0
2018,5,16,19,21,32.003,0.7391,-0.6483,-0.0166,0.1815,-1,-0.1,1,0.01,0.015,0.009,0
2018,5,16,19,21,32.005,0.7391,-0.6484,-0.0166,0.1815,-0.4,-0.2,1.1,0.012,0.016,0.005,0
2018,5,16,19,21,32.042,0.7391,-0.6483,-0.0166,0.1814,0.3,0.1,0.9,0.012,0.011,-0.002,0
2018,5,16,19,21,32.061,0.7392,-0.6483,-0.0166,0.1814,-0.2,0,0.8,0.012,0.018,0.001,0
2018,5,16,19,21,32.068,0.7391,-0.6484,-0.0166,0.1814,-1.3,0,0.8,0.011,0.019,0.003,0
2018,5,16,19,21,32.084,0.739,-0.6484,-0.0166,0.1814,-0.1,0.2,0.8,0.014,0.01,0.004,0
2018,5,16,19,21,32.12,0.7391,-0.6483,-0.0166,0.1815,0.9,0.6,0.9,0.011,0.018,0.007,0
2018,5,16,19,21,32.14,0.7393,-0.6481,-0.0166,0.1815,-0.7,0.3,0.8,-0.001,0.037,0.008,0
2018,5,16,19,21,32.144,0.739,-0.6484,-0.0167,0.1814,-4.9,-1,0.9,0.008,0.035,0.012,0
2018,5,16,19,21,32.185,0.7385,-0.6491,-0.0167,0.1812,-6.8,-1.8,1,0.009,0.017,0.018,0
2018,5,16,19,21,32.205,0.7379,-0.6499,-0.0166,0.181,-5.8,-1.8,0.8,0.01,0.017,0.012,0
2018,5,16,19,21,32.21,0.7373,-0.6506,-0.0166,0.1807,-6.9,-2.4,1,0.003,0.026,0.002,0
2018,5,16,19,21,32.245,0.7364,-0.6517,-0.0165,0.1803,-7.6,-2.7,1,0.014,0.01,-0.008,1023
2018,5,16,19,21,32.264,0.7356,-0.6527,-0.0164,0.18,-5.3,-2,1,0.018,-0.001,-0.01,1023
2018,5,16,19,21,32.268,0.7352,-0.6532,-0.0163,0.1798,-1.9,-0.8,0.9,0.015,0.002,-0.005,1023
2018,5,16,19,21,32.308,0.7352,-0.6533,-0.0162,0.1797,0.8,0.1,0.8,0.016,0.011,-0.011,1023
2018,5,16,19,21,32.328,0.7353,-0.6532,-0.0162,0.1798,1.6,0.8,0.8,0.016,0.015,-0.004,1023
2018,5,16,19,21,32.332,0.7355,-0.6529,-0.0163,0.1799,2,1.3,0.6,0.007,0.015,0.007,1023
2018,5,16,19,21,32.348,0.7358,-0.6525,-0.0163,0.18,1.2,0.8,0.6,0.007,0.029,0.017,1023
2018,5,16,19,21,32.387,0.7359,-0.6523,-0.0163,0.1801,-0.4,0.1,0.8,0.02,0.028,0.016,1023
2018,5,16,19,21,32.406,0.7359,-0.6523,-0.0163,0.1801,-0.8,-0.1,1.2,0.013,0.019,0.013,1023
2018,5,16,19,21,32.411,0.736,-0.6522,-0.0163,0.1801,-0.4,0,0.8,0.006,0.015,0.016,1023
2018,5,16,19,21,32.429,0.7361,-0.6522,-0.0163,0.1801,-1.2,-0.3,0.9,0.007,0.026,0.01,1023
2018,5,16,19,21,32.451,0.7359,-0.6524,-0.0163,0.18,-3.3,-0.9,1.1,0.013,0.025,0.005,1023
2018,5,16,19,21,32.489,0.7355,-0.6529,-0.0162,0.1799,-2.7,-1.2,0.9,0.02,0.002,-0.006,1023
2018,5,16,19,21,32.51,0.7354,-0.6531,-0.0161,0.1797,-0.5,-0.2,1,0.011,0.01,-0.002,1023
2018,5,16,19,21,32.514,0.7354,-0.6531,-0.0161,0.1797,0.1,0.1,0.8,0.007,0.017,-0.006,1023
2018,5,16,19,21,32.532,0.7354,-0.6531,-0.0161,0.1797,0,0.3,0.8,0.006,0.021,-0.002,1023
2018,5,16,19,21,32.552,0.7353,-0.6531,-0.0161,0.1797,-1,-0.1,0.8,0.013,0.018,0,1023
2018,5,16,19,21,32.572,0.7352,-0.6533,-0.0161,0.1797,-0.6,0.1,0.7,0.015,0.009,0.001,1023
2018,5,16,19,21,32.613,0.7353,-0.6532,-0.0162,0.1797,1.4,0.7,0.7,0.013,0.011,0.009,1023
2018,5,16,19,21,32.633,0.7356,-0.6527,-0.0162,0.1799,2.8,1.3,0.9,0.006,0.018,0.012,0
2018,5,16,19,21,32.637,0.736,-0.6523,-0.0163,0.18,1,0.9,0.7,0.008,0.027,0.013,0
2018,5,16,19,21,32.651,0.736,-0.6522,-0.0163,0.18,-1.3,0,1,0.008,0.026,0.007,0
2018,5,16,19,21,32.69,0.7359,-0.6524,-0.0163,0.18,-1.6,-0.6,1,0.009,0.017,0.012,0
2018,5,16,19,21,32.709,0.7359,-0.6525,-0.0163,0.1799,-0.9,-0.6,1,0.01,0.016,0.009,0
2018,5,16,19,21,32.714,0.7359,-0.6525,-0.0163,0.1798,-0.2,-0.1,0.8,0.015,0.018,-0.001,0
2018,5,16,19,21,32.733,0.7358,-0.6525,-0.0162,0.1798,-0.9,-0.1,1,0.007,0.024,0,0
2018,5,16,19,21,32.753,0.7357,-0.6527,-0.0163,0.1797,-2,-0.4,1,0.01,0.02,0.002,0
2018,5,16,19,21,32.773,0.7355,-0.6529,-0.0162,0.1797,-2,-0.6,0.8,0.019,0.013,0.002,0
2018,5,16,19,21,32.793,0.7354,-0.6531,-0.0162,0.1796,0.9,0.2,0.7,0.014,-0.002,-0.008,0
2018,5,16,19,21,32.834,0.7357,-0.6527,-0.0162,0.1797,3.9,1.3,0.7,0.004,0.011,-0.003,0
2018,5,16,19,21,32.853,0.7361,-0.6522,-0.0163,0.1799,3.3,1.2,0.6,0.008,0.025,-0.006,0
2018,5,16,19,21,32.857,0.7364,-0.6519,-0.0163,0.18,1.3,0.7,0.8,0.009,0.031,0,0
2018,5,16,19,21,32.874,0.7365,-0.6517,-0.0164,0.1801,0.3,0.4,1,-0.001,0.014,0.011,0
2018,5,16,19,21,32.891,0.7368,-0.6514,-0.0164,0.1801,2.2,0.3,0.8,0.021,0.012,0.026,0
2018,5,16,19,21,32.911,0.7372,-0.6508,-0.0162,0.1803,3.8,0.8,0.8,0.023,0.022,0.012,0
2018,5,16,19,21,32.947,0.7377,-0.6503,-0.0162,0.1804,1.9,0.6,0.9,0.007,0.035,0.012,0
2018,5,16,19,21,32.968,0.7379,-0.6501,-0.0162,0.1805,-0.2,0.4,0.7,0.011,0.028,0.01,0
2018,5,16,19,21,32.975,0.7379,-0.65,-0.0162,0.1805,-0.9,0.2,0.9,0.01,0.018,0.015,0
2018,5,16,19,21,33.013,0.7379,-0.65,-0.0163,0.1805,-2.3,-0.4,0.7,0.005,0.029,0.017,1023
2018,5,16,19,21,33.033,0.7376,-0.6504,-0.0163,0.1804,-4.2,-1.2,0.9,0.008,0.023,0.008,1023
2018,5,16,19,21,33.037,0.7371,-0.651,-0.0162,0.1802,-4.4,-1.3,1,0.012,0.013,0.003,1023
2018,5,16,19,21,33.075,0.7367,-0.6514,-0.0162,0.1801,-2.5,-0.9,0.8,0.014,0.013,0.002,1023
2018,5,16,19,21,33.094,0.7365,-0.6518,-0.0161,0.18,-3.4,-0.7,0.7,0.005,0.023,0.001,1023
2018,5,16,19,21,33.099,0.7359,-0.6525,-0.0161,0.1798,-6.9,-1.6,0.5,0.011,0.03,-0.002,1023
2018,5,16,19,21,33.113,0.7348,-0.6537,-0.016,0.1796,-11.2,-2.6,0.4,0.012,0.025,0.004,1023
2018,5,16,19,21,33.151,0.7334,-0.6554,-0.016,0.1793,-13.7,-2.9,0.3,0.007,0.022,0.011,1023
2018,5,16,19,21,33.171,0.732,-0.657,-0.016,0.179,-10.8,-2.4,0.2,0.015,0.005,0.012,1023
2018,5,16,19,21,33.175,0.7312,-0.6579,-0.0159,0.1789,-4.2,-0.9,0.9,0.016,-0.005,0.003,1023
2018,5,16,19,21,33.213,0.7312,-0.658,-0.016,0.1788,1.3,0,1.1,0.014,0.01,-0.003,1023
2018,5,16,19,21,33.233,0.7313,-0.6579,-0.0159,0.1788,0.8,0.3,1,0.01,0.019,-0.005,1023
2018,5,16,19,21,33.237,0.7313,-0.6579,-0.0159,0.1788,-0.1,0,0.7,0.013,0.011,-0.001,1023
2018,5,16,19,21,33.276,0.7313,-0.6579,-0.0159,0.1788,0,0.2,0.5,0.004,0.019,0.004,1023
2018,5,16,19,21,33.297,0.7314,-0.6578,-0.0159,0.1788,0,0,0.8,0.006,0.016,0.002,1023
2018,5,16,19,21,33.301,0.7314,-0.6577,-0.016,0.1788,0.1,0.1,0.8,0.012,0.019,0.012,1023
2018,5,16,19,21,33.32,0.7315,-0.6576,-0.0159,0.1789,0.6,0.1,0.7,0.015,0.012,0.011,1023
2018,5,16,19,21,33.34,0.7317,-0.6574,-0.0159,0.179,1.1,0.4,0.8,0.014,0.021,0.005,1023
2018,5,16,19,21,33.378,0.7319,-0.6572,-0.0159,0.179,0,0.1,1,0.008,0.03,0.008,0
2018,5,16,19,21,33.397,0.7318,-0.6573,-0.016,0.179,-3.1,-0.3,1,0.002,0.029,0.012,0
2018,5,16,19,21,33.401,0.7314,-0.6578,-0.016,0.1788,-4.6,-1.1,0.9,0.013,0.016,0.008,0
2018,5,16,19,21,33.417,0.731,-0.6583,-0.016,0.1787,-4.1,-1,0.9,0.012,0.017,0.002,0
2018,5,16,19,21,33.456,0.7306,-0.6587,-0.0159,0.1786,-2.4,-0.9,1.1,0.011,0.009,0.007,0
2018,5,16,19,21,33.476,0.7305,-0.6589,-0.0159,0.1784,-1.3,-0.4,1,0.009,0.017,0,0
2018,5,16,19,21,33.48,0.7303,-0.6591,-0.016,0.1784,-2,-0.3,0.9,0.009,0.027,0.003,0
2018,5,16,19,21,33.499,0.73,-0.6594,-0.0159,0.1783,-2.6,-0.7,1,0.018,0.01,0,0
2018,5,16,19,21,33.518,0.7299,-0.6596,-0.0159,0.1782,-0.7,-0.4,0.9,0.014,0.007,0.007,0
2018,5,16,19,21,33.558,0.7299,-0.6596,-0.0159,0.1782,0,0.1,0.8,0.01,0.01,0.005,0
2018,5,16,19,21,33.58,0.7299,-0.6596,-0.0158,0.1782,0.1,0.1,0.6,0.01,0.023,-0.001,0
2018,5,16,19,21,33.584,0.7299,-0.6596,-0.0158,0.1782,-2.2,0,0.6,0.01,0.029,0.004,0
2018,5,16,19,21,33.601,0.7295,-0.66,-0.0159,0.1782,-4.1,-0.4,0.6,0.009,0.024,0.007,0
2018,5,16,19,21,33.621,0.729,-0.6606,-0.0159,0.1782,-6.8,-0.7,0.5,0.006,0.03,0.015,0
2018,5,16,19,21,33.638,0.7282,-0.6615,-0.016,0.1781,-7.6,-0.6,0.6,0.017,0.01,0.017,0
2018,5,16,19,21,33.656,0.7278,-0.662,-0.0161,0.1781,-1.5,0.3,0.8,0.014,0.004,0.012,0
2018,5,16,19,21,33.697,0.7278,-0.6619,-0.0162,0.1781,-0.1,0.3,1.2,0.011,0.026,0.005,0
