time_1,time_2,time_3,time_4,time_5,time_6,w,x,y,z,droll,dpitch,dyaw,ax,ay,az,heart
2018,5,17,22,53,19.431,-0.2181,0.5507,0.7545,-0.2823,0,0,0,0,0.001,0.007,0
2018,5,17,22,53,19.454,-0.2182,0.5507,0.7545,-0.2823,0,0,0,0,0.002,0.006,0
2018,5,17,22,53,19.469,-0.2182,0.5507,0.7545,-0.2823,0,0,0,0,0.005,0.001,0
2018,5,17,22,53,19.487,-0.2182,0.5507,0.7545,-0.2823,0,0,0,0,0.004,0.008,0
2018,5,17,22,53,19.51,-0.2182,0.5507,0.7545,-0.2823,0,0,0,0.001,0.001,0.002,0
2018,5,17,22,53,19.529,-0.2182,0.5507,0.7545,-0.2823,0,0,0,0,0.001,0.007,0
2018,5,17,22,53,19.552,-0.2182,0.5507,0.7544,-0.2824,0,0,0,0,0.003,0.002,0
2018,5,17,22,53,19.571,-0.2182,0.5507,0.7545,-0.2823,-0.5,0,0,0.002,0.002,0.004,0
2018,5,17,22,53,19.59,-0.2182,0.5507,0.7545,-0.2823,0,0,0,0,0.002,0.004,0
2018,5,17,22,53,19.612,-0.2182,0.5507,0.7545,-0.2823,0,0,0,-0.002,0.003,0.002,0
2018,5,17,22,53,19.63,-0.2182,0.5507,0.7545,-0.2823,0,0,0,-0.002,0.002,0.005,0
2018,5,17,22,53,19.653,-0.2182,0.5507,0.7545,-0.2823,0,0,0,0.001,0.003,0.001,0
2018,5,17,22,53,19.67,-0.2182,0.5507,0.7545,-0.2823,0,0,0,-0.001,0.003,0,0
2018,5,17,22,53,19.707,-0.2182,0.5507,0.7545,-0.2823,0,0,0,0.001,0.001,0.008,0
2018,5,17,22,53,19.73,-0.2182,0.5507,0.7545,-0.2823,0,0,0,0,0.003,0.008,0
2018,5,17,22,53,19.735,-0.2182,0.5507,0.7545,-0.2823,0,0,0,0.001,0.004,0.002,0
2018,5,17,22,53,19.751,-0.2182,0.5507,0.7545,-0.2823,0,0,0,0.001,0.001,0.003,0
2018,5,17,22,53,19.775,-0.2182,0.5507,0.7545,-0.2823,0,0,0,0,0.003,0.008,0
2018,5,17,22,53,19.79,-0.2182,0.5507,0.7545,-0.2823,0,0,0,0.001,0.002,0.003,0
2018,5,17,22,53,19.813,-0.2182,0.5507,0.7545,-0.2823,0,0,0,0,0.002,0.006,0
2018,5,17,22,53,19.851,-0.2181,0.5507,0.7545,-0.2823,0,0,0,-0.001,0.003,0.002,0
2018,5,17,22,53,19.851,-0.2182,0.5507,0.7545,-0.2823,0,0,0,-0.003,0.001,0.002,0
2018,5,17,22,53,19.874,-0.2182,0.5507,0.7545,-0.2823,0,0,0,0,0.001,0.004,0
2018,5,17,22,53,19.89,-0.2182,0.5507,0.7545,-0.2823,0,0,0,0,0.002,0.001,1023
2018,5,17,22,53,19.913,-0.2182,0.5507,0.7545,-0.2823,0,0,0,0,0.002,0.003,1023
2018,5,17,22,53,19.949,-0.2182,0.5507,0.7545,-0.2823,0,0,0,0,0,0.003,1023
2018,5,17,22,53,19.973,-0.2182,0.5507,0.7545,-0.2823,0,0,0,0,0,0.003,1023
2018,5,17,22,53,19.977,-0.2182,0.5507,0.7545,-0.2823,0,0,0,0.001,0.003,0.003,1023
2018,5,17,22,53,19.993,-0.2182,0.5507,0.7544,-0.2823,0,0,0,0,0.004,0.002,1023
2018,5,17,22,53,20.016,-0.2182,0.5507,0.7544,-0.2823,0,0,0,0,0,0.003,1023
2018,5,17,22,53,20.032,-0.2182,0.5507,0.7545,-0.2823,0,0,0,0,0.004,0.004,1023
2018,5,17,22,53,20.055,-0.2182,0.5507,0.7545,-0.2823,0,0,0,0.001,0.006,0.004,1023
2018,5,17,22,53,20.092,-0.2181,0.5507,0.7545,-0.2823,0,0,0,-0.001,0.003,0.004,1023
2018,5,17,22,53,20.114,-0.2181,0.5507,0.7545,-0.2823,0,0,0,0.002,0.004,0.007,1023
2018,5,17,22,53,20.119,-0.2182,0.5507,0.7544,-0.2823,0,0,0,-0.001,0.002,0.002,1023
2018,5,17,22,53,20.135,-0.2181,0.5508,0.7544,-0.2823,0,0,0,0,0.001,0,1023
2018,5,17,22,53,20.157,-0.2181,0.5508,0.7544,-0.2824,0,0,0,0,0.003,0.003,1023
2018,5,17,22,53,20.176,-0.2181,0.5508,0.7544,-0.2823,0,0,0,0,0.002,0.001,1023
2018,5,17,22,53,20.199,-0.2181,0.5508,0.7544,-0.2824,0,0,0,0.001,0.002,0.007,1023
2018,5,17,22,53,20.215,-0.2181,0.5508,0.7544,-0.2824,0,0,0,0,0.001,0.005,1023
2018,5,17,22,53,20.233,-0.2182,0.5507,0.7544,-0.2824,0,0,0,-0.001,0.003,0.003,1023
2018,5,17,22,53,20.256,-0.2181,0.5507,0.7544,-0.2824,0,0,0,0,0.001,0.005,1023
2018,5,17,22,53,20.292,-0.2182,0.5507,0.7544,-0.2824,0,0,0,0,0.002,0.008,1023
2018,5,17,22,53,20.315,-0.2182,0.5507,0.7544,-0.2824,0,0,0,0.002,0.002,0.006,1023
2018,5,17,22,53,20.32,-0.2182,0.5507,0.7544,-0.2824,0,0,0,-0.002,0.002,0,1023
2018,5,17,22,53,20.336,-0.2182,0.5507,0.7544,-0.2824,0,0,0,-0.001,0.003,0.003,0
2018,5,17,22,53,20.359,-0.2182,0.5507,0.7544,-0.2824,0,0,0,0,0.002,0.003,0
2018,5,17,22,53,20.395,-0.2182,0.5507,0.7544,-0.2824,0,0,0,0.002,0.001,0.002,0
2018,5,17,22,53,20.418,-0.2182,0.5507,0.7544,-0.2824,0,0,0,0.001,0.004,0.004,0
2018,5,17,22,53,20.422,-0.2182,0.5507,0.7544,-0.2824,0,0,0,0,0.004,0.004,0
2018,5,17,22,53,20.438,-0.2182,0.5507,0.7544,-0.2824,0,0,0,0,0.001,0.002,0
2018,5,17,22,53,20.462,-0.2182,0.5507,0.7544,-0.2824,0,0,0,0,0.001,0,0
2018,5,17,22,53,20.479,-0.2182,0.5507,0.7544,-0.2824,0,0,0,-0.001,0.002,0.009,0
2018,5,17,22,53,20.496,-0.2182,0.5507,0.7544,-0.2825,0,0,0,0,0.001,0.002,0
2018,5,17,22,53,20.518,-0.2181,0.5508,0.7544,-0.2824,0,0,0,0,0.003,0.004,0
2018,5,17,22,53,20.555,-0.2181,0.5508,0.7544,-0.2824,0,0,0,0,0.004,0.008,0
2018,5,17,22,53,20.579,-0.2181,0.5508,0.7544,-0.2824,0,0,0,-0.003,0.002,0.003,0
2018,5,17,22,53,20.583,-0.2182,0.5507,0.7544,-0.2824,0,0,0,-0.001,0.002,0.004,0
2018,5,17,22,53,20.599,-0.2182,0.5507,0.7544,-0.2824,0,0,0,0,0.003,0.007,0
2018,5,17,22,53,20.636,-0.2182,0.5507,0.7544,-0.2824,0,0,0,0.001,0.003,-0.001,0
2018,5,17,22,53,20.658,-0.2182,0.5507,0.7544,-0.2824,0,0,0,0.001,0.004,0.001,0
2018,5,17,22,53,20.663,-0.2182,0.5507,0.7544,-0.2824,0,0,0,0.001,0.003,0.009,0
2018,5,17,22,53,20.679,-0.2182,0.5507,0.7544,-0.2824,0,0,0,0,0.004,0.004,0
2018,5,17,22,53,20.697,-0.2182,0.5507,0.7544,-0.2824,0,0,0,-0.002,0.004,0.007,0
2018,5,17,22,53,20.721,-0.2182,0.5507,0.7544,-0.2824,0,0,0,-0.001,0.001,0.001,0
2018,5,17,22,53,20.74,-0.2182,0.5507,0.7544,-0.2824,0,0,0,0.001,0.003,0.009,1023
2018,5,17,22,53,20.758,-0.2182,0.5507,0.7544,-0.2824,0,0,0,0,0.002,0.001,1023
2018,5,17,22,53,20.781,-0.2182,0.5507,0.7544,-0.2824,0,0,0,0,0.004,0.003,1023
2018,5,17,22,53,20.798,-0.2182,0.5507,0.7544,-0.2824,0,0,0,0,0.003,0.004,1023
2018,5,17,22,53,20.821,-0.2182,0.5507,0.7544,-0.2825,0,0,0,0.001,0.001,0.003,1023
2018,5,17,22,53,20.839,-0.2182,0.5507,0.7544,-0.2825,0,0,0,0.002,0.001,0.004,1023
2018,5,17,22,53,20.862,-0.2182,0.5507,0.7544,-0.2825,0,0,0,0,0.002,0.003,1023
2018,5,17,22,53,20.899,-0.2182,0.5507,0.7544,-0.2825,0,0,0,-0.001,0,0.005,1023
2018,5,17,22,53,20.921,-0.2183,0.5507,0.7544,-0.2825,0,0,0,-0.003,0,0.002,1023
2018,5,17,22,53,20.925,-0.2183,0.5507,0.7544,-0.2825,0,0,0,0,0.004,0.003,1023
2018,5,17,22,53,20.941,-0.2182,0.5507,0.7544,-0.2825,0,0,0,0.002,0.003,0.001,1023
2018,5,17,22,53,20.964,-0.2183,0.5507,0.7544,-0.2825,0,0,0,0,0.002,0.001,1023
2018,5,17,22,53,20.979,-0.2183,0.5507,0.7544,-0.2825,0,0,0,-0.001,0.003,0.004,1023
2018,5,17,22,53,21.002,-0.2183,0.5507,0.7544,-0.2825,0,0,0,-0.001,0.002,0.007,1023
2018,5,17,22,53,21.038,-0.2183,0.5507,0.7544,-0.2825,0,0,0,0.002,0,0.009,1023
2018,5,17,22,53,21.061,-0.2183,0.5507,0.7544,-0.2825,0,0,0,0,0,0.001,1023
2018,5,17,22,53,21.066,-0.2183,0.5507,0.7544,-0.2825,0,0,0,0.001,0.002,0.002,1023
2018,5,17,22,53,21.085,-0.2183,0.5507,0.7544,-0.2825,0,0,0,0.001,0.002,0.001,1023
2018,5,17,22,53,21.105,-0.2183,0.5507,0.7544,-0.2825,0,0,0,0,0.004,0.003,1023
2018,5,17,22,53,21.137,-0.2183,0.5507,0.7544,-0.2826,0,0,0,0,0.005,0.005,1023
2018,5,17,22,53,21.16,-0.2183,0.5507,0.7544,-0.2826,0,0,0,0.001,0.001,0.007,1023
2018,5,17,22,53,21.164,-0.2183,0.5507,0.7544,-0.2826,0,0,0,0,0.002,0.004,0
2018,5,17,22,53,21.201,-0.2183,0.5507,0.7544,-0.2826,0,0,0,0,0.003,0,0
2018,5,17,22,53,21.225,-0.2183,0.5507,0.7544,-0.2826,0,0,0,-0.002,0.001,0.001,0
2018,5,17,22,53,21.228,-0.2183,0.5507,0.7544,-0.2826,0,0,0,-0.001,0.003,0.002,0
2018,5,17,22,53,21.243,-0.2183,0.5507,0.7544,-0.2826,0,0,0,0.001,0,0.002,0
2018,5,17,22,53,21.262,-0.2183,0.5507,0.7544,-0.2826,0,0,0,-0.002,0.004,0.003,0
2018,5,17,22,53,21.285,-0.2183,0.5507,0.7544,-0.2826,0,0,0,0,0.003,0.002,0
2018,5,17,22,53,21.305,-0.2183,0.5507,0.7544,-0.2826,0,0,0,0,0.002,0.005,0
2018,5,17,22,53,21.342,-0.2183,0.5507,0.7544,-0.2826,0,0,0,0.001,0.005,0.001,0
2018,5,17,22,53,21.365,-0.2183,0.5507,0.7544,-0.2826,0,0,0,0,0.003,-0.002,0
2018,5,17,22,53,21.369,-0.2183,0.5507,0.7544,-0.2826,0,0,0,0.002,0.001,0.005,0
2018,5,17,22,53,21.387,-0.2183,0.5507,0.7543,-0.2826,0,0,0,-0.002,0.001,0.003,0
2018,5,17,22,53,21.404,-0.2184,0.5507,0.7543,-0.2826,0,0,0,-0.001,0.001,0.006,0
2018,5,17,22,53,21.427,-0.2184,0.5507,0.7543,-0.2826,0,0,0,0,0,0.006,0
2018,5,17,22,53,21.443,-0.2184,0.5507,0.7543,-0.2827,0,0,0,0,0.003,0,0
2018,5,17,22,53,21.462,-0.2184,0.5507,0.7543,-0.2827,0,0,0,0,0.003,-0.001,0
2018,5,17,22,53,21.485,-0.2184,0.5507,0.7543,-0.2827,0,0,0,-0.003,0.003,0.004,0
2018,5,17,22,53,21.503,-0.2184,0.5507,0.7543,-0.2826,0,0,0,-0.001,0.003,0.007,0
2018,5,17,22,53,21.526,-0.2184,0.5506,0.7543,-0.2826,0,0,0,0,0.001,0.004,0
2018,5,17,22,53,21.544,-0.2185,0.5506,0.7543,-0.2826,0,0,0,-0.003,0.004,0.004,0
2018,5,17,22,53,21.567,-0.2185,0.5506,0.7543,-0.2827,0,0,0,0.001,0,0.005,0
2018,5,17,22,53,21.585,-0.2185,0.5506,0.7543,-0.2827,0,0,0,0,0,0.005,0
2018,5,17,22,53,21.608,-0.2185,0.5506,0.7543,-0.2827,0,0,0,0,0.002,0.004,0
2018,5,17,22,53,21.627,-0.2185,0.5506,0.7543,-0.2827,0,0,0,-0.001,0.002,0.002,0
2018,5,17,22,53,21.648,-0.2185,0.5506,0.7543,-0.2827,0,0,0,0,0.001,0.005,0
2018,5,17,22,53,21.666,-0.2185,0.5506,0.7543,-0.2827,0,0,0,0.002,0.005,0.003,1023
2018,5,17,22,53,21.684,-0.2185,0.5506,0.7543,-0.2827,0,0,0,-0.001,0.002,0.007,1023
2018,5,17,22,53,21.707,-0.2185,0.5506,0.7543,-0.2827,0,0,0,-0.001,0.002,0.007,1023
2018,5,17,22,53,21.725,-0.2185,0.5506,0.7543,-0.2827,0,0,0,0.001,0.003,0.005,1023
2018,5,17,22,53,21.748,-0.2185,0.5506,0.7543,-0.2827,0,0,0,0.003,0.005,0.008,1023
2018,5,17,22,53,21.766,-0.2185,0.5506,0.7543,-0.2827,0,0,0,0,0.002,0.003,1023
2018,5,17,22,53,21.789,-0.2186,0.5506,0.7543,-0.2827,0,0,0,0,0.003,0.004,1023
2018,5,17,22,53,21.807,-0.2186,0.5506,0.7543,-0.2827,0,0,0,0,0.002,0.005,1023
2018,5,17,22,53,21.83,-0.2186,0.5506,0.7543,-0.2827,0,0,0,-0.004,0.003,0.007,1023
2018,5,17,22,53,21.848,-0.2186,0.5506,0.7543,-0.2827,0,0,0,-0.001,0.002,0.001,1023
2018,5,17,22,53,21.872,-0.2186,0.5506,0.7543,-0.2827,0,0,0,-0.001,0.002,0.003,1023
2018,5,17,22,53,21.89,-0.2186,0.5506,0.7543,-0.2827,0,0,0,-0.001,0.002,0.004,1023
2018,5,17,22,53,21.908,-0.2186,0.5506,0.7543,-0.2827,0,0,0,0.002,0.001,0.002,1023
2018,5,17,22,53,21.931,-0.2186,0.5506,0.7543,-0.2827,0,0,0,0,0.006,0.005,1023
2018,5,17,22,53,21.968,-0.2186,0.5506,0.7543,-0.2828,0,0,0,0,0.003,0.002,1023
2018,5,17,22,53,21.991,-0.2186,0.5506,0.7543,-0.2828,0,0,0,0.003,0.004,0.005,1023
2018,5,17,22,53,21.996,-0.2186,0.5506,0.7543,-0.2828,0,0,0,0.001,0.002,0.003,1023
2018,5,17,22,53,22.009,-0.2186,0.5506,0.7543,-0.2827,0,0,0,0,0.004,0.004,1023
2018,5,17,22,53,22.046,-0.2186,0.5506,0.7543,-0.2827,0,0,0,0,0.005,0.001,1023
2018,5,17,22,53,22.069,-0.2186,0.5506,0.7543,-0.2827,0,0,0,0,0.003,0.003,1023
2018,5,17,22,53,22.074,-0.2186,0.5506,0.7543,-0.2827,0,0,0,0,0.003,0.002,1023
2018,5,17,22,53,22.09,-0.2186,0.5506,0.7543,-0.2827,0,0,0,0,0.003,0.002,1023
2018,5,17,22,53,22.126,-0.2186,0.5506,0.7543,-0.2827,0,0,0,-0.002,0.001,0.002,0
2018,5,17,22,53,22.149,-0.2186,0.5506,0.7543,-0.2827,0,0,0,0,0.002,0.005,0
2018,5,17,22,53,22.154,-0.2186,0.5506,0.7543,-0.2827,0,0,0,-0.001,0.005,0.007,0
2018,5,17,22,53,22.189,-0.2186,0.5506,0.7543,-0.2828,0,0,0,0,0.002,0.008,0
2018,5,17,22,53,22.189,-0.2186,0.5506,0.7543,-0.2827,0,0,0,0.001,0.002,0.002,0
2018,5,17,22,53,22.211,-0.2186,0.5506,0.7543,-0.2827,0,0,0,0,0.005,0.004,0
2018,5,17,22,53,22.25,-0.2186,0.5506,0.7543,-0.2827,0,0,0,-0.001,0.005,0.002,0
2018,5,17,22,53,22.25,-0.2186,0.5506,0.7543,-0.2827,0,0,0,0.001,0.001,0.003,0
2018,5,17,22,53,22.272,-0.2186,0.5506,0.7543,-0.2827,0,0,0,0,0.003,0.012,0
2018,5,17,22,53,22.308,-0.2186,0.5506,0.7543,-0.2828,-0.5,0,0,0,0.001,0.003,0
2018,5,17,22,53,22.329,-0.2186,0.5506,0.7543,-0.2827,-0.5,-0.2,-0.1,0,0.005,0.004,0
2018,5,17,22,53,22.334,-0.2186,0.5506,0.7543,-0.2827,0,0,0,-0.001,0.003,0,0
2018,5,17,22,53,22.37,-0.2186,0.5506,0.7543,-0.2827,0,0,0,0,0.004,0.006,0
2018,5,17,22,53,22.393,-0.2186,0.5506,0.7543,-0.2827,0,0,0,-0.003,0.001,0.002,0
2018,5,17,22,53,22.397,-0.2186,0.5506,0.7543,-0.2827,0,0,0,0,0.002,0.003,0
2018,5,17,22,53,22.412,-0.2186,0.5506,0.7543,-0.2827,0,0,0,0.001,0.004,0.001,0
2018,5,17,22,53,22.435,-0.2186,0.5506,0.7543,-0.2827,0,0,0,0,0.003,0.003,0
2018,5,17,22,53,22.453,-0.2186,0.5506,0.7543,-0.2827,0,0,0,0,0.003,0.003,0
2018,5,17,22,53,22.471,-0.2186,0.5506,0.7543,-0.2827,0,0,0,-0.003,-0.002,0.004,0
2018,5,17,22,53,22.508,-0.2187,0.5506,0.7543,-0.2828,0,0,0,-0.001,0.013,0.006,0
2018,5,17,22,53,22.531,-0.2187,0.5505,0.7542,-0.2828,0,0,0,-0.003,0.003,0.011,0
2018,5,17,22,53,22.535,-0.2186,0.5506,0.7543,-0.2827,-0.5,0,-0.1,0.006,0.001,-0.007,0
2018,5,17,22,53,22.551,-0.2185,0.5506,0.7543,-0.2827,-1.1,0.1,0,0.006,0.014,0,1023
2018,5,17,22,53,22.575,-0.2184,0.5507,0.7543,-0.2826,0,0,0,0.001,0.007,0,1023
2018,5,17,22,53,22.61,-0.2185,0.5506,0.7543,-0.2827,1.2,0,0.3,0.001,0.007,0.009,1023
2018,5,17,22,53,22.633,-0.2186,0.5506,0.7543,-0.2827,0,0,0,0,-0.007,0.008,1023
2018,5,17,22,53,22.637,-0.2186,0.5506,0.7543,-0.2828,0,0,0,0,-0.001,0.005,1023
2018,5,17,22,53,22.654,-0.2187,0.5506,0.7543,-0.2828,0,0,0,-0.002,0.001,0.008,1023
2018,5,17,22,53,22.676,-0.2187,0.5506,0.7543,-0.2828,0,0,0,-0.001,-0.001,0.002,1023
2018,5,17,22,53,22.696,-0.2187,0.5506,0.7543,-0.2828,0,0,0,-0.002,0.01,0.003,1023
2018,5,17,22,53,22.719,-0.2187,0.5506,0.7543,-0.2827,0,0,0,0,0.002,-0.002,1023
2018,5,17,22,53,22.737,-0.2186,0.5506,0.7543,-0.2827,0,0,0,0.003,0.005,0,1023
2018,5,17,22,53,22.755,-0.2186,0.5506,0.7543,-0.2827,0,0,0,0.002,0.002,0,1023
2018,5,17,22,53,22.773,-0.2186,0.5506,0.7543,-0.2827,0,0,0,0.001,0.001,0.006,1023
2018,5,17,22,53,22.795,-0.2187,0.5506,0.7543,-0.2827,0,0,0,0,0.001,0.004,1023
2018,5,17,22,53,22.813,-0.2187,0.5506,0.7543,-0.2828,0,0,0,0,0,0.003,1023
2018,5,17,22,53,22.837,-0.2187,0.5505,0.7543,-0.2828,0,0,0,-0.002,0.001,0.005,1023
2018,5,17,22,53,22.855,-0.2187,0.5505,0.7543,-0.2828,0,0,0,0,0.004,-0.002,1023
2018,5,17,22,53,22.878,-0.2187,0.5505,0.7543,-0.2827,0,0,0,-0.001,0.009,0.004,1023
2018,5,17,22,53,22.896,-0.2187,0.5506,0.7543,-0.2827,0,0,0,-0.001,0.001,0.001,1023
2018,5,17,22,53,22.92,-0.2187,0.5506,0.7543,-0.2827,0,0,0,0,-0.004,0.003,1023
2018,5,17,22,53,22.94,-0.2187,0.5506,0.7543,-0.2827,0,0,0,-0.002,0.002,-0.002,1023
2018,5,17,22,53,22.958,-0.2187,0.5506,0.7543,-0.2827,0,0,0,0,0.004,-0.001,1023
2018,5,17,22,53,22.981,-0.2187,0.5506,0.7543,-0.2827,0,0,0,0,0.003,0.01,0
2018,5,17,22,53,23,-0.2187,0.5505,0.7543,-0.2827,0.5,0,0,-0.001,-0.001,0.004,0
2018,5,17,22,53,23.018,-0.2188,0.5505,0.7543,-0.2828,0,0,0,0,0,0.003,0
2018,5,17,22,53,23.041,-0.2188,0.5505,0.7543,-0.2828,0,0,0,0.001,0,0.001,0
2018,5,17,22,53,23.057,-0.2188,0.5505,0.7543,-0.2828,0,0,0,0.002,0.006,0.001,0
2018,5,17,22,53,23.076,-0.2188,0.5505,0.7543,-0.2828,0.5,0,-0.1,0.004,0.005,0,0
2018,5,17,22,53,23.099,-0.2188,0.5505,0.7542,-0.2828,0,0,0,0.003,0.002,0,0
2018,5,17,22,53,23.118,-0.2188,0.5505,0.7542,-0.2829,0.5,0,0,0,0.001,0.008,0
2018,5,17,22,53,23.141,-0.2188,0.5505,0.7542,-0.2829,0,0,0,0,0.003,0.007,0
2018,5,17,22,53,23.159,-0.2189,0.5505,0.7542,-0.2829,0,0,0,0,0,0.005,0
2018,5,17,22,53,23.182,-0.2189,0.5505,0.7542,-0.2829,0,0,0,-0.001,0,0.006,0
2018,5,17,22,53,23.218,-0.2189,0.5505,0.7542,-0.283,0,0,0,0.001,0.002,0.007,0
2018,5,17,22,53,23.241,-0.2189,0.5505,0.7542,-0.283,0,0,0,0,0.002,0.001,0
2018,5,17,22,53,23.246,-0.2188,0.5505,0.7542,-0.2829,-0.6,-0.1,0,-0.001,0.002,0.006,0
2018,5,17,22,53,23.259,-0.2188,0.5505,0.7542,-0.2829,0,0,0,0,-0.002,0,0
2018,5,17,22,53,23.277,-0.2188,0.5505,0.7542,-0.2829,0,0,0,-0.001,0.005,0.004,0
2018,5,17,22,53,23.3,-0.2188,0.5505,0.7542,-0.2828,0,0,0,-0.003,0.003,0.003,0
2018,5,17,22,53,23.318,-0.2188,0.5505,0.7542,-0.2828,0,0,0,0.001,-0.003,0.003,0
2018,5,17,22,53,23.341,-0.2189,0.5505,0.7542,-0.2828,0,0,0,-0.001,0.002,-0.003,0
2018,5,17,22,53,23.362,-0.2189,0.5505,0.7542,-0.2828,0,0,0,0,0.003,0,0
2018,5,17,22,53,23.399,-0.2189,0.5505,0.7542,-0.2829,0.5,0,0,0.001,0.001,0.005,0
2018,5,17,22,53,23.399,-0.2189,0.5505,0.7542,-0.2829,0,0,0,0,0.001,0.004,0
2018,5,17,22,53,23.423,-0.2189,0.5505,0.7542,-0.2829,0,0,0,0.001,0.004,0.006,0
2018,5,17,22,53,23.441,-0.2189,0.5505,0.7542,-0.2829,0,0,0,0,0.003,0.001,0
2018,5,17,22,53,23.464,-0.2189,0.5505,0.7542,-0.2829,0,0,0,0.002,0.004,0.003,1023
2018,5,17,22,53,23.48,-0.2189,0.5505,0.7542,-0.2829,0,0,0,0,0.004,0.005,1023
2018,5,17,22,53,23.499,-0.2189,0.5505,0.7542,-0.2829,0,0,0,-0.001,0.003,0.003,1023
2018,5,17,22,53,23.523,-0.2189,0.5505,0.7542,-0.2829,0,0,0,0,0.003,0,1023
2018,5,17,22,53,23.538,-0.2189,0.5505,0.7542,-0.2829,0,0,0,0,0.001,0.005,1023
2018,5,17,22,53,23.559,-0.2189,0.5505,0.7542,-0.2829,0,0,0,0,0,0,1023
2018,5,17,22,53,23.58,-0.219,0.5505,0.7542,-0.2829,0,0,0,-0.001,0.002,0.008,1023
2018,5,17,22,53,23.602,-0.219,0.5504,0.7542,-0.2829,0,0,0,0,0.001,0.002,1023
2018,5,17,22,53,23.621,-0.219,0.5505,0.7542,-0.2829,0,0,0,0,0.002,0.003,1023
2018,5,17,22,53,23.642,-0.219,0.5504,0.7542,-0.2829,0,0,0,0,0.006,0.002,1023
2018,5,17,22,53,23.681,-0.219,0.5504,0.7542,-0.2829,0,0,0,0,0.006,0.002,1023
2018,5,17,22,53,23.704,-0.2191,0.5504,0.7542,-0.283,0.5,-0.2,0.1,-0.002,0.002,0,1023
2018,5,17,22,53,23.708,-0.2191,0.5504,0.7542,-0.283,0,0,0,-0.001,0.002,0.01,1023
2018,5,17,22,53,23.724,-0.2191,0.5504,0.7542,-0.283,0,0,0,-0.004,-0.001,0.002,1023
2018,5,17,22,53,23.746,-0.2192,0.5504,0.7542,-0.283,0,0,0,0.001,0.001,0,1023
2018,5,17,22,53,23.765,-0.2191,0.5504,0.7542,-0.283,0,0,0,-0.001,0.003,0.003,1023
2018,5,17,22,53,23.788,-0.2191,0.5504,0.7542,-0.283,0,0,0,-0.003,0.006,0.004,1023
2018,5,17,22,53,23.805,-0.2191,0.5504,0.7542,-0.283,0,0,0,-0.001,0.003,0.005,1023
2018,5,17,22,53,23.823,-0.2192,0.5504,0.7542,-0.283,0,0,0,0,-0.001,0.005,1023
2018,5,17,22,53,23.86,-0.2192,0.5504,0.7541,-0.283,0,0,0,0,-0.001,0.006,1023
2018,5,17,22,53,23.883,-0.2192,0.5504,0.7541,-0.2831,0,0,0,0,0.002,0.005,1023
2018,5,17,22,53,23.888,-0.2192,0.5504,0.7541,-0.2831,0,0,0,-0.002,0,0.006,1023
2018,5,17,22,53,23.904,-0.2192,0.5504,0.7541,-0.2831,0,0,0,0,0,0.003,1023
2018,5,17,22,53,23.927,-0.2192,0.5504,0.7541,-0.2831,0,0,0,-0.001,0.001,0.001,0
2018,5,17,22,53,23.963,-0.2192,0.5504,0.7541,-0.2831,0,0,0,0,0,0.006,0
2018,5,17,22,53,24.016,-0.2192,0.5504,0.7541,-0.2831,0,0,0,0.002,0,0.002,0
2018,5,17,22,53,24.021,-0.2192,0.5504,0.7541,-0.2831,0,0,0,-0.001,0.002,0.007,0
2018,5,17,22,53,24.025,-0.2192,0.5504,0.7541,-0.2831,0,0,0,-0.001,0.001,0.008,0
2018,5,17,22,53,24.027,-0.2193,0.5504,0.7541,-0.2831,0,0,0,0,0.002,0.006,0
2018,5,17,22,53,24.044,-0.2193,0.5504,0.7541,-0.2832,0,0,0,0,0.005,-0.001,0
2018,5,17,22,53,24.067,-0.2193,0.5503,0.7541,-0.2832,0.5,0.2,-0.2,-0.003,0.002,0.008,0
2018,5,17,22,53,24.085,-0.2193,0.5503,0.7541,-0.2832,0,0,0,0,-0.002,0.005,0
2018,5,17,22,53,24.108,-0.2193,0.5503,0.7541,-0.2832,0,0,0,-0.003,0.006,0.001,0
2018,5,17,22,53,24.143,-0.2193,0.5503,0.7541,-0.2832,-0.5,-0.1,0,0.003,0.004,0.008,0
2018,5,17,22,53,24.166,-0.2193,0.5504,0.7541,-0.2831,0,0,0,0.002,0.004,0.003,0
2018,5,17,22,53,24.17,-0.2193,0.5504,0.7541,-0.2831,0,0,0,-0.003,0.002,0.004,0
2018,5,17,22,53,24.189,-0.2193,0.5503,0.7541,-0.2831,0,0,0,-0.001,-0.002,0.005,0
2018,5,17,22,53,24.205,-0.2193,0.5503,0.7541,-0.2831,0,0,0,0.001,0.001,0,0
2018,5,17,22,53,24.226,-0.2193,0.5503,0.7541,-0.2832,0,0,0,0,0.001,0.003,0
2018,5,17,22,53,24.267,-0.2193,0.5503,0.7541,-0.2832,0,0,0,-0.001,0.004,0.001,0
2018,5,17,22,53,24.267,-0.2193,0.5503,0.7541,-0.2831,0,0,0,0,0,0.001,0
2018,5,17,22,53,24.289,-0.2193,0.5503,0.7541,-0.2831,0,0,0,0,0.001,0.005,0
2018,5,17,22,53,24.307,-0.2194,0.5503,0.7541,-0.2832,0,0,0,0,0.004,0.007,0
2018,5,17,22,53,24.326,-0.2194,0.5503,0.7541,-0.2832,0,0,0,0.001,0.002,0,0
2018,5,17,22,53,24.348,-0.2194,0.5503,0.7541,-0.2832,0,0,0,0.001,0.003,0.004,0
2018,5,17,22,53,24.385,-0.2194,0.5503,0.7541,-0.2832,0,0,0,-0.001,0.002,0.006,0
2018,5,17,22,53,24.408,-0.2194,0.5503,0.7541,-0.2832,0,0,0,0,0.002,0.007,0
2018,5,17,22,53,24.413,-0.2194,0.5503,0.7541,-0.2832,0,0,0,-0.002,0.002,0.002,0
2018,5,17,22,53,24.428,-0.2194,0.5503,0.7541,-0.2832,0,0,0,-0.001,0.005,0.003,1023
2018,5,17,22,53,24.451,-0.2194,0.5503,0.7541,-0.2832,0,0,0,0.001,0.004,0.005,1023
2018,5,17,22,53,24.47,-0.2194,0.5503,0.7541,-0.2833,0,0,0,0,0,0.003,1023
2018,5,17,22,53,24.493,-0.2194,0.5503,0.7541,-0.2833,0,0,0,-0.001,0.001,0.009,1023
2018,5,17,22,53,24.507,-0.2195,0.5503,0.754,-0.2833,0,0,0,-0.002,-0.001,0.003,1023
2018,5,17,22,53,24.528,-0.2195,0.5503,0.754,-0.2833,0,0,0,-0.002,0.002,0.005,1023
2018,5,17,22,53,24.564,-0.2195,0.5503,0.754,-0.2833,0,0,0,0,0.002,0.002,1023
2018,5,17,22,53,24.587,-0.2195,0.5503,0.754,-0.2833,0,0,0,0,0,0.002,1023
2018,5,17,22,53,24.592,-0.2195,0.5503,0.754,-0.2833,0,0,0,0.001,0,0.002,1023
2018,5,17,22,53,24.608,-0.2195,0.5503,0.754,-0.2833,0,0,0,0.003,0.002,0.007,1023
2018,5,17,22,53,24.631,-0.2195,0.5503,0.754,-0.2833,0,0,0,-0.001,0.001,0.004,1023
2018,5,17,22,53,24.649,-0.2195,0.5503,0.754,-0.2833,0,0,0,0.002,0.005,0.006,1023
2018,5,17,22,53,24.67,-0.2195,0.5503,0.754,-0.2833,0,0,0,0,0.002,0.004,1023
2018,5,17,22,53,24.709,-0.2195,0.5503,0.754,-0.2833,0,0,0,0,0.006,0.006,1023
2018,5,17,22,53,24.732,-0.2195,0.5503,0.754,-0.2833,0,0,0,0.001,0.001,0.005,1023
2018,5,17,22,53,24.736,-0.2195,0.5503,0.754,-0.2833,0,0,0,0.001,0.003,0.005,1023
2018,5,17,22,53,24.771,-0.2195,0.5503,0.754,-0.2833,0,0,0,0,0.002,0.001,1023
2018,5,17,22,53,24.794,-0.2195,0.5503,0.754,-0.2834,0,0,0,0,0,0.002,1023
2018,5,17,22,53,24.798,-0.2195,0.5503,0.754,-0.2834,0,0,0,0,0,0.004,1023
2018,5,17,22,53,24.814,-0.2195,0.5503,0.754,-0.2834,0,0,0,0,0.001,0.003,1023
2018,5,17,22,53,24.838,-0.2195,0.5503,0.754,-0.2834,0,0,0,0,-0.001,0.004,1023
2018,5,17,22,53,24.852,-0.2195,0.5503,0.754,-0.2834,0,0,0,0,0.002,0.002,1023
2018,5,17,22,53,24.889,-0.2195,0.5503,0.754,-0.2834,0,0,0,0,0.002,0.004,1023
2018,5,17,22,53,24.912,-0.2196,0.5503,0.754,-0.2834,0,0,0,0,0.003,0,1023
2018,5,17,22,53,24.917,-0.2195,0.5503,0.754,-0.2834,0,0,0,0.001,0.006,0.002,0
2018,5,17,22,53,24.933,-0.2195,0.5503,0.754,-0.2834,0,0,0,0,0.003,0.001,0
2018,5,17,22,53,24.971,-0.2195,0.5503,0.754,-0.2834,0,0,0,0,0.002,0.006,0
2018,5,17,22,53,24.993,-0.2195,0.5503,0.754,-0.2834,0,0,0,-0.001,0.002,0.005,0
2018,5,17,22,53,24.998,-0.2196,0.5503,0.754,-0.2834,0,0,0,0.002,0.003,-0.001,0
2018,5,17,22,53,25.014,-0.2195,0.5503,0.754,-0.2835,0,0,0,0.002,0.003,0.001,0
2018,5,17,22,53,25.038,-0.2196,0.5503,0.754,-0.2835,0,0,0,0,0,0.004,0
2018,5,17,22,53,25.074,-0.2195,0.5503,0.754,-0.2835,0,0,0,0.001,0.002,0.005,0
2018,5,17,22,53,25.074,-0.2195,0.5503,0.754,-0.2835,0,0,0,0.001,0.002,0.003,0
2018,5,17,22,53,25.096,-0.2195,0.5503,0.754,-0.2835,0,0,0,-0.001,0.003,0.005,0
2018,5,17,22,53,25.112,-0.2195,0.5503,0.754,-0.2835,0,0,0,0,0,0.003,0
2018,5,17,22,53,25.135,-0.2196,0.5503,0.754,-0.2835,0,0,0,-0.002,0.004,0.001,0
2018,5,17,22,53,25.152,-0.2196,0.5502,0.754,-0.2835,0,0,0,0,0.002,0.003,0
2018,5,17,22,53,25.175,-0.2196,0.5503,0.754,-0.2835,0,0,0,0.001,0.006,0.003,0
2018,5,17,22,53,25.211,-0.2196,0.5503,0.754,-0.2835,0,0,0,0,0.001,0.003,0
2018,5,17,22,53,25.234,-0.2196,0.5503,0.754,-0.2835,0,0,0,0,0.003,0.005,0
2018,5,17,22,53,25.239,-0.2196,0.5502,0.754,-0.2835,0,0,0,0.001,0.001,0.006,0
2018,5,17,22,53,25.254,-0.2196,0.5502,0.7539,-0.2836,0,0,0,0,0,0.005,0
2018,5,17,22,53,25.277,-0.2196,0.5502,0.7539,-0.2836,0,0,0,-0.002,0.002,0.003,0
2018,5,17,22,53,25.294,-0.2196,0.5502,0.7539,-0.2835,0,0,0,-0.001,0.002,0.004,0
2018,5,17,22,53,25.314,-0.2196,0.5502,0.7539,-0.2836,0,0,0,0.001,0.002,0.006,1023
2018,5,17,22,53,25.333,-0.2196,0.5502,0.7539,-0.2836,0,0,0,-0.001,0.002,0.002,1023
2018,5,17,22,53,25.357,-0.2196,0.5502,0.7539,-0.2836,0,0,0,0,0.002,0.005,1023
2018,5,17,22,53,25.374,-0.2196,0.5502,0.7539,-0.2836,0,0,0,0,0.002,0.004,1023
2018,5,17,22,53,25.396,-0.2196,0.5502,0.7539,-0.2836,0,0,0,0,0.003,0.008,1023
2018,5,17,22,53,25.416,-0.2196,0.5502,0.7539,-0.2836,0,0,0,0.001,0.002,0.005,1023
2018,5,17,22,53,25.439,-0.2196,0.5502,0.7539,-0.2836,0,0,0,0,0.004,0.008,1023
2018,5,17,22,53,25.456,-0.2196,0.5502,0.7539,-0.2836,0,0,0,0,0.003,0.001,1023
2018,5,17,22,53,25.479,-0.2196,0.5502,0.7539,-0.2836,0,0,0,-0.001,0.003,0.007,1023
2018,5,17,22,53,25.496,-0.2196,0.5502,0.7539,-0.2836,0,0,0,0,0.001,0.002,1023
2018,5,17,22,53,25.52,-0.2196,0.5502,0.7539,-0.2836,0,0,0,0,0.004,0.003,1023
2018,5,17,22,53,25.537,-0.2196,0.5502,0.7539,-0.2836,0,0,0,-0.001,0.003,0.005,1023
2018,5,17,22,53,25.56,-0.2196,0.5502,0.7539,-0.2836,0,0,0,0.002,0.003,0.001,1023
2018,5,17,22,53,25.579,-0.2196,0.5502,0.7539,-0.2836,0,0,0,0,0.003,0.001,1023
2018,5,17,22,53,25.602,-0.2196,0.5502,0.7539,-0.2836,0,0,0,0,0.004,0.005,1023
2018,5,17,22,53,25.618,-0.2196,0.5502,0.7539,-0.2836,0,0,0,0,0.003,0.001,1023
2018,5,17,22,53,25.654,-0.2196,0.5502,0.7539,-0.2837,0.6,0,-0.1,-0.001,0.003,0.002,1023
2018,5,17,22,53,25.677,-0.2197,0.5502,0.7539,-0.2837,0,0,0,0.001,0.002,0.004,1023
2018,5,17,22,53,25.682,-0.2197,0.5502,0.7539,-0.2837,0,0,0,0,0,0.008,1023
2018,5,17,22,53,25.697,-0.2197,0.5502,0.7539,-0.2837,0,0,0,0,0.004,0.008,1023
2018,5,17,22,53,25.721,-0.2197,0.5502,0.7539,-0.2837,0,0,0,0,0,0,1023
2018,5,17,22,53,25.738,-0.2197,0.5502,0.7539,-0.2838,0,0,0,0.001,0.001,0.005,1023
2018,5,17,22,53,25.761,-0.2197,0.5502,0.7539,-0.2838,0,0,0,0,0.003,0.002,1023
2018,5,17,22,53,25.798,-0.2197,0.5502,0.7539,-0.2838,0,0,0,0,0,0.003,1023
2018,5,17,22,53,25.821,-0.2197,0.5502,0.7539,-0.2838,0,0,0,0,0.001,0.004,1023
2018,5,17,22,53,25.823,-0.2197,0.5502,0.7539,-0.2838,0,0,0,0,-0.001,0.007,0
2018,5,17,22,53,25.843,-0.2197,0.5502,0.7538,-0.2838,0,0,0,0,-0.001,0.005,0
2018,5,17,22,53,25.879,-0.2197,0.5502,0.7538,-0.2838,0,0,0,0,0.002,0.002,0
2018,5,17,22,53,25.902,-0.2197,0.5502,0.7538,-0.2838,0,0,0,-0.001,0.003,0.006,0
2018,5,17,22,53,25.907,-0.2197,0.5502,0.7538,-0.2838,0,0,0,0,0.002,0.003,0
2018,5,17,22,53,25.922,-0.2197,0.5502,0.7538,-0.2838,0,0,0,0,0.004,0,0
2018,5,17,22,53,25.939,-0.2197,0.5502,0.7538,-0.2838,0,0,0,-0.001,0.002,0.004,0
2018,5,17,22,53,25.962,-0.2197,0.5502,0.7538,-0.2838,0,0,0,0,0,0.001,0
2018,5,17,22,53,25.981,-0.2197,0.5502,0.7538,-0.2838,0,0,0,0,0.003,0.007,0
2018,5,17,22,53,26.004,-0.2197,0.5502,0.7538,-0.2838,0,0,0,0,0.003,0.006,0
2018,5,17,22,53,26.024,-0.2197,0.5502,0.7539,-0.2838,-0.5,0,0,0,0.002,0.007,0
2018,5,17,22,53,26.041,-0.2197,0.5502,0.7539,-0.2837,0,0,0,0,0.003,0.002,0
2018,5,17,22,53,26.064,-0.2197,0.5502,0.7539,-0.2837,0,0,0,0.001,0.003,0.004,0
2018,5,17,22,53,26.099,-0.2197,0.5502,0.7539,-0.2837,0,0,0,-0.003,0.001,0.002,0
2018,5,17,22,53,26.099,-0.2197,0.5502,0.7539,-0.2837,0,0,0,-0.001,0.003,0.001,0
2018,5,17,22,53,26.122,-0.2197,0.5502,0.7539,-0.2837,0,0,0,-0.002,0.002,0,0
2018,5,17,22,53,26.141,-0.2197,0.5502,0.7539,-0.2837,0,0,0,0.001,0.001,0,0
2018,5,17,22,53,26.163,-0.2197,0.5502,0.7539,-0.2837,0,0,0,0,0.003,0.007,0
2018,5,17,22,53,26.199,-0.2197,0.5502,0.7539,-0.2837,0,0,0,0,0.001,0.003,0
2018,5,17,22,53,26.222,-0.2198,0.5502,0.7539,-0.2837,0,0,0,0,0.003,0.004,0
2018,5,17,22,53,26.227,-0.2198,0.5502,0.7539,-0.2837,0,0,0,0,0.003,0.004,0
2018,5,17,22,53,26.242,-0.2198,0.5502,0.7539,-0.2837,0,0,0,0.002,0.004,0.004,0
2018,5,17,22,53,26.264,-0.2198,0.5502,0.7539,-0.2837,0,0,0,0.001,0,0.005,1023
2018,5,17,22,53,26.283,-0.2198,0.5502,0.7539,-0.2837,0,0,0,0.002,0.003,0.005,1023
2018,5,17,22,53,26.306,-0.2198,0.5502,0.7539,-0.2837,0,0,0,0,0,0.006,1023
2018,5,17,22,53,26.324,-0.2198,0.5502,0.7539,-0.2838,0,0,0,-0.001,0.002,0.004,1023
2018,5,17,22,53,26.347,-0.2198,0.5502,0.7539,-0.2838,0,0,0,0,0.001,0,1023
2018,5,17,22,53,26.364,-0.2198,0.5502,0.7539,-0.2838,0,0,0,0,0.004,0.001,1023
2018,5,17,22,53,26.399,-0.2198,0.5502,0.7539,-0.2837,0,0,0,-0.003,0.001,0.001,1023
2018,5,17,22,53,26.422,-0.2198,0.5502,0.7539,-0.2838,0,0,0,0,0,0.005,1023
2018,5,17,22,53,26.426,-0.2198,0.5502,0.7539,-0.2837,0,0,0,0,0.004,0,1023
2018,5,17,22,53,26.462,-0.2198,0.5502,0.7539,-0.2837,0,0,0,-0.002,0.002,0.006,1023
2018,5,17,22,53,26.462,-0.2199,0.5501,0.7539,-0.2837,0,0,0,-0.001,0.001,0.008,1023
2018,5,17,22,53,26.485,-0.2199,0.5501,0.7538,-0.2838,0,0,0,0.002,0.002,-0.002,1023
2018,5,17,22,53,26.523,-0.2199,0.5502,0.7538,-0.2838,0,0,0,0,0.002,0.006,1023
2018,5,17,22,53,26.546,-0.2199,0.5502,0.7538,-0.2838,0,0,0,0,0.001,0.005,1023
2018,5,17,22,53,26.55,-0.2199,0.5502,0.7538,-0.2838,0,0,0,-0.001,0.002,0,1023
2018,5,17,22,53,26.567,-0.2198,0.5502,0.7538,-0.2838,0,0,0,0.001,0.002,0,1023
2018,5,17,22,53,26.589,-0.2198,0.5502,0.7538,-0.2838,0,0,0,-0.001,0,0,1023
2018,5,17,22,53,26.606,-0.2199,0.5502,0.7538,-0.2838,0,0,0,0,0.001,0.004,1023
2018,5,17,22,53,26.629,-0.2199,0.5501,0.7538,-0.2838,0,0,0,0,0.001,0.008,1023
2018,5,17,22,53,26.647,-0.2199,0.5501,0.7538,-0.2838,0,0,0,0.002,0.006,0.002,1023
2018,5,17,22,53,26.671,-0.2199,0.5501,0.7538,-0.2838,0,0,0,0,0.001,0.004,1023
2018,5,17,22,53,26.687,-0.2199,0.5501,0.7538,-0.2838,0,0,0,0.003,0,0,1023
2018,5,17,22,53,26.724,-0.2199,0.5501,0.7538,-0.2838,0,0,0,-0.001,0.003,0.001,1023
2018,5,17,22,53,26.747,-0.2199,0.5501,0.7538,-0.2838,0,0,0,0,0.003,0.005,1023
2018,5,17,22,53,26.752,-0.2199,0.5501,0.7538,-0.2838,0,0,0,0.001,0,0.003,1023
2018,5,17,22,53,26.767,-0.2199,0.5501,0.7538,-0.2839,0,0,0,-0.001,0.004,0.001,0
2018,5,17,22,53,26.789,-0.2199,0.5501,0.7538,-0.2839,0,0,0,-0.002,0,0.004,0
2018,5,17,22,53,26.807,-0.2199,0.5501,0.7538,-0.2839,0,0,0,0,0.004,0,0
2018,5,17,22,53,26.83,-0.2199,0.5501,0.7538,-0.2839,0,0,0,0,0.002,0.003,0
2018,5,17,22,53,26.866,-0.2199,0.5501,0.7538,-0.2839,0,0,0,0,0.001,0.002,0
2018,5,17,22,53,26.889,-0.2199,0.5501,0.7538,-0.2839,0,0,0,-0.002,0,0.001,0
2018,5,17,22,53,26.894,-0.22,0.5501,0.7538,-0.2839,0,0,0,0.002,0,0.007,0
2018,5,17,22,53,26.91,-0.2199,0.5501,0.7538,-0.2839,-0.5,0,0,0,0.003,0.007,0
2018,5,17,22,53,26.932,-0.2199,0.5501,0.7539,-0.2837,-1.1,-0.6,0.7,-0.015,0.001,0.023,0
2018,5,17,22,53,26.951,-0.2196,0.5502,0.7541,-0.2832,-4.1,0.2,-0.3,-0.011,-0.013,-0.014,0
2018,5,17,22,53,26.974,-0.2193,0.5504,0.7541,-0.2831,2.2,0.4,-0.5,0.009,-0.004,-0.01,0
2018,5,17,22,53,26.989,-0.2196,0.5502,0.754,-0.2834,0.8,-0.5,0.9,-0.003,0.009,0.028,0
2018,5,17,22,53,27.008,-0.2196,0.5502,0.7541,-0.2832,-1.7,0.1,0,-0.007,-0.002,-0.006,0
2018,5,17,22,53,27.031,-0.2195,0.5502,0.7541,-0.2831,0,0,0,-0.005,0.009,0.01,0
2018,5,17,22,53,27.067,-0.2195,0.5503,0.7541,-0.283,-1.3,0.1,-0.7,-0.004,0.001,-0.003,0
2018,5,17,22,53,27.09,-0.2195,0.5504,0.754,-0.2831,2.2,0.4,-0.7,-0.005,0.001,0.007,1023
2018,5,17,22,53,27.095,-0.2196,0.5504,0.7539,-0.2835,0,1.4,-2.1,-0.008,0.001,0.01,1023
2018,5,17,22,53,27.113,-0.2193,0.5507,0.7537,-0.2837,2.1,2.2,-3.7,-0.011,-0.005,-0.013,1023
2018,5,17,22,53,27.131,-0.2192,0.5512,0.7531,-0.2843,2.8,2,-6.6,-0.004,0.015,0.012,1023
2018,5,17,22,53,27.154,-0.2188,0.5516,0.7526,-0.2852,0.8,4.8,-4.6,-0.012,-0.012,0.024,1023
2018,5,17,22,53,27.188,-0.2179,0.5518,0.7525,-0.2856,-7.7,6,-4.1,-0.039,-0.013,0.03,1023
2018,5,17,22,53,27.212,-0.215,0.5525,0.7539,-0.2827,-31,5.3,-7.5,0.062,-0.062,0.017,1023
2018,5,17,22,53,27.216,-0.2116,0.5537,0.7551,-0.28,-35,8.3,-2.4,-0.058,-0.002,0.054,1023
2018,5,17,22,53,27.234,-0.2072,0.5546,0.7574,-0.2753,-54.9,7.8,2.2,-0.008,-0.037,0.057,1023
2018,5,17,22,53,27.257,-0.2008,0.5559,0.7606,-0.2684,-62.7,10.2,-0.1,-0.07,-0.051,0,1023
2018,5,17,22,53,27.275,-0.1936,0.5578,0.7638,-0.2606,-73.4,10,-3.8,-0.059,-0.016,0.006,1023
2018,5,17,22,53,27.292,-0.1844,0.5605,0.7674,-0.2506,-86.8,10.2,-4.4,0.013,0.018,-0.028,1023
2018,5,17,22,53,27.315,-0.1728,0.5635,0.7716,-0.2387,-99.6,13.5,0.9,-0.08,0.032,-0.002,1023
2018,5,17,22,53,27.351,-0.1612,0.5664,0.7756,-0.2268,-109.1,15.1,-10.1,-0.041,-0.079,0.073,0
2018,5,17,22,53,27.374,-0.1488,0.5704,0.7784,-0.2154,-92.1,13.3,-14,0.073,-0.07,0.039,0
2018,5,17,22,53,27.379,-0.1401,0.5733,0.7798,-0.2083,-51.4,9.3,-12.2,0.074,-0.148,0.003,0
2018,5,17,22,53,27.394,-0.1347,0.576,0.7797,-0.2048,-20.1,9.3,-18.5,0.115,-0.264,-0.046,0
2018,5,17,22,53,27.417,-0.133,0.5777,0.778,-0.2078,17.8,18.7,-14.9,-0.042,-0.118,0.042,0
2018,5,17,22,53,27.435,-0.1331,0.5776,0.7768,-0.2126,22.4,13.7,-1.9,-0.062,-0.054,0.102,0
2018,5,17,22,53,27.457,-0.1327,0.5773,0.7758,-0.2172,8.3,15.8,-9.1,0.086,0.005,-0.085,0
2018,5,17,22,53,27.494,-0.1296,0.5784,0.775,-0.2187,-12.7,16.2,-14.7,0.151,0.068,-0.214,0
2018,5,17,22,53,27.494,-0.1239,0.581,0.7741,-0.2184,-22.9,23.1,-27.7,0.053,-0.06,-0.145,0
2018,5,17,22,53,27.517,-0.1163,0.5853,0.7718,-0.2192,-25.6,34.4,-49.6,-0.049,-0.165,-0.089,0
2018,5,17,22,53,27.535,-0.1062,0.593,0.767,-0.2204,-41.1,40.5,-77.4,0.017,-0.137,-0.25,0
2018,5,17,22,53,27.554,-0.0895,0.604,0.7609,-0.219,-73.7,66.1,-98.1,0.031,-0.127,-0.603,0
2018,5,17,22,53,27.577,-0.0662,0.6148,0.7544,-0.2197,-63,108.9,-93,-0.248,-0.404,-0.888,0
2018,5,17,22,53,27.613,-0.0416,0.6208,0.7481,-0.2302,-13.6,155.8,-73.5,-0.607,-0.585,-0.854,0
2018,5,17,22,53,27.637,-0.0147,0.6226,0.7416,-0.2492,-9.5,196.7,-74.4,-1.08,-0.484,-0.533,0
2018,5,17,22,53,27.641,0.0209,0.6238,0.7334,-0.2693,-54.4,242.2,-101.7,-0.902,-0.255,-0.57,0
2018,5,17,22,53,27.658,0.07,0.6247,0.7231,-0.2859,-121.1,289.2,-122.1,-0.4,-0.156,-0.74,0
2018,5,17,22,53,27.676,0.1309,0.6219,0.7107,-0.3014,-133.3,338.8,-130.2,-0.386,-0.627,-0.831,0
2018,5,17,22,53,27.699,0.1957,0.6164,0.6906,-0.3235,-91.7,398.3,-164.4,-0.61,-0.853,-1.003,0
2018,5,17,22,53,27.716,0.2675,0.6103,0.6577,-0.3511,-91.6,455.3,-224.9,-0.955,-0.64,-0.6,0
2018,5,17,22,53,27.752,0.3428,0.604,0.6104,-0.3806,-18.8,492.4,-262.7,-1.329,-0.968,-0.873,0
2018,5,17,22,53,27.775,0.4084,0.5997,0.5441,-0.4211,96.4,521.2,-294.9,-1.638,-1.052,-0.95,0
2018,5,17,22,53,27.78,0.4646,0.5934,0.4668,-0.4625,108.8,510.8,-266,-1.215,-0.647,-0.278,0
2018,5,17,22,53,27.798,0.5114,0.578,0.3902,-0.5018,132.5,471.4,-210.3,-1.104,0.306,1.438,0
2018,5,17,22,53,27.816,0.5361,0.5689,0.3166,-0.5371,213.5,367.8,-165.6,-0.525,0.998,0.97,0
2018,5,17,22,53,27.839,0.5364,0.5671,0.2545,-0.5707,287.5,260.2,-18.6,-0.378,1.075,1.492,0
2018,5,17,22,53,27.856,0.5082,0.572,0.2044,-0.6104,364.1,192.2,88.5,-1.511,-0.376,1.812,0
2018,5,17,22,53,27.879,0.4721,0.58,0.1624,-0.6436,259.4,127.2,69.7,-2.213,-0.232,1.249,0
2018,5,17,22,53,27.898,0.4526,0.5816,0.1468,-0.6597,54.4,19.2,45.2,-3.018,-0.108,1.155,0
2018,5,17,22,53,27.921,0.4523,0.5851,0.1491,-0.6562,-48.6,-49.9,-56.5,-2.004,-0.693,0.39,1023
2018,5,17,22,53,27.937,0.4773,0.5831,0.1533,-0.6392,-204.4,-17.5,-215.5,-0.866,0.547,1.088,1023
2018,5,17,22,53,27.955,0.5341,0.5794,0.1489,-0.5972,-129.8,-105.5,-375.7,0.744,1.652,0.761,1023
2018,5,17,22,53,27.979,0.5554,0.6024,0.1345,-0.557,103.8,-163.5,-154.7,-0.676,1.698,0.247,1023
2018,5,17,22,53,27.995,0.5455,0.6285,0.133,-0.5381,32,-122.4,0,-0.359,2.394,-0.151,1023
2018,5,17,22,53,28.018,0.5527,0.6271,0.1509,-0.5276,-179.7,-60.2,18.4,-0.099,1.08,-0.321,1023
2018,5,17,22,53,28.036,0.571,0.612,0.1783,-0.5171,-200.5,-73.8,23,-0.3,-0.641,-0.377,1023
2018,5,17,22,53,28.059,0.5851,0.6035,0.2049,-0.5012,-158.8,-121.5,-8.8,-0.573,-1.677,-0.09,1023
2018,5,17,22,53,28.077,0.6022,0.597,0.2319,-0.4763,-209.2,-151.9,-57.2,-0.487,-1.162,0.176,1023
2018,5,17,22,53,28.102,0.6282,0.5893,0.2568,-0.4382,-257.4,-168.9,-153.3,-0.024,-0.755,0.023,1023
2018,5,17,22,53,28.118,0.6614,0.5827,0.2757,-0.3831,-264.6,-223.4,-269.4,0.667,0.177,-0.428,1023
2018,5,17,22,53,28.139,0.6967,0.5822,0.2853,-0.3067,-270,-236.5,-376.8,0.24,1.02,-0.535,1023
2018,5,17,22,53,28.177,0.7334,0.576,0.2843,-0.222,-289.4,-178.6,-396.8,0.25,0.449,-0.407,1023
2018,5,17,22,53,28.2,0.7658,0.5628,0.2746,-0.1458,-263,-108.8,-350.2,0.799,-0.069,-0.842,1023
2018,5,17,22,53,28.204,0.7925,0.5476,0.2555,-0.0815,-219.1,-41.4,-342.4,1.184,0.063,-0.855,0
2018,5,17,22,53,28.238,0.8154,0.5319,0.2273,-0.0199,-229.1,-14.9,-369,0.519,0.399,-0.165,0
2018,5,17,22,53,28.238,0.8361,0.5112,0.1936,0.0442,-244.2,-3,-383.8,0.034,0.355,-0.203,0
2018,5,17,22,53,28.26,0.8522,0.4874,0.1562,0.1077,-244.1,14.9,-378.8,-0.022,0.221,-0.337,0
2018,5,17,22,53,28.278,0.8656,0.458,0.1145,0.1664,-280.3,49.7,-362,-0.064,-0.321,-0.392,0
2018,5,17,22,53,28.301,0.8785,0.4181,0.0658,0.2212,-345.4,83.1,-356.6,-0.42,-0.736,-0.256,0
2018,5,17,22,53,28.32,0.8891,0.3695,0.0124,0.2694,-364.1,103.9,-318.4,-0.603,-0.584,-0.314,0
2018,5,17,22,53,28.342,0.8946,0.3182,-0.0419,0.3106,-358.6,114.8,-313,-0.612,-0.702,-0.454,0
2018,5,17,22,53,28.363,0.893,0.2656,-0.0966,0.3502,-346.1,111.4,-321.9,-0.407,-0.914,-0.287,0
2018,5,17,22,53,28.38,0.8842,0.215,-0.1473,0.3873,-304.7,100.6,-299.2,-0.386,-0.906,-0.069,0
2018,5,17,22,53,28.403,0.8708,0.1691,-0.1903,0.4203,-266.4,72.4,-277.4,-0.365,-0.911,0.019,0
2018,5,17,22,53,28.439,0.8555,0.126,-0.2253,0.4487,-245.9,51.4,-245.5,-0.228,-0.767,0.126,0
2018,5,17,22,53,28.439,0.8396,0.0826,-0.2567,0.4714,-263,40.8,-211.9,-0.238,-0.359,0.052,0
2018,5,17,22,53,28.462,0.8252,0.0353,-0.287,0.485,-302.3,19.2,-170.3,-0.647,-0.505,-0.035,0
2018,5,17,22,53,28.48,0.8126,-0.0174,-0.315,0.4899,-322.2,-4.6,-131.1,-0.656,-0.793,0.014,0
2018,5,17,22,53,28.498,0.8004,-0.0707,-0.3414,0.4874,-337.4,-3.6,-105.1,-0.466,-0.606,0.022,0
2018,5,17,22,53,28.522,0.7862,-0.1261,-0.3703,0.4783,-379.2,7.3,-78,-0.272,-0.287,-0.082,0
2018,5,17,22,53,28.557,0.7727,-0.1687,-0.3941,0.4679,-81.6,-32.5,-37.8,-1.076,-1.807,0.543,0
2018,5,17,22,53,28.581,0.7802,-0.1526,-0.3762,0.4758,215.7,-32.9,49.3,-0.866,-0.689,1.306,0
2018,5,17,22,53,28.585,0.7904,-0.132,-0.3591,0.4783,51.6,-42.9,3.6,-0.823,-0.045,1.317,0
2018,5,17,22,53,28.604,0.7866,-0.1459,-0.3592,0.4805,-118.1,-20.7,-74.2,-0.199,0.287,0.376,0
2018,5,17,22,53,28.621,0.7786,-0.1675,-0.3676,0.48,-126.1,13.8,-36,0.21,0.334,-0.256,0
2018,5,17,22,53,28.644,0.7719,-0.181,-0.38,0.4762,-96.7,39.2,-0.7,0.253,0.191,-0.288,0
2018,5,17,22,53,28.662,0.7673,-0.1887,-0.3934,0.4697,-82.8,40.8,24.7,0.112,0.011,-0.102,0
2018,5,17,22,53,28.699,0.7642,-0.1961,-0.4053,0.4615,-84.2,19.7,24.5,-0.03,-0.225,0.011,0
2018,5,17,22,53,28.72,0.7613,-0.2072,-0.4146,0.4532,-101.9,-0.7,6.5,-0.01,-0.225,-0.035,0
2018,5,17,22,53,28.725,0.7579,-0.2222,-0.4219,0.4451,-106.1,-15.5,-6,0.052,-0.129,-0.19,0
2018,5,17,22,53,28.741,0.7551,-0.2366,-0.4258,0.4386,-77.7,-23.6,-10.7,0.069,-0.064,-0.264,1023
2018,5,17,22,53,28.763,0.7538,-0.2465,-0.4262,0.4349,-34.1,-25.1,-9.8,0.035,-0.041,-0.236,1023
2018,5,17,22,53,28.782,0.7545,-0.2505,-0.4236,0.434,9.7,-25.2,-6.3,-0.055,-0.099,-0.12,1023
2018,5,17,22,53,28.805,0.7569,-0.2492,-0.4183,0.4357,46.9,-24.6,-5.3,-0.073,-0.086,-0.027,1023
2018,5,17,22,53,28.823,0.7603,-0.2436,-0.4115,0.4393,60.5,-15.3,-4.4,-0.033,0.006,0.019,1023
2018,5,17,22,53,28.846,0.7633,-0.2366,-0.4056,0.4435,47.4,-1.3,-3.3,0.004,0.085,0.072,1023
2018,5,17,22,53,28.882,0.7645,-0.2311,-0.4031,0.4466,25.6,11.6,-0.7,0.03,0.107,0.067,1023
2018,5,17,22,53,28.905,0.765,-0.2264,-0.4026,0.4486,20.7,13.5,5.5,0.041,0.077,0.045,1023
2018,5,17,22,53,28.91,0.766,-0.2218,-0.4021,0.4496,20.6,10.5,11.7,0.07,0.082,0.025,1023
2018,5,17,22,53,28.925,0.7671,-0.2182,-0.4021,0.4495,3.1,10,10.5,0.043,0.032,0.028,1023
2018,5,17,22,53,28.948,0.7666,-0.2181,-0.404,0.4487,-13.9,9.2,3.1,0.016,-0.041,-0.007,1023
2018,5,17,22,53,28.964,0.7654,-0.2198,-0.4063,0.4479,-12,5.6,-1,0.005,-0.017,-0.044,1023
2018,5,17,22,53,29.002,0.7643,-0.2209,-0.408,0.4477,-5.8,5.5,-2.8,-0.006,0.005,-0.057,1023
2018,5,17,22,53,29.018,0.7631,-0.2214,-0.4095,0.448,-5.6,7.8,-5.1,-0.021,0.006,-0.028,1023
2018,5,17,22,53,29.041,0.7617,-0.222,-0.4113,0.4486,-7.4,8.8,-6.9,-0.038,-0.007,-0.008,1023
2018,5,17,22,53,29.046,0.7604,-0.2225,-0.4127,0.4492,-3.9,5.7,-6.6,-0.039,0.004,0,1023
2018,5,17,22,53,29.065,0.7597,-0.2225,-0.4133,0.4498,0.8,3,-3.9,-0.014,0.014,-0.01,1023
2018,5,17,22,53,29.086,0.7593,-0.2222,-0.4135,0.4504,3.8,2.4,-1.8,0.001,0,-0.022,1023
2018,5,17,22,53,29.12,0.7591,-0.2216,-0.4136,0.451,3.8,3.4,-0.8,0.013,-0.004,-0.026,1023
2018,5,17,22,53,29.141,0.7586,-0.2216,-0.4141,0.4515,-4.2,5.3,-2.6,0.017,0,-0.009,0
2018,5,17,22,53,29.144,0.7578,-0.2223,-0.415,0.4516,-5.6,2.7,-2.5,-0.003,-0.025,0.003,0
2018,5,17,22,53,29.182,0.7573,-0.2231,-0.4155,0.4516,-3.3,0.1,-2.2,0.007,0.002,-0.024,0
2018,5,17,22,53,29.205,0.7569,-0.2237,-0.4157,0.4516,-1.1,-0.3,-0.8,0.006,-0.005,-0.033,0
2018,5,17,22,53,29.21,0.7568,-0.224,-0.4159,0.4516,1.1,-0.5,0.3,0.002,-0.013,-0.033,0
2018,5,17,22,53,29.225,0.7568,-0.2239,-0.4158,0.4516,3.8,-0.5,0.8,0.003,-0.011,-0.027,0
2018,5,17,22,53,29.247,0.7571,-0.2233,-0.4155,0.4518,6.4,-0.5,1.9,0.009,-0.009,-0.018,0
2018,5,17,22,53,29.267,0.7575,-0.2223,-0.415,0.4521,8.4,0.2,2.4,0.014,-0.001,-0.021,0
2018,5,17,22,53,29.286,0.7578,-0.2212,-0.4147,0.4524,5.8,2,1.7,0.01,0.008,-0.019,0
2018,5,17,22,53,29.308,0.7579,-0.2202,-0.4147,0.4526,4.9,2.5,2.2,0.006,0.007,-0.007,0
2018,5,17,22,53,29.345,0.7581,-0.2192,-0.4146,0.4528,5.3,1.6,2.1,0.008,0.01,-0.01,0
2018,5,17,22,53,29.368,0.7584,-0.2183,-0.4146,0.4529,4.7,1.5,2.3,0.005,0.011,-0.014,0
2018,5,17,22,53,29.372,0.7585,-0.2175,-0.4146,0.453,3.2,2.1,1.3,-0.001,0,-0.006,0
2018,5,17,22,53,29.407,0.7586,-0.2169,-0.4147,0.4532,3.3,1.4,0.6,-0.005,0.002,-0.011,0
2018,5,17,22,53,29.43,0.7587,-0.2163,-0.4147,0.4533,3.6,0.6,0.7,-0.003,0.008,-0.009,0
2018,5,17,22,53,29.434,0.7588,-0.2157,-0.4146,0.4535,3.2,0.6,0.3,0.004,0.008,-0.015,0
2018,5,17,22,53,29.448,0.7587,-0.2154,-0.4146,0.4537,0.7,1.2,-0.7,0.003,0.001,-0.008,0
2018,5,17,22,53,29.47,0.7586,-0.2155,-0.4146,0.4539,-0.3,0.6,-1.3,0.001,0.008,0.002,0
2018,5,17,22,53,29.487,0.7585,-0.2156,-0.4146,0.4541,-0.6,-0.7,-1.1,0.006,0.014,-0.004,0
2018,5,17,22,53,29.51,0.7584,-0.2159,-0.4145,0.4541,-1.1,-0.8,-0.3,0.011,0.005,-0.016,0
2018,5,17,22,53,29.529,0.7583,-0.2163,-0.4146,0.454,-1.1,-0.2,-0.1,0.009,-0.001,-0.022,0
2018,5,17,22,53,29.552,0.7582,-0.2165,-0.4147,0.454,-1,0.2,-0.3,0.01,0.006,-0.016,0
2018,5,17,22,53,29.57,0.758,-0.2167,-0.4149,0.454,-0.4,1.2,-0.2,0.009,0,-0.02,1023
2018,5,17,22,53,29.607,0.7578,-0.2167,-0.4152,0.4541,0.7,1.7,-0.1,0.007,-0.001,-0.012,1023
2018,5,17,22,53,29.629,0.7577,-0.2165,-0.4154,0.4543,0.3,1.9,-0.2,0.005,0.007,-0.013,1023
2018,5,17,22,53,29.633,0.7575,-0.2163,-0.4156,0.4544,0.5,1.6,-0.2,0.002,0.001,-0.01,1023
2018,5,17,22,53,29.668,0.7574,-0.2163,-0.4158,0.4545,0.9,0.6,-0.5,0,0,-0.01,1023
2018,5,17,22,53,29.691,0.7573,-0.2162,-0.4158,0.4546,0,0.3,-0.9,0.006,0.008,-0.009,1023
2018,5,17,22,53,29.695,0.7572,-0.2163,-0.4159,0.4547,0,0,0,0.004,0.007,-0.013,1023
2018,5,17,22,53,29.709,0.7572,-0.2163,-0.4159,0.4547,0.7,-0.3,0.2,0.002,0,-0.012,1023
2018,5,17,22,53,29.744,0.7572,-0.2163,-0.4158,0.4547,0.9,-0.5,-0.1,0.006,0.003,-0.013,1023
2018,5,17,22,53,29.767,0.7572,-0.2163,-0.4158,0.4548,0.7,0,-0.2,0.01,0.009,-0.019,1023
2018,5,17,22,53,29.771,0.7571,-0.2163,-0.4159,0.4548,-0.6,0.8,-0.5,0.005,0.007,-0.009,1023
2018,5,17,22,53,29.79,0.757,-0.2164,-0.416,0.4549,-0.5,0.4,0,0.001,0.005,-0.001,1023
2018,5,17,22,53,29.813,0.757,-0.2164,-0.416,0.4548,0,0,0,0.001,0.004,-0.011,1023
2018,5,17,22,53,29.832,0.7569,-0.2164,-0.4161,0.4548,0,0,0,0.007,0.007,-0.015,1023
2018,5,17,22,53,29.854,0.7569,-0.2165,-0.4162,0.4548,-0.1,0.6,0,0.001,0.001,-0.01,1023
2018,5,17,22,53,29.891,0.7568,-0.2165,-0.4163,0.4549,-0.1,0.7,-0.1,0.005,0.006,-0.007,1023
2018,5,17,22,53,29.914,0.7568,-0.2165,-0.4163,0.4549,0.5,0.2,0.2,0.007,0.007,-0.007,1023
2018,5,17,22,53,29.919,0.7567,-0.2165,-0.4164,0.4549,0.8,0.2,0.3,0.009,0.002,-0.015,1023
2018,5,17,22,53,29.935,0.7567,-0.2164,-0.4164,0.4549,0,0,0,0.007,0.004,-0.01,1023
2018,5,17,22,53,29.972,0.7567,-0.2165,-0.4164,0.4549,0,0,0,0.005,0,-0.006,1023
2018,5,17,22,53,29.995,0.7567,-0.2165,-0.4165,0.4549,-0.2,0.5,0,0.005,0.006,-0.01,1023
2018,5,17,22,53,30,0.7565,-0.2166,-0.4166,0.4549,-0.9,0.3,-0.7,0,0,-0.012,0
2018,5,17,22,53,30.014,0.7564,-0.2168,-0.4167,0.455,-0.5,0,-0.6,0.004,0.008,-0.009,0
2018,5,17,22,53,30.031,0.7564,-0.2168,-0.4168,0.455,0,0,0,0.005,0.01,-0.013,0
2018,5,17,22,53,30.054,0.7563,-0.2169,-0.4168,0.455,0,0,0,0.005,0.002,-0.009,0
2018,5,17,22,53,30.072,0.7563,-0.2169,-0.4168,0.455,-0.2,0,-0.5,0.004,0.006,-0.006,0
2018,5,17,22,53,30.096,0.7563,-0.217,-0.4168,0.455,0,0,0,0.008,0.011,-0.007,0
2018,5,17,22,53,30.132,0.7563,-0.217,-0.4169,0.455,0.7,0.3,0.2,0.005,0.008,-0.019,0
2018,5,17,22,53,30.153,0.7563,-0.2168,-0.4169,0.455,1.5,0.3,0.5,0.002,0,-0.018,0
2018,5,17,22,53,30.158,0.7564,-0.2165,-0.4168,0.4551,2.9,0,0.5,0.003,-0.001,-0.013,0
2018,5,17,22,53,30.178,0.7566,-0.216,-0.4165,0.4553,5.5,-0.3,1,0.007,0,-0.019,0
2018,5,17,22,53,30.198,0.7568,-0.2152,-0.4161,0.4556,6.1,0.2,0.8,0.011,0.002,-0.014,0
2018,5,17,22,53,30.214,0.757,-0.2145,-0.4158,0.4559,4.3,1,0.2,0.004,0.002,-0.003,0
2018,5,17,22,53,30.233,0.7571,-0.2139,-0.4157,0.4562,2.6,0.4,0.1,0,0.011,-0.001,0
2018,5,17,22,53,30.256,0.7572,-0.2135,-0.4155,0.4563,0.9,0,0.4,0.002,0.013,-0.001,0
2018,5,17,22,53,30.274,0.7572,-0.2135,-0.4155,0.4563,-0.6,0.2,0,0.001,0.003,-0.008,0
2018,5,17,22,53,30.297,0.7571,-0.2137,-0.4157,0.4562,-1.3,0,-0.2,0.003,0.007,-0.011,0
2018,5,17,22,53,30.313,0.757,-0.2139,-0.4158,0.4562,-0.7,0,0,0.005,0.008,-0.012,1023
2018,5,17,22,53,30.336,0.757,-0.2139,-0.4158,0.4561,0,0,0,0.003,0.002,-0.005,1023
2018,5,17,22,53,30.355,0.757,-0.214,-0.4158,0.4561,0.6,-0.4,0.1,0.007,0.006,-0.014,1023
2018,5,17,22,53,30.378,0.7571,-0.2139,-0.4156,0.4562,1.8,-0.5,0.2,0.005,0,-0.015,1023
2018,5,17,22,53,30.397,0.7572,-0.2137,-0.4155,0.4563,3,-0.2,0.2,0.006,0.003,-0.015,1023
2018,5,17,22,53,30.42,0.7573,-0.2132,-0.4152,0.4565,4,-0.1,0.6,0.009,0.006,-0.01,1023
2018,5,17,22,53,30.438,0.7575,-0.2127,-0.415,0.4567,3.2,0.6,0.5,0.007,0.006,-0.01,1023
2018,5,17,22,53,30.475,0.7576,-0.2123,-0.4149,0.4569,1.9,0.6,0.3,0.001,0.005,-0.002,1023
2018,5,17,22,53,30.497,0.7576,-0.212,-0.4148,0.457,1,0.1,0.2,0,0.014,-0.006,1023
2018,5,17,22,53,30.502,0.7577,-0.2118,-0.4147,0.457,0.9,-0.2,0.2,0.005,0.007,-0.01,1023
2018,5,17,22,53,30.517,0.7577,-0.2118,-0.4147,0.457,0,0,0,0.004,0.005,-0.009,1023
2018,5,17,22,53,30.554,0.7577,-0.2118,-0.4147,0.457,0,0,0,0.006,0.006,-0.009,1023
2018,5,17,22,53,30.576,0.7577,-0.2119,-0.4147,0.457,0,0,0,0.005,0.005,-0.012,1023
2018,5,17,22,53,30.579,0.7577,-0.2119,-0.4147,0.457,0,0,0,0.01,0.005,-0.009,1023
2018,5,17,22,53,30.598,0.7577,-0.2119,-0.4147,0.4571,0,0,0,0.006,0.006,-0.006,1023
2018,5,17,22,53,30.635,0.7576,-0.212,-0.4148,0.457,-1,0.3,-0.1,0.006,0.002,-0.008,1023
2018,5,17,22,53,30.635,0.7575,-0.2121,-0.4149,0.457,-0.5,0.4,0.2,0.008,0.006,-0.014,1023
2018,5,17,22,53,30.662,0.7575,-0.2121,-0.4151,0.4569,0.2,1.1,0.7,0.01,0.004,-0.015,1023
2018,5,17,22,53,30.68,0.7574,-0.2119,-0.4153,0.4569,0.5,1.4,0.5,0.009,0.008,-0.004,1023
2018,5,17,22,53,30.718,0.7574,-0.2117,-0.4155,0.4569,0.4,1.6,0.8,0.007,0.008,-0.005,1023
2018,5,17,22,53,30.739,0.7573,-0.2114,-0.4157,0.4569,0.4,1.3,0.8,0.003,0.003,-0.01,0
2018,5,17,22,53,30.744,0.7572,-0.2113,-0.4159,0.4569,-0.3,1.6,0.3,0.003,0.007,-0.008,0
2018,5,17,22,53,30.761,0.7571,-0.2113,-0.4162,0.4569,-0.5,1.9,0,0.004,0.007,-0.012,0
2018,5,17,22,53,30.783,0.757,-0.2111,-0.4165,0.4569,-0.2,1.4,0.2,0.004,0.009,-0.007,0
2018,5,17,22,53,30.799,0.7569,-0.211,-0.4167,0.4569,-0.1,1.1,0.3,0.004,0.006,-0.007,0
2018,5,17,22,53,30.835,0.7568,-0.211,-0.4169,0.4569,-0.1,1.3,0,0.006,0.004,-0.01,0
2018,5,17,22,53,30.858,0.7567,-0.2109,-0.4171,0.457,0,1.4,0.2,0.006,0.008,-0.007,0
2018,5,17,22,53,30.863,0.7566,-0.2107,-0.4173,0.457,0.5,1.6,0.5,0.005,0.008,-0.006,0
2018,5,17,22,53,30.878,0.7566,-0.2104,-0.4175,0.457,1.9,1.5,1,0.009,0.007,-0.01,0
2018,5,17,22,53,30.901,0.7565,-0.21,-0.4176,0.4571,0.5,2.3,0.8,0.006,0.007,-0.006,0
2018,5,17,22,53,30.919,0.7564,-0.2098,-0.418,0.4571,-0.6,2.4,0.4,0.004,0.003,-0.005,0
2018,5,17,22,53,30.943,0.7563,-0.2097,-0.4184,0.457,-0.9,2.1,0.4,0.003,0.013,-0.004,0
2018,5,17,22,53,30.979,0.7561,-0.2096,-0.4188,0.457,-0.4,2.2,0.8,0.005,0.005,-0.012,0
2018,5,17,22,53,31.002,0.756,-0.2094,-0.4192,0.4569,0.2,2.5,0.9,0.009,0.004,-0.013,0
2018,5,17,22,53,31.007,0.7558,-0.2091,-0.4195,0.4569,0.7,2.4,1,0.001,0.001,-0.011,0
2018,5,17,22,53,31.02,0.7558,-0.2087,-0.4199,0.457,1,2.5,0.9,0.002,0.007,-0.009,0
2018,5,17,22,53,31.056,0.7556,-0.2083,-0.4202,0.457,0.3,2.7,0.3,0.003,0.012,-0.006,0
2018,5,17,22,53,31.077,0.7555,-0.2081,-0.4205,0.4571,0,2.2,0.2,0,0.012,-0.006,1023
2018,5,17,22,53,31.082,0.7554,-0.2079,-0.4208,0.4571,-0.6,1.9,0,0,0.005,-0.003,1023
2018,5,17,22,53,31.119,0.7552,-0.2079,-0.4211,0.4572,-0.6,1.5,0,0.003,0.005,-0.01,1023
2018,5,17,22,53,31.142,0.7551,-0.2078,-0.4213,0.4572,-0.2,1.3,0,0.004,0.011,-0.012,1023
2018,5,17,22,53,31.146,0.755,-0.2077,-0.4215,0.4572,0,1.6,0.1,0.005,0.006,-0.008,1023
2018,5,17,22,53,31.163,0.7548,-0.2076,-0.4217,0.4573,0.1,1.6,-0.1,0.004,0.002,-0.002,1023
2018,5,17,22,53,31.185,0.7547,-0.2075,-0.4219,0.4574,0.2,1.1,0,0.003,0.006,-0.005,1023
2018,5,17,22,53,31.204,0.7547,-0.2073,-0.422,0.4574,0.9,0.6,0.6,0.007,0.001,-0.016,1023
2018,5,17,22,53,31.227,0.7547,-0.2071,-0.422,0.4574,2,0.7,1,0.007,0.004,-0.016,1023
2018,5,17,22,53,31.246,0.7548,-0.2067,-0.422,0.4575,2.7,1.2,1.1,0.006,0.005,-0.012,1023
2018,5,17,22,53,31.264,0.7549,-0.2061,-0.422,0.4576,3.4,1.3,1.2,0.005,0.007,-0.007,1023
2018,5,17,22,53,31.287,0.755,-0.2055,-0.422,0.4578,2.5,1.6,0.8,0.002,0.006,-0.01,1023
2018,5,17,22,53,31.303,0.755,-0.2051,-0.4221,0.4579,1,1.8,0.2,0.003,0.01,0.001,1023
2018,5,17,22,53,31.322,0.7549,-0.2048,-0.4222,0.458,0.6,1.1,0,0,0.011,0,1023
2018,5,17,22,53,31.345,0.7549,-0.2046,-0.4222,0.4581,0.5,0.8,0,0.007,0.008,-0.006,1023
2018,5,17,22,53,31.361,0.7548,-0.2045,-0.4224,0.4581,0,0,0,0.005,0.005,-0.006,1023
2018,5,17,22,53,31.384,0.7548,-0.2045,-0.4224,0.4581,0,0,0,0.005,0.011,-0.003,1023
2018,5,17,22,53,31.403,0.7548,-0.2045,-0.4224,0.4581,0,0,0,0.007,0.007,-0.006,1023
2018,5,17,22,53,31.426,0.7548,-0.2045,-0.4224,0.4581,0,0,0,0.007,0.009,-0.005,1023
2018,5,17,22,53,31.444,0.7548,-0.2045,-0.4224,0.4581,-0.6,0.1,-0.3,0.005,0.009,-0.004,1023
2018,5,17,22,53,31.467,0.7547,-0.2047,-0.4225,0.4581,-1.3,0.2,-0.3,0.007,0.008,-0.006,0
2018,5,17,22,53,31.486,0.7547,-0.2048,-0.4226,0.458,-0.9,0.2,-0.2,0.007,0.007,-0.003,0
2018,5,17,22,53,31.508,0.7546,-0.2049,-0.4227,0.458,-0.3,0.5,0,0.007,0.004,-0.007,0
2018,5,17,22,53,31.529,0.7545,-0.2049,-0.4228,0.458,0,0.9,0.1,0.005,0.011,-0.008,0
2018,5,17,22,53,31.546,0.7544,-0.2049,-0.423,0.458,-0.3,0.9,0,0.006,0.009,-0.008,0
2018,5,17,22,53,31.569,0.7543,-0.2048,-0.4231,0.458,-0.1,0.9,0,0.003,0.005,-0.004,0
2018,5,17,22,53,31.586,0.7543,-0.2048,-0.4232,0.4581,-0.3,0.7,-0.2,0.004,0.006,-0.008,0
2018,5,17,22,53,31.623,0.7542,-0.2048,-0.4234,0.4581,-0.3,0.8,-0.2,0.003,0.007,-0.006,0
2018,5,17,22,53,31.645,0.7541,-0.2048,-0.4235,0.4581,0,0,0,0.004,0.008,-0.01,0
2018,5,17,22,53,31.649,0.7541,-0.2048,-0.4235,0.4581,0,0,0,0.001,0.007,-0.003,0
2018,5,17,22,53,31.668,0.7541,-0.2048,-0.4235,0.4581,0,0,0,0.004,0.004,-0.014,0
2018,5,17,22,53,31.703,0.7541,-0.2048,-0.4235,0.4581,0,0,0,0.006,0.005,-0.006,0
2018,5,17,22,53,31.726,0.7541,-0.2048,-0.4235,0.4581,0,0,0,0.006,0.012,-0.008,0
2018,5,17,22,53,31.731,0.7541,-0.2048,-0.4235,0.4581,0,0,0,0.004,0.008,-0.007,0
2018,5,17,22,53,31.747,0.7541,-0.2048,-0.4235,0.4581,0,0,0,0.003,0.005,-0.007,0
2018,5,17,22,53,31.768,0.754,-0.2049,-0.4236,0.4581,0,0,0,0.006,0.007,-0.004,0
2018,5,17,22,53,31.787,0.754,-0.2049,-0.4236,0.4581,0,0,0,0.006,0.01,-0.007,0
2018,5,17,22,53,31.804,0.754,-0.2049,-0.4236,0.4581,0,0,0,0.006,0.005,-0.011,0
2018,5,17,22,53,31.827,0.754,-0.2049,-0.4236,0.4581,0,0,0,0.003,0.001,-0.004,0
2018,5,17,22,53,31.846,0.754,-0.2049,-0.4236,0.4581,-0.5,0,-0.5,0.006,0.007,-0.009,0
2018,5,17,22,53,31.869,0.7539,-0.205,-0.4236,0.4581,-0.7,0.2,-0.3,0,0.013,-0.012,0
2018,5,17,22,53,31.886,0.7539,-0.2052,-0.4237,0.4581,0,0,0,0.005,0.007,-0.005,0
2018,5,17,22,53,31.909,0.7539,-0.2052,-0.4237,0.4581,0,0,0,0.005,0.004,0.001,1023
2018,5,17,22,53,31.946,0.7538,-0.2053,-0.4237,0.4581,-1,-0.3,-0.5,0.007,0.003,-0.005,1023
2018,5,17,22,53,31.969,0.7538,-0.2056,-0.4237,0.4581,-0.7,-0.4,-0.1,0.006,0.001,-0.015,1023
2018,5,17,22,53,31.973,0.7538,-0.2057,-0.4237,0.458,0,0,0,0.006,0.003,-0.013,1023
2018,5,17,22,53,31.992,0.7538,-0.2057,-0.4237,0.4581,1,0.2,0.2,0.009,0.01,-0.012,1023
2018,5,17,22,53,32.01,0.7538,-0.2055,-0.4236,0.4581,0.8,0.4,0.1,0.005,0.011,-0.005,1023
2018,5,17,22,53,32.033,0.7538,-0.2054,-0.4237,0.4581,0,0,0,0.003,0.008,-0.002,1023
2018,5,17,22,53,32.048,0.7538,-0.2054,-0.4237,0.4581,0,0,0,0,0.008,-0.006,1023
2018,5,17,22,53,32.068,0.7538,-0.2054,-0.4237,0.4581,0,0,0,0.004,0.008,-0.008,1023
2018,5,17,22,53,32.091,0.7538,-0.2054,-0.4237,0.4581,0,0,0,0.006,0.01,-0.013,1023
2018,5,17,22,53,32.107,0.7538,-0.2054,-0.4236,0.4581,0,0,0,0.008,0.005,-0.003,1023
2018,5,17,22,53,32.13,0.7538,-0.2054,-0.4236,0.4582,0,0,0,0.005,0.008,-0.004,1023
2018,5,17,22,53,32.167,0.7538,-0.2055,-0.4236,0.4581,0,0,0,0.007,0.007,-0.007,1023
2018,5,17,22,53,32.19,0.7538,-0.2055,-0.4237,0.4581,0,0,0,0.005,0.005,-0.017,1023
2018,5,17,22,53,32.195,0.7538,-0.2055,-0.4237,0.4581,0,0,0,0.002,0.003,-0.008,1023
2018,5,17,22,53,32.212,0.7538,-0.2055,-0.4237,0.4581,0,0,0,0.005,0.008,-0.007,1023
2018,5,17,22,53,32.25,0.7538,-0.2056,-0.4236,0.4581,-0.1,-0.5,0,0.007,0.008,-0.009,1023
2018,5,17,22,53,32.273,0.7538,-0.2056,-0.4236,0.4581,0,0,0,0.005,0.006,-0.002,1023
2018,5,17,22,53,32.278,0.7538,-0.2056,-0.4236,0.4581,0,0,0,0.007,0.009,-0.005,1023
2018,5,17,22,53,32.292,0.7538,-0.2056,-0.4235,0.4581,0,0,0,0.008,0.012,-0.006,1023
2018,5,17,22,53,32.315,0.7538,-0.2057,-0.4236,0.4581,-0.6,0.1,-0.3,0.007,0.008,-0.012,0
2018,5,17,22,53,32.334,0.7537,-0.2058,-0.4236,0.4582,-0.6,0.2,-0.3,0.004,0.004,-0.007,0
2018,5,17,22,53,32.357,0.7537,-0.2059,-0.4237,0.4582,0,0,0,0.001,0.005,-0.006,0
2018,5,17,22,53,32.373,0.7536,-0.206,-0.4237,0.4582,0,0,0,0.002,0.002,-0.008,0
2018,5,17,22,53,32.391,0.7536,-0.206,-0.4237,0.4582,-0.3,-0.3,-0.5,0.004,0.007,-0.011,0
2018,5,17,22,53,32.414,0.7536,-0.2061,-0.4237,0.4582,0,0,0,0.006,0.01,-0.009,0
2018,5,17,22,53,32.431,0.7536,-0.2061,-0.4237,0.4582,0,0,0,0.008,0.005,-0.005,0
2018,5,17,22,53,32.454,0.7536,-0.2061,-0.4237,0.4582,0,0,0,0.008,0.009,-0.008,0
2018,5,17,22,53,32.491,0.7536,-0.2061,-0.4237,0.4582,0,0,0,0.006,0.002,-0.01,0
2018,5,17,22,53,32.513,0.7536,-0.2061,-0.4237,0.4582,0.7,-0.1,0,0.006,0.005,-0.008,0
2018,5,17,22,53,32.518,0.7536,-0.206,-0.4236,0.4583,1.8,-0.3,0,0.006,0.007,-0.003,0
2018,5,17,22,53,32.534,0.7538,-0.2057,-0.4233,0.4584,3.4,-0.5,0.4,0.007,0.008,-0.01,0
2018,5,17,22,53,32.557,0.7541,-0.2051,-0.4228,0.4587,7.4,-1.2,1.2,0.007,0.001,-0.019,0
2018,5,17,22,53,32.573,0.7545,-0.204,-0.422,0.4591,9.4,-1,1.2,0.008,0.002,-0.015,0
2018,5,17,22,53,32.591,0.7549,-0.2029,-0.4213,0.4596,7.4,0.2,0.1,0.007,-0.002,-0.003,0
2018,5,17,22,53,32.614,0.7551,-0.2021,-0.4208,0.4601,4.9,0.2,-0.3,0.004,0.013,0.005,0
2018,5,17,22,53,32.633,0.7553,-0.2015,-0.4205,0.4604,1.6,0,-0.2,0.003,0.02,0.003,0
2018,5,17,22,53,32.653,0.7554,-0.2014,-0.4204,0.4604,0,0,0,0.001,0.012,0,0
2018,5,17,22,53,32.691,0.7553,-0.2014,-0.4204,0.4604,-0.6,0,-0.2,0,0.003,-0.002,0
2018,5,17,22,53,32.714,0.7553,-0.2016,-0.4203,0.4604,-0.4,-0.7,-0.4,0.006,0.002,-0.006,0
2018,5,17,22,53,32.719,0.7553,-0.2017,-0.4202,0.4604,0.3,-1,0,0.009,0.004,-0.012,0
2018,5,17,22,53,32.735,0.7554,-0.2017,-0.4201,0.4605,1.3,-0.5,0.3,0.011,0.004,-0.011,1023
2018,5,17,22,53,32.758,0.7555,-0.2016,-0.4199,0.4605,1.1,0,0.2,0.008,0.005,-0.003,1023
2018,5,17,22,53,32.795,0.7555,-0.2014,-0.4198,0.4606,0.6,0,0.1,0.004,0.012,-0.003,1023
2018,5,17,22,53,32.795,0.7556,-0.2013,-0.4198,0.4606,0.7,0,0.3,0.004,0.008,-0.008,1023
2018,5,17,22,53,32.819,0.7557,-0.2012,-0.4197,0.4606,1.8,-0.1,0.3,0.005,0.007,-0.008,1023
2018,5,17,22,53,32.837,0.7558,-0.2008,-0.4194,0.4608,3.7,-0.8,0.4,0.005,0.006,-0.012,1023
2018,5,17,22,53,32.854,0.7561,-0.2002,-0.4189,0.461,7.5,-1.9,1,0.003,0.005,-0.013,1023
2018,5,17,22,53,32.877,0.7567,-0.199,-0.4179,0.4615,12.5,-2.3,1.5,0.008,-0.004,-0.025,1023
2018,5,17,22,53,32.896,0.7575,-0.1972,-0.4164,0.4623,16.9,-3,2,0.009,0.007,-0.017,1023
2018,5,17,22,53,32.915,0.7584,-0.1949,-0.4147,0.4632,18.6,-2.5,2.2,0.006,0,-0.01,1023
2018,5,17,22,53,32.936,0.7594,-0.1926,-0.413,0.4642,17.5,-1.7,2.1,0.011,0.007,-0.006,1023
2018,5,17,22,53,32.974,0.7602,-0.1904,-0.4114,0.4651,15.2,-1.1,1.7,0.007,0.016,0.005,1023
2018,5,17,22,53,32.997,0.7609,-0.1885,-0.4102,0.4658,11.3,-0.7,1.2,0.002,0.019,0.005,1023
2018,5,17,22,53,33.002,0.7614,-0.1872,-0.4094,0.4663,7.1,-0.5,0.8,0.002,0.022,0.006,1023
2018,5,17,22,53,33.018,0.7618,-0.1863,-0.4088,0.4666,4.4,-0.7,0.8,0.003,0.015,0.004,1023
2018,5,17,22,53,33.041,0.762,-0.1858,-0.4084,0.4667,3,-0.5,0.6,0.004,0.01,-0.005,1023
2018,5,17,22,53,33.059,0.7622,-0.1854,-0.4081,0.4669,2.7,-0.5,0.5,0.008,0.009,-0.006,1023
2018,5,17,22,53,33.083,0.7623,-0.185,-0.4078,0.467,3.2,-0.5,0.3,0.004,0.003,-0.013,1023
2018,5,17,22,53,33.102,0.7625,-0.1846,-0.4075,0.4672,3.8,-0.5,0.3,0.005,0.005,-0.008,1023
2018,5,17,22,53,33.122,0.7627,-0.1841,-0.4071,0.4674,4.3,-0.4,0.1,0.006,0.004,-0.006,1023
2018,5,17,22,53,33.138,0.7629,-0.1835,-0.4067,0.4677,4.3,-0.5,0.2,0.006,0.01,-0.009,1023
2018,5,17,22,53,33.156,0.7631,-0.183,-0.4063,0.4679,3.6,-0.3,0.3,0.008,0.009,-0.001,0
2018,5,17,22,53,33.179,0.7632,-0.1826,-0.406,0.4681,2.5,-0.2,0.2,0.005,0.003,-0.009,0
2018,5,17,22,53,33.198,0.7633,-0.1823,-0.4057,0.4683,2.1,-0.2,0,0.006,0.011,-0.005,0
2018,5,17,22,53,33.221,0.7634,-0.182,-0.4055,0.4684,2.1,-0.2,0,0.006,0.006,-0.003,0
2018,5,17,22,53,33.239,0.7636,-0.1817,-0.4053,0.4685,1.9,-0.3,0.2,0.003,0.006,-0.003,0
2018,5,17,22,53,33.262,0.7636,-0.1815,-0.4051,0.4686,1.6,-0.2,0,0.007,0.007,-0.008,0
2018,5,17,22,53,33.279,0.7637,-0.1813,-0.405,0.4687,1.5,0,0,0.006,0.008,-0.004,0
2018,5,17,22,53,33.301,0.7638,-0.1811,-0.4048,0.4688,1.3,-0.3,0,0.003,0.009,-0.002,0
2018,5,17,22,53,33.337,0.7639,-0.1809,-0.4046,0.4689,1.4,-0.3,0,0.004,0.006,-0.005,0
2018,5,17,22,53,33.337,0.764,-0.1807,-0.4044,0.469,1.5,-0.3,0.2,0.008,0.009,-0.007,0
2018,5,17,22,53,33.36,0.7641,-0.1805,-0.4042,0.4691,1.8,-0.4,0.2,0.004,0.005,-0.003,0
2018,5,17,22,53,33.395,0.7642,-0.1803,-0.404,0.4692,1.8,-0.1,0.1,0.005,0.009,-0.001,0
2018,5,17,22,53,33.415,0.7643,-0.18,-0.4039,0.4693,1.7,-0.2,0,0.005,0.006,-0.008,0
2018,5,17,22,53,33.42,0.7643,-0.1798,-0.4037,0.4693,1.3,-0.2,0.2,0.006,0.008,-0.01,0
2018,5,17,22,53,33.44,0.7644,-0.1797,-0.4035,0.4694,1.3,-0.3,0,0.007,0.007,-0.002,0
2018,5,17,22,53,33.463,0.7645,-0.1795,-0.4033,0.4695,1.4,-0.5,0,0.006,0.011,0,0
2018,5,17,22,53,33.482,0.7646,-0.1793,-0.4031,0.4696,0.8,-0.4,0,0.002,0.01,-0.007,1023
2018,5,17,22,53,33.518,0.7646,-0.1793,-0.4031,0.4696,0,0,0,0.006,0.009,-0.005,1023
2018,5,17,22,53,33.541,0.7646,-0.1793,-0.4031,0.4696,-0.5,0.3,-0.2,0.004,0.007,-0.001,1023
2018,5,17,22,53,33.546,0.7646,-0.1794,-0.4031,0.4696,-1.1,0,-0.1,0.01,0.008,-0.003,1023
2018,5,17,22,53,33.565,0.7645,-0.1796,-0.4032,0.4696,-0.5,0,0.3,0.01,0.005,-0.011,1023
2018,5,17,22,53,33.584,0.7645,-0.1796,-0.4033,0.4695,0.3,0.9,0.8,0.008,0.004,-0.017,1023
2018,5,17,22,53,33.606,0.7645,-0.1794,-0.4034,0.4695,0.5,1.6,0.7,0.008,0.009,-0.007,1023
2018,5,17,22,53,33.623,0.7644,-0.1791,-0.4036,0.4695,0.5,1.6,0.8,0.007,0.009,-0.002,1023
2018,5,17,22,53,33.641,0.7644,-0.1788,-0.4038,0.4695,0.9,1.4,0.9,0.001,0.003,-0.008,1023
2018,5,17,22,53,33.663,0.7645,-0.1785,-0.4039,0.4695,1.1,1,0.7,0,0.006,-0.011,1023
2018,5,17,22,53,33.7,0.7645,-0.1782,-0.404,0.4695,1.4,0.6,0.6,0.001,0.007,-0.005,1023
2018,5,17,22,53,33.723,0.7645,-0.1779,-0.404,0.4696,0.5,0.8,0.2,0.005,0.01,0,1023
2018,5,17,22,53,33.728,0.7645,-0.1779,-0.4039,0.4696,0,0,0,0.007,0.012,-0.003,1023
2018,5,17,22,53,33.743,0.7645,-0.1778,-0.4039,0.4696,0,0.6,0.4,0.009,0.008,-0.005,1023
2018,5,17,22,53,33.766,0.7645,-0.1777,-0.404,0.4696,0.2,1,0.4,0.006,0.005,-0.011,1023
2018,5,17,22,53,33.8,0.7645,-0.1775,-0.4042,0.4696,0.5,1,0.6,0.008,0.006,-0.009,1023
2018,5,17,22,53,33.824,0.7645,-0.1773,-0.4042,0.4696,0.8,1.2,0.4,0.008,0.009,-0.003,1023
2018,5,17,22,53,33.828,0.7645,-0.1771,-0.4043,0.4696,0.7,1.1,0.5,0.006,0.008,-0.005,1023
2018,5,17,22,53,33.864,0.7644,-0.1768,-0.4044,0.4697,0.5,1.3,0.5,0.006,0.006,-0.007,1023
2018,5,17,22,53,33.886,0.7644,-0.1766,-0.4046,0.4697,1.1,1.4,0.8,0.007,0.009,-0.005,1023
2018,5,17,22,53,33.889,0.7644,-0.1762,-0.4047,0.4697,1.6,1.5,0.8,0.003,0.008,-0.005,0
2018,5,17,22,53,33.925,0.7644,-0.1758,-0.4047,0.4698,2.3,1.6,0.8,0.005,0.008,-0.008,0
2018,5,17,22,53,33.925,0.7644,-0.1753,-0.4048,0.4699,2.1,1.7,0.6,0.005,0.005,-0.005,0
2018,5,17,22,53,33.949,0.7644,-0.1748,-0.4049,0.4701,1.4,1.9,0.3,0.007,0.01,-0.008,0
2018,5,17,22,53,33.964,0.7643,-0.1745,-0.4051,0.4702,1.8,1.6,0.3,0.005,0.008,-0.006,0
2018,5,17,22,53,33.987,0.7643,-0.1741,-0.4051,0.4703,1.9,1.4,0.5,0.002,0.006,-0.012,0
2018,5,17,22,53,34.004,0.7643,-0.1737,-0.4052,0.4704,1.8,1.2,0.5,0.002,0.008,-0.006,0
2018,5,17,22,53,34.027,0.7644,-0.1733,-0.4052,0.4705,1.9,1,0.7,0.006,0.007,-0.004,0
2018,5,17,22,53,34.067,0.7644,-0.1729,-0.4052,0.4705,1.8,0.8,0.9,0.004,0.005,-0.005,0
2018,5,17,22,53,34.071,0.7645,-0.1726,-0.4052,0.4706,1.9,0.7,0.8,0.008,0.006,-0.009,0
2018,5,17,22,53,34.087,0.7645,-0.1722,-0.4051,0.4707,2.2,0.6,0.7,0.008,0.008,-0.004,0
2018,5,17,22,53,34.11,0.7646,-0.1717,-0.4051,0.4708,2.2,0.9,0.8,0.008,0.009,-0.006,0
2018,5,17,22,53,34.126,0.7647,-0.1713,-0.405,0.4708,2.4,0.9,0.9,0.007,0.01,-0.005,0
2018,5,17,22,53,34.146,0.7648,-0.1708,-0.405,0.4709,2.1,0.8,0.8,0.006,0.007,-0.009,0
2018,5,17,22,53,34.165,0.7648,-0.1704,-0.405,0.471,1.9,0.8,0.5,0.007,0.004,-0.007,0
2018,5,17,22,53,34.189,0.7649,-0.1701,-0.4049,0.4711,2.1,0.4,0.5,0.007,0.009,-0.005,0
2018,5,17,22,53,34.206,0.765,-0.1697,-0.4048,0.4711,1.8,0.5,0.7,0.003,0.011,-0.004,0
2018,5,17,22,53,34.229,0.7651,-0.1694,-0.4047,0.4712,1.5,0.3,0.6,0.006,0.002,-0.004,1023
2018,5,17,22,53,34.247,0.7651,-0.1691,-0.4046,0.4712,2.3,0,0.7,0.007,0.007,-0.006,1023
2018,5,17,22,53,34.267,0.7653,-0.1687,-0.4045,0.4713,2,0.3,0.6,0.003,0.008,-0.004,1023
2018,5,17,22,53,34.305,0.7654,-0.1683,-0.4044,0.4713,1.8,0.2,0.5,0,0.012,-0.002,1023
2018,5,17,22,53,34.328,0.7655,-0.168,-0.4043,0.4714,1.1,0.1,0.2,0.002,0.009,-0.006,1023
2018,5,17,22,53,34.332,0.7655,-0.1679,-0.4043,0.4714,0,0,0,0.005,0.009,-0.004,1023
2018,5,17,22,53,34.366,0.7655,-0.1679,-0.4042,0.4715,0,0,-0.7,0.001,0.006,0.002,1023
2018,5,17,22,53,34.389,0.7655,-0.168,-0.4041,0.4716,-0.3,-0.8,-0.8,0.002,0.005,-0.004,1023
2018,5,17,22,53,34.394,0.7654,-0.1683,-0.4041,0.4716,-1.3,-0.8,-0.7,0.007,0.006,-0.008,1023
2018,5,17,22,53,34.407,0.7654,-0.1685,-0.404,0.4715,-0.1,-0.8,0,0.01,0.002,-0.015,1023
2018,5,17,22,53,34.426,0.7654,-0.1686,-0.4039,0.4715,0.9,-0.2,0.3,0.009,0.001,-0.011,1023
2018,5,17,22,53,34.448,0.7655,-0.1684,-0.4039,0.4716,0.9,0.6,0.3,0.011,0.011,-0.005,1023
2018,5,17,22,53,34.485,0.7655,-0.1682,-0.4039,0.4717,0.7,0.8,0.2,0.003,0.011,-0.005,1023
2018,5,17,22,53,34.508,0.7655,-0.168,-0.4039,0.4717,0.7,0.5,0.2,0,0.009,-0.005,1023
2018,5,17,22,53,34.513,0.7655,-0.1678,-0.404,0.4717,0.6,0.2,0.2,0.002,0.011,-0.008,1023
2018,5,17,22,53,34.529,0.7656,-0.1677,-0.4039,0.4716,0.7,-0.3,0.3,0.004,0.007,-0.007,1023
2018,5,17,22,53,34.552,0.7656,-0.1676,-0.4038,0.4716,0.6,-0.2,0.2,0.005,0.004,-0.002,1023
2018,5,17,22,53,34.572,0.7657,-0.1675,-0.4038,0.4717,0.6,0,0.2,0.007,0.007,-0.005,1023
2018,5,17,22,53,34.609,0.7657,-0.1674,-0.4038,0.4717,0.9,0.5,0.5,0.007,0.011,-0.009,0
2018,5,17,22,53,34.632,0.7657,-0.1672,-0.4038,0.4717,0.8,0.9,0.4,0.005,0.011,-0.009,0
2018,5,17,22,53,34.636,0.7657,-0.167,-0.4038,0.4717,0,0.7,0,0,0.004,-0.006,0
2018,5,17,22,53,34.652,0.7657,-0.1669,-0.4039,0.4717,0,0,0,0.003,0.008,-0.005,0
2018,5,17,22,53,34.676,0.7657,-0.1669,-0.4039,0.4717,0,0,0,0.002,0.005,-0.01,0
2018,5,17,22,53,34.692,0.7657,-0.167,-0.4039,0.4717,0.5,-0.2,0,0.006,0.009,-0.004,0
2018,5,17,22,53,34.708,0.7658,-0.1669,-0.4038,0.4718,0,0,0,0.005,0.012,-0.004,0
2018,5,17,22,53,34.731,0.7658,-0.1669,-0.4037,0.4718,-0.4,0.5,-0.1,0.008,0.011,-0.009,0
2018,5,17,22,53,34.749,0.7657,-0.1669,-0.4038,0.4718,-1,0.9,-0.5,0.006,0.009,0.002,0
2018,5,17,22,53,34.772,0.7655,-0.1671,-0.404,0.4718,-2.1,1.1,-0.4,0.003,0.007,-0.002,0
2018,5,17,22,53,34.79,0.7654,-0.1673,-0.4043,0.4718,-1.4,0.5,-0.3,0.007,0.006,-0.012,0
2018,5,17,22,53,34.813,0.7653,-0.1675,-0.4045,0.4717,-0.6,0.3,0,0,0.002,-0.008,0
2018,5,17,22,53,34.85,0.7653,-0.1675,-0.4045,0.4717,0,0,0,0.006,0.004,-0.009,0
2018,5,17,22,53,34.873,0.7652,-0.1675,-0.4046,0.4717,0,0,0,0.005,0.005,-0.007,0
2018,5,17,22,53,34.878,0.7653,-0.1675,-0.4045,0.4717,0,0,0,0.008,0.007,-0.003,0
2018,5,17,22,53,34.891,0.7653,-0.1675,-0.4045,0.4717,0,0,0,0.005,0.007,-0.006,0
2018,5,17,22,53,34.909,0.7652,-0.1675,-0.4045,0.4717,-0.5,0.2,-0.1,0.003,0.004,-0.008,0
2018,5,17,22,53,34.932,0.7652,-0.1676,-0.4046,0.4717,0,0,0,0.007,0.002,-0.007,0
2018,5,17,22,53,34.95,0.7652,-0.1676,-0.4045,0.4717,0,0,0,0.006,0.005,-0.006,0
2018,5,17,22,53,34.973,0.7652,-0.1676,-0.4045,0.4717,0,0,0,0.004,0.009,-0.003,0
2018,5,17,22,53,34.992,0.7652,-0.1676,-0.4045,0.4717,0,0,0,0.003,0.01,-0.003,1023
2018,5,17,22,53,35.015,0.7652,-0.1676,-0.4045,0.4717,0,0,0,0.006,0.007,-0.004,1023
2018,5,17,22,53,35.051,0.7652,-0.1676,-0.4045,0.4717,0.5,0,0.2,0.006,0.003,-0.008,1023
2018,5,17,22,53,35.075,0.7653,-0.1675,-0.4045,0.4717,0.6,0,0.2,0.003,0.009,-0.008,1023
2018,5,17,22,53,35.079,0.7653,-0.1675,-0.4045,0.4717,0,0,0,0.004,0.009,-0.01,1023
2018,5,17,22,53,35.096,0.7653,-0.1675,-0.4044,0.4717,0,0,0,0.006,0.007,0,1023
2018,5,17,22,53,35.132,0.7653,-0.1675,-0.4044,0.4717,0,0,0,0.003,0.006,-0.001,1023
2018,5,17,22,53,35.155,0.7653,-0.1675,-0.4044,0.4717,0,0,0,0.005,0.003,-0.015,1023
2018,5,17,22,53,35.16,0.7653,-0.1675,-0.4044,0.4717,0.7,-0.3,0.5,0.005,0.003,-0.01,1023
2018,5,17,22,53,35.173,0.7654,-0.1674,-0.4043,0.4717,1.6,0.1,0.5,0.007,0.006,-0.004,1023
2018,5,17,22,53,35.212,0.7654,-0.1671,-0.4042,0.4718,0.7,0.5,0.2,0.006,0.013,-0.005,1023
2018,5,17,22,53,35.212,0.7654,-0.167,-0.4042,0.4718,-0.3,0.5,0,0.004,0.009,-0.006,1023
2018,5,17,22,53,35.235,0.7654,-0.167,-0.4043,0.4718,0,0,0,0,0.005,-0.007,1023
2018,5,17,22,53,35.253,0.7654,-0.167,-0.4043,0.4718,0,0,0,0.003,0.005,-0.01,1023
2018,5,17,22,53,35.276,0.7655,-0.167,-0.4042,0.4718,0.5,-0.7,-0.1,0.003,0.006,-0.002,1023
2018,5,17,22,53,35.312,0.7655,-0.167,-0.4041,0.4718,0.2,-0.7,-0.3,0.007,0.01,-0.006,1023
2018,5,17,22,53,35.335,0.7656,-0.1671,-0.4039,0.4719,0,0,0,0.009,0.011,-0.007,1023
2018,5,17,22,53,35.34,0.7656,-0.1671,-0.4039,0.4719,0,0,0,0.003,0.008,-0.003,1023
2018,5,17,22,53,35.356,0.7655,-0.1671,-0.404,0.4719,0,0,0,0.002,0.007,-0.011,1023
2018,5,17,22,53,35.379,0.7655,-0.1671,-0.404,0.4719,0,0,0,0.006,0.004,-0.005,0
2018,5,17,22,53,35.398,0.7655,-0.1671,-0.404,0.4719,0,0,0,0.003,0.005,-0.003,0
2018,5,17,22,53,35.421,0.7656,-0.1671,-0.4039,0.4719,0.7,-0.5,0.1,0.005,0.005,-0.008,0
2018,5,17,22,53,35.438,0.7657,-0.1671,-0.4038,0.4719,1.2,-0.6,0.5,0.005,0.007,-0.007,0
2018,5,17,22,53,35.458,0.7658,-0.1669,-0.4036,0.4719,1.1,-0.2,0.5,0.006,0.007,-0.005,0
2018,5,17,22,53,35.477,0.7658,-0.1668,-0.4035,0.4719,1.1,-0.1,0.3,0.005,0.005,-0.012,0
2018,5,17,22,53,35.513,0.7659,-0.1666,-0.4035,0.4719,0.8,0,0.2,0.005,0.006,-0.008,0
2018,5,17,22,53,35.536,0.7659,-0.1665,-0.4034,0.4719,0.7,0,0.2,0.004,0.008,-0.006,0
2018,5,17,22,53,35.541,0.7659,-0.1664,-0.4034,0.4719,0.5,0,0.1,0.003,0.007,-0.006,0
2018,5,17,22,53,35.557,0.766,-0.1664,-0.4034,0.4719,0.4,-0.5,0,0.001,0.009,-0.004,0
2018,5,17,22,53,35.579,0.766,-0.1664,-0.4033,0.472,0.3,-0.5,-0.1,0.006,0.007,-0.005,0
2018,5,17,22,53,35.598,0.7661,-0.1664,-0.4032,0.472,0.2,-0.5,0,0.005,0.008,-0.007,0
2018,5,17,22,53,35.621,0.7661,-0.1664,-0.4031,0.472,0,0,0,0.005,0.006,-0.01,0
2018,5,17,22,53,35.639,0.7661,-0.1664,-0.403,0.472,0.2,-0.5,-0.2,0.006,0.009,-0.005,0
2018,5,17,22,53,35.662,0.7661,-0.1664,-0.4029,0.472,0,0,0,0.009,0.01,-0.009,0
2018,5,17,22,53,35.678,0.7661,-0.1665,-0.4029,0.472,0,-0.5,-0.1,0.008,0.006,-0.005,0
2018,5,17,22,53,35.695,0.7661,-0.1665,-0.4029,0.4721,0,-0.5,-0.1,0.007,0.008,-0.003,0
2018,5,17,22,53,35.718,0.7661,-0.1665,-0.4028,0.4721,0,0,0,0.006,0.006,-0.007,0
2018,5,17,22,53,35.737,0.7662,-0.1665,-0.4028,0.4721,0,0,0,0.009,0.004,-0.002,0
2018,5,17,22,53,35.759,0.7662,-0.1665,-0.4027,0.4721,0.2,-0.7,-0.2,0.004,0.007,-0.011,0
2018,5,17,22,53,35.796,0.7662,-0.1666,-0.4026,0.4721,0.3,-0.5,0,0.009,0.006,-0.004,0
2018,5,17,22,53,35.819,0.7663,-0.1666,-0.4025,0.4721,0,0,0,0.007,0.009,-0.004,1023
2018,5,17,22,53,35.823,0.7662,-0.1666,-0.4025,0.4721,0,0,0,0.005,0.007,-0.001,1023
2018,5,17,22,53,35.839,0.7662,-0.1666,-0.4025,0.4722,0,0,0,0.004,0.005,-0.001,1023
2018,5,17,22,53,35.862,0.7662,-0.1667,-0.4024,0.4722,-0.4,-0.9,-0.5,0.005,0.007,-0.005,1023
2018,5,17,22,53,35.88,0.7663,-0.1669,-0.4022,0.4722,-0.4,-1.3,-0.3,0.009,0.004,-0.01,1023
2018,5,17,22,53,35.903,0.7663,-0.1671,-0.4021,0.4722,0.3,-1,0,0.008,0.002,-0.014,1023
2018,5,17,22,53,35.924,0.7663,-0.1671,-0.402,0.4723,0.8,-0.3,0,0.009,0.007,-0.008,1023
2018,5,17,22,53,35.941,0.7664,-0.167,-0.4018,0.4723,0.9,0.1,0.2,0.006,0.008,-0.007,1023
2018,5,17,22,53,35.957,0.7664,-0.1669,-0.4018,0.4724,0.6,0,0.2,0.004,0.005,-0.006,1023
2018,5,17,22,53,35.98,0.7665,-0.1668,-0.4017,0.4724,1,-0.3,0,0.004,0.005,-0.008,1023
2018,5,17,22,53,36.018,0.7665,-0.1667,-0.4015,0.4724,1.3,-0.5,0.2,0.008,0.005,-0.012,1023
2018,5,17,22,53,36.041,0.7666,-0.1666,-0.4014,0.4725,1.1,-0.5,0,0.005,0.008,-0.003,1023
2018,5,17,22,53,36.046,0.7667,-0.1665,-0.4011,0.4726,0.8,-0.6,-0.1,0.004,0.01,-0.006,1023
2018,5,17,22,53,36.062,0.7668,-0.1665,-0.401,0.4726,0,-0.8,-0.3,0.006,0.008,-0.007,1023
2018,5,17,22,53,36.08,0.7668,-0.1666,-0.4009,0.4726,0,-0.8,-0.2,0.008,0.007,-0.006,1023
2018,5,17,22,53,36.103,0.7668,-0.1667,-0.4008,0.4726,0,0,0,0.008,0.003,-0.007,1023
2018,5,17,22,53,36.123,0.7668,-0.1668,-0.4007,0.4726,0.3,-0.5,-0.2,0.005,0.007,-0.006,1023
2018,5,17,22,53,36.146,0.7669,-0.1668,-0.4006,0.4727,0,-0.7,-0.4,0.007,0.006,-0.005,1023
2018,5,17,22,53,36.164,0.7669,-0.1669,-0.4005,0.4727,0,-0.8,-0.4,0.005,0.007,-0.007,1023
2018,5,17,22,53,36.187,0.7669,-0.1671,-0.4003,0.4727,0,-1,-0.2,0.006,0.004,-0.001,0
2018,5,17,22,53,36.224,0.767,-0.1672,-0.4002,0.4727,0,-0.7,-0.2,0.003,0.007,-0.007,0
2018,5,17,22,53,36.224,0.767,-0.1672,-0.4,0.4728,0.2,-0.5,-0.2,0.005,0.007,-0.004,0
2018,5,17,22,53,36.246,0.767,-0.1672,-0.4,0.4728,0,0,0,0.005,0.01,-0.009,0
2018,5,17,22,53,36.262,0.767,-0.1673,-0.3999,0.4728,0,0,0,0.009,0.006,-0.01,0
2018,5,17,22,53,36.284,0.767,-0.1673,-0.3999,0.4728,0,0,0,0.007,0.002,-0.006,0
2018,5,17,22,53,36.303,0.767,-0.1673,-0.3999,0.4729,0.5,-0.5,0,0.004,0.006,-0.007,0
2018,5,17,22,53,36.324,0.7671,-0.1672,-0.3998,0.4729,0.6,-0.3,0.1,0.007,0.006,-0.01,0
2018,5,17,22,53,36.362,0.7671,-0.1671,-0.3997,0.4729,0.8,-0.2,0.3,0.008,0.005,-0.007,0
2018,5,17,22,53,36.385,0.7672,-0.167,-0.3996,0.4729,0.9,-0.2,0.2,0.006,0.007,-0.007,0
2018,5,17,22,53,36.39,0.7673,-0.1669,-0.3995,0.473,0.5,-0.1,0,0.005,0.01,-0.001,0
2018,5,17,22,53,36.407,0.7673,-0.1669,-0.3994,0.473,0,0,0,0.007,0.009,-0.006,0
2018,5,17,22,53,36.442,0.7673,-0.1669,-0.3994,0.473,0,0,0,0.001,0.006,-0.005,0
2018,5,17,22,53,36.442,0.7673,-0.1669,-0.3994,0.473,0,0,0,0.006,0.008,-0.008,0
2018,5,17,22,53,36.465,0.7673,-0.1669,-0.3994,0.473,0,-0.5,-0.3,0.008,0.007,-0.007,0
2018,5,17,22,53,36.484,0.7673,-0.1669,-0.3994,0.473,0,0,0,0.009,0.008,-0.004,0
2018,5,17,22,53,36.504,0.7673,-0.1669,-0.3993,0.473,0,0,0,0.006,0.006,-0.005,0
2018,5,17,22,53,36.527,0.7673,-0.1669,-0.3993,0.473,0,0,0,0.008,0.003,-0.01,1023
2018,5,17,22,53,36.543,0.7673,-0.167,-0.3993,0.473,0,0,0,0.005,0.004,-0.007,1023
2018,5,17,22,53,36.566,0.7673,-0.1669,-0.3993,0.4731,0.6,-0.1,0,0.007,0.006,-0.005,1023
2018,5,17,22,53,36.584,0.7673,-0.1669,-0.3992,0.4731,0,0,0,0.006,0.008,-0.01,1023
2018,5,17,22,53,36.607,0.7673,-0.1669,-0.3992,0.4731,0,0,0,0.01,0.005,-0.011,1023
2018,5,17,22,53,36.643,0.7673,-0.1668,-0.3991,0.4731,1.1,0.2,0.3,0.009,0.004,-0.008,1023
2018,5,17,22,53,36.665,0.7674,-0.1666,-0.3991,0.4732,1.5,0.4,1,0.009,0.004,-0.006,1023
2018,5,17,22,53,36.67,0.7675,-0.1663,-0.3991,0.4731,1.1,1,1.4,0.009,0.003,-0.009,1023
2018,5,17,22,53,36.706,0.7676,-0.166,-0.3992,0.473,1.6,1.6,1.6,0.012,0.005,-0.01,1023
2018,5,17,22,53,36.729,0.7676,-0.1655,-0.3993,0.473,2.2,2.1,1.7,0.008,0.004,-0.008,1023
2018,5,17,22,53,36.734,0.7677,-0.1648,-0.3994,0.473,2.8,2.1,1.9,0.006,0.009,-0.005,1023
2018,5,17,22,53,36.747,0.7678,-0.1641,-0.3995,0.473,2.6,2,1.7,0.003,0.007,-0.007,1023
2018,5,17,22,53,36.765,0.7679,-0.1634,-0.3996,0.473,2.5,1.7,1.5,0,0.007,-0.008,1023
2018,5,17,22,53,36.788,0.768,-0.1629,-0.3996,0.4731,2.2,1,1.1,0,0.009,-0.004,1023
2018,5,17,22,53,36.824,0.7681,-0.1624,-0.3996,0.4731,1.7,0.6,0.8,0.006,0.012,-0.003,1023
2018,5,17,22,53,36.848,0.7682,-0.1621,-0.3995,0.4731,0.9,0.5,0.3,0.004,0.008,0,1023
2018,5,17,22,53,36.851,0.7682,-0.162,-0.3995,0.4731,0.1,0.6,0.3,0.007,0.007,-0.001,1023
2018,5,17,22,53,36.867,0.7682,-0.1619,-0.3996,0.4731,0.3,0.8,0.4,0.008,0.007,-0.006,1023
2018,5,17,22,53,36.89,0.7682,-0.1617,-0.3997,0.4731,0.5,1.4,0.6,0.006,0.009,-0.009,1023
2018,5,17,22,53,36.908,0.7681,-0.1615,-0.3998,0.4731,0.3,1.6,0.5,0.008,0.007,-0.006,0
2018,5,17,22,53,36.931,0.7681,-0.1613,-0.4001,0.4731,-0.3,1.6,0.3,0.005,0.009,-0.002,0
2018,5,17,22,53,36.949,0.768,-0.1611,-0.4003,0.4731,-0.4,1.7,0.3,0.011,0.008,-0.005,0
2018,5,17,22,53,36.973,0.7679,-0.1611,-0.4006,0.4731,-0.9,1.6,0.2,0.004,0.005,-0.002,0
2018,5,17,22,53,36.991,0.7678,-0.161,-0.4009,0.473,-0.2,1.8,0.7,0.002,-0.002,-0.008,0
2018,5,17,22,53,37.014,0.7677,-0.1608,-0.4012,0.473,0,1.7,0.3,0.006,0.01,-0.008,0
2018,5,17,22,53,37.03,0.7676,-0.1606,-0.4015,0.473,0,1.9,0.3,0.007,0.003,-0.01,0
2018,5,17,22,53,37.067,0.7675,-0.1605,-0.4017,0.473,0.3,1.7,0.3,0.008,0.005,-0.011,0
2018,5,17,22,53,37.088,0.7674,-0.1603,-0.4019,0.473,0.3,1.7,0.4,0.008,0.006,-0.01,0
2018,5,17,22,53,37.093,0.7673,-0.1601,-0.4021,0.473,0.4,1.4,0.5,0.001,0.006,-0.007,0
2018,5,17,22,53,37.109,0.7673,-0.1599,-0.4022,0.473,0.5,0.8,0.4,0.001,0.003,-0.001,0
2018,5,17,22,53,37.132,0.7673,-0.1597,-0.4023,0.473,0.7,0.7,0.7,0.005,0.007,-0.009,0
2018,5,17,22,53,37.169,0.7673,-0.1594,-0.4024,0.473,1,0.9,0.7,0.008,0.007,-0.009,0
2018,5,17,22,53,37.192,0.7673,-0.1591,-0.4024,0.473,1.2,0.8,0.8,0.008,0.007,-0.007,0
2018,5,17,22,53,37.197,0.7674,-0.1588,-0.4024,0.473,1.1,0.9,0.7,0.005,0.008,-0.005,0
2018,5,17,22,53,37.21,0.7674,-0.1585,-0.4025,0.473,0.8,1.3,0.8,0.007,0.01,-0.008,0
2018,5,17,22,53,37.245,0.7674,-0.1583,-0.4026,0.473,0.7,1.4,0.6,0.005,0.008,-0.005,0
