time_1,time_2,time_3,time_4,time_5,time_6,w,x,y,z,droll,dpitch,dyaw,ax,ay,az,heart
2018,5,17,22,36,1.913,0.0064,-0.4769,-0.261,0.8392,0,0,0,-0.006,0.001,-0.003,0
2018,5,17,22,36,1.936,0.0064,-0.477,-0.2609,0.8392,0.5,0.3,-0.4,-0.006,0.01,-0.004,0
2018,5,17,22,36,1.954,0.0064,-0.477,-0.2608,0.8392,0,0,0,-0.005,0.009,0,0
2018,5,17,22,36,1.976,0.0064,-0.477,-0.2608,0.8392,0,0,0,-0.008,-0.004,-0.01,0
2018,5,17,22,36,1.994,0.0064,-0.477,-0.2609,0.8392,0,0,0,-0.011,-0.005,-0.002,0
2018,5,17,22,36,2.017,0.0065,-0.477,-0.2609,0.8392,0.5,-0.7,-0.3,-0.011,0.002,0,0
2018,5,17,22,36,2.035,0.0064,-0.4771,-0.2608,0.8391,0,0,0,0.002,0.008,-0.006,0
2018,5,17,22,36,2.058,0.0064,-0.4772,-0.2607,0.8391,0.3,0.5,0,0.004,0.011,-0.001,0
2018,5,17,22,36,2.094,0.0064,-0.4771,-0.2607,0.8391,0.2,0.6,0.3,-0.004,0.007,0,0
2018,5,17,22,36,2.117,0.0064,-0.4771,-0.2606,0.8392,0,0,0,-0.009,0.005,0.002,0
2018,5,17,22,36,2.121,0.0064,-0.477,-0.2606,0.8392,0,0,0,-0.007,0,-0.001,0
2018,5,17,22,36,2.135,0.0064,-0.4771,-0.2607,0.8392,0,0,0,-0.005,0.005,-0.011,0
2018,5,17,22,36,2.17,0.0064,-0.4771,-0.2607,0.8392,0,0,0,-0.006,0.002,-0.002,0
2018,5,17,22,36,2.192,0.0064,-0.4771,-0.2607,0.8392,0,0,0,-0.011,0.001,0.002,0
2018,5,17,22,36,2.197,0.0064,-0.477,-0.2606,0.8392,0,0,0,-0.006,0.002,-0.001,0
2018,5,17,22,36,2.217,0.0064,-0.4771,-0.2606,0.8392,0,0,0,-0.003,0,-0.011,1023
2018,5,17,22,36,2.24,0.0064,-0.4771,-0.2606,0.8392,0,0,0,-0.006,0.001,-0.004,1023
2018,5,17,22,36,2.258,0.0064,-0.4771,-0.2606,0.8392,0,0,0,-0.006,0.004,-0.002,1023
2018,5,17,22,36,2.295,0.0064,-0.4771,-0.2606,0.8392,0,0,0,-0.003,0.003,0,1023
2018,5,17,22,36,2.319,0.0064,-0.4771,-0.2606,0.8392,0,0,0,-0.002,0.001,-0.003,1023
2018,5,17,22,36,2.323,0.0064,-0.4771,-0.2606,0.8392,0,0,0,-0.005,-0.002,-0.002,1023
2018,5,17,22,36,2.341,0.0064,-0.4771,-0.2606,0.8392,0.6,0,0,-0.01,0.003,-0.001,1023
2018,5,17,22,36,2.376,0.0065,-0.4771,-0.2607,0.8392,0,0,0,-0.003,0.007,0.001,1023
2018,5,17,22,36,2.4,0.0064,-0.4771,-0.2607,0.8392,0,0,0,0,0.008,0,1023
2018,5,17,22,36,2.404,0.0064,-0.4771,-0.2606,0.8392,0,0,0,-0.004,0,-0.004,1023
2018,5,17,22,36,2.42,0.0064,-0.4771,-0.2606,0.8392,0,0,0,-0.01,-0.001,0,1023
2018,5,17,22,36,2.436,0.0064,-0.4771,-0.2607,0.8392,0,0,0,-0.009,0.002,-0.009,1023
2018,5,17,22,36,2.459,0.0064,-0.4771,-0.2607,0.8392,0,0,0,-0.001,0.004,-0.004,1023
2018,5,17,22,36,2.496,0.0064,-0.4771,-0.2607,0.8392,0,0,0,-0.001,0.002,0,1023
2018,5,17,22,36,2.519,0.0064,-0.4771,-0.2607,0.8392,0,0,0,-0.002,0,0.001,1023
2018,5,17,22,36,2.523,0.0064,-0.4771,-0.2606,0.8392,-0.5,0,0,-0.007,0,0,1023
2018,5,17,22,36,2.558,0.0064,-0.4771,-0.2606,0.8392,0,0,0,-0.003,0,-0.005,1023
2018,5,17,22,36,2.579,0.0064,-0.4771,-0.2606,0.8392,0,0,0,-0.004,0.001,-0.004,1023
2018,5,17,22,36,2.583,0.0064,-0.4771,-0.2606,0.8392,0,0,0,-0.006,0.004,-0.002,1023
2018,5,17,22,36,2.62,0.0064,-0.4771,-0.2606,0.8392,0,0,0,-0.004,0.006,-0.002,1023
2018,5,17,22,36,2.643,0.0063,-0.4771,-0.2606,0.8392,0,0,0,0,0.004,-0.002,1023
2018,5,17,22,36,2.647,0.0063,-0.4771,-0.2606,0.8392,-0.5,0.1,0.3,-0.002,0.002,0,1023
2018,5,17,22,36,2.666,0.0063,-0.4771,-0.2607,0.8392,0,0,0,-0.007,-0.005,-0.007,0
2018,5,17,22,36,2.684,0.0064,-0.4771,-0.2608,0.8392,0.5,-0.3,0,-0.009,-0.001,-0.002,0
2018,5,17,22,36,2.702,0.0064,-0.4771,-0.2608,0.8392,0,0,0,-0.002,0.004,-0.005,0
2018,5,17,22,36,2.719,0.0064,-0.4771,-0.2607,0.8392,0,0,0,0.003,0.003,-0.002,0
2018,5,17,22,36,2.742,0.0063,-0.4771,-0.2607,0.8392,0,0.5,0,-0.003,0.002,-0.003,0
2018,5,17,22,36,2.761,0.0063,-0.4771,-0.2607,0.8392,0,0,0,-0.009,0.001,-0.001,0
2018,5,17,22,36,2.784,0.0064,-0.477,-0.2607,0.8392,0,0,0,-0.011,-0.001,0.001,0
2018,5,17,22,36,2.82,0.0064,-0.477,-0.2607,0.8392,0,0,0,-0.004,0,-0.002,0
2018,5,17,22,36,2.844,0.0064,-0.477,-0.2607,0.8392,0,0,0,-0.002,0.008,-0.007,0
2018,5,17,22,36,2.847,0.0063,-0.477,-0.2607,0.8392,0,0,0,-0.006,0.006,-0.008,0
2018,5,17,22,36,2.863,0.0063,-0.477,-0.2607,0.8392,0,0,0,-0.008,0.001,-0.003,0
2018,5,17,22,36,2.886,0.0064,-0.477,-0.2607,0.8392,0,0,0,-0.003,-0.005,-0.001,0
2018,5,17,22,36,2.903,0.0064,-0.477,-0.2608,0.8392,0,0,0,-0.005,0,-0.005,0
2018,5,17,22,36,2.92,0.0064,-0.4771,-0.2608,0.8392,0.5,0,0,0,0.002,-0.009,0
2018,5,17,22,36,2.942,0.0064,-0.4771,-0.2606,0.8392,0.5,0.1,-0.1,-0.005,0.008,-0.007,0
2018,5,17,22,36,2.96,0.0063,-0.4771,-0.2604,0.8393,0,0,0,0,0.013,-0.002,0
2018,5,17,22,36,2.984,0.0063,-0.4771,-0.2604,0.8393,-0.5,0.5,0.2,-0.001,0.003,-0.001,0
2018,5,17,22,36,3.019,0.0063,-0.477,-0.2605,0.8393,0,0,0,-0.006,-0.003,0.001,0
2018,5,17,22,36,3.043,0.0063,-0.477,-0.2606,0.8393,0,0,0,-0.007,-0.002,-0.003,0
2018,5,17,22,36,3.048,0.0064,-0.477,-0.2606,0.8393,0,0,0,-0.006,0,0,0
2018,5,17,22,36,3.064,0.0064,-0.477,-0.2606,0.8393,0,0,0,-0.005,0.003,-0.002,0
2018,5,17,22,36,3.087,0.0064,-0.477,-0.2606,0.8393,0,0,0,-0.008,0.001,-0.003,1023
2018,5,17,22,36,3.104,0.0064,-0.477,-0.2606,0.8393,0,0,0,-0.007,-0.001,0.003,1023
2018,5,17,22,36,3.127,0.0064,-0.477,-0.2606,0.8393,0,0,0,-0.001,0.003,-0.004,1023
2018,5,17,22,36,3.143,0.0064,-0.477,-0.2606,0.8393,0,0,0,-0.003,0.002,-0.003,1023
2018,5,17,22,36,3.162,0.0064,-0.477,-0.2606,0.8392,0,0,0,-0.004,-0.002,-0.004,1023
2018,5,17,22,36,3.185,0.0064,-0.477,-0.2607,0.8392,0,0,0,-0.005,-0.001,0,1023
2018,5,17,22,36,3.22,0.0064,-0.477,-0.2607,0.8392,0,0,0,-0.007,0,0.002,1023
2018,5,17,22,36,3.243,0.0064,-0.477,-0.2607,0.8392,0,0,0,-0.002,0.003,-0.008,1023
2018,5,17,22,36,3.247,0.0064,-0.477,-0.2607,0.8392,0,0,0,-0.002,0.003,-0.005,1023
2018,5,17,22,36,3.266,0.0064,-0.477,-0.2607,0.8392,0,0,0,-0.003,0.001,-0.003,1023
2018,5,17,22,36,3.284,0.0064,-0.477,-0.2607,0.8392,-0.5,0.1,-0.1,-0.003,0,-0.003,1023
2018,5,17,22,36,3.308,0.0064,-0.477,-0.2607,0.8392,0,0,0,-0.003,0.001,0,1023
2018,5,17,22,36,3.343,0.0064,-0.477,-0.2607,0.8392,0,0,0,-0.005,0.001,-0.002,1023
2018,5,17,22,36,3.366,0.0064,-0.477,-0.2607,0.8392,0,0,0,-0.008,0.003,-0.003,1023
2018,5,17,22,36,3.371,0.0064,-0.4771,-0.2607,0.8392,0,0,0,-0.006,0.004,0,1023
2018,5,17,22,36,3.388,0.0064,-0.4771,-0.2607,0.8392,0,0,0,-0.001,0.004,0,1023
2018,5,17,22,36,3.411,0.0064,-0.4771,-0.2607,0.8392,0,0,0,-0.005,0.002,-0.006,1023
2018,5,17,22,36,3.447,0.0064,-0.4771,-0.2607,0.8392,0,0,0,-0.009,0.001,-0.005,1023
2018,5,17,22,36,3.47,0.0064,-0.4771,-0.2607,0.8392,0,0,0,-0.004,0,-0.004,1023
2018,5,17,22,36,3.475,0.0064,-0.4771,-0.2607,0.8392,0,0,0,0,0.003,-0.002,1023
2018,5,17,22,36,3.488,0.0064,-0.4771,-0.2607,0.8391,0,0,0,-0.002,0.005,0,1023
2018,5,17,22,36,3.525,0.0064,-0.4771,-0.2607,0.8392,0,0,0,-0.007,-0.002,0,1023
2018,5,17,22,36,3.547,0.0064,-0.4771,-0.2607,0.8392,0,0,0,-0.009,0.007,-0.009,0
2018,5,17,22,36,3.553,0.0064,-0.4771,-0.2607,0.8392,0,0,0,-0.003,0.005,-0.007,0
2018,5,17,22,36,3.571,0.0064,-0.4771,-0.2607,0.8391,0,0,0,-0.003,0.004,-0.004,0
2018,5,17,22,36,3.589,0.0064,-0.4771,-0.2607,0.8391,0,0,0,-0.004,0,-0.004,0
2018,5,17,22,36,3.613,0.0064,-0.4771,-0.2607,0.8392,0,0,0,-0.011,0,-0.003,0
2018,5,17,22,36,3.648,0.0064,-0.4771,-0.2608,0.8392,0,0,0,-0.007,0.003,-0.005,0
2018,5,17,22,36,3.648,0.0064,-0.4771,-0.2607,0.8391,0,0,0,0,0.003,-0.005,0
2018,5,17,22,36,3.671,0.0064,-0.4772,-0.2608,0.8391,0,0,0,0,0.001,-0.007,0
2018,5,17,22,36,3.69,0.0064,-0.4772,-0.2608,0.8391,0,0,0,-0.004,0,0.002,0
2018,5,17,22,36,3.714,0.0064,-0.4771,-0.2608,0.8391,0,0,0,-0.006,0.001,0.002,0
2018,5,17,22,36,3.73,0.0064,-0.4771,-0.2608,0.8391,0,0,0,-0.005,0.002,-0.002,0
2018,5,17,22,36,3.748,0.0064,-0.4772,-0.2608,0.8391,0,0,0,-0.002,0.005,-0.012,0
2018,5,17,22,36,3.771,0.0064,-0.4771,-0.2609,0.8391,0,0.5,0.2,-0.01,0.007,-0.003,0
2018,5,17,22,36,3.807,0.0064,-0.477,-0.261,0.8391,0,0,0,-0.012,-0.001,-0.004,0
2018,5,17,22,36,3.83,0.0064,-0.477,-0.261,0.8391,0,0,0,-0.003,-0.001,-0.004,0
2018,5,17,22,36,3.834,0.0065,-0.477,-0.2611,0.8391,0.1,-0.5,0,-0.005,-0.001,-0.008,0
2018,5,17,22,36,3.849,0.0065,-0.4771,-0.2612,0.839,0.3,-0.5,-0.2,-0.002,0.002,-0.004,0
2018,5,17,22,36,3.872,0.0065,-0.4772,-0.2612,0.839,0.5,0,-0.3,-0.004,0.006,0,0
2018,5,17,22,36,3.893,0.0064,-0.4772,-0.2611,0.839,0,0.5,-0.2,-0.001,0.012,-0.002,0
2018,5,17,22,36,3.91,0.0064,-0.4772,-0.2611,0.839,0,0,0,-0.002,0.008,0.002,0
2018,5,17,22,36,3.947,0.0064,-0.4772,-0.2612,0.839,-0.5,0,0.3,-0.008,0.001,0,0
2018,5,17,22,36,3.969,0.0064,-0.4771,-0.2613,0.839,0,0,0,-0.008,-0.001,-0.002,0
2018,5,17,22,36,3.974,0.0065,-0.4771,-0.2613,0.839,0,0,0,-0.007,-0.004,-0.006,0
2018,5,17,22,36,3.991,0.0065,-0.4771,-0.2614,0.839,0,0,0,-0.001,0,-0.005,1023
2018,5,17,22,36,4.027,0.0065,-0.4771,-0.2614,0.839,0,0,0,-0.012,0,-0.004,1023
2018,5,17,22,36,4.05,0.0065,-0.4771,-0.2614,0.839,0,0,0,-0.009,0.006,0,1023
2018,5,17,22,36,4.055,0.0065,-0.4771,-0.2613,0.839,0,0,0,-0.005,0.006,-0.002,1023
2018,5,17,22,36,4.073,0.0064,-0.4771,-0.2613,0.839,0,0,0,-0.006,0.005,-0.003,1023
2018,5,17,22,36,4.109,0.0064,-0.4771,-0.2613,0.839,0,0,0,-0.006,0.001,-0.001,1023
2018,5,17,22,36,4.132,0.0064,-0.4771,-0.2613,0.839,0,0,0,-0.004,0,-0.007,1023
2018,5,17,22,36,4.137,0.0064,-0.4771,-0.2613,0.839,0,0,0,-0.008,0,-0.003,1023
2018,5,17,22,36,4.171,0.0064,-0.4771,-0.2613,0.839,0,0,0,-0.006,0.004,-0.004,1023
2018,5,17,22,36,4.195,0.0064,-0.4771,-0.2613,0.839,0,0,0,-0.004,0.007,0,1023
2018,5,17,22,36,4.199,0.0064,-0.4772,-0.2612,0.839,0,0,0,-0.003,0.007,-0.004,1023
2018,5,17,22,36,4.213,0.0064,-0.4772,-0.2612,0.839,0,0,0,-0.004,0.005,-0.004,1023
2018,5,17,22,36,4.232,0.0064,-0.4772,-0.2612,0.839,0,0,0,-0.009,0.007,-0.005,1023
2018,5,17,22,36,4.256,0.0063,-0.4772,-0.2612,0.839,0,0,0,-0.01,0.005,-0.005,1023
2018,5,17,22,36,4.291,0.0063,-0.4772,-0.2612,0.839,0,0,0,-0.003,0.004,-0.007,1023
2018,5,17,22,36,4.291,0.0063,-0.4772,-0.2612,0.8389,0,0,0,0,0.001,-0.005,1023
2018,5,17,22,36,4.316,0.0063,-0.4773,-0.2612,0.8389,0,0,0,-0.004,-0.001,0,1023
2018,5,17,22,36,4.333,0.0064,-0.4772,-0.2612,0.8389,0,0,0,-0.007,0.001,0,1023
2018,5,17,22,36,4.354,0.0064,-0.4773,-0.2611,0.839,0,0,0,-0.006,0.008,-0.005,1023
2018,5,17,22,36,4.39,0.0063,-0.4773,-0.261,0.839,0,0,0,-0.003,0.007,-0.006,1023
2018,5,17,22,36,4.41,0.0063,-0.4773,-0.261,0.839,0,0,0,-0.004,0.002,0,1023
2018,5,17,22,36,4.416,0.0063,-0.4773,-0.261,0.839,0,0,0,-0.004,0.004,0.002,1023
2018,5,17,22,36,4.452,0.0063,-0.4773,-0.2609,0.839,0,0,0,-0.002,0.002,0,0
2018,5,17,22,36,4.476,0.0063,-0.4773,-0.2609,0.839,0,0,0,-0.004,0.002,-0.004,0
2018,5,17,22,36,4.479,0.0063,-0.4773,-0.261,0.839,0,0,0,-0.007,-0.001,-0.005,0
2018,5,17,22,36,4.495,0.0063,-0.4773,-0.261,0.839,0,0,0,-0.009,0.003,0,0
2018,5,17,22,36,4.531,0.0063,-0.4773,-0.2609,0.839,0,0,0,-0.005,0.007,-0.001,0
2018,5,17,22,36,4.554,0.0063,-0.4773,-0.2609,0.839,0,0,0,-0.007,0.001,-0.002,0
2018,5,17,22,36,4.559,0.0063,-0.4773,-0.2609,0.839,0,0,0,-0.005,0.002,-0.004,0
2018,5,17,22,36,4.577,0.0063,-0.4773,-0.261,0.839,-0.1,0,0.5,-0.002,0,-0.003,0
2018,5,17,22,36,4.614,0.0063,-0.4773,-0.261,0.839,0,0,0,-0.004,-0.003,0.003,0
2018,5,17,22,36,4.636,0.0063,-0.4773,-0.2611,0.839,0,0,0,-0.004,0.002,-0.003,0
2018,5,17,22,36,4.641,0.0063,-0.4773,-0.2608,0.839,0,0,0,-0.008,0.005,-0.007,0
2018,5,17,22,36,4.66,0.0063,-0.4772,-0.2609,0.8391,0,0,0,-0.012,0.005,-0.001,0
2018,5,17,22,36,4.679,0.0063,-0.4772,-0.2609,0.839,0,0,0,-0.009,0,-0.007,0
2018,5,17,22,36,4.698,0.0063,-0.4772,-0.2609,0.839,0,-0.5,0.3,-0.005,-0.002,0,0
2018,5,17,22,36,4.719,0.0065,-0.4773,-0.2612,0.8389,0,-0.6,0,-0.005,-0.003,0.001,0
2018,5,17,22,36,4.737,0.0065,-0.4774,-0.2611,0.8389,0.2,-0.5,-0.2,-0.001,0.005,-0.004,0
2018,5,17,22,36,4.774,0.0064,-0.4775,-0.2611,0.8389,0,0,0,0.004,0.012,-0.001,0
2018,5,17,22,36,4.797,0.0064,-0.4774,-0.261,0.8389,-0.3,0.5,0.3,-0.002,0.007,-0.005,0
2018,5,17,22,36,4.802,0.0064,-0.4773,-0.261,0.8389,-0.1,0.4,0.6,-0.013,0,0.001,0
2018,5,17,22,36,4.816,0.0064,-0.4773,-0.261,0.839,0,0,0,-0.011,-0.002,-0.001,0
2018,5,17,22,36,4.839,0.0065,-0.4772,-0.2611,0.839,0,0,0,-0.009,-0.001,-0.004,0
2018,5,17,22,36,4.861,0.0065,-0.4773,-0.2611,0.839,-0.1,-0.5,0,-0.007,0.006,-0.007,0
2018,5,17,22,36,4.879,0.0065,-0.4773,-0.2611,0.8389,-0.5,-0.3,0.3,-0.003,0.002,-0.006,0
2018,5,17,22,36,4.902,0.0065,-0.4773,-0.2612,0.8389,-0.5,-0.6,0.3,-0.005,0.001,0.001,1023
2018,5,17,22,36,4.919,0.0066,-0.4773,-0.2615,0.8388,-0.6,-0.6,0.3,0,0,0,1023
2018,5,17,22,36,4.941,0.0066,-0.4774,-0.2617,0.8387,-0.5,-0.2,0.1,0,0.002,-0.009,1023
2018,5,17,22,36,4.958,0.0065,-0.4774,-0.2618,0.8386,-0.5,0.1,0.2,0,0,-0.003,1023
2018,5,17,22,36,4.995,0.0066,-0.4774,-0.2618,0.8386,0,0,0,-0.003,-0.004,0.002,1023
2018,5,17,22,36,5.019,0.0066,-0.4774,-0.2619,0.8386,0,0,0,-0.001,0,-0.004,1023
2018,5,17,22,36,5.023,0.0066,-0.4774,-0.2619,0.8386,0,0,0,-0.002,0.002,-0.005,1023
2018,5,17,22,36,5.039,0.0066,-0.4774,-0.2618,0.8387,0,0,0,-0.003,0.004,-0.005,1023
2018,5,17,22,36,5.059,0.0066,-0.4774,-0.2617,0.8387,0,0,0,-0.006,0.009,-0.003,1023
2018,5,17,22,36,5.082,0.0065,-0.4774,-0.2617,0.8387,-0.5,0,0,-0.007,0.002,-0.002,1023
2018,5,17,22,36,5.099,0.0065,-0.4774,-0.2618,0.8386,0,0,0,-0.004,0.002,-0.004,1023
2018,5,17,22,36,5.12,0.0065,-0.4774,-0.2619,0.8386,0,0,0,-0.007,0,-0.005,1023
2018,5,17,22,36,5.14,0.0065,-0.4774,-0.2619,0.8386,0,0,0,-0.007,0.001,-0.002,1023
2018,5,17,22,36,5.163,0.0065,-0.4774,-0.2619,0.8386,-0.2,-0.5,-0.1,-0.007,0.004,-0.006,1023
2018,5,17,22,36,5.18,0.0065,-0.4774,-0.2619,0.8386,0,0,0,-0.002,0.003,-0.01,1023
2018,5,17,22,36,5.204,0.0065,-0.4775,-0.2619,0.8386,0,0,0,-0.003,0.001,-0.002,1023
2018,5,17,22,36,5.241,0.0065,-0.4775,-0.2619,0.8386,0,0,0,-0.006,-0.001,0,1023
2018,5,17,22,36,5.265,0.0065,-0.4775,-0.2619,0.8386,0,0,0,-0.005,0.004,-0.001,1023
2018,5,17,22,36,5.269,0.0065,-0.4775,-0.2619,0.8386,0,0,0,-0.004,0.005,-0.002,1023
2018,5,17,22,36,5.281,0.0065,-0.4775,-0.2619,0.8386,0,0,0,0,0.005,-0.008,1023
2018,5,17,22,36,5.317,0.0065,-0.4775,-0.2619,0.8386,0,0,0,-0.005,0,-0.004,1023
2018,5,17,22,36,5.34,0.0065,-0.4775,-0.2619,0.8386,0,0,0,-0.008,0,-0.004,1023
2018,5,17,22,36,5.345,0.0065,-0.4775,-0.2619,0.8386,0,0,0,-0.002,0.003,-0.003,0
2018,5,17,22,36,5.381,0.0065,-0.4775,-0.2619,0.8386,0,0,0,-0.002,0.006,-0.006,0
2018,5,17,22,36,5.404,0.0064,-0.4776,-0.2619,0.8386,-0.5,0,0,-0.002,0.002,-0.002,0
2018,5,17,22,36,5.408,0.0065,-0.4775,-0.262,0.8385,0,0,0,-0.005,-0.003,0,0
2018,5,17,22,36,5.425,0.0065,-0.4775,-0.262,0.8385,0,0,0,-0.009,0,0,0
2018,5,17,22,36,5.461,0.0065,-0.4775,-0.262,0.8385,0,0,0,-0.003,0.004,-0.003,0
2018,5,17,22,36,5.484,0.0065,-0.4775,-0.262,0.8385,0,0,0,-0.005,0.002,-0.005,0
2018,5,17,22,36,5.489,0.0065,-0.4775,-0.262,0.8385,0,0,0,-0.001,0.004,-0.001,0
2018,5,17,22,36,5.504,0.0065,-0.4775,-0.262,0.8385,-0.5,0,0.2,-0.008,0.001,0.006,0
2018,5,17,22,36,5.521,0.0065,-0.4775,-0.2621,0.8385,0,0,0,-0.004,0,-0.004,0
2018,5,17,22,36,5.544,0.0065,-0.4775,-0.2621,0.8385,0,0,0,0,0.004,-0.003,0
2018,5,17,22,36,5.58,0.0065,-0.4775,-0.2621,0.8385,0,0,0,-0.007,0.006,-0.004,0
2018,5,17,22,36,5.602,0.0064,-0.4775,-0.2621,0.8385,-0.5,0,0,-0.008,0,-0.004,0
2018,5,17,22,36,5.607,0.0064,-0.4775,-0.2622,0.8385,0,0,0,-0.009,-0.006,-0.006,0
2018,5,17,22,36,5.625,0.0065,-0.4776,-0.262,0.8385,0.3,-0.7,-0.2,-0.004,-0.002,-0.004,0
2018,5,17,22,36,5.648,0.0065,-0.4777,-0.2618,0.8384,0.5,-0.3,-0.2,0,0.004,-0.002,0
2018,5,17,22,36,5.666,0.0065,-0.4778,-0.2619,0.8384,0,0,0,-0.002,0.006,0.003,0
2018,5,17,22,36,5.685,0.0065,-0.4778,-0.2618,0.8384,0,0,0,0,0.016,0.001,0
2018,5,17,22,36,5.708,0.0064,-0.4778,-0.2619,0.8384,-1,0.5,0.2,0,0.006,-0.006,0
2018,5,17,22,36,5.724,0.0064,-0.4778,-0.2622,0.8383,0,0,0,-0.003,-0.004,-0.004,0
2018,5,17,22,36,5.742,0.0065,-0.4777,-0.2622,0.8383,0,0,0,-0.008,-0.004,-0.004,1023
2018,5,17,22,36,5.765,0.0065,-0.4777,-0.2622,0.8383,0,0,0,-0.006,0,0,1023
2018,5,17,22,36,5.801,0.0065,-0.4777,-0.2623,0.8383,0,0,0,-0.003,-0.001,0,1023
2018,5,17,22,36,5.824,0.0065,-0.4777,-0.2623,0.8383,0,0,0,-0.006,0.002,-0.002,1023
2018,5,17,22,36,5.828,0.0065,-0.4777,-0.2623,0.8383,0,0,0,-0.008,0.002,0,1023
2018,5,17,22,36,5.846,0.0065,-0.4777,-0.2623,0.8383,0,0,0,-0.004,0,-0.003,1023
2018,5,17,22,36,5.884,0.0065,-0.4777,-0.2623,0.8383,0,0,0,0,0.004,-0.004,1023
2018,5,17,22,36,5.908,0.0065,-0.4777,-0.2623,0.8383,0,0,0,-0.007,0.001,0.001,1023
2018,5,17,22,36,5.914,0.0065,-0.4777,-0.2623,0.8383,0,0,0,-0.006,-0.001,0.001,1023
2018,5,17,22,36,5.93,0.0065,-0.4777,-0.2623,0.8384,0,0,0,-0.004,0,-0.001,1023
2018,5,17,22,36,5.965,0.0065,-0.4777,-0.2623,0.8384,0,0,0,0,0,-0.001,1023
2018,5,17,22,36,5.989,0.0065,-0.4777,-0.2622,0.8384,0,0,0,0,0.001,-0.002,1023
2018,5,17,22,36,5.993,0.0065,-0.4777,-0.2622,0.8383,0,0,0,-0.002,0.006,-0.004,1023
2018,5,17,22,36,6.01,0.0065,-0.4777,-0.2622,0.8384,0,0,0,-0.006,0.006,-0.005,1023
2018,5,17,22,36,6.047,0.0065,-0.4777,-0.2622,0.8384,0,0,0,-0.007,0.001,-0.004,1023
2018,5,17,22,36,6.047,0.0064,-0.4777,-0.2622,0.8383,0,0,0,-0.008,0.002,-0.007,1023
2018,5,17,22,36,6.071,0.0064,-0.4778,-0.2622,0.8383,0,0,0,-0.005,0.003,-0.003,1023
2018,5,17,22,36,6.088,0.0064,-0.4778,-0.2622,0.8383,0,0,0,-0.006,0.001,-0.006,1023
2018,5,17,22,36,6.124,0.0065,-0.4778,-0.2622,0.8383,0,0,0,-0.004,0.001,-0.003,1023
2018,5,17,22,36,6.147,0.0065,-0.4778,-0.2622,0.8383,0,0,0,-0.001,0,-0.003,1023
2018,5,17,22,36,6.152,0.0064,-0.4778,-0.2622,0.8383,0,0,0,-0.001,-0.001,-0.001,1023
2018,5,17,22,36,6.17,0.0064,-0.4778,-0.2622,0.8383,0,0,0,-0.002,0.002,-0.006,1023
2018,5,17,22,36,6.207,0.0064,-0.4778,-0.2622,0.8383,0,0,0,-0.004,0.004,-0.001,0
2018,5,17,22,36,6.23,0.0064,-0.4778,-0.2622,0.8383,0.2,0.6,0,-0.007,0.006,-0.002,0
2018,5,17,22,36,6.234,0.0064,-0.4778,-0.2622,0.8383,0,0,0,-0.007,0.002,-0.001,0
2018,5,17,22,36,6.253,0.0064,-0.4778,-0.2622,0.8383,0,0,0,-0.005,0.003,-0.005,0
2018,5,17,22,36,6.287,0.0064,-0.4778,-0.2622,0.8383,0,0,0,-0.005,0.004,0,0
2018,5,17,22,36,6.311,0.0064,-0.4778,-0.2622,0.8383,0,0,0,-0.006,0.004,-0.003,0
2018,5,17,22,36,6.314,0.0064,-0.4777,-0.2622,0.8383,0,0,0,-0.009,0.007,-0.002,0
2018,5,17,22,36,6.33,0.0064,-0.4778,-0.2622,0.8383,0,0,0,-0.003,0.008,-0.003,0
2018,5,17,22,36,6.366,0.0064,-0.4778,-0.2622,0.8383,0,0,0,-0.005,0.003,-0.001,0
2018,5,17,22,36,6.389,0.0064,-0.4778,-0.2623,0.8383,0,0,0,-0.005,-0.001,-0.009,0
2018,5,17,22,36,6.393,0.0064,-0.4778,-0.2622,0.8383,0,0,0,-0.005,0.007,0.001,0
2018,5,17,22,36,6.41,0.0064,-0.4778,-0.2622,0.8383,0,0,0,-0.004,0.004,0,0
2018,5,17,22,36,6.433,0.0064,-0.4777,-0.2622,0.8383,0,0,0,-0.007,0.002,-0.006,0
2018,5,17,22,36,6.475,0.0064,-0.4778,-0.2621,0.8383,0.5,0.3,-0.2,-0.007,0.007,-0.009,0
2018,5,17,22,36,6.477,0.0063,-0.4778,-0.2621,0.8384,0,0,0,-0.009,0.009,-0.005,0
2018,5,17,22,36,6.494,0.0063,-0.4778,-0.2623,0.8383,-0.6,-0.3,-0.3,-0.006,0.001,-0.004,0
2018,5,17,22,36,6.525,0.0063,-0.4778,-0.2625,0.8382,0,-0.6,-0.1,-0.008,-0.001,-0.009,0
2018,5,17,22,36,6.547,0.0063,-0.478,-0.2623,0.8382,0.5,-0.8,-0.2,-0.005,0,-0.002,0
2018,5,17,22,36,6.552,0.0063,-0.4781,-0.2623,0.8381,0.2,-0.5,-0.5,-0.002,0.007,-0.007,0
2018,5,17,22,36,6.57,0.0062,-0.4782,-0.2622,0.8381,0,0,0,0,0.013,-0.004,0
2018,5,17,22,36,6.593,0.0062,-0.4782,-0.2622,0.8381,-0.3,0.6,0.5,0,0.005,0.001,0
2018,5,17,22,36,6.61,0.0062,-0.478,-0.2623,0.8381,0,0.5,0.8,-0.006,-0.001,0,0
2018,5,17,22,36,6.634,0.0063,-0.4779,-0.2624,0.8382,0,0,0,-0.009,-0.001,0.003,0
2018,5,17,22,36,6.67,0.0063,-0.4779,-0.2624,0.8382,0,0,0,-0.008,0.003,-0.005,1023
2018,5,17,22,36,6.694,0.0063,-0.4779,-0.2624,0.8382,0,0,0,-0.005,0.006,-0.005,1023
2018,5,17,22,36,6.698,0.0063,-0.478,-0.2624,0.8382,0,0,0,-0.005,0.001,-0.002,1023
2018,5,17,22,36,6.714,0.0063,-0.4779,-0.2624,0.8382,0,0,0,-0.007,0,0,1023
2018,5,17,22,36,6.737,0.0063,-0.4779,-0.2624,0.8382,0,0,0,-0.007,0.001,-0.003,1023
2018,5,17,22,36,6.753,0.0063,-0.4779,-0.2624,0.8382,0,0,0,-0.002,0.004,-0.001,1023
2018,5,17,22,36,6.777,0.0063,-0.4779,-0.2624,0.8382,0,0,0,-0.001,0.006,-0.004,1023
2018,5,17,22,36,6.793,0.0063,-0.4779,-0.2623,0.8382,0,0,0,-0.003,0.002,0.003,1023
2018,5,17,22,36,6.811,0.0063,-0.4779,-0.2623,0.8382,0,0,0,-0.008,0,0,1023
2018,5,17,22,36,6.834,0.0063,-0.4778,-0.2624,0.8382,0,0,0,-0.007,0.002,-0.009,1023
2018,5,17,22,36,6.851,0.0063,-0.4779,-0.2623,0.8382,0,0,0,0.001,0.005,0,1023
2018,5,17,22,36,6.874,0.0063,-0.4779,-0.2623,0.8382,0,0,0,-0.003,0.006,-0.001,1023
2018,5,17,22,36,6.895,0.0062,-0.4779,-0.2623,0.8382,0,0,0,-0.006,0.006,-0.003,1023
2018,5,17,22,36,6.918,0.0062,-0.4779,-0.2623,0.8382,-0.5,-0.2,0,-0.01,0.006,-0.004,1023
2018,5,17,22,36,6.934,0.0062,-0.4779,-0.2624,0.8382,0,0,0,-0.007,0.003,-0.004,1023
2018,5,17,22,36,6.958,0.0062,-0.4779,-0.2624,0.8382,0,0,0,-0.006,0.003,0,1023
2018,5,17,22,36,6.975,0.0062,-0.4779,-0.2624,0.8382,0,0,0,-0.009,0.003,0,1023
2018,5,17,22,36,6.998,0.0062,-0.4779,-0.2624,0.8382,0,0,0,-0.004,0.002,0.002,1023
2018,5,17,22,36,7.035,0.0062,-0.4779,-0.2623,0.8382,0,0,0,-0.005,0.008,-0.007,1023
2018,5,17,22,36,7.059,0.0062,-0.4779,-0.2623,0.8382,0,0,0,0,0.001,-0.009,1023
2018,5,17,22,36,7.062,0.0062,-0.4779,-0.2623,0.8382,0,0,0,-0.005,0.001,-0.002,1023
2018,5,17,22,36,7.081,0.0062,-0.4779,-0.2623,0.8382,0,0,0,-0.007,0.002,0.003,1023
2018,5,17,22,36,7.096,0.0062,-0.4779,-0.2623,0.8382,0,0,0,-0.006,0.004,-0.003,0
2018,5,17,22,36,7.113,0.0062,-0.4779,-0.2623,0.8382,0,0,0,-0.001,0.006,-0.004,0
2018,5,17,22,36,7.137,0.0062,-0.478,-0.2623,0.8382,0,0,0,-0.004,0,-0.004,0
2018,5,17,22,36,7.171,0.0062,-0.4779,-0.2623,0.8382,0,0,0,-0.006,0,-0.004,0
2018,5,17,22,36,7.194,0.0062,-0.4779,-0.2623,0.8382,0,0,0,-0.005,0,-0.002,0
2018,5,17,22,36,7.198,0.0062,-0.4779,-0.2622,0.8382,0,0,0,-0.006,0.006,0,0
2018,5,17,22,36,7.234,0.0061,-0.4779,-0.2622,0.8382,0,0,0,-0.004,0,-0.002,0
2018,5,17,22,36,7.257,0.0062,-0.4779,-0.2623,0.8382,0,0,0,-0.006,0.001,-0.005,0
2018,5,17,22,36,7.262,0.0061,-0.4779,-0.2623,0.8382,0,0,0,-0.005,0.002,0,0
2018,5,17,22,36,7.279,0.0062,-0.4779,-0.2625,0.8382,0,0,0,-0.005,-0.003,0.003,0
2018,5,17,22,36,7.302,0.0062,-0.4778,-0.2626,0.8382,0,0,0,-0.006,0,-0.006,0
2018,5,17,22,36,7.316,0.0062,-0.4778,-0.2625,0.8382,0,0,0,-0.007,0.008,-0.006,0
2018,5,17,22,36,7.338,0.0062,-0.4778,-0.2625,0.8382,0,0,0,-0.005,0.005,-0.003,0
2018,5,17,22,36,7.355,0.0062,-0.4779,-0.2625,0.8382,0,0,0,-0.007,-0.002,-0.006,0
2018,5,17,22,36,7.378,0.0062,-0.4778,-0.2625,0.8382,0.2,-0.5,0.5,-0.006,-0.004,0.001,0
2018,5,17,22,36,7.398,0.0063,-0.4779,-0.2627,0.8381,0,-0.7,0,-0.003,0,-0.009,0
2018,5,17,22,36,7.417,0.0063,-0.478,-0.2627,0.8381,0,0,0,0,0.005,-0.008,0
2018,5,17,22,36,7.44,0.0063,-0.478,-0.2626,0.8381,0.5,0.1,-0.1,0,0.01,-0.004,0
2018,5,17,22,36,7.461,0.0063,-0.4781,-0.2624,0.8381,0,0,0,-0.003,0.008,0,0
2018,5,17,22,36,7.478,0.0062,-0.478,-0.2624,0.8381,-0.5,0.3,0.3,-0.003,0,-0.003,0
2018,5,17,22,36,7.502,0.0062,-0.478,-0.2624,0.8381,0,0,0,-0.005,0,-0.003,0
2018,5,17,22,36,7.518,0.0063,-0.478,-0.2625,0.8381,0,0,0,-0.006,-0.001,-0.003,0
2018,5,17,22,36,7.553,0.0063,-0.478,-0.2625,0.8381,0,0,0,-0.006,0,-0.003,1023
2018,5,17,22,36,7.577,0.0063,-0.478,-0.2625,0.8381,0,0,0,-0.006,0.001,-0.003,1023
2018,5,17,22,36,7.581,0.0063,-0.478,-0.2625,0.8381,0,0,0,-0.006,0,-0.002,1023
2018,5,17,22,36,7.597,0.0063,-0.478,-0.2625,0.8381,0,0,0,-0.008,0.003,-0.002,1023
2018,5,17,22,36,7.619,0.0063,-0.478,-0.2625,0.8381,0,0,0,-0.001,0.004,-0.005,1023
2018,5,17,22,36,7.657,0.0063,-0.478,-0.2625,0.8381,0,0,0,-0.005,0.005,-0.004,1023
2018,5,17,22,36,7.679,0.0063,-0.478,-0.2625,0.8381,0,0,0,-0.004,0.002,0.006,1023
2018,5,17,22,36,7.682,0.0063,-0.478,-0.2625,0.8381,0,0,0,-0.006,0,0,1023
2018,5,17,22,36,7.701,0.0063,-0.478,-0.2625,0.8381,0,0,0,-0.004,-0.002,0.001,1023
2018,5,17,22,36,7.723,0.0063,-0.4779,-0.2625,0.8381,0,0,0,-0.003,0.002,0.001,1023
2018,5,17,22,36,7.741,0.0063,-0.4779,-0.2625,0.8381,0,0,0,-0.003,0.004,-0.003,1023
2018,5,17,22,36,7.764,0.0063,-0.478,-0.2625,0.8381,0,0,0,-0.002,0.002,-0.002,1023
2018,5,17,22,36,7.802,0.0063,-0.478,-0.2625,0.8381,0,0,0,-0.006,0.004,0,1023
2018,5,17,22,36,7.802,0.0063,-0.478,-0.2625,0.8381,0,0,0,-0.008,0.003,-0.004,1023
2018,5,17,22,36,7.825,0.0063,-0.478,-0.2625,0.8381,0,0,0,-0.006,0.002,-0.004,1023
2018,5,17,22,36,7.846,0.0063,-0.478,-0.2625,0.8381,0,0,0,-0.006,0,-0.008,1023
2018,5,17,22,36,7.861,0.0063,-0.478,-0.2625,0.8381,0,0,0,-0.006,0.002,-0.003,1023
2018,5,17,22,36,7.898,0.0063,-0.478,-0.2625,0.8381,0,0,0,-0.004,0.003,-0.006,1023
2018,5,17,22,36,7.921,0.0063,-0.478,-0.2625,0.8381,0,0,0,-0.002,0.002,-0.007,1023
2018,5,17,22,36,7.925,0.0062,-0.4781,-0.2625,0.8381,0,0,0,-0.004,0.002,-0.003,1023
2018,5,17,22,36,7.945,0.0062,-0.4781,-0.2625,0.8381,0,0,0,-0.005,0,-0.003,1023
2018,5,17,22,36,7.98,0.0063,-0.4781,-0.2625,0.8381,0,0,0,-0.005,0.002,0.003,1023
2018,5,17,22,36,8.003,0.0063,-0.478,-0.2625,0.8381,0,0,0,-0.008,0.004,0.001,1023
2018,5,17,22,36,8.008,0.0062,-0.478,-0.2624,0.8381,0,0,0,-0.005,0.01,-0.003,1023
2018,5,17,22,36,8.025,0.0062,-0.478,-0.2625,0.8381,0,0,0,-0.002,0.003,-0.011,0
2018,5,17,22,36,8.049,0.0062,-0.478,-0.2626,0.838,0,0,0,-0.003,-0.001,0,0
2018,5,17,22,36,8.084,0.0063,-0.478,-0.2626,0.838,0,0,0,-0.004,-0.002,-0.002,0
2018,5,17,22,36,8.105,0.0063,-0.478,-0.2627,0.8381,0,0,0,0,-0.001,-0.006,0
2018,5,17,22,36,8.11,0.0063,-0.478,-0.2627,0.838,0,0,0,-0.002,0.005,-0.007,0
2018,5,17,22,36,8.126,0.0062,-0.478,-0.2626,0.838,0,0,0,-0.007,0.006,-0.001,0
2018,5,17,22,36,8.143,0.0062,-0.478,-0.2626,0.838,0,0,0,-0.011,0,-0.005,0
2018,5,17,22,36,8.167,0.0063,-0.478,-0.2626,0.838,0,0,0,-0.006,0.005,-0.005,0
2018,5,17,22,36,8.202,0.0062,-0.478,-0.2627,0.838,-0.8,-0.2,0,0,0.005,0.001,0
2018,5,17,22,36,8.225,0.0061,-0.4781,-0.2627,0.838,-0.9,-0.4,0,-0.001,-0.002,-0.005,0
2018,5,17,22,36,8.227,0.0062,-0.4782,-0.2628,0.8379,0,0,0,-0.004,-0.004,-0.005,0
2018,5,17,22,36,8.244,0.0062,-0.4782,-0.2628,0.8379,0,0,0,-0.008,0.001,0,0
2018,5,17,22,36,8.265,0.0062,-0.4782,-0.2628,0.8379,0,0,0,-0.008,0.004,-0.002,0
2018,5,17,22,36,8.302,0.0061,-0.4782,-0.2628,0.8379,0,0,0,-0.001,0.002,-0.002,0
2018,5,17,22,36,8.326,0.0062,-0.4782,-0.2628,0.8379,0,0,0,-0.004,-0.003,-0.002,0
2018,5,17,22,36,8.329,0.0062,-0.4782,-0.2629,0.8378,0.5,-0.5,-0.2,-0.009,0.002,-0.002,0
2018,5,17,22,36,8.346,0.0063,-0.4783,-0.2628,0.8378,0.5,-0.5,-0.4,-0.006,0.002,-0.002,0
2018,5,17,22,36,8.363,0.0062,-0.4784,-0.2626,0.8378,0,0,0,0.004,0.016,-0.001,0
2018,5,17,22,36,8.386,0.0061,-0.4785,-0.2626,0.8378,-0.6,0.3,0.2,-0.001,0.007,-0.003,1023
2018,5,17,22,36,8.424,0.0061,-0.4784,-0.2627,0.8378,-0.2,0.3,0.5,-0.007,0,0,1023
2018,5,17,22,36,8.446,0.0062,-0.4783,-0.2628,0.8378,0,0,0,-0.007,-0.001,0,1023
2018,5,17,22,36,8.451,0.0062,-0.4783,-0.2628,0.8378,-0.5,-0.1,0,-0.004,-0.001,-0.002,1023
2018,5,17,22,36,8.484,0.0062,-0.4783,-0.2629,0.8378,0,0,0,-0.001,0,-0.005,1023
2018,5,17,22,36,8.506,0.0062,-0.4783,-0.2629,0.8378,0,0,0,-0.008,0,-0.003,1023
2018,5,17,22,36,8.51,0.0062,-0.4783,-0.2629,0.8378,0,0,0,-0.01,0.002,-0.003,1023
2018,5,17,22,36,8.529,0.0062,-0.4783,-0.2629,0.8378,0,0,0,-0.003,0.007,-0.004,1023
2018,5,17,22,36,8.549,0.0061,-0.4783,-0.2628,0.8378,0,0,0,0,0.008,-0.002,1023
2018,5,17,22,36,8.567,0.0061,-0.4783,-0.2628,0.8378,0,0,0,-0.005,0.002,-0.003,1023
2018,5,17,22,36,8.59,0.0061,-0.4783,-0.2628,0.8378,0,0,0,-0.007,-0.001,-0.001,1023
2018,5,17,22,36,8.609,0.0062,-0.4783,-0.2629,0.8378,0,0,0,-0.007,0.001,-0.002,1023
2018,5,17,22,36,8.632,0.0062,-0.4783,-0.2629,0.8378,0,0,0,0.001,0.001,-0.003,1023
2018,5,17,22,36,8.65,0.0061,-0.4783,-0.2629,0.8378,0,0,0,-0.001,0.004,-0.007,1023
2018,5,17,22,36,8.666,0.0061,-0.4784,-0.2628,0.8378,0,0,0,-0.005,0.003,0,1023
2018,5,17,22,36,8.689,0.0061,-0.4783,-0.2628,0.8378,0,0,0,-0.008,0.006,0,1023
2018,5,17,22,36,8.708,0.0061,-0.4783,-0.2628,0.8378,0,0.2,-0.5,-0.005,0.005,0,1023
2018,5,17,22,36,8.728,0.0061,-0.4784,-0.2628,0.8378,0,0,0,-0.005,0.006,-0.005,0
2018,5,17,22,36,8.766,0.0061,-0.4784,-0.2628,0.8378,0,0,0,-0.005,0.004,-0.004,0
2018,5,17,22,36,8.789,0.0061,-0.4784,-0.2627,0.8378,0,0,0,-0.006,0.003,0,0
2018,5,17,22,36,8.794,0.006,-0.4784,-0.2628,0.8378,0,0,0,-0.005,0.002,-0.006,0
2018,5,17,22,36,8.811,0.006,-0.4784,-0.2628,0.8378,0,0,0,-0.003,0,-0.006,0
2018,5,17,22,36,8.83,0.006,-0.4785,-0.2628,0.8377,0,0,0,-0.005,0,-0.007,0
2018,5,17,22,36,8.854,0.0061,-0.4785,-0.2629,0.8377,0,0,0,-0.005,0.001,-0.001,0
2018,5,17,22,36,8.891,0.006,-0.4785,-0.2628,0.8377,0,0,0,-0.003,0.005,-0.004,0
2018,5,17,22,36,8.891,0.006,-0.4785,-0.2628,0.8377,0,0,0,0,0.006,-0.003,0
2018,5,17,22,36,8.913,0.006,-0.4785,-0.2628,0.8377,0,0,0,-0.006,0.005,-0.002,0
2018,5,17,22,36,8.931,0.006,-0.4785,-0.2627,0.8377,0,0,0,-0.005,0.004,0,0
2018,5,17,22,36,8.967,0.006,-0.4785,-0.2627,0.8377,0,0,0,-0.006,0.005,-0.005,0
2018,5,17,22,36,8.991,0.006,-0.4785,-0.2627,0.8377,0,0,0,-0.007,0.005,-0.007,0
2018,5,17,22,36,8.996,0.006,-0.4785,-0.2627,0.8378,0,0,0,-0.008,0.007,-0.002,0
2018,5,17,22,36,9.011,0.0059,-0.4785,-0.2627,0.8378,0,0,0,-0.008,0.003,-0.003,0
2018,5,17,22,36,9.035,0.0059,-0.4785,-0.2627,0.8378,0,0,0,-0.007,0.004,-0.009,0
2018,5,17,22,36,9.051,0.0059,-0.4785,-0.2626,0.8377,0,0,0,0.001,0.002,-0.001,0
2018,5,17,22,36,9.071,0.0059,-0.4785,-0.2626,0.8378,0,0,0,-0.003,0,0.005,0
2018,5,17,22,36,9.089,0.0059,-0.4785,-0.2626,0.8378,0,0,0,-0.008,-0.002,0,0
2018,5,17,22,36,9.112,0.006,-0.4785,-0.2626,0.8378,0.7,0.2,-0.3,-0.007,0.007,-0.007,0
2018,5,17,22,36,9.149,0.0059,-0.4785,-0.2624,0.8378,0.1,0.5,0,-0.002,0.015,-0.005,0
2018,5,17,22,36,9.171,0.0058,-0.4784,-0.2624,0.8379,-0.3,0.5,0.2,-0.007,0.001,-0.005,0
2018,5,17,22,36,9.175,0.0059,-0.4784,-0.2625,0.8379,0,0,0,-0.012,-0.006,-0.003,0
2018,5,17,22,36,9.191,0.0059,-0.4784,-0.2625,0.8379,0.3,-0.5,0,-0.011,0.001,-0.002,0
2018,5,17,22,36,9.214,0.006,-0.4784,-0.2626,0.8378,0,0,0,-0.007,0.004,-0.015,1023
2018,5,17,22,36,9.232,0.0059,-0.4785,-0.2625,0.8378,0.5,0.7,-0.2,-0.011,0.012,-0.012,1023
2018,5,17,22,36,9.255,0.0058,-0.4782,-0.2626,0.8379,-1.2,0.3,-0.3,-0.043,0.011,0.036,1023
2018,5,17,22,36,9.275,0.0056,-0.4777,-0.2633,0.838,-7.5,-2.7,-1.6,-0.065,-0.036,0.103,1023
2018,5,17,22,36,9.298,0.0048,-0.4787,-0.2642,0.8372,-5.1,-9.4,-4.6,-0.13,-0.126,0.215,1023
2018,5,17,22,36,9.314,0.0046,-0.4812,-0.2636,0.8359,8.5,-22.2,-8.2,-0.22,-0.237,0.371,1023
2018,5,17,22,36,9.352,0.006,-0.4864,-0.2602,0.834,22.2,-40.9,-11.4,-0.246,-0.287,0.467,1023
2018,5,17,22,36,9.352,0.0073,-0.4939,-0.2568,0.8306,6.7,-51.1,-17.2,-0.174,-0.083,0.353,1023
2018,5,17,22,36,9.374,0.0062,-0.5023,-0.2554,0.826,-10.3,-49.8,-25.5,-0.154,0.017,0.139,1023
2018,5,17,22,36,9.391,0.0032,-0.5101,-0.2548,0.8214,-12.3,-41.7,-26.9,-0.192,-0.018,0.071,1023
2018,5,17,22,36,9.413,0.0013,-0.5167,-0.2528,0.8179,13.3,-36.9,-22.4,-0.259,-0.129,0.135,1023
2018,5,17,22,36,9.452,0.0032,-0.5233,-0.2462,0.8157,51,-46,-21,-0.426,-0.258,0.387,1023
2018,5,17,22,36,9.475,0.0084,-0.5331,-0.2339,0.8129,79.1,-79,-31.6,-0.537,-0.304,0.524,1023
2018,5,17,22,36,9.48,0.0139,-0.5482,-0.2187,0.807,75,-111.6,-48.5,-0.541,-0.039,0.464,1023
2018,5,17,22,36,9.495,0.0179,-0.5678,-0.204,0.7972,61.6,-143.4,-51.7,-0.424,0.024,0.46,1023
2018,5,17,22,36,9.515,0.0237,-0.5909,-0.1911,0.7833,62.8,-169.3,-29.4,-0.34,-0.06,0.541,1023
2018,5,17,22,36,9.553,0.0354,-0.6148,-0.1765,0.7678,113.3,-178.6,-14.8,-0.416,-0.386,0.819,1023
2018,5,17,22,36,9.573,0.0575,-0.6388,-0.1515,0.752,225.3,-201.4,-14,-0.646,-0.608,0.818,1023
2018,5,17,22,36,9.575,0.0929,-0.6637,-0.1108,0.7338,321.9,-234.9,-12.8,-0.805,-0.17,0.591,1023
2018,5,17,22,36,9.613,0.1358,-0.6888,-0.063,0.7092,340,-268.1,6.9,-0.812,0.314,0.529,0
2018,5,17,22,36,9.637,0.1822,-0.7148,-0.0182,0.6749,324.9,-315.6,52.7,-0.998,0.653,0.767,0
2018,5,17,22,36,9.64,0.2298,-0.7418,0.0171,0.6296,269.1,-340,115.3,-1.008,1.144,0.912,0
2018,5,17,22,36,9.657,0.2732,-0.7679,0.0354,0.5782,183.8,-322.8,178.6,-0.955,1.343,0.984,0
2018,5,17,22,36,9.672,0.3124,-0.7915,0.0397,0.5237,146.1,-314.7,217.7,-0.919,1.301,1.262,0
2018,5,17,22,36,9.696,0.3505,-0.8109,0.0384,0.4669,164.3,-297.8,234.4,-0.94,0.861,1.078,0
2018,5,17,22,36,9.732,0.3983,-0.8211,0.0368,0.4069,265.9,-290.3,290,-0.777,0.911,0.52,0
2018,5,17,22,36,9.756,0.4681,-0.8166,0.0296,0.3362,425.7,-293,431,-1.323,1.045,-0.007,0
2018,5,17,22,36,9.76,0.5591,-0.7891,0.011,0.2539,458.5,-222.7,475.3,-3.517,0.833,-0.308,0
2018,5,17,22,36,9.777,0.6056,-0.7719,-0.0116,0.1928,19.5,-153.6,263.2,-3.166,0.24,-0.644,0
2018,5,17,22,36,9.801,0.5995,-0.7853,-0.0272,0.1519,-125.3,-117.2,161.4,-1.962,-1.386,-1.112,0
2018,5,17,22,36,9.836,0.5948,-0.7925,-0.0374,0.1289,-4.6,-39.9,78.4,-1.094,-0.181,-0.854,0
2018,5,17,22,36,9.86,0.5926,-0.7952,-0.0419,0.121,-65.5,-10,27.4,-0.767,0.857,-0.96,0
2018,5,17,22,36,9.863,0.5799,-0.8043,-0.0515,0.1186,-75.5,45.3,57.7,0.22,0.118,-0.308,0
2018,5,17,22,36,9.878,0.5796,-0.8039,-0.0617,0.1178,-51,-181.5,168.9,3.399,-15.031,-7.564,0
2018,5,17,22,36,9.915,0.5625,-0.8232,-0.0684,0.0324,-1315.1,-130.8,-569.6,3.065,6.23,-1.888,0
2018,5,17,22,36,9.937,0.3232,-0.9392,-0.0217,0.1135,-1590.3,547.2,-499.9,-1.63,-12.297,-6.576,0
2018,5,17,22,36,9.942,0.1636,-0.968,-0.0288,0.1878,407.2,428,-57.4,-0.439,-4.072,-0.521,0
2018,5,17,22,36,9.959,0.2772,-0.9288,0.0267,0.2442,619.4,160.2,-293.2,-5.302,0.219,1.176,0
2018,5,17,22,36,9.978,0.3073,-0.9112,0.0658,0.2661,-43.3,-34.4,-151.5,-3.13,2.97,3.304,0
2018,5,17,22,36,10.001,0.2619,-0.9268,0.0711,0.2594,-340.3,-110.7,-39.2,-1.942,0.673,2.113,0
2018,5,17,22,36,10.036,0.2126,-0.9435,0.0691,0.2442,-222.2,-127.3,-31,-0.637,0.861,1.606,1023
2018,5,17,22,36,10.058,0.1802,-0.9553,0.07,0.2234,-152.1,-168.6,-20.5,0.438,1.227,1.375,1023
2018,5,17,22,36,10.062,0.158,-0.9655,0.0785,0.1914,-66.6,-239.9,-39.7,1.53,0.786,0.665,1023
2018,5,17,22,36,10.098,0.1444,-0.9748,0.0834,0.1474,-42.8,-280.2,37.5,0.222,0.237,0.369,1023
2018,5,17,22,36,10.121,0.1363,-0.9821,0.0845,0.0983,-15.5,-279.4,10,-0.322,0.172,-0.224,1023
2018,5,17,22,36,10.126,0.1301,-0.9855,0.0942,0.054,-8.2,-250.5,-52.2,-0.916,-0.187,-0.442,1023
2018,5,17,22,36,10.139,0.1212,-0.9863,0.1105,0.0142,-62,-233.8,-67.6,-0.845,-0.042,-0.648,1023
2018,5,17,22,36,10.158,0.0131,-0.9904,0.133,-0.032,-200.3,-41.7,10.3,-0.645,0.256,-6.378,1023
2018,5,17,22,36,10.181,-0.012,-0.9895,0.1421,-0.0216,-222.1,67.8,-120.7,0.256,0.387,0.863,1023
2018,5,17,22,36,10.198,-0.0408,-0.9857,0.1628,-0.0096,-145.9,65.1,-112.1,-0.514,-0.49,-0.356,1023
2018,5,17,22,36,10.221,-0.0571,-0.9823,0.1776,0.0093,-52.1,121.4,-59.7,-0.188,-0.776,-0.062,1023
2018,5,17,22,36,10.259,-0.0482,-0.9799,0.1913,0.0287,99.6,113.8,-91.9,0.145,0.15,-0.104,1023
2018,5,17,22,36,10.282,-0.0247,-0.9769,0.2082,0.0405,108.2,77.1,-83.7,0.316,0.679,-0.114,1023
2018,5,17,22,36,10.287,-0.0134,-0.9742,0.2203,0.0465,10.3,27.4,-45.6,0.39,0.835,-0.02,1023
2018,5,17,22,36,10.306,-0.0134,-0.9729,0.2249,0.0504,-7.7,17.7,-11.7,0.309,0.896,0.158,1023
2018,5,17,22,36,10.321,-0.0166,-0.9725,0.2257,0.0544,-40.3,19.6,2.7,0.514,0.421,0.346,1023
2018,5,17,22,36,10.343,-0.0242,-0.9723,0.2239,0.0608,-44.3,27.2,10.1,0.209,-0.078,0.511,1023
2018,5,17,22,36,10.362,-0.0269,-0.9726,0.222,0.0625,2.1,-18.2,8.6,-0.359,-0.076,0.67,1023
2018,5,17,22,36,10.383,-0.0249,-0.9739,0.2188,0.0549,19.3,-53.4,27.3,-0.03,-0.181,0.341,1023
2018,5,17,22,36,10.418,-0.0264,-0.9753,0.2145,0.0446,-18.8,-74.5,17.9,-0.445,-0.249,0.088,1023
2018,5,17,22,36,10.44,-0.0313,-0.9768,0.2106,0.0172,58.6,-211.1,-1.5,0.29,0.231,-0.976,0
2018,5,17,22,36,10.443,-0.0247,-0.9772,0.2104,-0.0045,21.8,-20.8,2.5,-0.083,-0.014,-0.31,0
2018,5,17,22,36,10.476,-0.0238,-0.9773,0.2101,-0.0057,-1.7,-17.1,-3.7,0.028,-0.006,0.177,0
2018,5,17,22,36,10.495,-0.0258,-0.9771,0.2109,-0.0099,-12.8,-24.2,-4.6,-0.026,0.005,-0.072,0
2018,5,17,22,36,10.501,-0.0287,-0.9769,0.2111,-0.0116,-9.7,-5.3,-0.4,0.008,0.016,-0.007,0
2018,5,17,22,36,10.539,-0.029,-0.9769,0.2113,-0.0128,9.1,-9,-1.7,-0.007,0.01,-0.005,0
2018,5,17,22,36,10.563,-0.0274,-0.9768,0.2114,-0.0148,13,-9.9,-1.3,-0.003,0.005,-0.014,0
2018,5,17,22,36,10.567,-0.0255,-0.9768,0.2115,-0.0168,15.7,-8.6,-0.3,0.011,0.014,0.005,0
2018,5,17,22,36,10.602,-0.0224,-0.9769,0.2113,-0.0189,24.9,-11.1,2,0.026,0.01,0.007,0
2018,5,17,22,36,10.625,-0.0175,-0.9771,0.2107,-0.0218,33.9,-8.7,4.5,0.051,-0.015,-0.083,0
2018,5,17,22,36,10.63,-0.0133,-0.9774,0.2095,-0.0233,20.4,-1.3,6.2,0.025,0.006,0.015,0
2018,5,17,22,36,10.643,-0.0102,-0.9777,0.2082,-0.0239,20.1,1.4,6.4,-0.073,0.002,-0.011,0
2018,5,17,22,36,10.681,-0.0074,-0.9781,0.2064,-0.024,15.2,0.2,9.4,-0.08,-0.022,-0.013,0
2018,5,17,22,36,10.704,-0.0056,-0.9783,0.2051,-0.0251,6.6,-1.8,3.9,-0.119,-0.037,0.002,0
2018,5,17,22,36,10.708,-0.0051,-0.9784,0.205,-0.0258,-1,0.3,-0.4,-0.003,-0.004,-0.01,0
2018,5,17,22,36,10.725,-0.0056,-0.9783,0.2052,-0.0254,-4.1,2.2,-1.1,0.001,0.007,-0.004,0
2018,5,17,22,36,10.746,-0.0061,-0.9783,0.2053,-0.0248,-2.3,1.8,-0.5,0.006,0.007,-0.005,0
2018,5,17,22,36,10.765,-0.0061,-0.9783,0.2053,-0.0246,3.3,-0.2,0,0.005,0.01,-0.002,1023
2018,5,17,22,36,10.803,-0.0052,-0.9783,0.2053,-0.0248,7.2,-1.3,0.2,0,0.005,-0.014,1023
2018,5,17,22,36,10.827,-0.004,-0.9783,0.2051,-0.0252,7.4,-1,0.7,0,-0.002,-0.015,1023
2018,5,17,22,36,10.831,-0.003,-0.9784,0.2049,-0.0255,4,0,1,0.002,0,-0.008,1023
2018,5,17,22,36,10.847,-0.0027,-0.9784,0.2047,-0.0255,0.5,0.3,0.7,0,0,-0.005,1023
2018,5,17,22,36,10.871,-0.0027,-0.9784,0.2047,-0.0254,-1,0.8,0.3,0.001,0,-0.007,1023
2018,5,17,22,36,10.889,-0.0029,-0.9785,0.2046,-0.0252,-1.2,0.8,0.2,0.001,0.003,-0.006,1023
2018,5,17,22,36,10.925,-0.0031,-0.9785,0.2046,-0.025,0.7,-0.2,0,0.004,0.004,-0.002,1023
2018,5,17,22,36,10.925,-0.0029,-0.9785,0.2046,-0.0251,1.3,-1,0,0.002,-0.001,-0.006,1023
2018,5,17,22,36,10.947,-0.0028,-0.9785,0.2046,-0.0252,0,-0.5,0,0.003,0.001,-0.009,1023
2018,5,17,22,36,10.984,-0.0029,-0.9785,0.2046,-0.0252,-0.7,0,-0.1,0,0,-0.006,1023
2018,5,17,22,36,11.006,-0.003,-0.9785,0.2046,-0.0251,0,0,0,0.002,0,-0.005,1023
2018,5,17,22,36,11.01,-0.003,-0.9785,0.2046,-0.0251,0,0,0,0.003,0.001,-0.006,1023
2018,5,17,22,36,11.029,-0.003,-0.9785,0.2046,-0.025,0,0,0,0.003,0.001,-0.006,1023
2018,5,17,22,36,11.046,-0.0031,-0.9785,0.2046,-0.0249,0,0,0,0,0.003,-0.008,1023
2018,5,17,22,36,11.069,-0.0031,-0.9785,0.2046,-0.0249,0,0,0,0,0.003,-0.004,1023
2018,5,17,22,36,11.088,-0.0032,-0.9785,0.2046,-0.0248,0,0,0,0,0.001,-0.001,1023
2018,5,17,22,36,11.111,-0.0032,-0.9785,0.2046,-0.0248,0,0,0,0.001,0.001,-0.008,1023
2018,5,17,22,36,11.129,-0.0032,-0.9785,0.2046,-0.0247,0,0,0,0.003,0.002,0.002,0
2018,5,17,22,36,11.154,-0.0033,-0.9785,0.2046,-0.0247,0.5,-0.4,0,0.003,0.004,-0.005,0
2018,5,17,22,36,11.173,-0.0032,-0.9785,0.2046,-0.0248,0.8,-0.5,0,0,0.003,-0.005,0
2018,5,17,22,36,11.19,-0.0031,-0.9785,0.2046,-0.0248,0,0,0,0.002,0,-0.007,0
2018,5,17,22,36,11.213,-0.0032,-0.9785,0.2046,-0.0248,0,0,0,0,0,-0.007,0
2018,5,17,22,36,11.229,-0.0032,-0.9785,0.2046,-0.0247,0,0,0,0.004,0.002,-0.004,0
2018,5,17,22,36,11.248,-0.0032,-0.9785,0.2046,-0.0247,0,0,0,0.001,0,-0.006,0
2018,5,17,22,36,11.272,-0.0033,-0.9785,0.2046,-0.0247,0,0,0,0.003,0.003,-0.003,0
2018,5,17,22,36,11.307,-0.0032,-0.9785,0.2046,-0.0246,0.8,0,-0.1,0.005,0.006,-0.005,0
2018,5,17,22,36,11.331,-0.0031,-0.9785,0.2046,-0.0247,1.3,-0.2,-0.1,0,0.002,-0.004,0
2018,5,17,22,36,11.334,-0.0029,-0.9785,0.2047,-0.0247,1,-0.3,0,0,0.001,-0.009,0
2018,5,17,22,36,11.35,-0.0028,-0.9785,0.2047,-0.0248,0.5,0,0,-0.002,0.001,-0.007,0
2018,5,17,22,36,11.372,-0.0028,-0.9785,0.2047,-0.0248,0.5,0.2,-0.2,0,0,-0.003,0
2018,5,17,22,36,11.391,-0.0026,-0.9784,0.2047,-0.0247,1.3,0.4,-0.2,0.001,0,-0.003,0
2018,5,17,22,36,11.413,-0.0025,-0.9784,0.2047,-0.0247,0,0,0,0,0.001,-0.006,0
2018,5,17,22,36,11.432,-0.0025,-0.9784,0.2047,-0.0246,0,0,0,0.002,0,-0.011,0
2018,5,17,22,36,11.449,-0.0026,-0.9784,0.2047,-0.0246,-0.8,0,0,0,0.003,-0.004,0
2018,5,17,22,36,11.472,-0.0028,-0.9784,0.2047,-0.0245,-0.5,0.2,-0.1,0,0.004,-0.005,0
2018,5,17,22,36,11.511,-0.0028,-0.9784,0.2047,-0.0244,0,0,0,0,0.001,-0.002,1023
2018,5,17,22,36,11.513,-0.0027,-0.9784,0.2047,-0.0244,0.8,0,-0.1,0.002,0.001,-0.009,1023
2018,5,17,22,36,11.529,-0.0026,-0.9784,0.2047,-0.0244,0,0,0,0,0,-0.005,1023
2018,5,17,22,36,11.568,-0.0026,-0.9784,0.2047,-0.0244,-0.5,0,0.1,0.001,0,-0.005,1023
2018,5,17,22,36,11.589,-0.0027,-0.9784,0.2048,-0.0244,-0.7,0,0,0.001,0.003,-0.006,1023
2018,5,17,22,36,11.594,-0.0029,-0.9784,0.2048,-0.0243,-0.6,0.2,0,0,0.001,-0.004,1023
2018,5,17,22,36,11.629,-0.0029,-0.9784,0.2048,-0.0243,0,0,0,0.002,0.003,-0.008,1023
2018,5,17,22,36,11.653,-0.0029,-0.9784,0.2048,-0.0242,0,0,0,0.001,0.001,-0.006,1023
2018,5,17,22,36,11.658,-0.003,-0.9784,0.2048,-0.0242,0,0,0,0,0,-0.002,1023
2018,5,17,22,36,11.675,-0.003,-0.9784,0.2048,-0.0241,0,0,0,0.004,0.002,-0.007,1023
2018,5,17,22,36,11.695,-0.003,-0.9785,0.2048,-0.0241,-0.6,0.1,0,0,0.004,-0.001,1023
2018,5,17,22,36,11.711,-0.0032,-0.9785,0.2048,-0.0241,-0.6,-0.1,0,0.001,0,-0.006,1023
2018,5,17,22,36,11.734,-0.0033,-0.9785,0.2048,-0.024,0,0,0,0.002,0,-0.006,1023
2018,5,17,22,36,11.753,-0.0033,-0.9785,0.2048,-0.024,0,0,0,-0.001,0.002,-0.008,1023
2018,5,17,22,36,11.789,-0.0033,-0.9785,0.2048,-0.024,0,0,0,0,0,-0.004,1023
2018,5,17,22,36,11.813,-0.0033,-0.9784,0.2048,-0.024,0.7,0,-0.2,0,0,-0.005,1023
2018,5,17,22,36,11.817,-0.0032,-0.9784,0.2048,-0.024,0,0,0,0.001,-0.001,-0.009,1023
2018,5,17,22,36,11.833,-0.0033,-0.9784,0.2048,-0.0239,0,0,0,0.001,0,-0.005,1023
2018,5,17,22,36,11.856,-0.0033,-0.9784,0.2048,-0.0239,0,0,0,-0.001,0.002,-0.004,0
2018,5,17,22,36,11.893,-0.0033,-0.9784,0.2048,-0.0239,0,0,0,0.001,-0.001,-0.007,0
2018,5,17,22,36,11.917,-0.0033,-0.9784,0.2048,-0.0239,0,0,0,0.002,0.001,-0.004,0
2018,5,17,22,36,11.921,-0.0033,-0.9785,0.2048,-0.0238,0,0,0,0,0,-0.006,0
2018,5,17,22,36,11.936,-0.0034,-0.9784,0.2048,-0.0237,-0.5,0.1,-0.1,0,0.001,-0.003,0
2018,5,17,22,36,11.96,-0.0035,-0.9784,0.2048,-0.0237,0,0,0,0,0.004,-0.004,0
2018,5,17,22,36,11.974,-0.0035,-0.9784,0.2048,-0.0237,0,0,0,0.003,0.001,-0.004,0
2018,5,17,22,36,12.012,-0.0035,-0.9784,0.2048,-0.0237,0,0,0,0.002,0.001,-0.005,0
2018,5,17,22,36,12.035,-0.0035,-0.9784,0.2048,-0.0236,0,0,0,0,0,-0.004,0
2018,5,17,22,36,12.039,-0.0035,-0.9784,0.2048,-0.0236,0,0,0,0.002,0,-0.002,0
2018,5,17,22,36,12.056,-0.0035,-0.9784,0.2048,-0.0236,0,0,0,0,0,-0.004,0
2018,5,17,22,36,12.094,-0.0035,-0.9784,0.2048,-0.0236,0,0,0,0,-0.001,-0.006,0
2018,5,17,22,36,12.116,-0.0036,-0.9784,0.2048,-0.0236,-0.6,-0.4,0,0.001,0.001,-0.004,0
2018,5,17,22,36,12.121,-0.0037,-0.9784,0.2048,-0.0235,-0.5,0.1,0,0.002,0.003,-0.008,0
2018,5,17,22,36,12.139,-0.0037,-0.9784,0.2048,-0.0235,0,0,0,0.002,0.001,-0.001,0
2018,5,17,22,36,12.157,-0.0037,-0.9784,0.2048,-0.0235,0,0,0,0,0,-0.007,0
2018,5,17,22,36,12.18,-0.0036,-0.9784,0.2048,-0.0235,0.5,0,0,0.003,0.001,-0.006,1023
2018,5,17,22,36,12.197,-0.0035,-0.9784,0.2048,-0.0235,0.7,0,-0.1,0,0.002,-0.006,1023
2018,5,17,22,36,12.232,-0.0035,-0.9784,0.2048,-0.0234,0,0,0,0.001,0,-0.006,1023
2018,5,17,22,36,12.256,-0.0035,-0.9784,0.2048,-0.0234,0,0,0,0,-0.004,-0.001,1023
2018,5,17,22,36,12.259,-0.0035,-0.9784,0.2049,-0.0234,-0.5,0,0,0.001,-0.001,-0.006,1023
2018,5,17,22,36,12.278,-0.0036,-0.9784,0.2049,-0.0233,-0.5,0.1,0,0,0.002,-0.002,1023
2018,5,17,22,36,12.313,-0.0037,-0.9784,0.2049,-0.0233,0,0,0,0,0.001,-0.003,1023
2018,5,17,22,36,12.336,-0.0037,-0.9784,0.2049,-0.0233,0,0,0,0.002,0.001,-0.006,1023
2018,5,17,22,36,12.341,-0.0037,-0.9784,0.2049,-0.0233,0,0,0,0,0,-0.007,1023
2018,5,17,22,36,12.357,-0.0037,-0.9784,0.2049,-0.0233,0,0,0,0.002,0,-0.003,1023
2018,5,17,22,36,12.38,-0.0037,-0.9784,0.2049,-0.0233,0,0,0,0,-0.002,-0.006,1023
2018,5,17,22,36,12.415,-0.0037,-0.9784,0.2049,-0.0233,0,0,0,0,0.001,-0.009,1023
2018,5,17,22,36,12.438,-0.0037,-0.9784,0.2049,-0.0233,0,0,0,0,0,-0.009,1023
2018,5,17,22,36,12.442,-0.0037,-0.9784,0.2049,-0.0232,0,0,0,0,0.001,-0.006,1023
2018,5,17,22,36,12.462,-0.0038,-0.9784,0.2049,-0.0232,0,0,0,0,0,-0.003,1023
2018,5,17,22,36,12.499,-0.0038,-0.9784,0.2049,-0.0232,0,0,0,0,0.005,-0.002,1023
2018,5,17,22,36,12.522,-0.0037,-0.9784,0.2049,-0.0232,0.5,0,0,0.003,0,-0.006,1023
2018,5,17,22,36,12.526,-0.0037,-0.9784,0.2049,-0.0232,0,0,0,0,0,0,1023
2018,5,17,22,36,12.541,-0.0037,-0.9784,0.2049,-0.0232,0,0,0,0.001,0,-0.006,0
2018,5,17,22,36,12.559,-0.0037,-0.9784,0.2049,-0.0232,0,0,0,0.001,0.002,-0.002,0
2018,5,17,22,36,12.582,-0.0038,-0.9784,0.2049,-0.0231,0,0,0,-0.002,0.002,-0.008,0
2018,5,17,22,36,12.6,-0.0038,-0.9784,0.2049,-0.0231,0,0,0,0.002,0,-0.004,0
2018,5,17,22,36,12.624,-0.0038,-0.9784,0.2049,-0.0231,0,0,0,0,0.001,-0.003,0
2018,5,17,22,36,12.641,-0.0038,-0.9784,0.2049,-0.0231,0,0,0,0,0.003,-0.003,0
2018,5,17,22,36,12.662,-0.0038,-0.9784,0.2049,-0.0231,0,0,0,0.001,0.001,-0.006,0
2018,5,17,22,36,12.684,-0.0038,-0.9784,0.2049,-0.0231,0,0,0,-0.002,0,0,0
2018,5,17,22,36,12.702,-0.0038,-0.9784,0.2049,-0.0231,0,0,0,0,0,-0.003,0
2018,5,17,22,36,12.727,-0.0038,-0.9784,0.2049,-0.0231,0,0,0,0,0,-0.003,0
2018,5,17,22,36,12.743,-0.0038,-0.9784,0.2049,-0.0231,0,0,0,0,0,-0.003,0
2018,5,17,22,36,12.76,-0.0038,-0.9784,0.2049,-0.0231,0,0,0,0,0,-0.006,0
2018,5,17,22,36,12.782,-0.0038,-0.9784,0.2049,-0.0231,0,0,0,0.001,-0.001,-0.005,0
2018,5,17,22,36,12.817,-0.0038,-0.9784,0.2049,-0.0231,0,0,0,0,0.001,-0.001,0
2018,5,17,22,36,12.841,-0.0038,-0.9784,0.2049,-0.0231,0,0,0,0.001,0,-0.007,0
2018,5,17,22,36,12.843,-0.0038,-0.9784,0.2049,-0.0231,0,0,0,0.002,-0.001,-0.007,0
2018,5,17,22,36,12.88,-0.0038,-0.9784,0.2049,-0.0231,0,0,0,-0.001,0.002,-0.004,1023
2018,5,17,22,36,12.903,-0.0038,-0.9784,0.2049,-0.0231,0,0,0,-0.001,0,-0.007,1023
2018,5,17,22,36,12.908,-0.0038,-0.9784,0.2049,-0.0231,0,0,0,0.002,0,-0.005,1023
2018,5,17,22,36,12.924,-0.0038,-0.9784,0.2049,-0.023,0,0,0,0,0,-0.004,1023
2018,5,17,22,36,12.943,-0.0038,-0.9784,0.2049,-0.023,0,0,0,0,0,-0.005,1023
2018,5,17,22,36,12.966,-0.0038,-0.9784,0.2049,-0.023,0,0,0,0.003,0.003,-0.006,1023
2018,5,17,22,36,13.003,-0.0038,-0.9784,0.2049,-0.0231,0.5,-0.3,0,0,-0.001,-0.008,1023
2018,5,17,22,36,13.003,-0.0038,-0.9784,0.2049,-0.0231,0,0,0,0,0,-0.006,1023
2018,5,17,22,36,13.027,-0.0038,-0.9784,0.2049,-0.0231,0,0,0,0.001,0,-0.004,1023
2018,5,17,22,36,13.044,-0.0038,-0.9784,0.2049,-0.0231,0,0,0,0,0,-0.01,1023
2018,5,17,22,36,13.079,-0.0038,-0.9784,0.2049,-0.023,0,0,0,-0.003,0.003,-0.003,1023
2018,5,17,22,36,13.102,-0.0038,-0.9784,0.2049,-0.0231,0,0,0,0,0,-0.004,1023
2018,5,17,22,36,13.107,-0.0038,-0.9784,0.2049,-0.0231,0,0,0,-0.001,0.001,-0.005,1023
2018,5,17,22,36,13.126,-0.0038,-0.9784,0.2049,-0.0231,0,0,0,-0.001,0,-0.006,1023
2018,5,17,22,36,13.161,-0.0038,-0.9784,0.2049,-0.023,0,0,0,0.001,0,-0.003,1023
2018,5,17,22,36,13.185,-0.0038,-0.9784,0.2049,-0.023,0,0,0,0,0,-0.004,1023
2018,5,17,22,36,13.188,-0.0038,-0.9784,0.2049,-0.023,0,0,0,-0.001,0,-0.008,1023
2018,5,17,22,36,13.206,-0.0038,-0.9784,0.2049,-0.023,0,0,0,0,-0.002,-0.004,1023
2018,5,17,22,36,13.228,-0.0038,-0.9784,0.2049,-0.023,0,0,0,0.001,0.001,-0.007,0
2018,5,17,22,36,13.246,-0.0038,-0.9784,0.2049,-0.023,0,0,0,-0.001,-0.002,-0.007,0
2018,5,17,22,36,13.269,-0.0038,-0.9784,0.2049,-0.023,0,0,0,0.001,-0.001,-0.006,0
2018,5,17,22,36,13.286,-0.0038,-0.9784,0.2049,-0.023,0,0,0,0,-0.001,-0.007,0
2018,5,17,22,36,13.323,-0.0038,-0.9784,0.2049,-0.023,0,0,0,0,-0.001,0,0
2018,5,17,22,36,13.346,-0.0038,-0.9784,0.2049,-0.023,0,0,0,-0.002,0.001,-0.007,0
2018,5,17,22,36,13.35,-0.0038,-0.9784,0.2049,-0.023,0,0,0,-0.001,0,-0.001,0
2018,5,17,22,36,13.366,-0.0038,-0.9784,0.2049,-0.023,0,0,0,0,-0.002,-0.006,0
2018,5,17,22,36,13.404,-0.0038,-0.9784,0.2049,-0.023,0,0,0,0,-0.001,-0.002,0
2018,5,17,22,36,13.427,-0.0038,-0.9784,0.2049,-0.023,0,0,0,0.001,0,-0.006,0
2018,5,17,22,36,13.432,-0.0038,-0.9784,0.2049,-0.023,0,0,0,-0.001,-0.001,-0.002,0
2018,5,17,22,36,13.446,-0.0038,-0.9784,0.2049,-0.023,0,0,0,0.001,0,-0.006,0
2018,5,17,22,36,13.469,-0.0038,-0.9784,0.2049,-0.023,0,0,0,0.001,0.003,-0.008,0
2018,5,17,22,36,13.505,-0.0038,-0.9784,0.2049,-0.023,0,0,0,0.002,0.004,-0.007,0
2018,5,17,22,36,13.505,-0.0038,-0.9784,0.2049,-0.023,0,0,0,-0.001,0,-0.01,0
2018,5,17,22,36,13.528,-0.0038,-0.9784,0.2049,-0.023,0,0,0,0,-0.002,-0.006,0
2018,5,17,22,36,13.547,-0.0038,-0.9784,0.2049,-0.023,0,0,0,-0.001,-0.002,-0.005,0
2018,5,17,22,36,13.565,-0.0038,-0.9784,0.2049,-0.023,0,0,0,-0.001,0.001,-0.003,1023
2018,5,17,22,36,13.588,-0.0038,-0.9784,0.2049,-0.023,0,0,0,-0.001,0,-0.007,1023
2018,5,17,22,36,13.606,-0.0038,-0.9784,0.2049,-0.023,0,0,0,-0.002,0,-0.002,1023
2018,5,17,22,36,13.629,-0.0038,-0.9784,0.2049,-0.023,0,0,0,-0.001,0.001,-0.007,1023
2018,5,17,22,36,13.666,-0.0039,-0.9784,0.2049,-0.023,0,0,0,0,0.001,-0.003,1023
2018,5,17,22,36,13.666,-0.0039,-0.9784,0.2049,-0.023,0,0,0,-0.001,0,-0.007,1023
2018,5,17,22,36,13.689,-0.0039,-0.9784,0.2049,-0.0229,0,0,0,0,-0.001,-0.006,1023
2018,5,17,22,36,13.728,-0.0038,-0.9784,0.2049,-0.0229,0,0,0,0.001,0.001,-0.006,1023
2018,5,17,22,36,13.751,-0.0039,-0.9784,0.2049,-0.0229,0,0,0,0,0,-0.004,1023
2018,5,17,22,36,13.755,-0.0038,-0.9784,0.2049,-0.0229,0,0,0,0,0,-0.004,1023
2018,5,17,22,36,13.77,-0.0039,-0.9784,0.2049,-0.0229,-0.5,0.3,0,0,0,-0.002,1023
2018,5,17,22,36,13.792,-0.0039,-0.9784,0.2049,-0.0229,0,0,0,-0.002,0,-0.006,1023
2018,5,17,22,36,13.81,-0.0039,-0.9784,0.2049,-0.0229,0,0,0,0.001,0.001,-0.003,1023
2018,5,17,22,36,13.847,-0.0039,-0.9784,0.2049,-0.0229,0,0,0,0.003,0.002,-0.003,1023
2018,5,17,22,36,13.87,-0.0039,-0.9784,0.2049,-0.0228,0,0,0,-0.001,0,0,1023
2018,5,17,22,36,13.875,-0.0039,-0.9784,0.2049,-0.0228,0,0,0,0,0.001,-0.002,1023
2018,5,17,22,36,13.89,-0.0039,-0.9784,0.2049,-0.0229,0,0,0,-0.001,0.001,-0.006,1023
2018,5,17,22,36,13.914,-0.0039,-0.9784,0.2049,-0.0229,0,0,0,0,0,-0.007,0
2018,5,17,22,36,13.929,-0.004,-0.9784,0.2049,-0.0229,0,0,0,0,0,-0.004,0
2018,5,17,22,36,13.952,-0.004,-0.9784,0.2049,-0.0229,0,0,0,0.001,0,-0.005,0
2018,5,17,22,36,13.99,-0.0039,-0.9784,0.2049,-0.0228,0,0,0,-0.002,0.001,-0.003,0
2018,5,17,22,36,14.013,-0.004,-0.9784,0.2049,-0.0228,0,0,0,-0.001,0,-0.007,0
2018,5,17,22,36,14.018,-0.004,-0.9784,0.2049,-0.0228,0,0,0,0.001,0.001,-0.007,0
2018,5,17,22,36,14.034,-0.004,-0.9784,0.2049,-0.0228,0,0,0,0.001,0,-0.003,0
2018,5,17,22,36,14.057,-0.004,-0.9784,0.2049,-0.0228,0,0,0,-0.003,0.002,-0.007,0
2018,5,17,22,36,14.073,-0.004,-0.9784,0.2049,-0.0228,0,0,0,0,0,-0.003,0
2018,5,17,22,36,14.091,-0.004,-0.9784,0.2049,-0.0228,0,0,0,0,-0.002,-0.005,0
2018,5,17,22,36,14.114,-0.004,-0.9784,0.2049,-0.0229,0,0,0,-0.003,-0.001,-0.003,0
2018,5,17,22,36,14.131,-0.004,-0.9784,0.2049,-0.0229,0,0,0,0,0.002,-0.004,0
2018,5,17,22,36,14.154,-0.004,-0.9784,0.2049,-0.0228,0,0,0,0,0,-0.004,0
2018,5,17,22,36,14.172,-0.004,-0.9784,0.2049,-0.0228,0,0,0,-0.002,0.001,-0.004,0
2018,5,17,22,36,14.193,-0.004,-0.9784,0.2049,-0.0228,0,0,0,-0.001,0,-0.006,0
2018,5,17,22,36,14.228,-0.004,-0.9784,0.2049,-0.0228,0,0,0,0.003,0,-0.005,0
2018,5,17,22,36,14.249,-0.004,-0.9784,0.2049,-0.0228,0,0,0,0,0.003,-0.005,0
2018,5,17,22,36,14.254,-0.004,-0.9784,0.2049,-0.0228,0,0,0,0.001,0,-0.009,1023
2018,5,17,22,36,14.271,-0.004,-0.9784,0.2049,-0.0228,0,0,0,-0.002,0.002,-0.003,1023
2018,5,17,22,36,14.292,-0.004,-0.9784,0.2049,-0.0228,0,0,0,0.001,0,-0.001,1023
2018,5,17,22,36,14.33,-0.004,-0.9784,0.2049,-0.0228,0,0,0,0,0.001,-0.005,1023
2018,5,17,22,36,14.353,-0.004,-0.9784,0.2049,-0.0228,0,0,0,0.001,0,-0.009,1023
2018,5,17,22,36,14.358,-0.004,-0.9784,0.2049,-0.0228,0,0,0,0,-0.002,-0.009,1023
2018,5,17,22,36,14.373,-0.004,-0.9784,0.2049,-0.0228,0,0,0,0,-0.001,-0.008,1023
2018,5,17,22,36,14.396,-0.004,-0.9785,0.2049,-0.0228,0,0,0,0.001,0,-0.005,1023
2018,5,17,22,36,14.414,-0.004,-0.9785,0.2049,-0.0228,0,0,0,0,0.001,-0.007,1023
2018,5,17,22,36,14.438,-0.0041,-0.9785,0.2049,-0.0228,0,0,0,0,0,-0.002,1023
2018,5,17,22,36,14.457,-0.004,-0.9785,0.2049,-0.0228,0,0,0,0,-0.002,-0.007,1023
2018,5,17,22,36,14.475,-0.004,-0.9785,0.2049,-0.0228,0,0,0,0,-0.002,-0.003,1023
2018,5,17,22,36,14.498,-0.004,-0.9784,0.2049,-0.0228,0,0,0,0.002,-0.001,-0.006,1023
2018,5,17,22,36,14.535,-0.004,-0.9785,0.2049,-0.0228,0,0,0,0.003,0.001,-0.003,1023
2018,5,17,22,36,14.557,-0.004,-0.9784,0.2049,-0.0228,0,0,0,0.002,0,-0.005,1023
2018,5,17,22,36,14.562,-0.004,-0.9784,0.2049,-0.0228,0,0,0,-0.001,0,-0.005,1023
2018,5,17,22,36,14.578,-0.0041,-0.9784,0.2049,-0.0228,0,0,0,0,0.003,-0.003,1023
2018,5,17,22,36,14.6,-0.0041,-0.9784,0.2049,-0.0228,0,0,0,-0.001,0,-0.006,1023
2018,5,17,22,36,14.616,-0.0041,-0.9784,0.2049,-0.0228,0,0,0,-0.001,0,-0.005,0
2018,5,17,22,36,14.635,-0.0041,-0.9784,0.2049,-0.0228,0,0,0,-0.001,0,-0.008,0
2018,5,17,22,36,14.657,-0.0041,-0.9785,0.2049,-0.0228,0,0,0,0.002,0.003,-0.005,0
2018,5,17,22,36,14.676,-0.0041,-0.9784,0.2049,-0.0228,0,0,0,-0.001,-0.001,-0.009,0
2018,5,17,22,36,14.7,-0.0041,-0.9784,0.2049,-0.0228,0,0,0,0,0,-0.005,0
2018,5,17,22,36,14.717,-0.0041,-0.9784,0.2049,-0.0228,0,0,0,0,0,-0.005,0
2018,5,17,22,36,14.74,-0.0041,-0.9785,0.2049,-0.0228,0,0,0,0,0.001,-0.003,0
2018,5,17,22,36,14.759,-0.0041,-0.9785,0.2049,-0.0228,0,0,0,0,-0.001,-0.007,0
2018,5,17,22,36,14.782,-0.0041,-0.9785,0.2049,-0.0228,0,0,0,-0.002,0,-0.004,0
2018,5,17,22,36,14.801,-0.0041,-0.9785,0.2049,-0.0228,0,0,0,0,0,-0.003,0
2018,5,17,22,36,14.818,-0.0041,-0.9785,0.2049,-0.0228,0,0,0,0.001,0.001,-0.002,0
2018,5,17,22,36,14.854,-0.0041,-0.9785,0.2049,-0.0228,0,0,0,0,0,-0.005,0
2018,5,17,22,36,14.878,-0.0041,-0.9785,0.2049,-0.0228,0,0,0,0,0.002,-0.003,0
2018,5,17,22,36,14.881,-0.0041,-0.9785,0.2049,-0.0228,0,0,0,-0.003,-0.002,-0.003,0
2018,5,17,22,36,14.898,-0.0041,-0.9785,0.2049,-0.0228,0,0,0,0,-0.002,-0.008,0
2018,5,17,22,36,14.92,-0.0041,-0.9785,0.2049,-0.0228,0,0,0,-0.001,0.001,-0.006,0
2018,5,17,22,36,14.941,-0.0041,-0.9785,0.2049,-0.0228,0,0,0,0.003,-0.001,-0.006,0
2018,5,17,22,36,14.96,-0.0041,-0.9785,0.2049,-0.0228,0,0,0,0,0.001,-0.004,0
2018,5,17,22,36,14.978,-0.0042,-0.9785,0.2049,-0.0228,0,0,0,-0.001,0.001,-0.004,0
2018,5,17,22,36,15.001,-0.0042,-0.9785,0.2049,-0.0228,0,0,0,-0.001,0,-0.004,0
2018,5,17,22,36,15.019,-0.0042,-0.9785,0.2049,-0.0228,0,0,0,0,0,-0.007,0
2018,5,17,22,36,15.043,-0.0042,-0.9785,0.2049,-0.0228,0,0,0,-0.002,-0.001,-0.009,1023
2018,5,17,22,36,15.058,-0.0042,-0.9785,0.2049,-0.0228,0,0,0,-0.002,-0.001,-0.006,1023
2018,5,17,22,36,15.096,-0.0042,-0.9785,0.2049,-0.0228,0,0,0,0,-0.001,-0.006,1023
2018,5,17,22,36,15.118,-0.0042,-0.9785,0.2049,-0.0228,0,0,0,0.004,0.001,-0.002,1023
2018,5,17,22,36,15.122,-0.0042,-0.9785,0.2049,-0.0228,0,0,0,0.001,-0.001,-0.003,1023
2018,5,17,22,36,15.14,-0.0042,-0.9785,0.2049,-0.0228,0,0,0,-0.001,0,-0.003,1023
2018,5,17,22,36,15.158,-0.0042,-0.9785,0.2049,-0.0228,0,0,0,0,0.002,-0.01,1023
2018,5,17,22,36,15.181,-0.0042,-0.9785,0.2049,-0.0228,0,0,0,-0.002,0.002,0,1023
2018,5,17,22,36,15.2,-0.0042,-0.9785,0.2049,-0.0228,0,0,0,0,-0.001,-0.008,1023
2018,5,17,22,36,15.221,-0.0042,-0.9785,0.2049,-0.0228,0,0,0,0,0.001,-0.004,1023
2018,5,17,22,36,15.257,-0.0042,-0.9785,0.2049,-0.0228,0,0,0,0,0.001,-0.008,1023
2018,5,17,22,36,15.28,-0.0042,-0.9785,0.2049,-0.0228,0,0,0,-0.001,0.001,-0.005,1023
2018,5,17,22,36,15.285,-0.0042,-0.9785,0.2049,-0.0228,0,0,0,0.001,0,-0.003,1023
2018,5,17,22,36,15.321,-0.0042,-0.9785,0.2049,-0.0228,0,0,0,0,0.001,-0.002,1023
2018,5,17,22,36,15.344,-0.0042,-0.9785,0.2049,-0.0228,0,0,0,0.001,0,-0.006,1023
2018,5,17,22,36,15.349,-0.0042,-0.9785,0.2049,-0.0228,0,0,0,-0.002,0,-0.003,1023
2018,5,17,22,36,15.364,-0.0043,-0.9785,0.2049,-0.0228,0,0,0,-0.003,0,-0.004,1023
2018,5,17,22,36,15.382,-0.0043,-0.9785,0.2049,-0.0228,0,0,0,-0.002,-0.001,-0.007,0
2018,5,17,22,36,15.42,-0.0043,-0.9785,0.2049,-0.0228,0,0,0,0,-0.001,-0.004,0
2018,5,17,22,36,15.444,-0.0043,-0.9785,0.2049,-0.0228,0,0,0,0,0.004,-0.006,0
2018,5,17,22,36,15.447,-0.0043,-0.9785,0.2049,-0.0228,0,0,0,0,-0.002,-0.006,0
2018,5,17,22,36,15.465,-0.0043,-0.9785,0.2049,-0.0228,0,0,0,-0.001,0.001,-0.003,0
2018,5,17,22,36,15.484,-0.0043,-0.9785,0.2049,-0.0228,0,0,0,-0.002,-0.002,-0.006,0
2018,5,17,22,36,15.502,-0.0043,-0.9785,0.2049,-0.0228,0,0,0,-0.001,0.001,-0.006,0
2018,5,17,22,36,15.525,-0.0043,-0.9785,0.2049,-0.0228,0,0,0,-0.001,0.001,-0.002,0
2018,5,17,22,36,15.545,-0.0043,-0.9785,0.2049,-0.0228,0,0,0,0,0.003,-0.009,0
2018,5,17,22,36,15.569,-0.0043,-0.9785,0.2049,-0.0228,0,0,0,0,0.002,-0.001,0
2018,5,17,22,36,15.586,-0.0043,-0.9785,0.2049,-0.0228,0,0,0,0,0.002,-0.007,0
2018,5,17,22,36,15.602,-0.0043,-0.9785,0.2049,-0.0228,0,0,0,0,0.002,-0.003,0
2018,5,17,22,36,15.626,-0.0043,-0.9785,0.2049,-0.0228,0,0,0,0,-0.002,-0.004,0
2018,5,17,22,36,15.66,-0.0043,-0.9785,0.2049,-0.0228,0,0,0,0.001,0.002,-0.005,0
2018,5,17,22,36,15.683,-0.0043,-0.9785,0.2049,-0.0228,0,0,0,0,0,-0.005,0
2018,5,17,22,36,15.688,-0.0043,-0.9785,0.2049,-0.0228,0,0,0,-0.002,0,0,0
2018,5,17,22,36,15.705,-0.0043,-0.9785,0.2049,-0.0228,0,0,0,0.003,0,-0.004,0
2018,5,17,22,36,15.727,-0.0043,-0.9785,0.2049,-0.0228,0,0,0,0.001,0,-0.006,0
2018,5,17,22,36,15.745,-0.0043,-0.9785,0.2049,-0.0228,0,0,0,0,-0.001,-0.006,0
2018,5,17,22,36,15.768,-0.0043,-0.9785,0.2049,-0.0228,0,0,0,-0.001,0,-0.005,1023
2018,5,17,22,36,15.786,-0.0043,-0.9785,0.2049,-0.0228,0,0,0,-0.001,0.003,-0.001,1023
2018,5,17,22,36,15.808,-0.0043,-0.9785,0.2049,-0.0228,0,0,0,0,-0.001,-0.005,1023
2018,5,17,22,36,15.825,-0.0043,-0.9785,0.2049,-0.0228,0,0,0,0,-0.001,-0.004,1023
2018,5,17,22,36,15.843,-0.0043,-0.9785,0.2049,-0.0228,0,0,0,-0.001,0.002,-0.005,1023
2018,5,17,22,36,15.866,-0.0043,-0.9785,0.2049,-0.0228,0,0,0,0.001,0,-0.007,1023
2018,5,17,22,36,15.902,-0.0043,-0.9785,0.2049,-0.0228,0,0,0,-0.001,0,-0.008,1023
2018,5,17,22,36,15.924,-0.0043,-0.9785,0.2049,-0.0228,0,0,0,0,-0.002,-0.002,1023
2018,5,17,22,36,15.929,-0.0043,-0.9785,0.2049,-0.0228,0,0,0,0.001,0.001,-0.01,1023
2018,5,17,22,36,15.945,-0.0044,-0.9785,0.2049,-0.0227,0,0,0,0.001,-0.001,-0.002,1023
2018,5,17,22,36,15.968,-0.0043,-0.9785,0.2049,-0.0227,0,0,0,0,-0.001,-0.006,1023
2018,5,17,22,36,16.005,-0.0043,-0.9785,0.2049,-0.0228,0,0,0,0,-0.002,-0.007,1023
2018,5,17,22,36,16.029,-0.0043,-0.9785,0.2049,-0.0227,0,0,0,0.001,-0.002,-0.007,1023
2018,5,17,22,36,16.033,-0.0043,-0.9785,0.2049,-0.0227,0,0,0,0.001,0.001,-0.007,1023
2018,5,17,22,36,16.051,-0.0044,-0.9785,0.2049,-0.0227,0,0,0,0,0,0,1023
2018,5,17,22,36,16.087,-0.0044,-0.9785,0.2049,-0.0227,0,0,0,0,0,-0.004,1023
2018,5,17,22,36,16.111,-0.0044,-0.9785,0.2049,-0.0227,0,0,0,0,0,-0.003,1023
2018,5,17,22,36,16.115,-0.0044,-0.9785,0.2049,-0.0227,0,0,0,-0.002,0,-0.011,1023
2018,5,17,22,36,16.129,-0.0044,-0.9785,0.2049,-0.0227,0,0,0,-0.001,0.003,-0.005,0
2018,5,17,22,36,16.165,-0.0044,-0.9785,0.2049,-0.0228,0,0,0,-0.001,0,-0.005,0
2018,5,17,22,36,16.188,-0.0044,-0.9785,0.2049,-0.0228,0,0,0,0,0,-0.007,0
2018,5,17,22,36,16.193,-0.0044,-0.9785,0.2049,-0.0228,0,0,0,0.001,-0.001,-0.006,0
2018,5,17,22,36,16.208,-0.0044,-0.9785,0.2049,-0.0228,0,0,0,0,0.002,-0.005,0
2018,5,17,22,36,16.231,-0.0044,-0.9785,0.2049,-0.0228,0,0,0,0,0.001,-0.008,0
2018,5,17,22,36,16.25,-0.0044,-0.9785,0.2049,-0.0227,0,0,0,0.001,0.001,-0.007,0
2018,5,17,22,36,16.273,-0.0044,-0.9785,0.2049,-0.0228,0,0,0,0,0,-0.004,0
2018,5,17,22,36,16.289,-0.0045,-0.9785,0.2049,-0.0228,0,0,0,0,-0.002,-0.009,0
2018,5,17,22,36,16.313,-0.0045,-0.9785,0.2049,-0.0228,0,0,0,0.003,0,-0.008,0
2018,5,17,22,36,16.349,-0.0045,-0.9785,0.2049,-0.0228,0,0,0,0.001,0,-0.007,0
2018,5,17,22,36,16.349,-0.0045,-0.9785,0.2049,-0.0228,0,0,0,-0.003,0.001,-0.008,0
2018,5,17,22,36,16.371,-0.0045,-0.9785,0.2049,-0.0228,0,0,0,0.003,0,-0.004,0
2018,5,17,22,36,16.39,-0.0045,-0.9785,0.2049,-0.0227,0,0,0,0,-0.002,-0.004,0
2018,5,17,22,36,16.408,-0.0045,-0.9785,0.2049,-0.0228,0,0,0,-0.001,0,-0.004,0
2018,5,17,22,36,16.43,-0.0045,-0.9785,0.2049,-0.0227,0,0,0,-0.001,0.001,-0.001,0
2018,5,17,22,36,16.449,-0.0045,-0.9785,0.2049,-0.0228,0,0,0,-0.002,0,-0.002,0
2018,5,17,22,36,16.472,-0.0045,-0.9785,0.2049,-0.0227,0,0,0,0,-0.004,-0.006,0
2018,5,17,22,36,16.51,-0.0045,-0.9785,0.2049,-0.0227,0,0,0,0,0.001,-0.002,0
2018,5,17,22,36,16.533,-0.0045,-0.9785,0.2049,-0.0227,0,0,0,0.001,0,-0.004,0
2018,5,17,22,36,16.555,-0.0045,-0.9785,0.2049,-0.0227,0,0,0,0.001,-0.001,-0.005,1023
2018,5,17,22,36,16.58,-0.0045,-0.9785,0.2049,-0.0227,0.5,-0.2,0,-0.002,0,-0.01,1023
2018,5,17,22,36,16.582,-0.0044,-0.9785,0.2049,-0.0228,0,0,0,-0.002,0.002,-0.007,1023
2018,5,17,22,36,16.589,-0.0044,-0.9785,0.2049,-0.0228,0,0,0,-0.001,0,-0.004,1023
2018,5,17,22,36,16.625,-0.0044,-0.9784,0.2049,-0.0228,0,0,0,-0.002,0,-0.01,1023
2018,5,17,22,36,16.646,-0.0044,-0.9784,0.2049,-0.0228,0,0,0,0,-0.002,-0.004,1023
2018,5,17,22,36,16.65,-0.0044,-0.9784,0.2049,-0.0228,0,0,0,0,-0.002,-0.005,1023
2018,5,17,22,36,16.689,-0.0044,-0.9784,0.2049,-0.0228,0,0,0,0.001,0.003,-0.003,1023
2018,5,17,22,36,16.711,-0.0044,-0.9784,0.2049,-0.0228,0,0,0,0,0.001,0,1023
2018,5,17,22,36,16.716,-0.0044,-0.9784,0.2049,-0.0228,0,0,0,0.002,0.003,-0.004,1023
2018,5,17,22,36,16.732,-0.0044,-0.9784,0.2049,-0.0228,0,0,0,-0.001,0.001,-0.003,1023
2018,5,17,22,36,16.754,-0.0044,-0.9784,0.2049,-0.0228,0,0,0,0,0.001,-0.004,1023
2018,5,17,22,36,16.773,-0.0044,-0.9784,0.2049,-0.0228,0,0,0,-0.002,-0.002,-0.008,1023
2018,5,17,22,36,16.796,-0.0044,-0.9784,0.2049,-0.0228,0.5,0,0,0,0.001,-0.006,1023
2018,5,17,22,36,16.814,-0.0044,-0.9784,0.2049,-0.0228,0,0,0,0,0,-0.006,1023
2018,5,17,22,36,16.839,-0.0044,-0.9784,0.2049,-0.0228,0,0,0,0,-0.001,-0.003,1023
2018,5,17,22,36,16.856,-0.0043,-0.9784,0.2049,-0.0228,0.6,0,0,0.001,0.002,-0.005,1023
2018,5,17,22,36,16.879,-0.0043,-0.9784,0.2049,-0.0228,0,0,0,0,-0.002,-0.005,1023
2018,5,17,22,36,16.915,-0.0043,-0.9784,0.2049,-0.0228,0,0,0,0,-0.001,0,1023
2018,5,17,22,36,16.915,-0.0043,-0.9784,0.2049,-0.0229,0,0,0,-0.003,0,-0.009,1023
2018,5,17,22,36,16.939,-0.0043,-0.9784,0.2049,-0.0229,0,0,0,0.002,-0.001,-0.011,0
2018,5,17,22,36,16.957,-0.0043,-0.9784,0.2049,-0.0229,0,0,0,0,0,-0.005,0
2018,5,17,22,36,16.974,-0.0043,-0.9784,0.2049,-0.0229,0,0,0,0,0,-0.002,0
2018,5,17,22,36,16.997,-0.0043,-0.9784,0.2049,-0.0229,-0.5,0,0,0,0,-0.006,0
2018,5,17,22,36,17.017,-0.0043,-0.9784,0.2049,-0.0229,0,0,0,0,-0.001,-0.003,0
2018,5,17,22,36,17.036,-0.0043,-0.9784,0.2049,-0.0229,0,0,0,0,0,-0.005,0
2018,5,17,22,36,17.059,-0.0043,-0.9784,0.2049,-0.0229,0,0,0,0.001,-0.003,-0.007,0
2018,5,17,22,36,17.076,-0.0043,-0.9784,0.2049,-0.0229,0,0,0,0.001,0,-0.005,0
2018,5,17,22,36,17.099,-0.0043,-0.9784,0.2049,-0.0229,0,0,0,-0.002,-0.001,-0.003,0
2018,5,17,22,36,17.121,-0.0043,-0.9784,0.2049,-0.0229,0,0,0,-0.001,0,-0.002,0
2018,5,17,22,36,17.135,-0.0043,-0.9784,0.2049,-0.0229,0,0,0,-0.001,-0.001,-0.006,0
2018,5,17,22,36,17.156,-0.0043,-0.9784,0.2049,-0.0229,0,0,0,0.001,-0.001,-0.004,0
2018,5,17,22,36,17.193,-0.0043,-0.9784,0.2049,-0.0229,0,0,0,-0.002,0,-0.008,0
2018,5,17,22,36,17.216,-0.0043,-0.9784,0.2049,-0.0229,0,0,0,0.001,0.001,-0.004,0
2018,5,17,22,36,17.22,-0.0043,-0.9784,0.2049,-0.0229,0,0,0,-0.001,0,-0.006,0
2018,5,17,22,36,17.239,-0.0042,-0.9784,0.2049,-0.0229,0,0,0,0.001,-0.001,-0.008,0
2018,5,17,22,36,17.275,-0.0042,-0.9784,0.2049,-0.0229,0,0,0,0,0,-0.002,1023
2018,5,17,22,36,17.298,-0.0042,-0.9784,0.2049,-0.0229,0,0,0,0.002,0,-0.003,1023
2018,5,17,22,36,17.302,-0.0042,-0.9784,0.2049,-0.0229,0,0,0,0,-0.001,-0.006,1023
2018,5,17,22,36,17.32,-0.0042,-0.9784,0.2049,-0.0229,0,0,0,-0.001,0,-0.005,1023
2018,5,17,22,36,17.343,-0.0042,-0.9784,0.2049,-0.0229,0,0,0,-0.001,0,0,1023
2018,5,17,22,36,17.361,-0.0042,-0.9784,0.2049,-0.0229,0,0,0,0,-0.001,-0.01,1023
2018,5,17,22,36,17.384,-0.0042,-0.9784,0.2049,-0.0229,0,0,0,0,0,-0.005,1023
2018,5,17,22,36,17.4,-0.0042,-0.9784,0.2049,-0.0229,0,0,0,-0.002,-0.002,-0.008,1023
2018,5,17,22,36,17.417,-0.0042,-0.9784,0.2049,-0.0229,0,0,0,-0.001,0,-0.005,1023
2018,5,17,22,36,17.44,-0.0042,-0.9784,0.2049,-0.0229,0,0,0,-0.002,0,-0.005,1023
2018,5,17,22,36,17.457,-0.0042,-0.9784,0.2049,-0.0229,0,0,0,-0.001,-0.001,-0.003,1023
2018,5,17,22,36,17.481,-0.0042,-0.9784,0.2049,-0.0229,0,0,0,0,0,-0.004,1023
2018,5,17,22,36,17.497,-0.0042,-0.9784,0.2049,-0.0229,0,0,0,0.002,0.001,-0.001,1023
2018,5,17,22,36,17.521,-0.0042,-0.9784,0.2049,-0.0229,0,0,0,0,0,-0.005,1023
2018,5,17,22,36,17.538,-0.0042,-0.9784,0.2049,-0.0229,0,0,0,0,0.002,-0.006,1023
2018,5,17,22,36,17.562,-0.0042,-0.9784,0.2049,-0.0229,0,0,0,-0.001,0,-0.003,1023
2018,5,17,22,36,17.597,-0.0042,-0.9784,0.2049,-0.0229,0,0,0,0,0.001,-0.007,1023
2018,5,17,22,36,17.62,-0.0042,-0.9784,0.2049,-0.0229,0,0,0,0,0,-0.005,1023
2018,5,17,22,36,17.624,-0.0042,-0.9784,0.2049,-0.0229,0,0,0,0,0,-0.003,1023
2018,5,17,22,36,17.641,-0.0042,-0.9784,0.2049,-0.0229,0,0,0,0,-0.001,0,1023
2018,5,17,22,36,17.663,-0.0042,-0.9784,0.2049,-0.0229,0,0,0,0.001,0,-0.003,1023
2018,5,17,22,36,17.7,-0.0042,-0.9784,0.2049,-0.0229,0,0,0,0,-0.002,-0.004,1023
2018,5,17,22,36,17.723,-0.0042,-0.9784,0.2049,-0.0229,0,0,0,-0.001,-0.001,-0.001,0
2018,5,17,22,36,17.728,-0.0042,-0.9784,0.2049,-0.0229,0,0,0,0.001,-0.001,-0.006,0
2018,5,17,22,36,17.742,-0.0042,-0.9784,0.2049,-0.0229,0,0,0,-0.001,0.002,-0.004,0
2018,5,17,22,36,17.778,-0.0042,-0.9784,0.2049,-0.0229,0,0,0,0,-0.001,-0.005,0
2018,5,17,22,36,17.8,-0.0042,-0.9784,0.2049,-0.0229,0,0,0,0,0,-0.004,0
2018,5,17,22,36,17.805,-0.0042,-0.9784,0.2049,-0.0229,0,0,0,0.001,0,-0.004,0
2018,5,17,22,36,17.822,-0.0042,-0.9784,0.2049,-0.0229,0,0,0,0,0.001,-0.006,0
2018,5,17,22,36,17.845,-0.0042,-0.9784,0.2049,-0.0229,0,0,0,0,0.001,-0.004,0
2018,5,17,22,36,17.863,-0.0042,-0.9784,0.2049,-0.0229,0,0,0,-0.003,0.001,-0.007,0
2018,5,17,22,36,17.886,-0.0042,-0.9784,0.2049,-0.0229,0,0,0,0,0,-0.002,0
2018,5,17,22,36,17.904,-0.0042,-0.9784,0.2049,-0.0229,0,0,0,0,0,-0.006,0
