time_1,time_2,time_3,time_4,time_5,time_6,w,x,y,z,droll,dpitch,dyaw,ax,ay,az,heart
2018,5,17,22,12,4.379,-0.2505,0.5648,-0.015,-0.7861,-0.6,-0.1,0,-0.01,-0.003,-0.003,1023
2018,5,17,22,12,4.398,-0.2505,0.5647,-0.015,-0.7861,0,0,0,-0.01,-0.001,0.002,1023
2018,5,17,22,12,4.416,-0.2505,0.5647,-0.0149,-0.7861,0,-0.5,0,-0.002,0,-0.002,1023
2018,5,17,22,12,4.439,-0.2505,0.5648,-0.0149,-0.7861,-0.1,-0.6,0,-0.009,0.001,0.003,1023
2018,5,17,22,12,4.457,-0.2506,0.5648,-0.0149,-0.786,0.2,-0.5,0,-0.008,0.002,0.007,1023
2018,5,17,22,12,4.48,-0.2506,0.5648,-0.015,-0.786,0.2,-0.7,0.2,-0.009,0.008,0.002,0
2018,5,17,22,12,4.498,-0.2506,0.5649,-0.0152,-0.7859,0,-0.7,0.2,-0.008,0.004,-0.001,0
2018,5,17,22,12,4.521,-0.2507,0.565,-0.0152,-0.7859,0,-0.6,0.2,-0.003,0,-0.003,0
2018,5,17,22,12,4.539,-0.2507,0.565,-0.0152,-0.7858,0,0,0,-0.002,0,0,0
2018,5,17,22,12,4.562,-0.2508,0.565,-0.0152,-0.7858,0.7,-0.3,0.2,-0.009,0.005,0.004,0
2018,5,17,22,12,4.581,-0.2509,0.565,-0.0152,-0.7857,0.2,-0.5,0.4,0,0.006,0.003,0
2018,5,17,22,12,4.603,-0.251,0.5651,-0.0153,-0.7857,0.4,-1.1,0.4,0.002,0,0.004,0
2018,5,17,22,12,4.619,-0.2511,0.5653,-0.0156,-0.7855,1,-1.5,0.6,0,0,0,0
2018,5,17,22,12,4.638,-0.2513,0.5655,-0.0158,-0.7853,1,-1.3,0.4,-0.004,0,-0.007,0
2018,5,17,22,12,4.661,-0.2515,0.5657,-0.0159,-0.7851,0.9,-1.2,0.5,-0.006,0.002,-0.005,0
2018,5,17,22,12,4.679,-0.2516,0.5659,-0.0159,-0.7849,-0.1,-1,0.4,-0.006,0.005,-0.009,0
2018,5,17,22,12,4.702,-0.2516,0.5661,-0.0158,-0.7848,-1.1,-1,0.2,-0.007,0.005,-0.007,0
2018,5,17,22,12,4.72,-0.2515,0.5662,-0.0157,-0.7847,-0.8,-0.4,0.4,-0.006,0.005,-0.009,0
2018,5,17,22,12,4.743,-0.2515,0.5663,-0.0156,-0.7846,-0.4,-0.4,0.5,-0.004,0.003,0.002,0
2018,5,17,22,12,4.762,-0.2516,0.5663,-0.0155,-0.7846,0,-0.6,0.7,-0.007,0.001,0.005,0
2018,5,17,22,12,4.784,-0.2518,0.5664,-0.0156,-0.7845,-0.1,-1,1.2,-0.007,0.002,0.005,0
2018,5,17,22,12,4.802,-0.2519,0.5666,-0.0155,-0.7843,0,-1.2,1.1,-0.012,0,-0.001,0
2018,5,17,22,12,4.819,-0.2521,0.5667,-0.0154,-0.7841,-0.6,-1.3,0.9,-0.01,0.001,0,0
2018,5,17,22,12,4.84,-0.2521,0.567,-0.0152,-0.784,-1.1,-1.2,0.5,0.005,-0.002,-0.005,0
2018,5,17,22,12,4.858,-0.2521,0.5673,-0.015,-0.7838,-0.8,-1,0.1,0.009,-0.004,-0.002,0
2018,5,17,22,12,4.882,-0.2521,0.5675,-0.015,-0.7836,0.6,-1.2,0.2,0.005,0,-0.002,0
2018,5,17,22,12,4.899,-0.2523,0.5677,-0.0151,-0.7834,1,-1.4,0.4,0.011,0.004,-0.009,0
2018,5,17,22,12,4.923,-0.2523,0.5679,-0.0153,-0.7832,0.2,-1.1,0.2,0.01,0.003,-0.012,0
2018,5,17,22,12,4.941,-0.2522,0.5682,-0.0153,-0.783,-1.1,-0.7,0.1,-0.001,0.006,-0.012,0
2018,5,17,22,12,4.964,-0.2521,0.5684,-0.0152,-0.7829,-1.5,-0.6,0.1,-0.009,0.005,-0.003,1023
2018,5,17,22,12,5,-0.252,0.5685,-0.0149,-0.7829,-1.4,-0.3,-0.1,-0.012,0,-0.001,1023
2018,5,17,22,12,5.023,-0.2519,0.5684,-0.0147,-0.783,-1.1,-0.2,0.1,-0.017,-0.003,0.004,1023
2018,5,17,22,12,5.028,-0.2519,0.5685,-0.0145,-0.783,-0.7,0,0.4,-0.008,-0.01,0.007,1023
2018,5,17,22,12,5.045,-0.252,0.5684,-0.0144,-0.7829,0,0,0,0.002,-0.006,-0.001,1023
2018,5,17,22,12,5.063,-0.2521,0.5683,-0.0144,-0.783,1.2,0.8,-0.2,-0.003,-0.004,0.002,1023
2018,5,17,22,12,5.081,-0.2523,0.5681,-0.0146,-0.7831,2.1,1.1,0,0.002,0.002,0,1023
2018,5,17,22,12,5.104,-0.2524,0.5678,-0.0149,-0.7832,1.8,1.3,-0.1,0.007,0,-0.002,1023
2018,5,17,22,12,5.123,-0.2526,0.5676,-0.015,-0.7834,1.7,1.4,-0.2,-0.001,-0.001,0.002,1023
2018,5,17,22,12,5.141,-0.2528,0.5673,-0.0152,-0.7835,1.8,1.1,-0.3,-0.002,0,-0.007,1023
2018,5,17,22,12,5.164,-0.2529,0.5671,-0.0154,-0.7836,1.8,0.9,-0.8,-0.008,0,-0.001,1023
2018,5,17,22,12,5.183,-0.253,0.5669,-0.0157,-0.7837,1.3,0.6,-0.8,0,0.003,-0.004,1023
2018,5,17,22,12,5.206,-0.253,0.5668,-0.0159,-0.7838,1,0.5,-0.6,-0.006,0,-0.006,1023
2018,5,17,22,12,5.242,-0.253,0.5667,-0.016,-0.7838,1,0.7,-0.6,-0.006,0.004,-0.009,1023
2018,5,17,22,12,5.265,-0.253,0.5666,-0.0162,-0.7839,0.4,0.7,-0.8,-0.002,0.009,-0.007,1023
2018,5,17,22,12,5.27,-0.2528,0.5665,-0.0163,-0.7841,-0.2,0.8,-0.8,0,0.01,-0.001,1023
2018,5,17,22,12,5.286,-0.2527,0.5663,-0.0163,-0.7842,0.2,0.8,-0.5,-0.002,0.007,-0.002,1023
2018,5,17,22,12,5.305,-0.2526,0.5663,-0.0166,-0.7843,0.5,0.5,-0.3,0.005,0.004,0,1023
2018,5,17,22,12,5.328,-0.2527,0.5661,-0.0167,-0.7844,0.6,0.8,-0.3,-0.003,0,-0.002,1023
2018,5,17,22,12,5.363,-0.2526,0.5661,-0.017,-0.7844,0.5,0.7,-0.3,-0.008,0,-0.003,1023
2018,5,17,22,12,5.387,-0.2527,0.5659,-0.017,-0.7845,0.5,0.5,-0.1,-0.01,0.002,-0.004,1023
2018,5,17,22,12,5.391,-0.2527,0.5659,-0.0169,-0.7845,0,0,0,-0.008,-0.002,-0.004,1023
2018,5,17,22,12,5.406,-0.2527,0.5659,-0.017,-0.7845,0,0,0,-0.011,0.002,0,0
2018,5,17,22,12,5.427,-0.2527,0.5658,-0.0169,-0.7846,0,0,0,-0.009,0.002,0.002,0
2018,5,17,22,12,5.446,-0.2527,0.5658,-0.0169,-0.7846,-0.5,0.3,0,0,0.002,0.001,0
2018,5,17,22,12,5.485,-0.2526,0.5658,-0.017,-0.7846,-0.7,0.5,0,0.002,-0.001,0,0
2018,5,17,22,12,5.485,-0.2526,0.5657,-0.0169,-0.7847,0,0.7,-0.1,0,0,0.006,0
2018,5,17,22,12,5.507,-0.2525,0.5656,-0.0172,-0.7848,0.9,0.7,-0.2,-0.008,-0.001,0.005,0
2018,5,17,22,12,5.528,-0.2526,0.5654,-0.0173,-0.7849,1.2,0.6,-0.3,-0.004,-0.001,0.003,0
2018,5,17,22,12,5.564,-0.2527,0.5652,-0.0175,-0.785,1,0.2,-0.4,-0.005,0.003,0.001,0
2018,5,17,22,12,5.588,-0.2527,0.5652,-0.0178,-0.785,0.7,0,-0.5,0,-0.003,-0.009,0
2018,5,17,22,12,5.593,-0.2527,0.5652,-0.0179,-0.785,0.7,0.3,-0.7,-0.01,-0.002,-0.011,0
2018,5,17,22,12,5.608,-0.2528,0.5652,-0.0181,-0.785,1.2,0.4,-0.4,-0.004,0.001,-0.005,0
2018,5,17,22,12,5.627,-0.2529,0.565,-0.0182,-0.7851,1.6,0.5,0,-0.009,0.008,0.003,0
2018,5,17,22,12,5.645,-0.2531,0.5648,-0.0184,-0.7851,1.2,0.1,0.4,-0.014,0.008,0.003,0
2018,5,17,22,12,5.667,-0.2533,0.5647,-0.0185,-0.7852,0.4,-0.1,0.6,-0.012,0.008,0,0
2018,5,17,22,12,5.686,-0.2533,0.5647,-0.0184,-0.7852,-0.7,-0.1,0.4,0.001,0.004,-0.004,0
2018,5,17,22,12,5.708,-0.2532,0.5647,-0.0182,-0.7851,-1.4,0.1,0.1,0,-0.001,0,0
2018,5,17,22,12,5.747,-0.2532,0.5647,-0.018,-0.7852,0,0,0,0.003,-0.002,0.001,0
2018,5,17,22,12,5.768,-0.2532,0.5647,-0.018,-0.7852,1,0.3,0.1,0.009,-0.007,0.003,0
2018,5,17,22,12,5.77,-0.2534,0.5646,-0.0181,-0.7852,1.3,0.3,0,0.008,-0.005,-0.002,0
2018,5,17,22,12,5.788,-0.2535,0.5645,-0.0183,-0.7852,1.6,0.3,0,0,0.006,0.002,0
2018,5,17,22,12,5.81,-0.2536,0.5644,-0.0185,-0.7852,0,0,0,0,0.009,0,1023
2018,5,17,22,12,5.825,-0.2535,0.5645,-0.0185,-0.7852,-1,-0.1,-0.3,-0.004,0.003,-0.007,1023
2018,5,17,22,12,5.846,-0.2535,0.5645,-0.0184,-0.7852,0,0,0,-0.008,0,-0.009,1023
2018,5,17,22,12,5.882,-0.2535,0.5645,-0.0184,-0.7852,0.6,0.4,0.2,-0.01,0.001,-0.002,1023
2018,5,17,22,12,5.904,-0.2536,0.5644,-0.0184,-0.7853,0,0,0,-0.012,0.002,0.002,1023
2018,5,17,22,12,5.906,-0.2535,0.5644,-0.0184,-0.7853,-0.9,0,0.1,-0.007,0.002,0.003,1023
2018,5,17,22,12,5.943,-0.2535,0.5644,-0.0183,-0.7853,-1.1,0,0.2,-0.004,-0.004,0.003,1023
2018,5,17,22,12,5.965,-0.2535,0.5644,-0.0181,-0.7853,0,0,0,-0.002,-0.004,0.002,1023
2018,5,17,22,12,5.969,-0.2536,0.5643,-0.0181,-0.7853,0.9,0,0,-0.002,-0.003,0.006,1023
2018,5,17,22,12,6.006,-0.2537,0.5643,-0.0185,-0.7853,1.5,0,0,-0.003,0.008,0.002,1023
2018,5,17,22,12,6.028,-0.2538,0.5642,-0.0187,-0.7854,0.6,0,0,0,0.006,0.003,1023
2018,5,17,22,12,6.032,-0.2538,0.5642,-0.0187,-0.7854,0,0,0,0.002,-0.003,-0.004,1023
2018,5,17,22,12,6.07,-0.2538,0.5642,-0.0186,-0.7853,0,0,0,0,-0.004,-0.006,1023
2018,5,17,22,12,6.092,-0.2539,0.5642,-0.0187,-0.7853,1.2,0.1,-0.3,-0.008,-0.004,-0.005,1023
2018,5,17,22,12,6.094,-0.254,0.5641,-0.0191,-0.7853,1.8,0,-0.3,-0.012,0.009,-0.004,1023
2018,5,17,22,12,6.131,-0.254,0.5641,-0.0194,-0.7853,0.7,0.1,0,-0.003,0.005,-0.007,1023
2018,5,17,22,12,6.152,-0.254,0.5641,-0.0194,-0.7853,0,0,0,0,-0.001,-0.008,1023
2018,5,17,22,12,6.155,-0.254,0.5641,-0.0192,-0.7853,-0.6,0.3,0,-0.003,-0.002,-0.004,1023
2018,5,17,22,12,6.17,-0.254,0.5641,-0.0191,-0.7853,0,0,0,-0.002,0.003,0.005,1023
2018,5,17,22,12,6.207,-0.254,0.564,-0.0191,-0.7854,0,0,0,-0.001,0.007,0.008,1023
2018,5,17,22,12,6.229,-0.254,0.564,-0.0191,-0.7854,0,0,0,0.002,0.003,0,1023
2018,5,17,22,12,6.231,-0.254,0.564,-0.0191,-0.7854,0,0,0,0,0,0.007,0
2018,5,17,22,12,6.265,-0.2541,0.564,-0.019,-0.7854,0,0,0,-0.005,-0.004,-0.003,0
2018,5,17,22,12,6.286,-0.2541,0.564,-0.0193,-0.7854,0.9,0,-0.2,-0.007,0.001,-0.003,0
2018,5,17,22,12,6.293,-0.2541,0.564,-0.0194,-0.7854,0,0,0,-0.007,0.006,-0.005,0
2018,5,17,22,12,6.328,-0.2541,0.564,-0.0195,-0.7854,0,0,0,-0.002,0.005,0,0
2018,5,17,22,12,6.351,-0.254,0.564,-0.0194,-0.7854,-0.6,-0.3,-0.2,-0.006,0.001,0.002,0
2018,5,17,22,12,6.356,-0.254,0.564,-0.0193,-0.7854,0,0,0,-0.002,-0.001,0,0
2018,5,17,22,12,6.374,-0.254,0.564,-0.0193,-0.7854,-0.2,-0.6,-0.1,-0.003,0.004,0.001,0
2018,5,17,22,12,6.398,-0.254,0.564,-0.0193,-0.7854,0,0,0,-0.005,0.006,0.001,0
2018,5,17,22,12,6.412,-0.254,0.5641,-0.0193,-0.7853,-0.7,-0.3,0.1,-0.005,0.003,-0.002,0
2018,5,17,22,12,6.432,-0.254,0.5642,-0.0191,-0.7853,-0.9,-0.3,0.1,-0.001,-0.003,-0.002,0
2018,5,17,22,12,6.453,-0.254,0.5642,-0.019,-0.7853,0,0,0,-0.007,-0.001,0.002,0
2018,5,17,22,12,6.476,-0.254,0.5642,-0.019,-0.7853,0,-0.7,0.1,-0.007,0.001,0,0
2018,5,17,22,12,6.512,-0.2541,0.5643,-0.019,-0.7852,0,-0.9,0.1,-0.007,0.011,-0.002,0
2018,5,17,22,12,6.535,-0.2541,0.5644,-0.0191,-0.7851,-0.2,-0.6,0.5,0,0.01,-0.005,0
2018,5,17,22,12,6.54,-0.2541,0.5646,-0.019,-0.785,-0.7,-0.4,0.9,0,0.006,-0.008,0
2018,5,17,22,12,6.555,-0.2541,0.5647,-0.0188,-0.7849,-1.5,-0.6,0.7,0.002,-0.005,-0.003,0
2018,5,17,22,12,6.578,-0.2541,0.5648,-0.0185,-0.7848,-0.7,-0.4,0.4,-0.005,-0.01,0,0
2018,5,17,22,12,6.594,-0.2542,0.5648,-0.0183,-0.7848,-0.1,-0.9,0.2,-0.009,-0.008,0.007,0
2018,5,17,22,12,6.613,-0.2543,0.5649,-0.0183,-0.7847,0.9,-1.2,0.3,-0.01,0,0.001,0
2018,5,17,22,12,6.634,-0.2545,0.565,-0.0185,-0.7845,0.7,-1.5,0.2,-0.004,0.005,-0.001,0
2018,5,17,22,12,6.652,-0.2545,0.5652,-0.0186,-0.7844,0.4,-1.3,0.1,0.002,0.003,-0.002,0
2018,5,17,22,12,6.673,-0.2546,0.5654,-0.0187,-0.7842,0.5,-0.9,0.1,0.003,0.004,-0.003,0
2018,5,17,22,12,6.712,-0.2547,0.5655,-0.0188,-0.7841,0.7,-0.9,0.5,0,0.001,-0.006,0
2018,5,17,22,12,6.735,-0.2549,0.5656,-0.0189,-0.784,0.2,-0.9,0.5,-0.002,0,-0.004,0
2018,5,17,22,12,6.74,-0.2549,0.5658,-0.0189,-0.7838,0,-0.8,0.3,0,0.003,-0.003,0
2018,5,17,22,12,6.756,-0.2549,0.5659,-0.0189,-0.7838,-0.4,-0.7,0.4,-0.006,0.003,0.001,1023
2018,5,17,22,12,6.779,-0.255,0.5659,-0.0188,-0.7837,0,-0.6,0.7,-0.008,0.004,-0.003,1023
2018,5,17,22,12,6.797,-0.2551,0.566,-0.0187,-0.7836,-0.1,-0.6,0.6,-0.007,-0.001,-0.001,1023
2018,5,17,22,12,6.82,-0.2552,0.5661,-0.0187,-0.7835,0,-0.6,0.6,-0.008,-0.002,0.003,1023
2018,5,17,22,12,6.841,-0.2554,0.5661,-0.0186,-0.7834,0.8,-0.4,0.7,-0.003,-0.002,-0.001,1023
2018,5,17,22,12,6.857,-0.2556,0.5661,-0.0187,-0.7834,1,-0.4,0.7,-0.009,0.004,0.001,1023
2018,5,17,22,12,6.894,-0.2557,0.5662,-0.0187,-0.7833,0,-0.6,0.6,-0.002,-0.003,0,1023
2018,5,17,22,12,6.894,-0.2558,0.5663,-0.0186,-0.7832,-0.3,-0.7,0.3,0,-0.003,-0.002,1023
2018,5,17,22,12,6.916,-0.2559,0.5665,-0.0185,-0.783,0.7,-0.5,0.2,0.005,-0.004,-0.012,1023
2018,5,17,22,12,6.934,-0.2559,0.5666,-0.019,-0.7829,0.9,-0.4,-0.1,-0.004,0.008,-0.009,1023
2018,5,17,22,12,6.957,-0.2558,0.5667,-0.0191,-0.7829,0,0,0,-0.001,0.013,-0.011,1023
2018,5,17,22,12,6.994,-0.2556,0.5669,-0.019,-0.7828,-1.8,0.1,-0.3,0.003,0.01,-0.01,1023
2018,5,17,22,12,7.015,-0.2553,0.567,-0.0188,-0.7828,-2,0.3,-0.4,0.002,-0.003,-0.006,1023
2018,5,17,22,12,7.018,-0.2551,0.567,-0.0185,-0.7829,-1,0.4,-0.4,-0.002,-0.001,0.002,1023
2018,5,17,22,12,7.054,-0.2551,0.5669,-0.0184,-0.783,0,0,0,-0.009,-0.003,0.009,1023
2018,5,17,22,12,7.077,-0.2552,0.5668,-0.0183,-0.783,0,0,0,-0.01,-0.001,0.005,1023
2018,5,17,22,12,7.081,-0.2552,0.5668,-0.0183,-0.783,0.1,-0.5,0.2,-0.012,0.001,0.004,1023
2018,5,17,22,12,7.119,-0.2554,0.5668,-0.0183,-0.7829,0.6,-0.4,0.4,-0.01,0,0,1023
2018,5,17,22,12,7.119,-0.2555,0.5669,-0.0184,-0.7829,0,0,0,0,0.003,-0.01,1023
2018,5,17,22,12,7.142,-0.2554,0.5669,-0.0184,-0.7829,0,0,0,-0.005,0.002,-0.001,1023
2018,5,17,22,12,7.16,-0.2555,0.5669,-0.0184,-0.7829,0.5,0.3,0.2,0.004,0,0.002,1023
2018,5,17,22,12,7.183,-0.2556,0.5668,-0.0184,-0.7829,1,0.4,0.4,0.003,-0.004,0,1023
2018,5,17,22,12,7.199,-0.2558,0.5667,-0.0185,-0.7829,1,0.3,0,-0.001,0,-0.003,0
2018,5,17,22,12,7.221,-0.2559,0.5666,-0.0186,-0.7829,0.7,0,-0.1,-0.005,0.003,-0.004,0
2018,5,17,22,12,7.238,-0.2559,0.5666,-0.0187,-0.7829,0,0,0,-0.005,0.001,-0.006,0
2018,5,17,22,12,7.262,-0.2559,0.5666,-0.0186,-0.7829,0,0,0,0,-0.001,-0.008,0
2018,5,17,22,12,7.279,-0.2559,0.5667,-0.0186,-0.7828,0,0,0,0,-0.005,-0.005,0
2018,5,17,22,12,7.302,-0.2559,0.5666,-0.0185,-0.7829,0,0,0,-0.009,0,0,0
2018,5,17,22,12,7.321,-0.2559,0.5666,-0.0185,-0.7829,0,0,0,-0.011,0.005,0.005,0
2018,5,17,22,12,7.344,-0.2559,0.5665,-0.0186,-0.783,0,0,0,0.003,0.003,-0.001,0
2018,5,17,22,12,7.38,-0.2558,0.5666,-0.0187,-0.783,0,0,0,0.002,0,0.002,0
2018,5,17,22,12,7.403,-0.2558,0.5665,-0.0188,-0.783,1,0.3,-0.2,0,0,0,0
2018,5,17,22,12,7.408,-0.256,0.5664,-0.019,-0.7831,1.8,0.6,0,-0.001,0.004,0,0
2018,5,17,22,12,7.421,-0.2561,0.5662,-0.0192,-0.7831,1.3,0.5,0.2,-0.003,0.001,0.002,0
2018,5,17,22,12,7.44,-0.2562,0.5661,-0.0193,-0.7832,0,0,0,-0.004,0.002,-0.004,0
2018,5,17,22,12,7.463,-0.2562,0.566,-0.0192,-0.7832,-0.5,0.6,-0.3,-0.002,0,-0.006,0
2018,5,17,22,12,7.481,-0.2561,0.5659,-0.0191,-0.7833,-0.4,0.8,-0.3,-0.004,-0.003,-0.006,0
2018,5,17,22,12,7.504,-0.2561,0.5658,-0.0191,-0.7834,0.5,0.5,-0.3,-0.004,0.001,0,0
2018,5,17,22,12,7.523,-0.2561,0.5657,-0.0192,-0.7835,0.9,0.4,-0.1,-0.004,0.004,-0.005,0
2018,5,17,22,12,7.543,-0.2561,0.5657,-0.0193,-0.7835,0,0,0,-0.001,0.008,-0.008,0
2018,5,17,22,12,7.58,-0.256,0.5657,-0.0193,-0.7835,-0.8,0.6,-0.2,0,0.002,-0.007,0
2018,5,17,22,12,7.603,-0.2559,0.5657,-0.0191,-0.7836,-1.5,0.4,-0.4,-0.004,-0.001,-0.003,0
2018,5,17,22,12,7.608,-0.2557,0.5657,-0.0191,-0.7836,-0.9,0.2,-0.2,-0.008,-0.001,0.007,0
2018,5,17,22,12,7.622,-0.2557,0.5657,-0.0191,-0.7837,0,0,0,-0.011,0.002,0.001,0
2018,5,17,22,12,7.64,-0.2557,0.5656,-0.019,-0.7837,0,0,0,-0.004,0.002,0.004,0
2018,5,17,22,12,7.662,-0.2557,0.5656,-0.019,-0.7837,0,0,0,-0.003,0,0.005,1023
2018,5,17,22,12,7.699,-0.2557,0.5655,-0.019,-0.7837,0.5,0.4,-0.1,-0.007,-0.002,0,1023
2018,5,17,22,12,7.722,-0.2558,0.5655,-0.019,-0.7838,0,0,0,-0.003,0,-0.001,1023
2018,5,17,22,12,7.726,-0.2558,0.5655,-0.019,-0.7838,0.5,0.4,-0.3,-0.004,0,-0.002,1023
2018,5,17,22,12,7.742,-0.2558,0.5654,-0.0191,-0.7838,0.9,0.5,0,-0.007,0.008,-0.001,1023
2018,5,17,22,12,7.765,-0.2559,0.5652,-0.0192,-0.7839,0,0,0,-0.009,0.009,0,1023
2018,5,17,22,12,7.784,-0.2558,0.5652,-0.0192,-0.7839,-1.4,0.1,0.3,0.002,0.001,-0.004,1023
2018,5,17,22,12,7.807,-0.2557,0.5652,-0.0189,-0.784,-1.1,0.3,0.1,-0.001,-0.002,-0.003,1023
2018,5,17,22,12,7.825,-0.2557,0.5653,-0.019,-0.7839,0,0,0,-0.011,-0.002,0,1023
2018,5,17,22,12,7.848,-0.2557,0.5653,-0.019,-0.7839,0,0,0,0.001,0.003,0.001,1023
2018,5,17,22,12,7.866,-0.2557,0.5653,-0.019,-0.7839,-0.5,0.1,0,0.004,-0.002,0,1023
2018,5,17,22,12,7.887,-0.2557,0.5653,-0.0189,-0.7839,0,0,0,0.004,0,0,1023
2018,5,17,22,12,7.926,-0.2557,0.5653,-0.0189,-0.784,0.5,0.1,-0.1,-0.004,0.004,0.004,1023
2018,5,17,22,12,7.931,-0.2557,0.5652,-0.0191,-0.784,0.8,0,-0.1,-0.013,0.005,0.004,1023
2018,5,17,22,12,7.945,-0.2557,0.5652,-0.0192,-0.784,0,0,0,0,0.003,0.004,1023
2018,5,17,22,12,7.963,-0.2557,0.5651,-0.0192,-0.784,-0.5,0.1,-0.1,0,-0.006,0.001,1023
2018,5,17,22,12,7.986,-0.2557,0.5651,-0.0191,-0.784,0,0,0,-0.001,-0.002,0.004,1023
2018,5,17,22,12,8.005,-0.2557,0.5651,-0.0191,-0.7841,-0.3,0,-0.5,-0.005,0,0.003,1023
2018,5,17,22,12,8.028,-0.2556,0.565,-0.019,-0.7841,-0.7,-0.1,-0.9,-0.004,0.002,0.009,1023
2018,5,17,22,12,8.046,-0.2555,0.565,-0.0191,-0.7842,-0.2,-0.6,-0.6,-0.01,0,0.009,1023
2018,5,17,22,12,8.067,-0.2554,0.565,-0.0191,-0.7842,-0.4,-1,-0.4,-0.012,0.004,0.004,1023
2018,5,17,22,12,8.086,-0.2552,0.5652,-0.0192,-0.7841,-0.7,-0.9,-0.9,-0.006,-0.003,-0.002,1023
2018,5,17,22,12,8.109,-0.2551,0.5654,-0.0193,-0.784,0.2,-0.3,-0.6,-0.006,0.003,-0.012,0
2018,5,17,22,12,8.127,-0.2551,0.5655,-0.0195,-0.784,1,0,-0.5,-0.007,0.01,-0.01,0
2018,5,17,22,12,8.151,-0.2551,0.5655,-0.0197,-0.784,0,0,0,0,0.008,-0.005,0
2018,5,17,22,12,8.187,-0.2549,0.5656,-0.0199,-0.7839,-1,-0.3,-0.2,0.001,0.005,0.001,0
2018,5,17,22,12,8.187,-0.2546,0.5658,-0.02,-0.7839,-1.4,-0.4,-0.1,-0.003,0.003,0,0
2018,5,17,22,12,8.21,-0.2544,0.566,-0.0203,-0.7838,-1.1,-0.6,0,-0.003,-0.001,0,0
2018,5,17,22,12,8.228,-0.2543,0.5662,-0.0201,-0.7837,-1,-0.3,0.1,-0.001,0,-0.001,0
2018,5,17,22,12,8.247,-0.2542,0.5662,-0.02,-0.7837,-0.5,-0.1,0,-0.005,-0.001,0.001,0
2018,5,17,22,12,8.27,-0.2543,0.5662,-0.0199,-0.7837,0,0,0,-0.008,0.003,0.003,0
2018,5,17,22,12,8.288,-0.2543,0.5661,-0.0199,-0.7838,0,0,0,-0.003,0.004,0.006,0
2018,5,17,22,12,8.31,-0.2542,0.5661,-0.0199,-0.7838,-0.6,-0.3,-0.3,-0.003,0.003,0.008,0
2018,5,17,22,12,8.348,-0.2542,0.5661,-0.0198,-0.7839,0,0,0,-0.003,0.004,0,0
2018,5,17,22,12,8.348,-0.2542,0.5661,-0.0199,-0.7838,0,0,0,0.002,0.004,-0.007,0
2018,5,17,22,12,8.371,-0.2542,0.5661,-0.0199,-0.7838,0,0,0,-0.001,0.001,-0.004,0
2018,5,17,22,12,8.389,-0.2542,0.566,-0.0198,-0.7839,0,0.7,0.1,-0.003,0,-0.007,0
2018,5,17,22,12,8.412,-0.2542,0.566,-0.0199,-0.7839,-0.1,0.7,0.1,-0.004,0,0.001,0
2018,5,17,22,12,8.428,-0.2543,0.5658,-0.0199,-0.784,0.3,0.7,0,-0.005,-0.003,0.003,0
2018,5,17,22,12,8.446,-0.2543,0.5657,-0.0198,-0.784,0,0,0,-0.008,-0.003,0.006,0
2018,5,17,22,12,8.469,-0.2544,0.5657,-0.0198,-0.7841,0,0,0,0,0,-0.001,0
2018,5,17,22,12,8.49,-0.2544,0.5657,-0.0198,-0.7841,0.7,-0.4,-0.6,0.004,0.002,-0.005,0
2018,5,17,22,12,8.508,-0.2544,0.5657,-0.0199,-0.784,0.9,0,-0.6,0.003,0.004,-0.001,0
2018,5,17,22,12,8.531,-0.2543,0.5657,-0.0201,-0.7841,0.4,-0.1,-0.6,-0.001,0.009,-0.002,1023
2018,5,17,22,12,8.552,-0.2543,0.5656,-0.0203,-0.7841,0.6,0,-0.5,-0.004,0.009,0,1023
2018,5,17,22,12,8.57,-0.2543,0.5656,-0.0203,-0.7841,0,0,0,-0.006,0.007,-0.002,1023
2018,5,17,22,12,8.593,-0.2543,0.5656,-0.0203,-0.7841,0,0,0,-0.003,0.004,0.003,1023
2018,5,17,22,12,8.612,-0.2543,0.5656,-0.0203,-0.7841,0,0,0,-0.008,0,0.003,1023
2018,5,17,22,12,8.634,-0.2543,0.5655,-0.0203,-0.7842,0,0,0,-0.01,-0.002,0.004,1023
2018,5,17,22,12,8.652,-0.2544,0.5655,-0.0202,-0.7841,0,-0.6,0,-0.007,-0.001,0,1023
2018,5,17,22,12,8.675,-0.2544,0.5656,-0.0202,-0.7841,-0.2,-0.6,-0.1,-0.01,0.002,-0.002,1023
2018,5,17,22,12,8.691,-0.2543,0.5657,-0.0202,-0.784,-0.4,-0.6,0,-0.006,0.006,0,1023
2018,5,17,22,12,8.709,-0.2543,0.5657,-0.0202,-0.784,0,0,0,-0.006,0.01,0.001,1023
2018,5,17,22,12,8.732,-0.2542,0.5658,-0.0201,-0.784,-1.5,-0.4,0.1,-0.002,0.002,0,1023
2018,5,17,22,12,8.768,-0.2541,0.5659,-0.0199,-0.784,-1.2,-0.4,0,0.001,-0.004,0.008,1023
2018,5,17,22,12,8.792,-0.2542,0.5659,-0.0198,-0.7839,0.4,-0.5,0,-0.002,-0.006,0.008,1023
2018,5,17,22,12,8.796,-0.2542,0.566,-0.0202,-0.7839,1.3,-0.9,0.1,-0.005,0.002,0.004,1023
2018,5,17,22,12,8.839,-0.2544,0.5661,-0.0204,-0.7838,0.7,-1.2,0,-0.006,0.001,0.002,1023
2018,5,17,22,12,8.842,-0.2543,0.5663,-0.0207,-0.7836,0.4,-0.9,-0.1,0,0.004,-0.01,1023
2018,5,17,22,12,8.853,-0.2543,0.5665,-0.021,-0.7835,0.4,-0.7,-0.1,-0.001,0.003,-0.006,1023
2018,5,17,22,12,8.891,-0.2544,0.5666,-0.0211,-0.7834,0.2,-0.7,0.1,-0.007,0.006,-0.002,1023
2018,5,17,22,12,8.91,-0.2544,0.5667,-0.0212,-0.7833,-0.3,-0.8,0.2,-0.007,0.005,-0.005,1023
2018,5,17,22,12,8.914,-0.2543,0.5669,-0.0211,-0.7832,-0.8,-0.7,0.2,-0.004,0.007,-0.005,1023
2018,5,17,22,12,8.949,-0.2543,0.567,-0.021,-0.7831,-1.2,-1.1,0.4,-0.008,0,0,1023
2018,5,17,22,12,8.97,-0.2542,0.5672,-0.0208,-0.783,-1.2,-1.2,0.6,-0.005,0.003,-0.001,0
2018,5,17,22,12,8.973,-0.2542,0.5674,-0.0205,-0.7828,-1.5,-1.5,0.4,-0.005,-0.001,0,0
2018,5,17,22,12,9.009,-0.2542,0.5677,-0.0203,-0.7827,-1.3,-1.5,0.2,-0.004,-0.003,0,0
2018,5,17,22,12,9.032,-0.2541,0.5679,-0.0201,-0.7825,-1,-1.4,0,-0.006,0.002,-0.001,0
2018,5,17,22,12,9.036,-0.254,0.5681,-0.02,-0.7824,-1.3,-1.5,-0.1,-0.002,0.003,0.002,0
2018,5,17,22,12,9.071,-0.2539,0.5683,-0.02,-0.7823,-0.6,-1.5,0,-0.004,-0.003,0.003,0
2018,5,17,22,12,9.092,-0.2539,0.5685,-0.02,-0.7821,0.3,-1.7,0.1,0,-0.002,-0.001,0
2018,5,17,22,12,9.096,-0.2541,0.5687,-0.0201,-0.782,1,-1.3,0,-0.002,-0.005,-0.006,0
2018,5,17,22,12,9.134,-0.2542,0.5688,-0.0203,-0.7818,1,-0.9,-0.3,0,0,0,0
2018,5,17,22,12,9.157,-0.2541,0.569,-0.0207,-0.7817,0.7,-1,-0.4,0.001,0.004,0,0
2018,5,17,22,12,9.162,-0.2541,0.5691,-0.0209,-0.7816,0.5,-0.9,-0.4,0.003,0.003,-0.012,0
2018,5,17,22,12,9.177,-0.254,0.5693,-0.0213,-0.7815,1.1,-0.6,-0.2,-0.005,0.007,-0.005,0
2018,5,17,22,12,9.201,-0.254,0.5694,-0.0216,-0.7814,0.9,-0.4,-0.1,-0.006,0.01,-0.013,0
2018,5,17,22,12,9.214,-0.2541,0.5695,-0.0218,-0.7813,0.9,0,0.6,-0.01,0.017,-0.013,0
2018,5,17,22,12,9.233,-0.2541,0.5695,-0.0218,-0.7813,-0.7,0.5,0.8,-0.006,0.017,-0.018,0
2018,5,17,22,12,9.254,-0.2541,0.5696,-0.0215,-0.7813,-2.2,1.4,1.4,-0.003,0.011,-0.016,0
2018,5,17,22,12,9.291,-0.2539,0.5695,-0.0209,-0.7814,-4.2,1.5,1.4,-0.006,0.005,-0.001,0
2018,5,17,22,12,9.314,-0.2537,0.5695,-0.02,-0.7815,-5.6,1,1.4,-0.004,-0.002,0.01,0
2018,5,17,22,12,9.319,-0.2533,0.5696,-0.0189,-0.7816,-5.7,0.3,0.7,-0.005,-0.026,0.016,0
2018,5,17,22,12,9.356,-0.2531,0.5698,-0.0181,-0.7816,-3.5,-0.4,0.2,-0.008,-0.029,0.016,0
2018,5,17,22,12,9.356,-0.253,0.5699,-0.0178,-0.7815,-0.8,-1,-0.1,-0.006,-0.009,0.005,0
2018,5,17,22,12,9.378,-0.2529,0.57,-0.0179,-0.7814,0.1,-1,-0.3,-0.001,0.007,-0.002,0
2018,5,17,22,12,9.397,-0.2528,0.5701,-0.018,-0.7814,0,-0.4,-0.5,0,0.009,-0.004,0
2018,5,17,22,12,9.415,-0.2528,0.5702,-0.0181,-0.7814,0,0,0,0.002,0.007,-0.004,0
2018,5,17,22,12,9.433,-0.2527,0.5702,-0.018,-0.7813,0,0,0,0,0,-0.014,0
2018,5,17,22,12,9.457,-0.2527,0.5703,-0.018,-0.7813,-0.1,0.5,-0.3,0.005,-0.003,-0.011,0
2018,5,17,22,12,9.475,-0.2527,0.5702,-0.0179,-0.7814,0.1,0.8,-0.4,0,-0.002,-0.001,1023
2018,5,17,22,12,9.498,-0.2527,0.5701,-0.0179,-0.7815,0,0,0,-0.008,0.004,0.009,1023
2018,5,17,22,12,9.517,-0.2528,0.57,-0.0179,-0.7815,0,0,0,-0.013,0.002,0,1023
2018,5,17,22,12,9.54,-0.2528,0.57,-0.0179,-0.7815,0,0,0,-0.002,-0.002,-0.009,1023
2018,5,17,22,12,9.559,-0.2528,0.57,-0.0178,-0.7815,0.4,0.5,-0.2,0,0.001,-0.005,1023
2018,5,17,22,12,9.577,-0.2529,0.5698,-0.0179,-0.7816,0.9,1,-0.1,-0.006,0.004,-0.003,1023
2018,5,17,22,12,9.6,-0.253,0.5696,-0.018,-0.7817,1.2,1.4,0,-0.007,0.003,0.001,1023
2018,5,17,22,12,9.619,-0.2532,0.5693,-0.018,-0.7819,1.7,1.4,0.2,-0.01,-0.001,0.002,1023
2018,5,17,22,12,9.642,-0.2534,0.569,-0.0184,-0.782,2.1,1,0.1,-0.005,0.002,0.007,1023
2018,5,17,22,12,9.678,-0.2536,0.5688,-0.0188,-0.7821,1.9,0.4,-0.1,-0.003,0.006,0.001,1023
2018,5,17,22,12,9.678,-0.2537,0.5687,-0.019,-0.7821,1,0,-0.1,0.006,0.006,-0.003,1023
2018,5,17,22,12,9.7,-0.2537,0.5687,-0.0191,-0.7821,0.9,0.4,-0.1,0.004,0,-0.008,1023
2018,5,17,22,12,9.716,-0.2539,0.5686,-0.0192,-0.7821,1.5,0.3,0,0.001,-0.002,-0.004,1023
2018,5,17,22,12,9.736,-0.254,0.5685,-0.0196,-0.7821,1.2,0.4,-0.2,0.001,0.001,-0.003,1023
2018,5,17,22,12,9.771,-0.254,0.5685,-0.0197,-0.7822,0.7,0.3,-0.2,-0.004,0.003,-0.006,1023
2018,5,17,22,12,9.792,-0.2541,0.5684,-0.0197,-0.7822,0,0,0,-0.004,0.003,0.002,1023
2018,5,17,22,12,9.799,-0.2541,0.5684,-0.0197,-0.7822,0,0,0,-0.008,0.005,-0.003,1023
2018,5,17,22,12,9.836,-0.2541,0.5684,-0.0197,-0.7822,0,0,0,-0.008,0.001,0.001,1023
2018,5,17,22,12,9.857,-0.2541,0.5684,-0.0196,-0.7822,-0.5,0.4,0,-0.005,-0.001,-0.001,1023
2018,5,17,22,12,9.86,-0.2541,0.5683,-0.0195,-0.7823,0,0,0,-0.015,0.002,0.007,1023
2018,5,17,22,12,9.895,-0.2541,0.5682,-0.0195,-0.7823,0,0,0,-0.005,0.003,0,1023
2018,5,17,22,12,9.918,-0.2542,0.5681,-0.0195,-0.7823,0,0,0,-0.004,0.003,-0.006,0
2018,5,17,22,12,9.923,-0.2542,0.5681,-0.0195,-0.7824,0.2,0.5,0.1,0.001,-0.002,0.003,0
2018,5,17,22,12,9.959,-0.2542,0.5681,-0.0195,-0.7824,0,0,0,0,0.001,0,0
2018,5,17,22,12,9.981,-0.2543,0.568,-0.0195,-0.7824,0.6,0.3,0,-0.002,0,0.002,0
2018,5,17,22,12,9.986,-0.2544,0.5679,-0.0195,-0.7825,1,0.4,0,-0.006,0.004,-0.001,0
2018,5,17,22,12,10.001,-0.2544,0.5678,-0.0196,-0.7825,0,0,0,-0.004,0.006,0.001,0
2018,5,17,22,12,10.038,-0.2544,0.5678,-0.0197,-0.7825,0,0,0,-0.003,0.001,-0.004,0
2018,5,17,22,12,10.038,-0.2545,0.5678,-0.0196,-0.7825,0.6,0.2,-0.1,-0.005,-0.008,-0.01,0
2018,5,17,22,12,10.061,-0.2545,0.5677,-0.0197,-0.7825,0.7,0,-0.4,-0.005,-0.004,-0.005,0
2018,5,17,22,12,10.1,-0.2545,0.5677,-0.0198,-0.7825,0,0,0,-0.006,0.005,-0.004,0
2018,5,17,22,12,10.123,-0.2545,0.5677,-0.0198,-0.7825,0,0,0,-0.002,0.006,-0.003,0
2018,5,17,22,12,10.128,-0.2545,0.5677,-0.0198,-0.7825,0,0,0,-0.003,0.012,-0.003,0
2018,5,17,22,12,10.144,-0.2545,0.5677,-0.0199,-0.7826,0,0,0,-0.006,0.007,0,0
2018,5,17,22,12,10.182,-0.2545,0.5676,-0.0199,-0.7826,-0.1,0.5,0.3,-0.004,0.002,0,0
2018,5,17,22,12,10.205,-0.2546,0.5675,-0.0198,-0.7827,-0.1,0.6,0.6,-0.009,0.001,0.004,0
2018,5,17,22,12,10.21,-0.2547,0.5674,-0.0196,-0.7827,-0.3,0.7,0.4,-0.011,-0.005,0.006,0
2018,5,17,22,12,10.224,-0.2547,0.5674,-0.0196,-0.7828,-0.9,0.5,0.1,0,-0.007,0,0
2018,5,17,22,12,10.261,-0.2546,0.5673,-0.0195,-0.7828,0,0,0,0,-0.008,0.006,0
2018,5,17,22,12,10.283,-0.2546,0.5672,-0.0197,-0.7829,1.8,0.1,-0.3,-0.001,0.006,0.005,0
2018,5,17,22,12,10.288,-0.2548,0.5671,-0.02,-0.7829,2,-0.2,0,0.002,0.012,0.001,0
2018,5,17,22,12,10.304,-0.2548,0.5671,-0.0204,-0.7829,0.7,0,-0.1,-0.001,0.007,-0.008,0
2018,5,17,22,12,10.323,-0.2548,0.5672,-0.0205,-0.7828,0,0,0,-0.003,0,-0.008,0
2018,5,17,22,12,10.346,-0.2546,0.5672,-0.0206,-0.7828,-0.6,0.4,0,-0.007,-0.001,-0.003,1023
2018,5,17,22,12,10.364,-0.2545,0.5673,-0.0207,-0.7828,-0.3,0.6,-0.1,-0.007,-0.002,0,1023
2018,5,17,22,12,10.388,-0.2545,0.5671,-0.0206,-0.7829,0,0.7,-0.2,-0.005,0,0.004,1023
2018,5,17,22,12,10.406,-0.2545,0.5671,-0.0207,-0.783,0.1,0.6,-0.1,-0.006,0.001,0,1023
2018,5,17,22,12,10.429,-0.2545,0.5669,-0.0208,-0.7831,0,0.6,-0.4,-0.004,0,0,1023
2018,5,17,22,12,10.443,-0.2544,0.5668,-0.0208,-0.7832,-0.1,0.5,-0.6,-0.006,0.001,0.003,1023
2018,5,17,22,12,10.482,-0.2544,0.5667,-0.0208,-0.7833,0.5,0.4,-0.4,-0.002,-0.001,0.004,1023
2018,5,17,22,12,10.505,-0.2545,0.5666,-0.0209,-0.7833,1.2,0.3,-0.3,-0.012,-0.001,0.007,1023
2018,5,17,22,12,10.51,-0.2546,0.5664,-0.021,-0.7834,1,0,-0.3,-0.009,0.007,-0.002,1023
2018,5,17,22,12,10.525,-0.2546,0.5664,-0.0214,-0.7834,0,0,0,-0.005,0.011,-0.004,1023
2018,5,17,22,12,10.544,-0.2546,0.5664,-0.0214,-0.7834,0,0,0,-0.003,0.005,-0.004,1023
2018,5,17,22,12,10.566,-0.2546,0.5665,-0.0214,-0.7834,0,0,0,-0.003,-0.003,-0.003,1023
2018,5,17,22,12,10.585,-0.2546,0.5665,-0.0213,-0.7834,0,0,0,-0.002,-0.003,-0.004,1023
2018,5,17,22,12,10.608,-0.2547,0.5665,-0.0212,-0.7833,0,0,0,0,0.001,-0.005,1023
2018,5,17,22,12,10.644,-0.2547,0.5665,-0.0212,-0.7833,0,0,0,0,0.001,0.004,1023
2018,5,17,22,12,10.667,-0.2547,0.5664,-0.0212,-0.7834,0.5,0,-0.1,-0.004,0.005,0.008,1023
2018,5,17,22,12,10.672,-0.2548,0.5663,-0.0213,-0.7835,0,0,0,-0.006,0.005,0.007,1023
2018,5,17,22,12,10.691,-0.2548,0.5662,-0.0212,-0.7835,0,0,0,0,0.002,0,1023
2018,5,17,22,12,10.728,-0.2548,0.5662,-0.0212,-0.7835,0,0,0,-0.002,-0.001,0,1023
2018,5,17,22,12,10.728,-0.2549,0.5661,-0.0213,-0.7835,0.7,-0.2,-0.1,-0.007,0.004,0.001,0
2018,5,17,22,12,10.75,-0.2549,0.5661,-0.0214,-0.7835,0.4,-0.6,0,-0.015,0.011,0,0
2018,5,17,22,12,10.766,-0.2549,0.5661,-0.0214,-0.7835,-0.3,-0.7,0.1,-0.011,0.007,-0.002,0
2018,5,17,22,12,10.804,-0.2548,0.5663,-0.0215,-0.7834,-1.1,-0.7,0.4,-0.003,0.003,-0.005,0
2018,5,17,22,12,10.827,-0.2547,0.5666,-0.0217,-0.7832,-0.9,-0.7,0.5,-0.006,-0.006,0,0
2018,5,17,22,12,10.832,-0.2548,0.5667,-0.0216,-0.7832,0.1,-0.6,0.6,-0.007,0,-0.003,0
2018,5,17,22,12,10.848,-0.2549,0.5667,-0.0216,-0.7831,0.1,-0.7,0.4,-0.009,0.012,0.006,0
2018,5,17,22,12,10.871,-0.2549,0.5668,-0.0216,-0.7831,-0.3,-0.9,0.2,0.002,0.005,-0.002,0
2018,5,17,22,12,10.889,-0.2549,0.5669,-0.0215,-0.783,-0.3,-0.7,0.7,-0.001,-0.001,0,0
2018,5,17,22,12,10.912,-0.255,0.567,-0.0214,-0.7829,-0.1,-0.8,0.8,-0.003,-0.004,-0.003,0
2018,5,17,22,12,10.929,-0.2551,0.5671,-0.0214,-0.7827,0.1,-0.7,0.4,-0.006,-0.004,0,1023
2018,5,17,22,12,10.952,-0.2552,0.5672,-0.0214,-0.7826,0,-1,0.2,-0.004,0.004,0,1023
2018,5,17,22,12,10.97,-0.2552,0.5674,-0.0216,-0.7825,-0.4,-1,0.4,-0.003,0.002,0,1023
2018,5,17,22,12,10.993,-0.2552,0.5676,-0.0216,-0.7824,-0.4,-1.1,0.4,-0.001,0.002,0,1023
2018,5,17,22,12,11.009,-0.2552,0.5678,-0.0217,-0.7822,0,-1.5,0.5,-0.012,0.002,0,1023
2018,5,17,22,12,11.029,-0.2552,0.5681,-0.0221,-0.782,0.1,-1.4,0.7,-0.01,0.003,-0.004,1023
2018,5,17,22,12,11.068,-0.2553,0.5683,-0.0221,-0.7818,-0.3,-1.4,1,-0.003,0.002,0,1023
2018,5,17,22,12,11.068,-0.2554,0.5685,-0.0219,-0.7816,-0.8,-0.9,1,0,0,0,1023
2018,5,17,22,12,11.092,-0.2555,0.5687,-0.0219,-0.7814,-0.6,-0.9,1,-0.002,0,0.001,1023
2018,5,17,22,12,11.109,-0.2556,0.5688,-0.0218,-0.7813,-0.1,-1.2,0.9,0.002,-0.001,0.003,1023
2018,5,17,22,12,11.132,-0.2557,0.5691,-0.0219,-0.7811,-0.1,-2,1,-0.002,0.002,0.002,1023
2018,5,17,22,12,11.168,-0.2558,0.5694,-0.022,-0.7808,0.1,-2.3,1,0,-0.001,0,1023
2018,5,17,22,12,11.192,-0.2558,0.5699,-0.0225,-0.7804,-0.3,-2,0.8,0.005,-0.001,-0.01,1023
2018,5,17,22,12,11.196,-0.2559,0.5702,-0.0224,-0.7802,-0.4,-1.2,0.4,0,-0.001,-0.009,1023
2018,5,17,22,12,11.213,-0.2559,0.5703,-0.0223,-0.7801,-0.1,-0.6,0.2,-0.008,0.003,-0.003,1023
2018,5,17,22,12,11.251,-0.256,0.5704,-0.0223,-0.78,-0.2,-0.6,0.4,-0.005,0.006,-0.003,1023
2018,5,17,22,12,11.271,-0.2559,0.5706,-0.0223,-0.7799,-1.3,-0.6,0.1,0,-0.001,0.003,1023
2018,5,17,22,12,11.277,-0.2559,0.5707,-0.0221,-0.7799,-0.9,-0.6,0.2,-0.007,-0.006,0.007,1023
2018,5,17,22,12,11.293,-0.256,0.5708,-0.0219,-0.7798,0.4,-0.8,0.4,-0.013,0.003,0,1023
2018,5,17,22,12,11.316,-0.2561,0.5708,-0.022,-0.7797,0.4,-1,0.2,-0.003,0.002,-0.005,1023
2018,5,17,22,12,11.332,-0.2561,0.5711,-0.0222,-0.7795,-0.3,-0.7,0,0,0,-0.011,1023
2018,5,17,22,12,11.37,-0.2561,0.5711,-0.0221,-0.7795,0,0,0,-0.006,0.002,-0.002,1023
2018,5,17,22,12,11.393,-0.2562,0.571,-0.0221,-0.7795,0.3,0.3,0.8,-0.015,0.008,0,1023
2018,5,17,22,12,11.398,-0.2564,0.5709,-0.022,-0.7796,-0.1,0.1,0.9,-0.012,0.008,0.005,1023
2018,5,17,22,12,11.414,-0.2563,0.5709,-0.022,-0.7796,-1.1,0,0.7,0.001,0.002,0.006,1023
2018,5,17,22,12,11.437,-0.2564,0.5709,-0.0217,-0.7796,-0.6,0.2,0.4,0.004,-0.01,0.004,1023
2018,5,17,22,12,11.455,-0.2565,0.5709,-0.0215,-0.7795,0.7,-0.1,0.7,0.01,-0.014,0.002,1023
2018,5,17,22,12,11.474,-0.2568,0.5709,-0.0218,-0.7794,2.3,-0.1,0.3,0.001,-0.007,-0.001,1023
2018,5,17,22,12,11.496,-0.257,0.5709,-0.0223,-0.7793,2.1,-0.2,-0.3,0,0.001,-0.003,0
2018,5,17,22,12,11.514,-0.2571,0.5709,-0.0228,-0.7793,1,-0.3,-0.4,0.001,0.008,-0.007,0
2018,5,17,22,12,11.537,-0.257,0.571,-0.0231,-0.7792,0,0,0,-0.002,0.006,-0.005,0
2018,5,17,22,12,11.556,-0.257,0.571,-0.0231,-0.7792,0,0,0,-0.009,0.002,-0.012,0
2018,5,17,22,12,11.579,-0.2571,0.5711,-0.023,-0.7792,0,0,0,-0.012,0.002,-0.016,0
2018,5,17,22,12,11.595,-0.2571,0.5711,-0.0229,-0.7791,-1.1,0.4,-0.1,-0.005,0.002,-0.01,0
2018,5,17,22,12,11.613,-0.2569,0.5712,-0.0228,-0.7791,-1.4,0.6,0,-0.008,0.001,-0.003,0
2018,5,17,22,12,11.636,-0.2568,0.5712,-0.0227,-0.7792,-1,0.3,0,-0.005,0.005,0.006,0
2018,5,17,22,12,11.657,-0.2568,0.5711,-0.0225,-0.7793,-0.9,0,0.1,-0.003,0.001,0.006,0
2018,5,17,22,12,11.675,-0.2567,0.5711,-0.0226,-0.7793,0,0,0,-0.001,0,0.002,0
2018,5,17,22,12,11.698,-0.2568,0.5711,-0.0227,-0.7793,0.7,0,0.4,-0.002,0.001,0.003,0
2018,5,17,22,12,11.716,-0.2568,0.5711,-0.0229,-0.7792,0,0,0,0.005,0,-0.001,0
2018,5,17,22,12,11.74,-0.2569,0.5711,-0.0228,-0.7792,0,0,0,0.001,-0.005,0.009,0
2018,5,17,22,12,11.756,-0.257,0.5709,-0.0229,-0.7793,1.2,0,-0.1,-0.013,0.001,0.012,0
2018,5,17,22,12,11.777,-0.2572,0.5707,-0.0233,-0.7794,1.9,-1.1,0.4,-0.025,0.01,0.018,0
2018,5,17,22,12,11.816,-0.2575,0.5707,-0.0234,-0.7793,0.1,-2.9,0.9,-0.022,0.011,0.024,0
2018,5,17,22,12,11.816,-0.2576,0.5709,-0.0233,-0.7791,-1.5,-4.5,1.4,-0.023,0.002,0.03,0
2018,5,17,22,12,11.84,-0.2578,0.5714,-0.0232,-0.7787,-1.6,-6.9,2.1,-0.037,0.001,0.048,0
2018,5,17,22,12,11.856,-0.2583,0.572,-0.023,-0.7781,-0.3,-9.6,3.2,-0.054,0.006,0.065,0
2018,5,17,22,12,11.893,-0.259,0.5727,-0.023,-0.7773,0.2,-12.5,4.5,-0.051,0.021,0.078,0
2018,5,17,22,12,11.916,-0.2598,0.5738,-0.0231,-0.7762,-0.3,-15.8,5.7,-0.058,0.028,0.095,0
2018,5,17,22,12,11.921,-0.2607,0.5755,-0.0231,-0.7747,-1.1,-19.5,7.6,-0.077,0.042,0.123,0
2018,5,17,22,12,11.955,-0.2618,0.5785,-0.0232,-0.7721,-0.1,-24.4,10.1,-0.107,0.052,0.157,0
2018,5,17,22,12,11.978,-0.2632,0.5823,-0.0234,-0.7687,0.4,-30.3,14.4,-0.142,0.072,0.201,0
2018,5,17,22,12,11.982,-0.2655,0.5869,-0.0238,-0.7644,4.5,-38,19.1,-0.153,0.078,0.239,0
2018,5,17,22,12,11.998,-0.2688,0.5924,-0.0244,-0.759,8,-47.1,23.9,-0.172,0.05,0.26,0
2018,5,17,22,12,12.021,-0.2733,0.5989,-0.0258,-0.7522,15.6,-57.8,29.1,-0.222,0.033,0.28,0
2018,5,17,22,12,12.037,-0.2794,0.6066,-0.0287,-0.7437,27.7,-70.9,35.2,-0.265,0.062,0.288,0
2018,5,17,22,12,12.074,-0.2875,0.6152,-0.033,-0.7332,40.2,-83.9,44,-0.394,0.096,0.334,0
2018,5,17,22,12,12.097,-0.2984,0.6249,-0.0387,-0.7203,55.9,-99.8,54,-0.514,0.158,0.417,0
2018,5,17,22,12,12.102,-0.3117,0.6357,-0.046,-0.7046,65.9,-119.9,62.4,-0.672,0.302,0.517,0
2018,5,17,22,12,12.12,-0.3278,0.6481,-0.0548,-0.6851,88.5,-141.1,83.5,-0.664,0.357,0.512,0
2018,5,17,22,12,12.156,-0.3488,0.6605,-0.065,-0.6615,125.2,-148.7,107,-0.679,0.261,0.386,0
2018,5,17,22,12,12.179,-0.3808,0.6685,-0.0779,-0.6339,192.6,-150.4,157,-0.741,0.496,0.333,0
2018,5,17,22,12,12.184,-0.4221,0.6736,-0.0891,-0.6,204.6,-156.1,208.4,-0.651,0.689,0.377,0
2018,5,17,22,12,12.2,-0.4667,0.6784,-0.0941,-0.5594,196.3,-164.9,261.6,-0.79,0.75,0.42,0
2018,5,17,22,12,12.223,-0.5149,0.6812,-0.0934,-0.5118,218,-163.8,309.6,-0.857,0.643,0.469,0
2018,5,17,22,12,12.259,-0.5695,0.6767,-0.0894,-0.4577,271.5,-146,354.3,-0.825,0.769,0.376,0
2018,5,17,22,12,12.259,-0.6859,0.6419,-0.0636,-0.3365,266.6,-85.8,425.4,-0.704,1.087,-0.01,0
2018,5,17,22,12,12.282,-0.7381,0.6159,-0.037,-0.2727,274,-41.5,451.2,-0.731,0.955,-0.074,0
2018,5,17,22,12,12.298,-0.7875,0.5799,-0.0028,-0.2086,296,6.1,467.9,-1.29,0.863,0.247,1023
2018,5,17,22,12,12.321,-0.83,0.5369,0.0354,-0.1463,286.6,19.2,446.6,-2.281,0.487,0.466,1023
2018,5,17,22,12,12.339,-0.8648,0.4896,0.0726,-0.0842,287.4,18.5,455.8,-2.119,0.341,-0.19,1023
2018,5,17,22,12,12.361,-0.8887,0.4441,0.1119,-0.0194,185.2,29.5,453.4,-1.828,0.332,0.136,1023
2018,5,17,22,12,12.38,-0.8766,0.4433,0.1557,0.1037,-751.2,-205.7,133.1,-15.62,-15.284,13.656,1023
2018,5,17,22,12,12.403,-0.8774,0.4644,0.0998,0.0658,37.6,-151.8,-190.3,-2.049,5.979,-0.909,1023
2018,5,17,22,12,12.421,-0.9168,0.3951,0.054,0.0197,362.3,-222.8,-283.8,1.314,-3.105,0.295,1023
2018,5,17,22,12,12.444,-0.9301,0.3671,0.0082,-0.0022,-47.3,-232.7,-220.5,-1.365,1.058,1.784,1023
2018,5,17,22,12,12.463,-0.9121,0.4068,-0.0466,-0.0188,-254,-243.9,-193.5,-1.528,-0.24,1.05,1023
2018,5,17,22,12,12.481,-0.8978,0.4306,-0.0879,-0.0263,-117,-159.4,-84.7,-0.163,1.002,-0.884,1023
2018,5,17,22,12,12.504,-0.8869,0.449,-0.1036,-0.0293,-140.1,-25.4,-38.3,0.236,1.093,-0.994,1023
2018,5,17,22,12,12.542,-0.8749,0.4716,-0.1028,-0.0376,-169.7,56.5,-19.3,0.533,-0.1,-1.038,1023
2018,5,17,22,12,12.542,-0.8565,0.5056,-0.0885,-0.0521,-276.7,107.9,-25.3,-1.069,-0.373,-0.371,1023
2018,5,17,22,12,12.565,-0.8397,0.5339,-0.0723,-0.066,-67.8,102.5,15.3,0.335,-0.364,1.173,1023
2018,5,17,22,12,12.581,-0.8498,0.5195,-0.056,-0.0682,160.2,80.9,15.6,0.621,3.629,1.238,1023
2018,5,17,22,12,12.618,-0.8419,0.5332,-0.0446,-0.0685,-344.7,47.1,100.9,-0.359,1.025,1.027,1023
2018,5,17,22,12,12.64,-0.8033,0.5931,-0.0261,-0.0466,-444,-78.9,162.9,0,-3.656,-2.947,1023
2018,5,17,22,12,12.644,-0.7827,0.6213,-0.0172,-0.029,44.2,18.9,57.4,0.343,-0.717,-1.458,1023
2018,5,17,22,12,12.663,-0.7998,0.5994,-0.006,-0.0277,244,64,33.7,0.435,-0.424,-0.273,1023
2018,5,17,22,12,12.686,-0.8259,0.5628,0.0041,-0.0307,230.4,62.6,11.1,-0.457,0.491,0.595,1023
2018,5,17,22,12,12.703,-0.8441,0.5348,0.0118,-0.0343,153,44.7,12.6,-0.626,0.443,0.356,1023
2018,5,17,22,12,12.726,-0.8537,0.519,0.0176,-0.0365,52,26.1,3,-0.206,0.668,0.487,1023
2018,5,17,22,12,12.745,-0.8517,0.5221,0.0203,-0.0373,-86.5,4.1,5.4,-0.042,0.379,0.405,1023
2018,5,17,22,12,12.768,-0.8415,0.5387,0.0218,-0.0335,-105.1,-15.5,31,-0.14,0.306,0.092,1023
2018,5,17,22,12,12.804,-0.8326,0.5526,0.0224,-0.0276,-66.8,-17,20.7,-0.062,-0.004,-0.248,1023
2018,5,17,22,12,12.827,-0.8286,0.5589,0.0208,-0.0231,-17.4,-26.2,8.9,0,-0.124,-0.125,1023
2018,5,17,22,12,12.831,-0.8278,0.5603,0.0177,-0.0203,-2.5,-19.1,3.4,-0.094,-0.171,-0.11,1023
2018,5,17,22,12,12.847,-0.8269,0.5617,0.017,-0.0169,-21.4,-15.7,14.6,-0.094,-0.032,0.068,1023
2018,5,17,22,12,12.87,-0.824,0.5661,0.0162,-0.0129,-33.6,-17.3,7.6,-0.072,-0.111,-0.113,1023
2018,5,17,22,12,12.889,-0.8212,0.5702,0.0144,-0.0115,-23,-8.5,-7.6,0.009,-0.066,-0.05,1023
2018,5,17,22,12,12.906,-0.8194,0.5728,0.012,-0.0127,-18.4,-6.1,-18.7,-0.023,0.058,0.008,1023
2018,5,17,22,12,12.943,-0.8179,0.5749,0.0091,-0.0147,-23.3,-7.6,-20.4,-0.058,0.074,0.059,1023
2018,5,17,22,12,12.965,-0.8161,0.5775,0.0059,-0.0158,-27.2,-12.1,-14.3,-0.038,-0.025,0.058,1023
2018,5,17,22,12,12.97,-0.8141,0.5804,0.0022,-0.016,-22.9,-13.4,-13.3,0.003,-0.158,-0.005,1023
2018,5,17,22,12,12.986,-0.8133,0.5814,-0.0015,-0.0165,-6.2,-9.8,-15.9,0.008,-0.131,-0.063,1023
2018,5,17,22,12,13.008,-0.8141,0.5804,-0.0046,-0.0181,12,-4.6,-19.6,0.002,-0.052,-0.058,1023
2018,5,17,22,12,13.027,-0.8166,0.5766,-0.0077,-0.0202,16,-2.4,-17.2,0.067,-0.025,-0.018,1023
2018,5,17,22,12,13.05,-0.8187,0.5736,-0.0101,-0.0227,16.3,1.7,-14.8,0.1,-0.147,0,0
2018,5,17,22,12,13.068,-0.8207,0.5706,-0.011,-0.025,10.1,8.4,-13.6,0.078,-0.054,0.012,0
2018,5,17,22,12,13.092,-0.8216,0.5691,-0.0111,-0.0281,3.4,12,-9.6,0.038,0.058,0.006,0
2018,5,17,22,12,13.11,-0.8219,0.5686,-0.0106,-0.0307,-3.6,10,-9.8,-0.007,0.067,0.034,0
2018,5,17,22,12,13.129,-0.8214,0.5692,-0.0102,-0.0327,-11.8,4.8,-8.9,-0.054,0.053,0.037,0
2018,5,17,22,12,13.152,-0.8203,0.5707,-0.0102,-0.0339,-13.9,-0.6,-7.7,-0.021,-0.077,0.066,0
2018,5,17,22,12,13.168,-0.8192,0.5723,-0.0109,-0.0343,-10,-2.1,-3.4,-0.001,-0.005,-0.02,0
2018,5,17,22,12,13.186,-0.8185,0.5732,-0.0112,-0.0344,-1.8,-0.2,1.2,0.016,-0.015,-0.005,0
2018,5,17,22,12,13.206,-0.8191,0.5724,-0.0107,-0.0338,-4.5,-0.1,3.2,0.023,0.099,-0.102,0
2018,5,17,22,12,13.244,-0.8193,0.5722,-0.0105,-0.0335,0,0.7,4,0.009,0.046,0.022,0
2018,5,17,22,12,13.268,-0.8194,0.5721,-0.0099,-0.033,-2.8,1.5,5.7,0.001,0.038,0.015,0
2018,5,17,22,12,13.272,-0.8192,0.5724,-0.009,-0.0323,-4.3,2.4,6.2,0,0.019,0,0
2018,5,17,22,12,13.306,-0.8189,0.5729,-0.008,-0.0318,-3.9,3.1,5.6,-0.01,0.002,-0.004,0
2018,5,17,22,12,13.329,-0.8186,0.5733,-0.0068,-0.0312,-1.8,3.1,5.3,-0.016,0.002,0,0
2018,5,17,22,12,13.334,-0.8187,0.5733,-0.0058,-0.0306,0.1,2,5.2,-0.021,0.009,0.001,1023
2018,5,17,22,12,13.35,-0.8189,0.573,-0.0049,-0.0299,1.2,0.7,4.8,-0.024,0.02,0.005,1023
2018,5,17,22,12,13.373,-0.8192,0.5727,-0.0043,-0.0291,1,-0.7,4.1,-0.022,0.012,0.005,1023
2018,5,17,22,12,13.393,-0.8195,0.5723,-0.0039,-0.0284,2.1,-1.3,3.3,-0.021,0.02,0.008,1023
2018,5,17,22,12,13.409,-0.8199,0.5718,-0.0038,-0.0277,0.8,-2.3,3.1,-0.013,0.027,0.023,1023
2018,5,17,22,12,13.427,-0.82,0.5716,-0.0037,-0.0269,-1.8,-2.4,3.5,-0.013,0.022,0.019,1023
2018,5,17,22,12,13.45,-0.8198,0.5719,-0.0037,-0.0262,-4.3,-2.3,3,-0.007,0.019,0.012,1023
2018,5,17,22,12,13.469,-0.8195,0.5724,-0.0037,-0.0256,-4.6,-1.9,1.5,-0.013,0.007,0,1023
2018,5,17,22,12,13.493,-0.8191,0.5729,-0.0037,-0.0253,-3.2,-1.2,0.5,-0.013,0.012,0,1023
2018,5,17,22,12,13.528,-0.8189,0.5732,-0.0038,-0.0251,-2.5,-1.2,-0.2,-0.005,-0.002,0.012,1023
2018,5,17,22,12,13.551,-0.8188,0.5734,-0.004,-0.025,-1.5,-0.7,-0.6,-0.005,0.008,-0.001,1023
2018,5,17,22,12,13.556,-0.8187,0.5735,-0.0041,-0.025,-1.3,-0.4,-0.4,-0.01,0.038,0.004,1023
2018,5,17,22,12,13.572,-0.8186,0.5737,-0.0042,-0.0251,-0.9,-0.1,-0.5,-0.001,-0.004,-0.004,0
2018,5,17,22,12,13.595,-0.8186,0.5737,-0.0042,-0.0251,0.9,0.7,-0.6,-0.003,-0.005,-0.007,0
2018,5,17,22,12,13.631,-0.8188,0.5733,-0.0041,-0.0254,5.8,1.7,-1.8,-0.003,-0.015,-0.026,0
2018,5,17,22,12,13.654,-0.8195,0.5723,-0.0041,-0.0261,7.5,2.5,-4.7,-0.011,0.011,-0.003,0
2018,5,17,22,12,13.658,-0.8203,0.5712,-0.0042,-0.027,5.1,1.5,-5.4,-0.014,0.021,0.007,0
2018,5,17,22,12,13.673,-0.8209,0.5702,-0.0044,-0.0276,4.5,0,-2.9,0.013,0.004,0.01,0
2018,5,17,22,12,13.692,-0.8216,0.5693,-0.0045,-0.0279,2.9,-1.2,-2.6,-0.003,0.02,-0.047,0
2018,5,17,22,12,13.728,-0.822,0.5687,-0.0048,-0.0282,2.9,-1.2,-3.9,-0.009,0.017,0.01,0
2018,5,17,22,12,13.75,-0.8227,0.5676,-0.0051,-0.0283,6.5,-3.2,-2.2,-0.003,0.014,-0.055,0
2018,5,17,22,12,13.755,-0.8233,0.5668,-0.0058,-0.0284,4.8,-3.1,-3.2,0.002,-0.008,0.011,0
2018,5,17,22,12,13.791,-0.8242,0.5654,-0.0062,-0.0283,-1.4,-4.5,-5.9,-0.013,0.047,0.015,0
2018,5,17,22,12,13.791,-0.8247,0.5646,-0.007,-0.0286,19.3,-4.6,2.3,0.009,0.066,-0.026,0
2018,5,17,22,12,13.814,-0.8251,0.5641,-0.0081,-0.0286,-4.6,-4.3,-5.5,0.043,0,-0.053,0
2018,5,17,22,12,13.851,-0.825,0.5642,-0.0092,-0.029,4.5,-1.4,-3.3,0.01,-0.036,-0.003,0
2018,5,17,22,12,13.894,-0.8276,0.5604,-0.0089,-0.0283,7.9,-3.7,0.4,0.022,0.178,-0.104,0
2018,5,17,22,12,13.897,-0.828,0.5598,-0.0094,-0.0284,6,-0.5,-0.3,-0.012,-0.007,0.019,0
2018,5,17,22,12,13.899,-0.8292,0.558,-0.0092,-0.0282,28.5,1.4,1.7,-0.057,0.009,0.114,0
2018,5,17,22,12,13.913,-0.8307,0.5558,-0.0095,-0.0279,-11.8,-5.5,-7.3,-0.018,0.149,-0.021,0
2018,5,17,22,12,13.948,-0.8307,0.5558,-0.0103,-0.028,19.4,-1.2,4.6,-0.011,-0.027,0.029,0
2018,5,17,22,12,13.968,-0.8322,0.5536,-0.0105,-0.0274,0.5,-5.7,-0.9,0.044,0.027,-0.073,0
2018,5,17,22,12,13.972,-0.8329,0.5525,-0.011,-0.0269,22,-1,6.2,-0.045,-0.122,0.042,0
2018,5,17,22,12,14.009,-0.8353,0.549,-0.0108,-0.0257,16.3,-2.6,4.7,0.008,0.06,-0.026,0
2018,5,17,22,12,14.031,-0.8355,0.5486,-0.0114,-0.0256,1,-1.8,-1.7,0.016,-0.013,-0.001,0
2018,5,17,22,12,14.033,-0.8357,0.5483,-0.0116,-0.0258,-0.2,0.4,-1.4,0,0.041,0.003,1023
2018,5,17,22,12,14.07,-0.8357,0.5484,-0.0116,-0.0261,-4.3,1.2,-1.4,0.001,0.035,0.013,1023
2018,5,17,22,12,14.09,-0.8352,0.5491,-0.0114,-0.0265,-8.6,1.8,-0.9,0.003,0.035,0.007,1023
2018,5,17,22,12,14.097,-0.8343,0.5504,-0.0112,-0.0268,-11.7,2.1,-0.2,-0.002,0.029,0.005,1023
2018,5,17,22,12,14.134,-0.8331,0.5522,-0.0109,-0.0271,-12.8,2.6,-0.8,-0.007,0.006,-0.001,1023
2018,5,17,22,12,14.134,-0.832,0.5539,-0.0104,-0.0275,-11.3,2.9,-2,-0.013,0.009,-0.004,1023
2018,5,17,22,12,14.154,-0.831,0.5553,-0.0101,-0.0281,-9.4,2.1,-2.1,-0.006,0.006,0,1023
2018,5,17,22,12,14.191,-0.8302,0.5565,-0.0099,-0.0284,-8,1.4,-0.8,-0.006,0.01,0.005,1023
2018,5,17,22,12,14.211,-0.8295,0.5576,-0.0097,-0.0285,-8.4,0.4,0.2,-0.009,0.013,0.007,1023
2018,5,17,22,12,14.214,-0.8287,0.5587,-0.0096,-0.0284,-9.2,-0.7,0.6,-0.011,0.011,0,1023
2018,5,17,22,12,14.251,-0.8279,0.56,-0.0095,-0.0282,-9.1,-0.9,0.4,-0.004,0,-0.01,1023
2018,5,17,22,12,14.273,-0.8271,0.5612,-0.0095,-0.0281,-7.1,0,0,-0.006,0.008,-0.003,1023
2018,5,17,22,12,14.277,-0.8265,0.5621,-0.0094,-0.0282,-6.2,0.5,-0.4,-0.001,0.018,-0.003,1023
2018,5,17,22,12,14.316,-0.8259,0.5628,-0.0093,-0.0283,-4.9,0.9,-0.1,-0.003,0.015,-0.007,1023
2018,5,17,22,12,14.339,-0.8256,0.5634,-0.0091,-0.0284,-3.7,1.4,0,-0.004,0.014,-0.004,1023
2018,5,17,22,12,14.343,-0.8252,0.5639,-0.0089,-0.0286,-3.1,1.4,-0.1,-0.003,0.012,-0.003,1023
2018,5,17,22,12,14.359,-0.8251,0.5641,-0.0086,-0.0287,-2.6,1.1,-0.4,-0.01,0.027,0.001,0
2018,5,17,22,12,14.38,-0.8249,0.5644,-0.0085,-0.0289,-3.2,1.2,-0.9,-0.008,0.015,0.009,0
2018,5,17,22,12,14.398,-0.8246,0.5648,-0.0083,-0.0291,-4.2,1,-0.9,-0.008,0.011,0.002,0
2018,5,17,22,12,14.421,-0.8241,0.5654,-0.0082,-0.0293,-5.9,0.6,-0.8,-0.007,0.013,0.007,0
2018,5,17,22,12,14.437,-0.8236,0.5662,-0.0082,-0.0294,-6.4,0.4,-0.6,-0.008,0.01,0.005,0
2018,5,17,22,12,14.473,-0.823,0.5671,-0.0081,-0.0295,-6.7,0,-0.8,-0.006,0.009,-0.004,0
2018,5,17,22,12,14.496,-0.8224,0.568,-0.0081,-0.0297,-6.5,0,-0.9,-0.004,0.018,0,0
2018,5,17,22,12,14.501,-0.8218,0.5688,-0.0082,-0.0298,-6.1,0,-0.8,0,0.006,-0.007,0
2018,5,17,22,12,14.536,-0.8212,0.5697,-0.0083,-0.0299,-6,0,-0.8,-0.001,0.018,-0.004,0
2018,5,17,22,12,14.559,-0.8206,0.5705,-0.0083,-0.0301,-6.6,0.4,-0.7,-0.003,0.017,0.005,0
2018,5,17,22,12,14.564,-0.82,0.5714,-0.0082,-0.0302,-7.3,0.6,-0.6,0,0.015,-0.004,0
2018,5,17,22,12,14.58,-0.8193,0.5724,-0.0081,-0.0304,-6.4,0.9,-0.8,-0.003,0.011,-0.005,0
2018,5,17,22,12,14.603,-0.8187,0.5732,-0.008,-0.0306,-4.6,0.9,-0.5,-0.004,0.008,-0.006,0
2018,5,17,22,12,14.623,-0.8183,0.5737,-0.0079,-0.0307,-3.2,0.8,-0.3,-0.003,0.01,-0.001,0
2018,5,17,22,12,14.64,-0.8181,0.5741,-0.0077,-0.0308,-2.5,0.2,0.1,-0.006,0.01,-0.002,0
2018,5,17,22,12,14.656,-0.8178,0.5745,-0.0077,-0.0308,-2.5,0,0.1,-0.006,0.008,-0.009,0
2018,5,17,22,12,14.678,-0.8176,0.5747,-0.0076,-0.0307,-1.4,0,0.2,-0.005,0.014,0,1023
2018,5,17,22,12,14.716,-0.8175,0.5749,-0.0076,-0.0307,-1.4,0,0,-0.004,0.008,-0.002,1023
2018,5,17,22,12,14.739,-0.8174,0.5751,-0.0076,-0.0307,-1.2,0.1,0,-0.004,0.012,-0.007,1023
2018,5,17,22,12,14.744,-0.8173,0.5753,-0.0075,-0.0307,-0.9,0.1,0.4,-0.001,0.015,-0.002,1023
2018,5,17,22,12,14.761,-0.8173,0.5753,-0.0074,-0.0306,-0.9,0.2,0.4,-0.005,0.026,0.005,1023
2018,5,17,22,12,14.799,-0.8172,0.5754,-0.0073,-0.0306,-2,0.1,0.3,-0.008,0.017,0,1023
2018,5,17,22,12,14.823,-0.817,0.5757,-0.0072,-0.0305,-2,-0.3,0.4,-0.006,0.011,-0.004,1023
2018,5,17,22,12,14.827,-0.8168,0.576,-0.0072,-0.0304,-1.3,-0.1,0.3,0.002,0.006,-0.006,1023
2018,5,17,22,12,14.844,-0.8168,0.576,-0.0072,-0.0304,-0.6,0,-0.1,-0.006,0.017,0.001,1023
2018,5,17,22,12,14.862,-0.8167,0.5761,-0.0071,-0.0304,-1.2,0.1,-0.1,-0.006,0.011,-0.006,1023
2018,5,17,22,12,14.885,-0.8166,0.5762,-0.0071,-0.0304,-1.2,0.1,0,-0.001,0.018,-0.003,1023
2018,5,17,22,12,14.903,-0.8165,0.5764,-0.007,-0.0304,-2,0.1,0.1,-0.004,0.017,0.002,1023
2018,5,17,22,12,14.926,-0.8163,0.5766,-0.007,-0.0304,-2.6,0.1,0.1,-0.004,0.016,0,1023
2018,5,17,22,12,14.942,-0.8161,0.577,-0.0069,-0.0304,-2.5,0.3,-0.3,-0.004,0.008,-0.006,1023
2018,5,17,22,12,14.961,-0.8159,0.5773,-0.0069,-0.0305,-2.1,0.1,-0.1,-0.003,0.01,-0.001,1023
2018,5,17,22,12,14.983,-0.8157,0.5776,-0.0068,-0.0305,-1.6,0,-0.3,-0.005,0.007,-0.006,0
2018,5,17,22,12,15.002,-0.8155,0.5778,-0.0069,-0.0305,-0.8,0,-0.3,-0.004,0.011,-0.003,0
2018,5,17,22,12,15.024,-0.8155,0.5778,-0.0069,-0.0306,0,0,0,-0.004,0.015,-0.002,0
2018,5,17,22,12,15.043,-0.8155,0.5777,-0.0068,-0.0305,0,0,0,-0.002,0.015,-0.002,0
2018,5,17,22,12,15.065,-0.8156,0.5777,-0.0068,-0.0305,0,0,0,-0.002,0.015,0.001,0
2018,5,17,22,12,15.083,-0.8155,0.5777,-0.0068,-0.0305,-1.4,0.1,-0.1,-0.002,0.02,0,0
2018,5,17,22,12,15.106,-0.8154,0.578,-0.0068,-0.0305,-1.8,-0.1,0.1,-0.003,0.015,-0.003,0
2018,5,17,22,12,15.124,-0.8152,0.5782,-0.0068,-0.0304,-1.4,-0.3,0.4,-0.001,0.018,-0.001,0
2018,5,17,22,12,15.147,-0.8151,0.5784,-0.0068,-0.0303,-1.4,-0.3,0.3,-0.001,0.013,-0.006,0
2018,5,17,22,12,15.163,-0.815,0.5786,-0.0068,-0.0303,-1.2,-0.2,0.2,-0.001,0.019,0.002,0
2018,5,17,22,12,15.182,-0.8149,0.5787,-0.0068,-0.0302,-2.3,-0.4,0.4,-0.002,0.024,0.006,0
2018,5,17,22,12,15.206,-0.8146,0.5791,-0.0068,-0.0301,-3.6,-0.4,0.1,0,0.01,0.004,0
2018,5,17,22,12,15.223,-0.8142,0.5797,-0.0068,-0.03,-5,-0.2,0,-0.002,0.013,-0.002,0
2018,5,17,22,12,15.246,-0.8137,0.5804,-0.0068,-0.03,-4.7,-0.1,0.1,-0.003,0.009,-0.003,0
2018,5,17,22,12,15.264,-0.8132,0.581,-0.0068,-0.0299,-4,-0.2,0.2,-0.002,0.008,-0.009,0
2018,5,17,22,12,15.287,-0.8128,0.5816,-0.0068,-0.0299,-2.9,-0.3,0.3,-0.002,0.008,-0.01,0
2018,5,17,22,12,15.307,-0.8126,0.5819,-0.0068,-0.0298,-1.9,-0.4,0.3,-0.003,0.013,-0.006,0
2018,5,17,22,12,15.325,-0.8124,0.5821,-0.0068,-0.0297,-1.1,-0.4,0.2,-0.004,0.01,-0.006,0
2018,5,17,22,12,15.348,-0.8123,0.5823,-0.0068,-0.0296,-0.9,-0.3,0.2,0,0.014,-0.005,0
2018,5,17,22,12,15.367,-0.8123,0.5824,-0.0068,-0.0296,-1.2,-0.1,0.1,-0.002,0.01,-0.001,0
2018,5,17,22,12,15.384,-0.8122,0.5825,-0.0068,-0.0296,-0.9,0,0,-0.002,0.011,-0.005,0
2018,5,17,22,12,15.406,-0.8121,0.5826,-0.0067,-0.0295,0,0,0,-0.002,0.013,-0.007,0
2018,5,17,22,12,15.422,-0.8121,0.5826,-0.0067,-0.0295,0,0,0,-0.001,0.017,0,1023
2018,5,17,22,12,15.445,-0.8121,0.5826,-0.0067,-0.0295,0,0,0,0.001,0.015,0.002,1023
2018,5,17,22,12,15.482,-0.8121,0.5826,-0.0067,-0.0295,0,0,0,-0.001,0.012,-0.012,1023
2018,5,17,22,12,15.504,-0.8121,0.5826,-0.0067,-0.0295,-0.6,-0.3,0.2,0.003,0.009,-0.005,1023
2018,5,17,22,12,15.509,-0.812,0.5827,-0.0067,-0.0295,-0.7,-0.3,0,-0.002,0.003,-0.013,1023
2018,5,17,22,12,15.525,-0.8121,0.5827,-0.0067,-0.0295,0,0,0,-0.001,0.022,0,1023
2018,5,17,22,12,15.548,-0.812,0.5827,-0.0067,-0.0295,-0.6,0.1,-0.4,-0.001,0.012,-0.005,1023
2018,5,17,22,12,15.584,-0.8119,0.5828,-0.0067,-0.0295,-0.9,-0.1,-0.3,-0.003,0.014,-0.001,1023
2018,5,17,22,12,15.608,-0.8119,0.5829,-0.0068,-0.0295,-0.9,-0.1,-0.3,-0.003,0.012,-0.003,1023
2018,5,17,22,12,15.612,-0.8118,0.5831,-0.0068,-0.0296,-1.2,-0.2,0,0,0.014,-0.002,1023
2018,5,17,22,12,15.628,-0.8117,0.5832,-0.0068,-0.0296,-0.9,-0.1,-0.1,0,0.013,-0.003,1023
2018,5,17,22,12,15.649,-0.8116,0.5833,-0.0069,-0.0296,-0.6,0,0.1,0,0.01,-0.003,1023
2018,5,17,22,12,15.669,-0.8115,0.5834,-0.0068,-0.0296,0,0,0,-0.002,0.014,-0.003,1023
2018,5,17,22,12,15.693,-0.8116,0.5834,-0.0068,-0.0295,0,0,0,-0.003,0.013,-0.002,1023
2018,5,17,22,12,15.709,-0.8116,0.5834,-0.0068,-0.0295,0,0,0,0,0.012,-0.004,1023
2018,5,17,22,12,15.745,-0.8116,0.5833,-0.0068,-0.0296,0,0,0,0,0.008,0,1023
2018,5,17,22,12,15.767,-0.8116,0.5834,-0.0068,-0.0295,0,0,0,0,0.014,-0.002,0
2018,5,17,22,12,15.771,-0.8116,0.5833,-0.0068,-0.0295,0,0,0,-0.001,0.013,-0.001,0
2018,5,17,22,12,15.786,-0.8116,0.5833,-0.0068,-0.0295,0.4,0.2,0.6,0.001,0.006,-0.005,0
2018,5,17,22,12,15.808,-0.8117,0.5832,-0.0067,-0.0295,0,0,0,-0.003,0.013,-0.009,0
2018,5,17,22,12,15.828,-0.8117,0.5832,-0.0067,-0.0294,0,0,0,-0.006,0.014,-0.002,0
2018,5,17,22,12,15.851,-0.8117,0.5831,-0.0067,-0.0294,0,0,0,-0.002,0.014,0,0
2018,5,17,22,12,15.87,-0.8118,0.5831,-0.0066,-0.0294,0,0,0,-0.002,0.015,0,0
2018,5,17,22,12,15.889,-0.8118,0.5831,-0.0066,-0.0294,-0.5,-0.1,0,-0.003,0.013,0.002,0
2018,5,17,22,12,15.911,-0.8117,0.5831,-0.0066,-0.0294,-0.7,-0.1,-0.2,-0.003,0.013,-0.005,0
2018,5,17,22,12,15.928,-0.8116,0.5832,-0.0066,-0.0294,-0.7,0,-0.3,-0.004,0.011,-0.002,0
2018,5,17,22,12,15.948,-0.8116,0.5833,-0.0067,-0.0294,-0.6,-0.2,-0.3,-0.002,0.015,-0.003,0
2018,5,17,22,12,15.967,-0.8115,0.5834,-0.0067,-0.0294,-0.7,-0.2,-0.3,-0.002,0.013,-0.006,0
2018,5,17,22,12,15.989,-0.8115,0.5834,-0.0067,-0.0294,0,0,0,-0.002,0.011,-0.006,0
2018,5,17,22,12,16.027,-0.8115,0.5834,-0.0067,-0.0294,0,0,0,0,0.013,-0.008,0
2018,5,17,22,12,16.05,-0.8115,0.5834,-0.0067,-0.0294,0,0,0,-0.001,0.014,-0.003,0
2018,5,17,22,12,16.054,-0.8115,0.5834,-0.0067,-0.0294,0,0,0,0,0.016,-0.007,0
2018,5,17,22,12,16.07,-0.8116,0.5834,-0.0067,-0.0294,0.6,0,0.2,-0.001,0.016,0,0
2018,5,17,22,12,16.093,-0.8116,0.5833,-0.0067,-0.0294,0,0,0,-0.001,0.016,-0.005,1023
2018,5,17,22,12,16.131,-0.8116,0.5833,-0.0067,-0.0294,0.5,0,0.2,-0.002,0.014,0,1023
2018,5,17,22,12,16.131,-0.8116,0.5833,-0.0067,-0.0294,0,0,0,-0.001,0.017,-0.002,1023
2018,5,17,22,12,16.153,-0.8116,0.5833,-0.0067,-0.0294,-0.1,-0.3,0.6,0.007,0.005,-0.004,1023
2018,5,17,22,12,16.171,-0.8117,0.5832,-0.0067,-0.0293,0,0,0,0,0.005,-0.007,1023
2018,5,17,22,12,16.19,-0.8117,0.5832,-0.0067,-0.0293,0,0,0,-0.003,0.022,-0.001,1023
2018,5,17,22,12,16.212,-0.8117,0.5832,-0.0067,-0.0293,0,0,0,0,0.011,-0.002,1023
2018,5,17,22,12,16.231,-0.8117,0.5832,-0.0067,-0.0293,0,0,0,-0.001,0.012,-0.004,1023
2018,5,17,22,12,16.254,-0.8117,0.5832,-0.0067,-0.0293,0,0,0,-0.002,0.016,-0.004,1023
2018,5,17,22,12,16.288,-0.8117,0.5832,-0.0067,-0.0293,-0.8,0,0,0,0.013,-0.002,1023
2018,5,17,22,12,16.311,-0.8116,0.5833,-0.0067,-0.0293,-0.5,-0.2,0.1,0.001,0.015,-0.004,1023
2018,5,17,22,12,16.316,-0.8116,0.5834,-0.0066,-0.0292,0,0,0,0,0.012,-0.004,1023
2018,5,17,22,12,16.333,-0.8116,0.5834,-0.0066,-0.0292,0,0,0,-0.001,0.013,0,1023
2018,5,17,22,12,16.37,-0.8116,0.5833,-0.0066,-0.0292,0,0,0,-0.003,0.014,-0.006,1023
2018,5,17,22,12,16.392,-0.8116,0.5833,-0.0066,-0.0292,0,0,0,0,0.016,-0.009,0
2018,5,17,22,12,16.396,-0.8116,0.5833,-0.0066,-0.0292,0,0,0,-0.001,0.014,-0.003,0
2018,5,17,22,12,16.414,-0.8116,0.5833,-0.0066,-0.0292,0,0,0,-0.001,0.014,-0.003,0
2018,5,17,22,12,16.437,-0.8116,0.5833,-0.0066,-0.0292,0,0,0,-0.001,0.013,-0.004,0
2018,5,17,22,12,16.454,-0.8116,0.5833,-0.0066,-0.0292,0,0,0,0,0.006,0,0
2018,5,17,22,12,16.49,-0.8116,0.5833,-0.0066,-0.0292,0,0,0,0,0.015,0,0
2018,5,17,22,12,16.513,-0.8116,0.5833,-0.0066,-0.0292,0,0,0,-0.006,0.012,-0.005,0
2018,5,17,22,12,16.518,-0.8116,0.5833,-0.0066,-0.0292,0,0,0,0,0.02,-0.003,0
2018,5,17,22,12,16.533,-0.8116,0.5833,-0.0065,-0.0292,-1.1,0,0,-0.004,0.015,0.002,0
2018,5,17,22,12,16.556,-0.8115,0.5834,-0.0065,-0.0292,-1.4,0.1,0.1,-0.001,0.01,-0.003,0
2018,5,17,22,12,16.593,-0.8113,0.5837,-0.0065,-0.0291,-1.7,0,0.1,-0.001,0.011,-0.004,0
2018,5,17,22,12,16.616,-0.8112,0.5839,-0.0065,-0.0291,-1.4,0,0,-0.001,0.011,-0.004,0
2018,5,17,22,12,16.621,-0.8111,0.5841,-0.0064,-0.0291,-0.9,0.1,-0.1,-0.004,0.012,0,0
2018,5,17,22,12,16.637,-0.811,0.5842,-0.0064,-0.0291,-0.6,0,0,-0.001,0.012,-0.007,0
2018,5,17,22,12,16.655,-0.8109,0.5842,-0.0064,-0.0291,0,0,0,-0.001,0.015,-0.003,0
2018,5,17,22,12,16.671,-0.811,0.5842,-0.0064,-0.0291,0,0,0,-0.001,0.015,0,0
2018,5,17,22,12,16.694,-0.8109,0.5842,-0.0064,-0.0291,0,0,0,0,0.011,-0.007,0
2018,5,17,22,12,16.713,-0.8109,0.5843,-0.0064,-0.0292,0,0,0,0,0.013,-0.004,0
2018,5,17,22,12,16.736,-0.8109,0.5843,-0.0064,-0.0292,0,0,0,-0.001,0.016,-0.005,0
2018,5,17,22,12,16.754,-0.8109,0.5843,-0.0064,-0.0291,0,0,0,-0.006,0.016,0,0
2018,5,17,22,12,16.776,-0.8108,0.5844,-0.0064,-0.0291,-0.7,-0.1,0,0,0.013,-0.005,0
2018,5,17,22,12,16.813,-0.8107,0.5845,-0.0064,-0.0291,-0.9,0,0,-0.001,0.015,-0.004,0
2018,5,17,22,12,16.836,-0.8106,0.5847,-0.0064,-0.0291,-1,-0.1,0,-0.001,0.01,-0.002,0
2018,5,17,22,12,16.841,-0.8106,0.5848,-0.0064,-0.0291,-1,-0.1,0,-0.002,0.014,-0.001,0
2018,5,17,22,12,16.857,-0.8104,0.5849,-0.0064,-0.0291,-1.4,0,0,-0.002,0.012,-0.006,1023
2018,5,17,22,12,16.88,-0.8103,0.5851,-0.0064,-0.0291,-1.3,0,-0.1,0,0.016,-0.009,1023
2018,5,17,22,12,16.896,-0.8102,0.5853,-0.0064,-0.0291,-1.2,-0.2,0.1,0,0.009,-0.008,1023
2018,5,17,22,12,16.915,-0.81,0.5855,-0.0064,-0.029,-1.1,0,0.2,-0.005,0.01,-0.005,1023
2018,5,17,22,12,16.954,-0.81,0.5856,-0.0063,-0.029,0,0,0,-0.008,0.022,-0.002,1023
2018,5,17,22,12,16.954,-0.8099,0.5857,-0.0063,-0.029,-0.7,0,-0.1,-0.001,0.009,-0.001,1023
2018,5,17,22,12,16.977,-0.8098,0.5858,-0.0063,-0.029,-0.9,0,0.1,0,0.008,0,1023
2018,5,17,22,12,16.995,-0.8097,0.5859,-0.0064,-0.029,-0.9,-0.1,-0.2,0,0.012,-0.006,1023
2018,5,17,22,12,17.018,-0.8096,0.5861,-0.0064,-0.029,-1.1,0,0,-0.001,0.016,-0.005,1023
2018,5,17,22,12,17.036,-0.8095,0.5862,-0.0064,-0.029,-1.1,0,0,-0.006,0.016,-0.005,1023
2018,5,17,22,12,17.059,-0.8094,0.5864,-0.0063,-0.029,-0.8,0,-0.1,-0.001,0.01,-0.004,1023
2018,5,17,22,12,17.077,-0.8094,0.5864,-0.0064,-0.029,-0.5,-0.1,-0.1,0,0.011,-0.003,1023
2018,5,17,22,12,17.101,-0.8094,0.5864,-0.0064,-0.029,0,0,0,-0.001,0.014,-0.007,1023
2018,5,17,22,12,17.121,-0.8094,0.5864,-0.0064,-0.029,0,0,0,0.002,0.011,-0.005,1023
2018,5,17,22,12,17.138,-0.8094,0.5864,-0.0064,-0.029,0,0,0,0,0.014,-0.004,1023
2018,5,17,22,12,17.161,-0.8094,0.5864,-0.0064,-0.029,0,0,0,-0.001,0.013,-0.005,1023
2018,5,17,22,12,17.179,-0.8094,0.5864,-0.0064,-0.029,0,0,0,0,0.013,0,1023
2018,5,17,22,12,17.202,-0.8094,0.5864,-0.0064,-0.029,0,0,0,0.005,0.006,-0.008,1023
2018,5,17,22,12,17.22,-0.8094,0.5864,-0.0064,-0.029,0,0,0,0,0.012,-0.004,0
2018,5,17,22,12,17.238,-0.8094,0.5864,-0.0064,-0.029,0,0,0,-0.002,0.014,0,0
2018,5,17,22,12,17.261,-0.8094,0.5864,-0.0063,-0.029,0,0,0,0,0.017,-0.003,0
2018,5,17,22,12,17.281,-0.8094,0.5864,-0.0063,-0.029,0,0,0,-0.002,0.02,0.001,0
2018,5,17,22,12,17.298,-0.8094,0.5863,-0.0063,-0.029,-0.5,0,0,-0.002,0.013,-0.002,0
2018,5,17,22,12,17.321,-0.8094,0.5864,-0.0063,-0.029,-0.5,-0.1,-0.1,-0.002,0.012,-0.007,0
2018,5,17,22,12,17.34,-0.8093,0.5865,-0.0064,-0.029,-0.7,0,-0.1,-0.003,0.011,-0.011,0
2018,5,17,22,12,17.36,-0.8092,0.5866,-0.0064,-0.029,-0.6,0,0,-0.001,0.012,-0.005,0
2018,5,17,22,12,17.399,-0.8092,0.5867,-0.0063,-0.029,0,0,0,-0.002,0.012,-0.007,0
2018,5,17,22,12,17.421,-0.8092,0.5867,-0.0063,-0.029,0,0,0,0,0.013,-0.006,0
2018,5,17,22,12,17.426,-0.8092,0.5867,-0.0063,-0.029,0,0,0,-0.001,0.01,-0.004,0
2018,5,17,22,12,17.44,-0.8092,0.5867,-0.0063,-0.029,0,0,0,-0.003,0.008,-0.004,0
2018,5,17,22,12,17.459,-0.8092,0.5867,-0.0063,-0.029,0,0,0,-0.004,0.017,-0.005,0
2018,5,17,22,12,17.482,-0.8092,0.5867,-0.0063,-0.0289,0.5,0,0.1,0,0.011,-0.004,0
2018,5,17,22,12,17.5,-0.8092,0.5867,-0.0063,-0.0289,0.6,0,0.1,-0.002,0.012,-0.006,0
2018,5,17,22,12,17.523,-0.8092,0.5866,-0.0063,-0.0289,0,0,0,-0.001,0.015,-0.009,0
2018,5,17,22,12,17.54,-0.8092,0.5866,-0.0063,-0.0289,0,0,0,-0.002,0.016,0.001,0
2018,5,17,22,12,17.563,-0.8092,0.5866,-0.0062,-0.0289,0,0,0,-0.005,0.016,-0.006,0
2018,5,17,22,12,17.581,-0.8092,0.5866,-0.0062,-0.0288,0,0,0,-0.009,0.018,-0.001,0
2018,5,17,22,12,17.604,-0.8092,0.5867,-0.0062,-0.0288,0,0,0,-0.005,0.021,-0.002,0
2018,5,17,22,12,17.641,-0.8092,0.5867,-0.0062,-0.0288,0,0,0,0.001,0.007,-0.007,0
2018,5,17,22,12,17.641,-0.8092,0.5867,-0.0062,-0.0288,0,0,0,-0.003,0.015,0.001,0
2018,5,17,22,12,17.663,-0.8092,0.5866,-0.0062,-0.0288,0,0,0,-0.003,0.013,-0.003,0
2018,5,17,22,12,17.683,-0.8092,0.5866,-0.0062,-0.0288,-0.5,0.1,0,-0.002,0.015,-0.003,1023
2018,5,17,22,12,17.709,-0.8091,0.5868,-0.0062,-0.0288,-0.5,-0.1,0.1,-0.001,0.01,-0.004,1023
2018,5,17,22,12,17.731,-0.8091,0.5868,-0.0061,-0.0288,0,0,0,-0.004,0.012,-0.003,1023
2018,5,17,22,12,17.743,-0.8091,0.5868,-0.0061,-0.0288,0,0,0,-0.002,0.012,-0.008,1023
2018,5,17,22,12,17.761,-0.8091,0.5868,-0.0061,-0.0287,0,0,0,-0.001,0.013,-0.005,1023
2018,5,17,22,12,17.783,-0.8091,0.5868,-0.0061,-0.0287,0,0,0,-0.002,0.013,-0.001,1023
2018,5,17,22,12,17.804,-0.8091,0.5868,-0.0061,-0.0287,0.5,0,0,0,0.013,-0.006,1023
2018,5,17,22,12,17.826,-0.8091,0.5868,-0.0061,-0.0287,0,0,0,0,0.016,-0.005,1023
2018,5,17,22,12,17.845,-0.8091,0.5868,-0.0061,-0.0287,0,0,0,-0.002,0.013,-0.008,1023
2018,5,17,22,12,17.868,-0.8091,0.5868,-0.0061,-0.0287,0,0,0,0,0.011,-0.007,1023
2018,5,17,22,12,17.884,-0.8091,0.5868,-0.0061,-0.0287,0,0,0,0,0.013,-0.006,1023
2018,5,17,22,12,17.907,-0.8091,0.5868,-0.0061,-0.0287,0,0,0,-0.001,0.013,0,1023
2018,5,17,22,12,17.925,-0.8092,0.5867,-0.006,-0.0287,0,0,0,0,0.015,0,1023
2018,5,17,22,12,17.947,-0.8092,0.5867,-0.006,-0.0287,0,0,0,-0.001,0.018,-0.005,1023
2018,5,17,22,12,17.964,-0.8092,0.5867,-0.006,-0.0287,-0.6,-0.1,0,-0.001,0.015,-0.003,1023
2018,5,17,22,12,18.001,-0.8092,0.5867,-0.006,-0.0287,-0.5,0,0,-0.002,0.014,0.001,1023
2018,5,17,22,12,18.023,-0.8091,0.5868,-0.006,-0.0287,0,0,0,0,0.013,-0.009,1023
2018,5,17,22,12,18.028,-0.8091,0.5868,-0.006,-0.0287,0,0,0,-0.004,0.012,-0.007,0
2018,5,17,22,12,18.063,-0.8091,0.5868,-0.006,-0.0286,0,0,0,-0.002,0.015,-0.005,0
2018,5,17,22,12,18.063,-0.8091,0.5868,-0.006,-0.0286,0,0,0,-0.001,0.014,-0.006,0
2018,5,17,22,12,18.085,-0.8091,0.5868,-0.006,-0.0286,0,0,0,-0.001,0.012,-0.011,0
2018,5,17,22,12,18.122,-0.8091,0.5868,-0.006,-0.0286,0,0,0,-0.003,0.014,-0.003,0
2018,5,17,22,12,18.145,-0.8091,0.5868,-0.006,-0.0286,0,0,0,-0.003,0.013,-0.007,0
2018,5,17,22,12,18.15,-0.8091,0.5868,-0.0059,-0.0286,0,0,0,-0.002,0.014,-0.007,0
2018,5,17,22,12,18.187,-0.8091,0.5868,-0.0059,-0.0286,0,0,0,0,0.014,-0.009,0
2018,5,17,22,12,18.187,-0.8091,0.5868,-0.0059,-0.0286,0,0,0,0,0.016,-0.002,0
2018,5,17,22,12,18.21,-0.8091,0.5868,-0.0059,-0.0286,0,0,0,-0.002,0.017,-0.006,0
2018,5,17,22,12,18.228,-0.8091,0.5868,-0.0059,-0.0286,0,0,0,0,0.014,-0.008,0
2018,5,17,22,12,18.246,-0.8091,0.5868,-0.0059,-0.0286,0,0,0,-0.002,0.014,-0.006,0
2018,5,17,22,12,18.268,-0.8091,0.5868,-0.0059,-0.0286,0,0,0,-0.002,0.016,-0.002,0
2018,5,17,22,12,18.288,-0.8091,0.5868,-0.0059,-0.0286,0,0,0,0,0.012,-0.005,0
2018,5,17,22,12,18.307,-0.8092,0.5868,-0.0059,-0.0286,0,0,0,-0.001,0.014,-0.003,0
2018,5,17,22,12,18.329,-0.8092,0.5867,-0.0059,-0.0286,0,0,0,-0.002,0.02,-0.001,0
2018,5,17,22,12,18.366,-0.8091,0.5868,-0.0059,-0.0286,0,0,0,-0.007,0.02,-0.002,0
2018,5,17,22,12,18.388,-0.8091,0.5868,-0.0059,-0.0286,0,0,0,-0.005,0.019,-0.003,0
2018,5,17,22,12,18.393,-0.8092,0.5867,-0.0059,-0.0286,0,0,0,0,0.011,-0.007,0
2018,5,17,22,12,18.405,-0.8092,0.5867,-0.0059,-0.0286,0,0,0,-0.001,0.01,-0.004,0
2018,5,17,22,12,18.444,-0.8092,0.5867,-0.0059,-0.0285,0,0,0,0,0.013,0,0
2018,5,17,22,12,18.466,-0.8092,0.5867,-0.0059,-0.0286,0,0,0,0.001,0.01,-0.006,0
2018,5,17,22,12,18.471,-0.8092,0.5867,-0.0058,-0.0286,0.1,0.6,-0.3,-0.003,0.011,-0.007,1023
2018,5,17,22,12,18.486,-0.8092,0.5867,-0.0058,-0.0287,0.6,0.4,-0.1,-0.002,0.015,-0.004,1023
2018,5,17,22,12,18.51,-0.8093,0.5865,-0.0058,-0.0287,0.9,0.3,-0.2,-0.003,0.015,-0.003,1023
2018,5,17,22,12,18.527,-0.8094,0.5864,-0.0058,-0.0288,1,0.3,-0.6,0,0.014,-0.001,1023
2018,5,17,22,12,18.55,-0.8095,0.5862,-0.0058,-0.0289,0.9,0.3,-0.5,-0.001,0.014,0,1023
2018,5,17,22,12,18.587,-0.8096,0.5861,-0.0058,-0.029,0.9,0.3,-0.3,-0.001,0.016,-0.005,1023
2018,5,17,22,12,18.609,-0.8097,0.5859,-0.0058,-0.0291,0.7,0.3,-0.1,0,0.015,-0.004,1023
2018,5,17,22,12,18.614,-0.8098,0.5858,-0.0057,-0.0291,0.5,0.5,-0.2,0,0.013,-0.006,1023
2018,5,17,22,12,18.631,-0.8099,0.5858,-0.0057,-0.0292,0.4,0.5,-0.1,-0.002,0.012,-0.005,1023
2018,5,17,22,12,18.654,-0.8099,0.5857,-0.0056,-0.0292,0.5,0.1,0,0,0.014,-0.007,1023
2018,5,17,22,12,18.69,-0.81,0.5856,-0.0056,-0.0292,0,0,0,-0.002,0.019,0,1023
2018,5,17,22,12,18.69,-0.81,0.5856,-0.0056,-0.0292,0,0,0,-0.001,0.015,-0.003,1023
2018,5,17,22,12,18.713,-0.81,0.5856,-0.0056,-0.0292,0,0,0,-0.004,0.021,-0.002,1023
2018,5,17,22,12,18.731,-0.81,0.5855,-0.0056,-0.0292,0,0,0,-0.001,0.016,0.002,1023
2018,5,17,22,12,18.75,-0.81,0.5855,-0.0056,-0.0292,0,0,0,0,0.012,-0.005,1023
2018,5,17,22,12,18.772,-0.81,0.5856,-0.0056,-0.0292,0,0,0,-0.001,0.013,-0.003,1023
2018,5,17,22,12,18.79,-0.8099,0.5856,-0.0056,-0.0293,0,0,0,-0.001,0.009,-0.007,0
2018,5,17,22,12,18.813,-0.8099,0.5856,-0.0056,-0.0293,0,0,0,0,0.012,-0.007,0
2018,5,17,22,12,18.831,-0.8099,0.5857,-0.0056,-0.0293,0,0,0,0,0.011,-0.008,0
2018,5,17,22,12,18.854,-0.8099,0.5857,-0.0056,-0.0293,0,0,0,0,0.013,-0.003,0
2018,5,17,22,12,18.873,-0.8099,0.5857,-0.0056,-0.0293,0,0,0,0.001,0.011,-0.003,0
2018,5,17,22,12,18.92,-0.8099,0.5857,-0.0056,-0.0293,0,0,0,0,0.013,-0.001,0
2018,5,17,22,12,18.923,-0.8099,0.5857,-0.0056,-0.0293,0,0,0,-0.003,0.012,-0.002,0
2018,5,17,22,12,18.931,-0.8099,0.5857,-0.0056,-0.0293,0,0,0,0,0.014,-0.006,0
2018,5,17,22,12,18.968,-0.8099,0.5857,-0.0056,-0.0292,0,0,0,-0.002,0.015,-0.001,0
2018,5,17,22,12,18.988,-0.8099,0.5857,-0.0056,-0.0292,0,0,0,0,0.016,-0.003,0
2018,5,17,22,12,18.991,-0.8099,0.5856,-0.0056,-0.0292,0,0,0,-0.002,0.015,-0.001,0
2018,5,17,22,12,19.028,-0.8099,0.5857,-0.0056,-0.0292,-0.6,-0.1,0,0,0.011,-0.005,0
2018,5,17,22,12,19.05,-0.8098,0.5858,-0.0056,-0.0292,0,0,0,0,0.012,-0.004,0
2018,5,17,22,12,19.052,-0.8098,0.5858,-0.0056,-0.0292,0,0,0,-0.002,0.013,-0.002,0
2018,5,17,22,12,19.072,-0.8098,0.5858,-0.0056,-0.0292,0,0,0,0,0.014,-0.005,0
2018,5,17,22,12,19.092,-0.8098,0.5858,-0.0056,-0.0292,0,0,0,-0.002,0.014,-0.001,0
2018,5,17,22,12,19.13,-0.8098,0.5858,-0.0056,-0.0292,0,0,0,-0.001,0.013,-0.001,0
2018,5,17,22,12,19.15,-0.8098,0.5858,-0.0056,-0.0292,0,0,0,-0.001,0.016,-0.005,0
2018,5,17,22,12,19.153,-0.8098,0.5858,-0.0055,-0.0292,0,0,0,0,0.013,-0.004,0
2018,5,17,22,12,19.189,-0.8098,0.5858,-0.0056,-0.0292,0,0,0,-0.009,0.019,-0.003,0
2018,5,17,22,12,19.211,-0.8098,0.5858,-0.0056,-0.0292,0,0,0,0.004,0.005,-0.009,0
2018,5,17,22,12,19.214,-0.8098,0.5858,-0.0055,-0.0292,0,0,0,-0.005,0.019,-0.003,0
2018,5,17,22,12,19.252,-0.8098,0.5858,-0.0055,-0.0292,-0.6,0,0,0,0.012,-0.008,0
2018,5,17,22,12,19.271,-0.8098,0.5859,-0.0055,-0.0292,-0.5,-0.1,0,-0.002,0.012,-0.003,1023
2018,5,17,22,12,19.275,-0.8097,0.586,-0.0055,-0.0292,-1,0,0,-0.001,0.014,-0.001,1023
2018,5,17,22,12,19.311,-0.8096,0.5861,-0.0056,-0.0292,-1.1,0,0,0,0.014,-0.004,1023
2018,5,17,22,12,19.333,-0.8095,0.5863,-0.0055,-0.0292,-0.6,0,0.1,-0.002,0.008,-0.003,1023
2018,5,17,22,12,19.338,-0.8095,0.5863,-0.0055,-0.0292,0,0,0,-0.001,0.013,-0.005,1023
2018,5,17,22,12,19.373,-0.8094,0.5863,-0.0055,-0.0291,0,0,0,0,0.014,-0.007,1023
2018,5,17,22,12,19.396,-0.8094,0.5863,-0.0055,-0.0291,0,0,0,0,0.014,-0.006,1023
2018,5,17,22,12,19.401,-0.8094,0.5863,-0.0055,-0.0291,0,0,0,-0.002,0.016,-0.004,1023
2018,5,17,22,12,19.415,-0.8094,0.5863,-0.0055,-0.0292,0,0,0,-0.002,0.013,-0.002,1023
2018,5,17,22,12,19.451,-0.8094,0.5863,-0.0055,-0.0292,0,0,0,0,0.011,-0.002,1023
2018,5,17,22,12,19.475,-0.8094,0.5863,-0.0055,-0.0292,0,0,0,-0.001,0.013,-0.003,1023
2018,5,17,22,12,19.479,-0.8094,0.5863,-0.0055,-0.0292,0,0,0,-0.003,0.018,-0.005,1023
2018,5,17,22,12,19.495,-0.8094,0.5863,-0.0055,-0.0292,0,0,0,0,0.011,-0.003,1023
2018,5,17,22,12,19.516,-0.8095,0.5863,-0.0055,-0.0292,0,0,0,-0.004,0.01,-0.003,1023
2018,5,17,22,12,19.554,-0.8095,0.5863,-0.0055,-0.0292,0,0,0,-0.001,0.015,-0.004,1023
2018,5,17,22,12,19.578,-0.8095,0.5863,-0.0055,-0.0291,-0.6,-0.1,0,0,0.016,-0.003,1023
2018,5,17,22,12,19.583,-0.8094,0.5864,-0.0055,-0.0292,-0.9,-0.1,0,0,0.016,-0.003,1023
2018,5,17,22,12,19.599,-0.8093,0.5865,-0.0055,-0.0292,-0.7,0,-0.1,0,0.014,-0.002,0
2018,5,17,22,12,19.637,-0.8092,0.5866,-0.0055,-0.0292,-0.7,0,-0.1,0.002,0.01,-0.005,0
2018,5,17,22,12,19.66,-0.8092,0.5867,-0.0055,-0.0292,0,0,0,-0.003,0.012,-0.001,0
2018,5,17,22,12,19.664,-0.8092,0.5867,-0.0055,-0.0292,0,0,0,0.002,0.009,-0.007,0
2018,5,17,22,12,19.68,-0.8092,0.5867,-0.0055,-0.0292,0,0,0,0,0.011,-0.001,0
2018,5,17,22,12,19.698,-0.8092,0.5867,-0.0055,-0.0292,0,0,0,-0.001,0.014,-0.004,0
2018,5,17,22,12,19.735,-0.8092,0.5867,-0.0055,-0.0292,0,0,0,-0.001,0.014,-0.003,0
2018,5,17,22,12,19.756,-0.8092,0.5867,-0.0055,-0.0292,0,0,0,0.001,0.012,-0.003,0
2018,5,17,22,12,19.76,-0.8092,0.5867,-0.0055,-0.0292,0,0,0,-0.001,0.015,-0.002,0
2018,5,17,22,12,19.777,-0.8092,0.5867,-0.0055,-0.0292,0,0,0,-0.003,0.013,-0.005,0
2018,5,17,22,12,19.798,-0.8092,0.5867,-0.0055,-0.0292,0,0,0,0,0.016,-0.006,0
2018,5,17,22,12,19.817,-0.8092,0.5867,-0.0055,-0.0292,0,0,0,-0.001,0.016,-0.005,0
2018,5,17,22,12,19.842,-0.8092,0.5866,-0.0055,-0.0292,0,0,0,0,0.014,-0.005,0
2018,5,17,22,12,19.859,-0.8092,0.5866,-0.0055,-0.0292,0,0,0,-0.002,0.013,-0.007,0
2018,5,17,22,12,19.879,-0.8092,0.5866,-0.0055,-0.0292,0,0,0,0,0.013,-0.003,0
2018,5,17,22,12,19.897,-0.8092,0.5866,-0.0055,-0.0292,0,0,0,-0.001,0.011,-0.005,0
2018,5,17,22,12,19.915,-0.8092,0.5866,-0.0055,-0.0292,0,0,0,-0.001,0.014,-0.005,0
2018,5,17,22,12,19.938,-0.8092,0.5866,-0.0055,-0.0292,0,0,0,0,0.009,-0.001,0
2018,5,17,22,12,19.975,-0.8092,0.5867,-0.0055,-0.0292,0,0,0,0.007,0.006,-0.007,0
2018,5,17,22,12,19.994,-0.8092,0.5867,-0.0055,-0.0292,0,0,0,0.001,0.004,-0.005,0
2018,5,17,22,12,20,-0.8092,0.5866,-0.0055,-0.0292,0,0,0,-0.002,0.013,-0.006,0
2018,5,17,22,12,20.036,-0.8092,0.5867,-0.0055,-0.0292,0,0,0,-0.002,0.013,-0.003,0
2018,5,17,22,12,20.057,-0.8092,0.5866,-0.0055,-0.0292,0,0,0,0,0.014,-0.002,0
2018,5,17,22,12,20.062,-0.8092,0.5866,-0.0055,-0.0292,0,0,0,0,0.011,-0.005,0
2018,5,17,22,12,20.08,-0.8092,0.5866,-0.0055,-0.0292,0,0,0,0,0.014,-0.003,0
2018,5,17,22,12,20.102,-0.8092,0.5866,-0.0055,-0.0292,0,0,0,-0.001,0.011,-0.005,0
2018,5,17,22,12,20.121,-0.8092,0.5866,-0.0055,-0.0292,0,0,0,-0.001,0.01,-0.009,0
2018,5,17,22,12,20.157,-0.8092,0.5866,-0.0055,-0.0292,0,0,0,-0.002,0.014,-0.008,1023
2018,5,17,22,12,20.18,-0.8092,0.5867,-0.0055,-0.0292,0,0,0,0,0.018,-0.004,1023
2018,5,17,22,12,20.184,-0.8092,0.5867,-0.0055,-0.0292,0,0,0,0,0.014,-0.006,1023
2018,5,17,22,12,20.2,-0.8092,0.5867,-0.0055,-0.0292,0,0,0,0,0.013,-0.002,1023
2018,5,17,22,12,20.223,-0.8092,0.5867,-0.0055,-0.0292,0,0,0,0,0.014,-0.008,1023
2018,5,17,22,12,20.243,-0.8092,0.5867,-0.0055,-0.0292,0,0,0,0,0.007,-0.007,1023
2018,5,17,22,12,20.261,-0.8092,0.5867,-0.0055,-0.0292,0,0,0,-0.001,0.014,0,1023
2018,5,17,22,12,20.284,-0.8092,0.5866,-0.0055,-0.0292,0.5,0,0.1,0,0.016,-0.006,1023
2018,5,17,22,12,20.32,-0.8092,0.5866,-0.0055,-0.0292,0,0,0,0,0.012,-0.002,1023
2018,5,17,22,12,20.343,-0.8092,0.5866,-0.0055,-0.0292,0,0,0,-0.001,0.018,-0.002,1023
2018,5,17,22,12,20.348,-0.8093,0.5866,-0.0055,-0.0292,0,0,0,0,0.016,0.002,1023
2018,5,17,22,12,20.364,-0.8093,0.5865,-0.0055,-0.0292,0,0,0,-0.003,0.011,-0.009,1023
2018,5,17,22,12,20.382,-0.8093,0.5866,-0.0055,-0.0292,0,0,0,-0.001,0.011,-0.008,1023
2018,5,17,22,12,20.406,-0.8092,0.5866,-0.0055,-0.0292,0,0,0,0,0.007,-0.002,1023
2018,5,17,22,12,20.424,-0.8092,0.5866,-0.0055,-0.0292,0,0,0,-0.002,0.013,-0.004,1023
2018,5,17,22,12,20.447,-0.8092,0.5866,-0.0055,-0.0292,0,0,0,-0.001,0.012,-0.006,1023
2018,5,17,22,12,20.463,-0.8093,0.5866,-0.0055,-0.0292,0,0,0,0,0.013,-0.004,1023
2018,5,17,22,12,20.482,-0.8093,0.5866,-0.0055,-0.0292,0,0,0,-0.001,0.014,-0.004,1023
2018,5,17,22,12,20.505,-0.8092,0.5866,-0.0055,-0.0292,0,0,0,0,0.015,-0.003,1023
2018,5,17,22,12,20.523,-0.8092,0.5866,-0.0055,-0.0292,0,0,0,-0.001,0.014,0,1023
2018,5,17,22,12,20.546,-0.8093,0.5866,-0.0055,-0.0292,0,0,0,0,0.014,-0.005,0
2018,5,17,22,12,20.565,-0.8093,0.5866,-0.0055,-0.0292,0,0,0,-0.002,0.012,-0.001,0
2018,5,17,22,12,20.588,-0.8093,0.5866,-0.0055,-0.0292,0,0,0,-0.002,0.013,-0.003,0
2018,5,17,22,12,20.607,-0.8093,0.5866,-0.0055,-0.0292,0,0,0,0,0.012,0,0
2018,5,17,22,12,20.626,-0.8093,0.5866,-0.0055,-0.0292,0,0,0,-0.001,0.015,-0.007,0
2018,5,17,22,12,20.647,-0.8093,0.5866,-0.0054,-0.0292,0,0,0,0.001,0.012,-0.003,0
2018,5,17,22,12,20.665,-0.8093,0.5866,-0.0055,-0.0292,0,0,0,0,0.01,-0.003,0
2018,5,17,22,12,20.686,-0.8093,0.5866,-0.0055,-0.0292,0,0,0,0,0.014,-0.004,0
2018,5,17,22,12,20.704,-0.8093,0.5866,-0.0055,-0.0292,0,0,0,0,0.016,-0.003,0
2018,5,17,22,12,20.74,-0.8093,0.5866,-0.0054,-0.0292,0,0,0,-0.002,0.015,-0.003,0
2018,5,17,22,12,20.764,-0.8093,0.5866,-0.0054,-0.0291,0,0,0,-0.003,0.019,0,0
2018,5,17,22,12,20.769,-0.8093,0.5866,-0.0054,-0.0291,0,0,0,-0.01,0.017,-0.004,0
2018,5,17,22,12,20.785,-0.8092,0.5866,-0.0054,-0.0291,0,0,0,0.003,0.01,-0.007,0
2018,5,17,22,12,20.823,-0.8093,0.5866,-0.0054,-0.0291,0,0,0,-0.001,0.013,-0.003,0
2018,5,17,22,12,20.846,-0.8093,0.5866,-0.0054,-0.0291,0,0,0,-0.001,0.013,-0.003,0
2018,5,17,22,12,20.851,-0.8093,0.5866,-0.0054,-0.0291,0,0,0,0.001,0.013,-0.007,0
2018,5,17,22,12,20.867,-0.8092,0.5866,-0.0054,-0.0291,-0.7,0,0.1,0,0.012,-0.007,0
2018,5,17,22,12,20.889,-0.8092,0.5867,-0.0054,-0.0291,0,0,0,-0.002,0.012,-0.006,0
2018,5,17,22,12,20.907,-0.8092,0.5867,-0.0054,-0.0291,0,0,0,-0.002,0.013,-0.005,0
2018,5,17,22,12,20.941,-0.8092,0.5867,-0.0054,-0.0291,0,0,0,-0.002,0.012,-0.005,0
2018,5,17,22,12,20.964,-0.8091,0.5867,-0.0054,-0.0291,0,0,0,0,0.011,-0.007,1023
2018,5,17,22,12,20.968,-0.8091,0.5867,-0.0054,-0.0291,0,0,0,0,0.012,-0.004,1023
2018,5,17,22,12,21.004,-0.8091,0.5867,-0.0054,-0.0291,0,0,0,0.001,0.011,-0.006,1023
2018,5,17,22,12,21.027,-0.8091,0.5867,-0.0054,-0.0291,0,0,0,0,0.013,-0.011,1023
2018,5,17,22,12,21.032,-0.8091,0.5868,-0.0054,-0.0291,0,0,0,-0.001,0.013,-0.007,1023
2018,5,17,22,12,21.047,-0.8091,0.5868,-0.0054,-0.0291,0,0,0,-0.001,0.012,0,1023
2018,5,17,22,12,21.071,-0.8091,0.5868,-0.0054,-0.0291,0,0,0,0,0.016,-0.009,1023
2018,5,17,22,12,21.089,-0.8091,0.5867,-0.0054,-0.0291,0,0,0,-0.001,0.015,-0.001,1023
2018,5,17,22,12,21.112,-0.8092,0.5867,-0.0054,-0.0291,0,0,0,0,0.013,-0.003,1023
2018,5,17,22,12,21.132,-0.8092,0.5867,-0.0054,-0.0291,0,0,0,-0.001,0.017,-0.004,1023
2018,5,17,22,12,21.149,-0.8092,0.5867,-0.0054,-0.0291,0,0,0,0,0.011,-0.004,1023
2018,5,17,22,12,21.171,-0.8091,0.5868,-0.0054,-0.0291,-0.6,0,0,-0.001,0.014,-0.005,1023
2018,5,17,22,12,21.19,-0.8091,0.5868,-0.0054,-0.0291,-0.6,0,0,-0.001,0.012,-0.004,1023
2018,5,17,22,12,21.211,-0.8091,0.5868,-0.0054,-0.0291,0,0,0,-0.001,0.015,-0.003,1023
2018,5,17,22,12,21.229,-0.8091,0.5868,-0.0054,-0.0291,0,0,0,0,0.011,-0.004,1023
2018,5,17,22,12,21.247,-0.8091,0.5868,-0.0054,-0.0291,0,0,0,0,0.013,-0.005,1023
2018,5,17,22,12,21.27,-0.8091,0.5868,-0.0054,-0.0291,0,0,0,-0.001,0.013,-0.008,1023
2018,5,17,22,12,21.288,-0.8091,0.5868,-0.0054,-0.0291,0,0,0,0.001,0.012,-0.004,1023
2018,5,17,22,12,21.311,-0.8091,0.5868,-0.0054,-0.0291,0,0,0,-0.002,0.016,-0.002,0
2018,5,17,22,12,21.33,-0.8091,0.5868,-0.0054,-0.0291,0,0,0,-0.002,0.012,-0.008,0
2018,5,17,22,12,21.352,-0.8091,0.5869,-0.0054,-0.0291,0,0,0,-0.002,0.011,-0.005,0
2018,5,17,22,12,21.389,-0.8091,0.5869,-0.0054,-0.0291,0,0,0,0,0.012,-0.003,0
2018,5,17,22,12,21.412,-0.8091,0.5869,-0.0054,-0.0291,0,0,0,-0.003,0.013,-0.005,0
2018,5,17,22,12,21.417,-0.8091,0.5869,-0.0054,-0.0291,0,0,0,0.001,0.012,-0.005,0
2018,5,17,22,12,21.433,-0.809,0.5869,-0.0054,-0.0291,0,0,0,-0.001,0.016,-0.006,0
2018,5,17,22,12,21.456,-0.809,0.5869,-0.0054,-0.0291,0,0,0,-0.002,0.013,-0.002,0
2018,5,17,22,12,21.472,-0.809,0.5869,-0.0054,-0.0291,0,0,0,0,0.012,-0.003,0
