time_1,time_2,time_3,time_4,time_5,time_6,w,x,y,z,droll,dpitch,dyaw,ax,ay,az,heart
2018,5,17,22,22,35.91,0.5044,0.4131,-0.7007,0.2896,0.5,0.3,-0.2,-0.002,0.002,-0.008,1023
2018,5,17,22,22,35.932,0.5043,0.4131,-0.7006,0.2897,0.9,0.2,-0.2,-0.004,0.003,-0.004,0
2018,5,17,22,22,35.935,0.5041,0.4134,-0.7006,0.2898,0.9,0,0,0.002,0.007,0,0
2018,5,17,22,22,35.972,0.504,0.4136,-0.7005,0.2898,0,0,0,0.001,0.005,0,0
2018,5,17,22,22,35.972,0.5042,0.4135,-0.7004,0.29,0,0,0,0.002,-0.004,0.009,0
2018,5,17,22,22,35.994,0.5042,0.4134,-0.7003,0.2902,0.6,0.1,0,-0.001,-0.005,0.009,0
2018,5,17,22,22,36.031,0.5041,0.4136,-0.7002,0.2904,1.3,0.4,0.1,0,-0.007,0.002,0
2018,5,17,22,22,36.053,0.504,0.4137,-0.7001,0.2907,1.2,0.5,0.3,0,-0.002,-0.001,0
2018,5,17,22,22,36.055,0.5037,0.4141,-0.7001,0.2907,0.4,0.6,0.1,0,0.001,-0.006,0
2018,5,17,22,22,36.093,0.5035,0.4143,-0.7001,0.2907,0.4,1.1,0,-0.002,-0.001,-0.003,0
2018,5,17,22,22,36.114,0.5031,0.4146,-0.7002,0.2907,1.6,1.4,0,0,-0.002,-0.009,0
2018,5,17,22,22,36.117,0.5026,0.415,-0.7002,0.2908,2.9,1.5,0,-0.003,0,-0.01,0
2018,5,17,22,22,36.152,0.5022,0.4155,-0.7002,0.2911,2.3,1.5,-0.1,-0.003,0.007,-0.007,0
2018,5,17,22,22,36.173,0.5018,0.4158,-0.7002,0.2912,1.3,1.1,-0.3,0,0.007,0.008,0
2018,5,17,22,22,36.177,0.5017,0.4161,-0.7001,0.2912,0.7,0.6,-0.3,0.004,0.007,0.01,0
2018,5,17,22,22,36.212,0.5015,0.4163,-0.7001,0.2913,1.3,0.4,0.4,0.008,-0.002,0.001,0
2018,5,17,22,22,36.235,0.5013,0.4166,-0.7,0.2916,2.5,0.3,0.2,0.008,-0.006,-0.003,0
2018,5,17,22,22,36.239,0.5005,0.4174,-0.6999,0.292,0.8,0.3,-0.6,0.002,-0.006,-0.003,0
2018,5,17,22,22,36.256,0.5003,0.4174,-0.6999,0.2922,-0.6,0.2,-0.8,-0.004,-0.009,0,0
2018,5,17,22,22,36.279,0.5003,0.4173,-0.7,0.2922,-1.3,-0.1,-0.9,-0.002,-0.005,-0.003,1023
2018,5,17,22,22,36.297,0.5003,0.417,-0.7001,0.2922,-1.2,0,-0.9,-0.003,-0.001,0,1023
2018,5,17,22,22,36.32,0.5002,0.4171,-0.7002,0.2921,-0.8,0.4,-0.8,0.001,0.003,0,1023
2018,5,17,22,22,36.338,0.5,0.4173,-0.7003,0.292,0.2,0.7,-0.6,0.004,0.003,0.006,1023
2018,5,17,22,22,36.36,0.4998,0.4174,-0.7003,0.2921,1,0.7,0,0.001,0.005,0.006,1023
2018,5,17,22,22,36.378,0.4998,0.4176,-0.7001,0.2923,1.3,0.6,0.7,-0.007,0.003,0.004,1023
2018,5,17,22,22,36.401,0.4996,0.418,-0.7,0.2924,1.4,0.1,1.1,-0.008,0,0.001,1023
2018,5,17,22,22,36.418,0.4995,0.4184,-0.6998,0.2925,1.2,0.4,1.1,-0.005,0.001,-0.011,1023
2018,5,17,22,22,36.441,0.4993,0.4188,-0.6997,0.2926,1.3,0.6,1,0,0.002,-0.007,1023
2018,5,17,22,22,36.459,0.4989,0.4192,-0.6997,0.2926,1.7,1.3,0.6,0.004,-0.002,-0.006,1023
2018,5,17,22,22,36.481,0.4986,0.4196,-0.6996,0.2927,1.5,1.2,0.6,0,-0.003,-0.002,1023
2018,5,17,22,22,36.498,0.4983,0.42,-0.6996,0.2928,1.5,0.7,0.4,0.001,-0.004,0,1023
2018,5,17,22,22,36.521,0.4981,0.4203,-0.6995,0.2929,0.9,0.3,0.4,0.005,0,0.001,1023
2018,5,17,22,22,36.538,0.4981,0.4203,-0.6994,0.2931,0,0,0,0.004,-0.001,-0.002,1023
2018,5,17,22,22,36.56,0.4982,0.4202,-0.6994,0.293,-1.4,-0.4,0.1,0.004,0.001,0.002,1023
2018,5,17,22,22,36.597,0.4983,0.4202,-0.6994,0.2929,-1.2,-0.6,-0.1,0.005,0.001,-0.001,1023
2018,5,17,22,22,36.62,0.4984,0.4201,-0.6993,0.293,-0.4,-0.3,-0.5,0.013,0.006,0.004,1023
2018,5,17,22,22,36.625,0.4984,0.4202,-0.6993,0.293,-0.2,0,-0.6,0.007,0,0.005,0
2018,5,17,22,22,36.641,0.4984,0.4202,-0.6993,0.2931,-0.4,-0.7,-0.4,0,-0.002,-0.002,0
2018,5,17,22,22,36.664,0.4984,0.4202,-0.6992,0.2932,0,-1,-0.3,-0.003,0,-0.006,0
2018,5,17,22,22,36.682,0.4984,0.4203,-0.6991,0.2933,0.1,-1,-0.3,-0.001,0.003,-0.004,0
2018,5,17,22,22,36.705,0.4984,0.4203,-0.6991,0.2934,-0.6,-0.8,-0.6,0,0.002,0,0
2018,5,17,22,22,36.741,0.4984,0.4203,-0.6991,0.2933,-0.9,-0.6,-0.8,-0.003,0,0.002,0
2018,5,17,22,22,36.741,0.4986,0.42,-0.699,0.2935,-0.7,-0.3,-0.4,-0.002,-0.001,0,0
2018,5,17,22,22,36.763,0.4987,0.4199,-0.699,0.2936,0,0,0,-0.002,0,-0.003,0
2018,5,17,22,22,36.781,0.4988,0.4198,-0.6989,0.2938,0,0,0,0.002,0,0,0
2018,5,17,22,22,36.799,0.4989,0.4197,-0.6988,0.2939,0,0,0,0.003,0.001,-0.001,0
2018,5,17,22,22,36.822,0.499,0.4196,-0.6988,0.2941,0,0,0,0.003,-0.004,0.007,0
2018,5,17,22,22,36.843,0.499,0.4196,-0.6987,0.2943,0.6,-0.1,-0.2,0.002,-0.001,-0.002,0
2018,5,17,22,22,36.861,0.4988,0.4198,-0.6986,0.2944,0.7,-0.5,0,0.003,0,0.005,0
2018,5,17,22,22,36.884,0.4989,0.4198,-0.6985,0.2946,0,0,0,0,0.001,0.004,0
2018,5,17,22,22,36.92,0.4989,0.4198,-0.6985,0.2946,-1.2,-0.6,-0.4,0,0,0.003,0
2018,5,17,22,22,36.942,0.4989,0.4198,-0.6985,0.2945,-1.1,-0.7,-0.4,-0.002,-0.002,0.001,0
2018,5,17,22,22,36.947,0.499,0.4198,-0.6985,0.2946,0,-0.9,-0.3,-0.002,-0.001,-0.003,0
2018,5,17,22,22,36.962,0.499,0.4199,-0.6983,0.2947,0.1,-1.1,0,0.002,0.003,0,0
2018,5,17,22,22,36.999,0.4991,0.4199,-0.6982,0.2948,-0.4,-0.9,-0.2,0.003,-0.002,0,0
2018,5,17,22,22,37.021,0.4992,0.4198,-0.6982,0.2948,-1.1,-0.6,-0.4,-0.003,-0.001,-0.004,0
2018,5,17,22,22,37.026,0.4992,0.4197,-0.6982,0.2948,-1.5,-0.8,-0.3,-0.01,-0.005,0,0
2018,5,17,22,22,37.042,0.4994,0.4196,-0.6982,0.2947,-1.6,-1,-0.4,-0.005,0,0,0
2018,5,17,22,22,37.064,0.4995,0.4195,-0.6982,0.2946,-1.5,-0.3,-0.5,0.002,-0.001,0.001,1023
2018,5,17,22,22,37.082,0.4996,0.4193,-0.6983,0.2946,-0.7,0.3,-0.4,0.007,0.001,0.003,1023
2018,5,17,22,22,37.105,0.4997,0.4192,-0.6982,0.2948,0,0,0,0,0,0.003,1023
2018,5,17,22,22,37.124,0.4995,0.4194,-0.6982,0.2949,0.8,0.4,0.1,-0.001,0.004,0.004,1023
2018,5,17,22,22,37.147,0.4995,0.4195,-0.698,0.295,0,0,0,0.001,0,0.002,1023
2018,5,17,22,22,37.165,0.4996,0.4194,-0.698,0.2952,0,0,0,0.004,0,0,1023
2018,5,17,22,22,37.187,0.4998,0.4193,-0.6979,0.2953,-0.2,-0.6,0.1,0.001,-0.003,0.002,1023
2018,5,17,22,22,37.206,0.4998,0.4192,-0.6978,0.2955,0,-0.5,0,0.003,-0.001,-0.003,1023
2018,5,17,22,22,37.227,0.4999,0.4191,-0.6978,0.2956,0,0,0,0,0,-0.002,1023
2018,5,17,22,22,37.244,0.4999,0.419,-0.6977,0.2958,0,0,0,0,-0.006,-0.004,1023
2018,5,17,22,22,37.262,0.4998,0.4191,-0.6978,0.2958,-0.7,-0.6,0,-0.005,-0.009,-0.006,1023
2018,5,17,22,22,37.286,0.4999,0.4191,-0.6977,0.2958,-0.7,-1,-0.1,-0.005,-0.002,-0.009,1023
2018,5,17,22,22,37.303,0.4999,0.4191,-0.6977,0.2958,-0.6,-1,-0.3,-0.002,0.001,-0.007,1023
2018,5,17,22,22,37.326,0.5,0.4191,-0.6977,0.2957,-1.4,-0.7,-0.4,0.003,0.003,0,1023
2018,5,17,22,22,37.363,0.5002,0.4189,-0.6977,0.2956,-1.7,-0.6,-0.4,0.003,-0.002,0,1023
2018,5,17,22,22,37.363,0.5003,0.4188,-0.6977,0.2956,-1.3,-0.3,-0.3,-0.001,0.001,0.002,1023
2018,5,17,22,22,37.386,0.5002,0.4189,-0.6977,0.2954,-0.7,-0.1,-0.1,-0.004,-0.004,-0.005,1023
2018,5,17,22,22,37.423,0.5003,0.4189,-0.6977,0.2955,0,0,0,-0.003,0.005,-0.002,0
2018,5,17,22,22,37.444,0.5004,0.4188,-0.6976,0.2956,0,0,0,0.001,0.004,0.001,0
2018,5,17,22,22,37.45,0.5004,0.4188,-0.6975,0.2957,-0.5,0,0,0.001,-0.001,0.007,0
2018,5,17,22,22,37.486,0.5005,0.4187,-0.6975,0.2958,0,0,0,-0.002,-0.007,0.013,0
2018,5,17,22,22,37.508,0.5007,0.4186,-0.6973,0.296,0,0,0,-0.004,0,0.008,0
2018,5,17,22,22,37.513,0.5007,0.4187,-0.6972,0.2961,0.1,-0.6,0.2,0.003,0,0.002,0
2018,5,17,22,22,37.527,0.5008,0.4186,-0.6971,0.2962,0,0,0,0.005,-0.001,-0.004,0
2018,5,17,22,22,37.564,0.5009,0.4186,-0.6971,0.2963,-0.6,0,0,0.002,0,-0.004,0
2018,5,17,22,22,37.587,0.5009,0.4186,-0.6971,0.2963,-0.1,0.4,0.5,-0.002,-0.003,-0.005,0
2018,5,17,22,22,37.592,0.5006,0.4189,-0.6971,0.2963,0.9,0.4,0.7,-0.006,-0.001,-0.002,0
2018,5,17,22,22,37.607,0.5004,0.4193,-0.697,0.2962,0.8,0.4,0.4,-0.003,0.002,-0.003,0
2018,5,17,22,22,37.63,0.5004,0.4194,-0.6969,0.2963,0,0,0,-0.001,0.004,0.002,0
2018,5,17,22,22,37.648,0.5006,0.4193,-0.6968,0.2964,-0.6,-0.1,0.2,0.001,0.003,0.012,0
2018,5,17,22,22,37.672,0.5006,0.4194,-0.6967,0.2964,-0.1,-0.4,0.9,0.001,0,0.002,0
2018,5,17,22,22,37.688,0.5007,0.4197,-0.6965,0.2963,0,-0.6,1.3,0.003,-0.001,0.002,0
2018,5,17,22,22,37.71,0.5007,0.4199,-0.6964,0.2963,-0.2,-0.7,0.7,0.001,-0.003,-0.003,0
2018,5,17,22,22,37.727,0.5008,0.42,-0.6963,0.2962,-1.2,-0.5,0.2,0,-0.003,-0.001,0
2018,5,17,22,22,37.745,0.5008,0.42,-0.6964,0.296,-1.8,-0.2,0,-0.002,-0.005,0,0
2018,5,17,22,22,37.768,0.5008,0.42,-0.6965,0.2959,-0.7,0.5,-0.6,0,-0.001,0.005,1023
2018,5,17,22,22,37.786,0.5006,0.4201,-0.6966,0.2959,0.2,1.2,-0.6,0,0.004,0,1023
2018,5,17,22,22,37.809,0.5002,0.4204,-0.6966,0.2958,1,1.4,-0.1,-0.001,0.006,0.003,1023
2018,5,17,22,22,37.845,0.5,0.4207,-0.6966,0.2959,1.7,1.1,0.3,-0.003,0.01,0.002,1023
2018,5,17,22,22,37.868,0.4998,0.4212,-0.6965,0.2959,1.7,0.8,0.8,0.001,0.006,0.003,1023
2018,5,17,22,22,37.87,0.4997,0.4215,-0.6962,0.2961,2.1,0.3,0.9,0,0.003,0.003,1023
2018,5,17,22,22,37.889,0.4994,0.422,-0.696,0.2963,2.2,0.3,1,-0.003,0.001,0,1023
2018,5,17,22,22,37.911,0.4987,0.423,-0.6958,0.2968,0.8,0.7,0,0.003,-0.004,-0.004,1023
2018,5,17,22,22,37.931,0.4981,0.4235,-0.6959,0.2968,0.1,0.6,0,-0.002,0.001,-0.004,1023
2018,5,17,22,22,37.954,0.498,0.4236,-0.6958,0.2969,0.4,0.5,0.2,-0.001,0.001,0.001,1023
2018,5,17,22,22,37.972,0.498,0.4239,-0.6957,0.2969,0.9,0.5,0.4,0,0.008,0.014,1023
2018,5,17,22,22,37.995,0.498,0.4241,-0.6955,0.297,1,0.2,0.6,-0.003,0.003,0.011,1023
2018,5,17,22,22,38.01,0.4975,0.4251,-0.6951,0.2973,1.7,0.7,0.8,0.003,-0.003,0,1023
2018,5,17,22,22,38.028,0.4973,0.4254,-0.695,0.2975,1.3,0.9,0,0.003,0,0,1023
2018,5,17,22,22,38.051,0.497,0.4257,-0.695,0.2976,1.1,1.1,0,-0.001,-0.002,-0.005,1023
2018,5,17,22,22,38.069,0.4968,0.4259,-0.695,0.2977,1,0.7,0.1,0.001,0.001,-0.003,1023
2018,5,17,22,22,38.092,0.4966,0.4261,-0.695,0.2977,0,0,0,0.001,0,-0.003,1023
2018,5,17,22,22,38.109,0.4966,0.4261,-0.6949,0.2978,-0.5,0,0,0,-0.002,0.003,1023
2018,5,17,22,22,38.133,0.4967,0.426,-0.6949,0.2979,-0.6,0.3,-0.1,-0.001,0,0.008,1023
2018,5,17,22,22,38.168,0.4968,0.4259,-0.6948,0.298,0,0,0,-0.003,0.002,0.003,1023
2018,5,17,22,22,38.191,0.4967,0.426,-0.6949,0.298,-0.6,0,-0.1,0,-0.003,-0.006,1023
2018,5,17,22,22,38.196,0.4967,0.426,-0.6949,0.2979,-0.7,0,-0.2,0.003,0,-0.008,1023
2018,5,17,22,22,38.231,0.4967,0.426,-0.6949,0.298,0,0,0,0.005,0.003,-0.008,0
2018,5,17,22,22,38.253,0.4965,0.4262,-0.6949,0.298,0.9,0.7,-0.2,0,0.003,0,0
2018,5,17,22,22,38.259,0.4962,0.4265,-0.6949,0.2981,1.1,0.6,-0.1,-0.003,0,0.003,0
2018,5,17,22,22,38.276,0.496,0.4266,-0.6948,0.2982,0.5,0.4,0,-0.003,-0.003,0.005,0
2018,5,17,22,22,38.294,0.4961,0.4266,-0.6948,0.2984,0,0,0,-0.004,0,0.001,0
2018,5,17,22,22,38.314,0.4963,0.4264,-0.6947,0.2985,0,0,0,-0.001,0,-0.003,0
2018,5,17,22,22,38.333,0.4964,0.4263,-0.6946,0.2987,0,0,0,0,0,-0.003,0
2018,5,17,22,22,38.37,0.4965,0.4262,-0.6945,0.2988,0,0,0,0.003,0,-0.002,0
2018,5,17,22,22,38.392,0.4965,0.4262,-0.6944,0.2989,0.5,0,0.4,0.006,0.002,0.001,0
2018,5,17,22,22,38.398,0.4966,0.4261,-0.6944,0.2991,0,0,0,0.001,0,0,0
2018,5,17,22,22,38.415,0.4967,0.426,-0.6943,0.2993,0,0,0,0,0,0,0
2018,5,17,22,22,38.434,0.4968,0.4259,-0.6942,0.2994,0,0,0,-0.002,0,0.005,0
2018,5,17,22,22,38.457,0.4969,0.4258,-0.6941,0.2995,-0.6,-0.3,0,-0.003,0.001,0.004,0
2018,5,17,22,22,38.474,0.497,0.4258,-0.6941,0.2997,0,0,0,0,0,-0.003,0
2018,5,17,22,22,38.497,0.4971,0.4257,-0.694,0.2998,0,0,0,0.001,0.001,-0.004,0
2018,5,17,22,22,38.513,0.4971,0.4256,-0.694,0.2999,0.1,0.5,-0.2,0.005,0.002,-0.003,0
2018,5,17,22,22,38.551,0.497,0.4257,-0.694,0.2999,0.4,0.6,-0.2,0.003,-0.002,-0.001,0
2018,5,17,22,22,38.573,0.4969,0.4258,-0.694,0.3,0,0,0,0.001,0,0,0
2018,5,17,22,22,38.577,0.497,0.4257,-0.6939,0.3001,0,0,0,-0.002,0,-0.001,1023
2018,5,17,22,22,38.595,0.4971,0.4256,-0.6939,0.3002,0,0,0,0.004,0.002,0,1023
2018,5,17,22,22,38.617,0.4971,0.4256,-0.6938,0.3002,-0.6,-0.5,-0.3,0.003,0,-0.001,1023
2018,5,17,22,22,38.638,0.4971,0.4256,-0.6938,0.3003,-0.5,-0.4,-0.1,-0.002,0.001,0.003,1023
2018,5,17,22,22,38.656,0.4973,0.4255,-0.6937,0.3003,-0.2,-1,0,0,0.002,0,1023
2018,5,17,22,22,38.678,0.4973,0.4256,-0.6936,0.3004,-0.6,-1.2,0,-0.001,0,-0.003,1023
2018,5,17,22,22,38.696,0.4974,0.4256,-0.6936,0.3003,-1.1,-1.5,0.1,0.001,-0.002,-0.007,1023
2018,5,17,22,22,38.717,0.4976,0.4255,-0.6935,0.3003,-1.1,-1.2,-0.1,0,0,0,1023
2018,5,17,22,22,38.755,0.4977,0.4255,-0.6935,0.3003,-1.2,-1.1,-0.1,0.004,0,0,1023
2018,5,17,22,22,38.776,0.4978,0.4255,-0.6935,0.3002,-1.5,-1,-0.3,0,-0.002,0.003,1023
2018,5,17,22,22,38.782,0.4979,0.4253,-0.6935,0.3001,-1.5,-0.8,-0.9,0,-0.001,-0.001,1023
2018,5,17,22,22,38.796,0.4979,0.4253,-0.6936,0.3001,-1,-0.6,-1.1,0.004,0.004,0.004,1023
2018,5,17,22,22,38.832,0.498,0.4251,-0.6936,0.3001,-1.2,-0.6,-1.1,0.004,0.007,0.006,1023
2018,5,17,22,22,38.853,0.4981,0.4249,-0.6936,0.3001,-1.7,-0.9,-0.8,-0.001,0,0.01,1023
2018,5,17,22,22,38.859,0.4983,0.4248,-0.6936,0.3,-1.5,-0.6,-0.4,-0.008,-0.002,0.002,1023
2018,5,17,22,22,38.877,0.4984,0.4247,-0.6936,0.3,0,0,0,-0.004,0,0.005,1023
2018,5,17,22,22,38.899,0.4986,0.4246,-0.6935,0.3002,0,0,0,-0.007,0.001,-0.001,0
2018,5,17,22,22,38.917,0.4987,0.4245,-0.6934,0.3003,0.4,-0.1,0.5,0.002,0.001,-0.001,0
2018,5,17,22,22,38.94,0.4987,0.4244,-0.6933,0.3004,0,0,0,0.005,-0.003,-0.008,0
2018,5,17,22,22,38.958,0.4985,0.4246,-0.6933,0.3004,0.8,0.6,0.6,0,-0.006,-0.002,0
2018,5,17,22,22,38.98,0.4983,0.4249,-0.6933,0.3005,1.1,0.7,0.3,-0.001,-0.004,0,0
2018,5,17,22,22,39.016,0.4981,0.4252,-0.6933,0.3005,0.6,0.3,0.4,-0.001,-0.002,0,0
2018,5,17,22,22,39.039,0.4981,0.4251,-0.6932,0.3007,-0.7,0,0.2,-0.003,-0.004,-0.003,0
2018,5,17,22,22,39.044,0.4981,0.4252,-0.6933,0.3005,-1.6,-0.9,0.3,-0.007,0,-0.002,0
2018,5,17,22,22,39.06,0.4982,0.4253,-0.6932,0.3002,-2.2,-1.4,0.5,-0.002,0.005,-0.004,0
2018,5,17,22,22,39.077,0.4985,0.4254,-0.6932,0.2999,-2,-1.2,0.6,0,0.006,-0.005,0
2018,5,17,22,22,39.101,0.4986,0.4255,-0.6931,0.2997,-1.2,-1,0.7,0.003,0.004,-0.001,0
2018,5,17,22,22,39.118,0.4988,0.4256,-0.6929,0.2995,-0.9,-0.8,1,0.001,0,0,0
2018,5,17,22,22,39.141,0.499,0.4256,-0.6928,0.2995,-1.2,-1.2,0.9,-0.004,-0.002,0.006,0
2018,5,17,22,22,39.158,0.4992,0.4257,-0.6927,0.2994,-0.9,-1,0.6,0,-0.007,0.008,0
2018,5,17,22,22,39.184,0.4993,0.4257,-0.6925,0.2994,-0.9,-0.6,0.7,0,-0.003,0.007,0
2018,5,17,22,22,39.201,0.4994,0.4258,-0.6925,0.2993,-1.1,-0.5,0.6,0,-0.003,-0.001,0
2018,5,17,22,22,39.223,0.4995,0.4259,-0.6924,0.2991,-1.1,-0.3,0.8,-0.003,0.001,-0.003,0
2018,5,17,22,22,39.241,0.4996,0.4261,-0.6923,0.299,-0.3,0,1.1,0.001,0.001,-0.002,0
2018,5,17,22,22,39.264,0.4996,0.4264,-0.6922,0.2989,0.5,0.3,1.2,0.004,0,-0.003,0
2018,5,17,22,22,39.282,0.4995,0.4268,-0.692,0.2988,1.1,0.4,1.4,0.005,0.002,0.006,0
2018,5,17,22,22,39.301,0.4994,0.4272,-0.6918,0.2988,0.6,0.2,1.3,0.002,0.002,0.001,0
2018,5,17,22,22,39.321,0.4994,0.4275,-0.6917,0.2987,0,0.3,0.9,0.003,0.001,-0.003,0
2018,5,17,22,22,39.339,0.4992,0.4278,-0.6917,0.2986,-0.3,0,0.7,0.001,0,-0.004,0
2018,5,17,22,22,39.362,0.4992,0.428,-0.6917,0.2985,-0.2,-0.1,0.5,-0.004,-0.001,-0.014,1023
2018,5,17,22,22,39.38,0.4991,0.4282,-0.6916,0.2984,-0.3,-0.2,0.8,-0.001,0.005,-0.013,1023
2018,5,17,22,22,39.403,0.4992,0.4284,-0.6915,0.2982,-0.7,-0.7,0.9,-0.002,0.008,-0.009,1023
2018,5,17,22,22,39.421,0.4993,0.4285,-0.6914,0.2981,-0.9,-0.7,0.6,0.007,0.002,-0.003,1023
2018,5,17,22,22,39.444,0.4993,0.4286,-0.6914,0.298,0,0,0,0.011,-0.001,-0.003,1023
2018,5,17,22,22,39.461,0.4994,0.4284,-0.6913,0.2982,-0.1,-0.5,-0.1,0.01,-0.003,0.007,1023
2018,5,17,22,22,39.484,0.4995,0.4284,-0.6912,0.2984,-0.6,-0.8,-0.6,0.01,0,0.013,1023
2018,5,17,22,22,39.503,0.4998,0.4281,-0.6911,0.2985,-1.8,-1.3,-1,0.006,-0.002,0.012,1023
2018,5,17,22,22,39.526,0.5001,0.4276,-0.6911,0.2986,-3,-1.5,-1.2,0.006,-0.004,0.007,1023
2018,5,17,22,22,39.542,0.5005,0.4272,-0.6912,0.2985,-3.4,-1.5,-1.2,-0.003,0.003,0.005,1023
2018,5,17,22,22,39.56,0.5006,0.4269,-0.6914,0.2982,-2.7,-0.5,-1.4,-0.012,0.002,-0.005,1023
2018,5,17,22,22,39.582,0.5007,0.4266,-0.6915,0.2982,-0.5,0.4,-0.8,-0.015,0.005,-0.009,1023
2018,5,17,22,22,39.618,0.5007,0.4266,-0.6915,0.2983,1.1,1.2,0,-0.004,0.008,0.001,1023
2018,5,17,22,22,39.64,0.5004,0.427,-0.6914,0.2984,2.1,1.7,0.4,0,0.003,0.001,1023
2018,5,17,22,22,39.645,0.5001,0.4274,-0.6913,0.2986,2.7,1.5,0.9,-0.007,-0.004,0.012,1023
2018,5,17,22,22,39.679,0.4997,0.4281,-0.6911,0.2989,3.5,1,1.3,-0.004,0,0.009,1023
2018,5,17,22,22,39.7,0.4995,0.4285,-0.6907,0.2992,2.9,0.4,1.1,0.002,-0.001,0.007,1023
2018,5,17,22,22,39.706,0.4993,0.4289,-0.6906,0.2994,1.3,0.3,0.6,0.008,-0.003,-0.002,1023
2018,5,17,22,22,39.724,0.4992,0.429,-0.6905,0.2996,0.6,0.6,0,0.007,-0.004,-0.006,1023
2018,5,17,22,22,39.747,0.4989,0.4293,-0.6906,0.2997,1,1.1,0.1,0.003,0,-0.009,0
2018,5,17,22,22,39.784,0.4986,0.4295,-0.6906,0.2998,2,1.5,0,0.001,-0.002,-0.007,0
2018,5,17,22,22,39.807,0.4981,0.4298,-0.6906,0.3,1.8,1.8,-0.1,-0.001,0,-0.01,0
2018,5,17,22,22,39.809,0.4977,0.4301,-0.6907,0.3001,1.2,1.6,-0.3,-0.001,0.006,0,0
2018,5,17,22,22,39.824,0.4973,0.4305,-0.6907,0.3,0.8,1.1,0,-0.001,0.004,0.006,0
2018,5,17,22,22,39.862,0.4972,0.4307,-0.6907,0.3001,0.2,0.6,0.1,0,0.002,0.01,0
2018,5,17,22,22,39.885,0.4972,0.4307,-0.6907,0.3002,0.6,0.1,-0.1,0.007,-0.003,0.005,0
2018,5,17,22,22,39.89,0.497,0.4309,-0.6906,0.3003,0.7,0,0.1,0.007,0,0,0
2018,5,17,22,22,39.908,0.497,0.4309,-0.6905,0.3004,0,0,0,0.001,0,-0.001,0
2018,5,17,22,22,39.927,0.4971,0.4307,-0.6905,0.3005,-0.6,0,-0.7,-0.002,0,0,0
2018,5,17,22,22,39.945,0.4969,0.4307,-0.6907,0.3005,-0.3,0.3,-1,-0.001,-0.004,0.002,0
2018,5,17,22,22,39.968,0.4967,0.4307,-0.6907,0.3006,0.5,0.7,-0.9,-0.002,0,0.003,0
2018,5,17,22,22,39.986,0.4965,0.4308,-0.6908,0.3008,1.2,1.1,-0.7,-0.002,0.004,0,0
2018,5,17,22,22,40.009,0.4963,0.431,-0.6908,0.301,1.3,0.9,-0.5,-0.002,0.005,0.003,0
2018,5,17,22,22,40.025,0.496,0.4313,-0.6908,0.301,1.5,0.8,-0.1,0.003,0.002,0.002,0
2018,5,17,22,22,40.047,0.4958,0.4316,-0.6907,0.3012,1.5,0.6,0.1,0,0.004,-0.001,0
2018,5,17,22,22,40.082,0.4956,0.4318,-0.6906,0.3015,1.6,0.6,0.1,0.002,-0.002,-0.001,0
2018,5,17,22,22,40.106,0.4954,0.4319,-0.6905,0.3017,1.6,0.8,0.1,0.003,-0.002,-0.003,1023
2018,5,17,22,22,40.11,0.4951,0.4321,-0.6905,0.3019,0.7,0.4,-0.3,0,-0.007,-0.006,1023
2018,5,17,22,22,40.127,0.4949,0.4322,-0.6905,0.3021,0.7,0.2,-0.2,0,-0.006,-0.004,1023
2018,5,17,22,22,40.151,0.4949,0.4321,-0.6905,0.3023,0.3,0,-0.6,0,0,-0.003,1023
2018,5,17,22,22,40.167,0.4949,0.4321,-0.6905,0.3024,-0.5,0.1,-0.4,0,0.001,-0.008,1023
2018,5,17,22,22,40.19,0.4949,0.432,-0.6905,0.3024,-0.7,0.1,-0.3,0.001,-0.002,0,1023
2018,5,17,22,22,40.208,0.4949,0.4319,-0.6905,0.3025,0,0,0,-0.003,0,-0.002,1023
2018,5,17,22,22,40.23,0.495,0.4318,-0.6904,0.3027,0,0,0,-0.004,0.003,-0.001,1023
2018,5,17,22,22,40.267,0.4952,0.4317,-0.6903,0.3028,0,0,0,0,0.002,0.002,1023
2018,5,17,22,22,40.267,0.4953,0.4316,-0.6902,0.303,0,0,0,0.002,-0.001,0.008,1023
2018,5,17,22,22,40.291,0.4953,0.4316,-0.6902,0.3031,0.5,0.4,0.4,0.001,0,0.013,1023
2018,5,17,22,22,40.309,0.4952,0.4319,-0.69,0.3032,1.2,0.3,0.5,0.002,0.002,-0.001,1023
2018,5,17,22,22,40.356,0.4949,0.4323,-0.69,0.3032,1.2,0.3,0.3,0.003,0,-0.001,1023
2018,5,17,22,22,40.359,0.4948,0.4324,-0.6899,0.3034,0.9,0.5,0,0.001,0,-0.001,1023
2018,5,17,22,22,40.37,0.4946,0.4326,-0.6899,0.3034,0,0,0,0.003,0.001,-0.007,1023
2018,5,17,22,22,40.407,0.4947,0.4325,-0.6898,0.3035,0,0,0,0.002,0.002,-0.008,1023
2018,5,17,22,22,40.429,0.4947,0.4325,-0.6898,0.3036,-0.4,-0.6,0.1,0.004,-0.002,-0.002,1023
2018,5,17,22,22,40.432,0.4947,0.4326,-0.6898,0.3036,-1.2,-0.6,-0.1,0.003,0,-0.002,1023
2018,5,17,22,22,40.469,0.4947,0.4326,-0.6898,0.3035,-0.7,-0.4,-0.3,0,-0.001,0,0
2018,5,17,22,22,40.49,0.4948,0.4325,-0.6898,0.3036,-0.4,-0.5,-0.7,0,-0.001,0.008,0
2018,5,17,22,22,40.493,0.4949,0.4323,-0.6897,0.3038,-0.5,-0.5,-0.4,0,-0.004,0,0
2018,5,17,22,22,40.529,0.4949,0.4323,-0.6897,0.3038,-0.5,-0.5,-0.2,0.003,-0.002,-0.007,0
2018,5,17,22,22,40.529,0.495,0.4322,-0.6897,0.3039,0,0,0,0.004,0.001,-0.007,0
2018,5,17,22,22,40.551,0.4951,0.4321,-0.6896,0.304,0,0,0,-0.004,0,0,0
2018,5,17,22,22,40.587,0.4952,0.432,-0.6895,0.3042,0,0,0,-0.005,0.003,0,0
2018,5,17,22,22,40.587,0.4952,0.432,-0.6895,0.3043,0,0,0,-0.004,0,0,0
2018,5,17,22,22,40.61,0.4952,0.4321,-0.6894,0.3043,-0.5,-0.8,0.2,-0.001,0.002,0,0
2018,5,17,22,22,40.647,0.4955,0.432,-0.6893,0.3044,-0.7,-0.9,0.1,0.001,0.001,0.005,0
2018,5,17,22,22,40.668,0.4957,0.4319,-0.6892,0.3044,-0.7,-0.7,0.1,0.006,-0.001,0,0
2018,5,17,22,22,40.672,0.4957,0.432,-0.6891,0.3044,0,-0.7,0.3,0.008,-0.004,-0.006,0
2018,5,17,22,22,40.709,0.4957,0.432,-0.689,0.3044,-0.2,-0.8,0.3,0.001,-0.001,-0.003,0
2018,5,17,22,22,40.73,0.4959,0.432,-0.6889,0.3044,-1.3,-0.7,0.2,-0.006,-0.004,-0.002,0
2018,5,17,22,22,40.733,0.496,0.4319,-0.6889,0.3043,-1.4,-1.1,-0.2,-0.004,-0.001,-0.005,0
2018,5,17,22,22,40.771,0.4962,0.4318,-0.6889,0.3043,-1.1,-0.8,-0.4,-0.005,0.005,-0.002,0
2018,5,17,22,22,40.793,0.4963,0.4318,-0.6889,0.3042,-1.1,-0.6,-0.7,-0.003,-0.006,0.006,0
2018,5,17,22,22,40.796,0.4963,0.4315,-0.689,0.3043,-1.4,-0.4,-1,-0.001,-0.012,0.004,0
2018,5,17,22,22,40.811,0.4962,0.4315,-0.689,0.3044,-0.5,-0.1,-0.5,0,-0.004,0.007,0
2018,5,17,22,22,40.847,0.4963,0.4314,-0.689,0.3044,0,0,0,0.006,0.005,0.004,0
2018,5,17,22,22,40.869,0.4964,0.4314,-0.6889,0.3045,-0.2,-0.1,0.6,0.002,0.005,-0.003,0
2018,5,17,22,22,40.871,0.4964,0.4315,-0.6888,0.3044,-0.1,0,0.7,0.002,0.005,-0.002,0
2018,5,17,22,22,40.908,0.4965,0.4317,-0.6887,0.3044,0,-0.1,0.7,-0.002,0.002,0.003,1023
2018,5,17,22,22,40.93,0.4965,0.4319,-0.6886,0.3044,0.4,-0.3,0.6,-0.002,-0.001,0,1023
2018,5,17,22,22,40.933,0.4964,0.4321,-0.6885,0.3044,0,0,0,-0.001,-0.001,-0.003,1023
2018,5,17,22,22,40.967,0.4964,0.432,-0.6885,0.3045,0,0,0,0.003,-0.004,-0.005,1023
2018,5,17,22,22,40.989,0.4965,0.432,-0.6884,0.3046,0,0,0,0.002,0.001,0.001,1023
2018,5,17,22,22,40.996,0.4965,0.4319,-0.6884,0.3047,-0.7,-0.4,-0.4,0.003,0,0.003,1023
2018,5,17,22,22,41.033,0.4966,0.4318,-0.6884,0.3047,-0.6,-0.7,-0.6,0.007,0,0,1023
2018,5,17,22,22,41.055,0.4966,0.4317,-0.6884,0.3048,-0.4,-0.6,-0.8,0.001,-0.002,0.003,1023
2018,5,17,22,22,41.057,0.4967,0.4316,-0.6884,0.3049,-0.6,-0.9,-0.8,0.001,0,0,1023
2018,5,17,22,22,41.076,0.4968,0.4314,-0.6884,0.305,-1.4,-1,-0.7,0,-0.001,0,1023
2018,5,17,22,22,41.093,0.497,0.4311,-0.6884,0.305,-1.5,-0.9,-0.8,-0.002,0,-0.004,1023
2018,5,17,22,22,41.116,0.4972,0.4308,-0.6884,0.305,-1.5,-0.5,-0.9,-0.008,0.001,-0.008,1023
2018,5,17,22,22,41.133,0.4973,0.4306,-0.6885,0.305,-1.1,-0.1,-0.9,-0.004,-0.001,-0.004,1023
2018,5,17,22,22,41.156,0.4972,0.4305,-0.6886,0.305,-0.6,-0.1,-0.4,0.004,0.001,0.002,1023
2018,5,17,22,22,41.176,0.4973,0.4305,-0.6886,0.3051,-0.5,-0.1,0,0,-0.002,0,1023
2018,5,17,22,22,41.195,0.4973,0.4305,-0.6886,0.305,-0.6,-0.3,0,0,0,0.002,1023
2018,5,17,22,22,41.217,0.4973,0.4306,-0.6886,0.3049,-0.7,-0.3,-0.2,-0.001,0.002,0.013,0
2018,5,17,22,22,41.254,0.4974,0.4306,-0.6885,0.3049,-0.9,-0.6,0,0.004,-0.004,0.008,0
2018,5,17,22,22,41.276,0.4975,0.4306,-0.6885,0.3049,-1.1,-0.8,0.1,0.004,-0.003,0.002,0
2018,5,17,22,22,41.281,0.4975,0.4306,-0.6885,0.3048,-0.4,-0.6,0.1,0,0,-0.006,0
2018,5,17,22,22,41.298,0.4975,0.4307,-0.6884,0.3048,0.6,0,0.2,0,0.002,-0.005,0
2018,5,17,22,22,41.32,0.4974,0.4309,-0.6883,0.3049,0.9,0,0.1,-0.001,0.001,-0.003,0
2018,5,17,22,22,41.336,0.4973,0.431,-0.6882,0.3051,0.6,0.3,0.2,-0.002,0.001,-0.002,0
2018,5,17,22,22,41.354,0.4973,0.431,-0.6882,0.3052,0,0,0,-0.001,0.001,0.002,0
2018,5,17,22,22,41.376,0.4973,0.4312,-0.6881,0.3052,0.4,0,0.5,0.002,0.002,0.001,0
2018,5,17,22,22,41.414,0.4972,0.4314,-0.6879,0.3053,0.8,0,0.3,0.003,0,0.005,0
2018,5,17,22,22,41.414,0.4972,0.4316,-0.6878,0.3054,0.7,-0.3,0.6,0.002,-0.003,0,0
2018,5,17,22,22,41.437,0.4971,0.4317,-0.6877,0.3055,0,0,0,0.004,0.001,-0.003,0
2018,5,17,22,22,41.475,0.4972,0.4317,-0.6876,0.3055,-0.7,-0.5,-0.1,0.005,0.001,0.002,0
2018,5,17,22,22,41.498,0.4974,0.4315,-0.6877,0.3056,-1.2,-0.3,-0.8,0.004,-0.004,0.003,0
2018,5,17,22,22,41.503,0.4973,0.4314,-0.6878,0.3055,-1.4,-0.2,-1.1,0,-0.005,0.009,0
2018,5,17,22,22,41.519,0.4975,0.431,-0.6879,0.3054,-2,-0.6,-0.6,-0.003,-0.003,-0.001,0
2018,5,17,22,22,41.542,0.4977,0.4309,-0.688,0.3053,-2,-0.9,-0.5,-0.002,0.001,0,0
2018,5,17,22,22,41.558,0.4979,0.4307,-0.688,0.3051,-2,-0.4,-0.5,0.002,0.003,-0.002,0
2018,5,17,22,22,41.575,0.498,0.4304,-0.6881,0.3051,-0.7,0,-0.5,0.002,0,0,0
2018,5,17,22,22,41.598,0.498,0.4304,-0.6881,0.3051,0,0,0,-0.002,0.001,0.003,0
2018,5,17,22,22,41.617,0.4981,0.4304,-0.688,0.3053,0.5,0.2,0.1,-0.005,0.001,-0.005,0
2018,5,17,22,22,41.64,0.4981,0.4303,-0.688,0.3054,0,0,0,-0.001,0,-0.008,0
2018,5,17,22,22,41.66,0.4981,0.4303,-0.6879,0.3055,0.5,0.1,0.4,0.001,0.002,-0.006,0
2018,5,17,22,22,41.696,0.4979,0.4307,-0.6878,0.3054,0.7,0.1,0.4,0.001,0.005,0,0
2018,5,17,22,22,41.716,0.4979,0.4308,-0.6877,0.3055,0.6,0,0.7,0,-0.003,0.002,1023
2018,5,17,22,22,41.723,0.4978,0.431,-0.6877,0.3055,0.2,0,0.6,-0.001,-0.005,0,1023
2018,5,17,22,22,41.738,0.4979,0.431,-0.6876,0.3056,0,0,0,0.001,-0.004,0.005,1023
2018,5,17,22,22,41.761,0.4978,0.431,-0.6875,0.3058,0,0,0,0.004,0.001,0.003,1023
2018,5,17,22,22,41.799,0.4979,0.4309,-0.6875,0.3059,0,0,0,0.002,0.001,0.003,1023
2018,5,17,22,22,41.799,0.498,0.4308,-0.6874,0.306,0,0,0,0.001,0.001,0.007,1023
2018,5,17,22,22,41.821,0.4981,0.4308,-0.6873,0.3061,0,0,0,0,0,0.002,1023
2018,5,17,22,22,41.839,0.4982,0.4307,-0.6872,0.3062,0,0,0,0,0,0.001,1023
2018,5,17,22,22,41.862,0.4983,0.4306,-0.6872,0.3064,0,0,0,0.001,-0.002,0,1023
2018,5,17,22,22,41.88,0.4983,0.4306,-0.6872,0.3064,-0.6,-0.3,-0.4,0,-0.001,-0.003,1023
2018,5,17,22,22,41.902,0.4983,0.4306,-0.6872,0.3063,-0.7,0.1,-0.7,0.001,0,-0.005,1023
2018,5,17,22,22,41.921,0.4982,0.4306,-0.6873,0.3063,-0.3,0.1,-0.5,-0.004,0,-0.005,1023
2018,5,17,22,22,41.943,0.4982,0.4305,-0.6873,0.3064,0,0,0,-0.003,0.003,-0.003,1023
2018,5,17,22,22,41.961,0.4983,0.4305,-0.6872,0.3065,0,0,0,0.002,0.002,0.001,1023
2018,5,17,22,22,41.984,0.4984,0.4304,-0.6872,0.3066,0,0,0,0,0,0.007,1023
2018,5,17,22,22,42.001,0.4985,0.4303,-0.6871,0.3067,0,0,0,-0.001,0,0.013,1023
2018,5,17,22,22,42.023,0.4987,0.4301,-0.687,0.3069,-0.2,-0.5,0,-0.002,0,0.011,1023
2018,5,17,22,22,42.06,0.4988,0.4301,-0.6869,0.307,-0.7,-0.6,0,0,-0.004,-0.001,0
2018,5,17,22,22,42.084,0.4986,0.4303,-0.687,0.3067,0,0.7,0,0.001,-0.001,-0.01,0
2018,5,17,22,22,42.089,0.4983,0.4306,-0.6871,0.3067,1.5,1.4,0.2,0.001,0,-0.003,0
2018,5,17,22,22,42.103,0.4979,0.431,-0.687,0.3068,2.1,1.9,0.6,-0.006,0.005,0.002,0
2018,5,17,22,22,42.121,0.4975,0.4316,-0.687,0.3067,1.5,1.8,0.6,-0.005,0.003,0.004,0
2018,5,17,22,22,42.144,0.4972,0.432,-0.687,0.3067,1,1.3,0.7,-0.004,0.003,0.011,0
2018,5,17,22,22,42.163,0.497,0.4323,-0.6869,0.3067,0.9,0.8,0.8,0.003,0,0.007,0
2018,5,17,22,22,42.183,0.4969,0.4325,-0.6868,0.3068,1.4,0.4,1,0.004,-0.003,0.003,0
2018,5,17,22,22,42.202,0.4968,0.4329,-0.6866,0.3069,1.7,0.3,0.9,0.002,-0.003,0,0
2018,5,17,22,22,42.225,0.4965,0.4332,-0.6865,0.3071,1.8,0.4,0.7,0.003,-0.004,-0.003,0
2018,5,17,22,22,42.263,0.4964,0.4333,-0.6864,0.3073,0.9,0.5,0,0,-0.001,-0.003,0
2018,5,17,22,22,42.285,0.4962,0.4335,-0.6864,0.3073,0,0.6,-0.1,-0.001,-0.004,0,0
2018,5,17,22,22,42.287,0.496,0.4336,-0.6865,0.3073,-0.3,0.7,-0.3,-0.003,-0.002,0.001,0
2018,5,17,22,22,42.3,0.4959,0.4337,-0.6866,0.3072,-0.2,0.9,-0.4,0,0.002,0.002,0
2018,5,17,22,22,42.339,0.4957,0.4338,-0.6867,0.3072,0.4,0.9,-0.4,0,0,0.006,0
2018,5,17,22,22,42.362,0.4956,0.4339,-0.6867,0.3073,0.7,1.1,0,0.003,0.007,0,0
2018,5,17,22,22,42.366,0.4955,0.434,-0.6866,0.3074,0.9,0.7,0.3,0,0.003,0.003,0
2018,5,17,22,22,42.384,0.4953,0.4344,-0.6866,0.3074,1.3,0.8,0.6,0,0.001,0.006,0
2018,5,17,22,22,42.403,0.4951,0.4347,-0.6865,0.3075,1.4,0.7,0.6,0.001,0,-0.002,0
2018,5,17,22,22,42.425,0.4949,0.4349,-0.6864,0.3076,1.2,0.5,0.1,0,-0.002,-0.003,0
2018,5,17,22,22,42.443,0.4947,0.4352,-0.6863,0.3077,0.7,0.4,0,0.003,-0.001,-0.002,1023
2018,5,17,22,22,42.466,0.4945,0.4353,-0.6863,0.3077,1,0.6,0,0.002,0.001,0.001,1023
2018,5,17,22,22,42.485,0.4943,0.4356,-0.6863,0.3078,1.5,0.6,0.1,0.002,-0.003,0,1023
2018,5,17,22,22,42.505,0.494,0.4359,-0.6862,0.3079,1.4,0.7,0.2,0.002,-0.003,-0.004,1023
2018,5,17,22,22,42.544,0.4938,0.4362,-0.6862,0.308,1,0.3,0.1,-0.003,0.001,-0.002,1023
2018,5,17,22,22,42.567,0.4937,0.4362,-0.6861,0.3082,0,0,0,0,0.001,-0.003,1023
2018,5,17,22,22,42.571,0.4938,0.4361,-0.6861,0.3083,0,0,0,0.003,-0.003,0.003,1023
2018,5,17,22,22,42.587,0.4939,0.436,-0.686,0.3085,0,0,0,-0.002,-0.002,0.002,1023
2018,5,17,22,22,42.604,0.4939,0.436,-0.686,0.3086,0.5,0.3,-0.1,-0.001,0,-0.001,1023
2018,5,17,22,22,42.627,0.4937,0.4362,-0.686,0.3086,0.6,0.6,-0.1,0.004,0.006,0.004,1023
2018,5,17,22,22,42.645,0.4935,0.4363,-0.686,0.3087,0.5,0.8,-0.4,0.007,-0.001,0.004,1023
2018,5,17,22,22,42.669,0.4932,0.4365,-0.6861,0.3087,0.4,0.9,-0.4,0,-0.004,0.004,1023
2018,5,17,22,22,42.686,0.493,0.4367,-0.6861,0.3087,0.7,1,-0.1,-0.002,-0.001,-0.006,1023
2018,5,17,22,22,42.708,0.4926,0.437,-0.6862,0.3087,0.8,0.9,-0.3,0,0.004,-0.004,1023
2018,5,17,22,22,42.727,0.4926,0.437,-0.6862,0.3089,0.4,0.6,-0.3,0.002,0.002,0.004,0
2018,5,17,22,22,42.75,0.4924,0.4371,-0.6862,0.3089,-0.1,0.6,0,-0.001,-0.002,0.009,0
2018,5,17,22,22,42.767,0.4924,0.4372,-0.6862,0.3089,0.1,0.7,0,-0.002,-0.002,0.002,0
2018,5,17,22,22,42.79,0.4922,0.4373,-0.6862,0.3089,0.9,0.7,0,-0.001,-0.004,-0.002,0
2018,5,17,22,22,42.827,0.4916,0.4379,-0.6862,0.3091,1.2,0.8,0.1,0.002,0,-0.004,0
2018,5,17,22,22,42.827,0.4914,0.4381,-0.6862,0.3092,1.3,1.1,0.2,0.002,0,-0.001,0
2018,5,17,22,22,42.852,0.4908,0.4386,-0.6861,0.3094,1.2,1,0.1,-0.002,0,0,0
2018,5,17,22,22,42.865,0.4906,0.4388,-0.6861,0.3095,0.6,0.6,0,-0.002,0,-0.002,0
2018,5,17,22,22,42.904,0.4905,0.4389,-0.686,0.3096,0,0.2,0.6,0.002,0.001,0.002,0
2018,5,17,22,22,42.927,0.4906,0.4389,-0.686,0.3097,0,0.3,0.6,0.003,0.002,0.002,0
2018,5,17,22,22,42.929,0.4906,0.439,-0.6859,0.3097,-0.5,0.3,0.4,0.002,-0.001,0.002,0
2018,5,17,22,22,42.947,0.4906,0.4391,-0.686,0.3095,-1.6,0.4,0.1,-0.006,-0.007,0.005,0
2018,5,17,22,22,42.969,0.4907,0.439,-0.686,0.3094,-1.5,0.5,0.3,-0.008,-0.006,0.001,0
2018,5,17,22,22,42.989,0.4907,0.4389,-0.6861,0.3093,-0.9,0.5,0.1,-0.008,0,0.002,0
2018,5,17,22,22,43.012,0.4906,0.4391,-0.6861,0.3091,0.8,1.5,0.4,0.001,0.005,0.005,0
2018,5,17,22,22,43.049,0.4903,0.4395,-0.6861,0.3091,2.2,1.9,0.8,0,0.003,-0.003,0
2018,5,17,22,22,43.049,0.4898,0.4401,-0.686,0.3091,2.9,2.2,1.3,0,0.008,-0.001,0
2018,5,17,22,22,43.073,0.4894,0.4407,-0.6859,0.3093,3.1,1.8,1.1,0.001,0.001,0.004,0
2018,5,17,22,22,43.091,0.489,0.4413,-0.6858,0.3094,2.4,1.5,0.7,0.003,0.002,0,0
2018,5,17,22,22,43.109,0.4886,0.4417,-0.6857,0.3094,1.8,1.2,0.6,0.005,0,-0.002,0
2018,5,17,22,22,43.132,0.4883,0.442,-0.6857,0.3095,1.1,0.9,0.2,0.004,-0.001,-0.002,0
2018,5,17,22,22,43.15,0.4881,0.4422,-0.6857,0.3096,1.2,0.7,0.1,0.009,-0.003,-0.01,0
2018,5,17,22,22,43.188,0.4878,0.4425,-0.6857,0.3097,0.8,0.4,-0.3,0.009,0,0.002,0
2018,5,17,22,22,43.211,0.4877,0.4424,-0.6857,0.3099,0,0,-0.6,0.005,-0.004,-0.003,0
2018,5,17,22,22,43.215,0.4878,0.4422,-0.6858,0.31,-1.3,-0.5,-0.8,0.003,-0.002,0.001,0
2018,5,17,22,22,43.234,0.488,0.4419,-0.6858,0.3099,-2.2,-1,-1.1,0,0,-0.003,0
2018,5,17,22,22,43.251,0.4882,0.4415,-0.6859,0.3099,-2.7,-1,-1.2,-0.003,0.001,-0.002,1023
2018,5,17,22,22,43.273,0.4886,0.441,-0.686,0.3098,-2.7,-1.2,-1.2,0,0.004,0.003,1023
2018,5,17,22,22,43.288,0.4888,0.4407,-0.6861,0.3096,-2.5,-0.8,-1.1,0,0.002,0.006,1023
2018,5,17,22,22,43.327,0.4891,0.4404,-0.6862,0.3096,-1.5,-0.5,-0.7,-0.006,0.003,0.003,1023
2018,5,17,22,22,43.349,0.4893,0.4403,-0.6861,0.3096,0,0,0,-0.013,0.011,0.006,1023
2018,5,17,22,22,43.354,0.4894,0.4402,-0.686,0.3097,0.6,0.7,-0.5,-0.02,0.017,0.007,1023
2018,5,17,22,22,43.387,0.4892,0.4405,-0.6859,0.3098,2.1,1.8,-0.8,-0.023,0.02,0.015,1023
2018,5,17,22,22,43.41,0.4888,0.4409,-0.6858,0.31,4.7,3.9,-1.5,-0.016,0.024,0.023,0
2018,5,17,22,22,43.415,0.4877,0.4417,-0.6859,0.3105,8.4,6.2,-2.9,0,0.036,0.032,0
2018,5,17,22,22,43.431,0.4861,0.4427,-0.686,0.3114,12.5,9.5,-4.5,0.016,0.038,0.044,0
2018,5,17,22,22,43.453,0.4839,0.444,-0.6861,0.3129,18.1,12.5,-6.4,0.019,0.045,0.069,0
2018,5,17,22,22,43.474,0.481,0.4455,-0.6861,0.315,23.5,15.6,-9.1,0.009,0.056,0.098,0
2018,5,17,22,22,43.512,0.4769,0.4475,-0.6863,0.318,32.1,18.2,-13.4,-0.008,0.075,0.124,0
2018,5,17,22,22,43.512,0.4705,0.4498,-0.6872,0.3223,42.8,21.8,-20.5,0.005,0.115,0.158,0
2018,5,17,22,22,43.533,0.4623,0.4523,-0.6884,0.3283,54.1,24.9,-29.6,0.022,0.162,0.187,0
2018,5,17,22,22,43.551,0.4523,0.4545,-0.6898,0.336,63.6,28.9,-37.8,0.069,0.191,0.207,0
2018,5,17,22,22,43.574,0.4407,0.4567,-0.6914,0.345,73.5,32.1,-43.3,0.142,0.187,0.201,0
2018,5,17,22,22,43.591,0.4274,0.4595,-0.6927,0.3553,85.6,35.7,-45.9,0.217,0.171,0.17,0
2018,5,17,22,22,43.613,0.4123,0.4629,-0.6934,0.3671,100.6,39.3,-50.2,0.233,0.139,0.157,0
2018,5,17,22,22,43.635,0.3954,0.4667,-0.6934,0.3805,112.5,40.9,-54.2,0.216,0.111,0.153,0
2018,5,17,22,22,43.652,0.3779,0.4707,-0.6921,0.3956,125.7,40.9,-59.2,0.162,0.094,0.163,0
2018,5,17,22,22,43.675,0.3579,0.4745,-0.6902,0.4126,141,38.6,-65.6,0.111,0.119,0.208,0
2018,5,17,22,22,43.693,0.3365,0.4773,-0.6874,0.4315,148.4,33.6,-74.9,0.091,0.181,0.233,0
2018,5,17,22,22,43.715,0.3145,0.4785,-0.684,0.4518,153.1,25.2,-82,0.123,0.259,0.201,0
2018,5,17,22,22,43.734,0.292,0.4792,-0.6788,0.4734,172.2,22,-75.3,0.098,0.379,0.138,0
2018,5,17,22,22,43.753,0.2685,0.4818,-0.6692,0.4978,205.6,9.5,-61,0.056,0.526,0.182,0
2018,5,17,22,22,43.771,0.2456,0.4848,-0.6548,0.5252,214.5,-6.4,-52.6,0.179,0.805,0.199,0
2018,5,17,22,22,43.793,0.2256,0.4863,-0.6392,0.5513,192,-16.6,-40.8,0.296,0.907,0.131,0
2018,5,17,22,22,43.812,0.2095,0.4876,-0.6226,0.5749,181.2,-20.7,-22.2,0.417,0.859,-0.023,0
2018,5,17,22,22,43.835,0.1955,0.4901,-0.604,0.5971,182.4,-32.6,-2.3,0.472,0.871,-0.015,0
2018,5,17,22,22,43.853,0.1854,0.4924,-0.5831,0.6189,173.1,-51.1,16.6,0.509,0.951,0.11,0
2018,5,17,22,22,43.875,0.1802,0.4939,-0.5604,0.6398,159.3,-66.7,39.1,0.603,1.01,0.108,0
2018,5,17,22,22,43.911,0.1785,0.4964,-0.5362,0.6588,157,-59.3,61.8,0.755,0.9,-0.198,0
2018,5,17,22,22,43.935,0.1783,0.5015,-0.5092,0.6762,162.5,-56.2,83,0.77,0.769,-0.16,0
2018,5,17,22,22,43.938,0.1794,0.5079,-0.4807,0.6918,160.3,-45.7,87.7,0.908,0.104,-0.061,0
2018,5,17,22,22,43.954,0.1766,0.5167,-0.4508,0.706,188.6,-7.3,83.8,1.418,-0.238,0.33,0
2018,5,17,22,22,43.972,0.1694,0.5278,-0.4241,0.716,127.6,2,47.6,1.093,-0.009,1.395,0
2018,5,17,22,22,43.992,0.1654,0.5285,-0.4088,0.7253,105.6,-42,5.8,1.7,-0.913,-0.287,0
2018,5,17,22,22,44.031,0.1364,0.5393,-0.3834,0.7371,526.8,214.4,-222.1,-4.851,-11.959,-0.038,1023
2018,5,17,22,22,44.054,0.0242,0.5597,-0.2644,0.7849,996.4,-182.8,90.6,-6.198,11.542,-2.414,1023
2018,5,17,22,22,44.058,0.0086,0.4726,-0.2217,0.8528,-156.9,-690.4,-279.4,0.134,3.287,-1.019,1023
2018,5,17,22,22,44.077,0.0064,0.3722,-0.2638,0.8897,-51.5,-547.6,-198.7,1.285,-1.9,0.697,1023
2018,5,17,22,22,44.094,-0.0038,0.2861,-0.2774,0.9171,41.1,-452,-241.1,0.149,0.104,-0.336,1023
2018,5,17,22,22,44.117,-0.0284,0.2008,-0.2814,0.9378,41.4,-431,-284.8,0.335,0.474,0.919,1023
2018,5,17,22,22,44.136,-0.0404,0.1327,-0.2789,0.9502,-94.8,-404.9,-173.7,-1.928,1.385,0.871,1023
2018,5,17,22,22,44.158,-0.0665,0.0757,-0.3351,0.9367,-358.6,38.5,-160.9,-3.876,0.388,-2.883,1023
2018,5,17,22,22,44.177,-0.0857,0.0589,-0.3883,0.9156,-298.9,-108.1,-99.3,4.365,-1.482,-0.038,1023
2018,5,17,22,22,44.2,-0.0942,0.0359,-0.4371,0.8937,-233.6,-90.1,-101.7,0.805,-0.831,0.478,1023
2018,5,17,22,22,44.219,-0.0992,0.0205,-0.4771,0.8729,-266.5,-76.5,-75.1,0.653,-0.621,-0.392,1023
2018,5,17,22,22,44.238,-0.1012,0.0096,-0.5137,0.8518,-212.5,-67.5,-50,-0.217,0.022,-0.338,1023
2018,5,17,22,22,44.257,-0.1039,-0.0013,-0.5423,0.8336,-168.2,-58.5,-56.9,-0.096,0.083,-0.226,1023
2018,5,17,22,22,44.294,-0.1043,-0.0138,-0.5672,0.8168,-155.3,-92.8,-45.1,-0.116,-0.016,-0.173,1023
2018,5,17,22,22,44.316,-0.0934,-0.028,-0.5876,0.8031,-92,-123.8,31.8,0.083,-0.112,0.074,1023
2018,5,17,22,22,44.321,-0.0775,-0.0392,-0.596,0.7982,-10.6,-95.1,23.8,0.023,0.313,0.257,1023
2018,5,17,22,22,44.339,-0.0681,-0.0506,-0.5983,0.7967,-11.1,-80.7,-7.2,-0.074,0.252,0.07,1023
2018,5,17,22,22,44.356,-0.0583,-0.0699,-0.6045,0.7913,-10.2,-44,-15,0.044,0.242,-0.196,1023
2018,5,17,22,22,44.379,-0.0578,-0.0753,-0.6033,0.7918,29.5,-8,-15,0.088,0.261,-0.047,1023
2018,5,17,22,22,44.397,-0.0603,-0.0775,-0.5987,0.7948,27.8,6.6,-22.3,0.112,-0.172,0.108,1023
2018,5,17,22,22,44.418,-0.0628,-0.0781,-0.5947,0.7976,25.9,10.9,-11.5,-0.099,-0.247,-0.04,1023
2018,5,17,22,22,44.456,-0.0664,-0.0779,-0.5931,0.7985,2.1,14.5,-31,0.258,-0.057,0.368,1023
2018,5,17,22,22,44.479,-0.0717,-0.0781,-0.5987,0.7938,-50.9,15.7,-15.3,0.225,-0.189,0.266,1023
2018,5,17,22,22,44.481,-0.0749,-0.0759,-0.6072,0.7873,-64.2,13.5,2.1,0.07,-0.117,-0.151,1023
2018,5,17,22,22,44.5,-0.075,-0.0708,-0.6203,0.7775,-40.4,-0.5,16.4,0.046,-0.017,0.006,1023
2018,5,17,22,22,44.522,-0.0729,-0.0692,-0.6261,0.7732,-42.3,-7.7,19.5,0.043,0.014,0.008,1023
2018,5,17,22,22,44.541,-0.0699,-0.0681,-0.6324,0.7684,-45.1,-12,18.5,-0.009,0.054,-0.011,1023
2018,5,17,22,22,44.563,-0.0667,-0.0676,-0.639,0.7632,-47.2,-14.1,17.3,-0.002,0.068,-0.031,1023
2018,5,17,22,22,44.582,-0.0637,-0.0669,-0.6459,0.7578,-54.4,-10.7,15.3,-0.007,0.042,-0.031,1023
2018,5,17,22,22,44.602,-0.0623,-0.0644,-0.6676,0.739,-147.8,3.7,-0.1,0.068,0.032,-0.651,1023
2018,5,17,22,22,44.62,-0.0675,-0.0553,-0.7098,0.6989,-185.6,11.4,6.3,0.058,-0.014,0.028,1023
2018,5,17,22,22,44.643,-0.0697,-0.0518,-0.7301,0.6777,-160,0.7,2,0.042,-0.025,0.094,1023
2018,5,17,22,22,44.66,-0.0711,-0.0503,-0.7479,0.658,-149.1,-4.6,-3.3,0.084,0.006,0.275,1023
2018,5,17,22,22,44.683,-0.0714,-0.0497,-0.7531,0.6521,-29.5,-2.3,-0.2,0.006,0.047,0.004,1023
2018,5,17,22,22,44.701,-0.0713,-0.0503,-0.7561,0.6485,-29,-6.5,-6.7,0.03,0.022,-0.016,1023
2018,5,17,22,22,44.724,-0.0717,-0.0513,-0.7586,0.6455,-7.2,-0.3,-2.8,0.028,0.011,-0.059,1023
2018,5,17,22,22,44.742,-0.0722,-0.0517,-0.7587,0.6453,0.3,0.7,-0.8,0.039,0.011,-0.022,1023
2018,5,17,22,22,44.765,-0.0723,-0.0516,-0.7583,0.6457,5.2,1.2,3.2,-0.048,0.046,-0.021,1023
2018,5,17,22,22,44.783,-0.0722,-0.0512,-0.7576,0.6466,7.3,1.5,4.9,0.026,0.018,0,1023
2018,5,17,22,22,44.807,-0.0719,-0.0504,-0.7568,0.6476,5.7,1.4,7,0.021,0.009,0.01,1023
2018,5,17,22,22,44.824,-0.0713,-0.0495,-0.7563,0.6483,1.7,0.9,8.5,0.016,0.012,0.005,1023
2018,5,17,22,22,44.847,-0.0706,-0.0484,-0.7563,0.6484,-3.2,0.3,6.3,0.014,0.018,0.014,1023
2018,5,17,22,22,44.864,-0.0702,-0.0477,-0.7569,0.6479,-6.5,0.2,4.6,0.016,0.007,-0.004,1023
2018,5,17,22,22,44.887,-0.07,-0.0472,-0.7576,0.6471,-6.6,0.1,1.8,0.01,0.02,0.003,0
2018,5,17,22,22,44.904,-0.0701,-0.0471,-0.7586,0.646,-10.3,-0.2,-0.1,0.018,0.01,-0.002,0
2018,5,17,22,22,44.922,-0.0707,-0.0477,-0.7611,0.6429,-13.9,-1.7,-3,0.011,0.019,0.008,0
2018,5,17,22,22,44.945,-0.0711,-0.0483,-0.7628,0.6408,-18.7,-2.6,-4.2,0.007,0.043,0.014,0
2018,5,17,22,22,44.982,-0.0718,-0.0496,-0.7676,0.6348,-20.3,-2.6,-1.6,0.023,0.015,-0.002,0
2018,5,17,22,22,44.982,-0.072,-0.05,-0.7698,0.6321,-20,-2.8,-2,0.013,0.053,-0.004,0
2018,5,17,22,22,45.004,-0.0721,-0.0505,-0.772,0.6294,-22.1,-3.4,-3.1,0.013,0.055,0.021,0
2018,5,17,22,22,45.04,-0.0725,-0.052,-0.7786,0.621,-14,-2.2,-1.8,0.017,0.012,-0.009,0
2018,5,17,22,22,45.063,-0.0727,-0.0524,-0.7799,0.6193,-10.5,-2.1,-1.7,0.013,0.01,-0.005,0
2018,5,17,22,22,45.068,-0.0728,-0.0528,-0.781,0.6179,-10,-1.8,-1.5,0.012,0.024,0.005,0
2018,5,17,22,22,45.086,-0.073,-0.0531,-0.7823,0.6163,-13.5,-0.7,-1.2,0.017,-0.004,-0.003,0
2018,5,17,22,22,45.11,-0.0734,-0.0537,-0.7841,0.6138,-5.4,-1.2,-2.7,0.006,0.009,0.008,0
2018,5,17,22,22,45.126,-0.0737,-0.0544,-0.7849,0.6127,-10.7,-2.4,-5.8,0.007,-0.005,0.008,0
2018,5,17,22,22,45.144,-0.0743,-0.0562,-0.7891,0.607,-25.6,-5.1,-3.2,0.01,0.027,0.001,0
2018,5,17,22,22,45.166,-0.0742,-0.057,-0.7919,0.6033,-26.3,-5.7,-3.4,0.017,0.008,0,0
2018,5,17,22,22,45.185,-0.0737,-0.0584,-0.7982,0.5948,-30.9,-7.6,-1.3,0.009,0.027,-0.01,0
2018,5,17,22,22,45.207,-0.0733,-0.0589,-0.8012,0.5908,-21.8,-4.5,-0.3,0.014,0.04,-0.029,0
2018,5,17,22,22,45.225,-0.073,-0.0591,-0.803,0.5884,-12.6,-2.6,0,0.004,0.012,-0.007,0
2018,5,17,22,22,45.248,-0.0728,-0.0594,-0.8042,0.5868,-10.9,-3.7,-1.2,0.005,0.013,0.005,0
2018,5,17,22,22,45.285,-0.0727,-0.0599,-0.8054,0.5851,-11.4,-2.5,-0.7,0.011,0.017,0.005,0
2018,5,17,22,22,45.285,-0.0726,-0.06,-0.8079,0.5816,-2.8,-0.1,1.1,0.008,0.014,-0.003,0
2018,5,17,22,22,45.307,-0.0725,-0.0599,-0.8081,0.5814,-1.7,-0.3,1.4,0.002,0.018,0.006,0
2018,5,17,22,22,45.325,-0.0718,-0.0594,-0.8093,0.5798,-3.9,-0.9,2.7,0.014,0.011,0.005,1023
2018,5,17,22,22,45.363,-0.0714,-0.059,-0.8098,0.5792,-4.2,-1.1,2.9,0.003,0.012,-0.006,1023
2018,5,17,22,22,45.404,-0.0709,-0.0586,-0.8105,0.5783,-2.3,-0.5,2.1,0.005,0.011,-0.002,1023
2018,5,17,22,22,45.406,-0.0708,-0.0584,-0.8108,0.578,-2,-0.4,2.1,0.007,0.009,0.003,1023
2018,5,17,22,22,45.408,-0.0706,-0.0581,-0.811,0.5777,-2.6,-0.4,1.6,0.004,0.011,0,1023
2018,5,17,22,22,45.443,-0.0705,-0.058,-0.8114,0.5772,-2.9,-0.1,1,0.004,0.027,-0.001,0
2018,5,17,22,22,45.465,-0.0704,-0.0578,-0.8115,0.577,-0.3,-0.1,1.9,0.006,0.014,-0.004,0
2018,5,17,22,22,45.467,-0.0702,-0.0576,-0.8115,0.5771,1.2,0,2.2,0.007,0.009,0,0
2018,5,17,22,22,45.503,-0.0701,-0.0573,-0.8114,0.5773,0.7,0,1.8,0.006,0.011,-0.002,0
2018,5,17,22,22,45.524,-0.07,-0.0571,-0.8114,0.5774,0.5,0.1,1.8,0.005,0.016,0.002,0
2018,5,17,22,22,45.53,-0.0699,-0.0569,-0.8113,0.5775,0.4,0,1.3,0.001,0.008,-0.002,0
2018,5,17,22,22,45.568,-0.0698,-0.0568,-0.8113,0.5775,0.2,0.2,0.6,0.005,0.012,0,0
2018,5,17,22,22,45.568,-0.0699,-0.0569,-0.8113,0.5775,0,0,0,0.006,0.013,0.005,0
2018,5,17,22,22,45.588,-0.07,-0.0569,-0.8113,0.5775,0,0,0,0.008,0.012,0.001,0
2018,5,17,22,22,45.606,-0.07,-0.0569,-0.8113,0.5775,0,0,0,0.005,0.01,0,0
2018,5,17,22,22,45.627,-0.07,-0.0569,-0.8113,0.5775,0,0,0,0.002,0.013,0.004,0
2018,5,17,22,22,45.664,-0.0701,-0.0569,-0.8113,0.5775,0,0,0,0.004,0.011,0.002,0
2018,5,17,22,22,45.683,-0.0701,-0.0569,-0.8113,0.5775,0,0,0,0.005,0.01,-0.003,0
2018,5,17,22,22,45.687,-0.0702,-0.0569,-0.8112,0.5776,0.8,0.2,0.1,0.003,0.012,0.001,0
2018,5,17,22,22,45.723,-0.0702,-0.0569,-0.8111,0.5778,0.7,0.3,0,0.002,0.012,0.005,0
2018,5,17,22,22,45.743,-0.0704,-0.0569,-0.811,0.5779,0,0,0,0.002,0.006,0.002,0
2018,5,17,22,22,45.751,-0.0704,-0.057,-0.811,0.5779,0,0,0,0,0.012,0.005,0
2018,5,17,22,22,45.767,-0.0705,-0.057,-0.811,0.5779,0,0,0,0.003,0.014,0.007,0
2018,5,17,22,22,45.805,-0.0705,-0.057,-0.8109,0.5779,0,0,0,0.003,0.012,0,0
2018,5,17,22,22,45.825,-0.0705,-0.057,-0.8109,0.578,0,0,0,0.002,0.012,0.003,0
2018,5,17,22,22,45.828,-0.0706,-0.057,-0.8108,0.5781,1.8,0.7,0,0.001,0.009,-0.002,0
2018,5,17,22,22,45.865,-0.0707,-0.057,-0.8106,0.5784,2,0.4,0,0.005,0.01,0.002,0
2018,5,17,22,22,45.887,-0.0708,-0.057,-0.8105,0.5786,-0.9,-0.2,0.3,0.002,0.011,0.001,0
2018,5,17,22,22,45.889,-0.0708,-0.057,-0.8105,0.5785,-0.5,-0.1,0.2,0.003,0.011,0,0
2018,5,17,22,22,45.927,-0.0708,-0.057,-0.8105,0.5785,0,0,0,0.001,0.007,0,0
2018,5,17,22,22,45.952,-0.0708,-0.057,-0.8105,0.5785,1.2,0.1,0,0.003,0.011,0.004,0
2018,5,17,22,22,45.956,-0.0709,-0.0571,-0.8103,0.5787,1.1,0.2,0,0.004,0.011,0.002,0
2018,5,17,22,22,45.972,-0.0709,-0.0571,-0.8102,0.5789,1,0.1,0.1,0,0.008,0.003,0
2018,5,17,22,22,45.988,-0.0709,-0.0571,-0.8101,0.579,0.7,0,0.2,0.002,0.012,0.002,0
2018,5,17,22,22,46.026,-0.0709,-0.0571,-0.8101,0.5791,0.9,-0.1,0.1,0.002,0.01,0.002,0
2018,5,17,22,22,46.026,-0.0709,-0.0571,-0.81,0.5792,0,0,0,0.004,0.01,0.005,0
2018,5,17,22,22,46.049,-0.071,-0.0571,-0.81,0.5792,-0.8,-0.2,-0.1,0.002,0.011,0.004,1023
2018,5,17,22,22,46.087,-0.071,-0.0571,-0.8101,0.5791,-0.6,-0.3,0,0.003,0.012,0.004,1023
2018,5,17,22,22,46.109,-0.071,-0.0572,-0.8101,0.579,0,0,0,0.004,0.008,0,1023
2018,5,17,22,22,46.114,-0.071,-0.0572,-0.8102,0.5789,-0.6,-0.2,0,0.001,0.012,0.004,1023
2018,5,17,22,22,46.13,-0.071,-0.0572,-0.8103,0.5788,-1.2,-0.2,-0.1,0.001,0.01,0.005,1023
2018,5,17,22,22,46.151,-0.071,-0.0573,-0.8104,0.5786,-1.1,0,0,0.004,0.012,0.003,1023
2018,5,17,22,22,46.189,-0.0711,-0.0573,-0.8105,0.5785,-1.2,-0.1,0,0,0.009,0,1023
2018,5,17,22,22,46.212,-0.0711,-0.0573,-0.8106,0.5783,-1.2,-0.1,0.1,0.002,0.005,0,1023
2018,5,17,22,22,46.217,-0.0711,-0.0573,-0.8107,0.5781,-1,-0.1,0,0.001,0.011,0.002,1023
2018,5,17,22,22,46.236,-0.0711,-0.0573,-0.8109,0.5779,-1.5,-0.3,0.4,0.001,0.012,0.004,1023
2018,5,17,22,22,46.253,-0.071,-0.0573,-0.8111,0.5776,-1.9,-0.5,1,0,0.015,0.005,1023
2018,5,17,22,22,46.275,-0.0708,-0.0571,-0.8113,0.5774,-1.6,-0.7,1.3,0.001,0.014,0,1023
2018,5,17,22,22,46.29,-0.0706,-0.057,-0.8115,0.5772,-1.7,-0.4,1.2,0.002,0.011,-0.001,1023
2018,5,17,22,22,46.331,-0.0705,-0.0569,-0.8117,0.5769,-1.3,-0.5,0.9,0,0.01,0.001,0
2018,5,17,22,22,46.331,-0.0704,-0.0568,-0.8118,0.5768,-0.7,-0.6,0.7,0.002,0.011,0,0
2018,5,17,22,22,46.353,-0.0702,-0.0568,-0.8119,0.5767,-0.2,-0.2,0.5,0.001,0.008,0.003,0
2018,5,17,22,22,46.39,-0.0702,-0.0567,-0.8119,0.5767,-0.6,-0.4,0.4,-0.001,0.01,0.002,0
2018,5,17,22,22,46.41,-0.0702,-0.0567,-0.8119,0.5766,0,0,0,-0.001,0.007,0,0
2018,5,17,22,22,46.413,-0.0702,-0.0567,-0.8119,0.5766,0,0,0,-0.002,0.007,0.002,0
2018,5,17,22,22,46.449,-0.0702,-0.0568,-0.8119,0.5766,0,0,0,-0.001,0.008,0.001,0
2018,5,17,22,22,46.472,-0.0702,-0.0568,-0.8119,0.5766,-0.8,-0.1,-0.1,0,0.011,0.001,0
2018,5,17,22,22,46.475,-0.0703,-0.0568,-0.812,0.5765,-1,-0.1,-0.2,-0.003,0.009,-0.003,0
2018,5,17,22,22,46.491,-0.0703,-0.0568,-0.812,0.5764,0,0,0,-0.002,0.013,0.008,0
2018,5,17,22,22,46.513,-0.0704,-0.0569,-0.8121,0.5764,0.9,0.6,-0.6,0.001,0.013,-0.01,0
2018,5,17,22,22,46.549,-0.0706,-0.057,-0.8119,0.5766,1.8,0.3,-0.4,-0.001,0.01,0.003,0
2018,5,17,22,22,46.57,-0.0706,-0.057,-0.8118,0.5767,-0.5,0,0,0,0.01,0.009,0
2018,5,17,22,22,46.573,-0.0706,-0.057,-0.8119,0.5766,-1.5,-0.4,0,0,0.011,0.003,0
2018,5,17,22,22,46.61,-0.0705,-0.0571,-0.8123,0.5761,-0.9,-0.3,0.1,0.001,0.009,-0.005,0
2018,5,17,22,22,46.631,-0.0705,-0.0571,-0.8123,0.576,0,0,0,0.001,0.009,0,0
2018,5,17,22,22,46.636,-0.0706,-0.0571,-0.8123,0.576,0,0,0,-0.001,0.012,0.008,0
2018,5,17,22,22,46.672,-0.0706,-0.0571,-0.8123,0.576,0,0,0,0,0.01,0.002,0
2018,5,17,22,22,46.695,-0.0706,-0.0571,-0.8123,0.576,0.7,0,0,0,0.012,0.009,0
2018,5,17,22,22,46.698,-0.0706,-0.0571,-0.8123,0.576,-0.9,-0.1,0.1,-0.002,0.013,0.005,1023
2018,5,17,22,22,46.733,-0.0706,-0.0571,-0.8124,0.5759,-0.9,0,0.1,-0.001,0.01,0.001,1023
2018,5,17,22,22,46.733,-0.0706,-0.0572,-0.8125,0.5757,-1.2,-0.1,0.2,0,0.012,0.003,1023
2018,5,17,22,22,46.757,-0.0706,-0.0572,-0.8127,0.5755,-1.3,-0.3,0.1,0,0.01,0,1023
2018,5,17,22,22,46.793,-0.0705,-0.0572,-0.8128,0.5753,-0.6,-0.1,0,-0.001,0.009,0,1023
2018,5,17,22,22,46.814,-0.0705,-0.0572,-0.8128,0.5752,0,0,0,0,0.012,0,1023
2018,5,17,22,22,46.817,-0.0706,-0.0572,-0.8128,0.5752,0,0,0,0.003,0.01,0,1023
2018,5,17,22,22,46.854,-0.0706,-0.0572,-0.8128,0.5752,0,0,0,-0.002,0.007,0.002,1023
2018,5,17,22,22,46.875,-0.0706,-0.0572,-0.8128,0.5752,0,0,0,-0.002,0.009,0.003,1023
2018,5,17,22,22,46.877,-0.0706,-0.0572,-0.8128,0.5752,0,0,0,-0.001,0.01,0.002,1023
2018,5,17,22,22,46.914,-0.0706,-0.0572,-0.8128,0.5752,0,0,0,-0.004,0.01,-0.001,1023
2018,5,17,22,22,46.935,-0.0706,-0.0572,-0.8129,0.5752,0,0,0,0,0.012,0.001,1023
2018,5,17,22,22,46.937,-0.0706,-0.0572,-0.8128,0.5752,0,0,0,0.001,0.01,0.005,1023
2018,5,17,22,22,46.973,-0.0706,-0.0572,-0.8128,0.5752,0,0,0,0.001,0.01,0.008,1023
2018,5,17,22,22,46.996,-0.0706,-0.0572,-0.8128,0.5752,0,0,0,-0.002,0.008,0,1023
2018,5,17,22,22,47,-0.0706,-0.0573,-0.8128,0.5752,0,0,0,-0.002,0.006,0.002,1023
2018,5,17,22,22,47.036,-0.0706,-0.0573,-0.8128,0.5753,0,0,0,0,0.01,0.002,0
2018,5,17,22,22,47.036,-0.0707,-0.0573,-0.8128,0.5753,1.2,0.3,-0.4,0,0.007,0.003,0
2018,5,17,22,22,47.059,-0.0707,-0.0573,-0.8126,0.5755,1,0.1,-0.3,0,0.008,0.006,0
2018,5,17,22,22,47.077,-0.0707,-0.0574,-0.8126,0.5756,0,0,0,0,0.012,0.011,0
2018,5,17,22,22,47.1,-0.0708,-0.0574,-0.8127,0.5754,-1.4,-0.2,-0.2,0,0.013,0.007,0
2018,5,17,22,22,47.118,-0.0708,-0.0574,-0.8128,0.5752,-0.9,-0.2,0,-0.001,0.008,-0.001,0
2018,5,17,22,22,47.141,-0.0708,-0.0574,-0.8129,0.5751,0,0,0,0,0.008,0.001,0
2018,5,17,22,22,47.161,-0.0708,-0.0574,-0.8129,0.5751,0,0,0,0.001,0.012,0,0
2018,5,17,22,22,47.179,-0.0708,-0.0574,-0.8128,0.5752,0.7,0.1,-0.1,-0.001,0.008,0,0
2018,5,17,22,22,47.202,-0.0708,-0.0575,-0.8127,0.5753,0,0,0,0,0.011,0.003,0
2018,5,17,22,22,47.22,-0.0708,-0.0574,-0.8127,0.5754,0.6,0,0.1,-0.001,0.008,0.002,0
2018,5,17,22,22,47.244,-0.0708,-0.0574,-0.8126,0.5755,1,0,0,0,0.007,0.003,0
2018,5,17,22,22,47.261,-0.0708,-0.0574,-0.8125,0.5756,0.5,-0.1,0.1,-0.003,0.007,0.001,0
2018,5,17,22,22,47.277,-0.0708,-0.0574,-0.8125,0.5757,0.6,0,0,0,0.007,0,0
2018,5,17,22,22,47.299,-0.0708,-0.0574,-0.8124,0.5758,0.8,0,-0.1,-0.005,0.01,0.003,0
2018,5,17,22,22,47.337,-0.0708,-0.0574,-0.8124,0.5758,0,0,0,0,0.008,0.005,0
2018,5,17,22,22,47.358,-0.0708,-0.0574,-0.8124,0.5758,0,0,0,0,0.008,0.006,0
2018,5,17,22,22,47.362,-0.0708,-0.0575,-0.8124,0.5758,0,0,0,0.001,0.012,-0.001,1023
2018,5,17,22,22,47.397,-0.0708,-0.0575,-0.8124,0.5759,0,0,0,0,0.008,0.007,1023
2018,5,17,22,22,47.418,-0.0708,-0.0575,-0.8124,0.5759,0,0,0,0,0.01,0.004,1023
2018,5,17,22,22,47.423,-0.0708,-0.0575,-0.8124,0.5759,0,0,0,0,0.012,0.003,1023
2018,5,17,22,22,47.461,-0.0708,-0.0575,-0.8124,0.5758,0,0,0,-0.001,0.007,0.004,1023
2018,5,17,22,22,47.481,-0.0708,-0.0575,-0.8124,0.5758,0,0,0,-0.001,0.009,0.003,1023
2018,5,17,22,22,47.485,-0.0708,-0.0575,-0.8124,0.5758,0,0,0,0,0.008,0,1023
2018,5,17,22,22,47.52,-0.0708,-0.0575,-0.8124,0.5758,0,0,0,-0.001,0.011,0.006,1023
2018,5,17,22,22,47.52,-0.0709,-0.0575,-0.8124,0.5758,0.6,0,0,0,0.006,0,1023
2018,5,17,22,22,47.544,-0.0709,-0.0575,-0.8123,0.5759,0.8,0.1,-0.1,0,0.007,0.003,1023
2018,5,17,22,22,47.559,-0.0709,-0.0575,-0.8122,0.576,0.5,0.2,-0.1,0,0.01,0.001,1023
2018,5,17,22,22,47.581,-0.0709,-0.0575,-0.8122,0.576,0,0,0,0,0.009,0.003,1023
2018,5,17,22,22,47.601,-0.071,-0.0575,-0.8122,0.576,0,0,0,0,0.011,0.004,1023
2018,5,17,22,22,47.622,-0.071,-0.0575,-0.8122,0.576,0,0,0,-0.001,0.01,0.002,1023
2018,5,17,22,22,47.658,-0.071,-0.0576,-0.8122,0.576,0.1,0.1,-0.6,0.001,0.002,0,0
2018,5,17,22,22,47.679,-0.0711,-0.0576,-0.8122,0.576,0.2,0.3,-0.5,-0.001,0.008,0.007,0
2018,5,17,22,22,47.684,-0.0712,-0.0577,-0.8122,0.576,0.2,0.5,-0.8,0,0.005,-0.003,0
2018,5,17,22,22,47.721,-0.0714,-0.0578,-0.812,0.5762,2.1,0.8,-0.8,0,0.009,0.003,0
2018,5,17,22,22,47.742,-0.0715,-0.0578,-0.8118,0.5765,0.9,0.2,-0.4,0,0.01,0.008,0
2018,5,17,22,22,47.745,-0.0715,-0.0578,-0.8118,0.5765,0,0,0,0,0.007,0.003,0
2018,5,17,22,22,47.78,-0.0716,-0.0578,-0.8118,0.5765,0,0,0,-0.001,0.009,0.003,0
2018,5,17,22,22,47.78,-0.0716,-0.0578,-0.8118,0.5765,0,0,0,0,0.008,0,0
2018,5,17,22,22,47.802,-0.0716,-0.0578,-0.8118,0.5765,0,0,0,-0.001,0.006,0.003,0
2018,5,17,22,22,47.84,-0.0716,-0.0578,-0.8118,0.5765,0.6,0.2,0.2,-0.005,0.011,0.006,0
2018,5,17,22,22,47.861,-0.0716,-0.0578,-0.8118,0.5766,0,0,0,0,0.01,0.005,0
2018,5,17,22,22,47.863,-0.0716,-0.0578,-0.8118,0.5766,0,0,0,0,0.01,0.003,0
2018,5,17,22,22,47.899,-0.0716,-0.0578,-0.8117,0.5766,0,0,0,0,0.01,0.002,0
2018,5,17,22,22,47.923,-0.0716,-0.0579,-0.8118,0.5765,-0.7,-0.3,-0.4,-0.001,0.011,0.001,0
2018,5,17,22,22,47.925,-0.0717,-0.0579,-0.8118,0.5765,0,0,0,-0.001,0.012,0,0
2018,5,17,22,22,47.962,-0.0717,-0.0579,-0.8118,0.5765,1.1,0.3,0.1,0.003,0.008,-0.001,0
2018,5,17,22,22,47.985,-0.0717,-0.0578,-0.8116,0.5767,1.6,0.4,0.2,-0.004,0.009,0.006,0
2018,5,17,22,22,47.987,-0.0717,-0.0578,-0.8115,0.577,1.6,0.5,0,0.012,-0.007,-0.004,0
2018,5,17,22,22,48.004,-0.0718,-0.0576,-0.8113,0.5773,2.4,1.2,1.1,-0.003,0.011,0,0
2018,5,17,22,22,48.026,-0.0718,-0.0573,-0.811,0.5777,3.3,1.4,0.6,-0.001,0.005,0.002,0
2018,5,17,22,22,48.043,-0.0719,-0.0572,-0.8107,0.5781,1.8,0.7,0,-0.002,0.013,0.006,0
2018,5,17,22,22,48.064,-0.072,-0.0572,-0.8105,0.5783,0.6,0.3,-0.1,-0.005,0.01,0.006,0
2018,5,17,22,22,48.1,-0.072,-0.0572,-0.8105,0.5783,0,0,0,-0.002,0.009,0.006,1023
2018,5,17,22,22,48.121,-0.072,-0.0572,-0.8105,0.5784,0,0,0,0,0.01,0.01,1023
2018,5,17,22,22,48.126,-0.072,-0.0572,-0.8105,0.5784,0,0,0,0,0.009,0.002,1023
2018,5,17,22,22,48.163,-0.0721,-0.0572,-0.8105,0.5784,-0.4,0.1,-0.6,-0.002,0.011,0.005,1023
2018,5,17,22,22,48.186,-0.0722,-0.0573,-0.8105,0.5783,-0.8,0.1,-0.5,-0.001,0.012,0.007,1023
2018,5,17,22,22,48.189,-0.0722,-0.0574,-0.8106,0.5781,-0.9,-0.1,-0.4,0.001,0.01,0.004,1023
2018,5,17,22,22,48.226,-0.0723,-0.0574,-0.8107,0.5781,0,0,0,0,0.011,0.001,1023
2018,5,17,22,22,48.249,-0.0723,-0.0574,-0.8107,0.578,-0.6,-0.1,0,0.001,0.011,0.002,1023
2018,5,17,22,22,48.252,-0.0723,-0.0574,-0.8108,0.5779,-0.6,-0.2,0.2,0.001,0.009,0.006,1023
2018,5,17,22,22,48.267,-0.0722,-0.0574,-0.8108,0.5778,-0.9,0,0.1,-0.002,0.008,0.004,1023
2018,5,17,22,22,48.302,-0.0722,-0.0574,-0.8109,0.5777,-0.7,-0.3,0,0,0.006,0.002,1023
2018,5,17,22,22,48.326,-0.0722,-0.0574,-0.811,0.5776,-0.7,-0.3,0.2,-0.001,0.012,0.001,1023
2018,5,17,22,22,48.329,-0.0721,-0.0573,-0.8111,0.5775,-0.6,-0.3,0.4,0,0.007,0.001,1023
2018,5,17,22,22,48.365,-0.072,-0.0573,-0.8112,0.5773,-1.2,-0.3,0.4,-0.001,0.01,0,0
2018,5,17,22,22,48.387,-0.072,-0.0573,-0.8114,0.5771,-1.5,-0.4,0.1,0,0.005,0.003,0
2018,5,17,22,22,48.392,-0.0719,-0.0573,-0.8115,0.577,0,0,0,-0.004,0.014,0.006,0
2018,5,17,22,22,48.411,-0.0719,-0.0573,-0.8115,0.577,0,0,0,-0.003,0.012,0,0
2018,5,17,22,22,48.447,-0.072,-0.0573,-0.8114,0.5771,0.7,0,-0.1,0,0.008,0.002,0
2018,5,17,22,22,48.47,-0.072,-0.0573,-0.8114,0.5771,-0.8,-0.3,0.2,-0.001,0.012,0.009,0
2018,5,17,22,22,48.474,-0.0719,-0.0573,-0.8115,0.5769,-1.6,-0.4,0,-0.001,0.007,0.001,0
2018,5,17,22,22,48.49,-0.0719,-0.0573,-0.8117,0.5767,-1.2,-0.2,0,-0.002,0.008,0,0
2018,5,17,22,22,48.513,-0.0719,-0.0574,-0.8118,0.5765,-0.7,-0.3,0,0,0.009,0.002,0
2018,5,17,22,22,48.53,-0.0719,-0.0574,-0.8119,0.5764,0,0,0,-0.001,0.007,0.004,0
2018,5,17,22,22,48.548,-0.0719,-0.0574,-0.8119,0.5764,0,0,0,0,0.01,0,0
2018,5,17,22,22,48.57,-0.0719,-0.0574,-0.8119,0.5764,0,0,0,0,0.006,0,0
2018,5,17,22,22,48.588,-0.0719,-0.0574,-0.8119,0.5764,0,0,0,-0.001,0.011,0.003,0
2018,5,17,22,22,48.608,-0.0719,-0.0574,-0.8119,0.5764,0,0,0,0,0.009,0.007,0
2018,5,17,22,22,48.627,-0.0719,-0.0574,-0.8119,0.5764,0,0,0,-0.004,0.009,0.001,0
2018,5,17,22,22,48.651,-0.0719,-0.0574,-0.8119,0.5764,0,0,0,-0.003,0.01,0.008,0
2018,5,17,22,22,48.689,-0.0719,-0.0574,-0.8119,0.5764,0,0,0,0.002,0.008,0.001,0
2018,5,17,22,22,48.711,-0.0719,-0.0574,-0.8119,0.5764,0,0,0,-0.001,0.01,0.002,0
2018,5,17,22,22,48.715,-0.0719,-0.0574,-0.8119,0.5764,0,0,0,-0.002,0.008,0.007,0
2018,5,17,22,22,48.732,-0.0719,-0.0574,-0.8119,0.5764,0,0,0,-0.004,0.011,0,0
2018,5,17,22,22,48.75,-0.0719,-0.0574,-0.8119,0.5764,0,0,0,-0.003,0.006,0.004,1023
2018,5,17,22,22,48.786,-0.0719,-0.0574,-0.812,0.5763,-0.7,-0.3,0,0.001,0.011,0.003,1023
2018,5,17,22,22,48.809,-0.0719,-0.0575,-0.8121,0.5761,-1.3,-0.2,0,-0.003,0.008,0.001,1023
2018,5,17,22,22,48.814,-0.0719,-0.0575,-0.8122,0.576,-0.6,-0.1,0.1,0,0.007,0.002,1023
2018,5,17,22,22,48.832,-0.0719,-0.0575,-0.8122,0.5759,-0.5,-0.2,0.1,0.001,0.012,0.004,1023
2018,5,17,22,22,48.85,-0.0718,-0.0575,-0.8123,0.5758,-0.6,-0.1,0.2,-0.002,0.009,-0.001,1023
2018,5,17,22,22,48.873,-0.0718,-0.0575,-0.8123,0.5758,0,0,0,-0.001,0.01,0.006,1023
2018,5,17,22,22,48.891,-0.0718,-0.0575,-0.8123,0.5758,0,0,0,0,0.009,0.003,1023
2018,5,17,22,22,48.913,-0.0718,-0.0575,-0.8123,0.5757,0,0,0,0,0.009,0,1023
2018,5,17,22,22,48.951,-0.0718,-0.0575,-0.8124,0.5757,0,0,0,-0.002,0.01,0.004,1023
2018,5,17,22,22,48.951,-0.0718,-0.0575,-0.8124,0.5757,0,0,0,0,0.007,0.004,1023
2018,5,17,22,22,48.975,-0.0718,-0.0575,-0.8123,0.5757,0,0,0,-0.005,0.009,0.005,1023
2018,5,17,22,22,48.994,-0.0718,-0.0575,-0.8123,0.5757,0,0,0,0,0.011,0.003,1023
2018,5,17,22,22,49.016,-0.0718,-0.0575,-0.8124,0.5757,-0.6,-0.1,0.1,-0.001,0.012,-0.001,1023
2018,5,17,22,22,49.032,-0.0718,-0.0575,-0.8125,0.5755,-0.9,-0.4,0.2,0,0.009,0.003,0
2018,5,17,22,22,49.052,-0.0718,-0.0575,-0.8126,0.5754,0,0,0,-0.001,0.009,0.003,0
2018,5,17,22,22,49.075,-0.0718,-0.0575,-0.8126,0.5754,0,0,0,-0.003,0.01,0,0
2018,5,17,22,22,49.092,-0.0718,-0.0575,-0.8125,0.5755,0.8,0.1,-0.4,-0.001,0.007,0.001,0
2018,5,17,22,22,49.115,-0.0718,-0.0575,-0.8124,0.5756,0,0,0,-0.003,0.011,0.01,0
2018,5,17,22,22,49.132,-0.0718,-0.0575,-0.8125,0.5756,-1.1,-0.2,0.1,-0.002,0.011,0.003,0
2018,5,17,22,22,49.155,-0.0718,-0.0575,-0.8126,0.5754,-1.1,-0.1,0.2,-0.001,0.007,0.001,0
2018,5,17,22,22,49.192,-0.0717,-0.0575,-0.8127,0.5753,-0.6,-0.3,0.1,0,0.005,0,0
2018,5,17,22,22,49.215,-0.0717,-0.0575,-0.8127,0.5753,0,0,0,-0.001,0.008,0.004,0
2018,5,17,22,22,49.22,-0.0717,-0.0575,-0.8127,0.5753,0,0,0,-0.003,0.011,0.002,0
2018,5,17,22,22,49.237,-0.0717,-0.0574,-0.8127,0.5753,0,0,0,0,0.008,0.003,0
2018,5,17,22,22,49.255,-0.0717,-0.0574,-0.8127,0.5753,0,0,0,-0.002,0.007,0.004,0
2018,5,17,22,22,49.273,-0.0717,-0.0574,-0.8127,0.5753,0.6,-0.1,0.1,-0.001,0.01,0.001,0
2018,5,17,22,22,49.295,-0.0717,-0.0574,-0.8127,0.5753,0,0,0,-0.001,0.005,0.003,0
2018,5,17,22,22,49.315,-0.0717,-0.0574,-0.8126,0.5753,0,0,0,-0.001,0.009,0.003,0
2018,5,17,22,22,49.337,-0.0716,-0.0574,-0.8126,0.5754,0.6,0,0.1,-0.003,0.013,0,0
2018,5,17,22,22,49.355,-0.0716,-0.0574,-0.8126,0.5754,0,0,0,-0.001,0.009,0.002,0
2018,5,17,22,22,49.378,-0.0716,-0.0574,-0.8126,0.5754,0,0,0,-0.002,0.009,0.005,0
2018,5,17,22,22,49.396,-0.0716,-0.0574,-0.8126,0.5754,0,0,0,-0.002,0.009,0.002,0
2018,5,17,22,22,49.419,-0.0716,-0.0574,-0.8126,0.5754,-0.7,-0.1,0.1,-0.001,0.01,0.006,0
2018,5,17,22,22,49.453,-0.0716,-0.0574,-0.8127,0.5753,-0.7,-0.1,0,-0.002,0.01,0.001,0
2018,5,17,22,22,49.453,-0.0716,-0.0574,-0.8127,0.5752,-0.5,-0.2,0,0,0.01,0.002,1023
2018,5,17,22,22,49.475,-0.0716,-0.0574,-0.8128,0.5752,0,0,0,-0.004,0.005,0.005,1023
2018,5,17,22,22,49.493,-0.0715,-0.0574,-0.8128,0.5751,0,0,0,-0.001,0.008,0.001,1023
2018,5,17,22,22,49.516,-0.0715,-0.0574,-0.8128,0.5751,0,0,0,-0.003,0.011,0.001,1023
2018,5,17,22,22,49.554,-0.0715,-0.0574,-0.8128,0.5751,0,0,0,-0.001,0.011,0.005,1023
2018,5,17,22,22,49.576,-0.0715,-0.0574,-0.8128,0.5751,0,0,0,-0.002,0.008,-0.003,1023
2018,5,17,22,22,49.581,-0.0715,-0.0574,-0.8129,0.5751,0,0,0,-0.001,0.01,0,1023
2018,5,17,22,22,49.596,-0.0715,-0.0574,-0.8129,0.5751,0,0,0,-0.001,0.01,0,1023
2018,5,17,22,22,49.619,-0.0715,-0.0574,-0.8129,0.5751,0,0,0,0,0.009,0.005,1023
2018,5,17,22,22,49.637,-0.0715,-0.0574,-0.8129,0.575,0,0,0,-0.002,0.009,0,1023
2018,5,17,22,22,49.659,-0.0715,-0.0574,-0.8129,0.575,0,0,0,-0.003,0.009,0.007,1023
2018,5,17,22,22,49.677,-0.0715,-0.0574,-0.8129,0.575,0,0,0,-0.002,0.008,0.004,1023
2018,5,17,22,22,49.7,-0.0715,-0.0574,-0.8129,0.575,0,0,0,0,0.008,0.003,1023
2018,5,17,22,22,49.72,-0.0715,-0.0574,-0.8129,0.575,0,0,0,-0.003,0.012,0.005,1023
2018,5,17,22,22,49.743,-0.0715,-0.0574,-0.8129,0.575,-0.6,-0.1,-0.1,0,0.007,0.004,1023
2018,5,17,22,22,49.761,-0.0715,-0.0574,-0.813,0.5749,0,0,0,0,0.008,0,0
2018,5,17,22,22,49.784,-0.0715,-0.0574,-0.813,0.5749,0,0,0,-0.003,0.006,-0.003,0
2018,5,17,22,22,49.8,-0.0715,-0.0573,-0.8129,0.575,1.5,0.4,-0.1,-0.002,0.009,0.003,0
2018,5,17,22,22,49.818,-0.0715,-0.0573,-0.8128,0.5752,0,0,0,-0.001,0.014,0.006,0
2018,5,17,22,22,49.841,-0.0715,-0.0573,-0.8128,0.5751,-0.9,-0.2,0,-0.003,0.011,0.002,0
2018,5,17,22,22,49.858,-0.0715,-0.0573,-0.8129,0.575,-1.1,-0.3,0.3,-0.001,0.008,0.006,0
2018,5,17,22,22,49.881,-0.0714,-0.0573,-0.8131,0.5748,-0.9,-0.3,0.3,-0.003,0.008,0,0
2018,5,17,22,22,49.917,-0.0714,-0.0573,-0.8131,0.5747,0,0,0,-0.002,0.007,-0.002,0
2018,5,17,22,22,49.94,-0.0713,-0.0573,-0.8131,0.5747,0,0,0,-0.003,0.01,0,0
2018,5,17,22,22,49.944,-0.0713,-0.0572,-0.8131,0.5747,0.7,0,0.1,-0.002,0.009,0.001,0
2018,5,17,22,22,49.961,-0.0714,-0.0572,-0.813,0.5749,1,0.4,-0.1,-0.002,0.009,0.003,0
2018,5,17,22,22,49.983,-0.0714,-0.0572,-0.8129,0.575,1,0.1,0.1,-0.001,0.008,0,0
2018,5,17,22,22,50,-0.0714,-0.0572,-0.8128,0.5752,0.6,0,0.2,-0.002,0.01,0.007,0
2018,5,17,22,22,50.019,-0.0713,-0.0572,-0.8128,0.5752,0,0,0,0,0.009,0.004,0
2018,5,17,22,22,50.057,-0.0713,-0.0572,-0.8128,0.5752,-0.5,-0.3,0.1,-0.003,0.011,0.003,0
2018,5,17,22,22,50.079,-0.0713,-0.0572,-0.8128,0.5752,0,0,0,0,0.009,0.005,0
2018,5,17,22,22,50.085,-0.0713,-0.0572,-0.8128,0.5752,-0.5,-0.1,0.1,-0.001,0.009,0.006,0
2018,5,17,22,22,50.103,-0.0713,-0.0571,-0.8129,0.5751,-1.1,-0.1,0.1,-0.003,0.009,0.003,0
2018,5,17,22,22,50.12,-0.0713,-0.0571,-0.813,0.5749,-0.7,0,0.1,-0.001,0.008,0.006,0
2018,5,17,22,22,50.142,-0.0713,-0.0571,-0.8131,0.5748,-1.1,-0.1,0,-0.003,0.009,0.003,0
2018,5,17,22,22,50.161,-0.0713,-0.0571,-0.8132,0.5746,-1.1,-0.3,-0.1,-0.001,0.01,0.002,0
2018,5,17,22,22,50.184,-0.0713,-0.0571,-0.8133,0.5745,-0.6,0,0,-0.002,0.011,0.002,0
2018,5,17,22,22,50.202,-0.0713,-0.0571,-0.8133,0.5744,0,0,0,-0.002,0.009,-0.002,1023
2018,5,17,22,22,50.22,-0.0713,-0.0571,-0.8133,0.5744,0,0,0,0,0.007,-0.001,1023
2018,5,17,22,22,50.256,-0.0713,-0.0571,-0.8134,0.5744,0,0,0,-0.001,0.01,-0.002,1023
2018,5,17,22,22,50.279,-0.0713,-0.0571,-0.8134,0.5744,0,0,0,-0.001,0.007,0.003,1023
2018,5,17,22,22,50.285,-0.0713,-0.0571,-0.8134,0.5744,0,0,0,-0.004,0.008,0.003,1023
2018,5,17,22,22,50.302,-0.0713,-0.0571,-0.8134,0.5744,-0.7,-0.1,-0.1,0,0.006,0.003,1023
2018,5,17,22,22,50.323,-0.0713,-0.0572,-0.8135,0.5742,-0.7,0,-0.1,-0.001,0.007,0.002,1023
2018,5,17,22,22,50.36,-0.0712,-0.0572,-0.8135,0.5742,0,0,0,-0.002,0.009,0.001,1023
2018,5,17,22,22,50.36,-0.0712,-0.0572,-0.8136,0.5741,-0.6,-0.3,0,-0.003,0.008,0.001,1023
2018,5,17,22,22,50.383,-0.0712,-0.0572,-0.8137,0.5739,-0.7,0,0,-0.003,0.009,0,1023
2018,5,17,22,22,50.43,-0.0712,-0.0572,-0.8138,0.5738,-0.6,-0.1,-0.1,-0.003,0.008,-0.001,1023
2018,5,17,22,22,50.432,-0.0712,-0.0572,-0.8138,0.5737,-0.7,-0.1,-0.1,-0.002,0.007,0.006,1023
2018,5,17,22,22,50.445,-0.0712,-0.0572,-0.8139,0.5737,-0.5,-0.1,0,-0.001,0.01,0.003,1023
2018,5,17,22,22,50.483,-0.0712,-0.0572,-0.8139,0.5736,-0.7,-0.1,0,-0.001,0.01,0.003,0
2018,5,17,22,22,50.506,-0.0712,-0.0572,-0.814,0.5736,-0.5,0,-0.1,-0.002,0.003,-0.001,0
2018,5,17,22,22,50.511,-0.0712,-0.0572,-0.814,0.5735,0,0,0,-0.003,0.013,0.005,0
2018,5,17,22,22,50.524,-0.0712,-0.0572,-0.814,0.5735,0.4,0.5,-0.6,-0.001,0.008,-0.002,0
2018,5,17,22,22,50.541,-0.0713,-0.0573,-0.8139,0.5737,1.6,0.3,-0.4,-0.002,0.008,0.006,0
2018,5,17,22,22,50.564,-0.0713,-0.0573,-0.8138,0.5738,0,0,0,-0.002,0.011,0.009,0
2018,5,17,22,22,50.601,-0.0713,-0.0573,-0.8138,0.5737,-1.5,-0.4,-0.1,-0.003,0.011,0.005,0
2018,5,17,22,22,50.623,-0.0713,-0.0573,-0.814,0.5735,-1.4,-0.4,0,-0.001,0.007,0.001,0
2018,5,17,22,22,50.629,-0.0713,-0.0574,-0.8141,0.5733,-1.1,0,-0.1,-0.002,0.009,0.001,0
2018,5,17,22,22,50.645,-0.0713,-0.0574,-0.8142,0.5732,0,0,0,-0.002,0.01,0.001,0
2018,5,17,22,22,50.668,-0.0713,-0.0574,-0.8142,0.5732,0,0,0,-0.003,0.011,0.004,0
2018,5,17,22,22,50.686,-0.0712,-0.0574,-0.8142,0.5732,0,0,0,-0.004,0.012,0.002,0
2018,5,17,22,22,50.708,-0.0712,-0.0574,-0.8142,0.5732,0,0,0,-0.001,0.009,0.003,0
2018,5,17,22,22,50.724,-0.0712,-0.0574,-0.8142,0.5731,0,0,0,0,0.007,-0.003,0
2018,5,17,22,22,50.742,-0.0712,-0.0574,-0.8142,0.5732,0,0,0,-0.001,0.011,0.003,0
2018,5,17,22,22,50.765,-0.0712,-0.0574,-0.8142,0.5732,0,0,0,-0.001,0.01,0,0
2018,5,17,22,22,50.803,-0.0712,-0.0574,-0.8142,0.5732,0,0,0,-0.001,0.006,0.001,0
2018,5,17,22,22,50.803,-0.0712,-0.0574,-0.8142,0.5732,0.6,0,0.1,0,0.011,0,0
2018,5,17,22,22,50.828,-0.0712,-0.0574,-0.8142,0.5732,0,0,0,-0.003,0.01,0.002,0
2018,5,17,22,22,50.863,-0.0712,-0.0574,-0.8142,0.5732,0,0,0,0,0.009,0,0
2018,5,17,22,22,50.886,-0.0712,-0.0574,-0.8142,0.5731,-0.7,0,0.1,-0.002,0.008,0,0
2018,5,17,22,22,50.891,-0.0712,-0.0574,-0.8143,0.573,-1.1,-0.1,0.2,-0.002,0.011,0.006,1023
2018,5,17,22,22,50.909,-0.0712,-0.0573,-0.8145,0.5728,-1,-0.1,0.1,0,0.01,0.004,1023
2018,5,17,22,22,50.927,-0.0712,-0.0573,-0.8146,0.5727,-0.5,0,0.2,0,0.012,0.002,1023
2018,5,17,22,22,50.95,-0.0711,-0.0573,-0.8146,0.5727,0,0,0,-0.002,0.01,0.003,1023
2018,5,17,22,22,50.968,-0.0711,-0.0573,-0.8146,0.5726,-0.6,-0.1,0.3,-0.001,0.01,0.007,1023
2018,5,17,22,22,51.003,-0.0711,-0.0573,-0.8147,0.5725,-0.7,-0.4,0.1,0,0.006,0,1023
2018,5,17,22,22,51.026,-0.071,-0.0573,-0.8148,0.5725,0,0,0,-0.003,0.009,0.006,1023
2018,5,17,22,22,51.031,-0.071,-0.0573,-0.8148,0.5724,0,0,0,-0.001,0.006,0.004,1023
2018,5,17,22,22,51.045,-0.071,-0.0573,-0.8148,0.5724,0,0,0,0,0.006,0,1023
2018,5,17,22,22,51.067,-0.071,-0.0573,-0.8148,0.5724,0,0,0,-0.002,0.01,0,1023
2018,5,17,22,22,51.106,-0.071,-0.0573,-0.8149,0.5723,-0.6,-0.2,0,-0.001,0.012,0.002,1023
2018,5,17,22,22,51.128,-0.071,-0.0573,-0.8149,0.5723,0,0,0,-0.001,0.009,0.001,1023
2018,5,17,22,22,51.133,-0.071,-0.0573,-0.8149,0.5723,0,0,0,0,0.011,0,1023
2018,5,17,22,22,51.149,-0.071,-0.0573,-0.8149,0.5722,-0.6,-0.1,0,-0.001,0.004,0.001,0
2018,5,17,22,22,51.172,-0.071,-0.0573,-0.8149,0.5722,0,0,0,-0.005,0.015,0.003,0
2018,5,17,22,22,51.19,-0.071,-0.0573,-0.8149,0.5722,0.7,0.3,-0.1,-0.003,0.013,0.005,0
2018,5,17,22,22,51.213,-0.071,-0.0573,-0.8148,0.5723,0.9,0.3,-0.1,0,0.006,-0.004,0
2018,5,17,22,22,51.228,-0.071,-0.0573,-0.8147,0.5725,0,0,0,-0.004,0.015,0.011,0
2018,5,17,22,22,51.246,-0.071,-0.0573,-0.8148,0.5724,-1.1,-0.5,0,-0.001,0.01,0.003,0
2018,5,17,22,22,51.269,-0.0709,-0.0573,-0.8149,0.5723,-1.1,-0.4,0.2,-0.002,0.009,0,0
2018,5,17,22,22,51.288,-0.0709,-0.0573,-0.815,0.5721,0,0,0,-0.002,0.008,0.001,0
2018,5,17,22,22,51.311,-0.0709,-0.0573,-0.815,0.5721,0,0,0,0,0.009,0.001,0
2018,5,17,22,22,51.329,-0.0709,-0.0573,-0.8151,0.572,0,0,0,-0.001,0.008,-0.002,0
2018,5,17,22,22,51.35,-0.0709,-0.0573,-0.8151,0.572,0,0,0,-0.002,0.008,0.005,0
2018,5,17,22,22,51.389,-0.0709,-0.0573,-0.8151,0.572,0,0,0,-0.003,0.012,0.001,0
2018,5,17,22,22,51.411,-0.0709,-0.0573,-0.8151,0.572,0.5,-0.1,0,-0.004,0.007,0.001,0
2018,5,17,22,22,51.416,-0.0709,-0.0573,-0.815,0.5721,0.7,0,0.1,-0.001,0.008,0.001,0
2018,5,17,22,22,51.432,-0.0708,-0.0573,-0.815,0.5722,0.7,0.1,0,-0.001,0.008,0.004,0
2018,5,17,22,22,51.455,-0.0708,-0.0573,-0.8149,0.5723,0.6,-0.1,0.1,0,0.007,0.002,0
2018,5,17,22,22,51.471,-0.0708,-0.0573,-0.8149,0.5723,0.7,0,0.1,0,0.009,0.001,0
2018,5,17,22,22,51.507,-0.0708,-0.0573,-0.8148,0.5724,0,0,0,-0.001,0.005,0.001,0
2018,5,17,22,22,51.53,-0.0708,-0.0573,-0.8148,0.5724,0,0,0,-0.001,0.011,0.002,0
2018,5,17,22,22,51.534,-0.0708,-0.0573,-0.8148,0.5724,0,0,0,0,0.01,0,0
2018,5,17,22,22,51.554,-0.0708,-0.0573,-0.8148,0.5724,-0.5,-0.2,0,-0.005,0.008,0,1023
2018,5,17,22,22,51.589,-0.0707,-0.0573,-0.8149,0.5722,-0.7,-0.1,0,-0.005,0.008,0,1023
2018,5,17,22,22,51.61,-0.0707,-0.0573,-0.815,0.5722,0,0,0,0,0.008,0,1023
2018,5,17,22,22,51.615,-0.0707,-0.0573,-0.815,0.5722,0,0,0,-0.002,0.008,0.003,1023
2018,5,17,22,22,51.633,-0.0707,-0.0573,-0.815,0.5721,0,0,0,-0.001,0.011,-0.005,1023
2018,5,17,22,22,51.669,-0.0707,-0.0573,-0.815,0.5721,0,0,0,-0.001,0.006,0,1023
2018,5,17,22,22,51.693,-0.0707,-0.0573,-0.815,0.5721,0,0,0,0,0.009,0.001,1023
2018,5,17,22,22,51.696,-0.0707,-0.0573,-0.815,0.5721,0,0,0,-0.001,0.012,0.002,1023
2018,5,17,22,22,51.715,-0.0707,-0.0573,-0.815,0.5721,0,0,0,-0.002,0.008,0.004,1023
2018,5,17,22,22,51.737,-0.0707,-0.0573,-0.815,0.5721,0,0,0,-0.003,0.009,0.001,1023
2018,5,17,22,22,51.752,-0.0707,-0.0573,-0.815,0.5721,0,0,0,-0.001,0.01,0.002,1023
2018,5,17,22,22,51.771,-0.0707,-0.0573,-0.815,0.5721,0,0,0,-0.002,0.01,0.003,1023
2018,5,17,22,22,51.793,-0.0707,-0.0573,-0.815,0.5721,0,0,0,-0.002,0.011,0.007,1023
2018,5,17,22,22,51.811,-0.0707,-0.0573,-0.8151,0.5719,-1.1,-0.4,0,-0.003,0.009,0.005,1023
2018,5,17,22,22,51.834,-0.0706,-0.0573,-0.8153,0.5717,-1.2,-0.1,0,-0.003,0.009,-0.001,1023
2018,5,17,22,22,51.872,-0.0706,-0.0573,-0.8153,0.5717,0,0,0,-0.001,0.011,0.002,1023
2018,5,17,22,22,51.894,-0.0707,-0.0573,-0.8153,0.5717,1.1,0.4,-0.4,-0.001,0.011,-0.005,0
2018,5,17,22,22,51.9,-0.0708,-0.0574,-0.8151,0.5719,1.8,0.2,-0.1,-0.001,0.007,0.003,0
2018,5,17,22,22,51.915,-0.0708,-0.0574,-0.815,0.5721,0,0,0,-0.003,0.011,0.006,0
2018,5,17,22,22,51.938,-0.0708,-0.0574,-0.815,0.5721,0,0,0,-0.005,0.01,0,0
2018,5,17,22,22,51.956,-0.0708,-0.0574,-0.815,0.5721,0,0,0,-0.001,0.009,0.004,0
2018,5,17,22,22,51.979,-0.0708,-0.0574,-0.815,0.5721,0,0,0,-0.001,0.008,-0.002,0
2018,5,17,22,22,51.996,-0.0708,-0.0574,-0.815,0.5721,0.5,0,0,-0.003,0.008,0.004,0
2018,5,17,22,22,52.015,-0.0708,-0.0574,-0.815,0.5722,0.6,0.1,0.1,-0.004,0.008,0.001,0
2018,5,17,22,22,52.032,-0.0708,-0.0574,-0.815,0.5722,0,0,0,0,0.008,0.001,0
2018,5,17,22,22,52.052,-0.0708,-0.0574,-0.815,0.5722,0,0,0,-0.002,0.007,0.009,0
2018,5,17,22,22,52.092,-0.0708,-0.0574,-0.815,0.5722,0,0,0,-0.001,0.011,0.002,0
2018,5,17,22,22,52.114,-0.0708,-0.0574,-0.815,0.5722,0,0,0,-0.001,0.011,0.003,0
2018,5,17,22,22,52.118,-0.0708,-0.0574,-0.8149,0.5722,0,0,0,0,0.007,0.004,0
2018,5,17,22,22,52.137,-0.0708,-0.0574,-0.8149,0.5722,0,0,0,0.002,0.009,0.003,0
2018,5,17,22,22,52.156,-0.0708,-0.0574,-0.8149,0.5722,0.6,0.1,0,-0.002,0.008,0.005,0
2018,5,17,22,22,52.178,-0.0708,-0.0574,-0.8149,0.5723,0,0,0,-0.001,0.012,0.008,0
2018,5,17,22,22,52.196,-0.0707,-0.0574,-0.8149,0.5723,0,0,0,-0.001,0.007,0.002,0
2018,5,17,22,22,52.214,-0.0708,-0.0574,-0.8149,0.5723,0,0,0,-0.001,0.006,0.005,0
2018,5,17,22,22,52.237,-0.0708,-0.0574,-0.8149,0.5723,0,0,0,0,0.01,0.001,0
2018,5,17,22,22,52.254,-0.0708,-0.0574,-0.8149,0.5723,0,0,0,-0.003,0.009,0.007,0
2018,5,17,22,22,52.277,-0.0708,-0.0574,-0.8149,0.5723,0,0,0,0,0.012,0,0
2018,5,17,22,22,52.313,-0.0708,-0.0574,-0.8149,0.5723,0,0,0,-0.001,0.009,0.004,1023
2018,5,17,22,22,52.335,-0.0708,-0.0574,-0.8149,0.5723,0,0,0,0,0.01,0,1023
2018,5,17,22,22,52.34,-0.0708,-0.0574,-0.8149,0.5723,0,0,0,0,0.008,0.006,1023
2018,5,17,22,22,52.357,-0.0708,-0.0574,-0.8149,0.5723,0,0,0,-0.001,0.006,0.007,1023
2018,5,17,22,22,52.393,-0.0708,-0.0574,-0.8149,0.5723,0,0,0,-0.003,0.007,0.007,1023
2018,5,17,22,22,52.416,-0.0708,-0.0574,-0.8149,0.5723,0,0,0,-0.001,0.009,0,1023
2018,5,17,22,22,52.422,-0.0708,-0.0574,-0.8149,0.5723,0,0,0,-0.002,0.011,0.005,1023
2018,5,17,22,22,52.438,-0.0708,-0.0574,-0.8149,0.5723,0,0,0,-0.001,0.01,0,1023
2018,5,17,22,22,52.461,-0.0708,-0.0574,-0.8149,0.5723,0,0,0,-0.001,0.01,0.003,1023
2018,5,17,22,22,52.476,-0.0708,-0.0574,-0.8149,0.5723,0,0,0,-0.002,0.008,0.005,1023
2018,5,17,22,22,52.495,-0.0707,-0.0574,-0.8149,0.5723,-0.7,-0.1,0.2,-0.001,0.007,0.008,1023
2018,5,17,22,22,52.518,-0.0707,-0.0573,-0.815,0.5722,-0.5,0,0.3,0,0.012,-0.001,1023
2018,5,17,22,22,52.536,-0.0707,-0.0573,-0.8151,0.5721,-0.5,0,0.2,0.001,0.008,-0.004,1023
2018,5,17,22,22,52.561,-0.0707,-0.0572,-0.8151,0.572,-0.6,0.3,0,-0.003,0.014,-0.005,1023
2018,5,17,22,22,52.577,-0.0707,-0.0572,-0.8151,0.572,0,0,0,0,0.008,0.003,0
