time_1,time_2,time_3,time_4,time_5,time_6,w,x,y,z,droll,dpitch,dyaw,ax,ay,az,heart
2018,4,24,22,27,25.621,0.3796,-0.206,-0.0734,0.8988,0,0,0,-0.003,0.002,-0.01,0
2018,4,24,22,27,25.625,0.3796,-0.206,-0.0735,0.8988,0,0,0,-0.006,0.001,-0.014,0
2018,4,24,22,27,25.663,0.3796,-0.206,-0.0735,0.8988,0,0,0,-0.002,0.007,-0.014,0
2018,4,24,22,27,25.663,0.3796,-0.206,-0.0735,0.8988,0,0,0,-0.004,0.004,-0.015,0
2018,4,24,22,27,25.687,0.3796,-0.206,-0.0734,0.8988,0,0,0,-0.002,0.007,-0.016,0
2018,4,24,22,27,25.703,0.3796,-0.206,-0.0734,0.8988,0,0,0,-0.003,0.006,-0.012,1023
2018,4,24,22,27,25.726,0.3796,-0.206,-0.0734,0.8989,0,0,0,-0.004,0.004,-0.015,1023
2018,4,24,22,27,25.744,0.3796,-0.206,-0.0734,0.8989,-0.6,0,0.2,-0.005,0.005,-0.015,1023
2018,4,24,22,27,25.765,0.3796,-0.206,-0.0735,0.8988,0,0,0,-0.007,0,-0.008,1023
2018,4,24,22,27,25.783,0.3796,-0.206,-0.0735,0.8988,0,0,0,-0.005,0.002,-0.01,1023
2018,4,24,22,27,25.807,0.3796,-0.206,-0.0735,0.8988,0,0,0,-0.003,0.005,-0.02,1023
2018,4,24,22,27,25.843,0.3796,-0.206,-0.0735,0.8988,0,0,0,-0.005,0.006,-0.013,1023
2018,4,24,22,27,25.865,0.3796,-0.206,-0.0735,0.8988,0,0,0,-0.005,0.005,-0.012,1023
2018,4,24,22,27,25.87,0.3796,-0.206,-0.0735,0.8988,0,0,0,-0.003,0.001,-0.021,1023
2018,4,24,22,27,25.904,0.3796,-0.206,-0.0735,0.8988,0,0,0,-0.008,0.002,-0.015,1023
2018,4,24,22,27,25.927,0.3796,-0.206,-0.0735,0.8988,0,0,0,-0.01,0,-0.013,0
2018,4,24,22,27,25.93,0.3796,-0.206,-0.0735,0.8988,0,0,0,-0.007,0.003,-0.015,0
2018,4,24,22,27,25.946,0.3796,-0.206,-0.0735,0.8988,0,0,0,-0.001,0.004,-0.017,0
2018,4,24,22,27,25.964,0.3796,-0.2061,-0.0735,0.8988,0,0,0,-0.004,0.003,-0.015,0
2018,4,24,22,27,25.985,0.3796,-0.2061,-0.0735,0.8988,0,0,0,-0.005,0.006,-0.016,0
2018,4,24,22,27,26.023,0.3796,-0.2061,-0.0735,0.8988,0,0,0,-0.004,0.001,-0.012,0
2018,4,24,22,27,26.045,0.3796,-0.2061,-0.0736,0.8988,0,0,0,-0.005,0.004,-0.01,0
2018,4,24,22,27,26.05,0.3796,-0.2061,-0.0736,0.8988,0,0,0,-0.007,0.001,-0.01,0
2018,4,24,22,27,26.084,0.3796,-0.2061,-0.0736,0.8988,0,0,0,-0.006,0.003,-0.015,0
2018,4,24,22,27,26.105,0.3796,-0.2061,-0.0736,0.8988,0,0,0,-0.003,0.003,-0.014,0
2018,4,24,22,27,26.109,0.3796,-0.2061,-0.0736,0.8988,0,0,0,-0.004,0.005,-0.014,0
2018,4,24,22,27,26.145,0.3796,-0.2061,-0.0736,0.8988,0,0,0,-0.002,0.005,-0.014,0
2018,4,24,22,27,26.145,0.3796,-0.2061,-0.0736,0.8988,0,0,0,-0.006,0.005,-0.012,0
2018,4,24,22,27,26.169,0.3796,-0.2061,-0.0736,0.8988,0,0,0,-0.005,0.004,-0.01,0
2018,4,24,22,27,26.187,0.3796,-0.2061,-0.0736,0.8988,0,0,0,-0.001,0.005,-0.012,0
2018,4,24,22,27,26.209,0.3796,-0.2061,-0.0736,0.8988,0,0,0,-0.005,0.005,-0.017,0
2018,4,24,22,27,26.246,0.3796,-0.2061,-0.0736,0.8988,0,0,0,-0.003,0.006,-0.011,0
2018,4,24,22,27,26.267,0.3796,-0.2061,-0.0736,0.8988,0,0,0,-0.009,0,-0.011,0
2018,4,24,22,27,26.27,0.3796,-0.2061,-0.0736,0.8988,0,0,0,-0.008,0.003,-0.017,0
2018,4,24,22,27,26.306,0.3796,-0.2061,-0.0736,0.8988,0,0,0,-0.004,0.003,-0.015,0
2018,4,24,22,27,26.328,0.3796,-0.2061,-0.0736,0.8988,0,0,0,-0.004,0.005,-0.01,0
2018,4,24,22,27,26.33,0.3796,-0.2061,-0.0735,0.8988,0,0,0,-0.007,0.003,-0.012,0
2018,4,24,22,27,26.367,0.3796,-0.2061,-0.0735,0.8988,0.5,0,0,-0.003,0.003,-0.017,0
2018,4,24,22,27,26.367,0.3796,-0.206,-0.0735,0.8988,0,0,0,-0.007,0.003,-0.011,0
2018,4,24,22,27,26.39,0.3796,-0.206,-0.0735,0.8988,0,0,0,-0.005,0.006,-0.007,0
2018,4,24,22,27,26.407,0.3796,-0.206,-0.0735,0.8988,0,0,0,-0.003,0.004,-0.014,0
2018,4,24,22,27,26.431,0.3796,-0.2061,-0.0735,0.8988,0,0,0,-0.004,0.007,-0.017,0
2018,4,24,22,27,26.447,0.3796,-0.2061,-0.0735,0.8988,0,0,0,-0.004,0.003,-0.016,0
2018,4,24,22,27,26.471,0.3796,-0.2061,-0.0735,0.8988,0,0,0,-0.003,0.004,-0.018,0
2018,4,24,22,27,26.491,0.3796,-0.2061,-0.0735,0.8988,0,0,0,-0.002,0.004,-0.014,0
2018,4,24,22,27,26.509,0.3796,-0.2061,-0.0735,0.8988,0,0,0,-0.006,0.003,-0.016,0
2018,4,24,22,27,26.532,0.3796,-0.2061,-0.0735,0.8988,0,0,0,-0.004,0.007,-0.018,0
2018,4,24,22,27,26.55,0.3796,-0.2061,-0.0735,0.8988,0,0,0,-0.005,0.001,-0.014,1023
2018,4,24,22,27,26.573,0.3796,-0.2061,-0.0735,0.8988,0,0,0,-0.003,0.002,-0.013,1023
2018,4,24,22,27,26.589,0.3796,-0.2061,-0.0735,0.8988,0,0,0,-0.007,0.002,-0.014,1023
2018,4,24,22,27,26.607,0.3796,-0.2061,-0.0735,0.8988,0.7,0,0.3,-0.006,0.005,-0.013,1023
2018,4,24,22,27,26.63,0.3796,-0.2061,-0.0735,0.8988,0,0,0,-0.005,0.003,-0.016,1023
2018,4,24,22,27,26.667,0.3796,-0.2061,-0.0735,0.8988,0,0,0,-0.001,0.003,-0.014,1023
2018,4,24,22,27,26.689,0.3796,-0.2061,-0.0735,0.8988,0,0,0,-0.002,0.007,-0.018,1023
2018,4,24,22,27,26.692,0.3796,-0.2061,-0.0735,0.8988,0,0,0,-0.003,0.005,-0.017,1023
2018,4,24,22,27,26.71,0.3796,-0.2061,-0.0735,0.8988,0,0,0,-0.007,0.004,-0.016,1023
2018,4,24,22,27,26.733,0.3796,-0.2061,-0.0735,0.8988,0,0,0,-0.007,0.003,-0.016,0
2018,4,24,22,27,26.752,0.3796,-0.2061,-0.0735,0.8988,0,0,0,-0.005,0.004,-0.016,0
2018,4,24,22,27,26.772,0.3796,-0.2061,-0.0735,0.8988,0,0,0,-0.005,0.002,-0.017,0
2018,4,24,22,27,26.791,0.3796,-0.2061,-0.0735,0.8988,0,0,0,-0.005,0.005,-0.014,0
2018,4,24,22,27,26.814,0.3796,-0.2061,-0.0735,0.8988,0,0,0,-0.006,0.006,-0.016,0
2018,4,24,22,27,26.832,0.3796,-0.2061,-0.0736,0.8988,-0.7,-0.1,0,-0.004,0.003,-0.008,0
2018,4,24,22,27,26.855,0.3796,-0.2062,-0.0737,0.8988,-0.5,0.1,0,-0.003,0.005,-0.013,0
2018,4,24,22,27,26.873,0.3796,-0.2062,-0.0737,0.8988,0,0,0,-0.005,0.001,-0.018,0
2018,4,24,22,27,26.891,0.3796,-0.2062,-0.0737,0.8988,0,0,0,-0.003,0.006,-0.015,0
2018,4,24,22,27,26.914,0.3796,-0.2062,-0.0737,0.8988,0,0,0,-0.007,0.003,-0.012,0
2018,4,24,22,27,26.932,0.3796,-0.2062,-0.0738,0.8988,0,0,0,-0.004,0.005,-0.015,0
2018,4,24,22,27,26.955,0.3796,-0.2062,-0.0738,0.8988,0,0,0,-0.006,0.005,-0.012,0
2018,4,24,22,27,26.971,0.3796,-0.2062,-0.0738,0.8988,0,0,0,-0.003,0.004,-0.014,0
2018,4,24,22,27,26.996,0.3796,-0.2062,-0.0738,0.8988,0,0,0,-0.004,0.004,-0.016,0
2018,4,24,22,27,27.015,0.3796,-0.2062,-0.0737,0.8988,0,0,0,-0.002,0.005,-0.012,0
2018,4,24,22,27,27.033,0.3796,-0.2062,-0.0737,0.8988,0,0,0,-0.004,0.005,-0.01,0
2018,4,24,22,27,27.056,0.3796,-0.2062,-0.0737,0.8988,0.6,0.1,0.1,-0.007,0.003,-0.014,0
2018,4,24,22,27,27.072,0.3796,-0.2061,-0.0736,0.8988,0,0,0,-0.002,0.006,-0.017,0
2018,4,24,22,27,27.11,0.3796,-0.2061,-0.0736,0.8988,0,0,0,-0.001,0.007,-0.015,0
2018,4,24,22,27,27.132,0.3796,-0.2062,-0.0735,0.8988,0,0,0,-0.007,0.003,-0.013,0
2018,4,24,22,27,27.135,0.3796,-0.2062,-0.0736,0.8988,0,0,0,-0.007,0.004,-0.012,0
2018,4,24,22,27,27.171,0.3795,-0.2062,-0.0736,0.8988,0,0,0,-0.009,0.004,-0.013,0
2018,4,24,22,27,27.193,0.3795,-0.2062,-0.0735,0.8988,0,0,0,-0.003,0.004,-0.014,0
2018,4,24,22,27,27.197,0.3795,-0.2062,-0.0735,0.8988,0,0,0,-0.005,0.004,-0.019,0
2018,4,24,22,27,27.216,0.3795,-0.2062,-0.0735,0.8988,0.6,0,0,-0.005,0.004,-0.017,0
2018,4,24,22,27,27.252,0.3795,-0.2061,-0.0735,0.8988,0,0,0,-0.007,0.005,-0.014,0
2018,4,24,22,27,27.275,0.3795,-0.2061,-0.0735,0.8988,0,0,0,-0.004,0.007,-0.014,0
2018,4,24,22,27,27.279,0.3795,-0.2061,-0.0735,0.8988,0,0,0,-0.002,0.006,-0.011,0
2018,4,24,22,27,27.294,0.3795,-0.2061,-0.0735,0.8988,0,0,0,-0.002,0.008,-0.013,0
2018,4,24,22,27,27.312,0.3795,-0.2061,-0.0735,0.8988,0,0,0,-0.005,0.001,-0.014,0
2018,4,24,22,27,27.336,0.3795,-0.2061,-0.0735,0.8988,0,0,0,-0.003,0,-0.013,0
2018,4,24,22,27,27.354,0.3795,-0.2061,-0.0735,0.8988,0,0,0,-0.005,0.001,-0.014,0
2018,4,24,22,27,27.377,0.3795,-0.2061,-0.0736,0.8988,0,0,0,-0.004,0.003,-0.015,0
2018,4,24,22,27,27.396,0.3795,-0.2061,-0.0736,0.8988,0,0,0,-0.004,0.006,-0.015,0
2018,4,24,22,27,27.432,0.3795,-0.2061,-0.0735,0.8988,0,0,0,-0.003,0.006,-0.013,1023
2018,4,24,22,27,27.455,0.3795,-0.2061,-0.0735,0.8988,0,0,0,-0.006,0.01,-0.014,1023
2018,4,24,22,27,27.46,0.3795,-0.2061,-0.0735,0.8989,0,0,0,-0.005,0.005,-0.012,1023
2018,4,24,22,27,27.476,0.3795,-0.2061,-0.0735,0.8989,0,0,0,-0.004,0.005,-0.011,1023
2018,4,24,22,27,27.499,0.3795,-0.2061,-0.0735,0.8989,0.5,0,0.2,-0.004,0.006,-0.015,1023
2018,4,24,22,27,27.52,0.3795,-0.2061,-0.0735,0.8989,0,0,0,-0.005,0.005,-0.014,1023
2018,4,24,22,27,27.534,0.3795,-0.2061,-0.0734,0.8989,0,0,0,-0.005,0.008,-0.011,1023
2018,4,24,22,27,27.572,0.3795,-0.2061,-0.0734,0.8989,0,0,0,-0.004,0.007,-0.013,1023
2018,4,24,22,27,27.594,0.3795,-0.2061,-0.0734,0.8989,0,0,0,-0.007,0.007,-0.009,1023
2018,4,24,22,27,27.597,0.3795,-0.206,-0.0734,0.8989,0,0,0,-0.004,0.004,-0.012,1023
2018,4,24,22,27,27.616,0.3795,-0.2061,-0.0734,0.8989,0,0,0,-0.006,0.004,-0.016,0
2018,4,24,22,27,27.638,0.3795,-0.2061,-0.0734,0.8989,0,0,0,-0.006,0.004,-0.013,0
2018,4,24,22,27,27.657,0.3795,-0.2061,-0.0734,0.8989,0,0,0,-0.002,0,-0.013,0
2018,4,24,22,27,27.678,0.3795,-0.2061,-0.0734,0.8989,0,0,0,-0.006,0.005,-0.015,0
2018,4,24,22,27,27.714,0.3795,-0.2061,-0.0735,0.8989,-0.6,0,0,-0.004,0.007,-0.014,0
2018,4,24,22,27,27.738,0.3795,-0.2061,-0.0735,0.8989,0,0,0,-0.004,0.005,-0.011,0
2018,4,24,22,27,27.742,0.3795,-0.2061,-0.0735,0.8989,0,0,0,-0.004,0.003,-0.013,0
2018,4,24,22,27,27.756,0.3795,-0.2061,-0.0735,0.8989,0,0,0,-0.006,0.001,-0.014,0
2018,4,24,22,27,27.774,0.3795,-0.2061,-0.0735,0.8989,0.5,0.1,0,-0.006,0.003,-0.012,0
2018,4,24,22,27,27.799,0.3794,-0.206,-0.0734,0.8989,0,0,0,-0.004,0.004,-0.015,0
2018,4,24,22,27,27.816,0.3794,-0.206,-0.0734,0.8989,0,0,0,-0.003,0.004,-0.016,0
2018,4,24,22,27,27.84,0.3794,-0.206,-0.0734,0.8989,0,0,0,-0.001,0.004,-0.011,0
2018,4,24,22,27,27.857,0.3794,-0.206,-0.0734,0.8989,0,0,0,-0.004,0.004,-0.01,0
2018,4,24,22,27,27.879,0.3794,-0.206,-0.0734,0.8989,0,0,0,-0.005,0.006,-0.016,0
2018,4,24,22,27,27.915,0.3794,-0.206,-0.0734,0.8989,0.5,0.1,0,-0.002,0.004,-0.014,0
2018,4,24,22,27,27.938,0.3796,-0.2059,-0.0733,0.8989,0.6,0.1,0,-0.008,0.005,-0.017,0
2018,4,24,22,27,27.943,0.3796,-0.2059,-0.0732,0.8989,0,0,0,-0.005,0.005,-0.011,0
2018,4,24,22,27,27.96,0.3796,-0.2059,-0.0732,0.8989,0,0,0,-0.003,0.007,-0.012,0
2018,4,24,22,27,27.979,0.3796,-0.2059,-0.0731,0.8989,0,0,0,-0.004,0.004,-0.015,0
2018,4,24,22,27,27.998,0.3796,-0.2059,-0.0732,0.8989,0,0,0,-0.007,0.004,-0.013,0
2018,4,24,22,27,28.015,0.3796,-0.2059,-0.0732,0.8989,0,0,0,-0.003,0.002,-0.015,0
2018,4,24,22,27,28.038,0.3796,-0.2059,-0.0732,0.8989,0,0,0,-0.006,0.001,-0.012,0
2018,4,24,22,27,28.074,0.3796,-0.2059,-0.0731,0.8989,0.5,0,0.2,-0.003,0.006,-0.011,0
2018,4,24,22,27,28.098,0.3797,-0.2059,-0.0731,0.8989,0.5,0.1,0,-0.006,0.004,-0.02,0
2018,4,24,22,27,28.102,0.3796,-0.2058,-0.0731,0.8989,0,0,0,-0.008,0.009,-0.012,0
2018,4,24,22,27,28.121,0.3796,-0.2058,-0.0731,0.8989,0,0,0,-0.005,0.006,-0.012,0
2018,4,24,22,27,28.158,0.3796,-0.2058,-0.0731,0.8989,-0.5,0.2,-0.1,-0.005,0.005,-0.012,0
2018,4,24,22,27,28.182,0.3797,-0.2058,-0.0732,0.8989,-0.6,0.1,0,-0.002,0.005,-0.014,0
2018,4,24,22,27,28.187,0.3798,-0.2058,-0.0733,0.8988,-0.5,0.1,0,-0.003,0.005,-0.009,0
2018,4,24,22,27,28.199,0.3798,-0.2058,-0.0734,0.8988,0,0,0,-0.002,0.002,-0.015,0
2018,4,24,22,27,28.218,0.3798,-0.2059,-0.0734,0.8988,0,0,0,-0.006,0,-0.016,0
2018,4,24,22,27,28.241,0.3798,-0.2059,-0.0734,0.8988,0,0,0,-0.002,0.004,-0.012,0
2018,4,24,22,27,28.259,0.3798,-0.2059,-0.0734,0.8988,0,0,0,-0.006,0.006,-0.015,0
2018,4,24,22,27,28.283,0.3798,-0.2059,-0.0734,0.8988,0,0,0,-0.004,0.004,-0.014,1023
2018,4,24,22,27,28.301,0.3798,-0.2059,-0.0734,0.8988,0,0,0,-0.004,0.006,-0.013,1023
2018,4,24,22,27,28.32,0.3798,-0.2059,-0.0734,0.8988,0,0,0,-0.004,0.001,-0.015,1023
2018,4,24,22,27,28.343,0.3798,-0.2059,-0.0734,0.8988,0,0,0,-0.007,0.003,-0.02,1023
2018,4,24,22,27,28.363,0.3798,-0.2059,-0.0734,0.8988,0,0,0,-0.004,0.006,-0.013,1023
2018,4,24,22,27,28.381,0.3798,-0.2059,-0.0734,0.8988,0,0,0,-0.003,0.007,-0.011,1023
2018,4,24,22,27,28.405,0.3798,-0.2059,-0.0734,0.8988,0,0,0,-0.005,0.005,-0.011,1023
2018,4,24,22,27,28.422,0.3798,-0.2059,-0.0733,0.8988,0,0,0,-0.002,0.007,-0.013,1023
2018,4,24,22,27,28.443,0.3797,-0.2059,-0.0733,0.8988,0,0,0,-0.004,0.006,-0.013,1023
2018,4,24,22,27,28.465,0.3797,-0.2059,-0.0733,0.8988,0,0,0,-0.004,0.003,-0.019,1023
2018,4,24,22,27,28.481,0.3797,-0.2059,-0.0733,0.8988,0,0,0,-0.003,0.002,-0.012,0
2018,4,24,22,27,28.502,0.3797,-0.2059,-0.0733,0.8988,0,0,0,-0.004,0.003,-0.016,0
2018,4,24,22,27,28.539,0.3797,-0.2059,-0.0733,0.8988,-0.5,0,0,-0.003,0.006,-0.017,0
2018,4,24,22,27,28.562,0.3798,-0.2059,-0.0734,0.8988,-0.5,-0.1,0,-0.004,0.003,-0.013,0
2018,4,24,22,27,28.567,0.3798,-0.206,-0.0734,0.8988,0,0,0,-0.006,0.004,-0.019,0
2018,4,24,22,27,28.582,0.3798,-0.206,-0.0734,0.8988,0,0,0,-0.007,0.005,-0.013,0
2018,4,24,22,27,28.604,0.3798,-0.206,-0.0735,0.8988,0,0,0,-0.006,0,-0.014,0
2018,4,24,22,27,28.622,0.3798,-0.206,-0.0735,0.8988,0.5,0,0,-0.006,0.001,-0.015,0
2018,4,24,22,27,28.643,0.3798,-0.206,-0.0735,0.8988,0,0,0,-0.006,0.007,-0.013,0
2018,4,24,22,27,28.679,0.3798,-0.206,-0.0734,0.8988,0,0,0,-0.001,0.003,-0.012,0
2018,4,24,22,27,28.679,0.3798,-0.2059,-0.0735,0.8988,0,0,0,-0.008,0.004,-0.012,0
2018,4,24,22,27,28.702,0.3798,-0.206,-0.0735,0.8988,0,0,0,-0.003,0.001,-0.013,0
2018,4,24,22,27,28.72,0.3798,-0.206,-0.0735,0.8988,0,0,0,-0.002,0.004,-0.017,0
2018,4,24,22,27,28.743,0.3798,-0.206,-0.0734,0.8988,0.7,0.1,0,-0.005,0.003,-0.013,0
2018,4,24,22,27,28.762,0.3798,-0.2059,-0.0733,0.8988,0.5,0.2,0,-0.005,0.005,-0.014,0
2018,4,24,22,27,28.785,0.3798,-0.2058,-0.0732,0.8988,0,0,0,-0.005,0.006,-0.012,0
2018,4,24,22,27,28.803,0.3798,-0.2058,-0.0732,0.8988,0,0,0,-0.005,0.006,-0.012,0
2018,4,24,22,27,28.825,0.3799,-0.2058,-0.0733,0.8988,-0.7,-0.2,0.2,-0.005,0.005,-0.012,0
2018,4,24,22,27,28.86,0.3799,-0.2059,-0.0734,0.8987,0,0,0,-0.004,0.003,-0.017,0
2018,4,24,22,27,28.881,0.3799,-0.2059,-0.0734,0.8987,0,0,0,-0.003,0.002,-0.018,0
2018,4,24,22,27,28.885,0.3799,-0.2059,-0.0734,0.8987,0,0,0,-0.004,0.001,-0.015,0
2018,4,24,22,27,28.903,0.38,-0.2059,-0.0733,0.8987,0.7,0,0,-0.005,0.001,-0.013,0
2018,4,24,22,27,28.921,0.3801,-0.2058,-0.0732,0.8987,0.7,0,0.2,-0.007,0.005,-0.011,0
2018,4,24,22,27,28.944,0.3801,-0.2058,-0.0732,0.8987,0,0,0,-0.005,0.004,-0.005,0
2018,4,24,22,27,28.963,0.3802,-0.2058,-0.0732,0.8987,-0.5,0.2,-0.2,-0.005,0.008,-0.016,0
2018,4,24,22,27,28.986,0.3802,-0.2058,-0.0733,0.8986,-0.9,0.3,-0.2,-0.004,0.006,-0.015,0
2018,4,24,22,27,29.003,0.3802,-0.2058,-0.0735,0.8986,-0.7,0.1,-0.2,-0.003,0.001,-0.017,0
2018,4,24,22,27,29.026,0.3802,-0.2059,-0.0735,0.8986,0,0,0,-0.002,0.005,-0.013,0
2018,4,24,22,27,29.044,0.3802,-0.2059,-0.0735,0.8986,0,0,0,-0.005,0.004,-0.013,0
2018,4,24,22,27,29.066,0.3802,-0.2059,-0.0735,0.8986,0,0,0,-0.005,0.003,-0.016,0
2018,4,24,22,27,29.104,0.3802,-0.2059,-0.0735,0.8986,0,0,0,-0.007,0.003,-0.01,0
2018,4,24,22,27,29.104,0.3802,-0.2059,-0.0735,0.8986,0,0,0,-0.004,0.002,-0.013,0
2018,4,24,22,27,29.126,0.3802,-0.2059,-0.0735,0.8986,0,0,0,-0.003,0.002,-0.016,1023
2018,4,24,22,27,29.146,0.3802,-0.2059,-0.0735,0.8986,0,0,0,-0.003,0.005,-0.015,1023
2018,4,24,22,27,29.163,0.3803,-0.2059,-0.0734,0.8986,0.9,0.1,0.3,-0.004,0.001,-0.016,1023
2018,4,24,22,27,29.187,0.3804,-0.2058,-0.0732,0.8986,1.1,0,0.2,-0.004,0.003,-0.017,1023
2018,4,24,22,27,29.204,0.3805,-0.2057,-0.0731,0.8986,1,0.1,0,-0.004,0.004,-0.015,1023
2018,4,24,22,27,29.225,0.3804,-0.2056,-0.0729,0.8986,0.5,0.1,0,-0.003,0.004,-0.01,1023
2018,4,24,22,27,29.264,0.3804,-0.2056,-0.0729,0.8986,0,0,0,-0.004,0.007,-0.016,1023
2018,4,24,22,27,29.287,0.3804,-0.2056,-0.0729,0.8986,0,0,0,-0.004,0.005,-0.009,1023
2018,4,24,22,27,29.291,0.3804,-0.2056,-0.0729,0.8986,0,0,0,-0.004,0.004,-0.018,1023
2018,4,24,22,27,29.309,0.3804,-0.2056,-0.0729,0.8986,0,0,0,-0.004,0.004,-0.018,1023
2018,4,24,22,27,29.329,0.3804,-0.2056,-0.0729,0.8986,0.5,0.1,0,-0.005,0.003,-0.016,0
2018,4,24,22,27,29.347,0.3804,-0.2056,-0.0728,0.8986,0,0,0,-0.006,0.003,-0.014,0
2018,4,24,22,27,29.37,0.3804,-0.2056,-0.0728,0.8986,0,0,0,-0.004,0.005,-0.012,0
2018,4,24,22,27,29.387,0.3804,-0.2056,-0.0728,0.8986,0,0,0,-0.008,0.004,-0.013,0
2018,4,24,22,27,29.425,0.3804,-0.2056,-0.0728,0.8986,0,0,0,-0.001,0.001,-0.014,0
2018,4,24,22,27,29.425,0.3804,-0.2056,-0.0729,0.8986,0,0,0,-0.003,0.003,-0.017,0
2018,4,24,22,27,29.447,0.3804,-0.2056,-0.0729,0.8986,0,0,0,-0.004,0.002,-0.018,0
2018,4,24,22,27,29.467,0.3804,-0.2056,-0.0729,0.8986,0,0,0,-0.004,0.004,-0.011,0
2018,4,24,22,27,29.489,0.3804,-0.2056,-0.0729,0.8986,0,0,0,-0.004,0.004,-0.016,0
2018,4,24,22,27,29.525,0.3804,-0.2056,-0.0729,0.8986,0,0,0,-0.002,0.003,-0.015,0
2018,4,24,22,27,29.548,0.3804,-0.2056,-0.0729,0.8986,0,0,0,-0.006,0.004,-0.018,0
2018,4,24,22,27,29.553,0.3804,-0.2056,-0.0729,0.8986,0,0,0,-0.005,0.005,-0.014,0
2018,4,24,22,27,29.569,0.3804,-0.2057,-0.0729,0.8986,0,0,0,-0.003,0.005,-0.012,0
2018,4,24,22,27,29.593,0.3804,-0.2057,-0.0729,0.8986,0,0,0,-0.003,0.002,-0.017,0
2018,4,24,22,27,29.608,0.3804,-0.2057,-0.0729,0.8986,0.5,0.1,0,-0.005,0.007,-0.016,0
2018,4,24,22,27,29.645,0.3804,-0.2056,-0.0728,0.8986,0,0,0,-0.003,0.004,-0.015,0
2018,4,24,22,27,29.668,0.3805,-0.2056,-0.0728,0.8986,0,0,0,-0.003,0.006,-0.014,0
2018,4,24,22,27,29.672,0.3805,-0.2056,-0.0728,0.8986,0,0,0,-0.003,0.005,-0.012,0
2018,4,24,22,27,29.69,0.3805,-0.2056,-0.0727,0.8986,0,0,0,-0.004,0.007,-0.013,0
2018,4,24,22,27,29.708,0.3805,-0.2056,-0.0727,0.8986,0,0,0,-0.003,0.003,-0.016,0
2018,4,24,22,27,29.731,0.3805,-0.2056,-0.0727,0.8986,0,0,0,-0.002,0.007,-0.015,0
2018,4,24,22,27,29.768,0.3805,-0.2056,-0.0727,0.8986,0,0,0,-0.004,0.002,-0.011,0
2018,4,24,22,27,29.789,0.3805,-0.2056,-0.0727,0.8986,0,0,0,-0.005,0.001,-0.012,0
2018,4,24,22,27,29.794,0.3805,-0.2056,-0.0727,0.8986,0,0,0,-0.006,0.003,-0.013,0
2018,4,24,22,27,29.808,0.3805,-0.2056,-0.0727,0.8986,0,0,0,-0.004,0.001,-0.017,0
2018,4,24,22,27,29.849,0.3805,-0.2056,-0.0728,0.8986,0,0,0,-0.006,0.005,-0.016,0
2018,4,24,22,27,29.852,0.3805,-0.2056,-0.0728,0.8986,0,0,0,-0.003,0.004,-0.012,0
2018,4,24,22,27,29.886,0.3805,-0.2057,-0.0727,0.8986,0,0,0,-0.007,0.008,-0.015,0
2018,4,24,22,27,29.907,0.3804,-0.2057,-0.0727,0.8986,-0.6,0.1,0,-0.004,0.005,-0.014,0
2018,4,24,22,27,29.91,0.3801,-0.2057,-0.0728,0.8987,-0.6,0.1,0,-0.005,0.003,-0.011,0
2018,4,24,22,27,29.947,0.3799,-0.2058,-0.0729,0.8988,-0.6,0.1,-0.2,-0.005,0.002,-0.011,0
2018,4,24,22,27,29.968,0.3799,-0.2058,-0.073,0.8988,0,0,0,-0.002,0,-0.019,0
2018,4,24,22,27,29.972,0.3799,-0.2058,-0.073,0.8988,0,0,0,-0.003,0.004,-0.01,1023
2018,4,24,22,27,29.991,0.3799,-0.2058,-0.073,0.8988,0,0,0,-0.004,0.005,-0.016,1023
2018,4,24,22,27,30.014,0.3799,-0.2058,-0.073,0.8988,0,0,0,-0.006,0.005,-0.014,1023
2018,4,24,22,27,30.032,0.3799,-0.2058,-0.073,0.8988,0,0,0,-0.004,0.007,-0.014,1023
2018,4,24,22,27,30.055,0.3799,-0.2058,-0.073,0.8988,0,0,0,-0.004,0.004,-0.009,1023
2018,4,24,22,27,30.071,0.3799,-0.2058,-0.073,0.8988,0,0,0,-0.003,0.005,-0.015,1023
2018,4,24,22,27,30.088,0.3799,-0.2058,-0.073,0.8988,0,0,0,-0.005,0.001,-0.013,1023
2018,4,24,22,27,30.111,0.3799,-0.2058,-0.073,0.8988,0,0,0,-0.005,0.003,-0.016,1023
2018,4,24,22,27,30.148,0.3799,-0.2058,-0.073,0.8988,0,0,0,-0.006,0.005,-0.016,1023
2018,4,24,22,27,30.171,0.3799,-0.2058,-0.073,0.8988,0,0,0,-0.004,0.005,-0.014,1023
2018,4,24,22,27,30.175,0.3799,-0.2058,-0.073,0.8988,0,0,0,-0.005,0.005,-0.011,0
2018,4,24,22,27,30.193,0.3799,-0.2058,-0.073,0.8988,0,0,0,-0.005,0.004,-0.016,0
2018,4,24,22,27,30.212,0.3799,-0.2058,-0.073,0.8988,0,0,0,-0.006,0.004,-0.019,0
2018,4,24,22,27,30.235,0.3799,-0.2058,-0.073,0.8988,0,0,0,-0.005,0.002,-0.016,0
2018,4,24,22,27,30.253,0.3799,-0.2058,-0.073,0.8988,0,0,0,-0.005,0.004,-0.016,0
2018,4,24,22,27,30.276,0.3799,-0.2058,-0.073,0.8988,0,0,0,-0.006,0.004,-0.014,0
2018,4,24,22,27,30.293,0.3799,-0.2058,-0.073,0.8988,0,0,0,-0.005,0.005,-0.01,0
2018,4,24,22,27,30.317,0.3799,-0.2059,-0.073,0.8988,0,0,0,-0.005,0.002,-0.01,0
2018,4,24,22,27,30.334,0.3799,-0.2059,-0.073,0.8988,0,0,0,-0.008,0.004,-0.016,0
2018,4,24,22,27,30.353,0.3799,-0.2058,-0.0731,0.8988,0,0,0,-0.004,0.003,-0.015,0
2018,4,24,22,27,30.391,0.3799,-0.2059,-0.0731,0.8988,0,0,0,-0.003,0.003,-0.019,0
2018,4,24,22,27,30.414,0.3799,-0.2059,-0.0731,0.8988,0,0,0,-0.002,0.004,-0.017,0
2018,4,24,22,27,30.416,0.3799,-0.2059,-0.0731,0.8988,0,0,0,-0.006,0.008,-0.02,0
2018,4,24,22,27,30.437,0.3799,-0.2059,-0.0731,0.8988,0,0,0,-0.004,0.003,-0.015,0
2018,4,24,22,27,30.472,0.3799,-0.2059,-0.0731,0.8988,0,0,0,-0.003,0.002,-0.011,0
2018,4,24,22,27,30.472,0.3799,-0.2059,-0.0731,0.8988,0,0,0,-0.005,0.005,-0.015,0
2018,4,24,22,27,30.494,0.3799,-0.2059,-0.0731,0.8988,0,0,0,-0.003,0.004,-0.01,0
2018,4,24,22,27,30.512,0.3799,-0.2059,-0.0731,0.8988,0,0,0,-0.002,0.004,-0.013,0
2018,4,24,22,27,30.535,0.3799,-0.2059,-0.073,0.8988,0,0,0,-0.003,0.004,-0.013,0
2018,4,24,22,27,30.555,0.3799,-0.2059,-0.073,0.8988,0,0,0,-0.002,0.004,-0.017,0
2018,4,24,22,27,30.572,0.3799,-0.2059,-0.073,0.8988,0,0,0,-0.008,0.007,-0.016,0
2018,4,24,22,27,30.61,0.3799,-0.2059,-0.073,0.8988,0,0,0,-0.004,0.002,-0.016,0
2018,4,24,22,27,30.633,0.3799,-0.206,-0.073,0.8988,0,0,0,-0.005,0.005,-0.015,0
2018,4,24,22,27,30.638,0.3799,-0.206,-0.073,0.8988,0,0,0,-0.007,0.003,-0.014,0
2018,4,24,22,27,30.672,0.3799,-0.2059,-0.073,0.8988,0.5,0.1,0.1,-0.006,0.003,-0.012,0
2018,4,24,22,27,30.693,0.3799,-0.2059,-0.073,0.8988,0,0,0,-0.007,0.004,-0.014,0
2018,4,24,22,27,30.697,0.3799,-0.2059,-0.073,0.8988,0,0,0,-0.003,0.006,-0.008,0
2018,4,24,22,27,30.734,0.3799,-0.2059,-0.073,0.8988,0,0,0,-0.006,0.007,-0.013,0
2018,4,24,22,27,30.734,0.3799,-0.2059,-0.073,0.8988,-0.7,0,0,-0.004,0.005,-0.011,0
2018,4,24,22,27,30.758,0.3798,-0.2059,-0.0731,0.8988,-0.5,0.1,-0.1,-0.003,0.004,-0.01,0
2018,4,24,22,27,30.775,0.3798,-0.206,-0.0731,0.8988,0,0,0,-0.003,0.002,-0.017,0
2018,4,24,22,27,30.793,0.3798,-0.206,-0.0731,0.8988,0,0,0,-0.005,0,-0.016,0
2018,4,24,22,27,30.816,0.3798,-0.206,-0.0731,0.8988,0,0,0,-0.006,0.005,-0.014,0
2018,4,24,22,27,30.834,0.3798,-0.206,-0.0732,0.8988,0,0,0,-0.009,0.006,-0.011,1023
2018,4,24,22,27,30.857,0.3797,-0.206,-0.0731,0.8988,0,0,0,-0.003,0.006,-0.011,1023
2018,4,24,22,27,30.876,0.3797,-0.206,-0.0731,0.8988,0,0,0,-0.005,0.008,-0.012,1023
2018,4,24,22,27,30.9,0.3797,-0.206,-0.0731,0.8988,0,0,0,-0.004,0.003,-0.012,1023
2018,4,24,22,27,30.918,0.3797,-0.206,-0.0731,0.8988,0,0,0,-0.003,0.003,-0.012,1023
2018,4,24,22,27,30.939,0.3798,-0.206,-0.0731,0.8988,0.5,0,0.1,-0.003,0.004,-0.015,1023
2018,4,24,22,27,30.956,0.3798,-0.206,-0.073,0.8988,0,0,0,-0.003,0.005,-0.018,1023
2018,4,24,22,27,30.979,0.3798,-0.2059,-0.073,0.8988,0,0,0,-0.005,0.009,-0.01,1023
2018,4,24,22,27,30.998,0.3798,-0.2059,-0.073,0.8988,0,0,0,-0.003,0.007,-0.01,1023
2018,4,24,22,27,31.015,0.3798,-0.2059,-0.0729,0.8988,0,0,0,-0.002,0.007,-0.011,1023
2018,4,24,22,27,31.037,0.3798,-0.2059,-0.0729,0.8988,0,0,0,-0.001,0.001,-0.016,0
2018,4,24,22,27,31.074,0.3798,-0.2059,-0.0729,0.8988,0,0,0,-0.002,0.002,-0.014,0
2018,4,24,22,27,31.097,0.3798,-0.2059,-0.0729,0.8988,0,0,0,-0.003,0.005,-0.013,0
2018,4,24,22,27,31.101,0.3798,-0.2059,-0.0729,0.8988,0,0,0,-0.005,0.002,-0.016,0
2018,4,24,22,27,31.117,0.3798,-0.2059,-0.0729,0.8988,0,0,0,-0.007,0.003,-0.016,0
2018,4,24,22,27,31.14,0.3798,-0.2059,-0.0729,0.8988,0,0,0,-0.007,0.005,-0.013,0
2018,4,24,22,27,31.175,0.3798,-0.2059,-0.0729,0.8988,0,0,0,-0.007,0.005,-0.015,0
2018,4,24,22,27,31.199,0.3798,-0.2059,-0.0729,0.8988,0,0,0,-0.004,0.007,-0.012,0
2018,4,24,22,27,31.204,0.3798,-0.2059,-0.0729,0.8988,0,0,0,-0.003,0.004,-0.016,0
2018,4,24,22,27,31.22,0.3798,-0.2059,-0.0729,0.8988,0,0,0,-0.004,0.001,-0.015,0
2018,4,24,22,27,31.237,0.3798,-0.2059,-0.0729,0.8988,0,0,0,-0.004,0.004,-0.016,0
2018,4,24,22,27,31.26,0.3797,-0.2059,-0.0729,0.8988,0,0,0,-0.003,0.005,-0.013,0
2018,4,24,22,27,31.276,0.3797,-0.2059,-0.0729,0.8989,0,0,0,-0.003,0.005,-0.008,0
2018,4,24,22,27,31.299,0.3797,-0.2059,-0.0729,0.8989,0,0,0,-0.005,0.005,-0.014,0
2018,4,24,22,27,31.319,0.3797,-0.2059,-0.0728,0.8989,0,0,0,-0.003,0.007,-0.014,0
2018,4,24,22,27,31.342,0.3797,-0.2059,-0.0728,0.8988,0,0,0,-0.005,0.003,-0.02,0
2018,4,24,22,27,31.359,0.3797,-0.2059,-0.0728,0.8989,0.6,0.1,0.1,-0.006,0.003,-0.015,0
2018,4,24,22,27,31.382,0.3798,-0.2059,-0.0727,0.8989,0,0,0,-0.003,0.005,-0.012,0
2018,4,24,22,27,31.4,0.3797,-0.2059,-0.0727,0.8989,0,0,0,-0.002,0.003,-0.013,0
2018,4,24,22,27,31.422,0.3797,-0.2059,-0.0727,0.8989,0,0,0,-0.003,0.007,-0.017,0
2018,4,24,22,27,31.439,0.3797,-0.2059,-0.0727,0.8989,0,0,0,-0.003,0.005,-0.014,0
2018,4,24,22,27,31.475,0.3797,-0.2059,-0.0727,0.8989,0,0,0,-0.008,0.003,-0.011,0
2018,4,24,22,27,31.498,0.3797,-0.2059,-0.0727,0.8989,0,0,0,-0.004,0.004,-0.018,0
2018,4,24,22,27,31.503,0.3797,-0.2059,-0.0727,0.8989,0,0,0,-0.007,0.004,-0.016,0
2018,4,24,22,27,31.52,0.3797,-0.2059,-0.0727,0.8989,0,0,0,-0.007,0.007,-0.01,0
2018,4,24,22,27,31.558,0.3797,-0.2059,-0.0727,0.8989,0,0,0,-0.004,0.005,-0.01,0
2018,4,24,22,27,31.581,0.3797,-0.2059,-0.0727,0.8989,-0.5,0,0,-0.008,0.006,-0.01,0
2018,4,24,22,27,31.586,0.3798,-0.2059,-0.0727,0.8989,-0.5,0,0.2,-0.004,0.004,-0.013,0
2018,4,24,22,27,31.603,0.3797,-0.2059,-0.0728,0.8989,0,0,0,-0.005,0.005,-0.013,0
2018,4,24,22,27,31.64,0.3797,-0.2059,-0.0728,0.8989,0,0,0,-0.005,0.002,-0.013,0
2018,4,24,22,27,31.64,0.3797,-0.2059,-0.0728,0.8989,0,0,0,-0.003,0,-0.016,0
2018,4,24,22,27,31.663,0.3797,-0.2059,-0.0729,0.8989,0,0,0,-0.005,0.005,-0.013,1023
2018,4,24,22,27,31.679,0.3797,-0.2059,-0.0729,0.8989,0,0,0,-0.002,0.004,-0.012,1023
2018,4,24,22,27,31.703,0.3797,-0.2059,-0.0729,0.8989,0,0,0,-0.003,0,-0.017,1023
2018,4,24,22,27,31.72,0.3797,-0.2059,-0.0729,0.8989,0,0,0,-0.004,0.005,-0.015,1023
2018,4,24,22,27,31.741,0.3797,-0.206,-0.0729,0.8989,0,0,0,-0.003,0.005,-0.02,1023
2018,4,24,22,27,31.76,0.3797,-0.206,-0.0729,0.8989,0,0,0,-0.003,0.004,-0.015,1023
2018,4,24,22,27,31.784,0.3796,-0.206,-0.0729,0.8989,0.5,0,0,-0.01,0.002,-0.011,1023
2018,4,24,22,27,31.802,0.3796,-0.206,-0.0729,0.8989,0,0,0,-0.006,0.001,-0.015,1023
2018,4,24,22,27,31.823,0.3796,-0.206,-0.0729,0.8989,0,0,0,-0.005,0.004,-0.013,1023
2018,4,24,22,27,31.859,0.3796,-0.206,-0.0729,0.8989,0,0,0,-0.001,0.005,-0.02,0
2018,4,24,22,27,31.879,0.3796,-0.206,-0.0729,0.8989,0,0,0,-0.004,0.007,-0.015,0
2018,4,24,22,27,31.885,0.3796,-0.206,-0.0729,0.8989,0,0,0,-0.002,0.007,-0.015,0
2018,4,24,22,27,31.921,0.3796,-0.206,-0.0728,0.8989,0,0,0,-0.004,0.002,-0.014,0
2018,4,24,22,27,31.921,0.3796,-0.206,-0.0729,0.8989,0,0,0,-0.005,0.001,-0.015,0
2018,4,24,22,27,31.944,0.3796,-0.206,-0.0729,0.8989,0,0,0,-0.004,0,-0.014,0
2018,4,24,22,27,31.961,0.3796,-0.206,-0.0729,0.8989,0,0,0,-0.003,0.004,-0.012,0
2018,4,24,22,27,31.982,0.3797,-0.206,-0.073,0.8988,-0.9,-0.1,0.2,-0.003,0.005,-0.014,0
2018,4,24,22,27,32.019,0.3797,-0.2061,-0.0731,0.8988,-0.8,0,0,-0.005,0.006,-0.016,0
2018,4,24,22,27,32.043,0.3796,-0.2061,-0.0732,0.8988,0,0,0,-0.005,0.002,-0.014,0
2018,4,24,22,27,32.046,0.3796,-0.2061,-0.0732,0.8988,0,0,0,-0.007,0.002,-0.013,0
2018,4,24,22,27,32.066,0.3797,-0.2061,-0.0732,0.8988,0,0,0,-0.005,0.002,-0.018,0
2018,4,24,22,27,32.101,0.3797,-0.2061,-0.0733,0.8988,0,0,0,-0.004,0.002,-0.016,0
2018,4,24,22,27,32.122,0.3797,-0.2061,-0.0733,0.8988,0,0,0,-0.003,0.003,-0.01,0
2018,4,24,22,27,32.127,0.3797,-0.2061,-0.0733,0.8988,0,0,0,-0.001,0.003,-0.014,0
2018,4,24,22,27,32.144,0.3797,-0.2062,-0.0733,0.8988,0,0,0,-0.002,0.003,-0.017,0
2018,4,24,22,27,32.162,0.3797,-0.2062,-0.0733,0.8988,0,0,0,-0.006,0.006,-0.015,0
2018,4,24,22,27,32.185,0.3797,-0.2062,-0.0733,0.8988,0,0,0,-0.006,0,-0.013,0
2018,4,24,22,27,32.203,0.3797,-0.2062,-0.0733,0.8988,0,0,0,-0.005,0.006,-0.018,0
2018,4,24,22,27,32.224,0.3797,-0.2062,-0.0733,0.8988,0.6,0.2,0.2,-0.006,0.005,-0.018,0
2018,4,24,22,27,32.263,0.3797,-0.2062,-0.0733,0.8988,0,0,0,-0.003,0.005,-0.014,0
2018,4,24,22,27,32.284,0.3797,-0.2062,-0.0733,0.8988,0,0,0,-0.005,0.003,-0.012,0
2018,4,24,22,27,32.289,0.3797,-0.2062,-0.0733,0.8988,0,0,0,-0.005,0.004,-0.014,0
2018,4,24,22,27,32.306,0.3797,-0.2062,-0.0733,0.8988,0,0,0,-0.005,0.003,-0.013,0
2018,4,24,22,27,32.329,0.3797,-0.2062,-0.0733,0.8988,0,0,0,-0.003,0.003,-0.013,0
2018,4,24,22,27,32.345,0.3797,-0.2062,-0.0733,0.8988,0,0,0,-0.007,0.004,-0.009,0
2018,4,24,22,27,32.363,0.3796,-0.2062,-0.0733,0.8988,0,0,0,-0.007,0.006,-0.015,0
2018,4,24,22,27,32.384,0.3797,-0.2062,-0.0733,0.8988,0,0,0,-0.006,0.005,-0.011,0
2018,4,24,22,27,32.418,0.3797,-0.2062,-0.0733,0.8988,0,0,0,-0.004,0.007,-0.016,0
2018,4,24,22,27,32.439,0.3797,-0.2061,-0.0732,0.8988,0,0,0,-0.003,0.006,-0.012,0
2018,4,24,22,27,32.444,0.3797,-0.2062,-0.0733,0.8988,-0.6,0.2,0,-0.008,0.004,-0.015,0
2018,4,24,22,27,32.477,0.3797,-0.2062,-0.0734,0.8988,0,0,0,-0.006,0.003,-0.015,0
2018,4,24,22,27,32.501,0.3797,-0.2062,-0.0734,0.8988,0,0,0,-0.003,0.005,-0.015,0
2018,4,24,22,27,32.507,0.3797,-0.2062,-0.0735,0.8988,0,0,0,-0.002,0.005,-0.014,0
2018,4,24,22,27,32.528,0.3797,-0.2062,-0.0735,0.8988,0,0,0,-0.005,0.003,-0.017,1023
2018,4,24,22,27,32.55,0.3797,-0.2062,-0.0735,0.8988,0,0,0,-0.002,0.005,-0.012,1023
2018,4,24,22,27,32.587,0.3797,-0.2062,-0.0735,0.8988,0,0,0,-0.003,0.003,-0.02,1023
2018,4,24,22,27,32.587,0.3797,-0.2062,-0.0735,0.8988,0,0,0,-0.005,0.007,-0.013,1023
2018,4,24,22,27,32.609,0.3797,-0.2062,-0.0735,0.8988,0,0,0,-0.004,0.006,-0.021,1023
2018,4,24,22,27,32.629,0.3797,-0.2063,-0.0735,0.8988,0,0,0,-0.005,0.004,-0.012,1023
2018,4,24,22,27,32.647,0.3797,-0.2063,-0.0735,0.8987,0.5,0,0.3,-0.004,0.005,-0.021,1023
2018,4,24,22,27,32.668,0.3798,-0.2062,-0.0734,0.8987,1,0,0.2,-0.007,0.003,-0.013,1023
2018,4,24,22,27,32.704,0.3797,-0.2062,-0.0732,0.8988,0.8,0,0.2,-0.005,0.002,-0.016,1023
2018,4,24,22,27,32.728,0.3797,-0.2061,-0.0731,0.8988,0.7,0.1,0,-0.003,0.004,-0.015,1023
2018,4,24,22,27,32.731,0.3798,-0.2061,-0.073,0.8988,0.5,0.1,0.1,-0.007,0.007,-0.01,1023
2018,4,24,22,27,32.747,0.3798,-0.206,-0.0729,0.8988,0,0,0,-0.006,0.002,-0.015,1023
2018,4,24,22,27,32.767,0.3798,-0.206,-0.0729,0.8988,0,0,0,-0.006,0.005,-0.015,1023
2018,4,24,22,27,32.805,0.3798,-0.2059,-0.0729,0.8988,0.7,0,0.3,-0.018,0.004,-0.009,1023
2018,4,24,22,27,32.828,0.3799,-0.2058,-0.0727,0.8988,0.9,0,0,0.022,0.016,-0.008,0
2018,4,24,22,27,32.832,0.3799,-0.2058,-0.0726,0.8988,-0.5,0.3,-0.2,0.001,0.003,-0.013,0
2018,4,24,22,27,32.869,0.3797,-0.2059,-0.0728,0.8989,-0.6,0.7,-0.8,0.02,-0.019,-0.026,0
2018,4,24,22,27,32.869,0.3796,-0.206,-0.0729,0.8989,0.6,0.1,-0.2,-0.008,0.008,-0.008,0
2018,4,24,22,27,32.891,0.3796,-0.2059,-0.0729,0.8989,-0.6,-0.5,0.3,0,0.026,0,0
2018,4,24,22,27,32.911,0.3796,-0.2059,-0.073,0.8989,-0.9,-0.3,0.3,-0.011,0.019,-0.011,0
2018,4,24,22,27,32.928,0.3796,-0.2059,-0.0731,0.8989,0,0,0,0,0.008,-0.019,0
2018,4,24,22,27,32.95,0.3796,-0.2059,-0.0731,0.8989,0,0,0,-0.002,0.003,-0.014,0
2018,4,24,22,27,32.968,0.3796,-0.2059,-0.0731,0.8989,0,0,0,-0.006,0,-0.014,0
2018,4,24,22,27,32.989,0.3796,-0.206,-0.0731,0.8989,0,0,0,-0.003,0.006,-0.016,0
2018,4,24,22,27,33.028,0.3797,-0.206,-0.073,0.8988,0.6,-0.3,0.2,0.001,0.006,-0.014,0
2018,4,24,22,27,33.051,0.3797,-0.206,-0.073,0.8988,0,0,0,-0.002,0.003,-0.013,0
2018,4,24,22,27,33.055,0.3797,-0.206,-0.073,0.8988,-0.7,0,0.2,-0.004,0.007,-0.014,0
2018,4,24,22,27,33.075,0.3797,-0.2061,-0.0732,0.8988,-1.1,0,0,-0.004,0.008,-0.01,0
2018,4,24,22,27,33.09,0.3796,-0.2061,-0.0733,0.8988,-1,0,0.2,-0.005,0.002,-0.015,0
2018,4,24,22,27,33.107,0.3795,-0.2062,-0.0734,0.8988,-0.9,-0.2,0.8,-0.011,0.005,-0.012,0
2018,4,24,22,27,33.13,0.3797,-0.2062,-0.0736,0.8988,-1.9,-0.4,1,-0.012,0.013,-0.007,0
2018,4,24,22,27,33.148,0.3797,-0.2064,-0.074,0.8987,-3.5,-0.5,0.9,-0.006,0.014,-0.002,0
2018,4,24,22,27,33.172,0.3795,-0.2068,-0.0747,0.8986,-6.1,-0.8,-0.2,-0.002,0.01,-0.005,0
2018,4,24,22,27,33.19,0.3791,-0.2074,-0.0758,0.8985,-10.6,-2,-1.6,-0.009,0.01,0.007,0
2018,4,24,22,27,33.21,0.3785,-0.2086,-0.0776,0.8984,-16.2,-4.7,-2.1,-0.005,0.025,0.021,0
2018,4,24,22,27,33.248,0.3777,-0.2104,-0.08,0.898,-19.4,-5.9,0.2,-0.008,0.004,0.039,0
2018,4,24,22,27,33.271,0.3774,-0.2124,-0.0827,0.8975,-17.4,-8.1,2.5,-0.013,-0.014,0.05,0
2018,4,24,22,27,33.275,0.3779,-0.2149,-0.0851,0.8965,-18.6,-11.1,7.5,-0.004,-0.006,0.034,0
2018,4,24,22,27,33.292,0.3788,-0.2176,-0.088,0.8951,-20.5,-15.2,8.3,-0.053,-0.021,0.077,0
2018,4,24,22,27,33.328,0.3792,-0.2211,-0.0911,0.8938,-30.3,-18.5,4.3,-0.033,-0.011,0.112,1023
2018,4,24,22,27,33.351,0.3785,-0.2257,-0.0956,0.8925,-40.6,-22.2,-0.1,-0.085,-0.039,0.116,1023
2018,4,24,22,27,33.355,0.3766,-0.2316,-0.1009,0.8912,-44.4,-26.1,-7,-0.137,-0.058,0.068,1023
2018,4,24,22,27,33.371,0.374,-0.2385,-0.1047,0.89,-32.8,-28.2,-10.3,-0.174,-0.034,0.079,1023
2018,4,24,22,27,33.394,0.3716,-0.245,-0.1069,0.889,-26.9,-32.8,-11.1,-0.083,0,0.063,1023
2018,4,24,22,27,33.411,0.3699,-0.2515,-0.1076,0.8878,-23.4,-38.4,-9.9,0.03,0.066,0.059,1023
2018,4,24,22,27,33.435,0.3666,-0.2602,-0.1089,0.8865,-20.9,-36.2,-20.6,0.1,-0.133,-0.001,1023
2018,4,24,22,27,33.454,0.3622,-0.267,-0.1064,0.8866,-1.6,-32.8,-36.3,0.107,-0.013,-0.022,1023
2018,4,24,22,27,33.491,0.356,-0.2737,-0.1028,0.8875,1.2,-35,-40.3,-0.033,-0.013,-0.099,1023
2018,4,24,22,27,33.514,0.351,-0.2806,-0.0973,0.8879,5.3,-41.4,-29.1,0.062,0.066,-0.108,1023
2018,4,24,22,27,33.518,0.3477,-0.2875,-0.0937,0.8874,-6.7,-38.7,-16.9,0.12,0.024,-0.085,1023
2018,4,24,22,27,33.536,0.3447,-0.2951,-0.0924,0.8862,-25.1,-37.9,-11.3,0.164,0.036,-0.061,1023
2018,4,24,22,27,33.554,0.3411,-0.3031,-0.0951,0.8846,-45,-34,-9.7,0.122,0.022,-0.129,1023
2018,4,24,22,27,33.578,0.3369,-0.3111,-0.1001,0.8829,-53.6,-28.5,-7.2,0.052,0.048,-0.153,1023
2018,4,24,22,27,33.614,0.3331,-0.3194,-0.1065,0.8806,-53.6,-24.7,-4.4,-0.021,0.037,-0.14,0
2018,4,24,22,27,33.614,0.3301,-0.3266,-0.1134,0.8783,-54.1,-20.9,1.3,-0.014,0.055,-0.126,0
2018,4,24,22,27,33.637,0.3279,-0.3328,-0.1207,0.8758,-54.4,-16,7.1,-0.039,0.048,-0.073,0
2018,4,24,22,27,33.654,0.3266,-0.3375,-0.129,0.8733,-53,-11,10.8,-0.101,0.025,-0.015,0
2018,4,24,22,27,33.691,0.3259,-0.3411,-0.1366,0.871,-43.5,-9.1,13.5,-0.234,0.027,0.084,0
2018,4,24,22,27,33.714,0.3258,-0.3445,-0.1428,0.8687,-34.6,-9.7,12.2,-0.202,-0.004,0.131,0
2018,4,24,22,27,33.718,0.3256,-0.3471,-0.147,0.867,-21.9,-6.3,4.4,-0.241,0.057,0.179,0
2018,4,24,22,27,33.734,0.3246,-0.3489,-0.1495,0.8662,-15.3,-5,-4.9,-0.234,0.173,0.215,0
2018,4,24,22,27,33.756,0.3221,-0.3507,-0.151,0.8662,-23.5,0.7,-16.4,-0.015,0.4,0.042,0
2018,4,24,22,27,33.793,0.3163,-0.3522,-0.1563,0.8668,-48.2,16.2,-28.1,-0.114,0.16,-0.378,0
2018,4,24,22,27,33.814,0.3077,-0.3539,-0.1628,0.868,-47.6,0.2,-26.8,-0.297,-0.193,-0.169,0
2018,4,24,22,27,33.817,0.3058,-0.3575,-0.1652,0.8667,2.8,-24.4,4.1,-0.075,-0.263,0.239,0
2018,4,24,22,27,33.834,0.311,-0.3606,-0.1588,0.8648,58.4,-43.2,14.7,0.378,-0.395,0.282,0
2018,4,24,22,27,33.855,0.3162,-0.3641,-0.1497,0.8631,25.2,-33.3,-3.4,0.139,-0.434,-0.242,0
2018,4,24,22,27,33.892,0.3138,-0.3687,-0.1471,0.8624,-13.8,-20.3,-38,-0.185,-0.691,-0.45,0
2018,4,24,22,27,33.914,0.3055,-0.3736,-0.1448,0.8637,-13.1,-17.2,-62.8,-0.227,-0.968,-0.584,0
2018,4,24,22,27,33.916,0.2937,-0.3772,-0.142,0.8667,-23.1,5.8,-82.4,-0.214,-1.018,-0.676,0
2018,4,24,22,27,33.949,0.276,-0.3778,-0.1414,0.8723,-30.8,35.4,-116.5,-0.327,-1.351,-0.74,0
2018,4,24,22,27,33.973,0.253,-0.374,-0.1359,0.8817,11.5,62.5,-156.5,-0.308,-1.35,-0.761,0
2018,4,24,22,27,33.98,0.2243,-0.3666,-0.1278,0.8937,-20.7,76.2,-192.2,-0.184,-1.247,-0.632,0
2018,4,24,22,27,33.998,0.1863,-0.3592,-0.1208,0.9064,-18.7,94.7,-243.9,-0.275,-1.728,-0.581,0
2018,4,24,22,27,34.034,0.1396,-0.3484,-0.1075,0.9205,24.3,105.3,-312.8,-1.08,-1.607,0.138,0
2018,4,24,22,27,34.034,0.0893,-0.336,-0.075,0.9345,112.6,85.8,-339,-1.172,-0.984,0.313,0
2018,4,24,22,27,34.057,0.031,-0.3289,-0.0473,0.9426,-8.8,56,-404.9,-1.044,-0.674,0.124,0
2018,4,24,22,27,34.076,-0.0396,-0.321,-0.027,0.9458,-25.3,65.5,-419.9,-1.486,-0.192,0.42,0
2018,4,24,22,27,34.1,-0.1076,-0.3125,-0.0066,0.9437,-7.9,44.4,-390.9,-1.69,0.631,0.991,0
2018,4,24,22,27,34.116,-0.1674,-0.3068,0.0149,0.9367,23.1,27.9,-339.7,-1.602,0.987,0.908,0
2018,4,24,22,27,34.139,-0.2149,-0.3034,0.0393,0.9274,65.1,14.1,-280.3,-1.56,1.387,0.529,0
2018,4,24,22,27,34.175,-0.2531,-0.3004,0.0645,0.9173,73.3,31.1,-238.5,-1.079,1.305,-0.347,0
2018,4,24,22,27,34.198,-0.2787,-0.2954,0.0936,0.9089,133.7,56.5,-159.4,-0.345,1.743,-0.178,0
2018,4,24,22,27,34.203,-0.2851,-0.2914,0.1286,0.9039,195.7,75.5,-49.3,-0.121,1.468,-0.189,0
2018,4,24,22,27,34.218,-0.2699,-0.2873,0.1648,0.904,210.5,100.7,66.7,-0.255,1.375,-0.255,0
2018,4,24,22,27,34.239,-0.2368,-0.283,0.2002,0.9075,240.4,126.5,151.4,-0.649,1.056,0.1,0
2018,4,24,22,27,34.256,-0.1938,-0.2792,0.2321,0.9113,185.7,101.5,175.8,-1.255,-0.181,0.962,1023
2018,4,24,22,27,34.275,-0.1668,-0.2765,0.2378,0.916,-69.6,26.6,83.3,-0.91,-0.798,1.108,1023
2018,4,24,22,27,34.296,-0.1706,-0.2751,0.2067,0.9232,-239.5,-44.5,-7.9,-1.564,-1.1,0.879,1023
2018,4,24,22,27,34.334,-0.1917,-0.2784,0.1684,0.9259,-231.2,-112.1,-71.9,-1.545,-0.36,1.501,1023
2018,4,24,22,27,34.357,-0.2199,-0.2936,0.1248,0.9218,-287.3,-213.6,-57.5,-1.701,-0.401,0.418,1023
2018,4,24,22,27,34.362,-0.2533,-0.3194,0.063,0.9109,-388.8,-290.1,-90.3,-1.142,-0.638,-0.856,1023
2018,4,24,22,27,34.396,-0.302,-0.3494,-0.012,0.8868,-437.3,-350.7,-195.3,-0.515,-0.446,-0.596,1023
2018,4,24,22,27,34.42,-0.3532,-0.3783,-0.0783,0.8519,-389.6,-301.3,-160.9,1.179,-0.595,-0.6,1023
2018,4,24,22,27,34.424,-0.4018,-0.395,-0.1397,0.8142,-380.1,-226.4,-230.6,1.553,-0.594,-0.731,1023
2018,4,24,22,27,34.443,-0.4608,-0.4015,-0.1864,0.7691,-385.5,-166.9,-321.4,1.81,0.381,-0.986,1023
2018,4,24,22,27,34.46,-0.5307,-0.3979,-0.2235,0.7141,-387.5,-97.3,-396.8,1.61,0.249,-0.873,0
2018,4,24,22,27,34.482,-0.6005,-0.3887,-0.2419,0.6555,-282,-36.1,-410.9,0.734,-0.146,-0.208,0
2018,4,24,22,27,34.518,-0.6557,-0.3864,-0.2393,0.6027,-119.4,-12.7,-369.9,0.343,-0.166,0.005,0
2018,4,24,22,27,34.518,-0.6957,-0.3912,-0.2241,0.5591,-65.6,13.8,-319.6,0.193,-0.128,0.091,0
2018,4,24,22,27,34.541,-0.7308,-0.3879,-0.2081,0.5216,-120.6,52.7,-271.7,0.327,-0.538,0.38,0
2018,4,24,22,27,34.56,-0.7654,-0.3709,-0.1953,0.4881,-167.8,89,-235.1,-0.007,-1.241,0.489,0
2018,4,24,22,27,34.597,-0.7983,-0.3454,-0.18,0.4592,-177.9,134.1,-216,-0.252,-1.12,0.365,0
2018,4,24,22,27,34.617,-0.8311,-0.3118,-0.1612,0.431,-223.2,166.9,-225.7,-0.596,-1.179,0.25,0
2018,4,24,22,27,34.622,-0.8661,-0.2676,-0.1398,0.3981,-272.1,200.3,-254.4,-0.91,-1.4,-0.003,0
2018,4,24,22,27,34.658,-0.8992,-0.2205,-0.1138,0.3603,-212.5,204.8,-274.9,-1.26,-2.159,-0.293,0
2018,4,24,22,27,34.68,-0.924,-0.194,-0.0787,0.3196,-36.2,196.4,-299.6,-1.331,-2.122,-0.484,0
2018,4,24,22,27,34.685,-0.9412,-0.1922,-0.0364,0.2752,65.9,178,-324.3,-1.229,-1.466,-0.63,0
2018,4,24,22,27,34.701,-0.9542,-0.196,0.0052,0.2256,42.6,156.6,-343.1,-1.094,-0.957,-0.736,0
2018,4,24,22,27,34.725,-0.966,-0.1879,0.0416,0.1725,-63.9,144.2,-350.4,-1.034,-0.865,-0.942,0
2018,4,24,22,27,34.741,-0.9771,-0.1598,0.0736,0.1194,-168.7,143.5,-339.6,-1.132,-1.119,-1.131,0
2018,4,24,22,27,34.759,-0.9849,-0.1195,0.1032,0.0702,-198.1,144.9,-310,-1.245,-1.156,-1.115,0
2018,4,24,22,27,34.781,-0.9874,-0.081,0.1327,0.0259,-165,153.1,-282.8,-1.241,-1.008,-0.96,0
2018,4,24,22,27,34.818,-0.9856,-0.0468,0.1613,-0.0161,-154.4,139.4,-273.1,-1.448,-0.814,-0.484,0
2018,4,24,22,27,34.841,-0.9807,-0.0122,0.1864,-0.0571,-163.6,130.8,-269.9,-1.365,-0.562,-0.384,0
2018,4,24,22,27,34.845,-0.9719,0.0249,0.213,-0.0966,-185.5,161.1,-261.3,-1.02,-0.295,-0.512,0
2018,4,24,22,27,34.884,-0.9575,0.0635,0.2479,-0.1323,-196.6,228.5,-233.8,-0.977,-0.067,-0.505,0
2018,4,24,22,27,34.886,-0.9373,0.0972,0.2924,-0.1623,-162.6,271.1,-186,-1.237,-0.016,-0.032,0
2018,4,24,22,27,34.902,-0.9155,0.1153,0.3366,-0.1876,-51.8,230.8,-128.8,-2.847,-0.835,1.653,0
2018,4,24,22,27,34.924,-0.9154,0.0883,0.3241,-0.2214,345.3,-101.9,-241.4,-5.462,-4.56,6.47,0
2018,4,24,22,27,34.939,-0.9182,0.0171,0.2604,-0.2978,808.4,-191.7,-262.6,0.838,1.514,-0.986,0
2018,4,24,22,27,34.962,-0.9141,-0.0403,0.2132,-0.3423,97.7,-147.2,-113.3,-0.939,2.756,-0.528,0
2018,4,24,22,27,34.981,-0.9074,-0.0126,0.2046,-0.3667,-199.1,-48.1,-189.1,-0.365,1.1,-1.04,0
2018,4,24,22,27,35.004,-0.8966,0.0297,0.2181,-0.384,-228.4,17.9,-139.7,-0.803,0.919,-0.708,0
2018,4,24,22,27,35.022,-0.8847,0.067,0.2394,-0.3941,-245.8,66.2,-108.5,-0.627,0.458,0.467,0
2018,4,24,22,27,35.045,-0.8717,0.1019,0.2647,-0.3994,-202.6,69.4,-84.2,-0.678,-0.13,0.549,0
2018,4,24,22,27,35.063,-0.8611,0.124,0.2842,-0.4028,-102.5,53.7,-41.4,-0.536,0.318,-0.037,0
2018,4,24,22,27,35.101,-0.8571,0.1256,0.2918,-0.4053,39.1,33.3,-5.2,-0.276,-0.009,-0.173,0
2018,4,24,22,27,35.124,-0.8578,0.1102,0.2894,-0.4101,122.6,20.9,7.1,-0.183,0.013,0.036,0
2018,4,24,22,27,35.126,-0.8604,0.089,0.2827,-0.4144,120.7,10.5,21.8,-0.115,0.113,0.205,1023
2018,4,24,22,27,35.146,-0.8634,0.0719,0.2764,-0.4157,78.5,3.7,25.1,-0.005,0.041,0.126,1023
2018,4,24,22,27,35.183,-0.8662,0.0621,0.2718,-0.4145,33.7,-3.3,27.4,0.093,0.036,0.056,1023
2018,4,24,22,27,35.183,-0.8689,0.0588,0.2691,-0.4111,6.1,-6.9,29.3,0.142,-0.011,-0.066,1023
2018,4,24,22,27,35.207,-0.8715,0.0579,0.2676,-0.4066,-2.5,-15,30,0.122,-0.166,-0.054,1023
2018,4,24,22,27,35.224,-0.8744,0.0594,0.2657,-0.4014,-15.1,-22.6,29.1,0.152,-0.204,-0.064,1023
2018,4,24,22,27,35.243,-0.8773,0.0622,0.2633,-0.3963,-12.5,-25.8,24.8,0.141,-0.27,-0.104,1023
2018,4,24,22,27,35.282,-0.88,0.0642,0.26,-0.3922,-2.8,-26.4,19.8,0.117,-0.263,-0.122,1023
2018,4,24,22,27,35.303,-0.8822,0.0646,0.2563,-0.3895,8.1,-20.4,13.9,0.071,-0.184,-0.128,1023
2018,4,24,22,27,35.308,-0.8839,0.0632,0.2529,-0.3882,18.3,-13.6,9.2,0.018,-0.126,-0.102,1023
2018,4,24,22,27,35.323,-0.8848,0.0605,0.2505,-0.3879,26.8,-6.7,6.1,-0.018,-0.07,-0.073,0
2018,4,24,22,27,35.347,-0.8855,0.056,0.2485,-0.3884,35.6,0.5,4.6,-0.021,-0.015,-0.055,0
2018,4,24,22,27,35.381,-0.8859,0.0494,0.247,-0.3893,38.5,7.2,4,-0.025,0.044,-0.01,0
2018,4,24,22,27,35.404,-0.8861,0.0419,0.246,-0.3903,37.6,14,3.7,-0.009,0.073,0.009,0
2018,4,24,22,27,35.408,-0.8861,0.0338,0.2457,-0.3913,39.2,18.2,5.2,0.002,0.082,0.013,0
2018,4,24,22,27,35.426,-0.8861,0.0252,0.2456,-0.392,43.5,19,7.7,-0.011,0.05,0.02,0
2018,4,24,22,27,35.449,-0.8862,0.0162,0.2452,-0.3926,44.4,17.5,8.6,0.001,0.036,0.004,0
2018,4,24,22,27,35.464,-0.8863,0.0075,0.2447,-0.393,44.9,15.4,10.2,0.009,0.007,-0.015,0
2018,4,24,22,27,35.503,-0.8865,-0.001,0.2437,-0.3932,46.7,12.3,12.4,0.003,0.019,-0.003,0
2018,4,24,22,27,35.525,-0.887,-0.0096,0.2418,-0.3931,40.5,7,12.1,0.01,0.052,0.021,0
2018,4,24,22,27,35.529,-0.8876,-0.0157,0.2401,-0.3926,24.4,3.1,11.1,-0.005,0.014,0.05,0
2018,4,24,22,27,35.545,-0.8882,-0.0191,0.2388,-0.3917,12.9,-0.1,9.6,0.018,0.009,-0.001,0
2018,4,24,22,27,35.568,-0.8889,-0.021,0.2378,-0.3907,7.9,-2.2,8.3,0.014,0.008,-0.01,0
2018,4,24,22,27,35.585,-0.8895,-0.0222,0.2369,-0.3899,4.3,-3.4,5.7,0,0,-0.009,0
2018,4,24,22,27,35.609,-0.8899,-0.0224,0.2362,-0.3894,1.4,-4.2,2.4,-0.01,-0.013,0.011,0
2018,4,24,22,27,35.628,-0.8901,-0.0221,0.2357,-0.3892,-4.5,-4.4,-0.7,-0.006,0.013,0.007,0
2018,4,24,22,27,35.652,-0.8902,-0.0207,0.2356,-0.3892,-9.7,-2.8,-3,0,0.018,-0.014,0
2018,4,24,22,27,35.667,-0.89,-0.0189,0.2362,-0.3893,-10.8,-1.7,-4.4,-0.009,-0.012,-0.017,0
2018,4,24,22,27,35.685,-0.8898,-0.017,0.2368,-0.3896,-8.1,-1.2,-4.7,0,-0.017,-0.009,0
2018,4,24,22,27,35.709,-0.8895,-0.0157,0.2372,-0.3901,-5.3,-1.1,-4.1,0.003,-0.012,-0.02,0
2018,4,24,22,27,35.726,-0.8893,-0.0146,0.2374,-0.3905,-5.5,-1.7,-3.8,0.011,0.007,0,0
2018,4,24,22,27,35.749,-0.8892,-0.0132,0.2374,-0.3908,-9.4,-2.4,-3.8,0.021,0,0.004,0
2018,4,24,22,27,35.768,-0.8891,-0.0109,0.2376,-0.3909,-12.9,-2.9,-3.5,0.025,-0.018,-0.01,0
2018,4,24,22,27,35.786,-0.889,-0.0082,0.238,-0.391,-13.3,-3.1,-3.3,0.024,-0.029,-0.022,0
2018,4,24,22,27,35.808,-0.8888,-0.0054,0.2385,-0.391,-13.1,-3.3,-3.4,0.011,-0.028,-0.032,0
2018,4,24,22,27,35.847,-0.8886,-0.0027,0.2392,-0.3911,-13.2,-2.7,-3.9,0.001,-0.038,-0.016,0
2018,4,24,22,27,35.869,-0.8884,-0.0001,0.2399,-0.3913,-13.4,-2.5,-4.6,-0.001,-0.023,-0.018,0
2018,4,24,22,27,35.874,-0.8881,0.0023,0.2406,-0.3914,-13.5,-1.6,-4,0.001,-0.012,-0.018,0
2018,4,24,22,27,35.889,-0.8879,0.0047,0.2415,-0.3914,-11.6,-1.2,-3.6,0,-0.021,-0.028,0
2018,4,24,22,27,35.908,-0.8876,0.0065,0.2421,-0.3915,-7.5,-1.1,-2.5,0.006,-0.024,-0.026,0
2018,4,24,22,27,35.93,-0.8875,0.0079,0.2425,-0.3916,-4.4,-1.1,-1.8,0.009,-0.03,-0.021,0
2018,4,24,22,27,35.949,-0.8874,0.0088,0.2427,-0.3917,-2.6,-1.2,-0.9,0.011,-0.029,-0.019,0
2018,4,24,22,27,35.967,-0.8873,0.0096,0.2427,-0.3918,-1.9,-1.4,-0.5,0.019,-0.023,-0.019,0
2018,4,24,22,27,35.991,-0.8873,0.0102,0.2427,-0.3918,-2.1,-0.9,-0.3,0.014,-0.022,-0.013,1023
2018,4,24,22,27,36.027,-0.8873,0.0109,0.2428,-0.3918,-3.1,-0.6,0,0.013,-0.019,-0.023,1023
2018,4,24,22,27,36.05,-0.8873,0.0115,0.243,-0.3917,-2.4,-0.3,0,0.005,-0.017,-0.014,1023
2018,4,24,22,27,36.054,-0.8872,0.012,0.2432,-0.3916,-1.2,0,0.1,0.002,-0.017,-0.027,1023
2018,4,24,22,27,36.089,-0.8872,0.0121,0.2434,-0.3916,0,0,0,0.003,-0.012,-0.028,1023
2018,4,24,22,27,36.089,-0.8872,0.0121,0.2435,-0.3916,1,0.1,0.1,0.001,-0.005,-0.009,1023
2018,4,24,22,27,36.112,-0.8872,0.012,0.2435,-0.3916,0.2,0,0.6,0.002,0,-0.007,1023
2018,4,24,22,27,36.128,-0.8872,0.012,0.2435,-0.3915,-0.7,0,0.6,0.006,-0.011,-0.013,1023
2018,4,24,22,27,36.147,-0.8873,0.0122,0.2436,-0.3913,-1.3,-0.5,0.7,0.009,-0.008,-0.009,1023
2018,4,24,22,27,36.17,-0.8873,0.0126,0.2437,-0.3911,-2.1,-0.8,0.9,0.009,-0.006,-0.011,0
2018,4,24,22,27,36.188,-0.8874,0.013,0.2438,-0.3909,-1.8,-0.4,1.1,0.007,-0.005,-0.019,0
2018,4,24,22,27,36.21,-0.8875,0.0133,0.2439,-0.3906,-1.4,-0.5,1,0.002,-0.017,-0.019,0
2018,4,24,22,27,36.244,-0.8875,0.0136,0.244,-0.3905,-0.3,-0.6,0.7,0.005,-0.014,-0.016,0
2018,4,24,22,27,36.267,-0.8876,0.0138,0.2439,-0.3904,-1.2,-0.9,0.4,0.006,-0.007,-0.013,0
2018,4,24,22,27,36.273,-0.8876,0.0143,0.244,-0.3903,-1.7,-0.7,0,0.011,-0.007,-0.013,0
2018,4,24,22,27,36.31,-0.8876,0.0147,0.244,-0.3902,-2.1,-0.5,-0.3,0.011,-0.008,-0.021,0
2018,4,24,22,27,36.333,-0.8875,0.0151,0.2441,-0.3902,-1.4,-0.7,-0.4,0.004,-0.004,-0.017,0
2018,4,24,22,27,36.337,-0.8875,0.0155,0.2441,-0.3902,-1.3,-1.1,-0.2,0.001,-0.013,-0.014,0
2018,4,24,22,27,36.351,-0.8876,0.0159,0.2441,-0.3902,-1.6,-1.6,0.2,0,-0.009,-0.014,0
2018,4,24,22,27,36.388,-0.8876,0.0163,0.244,-0.39,-1.2,-1.7,0.7,0.003,-0.006,-0.021,0
2018,4,24,22,27,36.412,-0.8877,0.0166,0.244,-0.3899,-1.7,-1.7,0.5,0.004,-0.003,-0.011,0
2018,4,24,22,27,36.415,-0.8878,0.017,0.2439,-0.3897,-2,-1.3,0.1,0.008,-0.005,-0.009,0
2018,4,24,22,27,36.431,-0.8878,0.0175,0.2438,-0.3897,-1.8,-0.5,0,0.016,-0.008,-0.016,0
2018,4,24,22,27,36.469,-0.8878,0.0178,0.2438,-0.3896,0,0,0,0.017,-0.006,-0.015,0
2018,4,24,22,27,36.492,-0.8878,0.0179,0.2438,-0.3897,0.3,0.5,0,0.017,-0.001,-0.011,0
2018,4,24,22,27,36.496,-0.8878,0.0179,0.2438,-0.3897,-0.1,0.5,-0.3,0.013,-0.002,-0.007,0
2018,4,24,22,27,36.515,-0.8878,0.0181,0.2439,-0.3898,-1.1,0.8,-0.3,0.007,-0.006,-0.019,0
2018,4,24,22,27,36.534,-0.8877,0.0184,0.2442,-0.3898,-1.9,0.9,-0.7,0.001,-0.007,-0.019,0
2018,4,24,22,27,36.557,-0.8875,0.0187,0.2446,-0.3898,-1.7,0.5,-0.7,-0.001,-0.011,-0.013,0
2018,4,24,22,27,36.572,-0.8874,0.019,0.2448,-0.3899,-1.2,0.1,-0.5,0.002,-0.006,-0.017,0
2018,4,24,22,27,36.609,-0.8874,0.0193,0.245,-0.3899,-0.9,-0.2,-0.6,0.004,-0.003,-0.009,0
2018,4,24,22,27,36.632,-0.8873,0.0195,0.245,-0.39,-1.3,-0.5,-0.4,0.005,0.005,-0.014,0
2018,4,24,22,27,36.637,-0.8873,0.0198,0.2451,-0.3899,-2,-0.5,-0.3,0.003,-0.002,-0.014,0
2018,4,24,22,27,36.653,-0.8873,0.0202,0.2452,-0.3899,-2,-0.6,-0.3,0.01,-0.01,-0.014,0
2018,4,24,22,27,36.689,-0.8873,0.0207,0.2452,-0.3899,-2.6,-0.8,-0.7,0.003,0,-0.007,0
2018,4,24,22,27,36.713,-0.8872,0.0213,0.2454,-0.3899,-4.1,-0.6,-1,0.006,-0.003,-0.014,0
2018,4,24,22,27,36.716,-0.8872,0.0221,0.2456,-0.3899,-4.2,-0.6,-0.8,0.007,-0.003,-0.016,0
2018,4,24,22,27,36.733,-0.8871,0.0229,0.2458,-0.3898,-3.1,-0.5,-0.6,0.004,-0.005,-0.021,0
2018,4,24,22,27,36.753,-0.8871,0.0234,0.2459,-0.3898,-2.2,-0.8,-0.5,0.002,-0.008,-0.01,0
2018,4,24,22,27,36.772,-0.887,0.0239,0.246,-0.3898,-2.2,-0.7,-0.6,0.004,-0.007,-0.016,0
2018,4,24,22,27,36.809,-0.887,0.0244,0.2461,-0.3898,-2,-0.7,-0.6,0.009,-0.005,-0.012,0
2018,4,24,22,27,36.832,-0.8869,0.0249,0.2461,-0.3898,-2.3,-1,-0.5,0.013,-0.004,-0.012,0
2018,4,24,22,27,36.837,-0.887,0.0255,0.2461,-0.3898,-2.7,-1.2,-0.2,0.016,0,-0.01,0
2018,4,24,22,27,36.854,-0.887,0.0261,0.2461,-0.3898,-3,-0.9,-0.3,0.011,-0.001,-0.011,0
2018,4,24,22,27,36.891,-0.8869,0.0267,0.2462,-0.3897,-3.3,-0.6,-0.3,0.008,-0.007,-0.015,0
2018,4,24,22,27,36.914,-0.8869,0.0274,0.2465,-0.3896,-2.9,-0.2,-0.2,0.005,-0.012,-0.022,1023
2018,4,24,22,27,36.919,-0.8868,0.0278,0.2467,-0.3896,-1.1,-0.2,-0.3,0.005,-0.009,-0.014,1023
2018,4,24,22,27,36.937,-0.8868,0.028,0.2467,-0.3896,0,0,0,0.009,-0.006,-0.019,1023
2018,4,24,22,27,36.954,-0.8868,0.0281,0.2468,-0.3896,0,0,0,0.007,-0.007,-0.015,1023
2018,4,24,22,27,36.978,-0.8868,0.0282,0.2468,-0.3896,0.5,-0.3,0.1,0.008,0,-0.016,1023
2018,4,24,22,27,36.996,-0.8868,0.0282,0.2468,-0.3896,0.1,-0.6,0,0.002,-0.001,-0.018,1023
2018,4,24,22,27,37.019,-0.8868,0.0283,0.2467,-0.3896,-0.8,-0.7,-0.2,0.001,0.004,-0.009,1023
2018,4,24,22,27,37.034,-0.8868,0.0286,0.2467,-0.3896,-2.2,-0.8,-0.3,0.004,0.007,-0.009,1023
2018,4,24,22,27,37.053,-0.8868,0.029,0.2467,-0.3895,-2.6,-0.9,-0.2,0.004,0.004,-0.014,1023
2018,4,24,22,27,37.074,-0.8868,0.0294,0.2467,-0.3894,-2.1,-0.8,0.2,0.009,0.003,-0.016,0
2018,4,24,22,27,37.112,-0.8869,0.0298,0.2467,-0.3893,-1.3,-0.7,0.4,0.011,-0.008,-0.014,0
2018,4,24,22,27,37.135,-0.8869,0.0301,0.2467,-0.3892,-0.8,-0.5,0.3,0.009,-0.006,-0.014,0
2018,4,24,22,27,37.14,-0.8869,0.0304,0.2467,-0.3891,-1.6,-0.2,0,0.008,-0.003,-0.01,0
2018,4,24,22,27,37.158,-0.8869,0.0308,0.2469,-0.3891,-1.9,0,-0.6,0.006,-0.009,-0.014,0
2018,4,24,22,27,37.178,-0.8868,0.0312,0.247,-0.3891,-1.9,-0.1,-0.7,0.006,-0.004,-0.015,0
2018,4,24,22,27,37.214,-0.8867,0.0315,0.2472,-0.3892,-1.1,-0.2,-0.4,0.006,-0.006,-0.016,0
2018,4,24,22,27,37.238,-0.8867,0.0317,0.2472,-0.3892,0,0,0,0.007,-0.002,-0.013,0
2018,4,24,22,27,37.242,-0.8867,0.0317,0.2472,-0.3892,0,0,0,0.01,0,-0.011,0
2018,4,24,22,27,37.255,-0.8867,0.0318,0.2472,-0.3892,-0.5,-0.6,0.2,0.006,0.001,-0.011,0
2018,4,24,22,27,37.291,-0.8868,0.032,0.2471,-0.3891,-1.4,-0.8,0.1,0.006,0.005,-0.01,0
2018,4,24,22,27,37.314,-0.8868,0.0323,0.2471,-0.389,-1.9,-0.8,0.2,0.004,0.003,-0.011,0
2018,4,24,22,27,37.319,-0.8868,0.0326,0.2472,-0.3889,-1.7,-0.6,0.2,0.002,-0.005,-0.012,0
2018,4,24,22,27,37.335,-0.8869,0.0329,0.2472,-0.3888,-1.6,-0.6,0,0.003,-0.003,-0.011,0
2018,4,24,22,27,37.358,-0.8869,0.0334,0.2472,-0.3887,-2.4,-0.6,0,0.008,0,-0.012,0
2018,4,24,22,27,37.377,-0.8869,0.0339,0.2473,-0.3886,-2.3,-0.5,0,0.013,-0.001,-0.011,0
2018,4,24,22,27,37.4,-0.8869,0.0343,0.2474,-0.3885,-1.9,-0.5,0.2,0.013,-0.006,-0.021,0
2018,4,24,22,27,37.417,-0.8869,0.0346,0.2474,-0.3884,-0.3,-0.5,0.5,0.007,-0.009,-0.016,0
2018,4,24,22,27,37.441,-0.8869,0.0347,0.2474,-0.3883,0,0,0,0.006,-0.002,-0.011,0
2018,4,24,22,27,37.459,-0.8869,0.0348,0.2474,-0.3883,-0.6,-0.2,-0.3,0.006,0,-0.007,0
2018,4,24,22,27,37.481,-0.8869,0.035,0.2475,-0.3884,-1.2,0,-0.6,0.009,0.001,-0.013,0
2018,4,24,22,27,37.496,-0.8868,0.0352,0.2475,-0.3884,-0.9,0,-0.5,0.007,0.003,-0.014,0
2018,4,24,22,27,37.515,-0.8868,0.0354,0.2476,-0.3885,-1,0,-0.6,0.006,0.001,-0.009,0
2018,4,24,22,27,37.539,-0.8867,0.0356,0.2477,-0.3885,-1.1,0,-0.5,0,0,-0.011,0
2018,4,24,22,27,37.555,-0.8867,0.0359,0.2477,-0.3886,-1.1,-0.5,-0.8,0.002,0,-0.013,0
2018,4,24,22,27,37.578,-0.8866,0.0361,0.2477,-0.3886,-1.6,-0.5,-0.8,0.006,0.002,-0.009,0
2018,4,24,22,27,37.597,-0.8866,0.0365,0.2478,-0.3887,-2,-0.5,-0.6,0.006,0,-0.015,0
2018,4,24,22,27,37.62,-0.8866,0.0369,0.2478,-0.3887,-1.7,-0.6,-0.3,0.005,0,-0.008,0
2018,4,24,22,27,37.638,-0.8866,0.0372,0.2478,-0.3886,-1.5,-0.7,0,0.008,0,-0.003,0
2018,4,24,22,27,37.661,-0.8866,0.0376,0.2478,-0.3886,-1.9,-0.6,0,0.009,0.002,-0.01,0
2018,4,24,22,27,37.677,-0.8866,0.038,0.2478,-0.3885,-2.7,-0.7,0,0.012,0.003,-0.013,0
2018,4,24,22,27,37.715,-0.8866,0.0386,0.2478,-0.3884,-3,-0.3,0,0.015,-0.007,-0.015,0
2018,4,24,22,27,37.739,-0.8866,0.0391,0.248,-0.3883,-2.1,-0.2,0.1,0.009,-0.013,-0.02,0
2018,4,24,22,27,37.744,-0.8866,0.0395,0.2481,-0.3882,-1.2,0.1,0,0.006,-0.01,-0.018,0
2018,4,24,22,27,37.759,-0.8865,0.0397,0.2483,-0.3882,0,0,0,0.004,-0.009,-0.022,0
2018,4,24,22,27,37.777,-0.8865,0.0397,0.2483,-0.3882,1.1,0.1,0.2,0.005,0,-0.018,1023
2018,4,24,22,27,37.799,-0.8865,0.0395,0.2483,-0.3882,1,0.2,0,0.007,0.003,-0.017,1023
2018,4,24,22,27,37.837,-0.8865,0.0393,0.2482,-0.3882,0.8,0.1,0.1,0.005,0.003,-0.011,1023
2018,4,24,22,27,37.859,-0.8865,0.0392,0.2482,-0.3883,0.6,0.1,0,0.008,0.003,-0.005,1023
2018,4,24,22,27,37.864,-0.8866,0.0392,0.2481,-0.3883,0,0,0,0.009,0.008,-0.01,1023
2018,4,24,22,27,37.88,-0.8866,0.0392,0.2482,-0.3883,-0.5,0.1,0,0.005,0.005,-0.013,1023
2018,4,24,22,27,37.901,-0.8865,0.0393,0.2482,-0.3882,0,0,0,0.004,0.001,-0.012,1023
2018,4,24,22,27,37.939,-0.8865,0.0393,0.2482,-0.3882,0,0,0,0.002,-0.001,-0.014,1023
2018,4,24,22,27,37.962,-0.8865,0.0394,0.2483,-0.3883,-0.7,-0.2,-0.6,0.001,0.005,-0.006,1023
2018,4,24,22,27,37.966,-0.8865,0.0396,0.2483,-0.3884,-1.6,-0.3,-0.7,0.007,0.008,-0.011,0
2018,4,24,22,27,37.98,-0.8864,0.0399,0.2483,-0.3884,-2.2,-0.6,-0.6,0.007,0.004,-0.004,0
2018,4,24,22,27,37.998,-0.8864,0.0404,0.2483,-0.3884,-2.5,-0.6,-0.5,0.009,0.006,-0.011,0
2018,4,24,22,27,38.022,-0.8864,0.0409,0.2483,-0.3883,-2.7,-0.8,-0.3,0.007,-0.001,-0.016,0
2018,4,24,22,27,38.057,-0.8864,0.0415,0.2484,-0.3883,-2.2,-0.7,-0.3,0.007,-0.002,-0.02,0
2018,4,24,22,27,38.08,-0.8864,0.0419,0.2485,-0.3882,-1.9,-0.4,-0.5,0.003,-0.005,-0.012,0
2018,4,24,22,27,38.085,-0.8863,0.0423,0.2485,-0.3883,-1.4,-0.3,-0.6,0.006,-0.004,-0.014,0
2018,4,24,22,27,38.104,-0.8863,0.0427,0.2486,-0.3883,-1,-0.3,-0.4,0.007,0.001,-0.013,0
2018,4,24,22,27,38.121,-0.8862,0.0429,0.2486,-0.3883,-0.7,-0.3,-0.2,0.007,-0.003,-0.011,0
2018,4,24,22,27,38.144,-0.8862,0.0431,0.2486,-0.3883,-0.6,-0.2,-0.1,0.005,0.003,-0.016,0
2018,4,24,22,27,38.165,-0.8862,0.0432,0.2486,-0.3883,0,0,0,0.009,-0.003,-0.016,0
2018,4,24,22,27,38.183,-0.8862,0.0432,0.2486,-0.3883,-0.6,-0.5,0,0.008,0.001,-0.011,0
2018,4,24,22,27,38.202,-0.8862,0.0434,0.2485,-0.3883,-0.9,-0.3,-0.2,0.009,0.004,-0.013,0
2018,4,24,22,27,38.221,-0.8862,0.0436,0.2486,-0.3883,-1,0,-0.2,0.006,0.001,-0.021,0
2018,4,24,22,27,38.245,-0.8862,0.0437,0.2486,-0.3883,0,0,0,0.004,0.002,-0.016,0
2018,4,24,22,27,38.262,-0.8862,0.0437,0.2487,-0.3883,0,0,0,0.007,0.002,-0.013,0
2018,4,24,22,27,38.285,-0.8862,0.0438,0.2487,-0.3883,-1,-0.2,0,0.006,0.003,-0.009,0
2018,4,24,22,27,38.303,-0.8862,0.044,0.2487,-0.3883,-0.9,-0.2,0,0.006,-0.001,-0.016,0
2018,4,24,22,27,38.322,-0.8862,0.0442,0.2487,-0.3882,-0.6,-0.2,0,0.008,0.001,-0.011,0
2018,4,24,22,27,38.345,-0.8862,0.0443,0.2486,-0.3882,0,0,0,0.01,0.001,-0.016,0
2018,4,24,22,27,38.363,-0.8862,0.0443,0.2486,-0.3882,0,0,0,0.005,0.001,-0.016,0
2018,4,24,22,27,38.388,-0.8862,0.0443,0.2486,-0.3882,0,0,0,0.005,0.001,-0.01,0
2018,4,24,22,27,38.402,-0.8862,0.0444,0.2486,-0.3882,0,0,0,0.006,0.002,-0.016,0
2018,4,24,22,27,38.421,-0.8862,0.0444,0.2486,-0.3882,0,0,0,0.005,0.003,-0.016,0
2018,4,24,22,27,38.444,-0.8862,0.0444,0.2486,-0.3883,0,0,0,0.005,0.006,-0.008,0
2018,4,24,22,27,38.479,-0.8862,0.0444,0.2486,-0.3883,0,0,0,0.01,0.001,-0.004,0
2018,4,24,22,27,38.5,-0.8862,0.0445,0.2486,-0.3883,0,0,0,0.01,0,-0.016,0
2018,4,24,22,27,38.507,-0.8862,0.0445,0.2486,-0.3883,0,0,0,0.006,0,-0.015,0
2018,4,24,22,27,38.525,-0.8862,0.0445,0.2486,-0.3883,0,0,0,0.005,0.002,-0.013,0
2018,4,24,22,27,38.547,-0.8861,0.0446,0.2487,-0.3883,-0.1,0.5,-0.4,0.006,0.004,-0.011,0
2018,4,24,22,27,38.567,-0.8861,0.0446,0.2487,-0.3884,-0.1,0.4,-0.6,0.006,0.004,-0.005,0
2018,4,24,22,27,38.587,-0.8861,0.0446,0.2487,-0.3884,0,0,0,0.013,0.008,-0.006,0
2018,4,24,22,27,38.603,-0.8861,0.0447,0.2487,-0.3884,-1.2,0,0.1,0.014,0.002,-0.011,0
2018,4,24,22,27,38.638,-0.8861,0.045,0.2487,-0.3883,-1.2,-0.2,0.2,0.012,-0.003,-0.015,1023
2018,4,24,22,27,38.661,-0.8861,0.0453,0.2488,-0.3883,-0.9,-0.1,0.2,0.006,-0.005,-0.012,1023
2018,4,24,22,27,38.665,-0.8861,0.0454,0.2489,-0.3882,0,0,0,0.001,-0.006,-0.016,1023
2018,4,24,22,27,38.702,-0.886,0.0455,0.2489,-0.3882,0.5,0.1,-0.1,0.003,-0.001,-0.016,1023
2018,4,24,22,27,38.723,-0.886,0.0454,0.2489,-0.3883,0.6,0,-0.2,0.007,0.005,-0.009,1023
2018,4,24,22,27,38.727,-0.886,0.0453,0.2488,-0.3883,0,0,0,0.01,0.007,-0.01,1023
2018,4,24,22,27,38.746,-0.8861,0.0453,0.2488,-0.3883,0,0,0,0.011,0.008,-0.007,1023
2018,4,24,22,27,38.782,-0.8861,0.0453,0.2487,-0.3884,0,0,0,0.009,0.005,-0.01,1023
2018,4,24,22,27,38.806,-0.8861,0.0453,0.2487,-0.3883,-0.5,-0.5,0,0.004,0.004,-0.017,1023
2018,4,24,22,27,38.811,-0.8861,0.0454,0.2487,-0.3883,-0.6,-0.4,0,0.001,0.001,-0.012,0
2018,4,24,22,27,38.827,-0.8861,0.0455,0.2487,-0.3883,-0.5,-0.3,-0.2,0.005,0.002,-0.012,0
2018,4,24,22,27,38.85,-0.8861,0.0456,0.2487,-0.3883,0,0,0,0.006,0,-0.02,0
2018,4,24,22,27,38.866,-0.8861,0.0457,0.2487,-0.3883,0,0,0,0.01,0.002,-0.011,0
2018,4,24,22,27,38.902,-0.8861,0.0457,0.2487,-0.3883,-0.5,-0.3,0,0.01,0,-0.011,0
2018,4,24,22,27,38.924,-0.8861,0.0459,0.2486,-0.3883,-0.9,-0.2,0,0.009,0.001,-0.013,0
2018,4,24,22,27,38.929,-0.8861,0.0461,0.2486,-0.3883,-0.6,-0.2,0.1,0.006,0,-0.016,0
2018,4,24,22,27,38.944,-0.8861,0.0462,0.2487,-0.3883,0,0,0,0.009,0,-0.012,0
2018,4,24,22,27,38.965,-0.8861,0.0463,0.2487,-0.3883,-0.9,0,0,0.008,0.001,-0.012,0
2018,4,24,22,27,39.004,-0.886,0.0464,0.2487,-0.3883,-0.5,0,0,0.006,0,-0.017,0
2018,4,24,22,27,39.025,-0.886,0.0465,0.2487,-0.3883,0,0,0,0.005,0.002,-0.016,0
2018,4,24,22,27,39.029,-0.886,0.0465,0.2487,-0.3883,0,0,0,0.007,0.003,-0.011,0
2018,4,24,22,27,39.047,-0.886,0.0465,0.2487,-0.3883,0,0,0,0.012,0.001,-0.012,0
2018,4,24,22,27,39.07,-0.886,0.0466,0.2487,-0.3883,0,0,0,0.01,0.001,-0.008,0
2018,4,24,22,27,39.087,-0.886,0.0466,0.2487,-0.3883,0,0,0,0.009,0.001,-0.015,0
2018,4,24,22,27,39.105,-0.886,0.0466,0.2487,-0.3883,0,0,0,0.003,0.002,-0.011,0
2018,4,24,22,27,39.128,-0.886,0.0466,0.2486,-0.3883,0,0,0,0.006,0.004,-0.014,0
2018,4,24,22,27,39.146,-0.886,0.0466,0.2486,-0.3883,0,0,0,0.007,0.006,-0.009,0
2018,4,24,22,27,39.169,-0.886,0.0466,0.2486,-0.3883,-0.6,-0.2,0.1,0.005,0.003,-0.011,0
2018,4,24,22,27,39.188,-0.8861,0.0467,0.2486,-0.3883,-0.5,-0.2,0.2,0.009,0.003,-0.011,0
2018,4,24,22,27,39.212,-0.8861,0.0468,0.2486,-0.3883,-0.5,-0.2,0.2,0.01,0,-0.011,0
2018,4,24,22,27,39.229,-0.8861,0.0469,0.2486,-0.3883,0,0,0,0.006,-0.001,-0.013,0
2018,4,24,22,27,39.247,-0.8861,0.0469,0.2486,-0.3883,0,0,0,0.008,0,-0.008,0
2018,4,24,22,27,39.271,-0.8861,0.0469,0.2486,-0.3883,0,0,0,0.006,0.005,-0.01,0
2018,4,24,22,27,39.289,-0.8861,0.0469,0.2486,-0.3883,0,0,0,0.006,0.001,-0.012,0
2018,4,24,22,27,39.325,-0.8861,0.0469,0.2485,-0.3883,0,0,0,0.012,0.003,-0.01,0
2018,4,24,22,27,39.347,-0.8861,0.0469,0.2485,-0.3883,-0.5,0.2,0,0.009,0.006,-0.015,0
2018,4,24,22,27,39.35,-0.886,0.0471,0.2485,-0.3883,-0.9,-0.1,-0.1,0.008,0.001,-0.006,0
2018,4,24,22,27,39.367,-0.886,0.0473,0.2486,-0.3883,-0.9,0,-0.2,0.009,0.001,-0.016,0
2018,4,24,22,27,39.39,-0.886,0.0475,0.2486,-0.3883,-0.5,0,0.2,0.006,-0.003,-0.011,0
2018,4,24,22,27,39.407,-0.886,0.0476,0.2486,-0.3883,0,0,0,0.006,0.002,-0.01,0
2018,4,24,22,27,39.43,-0.886,0.0475,0.2486,-0.3882,0.5,0.2,0.5,0.008,0,-0.014,1023
2018,4,24,22,27,39.448,-0.8861,0.0474,0.2486,-0.3882,0,0,0,0.011,0.001,-0.008,1023
2018,4,24,22,27,39.472,-0.8861,0.0474,0.2485,-0.3882,0,0,0,0.014,0.005,-0.008,1023
2018,4,24,22,27,39.508,-0.8861,0.0475,0.2485,-0.3882,-0.8,0.1,0,0.008,0.001,-0.012,1023
2018,4,24,22,27,39.529,-0.8861,0.0477,0.2486,-0.3881,-0.9,0.1,0,0.007,0,-0.016,1023
2018,4,24,22,27,39.533,-0.886,0.0479,0.2487,-0.3881,-0.5,0.2,0,0.003,-0.001,-0.013,1023
2018,4,24,22,27,39.551,-0.886,0.0479,0.2488,-0.3881,0,0,0,0.001,0.001,-0.016,1023
2018,4,24,22,27,39.569,-0.886,0.0479,0.2488,-0.3881,0,0,0,0.004,0.003,-0.008,0
2018,4,24,22,27,39.59,-0.886,0.0479,0.2488,-0.3881,0,0,0,0.001,0.005,-0.012,0
2018,4,24,22,27,39.627,-0.886,0.0478,0.2488,-0.3881,0,0,0,0.007,0.005,-0.011,0
2018,4,24,22,27,39.65,-0.886,0.0478,0.2488,-0.3881,0,0,0,0.007,0.003,-0.009,0
2018,4,24,22,27,39.655,-0.886,0.0479,0.2488,-0.3881,0,0,0,0.01,0,-0.017,0
2018,4,24,22,27,39.672,-0.8861,0.0479,0.2487,-0.3881,0.5,-0.2,0.6,0.013,-0.001,-0.013,0
2018,4,24,22,27,39.691,-0.8861,0.0478,0.2486,-0.388,0.8,-0.1,0.5,0.012,0.005,-0.012,0
2018,4,24,22,27,39.712,-0.8862,0.0477,0.2485,-0.388,0.7,0.2,0.5,0.011,0.001,-0.013,0
2018,4,24,22,27,39.751,-0.8862,0.0476,0.2484,-0.3879,0.7,0.4,0.2,0.015,0.005,-0.01,0
2018,4,24,22,27,39.751,-0.8862,0.0475,0.2484,-0.3879,0,0,0,0.014,0.005,-0.01,0
2018,4,24,22,27,39.774,-0.8862,0.0475,0.2484,-0.3879,0,0.8,0.5,0.015,0.006,-0.011,0
2018,4,24,22,27,39.791,-0.8863,0.0474,0.2485,-0.3878,0.4,1,0.6,0.011,0.003,-0.017,0
2018,4,24,22,27,39.811,-0.8862,0.0472,0.2486,-0.3878,1,1.3,0.5,0.009,-0.002,-0.015,0
2018,4,24,22,27,39.831,-0.8862,0.047,0.2487,-0.3878,1.1,0.8,0.4,0.002,-0.002,-0.014,0
2018,4,24,22,27,39.849,-0.8862,0.0468,0.2489,-0.3878,0.2,0.7,0.3,-0.001,-0.003,-0.013,0
2018,4,24,22,27,39.873,-0.8862,0.0467,0.2491,-0.3877,0.4,0.7,0.6,-0.001,-0.004,-0.016,0
2018,4,24,22,27,39.913,-0.8862,0.0465,0.2491,-0.3876,1.6,0.4,1,0.005,0.001,-0.014,0
2018,4,24,22,27,39.915,-0.8863,0.0461,0.2491,-0.3875,2.7,0.5,1.2,0.007,0.003,-0.013,0
2018,4,24,22,27,39.951,-0.8864,0.0455,0.249,-0.3875,2.9,0.5,1,0.009,0.008,-0.009,0
2018,4,24,22,27,39.951,-0.8864,0.045,0.2488,-0.3875,2.6,0.3,0.6,0.007,0.008,-0.009,0
2018,4,24,22,27,39.973,-0.8865,0.0445,0.2487,-0.3875,2,0.4,0.5,0.003,0.012,-0.009,0
2018,4,24,22,27,40.007,-0.8865,0.0441,0.2486,-0.3875,0.8,0,0.3,0,0.007,-0.002,0
2018,4,24,22,27,40.029,-0.8866,0.044,0.2485,-0.3874,-0.3,-0.6,0.4,0,0.009,-0.008,0
2018,4,24,22,27,40.034,-0.8867,0.0441,0.2485,-0.3873,-0.8,-1.1,0.5,0.008,0.008,-0.017,0
2018,4,24,22,27,40.05,-0.8868,0.0443,0.2483,-0.3871,-0.9,-1.7,0.8,0.009,0.006,-0.009,0
2018,4,24,22,27,40.073,-0.8869,0.0446,0.2481,-0.387,-1.1,-1.4,0.6,0.013,0,-0.012,0
2018,4,24,22,27,40.093,-0.887,0.045,0.2479,-0.3869,-1.3,-1.2,0.2,0.013,0,-0.012,0
2018,4,24,22,27,40.114,-0.887,0.0453,0.2479,-0.3868,-1.4,-0.9,0,0.013,-0.004,-0.016,0
2018,4,24,22,27,40.134,-0.887,0.0457,0.2478,-0.3868,-1.1,-0.5,-0.2,0.01,0,-0.013,0
2018,4,24,22,27,40.171,-0.887,0.0458,0.2478,-0.3868,-0.6,0,-0.3,0.006,0,-0.013,0
2018,4,24,22,27,40.194,-0.8869,0.046,0.2479,-0.3869,-0.5,0,-0.1,0.002,-0.001,-0.01,0
2018,4,24,22,27,40.198,-0.8869,0.046,0.2479,-0.3868,0,0,0,0.001,0.002,-0.012,1023
2018,4,24,22,27,40.214,-0.8869,0.046,0.248,-0.3868,0,0,0,0.004,0,-0.014,1023
2018,4,24,22,27,40.232,-0.8869,0.046,0.2479,-0.3868,0,0,0,0.007,0.003,-0.009,1023
2018,4,24,22,27,40.256,-0.887,0.046,0.2479,-0.3868,0.1,-0.3,0.7,0.009,0.007,-0.011,1023
2018,4,24,22,27,40.275,-0.887,0.046,0.2477,-0.3867,0,-0.5,0.7,0.015,0.002,-0.011,1023
2018,4,24,22,27,40.292,-0.8871,0.0461,0.2476,-0.3866,0,-0.2,1,0.017,0,-0.015,1023
2018,4,24,22,27,40.315,-0.8872,0.0461,0.2475,-0.3865,0,0,0,0.012,-0.003,-0.014,1023
2018,4,24,22,27,40.353,-0.8872,0.0462,0.2476,-0.3865,0,0,0,0.009,0,-0.022,1023
2018,4,24,22,27,40.376,-0.8871,0.0462,0.2477,-0.3865,0.5,0.7,-0.2,0.004,0,-0.018,0
2018,4,24,22,27,40.381,-0.887,0.0461,0.2478,-0.3867,1.2,0.8,-0.5,0,0,-0.018,0
2018,4,24,22,27,40.398,-0.887,0.0458,0.2479,-0.3868,1.6,0.7,-0.4,-0.001,0.003,-0.007,0
2018,4,24,22,27,40.415,-0.8869,0.0455,0.2478,-0.3869,1.1,0,-0.2,0.002,0.008,-0.004,0
2018,4,24,22,27,40.438,-0.887,0.0453,0.2477,-0.3869,0.1,-0.5,0,0.004,0.014,-0.006,0
2018,4,24,22,27,40.455,-0.887,0.0454,0.2476,-0.3869,-0.9,-0.8,0,0.006,0.007,-0.006,0
2018,4,24,22,27,40.472,-0.8871,0.0455,0.2475,-0.3868,-0.8,-0.9,0.1,0.007,0.003,-0.009,0
2018,4,24,22,27,40.495,-0.8871,0.0457,0.2474,-0.3868,-0.6,-1,0,0.005,0,-0.014,0
2018,4,24,22,27,40.532,-0.8871,0.0459,0.2473,-0.3868,-0.3,-0.9,0,0.01,0.003,-0.005,0
2018,4,24,22,27,40.556,-0.8871,0.046,0.2472,-0.3868,-0.5,-0.6,-0.1,0.004,0.003,-0.011,0
2018,4,24,22,27,40.56,-0.8872,0.0462,0.2471,-0.3868,-0.7,-0.4,0,0.012,0.003,-0.014,0
2018,4,24,22,27,40.579,-0.8872,0.0464,0.2471,-0.3868,-0.8,-0.3,-0.1,0.011,-0.001,-0.012,0
2018,4,24,22,27,40.597,-0.8871,0.0465,0.2471,-0.3868,0,0,0,0.007,-0.002,-0.018,0
2018,4,24,22,27,40.62,-0.8871,0.0466,0.2471,-0.3868,0,0,0,0.008,-0.002,-0.012,0
2018,4,24,22,27,40.637,-0.8871,0.0467,0.2471,-0.3868,0,0,0,0.013,0.003,-0.016,0
2018,4,24,22,27,40.66,-0.8871,0.0467,0.247,-0.3868,0,0,0,0.012,0,-0.014,0
2018,4,24,22,27,40.676,-0.8871,0.0468,0.247,-0.3868,0,0,0,0.006,0,-0.01,0
2018,4,24,22,27,40.695,-0.8871,0.0468,0.247,-0.3868,0,0,0,0.008,-0.002,-0.014,0
2018,4,24,22,27,40.718,-0.8871,0.0468,0.247,-0.3868,0.5,0,0.3,0.01,0,-0.013,0
2018,4,24,22,27,40.736,-0.8871,0.0467,0.247,-0.3868,0.8,0.1,0.2,0.009,0,-0.015,0
2018,4,24,22,27,40.759,-0.8872,0.0466,0.2469,-0.3869,0.6,0.1,0.1,0.009,0.005,-0.008,0
2018,4,24,22,27,40.777,-0.8872,0.0465,0.2468,-0.3869,0,0,0,0.008,0.008,-0.011,0
2018,4,24,22,27,40.799,-0.8872,0.0465,0.2468,-0.3869,0,0,0,0.009,0.005,-0.012,0
2018,4,24,22,27,40.819,-0.8872,0.0466,0.2467,-0.3868,-0.3,-0.5,0.5,0.006,0.004,-0.015,0
2018,4,24,22,27,40.856,-0.8873,0.0466,0.2467,-0.3868,-0.3,-0.5,0.2,0.01,0.002,-0.016,0
2018,4,24,22,27,40.879,-0.8873,0.0467,0.2466,-0.3867,0,0,0,0.005,0,-0.013,0
2018,4,24,22,27,40.884,-0.8873,0.0467,0.2466,-0.3867,0,-0.5,0,0.007,-0.001,-0.009,0
2018,4,24,22,27,40.897,-0.8873,0.0468,0.2466,-0.3867,0,0,0,0.006,0.002,-0.012,0
2018,4,24,22,27,40.915,-0.8873,0.0468,0.2465,-0.3868,0,0,0,0.007,0.005,-0.009,0
2018,4,24,22,27,40.937,-0.8873,0.0468,0.2465,-0.3868,0,0,0,0.007,0.005,-0.015,0
2018,4,24,22,27,40.955,-0.8873,0.0468,0.2465,-0.3868,0,0,0,0.004,0.007,-0.013,1023
2018,4,24,22,27,40.979,-0.8873,0.0468,0.2464,-0.3867,0,-0.6,0,0.009,0.003,-0.009,1023
2018,4,24,22,27,41.017,-0.8874,0.0468,0.2463,-0.3867,0,-0.6,0,0.008,0.002,-0.01,1023
2018,4,24,22,27,41.017,-0.8874,0.0469,0.2462,-0.3867,-0.4,-0.6,0.3,0.006,0.003,-0.011,1023
2018,4,24,22,27,41.039,-0.8875,0.0471,0.2461,-0.3866,-1,-0.7,0.2,0.01,0.004,-0.011,1023
2018,4,24,22,27,41.077,-0.8875,0.0473,0.246,-0.3866,-0.7,-0.2,0,0.011,-0.002,-0.01,1023
2018,4,24,22,27,41.077,-0.8875,0.0475,0.2461,-0.3865,-0.5,0,0.1,0.012,0,-0.013,1023
2018,4,24,22,27,41.098,-0.8875,0.0475,0.246,-0.3866,0,0,0,0.012,-0.001,-0.015,1023
2018,4,24,22,27,41.138,-0.8875,0.0476,0.246,-0.3866,0,0,0,0.012,0,-0.013,1023
2018,4,24,22,27,41.157,-0.8875,0.0476,0.246,-0.3866,0,0,0,0.009,0.002,-0.016,0
2018,4,24,22,27,41.161,-0.8875,0.0477,0.246,-0.3866,0,0,0,0.004,0.002,-0.012,0
2018,4,24,22,27,41.177,-0.8875,0.0477,0.246,-0.3866,0,0,0,0.001,0,-0.013,0
2018,4,24,22,27,41.197,-0.8875,0.0477,0.246,-0.3866,0,0,0,0.004,0.003,-0.013,0
2018,4,24,22,27,41.234,-0.8875,0.0477,0.246,-0.3866,0.7,0,0.3,0.005,0.006,-0.014,0
2018,4,24,22,27,41.253,-0.8875,0.0475,0.2459,-0.3866,0.5,-0.2,0.4,0.005,0.005,-0.011,0
2018,4,24,22,27,41.26,-0.8875,0.0475,0.2459,-0.3865,0,0.1,0.5,0.008,0.004,-0.012,0
2018,4,24,22,27,41.297,-0.8875,0.0475,0.2459,-0.3865,0,0,0,0.007,0,-0.017,0
2018,4,24,22,27,41.317,-0.8875,0.0476,0.2458,-0.3865,0,0,0,0.009,0,-0.012,0
2018,4,24,22,27,41.32,-0.8876,0.0476,0.2458,-0.3865,0,0,0,0.009,0.006,-0.011,0
2018,4,24,22,27,41.357,-0.8876,0.0476,0.2457,-0.3866,0,0,0,0.008,0.006,-0.012,0
2018,4,24,22,27,41.357,-0.8876,0.0476,0.2457,-0.3865,-0.5,0.1,0,0.006,0.004,-0.011,0
2018,4,24,22,27,41.379,-0.8876,0.0476,0.2457,-0.3865,0,0,0,0.004,0.002,-0.014,0
2018,4,24,22,27,41.416,-0.8876,0.0476,0.2457,-0.3865,0,0,0,0.004,0.003,-0.014,0
2018,4,24,22,27,41.437,-0.8875,0.0477,0.2458,-0.3866,-0.7,0,-0.2,0.007,0.007,-0.012,0
2018,4,24,22,27,41.439,-0.8875,0.0479,0.2458,-0.3866,-0.8,-0.3,-0.2,0.011,0.003,-0.012,0
2018,4,24,22,27,41.475,-0.8875,0.048,0.2457,-0.3866,-0.6,-0.5,0,0.007,0.001,-0.005,0
2018,4,24,22,27,41.495,-0.8876,0.0482,0.2457,-0.3865,-0.7,-0.6,0.1,0.008,0,-0.014,0
2018,4,24,22,27,41.501,-0.8876,0.0484,0.2456,-0.3865,-0.6,-0.5,0.1,0.005,-0.001,-0.015,0
2018,4,24,22,27,41.539,-0.8876,0.0485,0.2456,-0.3864,0.1,-0.6,0.1,0.007,0,-0.014,0
2018,4,24,22,27,41.559,-0.8876,0.0486,0.2455,-0.3864,0.5,-0.5,0,0.008,0.003,-0.007,0
2018,4,24,22,27,41.562,-0.8876,0.0486,0.2454,-0.3865,0,0,0,0.007,0.002,-0.011,0
2018,4,24,22,27,41.578,-0.8876,0.0486,0.2454,-0.3865,0,0,0,0.009,0.005,-0.011,0
2018,4,24,22,27,41.6,-0.8876,0.0486,0.2454,-0.3865,-0.5,0,-0.3,0.01,0.002,-0.014,0
2018,4,24,22,27,41.637,-0.8876,0.0487,0.2454,-0.3865,0,0,0,0.006,0,-0.014,0
2018,4,24,22,27,41.659,-0.8876,0.0488,0.2454,-0.3865,0,0.1,-0.5,0.008,0.001,-0.008,0
2018,4,24,22,27,41.661,-0.8876,0.0488,0.2454,-0.3865,0,0,0,0.008,0.003,-0.014,0
2018,4,24,22,27,41.699,-0.8876,0.0488,0.2453,-0.3865,0,0,0,0.005,0.004,-0.009,0
2018,4,24,22,27,41.722,-0.8876,0.0488,0.2453,-0.3865,0,0,0,0.004,0.006,-0.01,1023
2018,4,24,22,27,41.726,-0.8876,0.0489,0.2453,-0.3865,-0.8,-0.5,0,0.011,0.006,-0.007,1023
2018,4,24,22,27,41.744,-0.8876,0.0491,0.2452,-0.3865,-1.1,-0.3,-0.2,0.006,0,-0.013,1023
2018,4,24,22,27,41.763,-0.8876,0.0494,0.2453,-0.3865,-0.8,-0.2,-0.2,0.007,-0.002,-0.013,1023
2018,4,24,22,27,41.783,-0.8876,0.0494,0.2453,-0.3865,0,0,0,0.006,0,-0.013,1023
2018,4,24,22,27,41.823,-0.8876,0.0495,0.2453,-0.3865,0,0,0,0.007,0,-0.011,1023
2018,4,24,22,27,41.843,-0.8876,0.0495,0.2453,-0.3865,0,0,0,0.008,0.001,-0.015,1023
2018,4,24,22,27,41.848,-0.8876,0.0495,0.2453,-0.3865,0,0,0,0.007,0,-0.011,1023
2018,4,24,22,27,41.865,-0.8876,0.0495,0.2453,-0.3865,0.7,0.2,0,0.008,0.001,-0.011,1023
2018,4,24,22,27,41.882,-0.8876,0.0495,0.2453,-0.3865,0,0,0,0.011,0.004,-0.009,1023
2018,4,24,22,27,41.905,-0.8876,0.0495,0.2452,-0.3865,-0.5,0,0,0.008,0.003,-0.01,0
2018,4,24,22,27,41.941,-0.8876,0.0496,0.2453,-0.3865,-0.8,0,0,0.004,0.006,-0.011,0
2018,4,24,22,27,41.963,-0.8876,0.0497,0.2454,-0.3865,-0.6,0,-0.2,0,-0.002,-0.015,0
2018,4,24,22,27,41.968,-0.8875,0.0498,0.2454,-0.3865,0,0,0,0.002,0.004,-0.015,0
2018,4,24,22,27,41.985,-0.8875,0.0497,0.2454,-0.3866,0.9,0,0,0.002,0.004,-0.007,0
2018,4,24,22,27,42.007,-0.8876,0.0495,0.2453,-0.3866,0.5,0,0,0.009,0.006,-0.01,0
2018,4,24,22,27,42.025,-0.8876,0.0495,0.2453,-0.3866,0,0,0,0.009,0.005,-0.011,0
2018,4,24,22,27,42.048,-0.8876,0.0496,0.2453,-0.3866,0,0,0,0.006,0.002,-0.016,0
2018,4,24,22,27,42.063,-0.8876,0.0497,0.2452,-0.3866,-0.4,-0.5,0,0.007,0,-0.016,0
2018,4,24,22,27,42.101,-0.8876,0.0498,0.2451,-0.3866,-0.1,-0.5,0,0.01,0.003,-0.015,0
2018,4,24,22,27,42.123,-0.8876,0.0498,0.2451,-0.3866,0,0,0,0.01,0.002,-0.016,0
2018,4,24,22,27,42.127,-0.8876,0.0498,0.2451,-0.3866,0,0,0,0.008,0,-0.009,0
2018,4,24,22,27,42.144,-0.8876,0.0498,0.245,-0.3866,0,0,0,0.009,0.007,-0.012,0
2018,4,24,22,27,42.167,-0.8876,0.0499,0.245,-0.3866,0,0,0,0.012,0.001,-0.011,0
2018,4,24,22,27,42.186,-0.8876,0.0499,0.245,-0.3866,0,0,0,0.011,0.001,-0.011,0
2018,4,24,22,27,42.209,-0.8876,0.0499,0.2449,-0.3867,0,0,0,0.007,0.001,-0.013,0
2018,4,24,22,27,42.225,-0.8876,0.05,0.2449,-0.3867,0,0,0,0.004,0.001,-0.012,0
2018,4,24,22,27,42.246,-0.8876,0.05,0.245,-0.3867,0,0,0,0.002,0.002,-0.017,0
2018,4,24,22,27,42.284,-0.8876,0.05,0.245,-0.3866,0,0,0,0.007,0.003,-0.019,0
2018,4,24,22,27,42.284,-0.8876,0.05,0.245,-0.3867,0,0,0,0.006,0.004,-0.011,0
2018,4,24,22,27,42.308,-0.8876,0.05,0.2449,-0.3867,0,0,0,0.009,0.01,-0.005,0
2018,4,24,22,27,42.343,-0.8876,0.0499,0.2449,-0.3867,0,0,0,0.012,0.002,-0.009,0
2018,4,24,22,27,42.366,-0.8876,0.05,0.2448,-0.3867,0,0,0,0.006,0.002,-0.009,0
2018,4,24,22,27,42.371,-0.8876,0.05,0.2449,-0.3867,-0.1,0,0.5,0.004,0.001,-0.009,0
2018,4,24,22,27,42.388,-0.8876,0.0501,0.2449,-0.3866,-0.5,-0.2,0.1,0.003,-0.003,-0.017,0
2018,4,24,22,27,42.425,-0.8876,0.0501,0.245,-0.3866,0,0,0,0,0.003,-0.016,0
2018,4,24,22,27,42.449,-0.8876,0.0501,0.245,-0.3866,0,0,0,0.004,0.003,-0.014,0
2018,4,24,22,27,42.454,-0.8876,0.0501,0.245,-0.3866,0,0,0,0.007,0.009,-0.011,0
2018,4,24,22,27,42.47,-0.8876,0.05,0.2449,-0.3866,0,0,0,0.012,0.007,-0.013,0
2018,4,24,22,27,42.488,-0.8876,0.0501,0.2449,-0.3866,0,0,0,0.01,0.004,-0.014,1023
2018,4,24,22,27,42.511,-0.8876,0.0501,0.2449,-0.3866,-0.6,-0.4,0.1,0.005,0,-0.011,1023
2018,4,24,22,27,42.528,-0.8876,0.0503,0.2449,-0.3866,-1.1,-0.3,-0.2,0.006,0,-0.015,1023
2018,4,24,22,27,42.546,-0.8876,0.0506,0.2449,-0.3866,-0.8,0,-0.2,0.007,0,-0.019,1023
2018,4,24,22,27,42.57,-0.8876,0.0507,0.2449,-0.3866,0,0,0,0.008,0,-0.016,1023
2018,4,24,22,27,42.588,-0.8876,0.0506,0.2449,-0.3866,0.9,0.2,0.3,0.008,-0.003,-0.013,1023
2018,4,24,22,27,42.626,-0.8876,0.0505,0.2449,-0.3866,0.8,0.5,0.3,0.008,0.004,-0.011,1023
2018,4,24,22,27,42.649,-0.8876,0.0504,0.2449,-0.3866,0.4,0.5,0.3,0.012,0,-0.012,1023
2018,4,24,22,27,42.654,-0.8876,0.0503,0.2449,-0.3866,0,0,0,0.011,-0.002,-0.017,1023
2018,4,24,22,27,42.67,-0.8876,0.0503,0.2449,-0.3866,0.6,0.5,0.5,0.01,-0.003,-0.016,1023
2018,4,24,22,27,42.688,-0.8876,0.0502,0.245,-0.3865,1.2,0.5,0.6,0.007,0.001,-0.014,0
2018,4,24,22,27,42.711,-0.8877,0.0499,0.245,-0.3865,1.5,0.8,0.6,0.004,-0.001,-0.014,0
2018,4,24,22,27,42.749,-0.8877,0.0496,0.2451,-0.3865,1.8,0.8,0.5,0.005,0.001,-0.01,0
2018,4,24,22,27,42.772,-0.8877,0.0492,0.2451,-0.3865,1.8,0.9,0.6,0.005,0.003,-0.017,0
2018,4,24,22,27,42.778,-0.8877,0.0488,0.2451,-0.3865,1.8,0.9,0.5,0.008,0.01,-0.008,0
2018,4,24,22,27,42.791,-0.8877,0.0484,0.2451,-0.3865,1.5,0.6,0.5,0.007,0.001,-0.01,0
2018,4,24,22,27,42.808,-0.8878,0.0481,0.2451,-0.3865,1.2,0.4,0.3,0.003,0.009,-0.009,0
2018,4,24,22,27,42.83,-0.8878,0.048,0.245,-0.3865,0,0,0,0.003,0.006,-0.01,0
2018,4,24,22,27,42.848,-0.8878,0.0479,0.2451,-0.3864,0,0,0,0.003,0.005,-0.014,0
2018,4,24,22,27,42.87,-0.8878,0.0479,0.2451,-0.3864,0,0,0,0.003,0.008,-0.007,0
2018,4,24,22,27,42.908,-0.8878,0.0479,0.245,-0.3864,0,0,0,0.005,0.007,-0.006,0
2018,4,24,22,27,42.929,-0.8878,0.0479,0.245,-0.3864,-0.7,-0.2,0.1,0.007,0.002,-0.011,0
2018,4,24,22,27,42.931,-0.8878,0.0481,0.245,-0.3864,-0.6,-0.2,0,0.008,0.001,-0.011,0
2018,4,24,22,27,42.965,-0.8878,0.0483,0.245,-0.3863,-0.8,-0.2,0,0.008,0.002,-0.013,0
2018,4,24,22,27,42.989,-0.8878,0.0484,0.245,-0.3864,-0.6,0,-0.1,0.005,0.002,-0.01,0
2018,4,24,22,27,42.991,-0.8878,0.0485,0.2451,-0.3864,0,0,0,0.008,0,-0.016,0
2018,4,24,22,27,43.008,-0.8878,0.0486,0.2451,-0.3864,0,0,0,0.005,-0.001,-0.014,0
2018,4,24,22,27,43.03,-0.8878,0.0486,0.2451,-0.3864,0,0,0,0.007,0,-0.008,0
2018,4,24,22,27,43.069,-0.8878,0.0486,0.2451,-0.3864,0,0,0,0.005,0.005,-0.009,0
2018,4,24,22,27,43.091,-0.8878,0.0486,0.245,-0.3864,0,0,0,0.009,0.004,-0.006,0
