time_1,time_2,time_3,time_4,time_5,time_6,w,x,y,z,droll,dpitch,dyaw,ax,ay,az,heart
2018,4,24,22,3,6.349,0.1333,0.1877,-0.971,-0.0634,-0.6,-0.8,-0.5,0,0,-0.01,0
2018,4,24,22,3,6.35,0.1334,0.1877,-0.971,-0.0635,-0.1,-0.6,-0.5,-0.001,0.003,-0.013,0
2018,4,24,22,3,6.358,0.1336,0.1876,-0.971,-0.0634,0.1,-0.8,-0.2,-0.002,0.01,-0.015,0
2018,4,24,22,3,6.394,0.1337,0.1877,-0.9709,-0.0636,-0.2,-0.5,0,0,0.008,-0.022,0
2018,4,24,22,3,6.394,0.1338,0.1878,-0.9709,-0.0636,-0.3,-0.6,0.2,-0.004,0.004,-0.019,0
2018,4,24,22,3,6.415,0.1339,0.1878,-0.9709,-0.0636,-0.2,-0.5,0,-0.004,0.001,-0.017,1023
2018,4,24,22,3,6.453,0.134,0.1878,-0.9709,-0.0635,-0.3,-0.5,-0.2,-0.001,0,-0.021,1023
2018,4,24,22,3,6.473,0.134,0.1878,-0.9709,-0.0634,-0.5,0,-0.4,0.001,0.003,-0.02,1023
2018,4,24,22,3,6.477,0.1339,0.1877,-0.9709,-0.0634,0,0,0,0,0.004,-0.019,1023
2018,4,24,22,3,6.514,0.1338,0.1877,-0.9709,-0.0635,-0.3,0.8,-0.2,-0.002,0.003,-0.018,1023
2018,4,24,22,3,6.537,0.1336,0.1878,-0.9709,-0.0637,-0.2,0.8,0.3,0,0.002,-0.017,1023
2018,4,24,22,3,6.542,0.1335,0.1879,-0.9709,-0.0637,-0.1,0.7,0.3,-0.005,-0.003,-0.012,0
2018,4,24,22,3,6.56,0.1334,0.1879,-0.9709,-0.0637,0.1,0.7,0,-0.006,-0.003,-0.01,0
2018,4,24,22,3,6.598,0.1333,0.188,-0.9709,-0.0637,0.2,0.7,-0.1,-0.008,-0.005,-0.004,0
2018,4,24,22,3,6.621,0.1332,0.1881,-0.9709,-0.0637,0,0.5,-0.4,-0.004,-0.001,0.001,0
2018,4,24,22,3,6.626,0.1332,0.188,-0.9709,-0.0636,0,-0.2,-0.7,-0.006,-0.001,0,0
2018,4,24,22,3,6.641,0.1334,0.1879,-0.9709,-0.0636,0,-0.9,-0.7,-0.008,0.003,-0.005,0
2018,4,24,22,3,6.664,0.1337,0.1878,-0.9709,-0.0635,-0.4,-1.2,-0.8,-0.005,0.007,0,0
2018,4,24,22,3,6.681,0.1341,0.1877,-0.9709,-0.0636,-1,-1.5,-0.8,-0.003,0.006,-0.009,0
2018,4,24,22,3,6.7,0.1344,0.1875,-0.9709,-0.0637,-1.2,-1.2,-0.7,-0.004,0.004,-0.016,0
2018,4,24,22,3,6.718,0.1345,0.1875,-0.9708,-0.0638,-0.9,-0.8,-0.6,-0.006,-0.001,-0.022,0
2018,4,24,22,3,6.74,0.1347,0.1874,-0.9708,-0.0639,-0.3,-0.3,-0.8,-0.002,0.006,-0.031,0
2018,4,24,22,3,6.759,0.1346,0.1874,-0.9708,-0.0641,0.2,0.4,-0.8,0,0.009,-0.028,0
2018,4,24,22,3,6.781,0.1344,0.1874,-0.9709,-0.064,1.4,1.2,0.1,0,0.014,-0.024,0
2018,4,24,22,3,6.799,0.134,0.1876,-0.9709,-0.0639,2.1,1.9,1.1,-0.002,0.018,-0.021,0
2018,4,24,22,3,6.823,0.1335,0.188,-0.9709,-0.0638,2.1,2.3,1.9,-0.006,0.016,-0.017,0
2018,4,24,22,3,6.84,0.1331,0.1885,-0.9709,-0.0637,1.9,2.1,2.2,-0.01,0.01,-0.011,0
2018,4,24,22,3,6.864,0.1328,0.1889,-0.9708,-0.0635,1.8,1.5,2.1,-0.016,0.002,-0.007,0
2018,4,24,22,3,6.88,0.1326,0.1893,-0.9708,-0.0633,1.1,1,1.6,-0.011,0.001,0,0
2018,4,24,22,3,6.898,0.1326,0.1896,-0.9707,-0.0632,0.3,0.3,1.2,-0.004,-0.002,0.006,0
2018,4,24,22,3,6.921,0.1326,0.1899,-0.9707,-0.0632,0.2,-0.3,0.9,-0.006,-0.005,0.001,0
2018,4,24,22,3,6.939,0.1327,0.1901,-0.9706,-0.0631,0.4,-0.9,0.6,-0.005,-0.004,-0.003,0
2018,4,24,22,3,6.961,0.133,0.1903,-0.9706,-0.0629,-0.1,-1.6,0.3,-0.006,-0.004,-0.013,0
2018,4,24,22,3,6.979,0.1333,0.1904,-0.9705,-0.063,-0.6,-1.7,0.1,-0.003,-0.007,-0.014,0
2018,4,24,22,3,7.002,0.1336,0.1903,-0.9705,-0.0627,-0.7,-1.5,0,0,-0.003,-0.019,0
2018,4,24,22,3,7.04,0.1338,0.1905,-0.9704,-0.0629,-0.1,-0.9,-0.2,0.006,-0.002,-0.016,0
2018,4,24,22,3,7.061,0.1338,0.1904,-0.9704,-0.0628,0,0,0,0.009,-0.004,-0.019,0
2018,4,24,22,3,7.066,0.1337,0.1904,-0.9705,-0.0626,0.4,-0.2,-0.7,0.006,-0.006,-0.022,0
2018,4,24,22,3,7.081,0.1337,0.1904,-0.9705,-0.0624,0.5,0.1,-0.5,-0.004,-0.005,-0.023,0
2018,4,24,22,3,7.118,0.1337,0.1903,-0.9705,-0.0623,0.1,0.1,-0.8,-0.015,0,-0.017,0
2018,4,24,22,3,7.141,0.1338,0.1901,-0.9705,-0.0622,-0.5,0,-1.3,-0.012,0.003,-0.019,0
2018,4,24,22,3,7.145,0.1339,0.1899,-0.9706,-0.0623,-0.5,-0.2,-1.6,-0.002,0.006,-0.015,0
2018,4,24,22,3,7.163,0.134,0.1897,-0.9706,-0.0622,0.1,-0.3,-1.1,0.002,0.015,-0.009,1023
2018,4,24,22,3,7.182,0.1341,0.1896,-0.9706,-0.0623,0,0,0,0,0.018,-0.003,1023
2018,4,24,22,3,7.205,0.1342,0.1896,-0.9706,-0.0623,0,0,0,-0.006,0.018,-0.009,1023
2018,4,24,22,3,7.224,0.1343,0.1896,-0.9706,-0.0623,0,-0.4,0.5,-0.01,0.009,-0.005,1023
2018,4,24,22,3,7.261,0.1345,0.1897,-0.9705,-0.0622,-0.3,-0.7,0.4,-0.01,0,-0.012,1023
2018,4,24,22,3,7.285,0.1347,0.1897,-0.9705,-0.0622,-0.5,-0.8,0,-0.002,0.002,-0.012,1023
2018,4,24,22,3,7.289,0.1348,0.1897,-0.9705,-0.0622,-0.1,-0.5,0,0,0,-0.015,1023
2018,4,24,22,3,7.308,0.1348,0.1898,-0.9705,-0.0622,0,-0.5,0,0.001,0.002,-0.018,0
2018,4,24,22,3,7.325,0.1348,0.1897,-0.9705,-0.062,0,0,0,-0.003,0.005,-0.024,0
2018,4,24,22,3,7.348,0.1348,0.1897,-0.9705,-0.0619,0,0,0,-0.006,0.001,-0.024,0
2018,4,24,22,3,7.363,0.1348,0.1897,-0.9705,-0.0618,0,0,0,-0.002,0,-0.014,0
2018,4,24,22,3,7.384,0.1348,0.1898,-0.9705,-0.0617,0.5,0.5,0.2,-0.001,0.002,-0.018,0
2018,4,24,22,3,7.401,0.1346,0.1899,-0.9705,-0.0617,0.6,0.4,0.2,-0.002,0.002,-0.012,0
2018,4,24,22,3,7.425,0.1346,0.1899,-0.9705,-0.0614,0.7,0.4,0.2,-0.004,0,-0.006,0
2018,4,24,22,3,7.442,0.1345,0.19,-0.9705,-0.0612,0.7,0.2,0.2,-0.007,0.002,-0.006,0
2018,4,24,22,3,7.465,0.1346,0.19,-0.9705,-0.0611,0,0,0,-0.008,0.002,-0.006,0
2018,4,24,22,3,7.483,0.1347,0.19,-0.9705,-0.061,0.2,-0.5,-0.3,-0.006,0.002,-0.006,0
2018,4,24,22,3,7.507,0.1348,0.19,-0.9705,-0.0609,-0.3,-0.6,-0.4,-0.002,0.004,-0.007,0
2018,4,24,22,3,7.543,0.1349,0.1899,-0.9705,-0.061,-0.6,-0.9,-0.2,-0.004,0.003,-0.009,0
2018,4,24,22,3,7.565,0.1351,0.1899,-0.9705,-0.061,-0.8,-1,0,-0.003,0.001,-0.012,0
2018,4,24,22,3,7.569,0.1353,0.19,-0.9704,-0.0612,-0.8,-0.9,-0.2,-0.005,-0.002,-0.021,0
2018,4,24,22,3,7.585,0.1355,0.1899,-0.9704,-0.0612,-0.6,-0.5,-0.5,-0.003,-0.002,-0.014,0
2018,4,24,22,3,7.604,0.1355,0.1899,-0.9704,-0.0612,-0.1,-0.2,-0.5,-0.001,0,-0.021,0
2018,4,24,22,3,7.623,0.1355,0.1898,-0.9704,-0.0611,0,0,0,0.001,0.004,-0.022,0
2018,4,24,22,3,7.645,0.1355,0.1898,-0.9704,-0.061,0,0,0,-0.004,0.005,-0.018,0
2018,4,24,22,3,7.663,0.1355,0.1898,-0.9704,-0.0609,0,0,0,-0.006,0.005,-0.015,0
2018,4,24,22,3,7.687,0.1356,0.1898,-0.9704,-0.0608,0,0,0,-0.008,0.006,-0.011,0
2018,4,24,22,3,7.705,0.1357,0.1898,-0.9704,-0.0608,0,0,0,-0.008,0.007,-0.01,0
2018,4,24,22,3,7.728,0.1357,0.1898,-0.9704,-0.0608,0,0,0,-0.006,0.004,-0.01,0
2018,4,24,22,3,7.747,0.1358,0.1898,-0.9704,-0.0608,0,0,0,-0.004,0.006,-0.013,0
2018,4,24,22,3,7.77,0.1358,0.1898,-0.9704,-0.0607,0,0,0,-0.006,0.006,-0.013,0
2018,4,24,22,3,7.786,0.1358,0.1898,-0.9704,-0.0607,-0.2,-0.2,0.5,-0.001,0.009,-0.013,0
2018,4,24,22,3,7.803,0.1359,0.1899,-0.9704,-0.0607,0,0,0.6,-0.005,0.001,-0.012,0
2018,4,24,22,3,7.826,0.1359,0.1901,-0.9703,-0.0607,0,0,0,-0.001,0.003,-0.014,0
2018,4,24,22,3,7.844,0.1359,0.1902,-0.9703,-0.0609,-0.5,0,0.5,0.001,-0.004,-0.017,0
2018,4,24,22,3,7.868,0.1359,0.1902,-0.9703,-0.0608,0,0,0,0.001,-0.008,-0.014,0
2018,4,24,22,3,7.885,0.1358,0.1902,-0.9703,-0.0606,0,0,0,-0.002,-0.006,-0.011,0
2018,4,24,22,3,7.908,0.1358,0.1902,-0.9704,-0.0604,0.5,0.5,-0.1,-0.005,-0.006,-0.013,0
2018,4,24,22,3,7.925,0.1357,0.1903,-0.9704,-0.0604,0.6,0.5,-0.2,-0.008,-0.005,-0.018,0
2018,4,24,22,3,7.948,0.1357,0.1903,-0.9704,-0.0603,0.5,0.2,-0.6,-0.008,-0.001,-0.015,0
2018,4,24,22,3,7.966,0.1356,0.1903,-0.9704,-0.0603,0.4,0,-0.7,-0.006,0.002,-0.009,1023
2018,4,24,22,3,7.988,0.1356,0.1903,-0.9704,-0.0603,0.5,-0.2,-0.4,-0.001,0.004,0,1023
2018,4,24,22,3,8.006,0.1357,0.1903,-0.9704,-0.0603,0.2,-0.5,-0.2,-0.001,0.01,-0.006,1023
2018,4,24,22,3,8.044,0.1359,0.1904,-0.9703,-0.0604,-0.1,-0.8,0,-0.009,0.004,-0.006,1023
2018,4,24,22,3,8.068,0.1362,0.1904,-0.9703,-0.0604,-0.3,-1.2,-0.2,-0.008,-0.002,-0.012,1023
2018,4,24,22,3,8.072,0.1364,0.1904,-0.9702,-0.0605,-0.5,-1.4,-0.3,-0.005,0.001,-0.013,1023
2018,4,24,22,3,8.087,0.1367,0.1903,-0.9702,-0.0605,-0.5,-1.4,-0.7,-0.003,0,-0.018,1023
2018,4,24,22,3,8.125,0.1369,0.1903,-0.9702,-0.0606,-0.3,-1.1,-0.7,-0.001,0.004,-0.018,1023
2018,4,24,22,3,8.148,0.1371,0.1903,-0.9702,-0.0606,0.2,-0.8,-0.5,0.002,0.003,-0.022,1023
2018,4,24,22,3,8.153,0.1371,0.1903,-0.9702,-0.0606,0.5,-0.2,-0.2,-0.001,0.01,-0.019,1023
2018,4,24,22,3,8.169,0.137,0.1904,-0.9701,-0.0606,0.5,0.4,0.2,-0.002,0.01,-0.022,1023
2018,4,24,22,3,8.192,0.1368,0.1906,-0.9701,-0.0607,0.8,0.5,0.6,-0.002,0.005,-0.022,0
2018,4,24,22,3,8.209,0.1367,0.1908,-0.9701,-0.0607,0.9,0.8,0.6,-0.004,0.004,-0.013,0
2018,4,24,22,3,8.232,0.1365,0.191,-0.9701,-0.0606,1,0.5,0.5,-0.007,0.002,-0.007,0
2018,4,24,22,3,8.251,0.1365,0.1912,-0.9701,-0.0605,0.8,0.2,0.6,-0.009,0.004,-0.012,0
2018,4,24,22,3,8.273,0.1365,0.1914,-0.97,-0.0604,0.5,0.1,0.7,-0.008,0.003,-0.004,0
2018,4,24,22,3,8.29,0.1365,0.1916,-0.97,-0.0606,0.2,-0.2,0.6,-0.005,0.003,-0.006,0
2018,4,24,22,3,8.307,0.1366,0.1917,-0.97,-0.0604,0.2,-0.5,0.6,-0.006,0,-0.01,0
2018,4,24,22,3,8.33,0.1367,0.1918,-0.9699,-0.0603,-0.1,-0.8,0.3,-0.006,-0.002,-0.009,0
2018,4,24,22,3,8.348,0.1369,0.1919,-0.9699,-0.0604,-0.6,-0.9,0,-0.006,0.001,-0.019,0
2018,4,24,22,3,8.371,0.137,0.192,-0.9698,-0.0604,-0.5,-0.6,0,-0.003,-0.003,-0.015,0
2018,4,24,22,3,8.389,0.1371,0.192,-0.9698,-0.0604,-0.5,-0.5,-0.2,0,-0.001,-0.019,0
2018,4,24,22,3,8.412,0.1371,0.192,-0.9698,-0.0605,-0.6,-0.2,-0.2,0.003,0,-0.023,0
2018,4,24,22,3,8.43,0.1371,0.1919,-0.9698,-0.0605,0,0,0,0.001,0,-0.021,0
2018,4,24,22,3,8.452,0.137,0.1919,-0.9699,-0.0604,0.1,0.5,-0.3,-0.003,-0.002,-0.02,0
2018,4,24,22,3,8.468,0.1368,0.1919,-0.9699,-0.0604,0.4,0.8,-0.5,0,0.003,-0.018,0
2018,4,24,22,3,8.505,0.1366,0.1919,-0.9699,-0.0605,0.3,1.2,-0.7,-0.002,0,-0.011,0
2018,4,24,22,3,8.528,0.1364,0.1919,-0.9699,-0.0605,0.5,1.2,-0.8,-0.006,0.004,-0.005,0
2018,4,24,22,3,8.532,0.1363,0.1918,-0.97,-0.0605,0.3,0.6,-0.5,-0.006,0.007,-0.008,0
2018,4,24,22,3,8.548,0.1363,0.1918,-0.97,-0.0604,0,0,0,-0.009,0.009,-0.013,0
2018,4,24,22,3,8.571,0.1364,0.1918,-0.97,-0.0604,0,0,0,-0.008,0.009,-0.009,0
2018,4,24,22,3,8.607,0.1365,0.1918,-0.9699,-0.0604,0,0,0,-0.007,0.009,-0.009,0
2018,4,24,22,3,8.63,0.1367,0.1918,-0.9699,-0.0606,-0.6,-0.5,0,-0.006,0.004,-0.007,0
2018,4,24,22,3,8.635,0.1367,0.1919,-0.9699,-0.0607,-0.5,-0.3,0.5,-0.001,0.005,-0.014,0
2018,4,24,22,3,8.651,0.1367,0.1919,-0.9699,-0.0606,0.2,0.1,0.6,0,0.002,-0.014,0
2018,4,24,22,3,8.674,0.1366,0.1922,-0.9698,-0.0607,0.4,0.2,0.5,0.002,-0.001,-0.012,0
2018,4,24,22,3,8.69,0.1365,0.1923,-0.9698,-0.0606,0.6,0.2,0.4,-0.003,0,-0.013,0
2018,4,24,22,3,8.728,0.1365,0.1924,-0.9698,-0.0604,0,0,0,-0.007,0,-0.02,0
2018,4,24,22,3,8.751,0.1365,0.1925,-0.9698,-0.0603,0,0,0,-0.009,0.004,-0.015,0
2018,4,24,22,3,8.755,0.1366,0.1925,-0.9698,-0.0602,-0.6,-0.1,0.2,-0.006,0,-0.013,1023
2018,4,24,22,3,8.771,0.1366,0.1925,-0.9698,-0.0602,0,0,0,0.002,-0.002,-0.014,1023
2018,4,24,22,3,8.794,0.1366,0.1925,-0.9698,-0.06,0,0,0,0.005,0.003,-0.006,1023
2018,4,24,22,3,8.811,0.1366,0.1925,-0.9698,-0.0599,0,0,0,0,0.001,-0.011,1023
2018,4,24,22,3,8.834,0.1366,0.1924,-0.9698,-0.0598,0,0,0,-0.004,-0.004,-0.013,1023
2018,4,24,22,3,8.852,0.1366,0.1925,-0.9698,-0.0597,0,0,0,-0.008,-0.006,-0.01,1023
2018,4,24,22,3,8.875,0.1366,0.1924,-0.9699,-0.0596,-0.5,0,-0.7,-0.005,-0.005,-0.011,1023
2018,4,24,22,3,8.893,0.1367,0.1923,-0.9699,-0.0596,-0.5,-0.2,-1.4,-0.004,0,-0.016,1023
2018,4,24,22,3,8.916,0.1367,0.1922,-0.9699,-0.0598,-0.1,-0.3,-1.2,-0.002,0.002,-0.016,1023
2018,4,24,22,3,8.935,0.1367,0.1921,-0.9699,-0.06,-0.1,0,-0.9,0.001,0.01,-0.011,0
2018,4,24,22,3,8.959,0.1367,0.192,-0.9699,-0.0601,0,0.1,-0.7,-0.002,0.011,-0.014,0
2018,4,24,22,3,8.974,0.1367,0.192,-0.9699,-0.0601,0.1,0.2,-0.5,-0.007,0.011,-0.015,0
2018,4,24,22,3,9.009,0.1368,0.192,-0.9699,-0.0601,0,0,0,-0.009,0.009,-0.013,0
2018,4,24,22,3,9.009,0.1368,0.192,-0.9699,-0.0601,0,0,0,-0.005,0.01,-0.013,0
2018,4,24,22,3,9.032,0.1368,0.192,-0.9699,-0.0601,0.4,0,0.5,-0.005,0.008,-0.015,0
2018,4,24,22,3,9.07,0.1368,0.1922,-0.9698,-0.0602,0.5,-0.2,0.9,-0.006,0.003,-0.008,0
2018,4,24,22,3,9.093,0.1369,0.1924,-0.9698,-0.06,0.6,-0.3,0.9,-0.006,0.002,-0.011,0
2018,4,24,22,3,9.098,0.137,0.1926,-0.9698,-0.0599,0.7,-0.4,0.7,-0.005,0,-0.007,0
2018,4,24,22,3,9.113,0.1371,0.1928,-0.9697,-0.0599,0.4,-0.6,0.5,-0.001,0.002,-0.011,0
2018,4,24,22,3,9.137,0.1372,0.1929,-0.9697,-0.0597,0,-0.9,0.5,-0.001,0,-0.014,0
2018,4,24,22,3,9.173,0.1373,0.1931,-0.9696,-0.0597,-0.1,-1.1,0.3,-0.001,-0.003,-0.012,0
2018,4,24,22,3,9.173,0.1375,0.1932,-0.9696,-0.0598,-0.7,-1.2,0.1,-0.004,-0.006,-0.019,0
2018,4,24,22,3,9.196,0.1377,0.1932,-0.9695,-0.0597,-0.5,-1,-0.2,-0.006,-0.008,-0.025,0
2018,4,24,22,3,9.215,0.1379,0.1931,-0.9695,-0.0596,0,-0.6,-0.6,-0.002,-0.004,-0.021,0
2018,4,24,22,3,9.251,0.1379,0.1929,-0.9696,-0.0593,0.1,0,-0.8,-0.003,0.001,-0.022,0
2018,4,24,22,3,9.273,0.1379,0.1928,-0.9696,-0.0592,0.7,0.2,-0.9,-0.002,0.002,-0.022,0
2018,4,24,22,3,9.278,0.1378,0.1927,-0.9697,-0.059,0.8,0.6,-0.6,-0.002,0.006,-0.014,0
2018,4,24,22,3,9.295,0.1377,0.1927,-0.9697,-0.059,0.6,0.5,-0.5,-0.002,0.011,-0.014,0
2018,4,24,22,3,9.316,0.1376,0.1927,-0.9697,-0.0589,0,0,0,-0.01,0.006,-0.013,0
2018,4,24,22,3,9.337,0.1377,0.1927,-0.9697,-0.0589,0,0,0,-0.012,0.009,-0.014,0
2018,4,24,22,3,9.355,0.1378,0.1927,-0.9697,-0.0589,-0.5,-0.3,-0.2,-0.006,0.009,-0.013,0
2018,4,24,22,3,9.378,0.1379,0.1926,-0.9697,-0.0589,0,0,0,-0.004,0.007,-0.015,0
2018,4,24,22,3,9.395,0.1379,0.1927,-0.9696,-0.0591,-0.5,0,0,0.001,0.008,-0.013,0
2018,4,24,22,3,9.413,0.1379,0.1927,-0.9697,-0.059,0,0,0,0,0.01,-0.019,0
2018,4,24,22,3,9.436,0.1379,0.1927,-0.9697,-0.059,0,0,0,-0.002,0.006,-0.011,0
2018,4,24,22,3,9.472,0.1378,0.1928,-0.9696,-0.059,0.2,0.8,0.4,-0.001,0.004,-0.017,0
2018,4,24,22,3,9.495,0.1376,0.193,-0.9696,-0.0591,0.5,1,0.6,-0.005,0.002,-0.012,0
2018,4,24,22,3,9.5,0.1374,0.1932,-0.9696,-0.0591,0.9,0.9,0.8,-0.005,-0.005,-0.016,0
2018,4,24,22,3,9.516,0.1372,0.1934,-0.9696,-0.0589,0.9,0.7,0.6,-0.009,-0.007,-0.013,0
2018,4,24,22,3,9.552,0.1371,0.1936,-0.9696,-0.0588,1,0.4,0.1,-0.01,0,-0.004,0
2018,4,24,22,3,9.576,0.1371,0.1937,-0.9696,-0.0587,0.5,-0.2,0,-0.007,0.002,-0.007,1023
2018,4,24,22,3,9.579,0.1372,0.1938,-0.9696,-0.0587,0.1,-0.6,0,0,0.008,0,1023
2018,4,24,22,3,9.597,0.1373,0.1939,-0.9695,-0.0588,-0.4,-0.8,0.3,0.003,0.011,-0.004,1023
2018,4,24,22,3,9.621,0.1375,0.194,-0.9695,-0.059,-0.6,-1.1,0.5,-0.004,0.003,-0.01,1023
2018,4,24,22,3,9.638,0.1377,0.1942,-0.9694,-0.059,-0.4,-1.1,0.6,-0.006,-0.003,-0.014,1023
2018,4,24,22,3,9.657,0.138,0.1943,-0.9693,-0.059,-0.9,-1.2,0,-0.007,0,-0.014,1023
2018,4,24,22,3,9.676,0.1382,0.1943,-0.9693,-0.0591,-0.5,-1.2,-0.4,-0.007,-0.001,-0.023,1023
2018,4,24,22,3,9.697,0.1384,0.1942,-0.9693,-0.059,-0.6,-0.6,-0.8,0,-0.001,-0.019,1023
2018,4,24,22,3,9.735,0.1384,0.1941,-0.9693,-0.059,-0.2,-0.4,-0.7,0,0.004,-0.023,1023
2018,4,24,22,3,9.758,0.1384,0.194,-0.9693,-0.0589,0,0,0,0.001,0.006,-0.024,0
2018,4,24,22,3,9.763,0.1383,0.194,-0.9693,-0.0589,0.7,0.7,-0.2,0,0.005,-0.021,0
2018,4,24,22,3,9.796,0.1381,0.1941,-0.9694,-0.0589,0.7,1.1,0,-0.003,0.007,-0.023,0
2018,4,24,22,3,9.819,0.1378,0.1942,-0.9694,-0.0589,0.7,1.3,0,-0.003,0.01,-0.017,0
2018,4,24,22,3,9.824,0.1376,0.1943,-0.9694,-0.0589,0.6,1.2,0.4,-0.004,0.005,-0.01,0
2018,4,24,22,3,9.84,0.1374,0.1945,-0.9694,-0.059,0.2,0.7,0.6,-0.005,0.003,-0.01,0
2018,4,24,22,3,9.863,0.1373,0.1947,-0.9693,-0.059,-0.1,0.5,0.6,-0.007,0.003,-0.004,0
2018,4,24,22,3,9.877,0.1373,0.1949,-0.9693,-0.0592,0,0,0,-0.005,0.002,-0.009,0
2018,4,24,22,3,9.915,0.1374,0.1948,-0.9693,-0.0591,0,0,0,-0.005,0,-0.009,0
2018,4,24,22,3,9.938,0.1374,0.1948,-0.9693,-0.059,0,0,0,-0.004,0.003,-0.006,0
2018,4,24,22,3,9.944,0.1375,0.1949,-0.9693,-0.059,-0.6,-0.5,0.5,-0.004,0,-0.008,0
2018,4,24,22,3,9.962,0.1376,0.195,-0.9692,-0.0591,-0.9,-0.4,0.2,-0.001,-0.001,-0.016,0
2018,4,24,22,3,9.998,0.1377,0.195,-0.9692,-0.0592,-0.6,-0.5,0,0,-0.002,-0.016,0
2018,4,24,22,3,10.019,0.1377,0.195,-0.9692,-0.0592,0,0,0,0,-0.001,-0.015,0
2018,4,24,22,3,10.025,0.1377,0.195,-0.9692,-0.0591,0,0,0,-0.002,0,-0.017,0
2018,4,24,22,3,10.041,0.1377,0.195,-0.9692,-0.0589,0,0,0,-0.004,-0.001,-0.012,0
2018,4,24,22,3,10.075,0.1377,0.195,-0.9692,-0.0588,0,0.3,-0.5,-0.003,0.002,-0.014,0
2018,4,24,22,3,10.075,0.1377,0.1949,-0.9693,-0.0588,0.1,0.2,-0.8,-0.004,0.003,-0.011,0
2018,4,24,22,3,10.097,0.1376,0.1949,-0.9693,-0.0589,0,0,0,-0.004,0.005,-0.012,0
2018,4,24,22,3,10.135,0.1377,0.1949,-0.9693,-0.0588,0,0,0,-0.004,0.009,-0.011,0
2018,4,24,22,3,10.158,0.1377,0.1949,-0.9693,-0.0588,0,0,0,-0.005,0.009,-0.012,0
2018,4,24,22,3,10.162,0.1378,0.1949,-0.9693,-0.0587,0,0,0,-0.004,0.008,-0.007,0
2018,4,24,22,3,10.179,0.1379,0.1949,-0.9692,-0.0587,0,0,0,-0.004,0.008,-0.012,0
2018,4,24,22,3,10.203,0.1379,0.1949,-0.9692,-0.0586,0,0,0,-0.002,0.007,-0.015,0
2018,4,24,22,3,10.22,0.1379,0.1949,-0.9692,-0.0586,0,0,0,-0.001,0.004,-0.01,0
2018,4,24,22,3,10.242,0.1379,0.195,-0.9692,-0.0586,0,0,0.5,-0.001,0,-0.018,0
2018,4,24,22,3,10.279,0.1379,0.1951,-0.9692,-0.0585,0.2,0.1,0.5,0,-0.002,-0.014,0
2018,4,24,22,3,10.302,0.1379,0.1953,-0.9692,-0.0585,0.7,0.1,0.6,-0.008,-0.001,-0.022,0
2018,4,24,22,3,10.306,0.1378,0.1955,-0.9691,-0.0584,0.7,0.2,0.6,-0.009,-0.002,-0.017,0
2018,4,24,22,3,10.319,0.1378,0.1955,-0.9691,-0.0583,0,0,0,-0.006,-0.002,-0.015,0
2018,4,24,22,3,10.356,0.1379,0.1955,-0.9692,-0.0581,0,0,0,-0.004,0,-0.01,0
2018,4,24,22,3,10.376,0.1379,0.1955,-0.9692,-0.0581,0,0,0,0.001,0.004,-0.01,0
2018,4,24,22,3,10.381,0.1379,0.1955,-0.9692,-0.058,0,0,0,0,0.006,-0.011,1023
2018,4,24,22,3,10.417,0.1379,0.1955,-0.9691,-0.0582,-0.8,-0.2,0,-0.003,0.002,-0.017,1023
2018,4,24,22,3,10.44,0.138,0.1954,-0.9691,-0.0583,-1,-0.1,-0.2,-0.006,-0.002,-0.018,1023
2018,4,24,22,3,10.444,0.1381,0.1954,-0.9691,-0.0584,-1.1,-0.3,-0.5,-0.006,-0.001,-0.019,1023
2018,4,24,22,3,10.481,0.1382,0.1953,-0.9691,-0.0586,-0.7,-0.1,-0.8,-0.003,-0.003,-0.02,1023
2018,4,24,22,3,10.504,0.1382,0.1952,-0.9691,-0.0587,-0.4,0.1,-0.8,0,0,-0.019,1023
2018,4,24,22,3,10.509,0.1381,0.1951,-0.9692,-0.0587,0,0.3,-0.8,0,0.004,-0.016,1023
2018,4,24,22,3,10.524,0.138,0.1951,-0.9692,-0.0588,0.1,0.5,-0.7,0.001,0.009,-0.014,1023
2018,4,24,22,3,10.547,0.1379,0.195,-0.9692,-0.0588,0.2,0.7,-0.3,-0.003,0.009,-0.016,1023
2018,4,24,22,3,10.565,0.1377,0.1951,-0.9692,-0.0589,0.2,0.7,-0.2,-0.008,0.008,-0.016,1023
2018,4,24,22,3,10.588,0.1377,0.1951,-0.9692,-0.0591,0.1,0.6,0,-0.009,0.01,-0.009,0
2018,4,24,22,3,10.604,0.1377,0.1952,-0.9692,-0.0591,0,0,0,-0.007,0.006,-0.01,0
2018,4,24,22,3,10.622,0.1377,0.1952,-0.9692,-0.0591,0,0,0,-0.004,0.006,-0.005,0
2018,4,24,22,3,10.645,0.1377,0.1952,-0.9692,-0.0591,0,0,0,-0.004,0.002,-0.003,0
2018,4,24,22,3,10.663,0.1378,0.1953,-0.9692,-0.0591,0.2,0,0.5,-0.003,0.007,-0.006,0
2018,4,24,22,3,10.686,0.1378,0.1955,-0.9691,-0.0591,0.3,-0.2,0.7,-0.002,0.004,-0.011,0
2018,4,24,22,3,10.705,0.1378,0.1957,-0.9691,-0.0591,-0.1,-0.5,1,0,0.004,-0.016,0
2018,4,24,22,3,10.728,0.1379,0.1959,-0.969,-0.0591,-0.3,-0.8,0.9,-0.001,-0.003,-0.009,0
2018,4,24,22,3,10.745,0.138,0.1961,-0.9689,-0.0592,-0.2,-0.8,0.6,-0.001,-0.006,-0.016,0
2018,4,24,22,3,10.784,0.1381,0.1962,-0.9689,-0.0591,0,0,0,-0.001,-0.007,-0.018,0
2018,4,24,22,3,10.808,0.1381,0.1962,-0.9689,-0.0589,0,0,0,0,-0.009,-0.015,0
2018,4,24,22,3,10.811,0.1381,0.1962,-0.9689,-0.0588,0,0,0,0,-0.006,-0.019,0
2018,4,24,22,3,10.825,0.1381,0.1961,-0.969,-0.0587,-0.5,-0.3,-0.8,-0.002,-0.003,-0.019,0
2018,4,24,22,3,10.862,0.1381,0.196,-0.969,-0.0588,-0.1,0,-1,-0.003,0.003,-0.019,0
2018,4,24,22,3,10.862,0.1381,0.1959,-0.969,-0.059,-0.3,0.4,-1,-0.001,0.005,-0.021,0
2018,4,24,22,3,10.885,0.1379,0.1959,-0.969,-0.0592,0,0.8,-0.8,-0.002,0.005,-0.015,0
2018,4,24,22,3,10.923,0.1378,0.1958,-0.969,-0.0593,0.2,0.8,-0.7,-0.006,0.013,-0.017,0
2018,4,24,22,3,10.946,0.1377,0.1958,-0.969,-0.0594,0.1,0.5,-0.2,-0.009,0.009,-0.017,0
2018,4,24,22,3,10.951,0.1377,0.1958,-0.969,-0.0594,0,0,0,-0.007,0.012,-0.011,0
2018,4,24,22,3,10.97,0.1378,0.1958,-0.969,-0.0595,0,0,0,-0.003,0.007,-0.01,0
2018,4,24,22,3,10.987,0.1378,0.1959,-0.969,-0.0596,-0.5,0,0.2,-0.005,0.005,-0.01,0
2018,4,24,22,3,11.01,0.1378,0.1959,-0.969,-0.0597,-0.5,0.1,0.2,0,0.003,-0.008,0
2018,4,24,22,3,11.027,0.1379,0.196,-0.969,-0.0597,0,0,0,-0.001,0.005,-0.015,0
2018,4,24,22,3,11.043,0.1379,0.1959,-0.969,-0.0596,0,0,0,-0.004,0.004,-0.007,0
2018,4,24,22,3,11.065,0.1378,0.196,-0.969,-0.0595,0.4,0.5,0.4,-0.004,0.001,-0.01,0
2018,4,24,22,3,11.102,0.1378,0.1961,-0.969,-0.0594,0.5,0.5,0.6,-0.005,0,-0.008,0
2018,4,24,22,3,11.125,0.1377,0.1962,-0.9689,-0.0594,0.4,0,0.6,-0.007,-0.002,-0.009,0
2018,4,24,22,3,11.129,0.1377,0.1964,-0.9689,-0.0594,0,0,0,-0.009,-0.004,-0.018,0
2018,4,24,22,3,11.145,0.1378,0.1964,-0.9689,-0.0592,0,-0.5,0,-0.005,-0.002,-0.012,0
2018,4,24,22,3,11.168,0.1379,0.1964,-0.9689,-0.0592,0,-0.5,-0.4,-0.001,0.002,-0.008,0
2018,4,24,22,3,11.186,0.138,0.1964,-0.9689,-0.0593,0.1,-0.5,-0.3,0.002,0.006,-0.01,0
2018,4,24,22,3,11.209,0.1379,0.1964,-0.9689,-0.0592,0,0,0,0.003,0.005,-0.012,0
2018,4,24,22,3,11.227,0.1379,0.1964,-0.9689,-0.0591,0,0,0,-0.003,0.003,-0.017,1023
2018,4,24,22,3,11.244,0.138,0.1964,-0.9689,-0.059,0,0,0,-0.008,0,-0.021,1023
2018,4,24,22,3,11.267,0.138,0.1964,-0.9689,-0.0589,0,0,0,-0.006,-0.001,-0.015,1023
2018,4,24,22,3,11.304,0.1381,0.1963,-0.9689,-0.0588,0,0,0,-0.004,-0.002,-0.016,1023
2018,4,24,22,3,11.326,0.138,0.1963,-0.9689,-0.0588,0,0,-0.7,-0.004,0,-0.015,1023
2018,4,24,22,3,11.33,0.138,0.1962,-0.969,-0.0587,0.1,0.2,-1,-0.001,0.004,-0.017,1023
2018,4,24,22,3,11.37,0.1379,0.1962,-0.969,-0.0588,0.1,0.2,-1.1,-0.005,0.008,-0.017,1023
2018,4,24,22,3,11.372,0.1379,0.1962,-0.969,-0.059,0,0.4,-0.6,-0.008,0.011,-0.016,1023
2018,4,24,22,3,11.387,0.1379,0.1962,-0.969,-0.059,0,0,0,-0.005,0.016,-0.016,1023
2018,4,24,22,3,11.408,0.1379,0.1962,-0.9689,-0.0591,0.2,0.6,0.3,-0.004,0.013,-0.013,0
2018,4,24,22,3,11.443,0.1379,0.1964,-0.9689,-0.0591,0.2,0.4,0.7,-0.005,0.008,-0.008,0
2018,4,24,22,3,11.464,0.1378,0.1966,-0.9689,-0.0593,0.2,0.1,0.7,-0.007,0.005,-0.009,0
2018,4,24,22,3,11.471,0.1379,0.1968,-0.9688,-0.0593,0,-0.1,0.6,-0.007,0,-0.006,0
2018,4,24,22,3,11.487,0.1379,0.1969,-0.9688,-0.0593,-0.3,-0.3,0.6,-0.004,0,-0.013,0
2018,4,24,22,3,11.506,0.138,0.197,-0.9688,-0.0593,-0.5,-0.5,0.5,-0.002,-0.004,-0.017,0
2018,4,24,22,3,11.529,0.1382,0.1971,-0.9687,-0.0594,-0.9,-0.6,0.2,-0.005,-0.002,-0.014,0
2018,4,24,22,3,11.547,0.1382,0.1971,-0.9687,-0.0594,-0.9,-0.3,0,0,-0.003,-0.016,0
2018,4,24,22,3,11.57,0.1382,0.1971,-0.9687,-0.0596,-0.6,0,-0.3,0,-0.008,-0.02,0
2018,4,24,22,3,11.588,0.1382,0.1971,-0.9687,-0.0596,0,0,0,0.001,-0.002,-0.019,0
2018,4,24,22,3,11.61,0.1381,0.1971,-0.9687,-0.0595,0,0,0,0,0,-0.019,0
2018,4,24,22,3,11.647,0.1379,0.1971,-0.9687,-0.0595,0.2,0.7,-0.2,-0.002,0.002,-0.017,0
2018,4,24,22,3,11.669,0.1378,0.1971,-0.9687,-0.0595,0.3,0.9,-0.4,-0.008,0,-0.016,0
2018,4,24,22,3,11.674,0.1377,0.197,-0.9688,-0.0595,0.3,0.8,-0.5,-0.01,0.002,-0.006,0
2018,4,24,22,3,11.708,0.1376,0.197,-0.9688,-0.0595,0.1,0.8,-0.7,-0.009,0.005,-0.008,0
2018,4,24,22,3,11.708,0.1376,0.1969,-0.9688,-0.0595,-0.3,0.5,-0.7,-0.006,0.009,-0.008,0
2018,4,24,22,3,11.73,0.1376,0.1968,-0.9688,-0.0597,-0.3,0.1,-0.8,-0.004,0.009,-0.004,0
2018,4,24,22,3,11.748,0.1377,0.1968,-0.9688,-0.0598,0,0,0,-0.005,0.01,-0.005,0
2018,4,24,22,3,11.771,0.1378,0.1968,-0.9688,-0.0597,0,0,0,-0.009,0.008,-0.012,0
2018,4,24,22,3,11.788,0.1379,0.1968,-0.9688,-0.0597,-0.1,-0.5,0.4,-0.01,0.008,-0.013,0
2018,4,24,22,3,11.811,0.1379,0.1968,-0.9688,-0.0597,-0.1,-0.5,0.5,-0.004,0.004,-0.013,0
2018,4,24,22,3,11.829,0.138,0.1969,-0.9688,-0.0597,0,-0.3,0.5,-0.002,0.004,-0.017,0
2018,4,24,22,3,11.869,0.138,0.1971,-0.9687,-0.0598,0,-0.4,0.7,-0.002,0.002,-0.008,0
2018,4,24,22,3,11.892,0.1381,0.1973,-0.9687,-0.0598,0,-0.4,0.6,-0.002,0.001,-0.01,0
2018,4,24,22,3,11.898,0.1381,0.1974,-0.9686,-0.0599,0,-0.5,0.3,0.001,-0.003,-0.014,0
2018,4,24,22,3,11.91,0.1381,0.1975,-0.9686,-0.0598,0,0,0,-0.001,-0.003,-0.014,0
2018,4,24,22,3,11.929,0.1381,0.1975,-0.9686,-0.0597,0.5,0,0.1,-0.006,-0.002,-0.017,0
2018,4,24,22,3,11.951,0.1381,0.1974,-0.9686,-0.0595,0,0,0,-0.007,-0.004,-0.012,0
2018,4,24,22,3,11.968,0.1382,0.1974,-0.9686,-0.0593,0,0,0,-0.008,-0.001,-0.017,0
2018,4,24,22,3,11.991,0.1382,0.1974,-0.9687,-0.0592,0.3,-0.2,-0.6,-0.003,0.001,-0.014,0
2018,4,24,22,3,12.029,0.1382,0.1974,-0.9687,-0.0592,0.2,-0.3,-0.5,0,0.006,-0.01,0
2018,4,24,22,3,12.051,0.1382,0.1973,-0.9687,-0.0591,0,0,0,0,0.007,-0.014,0
2018,4,24,22,3,12.056,0.1383,0.1973,-0.9687,-0.0591,0,0,0,-0.006,0.001,-0.008,0
2018,4,24,22,3,12.074,0.1383,0.1973,-0.9687,-0.059,0,0,0,-0.006,0.002,-0.015,0
2018,4,24,22,3,12.111,0.1384,0.1973,-0.9687,-0.059,-0.3,-0.5,-0.3,-0.005,-0.002,-0.011,1023
2018,4,24,22,3,12.134,0.1385,0.1973,-0.9686,-0.059,-0.2,-0.5,-0.7,-0.005,0,-0.016,1023
2018,4,24,22,3,12.139,0.1386,0.1972,-0.9687,-0.059,0,-0.3,-0.8,-0.002,0.002,-0.01,1023
2018,4,24,22,3,12.154,0.1386,0.197,-0.9687,-0.0588,0.1,-0.1,-0.8,-0.006,0.004,-0.017,1023
2018,4,24,22,3,12.172,0.1386,0.1969,-0.9687,-0.0588,0.4,0,-0.5,-0.002,0.01,-0.016,1023
2018,4,24,22,3,12.193,0.1386,0.197,-0.9687,-0.0588,0,0,0,-0.004,0.011,-0.015,1023
2018,4,24,22,3,12.211,0.1386,0.197,-0.9687,-0.0588,0.5,0.4,0.2,-0.005,0.01,-0.011,1023
2018,4,24,22,3,12.234,0.1385,0.1971,-0.9687,-0.0588,0.4,0.5,0.5,-0.006,0.006,-0.015,1023
2018,4,24,22,3,12.251,0.1385,0.1973,-0.9687,-0.0587,0.7,0.3,0.7,-0.01,0.003,-0.014,1023
2018,4,24,22,3,12.274,0.1384,0.1975,-0.9686,-0.0587,0.7,0,0.7,-0.007,0.004,-0.009,1023
2018,4,24,22,3,12.31,0.1384,0.1978,-0.9686,-0.0588,0.3,-0.2,0.6,-0.004,0.004,-0.011,0
2018,4,24,22,3,12.333,0.1385,0.198,-0.9685,-0.0589,-0.3,-0.6,0.6,-0.004,0.001,-0.013,0
2018,4,24,22,3,12.338,0.1386,0.1982,-0.9684,-0.059,-0.1,-0.5,0.7,-0.004,0.001,-0.008,0
2018,4,24,22,3,12.372,0.1387,0.1983,-0.9684,-0.0589,-0.2,-0.8,0.5,-0.002,-0.003,-0.01,0
2018,4,24,22,3,12.395,0.1388,0.1985,-0.9684,-0.059,-0.2,-0.5,0.2,0,-0.002,-0.016,0
2018,4,24,22,3,12.4,0.1388,0.1985,-0.9684,-0.0589,0,0,0,-0.003,-0.005,-0.022,0
2018,4,24,22,3,12.413,0.1388,0.1985,-0.9684,-0.0587,0,0,0,-0.003,-0.005,-0.024,0
2018,4,24,22,3,12.431,0.1388,0.1984,-0.9684,-0.0586,0,0,0,0.001,0,-0.02,0
2018,4,24,22,3,12.455,0.1387,0.1984,-0.9684,-0.0584,0,0,0,-0.001,-0.001,-0.02,0
2018,4,24,22,3,12.472,0.1387,0.1984,-0.9684,-0.0583,0.2,0.4,-0.7,-0.002,0,-0.015,0
2018,4,24,22,3,12.495,0.1386,0.1983,-0.9685,-0.0584,0.3,0.6,-0.7,-0.006,0.005,-0.012,0
2018,4,24,22,3,12.514,0.1386,0.1983,-0.9685,-0.0584,0,0.4,-0.5,-0.009,0.005,-0.011,0
2018,4,24,22,3,12.537,0.1386,0.1983,-0.9685,-0.0585,0,0,0,-0.004,0.006,-0.01,0
2018,4,24,22,3,12.555,0.1386,0.1983,-0.9685,-0.0584,0,0,0,-0.007,0.004,-0.009,0
2018,4,24,22,3,12.579,0.1387,0.1982,-0.9685,-0.0584,0,0,0,-0.008,0.011,-0.011,0
2018,4,24,22,3,12.596,0.1388,0.1982,-0.9685,-0.0583,0,0,0,-0.01,0.008,-0.012,0
2018,4,24,22,3,12.621,0.1389,0.1982,-0.9684,-0.0583,0,0,0,-0.007,0.008,-0.012,0
2018,4,24,22,3,12.636,0.1389,0.1984,-0.9684,-0.0584,0.1,-0.2,0.6,-0.004,0.007,-0.011,0
2018,4,24,22,3,12.653,0.1389,0.1986,-0.9684,-0.0585,0.1,-0.3,0.8,-0.001,0.002,-0.018,0
2018,4,24,22,3,12.675,0.139,0.1987,-0.9683,-0.0584,0,-0.3,0.8,-0.004,0,-0.014,0
2018,4,24,22,3,12.693,0.139,0.1989,-0.9683,-0.0585,0,-0.4,0.5,-0.005,-0.002,-0.017,0
2018,4,24,22,3,12.716,0.139,0.199,-0.9683,-0.0584,0,0,0,-0.002,-0.004,-0.015,0
2018,4,24,22,3,12.734,0.139,0.1989,-0.9683,-0.0582,0,0,0,0.003,-0.002,-0.015,0
2018,4,24,22,3,12.757,0.1389,0.1989,-0.9683,-0.0581,0.6,0.5,0,0,0.003,-0.009,0
2018,4,24,22,3,12.775,0.1387,0.199,-0.9683,-0.058,0.5,0.5,0.2,-0.004,0.002,-0.014,0
2018,4,24,22,3,12.796,0.1386,0.1992,-0.9683,-0.058,0,0,0,-0.009,0,-0.021,0
2018,4,24,22,3,12.833,0.1387,0.1992,-0.9683,-0.0579,0,0,0,-0.013,0,-0.016,0
2018,4,24,22,3,12.833,0.1387,0.1991,-0.9683,-0.0577,0,0,0,-0.006,0,-0.014,0
2018,4,24,22,3,12.855,0.1388,0.1991,-0.9683,-0.0577,0,0,0,0,0.006,-0.01,0
2018,4,24,22,3,12.893,0.1388,0.1991,-0.9683,-0.0577,0,0,0,0.001,0.009,-0.009,0
2018,4,24,22,3,12.914,0.1388,0.1991,-0.9683,-0.0577,0,0,0,-0.002,0.008,-0.013,0
2018,4,24,22,3,12.919,0.1388,0.1992,-0.9683,-0.0578,-0.4,0.1,0.5,-0.009,0.004,-0.016,0
2018,4,24,22,3,12.956,0.1389,0.1993,-0.9682,-0.0579,-0.6,-0.2,0.3,-0.008,-0.006,-0.015,0
2018,4,24,22,3,12.956,0.1389,0.1994,-0.9682,-0.058,-0.6,-0.2,-0.2,-0.007,-0.006,-0.016,0
2018,4,24,22,3,12.98,0.139,0.1993,-0.9682,-0.058,-0.5,0,-0.6,-0.003,0,-0.02,1023
2018,4,24,22,3,12.997,0.139,0.1992,-0.9683,-0.0579,0.1,0.4,-0.5,0,0.001,-0.021,1023
2018,4,24,22,3,13.021,0.1388,0.1992,-0.9683,-0.0578,0.7,0.8,-0.2,0,0.008,-0.013,1023
2018,4,24,22,3,13.038,0.1386,0.1992,-0.9683,-0.0578,0.9,1,0,-0.001,0.01,-0.016,1023
2018,4,24,22,3,13.059,0.1384,0.1994,-0.9683,-0.0579,0.7,1,0.6,-0.006,0.006,-0.011,1023
2018,4,24,22,3,13.094,0.1382,0.1995,-0.9683,-0.0578,0.7,0.7,0.5,-0.007,0.009,-0.005,1023
2018,4,24,22,3,13.094,0.1381,0.1998,-0.9683,-0.0579,0.4,0.2,0.7,-0.007,0.001,-0.008,1023
2018,4,24,22,3,13.116,0.1381,0.2,-0.9682,-0.058,0.3,0.1,0.6,-0.002,0.004,-0.009,1023
2018,4,24,22,3,13.156,0.1381,0.2002,-0.9682,-0.0579,0.2,-0.2,0.6,-0.002,0.001,-0.009,0
2018,4,24,22,3,13.156,0.1381,0.2004,-0.9681,-0.058,0,-0.3,0.5,-0.005,0.001,-0.013,0
2018,4,24,22,3,13.179,0.1382,0.2005,-0.9681,-0.058,-0.1,-0.5,0.5,-0.006,0,-0.011,0
2018,4,24,22,3,13.197,0.1383,0.2005,-0.9681,-0.058,0,0,0,-0.006,-0.001,-0.013,0
2018,4,24,22,3,13.221,0.1384,0.2005,-0.9681,-0.0578,0,0,0,0,0,-0.019,0
2018,4,24,22,3,13.258,0.1384,0.2005,-0.9681,-0.0577,0,0,0,0,-0.003,-0.018,0
2018,4,24,22,3,13.279,0.1383,0.2005,-0.9681,-0.0576,-0.5,-0.2,0,-0.003,-0.001,-0.019,0
2018,4,24,22,3,13.283,0.1383,0.2005,-0.9681,-0.0575,0,0,0,-0.001,-0.001,-0.02,0
2018,4,24,22,3,13.299,0.1383,0.2005,-0.9681,-0.0574,-0.2,0,-0.5,0,-0.001,-0.014,0
2018,4,24,22,3,13.322,0.1383,0.2004,-0.9681,-0.0574,0.1,0.4,-0.7,-0.005,0.001,-0.016,0
2018,4,24,22,3,13.34,0.1382,0.2003,-0.9682,-0.0573,0.3,0.4,-0.7,-0.008,0.004,-0.019,0
2018,4,24,22,3,13.357,0.1381,0.2003,-0.9682,-0.0574,0.5,0.6,-0.5,-0.007,0.011,-0.013,0
2018,4,24,22,3,13.381,0.138,0.2003,-0.9682,-0.0573,0.5,0.5,-0.3,-0.009,0.012,-0.008,0
2018,4,24,22,3,13.398,0.1381,0.2003,-0.9682,-0.0574,0,0,0,-0.007,0.009,-0.006,0
2018,4,24,22,3,13.421,0.1381,0.2003,-0.9682,-0.0574,0,0,0,-0.004,0.008,-0.003,0
2018,4,24,22,3,13.439,0.1382,0.2002,-0.9682,-0.0573,0,0,0,-0.006,0.01,-0.005,0
2018,4,24,22,3,13.462,0.1383,0.2003,-0.9681,-0.0574,0,-0.5,0.4,-0.005,0.007,-0.012,0
2018,4,24,22,3,13.48,0.1385,0.2004,-0.9681,-0.0574,-0.1,-0.4,0.6,-0.006,0.01,-0.016,0
2018,4,24,22,3,13.503,0.1385,0.2006,-0.9681,-0.0574,0.1,-0.6,0.9,0,0.001,-0.018,0
2018,4,24,22,3,13.519,0.1385,0.2008,-0.968,-0.0574,0.1,-0.6,1,0.004,0,-0.018,0
2018,4,24,22,3,13.556,0.1386,0.201,-0.968,-0.0572,0.3,-0.4,0.7,0.004,-0.004,-0.013,0
2018,4,24,22,3,13.577,0.1385,0.2012,-0.968,-0.0572,0.1,-0.1,0.8,0,-0.009,-0.014,0
2018,4,24,22,3,13.582,0.1385,0.2013,-0.9679,-0.057,0,0,0,-0.003,-0.013,-0.011,0
2018,4,24,22,3,13.6,0.1386,0.2013,-0.9679,-0.0568,-0.2,-0.9,-0.3,-0.004,-0.015,-0.007,0
2018,4,24,22,3,13.623,0.1388,0.2011,-0.968,-0.0566,-0.2,-1.4,-1.3,0.002,-0.018,-0.003,0
2018,4,24,22,3,13.641,0.1391,0.2008,-0.968,-0.0563,0,-1.8,-1.8,0.002,-0.014,0.009,0
2018,4,24,22,3,13.664,0.1394,0.2007,-0.968,-0.0562,0,-2.3,-1.7,0,-0.012,0.011,0
2018,4,24,22,3,13.682,0.14,0.2005,-0.968,-0.0561,-0.3,-3.7,-1.7,-0.006,-0.008,0.016,0
2018,4,24,22,3,13.703,0.141,0.2001,-0.9679,-0.0558,-0.8,-5.5,-2.1,-0.012,-0.015,0.017,0
2018,4,24,22,3,13.741,0.1423,0.1998,-0.9678,-0.0554,-0.2,-6.9,-2.5,-0.016,-0.016,0.018,0
2018,4,24,22,3,13.741,0.1437,0.1994,-0.9677,-0.055,0,-8.2,-3.2,-0.008,-0.019,0.024,0
2018,4,24,22,3,13.763,0.1453,0.1989,-0.9676,-0.0546,-0.8,-9.2,-4.6,0.007,-0.015,0.02,1023
2018,4,24,22,3,13.782,0.1469,0.1981,-0.9675,-0.0542,-0.5,-10.7,-6.1,0.004,-0.044,-0.003,1023
2018,4,24,22,3,13.82,0.1487,0.1971,-0.9675,-0.0533,0.9,-11.2,-7.8,-0.012,-0.022,-0.01,1023
2018,4,24,22,3,13.82,0.1506,0.1959,-0.9675,-0.0523,3.5,-11.4,-9.2,0.016,-0.039,-0.029,1023
2018,4,24,22,3,13.842,0.152,0.1943,-0.9677,-0.0508,4.1,-9.8,-12.2,0.021,-0.031,-0.03,1023
2018,4,24,22,3,13.86,0.1532,0.1924,-0.968,-0.0489,7.4,-7.7,-13.1,-0.012,-0.012,-0.03,1023
2018,4,24,22,3,13.883,0.1542,0.1906,-0.9683,-0.0473,7.4,-6.1,-12.6,0.016,0.021,-0.029,1023
2018,4,24,22,3,13.921,0.1546,0.1889,-0.9686,-0.0458,8.2,-4.3,-12.1,0,-0.005,-0.039,1023
2018,4,24,22,3,13.945,0.1549,0.1873,-0.969,-0.0436,11.7,-2,-10.7,-0.026,0.016,-0.016,1023
2018,4,24,22,3,13.949,0.1546,0.1861,-0.9693,-0.0417,11.9,0,-11.1,0.038,0.009,-0.012,1023
2018,4,24,22,3,13.967,0.1537,0.1845,-0.9699,-0.0389,19.8,3.8,-12.5,-0.017,-0.047,0.011,1023
2018,4,24,22,3,13.983,0.1526,0.1833,-0.9705,-0.0342,31,3.3,-10.8,-0.021,0,0.032,1023
2018,4,24,22,3,14.006,0.151,0.1826,-0.971,-0.0288,32.6,1.7,-11.7,0.056,0,0.042,0
2018,4,24,22,3,14.024,0.1496,0.1815,-0.9716,-0.023,36.2,1.9,-12.8,-0.031,-0.031,0.034,0
2018,4,24,22,3,14.047,0.1488,0.1807,-0.972,-0.0168,35.1,-3,-11.4,0.013,0.066,0.054,0
2018,4,24,22,3,14.065,0.149,0.1799,-0.9722,-0.0113,36.2,-4.6,-11.2,-0.038,0.008,0.08,0
2018,4,24,22,3,14.084,0.1497,0.1794,-0.9722,-0.0044,40.2,-9.7,-7.7,0.004,0.072,0.074,0
2018,4,24,22,3,14.103,0.1505,0.1792,-0.9722,0.0025,43.7,-6.7,-7.7,-0.041,-0.004,0.072,0
2018,4,24,22,3,14.126,0.1506,0.1793,-0.972,0.0119,57,-8,-5.8,-0.017,0.013,0.072,0
2018,4,24,22,3,14.143,0.1507,0.1802,-0.9717,0.0233,73.5,-6.7,-3.3,-0.1,-0.071,0.089,0
2018,4,24,22,3,14.167,0.1503,0.182,-0.9709,0.0383,91.2,-12.5,-0.8,-0.102,0.001,0.137,0
2018,4,24,22,3,14.185,0.151,0.1841,-0.9696,0.055,95.1,-20.8,-2.5,-0.121,-0.002,0.169,0
2018,4,24,22,3,14.209,0.1526,0.1857,-0.968,0.0716,87.3,-32.1,-3.9,-0.074,0.054,0.187,0
2018,4,24,22,3,14.226,0.1561,0.187,-0.9659,0.0871,83.4,-40.4,-1.3,-0.078,-0.006,0.175,0
2018,4,24,22,3,14.249,0.161,0.1876,-0.9637,0.1002,53,-39.8,-4.7,0.007,0.087,0.161,0
2018,4,24,22,3,14.265,0.1662,0.1876,-0.9616,0.1112,77,-45.1,-3.8,-0.057,-0.341,0.098,0
2018,4,24,22,3,14.283,0.1714,0.19,-0.9576,0.1316,136,-60.3,5.7,-0.074,-0.082,0.147,0
2018,4,24,22,3,14.306,0.1781,0.1937,-0.9517,0.1579,148.7,-71.7,5.9,-0.06,0.001,0.145,0
2018,4,24,22,3,14.324,0.1857,0.1976,-0.9442,0.1867,174.1,-79.8,7.8,-0.18,-0.149,0.101,0
2018,4,24,22,3,14.347,0.1941,0.2034,-0.9331,0.2238,242.6,-104.8,20.1,-0.17,-0.093,0.221,0
2018,4,24,22,3,14.365,0.2036,0.2129,-0.9161,0.2717,305.1,-119.2,39.4,-0.144,0.054,0.216,0
2018,4,24,22,3,14.388,0.2128,0.2264,-0.893,0.3254,332.4,-118.3,59.4,-0.092,0.281,0.291,0
2018,4,24,22,3,14.424,0.2209,0.2425,-0.865,0.3794,342.2,-117.1,77.4,-0.1,0.398,0.419,0
2018,4,24,22,3,14.447,0.2311,0.2615,-0.8306,0.4337,366,-136.7,114,0.01,0.447,0.146,0
2018,4,24,22,3,14.451,0.2445,0.2851,-0.788,0.4877,373.7,-140.3,161.2,0.117,0.688,-0.099,0
2018,4,24,22,3,14.466,0.2606,0.3129,-0.7416,0.5328,308.4,-124.5,200.9,0.012,0.837,-0.085,0
2018,4,24,22,3,14.483,0.2801,0.3404,-0.7,0.5617,216.2,-100.6,214.1,-0.121,0.707,-0.268,0
2018,4,24,22,3,14.506,0.3002,0.3677,-0.662,0.5799,189.7,-77.5,223.4,0.098,0.282,-0.545,0
2018,4,24,22,3,14.524,0.318,0.3963,-0.6258,0.5916,159.1,-26.5,217,0.662,0.088,-1.186,0
2018,4,24,22,3,14.547,0.325,0.4263,-0.5873,0.6063,345.2,-22.8,157.9,0.635,-1.926,-0.745,0
2018,4,24,22,3,14.566,0.3019,0.4611,-0.5317,0.643,441,26.1,77.1,1.006,-1.122,-0.464,0
2018,4,24,22,3,14.588,0.2714,0.4874,-0.487,0.6718,341.3,20.1,2.2,0.64,-1.287,-0.614,0
2018,4,24,22,3,14.608,0.2386,0.4992,-0.4533,0.6987,275,-4.2,-70.8,-0.332,-1.046,-1.266,0
2018,4,24,22,3,14.63,0.2138,0.498,-0.4271,0.7237,171.7,-105.7,-36,-0.462,2.167,0.784,0
2018,4,24,22,3,14.648,0.2242,0.4761,-0.4103,0.7447,11.2,-247.8,1.3,-4.953,-0.437,1.588,1023
2018,4,24,22,3,14.671,0.2529,0.4313,-0.4115,0.7619,-226,-322.3,-12.9,0.163,1.033,-0.603,1023
2018,4,24,22,3,14.686,0.2903,0.3809,-0.4213,0.77,-106.6,-319.4,22.7,0.334,-1.399,-0.028,1023
2018,4,24,22,3,14.704,0.3236,0.339,-0.4086,0.7831,-31.4,-318.7,85.8,0.325,-0.441,0.311,1023
2018,4,24,22,3,14.728,0.3624,0.2983,-0.3909,0.7916,-70.5,-318,111,0.138,-0.12,0.696,1023
2018,4,24,22,3,14.746,0.4044,0.2581,-0.3765,0.7924,-78.8,-298.8,134.9,0.206,-0.036,0.2,1023
2018,4,24,22,3,14.769,0.445,0.2243,-0.3575,0.7897,-29.1,-261.2,148.7,0.064,-0.204,0.01,1023
2018,4,24,22,3,14.787,0.4815,0.2001,-0.3347,0.7848,-12.1,-209,171,0.055,-0.072,0.212,1023
2018,4,24,22,3,14.81,0.5176,0.1839,-0.3159,0.7735,-42.5,-155.9,192.6,-0.121,-0.229,0.515,1023
2018,4,24,22,3,14.829,0.551,0.1729,-0.3078,0.7561,-65.9,-71.6,174.4,-0.315,-0.461,0.002,0
2018,4,24,22,3,14.851,0.5711,0.1809,-0.2859,0.7479,465.8,-84.7,107.1,-1.509,-0.027,2.441,0
2018,4,24,22,3,14.87,0.605,0.1945,-0.2372,0.7347,-288.6,-122.2,230.3,-1.935,-0.007,1.137,0
2018,4,24,22,3,14.893,0.6398,0.1325,-0.2804,0.7031,-566.1,-121.2,65,-0.563,-1.679,-0.491,0
2018,4,24,22,3,14.912,0.663,0.057,-0.3351,0.6669,-617.2,-108.1,68,-1.069,-0.151,-1.399,0
2018,4,24,22,3,14.935,0.6795,-0.0171,-0.3856,0.6238,-409.1,-85.1,80.5,-0.686,-1.33,-0.992,0
2018,4,24,22,3,14.948,0.6907,-0.0373,-0.3955,0.6041,70.5,-52.6,59.7,-0.801,-2.007,-1.074,0
2018,4,24,22,3,14.967,0.6999,-0.0051,-0.3624,0.6153,393,-17.4,35.2,-0.034,-0.721,-0.982,0
2018,4,24,22,3,14.99,0.7005,0.0536,-0.3092,0.6408,530.6,-1.8,11.9,0.643,0.213,-0.695,0
2018,4,24,22,3,15.008,0.6918,0.1169,-0.248,0.6679,505.6,-16,-23.5,0.983,0.372,-0.617,0
2018,4,24,22,3,15.031,0.6783,0.1658,-0.1939,0.6889,366.3,-25.9,-29.1,1.159,0.709,-0.618,0
2018,4,24,22,3,15.049,0.6667,0.1974,-0.1552,0.7017,255,-23.3,-18.5,0.972,0.112,-0.693,0
2018,4,24,22,3,15.073,0.6579,0.2184,-0.1262,0.7095,169.2,-31.6,-11,0.811,0.245,-0.409,0
2018,4,24,22,3,15.108,0.6522,0.2259,-0.1095,0.7152,54.6,-40.8,-27.1,0.64,0.188,-0.226,0
2018,4,24,22,3,15.13,0.6483,0.2205,-0.1047,0.721,-28.7,-47.2,-41.3,0.522,0.215,-0.223,0
2018,4,24,22,3,15.135,0.6446,0.2078,-0.108,0.7277,-63.7,-45.2,-62,0.418,0.155,-0.252,0
2018,4,24,22,3,15.149,0.6383,0.1938,-0.1141,0.7361,-63.1,-36.9,-83.8,0.391,0.148,-0.307,0
2018,4,24,22,3,15.187,0.6285,0.1821,-0.1217,0.7462,-49.4,-14.1,-101.9,0.385,0.182,-0.458,0
2018,4,24,22,3,15.21,0.6153,0.1769,-0.1293,0.7572,-5.9,18.2,-111,0.376,0.19,-0.472,0
2018,4,24,22,3,15.214,0.5988,0.181,-0.1326,0.7687,52.6,38.4,-113.1,0.324,0.23,-0.342,0
2018,4,24,22,3,15.249,0.5801,0.1919,-0.1304,0.7807,91.6,44,-111.2,0.312,0.267,-0.24,0
2018,4,24,22,3,15.271,0.5608,0.2053,-0.1252,0.7922,97.6,44.3,-106.6,0.28,0.284,-0.226,0
2018,4,24,22,3,15.276,0.542,0.2177,-0.1218,0.8024,69.4,49.1,-103.7,0.162,0.284,-0.235,0
2018,4,24,22,3,15.292,0.5246,0.2274,-0.1237,0.8109,28,54.2,-101.4,0.008,0.294,-0.216,0
2018,4,24,22,3,15.315,0.5088,0.2341,-0.1314,0.8179,-4.4,56.9,-97.4,-0.167,0.197,-0.184,0
2018,4,24,22,3,15.333,0.4945,0.2394,-0.1418,0.8234,-13.4,60.2,-87.7,-0.236,0.325,-0.231,0
2018,4,24,22,3,15.356,0.4821,0.2451,-0.1525,0.8271,-5.8,65.5,-71.9,-0.316,0.386,-0.401,0
2018,4,24,22,3,15.373,0.4701,0.2547,-0.157,0.8303,36,61.5,-63.7,-0.399,0.523,0.004,0
2018,4,24,22,3,15.39,0.459,0.2626,-0.1615,0.8331,19.4,44.6,-42.5,-1.008,0.301,0.595,0
2018,4,24,22,3,15.413,0.4515,0.2693,-0.1481,0.8376,155.8,-22.1,-33,-0.444,0.341,0.742,0
2018,4,24,22,3,15.431,0.442,0.2747,-0.1277,0.8442,105.4,-50.9,-12.8,-1.03,0.662,0.69,0
2018,4,24,22,3,15.454,0.4383,0.2715,-0.1124,0.8493,17.2,-56.2,-13,-0.386,0.894,0.426,0
2018,4,24,22,3,15.471,0.4394,0.2593,-0.1179,0.8518,-106.5,-42.3,-17,-0.164,0.457,-0.2,1023
2018,4,24,22,3,15.494,0.4429,0.2451,-0.1337,0.8519,-116.3,-24,-16.7,-0.13,0.241,-0.398,1023
2018,4,24,22,3,15.512,0.4449,0.2339,-0.1492,0.8514,-98,-10,-20.6,-0.103,0.162,-0.331,1023
2018,4,24,22,3,15.534,0.4454,0.2258,-0.1619,0.851,-69.7,-4.8,-19.6,-0.076,0.058,-0.161,1023
2018,4,24,22,3,15.553,0.4454,0.2204,-0.1709,0.8507,-53.9,-7,-15,-0.058,0.051,0.018,1023
2018,4,24,22,3,15.575,0.4463,0.2144,-0.1785,0.8502,-63.4,-11.3,-7.7,0,0.024,0.08,1023
2018,4,24,22,3,15.612,0.4489,0.2057,-0.1886,0.8487,-86.6,-16.2,0,0.043,-0.082,0.036,1023
2018,4,24,22,3,15.635,0.4534,0.1954,-0.2009,0.846,-97.3,-21.4,7.1,0.092,-0.149,-0.038,1023
2018,4,24,22,3,15.64,0.4588,0.1845,-0.2131,0.8426,-96.8,-25.3,10,0.115,-0.162,-0.065,1023
2018,4,24,22,3,15.653,0.4642,0.1733,-0.2247,0.8389,-94.4,-26.5,8.9,0.118,-0.17,-0.062,0
2018,4,24,22,3,15.672,0.469,0.1624,-0.2359,0.8354,-91.1,-24.3,5.5,0.117,-0.171,-0.038,0
2018,4,24,22,3,15.695,0.4729,0.1516,-0.2474,0.8319,-94,-20.4,0,0.09,-0.181,-0.007,0
2018,4,24,22,3,15.712,0.4758,0.1411,-0.2596,0.8284,-91.8,-16.7,-3.7,0.065,-0.216,-0.013,0
2018,4,24,22,3,15.735,0.4778,0.1316,-0.2705,0.8252,-73.7,-14.4,-4.6,0.034,-0.246,-0.026,0
2018,4,24,22,3,15.773,0.479,0.1247,-0.2781,0.8231,-45.3,-11.5,-5.4,-0.008,-0.22,-0.06,0
2018,4,24,22,3,15.793,0.4794,0.1204,-0.2815,0.8224,-14.5,-9.5,-5.8,-0.049,-0.179,-0.063,0
2018,4,24,22,3,15.798,0.479,0.1187,-0.2815,0.8229,4.5,-6.4,-5.5,-0.076,-0.089,-0.06,0
2018,4,24,22,3,15.835,0.4781,0.119,-0.2809,0.8235,11.1,-2,-4.6,-0.071,-0.021,-0.065,0
2018,4,24,22,3,15.835,0.4773,0.1203,-0.2798,0.8241,10.1,1.7,-3,-0.05,0.011,-0.045,0
2018,4,24,22,3,15.859,0.4767,0.1218,-0.2789,0.8246,8.2,3.5,-2.1,-0.028,0.017,-0.014,0
2018,4,24,22,3,15.877,0.4762,0.1231,-0.2778,0.8251,8.6,3.2,-1.1,-0.014,0.031,0,0
2018,4,24,22,3,15.893,0.4759,0.1244,-0.2765,0.8255,8,1.8,0,0.001,0.041,0.002,0
2018,4,24,22,3,15.916,0.4759,0.1253,-0.2752,0.8258,6.2,0.1,1.2,0.007,0.038,-0.007,0
2018,4,24,22,3,15.951,0.4762,0.1258,-0.2741,0.8259,3.3,-1.2,2.5,0.009,0.024,-0.014,0
2018,4,24,22,3,15.974,0.4768,0.1258,-0.2734,0.8258,1.2,-2.2,3.8,0.008,0.01,-0.014,0
2018,4,24,22,3,15.979,0.4775,0.1256,-0.273,0.8255,-0.3,-2.7,4.1,0.007,-0.009,-0.017,0
2018,4,24,22,3,16.015,0.4781,0.1253,-0.2729,0.8253,0.1,-2.3,3.9,0.006,-0.022,-0.017,0
2018,4,24,22,3,16.038,0.4787,0.1251,-0.2727,0.8251,2.6,-1.7,3.7,0.006,-0.026,-0.023,0
2018,4,24,22,3,16.043,0.479,0.1251,-0.272,0.825,5.2,-1,3.1,0.011,-0.022,-0.017,0
2018,4,24,22,3,16.061,0.4793,0.1255,-0.2711,0.8252,7.5,-0.3,2.7,0.015,-0.012,-0.014,0
2018,4,24,22,3,16.076,0.4794,0.1261,-0.2698,0.8254,8.5,-0.3,1.9,0.019,-0.002,-0.008,0
2018,4,24,22,3,16.094,0.4795,0.1267,-0.2684,0.8257,8.7,-0.3,1.6,0.011,0.006,-0.005,0
2018,4,24,22,3,16.114,0.4796,0.1274,-0.2669,0.8261,9.3,-0.4,1.2,0.013,0.011,-0.009,0
2018,4,24,22,3,16.15,0.4796,0.1281,-0.2653,0.8264,8.5,-0.6,1.1,0.01,0.021,-0.007,0
2018,4,24,22,3,16.17,0.4797,0.1287,-0.2639,0.8267,6.2,-0.5,0.7,0,0.023,-0.007,0
2018,4,24,22,3,16.175,0.4798,0.1292,-0.2629,0.8269,3.8,-0.7,0.5,0.002,0.025,-0.01,0
2018,4,24,22,3,16.211,0.4799,0.1294,-0.2623,0.827,1.6,-0.5,0.6,0,0.019,-0.011,0
2018,4,24,22,3,16.235,0.4801,0.1295,-0.2619,0.827,1.3,-0.7,0.7,0.007,0.007,-0.015,0
2018,4,24,22,3,16.239,0.4802,0.1296,-0.2615,0.8271,1.5,-0.6,0.8,0.006,0.007,-0.008,0
2018,4,24,22,3,16.274,0.4803,0.1296,-0.2611,0.8271,1.2,-0.3,0.7,0.011,0.003,-0.008,0
2018,4,24,22,3,16.274,0.4804,0.1295,-0.2609,0.8272,0.5,-0.3,0.5,0.01,0.002,-0.005,1023
2018,4,24,22,3,16.297,0.4804,0.1294,-0.2608,0.8272,0,0,0,0.011,0.001,-0.01,1023
2018,4,24,22,3,16.314,0.4804,0.1293,-0.2607,0.8272,0,0,0,0.012,-0.002,-0.007,1023
2018,4,24,22,3,16.337,0.4804,0.1292,-0.2607,0.8273,0,0,0,0.008,0.005,-0.016,1023
2018,4,24,22,3,16.355,0.4804,0.1292,-0.2606,0.8273,0,0,0,0.007,0.006,-0.016,1023
2018,4,24,22,3,16.404,0.4804,0.1292,-0.2606,0.8273,-0.5,0,0,0.005,0.003,-0.02,1023
2018,4,24,22,3,16.406,0.4804,0.1291,-0.2607,0.8273,-0.8,-0.2,-0.1,0.002,0.003,-0.01,1023
2018,4,24,22,3,16.419,0.4804,0.1289,-0.2607,0.8273,0,0,0,0.006,-0.001,-0.013,1023
2018,4,24,22,3,16.456,0.4804,0.1288,-0.2607,0.8274,0.1,-0.6,-0.4,0.002,0.003,-0.018,1023
2018,4,24,22,3,16.477,0.4803,0.1287,-0.2606,0.8274,-0.4,-0.6,-0.7,0,0.006,-0.011,0
2018,4,24,22,3,16.479,0.4803,0.1285,-0.2607,0.8275,-0.9,-0.9,-0.9,-0.004,0.008,-0.017,0
2018,4,24,22,3,16.516,0.4802,0.1283,-0.2608,0.8275,-1.2,-0.8,-1,0.002,0.005,-0.012,0
2018,4,24,22,3,16.537,0.4801,0.1281,-0.2609,0.8276,-0.9,-0.9,-1.3,0,0.003,-0.015,0
2018,4,24,22,3,16.542,0.48,0.1278,-0.261,0.8277,-1.1,-0.8,-1.5,0.007,0.001,-0.012,0
2018,4,24,22,3,16.557,0.4798,0.1274,-0.2611,0.8278,-1.4,-1.3,-1.6,0.009,0.003,-0.012,0
2018,4,24,22,3,16.595,0.4797,0.1269,-0.2612,0.8279,-1.7,-1.7,-1.4,0.009,0,-0.012,0
2018,4,24,22,3,16.618,0.4796,0.1263,-0.2613,0.828,-1.7,-1.9,-1.1,0.011,-0.001,-0.01,0
2018,4,24,22,3,16.623,0.4796,0.1258,-0.2614,0.828,-1.4,-1.7,-0.8,0.009,-0.002,-0.01,0
2018,4,24,22,3,16.641,0.4796,0.1253,-0.2615,0.8281,-1.3,-1.4,-0.6,0.01,-0.004,-0.011,0
2018,4,24,22,3,16.678,0.4796,0.1249,-0.2616,0.8281,-0.9,-1,-0.6,0.006,-0.004,-0.012,0
2018,4,24,22,3,16.701,0.4795,0.1246,-0.2617,0.8282,-0.3,-0.7,-0.3,0.002,0,-0.014,0
2018,4,24,22,3,16.706,0.4795,0.1245,-0.2616,0.8282,0,0,0,0.003,0,-0.012,0
2018,4,24,22,3,16.721,0.4795,0.1245,-0.2617,0.8282,0,0,0,0.008,-0.002,-0.008,0
2018,4,24,22,3,16.744,0.4795,0.1244,-0.2616,0.8283,0,0,0,0.005,0,-0.008,0
2018,4,24,22,3,16.76,0.4794,0.1244,-0.2617,0.8283,0,0,0,0.007,-0.002,-0.012,0
2018,4,24,22,3,16.778,0.4794,0.1243,-0.2617,0.8283,0.6,0.1,0,0.008,-0.002,-0.015,0
2018,4,24,22,3,16.801,0.4794,0.1244,-0.2615,0.8283,1,0,0,0.001,-0.001,-0.01,0
2018,4,24,22,3,16.818,0.4794,0.1245,-0.2614,0.8284,1,-0.1,0,0.003,0.001,-0.012,0
2018,4,24,22,3,16.842,0.4794,0.1245,-0.2612,0.8284,0.9,-0.4,0.1,0,0.005,-0.014,0
2018,4,24,22,3,16.879,0.4794,0.1245,-0.2611,0.8284,0.4,-0.7,0,0.003,0.001,-0.016,0
2018,4,24,22,3,16.901,0.4795,0.1245,-0.261,0.8285,0.4,-0.8,0,0.004,0.005,-0.016,0
2018,4,24,22,3,16.906,0.4795,0.1243,-0.2608,0.8285,0.2,-0.9,0,0.004,0.006,-0.008,0
2018,4,24,22,3,16.923,0.4795,0.1242,-0.2606,0.8286,0.1,-1.1,0,0.007,0.006,-0.012,0
2018,4,24,22,3,16.946,0.4796,0.124,-0.2606,0.8286,-0.5,-0.8,0,0.011,0.006,-0.012,0
2018,4,24,22,3,16.964,0.4796,0.1238,-0.2605,0.8286,-0.5,-0.9,-0.2,0.008,0,-0.007,0
2018,4,24,22,3,16.98,0.4796,0.1235,-0.2605,0.8287,0,-0.7,-0.3,0.01,-0.004,-0.006,0
2018,4,24,22,3,16.998,0.4796,0.1234,-0.2604,0.8288,0.5,-0.5,-0.3,0.012,0.003,-0.011,0
2018,4,24,22,3,17.021,0.4795,0.1233,-0.2602,0.8288,0.5,-0.5,-0.2,0.005,0.005,-0.007,0
2018,4,24,22,3,17.039,0.4795,0.1233,-0.2601,0.8289,0,0,0,0.007,0.008,-0.012,0
2018,4,24,22,3,17.063,0.4795,0.1232,-0.2601,0.8289,-0.6,-0.3,-0.4,0.007,0.007,-0.009,1023
2018,4,24,22,3,17.1,0.4795,0.1231,-0.2602,0.8289,-1.1,-0.3,0,0.006,0,-0.006,1023
2018,4,24,22,3,17.122,0.4796,0.1229,-0.2604,0.8288,-0.5,-0.2,0.1,0.003,-0.005,-0.014,1023
2018,4,24,22,3,17.127,0.4795,0.1229,-0.2604,0.8288,0,0,0,0.009,-0.001,-0.015,1023
2018,4,24,22,3,17.142,0.4795,0.1228,-0.2604,0.8289,0,0,0,0.007,0.004,-0.008,1023
2018,4,24,22,3,17.179,0.4795,0.1228,-0.2603,0.8289,0,0,0,0.009,0.003,-0.018,1023
2018,4,24,22,3,17.203,0.4795,0.1227,-0.2603,0.8289,0,0,0,0.008,0.004,-0.014,1023
2018,4,24,22,3,17.208,0.4795,0.1227,-0.2603,0.8289,0,0,0,0.006,0.005,-0.012,1023
2018,4,24,22,3,17.224,0.4795,0.1227,-0.2603,0.8289,0,0,0,0.004,0,-0.01,1023
2018,4,24,22,3,17.247,0.4795,0.1227,-0.2603,0.8289,0,0,0,0.003,0.006,-0.013,0
2018,4,24,22,3,17.265,0.4795,0.1226,-0.2602,0.8289,0,-0.6,-0.2,0.002,0.002,-0.016,0
2018,4,24,22,3,17.284,0.4795,0.1225,-0.2602,0.8289,-0.1,-0.6,-0.2,0.005,0.001,-0.014,0
2018,4,24,22,3,17.302,0.4795,0.1224,-0.2602,0.829,-0.1,-0.6,-0.2,0.007,0.002,-0.014,0
2018,4,24,22,3,17.324,0.4795,0.1222,-0.2601,0.829,0.1,-0.8,-0.2,0.009,0.004,-0.012,0
2018,4,24,22,3,17.361,0.4795,0.1221,-0.26,0.8291,0.1,-0.6,-0.5,0.01,0.005,-0.007,0
2018,4,24,22,3,17.384,0.4795,0.1219,-0.2599,0.8292,0,-0.8,-0.5,0.008,0.006,-0.011,0
2018,4,24,22,3,17.389,0.4795,0.1218,-0.2598,0.8292,-0.3,-0.5,-0.3,0.002,0.003,-0.009,0
2018,4,24,22,3,17.405,0.4795,0.1216,-0.2598,0.8292,0,0,0,0.006,0.003,-0.009,0
2018,4,24,22,3,17.428,0.4795,0.1216,-0.2598,0.8293,-0.6,-0.3,0,0.006,0.004,-0.01,0
2018,4,24,22,3,17.446,0.4795,0.1215,-0.2598,0.8293,0,0,0,0.009,0,-0.015,0
2018,4,24,22,3,17.469,0.4795,0.1214,-0.2598,0.8293,0,0,0,0.006,0,-0.012,0
2018,4,24,22,3,17.486,0.4795,0.1214,-0.2598,0.8293,0,0,0,0.008,0.001,-0.011,0
2018,4,24,22,3,17.504,0.4795,0.1213,-0.2598,0.8293,0,0,0,0.01,0.003,-0.013,0
2018,4,24,22,3,17.527,0.4794,0.1213,-0.2598,0.8293,0,0,0,0.009,0.002,-0.016,0
2018,4,24,22,3,17.546,0.4795,0.1212,-0.2598,0.8293,0,0,0,0.006,0.002,-0.011,0
2018,4,24,22,3,17.582,0.4794,0.1212,-0.2598,0.8293,0,0,0,0.004,0.001,-0.014,0
2018,4,24,22,3,17.606,0.4794,0.1212,-0.2598,0.8293,0,0,0,0.004,0.005,-0.011,0
2018,4,24,22,3,17.61,0.4794,0.1212,-0.2599,0.8293,0,0,0,0.004,0.003,-0.014,0
2018,4,24,22,3,17.626,0.4794,0.1212,-0.2598,0.8293,0,0,0,0.003,0.006,-0.01,0
2018,4,24,22,3,17.648,0.4794,0.1212,-0.2598,0.8293,0,0,0,0.011,0.005,-0.01,0
2018,4,24,22,3,17.669,0.4794,0.1211,-0.2598,0.8293,-0.1,-0.5,-0.2,0.01,0.006,-0.013,0
2018,4,24,22,3,17.685,0.4794,0.121,-0.2597,0.8294,-0.5,-0.9,-0.2,0.006,0.007,-0.014,0
2018,4,24,22,3,17.721,0.4795,0.1208,-0.2598,0.8294,-0.9,-0.6,0,0.01,-0.001,-0.013,0
2018,4,24,22,3,17.741,0.4795,0.1207,-0.2599,0.8294,0,0,0,0.005,0.002,-0.014,0
2018,4,24,22,3,17.747,0.4795,0.1206,-0.2599,0.8294,0,0,0,0.006,0.004,-0.009,0
2018,4,24,22,3,17.763,0.4795,0.1205,-0.2598,0.8294,0,0,0,0.012,0,-0.007,0
2018,4,24,22,3,17.786,0.4795,0.1205,-0.2598,0.8294,0,0,0,0.013,0.002,-0.013,0
2018,4,24,22,3,17.824,0.4795,0.1204,-0.2598,0.8294,0,0,0,0.008,0.001,-0.011,0
2018,4,24,22,3,17.845,0.4795,0.1204,-0.2598,0.8294,0,0,0,0.009,0,-0.018,1023
2018,4,24,22,3,17.85,0.4794,0.1204,-0.2598,0.8294,0,-0.5,-0.2,0.006,0.002,-0.015,1023
2018,4,24,22,3,17.887,0.4794,0.1204,-0.2599,0.8294,0,0,0,0.005,0.001,-0.014,1023
2018,4,24,22,3,17.91,0.4794,0.1203,-0.2599,0.8294,0,0,0,0.01,-0.001,-0.009,1023
2018,4,24,22,3,17.914,0.4794,0.1203,-0.2599,0.8295,0.5,-0.1,0.2,0.009,0,-0.009,1023
2018,4,24,22,3,17.927,0.4794,0.1202,-0.2597,0.8295,0.7,-0.2,0,0.013,0.003,-0.004,1023
2018,4,24,22,3,17.945,0.4794,0.1202,-0.2596,0.8295,0.5,0,0,0.014,0.001,-0.007,1023
2018,4,24,22,3,17.969,0.4794,0.1202,-0.2595,0.8296,0.5,0.3,0,0.013,0.002,-0.01,1023
2018,4,24,22,3,17.985,0.4794,0.1202,-0.2594,0.8296,0,0,0,0.009,0.002,-0.015,1023
2018,4,24,22,3,18.01,0.4794,0.1202,-0.2594,0.8296,0,0,0,0.004,0,-0.015,0
2018,4,24,22,3,18.028,0.4794,0.1202,-0.2594,0.8296,0.5,0,0,0,0.006,-0.016,0
2018,4,24,22,3,18.051,0.4794,0.1202,-0.2594,0.8296,0,0,0,0,0.004,-0.008,0
2018,4,24,22,3,18.068,0.4794,0.1202,-0.2594,0.8296,0,0,0,0.003,0.003,-0.011,0
2018,4,24,22,3,18.088,0.4794,0.1201,-0.2594,0.8296,-0.6,-0.6,-0.2,0.007,0.002,-0.012,0
2018,4,24,22,3,18.125,0.4794,0.1199,-0.2594,0.8297,-0.3,-0.6,-0.3,0.011,0.006,-0.016,0
2018,4,24,22,3,18.147,0.4794,0.1197,-0.2594,0.8297,-0.1,-0.8,-0.3,0.01,0,-0.01,0
2018,4,24,22,3,18.153,0.4794,0.1195,-0.2593,0.8298,-0.1,-0.8,-0.2,0.01,0.005,-0.011,0
2018,4,24,22,3,18.169,0.4794,0.1193,-0.2593,0.8298,-0.1,-0.9,0,0.008,0.005,-0.006,0
2018,4,24,22,3,18.188,0.4794,0.1191,-0.2592,0.8298,0.1,-0.6,0,0.008,0.006,-0.013,0
2018,4,24,22,3,18.21,0.4794,0.119,-0.2591,0.8298,0,0,0,0.014,-0.001,-0.011,0
2018,4,24,22,3,18.246,0.4794,0.1189,-0.2591,0.8299,-0.5,0,0,0.013,0,-0.008,0
2018,4,24,22,3,18.267,0.4794,0.1188,-0.2591,0.8299,-0.5,0,-0.1,0.012,0.004,-0.005,0
2018,4,24,22,3,18.271,0.4794,0.1188,-0.2592,0.8299,0,0,0,0.008,0.002,-0.014,0
2018,4,24,22,3,18.289,0.4794,0.1187,-0.2592,0.8299,0,0,0,0.005,0.004,-0.011,0
2018,4,24,22,3,18.31,0.4794,0.1187,-0.2592,0.8299,0,0,0,0.003,0.002,-0.011,0
2018,4,24,22,3,18.349,0.4794,0.1187,-0.2592,0.8299,0,0,0,0.004,0,-0.019,0
2018,4,24,22,3,18.371,0.4794,0.1187,-0.2593,0.8299,0,0,0,0.008,0.003,-0.015,0
2018,4,24,22,3,18.376,0.4794,0.1187,-0.2592,0.8299,0.6,-0.5,0,0.009,0.002,-0.015,0
2018,4,24,22,3,18.39,0.4794,0.1186,-0.259,0.83,0.5,-0.5,0,0.008,0.01,-0.007,0
2018,4,24,22,3,18.428,0.4794,0.1185,-0.2589,0.83,0.1,-0.5,0,0.008,0.005,-0.012,0
2018,4,24,22,3,18.428,0.4795,0.1184,-0.2588,0.83,-0.1,-0.5,0,0.01,0.002,-0.009,0
2018,4,24,22,3,18.452,0.4795,0.1184,-0.2588,0.83,0,0,0,0.012,0.004,-0.012,0
2018,4,24,22,3,18.471,0.4795,0.1183,-0.2588,0.83,0,0,0,0.012,0.003,-0.01,0
2018,4,24,22,3,18.494,0.4794,0.1182,-0.2588,0.8301,0.5,0.2,-0.5,0.011,-0.001,-0.008,0
2018,4,24,22,3,18.513,0.4793,0.1182,-0.2587,0.8302,0.7,0.2,-0.3,0.009,0.003,-0.012,0
2018,4,24,22,3,18.532,0.4793,0.1183,-0.2586,0.8302,0.7,0.1,-0.2,0.006,0,-0.01,0
2018,4,24,22,3,18.555,0.4792,0.1184,-0.2586,0.8302,0,0,0,0.007,0.01,-0.015,0
2018,4,24,22,3,18.573,0.4792,0.1184,-0.2586,0.8302,0,0,0,0.006,-0.001,-0.016,0
2018,4,24,22,3,18.596,0.4792,0.1183,-0.2586,0.8302,0,0,0,0.008,0.006,-0.014,1023
2018,4,24,22,3,18.612,0.4792,0.1183,-0.2585,0.8302,0,0,0,0.008,0.003,-0.009,1023
2018,4,24,22,3,18.631,0.4792,0.1183,-0.2585,0.8303,0,0,0,0.006,0.005,-0.009,1023
2018,4,24,22,3,18.649,0.4792,0.1183,-0.2585,0.8303,0,0,0,0.003,0.009,-0.008,1023
2018,4,24,22,3,18.673,0.4793,0.1183,-0.2585,0.8303,-0.6,0.1,0,0.006,0.004,-0.009,1023
2018,4,24,22,3,18.71,0.4793,0.1182,-0.2586,0.8302,-0.6,0.2,0.3,0.01,0,-0.011,1023
2018,4,24,22,3,18.732,0.4793,0.1181,-0.2586,0.8302,0,0,0,0.009,-0.001,-0.007,1023
2018,4,24,22,3,18.737,0.4793,0.1181,-0.2586,0.8303,0.2,0.5,0.1,0.015,0,-0.011,1023
2018,4,24,22,3,18.771,0.4792,0.1181,-0.2586,0.8303,0.2,0.8,0,0.013,0.002,-0.011,1023
2018,4,24,22,3,18.793,0.4792,0.1182,-0.2586,0.8303,0.4,0.7,0,0.01,0,-0.012,1023
2018,4,24,22,3,18.797,0.4792,0.1183,-0.2586,0.8303,0.6,0.4,0.1,0.006,0.004,-0.009,0
2018,4,24,22,3,18.814,0.4791,0.1185,-0.2586,0.8303,0.5,0.4,0,0.001,0,-0.015,0
2018,4,24,22,3,18.837,0.4791,0.1186,-0.2586,0.8302,0.5,0.2,0.1,0,0.001,-0.018,0
2018,4,24,22,3,18.855,0.4791,0.1187,-0.2586,0.8302,0,0,0,0,0.007,-0.015,0
2018,4,24,22,3,18.877,0.4791,0.1187,-0.2586,0.8302,0,0,0,0.008,0.003,-0.012,0
2018,4,24,22,3,18.894,0.4791,0.1187,-0.2585,0.8303,0.5,-0.3,0,0.01,0.006,-0.01,0
2018,4,24,22,3,18.912,0.4792,0.1186,-0.2584,0.8303,0.4,-0.6,0.1,0.008,0.005,-0.006,0
2018,4,24,22,3,18.934,0.4792,0.1185,-0.2582,0.8303,-0.1,-0.5,0,0.007,0.005,-0.008,0
2018,4,24,22,3,18.954,0.4792,0.1184,-0.2582,0.8303,-0.5,-0.5,-0.3,0.004,0.005,-0.01,0
2018,4,24,22,3,18.976,0.4792,0.1183,-0.2583,0.8304,-0.6,-0.2,-0.4,0.007,0.002,-0.012,0
2018,4,24,22,3,19.012,0.4791,0.1183,-0.2583,0.8304,-0.3,0,-0.5,0.009,0.008,-0.005,0
2018,4,24,22,3,19.036,0.4791,0.1182,-0.2583,0.8304,-0.5,0,-0.5,0.012,0.004,-0.013,0
2018,4,24,22,3,19.04,0.4791,0.1181,-0.2583,0.8304,-0.5,-0.2,-0.1,0.011,0.003,-0.002,0
2018,4,24,22,3,19.06,0.4791,0.118,-0.2584,0.8304,-0.6,-0.3,0,0.005,0.002,-0.008,0
2018,4,24,22,3,19.074,0.4791,0.1178,-0.2584,0.8304,-0.5,0,-0.2,0.007,0,-0.012,0
2018,4,24,22,3,19.093,0.4791,0.1178,-0.2585,0.8304,0,0,0,0.004,0,-0.011,0
2018,4,24,22,3,19.116,0.4791,0.1177,-0.2586,0.8304,0,0,0,0.008,0,-0.015,0
2018,4,24,22,3,19.134,0.4791,0.1177,-0.2586,0.8304,0,0,0,0.008,-0.002,-0.018,0
2018,4,24,22,3,19.156,0.4791,0.1177,-0.2586,0.8304,0,0,0,0.011,0.004,-0.017,0
2018,4,24,22,3,19.192,0.4791,0.1176,-0.2586,0.8304,0,0,0,0.009,0.004,-0.01,0
2018,4,24,22,3,19.214,0.4791,0.1175,-0.2585,0.8305,0.4,-0.5,-0.1,0.012,0.002,-0.01,0
2018,4,24,22,3,19.219,0.4791,0.1175,-0.2584,0.8305,0.1,-0.5,0,0.005,0.005,-0.01,0
2018,4,24,22,3,19.236,0.4791,0.1174,-0.2584,0.8305,-0.5,-0.3,0,0.007,0.004,-0.014,0
2018,4,24,22,3,19.258,0.4791,0.1173,-0.2585,0.8305,-0.5,-0.3,0,0.004,0,-0.017,0
2018,4,24,22,3,19.295,0.4791,0.1173,-0.2585,0.8305,0,0,0,0.006,0,-0.006,0
2018,4,24,22,3,19.295,0.4791,0.1172,-0.2585,0.8305,0,0,0,0.012,0.004,-0.009,0
2018,4,24,22,3,19.318,0.4791,0.1172,-0.2584,0.8305,0,0,0,0.012,0.008,-0.011,0
2018,4,24,22,3,19.337,0.4791,0.1171,-0.2584,0.8306,-0.8,-0.4,0,0.011,0.004,-0.007,0
2018,4,24,22,3,19.353,0.4791,0.1169,-0.2585,0.8305,-0.6,-0.4,-0.1,0.004,0.004,-0.011,1023
2018,4,24,22,3,19.376,0.4791,0.1168,-0.2585,0.8305,0,0,0,0.006,0.001,-0.007,1023
2018,4,24,22,3,19.415,0.4791,0.1168,-0.2585,0.8306,-0.2,0,-0.5,0.007,0.007,-0.008,1023
2018,4,24,22,3,19.415,0.4791,0.1167,-0.2585,0.8306,-0.7,-0.4,-0.4,0.007,0.003,-0.017,1023
2018,4,24,22,3,19.437,0.4791,0.1166,-0.2586,0.8306,-0.9,-0.2,-0.1,0.007,0.003,-0.007,1023
2018,4,24,22,3,19.476,0.4791,0.1164,-0.2588,0.8305,-0.9,-0.1,0.2,0.011,-0.002,-0.005,1023
2018,4,24,22,3,19.5,0.4791,0.1162,-0.2589,0.8305,-0.5,0,0.1,0.013,-0.001,-0.007,1023
2018,4,24,22,3,19.504,0.4791,0.1161,-0.2589,0.8305,0,0,0,0.013,-0.003,-0.012,1023
2018,4,24,22,3,19.522,0.4791,0.1161,-0.2589,0.8306,0,0,0,0.014,0.003,-0.012,1023
2018,4,24,22,3,19.538,0.479,0.116,-0.2589,0.8306,0,0,0,0.008,0.003,-0.011,1023
2018,4,24,22,3,19.559,0.479,0.116,-0.2589,0.8306,0,0,0,0.004,0.005,-0.016,0
2018,4,24,22,3,19.577,0.479,0.116,-0.259,0.8306,0,0,0,-0.002,-0.001,-0.016,0
2018,4,24,22,3,19.615,0.479,0.1161,-0.259,0.8305,0,0,0,0.002,0.002,-0.018,0
2018,4,24,22,3,19.638,0.479,0.1161,-0.259,0.8305,0.5,-0.1,0,0.003,0.004,-0.011,0
2018,4,24,22,3,19.643,0.479,0.1161,-0.2589,0.8306,0.7,-0.3,0,0.009,0.008,-0.013,0
2018,4,24,22,3,19.66,0.479,0.1161,-0.2588,0.8306,0,-0.5,0,0.012,0.005,-0.011,0
2018,4,24,22,3,19.678,0.4791,0.1159,-0.2587,0.8306,-0.2,-0.8,0,0.01,0.005,-0.012,0
2018,4,24,22,3,19.701,0.4791,0.1158,-0.2587,0.8307,0,-0.6,0,0.011,0.002,-0.006,0
2018,4,24,22,3,19.719,0.4791,0.1157,-0.2586,0.8307,0,0,0,0.006,0.006,-0.006,0
2018,4,24,22,3,19.741,0.4791,0.1157,-0.2586,0.8307,0,0,0,0.006,0.009,-0.012,0
2018,4,24,22,3,19.759,0.4791,0.1157,-0.2586,0.8307,-0.5,0,-0.1,0.008,0.008,-0.006,0
2018,4,24,22,3,19.781,0.4791,0.1156,-0.2586,0.8307,-1,0,0,0.009,0.003,-0.009,0
2018,4,24,22,3,19.8,0.4791,0.1154,-0.2588,0.8307,-0.8,-0.1,0,0.01,0.002,-0.014,0
2018,4,24,22,3,19.818,0.4791,0.1153,-0.2589,0.8306,-0.6,0.1,0,0.011,-0.003,-0.013,0
2018,4,24,22,3,19.841,0.4791,0.1152,-0.259,0.8306,0,0,0,0.009,-0.002,-0.013,0
2018,4,24,22,3,19.858,0.4791,0.1152,-0.259,0.8306,0,0,0,0.005,-0.001,-0.012,0
2018,4,24,22,3,19.88,0.4791,0.1151,-0.2591,0.8306,0,0,0,0.007,0.005,-0.01,0
2018,4,24,22,3,19.9,0.4791,0.1152,-0.2591,0.8306,0,0,0,0.005,0.006,-0.013,0
2018,4,24,22,3,19.919,0.4791,0.1152,-0.2591,0.8306,0,0,0,0.006,0.008,-0.01,0
2018,4,24,22,3,19.943,0.4791,0.1152,-0.2591,0.8306,0,0,0,0.004,0.003,-0.01,0
2018,4,24,22,3,19.961,0.4791,0.1152,-0.2591,0.8306,0,0,0,0.008,0.002,-0.012,0
2018,4,24,22,3,19.984,0.4791,0.1151,-0.2591,0.8306,0,0,0,0.013,0.001,-0.009,0
2018,4,24,22,3,19.999,0.4791,0.1151,-0.259,0.8306,0,0,0,0.012,-0.001,-0.011,0
2018,4,24,22,3,20.019,0.4791,0.115,-0.259,0.8307,0,0,0,0.009,0.002,-0.012,0
2018,4,24,22,3,20.042,0.4791,0.115,-0.259,0.8307,0,0,0,0.006,0.004,-0.008,0
2018,4,24,22,3,20.061,0.4791,0.1149,-0.259,0.8307,0,0,0,0.006,0.004,-0.01,0
2018,4,24,22,3,20.079,0.4791,0.1149,-0.259,0.8307,0,0,0,0.01,0.008,-0.012,0
2018,4,24,22,3,20.102,0.4791,0.1149,-0.259,0.8307,-0.6,0,0,0.014,0.004,-0.007,0
2018,4,24,22,3,20.121,0.4791,0.1147,-0.2591,0.8307,0,0,0,0.012,0.002,-0.011,1023
2018,4,24,22,3,20.143,0.4791,0.1147,-0.2591,0.8307,0,0,0,0.012,0.002,-0.013,1023
2018,4,24,22,3,20.181,0.4791,0.1146,-0.2591,0.8307,0,0,0,0.007,0.007,-0.013,1023
2018,4,24,22,3,20.181,0.4791,0.1146,-0.2591,0.8307,-0.7,-0.1,0,0.002,0.003,-0.015,1023
2018,4,24,22,3,20.203,0.4791,0.1146,-0.2592,0.8307,-0.8,-0.1,0,0.004,0.004,-0.016,1023
2018,4,24,22,3,20.24,0.4791,0.1145,-0.2593,0.8306,0,0,0,0.009,-0.003,-0.01,1023
2018,4,24,22,3,20.264,0.4791,0.1144,-0.2594,0.8307,0,0,0,0.013,0,-0.008,1023
2018,4,24,22,3,20.268,0.479,0.1143,-0.2594,0.8307,0,0,0,0.013,0.001,-0.011,1023
2018,4,24,22,3,20.283,0.479,0.1143,-0.2593,0.8307,0,0,0,0.014,0.005,-0.01,1023
2018,4,24,22,3,20.301,0.479,0.1142,-0.2593,0.8307,0,0,0,0.013,0.003,-0.01,1023
2018,4,24,22,3,20.324,0.479,0.1141,-0.2593,0.8307,0.6,0.1,0.2,0.01,-0.003,-0.006,0
2018,4,24,22,3,20.342,0.479,0.1142,-0.2592,0.8308,0.7,0.2,0.2,0.002,0.004,-0.012,0
2018,4,24,22,3,20.366,0.479,0.1144,-0.2591,0.8308,0.7,0.2,0.1,0,0.001,-0.013,0
2018,4,24,22,3,20.382,0.479,0.1145,-0.2591,0.8308,0,0,0,0,0.009,-0.011,0
2018,4,24,22,3,20.405,0.479,0.1146,-0.2591,0.8307,0,0,0,0.006,0.005,-0.014,0
2018,4,24,22,3,20.426,0.479,0.1145,-0.2591,0.8307,-0.6,-0.1,0,0.011,0.006,-0.012,0
2018,4,24,22,3,20.444,0.4791,0.1144,-0.2592,0.8307,-0.9,-0.1,-0.1,0.011,0.004,-0.012,0
2018,4,24,22,3,20.464,0.479,0.1142,-0.2593,0.8307,-0.5,-0.3,-0.3,0.009,0.001,-0.008,0
2018,4,24,22,3,20.483,0.479,0.1142,-0.2593,0.8307,0,0,0,0.01,0.008,-0.012,0
2018,4,24,22,3,20.502,0.479,0.1142,-0.2592,0.8307,0,0,0,0.009,0.006,-0.006,0
2018,4,24,22,3,20.525,0.479,0.1141,-0.2592,0.8308,-0.8,0,-0.2,0.008,0.01,-0.01,0
2018,4,24,22,3,20.543,0.479,0.114,-0.2594,0.8307,-0.8,0,-0.3,0.011,0.001,-0.009,0
2018,4,24,22,3,20.566,0.479,0.1138,-0.2595,0.8307,-0.6,0,-0.2,0.011,0,-0.007,0
2018,4,24,22,3,20.583,0.479,0.1137,-0.2595,0.8308,0,0,0,0.01,0,-0.004,0
2018,4,24,22,3,20.606,0.4789,0.1136,-0.2595,0.8308,-0.5,0.4,-0.1,0.014,-0.001,-0.016,0
2018,4,24,22,3,20.623,0.4789,0.1136,-0.2596,0.8308,0,0,0,0.011,-0.003,-0.009,0
2018,4,24,22,3,20.646,0.4789,0.1136,-0.2596,0.8308,0,0.5,-0.2,0.006,0,-0.016,0
2018,4,24,22,3,20.665,0.4788,0.1136,-0.2597,0.8308,0,0,0,0.007,0.006,-0.012,0
2018,4,24,22,3,20.688,0.4788,0.1136,-0.2597,0.8308,0,0,0,0.007,0,-0.019,0
2018,4,24,22,3,20.704,0.4788,0.1136,-0.2598,0.8308,-0.5,0.2,0,0.005,0.002,-0.009,0
2018,4,24,22,3,20.741,0.4788,0.1136,-0.2599,0.8307,-0.6,0,-0.2,0.009,-0.002,-0.016,0
2018,4,24,22,3,20.764,0.4788,0.1135,-0.26,0.8307,0,0,0,0.013,-0.001,-0.017,0
2018,4,24,22,3,20.769,0.4787,0.1135,-0.26,0.8308,0.1,0.2,-0.5,0.008,0,-0.011,0
2018,4,24,22,3,20.785,0.4786,0.1134,-0.26,0.8308,0.1,0.2,-0.5,0.006,0.005,-0.012,0
2018,4,24,22,3,20.808,0.4786,0.1135,-0.26,0.8308,0,0.5,-0.5,0.007,0.005,-0.013,0
2018,4,24,22,3,20.825,0.4785,0.1135,-0.2601,0.8309,-0.3,0.5,-0.4,0.005,0.009,-0.012,0
2018,4,24,22,3,20.847,0.4785,0.1136,-0.2601,0.8309,0,0,0,0.004,0.005,-0.009,0
2018,4,24,22,3,20.865,0.4785,0.1136,-0.2601,0.8309,0,0,0,0.008,0.008,-0.012,0
2018,4,24,22,3,20.888,0.4785,0.1136,-0.2601,0.8309,-0.5,0.1,0,0.009,0.005,-0.011,0
2018,4,24,22,3,20.925,0.4785,0.1136,-0.2602,0.8308,0,0,0,0.006,0,-0.013,1023
2018,4,24,22,3,20.925,0.4785,0.1135,-0.2602,0.8308,0,0,0,0.006,-0.003,-0.011,1023
2018,4,24,22,3,20.947,0.4784,0.1135,-0.2602,0.8309,0.3,0,-0.6,0.004,-0.002,-0.011,1023
2018,4,24,22,3,20.965,0.4782,0.1134,-0.2603,0.831,0.3,-0.1,-0.9,0.008,0.002,-0.014,1023
2018,4,24,22,3,20.988,0.4781,0.1134,-0.2602,0.8311,0,-0.2,-0.6,0.008,0.003,-0.009,1023
2018,4,24,22,3,21.006,0.4781,0.1134,-0.2602,0.8311,0,0,0,0.004,0.004,-0.01,1023
2018,4,24,22,3,21.03,0.4781,0.1133,-0.2603,0.8311,-0.8,0,0,0.005,0.005,-0.011,1023
2018,4,24,22,3,21.046,0.4781,0.1132,-0.2604,0.8311,-0.8,0,0,0.01,-0.003,-0.01,1023
2018,4,24,22,3,21.069,0.478,0.1131,-0.2605,0.831,0,0,0,0.018,-0.004,-0.013,1023
2018,4,24,22,3,21.087,0.478,0.113,-0.2605,0.8311,0,0,0,0.013,0,-0.007,1023
2018,4,24,22,3,21.11,0.478,0.113,-0.2606,0.8311,0,0,0,0.007,0.001,-0.012,0
2018,4,24,22,3,21.128,0.478,0.113,-0.2606,0.8311,0,0,0,0.001,0.005,-0.015,0
2018,4,24,22,3,21.151,0.478,0.113,-0.2606,0.8311,0,0,0,0.002,-0.001,-0.018,0
2018,4,24,22,3,21.17,0.478,0.113,-0.2607,0.831,0,0,0,0.003,0,-0.013,0
2018,4,24,22,3,21.194,0.478,0.1131,-0.2607,0.831,0,0,0,0.004,0,-0.016,0
2018,4,24,22,3,21.21,0.4781,0.1131,-0.2606,0.831,0,0,0,0.005,0,-0.013,0
2018,4,24,22,3,21.226,0.4781,0.1131,-0.2605,0.831,0.7,0,0,0.008,0.007,-0.013,0
2018,4,24,22,3,21.249,0.4781,0.1132,-0.2604,0.831,0.5,-0.2,0,0.009,0.006,-0.012,0
2018,4,24,22,3,21.267,0.4781,0.1132,-0.2604,0.8311,0,0,0,0.008,0.01,-0.008,0
2018,4,24,22,3,21.29,0.4781,0.1132,-0.2603,0.8311,0,0,0,0.008,0.008,-0.01,0
2018,4,24,22,3,21.308,0.4781,0.1131,-0.2603,0.8311,-0.6,-0.3,-0.2,0.006,0.007,-0.012,0
2018,4,24,22,3,21.329,0.4782,0.1129,-0.2604,0.831,-1.2,-0.5,0,0.006,0.004,-0.011,0
2018,4,24,22,3,21.367,0.4782,0.1127,-0.2606,0.831,-1,-0.5,0,0.007,-0.001,-0.013,0
2018,4,24,22,3,21.39,0.4782,0.1125,-0.2607,0.831,-0.5,-0.2,-0.2,0.006,-0.002,-0.013,0
2018,4,24,22,3,21.394,0.4782,0.1125,-0.2607,0.831,0,0,0,0.009,0.001,-0.012,0
2018,4,24,22,3,21.42,0.4782,0.1125,-0.2607,0.831,0,0,0,0.005,0.007,-0.01,0
2018,4,24,22,3,21.443,0.4782,0.1124,-0.2607,0.831,-0.6,-0.3,-0.1,0.007,0.006,-0.016,0
2018,4,24,22,3,21.447,0.4782,0.1123,-0.2608,0.831,-0.9,-0.5,0.2,0.007,0,-0.014,0
2018,4,24,22,3,21.483,0.4782,0.1121,-0.2609,0.831,-0.2,-0.5,0.1,0.01,-0.001,-0.009,0
2018,4,24,22,3,21.504,0.4783,0.112,-0.2609,0.831,0,0,0,0.008,-0.003,-0.01,0
2018,4,24,22,3,21.509,0.4782,0.112,-0.2609,0.831,0.5,-0.3,0,0.004,0,-0.009,0
2018,4,24,22,3,21.545,0.4782,0.112,-0.2609,0.831,0,0,0,0.005,0.003,-0.015,0
2018,4,24,22,3,21.565,0.4782,0.112,-0.2609,0.831,0,0,0,0.01,0.008,-0.015,0
2018,4,24,22,3,21.57,0.4782,0.112,-0.2608,0.831,0,0,0,0.008,0.004,-0.011,0
2018,4,24,22,3,21.606,0.4782,0.112,-0.2608,0.831,0,0,0,0.008,0.002,-0.012,0
2018,4,24,22,3,21.606,0.4782,0.1119,-0.2609,0.831,0,0,0,0.009,0,-0.018,0
2018,4,24,22,3,21.629,0.4782,0.1119,-0.2609,0.831,0.5,-0.5,0.2,0.009,-0.002,-0.014,0
2018,4,24,22,3,21.666,0.4782,0.1119,-0.2607,0.831,1.3,-0.2,0,0.007,0.003,-0.011,0
2018,4,24,22,3,21.688,0.4782,0.112,-0.2605,0.8311,1.3,0,-0.1,0.006,0.005,-0.009,0
2018,4,24,22,3,21.693,0.4781,0.112,-0.2603,0.8312,1,0.2,-0.4,0.006,0.008,-0.013,0
2018,4,24,22,3,21.71,0.478,0.1121,-0.2602,0.8313,0.5,0,-0.6,0.003,0.012,-0.009,1023
2018,4,24,22,3,21.732,0.478,0.1121,-0.2601,0.8313,0,0,0,0.006,0.01,-0.013,1023
2018,4,24,22,3,21.75,0.478,0.1122,-0.2601,0.8313,-0.6,-0.2,-0.2,0.005,0.007,-0.008,1023
2018,4,24,22,3,21.774,0.478,0.112,-0.2602,0.8313,-1.2,-0.2,0,0.008,0.003,-0.013,1023
2018,4,24,22,3,21.792,0.4781,0.1118,-0.2604,0.8313,-1.1,-0.2,0,0.009,-0.004,-0.011,1023
2018,4,24,22,3,21.815,0.478,0.1116,-0.2605,0.8312,0,0,0,0.015,-0.005,-0.008,1023
2018,4,24,22,3,21.832,0.478,0.1115,-0.2605,0.8313,0,0,0,0.016,0.001,-0.005,1023
2018,4,24,22,3,21.855,0.478,0.1115,-0.2605,0.8313,0,0,0,0.009,0.005,-0.014,1023
2018,4,24,22,3,21.872,0.478,0.1115,-0.2605,0.8313,0,0,0,0.001,0.005,-0.013,1023
2018,4,24,22,3,21.896,0.478,0.1115,-0.2605,0.8313,0.5,0.3,0.3,0.001,0.003,-0.017,0
2018,4,24,22,3,21.913,0.478,0.1116,-0.2605,0.8313,0.6,0.2,0.3,0.001,0.003,-0.013,0
2018,4,24,22,3,21.93,0.478,0.1117,-0.2604,0.8313,0.5,0,0.3,0.004,0.003,-0.012,0
2018,4,24,22,3,21.952,0.4781,0.1117,-0.2604,0.8313,0,0,0,0.006,0.003,-0.014,0
2018,4,24,22,3,21.99,0.4781,0.1117,-0.2603,0.8313,0.2,-0.5,0,0.004,0.006,-0.012,0
2018,4,24,22,3,22.013,0.4781,0.1117,-0.2602,0.8313,0.2,-0.5,0,0.006,0.006,-0.011,0
2018,4,24,22,3,22.018,0.4782,0.1116,-0.2601,0.8313,0.3,-0.6,0.2,0.011,0.006,-0.015,0
2018,4,24,22,3,22.036,0.4782,0.1115,-0.26,0.8313,0,0,0,0.01,0.005,-0.009,0
2018,4,24,22,3,22.054,0.4782,0.1115,-0.2599,0.8313,0,0,0,0.009,0.006,-0.005,0
2018,4,24,22,3,22.078,0.4782,0.1115,-0.2599,0.8314,0,0,0,0.007,0.004,-0.009,0
2018,4,24,22,3,22.096,0.4782,0.1115,-0.2599,0.8314,0,0,0,0.011,0.007,-0.007,0
2018,4,24,22,3,22.116,0.4782,0.1114,-0.2599,0.8314,-0.5,0.2,0,0.009,0.007,-0.01,0
2018,4,24,22,3,22.131,0.4783,0.1114,-0.26,0.8313,-0.9,0.2,0.2,0.01,0.001,-0.009,0
2018,4,24,22,3,22.154,0.4783,0.1113,-0.2601,0.8313,-0.5,0.2,0.2,0.006,0.003,-0.011,0
2018,4,24,22,3,22.172,0.4783,0.1113,-0.2602,0.8313,0,0,0,0.006,-0.002,-0.011,0
2018,4,24,22,3,22.195,0.4783,0.1112,-0.2602,0.8313,0,0,0,0.007,0.001,-0.012,0
2018,4,24,22,3,22.213,0.4783,0.1112,-0.2602,0.8313,0,0,0,0.003,0.003,-0.012,0
2018,4,24,22,3,22.235,0.4782,0.1112,-0.2603,0.8313,0,0,0,0.003,0,-0.017,0
2018,4,24,22,3,22.274,0.4782,0.1112,-0.2603,0.8313,0,0,0,0.007,0.002,-0.012,0
2018,4,24,22,3,22.295,0.4782,0.1112,-0.2603,0.8313,0,0,0,0.005,0.003,-0.012,0
2018,4,24,22,3,22.299,0.4782,0.1112,-0.2603,0.8313,0,0,0,0.01,0.004,-0.01,0
2018,4,24,22,3,22.314,0.4782,0.1112,-0.2602,0.8313,0,0,0,0.009,0.003,-0.007,0
2018,4,24,22,3,22.332,0.4782,0.1111,-0.2602,0.8313,0,0,0,0.011,0.005,-0.01,0
2018,4,24,22,3,22.352,0.4782,0.1111,-0.2602,0.8313,0,0,0,0.01,0.006,-0.005,0
2018,4,24,22,3,22.388,0.4782,0.1111,-0.2602,0.8313,0,0,0,0.01,0.007,-0.007,0
2018,4,24,22,3,22.411,0.4783,0.1111,-0.2601,0.8313,0,0,0,0.004,0.008,-0.013,0
2018,4,24,22,3,22.415,0.4783,0.1111,-0.2601,0.8313,0,0,0,0.008,0.007,-0.011,0
2018,4,24,22,3,22.45,0.4783,0.1111,-0.2601,0.8313,0,0,0,0.009,0.005,-0.012,0
2018,4,24,22,3,22.473,0.4783,0.1111,-0.2601,0.8313,0,0,0,0.007,0.005,-0.012,0
2018,4,24,22,3,22.477,0.4783,0.111,-0.2601,0.8313,0,0,0,0.007,0.002,-0.008,0
2018,4,24,22,3,22.495,0.4783,0.111,-0.2601,0.8313,0,0,0,0.004,0.008,-0.009,0
2018,4,24,22,3,22.518,0.4782,0.111,-0.2601,0.8313,-0.6,0,-0.4,0.004,0.007,-0.009,1023
2018,4,24,22,3,22.541,0.4782,0.1109,-0.2602,0.8313,-0.8,0,-0.2,0.008,0.003,-0.01,1023
2018,4,24,22,3,22.554,0.4782,0.1109,-0.2603,0.8313,-0.8,0.2,0,0.008,0.002,-0.009,1023
2018,4,24,22,3,22.577,0.4782,0.1108,-0.2605,0.8313,-0.8,0.2,0.1,0.011,0,-0.016,1023
2018,4,24,22,3,22.595,0.4782,0.1107,-0.2607,0.8312,0,0,0,0.012,-0.007,-0.01,1023
2018,4,24,22,3,22.618,0.4782,0.1106,-0.2607,0.8313,0.5,0.2,0.1,0.015,0.002,-0.009,1023
2018,4,24,22,3,22.637,0.4782,0.1105,-0.2606,0.8313,0,0,0,0.012,0.001,-0.008,1023
2018,4,24,22,3,22.656,0.4782,0.1105,-0.2606,0.8313,0.5,0,0.3,0.005,0.001,-0.01,1023
2018,4,24,22,3,22.679,0.4782,0.1106,-0.2606,0.8313,0.8,0,0.5,0.001,-0.001,-0.017,1023
2018,4,24,22,3,22.697,0.4783,0.1107,-0.2605,0.8313,0.8,0.2,0.5,0.001,0.001,-0.017,0
2018,4,24,22,3,22.721,0.4783,0.1109,-0.2603,0.8313,1.2,0,0.5,0.008,0.006,-0.009,0
2018,4,24,22,3,22.755,0.4783,0.111,-0.2602,0.8313,1.2,0,0.3,0.007,0.006,-0.011,0
2018,4,24,22,3,22.777,0.4784,0.1111,-0.26,0.8313,0.8,0.1,0.3,0.008,0.008,-0.008,0
2018,4,24,22,3,22.781,0.4784,0.1112,-0.2598,0.8313,0,0,0,0.007,0.007,-0.01,0
2018,4,24,22,3,22.8,0.4784,0.1112,-0.2598,0.8313,0,0,0,0.007,0.002,-0.01,0
2018,4,24,22,3,22.82,0.4785,0.1112,-0.2598,0.8313,0,0,0,0.007,0.007,-0.009,0
2018,4,24,22,3,22.837,0.4785,0.1112,-0.2597,0.8313,0,0,0,0.008,0.004,-0.013,0
2018,4,24,22,3,22.86,0.4785,0.1111,-0.2597,0.8313,0,0,0,0.011,0.002,-0.013,0
2018,4,24,22,3,22.878,0.4784,0.1111,-0.2597,0.8313,-0.1,0.5,0,0.011,0.003,-0.011,0
2018,4,24,22,3,22.901,0.4784,0.1111,-0.2597,0.8314,0.2,0.5,0,0.01,0.001,-0.005,0
2018,4,24,22,3,22.919,0.4784,0.1112,-0.2597,0.8314,0.3,0.6,0,0.008,0.006,-0.013,0
2018,4,24,22,3,22.939,0.4784,0.1113,-0.2597,0.8314,0,0.5,0,0.003,0.01,-0.01,0
2018,4,24,22,3,22.962,0.4784,0.1114,-0.2598,0.8313,-0.6,0.3,0,0.001,0.004,-0.017,0
2018,4,24,22,3,22.981,0.4784,0.1114,-0.2599,0.8313,0,0,0,0.004,0.002,-0.009,0
2018,4,24,22,3,23.004,0.4784,0.1114,-0.26,0.8313,0,0,0,0.007,0.003,-0.012,0
2018,4,24,22,3,23.019,0.4784,0.1114,-0.26,0.8313,0,0,0,0.005,0.002,-0.015,0
2018,4,24,22,3,23.039,0.4784,0.1114,-0.26,0.8313,0,0,0,0.006,0.003,-0.014,0
2018,4,24,22,3,23.056,0.4784,0.1114,-0.26,0.8313,0,0,0,0.006,0.004,-0.012,0
2018,4,24,22,3,23.079,0.4783,0.1114,-0.26,0.8313,0,0,0,0.011,0.006,-0.007,0
2018,4,24,22,3,23.118,0.4783,0.1113,-0.26,0.8313,0,0,0,0.011,0.001,-0.011,0
2018,4,24,22,3,23.118,0.4783,0.1112,-0.26,0.8313,0,0,0,0.01,0,-0.013,0
2018,4,24,22,3,23.141,0.4783,0.1112,-0.26,0.8313,0,0,0,0.01,0.001,-0.009,0
2018,4,24,22,3,23.179,0.4783,0.1112,-0.26,0.8313,0,0,0,0.003,0.004,-0.01,0
2018,4,24,22,3,23.202,0.4783,0.1112,-0.26,0.8313,0,0,0,0.006,0.006,-0.011,0
2018,4,24,22,3,23.206,0.4783,0.1112,-0.26,0.8313,0,0,0,0.003,0.003,-0.013,0
2018,4,24,22,3,23.224,0.4783,0.1113,-0.26,0.8313,0,0,0,0.004,0.004,-0.015,0
2018,4,24,22,3,23.242,0.4783,0.1112,-0.26,0.8313,0,0,0,0.008,0.003,-0.008,0
2018,4,24,22,3,23.277,0.4783,0.1112,-0.26,0.8313,0,0,0,0.005,0,-0.012,0
2018,4,24,22,3,23.301,0.4783,0.1112,-0.26,0.8313,0,0,0,0.004,0.005,-0.012,0
2018,4,24,22,3,23.305,0.4783,0.1112,-0.26,0.8313,0,0,0,0,0.006,-0.011,0
2018,4,24,22,3,23.321,0.4783,0.1113,-0.26,0.8313,0,0,0,0,0.004,-0.014,0
2018,4,24,22,3,23.339,0.4783,0.1113,-0.2601,0.8313,0,0,0,0.006,0.001,-0.011,0
2018,4,24,22,3,23.363,0.4783,0.1113,-0.26,0.8313,0,0,0,0.004,0.007,-0.009,1023
2018,4,24,22,3,23.399,0.4783,0.1112,-0.26,0.8313,-0.5,0.2,0.2,0.009,0.002,-0.009,1023
2018,4,24,22,3,23.421,0.4783,0.1112,-0.2601,0.8313,0,0,0,0.013,0.001,-0.011,1023
2018,4,24,22,3,23.426,0.4783,0.1112,-0.2601,0.8313,0.3,0.5,0.2,0.013,0.002,-0.008,1023
2018,4,24,22,3,23.442,0.4784,0.1113,-0.2601,0.8313,0.6,0.5,0.2,0.01,0.003,-0.009,1023
2018,4,24,22,3,23.465,0.4783,0.1113,-0.26,0.8313,0,0,0,0.002,0.007,-0.016,1023
2018,4,24,22,3,23.486,0.4784,0.1114,-0.2601,0.8312,0,0,0,0,0.007,-0.015,1023
2018,4,24,22,3,23.502,0.4784,0.1114,-0.2601,0.8312,0,0,0,0.003,0.001,-0.013,1023
2018,4,24,22,3,23.521,0.4784,0.1115,-0.2601,0.8312,0.5,0,0.2,0.004,0.007,-0.015,1023
2018,4,24,22,3,23.543,0.4784,0.1116,-0.26,0.8312,0.5,0,0,0.006,0.007,-0.01,1023
2018,4,24,22,3,23.581,0.4784,0.1116,-0.2599,0.8313,0,0,0,0.012,0.008,-0.011,0
2018,4,24,22,3,23.603,0.4784,0.1116,-0.2599,0.8313,0,0,0,0.01,0.009,-0.007,0
