time_1,time_2,time_3,time_4,time_5,time_6,w,x,y,z,droll,dpitch,dyaw,ax,ay,az,heart
2018,5,17,20,36,32.53,0.0273,-0.3489,-0.2518,0.9022,-1.6,0,0,-0.006,0.007,-0.006,0
2018,5,17,20,36,32.568,0.0272,-0.3489,-0.2522,0.9021,-1.2,-0.1,0,0,0.001,-0.006,0
2018,5,17,20,36,32.59,0.0271,-0.3489,-0.2526,0.902,-0.8,0,0,-0.002,0.001,-0.006,0
2018,5,17,20,36,32.595,0.0271,-0.3489,-0.2528,0.9019,-0.5,0,0.2,-0.002,0.006,-0.001,1023
2018,5,17,20,36,32.609,0.0271,-0.3489,-0.2529,0.9019,-0.6,-0.2,0.2,-0.005,0.007,-0.001,1023
2018,5,17,20,36,32.645,0.027,-0.3489,-0.2529,0.9019,-1,0,0.3,-0.004,0.01,-0.001,1023
2018,5,17,20,36,32.667,0.027,-0.3489,-0.253,0.9019,-1.4,0,0.3,-0.005,0.002,-0.006,1023
2018,5,17,20,36,32.672,0.0269,-0.3489,-0.2534,0.9018,-1.8,0,0.2,-0.002,-0.001,-0.003,1023
2018,5,17,20,36,32.688,0.0269,-0.3489,-0.2537,0.9017,-1.3,0,0.3,-0.005,0.001,-0.012,1023
2018,5,17,20,36,32.71,0.0268,-0.3489,-0.2541,0.9016,-1,0.3,0.2,-0.007,0.004,-0.007,1023
2018,5,17,20,36,32.746,0.0268,-0.3489,-0.2543,0.9015,-1,0,0.2,-0.005,0.005,-0.006,1023
2018,5,17,20,36,32.771,0.0267,-0.3489,-0.2544,0.9015,-0.8,0.4,0.3,-0.004,0.002,-0.005,1023
2018,5,17,20,36,32.775,0.0267,-0.3488,-0.2547,0.9015,-0.6,0,0.2,-0.007,0.002,-0.006,1023
2018,5,17,20,36,32.791,0.0266,-0.3487,-0.2549,0.9014,-1.1,0,0,-0.012,0.007,-0.006,1023
2018,5,17,20,36,32.814,0.0265,-0.3487,-0.2553,0.9013,-1.5,-0.2,0,-0.006,0.006,-0.005,1023
2018,5,17,20,36,32.833,0.0264,-0.3487,-0.2556,0.9012,-1.3,0,0.2,-0.004,0.002,-0.003,1023
2018,5,17,20,36,32.855,0.0264,-0.3487,-0.2558,0.9012,-0.8,0.1,0.2,-0.003,0.001,-0.003,1023
2018,5,17,20,36,32.873,0.0264,-0.3486,-0.2561,0.9011,-0.8,0,0.2,-0.003,0.004,-0.003,1023
2018,5,17,20,36,32.896,0.0263,-0.3486,-0.2563,0.9011,-1.2,0,0.1,-0.005,0.006,-0.004,1023
2018,5,17,20,36,32.933,0.0262,-0.3486,-0.2567,0.901,-1.2,0,0.2,-0.005,0.005,-0.004,1023
2018,5,17,20,36,32.933,0.0262,-0.3486,-0.2568,0.9009,-1.3,-0.1,0,-0.009,0.006,-0.008,1023
2018,5,17,20,36,32.956,0.0261,-0.3486,-0.257,0.9009,-1.6,-0.2,0,-0.004,0.006,-0.008,1023
2018,5,17,20,36,32.973,0.0259,-0.3486,-0.2573,0.9008,-1.6,0,0,-0.006,-0.002,-0.005,1023
2018,5,17,20,36,32.991,0.0259,-0.3486,-0.2575,0.9007,-0.8,0,0.1,-0.005,-0.001,-0.007,1023
2018,5,17,20,36,33.012,0.0258,-0.3486,-0.2578,0.9007,0,0,0,-0.005,0.001,-0.007,0
2018,5,17,20,36,33.051,0.0258,-0.3486,-0.2578,0.9006,-0.6,-0.2,0,-0.003,0.007,-0.008,0
2018,5,17,20,36,33.071,0.0257,-0.3487,-0.2578,0.9006,-1,0,0,-0.005,0.007,-0.006,0
2018,5,17,20,36,33.078,0.0257,-0.3487,-0.2579,0.9006,-1.3,-0.3,0,-0.003,0.003,-0.009,0
2018,5,17,20,36,33.094,0.0256,-0.3488,-0.258,0.9006,-0.9,0,0,-0.006,0.001,-0.007,0
2018,5,17,20,36,33.117,0.0256,-0.3488,-0.2581,0.9005,-0.5,0,0.2,-0.002,0,-0.001,0
2018,5,17,20,36,33.135,0.0256,-0.3488,-0.2581,0.9005,0,0,0,-0.005,0.003,-0.008,0
2018,5,17,20,36,33.158,0.0255,-0.3488,-0.2581,0.9005,0,0,0,-0.006,0.002,-0.008,0
2018,5,17,20,36,33.172,0.0256,-0.3487,-0.2581,0.9005,-0.2,0.5,0.4,-0.008,0.007,-0.005,0
2018,5,17,20,36,33.211,0.0255,-0.3487,-0.2583,0.9005,-1,0,0.2,-0.006,0.006,-0.009,0
2018,5,17,20,36,33.234,0.0255,-0.3487,-0.2585,0.9004,-0.9,0,0.3,-0.005,0.001,-0.009,0
2018,5,17,20,36,33.239,0.0255,-0.3486,-0.2588,0.9004,0,0,0,-0.006,0,-0.009,0
2018,5,17,20,36,33.256,0.0256,-0.3486,-0.2588,0.9004,0.5,0.4,0.1,-0.006,0.001,-0.009,0
2018,5,17,20,36,33.277,0.0256,-0.3485,-0.2586,0.9005,0.8,0.5,0,-0.01,0.004,0,0
2018,5,17,20,36,33.294,0.0256,-0.3484,-0.2584,0.9006,0,0,0,-0.01,0.007,-0.005,0
2018,5,17,20,36,33.317,0.0256,-0.3484,-0.2584,0.9006,0,0,0,-0.01,0.005,-0.009,0
2018,5,17,20,36,33.354,0.0256,-0.3484,-0.2585,0.9005,-0.4,-0.5,-0.6,-0.006,0.006,-0.008,0
2018,5,17,20,36,33.354,0.0255,-0.3485,-0.2586,0.9005,0,0,0,-0.005,0.004,-0.008,0
2018,5,17,20,36,33.379,0.0255,-0.3485,-0.2587,0.9004,0.5,-0.2,-0.1,-0.005,0,-0.002,0
2018,5,17,20,36,33.396,0.0255,-0.3485,-0.2586,0.9005,0.9,0,0,-0.003,0.009,-0.001,0
2018,5,17,20,36,33.414,0.0255,-0.3485,-0.2584,0.9005,0.9,0,0,-0.005,0.008,-0.003,0
2018,5,17,20,36,33.437,0.0255,-0.3485,-0.2583,0.9006,0.5,0,0,-0.004,0.006,-0.002,0
2018,5,17,20,36,33.455,0.0255,-0.3485,-0.2583,0.9006,0,0,0,-0.006,0.005,-0.004,0
2018,5,17,20,36,33.475,0.0255,-0.3485,-0.2583,0.9006,0.6,0,0,-0.006,0.006,-0.008,0
2018,5,17,20,36,33.513,0.0255,-0.3485,-0.2579,0.9007,0.5,0,-0.2,-0.002,0.005,-0.006,1023
2018,5,17,20,36,33.537,0.0255,-0.3486,-0.2578,0.9007,0,0,0,-0.004,0.001,-0.006,1023
2018,5,17,20,36,33.541,0.0255,-0.3486,-0.2578,0.9007,0,0,0,-0.004,-0.001,-0.004,1023
2018,5,17,20,36,33.556,0.0255,-0.3486,-0.2579,0.9007,0,0,0,-0.008,0.002,-0.005,1023
2018,5,17,20,36,33.581,0.0255,-0.3486,-0.258,0.9006,0,0,0,-0.007,0.004,-0.007,1023
2018,5,17,20,36,33.599,0.0255,-0.3486,-0.2579,0.9007,0.6,0,-0.3,-0.004,0.002,-0.006,1023
2018,5,17,20,36,33.622,0.0255,-0.3486,-0.2577,0.9007,0.9,-0.1,-0.2,-0.006,0.001,0,1023
2018,5,17,20,36,33.642,0.0255,-0.3486,-0.2578,0.9007,0.8,-0.3,-0.2,-0.004,0.004,-0.001,1023
2018,5,17,20,36,33.655,0.0255,-0.3486,-0.2576,0.9007,0.8,-0.3,0,-0.006,0.007,0.001,1023
2018,5,17,20,36,33.676,0.0256,-0.3487,-0.2574,0.9008,0.6,0,-0.1,-0.006,0.004,-0.003,1023
2018,5,17,20,36,33.698,0.0256,-0.3486,-0.2573,0.9008,0.5,0,0.2,-0.006,0.005,-0.005,1023
2018,5,17,20,36,33.736,0.0256,-0.3486,-0.2571,0.9008,0,0,0,-0.002,0.004,-0.006,1023
2018,5,17,20,36,33.736,0.0256,-0.3486,-0.2573,0.9008,0,0,0,-0.007,0.005,-0.005,1023
2018,5,17,20,36,33.759,0.0256,-0.3486,-0.2572,0.9008,0.5,0,0,-0.003,0.005,-0.004,1023
2018,5,17,20,36,33.798,0.0256,-0.3486,-0.2573,0.9008,0,0,0,-0.006,0.003,-0.004,1023
2018,5,17,20,36,33.82,0.0256,-0.3486,-0.2572,0.9008,0.5,-0.2,-0.1,-0.005,0.004,-0.004,1023
2018,5,17,20,36,33.823,0.0256,-0.3486,-0.2571,0.9009,0.7,-0.3,0.1,-0.003,0.003,-0.004,1023
2018,5,17,20,36,33.838,0.0257,-0.3487,-0.2569,0.9009,0.8,-0.3,0,-0.01,0.005,-0.008,1023
2018,5,17,20,36,33.861,0.0258,-0.3487,-0.2567,0.9009,0.7,0,0,-0.01,0.003,-0.006,1023
2018,5,17,20,36,33.896,0.0258,-0.3487,-0.2567,0.901,0.5,-0.2,-0.2,-0.009,0.004,-0.003,1023
2018,5,17,20,36,33.919,0.0258,-0.3487,-0.2566,0.901,0,0,0,-0.001,0.003,-0.007,1023
2018,5,17,20,36,33.922,0.0258,-0.3487,-0.2566,0.901,0.8,0,0,-0.001,0,-0.001,0
2018,5,17,20,36,33.959,0.0258,-0.3487,-0.2566,0.901,1.3,0,0.1,-0.007,0.003,-0.004,0
2018,5,17,20,36,33.959,0.0259,-0.3486,-0.2564,0.9011,1.2,0,0.1,-0.005,0.006,-0.001,0
2018,5,17,20,36,33.98,0.026,-0.3485,-0.2563,0.9011,0.9,0,0.2,-0.007,0.007,-0.003,0
2018,5,17,20,36,33.999,0.026,-0.3485,-0.256,0.9012,0.7,0.1,0.2,-0.007,0.006,-0.006,0
2018,5,17,20,36,34.02,0.026,-0.3485,-0.2558,0.9013,0.8,0.1,0,-0.003,0.007,-0.006,0
2018,5,17,20,36,34.058,0.0261,-0.3485,-0.2557,0.9013,0.8,-0.1,0,-0.006,0.002,-0.007,0
2018,5,17,20,36,34.08,0.0261,-0.3485,-0.2558,0.9013,0.9,-0.1,0,-0.005,0.005,-0.006,0
2018,5,17,20,36,34.083,0.0261,-0.3485,-0.2558,0.9013,0.8,-0.2,0.1,-0.006,0.005,-0.005,0
2018,5,17,20,36,34.121,0.0262,-0.3485,-0.2556,0.9013,0.5,-0.1,0,-0.007,0.006,-0.002,0
2018,5,17,20,36,34.141,0.0262,-0.3485,-0.2555,0.9013,0.6,0.2,0,-0.005,0.004,-0.004,0
2018,5,17,20,36,34.142,0.0262,-0.3485,-0.2553,0.9014,0.9,0.3,-0.2,-0.005,0.003,-0.009,0
2018,5,17,20,36,34.161,0.0262,-0.3484,-0.255,0.9015,0.8,0,-0.3,-0.008,0.005,-0.007,0
2018,5,17,20,36,34.199,0.0262,-0.3484,-0.255,0.9015,0,0,0,-0.008,0.003,-0.008,0
2018,5,17,20,36,34.22,0.0261,-0.3484,-0.255,0.9015,0.4,-0.2,-0.5,-0.005,0,-0.005,0
2018,5,17,20,36,34.221,0.0261,-0.3485,-0.2548,0.9015,0.5,-0.5,-0.3,-0.002,0.001,-0.007,0
2018,5,17,20,36,34.255,0.0261,-0.3486,-0.2547,0.9015,0.8,-0.4,-0.1,-0.004,0.005,-0.005,0
2018,5,17,20,36,34.279,0.0262,-0.3487,-0.2546,0.9015,0.8,-0.2,0,-0.004,0.006,-0.008,0
2018,5,17,20,36,34.284,0.0262,-0.3487,-0.2545,0.9016,0.6,0,0.2,-0.007,0.007,-0.007,0
2018,5,17,20,36,34.321,0.0263,-0.3487,-0.2544,0.9016,0.6,0,0,-0.003,0.004,-0.003,0
2018,5,17,20,36,34.343,0.0263,-0.3487,-0.2541,0.9016,0.6,0,0,-0.001,0.006,-0.003,0
2018,5,17,20,36,34.349,0.0263,-0.3488,-0.2541,0.9016,0.6,0,0.1,-0.002,0.004,-0.005,0
2018,5,17,20,36,34.365,0.0263,-0.3487,-0.2542,0.9016,0.6,0.2,0.2,-0.006,0.003,-0.007,0
2018,5,17,20,36,34.383,0.0264,-0.3486,-0.2541,0.9017,0.8,0.2,0.1,-0.008,0.002,-0.006,0
2018,5,17,20,36,34.405,0.0264,-0.3486,-0.2539,0.9018,0,0,0,-0.005,0.007,-0.005,0
2018,5,17,20,36,34.423,0.0264,-0.3486,-0.2538,0.9018,0,0,0,-0.005,0.004,-0.009,1023
2018,5,17,20,36,34.446,0.0264,-0.3486,-0.254,0.9018,0.8,0.2,0,-0.004,0.001,-0.003,1023
2018,5,17,20,36,34.464,0.0264,-0.3485,-0.2538,0.9018,0.9,0,-0.1,-0.007,0.006,-0.008,1023
2018,5,17,20,36,34.483,0.0265,-0.3485,-0.2536,0.9019,1.1,-0.1,-0.1,-0.004,0.006,-0.004,1023
2018,5,17,20,36,34.505,0.0265,-0.3485,-0.2532,0.902,0.8,-0.2,0,-0.006,0.005,0.001,1023
2018,5,17,20,36,34.523,0.0265,-0.3485,-0.2531,0.902,0.6,0,-0.2,-0.007,0.001,-0.002,1023
2018,5,17,20,36,34.546,0.0265,-0.3485,-0.253,0.902,0.8,0,-0.1,-0.005,0.004,-0.003,1023
2018,5,17,20,36,34.566,0.0265,-0.3486,-0.2528,0.9021,0.6,0,0,-0.001,0.006,-0.004,1023
2018,5,17,20,36,34.603,0.0265,-0.3485,-0.2526,0.9021,0,0,0,-0.003,0.005,0.002,1023
2018,5,17,20,36,34.626,0.0265,-0.3485,-0.2525,0.9022,0,0,0,-0.003,0.003,-0.003,1023
2018,5,17,20,36,34.631,0.0265,-0.3485,-0.2525,0.9022,0.5,0.1,0,-0.006,0.005,-0.006,1023
2018,5,17,20,36,34.647,0.0266,-0.3485,-0.2524,0.9022,0,0,0,-0.008,0.004,-0.009,1023
2018,5,17,20,36,34.67,0.0265,-0.3485,-0.2524,0.9022,0,0,0,-0.006,0.007,-0.001,1023
2018,5,17,20,36,34.685,0.0265,-0.3485,-0.2523,0.9023,0,0,0,-0.007,0.005,-0.007,1023
2018,5,17,20,36,34.703,0.0265,-0.3485,-0.2523,0.9023,0,0,0,-0.005,0.003,-0.011,1023
2018,5,17,20,36,34.727,0.0265,-0.3485,-0.2523,0.9023,0,0,0,-0.002,0.005,-0.002,1023
2018,5,17,20,36,34.764,0.0265,-0.3485,-0.2522,0.9023,0,0,0,-0.005,0.004,-0.004,1023
2018,5,17,20,36,34.785,0.0265,-0.3485,-0.2522,0.9023,0,0,0,-0.008,0.003,-0.006,1023
2018,5,17,20,36,34.791,0.0265,-0.3485,-0.2522,0.9023,0,0,0,-0.003,0.004,-0.004,1023
2018,5,17,20,36,34.808,0.0265,-0.3485,-0.252,0.9023,0.6,-0.1,0,-0.006,0.006,-0.001,1023
2018,5,17,20,36,34.844,0.0265,-0.3486,-0.252,0.9023,0.5,0.1,0,-0.005,0.007,-0.001,0
2018,5,17,20,36,34.868,0.0265,-0.3485,-0.252,0.9023,0,0,0,-0.007,0.007,0,0
2018,5,17,20,36,34.872,0.0265,-0.3485,-0.2519,0.9023,0,0,0,-0.006,0.002,-0.006,0
2018,5,17,20,36,34.891,0.0265,-0.3484,-0.2519,0.9024,0,0,0,-0.005,0.006,-0.005,0
2018,5,17,20,36,34.91,0.0264,-0.3484,-0.2518,0.9024,0.8,0.3,0,-0.006,0.008,-0.004,0
2018,5,17,20,36,34.933,0.0264,-0.3483,-0.2517,0.9025,0,0,0,-0.01,0.009,-0.005,0
2018,5,17,20,36,34.948,0.0264,-0.3483,-0.2516,0.9025,0,0,0,-0.005,0.013,-0.001,0
2018,5,17,20,36,34.966,0.0263,-0.3484,-0.2516,0.9025,-0.8,-0.6,0,0,0.006,0,0
2018,5,17,20,36,34.988,0.0263,-0.3484,-0.2519,0.9024,-0.5,-0.1,0.3,-0.005,-0.006,-0.004,0
2018,5,17,20,36,35.026,0.0264,-0.3484,-0.252,0.9024,0.6,0.2,0.2,-0.004,-0.001,0,0
2018,5,17,20,36,35.048,0.0264,-0.3483,-0.2518,0.9024,0.8,0.1,0,-0.007,0.008,-0.002,0
2018,5,17,20,36,35.053,0.0264,-0.3483,-0.2518,0.9025,0,0,0,-0.008,0.011,-0.006,0
2018,5,17,20,36,35.071,0.0264,-0.3483,-0.2517,0.9025,0,0,0,-0.006,0.005,-0.008,0
2018,5,17,20,36,35.088,0.0264,-0.3483,-0.2517,0.9025,0,0,0,-0.005,0.001,-0.01,0
2018,5,17,20,36,35.112,0.0264,-0.3483,-0.2517,0.9025,0,0,0,-0.006,0.004,0,0
2018,5,17,20,36,35.129,0.0263,-0.3483,-0.2517,0.9025,-0.2,-0.7,-0.2,-0.006,0.005,0,0
2018,5,17,20,36,35.151,0.0263,-0.3485,-0.2517,0.9024,0,-0.5,-0.1,-0.003,0.001,-0.003,0
2018,5,17,20,36,35.168,0.0263,-0.3485,-0.2516,0.9024,0,0,0,-0.004,0.004,-0.003,0
2018,5,17,20,36,35.186,0.0263,-0.3485,-0.2516,0.9024,0,0,0,-0.005,0.002,-0.003,0
2018,5,17,20,36,35.209,0.0263,-0.3485,-0.2515,0.9025,0,0,0,-0.003,0.01,0,0
2018,5,17,20,36,35.228,0.0262,-0.3485,-0.2515,0.9025,0,0,0,-0.004,0.005,-0.004,0
2018,5,17,20,36,35.25,0.0262,-0.3485,-0.2515,0.9025,0,0,0,-0.004,0.002,-0.002,0
2018,5,17,20,36,35.288,0.0262,-0.3485,-0.2514,0.9025,0,0,0,-0.005,0.006,-0.011,0
2018,5,17,20,36,35.288,0.0262,-0.3485,-0.2514,0.9025,0.5,0.1,0,-0.008,0.009,-0.005,0
2018,5,17,20,36,35.31,0.0262,-0.3485,-0.2514,0.9025,0,0,0,-0.004,0.009,-0.002,0
2018,5,17,20,36,35.347,0.0262,-0.3485,-0.2513,0.9025,0,0,0,-0.004,0.004,-0.003,0
2018,5,17,20,36,35.37,0.0262,-0.3485,-0.2513,0.9025,0,0,0,-0.008,0,-0.007,1023
2018,5,17,20,36,35.374,0.0262,-0.3484,-0.2514,0.9025,0.6,0.3,0,-0.009,0.003,-0.008,1023
2018,5,17,20,36,35.39,0.0262,-0.3484,-0.2512,0.9026,0,0,0,-0.002,0.006,-0.003,1023
2018,5,17,20,36,35.409,0.0262,-0.3484,-0.2512,0.9026,0,0,0,-0.006,0.004,-0.004,1023
2018,5,17,20,36,35.43,0.0262,-0.3484,-0.2512,0.9026,0,0,0,-0.005,0.003,-0.005,1023
2018,5,17,20,36,35.448,0.0262,-0.3484,-0.2512,0.9026,0,0,0,-0.008,0.003,-0.005,1023
2018,5,17,20,36,35.471,0.0262,-0.3484,-0.2511,0.9026,0,0,0,-0.008,0.009,-0.005,1023
2018,5,17,20,36,35.508,0.0261,-0.3484,-0.251,0.9026,-0.5,-0.2,0,-0.003,0.009,0.001,1023
2018,5,17,20,36,35.531,0.0261,-0.3484,-0.251,0.9026,0,0,0,-0.002,0.002,-0.002,1023
2018,5,17,20,36,35.536,0.0261,-0.3484,-0.251,0.9026,0,0,0,-0.005,0.001,-0.006,1023
2018,5,17,20,36,35.552,0.0261,-0.3484,-0.251,0.9027,0.5,0,0.1,-0.01,0.004,-0.002,1023
2018,5,17,20,36,35.575,0.0261,-0.3484,-0.251,0.9027,0,0,0,-0.006,0.014,-0.005,1023
2018,5,17,20,36,35.592,0.0261,-0.3484,-0.2509,0.9027,-0.6,-0.3,-0.1,-0.003,0.008,-0.01,1023
2018,5,17,20,36,35.614,0.026,-0.3485,-0.251,0.9026,0,0,0,-0.003,-0.001,-0.006,1023
2018,5,17,20,36,35.651,0.026,-0.3485,-0.2511,0.9026,0,0,0,-0.007,0,-0.009,1023
2018,5,17,20,36,35.674,0.026,-0.3484,-0.2511,0.9026,0,0,0,-0.004,0.006,-0.002,1023
2018,5,17,20,36,35.678,0.026,-0.3485,-0.251,0.9026,0,0,0,-0.003,0.004,-0.004,1023
2018,5,17,20,36,35.695,0.026,-0.3485,-0.251,0.9026,0,0,0,-0.004,0.005,-0.002,1023
2018,5,17,20,36,35.716,0.026,-0.3485,-0.2509,0.9026,0,0,0,-0.005,0.007,0,1023
2018,5,17,20,36,35.732,0.026,-0.3485,-0.2509,0.9027,0,0,0,-0.004,0.005,-0.007,1023
2018,5,17,20,36,35.769,0.026,-0.3485,-0.2509,0.9027,0,0,0,-0.002,0.007,-0.006,0
2018,5,17,20,36,35.791,0.0259,-0.3485,-0.2508,0.9027,0,0,0,-0.003,0.003,-0.006,0
2018,5,17,20,36,35.796,0.026,-0.3485,-0.2509,0.9027,0.8,0.3,0.4,-0.008,0,-0.007,0
2018,5,17,20,36,35.832,0.0261,-0.3484,-0.2508,0.9027,1,0.7,0.3,-0.009,0.002,-0.002,0
2018,5,17,20,36,35.854,0.0262,-0.3483,-0.2507,0.9028,1.2,0.5,0.4,-0.004,0.005,-0.004,0
2018,5,17,20,36,35.86,0.0262,-0.3482,-0.2506,0.9028,0,0,0,-0.005,0.008,0,0
2018,5,17,20,36,35.877,0.0262,-0.3482,-0.2505,0.9029,0.3,-1,-0.3,-0.006,0.016,-0.002,0
2018,5,17,20,36,35.895,0.0261,-0.3484,-0.2504,0.9028,-1.1,-1.6,-1.1,-0.004,0.013,-0.007,0
2018,5,17,20,36,35.918,0.0259,-0.3487,-0.2505,0.9027,-0.5,-0.5,-1.1,-0.006,-0.003,-0.004,0
2018,5,17,20,36,35.935,0.0257,-0.3489,-0.2505,0.9026,0,-0.6,-1.7,-0.008,-0.003,-0.01,0
2018,5,17,20,36,35.953,0.0254,-0.3489,-0.2505,0.9026,-0.2,-0.3,-1.8,-0.011,0.008,0.005,0
2018,5,17,20,36,35.975,0.025,-0.349,-0.2507,0.9025,-0.4,-0.1,-2.7,-0.01,-0.003,-0.012,0
2018,5,17,20,36,35.993,0.0247,-0.3491,-0.2505,0.9026,5.2,0.7,-2.8,-0.001,0,-0.015,0
2018,5,17,20,36,36.017,0.0243,-0.349,-0.2496,0.9029,5.6,1.3,-4.5,-0.002,0,-0.01,0
2018,5,17,20,36,36.034,0.0239,-0.3489,-0.2485,0.9032,2.8,1.5,-3.3,-0.003,0.024,-0.004,0
2018,5,17,20,36,36.058,0.0233,-0.3488,-0.2481,0.9034,-1.1,0.5,-2.7,-0.011,0.014,0,0
2018,5,17,20,36,36.075,0.0226,-0.3489,-0.2484,0.9033,-3.2,-0.3,-3.8,-0.009,0.002,-0.004,0
2018,5,17,20,36,36.098,0.0216,-0.3492,-0.2488,0.9031,-4.9,-1.3,-5.7,-0.007,0.016,0.009,0
2018,5,17,20,36,36.116,0.0204,-0.3496,-0.2491,0.9028,-4.2,-0.5,-5.3,0.007,-0.005,-0.014,0
2018,5,17,20,36,36.14,0.0195,-0.3499,-0.2493,0.9027,-2.9,0.4,-3.8,0.002,-0.003,-0.008,0
2018,5,17,20,36,36.157,0.0189,-0.3499,-0.2496,0.9026,-0.5,0.9,-2.3,0,0.008,-0.008,0
2018,5,17,20,36,36.174,0.0184,-0.3499,-0.2496,0.9026,0.3,0.9,-2.7,-0.008,0.016,-0.005,0
2018,5,17,20,36,36.197,0.0178,-0.3499,-0.2494,0.9027,1.3,1.9,-4.2,-0.013,-0.007,-0.026,0
2018,5,17,20,36,36.234,0.0173,-0.3498,-0.2488,0.9029,2.8,1.7,-4,-0.003,-0.017,-0.014,1023
2018,5,17,20,36,36.234,0.017,-0.3497,-0.2482,0.9031,4.5,2.3,-2.1,0.005,-0.015,-0.007,1023
2018,5,17,20,36,36.257,0.0172,-0.3492,-0.2472,0.9036,11.1,4.4,1.1,-0.017,-0.014,-0.018,1023
2018,5,17,20,36,36.277,0.0177,-0.3486,-0.2458,0.9042,9.8,3.2,-0.5,-0.007,-0.006,-0.006,1023
2018,5,17,20,36,36.3,0.018,-0.3481,-0.2445,0.9047,6.7,1.8,-0.4,-0.003,0.016,0.004,1023
2018,5,17,20,36,36.318,0.0182,-0.3477,-0.2436,0.9051,6.3,1.9,0.4,-0.008,0.012,0,1023
2018,5,17,20,36,36.339,0.0184,-0.3475,-0.2427,0.9055,3.8,0.5,-0.3,-0.007,0.01,0.003,1023
2018,5,17,20,36,36.378,0.0185,-0.3474,-0.2422,0.9056,2,0.3,0,-0.003,0.011,0,1023
2018,5,17,20,36,36.4,0.0186,-0.3474,-0.242,0.9057,0.9,0.2,0.7,0,0,-0.002,1023
2018,5,17,20,36,36.405,0.0188,-0.3473,-0.2422,0.9057,0,0,2.1,0,-0.008,-0.004,1023
2018,5,17,20,36,36.423,0.0194,-0.3471,-0.2424,0.9057,1.7,1.3,4.6,0.002,-0.012,-0.003,1023
2018,5,17,20,36,36.443,0.0201,-0.3466,-0.2423,0.9059,0.7,1.4,4,-0.013,0.026,0.007,1023
2018,5,17,20,36,36.461,0.0205,-0.3462,-0.2425,0.906,-0.1,1.3,2.5,-0.003,0.005,-0.006,1023
2018,5,17,20,36,36.479,0.0207,-0.3459,-0.2426,0.9061,-2.2,0.7,1.7,-0.01,0.011,0,1023
2018,5,17,20,36,36.498,0.0209,-0.3457,-0.243,0.906,-2.6,0.6,2.4,-0.002,-0.002,-0.012,1023
2018,5,17,20,36,36.521,0.0212,-0.3455,-0.2436,0.9059,-0.9,1.3,4.2,-0.004,-0.007,-0.006,1023
2018,5,17,20,36,36.538,0.0219,-0.345,-0.2439,0.906,1.2,1.9,4.9,-0.009,0.008,-0.006,1023
2018,5,17,20,36,36.561,0.0224,-0.3445,-0.244,0.9061,-1.1,0.6,2.3,-0.016,0.023,0.002,1023
2018,5,17,20,36,36.579,0.0224,-0.3444,-0.2446,0.906,-5,-0.7,0.5,-0.011,0.012,0,1023
2018,5,17,20,36,36.602,0.0222,-0.3445,-0.2455,0.9057,-6.8,-1.1,1.2,-0.003,-0.002,-0.008,0
2018,5,17,20,36,36.638,0.022,-0.3446,-0.2468,0.9054,-6.6,-0.3,1.7,-0.002,0,-0.009,0
2018,5,17,20,36,36.661,0.0219,-0.3446,-0.2478,0.9051,-4.7,-0.7,0.7,-0.014,0.007,-0.001,0
2018,5,17,20,36,36.665,0.0217,-0.3447,-0.2488,0.9048,-5.1,-1,-0.2,-0.007,0.002,-0.002,0
2018,5,17,20,36,36.685,0.0213,-0.345,-0.2496,0.9045,-4.9,-1,-0.4,-0.002,-0.001,-0.009,0
2018,5,17,20,36,36.703,0.0211,-0.3452,-0.2501,0.9043,-4.1,-0.9,0,0,0,-0.013,0
2018,5,17,20,36,36.725,0.021,-0.3453,-0.2509,0.904,-2.9,-0.3,1,0.001,-0.002,-0.01,0
2018,5,17,20,36,36.741,0.0211,-0.3453,-0.2512,0.9039,-1.6,-0.5,0.7,-0.007,0.01,-0.001,0
2018,5,17,20,36,36.778,0.021,-0.3454,-0.2514,0.9038,-2.4,-0.6,-0.3,-0.012,0.014,-0.001,0
2018,5,17,20,36,36.78,0.0207,-0.3456,-0.2517,0.9037,-3.8,-0.9,-0.7,-0.008,0.01,-0.001,0
2018,5,17,20,36,36.817,0.0204,-0.3458,-0.2523,0.9034,-4.2,-1.2,-0.3,-0.001,-0.001,-0.008,0
2018,5,17,20,36,36.841,0.0202,-0.3461,-0.2529,0.9031,-3.2,-1.2,0,-0.003,-0.001,-0.015,0
2018,5,17,20,36,36.845,0.0202,-0.3464,-0.2534,0.9029,-2.4,-1.4,0.7,-0.005,-0.001,-0.011,0
2018,5,17,20,36,36.88,0.0203,-0.3465,-0.2538,0.9027,-1.7,-1,1.4,-0.002,0.002,-0.002,0
2018,5,17,20,36,36.901,0.0206,-0.3466,-0.254,0.9027,-1,-0.7,1.5,-0.008,0.008,-0.001,0
2018,5,17,20,36,36.907,0.0206,-0.3465,-0.2544,0.9026,-1.2,-0.2,0.6,-0.011,0.003,-0.004,0
2018,5,17,20,36,36.923,0.0206,-0.3465,-0.2545,0.9025,-1.6,0,-0.2,-0.012,0.013,0,0
2018,5,17,20,36,36.941,0.0204,-0.3465,-0.2547,0.9025,-2.6,-0.8,-0.8,-0.011,0.006,-0.002,0
2018,5,17,20,36,36.963,0.02,-0.3467,-0.2554,0.9022,-3.3,-1.1,-1.1,-0.003,0.005,-0.01,0
2018,5,17,20,36,36.982,0.0197,-0.3469,-0.2559,0.902,-3.6,-1,-0.8,-0.002,0.002,-0.004,0
2018,5,17,20,36,37.004,0.0194,-0.3472,-0.2563,0.9018,-2.9,-0.8,-0.5,-0.003,0.004,-0.006,0
2018,5,17,20,36,37.022,0.0192,-0.3474,-0.2564,0.9017,-2.3,-1,-0.6,-0.003,0.006,-0.007,0
2018,5,17,20,36,37.044,0.019,-0.3476,-0.2567,0.9015,-1.9,-0.9,-0.2,-0.001,0.002,-0.003,0
2018,5,17,20,36,37.063,0.0189,-0.3477,-0.257,0.9014,-1.8,-0.7,0,-0.005,0.001,-0.004,0
2018,5,17,20,36,37.083,0.0188,-0.3478,-0.2572,0.9013,-1.6,-0.3,0,-0.006,0.003,-0.001,0
2018,5,17,20,36,37.104,0.0186,-0.3479,-0.2575,0.9012,-2,-0.5,-0.2,-0.004,0.011,-0.001,0
2018,5,17,20,36,37.124,0.0184,-0.348,-0.2579,0.9011,-2.4,-0.7,-0.3,-0.005,0.01,-0.004,1023
2018,5,17,20,36,37.14,0.0182,-0.3481,-0.2582,0.9009,-3,-0.7,-0.2,-0.005,0.005,-0.004,1023
2018,5,17,20,36,37.163,0.018,-0.3483,-0.2588,0.9007,-3.2,-0.8,0,-0.004,0,-0.008,1023
2018,5,17,20,36,37.2,0.0179,-0.3484,-0.2593,0.9005,-2.9,-0.7,0.2,-0.005,-0.002,-0.009,1023
2018,5,17,20,36,37.22,0.0177,-0.3486,-0.2602,0.9002,-1.6,-0.3,0,-0.007,0.003,-0.007,1023
2018,5,17,20,36,37.223,0.0175,-0.3486,-0.2606,0.9001,-1.6,-0.2,-0.2,-0.006,0.008,-0.006,1023
2018,5,17,20,36,37.258,0.0174,-0.3487,-0.2609,0.8999,-1.8,-0.5,-0.2,-0.002,0.009,-0.011,1023
2018,5,17,20,36,37.28,0.0172,-0.3488,-0.2614,0.8998,-2,-0.5,-0.3,-0.003,0.002,-0.003,1023
2018,5,17,20,36,37.284,0.017,-0.3489,-0.2619,0.8996,-1.6,-0.5,-0.1,-0.005,-0.002,-0.001,1023
2018,5,17,20,36,37.321,0.0168,-0.3491,-0.2628,0.8992,-1,-0.3,0,-0.004,0.003,-0.008,1023
2018,5,17,20,36,37.344,0.0167,-0.3492,-0.2627,0.8992,0,0,0,-0.006,0.004,-0.006,1023
2018,5,17,20,36,37.347,0.0167,-0.3493,-0.2626,0.8992,0,0,0,-0.005,0.005,-0.008,1023
2018,5,17,20,36,37.382,0.0167,-0.3493,-0.2626,0.8992,0,0,0,-0.007,0.001,-0.01,1023
2018,5,17,20,36,37.402,0.0167,-0.3493,-0.2626,0.8992,0.5,0,0,-0.008,-0.001,-0.007,1023
2018,5,17,20,36,37.408,0.0168,-0.3493,-0.2625,0.8993,0.9,-0.1,0,-0.009,0.003,-0.004,1023
2018,5,17,20,36,37.442,0.0168,-0.3493,-0.2625,0.8993,0,0,0,-0.006,0.008,-0.009,1023
2018,5,17,20,36,37.465,0.0168,-0.3493,-0.2625,0.8993,0,0,0,-0.007,0.003,-0.007,1023
2018,5,17,20,36,37.47,0.0168,-0.3493,-0.2625,0.8993,0.6,0,-0.2,-0.005,0.003,-0.008,1023
2018,5,17,20,36,37.486,0.0168,-0.3493,-0.2625,0.8992,0.9,-0.2,0,-0.006,0.009,-0.005,1023
2018,5,17,20,36,37.507,0.0168,-0.3494,-0.2624,0.8993,0.9,-0.3,0,-0.003,0.005,-0.002,1023
2018,5,17,20,36,37.544,0.0168,-0.3494,-0.2624,0.8993,0.8,0,0.1,-0.007,0.004,-0.004,1023
2018,5,17,20,36,37.566,0.017,-0.3494,-0.2622,0.8993,1,0,0.7,-0.003,0.004,-0.007,1023
2018,5,17,20,36,37.569,0.0171,-0.3493,-0.2621,0.8994,1.4,0,1,-0.003,0.002,-0.007,0
2018,5,17,20,36,37.605,0.0173,-0.3492,-0.2619,0.8995,1.6,0.2,0.5,-0.01,0.007,-0.004,0
2018,5,17,20,36,37.627,0.0174,-0.3492,-0.2614,0.8996,0.9,-0.3,0,-0.007,0.013,-0.003,0
2018,5,17,20,36,37.631,0.0174,-0.3492,-0.2612,0.8997,0,0,0,-0.004,0.003,-0.006,0
2018,5,17,20,36,37.666,0.0174,-0.3492,-0.2612,0.8997,0,0,0,0,0.007,-0.004,0
2018,5,17,20,36,37.689,0.0174,-0.3493,-0.2612,0.8996,-0.7,-0.2,0.4,-0.013,0.01,-0.004,0
2018,5,17,20,36,37.691,0.0175,-0.3493,-0.2614,0.8996,1.2,0.5,0.7,0,-0.012,-0.02,0
2018,5,17,20,36,37.726,0.0179,-0.3491,-0.2611,0.8997,4.7,1.4,1.7,-0.008,0.003,-0.016,0
2018,5,17,20,36,37.726,0.0182,-0.3489,-0.2606,0.8999,1.7,-0.2,0,-0.017,0.025,0.003,0
2018,5,17,20,36,37.749,0.0181,-0.349,-0.2604,0.8999,0,0,0,0,-0.003,-0.008,0
2018,5,17,20,36,37.767,0.0183,-0.349,-0.2605,0.8999,1.2,0,1.3,-0.003,-0.007,-0.011,0
2018,5,17,20,36,37.789,0.0187,-0.3489,-0.2604,0.9,2,-0.1,1.9,-0.002,0.001,-0.008,0
2018,5,17,20,36,37.824,0.0191,-0.3488,-0.26,0.9001,1.6,0.2,1.7,-0.005,0.011,-0.001,0
2018,5,17,20,36,37.846,0.0193,-0.3487,-0.2598,0.9002,1,0.2,1.1,-0.006,0.007,-0.006,0
2018,5,17,20,36,37.851,0.0195,-0.3486,-0.2597,0.9003,0.8,-0.1,0.5,-0.008,0.008,-0.002,0
2018,5,17,20,36,37.87,0.0196,-0.3486,-0.2595,0.9003,1.4,0,0.1,-0.006,0.002,-0.01,0
2018,5,17,20,36,37.891,0.0197,-0.3486,-0.2592,0.9004,1.2,-0.1,0.4,-0.005,0.012,-0.003,0
2018,5,17,20,36,37.928,0.0198,-0.3486,-0.2591,0.9004,0,0,0,-0.002,0.012,-0.004,0
2018,5,17,20,36,37.928,0.0198,-0.3486,-0.259,0.9004,0,0,0,-0.007,0,-0.001,0
2018,5,17,20,36,37.95,0.0198,-0.3486,-0.2591,0.9004,0.7,0.2,0.3,-0.006,-0.001,-0.006,0
2018,5,17,20,36,37.968,0.0199,-0.3485,-0.259,0.9005,1.1,0.2,0.2,-0.007,0.003,-0.01,0
2018,5,17,20,36,37.99,0.02,-0.3485,-0.2587,0.9006,0.7,0.2,0.1,-0.006,0.005,-0.003,0
2018,5,17,20,36,38.009,0.02,-0.3485,-0.2586,0.9006,0,0,0,-0.006,0.002,-0.007,0
2018,5,17,20,36,38.031,0.0201,-0.3485,-0.2585,0.9007,0.9,0.1,0,-0.005,0,-0.009,0
2018,5,17,20,36,38.05,0.0201,-0.3484,-0.2584,0.9007,1.3,0,-0.1,-0.006,0.001,-0.003,0
2018,5,17,20,36,38.072,0.0202,-0.3484,-0.2583,0.9008,1.5,-0.2,-0.2,-0.007,0.004,-0.002,0
2018,5,17,20,36,38.11,0.0202,-0.3484,-0.2581,0.9008,0.8,-0.7,-0.5,-0.003,0.01,-0.001,1023
2018,5,17,20,36,38.133,0.0201,-0.3485,-0.2579,0.9008,0.4,-0.5,-0.2,-0.005,0.01,-0.003,1023
2018,5,17,20,36,38.138,0.0201,-0.3487,-0.2578,0.9008,0.2,-0.7,-0.3,-0.005,0.009,0,1023
2018,5,17,20,36,38.152,0.02,-0.3487,-0.2578,0.9008,-0.4,-0.6,-0.7,-0.007,0.004,0,1023
2018,5,17,20,36,38.175,0.0199,-0.3489,-0.2576,0.9008,0,-0.3,-0.7,-0.006,-0.001,-0.006,1023
2018,5,17,20,36,38.193,0.0198,-0.349,-0.2575,0.9008,0.2,-0.6,-1,-0.007,0.005,-0.003,1023
2018,5,17,20,36,38.21,0.0197,-0.3491,-0.2572,0.9008,-0.2,-0.7,-1.2,-0.006,0.011,-0.008,1023
2018,5,17,20,36,38.232,0.0195,-0.3493,-0.2571,0.9008,0.6,-0.8,-1.2,-0.014,0.011,-0.009,1023
2018,5,17,20,36,38.25,0.0191,-0.3495,-0.2573,0.9006,-1.8,-1.3,-2.8,-0.005,0.002,-0.002,1023
2018,5,17,20,36,38.273,0.0188,-0.3498,-0.2574,0.9005,-0.3,-0.3,-1.4,-0.003,-0.009,-0.021,1023
2018,5,17,20,36,38.291,0.0185,-0.3499,-0.2578,0.9003,-0.5,-1,-1.7,-0.002,-0.003,-0.007,1023
2018,5,17,20,36,38.314,0.0183,-0.3501,-0.2579,0.9002,0,-0.6,-0.8,0,0,-0.008,1023
2018,5,17,20,36,38.334,0.0182,-0.3502,-0.2578,0.9002,0,0,0,-0.002,-0.001,-0.008,1023
2018,5,17,20,36,38.358,0.0182,-0.3502,-0.2578,0.9002,0.5,0,0,-0.003,0.001,-0.004,1023
2018,5,17,20,36,38.372,0.0183,-0.3502,-0.2578,0.9002,0,0,0.7,-0.001,0.004,0.004,1023
2018,5,17,20,36,38.395,0.0184,-0.3501,-0.2579,0.9002,0.3,0.6,1.3,-0.002,0,-0.004,1023
2018,5,17,20,36,38.433,0.0186,-0.35,-0.2577,0.9003,0.4,0.8,1.4,-0.004,0.001,0,1023
2018,5,17,20,36,38.455,0.0189,-0.3498,-0.2576,0.9005,1.3,0.9,1.6,-0.006,0.008,-0.012,1023
2018,5,17,20,36,38.46,0.0191,-0.3496,-0.2577,0.9005,0.7,0.3,0.8,-0.009,0.013,-0.006,1023
2018,5,17,20,36,38.478,0.0192,-0.3495,-0.2575,0.9006,0,0,0,-0.009,0.011,-0.001,1023
2018,5,17,20,36,38.5,0.0192,-0.3495,-0.2574,0.9006,0,0,0,-0.007,0.002,-0.007,1023
2018,5,17,20,36,38.516,0.0192,-0.3495,-0.2575,0.9006,-0.5,0,0,-0.003,0.001,-0.004,1023
2018,5,17,20,36,38.534,0.0192,-0.3495,-0.2574,0.9006,0,0,0,-0.002,0.003,-0.003,1023
2018,5,17,20,36,38.557,0.0192,-0.3495,-0.2575,0.9006,0,-0.2,0.5,-0.005,0.001,-0.003,0
2018,5,17,20,36,38.593,0.0193,-0.3494,-0.2576,0.9006,0.7,0,0.9,-0.01,0.007,-0.003,0
2018,5,17,20,36,38.614,0.0194,-0.3493,-0.2574,0.9007,0.6,0.3,0.3,-0.013,0.009,0,0
2018,5,17,20,36,38.617,0.0195,-0.3492,-0.2572,0.9007,0,0.5,-0.3,-0.008,0.006,-0.002,0
2018,5,17,20,36,38.655,0.0194,-0.3492,-0.2572,0.9008,0,0,0,-0.006,0.003,-0.004,0
2018,5,17,20,36,38.678,0.0194,-0.3492,-0.2571,0.9008,0.1,0,-0.5,-0.003,0.003,-0.009,0
2018,5,17,20,36,38.682,0.0193,-0.3493,-0.2571,0.9008,0,0,0,-0.001,0,-0.001,0
2018,5,17,20,36,38.698,0.0193,-0.3493,-0.257,0.9008,0,0,0,-0.005,0.004,-0.003,0
2018,5,17,20,36,38.72,0.0193,-0.3493,-0.2571,0.9008,0,0,0,-0.003,0.003,-0.001,0
2018,5,17,20,36,38.735,0.0193,-0.3493,-0.2571,0.9008,0,0,0,-0.003,0.002,-0.005,0
2018,5,17,20,36,38.773,0.0193,-0.3494,-0.2569,0.9008,0.6,-0.2,0,-0.003,0.006,-0.001,0
2018,5,17,20,36,38.796,0.0193,-0.3494,-0.2566,0.9009,0.5,0.2,0,-0.003,0.006,-0.001,0
2018,5,17,20,36,38.8,0.0193,-0.3494,-0.2564,0.9009,0,0,0,-0.002,0.006,-0.004,0
2018,5,17,20,36,38.818,0.0193,-0.3494,-0.2564,0.9009,0,0,0,-0.006,0.005,-0.006,0
2018,5,17,20,36,38.838,0.0193,-0.3494,-0.2564,0.9009,0,0,0,-0.004,0.005,-0.009,0
2018,5,17,20,36,38.859,0.0193,-0.3494,-0.2563,0.9009,0,0,0,-0.006,0.003,-0.005,0
2018,5,17,20,36,38.896,0.0193,-0.3494,-0.2563,0.901,0.6,0.2,0.5,-0.003,0,-0.01,0
2018,5,17,20,36,38.917,0.0194,-0.3493,-0.2564,0.9009,0.5,0.2,0.7,-0.007,0,-0.003,0
2018,5,17,20,36,38.92,0.0195,-0.3492,-0.2563,0.901,0.5,0.5,0.3,-0.006,0,-0.009,0
2018,5,17,20,36,38.935,0.0196,-0.3491,-0.2563,0.9011,1,0.2,0,-0.01,0.003,-0.009,0
2018,5,17,20,36,38.959,0.0196,-0.349,-0.2562,0.9011,0.8,0,-0.2,-0.006,0.01,-0.006,0
2018,5,17,20,36,38.995,0.0196,-0.349,-0.2561,0.9011,0,0,0,-0.004,0.009,-0.007,0
2018,5,17,20,36,39.015,0.0196,-0.349,-0.256,0.9012,0,0,0,-0.005,0.003,-0.002,0
2018,5,17,20,36,39.018,0.0196,-0.349,-0.256,0.9012,0.6,-0.2,0,-0.006,0.005,0.001,0
2018,5,17,20,36,39.054,0.0196,-0.349,-0.2559,0.9012,0,0,0,-0.005,0.003,-0.002,0
2018,5,17,20,36,39.075,0.0196,-0.349,-0.2559,0.9012,0,0,0,-0.005,0.004,-0.001,0
2018,5,17,20,36,39.078,0.0196,-0.349,-0.2558,0.9012,0,0,0,-0.004,0.008,-0.004,1023
2018,5,17,20,36,39.116,0.0195,-0.349,-0.2558,0.9013,0,0,0,-0.002,0.007,0,1023
2018,5,17,20,36,39.14,0.0195,-0.349,-0.2557,0.9013,0,0,0,-0.005,0.004,-0.008,1023
2018,5,17,20,36,39.144,0.0195,-0.349,-0.2557,0.9013,0,0,0,-0.005,0.004,-0.008,1023
2018,5,17,20,36,39.162,0.0195,-0.349,-0.2557,0.9013,0,0,0,-0.006,0.005,-0.004,1023
2018,5,17,20,36,39.2,0.0195,-0.349,-0.2557,0.9013,0,0,0,-0.008,0.002,-0.004,1023
2018,5,17,20,36,39.2,0.0195,-0.349,-0.2557,0.9013,0,0,0,-0.006,0.001,-0.006,1023
2018,5,17,20,36,39.224,0.0195,-0.349,-0.2557,0.9013,0,0,0,-0.009,0,-0.01,1023
2018,5,17,20,36,39.241,0.0195,-0.349,-0.2557,0.9013,0,0,0,-0.004,0,-0.005,1023
2018,5,17,20,36,39.258,0.0195,-0.349,-0.2557,0.9013,0,0,0,-0.002,0.004,-0.001,1023
2018,5,17,20,36,39.281,0.0195,-0.349,-0.2557,0.9013,0,0,0,-0.002,0.003,0.003,1023
2018,5,17,20,36,39.298,0.0195,-0.349,-0.2557,0.9013,0,0,0,-0.004,0.004,-0.003,1023
2018,5,17,20,36,39.324,0.0195,-0.349,-0.2557,0.9013,0,0,0,-0.003,0.004,-0.005,1023
2018,5,17,20,36,39.343,0.0195,-0.349,-0.2556,0.9013,0,0,0,-0.004,0.004,-0.002,1023
2018,5,17,20,36,39.362,0.0195,-0.349,-0.2556,0.9013,0.5,0.2,0.3,-0.005,0.004,-0.005,1023
2018,5,17,20,36,39.383,0.0195,-0.349,-0.2556,0.9013,0,0,0,-0.004,0.008,-0.001,1023
2018,5,17,20,36,39.421,0.0195,-0.349,-0.2555,0.9013,0,0,0,-0.007,0.005,-0.004,1023
2018,5,17,20,36,39.421,0.0195,-0.349,-0.2555,0.9013,0,0,0,-0.01,0,-0.005,1023
2018,5,17,20,36,39.443,0.0195,-0.3489,-0.2556,0.9013,0,0,0,-0.007,0.001,-0.005,1023
2018,5,17,20,36,39.481,0.0195,-0.3489,-0.2556,0.9013,0,-0.5,0,-0.004,0.001,-0.004,1023
2018,5,17,20,36,39.503,0.0195,-0.3489,-0.2556,0.9013,0,0,0,-0.007,0.003,-0.006,1023
2018,5,17,20,36,39.508,0.0195,-0.3489,-0.2556,0.9013,0,0,0,-0.006,0.001,-0.008,1023
2018,5,17,20,36,39.544,0.0195,-0.3489,-0.2556,0.9013,0,0,0,-0.004,0.003,-0.008,1023
2018,5,17,20,36,39.544,0.0195,-0.3489,-0.2556,0.9013,0,0,0,-0.003,0.005,-0.006,1023
2018,5,17,20,36,39.566,0.0195,-0.3489,-0.2555,0.9014,0,0,0,-0.007,0.005,0.004,1023
2018,5,17,20,36,39.585,0.0195,-0.3489,-0.2555,0.9014,0,0,0,-0.009,0.005,-0.005,1023
2018,5,17,20,36,39.622,0.0195,-0.3488,-0.2554,0.9014,0,0,0,-0.006,0.008,-0.007,1023
2018,5,17,20,36,39.645,0.0194,-0.3488,-0.2554,0.9014,0,0,0,-0.002,0.004,-0.01,1023
2018,5,17,20,36,39.649,0.0194,-0.3488,-0.2554,0.9014,0,0,0,-0.005,0.004,-0.007,1023
2018,5,17,20,36,39.665,0.0194,-0.3489,-0.2554,0.9014,0.2,-0.5,-0.1,-0.01,0.001,-0.004,1023
2018,5,17,20,36,39.704,0.0194,-0.3489,-0.2554,0.9014,0,0,0,-0.006,0.006,-0.003,0
2018,5,17,20,36,39.726,0.0194,-0.3489,-0.2554,0.9014,0,0,0,-0.004,0.004,-0.006,0
2018,5,17,20,36,39.731,0.0194,-0.3489,-0.2554,0.9014,0,0,0,-0.002,0.003,-0.008,0
2018,5,17,20,36,39.746,0.0194,-0.3489,-0.2554,0.9014,0,0,0,-0.005,0,-0.006,0
2018,5,17,20,36,39.77,0.0194,-0.3489,-0.2553,0.9014,0.9,0.3,0,-0.005,0.005,-0.006,0
2018,5,17,20,36,39.789,0.0194,-0.3489,-0.2554,0.9014,0.5,0,-0.3,-0.003,0.004,-0.003,0
2018,5,17,20,36,39.808,0.0193,-0.3488,-0.2555,0.9014,1.2,0.4,-0.2,0,0.001,-0.005,0
2018,5,17,20,36,39.823,0.0194,-0.3488,-0.2552,0.9015,2,0.5,0.2,-0.006,0.001,-0.009,0
2018,5,17,20,36,39.843,0.0195,-0.3486,-0.255,0.9016,1.3,0.5,0.1,-0.007,0.008,0,0
2018,5,17,20,36,39.881,0.0195,-0.3485,-0.2549,0.9017,0.9,0.6,-0.3,-0.009,0,-0.005,0
2018,5,17,20,36,39.905,0.0195,-0.3484,-0.2547,0.9018,0.8,0.8,-0.2,-0.011,0.009,-0.008,0
2018,5,17,20,36,39.908,0.0195,-0.3483,-0.2546,0.9018,0,0,0,-0.009,0.006,-0.004,0
2018,5,17,20,36,39.928,0.0195,-0.3483,-0.2546,0.9018,0,0,-0.5,-0.007,0,-0.005,0
2018,5,17,20,36,39.964,0.0195,-0.3483,-0.2545,0.9019,1.3,0,0,-0.006,0.001,-0.006,0
2018,5,17,20,36,39.988,0.0196,-0.3483,-0.2542,0.902,1.1,-2,0.2,-0.029,0.02,0.016,0
2018,5,17,20,36,39.993,0.0196,-0.3486,-0.2541,0.9019,-4.3,-6.4,-2.1,-0.048,0.034,0.042,1023
2018,5,17,20,36,40.009,0.019,-0.3496,-0.2549,0.9013,-10.8,-11,-3.1,-0.064,0.035,0.042,1023
2018,5,17,20,36,40.032,0.0184,-0.3516,-0.2565,0.9001,-17.1,-17.2,-3.3,-0.039,0.043,0.034,1023
2018,5,17,20,36,40.046,0.0175,-0.3542,-0.259,0.8983,-23.5,-20.1,-2.9,-0.041,0.055,0.024,1023
2018,5,17,20,36,40.066,0.0158,-0.3575,-0.2626,0.896,-33.9,-19.7,-5.7,-0.029,0.046,0.01,1023
2018,5,17,20,36,40.088,0.0132,-0.3608,-0.2678,0.8932,-38.6,-18.2,-7.2,-0.033,-0.008,-0.006,1023
2018,5,17,20,36,40.106,0.011,-0.3639,-0.2733,0.8903,-33,-17.4,-4.7,-0.013,-0.036,-0.015,1023
2018,5,17,20,36,40.128,0.01,-0.3664,-0.2778,0.8879,-21.5,-14.7,1.1,-0.023,-0.066,-0.003,1023
2018,5,17,20,36,40.166,0.0106,-0.3679,-0.2807,0.8863,-8.3,-12.3,5.2,-0.054,-0.07,0.012,1023
2018,5,17,20,36,40.166,0.0123,-0.369,-0.2821,0.8854,-1.6,-13.1,6.3,-0.063,-0.009,0.027,0
2018,5,17,20,36,40.188,0.0137,-0.3704,-0.2827,0.8846,-5.8,-16.3,3.5,-0.077,0.046,0.011,0
2018,5,17,20,36,40.224,0.0141,-0.3726,-0.284,0.8832,-15.2,-18.5,-0.7,-0.085,0.068,0.003,0
2018,5,17,20,36,40.247,0.0134,-0.3754,-0.2868,0.8812,-24.9,-21.4,-4.9,-0.091,0.029,-0.011,0
2018,5,17,20,36,40.249,0.0118,-0.3787,-0.2907,0.8785,-28.3,-21.6,-7.8,-0.087,-0.035,-0.017,0
2018,5,17,20,36,40.285,0.0102,-0.3822,-0.2948,0.8756,-23,-22.1,-9.4,-0.065,-0.069,-0.004,0
2018,5,17,20,36,40.307,0.0091,-0.3856,-0.2974,0.8733,-11.5,-22.2,-9.7,-0.066,-0.066,0.003,0
2018,5,17,20,36,40.31,0.0092,-0.3888,-0.2979,0.8717,3.9,-22.5,-6.9,-0.085,-0.053,0.01,0
2018,5,17,20,36,40.345,0.0107,-0.392,-0.2965,0.8707,12.5,-26.3,-4.9,-0.114,-0.02,0.024,0
2018,5,17,20,36,40.367,0.0131,-0.3955,-0.2941,0.8699,18.7,-29.8,-2.2,-0.126,-0.004,0.025,0
2018,5,17,20,36,40.37,0.016,-0.3994,-0.2911,0.8691,16.8,-32.1,-3.8,-0.109,0.009,0.034,0
2018,5,17,20,36,40.408,0.0177,-0.4039,-0.289,0.8677,4.7,-36.3,-11.3,-0.139,0.014,0.033,0
2018,5,17,20,36,40.429,0.0182,-0.4092,-0.2872,0.8658,13.6,-35.4,-14.1,-0.146,-0.047,0.026,0
2018,5,17,20,36,40.433,0.0199,-0.4149,-0.2827,0.8645,32.9,-32.1,-9.9,-0.196,-0.063,0.152,0
2018,5,17,20,36,40.469,0.0228,-0.4198,-0.276,0.8642,41.9,-29.6,-11.2,-0.273,-0.1,0.207,0
2018,5,17,20,36,40.491,0.026,-0.4248,-0.2664,0.8647,78.4,-33,-18.6,-0.475,-0.437,-0.016,0
2018,5,17,20,36,40.494,0.0341,-0.4315,-0.2477,0.8667,148.6,-54.2,-11.7,-0.71,-0.499,-0.109,0
2018,5,17,20,36,40.509,0.0504,-0.4415,-0.2211,0.8681,190.5,-93.6,9.9,-0.987,-0.348,-0.051,0
2018,5,17,20,36,40.545,0.0712,-0.4559,-0.1913,0.8662,189.7,-126.3,7.8,-1.153,-0.043,0.171,0
2018,5,17,20,36,40.567,0.0927,-0.4745,-0.161,0.8603,202.4,-166.4,12.8,-1.434,-0.039,0.381,0
2018,5,17,20,36,40.57,0.118,-0.4995,-0.1284,0.8485,203.9,-222.5,27.4,-1.503,0.157,0.383,0
2018,5,17,20,36,40.607,0.1463,-0.5297,-0.0981,0.8296,192.8,-258.8,57.7,-1.701,-0.044,0.428,0
2018,5,17,20,36,40.628,0.1821,-0.5618,-0.0681,0.804,234.4,-296.8,106.6,-2.013,-0.262,0.357,0
2018,5,17,20,36,40.633,0.2302,-0.596,-0.0353,0.7684,268.6,-347.7,167.9,-1.902,0.056,0.243,0
2018,5,17,20,36,40.669,0.2819,-0.6323,-0.0086,0.7214,194.2,-378.5,210.2,-1.907,0.313,0.072,0
2018,5,17,20,36,40.691,0.3267,-0.6706,0.0034,0.6659,124.2,-385.1,250,-1.861,-0.114,-0.237,0
2018,5,17,20,36,40.694,0.3742,-0.705,0.0081,0.6022,159.4,-386.7,315.7,-1.886,-0.713,-0.396,0
2018,5,17,20,36,40.71,0.4313,-0.7301,0.0096,0.5297,209.3,-380.7,366.4,-1.926,-1.547,-0.551,0
2018,5,17,20,36,40.729,0.488,-0.7479,0.0122,0.4497,183.9,-418.1,341.2,-2.066,-1.836,-1.161,1023
2018,5,17,20,36,40.751,0.5227,-0.7707,0.0227,0.3635,44.8,-482.3,233.3,-1.74,-1.174,-1.542,1023
2018,5,17,20,36,40.788,0.5313,-0.798,0.0445,0.2805,26.2,-489.1,132.1,-1.065,-1.836,-1.842,1023
2018,5,17,20,36,40.81,0.5444,-0.8103,0.0775,0.2022,138.9,-457.1,98.2,-0.601,-0.743,-2.38,1023
2018,5,17,20,36,40.813,0.551,-0.8162,0.1078,0.1356,-9.4,-361.1,50,-0.828,0.848,-2.609,1023
2018,5,17,20,36,40.848,0.5363,-0.8285,0.1315,0.0918,-55.8,-247.4,23.6,-0.262,0.513,-2.005,1023
2018,5,17,20,36,40.871,0.5389,-0.8289,0.1382,0.057,134.4,-126.8,133.9,0.243,0.696,-1.577,1023
2018,5,17,20,36,40.873,0.4664,-0.8744,0.1272,0.0391,491.3,148.8,103,0.491,-6.777,-11.16,1023
2018,5,17,20,36,40.908,0.5959,-0.7767,0.1929,0.0652,53.9,-162.9,-666.9,3.449,10.134,0.206,1023
2018,5,17,20,36,40.929,0.5294,-0.8033,0.2442,0.1207,-634,-14.7,-304.6,-2.586,2.078,0.791,1023
2018,5,17,20,36,40.934,0.481,-0.8228,0.2781,0.1186,48.1,-249.3,-60.6,1.094,1.16,1.339,1023
2018,5,17,20,36,40.97,0.4947,-0.816,0.2878,0.0801,226.6,-95.8,123.9,1.581,-0.791,-0.686,1023
2018,5,17,20,36,40.993,0.5394,-0.7948,0.2722,0.0557,358.4,63.9,81.9,-1.18,-3.425,-2.126,1023
2018,5,17,20,36,40.996,0.5728,-0.7678,0.2822,0.0502,49.5,-82.5,-191.7,-2.213,-0.761,0.311,1023
2018,5,17,20,36,41.034,0.5652,-0.7603,0.3179,0.0362,228.2,-386.1,15.5,0.167,0.144,2.731,1023
2018,5,17,20,36,41.034,0.5522,-0.7539,0.3557,-0.0043,-94.9,-353.9,108.7,-1.153,3.564,4.588,1023
2018,5,17,20,36,41.055,0.5069,-0.7794,0.3647,-0.0494,-134.9,-304.7,227.2,-2.499,1.852,-2.311,1023
2018,5,17,20,36,41.092,0.4707,-0.7929,0.3755,-0.0922,-109.6,-238.6,85.7,-1.066,-2.953,-0.912,0
2018,5,17,20,36,41.114,0.4511,-0.7984,0.3815,-0.116,123.8,-71.8,3.2,0.106,-2.72,-0.415,0
2018,5,17,20,36,41.117,0.4891,-0.7712,0.3833,-0.1375,386.9,-53.4,-2.8,0.591,-0.707,-0.109,0
2018,5,17,20,36,41.153,0.5435,-0.727,0.3767,-0.1845,505.6,-147.3,12.5,-0.02,1.35,-0.427,0
2018,5,17,20,36,41.173,0.5813,-0.682,0.3767,-0.2343,256.6,-182.5,31.7,0.407,1.98,-0.769,0
2018,5,17,20,36,41.176,0.5739,-0.6727,0.3873,-0.2605,-108.8,-133.8,34.1,0.939,0.259,-1.013,0
2018,5,17,20,36,41.213,0.5578,-0.6811,0.3972,-0.2589,-21.2,24.7,-28.7,0.625,-2.342,-1.378,0
2018,5,17,20,36,41.236,0.5789,-0.6687,0.3857,-0.2624,255.3,56.9,38,-0.229,0.202,-0.629,0
2018,5,17,20,36,41.238,0.6083,-0.6479,0.3648,-0.2773,206,35.6,22.5,0.029,1.311,0.256,0
2018,5,17,20,36,41.255,0.6262,-0.6333,0.3542,-0.2848,111.6,13.3,8.8,0.033,0.57,0.661,0
2018,5,17,20,36,41.292,0.636,-0.6241,0.3461,-0.2933,81.2,-3.9,37.7,-0.117,-0.127,0.46,0
2018,5,17,20,36,41.313,0.6379,-0.6223,0.3399,-0.3003,10.4,5.1,31.6,-0.086,-0.395,0.171,0
2018,5,17,20,36,41.319,0.6405,-0.622,0.3365,-0.2991,11.4,33,-20.3,-0.005,0.031,0.026,0
2018,5,17,20,36,41.336,0.6437,-0.622,0.3349,-0.2939,0.6,20.8,-7,-0.085,0.223,-0.182,0
2018,5,17,20,36,41.359,0.6435,-0.6221,0.3336,-0.2957,9.1,-17.8,26,-0.064,0.257,-0.077,0
2018,5,17,20,36,41.377,0.6409,-0.6242,0.3329,-0.2976,-33.1,18,14.6,0.191,-0.14,0.009,0
2018,5,17,20,36,41.397,0.64,-0.6302,0.3296,-0.2906,-22.1,65,-1.8,-0.017,-0.159,0.138,0
2018,5,17,20,36,41.434,0.6422,-0.6359,0.323,-0.2806,-39.6,74.6,-9.2,-0.235,0.298,0.387,0
2018,5,17,20,36,41.457,0.6383,-0.6455,0.321,-0.2695,-64.3,31.8,-5.2,-0.327,-0.217,0.011,0
2018,5,17,20,36,41.461,0.6341,-0.6505,0.3223,-0.266,-18.6,-7,0.4,-0.14,-0.158,-0.11,0
2018,5,17,20,36,41.477,0.6336,-0.651,0.3229,-0.2652,10.9,10,-4.2,0.056,-0.146,-0.027,0
2018,5,17,20,36,41.496,0.6376,-0.6489,0.3208,-0.2635,22.4,25.6,-3.2,0.068,0.083,0.017,0
2018,5,17,20,36,41.518,0.6408,-0.6483,0.3178,-0.2606,-3,21.9,-13.8,-0.131,0.108,0.1,1023
2018,5,17,20,36,41.537,0.6403,-0.6502,0.3191,-0.2554,-26.1,11.1,-20.1,-0.243,-0.006,0.101,1023
2018,5,17,20,36,41.56,0.6393,-0.6511,0.3209,-0.2534,3.7,-12.8,-4.1,-0.134,0.048,0.004,1023
2018,5,17,20,36,41.578,0.6386,-0.6493,0.3225,-0.2577,7.3,-33.6,12.8,0.112,0.132,-0.085,1023
2018,5,17,20,36,41.601,0.6349,-0.6498,0.3254,-0.2619,-27.7,-25.3,5.9,0.161,0.055,-0.157,1023
2018,5,17,20,36,41.619,0.6305,-0.6529,0.3288,-0.2605,-37.1,2.7,-14.5,0.154,-0.063,-0.109,1023
2018,5,17,20,36,41.642,0.628,-0.6564,0.3309,-0.2552,-39,18.9,-14.9,0.286,0.31,-0.066,1023
2018,5,17,20,36,41.661,0.6243,-0.6615,0.3319,-0.2497,-27.8,13.8,6.3,0.179,-0.249,-0.203,1023
2018,5,17,20,36,41.698,0.6238,-0.6637,0.3274,-0.251,16.4,16.8,38.1,0.015,0.025,-0.054,1023
2018,5,17,20,36,41.698,0.6259,-0.6642,0.32,-0.254,26.8,22.2,28.8,-0.071,-0.087,0.055,1023
2018,5,17,20,36,41.721,0.6288,-0.6638,0.3141,-0.2551,10.8,19.7,9.9,-0.123,0.032,0.108,1023
2018,5,17,20,36,41.758,0.6291,-0.665,0.3127,-0.2531,-19,9.5,-6.7,-0.084,0.071,0.147,1023
2018,5,17,20,36,41.78,0.6266,-0.6676,0.314,-0.2506,-31.7,2.2,-8.5,-0.043,0.016,0.014,1023
2018,5,17,20,36,41.785,0.6238,-0.6706,0.3156,-0.2479,-27.9,5.6,-5.3,0.004,-0.042,0.017,1023
2018,5,17,20,36,41.811,0.6213,-0.6734,0.3165,-0.2451,-18.6,7.5,-1.2,0.046,-0.005,-0.062,1023
2018,5,17,20,36,41.83,0.6204,-0.675,0.3161,-0.2436,1,7.2,3.9,0.009,-0.015,-0.025,1023
2018,5,17,20,36,41.842,0.6211,-0.6751,0.3146,-0.2437,5.5,5,4.1,-0.015,0.023,0.012,1023
2018,5,17,20,36,41.876,0.6218,-0.6747,0.3136,-0.2441,5.4,1.3,2.2,-0.005,0.016,0.037,1023
2018,5,17,20,36,41.9,0.6226,-0.6741,0.313,-0.2447,1.8,-0.3,0,-0.026,0.041,0.067,1023
2018,5,17,20,36,41.905,0.6225,-0.6742,0.313,-0.2447,-5.6,0.5,-1,-0.028,0.002,0.001,1023
2018,5,17,20,36,41.923,0.6221,-0.6746,0.3132,-0.2442,2.8,1.3,-0.9,0.039,-0.034,-0.022,0
2018,5,17,20,36,41.96,0.6227,-0.6742,0.3126,-0.2445,9.5,1.3,3.5,-0.004,-0.002,-0.002,0
2018,5,17,20,36,41.982,0.6239,-0.6733,0.3114,-0.2455,9.7,1,3.2,-0.02,0.012,0.037,0
2018,5,17,20,36,41.987,0.6249,-0.6725,0.3105,-0.2464,4.5,-0.4,0,-0.033,0.024,0.047,0
2018,5,17,20,36,42.005,0.6251,-0.672,0.3107,-0.2467,-4.3,-3.9,-4.4,-0.028,0.027,0.049,0
2018,5,17,20,36,42.024,0.6244,-0.6721,0.3122,-0.2466,-9.2,-7.9,-7.1,-0.011,0.021,0.02,0
2018,5,17,20,36,42.046,0.6236,-0.672,0.3143,-0.2462,-4.9,-5.5,-8.6,-0.026,0.027,-0.008,0
2018,5,17,20,36,42.062,0.6233,-0.6719,0.3155,-0.2455,-1.6,0.8,-3.8,0.015,0.018,0.01,0
2018,5,17,20,36,42.099,0.6238,-0.6718,0.3154,-0.2448,5.3,5.2,-0.2,-0.033,0.007,0,0
2018,5,17,20,36,42.122,0.6243,-0.6718,0.3145,-0.2447,3.2,3.9,2.2,-0.005,0.016,0.008,0
2018,5,17,20,36,42.126,0.6248,-0.6715,0.314,-0.2447,6,2,-3.6,0.031,-0.022,0.03,0
2018,5,17,20,36,42.145,0.6252,-0.6713,0.3136,-0.2448,0.3,1.2,-2.2,-0.015,0.01,0.01,0
2018,5,17,20,36,42.164,0.6256,-0.6712,0.3136,-0.2443,1.1,3,-2.9,0.003,0.005,0.013,0
2018,5,17,20,36,42.184,0.6264,-0.6707,0.3134,-0.2436,3.6,3.8,-2.7,-0.041,0.027,0.007,0
2018,5,17,20,36,42.207,0.6268,-0.6705,0.3131,-0.2436,1.6,-0.5,-0.1,-0.014,0.019,0.016,0
2018,5,17,20,36,42.224,0.6269,-0.6703,0.3131,-0.244,-0.5,-2.7,0.2,-0.012,0.028,0.023,0
2018,5,17,20,36,42.246,0.6266,-0.6703,0.3135,-0.2443,-3.5,-2.2,-2.4,-0.013,0.005,0.018,0
2018,5,17,20,36,42.261,0.6265,-0.6702,0.3141,-0.2439,0.3,0,-3,-0.057,0.037,-0.004,0
2018,5,17,20,36,42.301,0.6267,-0.6702,0.3142,-0.2433,1.3,2.5,-1.3,0.017,0.011,0,0
2018,5,17,20,36,42.323,0.6271,-0.6701,0.3138,-0.2431,2,3.3,1.4,-0.01,0.007,0.011,1023
2018,5,17,20,36,42.328,0.6274,-0.67,0.3131,-0.2431,0.5,2.2,-0.2,-0.027,0.01,0.02,1023
2018,5,17,20,36,42.347,0.6276,-0.67,0.313,-0.2429,-1.5,1.3,-2.5,-0.012,0.019,0.017,1023
2018,5,17,20,36,42.362,0.6276,-0.6701,0.3132,-0.2423,-1.6,2.1,-3.3,0.002,0.001,0.001,1023
2018,5,17,20,36,42.389,0.6282,-0.6698,0.3134,-0.2414,6.9,5.8,-4.4,-0.049,-0.008,-0.003,1023
2018,5,17,20,36,42.406,0.6289,-0.6696,0.3127,-0.2413,2.8,2.2,0.2,-0.014,0.03,0.01,1023
2018,5,17,20,36,42.428,0.6292,-0.6694,0.3124,-0.2414,1.1,-0.5,1.3,-0.01,0.02,0.013,1023
2018,5,17,20,36,42.447,0.629,-0.6693,0.3124,-0.2419,-1.4,-3.2,0.3,-0.007,0.017,0.013,1023
2018,5,17,20,36,42.485,0.6286,-0.6694,0.313,-0.2423,-3.6,-4.4,-0.9,-0.006,0.013,0.015,1023
2018,5,17,20,36,42.508,0.628,-0.6696,0.3136,-0.2425,-2.6,-2.4,-0.9,-0.001,0.005,0.003,1023
2018,5,17,20,36,42.513,0.628,-0.6694,0.3139,-0.2424,1.9,0.7,-1.6,-0.024,0.016,0,1023
2018,5,17,20,36,42.528,0.6282,-0.6694,0.3135,-0.2425,2.5,1.7,1.7,0,0.013,0.006,1023
2018,5,17,20,36,42.551,0.6285,-0.6692,0.313,-0.2428,2.2,0.3,2.4,-0.008,0.01,0.012,1023
2018,5,17,20,36,42.566,0.6287,-0.6691,0.3126,-0.2433,0.9,-1.6,1.6,-0.019,0.016,0.024,1023
2018,5,17,20,36,42.604,0.6287,-0.6688,0.3128,-0.2436,1.6,-2.4,-1.7,-0.042,-0.008,0.007,1023
2018,5,17,20,36,42.626,0.6285,-0.6688,0.3129,-0.244,-1.6,-1.1,-1.4,-0.007,0.013,0,1023
2018,5,17,20,36,42.632,0.6285,-0.6688,0.3132,-0.2437,-0.5,0.6,-1.8,0.002,0.007,0.003,1023
2018,5,17,20,36,42.649,0.6286,-0.6688,0.3133,-0.2434,0,0.4,-0.7,-0.007,0.016,0.009,1023
2018,5,17,20,36,42.686,0.6286,-0.6688,0.3133,-0.2435,-0.8,-1.3,-0.2,-0.008,0.006,0.003,1023
2018,5,17,20,36,42.709,0.6284,-0.6687,0.3136,-0.2437,-0.3,-2.1,-0.3,-0.002,0.02,0.014,0
2018,5,17,20,36,42.711,0.6284,-0.6686,0.3137,-0.2438,-0.1,0.5,0,0.002,0.016,0.01,0
2018,5,17,20,36,42.731,0.6286,-0.6687,0.3134,-0.2437,1,2.4,0.5,-0.001,0.011,0,0
2018,5,17,20,36,42.749,0.6288,-0.6686,0.313,-0.2436,1.8,1.4,0.8,-0.006,0.003,0.001,0
2018,5,17,20,36,42.772,0.6291,-0.6685,0.3127,-0.2439,2.5,-0.3,1.3,-0.007,0.009,0.017,0
2018,5,17,20,36,42.808,0.6292,-0.6682,0.3125,-0.2443,0.9,-1.1,1,-0.002,0.014,0.012,0
2018,5,17,20,36,42.831,0.6293,-0.6682,0.3124,-0.2445,0,0,0,-0.005,0.015,0.003,0
2018,5,17,20,36,42.835,0.6293,-0.6682,0.3123,-0.2443,0.2,1.8,-0.9,0.001,0.011,-0.001,0
2018,5,17,20,36,42.85,0.6296,-0.6682,0.3122,-0.244,1.5,2.4,-0.2,0.001,0.006,0,0
2018,5,17,20,36,42.867,0.63,-0.668,0.3117,-0.2439,2.2,2.5,0.8,-0.001,0.019,0.012,0
2018,5,17,20,36,42.89,0.6303,-0.6679,0.3112,-0.2439,1,1.1,1,-0.009,0.016,0.013,0
2018,5,17,20,36,42.927,0.6304,-0.6679,0.311,-0.2441,0,0,0,-0.008,0.014,0.015,0
2018,5,17,20,36,42.949,0.6303,-0.6679,0.3111,-0.2441,-1.6,-0.6,-0.8,-0.003,0.017,0.011,0
2018,5,17,20,36,42.953,0.6301,-0.6681,0.3113,-0.2439,-1.3,0.6,-1.1,0,0.006,0,0
2018,5,17,20,36,42.971,0.6302,-0.6682,0.3113,-0.2436,-0.2,2.1,-0.8,0,0.011,0.002,0
2018,5,17,20,36,43.009,0.6303,-0.6682,0.3111,-0.2434,-0.1,1.5,-0.3,-0.005,0.013,0.011,0
2018,5,17,20,36,43.009,0.6303,-0.6682,0.311,-0.2434,-0.5,-0.7,0,-0.008,0.014,0.006,0
2018,5,17,20,36,43.033,0.6302,-0.6682,0.3112,-0.2435,-0.8,-1.4,-0.4,-0.003,0.017,0.012,0
2018,5,17,20,36,43.05,0.6301,-0.6682,0.3114,-0.2435,-0.2,-0.9,-0.7,0.016,0.009,0.002,0
2018,5,17,20,36,43.068,0.6303,-0.6681,0.3115,-0.2434,0,0,0,0.001,0.016,0.011,0
2018,5,17,20,36,43.09,0.6303,-0.668,0.3115,-0.2434,1.2,0.2,0.3,-0.002,0.004,0.005,1023
2018,5,17,20,36,43.108,0.6305,-0.6679,0.3113,-0.2436,0.8,0.2,0.5,-0.006,0.01,0.01,1023
2018,5,17,20,36,43.131,0.6306,-0.6678,0.3112,-0.2437,0,0,0,-0.006,0.014,0.011,1023
2018,5,17,20,36,43.169,0.6305,-0.6678,0.3112,-0.2438,-0.6,-1,-0.6,-0.006,0.014,0.007,1023
2018,5,17,20,36,43.192,0.6304,-0.6678,0.3114,-0.2438,-0.6,-1.6,-0.7,-0.004,0.009,0.005,1023
2018,5,17,20,36,43.197,0.6303,-0.6677,0.3117,-0.2439,-0.1,-1,-0.1,0,0.014,0.003,1023
2018,5,17,20,36,43.212,0.6304,-0.6677,0.3116,-0.244,0.8,0.8,0.7,0,0.014,0.002,1023
2018,5,17,20,36,43.235,0.6305,-0.6677,0.3113,-0.244,1,1.1,0.7,-0.003,0.011,0.007,1023
2018,5,17,20,36,43.253,0.6307,-0.6676,0.3111,-0.2441,0.5,0.5,0,-0.008,0.01,0.013,1023
2018,5,17,20,36,43.276,0.6307,-0.6676,0.3111,-0.2441,-0.2,-0.3,-0.6,-0.005,0.012,0.005,1023
2018,5,17,20,36,43.294,0.6307,-0.6675,0.3112,-0.2441,-0.4,-0.7,-0.5,-0.002,0.019,0.01,1023
2018,5,17,20,36,43.316,0.6306,-0.6675,0.3113,-0.2442,-0.4,-0.7,-0.4,-0.002,0.011,0.006,1023
2018,5,17,20,36,43.332,0.6306,-0.6675,0.3115,-0.2442,-0.2,-0.6,-0.2,-0.002,0.015,0.007,1023
2018,5,17,20,36,43.351,0.6306,-0.6675,0.3115,-0.2442,0,0,0,-0.002,0.015,0.002,1023
2018,5,17,20,36,43.374,0.6306,-0.6675,0.3115,-0.2442,0,0,0,-0.003,0.01,0.005,1023
2018,5,17,20,36,43.392,0.6306,-0.6674,0.3115,-0.2443,0,0,0,-0.003,0.015,0.008,1023
2018,5,17,20,36,43.414,0.6306,-0.6674,0.3115,-0.2442,-0.8,0,-0.7,-0.002,0.012,0,1023
2018,5,17,20,36,43.432,0.6305,-0.6675,0.3117,-0.2441,-0.4,-0.6,-0.7,-0.001,0.012,-0.001,1023
2018,5,17,20,36,43.456,0.6305,-0.6674,0.3119,-0.2442,0.3,-0.9,-0.6,0.001,0.013,0.01,1023
2018,5,17,20,36,43.473,0.6305,-0.6673,0.3119,-0.2442,0,0,0,0,0.011,0,0
2018,5,17,20,36,43.496,0.6306,-0.6673,0.3118,-0.2442,0.1,0.8,0,-0.003,0.014,0.007,0
2018,5,17,20,36,43.514,0.6307,-0.6673,0.3117,-0.2442,0,0,0,-0.004,0.013,0.004,0
2018,5,17,20,36,43.537,0.6306,-0.6673,0.3118,-0.2441,-1.1,-0.5,-0.8,0,0.012,0.006,0
2018,5,17,20,36,43.574,0.6305,-0.6673,0.312,-0.2441,-0.2,-1.1,-0.7,0,0.012,0,0
2018,5,17,20,36,43.597,0.6305,-0.6672,0.3122,-0.2441,0.1,-0.1,-0.6,-0.001,0.015,0.006,0
2018,5,17,20,36,43.602,0.6306,-0.6672,0.3122,-0.244,0.7,1,0,0.004,0.014,0,0
2018,5,17,20,36,43.615,0.6308,-0.6671,0.312,-0.244,1.1,0.9,0.5,0,0.011,0.004,0
2018,5,17,20,36,43.633,0.6309,-0.6671,0.3118,-0.244,0.9,0.2,0.3,-0.004,0.016,0.001,0
2018,5,17,20,36,43.657,0.631,-0.667,0.3117,-0.2441,0.9,-0.4,-0.2,-0.003,0.009,0.007,0
2018,5,17,20,36,43.675,0.6312,-0.6668,0.3117,-0.2442,0.3,-0.5,0,-0.003,0.018,0.011,0
2018,5,17,20,36,43.698,0.6312,-0.6668,0.3117,-0.2443,-0.5,-0.4,0.1,0,0.014,0.006,0
2018,5,17,20,36,43.717,0.6311,-0.6668,0.3117,-0.2443,0,0,0,0,0.005,-0.001,0
2018,5,17,20,36,43.737,0.6313,-0.6667,0.3119,-0.244,0.9,2.1,-2.4,-0.084,0.002,-0.021,0
2018,5,17,20,36,43.772,0.6315,-0.6667,0.3117,-0.244,0.8,0.8,0,-0.003,0.018,0.007,0
2018,5,17,20,36,43.796,0.6315,-0.6666,0.3116,-0.244,0,0,0,-0.005,0.02,0.004,0
2018,5,17,20,36,43.799,0.6315,-0.6666,0.3116,-0.244,-0.7,-1,-0.2,0,0.01,0.003,0
2018,5,17,20,36,43.816,0.6314,-0.6666,0.3117,-0.2441,0,0,0,0,0.01,0.003,0
2018,5,17,20,36,43.836,0.6314,-0.6666,0.3117,-0.244,0.5,0.7,0,0,0.01,0.002,0
2018,5,17,20,36,43.854,0.6316,-0.6666,0.3116,-0.244,0.3,1,-0.2,-0.002,0.013,0.006,1023
2018,5,17,20,36,43.876,0.6316,-0.6666,0.3115,-0.244,0,0,0,-0.004,0.015,0.007,1023
2018,5,17,20,36,43.915,0.6315,-0.6666,0.3117,-0.244,-0.5,-1.2,-0.1,0,0.011,-0.001,1023
2018,5,17,20,36,43.937,0.6315,-0.6666,0.3117,-0.2441,0,0,0,0,0.01,0.002,1023
2018,5,17,20,36,43.942,0.6315,-0.6666,0.3117,-0.244,0.2,0.8,0,-0.002,0.015,0,1023
2018,5,17,20,36,43.96,0.6315,-0.6666,0.3116,-0.244,0,0,0,-0.001,0.013,0.001,1023
2018,5,17,20,36,43.977,0.6315,-0.6666,0.3116,-0.244,0,0,0,0,0.008,0.001,1023
2018,5,17,20,36,43.999,0.6315,-0.6666,0.3116,-0.244,0,-0.5,0.1,-0.003,0.01,0.001,1023
2018,5,17,20,36,44.036,0.6315,-0.6666,0.3116,-0.244,0,0,0,-0.002,0.014,0.005,1023
2018,5,17,20,36,44.059,0.6315,-0.6666,0.3116,-0.244,0,0,0,-0.003,0.012,0.004,1023
2018,5,17,20,36,44.065,0.6315,-0.6666,0.3116,-0.244,0,0,0,0,0.008,-0.002,1023
2018,5,17,20,36,44.082,0.6315,-0.6666,0.3116,-0.244,0,0,0,-0.002,0.016,0,1023
2018,5,17,20,36,44.103,0.6315,-0.6666,0.3116,-0.2441,0,0,0,0,0.015,0.006,1023
2018,5,17,20,36,44.121,0.6316,-0.6665,0.3116,-0.2441,0,0,0,-0.003,0.008,0.001,1023
2018,5,17,20,36,44.138,0.6316,-0.6665,0.3115,-0.2441,0,0,0,-0.004,0.01,0.003,1023
2018,5,17,20,36,44.176,0.6315,-0.6666,0.3115,-0.2441,0,0,0,0,0.012,0.001,1023
2018,5,17,20,36,44.176,0.6315,-0.6666,0.3116,-0.2441,0,0,0,0,0.011,0.002,1023
2018,5,17,20,36,44.2,0.6315,-0.6666,0.3115,-0.2441,0,0,0,-0.001,0.015,0.002,1023
2018,5,17,20,36,44.236,0.6315,-0.6666,0.3115,-0.2441,0,0,0,-0.004,0.016,0.001,1023
2018,5,17,20,36,44.26,0.6315,-0.6666,0.3115,-0.2441,-0.5,0,0.1,-0.002,0.012,0.011,0
2018,5,17,20,36,44.265,0.6315,-0.6666,0.3115,-0.2441,0,0,0,-0.003,0.009,0,0
2018,5,17,20,36,44.28,0.6315,-0.6666,0.3115,-0.2441,0,0,0,0,0.011,-0.002,0
2018,5,17,20,36,44.303,0.6315,-0.6666,0.3115,-0.2441,0,0,0,-0.003,0.013,0.005,0
2018,5,17,20,36,44.321,0.6315,-0.6666,0.3115,-0.2441,0,0,0,-0.001,0.011,-0.001,0
2018,5,17,20,36,44.344,0.6315,-0.6666,0.3115,-0.2441,0,-0.5,0,-0.001,0.011,0,0
2018,5,17,20,36,44.359,0.6315,-0.6666,0.3115,-0.2442,0.8,0,0.2,-0.001,0.011,0.002,0
2018,5,17,20,36,44.378,0.6317,-0.6665,0.3114,-0.2442,0.7,0.2,0.2,-0.002,0.013,0.007,0
2018,5,17,20,36,44.4,0.6317,-0.6665,0.3114,-0.2442,0,0,0,-0.003,0.015,0.007,0
2018,5,17,20,36,44.439,0.6317,-0.6665,0.3114,-0.2442,0,0,0,0,0.01,0,0
2018,5,17,20,36,44.439,0.6317,-0.6664,0.3114,-0.2443,0.6,0,0.5,0,0.012,0,0
2018,5,17,20,36,44.462,0.6317,-0.6664,0.3113,-0.2443,0,0,0,-0.001,0.014,0,0
2018,5,17,20,36,44.498,0.6317,-0.6664,0.3113,-0.2444,0,0,0,-0.005,0.016,0.005,0
2018,5,17,20,36,44.521,0.6317,-0.6665,0.3113,-0.2443,-1,0.2,-0.2,0,0.002,0.004,0
2018,5,17,20,36,44.525,0.6316,-0.6665,0.3114,-0.2442,0,0,0,0.003,0.014,0.005,0
2018,5,17,20,36,44.542,0.6316,-0.6665,0.3113,-0.2442,-0.5,0,0,-0.002,0.011,0.003,0
2018,5,17,20,36,44.565,0.6316,-0.6665,0.3113,-0.2442,-0.5,0,0,-0.003,0.015,0.006,0
2018,5,17,20,36,44.582,0.6315,-0.6666,0.3114,-0.2441,-0.5,0,-0.2,0,0.01,-0.005,0
2018,5,17,20,36,44.6,0.6315,-0.6666,0.3114,-0.2441,0,0,0,-0.003,0.01,0.002,1023
2018,5,17,20,36,44.622,0.6315,-0.6666,0.3114,-0.2442,0,0,0,-0.001,0.01,0.002,1023
2018,5,17,20,36,44.641,0.6315,-0.6666,0.3114,-0.2442,0,0,0,-0.002,0.017,0.001,1023
2018,5,17,20,36,44.663,0.6315,-0.6666,0.3114,-0.2442,0,0,0,-0.002,0.014,0.001,1023
2018,5,17,20,36,44.683,0.6315,-0.6666,0.3114,-0.2442,0,0,0,-0.002,0.009,0.001,1023
2018,5,17,20,36,44.703,0.6315,-0.6666,0.3114,-0.2441,0,0,0,0,0.013,0,1023
2018,5,17,20,36,44.722,0.6315,-0.6666,0.3115,-0.2441,0,0,0,-0.002,0.014,0,1023
2018,5,17,20,36,44.745,0.6315,-0.6666,0.3116,-0.2441,-0.4,-0.7,-0.2,0.002,0.015,-0.004,1023
2018,5,17,20,36,44.783,0.6314,-0.6666,0.3117,-0.2442,0,0,0,0,0.015,0.002,1023
2018,5,17,20,36,44.806,0.6315,-0.6666,0.3117,-0.244,0.2,0.8,-0.7,-0.002,0.008,0,1023
2018,5,17,20,36,44.81,0.6316,-0.6665,0.3117,-0.2439,-0.1,0,-0.7,-0.002,0.018,0.004,1023
2018,5,17,20,36,44.828,0.6315,-0.6665,0.3118,-0.2439,-0.6,-0.8,-0.2,0.002,0.012,0.005,1023
2018,5,17,20,36,44.846,0.6314,-0.6666,0.312,-0.2439,-0.7,-1.1,0,0,0.01,0,1023
2018,5,17,20,36,44.868,0.6313,-0.6666,0.3121,-0.244,0,0,0,-0.007,0.02,0.005,1023
2018,5,17,20,36,44.905,0.6312,-0.6666,0.3122,-0.244,-0.4,0,-0.6,0,0.006,0,1023
2018,5,17,20,36,44.905,0.6312,-0.6666,0.3122,-0.2439,-0.5,-0.3,-0.3,0,0.014,0.002,1023
2018,5,17,20,36,44.928,0.6312,-0.6666,0.3123,-0.2439,-0.6,-0.6,0,-0.001,0.017,-0.001,1023
2018,5,17,20,36,44.948,0.631,-0.6667,0.3125,-0.244,-0.6,-0.9,0,0,0.01,0.001,1023
2018,5,17,20,36,44.965,0.6309,-0.6667,0.3126,-0.244,-1.2,-0.7,-0.7,-0.004,0.016,0.007,0
2018,5,17,20,36,44.988,0.6307,-0.6668,0.3129,-0.2439,-1.2,-0.3,-1.3,0.004,0.01,-0.001,0
2018,5,17,20,36,45.006,0.6306,-0.6669,0.3131,-0.2437,-0.7,-0.3,-0.6,0,0.012,0,0
2018,5,17,20,36,45.028,0.6305,-0.6669,0.3132,-0.2438,-0.5,-1.1,0,0,0.01,0.005,0
2018,5,17,20,36,45.046,0.6304,-0.6669,0.3134,-0.2439,-0.2,-0.8,0.1,0.001,0.009,0.002,0
2018,5,17,20,36,45.069,0.6304,-0.6669,0.3134,-0.2439,0,0,0,0,0.01,0.002,0
2018,5,17,20,36,45.106,0.6305,-0.6667,0.3135,-0.2437,0.6,0.3,-1.9,0,-0.004,0.001,0
2018,5,17,20,36,45.106,0.6306,-0.6667,0.3137,-0.2435,-0.3,-0.2,-1.5,-0.003,0.012,0.006,0
2018,5,17,20,36,45.129,0.6306,-0.6667,0.3139,-0.2435,-0.8,-0.9,-0.3,0.001,0.017,-0.003,0
2018,5,17,20,36,45.145,0.6304,-0.6667,0.314,-0.2435,-0.2,-1,0.3,0.001,0.014,0,0
2018,5,17,20,36,45.168,0.6304,-0.6667,0.3141,-0.2436,0,0,0,-0.002,0.022,0.002,0
2018,5,17,20,36,45.187,0.6304,-0.6667,0.314,-0.2436,-0.4,0.8,0,0,0.011,0.005,0
2018,5,17,20,36,45.208,0.6304,-0.6668,0.314,-0.2435,0,0,0,-0.004,0.013,0.003,0
2018,5,17,20,36,45.244,0.6303,-0.6668,0.314,-0.2435,-0.7,-0.8,-0.1,-0.004,0.01,0.007,0
2018,5,17,20,36,45.265,0.6302,-0.6668,0.3141,-0.2436,-0.7,-0.9,-0.2,-0.001,0.013,0.001,0
2018,5,17,20,36,45.267,0.6301,-0.6669,0.3143,-0.2436,-0.7,-0.3,0.2,0.001,0.015,-0.001,0
2018,5,17,20,36,45.304,0.63,-0.667,0.3142,-0.2436,-0.3,0.7,0.6,0,0.009,-0.003,0
2018,5,17,20,36,45.325,0.63,-0.667,0.3141,-0.2435,0,0,0,-0.003,0.008,0.002,0
2018,5,17,20,36,45.331,0.63,-0.6671,0.3141,-0.2436,0,0,0,-0.003,0.013,0.001,0
2018,5,17,20,36,45.346,0.63,-0.6671,0.3141,-0.2435,-0.7,-0.5,-0.4,-0.001,0.018,0.003,1023
2018,5,17,20,36,45.381,0.6298,-0.6671,0.3143,-0.2435,-1.3,-0.5,-0.3,0,0.013,0,1023
2018,5,17,20,36,45.404,0.6297,-0.6672,0.3144,-0.2434,-0.7,0.2,-0.2,0.003,0.008,0,1023
2018,5,17,20,36,45.407,0.6296,-0.6673,0.3144,-0.2433,-0.7,0.2,-0.1,0,0.017,0,1023
2018,5,17,20,36,45.444,0.6296,-0.6673,0.3144,-0.2433,-0.6,0,0,-0.001,0.016,0.002,1023
2018,5,17,20,36,45.465,0.6295,-0.6674,0.3145,-0.2433,-1.5,-0.4,-0.3,0,0.015,0.006,1023
2018,5,17,20,36,45.47,0.6294,-0.6674,0.3149,-0.243,-1.6,-0.3,-2.8,-0.073,0.009,-0.011,1023
2018,5,17,20,36,45.505,0.6292,-0.6675,0.3151,-0.2429,-1.7,-0.8,-0.8,-0.002,0.013,0,1023
2018,5,17,20,36,45.527,0.629,-0.6676,0.3153,-0.2429,-0.7,-0.2,-0.1,0.006,0.013,-0.003,1023
2018,5,17,20,36,45.531,0.629,-0.6676,0.3154,-0.2428,0,0,0,0,0.012,0.002,1023
2018,5,17,20,36,45.568,0.629,-0.6676,0.3153,-0.2429,0,0,0,-0.004,0.013,-0.003,1023
2018,5,17,20,36,45.589,0.629,-0.6676,0.3154,-0.2429,-0.7,-0.5,-0.5,-0.002,0.012,0.003,1023
2018,5,17,20,36,45.591,0.6289,-0.6677,0.3156,-0.2428,-0.6,-0.2,-0.7,-0.001,0.01,-0.002,1023
2018,5,17,20,36,45.627,0.6288,-0.6677,0.3157,-0.2428,0.4,-0.2,-0.5,0.003,0.008,-0.005,1023
2018,5,17,20,36,45.65,0.6289,-0.6676,0.3157,-0.2427,0,0,0,0,0.017,0.002,1023
2018,5,17,20,36,45.652,0.6289,-0.6676,0.3157,-0.2427,0,0,0,-0.003,0.016,0.008,1023
2018,5,17,20,36,45.685,0.6289,-0.6676,0.3158,-0.2428,0,-0.5,-0.3,-0.001,0.013,-0.003,1023
2018,5,17,20,36,45.708,0.6289,-0.6676,0.3158,-0.2428,0,0,0,0,0.015,0.001,1023
2018,5,17,20,36,45.711,0.6289,-0.6676,0.3159,-0.2427,-0.4,0,-0.5,0.001,0.01,0.002,0
2018,5,17,20,36,45.746,0.6289,-0.6676,0.316,-0.2426,-0.7,0,-0.7,0,0.011,-0.002,0
2018,5,17,20,36,45.769,0.6288,-0.6676,0.3161,-0.2425,-0.7,-0.1,-0.5,0,0.009,0,0
2018,5,17,20,36,45.771,0.6288,-0.6676,0.3162,-0.2425,0,0,0,-0.001,0.009,0.002,0
2018,5,17,20,36,45.805,0.6288,-0.6676,0.3162,-0.2425,0,0,0,-0.001,0.012,0,0
2018,5,17,20,36,45.827,0.6288,-0.6676,0.3162,-0.2425,0,0,0,-0.003,0.018,0.006,0
2018,5,17,20,36,45.835,0.6287,-0.6676,0.3161,-0.2425,0,0,0,0.001,0.013,0,0
2018,5,17,20,36,45.871,0.6287,-0.6677,0.3162,-0.2425,-0.5,0,0,-0.002,0.008,0.003,0
2018,5,17,20,36,45.893,0.6287,-0.6677,0.3162,-0.2425,0,0,0,0,0.009,-0.004,0
2018,5,17,20,36,45.899,0.6287,-0.6677,0.3162,-0.2425,0,0,0,-0.002,0.015,0.003,0
2018,5,17,20,36,45.915,0.6287,-0.6677,0.3162,-0.2425,0,0,0,-0.001,0.015,-0.001,0
2018,5,17,20,36,45.932,0.6286,-0.6677,0.3163,-0.2426,0,-0.7,0.2,0,0.012,0.001,0
2018,5,17,20,36,45.955,0.6286,-0.6677,0.3163,-0.2426,0,0,0,-0.001,0.009,0.001,0
2018,5,17,20,36,45.972,0.6287,-0.6677,0.3162,-0.2426,0.3,0.5,-0.1,-0.002,0.016,0.002,0
2018,5,17,20,36,45.994,0.6287,-0.6677,0.3162,-0.2426,-0.5,0.2,-0.5,-0.002,0.018,-0.001,0
2018,5,17,20,36,46.032,0.6286,-0.6677,0.3163,-0.2425,-0.6,0,-0.2,0.002,0.013,0.002,0
2018,5,17,20,36,46.032,0.6285,-0.6678,0.3163,-0.2425,-0.5,0,0.2,0.004,0.014,0,0
2018,5,17,20,36,46.055,0.6285,-0.6678,0.3163,-0.2425,0,0,0,-0.002,0.013,0,0
2018,5,17,20,36,46.093,0.6285,-0.6679,0.3163,-0.2424,-0.6,0.1,-0.3,-0.002,0.012,-0.001,0
2018,5,17,20,36,46.115,0.6284,-0.6679,0.3164,-0.2423,0,0,0,0.002,0.012,-0.007,0
2018,5,17,20,36,46.12,0.6284,-0.6679,0.3164,-0.2423,0,0,0,-0.002,0.009,0.001,1023
2018,5,17,20,36,46.134,0.6284,-0.6679,0.3164,-0.2423,0,0,0,-0.001,0.009,0,1023
2018,5,17,20,36,46.153,0.6284,-0.6679,0.3164,-0.2423,0,0,0,0,0.014,0,1023
2018,5,17,20,36,46.177,0.6284,-0.6679,0.3164,-0.2423,0,0,0,0,0.012,0,1023
2018,5,17,20,36,46.193,0.6284,-0.6679,0.3164,-0.2423,0,0,0,0,0.011,0,1023
2018,5,17,20,36,46.215,0.6284,-0.6679,0.3164,-0.2423,0,0,0,-0.005,0.014,0.003,1023
2018,5,17,20,36,46.253,0.6284,-0.6679,0.3164,-0.2423,0,0,0,-0.002,0.012,0.005,1023
2018,5,17,20,36,46.253,0.6284,-0.6679,0.3164,-0.2424,0,0,0,0,0.015,0,1023
2018,5,17,20,36,46.275,0.6284,-0.6679,0.3164,-0.2423,0,0,0,0,0.016,0,1023
2018,5,17,20,36,46.312,0.6284,-0.6679,0.3164,-0.2423,0,0,0,0.001,0.008,-0.006,1023
2018,5,17,20,36,46.335,0.6284,-0.6679,0.3164,-0.2423,0.8,0.2,0,0,0.015,0,1023
2018,5,17,20,36,46.339,0.6285,-0.6678,0.3163,-0.2424,0.6,-0.2,0.2,0.001,0.016,-0.002,1023
2018,5,17,20,36,46.356,0.6285,-0.6678,0.3163,-0.2424,0,-0.5,0,-0.001,0.01,0,1023
2018,5,17,20,36,46.378,0.6285,-0.6678,0.3163,-0.2424,0,0,0,0.001,0.016,0,1023
2018,5,17,20,36,46.415,0.6285,-0.6678,0.3164,-0.2424,0.5,0,0.2,-0.001,0.013,0.002,1023
2018,5,17,20,36,46.438,0.6286,-0.6677,0.3163,-0.2425,0,0,0,-0.001,0.015,0,1023
2018,5,17,20,36,46.442,0.6286,-0.6677,0.3163,-0.2425,0,0,0,-0.003,0.014,0.003,1023
2018,5,17,20,36,46.459,0.6286,-0.6677,0.3163,-0.2425,-0.5,-0.4,-0.3,-0.001,0.015,0.003,1023
2018,5,17,20,36,46.494,0.6285,-0.6678,0.3164,-0.2424,-0.8,-0.3,-0.1,0,0.01,0,0
2018,5,17,20,36,46.516,0.6284,-0.6678,0.3165,-0.2424,-0.6,0,0.2,0.002,0.014,0,0
2018,5,17,20,36,46.521,0.6284,-0.6679,0.3165,-0.2424,0,0,0,0,0.011,-0.004,0
2018,5,17,20,36,46.538,0.6284,-0.6679,0.3165,-0.2424,0,0,0,-0.004,0.017,-0.002,0
2018,5,17,20,36,46.561,0.6283,-0.6679,0.3165,-0.2424,0,0,0,0.001,0.012,0.002,0
2018,5,17,20,36,46.579,0.6283,-0.6679,0.3165,-0.2424,0,0,0,-0.001,0.01,0.001,0
2018,5,17,20,36,46.602,0.6283,-0.6679,0.3165,-0.2424,0,0,0,0,0.012,0,0
2018,5,17,20,36,46.619,0.6283,-0.6679,0.3165,-0.2424,0,0,0,-0.001,0.011,0,0
2018,5,17,20,36,46.641,0.6283,-0.6679,0.3165,-0.2424,0,0,0,-0.004,0.014,-0.002,0
2018,5,17,20,36,46.659,0.6283,-0.6679,0.3165,-0.2424,0,0,0,0,0.015,0.001,0
2018,5,17,20,36,46.677,0.6283,-0.6679,0.3165,-0.2424,0,0,0,0.003,0.014,-0.001,0
2018,5,17,20,36,46.699,0.6283,-0.6679,0.3165,-0.2423,0,0,0,0,0.011,0,0
2018,5,17,20,36,46.717,0.6284,-0.6679,0.3165,-0.2424,0.5,0,0.1,-0.001,0.014,0.005,0
2018,5,17,20,36,46.74,0.6284,-0.6679,0.3165,-0.2424,0,0,0,-0.004,0.015,0.007,0
2018,5,17,20,36,46.759,0.6284,-0.6679,0.3165,-0.2423,-0.5,0.2,-0.5,0,0.013,0.003,0
2018,5,17,20,36,46.781,0.6283,-0.6679,0.3166,-0.2423,-0.5,-0.2,0,0,0.012,0,0
2018,5,17,20,36,46.799,0.6283,-0.6679,0.3166,-0.2423,0,0,0,0,0.007,-0.004,0
2018,5,17,20,36,46.821,0.6283,-0.6679,0.3166,-0.2422,0,0,0,-0.001,0.012,-0.002,0
2018,5,17,20,36,46.86,0.6283,-0.668,0.3166,-0.2422,-0.5,0.2,0,-0.004,0.014,0.003,0
2018,5,17,20,36,46.863,0.6283,-0.668,0.3166,-0.2422,0,0,0,-0.002,0.008,0.002,0
2018,5,17,20,36,46.878,0.6283,-0.668,0.3166,-0.2422,0,0,0,0,0.016,0,0
2018,5,17,20,36,46.916,0.6283,-0.668,0.3166,-0.2422,0,0,0,0,0.013,0,1023
2018,5,17,20,36,46.938,0.6283,-0.668,0.3166,-0.2422,0,0,0,0,0.012,0.003,1023
2018,5,17,20,36,46.943,0.6283,-0.668,0.3166,-0.2422,0,0,0,0,0.016,0.002,1023
2018,5,17,20,36,46.962,0.6283,-0.668,0.3166,-0.2422,0,0,0,-0.001,0.01,-0.006,1023
2018,5,17,20,36,46.998,0.6282,-0.668,0.3167,-0.2422,0,0,0,-0.001,0.016,0.003,1023
2018,5,17,20,36,47.018,0.6282,-0.668,0.3166,-0.2422,0,0,0,-0.003,0.014,0.002,1023
2018,5,17,20,36,47.021,0.6282,-0.668,0.3166,-0.2422,0,0,0,-0.001,0.011,0.002,1023
2018,5,17,20,36,47.058,0.6282,-0.668,0.3166,-0.2422,0,0,0,0.001,0.012,0,1023
2018,5,17,20,36,47.08,0.6282,-0.668,0.3167,-0.2422,0.5,0.3,0,0,0.01,-0.001,1023
2018,5,17,20,36,47.083,0.6284,-0.6679,0.3166,-0.2422,0.7,0.3,0,-0.004,0.017,0.001,1023
2018,5,17,20,36,47.119,0.6284,-0.6679,0.3165,-0.2422,0,0,0,-0.004,0.014,0,1023
2018,5,17,20,36,47.14,0.6284,-0.6679,0.3165,-0.2422,0,0,0,0,0.013,0.005,1023
2018,5,17,20,36,47.143,0.6284,-0.6679,0.3166,-0.2422,0,0,0,0.003,0.012,-0.002,1023
2018,5,17,20,36,47.179,0.6284,-0.6679,0.3165,-0.2422,0.4,0.5,0.2,-0.001,0.012,0.001,1023
2018,5,17,20,36,47.201,0.6285,-0.6679,0.3165,-0.2422,0,0,0,-0.002,0.015,0.004,1023
2018,5,17,20,36,47.204,0.6285,-0.6679,0.3165,-0.2422,-0.7,-0.6,0,0,0.012,0.002,1023
2018,5,17,20,36,47.239,0.6284,-0.6679,0.3166,-0.2422,-0.6,-0.7,-0.1,0.001,0.013,-0.001,1023
2018,5,17,20,36,47.26,0.6283,-0.6679,0.3166,-0.2422,0,0,0,0.002,0.012,-0.005,1023
2018,5,17,20,36,47.264,0.6283,-0.6679,0.3166,-0.2422,0.2,0.5,0.2,-0.001,0.017,0.005,0
2018,5,17,20,36,47.298,0.6284,-0.6679,0.3166,-0.2421,-0.1,0.5,0,0.001,0.011,-0.001,0
2018,5,17,20,36,47.32,0.6284,-0.6679,0.3166,-0.2421,0,0,0,-0.002,0.013,0,0
2018,5,17,20,36,47.323,0.6284,-0.6679,0.3166,-0.2421,0,0,0,-0.003,0.014,0.001,0
2018,5,17,20,36,47.362,0.6284,-0.6679,0.3166,-0.2422,0,0,0,-0.002,0.01,0.007,0
2018,5,17,20,36,47.385,0.6284,-0.6679,0.3166,-0.2422,0,0,0,0,0.012,0.002,0
2018,5,17,20,36,47.389,0.6284,-0.6679,0.3166,-0.2422,0,0,0,0,0.009,-0.001,0
2018,5,17,20,36,47.407,0.6284,-0.6679,0.3165,-0.2422,0,0,0,-0.002,0.015,0.005,0
2018,5,17,20,36,47.427,0.6284,-0.6679,0.3165,-0.2422,0,0,0,0,0.015,0.002,0
2018,5,17,20,36,47.445,0.6284,-0.6679,0.3165,-0.2422,0,0,0,0,0.008,0,0
2018,5,17,20,36,47.468,0.6284,-0.6679,0.3166,-0.2422,0,0,0,0,0.008,-0.002,0
2018,5,17,20,36,47.486,0.6284,-0.6679,0.3166,-0.2422,0,0,0,0,0.018,-0.003,0
2018,5,17,20,36,47.504,0.6284,-0.6679,0.3166,-0.2422,0,0,0,-0.005,0.009,0,0
2018,5,17,20,36,47.526,0.6284,-0.6679,0.3166,-0.2422,0,0,0,0,0.013,0,0
2018,5,17,20,36,47.545,0.6283,-0.6679,0.3166,-0.2422,0,0,0,0.001,0.016,-0.001,0
2018,5,17,20,36,47.568,0.6283,-0.6679,0.3167,-0.2422,-0.7,-0.4,0,-0.004,0.011,0.001,0
2018,5,17,20,36,47.585,0.6282,-0.668,0.3167,-0.2422,0,0,0,-0.002,0.011,-0.004,0
2018,5,17,20,36,47.608,0.6282,-0.668,0.3167,-0.2421,0,0,0,0,0.008,0,0
2018,5,17,20,36,47.626,0.6282,-0.668,0.3167,-0.2422,0,0,0,-0.005,0.011,0.001,0
2018,5,17,20,36,47.649,0.6282,-0.668,0.3167,-0.2422,0,0,0,0.004,0.014,-0.001,0
2018,5,17,20,36,47.666,0.6282,-0.668,0.3167,-0.2421,0,0,0,0.001,0.01,-0.002,0
2018,5,17,20,36,47.685,0.6282,-0.668,0.3167,-0.2421,0,0,0,0.001,0.011,0,1023
2018,5,17,20,36,47.708,0.6282,-0.668,0.3167,-0.2421,0,0,0,0,0.013,-0.002,1023
2018,5,17,20,36,47.727,0.6282,-0.668,0.3167,-0.2422,0,0,0,-0.004,0.016,0.001,1023
2018,5,17,20,36,47.749,0.6282,-0.668,0.3167,-0.2422,-0.5,-0.3,0.1,-0.001,0.014,-0.002,1023
2018,5,17,20,36,47.767,0.6281,-0.6681,0.3167,-0.2422,0,0,0,-0.001,0.009,0,1023
2018,5,17,20,36,47.79,0.6281,-0.6681,0.3168,-0.2422,0,0,0,0.001,0.015,-0.001,1023
2018,5,17,20,36,47.807,0.6281,-0.6681,0.3168,-0.2422,0,0,0,-0.002,0.01,0,1023
2018,5,17,20,36,47.83,0.6281,-0.668,0.3167,-0.2422,0,0,0,-0.002,0.013,0.006,1023
2018,5,17,20,36,47.847,0.6281,-0.668,0.3167,-0.2423,-0.1,-0.5,-0.2,-0.001,0.009,0.004,1023
2018,5,17,20,36,47.869,0.6281,-0.668,0.3168,-0.2423,-0.3,-0.8,-0.2,0.002,0.012,-0.003,1023
2018,5,17,20,36,47.906,0.628,-0.668,0.3169,-0.2423,0,0,0,0.001,0.014,0.002,1023
2018,5,17,20,36,47.929,0.628,-0.668,0.3169,-0.2423,0,0,0,0,0.008,-0.005,1023
2018,5,17,20,36,47.934,0.628,-0.668,0.3169,-0.2423,0,0,0,-0.004,0.017,0.002,1023
2018,5,17,20,36,47.948,0.628,-0.668,0.3169,-0.2423,0,0,0,-0.003,0.014,0.002,1023
2018,5,17,20,36,47.986,0.628,-0.6681,0.3169,-0.2423,-0.8,-0.2,0,-0.003,0.015,0,1023
2018,5,17,20,36,48.009,0.6279,-0.6681,0.3169,-0.2423,0,0,0,-0.002,0.012,-0.006,1023
2018,5,17,20,36,48.014,0.6278,-0.6682,0.317,-0.2423,0,0,0,0,0.011,0,1023
2018,5,17,20,36,48.03,0.6278,-0.6682,0.317,-0.2423,0,0,0,0,0.015,0,1023
2018,5,17,20,36,48.05,0.6278,-0.6682,0.317,-0.2423,0,0,0,-0.002,0.01,0,1023
2018,5,17,20,36,48.07,0.6278,-0.6682,0.317,-0.2423,0,0,0,-0.002,0.013,0.005,0
2018,5,17,20,36,48.093,0.6278,-0.6682,0.317,-0.2423,-0.1,-0.5,0.1,-0.003,0.011,0.001,0
2018,5,17,20,36,48.112,0.6278,-0.6682,0.317,-0.2424,0,0,0,-0.003,0.009,-0.002,0
2018,5,17,20,36,48.133,0.6278,-0.6682,0.3169,-0.2424,0.5,0.2,0,0,0.01,0.003,0
2018,5,17,20,36,48.152,0.6278,-0.6682,0.3169,-0.2424,0,0,0,-0.003,0.017,-0.003,0
2018,5,17,20,36,48.174,0.6278,-0.6682,0.3169,-0.2424,0,0,0,-0.002,0.016,0.001,0
2018,5,17,20,36,48.193,0.6278,-0.6682,0.3169,-0.2424,0,0,0,0,0.013,0,0
2018,5,17,20,36,48.215,0.6278,-0.6682,0.3169,-0.2424,0,0,0,-0.001,0.015,0,0
2018,5,17,20,36,48.231,0.6278,-0.6682,0.3169,-0.2424,0,0,0,0,0.012,0.002,0
2018,5,17,20,36,48.25,0.6278,-0.6682,0.3169,-0.2424,0,0,0,0,0.013,0.003,0
2018,5,17,20,36,48.273,0.6278,-0.6682,0.3169,-0.2424,0,0,0,-0.003,0.011,0.005,0
2018,5,17,20,36,48.29,0.6278,-0.6682,0.3169,-0.2424,0,0,0,-0.002,0.009,-0.003,0
2018,5,17,20,36,48.312,0.6279,-0.6682,0.3169,-0.2424,-0.5,-0.2,-0.1,-0.003,0.015,0.001,0
2018,5,17,20,36,48.35,0.6278,-0.6682,0.3169,-0.2424,0,0,0,-0.002,0.013,0.004,0
2018,5,17,20,36,48.373,0.6279,-0.6682,0.3169,-0.2424,0,0,0,-0.001,0.011,0,0
2018,5,17,20,36,48.378,0.6278,-0.6682,0.3169,-0.2424,0,0,0,-0.002,0.01,0,0
2018,5,17,20,36,48.394,0.6278,-0.6682,0.3168,-0.2424,0,0,0,-0.007,0.014,0.003,0
2018,5,17,20,36,48.412,0.6278,-0.6682,0.3169,-0.2424,-0.5,-0.2,-0.5,-0.002,0.013,0.002,0
2018,5,17,20,36,48.429,0.6277,-0.6683,0.317,-0.2423,-0.4,0.2,-0.5,0.001,0.011,-0.001,0
2018,5,17,20,36,48.452,0.6277,-0.6683,0.317,-0.2423,0,0,0,0.001,0.012,0,0
2018,5,17,20,36,48.47,0.6277,-0.6683,0.317,-0.2423,0,0,0,-0.001,0.014,0.003,0
2018,5,17,20,36,48.494,0.6278,-0.6683,0.317,-0.2423,0,0,0,-0.001,0.016,0,1023
2018,5,17,20,36,48.531,0.6277,-0.6682,0.317,-0.2423,-0.8,-1.2,-0.8,-0.006,0.016,0.014,1023
2018,5,17,20,36,48.553,0.6275,-0.6683,0.3174,-0.2423,-1.6,-1.9,-1.4,-0.002,0.008,0.001,1023
2018,5,17,20,36,48.558,0.6273,-0.6683,0.3177,-0.2422,-0.3,-0.5,-0.7,0.005,0.014,-0.003,1023
2018,5,17,20,36,48.574,0.6274,-0.6683,0.3178,-0.2422,0.6,0.7,0.2,0.003,0.016,0.002,1023
2018,5,17,20,36,48.597,0.6275,-0.6683,0.3176,-0.2421,0.3,1.3,0,-0.003,0.011,0,1023
2018,5,17,20,36,48.616,0.6275,-0.6683,0.3175,-0.242,0.1,0,-0.7,-0.006,0.011,0.006,1023
2018,5,17,20,36,48.636,0.6275,-0.6682,0.3178,-0.2421,-1.8,-2.9,-1.6,-0.015,0.01,0.015,1023
2018,5,17,20,36,48.657,0.6271,-0.6682,0.3184,-0.2421,-1.8,-0.7,-1.2,0.022,0.017,-0.02,1023
2018,5,17,20,36,48.674,0.6272,-0.6683,0.3184,-0.2418,1.1,2.1,-0.3,0,0.004,-0.005,1023
2018,5,17,20,36,48.697,0.6274,-0.6682,0.3182,-0.2416,0.5,1.8,-0.9,-0.004,0.02,0.003,1023
2018,5,17,20,36,48.714,0.6278,-0.6679,0.3186,-0.2411,0.2,0.7,-7.3,-0.096,0.006,0,1023
2018,5,17,20,36,48.737,0.6277,-0.6678,0.319,-0.241,-1.3,-2.4,-3.8,0,0.011,-0.003,1023
2018,5,17,20,36,48.755,0.6276,-0.6675,0.32,-0.2407,-2,-3.2,-5.3,-0.004,0.02,0.003,1023
2018,5,17,20,36,48.773,0.6274,-0.6673,0.3211,-0.2403,-1,-2,-5,0.02,0.009,-0.005,1023
2018,5,17,20,36,48.797,0.6275,-0.6671,0.3218,-0.2397,0,1,-3.6,0,0.015,-0.007,1023
2018,5,17,20,36,48.832,0.6278,-0.667,0.322,-0.2392,1.2,1.1,-2.9,0.005,0.003,0.002,1023
2018,5,17,20,36,48.856,0.6281,-0.6666,0.3224,-0.2388,0.7,-1,-3.2,-0.016,0.008,0.019,1023
2018,5,17,20,36,48.86,0.6282,-0.6664,0.3228,-0.2387,-0.4,-0.4,-1.7,0.01,0.03,-0.005,1023
2018,5,17,20,36,48.878,0.6282,-0.6665,0.3227,-0.2383,1.1,3.5,1.2,0.011,0.006,-0.014,0
2018,5,17,20,36,48.916,0.6286,-0.6666,0.322,-0.2381,2.2,4.4,1.3,-0.007,0.007,0.008,0
2018,5,17,20,36,48.916,0.629,-0.6665,0.3214,-0.2379,1.3,2.3,0.5,-0.005,0.011,0,0
2018,5,17,20,36,48.938,0.6292,-0.6665,0.3211,-0.2379,1,1.1,0.6,-0.002,0.019,0.001,0
2018,5,17,20,36,48.973,0.6293,-0.6665,0.3209,-0.2379,0,0,0,-0.004,0.007,0,0
2018,5,17,20,36,48.994,0.6293,-0.6665,0.3209,-0.238,0,0,0,-0.001,0.009,-0.002,0
2018,5,17,20,36,48.998,0.6293,-0.6665,0.3209,-0.2379,0,0,0,0.001,0.016,-0.001,0
2018,5,17,20,36,49.034,0.6293,-0.6665,0.3209,-0.2379,0,0,0,-0.003,0.006,0.002,0
2018,5,17,20,36,49.056,0.6292,-0.6665,0.321,-0.2381,0.4,-1,0.4,0,0.014,0.003,0
2018,5,17,20,36,49.059,0.6292,-0.6664,0.321,-0.2382,0.1,-0.5,0.5,0.003,0.015,-0.006,0
2018,5,17,20,36,49.096,0.6292,-0.6664,0.3209,-0.2384,0,0,0,-0.003,0.016,0.004,0
2018,5,17,20,36,49.118,0.6292,-0.6664,0.3209,-0.2384,0,0,0,-0.002,0.01,0.003,0
2018,5,17,20,36,49.121,0.6293,-0.6664,0.3208,-0.2383,0.6,0.8,0,-0.002,0.019,0.002,0
2018,5,17,20,36,49.156,0.6294,-0.6664,0.3207,-0.2382,0.5,1,0.3,-0.001,0.013,-0.001,0
2018,5,17,20,36,49.179,0.6295,-0.6664,0.3205,-0.2381,0,0.7,-0.2,-0.005,0.017,0.002,0
2018,5,17,20,36,49.183,0.6295,-0.6664,0.3206,-0.2381,0,0.2,-0.8,-0.003,0.008,0,0
2018,5,17,20,36,49.198,0.6295,-0.6664,0.3207,-0.2379,0,0,-1,-0.001,0.008,0,0
2018,5,17,20,36,49.216,0.6295,-0.6664,0.3208,-0.2378,0.3,0.5,-1,0,0.013,-0.004,0
2018,5,17,20,36,49.239,0.6296,-0.6663,0.3208,-0.2376,0.4,0.8,-0.8,0,0.016,0,0
2018,5,17,20,36,49.256,0.6298,-0.6662,0.3209,-0.2374,0.5,0.5,-1.3,-0.002,0.013,0.001,0
2018,5,17,20,36,49.277,0.6299,-0.6661,0.321,-0.2373,0.6,-0.4,-1.7,-0.001,0.006,0,0
2018,5,17,20,36,49.315,0.63,-0.6659,0.3212,-0.2373,0.1,-1,-1.2,0,0.022,0.005,0
2018,5,17,20,36,49.338,0.63,-0.6658,0.3214,-0.2372,0,0.1,-0.8,0.002,0.011,-0.008,0
2018,5,17,20,36,49.343,0.6301,-0.6658,0.3215,-0.237,0.8,1.4,-1.1,-0.002,0.007,-0.002,1023
2018,5,17,20,36,49.359,0.6303,-0.6657,0.3214,-0.2368,1.1,0.9,-1.7,-0.004,0.009,-0.001,1023
2018,5,17,20,36,49.382,0.6306,-0.6655,0.3215,-0.2365,0.7,0.9,-2.1,-0.001,0.011,0,1023
2018,5,17,20,36,49.4,0.6307,-0.6654,0.3217,-0.2362,-0.1,-0.2,-2.3,0,0.012,0.003,1023
2018,5,17,20,36,49.423,0.6307,-0.6653,0.322,-0.2361,-0.6,-0.7,-1.8,0,0.014,0.001,1023
