time_1,time_2,time_3,time_4,time_5,time_6,w,x,y,z,droll,dpitch,dyaw,ax,ay,az,heart
2018,5,17,20,42,14.649,0.0719,-0.3464,-0.0352,0.9346,0.8,0.7,-0.2,-0.006,0.005,-0.002,0
2018,5,17,20,42,14.665,0.0719,-0.3462,-0.035,0.9347,-0.1,0.6,0,-0.007,0.013,0.002,0
2018,5,17,20,42,14.681,0.0718,-0.3461,-0.035,0.9347,-1.4,0.2,-0.3,-0.005,0.003,0,0
2018,5,17,20,42,14.704,0.0716,-0.3462,-0.0351,0.9347,-1.6,0,-0.3,0.001,-0.002,-0.01,0
2018,5,17,20,42,14.722,0.0715,-0.3463,-0.0354,0.9347,-1.6,0.2,-0.3,0.003,-0.001,-0.011,0
2018,5,17,20,42,14.745,0.0713,-0.3463,-0.0359,0.9347,-1.5,0.7,-0.2,0,-0.008,-0.005,0
2018,5,17,20,42,14.763,0.0712,-0.3461,-0.0363,0.9347,-1,0.9,-0.4,-0.007,-0.005,0,0
2018,5,17,20,42,14.786,0.0711,-0.346,-0.0363,0.9348,-0.3,0.3,-0.5,-0.005,-0.003,0.005,0
2018,5,17,20,42,14.804,0.0712,-0.3458,-0.0363,0.9348,0,0,0,-0.008,0.003,0.006,1023
2018,5,17,20,42,14.827,0.0711,-0.3457,-0.0363,0.9349,0,0,0,-0.012,0.001,0.003,1023
2018,5,17,20,42,14.847,0.0711,-0.3457,-0.0364,0.9349,0,0,0,-0.009,0.002,0,1023
2018,5,17,20,42,14.865,0.0712,-0.3458,-0.0362,0.9348,0.3,-0.5,0.1,-0.002,0.003,-0.007,1023
2018,5,17,20,42,14.888,0.0713,-0.3459,-0.0361,0.9348,0,0,0,-0.002,0.002,-0.011,1023
2018,5,17,20,42,14.905,0.0713,-0.346,-0.0361,0.9348,-0.7,0,0.2,-0.001,0,-0.005,1023
2018,5,17,20,42,14.923,0.0713,-0.346,-0.0361,0.9348,0,0,0,-0.005,-0.005,-0.006,1023
2018,5,17,20,42,14.946,0.0713,-0.346,-0.0362,0.9348,0,0,0,0,-0.003,-0.005,1023
2018,5,17,20,42,14.964,0.0713,-0.346,-0.0361,0.9347,0,-0.5,-0.1,-0.006,0.005,0,1023
2018,5,17,20,42,14.987,0.0713,-0.346,-0.0362,0.9347,0,0,0,-0.005,0.006,0,1023
2018,5,17,20,42,15.006,0.0713,-0.346,-0.0362,0.9347,0,0,0,-0.002,0.003,0,1023
2018,5,17,20,42,15.029,0.0713,-0.346,-0.0362,0.9347,0,0,0,0,-0.006,-0.003,1023
2018,5,17,20,42,15.065,0.0713,-0.3461,-0.0363,0.9347,0,0,0,0.002,-0.006,-0.007,1023
2018,5,17,20,42,15.089,0.0715,-0.3461,-0.0361,0.9347,0.8,-0.4,0.2,-0.001,-0.003,-0.007,1023
2018,5,17,20,42,15.093,0.0715,-0.3462,-0.036,0.9347,0.6,-0.5,0.2,-0.002,0,-0.002,1023
2018,5,17,20,42,15.111,0.0716,-0.3462,-0.0359,0.9346,0.9,-0.5,0,-0.005,-0.001,0.001,1023
2018,5,17,20,42,15.129,0.0717,-0.3463,-0.0357,0.9346,0.8,-0.8,0,-0.006,0.002,0,1023
2018,5,17,20,42,15.151,0.0717,-0.3464,-0.0355,0.9346,-0.1,-0.8,-0.2,-0.005,0.004,-0.005,1023
2018,5,17,20,42,15.188,0.0716,-0.3465,-0.0359,0.9345,-0.7,-0.6,-0.2,-0.004,0.001,-0.006,0
2018,5,17,20,42,15.211,0.0715,-0.3467,-0.036,0.9345,-0.5,-0.8,0,0,-0.007,-0.003,0
2018,5,17,20,42,15.215,0.0716,-0.3468,-0.0361,0.9344,0.2,-0.8,0,-0.001,-0.003,0.001,0
2018,5,17,20,42,15.229,0.0716,-0.347,-0.0361,0.9344,0.5,-0.8,-0.2,0,-0.002,-0.004,0
2018,5,17,20,42,15.248,0.0716,-0.3471,-0.0361,0.9343,0.4,-0.8,-0.2,-0.004,0,-0.008,0
2018,5,17,20,42,15.27,0.0716,-0.3472,-0.0359,0.9343,0.4,-0.7,0,-0.005,0.001,-0.002,0
2018,5,17,20,42,15.288,0.0716,-0.3473,-0.0357,0.9343,0,-0.8,-0.1,-0.006,0.004,-0.005,0
2018,5,17,20,42,15.311,0.0716,-0.3474,-0.0357,0.9342,0.4,-0.8,-0.2,0,0,-0.011,0
2018,5,17,20,42,15.347,0.0716,-0.3476,-0.0357,0.9341,0.5,-1.1,0,0,0.005,-0.008,0
2018,5,17,20,42,15.37,0.0716,-0.3478,-0.0355,0.9341,-0.1,-0.7,0,0,0.005,-0.007,0
2018,5,17,20,42,15.375,0.0716,-0.3479,-0.0357,0.934,-0.7,-0.7,0.1,-0.001,0,0.001,0
2018,5,17,20,42,15.409,0.0715,-0.348,-0.036,0.934,-0.3,-0.5,0.1,0,-0.006,-0.001,0
2018,5,17,20,42,15.409,0.0716,-0.3481,-0.036,0.9339,0.3,-0.5,0,-0.001,-0.005,-0.003,0
2018,5,17,20,42,15.431,0.0716,-0.3482,-0.036,0.9339,0.8,-0.2,0,0,-0.002,-0.005,0
2018,5,17,20,42,15.45,0.0717,-0.3482,-0.0358,0.9339,0,0,0,-0.003,0.007,-0.006,0
2018,5,17,20,42,15.468,0.0716,-0.3482,-0.0358,0.9339,0,0,0,-0.002,0.004,-0.008,0
2018,5,17,20,42,15.491,0.0716,-0.3482,-0.0357,0.9339,0,0,0,0,0.005,-0.008,0
2018,5,17,20,42,15.509,0.0716,-0.3483,-0.0356,0.9339,-0.8,-0.3,0,-0.002,0.004,-0.001,0
2018,5,17,20,42,15.532,0.0716,-0.3484,-0.0355,0.9338,-1.7,-0.3,0,-0.001,-0.004,0,0
2018,5,17,20,42,15.551,0.0715,-0.3485,-0.0359,0.9338,-0.8,-0.3,0,-0.001,-0.012,0.005,0
2018,5,17,20,42,15.573,0.0716,-0.3485,-0.0361,0.9338,0.7,-0.2,0,0,-0.009,-0.003,0
2018,5,17,20,42,15.591,0.0717,-0.3485,-0.0359,0.9338,1.3,-0.2,0,-0.004,-0.004,0.004,0
2018,5,17,20,42,15.613,0.0718,-0.3485,-0.0356,0.9338,1.4,-0.5,0.2,-0.005,0.001,0,0
2018,5,17,20,42,15.629,0.0719,-0.3486,-0.0354,0.9338,1.4,-0.8,0,-0.004,0,-0.002,0
2018,5,17,20,42,15.666,0.072,-0.3487,-0.0352,0.9337,1.4,-1.2,0,-0.004,0.002,-0.008,1023
2018,5,17,20,42,15.689,0.0719,-0.3489,-0.035,0.9337,0.6,-1.3,-0.6,-0.006,0.004,-0.004,1023
2018,5,17,20,42,15.694,0.0718,-0.3491,-0.0347,0.9336,-0.6,-1.4,-0.7,-0.004,0.005,-0.003,1023
2018,5,17,20,42,15.709,0.0717,-0.3493,-0.0349,0.9335,-1,-1.3,-0.4,-0.01,0.002,-0.001,1023
2018,5,17,20,42,15.732,0.0715,-0.3495,-0.0352,0.9335,-0.8,-1.3,-0.2,-0.005,0.001,-0.005,1023
2018,5,17,20,42,15.753,0.0715,-0.3497,-0.0353,0.9334,-0.2,-1.3,0,-0.006,-0.007,0,1023
2018,5,17,20,42,15.772,0.0715,-0.3498,-0.0354,0.9333,0.9,-0.8,0,-0.004,-0.006,-0.003,1023
2018,5,17,20,42,15.795,0.0717,-0.35,-0.035,0.9333,2.2,-0.9,0.3,-0.003,0.002,-0.005,1023
2018,5,17,20,42,15.813,0.0719,-0.3501,-0.0345,0.9332,1.7,-1,0,0,0.009,-0.006,1023
2018,5,17,20,42,15.852,0.072,-0.3503,-0.0342,0.9332,0.5,-0.8,0,0.001,0.002,-0.004,1023
2018,5,17,20,42,15.852,0.072,-0.3505,-0.0342,0.9331,0.4,-1,0.2,0,-0.001,0.002,1023
2018,5,17,20,42,15.875,0.0721,-0.3507,-0.0341,0.933,0.7,-1.1,-0.2,0.002,0,-0.004,1023
2018,5,17,20,42,15.894,0.0721,-0.3509,-0.0339,0.9329,0.3,-1.2,-0.4,-0.003,-0.001,-0.004,1023
2018,5,17,20,42,15.916,0.0721,-0.3511,-0.0336,0.9329,0.5,-0.8,-0.2,-0.001,-0.002,-0.006,1023
2018,5,17,20,42,15.932,0.0722,-0.3513,-0.0335,0.9328,0.8,-0.2,0.2,-0.003,0,-0.012,1023
2018,5,17,20,42,15.955,0.0723,-0.3513,-0.0332,0.9328,1,-0.3,0.2,0,0,-0.003,1023
2018,5,17,20,42,15.992,0.0724,-0.3514,-0.0331,0.9328,0.8,-0.8,0,-0.003,0.001,0.004,1023
2018,5,17,20,42,15.992,0.0724,-0.3516,-0.0329,0.9327,0.3,-0.9,0,0.002,-0.001,-0.001,1023
2018,5,17,20,42,16.015,0.0724,-0.3517,-0.0328,0.9326,0.3,-1,-0.2,-0.004,-0.001,-0.005,1023
2018,5,17,20,42,16.033,0.0723,-0.3519,-0.0329,0.9326,-0.1,-0.8,-0.3,-0.005,0,-0.006,0
2018,5,17,20,42,16.055,0.0723,-0.352,-0.0328,0.9326,0.3,-0.7,-0.1,-0.012,-0.004,-0.005,0
2018,5,17,20,42,16.091,0.0723,-0.3521,-0.0328,0.9325,0.5,-0.5,0.2,-0.003,0,-0.01,0
2018,5,17,20,42,16.113,0.0724,-0.3522,-0.0328,0.9325,0.5,-0.3,0,-0.003,0.003,-0.005,0
2018,5,17,20,42,16.118,0.0724,-0.3522,-0.0327,0.9325,0,0,0,-0.003,0,-0.005,0
2018,5,17,20,42,16.155,0.0724,-0.3522,-0.0327,0.9325,0,0,0,-0.004,0.002,-0.005,0
2018,5,17,20,42,16.178,0.0724,-0.3522,-0.0327,0.9325,0,0,0,-0.003,0.006,-0.011,0
2018,5,17,20,42,16.182,0.0724,-0.3522,-0.0327,0.9325,-0.7,0,0.1,-0.002,0,-0.007,0
2018,5,17,20,42,16.197,0.0724,-0.3522,-0.0327,0.9325,0,0,0,-0.004,0,-0.007,0
2018,5,17,20,42,16.214,0.0724,-0.3523,-0.0328,0.9324,0,0,0,-0.001,0,-0.006,0
2018,5,17,20,42,16.237,0.0724,-0.3523,-0.0329,0.9324,-0.5,0,-0.2,-0.001,0.003,-0.003,0
2018,5,17,20,42,16.254,0.0723,-0.3523,-0.0331,0.9324,-1.5,0,-0.2,0,0.002,-0.005,0
2018,5,17,20,42,16.277,0.0721,-0.3523,-0.0333,0.9324,-0.9,0.2,-0.3,-0.004,-0.005,0,0
2018,5,17,20,42,16.296,0.0721,-0.3522,-0.0335,0.9325,0.5,0.2,0,-0.011,-0.002,-0.005,0
2018,5,17,20,42,16.319,0.0722,-0.3522,-0.0334,0.9325,0.8,0.2,0.2,-0.007,0.004,-0.005,0
2018,5,17,20,42,16.336,0.0723,-0.3521,-0.033,0.9325,0.6,0.3,0.2,-0.004,0.003,-0.002,0
2018,5,17,20,42,16.359,0.0724,-0.352,-0.033,0.9325,0.5,0.2,0.5,-0.007,0.005,-0.002,0
2018,5,17,20,42,16.377,0.0725,-0.352,-0.0328,0.9325,0,0.2,0.5,0,0.007,-0.004,0
2018,5,17,20,42,16.4,0.0724,-0.352,-0.0333,0.9325,-1.5,0,0.2,0,-0.001,-0.006,0
2018,5,17,20,42,16.416,0.0724,-0.3521,-0.0336,0.9325,-1.6,0.7,0,0.005,-0.01,-0.007,0
2018,5,17,20,42,16.455,0.0723,-0.352,-0.0339,0.9325,-0.6,0.8,-0.3,0.004,-0.012,-0.008,0
2018,5,17,20,42,16.455,0.0723,-0.3519,-0.0341,0.9325,0.5,1,-0.2,0.001,-0.007,-0.006,0
2018,5,17,20,42,16.477,0.0723,-0.3517,-0.034,0.9326,0.6,1,-0.3,-0.003,0,-0.001,0
2018,5,17,20,42,16.496,0.0723,-0.3515,-0.0337,0.9327,0.6,0.9,-0.2,-0.004,0.004,0,1023
2018,5,17,20,42,16.519,0.0723,-0.3513,-0.0335,0.9328,0.6,0.7,-0.2,-0.007,0.007,0.001,1023
2018,5,17,20,42,16.537,0.0723,-0.3512,-0.0334,0.9328,0,0,0,-0.007,0.005,-0.007,1023
2018,5,17,20,42,16.558,0.0723,-0.3512,-0.0334,0.9328,0,0,0,0,0.001,-0.008,1023
2018,5,17,20,42,16.578,0.0723,-0.3513,-0.0333,0.9328,-0.8,0.3,0.1,0,0.003,-0.013,1023
2018,5,17,20,42,16.6,0.0722,-0.3513,-0.0338,0.9328,-1.3,0.7,0.1,0.01,-0.004,-0.009,1023
2018,5,17,20,42,16.619,0.0722,-0.3512,-0.0339,0.9328,-0.7,1,0,0.001,-0.009,-0.011,1023
2018,5,17,20,42,16.642,0.0721,-0.3512,-0.034,0.9328,-0.2,0.9,-0.6,0.001,0.003,-0.007,1023
2018,5,17,20,42,16.66,0.072,-0.351,-0.0337,0.9329,-0.3,0.8,-0.7,-0.011,0.006,0.003,1023
2018,5,17,20,42,16.683,0.0718,-0.3507,-0.0337,0.933,-0.7,0.8,-0.4,-0.018,0.007,0.007,1023
2018,5,17,20,42,16.698,0.0717,-0.3504,-0.0338,0.9331,-0.8,0.7,0,-0.018,0.009,0.011,1023
2018,5,17,20,42,16.717,0.0716,-0.3502,-0.034,0.9332,-1.1,0.4,0.2,-0.013,0,-0.003,1023
2018,5,17,20,42,16.739,0.0717,-0.3501,-0.0342,0.9333,-1,0.3,0.5,-0.006,-0.001,-0.001,1023
2018,5,17,20,42,16.759,0.0717,-0.3501,-0.0345,0.9333,-0.8,0.6,0.3,-0.001,-0.005,-0.004,1023
2018,5,17,20,42,16.781,0.0717,-0.3499,-0.0347,0.9333,-0.6,0.7,0,-0.001,-0.007,0,1023
2018,5,17,20,42,16.818,0.0717,-0.3499,-0.0347,0.9333,0,0,0,-0.002,-0.004,-0.003,1023
2018,5,17,20,42,16.841,0.0717,-0.3499,-0.0347,0.9333,0.5,0,0,-0.001,0,-0.001,1023
2018,5,17,20,42,16.846,0.0718,-0.3499,-0.0345,0.9333,0.7,-0.2,0,-0.003,0.008,-0.006,1023
2018,5,17,20,42,16.861,0.0718,-0.35,-0.0342,0.9333,0,0,0,0,0.005,0.002,0
2018,5,17,20,42,16.884,0.0718,-0.35,-0.0342,0.9333,0,0,0,-0.002,0.002,0,0
2018,5,17,20,42,16.902,0.0718,-0.35,-0.0343,0.9333,0,0,0,0,-0.005,-0.008,0
2018,5,17,20,42,16.924,0.0719,-0.35,-0.0343,0.9333,0.8,0.1,0,-0.003,-0.004,-0.007,0
2018,5,17,20,42,16.942,0.072,-0.35,-0.034,0.9333,1.4,0.1,0.1,-0.005,0.001,-0.007,0
2018,5,17,20,42,16.961,0.0721,-0.3499,-0.034,0.9333,0.6,0,0.3,-0.008,0.008,-0.002,0
2018,5,17,20,42,16.98,0.0721,-0.3498,-0.0339,0.9333,0,0,0,-0.002,0.005,0,0
2018,5,17,20,42,17.002,0.072,-0.3499,-0.0343,0.9333,-1,-0.3,0,0,0.005,-0.002,0
2018,5,17,20,42,17.02,0.0719,-0.35,-0.0346,0.9333,-1.5,-0.3,0,-0.002,0,-0.001,0
2018,5,17,20,42,17.043,0.0719,-0.35,-0.0349,0.9333,-1,0,0,-0.001,-0.009,0.006,0
2018,5,17,20,42,17.08,0.0719,-0.35,-0.0352,0.9333,0,0,0,-0.004,-0.011,0.005,0
2018,5,17,20,42,17.104,0.072,-0.3499,-0.0351,0.9333,0.8,-0.8,0.5,-0.005,-0.011,0.012,0
2018,5,17,20,42,17.109,0.0723,-0.35,-0.0347,0.9332,1.4,-1.6,0.2,-0.006,-0.009,0.01,0
2018,5,17,20,42,17.127,0.0725,-0.3502,-0.0344,0.9332,1.9,-1.9,0,-0.006,-0.006,0.004,0
2018,5,17,20,42,17.145,0.0727,-0.3504,-0.034,0.9331,2.6,-1.5,0,-0.005,-0.007,-0.008,0
2018,5,17,20,42,17.161,0.0729,-0.3506,-0.0336,0.933,3.2,-1.1,0,-0.007,0.003,-0.018,0
2018,5,17,20,42,17.18,0.0731,-0.3509,-0.0333,0.9329,2.6,-0.7,0.1,-0.002,0.012,-0.024,0
2018,5,17,20,42,17.203,0.0732,-0.3511,-0.0327,0.9328,1.3,-0.2,0,0.003,0.016,-0.025,0
2018,5,17,20,42,17.221,0.0731,-0.3513,-0.0327,0.9328,0,0,0,0.006,0.023,-0.018,0
2018,5,17,20,42,17.244,0.0729,-0.3513,-0.0325,0.9328,-2.9,0.7,-0.1,0.007,0.015,-0.014,0
2018,5,17,20,42,17.262,0.0726,-0.3513,-0.0331,0.9328,-3.3,1,-0.2,0.006,-0.002,-0.009,0
2018,5,17,20,42,17.285,0.0724,-0.3513,-0.0337,0.9328,-2.5,1.1,-0.2,0.001,-0.009,-0.003,0
2018,5,17,20,42,17.322,0.0723,-0.3511,-0.0339,0.9328,-1.3,1.4,-0.2,-0.001,-0.014,0,0
2018,5,17,20,42,17.322,0.0723,-0.3508,-0.0341,0.933,0.6,1.9,-0.1,-0.003,-0.012,0,0
2018,5,17,20,42,17.344,0.0724,-0.3504,-0.0341,0.9331,1.4,1.6,0,-0.009,-0.007,0.009,0
2018,5,17,20,42,17.36,0.0725,-0.3501,-0.0339,0.9332,1.7,1,0,-0.01,0.006,0,0
2018,5,17,20,42,17.383,0.0725,-0.3498,-0.0336,0.9333,0.3,0.5,-0.2,-0.012,0.014,0.002,1023
2018,5,17,20,42,17.401,0.0725,-0.3496,-0.0337,0.9334,-0.5,0.4,0,-0.011,0.005,0,1023
2018,5,17,20,42,17.424,0.0724,-0.3496,-0.0337,0.9334,-1.1,0.1,0,-0.008,0,-0.009,1023
2018,5,17,20,42,17.46,0.0724,-0.3495,-0.0341,0.9334,-0.7,0,0,-0.005,-0.003,-0.006,1023
2018,5,17,20,42,17.483,0.0723,-0.3495,-0.0343,0.9334,-0.5,0.3,0,-0.002,-0.004,0.004,1023
2018,5,17,20,42,17.488,0.0723,-0.3495,-0.0343,0.9334,0,0,0,-0.004,0,0.002,1023
2018,5,17,20,42,17.524,0.0724,-0.3495,-0.0343,0.9335,0.6,0.3,-0.2,-0.007,-0.004,0,1023
2018,5,17,20,42,17.524,0.0724,-0.3494,-0.0339,0.9335,1.5,0,0,-0.003,0.006,-0.007,1023
2018,5,17,20,42,17.546,0.0725,-0.3494,-0.0338,0.9335,0,0,0,-0.006,0.014,-0.006,1023
2018,5,17,20,42,17.584,0.0724,-0.3494,-0.0338,0.9335,-1.6,0.1,0.1,-0.006,0.009,-0.006,1023
2018,5,17,20,42,17.608,0.0722,-0.3494,-0.0342,0.9335,-2.7,0,0,0,0,-0.004,1023
2018,5,17,20,42,17.612,0.0721,-0.3495,-0.0347,0.9335,-3,0.3,-0.2,0.002,-0.013,-0.002,1023
2018,5,17,20,42,17.629,0.0719,-0.3495,-0.0352,0.9334,-1.1,0.2,-0.3,-0.001,-0.014,0.005,1023
2018,5,17,20,42,17.646,0.072,-0.3494,-0.0354,0.9335,0,0,0,-0.009,-0.008,0.005,1023
2018,5,17,20,42,17.669,0.072,-0.3493,-0.0352,0.9335,1.1,0,-0.4,-0.008,0,0.006,1023
2018,5,17,20,42,17.688,0.0721,-0.3492,-0.0348,0.9335,1.4,-0.2,0,-0.012,0.004,0.001,1023
2018,5,17,20,42,17.711,0.0722,-0.3492,-0.0345,0.9336,1.2,-0.5,0,-0.005,0.005,0.001,1023
2018,5,17,20,42,17.728,0.0722,-0.3493,-0.0342,0.9335,0.6,-0.7,0,-0.005,0.008,-0.008,1023
2018,5,17,20,42,17.764,0.0722,-0.3494,-0.0343,0.9335,0,0,0,0,0.006,-0.011,1023
2018,5,17,20,42,17.787,0.0722,-0.3494,-0.0344,0.9335,-0.5,0,0.2,-0.001,0,-0.009,0
2018,5,17,20,42,17.792,0.0722,-0.3495,-0.0345,0.9335,0,0,0,0,0,-0.003,0
2018,5,17,20,42,17.809,0.0722,-0.3495,-0.0345,0.9335,0,0,0,-0.002,-0.001,-0.004,0
2018,5,17,20,42,17.827,0.0722,-0.3494,-0.0346,0.9335,0,0,0,-0.005,0,-0.004,0
2018,5,17,20,42,17.85,0.0722,-0.3494,-0.0346,0.9335,0,0,0,-0.007,0,-0.002,0
2018,5,17,20,42,17.868,0.0722,-0.3494,-0.0346,0.9335,0,0,0,-0.004,-0.005,0,0
2018,5,17,20,42,17.891,0.0723,-0.3494,-0.0346,0.9335,0,0,0,0,-0.009,-0.003,0
2018,5,17,20,42,17.927,0.0723,-0.3494,-0.0348,0.9335,0,0,0,0.001,-0.011,-0.008,0
2018,5,17,20,42,17.927,0.0724,-0.3494,-0.0346,0.9335,0.9,0.1,-0.1,0,-0.007,-0.005,0
2018,5,17,20,42,17.949,0.0724,-0.3494,-0.0344,0.9335,1.4,0.2,-0.2,0,0.004,-0.007,0
2018,5,17,20,42,17.969,0.0724,-0.3493,-0.0342,0.9335,0.9,0.5,-0.1,-0.003,0.01,-0.003,0
2018,5,17,20,42,17.987,0.0724,-0.3492,-0.0341,0.9335,0,0,0,-0.009,0.011,-0.004,0
2018,5,17,20,42,18.01,0.0723,-0.3491,-0.034,0.9336,-0.7,0.3,-0.2,-0.008,0.006,-0.002,0
2018,5,17,20,42,18.028,0.0723,-0.3491,-0.0339,0.9336,-1.1,0,-0.1,-0.008,0.002,-0.005,0
2018,5,17,20,42,18.049,0.0722,-0.3491,-0.0341,0.9336,-1.1,-0.2,0,-0.005,-0.001,-0.004,0
2018,5,17,20,42,18.087,0.0721,-0.3491,-0.0343,0.9336,-0.6,0.3,0,-0.001,0.001,0,0
2018,5,17,20,42,18.109,0.0721,-0.3491,-0.0346,0.9336,-0.7,0.7,0.2,0,-0.002,0,0
2018,5,17,20,42,18.113,0.0721,-0.349,-0.0346,0.9336,-0.4,0.7,0.2,-0.003,-0.003,-0.003,0
2018,5,17,20,42,18.13,0.0722,-0.3489,-0.0347,0.9336,0,0,0,0,-0.005,-0.004,0
2018,5,17,20,42,18.153,0.0722,-0.3489,-0.0347,0.9337,0,0,0,0,-0.003,-0.003,0
2018,5,17,20,42,18.172,0.0722,-0.3488,-0.0348,0.9337,0.5,0.5,0,-0.004,-0.007,0.001,0
2018,5,17,20,42,18.189,0.0723,-0.3486,-0.0346,0.9337,1.2,0.2,0,-0.007,0,0.001,0
2018,5,17,20,42,18.212,0.0724,-0.3486,-0.0343,0.9338,1.2,0.3,0,-0.004,0.005,-0.002,0
2018,5,17,20,42,18.23,0.0724,-0.3485,-0.034,0.9338,0,0,0,-0.005,0.01,-0.002,0
2018,5,17,20,42,18.25,0.0723,-0.3484,-0.0339,0.9338,-0.8,0.3,-0.2,-0.01,0.003,-0.003,1023
2018,5,17,20,42,18.273,0.0723,-0.3484,-0.0339,0.9339,-1,0,-0.1,-0.004,0,-0.002,1023
2018,5,17,20,42,18.291,0.0722,-0.3485,-0.034,0.9338,-1.2,-0.3,0,-0.004,0.003,-0.001,1023
2018,5,17,20,42,18.313,0.0721,-0.3485,-0.0343,0.9338,-1.2,0,0.3,-0.003,-0.005,0.007,1023
2018,5,17,20,42,18.333,0.0722,-0.3484,-0.0346,0.9338,0,0,0,-0.003,-0.01,0.005,1023
2018,5,17,20,42,18.356,0.0722,-0.3484,-0.0347,0.9338,0.6,-0.2,0,-0.002,-0.01,0,1023
2018,5,17,20,42,18.372,0.0723,-0.3485,-0.0346,0.9338,1.4,-0.3,-0.2,-0.006,-0.002,-0.011,1023
2018,5,17,20,42,18.393,0.0724,-0.3486,-0.0341,0.9338,0.9,-0.7,0,-0.006,0.008,-0.01,1023
2018,5,17,20,42,18.43,0.0724,-0.3487,-0.0337,0.9337,-0.7,-0.5,0,-0.003,0.013,-0.009,1023
2018,5,17,20,42,18.43,0.0722,-0.3489,-0.0341,0.9337,-2.3,-0.4,0,0.002,0.007,-0.009,1023
2018,5,17,20,42,18.453,0.072,-0.349,-0.0347,0.9336,-2.4,-0.4,0,0.001,-0.002,-0.004,1023
2018,5,17,20,42,18.489,0.0719,-0.3491,-0.0351,0.9336,-1.9,0,0,0,-0.002,0,1023
2018,5,17,20,42,18.512,0.0718,-0.3491,-0.0354,0.9336,-1.3,-0.2,0,0,-0.006,0.013,1023
2018,5,17,20,42,18.516,0.0718,-0.349,-0.0358,0.9336,-0.1,-0.6,0,-0.004,-0.014,0.006,1023
2018,5,17,20,42,18.533,0.0719,-0.3491,-0.036,0.9336,1.7,-0.9,0,-0.004,-0.012,0.003,1023
2018,5,17,20,42,18.555,0.072,-0.3492,-0.0358,0.9335,2.4,-0.6,-0.2,-0.001,0.003,-0.003,1023
2018,5,17,20,42,18.592,0.0721,-0.3493,-0.0352,0.9335,1.9,-0.2,0,-0.009,0.009,-0.009,1023
2018,5,17,20,42,18.615,0.0721,-0.3493,-0.0349,0.9335,0,0,0,-0.013,0.011,-0.005,1023
2018,5,17,20,42,18.62,0.0721,-0.3493,-0.0347,0.9335,-1.3,-0.5,0,-0.002,0.006,-0.007,1023
2018,5,17,20,42,18.636,0.072,-0.3495,-0.0349,0.9334,-1.6,-0.8,0.1,0.001,-0.001,-0.01,0
2018,5,17,20,42,18.654,0.072,-0.3497,-0.0353,0.9334,-0.5,-0.5,0,0.001,-0.007,-0.003,0
2018,5,17,20,42,18.677,0.072,-0.3497,-0.0355,0.9333,0.2,-0.5,-0.2,-0.002,-0.004,0,0
2018,5,17,20,42,18.695,0.072,-0.3498,-0.0355,0.9333,0.8,-0.5,-0.3,-0.002,-0.001,0,0
2018,5,17,20,42,18.717,0.072,-0.3499,-0.035,0.9333,0.5,-0.7,-0.2,-0.004,0.005,-0.002,0
2018,5,17,20,42,18.735,0.072,-0.35,-0.0348,0.9333,0,0,0,-0.006,0.002,-0.003,0
2018,5,17,20,42,18.753,0.072,-0.35,-0.0348,0.9333,0,0,0,-0.008,-0.001,0.006,0
2018,5,17,20,42,18.776,0.0721,-0.35,-0.0348,0.9333,0.1,-0.6,0,-0.005,-0.007,0.001,0
2018,5,17,20,42,18.796,0.0721,-0.3501,-0.0348,0.9332,0.9,-0.8,0,-0.002,-0.003,-0.005,0
2018,5,17,20,42,18.819,0.0722,-0.3502,-0.0346,0.9332,0.5,-0.8,-0.1,-0.003,0.003,-0.006,0
2018,5,17,20,42,18.837,0.0722,-0.3504,-0.0345,0.9331,0,-0.7,0,-0.002,0.001,-0.01,0
2018,5,17,20,42,18.855,0.0722,-0.3505,-0.0346,0.9331,-0.1,-0.8,0,-0.009,0,-0.007,0
2018,5,17,20,42,18.879,0.0722,-0.3506,-0.0345,0.933,-0.5,-0.8,0.3,-0.003,0,-0.008,0
2018,5,17,20,42,18.896,0.0722,-0.3507,-0.0346,0.933,-0.4,-0.5,0,-0.005,-0.003,-0.001,0
2018,5,17,20,42,18.919,0.0723,-0.3508,-0.0347,0.933,0.2,-0.5,0.2,0.002,-0.005,-0.007,0
2018,5,17,20,42,18.937,0.0724,-0.3509,-0.0344,0.9329,1.1,-0.9,0.1,0.002,0.001,-0.004,0
2018,5,17,20,42,18.955,0.0725,-0.3511,-0.0343,0.9328,0.7,-0.8,0.2,0.001,0.007,-0.001,0
2018,5,17,20,42,18.978,0.0725,-0.3512,-0.0341,0.9328,0.1,-0.7,-0.1,-0.005,0.001,-0.006,0
2018,5,17,20,42,18.996,0.0725,-0.3514,-0.034,0.9327,-0.3,-0.8,-0.2,-0.007,0,-0.008,0
2018,5,17,20,42,19.019,0.0724,-0.3515,-0.0342,0.9327,-1.3,-0.5,-0.4,-0.003,-0.002,-0.012,0
2018,5,17,20,42,19.039,0.0722,-0.3517,-0.0345,0.9326,-1.3,0,-0.3,0,0,-0.007,0
2018,5,17,20,42,19.056,0.0722,-0.3517,-0.0345,0.9326,0,0,0,0,-0.008,0,0
2018,5,17,20,42,19.079,0.0722,-0.3517,-0.0346,0.9326,0.6,0.2,-0.1,-0.005,-0.005,0.004,0
2018,5,17,20,42,19.098,0.0723,-0.3516,-0.0345,0.9326,1.3,-0.1,0,-0.008,0.001,-0.002,0
2018,5,17,20,42,19.121,0.0723,-0.3516,-0.0343,0.9327,0.9,-0.5,-0.1,-0.011,0.01,-0.003,0
2018,5,17,20,42,19.138,0.0722,-0.3517,-0.0343,0.9326,-0.5,-0.8,-0.3,-0.006,0.011,-0.007,1023
2018,5,17,20,42,19.154,0.072,-0.3518,-0.0347,0.9326,-1.8,-0.5,-0.4,-0.002,0.004,-0.013,1023
2018,5,17,20,42,19.178,0.0718,-0.3519,-0.0351,0.9325,-2,-0.4,0,0,0,-0.006,1023
2018,5,17,20,42,19.196,0.0717,-0.3521,-0.0354,0.9325,-1.9,-0.4,0,0.008,-0.003,-0.009,1023
2018,5,17,20,42,19.219,0.0716,-0.3522,-0.0357,0.9324,-1.7,0,-0.1,0.005,-0.006,-0.008,1023
2018,5,17,20,42,19.237,0.0715,-0.3523,-0.0359,0.9324,-0.8,0.5,-0.1,0.002,-0.013,0.003,1023
2018,5,17,20,42,19.26,0.0715,-0.3521,-0.0363,0.9324,0.6,0.7,-0.3,-0.007,-0.011,-0.002,1023
2018,5,17,20,42,19.281,0.0716,-0.3521,-0.0358,0.9325,1.7,0,-0.1,-0.008,0.004,0.001,1023
2018,5,17,20,42,19.3,0.0717,-0.352,-0.0353,0.9325,0.9,0,0,-0.007,0.013,0.003,1023
2018,5,17,20,42,19.323,0.0717,-0.352,-0.0352,0.9325,-0.9,0,0,-0.007,0.01,0,1023
2018,5,17,20,42,19.341,0.0716,-0.3519,-0.0354,0.9325,-1.8,0,0,-0.006,-0.004,0.003,1023
2018,5,17,20,42,19.359,0.0715,-0.352,-0.036,0.9325,-1.3,-0.5,-0.2,-0.004,-0.011,-0.004,1023
2018,5,17,20,42,19.401,0.0714,-0.3521,-0.0362,0.9325,0.1,-0.8,-0.2,-0.006,-0.011,0.001,1023
2018,5,17,20,42,19.403,0.0715,-0.3521,-0.0363,0.9324,0,0,0,-0.003,-0.001,0.004,1023
2018,5,17,20,42,19.42,0.0715,-0.3521,-0.0362,0.9324,0.5,-0.1,0,-0.005,0.001,0.003,1023
2018,5,17,20,42,19.44,0.0716,-0.3521,-0.0361,0.9324,1.1,-0.4,0.2,-0.005,0.004,-0.001,1023
2018,5,17,20,42,19.476,0.0716,-0.3522,-0.0361,0.9324,0.9,-0.8,0.2,-0.004,0.006,-0.005,1023
2018,5,17,20,42,19.497,0.0717,-0.3523,-0.036,0.9324,0.8,-0.8,0.2,-0.001,0.004,-0.006,1023
2018,5,17,20,42,19.499,0.0718,-0.3524,-0.0357,0.9323,0.3,-0.7,0.1,-0.002,0.004,-0.007,1023
2018,5,17,20,42,19.535,0.0718,-0.3526,-0.0355,0.9323,0,-0.8,0,0.002,0.005,-0.017,1023
2018,5,17,20,42,19.559,0.0719,-0.3528,-0.0353,0.9322,0,0,0,0.003,0.001,-0.012,0
2018,5,17,20,42,19.564,0.0719,-0.3529,-0.0353,0.9322,0.2,0.3,0.5,0,0.001,-0.008,0
2018,5,17,20,42,19.58,0.072,-0.3528,-0.0353,0.9322,0.5,0.5,0.4,-0.001,0.001,0,0
2018,5,17,20,42,19.603,0.0721,-0.3527,-0.0352,0.9322,0,0,0,-0.005,0,0,0
2018,5,17,20,42,19.621,0.0721,-0.3527,-0.0353,0.9322,0,0,0,-0.005,0,-0.001,0
2018,5,17,20,42,19.644,0.0721,-0.3527,-0.0353,0.9322,0,0,0,0.001,-0.001,-0.01,0
2018,5,17,20,42,19.663,0.0721,-0.3527,-0.0353,0.9322,0,0,0,-0.001,-0.004,-0.009,0
2018,5,17,20,42,19.686,0.0721,-0.3527,-0.0354,0.9322,0,0,0,-0.002,-0.003,-0.006,0
2018,5,17,20,42,19.703,0.0721,-0.3528,-0.0354,0.9322,-0.2,0.5,0,0,0,-0.001,0
2018,5,17,20,42,19.72,0.0721,-0.3528,-0.0354,0.9322,-0.5,0.3,0,0.001,0.003,-0.007,0
2018,5,17,20,42,19.742,0.0721,-0.3527,-0.0356,0.9322,-0.7,0.2,-0.3,-0.005,0,-0.005,0
2018,5,17,20,42,19.76,0.072,-0.3527,-0.0357,0.9322,-1,0.3,0,-0.005,0.003,-0.006,0
2018,5,17,20,42,19.783,0.0719,-0.3526,-0.0357,0.9322,-0.7,0.4,0,-0.003,-0.001,0,0
2018,5,17,20,42,19.82,0.0719,-0.3525,-0.0358,0.9323,0,0,0,-0.005,0,0,0
2018,5,17,20,42,19.842,0.072,-0.3525,-0.0359,0.9323,0.6,0,0,-0.006,0.001,-0.006,0
2018,5,17,20,42,19.847,0.072,-0.3525,-0.0358,0.9323,0,0,0,0,0.005,-0.008,0
2018,5,17,20,42,19.864,0.072,-0.3525,-0.0359,0.9323,-0.7,0.7,0.2,0.001,0.006,-0.008,0
2018,5,17,20,42,19.887,0.0719,-0.3524,-0.0363,0.9323,-1.5,0.9,0,-0.002,-0.002,-0.003,0
2018,5,17,20,42,19.904,0.0718,-0.3523,-0.0364,0.9323,-1.4,0.6,0,0.003,-0.009,0,0
2018,5,17,20,42,19.927,0.0718,-0.3522,-0.0365,0.9324,-0.2,0.9,-0.2,0.006,-0.011,0,0
2018,5,17,20,42,19.943,0.0719,-0.3521,-0.0364,0.9324,0.8,1.1,-0.1,-0.001,-0.005,0.003,0
2018,5,17,20,42,19.962,0.0719,-0.3519,-0.0362,0.9325,1.4,1,0,-0.007,0.003,-0.001,0
2018,5,17,20,42,19.985,0.072,-0.3516,-0.0358,0.9326,1.3,1,0,-0.01,0.006,-0.006,0
2018,5,17,20,42,20.004,0.0721,-0.3514,-0.0356,0.9327,0.3,0.6,0,-0.009,0.005,-0.006,0
2018,5,17,20,42,20.022,0.0721,-0.3514,-0.0356,0.9327,-0.8,0.3,-0.1,-0.002,0.01,-0.004,0
2018,5,17,20,42,20.045,0.0719,-0.3513,-0.0361,0.9327,-1.3,0.5,-0.2,-0.001,0.005,-0.009,0
2018,5,17,20,42,20.083,0.0718,-0.3513,-0.0363,0.9327,-1.3,0.8,0,-0.001,-0.001,-0.005,1023
2018,5,17,20,42,20.107,0.0717,-0.3511,-0.0366,0.9328,-1,0.6,0,-0.005,-0.004,-0.001,1023
2018,5,17,20,42,20.111,0.0717,-0.3511,-0.0366,0.9328,-0.3,0.5,-0.1,-0.001,-0.004,0,1023
2018,5,17,20,42,20.127,0.0717,-0.351,-0.0367,0.9328,0,0.5,-0.2,-0.002,-0.005,-0.003,1023
2018,5,17,20,42,20.163,0.0717,-0.3509,-0.0368,0.9329,0.5,0.8,-0.1,-0.005,0,-0.004,1023
2018,5,17,20,42,20.163,0.0717,-0.3507,-0.0369,0.9329,0.5,0.7,0,-0.011,0.003,0.001,1023
2018,5,17,20,42,20.186,0.0717,-0.3505,-0.037,0.933,0,0,0,-0.014,0.007,0,1023
2018,5,17,20,42,20.204,0.0717,-0.3505,-0.0369,0.933,-0.6,0,0,-0.001,0.003,-0.005,1023
2018,5,17,20,42,20.227,0.0715,-0.3505,-0.0372,0.933,-1.3,0.2,-0.1,-0.001,0.003,-0.006,1023
2018,5,17,20,42,20.243,0.0714,-0.3505,-0.0374,0.933,-1.4,0.2,0,-0.007,-0.003,-0.009,1023
2018,5,17,20,42,20.267,0.0714,-0.3504,-0.0377,0.933,-0.8,0.3,0.2,-0.006,-0.001,-0.003,1023
2018,5,17,20,42,20.285,0.0714,-0.3503,-0.0378,0.9331,0,0,0,-0.005,-0.003,0,1023
2018,5,17,20,42,20.307,0.0714,-0.3503,-0.0378,0.9331,0,0,0,0.001,-0.001,0.006,1023
2018,5,17,20,42,20.343,0.0714,-0.3503,-0.0379,0.9331,0,0,0,0.001,-0.005,-0.003,1023
2018,5,17,20,42,20.366,0.0714,-0.3503,-0.0379,0.9331,0,0,0,0,-0.003,-0.006,1023
2018,5,17,20,42,20.371,0.0714,-0.3503,-0.0379,0.9331,0.5,0.5,0,0,0.002,-0.005,1023
2018,5,17,20,42,20.387,0.0715,-0.3502,-0.0378,0.9331,0.8,0.5,0,-0.001,0.002,-0.004,1023
2018,5,17,20,42,20.409,0.0715,-0.3502,-0.0376,0.9331,0,0,0,-0.005,0.003,-0.004,1023
2018,5,17,20,42,20.447,0.0715,-0.3502,-0.0376,0.9331,0,0,0,-0.003,0.005,-0.005,1023
2018,5,17,20,42,20.469,0.0715,-0.3502,-0.0376,0.9331,-0.7,0,0,-0.003,0.006,-0.005,0
2018,5,17,20,42,20.474,0.0714,-0.3501,-0.0378,0.9332,-1.2,0.3,0,-0.006,-0.002,-0.001,0
2018,5,17,20,42,20.488,0.0714,-0.35,-0.0381,0.9332,0,0,0,-0.006,-0.006,0,0
2018,5,17,20,42,20.506,0.0714,-0.3499,-0.0382,0.9332,0,0,0,-0.003,-0.005,-0.001,0
2018,5,17,20,42,20.528,0.0715,-0.35,-0.0382,0.9332,0,0,0,0,-0.001,-0.007,0
2018,5,17,20,42,20.549,0.0715,-0.3499,-0.0382,0.9332,0,0,0,-0.004,0.001,0,0
2018,5,17,20,42,20.586,0.0715,-0.3499,-0.0381,0.9332,0,0,0,-0.003,0,-0.002,0
2018,5,17,20,42,20.609,0.0715,-0.3499,-0.0381,0.9332,0,0,0,-0.002,-0.002,-0.003,0
2018,5,17,20,42,20.614,0.0715,-0.3499,-0.0381,0.9332,0,0,0,0,0.002,-0.008,0
2018,5,17,20,42,20.63,0.0715,-0.35,-0.0381,0.9332,0,0,0,0,0.001,-0.009,0
2018,5,17,20,42,20.653,0.0715,-0.3499,-0.0381,0.9332,0,0,0,-0.007,-0.002,-0.003,0
2018,5,17,20,42,20.671,0.0715,-0.3499,-0.0382,0.9332,0,0,0,-0.005,-0.001,0.002,0
2018,5,17,20,42,20.694,0.0715,-0.3498,-0.038,0.9332,0.6,0.4,-0.2,-0.003,0.003,-0.01,0
2018,5,17,20,42,20.71,0.0715,-0.3498,-0.038,0.9332,0,0,0,-0.006,0.009,-0.011,0
2018,5,17,20,42,20.728,0.0715,-0.3497,-0.038,0.9333,0,0,0,-0.004,0.004,0,0
2018,5,17,20,42,20.751,0.0715,-0.3497,-0.038,0.9333,0,0,0,-0.007,0.004,-0.002,0
2018,5,17,20,42,20.769,0.0714,-0.3497,-0.0381,0.9333,-0.9,0.4,0,0.001,0.003,-0.005,0
2018,5,17,20,42,20.792,0.0713,-0.3497,-0.0384,0.9333,-1.2,0.5,0,0.001,-0.004,-0.004,0
2018,5,17,20,42,20.812,0.0713,-0.3496,-0.0388,0.9333,-0.9,1,0,-0.002,-0.01,0.001,0
2018,5,17,20,42,20.849,0.0712,-0.3494,-0.0392,0.9334,0.3,0.8,-0.1,-0.006,-0.01,0.002,0
2018,5,17,20,42,20.873,0.0713,-0.3492,-0.0391,0.9334,1.3,0.6,-0.1,-0.008,-0.002,0.003,0
2018,5,17,20,42,20.877,0.0714,-0.3491,-0.0386,0.9335,0.8,0.2,0.1,-0.008,0.008,0,0
2018,5,17,20,42,20.889,0.0714,-0.349,-0.0382,0.9335,0,0,0,-0.004,0.004,0.004,0
2018,5,17,20,42,20.907,0.0714,-0.349,-0.0382,0.9335,0,0,0,-0.006,0.003,-0.008,0
2018,5,17,20,42,20.93,0.0714,-0.349,-0.0382,0.9335,0,0,0,-0.008,-0.002,-0.01,0
2018,5,17,20,42,20.949,0.0714,-0.3491,-0.0382,0.9335,0,0,0,-0.006,0.001,-0.009,0
2018,5,17,20,42,20.971,0.0714,-0.349,-0.0382,0.9335,0,0,0,-0.004,0,0,1023
2018,5,17,20,42,20.989,0.0714,-0.349,-0.0382,0.9335,0,0,0,-0.007,-0.001,-0.001,1023
2018,5,17,20,42,21.012,0.0714,-0.3489,-0.0382,0.9336,0,0,0,-0.006,0.001,0,1023
2018,5,17,20,42,21.031,0.0714,-0.3489,-0.0382,0.9336,0,0,0,-0.006,0.001,-0.004,1023
2018,5,17,20,42,21.055,0.0714,-0.3489,-0.0382,0.9336,0,0,0,-0.005,0,0.001,1023
2018,5,17,20,42,21.072,0.0714,-0.3489,-0.0382,0.9336,0,0,0,0,0.001,-0.005,1023
2018,5,17,20,42,21.096,0.0714,-0.3489,-0.0382,0.9336,0,0,0,0,-0.007,-0.003,1023
2018,5,17,20,42,21.115,0.0715,-0.3489,-0.0382,0.9336,1.4,0,0,0.001,-0.007,-0.007,1023
2018,5,17,20,42,21.151,0.0716,-0.3489,-0.0378,0.9336,1.4,0.2,0,-0.006,0.003,0.004,1023
2018,5,17,20,42,21.174,0.0716,-0.3487,-0.0378,0.9336,0.6,0.1,-0.2,-0.011,0.006,0.002,1023
2018,5,17,20,42,21.179,0.0716,-0.3486,-0.0377,0.9337,0,0,0,-0.006,0.007,0.001,1023
2018,5,17,20,42,21.193,0.0716,-0.3486,-0.0377,0.9337,0,0,0,-0.005,0,-0.002,0
2018,5,17,20,42,21.229,0.0716,-0.3486,-0.0377,0.9337,0,0,0,-0.005,0,-0.003,0
2018,5,17,20,42,21.252,0.0716,-0.3486,-0.0377,0.9337,0,0,0,-0.005,-0.004,-0.007,0
2018,5,17,20,42,21.257,0.0716,-0.3486,-0.0377,0.9337,0,0,0,-0.003,0,-0.003,0
2018,5,17,20,42,21.274,0.0716,-0.3486,-0.0377,0.9337,0,0,0,0,-0.002,0,0
2018,5,17,20,42,21.293,0.0716,-0.3486,-0.0377,0.9337,0,0,0,0,0,-0.006,0
2018,5,17,20,42,21.314,0.0716,-0.3486,-0.0378,0.9337,0,0,0,-0.008,0,-0.001,0
2018,5,17,20,42,21.353,0.0716,-0.3486,-0.0378,0.9337,0.6,0.2,0.2,-0.006,0,-0.004,0
2018,5,17,20,42,21.374,0.0717,-0.3485,-0.0376,0.9337,0.5,0,0,-0.005,0.002,-0.006,0
2018,5,17,20,42,21.378,0.0717,-0.3485,-0.0376,0.9337,0,0,0,-0.007,0.003,-0.002,0
2018,5,17,20,42,21.395,0.0717,-0.3485,-0.0375,0.9338,0,0,0,-0.005,0.003,-0.004,0
2018,5,17,20,42,21.413,0.0717,-0.3485,-0.0373,0.9337,-0.7,-0.1,0,-0.006,-0.002,-0.001,0
2018,5,17,20,42,21.436,0.0717,-0.3485,-0.0374,0.9337,0,0,0,-0.005,-0.004,-0.005,0
2018,5,17,20,42,21.454,0.0717,-0.3485,-0.0374,0.9338,0,0,0,-0.006,0,0.001,0
2018,5,17,20,42,21.493,0.0717,-0.3484,-0.0374,0.9338,0,0,0,-0.008,0.003,0,0
2018,5,17,20,42,21.493,0.0717,-0.3483,-0.0374,0.9338,0,0,0,-0.004,-0.002,0.001,0
2018,5,17,20,42,21.515,0.0717,-0.3484,-0.0374,0.9338,0,0,0,0.004,-0.007,-0.002,0
2018,5,17,20,42,21.534,0.0718,-0.3484,-0.0373,0.9338,1.3,0,0,0.001,-0.01,-0.008,0
2018,5,17,20,42,21.558,0.0719,-0.3484,-0.0371,0.9338,1.9,0,0,-0.001,-0.001,0,0
2018,5,17,20,42,21.577,0.0719,-0.3484,-0.0368,0.9338,1.6,0,0,-0.004,0.009,-0.001,0
2018,5,17,20,42,21.6,0.072,-0.3484,-0.0364,0.9338,1.1,0,-0.2,-0.005,0.01,0,0
2018,5,17,20,42,21.614,0.072,-0.3483,-0.0363,0.9338,0,0,0,-0.008,0.007,-0.011,0
2018,5,17,20,42,21.65,0.072,-0.3483,-0.0362,0.9338,0,0,0,-0.006,0.004,-0.006,0
2018,5,17,20,42,21.674,0.0719,-0.3483,-0.0362,0.9338,0,0,0,-0.006,0.003,-0.003,0
2018,5,17,20,42,21.678,0.0719,-0.3483,-0.0361,0.9338,-0.5,0,0,-0.001,0.004,-0.006,0
2018,5,17,20,42,21.697,0.0719,-0.3484,-0.036,0.9338,-1.4,0.3,0,0.003,0,-0.005,0
2018,5,17,20,42,21.717,0.0718,-0.3484,-0.0363,0.9338,-1.6,0.6,0,0.001,-0.007,-0.005,0
2018,5,17,20,42,21.734,0.0718,-0.3483,-0.0368,0.9338,-0.8,0.5,0,-0.002,-0.013,-0.006,0
2018,5,17,20,42,21.757,0.0718,-0.3483,-0.0369,0.9338,0.9,0.2,0,-0.003,-0.01,-0.003,0
2018,5,17,20,42,21.776,0.0719,-0.3482,-0.0367,0.9339,1.9,0.3,-0.2,-0.004,-0.004,-0.001,1023
2018,5,17,20,42,21.799,0.072,-0.3481,-0.0364,0.9339,1.7,0.3,-0.2,-0.007,0.007,-0.004,1023
2018,5,17,20,42,21.817,0.072,-0.348,-0.0361,0.934,0.8,0.3,-0.2,-0.006,0.012,-0.01,1023
2018,5,17,20,42,21.84,0.0719,-0.3479,-0.0361,0.934,-0.7,0.1,0,-0.006,0.011,-0.003,1023
2018,5,17,20,42,21.856,0.0718,-0.3479,-0.0363,0.934,-1.6,-0.2,-0.2,-0.001,0.005,-0.003,1023
2018,5,17,20,42,21.875,0.0717,-0.348,-0.0365,0.934,-1.6,0,-0.2,-0.004,-0.002,-0.006,1023
2018,5,17,20,42,21.897,0.0716,-0.348,-0.0367,0.934,-1,0.2,-0.1,-0.002,-0.006,-0.001,1023
2018,5,17,20,42,21.933,0.0716,-0.348,-0.0368,0.934,0,0,0,-0.004,-0.007,0.002,1023
2018,5,17,20,42,21.957,0.0717,-0.3479,-0.0369,0.934,0.6,0,0.2,-0.007,-0.001,0,1023
2018,5,17,20,42,21.961,0.0718,-0.3479,-0.0364,0.934,0.9,-0.2,0,-0.007,0.002,0,1023
2018,5,17,20,42,21.996,0.0718,-0.3479,-0.0363,0.934,0.5,0,-0.1,-0.002,0.006,-0.007,1023
2018,5,17,20,42,21.996,0.0718,-0.3479,-0.0363,0.934,0,0,0,-0.003,0.006,-0.004,1023
2018,5,17,20,42,22.019,0.0718,-0.3479,-0.0362,0.934,-1,-1,0,-0.011,0.009,0.004,1023
2018,5,17,20,42,22.057,0.0716,-0.3481,-0.0365,0.9339,-2.9,-3,-0.1,-0.029,-0.002,0.021,1023
2018,5,17,20,42,22.057,0.0717,-0.3484,-0.0368,0.9338,-0.4,-5.8,0.6,-0.033,-0.014,0.041,1023
2018,5,17,20,42,22.079,0.0721,-0.3489,-0.0366,0.9336,3,-6.7,1.4,-0.037,-0.008,0.042,1023
2018,5,17,20,42,22.118,0.0726,-0.3495,-0.0358,0.9334,3.5,-6.3,0.9,-0.034,-0.003,0.015,1023
2018,5,17,20,42,22.14,0.073,-0.3503,-0.0352,0.9331,2.1,-6.7,0,-0.026,0.003,-0.002,1023
2018,5,17,20,42,22.143,0.073,-0.3513,-0.0348,0.9327,0.6,-8.6,-1.3,-0.031,0.004,-0.006,1023
2018,5,17,20,42,22.18,0.0728,-0.3527,-0.0349,0.9322,-0.8,-11.6,-1.9,-0.031,0.012,0.005,1023
2018,5,17,20,42,22.203,0.0723,-0.3546,-0.0349,0.9315,-2.4,-14.5,-2.7,-0.027,0.015,0.021,1023
2018,5,17,20,42,22.208,0.0717,-0.3569,-0.035,0.9307,-5.1,-17,-2.7,-0.026,0.013,0.03,1023
2018,5,17,20,42,22.221,0.0712,-0.3595,-0.0354,0.9297,-4.7,-18.5,-1.3,-0.026,0.003,0.036,0
2018,5,17,20,42,22.242,0.0709,-0.362,-0.036,0.9287,-3.5,-18.9,-0.8,-0.05,-0.011,0.046,0
2018,5,17,20,42,22.261,0.0709,-0.3645,-0.0363,0.9277,-0.1,-20.2,-0.3,-0.067,-0.011,0.04,0
2018,5,17,20,42,22.284,0.071,-0.3674,-0.0361,0.9266,-3.8,-24.4,-0.4,-0.102,0.012,0,0
2018,5,17,20,42,22.303,0.0707,-0.371,-0.0366,0.9251,-9,-27.7,-0.5,-0.084,0.033,0.001,0
2018,5,17,20,42,22.321,0.0701,-0.3751,-0.038,0.9235,-12.7,-27.8,0,-0.052,0.037,0.019,0
2018,5,17,20,42,22.344,0.0695,-0.3794,-0.0397,0.9217,-12,-28.8,0.7,-0.062,0.016,-0.003,0
2018,5,17,20,42,22.362,0.0691,-0.3841,-0.0411,0.9197,-11.8,-33.3,1.2,-0.056,0.016,0.015,0
2018,5,17,20,42,22.385,0.0688,-0.3893,-0.0426,0.9175,-15,-36.3,2.7,-0.071,0.025,0.01,0
2018,5,17,20,42,22.401,0.0682,-0.3952,-0.0453,0.9149,-20.5,-40.5,3.2,-0.017,0.01,0.024,0
2018,5,17,20,42,22.419,0.0678,-0.4018,-0.0482,0.9119,-18.2,-43.8,4.7,-0.019,-0.012,0.027,0
2018,5,17,20,42,22.442,0.0683,-0.4086,-0.0502,0.9087,-7.3,-45.5,6.1,0.014,-0.044,0.034,0
2018,5,17,20,42,22.46,0.0696,-0.4157,-0.0509,0.9053,0,-44.8,4.9,-0.02,-0.027,-0.008,0
2018,5,17,20,42,22.483,0.0704,-0.4225,-0.0513,0.9021,-4.3,-44.6,1.9,-0.005,-0.004,0.012,0
2018,5,17,20,42,22.52,0.0705,-0.4298,-0.052,0.8986,-11.1,-45.2,1.6,-0.034,0.013,-0.04,0
2018,5,17,20,42,22.543,0.0699,-0.437,-0.0542,0.895,-21.1,-46,1.4,-0.051,0.042,-0.04,0
2018,5,17,20,42,22.547,0.0684,-0.4445,-0.0576,0.8912,-27.6,-45.7,-0.2,-0.083,0.029,-0.045,0
2018,5,17,20,42,22.562,0.0668,-0.4512,-0.0614,0.8877,-23.5,-44.1,0.9,-0.151,-0.018,-0.015,0
2018,5,17,20,42,22.585,0.0667,-0.4578,-0.064,0.8842,-10.2,-46.6,6.1,-0.229,-0.001,0.004,0
2018,5,17,20,42,22.623,0.068,-0.4655,-0.0653,0.88,-7.7,-54.7,9.4,-0.258,0.063,-0.023,1023
2018,5,17,20,42,22.623,0.0692,-0.4748,-0.0675,0.8747,-17,-66.6,9.4,-0.231,0.072,-0.02,1023
2018,5,17,20,42,22.646,0.0695,-0.4859,-0.0706,0.8683,-24.2,-77.2,7.9,-0.267,0.029,0.033,1023
2018,5,17,20,42,22.663,0.0698,-0.4986,-0.0742,0.8607,-22.8,-89,11.6,-0.37,-0.054,0.075,1023
2018,5,17,20,42,22.7,0.0727,-0.513,-0.077,0.8518,-0.7,-102.5,28,-0.475,-0.155,0.169,1023
2018,5,17,20,42,22.723,0.0825,-0.5276,-0.0762,0.842,45.2,-108.1,55.5,-0.641,-0.115,0.275,1023
2018,5,17,20,42,22.728,0.1005,-0.5423,-0.0716,0.831,81.1,-122.1,85.3,-0.819,0.083,0.348,1023
2018,5,17,20,42,22.744,0.1256,-0.5589,-0.066,0.8169,98.5,-152.5,117.1,-0.975,0.194,0.4,1023
2018,5,17,20,42,22.78,0.1565,-0.5794,-0.0601,0.7975,106.3,-196.6,143.7,-1.114,0.361,0.345,1023
2018,5,17,20,42,22.804,0.1897,-0.6058,-0.0564,0.7705,76.9,-253,161.3,-1.243,0.514,0.369,1023
2018,5,17,20,42,22.809,0.2193,-0.6396,-0.0596,0.7342,8.5,-308.8,175.9,-1.228,0.451,0.529,1023
2018,5,17,20,42,22.826,0.2459,-0.6795,-0.0688,0.6877,-7.6,-362.6,198.3,-1.285,0.18,0.43,1023
2018,5,17,20,42,22.848,0.2778,-0.721,-0.0759,0.6302,51.9,-420.2,230.9,-1.671,-0.202,0.012,1023
2018,5,17,20,42,22.885,0.323,-0.7589,-0.0737,0.5604,149.8,-475,263.1,-1.75,-0.357,-0.086,1023
2018,5,17,20,42,22.908,0.3787,-0.7888,-0.0659,0.4793,191.4,-499.1,294.6,-1.825,-0.475,0.12,1023
2018,5,17,20,42,22.913,0.433,-0.8112,-0.0582,0.3885,174.1,-525.4,308.1,-1.927,-0.587,0.125,1023
2018,5,17,20,42,22.931,0.4828,-0.825,-0.0495,0.2894,204.2,-532.5,313.2,-1.724,-0.732,-0.162,1023
2018,5,17,20,42,22.95,0.5318,-0.825,-0.0388,0.1869,227.7,-529.3,311.4,-1.48,-0.373,-0.343,1023
2018,5,17,20,42,22.966,0.573,-0.8148,-0.0259,0.0832,199.8,-528.5,292.3,-0.982,-0.506,-0.469,1023
2018,5,17,20,42,23.001,0.6007,-0.7991,-0.0093,-0.0178,147.1,-521,241,-0.656,-0.497,-0.317,1023
2018,5,17,20,42,23.024,0.6154,-0.7804,0.0179,-0.1082,98.1,-497.1,132.1,-0.373,-0.29,-0.079,1023
2018,5,17,20,42,23.029,0.6199,-0.7612,0.0576,-0.1812,59.2,-477.6,27.3,-0.768,-0.406,-0.136,1023
2018,5,17,20,42,23.066,0.627,-0.7332,0.1024,-0.2422,150.9,-416.1,-7.4,-0.576,-0.924,0.204,1023
2018,5,17,20,42,23.066,0.64,-0.695,0.1377,-0.2971,158.4,-411.4,40.3,-1.648,-1.016,-0.913,1023
2018,5,17,20,42,23.089,0.6142,-0.6894,0.2242,-0.3115,-604.3,-188,-420.6,4.899,-14.992,-7.004,0
2018,5,17,20,42,23.106,0.6217,-0.6783,0.2745,-0.2792,237.3,98.2,-414.6,0.636,0.669,0.698,0
2018,5,17,20,42,23.128,0.6368,-0.6683,0.3111,-0.2257,-112.4,77.7,-298.6,-4.697,-1.627,0.973,0
2018,5,17,20,42,23.149,0.65,-0.6547,0.3235,-0.2095,256.7,-141.2,-52.8,-2.727,0.932,-1.235,0
2018,5,17,20,42,23.171,0.6554,-0.6257,0.3527,-0.2332,-62.5,-222.8,-110,0.776,1.043,-0.825,0
2018,5,17,20,42,23.207,0.6273,-0.6323,0.3909,-0.2318,-155.1,-163.3,-59.1,-0.202,0.428,-0.756,0
2018,5,17,20,42,23.207,0.6223,-0.6244,0.4053,-0.2417,100.2,-60.4,12.8,-0.592,0.841,-0.297,0
2018,5,17,20,42,23.23,0.6152,-0.6275,0.4056,-0.2511,-157.7,-11.3,83.1,1.031,-0.048,0.055,0
2018,5,17,20,42,23.248,0.5827,-0.6571,0.4101,-0.2455,-259.9,-63.9,60.3,1.946,-0.137,0.426,0
2018,5,17,20,42,23.285,0.5478,-0.6799,0.4236,-0.2409,-214,-87.4,-15.1,0.396,-0.366,-0.179,0
2018,5,17,20,42,23.309,0.528,-0.6879,0.4376,-0.2374,-74.6,-48.6,-13.2,-0.103,-0.076,0.303,0
2018,5,17,20,42,23.313,0.5107,-0.6935,0.446,-0.243,-96.9,-122.2,50.2,-0.722,-0.352,-0.492,0
2018,5,17,20,42,23.346,0.4961,-0.6984,0.4547,-0.2433,-81.1,-53,-0.3,-0.355,0,-0.084,0
2018,5,17,20,42,23.369,0.4782,-0.7073,0.461,-0.2418,-131,-32.4,31,-0.17,0.165,-0.017,0
2018,5,17,20,42,23.374,0.4576,-0.7212,0.4631,-0.2362,-144.5,-1.1,37.1,0.249,-0.32,0.174,0
2018,5,17,20,42,23.39,0.4456,-0.7323,0.4623,-0.2262,-38.7,44.7,25.7,0.007,0.027,-0.507,0
2018,5,17,20,42,23.413,0.4515,-0.7326,0.455,-0.2285,87,0.8,28,-0.1,0.106,-0.042,0
2018,5,17,20,42,23.429,0.458,-0.7276,0.4522,-0.237,37.8,-33.5,-4.8,-0.328,0.056,0.157,0
2018,5,17,20,42,23.447,0.4574,-0.7234,0.4573,-0.2411,-0.2,-33.2,-27.8,-0.197,0.05,-0.017,1023
2018,5,17,20,42,23.47,0.4555,-0.7208,0.4628,-0.2422,2.7,-16.3,-12.5,0.084,0.004,-0.085,1023
2018,5,17,20,42,23.489,0.4559,-0.7205,0.4631,-0.2418,-2.2,11.7,5.2,0.014,-0.017,0.103,1023
2018,5,17,20,42,23.512,0.4569,-0.722,0.4608,-0.2398,12.2,31.1,5.5,-0.151,0.147,-0.059,1023
2018,5,17,20,42,23.549,0.4589,-0.7227,0.4592,-0.2369,-7.5,13.9,-10.9,-0.045,0.022,-0.085,1023
2018,5,17,20,42,23.549,0.4596,-0.7221,0.4606,-0.2348,-8.8,-0.4,-19.3,-0.052,-0.099,0.131,1023
2018,5,17,20,42,23.572,0.4601,-0.7207,0.463,-0.2331,-5.1,9.3,-17.3,-0.014,-0.105,0.067,1023
2018,5,17,20,42,23.59,0.4626,-0.72,0.4633,-0.2295,-9,29.2,-15.7,0.115,-0.031,-0.009,1023
2018,5,17,20,42,23.613,0.4645,-0.7218,0.4621,-0.2228,-4.5,40.4,-4.9,-0.011,0.048,-0.152,1023
2018,5,17,20,42,23.649,0.467,-0.7226,0.4605,-0.2181,5,23.8,-11.6,-0.037,-0.038,0.007,1023
2018,5,17,20,42,23.672,0.4707,-0.7212,0.4596,-0.2164,23.6,14.5,-11.4,-0.093,0.063,0.144,1023
2018,5,17,20,42,23.677,0.4753,-0.7189,0.4581,-0.2173,22.5,7.8,-4.9,0.063,0.11,0.011,1023
2018,5,17,20,42,23.711,0.4797,-0.7171,0.456,-0.2179,25.9,17.6,3.3,0.093,0.043,-0.044,1023
2018,5,17,20,42,23.734,0.4841,-0.7164,0.4533,-0.2162,12.7,26.4,0.1,-0.002,-0.037,-0.025,1023
2018,5,17,20,42,23.739,0.4887,-0.7162,0.4494,-0.2147,17.2,26,7.9,0.006,0.042,0.059,1023
2018,5,17,20,42,23.753,0.4916,-0.7163,0.4467,-0.2136,8.7,10.1,3.5,0.051,0.018,-0.016,1023
2018,5,17,20,42,23.77,0.4931,-0.7159,0.4455,-0.2139,8.1,2.7,5.5,0.014,0,0.019,1023
2018,5,17,20,42,23.793,0.4939,-0.716,0.4441,-0.2146,4.7,2.5,9.1,0.013,0.007,0.009,1023
2018,5,17,20,42,23.814,0.4944,-0.7165,0.4424,-0.2154,2.7,3.8,10.4,-0.003,0.007,0.033,1023
2018,5,17,20,42,23.85,0.4945,-0.7172,0.4408,-0.216,-1.5,2.2,7.3,-0.011,0.007,0.034,0
2018,5,17,20,42,23.873,0.4943,-0.7177,0.44,-0.2163,1.7,0.4,3.6,0,0.007,0.01,0
2018,5,17,20,42,23.878,0.4945,-0.7177,0.4395,-0.2168,2.2,0.2,2.7,0.008,0,0.015,0
2018,5,17,20,42,23.896,0.4948,-0.7177,0.439,-0.2172,1.5,-0.2,3.4,0,0.011,0.035,0
2018,5,17,20,42,23.914,0.4947,-0.7179,0.4386,-0.2176,-4,-1.9,1.2,-0.008,0.01,0.038,0
2018,5,17,20,42,23.937,0.4937,-0.7182,0.4391,-0.2176,-6.6,-4.3,-1.3,0.008,0.006,0.014,0
2018,5,17,20,42,23.957,0.4927,-0.7185,0.4398,-0.2178,-3,-4.7,3.2,0.02,-0.002,-0.01,0
2018,5,17,20,42,23.993,0.4921,-0.7188,0.4394,-0.2187,0.1,-4.7,8.6,0.011,0.003,0.017,0
2018,5,17,20,42,23.993,0.4913,-0.7194,0.4386,-0.2201,-2.5,-4,8.7,-0.01,0.009,0.031,0
2018,5,17,20,42,24.015,0.4904,-0.7201,0.4382,-0.221,-3.9,-3.3,4.6,-0.007,-0.002,0.006,0
2018,5,17,20,42,24.034,0.4895,-0.7205,0.4382,-0.2214,-4.1,-3.6,1.6,-0.007,-0.004,0.014,0
2018,5,17,20,42,24.073,0.4887,-0.7208,0.4385,-0.2218,-3.1,-3.3,0.6,0,0.001,0.014,0
2018,5,17,20,42,24.094,0.4881,-0.7209,0.4388,-0.222,-5.4,-2.4,0,-0.008,0.006,0.03,0
2018,5,17,20,42,24.098,0.4872,-0.7213,0.4393,-0.2216,-8.6,-0.8,-2.6,0.001,0,0.008,0
2018,5,17,20,42,24.116,0.4863,-0.7218,0.4401,-0.2208,-8.6,-1,-3.1,0.003,0.006,0.016,0
2018,5,17,20,42,24.139,0.4851,-0.7222,0.4409,-0.2201,-10,-2.7,-3,0,0.004,0.012,0
2018,5,17,20,42,24.158,0.4837,-0.7227,0.442,-0.2195,-10.5,-4.9,-3.1,0.002,0.003,-0.004,0
2018,5,17,20,42,24.196,0.4822,-0.723,0.4433,-0.2193,-6.9,-6.6,-2.8,0.001,0.004,0.002,0
2018,5,17,20,42,24.196,0.481,-0.723,0.4444,-0.2196,-7,-8.3,-2.1,0.005,0.006,0.014,0
2018,5,17,20,42,24.218,0.4794,-0.7232,0.4456,-0.22,-8.6,-8.8,-1.1,0.004,0.001,0.013,0
2018,5,17,20,42,24.238,0.4775,-0.7236,0.4468,-0.2202,-12,-8.9,-0.8,-0.007,0.001,0.009,1023
2018,5,17,20,42,24.255,0.4753,-0.7243,0.4482,-0.2201,-15.5,-8.2,-1,0,0.005,0.011,1023
2018,5,17,20,42,24.278,0.4728,-0.7251,0.4496,-0.2199,-13.3,-7.7,-1.1,0.003,0.008,-0.006,1023
2018,5,17,20,42,24.296,0.4707,-0.7258,0.4507,-0.2197,-12.7,-5.5,-0.2,0.006,0,0.008,1023
2018,5,17,20,42,24.319,0.4687,-0.7266,0.4516,-0.2195,-14.4,-6.1,0.7,0.011,0,0.008,1023
2018,5,17,20,42,24.336,0.4667,-0.7275,0.4524,-0.2191,-14.1,-3.9,0.7,0.008,0.003,0.021,1023
2018,5,17,20,42,24.357,0.4646,-0.7288,0.453,-0.2182,-19,-1,2,0.002,0.014,0.016,1023
2018,5,17,20,42,24.396,0.4619,-0.7305,0.4536,-0.217,-21,-0.8,1.7,-0.003,0.008,0.015,1023
2018,5,17,20,42,24.418,0.4591,-0.7322,0.4543,-0.2156,-22.4,-1.9,0.3,0.003,0.022,0.007,1023
2018,5,17,20,42,24.43,0.4564,-0.7337,0.4553,-0.2143,-21.1,-2.1,0.8,-0.002,0.005,0.021,1023
2018,5,17,20,42,24.464,0.4537,-0.735,0.4563,-0.2131,-18.1,-2.9,-1.3,-0.001,0.007,0.009,1023
2018,5,17,20,42,24.466,0.4512,-0.7363,0.4574,-0.2119,-17.9,-2.5,-1.8,0.002,0.002,0.001,1023
2018,5,17,20,42,24.481,0.4491,-0.7373,0.4583,-0.2108,-14.7,-1.5,-0.7,0.003,0.003,0.008,1023
2018,5,17,20,42,24.519,0.4473,-0.7383,0.4589,-0.2099,-11.9,-1.2,-0.1,0,0,0.005,1023
2018,5,17,20,42,24.519,0.4457,-0.7392,0.4594,-0.2091,-10.5,-1.6,0.4,-0.002,0.005,-0.004,1023
2018,5,17,20,42,24.543,0.4445,-0.7398,0.4598,-0.2087,-5.7,-1,0.5,-0.001,0.007,0.005,1023
2018,5,17,20,42,24.561,0.4438,-0.7401,0.46,-0.2085,-4.5,-0.5,0.5,0,0.006,0.01,1023
2018,5,17,20,42,24.579,0.4432,-0.7405,0.4601,-0.2082,-4.8,-0.5,0.6,-0.004,0.003,0.007,1023
2018,5,17,20,42,24.615,0.4425,-0.7409,0.4602,-0.208,-5.2,-0.7,0,-0.002,0.004,0.008,1023
2018,5,17,20,42,24.638,0.4418,-0.7413,0.4604,-0.2076,-4.6,-0.5,-0.3,-0.001,0.002,0.003,0
2018,5,17,20,42,24.643,0.4413,-0.7415,0.4606,-0.2074,-2.9,0,0,0.002,0.007,0.008,0
2018,5,17,20,42,24.68,0.441,-0.7417,0.4607,-0.2072,-1.8,-0.2,0.1,0.001,0.002,0.005,0
2018,5,17,20,42,24.68,0.4408,-0.7418,0.4608,-0.2071,-1.1,-0.3,-0.2,0,0.003,0.011,0
2018,5,17,20,42,24.702,0.4407,-0.7418,0.4608,-0.2071,0,0,0,0,0.004,0.006,0
2018,5,17,20,42,24.739,0.4408,-0.7418,0.4609,-0.2071,0.2,0.2,-0.5,0,0.006,0.011,0
2018,5,17,20,42,24.763,0.4408,-0.7418,0.4609,-0.2071,-0.3,0,-0.5,0,0.005,0.007,0
2018,5,17,20,42,24.766,0.4408,-0.7417,0.4609,-0.207,0,0,0,0.002,0.004,0.003,0
2018,5,17,20,42,24.78,0.4408,-0.7417,0.461,-0.207,-0.7,0,-0.2,0,0.003,0.007,0
2018,5,17,20,42,24.8,0.4408,-0.7417,0.461,-0.207,0,0,0,0,0.002,0.01,0
2018,5,17,20,42,24.823,0.4408,-0.7417,0.461,-0.207,0,0,0,-0.001,0.006,0.011,0
2018,5,17,20,42,24.843,0.4408,-0.7417,0.461,-0.207,0,0,0,0,0.003,0.008,0
2018,5,17,20,42,24.879,0.4409,-0.7417,0.461,-0.207,0.6,0,0,0,0.006,0.008,0
2018,5,17,20,42,24.901,0.441,-0.7416,0.4609,-0.2071,1.3,0.3,-0.1,0.004,0.005,0.007,0
2018,5,17,20,42,24.906,0.4413,-0.7415,0.4608,-0.2072,1.9,0.2,-0.3,-0.001,0.006,0.008,0
2018,5,17,20,42,24.94,0.4415,-0.7413,0.4608,-0.2073,0.9,0,-0.2,0,0.005,0.008,0
2018,5,17,20,42,24.94,0.4416,-0.7413,0.4608,-0.2073,0,0,0,-0.001,0.007,0.009,0
2018,5,17,20,42,24.965,0.4416,-0.7412,0.4609,-0.2073,-0.5,-0.2,-0.5,0,0.006,0.011,0
2018,5,17,20,42,24.981,0.4415,-0.7412,0.461,-0.2073,-1.1,-0.1,-0.3,0.001,0.006,0.008,0
2018,5,17,20,42,25.018,0.4413,-0.7413,0.4611,-0.2072,-1,-0.3,-0.1,0.001,0.007,0.005,0
2018,5,17,20,42,25.018,0.4411,-0.7414,0.4612,-0.2071,-1.5,-0.2,-0.1,0.002,0.003,0.004,0
2018,5,17,20,42,25.041,0.441,-0.7414,0.4612,-0.2071,-0.5,-0.2,0,0,0.005,0.007,1023
2018,5,17,20,42,25.079,0.441,-0.7414,0.4612,-0.2071,0,0,0,0,0.006,0.004,1023
2018,5,17,20,42,25.102,0.4411,-0.7414,0.4612,-0.2071,0,0,0,0,0.007,0.005,1023
2018,5,17,20,42,25.106,0.4411,-0.7414,0.4612,-0.2072,0,0,0,0,0.005,0.008,1023
2018,5,17,20,42,25.122,0.4411,-0.7414,0.4612,-0.2072,0.5,0,-0.3,0,0.006,0.008,1023
2018,5,17,20,42,25.145,0.4412,-0.7413,0.4612,-0.2072,0,0,0,0,0.001,0.004,1023
2018,5,17,20,42,25.164,0.4412,-0.7413,0.4612,-0.2072,0,0,0,0.001,0.005,0.005,1023
2018,5,17,20,42,25.186,0.4412,-0.7413,0.4612,-0.2073,0,0,0,0,0.005,0.007,1023
2018,5,17,20,42,25.204,0.4412,-0.7413,0.4612,-0.2073,0,0,0,-0.001,0.005,0.004,1023
2018,5,17,20,42,25.227,0.4412,-0.7413,0.4612,-0.2073,0,0,0,0,0.006,0.006,1023
2018,5,17,20,42,25.245,0.4412,-0.7413,0.4612,-0.2073,-0.5,-0.1,-0.3,-0.002,0.007,0.011,1023
2018,5,17,20,42,25.269,0.4412,-0.7413,0.4613,-0.2072,-1.2,-0.1,-0.3,0.002,0.005,0.003,1023
2018,5,17,20,42,25.284,0.441,-0.7413,0.4614,-0.207,-1.8,0,-0.3,0.002,0.005,0.011,1023
2018,5,17,20,42,25.303,0.4408,-0.7414,0.4615,-0.2069,-1.5,0,-0.3,0,0.007,0,1023
2018,5,17,20,42,25.327,0.4406,-0.7415,0.4616,-0.2068,-0.8,-0.2,-0.2,-0.002,0.005,0.002,1023
2018,5,17,20,42,25.344,0.4405,-0.7416,0.4617,-0.2067,-0.8,-0.3,0,-0.001,0.004,0.008,1023
2018,5,17,20,42,25.366,0.4404,-0.7416,0.4617,-0.2066,-0.7,-0.2,0,0.001,0.009,0.006,1023
2018,5,17,20,42,25.386,0.4403,-0.7417,0.4617,-0.2066,-0.7,-0.1,0,-0.001,0.006,0.006,1023
2018,5,17,20,42,25.409,0.4403,-0.7417,0.4617,-0.2066,0,0,0,0.002,0.004,0.004,1023
2018,5,17,20,42,25.428,0.4402,-0.7417,0.4618,-0.2066,0,0,0,-0.001,0.002,0.002,0
2018,5,17,20,42,25.445,0.4402,-0.7417,0.4618,-0.2065,-0.6,0,-0.2,0,0.006,0.002,0
2018,5,17,20,42,25.47,0.4401,-0.7417,0.4618,-0.2065,-0.5,-0.1,0,0.001,0.005,0.003,0
2018,5,17,20,42,25.506,0.4401,-0.7418,0.4618,-0.2065,0,0,0,-0.001,0.005,0.008,0
2018,5,17,20,42,25.529,0.4401,-0.7418,0.4618,-0.2065,0,0,0,-0.001,0.004,0.002,0
2018,5,17,20,42,25.534,0.4401,-0.7418,0.4618,-0.2065,0,0,0,0,0.005,0.004,0
2018,5,17,20,42,25.547,0.4401,-0.7417,0.4618,-0.2065,0,0,0,0,0.007,0.007,0
2018,5,17,20,42,25.584,0.4401,-0.7417,0.4618,-0.2065,0,0,0,0,0.007,0.003,0
2018,5,17,20,42,25.607,0.4401,-0.7417,0.4618,-0.2065,0,0,0,0,0.004,0.002,0
2018,5,17,20,42,25.612,0.4401,-0.7418,0.4618,-0.2065,0,0,0,0,0.008,0.004,0
2018,5,17,20,42,25.646,0.4401,-0.7418,0.4618,-0.2066,0,0,0,0.001,0.008,0.002,0
2018,5,17,20,42,25.67,0.4401,-0.7417,0.4618,-0.2066,0,0,0,-0.002,0.008,0.005,0
2018,5,17,20,42,25.674,0.4401,-0.7417,0.4618,-0.2066,0,0,0,0,0.008,0.008,0
2018,5,17,20,42,25.689,0.4401,-0.7417,0.4618,-0.2066,0,0,0,-0.002,0.004,0.003,0
2018,5,17,20,42,25.708,0.4401,-0.7417,0.4618,-0.2066,0,0,0,-0.002,0.005,0.003,0
2018,5,17,20,42,25.731,0.4401,-0.7417,0.4618,-0.2066,0,0,0,0,0.005,0.004,0
2018,5,17,20,42,25.747,0.4401,-0.7417,0.4618,-0.2066,0,0,0,-0.001,0.005,0.006,0
2018,5,17,20,42,25.784,0.4402,-0.7417,0.4618,-0.2066,0,0,0,0,0.003,0.004,0
2018,5,17,20,42,25.807,0.4402,-0.7417,0.4618,-0.2066,0,0,0,0,0.006,0.001,0
2018,5,17,20,42,25.811,0.4402,-0.7417,0.4618,-0.2066,0,0,0,0,0.005,0.003,0
2018,5,17,20,42,25.829,0.4402,-0.7417,0.4618,-0.2066,-0.7,0,0,-0.002,0.005,0.004,1023
2018,5,17,20,42,25.847,0.4401,-0.7417,0.4618,-0.2066,0,0,0,0,0.004,0.006,1023
2018,5,17,20,42,25.869,0.4401,-0.7417,0.4618,-0.2066,0,0,0,0,0.005,0.006,1023
2018,5,17,20,42,25.906,0.4401,-0.7417,0.4618,-0.2066,0,0,0,-0.003,0.006,0.004,1023
2018,5,17,20,42,25.93,0.4401,-0.7418,0.4618,-0.2066,0,0,0,0.001,0.003,0.004,1023
2018,5,17,20,42,25.934,0.4401,-0.7418,0.4618,-0.2066,0,0,0,0,0.006,0.004,1023
2018,5,17,20,42,25.952,0.4401,-0.7418,0.4618,-0.2067,0,0,0,0,0.007,0.004,1023
2018,5,17,20,42,25.975,0.4401,-0.7418,0.4618,-0.2067,0,0,0,0,0.005,0.004,1023
2018,5,17,20,42,25.991,0.4401,-0.7418,0.4618,-0.2067,0,0,0,0,0.005,0.007,1023
2018,5,17,20,42,26.013,0.4401,-0.7418,0.4618,-0.2067,0,0,0,0,0.006,0.002,1023
2018,5,17,20,42,26.031,0.4401,-0.7418,0.4617,-0.2067,0,0,0,0,0.004,0.002,1023
2018,5,17,20,42,26.054,0.4401,-0.7418,0.4617,-0.2067,0,0,0,0,0.004,0.007,1023
2018,5,17,20,42,26.069,0.4401,-0.7418,0.4617,-0.2067,0,0,0,0,0.008,0.002,1023
2018,5,17,20,42,26.093,0.4401,-0.7418,0.4617,-0.2067,0,0,0,0,0.006,0.002,1023
2018,5,17,20,42,26.109,0.4401,-0.7418,0.4617,-0.2067,0,0,0,-0.001,0.009,0.004,1023
2018,5,17,20,42,26.132,0.4401,-0.7418,0.4617,-0.2067,0,0,0,-0.003,0.005,0.005,1023
2018,5,17,20,42,26.15,0.44,-0.7418,0.4617,-0.2067,0,0,0,0.001,0.006,0.005,1023
2018,5,17,20,42,26.171,0.4401,-0.7418,0.4617,-0.2067,0,0,0,0,0.006,0.01,0
2018,5,17,20,42,26.21,0.44,-0.7418,0.4618,-0.2067,-0.5,0,0,-0.001,0.006,0.007,0
2018,5,17,20,42,26.233,0.4399,-0.7418,0.4618,-0.2066,-0.5,0,0,0.004,0.007,0.004,0
2018,5,17,20,42,26.238,0.4398,-0.7419,0.4619,-0.2066,0,0,0,-0.002,0.006,0.004,0
2018,5,17,20,42,26.253,0.4398,-0.7419,0.4619,-0.2065,-0.5,0,0,-0.001,0.007,0.002,0
2018,5,17,20,42,26.274,0.4398,-0.7419,0.4619,-0.2065,0,0,0,0,0.008,0.004,0
2018,5,17,20,42,26.294,0.4398,-0.7419,0.4619,-0.2065,-0.5,0,0.2,-0.001,0.008,0.004,0
2018,5,17,20,42,26.312,0.4397,-0.7419,0.4619,-0.2065,-0.5,0,0,0,0.005,0.003,0
2018,5,17,20,42,26.335,0.4396,-0.742,0.4619,-0.2065,0,0,0,0.001,0.007,0.006,0
2018,5,17,20,42,26.351,0.4396,-0.742,0.4619,-0.2064,0,0,0,0,0.009,0.005,0
2018,5,17,20,42,26.374,0.4396,-0.742,0.4619,-0.2065,0,0,0,-0.002,0.006,0.003,0
2018,5,17,20,42,26.392,0.4396,-0.742,0.4619,-0.2064,0,0,0,0,0.009,0.005,0
2018,5,17,20,42,26.415,0.4396,-0.742,0.4619,-0.2064,0,0,0,-0.002,0.005,0.002,0
2018,5,17,20,42,26.433,0.4395,-0.742,0.462,-0.2064,0,0,0,-0.002,0.007,0.003,0
2018,5,17,20,42,26.455,0.4395,-0.7421,0.462,-0.2064,0,0,0,0.001,0.007,0.004,0
2018,5,17,20,42,26.492,0.4395,-0.7421,0.462,-0.2064,0,0,0,0,0.002,0.003,0
2018,5,17,20,42,26.515,0.4395,-0.7421,0.462,-0.2064,0,0,0,0,0.01,0.005,0
2018,5,17,20,42,26.52,0.4394,-0.7421,0.462,-0.2064,0,0,0,-0.001,0.009,0.004,0
2018,5,17,20,42,26.533,0.4394,-0.7421,0.462,-0.2064,0,0,0,0,0.009,0,0
2018,5,17,20,42,26.552,0.4394,-0.7421,0.462,-0.2064,0,0,0,-0.001,0.006,0,0
2018,5,17,20,42,26.575,0.4394,-0.7421,0.462,-0.2064,0,0,0,-0.001,0.006,0.004,0
2018,5,17,20,42,26.593,0.4394,-0.7421,0.462,-0.2064,0,0,0,-0.002,0.007,0.004,0
2018,5,17,20,42,26.617,0.4394,-0.7421,0.462,-0.2064,0,0,0,-0.002,0.005,0.001,1023
2018,5,17,20,42,26.634,0.4393,-0.7422,0.462,-0.2064,-0.6,-0.1,0,-0.004,0.012,0.003,1023
2018,5,17,20,42,26.657,0.4392,-0.7422,0.462,-0.2063,0,0,0,-0.002,0.006,0,1023
2018,5,17,20,42,26.675,0.4392,-0.7422,0.462,-0.2063,0,0,0,-0.003,0.009,0.004,1023
2018,5,17,20,42,26.699,0.4392,-0.7422,0.462,-0.2063,0,0,0,-0.001,0.007,0.002,1023
2018,5,17,20,42,26.718,0.4392,-0.7422,0.462,-0.2063,0,0,0,-0.003,0.007,0,1023
2018,5,17,20,42,26.736,0.4392,-0.7422,0.462,-0.2063,0,0,0,-0.002,0.005,0.005,1023
2018,5,17,20,42,26.757,0.4391,-0.7422,0.462,-0.2063,0,0,0,-0.001,0.008,0.001,1023
2018,5,17,20,42,26.795,0.4391,-0.7422,0.462,-0.2063,0,0,0,0,0.007,0.005,1023
2018,5,17,20,42,26.795,0.4391,-0.7422,0.462,-0.2063,0,0,0,-0.001,0.005,0.002,1023
2018,5,17,20,42,26.818,0.4391,-0.7423,0.462,-0.2063,0,0,0,0,0.009,0.006,1023
2018,5,17,20,42,26.837,0.4391,-0.7423,0.462,-0.2063,0,0,0,0,0.007,0.004,1023
2018,5,17,20,42,26.855,0.4391,-0.7423,0.4621,-0.2063,0,0,0,0,0.007,0.002,1023
2018,5,17,20,42,26.878,0.4391,-0.7423,0.4621,-0.2063,0,0,0,-0.001,0.007,0.006,1023
2018,5,17,20,42,26.897,0.4391,-0.7423,0.4621,-0.2063,0,0,0,-0.001,0.009,0.002,1023
2018,5,17,20,42,26.92,0.4391,-0.7423,0.4621,-0.2063,0,0,0,-0.001,0.008,0.005,1023
2018,5,17,20,42,26.938,0.4391,-0.7423,0.4621,-0.2063,0,0,0,-0.003,0.007,0.006,1023
2018,5,17,20,42,26.961,0.439,-0.7423,0.4621,-0.2062,0,0,0,-0.002,0.005,0,1023
2018,5,17,20,42,26.997,0.4389,-0.7423,0.4621,-0.2062,-0.5,0,-0.1,-0.001,0.007,0.004,0
2018,5,17,20,42,27.02,0.4388,-0.7424,0.4622,-0.2062,-0.7,0,0,0.001,0.01,0.001,0
2018,5,17,20,42,27.025,0.4388,-0.7424,0.4622,-0.2061,0,0,0,0,0.01,0.003,0
2018,5,17,20,42,27.041,0.4388,-0.7424,0.4622,-0.2061,0,0,0,0.003,0.006,0,0
2018,5,17,20,42,27.064,0.4387,-0.7424,0.4622,-0.2061,0,0,0,0,0.005,-0.003,0
2018,5,17,20,42,27.079,0.4387,-0.7424,0.4623,-0.2061,0,0,0,0,0.006,-0.002,0
2018,5,17,20,42,27.098,0.4387,-0.7424,0.4623,-0.2061,0,0,0,-0.001,0.006,0,0
2018,5,17,20,42,27.12,0.4387,-0.7424,0.4623,-0.2061,0.5,0,-0.1,-0.001,0.007,0.003,0
2018,5,17,20,42,27.138,0.4387,-0.7424,0.4623,-0.2061,0,0,0,-0.001,0.007,0.005,0
2018,5,17,20,42,27.161,0.4387,-0.7424,0.4623,-0.2061,0,0,0,-0.001,0.008,0.005,0
2018,5,17,20,42,27.179,0.4387,-0.7424,0.4623,-0.2061,0,0,0,0,0.007,0.003,0
2018,5,17,20,42,27.201,0.4387,-0.7424,0.4623,-0.2061,0,0,0,0,0.008,0.003,0
2018,5,17,20,42,27.238,0.4387,-0.7424,0.4623,-0.2061,0,0,0,0,0.007,0.001,0
2018,5,17,20,42,27.262,0.4386,-0.7425,0.4623,-0.2061,0,0,0,-0.002,0.005,0.002,0
2018,5,17,20,42,27.267,0.4386,-0.7425,0.4623,-0.2061,0,0,0,-0.003,0.005,0.008,0
2018,5,17,20,42,27.279,0.4386,-0.7425,0.4623,-0.2061,0,0,0,-0.001,0.007,0.005,0
2018,5,17,20,42,27.315,0.4386,-0.7425,0.4623,-0.2061,0,0,0,-0.001,0.009,0.004,0
2018,5,17,20,42,27.338,0.4386,-0.7425,0.4623,-0.2061,0,0,0,0,0.007,0.003,0
2018,5,17,20,42,27.342,0.4385,-0.7425,0.4623,-0.2061,-1.2,-0.2,0,-0.003,0.008,0.002,0
2018,5,17,20,42,27.362,0.4383,-0.7426,0.4624,-0.206,-1.5,-0.1,-0.1,-0.002,0.008,0.001,1023
2018,5,17,20,42,27.399,0.438,-0.7428,0.4625,-0.2058,-1.4,-0.1,0,0,0.005,0,1023
2018,5,17,20,42,27.422,0.4378,-0.7429,0.4625,-0.2057,-1.1,-0.2,0,0,0.006,0.002,1023
2018,5,17,20,42,27.427,0.4376,-0.743,0.4626,-0.2057,-1.3,-0.2,0.2,-0.001,0.008,0.005,1023
2018,5,17,20,42,27.441,0.4373,-0.7431,0.4627,-0.2056,-2.6,-0.5,0.2,0,0.006,0.004,1023
2018,5,17,20,42,27.463,0.4369,-0.7433,0.4628,-0.2055,-2.2,-0.4,0.2,-0.001,0.004,0,1023
2018,5,17,20,42,27.501,0.4366,-0.7435,0.4629,-0.2053,-1.8,-0.2,0,-0.001,0.007,0.001,1023
2018,5,17,20,42,27.523,0.4363,-0.7437,0.4629,-0.2052,-2,-0.3,0,0,0.008,0.005,1023
2018,5,17,20,42,27.526,0.436,-0.7438,0.463,-0.2051,-1.7,-0.2,0.2,0,0.007,0.004,1023
2018,5,17,20,42,27.544,0.4357,-0.744,0.4631,-0.205,-1.7,-0.3,0,-0.001,0.005,0.001,1023
2018,5,17,20,42,27.567,0.4355,-0.7441,0.4632,-0.205,-1.1,-0.3,0,0,0.008,0.005,1023
2018,5,17,20,42,27.583,0.4353,-0.7442,0.4632,-0.2049,-0.7,-0.2,0.2,0,0.01,0.003,1023
2018,5,17,20,42,27.62,0.4352,-0.7443,0.4632,-0.2049,-0.8,-0.3,0.2,0,0.012,0.005,1023
2018,5,17,20,42,27.643,0.4351,-0.7443,0.4632,-0.2048,0,0,0,0,0.007,0.003,1023
2018,5,17,20,42,27.648,0.435,-0.7443,0.4632,-0.2048,0,0,0,0,0.007,0.003,1023
2018,5,17,20,42,27.681,0.435,-0.7443,0.4632,-0.2048,0,0,0,0,0.007,0,1023
2018,5,17,20,42,27.704,0.435,-0.7443,0.4632,-0.2048,0,0,0,0.002,0.004,0.002,1023
2018,5,17,20,42,27.709,0.435,-0.7443,0.4632,-0.2048,0,0,0,0,0.007,0.005,0
2018,5,17,20,42,27.727,0.435,-0.7444,0.4632,-0.2048,0,0,0,-0.001,0.009,0.002,0
2018,5,17,20,42,27.764,0.4349,-0.7444,0.4633,-0.2048,-0.6,-0.2,0,0.001,0.007,0.002,0
2018,5,17,20,42,27.764,0.4349,-0.7444,0.4633,-0.2047,0,0,0,-0.002,0.006,0.003,0
2018,5,17,20,42,27.787,0.4348,-0.7444,0.4633,-0.2047,-0.7,0,-0.1,0,0.005,0.005,0
2018,5,17,20,42,27.825,0.4347,-0.7445,0.4633,-0.2046,-0.5,0.1,-0.1,0.002,0.006,0,0
2018,5,17,20,42,27.825,0.4347,-0.7445,0.4633,-0.2046,-0.5,0,0.1,-0.003,0.007,0,0
2018,5,17,20,42,27.848,0.4346,-0.7446,0.4633,-0.2046,-0.7,0,0.2,-0.003,0.01,0.007,0
2018,5,17,20,42,27.866,0.4344,-0.7447,0.4633,-0.2045,-0.7,0,0.3,-0.002,0.006,0.005,0
2018,5,17,20,42,27.885,0.4344,-0.7447,0.4633,-0.2045,0,0,0,-0.001,0.008,0.003,0
2018,5,17,20,42,27.908,0.4343,-0.7447,0.4633,-0.2045,0,0,0,0,0.006,0.001,0
2018,5,17,20,42,27.927,0.4343,-0.7448,0.4633,-0.2045,0,0,0,0,0.008,0.002,0
2018,5,17,20,42,27.945,0.4343,-0.7448,0.4633,-0.2045,0,0,0,0.002,0.007,0,0
2018,5,17,20,42,27.968,0.4343,-0.7448,0.4633,-0.2045,0,0,0,0,0.007,0.008,0
2018,5,17,20,42,27.984,0.4343,-0.7448,0.4633,-0.2045,0,0,0,-0.001,0.008,0.002,0
2018,5,17,20,42,28.009,0.4342,-0.7448,0.4633,-0.2045,0,0,0,0,0.006,0.003,0
2018,5,17,20,42,28.045,0.4342,-0.7448,0.4634,-0.2045,0,0,0,-0.002,0.01,0.007,0
2018,5,17,20,42,28.045,0.4342,-0.7448,0.4634,-0.2045,0,0,0,0,0.008,0.005,0
2018,5,17,20,42,28.067,0.4342,-0.7448,0.4634,-0.2045,0,0,0,-0.002,0.006,0,0
2018,5,17,20,42,28.085,0.4342,-0.7448,0.4634,-0.2045,0,0,0,0.001,0.006,0.002,0
2018,5,17,20,42,28.108,0.4342,-0.7448,0.4634,-0.2045,0,0,0,0,0.007,0.007,0
2018,5,17,20,42,28.125,0.4342,-0.7448,0.4634,-0.2045,0,0,0,0,0.009,0.004,1023
2018,5,17,20,42,28.148,0.4341,-0.7449,0.4634,-0.2045,0,0,0,-0.001,0.007,0.004,1023
2018,5,17,20,42,28.167,0.4341,-0.7449,0.4634,-0.2045,0,0,0,-0.002,0.007,0,1023
2018,5,17,20,42,28.19,0.4341,-0.7449,0.4634,-0.2045,0,0,0,-0.001,0.006,0.005,1023
2018,5,17,20,42,28.207,0.434,-0.7449,0.4634,-0.2045,-0.5,-0.1,0.2,-0.001,0.007,0.004,1023
2018,5,17,20,42,28.229,0.4339,-0.745,0.4634,-0.2044,-1,0,0.2,0,0.008,0,1023
2018,5,17,20,42,28.266,0.4337,-0.7451,0.4634,-0.2044,-0.7,-0.2,0,-0.003,0.008,0,1023
2018,5,17,20,42,28.288,0.4337,-0.7451,0.4634,-0.2044,0,0,0,0,0.008,0,1023
2018,5,17,20,42,28.293,0.4337,-0.7451,0.4634,-0.2044,0,0,0,0,0.007,0.005,1023
2018,5,17,20,42,28.31,0.4336,-0.7451,0.4634,-0.2044,0,0,0,-0.002,0.007,-0.001,1023
2018,5,17,20,42,28.333,0.4336,-0.7451,0.4634,-0.2044,0,0,0,0,0.01,0.004,1023
2018,5,17,20,42,28.349,0.4336,-0.7452,0.4634,-0.2044,-0.5,0,0,0,0.007,0.001,1023
2018,5,17,20,42,28.386,0.4336,-0.7452,0.4634,-0.2044,0,0,0,-0.002,0.01,0.005,1023
2018,5,17,20,42,28.41,0.4335,-0.7452,0.4634,-0.2044,-0.5,-0.2,0.2,0,0.008,0.002,1023
2018,5,17,20,42,28.413,0.4335,-0.7452,0.4634,-0.2044,-0.9,-0.1,0.2,0,0.012,0.006,1023
2018,5,17,20,42,28.429,0.4333,-0.7453,0.4634,-0.2043,-1.7,0,0.3,-0.001,0.005,0,1023
2018,5,17,20,42,28.452,0.4331,-0.7454,0.4635,-0.2043,-0.8,-0.2,0,0,0.01,0.002,1023
2018,5,17,20,42,28.468,0.433,-0.7455,0.4635,-0.2042,0,0,0,-0.004,0.007,0.001,1023
2018,5,17,20,42,28.491,0.433,-0.7455,0.4635,-0.2042,0,0,0,-0.001,0.008,0.01,0
2018,5,17,20,42,28.509,0.4329,-0.7456,0.4635,-0.2042,-0.6,-0.3,0.2,-0.001,0.008,0,0
2018,5,17,20,42,28.532,0.4327,-0.7457,0.4635,-0.2042,-0.7,0,0.2,-0.001,0.009,-0.003,0
2018,5,17,20,42,28.569,0.4326,-0.7457,0.4635,-0.2042,-0.7,0,0,-0.003,0.005,0,0
2018,5,17,20,42,28.592,0.4325,-0.7458,0.4636,-0.2041,-0.5,0,0,0,0.004,0.003,0
2018,5,17,20,42,28.597,0.4324,-0.7458,0.4636,-0.2041,0,0,0,-0.001,0.008,0.002,0
2018,5,17,20,42,28.611,0.4324,-0.7458,0.4636,-0.2041,0,0,0,0,0.006,0.001,0
2018,5,17,20,42,28.648,0.4324,-0.7459,0.4636,-0.2041,0,0,0,0,0.004,0.004,0
2018,5,17,20,42,28.671,0.4324,-0.7459,0.4636,-0.2041,0,0,0,-0.003,0.009,0.001,0
2018,5,17,20,42,28.675,0.4323,-0.7459,0.4636,-0.2041,0,0,0,-0.001,0.007,0.002,0
2018,5,17,20,42,28.709,0.4323,-0.7459,0.4636,-0.2041,0,0,0,0,0.007,0.001,0
2018,5,17,20,42,28.732,0.4323,-0.7459,0.4636,-0.2041,0,0,0,0.001,0.004,0.004,0
2018,5,17,20,42,28.737,0.4323,-0.7459,0.4636,-0.2041,0,0,0,-0.005,0.006,0.003,0
2018,5,17,20,42,28.754,0.4323,-0.7459,0.4636,-0.2041,0,0,0,0,0.005,0,0
2018,5,17,20,42,28.776,0.4322,-0.7459,0.4636,-0.2041,0,0,0,-0.001,0.008,0,0
2018,5,17,20,42,28.795,0.4322,-0.7459,0.4636,-0.2041,0,0,0,-0.003,0.006,0.002,0
2018,5,17,20,42,28.812,0.4322,-0.7459,0.4636,-0.2041,0,0,0,-0.001,0.01,-0.001,0
2018,5,17,20,42,28.849,0.4322,-0.746,0.4636,-0.2041,0,0,0,0,0.007,0.004,0
2018,5,17,20,42,28.871,0.4322,-0.746,0.4636,-0.2041,0,0,0,0,0.003,0,0
2018,5,17,20,42,28.876,0.4322,-0.746,0.4636,-0.2041,0,0,0,-0.002,0.009,0.003,0
2018,5,17,20,42,28.894,0.4322,-0.746,0.4636,-0.2041,0,0,0,-0.001,0.01,0.002,0
2018,5,17,20,42,28.913,0.4321,-0.746,0.4636,-0.2041,0,0,0,-0.003,0.007,0.002,0
2018,5,17,20,42,28.931,0.4321,-0.746,0.4636,-0.2041,0,0,0,0,0.007,-0.001,1023
2018,5,17,20,42,28.954,0.4321,-0.746,0.4636,-0.2041,0,0,0,-0.002,0.008,0.003,1023
2018,5,17,20,42,28.973,0.4321,-0.746,0.4636,-0.2041,0,0,0,0,0.007,0.005,1023
2018,5,17,20,42,28.993,0.432,-0.746,0.4636,-0.2041,-0.5,-0.2,0,-0.002,0.007,0.001,1023
2018,5,17,20,42,29.032,0.432,-0.746,0.4636,-0.204,0,0,0,-0.001,0.006,0,1023
2018,5,17,20,42,29.054,0.432,-0.7461,0.4636,-0.2041,0,0,0,-0.001,0.009,0.005,1023
2018,5,17,20,42,29.058,0.432,-0.7461,0.4636,-0.2041,0,0,0,-0.001,0.01,0,1023
2018,5,17,20,42,29.074,0.4319,-0.7461,0.4636,-0.2041,0,0,0,-0.003,0.007,0,1023
2018,5,17,20,42,29.092,0.4319,-0.7461,0.4636,-0.2041,0,0,0,-0.002,0.006,0.001,1023
2018,5,17,20,42,29.115,0.4319,-0.7461,0.4636,-0.2041,0,0,0,-0.002,0.005,0.003,1023
2018,5,17,20,42,29.133,0.4319,-0.7461,0.4636,-0.2041,0,0,0,0.001,0.004,0.007,1023
2018,5,17,20,42,29.156,0.4319,-0.7461,0.4636,-0.2041,0,0,0,-0.001,0.006,0.006,1023
2018,5,17,20,42,29.177,0.4319,-0.7461,0.4636,-0.2041,0,0,0,-0.001,0.006,0.001,1023
2018,5,17,20,42,29.196,0.4319,-0.7461,0.4636,-0.2041,0,0,0,0,0.005,0.003,1023
2018,5,17,20,42,29.215,0.4319,-0.7461,0.4636,-0.2041,0,0,0,0.001,0.007,0.005,1023
2018,5,17,20,42,29.238,0.4319,-0.7461,0.4636,-0.2041,0,0,0,-0.003,0.008,0,1023
2018,5,17,20,42,29.256,0.4319,-0.7461,0.4636,-0.2041,0,0,0,-0.004,0.006,0.005,1023
2018,5,17,20,42,29.279,0.4319,-0.7461,0.4636,-0.2041,0,0,0,-0.001,0.005,0,1023
2018,5,17,20,42,29.298,0.4319,-0.7461,0.4636,-0.2041,0,0,0,0,0.006,0,1023
2018,5,17,20,42,29.316,0.4319,-0.7461,0.4636,-0.2041,0,0,0,0,0.006,0.002,0
2018,5,17,20,42,29.34,0.4319,-0.7461,0.4637,-0.204,0,0,0,0,0.005,0.003,0
2018,5,17,20,42,29.378,0.4318,-0.7461,0.4637,-0.204,0,0,0,-0.001,0.006,0.004,0
2018,5,17,20,42,29.378,0.4318,-0.7461,0.4637,-0.204,0,0,0,0,0.006,0.002,0
2018,5,17,20,42,29.4,0.4318,-0.7461,0.4637,-0.204,0,0,0,0.001,0.008,0.001,0
2018,5,17,20,42,29.419,0.4318,-0.7462,0.4637,-0.204,0,0,0,0,0.006,0.004,0
2018,5,17,20,42,29.437,0.4318,-0.7462,0.4637,-0.204,0,0,0,-0.001,0.006,0.006,0
2018,5,17,20,42,29.478,0.4318,-0.7461,0.4637,-0.204,0,0,0,-0.002,0.007,0.005,0
2018,5,17,20,42,29.48,0.4318,-0.7461,0.4637,-0.204,0.5,0,-0.2,-0.001,0.005,0.001,0
2018,5,17,20,42,29.516,0.4318,-0.7461,0.4637,-0.204,0,0,0,0,0.009,0.004,0
2018,5,17,20,42,29.537,0.4319,-0.7461,0.4637,-0.2041,0,0,0,0,0.008,0.006,0
2018,5,17,20,42,29.539,0.4319,-0.7461,0.4637,-0.2041,0,0,0,0.001,0.007,0.006,0
2018,5,17,20,42,29.577,0.4319,-0.7461,0.4637,-0.2041,0,0,0,0.001,0.007,0.002,0
2018,5,17,20,42,29.577,0.432,-0.7461,0.4637,-0.2041,0,0,0,0,0.004,0.003,0
2018,5,17,20,42,29.6,0.432,-0.7461,0.4637,-0.2041,0,0,0,0,0.005,0.005,0
2018,5,17,20,42,29.618,0.432,-0.7461,0.4637,-0.204,0,0,0,0,0.004,0.005,0
2018,5,17,20,42,29.655,0.432,-0.7461,0.4637,-0.2041,0.5,0,0,-0.001,0.007,0.004,0
2018,5,17,20,42,29.679,0.432,-0.746,0.4637,-0.2041,0.5,0,0,0,0.008,0.008,0
2018,5,17,20,42,29.683,0.4321,-0.746,0.4637,-0.2041,0,0,0,0.001,0.008,0.004,0
2018,5,17,20,42,29.7,0.4321,-0.746,0.4637,-0.2041,0,0,0,-0.001,0.005,0.006,0
2018,5,17,20,42,29.736,0.4321,-0.746,0.4637,-0.2041,0,0,0,0,0.005,0.004,0
2018,5,17,20,42,29.757,0.4321,-0.746,0.4637,-0.2041,0,0,0,0,0.006,0,0
2018,5,17,20,42,29.762,0.4321,-0.746,0.4636,-0.2041,0,0,0,-0.001,0.006,0.005,1023
2018,5,17,20,42,29.778,0.4321,-0.746,0.4637,-0.2041,0,0,0,0.001,0.005,0.003,1023
2018,5,17,20,42,29.801,0.4321,-0.746,0.4637,-0.2041,0,0,0,-0.002,0.009,0.001,1023
2018,5,17,20,42,29.817,0.4321,-0.746,0.4636,-0.2041,0,0,0,-0.003,0.007,0.003,1023
2018,5,17,20,42,29.84,0.4321,-0.746,0.4637,-0.2041,0,0,0,0.003,0.005,0.002,1023
2018,5,17,20,42,29.877,0.4321,-0.746,0.4637,-0.2041,0,0,0,0,0.006,0.008,1023
2018,5,17,20,42,29.877,0.4321,-0.746,0.4636,-0.2041,0,0,0,-0.001,0.006,0.006,1023
2018,5,17,20,42,29.902,0.4321,-0.746,0.4636,-0.2041,0,0,0,-0.001,0.006,0.004,1023
2018,5,17,20,42,29.92,0.4321,-0.746,0.4636,-0.2041,0,0,0,-0.001,0.007,0.003,1023
2018,5,17,20,42,29.943,0.4321,-0.746,0.4637,-0.2041,0,0,0,-0.001,0.007,0.003,1023
2018,5,17,20,42,29.963,0.4321,-0.746,0.4637,-0.2041,0,0,0,0.001,0.007,0.009,1023
2018,5,17,20,42,29.981,0.4321,-0.746,0.4637,-0.2041,0,0,0,0,0.005,0.006,1023
2018,5,17,20,42,30.004,0.4321,-0.746,0.4637,-0.2041,0,0,0,-0.001,0.006,0.003,1023
2018,5,17,20,42,30.023,0.4321,-0.746,0.4637,-0.2041,0,0,0,0.002,0.006,0.003,1023
2018,5,17,20,42,30.046,0.4322,-0.7459,0.4637,-0.2041,0,0,0,-0.001,0.007,0.007,1023
2018,5,17,20,42,30.064,0.4322,-0.7459,0.4637,-0.2041,0,0,0,-0.001,0.006,0.001,1023
2018,5,17,20,42,30.084,0.4322,-0.7459,0.4637,-0.2041,0,0,0,0,0.006,0.004,1023
2018,5,17,20,42,30.107,0.4322,-0.7459,0.4637,-0.2041,0,0,0,-0.001,0.007,0.002,1023
2018,5,17,20,42,30.144,0.4322,-0.7459,0.4637,-0.2041,0,0,0,-0.003,0.005,0.007,1023
2018,5,17,20,42,30.144,0.4322,-0.7459,0.4637,-0.2041,0,0,0,-0.001,0.006,0.002,0
2018,5,17,20,42,30.166,0.4322,-0.7459,0.4637,-0.2041,0,0,0,-0.003,0.003,0.001,0
2018,5,17,20,42,30.183,0.4322,-0.7459,0.4637,-0.2041,0,0,0,0,0.005,0.007,0
2018,5,17,20,42,30.204,0.4322,-0.7459,0.4637,-0.2041,0,0,0,-0.003,0.008,0,0
2018,5,17,20,42,30.22,0.4322,-0.7459,0.4637,-0.2041,0,0,0,-0.001,0.009,0.006,0
2018,5,17,20,42,30.243,0.4322,-0.7459,0.4637,-0.2041,0,0,0,0,0.004,0.005,0
2018,5,17,20,42,30.28,0.4322,-0.7459,0.4637,-0.2041,0,0,0,-0.002,0.005,0.006,0
2018,5,17,20,42,30.302,0.4322,-0.7459,0.4637,-0.2041,0,0,0,-0.001,0.003,0.01,0
2018,5,17,20,42,30.307,0.4322,-0.7459,0.4637,-0.2041,0,0,0,0,0.008,0.004,0
2018,5,17,20,42,30.324,0.4322,-0.7459,0.4637,-0.2041,0,0,0,0,0.006,0.003,0
2018,5,17,20,42,30.345,0.4322,-0.7459,0.4637,-0.2041,0,0,0,-0.001,0.005,0.002,0
2018,5,17,20,42,30.363,0.4322,-0.7459,0.4637,-0.2041,0,0,0,0,0.007,0.012,0
2018,5,17,20,42,30.399,0.4322,-0.7459,0.4637,-0.2041,0,0,0,0,0.007,0.004,0
2018,5,17,20,42,30.424,0.4323,-0.7459,0.4637,-0.2041,0,0,0,0.001,0.003,0.003,0
2018,5,17,20,42,30.427,0.4323,-0.7459,0.4637,-0.2041,0,0,0,-0.001,0.007,0.002,0
2018,5,17,20,42,30.446,0.4323,-0.7459,0.4637,-0.2041,0,0,0,0,0.005,0.002,0
2018,5,17,20,42,30.482,0.4323,-0.7459,0.4636,-0.2041,0,0,0,-0.001,0.004,0.002,0
2018,5,17,20,42,30.505,0.4323,-0.7459,0.4636,-0.2041,0,0,0,0,0.004,0.003,0
2018,5,17,20,42,30.508,0.4323,-0.7459,0.4636,-0.2041,0,0,0,0,0.004,0.003,0
2018,5,17,20,42,30.526,0.4323,-0.7459,0.4636,-0.2041,0,0,0,-0.001,0.005,0.005,0
2018,5,17,20,42,30.548,0.4323,-0.7459,0.4636,-0.2041,0,0,0,-0.002,0.007,0.008,0
2018,5,17,20,42,30.565,0.4323,-0.7459,0.4636,-0.2041,0,0,0,0,0.006,0.005,0
2018,5,17,20,42,30.582,0.4323,-0.7459,0.4636,-0.2041,0,0,0,0,0.003,0.005,0
2018,5,17,20,42,30.606,0.4323,-0.7459,0.4636,-0.2041,0,0,0,0,0.006,0.007,1023
2018,5,17,20,42,30.623,0.4323,-0.7458,0.4636,-0.2041,0,0,0,0.003,0.007,0.003,1023
2018,5,17,20,42,30.646,0.4323,-0.7458,0.4636,-0.2041,0,0,0,0.001,0.007,0.006,1023
2018,5,17,20,42,30.664,0.4323,-0.7458,0.4636,-0.2041,0,0,0,0,0.006,0.005,1023
2018,5,17,20,42,30.688,0.4324,-0.7458,0.4636,-0.2041,0,0,0,0.002,0.006,0.009,1023
2018,5,17,20,42,30.724,0.4324,-0.7458,0.4636,-0.2041,0,0,0,-0.002,0.004,0.007,1023
2018,5,17,20,42,30.747,0.4324,-0.7458,0.4636,-0.2041,0,0,0,-0.001,0.006,0.006,1023
2018,5,17,20,42,30.751,0.4324,-0.7458,0.4636,-0.2041,0,0,0,0,0.005,-0.002,1023
2018,5,17,20,42,30.767,0.4324,-0.7458,0.4636,-0.2041,0,0,0,-0.001,0.005,0.007,1023
2018,5,17,20,42,30.789,0.4324,-0.7458,0.4636,-0.2041,0,0,0,-0.002,0.004,0.004,1023
2018,5,17,20,42,30.811,0.4324,-0.7458,0.4636,-0.2041,0,0,0,0,0.007,0.008,1023
2018,5,17,20,42,30.83,0.4324,-0.7458,0.4636,-0.2041,0,0,0,0,0.007,0.005,1023
2018,5,17,20,42,30.867,0.4325,-0.7458,0.4636,-0.2041,0,0,0,0,0.008,0.006,1023
2018,5,17,20,42,30.89,0.4325,-0.7458,0.4636,-0.2041,0,0,0,0,0.002,0.003,1023
2018,5,17,20,42,30.895,0.4325,-0.7458,0.4636,-0.2041,0,0,0,-0.003,0.004,0.006,1023
2018,5,17,20,42,30.909,0.4325,-0.7458,0.4636,-0.2041,0,0,0,0,0.007,0.002,1023
2018,5,17,20,42,30.945,0.4325,-0.7457,0.4636,-0.2041,0,0,0,-0.001,0.005,0.005,1023
2018,5,17,20,42,30.967,0.4325,-0.7457,0.4636,-0.2041,0,0,0,-0.001,0.007,0.003,1023
2018,5,17,20,42,30.972,0.4325,-0.7457,0.4636,-0.2041,0,0,0,0,0.004,0.005,1023
2018,5,17,20,42,30.989,0.4325,-0.7457,0.4636,-0.2041,0,0,0,0,0.005,0.002,0
2018,5,17,20,42,31.012,0.4325,-0.7457,0.4636,-0.2041,0,0,0,0,0.006,0.002,0
2018,5,17,20,42,31.048,0.4325,-0.7457,0.4636,-0.2041,0,0,0,0,0.006,0.005,0
2018,5,17,20,42,31.07,0.4325,-0.7457,0.4636,-0.2041,0,0,0,-0.001,0.005,0.003,0
2018,5,17,20,42,31.075,0.4325,-0.7457,0.4636,-0.2041,0,0,0,-0.003,0.005,0.003,0
2018,5,17,20,42,31.091,0.4325,-0.7457,0.4636,-0.2041,0,0,0,0.002,0.006,0.001,0
2018,5,17,20,42,31.112,0.4325,-0.7457,0.4636,-0.2042,0,0,0,-0.001,0.006,0.006,0
2018,5,17,20,42,31.127,0.4326,-0.7457,0.4636,-0.2042,0,0,0,0,0.006,0.006,0
2018,5,17,20,42,31.165,0.4326,-0.7457,0.4636,-0.2042,0,0,0,0,0.009,0.004,0
2018,5,17,20,42,31.186,0.4326,-0.7457,0.4636,-0.2042,0,0,0,0.001,0.007,0.004,0
2018,5,17,20,42,31.191,0.4326,-0.7457,0.4636,-0.2042,0,0,0,0,0.005,0.003,0
2018,5,17,20,42,31.209,0.4326,-0.7457,0.4636,-0.2042,0,0,0,0.001,0.006,0.001,0
2018,5,17,20,42,31.232,0.4326,-0.7457,0.4636,-0.2042,0,0,0,0,0.003,0.006,0
2018,5,17,20,42,31.25,0.4326,-0.7457,0.4636,-0.2042,0,0,0,-0.002,0.007,0.008,0
2018,5,17,20,42,31.273,0.4326,-0.7457,0.4636,-0.2041,0,0,0,0,0.006,0.007,0
2018,5,17,20,42,31.291,0.4326,-0.7457,0.4636,-0.2042,0,0,0,0,0.007,0.007,0
2018,5,17,20,42,31.314,0.4326,-0.7457,0.4636,-0.2042,0,0,0,0,0.009,0.002,0
2018,5,17,20,42,31.331,0.4326,-0.7457,0.4636,-0.2042,0,0,0,0,0.004,0.003,0
2018,5,17,20,42,31.348,0.4326,-0.7457,0.4636,-0.2042,0,0,0,-0.002,0.006,0.001,0
2018,5,17,20,42,31.372,0.4326,-0.7457,0.4636,-0.2042,0,0,0,-0.002,0.008,0.003,0
2018,5,17,20,42,31.409,0.4326,-0.7457,0.4636,-0.2042,0,0,0,0,0.007,0.004,0
2018,5,17,20,42,31.432,0.4326,-0.7457,0.4636,-0.2042,0,0,0,-0.002,0.007,0.007,0
2018,5,17,20,42,31.436,0.4325,-0.7457,0.4636,-0.2042,0,0,0,-0.002,0.008,0,0
2018,5,17,20,42,31.453,0.4326,-0.7457,0.4636,-0.2042,0,0,0,0,0.006,0.005,1023
2018,5,17,20,42,31.471,0.4326,-0.7457,0.4636,-0.2042,0,0,0,0,0.006,0,1023
2018,5,17,20,42,31.494,0.4326,-0.7457,0.4636,-0.2042,0,0,0,0,0.004,0.005,1023
2018,5,17,20,42,31.514,0.4326,-0.7457,0.4636,-0.2042,0,0,0,0,0.005,0.005,1023
2018,5,17,20,42,31.553,0.4326,-0.7457,0.4636,-0.2042,0,0,0,0.001,0.007,0.006,1023
2018,5,17,20,42,31.553,0.4326,-0.7457,0.4636,-0.2042,0,0,0,0.002,0.003,0.005,1023
2018,5,17,20,42,31.576,0.4326,-0.7457,0.4636,-0.2042,0,0,0,-0.003,0.004,0.005,1023
2018,5,17,20,42,31.594,0.4326,-0.7457,0.4636,-0.2042,0,0,0,0,0.007,0,1023
2018,5,17,20,42,31.617,0.4326,-0.7457,0.4636,-0.2042,0,0,0,0,0.011,0.002,1023
2018,5,17,20,42,31.634,0.4326,-0.7457,0.4636,-0.2042,0,0,0,-0.002,0.006,0,1023
2018,5,17,20,42,31.655,0.4326,-0.7457,0.4636,-0.2042,0,0,0,0,0.004,0.003,1023
2018,5,17,20,42,31.672,0.4326,-0.7457,0.4636,-0.2042,0,0,0,0,0.006,0.008,1023
2018,5,17,20,42,31.695,0.4326,-0.7457,0.4636,-0.2042,0,0,0,-0.001,0.004,0.005,1023
2018,5,17,20,42,31.732,0.4326,-0.7457,0.4636,-0.2042,0,0,0,0,0.007,0.005,1023
2018,5,17,20,42,31.755,0.4326,-0.7457,0.4636,-0.2042,0,0,0,0,0.005,0.003,1023
2018,5,17,20,42,31.759,0.4326,-0.7457,0.4636,-0.2042,0,0,0,-0.001,0.006,0.004,1023
2018,5,17,20,42,31.775,0.4326,-0.7457,0.4636,-0.2042,0,0,0,-0.003,0.006,0.004,1023
2018,5,17,20,42,31.799,0.4326,-0.7457,0.4636,-0.2042,0,0,0,0,0.006,0.007,1023
2018,5,17,20,42,31.817,0.4326,-0.7457,0.4636,-0.2042,0,0,0,0,0.009,0.004,1023
2018,5,17,20,42,31.839,0.4326,-0.7457,0.4636,-0.2042,0,0,0,0,0.005,0.001,0
