ax,ay,az,dpitch,droll,dyaw,heart,time_1,time_2,time_3,time_4,time_5,time_6,w,x,y,z
0.014,-0.027,0.034,68.6,3.1,105.8,0,2018,4,24,22,41,43.422,0.478,-0.4361,0.2732,0.7116
-0.063,-0.414,0.102,70.3,-0.6,86.2,0,2018,4,24,22,41,43.445,0.4933,-0.4322,0.2595,0.7088
-0.175,-0.491,0.151,68.2,21.8,63.7,0,2018,4,24,22,41,43.448,0.5066,-0.4258,0.2492,0.7069
-0.34,-0.492,0.312,54.6,18.5,34.4,1023,2018,4,24,22,41,43.487,0.5169,-0.4182,0.2429,0.7062
-0.38,-0.537,0.443,32.9,-11.6,0.9,1023,2018,4,24,22,41,43.487,0.5211,-0.4132,0.2382,0.7077
-0.401,-0.515,0.451,7.4,-37.7,-30.8,1023,2018,4,24,22,41,43.511,0.5177,-0.4127,0.2341,0.7118
-0.39,-0.45,0.404,-17.3,-41.3,-58.1,1023,2018,4,24,22,41,43.546,0.5086,-0.4154,0.2328,0.7172
-0.372,-0.292,0.307,-34,-36.8,-79.6,1023,2018,4,24,22,41,43.568,0.4956,-0.4194,0.2353,0.7232
-0.362,-0.097,0.299,-52.7,-45.1,-92.7,1023,2018,4,24,22,41,43.57,0.4799,-0.4246,0.2404,0.729
-0.313,-0.027,0.316,-70.9,-56.5,-99.4,1023,2018,4,24,22,41,43.607,0.4613,-0.4326,0.2461,0.7344
-0.28,0.086,0.259,-85.1,-48.4,-99.9,1023,2018,4,24,22,41,43.628,0.4408,-0.4427,0.2531,0.7386
-0.158,0.305,0.107,-91.7,-31.3,-89.4,1023,2018,4,24,22,41,43.632,0.4214,-0.4528,0.2622,0.7406
0.008,0.44,-0.005,-92.6,-17.9,-72.3,1023,2018,4,24,22,41,43.648,0.4045,-0.4629,0.2721,0.7402
0.084,0.596,-0.122,-85.7,-1.4,-46.8,1023,2018,4,24,22,41,43.685,0.3917,-0.4722,0.2821,0.7375
0.21,0.694,-0.345,-63.1,20.7,-14.3,1023,2018,4,24,22,41,43.707,0.3848,-0.4797,0.2909,0.7328
0.247,0.782,-0.481,-31.8,42.8,19.5,1023,2018,4,24,22,41,43.712,0.3856,-0.4836,0.2979,0.7269
0.278,0.657,-0.721,5.4,48.3,50.1,0,2018,4,24,22,41,43.749,0.3936,-0.484,0.3017,0.7209
0.265,0.431,-0.72,47.6,48.6,70.7,0,2018,4,24,22,41,43.771,0.4067,-0.4805,0.3005,0.7164
0.148,0.261,-0.462,84,59.6,82,0,2018,4,24,22,41,43.776,0.4246,-0.4721,0.2961,0.7135
0.035,0.176,-0.195,105.9,43,84,0,2018,4,24,22,41,43.791,0.4442,-0.4603,0.2885,0.7123
-0.076,-0.06,0.055,113.7,19.2,74.7,0,2018,4,24,22,41,43.815,0.4619,-0.4482,0.2774,0.7132
-0.148,-0.35,0.207,111.7,15.4,58.2,0,2018,4,24,22,41,43.832,0.4767,-0.436,0.2647,0.7158
-0.287,-0.479,0.407,99.8,26.7,34.4,0,2018,4,24,22,41,43.855,0.489,-0.4229,0.2549,0.7189
-0.393,-0.413,0.545,73.5,32.3,7.7,0,2018,4,24,22,41,43.873,0.4979,-0.41,0.25,0.722
-0.41,-0.291,0.655,33.7,-7.1,-15.6,0,2018,4,24,22,41,43.897,0.5005,-0.4019,0.2474,0.7257
-0.394,-0.272,0.589,-4.4,-50.7,-36.6,0,2018,4,24,22,41,43.912,0.4955,-0.4017,0.2442,0.7302
-0.323,-0.337,0.482,-31,-58.1,-55.2,0,2018,4,24,22,41,43.931,0.4846,-0.4073,0.2416,0.7354
-0.292,-0.368,0.366,-46.1,-35.4,-76,0,2018,4,24,22,41,43.954,0.4711,-0.4134,0.2436,0.74
-0.332,-0.231,0.439,-66.8,-10,-89,0,2018,4,24,22,41,43.99,0.4565,-0.4188,0.2514,0.7435
-0.333,0.065,0.468,-95.6,-8.6,-93,0,2018,4,24,22,41,44.013,0.4407,-0.4256,0.264,0.7448
-0.229,0.247,0.26,-114.1,-40.1,-89.9,0,2018,4,24,22,41,44.017,0.4218,-0.4371,0.2757,0.7449
-0.14,0.32,0.009,-115.8,-52.2,-80.9,0,2018,4,24,22,41,44.033,0.4011,-0.4515,0.2843,0.7445
-0.002,0.477,-0.259,-101,-41,-61.7,0,2018,4,24,22,41,44.054,0.3825,-0.4654,0.2913,0.743
0.114,0.583,-0.491,-70.3,-11.2,-36.7,0,2018,4,24,22,41,44.092,0.3695,-0.4758,0.2975,0.7405
0.284,0.644,-0.754,-28.2,31.2,-5.7,0,2018,4,24,22,41,44.115,0.3651,-0.4804,0.3037,0.7372
0.362,0.68,-0.828,20.7,67.4,26.8,0,2018,4,24,22,41,44.12,0.3708,-0.4781,0.3096,0.7334
0.295,0.607,-0.73,66,74.3,54.3,0,2018,4,24,22,41,44.134,0.3847,-0.4698,0.3125,0.7304
0.186,0.457,-0.519,102.5,61,72.3,1023,2018,4,24,22,41,44.153,0.4032,-0.4576,0.31,0.7292
0.067,0.217,-0.242,127,51.8,79.2,1023,2018,4,24,22,41,44.176,0.4236,-0.443,0.3026,0.7298
-0.07,0.007,0.104,135.7,50.6,73.5,1023,2018,4,24,22,41,44.194,0.444,-0.4261,0.2934,0.7315
-0.185,-0.053,0.291,126.5,31.4,59,1023,2018,4,24,22,41,44.216,0.4623,-0.409,0.2835,0.7338
-0.24,-0.217,0.299,111.4,-4.1,45.7,1023,2018,4,24,22,41,44.234,0.4757,-0.3953,0.2717,0.7372
-0.285,-0.628,0.387,91.2,1.5,20.7,1023,2018,4,24,22,41,44.257,0.4846,-0.3842,0.2601,0.7415
-0.353,-0.618,0.705,52.3,38.5,-11.6,1023,2018,4,24,22,41,44.275,0.4898,-0.3729,0.2568,0.7449
-0.43,-0.271,0.853,-2.9,-6.5,-36.8,1023,2018,4,24,22,41,44.297,0.4886,-0.367,0.2591,0.7479
-0.391,-0.18,0.596,-46,-65.9,-53.9,1023,2018,4,24,22,41,44.334,0.4785,-0.372,0.2589,0.752
-0.426,-0.333,0.471,-72.2,-55.7,-72.8,1023,2018,4,24,22,41,44.356,0.463,-0.3826,0.2594,0.7561
-0.434,-0.237,0.388,-89.9,-19.2,-87,1023,2018,4,24,22,41,44.361,0.4463,-0.3925,0.2668,0.7586
-0.356,0.142,0.234,-100.3,-2.3,-84.2,0,2018,4,24,22,41,44.377,0.4298,-0.4016,0.2791,0.7588
-0.215,0.462,-0.016,-102.3,-21.5,-72,0,2018,4,24,22,41,44.4,0.4137,-0.4119,0.291,0.7578
-0.06,0.503,-0.263,-91.3,-50.4,-56.5,0,2018,4,24,22,41,44.416,0.3973,-0.4243,0.2975,0.7572
0.074,0.504,-0.352,-70.2,-45.9,-33.3,0,2018,4,24,22,41,44.435,0.3833,-0.4361,0.2996,0.757
0.189,0.487,-0.437,-42.3,-5.8,-4.2,0,2018,4,24,22,41,44.46,0.3758,-0.4444,0.3011,0.7553
0.244,0.613,-0.439,-9.7,45.3,26.6,0,2018,4,24,22,41,44.476,0.3778,-0.4469,0.3047,0.7513
0.244,0.679,-0.409,21.2,47.8,56,0,2018,4,24,22,41,44.499,0.3877,-0.4449,0.3076,0.7463
0.231,0.534,-0.415,49.5,23.9,78.2,0,2018,4,24,22,41,44.518,0.4013,-0.4413,0.3045,0.7424
0.138,0.34,-0.29,72.6,6.7,90.8,0,2018,4,24,22,41,44.542,0.4167,-0.4368,0.2951,0.7405
0.014,0.261,-0.108,87.5,-0.5,97.1,0,2018,4,24,22,41,44.56,0.4332,-0.431,0.2822,0.7395
-0.086,0.044,0.034,96.5,-4.7,96,0,2018,4,24,22,41,44.596,0.4499,-0.4237,0.2677,0.7391
-0.163,-0.327,0.196,96.5,1.6,88,0,2018,4,24,22,41,44.618,0.4662,-0.4155,0.2527,0.739
-0.199,-0.355,0.187,89.6,8.5,73.6,0,2018,4,24,22,41,44.623,0.4814,-0.4061,0.2402,0.7385
-0.208,-0.422,0.18,83.6,7.5,54.4,0,2018,4,24,22,41,44.637,0.4935,-0.3972,0.2291,0.7389
-0.319,-0.499,0.306,70,14.6,24.1,0,2018,4,24,22,41,44.658,0.5021,-0.3878,0.2211,0.7405
-0.399,-0.424,0.625,34.2,0.4,-7.8,0,2018,4,24,22,41,44.675,0.5056,-0.3803,0.2173,0.7432
-0.39,-0.357,0.557,-6.2,-25.1,-39.5,0,2018,4,24,22,41,44.699,0.5016,-0.3791,0.2162,0.7468
-0.365,-0.288,0.378,-36.2,-31,-65,0,2018,4,24,22,41,44.735,0.4916,-0.3828,0.2175,0.7512
-0.393,-0.217,0.403,-64.4,-10.7,-83.2,0,2018,4,24,22,41,44.759,0.478,-0.3885,0.224,0.7551
-0.4,0.03,0.372,-92.1,6.2,-89.1,0,2018,4,24,22,41,44.763,0.4632,-0.3956,0.2364,0.7569
-0.293,0.313,0.103,-107.1,4.5,-82.7,0,2018,4,24,22,41,44.781,0.4481,-0.4047,0.2515,0.7563
-0.186,0.511,-0.047,-108.4,-11.2,-68.1,1023,2018,4,24,22,41,44.799,0.4333,-0.4157,0.265,0.7544
0.019,0.437,-0.157,-94.8,-23.5,-53,1023,2018,4,24,22,41,44.822,0.4191,-0.4278,0.2744,0.7523
0.115,0.393,-0.217,-73.1,0.6,-30.2,1023,2018,4,24,22,41,44.839,0.4085,-0.4377,0.2819,0.7496
0.191,0.402,-0.316,-44.3,49.9,1,1023,2018,4,24,22,41,44.858,0.4056,-0.4429,0.2904,0.7449
0.255,0.425,-0.548,-9.9,94.8,31.1,1023,2018,4,24,22,41,44.882,0.4124,-0.4418,0.3008,0.7376
0.237,0.538,-0.561,26.5,84,58,1023,2018,4,24,22,41,44.898,0.4259,-0.4362,0.3087,0.73
0.195,0.456,-0.384,56.2,45.3,79,1023,2018,4,24,22,41,44.921,0.4419,-0.4297,0.3082,0.7245
0.118,0.271,-0.192,76.4,24.8,89.7,1023,2018,4,24,22,41,44.939,0.4587,-0.4232,0.3006,0.7211
0.056,0.089,-0.123,91.4,21,90.1,1023,2018,4,24,22,41,44.962,0.4761,-0.4154,0.2899,0.7187
-0.003,-0.012,-0.117,100.9,17.4,81,1023,2018,4,24,22,41,44.98,0.4929,-0.4065,0.2786,0.7169
-0.049,-0.039,0.008,105.9,8.4,68,1023,2018,4,24,22,41,45.004,0.508,-0.3966,0.2663,0.7166
-0.12,-0.151,0.198,100.4,-8.9,52.9,1023,2018,4,24,22,41,45.02,0.5202,-0.3865,0.2526,0.7183
-0.2,-0.172,0.33,82.4,-41.3,35.4,0,2018,4,24,22,41,45.043,0.528,-0.3792,0.2382,0.7215
-0.236,-0.344,0.328,59.9,-69.3,13.8,0,2018,4,24,22,41,45.061,0.5301,-0.3766,0.2226,0.7263
-0.266,-0.442,0.391,34.8,-68,-11.2,0,2018,4,24,22,41,45.085,0.5273,-0.3771,0.2093,0.7319
-0.312,-0.353,0.445,6.7,-65.3,-34.1,0,2018,4,24,22,41,45.103,0.5206,-0.3798,0.2005,0.7378
-0.323,-0.2,0.402,-19.6,-68.5,-51,0,2018,4,24,22,41,45.126,0.5103,-0.3853,0.1955,0.7435
-0.297,-0.166,0.274,-35.1,-56.8,-63.6,0,2018,4,24,22,41,45.142,0.4974,-0.3927,0.1935,0.7488
-0.285,-0.203,0.236,-46.3,-24.4,-75.1,0,2018,4,24,22,41,45.16,0.4841,-0.3991,0.1965,0.7534
-0.331,-0.007,0.315,-64.6,-5.5,-81.1,0,2018,4,24,22,41,45.183,0.4707,-0.4047,0.2051,0.7566
-0.326,0.191,0.297,-80.5,-15,-75,0,2018,4,24,22,41,45.201,0.4567,-0.4123,0.2154,0.7581
-0.26,0.246,0.108,-87,-23.1,-63.9,0,2018,4,24,22,41,45.225,0.443,-0.4224,0.2245,0.7581
-0.128,0.16,-0.073,-80.4,-4.9,-50.6,0,2018,4,24,22,41,45.241,0.4311,-0.4325,0.233,0.7567
-0.051,0.272,-0.163,-66.9,18.9,-34.9,0,2018,4,24,22,41,45.263,0.4231,-0.4398,0.243,0.7539
-0.014,0.361,-0.2,-51.9,30.8,-21.4,0,2018,4,24,22,41,45.301,0.4189,-0.4445,0.2528,0.7503
0.077,0.342,-0.212,-35.7,52.1,-6.4,0,2018,4,24,22,41,45.322,0.4183,-0.4466,0.2624,0.746
0.176,0.305,-0.292,-16.3,68.8,7.6,0,2018,4,24,22,41,45.324,0.4222,-0.4453,0.2724,0.7409
0.279,0.379,-0.31,4.3,41.7,22,0,2018,4,24,22,41,45.359,0.4284,-0.4425,0.2792,0.7366
0.317,0.3,-0.22,25.3,9,33.8,0,2018,4,24,22,41,45.383,0.4346,-0.4401,0.2786,0.7346
0.305,0.162,-0.186,44.2,11.5,42.9,0,2018,4,24,22,41,45.387,0.4418,-0.437,0.2739,0.7339
0.282,0.07,-0.099,60.4,38.1,46.2,0,2018,4,24,22,41,45.403,0.4521,-0.4302,0.2696,0.7332
0.208,0.183,0.012,69,38.2,45.5,0,2018,4,24,22,41,45.421,0.4642,-0.4206,0.2664,0.7324
0.152,0.178,0.033,72.6,2.2,43.2,0,2018,4,24,22,41,45.442,0.475,-0.4117,0.2601,0.7328
0.066,-0.04,0.053,76.3,-15.8,39.3,1023,2018,4,24,22,41,45.477,0.4828,-0.405,0.2501,0.7349
-0.046,-0.237,0.152,75.4,3.4,28.8,1023,2018,4,24,22,41,45.5,0.49,-0.3975,0.2401,0.7376
-0.165,-0.19,0.258,63.7,22.4,14,1023,2018,4,24,22,41,45.504,0.4965,-0.388,0.2345,0.7401
-0.232,-0.07,0.194,48.1,-7.9,0,1023,2018,4,24,22,41,45.541,0.5003,-0.3802,0.2306,0.7428
-0.332,-0.162,0.128,35.6,-54.4,-15.8,1023,2018,4,24,22,41,45.564,0.4985,-0.3775,0.223,0.7477
-0.433,-0.31,0.268,17.9,-56.5,-33.9,1023,2018,4,24,22,41,45.569,0.4923,-0.3781,0.2146,0.7539
-0.491,-0.435,0.324,-5.7,-34.9,-54,1023,2018,4,24,22,41,45.586,0.4832,-0.3799,0.2108,0.76
-0.465,-0.256,0.273,-25.4,-1.1,-68.2,1023,2018,4,24,22,41,45.621,0.4728,-0.3814,0.214,0.7649
-0.441,-0.182,0.086,-33.9,34.2,-74.8,1023,2018,4,24,22,41,45.644,0.4631,-0.3813,0.2236,0.7681
-0.441,-0.072,0.086,-44.5,58.2,-80,1023,2018,4,24,22,41,45.649,0.4541,-0.3795,0.2384,0.7699
-0.419,0.252,0.208,-58.7,78.4,-70.3,0,2018,4,24,22,41,45.665,0.4464,-0.3774,0.2571,0.7694
-0.292,0.39,0.13,-72,27.5,-50,0,2018,4,24,22,41,45.684,0.4393,-0.3793,0.2736,0.7669
-0.16,0.191,-0.026,-73.2,8,-42.8,0,2018,4,24,22,41,45.707,0.4308,-0.3858,0.284,0.7647
-0.095,0.207,0.007,-69.3,25.8,-33.1,0,2018,4,24,22,41,45.724,0.4233,-0.392,0.294,0.7619
0.001,0.418,0.064,-70.8,30.8,-23.8,0,2018,4,24,22,41,45.748,0.418,-0.3975,0.3054,0.7575
0.155,0.302,-0.029,-67.3,6,-16.6,0,2018,4,24,22,41,45.785,0.413,-0.4044,0.3141,0.7531
0.273,0.205,-0.172,-55.9,10.6,-12.3,0,2018,4,24,22,41,45.807,0.408,-0.4112,0.3203,0.7494
0.362,0.348,-0.221,-42.4,22.6,-1.7,0,2018,4,24,22,41,45.81,0.4057,-0.4159,0.3267,0.7453
0.39,0.409,-0.19,-27.2,8.5,5.1,0,2018,4,24,22,41,45.827,0.4052,-0.4193,0.3312,0.7417
0.335,0.398,-0.108,-12.6,-14.3,16.1,0,2018,4,24,22,41,45.862,0.4052,-0.4227,0.3313,0.7397
0.328,0.33,-0.219,6.1,-15.7,32.9,0,2018,4,24,22,41,45.885,0.4069,-0.4257,0.3276,0.7387
0.294,0.293,-0.236,30.3,-11.2,46.6,0,2018,4,24,22,41,45.889,0.4123,-0.4265,0.3215,0.7379
0.188,0.213,-0.185,50.8,-10.1,54.3,0,2018,4,24,22,41,45.908,0.4204,-0.4247,0.3134,0.7379
0.062,0.117,-0.086,63.5,-8.4,59.5,0,2018,4,24,22,41,45.926,0.4302,-0.421,0.3036,0.7385
-0.035,0.031,-0.039,70.9,-9.3,59.7,0,2018,4,24,22,41,45.951,0.4404,-0.4164,0.2936,0.7391
-0.115,-0.146,0.05,73.4,-6.5,53.6,0,2018,4,24,22,41,45.968,0.4509,-0.4107,0.2827,0.7402
-0.194,-0.212,0.048,71,-0.1,42.6,0,2018,4,24,22,41,45.987,0.4605,-0.4039,0.2732,0.7416
-0.327,-0.183,0.122,63.5,1.4,28,0,2018,4,24,22,41,46.009,0.4687,-0.3964,0.2656,0.7432
-0.456,-0.205,0.248,44.2,-13.4,10,0,2018,4,24,22,41,46.026,0.4736,-0.3906,0.2593,0.7455
-0.448,-0.417,0.156,27,-46.5,-15,0,2018,4,24,22,41,46.062,0.4729,-0.3884,0.2524,0.7494
-0.461,-0.541,0.293,3.6,-54.2,-45.4,0,2018,4,24,22,41,46.085,0.4658,-0.3894,0.2462,0.7554
-0.526,-0.388,0.477,-24,-25.8,-63.5,0,2018,4,24,22,41,46.09,0.4553,-0.3917,0.2455,0.7608
-0.463,-0.141,0.488,-49.2,1.4,-72.5,0,2018,4,24,22,41,46.108,0.4441,-0.3943,0.2518,0.764
-0.417,0.153,0.486,-75,5.3,-74.1,1023,2018,4,24,22,41,46.146,0.4319,-0.3989,0.2627,0.765
-0.348,0.194,0.386,-97.3,-7.3,-72,1023,2018,4,24,22,41,46.146,0.4181,-0.4071,0.2742,0.7643
-0.291,0.219,0.202,-114.7,-28.1,-66.3,1023,2018,4,24,22,41,46.17,0.4023,-0.4192,0.2845,0.7624
-0.148,0.263,-0.013,-120.7,-52.9,-57.1,1023,2018,4,24,22,41,46.188,0.385,-0.4348,0.2917,0.7599
0.02,0.262,-0.205,-112.6,-60.9,-47.6,1023,2018,4,24,22,41,46.211,0.3675,-0.4516,0.2957,0.7572
0.203,0.273,-0.41,-89.2,-49,-35.4,1023,2018,4,24,22,41,46.229,0.3521,-0.4665,0.2979,0.7546
0.391,0.334,-0.542,-51.6,-13,-22.3,1023,2018,4,24,22,41,46.252,0.342,-0.4762,0.3004,0.7522
0.482,0.43,-0.489,-5.4,34.5,-1.6,1023,2018,4,24,22,41,46.289,0.3402,-0.4782,0.3047,0.75
0.43,0.514,-0.403,32.6,67.2,21,1023,2018,4,24,22,41,46.312,0.3469,-0.4735,0.31,0.7478
0.327,0.512,-0.283,59,63.2,40.3,1023,2018,4,24,22,41,46.317,0.3592,-0.4649,0.3134,0.746
0.26,0.295,-0.214,78.1,44,51.3,1023,2018,4,24,22,41,46.329,0.3733,-0.455,0.3121,0.7457
0.189,0.016,-0.07,93.6,49.2,54.3,1023,2018,4,24,22,41,46.349,0.3884,-0.4439,0.308,0.7463
0.01,-0.013,0.094,98.1,51.8,44.1,0,2018,4,24,22,41,46.367,0.4041,-0.4309,0.3045,0.7471
-0.125,-0.131,0.173,92.1,27.1,30.8,0,2018,4,24,22,41,46.391,0.4173,-0.4172,0.2998,0.7495
-0.244,-0.376,0.201,75.8,-1.9,5.5,0,2018,4,24,22,41,46.428,0.4247,-0.4063,0.2938,0.7536
-0.361,-0.509,0.274,52.6,-21.7,-26.2,0,2018,4,24,22,41,46.45,0.4257,-0.3983,0.2881,0.7596
-0.497,-0.518,0.511,20,-34.7,-59.7,0,2018,4,24,22,41,46.455,0.4197,-0.3933,0.2847,0.7668
-0.569,-0.427,0.614,-17.1,-45,-87.7,0,2018,4,24,22,41,46.471,0.4068,-0.3925,0.2842,0.7743
-0.569,-0.333,0.484,-47.1,-32.5,-105,0,2018,4,24,22,41,46.494,0.389,-0.3951,0.2877,0.7808
-0.602,-0.149,0.361,-70.5,-0.2,-112.8,0,2018,4,24,22,41,46.511,0.3698,-0.3986,0.2972,0.7847
-0.525,0.084,0.236,-87.4,16.2,-106.4,0,2018,4,24,22,41,46.534,0.3511,-0.4031,0.3114,0.7856
-0.388,0.374,0.113,-94.8,5.9,-83.8,0,2018,4,24,22,41,46.55,0.3337,-0.4096,0.3254,0.7841
-0.23,0.511,-0.016,-91.4,-1.5,-54.1,0,2018,4,24,22,41,46.569,0.319,-0.4185,0.3358,0.7811
0.005,0.592,-0.227,-76.7,4.5,-20.5,0,2018,4,24,22,41,46.588,0.309,-0.4278,0.3433,0.7769
0.22,0.665,-0.412,-50.5,16.8,14.3,0,2018,4,24,22,41,46.628,0.3056,-0.4357,0.3483,0.7715
0.314,0.708,-0.4,-18.7,29.6,45.6,0,2018,4,24,22,41,46.652,0.3096,-0.4408,0.351,0.7658
0.324,0.646,-0.376,10.6,32.3,74.8,0,2018,4,24,22,41,46.657,0.32,-0.4432,0.3507,0.7602
0.339,0.431,-0.326,39.8,39,94.7,0,2018,4,24,22,41,46.672,0.3357,-0.443,0.3471,0.7552
0.332,0.115,-0.239,69.1,67.4,103.6,0,2018,4,24,22,41,46.696,0.3561,-0.4387,0.3428,0.7503
0.244,-0.037,-0.127,90.8,108.8,101.9,0,2018,4,24,22,41,46.712,0.3814,-0.4284,0.3415,0.7445
0.144,0.02,-0.016,101.1,112.8,89.3,0,2018,4,24,22,41,46.736,0.4081,-0.4141,0.3431,0.7376
0.041,0.057,0.072,100.9,50.7,73.7,0,2018,4,24,22,41,46.749,0.43,-0.4,0.3411,0.7339
-0.084,-0.31,0.158,94.8,5.6,53.2,1023,2018,4,24,22,41,46.789,0.4456,-0.3893,0.3322,0.7344
-0.219,-0.469,0.298,79.8,-10.4,25.3,1023,2018,4,24,22,41,46.81,0.4554,-0.3806,0.3222,0.7375
-0.33,-0.481,0.365,52.3,-28.4,-5.7,1023,2018,4,24,22,41,46.814,0.4592,-0.374,0.3139,0.742
-0.39,-0.506,0.357,23.2,-58,-40.8,1023,2018,4,24,22,41,46.831,0.4556,-0.3712,0.307,0.7485
-0.445,-0.58,0.336,-5.3,-76.1,-80,1023,2018,4,24,22,41,46.855,0.4438,-0.3722,0.3012,0.7574
-0.526,-0.459,0.408,-35,-70.5,-113.6,1023,2018,4,24,22,41,46.874,0.4248,-0.3754,0.2994,0.7674
-0.564,-0.256,0.355,-59,-59.1,-133.1,1023,2018,4,24,22,41,46.907,0.4011,-0.38,0.3024,0.7766
-0.544,-0.027,0.289,-75.8,-46.2,-138.3,1023,2018,4,24,22,41,46.931,0.3752,-0.3856,0.309,0.7841
-0.463,0.306,0.142,-84.6,-35.1,-122.3,1023,2018,4,24,22,41,46.935,0.3499,-0.3921,0.3176,0.7891
-0.311,0.474,0.064,-82.3,-22.9,-94.1,1023,2018,4,24,22,41,46.953,0.3282,-0.3994,0.326,0.7914
-0.222,0.522,-0.015,-75.9,6.1,-60.4,1023,2018,4,24,22,41,46.977,0.3124,-0.4064,0.3346,0.7906
-0.041,0.666,-0.143,-59.4,36.5,-17.8,0,2018,4,24,22,41,46.994,0.3047,-0.4124,0.3441,0.7865
0.087,0.768,-0.231,-37.5,57.5,26.3,0,2018,4,24,22,41,47.017,0.3061,-0.4166,0.353,0.7797
0.161,0.806,-0.306,-17,46.7,64.1,0,2018,4,24,22,41,47.054,0.3148,-0.4202,0.3584,0.7718
0.225,0.637,-0.334,2.3,11.7,90.6,0,2018,4,24,22,41,47.054,0.327,-0.4245,0.3568,0.7651
0.267,0.352,-0.312,26.7,4.9,105.7,0,2018,4,24,22,41,47.077,0.3415,-0.4284,0.3492,0.7601
0.247,0.181,-0.26,49.6,30.9,114.6,0,2018,4,24,22,41,47.094,0.3598,-0.4288,0.3407,0.7553
0.179,0.227,-0.242,66.7,48.2,115.7,0,2018,4,24,22,41,47.118,0.3817,-0.425,0.3339,0.7497
0.086,0.177,-0.259,84,31.9,112.7,0,2018,4,24,22,41,47.135,0.4041,-0.4188,0.3257,0.745
-0.007,-0.069,-0.125,100,5.1,105.5,0,2018,4,24,22,41,47.158,0.4246,-0.4121,0.3134,0.7426
-0.103,-0.264,0.079,105.5,2.7,91.3,0,2018,4,24,22,41,47.176,0.4431,-0.4038,0.2987,0.7425
-0.19,-0.309,0.291,98.8,17.4,70.5,0,2018,4,24,22,41,47.2,0.4598,-0.3935,0.2863,0.7427
-0.234,-0.37,0.443,77.8,3.4,42.2,0,2018,4,24,22,41,47.217,0.4726,-0.3836,0.2771,0.7433
-0.297,-0.469,0.501,46.7,-31.2,9.6,0,2018,4,24,22,41,47.241,0.4779,-0.3779,0.2684,0.746
-0.325,-0.556,0.507,12,-52.9,-22.5,0,2018,4,24,22,41,47.257,0.4753,-0.3777,0.2605,0.7506
-0.326,-0.55,0.49,-20.5,-53.3,-55.5,0,2018,4,24,22,41,47.274,0.4661,-0.3811,0.2565,0.756
-0.364,-0.472,0.407,-45.2,-48.2,-83.1,0,2018,4,24,22,41,47.297,0.452,-0.3865,0.2573,0.7616
-0.396,-0.458,0.24,-58.6,-39.2,-105.5,0,2018,4,24,22,41,47.334,0.4341,-0.3926,0.262,0.7672
-0.431,-0.342,0.104,-66.4,-26.2,-124.7,0,2018,4,24,22,41,47.356,0.4133,-0.3981,0.2703,0.7729
-0.364,-0.081,-0.01,-69.3,-25.4,-135.6,0,2018,4,24,22,41,47.361,0.3906,-0.4026,0.2812,0.7785
-0.301,0.183,0.01,-64.9,-34.8,-132.4,0,2018,4,24,22,41,47.379,0.3665,-0.4071,0.2909,0.7843
-0.229,0.337,0.035,-58.8,-27.4,-116.8,0,2018,4,24,22,41,47.397,0.3439,-0.4112,0.2992,0.7893
-0.097,0.403,-0.036,-52.3,0.3,-95.5,0,2018,4,24,22,41,47.421,0.3253,-0.4141,0.3081,0.7922
0.01,0.632,-0.008,-44.8,32,-67.1,1023,2018,4,24,22,41,47.438,0.3127,-0.4153,0.3192,0.7923
0.132,0.879,0.014,-38.7,36.2,-26.6,1023,2018,4,24,22,41,47.462,0.3065,-0.4164,0.3299,0.7897
0.253,0.891,-0.094,-27.4,22.8,13.2,1023,2018,4,24,22,41,47.479,0.306,-0.4191,0.3362,0.7858
0.295,0.735,-0.169,-9.4,15.9,47.9,1023,2018,4,24,22,41,47.503,0.3106,-0.4226,0.3372,0.7817
0.293,0.634,-0.165,11.4,21,77.8,1023,2018,4,24,22,41,47.517,0.3207,-0.4252,0.3349,0.7772
0.245,0.458,-0.087,33.1,36.3,102,1023,2018,4,24,22,41,47.536,0.3364,-0.4257,0.3306,0.7721
0.141,0.25,-0.125,54.4,60.9,119,1023,2018,4,24,22,41,47.556,0.3576,-0.4232,0.3262,0.7658
0.078,0.095,-0.156,75.5,73.3,124.4,1023,2018,4,24,22,41,47.594,0.3828,-0.4169,0.3222,0.7587
-0.021,-0.077,-0.116,94.7,71.2,124.1,1023,2018,4,24,22,41,47.617,0.409,-0.4083,0.317,0.7519
-0.14,-0.089,0.022,105.6,65.5,116.4,1023,2018,4,24,22,41,47.622,0.4354,-0.3971,0.31,0.7459
-0.275,-0.37,0.208,103.2,45.6,99.7,1023,2018,4,24,22,41,47.641,0.459,-0.385,0.3014,0.7417
-0.38,-0.629,0.366,85.2,50.7,65.8,1023,2018,4,24,22,41,47.658,0.478,-0.3731,0.2942,0.7387
-0.434,-0.583,0.423,55.1,52.3,28.8,0,2018,4,24,22,41,47.68,0.4908,-0.3619,0.2921,0.7366
-0.466,-0.582,0.307,24.6,38.1,-8.9,0,2018,4,24,22,41,47.699,0.4964,-0.3538,0.294,0.7361
-0.473,-0.518,0.188,-3.4,16.6,-49.8,0,2018,4,24,22,41,47.723,0.4945,-0.3486,0.2986,0.738
-0.461,-0.383,0.135,-29.8,-10,-84.2,0,2018,4,24,22,41,47.74,0.4847,-0.3471,0.3045,0.7428
-0.441,-0.187,0.195,-53.2,-33.2,-113,0,2018,4,24,22,41,47.763,0.4678,-0.3493,0.3111,0.7498
-0.472,-0.029,0.22,-73.7,-31.5,-127.5,0,2018,4,24,22,41,47.778,0.4463,-0.3537,0.3192,0.7574
-0.407,0.14,0.037,-83.3,-19,-129.5,0,2018,4,24,22,41,47.817,0.4231,-0.3589,0.33,0.7636
-0.371,0.332,-0.098,-84.7,-12.5,-122,0,2018,4,24,22,41,47.817,0.4002,-0.3638,0.3422,0.7683
-0.258,0.54,0.02,-86,-9.2,-102,0,2018,4,24,22,41,47.84,0.3791,-0.3692,0.3537,0.7711
-0.047,0.762,0.003,-84.6,-10.1,-68.9,0,2018,4,24,22,41,47.877,0.3617,-0.376,0.3636,0.7716
0.136,0.861,-0.225,-68.2,-16.6,-26.9,0,2018,4,24,22,41,47.898,0.3495,-0.3843,0.3697,0.7703
0.269,0.794,-0.39,-41,-13.7,13.7,0,2018,4,24,22,41,47.9,0.3441,-0.3923,0.3711,0.768
0.405,0.73,-0.502,-7.5,-1.4,49.6,0,2018,4,24,22,41,47.936,0.3465,-0.398,0.3694,0.7648
0.419,0.677,-0.369,29.4,6.6,83.1,0,2018,4,24,22,41,47.957,0.3565,-0.4005,0.3643,0.7613
0.283,0.464,-0.189,59.8,13.5,106.4,0,2018,4,24,22,41,47.964,0.3728,-0.3998,0.356,0.7578
0.127,0.248,-0.101,78.2,19.1,117.4,0,2018,4,24,22,41,47.981,0.3933,-0.3962,0.3458,0.754
0.07,-0.079,-0.05,89.8,21,115,0,2018,4,24,22,41,47.999,0.4149,-0.3912,0.3346,0.7501
0.029,-0.299,0.136,96.5,35.6,102,0,2018,4,24,22,41,48.023,0.4365,-0.3832,0.3238,0.7467
-0.076,-0.399,0.255,90.8,48.5,79.3,0,2018,4,24,22,41,48.04,0.4565,-0.3725,0.3161,0.7434
-0.182,-0.388,0.351,74.5,44.3,48.3,0,2018,4,24,22,41,48.063,0.4726,-0.3611,0.3116,0.7409
-0.231,-0.483,0.336,52.8,21.2,15.1,0,2018,4,24,22,41,48.081,0.482,-0.352,0.3086,0.7405
-0.368,-0.578,0.259,31.3,10.8,-23.5,1023,2018,4,24,22,41,48.104,0.4845,-0.3451,0.3073,0.7427
-0.441,-0.49,0.384,1,-7.4,-56.5,1023,2018,4,24,22,41,48.123,0.4798,-0.3407,0.3086,0.7471
-0.527,-0.482,0.418,-31.3,-27,-92.3,1023,2018,4,24,22,41,48.146,0.4678,-0.3403,0.312,0.7535
-0.533,-0.468,0.237,-55.7,-42.3,-122.2,1023,2018,4,24,22,41,48.165,0.4488,-0.3433,0.3173,0.7615
-0.565,-0.284,0.135,-68.9,-36.4,-143.6,1023,2018,4,24,22,41,48.182,0.425,-0.3472,0.325,0.7701
-0.546,-0.061,0.161,-81.2,-21.4,-153.3,1023,2018,4,24,22,41,48.206,0.3987,-0.3508,0.3356,0.7779
-0.49,0.281,0.161,-92.9,-16.5,-145,1023,2018,4,24,22,41,48.242,0.3718,-0.355,0.3484,0.7837
-0.372,0.496,-0.015,-97.6,-16.8,-119.8,1023,2018,4,24,22,41,48.242,0.3466,-0.361,0.3604,0.7871
-0.219,0.661,-0.206,-92.1,-9.2,-88.7,1023,2018,4,24,22,41,48.266,0.3252,-0.3683,0.3707,0.788
-0.072,0.962,-0.207,-77.9,-0.7,-41.2,1023,2018,4,24,22,41,48.282,0.3104,-0.376,0.3792,0.7863
0.04,1.059,-0.283,-55.1,-11.2,14.9,1023,2018,4,24,22,41,48.321,0.304,-0.3846,0.3828,0.7829
0.125,0.932,-0.364,-24.4,-21.4,67.3,1023,2018,4,24,22,41,48.343,0.306,-0.3938,0.3796,0.7791
0.17,0.652,-0.338,10.9,-9,109.6,0,2018,4,24,22,41,48.347,0.3167,-0.4014,0.3714,0.7749
0.172,0.512,-0.233,41.9,14.6,143.6,0,2018,4,24,22,41,48.364,0.336,-0.4056,0.3612,0.7694
0.078,0.452,-0.096,59.8,8.9,163,0,2018,4,24,22,41,48.387,0.3611,-0.4072,0.3492,0.7627
0.031,0.094,-0.02,73.6,-18.4,169,0,2018,4,24,22,41,48.405,0.3868,-0.4087,0.332,0.7569
0.023,-0.381,0.14,83.8,-10,157.9,0,2018,4,24,22,41,48.445,0.4116,-0.4089,0.3124,0.752
-0.002,-0.636,0.283,86.5,31.5,130.2,0,2018,4,24,22,41,48.448,0.4359,-0.4046,0.2971,0.7469
-0.088,-0.549,0.413,72.6,54.2,91.1,0,2018,4,24,22,41,48.464,0.4576,-0.396,0.2893,0.7416
-0.224,-0.583,0.437,47.1,29.1,46.8,0,2018,4,24,22,41,48.486,0.4727,-0.3879,0.2856,0.7378
-0.325,-0.699,0.467,11.9,-19.3,-1.8,0,2018,4,24,22,41,48.504,0.4772,-0.3849,0.2822,0.7378
-0.307,-0.711,0.472,-27,-49.9,-49.7,0,2018,4,24,22,41,48.523,0.4709,-0.3877,0.2799,0.7412
-0.338,-0.443,0.435,-64.9,-64.4,-87.8,0,2018,4,24,22,41,48.561,0.4558,-0.3949,0.2812,0.7463
-0.37,-0.15,0.278,-90.9,-80.9,-112.5,0,2018,4,24,22,41,48.581,0.4333,-0.4061,0.285,0.7523
-0.35,-0.006,0.065,-98.8,-82.9,-122,0,2018,4,24,22,41,48.583,0.4067,-0.419,0.2895,0.7583
-0.274,0.244,-0.09,-90.7,-58.1,-116.2,0,2018,4,24,22,41,48.621,0.3806,-0.4304,0.2955,0.7631
-0.154,0.482,-0.114,-78.8,-33.8,-96.1,0,2018,4,24,22,41,48.644,0.3584,-0.4391,0.303,0.7659
-0.036,0.632,-0.15,-63.7,-10.3,-62.1,0,2018,4,24,22,41,48.649,0.3423,-0.4457,0.3107,0.7664
0.075,0.686,-0.299,-39.2,12.2,-19.5,0,2018,4,24,22,41,48.667,0.3343,-0.4504,0.3171,0.7646
0.157,0.778,-0.408,-7.9,28,23.7,0,2018,4,24,22,41,48.691,0.3352,-0.4523,0.3212,0.7614
0.171,0.716,-0.345,22.7,19.3,62.8,0,2018,4,24,22,41,48.707,0.3436,-0.4522,0.3203,0.758
0.145,0.464,-0.262,49.3,16.1,91,0,2018,4,24,22,41,48.724,0.3573,-0.4507,0.314,0.7553
0.144,0.226,-0.222,69.2,31.4,108.7,0,2018,4,24,22,41,48.747,0.3757,-0.4468,0.3052,0.7523
0.16,0.147,-0.238,89,38.7,114.2,0,2018,4,24,22,41,48.766,0.3985,-0.4394,0.2956,0.7487
0.116,0.075,-0.118,109.3,34.8,112.9,1023,2018,4,24,22,41,48.787,0.4211,-0.4296,0.2845,0.7463
0.004,-0.178,0.141,120.4,47,102.9,1023,2018,4,24,22,41,48.805,0.4439,-0.4172,0.273,0.7444
-0.122,-0.38,0.437,115.2,52.1,82.5,1023,2018,4,24,22,41,48.827,0.4642,-0.4028,0.2641,0.7432
-0.181,-0.467,0.448,98.9,39.8,53.4,1023,2018,4,24,22,41,48.865,0.4813,-0.388,0.2567,0.7428
-0.368,-0.373,0.342,73.4,12.3,14.4,1023,2018,4,24,22,41,48.888,0.491,-0.3761,0.2505,0.7447
-0.457,-0.416,0.569,30.4,-29.2,-20.3,1023,2018,4,24,22,41,48.893,0.4917,-0.3701,0.2449,0.749
-0.495,-0.356,0.754,-23.7,-69,-55.3,1023,2018,4,24,22,41,48.909,0.4831,-0.3726,0.2407,0.7548
-0.539,-0.301,0.575,-66.8,-84,-79.8,1023,2018,4,24,22,41,48.927,0.4664,-0.3828,0.2385,0.7608
-0.511,-0.15,0.26,-90,-76.5,-95.5,1023,2018,4,24,22,41,48.952,0.4446,-0.3971,0.2403,0.766
-0.471,-0.01,0.083,-96.8,-57.9,-100.9,1023,2018,4,24,22,41,48.989,0.4229,-0.4105,0.2454,0.7696
-0.39,0.211,-0.015,-97.4,-44.8,-93.7,1023,2018,4,24,22,41,48.989,0.4019,-0.4229,0.2529,0.7717
-0.239,0.341,-0.065,-91.4,-44.6,-79.2,1023,2018,4,24,22,41,49.012,0.3826,-0.4348,0.26,0.7725
-0.057,0.257,-0.147,-79.4,-20.4,-61.3,0,2018,4,24,22,41,49.031,0.3665,-0.4455,0.2661,0.7722
0.149,0.423,-0.206,-62.9,32.1,-32.8,0,2018,4,24,22,41,49.047,0.3573,-0.4524,0.2752,0.7692
0.293,0.668,-0.265,-39.8,60.9,1.8,0,2018,4,24,22,41,49.071,0.3569,-0.4554,0.2864,0.7636
0.338,0.762,-0.332,-15.7,44.2,32.6,0,2018,4,24,22,41,49.089,0.362,-0.4565,0.2936,0.7578
0.321,0.548,-0.28,11.7,21,60.8,0,2018,4,24,22,41,49.11,0.371,-0.4573,0.2937,0.7529
0.295,0.361,-0.187,33.9,30.4,83.8,0,2018,4,24,22,41,49.148,0.3838,-0.4563,0.2894,0.7487
0.254,0.201,-0.163,54,49.4,95.8,0,2018,4,24,22,41,49.171,0.4012,-0.4522,0.2845,0.7439
0.178,0.163,-0.154,71.3,53.7,97.9,0,2018,4,24,22,41,49.175,0.4211,-0.4449,0.2792,0.7393
0.091,0.101,-0.091,84.6,46.4,93.9,0,2018,4,24,22,41,49.193,0.4412,-0.4356,0.2724,0.7357
-0.025,-0.116,0.05,92.7,39,86.3,0,2018,4,24,22,41,49.209,0.46,-0.4255,0.2641,0.7331
-0.103,-0.229,0.112,91.7,28.7,71.1,0,2018,4,24,22,41,49.227,0.4769,-0.4144,0.255,0.7318
-0.174,-0.234,0.193,83.6,18.3,52.6,0,2018,4,24,22,41,49.251,0.4905,-0.4038,0.2463,0.7318
-0.265,-0.315,0.239,68.9,2.9,29.7,0,2018,4,24,22,41,49.268,0.4995,-0.3949,0.2382,0.7332
-0.342,-0.382,0.177,54.7,-7.9,3.3,0,2018,4,24,22,41,49.29,0.5036,-0.3882,0.2311,0.7363
-0.468,-0.303,0.262,35.4,-13.5,-21.5,0,2018,4,24,22,41,49.326,0.5032,-0.3829,0.2263,0.7407
-0.474,-0.253,0.414,3.6,-27.8,-44.3,0,2018,4,24,22,41,49.349,0.4983,-0.3808,0.2243,0.7458
-0.459,-0.154,0.556,-28.7,-40.3,-60.3,0,2018,4,24,22,41,49.353,0.4881,-0.3838,0.2243,0.751
-0.415,-0.152,0.348,-49.5,-22.9,-67,0,2018,4,24,22,41,49.389,0.4756,-0.3893,0.2277,0.7551
-0.327,-0.117,0.302,-65.7,30.4,-71.4,0,2018,4,24,22,41,49.412,0.464,-0.3941,0.2373,0.7569
-0.362,0.352,0.314,-84.4,67.6,-59.2,0,2018,4,24,22,41,49.417,0.4561,-0.3965,0.2556,0.7545
-0.326,0.728,0.167,-104,6.4,-39.8,0,2018,4,24,22,41,49.43,0.4484,-0.4033,0.2721,0.7497
-0.139,0.601,0.027,-111.5,-73.4,-19.5,0,2018,4,24,22,41,49.448,0.4367,-0.4191,0.2775,0.7459
-0.021,0.288,-0.1,-106.2,-96.4,-7.8,0,2018,4,24,22,41,49.471,0.4228,-0.4395,0.275,0.7431
0.083,0.194,-0.242,-88.7,-70.1,6,1023,2018,4,24,22,41,49.489,0.4114,-0.4583,0.2713,0.7395
0.242,0.229,-0.376,-62.2,-38.9,19.4,1023,2018,4,24,22,41,49.512,0.4053,-0.4724,0.2687,0.7349
0.349,0.211,-0.416,-31.6,-21,30.2,1023,2018,4,24,22,41,49.534,0.404,-0.4815,0.2663,0.7306
0.379,0.034,-0.451,1.5,8.2,38.8,1023,2018,4,24,22,41,49.569,0.4072,-0.4854,0.2634,0.7273
0.367,-0.016,-0.386,33.5,55.1,42.2,1023,2018,4,24,22,41,49.592,0.4159,-0.4827,0.2627,0.7244
0.345,0.021,-0.339,61.5,93.5,40.6,1023,2018,4,24,22,41,49.597,0.4299,-0.4728,0.2653,0.7219
0.221,0.086,-0.204,83.5,90.4,30.7,1023,2018,4,24,22,41,49.612,0.4457,-0.4578,0.2689,0.7206
0.105,0.052,-0.04,93.2,55.1,20.8,1023,2018,4,24,22,41,49.634,0.4586,-0.4422,0.2691,0.7221
-0.03,-0.052,0.134,92.3,27.8,10.5,1023,2018,4,24,22,41,49.673,0.4681,-0.4279,0.2655,0.726
-0.092,-0.148,0.156,86.8,7,-1.4,1023,2018,4,24,22,41,49.673,0.4742,-0.4153,0.2599,0.7314
-0.221,-0.185,0.223,76.1,-10.4,-15.2,1023,2018,4,24,22,41,49.695,0.4768,-0.4045,0.2535,0.738
-0.332,-0.154,0.384,54,-27.6,-27.6,0,2018,4,24,22,41,49.712,0.4757,-0.3965,0.2472,0.7451
-0.397,-0.123,0.505,23.8,-48.2,-37.5,0,2018,4,24,22,41,49.733,0.4703,-0.3933,0.2412,0.7521
-0.439,-0.163,0.465,-2.7,-50.9,-45.6,0,2018,4,24,22,41,49.771,0.4618,-0.3945,0.2366,0.7583
-0.463,-0.208,0.281,-19,-34.6,-53.7,0,2018,4,24,22,41,49.794,0.4516,-0.3976,0.2352,0.7632
-0.462,-0.157,0.251,-33.5,-1.1,-59.6,0,2018,4,24,22,41,49.798,0.4419,-0.4,0.2389,0.7665
-0.423,0.153,0.249,-51.3,0.5,-58.3,0,2018,4,24,22,41,49.815,0.4328,-0.4027,0.2471,0.7677
-0.364,0.196,0.127,-63.1,-29.6,-50.9,0,2018,4,24,22,41,49.833,0.4218,-0.4093,0.2532,0.7683
-0.305,0.142,0.097,-68.3,-30,-43.3,0,2018,4,24,22,41,49.856,0.4103,-0.4183,0.2571,0.7684
-0.233,0.152,0.065,-72.3,-20.6,-34.5,0,2018,4,24,22,41,49.894,0.4,-0.4278,0.2618,0.767
-0.121,0.248,-0.021,-72.5,-10.5,-24.4,0,2018,4,24,22,41,49.917,0.3917,-0.4372,0.267,0.7642
0.011,0.388,-0.079,-64.3,-14.7,-10.9,0,2018,4,24,22,41,49.921,0.3851,-0.4463,0.2714,0.7607
0.066,0.355,-0.031,-55.3,-16.5,2.9,0,2018,4,24,22,41,49.935,0.3806,-0.4551,0.2734,0.757
0.186,0.223,-0.055,-46.2,-0.3,11.4,0,2018,4,24,22,41,49.952,0.3785,-0.4628,0.2749,0.7529
0.259,0.25,-0.078,-36.5,15.3,18.6,0,2018,4,24,22,41,49.972,0.3792,-0.4682,0.2776,0.7481
0.306,0.329,-0.089,-27.3,4.6,27.9,0,2018,4,24,22,41,50.011,0.3817,-0.4727,0.2793,0.7434
0.319,0.288,-0.098,-17.4,-14.2,35.9,0,2018,4,24,22,41,50.034,0.3843,-0.4776,0.2774,0.7396
0.332,0.17,-0.148,-4.8,-11.2,41.3,0,2018,4,24,22,41,50.038,0.3875,-0.4819,0.273,0.7368
0.355,0.095,-0.207,12.7,10.6,46.2,0,2018,4,24,22,41,50.054,0.3933,-0.4836,0.2689,0.7342
0.31,0.113,-0.208,34.7,29.9,49.3,0,2018,4,24,22,41,50.078,0.4023,-0.4812,0.2659,0.7319
0.236,0.059,-0.186,56.3,48.1,49.4,0,2018,4,24,22,41,50.115,0.4142,-0.4748,0.2636,0.7303
0.132,-0.012,-0.143,73.1,53.5,42.2,0,2018,4,24,22,41,50.115,0.4271,-0.4653,0.2619,0.7296
-0.017,0.025,-0.003,80.1,44.3,31,0,2018,4,24,22,41,50.139,0.4389,-0.4542,0.2601,0.7302
-0.147,-0.08,0.034,80,29.9,20.2,0,2018,4,24,22,41,50.155,0.4487,-0.442,0.2565,0.733
-0.233,-0.302,0.029,78,21.1,3,0,2018,4,24,22,41,50.193,0.4556,-0.4304,0.2525,0.737
-0.362,-0.321,0.174,69.6,13.2,-12.4,1023,2018,4,24,22,41,50.216,0.4598,-0.419,0.2493,0.7421
-0.453,-0.193,0.29,52.2,-1.8,-23.1,1023,2018,4,24,22,41,50.22,0.4609,-0.4096,0.2466,0.7476
-0.535,-0.138,0.39,31.1,-22.6,-35.9,1023,2018,4,24,22,41,50.236,0.4581,-0.4038,0.2437,0.7533
-0.598,-0.126,0.496,2.9,-36,-46.1,1023,2018,4,24,22,41,50.259,0.4513,-0.4022,0.2413,0.759
-0.579,-0.155,0.447,-23.4,-33.4,-47.4,1023,2018,4,24,22,41,50.278,0.4421,-0.4045,0.2407,0.7634
-0.527,-0.021,0.324,-40.9,-6,-44.9,1023,2018,4,24,22,41,50.296,0.4332,-0.4084,0.2441,0.7654
-0.454,0.076,0.195,-52.4,6.9,-40.5,1023,2018,4,24,22,41,50.318,0.426,-0.4125,0.2511,0.7649
-0.338,0.211,0.194,-62.1,11.4,-30.6,1023,2018,4,24,22,41,50.356,0.4194,-0.4178,0.2594,0.7629
-0.275,0.243,0.147,-71.6,-8.7,-21.6,1023,2018,4,24,22,41,50.378,0.4131,-0.4255,0.2664,0.7597
-0.179,0.267,0.092,-77.4,-6.9,-13.9,1023,2018,4,24,22,41,50.383,0.4064,-0.4353,0.2717,0.7559
-0.072,0.132,-0.047,-71.8,5.1,-6.7,1023,2018,4,24,22,41,50.4,0.4015,-0.4449,0.2777,0.7507
0.031,0.12,-0.111,-62.6,2.8,-3.6,1023,2018,4,24,22,41,50.423,0.3979,-0.453,0.2834,0.7456
0.132,0.082,-0.064,-55.6,6.3,1.4,0,2018,4,24,22,41,50.439,0.3948,-0.4606,0.2883,0.7407
0.273,0.124,-0.095,-50,14.3,3.3,0,2018,4,24,22,41,50.456,0.3932,-0.467,0.2937,0.7355
0.403,0.213,-0.181,-40.6,9.8,4.7,0,2018,4,24,22,41,50.478,0.3924,-0.4722,0.298,0.7308
0.505,0.328,-0.194,-27.3,4.8,8.2,0,2018,4,24,22,41,50.515,0.392,-0.4763,0.3008,0.7272
0.519,0.33,-0.197,-10.8,-5.7,15.2,0,2018,4,24,22,41,50.538,0.3925,-0.4793,0.301,0.7249
0.474,0.267,-0.196,7.8,-4.6,24.9,0,2018,4,24,22,41,50.543,0.3944,-0.481,0.2986,0.7237
0.368,0.249,-0.188,28.1,6.2,36.5,0,2018,4,24,22,41,50.558,0.3992,-0.4802,0.2948,0.7231
0.247,0.233,-0.194,48.1,19.7,47.4,0,2018,4,24,22,41,50.581,0.4077,-0.4766,0.2902,0.7227
0.113,0.17,-0.193,69.3,28.7,50.5,0,2018,4,24,22,41,50.599,0.419,-0.4698,0.285,0.7227
-0.035,0.02,-0.084,84,34,48.4,0,2018,4,24,22,41,50.623,0.4315,-0.4603,0.2794,0.7237
-0.158,-0.11,0.042,90,42.4,39.5,0,2018,4,24,22,41,50.641,0.4445,-0.4488,0.2739,0.7252
-0.29,-0.071,0.162,85.1,45.6,29.1,0,2018,4,24,22,41,50.658,0.4565,-0.4356,0.2701,0.7271
-0.404,-0.145,0.157,74,21.4,13.4,0,2018,4,24,22,41,50.681,0.4657,-0.4236,0.2666,0.7296
-0.516,-0.327,0.223,57.4,-10.3,-7.2,0,2018,4,24,22,41,50.7,0.4699,-0.4148,0.2616,0.7339
-0.604,-0.354,0.401,31.2,-22.8,-23.1,0,2018,4,24,22,41,50.737,0.4687,-0.4098,0.2568,0.7391
-0.612,-0.282,0.463,3.7,-22.4,-36.7,0,2018,4,24,22,41,50.758,0.4641,-0.4081,0.2546,0.7437
-0.577,-0.168,0.416,-18.8,-16.3,-46.4,0,2018,4,24,22,41,50.763,0.4571,-0.4087,0.2559,0.7472
-0.507,-0.164,0.25,-31.9,-7.6,-51.4,0,2018,4,24,22,41,50.779,0.4489,-0.4108,0.2599,0.7497
-0.436,-0.159,0.189,-41.1,15.9,-54,0,2018,4,24,22,41,50.802,0.4406,-0.4128,0.2672,0.7509
-0.334,0.125,0.193,-51.7,47.1,-44.8,0,2018,4,24,22,41,50.82,0.4346,-0.4136,0.279,0.7496
-0.22,0.291,0.076,-61.5,22.1,-33.1,0,2018,4,24,22,41,50.842,0.4296,-0.4163,0.2911,0.7465
-0.152,0.12,-0.01,-66.4,-14,-29,0,2018,4,24,22,41,50.858,0.4223,-0.4231,0.2981,0.744
-0.099,0.035,-0.033,-68.1,1.3,-26.4,0,2018,4,24,22,41,50.88,0.4141,-0.4309,0.3045,0.7416
0,0.223,-0.072,-68.5,23.7,-22.3,1023,2018,4,24,22,41,50.898,0.4081,-0.4373,0.3138,0.7373
0.11,0.447,-0.143,-63.5,5.4,-15.1,1023,2018,4,24,22,41,50.922,0.4033,-0.4436,0.3221,0.7326
0.167,0.379,-0.109,-52.1,-17.6,-8,1023,2018,4,24,22,41,50.94,0.3979,-0.4509,0.3259,0.7293
0.235,0.292,-0.074,-42.6,-13.9,-0.8,1023,2018,4,24,22,41,50.964,0.3933,-0.4577,0.3274,0.7269
0.327,0.296,-0.102,-32.2,-3.5,10.2,1023,2018,4,24,22,41,50.979,0.3911,-0.4634,0.3285,0.724
0.414,0.36,-0.09,-18.4,1.7,20.8,1023,2018,4,24,22,41,51.001,0.3917,-0.4674,0.329,0.7209
0.435,0.354,-0.15,-1.4,-14.4,27.7,1023,2018,4,24,22,41,51.04,0.3938,-0.4705,0.3269,0.7187
0.42,0.224,-0.158,16,-19.7,33.9,1023,2018,4,24,22,41,51.063,0.3966,-0.4726,0.3213,0.7183
0.389,0.169,-0.102,31.8,-7.7,37.7,1023,2018,4,24,22,41,51.068,0.4014,-0.4725,0.3149,0.7185
0.305,0.151,-0.039,44.2,-2.9,39.1,1023,2018,4,24,22,41,51.084,0.4079,-0.47,0.3085,0.7192
0.194,0.059,-0.012,56.1,-8.1,38.2,1023,2018,4,24,22,41,51.108,0.4148,-0.4664,0.3016,0.7206
0.078,-0.148,-0.006,65.6,-3.7,33,1023,2018,4,24,22,41,51.126,0.4219,-0.4617,0.2933,0.7229
-0.024,-0.124,0.049,70.7,9.6,23.8,0,2018,4,24,22,41,51.149,0.4292,-0.4542,0.2864,0.7261
-0.13,-0.12,0.113,71,15.2,15,0,2018,4,24,22,41,51.162,0.4362,-0.4451,0.2812,0.7296
-0.263,-0.228,0.108,65.3,5.7,-1,0,2018,4,24,22,41,51.18,0.4413,-0.4358,0.277,0.7338
-0.339,-0.344,-0.024,62.8,-12.3,-17.6,0,2018,4,24,22,41,51.203,0.4428,-0.4275,0.2722,0.7395
-0.399,-0.532,-0.034,62.6,-1.5,-40.3,0,2018,4,24,22,41,51.222,0.4415,-0.4186,0.2681,0.7469
-0.574,-0.425,0.438,37.4,9.6,-69.1,0,2018,4,24,22,41,51.245,0.4371,-0.4087,0.269,0.7546
-0.657,-0.336,0.569,-0.1,-2.9,-92,0,2018,4,24,22,41,51.263,0.4274,-0.4021,0.274,0.7618
-0.557,-0.255,0.263,-24.9,-1.4,-104.4,0,2018,4,24,22,41,51.287,0.4131,-0.3997,0.2814,0.7683
-0.502,-0.145,0.077,-35.8,26.5,-108.1,0,2018,4,24,22,41,51.323,0.3978,-0.3977,0.2926,0.7732
-0.419,0.091,0.144,-46.3,52.6,-99.5,0,2018,4,24,22,41,51.345,0.3844,-0.3949,0.3084,0.7752
-0.326,0.382,0.192,-56.4,49.2,-79.9,0,2018,4,24,22,41,51.351,0.373,-0.3934,0.3252,0.7747
-0.163,0.418,0.122,-62.3,38.2,-57,0,2018,4,24,22,41,51.363,0.3633,-0.3948,0.3395,0.7725
-0.008,0.468,-0.028,-57.8,42.6,-32.8,0,2018,4,24,22,41,51.381,0.3564,-0.3978,0.3517,0.7687
0.143,0.52,-0.108,-48,46,-9.7,0,2018,4,24,22,41,51.404,0.3535,-0.4008,0.3625,0.7634
0.247,0.555,-0.216,-36,31.2,8.5,0,2018,4,24,22,41,51.423,0.3537,-0.4039,0.3704,0.7579
0.374,0.543,-0.271,-17.2,2.7,24.9,0,2018,4,24,22,41,51.446,0.3554,-0.4076,0.373,0.7538
0.429,0.379,-0.242,8.5,-4.1,37.3,0,2018,4,24,22,41,51.464,0.3591,-0.4104,0.3704,0.7518
0.35,0.306,-0.085,29.2,7.9,43.9,0,2018,4,24,22,41,51.487,0.366,-0.4103,0.3664,0.7505
0.342,0.243,0.024,44.1,7.9,45.2,0,2018,4,24,22,41,51.506,0.3749,-0.4078,0.362,0.7496
0.324,0.059,-0.017,56.8,1.4,40.8,0,2018,4,24,22,41,51.528,0.3837,-0.404,0.3569,0.7496
0.234,-0.108,0.039,67.1,4.5,31.6,0,2018,4,24,22,41,51.546,0.3926,-0.3986,0.3506,0.751
0.1,-0.132,0.146,68.4,0.4,17.7,0,2018,4,24,22,41,51.57,0.4003,-0.391,0.3445,0.7536
-0.038,-0.268,0.186,62.1,-21.7,-0.5,0,2018,4,24,22,41,51.584,0.4047,-0.3836,0.3379,0.7581
-0.18,-0.414,0.177,52.8,-32.3,-21.7,1023,2018,4,24,22,41,51.622,0.4045,-0.3774,0.3307,0.7645
-0.3,-0.573,0.161,45,-14.2,-46.9,1023,2018,4,24,22,41,51.646,0.4011,-0.3706,0.3262,0.7715
-0.431,-0.582,0.197,32,3.5,-77.6,1023,2018,4,24,22,41,51.65,0.3946,-0.362,0.3271,0.7785
-0.511,-0.517,0.231,10.8,-0.1,-105.8,1023,2018,4,24,22,41,51.668,0.3833,-0.3535,0.3318,0.786
-0.56,-0.406,0.194,-9.4,-5.9,-125.9,1023,2018,4,24,22,41,51.686,0.3668,-0.347,0.3384,0.7939
-0.616,-0.209,0.182,-23.7,8.1,-132.7,1023,2018,4,24,22,41,51.706,0.3476,-0.3416,0.3473,0.8011
-0.608,-0.001,0.216,-33.8,38.1,-124.5,1023,2018,4,24,22,41,51.744,0.3289,-0.3364,0.3599,0.8056
-0.524,0.111,0.13,-41,83.1,-108.1,1023,2018,4,24,22,41,51.767,0.3138,-0.3307,0.3775,0.8059
-0.322,0.485,0.087,-48.7,96,-81.7,1023,2018,4,24,22,41,51.772,0.3026,-0.3256,0.3985,0.8021
-0.116,0.696,-0.028,-50.9,79.9,-43.9,1023,2018,4,24,22,41,51.79,0.2954,-0.3236,0.417,0.7962
0.045,0.833,-0.148,-44.1,63,-5.9,1023,2018,4,24,22,41,51.827,0.2925,-0.3248,0.4307,0.7895
0.214,0.836,-0.255,-29.7,46.5,29,1023,2018,4,24,22,41,51.849,0.2946,-0.3281,0.4393,0.7826
0.284,0.764,-0.31,-8.2,25.3,56,0,2018,4,24,22,41,51.854,0.3011,-0.3323,0.4426,0.7764
0.29,0.605,-0.301,19.7,14.5,76.3,0,2018,4,24,22,41,51.872,0.3117,-0.3356,0.4408,0.7718
0.217,0.395,-0.201,49.5,14.3,92.9,0,2018,4,24,22,41,51.889,0.3268,-0.3366,0.4357,0.768
0.138,0.144,-0.113,71.3,21.7,102.3,0,2018,4,24,22,41,51.925,0.3456,-0.3347,0.4286,0.7646
0.023,0.071,0,81.7,23.3,102.6,0,2018,4,24,22,41,51.949,0.3663,-0.3308,0.4216,0.7606
-0.13,-0.008,0.131,81.7,4,96.5,0,2018,4,24,22,41,51.953,0.3861,-0.326,0.4124,0.7579
-0.24,-0.315,0.174,76.7,-1.6,82.6,0,2018,4,24,22,41,51.971,0.4036,-0.3219,0.4018,0.7562
-0.364,-0.616,0.289,60.6,6.5,56,0,2018,4,24,22,41,51.988,0.4177,-0.3174,0.3932,0.7549
-0.445,-0.712,0.375,35.1,11.4,23.7,0,2018,4,24,22,41,52.012,0.4268,-0.3131,0.3889,0.7539
-0.548,-0.645,0.287,11,26.4,-7,0,2018,4,24,22,41,52.029,0.4307,-0.3091,0.3891,0.7532
-0.607,-0.417,0.317,-18.8,11.8,-40.8,0,2018,4,24,22,41,52.052,0.4287,-0.3061,0.394,0.7531
-0.535,-0.504,0.316,-50.6,-28.9,-79.4,0,2018,4,24,22,41,52.071,0.4178,-0.3071,0.3987,0.7563
-0.488,-0.347,0.176,-73.4,-46.2,-102.4,0,2018,4,24,22,41,52.094,0.3988,-0.312,0.4028,0.7624
-0.462,-0.038,0.159,-86.6,-28.1,-109.8,0,2018,4,24,22,41,52.111,0.3765,-0.3178,0.409,0.768
-0.345,0.28,0.126,-91.5,0.7,-96.9,0,2018,4,24,22,41,52.13,0.3553,-0.3231,0.4188,0.7706
-0.263,0.502,0.065,-96.7,17.9,-75.2,0,2018,4,24,22,41,52.148,0.3374,-0.3287,0.431,0.7695
-0.155,0.559,-0.095,-95.1,20.3,-49.5,0,2018,4,24,22,41,52.172,0.3227,-0.3359,0.4428,0.766
0.075,0.724,-0.322,-76.8,24.9,-14.5,0,2018,4,24,22,41,52.189,0.313,-0.3437,0.4525,0.7609
0.211,0.847,-0.336,-50.5,23.7,23.5,0,2018,4,24,22,41,52.212,0.3102,-0.3511,0.459,0.7547
0.271,0.841,-0.324,-24.2,0.6,59.2,0,2018,4,24,22,41,52.23,0.3137,-0.3587,0.46,0.7491
0.281,0.596,-0.313,2.1,-12.5,84.4,0,2018,4,24,22,41,52.254,0.3219,-0.3664,0.4549,0.745
0.323,0.41,-0.254,27.4,-4.6,99.6,0,2018,4,24,22,41,52.272,0.3345,-0.3722,0.4467,0.7415
0.28,0.412,-0.13,47,-4.6,110,0,2018,4,24,22,41,52.295,0.3511,-0.3754,0.4373,0.7378
0.182,0.287,-0.124,59.2,-35.3,114.6,0,2018,4,24,22,41,52.311,0.3683,-0.3783,0.4239,0.7358
0.044,-0.015,-0.146,72.5,-50.1,114.1,1023,2018,4,24,22,41,52.328,0.3848,-0.3812,0.4061,0.7359
-0.06,-0.366,-0.036,83.8,-31.1,107.5,1023,2018,4,24,22,41,52.352,0.4017,-0.3817,0.3877,0.7365
-0.193,-0.354,0.117,85.1,11.3,88,1023,2018,4,24,22,41,52.368,0.4194,-0.3777,0.374,0.7358
-0.347,-0.3,0.2,73.1,-0.5,59.7,1023,2018,4,24,22,41,52.392,0.4348,-0.3714,0.3646,0.7347
-0.423,-0.497,0.251,53.4,-50.4,24.2,1023,2018,4,24,22,41,52.409,0.4423,-0.3679,0.3537,0.7373
-0.453,-0.657,0.259,33.6,-64,-8.7,1023,2018,4,24,22,41,52.432,0.4421,-0.3674,0.3421,0.7432
-0.507,-0.778,0.406,6.8,-32.8,-50.8,1023,2018,4,24,22,41,52.45,0.4365,-0.3666,0.336,0.7497
-0.514,-0.617,0.551,-32.4,-22,-90.5,1023,2018,4,24,22,41,52.473,0.4246,-0.3659,0.3384,0.7558
-0.505,-0.287,0.57,-70.4,-25.7,-112.7,1023,2018,4,24,22,41,52.491,0.4061,-0.3685,0.3457,0.7613
-0.481,-0.071,0.413,-97.1,-16.7,-119.3,1023,2018,4,24,22,41,52.515,0.3837,-0.3742,0.3562,0.7653
-0.423,0.162,0.186,-111.8,2.9,-110.2,1023,2018,4,24,22,41,52.534,0.3611,-0.3814,0.3699,0.7662
-0.271,0.443,0.002,-116.5,-5.1,-86.1,1023,2018,4,24,22,41,52.558,0.3405,-0.3903,0.3838,0.7644
-0.114,0.62,-0.131,-107.1,-18.6,-57.8,0,2018,4,24,22,41,52.575,0.3224,-0.4011,0.3936,0.7616
0.078,0.682,-0.229,-87.6,-24.6,-22,0,2018,4,24,22,41,52.598,0.3088,-0.4126,0.3986,0.7585
0.271,0.71,-0.362,-60.4,-12.1,15.5,0,2018,4,24,22,41,52.614,0.3019,-0.4232,0.4003,0.7545
0.411,0.678,-0.419,-25,6.7,52.2,0,2018,4,24,22,41,52.632,0.3033,-0.4314,0.3995,0.7498
0.39,0.705,-0.279,9.2,27,81.1,0,2018,4,24,22,41,52.657,0.3131,-0.4359,0.3971,0.7443
0.31,0.601,-0.191,34.2,22.1,102.3,0,2018,4,24,22,41,52.674,0.3288,-0.4379,0.3922,0.739
0.259,0.299,-0.262,58.2,10.7,114.3,0,2018,4,24,22,41,52.692,0.3472,-0.4383,0.383,0.7351
0.22,0.102,-0.231,79.5,12.8,117.7,0,2018,4,24,22,41,52.715,0.3676,-0.4364,0.3712,0.7325
0.114,-0.031,-0.154,99.1,21.8,117.5,0,2018,4,24,22,41,52.733,0.3897,-0.4312,0.3585,0.7304
-0.047,0.031,-0.038,109.7,9.6,109.3,0,2018,4,24,22,41,52.756,0.4118,-0.4241,0.3455,0.7287
-0.136,-0.151,0.087,113.3,-15.4,98,0,2018,4,24,22,41,52.774,0.4312,-0.4162,0.329,0.7297
-0.175,-0.47,0.193,109.7,-5.4,73.2,0,2018,4,24,22,41,52.797,0.4475,-0.4077,0.3126,0.7319
-0.246,-0.566,0.303,96.5,14.2,43,0,2018,4,24,22,41,52.814,0.461,-0.397,0.3011,0.7342
-0.322,-0.567,0.384,76.5,24.5,10,0,2018,4,24,22,41,52.833,0.4705,-0.3854,0.295,0.7368
-0.367,-0.508,0.417,47.4,13.2,-25.7,0,2018,4,24,22,41,52.857,0.474,-0.3752,0.293,0.7406
-0.452,-0.471,0.572,6.1,-8.9,-60.6,0,2018,4,24,22,41,52.874,0.4698,-0.3693,0.294,0.7459
-0.497,-0.351,0.566,-35.8,-25.7,-83.5,0,2018,4,24,22,41,52.897,0.4582,-0.3691,0.2976,0.7517
-0.509,-0.218,0.353,-63.6,-19.8,-95.5,0,2018,4,24,22,41,52.915,0.4422,-0.373,0.3044,0.7566
-0.523,-0.066,0.138,-76.3,-3.2,-98.9,0,2018,4,24,22,41,52.954,0.4248,-0.3779,0.3148,0.7599
-0.563,0.101,0.086,-85.5,8.4,-93.3,0,2018,4,24,22,41,52.954,0.4077,-0.383,0.3276,0.7613
-0.521,0.222,0.054,-91.8,-4.2,-82.1,0,2018,4,24,22,41,52.977,0.3911,-0.3895,0.3402,0.7612
-0.373,0.155,-0.043,-89.6,-3,-68.9,0,2018,4,24,22,41,53.014,0.375,-0.3975,0.3506,0.7604
-0.267,0.338,-0.069,-82.4,20.3,-45.9,1023,2018,4,24,22,41,53.037,0.3627,-0.4047,0.3614,0.7575
-0.165,0.391,-0.146,-72.8,38.6,-19.4,1023,2018,4,24,22,41,53.042,0.3557,-0.411,0.3726,0.752
-0.047,0.46,-0.247,-56.8,49.1,7.5,1023,2018,4,24,22,41,53.055,0.354,-0.4163,0.3829,0.7447
0.114,0.52,-0.267,-37.6,47.8,32.2,1023,2018,4,24,22,41,53.073,0.3572,-0.4207,0.3906,0.7366
0.231,0.533,-0.223,-20,36,51.5,1023,2018,4,24,22,41,53.096,0.3639,-0.4246,0.3946,0.729
0.309,0.509,-0.115,-4.9,19,65.5,1023,2018,4,24,22,41,53.114,0.3726,-0.4285,0.3945,0.7224
0.4,0.364,-0.094,10.5,10.3,74.3,1023,2018,4,24,22,41,53.138,0.3826,-0.4321,0.3906,0.717
0.452,0.352,-0.117,25.4,5.9,77.5,1023,2018,4,24,22,41,53.155,0.3941,-0.4343,0.3847,0.7127
0.419,0.344,-0.177,39.5,-15.5,77.7,1023,2018,4,24,22,41,53.177,0.4056,-0.4357,0.376,0.71
0.346,0.242,-0.194,56.9,-36.7,77.3,1023,2018,4,24,22,41,53.214,0.4162,-0.4367,0.3632,0.7099
0.261,0.057,-0.111,74.6,-36.4,77.4,1023,2018,4,24,22,41,53.237,0.4269,-0.4361,0.3476,0.7117
0.167,-0.073,-0.023,86.7,-22.2,71.6,0,2018,4,24,22,41,53.242,0.4387,-0.4338,0.3327,0.7131
0.035,-0.15,0.089,91.8,-14.3,60.6,0,2018,4,24,22,41,53.259,0.4509,-0.4284,0.3182,0.7153
-0.105,-0.224,0.218,87.2,-15.6,44.2,0,2018,4,24,22,41,53.281,0.4614,-0.421,0.3054,0.7186
-0.22,-0.381,0.274,74.9,-26.1,25.7,0,2018,4,24,22,41,53.299,0.4684,-0.4144,0.2937,0.7228
-0.341,-0.552,0.318,57.8,-27.7,-0.9,0,2018,4,24,22,41,53.322,0.4716,-0.4087,0.2838,0.7279
-0.492,-0.617,0.487,26.5,-21.2,-32.2,0,2018,4,24,22,41,53.338,0.47,-0.4043,0.2785,0.7334
-0.617,-0.566,0.567,-13.2,-18.9,-62.8,0,2018,4,24,22,41,53.357,0.4629,-0.4028,0.279,0.7386
-0.618,-0.516,0.303,-43.8,-21,-87.9,0,2018,4,24,22,41,53.379,0.4503,-0.4046,0.284,0.7434
-0.643,-0.436,0.138,-63.7,0,-109.1,0,2018,4,24,22,41,53.397,0.4342,-0.4074,0.294,0.7476
-0.67,-0.268,0.193,-82.9,17.6,-122,0,2018,4,24,22,41,53.419,0.4157,-0.4102,0.3091,0.7505
-0.666,-0.016,0.18,-97.3,33.2,-120.7,0,2018,4,24,22,41,53.437,0.3964,-0.4135,0.3277,0.7512
-0.609,0.252,0.02,-105.4,35.4,-108.6,0,2018,4,24,22,41,53.483,0.3779,-0.4176,0.3478,0.7494
-0.405,0.395,-0.167,-101.7,22.4,-89.3,0,2018,4,24,22,41,53.486,0.3606,-0.4232,0.3655,0.7463
-0.15,0.492,-0.31,-85.6,13.1,-65.7,0,2018,4,24,22,41,53.5,0.3457,-0.4294,0.3793,0.743
0.074,0.58,-0.36,-60.8,7.5,-37.7,0,2018,4,24,22,41,53.517,0.3348,-0.4348,0.3888,0.7399
0.243,0.643,-0.266,-32.5,18.9,-7.5,0,2018,4,24,22,41,53.538,0.3297,-0.4386,0.3946,0.7369
0.395,0.723,-0.246,-4.8,37.6,22.5,0,2018,4,24,22,41,53.574,0.3318,-0.4398,0.3989,0.733
0.488,0.764,-0.18,21.1,32.6,49.4,0,2018,4,24,22,41,53.598,0.34,-0.439,0.4002,0.7289
0.516,0.657,-0.126,41.4,10.5,68.5,0,2018,4,24,22,41,53.603,0.3516,-0.4378,0.3964,0.7262
0.492,0.442,-0.045,56.8,-9.5,77.6,0,2018,4,24,22,41,53.618,0.3643,-0.4367,0.3875,0.7254
0.41,0.254,0.075,68.3,-14.6,80.4,0,2018,4,24,22,41,53.641,0.3775,-0.4348,0.3759,0.7259
0.266,0.202,0.157,74.1,-18.5,80.5,0,2018,4,24,22,41,53.659,0.3905,-0.4316,0.3638,0.7271
0.155,0.05,0.149,77,-31.4,77.6,1023,2018,4,24,22,41,53.682,0.4031,-0.4282,0.3497,0.7291
0.023,-0.093,0.12,77.5,-33.9,72.5,1023,2018,4,24,22,41,53.719,0.4149,-0.4252,0.3339,0.7317
-0.098,-0.211,0.107,79.6,-23.4,66.2,1023,2018,4,24,22,41,53.74,0.4262,-0.4213,0.3192,0.7341
-0.208,-0.244,0.073,79.1,-15.9,56.5,1023,2018,4,24,22,41,53.743,0.437,-0.4158,0.3064,0.7363
-0.314,-0.216,0.096,74.8,-39.3,44.6,1023,2018,4,24,22,41,53.777,0.4457,-0.4105,0.2935,0.7393
-0.415,-0.425,0.157,65.7,-47.1,27.9,1023,2018,4,24,22,41,53.777,0.4506,-0.4069,0.2792,0.7438
-0.543,-0.564,0.278,48.7,-18.9,3.5,1023,2018,4,24,22,41,53.798,0.4532,-0.4026,0.2692,0.7482
-0.627,-0.592,0.383,22,20.3,-22.9,1023,2018,4,24,22,41,53.836,0.454,-0.3973,0.2674,0.7513
-0.676,-0.382,0.397,-11.4,40,-45.9,1023,2018,4,24,22,41,53.86,0.4519,-0.3922,0.2739,0.7528
-0.645,-0.189,0.246,-41.7,36.2,-60.6,1023,2018,4,24,22,41,53.865,0.4464,-0.3901,0.285,0.7531
-0.594,-0.071,0.128,-66.9,25.7,-69.5,1023,2018,4,24,22,41,53.883,0.4374,-0.3914,0.298,0.7527
-0.497,0.009,0.045,-84.6,18.2,-71.7,1023,2018,4,24,22,41,53.901,0.4254,-0.3961,0.3114,0.7516
-0.381,0.048,-0.108,-94.9,15.2,-69.5,0,2018,4,24,22,41,53.925,0.4123,-0.4029,0.3251,0.7496
-0.215,0.102,-0.238,-95.7,20.6,-66.9,0,2018,4,24,22,41,53.943,0.399,-0.4102,0.3391,0.7466
-0.034,0.231,-0.289,-86.3,24.5,-59.3,0,2018,4,24,22,41,53.966,0.3869,-0.4167,0.3529,0.7429
0.134,0.395,-0.175,-74.3,27.1,-48.6,0,2018,4,24,22,41,54.002,0.3767,-0.422,0.3656,0.739
0.34,0.574,-0.091,-60.7,39.7,-32,0,2018,4,24,22,41,54.024,0.3695,-0.426,0.3771,0.7346
0.555,0.752,-0.123,-41.2,48.9,-10.4,0,2018,4,24,22,41,54.029,0.3669,-0.4281,0.3879,0.729
0.615,0.789,-0.158,-16.8,34.8,9.6,0,2018,4,24,22,41,54.042,0.3683,-0.4289,0.3952,0.7238
0.593,0.726,-0.152,10.9,0.9,30.9,0,2018,4,24,22,41,54.08,0.372,-0.4296,0.396,0.7211
0.504,0.523,-0.148,36.2,-24.5,50.4,0,2018,4,24,22,41,54.104,0.378,-0.4303,0.3896,0.7211
0.339,0.337,-0.052,56.4,-34.3,64.3,0,2018,4,24,22,41,54.109,0.3861,-0.4302,0.3782,0.7229
0.183,0.192,0.056,71.1,-31.6,74.9,0,2018,4,24,22,41,54.124,0.3965,-0.4289,0.3644,0.7252
0.031,0.02,0.122,78,-22.2,79.1,0,2018,4,24,22,41,54.162,0.4087,-0.4257,0.3504,0.7272
-0.11,-0.18,0.141,80.6,-13.5,77.8,0,2018,4,24,22,41,54.185,0.4222,-0.4215,0.3364,0.7285
-0.219,-0.346,0.115,80.4,2.4,69.6,0,2018,4,24,22,41,54.19,0.4359,-0.4159,0.3241,0.7292
-0.321,-0.358,0.128,75.6,14.7,55.7,0,2018,4,24,22,41,54.208,0.449,-0.4086,0.3149,0.7294
-0.434,-0.274,0.111,67.6,0.8,40.8,0,2018,4,24,22,41,54.225,0.46,-0.4011,0.3072,0.73
-0.567,-0.449,0.198,51.5,-28.5,16.2,0,2018,4,24,22,41,54.249,0.4661,-0.3961,0.2983,0.7325
-0.645,-0.628,0.352,23.9,-25.1,-16.5,0,2018,4,24,22,41,54.265,0.4663,-0.3935,0.2916,0.7366
-0.693,-0.589,0.398,-9.9,-1.6,-47.6,0,2018,4,24,22,41,54.282,0.4616,-0.392,0.2917,0.7403
-0.682,-0.444,0.25,-38.2,20.5,-71.9,0,2018,4,24,22,41,54.305,0.4535,-0.3911,0.2994,0.7427
-0.595,-0.293,0.125,-58.3,37.3,-88.7,0,2018,4,24,22,41,54.338,0.4425,-0.3907,0.3127,0.744
-0.535,-0.025,0.121,-75.7,54.3,-90.3,0,2018,4,24,22,41,54.361,0.43,-0.3908,0.3301,0.7437
-0.419,0.204,-0.026,-89.6,53.9,-82.2,0,2018,4,24,22,41,54.366,0.4177,-0.3923,0.3495,0.7411
-0.151,0.425,-0.264,-88.6,33,-67,0,2018,4,24,22,41,54.399,0.4054,-0.3962,0.3669,0.7375
0.101,0.534,-0.295,-73.2,10.1,-49.5,1023,2018,4,24,22,41,54.422,0.394,-0.4014,0.3791,0.7346
0.306,0.633,-0.179,-52.5,8.5,-27.7,1023,2018,4,24,22,41,54.424,0.3854,-0.4064,0.387,0.7324
0.427,0.714,-0.164,-28.7,28.7,-1.4,1023,2018,4,24,22,41,54.461,0.3821,-0.4093,0.3931,0.7292
0.507,0.729,-0.216,-3.4,37.9,24.4,1023,2018,4,24,22,41,54.481,0.3852,-0.4098,0.3977,0.7248
0.483,0.713,-0.173,15.7,22.6,46.4,1023,2018,4,24,22,41,54.487,0.3926,-0.4092,0.3986,0.7206
0.421,0.574,-0.081,29.5,-6.6,61.3,1023,2018,4,24,22,41,54.504,0.4017,-0.4095,0.394,0.718
0.324,0.36,-0.076,42.7,-31.7,72.2,1023,2018,4,24,22,41,54.524,0.4111,-0.411,0.384,0.7172
0.211,0.177,-0.078,57.5,-37.9,78.6,1023,2018,4,24,22,41,54.56,0.4213,-0.4124,0.3703,0.7177
0.085,0.048,-0.04,70.9,-31.8,80.7,1023,2018,4,24,22,41,54.582,0.4326,-0.4123,0.3558,0.7184
-0.051,-0.006,0.059,80.8,-22.7,81.9,1023,2018,4,24,22,41,54.587,0.4452,-0.4098,0.3411,0.7192
-0.193,-0.165,0.167,82.8,-14.4,78,1023,2018,4,24,22,41,54.607,0.459,-0.4054,0.3264,0.7199
-0.322,-0.238,0.179,78,-11.3,70.5,1023,2018,4,24,22,41,54.63,0.4721,-0.4003,0.3131,0.7201
-0.462,-0.34,0.23,65.3,-21.3,56.7,0,2018,4,24,22,41,54.649,0.483,-0.3959,0.3008,0.7206
-0.563,-0.469,0.313,43.7,-29.8,36.7,0,2018,4,24,22,41,54.668,0.49,-0.3936,0.2895,0.7218
-0.624,-0.541,0.389,14.8,-29.3,12.3,0,2018,4,24,22,41,54.689,0.4922,-0.3939,0.2815,0.7233
-0.626,-0.498,0.376,-15.2,-21.5,-14.9,0,2018,4,24,22,41,54.725,0.49,-0.3962,0.2785,0.7247
-0.583,-0.416,0.225,-37.9,-10.7,-40.8,0,2018,4,24,22,41,54.748,0.4837,-0.3998,0.2807,0.7261
-0.525,-0.361,0.103,-52,8.9,-62.6,0,2018,4,24,22,41,54.752,0.4747,-0.4031,0.2881,0.7273
-0.452,-0.255,0.089,-65.8,34.9,-78.7,0,2018,4,24,22,41,54.768,0.4641,-0.4051,0.3008,0.7279
-0.376,-0.047,0.111,-82.3,51.3,-85.4,0,2018,4,24,22,41,54.785,0.4528,-0.4064,0.3186,0.7267
-0.242,0.207,-0.032,-93.5,36.3,-84.1,0,2018,4,24,22,41,54.809,0.4402,-0.4092,0.3373,0.7245
-0.094,0.303,-0.096,-94.6,3.8,-78.9,0,2018,4,24,22,41,54.827,0.4256,-0.4148,0.3528,0.7226
0.095,0.289,-0.118,-87.3,-11.5,-70.8,0,2018,4,24,22,41,54.849,0.4099,-0.4221,0.3641,0.7219
0.313,0.443,-0.101,-72.9,7.1,-54.8,0,2018,4,24,22,41,54.866,0.3965,-0.4285,0.374,0.7206
0.527,0.682,-0.209,-49.3,27.3,-31.2,0,2018,4,24,22,41,54.89,0.3885,-0.432,0.3838,0.7176
0.68,0.774,-0.299,-18.3,35.8,-7.3,0,2018,4,24,22,41,54.91,0.3864,-0.4327,0.3915,0.7142
0.652,0.818,-0.28,15.1,27.7,18.4,0,2018,4,24,22,41,54.934,0.3896,-0.431,0.3953,0.7114
0.497,0.701,-0.279,42.5,5.9,43.3,0,2018,4,24,22,41,54.951,0.3968,-0.4283,0.393,0.7103
0.327,0.444,-0.281,67.5,-16.5,62.3,0,2018,4,24,22,41,54.969,0.4068,-0.4255,0.3842,0.7111
0.131,0.258,-0.157,87.8,-25.9,75.2,0,2018,4,24,22,41,54.986,0.4189,-0.4219,0.3705,0.7134
-0.051,0.103,-0.016,99.2,-22.3,80.9,0,2018,4,24,22,41,55.01,0.4328,-0.4169,0.3549,0.7161
-0.221,-0.032,0.109,100.6,-21.4,78.9,0,2018,4,24,22,41,55.028,0.4473,-0.4103,0.3389,0.7187
-0.33,-0.243,0.142,95,-20.1,71.2,0,2018,4,24,22,41,55.051,0.4609,-0.4041,0.3231,0.7209
-0.452,-0.382,0.171,86,-13.4,55.7,0,2018,4,24,22,41,55.069,0.4731,-0.3973,0.3093,0.7228
-0.568,-0.474,0.314,64.5,-5.6,34.6,0,2018,4,24,22,41,55.091,0.4823,-0.3908,0.2987,0.7247
-0.643,-0.488,0.404,33.2,-8.7,9.2,1023,2018,4,24,22,41,55.129,0.487,-0.3863,0.2923,0.7266
-0.644,-0.43,0.359,-0.1,-19.3,-16.2,1023,2018,4,24,22,41,55.15,0.4862,-0.3855,0.2894,0.7288
-0.632,-0.381,0.264,-28.1,-22.3,-40.8,1023,2018,4,24,22,41,55.155,0.4801,-0.3878,0.2899,0.7313
-0.589,-0.374,0.189,-50.5,-8.5,-63.1,1023,2018,4,24,22,41,55.172,0.4702,-0.3916,0.2947,0.7338
-0.52,-0.269,0.25,-71.6,13.2,-79,1023,2018,4,24,22,41,55.209,0.458,-0.3954,0.3051,0.7352
-0.429,-0.065,0.244,-90.9,27.2,-82.4,1023,2018,4,24,22,41,55.232,0.4445,-0.3998,0.3201,0.7348
-0.329,0.082,0.136,-103.6,25,-82,1023,2018,4,24,22,41,55.236,0.4303,-0.4055,0.3368,0.7326
-0.165,0.198,0.022,-109,17.2,-78,1023,2018,4,24,22,41,55.25,0.4151,-0.4128,0.3532,0.7296
-0.029,0.195,-0.041,-105.1,14.9,-70.9,1023,2018,4,24,22,41,55.289,0.3999,-0.4208,0.3681,0.7262
0.107,0.302,-0.107,-96.1,30.9,-59.6,1023,2018,4,24,22,41,55.289,0.3866,-0.4277,0.3827,0.7218
0.256,0.516,-0.186,-82.6,42.4,-40.5,1023,2018,4,24,22,41,55.311,0.3771,-0.433,0.3973,0.7157
0.41,0.656,-0.247,-62.9,32.4,-17.5,0,2018,4,24,22,41,55.35,0.3714,-0.4375,0.409,0.7094
0.496,0.728,-0.293,-38.5,17.3,3.9,0,2018,4,24,22,41,55.35,0.3689,-0.4417,0.4157,0.7042
0.544,0.713,-0.32,-11.7,0.7,25.1,0,2018,4,24,22,41,55.373,0.3696,-0.4452,0.4172,0.7007
0.526,0.584,-0.33,16.9,-10,41.5,0,2018,4,24,22,41,55.408,0.3736,-0.4477,0.4136,0.6991
0.386,0.505,-0.252,41.7,-16.2,54.6,0,2018,4,24,22,41,55.43,0.3807,-0.4483,0.4062,0.6992
0.259,0.377,-0.18,61.9,-25.6,66.5,0,2018,4,24,22,41,55.434,0.3902,-0.4476,0.3953,0.7007
0.147,0.189,-0.152,79.4,-27.7,74.8,0,2018,4,24,22,41,55.471,0.4016,-0.4455,0.3814,0.7032
0.007,0.001,-0.073,94,-22.6,79,0,2018,4,24,22,41,55.471,0.4147,-0.4419,0.3663,0.706
-0.143,-0.143,0.059,101.1,-8.4,75.4,0,2018,4,24,22,41,55.493,0.4293,-0.4362,0.3511,0.7085
-0.257,-0.18,0.17,99.8,4.3,67.9,0,2018,4,24,22,41,55.511,0.4442,-0.428,0.3379,0.7107
-0.361,-0.288,0.205,93.9,5.4,56.4,0,2018,4,24,22,41,55.533,0.4579,-0.4192,0.3263,0.7127
-0.466,-0.387,0.216,83.8,12.9,41.5,0,2018,4,24,22,41,55.552,0.4698,-0.41,0.3167,0.7146
-0.575,-0.391,0.29,66.5,15.3,24.2,0,2018,4,24,22,41,55.575,0.4794,-0.4009,0.3101,0.7163
-0.64,-0.407,0.388,40.5,15.4,6.1,0,2018,4,24,22,41,55.592,0.4853,-0.3937,0.3066,0.7179
-0.657,-0.361,0.396,10.4,7.9,-12.1,0,2018,4,24,22,41,55.614,0.4869,-0.3895,0.3061,0.7193
-0.614,-0.31,0.271,-15.4,1.6,-29.7,0,2018,4,24,22,41,55.652,0.4843,-0.3884,0.3084,0.7206
-0.555,-0.285,0.177,-36.2,3,-46.6,0,2018,4,24,22,41,55.674,0.478,-0.3896,0.3135,0.722
-0.473,-0.259,0.17,-57.7,13.8,-62,0,2018,4,24,22,41,55.678,0.4692,-0.3917,0.3223,0.7227
-0.391,-0.078,0.212,-81.7,18.4,-70.2,0,2018,4,24,22,41,55.693,0.4581,-0.3952,0.3348,0.7223
-0.273,0.029,0.106,-100.8,5.4,-74.4,0,2018,4,24,22,41,55.71,0.4444,-0.4015,0.3488,0.7208
-0.169,0.063,-0.029,-109.3,-6.4,-76.1,0,2018,4,24,22,41,55.734,0.4281,-0.4101,0.3621,0.7192
-0.046,0.101,-0.087,-107.8,-4.7,-75.1,1023,2018,4,24,22,41,55.751,0.4107,-0.4193,0.3751,0.7173
0.096,0.197,-0.121,-101.6,15.7,-70,1023,2018,4,24,22,41,55.775,0.395,-0.4273,0.3885,0.7144
0.236,0.415,-0.169,-89.6,38.2,-58.4,1023,2018,4,24,22,41,55.812,0.3824,-0.4328,0.4034,0.7096
0.381,0.599,-0.171,-72.6,50.4,-41.6,1023,2018,4,24,22,41,55.836,0.3738,-0.4363,0.4181,0.7035
0.491,0.666,-0.205,-49.8,58.8,-22,1023,2018,4,24,22,41,55.84,0.3697,-0.4378,0.4312,0.6968
0.564,0.735,-0.275,-22.3,51.2,-1.6,1023,2018,4,24,22,41,55.855,0.3699,-0.4376,0.4413,0.6905
0.534,0.692,-0.275,6.2,26.6,17.5,1023,2018,4,24,22,41,55.878,0.3734,-0.4366,0.4458,0.6863
0.439,0.589,-0.192,30,-0.3,34.8,1023,2018,4,24,22,41,55.896,0.379,-0.4356,0.444,0.6851
0.33,0.484,-0.178,49.4,-24.6,52,1023,2018,4,24,22,41,55.919,0.3863,-0.435,0.4363,0.6862
0.204,0.328,-0.247,69.3,-39.2,65.5,1023,2018,4,24,22,41,55.937,0.3955,-0.4346,0.4237,0.6892
0.032,0.233,-0.338,90.8,-51.8,76.8,1023,2018,4,24,22,41,55.96,0.4065,-0.4332,0.4072,0.6936
-0.154,0.081,-0.172,109.6,-58.4,84.9,0,2018,4,24,22,41,55.976,0.4191,-0.4306,0.3868,0.6994
-0.271,-0.086,0.031,117.8,-46.8,88.8,0,2018,4,24,22,41,55.994,0.4333,-0.4261,0.3654,0.705
-0.383,-0.217,0.218,113.9,-41.4,84.1,0,2018,4,24,22,41,56.015,0.4482,-0.4203,0.3447,0.7095
-0.497,-0.361,0.287,101.4,-54.4,72.6,0,2018,4,24,22,41,56.053,0.4608,-0.4153,0.3244,0.714
-0.591,-0.565,0.363,77.6,-47.2,50.3,0,2018,4,24,22,41,56.076,0.4697,-0.4117,0.306,0.7184
-0.667,-0.544,0.465,44.5,-16.4,24.7,0,2018,4,24,22,41,56.081,0.4756,-0.4084,0.2945,0.7212
-0.63,-0.411,0.445,8.4,-10.8,-1.7,0,2018,4,24,22,41,56.097,0.4776,-0.4066,0.2903,0.7226
-0.568,-0.378,0.346,-22.3,-27.4,-30.2,0,2018,4,24,22,41,56.12,0.4738,-0.4084,0.2898,0.7243
-0.505,-0.353,0.29,-47.9,-32.2,-54.7,0,2018,4,24,22,41,56.138,0.4643,-0.4133,0.2919,0.7268
-0.429,-0.304,0.206,-67.5,-13.2,-72.5,0,2018,4,24,22,41,56.162,0.4515,-0.4192,0.2983,0.7288
-0.369,-0.151,0.107,-83.2,4.8,-84.4,0,2018,4,24,22,41,56.176,0.4372,-0.425,0.3097,0.7295
-0.24,-0.042,-0.004,-90.4,15.2,-89.4,0,2018,4,24,22,41,56.194,0.422,-0.4305,0.3241,0.729
-0.117,0.076,-0.073,-89.8,27,-88.6,0,2018,4,24,22,41,56.218,0.4066,-0.4351,0.3405,0.7274
-0.007,0.277,-0.081,-86.6,33.3,-80.3,0,2018,4,24,22,41,56.255,0.3928,-0.4389,0.3573,0.7247
0.099,0.515,-0.075,-80.6,26.9,-61.9,0,2018,4,24,22,41,56.278,0.3808,-0.4429,0.3723,0.7211
0.258,0.689,-0.153,-66.9,14.5,-36.9,0,2018,4,24,22,41,56.283,0.3713,-0.4476,0.3836,0.7172
0.412,0.687,-0.249,-43.4,2.3,-9.5,0,2018,4,24,22,41,56.299,0.3654,-0.4525,0.3899,0.7138
0.452,0.697,-0.242,-16.2,-1.2,15.1,0,2018,4,24,22,41,56.317,0.3638,-0.4564,0.3915,0.7113
0.427,0.67,-0.185,8.4,-10,39.7,0,2018,4,24,22,41,56.34,0.3667,-0.459,0.3887,0.7096
0.383,0.537,-0.247,32.3,-22.1,62.7,0,2018,4,24,22,41,56.358,0.3732,-0.461,0.3812,0.709
0.261,0.367,-0.209,56.6,-25,76.8,0,2018,4,24,22,41,56.381,0.383,-0.4617,0.3694,0.7096
0.1,0.203,-0.109,73.9,-17.9,84.6,0,2018,4,24,22,41,56.397,0.3955,-0.4601,0.3556,0.7108
-0.065,0.079,-0.061,84.3,-11.3,87.9,1023,2018,4,24,22,41,56.434,0.4098,-0.4564,0.3417,0.7119
-0.18,-0.036,-0.016,89.3,-20.8,87.9,1023,2018,4,24,22,41,56.457,0.4243,-0.4519,0.3268,0.7133
-0.303,-0.205,0.095,90,-20.1,82,1023,2018,4,24,22,41,56.462,0.4383,-0.447,0.3104,0.7152
-0.421,-0.261,0.222,82.2,0.5,68.8,1023,2018,4,24,22,41,56.479,0.4516,-0.4409,0.2965,0.7166
-0.528,-0.355,0.338,62.5,6.6,48.8,1023,2018,4,24,22,41,56.5,0.4632,-0.4343,0.2869,0.7172
-0.538,-0.495,0.334,37.4,2,20.5,1023,2018,4,24,22,41,56.517,0.4707,-0.4292,0.281,0.7177
-0.482,-0.448,0.337,10,-16.8,-6.7,1023,2018,4,24,22,41,56.541,0.4723,-0.427,0.2777,0.7192
-0.439,-0.354,0.426,-22.1,-32.4,-32.3,1023,2018,4,24,22,41,56.559,0.4678,-0.4289,0.2767,0.7215
-0.379,-0.281,0.444,-55.5,-37.8,-51.6,1023,2018,4,24,22,41,56.583,0.458,-0.4346,0.2787,0.7235
-0.297,-0.137,0.363,-82.1,-36.8,-63.9,1023,2018,4,24,22,41,56.601,0.4445,-0.4434,0.2841,0.7245
-0.169,0.084,0.2,-99,-38.4,-67.5,1023,2018,4,24,22,41,56.625,0.4285,-0.4545,0.2916,0.7243
-0.017,0.254,0.054,-103.9,-51.4,-64,0,2018,4,24,22,41,56.642,0.4113,-0.4673,0.2989,0.7232
0.173,0.307,-0.106,-94.4,-63.4,-53.1,0,2018,4,24,22,41,56.666,0.3937,-0.481,0.3034,0.7221
0.319,0.352,-0.19,-73.4,-57.6,-37.6,0,2018,4,24,22,41,56.682,0.3783,-0.4933,0.3052,0.7213
0.399,0.428,-0.24,-44.9,-35.7,-16.4,0,2018,4,24,22,41,56.701,0.3676,-0.5024,0.3054,0.7204
0.46,0.481,-0.312,-9.8,-2.6,8.3,0,2018,4,24,22,41,56.718,0.3641,-0.5068,0.3051,0.7193
0.422,0.49,-0.395,26.9,23.1,32,0,2018,4,24,22,41,56.74,0.3683,-0.5059,0.3042,0.7181
0.351,0.353,-0.394,63,40.1,52.1,0,2018,4,24,22,41,56.78,0.379,-0.5003,0.3014,0.7177
0.188,0.253,-0.234,88.8,44.9,63.1,0,2018,4,24,22,41,56.78,0.3942,-0.4906,0.2966,0.7181
0.036,0.134,-0.09,102.7,37.1,67.2,0,2018,4,24,22,41,56.803,0.411,-0.4789,0.2894,0.7196
-0.116,0.064,0.07,105.6,18.9,62.5,0,2018,4,24,22,41,56.841,0.4264,-0.4665,0.2805,0.7222
-0.178,0.053,0.192,96.2,-0.6,58.1,0,2018,4,24,22,41,56.863,0.4396,-0.4559,0.2691,0.7254
-0.254,-0.083,0.28,80.8,-27.8,48.3,0,2018,4,24,22,41,56.868,0.4495,-0.4482,0.2563,0.7288
-0.301,-0.297,0.248,66.4,-48.2,35.6,0,2018,4,24,22,41,56.884,0.4552,-0.4438,0.2421,0.7328
-0.415,-0.422,0.325,45.7,-37.1,15.4,0,2018,4,24,22,41,56.907,0.4577,-0.441,0.23,0.7369
-0.482,-0.402,0.412,16.9,-24.5,-7.2,0,2018,4,24,22,41,56.922,0.4573,-0.4393,0.2236,0.74
-0.496,-0.267,0.437,-13.7,-31.4,-25.4,0,2018,4,24,22,41,56.941,0.4532,-0.4406,0.2214,0.7424
-0.495,-0.195,0.313,-36.5,-37.1,-36.2,0,2018,4,24,22,41,56.964,0.4456,-0.4455,0.2214,0.7441
-0.466,-0.143,0.193,-49.5,-34,-44.7,0,2018,4,24,22,41,56.98,0.4361,-0.4523,0.2233,0.7451
-0.358,-0.168,0.136,-58.7,-19.2,-49.4,0,2018,4,24,22,41,57.003,0.4259,-0.4595,0.2276,0.7453
-0.264,-0.028,0.133,-64.1,8.7,-49.3,0,2018,4,24,22,41,57.022,0.4166,-0.4658,0.2358,0.7441
-0.198,0.169,0.124,-69.1,14.9,-41.5,0,2018,4,24,22,41,57.043,0.409,-0.4715,0.2461,0.7414
-0.111,0.367,0.059,-75.5,0.1,-33,0,2018,4,24,22,41,57.081,0.4017,-0.4786,0.2555,0.7376
0,0.257,-0.049,-75.8,-22,-26.1,0,2018,4,24,22,41,57.105,0.3935,-0.488,0.2616,0.7338
0.155,0.188,-0.114,-69,-20.9,-21.7,0,2018,4,24,22,41,57.109,0.385,-0.4978,0.2656,0.7302
0.257,0.248,-0.118,-55.7,0.7,-8.8,1023,2018,4,24,22,41,57.123,0.3792,-0.5058,0.2698,0.7263
0.312,0.329,-0.106,-39,30.8,7.3,1023,2018,4,24,22,41,57.161,0.3784,-0.5106,0.2751,0.7213
0.378,0.417,-0.239,-17.3,36.1,24.4,1023,2018,4,24,22,41,57.161,0.3824,-0.5125,0.2801,0.7159
0.375,0.445,-0.19,4,12.6,39.8,1023,2018,4,24,22,41,57.185,0.3883,-0.5131,0.2807,0.712
0.291,0.283,-0.026,22.5,-3.7,55.2,1023,2018,4,24,22,41,57.201,0.3952,-0.5136,0.2756,0.7098
0.192,0.122,0.014,35.7,5.4,65.5,1023,2018,4,24,22,41,57.225,0.4039,-0.5128,0.2685,0.7083
0.146,0,-0.028,47.1,19.4,67.6,1023,2018,4,24,22,41,57.242,0.4147,-0.5103,0.2617,0.7064
0.041,0.019,-0.056,58.6,29.8,62.1,1023,2018,4,24,22,41,57.266,0.4271,-0.5055,0.2559,0.7046
-0.032,-0.119,-0.008,66.5,17,53.7,1023,2018,4,24,22,41,57.303,0.4389,-0.4992,0.249,0.7043
-0.158,-0.268,0.087,67.8,13.4,39.4,1023,2018,4,24,22,41,57.326,0.4489,-0.4917,0.2414,0.7059
-0.252,-0.315,0.169,59.9,9.5,21.5,1023,2018,4,24,22,41,57.331,0.4563,-0.4841,0.2352,0.7085
-0.299,-0.29,0.178,48.2,-5.3,0.1,1023,2018,4,24,22,41,57.346,0.4601,-0.4775,0.2304,0.712
-0.347,-0.331,0.215,33.4,-23.7,-21.9,1023,2018,4,24,22,41,57.37,0.459,-0.4733,0.2262,0.7169
-0.388,-0.302,0.275,15.7,-30.2,-41.5,0,2018,4,24,22,41,57.404,0.4537,-0.4711,0.2234,0.7226
-0.417,-0.218,0.298,-2.8,-25.6,-55.6,0,2018,4,24,22,41,57.426,0.4456,-0.4706,0.2234,0.7279
-0.429,-0.083,0.297,-21.1,-24,-63.7,0,2018,4,24,22,41,57.431,0.4354,-0.4716,0.2263,0.7325
-0.395,-0.005,0.229,-35.3,-28.9,-65.1,0,2018,4,24,22,41,57.446,0.4237,-0.4748,0.2304,0.736
-0.327,-0.034,0.181,-43.2,-20.3,-62,0,2018,4,24,22,41,57.465,0.4117,-0.4792,0.2352,0.7384
-0.256,0.04,0.141,-48.6,8.5,-55.9,0,2018,4,24,22,41,57.489,0.4016,-0.4832,0.2427,0.739
-0.123,0.187,0.087,-49.7,41,-43.9,0,2018,4,24,22,41,57.505,0.3952,-0.4856,0.2537,0.7372
0.057,0.392,0.093,-49.5,50,-27.9,0,2018,4,24,22,41,57.529,0.3925,-0.4869,0.2665,0.7332
0.137,0.45,0.1,-47.3,24.6,-9.2,0,2018,4,24,22,41,57.548,0.3911,-0.4897,0.2762,0.7285
0.197,0.406,0.064,-42.8,8.7,9.6,0,2018,4,24,22,41,57.57,0.3902,-0.4945,0.2811,0.7239
0.258,0.346,-0.045,-33.1,6.8,27.4,0,2018,4,24,22,41,57.588,0.3913,-0.4998,0.2829,0.7189
0.301,0.262,-0.163,-18.1,8.3,40,0,2018,4,24,22,41,57.611,0.395,-0.5041,0.2826,0.714
0.318,0.174,-0.214,-1.3,14.8,46.9,0,2018,4,24,22,41,57.628,0.4011,-0.5067,0.2808,0.7095
0.308,0.128,-0.275,18.2,17.2,48.2,0,2018,4,24,22,41,57.664,0.4089,-0.5067,0.278,0.706
0.265,-0.058,-0.201,37.5,18.1,43.7,0,2018,4,24,22,41,57.664,0.4174,-0.5043,0.2739,0.7044
0.169,-0.098,-0.043,49.8,30.3,35.3,0,2018,4,24,22,41,57.687,0.4266,-0.4989,0.2702,0.7042
0.094,-0.023,0.025,55.7,25.3,25.8,0,2018,4,24,22,41,57.724,0.4354,-0.4923,0.2672,0.7046
0.017,-0.087,0.029,60,2.7,15.2,0,2018,4,24,22,41,57.747,0.4418,-0.4853,0.2626,0.7072
-0.097,-0.216,0.027,63.3,-3.1,3.5,0,2018,4,24,22,41,57.751,0.4456,-0.4784,0.2566,0.7117
-0.22,-0.217,0.106,61.7,3.3,-8.9,0,2018,4,24,22,41,57.769,0.4481,-0.4704,0.252,0.7171
-0.346,-0.158,0.223,50.9,-1.4,-19.6,0,2018,4,24,22,41,57.791,0.4488,-0.4625,0.2489,0.7229
-0.408,-0.081,0.245,37.3,-14.4,-25.4,0,2018,4,24,22,41,57.808,0.4472,-0.4565,0.2463,0.7285
-0.471,-0.105,0.259,23.1,-21.8,-31.5,1023,2018,4,24,22,41,57.831,0.4435,-0.4529,0.2439,0.7338
-0.484,-0.09,0.313,5.8,-18.5,-35.4,1023,2018,4,24,22,41,57.847,0.4382,-0.4512,0.2428,0.7384
-0.47,0.002,0.342,-12.6,-11.8,-33.2,1023,2018,4,24,22,41,57.885,0.4323,-0.4514,0.2439,0.7414
-0.425,0.024,0.247,-27.4,-1.1,-26.6,1023,2018,4,24,22,41,57.885,0.427,-0.4533,0.2469,0.7423
-0.368,0.047,0.169,-35.6,20.6,-17.7,1023,2018,4,24,22,41,57.906,0.4235,-0.4558,0.2523,0.741
-0.307,0.162,0.169,-44.9,30.1,-7.2,1023,2018,4,24,22,41,57.945,0.4224,-0.4583,0.2598,0.7374
-0.235,0.281,0.175,-57,13.2,5.4,1023,2018,4,24,22,41,57.967,0.4218,-0.4632,0.2667,0.7323
-0.128,0.212,0.104,-64.5,-2.5,18.1,1023,2018,4,24,22,41,57.971,0.4206,-0.4714,0.2706,0.7263
0.011,0.198,0.038,-63.4,2.6,30.4,1023,2018,4,24,22,41,58.008,0.4206,-0.4808,0.2732,0.7191
0.104,0.147,-0.028,-55.8,21.5,35.4,1023,2018,4,24,22,41,58.033,0.4229,-0.489,0.2761,0.711
0.22,0.189,-0.124,-46.7,26.8,37.2,1023,2018,4,24,22,41,58.036,0.4273,-0.4951,0.2801,0.7026
0.351,0.209,-0.155,-35.3,12.5,38.4,0,2018,4,24,22,41,58.053,0.4316,-0.5005,0.2823,0.6952
0.453,0.082,-0.189,-21,2.7,36.5,0,2018,4,24,22,41,58.072,0.4353,-0.5053,0.2818,0.6896
0.501,-0.019,-0.16,-5.3,13.2,30.4,0,2018,4,24,22,41,58.093,0.4394,-0.5079,0.2806,0.6856
0.471,0.013,-0.109,8.6,21,21.4,0,2018,4,24,22,41,58.128,0.4442,-0.5075,0.2804,0.6829
0.409,0.053,-0.08,21.5,14.3,13.8,0,2018,4,24,22,41,58.128,0.4485,-0.5053,0.28,0.6819
0.321,0.025,-0.11,34.7,4.1,6.3,0,2018,4,24,22,41,58.152,0.4517,-0.5019,0.278,0.6831
0.23,-0.027,-0.086,48.5,6.2,1.3,0,2018,4,24,22,41,58.169,0.4538,-0.4979,0.2757,0.6855
0.134,-0.031,-0.091,59,15.9,-4.7,0,2018,4,24,22,41,58.193,0.4568,-0.4916,0.2734,0.6889
0.014,0.064,-0.026,64.8,11.2,-9.1,0,2018,4,24,22,41,58.211,0.4598,-0.4832,0.2715,0.6937
-0.143,0.103,0.077,64.5,-15.1,-9.5,0,2018,4,24,22,41,58.249,0.4613,-0.4748,0.2673,0.7001
-0.298,-0.01,0.146,57.1,-43.3,-10.5,0,2018,4,24,22,41,58.272,0.4604,-0.4693,0.2594,0.7073
-0.416,-0.149,0.149,47.3,-47.1,-15.2,0,2018,4,24,22,41,58.277,0.4576,-0.466,0.2505,0.7146
-0.512,-0.127,0.204,37.9,-35.8,-19.4,0,2018,4,24,22,41,58.293,0.4541,-0.463,0.2434,0.721
-0.557,-0.1,0.222,29.4,-29.7,-22.2,0,2018,4,24,22,41,58.314,0.4505,-0.4604,0.2384,0.7267
-0.563,-0.073,0.279,16.2,-22.9,-24.9,0,2018,4,24,22,41,58.336,0.4465,-0.4584,0.2352,0.7314
-0.542,-0.033,0.292,-0.8,-19.5,-25,0,2018,4,24,22,41,58.351,0.4421,-0.458,0.2341,0.7347
-0.48,-0.009,0.258,-15.9,-15.4,-20,0,2018,4,24,22,41,58.369,0.4378,-0.4595,0.2343,0.7363
-0.423,-0.005,0.249,-28.2,-1.1,-13.6,0,2018,4,24,22,41,58.392,0.4343,-0.4621,0.2364,0.736
-0.281,0.169,0.234,-38.4,13.1,-3.6,0,2018,4,24,22,41,58.41,0.4327,-0.4652,0.241,0.7336
-0.171,0.201,0.17,-49.5,-17,1.4,0,2018,4,24,22,41,58.434,0.4309,-0.4708,0.2444,0.7299
-0.047,0.038,0.122,-55.4,-42.5,9.4,0,2018,4,24,22,41,58.469,0.4265,-0.4803,0.2436,0.7265
0.033,-0.023,0.111,-55.3,-19.3,12.4,0,2018,4,24,22,41,58.491,0.4231,-0.4898,0.2422,0.7227
0.13,0.137,0.09,-53.1,-5.7,15.9,0,2018,4,24,22,41,58.503,0.4216,-0.4975,0.2441,0.7176
0.235,0.223,0.027,-49.6,-23.4,17.6,0,2018,4,24,22,41,58.526,0.4204,-0.5057,0.2447,0.7124
0.3,0.136,-0.012,-42.8,-35.3,15.9,1023,2018,4,24,22,41,58.534,0.4177,-0.5144,0.2426,0.7084
0.361,0.095,-0.058,-34.2,-29.5,14.7,1023,2018,4,24,22,41,58.572,0.415,-0.5222,0.24,0.7052
0.381,0.104,-0.091,-24.1,-22.2,12.7,1023,2018,4,24,22,41,58.572,0.4131,-0.5282,0.2377,0.7026
0.358,0.102,-0.115,-11.6,-12,10.5,1023,2018,4,24,22,41,58.595,0.4122,-0.5321,0.2357,0.7008
0.315,0.091,-0.114,1.1,4.9,10.1,1023,2018,4,24,22,41,58.613,0.4129,-0.5335,0.2346,0.6998
0.217,0.136,-0.119,13.6,22.7,13.3,1023,2018,4,24,22,41,58.651,0.416,-0.5319,0.2348,0.6991
0.064,0.13,-0.153,39.1,22.9,21.3,1023,2018,4,24,22,41,58.651,0.4273,-0.5231,0.234,0.6991
-0.022,0.067,-0.114,52.6,23.1,23.6,1023,2018,4,24,22,41,58.675,0.4339,-0.5169,0.2313,0.7006
-0.106,-0.014,-0.029,62.8,22.6,22.4,1023,2018,4,24,22,41,58.714,0.4407,-0.5094,0.2282,0.7029
-0.207,-0.117,0.07,65.5,21.3,13.7,1023,2018,4,24,22,41,58.735,0.4476,-0.5005,0.2241,0.7062
-0.292,-0.117,0.132,60.1,9.4,3,1023,2018,4,24,22,41,58.739,0.4525,-0.4916,0.2204,0.7105
-0.345,-0.119,0.076,52.8,-20.6,-6.4,1023,2018,4,24,22,41,58.755,0.4543,-0.4849,0.2156,0.7154
-0.458,-0.145,0.118,45.1,-48.6,-16.7,1023,2018,4,24,22,41,58.779,0.4519,-0.481,0.2082,0.7217
-0.488,-0.232,0.271,30.9,-57,-27.9,0,2018,4,24,22,41,58.797,0.4462,-0.4795,0.2002,0.7285
-0.465,-0.213,0.421,13.2,-39.5,-36.7,0,2018,4,24,22,41,58.821,0.439,-0.4792,0.1951,0.7344
-0.441,-0.116,0.389,-5.5,-13.1,-41,0,2018,4,24,22,41,58.838,0.4321,-0.4793,0.1948,0.7385
-0.346,0.034,0.296,-21.2,-2,-38.7,0,2018,4,24,22,41,58.862,0.4263,-0.4801,0.1986,0.7404
-0.248,0.147,0.253,-36.8,-21,-31.7,0,2018,4,24,22,41,58.876,0.4199,-0.4834,0.2025,0.7409
-0.174,0.121,0.234,-51.7,-42.8,-24.7,0,2018,4,24,22,41,58.912,0.4119,-0.4905,0.2038,0.7403
-0.15,0.054,0.19,-64.8,-51.9,-21.7,0,2018,4,24,22,41,58.935,0.4026,-0.5008,0.2037,0.7385
-0.072,0.035,0.109,-72.7,-46.2,-21.1,0,2018,4,24,22,41,58.94,0.393,-0.5123,0.204,0.7358
0.047,0.051,0.034,-73.4,-33.2,-21.6,0,2018,4,24,22,41,58.955,0.3838,-0.5232,0.2061,0.7323
0.151,0.099,-0.009,-68,-17.2,-22.5,0,2018,4,24,22,41,58.977,0.3755,-0.5332,0.2106,0.7281
0.209,0.114,-0.071,-58.5,7.9,-20.1,0,2018,4,24,22,41,59.014,0.3694,-0.541,0.2169,0.7236
0.324,0.234,-0.209,-44,23.7,-15.5,0,2018,4,24,22,41,59.037,0.3669,-0.5457,0.2241,0.7192
0.44,0.384,-0.278,-22,21.5,-7.8,0,2018,4,24,22,41,59.042,0.3663,-0.5478,0.2304,0.7158
0.448,0.381,-0.243,3.2,11.9,5.6,0,2018,4,24,22,41,59.06,0.3673,-0.5479,0.2331,0.7144
0.407,0.223,-0.193,27,20.4,19.7,0,2018,4,24,22,41,59.076,0.371,-0.5455,0.2326,0.7145
0.341,0.173,-0.154,49.9,38.6,30.7,0,2018,4,24,22,41,59.094,0.3788,-0.5395,0.2314,0.7153
0.242,0.185,-0.037,64.3,28.7,35.8,0,2018,4,24,22,41,59.116,0.3887,-0.5312,0.2289,0.717
0.11,-0.032,0.074,73,7.6,33.2,0,2018,4,24,22,41,59.154,0.3972,-0.5228,0.2233,0.7203
-0.017,-0.245,0.172,74.3,11,24.1,0,2018,4,24,22,41,59.176,0.4044,-0.514,0.2163,0.7247
-0.125,-0.307,0.19,69.6,24.3,12.4,0,2018,4,24,22,41,59.181,0.4111,-0.5042,0.2119,0.7292
-0.219,-0.287,0.122,63.8,20.6,-0.9,0,2018,4,24,22,41,59.198,0.4164,-0.4942,0.2097,0.7337
-0.349,-0.294,0.127,55.8,9.1,-17.2,0,2018,4,24,22,41,59.221,0.4186,-0.485,0.208,0.739
-0.464,-0.264,0.205,41.6,-4.8,-33.3,0,2018,4,24,22,41,59.239,0.4172,-0.4776,0.2069,0.7449
-0.541,-0.24,0.268,24.5,-14.8,-45.3,0,2018,4,24,22,41,59.263,0.4122,-0.4727,0.2063,0.7509
-0.579,-0.156,0.31,7.8,-10.1,-51.8,1023,2018,4,24,22,41,59.281,0.4052,-0.4698,0.2075,0.7562
-0.554,-0.093,0.247,-5.5,4.2,-51.2,1023,2018,4,24,22,41,59.298,0.3981,-0.4681,0.2113,0.76
-0.528,-0.066,0.168,-15,26.8,-46.9,1023,2018,4,24,22,41,59.316,0.3924,-0.4666,0.2181,0.7619
-0.483,0.088,0.17,-25.7,39.5,-38.5,1023,2018,4,24,22,41,59.339,0.3888,-0.4652,0.2277,0.7618
-0.374,0.238,0.204,-36.5,29.5,-23.4,1023,2018,4,24,22,41,59.357,0.3863,-0.4657,0.2371,0.7599
-0.277,0.265,0.183,-48.5,12,-6.6,1023,2018,4,24,22,41,59.381,0.3843,-0.4694,0.2439,0.7565
-0.173,0.147,0.069,-61.8,-4.3,-0.1,1023,2018,4,24,22,41,59.399,0.3818,-0.4764,0.2482,0.752
-0.043,0.07,-0.024,-68,-9.1,2.8,1023,2018,4,24,22,41,59.437,0.3783,-0.4855,0.2518,0.7467
0.147,0.04,-0.065,-65.3,-10.7,2.7,1023,2018,4,24,22,41,59.461,0.3744,-0.4955,0.2553,0.7409
0.265,0.078,0.046,-60.7,-6.2,-2,1023,2018,4,24,22,41,59.465,0.3703,-0.5047,0.259,0.7354
0.349,0.085,0.052,-53.6,0.3,-6,1023,2018,4,24,22,41,59.48,0.3663,-0.5122,0.2635,0.7306
0.447,0.069,-0.035,-41,17.6,-6.7,0,2018,4,24,22,41,59.504,0.3635,-0.518,0.2689,0.726
0.556,0.234,-0.113,-22.4,20.7,-3.6,0,2018,4,24,22,41,59.521,0.3632,-0.5206,0.2743,0.7223
0.505,0.276,-0.076,-2,5.2,4.5,0,2018,4,24,22,41,59.544,0.3639,-0.5212,0.2767,0.7206
0.389,0.248,-0.02,17.1,4.6,16.3,0,2018,4,24,22,41,59.563,0.3659,-0.5204,0.2756,0.7205
0.261,0.265,-0.085,35.1,11,30.1,0,2018,4,24,22,41,59.587,0.3709,-0.5177,0.2728,0.721
0.134,0.146,-0.155,54.4,9.4,37.3,0,2018,4,24,22,41,59.601,0.3783,-0.5129,0.2681,0.7223
-0.041,0.014,-0.105,69.2,5.1,41.3,0,2018,4,24,22,41,59.619,0.3867,-0.5066,0.2614,0.7248
-0.197,-0.167,0.068,76.1,14.3,37.4,0,2018,4,24,22,41,59.642,0.396,-0.4988,0.2539,0.7279
-0.311,-0.254,0.121,74,26,26.3,0,2018,4,24,22,41,59.68,0.4052,-0.4891,0.2485,0.7312
-0.461,-0.239,0.248,61.6,25.1,6.8,0,2018,4,24,22,41,59.7,0.4126,-0.479,0.2457,0.7347
-0.546,-0.243,0.344,37.1,5.4,-12.4,0,2018,4,24,22,41,59.704,0.4155,-0.4715,0.2444,0.7384
-0.568,-0.25,0.382,9.7,-8.1,-28,0,2018,4,24,22,41,59.723,0.4135,-0.4678,0.2441,0.7419
-0.566,-0.205,0.312,-14.2,-9.3,-39.1,0,2018,4,24,22,41,59.744,0.4082,-0.4675,0.2459,0.7445
-0.54,-0.192,0.23,-32.1,2.2,-45.5,0,2018,4,24,22,41,59.762,0.4011,-0.4691,0.2505,0.7457
-0.47,-0.037,0.163,-45.3,23.5,-44.2,0,2018,4,24,22,41,59.785,0.3945,-0.4713,0.2588,0.7451
-0.378,0.147,0.114,-54.1,39,-35.2,0,2018,4,24,22,41,59.802,0.3897,-0.4737,0.2698,0.7421
-0.23,0.27,0.048,-58.7,50,-18.3,0,2018,4,24,22,41,59.839,0.3873,-0.4766,0.2817,0.7371
-0.075,0.213,-0.04,-57,46.4,-2.1,0,2018,4,24,22,41,59.86,0.3872,-0.4804,0.2926,0.7304
0.043,0.144,-0.057,-48.5,58.9,11.3,0,2018,4,24,22,41,59.864,0.3894,-0.484,0.3022,0.723
0.162,0.088,-0.06,-37.9,84,21.5,0,2018,4,24,22,41,59.882,0.395,-0.4856,0.3131,0.7141
0.262,0.137,-0.058,-27.5,100.4,26.2,0,2018,4,24,22,41,59.905,0.4038,-0.4847,0.3257,0.7041
0.348,0.239,-0.026,-16.5,84.5,27.7,0,2018,4,24,22,41,59.923,0.4139,-0.4821,0.3365,0.6948
0.406,0.277,-0.002,-8,32.9,26.8,0,2018,4,24,22,41,59.946,0.4215,-0.4808,0.3423,0.6883
0.442,0.081,-0.024,-0.2,-14.1,21.8,0,2018,4,24,22,41,59.964,0.4244,-0.4826,0.3415,0.6857
0.457,0,-0.014,10.6,-6.6,15,0,2018,4,24,22,41,59.986,0.4253,-0.4849,0.3385,0.685
0.41,0.146,0.034,21.6,14.2,11.7,1023,2018,4,24,22,42,0.003,0.4279,-0.4839,0.3376,0.6846
0.251,0.349,0.084,26.8,-12.8,10.3,1023,2018,4,24,22,42,0.02,0.431,-0.4811,0.3356,0.6855
0.137,0.23,0.028,30.1,-79.8,9.9,1023,2018,4,24,22,42,0.044,0.4297,-0.482,0.3267,0.69
0.041,-0.067,0.05,35.4,-84,13.7,1023,2018,4,24,22,42,0.06,0.4252,-0.4853,0.3127,0.6969
-0.104,-0.207,0.074,39.3,-38.1,16.3,1023,2018,4,24,22,42,0.084,0.4241,-0.486,0.3011,0.7022
-0.256,-0.115,0.121,37.9,-14.2,12.4,1023,2018,4,24,22,42,0.121,0.426,-0.4837,0.2942,0.7056
-0.378,-0.011,0.106,33.9,-26,10.3,1023,2018,4,24,22,42,0.143,0.4276,-0.4812,0.2883,0.7087
-0.48,-0.135,0.101,29.1,-35.3,7.2,1023,2018,4,24,22,42,0.145,0.4276,-0.4803,0.2811,0.7123
-0.551,-0.178,0.14,22.9,-23.1,0.8,1023,2018,4,24,22,42,0.182,0.4269,-0.4794,0.2752,0.7156
-0.568,-0.144,0.191,14.3,-14.7,-6.2,1023,2018,4,24,22,42,0.203,0.4259,-0.4782,0.2718,0.7183
-0.535,-0.122,0.263,3,-4.6,-10.5,1023,2018,4,24,22,42,0.205,0.4243,-0.4775,0.2705,0.7201
-0.47,-0.13,0.242,-11,12.2,-13.1,0,2018,4,24,22,42,0.243,0.423,-0.4771,0.2724,0.7205
-0.377,-0.092,0.194,-25.1,33.3,-13.7,0,2018,4,24,22,42,0.266,0.4223,-0.4771,0.2778,0.7188
-0.28,0.014,0.154,-39.2,44.6,-10.2,0,2018,4,24,22,42,0.268,0.4225,-0.4775,0.2863,0.715
-0.182,0.177,0.131,-50.3,38.2,-4.3,0,2018,4,24,22,42,0.283,0.4229,-0.4796,0.2957,0.7096
-0.089,0.223,0.111,-59.8,16.6,3.5,0,2018,4,24,22,42,0.304,0.4223,-0.4844,0.3031,0.7035
0.027,0.194,0.104,-65.3,5.2,10.6,0,2018,4,24,22,42,0.339,0.4207,-0.4918,0.3083,0.6971
0.122,0.229,0.071,-71.1,-8.2,12,0,2018,4,24,22,42,0.36,0.4183,-0.5007,0.3122,0.6904
0.231,0.169,0.018,-69.9,-32.8,9.4,0,2018,4,24,22,42,0.366,0.4137,-0.5114,0.3139,0.6845
0.405,0.097,-0.07,-57.3,-35.3,5.2,0,2018,4,24,22,42,0.401,0.4071,-0.5224,0.3144,0.6799
0.482,0.091,-0.087,-40.4,-22,0.5,0,2018,4,24,22,42,0.424,0.4021,-0.5303,0.3142,0.6769
0.532,0.104,-0.118,-23.8,-5.5,-2,0,2018,4,24,22,42,0.426,0.399,-0.535,0.3149,0.6747
0.53,0.11,-0.169,-4.6,10.3,-1.1,0,2018,4,24,22,42,0.462,0.3983,-0.5363,0.3164,0.6734
0.464,0.158,-0.166,16.7,18.1,4.1,0,2018,4,24,22,42,0.483,0.4002,-0.5346,0.3176,0.673
0.298,0.174,-0.11,36,13.9,11.4,0,2018,4,24,22,42,0.488,0.4042,-0.5307,0.317,0.6741
0.125,0.124,-0.057,51.4,8.9,16.8,0,2018,4,24,22,42,0.504,0.4094,-0.5254,0.3138,0.6765
0.012,-0.012,-0.03,62.5,8.7,16.9,0,2018,4,24,22,42,0.525,0.4149,-0.5193,0.3097,0.6798
-0.134,-0.106,0.047,66.9,12.1,14,0,2018,4,24,22,42,0.561,0.4214,-0.5118,0.3044,0.6838
-0.263,-0.115,0.084,66.1,7.5,7.1,0,2018,4,24,22,42,0.582,0.4272,-0.5036,0.2999,0.6883
-0.398,-0.214,0.091,61,-15.6,-5.6,0,2018,4,24,22,42,0.586,0.4303,-0.4962,0.2946,0.694
-0.475,-0.394,0.106,54.8,-24.2,-20.4,0,2018,4,24,22,42,0.621,0.4296,-0.4902,0.2886,0.7012
-0.598,-0.469,0.248,40.5,-14.3,-39.8,0,2018,4,24,22,42,0.645,0.4266,-0.4843,0.2851,0.7085
-0.653,-0.287,0.367,18.9,5.9,-52.3,0,2018,4,24,22,42,0.65,0.4219,-0.4785,0.2865,0.7147
-0.635,-0.103,0.337,-3.3,21.7,-56,0,2018,4,24,22,42,0.685,0.4166,-0.4737,0.2923,0.7185
-0.521,0.062,0.233,-22.4,26.8,-52.8,1023,2018,4,24,22,42,0.708,0.4111,-0.4708,0.3011,0.7201
-0.375,0.126,0.155,-33.8,27.3,-42.8,1023,2018,4,24,22,42,0.714,0.4057,-0.47,0.3104,0.7197
-0.265,0.16,0.189,-42.5,36.5,-28.3,1023,2018,4,24,22,42,0.727,0.4018,-0.4706,0.3199,0.7173
-0.164,0.215,0.25,-54.9,39.8,-12.2,1023,2018,4,24,22,42,0.761,0.3997,-0.4729,0.3299,0.7125
-0.05,0.294,0.158,-66.2,35.1,2.2,1023,2018,4,24,22,42,0.784,0.3987,-0.4775,0.3393,0.7054
0.052,0.153,0.094,-69.5,26.4,9.6,1023,2018,4,24,22,42,0.789,0.398,-0.4842,0.3471,0.6975
0.205,0.138,0.057,-68.4,24.6,13.6,1023,2018,4,24,22,42,0.826,0.3969,-0.4911,0.3546,0.6895
0.335,0.215,0.044,-63.8,16.9,18.2,1023,2018,4,24,22,42,0.849,0.3958,-0.4983,0.3613,0.6815
0.425,0.147,0,-51.5,6.7,19.2,1023,2018,4,24,22,42,0.854,0.3948,-0.5056,0.3655,0.6744
0.47,0.072,-0.074,-34,15.9,17.6,1023,2018,4,24,22,42,0.873,0.3945,-0.5115,0.3687,0.6682
0.51,0.127,-0.105,-15.8,24.7,15.8,0,2018,4,24,22,42,0.889,0.3964,-0.5146,0.3722,0.6628
0.456,0.154,-0.102,3.1,13.9,13.3,0,2018,4,24,22,42,0.912,0.3994,-0.5148,0.3737,0.66
0.337,0.117,-0.159,22.2,-1.2,12.7,0,2018,4,24,22,42,0.948,0.4023,-0.5138,0.3723,0.6599
0.216,0.044,-0.172,42.3,-3.2,12.4,0,2018,4,24,22,42,0.971,0.4055,-0.5111,0.3684,0.6622
0.071,-0.023,-0.117,59.2,11.3,8.2,0,2018,4,24,22,42,0.977,0.4099,-0.5066,0.3649,0.6648
-0.089,-0.002,0.008,66.9,18.3,3.1,0,2018,4,24,22,42,0.991,0.4159,-0.4989,0.3619,0.6685
-0.232,-0.013,0.093,64.5,-0.3,-2.4,0,2018,4,24,22,42,1.007,0.4212,-0.4897,0.3579,0.6742
-0.322,-0.104,0.057,59.2,-22.9,-9.5,0,2018,4,24,22,42,1.03,0.4233,-0.4829,0.3522,0.6807
-0.426,-0.171,0.114,51.8,-26.9,-20.6,0,2018,4,24,22,42,1.048,0.4226,-0.4772,0.3462,0.6882
-0.5,-0.173,0.167,39.6,-17.9,-30.1,0,2018,4,24,22,42,1.071,0.4204,-0.4719,0.3422,0.6952
-0.551,-0.236,0.166,27.1,11.2,-40.2,0,2018,4,24,22,42,1.108,0.4176,-0.4661,0.342,0.7008
-0.613,-0.081,0.371,5.3,47.3,-44,0,2018,4,24,22,42,1.132,0.4159,-0.4592,0.3482,0.7034
-0.596,0.07,0.432,-23.5,45.3,-39.2,0,2018,4,24,22,42,1.137,0.414,-0.4542,0.3583,0.7026
-0.489,0.208,0.303,-47.9,20.4,-26.3,0,2018,4,24,22,42,1.154,0.4102,-0.4542,0.3677,0.7
-0.355,0.294,0.201,-63,-3.1,-7.9,0,2018,4,24,22,42,1.174,0.4051,-0.4596,0.3739,0.6962
-0.192,0.241,0.117,-69,-11.8,8.4,0,2018,4,24,22,42,1.209,0.4001,-0.4683,0.3775,0.6913
0.004,0.206,0.065,-67.5,-9.7,21.8,0,2018,4,24,22,42,1.209,0.3965,-0.4785,0.3796,0.6853
0.166,0.181,0.055,-58.1,1.7,33.5,0,2018,4,24,22,42,1.232,0.395,-0.488,0.3813,0.6784
0.318,0.157,-0.001,-46.8,11.7,39.8,0,2018,4,24,22,42,1.249,0.3959,-0.4958,0.3835,0.6709
0.476,0.239,-0.046,-31.9,1.4,41.9,0,2018,4,24,22,42,1.272,0.3984,-0.5026,0.3841,0.664
0.59,0.216,-0.038,-12.3,-17.9,40.7,0,2018,4,24,22,42,1.291,0.401,-0.5085,0.3808,0.6598
0.587,0.041,0.002,4.4,-24.6,34.4,0,2018,4,24,22,42,1.314,0.4026,-0.5134,0.3757,0.658
0.518,0.002,0.066,18.6,-20.1,26.2,0,2018,4,24,22,42,1.349,0.4047,-0.516,0.3697,0.6581
0.39,-0.006,0.045,30.9,-14.6,19.7,0,2018,4,24,22,42,1.373,0.4074,-0.5161,0.3639,0.6596
0.218,-0.019,0.014,39.3,-12.7,13.6,1023,2018,4,24,22,42,1.378,0.4104,-0.5143,0.3584,0.6621
0.059,-0.08,-0.006,46.4,-14.4,8,1023,2018,4,24,22,42,1.411,0.4132,-0.5115,0.3526,0.6657
-0.109,-0.137,0.024,49.8,-15.1,3.1,1023,2018,4,24,22,42,1.435,0.4159,-0.5076,0.3464,0.6702
-0.239,-0.169,0.049,50.4,-17.8,-1.3,1023,2018,4,24,22,42,1.438,0.4175,-0.503,0.3407,0.6756
-0.358,-0.188,-0.005,52.5,-6.9,-6.8,1023,2018,4,24,22,42,1.453,0.4189,-0.4976,0.3357,0.6812
-0.474,-0.233,0.07,50.1,7.1,-16.8,1023,2018,4,24,22,42,1.49,0.4205,-0.4907,0.3329,0.6866
-0.587,-0.217,0.231,37,19.6,-26.4,1023,2018,4,24,22,42,1.512,0.4217,-0.483,0.3334,0.6911
-0.622,-0.098,0.261,19.2,14.1,-30.3,1023,2018,4,24,22,42,1.517,0.4213,-0.4766,0.336,0.6945
-0.629,-0.094,0.18,2.5,7.8,-30.7,1023,2018,4,24,22,42,1.536,0.419,-0.4728,0.3389,0.697
-0.577,-0.147,0.151,-14.6,16.3,-31.3,1023,2018,4,24,22,42,1.552,0.4157,-0.4709,0.3433,0.6981
-0.487,-0.053,0.225,-33.7,35.1,-24.8,1023,2018,4,24,22,42,1.576,0.4129,-0.4703,0.3506,0.6966
-0.397,0.25,0.233,-52.8,33.6,-8.5,1023,2018,4,24,22,42,1.612,0.4112,-0.4718,0.3597,0.6919
-0.256,0.268,0.187,-69.5,10.5,4.3,0,2018,4,24,22,42,1.635,0.4089,-0.4776,0.3669,0.6854
-0.078,0.193,0.12,-79.2,-5.9,14.4,0,2018,4,24,22,42,1.639,0.4052,-0.4872,0.3715,0.6784
0.088,0.199,0.037,-80.5,-13.7,23.5,0,2018,4,24,22,42,1.657,0.4014,-0.4986,0.3743,0.6707
0.171,0.185,-0.009,-75.4,-19.2,31.2,0,2018,4,24,22,42,1.693,0.3972,-0.5103,0.3764,0.6633
0.302,0.237,-0.046,-62.4,-22,38.1,0,2018,4,24,22,42,1.715,0.3947,-0.522,0.3757,0.656
0.398,0.236,-0.028,-46,-24.3,43.6,0,2018,4,24,22,42,1.719,0.3937,-0.5325,0.3729,0.6497
0.455,0.172,-0.002,-28.7,-18.2,46.7,0,2018,4,24,22,42,1.737,0.3939,-0.5411,0.3693,0.6446
0.49,0.125,-0.028,-12.6,-8.2,46.7,0,2018,4,24,22,42,1.753,0.3959,-0.5473,0.3656,0.6401
0.46,0.113,-0.026,3.9,-3,43.9,0,2018,4,24,22,42,1.775,0.3996,-0.5512,0.3617,0.6368
0.349,0.164,0,17.8,-8.5,43.1,0,2018,4,24,22,42,1.812,0.4039,-0.553,0.3571,0.6351
0.227,0.089,0.021,29.5,-20.9,40.5,0,2018,4,24,22,42,1.835,0.4079,-0.5537,0.3503,0.6357
0.084,-0.002,0.001,39.7,-27,39.3,0,2018,4,24,22,42,1.838,0.4117,-0.554,0.3416,0.6377
-0.031,-0.096,0.009,48.3,-21,38.3,0,2018,4,24,22,42,1.875,0.4165,-0.5534,0.3315,0.6404
-0.132,-0.136,0.016,55.2,-8.1,34.9,0,2018,4,24,22,42,1.875,0.4228,-0.5512,0.3218,0.6432
-0.246,-0.172,0.13,55.7,-5.1,26.3,0,2018,4,24,22,42,1.898,0.4289,-0.5469,0.3141,0.6466
-0.331,-0.158,0.176,51.6,-15.1,18.7,0,2018,4,24,22,42,1.917,0.4333,-0.5428,0.3068,0.6506
-0.38,-0.218,0.203,43,-24.6,7.6,0,2018,4,24,22,42,1.934,0.4354,-0.5397,0.2996,0.6552
-0.412,-0.338,0.339,24.5,-16.5,-9.2,0,2018,4,24,22,42,1.956,0.435,-0.5373,0.2946,0.6596
-0.45,-0.345,0.46,-2.4,-0.3,-23.7,0,2018,4,24,22,42,1.975,0.4328,-0.5358,0.2944,0.6623
-0.429,-0.263,0.381,-29.3,9,-35.6,0,2018,4,24,22,42,1.998,0.429,-0.5358,0.2992,0.6627
-0.395,-0.149,0.319,-56.2,2.8,-45.3,0,2018,4,24,22,42,2.016,0.4226,-0.5381,0.3071,0.6613
-0.307,-0.055,0.296,-79.9,-17.5,-50.6,0,2018,4,24,22,42,2.04,0.4126,-0.5439,0.3159,0.6588
-0.221,0.03,0.208,-99.3,-41.6,-52.7,0,2018,4,24,22,42,2.057,0.3987,-0.5535,0.3239,0.6554
-0.123,0.124,0.067,-109.9,-73.5,-52.3,1023,2018,4,24,22,42,2.08,0.381,-0.5665,0.3296,0.652
-0.02,0.117,-0.021,-111.3,-95.7,-52.5,1023,2018,4,24,22,42,2.097,0.3593,-0.5815,0.3327,0.6495
0.111,0.072,-0.104,-101.3,-79,-51.6,1023,2018,4,24,22,42,2.118,0.337,-0.5963,0.3353,0.6468
0.251,0.161,-0.114,-77.4,-32.3,-42.3,1023,2018,4,24,22,42,2.155,0.3201,-0.6071,0.3396,0.643
0.274,0.328,-0.041,-51.7,17,-25.6,1023,2018,4,24,22,42,2.175,0.3119,-0.6125,0.3461,0.6384
0.273,0.458,-0.078,-28.4,35.6,-5.8,1023,2018,4,24,22,42,2.179,0.311,-0.6143,0.3532,0.6333
0.312,0.388,-0.167,-4.5,32.8,13.4,1023,2018,4,24,22,42,2.215,0.3142,-0.6144,0.3574,0.6291
0.327,0.32,-0.155,20.8,33.1,31.1,1023,2018,4,24,22,42,2.236,0.3207,-0.6131,0.3581,0.6268
0.281,0.317,-0.065,41.6,26.8,45,1023,2018,4,24,22,42,2.239,0.3303,-0.6102,0.3555,0.6261
0.232,0.232,-0.019,57.3,7.6,52.8,1023,2018,4,24,22,42,2.275,0.3404,-0.6068,0.3493,0.6275
0.213,0.202,-0.049,75.4,-8,59.4,1023,2018,4,24,22,42,2.299,0.3496,-0.6027,0.3401,0.6314
0.173,0.123,-0.054,96.2,-17.6,68.2,1023,2018,4,24,22,42,2.301,0.3599,-0.5976,0.327,0.6373
0.054,-0.043,0.099,111,-21.2,71,0,2018,4,24,22,42,2.335,0.3714,-0.5911,0.311,0.6449
-0.087,-0.036,0.274,110.3,-27.1,72.4,0,2018,4,24,22,42,2.358,0.3831,-0.5836,0.2934,0.653
-0.202,-0.077,0.295,99.8,-49,73,0,2018,4,24,22,42,2.361,0.3928,-0.5777,0.2746,0.6606
-0.29,-0.294,0.262,87.3,-54.3,66.9,0,2018,4,24,22,42,2.399,0.3999,-0.5739,0.2547,0.6676
-0.39,-0.432,0.314,70.3,-35.2,53,0,2018,4,24,22,42,2.42,0.4057,-0.5705,0.2378,0.6732
-0.434,-0.476,0.368,48.5,-14.5,34.3,0,2018,4,24,22,42,2.425,0.4109,-0.5669,0.2265,0.677
-0.448,-0.456,0.35,22.9,-5.6,10.2,0,2018,4,24,22,42,2.441,0.414,-0.5642,0.2208,0.6792
-0.438,-0.435,0.247,-1.4,-6.8,-13.4,0,2018,4,24,22,42,2.458,0.4135,-0.5634,0.2195,0.6806
-0.42,-0.473,0.106,-20.8,8.7,-40.3,0,2018,4,24,22,42,2.481,0.4097,-0.5638,0.223,0.6814
-0.372,-0.422,0.113,-39.8,41.8,-65.9,0,2018,4,24,22,42,2.517,0.4046,-0.5635,0.2335,0.6812
-0.365,-0.068,0.196,-66.2,50.5,-83.6,0,2018,4,24,22,42,2.54,0.3984,-0.563,0.2509,0.6791
-0.278,0.042,0.096,-91.8,15.4,-97.4,0,2018,4,24,22,42,2.545,0.3873,-0.5661,0.2694,0.6759
-0.184,0.031,-0.015,-107.9,-18.9,-110.2,0,2018,4,24,22,42,2.562,0.3696,-0.5728,0.2859,0.6733
-0.057,0.166,-0.082,-110.6,-26.1,-114.8,0,2018,4,24,22,42,2.581,0.3477,-0.5815,0.3018,0.6706
0.059,0.227,-0.056,-96.8,-7.1,-108,0,2018,4,24,22,42,2.605,0.3271,-0.5887,0.3173,0.6675
0.133,0.353,0.024,-75.8,33.2,-90.2,0,2018,4,24,22,42,2.623,0.312,-0.5922,0.3339,0.6635
0.226,0.53,-0.031,-55.1,52.5,-60.9,0,2018,4,24,22,42,2.64,0.3043,-0.5927,0.3507,0.658
0.32,0.644,-0.132,-28.1,30.1,-26,0,2018,4,24,22,42,2.658,0.3012,-0.5924,0.3622,0.6533
0.355,0.606,-0.131,3.1,3.5,11.5,0,2018,4,24,22,42,2.682,0.3014,-0.5926,0.3653,0.6514
0.29,0.391,-0.015,34.7,-5.2,45.8,0,2018,4,24,22,42,2.698,0.3057,-0.5924,0.3607,0.6521
0.19,0.212,0.109,56.3,8.1,68,0,2018,4,24,22,42,2.722,0.3154,-0.5906,0.3523,0.6538
0.147,0.171,0.157,69.6,15.2,82.6,0,2018,4,24,22,42,2.758,0.3293,-0.5872,0.3424,0.6553
0.102,0.083,0.192,79.3,16.5,90.5,1023,2018,4,24,22,42,2.783,0.3453,-0.5828,0.3309,0.6568
0.089,-0.053,0.22,86.1,15.2,91.8,1023,2018,4,24,22,42,2.787,0.3623,-0.5772,0.3182,0.6589
0.035,-0.106,0.294,91.4,4.8,88.5,1023,2018,4,24,22,42,2.802,0.3786,-0.5711,0.3046,0.6615
-0.072,-0.129,0.325,90.2,-8.2,84.3,1023,2018,4,24,22,42,2.841,0.3931,-0.5651,0.2896,0.6649
-0.2,-0.224,0.328,80.6,-4.6,79.1,1023,2018,4,24,22,42,2.863,0.406,-0.5598,0.2746,0.668
-0.256,-0.324,0.27,64.7,11.2,68.7,1023,2018,4,24,22,42,2.868,0.4184,-0.5545,0.2626,0.6696
-0.265,-0.346,0.166,47.6,17.9,51.4,1023,2018,4,24,22,42,2.884,0.4296,-0.5495,0.2546,0.6697
-0.298,-0.376,0.09,31.5,11.5,28.8,1023,2018,4,24,22,42,2.908,0.4374,-0.5456,0.2495,0.6698
-0.345,-0.35,0.151,13.8,1.6,2.7,1023,2018,4,24,22,42,2.921,0.4407,-0.5431,0.2471,0.6705
-0.374,-0.341,0.194,-5.3,-2.7,-22.7,1023,2018,4,24,22,42,2.96,0.4395,-0.5423,0.2476,0.6717
-0.345,-0.362,0.136,-24.6,4.2,-48.6,1023,2018,4,24,22,42,2.982,0.4345,-0.5426,0.2523,0.673
-0.291,-0.367,-0.043,-36.2,23.1,-73.4,0,2018,4,24,22,42,2.986,0.4272,-0.5425,0.2621,0.674
-0.216,-0.257,-0.113,-42,52,-96.9,0,2018,4,24,22,42,3.003,0.4187,-0.5403,0.2776,0.6749
-0.169,0.07,0.044,-48.7,56,-108.1,0,2018,4,24,22,42,3.027,0.4098,-0.5361,0.2973,0.6753
-0.079,0.216,0.18,-57.5,27.7,-108.5,0,2018,4,24,22,42,3.043,0.398,-0.5336,0.3162,0.6758
0.059,0.162,0.106,-58.2,15.7,-102.3,0,2018,4,24,22,42,3.066,0.3838,-0.5333,0.3322,0.6765
0.135,0.283,0.061,-51.3,40.1,-87.6,0,2018,4,24,22,42,3.084,0.3718,-0.5323,0.348,0.6761
0.199,0.454,-0.024,-38.1,54.5,-63.7,0,2018,4,24,22,42,3.107,0.3648,-0.5297,0.3638,0.6737
0.239,0.581,-0.081,-18.1,39.4,-34.4,0,2018,4,24,22,42,3.126,0.3617,-0.5268,0.3758,0.671
0.216,0.536,-0.094,3.6,12.3,-2.8,0,2018,4,24,22,42,3.148,0.3615,-0.5248,0.3808,0.6699
0.148,0.437,-0.046,23.4,-5,24.9,0,2018,4,24,22,42,3.165,0.364,-0.5238,0.379,0.6703
0.099,0.299,0,39.3,-3.1,46.2,0,2018,4,24,22,42,3.2,0.37,-0.5228,0.3729,0.6712
0.052,0.185,0.073,51.5,0.8,58.4,0,2018,4,24,22,42,3.224,0.3792,-0.5208,0.365,0.672
-0.011,0.096,0.137,57.5,-2,64.8,0,2018,4,24,22,42,3.229,0.3899,-0.5182,0.3556,0.6729
-0.05,-0.042,0.17,57.9,-1.4,61.7,0,2018,4,24,22,42,3.246,0.401,-0.515,0.3452,0.6743
-0.055,-0.187,0.156,54.5,7.8,50.7,0,2018,4,24,22,42,3.264,0.4112,-0.5116,0.3365,0.6752
-0.072,-0.281,0.142,51.7,18.4,35.5,0,2018,4,24,22,42,3.288,0.4207,-0.5067,0.3305,0.6759
-0.117,-0.388,0.195,43.9,16.5,14.3,0,2018,4,24,22,42,3.325,0.4279,-0.5012,0.3268,0.6773
-0.147,-0.425,0.262,30.3,10.2,-9.2,0,2018,4,24,22,42,3.325,0.4315,-0.4959,0.3255,0.6796
-0.187,-0.478,0.317,15.8,9.2,-32.7,0,2018,4,24,22,42,3.348,0.4309,-0.4913,0.3267,0.6827
-0.224,-0.518,0.272,2.1,23,-57.2,0,2018,4,24,22,42,3.365,0.4273,-0.4865,0.3317,0.686
-0.288,-0.397,0.273,-12.9,43.8,-81.2,0,2018,4,24,22,42,3.384,0.4215,-0.4804,0.3422,0.6887
-0.298,-0.225,0.254,-30.6,44.4,-97.8,0,2018,4,24,22,42,3.406,0.4131,-0.4742,0.3569,0.6906
-0.299,-0.099,0.19,-44.9,35.7,-106.8,0,2018,4,24,22,42,3.424,0.4014,-0.4694,0.373,0.6922
-0.285,0.033,0.133,-55.7,29.3,-107.8,0,2018,4,24,22,42,3.447,0.3876,-0.4662,0.3892,0.6934
-0.231,0.13,0.026,-59.7,26.8,-101.9,0,2018,4,24,22,42,3.483,0.373,-0.4641,0.405,0.6937
-0.149,0.255,-0.102,-54.9,28.6,-90.2,1023,2018,4,24,22,42,3.506,0.3594,-0.4624,0.4198,0.6932
-0.055,0.389,-0.223,-40.1,34.3,-70.6,1023,2018,4,24,22,42,3.511,0.3486,-0.4603,0.4331,0.692
0.025,0.529,-0.25,-20.4,24.8,-45.8,1023,2018,4,24,22,42,3.548,0.3418,-0.4576,0.4433,0.6907
0.064,0.569,-0.199,2,11.3,-15,1023,2018,4,24,22,42,3.55,0.3388,-0.4553,0.4482,0.6905
0.085,0.541,-0.083,27,20.3,19.9,1023,2018,4,24,22,42,3.584,0.3415,-0.453,0.4488,0.6904
0.084,0.552,-0.06,47.4,22.9,52.9,1023,2018,4,24,22,42,3.606,0.3508,-0.4498,0.4465,0.6892
0.068,0.413,-0.055,64.6,10.7,79,1023,2018,4,24,22,42,3.612,0.3646,-0.4472,0.4396,0.6882
0.02,0.297,0.032,76.2,5.1,94.5,1023,2018,4,24,22,42,3.627,0.3812,-0.4448,0.429,0.6875
-0.043,0.119,0.164,79.6,4.5,101.7,1023,2018,4,24,22,42,3.645,0.3992,-0.4424,0.4165,0.6864
-0.093,-0.059,0.216,78.2,1,102.2,1023,2018,4,24,22,42,3.668,0.4173,-0.4401,0.4034,0.685
-0.13,-0.23,0.276,73.4,0.5,92.7,1023,2018,4,24,22,42,3.686,0.4344,-0.4377,0.3902,0.6836
-0.154,-0.348,0.297,64.5,14.2,76.8,1023,2018,4,24,22,42,3.709,0.4496,-0.4347,0.3792,0.6819
-0.191,-0.37,0.352,52.4,26.3,53.7,0,2018,4,24,22,42,3.746,0.4629,-0.4302,0.3722,0.6797
-0.244,-0.396,0.393,30.4,15.9,29.1,0,2018,4,24,22,42,3.771,0.4723,-0.426,0.3685,0.6779
-0.253,-0.444,0.315,8.1,6.1,3.5,0,2018,4,24,22,42,3.775,0.4761,-0.424,0.3669,0.6773
-0.234,-0.46,0.246,-11.6,5.5,-24.2,0,2018,4,24,22,42,3.792,0.4754,-0.4229,0.3687,0.6775
-0.236,-0.386,0.28,-30.6,4.3,-51.3,0,2018,4,24,22,42,3.81,0.4702,-0.4223,0.374,0.6786
-0.259,-0.276,0.252,-49.1,4.9,-73.6,0,2018,4,24,22,42,3.833,0.4603,-0.4225,0.3825,0.6805
-0.242,-0.187,0.136,-62.1,5.2,-91.1,0,2018,4,24,22,42,3.851,0.4471,-0.4231,0.3938,0.6825
-0.2,-0.126,-0.001,-65.3,8.1,-103.1,0,2018,4,24,22,42,3.875,0.4313,-0.4235,0.4067,0.6848
-0.149,0.021,-0.054,-59.4,23.2,-105.9,0,2018,4,24,22,42,3.889,0.4154,-0.4224,0.421,0.6868
-0.092,0.25,0.007,-53.4,38.9,-98.5,0,2018,4,24,22,42,3.925,0.4009,-0.419,0.4367,0.6877
-0.014,0.447,0.04,-48,44.3,-80.4,0,2018,4,24,22,42,3.948,0.3893,-0.4151,0.4519,0.6869
0.091,0.613,-0.067,-39.8,39,-55.3,0,2018,4,24,22,42,3.953,0.3807,-0.4121,0.4649,0.6848
0.17,0.724,-0.194,-21.4,23.6,-22.2,0,2018,4,24,22,42,3.968,0.3758,-0.4106,0.4734,0.6826
0.156,0.706,-0.225,4.9,14.2,13.8,0,2018,4,24,22,42,3.992,0.3761,-0.4101,0.4763,0.6807
0.071,0.62,-0.131,30,10,49.6,0,2018,4,24,22,42,4.009,0.3823,-0.4099,0.4741,0.6789
-0.023,0.43,-0.01,50.6,17,79.8,0,2018,4,24,22,42,4.033,0.3944,-0.4096,0.468,0.6763
-0.096,0.305,0.004,65.1,22.8,99.6,0,2018,4,24,22,42,4.052,0.4115,-0.4085,0.46,0.6724
-0.113,0.078,-0.02,78.1,18.5,108.8,0,2018,4,24,22,42,4.076,0.4308,-0.4068,0.4496,0.6682
-0.154,-0.14,0.015,87.3,28.9,104.1,0,2018,4,24,22,42,4.091,0.4516,-0.4035,0.4382,0.6641
-0.186,-0.321,0.123,88.5,28.1,86.8,0,2018,4,24,22,42,4.109,0.4715,-0.3981,0.4278,0.6603
-0.248,-0.445,0.308,76.1,4,58.5,0,2018,4,24,22,42,4.13,0.4876,-0.3922,0.4179,0.6585
-0.238,-0.681,0.356,51.5,-13.3,20.5,0,2018,4,24,22,42,4.167,0.4965,-0.3882,0.4089,0.6598
-0.237,-0.754,0.365,22,-6.1,-24.2,0,2018,4,24,22,42,4.189,0.498,-0.3848,0.4047,0.6633
-0.233,-0.688,0.374,-7.9,1.4,-66.7,0,2018,4,24,22,42,4.194,0.493,-0.3809,0.4071,0.6678
-0.242,-0.522,0.304,-33.9,2.9,-102.7,1023,2018,4,24,22,42,4.229,0.4816,-0.377,0.4151,0.6734
-0.237,-0.369,0.189,-48.3,2.9,-129.2,1023,2018,4,24,22,42,4.25,0.4649,-0.373,0.4267,0.6801
-0.264,-0.203,0.117,-51.5,15.1,-144.4,1023,2018,4,24,22,42,4.255,0.4454,-0.3677,0.4407,0.687
-0.263,0.027,0.109,-51.2,32.3,-147,1023,2018,4,24,22,42,4.272,0.4254,-0.3605,0.457,0.6929
-0.223,0.298,0.106,-49.2,53.3,-135.8,1023,2018,4,24,22,42,4.295,0.4067,-0.3519,0.4748,0.6966
-0.135,0.406,0.043,-43.2,75.9,-114.5,1023,2018,4,24,22,42,4.331,0.3914,-0.3424,0.4935,0.697
-0.053,0.611,0.008,-36.2,100.5,-85.2,1023,2018,4,24,22,42,4.354,0.3811,-0.3324,0.5129,0.6936
0.037,0.881,0.033,-24.9,123.4,-41.8,1023,2018,4,24,22,42,4.359,0.3771,-0.3229,0.5322,0.6857
0.091,1.083,-0.001,-12.1,106.2,7.3,1023,2018,4,24,22,42,4.372,0.3801,-0.3156,0.5485,0.6744
0.092,1.004,-0.053,1.6,41.8,52.4,1023,2018,4,24,22,42,4.391,0.3874,-0.3143,0.5557,0.6649
0.063,0.709,-0.061,15.9,-14,86.9,1023,2018,4,24,22,42,4.413,0.3971,-0.3195,0.5523,0.6596
0.023,0.389,-0.044,28.7,-36.6,110.5,1023,2018,4,24,22,42,4.432,0.4091,-0.3284,0.5418,0.6565
-0.027,0.189,-0.016,40,-38.2,121.9,0,2018,4,24,22,42,4.453,0.4235,-0.3382,0.5281,0.6536
-0.084,-0.032,-0.014,50.2,-35.6,122.4,0,2018,4,24,22,42,4.489,0.4391,-0.3465,0.5135,0.6505
-0.123,-0.41,-0.031,58.7,-29.2,112.1,0,2018,4,24,22,42,4.512,0.4553,-0.3536,0.4981,0.6475
-0.163,-0.749,0.032,65.4,7.3,89.1,0,2018,4,24,22,42,4.518,0.4713,-0.3563,0.4853,0.6444
-0.233,-0.735,0.077,63.9,52.5,55.4,0,2018,4,24,22,42,4.534,0.4872,-0.3522,0.4791,0.6395
-0.247,-0.494,0.138,56.1,44.5,17.7,0,2018,4,24,22,42,4.556,0.4997,-0.3436,0.4778,0.6354
-0.228,-0.541,0.132,44.5,-11,-23.4,0,2018,4,24,22,42,4.575,0.5042,-0.3366,0.4751,0.6376
-0.174,-0.596,0.197,27.8,-28.5,-61,0,2018,4,24,22,42,4.597,0.5007,-0.3311,0.4718,0.6456
-0.173,-0.593,0.29,10.3,-3.1,-89.8,0,2018,4,24,22,42,4.615,0.4922,-0.3246,0.4723,0.6551
-0.219,-0.44,0.267,-3.2,55.1,-112.2,0,2018,4,24,22,42,4.632,0.4822,-0.3135,0.4809,0.6617
-0.269,-0.156,0.198,-14.9,88.1,-126.5,0,2018,4,24,22,42,4.655,0.4714,-0.298,0.4969,0.6648
-0.262,0.042,0.152,-23.3,85,-131.8,0,2018,4,24,22,42,4.673,0.4588,-0.2818,0.5152,0.6667
-0.218,0.097,0.061,-25.3,96.4,-131.1,0,2018,4,24,22,42,4.696,0.4451,-0.2659,0.5337,0.668
-0.186,0.198,-0.017,-25,140.8,-123,0,2018,4,24,22,42,4.714,0.4332,-0.2475,0.5552,0.6653
-0.144,0.456,-0.065,-26.5,160.3,-103.3,0,2018,4,24,22,42,4.737,0.4237,-0.2279,0.5796,0.6576
-0.082,0.753,-0.081,-28.4,156.7,-71.6,0,2018,4,24,22,42,4.755,0.4168,-0.2104,0.603,0.6467
-0.016,1.145,-0.168,-25.1,117,-27,0,2018,4,24,22,42,4.779,0.4131,-0.1983,0.6224,0.6344
0.011,1.082,-0.193,-12.8,48.5,18.3,0,2018,4,24,22,42,4.795,0.4132,-0.1946,0.6326,0.6254
-0.046,0.891,-0.078,-2,-4,56.1,0,2018,4,24,22,42,4.814,0.417,-0.1985,0.6338,0.6203
-0.086,0.599,-0.004,4.1,-43.7,85.5,0,2018,4,24,22,42,4.837,0.4239,-0.2084,0.6282,0.6181
-0.103,0.362,-0.046,11.3,-75,104.6,0,2018,4,24,22,42,4.855,0.4327,-0.2228,0.6173,0.618
-0.107,0.167,-0.12,24,-90.9,114.1,0,2018,4,24,22,42,4.877,0.4428,-0.2394,0.6022,0.6195
-0.141,-0.202,-0.127,39.3,-61.3,112.9,0,2018,4,24,22,42,4.913,0.4551,-0.254,0.5863,0.62
-0.149,-0.492,-0.067,55.9,-10.3,98.8,1023,2018,4,24,22,42,4.936,0.4699,-0.2624,0.574,0.617
-0.189,-0.687,0.001,71.8,24.3,72.4,1023,2018,4,24,22,42,4.941,0.4858,-0.2634,0.5656,0.612
-0.23,-0.732,0.088,77.1,24.6,34.6,1023,2018,4,24,22,42,4.958,0.4998,-0.2585,0.5595,0.6084
-0.185,-0.774,0.177,66.2,11.9,-9.9,1023,2018,4,24,22,42,4.979,0.5086,-0.2504,0.5544,0.6091
-0.139,-0.627,0.332,41.2,10,-48.3,1023,2018,4,24,22,42,4.997,0.5111,-0.2406,0.5522,0.6131
-0.168,-0.457,0.431,11.1,-9.3,-77.8,1023,2018,4,24,22,42,5.017,0.5066,-0.2317,0.5526,0.6198
-0.196,-0.256,0.421,-13.4,-31.8,-102.2,1023,2018,4,24,22,42,5.037,0.4956,-0.225,0.5542,0.6297
-0.206,-0.197,0.337,-30.4,-41.5,-121.7,1023,2018,4,24,22,42,5.06,0.4793,-0.22,0.5561,0.6422
-0.215,-0.084,0.258,-40.3,-24,-136.4,1023,2018,4,24,22,42,5.076,0.4597,-0.2142,0.5601,0.6549
-0.273,0.325,0.211,-48.6,-1.3,-133.9,1023,2018,4,24,22,42,5.113,0.4391,-0.2068,0.5673,0.6651
-0.229,0.678,0.148,-60.2,-4.5,-113.4,1023,2018,4,24,22,42,5.137,0.4186,-0.2013,0.5755,0.6729
-0.143,0.704,0.007,-57.7,-1.7,-79.5,0,2018,4,24,22,42,5.142,0.4006,-0.1992,0.5825,0.6785
-0.145,0.862,0.019,-52.9,39.8,-30.2,0,2018,4,24,22,42,5.158,0.3889,-0.1991,0.5901,0.6787
-0.13,1.164,-0.029,-46.2,58.8,29.5,0,2018,4,24,22,42,5.194,0.3859,-0.2012,0.6001,0.6711
-0.148,1.11,-0.113,-40.6,11.5,80.7,0,2018,4,24,22,42,5.217,0.3893,-0.2099,0.6053,0.6617
-0.109,0.864,-0.173,-31.1,-61.4,114.9,0,2018,4,24,22,42,5.221,0.396,-0.2262,0.601,0.6562
-0.084,0.538,-0.216,-21.5,-124.2,137.7,0,2018,4,24,22,42,5.239,0.4041,-0.249,0.5866,0.6561
-0.098,0.324,-0.26,-13.2,-176.8,151.8,0,2018,4,24,22,42,5.26,0.4125,-0.2762,0.5638,0.6599
-0.111,0.257,-0.399,-4,-234.3,160.6,0,2018,4,24,22,42,5.297,0.4194,-0.3071,0.5326,0.6678
-0.121,0.125,-0.475,11.1,-283.1,169.4,0,2018,4,24,22,42,5.297,0.4242,-0.3408,0.4921,0.6794
-0.199,-0.26,-0.341,28.7,-243.2,174.9,0,2018,4,24,22,42,5.32,0.4296,-0.3727,0.4474,0.6901
-0.261,-0.401,-0.157,46.2,-148.5,172.7,0,2018,4,24,22,42,5.356,0.4405,-0.3957,0.4094,0.6939
-0.316,-0.451,-0.025,57.7,-79.1,159.1,0,2018,4,24,22,42,5.377,0.4566,-0.4092,0.3804,0.6922
-0.342,-0.624,0.061,62.4,-46.3,133.5,0,2018,4,24,22,42,5.382,0.4741,-0.4161,0.3578,0.6884
-0.307,-0.756,0.084,64,-37.6,94.5,0,2018,4,24,22,42,5.399,0.4889,-0.4186,0.3393,0.6858
-0.325,-0.894,0.264,46.9,-36.4,38.9,0,2018,4,24,22,42,5.421,0.4972,-0.419,0.325,0.6866
-0.331,-0.889,0.532,11.1,-39.6,-17.3,0,2018,4,24,22,42,5.458,0.4971,-0.4193,0.3173,0.6901
-0.337,-0.73,0.551,-29.6,-42.1,-64.7,0,2018,4,24,22,42,5.48,0.4881,-0.4218,0.3164,0.6953
