time_1,time_2,time_3,time_4,time_5,time_6,w,x,y,z,droll,dpitch,dyaw,ax,ay,az,heart
2018,5,17,22,41,34.459,-0.0672,-0.9247,0.3066,-0.2151,0.7,-0.3,-0.6,-0.003,0.004,-0.003,0
2018,5,17,22,41,34.478,-0.067,-0.9248,0.3063,-0.2152,0,0,0,0,0.006,-0.005,0
2018,5,17,22,41,34.496,-0.067,-0.9249,0.3059,-0.2153,0,0,0,0,0.006,-0.006,0
2018,5,17,22,41,34.521,-0.067,-0.925,0.3056,-0.2153,0,0,0,0.002,0.005,-0.012,0
2018,5,17,22,41,34.538,-0.067,-0.9251,0.3052,-0.2153,0,0,0,-0.005,0.003,-0.008,1023
2018,5,17,22,41,34.558,-0.067,-0.9253,0.3048,-0.2153,-0.2,0.6,0.3,-0.002,0,-0.005,1023
2018,5,17,22,41,34.596,-0.0671,-0.9254,0.3044,-0.2152,0,0,0,0,-0.002,0,1023
2018,5,17,22,41,34.618,-0.0669,-0.9255,0.3041,-0.2152,0,0.5,0,-0.002,-0.002,0,1023
2018,5,17,22,41,34.624,-0.067,-0.9256,0.3037,-0.2153,0,0,0,-0.003,-0.001,0,1023
2018,5,17,22,41,34.64,-0.067,-0.9257,0.3033,-0.2154,0,0,0,-0.002,0,0,1023
2018,5,17,22,41,34.688,-0.067,-0.9258,0.303,-0.2154,0,0,0,0,0.002,-0.002,1023
2018,5,17,22,41,34.69,-0.0667,-0.9259,0.3026,-0.2155,0,0,0,-0.002,0,-0.005,1023
2018,5,17,22,41,34.698,-0.0666,-0.9261,0.3022,-0.2156,0,0,0,-0.003,0.001,-0.008,1023
2018,5,17,22,41,34.736,-0.0664,-0.9262,0.3018,-0.2156,0,0,0,-0.001,0.002,-0.012,1023
2018,5,17,22,41,34.756,-0.0664,-0.9263,0.3015,-0.2156,-0.5,0.6,-0.2,-0.002,0.006,-0.003,1023
2018,5,17,22,41,34.76,-0.0663,-0.9264,0.3012,-0.2155,-0.3,0.6,0,-0.009,0.001,-0.005,1023
2018,5,17,22,41,34.795,-0.0663,-0.9266,0.3008,-0.2155,0,0,0,-0.003,0.002,0,1023
2018,5,17,22,41,34.817,-0.0663,-0.9267,0.3004,-0.2156,0,0,0,-0.001,0.001,0.001,1023
2018,5,17,22,41,34.822,-0.0661,-0.9268,0.3001,-0.2157,0,0,0,-0.001,0,-0.001,1023
2018,5,17,22,41,34.859,-0.0659,-0.9269,0.2997,-0.2158,0,0,0,-0.002,-0.001,-0.005,1023
2018,5,17,22,41,34.88,-0.0657,-0.927,0.2993,-0.2159,0,0,0,-0.001,0.001,-0.006,1023
2018,5,17,22,41,34.884,-0.0656,-0.9271,0.2989,-0.2159,0,0,0,0.001,0,-0.004,1023
2018,5,17,22,41,34.92,-0.0655,-0.9272,0.2986,-0.216,0,0,0,-0.002,0.001,-0.004,1023
2018,5,17,22,41,34.94,-0.0655,-0.9273,0.2982,-0.216,0,0,0,0,0,-0.005,1023
2018,5,17,22,41,34.943,-0.0652,-0.9274,0.2978,-0.2162,0.5,-0.2,0,-0.001,0,-0.006,1023
2018,5,17,22,41,34.979,-0.0653,-0.9275,0.2974,-0.2163,0,0,0,-0.002,0.001,-0.005,1023
2018,5,17,22,41,35.001,-0.0652,-0.9277,0.297,-0.2163,0,0,0,-0.006,0.003,-0.007,1023
2018,5,17,22,41,35.006,-0.0652,-0.9278,0.2967,-0.2164,0,0,0,0,0.002,-0.004,0
2018,5,17,22,41,35.023,-0.0651,-0.9279,0.2963,-0.2164,0,0,0,0.001,0.001,-0.005,0
2018,5,17,22,41,35.06,-0.0652,-0.928,0.296,-0.2165,0,0,0,0.002,0.002,0.002,0
2018,5,17,22,41,35.081,-0.0652,-0.9281,0.2956,-0.2165,0,0,0,-0.008,-0.001,-0.009,0
2018,5,17,22,41,35.084,-0.0653,-0.9282,0.2953,-0.2166,0,0,0,-0.001,-0.001,0,0
2018,5,17,22,41,35.121,-0.0653,-0.9283,0.2949,-0.2167,0,0,0,-0.003,0.001,-0.003,0
2018,5,17,22,41,35.143,-0.0651,-0.9284,0.2945,-0.2168,0,0,0,-0.003,0,-0.007,0
2018,5,17,22,41,35.148,-0.0649,-0.9285,0.2941,-0.2169,0,0,0,-0.005,0.006,-0.006,0
2018,5,17,22,41,35.165,-0.0648,-0.9292,0.2917,-0.2171,0,0,0,-0.003,-0.006,0,0
2018,5,17,22,41,35.189,-0.0648,-0.9293,0.2913,-0.2172,0,0,0,-0.008,-0.004,-0.003,0
2018,5,17,22,41,35.204,-0.0648,-0.9294,0.291,-0.2172,-0.1,0,-0.7,-0.004,-0.002,-0.002,0
2018,5,17,22,41,35.227,-0.0647,-0.9295,0.2907,-0.2173,0,0,0,-0.002,0.008,-0.005,0
2018,5,17,22,41,35.245,-0.0648,-0.9296,0.2903,-0.2174,0,0,0,-0.001,0.008,-0.007,0
2018,5,17,22,41,35.263,-0.0648,-0.9297,0.29,-0.2174,0,0,0,0.002,0.005,-0.006,0
2018,5,17,22,41,35.286,-0.0648,-0.9298,0.2895,-0.2175,0.2,0,0.7,-0.004,0.002,-0.003,0
2018,5,17,22,41,35.305,-0.0649,-0.9299,0.2891,-0.2175,0,0,0,0,-0.001,-0.008,0
2018,5,17,22,41,35.342,-0.0648,-0.9301,0.2886,-0.2175,-0.1,0.3,0.5,0,0.001,0,0
2018,5,17,22,41,35.365,-0.0648,-0.9302,0.2883,-0.2176,0,0,0,0,-0.003,0,1023
2018,5,17,22,41,35.37,-0.0647,-0.9303,0.2879,-0.2177,0,0,0,-0.003,-0.004,0.002,1023
2018,5,17,22,41,35.385,-0.0646,-0.9304,0.2875,-0.2178,0.8,-0.5,0,-0.006,-0.001,0.003,1023
2018,5,17,22,41,35.408,-0.0645,-0.9304,0.2871,-0.2181,0.2,-0.7,-0.1,-0.003,-0.001,-0.005,1023
2018,5,17,22,41,35.426,-0.0642,-0.9305,0.2867,-0.2183,0.3,-0.6,-0.2,-0.001,0.001,-0.004,1023
2018,5,17,22,41,35.449,-0.0642,-0.9306,0.2864,-0.2184,0.5,-0.3,-0.3,0.002,0,-0.007,1023
2018,5,17,22,41,35.484,-0.0641,-0.9307,0.2861,-0.2185,0,0,0,-0.002,-0.001,-0.012,1023
2018,5,17,22,41,35.507,-0.0641,-0.9308,0.2857,-0.2185,0,0,0,-0.004,0.001,-0.009,1023
2018,5,17,22,41,35.511,-0.0643,-0.9309,0.2853,-0.2186,0,0,0,-0.004,0.004,-0.006,1023
2018,5,17,22,41,35.529,-0.0643,-0.931,0.285,-0.2186,0,0,0,-0.003,0.002,-0.001,1023
2018,5,17,22,41,35.545,-0.0644,-0.9311,0.2846,-0.2187,0,0,0,-0.004,0,-0.003,1023
2018,5,17,22,41,35.569,-0.0645,-0.9312,0.2842,-0.2187,0,0,0,-0.001,0,-0.002,1023
2018,5,17,22,41,35.605,-0.0644,-0.9313,0.2839,-0.2188,0,0,0,-0.002,-0.001,-0.002,1023
2018,5,17,22,41,35.627,-0.0643,-0.9314,0.2835,-0.2189,0,0,0,-0.004,-0.001,-0.001,1023
2018,5,17,22,41,35.631,-0.0645,-0.9314,0.2832,-0.2189,0,0,0,-0.005,-0.001,-0.004,1023
2018,5,17,22,41,35.647,-0.0644,-0.9315,0.2828,-0.219,0,0,0,-0.002,0,-0.005,1023
2018,5,17,22,41,35.67,-0.0643,-0.9316,0.2825,-0.2191,0,0,0,-0.001,0.003,-0.002,1023
2018,5,17,22,41,35.688,-0.0642,-0.9317,0.2822,-0.2193,0.5,-0.4,-0.5,-0.005,-0.001,-0.005,1023
2018,5,17,22,41,35.711,-0.0642,-0.9317,0.2819,-0.2194,0.5,-0.3,-0.4,-0.002,0.005,-0.005,1023
2018,5,17,22,41,35.729,-0.064,-0.9318,0.2815,-0.2196,0.5,-0.5,-0.4,-0.006,0.001,0,1023
2018,5,17,22,41,35.752,-0.0638,-0.9319,0.2812,-0.2198,0.6,-0.5,-0.2,0,0,-0.003,1023
2018,5,17,22,41,35.771,-0.0636,-0.932,0.2808,-0.22,0.5,-0.4,-0.2,-0.003,0.001,-0.005,1023
2018,5,17,22,41,35.792,-0.0634,-0.9321,0.2804,-0.2201,0.4,-0.5,0,-0.003,0.001,-0.003,0
2018,5,17,22,41,35.808,-0.0635,-0.9321,0.2801,-0.2203,0,0,0,-0.005,0,-0.005,0
2018,5,17,22,41,35.831,-0.0634,-0.9322,0.2797,-0.2204,0,-0.5,-0.3,-0.003,-0.007,-0.006,0
2018,5,17,22,41,35.849,-0.0632,-0.9323,0.2793,-0.2205,0.5,-0.3,0,0,0,-0.005,0
2018,5,17,22,41,35.872,-0.0631,-0.9324,0.279,-0.2205,0,0,0,-0.001,0,-0.006,0
2018,5,17,22,41,35.892,-0.0627,-0.9325,0.2786,-0.2206,0.5,0,-0.5,0,0,-0.005,0
2018,5,17,22,41,35.909,-0.0627,-0.9326,0.2783,-0.2207,0,0,0,-0.008,0.002,-0.004,0
2018,5,17,22,41,35.932,-0.0627,-0.9327,0.278,-0.2208,0,0,0,-0.005,-0.001,-0.005,0
2018,5,17,22,41,35.95,-0.0626,-0.9328,0.2776,-0.2209,0,0,0,-0.005,0.002,-0.003,0
2018,5,17,22,41,35.974,-0.0626,-0.9329,0.2772,-0.221,0,0,0,-0.004,0.002,-0.005,0
2018,5,17,22,41,35.993,-0.0626,-0.933,0.2769,-0.221,0,0,0,-0.003,0.006,-0.005,0
2018,5,17,22,41,36.016,-0.0625,-0.9331,0.2765,-0.2211,0,0,0,0.003,0.005,-0.002,0
2018,5,17,22,41,36.032,-0.0626,-0.9332,0.2762,-0.2211,-0.5,0,0,0.004,0.001,0.001,0
2018,5,17,22,41,36.068,-0.0627,-0.9332,0.2758,-0.2211,0,0,0,-0.003,-0.004,-0.002,0
2018,5,17,22,41,36.091,-0.0627,-0.9333,0.2755,-0.2212,0,0,0,-0.007,-0.007,0.001,0
2018,5,17,22,41,36.096,-0.0626,-0.9334,0.2752,-0.2214,0,0,0,-0.005,0,0.004,0
2018,5,17,22,41,36.112,-0.0627,-0.9334,0.2749,-0.2215,0.3,0,-0.7,-0.005,0.003,-0.005,0
2018,5,17,22,41,36.133,-0.0627,-0.9335,0.2746,-0.2216,0.5,-0.2,-0.2,-0.002,0.01,0.002,0
2018,5,17,22,41,36.151,-0.0627,-0.9336,0.2741,-0.2217,0.6,-0.3,0.2,-0.002,0.009,0.004,0
2018,5,17,22,41,36.174,-0.0625,-0.9337,0.2736,-0.2219,0.3,-0.7,0.8,-0.002,0.007,-0.003,0
2018,5,17,22,41,36.193,-0.0625,-0.9339,0.2731,-0.222,0,-0.5,1,-0.001,0.001,-0.003,0
2018,5,17,22,41,36.216,-0.0626,-0.934,0.2726,-0.222,-0.5,0,0.9,0,-0.001,-0.01,0
2018,5,17,22,41,36.233,-0.0626,-0.9341,0.2722,-0.2221,0,0,0,0.007,-0.007,-0.01,0
2018,5,17,22,41,36.25,-0.0627,-0.9342,0.2719,-0.2221,0,0,0,-0.001,-0.001,-0.004,1023
2018,5,17,22,41,36.271,-0.0627,-0.9343,0.2715,-0.2221,0,0,0,0,-0.003,-0.005,1023
2018,5,17,22,41,36.291,-0.0627,-0.9343,0.2712,-0.2222,0.2,0,-0.6,-0.004,0,-0.004,1023
2018,5,17,22,41,36.314,-0.0626,-0.9344,0.271,-0.2223,0.2,-0.2,-0.5,-0.001,0,0.001,1023
2018,5,17,22,41,36.351,-0.0622,-0.9356,0.266,-0.2232,0,0,0,-0.001,-0.003,-0.01,1023
2018,5,17,22,41,36.372,-0.062,-0.9359,0.2653,-0.2232,-0.6,0.3,0,-0.003,0.002,-0.006,1023
2018,5,17,22,41,36.377,-0.062,-0.936,0.2649,-0.2231,-0.3,0.5,0.3,0,0.003,0,1023
2018,5,17,22,41,36.392,-0.0621,-0.9361,0.2645,-0.2232,0,0,0.5,-0.004,0,0,1023
2018,5,17,22,41,36.416,-0.0621,-0.9362,0.2637,-0.2234,0,-0.2,0.6,-0.007,0,0,1023
2018,5,17,22,41,36.434,-0.062,-0.9364,0.2633,-0.2235,-0.2,0,0.5,-0.004,0,0,1023
2018,5,17,22,41,36.457,-0.062,-0.9365,0.2629,-0.2235,-0.2,0,0.5,-0.006,-0.002,-0.005,1023
2018,5,17,22,41,36.493,-0.0621,-0.9366,0.2625,-0.2235,0,0,0,0,0,-0.008,1023
2018,5,17,22,41,36.517,-0.0622,-0.9367,0.2621,-0.2234,-0.4,0.6,0,0,0.003,-0.006,1023
2018,5,17,22,41,36.521,-0.0622,-0.9368,0.2618,-0.2233,-0.8,0.6,0,0.003,0.002,-0.001,1023
2018,5,17,22,41,36.537,-0.0624,-0.9369,0.2614,-0.2232,-1.2,0.3,0,-0.001,-0.001,0,1023
2018,5,17,22,41,36.56,-0.0624,-0.937,0.2611,-0.2232,0,0,0,-0.004,-0.008,-0.001,1023
2018,5,17,22,41,36.577,-0.0623,-0.9371,0.2608,-0.2233,0,0,0,-0.003,-0.005,-0.001,1023
2018,5,17,22,41,36.596,-0.0624,-0.9371,0.2606,-0.2233,0,0.3,-0.7,-0.005,0.003,-0.003,1023
2018,5,17,22,41,36.614,-0.0626,-0.9371,0.2604,-0.2234,-0.8,0,-0.7,-0.009,0.005,0.009,1023
2018,5,17,22,41,36.636,-0.0629,-0.9371,0.2602,-0.2236,-2.5,-0.9,-1.1,-0.007,0.007,0.008,1023
2018,5,17,22,41,36.675,-0.063,-0.9371,0.2601,-0.2239,-0.8,-1,-0.8,0.008,0.006,-0.01,1023
2018,5,17,22,41,36.697,-0.0633,-0.9372,0.2598,-0.2235,-1.2,0.7,0.6,0.018,0.013,-0.036,0
2018,5,17,22,41,36.702,-0.0633,-0.9375,0.2593,-0.223,-1.3,2,1.1,0.009,0.016,-0.039,0
2018,5,17,22,41,36.719,-0.0635,-0.9377,0.2589,-0.2223,-2.5,3.4,0.7,0,-0.005,-0.02,0
2018,5,17,22,41,36.738,-0.0636,-0.9379,0.2586,-0.2218,-2.2,3.2,0.6,-0.013,-0.011,0.025,0
2018,5,17,22,41,36.761,-0.0639,-0.938,0.2584,-0.2217,-2.1,1.1,-0.1,-0.011,-0.005,0.029,0
2018,5,17,22,41,36.779,-0.0642,-0.9381,0.2581,-0.2217,-0.5,-0.1,0,-0.004,-0.012,0.006,0
2018,5,17,22,41,36.801,-0.0639,-0.9381,0.2577,-0.2219,0.2,-0.6,0,-0.002,-0.004,-0.008,0
2018,5,17,22,41,36.818,-0.0638,-0.9382,0.2574,-0.222,0.5,-0.7,-0.2,0.006,0.002,-0.019,0
2018,5,17,22,41,36.854,-0.0636,-0.9383,0.2571,-0.2221,0,0,0,-0.002,0.001,-0.01,0
2018,5,17,22,41,36.877,-0.0635,-0.9384,0.2568,-0.2222,-0.2,-0.1,-0.7,-0.002,0.003,0,0
2018,5,17,22,41,36.882,-0.0635,-0.9385,0.2562,-0.2223,0,0,0,-0.002,0,-0.012,0
2018,5,17,22,41,36.897,-0.0634,-0.9386,0.2558,-0.2224,1,-0.3,0,-0.002,0.004,-0.008,0
2018,5,17,22,41,36.921,-0.0631,-0.9388,0.255,-0.2226,0,0,0,-0.004,0,-0.004,0
2018,5,17,22,41,36.937,-0.0629,-0.9389,0.2546,-0.2227,0,0,0,0,-0.003,-0.003,0
2018,5,17,22,41,36.96,-0.0629,-0.939,0.2539,-0.2228,0.5,-0.1,0.1,0,-0.001,-0.008,0
2018,5,17,22,41,36.978,-0.0628,-0.9392,0.2532,-0.223,0,0,0,-0.005,0,0.002,0
2018,5,17,22,41,37.001,-0.0628,-0.9393,0.2524,-0.2234,0.4,-1,0,-0.002,0.001,-0.002,0
2018,5,17,22,41,37.017,-0.0628,-0.9393,0.2521,-0.2237,1,-0.9,0,-0.002,0.004,-0.006,0
2018,5,17,22,41,37.035,-0.0628,-0.9395,0.2513,-0.2239,0,0,0,-0.003,0.003,-0.008,0
2018,5,17,22,41,37.058,-0.0629,-0.9396,0.251,-0.2239,0,0,0,-0.001,0.002,-0.007,0
2018,5,17,22,41,37.095,-0.0629,-0.9396,0.2507,-0.2239,0,0,0,-0.003,0.003,-0.006,0
2018,5,17,22,41,37.117,-0.0629,-0.9398,0.2499,-0.2239,-0.1,0.5,0.3,0,0.002,-0.004,0
2018,5,17,22,41,37.122,-0.0629,-0.9399,0.2496,-0.224,0,0,0,0,0,-0.001,0
2018,5,17,22,41,37.138,-0.0629,-0.94,0.2492,-0.224,0,0,0,-0.003,-0.005,-0.001,1023
2018,5,17,22,41,37.161,-0.0629,-0.9401,0.2489,-0.2241,0,0,0,-0.004,-0.001,-0.001,1023
2018,5,17,22,41,37.198,-0.0628,-0.9401,0.2486,-0.2242,0,0,0,0,-0.002,-0.004,1023
2018,5,17,22,41,37.221,-0.0627,-0.9402,0.2482,-0.2242,0,0,0,-0.003,0.002,-0.004,1023
2018,5,17,22,41,37.225,-0.0627,-0.9403,0.2478,-0.2243,0,0,0,-0.009,-0.001,-0.005,1023
2018,5,17,22,41,37.241,-0.0625,-0.9404,0.2475,-0.2244,0,0,0,-0.001,0.004,-0.006,1023
2018,5,17,22,41,37.264,-0.0625,-0.9405,0.2471,-0.2244,0.2,-0.1,0.5,0.004,0.003,-0.005,1023
2018,5,17,22,41,37.299,-0.0623,-0.9406,0.2468,-0.2244,0,0,0,0,0.001,-0.002,1023
2018,5,17,22,41,37.299,-0.0623,-0.9407,0.2464,-0.2245,0,0,0,0,0,-0.005,1023
2018,5,17,22,41,37.321,-0.0624,-0.9407,0.2461,-0.2245,0,0,0,-0.001,-0.006,-0.003,1023
2018,5,17,22,41,37.357,-0.0623,-0.9408,0.2457,-0.2246,0,0,0,-0.006,-0.004,-0.002,1023
2018,5,17,22,41,37.378,-0.0622,-0.9409,0.2454,-0.2247,0,0,0,-0.005,-0.005,-0.002,1023
2018,5,17,22,41,37.381,-0.0621,-0.9409,0.2451,-0.2248,0,0,0,-0.006,0,0.001,1023
2018,5,17,22,41,37.416,-0.062,-0.941,0.2448,-0.225,0,0,0,-0.002,0.007,-0.005,1023
2018,5,17,22,41,37.436,-0.062,-0.9411,0.2444,-0.225,0,0,0,0.001,0.006,-0.002,1023
2018,5,17,22,41,37.443,-0.0619,-0.9412,0.2441,-0.225,0,0,0,-0.001,0.001,-0.004,1023
2018,5,17,22,41,37.48,-0.0618,-0.9413,0.2437,-0.2251,0,0,0,-0.001,0,-0.005,1023
2018,5,17,22,41,37.501,-0.0618,-0.9413,0.2434,-0.2251,0,0,0,-0.001,0,-0.004,1023
2018,5,17,22,41,37.503,-0.0618,-0.9414,0.243,-0.2251,0,0,0,-0.001,0,-0.006,1023
2018,5,17,22,41,37.54,-0.0617,-0.9415,0.2427,-0.2252,0,0,0,-0.001,-0.002,-0.002,1023
2018,5,17,22,41,37.56,-0.0615,-0.9416,0.2424,-0.2253,0,0,0,-0.003,-0.002,-0.005,1023
2018,5,17,22,41,37.567,-0.0615,-0.9416,0.242,-0.2254,0,0,0,-0.001,-0.002,0.001,0
2018,5,17,22,41,37.584,-0.0613,-0.9417,0.2417,-0.2255,0.2,-0.5,-0.3,0,0,0,0
2018,5,17,22,41,37.604,-0.0613,-0.9418,0.2414,-0.2256,0.4,-0.4,-0.5,-0.003,0,-0.001,0
2018,5,17,22,41,37.64,-0.0613,-0.9418,0.2411,-0.2258,0.2,-0.4,-0.5,-0.005,0.001,-0.002,0
2018,5,17,22,41,37.64,-0.0613,-0.9418,0.2409,-0.2259,0,-0.3,-0.5,-0.006,0,-0.008,0
2018,5,17,22,41,37.662,-0.061,-0.9419,0.2406,-0.226,0,0,0,-0.007,0.002,-0.004,0
2018,5,17,22,41,37.699,-0.0608,-0.9419,0.2403,-0.2262,0,0,0,-0.005,0,-0.008,0
2018,5,17,22,41,37.72,-0.061,-0.942,0.2399,-0.2262,0,0,0,-0.002,0.005,-0.004,0
2018,5,17,22,41,37.724,-0.0611,-0.9421,0.2396,-0.2262,0,0,0,0,0.001,-0.002,0
2018,5,17,22,41,37.761,-0.0611,-0.9422,0.2393,-0.2263,0,0,0,0,0,-0.002,0
2018,5,17,22,41,37.782,-0.0612,-0.9422,0.2389,-0.2263,0,0,0,0,0.002,-0.004,0
2018,5,17,22,41,37.785,-0.0612,-0.9423,0.2386,-0.2264,0,0,0,-0.004,-0.002,-0.001,0
2018,5,17,22,41,37.802,-0.061,-0.9424,0.2383,-0.2265,0,0,0,-0.005,-0.003,0.002,0
2018,5,17,22,41,37.826,-0.0608,-0.9424,0.238,-0.2267,0.3,-0.5,-0.2,-0.002,-0.005,-0.001,0
2018,5,17,22,41,37.86,-0.0605,-0.9424,0.2377,-0.2269,0.7,-0.3,-0.5,-0.002,0,-0.006,0
2018,5,17,22,41,37.881,-0.0603,-0.9425,0.2374,-0.2271,0.5,-0.5,-0.5,0.001,0.002,-0.007,0
2018,5,17,22,41,37.884,-0.06,-0.9425,0.2372,-0.2272,0.2,0,-0.5,-0.001,-0.003,-0.006,0
2018,5,17,22,41,37.92,-0.0597,-0.9426,0.2369,-0.2274,0.2,-0.2,-0.5,-0.005,0.002,-0.003,0
2018,5,17,22,41,37.94,-0.0597,-0.9427,0.2366,-0.2274,0,0,0,-0.006,0.004,-0.007,0
2018,5,17,22,41,37.944,-0.0596,-0.9427,0.2362,-0.2275,0,0,0,-0.004,0.001,-0.005,0
2018,5,17,22,41,37.981,-0.0596,-0.9428,0.2359,-0.2275,0,0,0,-0.002,0.001,-0.004,0
2018,5,17,22,41,38.002,-0.0595,-0.9429,0.2355,-0.2276,0,0,0,-0.001,0.001,0,0
2018,5,17,22,41,38.007,-0.0594,-0.943,0.2352,-0.2277,0,0,0,-0.002,0,0,1023
2018,5,17,22,41,38.047,-0.0594,-0.943,0.2348,-0.2278,0,0,0,-0.005,-0.001,0.001,1023
2018,5,17,22,41,38.047,-0.0594,-0.9431,0.2346,-0.2279,0.1,-0.3,-0.7,-0.005,0,-0.005,1023
2018,5,17,22,41,38.067,-0.0589,-0.9431,0.2344,-0.2281,1.8,0,-0.9,0.001,-0.015,-0.015,1023
2018,5,17,22,41,38.102,-0.0584,-0.9432,0.2342,-0.2281,1.4,1,-1.3,-0.004,0,-0.008,1023
2018,5,17,22,41,38.123,-0.0583,-0.9433,0.234,-0.228,-0.7,0.8,-0.9,-0.005,0.016,-0.002,1023
2018,5,17,22,41,38.127,-0.0586,-0.9433,0.2338,-0.2279,-2.8,0.3,-0.7,-0.011,-0.002,0.024,1023
2018,5,17,22,41,38.161,-0.0592,-0.9432,0.2338,-0.228,-2.8,-0.5,-0.5,0.001,0.008,0.005,1023
2018,5,17,22,41,38.182,-0.0598,-0.9433,0.2335,-0.228,-3.8,-0.3,0.1,-0.017,0.01,0.022,1023
2018,5,17,22,41,38.188,-0.0608,-0.9433,0.2333,-0.2279,-8.6,0,0.5,0.006,0.017,-0.015,1023
2018,5,17,22,41,38.222,-0.0624,-0.9434,0.2331,-0.2271,-8,2.7,1.6,0.016,-0.003,-0.051,1023
2018,5,17,22,41,38.244,-0.0631,-0.9437,0.2327,-0.226,-4.7,4.6,2.4,-0.01,-0.007,-0.038,1023
2018,5,17,22,41,38.249,-0.0636,-0.944,0.2324,-0.2253,-6.9,3.9,1.3,-0.022,-0.015,0.015,1023
2018,5,17,22,41,38.288,-0.0642,-0.9442,0.2321,-0.2244,-4.3,5.6,1.7,0.005,-0.014,-0.024,1023
2018,5,17,22,41,38.309,-0.0644,-0.9447,0.2314,-0.223,-3,7.8,3.8,-0.004,0.055,-0.006,1023
2018,5,17,22,41,38.311,-0.0653,-0.9451,0.2306,-0.2217,-9.6,6.6,3.3,-0.019,0.017,-0.006,1023
2018,5,17,22,41,38.344,-0.067,-0.9454,0.2302,-0.2202,-10.7,6.5,3.2,0,-0.021,-0.032,1023
2018,5,17,22,41,38.365,-0.0638,-0.9473,0.237,-0.2055,2.6,0.8,-3.4,-0.005,0.029,0.037,1023
2018,5,17,22,41,38.367,-0.064,-0.9471,0.2373,-0.2061,-3.4,-2.7,-4.4,-0.026,-0.019,0.048,1023
2018,5,17,22,41,38.402,-0.064,-0.9467,0.238,-0.207,0.3,-3.3,-5.7,-0.007,-0.062,-0.018,1023
2018,5,17,22,41,38.425,-0.0628,-0.9465,0.2385,-0.2076,6.9,-1.3,-5.2,0.014,-0.033,-0.028,1023
2018,5,17,22,41,38.43,-0.0612,-0.9465,0.2388,-0.2079,5.6,0,-5.1,0.02,0.016,-0.035,0
2018,5,17,22,41,38.466,-0.061,-0.9465,0.2391,-0.2076,1.2,0.3,-3.9,0.018,0.067,-0.006,0
2018,5,17,22,41,38.488,-0.0616,-0.9465,0.239,-0.2077,-2.2,-1.7,-1.9,-0.008,0.047,0.029,0
2018,5,17,22,41,38.492,-0.0622,-0.9463,0.2391,-0.2084,-4,-3.9,-1.8,-0.026,-0.008,0.041,0
2018,5,17,22,41,38.529,-0.0618,-0.9462,0.2385,-0.2095,10.6,-4.4,4.9,-0.004,-0.077,-0.023,0
2018,5,17,22,41,38.552,-0.0597,-0.9465,0.2366,-0.2108,14.5,-3.7,6.8,-0.011,0.068,-0.019,0
2018,5,17,22,41,38.557,-0.0593,-0.9468,0.2346,-0.2117,2.5,-5.2,7,-0.001,0.108,0.043,0
2018,5,17,22,41,38.572,-0.0607,-0.9469,0.233,-0.2128,-11.5,-9.4,7.8,-0.01,0.036,0.029,0
2018,5,17,22,41,38.595,-0.0627,-0.9467,0.2321,-0.2141,-8.6,-9.4,3.7,-0.012,-0.099,-0.007,0
2018,5,17,22,41,38.61,-0.0633,-0.9464,0.2316,-0.2156,-4.5,-8.8,2.2,0.006,-0.106,-0.024,0
2018,5,17,22,41,38.648,-0.0634,-0.9462,0.2313,-0.2168,-1.6,-8,0.2,0.007,-0.042,-0.015,0
2018,5,17,22,41,38.671,-0.065,-0.9459,0.231,-0.2179,-6.9,-8.8,-0.5,0.002,0.079,0.02,0
2018,5,17,22,41,38.675,-0.0675,-0.9455,0.2309,-0.2191,-11.9,-9.1,0,-0.014,0.015,0,0
2018,5,17,22,41,38.71,-0.0695,-0.9451,0.231,-0.2203,-8.7,-8.6,-0.3,-0.014,-0.041,-0.005,0
2018,5,17,22,41,38.733,-0.0705,-0.9447,0.2309,-0.2217,-3.3,-8.5,0,-0.002,-0.017,-0.015,0
2018,5,17,22,41,38.738,-0.0709,-0.9445,0.2303,-0.2229,1.6,-7.7,2.1,0.013,0.036,-0.014,0
2018,5,17,22,41,38.753,-0.0712,-0.9445,0.2291,-0.224,3.5,-6,5.2,-0.007,0.048,-0.025,0
2018,5,17,22,41,38.775,-0.0716,-0.9447,0.2274,-0.2248,1.4,-4.5,7.3,0.001,0.032,-0.012,0
2018,5,17,22,41,38.812,-0.0723,-0.945,0.2256,-0.2254,0.5,-4.1,9,-0.001,0.018,0.002,0
2018,5,17,22,41,38.812,-0.0729,-0.9452,0.2237,-0.2259,-1.7,-3.6,9.2,-0.007,0.01,-0.004,0
2018,5,17,22,41,38.835,-0.0736,-0.9455,0.2219,-0.2264,-2.7,-2.7,8.6,0.004,0.003,0,0
2018,5,17,22,41,38.853,-0.0742,-0.9457,0.2205,-0.2267,-1.6,-2.2,6.1,0.003,-0.031,-0.02,0
2018,5,17,22,41,38.871,-0.0739,-0.9459,0.2195,-0.2269,2,-0.3,2.9,-0.001,-0.048,-0.031,0
2018,5,17,22,41,38.894,-0.073,-0.9461,0.2189,-0.2268,3.6,1.6,-0.2,0.007,-0.026,-0.038,0
2018,5,17,22,41,38.913,-0.0719,-0.9463,0.2188,-0.2265,3.3,3,-2.4,0.002,-0.017,-0.029,0
2018,5,17,22,41,38.936,-0.0711,-0.9464,0.219,-0.226,2,3.5,-3.6,0,-0.006,-0.005,0
2018,5,17,22,41,38.956,-0.0704,-0.9465,0.2193,-0.2257,1,3.3,-4.1,-0.009,0.001,0.003,1023
2018,5,17,22,41,38.975,-0.0701,-0.9465,0.2196,-0.2254,0.8,2.4,-3.8,-0.011,0.012,0.018,1023
2018,5,17,22,41,38.997,-0.0701,-0.9465,0.2198,-0.2254,0,0.7,-2.8,-0.011,0.02,0.019,1023
2018,5,17,22,41,39.016,-0.0703,-0.9464,0.2199,-0.2255,-0.1,-0.3,-1.7,-0.01,0.019,0.011,1023
2018,5,17,22,41,39.038,-0.0704,-0.9464,0.2197,-0.2258,-0.2,-1.2,-0.2,-0.004,0.02,0.003,1023
2018,5,17,22,41,39.071,-0.0707,-0.9464,0.2192,-0.2261,-0.2,-1.5,1,-0.002,0.015,-0.004,1023
2018,5,17,22,41,39.071,-0.0709,-0.9465,0.2186,-0.2263,-0.4,-1.3,1.7,0.003,0.006,-0.01,1023
2018,5,17,22,41,39.095,-0.0709,-0.9466,0.2179,-0.2264,-0.2,-0.9,2.1,0,0.003,-0.011,1023
2018,5,17,22,41,39.113,-0.0708,-0.9467,0.2173,-0.2265,-0.5,-0.3,1.7,0,-0.004,-0.011,1023
2018,5,17,22,41,39.136,-0.0706,-0.9469,0.2167,-0.2265,-0.5,0.4,1.1,-0.003,-0.01,-0.014,1023
2018,5,17,22,41,39.173,-0.0705,-0.947,0.2163,-0.2265,-0.1,0.9,0.5,-0.006,-0.006,-0.006,1023
2018,5,17,22,41,39.196,-0.0704,-0.9471,0.216,-0.2264,0,0.8,-0.1,-0.005,-0.006,-0.002,1023
2018,5,17,22,41,39.201,-0.0702,-0.9472,0.2157,-0.2264,0.3,0.8,-0.4,0,-0.003,0.004,1023
2018,5,17,22,41,39.215,-0.07,-0.9473,0.2155,-0.2264,0.5,0.3,-0.6,0,0,0.001,1023
2018,5,17,22,41,39.238,-0.07,-0.9473,0.2152,-0.2264,0.7,-0.1,-0.2,-0.002,0.005,0.003,1023
2018,5,17,22,41,39.275,-0.0699,-0.9474,0.2149,-0.2265,0,0,0,0,0.01,0,1023
2018,5,17,22,41,39.298,-0.0698,-0.9474,0.2145,-0.2267,0.5,-0.5,0.3,-0.001,0.006,-0.005,1023
2018,5,17,22,41,39.302,-0.0698,-0.9475,0.214,-0.2268,0.3,-0.5,0.5,0.002,0.008,-0.007,1023
2018,5,17,22,41,39.337,-0.0699,-0.9476,0.2135,-0.2268,0,-0.3,0.9,-0.003,0.003,-0.003,1023
2018,5,17,22,41,39.36,-0.07,-0.9477,0.2131,-0.2269,-0.3,0,0.7,-0.001,-0.002,-0.01,1023
2018,5,17,22,41,39.364,-0.0699,-0.9478,0.2127,-0.2269,-0.3,0.3,0.5,-0.001,-0.001,-0.01,1023
2018,5,17,22,41,39.38,-0.07,-0.9478,0.2123,-0.2268,-0.5,0.3,0,-0.003,-0.003,-0.006,1023
2018,5,17,22,41,39.403,-0.07,-0.9479,0.2121,-0.2268,-0.5,0.5,-0.3,-0.003,-0.004,-0.002,1023
2018,5,17,22,41,39.42,-0.0698,-0.948,0.2118,-0.2269,-0.2,0.3,-0.6,-0.003,-0.002,0,0
2018,5,17,22,41,39.437,-0.0696,-0.948,0.2115,-0.227,0.2,0,-0.7,-0.005,-0.001,0.002,0
2018,5,17,22,41,39.459,-0.0695,-0.948,0.2113,-0.2272,0.3,-0.3,-0.8,-0.004,0.003,-0.003,0
2018,5,17,22,41,39.48,-0.0693,-0.9481,0.211,-0.2274,0.5,-0.6,-0.5,-0.003,0.003,-0.002,0
2018,5,17,22,41,39.517,-0.0691,-0.9481,0.2107,-0.2276,0.3,-0.7,-0.1,-0.002,0.005,-0.006,0
2018,5,17,22,41,39.539,-0.0689,-0.9481,0.2104,-0.2278,0.2,-0.5,0,-0.001,0.006,-0.004,0
2018,5,17,22,41,39.544,-0.0688,-0.9482,0.21,-0.2279,0,0,0,0,0.004,-0.006,0
2018,5,17,22,41,39.562,-0.0687,-0.9483,0.2097,-0.228,0,0,0,0,0.002,-0.002,0
2018,5,17,22,41,39.582,-0.0687,-0.9483,0.2093,-0.2281,0,0,0,-0.006,0,-0.002,0
2018,5,17,22,41,39.605,-0.0686,-0.9484,0.2089,-0.2282,0,0,0,-0.003,-0.002,-0.007,0
2018,5,17,22,41,39.619,-0.0685,-0.9484,0.2086,-0.2282,0.6,0,-0.2,-0.002,-0.009,-0.01,0
2018,5,17,22,41,39.653,-0.0683,-0.9485,0.2083,-0.2283,0.8,0.1,-0.3,-0.002,0.001,-0.006,0
2018,5,17,22,41,39.676,-0.0683,-0.9486,0.208,-0.2283,0.5,0,-0.3,-0.006,0,-0.001,0
2018,5,17,22,41,39.681,-0.0682,-0.9486,0.2077,-0.2284,0,0,0,-0.005,0.006,-0.006,0
2018,5,17,22,41,39.726,-0.0682,-0.9487,0.2074,-0.2285,0,0,0,-0.002,0.006,0.003,0
2018,5,17,22,41,39.729,-0.0684,-0.9487,0.207,-0.2286,-0.3,-0.7,0,0,0.001,0,0
2018,5,17,22,41,39.741,-0.0681,-0.9488,0.2067,-0.2287,0,-0.7,0.2,0.001,0,-0.01,0
2018,5,17,22,41,39.76,-0.0679,-0.9489,0.2062,-0.2288,0,0,0,-0.001,0.001,-0.011,0
2018,5,17,22,41,39.781,-0.0679,-0.9489,0.2059,-0.2289,0,0,0,-0.005,0.001,-0.004,0
2018,5,17,22,41,39.82,-0.0678,-0.949,0.2056,-0.2289,0,0,0,-0.007,0,-0.001,1023
2018,5,17,22,41,39.84,-0.0679,-0.949,0.2052,-0.229,0,0,0,-0.003,0.001,0,1023
2018,5,17,22,41,39.845,-0.068,-0.9491,0.2049,-0.2291,0,0,0,-0.002,0.004,-0.005,1023
2018,5,17,22,41,39.861,-0.0681,-0.9491,0.2046,-0.2291,0.5,-0.3,0,-0.002,0.003,-0.002,1023
2018,5,17,22,41,39.879,-0.0681,-0.9492,0.2042,-0.2292,0,0,0,-0.001,0.007,-0.002,1023
2018,5,17,22,41,39.902,-0.068,-0.9493,0.2039,-0.2293,0,0,0,-0.007,0.002,-0.008,1023
2018,5,17,22,41,39.92,-0.0678,-0.9493,0.2035,-0.2294,0,0,0,-0.003,0.002,-0.003,1023
2018,5,17,22,41,39.943,-0.0676,-0.9494,0.2032,-0.2294,0,0,0,-0.004,-0.003,-0.003,1023
2018,5,17,22,41,39.961,-0.0676,-0.9495,0.2029,-0.2295,0,0,0,-0.002,-0.003,-0.002,1023
2018,5,17,22,41,39.984,-0.0678,-0.9495,0.2026,-0.2295,0,0,0,-0.002,0,-0.003,1023
2018,5,17,22,41,40.002,-0.0678,-0.9496,0.2022,-0.2295,0,0,0,-0.001,0,-0.005,1023
2018,5,17,22,41,40.025,-0.068,-0.9496,0.2019,-0.2296,0,0,0,-0.001,0.003,0,1023
2018,5,17,22,41,40.062,-0.0678,-0.9497,0.2016,-0.2297,0.2,0,-0.5,-0.001,0,-0.002,1023
2018,5,17,22,41,40.085,-0.0676,-0.9497,0.2013,-0.2297,0,0,0,-0.003,0.002,-0.005,1023
2018,5,17,22,41,40.09,-0.0674,-0.9498,0.201,-0.2299,0,0,0,-0.002,0.001,-0.008,1023
2018,5,17,22,41,40.106,-0.0674,-0.9498,0.2007,-0.2299,0,0,0,-0.005,0,-0.006,1023
2018,5,17,22,41,40.124,-0.0674,-0.9499,0.2004,-0.23,0,0,0,-0.004,0.003,-0.007,1023
2018,5,17,22,41,40.147,-0.0673,-0.95,0.2,-0.23,0,0,0,-0.003,0.001,-0.003,1023
2018,5,17,22,41,40.184,-0.0673,-0.95,0.1997,-0.2301,0,0,0,-0.003,0.003,-0.002,1023
2018,5,17,22,41,40.184,-0.0673,-0.9501,0.1994,-0.2301,0,0,0,-0.003,0.001,-0.009,1023
2018,5,17,22,41,40.205,-0.0673,-0.9501,0.199,-0.2301,0,0,0,0.001,0,-0.008,1023
2018,5,17,22,41,40.223,-0.0672,-0.9502,0.1987,-0.2302,0,0,0,-0.002,0,-0.001,1023
2018,5,17,22,41,40.243,-0.0672,-0.9503,0.1984,-0.2302,0,0,0,-0.003,-0.003,0.002,1023
2018,5,17,22,41,40.278,-0.0671,-0.9503,0.198,-0.2303,0,0,0,-0.005,-0.002,-0.003,0
2018,5,17,22,41,40.298,-0.0669,-0.9504,0.1977,-0.2304,0.6,-0.2,-0.4,-0.003,-0.004,-0.003,0
2018,5,17,22,41,40.306,-0.067,-0.9504,0.1975,-0.2305,0.8,-0.2,-0.4,-0.006,0.001,-0.001,0
2018,5,17,22,41,40.345,-0.0669,-0.9504,0.1972,-0.2306,0.3,-0.1,-0.6,-0.003,0,-0.004,0
2018,5,17,22,41,40.366,-0.0669,-0.9505,0.1969,-0.2307,0,0,0,-0.001,0.006,-0.007,0
2018,5,17,22,41,40.368,-0.067,-0.9505,0.1965,-0.2307,0,0,0,-0.003,0.003,-0.009,0
2018,5,17,22,41,40.405,-0.0669,-0.9506,0.1962,-0.2307,-0.5,0.3,0,0,0.003,-0.01,0
2018,5,17,22,41,40.425,-0.067,-0.9507,0.1958,-0.2307,-0.3,0.5,0.3,-0.002,0.004,-0.003,0
2018,5,17,22,41,40.428,-0.067,-0.9508,0.1955,-0.2307,0,0,0,-0.003,0,-0.001,0
2018,5,17,22,41,40.446,-0.0673,-0.9508,0.1952,-0.2307,0,0,0,0,-0.002,-0.003,0
2018,5,17,22,41,40.483,-0.0672,-0.9509,0.1948,-0.2307,0,0,0,-0.005,0,0,0
2018,5,17,22,41,40.504,-0.0672,-0.9509,0.1945,-0.2308,0,0,0,-0.004,-0.003,-0.004,0
2018,5,17,22,41,40.505,-0.0672,-0.951,0.1942,-0.2309,0,0,0,-0.003,0.004,0,0
2018,5,17,22,41,40.541,-0.0671,-0.951,0.1939,-0.231,0,0,0,-0.004,-0.002,-0.008,0
2018,5,17,22,41,40.562,-0.0669,-0.9511,0.1935,-0.2311,0,0,0,0,0.002,-0.008,0
2018,5,17,22,41,40.568,-0.0667,-0.9511,0.1932,-0.2311,0,0,0,0.002,0.003,-0.005,0
2018,5,17,22,41,40.606,-0.0667,-0.9512,0.1929,-0.2311,0,0,0,0.002,0.002,-0.004,0
2018,5,17,22,41,40.627,-0.0667,-0.9513,0.1926,-0.2311,0,0,0,-0.001,0,-0.005,0
2018,5,17,22,41,40.628,-0.0666,-0.9513,0.1923,-0.2312,0,0,0,-0.005,-0.002,-0.003,0
2018,5,17,22,41,40.645,-0.0665,-0.9514,0.1919,-0.2313,0,0,0,-0.006,-0.002,-0.004,0
2018,5,17,22,41,40.666,-0.0664,-0.9514,0.1916,-0.2314,0,0,0,-0.005,0.001,-0.003,0
2018,5,17,22,41,40.701,-0.0664,-0.9515,0.1913,-0.2314,0,0,0,0,0.004,-0.001,0
2018,5,17,22,41,40.722,-0.0664,-0.9515,0.1909,-0.2315,0,0,0,0,0.006,-0.004,1023
2018,5,17,22,41,40.727,-0.0663,-0.9516,0.1906,-0.2315,-0.2,0,0.5,-0.001,0.006,-0.002,1023
2018,5,17,22,41,40.765,-0.0663,-0.9517,0.1901,-0.2315,-0.5,0.2,0.8,0.001,0.003,-0.005,1023
2018,5,17,22,41,40.785,-0.0664,-0.9518,0.1897,-0.2314,-0.2,0.2,0.7,-0.005,0,-0.005,1023
2018,5,17,22,41,40.787,-0.0665,-0.9519,0.1893,-0.2314,-0.5,0.5,0.6,0,0,-0.004,1023
2018,5,17,22,41,40.825,-0.0666,-0.952,0.1889,-0.2313,-0.6,0.5,0.3,-0.001,-0.004,-0.005,1023
2018,5,17,22,41,40.846,-0.0665,-0.952,0.1886,-0.2313,-0.6,0.4,0,0,-0.002,-0.001,1023
2018,5,17,22,41,40.849,-0.0666,-0.9521,0.1883,-0.2313,0,0,0,-0.001,0.001,-0.006,1023
2018,5,17,22,41,40.885,-0.0665,-0.9522,0.1879,-0.2314,0,0,0,-0.002,0,0,1023
2018,5,17,22,41,40.908,-0.0665,-0.9522,0.1876,-0.2314,0,0,0,-0.002,0.002,-0.001,1023
2018,5,17,22,41,40.913,-0.0666,-0.9523,0.1873,-0.2314,0,0,0,-0.001,0.002,-0.001,1023
2018,5,17,22,41,40.93,-0.0668,-0.9523,0.1869,-0.2314,0,0,0,0,0.001,-0.006,1023
2018,5,17,22,41,40.948,-0.0669,-0.9524,0.1866,-0.2315,0,0,0,-0.005,0.001,-0.006,1023
2018,5,17,22,41,40.968,-0.0669,-0.9524,0.1863,-0.2315,0,0,0,-0.004,0,-0.008,1023
2018,5,17,22,41,40.989,-0.0669,-0.9525,0.186,-0.2315,0,0,0,-0.005,0,-0.006,1023
2018,5,17,22,41,41.012,-0.067,-0.9525,0.1857,-0.2315,-0.4,0.5,-0.1,-0.002,0.002,-0.005,1023
2018,5,17,22,41,41.03,-0.0671,-0.9526,0.1854,-0.2315,-0.3,0.5,0,0,0.004,-0.002,1023
2018,5,17,22,41,41.053,-0.0669,-0.9526,0.1851,-0.2315,0,0,0,-0.001,0,0.006,1023
2018,5,17,22,41,41.072,-0.067,-0.9527,0.1848,-0.2316,0,0,0,0,0.002,-0.004,1023
2018,5,17,22,41,41.111,-0.0669,-0.9527,0.1844,-0.2316,-0.5,0.1,0.3,-0.005,0,-0.004,1023
2018,5,17,22,41,41.134,-0.067,-0.9528,0.1841,-0.2316,-0.5,0,0.1,-0.003,0,-0.005,1023
2018,5,17,22,41,41.139,-0.0671,-0.9529,0.1832,-0.2318,0,0,0,0,0,-0.003,1023
2018,5,17,22,41,41.155,-0.0672,-0.953,0.1829,-0.2318,0,0,0,-0.002,0.004,-0.003,1023
2018,5,17,22,41,41.173,-0.0669,-0.953,0.1825,-0.2319,0,0,0,-0.001,0.004,-0.003,0
2018,5,17,22,41,41.196,-0.0669,-0.9531,0.1822,-0.232,0,0,0,-0.001,0.005,-0.002,0
2018,5,17,22,41,41.212,-0.0669,-0.9531,0.1819,-0.232,0,0,0,-0.004,0.004,-0.005,0
2018,5,17,22,41,41.23,-0.067,-0.9532,0.1816,-0.232,0,0,0,0,0.007,-0.007,0
2018,5,17,22,41,41.253,-0.0669,-0.9533,0.1809,-0.2321,0,0,0,-0.001,0.002,-0.008,0
2018,5,17,22,41,41.274,-0.0669,-0.9534,0.1806,-0.2321,0,0,0,0.001,0,-0.002,0
2018,5,17,22,41,41.311,-0.0668,-0.9534,0.1803,-0.2321,0,0,0,-0.003,-0.001,-0.004,0
2018,5,17,22,41,41.334,-0.0667,-0.9535,0.18,-0.2322,-0.3,0.5,-0.2,-0.001,0.001,-0.003,0
2018,5,17,22,41,41.339,-0.0667,-0.9535,0.1797,-0.2322,0,0,0,-0.007,0,-0.003,0
2018,5,17,22,41,41.355,-0.0669,-0.9536,0.1794,-0.2322,0,0,0,-0.005,-0.001,-0.004,0
2018,5,17,22,41,41.394,-0.0667,-0.9536,0.1791,-0.2323,0,0,0,-0.004,0.005,-0.004,0
2018,5,17,22,41,41.394,-0.0667,-0.9537,0.1787,-0.2323,0,0,0,-0.003,0.007,-0.007,0
2018,5,17,22,41,41.417,-0.0668,-0.9537,0.1784,-0.2323,0,0,0,-0.003,0.007,-0.001,0
2018,5,17,22,41,41.433,-0.0671,-0.9538,0.178,-0.2323,0,0,0.8,0.005,0.006,-0.006,0
2018,5,17,22,41,41.47,-0.0671,-0.9539,0.1775,-0.2323,-0.1,0,0.6,0,0.001,-0.006,0
2018,5,17,22,41,41.492,-0.067,-0.9539,0.1772,-0.2324,0,0,0,-0.004,-0.003,-0.006,0
2018,5,17,22,41,41.497,-0.0672,-0.954,0.1769,-0.2324,0,0,0,-0.006,0,-0.004,0
2018,5,17,22,41,41.514,-0.0672,-0.954,0.1766,-0.2325,0,0,0,-0.006,-0.005,-0.002,0
2018,5,17,22,41,41.537,-0.0669,-0.954,0.1763,-0.2327,0.7,-0.3,-0.3,-0.003,0,-0.001,0
2018,5,17,22,41,41.555,-0.0668,-0.9541,0.1759,-0.2328,0.8,-0.3,-0.2,-0.005,0.003,-0.005,0
2018,5,17,22,41,41.578,-0.0669,-0.9541,0.1756,-0.2329,0.7,-0.3,-0.1,-0.001,0.007,-0.003,0
2018,5,17,22,41,41.596,-0.0669,-0.9542,0.1753,-0.2329,0.6,-0.2,0.2,0,0.007,-0.01,1023
2018,5,17,22,41,41.619,-0.0668,-0.9542,0.1749,-0.233,0,0,0,-0.004,0.003,-0.008,1023
2018,5,17,22,41,41.636,-0.0669,-0.9543,0.1746,-0.233,0,0,0,0,0.001,-0.01,1023
2018,5,17,22,41,41.656,-0.0669,-0.9543,0.1743,-0.233,0,0,0,-0.001,-0.003,-0.002,1023
2018,5,17,22,41,41.676,-0.0669,-0.9544,0.174,-0.233,0,0,0,-0.002,-0.003,-0.003,1023
2018,5,17,22,41,41.694,-0.0668,-0.9544,0.1737,-0.2331,0,0,0,-0.001,-0.005,0,1023
2018,5,17,22,41,41.716,-0.0663,-0.9545,0.1734,-0.2333,0.5,-0.3,-0.5,-0.005,-0.002,0,1023
2018,5,17,22,41,41.754,-0.0662,-0.9545,0.1731,-0.2334,0.5,-0.5,-0.8,0,0,0.002,1023
2018,5,17,22,41,41.777,-0.0662,-0.9545,0.1729,-0.2336,0.2,-0.7,-0.7,0,0.003,-0.001,1023
2018,5,17,22,41,41.782,-0.0661,-0.9545,0.1727,-0.2338,0.1,-0.7,-0.9,-0.002,0.006,-0.002,1023
2018,5,17,22,41,41.798,-0.0661,-0.9545,0.1725,-0.2339,-0.3,-1.1,-0.3,0,0.002,-0.006,1023
2018,5,17,22,41,41.834,-0.0662,-0.9544,0.1723,-0.2342,-0.9,-2.3,-0.4,0.002,0,0.002,1023
2018,5,17,22,41,41.857,-0.0666,-0.9543,0.1722,-0.2347,-1.9,-4.4,-2.3,0.028,0.025,-0.009,1023
2018,5,17,22,41,41.862,-0.067,-0.954,0.1726,-0.2353,-3.2,-5.7,-4.9,0.038,0,0.01,1023
2018,5,17,22,41,41.877,-0.0669,-0.9537,0.1733,-0.2361,-1,-4.7,-6.4,0.029,-0.113,0.016,1023
2018,5,17,22,41,41.9,-0.0648,-0.9534,0.1746,-0.237,13.6,-1.3,-12.1,-0.019,-0.306,-0.041,1023
2018,5,17,22,41,41.918,-0.0583,-0.9536,0.1759,-0.2372,41.6,11.1,-18.4,-0.025,-0.273,0.049,1023
2018,5,17,22,41,41.942,-0.0482,-0.9536,0.1783,-0.2374,46.8,9.2,-35,-0.08,-0.009,0.152,1023
2018,5,17,22,41,41.978,-0.0397,-0.9521,0.1839,-0.2408,34.2,-11.2,-56.3,-0.079,-0.031,0.174,1023
2018,5,17,22,41,42,-0.0313,-0.9494,0.1931,-0.2453,25.8,-22.8,-70.8,-0.085,-0.164,0.036,1023
2018,5,17,22,41,42.005,-0.0227,-0.946,0.2047,-0.2502,29.1,-16.9,-84.8,-0.047,-0.274,-0.048,1023
2018,5,17,22,41,42.02,-0.0101,-0.9422,0.2177,-0.2543,63.8,-9.7,-95.9,-0.063,-0.31,0.051,1023
2018,5,17,22,41,42.037,0.0124,-0.9377,0.2293,-0.2606,136.9,-18.5,-100.4,-0.011,-0.112,0.131,1023
2018,5,17,22,41,42.06,0.0478,-0.9312,0.2367,-0.2727,227.7,-40,-87.6,-0.005,0.129,0.114,1023
2018,5,17,22,41,42.097,0.0971,-0.9218,0.2363,-0.2913,328.8,-49.5,-81.1,-0.035,0.167,-0.116,1023
2018,5,17,22,41,42.119,0.1635,-0.9072,0.2234,-0.3164,387.5,-54.6,-14.4,0.276,0.201,-0.226,1023
2018,5,17,22,41,42.124,0.2174,-0.8921,0.2098,-0.3357,267.8,-29.4,-21.6,0.251,0.41,0.032,1023
2018,5,17,22,41,42.141,0.2586,-0.8783,0.1982,-0.3498,240.5,-36.3,-24.4,-0.017,0.002,-0.037,1023
2018,5,17,22,41,42.164,0.2971,-0.8626,0.1905,-0.3621,198.6,-34.9,-53.3,0.03,-0.114,-0.096,1023
2018,5,17,22,41,42.201,0.3319,-0.8465,0.1895,-0.3704,191.3,-29.3,-77.9,0.023,-0.114,0.049,1023
2018,5,17,22,41,42.201,0.371,-0.8272,0.1887,-0.3772,235.3,-22.6,-88.2,0.128,-0.113,-0.011,1023
2018,5,17,22,41,42.223,0.4178,-0.8033,0.1842,-0.3822,299.2,5,-90.3,0.416,-0.16,-0.217,1023
2018,5,17,22,41,42.245,0.4733,-0.7735,0.1705,-0.3852,392.2,17.8,-67.8,0.389,0.1,-0.416,1023
2018,5,17,22,41,42.266,0.5387,-0.7316,0.1474,-0.3907,491.5,6.9,-65.2,0.296,0.416,-0.412,1023
2018,5,17,22,41,42.284,0.607,-0.6789,0.1205,-0.3949,514.1,5.7,-79.5,0.2,0.645,-0.447,1023
2018,5,17,22,41,42.307,0.6694,-0.6228,0.0972,-0.3929,446.3,3.8,-111.7,0.293,1.016,-0.813,1023
2018,5,17,22,41,42.325,0.7167,-0.576,0.0838,-0.384,313.8,4.5,-129.4,0.723,1.397,-1.252,1023
2018,5,17,22,41,42.348,0.751,-0.5409,0.0763,-0.3708,260.7,19.1,-123.3,0.821,1.473,-1.897,1023
2018,5,17,22,41,42.364,0.7805,-0.5068,0.0678,-0.3594,250.4,-5.5,-103.5,0.27,1.695,-1.294,1023
2018,5,17,22,41,42.4,0.8024,-0.4784,0.0622,-0.3512,148.2,17.9,-62.3,0.68,1.769,-1.554,1023
2018,5,17,22,41,42.422,0.8099,-0.4671,0.0482,-0.3513,117.7,64.1,77.7,0.761,1.862,-0.557,0
2018,5,17,22,41,42.427,0.8185,-0.4452,0.017,-0.3626,280.4,69.1,103.7,-1.224,0.145,1.319,0
2018,5,17,22,41,42.442,0.8284,-0.4171,-0.0234,-0.3729,116.6,133.4,169.9,-1.514,1.402,0.449,0
2018,5,17,22,41,42.464,0.8191,-0.4167,-0.0498,-0.3909,67.9,45,120.7,0.459,1.615,0.771,0
2018,5,17,22,41,42.502,0.8264,-0.3807,-0.0336,-0.4133,-12.1,-684.7,-431.9,-12.901,-15.313,9.36,0
2018,5,17,22,41,42.525,0.8512,-0.3408,0.0166,-0.3985,456.6,-453.2,-163.2,0.682,3.902,-0.526,0
2018,5,17,22,41,42.53,0.8815,-0.2466,0.0687,-0.3965,114.5,-487.8,-60,0.092,0.158,2.106,0
2018,5,17,22,41,42.548,0.8825,-0.212,0.0984,-0.4078,184.1,45.3,40,1.414,2.743,-1.669,0
2018,5,17,22,41,42.564,0.8768,-0.2043,0.0721,-0.4291,152,47.1,116.6,-0.098,-0.408,0.678,0
2018,5,17,22,41,42.582,0.8615,-0.2017,0.0605,-0.4619,-43.3,13.9,254.5,-0.53,-1.621,0.146,0
2018,5,17,22,41,42.606,0.8316,-0.2139,0.0528,-0.5097,-228,39.2,342.8,-1.443,-0.148,-1.74,0
2018,5,17,22,41,42.623,0.7934,-0.2815,0.0641,-0.5357,-382.1,106,172.7,-1.213,-0.444,-0.451,0
2018,5,17,22,41,42.646,0.7748,-0.3073,0.0582,-0.5493,118.2,70,112.5,0.654,-1.7,-0.171,0
2018,5,17,22,41,42.682,0.7748,-0.2889,0.0296,-0.5614,130.8,6.8,47.7,-0.427,0.685,0.419,0
2018,5,17,22,41,42.705,0.7681,-0.3044,0.0407,-0.5617,-364.1,6.9,-26.6,-0.196,1.444,-0.284,0
2018,5,17,22,41,42.709,0.7445,-0.3717,0.0903,-0.5469,-540.3,23.7,-100.7,0.462,0.201,-0.744,0
2018,5,17,22,41,42.726,0.7213,-0.4278,0.1304,-0.5287,-271.4,36.5,-13.7,1.118,-0.035,-0.734,0
2018,5,17,22,41,42.749,0.7133,-0.4433,0.1331,-0.5261,39.1,33.6,21.5,0.934,-1.084,0.426,0
2018,5,17,22,41,42.767,0.7226,-0.4337,0.122,-0.524,65.8,26.3,-48.5,0.483,-0.443,0.537,0
2018,5,17,22,41,42.79,0.7308,-0.4321,0.1236,-0.5136,-17.4,18.6,-85.7,0.267,0.221,0.437,0
2018,5,17,22,41,42.806,0.7388,-0.4345,0.1291,-0.4986,-2.2,33.3,-101.7,0.248,0.002,0.303,0
2018,5,17,22,41,42.824,0.7509,-0.4308,0.1258,-0.4844,74.6,56.8,-67.1,-0.127,0.156,0.582,0
2018,5,17,22,41,42.847,0.7653,-0.4187,0.1141,-0.4752,145.2,48.9,-40.6,0.213,0.164,0.857,0
2018,5,17,22,41,42.865,0.7807,-0.3993,0.0949,-0.4711,190.8,51,0,0.145,0.35,0.667,0
2018,5,17,22,41,42.888,0.7935,-0.3753,0.0696,-0.4738,202.2,49.3,49.6,-0.027,0.525,0.442,0
2018,5,17,22,41,42.907,0.8006,-0.3558,0.0438,-0.4799,129.3,60.1,59.8,-0.009,0.605,-0.026,0
2018,5,17,22,41,42.93,0.8021,-0.3497,0.025,-0.4834,53.8,62.2,47.4,-0.027,0.151,0.093,0
2018,5,17,22,41,42.947,0.803,-0.3457,0.0088,-0.4853,96,48.2,32.9,-0.078,-0.349,0.108,0
2018,5,17,22,41,42.97,0.8096,-0.3299,-0.0093,-0.4853,163.2,33.7,7.8,-0.089,-0.218,-0.101,0
2018,5,17,22,41,42.986,0.8197,-0.3067,-0.0277,-0.4829,178.8,18.1,-5.5,-0.109,0.142,-0.139,0
2018,5,17,22,41,43.005,0.8293,-0.2827,-0.0433,-0.4799,164.7,5,-8.5,-0.128,0.217,-0.101,0
2018,5,17,22,41,43.027,0.8377,-0.2595,-0.0558,-0.4771,145,-6.8,-6.2,-0.091,0.408,-0.014,0
2018,5,17,22,41,43.064,0.8436,-0.2413,-0.0634,-0.4753,80.2,-13.6,-3.9,-0.029,0.53,0.064,0
2018,5,17,22,41,43.087,0.8458,-0.2347,-0.0635,-0.4747,-7,-17.4,-3.3,0.016,0.412,0.062,0
2018,5,17,22,41,43.091,0.8451,-0.2377,-0.0579,-0.4752,-49.9,-18.1,-1,0.086,0.191,-0.016,0
2018,5,17,22,41,43.109,0.843,-0.2452,-0.0503,-0.4759,-58.6,-16.2,-1.8,0.065,-0.024,-0.049,0
2018,5,17,22,41,43.145,0.8414,-0.2526,-0.0425,-0.4757,-39.5,-18,-5.9,0.045,-0.114,0.034,0
2018,5,17,22,41,43.168,0.8411,-0.2566,-0.0362,-0.4746,-22.2,-16.1,-11,0.053,-0.046,0.046,0
2018,5,17,22,41,43.172,0.8416,-0.2582,-0.0318,-0.4731,-10.8,-11.3,-10,0.06,0.049,0.012,0
2018,5,17,22,41,43.191,0.842,-0.2599,-0.0288,-0.4717,-22.7,-5.8,-9.2,0.041,0.106,0.014,0
2018,5,17,22,41,43.207,0.8416,-0.2644,-0.0252,-0.4701,-33.8,-2.3,-11.3,0.04,0,-0.004,0
2018,5,17,22,41,43.226,0.8413,-0.2697,-0.0214,-0.4678,-26.4,0,-11.4,0.046,-0.008,0.011,1023
2018,5,17,22,41,43.25,0.8414,-0.2731,-0.0189,-0.4658,-13.8,-2.5,-9.4,0.008,0.015,0.068,1023
2018,5,17,22,41,43.267,0.8417,-0.2747,-0.0171,-0.4644,-6.1,-5.8,-6.9,0.001,0.003,0.042,1023
2018,5,17,22,41,43.29,0.8417,-0.2762,-0.0153,-0.4636,-13.7,-6.4,-4.2,0.01,0.034,-0.032,1023
2018,5,17,22,41,43.308,0.8408,-0.28,-0.0126,-0.4629,-29.1,-4.7,-1.3,0.002,0.035,-0.052,1023
2018,5,17,22,41,43.331,0.8392,-0.2854,-0.0093,-0.4627,-35.8,-5.2,0.1,-0.016,-0.005,0.012,1023
2018,5,17,22,41,43.35,0.8376,-0.2905,-0.0057,-0.4624,-23.8,-7.5,-0.1,-0.03,-0.1,0.042,1023
2018,5,17,22,41,43.374,0.8369,-0.2929,-0.0033,-0.4621,-5.8,-7.4,0,-0.001,-0.042,-0.004,1023
2018,5,17,22,41,43.39,0.837,-0.2935,-0.002,-0.4617,-0.4,-5.2,-0.7,0.021,0.045,-0.015,1023
2018,5,17,22,41,43.413,0.8371,-0.2937,-0.0014,-0.4612,-3.9,-1,-0.2,0.029,0.05,0.004,0
2018,5,17,22,41,43.431,0.8371,-0.2949,-0.0009,-0.4606,-4.6,0,-1.3,0,-0.008,0.023,0
2018,5,17,22,41,43.453,0.8372,-0.2958,-0.0005,-0.4598,0,-0.4,-1.9,0.022,0.011,0,0
2018,5,17,22,41,43.49,0.8376,-0.296,-0.0004,-0.4591,2.6,-1.1,-1.2,0.013,0.026,0.017,0
2018,5,17,22,41,43.49,0.838,-0.2955,-0.0004,-0.4585,4.2,-3.1,-0.5,0.008,0.037,0.039,0
2018,5,17,22,41,43.513,0.8385,-0.2946,-0.0003,-0.4581,2.4,-4.1,-0.2,0.011,0.048,0.015,0
2018,5,17,22,41,43.531,0.8386,-0.2947,0,-0.4579,-2.3,-3.3,0.5,0.007,0.028,-0.003,0
2018,5,17,22,41,43.55,0.8385,-0.2955,0.0006,-0.4575,-3.1,-1.5,1.1,0.007,0.008,0,0
2018,5,17,22,41,43.573,0.8385,-0.2963,0.0009,-0.4572,-0.2,-0.6,0.5,0.011,0.006,0.014,0
2018,5,17,22,41,43.593,0.8387,-0.2964,0.0008,-0.4567,2.8,-0.6,0,0.011,0.009,0.021,0
2018,5,17,22,41,43.611,0.8391,-0.2961,0.0007,-0.4562,6.4,-1.4,-0.2,0.011,0.006,0.004,0
2018,5,17,22,41,43.634,0.8396,-0.2954,0.0003,-0.4557,6.2,-1.3,0.1,0.012,0.027,-0.007,0
2018,5,17,22,41,43.653,0.84,-0.2949,0,-0.4553,3.8,-0.6,0.3,0.01,0.038,0,0
2018,5,17,22,41,43.675,0.8403,-0.2948,-0.0002,-0.4549,1.4,-0.2,0.2,0.017,0.032,0.017,0
2018,5,17,22,41,43.69,0.8404,-0.2948,-0.0003,-0.4546,1.1,0,0.7,0.018,0.033,0.016,0
2018,5,17,22,41,43.708,0.8407,-0.2947,-0.0005,-0.4542,2,0.2,0.8,0.017,0.03,0.015,0
2018,5,17,22,41,43.731,0.8409,-0.2947,-0.0009,-0.4538,1.7,1.1,0.2,0.013,0.024,0.002,0
2018,5,17,22,41,43.749,0.8411,-0.295,-0.0012,-0.4532,0.3,1.9,-0.3,0.011,0.03,0,0
2018,5,17,22,41,43.772,0.8411,-0.2957,-0.0016,-0.4527,-2.2,2.4,0,0.011,0.034,0,0
2018,5,17,22,41,43.807,0.8411,-0.2966,-0.0018,-0.4522,-2.7,1.4,0.3,0.005,0.021,0.009,0
2018,5,17,22,41,43.83,0.8411,-0.2972,-0.0019,-0.4517,-2.4,-0.3,0.7,0,0.025,0.019,0
2018,5,17,22,41,43.835,0.8411,-0.2976,-0.0017,-0.4515,-1.3,-1.8,0.8,0.008,0.017,0.012,0
2018,5,17,22,41,43.851,0.8412,-0.2978,-0.0014,-0.4511,-0.9,-1.9,0.5,0.008,0.023,0,0
2018,5,17,22,41,43.872,0.8411,-0.2985,-0.0012,-0.4509,-3.5,0,0.6,0.014,0.024,-0.004,0
2018,5,17,22,41,43.911,0.841,-0.2995,-0.001,-0.4505,-4.8,1.1,0.4,0.012,0.02,0.005,0
2018,5,17,22,41,43.911,0.8409,-0.3005,-0.0008,-0.45,-4.1,0.6,0.1,0.013,0.014,0.01,0
2018,5,17,22,41,43.934,0.8409,-0.3012,-0.0006,-0.4494,-2.8,0.4,0,0.01,0.014,0.005,1023
2018,5,17,22,41,43.953,0.841,-0.3018,-0.0005,-0.4489,-2.3,0,0,0.005,0.014,0.01,1023
2018,5,17,22,41,43.99,0.841,-0.3023,-0.0005,-0.4484,0,0,0,0.004,0.01,0.003,1023
2018,5,17,22,41,44.013,0.8413,-0.3025,-0.0007,-0.4479,0.3,0.5,-0.2,0.006,0.022,0.002,1023
2018,5,17,22,41,44.018,0.8413,-0.3029,-0.0008,-0.4475,-1.1,0.3,-0.2,0.008,0.028,0.001,1023
2018,5,17,22,41,44.034,0.8414,-0.3034,-0.0009,-0.4471,-2.7,0,0,0.004,0.028,0.005,1023
2018,5,17,22,41,44.053,0.8413,-0.3041,-0.0007,-0.4467,-3.7,-0.3,0.5,0.009,0.016,0.003,1023
2018,5,17,22,41,44.076,0.8412,-0.305,-0.0005,-0.4464,-3.8,0,0.3,0,0.007,0.005,1023
2018,5,17,22,41,44.113,0.8411,-0.3057,-0.0003,-0.4461,-1.7,-0.5,0.3,0.011,0.012,0.002,1023
2018,5,17,22,41,44.136,0.8412,-0.3061,-0.0003,-0.4456,-0.8,0,0.1,0.007,0.015,0.003,1023
2018,5,17,22,41,44.141,0.8412,-0.3065,-0.0003,-0.4453,-1.3,0,0,0.006,0.02,0.002,0
2018,5,17,22,41,44.156,0.8413,-0.3069,-0.0003,-0.4449,-1.3,0.2,0,0.007,0.017,0.01,0
2018,5,17,22,41,44.179,0.8413,-0.3073,-0.0004,-0.4445,-0.9,0,0.1,0.007,0.019,0.005,0
2018,5,17,22,41,44.195,0.8414,-0.3077,-0.0004,-0.4441,-1.4,-0.2,0.2,0.006,0.017,-0.001,0
2018,5,17,22,41,44.215,0.8414,-0.3082,-0.0004,-0.4437,-1.1,0,0,0.002,0.013,-0.002,0
2018,5,17,22,41,44.252,0.8415,-0.3085,-0.0004,-0.4433,-1.5,-0.1,0,0.008,0.02,-0.001,0
2018,5,17,22,41,44.275,0.8416,-0.309,-0.0004,-0.4429,-1.9,0.2,0,0.008,0.019,-0.006,0
2018,5,17,22,41,44.28,0.8415,-0.3095,-0.0003,-0.4426,-2.4,0,0.1,0.007,0.017,0.004,0
2018,5,17,22,41,44.298,0.8415,-0.3102,-0.0003,-0.4422,-2.1,0,0,0.004,0.004,0.001,0
2018,5,17,22,41,44.316,0.8416,-0.3105,-0.0002,-0.4417,-0.6,-0.4,0,0.005,0.011,0.005,0
2018,5,17,22,41,44.34,0.8418,-0.3106,-0.0003,-0.4412,0.5,-0.5,-0.1,0.008,0.012,0.005,0
2018,5,17,22,41,44.358,0.842,-0.3107,-0.0003,-0.4408,0,0,0,0.01,0.015,0,0
2018,5,17,22,41,44.376,0.8421,-0.311,-0.0004,-0.4405,-1.1,0.2,0,0.009,0.02,-0.002,0
2018,5,17,22,41,44.399,0.8422,-0.3114,-0.0005,-0.44,-1.7,0.4,0,0.001,0.006,-0.005,0
2018,5,17,22,41,44.415,0.8422,-0.3118,-0.0005,-0.4396,0,0,0,0.008,0.005,-0.001,0
2018,5,17,22,41,44.452,0.8424,-0.3119,-0.0006,-0.4392,1.1,-0.2,0,0.008,0.013,0,0
2018,5,17,22,41,44.475,0.8427,-0.3119,-0.0008,-0.4387,0.7,0,-0.2,0.005,0.02,0,0
2018,5,17,22,41,44.48,0.8429,-0.3119,-0.001,-0.4383,-1,0,0,0.003,0.025,0,0
2018,5,17,22,41,44.495,0.843,-0.3122,-0.001,-0.4379,-1.8,-0.2,-0.2,0.004,0.014,-0.001,0
2018,5,17,22,41,44.519,0.8431,-0.3127,-0.0009,-0.4374,-2.3,0,-0.3,0.006,0.01,-0.005,0
2018,5,17,22,41,44.536,0.8431,-0.3132,-0.0009,-0.437,-1.2,0.1,-0.3,0.008,0.01,0.007,0
2018,5,17,22,41,44.559,0.8432,-0.3135,-0.0009,-0.4365,-1,0,-0.2,0.006,0.014,0,0
2018,5,17,22,41,44.578,0.8432,-0.3139,-0.001,-0.4362,-0.9,-0.2,0,0.001,0.015,0,0
2018,5,17,22,41,44.601,0.8433,-0.3142,-0.001,-0.436,-0.4,-0.5,0,0.01,0.01,0,1023
2018,5,17,22,41,44.621,0.8433,-0.3145,-0.001,-0.4357,-1.3,0,0,0.009,0.013,-0.009,1023
2018,5,17,22,41,44.638,0.8433,-0.315,-0.0011,-0.4354,-1.9,0.2,0,0.007,0.014,0.001,1023
2018,5,17,22,41,44.675,0.8433,-0.3154,-0.0011,-0.435,-1.3,0.5,0,0.004,0.01,0,1023
2018,5,17,22,41,44.675,0.8434,-0.3158,-0.0012,-0.4345,-0.9,0.2,-0.4,0.005,0.012,-0.003,1023
2018,5,17,22,41,44.696,0.8434,-0.3162,-0.0013,-0.4342,-1,0,-0.3,0.002,0.014,-0.003,1023
2018,5,17,22,41,44.736,0.8435,-0.3165,-0.0013,-0.4338,-1.1,-0.3,-0.1,0.004,0.01,0.001,1023
2018,5,17,22,41,44.778,0.8436,-0.3167,-0.0013,-0.4335,0,0,0,0.004,0.005,-0.001,1023
2018,5,17,22,41,44.781,0.8438,-0.3168,-0.0014,-0.433,0,0,0,0.006,0.008,-0.004,1023
2018,5,17,22,41,44.783,0.8438,-0.3171,-0.0015,-0.4327,0.7,-0.4,0,0.004,0.005,-0.001,1023
2018,5,17,22,41,44.798,0.844,-0.3171,-0.0017,-0.4324,0.6,0,0,0.005,0.013,-0.008,1023
2018,5,17,22,41,44.82,0.8442,-0.3171,-0.0018,-0.432,0,0,0,0.005,0.014,0,1023
2018,5,17,22,41,44.857,0.8444,-0.3172,-0.0019,-0.4316,0.8,-0.3,-0.2,0.004,0.007,0.001,1023
2018,5,17,22,41,44.879,0.8445,-0.3172,-0.0021,-0.4313,0.8,-0.3,-0.2,0.009,0.018,-0.004,1023
2018,5,17,22,41,44.881,0.8446,-0.3174,-0.0022,-0.431,-0.7,0,-0.2,0.008,0.015,-0.012,0
2018,5,17,22,41,44.919,0.8446,-0.3179,-0.0023,-0.4307,-1.7,0,-0.1,0.007,0.011,0.003,0
2018,5,17,22,41,44.919,0.8447,-0.3181,-0.0023,-0.4304,0.3,-0.5,-0.2,0.006,0.004,0.009,0
2018,5,17,22,41,44.939,0.8448,-0.3181,-0.0024,-0.4301,2,-0.7,-0.5,0.004,0.01,-0.001,0
2018,5,17,22,41,44.977,0.8451,-0.3179,-0.0026,-0.4296,0.9,0,-0.7,0.007,0.015,-0.004,0
2018,5,17,22,41,44.996,0.8453,-0.318,-0.0027,-0.4291,-1.1,0.3,-0.5,0.003,0.018,-0.006,0
2018,5,17,22,41,45,0.8454,-0.3184,-0.0028,-0.4287,-2,0.6,-0.3,0.005,0.01,-0.003,0
2018,5,17,22,41,45.036,0.8454,-0.3188,-0.0028,-0.4282,-2.4,0.1,-0.3,0.005,0.01,0.003,0
2018,5,17,22,41,45.058,0.8455,-0.3192,-0.0028,-0.4279,-1.4,-0.2,0,0,0.007,0.004,0
2018,5,17,22,41,45.061,0.8456,-0.3194,-0.0028,-0.4276,-0.5,-1,-0.3,0.002,0.004,-0.006,0
2018,5,17,22,41,45.098,0.8457,-0.3195,-0.0027,-0.4272,0.3,-1,-0.4,0.007,0.013,-0.005,0
2018,5,17,22,41,45.119,0.8459,-0.3195,-0.0027,-0.4268,0,0,0,0.004,0.003,-0.015,0
2018,5,17,22,41,45.123,0.846,-0.3198,-0.0029,-0.4265,-0.8,0.3,-0.2,0.006,0.01,-0.007,0
2018,5,17,22,41,45.139,0.846,-0.3201,-0.003,-0.4262,-0.6,0.2,-0.1,0.005,0.01,0.001,0
2018,5,17,22,41,45.159,0.8462,-0.3201,-0.0031,-0.4258,0,0,0,0.007,0.009,-0.002,0
2018,5,17,22,41,45.196,0.8463,-0.3203,-0.0033,-0.4255,0.3,0.3,-0.5,0.009,0.016,-0.008,0
2018,5,17,22,41,45.216,0.8463,-0.3206,-0.0034,-0.4252,-2,0.6,-0.8,0.002,0.02,-0.007,0
2018,5,17,22,41,45.223,0.8463,-0.3213,-0.0034,-0.4248,-4.3,0.4,-0.9,0.003,0.021,-0.005,0
2018,5,17,22,41,45.26,0.8462,-0.3221,-0.0032,-0.4243,-4.9,0,-0.8,0,0.008,-0.001,0
2018,5,17,22,41,45.28,0.8461,-0.3229,-0.0029,-0.4238,-5.2,-0.3,-0.8,0.006,0.009,-0.009,1023
2018,5,17,22,41,45.283,0.846,-0.3238,-0.0025,-0.4234,-6.6,-0.7,-0.9,0.005,0.016,-0.006,1023
2018,5,17,22,41,45.319,0.8457,-0.325,-0.002,-0.4231,-6.7,-0.9,-1,0.004,0.009,-0.004,1023
2018,5,17,22,41,45.342,0.8456,-0.3259,-0.0014,-0.4226,-6.6,-0.7,-1,0.002,0.007,0,1023
2018,5,17,22,41,45.344,0.8454,-0.3269,-0.0009,-0.4221,-7.2,-0.4,-1.2,0.006,0.007,-0.004,1023
2018,5,17,22,41,45.381,0.8451,-0.3282,-0.0004,-0.4217,-7.7,0,-1.3,0.011,0.011,-0.008,1023
2018,5,17,22,41,45.403,0.8449,-0.3294,0,-0.4212,-5.5,0,-0.7,0.01,-0.008,-0.005,1023
2018,5,17,22,41,45.405,0.8448,-0.3302,0.0003,-0.4208,-2.2,-0.3,-0.6,0.005,-0.011,-0.007,1023
2018,5,17,22,41,45.421,0.8449,-0.3305,0.0005,-0.4204,-0.5,-0.3,-0.7,0.004,0.006,-0.008,1023
2018,5,17,22,41,45.46,0.8451,-0.3306,0.0004,-0.42,-0.6,-0.5,-0.3,0.001,0.014,-0.001,1023
2018,5,17,22,41,45.48,0.8451,-0.3309,0.0005,-0.4198,-2.1,-0.6,0.3,0,0.012,-0.006,1023
2018,5,17,22,41,45.483,0.8451,-0.3313,0.0005,-0.4195,-2.7,-0.3,0.7,0.001,0.007,-0.006,1023
2018,5,17,22,41,45.519,0.845,-0.3317,0.0006,-0.4192,-1.6,0,0.5,0.012,-0.002,-0.002,1023
2018,5,17,22,41,45.539,0.845,-0.332,0.0006,-0.419,0.5,0,0,0.011,-0.001,0,1023
2018,5,17,22,41,45.544,0.8452,-0.3319,0.0003,-0.4187,2.1,0.2,-0.2,0.004,0.016,-0.005,0
2018,5,17,22,41,45.584,0.8454,-0.3318,0,-0.4184,0.5,-0.2,0,-0.001,0.022,-0.005,0
2018,5,17,22,41,45.604,0.8454,-0.332,0,-0.4183,-1.9,-0.2,0,0.001,0.017,-0.002,0
2018,5,17,22,41,45.606,0.8454,-0.3324,0,-0.4179,-2.8,-0.3,-0.1,0.006,0.012,-0.001,0
2018,5,17,22,41,45.643,0.8454,-0.3328,0.0001,-0.4176,-2.7,-0.2,-0.2,0.007,0.007,-0.004,0
2018,5,17,22,41,45.663,0.8455,-0.3332,0.0003,-0.4172,-2.8,-0.3,-0.1,0.006,0.01,-0.006,0
2018,5,17,22,41,45.666,0.8454,-0.3337,0.0004,-0.417,-1.8,-0.3,-0.3,0,0.003,-0.005,0
2018,5,17,22,41,45.702,0.8454,-0.3341,0.0005,-0.4167,-2.2,-0.2,-0.2,0.005,0.008,-0.008,0
2018,5,17,22,41,45.702,0.8453,-0.3347,0.0006,-0.4164,-3,0,-0.3,0.005,0.006,-0.009,0
2018,5,17,22,41,45.726,0.8451,-0.3353,0.0007,-0.4161,-2.4,0,-0.3,0.008,0.002,-0.001,0
2018,5,17,22,41,45.761,0.8452,-0.3356,0.0007,-0.4158,-0.8,0,0,0.004,0.002,-0.003,0
2018,5,17,22,41,45.784,0.8452,-0.3359,0.0007,-0.4155,-0.7,0,0,0.004,0.011,-0.012,0
2018,5,17,22,41,45.788,0.8452,-0.3362,0.0006,-0.4153,-1.3,0.1,-0.3,0.003,0.007,-0.002,0
2018,5,17,22,41,45.807,0.8452,-0.3364,0.0005,-0.415,0,0,0,0.002,0.005,-0.008,0
2018,5,17,22,41,45.829,0.8453,-0.3366,0.0004,-0.4147,0,0,0,0.001,0.007,-0.009,0
2018,5,17,22,41,45.866,0.8453,-0.3368,0.0002,-0.4145,0,-0.5,0.2,0.002,0,-0.008,0
2018,5,17,22,41,45.888,0.8455,-0.3368,0.0002,-0.4142,0.7,-0.3,0,0.006,0.004,-0.008,0
2018,5,17,22,41,45.893,0.8455,-0.3369,0.0001,-0.414,0.6,0,0,0.007,0.014,-0.006,0
2018,5,17,22,41,45.907,0.8457,-0.3369,0,-0.4137,0,0,0,0.008,0.01,-0.002,1023
2018,5,17,22,41,45.926,0.8458,-0.3368,-0.0002,-0.4134,0.8,0,0,0.001,0.007,0,1023
2018,5,17,22,41,45.948,0.846,-0.3368,-0.0003,-0.4132,0.8,-0.2,-0.2,0.001,0.014,-0.012,1023
2018,5,17,22,41,45.966,0.846,-0.337,-0.0005,-0.413,-1.4,-0.2,0,0.003,0.012,-0.007,1023
2018,5,17,22,41,45.988,0.8459,-0.3374,-0.0005,-0.4128,-2.1,-0.2,0.3,0.004,0.006,-0.01,1023
2018,5,17,22,41,46.025,0.8459,-0.3377,-0.0004,-0.4126,-1,-0.1,0.1,0.007,0,0.001,1023
2018,5,17,22,41,46.048,0.8459,-0.3379,-0.0005,-0.4124,0.7,-0.1,0.1,0.001,0.003,-0.001,1023
2018,5,17,22,41,46.052,0.846,-0.338,-0.0007,-0.4123,0.7,0.4,0,0.002,0.01,-0.014,1023
2018,5,17,22,41,46.069,0.8459,-0.3382,-0.0009,-0.4121,0,0,0,0.001,0.009,-0.007,1023
2018,5,17,22,41,46.092,0.8458,-0.3386,-0.0011,-0.4121,0,0,0,0.005,0.009,0,1023
2018,5,17,22,41,46.11,0.8457,-0.3388,-0.0012,-0.4121,0,0,0,0,0.01,-0.006,1023
2018,5,17,22,41,46.133,0.8457,-0.339,-0.0013,-0.412,-0.6,-0.4,0,0.003,0.007,-0.009,1023
2018,5,17,22,41,46.152,0.8457,-0.3392,-0.0013,-0.4118,-0.5,-0.3,0.1,0.002,0.006,-0.005,1023
2018,5,17,22,41,46.17,0.8456,-0.3395,-0.0014,-0.4118,0,0,0,0.005,0.005,-0.002,1023
2018,5,17,22,41,46.193,0.8457,-0.3395,-0.0015,-0.4115,0.5,0,0.2,0.005,0.008,-0.008,1023
2018,5,17,22,41,46.211,0.8456,-0.3397,-0.0016,-0.4115,0,0,0,0.004,0.005,-0.006,1023
2018,5,17,22,41,46.229,0.8455,-0.3401,-0.0018,-0.4115,0.5,0.3,0.2,0.003,0.01,-0.005,0
2018,5,17,22,41,46.267,0.8454,-0.3403,-0.002,-0.4115,0,0,0,0.001,0.013,-0.009,0
2018,5,17,22,41,46.288,0.8454,-0.3405,-0.0021,-0.4114,-0.5,0,0.2,0.004,0.007,-0.007,0
2018,5,17,22,41,46.293,0.8453,-0.3409,-0.0022,-0.4113,0,0,0,0.003,0.006,-0.011,0
2018,5,17,22,41,46.31,0.8451,-0.3412,-0.0023,-0.4113,0,0,0,0.002,0.005,-0.006,0
2018,5,17,22,41,46.332,0.845,-0.3414,-0.0025,-0.4113,0,0,0,0.002,0.007,-0.003,0
2018,5,17,22,41,46.351,0.8449,-0.3417,-0.0026,-0.4113,0,0,0,0.004,0.005,-0.01,0
2018,5,17,22,41,46.374,0.8448,-0.342,-0.0027,-0.4113,0,0,0,0.001,0.004,-0.011,0
2018,5,17,22,41,46.393,0.845,-0.3419,-0.0029,-0.4111,1,-0.1,0.1,0.004,0.006,-0.003,0
2018,5,17,22,41,46.416,0.8451,-0.3417,-0.003,-0.4109,0.9,-0.5,0.2,0.004,0.012,-0.007,0
2018,5,17,22,41,46.432,0.8451,-0.3418,-0.0032,-0.4109,0,0,0,0.003,0.01,-0.007,0
2018,5,17,22,41,46.45,0.845,-0.3421,-0.0033,-0.4109,0,0,0,0.006,0.011,-0.003,0
2018,5,17,22,41,46.474,0.845,-0.3422,-0.0034,-0.4107,-0.8,0.3,-0.1,0.002,0.014,-0.002,0
2018,5,17,22,41,46.491,0.8451,-0.3423,-0.0035,-0.4104,-1.8,0,0,0.001,0.019,-0.004,0
2018,5,17,22,41,46.51,0.8451,-0.3426,-0.0035,-0.4102,-2.9,0,0,-0.001,0.009,-0.004,0
2018,5,17,22,41,46.533,0.845,-0.3431,-0.0034,-0.41,-2.2,0,-0.1,0.001,0,-0.002,0
2018,5,17,22,41,46.554,0.8451,-0.3433,-0.0033,-0.4097,-1,0,-0.3,0.003,0.006,-0.006,1023
2018,5,17,22,41,46.591,0.8451,-0.3435,-0.0033,-0.4094,-1.1,0,-0.3,0.006,0.007,-0.004,1023
2018,5,17,22,41,46.591,0.8452,-0.3437,-0.0033,-0.4092,-0.8,0,0,0.002,0,-0.005,1023
2018,5,17,22,41,46.615,0.8451,-0.344,-0.0033,-0.4091,0,0,0,0.001,0,-0.011,1023
2018,5,17,22,41,46.633,0.8451,-0.344,-0.0034,-0.4089,0.9,0,0.2,0.007,0.004,-0.008,1023
2018,5,17,22,41,46.656,0.8454,-0.3438,-0.0036,-0.4086,0.8,0,0,0.004,0.007,0,1023
2018,5,17,22,41,46.672,0.8454,-0.3437,-0.0038,-0.4085,1.2,0,0.3,0.003,0.012,-0.005,1023
2018,5,17,22,41,46.69,0.8456,-0.3436,-0.004,-0.4083,0.7,0.3,0.2,0,0.009,-0.007,1023
2018,5,17,22,41,46.712,0.8457,-0.3435,-0.0042,-0.4081,0.7,0.1,0,0.003,0.004,-0.008,1023
2018,5,17,22,41,46.733,0.8458,-0.3435,-0.0044,-0.408,0,0,0,0.004,0.015,-0.009,1023
2018,5,17,22,41,46.755,0.8457,-0.3437,-0.0045,-0.408,-0.7,-0.1,0,0.003,0.014,-0.007,1023
2018,5,17,22,41,46.772,0.8458,-0.3438,-0.0045,-0.4078,-1,-0.2,-0.2,-0.001,0.006,-0.004,1023
2018,5,17,22,41,46.795,0.8459,-0.3439,-0.0045,-0.4075,-0.6,0,-0.1,0.005,0.002,-0.012,1023
2018,5,17,22,41,46.832,0.8458,-0.3441,-0.0045,-0.4074,0,0,0,0.007,0.002,-0.01,1023
2018,5,17,22,41,46.856,0.8457,-0.3444,-0.0046,-0.4074,0,0,0,0.003,0.007,-0.004,1023
2018,5,17,22,41,46.86,0.8456,-0.3446,-0.0047,-0.4074,0,0,0,0.003,0.005,-0.003,1023
2018,5,17,22,41,46.878,0.8456,-0.3447,-0.0048,-0.4073,0.5,0,0,0.003,0.009,-0.006,1023
2018,5,17,22,41,46.897,0.8455,-0.3449,-0.005,-0.4073,0,0,0,0.006,0.009,-0.008,1023
2018,5,17,22,41,46.919,0.8455,-0.3452,-0.0051,-0.4073,0,0,0,0.003,0.005,-0.009,1023
2018,5,17,22,41,46.938,0.8454,-0.3454,-0.0051,-0.4073,0.6,0,0.2,0.004,0.005,0,0
2018,5,17,22,41,46.956,0.8454,-0.3454,-0.0053,-0.4072,1,0,0.2,0.004,0.005,-0.004,0
2018,5,17,22,41,46.979,0.8455,-0.3453,-0.0055,-0.4071,0.5,0.2,0,0.004,0.014,-0.008,0
2018,5,17,22,41,46.995,0.8454,-0.3455,-0.0056,-0.4071,0,0,0,0.001,0.011,-0.006,0
2018,5,17,22,41,47.016,0.8454,-0.3456,-0.0057,-0.407,-0.6,0.2,0.1,0.004,0.008,-0.007,0
2018,5,17,22,41,47.037,0.8455,-0.3456,-0.0058,-0.4068,0,0,0,0.003,0.006,-0.009,0
2018,5,17,22,41,47.055,0.8456,-0.3457,-0.0058,-0.4066,0,0,0,0.004,0.003,-0.005,0
2018,5,17,22,41,47.076,0.8455,-0.3459,-0.0059,-0.4066,0,0,0,0.002,0.004,-0.004,0
2018,5,17,22,41,47.115,0.8455,-0.346,-0.0061,-0.4064,0.5,0.5,0.1,0.003,0.006,-0.01,0
2018,5,17,22,41,47.138,0.8457,-0.3458,-0.0063,-0.4062,0.5,0.9,0.1,0.005,0.011,-0.011,0
2018,5,17,22,41,47.143,0.8458,-0.3458,-0.0066,-0.406,-0.1,1,0.1,0.004,0.011,-0.009,0
2018,5,17,22,41,47.159,0.846,-0.3457,-0.0067,-0.4056,-0.3,0.7,0,0.003,0.009,-0.005,0
2018,5,17,22,41,47.183,0.8461,-0.3458,-0.0069,-0.4054,0,0,0,0,0.009,-0.008,0
2018,5,17,22,41,47.196,0.8461,-0.3459,-0.007,-0.4053,-0.8,0.2,0,0.002,0.01,-0.01,1023
2018,5,17,22,41,47.232,0.8462,-0.346,-0.0071,-0.405,-1.3,0.2,0,0.004,0.008,-0.011,1023
2018,5,17,22,41,47.255,0.8461,-0.3464,-0.0071,-0.4049,-1.7,0.3,0.1,0.003,0.008,-0.008,1023
2018,5,17,22,41,47.26,0.8461,-0.3466,-0.0071,-0.4046,-1,0.3,0.3,0,0,-0.002,1023
2018,5,17,22,41,47.296,0.8462,-0.3467,-0.0072,-0.4044,0,0,0,0.001,0.001,-0.011,1023
2018,5,17,22,41,47.319,0.8461,-0.3469,-0.0073,-0.4044,0,0,0,0.002,0.002,-0.008,1023
2018,5,17,22,41,47.323,0.8463,-0.3468,-0.0075,-0.4042,1.2,0.2,0.2,0.003,0.006,-0.005,1023
2018,5,17,22,41,47.34,0.8465,-0.3465,-0.0077,-0.404,1.2,0.2,0.4,0.006,0.015,-0.011,1023
2018,5,17,22,41,47.36,0.8467,-0.3463,-0.0079,-0.4038,0.7,0.2,0.3,0.004,0.009,-0.008,1023
2018,5,17,22,41,47.378,0.8468,-0.3461,-0.0081,-0.4036,0.5,0.2,0.1,0,0.009,-0.009,1023
2018,5,17,22,41,47.401,0.8468,-0.3462,-0.0082,-0.4035,0,0,0,0.005,0.012,-0.011,1023
2018,5,17,22,41,47.438,0.8468,-0.3464,-0.0084,-0.4035,-0.6,0,0,0.003,0.012,-0.007,1023
2018,5,17,22,41,47.461,0.8468,-0.3465,-0.0084,-0.4033,-0.6,0,-0.1,0.003,0.006,-0.009,1023
2018,5,17,22,41,47.465,0.8468,-0.3467,-0.0084,-0.4031,-1,0,0,0,0.004,-0.012,1023
2018,5,17,22,41,47.481,0.8469,-0.3468,-0.0084,-0.4029,-0.5,0,0,0.005,0.002,-0.009,1023
2018,5,17,22,41,47.505,0.8469,-0.347,-0.0084,-0.4028,0,0,0,0.002,0.004,-0.006,1023
2018,5,17,22,41,47.521,0.8468,-0.3472,-0.0085,-0.4028,0,0,0,0.005,0.011,-0.005,1023
2018,5,17,22,41,47.538,0.8467,-0.3473,-0.0086,-0.4028,0,0,0,0.001,0.007,-0.003,0
2018,5,17,22,41,47.56,0.8466,-0.3476,-0.0087,-0.4028,0,0,0,0.002,0.004,-0.006,0
2018,5,17,22,41,47.599,0.8465,-0.3478,-0.0088,-0.4028,0,0,0,0.001,0.005,-0.007,0
2018,5,17,22,41,47.622,0.8464,-0.348,-0.0089,-0.4028,0,0,0,0.003,0.011,-0.004,0
2018,5,17,22,41,47.627,0.8464,-0.3481,-0.009,-0.4028,0,0,0,0.003,0.011,-0.002,0
2018,5,17,22,41,47.642,0.8463,-0.3483,-0.0091,-0.4028,0,0,0,0.001,0.003,-0.006,0
2018,5,17,22,41,47.665,0.8462,-0.3485,-0.0092,-0.4028,0,0,0,0,0.005,-0.007,0
2018,5,17,22,41,47.683,0.8461,-0.3487,-0.0093,-0.4028,0,0,0,0.004,0.007,-0.006,0
2018,5,17,22,41,47.706,0.8461,-0.3488,-0.0094,-0.4027,-0.6,0,0,0,0.011,-0.007,0
2018,5,17,22,41,47.723,0.8462,-0.3489,-0.0094,-0.4026,-1.4,0,0,0.004,0.007,-0.008,0
2018,5,17,22,41,47.746,0.8462,-0.349,-0.0093,-0.4023,-1.2,0,0.1,0.004,0.002,-0.004,0
2018,5,17,22,41,47.763,0.8463,-0.3491,-0.0093,-0.4021,-0.5,0,0,0,0.002,-0.012,0
2018,5,17,22,41,47.781,0.8462,-0.3492,-0.0093,-0.4021,-0.6,0,0,0.005,0.006,-0.004,0
2018,5,17,22,41,47.803,0.8463,-0.3493,-0.0094,-0.4018,-0.7,0,0,0.004,0.008,-0.007,0
2018,5,17,22,41,47.822,0.8465,-0.3492,-0.0094,-0.4015,-0.6,0,0,0.004,0.003,-0.004,0
2018,5,17,22,41,47.844,0.8465,-0.3493,-0.0094,-0.4014,0,0,0,0.001,0.002,-0.006,1023
2018,5,17,22,41,47.881,0.8465,-0.3495,-0.0095,-0.4014,-0.6,0.2,-0.3,0.001,0.011,-0.012,1023
2018,5,17,22,41,47.901,0.8466,-0.3496,-0.0096,-0.4011,-1.4,0.3,-0.1,0.003,0.015,-0.004,1023
2018,5,17,22,41,47.905,0.8465,-0.3499,-0.0095,-0.401,-2.1,0.2,0,0,0.008,-0.004,1023
2018,5,17,22,41,47.942,0.8465,-0.3501,-0.0095,-0.4008,-1.8,-0.2,0,0.002,0.007,-0.005,1023
2018,5,17,22,41,47.963,0.8465,-0.3503,-0.0094,-0.4006,-1.6,-0.3,0.1,0.001,0.003,-0.012,1023
2018,5,17,22,41,47.966,0.8465,-0.3505,-0.0093,-0.4004,-1.1,0,0.1,0.005,0.001,-0.005,1023
2018,5,17,22,41,48.003,0.8466,-0.3506,-0.0093,-0.4002,0,0,0,0.008,0.003,-0.007,1023
2018,5,17,22,41,48.024,0.8465,-0.3507,-0.0094,-0.4002,0,0,0,0.002,0.008,-0.001,1023
2018,5,17,22,41,48.026,0.8466,-0.3507,-0.0095,-0.4,0,0,0,0,0.007,-0.014,1023
2018,5,17,22,41,48.062,0.8466,-0.3508,-0.0096,-0.3999,-0.7,0,0,0,0.01,-0.012,1023
2018,5,17,22,41,48.062,0.8466,-0.351,-0.0096,-0.3997,-0.9,-0.2,-0.1,0.002,0.007,-0.005,1023
2018,5,17,22,41,48.085,0.8467,-0.351,-0.0096,-0.3995,-1.4,-0.1,0,0.003,0.009,-0.008,1023
2018,5,17,22,41,48.103,0.8467,-0.3512,-0.0095,-0.3994,-1.6,0,0.1,0.006,0.005,-0.005,1023
2018,5,17,22,41,48.124,0.8467,-0.3514,-0.0094,-0.3992,-1,0,0,0.001,0.006,-0.01,1023
2018,5,17,22,41,48.163,0.8468,-0.3515,-0.0094,-0.399,-0.5,0,0.1,0.003,0.003,-0.009,1023
2018,5,17,22,41,48.183,0.8467,-0.3516,-0.0095,-0.399,0,0,0,0.001,0.005,-0.006,1023
2018,5,17,22,41,48.186,0.8466,-0.3519,-0.0096,-0.399,0,0,0,0.001,0.006,-0.007,1023
2018,5,17,22,41,48.223,0.8466,-0.352,-0.0097,-0.3989,-0.5,0,0,0,0.004,-0.01,0
2018,5,17,22,41,48.244,0.8466,-0.3522,-0.0097,-0.3988,-0.5,0,0,0.002,0.005,-0.009,0
2018,5,17,22,41,48.248,0.8465,-0.3523,-0.0098,-0.3987,0,0,0,0.003,0.003,-0.007,0
2018,5,17,22,41,48.286,0.8465,-0.3524,-0.0098,-0.3987,0,0,0,0.005,0.008,-0.01,0
2018,5,17,22,41,48.286,0.8465,-0.3526,-0.0099,-0.3987,-0.1,0.5,0,0.001,0.009,-0.005,0
2018,5,17,22,41,48.306,0.8465,-0.3527,-0.01,-0.3986,0,0.5,0,0.003,0.003,-0.007,0
2018,5,17,22,41,48.344,0.8464,-0.3528,-0.0101,-0.3985,0,0,0,0.002,0.003,-0.011,0
2018,5,17,22,41,48.364,0.8464,-0.353,-0.0102,-0.3985,0,0,0,0.001,0.007,-0.01,0
2018,5,17,22,41,48.368,0.8463,-0.3531,-0.0103,-0.3984,-0.9,0,0.1,0.004,0.007,-0.01,0
2018,5,17,22,41,48.403,0.8464,-0.3532,-0.0103,-0.3982,-0.8,0,0.2,0.002,0.002,-0.009,0
2018,5,17,22,41,48.426,0.8464,-0.3534,-0.0103,-0.3982,0,0,0,0.003,0.005,-0.008,0
2018,5,17,22,41,48.431,0.8463,-0.3535,-0.0104,-0.3982,0,0,0,0.004,0.003,-0.004,0
2018,5,17,22,41,48.447,0.8462,-0.3537,-0.0104,-0.3982,0,0,0,0.003,0.006,-0.006,0
2018,5,17,22,41,48.47,0.8462,-0.3538,-0.0105,-0.3982,0,0,0,0,0.006,-0.006,0
2018,5,17,22,41,48.492,0.8461,-0.354,-0.0106,-0.3982,0,0,0,0.004,0.008,-0.012,1023
2018,5,17,22,41,48.529,0.8462,-0.354,-0.0106,-0.3979,-0.6,0,0,0.001,0.005,-0.011,1023
2018,5,17,22,41,48.529,0.8463,-0.354,-0.0107,-0.3977,-1,0.1,0,0,0.011,-0.009,1023
2018,5,17,22,41,48.553,0.8464,-0.3541,-0.0107,-0.3975,-0.8,0.2,0,0.004,0.003,-0.005,1023
2018,5,17,22,41,48.571,0.8463,-0.3543,-0.0107,-0.3974,-0.8,0.3,0,0.003,0.006,-0.011,1023
2018,5,17,22,41,48.587,0.8464,-0.3544,-0.0107,-0.3971,-1,0.2,0,0.004,0.001,-0.01,1023
2018,5,17,22,41,48.61,0.8465,-0.3545,-0.0108,-0.397,0,0,0,0.002,0,-0.008,1023
2018,5,17,22,41,48.646,0.8465,-0.3545,-0.0108,-0.3969,0.8,0,0.2,0.003,0.004,-0.009,1023
2018,5,17,22,41,48.669,0.8466,-0.3543,-0.011,-0.3968,1,0.1,0.2,0,0.007,-0.009,1023
2018,5,17,22,41,48.673,0.8467,-0.3542,-0.0112,-0.3966,0.5,0.3,0,0.001,0.006,-0.012,1023
2018,5,17,22,41,48.692,0.8467,-0.3543,-0.0113,-0.3966,0,0,0,0.001,0.01,-0.01,1023
2018,5,17,22,41,48.728,0.8466,-0.3545,-0.0114,-0.3966,0,0,0,0.003,0.006,-0.013,1023
2018,5,17,22,41,48.751,0.8466,-0.3546,-0.0114,-0.3966,-0.5,0,0.1,0.005,0.008,-0.008,1023
2018,5,17,22,41,48.756,0.8466,-0.3547,-0.0114,-0.3965,0,0,0,0.002,0.005,-0.006,1023
2018,5,17,22,41,48.772,0.8465,-0.3548,-0.0115,-0.3964,-0.5,0,-0.1,0.002,0.007,-0.012,1023
2018,5,17,22,41,48.795,0.8467,-0.3548,-0.0115,-0.3962,-0.8,0.2,0,0.002,0.009,-0.007,1023
2018,5,17,22,41,48.831,0.8467,-0.3549,-0.0115,-0.396,-0.8,0.2,-0.2,0.003,0.004,-0.008,1023
2018,5,17,22,41,48.851,0.8468,-0.355,-0.0116,-0.3958,-0.6,0.3,-0.1,0,0.004,-0.007,0
2018,5,17,22,41,48.857,0.8468,-0.3551,-0.0116,-0.3956,-1.1,0.2,0,0,0.007,-0.012,0
2018,5,17,22,41,48.872,0.8468,-0.3553,-0.0116,-0.3955,-0.8,0,0.1,0,0.007,-0.005,0
2018,5,17,22,41,48.89,0.8468,-0.3553,-0.0116,-0.3954,-1.1,-0.3,0.2,0.007,0.004,-0.009,0
2018,5,17,22,41,48.914,0.8469,-0.3555,-0.0115,-0.3952,-1.1,0,0,0.005,0,-0.003,0
2018,5,17,22,41,48.931,0.847,-0.3555,-0.0115,-0.395,0,0,0,0.002,0.003,0.001,0
2018,5,17,22,41,48.952,0.8469,-0.3556,-0.0116,-0.395,0,0,0,0.003,0.01,-0.008,0
2018,5,17,22,41,48.973,0.8469,-0.3556,-0.0117,-0.3949,-1.1,0,-0.2,0.001,0.015,-0.011,0
2018,5,17,22,41,48.996,0.8469,-0.3559,-0.0117,-0.3947,-1.7,0,-0.1,-0.001,0.003,-0.009,0
2018,5,17,22,41,49.032,0.8468,-0.3562,-0.0116,-0.3946,-1.1,-0.2,0,0,0.004,-0.008,0
2018,5,17,22,41,49.052,0.8468,-0.3564,-0.0116,-0.3945,-1.3,-0.3,-0.1,0,0.002,-0.009,0
2018,5,17,22,41,49.058,0.8467,-0.3566,-0.0115,-0.3944,-1.2,-0.1,0,0.001,0.005,-0.01,0
2018,5,17,22,41,49.072,0.8468,-0.3567,-0.0114,-0.3942,-1.1,0,0,0,-0.002,-0.008,0
2018,5,17,22,41,49.091,0.8467,-0.3569,-0.0114,-0.3941,-0.7,-0.1,0.1,0.003,0.001,-0.008,0
2018,5,17,22,41,49.113,0.8467,-0.3571,-0.0114,-0.3941,0,0,0,0.006,0.005,-0.009,0
2018,5,17,22,41,49.151,0.8467,-0.3572,-0.0115,-0.3941,0,0,0,0.002,0.008,-0.007,0
2018,5,17,22,41,49.171,0.8467,-0.3573,-0.0115,-0.394,-0.6,0,-0.1,0,0.007,-0.009,0
2018,5,17,22,41,49.176,0.8467,-0.3573,-0.0115,-0.3938,-0.6,0,0,0.003,0.007,-0.005,1023
2018,5,17,22,41,49.194,0.8468,-0.3573,-0.0115,-0.3936,-0.5,0,-0.1,0.007,0.005,-0.006,1023
2018,5,17,22,41,49.216,0.8468,-0.3574,-0.0116,-0.3935,0,0,0,0.002,0.004,-0.012,1023
2018,5,17,22,41,49.234,0.8467,-0.3576,-0.0116,-0.3935,0,0,0,0,0.005,-0.012,1023
2018,5,17,22,41,49.257,0.8467,-0.3577,-0.0116,-0.3935,0,0,0,0.005,0,-0.01,1023
2018,5,17,22,41,49.276,0.8467,-0.3578,-0.0117,-0.3934,0.5,-0.3,0,0.004,0.003,-0.007,1023
2018,5,17,22,41,49.299,0.8468,-0.3577,-0.0117,-0.3933,0.7,0.1,0,0.002,0.008,-0.008,1023
2018,5,17,22,41,49.316,0.8469,-0.3576,-0.0118,-0.3932,0.5,0,0.2,0.001,0.007,-0.008,1023
2018,5,17,22,41,49.333,0.8468,-0.3578,-0.0119,-0.3932,0,0,0,0.002,0.005,-0.01,1023
2018,5,17,22,41,49.356,0.8468,-0.3579,-0.012,-0.3932,0,0,0,0.001,0.007,-0.008,1023
2018,5,17,22,41,49.375,0.8467,-0.358,-0.0121,-0.3932,0,0,0,0.003,0.009,-0.006,1023
2018,5,17,22,41,49.398,0.8468,-0.358,-0.0121,-0.393,-0.5,-0.2,0,0.004,0.006,-0.012,1023
2018,5,17,22,41,49.415,0.8467,-0.3582,-0.012,-0.393,-0.5,-0.1,0,0.003,0.003,-0.006,1023
2018,5,17,22,41,49.437,0.8467,-0.3582,-0.0121,-0.3929,0,0,0,0.005,0.002,-0.014,1023
2018,5,17,22,41,49.455,0.8467,-0.3584,-0.0121,-0.3929,0,0,0,0.004,0.009,-0.006,1023
2018,5,17,22,41,49.478,0.8466,-0.3585,-0.0122,-0.3929,0,0,0,0.001,0.002,-0.009,1023
2018,5,17,22,41,49.497,0.8466,-0.3586,-0.0122,-0.3929,0,0,0,0.001,0.003,-0.005,1023
2018,5,17,22,41,49.52,0.8465,-0.3587,-0.0123,-0.3929,0,0,0,0.004,0.008,-0.009,0
2018,5,17,22,41,49.537,0.8465,-0.3588,-0.0123,-0.3928,-0.5,-0.3,0,0.004,0.007,-0.008,0
2018,5,17,22,41,49.56,0.8467,-0.3587,-0.0122,-0.3926,-0.5,-0.1,0,0.005,0.006,-0.009,0
2018,5,17,22,41,49.578,0.8467,-0.3588,-0.0123,-0.3926,0,0,0,0.005,0.007,-0.01,0
2018,5,17,22,41,49.601,0.8466,-0.3589,-0.0123,-0.3926,0,0,0,0.004,0.006,-0.006,0
2018,5,17,22,41,49.617,0.8466,-0.359,-0.0124,-0.3926,0,0,0,0.001,0.004,-0.013,0
2018,5,17,22,41,49.635,0.8465,-0.3592,-0.0124,-0.3926,0,0,0,0.002,0.009,-0.005,0
2018,5,17,22,41,49.658,0.8465,-0.3593,-0.0125,-0.3926,0,0,0,0.004,0.004,-0.01,0
2018,5,17,22,41,49.676,0.8464,-0.3594,-0.0125,-0.3926,0,0,0,0,0.005,-0.008,0
2018,5,17,22,41,49.699,0.8464,-0.3595,-0.0126,-0.3926,0,0,0,0.003,0.004,-0.007,0
2018,5,17,22,41,49.717,0.8463,-0.3596,-0.0126,-0.3925,0,0,0,0.004,0.003,-0.008,0
2018,5,17,22,41,49.74,0.8463,-0.3597,-0.0126,-0.3925,0,0,0,0.003,0.006,-0.001,0
2018,5,17,22,41,49.777,0.8462,-0.3598,-0.0127,-0.3925,0,0,0,0.001,0.006,-0.011,0
2018,5,17,22,41,49.819,0.8462,-0.36,-0.0127,-0.3926,-0.6,-0.2,0,0.001,0.007,-0.007,0
2018,5,17,22,41,49.821,0.8461,-0.3601,-0.0126,-0.3925,0,0,0,0.004,0.003,-0.008,0
2018,5,17,22,41,49.824,0.8461,-0.3602,-0.0127,-0.3925,0,0,0,0.004,0.01,-0.009,0
2018,5,17,22,41,49.837,0.8461,-0.3603,-0.0127,-0.3925,0,0,0,0.004,0.012,-0.005,0
2018,5,17,22,41,49.873,0.8461,-0.3604,-0.0127,-0.3924,-1.6,0.1,0,0.003,0.007,-0.007,0
2018,5,17,22,41,49.894,0.8462,-0.3604,-0.0126,-0.3921,-1.5,0,-0.2,0.005,0.003,-0.009,0
2018,5,17,22,41,49.897,0.8463,-0.3605,-0.0125,-0.3919,-0.9,-0.2,0,0,0.001,-0.005,0
2018,5,17,22,41,49.934,0.8464,-0.3605,-0.0125,-0.3917,0,0,0,0.003,0.002,-0.009,0
2018,5,17,22,41,49.954,0.8463,-0.3606,-0.0125,-0.3917,0,0,0,0.008,0.004,-0.01,1023
2018,5,17,22,41,49.961,0.8463,-0.3607,-0.0125,-0.3916,0.7,0,0.2,0.004,0.002,-0.011,1023
2018,5,17,22,41,49.997,0.8465,-0.3604,-0.0126,-0.3914,1.4,0,0,0.007,0.003,-0.01,1023
2018,5,17,22,41,50.019,0.8467,-0.3601,-0.0128,-0.3912,1.3,0.2,0.1,0.003,0.008,-0.005,1023
2018,5,17,22,41,50.022,0.8469,-0.3599,-0.013,-0.3911,1.1,0,0,0.001,0.008,-0.011,1023
2018,5,17,22,41,50.059,0.8469,-0.3598,-0.0131,-0.391,0,0,0,0.003,0.01,-0.009,1023
2018,5,17,22,41,50.081,0.8469,-0.3599,-0.0131,-0.391,0,0,0,0.007,0.008,-0.007,1023
2018,5,17,22,41,50.086,0.8469,-0.36,-0.0132,-0.391,0,0,0,0.003,0.009,-0.01,1023
2018,5,17,22,41,50.102,0.8469,-0.3601,-0.0132,-0.391,0,0,0,0.006,0.005,-0.007,1023
2018,5,17,22,41,50.121,0.8469,-0.3601,-0.0132,-0.3908,0,0,0,0.002,0.006,-0.012,1023
2018,5,17,22,41,50.142,0.8469,-0.3602,-0.0132,-0.3908,0,0,0,0.001,0.006,-0.009,1023
2018,5,17,22,41,50.16,0.8468,-0.3603,-0.0133,-0.3908,0,0,0,0.002,0.005,-0.008,1023
2018,5,17,22,41,50.183,0.8468,-0.3604,-0.0133,-0.3908,-0.6,0,0,0.003,0.007,-0.01,1023
2018,5,17,22,41,50.203,0.8469,-0.3604,-0.0133,-0.3906,-0.6,0,0,0,0.002,-0.006,1023
2018,5,17,22,41,50.222,0.8469,-0.3604,-0.0132,-0.3905,0,0,0,0.004,0.001,-0.006,1023
2018,5,17,22,41,50.245,0.8469,-0.3605,-0.0133,-0.3905,0,0,0,0.004,0.007,-0.009,1023
2018,5,17,22,41,50.263,0.8468,-0.3606,-0.0133,-0.3905,0,0,0,0.006,0.005,-0.003,1023
2018,5,17,22,41,50.286,0.8468,-0.3607,-0.0133,-0.3905,0,0,0,0.003,0.007,-0.012,1023
2018,5,17,22,41,50.305,0.8468,-0.3608,-0.0134,-0.3905,0,0,0,0.004,0.006,-0.012,1023
2018,5,17,22,41,50.328,0.8467,-0.3609,-0.0134,-0.3904,0,0,0,0.002,0.003,-0.007,0
2018,5,17,22,41,50.344,0.8467,-0.361,-0.0134,-0.3904,0,0,0,0,0.004,-0.01,0
2018,5,17,22,41,50.367,0.8467,-0.3611,-0.0134,-0.3904,0,0,0,0.002,0.009,-0.008,0
2018,5,17,22,41,50.383,0.8466,-0.3612,-0.0135,-0.3904,0,0,0,0.003,0.001,-0.005,0
2018,5,17,22,41,50.405,0.8466,-0.3613,-0.0135,-0.3904,0,0,0,0.005,0.003,-0.008,0
2018,5,17,22,41,50.422,0.8466,-0.3612,-0.0135,-0.3903,0.5,0,0.1,0.006,0.007,-0.008,0
2018,5,17,22,41,50.445,0.8466,-0.3613,-0.0136,-0.3903,0,0,0,0.004,0.007,-0.004,0
2018,5,17,22,41,50.482,0.8466,-0.3613,-0.0136,-0.3903,0,0,0,0.002,0.009,-0.007,0
2018,5,17,22,41,50.505,0.8466,-0.3614,-0.0136,-0.3903,0,0,0,0.003,0.007,-0.012,0
2018,5,17,22,41,50.51,0.8466,-0.3615,-0.0137,-0.3903,0,0,0,0.005,0.005,-0.003,0
2018,5,17,22,41,50.525,0.8466,-0.3615,-0.0137,-0.3902,-0.5,0,0,0,0.006,-0.007,0
2018,5,17,22,41,50.548,0.8466,-0.3616,-0.0137,-0.3901,-0.6,-0.1,0,0.005,0.007,-0.005,0
2018,5,17,22,41,50.583,0.8466,-0.3616,-0.0137,-0.39,0,0,0,0.004,0.004,-0.009,0
2018,5,17,22,41,50.583,0.8466,-0.3617,-0.0137,-0.39,0,0,0,0.006,0.005,-0.009,0
2018,5,17,22,41,50.607,0.8466,-0.3618,-0.0137,-0.39,0,0,0,0.003,0.006,-0.005,0
2018,5,17,22,41,50.624,0.8466,-0.3618,-0.0137,-0.3898,-1.1,0.3,-0.1,0.002,0.011,-0.013,0
2018,5,17,22,41,50.647,0.8467,-0.3619,-0.0137,-0.3896,-1.6,0.3,0,0.006,0.005,-0.002,0
2018,5,17,22,41,50.663,0.8469,-0.3618,-0.0137,-0.3893,-1.1,0,0,0.001,0.003,-0.009,1023
2018,5,17,22,41,50.686,0.8469,-0.3619,-0.0137,-0.3891,-0.6,0,0.2,0.002,0.003,-0.012,1023
2018,5,17,22,41,50.704,0.847,-0.3619,-0.0137,-0.389,0,0,0,0.003,0.001,-0.009,1023
2018,5,17,22,41,50.727,0.8469,-0.362,-0.0137,-0.389,0,0,0,0.003,0.004,-0.008,1023
2018,5,17,22,41,50.765,0.8469,-0.3621,-0.0137,-0.389,0,0,0,0.004,0.005,-0.005,1023
