ax,ay,az,dpitch,droll,dyaw,heart,time_1,time_2,time_3,time_4,time_5,time_6,w,x,y,z
-0.077,-0.006,-0.14,-21.3,-49.9,-14.6,1023,2018,5,10,16,11,9.219,0.675,-0.4265,0.199,0.5681
-0.086,-0.002,-0.194,-20.5,-39.5,-11,1023,2018,5,10,16,11,9.24,0.6696,-0.4339,0.1982,0.5692
-0.089,-0.003,-0.18,-15.1,-28.3,-6.4,1023,2018,5,10,16,11,9.25,0.6654,-0.4396,0.198,0.5697
-0.126,-0.022,-0.153,-8.5,-4.4,1.7,0,2018,5,10,16,11,9.29,0.6635,-0.4427,0.1979,0.5697
-0.134,0.008,-0.225,0.2,18.5,9.1,0,2018,5,10,16,11,9.31,0.6645,-0.4425,0.1991,0.5681
-0.107,0.004,-0.217,5.1,28.9,14.1,0,2018,5,10,16,11,9.314,0.6677,-0.4398,0.2003,0.566
-0.054,-0.035,-0.129,5.9,40.4,18.2,0,2018,5,10,16,11,9.332,0.6722,-0.436,0.202,0.5631
-0.066,-0.065,-0.042,5.3,45.5,18.3,0,2018,5,10,16,11,9.352,0.6776,-0.4318,0.2042,0.559
-0.061,-0.072,0.029,3.6,37.7,15.8,0,2018,5,10,16,11,9.372,0.6831,-0.427,0.2057,0.5555
-0.048,-0.016,0.023,1.4,16.3,10.6,0,2018,5,10,16,11,9.41,0.6868,-0.4239,0.2065,0.5529
-0.001,0.019,-0.039,0.9,0,7.1,0,2018,5,10,16,11,9.429,0.6883,-0.4232,0.2063,0.5517
0.003,-0.051,-0.055,1.4,3.9,5.7,0,2018,5,10,16,11,9.433,0.6889,-0.4237,0.206,0.5507
-0.023,-0.148,-0.018,-0.4,31.3,6.9,0,2018,5,10,16,11,9.451,0.6909,-0.4225,0.2068,0.5488
-0.027,-0.123,0.008,-4.1,58.5,7.8,0,2018,5,10,16,11,9.486,0.695,-0.4176,0.2112,0.5458
0.017,-0.02,0.011,-7,66.1,8.3,0,2018,5,10,16,11,9.507,0.7004,-0.4109,0.2169,0.5416
0.026,0.001,-0.067,-4.3,63.8,8.5,0,2018,5,10,16,11,9.512,0.7055,-0.4042,0.2237,0.5373
0.059,-0.074,-0.068,-2.3,74.4,8.4,0,2018,5,10,16,11,9.532,0.7107,-0.3972,0.2303,0.5329
0.045,-0.084,0.004,-2.7,92.3,6.1,0,2018,5,10,16,11,9.552,0.717,-0.388,0.2376,0.528
0.03,-0.008,0.03,-4.7,102.6,4.2,0,2018,5,10,16,11,9.591,0.7239,-0.3763,0.2466,0.5228
0.023,0.024,-0.002,-5.6,105.5,2.7,0,2018,5,10,16,11,9.613,0.7308,-0.3635,0.2569,0.5173
0.024,0.094,-0.023,-2.4,96.9,1.2,0,2018,5,10,16,11,9.617,0.737,-0.3506,0.2671,0.5123
0.032,0.05,-0.015,-3.4,91.7,0.7,0,2018,5,10,16,11,9.635,0.7423,-0.3385,0.2764,0.5077
-0.009,0.082,0.007,-3.9,90.8,1.9,0,2018,5,10,16,11,9.655,0.7475,-0.3266,0.2855,0.5029
-0.003,0.145,0.034,-5.6,79.4,8.8,0,2018,5,10,16,11,9.673,0.7525,-0.3157,0.2937,0.4977
-0.011,0.152,0.042,-6.7,64.8,15.6,0,2018,5,10,16,11,9.693,0.7571,-0.3075,0.3,0.4919
-0.021,0.062,0.014,-8.2,58.7,18.8,0,2018,5,10,16,11,9.731,0.7615,-0.3007,0.3054,0.4861
-0.013,0.012,-0.057,-7.5,59.4,18.6,1023,2018,5,10,16,11,9.75,0.7658,-0.2943,0.3107,0.4799
0.008,-0.012,-0.086,-6.2,52.8,17.5,1023,2018,5,10,16,11,9.754,0.7696,-0.2885,0.3159,0.4737
-0.008,0.009,-0.047,-4.3,37.3,16.4,1023,2018,5,10,16,11,9.773,0.7729,-0.2842,0.32,0.4683
-0.056,-0.007,0.013,-5.5,21.6,17.7,1023,2018,5,10,16,11,9.793,0.7755,-0.2815,0.3221,0.4641
-0.07,-0.006,0.013,-6,15.9,19.1,1023,2018,5,10,16,11,9.834,0.7779,-0.2804,0.3229,0.4602
-0.065,0.018,-0.022,-2.7,15.2,21.1,1023,2018,5,10,16,11,9.852,0.7802,-0.2795,0.3236,0.4563
-0.076,0.068,-0.034,2.9,15.9,25.8,1023,2018,5,10,16,11,9.857,0.7829,-0.2782,0.3236,0.4524
-0.06,0.107,-0.032,9.8,13.2,33.5,1023,2018,5,10,16,11,9.876,0.7864,-0.2765,0.3228,0.448
-0.042,0.137,-0.019,14,1.2,43.3,0,2018,5,10,16,11,9.897,0.7905,-0.2762,0.3202,0.4429
-0.056,0.092,-0.014,16.2,-15.5,52,0,2018,5,10,16,11,9.917,0.7946,-0.278,0.3155,0.4377
-0.059,0.031,-0.056,20.3,-31.7,59.2,0,2018,5,10,16,11,9.937,0.7987,-0.2825,0.3085,0.4323
-0.071,0.036,-0.042,24.8,-51,67.9,0,2018,5,10,16,11,9.956,0.8027,-0.2899,0.2991,0.4266
0.005,0.002,-0.032,24.1,-62.4,76.6,0,2018,5,10,16,11,9.974,0.8063,-0.2997,0.2877,0.4207
0.008,-0.085,0.004,20.1,-59.1,78.3,0,2018,5,10,16,11,9.995,0.8099,-0.3113,0.2759,0.4134
0.051,-0.128,0.058,16.2,-39.2,76.6,0,2018,5,10,16,11,10.035,0.8137,-0.3212,0.2652,0.4052
0.067,-0.144,0.105,10.1,-18.9,68.3,0,2018,5,10,16,11,10.053,0.818,-0.3281,0.2566,0.3964
0.136,0.001,0.129,5,-20.2,58,0,2018,5,10,16,11,10.057,0.8219,-0.3327,0.2509,0.3882
0.15,0.014,0.089,1.4,-59.1,42.4,0,2018,5,10,16,11,10.079,0.823,-0.3398,0.2456,0.3829
0.131,0.015,0.075,-3.2,-101.5,30.1,0,2018,5,10,16,11,10.098,0.8202,-0.3531,0.2387,0.3814
0.099,-0.132,0.154,-6.8,-97.7,18.5,0,2018,5,10,16,11,10.118,0.8151,-0.3692,0.2312,0.3817
0.139,-0.106,0.175,-13.1,-66.8,5.6,0,2018,5,10,16,11,10.137,0.8103,-0.3819,0.226,0.3824
0.137,0.011,0.136,-19.7,-43.9,-4.3,0,2018,5,10,16,11,10.155,0.8062,-0.3902,0.225,0.3835
0.103,0.121,0.08,-21.4,-42.7,-8.1,0,2018,5,10,16,11,10.174,0.802,-0.3966,0.226,0.3849
0.06,0.129,0.01,-22.7,-52.3,-8.2,0,2018,5,10,16,11,10.212,0.7972,-0.4048,0.2267,0.3861
0.016,0.155,-0.003,-24.9,-58.6,-5.5,0,2018,5,10,16,11,10.231,0.7918,-0.414,0.2269,0.3874
-0.023,0.075,-0.041,-28.5,-51.4,-1.3,0,2018,5,10,16,11,10.235,0.7862,-0.4235,0.2275,0.3881
-0.025,-0.01,-0.088,-31.5,-18.3,4.3,0,2018,5,10,16,11,10.275,0.7824,-0.4307,0.2295,0.3868
-0.052,0.001,-0.058,-34.1,16.4,10.9,0,2018,5,10,16,11,10.295,0.7815,-0.4335,0.2333,0.383
-0.069,0.01,-0.066,-34,48.9,17.2,0,2018,5,10,16,11,10.3,0.7837,-0.4318,0.239,0.3768
-0.036,0.048,-0.054,-35.8,68,20.4,0,2018,5,10,16,11,10.321,0.788,-0.4268,0.2463,0.3688
0.016,0.049,-0.057,-36.3,65.2,23.3,0,2018,5,10,16,11,10.341,0.7928,-0.4205,0.2542,0.3603
0.021,0.026,-0.006,-36.5,52.5,24.7,1023,2018,5,10,16,11,10.361,0.7968,-0.4156,0.2616,0.3517
0.015,0.049,0.075,-38.3,36.7,25.4,1023,2018,5,10,16,11,10.381,0.8,-0.4123,0.2679,0.3437
0.042,-0.01,0.06,-37.3,26.2,26,1023,2018,5,10,16,11,10.397,0.8021,-0.411,0.2733,0.3358
0.075,-0.009,-0.017,-28.5,20.4,24.7,1023,2018,5,10,16,11,10.434,0.8036,-0.4108,0.2777,0.329
0.081,0.001,-0.016,-18.2,22.1,22.7,1023,2018,5,10,16,11,10.455,0.805,-0.4107,0.2811,0.3227
0.088,0,0.06,-5.4,12.5,16.6,1023,2018,5,10,16,11,10.459,0.8068,-0.4095,0.2828,0.3182
0.117,-0.046,0.101,5.3,-8.8,7.7,1023,2018,5,10,16,11,10.479,0.8077,-0.4093,0.2821,0.3168
0.105,-0.123,0.084,14.5,-21,-0.2,1023,2018,5,10,16,11,10.5,0.8073,-0.4112,0.2795,0.3176
0.054,-0.125,0.051,21.1,-18.6,-8.5,1023,2018,5,10,16,11,10.521,0.8065,-0.4132,0.2758,0.3203
0.028,-0.098,0.024,25.1,-11.9,-18.1,0,2018,5,10,16,11,10.539,0.8059,-0.4136,0.2722,0.3243
0.06,-0.045,-0.023,26.8,-14.9,-24.3,0,2018,5,10,16,11,10.578,0.8049,-0.4134,0.2694,0.3294
0.059,0,-0.045,27.5,-32.2,-29.6,0,2018,5,10,16,11,10.598,0.8027,-0.414,0.2666,0.3363
0.022,0.011,-0.049,24.7,-54.4,-34.1,0,2018,5,10,16,11,10.602,0.7986,-0.4171,0.2631,0.3448
0,0.034,-0.081,22.6,-74.6,-37.3,0,2018,5,10,16,11,10.641,0.7925,-0.4232,0.2588,0.3545
0.092,-0.034,-0.067,17.5,-80.8,-41.3,0,2018,5,10,16,11,10.645,0.7845,-0.4316,0.2546,0.365
0.035,-0.124,-0.016,9.8,-57.2,-45.2,0,2018,5,10,16,11,10.661,0.7766,-0.4393,0.2518,0.3745
-0.032,-0.06,-0.027,2.2,-16.6,-46.1,0,2018,5,10,16,11,10.679,0.771,-0.4425,0.2518,0.3823
-0.069,-0.005,-0.038,-5.5,23,-46.2,0,2018,5,10,16,11,10.699,0.7683,-0.4405,0.2557,0.3875
-0.043,0.015,-0.034,-12.3,53.7,-44.5,0,2018,5,10,16,11,10.734,0.7679,-0.4338,0.2633,0.3906
-0.051,0.092,-0.023,-14.5,57.2,-41.9,0,2018,5,10,16,11,10.755,0.7687,-0.4248,0.2726,0.3927
-0.1,0.109,-0.011,-14.3,38.1,-36.6,0,2018,5,10,16,11,10.762,0.769,-0.4166,0.281,0.3949
-0.018,0.079,-0.003,-14,16.1,-31.4,0,2018,5,10,16,11,10.781,0.768,-0.4118,0.2875,0.3972
0.033,0.089,0.008,-13,-17.7,-31.6,0,2018,5,10,16,11,10.801,0.765,-0.4108,0.2923,0.4005
-0.002,0.061,-0.01,-10.6,-48.9,-31.4,0,2018,5,10,16,11,10.837,0.7595,-0.4142,0.2943,0.4059
-0.057,0.068,0.041,-8.8,-79.9,-31.4,0,2018,5,10,16,11,10.856,0.7521,-0.4214,0.2934,0.4129
-0.083,0.037,0.093,-9.6,-93.8,-28.3,0,2018,5,10,16,11,10.861,0.7435,-0.4312,0.29,0.4207
-0.107,0.069,0.062,-7.7,-129.8,-27.4,0,2018,5,10,16,11,10.879,0.7329,-0.4441,0.2847,0.4294
-0.066,0.045,-0.081,-2.3,-165.3,-26.3,0,2018,5,10,16,11,10.918,0.7188,-0.462,0.2758,0.4401
-0.059,-0.064,-0.104,7.5,-161.1,-22.7,0,2018,5,10,16,11,10.938,0.7033,-0.4816,0.2648,0.4507
-0.053,0.1,0.029,19.3,-187.1,-21.1,0,2018,5,10,16,11,10.942,0.688,-0.4999,0.2515,0.462
0,0.252,0.011,28.4,-279.1,-20.4,0,2018,5,10,16,11,10.963,0.6663,-0.5248,0.2317,0.4763
0.03,0.081,-0.137,33.4,-343.9,-15.9,0,2018,5,10,16,11,10.981,0.6355,-0.5581,0.2032,0.4932
-0.003,-0.121,-0.111,34.4,-343.6,-8.3,0,2018,5,10,16,11,11.001,0.6006,-0.5924,0.1709,0.5089
-0.045,-0.028,-0.086,39.8,-320.2,3.3,0,2018,5,10,16,11,11.041,0.5664,-0.6227,0.1381,0.5217
-0.033,-0.09,-0.109,36.8,-296.6,7,0,2018,5,10,16,11,11.062,0.5329,-0.6498,0.1055,0.5315
-0.05,-0.228,-0.059,32.8,-245.5,3.5,1023,2018,5,10,16,11,11.066,0.5021,-0.6715,0.0767,0.5393
-0.071,-0.235,-0.036,24,-177.3,7.4,1023,2018,5,10,16,11,11.082,0.4779,-0.6871,0.0541,0.5444
-0.075,-0.163,-0.015,18.2,-124.1,7.1,1023,2018,5,10,16,11,11.119,0.4611,-0.6973,0.0374,0.5473
-0.012,-0.044,-0.085,16.7,-92.3,6,1023,2018,5,10,16,11,11.14,0.4493,-0.7043,0.0243,0.5489
0.029,-0.068,-0.096,14.4,-49.3,8.3,1023,2018,5,10,16,11,11.144,0.4411,-0.7089,0.0152,0.55
0.003,0.008,-0.007,12.9,-12.1,15.6,1023,2018,5,10,16,11,11.162,0.4388,-0.71,0.0099,0.5505
-0.008,-0.039,0.039,11.5,15.3,17.4,1023,2018,5,10,16,11,11.199,0.4411,-0.7083,0.0068,0.5509
-0.008,-0.066,0.03,8.2,51.8,18,1023,2018,5,10,16,11,11.221,0.4476,-0.7045,0.0067,0.5505
-0.02,-0.041,-0.003,9,80.3,21.7,1023,2018,5,10,16,11,11.226,0.4583,-0.6981,0.0096,0.5498
-0.036,-0.003,0.019,11.3,93.6,27.2,1023,2018,5,10,16,11,11.246,0.4719,-0.6898,0.014,0.5487
-0.042,-0.013,0.04,12.6,81.3,29.4,0,2018,5,10,16,11,11.264,0.4859,-0.6809,0.0181,0.5475
-0.037,0.022,0,12.7,50,28.7,0,2018,5,10,16,11,11.284,0.4969,-0.6739,0.0198,0.5463
-0.013,-0.004,-0.085,15.3,23,30.1,0,2018,5,10,16,11,11.305,0.5036,-0.67,0.0184,0.5449
0.017,0.023,-0.1,14.9,36.6,44.5,0,2018,5,10,16,11,11.341,0.5098,-0.6672,0.0153,0.5428
-0.037,-0.028,0.016,13.4,52.7,53.5,0,2018,5,10,16,11,11.362,0.5198,-0.662,0.0124,0.5397
-0.088,-0.043,0.09,7.2,74.2,57.2,0,2018,5,10,16,11,11.366,0.533,-0.6549,0.0108,0.5355
-0.074,0.009,0.093,-2.7,72.2,57.5,0,2018,5,10,16,11,11.383,0.5467,-0.648,0.0112,0.5301
-0.067,0.018,0.013,-10.2,69.3,60,0,2018,5,10,16,11,11.422,0.5606,-0.6414,0.0114,0.5235
-0.023,0.114,-0.046,-9.3,50.3,59.6,0,2018,5,10,16,11,11.443,0.5731,-0.6361,0.0113,0.5163
0.039,0.138,-0.083,-6.3,22.8,57,0,2018,5,10,16,11,11.447,0.5819,-0.6337,0.0094,0.5095
0.045,0.073,-0.082,-7.3,9.8,53,0,2018,5,10,16,11,11.467,0.5881,-0.6331,0.0055,0.5031
0.016,0.024,-0.083,-9.1,16.4,46.2,0,2018,5,10,16,11,11.488,0.5931,-0.6333,0.0024,0.497
0.006,-0.109,-0.101,-12,54.7,40.9,0,2018,5,10,16,11,11.524,0.6002,-0.6313,0.0015,0.4909
-0.01,-0.21,-0.144,-15.5,132.4,37.8,0,2018,5,10,16,11,11.544,0.6138,-0.6227,0.0067,0.4851
-0.027,-0.176,-0.177,-19.9,220.4,34.6,0,2018,5,10,16,11,11.548,0.6359,-0.6048,0.0198,0.4789
-0.036,-0.029,-0.199,-24.5,298.6,33.6,0,2018,5,10,16,11,11.562,0.6656,-0.5772,0.0409,0.4712
-0.004,0.197,-0.21,-28.4,325.2,36,0,2018,5,10,16,11,11.604,0.699,-0.5422,0.0669,0.4613
0.012,0.383,-0.18,-25.1,283,38.8,0,2018,5,10,16,11,11.622,0.7297,-0.5066,0.0914,0.4499
0.005,0.375,-0.114,-18.6,209.1,45,0,2018,5,10,16,11,11.626,0.7533,-0.4778,0.1098,0.4381
-0.043,0.24,-0.082,-14.1,162.6,53.3,0,2018,5,10,16,11,11.646,0.7716,-0.4559,0.1217,0.4265
-0.059,0.17,-0.104,-9.7,134.8,61.1,0,2018,5,10,16,11,11.664,0.7869,-0.4378,0.1301,0.4147
-0.042,0.125,-0.164,-0.1,111.7,68.9,0,2018,5,10,16,11,11.704,0.8007,-0.4224,0.1354,0.4025
-0.038,0.163,-0.157,10.8,78.5,74.6,0,2018,5,10,16,11,11.724,0.8123,-0.4105,0.1368,0.3909
-0.011,0.201,-0.136,22.8,44,83,0,2018,5,10,16,11,11.728,0.8223,-0.4027,0.1331,0.3793
0,0.288,-0.158,38.3,12.7,91.4,0,2018,5,10,16,11,11.747,0.8306,-0.3986,0.1242,0.3683
-0.033,0.201,-0.185,50.8,-17,99.1,1023,2018,5,10,16,11,11.787,0.8374,-0.3982,0.1108,0.3575
-0.101,-0.051,-0.106,56.1,-15.6,99,1023,2018,5,10,16,11,11.791,0.8429,-0.3998,0.0946,0.3471
-0.072,-0.125,-0.019,59.6,9.4,99.4,1023,2018,5,10,16,11,11.808,0.8495,-0.3983,0.0789,0.3365
-0.033,-0.01,0.009,64.6,22.8,98.3,1023,2018,5,10,16,11,11.844,0.8575,-0.393,0.0633,0.3257
-0.022,0.155,-0.043,70.1,11,97.4,1023,2018,5,10,16,11,11.866,0.8651,-0.3867,0.0475,0.3156
-0.061,0.06,-0.006,72,-14.7,95.7,1023,2018,5,10,16,11,11.87,0.8712,-0.3826,0.03,0.3059
-0.071,-0.077,0.069,73.7,-29.4,93.4,1023,2018,5,10,16,11,11.889,0.8752,-0.382,0.0107,0.2964
-0.073,-0.113,0.114,73.3,-36.7,86.7,1023,2018,5,10,16,11,11.908,0.8777,-0.3831,-0.0091,0.2873
-0.019,0.053,0.103,73.3,-64.1,82.8,0,2018,5,10,16,11,11.927,0.8788,-0.3857,-0.0289,0.2791
-0.035,-0.004,0.052,70.7,-98.8,78.3,0,2018,5,10,16,11,11.966,0.8771,-0.393,-0.0497,0.2713
-0.048,-0.239,0.018,65.6,-90.5,70.5,0,2018,5,10,16,11,11.986,0.873,-0.4042,-0.0707,0.2635
-0.033,-0.355,0.03,59.8,-41.6,61.6,0,2018,5,10,16,11,11.99,0.8704,-0.4102,-0.0881,0.2571
0.015,-0.167,0.059,55.6,6.6,56.1,0,2018,5,10,16,11,12.009,0.8709,-0.4091,-0.1022,0.2521
0.035,0.104,0.074,52.8,18.4,55.1,0,2018,5,10,16,11,12.03,0.8737,-0.4026,-0.1134,0.248
0.011,0.182,0.111,48.8,0.9,58.6,0,2018,5,10,16,11,12.048,0.8759,-0.3973,-0.1248,0.2432
-0.042,0.1,0.112,41.2,-5.8,62.7,0,2018,5,10,16,11,12.086,0.8772,-0.3946,-0.1362,0.2369
-0.011,0.111,0.077,35.9,4.9,68,0,2018,5,10,16,11,12.09,0.8794,-0.3903,-0.1465,0.2295
0.015,0.217,0.038,34.2,11.9,74.6,0,2018,5,10,16,11,12.11,0.8825,-0.3843,-0.156,0.2212
-0.05,0.025,0.091,28.1,11.6,77.2,0,2018,5,10,16,11,12.129,0.8857,-0.3783,-0.1656,0.2117
-0.086,-0.155,0.155,18,35.8,76.2,0,2018,5,10,16,11,12.15,0.8896,-0.3706,-0.1739,0.2018
-0.033,-0.125,0.099,11.2,75.2,72.8,0,2018,5,10,16,11,12.187,0.8955,-0.3586,-0.1792,0.1928
0.029,0.053,0.006,10.2,95,72.5,0,2018,5,10,16,11,12.206,0.9031,-0.3417,-0.1824,0.1849
0.046,0.151,0.043,14.3,82.5,74.7,0,2018,5,10,16,11,12.21,0.9109,-0.3232,-0.1853,0.177
0.019,0.178,0.115,16.5,41.8,74.6,0,2018,5,10,16,11,12.232,0.9161,-0.3103,-0.1901,0.168
0.055,0.171,0.094,17.8,2.8,75.2,0,2018,5,10,16,11,12.253,0.9187,-0.304,-0.1962,0.1577
0.142,0.071,0.028,20.2,-15.2,76.7,0,2018,5,10,16,11,12.269,0.9196,-0.3024,-0.2035,0.1462
0.115,-0.153,0.062,18.7,18.9,76.2,0,2018,5,10,16,11,12.289,0.9207,-0.2993,-0.2108,0.1349
0.057,-0.158,0.167,11.8,79.9,74.9,0,2018,5,10,16,11,12.31,0.9245,-0.288,-0.2156,0.1256
0.116,-0.027,0.141,5.6,115.4,72.5,0,2018,5,10,16,11,12.33,0.9308,-0.2687,-0.2175,0.1183
0.207,0.124,0.102,5.8,96.2,77,0,2018,5,10,16,11,12.37,0.937,-0.2478,-0.2196,0.1105
0.065,-0.098,0.238,-4.5,79.9,79.8,0,2018,5,10,16,11,12.39,0.9419,-0.2312,-0.2217,0.1008
-0.017,-0.202,0.28,-19,100.9,74.7,0,2018,5,10,16,11,12.394,0.9472,-0.2141,-0.2203,0.0914
-0.017,-0.042,0.209,-31.3,110.3,73.8,0,2018,5,10,16,11,12.412,0.9533,-0.1936,-0.2163,0.0824
-0.006,0.121,0.054,-32.5,95.1,74.4,0,2018,5,10,16,11,12.449,0.9592,-0.1728,-0.2114,0.0728
-0.046,0.252,-0.008,-31.8,48.3,75.5,0,2018,5,10,16,11,12.47,0.9633,-0.1582,-0.2073,0.062
-0.094,0.116,0.028,-29.8,-3.4,76.1,1023,2018,5,10,16,11,12.474,0.9657,-0.1524,-0.204,0.0491
-0.137,0.015,0.07,-31,-29.7,75.2,1023,2018,5,10,16,11,12.49,0.9668,-0.153,-0.2012,0.0348
-0.164,-0.082,0.081,-31,-44.4,69.6,1023,2018,5,10,16,11,12.51,0.9671,-0.1568,-0.1989,0.0201
-0.048,-0.237,-0.068,-22.6,-48.3,57.8,1023,2018,5,10,16,11,12.532,0.9667,-0.1631,-0.1967,0.0071
-0.073,-0.176,-0.012,-19.6,-38,48.5,1023,2018,5,10,16,11,12.551,0.9661,-0.1686,-0.1949,-0.0038
-0.154,-0.087,0.057,-23.5,-34.5,38.3,1023,2018,5,10,16,11,12.588,0.9657,-0.1732,-0.1927,-0.013
-0.025,-0.118,-0.005,-21,-48.3,27.3,1023,2018,5,10,16,11,12.608,0.9649,-0.1794,-0.1902,-0.0206
0.003,-0.2,-0.066,-12.4,-51.8,17.5,1023,2018,5,10,16,11,12.612,0.9637,-0.1876,-0.188,-0.0264
-0.016,-0.117,-0.044,-10.2,-36.1,15.8,1023,2018,5,10,16,11,12.653,0.9624,-0.1947,-0.1865,-0.0309
0.006,0.013,-0.078,-7.7,-21.6,15.7,0,2018,5,10,16,11,12.673,0.9615,-0.1992,-0.1856,-0.0348
0.004,0.046,-0.054,-6.6,-22.8,15.9,0,2018,5,10,16,11,12.677,0.9609,-0.2021,-0.1851,-0.0384
-0.044,-0.063,0.052,-11.6,-10.9,16.3,0,2018,5,10,16,11,12.695,0.9605,-0.2044,-0.1839,-0.042
-0.049,0.039,0.028,-12.1,-4.7,18.1,0,2018,5,10,16,11,12.714,0.9605,-0.2046,-0.1827,-0.0456
-0.056,0.097,-0.012,-10.2,-14.7,18,0,2018,5,10,16,11,12.735,0.9605,-0.2046,-0.1818,-0.0496
-0.03,0.123,-0.032,-3.8,-49.3,15.2,0,2018,5,10,16,11,12.751,0.9595,-0.2089,-0.1811,-0.0537
-0.055,0.072,-0.016,-1.5,-75.8,14.3,0,2018,5,10,16,11,12.788,0.9569,-0.2189,-0.181,-0.0584
-0.16,-0.091,0.027,-6.9,-57.7,13.8,0,2018,5,10,16,11,12.81,0.9541,-0.2298,-0.181,-0.0634
-0.168,-0.064,0.008,-9.3,-17.6,12.4,0,2018,5,10,16,11,12.814,0.9528,-0.2351,-0.1798,-0.067
-0.155,-0.007,-0.077,-7.3,6.8,9.9,0,2018,5,10,16,11,12.835,0.9529,-0.2346,-0.1789,-0.0693
-0.188,-0.031,-0.042,-8.4,12.5,3.9,0,2018,5,10,16,11,12.855,0.9536,-0.232,-0.1781,-0.0704
-0.243,-0.051,0.011,-12.9,14.4,-4.9,0,2018,5,10,16,11,12.889,0.9545,-0.2295,-0.1765,-0.0703
-0.241,-0.02,-0.005,-18.1,8.8,-12.5,0,2018,5,10,16,11,12.912,0.9557,-0.2269,-0.1737,-0.069
-0.164,0.02,-0.052,-20.3,-1,-16.9,0,2018,5,10,16,11,12.916,0.9567,-0.2262,-0.1699,-0.0671
-0.122,-0.007,-0.059,-21,-4.8,-18.8,0,2018,5,10,16,11,12.954,0.9575,-0.2265,-0.1657,-0.0649
-0.115,0.016,-0.021,-23.7,-10.1,-19.4,0,2018,5,10,16,11,12.959,0.958,-0.2276,-0.1624,-0.063
-0.113,0.009,-0.024,-26.8,-18,-19.7,0,2018,5,10,16,11,12.975,0.9583,-0.2296,-0.1584,-0.0613
-0.054,0.017,-0.047,-26.6,-26.2,-19.6,0,2018,5,10,16,11,12.993,0.9583,-0.2331,-0.1537,-0.0599
-0.03,0.003,-0.067,-24,-33.7,-19.7,0,2018,5,10,16,11,13.028,0.9578,-0.2384,-0.1489,-0.0585
-0.032,0.013,-0.077,-21,-34.6,-18.4,0,2018,5,10,16,11,13.05,0.9571,-0.2442,-0.1445,-0.0571
-0.031,0.041,-0.077,-19.2,-36.9,-19.4,0,2018,5,10,16,11,13.054,0.9562,-0.2502,-0.1406,-0.0558
-0.023,0.005,-0.03,-19.1,-44.7,-20.2,0,2018,5,10,16,11,13.092,0.9551,-0.2568,-0.1366,-0.0543
-0.052,-0.014,0.03,-19.9,-51,-18.5,0,2018,5,10,16,11,13.113,0.9536,-0.2648,-0.1324,-0.0531
-0.067,0.042,0.017,-21.4,-64.6,-17.5,0,2018,5,10,16,11,13.117,0.9517,-0.2738,-0.1281,-0.0524
0,0.069,-0.074,-20.5,-89.4,-15.7,0,2018,5,10,16,11,13.137,0.9487,-0.286,-0.1235,-0.0525
0.02,-0.029,-0.055,-19,-105.2,-12.5,0,2018,5,10,16,11,13.154,0.9442,-0.3023,-0.1186,-0.0531
-0.022,-0.068,0.005,-19.6,-108.6,-10.3,0,2018,5,10,16,11,13.174,0.9388,-0.3203,-0.1139,-0.0543
-0.004,-0.012,-0.028,-20.6,-111.9,-9.6,0,2018,5,10,16,11,13.195,0.9329,-0.3383,-0.1091,-0.0559
0.04,0.013,-0.09,-19.8,-119.4,-9.8,0,2018,5,10,16,11,13.216,0.9263,-0.3572,-0.1039,-0.0576
0.033,-0.046,-0.081,-18.5,-121.8,-11.6,1023,2018,5,10,16,11,13.235,0.9188,-0.3775,-0.0987,-0.059
0,-0.057,-0.066,-15.4,-109.9,-14.6,1023,2018,5,10,16,11,13.273,0.911,-0.3969,-0.0938,-0.0598
0.008,-0.02,-0.066,-13.1,-97.1,-16.2,1023,2018,5,10,16,11,13.295,0.9039,-0.4139,-0.0894,-0.0598
0.035,0.051,-0.115,-8.4,-80.7,-16.5,1023,2018,5,10,16,11,13.299,0.8975,-0.4284,-0.0855,-0.0593
0.058,0.079,-0.12,-1.6,-73.9,-17.7,1023,2018,5,10,16,11,13.32,0.8917,-0.4411,-0.0824,-0.0579
0.048,0.013,-0.079,4.7,-63.6,-17.5,1023,2018,5,10,16,11,13.356,0.8861,-0.453,-0.0802,-0.0557
0.022,-0.025,-0.034,8.3,-41.9,-14.2,1023,2018,5,10,16,11,13.377,0.8816,-0.4622,-0.0792,-0.0533
0.055,0.034,-0.047,11.8,-13.3,-9.3,1023,2018,5,10,16,11,13.381,0.8791,-0.4671,-0.0792,-0.0509
0.091,0.085,-0.068,15.1,5.2,-4.8,1023,2018,5,10,16,11,13.4,0.8786,-0.4681,-0.0801,-0.0486
0.07,0.099,-0.093,21.1,16,0,0,2018,5,10,16,11,13.421,0.8792,-0.4669,-0.0822,-0.0463
0.013,0.153,0.008,17.2,29.4,8.5,0,2018,5,10,16,11,13.436,0.8807,-0.4635,-0.0855,-0.0448
0.066,0.101,0.023,20.6,39.8,11.7,0,2018,5,10,16,11,13.475,0.8837,-0.4572,-0.0891,-0.0446
0.027,0.029,-0.028,23.3,37.4,15.7,0,2018,5,10,16,11,13.496,0.8863,-0.4512,-0.0939,-0.0442
0.078,-0.039,0.073,15.5,55.6,20.3,0,2018,5,10,16,11,13.5,0.8894,-0.4442,-0.0978,-0.0445
0.078,0.064,0.135,12.2,58.3,24.2,0,2018,5,10,16,11,13.518,0.8936,-0.4345,-0.102,-0.0458
0.084,0.023,0.133,7,50.6,24.4,0,2018,5,10,16,11,13.555,0.8972,-0.4259,-0.1058,-0.048
0.109,-0.074,0.029,8.2,65.3,25.1,0,2018,5,10,16,11,13.575,0.9009,-0.417,-0.1086,-0.0501
0.096,-0.002,0.005,5.3,79.7,25.3,0,2018,5,10,16,11,13.579,0.9058,-0.4053,-0.1112,-0.0518
0.094,0.107,0.028,6.9,77.1,25.5,0,2018,5,10,16,11,13.618,0.9112,-0.392,-0.1142,-0.0536
0.106,0.039,0.043,4.7,73.3,24.2,0,2018,5,10,16,11,13.637,0.9161,-0.3792,-0.1172,-0.0555
0.165,0.093,0.081,0.5,65.8,23,0,2018,5,10,16,11,13.642,0.9203,-0.3676,-0.1198,-0.0576
0.132,0.148,0.055,0.5,54.6,24.7,0,2018,5,10,16,11,13.659,0.9241,-0.3569,-0.122,-0.0601
0.049,-0.017,0.116,-1.7,34.7,23.6,0,2018,5,10,16,11,13.678,0.9266,-0.3491,-0.124,-0.063
0.014,-0.115,0.116,-6.2,47.8,20.5,0,2018,5,10,16,11,13.699,0.929,-0.3421,-0.1246,-0.0657
0.058,0.077,0.07,-6.9,42.1,21.8,0,2018,5,10,16,11,13.738,0.9321,-0.333,-0.1247,-0.0683
0.062,0.168,-0.022,-0.9,12.6,19.6,0,2018,5,10,16,11,13.759,0.934,-0.3267,-0.1251,-0.0714
0.026,0.095,-0.004,-3.9,-2.2,17.8,0,2018,5,10,16,11,13.763,0.9344,-0.3247,-0.1258,-0.0745
-0.047,-0.011,0.048,-6.8,5.8,16.5,0,2018,5,10,16,11,13.781,0.9345,-0.3235,-0.1259,-0.0777
-0.037,-0.055,0.001,-7.3,15.2,13.3,0,2018,5,10,16,11,13.801,0.9349,-0.3216,-0.126,-0.0804
-0.008,0.069,-0.102,-1.3,15.3,15.7,0,2018,5,10,16,11,13.822,0.9357,-0.3187,-0.1266,-0.0827
0.003,0.099,-0.061,4.1,-6.9,14.4,0,2018,5,10,16,11,13.842,0.9356,-0.3174,-0.1282,-0.0852
-0.003,0.11,-0.01,7.7,-37.2,14.9,0,2018,5,10,16,11,13.858,0.9342,-0.3201,-0.13,-0.0879
-0.031,0.012,0.012,5.9,-53.9,20.2,0,2018,5,10,16,11,13.878,0.9313,-0.3269,-0.1315,-0.0916
-0.024,-0.056,-0.018,7.9,-52.3,22.7,0,2018,5,10,16,11,13.898,0.9276,-0.3355,-0.1331,-0.0959
-0.045,0.03,0.008,10.3,-53,27,0,2018,5,10,16,11,13.937,0.9238,-0.3433,-0.1356,-0.1007
-0.098,0.054,0.051,9.7,-69.7,26.1,0,2018,5,10,16,11,13.957,0.9196,-0.3519,-0.1384,-0.1061
-0.074,0.061,0.029,7.7,-103.9,23.9,0,2018,5,10,16,11,13.962,0.9135,-0.3652,-0.14,-0.1118
-0.11,-0.023,0.043,4.5,-128.7,19.4,1023,2018,5,10,16,11,13.982,0.9052,-0.3831,-0.1408,-0.1181
-0.14,-0.024,0.071,3.3,-149.3,13,1023,2018,5,10,16,11,14.002,0.8951,-0.4045,-0.1402,-0.1241
-0.1,-0.066,0.031,3.8,-154.9,5.2,1023,2018,5,10,16,11,14.022,0.8834,-0.4284,-0.1388,-0.1291
-0.081,0.116,0.029,6.7,-194.5,-3.2,1023,2018,5,10,16,11,14.043,0.87,-0.4545,-0.1362,-0.1334
-0.085,0.099,-0.025,6.5,-249.2,-8.8,1023,2018,5,10,16,11,14.081,0.8512,-0.4891,-0.1314,-0.137
-0.093,-0.085,-0.064,3.2,-201.9,-1,1023,2018,5,10,16,11,14.103,0.8306,-0.5235,-0.1266,-0.1411
-0.064,-0.188,0.011,-5.1,-88.8,7.4,1023,2018,5,10,16,11,14.107,0.8165,-0.5448,-0.1235,-0.145
-0.086,0.086,0.043,-6.7,-60.5,0.3,1023,2018,5,10,16,11,14.124,0.8103,-0.5537,-0.1218,-0.1479
-0.087,-0.084,-0.01,-8.1,-73.2,-3.9,1023,2018,5,10,16,11,14.142,0.8035,-0.5634,-0.1193,-0.1503
-0.063,-0.031,-0.068,-6.8,-61.4,-6.9,0,2018,5,10,16,11,14.178,0.7966,-0.5734,-0.1164,-0.1518
-0.008,0.035,-0.1,-5.6,-48.1,-8.2,0,2018,5,10,16,11,14.199,0.7905,-0.582,-0.1137,-0.1526
0.033,0.062,-0.106,-5.4,-36.9,-6.1,0,2018,5,10,16,11,14.203,0.7859,-0.5886,-0.1112,-0.1529
0.009,0.011,-0.091,-5.8,-35.5,-3.8,0,2018,5,10,16,11,14.223,0.7817,-0.5945,-0.109,-0.1534
0,0,-0.059,-6.6,-33.7,-1.3,0,2018,5,10,16,11,14.248,0.7774,-0.6001,-0.1071,-0.1545
0.031,-0.004,-0.101,-4.9,-14.3,-0.3,0,2018,5,10,16,11,14.26,0.7741,-0.6044,-0.1055,-0.1553
0.05,0.007,-0.118,-4.7,2.1,0.4,0,2018,5,10,16,11,14.297,0.7727,-0.6063,-0.1045,-0.1557
0.043,-0.016,-0.092,-3.2,10.3,-1.3,0,2018,5,10,16,11,14.316,0.7728,-0.6064,-0.1039,-0.1556
0.01,-0.026,-0.051,-1.3,10.3,-4.3,0,2018,5,10,16,11,14.323,0.7735,-0.6056,-0.1034,-0.155
0.009,-0.059,-0.113,2.2,5,-10,0,2018,5,10,16,11,14.361,0.7735,-0.606,-0.1028,-0.1539
0,0.102,-0.035,3.7,18,-7.1,0,2018,5,10,16,11,14.365,0.7749,-0.6047,-0.1027,-0.1522
0.044,-0.064,-0.096,7,2.4,-11,0,2018,5,10,16,11,14.382,0.7752,-0.6048,-0.1027,-0.1502
0.028,0.058,-0.063,8.2,25.2,-4.7,0,2018,5,10,16,11,14.42,0.7761,-0.6042,-0.103,-0.1478
0.022,0.071,-0.024,5.3,34.2,0.3,0,2018,5,10,16,11,14.44,0.7787,-0.6009,-0.1045,-0.1464
0.038,-0.029,-0.052,4,73.8,5.2,0,2018,5,10,16,11,14.444,0.7838,-0.5942,-0.1066,-0.1452
0.024,-0.041,-0.039,2.8,109.6,7.9,0,2018,5,10,16,11,14.464,0.793,-0.5815,-0.1098,-0.1438
0.018,0.013,-0.02,5.3,127.2,6,0,2018,5,10,16,11,14.484,0.8046,-0.5651,-0.114,-0.1419
0.012,-0.17,0.005,1.9,149.9,3.4,0,2018,5,10,16,11,14.521,0.8172,-0.5465,-0.1181,-0.1392
-0.011,-0.264,-0.037,-2.6,223.5,6.1,0,2018,5,10,16,11,14.54,0.8344,-0.5197,-0.1227,-0.136
-0.038,-0.036,-0.012,-4.3,239.4,3.5,0,2018,5,10,16,11,14.547,0.855,-0.4848,-0.1281,-0.1317
-0.068,-0.105,-0.007,-9.7,237.3,-0.2,0,2018,5,10,16,11,14.562,0.8741,-0.4494,-0.1327,-0.1274
-0.073,-0.041,0.05,-13.5,237.9,-5.5,0,2018,5,10,16,11,14.582,0.8923,-0.4127,-0.1359,-0.1223
-0.087,0.13,0.132,-22.1,205,-11.1,0,2018,5,10,16,11,14.603,0.9084,-0.3769,-0.1374,-0.1169
-0.073,0.339,0.174,-37.1,82,-11.5,0,2018,5,10,16,11,14.641,0.928,-0.3304,-0.1316,-0.11
-0.038,0.239,0.102,-35.6,35.7,-12,0,2018,5,10,16,11,14.663,0.9325,-0.3203,-0.1261,-0.1089
0.017,0.158,-0.06,-24.9,-0.8,-13.2,0,2018,5,10,16,11,14.667,0.9345,-0.3167,-0.1208,-0.1081
0.035,0.136,-0.086,-14.5,-21.7,-10.1,1023,2018,5,10,16,11,14.686,0.9347,-0.3175,-0.117,-0.1077
0.024,0.098,-0.018,-8.4,-29.6,-9.2,1023,2018,5,10,16,11,14.704,0.9341,-0.3206,-0.1143,-0.1073
0.02,0.039,0.011,-6.8,-23.1,-7.7,1023,2018,5,10,16,11,14.725,0.9333,-0.3239,-0.112,-0.1068
0.041,0.078,-0.016,-5.1,-29.1,-5.5,1023,2018,5,10,16,11,14.76,0.9325,-0.3269,-0.1101,-0.1064
0.075,0.067,-0.075,-0.4,-39,-2.3,1023,2018,5,10,16,11,14.781,0.9309,-0.3321,-0.1084,-0.1064
0.06,0.133,-0.104,7.5,-52.2,-1.8,1023,2018,5,10,16,11,14.785,0.9285,-0.3388,-0.1076,-0.1066
-0.017,-0.049,-0.005,5.9,-71.3,-8.6,1023,2018,5,10,16,11,14.824,0.9247,-0.3493,-0.107,-0.1063
-0.065,-0.039,0.067,3.2,-73,-8,1023,2018,5,10,16,11,14.828,0.9203,-0.3611,-0.1061,-0.106
-0.097,0.018,0.064,2.2,-89.7,-9.2,0,2018,5,10,16,11,14.844,0.9156,-0.3732,-0.1049,-0.1062
-0.086,-0.116,-0.059,3.4,-100.6,-14,0,2018,5,10,16,11,14.882,0.9092,-0.389,-0.1035,-0.106
-0.056,-0.159,-0.114,3.3,-72.8,-13.6,0,2018,5,10,16,11,14.903,0.9034,-0.403,-0.1014,-0.1052
-0.069,-0.114,-0.15,3.7,-21.7,-11.2,0,2018,5,10,16,11,14.907,0.9001,-0.411,-0.1002,-0.1037
-0.045,0.003,-0.104,6.4,31.5,-9.1,0,2018,5,10,16,11,14.927,0.9007,-0.4101,-0.1005,-0.1018
-0.037,-0.041,-0.089,4,64.2,-13.9,0,2018,5,10,16,11,14.953,0.9038,-0.4035,-0.1018,-0.0988
0,0.029,0.016,-2,97.1,-12.4,0,2018,5,10,16,11,14.969,0.9098,-0.3905,-0.1026,-0.0955
0.025,-0.092,-0.107,10,98.8,-22.7,0,2018,5,10,16,11,14.991,0.9165,-0.3755,-0.1036,-0.0903
0.034,-0.03,-0.087,16.7,97.7,-26.2,0,2018,5,10,16,11,15.011,0.9228,-0.3608,-0.1055,-0.0834
0.028,0.015,-0.051,25.9,83.9,-31.6,0,2018,5,10,16,11,15.03,0.9282,-0.3477,-0.1082,-0.0754
0.009,-0.098,-0.023,29.5,91.9,-38.6,0,2018,5,10,16,11,15.05,0.9332,-0.335,-0.1116,-0.0662
-0.008,-0.085,-0.098,31.5,116,-41,0,2018,5,10,16,11,15.065,0.9386,-0.32,-0.1156,-0.0554
-0.011,0.111,-0.087,35.3,121,-42.6,0,2018,5,10,16,11,15.103,0.9449,-0.3012,-0.1202,-0.0442
-0.011,0.259,-0.12,46.5,75.1,-45.3,0,2018,5,10,16,11,15.124,0.9496,-0.2852,-0.1257,-0.0326
-0.016,0.194,-0.035,55.3,-0.8,-47.1,0,2018,5,10,16,11,15.128,0.9504,-0.2804,-0.1322,-0.0215
-0.028,0.073,0.059,54.8,-32.9,-41.5,0,2018,5,10,16,11,15.147,0.9483,-0.2846,-0.1394,-0.012
-0.058,-0.007,0.106,48,-20,-36.4,0,2018,5,10,16,11,15.168,0.9459,-0.2895,-0.146,-0.0039
-0.039,-0.053,0.075,41.2,6.3,-33.5,0,2018,5,10,16,11,15.208,0.9445,-0.2911,-0.1518,0.0039
-0.01,0.037,0.085,36.6,25.2,-32,0,2018,5,10,16,11,15.229,0.9445,-0.2884,-0.1565,0.0118
0.048,0.159,0.074,32.5,8.1,-30.2,0,2018,5,10,16,11,15.234,0.9447,-0.2852,-0.1605,0.0193
0.079,0.134,0.109,25.5,2.8,-20.8,0,2018,5,10,16,11,15.251,0.9439,-0.2852,-0.164,0.0251
0.072,0.108,0.128,17.9,0,-16.5,0,2018,5,10,16,11,15.269,0.9434,-0.285,-0.1666,0.0292
0.136,0.038,-0.006,12.6,7.5,-13,0,2018,5,10,16,11,15.289,0.943,-0.2848,-0.1684,0.0324
0.125,0.333,0.124,7.2,20.2,1.1,0,2018,5,10,16,11,15.308,0.9436,-0.2821,-0.1694,0.0346
0.071,0.032,0.111,-1.5,4,1.6,0,2018,5,10,16,11,15.329,0.944,-0.2805,-0.17,0.0347
0.077,0.168,0.096,-8.2,28.9,11.6,0,2018,5,10,16,11,15.366,0.9453,-0.2767,-0.1689,0.034
0.054,0.198,0.105,-11.5,11.3,14.4,0,2018,5,10,16,11,15.388,0.947,-0.2719,-0.1678,0.032
0.057,0.133,0.051,-7.8,-25.4,14.8,1023,2018,5,10,16,11,15.392,0.9471,-0.2724,-0.1669,0.029
0.002,0.131,0.079,-1.5,-70.5,16.9,1023,2018,5,10,16,11,15.411,0.945,-0.2799,-0.1672,0.0247
-0.033,0.106,0.151,1.7,-122.8,16,1023,2018,5,10,16,11,15.43,0.9401,-0.2954,-0.1686,0.0192
0.043,0.073,-0.01,5.6,-128.5,22.6,1023,2018,5,10,16,11,15.45,0.9335,-0.3151,-0.1702,0.0124
0.015,0.138,-0.095,13.3,-123.6,27.1,1023,2018,5,10,16,11,15.473,0.9265,-0.3337,-0.1736,0.005
-0.079,-0.059,-0.061,15.4,-97.7,23,1023,2018,5,10,16,11,15.492,0.9193,-0.3506,-0.1782,-0.0017
-0.081,-0.086,-0.051,16.8,-61.6,16.1,1023,2018,5,10,16,11,15.512,0.9135,-0.3632,-0.1827,-0.0064
-0.053,-0.046,-0.046,17,-31.6,11.3,1023,2018,5,10,16,11,15.528,0.9096,-0.3707,-0.1869,-0.009
0,-0.015,-0.041,17.3,-1.1,5.7,1023,2018,5,10,16,11,15.549,0.9078,-0.3735,-0.1904,-0.0096
-0.036,-0.133,0.019,12.5,25.3,-0.1,0,2018,5,10,16,11,15.571,0.908,-0.3716,-0.193,-0.0086
-0.009,-0.054,0.086,9.3,44.6,-7.2,0,2018,5,10,16,11,15.608,0.91,-0.3658,-0.1945,-0.0058
-0.021,0.023,0.145,7.7,26.8,-11.6,0,2018,5,10,16,11,15.629,0.9125,-0.3594,-0.1949,-0.0024
-0.038,0.13,0.11,10.3,-7.9,-14.3,0,2018,5,10,16,11,15.633,0.9129,-0.358,-0.1955,0.0004
-0.165,0.025,0.172,12.3,-49.1,-21.1,0,2018,5,10,16,11,15.651,0.9108,-0.3629,-0.1964,0.0028
-0.243,-0.199,0.101,21.4,-66.5,-38.5,0,2018,5,10,16,11,15.688,0.9064,-0.373,-0.1977,0.0064
-0.219,-0.154,0.051,35.8,-70,-52.7,0,2018,5,10,16,11,15.708,0.9011,-0.3847,-0.1994,0.0132
-0.191,-0.132,0.077,48.9,-88.5,-67.5,0,2018,5,10,16,11,15.712,0.8939,-0.3989,-0.2026,0.0229
-0.232,-0.179,0.164,58.1,-115.2,-79.4,0,2018,5,10,16,11,15.752,0.8843,-0.4168,-0.2073,0.0341
-0.159,-0.097,0.174,62.9,-137.4,-87.2,0,2018,5,10,16,11,15.756,0.8722,-0.4382,-0.212,0.0465
-0.048,-0.05,0.153,64.2,-156,-87.1,0,2018,5,10,16,11,15.772,0.8579,-0.4621,-0.2164,0.0591
-0.041,-0.119,0.128,63,-166.7,-85.5,0,2018,5,10,16,11,15.806,0.8414,-0.4882,-0.2204,0.0711
-0.025,-0.222,0.144,58.7,-158.8,-84.2,0,2018,5,10,16,11,15.828,0.8237,-0.5143,-0.2238,0.0826
0.023,-0.193,0.15,52.2,-118.9,-82.7,0,2018,5,10,16,11,15.832,0.8077,-0.5362,-0.2258,0.0945
0.069,-0.138,0.136,39.6,-79.5,-81.4,0,2018,5,10,16,11,15.869,0.7952,-0.5524,-0.2257,0.1067
0.093,-0.158,0.161,22.8,-17.1,-73.6,0,2018,5,10,16,11,15.89,0.7881,-0.5612,-0.2229,0.1191
0.055,-0.084,0.283,4.6,15.3,-77.5,0,2018,5,10,16,11,15.894,0.7861,-0.5635,-0.2173,0.1308
0.102,0.052,0.24,-8.2,21.4,-82.2,0,2018,5,10,16,11,15.914,0.7863,-0.5638,-0.2085,0.1423
0.124,0.043,0.123,-18.4,14.4,-88.4,0,2018,5,10,16,11,15.935,0.7862,-0.5649,-0.1977,0.1534
0.104,0.017,0.011,-23.8,-16.7,-98.3,0,2018,5,10,16,11,15.952,0.7842,-0.5689,-0.1851,0.1643
0.14,-0.002,-0.071,-25.1,-12.3,-105.3,0,2018,5,10,16,11,15.988,0.7799,-0.5757,-0.1714,0.1756
0.156,0.069,-0.098,-22.4,-11.6,-110.2,0,2018,5,10,16,11,16.008,0.7759,-0.5812,-0.1575,0.1874
0.106,-0.023,-0.11,-20.6,-10.8,-116.6,0,2018,5,10,16,11,16.012,0.7712,-0.5869,-0.1434,0.2003
0.076,-0.067,-0.134,-16.5,4.1,-123.6,0,2018,5,10,16,11,16.052,0.7668,-0.5911,-0.1287,0.2143
0.067,0.003,-0.112,-14.3,26.5,-129.7,0,2018,5,10,16,11,16.073,0.7638,-0.5924,-0.1127,0.23
0.019,0.001,-0.104,-10.8,42.4,-135.5,0,2018,5,10,16,11,16.077,0.7612,-0.5918,-0.0955,0.2471
-0.015,0.099,-0.09,-7,56,-138,0,2018,5,10,16,11,16.095,0.7597,-0.5886,-0.0777,0.265
-0.01,0.241,-0.052,-2.6,51.1,-136,1023,2018,5,10,16,11,16.114,0.7585,-0.5835,-0.0599,0.2836
0.009,0.261,-0.043,0.4,25.7,-131.7,1023,2018,5,10,16,11,16.134,0.7553,-0.5799,-0.0433,0.302
-0.021,0.115,-0.04,5.4,21.8,-127.1,1023,2018,5,10,16,11,16.171,0.7501,-0.5779,-0.0289,0.3198
-0.04,0.064,0.004,10.1,35.9,-122.8,1023,2018,5,10,16,11,16.193,0.7459,-0.5741,-0.0157,0.3371
0.002,0.24,0.024,11.9,32.2,-117.1,1023,2018,5,10,16,11,16.197,0.7424,-0.5685,-0.0027,0.3542
0.013,0.29,-0.014,11.8,11.1,-107.1,1023,2018,5,10,16,11,16.212,0.7374,-0.565,0.008,0.3699
0,0.134,-0.078,13.9,-4.1,-97.2,1023,2018,5,10,16,11,16.252,0.7306,-0.564,0.0169,0.3842
-0.014,-0.02,-0.02,17.5,10.3,-90.1,1023,2018,5,10,16,11,16.273,0.7241,-0.563,0.0247,0.3974
0,0.018,0.039,18.1,18.4,-86.3,1023,2018,5,10,16,11,16.277,0.7195,-0.5594,0.0324,0.41
0.03,0.061,0,17.1,11.7,-82.1,0,2018,5,10,16,11,16.297,0.7148,-0.5558,0.0402,0.4223
0.061,0.055,-0.105,21.8,0.5,-78.8,0,2018,5,10,16,11,16.317,0.7092,-0.5534,0.0467,0.4341
0.073,0.028,-0.095,32.5,-4.7,-76.8,0,2018,5,10,16,11,16.337,0.7032,-0.551,0.0505,0.4463
0.014,0.007,0.026,39,-8.2,-77.5,0,2018,5,10,16,11,16.375,0.6964,-0.5487,0.0537,0.4592
-0.04,-0.046,0.072,36.1,-8.6,-76.9,0,2018,5,10,16,11,16.395,0.6898,-0.5459,0.0558,0.4722
-0.008,-0.031,0.016,33.1,-8.4,-75.8,0,2018,5,10,16,11,16.399,0.683,-0.5435,0.0582,0.4844
0.002,-0.006,0.008,34.4,-4.7,-73.6,0,2018,5,10,16,11,16.419,0.6761,-0.5409,0.0609,0.4964
-0.07,-0.005,0.078,33.6,10.7,-69.1,0,2018,5,10,16,11,16.439,0.6706,-0.5368,0.0639,0.5079
-0.129,0.06,0.179,24.9,23,-62.1,0,2018,5,10,16,11,16.455,0.6667,-0.5314,0.0685,0.5179
-0.034,0.169,0.146,19,9.6,-53.4,0,2018,5,10,16,11,16.494,0.6632,-0.527,0.0733,0.5262
0,0.172,0.041,19.6,-5.5,-39.2,0,2018,5,10,16,11,16.512,0.6592,-0.5247,0.0758,0.533
-0.042,0.059,-0.001,19.7,-13.2,-27.4,0,2018,5,10,16,11,16.517,0.6553,-0.5236,0.076,0.5389
-0.039,-0.007,-0.045,18.2,-11.7,-19.6,0,2018,5,10,16,11,16.537,0.6523,-0.5231,0.075,0.5432
-0.014,-0.009,-0.093,18.2,-11,-16.1,0,2018,5,10,16,11,16.557,0.6495,-0.5234,0.0736,0.5465
-0.03,0.038,-0.061,18.8,-18.4,-15.8,0,2018,5,10,16,11,16.578,0.6467,-0.5235,0.072,0.5499
-0.074,0.005,-0.028,17.4,-41.4,-20.1,0,2018,5,10,16,11,16.598,0.6424,-0.5253,0.069,0.5536
-0.025,-0.154,-0.051,18.4,-45,-29.1,0,2018,5,10,16,11,16.636,0.6362,-0.5287,0.0645,0.558
0.039,-0.152,-0.113,21.4,-32.9,-38.5,0,2018,5,10,16,11,16.655,0.6293,-0.5311,0.062,0.5639
0.016,-0.12,-0.129,24.2,-18.4,-45.8,0,2018,5,10,16,11,16.659,0.6228,-0.5315,0.0613,0.5707
-0.019,-0.069,-0.092,24.4,2.3,-50.3,0,2018,5,10,16,11,16.676,0.6175,-0.5295,0.0625,0.5782
-0.052,-0.055,-0.014,23.4,19,-52.4,0,2018,5,10,16,11,16.697,0.6137,-0.5258,0.0656,0.5852
-0.085,0.041,0.001,18.5,35,-51.3,0,2018,5,10,16,11,16.717,0.6113,-0.5201,0.0707,0.5921
-0.121,0.077,-0.006,12.3,53.4,-46.9,0,2018,5,10,16,11,16.738,0.6107,-0.5127,0.0779,0.5984
-0.145,0.122,-0.004,5.4,68.7,-40.3,0,2018,5,10,16,11,16.758,0.612,-0.5039,0.0877,0.603
-0.158,0.192,-0.025,-1.3,62.4,-32.5,1023,2018,5,10,16,11,16.798,0.6143,-0.4954,0.0978,0.6062
-0.191,0.182,-0.024,-6.6,39.4,-24,1023,2018,5,10,16,11,16.802,0.6156,-0.4901,0.1063,0.6078
-0.17,0.167,-0.047,-11.6,21.1,-14.2,1023,2018,5,10,16,11,16.821,0.6158,-0.4879,0.1123,0.6083
-0.152,0.148,-0.104,-14.9,15.2,-4.6,1023,2018,5,10,16,11,16.858,0.616,-0.4868,0.117,0.608
-0.158,0.138,-0.141,-16.2,15.7,5,1023,2018,5,10,16,11,16.878,0.6168,-0.487,0.121,0.6063
-0.156,0.128,-0.133,-16.6,17.3,13.5,1023,2018,5,10,16,11,16.882,0.6187,-0.4874,0.1244,0.6034
-0.165,0.151,-0.107,-18.3,12.1,20.2,1023,2018,5,10,16,11,16.901,0.6212,-0.488,0.1272,0.5996
-0.152,0.121,-0.083,-19.6,3.1,26.3,1023,2018,5,10,16,11,16.922,0.624,-0.4893,0.1284,0.5955
-0.123,0.072,-0.062,-20.5,-5.2,30.8,0,2018,5,10,16,11,16.938,0.6263,-0.4921,0.1283,0.5906
-0.113,-0.024,-0.044,-21.8,3.8,34.8,0,2018,5,10,16,11,16.958,0.6293,-0.4954,0.1273,0.5849
-0.117,-0.074,-0.017,-24.6,24.7,35,0,2018,5,10,16,11,16.981,0.6338,-0.4972,0.1282,0.5783
-0.082,-0.04,0.005,-28.9,32.7,32.9,0,2018,5,10,16,11,17,0.6396,-0.4973,0.1303,0.5713
-0.049,-0.037,0.004,-31.9,41.7,31.9,0,2018,5,10,16,11,17.02,0.6456,-0.4971,0.1342,0.5638
-0.063,-0.087,0.022,-35.4,63.1,30.5,0,2018,5,10,16,11,17.039,0.6526,-0.4954,0.1399,0.5558
-0.151,-0.259,0.039,-41.2,117.5,27.8,0,2018,5,10,16,11,17.077,0.6621,-0.4898,0.1503,0.5468
-0.202,-0.349,-0.005,-55.9,200.8,25.8,0,2018,5,10,16,11,17.098,0.6766,-0.4769,0.1693,0.5347
-0.171,-0.287,-0.189,-71.7,282.4,23.9,0,2018,5,10,16,11,17.102,0.6967,-0.4545,0.1976,0.5185
-0.145,-0.193,-0.368,-80.6,354.1,26.6,0,2018,5,10,16,11,17.141,0.7205,-0.4227,0.234,0.4972
-0.059,-0.024,-0.454,-77.5,396.9,38,0,2018,5,10,16,11,17.145,0.7463,-0.3825,0.2744,0.4704
0.019,0.166,-0.412,-65.7,394.7,53.2,0,2018,5,10,16,11,17.16,0.7713,-0.338,0.3128,0.4391
0.014,0.239,-0.296,-54.8,360.3,66.1,0,2018,5,10,16,11,17.179,0.7932,-0.2944,0.3457,0.4057
-0.07,0.226,-0.178,-48.5,319.3,75.9,0,2018,5,10,16,11,17.2,0.8111,-0.255,0.3725,0.3718
-0.088,0.22,-0.118,-40.9,264.3,81.5,0,2018,5,10,16,11,17.24,0.8251,-0.2214,0.3939,0.3387
0.106,0.248,-0.074,-29.1,188,79.9,0,2018,5,10,16,11,17.26,0.8355,-0.1965,0.4089,0.3098
0.128,0.218,-0.074,-13.8,103.9,78.8,0,2018,5,10,16,11,17.264,0.8428,-0.1823,0.4167,0.2874
0.036,0.123,0,-9.3,52.2,78.9,0,2018,5,10,16,11,17.28,0.8481,-0.1777,0.4195,0.2702
-0.007,0.022,0.084,-13,38.7,80.8,0,2018,5,10,16,11,17.321,0.8524,-0.1767,0.4205,0.2553
0.095,-0.004,0.079,-14.3,18.6,81.5,0,2018,5,10,16,11,17.34,0.856,-0.1785,0.4209,0.2409
0.143,-0.025,0.047,-11.5,-2.1,81.9,0,2018,5,10,16,11,17.344,0.8585,-0.1839,0.4208,0.2278
0.104,-0.061,0.091,-8.9,-1.1,83.8,0,2018,5,10,16,11,17.36,0.8608,-0.1912,0.4194,0.2154
0.113,-0.275,0.091,-20.1,63.3,85,0,2018,5,10,16,11,17.399,0.8641,-0.1939,0.4191,0.2
0.258,-0.26,0.134,-24,132.1,73.6,0,2018,5,10,16,11,17.418,0.8684,-0.185,0.4234,0.1792
0.324,-0.032,0.166,-21.6,145.3,54.7,0,2018,5,10,16,11,17.424,0.8729,-0.1688,0.4293,0.1582
0.288,0.251,0.218,-20.6,97.2,39.8,1023,2018,5,10,16,11,17.443,0.876,-0.1534,0.4346,0.1415
0.272,0.213,0.19,-20.9,28.6,23.8,1023,2018,5,10,16,11,17.462,0.8768,-0.1471,0.4383,0.1318
0.265,-0.105,0.114,-24.9,13.5,7.1,1023,2018,5,10,16,11,17.501,0.8756,-0.1463,0.442,0.128
0.239,-0.172,0.089,-24.9,47.4,-11.6,1023,2018,5,10,16,11,17.522,0.8743,-0.142,0.4466,0.1257
0.162,0.028,0.102,-24.2,55.8,-22.8,1023,2018,5,10,16,11,17.526,0.8732,-0.1328,0.4522,0.1236
0.116,0.099,0.101,-23.8,26.1,-34.2,1023,2018,5,10,16,11,17.562,0.8716,-0.1237,0.4575,0.1247
0.104,0.08,0.086,-23.2,-11.1,-42.4,1023,2018,5,10,16,11,17.584,0.869,-0.1191,0.4619,0.1305
0.084,0.004,0.048,-24.3,-39,-47.7,1023,2018,5,10,16,11,17.588,0.8655,-0.1195,0.4659,0.1395
0.037,-0.039,-0.046,-22.9,-42.4,-50.5,1023,2018,5,10,16,11,17.606,0.8613,-0.1227,0.4697,0.1498
0,0,-0.066,-21.3,-35.1,-53.5,0,2018,5,10,16,11,17.623,0.8569,-0.125,0.4735,0.1604
0.015,0.036,-0.043,-21.6,-31.9,-56.4,0,2018,5,10,16,11,17.663,0.8526,-0.1257,0.4773,0.1712
0.047,0.093,-0.016,-22,-40.7,-57.4,0,2018,5,10,16,11,17.667,0.8479,-0.1263,0.4812,0.1825
0.046,0.128,0,-22.4,-52.7,-54.2,0,2018,5,10,16,11,17.685,0.8429,-0.1283,0.4847,0.1949
0,0.068,-0.022,-23,-55,-49.4,0,2018,5,10,16,11,17.703,0.8377,-0.1319,0.4876,0.2071
0.04,0.039,-0.093,-19.5,-57.3,-46.6,0,2018,5,10,16,11,17.743,0.8324,-0.1364,0.4904,0.2186
0.035,0.04,-0.097,-14.6,-52.6,-43.9,0,2018,5,10,16,11,17.762,0.8273,-0.1411,0.4928,0.2295
0.013,0.128,-0.076,-7.4,-53.9,-41.1,0,2018,5,10,16,11,17.766,0.823,-0.1453,0.4939,0.2396
0.016,0.139,-0.075,2.5,-75.6,-38.3,0,2018,5,10,16,11,17.787,0.8195,-0.1512,0.4926,0.2505
0.009,0.104,-0.068,11.5,-117.9,-36,0,2018,5,10,16,11,17.805,0.8158,-0.1616,0.4882,0.2642
0,0.055,-0.065,19.7,-150.5,-33.8,0,2018,5,10,16,11,17.846,0.811,-0.177,0.4812,0.2814
-0.023,0.06,-0.064,29.4,-159.1,-27.1,0,2018,5,10,16,11,17.85,0.8062,-0.195,0.4714,0.2995
-0.043,0.075,-0.049,35.1,-174.7,-23.3,0,2018,5,10,16,11,17.866,0.8013,-0.214,0.4591,0.318
-0.067,0.107,-0.073,41.6,-182.5,-17.5,0,2018,5,10,16,11,17.884,0.796,-0.2343,0.4452,0.3363
-0.078,0.21,-0.06,46.7,-236.4,-13.3,0,2018,5,10,16,11,17.905,0.7895,-0.2593,0.4271,0.3562
-0.048,0.145,-0.054,47.6,-289.5,-8.3,0,2018,5,10,16,11,17.941,0.7795,-0.2918,0.4041,0.3791
-0.087,0.177,-0.065,45.8,-328.4,-0.6,0,2018,5,10,16,11,17.962,0.7655,-0.3302,0.3768,0.4035
-0.127,0.175,-0.095,41.4,-370.3,5.2,0,2018,5,10,16,11,17.966,0.7469,-0.3734,0.3455,0.4279
-0.14,0.037,-0.178,37.1,-392.9,7.5,0,2018,5,10,16,11,17.987,0.7225,-0.4205,0.3108,0.4521
-0.121,-0.221,-0.174,25.3,-325.5,16.1,0,2018,5,10,16,11,18.008,0.6968,-0.4639,0.2767,0.4717
-0.12,-0.222,-0.163,16.7,-214.4,19.6,0,2018,5,10,16,11,18.028,0.6771,-0.4949,0.2505,0.4834
-0.07,-0.03,-0.17,13.1,-163.9,16.1,0,2018,5,10,16,11,18.044,0.6633,-0.5156,0.2318,0.4902
-0.01,0.028,-0.113,12,-163.5,13.2,0,2018,5,10,16,11,18.082,0.6495,-0.5346,0.2158,0.4955
-0.025,-0.076,-0.027,10.8,-143.7,12.4,0,2018,5,10,16,11,18.102,0.6361,-0.5523,0.1999,0.5003
-0.028,-0.112,-0.05,8.5,-108.7,12.9,1023,2018,5,10,16,11,18.106,0.6255,-0.5661,0.1861,0.5034
-0.019,-0.127,-0.063,6.4,-72.2,12.7,1023,2018,5,10,16,11,18.127,0.6178,-0.5758,0.1759,0.5056
-0.003,-0.141,-0.024,4.8,-24.2,8.5,1023,2018,5,10,16,11,18.146,0.6143,-0.5812,0.1695,0.5059
0.004,-0.274,0.006,1.5,31.3,2.8,1023,2018,5,10,16,11,18.169,0.6153,-0.5811,0.1687,0.505
-0.033,-0.21,0.074,-4.3,75.3,-0.2,1023,2018,5,10,16,11,18.188,0.6209,-0.5755,0.1741,0.5028
-0.024,-0.282,0.017,-9,127.2,-2.8,1023,2018,5,10,16,11,18.208,0.6304,-0.5654,0.1839,0.4989
0.022,-0.314,-0.109,-9.9,190.3,-5.5,1023,2018,5,10,16,11,18.227,0.6452,-0.5484,0.1996,0.4929
0.102,-0.194,-0.189,-7.3,247.7,-6.3,1023,2018,5,10,16,11,18.266,0.665,-0.5237,0.2203,0.4845
0.074,-0.067,-0.109,-6.2,277.6,-6.7,1023,2018,5,10,16,11,18.286,0.6876,-0.493,0.2441,0.4737
0.014,0.009,0.004,-8.3,283.9,-11.1,1023,2018,5,10,16,11,18.29,0.7098,-0.4592,0.2693,0.4611
-0.005,0.006,0.031,-13.7,281.1,-14.6,0,2018,5,10,16,11,18.311,0.7301,-0.4238,0.2943,0.4479
0,0.108,0.069,-19.1,273.3,-14.1,0,2018,5,10,16,11,18.33,0.7477,-0.3882,0.3192,0.4337
0.007,0.183,0.05,-19.9,246.4,-13,0,2018,5,10,16,11,18.348,0.7625,-0.3547,0.3426,0.4185
0.014,0.22,0.034,-19.1,190,-10.7,0,2018,5,10,16,11,18.368,0.7734,-0.3264,0.3618,0.4053
0.008,0.152,0.088,-20.4,130.6,-9.7,0,2018,5,10,16,11,18.386,0.7802,-0.3057,0.3762,0.3952
0.011,0.061,0.081,-17.6,86.3,-10.8,0,2018,5,10,16,11,18.424,0.7837,-0.2916,0.3868,0.3885
-0.008,0.033,0.026,-15.8,49.1,-11.2,0,2018,5,10,16,11,18.445,0.7855,-0.2824,0.394,0.3845
0.04,0.104,-0.06,-9.9,15.1,-13.1,0,2018,5,10,16,11,18.45,0.785,-0.2778,0.3988,0.3837
0.043,0.083,-0.067,-9.3,10.1,-10.6,0,2018,5,10,16,11,18.47,0.784,-0.2763,0.4016,0.384
-0.005,0.087,-0.047,-6.9,17.4,-8.3,0,2018,5,10,16,11,18.492,0.7832,-0.2738,0.4051,0.3839
-0.005,0.054,-0.062,-4.6,8.4,-6.1,0,2018,5,10,16,11,18.511,0.7827,-0.2714,0.4079,0.3836
0.004,0.042,-0.053,-1.3,-4.6,-5.2,0,2018,5,10,16,11,18.547,0.7819,-0.2709,0.4094,0.3839
0.003,0.032,-0.054,1.7,-13,-5.2,0,2018,5,10,16,11,18.566,0.7809,-0.2717,0.4097,0.3852
-0.023,0.007,-0.028,2.3,-12.2,-3.7,0,2018,5,10,16,11,18.57,0.78,-0.273,0.4091,0.3867
-0.044,-0.013,-0.031,2.6,-1.7,-1.1,0,2018,5,10,16,11,18.589,0.7797,-0.2735,0.4083,0.3877
-0.023,0.001,0.023,0,10.7,0.8,0,2018,5,10,16,11,18.609,0.7802,-0.2728,0.4084,0.3872
-0.019,0.008,0.045,-2.4,23.1,3.5,0,2018,5,10,16,11,18.63,0.7813,-0.2705,0.4095,0.3854
-0.027,0.029,0.002,-3.2,26.3,6.1,0,2018,5,10,16,11,18.65,0.7829,-0.2671,0.4114,0.3825
-0.023,0.005,0.013,-4.1,14.7,5,0,2018,5,10,16,11,18.671,0.784,-0.2648,0.4131,0.3799
-0.024,0.018,0.074,-6.2,8.4,5.3,0,2018,5,10,16,11,18.692,0.7847,-0.2636,0.4139,0.3785
-0.037,-0.081,0.057,-6.5,16.1,1.7,0,2018,5,10,16,11,18.711,0.7855,-0.2624,0.4147,0.3768
-0.024,-0.023,-0.014,-6.5,31.7,3.2,0,2018,5,10,16,11,18.731,0.7866,-0.26,0.4167,0.3741
-0.007,0.026,-0.013,-7.1,36.1,4.4,0,2018,5,10,16,11,18.749,0.7879,-0.2557,0.4197,0.3707
0.014,0.088,-0.008,-3.9,28.9,5,0,2018,5,10,16,11,18.768,0.7892,-0.2513,0.4227,0.3677
0.004,0.116,0.017,-2.5,8.5,7.1,0,2018,5,10,16,11,18.79,0.79,-0.2484,0.4245,0.3658
0,0.022,-0.028,1.2,-9.1,6.2,1023,2018,5,10,16,11,18.827,0.7902,-0.2486,0.4247,0.365
0.004,0.034,-0.055,3.9,-22.8,7.7,1023,2018,5,10,16,11,18.847,0.79,-0.2512,0.4233,0.3653
-0.008,0.113,-0.043,7.5,-46.7,9.8,1023,2018,5,10,16,11,18.851,0.7892,-0.2557,0.4208,0.3667
0.035,0.209,-0.07,21.1,-133.6,1.4,1023,2018,5,10,16,11,18.873,0.7867,-0.2668,0.4135,0.3725
0.039,0.4,-0.05,36.8,-285.9,-3.5,1023,2018,5,10,16,11,18.892,0.7785,-0.2934,0.3958,0.3887
0.027,0.326,-0.2,51.9,-432.2,-8.1,1023,2018,5,10,16,11,18.912,0.761,-0.3388,0.3645,0.4159
0.136,0.085,-0.323,52.9,-507.4,-8,1023,2018,5,10,16,11,18.933,0.7325,-0.3972,0.3219,0.4493
0.034,-0.035,-0.404,57.5,-509.4,-4.4,1023,2018,5,10,16,11,18.968,0.6961,-0.4569,0.2735,0.4814
-0.052,-0.471,-0.165,49,-408,3.5,0,2018,5,10,16,11,18.99,0.6593,-0.5073,0.2274,0.506
-0.044,-0.353,-0.102,36.8,-265.3,12.7,0,2018,5,10,16,11,18.995,0.631,-0.5416,0.1925,0.5209
-0.015,-0.146,-0.236,32.8,-149.1,20.5,0,2018,5,10,16,11,19.014,0.6141,-0.5612,0.169,0.5285
-0.037,0.075,0.02,30.5,-124.6,19.1,0,2018,5,10,16,11,19.033,0.6036,-0.5728,0.1521,0.5332
-0.038,0.066,0.127,25.6,-148.3,13.6,0,2018,5,10,16,11,19.069,0.5927,-0.584,0.1349,0.5378
-0.035,-0.03,0.046,20.1,-182.2,11.6,0,2018,5,10,16,11,19.087,0.5771,-0.599,0.1152,0.5429
-0.044,-0.166,-0.103,15.4,-163.2,12.1,0,2018,5,10,16,11,19.089,0.56,-0.6152,0.0951,0.5465
-0.033,-0.116,-0.149,13.3,-97.2,16.9,0,2018,5,10,16,11,19.121,0.5475,-0.6267,0.08,0.5486
-0.039,0.03,-0.038,12.1,-59.4,21.1,0,2018,5,10,16,11,19.143,0.5413,-0.6331,0.0697,0.5488
-0.049,-0.004,0.038,9.6,-53.1,22.4,0,2018,5,10,16,11,19.153,0.5376,-0.6373,0.0607,0.5486
-0.064,-0.055,-0.015,5.3,-53.2,21.5,0,2018,5,10,16,11,19.186,0.5343,-0.6415,0.052,0.5478
-0.034,-0.034,-0.074,3.3,-38.5,23.6,0,2018,5,10,16,11,19.206,0.5314,-0.6461,0.0441,0.546
0.004,-0.011,-0.019,1.6,-16.2,24.3,0,2018,5,10,16,11,19.214,0.5307,-0.6488,0.0385,0.5439
-0.012,0.125,-0.013,6.5,-24.6,22.7,0,2018,5,10,16,11,19.23,0.5311,-0.6501,0.0341,0.5421
-0.044,-0.11,-0.016,4,-41.3,10.3,0,2018,5,10,16,11,19.265,0.5283,-0.6534,0.0285,0.5412
-0.003,-0.182,-0.033,1.2,-32.5,3.9,0,2018,5,10,16,11,19.285,0.5251,-0.6569,0.0229,0.5404
0.031,-0.161,-0.081,1.5,-3.9,-1.4,0,2018,5,10,16,11,19.29,0.5231,-0.6587,0.0207,0.5402
0.033,-0.016,-0.041,3.6,13.5,-3.9,0,2018,5,10,16,11,19.326,0.5237,-0.6582,0.0211,0.5403
-0.01,0.057,-0.007,4.8,5.8,-1.9,0,2018,5,10,16,11,19.346,0.5246,-0.6567,0.0222,0.5411
0.018,0.033,-0.007,4.7,0.5,2.5,0,2018,5,10,16,11,19.351,0.5247,-0.6562,0.0221,0.5417
0.029,0.005,-0.037,5.2,13.1,6.1,0,2018,5,10,16,11,19.386,0.5259,-0.6551,0.0219,0.5419
0.011,-0.022,-0.007,5.4,28.4,5.8,0,2018,5,10,16,11,19.406,0.5289,-0.6528,0.0229,0.5417
0.014,0.057,0.031,7.5,19.4,3,0,2018,5,10,16,11,19.413,0.5325,-0.6495,0.0243,0.5421
0.022,0.001,0.003,8.4,0,0,1023,2018,5,10,16,11,19.449,0.5335,-0.6478,0.0246,0.5431
-0.002,-0.015,-0.02,6.5,10,0.5,1023,2018,5,10,16,11,19.469,0.5341,-0.6467,0.0239,0.5439
-0.008,-0.026,0.007,1.1,45.1,2.4,1023,2018,5,10,16,11,19.472,0.5373,-0.6439,0.0257,0.5439
0.008,0.074,-0.047,-7.3,103.3,4.7,1023,2018,5,10,16,11,19.506,0.546,-0.6373,0.0325,0.5427
0.129,0.424,-0.027,-13.5,103.2,-3.5,1023,2018,5,10,16,11,19.527,0.558,-0.6278,0.0441,0.5407
0.018,0.454,-0.006,-14.9,45.5,-11.9,1023,2018,5,10,16,11,19.532,0.5652,-0.6218,0.0536,0.5393
-0.183,0.245,0.079,-14.1,0.7,-9.7,1023,2018,5,10,16,11,19.571,0.566,-0.6211,0.058,0.5388
-0.3,-0.056,0.125,-19.6,-4.7,-0.2,1023,2018,5,10,16,11,19.59,0.5647,-0.6232,0.0597,0.5375
-0.279,-0.146,0.023,-28.4,59.7,22.7,1023,2018,5,10,16,11,19.593,0.568,-0.6235,0.0633,0.5333
-0.257,0.15,0.002,-36.6,80.7,38.7,1023,2018,5,10,16,11,19.632,0.5791,-0.619,0.0705,0.5256
-0.179,0.32,0.098,-44.3,13.9,51,0,2018,5,10,16,11,19.651,0.5883,-0.6182,0.0745,0.5158
-0.148,0.248,0.038,-52.4,-77.4,58.9,0,2018,5,10,16,11,19.655,0.5885,-0.6272,0.0706,0.5051
-0.164,0.039,-0.155,-60.4,-124.6,62.1,0,2018,5,10,16,11,19.689,0.5813,-0.6438,0.0603,0.4938
-0.082,-0.103,-0.234,-62.1,-107.2,65.3,0,2018,5,10,16,11,19.708,0.5725,-0.6617,0.0491,0.4814
-0.044,-0.054,-0.26,-58.7,-78.9,67.3,0,2018,5,10,16,11,19.718,0.5669,-0.6764,0.0399,0.4684
-0.004,-0.073,-0.31,-45.9,-77.2,66.7,0,2018,5,10,16,11,19.733,0.5629,-0.6886,0.031,0.456
0.015,-0.105,-0.368,-28.4,-84.3,66.3,0,2018,5,10,16,11,19.752,0.5579,-0.7,0.0203,0.4452
0.001,-0.132,-0.292,-12.2,-73.1,66.4,0,2018,5,10,16,11,19.79,0.553,-0.7095,0.0079,0.4366
-0.007,-0.128,-0.099,-6,-49.2,67.8,0,2018,5,10,16,11,19.81,0.5504,-0.7161,-0.0042,0.4291
-0.026,-0.106,0.008,-5.9,-27.7,68.6,0,2018,5,10,16,11,19.817,0.5512,-0.72,-0.0153,0.4211
0.009,0,-0.063,-3.5,-38.7,71,0,2018,5,10,16,11,19.856,0.5524,-0.7233,-0.026,0.4133
0.009,0.027,-0.084,3.4,-50.8,77.6,0,2018,5,10,16,11,19.878,0.5513,-0.7279,-0.0386,0.4056
-0.026,-0.156,-0.009,7.6,-31.5,81.7,0,2018,5,10,16,11,19.882,0.5512,-0.7313,-0.0527,0.398
-0.036,-0.227,0.05,3.6,16.9,85.1,0,2018,5,10,16,11,19.899,0.5569,-0.7303,-0.0653,0.39
-0.026,-0.096,0.102,-2.1,43.2,85.7,0,2018,5,10,16,11,19.934,0.568,-0.7252,-0.0744,0.3818
-0.016,0.074,0.156,-7.7,32.7,88.5,0,2018,5,10,16,11,19.953,0.5794,-0.7199,-0.0822,0.3731
-0.031,0.086,0.086,-11.8,2.8,92.5,0,2018,5,10,16,11,19.956,0.5879,-0.717,-0.0912,0.3631
-0.049,-0.111,0.014,-5.8,-19.4,90.6,0,2018,5,10,16,11,19.99,0.5929,-0.7168,-0.1027,0.3522
-0.009,-0.221,0.016,-1.5,-15.3,84.7,0,2018,5,10,16,11,20.01,0.5963,-0.7171,-0.115,0.3418
0.017,-0.2,0.018,-1.6,5.4,77.3,0,2018,5,10,16,11,20.016,0.6008,-0.7158,-0.1256,0.3328
0.041,-0.101,-0.036,-1.4,31.7,74,0,2018,5,10,16,11,20.05,0.6076,-0.7122,-0.1336,0.3249
0.065,-0.027,-0.015,2.3,62.8,75.5,0,2018,5,10,16,11,20.071,0.6176,-0.7054,-0.1401,0.3182
0.076,-0.067,0.03,4,102.2,77.8,0,2018,5,10,16,11,20.076,0.6318,-0.6943,-0.1449,0.3126
0.093,-0.074,0.009,3.6,155,78.7,0,2018,5,10,16,11,20.108,0.6513,-0.6775,-0.1472,0.308
0.092,-0.026,-0.058,4.8,204.2,78.5,1023,2018,5,10,16,11,20.128,0.6763,-0.6544,-0.1467,0.3044
0.114,0.01,-0.113,10.1,243.5,76.6,1023,2018,5,10,16,11,20.141,0.7051,-0.6252,-0.1441,0.3017
0.147,0.101,-0.136,17.1,278.8,75.6,1023,2018,5,10,16,11,20.177,0.7365,-0.5898,-0.14,0.3
0.142,0.087,-0.139,23.6,308.3,72,1023,2018,5,10,16,11,20.178,0.7689,-0.5485,-0.1346,0.2994
0.121,0.054,-0.134,31.1,325.2,63.5,1023,2018,5,10,16,11,20.197,0.8009,-0.5021,-0.1279,0.2999
0.123,0.122,-0.186,37.3,340,54.9,1023,2018,5,10,16,11,20.235,0.8309,-0.4515,-0.1203,0.3017
0.115,0.276,-0.243,47.9,341,47.3,1023,2018,5,10,16,11,20.255,0.858,-0.398,-0.1124,0.3043
0.093,0.197,-0.197,55.7,360.8,37,1023,2018,5,10,16,11,20.26,0.8818,-0.3413,-0.1042,0.3081
0.089,0.323,-0.093,64.1,370.7,34.1,1023,2018,5,10,16,11,20.296,0.9027,-0.2797,-0.0956,0.3125
0.085,0.538,-0.066,74.6,336,38.3,0,2018,5,10,16,11,20.315,0.919,-0.2187,-0.0888,0.3156
0.034,0.615,-0.032,85.5,281.1,45.3,0,2018,5,10,16,11,20.318,0.9304,-0.1639,-0.0862,0.3162
-0.054,0.339,-0.015,91.1,233.5,44.1,0,2018,5,10,16,11,20.353,0.9378,-0.1164,-0.0874,0.3149
-0.004,0.44,0.036,99.2,168.5,45.3,0,2018,5,10,16,11,20.372,0.9421,-0.0774,-0.0928,0.3125
0.024,0.377,0.061,106.3,97.9,51.4,0,2018,5,10,16,11,20.379,0.9444,-0.0497,-0.1034,0.3078
-0.036,0.053,0.138,102.8,78.9,58.2,0,2018,5,10,16,11,20.414,0.9459,-0.029,-0.1168,0.301
-0.148,-0.298,0.236,89.3,132.3,54.9,0,2018,5,10,16,11,20.436,0.9472,-0.0055,-0.127,0.2941
-0.073,0.099,0.179,86.2,145.5,55.8,0,2018,5,10,16,11,20.437,0.9477,0.0246,-0.1342,0.2882
-0.065,0.345,0.077,81.5,78.9,58.5,0,2018,5,10,16,11,20.474,0.9478,0.0493,-0.142,0.2809
-0.021,0.176,-0.011,77.2,14.7,61.6,0,2018,5,10,16,11,20.495,0.9483,0.0616,-0.1526,0.2712
-0.067,-0.153,0.114,66.6,25.5,65.4,0,2018,5,10,16,11,20.499,0.949,0.069,-0.1634,0.2602
-0.084,0.025,0.199,58.4,72.8,71.3,0,2018,5,10,16,11,20.534,0.9496,0.0824,-0.1705,0.2497
-0.052,0.284,0.061,55.8,54.2,79.9,0,2018,5,10,16,11,20.553,0.95,0.0991,-0.1757,0.2382
-0.022,0.18,-0.063,54.2,5.8,81.9,0,2018,5,10,16,11,20.562,0.9511,0.1083,-0.1822,0.2245
-0.013,0.015,-0.017,53.7,0.7,82.2,0,2018,5,10,16,11,20.595,0.9524,0.1134,-0.1898,0.2096
-0.07,0.048,0.097,53.6,19.6,83,0,2018,5,10,16,11,20.615,0.9532,0.1203,-0.1969,0.1951
-0.208,0.002,0.194,46.6,28,80.8,0,2018,5,10,16,11,20.622,0.9534,0.1294,-0.2031,0.1812
-0.146,0.004,0.23,37.6,16.8,71.8,0,2018,5,10,16,11,20.654,0.9536,0.1373,-0.2082,0.1684
-0.111,0.002,0.241,27.6,4.2,63.8,0,2018,5,10,16,11,20.676,0.9541,0.142,-0.2118,0.1568
-0.076,-0.049,0.185,20.6,4.6,57,0,2018,5,10,16,11,20.681,0.9548,0.1451,-0.2141,0.1463
-0.053,-0.025,0.172,17,13.2,51.3,0,2018,5,10,16,11,20.717,0.9552,0.1488,-0.2155,0.1374
-0.021,-0.007,0.163,14.7,20,49.3,0,2018,5,10,16,11,20.737,0.9555,0.1533,-0.2162,0.1293
-0.006,0.067,0.085,14.4,28,52.7,0,2018,5,10,16,11,20.74,0.9554,0.1598,-0.2163,0.1213
-0.015,0.143,0.08,15.1,20.1,59.6,0,2018,5,10,16,11,20.777,0.9552,0.1674,-0.2163,0.1121
-0.082,0.088,0.136,9.7,2.2,67.8,0,2018,5,10,16,11,20.796,0.9555,0.1728,-0.2162,0.1013
-0.187,-0.005,0.191,-0.9,-14.2,74.3,1023,2018,5,10,16,11,20.801,0.9567,0.1744,-0.2152,0.089
-0.169,-0.063,0.118,-12.9,-26.7,76,1023,2018,5,10,16,11,20.836,0.9586,0.1732,-0.2124,0.0759
-0.144,0.019,0.047,-20.2,-36,72.2,1023,2018,5,10,16,11,20.858,0.961,0.1706,-0.2082,0.063
-0.15,0.009,0.072,-29.4,-58.3,65.3,1023,2018,5,10,16,11,20.862,0.9637,0.1652,-0.2033,0.0506
-0.224,-0.086,0.17,-40.3,-71.2,63.9,1023,2018,5,10,16,11,20.896,0.9672,0.156,-0.1963,0.0385
-0.188,-0.047,0.074,-51.9,-93.4,64.6,1023,2018,5,10,16,11,20.918,0.9713,0.1441,-0.1872,0.026
-0.122,-0.167,-0.028,-60.9,-107.2,59.5,1023,2018,5,10,16,11,20.92,0.9758,0.1283,-0.1764,0.0135
-0.079,-0.143,-0.084,-61.8,-93,50.3,1023,2018,5,10,16,11,20.956,0.9798,0.1126,-0.1649,0.0025
-0.099,-0.106,-0.083,-60.2,-69.6,43.5,1023,2018,5,10,16,11,20.977,0.983,0.1001,-0.1535,-0.0065
-0.091,-0.05,-0.099,-58.4,-74.9,37.3,0,2018,5,10,16,11,20.981,0.9856,0.0892,-0.1426,-0.0143
-0.081,-0.058,-0.099,-54.9,-101.8,30.8,0,2018,5,10,16,11,21.016,0.988,0.0748,-0.1333,-0.0213
-0.046,-0.093,-0.15,-52.8,-114.9,26.5,0,2018,5,10,16,11,21.036,0.9902,0.0561,-0.124,-0.028
-0.06,-0.079,-0.148,-48.9,-96.9,23.9,0,2018,5,10,16,11,21.044,0.992,0.0385,-0.1145,-0.0341
-0.078,-0.007,-0.115,-48.5,-87.4,25.2,0,2018,5,10,16,11,21.081,0.9932,0.0235,-0.1064,-0.0398
-0.044,-0.021,-0.131,-47.6,-100.2,26.4,0,2018,5,10,16,11,21.1,0.994,0.0084,-0.0981,-0.0459
0.06,0.027,-0.14,-41,-122.7,20.8,0,2018,5,10,16,11,21.103,0.9945,-0.01,-0.0896,-0.0519
0.043,-0.065,-0.125,-34.6,-112.8,16,0,2018,5,10,16,11,21.139,0.9945,-0.0305,-0.0815,-0.057
0.013,-0.067,-0.132,-29,-69.9,13.5,0,2018,5,10,16,11,21.159,0.9942,-0.0466,-0.075,-0.0609
0.044,-0.03,-0.21,-20.6,-37.8,12.1,0,2018,5,10,16,11,21.162,0.9939,-0.0556,-0.0701,-0.064
0.082,0.016,-0.172,-9.2,-28.8,8.9,0,2018,5,10,16,11,21.197,0.9937,-0.0608,-0.0667,-0.0663
0.025,-0.019,-0.09,2.3,-37.8,5.7,0,2018,5,10,16,11,21.218,0.9933,-0.0661,-0.0654,-0.0679
0.017,0.02,-0.082,9.8,-58.2,3.5,0,2018,5,10,16,11,21.223,0.9926,-0.0744,-0.0661,-0.0691
-0.004,-0.026,-0.058,11.1,-65,4.3,0,2018,5,10,16,11,21.258,0.9915,-0.0857,-0.0672,-0.0703
-0.034,-0.068,0,9.2,-50.5,4.6,0,2018,5,10,16,11,21.279,0.9903,-0.0965,-0.0686,-0.0716
-0.046,-0.103,0.053,2.9,-27.9,4.2,0,2018,5,10,16,11,21.287,0.9894,-0.1039,-0.0694,-0.0727
-0.066,-0.011,0.061,-4.8,-20.7,5.1,0,2018,5,10,16,11,21.307,0.9889,-0.1079,-0.0694,-0.0738
-0.062,0.036,0.002,-12,-36.7,8.4,0,2018,5,10,16,11,21.327,0.9884,-0.1121,-0.0682,-0.0756
-0.025,-0.03,-0.051,-15.2,-71.7,9.2,0,2018,5,10,16,11,21.347,0.9874,-0.1206,-0.0658,-0.078
0.045,-0.074,-0.054,-10.6,-106.2,4.1,0,2018,5,10,16,11,21.365,0.9853,-0.1365,-0.0622,-0.0804
0.032,-0.047,0.025,-6.5,-124.7,-0.3,0,2018,5,10,16,11,21.404,0.9824,-0.1569,-0.0587,-0.082
-0.008,-0.087,0.056,-8.3,-126.3,-2.1,0,2018,5,10,16,11,21.409,0.9787,-0.1787,-0.0554,-0.0832
0.048,-0.129,-0.003,-4.6,-136,-1.5,0,2018,5,10,16,11,21.425,0.9745,-0.2012,-0.0519,-0.0842
0.065,0.016,0.005,3.6,-191,-3.1,0,2018,5,10,16,11,21.461,0.9684,-0.2289,-0.049,-0.085
0.079,0.224,0.014,6.4,-249.1,3.5,0,2018,5,10,16,11,21.48,0.9589,-0.266,-0.0464,-0.0865
0.028,0.213,-0.003,6.7,-275.7,4.3,0,2018,5,10,16,11,21.486,0.9455,-0.31,-0.0437,-0.089
-0.023,0.135,-0.076,9,-288.8,0.7,0,2018,5,10,16,11,21.52,0.9291,-0.3558,-0.041,-0.0911
-0.016,0.099,-0.139,10.2,-280.5,0,1023,2018,5,10,16,11,21.539,0.9103,-0.4014,-0.0384,-0.0925
-0.003,0.069,-0.155,10.6,-251.8,4.3,1023,2018,5,10,16,11,21.548,0.8903,-0.4441,-0.0361,-0.0937
-0.027,0.057,-0.166,8.6,-205.4,8.6,1023,2018,5,10,16,11,21.584,0.8712,-0.4802,-0.0347,-0.0955
-0.003,-0.008,-0.163,7.2,-140.3,11.6,1023,2018,5,10,16,11,21.586,0.8559,-0.5067,-0.0338,-0.0975
-0.039,-0.072,-0.1,6.2,-76.4,12.1,1023,2018,5,10,16,11,21.62,0.8453,-0.5236,-0.0342,-0.0993
-0.025,-0.013,-0.044,5.9,-36.6,14.6,1023,2018,5,10,16,11,21.642,0.8397,-0.5323,-0.0356,-0.1012
0.009,-0.01,0.026,5.6,-16.7,19.7,1023,2018,5,10,16,11,21.647,0.8367,-0.5364,-0.0376,-0.1034
0.022,0.039,0.056,3.3,-4.1,24.5,1023,2018,5,10,16,11,21.68,0.8355,-0.5374,-0.04,-0.1064
0.033,0.075,0.036,5.8,4.8,28.9,1023,2018,5,10,16,11,21.701,0.8353,-0.5368,-0.0428,-0.1099
-0.012,0.027,0,7.8,1.8,31.3,1023,2018,5,10,16,11,21.706,0.8351,-0.536,-0.0467,-0.114
-0.062,-0.069,0.008,10,6.4,27.8,0,2018,5,10,16,11,21.744,0.8345,-0.5357,-0.0511,-0.1177
-0.073,-0.15,0.027,9.6,30.6,22.1,0,2018,5,10,16,11,21.765,0.8352,-0.5336,-0.0556,-0.1205
-0.045,-0.113,0.003,10,61.3,16.8,0,2018,5,10,16,11,21.768,0.8386,-0.5273,-0.0599,-0.1221
-0.036,-0.08,-0.026,11.8,89.6,13,0,2018,5,10,16,11,21.803,0.8448,-0.5167,-0.0646,-0.1225
-0.068,-0.057,-0.023,13.3,108.7,7.9,0,2018,5,10,16,11,21.822,0.8529,-0.5027,-0.0699,-0.122
-0.065,-0.083,-0.046,14.8,125.9,3.8,0,2018,5,10,16,11,21.829,0.8623,-0.4859,-0.0754,-0.1204
-0.032,-0.002,0.007,14.1,138.9,1.7,0,2018,5,10,16,11,21.863,0.8729,-0.4664,-0.0809,-0.1179
-0.006,0.058,0.023,12.9,137.2,1.9,0,2018,5,10,16,11,21.884,0.8838,-0.445,-0.0862,-0.1153
-0.053,-0.056,0.044,6.9,136.2,0.5,0,2018,5,10,16,11,21.887,0.894,-0.4238,-0.0908,-0.1127
-0.055,-0.09,0.011,2.5,146.2,-1.3,0,2018,5,10,16,11,21.923,0.9041,-0.4017,-0.0945,-0.11
-0.027,0.005,0.023,-1.5,149.6,-3.2,0,2018,5,10,16,11,21.945,0.9142,-0.3783,-0.0975,-0.1072
-0.028,0.003,0.102,-5.7,146.8,-7.9,0,2018,5,10,16,11,21.948,0.9241,-0.3538,-0.0994,-0.1042
-0.082,-0.027,0.134,-12,145.4,-15.8,0,2018,5,10,16,11,21.982,0.9335,-0.3292,-0.1,-0.1003
-0.013,0.138,0.059,-6.2,119.6,-19.1,0,2018,5,10,16,11,22.002,0.942,-0.3056,-0.0999,-0.0956
0.063,0.188,0.007,4.8,81.7,-15.7,0,2018,5,10,16,11,22.01,0.9474,-0.2895,-0.1007,-0.0909
-0.005,0.068,0.05,-0.6,80.7,-12.8,0,2018,5,10,16,11,22.043,0.9518,-0.2758,-0.1016,-0.0871
0.018,0.159,0.146,-1.1,77.5,-13.9,0,2018,5,10,16,11,22.064,0.9561,-0.2615,-0.102,-0.0836
0.044,0.207,0.105,-1.9,51.9,-7.8,0,2018,5,10,16,11,22.067,0.9593,-0.2503,-0.1023,-0.0806
0.1,0.111,0.04,-1.2,24.4,-6.1,0,2018,5,10,16,11,22.103,0.961,-0.2442,-0.1022,-0.0788
0.094,-0.014,0.014,-0.7,27.5,-5.7,0,2018,5,10,16,11,22.123,0.9623,-0.24,-0.1015,-0.0773
0.09,0.029,0.001,3.4,37.1,-6.9,0,2018,5,10,16,11,22.131,0.9639,-0.2341,-0.101,-0.0753
0.087,0.098,0.004,6.5,35,-6.3,0,2018,5,10,16,11,22.168,0.9658,-0.2271,-0.1013,-0.0732
0.089,0.125,0.003,6.8,25.5,-4.9,0,2018,5,10,16,11,22.189,0.9669,-0.222,-0.1026,-0.0714
0.087,0.099,0.022,4.8,24.9,-2.8,0,2018,5,10,16,11,22.193,0.9682,-0.2165,-0.1032,-0.0698
0.081,0.111,0.038,4,15.8,0.4,0,2018,5,10,16,11,22.212,0.9691,-0.2124,-0.1042,-0.0689
0.102,0.105,0.043,2.9,3.2,3.7,1023,2018,5,10,16,11,22.233,0.9694,-0.2105,-0.1051,-0.069
0.056,0.062,0.105,0.1,-3.2,5.1,1023,2018,5,10,16,11,22.27,0.9695,-0.2097,-0.105,-0.0697
0.031,0.066,0.126,-3.7,-17.4,5.5,1023,2018,5,10,16,11,22.287,0.9695,-0.2097,-0.1042,-0.0708
0.062,0.057,0.067,-5.5,-40.5,4.1,1023,2018,5,10,16,11,22.289,0.9688,-0.2136,-0.1025,-0.0723
0.086,0.079,-0.003,-1.4,-61.3,3,1023,2018,5,10,16,11,22.323,0.9671,-0.2212,-0.1007,-0.0738
0.087,-0.047,-0.098,6.8,-71.8,0.3,1023,2018,5,10,16,11,22.343,0.9644,-0.233,-0.0996,-0.075
0.091,-0.179,-0.121,5.7,-28.4,-0.2,1023,2018,5,10,16,11,22.35,0.9622,-0.2416,-0.1,-0.0756
0.105,-0.109,-0.068,3.5,29.6,3.5,1023,2018,5,10,16,11,22.385,0.9623,-0.2409,-0.1009,-0.0754
0.118,0.147,-0.04,3,50.2,11.3,0,2018,5,10,16,11,22.404,0.9642,-0.2327,-0.1019,-0.0755
0.112,0.236,-0.038,6.1,11.8,16.7,0,2018,5,10,16,11,22.411,0.9654,-0.2263,-0.1037,-0.077
0.096,0,-0.031,5.4,-12.1,22.8,0,2018,5,10,16,11,22.449,0.9649,-0.2266,-0.1053,-0.0801
-0.024,-0.235,-0.118,3.3,21.6,21.6,0,2018,5,10,16,11,22.468,0.9646,-0.2257,-0.1067,-0.0837
0.075,-0.244,-0.103,2.3,82.4,21.3,0,2018,5,10,16,11,22.473,0.9664,-0.2162,-0.1086,-0.086
0.089,0.266,0.044,7,77.4,21.3,0,2018,5,10,16,11,22.51,0.9694,-0.2,-0.1116,-0.0876
0.038,0.111,0.158,5.8,15.4,17.7,0,2018,5,10,16,11,22.533,0.9705,-0.1919,-0.1141,-0.0896
0.051,-0.021,0.106,3.2,1.7,20.1,0,2018,5,10,16,11,22.534,0.9706,-0.19,-0.1148,-0.0924
0.037,-0.045,0.095,2.2,-20.5,18,0,2018,5,10,16,11,22.567,0.9701,-0.1906,-0.1151,-0.0956
-0.019,-0.047,0.088,0.5,-38.3,13.2,0,2018,5,10,16,11,22.586,0.9689,-0.1952,-0.1149,-0.0985
-0.006,0.052,0.102,-2.5,-42.8,9.9,0,2018,5,10,16,11,22.592,0.9675,-0.2013,-0.1145,-0.1012
-0.033,0.019,0.102,-7.8,-34.7,9.3,0,2018,5,10,16,11,22.625,0.9662,-0.2068,-0.1133,-0.1037
-0.03,0.097,0.098,-10.9,-29.7,13.3,0,2018,5,10,16,11,22.646,0.9654,-0.2101,-0.1116,-0.1066
-0.012,0.123,0.006,-10.9,-50.4,14.6,0,2018,5,10,16,11,22.653,0.9641,-0.2147,-0.1098,-0.1103
-0.023,0.077,-0.062,-10.4,-53.5,16.5,0,2018,5,10,16,11,22.688,0.9621,-0.2223,-0.1079,-0.1144
-0.034,0.095,-0.003,-10.6,-57.8,14.2,0,2018,5,10,16,11,22.708,0.9601,-0.2297,-0.1063,-0.1186
-0.009,0.026,0.064,-6.6,-72.7,9.3,0,2018,5,10,16,11,22.715,0.9576,-0.2392,-0.1041,-0.1221
-0.065,-0.068,0.051,-7.6,-65.1,11.9,0,2018,5,10,16,11,22.752,0.9545,-0.2504,-0.1019,-0.1254
-0.07,-0.03,0.011,-6.6,-57.7,9.2,0,2018,5,10,16,11,22.772,0.9517,-0.26,-0.1004,-0.1284
-0.074,-0.032,-0.019,-4.3,-62.3,7.5,0,2018,5,10,16,11,22.773,0.9487,-0.2699,-0.0991,-0.1311
-0.1,-0.052,-0.046,-1.2,-66.9,3.1,0,2018,5,10,16,11,22.808,0.9452,-0.281,-0.0982,-0.1333
-0.143,-0.061,-0.065,0.8,-61.9,-3.9,0,2018,5,10,16,11,22.828,0.9421,-0.2914,-0.0967,-0.1344
-0.14,-0.083,-0.09,0.5,-54.9,-12.1,0,2018,5,10,16,11,22.833,0.9392,-0.3014,-0.095,-0.1339
-0.103,-0.067,-0.1,1.8,-42.5,-17.3,0,2018,5,10,16,11,22.869,0.937,-0.3094,-0.0932,-0.1321
-0.107,-0.091,-0.054,1.2,-30.4,-20.4,0,2018,5,10,16,11,22.891,0.9355,-0.3156,-0.0916,-0.1295
-0.102,-0.07,-0.027,0.3,-23.5,-21.8,0,2018,5,10,16,11,22.895,0.9342,-0.3208,-0.0904,-0.1264
-0.079,-0.019,-0.046,0,-22.6,-21.6,1023,2018,5,10,16,11,22.929,0.9332,-0.3253,-0.0895,-0.1233
-0.018,0.046,-0.063,-0.1,-34.8,-19.8,1023,2018,5,10,16,11,22.95,0.9318,-0.3305,-0.0883,-0.1205
-0.019,-0.045,-0.066,-0.9,-36,-19.5,1023,2018,5,10,16,11,22.955,0.9299,-0.3373,-0.0866,-0.1179
-0.03,-0.057,-0.043,-2,-19.9,-20.7,1023,2018,5,10,16,11,22.99,0.9285,-0.3426,-0.0848,-0.115
-0.033,-0.065,-0.013,-4,-4.1,-23.6,1023,2018,5,10,16,11,23.011,0.9281,-0.3451,-0.083,-0.1116
0.044,-0.047,-0.06,-5.5,32.8,-18,1023,2018,5,10,16,11,23.013,0.9291,-0.3443,-0.0807,-0.1079
0.012,0.215,-0.025,-5.4,50.7,-8,1023,2018,5,10,16,11,23.047,0.9323,-0.3364,-0.08,-0.1055
-0.034,0.089,0.082,-12.1,37.8,-7.8,1023,2018,5,10,16,11,23.068,0.9352,-0.3289,-0.0791,-0.1043
-0.017,-0.026,0.068,-13.9,48.6,-6.7,1023,2018,5,10,16,11,23.076,0.9379,-0.3216,-0.0774,-0.1034
0.021,0,-0.017,-16.7,71.7,-2.3,1023,2018,5,10,16,11,23.097,0.9415,-0.3117,-0.0758,-0.1027
0.084,0.106,-0.017,-15,64.8,-0.2,0,2018,5,10,16,11,23.118,0.9457,-0.2994,-0.0739,-0.1023
0.082,0.149,-0.008,-11.1,41.6,2.6,0,2018,5,10,16,11,23.157,0.9487,-0.29,-0.0725,-0.1024
0.09,0.116,-0.051,-2,28.7,7,0,2018,5,10,16,11,23.176,0.9505,-0.2841,-0.072,-0.103
0.105,0.028,-0.074,-1.8,33.2,11.8,0,2018,5,10,16,11,23.181,0.9519,-0.2788,-0.072,-0.1041
0.112,0.057,-0.04,-2.1,50.7,15.6,0,2018,5,10,16,11,23.217,0.9538,-0.2716,-0.0721,-0.1057
0.1,0.12,-0.039,1.2,50.3,18.9,0,2018,5,10,16,11,23.237,0.956,-0.2625,-0.0731,-0.1078
0.056,0.004,0.052,-0.4,45.5,19.4,0,2018,5,10,16,11,23.239,0.9578,-0.2543,-0.0748,-0.1104
0.036,-0.098,0.054,-4.6,55.8,17.7,0,2018,5,10,16,11,23.272,0.9597,-0.2458,-0.0756,-0.1128
0.045,-0.051,0.015,-4.1,56.2,15.4,0,2018,5,10,16,11,23.293,0.9618,-0.2362,-0.0761,-0.1147
0.055,0.04,0.02,-2.3,36.8,12.6,0,2018,5,10,16,11,23.296,0.9636,-0.2279,-0.0766,-0.1164
0.058,-0.001,-0.045,1.2,9.9,8.3,0,2018,5,10,16,11,23.332,0.9643,-0.2239,-0.0769,-0.1179
0.088,-0.09,-0.104,7.2,5,3.4,0,2018,5,10,16,11,23.35,0.9643,-0.2235,-0.0776,-0.1185
0.046,-0.087,-0.038,13.5,20.3,-1,0,2018,5,10,16,11,23.357,0.9646,-0.2215,-0.0796,-0.118
-0.029,-0.116,0.071,14.4,26.7,-9.3,0,2018,5,10,16,11,23.393,0.9654,-0.2184,-0.0822,-0.1159
-0.051,-0.081,0.065,12.5,35.3,-14.9,0,2018,5,10,16,11,23.413,0.9665,-0.2141,-0.0847,-0.1127
-0.018,-0.019,0.033,12.1,32.6,-19.7,0,2018,5,10,16,11,23.42,0.9679,-0.2089,-0.0869,-0.1088
-0.033,-0.06,-0.003,10.1,36.1,-24.2,0,2018,5,10,16,11,23.454,0.9693,-0.2041,-0.0888,-0.104
-0.049,-0.04,-0.02,10.8,48.5,-27.2,0,2018,5,10,16,11,23.475,0.9709,-0.198,-0.0907,-0.0985
-0.076,-0.032,-0.005,11.8,54.7,-35,0,2018,5,10,16,11,23.476,0.973,-0.1897,-0.093,-0.092
-0.06,0.042,0.048,12.3,46.4,-44.2,0,2018,5,10,16,11,23.51,0.9751,-0.1816,-0.0952,-0.0839
-0.036,0.17,0.086,12.8,30.9,-46.1,0,2018,5,10,16,11,23.531,0.9768,-0.175,-0.0968,-0.0751
-0.032,0.261,0.068,14.2,-1.5,-45,0,2018,5,10,16,11,23.541,0.9777,-0.1728,-0.098,-0.0666
-0.033,0.316,0.107,18.6,-34.9,-42.2,0,2018,5,10,16,11,23.579,0.9774,-0.1766,-0.0992,-0.0588
-0.072,0.291,0.097,24.7,-69,-38.3,0,2018,5,10,16,11,23.599,0.9758,-0.1866,-0.1012,-0.0522
-0.084,0.22,0.043,31.5,-97.7,-34.7,0,2018,5,10,16,11,23.604,0.9727,-0.2016,-0.104,-0.0466
-0.123,0.129,0.02,43.4,-116.3,-36.7,1023,2018,5,10,16,11,23.64,0.9684,-0.2205,-0.1083,-0.0411
-0.105,0.004,-0.004,55.4,-127.3,-41.8,1023,2018,5,10,16,11,23.66,0.9628,-0.2418,-0.1146,-0.0348
-0.117,-0.019,-0.005,65.3,-135.7,-43,1023,2018,5,10,16,11,23.665,0.956,-0.2648,-0.123,-0.0277
-0.087,-0.135,-0.055,72.5,-155.7,-45.7,1023,2018,5,10,16,11,23.697,0.9473,-0.2906,-0.1326,-0.0203
-0.107,-0.179,-0.115,76.2,-156.5,-40.9,1023,2018,5,10,16,11,23.717,0.9374,-0.3174,-0.1421,-0.0129
-0.081,-0.161,-0.153,79.3,-150.8,-35.3,1023,2018,5,10,16,11,23.719,0.9266,-0.3435,-0.1525,-0.0061
-0.073,-0.192,-0.2,79.5,-129.5,-33.2,1023,2018,5,10,16,11,23.754,0.9157,-0.3671,-0.1631,0.0003
-0.05,-0.188,-0.181,78.7,-96.7,-35.6,1023,2018,5,10,16,11,23.773,0.906,-0.3858,-0.1736,0.0076
-0.071,-0.225,-0.154,77,-70,-40.2,1023,2018,5,10,16,11,23.781,0.8979,-0.3996,-0.1835,0.0165
-0.043,-0.176,-0.138,73.4,-43.8,-43.2,1023,2018,5,10,16,11,23.818,0.8914,-0.4092,-0.1926,0.0265
-0.014,-0.132,-0.116,68.6,-30.4,-45.3,0,2018,5,10,16,11,23.838,0.8862,-0.4158,-0.2006,0.0373
-0.019,-0.115,-0.034,63.8,-27.4,-48.7,0,2018,5,10,16,11,23.843,0.8811,-0.4219,-0.2078,0.0485
-0.045,-0.16,0.038,58.4,-24.6,-57.6,0,2018,5,10,16,11,23.882,0.876,-0.428,-0.2137,0.0603
-0.02,-0.116,0.077,50.4,-27,-65.9,0,2018,5,10,16,11,23.902,0.8712,-0.4337,-0.2175,0.0731
0.047,0.014,0.105,42.2,-42.7,-69.4,0,2018,5,10,16,11,23.903,0.8662,-0.4405,-0.2194,0.0859
0.041,-0.043,0.088,36.2,-60.3,-72.5,0,2018,5,10,16,11,23.944,0.8598,-0.4502,-0.2199,0.0979
0.028,-0.105,0.126,31.3,-60.5,-77.7,0,2018,5,10,16,11,23.945,0.8524,-0.4615,-0.2195,0.1098
0.037,-0.056,0.217,21.8,-52.5,-81.6,0,2018,5,10,16,11,23.964,0.8455,-0.4719,-0.2176,0.1219
0.063,0.055,0.267,9.2,-61.7,-80.8,0,2018,5,10,16,11,23.981,0.8386,-0.4827,-0.2143,0.1331
0.076,0.062,0.244,-3.9,-82.7,-79.9,0,2018,5,10,16,11,24,0.8304,-0.4962,-0.2095,0.1423
0.022,-0.13,0.193,-14.9,-85.2,-84.7,0,2018,5,10,16,11,24.037,0.8211,-0.5118,-0.2031,0.1501
0.033,-0.147,0.181,-24.8,-61.2,-93.3,0,2018,5,10,16,11,24.058,0.8132,-0.5252,-0.1936,0.1589
0.068,-0.042,0.163,-32.2,-46.4,-99.6,0,2018,5,10,16,11,24.063,0.8068,-0.5363,-0.1815,0.1685
0.054,-0.009,0.136,-36.1,-48.1,-103.4,0,2018,5,10,16,11,24.1,0.8004,-0.5469,-0.1684,0.1781
0.032,-0.07,0.113,-39.3,-47.7,-109.7,0,2018,5,10,16,11,24.119,0.7938,-0.5574,-0.1538,0.1883
0.01,-0.117,0.071,-38.5,-41.2,-118.8,0,2018,5,10,16,11,24.124,0.7865,-0.5679,-0.1383,0.1992
0.028,-0.069,0.047,-36.4,-29.8,-125.8,0,2018,5,10,16,11,24.161,0.7794,-0.5768,-0.1219,0.2116
0.004,-0.002,0.018,-32.9,-33.2,-130.2,0,2018,5,10,16,11,24.162,0.772,-0.5849,-0.1051,0.2251
0.021,0.137,0.044,-27.1,-61.2,-133.8,0,2018,5,10,16,11,24.182,0.7625,-0.5944,-0.089,0.239
0.091,0.152,0.01,-12.9,-91.4,-136.7,0,2018,5,10,16,11,24.219,0.7488,-0.6074,-0.075,0.2539
0.047,-0.033,-0.049,-0.2,-99.4,-138.5,0,2018,5,10,16,11,24.239,0.7314,-0.6227,-0.0632,0.2704
0.006,-0.083,-0.085,10.1,-79.4,-139.6,0,2018,5,10,16,11,24.243,0.714,-0.6361,-0.0528,0.2875
0.023,-0.015,-0.063,15.9,-46.7,-138.3,0,2018,5,10,16,11,24.277,0.699,-0.6451,-0.0421,0.3055
0.037,0.029,-0.025,18.3,-12.5,-136,0,2018,5,10,16,11,24.299,0.6877,-0.6489,-0.0299,0.3239
-0.007,0.082,-0.068,20.1,2.2,-134.4,1023,2018,5,10,16,11,24.307,0.6788,-0.6493,-0.0165,0.3423
-0.024,0.153,-0.059,21.6,5,-130.6,1023,2018,5,10,16,11,24.326,0.6705,-0.6483,-0.0032,0.3604
-0.007,0.183,-0.034,23.6,-2,-125.4,1023,2018,5,10,16,11,24.365,0.6619,-0.647,0.0095,0.3782
0.001,0.131,-0.105,28.8,-13,-120.8,1023,2018,5,10,16,11,24.385,0.6521,-0.6463,0.0207,0.3956
0.001,0.041,-0.122,37.2,-7,-118,1023,2018,5,10,16,11,24.386,0.6424,-0.6448,0.0296,0.4128
-0.029,0.058,-0.014,44.7,3.4,-116.9,1023,2018,5,10,16,11,24.409,0.6333,-0.6419,0.0385,0.4304
-0.04,0.068,0.06,44,6.3,-113.7,1023,2018,5,10,16,11,24.425,0.6255,-0.6368,0.0471,0.4482
-0.006,0.143,0.041,43.7,-4.4,-106.1,1023,2018,5,10,16,11,24.444,0.6173,-0.6317,0.0552,0.4655
-0.022,0.08,0.023,48.9,-8.8,-96.4,1023,2018,5,10,16,11,24.464,0.6083,-0.6274,0.0614,0.4821
-0.061,0,0.07,48.7,6,-85.7,0,2018,5,10,16,11,24.502,0.6011,-0.622,0.066,0.4972
-0.067,0.022,0.087,42.5,20.7,-75.5,0,2018,5,10,16,11,24.522,0.5965,-0.6152,0.0712,0.5104
-0.03,0.117,0.078,36.5,20.8,-62.2,0,2018,5,10,16,11,24.526,0.5934,-0.6079,0.0765,0.5218
0.004,0.09,0.075,34.2,16.2,-48.4,0,2018,5,10,16,11,24.565,0.5907,-0.6021,0.0805,0.5308
-0.064,-0.076,0.055,28.3,20.2,-40.4,0,2018,5,10,16,11,24.585,0.5892,-0.5964,0.0837,0.5385
-0.082,-0.129,0.046,17.8,30.1,-36.6,0,2018,5,10,16,11,24.59,0.5888,-0.591,0.0876,0.5442
-0.043,-0.022,0.034,11.6,23.3,-34.4,0,2018,5,10,16,11,24.627,0.5889,-0.5863,0.0921,0.5484
-0.027,0.048,-0.04,10.3,-1.7,-31.5,0,2018,5,10,16,11,24.647,0.587,-0.5836,0.0955,0.5527
-0.059,0.003,-0.062,10.9,-14.4,-29,0,2018,5,10,16,11,24.648,0.583,-0.5834,0.0967,0.5569
-0.037,-0.03,-0.089,10,-15.4,-28.9,0,2018,5,10,16,11,24.666,0.5786,-0.5842,0.097,0.5606
0.006,-0.01,-0.134,10.6,-11.1,-28.8,0,2018,5,10,16,11,24.685,0.574,-0.5853,0.0979,0.5641
-0.034,-0.012,-0.148,12.8,1.7,-27.8,0,2018,5,10,16,11,24.724,0.5708,-0.5844,0.0995,0.568
-0.082,0.013,-0.155,14.5,9.7,-27.1,0,2018,5,10,16,11,24.745,0.5689,-0.582,0.1017,0.572
-0.086,0.026,-0.142,15.4,18.8,-24.4,0,2018,5,10,16,11,24.749,0.5678,-0.5789,0.1048,0.5755
-0.087,0.057,-0.149,17.2,25.8,-21.3,0,2018,5,10,16,11,24.789,0.5675,-0.5759,0.1084,0.5782
-0.101,0.07,-0.136,19,32.5,-17,0,2018,5,10,16,11,24.809,0.5682,-0.5719,0.112,0.5808
-0.144,0.067,-0.074,18.2,38.4,-12.7,0,2018,5,10,16,11,24.813,0.5704,-0.5668,0.1156,0.583
-0.16,0.099,-0.015,14.8,36,-8.6,0,2018,5,10,16,11,24.831,0.5735,-0.5611,0.119,0.5847
-0.124,0.115,-0.062,11.1,25.2,-4.2,0,2018,5,10,16,11,24.869,0.576,-0.5565,0.1218,0.5861
-0.134,0.054,-0.074,7.4,30.3,0.8,0,2018,5,10,16,11,24.873,0.5784,-0.5531,0.1241,0.5865
-0.16,-0.004,-0.064,1.3,51.3,5.4,0,2018,5,10,16,11,24.888,0.5829,-0.5489,0.1272,0.5853
-0.14,-0.052,-0.077,-6.3,86.1,9.7,0,2018,5,10,16,11,24.908,0.5905,-0.5431,0.1333,0.5818
-0.102,-0.001,-0.06,-12.6,119.4,14.6,0,2018,5,10,16,11,24.926,0.6015,-0.5341,0.1434,0.5763
-0.096,0.011,-0.05,-16.2,142.1,19,0,2018,5,10,16,11,24.968,0.615,-0.5224,0.1566,0.5693
-0.109,-0.033,-0.037,-19.8,167.2,22.2,1023,2018,5,10,16,11,24.99,0.6306,-0.5084,0.1715,0.5606
-0.062,-0.082,-0.089,-24.9,200.2,23.3,1023,2018,5,10,16,11,24.994,0.6485,-0.491,0.1894,0.5499
0,-0.001,-0.102,-27.5,222.2,22.9,1023,2018,5,10,16,11,25.013,0.6674,-0.4704,0.211,0.5372
0.021,0.061,-0.088,-26,222.2,23.2,1023,2018,5,10,16,11,25.034,0.6859,-0.4481,0.234,0.5232
0.009,0.071,-0.055,-23.7,219.1,22.9,1023,2018,5,10,16,11,25.053,0.7032,-0.4248,0.256,0.5092
-0.001,-0.058,-0.057,-25.5,239.4,24.1,1023,2018,5,10,16,11,25.091,0.7203,-0.4001,0.2775,0.494
0.054,-0.065,-0.1,-26.5,276.9,23.2,1023,2018,5,10,16,11,25.111,0.7384,-0.3709,0.3013,0.4757
0.082,0.058,-0.121,-26,294.6,23.2,1023,2018,5,10,16,11,25.115,0.7561,-0.3374,0.3276,0.4549
0.071,0.129,-0.091,-23.7,297.1,26.7,1023,2018,5,10,16,11,25.131,0.7731,-0.3015,0.3526,0.4324
0.004,0.118,-0.053,-21.8,302.5,27.5,0,2018,5,10,16,11,25.151,0.7885,-0.2641,0.3765,0.4082
0.028,0.173,-0.038,-18.4,289.1,25,0,2018,5,10,16,11,25.17,0.8016,-0.226,0.3987,0.3836
0.067,0.2,-0.012,-14.5,245.8,23.7,0,2018,5,10,16,11,25.21,0.8118,-0.191,0.4177,0.3604
0.024,0.191,0.025,-8.9,186.8,23.3,0,2018,5,10,16,11,25.228,0.819,-0.1629,0.4316,0.3409
0.013,0.15,0.047,-4.7,131.9,21.9,0,2018,5,10,16,11,25.231,0.824,-0.1423,0.4412,0.3255
0.064,0.158,0.061,-1.3,75.2,19.3,0,2018,5,10,16,11,25.269,0.8274,-0.1294,0.4468,0.3145
0.065,0.077,0.058,-1.2,29.3,17.5,0,2018,5,10,16,11,25.289,0.8293,-0.1228,0.4494,0.3084
0.021,-0.045,0.057,-2.8,9.9,12.6,0,2018,5,10,16,11,25.292,0.8303,-0.1216,0.4501,0.305
-0.007,-0.087,0.063,-5.7,14.9,9.3,0,2018,5,10,16,11,25.33,0.8311,-0.1214,0.4505,0.3023
0.01,-0.101,0.031,-9,32.7,7.7,0,2018,5,10,16,11,25.351,0.8318,-0.1197,0.452,0.2987
0.029,-0.061,0.019,-13.3,48.5,5.2,0,2018,5,10,16,11,25.354,0.8323,-0.1153,0.4555,0.294
0.016,0.015,0.017,-14.9,46.1,3.1,0,2018,5,10,16,11,25.371,0.8323,-0.1093,0.4598,0.2893
0.015,0.063,0.037,-14.1,26.6,1.7,0,2018,5,10,16,11,25.392,0.8319,-0.1044,0.4638,0.2859
0.029,0.051,0.038,-13.8,3,1.1,0,2018,5,10,16,11,25.433,0.8311,-0.1025,0.4664,0.2848
0.029,-0.018,0.031,-13.5,-9.6,-1.1,0,2018,5,10,16,11,25.437,0.8299,-0.1037,0.4679,0.2853
0.024,-0.033,0.026,-13,-6.6,-2.1,0,2018,5,10,16,11,25.453,0.8287,-0.1057,0.4693,0.2859
0.013,-0.004,0.033,-12.1,8.8,-2,0,2018,5,10,16,11,25.49,0.8277,-0.106,0.471,0.2859
0.015,0.018,-0.002,-11.5,21.6,-2.3,0,2018,5,10,16,11,25.51,0.8269,-0.104,0.4734,0.2848
0.014,-0.019,-0.023,-9.9,34.4,-3.8,0,2018,5,10,16,11,25.514,0.8262,-0.1001,0.4766,0.2829
0.04,0.018,-0.049,-6.6,53,-3,0,2018,5,10,16,11,25.554,0.8259,-0.0941,0.4805,0.2794
0,0.055,-0.009,-6.5,57.2,-3.5,0,2018,5,10,16,11,25.558,0.8258,-0.0855,0.4846,0.2751
0.014,0.037,0.048,-5.2,43,-7.5,0,2018,5,10,16,11,25.575,0.8258,-0.0775,0.488,0.2717
-0.003,0.013,0.029,-3.3,27.2,-6.7,0,2018,5,10,16,11,25.592,0.8256,-0.0719,0.49,0.2702
-0.013,-0.047,0.025,-5.3,34.4,-7.5,0,2018,5,10,16,11,25.63,0.8254,-0.0672,0.4918,0.2687
0,-0.009,0.056,-8.5,44.3,-8.1,0,2018,5,10,16,11,25.65,0.8251,-0.0612,0.4944,0.2663
-0.01,0.04,0.07,-12.9,41.5,-7.1,1023,2018,5,10,16,11,25.654,0.8245,-0.0544,0.4976,0.2637
-0.019,0.042,0.02,-15.8,38,-6.7,1023,2018,5,10,16,11,25.675,0.8233,-0.0483,0.5013,0.2615
-0.02,-0.052,-0.03,-20.1,47.1,-7.2,1023,2018,5,10,16,11,25.695,0.8218,-0.0425,0.5057,0.2589
-0.023,-0.013,-0.049,-21,63.2,-7.7,1023,2018,5,10,16,11,25.733,0.8199,-0.035,0.5114,0.2547
-0.044,0.082,-0.038,-19.8,63.3,-3.8,1023,2018,5,10,16,11,25.753,0.8178,-0.0256,0.5175,0.2501
-0.036,0.117,-0.052,-16,39.8,-1.7,1023,2018,5,10,16,11,25.757,0.816,-0.0178,0.5226,0.2463
-0.008,0.094,-0.085,-10,9.1,0.4,1023,2018,5,10,16,11,25.779,0.8148,-0.0149,0.5254,0.2444
0,0.064,-0.1,-4.6,-14.9,0.8,1023,2018,5,10,16,11,25.799,0.8141,-0.0159,0.5262,0.2448
-0.004,0.031,-0.057,-0.5,-21.9,0.2,1023,2018,5,10,16,11,25.836,0.8134,-0.0184,0.5263,0.2468
0.015,0.001,-0.017,-0.2,-24,-1.8,0,2018,5,10,16,11,25.841,0.813,-0.0214,0.5256,0.2493
0.041,-0.015,-0.002,-2.3,-25.8,-4.7,0,2018,5,10,16,11,25.855,0.8125,-0.0248,0.5248,0.2521
0.046,0.015,0.008,-3.7,-34.9,-7.9,0,2018,5,10,16,11,25.874,0.8117,-0.0286,0.5241,0.2559
0.052,0.024,-0.023,-4,-37.3,-7.9,0,2018,5,10,16,11,25.896,0.8106,-0.0336,0.5231,0.2608
0.05,0.026,-0.04,-4.4,-36.6,-10,0,2018,5,10,16,11,25.915,0.8093,-0.038,0.5225,0.2655
0.047,0.004,-0.032,-4,-37.5,-12.1,0,2018,5,10,16,11,25.935,0.8078,-0.0425,0.5219,0.2704
0.058,0.031,-0.028,-3.7,-34.8,-12,0,2018,5,10,16,11,25.975,0.8063,-0.0466,0.5212,0.2754
0.032,0.101,0.017,-5.5,-39.4,-9.4,0,2018,5,10,16,11,25.995,0.8048,-0.0506,0.5205,0.2806
0.041,0.06,-0.024,-4.1,-45.7,-10.5,0,2018,5,10,16,11,25.999,0.8032,-0.0553,0.5194,0.2861
0.036,0.071,-0.039,-0.2,-58.4,-10.2,0,2018,5,10,16,11,26.019,0.8015,-0.0613,0.5178,0.2925
0.012,0.013,-0.067,2.3,-62,-8.2,0,2018,5,10,16,11,26.038,0.8001,-0.0688,0.5151,0.2993
0.006,0,-0.074,5.6,-51.1,-7.1,0,2018,5,10,16,11,26.056,0.799,-0.076,0.5122,0.3053
-0.002,-0.038,-0.1,8.1,-34.4,-5.2,0,2018,5,10,16,11,26.076,0.7984,-0.0812,0.5097,0.3099
-0.012,-0.019,-0.09,11.2,-22.2,-4.7,0,2018,5,10,16,11,26.098,0.7983,-0.0845,0.5077,0.3126
-0.014,0.038,-0.061,13.4,-20.2,-1.4,0,2018,5,10,16,11,26.118,0.7986,-0.0864,0.5055,0.3149
-0.004,0.061,-0.049,16.3,-22.7,0.8,0,2018,5,10,16,11,26.153,0.7992,-0.0882,0.5027,0.3172
-0.016,0.033,-0.021,16.5,-17.8,4.4,0,2018,5,10,16,11,26.173,0.8002,-0.09,0.4996,0.319
-0.024,0.068,0.019,14.8,-18.5,9,0,2018,5,10,16,11,26.181,0.8016,-0.0917,0.4964,0.3201
-0.052,-0.012,0.051,9.5,-3.6,15.3,0,2018,5,10,16,11,26.201,0.8033,-0.0936,0.4934,0.3198
-0.061,0.107,0.143,5.6,-4.1,19.2,0,2018,5,10,16,11,26.22,0.8051,-0.0945,0.4916,0.3177
-0.044,0.023,0.115,1,-20.2,20.9,0,2018,5,10,16,11,26.257,0.8065,-0.0978,0.4898,0.316
-0.047,-0.004,0.052,0.1,-26.7,19.9,0,2018,5,10,16,11,26.26,0.8077,-0.1027,0.4873,0.3153
-0.039,-0.03,0.011,-0.4,-27.8,19.7,0,2018,5,10,16,11,26.277,0.8085,-0.1083,0.4851,0.3148
-0.012,-0.061,0.006,0.9,-25.1,17.1,0,2018,5,10,16,11,26.316,0.8092,-0.1139,0.483,0.3143
0,-0.097,0,2,-12.9,14.6,0,2018,5,10,16,11,26.335,0.81,-0.1187,0.4811,0.3132
0.017,-0.036,-0.003,2.6,0,12.1,1023,2018,5,10,16,11,26.338,0.811,-0.1211,0.4801,0.3114
0.002,0.032,-0.002,2.8,1.7,9.9,1023,2018,5,10,16,11,26.376,0.8118,-0.1215,0.4796,0.3098
0.007,0.028,0,2.7,5.5,9.7,1023,2018,5,10,16,11,26.395,0.8126,-0.1214,0.4794,0.3082
0,-0.034,-0.006,2.4,4.9,6.7,1023,2018,5,10,16,11,26.399,0.8134,-0.1212,0.4792,0.3065
0.031,-0.023,-0.009,2.2,-1.2,4.1,1023,2018,5,10,16,11,26.441,0.8139,-0.1216,0.479,0.3053
0.028,-0.041,-0.02,2,-4.9,0.9,1023,2018,5,10,16,11,26.461,0.8141,-0.1226,0.4786,0.305
0.025,-0.052,-0.015,0.4,-0.5,-1.9,1023,2018,5,10,16,11,26.465,0.814,-0.1235,0.4785,0.3049
-0.001,-0.092,-0.016,-2.3,19.4,-3.4,1023,2018,5,10,16,11,26.482,0.8141,-0.1227,0.4791,0.3042
0.001,-0.062,-0.015,-5.4,42.9,-6,1023,2018,5,10,16,11,26.504,0.8143,-0.1186,0.4815,0.3015
0.011,-0.013,-0.039,-5.1,55.9,-9.1,1023,2018,5,10,16,11,26.522,0.8144,-0.1114,0.4851,0.2982
0.006,0.062,-0.031,-2.9,56.6,-9.7,0,2018,5,10,16,11,26.544,0.8144,-0.1025,0.4892,0.2945
-0.015,-0.035,0.001,-5.4,64.9,-9.7,0,2018,5,10,16,11,26.559,0.8145,-0.0933,0.493,0.291
0.029,-0.054,0.014,-6,86.5,-11.3,0,2018,5,10,16,11,26.579,0.8148,-0.0822,0.4979,0.2853
0.033,0.069,0.037,-5.2,86.9,-10.3,0,2018,5,10,16,11,26.601,0.8149,-0.0688,0.5031,0.2792
0.013,0.15,0.058,-4.1,56.3,-9,0,2018,5,10,16,11,26.622,0.8147,-0.0571,0.5074,0.2744
0.008,0.164,0.075,-3.7,14.1,-8.9,0,2018,5,10,16,11,26.642,0.8143,-0.0517,0.5096,0.2727
0.028,0.107,0.047,-4.2,-20.2,-7.1,0,2018,5,10,16,11,26.661,0.8134,-0.0514,0.5099,0.2747
0.059,0.066,0.013,1.1,-41.6,-7.4,0,2018,5,10,16,11,26.699,0.8125,-0.0549,0.5089,0.2788
0.034,0.011,0.003,2.3,-49,-7.2,0,2018,5,10,16,11,26.719,0.8117,-0.0606,0.5063,0.2846
0.026,-0.001,-0.016,1.7,-30.7,-7.9,0,2018,5,10,16,11,26.724,0.811,-0.0657,0.5043,0.2891
-0.003,0.027,0.012,0,-15.5,-6.9,0,2018,5,10,16,11,26.76,0.8104,-0.068,0.5032,0.2921
0.001,0.05,-0.004,0,-3.8,-5.6,0,2018,5,10,16,11,26.764,0.8099,-0.0684,0.5029,0.2938
-0.012,0.027,-0.026,-0.1,-5.5,-4.2,0,2018,5,10,16,11,26.781,0.8094,-0.0682,0.5029,0.2953
-0.025,0.035,-0.008,-0.5,-13.9,-3.1,0,2018,5,10,16,11,26.82,0.8089,-0.0689,0.5026,0.2967
-0.044,0.023,0.016,-0.6,-26,-1.9,0,2018,5,10,16,11,26.839,0.8085,-0.0712,0.5015,0.2993
-0.039,-0.012,0.004,-1,-31.9,-1.4,0,2018,5,10,16,11,26.844,0.8081,-0.0751,0.4998,0.3023
-0.041,-0.051,-0.028,-0.4,-28.9,-2.2,0,2018,5,10,16,11,26.882,0.8076,-0.0796,0.4982,0.3052
-0.044,-0.032,-0.031,-0.7,-22.5,-2.1,0,2018,5,10,16,11,26.899,0.8071,-0.0833,0.497,0.3075
-0.043,-0.003,-0.037,0.4,-13.1,-1.9,0,2018,5,10,16,11,26.904,0.8067,-0.0859,0.4962,0.309
-0.052,-0.005,-0.018,0.1,-7.8,-1.3,0,2018,5,10,16,11,26.945,0.8065,-0.087,0.4957,0.3101
-0.034,-0.021,0.002,0.5,-4.9,-1.9,0,2018,5,10,16,11,26.949,0.8064,-0.0878,0.4952,0.3108
-0.026,-0.008,0.027,0.6,-5.2,-1.1,0,2018,5,10,16,11,26.965,0.8065,-0.0883,0.4946,0.3115
-0.011,0.005,0.018,1.1,-5.7,0.5,0,2018,5,10,16,11,26.981,0.8066,-0.089,0.494,0.3119
-0.009,0.014,0.004,1.4,-7.6,2.5,1023,2018,5,10,16,11,27.001,0.8067,-0.0899,0.4934,0.3123
0.007,0.016,-0.011,1.5,-9.8,3.8,1023,2018,5,10,16,11,27.038,0.8068,-0.0911,0.4927,0.3127
0.026,0.038,-0.005,1.2,-11.7,4.7,1023,2018,5,10,16,11,27.059,0.8069,-0.0928,0.492,0.3131
0.021,0.051,0.016,0.8,-13,5.3,1023,2018,5,10,16,11,27.063,0.8069,-0.0946,0.4913,0.3136
0.012,0.056,0,1.8,-18.3,4.7,1023,2018,5,10,16,11,27.101,0.8069,-0.0967,0.4904,0.3145
-0.004,0.072,0.003,3.1,-35.7,5.5,1023,2018,5,10,16,11,27.123,0.8069,-0.1002,0.4887,0.3161
0.026,0.192,0.008,9.9,-87.2,5.1,1023,2018,5,10,16,11,27.127,0.8065,-0.1081,0.4846,0.3207
0.028,0.265,0.002,16.8,-177,4.3,1023,2018,5,10,16,11,27.145,0.8052,-0.1264,0.4749,0.3316
0.025,0.128,-0.122,26.3,-252.1,1.6,1023,2018,5,10,16,11,27.167,0.8018,-0.1562,0.4588,0.3493
0.031,-0.016,-0.222,37.8,-291.3,0.9,0,2018,5,10,16,11,27.185,0.796,-0.1928,0.4372,0.3713
0.009,0.022,-0.202,51.7,-313.3,-1.1,0,2018,5,10,16,11,27.208,0.7882,-0.2316,0.4106,0.3954
0.016,0.139,-0.117,55.3,-336.9,-0.4,0,2018,5,10,16,11,27.245,0.7775,-0.2723,0.3802,0.4203
0.005,0.146,-0.116,53.7,-363.8,5,0,2018,5,10,16,11,27.25,0.7631,-0.3157,0.3461,0.4451
-0.034,0.183,-0.206,57.9,-398.3,6.2,0,2018,5,10,16,11,27.266,0.7441,-0.3618,0.3079,0.4695
-0.002,0.004,-0.292,58.1,-421,10.3,0,2018,5,10,16,11,27.284,0.7199,-0.4103,0.2654,0.4928
-0.055,-0.345,-0.153,52,-360.4,19.7,0,2018,5,10,16,11,27.321,0.6935,-0.4552,0.2229,0.5118
-0.09,-0.267,0.014,38.3,-259.2,27,0,2018,5,10,16,11,27.342,0.6719,-0.4889,0.188,0.5236
-0.077,-0.178,0.007,28.2,-194.4,24.2,0,2018,5,10,16,11,27.345,0.6558,-0.5127,0.1617,0.5299
-0.019,-0.14,0,22.8,-159,22.2,0,2018,5,10,16,11,27.383,0.6426,-0.5315,0.1403,0.5336
-0.013,-0.085,0.028,20.5,-122.6,25.8,0,2018,5,10,16,11,27.403,0.6325,-0.546,0.122,0.5356
0.012,-0.003,0.019,19.1,-97.8,29.6,0,2018,5,10,16,11,27.406,0.6252,-0.5567,0.107,0.5363
0.029,-0.02,0.038,16.7,-98.9,24.4,0,2018,5,10,16,11,27.444,0.6183,-0.5661,0.0937,0.5368
-0.007,0.018,0.07,14.3,-105.7,22.4,0,2018,5,10,16,11,27.465,0.6109,-0.5756,0.0804,0.5375
0.038,0.094,0.016,14.2,-126.1,25.1,0,2018,5,10,16,11,27.468,0.6014,-0.5865,0.0662,0.5383
0.023,0.02,-0.074,13.3,-123.8,31.6,0,2018,5,10,16,11,27.486,0.5903,-0.5992,0.0506,0.5382
0.039,-0.093,-0.193,17,-96.9,31.8,0,2018,5,10,16,11,27.521,0.5815,-0.61,0.0358,0.537
0.058,-0.161,-0.177,22.2,-63.8,30.6,0,2018,5,10,16,11,27.541,0.5758,-0.6165,0.0231,0.5363
0.017,-0.08,-0.06,26.5,-43.9,28.2,0,2018,5,10,16,11,27.545,0.5731,-0.6198,0.0129,0.5358
-0.02,-0.075,0.029,25,-40.2,26.1,0,2018,5,10,16,11,27.585,0.5714,-0.6216,0.0029,0.5357
0.008,-0.103,0.022,20,-35.7,19.6,0,2018,5,10,16,11,27.604,0.5698,-0.623,-0.0059,0.5357
0.004,-0.142,-0.025,16.6,-17.1,13.2,0,2018,5,10,16,11,27.608,0.5686,-0.6242,-0.0123,0.5355
-0.017,-0.112,0.006,14.5,5.5,8.8,0,2018,5,10,16,11,27.648,0.5693,-0.6234,-0.0163,0.5356
-0.039,-0.066,0.086,8.9,24.6,3.5,0,2018,5,10,16,11,27.668,0.572,-0.6205,-0.0171,0.5361
-0.081,0.013,0.092,-1.6,35,2.1,1023,2018,5,10,16,11,27.672,0.5758,-0.6167,-0.015,0.5363
-0.041,0.116,-0.022,-6.8,50.3,5.4,1023,2018,5,10,16,11,27.686,0.5811,-0.6123,-0.0108,0.5358
-0.012,0.191,-0.076,-8.1,53.9,14.4,1023,2018,5,10,16,11,27.722,0.5873,-0.6077,-0.0058,0.5344
-0.044,0.135,-0.074,-9.8,66.6,24.3,1023,2018,5,10,16,11,27.742,0.5949,-0.6027,-0.0006,0.5317
-0.027,0.069,-0.202,-6.9,91.2,33.8,1023,2018,5,10,16,11,27.746,0.6057,-0.5954,0.0045,0.5276
-0.011,0.081,-0.321,4.3,120.6,46,1023,2018,5,10,16,11,27.768,0.6202,-0.5844,0.0103,0.523
-0.008,0,-0.307,21.4,162.8,55,1023,2018,5,10,16,11,27.788,0.6392,-0.5678,0.0167,0.5182
-0.012,-0.006,-0.253,36.2,198,58.3,1023,2018,5,10,16,11,27.826,0.6622,-0.5446,0.0245,0.514
-0.007,0.249,-0.164,48.9,187.1,64.4,1023,2018,5,10,16,11,27.846,0.686,-0.5181,0.0315,0.5096
-0.041,0.256,-0.094,62.1,158.9,70.9,0,2018,5,10,16,11,27.85,0.7075,-0.4927,0.0342,0.5053
-0.073,0.228,-0.093,71.7,138.6,76.5,0,2018,5,10,16,11,27.871,0.7267,-0.4686,0.033,0.501
-0.074,0.276,-0.112,76.9,117.8,83.4,0,2018,5,10,16,11,27.892,0.7443,-0.4461,0.0285,0.496
-0.08,0.303,-0.154,86.1,90.5,90.5,0,2018,5,10,16,11,27.91,0.76,-0.4259,0.0201,0.4903
-0.098,0.176,-0.183,96.8,67.7,94.8,0,2018,5,10,16,11,27.932,0.7738,-0.4078,0.0081,0.4845
-0.11,0.009,-0.191,106.9,60.2,95.2,0,2018,5,10,16,11,27.948,0.7862,-0.3907,-0.0076,0.4785
-0.085,-0.049,-0.152,113.7,69.7,91.6,0,2018,5,10,16,11,27.987,0.7978,-0.3726,-0.0239,0.4731
-0.082,-0.013,-0.083,117,94.3,86.6,0,2018,5,10,16,11,28.007,0.8097,-0.351,-0.0396,0.4684
-0.1,-0.045,-0.057,116.2,125,81.4,0,2018,5,10,16,11,28.012,0.8222,-0.3248,-0.0534,0.4641
-0.055,0.014,-0.075,113.9,160.8,76.9,0,2018,5,10,16,11,28.03,0.8353,-0.2935,-0.0636,0.4603
-0.056,0.145,0.005,111.1,182.5,70.7,0,2018,5,10,16,11,28.05,0.8485,-0.2573,-0.0701,0.457
-0.015,0.421,0.068,111.5,159.6,73,0,2018,5,10,16,11,28.088,0.86,-0.2215,-0.0757,0.4533
-0.004,0.541,0.069,114.5,93.6,83.5,0,2018,5,10,16,11,28.109,0.869,-0.1926,-0.0859,0.4474
-0.071,0.213,0.059,104.9,71.5,91.3,0,2018,5,10,16,11,28.112,0.8766,-0.1709,-0.0997,0.4385
-0.082,-0.021,0.107,92.9,103.3,88.4,0,2018,5,10,16,11,28.151,0.884,-0.1482,-0.1113,0.429
-0.017,0.111,0.164,86.9,115.4,86.6,0,2018,5,10,16,11,28.154,0.8915,-0.1214,-0.1188,0.4199
0.027,0.264,0.102,86.4,96.7,89.2,0,2018,5,10,16,11,28.171,0.8981,-0.0958,-0.126,0.4101
0.033,0.275,0.033,87.6,69.6,94,0,2018,5,10,16,11,28.188,0.9038,-0.0748,-0.1354,0.3989
-0.078,-0.087,0.102,81.9,75.5,90.1,0,2018,5,10,16,11,28.228,0.9089,-0.0554,-0.1453,0.3869
-0.019,0.06,0.168,80.2,83.4,87,0,2018,5,10,16,11,28.249,0.9133,-0.0344,-0.1534,0.3756
-0.008,0.107,0.129,81.7,74.3,87.5,0,2018,5,10,16,11,28.252,0.9171,-0.0138,-0.1613,0.3641
-0.122,-0.259,0.151,76.8,104.8,82.1,0,2018,5,10,16,11,28.271,0.9202,0.0072,-0.1691,0.3529
-0.114,-0.398,0.117,67.2,179.9,70.3,0,2018,5,10,16,11,28.292,0.9221,0.037,-0.1715,0.3447
-0.01,0.116,0.229,64.6,195.4,60.8,0,2018,5,10,16,11,28.332,0.9221,0.0744,-0.1697,0.3396
0.031,0.297,0.181,62.2,148.5,60.1,0,2018,5,10,16,11,28.352,0.921,0.1079,-0.1686,0.334
0.016,0.313,0.087,61.4,84.2,59.2,1023,2018,5,10,16,11,28.356,0.9202,0.1317,-0.1706,0.3265
-0.122,0.005,0.201,58.3,53,53.3,1023,2018,5,10,16,11,28.375,0.92,0.1473,-0.1753,0.3178
-0.165,-0.109,0.294,48.4,54.5,45.6,1023,2018,5,10,16,11,28.395,0.9196,0.1595,-0.1801,0.3103
-0.128,0.031,0.223,37.6,54.4,41.5,1023,2018,5,10,16,11,28.412,0.9189,0.1716,-0.183,0.3041
-0.088,0.179,0.135,30.5,38,41.3,1023,2018,5,10,16,11,28.432,0.9185,0.1828,-0.1845,0.2978
-0.024,0.149,0.034,28.1,18.5,40.8,1023,2018,5,10,16,11,28.453,0.9187,0.1913,-0.186,0.2908
0.022,0.138,0.029,29.3,6.6,38.6,1023,2018,5,10,16,11,28.474,0.9194,0.197,-0.1882,0.2835
0.049,0.161,0.065,30.5,-0.3,38.4,1023,2018,5,10,16,11,28.495,0.9201,0.2002,-0.1916,0.2764
0.079,0.164,0.005,31.2,-6.1,45.1,0,2018,5,10,16,11,28.53,0.9212,0.2024,-0.1953,0.2685
0.103,0.148,-0.11,35.3,-5,52.5,0,2018,5,10,16,11,28.551,0.9226,0.2046,-0.1991,0.2592
0.1,0.244,-0.168,43.3,-1.8,59.8,0,2018,5,10,16,11,28.555,0.9238,0.2079,-0.2035,0.2486
0.098,0.335,-0.148,50.3,-21.2,68.5,0,2018,5,10,16,11,28.592,0.9251,0.2107,-0.2092,0.2362
0.091,0.167,-0.142,56.2,-53,79.2,0,2018,5,10,16,11,28.614,0.9275,0.2094,-0.2167,0.2208
0.062,-0.034,-0.151,59.6,-56.8,87.2,0,2018,5,10,16,11,28.618,0.9304,0.2058,-0.2253,0.2028
0.042,-0.078,-0.128,63.6,-39.9,95.3,0,2018,5,10,16,11,28.633,0.9326,0.2035,-0.2342,0.1838
0.063,0.065,-0.088,70.6,-27.5,103.4,0,2018,5,10,16,11,28.652,0.9339,0.205,-0.2426,0.1638
0.012,0.152,-0.054,73.9,-54.3,108.6,0,2018,5,10,16,11,28.672,0.9349,0.2056,-0.2516,0.142
-0.027,0.049,-0.104,71.8,-95,113.5,0,2018,5,10,16,11,28.714,0.9368,0.2002,-0.2615,0.1177
-0.097,-0.108,-0.171,78.3,-105.5,117.9,0,2018,5,10,16,11,28.734,0.9387,0.1902,-0.2723,0.0913
-0.2,-0.026,-0.066,82.1,-104.9,121.3,0,2018,5,10,16,11,28.738,0.9398,0.1803,-0.2831,0.064
-0.252,0.007,-0.019,78.1,-129.2,118,0,2018,5,10,16,11,28.755,0.9403,0.168,-0.2936,0.036
-0.244,-0.04,0.035,69.5,-160.7,113,0,2018,5,10,16,11,28.794,0.9409,0.1502,-0.3031,0.0073
-0.253,-0.148,-0.039,60,-169.2,109.2,0,2018,5,10,16,11,28.814,0.9415,0.1282,-0.3107,-0.0215
-0.282,-0.157,-0.067,54.8,-138.3,102.9,0,2018,5,10,16,11,28.818,0.9409,0.1085,-0.317,-0.0486
-0.284,-0.14,0.004,45,-134.9,90.9,0,2018,5,10,16,11,28.838,0.9394,0.0914,-0.3221,-0.0728
-0.248,-0.023,0.062,38.1,-166.9,78.6,0,2018,5,10,16,11,28.859,0.9379,0.0714,-0.3255,-0.0956
-0.347,-0.025,0.063,26.5,-217.5,68.8,0,2018,5,10,16,11,28.873,0.9367,0.0429,-0.3264,-0.1191
-0.261,-0.127,-0.042,13.6,-226.7,60.6,0,2018,5,10,16,11,28.894,0.9352,0.0094,-0.324,-0.1425
-0.212,-0.148,-0.019,6.1,-218.7,47.7,0,2018,5,10,16,11,28.914,0.9328,-0.0243,-0.3198,-0.1639
-0.208,-0.228,-0.007,-3.2,-193,32.6,0,2018,5,10,16,11,28.949,0.9301,-0.0557,-0.3139,-0.1819
-0.207,-0.173,0.071,-14.8,-171.3,15.3,0,2018,5,10,16,11,28.969,0.9276,-0.0833,-0.3069,-0.1956
-0.189,-0.091,0.121,-29.9,-179.4,-1,0,2018,5,10,16,11,28.975,0.9256,-0.1101,-0.2974,-0.2061
-0.155,-0.102,0.073,-43.2,-209.7,-14.9,0,2018,5,10,16,11,29.014,0.9234,-0.1414,-0.2844,-0.2153
-0.132,-0.203,0.024,-51.2,-204.9,-25.1,1023,2018,5,10,16,11,29.035,0.9206,-0.1747,-0.2682,-0.2235
-0.122,-0.157,0.043,-57.6,-166.3,-37.7,1023,2018,5,10,16,11,29.039,0.9183,-0.2032,-0.251,-0.2286
-0.116,-0.089,0.013,-63.1,-138.9,-49.2,1023,2018,5,10,16,11,29.059,0.9168,-0.2271,-0.234,-0.2301
-0.133,-0.106,-0.073,-67.2,-121.7,-60.4,1023,2018,5,10,16,11,29.098,0.9161,-0.2476,-0.2165,-0.2291
-0.133,-0.114,-0.035,-70.6,-73.2,-75.1,1023,2018,5,10,16,11,29.102,0.9175,-0.2777,-0.1802,-0.2202
-0.163,-0.07,0.012,-74.1,-56.4,-80.7,1023,2018,5,10,16,11,29.118,0.9192,-0.288,-0.1631,-0.2132
-0.214,0.014,-0.031,-77.6,-61,-86.9,1023,2018,5,10,16,11,29.136,0.9214,-0.2965,-0.1446,-0.2052
-0.148,0.006,-0.173,-76.3,-76,-92.6,1023,2018,5,10,16,11,29.174,0.9226,-0.3074,-0.125,-0.1965
-0.108,-0.082,-0.183,-70.7,-74.1,-95.9,1023,2018,5,10,16,11,29.194,0.923,-0.3193,-0.1054,-0.1868
-0.161,-0.126,-0.131,-66.5,-60.7,-98.4,0,2018,5,10,16,11,29.198,0.9235,-0.3293,-0.0867,-0.1761
-0.182,-0.024,-0.159,-62.7,-58.5,-99.2,0,2018,5,10,16,11,29.218,0.9239,-0.3382,-0.0688,-0.1647
-0.12,0.045,-0.228,-55.7,-75.4,-96.8,0,2018,5,10,16,11,29.237,0.9233,-0.3482,-0.0515,-0.1532
0.031,0.091,-0.268,-40.1,-97.7,-96.3,0,2018,5,10,16,11,29.276,0.9205,-0.3623,-0.0356,-0.1412
0.047,0.032,-0.192,-25.7,-93.3,-91.3,0,2018,5,10,16,11,29.297,0.9161,-0.379,-0.0216,-0.1286
0.029,0.055,-0.175,-13.1,-66.1,-84.9,0,2018,5,10,16,11,29.301,0.9121,-0.3928,-0.0107,-0.1159
0.004,0.139,-0.194,-1.7,-37.8,-76.3,0,2018,5,10,16,11,29.318,0.9098,-0.4017,-0.003,-0.1036
0.008,0.231,-0.174,8.2,-21.3,-65.8,0,2018,5,10,16,11,29.343,0.9089,-0.4065,0.0016,-0.0921
0.062,0.27,-0.067,12,-14.5,-49.5,0,2018,5,10,16,11,29.356,0.9087,-0.4091,0.0043,-0.0823
0.024,0.185,-0.019,12.3,-4.2,-34.7,0,2018,5,10,16,11,29.393,0.9087,-0.4104,0.0055,-0.0748
0.009,0.199,-0.035,14.2,3.5,-19.7,0,2018,5,10,16,11,29.413,0.9096,-0.4095,0.0055,-0.0697
0.108,0.33,-0.073,15.1,-2.4,-0.6,0,2018,5,10,16,11,29.417,0.9101,-0.4088,0.0038,-0.067
0.167,0.262,-0.063,14.7,-19.4,16.6,0,2018,5,10,16,11,29.455,0.9091,-0.4109,0.0009,-0.0674
0.126,0.123,-0.049,14.3,-26.6,26,0,2018,5,10,16,11,29.475,0.9072,-0.4147,-0.0026,-0.0698
0.1,0.046,-0.051,14.5,-29.8,35,0,2018,5,10,16,11,29.478,0.9047,-0.4194,-0.0062,-0.0734
0.064,-0.034,-0.028,15.5,-22.7,41.7,0,2018,5,10,16,11,29.513,0.9022,-0.424,-0.0103,-0.0782
0.043,-0.059,-0.01,19,-11.1,42.8,0,2018,5,10,16,11,29.534,0.9,-0.4273,-0.0154,-0.0834
-0.003,-0.091,0.079,17.5,10.7,39.1,0,2018,5,10,16,11,29.541,0.8992,-0.4278,-0.0211,-0.0884
-0.023,-0.049,0.121,18.7,31.2,33.5,0,2018,5,10,16,11,29.559,0.9002,-0.4243,-0.027,-0.0928
-0.01,0.032,0.069,24.8,37.8,27.4,0,2018,5,10,16,11,29.578,0.9025,-0.4184,-0.0333,-0.0959
-0.02,0.015,0.095,26.7,36.3,20.8,0,2018,5,10,16,11,29.598,0.9048,-0.4124,-0.0399,-0.0979
-0.043,-0.048,0.153,27.8,41.7,10.5,0,2018,5,10,16,11,29.636,0.9072,-0.4063,-0.0462,-0.0983
-0.016,0.007,0.18,29.1,39.7,2.2,0,2018,5,10,16,11,29.656,0.9101,-0.3992,-0.0519,-0.097
0.007,0.044,0.184,28.3,22.7,-1.3,0,2018,5,10,16,11,29.66,0.9125,-0.3936,-0.0569,-0.0949
-0.014,-0.056,0.177,23.1,17.1,-5.5,1023,2018,5,10,16,11,29.682,0.9139,-0.3903,-0.061,-0.0925
-0.036,-0.082,0.128,18.3,31.2,-8.8,1023,2018,5,10,16,11,29.702,0.9155,-0.3866,-0.0641,-0.0898
0.003,0.039,0.08,15.9,36,-8.3,1023,2018,5,10,16,11,29.74,0.918,-0.381,-0.0667,-0.0869
0.022,0.018,0.063,11.7,31.5,-8.5,1023,2018,5,10,16,11,29.76,0.9205,-0.3751,-0.0687,-0.0843
0.017,-0.011,0.061,7.4,31.9,-7.7,1023,2018,5,10,16,11,29.764,0.9228,-0.3698,-0.0698,-0.0819
0.022,0,0.066,2.8,30.3,-5.8,1023,2018,5,10,16,11,29.785,0.925,-0.3645,-0.0705,-0.0801
0.017,0.01,0.048,-2.8,28.3,-4.5,1023,2018,5,10,16,11,29.804,0.9271,-0.3594,-0.0703,-0.0788
0.019,0.047,0.013,-5.8,21,-2.2,1023,2018,5,10,16,11,29.819,0.929,-0.3547,-0.0695,-0.0781
0.035,0.033,0.047,-13.2,24.6,1,1023,2018,5,10,16,11,29.854,0.9307,-0.3505,-0.068,-0.0783
0.054,0.013,0.034,-19.9,31.6,5.1,0,2018,5,10,16,11,29.875,0.9329,-0.3449,-0.0654,-0.0795
0.063,0.039,-0.02,-21.8,26.6,9.9,0,2018,5,10,16,11,29.88,0.935,-0.3392,-0.0623,-0.0814
0.097,0.076,-0.111,-20.1,25.5,16.3,0,2018,5,10,16,11,29.92,0.9367,-0.3344,-0.0592,-0.0843
0.065,0.043,-0.083,-21,22.2,19.6,0,2018,5,10,16,11,29.941,0.938,-0.3302,-0.0567,-0.088
0.09,-0.023,-0.028,-21.4,29.7,21.5,0,2018,5,10,16,11,29.945,0.9395,-0.3254,-0.054,-0.0921
0.062,-0.087,0,-20.7,44.2,21.7,0,2018,5,10,16,11,29.963,0.9413,-0.3191,-0.0516,-0.0962
0.032,-0.092,-0.024,-17.5,55.7,19.9,0,2018,5,10,16,11,29.983,0.9437,-0.311,-0.0498,-0.1
0.027,-0.017,-0.062,-14.6,48.8,17.7,0,2018,5,10,16,11,30.005,0.9463,-0.3022,-0.0489,-0.1033
0.017,0.055,-0.056,-13,39.9,15.9,0,2018,5,10,16,11,30.024,0.9484,-0.2944,-0.0481,-0.1063
0.051,0.019,-0.021,-11.1,30.3,14.1,0,2018,5,10,16,11,30.042,0.9501,-0.2882,-0.0472,-0.1089
0.025,-0.038,-0.013,-6.2,18.6,12.9,0,2018,5,10,16,11,30.079,0.9513,-0.2833,-0.0466,-0.1113
0.007,-0.097,-0.051,-3.2,12.5,12.9,0,2018,5,10,16,11,30.1,0.9517,-0.2812,-0.0465,-0.1133
0.015,-0.039,-0.083,0.3,19.8,11.1,0,2018,5,10,16,11,30.104,0.9521,-0.2792,-0.047,-0.1152
0.008,0.045,-0.109,6.5,16.3,10.2,0,2018,5,10,16,11,30.141,0.9527,-0.2762,-0.0485,-0.1165
-0.06,-0.203,-0.073,6.1,30,8.6,0,2018,5,10,16,11,30.16,0.9532,-0.2735,-0.0505,-0.1176
-0.027,-0.09,-0.064,8.3,60.7,5.6,0,2018,5,10,16,11,30.164,0.9553,-0.2656,-0.0531,-0.1178
-0.037,0.087,-0.048,10.6,55.3,4.4,0,2018,5,10,16,11,30.186,0.958,-0.255,-0.0567,-0.1176
0.002,0.092,-0.038,11.1,25.5,1.1,0,2018,5,10,16,11,30.205,0.9597,-0.2479,-0.0598,-0.1173
0.062,0.005,-0.102,14.8,5.6,1.1,0,2018,5,10,16,11,30.243,0.9603,-0.2453,-0.0622,-0.1167
0.134,-0.04,-0.102,17.9,10,4.9,0,2018,5,10,16,11,30.247,0.9604,-0.2444,-0.0649,-0.1162
0.123,0.014,-0.068,22.4,20.7,9.8,0,2018,5,10,16,11,30.264,0.9608,-0.2417,-0.0687,-0.1162
0.124,0.135,-0.077,27.8,16,11.8,0,2018,5,10,16,11,30.301,0.9614,-0.238,-0.0731,-0.1165
0.064,0.031,-0.014,28.9,7.1,14.1,0,2018,5,10,16,11,30.319,0.9613,-0.2362,-0.0784,-0.1172
-0.02,0.005,0.049,27.8,6.4,13.9,0,2018,5,10,16,11,30.324,0.961,-0.2351,-0.0838,-0.1182
-0.038,0.028,0.008,26.4,1.7,14.5,0,2018,5,10,16,11,30.343,0.9607,-0.2339,-0.0892,-0.1194
-0.03,0.026,-0.034,27.6,-1.1,14.7,0,2018,5,10,16,11,30.362,0.96,-0.2337,-0.0947,-0.1208
-0.076,0.008,-0.005,28.9,1.1,12.5,1023,2018,5,10,16,11,30.399,0.9592,-0.234,-0.1006,-0.122
-0.111,-0.014,0.036,28.7,-2.3,7.3,1023,2018,5,10,16,11,30.419,0.9585,-0.2341,-0.1067,-0.1225
-0.101,-0.063,0,28.7,7.7,3.8,1023,2018,5,10,16,11,30.423,0.9578,-0.2344,-0.1126,-0.1223
-0.156,-0.116,0.056,28.4,25.2,0.2,1023,2018,5,10,16,11,30.459,0.9577,-0.2323,-0.1187,-0.1211
-0.204,-0.06,0.119,24.2,38.5,-4.7,1023,2018,5,10,16,11,30.479,0.9583,-0.2274,-0.1249,-0.119
-0.201,-0.002,0.051,17.9,36.6,-9.5,1023,2018,5,10,16,11,30.486,0.9596,-0.2211,-0.1293,-0.1161
-0.155,-0.002,-0.055,14.5,36,-12.4,1023,2018,5,10,16,11,30.503,0.9609,-0.2154,-0.1322,-0.1127
-0.135,0.03,-0.019,12.5,37.8,-10.5,1023,2018,5,10,16,11,30.524,0.9622,-0.2092,-0.1355,-0.1094
-0.174,0.059,0.041,8.1,31.9,-7.7,1023,2018,5,10,16,11,30.564,0.9635,-0.2032,-0.1376,-0.1066
-0.134,0.077,0.005,2,21.3,-6.4,0,2018,5,10,16,11,30.584,0.9645,-0.1985,-0.1387,-0.1045
-0.07,0.065,0,-0.4,11.3,-5.2,0,2018,5,10,16,11,30.589,0.9652,-0.1953,-0.1394,-0.1031
-0.024,0.059,0.002,-2.4,-0.6,-2.8,0,2018,5,10,16,11,30.608,0.9656,-0.1936,-0.1396,-0.1025
0.002,0.023,-0.018,-2.7,-2.2,0.7,0,2018,5,10,16,11,30.643,0.9657,-0.1934,-0.1392,-0.1024
