ax,ay,az,dpitch,droll,dyaw,heart,time_1,time_2,time_3,time_4,time_5,time_6,w,x,y,z
-0.628,1.061,-0.061,-12.7,-55.4,333.9,0,2018,5,17,21,37,6.567,-0.1759,-0.1014,-0.5625,0.8014
-0.676,0.806,-0.046,-14,-41.1,396.2,0,2018,5,17,21,37,6.591,-0.1233,-0.0655,-0.5751,0.806
-0.749,0.434,-0.033,-9.1,16.6,446.3,0,2018,5,17,21,37,6.628,-0.0627,-0.024,-0.5809,0.8111
-0.588,-0.068,-0.235,17.8,168.8,509.9,0,2018,5,17,21,37,6.628,0.0053,0.0238,-0.5679,0.8226
-0.658,-0.516,0.117,86.6,278.5,537.3,0,2018,5,17,21,37,6.651,0.0752,0.084,-0.5285,0.8413
-0.794,-0.489,0.111,136.1,295.3,531.6,0,2018,5,17,21,37,6.669,0.1384,0.1534,-0.4757,0.8549
-1.005,-0.36,0.04,165.5,327.3,507.8,0,2018,5,17,21,37,6.687,0.1935,0.2257,-0.4178,0.8584
-1.092,-0.342,0.194,163.3,370.6,438.2,0,2018,5,17,21,37,6.71,0.2379,0.296,-0.3487,0.8568
-1.164,-0.058,0.468,146,313.5,307.5,0,2018,5,17,21,37,6.729,0.2647,0.3555,-0.2816,0.8509
-1.459,-0.263,1.054,111.6,123.6,178.1,0,2018,5,17,21,37,6.752,0.2798,0.396,-0.2405,0.8407
-1.754,-0.6,1.387,36.6,-33.1,72.4,0,2018,5,17,21,37,6.789,0.2918,0.4134,-0.2307,0.831
-1.437,-0.601,1.036,-68.7,-126.2,-22.4,0,2018,5,17,21,37,6.812,0.3014,0.4064,-0.2416,0.8279
-0.819,-0.51,0.615,-145.4,-161.6,-100.6,0,2018,5,17,21,37,6.816,0.3068,0.3785,-0.2625,0.8328
-0.561,-0.536,0.473,-176.4,-189.1,-168,0,2018,5,17,21,37,6.833,0.3058,0.3385,-0.2878,0.842
-0.69,-0.504,0.445,-203.3,-228.5,-228.6,0,2018,5,17,21,37,6.851,0.2975,0.2885,-0.3204,0.8517
-0.644,-0.383,0.282,-234.3,-273.8,-287.2,0,2018,5,17,21,37,6.874,0.2831,0.2278,-0.3592,0.8595
-0.435,-0.216,0.049,-239.8,-284.1,-350.1,0,2018,5,17,21,37,6.89,0.2606,0.1565,-0.4005,0.8643
-0.262,-0.161,-0.29,-210.8,-265.4,-405.9,1023,2018,5,17,21,37,6.907,0.2256,0.0822,-0.4407,0.8649
-0.171,-0.045,-0.595,-165.6,-223.4,-439.5,1023,2018,5,17,21,37,6.933,0.1785,0.0108,-0.4742,0.862
-0.158,0.376,-0.607,-117.6,-176.6,-443.3,1023,2018,5,17,21,37,6.969,0.1232,-0.0532,-0.4979,0.8567
-0.198,0.6,-0.511,-67.2,-143.6,-435.5,1023,2018,5,17,21,37,6.992,0.0632,-0.1086,-0.514,0.8484
-0.313,0.856,-0.327,-35.2,-111.6,-408.5,1023,2018,5,17,21,37,6.997,0.0024,-0.155,-0.5225,0.8384
-0.379,0.986,-0.204,-12.2,-94.9,-362.7,1023,2018,5,17,21,37,7.012,-0.0546,-0.1929,-0.5256,0.8267
-0.378,1.049,-0.134,6,-111,-308.3,1023,2018,5,17,21,37,7.049,-0.1058,-0.2226,-0.5278,0.8127
-0.339,1.155,-0.146,15.7,-116.9,-237.2,1023,2018,5,17,21,37,7.072,-0.1499,-0.2435,-0.5328,0.7964
-0.258,1.328,-0.155,18.9,-110.6,-158,1023,2018,5,17,21,37,7.077,-0.1835,-0.2562,-0.539,0.781
-0.224,1.423,-0.144,21.2,-126,-73.3,1023,2018,5,17,21,37,7.092,-0.2061,-0.2604,-0.5487,0.7671
-0.248,1.4,-0.141,16.1,-146.6,16.4,1023,2018,5,17,21,37,7.115,-0.2176,-0.2553,-0.5648,0.7539
-0.357,1.293,-0.103,7.8,-150.7,110.3,1023,2018,5,17,21,37,7.133,-0.2168,-0.2415,-0.5864,0.7421
-0.521,1.092,-0.061,-9.5,-113.5,208.6,1023,2018,5,17,21,37,7.156,-0.2013,-0.2196,-0.6101,0.734
-0.569,0.955,-0.109,-22.5,-45.4,306.6,1023,2018,5,17,21,37,7.174,-0.1688,-0.1911,-0.6297,0.7337
-0.561,0.945,-0.192,-15.3,15.2,395.1,1023,2018,5,17,21,37,7.198,-0.1211,-0.1541,-0.6421,0.7411
-0.697,0.893,-0.225,14,31.9,459.9,0,2018,5,17,21,37,7.213,-0.0638,-0.106,-0.6478,0.7516
-0.766,0.468,-0.127,45.2,76.2,509.9,0,2018,5,17,21,37,7.232,-0.0025,-0.047,-0.6477,0.7604
-0.756,-0.228,-0.134,84.6,190.9,560.2,0,2018,5,17,21,37,7.254,0.0626,0.0222,-0.6312,0.7727
-0.819,-0.755,-0.119,145,236.9,529.6,0,2018,5,17,21,37,7.272,0.1224,0.1009,-0.597,0.7863
-0.867,-0.472,-0.386,194.9,182.8,487.7,0,2018,5,17,21,37,7.295,0.1692,0.1803,-0.5613,0.7897
-1.841,-0.271,0.56,146.4,21.6,381.2,0,2018,5,17,21,37,7.314,0.2087,0.2516,-0.535,0.779
-1.621,-0.785,1.495,52.9,-157.6,181,0,2018,5,17,21,37,7.337,0.2411,0.2886,-0.5346,0.7567
-1.276,-1.854,0.911,-6.9,-226.4,25.6,0,2018,5,17,21,37,7.355,0.262,0.2903,-0.5584,0.7315
-1.067,-1.617,0.323,-60.2,-126.3,-34.8,0,2018,5,17,21,37,7.378,0.2729,0.2767,-0.5794,0.7163
-0.587,-0.996,0.147,-105.7,-73.3,-82.7,0,2018,5,17,21,37,7.398,0.2776,0.2545,-0.5905,0.7137
-0.463,-0.839,0.069,-116.9,-64.5,-132.3,0,2018,5,17,21,37,7.414,0.2775,0.2252,-0.5987,0.7167
-0.658,-0.862,0.095,-124.4,-71,-190.8,0,2018,5,17,21,37,7.433,0.2717,0.1899,-0.6078,0.7215
-0.589,-0.594,0.062,-121.1,-80.9,-255.6,0,2018,5,17,21,37,7.455,0.2588,0.1473,-0.6185,0.7271
-0.413,-0.362,-0.077,-102.9,-105.1,-314.1,0,2018,5,17,21,37,7.476,0.2365,0.0978,-0.6319,0.7314
-0.28,-0.242,-0.283,-80.4,-132.7,-358.7,1023,2018,5,17,21,37,7.494,0.205,0.0433,-0.6478,0.7323
-0.259,-0.363,-0.472,-42.6,-142.3,-392.8,1023,2018,5,17,21,37,7.517,0.1643,-0.0126,-0.6647,0.7286
-0.323,-0.237,-0.506,0,-117.1,-414.1,1023,2018,5,17,21,37,7.535,0.1147,-0.0662,-0.6782,0.7228
-0.369,-0.005,-0.439,40.6,-64.8,-428,1023,2018,5,17,21,37,7.557,0.0577,-0.1151,-0.6828,0.719
-0.366,0.373,-0.32,71.1,-28.5,-429.6,1023,2018,5,17,21,37,7.594,-0.0037,-0.1591,-0.6776,0.7178
-0.348,0.604,-0.162,100,-16.7,-403.1,1023,2018,5,17,21,37,7.617,-0.0665,-0.1971,-0.6663,0.716
-0.459,0.748,-0.011,118.2,-2.7,-355.8,1023,2018,5,17,21,37,7.621,-0.1271,-0.227,-0.6514,0.7126
-0.552,0.996,0.099,121.6,15.7,-290.2,1023,2018,5,17,21,37,7.64,-0.1803,-0.2484,-0.6335,0.7101
-0.594,1.209,0.2,107.8,9.8,-210.5,1023,2018,5,17,21,37,7.678,-0.223,-0.2619,-0.6162,0.7084
-0.552,1.246,0.296,86,1.2,-119.9,1023,2018,5,17,21,37,7.698,-0.2532,-0.2676,-0.604,0.7066
-0.558,1.276,0.299,48.4,9.7,-24.6,1023,2018,5,17,21,37,7.703,-0.2687,-0.2667,-0.5971,0.7071
-0.493,1.353,0.229,9.9,-0.3,69.1,1023,2018,5,17,21,37,7.716,-0.2681,-0.2611,-0.5958,0.7105
-0.428,1.262,0.119,-12,4.4,163.7,1023,2018,5,17,21,37,7.738,-0.253,-0.249,-0.6012,0.7158
-0.495,1.116,0.054,-30.3,33.7,257.5,0,2018,5,17,21,37,7.756,-0.223,-0.2302,-0.6083,0.726
-0.458,0.815,-0.012,-38.2,89.3,344.7,0,2018,5,17,21,37,7.779,-0.1778,-0.2045,-0.6131,0.7419
-0.371,0.506,-0.035,-25.2,172.7,417.7,0,2018,5,17,21,37,7.797,-0.1194,-0.1711,-0.6093,0.7649
-0.292,0.389,-0.064,8.3,303.4,489.4,0,2018,5,17,21,37,7.818,-0.05,-0.1282,-0.5887,0.7964
-0.243,0.185,-0.076,76.5,464.2,551.1,0,2018,5,17,21,37,7.855,0.0277,-0.0711,-0.5422,0.8367
-0.316,0.133,-0.091,162,506.1,540.4,0,2018,5,17,21,37,7.876,0.102,0.0012,-0.4722,0.8755
-0.42,-0.003,-0.355,236.2,404.6,464.8,0,2018,5,17,21,37,7.881,0.1615,0.081,-0.4034,0.8969
-0.808,-0.06,-0.308,284.6,387.5,430.8,0,2018,5,17,21,37,7.916,0.2065,0.1641,-0.3408,0.9023
-1.384,-0.295,0.308,273.8,404,329.7,0,2018,5,17,21,37,7.916,0.237,0.245,-0.2758,0.8987
-1.602,0.078,1.364,198.1,241.4,151.4,0,2018,5,17,21,37,7.939,0.2476,0.3069,-0.2214,0.8918
-1.827,-0.222,1.826,96.2,-9.3,17,0,2018,5,17,21,37,7.957,0.2483,0.3373,-0.2069,0.8841
-1.531,-0.487,1.398,-22.6,-175.5,-72.5,0,2018,5,17,21,37,7.98,0.2487,0.3366,-0.2266,0.8794
-0.88,-0.503,0.78,-116.1,-226.5,-130.8,0,2018,5,17,21,37,7.998,0.2477,0.3115,-0.2616,0.8792
-0.452,-0.506,0.437,-162.7,-229.5,-177.4,0,2018,5,17,21,37,8.021,0.2423,0.2717,-0.2995,0.8819
-0.403,-0.398,0.289,-183.7,-237.8,-222.2,1023,2018,5,17,21,37,8.039,0.2305,0.2239,-0.3379,0.8845
-0.374,-0.279,0.226,-189.6,-254.5,-259.1,1023,2018,5,17,21,37,8.062,0.2136,0.1707,-0.3779,0.8845
-0.294,-0.221,0.158,-181.1,-259.1,-298,1023,2018,5,17,21,37,8.084,0.1903,0.1137,-0.4181,0.8809
-0.314,-0.216,0.011,-158.1,-221.3,-339.2,1023,2018,5,17,21,37,8.101,0.1577,0.0557,-0.4548,0.8747
-0.299,-0.064,-0.191,-135.3,-183.8,-367.8,1023,2018,5,17,21,37,8.124,0.1167,-0.0003,-0.4832,0.8676
-0.209,0.164,-0.392,-105.9,-173.6,-382.3,1023,2018,5,17,21,37,8.143,0.0698,-0.054,-0.5056,0.8582
-0.164,0.205,-0.464,-58.9,-164.8,-385.7,1023,2018,5,17,21,37,8.166,0.0176,-0.1023,-0.5245,0.845
-0.191,0.436,-0.445,-13.3,-143,-381,1023,2018,5,17,21,37,8.184,-0.0392,-0.1432,-0.5391,0.8289
-0.26,0.591,-0.309,21.7,-94.1,-350.1,1023,2018,5,17,21,37,8.201,-0.0954,-0.1755,-0.5458,0.8137
-0.286,0.838,-0.086,41.4,-84.6,-305.4,1023,2018,5,17,21,37,8.22,-0.1474,-0.2004,-0.546,0.7999
-0.344,0.91,0.031,49.9,-82.8,-241.5,1023,2018,5,17,21,37,8.242,-0.1926,-0.2173,-0.5463,0.7855
-0.381,0.947,0.036,45.3,-57.5,-163.5,1023,2018,5,17,21,37,8.264,-0.2274,-0.2273,-0.5464,0.7733
-0.329,1.054,-0.017,30.7,-45.2,-84.9,1023,2018,5,17,21,37,8.281,-0.2494,-0.2317,-0.5464,0.7651
-0.299,1.137,-0.079,19.2,-41.8,-5.9,1023,2018,5,17,21,37,8.304,-0.2593,-0.2309,-0.5491,0.7601
-0.352,1.1,-0.02,8.2,-36.9,81.1,0,2018,5,17,21,37,8.323,-0.2569,-0.2235,-0.555,0.7588
-0.411,1.055,-0.032,-7.3,-12.7,172.3,0,2018,5,17,21,37,8.346,-0.2407,-0.2099,-0.5629,0.7623
-0.418,0.937,-0.116,-13.2,36.4,263.7,0,2018,5,17,21,37,8.362,-0.2094,-0.1901,-0.5692,0.7719
-0.443,0.816,-0.19,1.2,93.6,349.8,0,2018,5,17,21,37,8.386,-0.1645,-0.1624,-0.57,0.7884
-0.4,0.583,-0.206,30.9,180.4,426.3,0,2018,5,17,21,37,8.423,-0.1078,-0.1248,-0.5601,0.8117
-0.314,0.679,-0.242,76.2,268.1,478.9,0,2018,5,17,21,37,8.446,-0.0427,-0.0766,-0.5336,0.8411
-0.267,0.663,-0.518,132.3,289.3,505.8,0,2018,5,17,21,37,8.451,0.024,-0.0173,-0.4955,0.8681
-0.323,0.368,-0.742,201.3,260.5,486.5,0,2018,5,17,21,37,8.464,0.0857,0.0521,-0.4531,0.8857
-0.391,-0.062,-0.687,263.6,252.4,465.3,0,2018,5,17,21,37,8.482,0.138,0.129,-0.4114,0.8916
-0.589,-0.133,-0.329,309.8,352,447.7,0,2018,5,17,21,37,8.502,0.1808,0.2135,-0.3595,0.8901
-1.084,0.102,-0.069,343.6,420.5,364.2,0,2018,5,17,21,37,8.539,0.2081,0.3015,-0.2915,0.8836
-1.577,0.256,0.673,314.8,295.2,221.6,0,2018,5,17,21,37,8.562,0.2158,0.38,-0.2295,0.8696
-1.803,0.009,1.147,227,69.7,77.9,0,2018,5,17,21,37,8.567,0.2151,0.433,-0.2031,0.8514
-1.585,-0.312,1.212,117.3,-91.7,-15.7,0,2018,5,17,21,37,8.582,0.2147,0.4577,-0.2109,0.8365
-1.346,-0.467,1.18,17.3,-141.8,-61.8,1023,2018,5,17,21,37,8.608,0.216,0.4599,-0.2346,0.8286
-1.024,-0.367,1.049,-67.5,-141.8,-92.7,1023,2018,5,17,21,37,8.624,0.2171,0.4469,-0.2606,0.8277
-0.802,-0.066,0.856,-133.5,-166.3,-124.1,1023,2018,5,17,21,37,8.647,0.2178,0.421,-0.2867,0.8324
-0.649,-0.01,0.646,-178.8,-212.4,-152.7,1023,2018,5,17,21,37,8.682,0.2192,0.3831,-0.3182,0.8389
-0.681,-0.274,0.463,-210.2,-255.6,-193.3,1023,2018,5,17,21,37,8.705,0.2202,0.3352,-0.356,0.844
-0.776,-0.473,0.309,-240.8,-270.5,-238.8,1023,2018,5,17,21,37,8.709,0.2173,0.2776,-0.3991,0.8463
-0.699,-0.205,0.162,-245.4,-275.3,-298.7,1023,2018,5,17,21,37,8.726,0.2073,0.2119,-0.4408,0.8471
-0.407,-0.377,-0.103,-218.5,-259.7,-380.7,1023,2018,5,17,21,37,8.743,0.1841,0.1399,-0.4836,0.8441
-0.348,-0.23,-0.416,-183.1,-241.4,-438.4,1023,2018,5,17,21,37,8.766,0.1459,0.067,-0.5211,0.8382
-0.334,-0.247,-0.647,-137,-221.1,-465.4,1023,2018,5,17,21,37,8.785,0.0962,-0.0041,-0.5536,0.8271
-0.378,0.014,-0.724,-77.1,-141.4,-473.3,1023,2018,5,17,21,37,8.809,0.038,-0.0685,-0.5753,0.8141
-0.342,0.478,-0.573,-23.1,-55,-451.6,1023,2018,5,17,21,37,8.825,-0.024,-0.1226,-0.5807,0.8044
-0.384,0.891,-0.295,22.9,-29,-418,1023,2018,5,17,21,37,8.848,-0.0857,-0.166,-0.574,0.7971
-0.508,0.874,-0.083,55.8,-27,-351.5,1023,2018,5,17,21,37,8.867,-0.1441,-0.1981,-0.5647,0.788
-0.496,0.91,-0.091,69.5,2,-265.8,0,2018,5,17,21,37,8.89,-0.1931,-0.2191,-0.5534,0.7799
-0.453,1.192,-0.233,70.9,53.5,-169.1,0,2018,5,17,21,37,8.908,-0.2274,-0.2311,-0.5374,0.7784
-0.325,1.387,-0.213,67.1,63.3,-75.5,0,2018,5,17,21,37,8.931,-0.2472,-0.2355,-0.5207,0.7824
-0.326,1.539,-0.128,62,12.5,10.4,0,2018,5,17,21,37,8.95,-0.2554,-0.2313,-0.5106,0.7876
-0.387,1.528,-0.1,50.9,-46.7,95.9,0,2018,5,17,21,37,8.972,-0.2536,-0.2176,-0.513,0.7906
-0.442,1.411,-0.168,40.3,-77.8,176.7,0,2018,5,17,21,37,8.988,-0.2406,-0.1961,-0.5247,0.7926
-0.559,1.135,-0.197,35.7,-76.3,258.2,0,2018,5,17,21,37,9.006,-0.2162,-0.1672,-0.541,0.7952
-0.592,0.851,-0.192,30.1,-29.1,333.9,0,2018,5,17,21,37,9.029,-0.1791,-0.1322,-0.5551,0.8013
-0.548,0.69,-0.138,38.2,42.5,404.4,0,2018,5,17,21,37,9.066,-0.1296,-0.0915,-0.5603,0.8129
-0.494,0.703,-0.185,58.1,100.5,453.1,0,2018,5,17,21,37,9.089,-0.0716,-0.044,-0.5534,0.8286
-0.465,0.409,-0.282,94.1,175.7,491.3,0,2018,5,17,21,37,9.094,-0.0088,0.0111,-0.534,0.8453
-0.485,-0.065,-0.266,152.7,238.6,506.7,0,2018,5,17,21,37,9.109,0.0531,0.0757,-0.4997,0.8612
-0.77,-0.637,0.021,199.1,195.7,452,0,2018,5,17,21,37,9.132,0.1068,0.1468,-0.4581,0.8701
-1.05,-0.315,0.197,204,113.2,393.1,0,2018,5,17,21,37,9.15,0.1494,0.2136,-0.4267,0.8659
-1.536,-0.404,0.476,167.9,44.9,309.1,0,2018,5,17,21,37,9.174,0.1861,0.2698,-0.4059,0.853
-1.719,-1.388,1.031,97.7,-36.6,125.5,1023,2018,5,17,21,37,9.187,0.2084,0.3053,-0.3995,0.8388
-1.604,-1.591,1.305,4.5,-92.4,-30.4,1023,2018,5,17,21,37,9.206,0.2137,0.3121,-0.4096,0.8301
-1.133,-1.128,1.017,-75.6,-126,-113.3,1023,2018,5,17,21,37,9.229,0.2109,0.2958,-0.4288,0.827
-0.614,-0.585,0.602,-128.7,-156,-166.6,1023,2018,5,17,21,37,9.266,0.2055,0.264,-0.4519,0.8269
-0.506,-0.733,0.224,-143.7,-155.8,-212.3,1023,2018,5,17,21,37,9.288,0.1958,0.2229,-0.4785,0.8263
-0.566,-0.472,0.173,-155.3,-128.7,-254.4,1023,2018,5,17,21,37,9.293,0.1795,0.1767,-0.5025,0.8269
-0.398,-0.211,0.06,-154.9,-130.2,-294.1,1023,2018,5,17,21,37,9.327,0.1571,0.1253,-0.524,0.8276
-0.322,-0.093,-0.043,-136.4,-124.2,-321.9,1023,2018,5,17,21,37,9.35,0.1284,0.0722,-0.5437,0.8261
-0.304,-0.192,-0.324,-110.2,-120.3,-352.7,1023,2018,5,17,21,37,9.355,0.0926,0.0194,-0.5615,0.822
-0.35,-0.004,-0.33,-81.4,-87.3,-368.5,1023,2018,5,17,21,37,9.371,0.05,-0.0316,-0.5746,0.8162
-0.293,0.263,-0.338,-62.3,-53.4,-363.4,1023,2018,5,17,21,37,9.39,0.0046,-0.0795,-0.5805,0.8103
-0.255,0.468,-0.427,-38.6,-6.9,-336.2,1023,2018,5,17,21,37,9.429,-0.0399,-0.122,-0.5783,0.8055
-0.294,0.646,-0.472,-16.1,21.8,-302.2,1023,2018,5,17,21,37,9.452,-0.0815,-0.1576,-0.5689,0.8029
-0.281,0.829,-0.384,9.2,23.9,-261.9,1023,2018,5,17,21,37,9.456,-0.1199,-0.1863,-0.5567,0.8005
-0.286,0.941,-0.196,25.3,-1.4,-216.5,1023,2018,5,17,21,37,9.491,-0.1545,-0.2072,-0.5458,0.7969
-0.233,0.946,-0.111,35.7,-10.9,-154.1,0,2018,5,17,21,37,9.512,-0.1831,-0.2201,-0.5386,0.7923
-0.169,1.096,-0.213,38,-17,-87.8,0,2018,5,17,21,37,9.517,-0.2036,-0.2259,-0.5344,0.7885
-0.151,1.107,-0.274,41.5,-4.1,-10.7,0,2018,5,17,21,37,9.53,-0.2141,-0.2246,-0.532,0.7877
-0.174,1.04,-0.262,45.1,10.1,70.3,0,2018,5,17,21,37,9.554,-0.2135,-0.2158,-0.5308,0.7912
-0.17,1.188,-0.326,45.6,8.1,144.1,0,2018,5,17,21,37,9.59,-0.2019,-0.1999,-0.5313,0.798
-0.265,1.279,-0.326,52.4,-5.6,218.6,0,2018,5,17,21,37,9.613,-0.1806,-0.1761,-0.5352,0.8061
-0.412,1.188,-0.293,60.9,-13.1,286.4,0,2018,5,17,21,37,9.618,-0.1501,-0.1438,-0.5421,0.8141
-0.47,1.07,-0.296,73.1,3.6,348.7,0,2018,5,17,21,37,9.634,-0.1108,-0.1038,-0.5482,0.8224
-0.527,0.991,-0.243,96.3,14.4,399.4,0,2018,5,17,21,37,9.67,-0.0643,-0.0556,-0.5504,0.8305
-0.645,0.763,-0.185,117.1,19.4,436.1,0,2018,5,17,21,37,9.693,-0.0133,0.0002,-0.549,0.8356
-0.752,0.224,-0.067,140.6,39.1,455.6,0,2018,5,17,21,37,9.698,0.0398,0.0621,-0.5424,0.8368
-0.876,-0.56,-0.207,167.2,56.3,461,0,2018,5,17,21,37,9.712,0.0915,0.1279,-0.5298,0.8333
-1.227,-0.689,-0.059,180.6,71.2,437.9,0,2018,5,17,21,37,9.75,0.1384,0.1958,-0.5123,0.8246
-1.581,-0.549,0.598,149.8,87.4,399.6,0,2018,5,17,21,37,9.773,0.1816,0.2596,-0.4876,0.8135
-1.634,-0.909,0.967,98.8,-1.9,260.9,0,2018,5,17,21,37,9.778,0.2154,0.3056,-0.4697,0.7996
-1.615,-1.481,0.751,39.8,-46.4,108.8,1023,2018,5,17,21,37,9.794,0.2367,0.3285,-0.4676,0.7857
-1.434,-1.252,0.631,-28.6,-39.2,-21.3,1023,2018,5,17,21,37,9.812,0.2434,0.3307,-0.471,0.7806
-0.931,-0.827,0.636,-95.8,-75.6,-122.1,1023,2018,5,17,21,37,9.835,0.2408,0.3127,-0.4809,0.7828
-0.603,-0.614,0.52,-133.6,-120.4,-169.6,1023,2018,5,17,21,37,9.853,0.2354,0.2793,-0.497,0.787
-0.675,-0.725,0.31,-151.6,-159.4,-222,1023,2018,5,17,21,37,9.876,0.2273,0.2364,-0.52,0.7886
-0.63,-0.682,0.156,-166.8,-164.5,-271.5,1023,2018,5,17,21,37,9.913,0.2143,0.1854,-0.5458,0.7884
-0.521,-0.652,-0.084,-158.4,-144.5,-322.2,1023,2018,5,17,21,37,9.936,0.1935,0.1285,-0.5695,0.7884
-0.386,-0.362,-0.319,-134.6,-117,-375.1,1023,2018,5,17,21,37,9.941,0.1621,0.0685,-0.589,0.7886
-0.262,-0.149,-0.487,-101.6,-92.5,-407.7,1023,2018,5,17,21,37,9.975,0.1208,0.0086,-0.6033,0.7882
-0.228,0.004,-0.631,-63.3,-71.1,-424,1023,2018,5,17,21,37,9.996,0.0721,-0.0485,-0.6116,0.7863
-0.281,0.171,-0.614,-13.1,-22.5,-427.1,1023,2018,5,17,21,37,10.001,0.0168,-0.0997,-0.6121,0.7842
-0.329,0.527,-0.446,27.9,13.6,-414.9,1023,2018,5,17,21,37,10.015,-0.0418,-0.1433,-0.6031,0.7835
-0.412,0.749,-0.274,56.2,38.6,-376.3,1023,2018,5,17,21,37,10.052,-0.0996,-0.1792,-0.5876,0.7826
-0.5,0.969,-0.1,69.3,61.3,-322.9,1023,2018,5,17,21,37,10.075,-0.1521,-0.207,-0.5669,0.7826
-0.505,1.291,-0.086,68.7,54.6,-261.8,0,2018,5,17,21,37,10.08,-0.1961,-0.2276,-0.5449,0.7827
-0.483,1.346,-0.101,59.8,29.1,-174.2,0,2018,5,17,21,37,10.096,-0.2298,-0.2403,-0.5279,0.7814
-0.431,1.36,-0.106,44.5,27.4,-81.2,0,2018,5,17,21,37,10.119,-0.2504,-0.2461,-0.5161,0.7812
-0.333,1.576,-0.198,30.7,5.3,14.5,0,2018,5,17,21,37,10.138,-0.257,-0.2448,-0.5101,0.7834
-0.345,1.64,-0.264,26.3,-21.3,121.9,0,2018,5,17,21,37,10.176,-0.2502,-0.2343,-0.513,0.7869
-0.492,1.612,-0.117,23.8,-53.7,226.2,0,2018,5,17,21,37,10.199,-0.2291,-0.2133,-0.5233,0.7924
-0.648,1.457,-0.202,22.8,-104.4,317.7,0,2018,5,17,21,37,10.204,-0.1958,-0.1814,-0.5431,0.796
-0.711,1.155,-0.361,20.4,-101.1,400.1,0,2018,5,17,21,37,10.219,-0.1505,-0.1402,-0.5673,0.7973
-0.948,0.712,-0.322,35.3,-50,471.9,0,2018,5,17,21,37,10.24,-0.0937,-0.0907,-0.586,0.7996
-0.982,0.299,0.096,59.2,22.2,512.2,0,2018,5,17,21,37,10.258,-0.0296,-0.0329,-0.5921,0.8046
-0.976,0.255,0.399,60.6,52.2,524.4,0,2018,5,17,21,37,10.276,0.0377,0.0293,-0.586,0.8088
-0.926,0.146,-0.1,71.7,-0.6,519.7,0,2018,5,17,21,37,10.299,0.1047,0.0917,-0.5769,0.8048
-1.445,-0.634,-0.354,73.5,-56.9,492.7,0,2018,5,17,21,37,10.317,0.1679,0.1526,-0.5733,0.7872
-1.814,-1.393,0.164,35.3,-28.9,434.1,0,2018,5,17,21,37,10.34,0.228,0.2047,-0.5673,0.7643
-1.584,-2.198,0.342,40.6,59.5,284.1,0,2018,5,17,21,37,10.376,0.2702,0.246,-0.553,0.7487
-1.548,-1.839,0.442,13,57.2,107.1,1023,2018,5,17,21,37,10.399,0.2879,0.2711,-0.5387,0.7438
-1.169,-1.241,0.377,-34.6,-20.8,-51.2,1023,2018,5,17,21,37,10.404,0.2903,0.2725,-0.5352,0.7449
-0.685,-0.904,0.354,-72.6,-107,-171.3,1023,2018,5,17,21,37,10.438,0.2826,0.2504,-0.5475,0.7466
-0.567,-0.971,0.184,-90.1,-139.1,-246.9,1023,2018,5,17,21,37,10.459,0.2671,0.2121,-0.5699,0.7475
-0.581,-0.833,0.135,-103.2,-131.9,-297.8,1023,2018,5,17,21,37,10.464,0.2451,0.1651,-0.5932,0.7487
-0.498,-0.675,-0.072,-102.9,-111.7,-339.4,1023,2018,5,17,21,37,10.498,0.2171,0.1134,-0.6133,0.7508
-0.438,-0.363,-0.181,-81.7,-77.8,-372.1,1023,2018,5,17,21,37,10.498,0.1816,0.0592,-0.6277,0.7545
-0.299,-0.101,-0.282,-58.2,-48.3,-389.1,1023,2018,5,17,21,37,10.521,0.1391,0.0059,-0.6362,0.7588
-0.291,0.091,-0.336,-28.1,-12,-387.6,1023,2018,5,17,21,37,10.54,0.092,-0.0436,-0.638,0.7632
-0.328,0.329,-0.358,1.5,15.5,-379.7,1023,2018,5,17,21,37,10.577,0.0422,-0.0879,-0.6329,0.768
-0.322,0.512,-0.347,29.6,35.4,-359.1,1023,2018,5,17,21,37,10.599,-0.0087,-0.1263,-0.622,0.7726
-0.323,0.746,-0.214,51.6,53,-326.6,1023,2018,5,17,21,37,10.605,-0.0586,-0.1579,-0.6071,0.7765
-0.341,1.052,-0.117,63.7,53,-282.9,1023,2018,5,17,21,37,10.621,-0.1043,-0.1826,-0.5895,0.7798
-0.344,1.27,-0.113,72.4,33.7,-224.2,1023,2018,5,17,21,37,10.64,-0.1442,-0.1999,-0.5731,0.7814
-0.349,1.278,-0.079,69.3,18.2,-142.5,1023,2018,5,17,21,37,10.662,-0.175,-0.2091,-0.5605,0.7819
-0.294,1.304,-0.084,62.7,-18.8,-62.1,0,2018,5,17,21,37,10.681,-0.1951,-0.21,-0.5545,0.7812
-0.289,1.35,-0.002,53.1,-33.3,27,0,2018,5,17,21,37,10.704,-0.2037,-0.2026,-0.5556,0.7802
-0.353,1.407,0.102,33.2,-31.9,119.8,0,2018,5,17,21,37,10.723,-0.1987,-0.1882,-0.5608,0.7813
-0.465,1.237,0.062,12.1,-9.4,217.7,0,2018,5,17,21,37,10.746,-0.178,-0.1676,-0.5682,0.7857
-0.422,1.083,-0.093,-1,41.8,311.4,0,2018,5,17,21,37,10.762,-0.141,-0.1409,-0.5728,0.795
-0.457,0.953,-0.134,13.3,88,392.3,0,2018,5,17,21,37,10.783,-0.0902,-0.106,-0.5711,0.8089
-0.453,0.718,-0.016,41.5,144.7,458.4,0,2018,5,17,21,37,10.801,-0.03,-0.061,-0.5605,0.8253
-0.538,0.654,0.194,73.3,166.4,488.7,0,2018,5,17,21,37,10.821,0.0346,-0.0064,-0.5399,0.8409
-0.615,0.195,0.054,97,154.3,490.9,0,2018,5,17,21,37,10.844,0.099,0.0533,-0.5148,0.8498
-0.754,-0.119,-0.169,130.5,139.4,494.2,0,2018,5,17,21,37,10.862,0.1595,0.1166,-0.4882,0.85
-1.184,-0.546,-0.226,145.6,112.9,457,0,2018,5,17,21,37,10.885,0.2154,0.181,-0.4623,0.8408
-1.818,-1.239,0.348,144.1,47.7,352.5,0,2018,5,17,21,37,10.904,0.2606,0.2386,-0.442,0.8244
-1.859,-1.602,0.964,89.3,16.2,160.1,0,2018,5,17,21,37,10.922,0.2867,0.2767,-0.4323,0.8088
-1.57,-1.581,0.985,12.7,-17,-32.6,0,2018,5,17,21,37,10.943,0.29,0.2878,-0.4334,0.8032
-1.005,-0.922,0.802,-73.8,-72,-165.5,0,2018,5,17,21,37,10.98,0.2788,0.2724,-0.4438,0.8068
-0.463,-0.56,0.494,-122.9,-133.3,-226,0,2018,5,17,21,37,10.98,0.2631,0.2362,-0.4627,0.8128
-0.381,-0.54,0.209,-131.9,-174.5,-267.9,1023,2018,5,17,21,37,11.003,0.244,0.1899,-0.489,0.8155
-0.437,-0.58,0.013,-134.3,-182.7,-306.8,1023,2018,5,17,21,37,11.021,0.2199,0.1382,-0.5185,0.8146
-0.467,-0.454,0.066,-130.4,-152.3,-336.9,1023,2018,5,17,21,37,11.045,0.1897,0.0833,-0.5438,0.8132
-0.454,-0.232,0.043,-120.1,-102.6,-361.9,1023,2018,5,17,21,37,11.063,0.1536,0.0275,-0.5609,0.8129
-0.492,-0.189,-0.259,-97.7,-52.5,-386.6,1023,2018,5,17,21,37,11.085,0.1112,-0.0269,-0.569,0.8142
-0.491,0.168,-0.338,-75.4,-30.8,-401.3,1023,2018,5,17,21,37,11.105,0.0633,-0.0791,-0.5691,0.8159
-0.448,0.461,-0.3,-46.8,-37.6,-409.7,1023,2018,5,17,21,37,11.124,0.0107,-0.1285,-0.5663,0.8139
-0.49,0.649,-0.233,-25.8,-35.2,-389.6,1023,2018,5,17,21,37,11.163,-0.0434,-0.1731,-0.5608,0.8084
-0.448,0.631,-0.249,-11.1,-11.8,-354.8,1023,2018,5,17,21,37,11.187,-0.0947,-0.2119,-0.552,0.8008
-0.491,0.986,-0.17,3.8,-5.6,-312.3,1023,2018,5,17,21,37,11.191,-0.1412,-0.244,-0.5394,0.7934
-0.436,0.991,-0.032,13.6,-16.1,-245.6,1023,2018,5,17,21,37,11.209,-0.181,-0.2685,-0.5277,0.7852
-0.416,1.137,0.051,12.5,-21,-166.1,1023,2018,5,17,21,37,11.227,-0.2111,-0.2846,-0.5197,0.7773
-0.309,1.337,-0.063,3.2,-35.2,-77.1,1023,2018,5,17,21,37,11.25,-0.2293,-0.2934,-0.5166,0.7709
-0.255,1.511,-0.244,-2.4,-67.5,12.8,1023,2018,5,17,21,37,11.269,-0.2357,-0.2943,-0.5213,0.7655
-0.287,1.524,-0.335,1.3,-112.7,103.4,1023,2018,5,17,21,37,11.305,-0.232,-0.2851,-0.5359,0.7599
-0.396,1.502,-0.407,-0.9,-145.4,195.2,0,2018,5,17,21,37,11.305,-0.2183,-0.2655,-0.5602,0.7536
-0.538,1.222,-0.375,-0.6,-143.8,285.1,0,2018,5,17,21,37,11.328,-0.1929,-0.2359,-0.59,0.7476
-0.672,0.951,-0.311,3.1,-97.3,377.5,0,2018,5,17,21,37,11.347,-0.1541,-0.1968,-0.6182,0.7451
-0.719,0.831,-0.305,21.7,-31.1,461.3,0,2018,5,17,21,37,11.365,-0.1021,-0.1473,-0.6388,0.7481
-0.851,0.131,-0.192,59.3,20.9,499.8,0,2018,5,17,21,37,11.388,-0.0432,-0.087,-0.6485,0.7549
-0.778,-0.65,0.159,81.2,106.8,517.5,0,2018,5,17,21,37,11.406,0.0168,-0.0201,-0.6448,0.7638
-0.774,-1.019,0.257,102,236.9,529.3,0,2018,5,17,21,37,11.429,0.0764,0.0516,-0.6209,0.7783
-0.941,-0.841,-0.085,113.9,400.2,521.5,0,2018,5,17,21,37,11.466,0.1319,0.1276,-0.5716,0.7997
-1.306,-0.18,0.704,91.8,417.3,420.7,0,2018,5,17,21,37,11.488,0.1777,0.1995,-0.4987,0.8245
-1.073,0.224,1.36,25.6,216.7,239.7,0,2018,5,17,21,37,11.493,0.2075,0.2455,-0.4408,0.8379
-1.12,-0.668,1.376,-17.3,-21.4,118.3,0,2018,5,17,21,37,11.527,0.2285,0.2618,-0.4212,0.8376
-1.379,-1.118,1.008,-67.3,-151,22,0,2018,5,17,21,37,11.527,0.2458,0.2572,-0.4294,0.83
-1.141,-1.097,0.629,-131,-252.3,-74,0,2018,5,17,21,37,11.549,0.258,0.2318,-0.4567,0.8192
-0.644,-0.874,0.254,-163.6,-307,-167.9,0,2018,5,17,21,37,11.589,0.2634,0.1873,-0.4954,0.8062
-0.415,-0.846,-0.066,-155.6,-312.8,-272,0,2018,5,17,21,37,11.592,0.2554,0.1301,-0.5387,0.7921
-0.377,-0.886,-0.32,-120.3,-268.5,-357.8,0,2018,5,17,21,37,11.606,0.2303,0.0672,-0.5784,0.7796
-0.318,-0.589,-0.454,-76.5,-219,-419.8,0,2018,5,17,21,37,11.628,0.1888,0.0046,-0.6095,0.7698
-0.205,-0.17,-0.449,-30.2,-179.9,-448.9,1023,2018,5,17,21,37,11.666,0.135,-0.0556,-0.6324,0.7607
-0.219,0.035,-0.465,11.7,-136.3,-441.9,1023,2018,5,17,21,37,11.689,0.0746,-0.1096,-0.6461,0.7515
-0.32,0.237,-0.431,59.4,-97.8,-425.7,1023,2018,5,17,21,37,11.693,0.011,-0.1558,-0.6522,0.7417
-0.453,0.574,-0.223,90,-61.2,-392.7,1023,2018,5,17,21,37,11.71,-0.0526,-0.1923,-0.6491,0.734
-0.574,0.657,-0.02,103.8,-28.8,-350.1,1023,2018,5,17,21,37,11.732,-0.1121,-0.2207,-0.6392,0.728
-0.621,0.85,0.158,98.2,-1.7,-295.7,1023,2018,5,17,21,37,11.751,-0.1647,-0.2432,-0.625,0.7232
-0.608,1.058,0.264,81.1,-7,-238.2,1023,2018,5,17,21,37,11.775,-0.2077,-0.2604,-0.6103,0.7186
-0.524,1.258,0.223,58.3,-29.5,-171.9,1023,2018,5,17,21,37,11.79,-0.2411,-0.2728,-0.6,0.7122
-0.585,1.383,0.184,39.5,-63.9,-88.5,1023,2018,5,17,21,37,11.807,-0.2645,-0.2783,-0.5972,0.7041
-0.56,1.308,0.322,11.6,-75.9,8,1023,2018,5,17,21,37,11.83,-0.2753,-0.2759,-0.6024,0.6964
-0.599,1.203,0.319,-29.3,-75.5,108.5,1023,2018,5,17,21,37,11.867,-0.2706,-0.2669,-0.615,0.6907
-0.584,1.103,0.128,-66.7,-26.7,218.5,1023,2018,5,17,21,37,11.89,-0.2477,-0.2524,-0.6311,0.6903
-0.531,0.979,-0.082,-82.5,46.8,332.7,1023,2018,5,17,21,37,11.895,-0.2047,-0.2311,-0.6446,0.6993
-0.521,0.862,-0.042,-61.8,129.9,437.8,1023,2018,5,17,21,37,11.909,-0.1448,-0.1989,-0.6503,0.7186
-0.478,0.354,0.115,-29,254.9,535.5,1023,2018,5,17,21,37,11.932,-0.0714,-0.1528,-0.642,0.7478
-0.318,0.168,0.228,28.5,439,611,1023,2018,5,17,21,37,11.952,0.0137,-0.0913,-0.6075,0.7888
-0.224,0.135,-0.125,113.1,615.4,654.3,0,2018,5,17,21,37,11.976,0.1023,-0.0118,-0.5378,0.8367
-0.393,0.672,-0.5,219.5,592.8,591.8,0,2018,5,17,21,37,11.993,0.1779,0.0823,-0.4449,0.8738
-1.493,0.143,0.127,309.9,426.2,491.9,0,2018,5,17,21,37,12.016,0.2309,0.1813,-0.3637,0.884
-2.939,0.049,1.692,234.8,115.4,325.4,0,2018,5,17,21,37,12.033,0.2662,0.262,-0.318,0.8713
-2.726,-1.245,2.15,23.7,-184.2,73.2,0,2018,5,17,21,37,12.056,0.2913,0.2886,-0.3227,0.8529
-1.711,-1.533,1.403,-100.7,-331.3,-119.1,0,2018,5,17,21,37,12.072,0.302,0.2646,-0.3627,0.8409
-0.918,-1.132,0.579,-158.3,-338.8,-222.6,0,2018,5,17,21,37,12.09,0.2991,0.2151,-0.4134,0.8326
-0.438,-0.985,0.121,-180.2,-312,-295.6,0,2018,5,17,21,37,12.113,0.2848,0.1531,-0.4605,0.8266
-0.423,-0.654,-0.126,-174.6,-267.4,-347.1,0,2018,5,17,21,37,12.131,0.2587,0.0864,-0.5006,0.8215
-0.378,-0.094,-0.193,-119.6,-137.7,-398.2,0,2018,5,17,21,37,12.154,0.1808,-0.0421,-0.5493,0.8147
-0.359,0.167,-0.223,-90.9,-97.4,-403.3,0,2018,5,17,21,37,12.172,0.1327,-0.0989,-0.5573,0.8135
-0.369,0.314,-0.21,-58.9,-79.7,-391.7,0,2018,5,17,21,37,12.196,0.0817,-0.1495,-0.5589,0.8114
-0.365,0.465,-0.191,-32.5,-58,-365.6,0,2018,5,17,21,37,12.214,0.0302,-0.1937,-0.5569,0.807
-0.438,0.636,-0.231,-15,-42,-341,0,2018,5,17,21,37,12.237,-0.0191,-0.2313,-0.5511,0.8014
-0.407,0.716,-0.237,-3.9,-12.8,-302.2,0,2018,5,17,21,37,12.253,-0.064,-0.2629,-0.5408,0.7964
-0.368,0.848,-0.169,3.1,8.7,-255.4,0,2018,5,17,21,37,12.277,-0.1025,-0.289,-0.5271,0.7925
-0.343,1.113,-0.116,8.2,-3.1,-210.1,0,2018,5,17,21,37,12.292,-0.1345,-0.3094,-0.5135,0.7889
-0.297,1.162,-0.087,12.4,-53.3,-158.2,1023,2018,5,17,21,37,12.33,-0.162,-0.3235,-0.5067,0.7824
-0.259,1.129,-0.152,14.2,-108.3,-105.4,1023,2018,5,17,21,37,12.353,-0.1856,-0.3308,-0.5098,0.772
-0.23,1.098,-0.211,12.6,-144.4,-50.4,1023,2018,5,17,21,37,12.358,-0.2046,-0.3315,-0.5217,0.7589
-0.199,1.167,-0.232,7.9,-173.9,5.2,1023,2018,5,17,21,37,12.392,-0.2174,-0.3264,-0.5406,0.7442
-0.264,1.213,-0.154,2,-200.6,68.2,1023,2018,5,17,21,37,12.415,-0.2236,-0.3149,-0.5662,0.7281
-0.373,1.018,-0.104,-10.9,-198.9,142.3,1023,2018,5,17,21,37,12.419,-0.2206,-0.2967,-0.5973,0.7116
-0.518,0.78,-0.077,-27.5,-148.2,228,1023,2018,5,17,21,37,12.435,-0.2044,-0.2725,-0.6289,0.6988
-0.675,0.448,-0.061,-34.5,-50,328.3,1023,2018,5,17,21,37,12.458,-0.1712,-0.242,-0.6543,0.6956
-0.531,0.515,-0.072,-21.7,72.4,421.1,1023,2018,5,17,21,37,12.476,-0.121,-0.2026,-0.6675,0.7061
-0.564,0.402,-0.14,19.3,151.6,491.5,1023,2018,5,17,21,37,12.499,-0.0591,-0.1508,-0.6667,0.7274
-0.676,0.075,-0.096,67.8,175.1,514.5,1023,2018,5,17,21,37,12.517,0.0034,-0.0874,-0.6564,0.7492
-0.762,-0.545,0.053,105.3,222.9,528.4,1023,2018,5,17,21,37,12.54,0.0644,-0.0149,-0.6361,0.7687
-0.898,-0.626,0.001,129.8,306.4,523,1023,2018,5,17,21,37,12.577,0.1226,0.0638,-0.599,0.7886
-1.021,-0.107,-0.049,144.3,347.5,456.9,1023,2018,5,17,21,37,12.577,0.1709,0.1409,-0.5473,0.807
-1.022,0.114,0.356,139.8,276.3,325.6,1023,2018,5,17,21,37,12.599,0.2033,0.2073,-0.495,0.8188
-1.151,-0.358,0.918,116.7,157.3,200.3,0,2018,5,17,21,37,12.617,0.2205,0.2552,-0.459,0.8218
-1.372,-0.849,1.153,63.4,51.4,121.5,0,2018,5,17,21,37,12.653,0.231,0.2843,-0.4413,0.8191
-1.403,-1.095,1.056,-11.8,-15.5,58.1,0,2018,5,17,21,37,12.676,0.2408,0.2955,-0.4357,0.8153
-1.064,-0.84,0.725,-91.8,-51.5,-11.1,0,2018,5,17,21,37,12.68,0.2499,0.2876,-0.4376,0.8144
-0.692,-0.593,0.454,-137.1,-94.9,-85.1,0,2018,5,17,21,37,12.697,0.2554,0.2641,-0.4452,0.8165
-0.626,-0.692,0.276,-164.8,-149.9,-171.5,0,2018,5,17,21,37,12.72,0.2537,0.2269,-0.4625,0.8186
-0.569,-0.679,0.167,-180,-182.2,-242.7,0,2018,5,17,21,37,12.738,0.2436,0.1778,-0.4878,0.8191
-0.431,-0.698,-0.035,-165.8,-177.1,-304.7,0,2018,5,17,21,37,12.761,0.2241,0.1212,-0.5141,0.8189
-0.341,-0.437,-0.297,-137.7,-146,-357.4,0,2018,5,17,21,37,12.78,0.1926,0.0629,-0.5374,0.8185
-0.265,-0.027,-0.435,-105.7,-120.2,-388.8,0,2018,5,17,21,37,12.798,0.1514,0.0055,-0.5548,0.818
-0.221,0.205,-0.506,-65.6,-104.4,-403.4,0,2018,5,17,21,37,12.821,0.1026,-0.0483,-0.5677,0.8153
-0.288,0.505,-0.417,-24.6,-85.9,-397.6,0,2018,5,17,21,37,12.837,0.0489,-0.0957,-0.5751,0.8109
-0.271,0.704,-0.273,9,-53.3,-370.5,0,2018,5,17,21,37,12.858,-0.0061,-0.1357,-0.5767,0.8055
-0.305,0.789,-0.121,29.6,-25.1,-323.6,0,2018,5,17,21,37,12.876,-0.0576,-0.1675,-0.5725,0.8004
-0.364,0.92,-0.112,40.1,-24.6,-274.1,0,2018,5,17,21,37,12.9,-0.1037,-0.192,-0.5661,0.7948
-0.307,0.994,-0.104,46.7,-29.3,-206.8,0,2018,5,17,21,37,12.935,-0.142,-0.209,-0.5601,0.7888
-0.254,1.095,-0.22,50,-40.8,-143.3,0,2018,5,17,21,37,12.959,-0.1716,-0.2183,-0.5566,0.7829
-0.173,1.224,-0.219,53.2,-71.3,-79.8,1023,2018,5,17,21,37,12.964,-0.1936,-0.2203,-0.5579,0.7762
-0.209,1.233,-0.152,51.5,-100.8,-14.9,1023,2018,5,17,21,37,12.98,-0.2084,-0.2147,-0.5658,0.7683
-0.321,1.255,0.015,42.1,-123.8,54.4,1023,2018,5,17,21,37,13.001,-0.2144,-0.2021,-0.5797,0.7595
-0.444,1.221,0.102,22,-122.2,136.1,1023,2018,5,17,21,37,13.039,-0.2091,-0.1833,-0.598,0.7516
-0.533,1.093,0.064,0,-100.3,218.3,1023,2018,5,17,21,37,13.06,-0.1899,-0.159,-0.6174,0.7465
-0.553,1.07,-0.018,-16.1,-86.4,288.7,1023,2018,5,17,21,37,13.064,-0.1581,-0.1294,-0.6363,0.7438
-0.649,0.786,0.061,-23.2,-68.5,356,1023,2018,5,17,21,37,13.079,-0.1154,-0.0933,-0.6535,0.7422
-0.641,0.361,0.102,-28.6,-0.6,415.9,1023,2018,5,17,21,37,13.097,-0.0624,-0.0514,-0.6639,0.7433
-0.641,0.214,0.058,-14.5,109.4,468.4,1023,2018,5,17,21,37,13.12,-0.0012,-0.003,-0.6578,0.7531
-0.782,-0.126,-0.134,17.5,151,499.2,1023,2018,5,17,21,37,13.139,0.0629,0.0532,-0.6373,0.7661
-1.026,-0.085,-0.215,44.6,154.7,479.5,1023,2018,5,17,21,37,13.162,0.1223,0.1129,-0.6106,0.7741
-1.12,-0.323,0.05,62.5,112.5,425.8,1023,2018,5,17,21,37,13.198,0.1751,0.1717,-0.5826,0.7748
-1.092,-0.764,0.223,60.6,90.8,347.2,1023,2018,5,17,21,37,13.221,0.2169,0.2216,-0.5588,0.769
-1.218,-1.628,0.302,58.7,97.6,275.2,1023,2018,5,17,21,37,13.226,0.2483,0.2637,-0.5365,0.7621
-1.541,-2.015,0.505,40,104,180,1023,2018,5,17,21,37,13.259,0.2683,0.2962,-0.5144,0.7586
-1.832,-1.612,0.608,-20.1,76.2,51.9,1023,2018,5,17,21,37,13.282,0.277,0.3119,-0.4984,0.7598
-1.293,-0.663,0.829,-100.1,-2.9,-108.7,0,2018,5,17,21,37,13.287,0.2757,0.3032,-0.4914,0.7684
-0.839,-0.626,0.738,-148.1,-125.5,-253.4,0,2018,5,17,21,37,13.303,0.2642,0.2663,-0.5043,0.7777
-0.654,-0.674,0.371,-166.7,-203.6,-331.5,0,2018,5,17,21,37,13.325,0.2449,0.2101,-0.533,0.7821
-0.604,-0.765,-0.046,-161.4,-217.9,-379.9,0,2018,5,17,21,37,13.342,0.2184,0.1446,-0.5675,0.7804
-0.471,-0.65,-0.27,-130.8,-138,-410.5,0,2018,5,17,21,37,13.36,0.1828,0.0777,-0.595,0.7787
-0.379,-0.157,-0.351,-102.1,-43,-426,0,2018,5,17,21,37,13.383,0.1385,0.0156,-0.6068,0.7825
-0.385,0.118,-0.552,-75.1,15,-429.6,0,2018,5,17,21,37,13.401,0.0891,-0.0422,-0.6053,0.7898
-0.503,0.339,-0.556,-41.2,54.5,-424.9,0,2018,5,17,21,37,13.424,0.0363,-0.0946,-0.5943,0.7977
-0.582,0.754,-0.354,-16.2,85.5,-399.7,0,2018,5,17,21,37,13.442,-0.0171,-0.1406,-0.5755,0.8053
-0.518,0.954,-0.211,-2.7,100.9,-361,0,2018,5,17,21,37,13.465,-0.0672,-0.18,-0.5515,0.8116
-0.629,1.033,-0.246,9.2,73,-323.8,0,2018,5,17,21,37,13.483,-0.1126,-0.2129,-0.5266,0.8152
-0.602,1.004,-0.32,15.2,54.8,-265.7,0,2018,5,17,21,37,13.506,-0.1532,-0.2391,-0.5058,0.8145
-0.446,1.097,-0.336,13.7,68.6,-197.5,0,2018,5,17,21,37,13.525,-0.1846,-0.2587,-0.4866,0.8137
-0.294,1.259,-0.309,9.2,50.5,-132.2,0,2018,5,17,21,37,13.548,-0.2055,-0.2728,-0.4693,0.8142
-0.226,1.329,-0.253,5.4,-5.6,-71.9,0,2018,5,17,21,37,13.564,-0.2192,-0.2809,-0.4608,0.8127
-0.219,1.407,-0.269,7.6,-79.5,-8.2,0,2018,5,17,21,37,13.582,-0.2276,-0.2816,-0.4647,0.8079
-0.241,1.29,-0.335,13.7,-142,63.4,0,2018,5,17,21,37,13.605,-0.2299,-0.2732,-0.4813,0.8004
-0.353,1.055,-0.328,16.4,-164.8,142.5,1023,2018,5,17,21,37,13.624,-0.2237,-0.2558,-0.5067,0.7922
-0.424,0.951,-0.293,14.1,-161.1,218.4,1023,2018,5,17,21,37,13.643,-0.207,-0.2308,-0.5363,0.7849
-0.507,1.027,-0.316,12.4,-150.2,290.9,1023,2018,5,17,21,37,13.666,-0.1787,-0.1991,-0.5663,0.7795
-0.652,0.939,-0.406,22.3,-158.7,346.6,1023,2018,5,17,21,37,13.683,-0.1413,-0.16,-0.5961,0.7739
-0.848,0.707,-0.362,31.7,-193.4,382.1,1023,2018,5,17,21,37,13.705,-0.0989,-0.1133,-0.6274,0.7639
-0.98,0.042,-0.307,24.3,-203.6,404.7,1023,2018,5,17,21,37,13.742,-0.0531,-0.0624,-0.6597,0.7469
-0.938,-0.134,-0.183,9.3,-136.4,428.8,1023,2018,5,17,21,37,13.765,-0.0025,-0.0106,-0.6844,0.7289
-0.895,-0.398,-0.278,7.3,-23.2,453.9,1023,2018,5,17,21,37,13.77,0.0522,0.0433,-0.6942,0.7165
-0.844,-0.023,-0.114,28.4,62.7,432.3,1023,2018,5,17,21,37,13.787,0.1055,0.1004,-0.6847,0.714
-1.042,-0.823,-0.062,26.5,52.4,370.8,1023,2018,5,17,21,37,13.81,0.1508,0.1538,-0.6693,0.7109
-1.07,-0.595,0.181,14.8,-10,278.1,1023,2018,5,17,21,37,13.826,0.1879,0.1953,-0.6551,0.7052
-1.099,-0.83,0.334,-6.5,-120.1,208.6,1023,2018,5,17,21,37,13.849,0.2193,0.2205,-0.656,0.6876
-0.864,-0.928,0.351,-32.1,-167.3,118.5,1023,2018,5,17,21,37,13.867,0.2462,0.2309,-0.6668,0.6643
-0.465,-1.109,0.019,-44.2,-82,86.4,1023,2018,5,17,21,37,13.884,0.2672,0.2317,-0.6771,0.6452
-0.627,-1.025,-0.035,-52.5,21.6,59.4,1023,2018,5,17,21,37,13.908,0.2812,0.2345,-0.6737,0.6418
-0.71,-0.833,0.022,-77.1,29.4,11.8,1023,2018,5,17,21,37,13.944,0.2908,0.2326,-0.6658,0.6465
-0.622,-0.531,0.073,-90.6,-13.3,-52,0,2018,5,17,21,37,13.967,0.2979,0.2213,-0.6614,0.6517
-0.514,-0.51,0.133,-91.1,-68.5,-131.7,0,2018,5,17,21,37,13.971,0.2997,0.1982,-0.6649,0.6547
-0.576,-0.785,0.046,-87,-99.3,-210.4,0,2018,5,17,21,37,13.988,0.2927,0.1633,-0.6759,0.6562
-0.586,-0.774,-0.081,-83.2,-114.8,-274.6,0,2018,5,17,21,37,14.008,0.2772,0.1193,-0.6904,0.6574
-0.509,-0.742,-0.226,-72.5,-110.6,-325.8,0,2018,5,17,21,37,14.027,0.254,0.069,-0.7053,0.6581
-0.443,-0.633,-0.328,-48.1,-70.4,-363.9,0,2018,5,17,21,37,14.05,0.2219,0.0151,-0.7161,0.6615
-0.405,-0.383,-0.436,-21.1,-16.9,-389.2,0,2018,5,17,21,37,14.068,0.1821,-0.0382,-0.7196,0.6689
-0.4,-0.118,-0.502,8.1,30,-400.5,0,2018,5,17,21,37,14.091,0.1363,-0.0884,-0.7143,0.6806
-0.359,0.247,-0.565,38.4,45,-403.6,0,2018,5,17,21,37,14.106,0.0859,-0.1341,-0.7021,0.6939
-0.333,0.458,-0.399,74,49.4,-386.5,0,2018,5,17,21,37,14.129,0.0319,-0.1743,-0.6859,0.7057
-0.388,0.613,-0.208,104.3,66.4,-353.2,0,2018,5,17,21,37,14.148,-0.0229,-0.2067,-0.6665,0.7158
-0.481,0.827,-0.099,119.6,72.1,-314.8,0,2018,5,17,21,37,14.17,-0.0752,-0.2315,-0.6438,0.7253
-0.475,1.011,0.033,126.8,75.9,-263.6,0,2018,5,17,21,37,14.189,-0.1226,-0.249,-0.6202,0.7336
-0.455,1.177,0.067,119.5,76.6,-185.6,0,2018,5,17,21,37,14.21,-0.1608,-0.2588,-0.5967,0.7423
-0.422,1.204,0.067,105.2,75.6,-106.3,0,2018,5,17,21,37,14.228,-0.1876,-0.2614,-0.5763,0.7511
-0.399,1.326,0.085,86.8,49.6,-24.4,0,2018,5,17,21,37,14.252,-0.2024,-0.2573,-0.5613,0.76
-0.342,1.415,0.136,66.8,-3.3,51.9,0,2018,5,17,21,37,14.269,-0.2066,-0.2465,-0.5559,0.7664
-0.396,1.31,0.065,43.4,-54.1,129.2,0,2018,5,17,21,37,14.293,-0.2007,-0.2291,-0.5618,0.7691
-0.463,1.153,0.066,21.8,-78.6,203.2,1023,2018,5,17,21,37,14.313,-0.1837,-0.2057,-0.576,0.7694
-0.515,1.051,0.076,1,-82,270.8,1023,2018,5,17,21,37,14.329,-0.1554,-0.1774,-0.5946,0.7686
-0.63,0.99,0.063,-9.8,-95.8,325.6,1023,2018,5,17,21,37,14.347,-0.1172,-0.1441,-0.6153,0.766
-0.649,0.773,0.076,-16.2,-71.8,377.2,1023,2018,5,17,21,37,14.369,-0.0703,-0.1061,-0.6346,0.7622
-0.618,0.343,0.054,-21.8,-18.4,417.2,1023,2018,5,17,21,37,14.406,-0.0158,-0.0635,-0.6468,0.7597
-0.609,0.209,-0.048,-10.2,45.2,446,1023,2018,5,17,21,37,14.429,0.0436,-0.0167,-0.6475,0.7605
-0.691,-0.24,-0.176,11.5,26.8,453.6,1023,2018,5,17,21,37,14.434,0.1036,0.0352,-0.6413,0.7594
-0.969,-0.486,-0.166,9.9,24.9,444.7,1023,2018,5,17,21,37,14.45,0.1613,0.0874,-0.633,0.752
-1.052,-1.034,-0.322,21.8,38.7,388.4,1023,2018,5,17,21,37,14.474,0.2142,0.1357,-0.6219,0.7408
-1.276,-1.593,-0.15,48.6,62.8,272.6,1023,2018,5,17,21,37,14.491,0.2512,0.1785,-0.6081,0.7314
-1.296,-1.671,0.167,41.3,51,118.2,1023,2018,5,17,21,37,14.514,0.2682,0.2084,-0.5965,0.7271
-1.046,-1.364,0.313,13.3,1.6,-30.9,1023,2018,5,17,21,37,14.531,0.2687,0.217,-0.5936,0.7267
-0.72,-1.081,0.382,-17.5,-50.3,-138.7,1023,2018,5,17,21,37,14.554,0.2582,0.2056,-0.6005,0.7282
-0.569,-0.989,0.205,-40.5,-78.8,-208.2,1023,2018,5,17,21,37,14.59,0.2407,0.1797,-0.6138,0.73
-0.601,-0.711,0.147,-52.3,-91.5,-265.4,1023,2018,5,17,21,37,14.613,0.2177,0.1447,-0.63,0.7311
-0.449,-0.452,0.056,-52.7,-87.4,-311.9,1023,2018,5,17,21,37,14.618,0.1893,0.103,-0.6462,0.732
-0.463,-0.441,-0.128,-37.8,-69.3,-348.5,0,2018,5,17,21,37,14.63,0.1534,0.0572,-0.6596,0.7335
-0.449,-0.311,-0.171,-18.7,-33.7,-371.3,0,2018,5,17,21,37,14.65,0.1104,0.0108,-0.6673,0.7364
-0.423,0.08,-0.114,-8.4,-13.8,-375.9,0,2018,5,17,21,37,14.673,0.0633,-0.035,-0.669,0.7397
-0.387,0.31,-0.15,6.1,-5.5,-368.3,0,2018,5,17,21,37,14.691,0.0151,-0.0793,-0.6669,0.7406
-0.425,0.446,-0.222,20.2,13.9,-348.2,0,2018,5,17,21,37,14.714,-0.0324,-0.1192,-0.6599,0.741
-0.459,0.666,-0.237,34,28.2,-324.7,0,2018,5,17,21,37,14.732,-0.0785,-0.1543,-0.6483,0.7413
-0.431,0.877,-0.034,42.3,33.8,-281.4,0,2018,5,17,21,37,14.755,-0.1212,-0.1838,-0.6342,0.7411
-0.372,1.064,0.097,39.9,11.2,-230.4,0,2018,5,17,21,37,14.792,-0.1576,-0.2071,-0.6209,0.7393
-0.317,1.21,0.094,35.5,-27,-169.4,0,2018,5,17,21,37,14.814,-0.1875,-0.2236,-0.613,0.7341
-0.293,1.36,0.016,26.2,-64.1,-95.1,0,2018,5,17,21,37,14.819,-0.2094,-0.2322,-0.6124,0.726
-0.286,1.268,0.012,14.8,-82.6,-10.2,0,2018,5,17,21,37,14.837,-0.2209,-0.2324,-0.6186,0.7171
-0.367,1.147,0.058,-2.8,-77,75.1,0,2018,5,17,21,37,14.854,-0.2204,-0.2247,-0.6295,0.7103
-0.422,1.093,0.042,-26.7,-51.5,162.5,0,2018,5,17,21,37,14.889,-0.2064,-0.2108,-0.6426,0.707
-0.461,0.994,0.005,-47.4,-8.9,250.2,0,2018,5,17,21,37,14.911,-0.1772,-0.1909,-0.655,0.7092
-0.468,1.035,-0.073,-50.5,48.7,335.2,0,2018,5,17,21,37,14.916,-0.134,-0.1637,-0.6628,0.7181
-0.434,0.872,-0.143,-39,103.2,410.9,0,2018,5,17,21,37,14.933,-0.0792,-0.1274,-0.6635,0.7329
-0.392,0.681,-0.223,-10.7,162.5,474.9,0,2018,5,17,21,37,14.956,-0.0159,-0.0805,-0.6545,0.7515
-0.443,0.456,-0.109,46,202.1,518,0,2018,5,17,21,37,14.976,0.0502,-0.0213,-0.6341,0.7713
-0.706,0.255,0.043,89.6,144.3,510.1,0,2018,5,17,21,37,14.996,0.1124,0.0469,-0.6099,0.7829
-0.966,0.093,0.039,102.6,60.8,492.5,1023,2018,5,17,21,37,15.014,0.1687,0.1155,-0.5919,0.7795
-1.288,-0.092,0.079,80.1,-8.4,448.3,1023,2018,5,17,21,37,15.037,0.2225,0.1771,-0.5796,0.7636
-1.567,-1.129,0.173,73.5,-41.5,332.2,1023,2018,5,17,21,37,15.055,0.2674,0.2248,-0.5738,0.7406
-1.708,-1.784,0.42,63.3,-69.1,185.3,1023,2018,5,17,21,37,15.078,0.295,0.2573,-0.5738,0.7192
-1.587,-1.866,0.394,22.4,-80.7,36.7,1023,2018,5,17,21,37,15.095,0.3068,0.2692,-0.5812,0.7039
-1.132,-1.403,0.275,-14.6,-78.7,-97.7,1023,2018,5,17,21,37,15.132,0.3051,0.261,-0.5933,0.6976
-0.799,-1.105,0.189,-37.9,-81.4,-198.9,1023,2018,5,17,21,37,15.155,0.2919,0.2369,-0.609,0.6983
-0.789,-0.872,0.134,-51.8,-104.3,-277.4,1023,2018,5,17,21,37,15.16,0.2702,0.2008,-0.6279,0.7016
-0.823,-0.769,0.154,-60.1,-126.3,-336.1,1023,2018,5,17,21,37,15.175,0.2426,0.1545,-0.6496,0.7036
-0.704,-0.587,0.126,-60,-123.5,-387.2,1023,2018,5,17,21,37,15.199,0.2076,0.1002,-0.6711,0.7045
-0.567,-0.386,-0.137,-39.2,-103,-424.3,1023,2018,5,17,21,37,15.215,0.1646,0.0423,-0.6884,0.7051
-0.482,-0.232,-0.247,-16.8,-66.1,-443.1,1023,2018,5,17,21,37,15.238,0.1143,-0.0158,-0.6991,0.7055
-0.464,-0.008,-0.263,6.7,-12.5,-438.6,1023,2018,5,17,21,37,15.256,0.06,-0.0711,-0.7005,0.7075
-0.541,0.284,-0.239,25.5,63.8,-419.5,1023,2018,5,17,21,37,15.279,0.0051,-0.1212,-0.69,0.7134
-0.595,0.565,-0.327,34,118.8,-390.4,1023,2018,5,17,21,37,15.298,-0.0463,-0.1656,-0.6674,0.7245
-0.602,0.915,-0.154,44.1,135.2,-352.8,1023,2018,5,17,21,37,15.321,-0.094,-0.2045,-0.638,0.7363
-0.572,1.151,-0.033,42.8,122.7,-300.7,1023,2018,5,17,21,37,15.34,-0.136,-0.237,-0.6075,0.7457
-0.532,1.299,-0.028,38.4,100,-235.8,0,2018,5,17,21,37,15.378,-0.1701,-0.2625,-0.5798,0.7522
-0.452,1.322,-0.012,27.4,68.3,-161.1,0,2018,5,17,21,37,15.378,-0.1952,-0.2805,-0.5579,0.7561
-0.38,1.283,-0.079,15.8,35.6,-84.4,0,2018,5,17,21,37,15.401,-0.2106,-0.2912,-0.5441,0.758
-0.336,1.308,-0.133,1,3.9,-7.2,0,2018,5,17,21,37,15.419,-0.2161,-0.2951,-0.5386,0.7589
-0.316,1.431,-0.161,-10.1,-41.7,68.5,0,2018,5,17,21,37,15.438,-0.2122,-0.2921,-0.5426,0.7583
-0.384,1.423,-0.166,-20.4,-94.8,136.5,0,2018,5,17,21,37,15.459,-0.2002,-0.2816,-0.5574,0.7548
-0.5,1.25,-0.193,-31.7,-129.5,198.1,0,2018,5,17,21,37,15.497,-0.1808,-0.2645,-0.5812,0.748
-0.583,1.059,-0.238,-45.1,-130.3,265.8,0,2018,5,17,21,37,15.519,-0.1523,-0.2414,-0.6096,0.7394
-0.606,0.936,-0.315,-46,-96.6,335,0,2018,5,17,21,37,15.524,-0.1127,-0.2119,-0.6369,0.7325
-0.627,0.73,-0.437,-31.6,-62.4,395.1,0,2018,5,17,21,37,15.539,-0.0639,-0.1741,-0.6596,0.7283
-0.647,0.625,-0.386,-10.6,-25,444.5,0,2018,5,17,21,37,15.561,-0.0092,-0.1272,-0.6764,0.7253
-0.67,0.374,-0.261,15.6,35.2,503.3,0,2018,5,17,21,37,15.58,0.0505,-0.0702,-0.6839,0.7243
-0.812,-0.017,-0.36,57.6,33.3,499.5,0,2018,5,17,21,37,15.603,0.1098,-0.0046,-0.6837,0.7213
-1.098,-0.362,-0.488,70.6,-3.1,489.1,0,2018,5,17,21,37,15.619,0.1637,0.0636,-0.6809,0.7109
-1.384,-0.418,-0.28,63.7,-15.1,455.8,0,2018,5,17,21,37,15.655,0.2142,0.1272,-0.6769,0.6925
-1.534,-1.048,0.513,86.3,-11.6,322.9,0,2018,5,17,21,37,15.678,0.2526,0.1832,-0.669,0.6744
-1.352,-1.623,0.525,78,-39.4,176.5,0,2018,5,17,21,37,15.683,0.2719,0.2198,-0.668,0.6567
-1.45,-1.739,0.197,64.1,4.6,70.9,0,2018,5,17,21,37,15.699,0.2771,0.2422,-0.6681,0.6465
-1.167,-1.237,0.329,-9.6,-15.6,-30.8,1023,2018,5,17,21,37,15.721,0.2764,0.2464,-0.6689,0.6444
-0.706,-0.909,0.574,-53.4,-58.3,-117.7,1023,2018,5,17,21,37,15.739,0.2731,0.2316,-0.6754,0.6446
-0.591,-0.91,0.361,-76,-62.3,-174.2,1023,2018,5,17,21,37,15.763,0.2661,0.2036,-0.685,0.6467
-0.821,-0.982,0.065,-88.8,-65,-220.1,1023,2018,5,17,21,37,15.783,0.256,0.1679,-0.6946,0.6509
-0.747,-0.715,0.111,-83.4,-74.2,-282.7,1023,2018,5,17,21,37,15.806,0.2398,0.1247,-0.7051,0.6554
-0.403,-0.538,0.07,-70.6,-58.4,-341.9,1023,2018,5,17,21,37,15.823,0.2137,0.0739,-0.7158,0.6606
-0.378,-0.401,-0.274,-54.5,-32.2,-370.3,1023,2018,5,17,21,37,15.846,0.1808,0.0214,-0.7213,0.6682
-0.357,-0.285,-0.562,-36.6,-35.5,-393.3,1023,2018,5,17,21,37,15.862,0.1414,-0.0336,-0.7239,0.6743
-0.407,-0.092,-0.597,-1.9,-16.9,-397.7,1023,2018,5,17,21,37,15.885,0.0965,-0.0863,-0.723,0.6784
-0.358,0.185,-0.425,42.2,51.2,-385.5,1023,2018,5,17,21,37,15.901,0.0475,-0.1325,-0.7135,0.6862
-0.375,0.46,-0.329,82.2,92.5,-370.7,1023,2018,5,17,21,37,15.937,-0.0039,-0.1708,-0.6944,0.6989
-0.449,0.676,-0.375,115.8,78.8,-357,1023,2018,5,17,21,37,15.959,-0.0578,-0.2022,-0.6712,0.7107
-0.382,0.761,-0.384,140.9,69.8,-315.2,1023,2018,5,17,21,37,15.964,-0.1117,-0.2258,-0.6473,0.7193
-0.35,0.936,-0.377,162.8,98.8,-258.3,1023,2018,5,17,21,37,15.982,-0.1616,-0.2403,-0.6214,0.7279
-0.462,1.11,-0.185,164.6,128.2,-183.2,1023,2018,5,17,21,37,16.005,-0.2024,-0.2461,-0.5918,0.7403
-0.528,1.358,0.075,142.5,127.7,-91.3,1023,2018,5,17,21,37,16.023,-0.2297,-0.2447,-0.5625,0.7555
-0.562,1.482,0.193,112.8,89.9,1.1,1023,2018,5,17,21,37,16.044,-0.2428,-0.2365,-0.5402,0.7701
-0.547,1.675,0.227,80.7,4.5,85.1,0,2018,5,17,21,37,16.063,-0.2434,-0.2214,-0.531,0.7807
-0.508,1.671,0.048,47,-100.7,160.3,0,2018,5,17,21,37,16.086,-0.2339,-0.1991,-0.5398,0.7836
-0.623,1.362,-0.045,20.1,-176.1,224.9,0,2018,5,17,21,37,16.104,-0.2149,-0.1702,-0.5642,0.7786
-0.774,0.961,-0.021,-8.1,-193.4,283.8,0,2018,5,17,21,37,16.127,-0.1858,-0.137,-0.5962,0.7688
-0.833,0.593,0.076,-33.6,-172.5,331.6,0,2018,5,17,21,37,16.164,-0.1457,-0.1013,-0.6276,0.758
-0.849,0.392,0.189,-58,-108.3,366.3,0,2018,5,17,21,37,16.164,-0.0966,-0.0651,-0.6524,0.7488
-0.726,0.474,0.206,-76.8,-27.2,415.7,0,2018,5,17,21,37,16.186,-0.0379,-0.0282,-0.6645,0.7457
-0.648,0.21,-0.364,-68.2,34.6,458.1,0,2018,5,17,21,37,16.204,0.0281,0.0131,-0.664,0.747
-0.747,-0.587,-0.502,-39.3,95,474.8,0,2018,5,17,21,37,16.227,0.0945,0.0606,-0.6526,0.7492
-0.664,-0.29,-0.349,-16.1,86.9,457.5,0,2018,5,17,21,37,16.246,0.1571,0.1121,-0.6324,0.7501
-0.83,-0.33,-0.264,10.7,28.3,425.3,0,2018,5,17,21,37,16.282,0.2138,0.1617,-0.6142,0.7421
-1.172,-0.865,-0.161,46.8,-23.5,333.1,0,2018,5,17,21,37,16.305,0.2593,0.2066,-0.6028,0.7256
-1.373,-1.31,-0.114,58.5,-86.4,181.6,0,2018,5,17,21,37,16.31,0.2876,0.2375,-0.6032,0.7049
-1.298,-1.654,-0.055,46.3,-129.2,33.6,0,2018,5,17,21,37,16.326,0.2991,0.2493,-0.6157,0.6849
-0.988,-1.529,0.032,24.9,-115.3,-91.9,0,2018,5,17,21,37,16.349,0.2953,0.2427,-0.6348,0.6714
-0.691,-1.386,-0.035,7.3,-81.3,-174.9,0,2018,5,17,21,37,16.364,0.2803,0.2235,-0.6531,0.6668
-0.674,-1.113,-0.051,-1.2,-63.5,-241.2,0,2018,5,17,21,37,16.382,0.2573,0.1958,-0.6696,0.6685
-0.615,-0.861,0.01,-4.5,-49.7,-294.3,0,2018,5,17,21,37,16.405,0.2278,0.1608,-0.6847,0.6732
-0.548,-0.593,0.038,1.2,-34.2,-337.4,1023,2018,5,17,21,37,16.424,0.1921,0.1209,-0.6978,0.6793
-0.439,-0.433,-0.076,12.3,-1.8,-366.3,1023,2018,5,17,21,37,16.447,0.1502,0.079,-0.7063,0.6871
-0.437,-0.159,-0.132,19,28.8,-378.2,1023,2018,5,17,21,37,16.466,0.1028,0.0352,-0.7084,0.6973
-0.471,0.026,-0.194,24.5,48.6,-380.2,1023,2018,5,17,21,37,16.489,0.0534,-0.0082,-0.7049,0.7071
-0.537,0.231,-0.165,31.3,90.2,-366.6,1023,2018,5,17,21,37,16.507,0.004,-0.05,-0.6943,0.7178
-0.557,0.51,-0.204,34,129.2,-356.2,1023,2018,5,17,21,37,16.53,-0.0441,-0.0899,-0.6758,0.7302
-0.467,0.897,-0.125,39.6,132.4,-330.4,1023,2018,5,17,21,37,16.548,-0.0897,-0.1266,-0.6511,0.7428
-0.413,1.16,-0.079,47.8,92.1,-292.9,1023,2018,5,17,21,37,16.57,-0.1322,-0.158,-0.6274,0.7509
-0.389,1.22,-0.053,53.2,44.1,-233.7,1023,2018,5,17,21,37,16.589,-0.1702,-0.1816,-0.6091,0.7529
-0.359,1.23,-0.098,50.9,21.1,-161.4,1023,2018,5,17,21,37,16.629,-0.2005,-0.1964,-0.5967,0.7517
-0.328,1.199,-0.121,39.7,19.8,-79.6,1023,2018,5,17,21,37,16.631,-0.22,-0.2035,-0.5881,0.7511
-0.323,1.368,-0.067,27.2,13.3,5.3,1023,2018,5,17,21,37,16.669,-0.227,-0.2037,-0.5825,0.7533
-0.406,1.328,-0.023,12.5,-16.3,88.8,1023,2018,5,17,21,37,16.669,-0.2225,-0.196,-0.5835,0.7559
-0.465,1.35,0.023,-5.6,-46,166.5,1023,2018,5,17,21,37,16.689,-0.2065,-0.1811,-0.5916,0.7579
-0.526,1.31,-0.021,-26.3,-64.9,236.9,1023,2018,5,17,21,37,16.726,-0.1794,-0.1602,-0.6056,0.7585
-0.539,1.255,-0.119,-38.9,-80.2,301.8,1023,2018,5,17,21,37,16.748,-0.1415,-0.1336,-0.6228,0.7577
-0.578,1.05,-0.293,-40,-82.3,362.2,1023,2018,5,17,21,37,16.753,-0.0948,-0.1003,-0.6418,0.7543
-0.611,0.903,-0.26,-35.6,-47.7,423.9,0,2018,5,17,21,37,16.768,-0.0395,-0.0596,-0.6564,0.7509
-0.619,0.822,-0.2,-21.8,-12.2,477.1,0,2018,5,17,21,37,16.791,0.0229,-0.0112,-0.6629,0.7482
-0.857,0.511,-0.243,0.1,-27.4,495.3,0,2018,5,17,21,37,16.827,0.0877,0.0442,-0.6637,0.7414
-1.187,-0.322,-0.545,10.2,-70.5,500.5,0,2018,5,17,21,37,16.848,0.1518,0.1021,-0.6637,0.7252
-1.504,-0.986,-0.676,25.5,-44.2,481.5,0,2018,5,17,21,37,16.853,0.2121,0.1589,-0.661,0.7019
-1.695,-2.088,-0.461,64.3,49.2,392.6,0,2018,5,17,21,37,16.87,0.2608,0.2151,-0.6488,0.6817
-1.786,-2.29,-0.095,97.6,101.4,199.3,0,2018,5,17,21,37,16.892,0.2826,0.2628,-0.6304,0.6734
-1.427,-1.588,0.347,82.6,29.2,-15.8,0,2018,5,17,21,37,16.909,0.2783,0.2864,-0.6228,0.6726
-0.997,-1.111,0.783,46.7,-81.5,-179.9,0,2018,5,17,21,37,16.945,0.2595,0.2806,-0.6355,0.6707
-0.547,-0.71,0.688,-7.9,-62.6,-207.3,0,2018,5,17,21,37,16.968,0.2369,0.2557,-0.6567,0.6687
-0.662,-0.297,0.736,-75,-63.6,-197.3,0,2018,5,17,21,37,16.973,0.2217,0.2253,-0.6701,0.6715
-0.695,-0.124,0.595,-101.5,-65.3,-221.1,0,2018,5,17,21,37,16.989,0.2099,0.1877,-0.6822,0.6746
-0.489,-0.193,0.163,-111.6,-93.8,-264.3,0,2018,5,17,21,37,17.013,0.1963,0.1432,-0.695,0.6766
-0.407,-0.262,-0.045,-108.9,-101.2,-296.3,0,2018,5,17,21,37,17.05,0.1787,0.0927,-0.7091,0.6756
-0.504,-0.425,-0.178,-99.8,-72.3,-319.4,0,2018,5,17,21,37,17.073,0.1568,0.04,-0.7196,0.6752
-0.417,-0.409,-0.378,-68.4,-33.7,-341.1,0,2018,5,17,21,37,17.077,0.1282,-0.0131,-0.7245,0.677
-0.378,-0.124,-0.484,-42.9,9.2,-350.3,0,2018,5,17,21,37,17.093,0.094,-0.0635,-0.7223,0.6821
-0.357,0.137,-0.703,-12,39.1,-360.4,1023,2018,5,17,21,37,17.13,0.055,-0.1115,-0.714,0.6889
-0.364,0.393,-0.63,20.6,68.5,-349.5,1023,2018,5,17,21,37,17.153,0.0129,-0.1539,-0.6988,0.6983
-0.309,0.462,-0.434,53.2,98.2,-325.4,1023,2018,5,17,21,37,17.157,-0.0306,-0.1896,-0.6779,0.7095
-0.344,0.659,-0.252,77.6,108.9,-297.8,1023,2018,5,17,21,37,17.171,-0.0735,-0.2187,-0.653,0.7213
-0.317,0.915,-0.195,88.2,89.9,-261.3,1023,2018,5,17,21,37,17.19,-0.1141,-0.2411,-0.6272,0.7316
-0.257,1.036,-0.18,97,55.3,-214.7,1023,2018,5,17,21,37,17.213,-0.1512,-0.2563,-0.605,0.7384
-0.253,1.091,-0.148,102.4,32.9,-158.7,1023,2018,5,17,21,37,17.231,-0.1838,-0.2641,-0.5876,0.7423
-0.262,1.117,-0.084,98.2,7.1,-99,1023,2018,5,17,21,37,17.254,-0.2096,-0.2648,-0.5756,0.7446
-0.316,1.224,0.017,85.3,-24.4,-32.3,1023,2018,5,17,21,37,17.291,-0.2275,-0.259,-0.5698,0.7459
-0.358,1.234,0.072,67.4,-70.5,35.6,1023,2018,5,17,21,37,17.314,-0.2368,-0.2468,-0.5729,0.7447
-0.477,1.135,0.134,40.3,-97,109.4,1023,2018,5,17,21,37,17.319,-0.2361,-0.2288,-0.5846,0.7416
-0.55,0.968,0.129,7.1,-98.1,182.1,1023,2018,5,17,21,37,17.334,-0.2231,-0.2065,-0.6021,0.7382
-0.572,0.95,0.138,-18.3,-78.8,248.9,1023,2018,5,17,21,37,17.357,-0.1971,-0.1809,-0.6207,0.7368
-0.652,0.932,0.137,-37.8,-76,307.7,1023,2018,5,17,21,37,17.375,-0.16,-0.1515,-0.639,0.7368
-0.672,0.826,0.137,-50.9,-74.9,355.4,1023,2018,5,17,21,37,17.398,-0.1136,-0.1179,-0.6573,0.7355
-0.73,0.781,0.13,-57.8,-69.2,394.1,1023,2018,5,17,21,37,17.417,-0.0602,-0.0801,-0.6738,0.732
-0.764,0.683,-0.033,-62.4,-39.4,435.9,1023,2018,5,17,21,37,17.437,-0.0006,-0.0383,-0.6854,0.7271
-0.91,0.166,-0.161,-55,-33.3,464.1,0,2018,5,17,21,37,17.476,0.0633,0.0083,-0.6908,0.7201
-0.936,-0.345,-0.308,-49.5,-17.5,473.4,0,2018,5,17,21,37,17.476,0.1283,0.0584,-0.6907,0.7091
-1.046,-0.515,-0.238,-27.3,31.3,475.1,0,2018,5,17,21,37,17.498,0.1913,0.1111,-0.6821,0.6969
-1.306,-1.246,-0.369,10.5,64.9,413.3,0,2018,5,17,21,37,17.515,0.245,0.1655,-0.6646,0.6861
-1.503,-1.574,-0.416,42.9,38.9,283.6,0,2018,5,17,21,37,17.553,0.2809,0.2118,-0.6477,0.6757
-1.506,-1.557,-0.101,32.2,-28.2,115,0,2018,5,17,21,37,17.575,0.2989,0.2393,-0.6422,0.6639
-1.052,-1.407,0.285,13.1,-84.3,-51.6,0,2018,5,17,21,37,17.578,0.3012,0.2413,-0.6496,0.6549
-0.752,-1.212,0.389,-3.6,-106,-158.9,0,2018,5,17,21,37,17.597,0.2918,0.2238,-0.6659,0.649
-0.649,-1.121,0.261,-20,-104.1,-219.8,0,2018,5,17,21,37,17.615,0.275,0.1946,-0.6844,0.6464
-0.705,-0.999,-0.017,-29.9,-97.4,-272.1,0,2018,5,17,21,37,17.638,0.2532,0.1566,-0.7027,0.646
-0.538,-0.718,0.038,-32.7,-54.5,-310.5,0,2018,5,17,21,37,17.66,0.226,0.1138,-0.7174,0.649
-0.455,-0.654,-0.176,-25,11.5,-343.5,0,2018,5,17,21,37,17.676,0.1931,0.0692,-0.7238,0.6587
-0.463,-0.437,-0.327,-12.6,46.2,-369.3,0,2018,5,17,21,37,17.695,0.1533,0.0232,-0.7224,0.6738
-0.434,-0.26,-0.427,0,63.8,-380.1,0,2018,5,17,21,37,17.718,0.1094,-0.0233,-0.7155,0.6895
-0.471,0.093,-0.376,19.3,92.1,-380.5,0,2018,5,17,21,37,17.753,0.0621,-0.0682,-0.7031,0.7049
-0.441,0.388,-0.452,39,122,-371.4,0,2018,5,17,21,37,17.776,0.0137,-0.1093,-0.6838,0.7212
-0.453,0.619,-0.446,64.4,143.3,-349.4,0,2018,5,17,21,37,17.781,-0.0351,-0.145,-0.6578,0.7382
-0.464,0.902,-0.319,86.6,134.2,-324.9,1023,2018,5,17,21,37,17.797,-0.0839,-0.1747,-0.6293,0.7525
-0.414,1.05,-0.246,100.5,109.5,-283,1023,2018,5,17,21,37,17.82,-0.1301,-0.1972,-0.6014,0.7631
-0.461,1.215,-0.19,107,92,-226.6,1023,2018,5,17,21,37,17.838,-0.1716,-0.212,-0.5759,0.7706
-0.404,1.271,-0.178,98.7,68.3,-154.8,1023,2018,5,17,21,37,17.861,-0.204,-0.2194,-0.5543,0.7764
-0.391,1.383,-0.124,85.7,41.6,-72.6,1023,2018,5,17,21,37,17.878,-0.2257,-0.2198,-0.5384,0.7815
-0.41,1.527,-0.031,68.2,-14.1,5.7,1023,2018,5,17,21,37,17.901,-0.2363,-0.2129,-0.5316,0.7849
-0.461,1.47,-0.034,47.3,-91.2,79,1023,2018,5,17,21,37,17.922,-0.2373,-0.1987,-0.538,0.784
-0.544,1.277,-0.073,25.6,-149.3,150.4,1023,2018,5,17,21,37,17.943,-0.2288,-0.1775,-0.557,0.7783
-0.648,1.05,-0.051,-0.9,-169.4,218,1023,2018,5,17,21,37,17.959,-0.2093,-0.1512,-0.5834,0.7699
-0.61,1.029,-0.013,-30,-165.2,279.8,1023,2018,5,17,21,37,17.977,-0.1779,-0.1214,-0.6122,0.7607
-0.806,0.72,0.021,-51.5,-159.5,332.8,1023,2018,5,17,21,37,18,-0.1353,-0.0886,-0.6404,0.7507
-0.855,0.373,-0.004,-68.8,-120.5,372.7,1023,2018,5,17,21,37,18.016,-0.0839,-0.0534,-0.6643,0.7407
-0.726,0.179,-0.145,-84,-29.4,415.6,1023,2018,5,17,21,37,18.04,-0.0245,-0.0162,-0.6773,0.7351
-0.63,0.274,-0.241,-69,41,452.8,1023,2018,5,17,21,37,18.077,0.0407,0.0252,-0.675,0.7361
-0.804,-0.06,-0.361,-31.4,23.7,450.2,1023,2018,5,17,21,37,18.1,0.1046,0.0729,-0.6662,0.7347
-1.031,-0.515,-0.124,-8.7,-26.3,425.5,1023,2018,5,17,21,37,18.105,0.1626,0.1214,-0.6579,0.7252
-1.283,-0.872,0.013,6.8,-92.8,363.6,1023,2018,5,17,21,37,18.12,0.2134,0.1649,-0.6564,0.7045
-1.359,-1.32,-0.231,-3.9,-146,255,0,2018,5,17,21,37,18.142,0.2547,0.1959,-0.6616,0.6774
-1.207,-1.808,-0.282,-4.3,-144.4,93.8,0,2018,5,17,21,37,18.178,0.2803,0.2091,-0.6731,0.6515
-0.906,-1.958,-0.17,-1.8,-126.3,-66.7,0,2018,5,17,21,37,18.203,0.286,0.2029,-0.6882,0.635
-0.633,-1.564,-0.015,-5.4,-89.4,-168.5,0,2018,5,17,21,37,18.208,0.2762,0.182,-0.7043,0.628
-0.381,-1.132,-0.063,-5.1,-49.1,-225.1,0,2018,5,17,21,37,18.221,0.2567,0.1534,-0.7173,0.6292
-0.366,-0.808,-0.133,-5.3,-24,-263.8,0,2018,5,17,21,37,18.241,0.2301,0.12,-0.727,0.6356
-0.377,-0.535,-0.179,4.6,-4.4,-295,0,2018,5,17,21,37,18.278,0.199,0.0836,-0.7346,0.6431
-0.419,-0.412,-0.237,15,21.6,-318.6,0,2018,5,17,21,37,18.278,0.163,0.0456,-0.7379,0.6532
-0.436,-0.387,-0.418,25.6,47.3,-338.6,0,2018,5,17,21,37,18.301,0.1224,0.0068,-0.7354,0.6663
-0.435,-0.09,-0.312,45.8,82.5,-343.8,0,2018,5,17,21,37,18.338,0.0773,-0.0312,-0.7274,0.681
-0.4,0.303,-0.234,62.2,101.2,-342.1,0,2018,5,17,21,37,18.36,0.03,-0.0674,-0.7139,0.6962
-0.425,0.626,-0.164,71.5,115.4,-322.7,0,2018,5,17,21,37,18.362,-0.0175,-0.1,-0.6959,0.7108
-0.437,0.736,-0.215,78.1,105.5,-302.1,0,2018,5,17,21,37,18.396,-0.0632,-0.1284,-0.6748,0.7239
-0.422,0.803,-0.107,87.4,94.6,-265.2,0,2018,5,17,21,37,18.419,-0.1064,-0.1522,-0.6536,0.7336
-0.397,0.942,0.011,87.3,74.5,-215.6,0,2018,5,17,21,37,18.423,-0.1447,-0.1699,-0.6338,0.7405
-0.403,1.021,0.103,77.9,57.7,-161.6,0,2018,5,17,21,37,18.439,-0.1759,-0.1814,-0.6169,0.7453
-0.369,1.061,0.123,58.5,32.7,-101.3,0,2018,5,17,21,37,18.46,-0.1985,-0.1879,-0.6043,0.7483
-0.351,1.106,0.039,37.4,3.8,-39.4,0,2018,5,17,21,37,18.496,-0.2117,-0.1898,-0.5976,0.7496
-0.36,1.148,-0.007,19.2,-30.3,24.4,1023,2018,5,17,21,37,18.519,-0.2156,-0.1864,-0.5977,0.7492
-0.364,1.108,-0.011,2,-67.7,86.1,1023,2018,5,17,21,37,18.524,-0.2106,-0.1774,-0.6052,0.7468
-0.432,1.095,-0.014,-16.1,-96.9,141.5,1023,2018,5,17,21,37,18.543,-0.1971,-0.1631,-0.6193,0.7422
-0.52,1.091,-0.011,-36.6,-127.4,192.5,1023,2018,5,17,21,37,18.565,-0.1753,-0.1444,-0.6389,0.7349
-0.604,1.012,0.027,-58.4,-155.3,241.9,1023,2018,5,17,21,37,18.582,-0.145,-0.1219,-0.6631,0.724
-0.663,0.89,-0.003,-80.9,-165.8,287.5,1023,2018,5,17,21,37,18.605,-0.1064,-0.0957,-0.6898,0.7096
-0.659,0.558,-0.099,-104.5,-128.8,328.5,1023,2018,5,17,21,37,18.642,-0.0595,-0.0672,-0.7142,0.6941
-0.603,0.403,-0.075,-108.2,-72.8,372.7,1023,2018,5,17,21,37,18.665,-0.0044,-0.0352,-0.7297,0.6827
-0.67,0.357,0.125,-107.5,-24.7,415.1,1023,2018,5,17,21,37,18.67,0.0558,0.0024,-0.7357,0.6749
-0.67,0.145,0.026,-111.1,5.2,443.9,1023,2018,5,17,21,37,18.687,0.1206,0.0451,-0.7333,0.6675
-0.765,-0.618,-0.454,-104.4,37.7,451.9,1023,2018,5,17,21,37,18.706,0.1862,0.0908,-0.7227,0.6592
-1.046,-0.98,-0.652,-61.7,97,425.9,1023,2018,5,17,21,37,18.729,0.2453,0.1388,-0.7032,0.6526
-1.117,-1.255,-0.577,-10.3,124.5,355,1023,2018,5,17,21,37,18.745,0.291,0.1879,-0.6774,0.6488
-0.969,-1.039,-0.229,43.5,85.9,231.8,1023,2018,5,17,21,37,18.764,0.3171,0.2306,-0.656,0.6447
-1.001,-0.901,0.154,67.9,0.5,98.1,1023,2018,5,17,21,37,18.786,0.3263,0.2581,-0.6481,0.6377
-1.024,-0.959,0.351,46.8,-82.2,-24.3,1023,2018,5,17,21,37,18.805,0.325,0.2661,-0.6549,0.6281
-0.831,-0.907,0.421,3.2,-116.6,-115.5,0,2018,5,17,21,37,18.828,0.3185,0.2543,-0.6713,0.6189
-0.631,-0.883,0.427,-31.8,-121.4,-174.1,0,2018,5,17,21,37,18.844,0.3092,0.2287,-0.6899,0.6132
-0.704,-0.906,0.32,-52.7,-108.9,-215.7,0,2018,5,17,21,37,18.868,0.2976,0.194,-0.7074,0.6109
-0.705,-0.907,0.208,-64.4,-88.3,-251.3,0,2018,5,17,21,37,18.886,0.2828,0.1535,-0.7223,0.612
-0.669,-0.751,0.012,-61.5,-66.6,-302.5,0,2018,5,17,21,37,18.909,0.2634,0.1081,-0.7334,0.6172
-0.524,-0.55,-0.207,-42.9,-71.5,-363.6,0,2018,5,17,21,37,18.928,0.2355,0.0572,-0.7433,0.6234
-0.463,-0.458,-0.336,-11.7,-44.7,-400.5,0,2018,5,17,21,37,18.951,0.1968,0.0018,-0.7511,0.63
-0.437,-0.244,-0.465,14,1.3,-413.8,0,2018,5,17,21,37,18.969,0.151,-0.0519,-0.7518,0.6396
-0.451,-0.008,-0.625,41.3,39.5,-410.1,0,2018,5,17,21,37,18.987,0.1012,-0.102,-0.7442,0.6522
-0.532,0.158,-0.752,80.1,72.7,-397.3,0,2018,5,17,21,37,19.006,0.048,-0.1466,-0.7302,0.6655
-0.519,0.425,-0.519,116.3,144.9,-359.6,0,2018,5,17,21,37,19.029,-0.006,-0.1819,-0.7072,0.6831
-0.57,0.674,-0.37,134.2,223.8,-311.3,0,2018,5,17,21,37,19.045,-0.0552,-0.2075,-0.6719,0.7087
-0.558,1.117,-0.322,141.2,214.8,-266,0,2018,5,17,21,37,19.068,-0.0987,-0.2258,-0.6306,0.7358
-0.487,1.186,-0.546,158.5,143,-213.7,0,2018,5,17,21,37,19.104,-0.1383,-0.2354,-0.5944,0.7563
-0.441,1.413,-0.241,169.2,95.9,-153.6,0,2018,5,17,21,37,19.127,-0.1745,-0.2349,-0.5667,0.7701
-0.491,1.559,0.072,158.4,43.2,-90.4,0,2018,5,17,21,37,19.13,-0.2041,-0.2265,-0.5467,0.7797
-0.556,1.655,0.26,126.9,-33.2,-18,1023,2018,5,17,21,37,19.167,-0.2244,-0.2123,-0.5382,0.784
-0.617,1.653,0.296,85,-110.8,67.5,1023,2018,5,17,21,37,19.19,-0.2333,-0.1925,-0.5448,0.782
-0.618,1.406,0.112,41.5,-163.2,155.3,1023,2018,5,17,21,37,19.194,-0.2281,-0.1673,-0.5648,0.7751
-0.637,1.099,0.013,-0.6,-164.5,228.6,1023,2018,5,17,21,37,19.211,-0.2082,-0.1385,-0.5916,0.7664
-0.666,0.942,0.058,-40.5,-141.6,286.7,1023,2018,5,17,21,37,19.229,-0.1741,-0.1088,-0.6179,0.7588
-0.704,0.696,0.136,-70.7,-132.5,319.1,1023,2018,5,17,21,37,19.247,-0.1294,-0.0791,-0.6421,0.7514
-0.828,0.449,0.201,-88.9,-120.3,341.6,1023,2018,5,17,21,37,19.27,-0.0786,-0.0494,-0.6637,0.7421
-0.749,0.34,-0.045,-108.5,-89.1,367,1023,2018,5,17,21,37,19.288,-0.0219,-0.0196,-0.6802,0.7324
-0.674,0.467,-0.185,-114.8,-57.2,399.2,1023,2018,5,17,21,37,19.312,0.0403,0.0115,-0.6891,0.7233
-0.694,-0.114,-0.31,-98.7,15.4,431,1023,2018,5,17,21,37,19.328,0.1055,0.0478,-0.6895,0.7149
-0.79,-0.671,-0.497,-52.1,55.9,410.2,1023,2018,5,17,21,37,19.35,0.1671,0.091,-0.6767,0.7112
-0.915,-0.677,-0.639,-15.6,-38,357.2,1023,2018,5,17,21,37,19.369,0.2174,0.1325,-0.6659,0.7011
-1.298,-1.094,-0.557,11.6,-140.5,280.9,1023,2018,5,17,21,37,19.392,0.2584,0.1658,-0.6699,0.6759
-1.256,-1.911,-0.32,15.1,-113.5,151.8,1023,2018,5,17,21,37,19.429,0.2861,0.1864,-0.6805,0.6482
-1.07,-1.998,-0.28,34.2,-27.1,3.4,1023,2018,5,17,21,37,19.453,0.2935,0.1949,-0.6869,0.6355
-0.696,-1.356,0.04,35.4,7.8,-121.1,1023,2018,5,17,21,37,19.457,0.2807,0.1906,-0.6919,0.6372
-0.413,-0.968,0.114,23.6,3.3,-183.4,0,2018,5,17,21,37,19.474,0.2592,0.1751,-0.6978,0.6443
-0.396,-0.795,0.035,14.8,9.3,-216.4,0,2018,5,17,21,37,19.51,0.2335,0.153,-0.7037,0.6533
-0.448,-0.604,-0.008,8.4,23.9,-246,0,2018,5,17,21,37,19.51,0.2049,0.1266,-0.708,0.6637
-0.451,-0.279,0.05,0.7,30.8,-272.7,0,2018,5,17,21,37,19.532,0.1736,0.0964,-0.7103,0.6752
-0.488,-0.203,0.146,-16.6,90.4,-272.1,0,2018,5,17,21,37,19.548,0.1415,0.0639,-0.707,0.6899
-0.404,0.259,0.061,-5.9,62.9,-316.1,0,2018,5,17,21,37,19.571,0.1062,0.0282,-0.6989,0.7066
-0.354,0.379,-0.025,-7.5,10.4,-323,0,2018,5,17,21,37,19.606,0.0668,-0.0111,-0.6954,0.7153
-0.28,0.171,-0.337,5.3,0,-314.6,0,2018,5,17,21,37,19.63,0.0271,-0.0497,-0.6938,0.7178
-0.418,0.269,-0.296,11,49.5,-291.1,0,2018,5,17,21,37,19.634,-0.0116,-0.0848,-0.6867,0.7217
-0.393,0.521,-0.197,18.8,87.7,-265.7,0,2018,5,17,21,37,19.653,-0.047,-0.1164,-0.6723,0.7295
-0.386,0.765,-0.082,21.4,92.7,-234.8,0,2018,5,17,21,37,19.676,-0.0793,-0.1437,-0.6543,0.7381
-0.351,0.907,-0.085,22,62.4,-198.3,0,2018,5,17,21,37,19.695,-0.1075,-0.1666,-0.6377,0.7442
-0.307,0.936,-0.084,24.6,21.4,-151.7,0,2018,5,17,21,37,19.731,-0.1314,-0.1837,-0.6262,0.7462
-0.251,0.942,-0.093,24.5,-11.3,-99.7,0,2018,5,17,21,37,19.731,-0.1501,-0.1944,-0.6207,0.7445
-0.224,0.922,-0.094,22.6,-33.9,-44.6,0,2018,5,17,21,37,19.753,-0.1626,-0.1983,-0.6207,0.7408
-0.263,0.918,-0.045,16.5,-39.2,16.8,0,2018,5,17,21,37,19.769,-0.1676,-0.1962,-0.6241,0.7374
-0.294,0.972,0.005,4,-34.9,87,1023,2018,5,17,21,37,19.791,-0.163,-0.1881,-0.6299,0.7356
-0.325,0.931,0.013,-10.5,-20.6,160,1023,2018,5,17,21,37,19.812,-0.1472,-0.1742,-0.637,0.7362
-0.373,0.892,0.043,-19.3,-2.2,229.4,1023,2018,5,17,21,37,19.835,-0.1202,-0.154,-0.6442,0.7393
-0.394,0.813,0.105,-24.2,24.6,294.4,1023,2018,5,17,21,37,19.872,-0.0833,-0.1273,-0.6496,0.7448
-0.321,0.721,0.07,-22.3,75.8,356.3,1023,2018,5,17,21,37,19.895,-0.0369,-0.0938,-0.6499,0.7532
-0.267,0.804,-0.01,-8.6,139.7,418,1023,2018,5,17,21,37,19.9,0.0178,-0.0522,-0.6403,0.766
-0.391,0.847,-0.109,25.6,133.5,449.8,1023,2018,5,17,21,37,19.915,0.0764,-0.0015,-0.6234,0.7781
-0.687,0.328,-0.21,57.4,71.7,449.6,1023,2018,5,17,21,37,19.936,0.1328,0.0549,-0.608,0.7807
-0.871,0.24,-0.151,72.3,-26.6,445.2,1023,2018,5,17,21,37,19.974,0.1862,0.1118,-0.6,0.7699
-1.135,-0.048,-0.248,66,-103.9,417.4,1023,2018,5,17,21,37,19.974,0.2377,0.1637,-0.6024,0.7441
-1.227,-0.957,-0.185,69,-73.5,356.3,1023,2018,5,17,21,37,19.997,0.2834,0.2088,-0.6055,0.7136
-1.211,-1.509,-0.001,96.3,22.6,262.3,1023,2018,5,17,21,37,20.016,0.3129,0.2511,-0.6002,0.6919
-1.354,-1.453,0.226,84.9,61.5,147.3,1023,2018,5,17,21,37,20.039,0.3244,0.2859,-0.5905,0.6813
-1.226,-1.117,0.355,42.8,35.6,31.4,1023,2018,5,17,21,37,20.055,0.3248,0.3049,-0.5839,0.6785
-0.883,-0.838,0.518,-9.4,-3.9,-73.6,1023,2018,5,17,21,37,20.073,0.3192,0.3048,-0.5845,0.6808
-0.608,-0.692,0.592,-50.8,-41.9,-147.7,1023,2018,5,17,21,37,20.096,0.3099,0.2879,-0.5917,0.6862
-0.565,-0.72,0.507,-81,-76.1,-195,0,2018,5,17,21,37,20.13,0.2985,0.2587,-0.6037,0.6924
-0.687,-0.663,0.355,-105.5,-98.2,-237.6,0,2018,5,17,21,37,20.154,0.2857,0.2193,-0.6188,0.698
-0.722,-0.661,0.138,-127.7,-100.8,-281.6,0,2018,5,17,21,37,20.159,0.2707,0.1715,-0.6346,0.7031
-0.548,-0.562,-0.019,-120.4,-69.2,-331.7,0,2018,5,17,21,37,20.195,0.2494,0.1185,-0.6474,0.7103
-0.483,-0.331,-0.225,-103.3,-45.3,-375.6,0,2018,5,17,21,37,20.195,0.2184,0.0622,-0.655,0.7206
-0.415,-0.14,-0.465,-75.1,-39.7,-406,0,2018,5,17,21,37,20.22,0.1788,0.0044,-0.6594,0.7301
-0.434,-0.098,-0.701,-38,-19.9,-421.1,0,2018,5,17,21,37,20.237,0.1319,-0.0518,-0.6605,0.7373
-0.555,0.006,-0.803,9.7,27.8,-422.2,0,2018,5,17,21,37,20.26,0.0788,-0.1025,-0.6548,0.7446
-0.547,0.225,-0.667,49,98,-405.3,0,2018,5,17,21,37,20.276,0.0225,-0.1445,-0.6374,0.7564
-0.593,0.67,-0.366,80.5,135.6,-377.5,0,2018,5,17,21,37,20.294,-0.0332,-0.1783,-0.6096,0.7716
-0.611,1.026,-0.239,100.1,120.8,-339.3,0,2018,5,17,21,37,20.317,-0.0869,-0.2044,-0.5785,0.7847
-0.557,1.159,-0.253,108.2,80.2,-284.5,0,2018,5,17,21,37,20.354,-0.1364,-0.2228,-0.5508,0.7926
-0.52,1.251,-0.24,108.8,54,-210.2,0,2018,5,17,21,37,20.377,-0.1781,-0.2328,-0.5284,0.7967
-0.461,1.382,-0.095,101.5,38.5,-125.2,0,2018,5,17,21,37,20.382,-0.2089,-0.2347,-0.5115,0.7997
-0.505,1.491,0.062,82.4,7.7,-39.3,0,2018,5,17,21,37,20.416,-0.2271,-0.2297,-0.5011,0.8027
-0.532,1.516,0.109,54.2,-55.7,44.1,0,2018,5,17,21,37,20.439,-0.2332,-0.2189,-0.5017,0.8036
-0.509,1.33,-0.013,25.7,-111.6,123.3,1023,2018,5,17,21,37,20.444,-0.2276,-0.2023,-0.5151,0.8011
-0.587,1.096,-0.046,0,-132.8,195,1023,2018,5,17,21,37,20.461,-0.2104,-0.1809,-0.5375,0.7962
-0.634,0.936,-0.02,-28.4,-116.9,264.9,1023,2018,5,17,21,37,20.498,-0.1803,-0.1565,-0.562,0.7918
-0.613,0.847,-0.011,-47.2,-97.4,326.9,1023,2018,5,17,21,37,20.521,-0.1376,-0.1291,-0.585,0.7887
-0.695,0.835,-0.039,-51.1,-78.4,382.1,1023,2018,5,17,21,37,20.526,-0.0849,-0.0971,-0.6048,0.7857
-0.749,0.409,-0.175,-48.7,-43.8,417.8,1023,2018,5,17,21,37,20.542,-0.025,-0.0603,-0.6191,0.7825
-0.664,0.157,-0.157,-35.8,-17.2,448.9,1023,2018,5,17,21,37,20.559,0.0388,-0.0192,-0.6254,0.779
-0.811,-0.252,-0.151,-11.4,-27.7,449.1,1023,2018,5,17,21,37,20.595,0.1021,0.027,-0.6283,0.7707
-1.001,-0.603,-0.231,-11.2,-40.5,436.7,1023,2018,5,17,21,37,20.618,0.1631,0.0739,-0.6283,0.757
-1.024,-0.678,-0.248,20.6,-43,386.7,1023,2018,5,17,21,37,20.623,0.2174,0.1182,-0.6272,0.7384
-1.219,-1.401,-0.182,45.1,-31,276.3,1023,2018,5,17,21,37,20.639,0.2569,0.1576,-0.6258,0.7193
-1.363,-1.919,-0.005,41.6,-24.5,132.8,1023,2018,5,17,21,37,20.662,0.2775,0.1843,-0.6259,0.7051
-1.107,-1.758,0.109,16.9,-30.4,-11,1023,2018,5,17,21,37,20.681,0.2814,0.1926,-0.6297,0.6979
-0.651,-1.333,0.287,-5,-40.7,-125.3,1023,2018,5,17,21,37,20.702,0.2722,0.1828,-0.6371,0.6974
-0.466,-1.216,0.154,-24.5,-43.3,-198.6,1023,2018,5,17,21,37,20.74,0.2545,0.1599,-0.6468,0.7008
-0.526,-0.972,0.081,-35.2,-35.4,-253.8,0,2018,5,17,21,37,20.761,0.2305,0.1283,-0.6565,0.7066
-0.446,-0.635,0.038,-38.2,-32.1,-300.8,0,2018,5,17,21,37,20.765,0.2009,0.0904,-0.6649,0.7136
-0.371,-0.516,-0.141,-21.2,-16.9,-338,0,2018,5,17,21,37,20.783,0.1649,0.0491,-0.6711,0.721
-0.418,-0.308,-0.165,-0.6,11.3,-363.1,0,2018,5,17,21,37,20.806,0.1214,0.0064,-0.6725,0.7299
-0.436,0.031,-0.089,15,31.8,-370.7,0,2018,5,17,21,37,20.822,0.0732,-0.0352,-0.6688,0.7389
-0.489,0.315,-0.121,27.3,40.8,-366.3,0,2018,5,17,21,37,20.84,0.0232,-0.0752,-0.6609,0.7462
-0.598,0.431,-0.293,32.8,43.5,-356.5,0,2018,5,17,21,37,20.861,-0.0265,-0.1126,-0.6494,0.7515
-0.628,0.585,-0.242,44.6,56.7,-337.2,0,2018,5,17,21,37,20.898,-0.0752,-0.1466,-0.634,0.7555
-0.593,0.753,-0.132,48.6,62.6,-304.9,0,2018,5,17,21,37,20.921,-0.121,-0.1766,-0.6156,0.7583
-0.552,0.949,-0.084,47.3,37.2,-259.6,0,2018,5,17,21,37,20.925,-0.1616,-0.2015,-0.5981,0.7585
-0.482,0.978,-0.105,45.8,6,-201,0,2018,5,17,21,37,20.944,-0.1958,-0.2199,-0.5851,0.7555
-0.422,1.048,-0.12,35.8,-6.2,-133.2,0,2018,5,17,21,37,20.962,-0.2216,-0.2313,-0.5767,0.7514
-0.337,1.115,-0.159,28.3,-28.1,-61.9,0,2018,5,17,21,37,20.985,-0.2377,-0.2363,-0.5734,0.7475
-0.298,1.051,-0.133,20,-56.7,5,0,2018,5,17,21,37,21.004,-0.2452,-0.2341,-0.5764,0.7434
-0.273,1.053,-0.112,7.3,-76.7,70.1,0,2018,5,17,21,37,21.026,-0.2442,-0.2256,-0.5859,0.7389
-0.293,1,-0.063,-4.4,-83.2,134.5,0,2018,5,17,21,37,21.043,-0.2339,-0.2113,-0.6,0.7352
-0.407,0.764,-0.041,-19.2,-68.8,203.8,0,2018,5,17,21,37,21.061,-0.2135,-0.1917,-0.6166,0.733
-0.44,0.545,-0.035,-26.2,2.8,280.6,1023,2018,5,17,21,37,21.084,-0.1806,-0.1669,-0.6292,0.7372
-0.401,0.674,-0.02,-17.5,90.4,357.3,1023,2018,5,17,21,37,21.102,-0.1346,-0.136,-0.6314,0.7514
-0.506,0.702,0.086,15.5,125.4,416.3,1023,2018,5,17,21,37,21.125,-0.0798,-0.0956,-0.6239,0.7714
-0.686,0.636,0.254,37.5,112.7,434.4,1023,2018,5,17,21,37,21.142,-0.0236,-0.0465,-0.6129,0.7883
-0.719,0.693,0.217,44.1,78.1,448.7,1023,2018,5,17,21,37,21.165,0.0339,0.006,-0.6008,0.7986
-0.751,0.612,-0.012,51.6,45.5,461.2,1023,2018,5,17,21,37,21.184,0.092,0.0606,-0.5905,0.7994
-1.001,0.126,-0.15,49.9,52.4,466.1,1023,2018,5,17,21,37,21.207,0.1505,0.1163,-0.5782,0.7933
-1.162,-0.596,-0.099,34.9,111.3,451.6,1023,2018,5,17,21,37,21.225,0.2076,0.1702,-0.5572,0.7857
-1.087,-0.882,-0.021,44.4,103.8,395.7,1023,2018,5,17,21,37,21.248,0.2583,0.2209,-0.5275,0.7785
-1.098,-0.933,-0.013,58.5,15,295.7,1023,2018,5,17,21,37,21.267,0.2973,0.2619,-0.508,0.7647
-1.019,-1,-0.024,80.7,-38.7,177.2,1023,2018,5,17,21,37,21.289,0.3229,0.2912,-0.5025,0.7472
-1.18,-1.043,0.313,75.5,-82.8,38.6,1023,2018,5,17,21,37,21.31,0.3321,0.3076,-0.5102,0.7311
-1.092,-0.996,0.627,22.9,-122,-87.9,1023,2018,5,17,21,37,21.326,0.3286,0.3048,-0.5283,0.721
-0.739,-0.751,0.673,-33.9,-160.2,-164.5,1023,2018,5,17,21,37,21.345,0.3198,0.2834,-0.5527,0.7154
-0.621,-0.714,0.578,-68.6,-183.1,-210.8,1023,2018,5,17,21,37,21.364,0.3094,0.2485,-0.5805,0.7109
-0.625,-0.703,0.403,-97.3,-175.5,-250.1,0,2018,5,17,21,37,21.387,0.2964,0.2045,-0.6078,0.7076
-0.679,-0.784,0.161,-118.6,-146.4,-287.4,0,2018,5,17,21,37,21.406,0.2801,0.1539,-0.6307,0.707
-0.588,-0.553,0.068,-119.2,-110.3,-331.2,0,2018,5,17,21,37,21.429,0.2584,0.0996,-0.6474,0.71
-0.515,-0.503,-0.157,-101.2,-80.7,-373,0,2018,5,17,21,37,21.447,0.2283,0.0416,-0.6588,0.7155
-0.522,-0.259,-0.338,-76.4,-54.2,-407.7,0,2018,5,17,21,37,21.465,0.1893,-0.0175,-0.6647,0.7224
-0.431,-0.06,-0.487,-39,-35.5,-426.2,0,2018,5,17,21,37,21.488,0.1423,-0.0749,-0.6656,0.7287
-0.458,0.18,-0.511,3.4,-11.4,-429.6,0,2018,5,17,21,37,21.507,0.0891,-0.1273,-0.6607,0.7343
-0.5,0.265,-0.54,37.9,3.3,-423.2,0,2018,5,17,21,37,21.528,0.032,-0.173,-0.6499,0.7393
-0.533,0.484,-0.36,77.5,35,-396.1,0,2018,5,17,21,37,21.546,-0.0268,-0.2111,-0.6328,0.7444
-0.525,0.754,-0.257,106,39.8,-363.6,0,2018,5,17,21,37,21.564,-0.0851,-0.241,-0.6118,0.7485
-0.495,0.973,-0.155,126.7,42.5,-311.5,0,2018,5,17,21,37,21.587,-0.1397,-0.2618,-0.5892,0.7514
-0.51,1.153,-0.086,130.1,45.2,-244.6,0,2018,5,17,21,37,21.608,-0.1871,-0.274,-0.5663,0.7543
-0.519,1.27,-0.011,120.7,33.5,-159.9,0,2018,5,17,21,37,21.645,-0.2238,-0.2785,-0.5462,0.7575
-0.505,1.396,0.176,100.3,-3.9,-74.4,0,2018,5,17,21,37,21.686,-0.2488,-0.2754,-0.5335,0.7599
-0.596,1.543,0.333,64.3,-59.3,20.9,0,2018,5,17,21,37,21.689,-0.2609,-0.2653,-0.5324,0.7602
-0.573,1.537,0.219,23.4,-117.1,116.1,0,2018,5,17,21,37,21.69,-0.2595,-0.2489,-0.5453,0.757
-0.632,1.26,0.077,-12.7,-134.7,206.3,1023,2018,5,17,21,37,21.708,-0.2435,-0.2267,-0.5687,0.7521
-0.692,1.029,0,-40.9,-110.9,287,1023,2018,5,17,21,37,21.729,-0.2125,-0.2001,-0.5952,0.7486
-0.71,0.859,-0.021,-59.3,-59.2,361,1023,2018,5,17,21,37,21.765,-0.1672,-0.1694,-0.6184,0.7489
-0.671,0.651,0.017,-54.8,5.9,429.5,1023,2018,5,17,21,37,21.786,-0.109,-0.1329,-0.6336,0.7542
-0.679,0.292,0.024,-34.6,94.6,489.8,1023,2018,5,17,21,37,21.788,-0.0421,-0.088,-0.6367,0.7648
-0.636,0.19,-0.036,-5,188.5,525.5,1023,2018,5,17,21,37,21.824,0.0304,-0.0346,-0.6223,0.7813
-0.606,0.233,-0.148,35.2,229.7,541.8,1023,2018,5,17,21,37,21.847,0.1029,0.0271,-0.5933,0.7978
-0.975,-0.146,-0.131,82.2,161.5,505.9,1023,2018,5,17,21,37,21.852,0.1689,0.0941,-0.5606,0.8051
-1.292,-0.405,0.099,89.7,22.9,440.7,1023,2018,5,17,21,37,21.868,0.2244,0.1548,-0.5408,0.7957
-1.565,-1.035,0.437,85.8,-55.5,337.7,1023,2018,5,17,21,37,21.891,0.2704,0.2029,-0.5355,0.7738
-1.706,-1.712,0.532,63.8,-64.9,173,1023,2018,5,17,21,37,21.91,0.2996,0.2346,-0.5388,0.7515
-1.627,-2.021,0.479,5.5,-64.3,-4,1023,2018,5,17,21,37,21.947,0.3087,0.2428,-0.5468,0.7393
-1.099,-1.479,0.482,-57.1,-64.4,-141,1023,2018,5,17,21,37,21.967,0.3028,0.2277,-0.5574,0.7386
-0.57,-0.882,0.433,-95.3,-76.7,-219.9,1023,2018,5,17,21,37,21.972,0.2885,0.1949,-0.5694,0.7446
-0.596,-0.682,0.215,-106.2,-96.5,-271.6,0,2018,5,17,21,37,21.99,0.2688,0.1521,-0.5838,0.7507
-0.569,-0.484,0.06,-108.8,-113.3,-316.5,0,2018,5,17,21,37,22.013,0.2436,0.1034,-0.5997,0.7551
-0.514,-0.397,-0.134,-95,-109.7,-352.6,0,2018,5,17,21,37,22.03,0.2117,0.0497,-0.6147,0.7581
-0.571,-0.186,-0.249,-67.3,-78.9,-385.7,0,2018,5,17,21,37,22.053,0.1715,-0.0045,-0.6261,0.7605
-0.508,0.088,-0.33,-46,-54.9,-400.5,0,2018,5,17,21,37,22.07,0.1249,-0.0574,-0.6314,0.763
-0.442,0.163,-0.437,-17.3,-33.8,-398.3,0,2018,5,17,21,37,22.088,0.0746,-0.1063,-0.6306,0.7651
-0.508,0.387,-0.317,10.2,-1,-379.2,0,2018,5,17,21,37,22.111,0.0224,-0.1494,-0.6236,0.7669
-0.563,0.621,-0.197,26.5,15.7,-351.2,0,2018,5,17,21,37,22.148,-0.0282,-0.1866,-0.6117,0.7682
-0.533,0.68,-0.168,39.9,20.4,-322.7,0,2018,5,17,21,37,22.171,-0.0762,-0.2179,-0.5969,0.7682
-0.503,0.907,-0.005,44.5,8.7,-276.6,0,2018,5,17,21,37,22.176,-0.1202,-0.2431,-0.5818,0.7667
-0.372,0.981,-0.028,44.7,-16.7,-221.3,0,2018,5,17,21,37,22.191,-0.1578,-0.2621,-0.5699,0.7625
-0.316,1.073,-0.047,47,-37.9,-160.1,0,2018,5,17,21,37,22.214,-0.1888,-0.274,-0.5631,0.7564
-0.302,1.086,-0.023,42.7,-58.1,-94,0,2018,5,17,21,37,22.236,-0.2121,-0.2787,-0.5616,0.7495
-0.339,1.127,0.025,29.3,-86.7,-25.7,0,2018,5,17,21,37,22.253,-0.2266,-0.2771,-0.5661,0.7424
-0.352,1.208,0.003,12,-121.4,44.3,0,2018,5,17,21,37,22.276,-0.232,-0.2694,-0.5787,0.7338
-0.429,1.155,-0.044,-5.5,-153.3,118,0,2018,5,17,21,37,22.294,-0.228,-0.255,-0.5997,0.7233
-0.551,0.894,-0.027,-24.8,-138.9,194.2,0,2018,5,17,21,37,22.311,-0.213,-0.2343,-0.6255,0.713
-0.489,0.706,0.046,-46.1,-79,273.4,1023,2018,5,17,21,37,22.334,-0.1839,-0.2088,-0.6491,0.7079
-0.609,0.732,0.017,-55.8,0,354.7,1023,2018,5,17,21,37,22.353,-0.14,-0.1779,-0.6659,0.7107
-0.648,0.38,0.072,-46,90.4,430.4,1023,2018,5,17,21,37,22.371,-0.0829,-0.1392,-0.6718,0.7227
-0.663,0.137,0.179,-22.7,181,485.2,1023,2018,5,17,21,37,22.395,-0.0178,-0.0908,-0.664,0.7419
-0.513,0.241,0.049,0.1,248.9,518.9,1023,2018,5,17,21,37,22.413,0.0524,-0.0339,-0.6402,0.7655
-0.491,0.153,-0.343,44.8,304.9,548.2,1023,2018,5,17,21,37,22.433,0.1227,0.0314,-0.6031,0.7874
-0.793,-0.163,-0.421,110.9,347.3,543.8,1023,2018,5,17,21,37,22.469,0.187,0.1068,-0.5531,0.8047
-1.234,-0.167,0.182,145.1,313.6,466.5,1023,2018,5,17,21,37,22.49,0.2374,0.1843,-0.4988,0.8128
-1.409,0.114,1.057,129.2,176.8,342.5,1023,2018,5,17,21,37,22.495,0.2736,0.2491,-0.4539,0.8105
-1.449,-0.321,1.243,92.3,-14.2,196.2,1023,2018,5,17,21,37,22.534,0.2987,0.2891,-0.4362,0.798
-1.623,-1.098,1.077,22.5,-155.2,63.5,1023,2018,5,17,21,37,22.557,0.3162,0.3019,-0.4463,0.7807
-1.352,-1.477,0.782,-72.7,-193,-43.1,1023,2018,5,17,21,37,22.561,0.3279,0.2879,-0.4695,0.7674
-0.869,-1.16,0.606,-145.4,-186.3,-123,1023,2018,5,17,21,37,22.578,0.3347,0.2546,-0.4926,0.7618
-0.581,-0.766,0.394,-183.6,-187.8,-188.8,1023,2018,5,17,21,37,22.601,0.3353,0.207,-0.5141,0.7617
-0.529,-0.471,0.142,-196.4,-202,-250.1,1023,2018,5,17,21,37,22.614,0.3293,0.1499,-0.5365,0.7623
-0.54,-0.408,-0.158,-182.8,-208.6,-310.4,1023,2018,5,17,21,37,22.633,0.3142,0.0861,-0.5592,0.7622
-0.53,-0.435,-0.418,-147.1,-195,-368.2,0,2018,5,17,21,37,22.656,0.2869,0.0197,-0.5809,0.7614
-0.41,-0.196,-0.485,-103.4,-159.3,-406.4,0,2018,5,17,21,37,22.694,0.2472,-0.045,-0.5976,0.7613
-0.325,-0.079,-0.582,-58.6,-133.3,-422,0,2018,5,17,21,37,22.694,0.1985,-0.105,-0.6082,0.7613
-0.331,0.066,-0.557,-11.5,-99.9,-417,0,2018,5,17,21,37,22.716,0.1436,-0.1579,-0.6125,0.761
-0.381,0.248,-0.47,35.3,-71.8,-407.9,0,2018,5,17,21,37,22.755,0.0846,-0.2024,-0.6109,0.7606
-0.465,0.426,-0.324,72.5,-46.3,-389.9,0,2018,5,17,21,37,22.778,0.0234,-0.2383,-0.6038,0.7602
-0.457,0.645,-0.107,93.6,-12.5,-349.9,0,2018,5,17,21,37,22.783,-0.0355,-0.2658,-0.5908,0.7609
-0.468,0.879,-0.041,112.6,-0.3,-297.9,0,2018,5,17,21,37,22.798,-0.0891,-0.2848,-0.5743,0.7622
-0.44,1.04,-0.028,121.5,-18.5,-236.5,0,2018,5,17,21,37,22.821,-0.1367,-0.2955,-0.5595,0.7621
-0.419,1.144,0.042,121.3,-44.5,-162.4,0,2018,5,17,21,37,22.837,-0.1763,-0.2977,-0.5495,0.7604
-0.418,1.189,0.077,107.8,-77,-84.2,0,2018,5,17,21,37,22.855,-0.2063,-0.2921,-0.547,0.7568
-0.384,1.171,0.106,86,-110.3,-4.4,0,2018,5,17,21,37,22.879,-0.2259,-0.2799,-0.5534,0.7512
-0.436,1.084,0.083,62.6,-124.3,76.7,0,2018,5,17,21,37,22.915,-0.2338,-0.2618,-0.5674,0.7448
-0.485,0.94,0.049,38.2,-101.1,162.2,0,2018,5,17,21,37,22.938,-0.2278,-0.2385,-0.5853,0.7406
-0.598,0.878,0.079,12.3,-57.1,242,0,2018,5,17,21,37,22.943,-0.2069,-0.211,-0.6023,0.7414
-0.719,0.788,0.154,-5.3,-20.2,311.6,0,2018,5,17,21,37,22.959,-0.1719,-0.1799,-0.616,0.7473
-0.642,0.763,0.226,-18.4,4.6,369.5,0,2018,5,17,21,37,22.979,-0.1256,-0.1445,-0.6265,0.7554
-0.654,0.647,0.18,-17.8,29.7,411.6,1023,2018,5,17,21,37,22.998,-0.071,-0.104,-0.6331,0.7637
-0.656,0.475,0.071,-15.3,90.6,451,1023,2018,5,17,21,37,23.021,-0.0103,-0.0589,-0.6314,0.773
-0.778,-0.09,-0.102,4.7,122.2,476.2,1023,2018,5,17,21,37,23.055,0.0536,-0.0082,-0.6198,0.7828
-0.882,-0.712,-0.352,20.1,141.6,456.3,1023,2018,5,17,21,37,23.055,0.1162,0.0457,-0.6,0.7901
-0.949,-0.54,-0.042,23.1,96,421.4,1023,2018,5,17,21,37,23.078,0.1731,0.0971,-0.5782,0.7913
-1.159,-0.806,0.537,38.4,30.2,316.7,1023,2018,5,17,21,37,23.097,0.22,0.1406,-0.5634,0.7838
-1.254,-1.485,0.641,52.6,-32.6,163.4,1023,2018,5,17,21,37,23.12,0.2477,0.1708,-0.5594,0.7723
-1.205,-1.749,0.371,29.8,-72.8,14.5,1023,2018,5,17,21,37,23.139,0.256,0.1826,-0.5669,0.7613
-0.957,-1.445,0.307,-7.6,-82,-99.6,1023,2018,5,17,21,37,23.177,0.2506,0.1758,-0.5805,0.7544
-0.523,-1.019,0.363,-38,-76.6,-181.8,1023,2018,5,17,21,37,23.2,0.2361,0.154,-0.5943,0.7531
-0.454,-0.639,0.239,-60.1,-87.8,-240.5,1023,2018,5,17,21,37,23.205,0.2151,0.1219,-0.6081,0.7543
-0.505,-0.509,0.015,-73.2,-106.1,-286.3,1023,2018,5,17,21,37,23.221,0.1893,0.0815,-0.6237,0.7539
-0.505,-0.444,-0.034,-69,-101.5,-319.8,1023,2018,5,17,21,37,23.258,0.1583,0.0353,-0.6386,0.7522
-0.452,-0.25,-0.074,-51,-65.9,-346.3,1023,2018,5,17,21,37,23.282,0.1212,-0.012,-0.6487,0.7511
-0.426,0,-0.22,-31.3,-34.1,-357.2,1023,2018,5,17,21,37,23.286,0.0792,-0.0585,-0.6518,0.7519
-0.444,0.167,-0.303,-9.1,-13.9,-356.6,1023,2018,5,17,21,37,23.305,0.0339,-0.1023,-0.6499,0.7523
-0.398,0.354,-0.337,9.6,-6.6,-343.8,0,2018,5,17,21,37,23.325,-0.0122,-0.1421,-0.6439,0.7516
-0.434,0.304,-0.455,30.1,1.1,-328.1,0,2018,5,17,21,37,23.342,-0.0582,-0.1766,-0.6342,0.7503
-0.496,0.385,-0.258,53.7,21.9,-298.3,0,2018,5,17,21,37,23.365,-0.1033,-0.2055,-0.6207,0.7494
-0.424,0.563,-0.12,67.8,19.4,-273.6,0,2018,5,17,21,37,23.382,-0.1464,-0.229,-0.6059,0.7476
-0.393,0.706,-0.018,74.9,19.4,-234.1,0,2018,5,17,21,37,23.418,-0.1862,-0.2468,-0.5903,0.7456
-0.363,0.865,0.027,74.7,19.1,-185.2,0,2018,5,17,21,37,23.441,-0.22,-0.2591,-0.5753,0.7439
-0.345,0.975,0.039,68.6,8.8,-118.6,0,2018,5,17,21,37,23.446,-0.2458,-0.2656,-0.5628,0.743
-0.386,0.948,0.069,51.1,-8.7,-48.8,0,2018,5,17,21,37,23.463,-0.2624,-0.2658,-0.556,0.7424
-0.418,1.056,0.075,26,-27.5,25.5,0,2018,5,17,21,37,23.481,-0.2679,-0.2612,-0.5555,0.7425
-0.426,1.071,0.077,1.2,-52.8,98.2,0,2018,5,17,21,37,23.504,-0.2628,-0.2514,-0.5629,0.7421
-0.458,1.007,0.024,-23,-53.5,173.5,0,2018,5,17,21,37,23.542,-0.2459,-0.2369,-0.576,0.7426
-0.521,0.979,-0.032,-38,-28.3,248.1,0,2018,5,17,21,37,23.542,-0.2165,-0.2177,-0.5906,0.7462
-0.582,0.989,-0.095,-44.5,1.9,320.8,0,2018,5,17,21,37,23.567,-0.1748,-0.1931,-0.6036,0.7534
-0.677,0.991,-0.133,-35.1,16.6,388.6,0,2018,5,17,21,37,23.581,-0.1228,-0.1607,-0.6142,0.7627
-0.763,0.752,-0.211,-12.1,28,444.4,0,2018,5,17,21,37,23.6,-0.0634,-0.1191,-0.6218,0.7714
-0.773,0.678,-0.218,13.1,49.6,484.3,0,2018,5,17,21,37,23.622,0.0001,-0.0683,-0.624,0.7783
-0.762,0.429,-0.29,42.2,61.5,510.2,0,2018,5,17,21,37,23.642,0.0654,-0.0099,-0.6201,0.7817
-0.827,-0.207,-0.461,76.2,95.8,513.3,1023,2018,5,17,21,37,23.665,0.1283,0.0547,-0.6093,0.7805
-1.053,-0.553,-0.229,106.8,120.6,486.5,1023,2018,5,17,21,37,23.684,0.185,0.1233,-0.589,0.7768
-1.44,-0.54,0.393,103.5,99.1,425.5,1023,2018,5,17,21,37,23.72,0.2329,0.1889,-0.5642,0.7691
-1.395,-0.775,0.58,92.7,61.4,320.5,1023,2018,5,17,21,37,23.74,0.2702,0.2411,-0.5448,0.7562
-1.355,-1.022,0.796,74.2,-3.9,173.4,1023,2018,5,17,21,37,23.746,0.2924,0.2767,-0.5349,0.7427
-1.221,-1.184,0.834,27.8,-66.8,53.4,1023,2018,5,17,21,37,23.784,0.3029,0.2917,-0.5371,0.731
-1.075,-1.05,0.662,-34.9,-115.7,-39.3,1023,2018,5,17,21,37,23.784,0.308,0.2867,-0.549,0.7221
-0.749,-0.914,0.469,-85.3,-145.3,-116.9,1023,2018,5,17,21,37,23.808,0.3102,0.2639,-0.5664,0.7163
-0.651,-0.952,0.402,-116.7,-153.7,-182.4,1023,2018,5,17,21,37,23.825,0.3078,0.2279,-0.5863,0.7137
-0.739,-0.974,0.248,-140.9,-156.6,-246.1,1023,2018,5,17,21,37,23.848,0.2996,0.181,-0.6063,0.7139
-0.726,-0.75,0.12,-148.6,-152.5,-314.7,1023,2018,5,17,21,37,23.864,0.2844,0.125,-0.6259,0.7152
-0.543,-0.537,-0.151,-122,-144.1,-385,1023,2018,5,17,21,37,23.882,0.2578,0.0621,-0.6443,0.7172
-0.463,-0.52,-0.473,-80.9,-129.2,-435.3,1023,2018,5,17,21,37,23.906,0.218,-0.0034,-0.6598,0.719
-0.523,-0.45,-0.498,-38.1,-76.9,-457.1,1023,2018,5,17,21,37,23.926,0.1677,-0.0661,-0.668,0.7219
-0.638,-0.287,-0.559,-1.8,-19.3,-464.6,1023,2018,5,17,21,37,23.944,0.1108,-0.1233,-0.6655,0.7277
-0.815,0.141,-0.295,32.4,56.8,-451.9,1023,2018,5,17,21,37,23.967,0.0507,-0.1737,-0.6509,0.7371
-0.807,0.631,-0.109,55.3,96.2,-436.9,0,2018,5,17,21,37,24.003,-0.009,-0.2173,-0.6251,0.7495
-0.811,0.898,-0.103,69.4,74.7,-410.6,0,2018,5,17,21,37,24.026,-0.0679,-0.2547,-0.5953,0.7589
-0.755,0.976,-0.229,77.3,29.4,-369.8,0,2018,5,17,21,37,24.031,-0.1245,-0.2854,-0.5683,0.7615
-0.684,0.947,-0.267,79.5,0.6,-309,0,2018,5,17,21,37,24.047,-0.1759,-0.3082,-0.5461,0.7588
-0.55,1.121,-0.181,80,-16.7,-241.6,0,2018,5,17,21,37,24.07,-0.2201,-0.3232,-0.5289,0.7531
-0.508,1.271,-0.052,73.1,-46.9,-171.9,0,2018,5,17,21,37,24.106,-0.2556,-0.3305,-0.5177,0.7465
-0.471,1.282,0.047,61.4,-95.2,-99.1,0,2018,5,17,21,37,24.129,-0.2831,-0.3307,-0.5153,0.7381
-0.502,1.201,0.063,38.9,-136.6,-14.3,0,2018,5,17,21,37,24.134,-0.3015,-0.3232,-0.5243,0.7277
-0.524,1.04,0.035,9.3,-159.1,68.2,0,2018,5,17,21,37,24.148,-0.3081,-0.3095,-0.5431,0.717
-0.548,0.96,0.021,-21.4,-160.8,144.2,0,2018,5,17,21,37,24.183,-0.3023,-0.2912,-0.5688,0.7072
-0.583,0.926,-0.022,-49.9,-158.4,212.5,0,2018,5,17,21,37,24.206,-0.284,-0.2693,-0.5987,0.6987
-0.636,0.846,-0.055,-67.6,-162.5,274.5,0,2018,5,17,21,37,24.211,-0.2549,-0.2425,-0.6317,0.6907
-0.826,0.534,-0.12,-80,-147.5,330.8,0,2018,5,17,21,37,24.227,-0.2162,-0.2106,-0.6653,0.6828
-0.748,0.447,-0.048,-89.5,-90.6,383.3,0,2018,5,17,21,37,24.249,-0.1674,-0.1745,-0.694,0.678
-0.826,0.052,0.081,-90.9,10.4,445.2,0,2018,5,17,21,37,24.267,-0.1085,-0.1331,-0.7123,0.6804
-0.711,-0.419,-0.057,-69.4,171.3,507.6,0,2018,5,17,21,37,24.29,-0.0386,-0.0843,-0.7113,0.6966
-0.651,-0.107,-0.153,-25,253.8,525.9,0,2018,5,17,21,37,24.309,0.0335,-0.0263,-0.6884,0.7239
-0.893,0.084,-0.038,22.4,212.2,493.1,1023,2018,5,17,21,37,24.331,0.0984,0.0365,-0.6582,0.7454
-1.144,-0.199,0.176,36.9,141.7,440.8,1023,2018,5,17,21,37,24.347,0.1539,0.0975,-0.631,0.754
-1.174,-0.731,0.202,29.2,104.9,352.9,1023,2018,5,17,21,37,24.366,0.1996,0.1486,-0.6079,0.7539
-1.225,-1.126,0.422,11.7,85.5,252.2,1023,2018,5,17,21,37,24.389,0.234,0.1869,-0.5875,0.7517
-1.151,-1.011,0.599,-18.6,36.3,155.5,1023,2018,5,17,21,37,24.407,0.2588,0.2103,-0.5718,0.7495
-1.076,-1.111,0.589,-53.1,-31.8,51.6,1023,2018,5,17,21,37,24.429,0.2759,0.2158,-0.5663,0.746
-0.827,-0.922,0.449,-85.3,-86.1,-49.6,1023,2018,5,17,21,37,24.465,0.2848,0.2035,-0.5708,0.7426
-0.599,-0.724,0.387,-105,-136.4,-141.9,1023,2018,5,17,21,37,24.489,0.2854,0.1757,-0.5835,0.7396
-0.492,-0.561,0.239,-120.6,-190,-217.4,1023,2018,5,17,21,37,24.494,0.2782,0.1344,-0.6039,0.7346
-0.403,-0.57,0.007,-120.3,-211.2,-274.1,1023,2018,5,17,21,37,24.509,0.2633,0.0832,-0.6295,0.7261
-0.309,-0.513,-0.254,-100.4,-192.5,-320.1,1023,2018,5,17,21,37,24.532,0.24,0.0273,-0.6535,0.7172
-0.251,-0.359,-0.38,-67.3,-148.3,-353.6,1023,2018,5,17,21,37,24.551,0.2074,-0.0288,-0.6713,0.7109
-0.204,-0.143,-0.439,-36.2,-106.6,-370,1023,2018,5,17,21,37,24.574,0.167,-0.0822,-0.6816,0.7075
-0.259,0.038,-0.359,-3.7,-65.5,-367.6,1023,2018,5,17,21,37,24.592,0.1218,-0.1313,-0.685,0.7061
-0.316,0.165,-0.4,21,-43.7,-360.5,1023,2018,5,17,21,37,24.615,0.0746,-0.1746,-0.6823,0.7059
-0.381,0.241,-0.346,50.3,-16.1,-340.2,0,2018,5,17,21,37,24.634,0.0261,-0.2114,-0.6738,0.7074
-0.401,0.414,-0.191,76.8,5.3,-316.2,0,2018,5,17,21,37,24.652,-0.0223,-0.242,-0.6612,0.7096
-0.395,0.647,0,85.8,7.8,-280.8,0,2018,5,17,21,37,24.671,-0.0681,-0.266,-0.6462,0.7119
-0.357,0.774,-0.016,92.6,-12.4,-250.2,0,2018,5,17,21,37,24.689,-0.1112,-0.2845,-0.6322,0.7119
-0.393,0.874,0.088,94.5,-29.9,-202.8,0,2018,5,17,21,37,24.711,-0.1506,-0.297,-0.6208,0.7096
-0.374,0.882,0.11,86.1,-51.2,-151.9,0,2018,5,17,21,37,24.75,-0.1841,-0.3038,-0.6135,0.7051
-0.412,0.95,0.124,75.7,-71.2,-94.4,0,2018,5,17,21,37,24.773,-0.211,-0.305,-0.6115,0.6989
-0.487,0.967,0.164,54.4,-93.3,-24.9,0,2018,5,17,21,37,24.778,-0.2294,-0.3003,-0.6155,0.6915
-0.514,0.902,0.189,23.4,-102.7,49.4,0,2018,5,17,21,37,24.794,-0.237,-0.2903,-0.6261,0.6836
-0.525,0.884,0.152,-4.2,-103.6,124.5,0,2018,5,17,21,37,24.815,-0.2325,-0.2753,-0.6421,0.6765
-0.562,0.845,0.032,-25.2,-78.9,205.5,0,2018,5,17,21,37,24.833,-0.2154,-0.2546,-0.6612,0.6718
-0.66,0.63,0.009,-40.2,-16,294,0,2018,5,17,21,37,24.856,-0.184,-0.2276,-0.6784,0.6738
-0.567,0.504,0.037,-42.9,91.8,382.7,0,2018,5,17,21,37,24.872,-0.137,-0.1932,-0.6874,0.6864
-0.531,0.333,0.118,-16.5,212.2,461.6,0,2018,5,17,21,37,24.89,-0.0766,-0.1488,-0.6817,0.7121
-0.52,0.281,0.187,16.5,316.6,515.7,0,2018,5,17,21,37,24.913,-0.0085,-0.0928,-0.658,0.7471
-0.446,0.477,0.001,53.5,349.6,529.7,0,2018,5,17,21,37,24.95,0.0612,-0.0277,-0.6187,0.7827
-0.513,-0.039,-0.434,110.3,363.2,522.1,1023,2018,5,17,21,37,24.973,0.1258,0.044,-0.5704,0.8104
-0.749,-0.372,-0.397,165.9,422.7,506.6,1023,2018,5,17,21,37,24.977,0.1805,0.1234,-0.5108,0.8314
-1.209,0.26,0.586,174.3,411.2,421.6,1023,2018,5,17,21,37,24.993,0.2222,0.2048,-0.4377,0.8467
-1.281,-0.011,0.946,161.8,193.4,291.6,1023,2018,5,17,21,37,25.016,0.2506,0.2657,-0.3891,0.8456
-1.484,0.048,1.254,124.5,28.1,155.7,1023,2018,5,17,21,37,25.034,0.2672,0.3068,-0.3687,0.8357
-1.466,-0.4,1.084,40.9,-125.2,37,1023,2018,5,17,21,37,25.057,0.2779,0.3219,-0.3764,0.823
-1.135,-0.776,0.657,-52.4,-205.4,-35.6,1023,2018,5,17,21,37,25.076,0.2877,0.3123,-0.4006,0.8118
-0.727,-0.783,0.42,-117.3,-210.3,-81.7,1023,2018,5,17,21,37,25.099,0.2957,0.2845,-0.43,0.8041
-0.556,-0.662,0.334,-154.3,-192.6,-122.4,1023,2018,5,17,21,37,25.117,0.3006,0.2463,-0.457,0.7999
-0.706,-0.725,0.383,-181.9,-191,-172,1023,2018,5,17,21,37,25.137,0.3009,0.2007,-0.4813,0.7983
-0.686,-0.577,0.308,-208.1,-178.8,-225.6,1023,2018,5,17,21,37,25.161,0.2958,0.1475,-0.503,0.7985
-0.583,-0.431,0.012,-207.3,-172.7,-293.9,1023,2018,5,17,21,37,25.176,0.2816,0.086,-0.5228,0.7999
-0.43,-0.381,-0.373,-177,-170.8,-354.6,1023,2018,5,17,21,37,25.195,0.2554,0.0205,-0.5408,0.8011
-0.376,-0.306,-0.54,-135.4,-169.7,-401.8,1023,2018,5,17,21,37,25.217,0.2166,-0.0446,-0.5573,0.8002
-0.342,-0.208,-0.543,-82.2,-147.9,-431.8,1023,2018,5,17,21,37,25.234,0.1666,-0.1064,-0.5703,0.7972
-0.411,0.037,-0.404,-27.3,-104.4,-442.9,1023,2018,5,17,21,37,25.257,0.108,-0.161,-0.5759,0.7941
-0.469,0.332,-0.33,14.5,-69.2,-440.5,0,2018,5,17,21,37,25.294,0.0444,-0.2075,-0.5734,0.7912
-0.492,0.653,-0.177,52,-39.3,-411.5,0,2018,5,17,21,37,25.317,-0.0196,-0.2452,-0.5634,0.7886
-0.551,0.729,-0.117,77.6,-25.2,-369.1,0,2018,5,17,21,37,25.322,-0.0809,-0.2737,-0.549,0.7854
-0.566,0.819,-0.098,89.8,-21.9,-310.5,0,2018,5,17,21,37,25.341,-0.1362,-0.294,-0.5331,0.7814
-0.536,0.903,-0.091,93.5,-38.1,-245.6,0,2018,5,17,21,37,25.358,-0.184,-0.3062,-0.5196,0.776
-0.483,1.007,0.003,87.9,-48.7,-169.2,0,2018,5,17,21,37,25.381,-0.2221,-0.3109,-0.5109,0.77
-0.482,1.129,0.001,75.9,-70.2,-100.7,0,2018,5,17,21,37,25.398,-0.2503,-0.3095,-0.5075,0.764
-0.541,1.127,0.035,56.2,-103.9,-26.5,0,2018,5,17,21,37,25.414,-0.269,-0.3024,-0.5125,0.7572
-0.556,1.134,0.108,27.6,-133.5,51.7,0,2018,5,17,21,37,25.437,-0.2769,-0.2898,-0.5266,0.7495
-0.594,1.007,0.105,-7.1,-142.4,130.2,0,2018,5,17,21,37,25.455,-0.2725,-0.273,-0.5487,0.7416
-0.597,0.93,0.005,-38.9,-121.5,210.6,0,2018,5,17,21,37,25.476,-0.2539,-0.2532,-0.5746,0.7356
-0.616,0.806,-0.039,-59.3,-83.3,287.5,0,2018,5,17,21,37,25.515,-0.2207,-0.2295,-0.6002,0.7336
-0.589,0.733,-0.048,-68.9,-25.3,357.7,0,2018,5,17,21,37,25.537,-0.174,-0.2013,-0.6214,0.7368
-0.582,0.519,0.013,-61.6,48,426.2,0,2018,5,17,21,37,25.542,-0.1152,-0.1669,-0.6342,0.746
-0.557,0.155,0.049,-32.2,148.4,489.1,0,2018,5,17,21,37,25.557,-0.0469,-0.1237,-0.6336,0.7622
-0.607,0.094,0.051,9.5,214.3,518.1,0,2018,5,17,21,37,25.58,0.0257,-0.0697,-0.6168,0.7835
-0.606,0.23,-0.016,48.6,209.4,529.7,0,2018,5,17,21,37,25.618,0.0966,-0.0077,-0.5909,0.8008
-0.86,0.113,-0.14,88.6,213.1,518.3,1023,2018,5,17,21,37,25.618,0.1622,0.0595,-0.5614,0.8092
-1.288,-0.444,-0.017,112.4,190.2,443.6,1023,2018,5,17,21,37,25.642,0.2176,0.1273,-0.5283,0.8106
-1.461,-0.519,0.552,103.6,83.4,312,1023,2018,5,17,21,37,25.661,0.2567,0.1828,-0.5029,0.8048
-1.591,-1.019,0.917,71.9,-58.5,177.5,1023,2018,5,17,21,37,25.679,0.2819,0.2165,-0.4981,0.7908
-1.544,-1.462,0.777,13.4,-122.4,54.8,1023,2018,5,17,21,37,25.715,0.2974,0.228,-0.5095,0.7744
-1.129,-1.409,0.397,-50,-108.3,-49.6,1023,2018,5,17,21,37,25.738,0.3032,0.219,-0.5252,0.7642
-0.648,-1.059,0.29,-87.5,-79.4,-131.8,1023,2018,5,17,21,37,25.743,0.2996,0.1959,-0.5382,0.7629
-0.527,-0.769,0.244,-106.7,-85.6,-196.3,1023,2018,5,17,21,37,25.759,0.2885,0.1626,-0.5499,0.7667
-0.487,-0.525,0.181,-115.9,-110.6,-246.9,1023,2018,5,17,21,37,25.782,0.2718,0.1215,-0.5634,0.7706
-0.395,-0.411,0.024,-106.1,-124.1,-295.4,1023,2018,5,17,21,37,25.802,0.2485,0.0745,-0.5794,0.7726
-0.375,-0.285,-0.157,-83.4,-119.4,-336.9,1023,2018,5,17,21,37,25.82,0.2164,0.0241,-0.5945,0.7739
-0.331,-0.065,-0.271,-56.1,-121.7,-365.7,1023,2018,5,17,21,37,25.844,0.1759,-0.0265,-0.6084,0.7734
-0.287,0.168,-0.305,-24.2,-133.3,-384.5,1023,2018,5,17,21,37,25.862,0.1282,-0.076,-0.6215,0.769
-0.321,0.199,-0.275,10.9,-117.2,-381.8,1023,2018,5,17,21,37,25.885,0.0752,-0.121,-0.6313,0.7622
-0.422,0.351,-0.182,36,-86.4,-366.8,1023,2018,5,17,21,37,25.906,0.0202,-0.1604,-0.6357,0.7547
-0.423,0.584,-0.172,52.3,-70.4,-338.8,0,2018,5,17,21,37,25.924,-0.0335,-0.1941,-0.6351,0.7468
-0.437,0.769,-0.047,69,-56.9,-293,0,2018,5,17,21,37,25.941,-0.0834,-0.2203,-0.6307,0.7393
-0.458,0.76,0,70.6,-50.5,-242.2,0,2018,5,17,21,37,25.978,-0.1272,-0.2394,-0.6248,0.7321
-0.413,0.838,0.017,68.4,-51.7,-188.5,0,2018,5,17,21,37,26.001,-0.1642,-0.2529,-0.6198,0.7244
-0.349,0.894,-0.038,63.7,-76.4,-140.9,0,2018,5,17,21,37,26.005,-0.1944,-0.2606,-0.6181,0.7156
-0.344,0.948,-0.006,56.8,-105.3,-90,0,2018,5,17,21,37,26.021,-0.2193,-0.2623,-0.6217,0.7046
-0.373,0.925,0.042,44.9,-126.4,-34.7,0,2018,5,17,21,37,26.044,-0.2377,-0.2582,-0.6308,0.6919
-0.474,0.888,0.12,26.4,-125,31.9,0,2018,5,17,21,37,26.062,-0.2474,-0.2488,-0.6442,0.6795
-0.563,0.869,0.263,-5.8,-104.1,108.7,0,2018,5,17,21,37,26.084,-0.2448,-0.2345,-0.6598,0.6705
-0.633,0.72,0.31,-42.9,-66.3,189.4,0,2018,5,17,21,37,26.103,-0.2275,-0.2163,-0.6765,0.666
-0.622,0.449,0.344,-78.3,15.2,271.8,0,2018,5,17,21,37,26.126,-0.194,-0.1947,-0.6903,0.6692
-0.482,0.342,0.233,-97,134.8,354.2,0,2018,5,17,21,37,26.142,-0.1435,-0.1694,-0.694,0.6847
-0.291,0.481,0.005,-85.1,258.6,439.1,0,2018,5,17,21,37,26.16,-0.0783,-0.1365,-0.6822,0.7139
-0.175,0.798,-0.173,-29,346.9,511.5,0,2018,5,17,21,37,26.18,-0.0042,-0.0903,-0.6529,0.7519
-0.428,0.857,0.098,48.1,349.2,547.9,0,2018,5,17,21,37,26.217,0.0706,-0.0275,-0.6101,0.7886
-0.794,0.967,0.205,93.7,247.5,539.2,0,2018,5,17,21,37,26.238,0.1379,0.0437,-0.5698,0.8088
-1.173,0.504,0.148,113.1,189.8,533.4,0,2018,5,17,21,37,26.243,0.2007,0.1168,-0.5359,0.8116
-1.201,0.25,0.059,115.1,204.4,515.3,0,2018,5,17,21,37,26.282,0.2592,0.1882,-0.4997,0.8047
-1.44,-0.419,0.115,131,196.7,461,1023,2018,5,17,21,37,26.305,0.309,0.257,-0.4577,0.793
-1.857,-0.469,0.51,117.5,71.2,356.9,1023,2018,5,17,21,37,26.31,0.3475,0.3138,-0.4262,0.7739
-1.972,-0.677,0.869,55.7,-70.8,220.6,1023,2018,5,17,21,37,26.326,0.3796,0.347,-0.4158,0.7499
-1.75,-0.96,0.918,-14.7,-158.3,64.1,1023,2018,5,17,21,37,26.344,0.4035,0.3512,-0.4249,0.7302
-1.265,-0.972,0.758,-79.2,-189.2,-85.8,1023,2018,5,17,21,37,26.365,0.4151,0.3308,-0.445,0.7211
-0.829,-0.702,0.543,-127.4,-215.3,-186.2,1023,2018,5,17,21,37,26.404,0.4161,0.2913,-0.4705,0.7214
-0.601,-0.576,0.279,-146.3,-256.2,-253.5,1023,2018,5,17,21,37,26.404,0.4099,0.2371,-0.5015,0.7239
-0.594,-0.688,0.149,-147.8,-248.3,-293.6,1023,2018,5,17,21,37,26.428,0.3971,0.1754,-0.534,0.7254
-0.643,-0.688,-0.002,-149.9,-205.4,-333.2,1023,2018,5,17,21,37,26.445,0.3769,0.1112,-0.5609,0.7285
-0.585,-0.447,-0.111,-136.2,-172.2,-376,1023,2018,5,17,21,37,26.464,0.3484,0.0458,-0.5802,0.7346
-0.449,-0.148,-0.227,-106.3,-161.7,-421,1023,2018,5,17,21,37,26.487,0.3093,-0.0203,-0.5957,0.7409
-0.405,-0.183,-0.433,-60.3,-152.8,-451.6,1023,2018,5,17,21,37,26.505,0.2595,-0.0852,-0.6084,0.7451
-0.437,-0.01,-0.43,-19.4,-106.7,-454.9,1023,2018,5,17,21,37,26.528,0.2014,-0.1437,-0.6145,0.749
-0.457,0.216,-0.398,14.4,-61.7,-446.9,1023,2018,5,17,21,37,26.546,0.1397,-0.1951,-0.6119,0.7535
-0.556,0.474,-0.329,48.4,-39.2,-434.1,1023,2018,5,17,21,37,26.569,0.076,-0.2389,-0.6026,0.7575
-0.625,0.684,-0.277,78.2,-37,-415.4,0,2018,5,17,21,37,26.604,0.0115,-0.2747,-0.5888,0.76
-0.585,0.908,-0.068,109.4,-53,-381.5,0,2018,5,17,21,37,26.628,-0.0531,-0.3025,-0.5737,0.7592
-0.571,0.896,-0.03,131,-64.5,-337.1,0,2018,5,17,21,37,26.632,-0.1157,-0.3211,-0.5599,0.7549
-0.574,0.901,0.042,135.7,-63.8,-269.7,0,2018,5,17,21,37,26.648,-0.1719,-0.3313,-0.5471,0.7492
-0.525,0.939,0.093,121.5,-65.8,-199.4,0,2018,5,17,21,37,26.669,-0.2185,-0.3344,-0.5372,0.7427
-0.524,0.986,0.212,100.6,-61.9,-126.6,0,2018,5,17,21,37,26.696,-0.2531,-0.3325,-0.5309,0.7372
-0.55,1.013,0.282,67.4,-73.3,-52.6,0,2018,5,17,21,37,26.712,-0.276,-0.3268,-0.5302,0.7319
-0.551,1.068,0.286,30.1,-96.7,18.7,0,2018,5,17,21,37,26.727,-0.2871,-0.3179,-0.5377,0.7261
-0.534,1.124,0.222,-3.9,-128.9,90,0,2018,5,17,21,37,26.765,-0.2872,-0.3054,-0.5543,0.7189
-0.581,1.06,0.18,-35.4,-147.2,165.6,0,2018,5,17,21,37,26.784,-0.2764,-0.2883,-0.5793,0.7105
-0.672,0.916,0.12,-63.4,-139.8,246.1,0,2018,5,17,21,37,26.788,-0.2524,-0.2662,-0.6092,0.7029
-0.698,0.778,0.003,-82.5,-97.2,322.7,0,2018,5,17,21,37,26.825,-0.2144,-0.2392,-0.6392,0.6986
-0.753,0.683,-0.089,-84,-35.7,398.5,0,2018,5,17,21,37,26.846,-0.1629,-0.206,-0.6638,0.7002
-0.735,0.447,-0.106,-68.1,48,472.4,0,2018,5,17,21,37,26.851,-0.0997,-0.1642,-0.6789,0.7085
-0.736,-0.003,-0.004,-30.4,154.5,536.1,0,2018,5,17,21,37,26.888,-0.0278,-0.1113,-0.6787,0.7253
-0.933,-0.306,0.013,17.7,174.2,539.3,0,2018,5,17,21,37,26.888,0.044,-0.048,-0.6646,0.7443
-1.076,-0.332,-0.37,36.4,147.9,526.9,1023,2018,5,17,21,37,26.91,0.1107,0.0192,-0.6458,0.7551
-1.526,-0.614,-0.129,42.6,106.1,476.4,1023,2018,5,17,21,37,26.93,0.1723,0.0843,-0.6252,0.7564
-1.76,-1.334,0.485,23.4,98.6,311.9,1023,2018,5,17,21,37,26.948,0.2182,0.1348,-0.6068,0.7522
-1.453,-1.507,0.853,-0.9,58.3,137.2,1023,2018,5,17,21,37,26.97,0.2435,0.1628,-0.59,0.7523
-1.262,-1.212,0.676,-32.5,-82,-17.4,1023,2018,5,17,21,37,27.006,0.252,0.1658,-0.5895,0.7492
-0.877,-1.038,0.372,-57.9,-194.6,-131,1023,2018,5,17,21,37,27.03,0.251,0.1455,-0.6086,0.7384
-0.527,-0.877,0.168,-64.4,-242.5,-218.4,1023,2018,5,17,21,37,27.034,0.2403,0.1087,-0.6383,0.723
-0.375,-0.825,-0.044,-56.5,-224.1,-278.6,1023,2018,5,17,21,37,27.05,0.2193,0.0631,-0.6696,0.7067
-0.284,-0.661,-0.154,-47.1,-164.2,-311.1,1023,2018,5,17,21,37,27.073,0.1903,0.0147,-0.6942,0.6939
-0.311,-0.551,-0.22,-33.6,-94.7,-325.2,1023,2018,5,17,21,37,27.092,0.1563,-0.0332,-0.7086,0.6871
-0.373,-0.397,-0.166,-25.4,-17,-327.1,1023,2018,5,17,21,37,27.112,0.1203,-0.0783,-0.7112,0.6881
-0.427,-0.181,-0.168,-23.4,35,-328.2,1023,2018,5,17,21,37,27.131,0.0839,-0.1212,-0.7032,0.6955
-0.463,0.121,-0.162,-17.3,56.6,-327.7,1023,2018,5,17,21,37,27.153,0.0476,-0.1628,-0.6889,0.7047
-0.466,0.398,-0.221,-8.5,56.7,-327.6,1023,2018,5,17,21,37,27.19,0.0103,-0.2033,-0.6712,0.7127
-0.441,0.582,-0.294,10.4,46.6,-324.1,1023,2018,5,17,21,37,27.213,-0.0284,-0.2412,-0.6522,0.718
-0.385,0.738,-0.224,29.9,27.1,-309.6,0,2018,5,17,21,37,27.218,-0.0688,-0.2744,-0.6328,0.7207
-0.32,0.76,-0.138,47.7,4.7,-277.4,0,2018,5,17,21,37,27.232,-0.1091,-0.3015,-0.615,0.7203
-0.331,0.813,-0.018,59.6,-14.2,-236.3,0,2018,5,17,21,37,27.254,-0.1474,-0.3219,-0.6003,0.717
-0.352,0.916,0.015,57.7,-34.4,-184.6,0,2018,5,17,21,37,27.27,-0.1811,-0.3355,-0.5896,0.7119
-0.322,0.953,-0.064,54.3,-60.2,-131.6,0,2018,5,17,21,37,27.293,-0.2089,-0.3432,-0.5839,0.7053
-0.307,0.977,-0.102,53.7,-90.7,-76,0,2018,5,17,21,37,27.33,-0.2315,-0.3443,-0.5845,0.6972
-0.337,0.976,-0.069,44.9,-118.1,-13.8,0,2018,5,17,21,37,27.353,-0.2481,-0.3385,-0.5921,0.6878
-0.402,0.981,-0.01,31.8,-140.2,51.5,0,2018,5,17,21,37,27.357,-0.2572,-0.3261,-0.6068,0.6776
-0.513,0.997,0.075,12.6,-157.9,122.2,0,2018,5,17,21,37,27.376,-0.2574,-0.3072,-0.6281,0.6668
-0.629,0.9,0.082,-12.4,-160.7,192.6,0,2018,5,17,21,37,27.394,-0.2472,-0.2823,-0.6547,0.6561
-0.766,0.846,0.108,-38.6,-139.9,264.4,0,2018,5,17,21,37,27.417,-0.225,-0.2522,-0.6833,0.6471
-0.883,0.704,0.119,-58.9,-89.6,341.4,0,2018,5,17,21,37,27.433,-0.1893,-0.2165,-0.7104,0.6423
-0.991,0.259,0.208,-66.7,-23.6,406.4,0,2018,5,17,21,37,27.469,-0.1409,-0.1745,-0.7314,0.6439
-1.017,-0.315,0.331,-69.3,83,454.5,0,2018,5,17,21,37,27.469,-0.0824,-0.1269,-0.7407,0.6544
-0.869,-0.169,0.337,-78.2,229.6,506.6,0,2018,5,17,21,37,27.491,-0.0144,-0.0748,-0.7315,0.6775
-0.641,0.192,0.097,-66.8,381.6,569.5,0,2018,5,17,21,37,27.53,0.0631,-0.015,-0.6975,0.7135
-0.677,0.87,0.02,-9.8,375.5,567.7,1023,2018,5,17,21,37,27.553,0.1392,0.0541,-0.6444,0.7499
-0.966,0.301,0.146,46.5,255.5,532.2,1023,2018,5,17,21,37,27.558,0.2053,0.1259,-0.5943,0.7672
-1.549,-0.023,0.318,54.2,52.7,464.7,1023,2018,5,17,21,37,27.573,0.2615,0.1893,-0.5633,0.7604
-1.658,-0.731,0.447,8.5,-22.8,410.8,1023,2018,5,17,21,37,27.597,0.3159,0.236,-0.5491,0.7367
-1.521,-1.49,0.481,0.3,33.7,306.4,1023,2018,5,17,21,37,27.615,0.361,0.271,-0.5333,0.7153
-1.724,-1.183,0.693,-27.7,29.4,149.8,1023,2018,5,17,21,37,27.638,0.3875,0.294,-0.5158,0.7051
-1.25,-1.392,0.422,-76,-129.1,-94.3,1023,2018,5,17,21,37,27.675,0.397,0.2852,-0.5178,0.702
-0.721,-0.617,0.312,-97.7,-211.4,-168.4,1023,2018,5,17,21,37,27.698,0.3954,0.2493,-0.5404,0.6995
-0.511,-0.713,0.285,-107.3,-255.3,-231.4,1023,2018,5,17,21,37,27.703,0.3902,0.2002,-0.5708,0.6941
-0.636,-0.903,0.103,-94.3,-213.2,-294.7,1023,2018,5,17,21,37,27.714,0.375,0.1448,-0.6012,0.6905
-0.557,-0.491,-0.097,-88.7,-199.1,-351,1023,2018,5,17,21,37,27.732,0.3495,0.0862,-0.6268,0.6909
-0.37,-0.557,-0.326,-58.7,-203.9,-397.8,1023,2018,5,17,21,37,27.755,0.3142,0.0235,-0.6507,0.6908
-0.457,-0.58,-0.345,-19.6,-155,-420.8,1023,2018,5,17,21,37,27.774,0.2683,-0.0376,-0.6699,0.6911
-0.614,-0.513,-0.297,10.1,-74.7,-430.9,1023,2018,5,17,21,37,27.795,0.2153,-0.0939,-0.6794,0.695
-0.677,-0.267,-0.328,29.3,-4.4,-435.6,1023,2018,5,17,21,37,27.833,0.1594,-0.1435,-0.6755,0.7053
-0.672,0.077,-0.269,51.8,38,-438.2,0,2018,5,17,21,37,27.856,0.101,-0.1884,-0.6607,0.7194
-0.682,0.482,-0.146,81.7,53.7,-435.8,0,2018,5,17,21,37,27.861,0.0395,-0.2293,-0.6394,0.7327
-0.68,0.678,-0.197,113.7,41.4,-426.6,0,2018,5,17,21,37,27.895,-0.0249,-0.2639,-0.6151,0.7425
-0.66,0.956,-0.045,141.1,36.3,-385.4,0,2018,5,17,21,37,27.918,-0.0894,-0.2903,-0.5885,0.7491
-0.688,0.886,0.027,147.2,5,-331.4,0,2018,5,17,21,37,27.924,-0.1498,-0.3076,-0.564,0.7514
-0.692,1.045,0.128,139.9,18.7,-241.6,0,2018,5,17,21,37,27.94,-0.2007,-0.3169,-0.542,0.7519
-0.675,1.334,0.18,117,16.9,-148.2,0,2018,5,17,21,37,27.957,-0.2368,-0.3186,-0.5234,0.7538
-0.617,1.466,0.153,81.8,-6.3,-53.4,0,2018,5,17,21,37,27.974,-0.2583,-0.3149,-0.5125,0.7558
-0.615,1.503,0.126,48.2,-68.3,36.7,0,2018,5,17,21,37,27.997,-0.2666,-0.3052,-0.5137,0.7561
-0.609,1.397,0,16.5,-130.3,117.8,0,2018,5,17,21,37,28.034,-0.2641,-0.2892,-0.5295,0.7523
