time_1,time_2,time_3,time_4,time_5,time_6,w,x,y,z,droll,dpitch,dyaw,ax,ay,az,heart
2018,5,17,22,18,57.593,0.2363,-0.5041,-0.6403,-0.529,-2.7,-0.3,0,-0.001,0,0.003,1023
2018,5,17,22,18,57.613,0.2363,-0.5041,-0.64,-0.5294,-1.7,-0.4,0.4,-0.004,-0.008,0.004,1023
2018,5,17,22,18,57.636,0.2363,-0.5041,-0.6399,-0.5296,0,0,0,-0.003,-0.002,0.009,1023
2018,5,17,22,18,57.654,0.2364,-0.5039,-0.6398,-0.5298,-0.5,-0.9,0,-0.004,0.003,0.002,0
2018,5,17,22,18,57.676,0.2365,-0.5037,-0.6396,-0.5301,-1.5,-1.5,-0.1,-0.003,0.008,-0.005,0
2018,5,17,22,18,57.714,0.2363,-0.5038,-0.6394,-0.5304,-2.6,-1.2,-0.3,-0.003,0.009,-0.005,0
2018,5,17,22,18,57.714,0.2362,-0.5038,-0.6391,-0.5308,-2.4,-1.2,0,-0.001,0.003,0,0
2018,5,17,22,18,57.735,0.2362,-0.5037,-0.6388,-0.5312,-1.2,-0.6,0.2,-0.005,0.003,-0.002,0
2018,5,17,22,18,57.772,0.2362,-0.5037,-0.6388,-0.5313,0.1,-0.3,0.5,-0.009,0,0.002,0
2018,5,17,22,18,57.772,0.2365,-0.5035,-0.6388,-0.5313,0.9,0.1,0.6,-0.011,0,0.001,0
2018,5,17,22,18,57.795,0.2366,-0.5034,-0.6389,-0.5313,0.7,-0.1,0.4,-0.01,0.002,-0.002,0
2018,5,17,22,18,57.831,0.2365,-0.5034,-0.639,-0.5312,0,0,0,-0.013,0.005,-0.005,0
2018,5,17,22,18,57.854,0.2365,-0.5034,-0.639,-0.5312,0,0,0,-0.004,0.005,-0.002,0
2018,5,17,22,18,57.859,0.2365,-0.5034,-0.6391,-0.5311,0.7,1,0.3,-0.002,0.006,-0.001,0
2018,5,17,22,18,57.894,0.2362,-0.5035,-0.6394,-0.5308,1.7,1.2,0.2,-0.003,-0.002,0,0
2018,5,17,22,18,57.918,0.2363,-0.5035,-0.6396,-0.5305,2.6,1.5,-0.1,-0.001,0,0,0
2018,5,17,22,18,57.922,0.2365,-0.5035,-0.6399,-0.53,3.4,1.2,-0.2,-0.001,0,-0.005,0
2018,5,17,22,18,57.937,0.2368,-0.5034,-0.6402,-0.5296,3.7,1.1,-0.1,0.001,0.001,-0.002,0
2018,5,17,22,18,57.955,0.237,-0.5034,-0.6406,-0.529,3.9,0.7,-0.1,-0.002,0.004,-0.003,0
2018,5,17,22,18,57.978,0.2373,-0.5033,-0.641,-0.5285,3.6,0.4,0,-0.006,0.005,-0.009,0
2018,5,17,22,18,57.995,0.2375,-0.5032,-0.6414,-0.5281,2.7,0.1,0.1,-0.006,0.01,-0.007,0
2018,5,17,22,18,58.015,0.2377,-0.503,-0.6416,-0.5279,1.5,0.1,0,0.001,0.01,-0.008,0
2018,5,17,22,18,58.038,0.2377,-0.503,-0.6417,-0.5277,0.4,0,-0.6,-0.001,0.005,0,0
2018,5,17,22,18,58.074,0.2379,-0.503,-0.6416,-0.5278,0.4,-0.2,-0.8,-0.001,-0.005,0.008,0
2018,5,17,22,18,58.097,0.2381,-0.5031,-0.6416,-0.5276,1.2,-0.3,-0.6,-0.002,-0.005,0.014,1023
2018,5,17,22,18,58.101,0.2385,-0.503,-0.6416,-0.5275,2.5,0,-0.3,-0.005,-0.002,0.007,1023
2018,5,17,22,18,58.117,0.2388,-0.5029,-0.6418,-0.5272,2.7,-0.2,-0.3,-0.004,0.001,-0.001,1023
2018,5,17,22,18,58.14,0.2391,-0.5028,-0.642,-0.527,1.8,0,-0.7,-0.002,0.006,0,1023
2018,5,17,22,18,58.159,0.2391,-0.5029,-0.6421,-0.5267,0.4,0.3,-0.9,-0.006,0.007,-0.003,1023
2018,5,17,22,18,58.177,0.2391,-0.5031,-0.642,-0.5267,-0.5,0.5,-0.8,-0.005,0.009,0,1023
2018,5,17,22,18,58.2,0.2391,-0.5032,-0.6419,-0.5267,0.2,0.9,-0.8,-0.009,0.007,0.005,1023
2018,5,17,22,18,58.237,0.2392,-0.5033,-0.6419,-0.5266,1.9,1.1,-0.4,-0.004,-0.001,0.014,1023
2018,5,17,22,18,58.26,0.2396,-0.5031,-0.6421,-0.5263,4.8,1.4,0.1,-0.008,-0.004,0.007,1023
2018,5,17,22,18,58.264,0.24,-0.503,-0.6427,-0.5255,6.7,1.2,0.2,-0.005,-0.005,0,1023
2018,5,17,22,18,58.278,0.2405,-0.5029,-0.6434,-0.5245,6.8,1,-0.1,-0.005,-0.002,-0.003,1023
2018,5,17,22,18,58.296,0.2409,-0.5028,-0.644,-0.5237,5.5,0.9,-0.4,-0.004,0.001,-0.013,1023
2018,5,17,22,18,58.319,0.2413,-0.5028,-0.6444,-0.523,3.5,0.8,-0.7,-0.002,0.002,-0.01,1023
2018,5,17,22,18,58.337,0.2415,-0.5029,-0.6446,-0.5226,1.9,0.7,-1,0,0.003,-0.009,1023
2018,5,17,22,18,58.36,0.2416,-0.5029,-0.6447,-0.5223,0.6,0.4,-0.9,-0.002,0.004,-0.005,1023
2018,5,17,22,18,58.397,0.2417,-0.503,-0.6447,-0.5222,0.6,0.3,-0.6,-0.002,0.005,-0.001,1023
2018,5,17,22,18,58.421,0.2419,-0.503,-0.6448,-0.5221,0.9,0.4,-0.1,-0.001,0.006,-0.001,1023
2018,5,17,22,18,58.425,0.2421,-0.5029,-0.6448,-0.522,1,0,-0.3,-0.001,0.008,0,0
2018,5,17,22,18,58.444,0.2421,-0.5028,-0.6449,-0.522,0.2,-0.3,-0.6,-0.002,0.011,-0.002,0
2018,5,17,22,18,58.46,0.2422,-0.5027,-0.6448,-0.5222,-0.5,-0.4,-0.4,-0.003,0.006,0.001,0
2018,5,17,22,18,58.483,0.2424,-0.5027,-0.6447,-0.5223,0,-0.3,-0.7,-0.004,0,0.001,0
2018,5,17,22,18,58.502,0.2424,-0.5027,-0.6447,-0.5222,1.6,-0.1,-0.5,-0.003,-0.004,0.003,0
2018,5,17,22,18,58.525,0.2427,-0.5028,-0.6449,-0.5218,3.4,0.3,-0.8,-0.008,-0.005,0.005,0
2018,5,17,22,18,58.541,0.2431,-0.5028,-0.6451,-0.5213,4.3,0.3,-1.2,-0.007,-0.005,0.003,0
2018,5,17,22,18,58.56,0.2437,-0.5029,-0.6454,-0.5206,4.8,0.5,-1.7,-0.004,-0.005,0.001,0
2018,5,17,22,18,58.584,0.2442,-0.503,-0.6457,-0.5199,5,0.9,-1.5,-0.002,-0.004,-0.005,0
2018,5,17,22,18,58.602,0.2448,-0.503,-0.646,-0.5192,4.9,1.1,-1.5,-0.007,-0.001,-0.007,0
2018,5,17,22,18,58.621,0.2452,-0.5031,-0.6464,-0.5184,4.5,1.1,-1,-0.012,0,-0.004,0
2018,5,17,22,18,58.645,0.2456,-0.5031,-0.6467,-0.5178,3.5,0.4,-0.6,-0.009,0.002,-0.005,0
2018,5,17,22,18,58.662,0.2458,-0.5031,-0.647,-0.5174,2.2,0,-0.3,-0.009,-0.003,-0.007,0
2018,5,17,22,18,58.685,0.246,-0.5031,-0.6471,-0.5172,0.9,-0.3,0.2,-0.004,0.003,-0.007,0
2018,5,17,22,18,58.704,0.246,-0.5029,-0.6471,-0.5173,-0.4,-0.5,0.9,-0.006,0.003,-0.004,0
2018,5,17,22,18,58.722,0.2458,-0.5028,-0.6471,-0.5175,-2.3,-0.7,1.2,-0.007,0.007,-0.007,0
2018,5,17,22,18,58.746,0.2455,-0.5027,-0.647,-0.5179,-3.6,-0.7,1.7,-0.009,0.002,-0.004,0
2018,5,17,22,18,58.76,0.2451,-0.5027,-0.6468,-0.5184,-3.4,-0.8,1.9,-0.007,-0.003,0.003,0
2018,5,17,22,18,58.798,0.2447,-0.5025,-0.6466,-0.519,-3.1,-0.7,2.1,-0.001,-0.001,0,0
2018,5,17,22,18,58.819,0.2444,-0.5024,-0.6464,-0.5195,-2.5,-0.7,1.5,0,0.004,0.002,0
2018,5,17,22,18,58.824,0.2443,-0.5021,-0.6462,-0.52,-2,-1.2,1.3,0,0.001,0.001,0
2018,5,17,22,18,58.841,0.2443,-0.5019,-0.6461,-0.5204,-1,-1.1,1,0,0,0.004,0
2018,5,17,22,18,58.865,0.2442,-0.5017,-0.6461,-0.5206,-0.9,-1,0.4,0.001,0,-0.003,0
2018,5,17,22,18,58.882,0.2442,-0.5016,-0.646,-0.5208,-1.2,-0.7,0.2,0.005,-0.001,-0.003,1023
2018,5,17,22,18,58.904,0.2441,-0.5016,-0.6459,-0.5209,-1.1,-0.5,0,-0.001,0.001,-0.005,1023
2018,5,17,22,18,58.923,0.2439,-0.5017,-0.6458,-0.5211,-2.2,-0.3,-0.3,-0.007,0.009,-0.006,1023
2018,5,17,22,18,58.946,0.2438,-0.5018,-0.6454,-0.5215,-3.6,-0.7,-0.8,-0.009,0.006,-0.003,1023
2018,5,17,22,18,58.983,0.2435,-0.5021,-0.645,-0.5218,-3.4,-0.7,-0.8,-0.006,0.002,0.001,1023
2018,5,17,22,18,59.005,0.2433,-0.5023,-0.6447,-0.5221,-1.4,-0.4,-0.3,-0.005,0,0.007,1023
2018,5,17,22,18,59.01,0.2434,-0.5023,-0.6447,-0.5221,1,-0.1,0.2,-0.002,0,-0.002,1023
2018,5,17,22,18,59.024,0.2435,-0.5022,-0.6449,-0.522,1.6,-0.2,0.1,-0.004,0,-0.009,1023
2018,5,17,22,18,59.042,0.2435,-0.5022,-0.645,-0.5218,0.6,-0.5,-0.1,-0.003,0,-0.011,1023
2018,5,17,22,18,59.065,0.2437,-0.5021,-0.6449,-0.5219,-1.1,-0.6,-0.3,-0.002,0.004,-0.01,1023
2018,5,17,22,18,59.086,0.2434,-0.5023,-0.6448,-0.522,-2.6,-0.6,-0.1,-0.001,0,-0.005,1023
2018,5,17,22,18,59.104,0.2432,-0.5025,-0.6445,-0.5223,-2.9,-0.6,0,-0.009,0.003,-0.003,1023
2018,5,17,22,18,59.124,0.2431,-0.5024,-0.6441,-0.5228,-2.8,-0.7,0,-0.005,0.002,-0.004,1023
2018,5,17,22,18,59.16,0.2429,-0.5025,-0.6439,-0.5232,-2.8,-0.6,0.3,-0.004,0.002,0.001,1023
2018,5,17,22,18,59.184,0.2428,-0.5025,-0.6436,-0.5235,-1.9,-0.7,0.6,-0.003,-0.004,0.002,1023
2018,5,17,22,18,59.188,0.2426,-0.5024,-0.6436,-0.5238,-1.1,-0.7,1,-0.008,-0.002,0.002,1023
2018,5,17,22,18,59.225,0.2425,-0.5023,-0.6435,-0.524,-1.7,-0.9,0.8,-0.01,0.005,0.001,1023
2018,5,17,22,18,59.248,0.2423,-0.5022,-0.6433,-0.5244,-2.7,-0.9,0.6,-0.009,0.007,-0.001,1023
2018,5,17,22,18,59.253,0.2421,-0.5022,-0.643,-0.5249,-3,-0.7,0.7,-0.008,0.006,-0.004,0
2018,5,17,22,18,59.269,0.2418,-0.5021,-0.6428,-0.5253,-2.5,-0.4,0.7,-0.005,0.006,0,0
2018,5,17,22,18,59.287,0.2416,-0.502,-0.6427,-0.5257,-1.8,0,0.8,-0.004,0.002,0.003,0
2018,5,17,22,18,59.306,0.2415,-0.502,-0.6426,-0.5259,-0.7,0.6,0.6,0,-0.002,-0.002,0
2018,5,17,22,18,59.324,0.2415,-0.5019,-0.6426,-0.526,0.4,0.4,0.7,-0.001,-0.003,0.003,0
2018,5,17,22,18,59.347,0.2414,-0.5019,-0.6428,-0.5258,1,0.1,0.4,-0.002,0,0,0
2018,5,17,22,18,59.366,0.2414,-0.5018,-0.6429,-0.5257,0.8,-0.1,0.2,-0.001,0.009,-0.007,0
2018,5,17,22,18,59.388,0.2413,-0.5018,-0.643,-0.5257,0,0,0,0,0.009,-0.006,0
2018,5,17,22,18,59.407,0.2413,-0.5018,-0.643,-0.5257,0,0,0,-0.001,0.004,-0.004,0
2018,5,17,22,18,59.429,0.2413,-0.5018,-0.643,-0.5257,0.2,-0.3,0.5,-0.004,0.003,-0.001,0
2018,5,17,22,18,59.449,0.2413,-0.5017,-0.643,-0.5257,0.2,-0.5,0.4,-0.005,0.003,-0.001,0
2018,5,17,22,18,59.472,0.2414,-0.5016,-0.643,-0.5258,-0.3,-0.7,0.2,-0.002,0,-0.004,0
2018,5,17,22,18,59.49,0.2414,-0.5014,-0.643,-0.526,-1.2,-0.9,0.4,0,0.001,-0.01,0
2018,5,17,22,18,59.509,0.2412,-0.5015,-0.6429,-0.5262,-2.2,-0.7,0.3,-0.001,0.003,-0.003,0
2018,5,17,22,18,59.525,0.2412,-0.5013,-0.6426,-0.5267,-3,-1,0.4,-0.002,0,-0.001,0
2018,5,17,22,18,59.548,0.2409,-0.5014,-0.6423,-0.5272,-3.4,-1.1,0.2,-0.003,0,0.003,0
2018,5,17,22,18,59.567,0.2408,-0.5013,-0.6419,-0.5278,-3.4,-0.9,0.1,-0.003,0.005,0.003,0
2018,5,17,22,18,59.59,0.2406,-0.5014,-0.6415,-0.5282,-2.6,-0.9,-0.3,-0.005,0,0.008,0
2018,5,17,22,18,59.608,0.2406,-0.5014,-0.6413,-0.5285,-0.7,-0.7,-0.3,-0.009,-0.003,0.007,0
2018,5,17,22,18,59.631,0.2407,-0.5013,-0.6412,-0.5285,0.7,-0.3,-0.1,-0.01,0.005,-0.001,1023
2018,5,17,22,18,59.647,0.2409,-0.5013,-0.6413,-0.5285,1.1,-0.2,0,-0.01,0.002,0.002,1023
2018,5,17,22,18,59.672,0.241,-0.5013,-0.6414,-0.5283,1.2,-0.3,0.2,-0.006,-0.001,-0.006,1023
2018,5,17,22,18,59.69,0.2409,-0.5013,-0.6416,-0.5281,0.5,0,0.1,0,0.001,-0.005,1023
2018,5,17,22,18,59.712,0.2409,-0.5013,-0.6415,-0.5281,-1.4,0,-0.4,-0.006,0.009,-0.005,1023
2018,5,17,22,18,59.747,0.2406,-0.5015,-0.6413,-0.5284,-3.7,-0.4,-0.6,-0.005,0.01,-0.002,1023
2018,5,17,22,18,59.769,0.2403,-0.5017,-0.6408,-0.5289,-3.7,-0.2,-0.4,-0.004,0.005,0.003,1023
2018,5,17,22,18,59.774,0.24,-0.5019,-0.6406,-0.5292,-1.7,0.1,0.2,-0.005,0.002,0.008,1023
2018,5,17,22,18,59.789,0.2399,-0.5018,-0.6406,-0.5292,1.1,0.4,0.9,-0.008,0.002,0.006,1023
2018,5,17,22,18,59.81,0.2399,-0.5017,-0.6409,-0.529,2.4,0.1,1,-0.009,0.003,-0.003,1023
2018,5,17,22,18,59.846,0.24,-0.5015,-0.6412,-0.5287,1.8,0.3,0.7,-0.008,0.001,-0.01,1023
2018,5,17,22,18,59.869,0.2399,-0.5015,-0.6415,-0.5284,1.4,0.8,0.4,-0.004,0.002,-0.008,1023
2018,5,17,22,18,59.874,0.2398,-0.5016,-0.6417,-0.5281,1.2,1.2,0.2,-0.001,0.002,-0.009,1023
2018,5,17,22,18,59.889,0.2398,-0.5016,-0.6419,-0.5279,1.5,1.7,-0.3,0.001,0.001,0,1023
2018,5,17,22,18,59.912,0.2398,-0.5017,-0.6421,-0.5275,2,1.3,-0.3,-0.003,0.001,0,1023
2018,5,17,22,18,59.93,0.2399,-0.5017,-0.6423,-0.5272,2.5,1,0,0,0.004,0.004,1023
2018,5,17,22,18,59.953,0.2401,-0.5016,-0.6426,-0.5268,3.4,0.9,0,0.001,0.001,0.003,1023
2018,5,17,22,18,59.972,0.2404,-0.5016,-0.643,-0.5263,3.8,0.6,-0.4,0,0.001,-0.004,0
2018,5,17,22,18,59.995,0.2405,-0.5016,-0.6433,-0.5258,2.5,0.4,-0.6,0,0.007,-0.004,0
2018,5,17,22,19,0.014,0.2408,-0.5016,-0.6434,-0.5256,1,0.2,-0.5,-0.008,0.006,-0.009,0
2018,5,17,22,19,0.032,0.2409,-0.5016,-0.6434,-0.5256,0,0.2,-0.5,-0.006,0.005,0,0
2018,5,17,22,19,0.055,0.2409,-0.5016,-0.6434,-0.5256,0,0,0,-0.007,0.002,-0.002,0
2018,5,17,22,19,0.073,0.241,-0.5016,-0.6434,-0.5256,0,0,0,-0.009,0.002,0,0
2018,5,17,22,19,0.09,0.241,-0.5016,-0.6434,-0.5255,0.7,0.5,-0.1,-0.004,0,0.006,0
2018,5,17,22,19,0.113,0.2411,-0.5016,-0.6435,-0.5254,1.2,0.7,-0.5,-0.004,0,0.005,0
2018,5,17,22,19,0.148,0.2413,-0.5016,-0.6436,-0.5252,2.2,1.1,-0.4,-0.002,-0.001,0.002,0
2018,5,17,22,19,0.171,0.2415,-0.5016,-0.6438,-0.5248,3.2,1.2,-0.4,-0.005,0.001,0.001,0
2018,5,17,22,19,0.176,0.2417,-0.5016,-0.6441,-0.5243,3.5,1.2,-0.7,-0.005,0,0.006,0
2018,5,17,22,19,0.193,0.2419,-0.5018,-0.6444,-0.5237,4,1.3,-0.6,-0.003,0.002,0.001,0
2018,5,17,22,19,0.215,0.2423,-0.5017,-0.6447,-0.5232,4.2,1.4,-0.6,0,0.004,-0.002,0
2018,5,17,22,19,0.251,0.2426,-0.5017,-0.6451,-0.5226,4.5,1.4,-0.6,-0.004,0.001,-0.005,0
2018,5,17,22,19,0.273,0.2428,-0.5017,-0.6456,-0.5218,4,0.9,-0.4,-0.003,0.002,-0.008,0
2018,5,17,22,19,0.277,0.243,-0.5018,-0.646,-0.5212,3.5,0.6,-0.6,-0.005,0.001,-0.002,0
2018,5,17,22,19,0.295,0.2432,-0.5018,-0.6463,-0.5208,2.4,0.4,-0.5,-0.005,0,-0.006,0
2018,5,17,22,19,0.312,0.2433,-0.5019,-0.6464,-0.5204,1.7,0.4,-0.6,-0.005,0.004,-0.007,0
2018,5,17,22,19,0.335,0.2434,-0.502,-0.6466,-0.5201,1.4,0.1,-0.3,-0.006,0.001,-0.011,0
2018,5,17,22,19,0.353,0.2436,-0.502,-0.6467,-0.5199,1,0.1,-0.3,-0.001,0.003,-0.005,0
2018,5,17,22,19,0.377,0.2436,-0.5021,-0.6467,-0.5198,0.8,0.4,-0.4,-0.001,0.004,0.003,0
2018,5,17,22,19,0.395,0.2436,-0.5022,-0.6468,-0.5196,0.9,0.1,-0.6,-0.003,0.002,0.002,0
2018,5,17,22,19,0.417,0.2439,-0.5021,-0.6468,-0.5195,1.4,-0.1,-0.4,-0.005,-0.001,0.003,0
2018,5,17,22,19,0.435,0.244,-0.5021,-0.6469,-0.5193,2.3,0.1,-0.3,-0.003,0.001,0.004,1023
2018,5,17,22,19,0.456,0.2442,-0.5022,-0.6471,-0.5189,2.6,0.4,-0.8,-0.001,0,-0.001,1023
2018,5,17,22,19,0.474,0.2445,-0.5022,-0.6473,-0.5184,2.8,0.6,-0.7,-0.004,-0.002,0,1023
2018,5,17,22,19,0.497,0.2448,-0.5022,-0.6475,-0.518,2.6,0.6,-0.8,-0.007,0.003,0.001,1023
2018,5,17,22,19,0.514,0.2452,-0.5021,-0.6476,-0.5179,1.5,0.6,-0.9,-0.011,0.008,-0.003,1023
2018,5,17,22,19,0.532,0.2453,-0.5023,-0.6476,-0.5177,0.8,0.6,-1.1,-0.008,0.007,0.001,1023
2018,5,17,22,19,0.555,0.2454,-0.5025,-0.6476,-0.5174,1.7,0.7,-0.9,-0.008,-0.003,0.004,1023
2018,5,17,22,19,0.574,0.2458,-0.5024,-0.6478,-0.5171,4.2,1.1,-0.3,-0.007,-0.003,0.003,1023
2018,5,17,22,19,0.597,0.2462,-0.5023,-0.6482,-0.5164,5.6,1,-0.1,-0.004,-0.003,-0.002,1023
2018,5,17,22,19,0.615,0.2466,-0.5022,-0.6488,-0.5156,5.1,0.6,-0.2,-0.003,-0.005,-0.01,1023
2018,5,17,22,19,0.635,0.2469,-0.5022,-0.6492,-0.515,3.4,0.3,-0.4,0,0.001,-0.013,1023
2018,5,17,22,19,0.672,0.2471,-0.5021,-0.6494,-0.5147,0.9,-0.3,-0.4,-0.001,0.004,-0.011,1023
2018,5,17,22,19,0.694,0.247,-0.5022,-0.6494,-0.5146,-1.2,-0.5,-0.3,0.001,0.006,-0.004,1023
2018,5,17,22,19,0.699,0.2469,-0.5023,-0.6492,-0.5149,-3.1,-0.5,-0.2,0.001,0.003,-0.006,1023
2018,5,17,22,19,0.734,0.2467,-0.5024,-0.6488,-0.5154,-3.3,-0.8,-0.2,0,0.001,0.001,1023
2018,5,17,22,19,0.757,0.2466,-0.5024,-0.6485,-0.5158,-2.9,-1,0,-0.007,0,0,1023
2018,5,17,22,19,0.762,0.2465,-0.5024,-0.6482,-0.5162,-1.7,-1,0.7,-0.004,-0.003,0.002,1023
2018,5,17,22,19,0.796,0.2465,-0.5022,-0.648,-0.5166,-1.4,-1,0.6,-0.006,0.004,0.001,1023
2018,5,17,22,19,0.819,0.2464,-0.5021,-0.6478,-0.517,-2.9,-1.3,0.6,-0.009,0.003,-0.002,1023
2018,5,17,22,19,0.824,0.2464,-0.502,-0.6474,-0.5177,-4,-1.4,0.6,-0.011,0.007,-0.002,1023
2018,5,17,22,19,0.839,0.2462,-0.5018,-0.647,-0.5184,-3.4,-1.2,0.9,-0.007,0.004,0,1023
2018,5,17,22,19,0.856,0.2461,-0.5017,-0.6468,-0.5189,-1.8,-0.6,1,-0.006,-0.001,0,0
2018,5,17,22,19,0.879,0.246,-0.5016,-0.6467,-0.5191,-0.6,-0.2,0.9,-0.002,-0.002,0.001,0
2018,5,17,22,19,0.899,0.2459,-0.5016,-0.6467,-0.5191,0,0,0,-0.001,-0.001,-0.002,0
2018,5,17,22,19,0.918,0.2459,-0.5016,-0.6467,-0.5192,-0.6,-0.3,0,-0.003,0.001,-0.004,0
2018,5,17,22,19,0.957,0.2459,-0.5016,-0.6466,-0.5193,-0.7,-0.3,-0.4,0.001,0.001,-0.01,0
2018,5,17,22,19,0.98,0.2459,-0.5017,-0.6465,-0.5194,-0.9,-0.3,-0.4,0,0,-0.003,0
2018,5,17,22,19,0.985,0.2459,-0.5017,-0.6463,-0.5196,-0.9,-0.3,0,0,0.001,-0.004,0
2018,5,17,22,19,1,0.2459,-0.5017,-0.6462,-0.5197,-1.1,-0.6,0,-0.004,0.001,-0.003,0
2018,5,17,22,19,1.037,0.2458,-0.5017,-0.646,-0.5199,-1.8,-1,0,-0.003,0.001,0,0
2018,5,17,22,19,1.061,0.2458,-0.5016,-0.6458,-0.5204,-2.5,-1.3,0.2,-0.006,0.003,-0.005,0
2018,5,17,22,19,1.065,0.2455,-0.5017,-0.6456,-0.5207,-2.8,-1.3,0.1,-0.003,0.005,-0.007,0
2018,5,17,22,19,1.079,0.2453,-0.5017,-0.6453,-0.5211,-3.4,-1.1,0.2,0.001,0.002,-0.001,0
2018,5,17,22,19,1.118,0.2449,-0.5018,-0.645,-0.5215,-3.4,-0.8,0.2,-0.004,-0.002,0,0
2018,5,17,22,19,1.141,0.2447,-0.5019,-0.6447,-0.5219,-2.4,-0.6,0.3,-0.007,0.001,0.009,0
2018,5,17,22,19,1.145,0.2445,-0.5019,-0.6445,-0.5222,-1.8,-0.7,0.3,-0.003,0.004,0.007,0
2018,5,17,22,19,1.162,0.2445,-0.5017,-0.6443,-0.5226,-1.3,-1,0.5,-0.008,0.002,0.004,0
2018,5,17,22,19,1.179,0.2446,-0.5016,-0.6441,-0.523,-1.1,-0.8,0.6,-0.004,0.001,0.004,0
2018,5,17,22,19,1.203,0.2445,-0.5015,-0.644,-0.5232,-1.2,-0.4,0.5,-0.006,-0.002,-0.005,0
2018,5,17,22,19,1.221,0.2444,-0.5015,-0.644,-0.5232,-0.3,-0.4,0.9,-0.005,-0.005,-0.003,0
2018,5,17,22,19,1.242,0.2444,-0.5015,-0.6441,-0.5233,-0.5,-0.5,0.7,-0.005,0.002,-0.002,0
2018,5,17,22,19,1.281,0.2443,-0.5014,-0.6439,-0.5236,-2.5,-0.6,0,-0.005,0.011,-0.007,1023
2018,5,17,22,19,1.285,0.2439,-0.5015,-0.6436,-0.524,-4.7,-0.4,-0.4,-0.002,0.005,-0.004,1023
2018,5,17,22,19,1.302,0.2436,-0.5017,-0.6431,-0.5246,-4.3,-0.4,-0.1,-0.009,0.002,0.002,1023
2018,5,17,22,19,1.338,0.2434,-0.5017,-0.6427,-0.5251,-2.2,-0.8,0.6,-0.008,0.003,0.008,1023
2018,5,17,22,19,1.359,0.2432,-0.5017,-0.6427,-0.5253,-0.5,-0.7,1.1,-0.005,0.002,-0.001,1023
2018,5,17,22,19,1.364,0.2432,-0.5014,-0.6427,-0.5255,-0.3,-0.6,1,0,0,-0.007,1023
2018,5,17,22,19,1.381,0.2433,-0.5012,-0.6427,-0.5257,-0.9,-0.6,0.7,0,0,-0.009,1023
2018,5,17,22,19,1.404,0.2432,-0.5011,-0.6426,-0.5259,-2,-0.4,0.2,-0.002,0.003,-0.012,1023
2018,5,17,22,19,1.423,0.2431,-0.5012,-0.6424,-0.5262,-2.7,-0.3,0.1,-0.002,0.001,-0.003,1023
2018,5,17,22,19,1.446,0.2428,-0.5014,-0.6421,-0.5265,-2.8,-0.2,-0.1,-0.001,0.003,0,1023
2018,5,17,22,19,1.466,0.2425,-0.5015,-0.6419,-0.5268,-2.4,-0.3,-0.1,-0.001,0.006,0.003,1023
2018,5,17,22,19,1.483,0.2424,-0.5015,-0.6416,-0.5271,-1.8,-0.3,0,-0.006,0,0,1023
2018,5,17,22,19,1.506,0.2422,-0.5015,-0.6415,-0.5273,-0.6,-0.4,0.4,-0.004,0,0.005,1023
2018,5,17,22,19,1.524,0.2423,-0.5015,-0.6415,-0.5274,-0.2,-0.5,0.2,-0.001,0.004,-0.001,1023
2018,5,17,22,19,1.547,0.2422,-0.5015,-0.6415,-0.5274,-1,-0.6,-0.1,-0.003,0.001,-0.002,1023
2018,5,17,22,19,1.565,0.2421,-0.5015,-0.6413,-0.5276,-2,-0.6,-0.3,-0.007,0.007,-0.003,1023
2018,5,17,22,19,1.587,0.2419,-0.5017,-0.6411,-0.5279,-2.7,-0.4,-0.3,-0.007,0.002,-0.003,1023
2018,5,17,22,19,1.604,0.2415,-0.5019,-0.6409,-0.528,-1.8,-0.1,-0.1,-0.005,0.002,-0.001,1023
2018,5,17,22,19,1.622,0.2415,-0.5019,-0.6407,-0.5282,-0.9,0.1,0,-0.007,0.003,0.004,1023
2018,5,17,22,19,1.645,0.2416,-0.5018,-0.6407,-0.5284,0,0,0,-0.002,0.001,0.004,1023
2018,5,17,22,19,1.665,0.2416,-0.5018,-0.6406,-0.5284,0,0,0,-0.006,0.001,0,0
2018,5,17,22,19,1.688,0.2417,-0.5018,-0.6406,-0.5284,0,0,0,-0.007,0,-0.002,0
2018,5,17,22,19,1.706,0.2417,-0.5018,-0.6406,-0.5284,0,0,0,-0.003,0.002,-0.003,0
2018,5,17,22,19,1.725,0.2416,-0.5019,-0.6406,-0.5284,0,0,0,-0.003,0,-0.002,0
2018,5,17,22,19,1.748,0.2417,-0.5019,-0.6406,-0.5284,0,0,0,-0.004,0.003,-0.004,0
2018,5,17,22,19,1.785,0.2416,-0.5019,-0.6406,-0.5284,0,0,0,-0.005,0.003,-0.002,0
2018,5,17,22,19,1.808,0.2416,-0.5019,-0.6406,-0.5284,-0.5,0.1,0,-0.004,0.003,-0.003,0
2018,5,17,22,19,1.813,0.2416,-0.5019,-0.6406,-0.5284,-0.6,0,0.1,-0.006,0.001,-0.005,0
2018,5,17,22,19,1.827,0.2416,-0.5018,-0.6405,-0.5286,-1,0,0.2,-0.005,0.001,0,0
2018,5,17,22,19,1.845,0.2415,-0.5018,-0.6404,-0.5288,-1.2,-0.3,0.4,-0.005,0,0.001,0
2018,5,17,22,19,1.865,0.2414,-0.5017,-0.6403,-0.529,-1.4,-0.4,0.6,-0.006,0.003,-0.001,0
2018,5,17,22,19,1.884,0.2413,-0.5016,-0.6402,-0.5292,-1.1,-0.4,0.4,-0.004,0.003,-0.007,0
2018,5,17,22,19,1.907,0.2412,-0.5016,-0.6401,-0.5294,-1.1,-0.1,0.3,-0.003,0.004,-0.005,0
2018,5,17,22,19,1.925,0.241,-0.5016,-0.6401,-0.5295,-1.2,0,0.1,-0.003,0.006,-0.001,0
2018,5,17,22,19,1.948,0.2408,-0.5017,-0.64,-0.5296,-1.2,0.1,0.4,-0.007,0.004,0,0
2018,5,17,22,19,1.984,0.2406,-0.5017,-0.64,-0.5297,0,0,0,-0.004,0.004,0.001,0
2018,5,17,22,19,2.007,0.2406,-0.5017,-0.64,-0.5297,0.8,0.3,0.4,-0.002,0,0.006,0
2018,5,17,22,19,2.012,0.2407,-0.5016,-0.6402,-0.5295,1.9,0.4,0.2,-0.008,0.003,0.002,0
2018,5,17,22,19,2.028,0.2409,-0.5015,-0.6404,-0.5293,2.4,0.9,0.1,-0.007,0,-0.002,1023
2018,5,17,22,19,2.051,0.2411,-0.5014,-0.6406,-0.529,2.4,1.4,0.2,-0.001,0,-0.003,1023
2018,5,17,22,19,2.067,0.241,-0.5015,-0.641,-0.5285,2.4,1.1,0,0.001,0,0,1023
2018,5,17,22,19,2.085,0.2411,-0.5016,-0.6413,-0.5281,1.5,0.9,-0.6,0,0.004,-0.004,1023
2018,5,17,22,19,2.108,0.2411,-0.5016,-0.6413,-0.528,-0.4,0.3,-1.1,-0.001,0.007,-0.001,1023
2018,5,17,22,19,2.126,0.2411,-0.5018,-0.6411,-0.5281,-1.5,0.3,-1.1,-0.007,0.004,-0.002,1023
2018,5,17,22,19,2.149,0.241,-0.5019,-0.6409,-0.5282,-0.5,0.1,-0.3,-0.004,0.008,0.005,1023
2018,5,17,22,19,2.186,0.2411,-0.5019,-0.6409,-0.5282,1.5,0.2,0.2,-0.008,0.005,0.006,1023
2018,5,17,22,19,2.209,0.2412,-0.5017,-0.6412,-0.528,2.9,0.3,0.5,-0.007,0,-0.005,1023
2018,5,17,22,19,2.213,0.2414,-0.5016,-0.6415,-0.5276,2.8,0.4,0.4,-0.005,0,-0.004,1023
2018,5,17,22,19,2.23,0.2417,-0.5014,-0.6418,-0.5273,1.9,0.5,0.2,-0.004,-0.001,-0.004,1023
2018,5,17,22,19,2.252,0.2417,-0.5015,-0.642,-0.5271,0.6,0.5,-0.2,-0.004,0.001,-0.004,1023
2018,5,17,22,19,2.289,0.2416,-0.5016,-0.642,-0.5269,0,0.9,-0.6,-0.004,0,-0.001,1023
2018,5,17,22,19,2.312,0.2416,-0.5018,-0.6419,-0.5268,-0.1,0.8,-0.8,0,0.004,0.001,1023
2018,5,17,22,19,2.317,0.2415,-0.502,-0.642,-0.5267,0.6,1,-0.6,-0.004,-0.001,0,1023
2018,5,17,22,19,2.331,0.2416,-0.502,-0.6421,-0.5264,1.9,0.9,-0.3,0,0,0.002,1023
2018,5,17,22,19,2.354,0.2417,-0.5021,-0.6423,-0.5261,2.6,0.9,-0.6,0,0.005,0.002,1023
2018,5,17,22,19,2.39,0.2418,-0.5021,-0.6425,-0.5257,1.7,0.6,-0.6,-0.005,0.009,-0.001,0
2018,5,17,22,19,2.39,0.2419,-0.5022,-0.6426,-0.5255,1,0.6,-0.8,-0.004,0.007,-0.003,0
2018,5,17,22,19,2.411,0.2419,-0.5023,-0.6426,-0.5254,0.9,0.8,-0.8,-0.005,0.004,-0.003,0
2018,5,17,22,19,2.452,0.2422,-0.5022,-0.6427,-0.5252,2.1,1.2,-0.4,-0.008,0.002,0.005,0
2018,5,17,22,19,2.454,0.2423,-0.5023,-0.643,-0.5247,3.5,1.2,-0.3,-0.009,-0.001,0.004,0
2018,5,17,22,19,2.489,0.2426,-0.5023,-0.6433,-0.5243,3.5,1,-0.3,0,-0.001,0,0
2018,5,17,22,19,2.512,0.2429,-0.5022,-0.6436,-0.5238,3.2,0.7,-0.3,0,0,-0.004,0
2018,5,17,22,19,2.517,0.243,-0.5023,-0.6439,-0.5233,2.5,0.9,-0.7,-0.001,0.002,-0.005,0
2018,5,17,22,19,2.533,0.243,-0.5025,-0.6441,-0.5228,2.2,0.9,-0.9,-0.002,-0.005,-0.004,0
2018,5,17,22,19,2.556,0.2432,-0.5026,-0.6443,-0.5224,2.4,0.9,-0.7,-0.005,0.001,-0.007,0
2018,5,17,22,19,2.591,0.2432,-0.5028,-0.6446,-0.5219,1.8,0.9,-0.6,-0.006,0.004,-0.002,0
2018,5,17,22,19,2.591,0.2434,-0.5028,-0.6447,-0.5217,1.3,0.6,-0.5,-0.004,0.005,-0.002,0
2018,5,17,22,19,2.613,0.2435,-0.5029,-0.6448,-0.5215,1.3,0.4,-0.4,-0.006,0.004,-0.004,0
2018,5,17,22,19,2.629,0.2436,-0.5029,-0.6449,-0.5213,1.4,0.5,-0.1,-0.005,0,-0.002,0
2018,5,17,22,19,2.652,0.2436,-0.503,-0.6451,-0.521,1.3,0.3,0,-0.005,0.002,-0.001,0
2018,5,17,22,19,2.689,0.2438,-0.5028,-0.6451,-0.5209,0.9,0.2,0,-0.006,0.003,-0.002,0
2018,5,17,22,19,2.712,0.2439,-0.5028,-0.6452,-0.5209,0.5,0.3,0,-0.005,0.001,-0.006,0
2018,5,17,22,19,2.717,0.2439,-0.5028,-0.6452,-0.5208,0.4,0.6,-0.1,-0.004,0.004,-0.001,0
2018,5,17,22,19,2.734,0.2439,-0.5028,-0.6452,-0.5208,0.6,0.6,0,-0.004,0.003,0,0
2018,5,17,22,19,2.753,0.2439,-0.5028,-0.6453,-0.5207,1,0.6,0.2,-0.005,-0.001,0.004,0
2018,5,17,22,19,2.776,0.244,-0.5028,-0.6454,-0.5205,1.4,0.7,-0.1,-0.003,0.001,0.001,0
2018,5,17,22,19,2.794,0.2442,-0.5028,-0.6455,-0.5203,1.6,0.9,-0.7,0.004,0.001,0,0
2018,5,17,22,19,2.817,0.2443,-0.5029,-0.6456,-0.52,2.5,0.7,-0.8,0.004,-0.007,0.003,0
2018,5,17,22,19,2.835,0.2445,-0.503,-0.6459,-0.5194,3.6,0.8,-0.4,-0.001,-0.004,0,0
2018,5,17,22,19,2.855,0.2447,-0.503,-0.6463,-0.5188,3.3,0.5,-0.4,-0.003,0.002,-0.002,0
2018,5,17,22,19,2.873,0.2449,-0.503,-0.6465,-0.5185,1.8,0,-0.6,-0.003,0.001,-0.008,1023
2018,5,17,22,19,2.896,0.245,-0.503,-0.6466,-0.5183,0.1,-0.1,-0.5,-0.005,0.003,-0.005,1023
2018,5,17,22,19,2.912,0.2449,-0.5031,-0.6465,-0.5184,-2.1,-0.3,-0.4,-0.007,0.005,-0.006,1023
2018,5,17,22,19,2.935,0.2448,-0.5032,-0.6462,-0.5188,-3.1,-0.3,0,-0.007,0.005,0.002,1023
2018,5,17,22,19,2.972,0.2446,-0.5032,-0.6459,-0.5192,-2,-0.3,0.1,-0.003,0,0.004,1023
2018,5,17,22,19,2.996,0.2446,-0.5031,-0.6457,-0.5195,-0.1,-0.1,0.7,-0.002,-0.002,0.002,1023
2018,5,17,22,19,2.999,0.2446,-0.5031,-0.6459,-0.5194,1.2,-0.1,0.9,0.001,-0.004,-0.001,1023
2018,5,17,22,19,3.017,0.2446,-0.503,-0.6461,-0.5192,0.8,-0.3,0.4,-0.001,-0.005,-0.008,1023
2018,5,17,22,19,3.053,0.2446,-0.503,-0.6461,-0.5192,-0.1,-0.6,0.1,-0.007,0.004,-0.003,1023
2018,5,17,22,19,3.073,0.2446,-0.5029,-0.646,-0.5193,-1.2,-0.4,0.1,-0.003,0.003,-0.012,1023
2018,5,17,22,19,3.079,0.2444,-0.503,-0.6459,-0.5195,-1.6,-0.6,0.3,-0.004,0.006,-0.001,1023
2018,5,17,22,19,3.095,0.2442,-0.503,-0.6458,-0.5197,-1.6,-0.3,0.6,-0.006,0.006,0,1023
2018,5,17,22,19,3.114,0.2442,-0.5028,-0.6457,-0.52,-1.1,-0.4,0.6,-0.002,0.004,0,1023
2018,5,17,22,19,3.137,0.2441,-0.5027,-0.6457,-0.5202,-0.6,-0.2,0.6,-0.003,0,0,1023
2018,5,17,22,19,3.154,0.244,-0.5027,-0.6457,-0.5203,0,-0.7,0.8,0.001,-0.002,-0.003,1023
2018,5,17,22,19,3.177,0.244,-0.5025,-0.6457,-0.5204,-0.3,-0.8,0.5,0,0.001,0.004,1023
2018,5,17,22,19,3.195,0.244,-0.5024,-0.6456,-0.5207,-2.1,-1,0.1,-0.003,0.008,-0.005,1023
2018,5,17,22,19,3.218,0.2438,-0.5025,-0.6453,-0.5211,-3.6,-0.9,-0.4,-0.001,0.005,0,1023
2018,5,17,22,19,3.254,0.2436,-0.5026,-0.6449,-0.5215,-2.9,-0.8,-0.1,-0.004,0,0.001,1023
2018,5,17,22,19,3.277,0.2434,-0.5027,-0.6447,-0.5217,-0.9,-0.5,0.1,-0.005,0,0.003,0
2018,5,17,22,19,3.282,0.2434,-0.5027,-0.6446,-0.5218,0,0,0,-0.004,-0.002,0.004,0
2018,5,17,22,19,3.298,0.2436,-0.5026,-0.6446,-0.5218,0.7,0,-0.1,-0.001,-0.004,0,0
2018,5,17,22,19,3.321,0.2437,-0.5027,-0.6447,-0.5217,0.6,-0.3,-0.4,-0.004,0,-0.003,0
2018,5,17,22,19,3.34,0.2438,-0.5027,-0.6447,-0.5216,0.5,-0.1,-0.4,-0.007,0.005,-0.002,0
2018,5,17,22,19,3.363,0.2438,-0.5027,-0.6447,-0.5216,0,0,0,-0.006,0.005,-0.005,0
2018,5,17,22,19,3.379,0.2438,-0.5027,-0.6447,-0.5216,0,0,0,-0.006,0.003,-0.011,0
2018,5,17,22,19,3.397,0.2438,-0.5027,-0.6447,-0.5215,-0.7,-0.2,0.3,-0.008,0,-0.007,0
2018,5,17,22,19,3.419,0.2438,-0.5027,-0.6446,-0.5217,-0.7,-0.4,0.6,-0.006,0.002,-0.009,0
2018,5,17,22,19,3.437,0.2436,-0.5027,-0.6446,-0.5218,-1.4,-0.6,0.8,-0.004,0.001,-0.005,0
2018,5,17,22,19,3.46,0.2434,-0.5027,-0.6445,-0.5221,-2.4,-0.8,0.6,-0.002,0,-0.002,0
2018,5,17,22,19,3.497,0.2432,-0.5026,-0.6442,-0.5225,-2.9,-0.8,0.4,-0.001,0.002,-0.001,0
2018,5,17,22,19,3.517,0.2431,-0.5024,-0.644,-0.523,-2.6,-0.9,0.7,-0.005,0.001,0.003,0
2018,5,17,22,19,3.523,0.2429,-0.5024,-0.6438,-0.5234,-1.7,-0.8,0.7,-0.003,0.005,-0.001,0
2018,5,17,22,19,3.54,0.2429,-0.5022,-0.6437,-0.5237,-1.5,-0.7,0.6,0,0.003,0.008,0
2018,5,17,22,19,3.563,0.2427,-0.5022,-0.6436,-0.524,-1.2,-0.7,0.3,0,0.002,0.001,0
2018,5,17,22,19,3.579,0.2427,-0.5022,-0.6435,-0.5241,-0.2,-0.7,0.4,-0.007,-0.001,0,0
2018,5,17,22,19,3.616,0.2427,-0.5021,-0.6435,-0.5241,0.1,-0.6,0.4,-0.006,0.002,-0.002,0
2018,5,17,22,19,3.639,0.2427,-0.5021,-0.6435,-0.5241,0,0,0,-0.003,0.004,-0.007,0
2018,5,17,22,19,3.643,0.2426,-0.5021,-0.6435,-0.5241,-0.6,0,0.3,-0.001,0.003,-0.005,0
2018,5,17,22,19,3.659,0.2424,-0.5022,-0.6435,-0.5242,-1.5,-0.3,0,-0.002,0,-0.006,0
2018,5,17,22,19,3.682,0.2421,-0.5024,-0.6433,-0.5244,-2.9,-0.6,-0.3,-0.006,0.006,0,1023
2018,5,17,22,19,3.701,0.242,-0.5024,-0.6429,-0.5249,-3.8,-0.7,-0.4,-0.007,0.004,0.002,1023
2018,5,17,22,19,3.72,0.2417,-0.5027,-0.6425,-0.5253,-2.6,-0.6,-0.4,-0.005,0,0,1023
2018,5,17,22,19,3.742,0.2418,-0.5026,-0.6423,-0.5256,0,0,0,-0.004,0.001,0,1023
2018,5,17,22,19,3.78,0.2418,-0.5026,-0.6424,-0.5253,1.8,-0.2,0.3,-0.001,0.001,-0.002,1023
2018,5,17,22,19,3.803,0.2419,-0.5025,-0.6426,-0.5252,1.2,-0.3,0.1,-0.004,0.002,-0.005,1023
2018,5,17,22,19,3.807,0.2419,-0.5026,-0.6427,-0.5251,0,0,0,-0.003,0.002,-0.008,1023
2018,5,17,22,19,3.823,0.2418,-0.5026,-0.6426,-0.5251,-0.9,-0.2,0,-0.003,0.001,-0.001,1023
2018,5,17,22,19,3.846,0.2418,-0.5026,-0.6425,-0.5253,-1.1,-0.1,0.3,-0.007,0.003,0.002,1023
2018,5,17,22,19,3.864,0.2419,-0.5024,-0.6423,-0.5257,-1.4,0,0.4,-0.004,0.005,0,1023
2018,5,17,22,19,3.881,0.2416,-0.5025,-0.6422,-0.5258,-1.6,-0.3,0.4,-0.006,0.003,-0.004,1023
2018,5,17,22,19,3.904,0.2414,-0.5025,-0.6422,-0.526,-0.7,-0.3,0.7,-0.007,-0.002,0.004,1023
2018,5,17,22,19,3.924,0.2414,-0.5024,-0.6422,-0.5261,0.2,-0.3,0.9,-0.002,0.002,0.001,1023
2018,5,17,22,19,3.941,0.2413,-0.5023,-0.6423,-0.5261,-0.3,-0.6,0.5,-0.003,0.006,-0.003,1023
2018,5,17,22,19,3.964,0.2411,-0.5023,-0.6422,-0.5263,-1.7,-0.8,0,-0.004,0.003,-0.001,1023
2018,5,17,22,19,3.982,0.2411,-0.5023,-0.642,-0.5266,-2.1,-0.9,0,-0.005,0,0.001,1023
2018,5,17,22,19,4.005,0.2409,-0.5023,-0.6418,-0.5268,-1.3,-0.4,0.2,-0.008,0.001,0,1023
2018,5,17,22,19,4.024,0.2408,-0.5023,-0.6417,-0.527,-0.6,-0.2,0.2,-0.005,0.003,0.002,1023
2018,5,17,22,19,4.063,0.2408,-0.5023,-0.6416,-0.5271,-0.6,-0.2,0.1,-0.003,0.001,0.004,1023
2018,5,17,22,19,4.063,0.2408,-0.5023,-0.6416,-0.5272,0,0,0,-0.001,0.002,0.001,1023
2018,5,17,22,19,4.086,0.2408,-0.5022,-0.6416,-0.5272,0,0,0,-0.001,0.005,0.001,1023
2018,5,17,22,19,4.121,0.2408,-0.5022,-0.6416,-0.5272,0,0,0,-0.003,0.001,-0.005,1023
2018,5,17,22,19,4.144,0.2409,-0.5022,-0.6416,-0.5272,0,0,0,-0.004,0.001,-0.003,1023
2018,5,17,22,19,4.148,0.2409,-0.5023,-0.6416,-0.5271,0.8,0.3,-0.1,-0.004,-0.002,0,0
2018,5,17,22,19,4.164,0.2409,-0.5023,-0.6417,-0.5269,1.3,0.3,0.1,-0.004,0.002,-0.001,0
2018,5,17,22,19,4.2,0.241,-0.5023,-0.6418,-0.5268,0.9,0,0,-0.008,0.004,-0.001,0
2018,5,17,22,19,4.224,0.241,-0.5022,-0.6418,-0.5268,0,0,0,-0.002,0.003,-0.001,0
2018,5,17,22,19,4.229,0.2409,-0.5024,-0.6418,-0.5267,-1.1,-0.1,-0.2,-0.001,0.001,-0.009,0
2018,5,17,22,19,4.247,0.2408,-0.5025,-0.6417,-0.5269,-1,-0.5,0,-0.005,0,-0.004,0
2018,5,17,22,19,4.264,0.2408,-0.5024,-0.6416,-0.527,-0.6,-0.5,0.2,-0.003,0,0.001,0
2018,5,17,22,19,4.287,0.2408,-0.5023,-0.6415,-0.5273,-1.1,-0.7,0.5,-0.004,0.006,0,0
2018,5,17,22,19,4.306,0.2409,-0.5021,-0.6413,-0.5277,-1.5,-0.6,0.3,-0.004,0,-0.002,0
2018,5,17,22,19,4.329,0.2409,-0.502,-0.6411,-0.528,-1.2,-0.5,0.6,-0.005,-0.002,0,0
2018,5,17,22,19,4.347,0.2408,-0.502,-0.641,-0.5282,-1,-0.2,0.9,-0.005,0.002,-0.003,0
2018,5,17,22,19,4.37,0.2405,-0.5019,-0.641,-0.5283,-1.2,-0.2,0.9,-0.006,0.01,0.002,1023
2018,5,17,22,19,4.39,0.2402,-0.5019,-0.641,-0.5285,-1.2,0,0.7,-0.008,0.007,0.002,1023
2018,5,17,22,19,4.408,0.2401,-0.5018,-0.641,-0.5287,-0.7,0.3,0.4,-0.007,0.006,0,1023
2018,5,17,22,19,4.425,0.2401,-0.5018,-0.6409,-0.5287,0.1,0.6,0,-0.004,0.002,0,1023
2018,5,17,22,19,4.448,0.2403,-0.5017,-0.641,-0.5287,1.4,0.8,0,-0.008,0.001,0.002,1023
2018,5,17,22,19,4.484,0.2405,-0.5016,-0.6411,-0.5285,2.9,1.2,-0.3,-0.002,-0.003,0,1023
2018,5,17,22,19,4.507,0.2407,-0.5017,-0.6415,-0.5279,4.3,1.7,-0.1,-0.001,-0.002,-0.001,1023
2018,5,17,22,19,4.512,0.241,-0.5016,-0.642,-0.5272,4.7,1.4,0,0,0.001,0,1023
2018,5,17,22,19,4.53,0.2411,-0.5017,-0.6424,-0.5266,3.1,1,-0.8,0,0.01,-0.006,1023
2018,5,17,22,19,4.548,0.2411,-0.5018,-0.6426,-0.5262,0.4,0.6,-1.3,0,0.011,-0.007,1023
2018,5,17,22,19,4.587,0.2411,-0.502,-0.6425,-0.5261,-0.9,0.3,-1.4,-0.004,0.005,-0.003,1023
2018,5,17,22,19,4.587,0.241,-0.5023,-0.6424,-0.5261,0.1,0.4,-0.5,-0.004,0.004,0,0
2018,5,17,22,19,4.61,0.2411,-0.5022,-0.6425,-0.5259,2.2,0.4,0.4,-0.005,-0.001,-0.003,0
2018,5,17,22,19,4.646,0.2414,-0.5021,-0.6428,-0.5257,3,0.5,0.7,-0.003,-0.001,-0.003,0
2018,5,17,22,19,4.667,0.2415,-0.502,-0.6431,-0.5253,2.8,0.6,0.6,-0.005,-0.002,-0.001,0
2018,5,17,22,19,4.67,0.2417,-0.5019,-0.6434,-0.525,1.3,0.4,0.2,-0.006,0.002,-0.007,0
2018,5,17,22,19,4.686,0.2416,-0.502,-0.6435,-0.5248,0,0.5,-0.3,-0.004,0.003,-0.004,0
2018,5,17,22,19,4.707,0.2415,-0.5021,-0.6435,-0.5247,-0.4,0.6,-0.4,-0.002,0.003,0,0
2018,5,17,22,19,4.743,0.2414,-0.5022,-0.6434,-0.5247,0,0,0,-0.003,0.006,0.002,0
2018,5,17,22,19,4.766,0.2412,-0.5023,-0.6435,-0.5246,0.7,0.6,-0.1,-0.005,0.004,0.005,0
2018,5,17,22,19,4.769,0.2413,-0.5023,-0.6436,-0.5245,2,0.4,0.2,-0.004,0.001,0.005,0
2018,5,17,22,19,4.808,0.2415,-0.5022,-0.6438,-0.5242,3,0.6,-0.1,-0.002,0.001,0,0
2018,5,17,22,19,4.829,0.2418,-0.5021,-0.6441,-0.5238,3.2,0.7,-0.6,-0.002,0.003,-0.001,0
2018,5,17,22,19,4.832,0.242,-0.5021,-0.6443,-0.5234,2.7,0.9,-0.6,-0.004,0.007,-0.002,0
2018,5,17,22,19,4.869,0.2422,-0.5021,-0.6445,-0.5231,1.7,0.7,-0.6,-0.005,0.006,-0.003,0
2018,5,17,22,19,4.892,0.2422,-0.5023,-0.6447,-0.5228,1.7,1,-0.4,-0.003,0.002,0,0
2018,5,17,22,19,4.897,0.2424,-0.5023,-0.6448,-0.5225,2.4,1,-0.4,-0.006,-0.003,0,0
2018,5,17,22,19,4.91,0.2427,-0.5023,-0.6451,-0.522,3.1,0.9,-0.4,-0.005,-0.005,0,0
2018,5,17,22,19,4.929,0.2428,-0.5024,-0.6454,-0.5214,3.1,0.6,-0.7,0,0.002,-0.001,0
2018,5,17,22,19,4.952,0.2432,-0.5024,-0.6456,-0.5211,2.7,0.6,-1.2,0,0,-0.001,0
2018,5,17,22,19,4.971,0.2433,-0.5025,-0.6458,-0.5206,2.9,0.9,-1.3,0.002,0,-0.003,0
2018,5,17,22,19,4.989,0.2437,-0.5026,-0.646,-0.52,3.4,0.9,-1.2,-0.001,0,-0.001,0
2018,5,17,22,19,5.01,0.2439,-0.5028,-0.6463,-0.5195,3,0.7,-1.7,-0.003,-0.001,-0.008,0
2018,5,17,22,19,5.048,0.2442,-0.5031,-0.6464,-0.5189,2.9,0.6,-2,-0.009,-0.004,-0.005,0
2018,5,17,22,19,5.072,0.2447,-0.5031,-0.6465,-0.5185,3.1,0.5,-1.3,-0.015,0.006,-0.002,0
2018,5,17,22,19,5.076,0.2449,-0.5031,-0.6466,-0.5184,-0.2,0,-0.5,-0.007,0.008,-0.011,0
2018,5,17,22,19,5.089,0.2448,-0.5033,-0.6464,-0.5183,-1.8,0.4,-0.6,-0.01,-0.006,-0.019,0
2018,5,17,22,19,5.126,0.2449,-0.5037,-0.6461,-0.5183,-0.3,-0.2,-1.5,-0.013,-0.026,0,0
2018,5,17,22,19,5.149,0.2453,-0.5038,-0.646,-0.5181,2.1,0.9,-2.2,0.004,0.01,-0.003,0
2018,5,17,22,19,5.154,0.2455,-0.504,-0.6461,-0.5178,0.9,1.5,-1.7,-0.004,0.009,-0.005,0
2018,5,17,22,19,5.188,0.2455,-0.5043,-0.646,-0.5177,0.2,0.4,-0.9,0.007,-0.032,-0.009,0
2018,5,17,22,19,5.211,0.2458,-0.5042,-0.6465,-0.5169,8,0.1,0.2,-0.017,0.061,0.015,0
2018,5,17,22,19,5.215,0.2453,-0.5036,-0.6469,-0.5172,-6.5,-2.1,3.2,-0.012,0.051,0.015,0
2018,5,17,22,19,5.231,0.2431,-0.5037,-0.6452,-0.5203,-34.9,-3.5,4.5,-0.058,0.005,-0.014,0
2018,5,17,22,19,5.255,0.24,-0.5044,-0.6413,-0.5259,-44.9,-6.3,4.2,-0.05,-0.164,-0.068,0
2018,5,17,22,19,5.272,0.2369,-0.5053,-0.6375,-0.531,-35.3,-4.7,0.1,-0.054,-0.151,-0.044,0
2018,5,17,22,19,5.295,0.2354,-0.5067,-0.6345,-0.5339,-19.9,-0.4,-1.8,-0.053,-0.096,-0.036,0
2018,5,17,22,19,5.312,0.2345,-0.508,-0.6331,-0.5348,-10.3,4.1,0.3,-0.064,-0.015,-0.027,0
2018,5,17,22,19,5.33,0.233,-0.5089,-0.6322,-0.5356,-13.7,5.7,2.9,-0.1,-0.019,-0.022,0
2018,5,17,22,19,5.353,0.231,-0.5097,-0.631,-0.5371,-21.1,4.1,6.8,-0.054,-0.041,-0.013,0
2018,5,17,22,19,5.39,0.2278,-0.5107,-0.6291,-0.5398,-34.2,3.2,10,-0.079,-0.094,-0.038,0
2018,5,17,22,19,5.413,0.2234,-0.5112,-0.6269,-0.5436,-32,5.3,12.8,-0.084,-0.178,-0.068,0
2018,5,17,22,19,5.418,0.219,-0.5113,-0.626,-0.5464,-20.5,8.4,16.5,-0.106,-0.136,-0.06,0
2018,5,17,22,19,5.434,0.2148,-0.5108,-0.6267,-0.5478,-11,11.4,21.2,-0.139,-0.134,-0.062,0
2018,5,17,22,19,5.452,0.2107,-0.5097,-0.6281,-0.5487,-9.2,14.7,26.3,-0.122,-0.152,-0.048,0
2018,5,17,22,19,5.473,0.2057,-0.5083,-0.6313,-0.5483,9.5,21,32.1,-0.091,-0.181,-0.051,0
2018,5,17,22,19,5.509,0.2019,-0.5064,-0.6372,-0.5445,31.5,28.1,39.7,-0.075,-0.089,-0.005,0
2018,5,17,22,19,5.509,0.1986,-0.5032,-0.6457,-0.5387,48.2,31.5,51.4,-0.133,-0.057,-0.02,0
2018,5,17,22,19,5.532,0.1948,-0.4975,-0.6567,-0.5321,50.9,31,71.4,-0.133,0.066,0.001,0
2018,5,17,22,19,5.55,0.1867,-0.4894,-0.6673,-0.5292,5,25.9,90.5,-0.225,0.099,-0.055,0
2018,5,17,22,19,5.573,0.1731,-0.4808,-0.6733,-0.5342,-64.3,14.5,105.9,-0.244,0.119,-0.116,0
2018,5,17,22,19,5.591,0.1539,-0.4713,-0.6737,-0.5479,-120.9,1.4,121.8,-0.35,0.08,-0.146,0
2018,5,17,22,19,5.615,0.1312,-0.459,-0.671,-0.5672,-144,-9.3,139.1,-0.399,0.055,-0.076,0
2018,5,17,22,19,5.631,0.106,-0.4435,-0.6668,-0.5893,-158.9,-20.4,154.1,-0.379,-0.074,-0.078,0
2018,5,17,22,19,5.654,0.08,-0.4248,-0.6619,-0.6123,-158.7,-29,166.4,-0.341,-0.159,-0.077,0
2018,5,17,22,19,5.673,0.0537,-0.4032,-0.6567,-0.6349,-157.2,-38.4,176.4,-0.353,-0.239,-0.089,0
2018,5,17,22,19,5.696,0.0275,-0.3787,-0.6509,-0.6573,-161.1,-48.3,184.9,-0.324,-0.277,-0.114,0
2018,5,17,22,19,5.731,0.0011,-0.3518,-0.6429,-0.6802,-176.1,-57.7,185.6,-0.298,-0.275,-0.142,0
2018,5,17,22,19,5.731,-0.025,-0.3233,-0.6317,-0.704,-189.9,-66.2,186,-0.267,-0.285,-0.179,1023
2018,5,17,22,19,5.754,-0.0512,-0.2926,-0.6185,-0.7274,-188.7,-72.9,193.5,-0.342,-0.289,-0.195,1023
2018,5,17,22,19,5.772,-0.0775,-0.259,-0.6051,-0.7488,-180,-82.2,208.9,-0.449,-0.343,-0.232,1023
2018,5,17,22,19,5.796,-0.105,-0.2218,-0.5925,-0.7672,-168.2,-88.9,230.2,-0.52,-0.466,-0.349,1023
2018,5,17,22,19,5.814,-0.1341,-0.1811,-0.5807,-0.7822,-161.9,-93.2,254.1,-0.619,-0.468,-0.45,1023
2018,5,17,22,19,5.834,-0.1658,-0.1365,-0.568,-0.7944,-162.9,-99.1,282.9,-0.854,-0.492,-0.559,1023
2018,5,17,22,19,5.857,-0.2006,-0.0878,-0.5542,-0.803,-164,-102.8,314.3,-1.01,-0.572,-0.693,1023
2018,5,17,22,19,5.875,-0.2386,-0.0357,-0.5378,-0.8077,-172.2,-100.3,340.6,-1.009,-0.592,-0.783,1023
2018,5,17,22,19,5.899,-0.2793,0.0181,-0.5172,-0.8087,-183.6,-91.8,359.9,-1.168,-0.611,-0.869,1023
2018,5,17,22,19,5.915,-0.3229,0.0731,-0.4924,-0.8048,-185.3,-81.3,391.6,-1.427,-0.676,-0.987,1023
2018,5,17,22,19,5.938,-0.3714,0.1282,-0.4653,-0.7931,-148.9,-64.3,436,-1.606,-0.834,-1.161,1023
2018,5,17,22,19,5.956,-0.4268,0.1789,-0.4396,-0.7697,-94.6,-28.8,476.5,-1.671,-0.737,-1.247,1023
2018,5,17,22,19,5.979,-0.489,0.2224,-0.4118,-0.736,-71.4,24.5,514.5,-1.674,-0.559,-1.355,1023
2018,5,17,22,19,6.016,-0.5571,0.2583,-0.3748,-0.6944,-72.5,94.5,563.1,-1.958,-0.619,-1.599,1023
2018,5,17,22,19,6.039,-0.6311,0.284,-0.3244,-0.6447,-51.7,189.1,599.5,-2.484,-1.397,-1.356,1023
2018,5,17,22,19,6.043,-0.7062,0.2938,-0.2611,-0.5888,-40.4,278.7,603.2,-2.616,-1.462,-1.133,1023
2018,5,17,22,19,6.057,-0.7713,0.2906,-0.1857,-0.5348,-61.5,359.8,513.6,-3.048,-1.727,-1.17,1023
2018,5,17,22,19,6.074,-0.8152,0.2829,-0.1013,-0.495,-144.9,387.3,383.7,-2.755,-2.544,-0.19,1023
2018,5,17,22,19,6.097,-0.8418,0.271,-0.0176,-0.4663,-67.3,392.6,313.9,-2.169,-2.884,0.495,1023
2018,5,17,22,19,6.115,-0.8631,0.241,0.0515,-0.4406,37.7,352.8,261.5,-1.849,-2.276,0.972,1023
2018,5,17,22,19,6.138,-0.8781,0.2097,0.1077,-0.4162,-16.2,284.6,237.2,-0.564,-1.384,0.693,1023
2018,5,17,22,19,6.156,-0.8843,0.2064,0.1593,-0.3871,-385.3,28.4,222.9,-4.237,-1.56,15.075,1023
2018,5,17,22,19,6.179,-0.8648,0.2832,0.1175,-0.3975,-330.9,-522.4,-333,-4.896,3.052,-0.498,1023
2018,5,17,22,19,6.217,-0.8522,0.2923,0.0279,-0.433,-113.7,-251,-357,3.417,2.085,-0.302,1023
2018,5,17,22,19,6.236,-0.8415,0.2975,-0.0078,-0.4507,44.9,-126.8,-154.9,2.92,0.611,-0.41,1023
2018,5,17,22,19,6.242,-0.8289,0.2936,-0.0383,-0.4744,176.8,-89.8,-200.8,0.486,-0.93,0.814,1023
2018,5,17,22,19,6.259,-0.8291,0.2574,-0.0867,-0.4886,353.4,-119.8,-125.6,-2.103,-1.101,0.717,1023
2018,5,17,22,19,6.282,-0.8293,0.2211,-0.1416,-0.4932,280.4,-179.9,-105.5,-4.489,-1.681,-0.209,1023
2018,5,17,22,19,6.301,-0.8257,0.2104,-0.1893,-0.4879,61,-245.7,-43.1,-1.983,0.107,-0.15,0
2018,5,17,22,19,6.324,-0.8051,0.241,-0.2231,-0.4938,-175.1,-258.9,-115.3,-1.243,-0.342,-0.136,0
2018,5,17,22,19,6.341,-0.7757,0.2862,-0.2416,-0.5078,-215.4,-203.5,-124.4,-0.051,-0.447,-0.004,0
2018,5,17,22,19,6.361,-0.7467,0.3184,-0.2592,-0.5231,-108.4,-172.6,-143.7,0.298,-0.323,-0.044,0
2018,5,17,22,19,6.379,-0.7211,0.3352,-0.2809,-0.5373,-54.3,-141.2,-149.8,0.309,-0.276,-0.025,0
2018,5,17,22,19,6.4,-0.6985,0.3422,-0.3034,-0.5503,3.5,-114,-163.6,-0.162,-0.269,-0.104,0
2018,5,17,22,19,6.423,-0.678,0.3396,-0.3277,-0.5634,43.3,-83.5,-166.3,-0.487,0.046,0.045,0
2018,5,17,22,19,6.441,-0.6632,0.3266,-0.3527,-0.5735,123.6,-42.6,-142.2,-0.588,0.145,0.308,1023
2018,5,17,22,19,6.46,-0.6564,0.3054,-0.3794,-0.5759,183.1,-50,-118.9,-0.69,0.423,0.042,1023
2018,5,17,22,19,6.483,-0.6507,0.2813,-0.4145,-0.5704,202.4,-89.9,-95.6,-0.417,0.323,0.014,1023
2018,5,17,22,19,6.501,-0.6428,0.2661,-0.4471,-0.5621,146.8,-125.7,-78.3,-0.259,0.44,-0.027,1023
2018,5,17,22,19,6.523,-0.6293,0.2631,-0.4754,-0.5555,56.2,-148.5,-61.9,-0.068,0.347,-0.077,1023
2018,5,17,22,19,6.56,-0.6115,0.2724,-0.4955,-0.5534,-35.1,-157.9,-45.6,-0.048,0.288,-0.203,1023
2018,5,17,22,19,6.582,-0.5891,0.2931,-0.5063,-0.5573,-125,-164.6,-42.1,-0.131,0.153,-0.331,1023
2018,5,17,22,19,6.587,-0.5614,0.3211,-0.5105,-0.5664,-169.2,-170.5,-45.8,-0.168,-0.111,-0.32,1023
2018,5,17,22,19,6.621,-0.5316,0.3498,-0.5134,-0.5755,-152.2,-175,-50.8,-0.139,-0.374,-0.284,1023
2018,5,17,22,19,6.645,-0.5022,0.3743,-0.5201,-0.5805,-99.4,-179.2,-54.6,-0.033,-0.473,-0.382,1023
2018,5,17,22,19,6.648,-0.4754,0.3931,-0.5319,-0.58,-48.6,-173.2,-61.1,0.124,-0.412,-0.541,1023
2018,5,17,22,19,6.663,-0.4505,0.4065,-0.5464,-0.577,-32.7,-158.8,-71.5,0.144,-0.335,-0.587,1023
2018,5,17,22,19,6.682,-0.4252,0.4167,-0.5593,-0.5767,-52.9,-135.9,-90.4,0.13,-0.296,-0.566,1023
2018,5,17,22,19,6.705,-0.398,0.4238,-0.5688,-0.5817,-79.6,-109,-111.4,0.11,-0.233,-0.454,1023
2018,5,17,22,19,6.724,-0.3693,0.4276,-0.5751,-0.5915,-96.2,-85.7,-126.9,0.049,-0.226,-0.356,1023
2018,5,17,22,19,6.761,-0.3407,0.4283,-0.5793,-0.6039,-97.4,-64.5,-134.8,0.005,-0.233,-0.28,1023
2018,5,17,22,19,6.784,-0.3141,0.4249,-0.5829,-0.6171,-81.4,-39.4,-140.6,-0.01,-0.239,-0.21,0
2018,5,17,22,19,6.789,-0.2904,0.4169,-0.5873,-0.6298,-59.4,-18,-146.1,0.054,-0.169,-0.087,0
2018,5,17,22,19,6.805,-0.2741,0.4004,-0.5971,-0.6386,108.2,39.8,-179.5,-0.593,-0.118,-0.041,0
2018,5,17,22,19,6.827,-0.2734,0.3716,-0.6301,-0.6245,223.8,14.5,-120.4,-0.185,1.067,-0.054,0
2018,5,17,22,19,6.848,-0.2755,0.351,-0.6556,-0.6091,143.7,4.3,-84.4,-0.209,0.232,0.048,0
2018,5,17,22,19,6.866,-0.2739,0.3372,-0.6709,-0.6008,72.3,0.7,-67.2,-0.091,0.087,-0.11,0
2018,5,17,22,19,6.889,-0.2713,0.3269,-0.6796,-0.5979,39.4,11.3,-55.3,-0.076,0.294,-0.264,0
2018,5,17,22,19,6.905,-0.2701,0.3181,-0.6845,-0.5976,19.3,23.5,-39.2,-0.08,0.381,-0.311,0
2018,5,17,22,19,6.924,-0.271,0.3106,-0.6859,-0.5996,3.8,35.6,-25.9,-0.023,0.344,-0.197,0
2018,5,17,22,19,6.947,-0.2734,0.3039,-0.6852,-0.6026,-1.1,40.6,-17.8,-0.001,0.263,-0.026,0
2018,5,17,22,19,6.965,-0.2762,0.2971,-0.6842,-0.6059,4.9,41.6,-7.5,0.031,0.17,0.046,0
2018,5,17,22,19,6.988,-0.2815,0.2913,-0.6834,-0.6072,17.3,44.9,3.8,0.036,0.116,0.006,0
2018,5,17,22,19,7.009,-0.2887,0.286,-0.6829,-0.6069,20.3,50.3,11.2,-0.009,0.049,-0.045,0
2018,5,17,22,19,7.026,-0.2969,0.2811,-0.6819,-0.6064,13.8,54.9,15.6,-0.037,0.011,-0.067,0
2018,5,17,22,19,7.049,-0.3054,0.2765,-0.6796,-0.6068,5.6,57.8,16.5,-0.086,-0.038,-0.048,1023
2018,5,17,22,19,7.065,-0.3139,0.272,-0.6763,-0.6082,3.1,57.8,14.6,-0.07,-0.036,0.014,1023
2018,5,17,22,19,7.089,-0.322,0.2671,-0.6728,-0.61,4.2,53.4,9.9,-0.032,-0.032,0.067,1023
2018,5,17,22,19,7.108,-0.3294,0.2621,-0.6697,-0.6117,7.6,48.1,3.5,0.014,-0.038,0.092,1023
2018,5,17,22,19,7.13,-0.3359,0.2564,-0.6675,-0.6129,13.4,42.5,-3.7,0.03,-0.041,0.109,1023
2018,5,17,22,19,7.145,-0.3405,0.2507,-0.6668,-0.6135,18.8,37,-10.1,0.009,-0.038,0.107,1023
2018,5,17,22,19,7.184,-0.3446,0.2443,-0.6668,-0.6138,22.7,31.1,-13.6,-0.009,-0.035,0.106,1023
2018,5,17,22,19,7.184,-0.3479,0.2378,-0.6677,-0.6135,24.5,24.7,-14.4,-0.027,-0.026,0.097,1023
2018,5,17,22,19,7.208,-0.3501,0.2324,-0.6689,-0.613,23.7,19.6,-13.7,-0.041,-0.009,0.077,1023
2018,5,17,22,19,7.225,-0.3517,0.2271,-0.6704,-0.6125,19.3,13.9,-12.2,-0.043,0.009,0.074,1023
2018,5,17,22,19,7.248,-0.3523,0.2234,-0.6713,-0.6124,8.2,7.6,-10.6,0.003,0.045,0.05,1023
2018,5,17,22,19,7.286,-0.3517,0.2214,-0.6714,-0.6134,-5.8,2,-11.2,0.019,0.054,0.026,1023
2018,5,17,22,19,7.31,-0.3498,0.2206,-0.6707,-0.6156,-15.9,-1.9,-11.5,0.022,0.048,-0.008,1023
2018,5,17,22,19,7.314,-0.3475,0.2207,-0.6695,-0.6181,-20.3,-2.9,-10.6,0.033,0.048,-0.033,1023
2018,5,17,22,19,7.33,-0.3452,0.2212,-0.6679,-0.6209,-20.9,-1.2,-8.9,0.033,0.009,-0.045,1023
2018,5,17,22,19,7.348,-0.3435,0.2217,-0.6663,-0.6234,-19.2,1.6,-7.1,0.036,0.005,-0.047,1023
2018,5,17,22,19,7.371,-0.3424,0.2219,-0.6647,-0.6257,-15.2,4.6,-5.8,0.022,0.006,-0.034,1023
2018,5,17,22,19,7.409,-0.3422,0.2216,-0.6633,-0.6274,-9.5,7.3,-3.6,0.026,-0.005,-0.015,1023
2018,5,17,22,19,7.432,-0.3427,0.2211,-0.6622,-0.6285,-5.8,9.6,-2.6,0.041,-0.025,-0.023,1023
2018,5,17,22,19,7.436,-0.3437,0.2202,-0.6613,-0.6292,-2.6,11.7,-3.1,0.032,-0.031,-0.036,1023
2018,5,17,22,19,7.453,-0.3448,0.2189,-0.6606,-0.6298,-2,13,-4.6,0.041,-0.02,-0.031,1023
2018,5,17,22,19,7.493,-0.3457,0.2173,-0.6599,-0.6306,-3.4,13.4,-7.5,0.05,-0.023,-0.021,0
2018,5,17,22,19,7.496,-0.3465,0.2153,-0.6589,-0.6319,-4.3,14.1,-10.4,0.038,-0.033,-0.01,0
2018,5,17,22,19,7.511,-0.347,0.213,-0.6579,-0.6334,-3.4,14.6,-11.6,0.024,-0.021,0.009,0
2018,5,17,22,19,7.546,-0.3475,0.2104,-0.657,-0.635,-1.3,14.2,-11.4,0.021,-0.017,0.02,0
2018,5,17,22,19,7.566,-0.3481,0.2076,-0.6565,-0.6361,3.8,13.9,-10.9,0.006,-0.013,0.029,0
2018,5,17,22,19,7.571,-0.3489,0.2045,-0.6565,-0.6366,8.4,12.8,-10.4,0.007,0.003,0.033,0
2018,5,17,22,19,7.603,-0.3495,0.2013,-0.6571,-0.6367,10.6,11.4,-9.5,-0.008,0.004,0.027,0
2018,5,17,22,19,7.624,-0.3502,0.1984,-0.6578,-0.6365,10.9,10.1,-7.2,-0.013,0.008,0.023,0
2018,5,17,22,19,7.633,-0.3509,0.1959,-0.6585,-0.6361,10.2,7.8,-4.2,-0.017,0.019,0.015,0
2018,5,17,22,19,7.652,-0.3517,0.1941,-0.6592,-0.6355,9,5.4,-0.3,-0.026,0.018,0.011,0
2018,5,17,22,19,7.674,-0.3525,0.1932,-0.6598,-0.6347,7.1,2.9,4,-0.026,0.017,0.006,1023
2018,5,17,22,19,7.71,-0.3534,0.1932,-0.6602,-0.6338,4.2,1,8.2,-0.021,0.02,-0.013,1023
2018,5,17,22,19,7.712,-0.3544,0.194,-0.6603,-0.6329,0.5,0,11.7,-0.016,0.019,-0.026,1023
2018,5,17,22,19,7.748,-0.3556,0.1956,-0.66,-0.6321,-1.5,0.1,14.6,-0.004,0.021,-0.035,1023
2018,5,17,22,19,7.769,-0.3572,0.1975,-0.6595,-0.6311,-1.5,1.4,17.3,0.005,0.012,-0.035,1023
2018,5,17,22,19,7.771,-0.3595,0.1994,-0.6589,-0.6298,1,4.2,19.2,0.022,0.008,-0.032,1023
2018,5,17,22,19,7.81,-0.3624,0.201,-0.6582,-0.6283,3.8,7.7,18.5,0.046,-0.007,-0.012,1023
2018,5,17,22,19,7.833,-0.3656,0.2019,-0.6576,-0.6268,6,10.9,15.4,0.066,-0.008,-0.005,1023
2018,5,17,22,19,7.838,-0.3691,0.2021,-0.657,-0.6254,6.5,13.5,10,0.073,-0.021,0.002,1023
2018,5,17,22,19,7.855,-0.3721,0.2014,-0.6562,-0.6246,3.4,15,5.2,0.055,-0.03,0.003,1023
2018,5,17,22,19,7.891,-0.3747,0.2003,-0.6553,-0.6244,4.1,17,1.3,0.041,-0.058,-0.026,1023
2018,5,17,22,19,7.911,-0.377,0.1989,-0.6545,-0.6243,1.9,15.8,-0.7,0.03,-0.043,-0.01,1023
2018,5,17,22,19,7.916,-0.379,0.1973,-0.6537,-0.6244,1.8,13.6,-2.8,0.029,-0.058,-0.005,1023
2018,5,17,22,19,7.952,-0.3805,0.1958,-0.6531,-0.6246,2.1,11,-4.7,0.037,-0.052,-0.004,1023
2018,5,17,22,19,7.973,-0.3812,0.1944,-0.653,-0.6248,2.9,7.1,-6.7,0.031,-0.034,-0.021,1023
2018,5,17,22,19,7.98,-0.3812,0.1932,-0.6532,-0.6249,2.6,4,-7.7,0.021,-0.01,-0.023,1023
2018,5,17,22,19,7.998,-0.3807,0.1919,-0.6536,-0.6252,0.7,2.1,-9.2,0.011,-0.005,-0.021,1023
2018,5,17,22,19,8.034,-0.3799,0.1907,-0.654,-0.6257,-0.9,1.7,-8.5,0.011,0.013,-0.022,1023
2018,5,17,22,19,8.034,-0.379,0.1896,-0.6541,-0.6264,-2.2,2.3,-7.6,0.005,0.029,-0.02,0
2018,5,17,22,19,8.057,-0.3782,0.1886,-0.654,-0.6273,-4.5,3.8,-6.8,0.006,0.045,-0.024,0
2018,5,17,22,19,8.076,-0.3776,0.1876,-0.6535,-0.6285,-8.1,5.3,-6,0.006,0.062,-0.024,0
2018,5,17,22,19,8.114,-0.377,0.1868,-0.6523,-0.6303,-13.9,7,-4.3,0.005,0.063,-0.021,0
2018,5,17,22,19,8.136,-0.3766,0.1865,-0.6503,-0.6327,-19.4,8.1,-2.3,0.003,0.061,-0.023,0
2018,5,17,22,19,8.141,-0.3765,0.1866,-0.6477,-0.6354,-23.5,8.6,-0.8,-0.005,0.021,-0.006,0
2018,5,17,22,19,8.159,-0.3768,0.1872,-0.6443,-0.6385,-23,9.2,1,0.004,0,0.004,0
2018,5,17,22,19,8.178,-0.3773,0.1878,-0.6411,-0.6412,-20.7,9,1,0.001,-0.019,0.016,0
2018,5,17,22,19,8.196,-0.3779,0.1883,-0.6383,-0.6436,-17.2,8,-0.2,0.003,-0.028,0.014,0
2018,5,17,22,19,8.219,-0.3783,0.1885,-0.636,-0.6456,-12.8,6.5,-1.4,-0.002,-0.026,0.023,0
2018,5,17,22,19,8.235,-0.3784,0.1884,-0.6342,-0.6473,-10.4,4.4,-2.6,-0.006,-0.013,0.025,0
2018,5,17,22,19,8.258,-0.3783,0.1883,-0.6328,-0.6487,-8.4,2.4,-2.9,-0.006,-0.002,0.025,0
2018,5,17,22,19,8.277,-0.3779,0.1882,-0.6317,-0.65,-6.6,0.8,-3.1,-0.003,0.007,0.024,0
2018,5,17,22,19,8.314,-0.3775,0.1881,-0.631,-0.651,-5.2,0.1,-2.6,0.001,0.022,0.018,0
2018,5,17,22,19,8.336,-0.377,0.188,-0.6305,-0.6518,-4.5,-0.1,-1.7,0.002,0.02,0.02,0
2018,5,17,22,19,8.34,-0.3768,0.1881,-0.63,-0.6524,-3.1,-0.2,-0.3,0.01,0.023,0.018,1023
2018,5,17,22,19,8.356,-0.3767,0.1883,-0.6296,-0.6527,-1.7,-0.2,1,0.011,0.017,0.013,1023
2018,5,17,22,19,8.378,-0.3768,0.1886,-0.6294,-0.6528,-0.6,-0.6,2.3,0.005,0.003,0.003,1023
2018,5,17,22,19,8.417,-0.3771,0.189,-0.6294,-0.6525,0.4,-0.9,2.9,0.012,0,0,1023
2018,5,17,22,19,8.44,-0.3774,0.1895,-0.6294,-0.6522,0.2,-0.9,2.9,0.022,-0.004,-0.007,1023
2018,5,17,22,19,8.444,-0.3777,0.1901,-0.6294,-0.6518,-0.3,-1,2.1,0.02,-0.008,-0.012,1023
2018,5,17,22,19,8.458,-0.3778,0.1906,-0.6294,-0.6516,-1.3,-0.7,1.3,0.017,-0.005,-0.02,1023
2018,5,17,22,19,8.48,-0.3778,0.1912,-0.6293,-0.6516,-3.8,-0.6,0.9,0.019,0.005,-0.028,1023
2018,5,17,22,19,8.519,-0.3775,0.1918,-0.6289,-0.6519,-7.5,-0.4,0.4,0.015,0.009,-0.031,1023
2018,5,17,22,19,8.519,-0.3771,0.1926,-0.6281,-0.6528,-11.7,0.2,0.2,0.014,0.014,-0.041,1023
2018,5,17,22,19,8.542,-0.3765,0.1935,-0.6267,-0.6541,-16.4,0.9,0.5,0.013,0.026,-0.036,1023
2018,5,17,22,19,8.558,-0.3759,0.1947,-0.6247,-0.656,-21.6,1.7,0.9,0.011,0.014,-0.019,1023
2018,5,17,22,19,8.579,-0.3756,0.1961,-0.622,-0.6583,-21.4,2.8,1.3,0.014,-0.012,-0.007,1023
2018,5,17,22,19,8.615,-0.3755,0.1973,-0.6195,-0.6604,-17.8,3.9,1,0.015,-0.014,0,1023
2018,5,17,22,19,8.637,-0.3756,0.1981,-0.6172,-0.6622,-14.4,4.2,0.3,0.015,-0.019,0.007,1023
2018,5,17,22,19,8.642,-0.3758,0.1986,-0.6153,-0.6637,-11.6,4,-0.2,0.011,-0.015,0.011,1023
2018,5,17,22,19,8.679,-0.3759,0.1989,-0.6137,-0.665,-10.2,3.2,-0.8,0.005,-0.005,0.009,0
2018,5,17,22,19,8.701,-0.3758,0.1992,-0.6123,-0.6663,-9.5,2.3,-0.8,0.009,0.001,0.01,0
2018,5,17,22,19,8.706,-0.3757,0.1995,-0.6111,-0.6675,-9,1.4,-0.3,0.01,0.004,0.016,0
2018,5,17,22,19,8.738,-0.3756,0.1999,-0.6099,-0.6685,-7.9,0.8,0.2,0.017,-0.003,0.017,0
2018,5,17,22,19,8.761,-0.3755,0.2005,-0.6089,-0.6692,-6.1,0.3,0.6,0.015,-0.012,0.019,0
2018,5,17,22,19,8.765,-0.3756,0.2009,-0.6081,-0.6697,-2.7,0.1,0.6,0.011,-0.015,0.013,0
2018,5,17,22,19,8.781,-0.3758,0.2012,-0.6078,-0.6698,0,0,0,0.01,-0.013,0.01,0
2018,5,17,22,19,8.801,-0.376,0.2012,-0.6079,-0.6696,3,-0.6,0,0.006,-0.019,0.011,0
2018,5,17,22,19,8.819,-0.3761,0.2011,-0.6084,-0.6691,5.5,-1.5,-0.2,0.006,-0.006,0.013,0
2018,5,17,22,19,8.842,-0.3762,0.2008,-0.6092,-0.6685,7.1,-2,-0.5,0.004,0.003,0.002,0
2018,5,17,22,19,8.878,-0.3761,0.2005,-0.6103,-0.6676,7.6,-2.4,-0.6,0.007,0.008,-0.002,0
2018,5,17,22,19,8.901,-0.376,0.2003,-0.6114,-0.6667,7.3,-2.3,-0.5,0.014,0.012,-0.005,0
2018,5,17,22,19,8.906,-0.3759,0.2001,-0.6124,-0.6659,5.9,-2,-0.2,0.012,0.012,-0.012,0
2018,5,17,22,19,8.924,-0.3759,0.1999,-0.6133,-0.6652,5.3,-1.5,0.1,0.011,0.014,-0.014,0
2018,5,17,22,19,8.942,-0.3759,0.1998,-0.6141,-0.6645,5.1,-0.7,0.7,0.009,0.012,-0.013,0
2018,5,17,22,19,8.965,-0.3761,0.1997,-0.6148,-0.6637,5.1,-0.4,1.2,0.015,0.005,-0.009,0
2018,5,17,22,19,8.984,-0.3764,0.1996,-0.6154,-0.663,4.7,-0.3,1.4,0.014,-0.001,-0.013,0
2018,5,17,22,19,9.007,-0.3767,0.1996,-0.6159,-0.6623,3.4,-0.3,1,0.013,-0.002,-0.008,0
2018,5,17,22,19,9.023,-0.3769,0.1997,-0.6163,-0.6619,2,-0.6,0.6,0.009,-0.002,-0.01,0
2018,5,17,22,19,9.041,-0.3769,0.1998,-0.6165,-0.6616,0.9,-0.7,0,0.01,-0.004,-0.007,1023
2018,5,17,22,19,9.064,-0.3769,0.1999,-0.6166,-0.6615,0,-0.6,-0.5,0.012,-0.002,-0.007,1023
2018,5,17,22,19,9.083,-0.3767,0.2,-0.6167,-0.6615,-0.7,-0.1,-0.9,0.009,0.001,-0.005,1023
2018,5,17,22,19,9.106,-0.3766,0.2,-0.6166,-0.6616,-0.6,0.3,-1.2,0.004,0.002,-0.002,1023
2018,5,17,22,19,9.124,-0.3764,0.1998,-0.6166,-0.6618,0,0.4,-1.1,0.002,0.01,-0.001,1023
2018,5,17,22,19,9.16,-0.3764,0.1996,-0.6167,-0.6618,0,0.7,-0.9,0.009,0.005,-0.001,1023
2018,5,17,22,19,9.183,-0.3763,0.1995,-0.6167,-0.6619,0,0.9,-0.9,0.008,0.007,-0.003,1023
2018,5,17,22,19,9.188,-0.3763,0.1993,-0.6167,-0.6619,0,0.7,-0.6,0.003,0.01,-0.001,1023
2018,5,17,22,19,9.206,-0.3763,0.1991,-0.6168,-0.6619,0.5,0.6,-0.3,0.007,0.002,-0.001,1023
2018,5,17,22,19,9.225,-0.3764,0.199,-0.6168,-0.6619,0.6,0.6,-0.2,0.012,0.005,-0.001,1023
2018,5,17,22,19,9.248,-0.3765,0.199,-0.6168,-0.6618,0.2,0.7,-0.3,0.012,0.001,0.001,1023
2018,5,17,22,19,9.267,-0.3765,0.1989,-0.6168,-0.6618,0.7,0.4,-0.4,0.009,0.002,0.003,1023
2018,5,17,22,19,9.287,-0.3766,0.1987,-0.6169,-0.6617,1.5,0.7,-0.4,0.004,0.004,0.003,1023
2018,5,17,22,19,9.306,-0.3767,0.1985,-0.6171,-0.6616,2,0.9,-0.4,0.004,0.003,-0.003,1023
2018,5,17,22,19,9.326,-0.3768,0.1983,-0.6173,-0.6614,1.7,0.7,-0.4,0.012,0.005,0.001,1023
2018,5,17,22,19,9.361,-0.3769,0.198,-0.6174,-0.6613,0.9,1,-0.5,0.013,0.005,0.001,1023
2018,5,17,22,19,9.383,-0.377,0.1979,-0.6174,-0.6613,0.7,0.7,-0.5,0.012,0.004,0.005,1023
2018,5,17,22,19,9.388,-0.3771,0.1977,-0.6175,-0.6612,1.7,0.5,-0.2,0.008,0.005,0.001,1023
2018,5,17,22,19,9.425,-0.3771,0.1975,-0.6177,-0.661,1.8,0.1,-0.1,0.008,0.007,-0.003,0
2018,5,17,22,19,9.425,-0.3772,0.1974,-0.618,-0.6608,1.3,0,-0.1,0.005,0.006,0.003,0
2018,5,17,22,19,9.447,-0.3772,0.1973,-0.6181,-0.6607,1.3,-0.4,0,0.003,0,0,0
2018,5,17,22,19,9.486,-0.3771,0.1973,-0.6184,-0.6605,2,-0.7,0,0.01,0.006,-0.005,0
2018,5,17,22,19,9.509,-0.3771,0.1972,-0.6187,-0.6602,2.5,-0.5,-0.3,0.01,0,0,0
2018,5,17,22,19,9.513,-0.3772,0.1971,-0.6191,-0.6599,3.5,-0.2,-0.3,0.01,0.004,0,0
2018,5,17,22,19,9.529,-0.3772,0.1968,-0.6195,-0.6595,3.5,0,-0.3,0.004,0.006,-0.005,0
2018,5,17,22,19,9.553,-0.3773,0.1965,-0.62,-0.6591,2.9,0.3,-0.2,0.006,0.007,0.001,0
2018,5,17,22,19,9.569,-0.3774,0.1962,-0.6203,-0.6588,2.7,0.3,-0.1,0.008,0.01,-0.001,0
2018,5,17,22,19,9.586,-0.3775,0.196,-0.6207,-0.6585,2.6,0.4,0,0.006,0.007,-0.003,0
2018,5,17,22,19,9.609,-0.3777,0.1958,-0.6209,-0.6582,2.7,0.5,0.2,0.009,0.005,0.002,0
2018,5,17,22,19,9.627,-0.3778,0.1956,-0.6212,-0.658,2.1,0.3,-0.1,0.012,0.005,0,0
2018,5,17,22,19,9.651,-0.3779,0.1955,-0.6214,-0.6578,1.4,0.1,-0.1,0.006,0.004,0,0
2018,5,17,22,19,9.67,-0.378,0.1954,-0.6215,-0.6577,1,0.1,-0.1,0.006,0.008,0,1023
2018,5,17,22,19,9.707,-0.378,0.1953,-0.6216,-0.6576,0.9,0,-0.1,0.006,0.002,0.006,1023
2018,5,17,22,19,9.729,-0.3781,0.1952,-0.6217,-0.6574,1.9,-0.2,0,0.006,0.002,0.005,1023
2018,5,17,22,19,9.734,-0.3782,0.1951,-0.622,-0.6571,3.4,-0.2,0.1,0.003,0,0.005,1023
2018,5,17,22,19,9.75,-0.3783,0.1949,-0.6225,-0.6567,4.2,-0.3,0,0.008,0.001,0.002,1023
2018,5,17,22,19,9.787,-0.3784,0.1947,-0.6229,-0.6562,4.2,-0.2,-0.1,0.012,0.007,0.001,1023
2018,5,17,22,19,9.81,-0.3785,0.1945,-0.6235,-0.6557,4.2,-0.6,-0.1,0.013,0.003,0.001,1023
2018,5,17,22,19,9.815,-0.3786,0.1943,-0.624,-0.6553,3.4,-0.4,-0.1,0.014,0.004,-0.005,1023
2018,5,17,22,19,9.829,-0.3786,0.1942,-0.6243,-0.6549,2.1,-0.4,-0.2,0.01,0.006,0,1023
2018,5,17,22,19,9.848,-0.3786,0.1941,-0.6246,-0.6547,2,-0.3,-0.1,0.008,0.003,-0.006,1023
2018,5,17,22,19,9.871,-0.3787,0.194,-0.6249,-0.6544,2.2,-0.3,0,0.01,0.006,-0.001,1023
2018,5,17,22,19,9.889,-0.3788,0.1939,-0.6251,-0.6542,2.1,0.1,-0.2,0.007,0.003,0.003,1023
2018,5,17,22,19,9.913,-0.3788,0.1937,-0.6254,-0.654,2.1,0.1,-0.3,0.008,0.004,-0.001,1023
2018,5,17,22,19,9.929,-0.3789,0.1936,-0.6257,-0.6537,2.4,0.2,-0.4,0.01,0.005,0.001,1023
2018,5,17,22,19,9.952,-0.379,0.1933,-0.626,-0.6534,3,0.1,-0.6,0.003,0.007,0,1023
2018,5,17,22,19,9.988,-0.379,0.193,-0.6264,-0.6531,4.2,0,-0.3,0.001,0.015,0.001,1023
2018,5,17,22,19,10.011,-0.3791,0.1927,-0.627,-0.6526,4.6,0,0.1,0.005,0.006,0.002,0
2018,5,17,22,19,10.016,-0.3793,0.1924,-0.6275,-0.6521,4.2,-0.1,0.4,0.002,0.006,-0.004,0
2018,5,17,22,19,10.031,-0.3794,0.1922,-0.6279,-0.6516,3.3,-0.3,0.3,0.006,0.004,0,0
2018,5,17,22,19,10.054,-0.3795,0.1921,-0.6283,-0.6512,3.3,-0.2,0.2,0.008,0,-0.002,0
2018,5,17,22,19,10.09,-0.3796,0.192,-0.6288,-0.6508,3.9,0,0,0.008,0.005,-0.004,0
2018,5,17,22,19,10.09,-0.3798,0.1917,-0.6293,-0.6503,4.8,-0.1,0,0.004,0.005,-0.004,0
2018,5,17,22,19,10.113,-0.3799,0.1913,-0.6299,-0.6497,4.6,0,0.2,0.002,0.013,-0.002,0
2018,5,17,22,19,10.131,-0.38,0.1911,-0.6304,-0.6492,2.9,0,0.6,0.005,0.018,-0.006,0
2018,5,17,22,19,10.153,-0.3801,0.191,-0.6306,-0.649,0.4,0.1,0.9,0.009,0.014,-0.006,0
2018,5,17,22,19,10.189,-0.3802,0.1911,-0.6306,-0.649,-1.2,0.3,0.7,0.011,0.014,0.001,0
2018,5,17,22,19,10.212,-0.3802,0.1912,-0.6303,-0.6491,-1.4,0.4,0.9,0.007,0.003,0.005,0
2018,5,17,22,19,10.217,-0.3804,0.1914,-0.6301,-0.6492,-0.7,0.5,1,0.009,0,0.006,0
2018,5,17,22,19,10.235,-0.3806,0.1915,-0.6299,-0.6492,-0.2,0.4,0.7,0.007,-0.002,0.008,0
2018,5,17,22,19,10.252,-0.3808,0.1915,-0.6298,-0.6492,0.7,0.4,0.4,0.003,-0.003,0.009,0
2018,5,17,22,19,10.275,-0.3809,0.1914,-0.6298,-0.6492,1,0.1,0.3,0.007,0.005,0.009,0
2018,5,17,22,19,10.297,-0.381,0.1914,-0.6298,-0.6491,0.5,-0.5,0.1,0.009,0.007,0.007,0
2018,5,17,22,19,10.313,-0.381,0.1915,-0.6298,-0.6491,0.2,-0.9,0,0.009,0.01,0.012,0
2018,5,17,22,19,10.331,-0.3809,0.1915,-0.6299,-0.6491,0.2,-1.2,0,0.01,0.01,0.005,0
2018,5,17,22,19,10.354,-0.3807,0.1916,-0.63,-0.649,0.2,-1.2,0.2,0.003,0.011,0.004,0
2018,5,17,22,19,10.373,-0.3806,0.1918,-0.6302,-0.6489,1.1,-1.5,0.9,-0.003,0.005,0.003,0
2018,5,17,22,19,10.396,-0.3807,0.192,-0.6304,-0.6486,1.8,-1.5,1.3,0.004,0.004,0.003,1023
2018,5,17,22,19,10.432,-0.3807,0.1921,-0.6307,-0.6483,2.1,-1.3,1.1,0.004,0.003,-0.003,1023
2018,5,17,22,19,10.432,-0.3807,0.1923,-0.631,-0.6479,2.4,-1.3,0.8,0.008,-0.002,-0.007,1023
2018,5,17,22,19,10.456,-0.3807,0.1924,-0.6314,-0.6474,2.4,-1.4,0.2,0.006,0,-0.005,1023
2018,5,17,22,19,10.492,-0.3807,0.1925,-0.6317,-0.6471,2.1,-1.3,0,0.014,0.008,-0.003,1023
2018,5,17,22,19,10.514,-0.3806,0.1926,-0.6321,-0.6468,1,-1.3,-0.2,0.011,0.006,-0.001,1023
2018,5,17,22,19,10.518,-0.3804,0.1927,-0.6323,-0.6466,0.7,-1.5,-0.2,0.008,0.008,-0.008,1023
2018,5,17,22,19,10.553,-0.3802,0.1928,-0.6325,-0.6465,0.1,-1,0,0.006,0.007,-0.006,1023
2018,5,17,22,19,10.574,-0.3801,0.1929,-0.6326,-0.6465,-0.2,-0.6,0.4,0.005,0.012,-0.004,1023
2018,5,17,22,19,10.576,-0.38,0.1931,-0.6326,-0.6465,-0.6,-0.4,0.4,0.008,0.01,-0.001,1023
2018,5,17,22,19,10.593,-0.38,0.1932,-0.6325,-0.6465,-0.6,0,0.5,0.006,0.003,0,1023
2018,5,17,22,19,10.613,-0.3801,0.1933,-0.6326,-0.6464,0.1,0.3,0.5,0.012,0.002,-0.001,1023
2018,5,17,22,19,10.649,-0.3802,0.1933,-0.6326,-0.6463,1.1,0.4,0.2,0.011,0,0.003,1023
2018,5,17,22,19,10.671,-0.3804,0.1932,-0.6327,-0.6462,1.9,0.7,0.2,0.008,0,0,1023
2018,5,17,22,19,10.676,-0.3806,0.193,-0.6329,-0.6459,2.4,0.9,0.2,0.01,0.001,-0.003,1023
2018,5,17,22,19,10.715,-0.3809,0.1929,-0.633,-0.6456,1.5,1,0.4,0.016,0,0,0
2018,5,17,22,19,10.738,-0.3811,0.1929,-0.633,-0.6455,0.2,1.1,0.1,0.018,0,0.002,0
2018,5,17,22,19,10.743,-0.3813,0.1928,-0.6329,-0.6455,-0.3,1.2,-0.1,0.014,0.001,0.008,0
2018,5,17,22,19,10.758,-0.3815,0.1928,-0.6327,-0.6456,-0.3,0.7,-0.6,0.013,-0.001,0.007,0
2018,5,17,22,19,10.797,-0.3815,0.1926,-0.6326,-0.6457,-0.2,0.4,-0.8,0.009,0.003,0.005,0
2018,5,17,22,19,10.797,-0.3814,0.1925,-0.6326,-0.6459,-0.5,0.1,-0.9,0.002,0.005,0.007,0
2018,5,17,22,19,10.818,-0.3813,0.1924,-0.6325,-0.646,-0.6,-0.4,-0.7,0.001,0.01,0.004,0
2018,5,17,22,19,10.835,-0.3812,0.1924,-0.6325,-0.6462,-0.2,-0.4,-0.6,0,0.009,0.007,0
2018,5,17,22,19,10.857,-0.3811,0.1923,-0.6325,-0.6462,0.6,-0.6,-0.7,0.002,0.011,0.007,0
2018,5,17,22,19,10.892,-0.381,0.1922,-0.6326,-0.6462,1.2,-0.4,-0.5,0.007,0.008,0.006,0
2018,5,17,22,19,10.913,-0.3809,0.192,-0.6328,-0.6461,1.8,-0.3,-0.4,0.004,0.008,0.002,0
2018,5,17,22,19,10.918,-0.3809,0.1919,-0.6331,-0.6459,2.3,-0.1,-0.2,0.005,0.007,0.001,0
2018,5,17,22,19,10.953,-0.3809,0.1917,-0.6333,-0.6456,2,-0.3,-0.6,0.007,0.003,-0.002,0
2018,5,17,22,19,10.976,-0.3809,0.1915,-0.6336,-0.6454,1.8,-0.2,-0.9,0.005,-0.002,-0.002,0
2018,5,17,22,19,10.98,-0.3808,0.1914,-0.6339,-0.6452,2,-0.3,-0.9,0.012,0.005,-0.003,0
2018,5,17,22,19,11.017,-0.3807,0.1912,-0.6342,-0.645,1.5,-0.3,-1.3,0.009,0.009,-0.004,0
2018,5,17,22,19,11.04,-0.3805,0.191,-0.6345,-0.6449,1,-0.3,-1.1,0.004,0.012,-0.009,0
2018,5,17,22,19,11.045,-0.3803,0.1909,-0.6347,-0.6449,0.4,0,-0.6,0.002,0.015,-0.003,0
2018,5,17,22,19,11.058,-0.3802,0.1907,-0.6348,-0.6449,-0.4,0.2,-0.5,0.002,0.011,0,1023
2018,5,17,22,19,11.076,-0.3802,0.1906,-0.6347,-0.6451,-0.9,0.9,0,0,0.01,-0.002,1023
2018,5,17,22,19,11.099,-0.3802,0.1906,-0.6345,-0.6452,-0.6,1.1,0.1,0.004,0.01,-0.001,1023
2018,5,17,22,19,11.118,-0.3804,0.1905,-0.6344,-0.6453,-0.8,1.3,0.4,0.009,0.004,0.001,1023
2018,5,17,22,19,11.14,-0.3806,0.1905,-0.6342,-0.6454,-0.7,1.2,0.1,0.011,0,0.005,1023
2018,5,17,22,19,11.158,-0.3807,0.1905,-0.634,-0.6455,-1.2,0.9,0,0.006,0.001,0.001,1023
2018,5,17,22,19,11.181,-0.3808,0.1905,-0.6338,-0.6457,-0.9,0.6,-0.1,0.009,0.003,0.004,1023
2018,5,17,22,19,11.2,-0.3808,0.1905,-0.6336,-0.6458,-1.2,0.3,-0.5,0.009,-0.001,0.003,1023
2018,5,17,22,19,11.223,-0.3807,0.1906,-0.6334,-0.646,-2.6,0,-0.8,0.016,0.006,-0.001,1023
2018,5,17,22,19,11.241,-0.3805,0.1908,-0.6331,-0.6464,-3.4,-0.1,-1.2,0.019,0.003,0,1023
2018,5,17,22,19,11.264,-0.3804,0.1909,-0.6327,-0.6468,-2.6,0.1,-1.1,0.011,0,0.001,1023
2018,5,17,22,19,11.283,-0.3803,0.1909,-0.6326,-0.647,0.1,0.3,-0.9,0.001,0.002,0.004,1023
2018,5,17,22,19,11.321,-0.3803,0.1906,-0.6327,-0.647,1.7,0.7,-0.4,0.001,0.007,0.006,1023
2018,5,17,22,19,11.343,-0.3804,0.1903,-0.6328,-0.6469,1,0.9,-0.3,0.004,0.01,0.002,1023
2018,5,17,22,19,11.346,-0.3804,0.1901,-0.6328,-0.647,-0.4,0.9,-0.1,0.002,0.008,0.006,1023
2018,5,17,22,19,11.363,-0.3805,0.19,-0.6326,-0.6472,-0.9,1.1,0,0.004,0.008,0.007,1023
2018,5,17,22,19,11.386,-0.3806,0.1899,-0.6323,-0.6474,-1,1.4,-0.1,0.004,0.003,0.006,0
2018,5,17,22,19,11.401,-0.3807,0.1897,-0.6321,-0.6475,0.2,1.3,-0.5,0.001,0.005,0.009,0
2018,5,17,22,19,11.44,-0.3809,0.1894,-0.6321,-0.6476,1.4,0.9,-0.6,0.002,0.004,0.012,0
2018,5,17,22,19,11.44,-0.3809,0.1891,-0.6323,-0.6475,1.7,0.2,-0.6,0.003,0.01,0.003,0
2018,5,17,22,19,11.463,-0.3808,0.189,-0.6325,-0.6473,1.5,-0.3,-0.2,0.003,0.008,-0.006,0
2018,5,17,22,19,11.499,-0.3808,0.1889,-0.6327,-0.6472,1,-0.8,0.1,0.004,0.01,-0.005,0
2018,5,17,22,19,11.521,-0.3807,0.189,-0.6329,-0.647,0.7,-0.5,0.3,0.008,0.011,-0.004,0
2018,5,17,22,19,11.526,-0.3807,0.1891,-0.633,-0.6469,-0.4,-0.6,0.4,0.011,0.004,-0.006,0
2018,5,17,22,19,11.545,-0.3806,0.1893,-0.6329,-0.647,-1.8,-0.5,0.2,0.014,0.003,-0.005,0
2018,5,17,22,19,11.565,-0.3805,0.1896,-0.6326,-0.6472,-2.8,-0.1,-0.4,0.014,-0.002,-0.005,0
2018,5,17,22,19,11.584,-0.3804,0.1898,-0.6324,-0.6474,-1.8,0.2,-0.8,0.01,-0.002,0.004,0
2018,5,17,22,19,11.604,-0.3804,0.1897,-0.6322,-0.6476,-0.7,0.7,-0.8,0.008,0.001,0.004,0
2018,5,17,22,19,11.621,-0.3804,0.1896,-0.6321,-0.6478,-0.3,0.6,-0.7,0.009,0.006,0.003,0
2018,5,17,22,19,11.642,-0.3804,0.1894,-0.632,-0.6479,-0.7,0.4,-0.8,0.001,0.014,0.003,0
2018,5,17,22,19,11.68,-0.3802,0.1893,-0.6319,-0.6481,-1,0,-0.7,-0.002,0.014,0.011,0
2018,5,17,22,19,11.703,-0.3801,0.1893,-0.6318,-0.6484,-0.9,-0.4,-0.3,0,0.013,0.01,0
2018,5,17,22,19,11.708,-0.3799,0.1893,-0.6317,-0.6485,-0.6,-0.9,0,-0.001,0.01,0.007,0
2018,5,17,22,19,11.724,-0.3798,0.1894,-0.6318,-0.6485,0.5,-0.8,0.4,-0.001,0.005,-0.002,0
2018,5,17,22,19,11.747,-0.3799,0.1894,-0.6319,-0.6483,2.1,-0.3,0.6,0.004,0.004,0.008,0
2018,5,17,22,19,11.765,-0.38,0.1893,-0.6322,-0.648,3.1,0,0.4,0.005,0.005,-0.001,0
2018,5,17,22,19,11.787,-0.3802,0.1892,-0.6326,-0.6476,3.1,0.4,0.4,0.003,0.008,-0.001,1023
2018,5,17,22,19,11.808,-0.3803,0.1889,-0.6329,-0.6472,2.3,0.2,0.2,0.001,0.012,-0.005,1023
2018,5,17,22,19,11.823,-0.3803,0.1888,-0.6332,-0.647,0.6,0.4,0.4,0.006,0.015,-0.01,1023
2018,5,17,22,19,11.844,-0.3803,0.1888,-0.6332,-0.647,-0.8,0.3,0.4,0.008,0.012,-0.005,1023
2018,5,17,22,19,11.862,-0.3803,0.1889,-0.6331,-0.6471,-1.6,0.2,0.7,0.006,0.007,-0.001,1023
2018,5,17,22,19,11.885,-0.3804,0.1891,-0.6328,-0.6472,-1.5,0.3,0.7,0.009,0.005,0,1023
2018,5,17,22,19,11.903,-0.3806,0.1892,-0.6326,-0.6473,-1.1,0.4,0.9,0.007,0.003,0.001,1023
2018,5,17,22,19,11.926,-0.3807,0.1894,-0.6324,-0.6474,-1.3,0.3,0.6,0.009,0.002,0.007,1023
2018,5,17,22,19,11.945,-0.3808,0.1895,-0.6321,-0.6476,-1.2,0,0.5,0.006,0.002,0.008,1023
2018,5,17,22,19,11.967,-0.3808,0.1897,-0.6319,-0.6477,-0.7,-0.4,0.5,0.006,0,0.009,1023
2018,5,17,22,19,12.004,-0.3809,0.1898,-0.6318,-0.6477,0.5,-0.6,0.1,0.008,0,0.009,1023
2018,5,17,22,19,12.026,-0.3809,0.1898,-0.6319,-0.6476,1.2,-0.9,-0.1,0.005,0.011,0.007,1023
2018,5,17,22,19,12.031,-0.3808,0.1898,-0.6321,-0.6475,1.2,-1.2,-0.2,0.007,0.006,0.001,1023
2018,5,17,22,19,12.047,-0.3806,0.1899,-0.6323,-0.6474,0.2,-1.2,0,0.011,0.003,0.004,1023
2018,5,17,22,19,12.068,-0.3805,0.1901,-0.6324,-0.6473,0,-1.3,0.2,0.012,0.004,-0.004,1023
2018,5,17,22,19,12.107,-0.3805,0.1903,-0.6325,-0.6472,0.4,-1,0.2,0.014,-0.002,-0.003,1023
2018,5,17,22,19,12.129,-0.3805,0.1904,-0.6327,-0.6469,2.1,-0.9,0,0.013,-0.004,-0.004,1023
2018,5,17,22,19,12.134,-0.3804,0.1904,-0.6331,-0.6466,2.6,-0.6,-0.3,0.012,-0.001,-0.012,1023
2018,5,17,22,19,12.148,-0.3804,0.1904,-0.6335,-0.6462,2.3,-0.7,-0.6,0.011,0.004,-0.007,0
2018,5,17,22,19,12.169,-0.3803,0.1903,-0.6338,-0.6459,1,-0.5,-0.3,0.007,0.013,-0.007,0
2018,5,17,22,19,12.205,-0.3802,0.1903,-0.634,-0.6459,-0.7,-0.5,0,0.005,0.015,-0.01,0
2018,5,17,22,19,12.228,-0.38,0.1904,-0.6339,-0.646,-2.3,-0.3,0,0.007,0.012,-0.005,0
2018,5,17,22,19,12.233,-0.3799,0.1906,-0.6336,-0.6463,-2.9,-0.1,0.1,0.004,0.01,-0.001,0
2018,5,17,22,19,12.249,-0.3798,0.1907,-0.6333,-0.6466,-2.3,0.1,0.1,0,0.004,0.007,0
2018,5,17,22,19,12.272,-0.3798,0.1908,-0.6331,-0.6468,-0.7,0.5,0.1,0.001,0.003,0.005,0
2018,5,17,22,19,12.288,-0.3799,0.1907,-0.633,-0.6469,0.4,0.6,0.2,0.007,0.006,0.006,0
2018,5,17,22,19,12.314,-0.3801,0.1906,-0.633,-0.6468,1.1,0.8,0.1,0.006,0.005,0.005,0
2018,5,17,22,19,12.333,-0.3802,0.1905,-0.633,-0.6467,1.3,0.2,0.2,0.004,0.006,0.011,0
2018,5,17,22,19,12.348,-0.3803,0.1903,-0.6331,-0.6466,1.2,0,0.1,0.003,0.009,0.004,0
2018,5,17,22,19,12.386,-0.3803,0.1903,-0.6332,-0.6465,0.7,-0.4,0.2,0.004,0.005,0.007,0
2018,5,17,22,19,12.41,-0.3803,0.1903,-0.6333,-0.6465,0.1,-0.6,0.1,0.007,0.004,0.005,0
2018,5,17,22,19,12.413,-0.3802,0.1905,-0.6333,-0.6465,-0.4,-1,0.1,0.009,0.006,0.002,0
2018,5,17,22,19,12.428,-0.3802,0.1907,-0.6333,-0.6464,0,-1,0.2,0.009,0,0.002,0
2018,5,17,22,19,12.448,-0.3801,0.1909,-0.6334,-0.6463,0.3,-1,0.2,0.009,0.006,0,0
2018,5,17,22,19,12.471,-0.38,0.191,-0.6335,-0.6462,0.1,-0.9,-0.1,0.011,0.002,0.001,0
2018,5,17,22,19,12.489,-0.3798,0.1911,-0.6336,-0.6462,-0.1,-0.9,-0.4,0.009,0.004,-0.001,0
2018,5,17,22,19,12.531,-0.3797,0.1911,-0.6337,-0.6462,-0.1,-0.6,-0.6,0.008,0.004,-0.004,0
2018,5,17,22,19,12.534,-0.3796,0.1912,-0.6338,-0.6462,0,0,0,0.009,0.005,-0.003,0
2018,5,17,22,19,12.571,-0.3795,0.1912,-0.6338,-0.6462,0,0,0,0.009,0.006,-0.004,0
2018,5,17,22,19,12.571,-0.3795,0.1912,-0.6339,-0.6461,0.5,0.1,0,0.006,0.008,-0.001,0
2018,5,17,22,19,12.592,-0.3795,0.1912,-0.6339,-0.6461,0.6,0.5,-0.1,0.005,0.008,0.003,0
2018,5,17,22,19,12.608,-0.3795,0.1912,-0.6339,-0.6461,0.1,0.5,-0.1,0.008,0.008,-0.002,0
2018,5,17,22,19,12.643,-0.3795,0.1911,-0.6339,-0.6461,0,0,0,0.005,0.007,0,1023
2018,5,17,22,19,12.666,-0.3796,0.1911,-0.6339,-0.6461,0,0,0,0.009,0.005,-0.002,1023
2018,5,17,22,19,12.671,-0.3796,0.191,-0.634,-0.646,1.5,0.4,0.3,0.01,0.005,0.001,1023
2018,5,17,22,19,12.706,-0.3798,0.1908,-0.6342,-0.6457,2.8,0.6,0.2,0.005,0.008,0.002,1023
2018,5,17,22,19,12.73,-0.38,0.1906,-0.6345,-0.6454,2.8,0.7,0.2,0.008,0.008,-0.004,1023
2018,5,17,22,19,12.733,-0.3801,0.1904,-0.6347,-0.6451,1.1,0.6,0,0.004,0.009,-0.005,1023
2018,5,17,22,19,12.751,-0.3802,0.1903,-0.6347,-0.6451,-0.6,0.5,0.1,0.003,0.012,0,1023
2018,5,17,22,19,12.774,-0.3802,0.1904,-0.6345,-0.6453,-1.7,0,0.5,0.008,0.005,0.005,1023
2018,5,17,22,19,12.792,-0.3802,0.1906,-0.6343,-0.6454,-2,-0.4,0.4,0.013,0.001,0.009,1023
2018,5,17,22,19,12.816,-0.3802,0.1909,-0.634,-0.6456,-1.7,-0.8,0,0.008,0,0.01,1023
2018,5,17,22,19,12.853,-0.38,0.1911,-0.6339,-0.6458,-1.4,-1.3,-0.2,0,0.001,0.01,1023
2018,5,17,22,19,12.875,-0.3798,0.1912,-0.6338,-0.646,-1,-1.5,-0.4,0,0.005,0.005,1023
2018,5,17,22,19,12.88,-0.3795,0.1914,-0.6338,-0.6461,-1.1,-1.1,-0.3,0.002,0.005,-0.001,1023
2018,5,17,22,19,12.893,-0.3793,0.1915,-0.6337,-0.6462,-1.5,-0.6,-0.2,0.004,0.007,-0.004,1023
2018,5,17,22,19,12.911,-0.3791,0.1916,-0.6336,-0.6465,-2.1,0,-0.2,0.004,0.015,-0.001,1023
2018,5,17,22,19,12.934,-0.379,0.1916,-0.6334,-0.6467,-2.1,0.6,-0.1,0.008,0.012,0,1023
2018,5,17,22,19,12.969,-0.3791,0.1917,-0.6331,-0.6469,-1.2,0.9,-0.1,0.011,0.001,0,1023
2018,5,17,22,19,12.993,-0.3792,0.1916,-0.633,-0.647,-0.1,1.2,-0.3,0.007,-0.003,-0.004,1023
2018,5,17,22,19,12.998,-0.3793,0.1915,-0.6329,-0.647,0.3,1.7,-0.6,0.008,-0.002,-0.001,1023
2018,5,17,22,19,13.032,-0.3795,0.1913,-0.6329,-0.647,0.7,1.7,-0.8,0.004,0.002,-0.003,1023
2018,5,17,22,19,13.055,-0.3795,0.1909,-0.6329,-0.6471,0.3,1.5,-0.8,0.001,0.007,0,1023
2018,5,17,22,19,13.06,-0.3795,0.1906,-0.6329,-0.6472,-0.9,1.3,-1.1,0.005,0.013,0,0
2018,5,17,22,19,13.075,-0.3794,0.1904,-0.6326,-0.6476,-2.8,1.1,-1,0.002,0.014,0.005,0
2018,5,17,22,19,13.098,-0.3793,0.1903,-0.6322,-0.6482,-3.4,1.2,-0.8,0,0.012,0.004,0
2018,5,17,22,19,13.117,-0.3792,0.1902,-0.6317,-0.6487,-2.9,1.2,-0.5,-0.001,0.007,0.013,0
2018,5,17,22,19,13.141,-0.3792,0.1901,-0.6313,-0.6491,-2.4,1.5,-0.4,0,0.004,0.005,0
2018,5,17,22,19,13.156,-0.3792,0.1901,-0.6309,-0.6494,-2.3,0.9,-0.6,0.01,0.001,0.008,0
2018,5,17,22,19,13.174,-0.3792,0.1901,-0.6306,-0.6498,-1.7,0.8,-0.9,0.011,0.002,0.008,0
2018,5,17,22,19,13.198,-0.3792,0.19,-0.6304,-0.65,-1,0.4,-0.9,0.013,0.005,0.007,0
2018,5,17,22,19,13.217,-0.3791,0.1899,-0.6303,-0.6502,-0.9,0.1,-0.5,0.01,0.008,0.007,0
2018,5,17,22,19,13.235,-0.379,0.19,-0.6301,-0.6504,-1.4,-0.3,-0.2,0.01,0.004,0.001,0
2018,5,17,22,19,13.257,-0.379,0.1902,-0.63,-0.6505,-0.7,-0.4,-0.2,0.008,-0.001,0.001,0
2018,5,17,22,19,13.275,-0.379,0.1902,-0.63,-0.6504,0.7,-0.1,-0.3,0.01,-0.003,-0.001,0
2018,5,17,22,19,13.299,-0.379,0.1902,-0.6302,-0.6502,2,0.2,-0.6,0.012,0.001,-0.002,0
2018,5,17,22,19,13.335,-0.379,0.1899,-0.6305,-0.65,1.8,0.6,-0.8,0.008,0.009,-0.003,0
2018,5,17,22,19,13.358,-0.379,0.1897,-0.6306,-0.65,0,0.4,-0.7,0.007,0.012,-0.004,0
2018,5,17,22,19,13.362,-0.3789,0.1896,-0.6305,-0.6502,-2.1,0.2,-0.6,0,0.014,-0.003,1023
2018,5,17,22,19,13.376,-0.3787,0.1896,-0.6303,-0.6505,-3.1,0.3,-0.2,0.001,0.014,-0.002,1023
2018,5,17,22,19,13.412,-0.3786,0.1898,-0.6299,-0.6509,-3.4,0.7,0.1,0.008,0.013,-0.004,1023
2018,5,17,22,19,13.435,-0.3785,0.1899,-0.6295,-0.6514,-3.7,0.9,-0.1,0.006,0.015,-0.004,1023
2018,5,17,22,19,13.44,-0.3784,0.1899,-0.629,-0.6518,-3.2,1.2,0,0.004,0.013,0,1023
2018,5,17,22,19,13.456,-0.3785,0.19,-0.6286,-0.6522,-3.2,1.4,0,0.008,0,0.003,1023
2018,5,17,22,19,13.478,-0.3786,0.1901,-0.6281,-0.6526,-2.4,1.7,0.1,0.013,-0.004,0.005,1023
2018,5,17,22,19,13.496,-0.3788,0.1901,-0.6277,-0.6528,-1.2,1.5,0.2,0.008,-0.005,0.007,1023
2018,5,17,22,19,13.519,-0.379,0.19,-0.6274,-0.6529,0.1,1,-0.1,0.005,-0.006,0.01,1023
2018,5,17,22,19,13.538,-0.3792,0.1899,-0.6274,-0.653,1,0.7,-0.4,0.002,0.002,0.007,1023
2018,5,17,22,19,13.561,-0.3792,0.1897,-0.6275,-0.6529,0.9,0,-0.7,0.006,0.004,0.006,1023
2018,5,17,22,19,13.581,-0.3791,0.1896,-0.6276,-0.6529,0.3,-0.5,-0.8,0.007,0.01,0.007,1023
2018,5,17,22,19,13.617,-0.379,0.1895,-0.6277,-0.653,-0.1,-0.4,-0.5,0.005,0.016,0.001,1023
2018,5,17,22,19,13.639,-0.3789,0.1895,-0.6277,-0.653,0,0,0,0.005,0.013,-0.001,1023
2018,5,17,22,19,13.644,-0.3788,0.1894,-0.6277,-0.653,-0.4,0.1,0.5,0.007,0.015,-0.003,1023
2018,5,17,22,19,13.66,-0.3789,0.1895,-0.6276,-0.6531,-1.7,0.5,0.5,0.006,0.01,-0.005,1023
2018,5,17,22,19,13.681,-0.3789,0.1896,-0.6273,-0.6533,-3.1,0.9,0,0.006,0.01,-0.004,1023
2018,5,17,22,19,13.7,-0.3788,0.1897,-0.6269,-0.6537,-3.9,1.4,0.4,0.001,0.002,-0.012,1023
2018,5,17,22,19,13.72,-0.3789,0.1898,-0.6263,-0.6541,-3.9,2.1,0.7,0.007,0.009,0,1023
2018,5,17,22,19,13.739,-0.3791,0.19,-0.6257,-0.6546,-3.7,1.6,0.4,0.01,0.001,0.007,1023
2018,5,17,22,19,13.762,-0.3793,0.1901,-0.6252,-0.655,-2.6,1.1,-0.1,0.011,0,0.005,1023
2018,5,17,22,19,13.798,-0.3793,0.1901,-0.6249,-0.6553,-1.1,0.4,-0.7,0,-0.004,0.011,1023
2018,5,17,22,19,13.821,-0.3793,0.19,-0.6247,-0.6554,0,0,0,0,0.003,0.008,0
2018,5,17,22,19,13.826,-0.3793,0.19,-0.6247,-0.6555,0,0,0,-0.001,0.007,0.002,0
2018,5,17,22,19,13.841,-0.3793,0.1899,-0.6247,-0.6555,0.4,-0.4,0.6,-0.002,0.006,0.008,0
2018,5,17,22,19,13.864,-0.3793,0.19,-0.6247,-0.6554,1,-0.2,0.5,0.003,0.007,0.002,0
2018,5,17,22,19,13.883,-0.3793,0.1899,-0.6249,-0.6553,0.9,0,0.3,0.005,0.01,0.001,0
2018,5,17,22,19,13.906,-0.3794,0.1898,-0.6249,-0.6552,0,0,0,0.004,0.01,0.008,0
2018,5,17,22,19,13.924,-0.3795,0.1898,-0.6249,-0.6552,0.6,0.1,0.6,0.004,0.009,0.004,0
2018,5,17,22,19,13.947,-0.3796,0.1898,-0.625,-0.6551,0.9,0,0.7,0.006,0.006,0.003,0
2018,5,17,22,19,13.963,-0.3797,0.1898,-0.6251,-0.6549,1,-0.2,0.6,0.009,0.002,0.001,0
2018,5,17,22,19,13.981,-0.3798,0.1899,-0.6252,-0.6547,1.4,-0.4,0.6,0.007,0,0.003,0
2018,5,17,22,19,14.005,-0.3799,0.1899,-0.6254,-0.6545,1.7,-0.8,0.6,0.01,0.007,0,0
2018,5,17,22,19,14.023,-0.3799,0.19,-0.6256,-0.6542,1.3,-0.9,0.2,0.01,0.005,0.005,0
2018,5,17,22,19,14.061,-0.3799,0.1901,-0.6258,-0.654,1.5,-0.9,0.2,0.007,0.004,0.001,0
2018,5,17,22,19,14.084,-0.3799,0.1901,-0.626,-0.6538,1.5,-0.7,0.2,0.01,0.007,-0.002,0
2018,5,17,22,19,14.089,-0.3799,0.1901,-0.6263,-0.6536,1.5,-0.6,0.4,0.006,0.005,0,0
2018,5,17,22,19,14.123,-0.3799,0.1901,-0.6265,-0.6533,1.8,-0.4,0.6,0.005,0.009,0.002,0
2018,5,17,22,19,14.144,-0.38,0.1901,-0.6267,-0.6531,1.3,-0.5,0.7,0.008,0.013,-0.004,0
2018,5,17,22,19,14.148,-0.38,0.1902,-0.6268,-0.6529,0,-0.6,0.6,0.007,0.014,-0.001,0
2018,5,17,22,19,14.162,-0.38,0.1904,-0.6268,-0.6529,-0.7,-0.7,0.9,0.008,0.016,-0.002,0
2018,5,17,22,19,14.199,-0.3799,0.1906,-0.6267,-0.653,-2,-0.6,1,0.009,0.005,-0.003,0
2018,5,17,22,19,14.222,-0.38,0.191,-0.6264,-0.6531,-2,-0.2,1,0.009,-0.002,-0.002,1023
2018,5,17,22,19,14.226,-0.38,0.1913,-0.6262,-0.6532,-0.9,0.1,0.6,0.008,-0.007,0.002,1023
2018,5,17,22,19,14.246,-0.3802,0.1914,-0.6262,-0.6531,0.7,0.4,0.3,0.01,-0.001,-0.003,1023
2018,5,17,22,19,14.262,-0.3803,0.1913,-0.6262,-0.653,1.6,0.6,-0.1,0.007,0.001,0.005,1023
2018,5,17,22,19,14.284,-0.3804,0.1911,-0.6264,-0.6529,1.5,0.3,-0.3,0.001,0.011,0,1023
2018,5,17,22,19,14.323,-0.3804,0.1909,-0.6265,-0.6528,0,0,0,0.008,0.013,0,1023
2018,5,17,22,19,14.344,-0.3803,0.191,-0.6264,-0.6529,-1.4,-0.3,0.1,0.003,0.008,0.005,1023
2018,5,17,22,19,14.347,-0.3802,0.1911,-0.6262,-0.6531,-1.4,-0.6,0.5,0.006,0.007,0.004,1023
2018,5,17,22,19,14.383,-0.3802,0.1913,-0.6261,-0.6532,-0.6,-0.6,0.4,0.008,0.005,0.007,1023
2018,5,17,22,19,14.406,-0.3802,0.1915,-0.6261,-0.6532,0.5,-0.8,0.3,0.008,0.002,0.011,1023
2018,5,17,22,19,14.411,-0.3802,0.1915,-0.6262,-0.653,2,-1,0.2,0.007,0.001,0.007,1023
2018,5,17,22,19,14.427,-0.3803,0.1915,-0.6265,-0.6527,2.9,-1.1,0.4,0.007,0.002,0,1023
2018,5,17,22,19,14.449,-0.3803,0.1915,-0.627,-0.6522,3.5,-1,0.4,0.003,0.001,-0.003,1023
2018,5,17,22,19,14.465,-0.3804,0.1915,-0.6275,-0.6517,3,-0.6,0.3,0.006,0.003,-0.008,1023
2018,5,17,22,19,14.484,-0.3804,0.1914,-0.6279,-0.6513,2.8,-0.4,0,0.01,0.005,-0.005,1023
2018,5,17,22,19,14.507,-0.3804,0.1913,-0.6282,-0.651,1.9,0,-0.4,0.008,0.006,-0.007,1023
2018,5,17,22,19,14.525,-0.3804,0.1912,-0.6285,-0.6508,0.7,0.1,-0.4,0.008,0.01,-0.008,1023
2018,5,17,22,19,14.547,-0.3803,0.1911,-0.6285,-0.6508,-0.8,0.1,-0.3,0.008,0.01,-0.004,1023
2018,5,17,22,19,14.565,-0.3802,0.1912,-0.6284,-0.651,-1.9,0,0,0.007,0.006,0,1023
2018,5,17,22,19,14.588,-0.3802,0.1913,-0.6282,-0.6511,-1.4,0,0.2,0.008,0.003,0.001,1023
2018,5,17,22,19,14.607,-0.3802,0.1915,-0.6281,-0.6512,-0.7,0.1,0.2,0.007,0.002,0.003,1023
2018,5,17,22,19,14.63,-0.3803,0.1915,-0.628,-0.6513,0,0,0,0.006,0.006,0.011,1023
2018,5,17,22,19,14.648,-0.3803,0.1914,-0.628,-0.6513,-0.6,0.2,-0.4,0.004,0.007,0.007,1023
2018,5,17,22,19,14.671,-0.3802,0.1914,-0.6278,-0.6515,0,0,0,0.003,0.005,0.012,0
2018,5,17,22,19,14.707,-0.3802,0.1913,-0.6278,-0.6516,0.5,-0.3,-0.1,0,0.004,0.009,0
2018,5,17,22,19,14.73,-0.3803,0.1913,-0.6279,-0.6515,1.7,-0.3,0.2,0,0.006,0.008,0
2018,5,17,22,19,14.735,-0.3804,0.1912,-0.6281,-0.6512,3.5,-0.6,0.7,0.003,0.004,0.007,0
2018,5,17,22,19,14.749,-0.3806,0.191,-0.6286,-0.6507,5.3,-0.9,0.9,0.005,0.007,0.005,0
2018,5,17,22,19,14.767,-0.3808,0.1908,-0.6293,-0.6499,6.8,-1,1.2,0.008,0.005,0.005,0
2018,5,17,22,19,14.789,-0.3811,0.1906,-0.6301,-0.649,6.9,-1.1,1,0.005,0.007,-0.001,0
2018,5,17,22,19,14.808,-0.3812,0.1905,-0.6309,-0.6482,6,-1.5,0.9,0.006,0.008,-0.011,0
2018,5,17,22,19,14.831,-0.3813,0.1904,-0.6317,-0.6475,4,-1.3,0.6,0.008,0.006,-0.014,0
2018,5,17,22,19,14.848,-0.3812,0.1904,-0.6322,-0.647,2,-0.9,0,0.005,0.01,-0.009,0
2018,5,17,22,19,14.871,-0.3811,0.1904,-0.6324,-0.6468,1,-0.4,-0.2,0.006,0.008,-0.01,0
2018,5,17,22,19,14.89,-0.3811,0.1903,-0.6326,-0.6467,0.6,0.1,-0.3,0.003,0.008,-0.006,0
2018,5,17,22,19,14.913,-0.3811,0.1902,-0.6326,-0.6467,0,0.6,-0.1,0.01,0.007,-0.002,0
2018,5,17,22,19,14.931,-0.3811,0.1902,-0.6325,-0.6467,-0.7,0.7,-0.1,0.011,0.009,0.001,0
2018,5,17,22,19,14.954,-0.3812,0.1901,-0.6324,-0.6469,-1.2,0.6,-0.1,0.007,0.01,0.001,0
2018,5,17,22,19,14.971,-0.3812,0.1901,-0.6321,-0.6471,-1.4,0.4,0,0.007,0.003,0.008,0
2018,5,17,22,19,15.008,-0.3813,0.1902,-0.632,-0.6472,0,0,0,0.007,-0.003,0.006,1023
2018,5,17,22,19,15.008,-0.3813,0.1902,-0.6319,-0.6473,0,0,0,0.005,0.002,0.004,1023
2018,5,17,22,19,15.03,-0.3813,0.1902,-0.6319,-0.6473,0.6,0,-0.5,0.007,0.004,0.002,1023
2018,5,17,22,19,15.049,-0.3813,0.1901,-0.632,-0.6472,0.6,0.1,-0.4,0.008,0.003,0.001,1023
2018,5,17,22,19,15.072,-0.3813,0.1901,-0.632,-0.6472,0,0,0,0.011,0.006,0.009,1023
2018,5,17,22,19,15.091,-0.3814,0.1901,-0.6319,-0.6472,0,0,0,0.006,0.009,0.005,1023
2018,5,17,22,19,15.114,-0.3813,0.19,-0.632,-0.6472,0.8,0,-0.4,0.002,0.011,0,1023
2018,5,17,22,19,15.132,-0.3813,0.1899,-0.6321,-0.6472,1.3,-0.1,-0.2,0.002,0.008,0.007,1023
2018,5,17,22,19,15.155,-0.3813,0.1898,-0.6323,-0.647,1.8,-0.5,0.2,0.003,0.007,0,1023
2018,5,17,22,19,15.191,-0.3813,0.1897,-0.6325,-0.6468,2.3,-0.7,0.6,0.003,0.009,0,1023
2018,5,17,22,19,15.214,-0.3814,0.1897,-0.6328,-0.6465,1.8,-0.7,0.6,0.005,0.009,-0.006,1023
2018,5,17,22,19,15.219,-0.3814,0.1898,-0.633,-0.6462,1.3,-0.5,0.6,0.01,0.003,-0.001,1023
2018,5,17,22,19,15.237,-0.3815,0.1898,-0.6332,-0.646,0.9,-0.1,0.1,0.007,0.005,-0.005,1023
2018,5,17,22,19,15.256,-0.3815,0.1898,-0.6333,-0.6459,0.7,0.4,-0.1,0.006,0.002,0.002,1023
2018,5,17,22,19,15.278,-0.3815,0.1896,-0.6334,-0.6458,0.7,0.5,-0.3,0.001,0.003,-0.003,1023
2018,5,17,22,19,15.294,-0.3816,0.1894,-0.6334,-0.6458,0.3,0.7,-0.4,0.002,0.003,-0.003,1023
2018,5,17,22,19,15.315,-0.3816,0.1893,-0.6334,-0.6459,0,0.7,-0.1,0.005,0.012,-0.001,1023
2018,5,17,22,19,15.332,-0.3817,0.1892,-0.6333,-0.6459,-0.8,0.5,0,0.006,0.013,0.004,1023
2018,5,17,22,19,15.355,-0.3817,0.1891,-0.6332,-0.6461,-1.6,0.7,0,0.008,0.013,0.001,1023
2018,5,17,22,19,15.372,-0.3816,0.1892,-0.6329,-0.6464,-2.2,0.5,0,0.004,0.01,0.01,1023
2018,5,17,22,19,15.398,-0.3816,0.1892,-0.6326,-0.6466,-1.3,0.1,0,0.003,0.001,0.008,1023
2018,5,17,22,19,15.414,-0.3817,0.1892,-0.6325,-0.6468,0,0,0,0.005,0,0.008,0
2018,5,17,22,19,15.436,-0.3818,0.1892,-0.6325,-0.6467,0.9,-0.1,0.1,0.007,0,0.011,0
2018,5,17,22,19,15.455,-0.3818,0.1892,-0.6326,-0.6466,1.9,-0.3,0,0.006,-0.002,0.006,0
2018,5,17,22,19,15.475,-0.3819,0.1891,-0.6328,-0.6464,2.2,-0.7,-0.2,0.012,0.003,0.006,0
2018,5,17,22,19,15.512,-0.3818,0.189,-0.6331,-0.6461,2.4,-1,-0.3,0.009,0.005,0,0
2018,5,17,22,19,15.536,-0.3818,0.1889,-0.6335,-0.6458,2.7,-0.4,-0.5,0.007,0.005,-0.003,0
2018,5,17,22,19,15.54,-0.3818,0.1887,-0.6339,-0.6455,2.6,0.3,-0.3,0.006,0.01,-0.007,0
2018,5,17,22,19,15.555,-0.3818,0.1884,-0.6342,-0.6452,1.6,1,0,0.009,0.01,-0.011,0
2018,5,17,22,19,15.573,-0.382,0.1882,-0.6343,-0.6451,0.6,1.3,-0.1,0.007,0.011,-0.007,0
2018,5,17,22,19,15.594,-0.3821,0.188,-0.6342,-0.6452,-1.2,1.5,-0.1,0.004,0.01,-0.006,0
2018,5,17,22,19,15.631,-0.3821,0.1879,-0.6339,-0.6455,-2.9,1.4,-0.6,0.001,0.006,0.004,0
2018,5,17,22,19,15.653,-0.382,0.1879,-0.6335,-0.646,-3.9,0.9,-0.9,0.004,0.008,0.001,0
2018,5,17,22,19,15.658,-0.3818,0.1881,-0.633,-0.6465,-5.1,0.3,-0.8,0.006,0.007,-0.002,0
2018,5,17,22,19,15.695,-0.3815,0.1884,-0.6324,-0.6472,-5.7,-0.4,-0.6,0.011,0.002,0.002,0
2018,5,17,22,19,15.718,-0.3813,0.1888,-0.6318,-0.6478,-4.6,-0.7,-0.6,0.013,-0.002,0.001,0
