ax,ay,az,dpitch,droll,dyaw,heart,time_1,time_2,time_3,time_4,time_5,time_6,w,x,y,z
0.011,0.422,-0.075,-88.6,310.6,-18,0,2018,5,17,19,58,17.513,-0.7082,0.249,-0.3459,-0.5627
0.1,0.379,-0.042,-80.3,224.2,-20.3,0,2018,5,17,19,58,17.534,-0.712,0.2228,-0.3831,-0.5446
0.241,0.422,-0.008,-64.1,131.5,-26.7,0,2018,5,17,19,58,17.54,-0.7113,0.2062,-0.4096,-0.5325
0.305,0.452,0.098,-47.2,39.9,-31.2,0,2018,5,17,19,58,17.576,-0.7075,0.199,-0.4249,-0.5283
0.307,0.357,0.146,-38.8,-19.1,-31.4,0,2018,5,17,19,58,17.576,-0.7016,0.1999,-0.4317,-0.5304
0.324,0.383,0.122,-33.8,-38.2,-27.1,0,2018,5,17,19,58,17.599,-0.695,0.2049,-0.4343,-0.535
0.393,0.505,0.086,-23.1,-47.3,-18.9,1023,2018,5,17,19,58,17.616,-0.6891,0.2111,-0.4346,-0.5399
0.399,0.558,0.068,-12.3,-52.9,-3.2,1023,2018,5,17,19,58,17.639,-0.6849,0.218,-0.4324,-0.5442
0.346,0.478,-0.015,-1.8,-55.6,13.6,1023,2018,5,17,19,58,17.676,-0.6828,0.2256,-0.4279,-0.5473
0.275,0.406,-0.024,10.4,-65.7,27.4,1023,2018,5,17,19,58,17.699,-0.6828,0.2338,-0.4209,-0.5493
0.224,0.281,-0.127,25.8,-76.8,40.3,1023,2018,5,17,19,58,17.704,-0.6845,0.2433,-0.4104,-0.5511
0.167,0.232,-0.111,42.8,-81,48.8,1023,2018,5,17,19,58,17.722,-0.688,0.2524,-0.3968,-0.5526
0.048,0.246,-0.063,51.8,-104.3,50.6,1023,2018,5,17,19,58,17.757,-0.6919,0.2623,-0.38,-0.5548
-0.044,0.19,-0.129,59,-123.5,50,1023,2018,5,17,19,58,17.78,-0.6951,0.2742,-0.3599,-0.5585
-0.136,0.148,-0.188,66.4,-132.6,49.8,1023,2018,5,17,19,58,17.785,-0.6976,0.2868,-0.3373,-0.5632
-0.222,0.051,-0.212,69.7,-119.4,50.5,1023,2018,5,17,19,58,17.821,-0.6998,0.2985,-0.3144,-0.5676
-0.294,-0.018,-0.246,70.7,-102.1,46.7,1023,2018,5,17,19,58,17.844,-0.7026,0.308,-0.2924,-0.5708
-0.355,-0.097,-0.225,65.9,-79.3,37.5,1023,2018,5,17,19,58,17.849,-0.7054,0.3148,-0.2724,-0.5736
-0.422,-0.187,-0.172,53.1,-42.3,24.7,0,2018,5,17,19,58,17.862,-0.7079,0.3178,-0.2572,-0.5758
-0.453,-0.331,-0.109,33.2,17.3,7.7,0,2018,5,17,19,58,17.897,-0.7107,0.3157,-0.2495,-0.5769
-0.467,-0.339,-0.12,10.7,90.9,-7.6,0,2018,5,17,19,58,17.919,-0.7146,0.3066,-0.2526,-0.5756
-0.388,-0.32,-0.068,-15.6,172.8,-19,0,2018,5,17,19,58,17.922,-0.7199,0.2895,-0.2668,-0.5715
-0.272,0.068,0.058,-38.5,218.4,-27.9,0,2018,5,17,19,58,17.941,-0.7259,0.2654,-0.2917,-0.5634
-0.151,0.219,0.006,-48.2,190.1,-33.4,0,2018,5,17,19,58,17.965,-0.7296,0.2417,-0.3189,-0.5545
-0.057,0.218,-0.1,-45.1,139.4,-42.1,0,2018,5,17,19,58,17.998,-0.7297,0.2232,-0.3419,-0.5482
-0.032,0.142,-0.075,-41.3,121.1,-42.8,0,2018,5,17,19,58,18.019,-0.7277,0.2086,-0.3609,-0.5445
0.05,0.322,0.028,-35.4,126.2,-38.3,0,2018,5,17,19,58,18.024,-0.726,0.1933,-0.3795,-0.5398
0.09,0.411,0.073,-32.7,67,-42.8,0,2018,5,17,19,58,18.062,-0.723,0.1814,-0.3944,-0.5372
0.141,0.267,0.042,-27,12.3,-46.3,0,2018,5,17,19,58,18.084,-0.7178,0.1767,-0.4026,-0.5398
0.163,0.311,0.035,-24.9,3.2,-46.4,0,2018,5,17,19,58,18.089,-0.7117,0.1751,-0.4078,-0.5443
0.192,0.409,0.153,-21.5,4.6,-41,0,2018,5,17,19,58,18.103,-0.7059,0.1738,-0.4122,-0.549
0.195,0.245,0.099,-25.3,39,-32.3,0,2018,5,17,19,58,18.122,-0.7013,0.171,-0.418,-0.5514
0.18,0.244,0.029,-31.4,90.4,-23.9,0,2018,5,17,19,58,18.145,-0.6984,0.1635,-0.4287,-0.5491
0.211,0.415,0.036,-23.7,80.5,-19.3,0,2018,5,17,19,58,18.164,-0.6967,0.1534,-0.4413,-0.5442
0.177,0.41,0.096,-16,33.1,-7.8,0,2018,5,17,19,58,18.2,-0.6954,0.1473,-0.4494,-0.5409
0.113,0.356,0.05,-10.4,-9.2,3.9,0,2018,5,17,19,58,18.224,-0.6944,0.1472,-0.4519,-0.5401
0.088,0.259,-0.142,-2.7,-27.2,17.4,0,2018,5,17,19,58,18.227,-0.6944,0.1513,-0.4504,-0.5403
0.029,0.369,-0.07,1.5,-31.8,27.9,0,2018,5,17,19,58,18.245,-0.6957,0.1566,-0.447,-0.5399
-0.024,0.454,-0.077,6.7,-61.3,36.4,0,2018,5,17,19,58,18.268,-0.6978,0.1643,-0.4413,-0.5396
-0.081,0.412,-0.211,12.6,-102.5,48.2,0,2018,5,17,19,58,18.285,-0.7,0.1767,-0.4308,-0.5413
-0.109,0.325,-0.345,18.1,-114.8,63.6,0,2018,5,17,19,58,18.319,-0.7028,0.1932,-0.4166,-0.5431
-0.084,0.274,-0.277,28,-117.7,73.8,0,2018,5,17,19,58,18.342,-0.707,0.2103,-0.4003,-0.5437
-0.079,0.295,-0.116,34.7,-132.7,75.3,0,2018,5,17,19,58,18.346,-0.7117,0.2277,-0.3819,-0.5438
-0.008,0.323,-0.135,37.8,-159.2,72.7,0,2018,5,17,19,58,18.362,-0.715,0.2474,-0.3604,-0.5454
0.026,0.263,-0.168,40.1,-166.6,69.9,1023,2018,5,17,19,58,18.385,-0.7168,0.2685,-0.3367,-0.5483
0.041,0.237,-0.167,41.8,-164.6,65.5,1023,2018,5,17,19,58,18.404,-0.7175,0.2892,-0.3123,-0.5512
0.007,0.227,-0.134,41.5,-175.9,57.9,1023,2018,5,17,19,58,18.427,-0.7168,0.3096,-0.2877,-0.5544
-0.02,0.277,-0.039,40.3,-188.2,54,1023,2018,5,17,19,58,18.463,-0.714,0.3312,-0.2619,-0.5583
-0.037,0.265,0.001,36.5,-191.5,52.4,1023,2018,5,17,19,58,18.486,-0.7095,0.3534,-0.2353,-0.5622
-0.039,0.191,-0.048,31.3,-191,46.6,1023,2018,5,17,19,58,18.49,-0.7036,0.3756,-0.2091,-0.5657
-0.067,0.217,-0.118,27.6,-202.8,38,1023,2018,5,17,19,58,18.506,-0.6955,0.3983,-0.1833,-0.5691
-0.105,0.028,-0.163,24.4,-198.8,29.1,1023,2018,5,17,19,58,18.544,-0.6848,0.4215,-0.1577,-0.5729
-0.133,-0.151,-0.021,15.9,-155.1,21.7,1023,2018,5,17,19,58,18.567,-0.6744,0.4417,-0.1354,-0.5758
-0.162,-0.145,0.071,4.7,-106.5,9.7,1023,2018,5,17,19,58,18.572,-0.6663,0.4559,-0.1199,-0.5777
-0.18,-0.089,0.119,-5.6,-87.8,-6.4,1023,2018,5,17,19,58,18.587,-0.6586,0.4669,-0.1098,-0.5797
-0.182,-0.301,-0.028,-11.9,-61.6,-26.4,1023,2018,5,17,19,58,18.605,-0.6505,0.4761,-0.1044,-0.5824
-0.159,-0.317,-0.065,-17.7,-22.4,-44.4,1023,2018,5,17,19,58,18.629,-0.6429,0.4816,-0.1045,-0.5863
-0.233,-0.23,0.044,-29.1,27.2,-56.9,0,2018,5,17,19,58,18.645,-0.6377,0.4824,-0.1119,-0.5899
-0.223,-0.177,0.084,-35.2,54,-69.2,0,2018,5,17,19,58,18.668,-0.6339,0.4799,-0.1254,-0.5932
-0.246,-0.18,-0.007,-39,81.7,-79.1,0,2018,5,17,19,58,18.685,-0.6311,0.4744,-0.1429,-0.5967
-0.207,-0.149,-0.107,-41.2,113.2,-85.7,0,2018,5,17,19,58,18.709,-0.6291,0.4657,-0.1642,-0.6001
-0.122,0.008,-0.011,-43.2,149,-84.1,0,2018,5,17,19,58,18.745,-0.63,0.4527,-0.19,-0.6016
-0.097,0.147,-0.001,-43.4,145.4,-84.4,0,2018,5,17,19,58,18.768,-0.6311,0.4377,-0.217,-0.6024
-0.122,0.143,-0.075,-46.5,158.5,-79.2,0,2018,5,17,19,58,18.772,-0.6317,0.4222,-0.2444,-0.6024
-0.103,0.254,-0.094,-48.3,164.3,-76.8,0,2018,5,17,19,58,18.791,-0.6334,0.4051,-0.273,-0.5999
-0.089,0.282,-0.101,-43.9,125.7,-80,0,2018,5,17,19,58,18.808,-0.633,0.3899,-0.2989,-0.5982
-0.052,0.201,-0.068,-42.5,99.5,-75.9,0,2018,5,17,19,58,18.827,-0.6298,0.3781,-0.3202,-0.5981
-0.03,0.214,-0.055,-42.4,99.5,-71,0,2018,5,17,19,58,18.865,-0.6262,0.3674,-0.34,-0.5976
-0.006,0.35,-0.021,-39.6,87.5,-64.3,0,2018,5,17,19,58,18.888,-0.6225,0.3573,-0.3588,-0.5966
-0.021,0.392,-0.014,-38.1,72.9,-53.3,0,2018,5,17,19,58,18.893,-0.6189,0.349,-0.3752,-0.5951
0.006,0.47,0.063,-41.2,50.4,-44.8,0,2018,5,17,19,58,18.91,-0.615,0.3431,-0.3891,-0.5937
0.069,0.651,0.131,-43.7,9.2,-33.2,0,2018,5,17,19,58,18.927,-0.6099,0.3416,-0.3993,-0.593
0.062,0.745,0.063,-49.2,-44.2,-14.1,0,2018,5,17,19,58,18.948,-0.6031,0.3467,-0.4038,-0.594
0.135,0.818,0.028,-48.7,-102.4,7.4,0,2018,5,17,19,58,18.987,-0.5948,0.3594,-0.4015,-0.5964
0.104,0.733,0.15,-52.2,-144.5,33,0,2018,5,17,19,58,19.01,-0.5853,0.3792,-0.3922,-0.5997
0.132,0.675,0.19,-59,-168.2,53,0,2018,5,17,19,58,19.015,-0.5755,0.404,-0.3786,-0.6017
0.187,0.676,0.078,-59.1,-212.3,62.5,0,2018,5,17,19,58,19.028,-0.564,0.433,-0.3605,-0.6035
0.211,0.585,-0.14,-51.8,-259.1,69.3,0,2018,5,17,19,58,19.063,-0.5489,0.4661,-0.3358,-0.6071
0.192,0.341,-0.073,-43.3,-266,73.5,0,2018,5,17,19,58,19.085,-0.5313,0.5004,-0.3059,-0.6112
0.162,0.201,0.017,-37.9,-239.7,77.7,0,2018,5,17,19,58,19.089,-0.5144,0.5317,-0.2759,-0.6135
0.17,0.259,-0.077,-27,-235.7,76,1023,2018,5,17,19,58,19.127,-0.4988,0.5596,-0.2464,-0.6141
0.205,0.169,-0.226,-8.4,-242.4,70.2,1023,2018,5,17,19,58,19.151,-0.4818,0.5852,-0.215,-0.6156
0.227,0.133,-0.187,6.7,-237.6,62.3,1023,2018,5,17,19,58,19.154,-0.464,0.6073,-0.1827,-0.6183
0.13,0.106,-0.239,20.4,-248.5,54.2,1023,2018,5,17,19,58,19.171,-0.4443,0.6269,-0.1492,-0.6223
0.004,-0.066,-0.247,32.8,-228.8,50.8,1023,2018,5,17,19,58,19.193,-0.4238,0.6434,-0.1152,-0.6268
-0.022,-0.122,-0.126,38.3,-181.1,48.4,1023,2018,5,17,19,58,19.212,-0.4069,0.655,-0.0845,-0.6309
-0.028,-0.001,-0.142,41.5,-163.9,38.3,1023,2018,5,17,19,58,19.235,-0.3927,0.663,-0.058,-0.6346
-0.09,0.048,-0.141,46.6,-152.2,37.4,1023,2018,5,17,19,58,19.25,-0.3785,0.6694,-0.0333,-0.6383
-0.155,0.111,-0.161,50.6,-142.3,44.4,1023,2018,5,17,19,58,19.273,-0.366,0.6736,-0.0089,-0.6419
-0.232,0.064,-0.163,55.1,-129.4,55.6,0,2018,5,17,19,58,19.291,-0.3554,0.6762,0.0156,-0.645
-0.268,-0.026,-0.167,58.2,-102.4,66.4,0,2018,5,17,19,58,19.326,-0.3484,0.6766,0.0397,-0.6474
-0.232,0.043,-0.175,60.4,-72.1,75.4,0,2018,5,17,19,58,19.349,-0.3458,0.6744,0.0614,-0.6494
-0.257,0.114,-0.115,66,-59.5,82.2,0,2018,5,17,19,58,19.354,-0.3465,0.67,0.082,-0.6513
-0.343,-0.161,0.058,68.5,-45.5,84.1,0,2018,5,17,19,58,19.371,-0.3486,0.664,0.1024,-0.6533
-0.343,-0.291,0.187,57.5,-9.9,78.9,0,2018,5,17,19,58,19.409,-0.3535,0.6569,0.1193,-0.6551
-0.284,-0.155,0.192,47.2,7.2,71.6,0,2018,5,17,19,58,19.432,-0.3612,0.6491,0.1309,-0.6564
-0.27,-0.062,0.184,40,4.2,69,0,2018,5,17,19,58,19.436,-0.3688,0.6421,0.141,-0.6569
-0.281,-0.097,0.251,32.7,-5.7,66.3,0,2018,5,17,19,58,19.452,-0.3757,0.6362,0.151,-0.6566
-0.283,-0.19,0.29,17.7,-8.1,59.4,0,2018,5,17,19,58,19.474,-0.3813,0.6321,0.1606,-0.6551
-0.202,-0.052,0.234,3.6,-7.2,55.1,0,2018,5,17,19,58,19.493,-0.3868,0.6297,0.1683,-0.6521
-0.171,-0.072,0.29,-2.6,-14.6,50.1,0,2018,5,17,19,58,19.515,-0.3916,0.6288,0.1754,-0.6483
-0.134,-0.105,0.396,-14.3,-18.6,42.8,0,2018,5,17,19,58,19.534,-0.3952,0.6295,0.1818,-0.6436
-0.084,-0.147,0.396,-30.8,-12.6,31.9,0,2018,5,17,19,58,19.551,-0.3984,0.6319,0.1862,-0.638
-0.031,-0.159,0.356,-44.9,-6,21.9,0,2018,5,17,19,58,19.575,-0.4015,0.636,0.1875,-0.6316
0.05,-0.131,0.283,-57.7,12.5,16.1,0,2018,5,17,19,58,19.592,-0.4056,0.6409,0.1856,-0.6246
0.084,-0.077,0.21,-61.8,28.3,13.1,0,2018,5,17,19,58,19.616,-0.4116,0.6454,0.1805,-0.6175
0.063,-0.003,0.237,-60.8,13.3,6.9,0,2018,5,17,19,58,19.634,-0.4171,0.6501,0.1747,-0.6105
0.127,0.003,0.214,-60.1,-7.1,0.9,0,2018,5,17,19,58,19.672,-0.4197,0.6562,0.1705,-0.6034
0.182,-0.012,0.123,-52.1,-31,-7.7,0,2018,5,17,19,58,19.696,-0.4186,0.6637,0.168,-0.5965
0.233,-0.042,-0.007,-40,-47.2,-19.2,0,2018,5,17,19,58,19.7,-0.4134,0.672,0.1669,-0.5912
0.237,0.072,0.012,-26.6,-63.2,-37.8,0,2018,5,17,19,58,19.713,-0.4042,0.6805,0.1656,-0.5882
0.203,0.121,0.123,-12.1,-110.5,-54.1,0,2018,5,17,19,58,19.75,-0.3897,0.6896,0.1679,-0.5867
0.199,0.022,-0.008,6.1,-148.1,-63.2,1023,2018,5,17,19,58,19.75,-0.3672,0.7006,0.1739,-0.5865
0.202,-0.016,-0.12,25.1,-132,-59.2,1023,2018,5,17,19,58,19.773,-0.342,0.71,0.1818,-0.588
0.162,0.046,-0.069,41.8,-85.6,-43.3,1023,2018,5,17,19,58,19.81,-0.3221,0.7143,0.1888,-0.5918
0.145,0.179,-0.044,52.8,-47.1,-23.6,1023,2018,5,17,19,58,19.832,-0.3092,0.7139,0.1939,-0.5974
0.111,0.228,0.003,63.4,-32.4,-4.2,1023,2018,5,17,19,58,19.836,-0.3011,0.7103,0.1993,-0.6041
0.043,0.153,0.078,71.8,-30.4,9.7,1023,2018,5,17,19,58,19.873,-0.2952,0.7045,0.2066,-0.6112
0.01,0.136,0.176,71.8,-28,17.6,1023,2018,5,17,19,58,19.873,-0.2907,0.6977,0.2151,-0.6183
-0.026,0.026,0.25,68.5,-43.9,17.8,1023,2018,5,17,19,58,19.896,-0.2856,0.6911,0.2248,-0.6245
-0.064,-0.097,0.203,63.6,-41.6,15,1023,2018,5,17,19,58,19.934,-0.2793,0.6855,0.235,-0.6299
-0.082,-0.121,0.19,57.6,-32,11.8,1023,2018,5,17,19,58,19.957,-0.2738,0.68,0.2435,-0.6349
-0.063,-0.094,0.183,54.2,-22.5,14.1,0,2018,5,17,19,58,19.961,-0.2697,0.6745,0.2506,-0.6397
-0.085,-0.078,0.151,52.7,-20.9,15.5,0,2018,5,17,19,58,19.979,-0.2664,0.6689,0.2573,-0.6443
-0.109,-0.097,0.081,50.9,-14.1,13.5,0,2018,5,17,19,58,20.015,-0.2637,0.6632,0.2635,-0.6489
-0.137,-0.044,0.114,47.6,-14.1,10.7,0,2018,5,17,19,58,20.015,-0.2612,0.6576,0.2687,-0.6534
-0.166,-0.045,0.132,43.7,-20.9,6.5,0,2018,5,17,19,58,20.039,-0.2579,0.6528,0.2737,-0.6574
-0.14,-0.068,0.157,39.2,-21.1,7.8,0,2018,5,17,19,58,20.055,-0.2543,0.6487,0.2788,-0.6608
-0.123,-0.074,0.144,37.5,-13,12.9,0,2018,5,17,19,58,20.079,-0.2517,0.6445,0.2836,-0.6638
-0.169,-0.062,0.154,36.3,-7.3,16.3,0,2018,5,17,19,58,20.115,-0.2505,0.6399,0.288,-0.6668
-0.095,-0.037,0.177,31.7,-9.6,14.6,0,2018,5,17,19,58,20.137,-0.2497,0.6355,0.2923,-0.6695
-0.065,-0.059,0.167,28.4,-9.9,12.4,0,2018,5,17,19,58,20.14,-0.2487,0.6317,0.2962,-0.6717
-0.083,-0.048,0.168,25.1,-10.7,10.2,0,2018,5,17,19,58,20.156,-0.2474,0.6285,0.2998,-0.6736
-0.084,0.015,0.182,19.9,-13.2,10.6,0,2018,5,17,19,58,20.18,-0.2462,0.6258,0.3033,-0.675
-0.069,0.076,0.143,17.3,-22.7,13.6,0,2018,5,17,19,58,20.216,-0.2446,0.6238,0.3075,-0.6755
-0.11,0.012,0.16,18.6,-26.5,16.9,0,2018,5,17,19,58,20.216,-0.2426,0.6219,0.3131,-0.6754
-0.183,-0.04,0.15,14.4,-9.1,19.7,0,2018,5,17,19,58,20.239,-0.2418,0.6197,0.318,-0.6754
-0.16,0.029,0.109,8.5,14.4,27.4,0,2018,5,17,19,58,20.257,-0.2443,0.617,0.3206,-0.6758
-0.201,0.113,0.072,7,26.5,33.8,0,2018,5,17,19,58,20.295,-0.2501,0.6133,0.3215,-0.6766
-0.259,0.141,0.116,6.4,15.9,37.8,0,2018,5,17,19,58,20.315,-0.2562,0.6095,0.3231,-0.677
-0.328,0.04,0.181,-0.7,11.3,43.2,0,2018,5,17,19,58,20.321,-0.2621,0.6063,0.3262,-0.6761
-0.3,0.07,0.193,-11.8,8.7,46.8,0,2018,5,17,19,58,20.337,-0.2691,0.604,0.3293,-0.6739
-0.331,0.003,0.264,-22.5,4.8,50.1,0,2018,5,17,19,58,20.361,-0.2764,0.6029,0.3329,-0.6702
-0.363,-0.079,0.214,-36.1,19.3,51.1,0,2018,5,17,19,58,20.376,-0.2852,0.6028,0.3355,-0.6652
-0.422,-0.1,0.243,-52.7,36.5,52.8,0,2018,5,17,19,58,20.4,-0.2968,0.6035,0.3354,-0.6596
-0.377,-0.193,0.252,-71.6,53.8,51.7,0,2018,5,17,19,58,20.437,-0.3112,0.6052,0.3324,-0.6528
-0.349,-0.279,0.208,-87,80.6,48.3,0,2018,5,17,19,58,20.437,-0.3286,0.6077,0.3257,-0.6454
-0.415,-0.334,0.202,-102.4,113.9,41.2,0,2018,5,17,19,58,20.459,-0.3494,0.61,0.3138,-0.6381
-0.413,-0.189,0.218,-123.3,135.9,37.4,0,2018,5,17,19,58,20.477,-0.3731,0.6125,0.2968,-0.6304
-0.105,-0.087,0.169,-144.9,156.1,38.3,0,2018,5,17,19,58,20.5,-0.3997,0.6155,0.2757,-0.6207
-0.062,-0.111,0.135,-156.8,170.1,36.5,1023,2018,5,17,19,58,20.52,-0.4285,0.6181,0.2513,-0.6091
-0.151,-0.198,0.224,-165.5,157.2,21.4,1023,2018,5,17,19,58,20.537,-0.4565,0.6208,0.2244,-0.5963
0.061,-0.162,0.186,-170.7,98.9,-3.9,1023,2018,5,17,19,58,20.561,-0.4773,0.6277,0.1984,-0.582
0.208,-0.277,0.017,-164.9,57.2,-27.5,1023,2018,5,17,19,58,20.578,-0.4893,0.6386,0.1746,-0.5675
0.074,-0.339,-0.015,-160.1,70.8,-43.9,1023,2018,5,17,19,58,20.598,-0.4968,0.6507,0.1513,-0.5539
0.057,-0.388,-0.092,-162.1,139,-53.9,1023,2018,5,17,19,58,20.636,-0.5081,0.658,0.1218,-0.542
0.293,-0.235,-0.248,-154,188.9,-69.1,1023,2018,5,17,19,58,20.659,-0.5246,0.6588,0.0846,-0.5324
0.274,0.001,-0.212,-134.8,185.8,-79.5,1023,2018,5,17,19,58,20.663,-0.5414,0.655,0.0449,-0.525
0.158,0.07,-0.109,-113.1,148.6,-85.3,1023,2018,5,17,19,58,20.684,-0.5537,0.6504,0.0086,-0.5197
0.186,0.007,-0.136,-90.1,113.1,-92.8,1023,2018,5,17,19,58,20.703,-0.56,0.647,-0.0228,-0.5168
0.245,-0.068,-0.27,-73,113.8,-100.3,0,2018,5,17,19,58,20.725,-0.5631,0.6429,-0.0514,-0.5166
0.219,-0.007,-0.304,-58.2,143.3,-104.1,0,2018,5,17,19,58,20.742,-0.5674,0.6349,-0.0811,-0.5179
0.113,0.034,-0.247,-41.9,164,-108.3,0,2018,5,17,19,58,20.759,-0.574,0.6221,-0.1118,-0.5204
0.082,0.114,-0.165,-29.3,172.6,-112.1,0,2018,5,17,19,58,20.783,-0.5812,0.6059,-0.143,-0.5239
0.084,0.204,-0.17,-14.9,164.8,-115.6,0,2018,5,17,19,58,20.816,-0.5879,0.5875,-0.173,-0.5283
0.099,0.256,-0.181,-1.2,148.8,-115.5,0,2018,5,17,19,58,20.839,-0.5925,0.5685,-0.2002,-0.5343
0.046,0.242,-0.191,9.5,148.3,-112.2,0,2018,5,17,19,58,20.844,-0.5962,0.5488,-0.2249,-0.541
0.016,0.355,-0.111,19.3,146.1,-106.9,0,2018,5,17,19,58,20.861,-0.6003,0.5275,-0.248,-0.5474
-0.012,0.366,-0.082,26.4,135,-99.5,0,2018,5,17,19,58,20.884,-0.604,0.5059,-0.2684,-0.5541
-0.049,0.345,-0.062,29.3,129,-92,0,2018,5,17,19,58,20.919,-0.6074,0.4848,-0.2867,-0.5601
-0.039,0.355,-0.051,30.4,131.7,-79.9,0,2018,5,17,19,58,20.919,-0.6113,0.4637,-0.3039,-0.5646
-0.059,0.395,-0.034,32.5,121.8,-70.8,0,2018,5,17,19,58,20.943,-0.6159,0.4427,-0.3195,-0.5677
-0.095,0.345,0.034,31.6,101.2,-64.3,0,2018,5,17,19,58,20.96,-0.6194,0.4239,-0.3324,-0.5709
-0.091,0.307,0.056,27.8,94.6,-57.3,0,2018,5,17,19,58,20.984,-0.6222,0.407,-0.3436,-0.5736
-0.065,0.283,-0.018,25.6,98.2,-50.5,0,2018,5,17,19,58,21.02,-0.6252,0.3906,-0.3543,-0.5752
-0.033,0.303,-0.025,24.9,99.2,-45.7,0,2018,5,17,19,58,21.043,-0.6287,0.3742,-0.365,-0.5756
-0.018,0.283,0.014,23.7,92,-43.1,0,2018,5,17,19,58,21.047,-0.632,0.3584,-0.375,-0.5757
0.006,0.319,0.024,24.8,65.4,-43.3,0,2018,5,17,19,58,21.063,-0.6341,0.3444,-0.3831,-0.5765
0.013,0.292,-0.009,26.6,39.3,-41.4,0,2018,5,17,19,58,21.082,-0.6346,0.3334,-0.3882,-0.579
-0.004,0.219,-0.026,27.8,28.1,-39.5,0,2018,5,17,19,58,21.105,-0.6343,0.3243,-0.3909,-0.5826
0.02,0.24,-0.034,27.2,34.2,-35.5,0,2018,5,17,19,58,21.142,-0.6341,0.3156,-0.3931,-0.5862
0.009,0.263,-0.004,27.9,41.2,-33.2,0,2018,5,17,19,58,21.142,-0.6346,0.3063,-0.3959,-0.5887
-0.003,0.279,0.001,27.5,47.2,-30.8,0,2018,5,17,19,58,21.166,-0.6356,0.2962,-0.3992,-0.5905
-0.018,0.277,-0.004,28.1,45.7,-29.6,0,2018,5,17,19,58,21.184,-0.6368,0.2861,-0.4025,-0.592
-0.003,0.217,-0.043,28.1,51.2,-26.9,0,2018,5,17,19,58,21.201,-0.6382,0.2758,-0.4057,-0.5931
-0.026,0.21,-0.076,27.1,58.7,-23.7,1023,2018,5,17,19,58,21.224,-0.6402,0.265,-0.4096,-0.5932
-0.016,0.235,-0.077,27.3,69.3,-20.1,1023,2018,5,17,19,58,21.241,-0.6428,0.2535,-0.4142,-0.5923
-0.06,0.202,-0.076,26.3,92,-15.8,1023,2018,5,17,19,58,21.265,-0.6464,0.2404,-0.4203,-0.5895
-0.069,0.283,-0.012,22.6,109.5,-14.1,1023,2018,5,17,19,58,21.299,-0.651,0.2251,-0.4288,-0.5844
-0.057,0.32,-0.037,24.2,95,-14.9,1023,2018,5,17,19,58,21.323,-0.6553,0.2097,-0.4373,-0.579
-0.048,0.28,-0.052,25.4,61.6,-14.9,1023,2018,5,17,19,58,21.328,-0.6583,0.1972,-0.4428,-0.5757
-0.047,0.235,-0.058,25.5,32.5,-12.7,1023,2018,5,17,19,58,21.346,-0.6605,0.1883,-0.4449,-0.5746
-0.088,0.17,-0.072,24.6,17.3,-9.9,0,2018,5,17,19,58,21.37,-0.6621,0.1822,-0.4447,-0.5748
-0.116,0.194,-0.103,23.2,11.3,-8.2,0,2018,5,17,19,58,21.405,-0.6636,0.1775,-0.4438,-0.5753
-0.132,0.172,-0.142,23.4,7.8,-9.6,0,2018,5,17,19,58,21.405,-0.6648,0.1734,-0.4422,-0.5763
-0.144,0.124,-0.096,20,9.2,-10.8,0,2018,5,17,19,58,21.427,-0.6657,0.1694,-0.4407,-0.5777
-0.149,0.12,-0.045,14.9,14.7,-11.4,0,2018,5,17,19,58,21.445,-0.6663,0.1654,-0.4402,-0.5786
-0.152,0.071,-0.053,8.9,29.2,-13.3,0,2018,5,17,19,58,21.462,-0.6666,0.1607,-0.4415,-0.5786
-0.133,0.112,-0.102,6.9,38.1,-16.6,0,2018,5,17,19,58,21.485,-0.6666,0.1547,-0.4445,-0.5779
-0.131,0.088,-0.16,7,46.4,-19.9,0,2018,5,17,19,58,21.504,-0.6665,0.1477,-0.4484,-0.5769
-0.092,0.129,-0.164,9.3,59.3,-23.9,0,2018,5,17,19,58,21.526,-0.6661,0.139,-0.4532,-0.5756
-0.079,0.088,-0.179,8.4,88.3,-24.9,0,2018,5,17,19,58,21.563,-0.6661,0.1276,-0.46,-0.5729
-0.125,0.018,-0.134,-0.4,140,-24.6,0,2018,5,17,19,58,21.586,-0.6662,0.1118,-0.4716,-0.5666
-0.129,0.125,-0.119,-11.2,183.7,-21.7,0,2018,5,17,19,58,21.591,-0.666,0.0909,-0.4891,-0.5556
-0.096,0.319,-0.094,-13.5,173.7,-23.1,0,2018,5,17,19,58,21.606,-0.6652,0.0689,-0.5085,-0.5422
-0.101,0.324,-0.078,-9.8,123.7,-25.3,0,2018,5,17,19,58,21.624,-0.6633,0.0506,-0.5239,-0.5318
-0.082,0.422,-0.119,-2,60.4,-23.8,0,2018,5,17,19,58,21.643,-0.6611,0.0381,-0.5334,-0.5262
-0.126,0.492,-0.031,-2.8,-20.6,-18.2,0,2018,5,17,19,58,21.667,-0.659,0.0342,-0.5352,-0.5272
-0.072,0.523,0.012,-9,-97.1,-3.3,0,2018,5,17,19,58,21.684,-0.6569,0.0408,-0.5303,-0.5342
-0.071,0.501,-0.038,-22,-152.6,18.6,0,2018,5,17,19,58,21.706,-0.6552,0.0576,-0.5197,-0.545
-0.055,0.518,0.031,-39.7,-182.4,39.3,0,2018,5,17,19,58,21.745,-0.6531,0.0828,-0.5066,-0.5566
-0.055,0.464,0.037,-53.3,-192.6,56.6,0,2018,5,17,19,58,21.768,-0.6506,0.1132,-0.4926,-0.5666
0.012,0.457,-0.077,-57.7,-200.4,65.7,0,2018,5,17,19,58,21.773,-0.6476,0.1463,-0.4782,-0.5748
0.043,0.381,-0.235,-52.1,-207.7,72.2,0,2018,5,17,19,58,21.789,-0.6443,0.1807,-0.4619,-0.582
0.089,0.28,-0.221,-43.3,-187.7,78.8,0,2018,5,17,19,58,21.807,-0.6415,0.2138,-0.4443,-0.5875
0.115,0.347,-0.106,-33.1,-169.4,80,0,2018,5,17,19,58,21.83,-0.6398,0.2436,-0.4275,-0.5902
0.095,0.333,-0.064,-22.7,-164.3,79.8,0,2018,5,17,19,58,21.846,-0.6386,0.2709,-0.4099,-0.5921
0.108,0.267,-0.102,-11.5,-142.1,83.5,1023,2018,5,17,19,58,21.864,-0.6383,0.2955,-0.392,-0.5928
0.11,0.227,-0.146,-0.3,-117.4,86.1,1023,2018,5,17,19,58,21.887,-0.6399,0.3162,-0.3749,-0.5915
0.091,0.224,-0.12,9.8,-108.5,84.6,1023,2018,5,17,19,58,21.905,-0.6427,0.3338,-0.3581,-0.5892
0.05,0.087,-0.019,19.2,-100.6,81,1023,2018,5,17,19,58,21.927,-0.6459,0.349,-0.3409,-0.5871
0.036,0.065,0.034,22.3,-88.3,72.9,1023,2018,5,17,19,58,21.964,-0.6489,0.3616,-0.3247,-0.5852
0.025,0.132,0.04,24,-95.8,62.6,1023,2018,5,17,19,58,21.987,-0.6511,0.3726,-0.3092,-0.5843
0.008,0.067,-0.016,27,-109.5,53.6,1023,2018,5,17,19,58,21.991,-0.6514,0.3844,-0.2927,-0.5848
-0.004,0.053,-0.064,30.9,-119.5,42.7,0,2018,5,17,19,58,22.009,-0.6495,0.397,-0.2753,-0.587
-0.045,0.063,-0.048,33.7,-123.2,34.2,0,2018,5,17,19,58,22.03,-0.646,0.4093,-0.2568,-0.5907
-0.036,0.07,-0.008,34,-105,30.6,0,2018,5,17,19,58,22.068,-0.6424,0.4198,-0.2391,-0.5947
-0.053,0.095,-0.077,33.6,-87.7,27,0,2018,5,17,19,58,22.092,-0.6395,0.4278,-0.2239,-0.5981
-0.108,0.022,-0.154,34.2,-77.5,18.7,0,2018,5,17,19,58,22.095,-0.6366,0.4347,-0.2104,-0.6011
-0.178,-0.045,-0.176,33.1,-53.7,11.6,0,2018,5,17,19,58,22.11,-0.6342,0.4392,-0.1983,-0.6044
-0.268,-0.058,-0.068,25.9,-14,6.9,0,2018,5,17,19,58,22.126,-0.6336,0.4401,-0.1908,-0.6068
-0.309,-0.02,-0.03,15.2,22.6,-2.1,0,2018,5,17,19,58,22.15,-0.6351,0.4373,-0.189,-0.6079
-0.33,0.051,-0.028,5.5,46,-14.2,0,2018,5,17,19,58,22.183,-0.6374,0.4318,-0.1924,-0.6084
-0.372,-0.017,-0.025,-3.5,58.1,-29.1,0,2018,5,17,19,58,22.206,-0.639,0.425,-0.1994,-0.6092
-0.302,-0.06,0.01,-16.8,84.7,-39.7,0,2018,5,17,19,58,22.211,-0.64,0.417,-0.2105,-0.61
-0.259,0.052,0.115,-31,120.6,-45.5,0,2018,5,17,19,58,22.23,-0.6421,0.4061,-0.2275,-0.6091
-0.166,0.374,0.221,-38.2,79.2,-59.5,0,2018,5,17,19,58,22.252,-0.6425,0.3957,-0.2465,-0.608
-0.103,0.344,0.188,-41.2,9.9,-62.8,0,2018,5,17,19,58,22.27,-0.6369,0.3926,-0.2595,-0.6105
-0.025,0.222,0.11,-47.3,-12.9,-63.1,0,2018,5,17,19,58,22.294,-0.6276,0.3952,-0.2679,-0.6148
0.007,0.098,0.025,-56,19,-62,0,2018,5,17,19,58,22.308,-0.6183,0.3977,-0.2779,-0.6182
0.04,0.184,0.047,-62.9,56.2,-61.4,0,2018,5,17,19,58,22.346,-0.6116,0.3961,-0.2938,-0.6185
0.111,0.323,0.044,-57.9,34.2,-61.4,0,2018,5,17,19,58,22.369,-0.605,0.3943,-0.31,-0.6182
0.165,0.313,-0.004,-47.9,4.2,-57.5,0,2018,5,17,19,58,22.374,-0.5969,0.395,-0.3217,-0.6197
0.19,0.359,0.027,-38.9,-4,-52.1,0,2018,5,17,19,58,22.392,-0.5885,0.3966,-0.33,-0.6223
0.176,0.381,0.07,-29.6,-17,-45.5,0,2018,5,17,19,58,22.411,-0.5805,0.3986,-0.3359,-0.6254
0.179,0.353,0.046,-19.3,-21.6,-35.9,0,2018,5,17,19,58,22.432,-0.5732,0.4011,-0.3391,-0.6288
0.206,0.409,0.002,-9,-16,-22.8,0,2018,5,17,19,58,22.469,-0.5679,0.4028,-0.3407,-0.6317
0.204,0.451,-0.056,2.5,-17.4,-6,0,2018,5,17,19,58,22.492,-0.5649,0.4039,-0.3403,-0.6338
0.158,0.433,-0.036,10.2,-13.1,16.6,1023,2018,5,17,19,58,22.496,-0.5649,0.4051,-0.3377,-0.6345
0.145,0.468,0.04,15.3,-6.8,39.2,1023,2018,5,17,19,58,22.515,-0.5682,0.4061,-0.3335,-0.633
0.105,0.469,0.003,23.1,-18.4,60.7,1023,2018,5,17,19,58,22.561,-0.5742,0.4083,-0.3267,-0.6298
0.08,0.318,-0.052,30.8,-10.7,75.8,1023,2018,5,17,19,58,22.563,-0.5821,0.4109,-0.3173,-0.6257
0.054,0.31,-0.052,34.7,14.5,87.3,1023,2018,5,17,19,58,22.569,-0.5931,0.4115,-0.3085,-0.6193
-0.011,0.3,-0.003,40.1,15.1,90.5,1023,2018,5,17,19,58,22.608,-0.606,0.4105,-0.3002,-0.6115
-0.083,0.27,0.032,46.1,-10.6,84.4,1023,2018,5,17,19,58,22.63,-0.6178,0.4101,-0.2896,-0.605
-0.112,0.164,0.006,51,-37.9,78.3,1023,2018,5,17,19,58,22.633,-0.6269,0.4119,-0.2759,-0.6008
-0.14,0.059,-0.068,53.1,-47.7,71.4,0,2018,5,17,19,58,22.668,-0.634,0.4145,-0.2604,-0.5985
-0.19,0.069,-0.175,56.3,-52.7,58.6,0,2018,5,17,19,58,22.692,-0.6395,0.4175,-0.2445,-0.5972
-0.268,0.088,-0.116,58.4,-54,43.8,0,2018,5,17,19,58,22.696,-0.6432,0.4195,-0.2289,-0.5981
-0.332,-0.09,-0.003,48.6,-43.8,23.5,0,2018,5,17,19,58,22.716,-0.6454,0.4207,-0.2151,-0.6
-0.387,-0.151,0.096,32.4,-24.1,1.8,0,2018,5,17,19,58,22.752,-0.6457,0.4208,-0.2063,-0.6027
-0.419,-0.159,0.103,12.4,-3.5,-19.9,0,2018,5,17,19,58,22.776,-0.6445,0.4196,-0.203,-0.606
-0.361,-0.074,0.076,-5,16.7,-38.3,0,2018,5,17,19,58,22.779,-0.6419,0.4174,-0.2055,-0.6094
-0.358,-0.013,0.104,-22.8,24.8,-53.4,0,2018,5,17,19,58,22.792,-0.6379,0.4148,-0.2126,-0.613
-0.209,0.1,0.13,-38.7,47.6,-62.7,0,2018,5,17,19,58,22.828,-0.6333,0.4114,-0.2245,-0.6157
-0.204,0.11,0.1,-48.4,42.2,-63,0,2018,5,17,19,58,22.85,-0.6281,0.4087,-0.2386,-0.6175
-0.103,0.083,0.036,-55.9,55.1,-67.2,0,2018,5,17,19,58,22.855,-0.6221,0.4063,-0.2538,-0.6191
-0.001,0.231,0.062,-56.2,57.8,-73.5,0,2018,5,17,19,58,22.89,-0.6159,0.4029,-0.271,-0.6203
0.005,0.167,0.042,-58.1,64.9,-75.7,0,2018,5,17,19,58,22.913,-0.6092,0.399,-0.2889,-0.6214
0.071,0.199,-0.038,-57.5,83.3,-77.7,0,2018,5,17,19,58,22.917,-0.603,0.3933,-0.3084,-0.6216
0.154,0.345,-0.035,-50.1,86.9,-77.5,0,2018,5,17,19,58,22.939,-0.5976,0.3856,-0.3289,-0.6211
0.194,0.431,0.046,-38.3,57,-77.2,0,2018,5,17,19,58,22.956,-0.5913,0.3784,-0.3465,-0.622
0.165,0.401,0.098,-27.9,28,-74.5,0,2018,5,17,19,58,22.993,-0.5838,0.373,-0.3594,-0.6251
0.168,0.398,0.109,-21.8,10.8,-68.4,0,2018,5,17,19,58,22.993,-0.5755,0.3694,-0.3686,-0.6295
0.181,0.441,0.069,-15.6,6.7,-55.3,0,2018,5,17,19,58,23.017,-0.568,0.3667,-0.3755,-0.6338
0.18,0.473,0.08,-7.9,7.4,-33.3,0,2018,5,17,19,58,23.035,-0.5628,0.3644,-0.3804,-0.6369
0.167,0.556,0.107,-3.2,0.9,-8.5,0,2018,5,17,19,58,23.07,-0.5606,0.3631,-0.383,-0.638
0.162,0.575,0.058,2.9,-8.7,17.9,0,2018,5,17,19,58,23.093,-0.561,0.364,-0.3825,-0.6374
0.13,0.524,0.019,10.9,-13.7,42.1,0,2018,5,17,19,58,23.098,-0.5643,0.3665,-0.3789,-0.6352
0.097,0.425,-0.038,18.9,-9.2,65,0,2018,5,17,19,58,23.118,-0.5706,0.3696,-0.3727,-0.6314
0.098,0.392,-0.054,26.5,3.1,82.5,0,2018,5,17,19,58,23.134,-0.5801,0.3722,-0.3654,-0.6255
0.041,0.383,-0.035,36.7,-2.6,93.9,1023,2018,5,17,19,58,23.157,-0.5919,0.3742,-0.3566,-0.6183
0.012,0.251,0.012,45.6,-11,99.1,1023,2018,5,17,19,58,23.193,-0.6043,0.3765,-0.345,-0.6114
-0.024,0.237,-0.001,51.5,-8.9,99.6,1023,2018,5,17,19,58,23.217,-0.6173,0.3783,-0.3323,-0.6044
-0.003,0.262,-0.048,58.1,-20,95.2,1023,2018,5,17,19,58,23.221,-0.6296,0.3796,-0.3184,-0.5983
-0.083,0.179,-0.049,60.8,-31,90.1,1023,2018,5,17,19,58,23.236,-0.6408,0.3813,-0.3028,-0.5934
-0.116,0.142,-0.032,60.6,-38.5,80.8,1023,2018,5,17,19,58,23.254,-0.6505,0.3834,-0.2868,-0.5894
-0.155,-0.002,-0.021,58.7,-37.6,69.6,1023,2018,5,17,19,58,23.277,-0.6586,0.385,-0.2707,-0.587
-0.135,0.051,-0.099,53.6,-29,52.8,0,2018,5,17,19,58,23.313,-0.6655,0.3858,-0.2563,-0.5851
-0.14,0.004,-0.021,51.4,-25.6,38.9,0,2018,5,17,19,58,23.337,-0.6707,0.3854,-0.244,-0.5847
-0.179,-0.145,0.084,39.9,-1.3,21.2,0,2018,5,17,19,58,23.34,-0.6748,0.3836,-0.235,-0.5849
-0.168,-0.176,0.097,24.3,39.8,3.7,0,2018,5,17,19,58,23.358,-0.6787,0.3785,-0.2326,-0.5846
-0.157,-0.16,0.039,13.9,67.1,-16.1,0,2018,5,17,19,58,23.376,-0.6824,0.3698,-0.2367,-0.5842
-0.072,-0.036,-0.132,14,69.5,-36.1,0,2018,5,17,19,58,23.399,-0.6847,0.3592,-0.2437,-0.5853
-0.018,0.02,-0.139,20.3,70.5,-45.2,0,2018,5,17,19,58,23.435,-0.6851,0.3483,-0.2517,-0.588
-0.073,0.034,0.006,19.5,81.8,-51,0,2018,5,17,19,58,23.456,-0.6855,0.3349,-0.26,-0.5917
-0.092,0.051,0,14.3,108.7,-55.4,0,2018,5,17,19,58,23.462,-0.6863,0.3186,-0.2705,-0.5951
-0.045,0.169,-0.081,12.5,127.3,-56.7,0,2018,5,17,19,58,23.477,-0.6874,0.2995,-0.2846,-0.5972
-0.057,0.268,-0.06,13.1,127,-49.5,0,2018,5,17,19,58,23.514,-0.6888,0.28,-0.2989,-0.598
-0.075,0.372,-0.036,15,112,-44.6,0,2018,5,17,19,58,23.535,-0.6904,0.2615,-0.3119,-0.598
-0.076,0.395,-0.012,19.6,80.4,-41.4,0,2018,5,17,19,58,23.539,-0.691,0.2458,-0.3215,-0.5988
-0.078,0.315,-0.01,21.8,61.4,-40.2,0,2018,5,17,19,58,23.557,-0.6907,0.2329,-0.3277,-0.601
-0.066,0.254,-0.012,20.6,55.1,-37.5,0,2018,5,17,19,58,23.581,-0.6901,0.2214,-0.3327,-0.6032
-0.05,0.214,-0.05,18.2,52.9,-36.4,0,2018,5,17,19,58,23.616,-0.6893,0.2107,-0.3374,-0.6053
-0.105,0.166,-0.094,17.4,47.6,-39.7,0,2018,5,17,19,58,23.64,-0.688,0.2005,-0.3418,-0.6078
-0.086,0.172,-0.113,17.6,49.2,-42.3,0,2018,5,17,19,58,23.645,-0.6862,0.1904,-0.346,-0.6108
-0.058,0.187,-0.08,18.9,55.4,-41.9,0,2018,5,17,19,58,23.661,-0.6843,0.1796,-0.3505,-0.6135
-0.092,0.197,-0.056,18.8,59.2,-44.4,0,2018,5,17,19,58,23.684,-0.6826,0.1679,-0.3557,-0.6158
-0.141,0.248,-0.021,16.2,50.5,-47.9,0,2018,5,17,19,58,23.697,-0.6801,0.1566,-0.3607,-0.6187
-0.129,0.296,0.015,11.5,44.6,-47.5,0,2018,5,17,19,58,23.733,-0.677,0.1464,-0.3654,-0.6218
-0.105,0.387,0.061,6.7,27.4,-45.3,0,2018,5,17,19,58,23.756,-0.6733,0.138,-0.3693,-0.6254
-0.052,0.441,0.023,4.4,4.8,-39.4,0,2018,5,17,19,58,23.76,-0.6691,0.1329,-0.3711,-0.6299
-0.029,0.441,0.008,2.3,-15.1,-29.3,0,2018,5,17,19,58,23.778,-0.6652,0.1309,-0.3707,-0.6346
0.005,0.397,-0.031,-2,-22.7,-17.3,1023,2018,5,17,19,58,23.801,-0.662,0.1318,-0.3687,-0.639
-0.002,0.403,0.026,-8.9,-4.8,-2.5,1023,2018,5,17,19,58,23.82,-0.6601,0.1334,-0.3677,-0.6412
0.02,0.485,0.061,-18.7,13.9,14.2,1023,2018,5,17,19,58,23.842,-0.6598,0.1347,-0.3697,-0.64
0.033,0.562,-0.011,-25.4,7.6,31.3,1023,2018,5,17,19,58,23.878,-0.6612,0.1372,-0.3732,-0.636
0.059,0.507,-0.101,-23.3,-16.6,46.1,1023,2018,5,17,19,58,23.899,-0.6636,0.1433,-0.3744,-0.6314
0.054,0.327,-0.115,-19.3,-12.8,59.8,1023,2018,5,17,19,58,23.901,-0.6676,0.1511,-0.3734,-0.626
0.059,0.351,-0.086,-16.6,7.5,74,1023,2018,5,17,19,58,23.936,-0.6736,0.1576,-0.3736,-0.6178
0.044,0.365,-0.049,-8.4,5.4,84.1,1023,2018,5,17,19,58,23.957,-0.6814,0.1632,-0.3735,-0.6078
0.068,0.44,-0.05,0.3,-13.1,89.7,0,2018,5,17,19,58,23.959,-0.6901,0.1697,-0.371,-0.5976
0.046,0.393,-0.166,11.6,-36.6,93.5,0,2018,5,17,19,58,23.995,-0.6991,0.1781,-0.3647,-0.5885
-0.022,0.19,-0.275,22.2,-48.4,95.8,0,2018,5,17,19,58,24.017,-0.7084,0.1878,-0.3549,-0.5803
-0.068,0.187,-0.195,28.4,-52.7,91.4,0,2018,5,17,19,58,24.021,-0.7177,0.1973,-0.3434,-0.5726
-0.061,0.114,-0.056,30.5,-45.9,86.9,0,2018,5,17,19,58,24.058,-0.7266,0.2056,-0.3316,-0.5654
-0.094,0.162,0,27.7,-50.4,79.7,0,2018,5,17,19,58,24.079,-0.7346,0.2134,-0.3201,-0.5588
-0.195,-0.001,-0.045,22,-61.8,67.8,0,2018,5,17,19,58,24.08,-0.7412,0.2219,-0.3083,-0.5533
-0.138,-0.034,-0.157,20.2,-72,48.5,0,2018,5,17,19,58,24.116,-0.7453,0.2318,-0.2963,-0.5502
-0.145,-0.021,-0.132,23.7,-84.1,30.2,0,2018,5,17,19,58,24.136,-0.747,0.2425,-0.2842,-0.5497
-0.142,-0.215,-0.158,23.4,-61.2,6.5,0,2018,5,17,19,58,24.142,-0.7468,0.2513,-0.2726,-0.5519
-0.158,-0.244,-0.151,15.2,-8.4,-17.9,0,2018,5,17,19,58,24.158,-0.7456,0.2534,-0.2671,-0.5553
-0.107,-0.123,-0.105,1.9,45.1,-33.3,0,2018,5,17,19,58,24.18,-0.7441,0.2488,-0.2688,-0.5585
-0.08,0.087,-0.179,3.1,64.4,-46.6,0,2018,5,17,19,58,24.215,-0.7424,0.2392,-0.2761,-0.5614
-0.058,0.13,-0.209,9.3,72.6,-54.7,0,2018,5,17,19,58,24.237,-0.7404,0.2272,-0.2841,-0.565
-0.042,0.09,-0.247,19.3,75.9,-64.9,0,2018,5,17,19,58,24.242,-0.738,0.2131,-0.2917,-0.5698
-0.105,0.047,-0.262,23.5,93.4,-70.2,0,2018,5,17,19,58,24.278,-0.7354,0.1965,-0.2997,-0.575
-0.127,0.171,-0.192,21.9,113.4,-73.4,0,2018,5,17,19,58,24.3,-0.7325,0.1769,-0.3095,-0.5797
-0.119,0.26,-0.201,23.5,120.6,-74.6,0,2018,5,17,19,58,24.301,-0.7297,0.1553,-0.3208,-0.5834
-0.078,0.275,-0.198,26.4,121.1,-76.4,0,2018,5,17,19,58,24.341,-0.7263,0.1331,-0.3317,-0.587
-0.095,0.373,-0.1,25.9,115.8,-76.1,0,2018,5,17,19,58,24.362,-0.7225,0.1104,-0.3425,-0.5902
-0.097,0.424,-0.013,29.5,71.8,-78,0,2018,5,17,19,58,24.363,-0.7178,0.091,-0.3499,-0.5949
-0.128,0.538,0.048,28.3,14.7,-76.9,0,2018,5,17,19,58,24.38,-0.7119,0.0776,-0.3519,-0.6026
-0.16,0.346,-0.044,26.8,-25.7,-71.9,0,2018,5,17,19,58,24.4,-0.7055,0.0716,-0.348,-0.613
-0.158,0.274,-0.055,22.6,-24.3,-70,1023,2018,5,17,19,58,24.435,-0.699,0.0678,-0.343,-0.6237
-0.108,0.45,-0.008,15.8,-20.2,-57.3,1023,2018,5,17,19,58,24.456,-0.6926,0.0646,-0.3389,-0.6333
-0.056,0.541,-0.01,13.3,-30.5,-40.7,1023,2018,5,17,19,58,24.463,-0.6877,0.0631,-0.335,-0.6408
-0.103,0.478,0.015,4.3,-19.5,-19.8,1023,2018,5,17,19,58,24.499,-0.6847,0.0636,-0.3311,-0.6461
-0.156,0.432,0.037,-7.7,-2.4,-3,1023,2018,5,17,19,58,24.52,-0.6832,0.0643,-0.3304,-0.6478
-0.189,0.372,-0.049,-18.1,-2.4,6.8,1023,2018,5,17,19,58,24.524,-0.6827,0.0662,-0.3318,-0.6475
-0.18,0.324,-0.064,-27.5,-6.5,12.5,1023,2018,5,17,19,58,24.562,-0.6824,0.0698,-0.334,-0.6463
-0.175,0.362,-0.064,-34.6,-15.2,17.3,1023,2018,5,17,19,58,24.586,-0.6819,0.0755,-0.3361,-0.6451
-0.11,0.367,-0.068,-36,-37.7,17.5,0,2018,5,17,19,58,24.589,-0.6813,0.0838,-0.337,-0.6442
-0.181,0.24,-0.037,-42.1,-51.3,14.7,0,2018,5,17,19,58,24.606,-0.68,0.0946,-0.3359,-0.6447
-0.206,0.271,0.04,-57.4,-61.5,7.3,0,2018,5,17,19,58,24.629,-0.6771,0.1074,-0.3352,-0.6461
-0.136,0.339,-0.012,-67.7,-77.1,4.3,0,2018,5,17,19,58,24.644,-0.6725,0.1231,-0.3346,-0.6485
-0.118,0.287,-0.098,-72.7,-82.9,3.3,0,2018,5,17,19,58,24.663,-0.6668,0.1408,-0.3334,-0.6513
-0.049,0.319,-0.207,-73.8,-83.9,4.4,0,2018,5,17,19,58,24.687,-0.6607,0.159,-0.3323,-0.6539
-0.025,0.371,-0.183,-72,-91.1,5.7,0,2018,5,17,19,58,24.703,-0.6544,0.1776,-0.3304,-0.6564
-0.066,0.359,-0.065,-76.9,-83.7,11.8,0,2018,5,17,19,58,24.724,-0.6481,0.1966,-0.3282,-0.6584
-0.032,0.444,-0.1,-81.8,-74.1,25.2,0,2018,5,17,19,58,24.762,-0.6428,0.2157,-0.3275,-0.6579
0.016,0.446,-0.215,-76.8,-63.9,42.6,0,2018,5,17,19,58,24.785,-0.6394,0.2346,-0.3272,-0.6549
0.058,0.34,-0.175,-65.1,-43.2,59.8,0,2018,5,17,19,58,24.789,-0.6388,0.2517,-0.3266,-0.6494
0.083,0.239,-0.039,-55.7,-5.4,75.5,0,2018,5,17,19,58,24.808,-0.6418,0.265,-0.3272,-0.6408
0.058,0.388,0.071,-47.9,7.3,86.1,0,2018,5,17,19,58,24.827,-0.6482,0.2746,-0.3298,-0.6288
0.089,0.42,-0.071,-30.4,-31.7,91.5,0,2018,5,17,19,58,24.846,-0.655,0.2854,-0.3286,-0.6175
0.101,0.194,-0.253,-11.2,-48.6,92.8,0,2018,5,17,19,58,24.863,-0.6616,0.2979,-0.3215,-0.6082
0.049,0.066,-0.18,-0.2,-36.8,89.2,0,2018,5,17,19,58,24.886,-0.6687,0.3086,-0.3127,-0.5997
0.053,0.13,-0.045,9.7,-40.4,81.1,0,2018,5,17,19,58,24.904,-0.6759,0.3169,-0.3045,-0.5915
0.043,0.131,-0.093,18.9,-68.4,73.5,0,2018,5,17,19,58,24.928,-0.6813,0.3261,-0.2927,-0.5862
0.068,0.07,-0.047,27.5,-70.2,63.8,0,2018,5,17,19,58,24.964,-0.6851,0.3357,-0.2793,-0.5829
0.031,0.114,0.026,31.1,-71.2,55,0,2018,5,17,19,58,24.987,-0.688,0.3437,-0.2662,-0.581
-0.005,0.123,-0.019,33.9,-76.9,45,0,2018,5,17,19,58,24.992,-0.6897,0.3509,-0.2526,-0.5806
-0.014,0.065,-0.022,36.1,-67.4,36.1,0,2018,5,17,19,58,25.008,-0.6907,0.3574,-0.2389,-0.5813
-0.032,0.128,-0.011,39.3,-71.8,27.5,0,2018,5,17,19,58,25.027,-0.6909,0.3624,-0.2263,-0.583
-0.098,-0.038,0.038,38.9,-80.4,14.6,0,2018,5,17,19,58,25.051,-0.6897,0.3681,-0.2123,-0.5862
-0.126,-0.145,0.068,34.5,-65.3,-1.7,0,2018,5,17,19,58,25.068,-0.6869,0.3732,-0.1998,-0.5905
-0.106,-0.076,0.028,30,-54.6,-17,1023,2018,5,17,19,58,25.084,-0.683,0.3766,-0.1903,-0.596
-0.076,0.016,0.046,26.4,-44.1,-28.9,1023,2018,5,17,19,58,25.106,-0.6786,0.3784,-0.1827,-0.6022
-0.136,-0.04,0.077,18.6,-28,-40.2,1023,2018,5,17,19,58,25.126,-0.6735,0.3789,-0.1778,-0.6091
-0.14,-0.013,0.088,3.4,24.5,-43.2,1023,2018,5,17,19,58,25.149,-0.6689,0.3769,-0.1786,-0.6152
-0.131,0.217,0.088,-9.5,66.9,-38.5,1023,2018,5,17,19,58,25.168,-0.6676,0.37,-0.187,-0.6183
-0.085,0.248,-0.01,-14.6,77.5,-35.6,1023,2018,5,17,19,58,25.192,-0.6677,0.3615,-0.1985,-0.6196
-0.087,0.208,-0.099,-18.1,94.8,-33.3,1023,2018,5,17,19,58,25.209,-0.6688,0.3521,-0.2119,-0.6195
-0.086,0.212,-0.127,-22.1,125.1,-27.8,1023,2018,5,17,19,58,25.228,-0.6712,0.3402,-0.2278,-0.6178
-0.049,0.401,-0.044,-18,119.2,-27.5,1023,2018,5,17,19,58,25.248,-0.6749,0.3262,-0.2452,-0.6147
-0.043,0.356,-0.036,-13.2,83.6,-31.2,0,2018,5,17,19,58,25.286,-0.6765,0.3147,-0.2593,-0.6131
-0.048,0.265,-0.08,-15.6,75.9,-28,0,2018,5,17,19,58,25.31,-0.6768,0.3057,-0.2707,-0.6124
-0.006,0.299,-0.091,-12.4,83.1,-25.4,0,2018,5,17,19,58,25.314,-0.6773,0.2965,-0.2821,-0.6112
-0.02,0.307,-0.064,-11.2,90.5,-18.8,0,2018,5,17,19,58,25.327,-0.6788,0.2863,-0.2939,-0.6088
-0.031,0.328,-0.011,-9.5,83.3,-17.8,0,2018,5,17,19,58,25.346,-0.6807,0.276,-0.3053,-0.6059
-0.039,0.325,0.038,-7.7,58.6,-22.2,0,2018,5,17,19,58,25.368,-0.6815,0.2672,-0.3148,-0.604
-0.03,0.257,0.056,-9.3,34.5,-26.7,0,2018,5,17,19,58,25.407,-0.6805,0.2615,-0.3216,-0.604
-0.015,0.228,0.05,-14.5,34.7,-29,0,2018,5,17,19,58,25.407,-0.6784,0.2572,-0.3279,-0.6049
0.002,0.266,0.026,-22.8,46.8,-30.3,0,2018,5,17,19,58,25.429,-0.676,0.2527,-0.3357,-0.6053
0.024,0.405,0.082,-25.4,32,-35.3,0,2018,5,17,19,58,25.466,-0.6729,0.2483,-0.3443,-0.6057
0.019,0.384,0.119,-27.2,4.5,-39.9,0,2018,5,17,19,58,25.489,-0.6679,0.2469,-0.3508,-0.608
0.028,0.317,0.123,-34.6,10.3,-37.8,0,2018,5,17,19,58,25.493,-0.662,0.2472,-0.3565,-0.611
0.081,0.435,0.098,-43.6,32.6,-32.1,0,2018,5,17,19,58,25.528,-0.6567,0.2465,-0.365,-0.6121
0.091,0.566,0.079,-50.1,30.6,-23,0,2018,5,17,19,58,25.552,-0.652,0.2461,-0.3749,-0.6113
0.083,0.608,0.082,-54.6,27,-10.3,0,2018,5,17,19,58,25.555,-0.648,0.2473,-0.3848,-0.6088
0.064,0.609,0.086,-57,15,3.8,0,2018,5,17,19,58,25.571,-0.6449,0.2506,-0.3937,-0.6051
0.009,0.504,0.049,-55.8,-7.3,17.4,0,2018,5,17,19,58,25.589,-0.6424,0.2568,-0.4001,-0.6009
0.02,0.493,-0.024,-53.2,-41.5,25.7,0,2018,5,17,19,58,25.613,-0.6399,0.2668,-0.4028,-0.5974
0.054,0.591,-0.078,-46.4,-100.1,30.7,0,2018,5,17,19,58,25.628,-0.636,0.282,-0.3998,-0.5966
0.052,0.541,-0.125,-40.6,-144.1,38.3,0,2018,5,17,19,58,25.652,-0.6303,0.3029,-0.3899,-0.5991
0.023,0.542,-0.06,-39.9,-158.1,47.1,0,2018,5,17,19,58,25.669,-0.6239,0.3266,-0.3762,-0.6019
-0.047,0.521,-0.038,-41.6,-176.1,50.3,0,2018,5,17,19,58,25.693,-0.6166,0.3523,-0.3602,-0.6048
-0.06,0.517,-0.029,-44.7,-180.2,54.4,0,2018,5,17,19,58,25.728,-0.6081,0.3792,-0.3427,-0.6073
-0.054,0.541,-0.067,-47.1,-189.3,54.7,0,2018,5,17,19,58,25.751,-0.5988,0.4068,-0.3246,-0.6086
-0.05,0.507,-0.115,-47.1,-212.9,51.4,0,2018,5,17,19,58,25.755,-0.5872,0.4356,-0.3045,-0.6104
-0.037,0.388,-0.138,-42.3,-223.1,47.6,0,2018,5,17,19,58,25.769,-0.5727,0.4653,-0.2818,-0.6132
-0.019,0.392,-0.062,-35.8,-232,44.9,0,2018,5,17,19,58,25.807,-0.5569,0.494,-0.2576,-0.6159
0.001,0.337,-0.217,-27.6,-239.5,47.3,1023,2018,5,17,19,58,25.83,-0.5395,0.5221,-0.2312,-0.6186
0.009,0.255,-0.337,-16.3,-241.6,41.1,1023,2018,5,17,19,58,25.835,-0.521,0.5486,-0.2035,-0.6213
-0.078,0.037,-0.296,-7.1,-219.7,39.7,1023,2018,5,17,19,58,25.852,-0.5022,0.572,-0.1751,-0.6243
-0.07,0.071,-0.199,-0.7,-181.4,39.8,1023,2018,5,17,19,58,25.873,-0.4862,0.5907,-0.15,-0.6261
-0.03,0.137,-0.113,8.7,-163,43.9,1023,2018,5,17,19,58,25.892,-0.4729,0.6057,-0.1269,-0.627
-0.065,0.066,-0.045,13.6,-153.9,44.1,1023,2018,5,17,19,58,25.914,-0.4609,0.6185,-0.1046,-0.6276
-0.121,0.082,-0.082,17.9,-144.4,47.4,1023,2018,5,17,19,58,25.934,-0.4497,0.6297,-0.0822,-0.6279
-0.125,0.094,-0.084,23.7,-130.2,54.1,1023,2018,5,17,19,58,25.97,-0.4396,0.6395,-0.0602,-0.6277
-0.135,0.014,0.051,27.6,-93.8,64.6,0,2018,5,17,19,58,25.993,-0.4339,0.6457,-0.039,-0.6269
-0.121,0.029,0.102,27,-67.4,71,0,2018,5,17,19,58,25.998,-0.4328,0.6489,-0.0206,-0.6253
-0.145,0.075,0.048,29.2,-59.1,77.5,0,2018,5,17,19,58,26.015,-0.4342,0.6501,-0.003,-0.6234
-0.141,0.167,0.078,30,-55.5,84.6,0,2018,5,17,19,58,26.039,-0.4368,0.6506,0.0146,-0.6209
-0.144,0.089,0.128,31.3,-41.1,88.4,0,2018,5,17,19,58,26.054,-0.4407,0.6501,0.0324,-0.618
-0.153,0.064,0.134,29.1,-27.9,91.4,0,2018,5,17,19,58,26.072,-0.4462,0.6488,0.049,-0.6143
-0.176,0.05,0.113,29.2,-11.5,95.8,0,2018,5,17,19,58,26.095,-0.4537,0.6462,0.0643,-0.6101
-0.22,0.008,0.184,27.6,16,99.1,0,2018,5,17,19,58,26.131,-0.4641,0.6416,0.0777,-0.6056
-0.189,-0.053,0.232,22.2,39.7,98.8,0,2018,5,17,19,58,26.155,-0.4773,0.635,0.0881,-0.6008
-0.134,0.357,0.246,18.1,9.2,102.3,0,2018,5,17,19,58,26.159,-0.491,0.6287,0.0977,-0.5949
-0.128,0.168,0.245,22,-39.3,104.2,0,2018,5,17,19,58,26.174,-0.4992,0.6262,0.1132,-0.5879
-0.12,-0.104,0.283,14.5,-38.3,97.1,0,2018,5,17,19,58,26.198,-0.5045,0.6257,0.1307,-0.5803
-0.135,-0.132,0.317,2.1,-14.9,85.4,0,2018,5,17,19,58,26.214,-0.5107,0.6248,0.1443,-0.5725
-0.15,-0.285,0.362,-11.6,8.9,64.2,0,2018,5,17,19,58,26.238,-0.518,0.6234,0.1526,-0.5653
-0.031,-0.274,0.33,-24.1,36.7,42.8,0,2018,5,17,19,58,26.254,-0.5263,0.6217,0.1543,-0.5591
0.021,-0.231,0.367,-36.6,50,19.5,0,2018,5,17,19,58,26.291,-0.5349,0.6196,0.1506,-0.5542
0.061,-0.189,0.354,-40.8,30.1,-5.7,0,2018,5,17,19,58,26.314,-0.5413,0.6189,0.144,-0.5505
0.104,-0.236,0.358,-44.2,7.9,-32.7,0,2018,5,17,19,58,26.318,-0.5424,0.6216,0.1364,-0.5484
0.215,-0.166,0.389,-50.9,-25.2,-60.8,0,2018,5,17,19,58,26.338,-0.538,0.6281,0.1274,-0.5474
0.235,-0.158,0.359,-52.2,-63.8,-88.5,0,2018,5,17,19,58,26.355,-0.5268,0.6388,0.119,-0.5478
0.187,-0.157,0.209,-48.6,-81.2,-117.2,0,2018,5,17,19,58,26.377,-0.5095,0.6523,0.1103,-0.55
0.189,0.04,0.065,-38.7,-87.1,-138.9,0,2018,5,17,19,58,26.393,-0.4882,0.6659,0.0991,-0.5552
0.242,0.181,0.065,-16.8,-96.3,-140.8,0,2018,5,17,19,58,26.417,-0.4639,0.6786,0.0895,-0.5622
0.204,0.316,0.081,3.3,-97.1,-131.9,0,2018,5,17,19,58,26.454,-0.4389,0.6889,0.0823,-0.5709
0.167,0.348,0,21,-90.5,-110.2,1023,2018,5,17,19,58,26.454,-0.4151,0.6962,0.0784,-0.5802
0.132,0.394,-0.046,36.9,-62.9,-78.6,1023,2018,5,17,19,58,26.478,-0.3956,0.6998,0.0773,-0.5896
0.076,0.417,0.023,45.1,-27,-45.5,1023,2018,5,17,19,58,26.512,-0.3834,0.6993,0.0773,-0.5983
0.053,0.562,0.121,48.3,-8.3,-15.5,1023,2018,5,17,19,58,26.534,-0.3778,0.6957,0.0783,-0.6058
-0.001,0.57,0.174,51.1,-12.4,13.6,1023,2018,5,17,19,58,26.539,-0.376,0.6909,0.0829,-0.6117
-0.067,0.436,0.198,52.3,-23.3,35.8,1023,2018,5,17,19,58,26.555,-0.3758,0.6861,0.0917,-0.616
-0.155,0.242,0.207,51.1,-26.2,48.2,0,2018,5,17,19,58,26.579,-0.3767,0.6814,0.1032,-0.6189
-0.192,0.264,0.252,42.7,-23.2,54.4,0,2018,5,17,19,58,26.615,-0.3787,0.6766,0.1151,-0.6207
-0.178,0.267,0.213,38.5,-40.4,59.9,0,2018,5,17,19,58,26.635,-0.3804,0.6731,0.1281,-0.621
-0.221,0.101,0.221,34.8,-46.3,62.1,0,2018,5,17,19,58,26.64,-0.3809,0.6706,0.1428,-0.6202
-0.219,0.055,0.217,30.3,-34.3,63.8,0,2018,5,17,19,58,26.676,-0.3822,0.6679,0.157,-0.6189
-0.192,0.075,0.174,28.8,-24.6,70.2,0,2018,5,17,19,58,26.699,-0.3851,0.6648,0.1701,-0.617
-0.206,-0.148,0.205,28.1,8.6,78.9,0,2018,5,17,19,58,26.704,-0.3911,0.6599,0.1823,-0.615
-0.17,-0.046,0.266,22.5,38.2,84,0,2018,5,17,19,58,26.718,-0.4022,0.6525,0.1907,-0.6131
-0.171,-0.019,0.341,17.6,34.7,86.8,0,2018,5,17,19,58,26.737,-0.415,0.6448,0.1978,-0.6105
-0.118,-0.052,0.394,8.7,37.7,87.5,0,2018,5,17,19,58,26.774,-0.4277,0.6377,0.205,-0.6068
-0.126,-0.218,0.445,-3.7,49.6,80.7,0,2018,5,17,19,58,26.796,-0.4414,0.631,0.2102,-0.6022
-0.159,-0.289,0.427,-18.5,74.3,65.9,0,2018,5,17,19,58,26.802,-0.4563,0.6245,0.2109,-0.5976
-0.159,-0.286,0.471,-37.9,90.9,46.9,0,2018,5,17,19,58,26.819,-0.4723,0.6186,0.206,-0.593
-0.045,-0.236,0.493,-59.1,81.4,23,0,2018,5,17,19,58,26.839,-0.4872,0.6149,0.1966,-0.5879
0.018,-0.178,0.394,-71.5,58.9,-0.8,0,2018,5,17,19,58,26.861,-0.498,0.6152,0.1849,-0.5823
0,-0.047,0.404,-81.3,20.1,-24.9,0,2018,5,17,19,58,26.896,-0.5035,0.6198,0.1727,-0.5765
0.067,0.033,0.431,-89.5,-43.1,-50.6,0,2018,5,17,19,58,26.919,-0.5007,0.6306,0.1624,-0.5702
0.065,-0.115,0.259,-92.3,-73.6,-79.4,0,2018,5,17,19,58,26.923,-0.4897,0.6469,0.1536,-0.5639
0.07,-0.111,0.118,-89.4,-66,-108.2,0,2018,5,17,19,58,26.939,-0.4746,0.664,0.1421,-0.5598
0.138,0.049,0.002,-79,-49.3,-125,0,2018,5,17,19,58,26.955,-0.4584,0.6795,0.1264,-0.5586
0.2,0.305,-0.018,-57.4,-70.1,-129.4,0,2018,5,17,19,58,26.979,-0.4402,0.6934,0.1112,-0.5594
0.183,0.311,-0.043,-31.2,-93.3,-121.6,0,2018,5,17,19,58,27.016,-0.4182,0.7063,0.1008,-0.562
0.207,0.287,-0.112,-5.6,-73.2,-103,0,2018,5,17,19,58,27.04,-0.3967,0.7161,0.0943,-0.5664
0.235,0.322,-0.101,14.2,-20.2,-74.6,0,2018,5,17,19,58,27.044,-0.3821,0.72,0.0884,-0.5724
0.21,0.465,0.049,27.2,14.7,-42.7,0,2018,5,17,19,58,27.06,-0.3762,0.7185,0.0827,-0.579
0.191,0.617,0.117,37.2,8,-10.8,1023,2018,5,17,19,58,27.098,-0.375,0.7145,0.0803,-0.585
0.16,0.561,0.132,47.8,-11.3,17.6,1023,2018,5,17,19,58,27.118,-0.3745,0.7102,0.0842,-0.59
0.124,0.337,0.177,54,-10.9,36.9,1023,2018,5,17,19,58,27.123,-0.3751,0.7051,0.0927,-0.5944
0.089,0.237,0.248,53.5,0.8,46.6,1023,2018,5,17,19,58,27.141,-0.378,0.6991,0.1021,-0.5982
0.088,0.301,0.267,52,-2.9,50,1023,2018,5,17,19,58,27.164,-0.3823,0.6925,0.1114,-0.6014
0.052,0.225,0.273,53.6,-38.2,49.4,1023,2018,5,17,19,58,27.18,-0.384,0.6872,0.1234,-0.604
-0.039,0.057,0.266,51.9,-51.8,49.1,1023,2018,5,17,19,58,27.199,-0.3823,0.6836,0.1383,-0.606
-0.072,0.061,0.172,49.6,-43.5,51.2,1023,2018,5,17,19,58,27.222,-0.3805,0.6802,0.1529,-0.6075
-0.113,0.165,0.086,51.9,-34.9,58.3,1023,2018,5,17,19,58,27.241,-0.3804,0.6758,0.167,-0.6087
-0.195,0.126,0.134,53.9,-27,67.9,0,2018,5,17,19,58,27.26,-0.3819,0.6699,0.1815,-0.6101
-0.271,0.096,0.21,52.8,-21.4,76.1,0,2018,5,17,19,58,27.283,-0.3852,0.6633,0.1963,-0.6107
-0.322,-0.026,0.285,45.1,-9.9,81,0,2018,5,17,19,58,27.317,-0.3899,0.6562,0.211,-0.6105
-0.351,-0.145,0.364,32.6,15.1,82.1,0,2018,5,17,19,58,27.339,-0.3975,0.6487,0.2227,-0.6094
-0.343,-0.223,0.468,15.5,34.9,78.2,0,2018,5,17,19,58,27.344,-0.408,0.6411,0.2308,-0.6075
-0.258,-0.337,0.547,-5.8,51.1,70.5,0,2018,5,17,19,58,27.362,-0.4205,0.6344,0.2348,-0.6044
-0.173,-0.406,0.565,-28.1,77.9,59.4,0,2018,5,17,19,58,27.386,-0.4352,0.6288,0.2339,-0.6003
-0.14,-0.359,0.522,-49.7,96.8,46.1,0,2018,5,17,19,58,27.401,-0.4519,0.624,0.2273,-0.5954
-0.082,-0.258,0.417,-66.9,118.4,35.5,0,2018,5,17,19,58,27.438,-0.4702,0.6198,0.2156,-0.59
-0.034,-0.247,0.476,-80.4,122.3,27.2,0,2018,5,17,19,58,27.459,-0.4891,0.6161,0.2004,-0.5838
0.099,-0.287,0.401,-100.9,80.4,-2.8,0,2018,5,17,19,58,27.464,-0.52,0.6157,0.1657,-0.5682
0.128,-0.35,0.221,-99,78.3,-14.9,0,2018,5,17,19,58,27.481,-0.5302,0.6186,0.1483,-0.5605
0.157,-0.298,0.13,-100.6,101.2,-24.4,0,2018,5,17,19,58,27.502,-0.5406,0.62,0.1284,-0.5538
0.217,-0.175,0.045,-97.7,117.8,-36.4,0,2018,5,17,19,58,27.522,-0.5516,0.6195,0.1047,-0.5485
0.232,-0.111,-0.097,-84.5,119.6,-52.8,0,2018,5,17,19,58,27.545,-0.5614,0.6174,0.0794,-0.5451
0.196,0.019,-0.127,-69.3,109.5,-65.5,0,2018,5,17,19,58,27.584,-0.569,0.614,0.0547,-0.5442
0.225,0.12,-0.194,-53.1,99.7,-75.9,0,2018,5,17,19,58,27.587,-0.5738,0.6098,0.0312,-0.5456
0.193,0.16,-0.157,-36.3,88.7,-83.5,0,2018,5,17,19,58,27.604,-0.5762,0.605,0.0092,-0.5493
0.112,0.252,-0.207,-17.4,78.6,-93,0,2018,5,17,19,58,27.625,-0.5763,0.5993,-0.0109,-0.5554
0.087,0.346,-0.211,1.3,71.1,-97.2,0,2018,5,17,19,58,27.641,-0.5746,0.5924,-0.0292,-0.5638
0.089,0.403,-0.23,16.4,78.6,-90.2,0,2018,5,17,19,58,27.677,-0.5729,0.5835,-0.0456,-0.5736
0.049,0.386,-0.211,28.8,85.8,-82.8,0,2018,5,17,19,58,27.698,-0.5729,0.572,-0.0606,-0.5837
-0.004,0.478,-0.144,39.5,81.7,-73.1,0,2018,5,17,19,58,27.702,-0.5737,0.5592,-0.0739,-0.5937
-0.081,0.467,-0.024,46.8,72.8,-61.1,0,2018,5,17,19,58,27.74,-0.5747,0.5462,-0.0843,-0.6034
-0.122,0.458,0.001,48.9,66.5,-50.2,0,2018,5,17,19,58,27.762,-0.5761,0.5334,-0.0923,-0.6123
-0.184,0.401,-0.022,47.2,71.2,-38.5,0,2018,5,17,19,58,27.768,-0.5784,0.5209,-0.0992,-0.6197
-0.281,0.298,-0.058,42.2,91.1,-31.9,1023,2018,5,17,19,58,27.785,-0.5827,0.5074,-0.1068,-0.6256
-0.392,0.291,0.012,29.4,110.1,-31.4,1023,2018,5,17,19,58,27.822,-0.589,0.4925,-0.1173,-0.6298
-0.423,0.249,-0.004,12.5,117.7,-37.4,1023,2018,5,17,19,58,27.844,-0.5954,0.4776,-0.1307,-0.6326
-0.422,0.171,-0.084,-5.3,139.7,-43,1023,2018,5,17,19,58,27.849,-0.6013,0.4631,-0.1478,-0.634
-0.33,0.223,-0.093,-22.4,197.9,-40,1023,2018,5,17,19,58,27.866,-0.6097,0.4457,-0.1717,-0.6324
-0.259,0.325,-0.148,-31.5,236.7,-33,1023,2018,5,17,19,58,27.881,-0.6217,0.424,-0.202,-0.6266
-0.146,0.39,-0.132,-32.9,232.5,-32.7,1023,2018,5,17,19,58,27.905,-0.6344,0.4,-0.2344,-0.6184
-0.11,0.533,0.012,-30.4,158.1,-39.7,1023,2018,5,17,19,58,27.94,-0.6424,0.3801,-0.2617,-0.6117
-0.12,0.406,0.057,-30.8,93.3,-39.9,1023,2018,5,17,19,58,27.963,-0.6447,0.3679,-0.2808,-0.6083
-0.089,0.298,0.034,-35.2,69.7,-39.9,0,2018,5,17,19,58,27.968,-0.6438,0.3606,-0.2954,-0.6066
0.012,0.3,-0.005,-38.5,66.7,-38.9,0,2018,5,17,19,58,28.004,-0.6419,0.3549,-0.3092,-0.6052
0.065,0.35,0.026,-34.5,53.2,-46.5,0,2018,5,17,19,58,28.026,-0.6393,0.3496,-0.3225,-0.604
0.027,0.449,0.159,-39.3,26.5,-47.2,0,2018,5,17,19,58,28.031,-0.6346,0.3464,-0.3337,-0.6048
0.102,0.419,0.121,-43.8,20.8,-44.9,0,2018,5,17,19,58,28.048,-0.6287,0.3457,-0.3437,-0.6057
0.188,0.469,0.032,-39,8.1,-44.2,0,2018,5,17,19,58,28.066,-0.6226,0.3457,-0.353,-0.6067
0.16,0.403,0.045,-33.6,-14.2,-42.8,0,2018,5,17,19,58,28.089,-0.6155,0.3474,-0.3593,-0.6093
0.176,0.424,0.07,-29.2,-19.3,-39.6,0,2018,5,17,19,58,28.106,-0.608,0.3501,-0.3633,-0.6128
0.181,0.469,0.07,-24.3,-13.9,-32.8,0,2018,5,17,19,58,28.142,-0.6014,0.3525,-0.3666,-0.616
0.171,0.498,0.032,-19.8,-12.7,-25.5,0,2018,5,17,19,58,28.166,-0.5961,0.3543,-0.3694,-0.6185
0.17,0.48,-0.006,-12.2,-11.6,-16.3,0,2018,5,17,19,58,28.17,-0.592,0.356,-0.3709,-0.6205
0.168,0.443,-0.025,-4.1,5.4,-3.2,0,2018,5,17,19,58,28.189,-0.5902,0.3566,-0.3719,-0.6213
0.121,0.484,0.054,-0.5,21,10.8,0,2018,5,17,19,58,28.207,-0.5914,0.3556,-0.3735,-0.6198
0.102,0.477,0.02,3.3,19.2,26.3,0,2018,5,17,19,58,28.225,-0.5949,0.3545,-0.3744,-0.6165
0.107,0.496,0.013,8.6,9.9,36.6,0,2018,5,17,19,58,28.249,-0.5996,0.3543,-0.3735,-0.6125
0.103,0.473,-0.05,17.5,-11.4,49.4,0,2018,5,17,19,58,28.266,-0.6051,0.3558,-0.3696,-0.6086
0.11,0.516,0.021,23.2,-32.4,61,0,2018,5,17,19,58,28.287,-0.6111,0.3595,-0.3618,-0.6051
0.066,0.458,0.003,28.1,-56.6,71,0,2018,5,17,19,58,28.324,-0.6169,0.3659,-0.3501,-0.6024
0.055,0.351,-0.007,30.9,-46.2,76.1,0,2018,5,17,19,58,28.324,-0.623,0.373,-0.3367,-0.5993
0.064,0.39,0.018,37.7,-36.5,75.8,0,2018,5,17,19,58,28.346,-0.6303,0.3783,-0.3239,-0.5954
0,0.216,0.004,38,-22.4,74.7,0,2018,5,17,19,58,28.383,-0.6384,0.3818,-0.3117,-0.591
-0.048,0.131,-0.127,38.3,-12.1,66.3,0,2018,5,17,19,58,28.405,-0.6467,0.3836,-0.3013,-0.5862
-0.085,0.098,-0.253,43.3,-13.5,55.4,0,2018,5,17,19,58,28.409,-0.6542,0.384,-0.2913,-0.5827
-0.165,-0.004,-0.224,47.5,0.4,43.9,0,2018,5,17,19,58,28.428,-0.661,0.3828,-0.282,-0.5804
-0.243,-0.02,-0.156,46.5,21.8,28.7,0,2018,5,17,19,58,28.451,-0.6679,0.3789,-0.2752,-0.5783
-0.28,0.015,-0.142,44,27.1,8.3,1023,2018,5,17,19,58,28.471,-0.674,0.3726,-0.2708,-0.5774
-0.269,0.055,-0.136,38.7,27.7,-8.4,1023,2018,5,17,19,58,28.488,-0.6779,0.365,-0.2684,-0.5789
-0.274,0.048,-0.163,34.4,29,-24.4,1023,2018,5,17,19,58,28.511,-0.68,0.357,-0.2676,-0.5817
-0.266,0.061,-0.124,25.8,41.2,-35.7,1023,2018,5,17,19,58,28.546,-0.6806,0.3482,-0.2692,-0.5855
-0.302,-0.029,-0.066,9.3,85.4,-40,1023,2018,5,17,19,58,28.569,-0.6815,0.3369,-0.2751,-0.5884
-0.235,0.341,0.083,-10.7,127.1,-43,1023,2018,5,17,19,58,28.574,-0.6837,0.3213,-0.2895,-0.5876
-0.184,0.493,0.084,-24.3,100.3,-38.2,1023,2018,5,17,19,58,28.59,-0.685,0.3074,-0.3058,-0.5853
-0.08,0.345,-0.044,-31.6,78.6,-42.5,1023,2018,5,17,19,58,28.609,-0.6839,0.2978,-0.3202,-0.5838
-0.038,0.401,-0.068,-33.1,70.5,-42.7,1023,2018,5,17,19,58,28.647,-0.6817,0.2896,-0.3342,-0.5827
-0.05,0.363,-0.061,-33.2,44.3,-43.1,0,2018,5,17,19,58,28.67,-0.6783,0.2837,-0.3462,-0.5825
0.023,0.303,-0.12,-30.5,35.1,-44.3,0,2018,5,17,19,58,28.675,-0.6739,0.2798,-0.3563,-0.5835
0.037,0.299,-0.087,-27.4,35.3,-45.9,0,2018,5,17,19,58,28.692,-0.6691,0.2759,-0.3653,-0.5852
0.022,0.346,-0.047,-30.6,51.4,-44.6,0,2018,5,17,19,58,28.709,-0.6647,0.2708,-0.3754,-0.5862
-0.008,0.381,0.008,-38.5,66.6,-42.3,0,2018,5,17,19,58,28.733,-0.6609,0.2645,-0.3878,-0.5854
0.046,0.477,0.031,-46.8,64.7,-40.1,0,2018,5,17,19,58,28.769,-0.6569,0.2583,-0.4017,-0.5833
0.088,0.544,0.011,-46.9,34.5,-36.8,0,2018,5,17,19,58,28.792,-0.6521,0.2545,-0.4143,-0.5815
0.1,0.615,0.021,-44,-19,-29.9,0,2018,5,17,19,58,28.796,-0.6457,0.2559,-0.4218,-0.5827
0.112,0.633,0.022,-39.2,-63.8,-20,0,2018,5,17,19,58,28.81,-0.6382,0.2633,-0.4232,-0.5866
0.1,0.631,0,-37,-87.4,-4.3,0,2018,5,17,19,58,28.83,-0.6304,0.2749,-0.4199,-0.592
0.105,0.637,-0.042,-33.8,-91.5,15.7,0,2018,5,17,19,58,28.853,-0.6241,0.2889,-0.4143,-0.596
0.128,0.671,-0.036,-26.2,-106.2,33.1,0,2018,5,17,19,58,28.871,-0.6196,0.3044,-0.4063,-0.5985
0.127,0.646,-0.1,-17,-126.3,52.5,0,2018,5,17,19,58,28.908,-0.6162,0.3223,-0.394,-0.6008
0.117,0.516,-0.155,-7.7,-122.4,70.9,0,2018,5,17,19,58,28.931,-0.6146,0.3415,-0.3784,-0.602
0.072,0.466,-0.073,-0.2,-104.6,82.5,0,2018,5,17,19,58,28.937,-0.6156,0.3589,-0.3623,-0.6006
0.06,0.395,-0.024,6.2,-93.8,92.1,0,2018,5,17,19,58,28.954,-0.6186,0.3748,-0.3459,-0.5976
0.066,0.248,-0.043,10.4,-71,97.4,0,2018,5,17,19,58,28.973,-0.6236,0.3885,-0.3303,-0.5924
0.079,0.222,-0.068,15.8,-49.3,95.5,0,2018,5,17,19,58,28.996,-0.6303,0.3991,-0.3163,-0.5859
0.071,0.17,-0.018,22.8,-42.4,88.3,0,2018,5,17,19,58,29.01,-0.6377,0.407,-0.3035,-0.5791
0.058,0.176,0.042,30.5,-52,74.2,0,2018,5,17,19,58,29.047,-0.6441,0.4137,-0.2903,-0.574
0.07,0.129,0.088,33.6,-60.8,64.7,0,2018,5,17,19,58,29.068,-0.6485,0.4204,-0.2759,-0.5714
0.076,0.09,0.067,32.5,-54.3,56.3,0,2018,5,17,19,58,29.073,-0.6517,0.4262,-0.2623,-0.5697
0.043,0.152,-0.006,34.3,-68.6,45.3,0,2018,5,17,19,58,29.093,-0.6535,0.4319,-0.2492,-0.5692
0.042,0.107,-0.106,38.3,-71.5,38,0,2018,5,17,19,58,29.112,-0.6537,0.4384,-0.2349,-0.5702
0.002,0.211,-0.063,42,-70.6,32.3,0,2018,5,17,19,58,29.15,-0.6533,0.4438,-0.2207,-0.572
-0.015,0.199,0.009,44.2,-64.5,29.4,0,2018,5,17,19,58,29.174,-0.6526,0.4485,-0.2064,-0.5746
-0.07,0.148,-0.001,39,-42.1,27.1,1023,2018,5,17,19,58,29.178,-0.6527,0.4514,-0.1941,-0.5765
-0.146,0.179,-0.076,32.5,-34.7,17.8,1023,2018,5,17,19,58,29.196,-0.6534,0.4521,-0.1853,-0.5781
-0.222,0.133,-0.121,28.6,-28.8,12.5,1023,2018,5,17,19,58,29.214,-0.6532,0.453,-0.178,-0.5798
-0.31,0.083,-0.146,22.3,-7.1,3.2,1023,2018,5,17,19,58,29.235,-0.6538,0.4525,-0.172,-0.5814
-0.332,0.07,-0.222,16,24,-6.8,0,2018,5,17,19,58,29.254,-0.6549,0.4496,-0.171,-0.5827
-0.27,0.161,-0.238,11.4,56.8,-17.2,0,2018,5,17,19,58,29.272,-0.6573,0.4433,-0.1748,-0.5836
-0.242,0.238,-0.123,9.5,66.2,-26.2,0,2018,5,17,19,58,29.29,-0.6602,0.4344,-0.1821,-0.5849
-0.271,0.149,0.034,2.2,78.4,-32.7,0,2018,5,17,19,58,29.314,-0.6627,0.4245,-0.1911,-0.5864
-0.268,0.019,0.054,-14.5,120.5,-35.4,0,2018,5,17,19,58,29.351,-0.6659,0.4129,-0.204,-0.5868
-0.135,0.441,0.12,-26.8,148.3,-34.9,0,2018,5,17,19,58,29.374,-0.6716,0.3969,-0.224,-0.584
-0.047,0.52,0.063,-27.3,97.6,-35.2,0,2018,5,17,19,58,29.379,-0.6754,0.3838,-0.2423,-0.5811
-0.006,0.361,-0.012,-29.6,67.6,-37.4,0,2018,5,17,19,58,29.394,-0.6758,0.3757,-0.256,-0.58
0.029,0.288,-0.038,-32.3,65.5,-39.7,0,2018,5,17,19,58,29.431,-0.6746,0.3695,-0.2687,-0.5796
0.033,0.219,-0.035,-35.7,87.9,-41.3,0,2018,5,17,19,58,29.454,-0.6737,0.3622,-0.2831,-0.5784
0.057,0.331,0.022,-37.8,105.9,-41.1,0,2018,5,17,19,58,29.459,-0.6741,0.352,-0.3004,-0.5756
0.067,0.423,0.007,-34.1,83.5,-43.8,0,2018,5,17,19,58,29.475,-0.6738,0.3419,-0.3171,-0.573
0.098,0.421,-0.044,-28.7,52.9,-44.2,0,2018,5,17,19,58,29.511,-0.6716,0.3348,-0.3303,-0.5723
0.104,0.362,-0.012,-25.2,46.1,-43,0,2018,5,17,19,58,29.534,-0.6684,0.3294,-0.3407,-0.5731
0.12,0.433,0.006,-24.5,56.2,-37.5,0,2018,5,17,19,58,29.539,-0.6659,0.3235,-0.3512,-0.5731
0.118,0.486,0.01,-20.5,40.8,-35,0,2018,5,17,19,58,29.555,-0.6639,0.3177,-0.3611,-0.5725
0.094,0.451,-0.035,-13.4,10.1,-36.1,0,2018,5,17,19,58,29.576,-0.6607,0.3141,-0.3678,-0.5739
0.088,0.401,-0.032,-7.3,-14.5,-37.5,0,2018,5,17,19,58,29.595,-0.6561,0.3133,-0.3708,-0.5776
0.098,0.425,0.019,-2.7,-24.9,-34.4,0,2018,5,17,19,58,29.614,-0.6512,0.3138,-0.3714,-0.5826
0.112,0.457,0.029,4,-42.5,-31.9,0,2018,5,17,19,58,29.635,-0.646,0.3155,-0.3697,-0.5885
0.109,0.374,-0.002,8.2,-48.7,-27.1,0,2018,5,17,19,58,29.674,-0.6408,0.3182,-0.3659,-0.595
0.122,0.402,-0.047,10.5,-37.3,-17.5,0,2018,5,17,19,58,29.674,-0.6367,0.3207,-0.3616,-0.6007
0.125,0.4,0.049,12.2,-19.8,-7.1,0,2018,5,17,19,58,29.696,-0.6346,0.3218,-0.3581,-0.6043
0.124,0.508,0.195,9.6,-23.1,3.6,0,2018,5,17,19,58,29.717,-0.6341,0.3228,-0.355,-0.6063
0.101,0.487,0.082,5.7,-37.7,17.9,0,2018,5,17,19,58,29.75,-0.634,0.3262,-0.3503,-0.6072
0.092,0.431,-0.022,3.4,-32.6,29.1,0,2018,5,17,19,58,29.773,-0.6348,0.3313,-0.3447,-0.6069
0.039,0.458,-0.057,2.8,-19.3,40.3,0,2018,5,17,19,58,29.778,-0.6373,0.3359,-0.3399,-0.6044
0.017,0.484,-0.122,8.2,-19.1,49.6,0,2018,5,17,19,58,29.813,-0.6415,0.34,-0.335,-0.6004
-0.031,0.546,-0.044,13.4,-56.3,51,1023,2018,5,17,19,58,29.836,-0.6453,0.3458,-0.3271,-0.5973
-0.075,0.59,-0.111,16,-109.9,53.8,1023,2018,5,17,19,58,29.841,-0.6463,0.3569,-0.3135,-0.597
-0.077,0.566,-0.163,20.1,-143.8,57,1023,2018,5,17,19,58,29.856,-0.645,0.3725,-0.2947,-0.5985
-0.11,0.623,-0.113,22.7,-171.3,59.3,1023,2018,5,17,19,58,29.879,-0.6416,0.3908,-0.2719,-0.6012
-0.168,0.525,-0.1,17.8,-197.1,57.7,1023,2018,5,17,19,58,29.915,-0.6357,0.4123,-0.2458,-0.6044
-0.197,0.475,-0.174,8.3,-193.2,58,1023,2018,5,17,19,58,29.937,-0.6278,0.435,-0.2196,-0.6068
-0.169,0.501,-0.179,3.6,-182.5,58.3,1023,2018,5,17,19,58,29.941,-0.6197,0.4569,-0.1947,-0.6075
-0.169,0.408,-0.094,-3.8,-176.8,55.3,1023,2018,5,17,19,58,29.956,-0.611,0.4782,-0.1711,-0.6071
-0.169,0.356,-0.032,-12.5,-164.1,51.1,1023,2018,5,17,19,58,29.974,-0.6019,0.4986,-0.1494,-0.6055
-0.148,0.318,0.029,-19.3,-154.3,45.2,0,2018,5,17,19,58,29.995,-0.5925,0.518,-0.13,-0.6029
-0.106,0.361,0.029,-21.2,-166.5,38.7,0,2018,5,17,19,58,30.033,-0.5817,0.5374,-0.1115,-0.6002
-0.003,0.287,-0.031,-16.4,-178.7,36,0,2018,5,17,19,58,30.056,-0.5686,0.5576,-0.0917,-0.5977
0.062,0.218,-0.138,-7.1,-175.9,35.5,0,2018,5,17,19,58,30.061,-0.5544,0.5767,-0.0706,-0.5957
0.085,0.096,-0.151,3.7,-155.7,34.7,0,2018,5,17,19,58,30.08,-0.541,0.5931,-0.0497,-0.594
0.099,0.119,-0.106,12.8,-124.9,34.7,0,2018,5,17,19,58,30.115,-0.5299,0.6057,-0.031,-0.5926
0.091,0.131,-0.009,19,-89.1,39.2,0,2018,5,17,19,58,30.137,-0.5225,0.6138,-0.0145,-0.5916
0.08,0.152,0.042,25.7,-62.4,44.4,0,2018,5,17,19,58,30.142,-0.5186,0.618,-0.001,-0.5907
0.062,0.167,0.091,32.8,-58.2,49.5,0,2018,5,17,19,58,30.162,-0.5168,0.6204,0.0131,-0.5897
0.005,0.175,0.125,33.6,-43.9,58.1,0,2018,5,17,19,58,30.177,-0.5164,0.6215,0.0275,-0.5883
-0.041,0.14,0.154,30.4,0.5,68.5,0,2018,5,17,19,58,30.214,-0.5205,0.6196,0.0396,-0.586
-0.065,0.146,0.215,29.9,24.8,78.6,0,2018,5,17,19,58,30.238,-0.5296,0.6145,0.0488,-0.5826
-0.087,0.167,0.217,27.8,20.8,79,0,2018,5,17,19,58,30.243,-0.5399,0.6085,0.0579,-0.5785
-0.171,0.155,0.269,23.3,23.4,74.7,0,2018,5,17,19,58,30.259,-0.5498,0.6027,0.0665,-0.5743
-0.167,-0.061,0.382,11.8,31.4,60,0,2018,5,17,19,58,30.283,-0.5593,0.5973,0.0728,-0.57
-0.1,-0.077,0.429,-2.7,20.3,35.7,0,2018,5,17,19,58,30.299,-0.5669,0.5933,0.0757,-0.5663
-0.019,0.047,0.445,-15.9,-25.1,8.1,0,2018,5,17,19,58,30.322,-0.569,0.5939,0.0775,-0.5633
0.032,-0.043,0.503,-27.7,-80.9,-20.2,0,2018,5,17,19,58,30.359,-0.5629,0.6015,0.0804,-0.561
0.096,-0.082,0.443,-38.1,-117.4,-46.4,0,2018,5,17,19,58,30.383,-0.5492,0.6151,0.0836,-0.5594
0.189,-0.039,0.304,-40.9,-131.6,-68.8,0,2018,5,17,19,58,30.387,-0.5303,0.6317,0.086,-0.5588
0.289,0.142,0.159,-32,-148.2,-84.8,0,2018,5,17,19,58,30.401,-0.5078,0.6489,0.0877,-0.5596
0.35,0.221,0.088,-15.7,-165.6,-87.3,0,2018,5,17,19,58,30.42,-0.4813,0.6662,0.0916,-0.5621
0.324,0.273,0.024,1.6,-159.8,-77.7,0,2018,5,17,19,58,30.442,-0.454,0.6815,0.0976,-0.5655
0.275,0.334,-0.033,18.1,-138.1,-59.9,0,2018,5,17,19,58,30.459,-0.4289,0.6932,0.1051,-0.5695
0.185,0.429,-0.026,30.5,-97.2,-32.2,0,2018,5,17,19,58,30.481,-0.4095,0.7002,0.113,-0.5737
0.098,0.46,0.013,43.1,-55.7,2.7,0,2018,5,17,19,58,30.5,-0.3982,0.7019,0.1217,-0.5778
-0.008,0.454,0.098,51,-20.9,35.5,1023,2018,5,17,19,58,30.523,-0.3949,0.699,0.1315,-0.5814
-0.172,0.449,0.179,55,-12.7,58.8,1023,2018,5,17,19,58,30.541,-0.3968,0.6932,0.1426,-0.5843
-0.22,0.46,0.283,54.3,-10.7,81.1,1023,2018,5,17,19,58,30.578,-0.4014,0.6863,0.1563,-0.5859
-0.24,0.168,0.317,53.2,-17.2,97.3,1023,2018,5,17,19,58,30.602,-0.407,0.6793,0.1728,-0.5855
-0.28,0.108,0.338,41.5,-3.1,104.9,1023,2018,5,17,19,58,30.605,-0.4146,0.672,0.1894,-0.5834
-0.301,-0.048,0.232,34.7,28.7,106.2,1023,2018,5,17,19,58,30.626,-0.4257,0.6634,0.2037,-0.5806
-0.242,0.015,0.261,27.8,44.5,101.9,1023,2018,5,17,19,58,30.642,-0.4396,0.6533,0.2142,-0.5778
-0.176,-0.033,0.324,25.2,42,98.6,1023,2018,5,17,19,58,30.661,-0.4537,0.6432,0.2235,-0.5747
-0.125,-0.03,0.342,18.7,44.6,92.1,0,2018,5,17,19,58,30.679,-0.4671,0.6338,0.2316,-0.5712
-0.141,-0.072,0.418,12.3,31.8,81.1,0,2018,5,17,19,58,30.702,-0.4795,0.6254,0.2386,-0.5673
-0.118,-0.134,0.45,-1.2,24,66,0,2018,5,17,19,58,30.739,-0.4893,0.6195,0.2444,-0.5629
-0.052,-0.136,0.475,-13.4,29,55.8,0,2018,5,17,19,58,30.763,-0.4985,0.6154,0.2476,-0.5579
-0.068,-0.241,0.518,-26.1,33.6,43.9,0,2018,5,17,19,58,30.767,-0.5075,0.6125,0.2482,-0.5527
-0.107,-0.303,0.58,-43.4,47.3,28.4,0,2018,5,17,19,58,30.784,-0.517,0.6105,0.2449,-0.5476
-0.058,-0.301,0.599,-58.7,39.8,13.8,0,2018,5,17,19,58,30.803,-0.5257,0.6106,0.2382,-0.5421
-0.043,-0.317,0.558,-75.6,51.1,2.4,0,2018,5,17,19,58,30.826,-0.5339,0.6125,0.2287,-0.536
0.011,-0.276,0.559,-92.6,60.2,-10,0,2018,5,17,19,58,30.846,-0.543,0.6152,0.215,-0.5295
0.102,-0.249,0.514,-105.2,55,-22.2,0,2018,5,17,19,58,30.863,-0.5513,0.6193,0.1984,-0.5224
0.11,-0.251,0.4,-111.7,46.7,-35.2,0,2018,5,17,19,58,30.881,-0.5578,0.6252,0.1803,-0.5151
0.084,-0.247,0.259,-112.1,51.4,-47.4,0,2018,5,17,19,58,30.904,-0.5627,0.6317,0.1607,-0.5083
0.209,-0.185,0.148,-112.8,73.7,-55.7,0,2018,5,17,19,58,30.94,-0.5683,0.636,0.1385,-0.5032
0.237,-0.111,0.05,-112.1,96.8,-65.2,0,2018,5,17,19,58,30.962,-0.5748,0.6383,0.1124,-0.4994
0.187,-0.105,-0.077,-105.6,125.9,-78.1,0,2018,5,17,19,58,30.967,-0.5824,0.638,0.0832,-0.4967
0.187,0.062,-0.172,-94.9,142.9,-89.7,0,2018,5,17,19,58,30.983,-0.5915,0.6335,0.0519,-0.496
0.208,0.218,-0.179,-77.9,131.9,-100,0,2018,5,17,19,58,31.006,-0.5992,0.6269,0.0208,-0.4974
0.173,0.325,-0.105,-64.5,109.8,-105.5,0,2018,5,17,19,58,31.043,-0.6032,0.6205,-0.008,-0.5009
0.085,0.295,-0.115,-55.4,108.6,-111.9,0,2018,5,17,19,58,31.043,-0.605,0.614,-0.0355,-0.5055
0.007,0.314,-0.092,-49.5,123.6,-117.7,0,2018,5,17,19,58,31.067,-0.6067,0.6055,-0.0637,-0.511
0.036,0.379,-0.22,-40.2,133.3,-120.8,0,2018,5,17,19,58,31.081,-0.6089,0.5942,-0.0932,-0.517
0.108,0.477,-0.386,-16.8,117.3,-117.9,0,2018,5,17,19,58,31.103,-0.6105,0.5812,-0.1202,-0.5243
0.029,0.555,-0.214,1.4,76.3,-118.8,0,2018,5,17,19,58,31.139,-0.609,0.5689,-0.142,-0.5339
-0.04,0.472,-0.035,12.4,57.6,-108.8,0,2018,5,17,19,58,31.162,-0.6049,0.5586,-0.1589,-0.5447
-0.056,0.424,-0.052,20.6,56.6,-98.9,0,2018,5,17,19,58,31.167,-0.6008,0.5482,-0.1729,-0.5553
-0.092,0.383,-0.077,29,60.1,-89.5,0,2018,5,17,19,58,31.184,-0.5981,0.5367,-0.1851,-0.5655
-0.123,0.396,-0.018,31.2,60.5,-82.1,0,2018,5,17,19,58,31.207,-0.5963,0.5245,-0.1961,-0.5751
-0.182,0.388,0.047,26.5,64.7,-73.3,1023,2018,5,17,19,58,31.243,-0.5951,0.5125,-0.2066,-0.5834
-0.207,0.422,0.074,18,67.9,-70.3,1023,2018,5,17,19,58,31.267,-0.5945,0.5008,-0.2178,-0.5901
-0.213,0.362,0.003,10.3,68.7,-67.7,1023,2018,5,17,19,58,31.271,-0.5938,0.4896,-0.2296,-0.5956
-0.19,0.26,-0.104,-0.1,87.5,-66,1023,2018,5,17,19,58,31.285,-0.5935,0.4785,-0.2429,-0.5996
-0.154,0.215,-0.108,-17.5,151.3,-59.2,1023,2018,5,17,19,58,31.308,-0.5964,0.4644,-0.2618,-0.5999
-0.173,0.351,-0.081,-32.1,198.3,-48.9,1023,2018,5,17,19,58,31.325,-0.6039,0.4458,-0.2877,-0.5946
-0.149,0.347,-0.108,-38.8,208.5,-48,1023,2018,5,17,19,58,31.343,-0.6127,0.4252,-0.3165,-0.5861
-0.111,0.399,-0.154,-43.5,203.9,-47.9,0,2018,5,17,19,58,31.366,-0.6204,0.4043,-0.3456,-0.5761
-0.047,0.51,-0.134,-42.3,183.7,-46.7,0,2018,5,17,19,58,31.386,-0.6264,0.3846,-0.3731,-0.566
-0.01,0.52,-0.045,-40.1,162.6,-43.9,0,2018,5,17,19,58,31.407,-0.6305,0.3667,-0.3976,-0.5565
-0.011,0.479,-0.024,-38.6,154.3,-40.8,0,2018,5,17,19,58,31.444,-0.6336,0.3501,-0.4199,-0.5473
0.054,0.493,-0.036,-35.7,140.7,-41.3,0,2018,5,17,19,58,31.467,-0.6358,0.3342,-0.4408,-0.5381
0.126,0.574,0.04,-25.9,106.6,-41.7,0,2018,5,17,19,58,31.471,-0.6368,0.3199,-0.4585,-0.5309
0.155,0.584,0.098,-17.4,56.2,-40,0,2018,5,17,19,58,31.491,-0.6357,0.3095,-0.4707,-0.5276
0.18,0.664,0.132,-11.2,5,-32.8,0,2018,5,17,19,58,31.525,-0.6328,0.3046,-0.4771,-0.5282
0.222,0.627,0.036,-4,-32.5,-18,0,2018,5,17,19,58,31.548,-0.6289,0.3051,-0.4778,-0.5319
0.242,0.605,0.038,1.7,-39.3,1.3,0,2018,5,17,19,58,31.552,-0.6261,0.3086,-0.4748,-0.5358
0.211,0.592,0.058,8.3,-29,21.1,0,2018,5,17,19,58,31.569,-0.6259,0.3129,-0.4707,-0.5372
0.199,0.602,0.038,19.7,-38.9,30.8,0,2018,5,17,19,58,31.589,-0.6279,0.3172,-0.4649,-0.5374
0.163,0.5,0.002,29.1,-53.9,40.5,0,2018,5,17,19,58,31.606,-0.6307,0.3231,-0.4558,-0.5384
0.153,0.408,-0.031,39.3,-51,50.8,0,2018,5,17,19,58,31.629,-0.6347,0.3294,-0.4445,-0.5393
0.127,0.259,-0.08,48.1,-27.8,59.9,0,2018,5,17,19,58,31.647,-0.641,0.3341,-0.4326,-0.5386
0.135,0.198,-0.16,51.3,8.2,63,0,2018,5,17,19,58,31.671,-0.6502,0.335,-0.4226,-0.5351
0.158,0.261,-0.146,59,16.2,57.2,0,2018,5,17,19,58,31.688,-0.6607,0.3325,-0.4144,-0.5301
0.148,0.282,-0.086,68.3,-4.8,51.6,0,2018,5,17,19,58,31.726,-0.6706,0.3298,-0.4044,-0.527
0.134,0.182,-0.195,74.7,-7.8,48.8,0,2018,5,17,19,58,31.75,-0.6799,0.3278,-0.3924,-0.5255
0.094,0.057,-0.182,78.2,14.2,40.3,0,2018,5,17,19,58,31.755,-0.6894,0.3235,-0.381,-0.5242
0.073,0.084,-0.075,75.4,33.4,31.1,0,2018,5,17,19,58,31.765,-0.699,0.3156,-0.3725,-0.5223
0.09,0.218,-0.107,73.4,18.9,20.8,0,2018,5,17,19,58,31.802,-0.7077,0.307,-0.3646,-0.5213
0.063,0.223,-0.223,73.7,0,15.3,0,2018,5,17,19,58,31.826,-0.7143,0.3006,-0.3553,-0.5225
0.039,0.167,-0.323,73.7,10.9,10.3,0,2018,5,17,19,58,31.829,-0.7203,0.2942,-0.3459,-0.5242
-0.029,0.168,-0.275,71.1,34.2,4.7,0,2018,5,17,19,58,31.848,-0.7266,0.285,-0.3387,-0.5253
-0.072,0.305,-0.152,67.5,29.9,-4,0,2018,5,17,19,58,31.869,-0.7324,0.2742,-0.3332,-0.5265
-0.063,0.325,-0.184,63.4,7.5,-5.7,0,2018,5,17,19,58,31.906,-0.7366,0.2656,-0.3269,-0.5291
-0.076,0.288,-0.282,58.1,-0.1,-5.6,0,2018,5,17,19,58,31.929,-0.7396,0.2594,-0.3195,-0.5324
-0.125,0.174,-0.291,53.6,23.8,-6,1023,2018,5,17,19,58,31.934,-0.7426,0.2526,-0.3133,-0.5352
-0.144,0.188,-0.32,44.2,80.6,-6.5,1023,2018,5,17,19,58,31.95,-0.7468,0.241,-0.312,-0.5354
-0.144,0.313,-0.296,34.5,120.9,-7.6,1023,2018,5,17,19,58,31.973,-0.7525,0.223,-0.317,-0.5322
-0.094,0.468,-0.323,35.5,98.1,-10.1,1023,2018,5,17,19,58,31.994,-0.7576,0.2045,-0.3232,-0.5287
-0.14,0.373,-0.3,40.1,70.1,-9.3,1023,2018,5,17,19,58,32.01,-0.7617,0.1896,-0.3258,-0.5268
-0.154,0.3,-0.264,40.5,67.9,-9.7,1023,2018,5,17,19,58,32.027,-0.7652,0.1763,-0.3269,-0.5256
-0.14,0.3,-0.297,39.8,75,-10.6,1023,2018,5,17,19,58,32.051,-0.7686,0.1624,-0.3283,-0.5243
-0.233,0.383,-0.274,40.8,41.2,-17.6,0,2018,5,17,19,58,32.067,-0.7711,0.1499,-0.3286,-0.5242
-0.174,0.201,-0.151,31.2,23.6,-23.3,0,2018,5,17,19,58,32.091,-0.7718,0.1414,-0.3265,-0.5268
-0.163,0.22,0.026,9,59.3,-24.1,0,2018,5,17,19,58,32.109,-0.7716,0.133,-0.3278,-0.5285
-0.086,0.508,0.06,-0.7,50.7,-29.9,0,2018,5,17,19,58,32.132,-0.7705,0.1228,-0.3337,-0.5289
0.033,0.856,0.039,1.8,-39.8,-30,0,2018,5,17,19,58,32.15,-0.7678,0.1197,-0.3353,-0.5324
0.012,0.715,0.035,5,-142.3,-31.9,0,2018,5,17,19,58,32.172,-0.7629,0.1306,-0.3261,-0.5426
0.039,0.549,0.036,-2.9,-195.7,-37.8,0,2018,5,17,19,58,32.191,-0.7552,0.1517,-0.31,-0.5571
0.032,0.263,-0.054,-14.2,-190.9,-40.3,0,2018,5,17,19,58,32.214,-0.745,0.1764,-0.2924,-0.5729
0.083,0.257,-0.2,-21.2,-151.8,-40.5,0,2018,5,17,19,58,32.23,-0.7343,0.1981,-0.279,-0.5861
0.088,0.25,-0.214,-21.1,-118.2,-35,0,2018,5,17,19,58,32.268,-0.7243,0.2157,-0.269,-0.597
0.102,0.391,-0.092,-25.6,-64.8,-20.5,0,2018,5,17,19,58,32.291,-0.7167,0.2281,-0.2634,-0.604
0.132,0.539,-0.068,-26.4,-33.4,-1.4,0,2018,5,17,19,58,32.295,-0.7123,0.2362,-0.2621,-0.6066
0.117,0.53,-0.117,-21.7,-8.8,19.9,0,2018,5,17,19,58,32.312,-0.7112,0.2419,-0.2624,-0.6055
0.113,0.408,-0.145,-14.4,28.3,41.1,0,2018,5,17,19,58,32.35,-0.714,0.244,-0.2641,-0.6006
0.11,0.39,-0.176,-8.5,70,59.4,0,2018,5,17,19,58,32.35,-0.7208,0.2412,-0.2686,-0.5915
0.134,0.468,-0.263,4.4,74.7,68.2,0,2018,5,17,19,58,32.372,-0.7306,0.2348,-0.2741,-0.5795
0.105,0.51,-0.234,21.1,27.9,66.7,0,2018,5,17,19,58,32.41,-0.7403,0.2298,-0.275,-0.5687
0.036,0.372,-0.079,35.9,-16.8,62.4,0,2018,5,17,19,58,32.432,-0.7481,0.2299,-0.2686,-0.5615
-0.072,0.169,0.06,35.4,-7.9,56.1,0,2018,5,17,19,58,32.437,-0.7549,0.2312,-0.2598,-0.5559
0.018,0.164,0.015,26.6,13.1,43.9,0,2018,5,17,19,58,32.452,-0.7614,0.2297,-0.2544,-0.5501
0.05,0.185,-0.122,26.8,5.7,36.5,0,2018,5,17,19,58,32.469,-0.7668,0.2276,-0.2502,-0.5454
-0.049,0.043,-0.114,24.1,16.8,24.9,0,2018,5,17,19,58,32.492,-0.7709,0.2253,-0.2464,-0.5423
-0.119,-0.004,-0.133,16.2,54.3,9.7,0,2018,5,17,19,58,32.528,-0.7747,0.2195,-0.2461,-0.5394
-0.11,0.048,-0.179,12,70.9,-11.1,0,2018,5,17,19,58,32.551,-0.7775,0.209,-0.2505,-0.5375
-0.109,-0.009,-0.119,2.9,90.5,-22,0,2018,5,17,19,58,32.553,-0.7787,0.1969,-0.2569,-0.5373
-0.11,0.149,-0.13,-6.3,118.5,-31.1,0,2018,5,17,19,58,32.588,-0.7794,0.1812,-0.2683,-0.5362
-0.111,0.155,-0.254,-5.2,137.5,-43.2,0,2018,5,17,19,58,32.611,-0.7794,0.1624,-0.2822,-0.5352
-0.074,0.285,-0.321,-0.9,131.4,-53.6,0,2018,5,17,19,58,32.613,-0.7781,0.1415,-0.2965,-0.5353
-0.032,0.366,-0.281,2.8,103.7,-59,0,2018,5,17,19,58,32.649,-0.7753,0.1223,-0.3086,-0.5372
-0.018,0.489,-0.184,5.3,56.6,-55.8,0,2018,5,17,19,58,32.649,-0.7715,0.1084,-0.3165,-0.541
-0.006,0.443,-0.149,5.6,39.2,-56.8,1023,2018,5,17,19,58,32.671,-0.7672,0.0985,-0.3209,-0.5464
-0.032,0.46,-0.071,7.6,7.9,-61.1,1023,2018,5,17,19,58,32.705,-0.7621,0.0911,-0.3232,-0.5533
0.056,0.098,-0.254,11.5,-5.6,-59.2,1023,2018,5,17,19,58,32.726,-0.7563,0.0883,-0.3217,-0.5626
0.055,0.434,-0.237,7.8,40.7,-55.3,1023,2018,5,17,19,58,32.731,-0.7515,0.0805,-0.3239,-0.5689
0.048,0.542,-0.13,9.5,-3.8,-47.1,1023,2018,5,17,19,58,32.765,-0.7469,0.0742,-0.3252,-0.5751
0.037,0.489,-0.097,7.5,-5.2,-31,1023,2018,5,17,19,58,32.788,-0.7433,0.0724,-0.3235,-0.5809
0.022,0.42,-0.147,6.1,20.5,-18.5,1023,2018,5,17,19,58,32.793,-0.7412,0.0692,-0.3237,-0.5838
0.056,0.408,-0.195,9,24.1,-9.7,1023,2018,5,17,19,58,32.828,-0.7404,0.0645,-0.3254,-0.5845
0.052,0.321,-0.211,12.8,22.5,-3.2,1023,2018,5,17,19,58,32.851,-0.7405,0.0602,-0.3261,-0.5844
0.019,0.262,-0.233,14.6,27.5,-4.9,1023,2018,5,17,19,58,32.856,-0.7411,0.0552,-0.3269,-0.5837
-0.017,0.203,-0.203,14,32.3,-9.7,0,2018,5,17,19,58,32.894,-0.7411,0.0495,-0.3279,-0.5836
-0.044,0.22,-0.13,10.2,39.2,-13.8,0,2018,5,17,19,58,32.918,-0.7408,0.0428,-0.33,-0.5834
-0.038,0.199,-0.21,7.5,47.2,-12.1,0,2018,5,17,19,58,32.923,-0.74,0.0357,-0.3333,-0.5829
-0.033,0.185,-0.334,7.8,64.8,-11.5,0,2018,5,17,19,58,32.936,-0.7395,0.0271,-0.3378,-0.5814
-0.04,0.197,-0.309,6.1,89,-15,0,2018,5,17,19,58,32.954,-0.7386,0.0155,-0.3446,-0.579
-0.057,0.285,-0.183,4.8,99.6,-20.3,0,2018,5,17,19,58,32.976,-0.7371,0.0013,-0.3537,-0.5758
-0.062,0.352,-0.164,6.1,77.6,-26.4,0,2018,5,17,19,58,33.012,-0.7348,-0.0122,-0.3619,-0.5734
-0.083,0.289,-0.191,3.4,51.1,-30.5,0,2018,5,17,19,58,33.035,-0.7319,-0.0226,-0.3675,-0.5732
-0.063,0.255,-0.243,0.4,45.6,-29.4,0,2018,5,17,19,58,33.04,-0.7287,-0.0307,-0.3718,-0.5741
-0.023,0.262,-0.313,2.6,42.4,-30.7,0,2018,5,17,19,58,33.058,-0.7255,-0.0383,-0.3759,-0.5752
-0.047,0.169,-0.302,1.8,48.9,-37.2,0,2018,5,17,19,58,33.094,-0.7219,-0.0464,-0.3796,-0.5766
-0.062,0.159,-0.257,-2.3,69,-41.7,0,2018,5,17,19,58,33.117,-0.7171,-0.0565,-0.3852,-0.578
-0.096,0.184,-0.284,-5.4,79.8,-46.3,0,2018,5,17,19,58,33.121,-0.7112,-0.0686,-0.3928,-0.5788
-0.083,0.288,-0.255,-5.9,63.5,-52.2,0,2018,5,17,19,58,33.139,-0.7048,-0.0805,-0.4003,-0.58
-0.098,0.349,-0.247,-2.9,29.3,-55.8,0,2018,5,17,19,58,33.156,-0.698,-0.0895,-0.4046,-0.5838
-0.134,0.34,-0.225,-3,2.1,-54.8,0,2018,5,17,19,58,33.176,-0.6918,-0.0948,-0.4055,-0.5898
-0.145,0.387,-0.221,-6.2,-14.6,-48.6,0,2018,5,17,19,58,33.196,-0.6861,-0.0971,-0.4044,-0.5968
-0.125,0.459,-0.263,-8.8,-36.8,-42.3,0,2018,5,17,19,58,33.219,-0.681,-0.0965,-0.4018,-0.6044
-0.128,0.44,-0.285,-9.9,-63.6,-34.9,0,2018,5,17,19,58,33.236,-0.6769,-0.0921,-0.3968,-0.6129
-0.163,0.428,-0.204,-16.5,-89.3,-22.4,0,2018,5,17,19,58,33.26,-0.6739,-0.0837,-0.3896,-0.622
-0.165,0.525,-0.144,-26.6,-135.1,-11.3,0,2018,5,17,19,58,33.295,-0.6721,-0.0693,-0.3797,-0.6318
-0.129,0.543,-0.165,-36.8,-188.6,-2.8,0,2018,5,17,19,58,33.317,-0.6709,-0.047,-0.3654,-0.6435
-0.145,0.501,-0.177,-44.9,-216.7,4.6,0,2018,5,17,19,58,33.322,-0.6696,-0.018,-0.3466,-0.6565
-0.142,0.472,-0.17,-57.3,-214.1,7.5,0,2018,5,17,19,58,33.338,-0.6674,0.0134,-0.3275,-0.6686
-0.159,0.417,-0.188,-74,-204.1,9.5,0,2018,5,17,19,58,33.361,-0.6633,0.046,-0.3103,-0.6793
-0.124,0.551,-0.152,-83.6,-206,11.7,0,2018,5,17,19,58,33.379,-0.6579,0.0795,-0.2951,-0.6882
-0.124,0.527,-0.193,-87.7,-210.1,16.9,0,2018,5,17,19,58,33.395,-0.6517,0.1145,-0.2791,-0.6958
-0.087,0.478,-0.197,-93.6,-180.8,25.6,0,2018,5,17,19,58,33.416,-0.6451,0.149,-0.2647,-0.701
-0.024,0.494,-0.107,-97,-136.3,36,0,2018,5,17,19,58,33.455,-0.6401,0.1797,-0.2552,-0.7019
-0.008,0.532,-0.014,-100.8,-93.1,51.3,0,2018,5,17,19,58,33.455,-0.6373,0.2063,-0.251,-0.6987
0.024,0.669,-0.016,-99,-86.4,65.7,1023,2018,5,17,19,58,33.478,-0.6367,0.2307,-0.2493,-0.6922
0.032,0.619,-0.164,-90.7,-92,79.9,1023,2018,5,17,19,58,33.516,-0.6373,0.2554,-0.2456,-0.6842
0.07,0.459,-0.226,-79.5,-66.3,92.5,1023,2018,5,17,19,58,33.539,-0.64,0.2782,-0.2412,-0.6743
0.091,0.47,-0.124,-72.3,-27.3,103.9,1023,2018,5,17,19,58,33.544,-0.646,0.2962,-0.2394,-0.6614
0.099,0.545,-0.166,-61.6,-10.1,116.3,1023,2018,5,17,19,58,33.561,-0.6549,0.3103,-0.2393,-0.646
0.097,0.433,-0.332,-40,-6.1,123.8,1023,2018,5,17,19,58,33.58,-0.6655,0.3222,-0.2373,-0.6299
0.095,0.167,-0.265,-21.3,31.9,126.8,1023,2018,5,17,19,58,33.603,-0.6785,0.3292,-0.2348,-0.6131
0.093,0.2,-0.266,-4.4,61.6,122.8,1023,2018,5,17,19,58,33.62,-0.6941,0.3296,-0.2344,-0.5953
0.048,0.275,-0.136,18.5,31.7,105.9,1023,2018,5,17,19,58,33.641,-0.7092,0.3273,-0.2321,-0.5795
-0.045,0.104,-0.107,35.2,-23.9,84,0,2018,5,17,19,58,33.656,-0.7198,0.3281,-0.2233,-0.5694
-0.079,-0.2,-0.148,44.2,-32.9,55.1,0,2018,5,17,19,58,33.68,-0.7261,0.3311,-0.2109,-0.5643
-0.077,-0.169,-0.079,46.4,-14.8,27.7,0,2018,5,17,19,58,33.699,-0.7303,0.3312,-0.2003,-0.5627
-0.133,-0.117,0.056,41.7,8.9,3.6,0,2018,5,17,19,58,33.722,-0.7333,0.3276,-0.1936,-0.5633
-0.136,-0.05,0.106,33.8,15.1,-26.4,0,2018,5,17,19,58,33.742,-0.7342,0.3216,-0.1909,-0.5665
-0.173,-0.005,0.204,24.3,-6.1,-54.2,0,2018,5,17,19,58,33.763,-0.7312,0.3168,-0.19,-0.5733
-0.192,-0.012,0.26,5.6,2.4,-66.7,0,2018,5,17,19,58,33.798,-0.7251,0.3139,-0.1908,-0.5823
-0.142,0.271,0.159,-12.3,34.8,-62.4,0,2018,5,17,19,58,33.821,-0.7192,0.3097,-0.1968,-0.5899
-0.059,0.388,-0.065,-13.3,54.3,-60.5,0,2018,5,17,19,58,33.825,-0.7149,0.3032,-0.2068,-0.595
-0.05,0.407,-0.179,-2.3,35,-64,0,2018,5,17,19,58,33.844,-0.7104,0.2959,-0.2157,-0.6009
-0.068,0.281,-0.183,7,43.6,-59.4,0,2018,5,17,19,58,33.861,-0.7059,0.2889,-0.2224,-0.6072
-0.073,0.316,-0.105,10.1,60.9,-58.2,0,2018,5,17,19,58,33.878,-0.7027,0.2789,-0.23,-0.6127
-0.06,0.298,-0.08,10.8,67.6,-56.6,0,2018,5,17,19,58,33.903,-0.7001,0.2675,-0.2383,-0.6175
-0.08,0.319,-0.044,10.3,62.6,-60.3,0,2018,5,17,19,58,33.919,-0.6974,0.2557,-0.2471,-0.6221
-0.06,0.357,0.016,9,36.4,-64.9,0,2018,5,17,19,58,33.942,-0.6929,0.246,-0.2539,-0.6282
-0.078,0.34,0.058,3.9,23.4,-66.3,0,2018,5,17,19,58,33.979,-0.6873,0.2388,-0.2592,-0.635
-0.076,0.38,0.059,-1.4,14.7,-67.1,0,2018,5,17,19,58,34.001,-0.6807,0.2334,-0.2639,-0.6421
-0.084,0.412,-0.001,-7.6,4.7,-66.6,0,2018,5,17,19,58,34.006,-0.6733,0.2296,-0.2682,-0.6495
-0.064,0.507,-0.041,-9.3,-3.5,-62.1,0,2018,5,17,19,58,34.021,-0.6655,0.2276,-0.2719,-0.6567
-0.073,0.513,-0.04,-12.7,-0.6,-56.6,0,2018,5,17,19,58,34.045,-0.658,0.2264,-0.275,-0.6633
-0.087,0.525,0.044,-25.3,14.8,-49.5,0,2018,5,17,19,58,34.063,-0.6511,0.2251,-0.2802,-0.6683
-0.089,0.711,0.11,-39.1,13.1,-39.6,0,2018,5,17,19,58,34.099,-0.6449,0.2249,-0.2875,-0.6713
-0.068,0.82,0.054,-48,-16.6,-25.4,0,2018,5,17,19,58,34.099,-0.6386,0.2285,-0.2934,-0.6735
-0.058,0.828,-0.061,-54.3,-46.8,-6.7,0,2018,5,17,19,58,34.122,-0.6327,0.2375,-0.2958,-0.6749
-0.061,0.827,-0.06,-59.1,-68.8,13.6,0,2018,5,17,19,58,34.14,-0.6277,0.2509,-0.295,-0.6752
-0.06,0.793,-0.065,-61.6,-94.9,33,0,2018,5,17,19,58,34.163,-0.6236,0.2683,-0.2908,-0.6741
-0.066,0.75,-0.053,-62.5,-110.8,50.3,0,2018,5,17,19,58,34.201,-0.6204,0.289,-0.2833,-0.6716
-0.057,0.664,-0.096,-60.9,-117.4,66.4,0,2018,5,17,19,58,34.225,-0.6182,0.3116,-0.2734,-0.6676
-0.038,0.53,-0.17,-57.1,-100.7,82.8,1023,2018,5,17,19,58,34.228,-0.6181,0.3339,-0.2629,-0.6612
-0.002,0.507,-0.127,-51.6,-88,92.8,1023,2018,5,17,19,58,34.247,-0.6201,0.3541,-0.2528,-0.6527
0.034,0.531,-0.127,-42.4,-93.7,103.6,1023,2018,5,17,19,58,34.283,-0.6236,0.3734,-0.2418,-0.6427
0.019,0.39,-0.101,-30.9,-97.1,110.9,1023,2018,5,17,19,58,34.306,-0.6276,0.3926,-0.2277,-0.6324
0.01,0.212,-0.07,-18.1,-72.9,113.5,1023,2018,5,17,19,58,34.31,-0.633,0.409,-0.2132,-0.6215
0.019,0.294,-0.089,-4.8,-67.4,109.7,1023,2018,5,17,19,58,34.323,-0.64,0.4216,-0.1994,-0.6105
-0.012,0.266,-0.113,12.2,-88.3,98.9,0,2018,5,17,19,58,34.359,-0.6453,0.4334,-0.1829,-0.6017
-0.016,0.196,-0.119,27.8,-103.4,82.4,0,2018,5,17,19,58,34.382,-0.648,0.4449,-0.1635,-0.596
-0.1,0.049,-0.076,33.7,-99.6,65,0,2018,5,17,19,58,34.387,-0.6482,0.4554,-0.1438,-0.5929
-0.17,-0.13,-0.049,30.7,-61.3,43.3,0,2018,5,17,19,58,34.405,-0.6482,0.4627,-0.1272,-0.5912
-0.174,-0.165,-0.009,24.4,-23.7,16.7,0,2018,5,17,19,58,34.424,-0.6485,0.4651,-0.1174,-0.5909
-0.154,-0.146,0.013,17.2,15.5,-6.6,0,2018,5,17,19,58,34.447,-0.649,0.4635,-0.1145,-0.5921
-0.164,-0.042,0.038,9,55.8,-23.5,0,2018,5,17,19,58,34.482,-0.6507,0.4576,-0.1183,-0.5941
-0.175,0.06,0.109,-0.6,95.7,-32.9,0,2018,5,17,19,58,34.505,-0.6537,0.4479,-0.1279,-0.5963
-0.161,0.252,0.053,-16.8,149.2,-30.4,0,2018,5,17,19,58,34.51,-0.6598,0.4338,-0.1445,-0.5962
-0.083,0.489,-0.015,-20.9,143.8,-30,0,2018,5,17,19,58,34.524,-0.6674,0.4175,-0.1648,-0.5941
-0.049,0.482,-0.069,-19.5,120.6,-26.3,0,2018,5,17,19,58,34.561,-0.6731,0.4035,-0.1826,-0.5921
-0.05,0.45,-0.048,-19.1,116.8,-17.4,0,2018,5,17,19,58,34.585,-0.6784,0.3909,-0.1987,-0.5893
-0.059,0.414,-0.051,-21.1,120.1,-11.3,0,2018,5,17,19,58,34.59,-0.6841,0.3785,-0.2139,-0.5855
-0.018,0.45,-0.127,-22.6,136.1,-1.8,0,2018,5,17,19,58,34.607,-0.691,0.3651,-0.2303,-0.5797
0.025,0.479,-0.148,-17.9,130.2,1.6,0,2018,5,17,19,58,34.625,-0.6985,0.3509,-0.2461,-0.573
0.028,0.427,-0.08,-13.3,123.1,2.2,0,2018,5,17,19,58,34.649,-0.7056,0.337,-0.2602,-0.5663
0.03,0.371,-0.005,-15.6,125.4,0.4,0,2018,5,17,19,58,34.684,-0.7122,0.3232,-0.2741,-0.5594
0.055,0.415,0.051,-16.8,114.5,-7,0,2018,5,17,19,58,34.708,-0.718,0.3093,-0.2884,-0.5527
0.103,0.45,0.111,-17.6,68.2,-18.1,0,2018,5,17,19,58,34.711,-0.7208,0.2987,-0.3001,-0.5486
0.116,0.43,0.153,-22,36.1,-27.9,0,2018,5,17,19,58,34.728,-0.7201,0.2931,-0.3084,-0.5479
0.108,0.486,0.223,-33.3,27,-34.2,0,2018,5,17,19,58,34.746,-0.7172,0.2903,-0.3165,-0.5487
0.131,0.486,0.169,-45.1,33.1,-38.7,0,2018,5,17,19,58,34.783,-0.7129,0.2885,-0.3261,-0.5495
0.163,0.532,0.043,-50.8,35.2,-44.6,0,2018,5,17,19,58,34.806,-0.708,0.2862,-0.3379,-0.5499
0.225,0.652,-0.038,-48.8,7.1,-49.6,0,2018,5,17,19,58,34.81,-0.7014,0.2855,-0.3485,-0.5521
0.203,0.637,-0.098,-47.4,-12.9,-43.1,0,2018,5,17,19,58,34.827,-0.6937,0.2879,-0.3562,-0.5557
0.149,0.695,-0.081,-49.8,-17.8,-29.9,0,2018,5,17,19,58,34.864,-0.6866,0.292,-0.3628,-0.5581
0.105,0.865,0.022,-50,-61.3,-15.3,0,2018,5,17,19,58,34.886,-0.6793,0.3001,-0.3662,-0.5606
0.099,0.837,-0.021,-48.8,-103.7,2.2,0,2018,5,17,19,58,34.891,-0.6711,0.3145,-0.3643,-0.5637
0.07,0.829,-0.043,-46.9,-146.3,14.1,1023,2018,5,17,19,58,34.907,-0.6619,0.3345,-0.3571,-0.5676
0.039,0.73,-0.077,-45.4,-175.1,26.3,1023,2018,5,17,19,58,34.931,-0.6513,0.359,-0.3451,-0.5724
0.033,0.677,-0.102,-43.8,-188.7,35.5,1023,2018,5,17,19,58,34.948,-0.64,0.386,-0.3298,-0.5766
0.035,0.643,-0.095,-38.7,-204.3,40,1023,2018,5,17,19,58,34.972,-0.6279,0.414,-0.3121,-0.5802
0.006,0.594,-0.06,-33.6,-218.5,46,1023,2018,5,17,19,58,34.988,-0.6145,0.4431,-0.2912,-0.584
0.033,0.615,-0.045,-29.5,-221.2,50.8,1023,2018,5,17,19,58,35.006,-0.6006,0.4719,-0.2685,-0.5868
0.036,0.64,-0.088,-22.4,-252.3,48.7,1023,2018,5,17,19,58,35.044,-0.5843,0.5014,-0.2429,-0.5899
0.001,0.472,-0.032,-18.2,-259.5,46.1,1023,2018,5,17,19,58,35.067,-0.565,0.5314,-0.214,-0.5936
0.025,0.442,-0.02,-19.3,-245.6,41.9,1023,2018,5,17,19,58,35.072,-0.5453,0.5592,-0.1858,-0.596
0.083,0.474,-0.145,-12.9,-263.7,34.7,0,2018,5,17,19,58,35.088,-0.5232,0.5859,-0.1573,-0.5984
0.101,0.314,-0.173,-6.4,-242.1,30.5,0,2018,5,17,19,58,35.111,-0.4994,0.6107,-0.1282,-0.6008
0.063,0.169,-0.147,-1.8,-187.6,27.4,0,2018,5,17,19,58,35.129,-0.4791,0.6301,-0.1031,-0.6021
0.077,0.256,-0.089,2.4,-146.6,24.8,0,2018,5,17,19,58,35.152,-0.4637,0.6441,-0.083,-0.6026
0.033,0.349,-0.003,9.8,-141.3,25.7,0,2018,5,17,19,58,35.171,-0.4504,0.655,-0.0648,-0.6031
-0.054,0.388,-0.045,19,-153.5,31.2,0,2018,5,17,19,58,35.207,-0.4363,0.6653,-0.0451,-0.604
-0.165,0.364,-0.088,26.7,-151.8,45.5,0,2018,5,17,19,58,35.229,-0.4225,0.6747,-0.0227,-0.6047
-0.253,0.285,-0.031,31.2,-137.7,61.3,0,2018,5,17,19,58,35.234,-0.4109,0.6823,0.001,-0.6046
-0.315,0.268,0.042,29.7,-110.4,77.3,0,2018,5,17,19,58,35.251,-0.4031,0.6875,0.0243,-0.6034
-0.336,0.246,0.022,30.2,-77.1,91.1,0,2018,5,17,19,58,35.267,-0.4008,0.6898,0.0464,-0.601
-0.28,0.143,0.074,34.5,-56,103.2,0,2018,5,17,19,58,35.29,-0.4034,0.6894,0.0676,-0.5977
-0.332,0.067,0.217,33.8,-41.5,110,0,2018,5,17,19,58,35.326,-0.408,0.6879,0.0881,-0.5936
-0.342,-0.053,0.297,30.3,10.2,120.5,0,2018,5,17,19,58,35.35,-0.4174,0.6837,0.1062,-0.589
-0.232,-0.047,0.387,22.8,34.6,119.9,0,2018,5,17,19,58,35.354,-0.4323,0.6766,0.1202,-0.5837
-0.099,0.111,0.346,18.4,23.2,113.5,0,2018,5,17,19,58,35.369,-0.4475,0.6695,0.1325,-0.5778
-0.084,0.118,0.357,17.6,7.9,108,0,2018,5,17,19,58,35.391,-0.4599,0.6635,0.1458,-0.5716
-0.095,-0.015,0.432,11.8,-0.7,97.6,0,2018,5,17,19,58,35.41,-0.47,0.6591,0.1589,-0.5651
-0.062,-0.251,0.573,-0.1,12.3,81.9,0,2018,5,17,19,58,35.433,-0.4791,0.6554,0.1697,-0.5585
0.012,-0.366,0.598,-18.8,47.5,62.5,0,2018,5,17,19,58,35.451,-0.4897,0.6515,0.1748,-0.5523
0.064,-0.19,0.636,-34.6,33.3,34.2,0,2018,5,17,19,58,35.468,-0.5003,0.6488,0.1736,-0.5463
0.139,-0.28,0.611,-42.1,8.4,9.9,0,2018,5,17,19,58,35.491,-0.5055,0.65,0.1712,-0.5408
0.215,-0.2,0.591,-51.8,-10.6,-15,0,2018,5,17,19,58,35.508,-0.5066,0.6545,0.1671,-0.5357
0.266,-0.169,0.562,-57.2,-40.2,-39.1,0,2018,5,17,19,58,35.533,-0.5026,0.6625,0.1616,-0.5311
0.254,-0.203,0.423,-57.9,-65.2,-65.5,0,2018,5,17,19,58,35.552,-0.493,0.6741,0.1554,-0.5275
0.287,-0.062,0.327,-56,-81.3,-91,0,2018,5,17,19,58,35.588,-0.4785,0.6875,0.1482,-0.5255
0.265,0.049,0.281,-47.6,-100.7,-115.8,0,2018,5,17,19,58,35.611,-0.4591,0.7023,0.1401,-0.5255
0.217,0.16,0.196,-33.5,-104.6,-133.8,0,2018,5,17,19,58,35.616,-0.4357,0.717,0.1309,-0.528
0.214,0.38,0.06,-10.1,-126.6,-132.3,1023,2018,5,17,19,58,35.651,-0.4092,0.7303,0.1233,-0.5328
0.139,0.413,-0.016,14.8,-134.1,-114.6,1023,2018,5,17,19,58,35.673,-0.3803,0.7417,0.1205,-0.539
0.06,0.409,0.018,33.3,-94.6,-81.8,1023,2018,5,17,19,58,35.679,-0.3552,0.7489,0.1206,-0.5462
-0.015,0.511,0.07,41.5,-38.9,-39.4,1023,2018,5,17,19,58,35.692,-0.3403,0.7503,0.1213,-0.5535
-0.056,0.639,0.122,46.7,7.5,5.2,1023,2018,5,17,19,58,35.709,-0.3361,0.747,0.1233,-0.56
-0.085,0.716,0.177,51.4,24.6,47.2,1023,2018,5,17,19,58,35.732,-0.3402,0.7404,0.1281,-0.5652
-0.118,0.685,0.271,53.8,15.9,79.6,1023,2018,5,17,19,58,35.767,-0.3483,0.7322,0.1378,-0.5686
-0.134,0.588,0.344,53.9,-9,100.2,1023,2018,5,17,19,58,35.791,-0.3564,0.7244,0.1525,-0.5699
-0.225,0.331,0.404,47.3,-15.6,112.8,0,2018,5,17,19,58,35.795,-0.3639,0.7171,0.1709,-0.5691
-0.207,0.237,0.346,38.7,-5.1,119.2,0,2018,5,17,19,58,35.812,-0.373,0.7097,0.1895,-0.5667
-0.136,0.189,0.306,38.2,2,122.7,0,2018,5,17,19,58,35.835,-0.3833,0.7017,0.2074,-0.5635
-0.165,0.005,0.371,38,0.5,120.7,0,2018,5,17,19,58,35.854,-0.3941,0.6931,0.2251,-0.5599
-0.132,-0.147,0.401,34.8,8.5,111.7,0,2018,5,17,19,58,35.878,-0.4045,0.6842,0.2416,-0.5565
-0.081,-0.113,0.419,30.8,8.6,98.7,0,2018,5,17,19,58,35.895,-0.4144,0.6757,0.2558,-0.5533
-0.076,-0.219,0.458,28.3,7.3,86.6,0,2018,5,17,19,58,35.916,-0.4228,0.668,0.2682,-0.5503
-0.118,-0.333,0.555,16.7,14.3,65.3,0,2018,5,17,19,58,35.932,-0.4301,0.6615,0.2778,-0.5478
-0.078,-0.329,0.61,-2.4,29.4,42.7,0,2018,5,17,19,58,35.953,-0.4375,0.6565,0.2823,-0.5456
-0.034,-0.254,0.609,-22.4,33.8,19.2,0,2018,5,17,19,58,35.973,-0.4448,0.6537,0.2816,-0.5435
-0.014,-0.201,0.592,-37.8,34,1.9,0,2018,5,17,19,58,35.995,-0.4511,0.6535,0.2771,-0.5409
-0.031,-0.149,0.519,-50,36.9,-9.2,0,2018,5,17,19,58,36.012,-0.4567,0.6551,0.2698,-0.5378
0.014,-0.053,0.496,-59.8,40.4,-14.8,0,2018,5,17,19,58,36.035,-0.4627,0.6577,0.2602,-0.5343
0.035,-0.009,0.459,-65.9,43.7,-16.1,0,2018,5,17,19,58,36.072,-0.4689,0.6608,0.2494,-0.5302
0.051,0.029,0.4,-71.8,45.7,-16.6,0,2018,5,17,19,58,36.094,-0.4755,0.6642,0.2376,-0.5254
0.058,-0.006,0.322,-75.9,53.8,-16.5,0,2018,5,17,19,58,36.099,-0.4827,0.6676,0.225,-0.5202
0.053,-0.027,0.258,-77.9,70.4,-20.7,0,2018,5,17,19,58,36.115,-0.4912,0.6698,0.2109,-0.5152
0.143,0.056,0.276,-78.4,74,-26.6,0,2018,5,17,19,58,36.137,-0.5007,0.671,0.1948,-0.5108
0.181,0.08,0.31,-77.6,49.9,-38.6,0,2018,5,17,19,58,36.155,-0.5077,0.6734,0.1788,-0.5066
0.174,-0.01,0.286,-77.4,37.5,-51.7,0,2018,5,17,19,58,36.191,-0.5109,0.6778,0.1632,-0.5027
0.165,-0.05,0.234,-77.2,57.3,-63.4,0,2018,5,17,19,58,36.214,-0.5133,0.682,0.1456,-0.5001
0.217,-0.017,0.205,-76.6,93.1,-70.5,0,2018,5,17,19,58,36.219,-0.5185,0.6833,0.1241,-0.4987
0.273,-0.026,0.188,-70,120.6,-78.4,0,2018,5,17,19,58,36.236,-0.5263,0.6811,0.0995,-0.499
0.294,0.04,0.246,-61,139.5,-82.8,0,2018,5,17,19,58,36.254,-0.5359,0.6756,0.0726,-0.5009
0.285,0.087,0.206,-53,149.3,-85.4,0,2018,5,17,19,58,36.278,-0.5459,0.6679,0.0447,-0.5037
0.292,0.108,0.139,-47.4,172.5,-89.3,0,2018,5,17,19,58,36.295,-0.557,0.6573,0.0158,-0.5073
0.279,0.214,0.139,-43.4,184.3,-95.5,0,2018,5,17,19,58,36.32,-0.5693,0.6435,-0.0152,-0.5112
0.223,0.279,0.074,-39.5,177.5,-99.9,0,2018,5,17,19,58,36.334,-0.5804,0.6286,-0.0467,-0.5154
0.191,0.391,-0.039,-27.4,156.5,-102.5,1023,2018,5,17,19,58,36.371,-0.5891,0.6134,-0.0763,-0.5202
0.139,0.382,-0.086,-16.9,136.7,-101.9,1023,2018,5,17,19,58,36.395,-0.5948,0.599,-0.1031,-0.526
0.067,0.427,-0.066,-6.3,122.9,-98.3,1023,2018,5,17,19,58,36.399,-0.5986,0.5846,-0.1269,-0.5325
-0.01,0.469,-0.134,2.6,111.1,-91.4,1023,2018,5,17,19,58,36.417,-0.6014,0.5703,-0.1477,-0.5394
-0.096,0.485,-0.178,12.5,105,-83.2,1023,2018,5,17,19,58,36.453,-0.604,0.5559,-0.1658,-0.5463
-0.186,0.457,-0.159,18.6,107,-74.7,1023,2018,5,17,19,58,36.475,-0.607,0.541,-0.1818,-0.5528
-0.259,0.477,-0.122,19.7,116.1,-69.2,0,2018,5,17,19,58,36.479,-0.6111,0.5249,-0.1974,-0.5584
-0.278,0.515,-0.089,16.5,109,-67.1,0,2018,5,17,19,58,36.497,-0.6154,0.5086,-0.2129,-0.5632
-0.306,0.433,-0.117,10,105,-65.2,0,2018,5,17,19,58,36.518,-0.6187,0.4934,-0.228,-0.5671
-0.297,0.443,-0.158,2.2,109.1,-61.1,0,2018,5,17,19,58,36.556,-0.6217,0.4786,-0.2433,-0.57
-0.259,0.417,-0.131,-4.1,121.6,-55.5,0,2018,5,17,19,58,36.578,-0.6254,0.4637,-0.2601,-0.571
-0.191,0.485,-0.01,-6.2,104.9,-55.7,0,2018,5,17,19,58,36.584,-0.6288,0.4491,-0.2766,-0.5711
-0.105,0.453,0.054,-12.3,81,-54.6,0,2018,5,17,19,58,36.596,-0.6302,0.4372,-0.2913,-0.5715
-0.029,0.514,0.057,-15.7,47.2,-57.5,0,2018,5,17,19,58,36.633,-0.6288,0.4287,-0.3039,-0.5729
0.044,0.597,0.083,-16.3,17.5,-54.6,0,2018,5,17,19,58,36.657,-0.6246,0.424,-0.3129,-0.5762
0.102,0.589,0.135,-22.4,11.1,-50.8,0,2018,5,17,19,58,36.662,-0.6191,0.4217,-0.3204,-0.5796
0.121,0.59,0.154,-29.1,18.6,-43.3,0,2018,5,17,19,58,36.677,-0.614,0.42,-0.3283,-0.5819
0.176,0.728,0.109,-32.3,6.5,-31.9,0,2018,5,17,19,58,36.716,-0.6096,0.4195,-0.3361,-0.5825
0.239,0.867,0.04,-26.6,-22.4,-14.8,0,2018,5,17,19,58,36.738,-0.6049,0.4219,-0.3403,-0.5831
0.257,0.866,0.033,-16.3,-49.8,4.3,0,2018,5,17,19,58,36.743,-0.6004,0.4278,-0.3391,-0.5842
0.198,0.793,0.074,-6.8,-68,26.4,0,2018,5,17,19,58,36.761,-0.5968,0.4362,-0.3331,-0.5852
0.185,0.662,0.039,3.6,-68.5,51.4,0,2018,5,17,19,58,36.797,-0.5953,0.4459,-0.323,-0.585
0.173,0.608,-0.025,15.9,-63.4,69.6,0,2018,5,17,19,58,36.82,-0.5971,0.4551,-0.3106,-0.5829
0.195,0.507,-0.092,31.1,-54,80.3,0,2018,5,17,19,58,36.824,-0.6012,0.463,-0.2959,-0.5801
0.121,0.341,0.016,39.3,-20.1,84.7,0,2018,5,17,19,58,36.838,-0.6085,0.4673,-0.2816,-0.5761
0.05,0.398,0.146,41.7,-14.8,77.8,0,2018,5,17,19,58,36.876,-0.6176,0.4687,-0.2694,-0.5711
0.024,0.386,0.187,45.3,-48.3,64.2,0,2018,5,17,19,58,36.898,-0.624,0.4711,-0.2558,-0.5683
0.074,0.385,0.125,47.1,-77.1,51.9,0,2018,5,17,19,58,36.902,-0.6264,0.4761,-0.2396,-0.5687
0.089,0.382,0.076,45.8,-93.9,44.7,0,2018,5,17,19,58,36.919,-0.6257,0.4829,-0.2217,-0.571
0.047,0.306,0.117,42.6,-88.7,38.9,0,2018,5,17,19,58,36.941,-0.6237,0.4902,-0.2042,-0.5734
-0.02,0.312,0.124,34.9,-72.2,36.3,0,2018,5,17,19,58,36.96,-0.6218,0.4964,-0.1887,-0.5755
-0.069,0.26,-0.006,29.2,-52,32.3,0,2018,5,17,19,58,36.983,-0.6211,0.501,-0.1764,-0.5761
-0.072,0.231,-0.094,29.2,-37.3,26.9,1023,2018,5,17,19,58,37.002,-0.6212,0.5038,-0.1665,-0.5765
-0.114,0.161,-0.155,32,-24.1,18,1023,2018,5,17,19,58,37.038,-0.6215,0.5048,-0.1584,-0.5775
-0.191,0.084,-0.115,29,7.3,8.3,1023,2018,5,17,19,58,37.038,-0.6227,0.5035,-0.1536,-0.5788
-0.245,0.036,-0.121,22.6,57,-3.2,1023,2018,5,17,19,58,37.06,-0.6267,0.4979,-0.1534,-0.5793
-0.28,0.074,-0.119,16,101.3,-18.3,1023,2018,5,17,19,58,37.079,-0.6336,0.4867,-0.1603,-0.5795
-0.317,0.177,-0.034,6.1,117.8,-33.9,0,2018,5,17,19,58,37.1,-0.6409,0.4722,-0.1724,-0.58
-0.311,0.263,0.016,-7.8,117.4,-45.4,0,2018,5,17,19,58,37.138,-0.6462,0.4578,-0.1877,-0.5809
-0.2,0.289,-0.036,-17.8,128.4,-49.9,0,2018,5,17,19,58,37.161,-0.6505,0.4437,-0.2054,-0.5811
-0.209,0.301,-0.025,-31.3,145.2,-48.5,0,2018,5,17,19,58,37.165,-0.6548,0.4289,-0.2257,-0.5798
-0.17,0.302,-0.051,-46.8,177.8,-49.8,0,2018,5,17,19,58,37.18,-0.6602,0.4122,-0.2504,-0.5756
-0.095,0.39,-0.131,-55.3,186.5,-53.6,0,2018,5,17,19,58,37.218,-0.6656,0.3937,-0.2785,-0.5694
-0.015,0.371,-0.183,-55.6,178.9,-60.8,0,2018,5,17,19,58,37.241,-0.6694,0.3749,-0.3071,-0.5629
0.03,0.454,-0.182,-51.2,163.4,-64.7,0,2018,5,17,19,58,37.245,-0.671,0.3566,-0.334,-0.5575
0.06,0.459,-0.162,-50.3,162.2,-63.4,0,2018,5,17,19,58,37.263,-0.6717,0.3387,-0.3597,-0.5519
0.119,0.654,-0.073,-47.3,139.3,-67.7,0,2018,5,17,19,58,37.28,-0.6712,0.3211,-0.3841,-0.5465
0.135,0.718,-0.051,-45.8,100.1,-66.9,0,2018,5,17,19,58,37.3,-0.6682,0.3069,-0.4046,-0.5435
0.193,0.804,-0.044,-41.2,58.1,-66.6,0,2018,5,17,19,58,37.336,-0.663,0.297,-0.421,-0.543
0.208,0.922,-0.021,-33.7,-2.9,-65.3,0,2018,5,17,19,58,37.36,-0.6552,0.2926,-0.4312,-0.5468
0.187,0.887,-0.029,-30.7,-29.2,-51.6,0,2018,5,17,19,58,37.363,-0.6462,0.2935,-0.4362,-0.553
0.174,0.97,-0.067,-25.9,-43.1,-32.6,0,2018,5,17,19,58,37.381,-0.6382,0.2971,-0.4382,-0.5588
0.154,1.063,-0.081,-18.1,-66.6,-6.9,0,2018,5,17,19,58,37.405,-0.6317,0.3039,-0.4363,-0.564
0.162,0.972,-0.13,-9.3,-88.7,23.5,0,2018,5,17,19,58,37.421,-0.6275,0.3144,-0.4298,-0.5679
0.139,0.916,-0.185,2.5,-124.8,46.7,0,2018,5,17,19,58,37.444,-0.6249,0.329,-0.4176,-0.5715
0.087,0.815,-0.245,14.3,-159,66.2,0,2018,5,17,19,58,37.482,-0.6227,0.348,-0.3988,-0.5761
0.024,0.586,-0.262,24,-148.5,85.3,0,2018,5,17,19,58,37.482,-0.6219,0.3683,-0.376,-0.5797
0.009,0.525,-0.226,31.2,-117.4,99.6,0,2018,5,17,19,58,37.505,-0.6245,0.3857,-0.3536,-0.5797
-0.006,0.571,-0.195,41.7,-126.3,106.9,0,2018,5,17,19,58,37.522,-0.6291,0.4012,-0.3306,-0.5778
-0.073,0.455,-0.19,49.5,-143.4,111.6,0,2018,5,17,19,58,37.56,-0.6329,0.4176,-0.3039,-0.5766
-0.034,0.406,-0.242,58.1,-139.5,115.4,0,2018,5,17,19,58,37.583,-0.6364,0.4338,-0.2752,-0.5752
-0.093,0.368,-0.217,65,-132.2,114.6,0,2018,5,17,19,58,37.587,-0.6404,0.4478,-0.246,-0.5732
-0.122,0.366,-0.08,69.8,-134.6,111.1,0,2018,5,17,19,58,37.601,-0.6438,0.4606,-0.2161,-0.5713
-0.171,0.449,0.086,66.4,-150.1,110.3,1023,2018,5,17,19,58,37.65,-0.6461,0.4734,-0.1857,-0.5691
-0.143,0.269,-0.061,62.2,-154.5,106.4,1023,2018,5,17,19,58,37.652,-0.6457,0.4878,-0.1541,-0.5667
-0.162,0.178,-0.065,52.1,-127.8,103.6,1023,2018,5,17,19,58,37.663,-0.6453,0.5004,-0.1253,-0.5633
-0.221,0.104,-0.058,42.3,-93.7,96.2,1023,2018,5,17,19,58,37.701,-0.6466,0.5097,-0.1003,-0.5585
-0.3,-0.107,0.045,24,-26.6,83.9,1023,2018,5,17,19,58,37.721,-0.6507,0.5148,-0.0825,-0.5519
-0.25,-0.079,0.061,8.6,32.3,63.3,1023,2018,5,17,19,58,37.723,-0.6585,0.5135,-0.0748,-0.5448
-0.246,0.051,0.022,-0.8,56.8,40.5,1023,2018,5,17,19,58,37.742,-0.668,0.508,-0.0744,-0.5386
-0.234,0.133,0.135,-6.1,37.3,12.8,1023,2018,5,17,19,58,37.764,-0.6745,0.5031,-0.077,-0.5346
-0.198,0.096,0.12,-10.9,21.6,-12.8,0,2018,5,17,19,58,37.8,-0.6767,0.5006,-0.0806,-0.5337
-0.146,0.085,0.022,-14.2,20.9,-38,0,2018,5,17,19,58,37.821,-0.676,0.499,-0.0864,-0.5352
-0.091,0.084,-0.016,-15.1,30.7,-57.4,0,2018,5,17,19,58,37.823,-0.6738,0.4961,-0.0946,-0.5392
-0.054,0.172,-0.083,-15,44.6,-74.8,0,2018,5,17,19,58,37.858,-0.6704,0.4916,-0.1061,-0.5454
-0.01,0.243,-0.148,-13,67.6,-81.6,0,2018,5,17,19,58,37.882,-0.6673,0.4849,-0.1199,-0.5523
-0.032,0.124,-0.179,-19.9,134,-77.2,0,2018,5,17,19,58,37.886,-0.6669,0.4736,-0.1376,-0.5584
-0.005,0.282,-0.157,-34.8,252.5,-69.6,0,2018,5,17,19,58,37.906,-0.6756,0.4508,-0.1664,-0.559
-0.008,0.536,-0.202,-43.2,278.6,-55,0,2018,5,17,19,58,37.929,-0.689,0.4202,-0.2024,-0.5545
0.05,0.527,-0.286,-51,270.8,-53.7,0,2018,5,17,19,58,37.947,-0.7013,0.3893,-0.2381,-0.5475
0.167,0.791,-0.146,-54.5,250.3,-45.4,0,2018,5,17,19,58,37.965,-0.7114,0.3598,-0.273,-0.5383
0.08,0.649,-0.071,-52.3,207.9,-43,0,2018,5,17,19,58,38.001,-0.7186,0.3339,-0.3034,-0.529
0.092,0.546,-0.024,-62.1,181.8,-51,0,2018,5,17,19,58,38.024,-0.722,0.3124,-0.3311,-0.5209
0.259,0.722,0.01,-62.2,157.9,-65.5,0,2018,5,17,19,58,38.028,-0.722,0.2931,-0.3575,-0.5146
0.332,0.824,0.001,-58.2,134,-69.2,0,2018,5,17,19,58,38.045,-0.7193,0.2758,-0.3817,-0.5106
0.339,0.844,-0.085,-54.4,110.1,-60.5,0,2018,5,17,19,58,38.08,-0.7154,0.261,-0.4027,-0.5077
0.33,0.968,-0.097,-41.8,57.6,-50.3,0,2018,5,17,19,58,38.102,-0.7108,0.2507,-0.4188,-0.5062
0.313,1.097,-0.049,-23.8,-31,-35.2,0,2018,5,17,19,58,38.106,-0.7053,0.249,-0.4258,-0.5091
0.262,1.028,-0.096,-10.9,-90,-9.6,0,2018,5,17,19,58,38.144,-0.6991,0.2569,-0.423,-0.5158
0.176,0.922,-0.169,3.3,-127.4,17.2,0,2018,5,17,19,58,38.168,-0.6943,0.2709,-0.4135,-0.5229
0.114,0.831,-0.266,18.6,-166.8,38.8,0,2018,5,17,19,58,38.172,-0.6906,0.2898,-0.397,-0.5304
0.086,0.729,-0.339,31.2,-192,58.8,0,2018,5,17,19,58,38.186,-0.6874,0.3125,-0.3747,-0.5378
0.016,0.676,-0.307,44.2,-216.5,73.8,0,2018,5,17,19,58,38.221,-0.6845,0.3376,-0.3469,-0.5448
-0.092,0.557,-0.316,48.7,-231.7,83.2,0,2018,5,17,19,58,38.243,-0.681,0.3646,-0.315,-0.5512
-0.086,0.42,-0.334,54.5,-232.5,84.1,0,2018,5,17,19,58,38.247,-0.6764,0.3917,-0.2807,-0.5569
-0.184,0.297,-0.298,52.6,-220.7,82.8,0,2018,5,17,19,58,38.285,-0.671,0.417,-0.2463,-0.5612
-0.216,0.09,-0.357,50.8,-186.3,74.7,0,2018,5,17,19,58,38.306,-0.6657,0.439,-0.2144,-0.5638
-0.246,0.036,-0.265,49.7,-158.1,58.1,0,2018,5,17,19,58,38.311,-0.6605,0.4563,-0.1864,-0.5661
-0.283,-0.124,-0.196,40.8,-97.4,39.8,0,2018,5,17,19,58,38.327,-0.6564,0.468,-0.1646,-0.5682
-0.316,-0.17,-0.074,25.7,-28.2,17.7,1023,2018,5,17,19,58,38.35,-0.6553,0.4724,-0.1527,-0.5691
-0.339,-0.099,0.069,11.1,-3,-14.9,1023,2018,5,17,19,58,38.385,-0.6549,0.472,-0.1492,-0.5708
-0.228,0.069,0.161,-0.6,-0.7,-44.4,1023,2018,5,17,19,58,38.405,-0.652,0.4707,-0.1514,-0.5747
