ax,ay,az,dpitch,droll,dyaw,heart,time_1,time_2,time_3,time_4,time_5,time_6,w,x,y,z
-0.075,0.007,0.015,54.8,-0.9,-43.2,0,2018,5,17,19,56,52.687,-0.6354,0.5771,-0.2121,-0.4669
-0.064,-0.051,0.02,54,-6.7,-47.8,0,2018,5,17,19,56,52.711,-0.6335,0.5714,-0.2097,-0.4775
-0.058,-0.154,0.028,53.7,-10.4,-58,0,2018,5,17,19,56,52.724,-0.6305,0.5661,-0.2072,-0.4888
-0.025,-0.175,0.052,51.2,0.4,-67.2,0,2018,5,17,19,56,52.761,-0.6265,0.5597,-0.2068,-0.5013
-0.019,-0.126,0.033,49.3,11.5,-77.8,0,2018,5,17,19,56,52.761,-0.6227,0.5519,-0.2084,-0.5138
-0.06,-0.139,-0.021,50.6,9.8,-89.7,0,2018,5,17,19,56,52.784,-0.6184,0.5435,-0.211,-0.5268
-0.071,-0.098,-0.001,50.3,18,-96.7,0,2018,5,17,19,56,52.801,-0.613,0.5344,-0.2146,-0.5407
-0.086,-0.072,-0.004,46.1,40,-98.7,0,2018,5,17,19,56,52.839,-0.6085,0.5233,-0.2207,-0.554
-0.101,-0.035,-0.053,42.7,63.5,-98.5,0,2018,5,17,19,56,52.839,-0.6053,0.5102,-0.2295,-0.5661
-0.13,0.05,-0.041,37.7,79.4,-95.9,0,2018,5,17,19,56,52.862,-0.6036,0.4947,-0.241,-0.5767
-0.167,0.104,-0.029,33.3,83.1,-92.6,0,2018,5,17,19,56,52.895,-0.6024,0.4782,-0.2538,-0.5865
-0.183,0.142,0.022,26.4,79.9,-87.2,0,2018,5,17,19,56,52.92,-0.6011,0.462,-0.2667,-0.5949
-0.166,0.179,0.013,18.7,78.3,-76.4,0,2018,5,17,19,56,52.923,-0.5999,0.4476,-0.279,-0.6015
-0.211,0.162,0.007,10.6,77.9,-64.6,0,2018,5,17,19,56,52.946,-0.5992,0.4342,-0.2909,-0.6062
-0.213,0.205,0.041,0.4,80.6,-48.9,0,2018,5,17,19,56,52.981,-0.5994,0.4224,-0.303,-0.6085
-0.196,0.283,0.036,-12.3,77.7,-31.7,0,2018,5,17,19,56,53.004,-0.6007,0.4124,-0.3152,-0.6079
-0.143,0.277,-0.019,-20.4,58,-15.7,0,2018,5,17,19,56,53.008,-0.6021,0.4059,-0.3258,-0.6053
-0.114,0.21,-0.014,-28.2,50.3,0,0,2018,5,17,19,56,53.022,-0.6036,0.4025,-0.3344,-0.6014
-0.108,0.16,0.005,-37.7,61.4,16.2,0,2018,5,17,19,56,53.059,-0.6064,0.4006,-0.3428,-0.5951
-0.12,0.22,0.064,-48.2,65.2,31.4,0,2018,5,17,19,56,53.083,-0.6108,0.3995,-0.3522,-0.5857
-0.156,0.233,0.034,-57.4,60.3,48.8,0,2018,5,17,19,56,53.087,-0.616,0.4007,-0.3614,-0.5738
-0.121,0.207,-0.05,-63.2,59.9,67.5,0,2018,5,17,19,56,53.103,-0.6221,0.404,-0.3698,-0.5593
-0.103,0.185,-0.051,-66.1,60.4,83.6,0,2018,5,17,19,56,53.122,-0.6294,0.4086,-0.3773,-0.5425
-0.114,0.203,0.005,-65.7,49.5,97.8,0,2018,5,17,19,56,53.145,-0.6376,0.4145,-0.3832,-0.5241
-0.151,0.224,0.028,-66.8,25.6,111.3,0,2018,5,17,19,56,53.179,-0.6453,0.4233,-0.3863,-0.505
-0.135,0.224,-0.03,-70.7,4.8,125.3,0,2018,5,17,19,56,53.203,-0.6519,0.4356,-0.3862,-0.4857
-0.076,0.242,-0.065,-73.3,-14.3,136.9,0,2018,5,17,19,56,53.206,-0.6576,0.451,-0.3838,-0.4655
-0.169,0.225,-0.068,-72.9,-32.3,149.4,0,2018,5,17,19,56,53.223,-0.6622,0.469,-0.3786,-0.4449
-0.287,0.238,-0.065,-72.6,-42.3,166.6,1023,2018,5,17,19,56,53.24,-0.6662,0.4894,-0.3708,-0.4231
-0.184,0.268,-0.082,-73.8,-46.2,182.9,1023,2018,5,17,19,56,53.264,-0.6704,0.5107,-0.3608,-0.3992
-0.109,0.278,-0.138,-76.3,-68.3,193.3,1023,2018,5,17,19,56,53.281,-0.6734,0.534,-0.3484,-0.374
-0.174,0.231,-0.151,-77.6,-90.9,201.6,1023,2018,5,17,19,56,53.305,-0.6736,0.56,-0.3332,-0.3486
-0.241,0.174,-0.096,-80.7,-90.3,212.2,1023,2018,5,17,19,56,53.341,-0.6718,0.5873,-0.3162,-0.3218
-0.157,0.172,-0.036,-89.8,-91.3,216.9,1023,2018,5,17,19,56,53.364,-0.6691,0.6142,-0.299,-0.2924
-0.129,0.144,-0.058,-92.6,-112,216.6,1023,2018,5,17,19,56,53.368,-0.6633,0.6417,-0.2814,-0.2626
-0.123,0.034,-0.113,-93.7,-117.8,213,0,2018,5,17,19,56,53.386,-0.6545,0.6696,-0.2623,-0.233
-0.16,0.026,-0.052,-98.5,-87.3,216.3,0,2018,5,17,19,56,53.404,-0.6462,0.6943,-0.2437,-0.2019
-0.12,-0.009,-0.021,-100.1,-68.1,212.1,0,2018,5,17,19,56,53.427,-0.64,0.7148,-0.2257,-0.1685
-0.06,-0.064,-0.037,-96.8,-78.8,200.7,0,2018,5,17,19,56,53.464,-0.6322,0.7338,-0.2082,-0.1353
-0.024,-0.124,-0.03,-99.3,-64.5,196.6,0,2018,5,17,19,56,53.486,-0.6229,0.7514,-0.1912,-0.103
-0.045,-0.187,-0.02,-102.9,-18.1,195,0,2018,5,17,19,56,53.491,-0.6173,0.7637,-0.1751,-0.0692
-0.033,-0.231,-0.072,-100.4,9.7,185.3,0,2018,5,17,19,56,53.507,-0.6157,0.7707,-0.1601,-0.0341
0.021,-0.159,-0.055,-92.5,12.8,175.5,0,2018,5,17,19,56,53.526,-0.6148,0.7749,-0.1461,-0.0013
0.044,-0.164,0.024,-89.7,28.3,171.7,0,2018,5,17,19,56,53.544,-0.6147,0.7769,-0.1323,0.0299
0.007,-0.319,0.008,-87.4,52.5,164.7,0,2018,5,17,19,56,53.565,-0.6176,0.775,-0.1186,0.0611
-0.042,-0.265,-0.068,-76.2,31.1,145,0,2018,5,17,19,56,53.602,-0.6202,0.772,-0.1058,0.09
-0.016,-0.131,-0.145,-59.3,-29.3,125,0,2018,5,17,19,56,53.626,-0.616,0.7736,-0.0949,0.1136
0.032,-0.185,-0.161,-47.9,-61.6,114.6,0,2018,5,17,19,56,53.63,-0.6047,0.7806,-0.0857,0.1324
-0.004,-0.285,-0.154,-42.8,-47,104.4,0,2018,5,17,19,56,53.648,-0.5929,0.7876,-0.077,0.1486
-0.057,-0.306,-0.166,-39.3,-21.3,89.9,0,2018,5,17,19,56,53.672,-0.5846,0.7916,-0.0688,0.1636
-0.056,-0.226,-0.15,-34.2,-4,76.4,0,2018,5,17,19,56,53.685,-0.5795,0.793,-0.0614,0.1769
-0.025,-0.196,-0.132,-27.1,-1.2,59.5,0,2018,5,17,19,56,53.722,-0.5765,0.7932,-0.0551,0.1876
-0.024,-0.262,-0.141,-19,-4.7,43.2,0,2018,5,17,19,56,53.746,-0.5738,0.7936,-0.0506,0.1954
-0.011,-0.221,-0.089,-13.5,-2.2,28.4,0,2018,5,17,19,56,53.75,-0.5717,0.794,-0.0476,0.2007
0.045,-0.172,-0.037,-11.6,1.2,18,0,2018,5,17,19,56,53.768,-0.5708,0.7939,-0.046,0.2042
0.077,-0.108,-0.03,-10.9,2,10.2,0,2018,5,17,19,56,53.804,-0.5706,0.7935,-0.0456,0.2064
0.098,-0.045,-0.02,-9,-7,4.6,0,2018,5,17,19,56,53.827,-0.5702,0.7934,-0.0462,0.2076
0.106,-0.04,-0.017,-7,-18.1,1.6,0,2018,5,17,19,56,53.832,-0.5684,0.7945,-0.0476,0.208
0.107,0.001,-0.004,-6.3,-23.8,1.4,0,2018,5,17,19,56,53.848,-0.5655,0.7965,-0.0494,0.2079
0.109,0.006,-0.036,-5.2,-27.6,1.1,0,2018,5,17,19,56,53.871,-0.5618,0.799,-0.0513,0.2077
0.098,0.006,-0.061,-1.4,-34.1,0,0,2018,5,17,19,56,53.89,-0.5572,0.8023,-0.0532,0.207
0.097,0.009,-0.083,3.2,-36.7,0.6,0,2018,5,17,19,56,53.908,-0.5521,0.8059,-0.0545,0.2064
0.04,-0.127,-0.063,7.6,-26,-2.4,0,2018,5,17,19,56,53.926,-0.5475,0.8094,-0.0554,0.2047
-0.036,-0.229,-0.035,8.9,-2,-11,0,2018,5,17,19,56,53.949,-0.5461,0.8109,-0.0562,0.2023
-0.018,-0.18,0,4.9,15.7,-21.9,0,2018,5,17,19,56,53.967,-0.5483,0.81,-0.0576,0.1997
0.012,-0.196,0.056,-1.5,34.2,-32.6,0,2018,5,17,19,56,53.99,-0.5533,0.807,-0.0607,0.1968
-0.031,-0.256,0.123,-10.4,49,-45.3,1023,2018,5,17,19,56,54.008,-0.5612,0.8018,-0.0653,0.1943
-0.038,-0.254,0.166,-18.7,50.7,-59.7,1023,2018,5,17,19,56,54.031,-0.5699,0.7956,-0.0724,0.1917
-0.021,-0.277,0.191,-26.3,50.6,-71.3,1023,2018,5,17,19,56,54.05,-0.579,0.7888,-0.0821,0.1888
0.011,-0.215,0.209,-35.4,56.8,-76.3,1023,2018,5,17,19,56,54.069,-0.5883,0.7812,-0.0937,0.1862
-0.005,-0.232,0.197,-46.4,70.8,-80.8,1023,2018,5,17,19,56,54.092,-0.599,0.7717,-0.1065,0.1848
-0.033,-0.193,0.165,-55.6,80.8,-86.1,1023,2018,5,17,19,56,54.11,-0.6109,0.7603,-0.1207,0.1843
-0.003,-0.099,0.137,-62,85.9,-88.3,1023,2018,5,17,19,56,54.135,-0.6241,0.7468,-0.1357,0.1848
0.047,-0.042,0.126,-66.3,88.8,-88.5,0,2018,5,17,19,56,54.154,-0.6376,0.7321,-0.1514,0.1856
0.062,-0.007,0.106,-71.6,93.5,-84.5,0,2018,5,17,19,56,54.168,-0.6507,0.7165,-0.1673,0.187
0.057,0.063,0.036,-76.8,96.1,-77.4,0,2018,5,17,19,56,54.187,-0.6634,0.7003,-0.1829,0.1896
0.066,0.161,-0.067,-77.6,90.1,-67.8,0,2018,5,17,19,56,54.209,-0.6742,0.6846,-0.1981,0.1932
0.106,0.251,-0.128,-73.3,71.9,-56.3,0,2018,5,17,19,56,54.228,-0.6831,0.6703,-0.2117,0.1978
0.102,0.329,-0.148,-66.5,43.1,-42.2,0,2018,5,17,19,56,54.251,-0.689,0.6589,-0.2237,0.2021
0.086,0.381,-0.199,-58.3,7.2,-28.3,0,2018,5,17,19,56,54.269,-0.6907,0.6523,-0.2344,0.2058
0.05,0.369,-0.201,-50.4,-16.5,-10.7,0,2018,5,17,19,56,54.291,-0.6885,0.6502,-0.2433,0.2092
0.029,0.378,-0.221,-42.1,-30.4,5.3,0,2018,5,17,19,56,54.329,-0.6841,0.6511,-0.2499,0.2131
-0.004,0.398,-0.235,-33.3,-55.2,16.6,0,2018,5,17,19,56,54.352,-0.6774,0.6551,-0.2546,0.2167
-0.052,0.333,-0.252,-24.3,-84.3,25.7,0,2018,5,17,19,56,54.357,-0.6672,0.6633,-0.2582,0.2193
-0.103,0.265,-0.301,-15.2,-109,30,0,2018,5,17,19,56,54.371,-0.6541,0.6749,-0.2608,0.2203
-0.14,0.242,-0.343,-6.6,-133.1,31.7,0,2018,5,17,19,56,54.388,-0.638,0.6896,-0.2629,0.2193
-0.152,0.159,-0.345,1.1,-139.5,33.2,0,2018,5,17,19,56,54.412,-0.62,0.706,-0.2645,0.2167
-0.135,0.107,-0.36,9.8,-139.8,33,0,2018,5,17,19,56,54.446,-0.6018,0.7225,-0.2649,0.2132
-0.139,0.111,-0.356,20.8,-144.9,30,0,2018,5,17,19,56,54.47,-0.5833,0.7392,-0.2645,0.2077
-0.086,0.072,-0.357,32.4,-146.6,29.4,0,2018,5,17,19,56,54.474,-0.5644,0.7562,-0.2632,0.2004
-0.048,0.086,-0.302,44,-146.8,29.1,0,2018,5,17,19,56,54.491,-0.5455,0.7731,-0.2606,0.1913
-0.026,0.033,-0.251,52.3,-137.7,33.1,0,2018,5,17,19,56,54.514,-0.5272,0.7895,-0.2564,0.1811
-0.008,0.003,-0.275,58.8,-127.6,33.7,0,2018,5,17,19,56,54.531,-0.5105,0.8045,-0.2508,0.1704
0.028,-0.02,-0.274,68.9,-123.7,36.7,0,2018,5,17,19,56,54.555,-0.4948,0.8188,-0.2436,0.1589
0.034,-0.054,-0.23,78.4,-122.9,38.9,0,2018,5,17,19,56,54.572,-0.4792,0.8328,-0.2351,0.146
0.025,-0.106,-0.196,86.7,-114,40.5,0,2018,5,17,19,56,54.595,-0.4631,0.8469,-0.2255,0.1319
0.043,-0.171,-0.126,92.5,-94.2,42.8,0,2018,5,17,19,56,54.613,-0.4498,0.8589,-0.2145,0.1174
0.07,-0.259,-0.151,97.6,-80.4,39.1,0,2018,5,17,19,56,54.629,-0.4399,0.8687,-0.2026,0.1028
0.043,-0.255,-0.151,105.8,-80.5,31.9,0,2018,5,17,19,56,54.652,-0.4308,0.8777,-0.1909,0.0868
0.049,-0.311,-0.119,108.8,-67,27.9,0,2018,5,17,19,56,54.671,-0.4229,0.8854,-0.1793,0.0699
0.042,-0.39,-0.11,115.3,-45,15.2,0,2018,5,17,19,56,54.694,-0.4187,0.8908,-0.1681,0.0523
0.017,-0.39,-0.06,118.9,-33,-2.1,0,2018,5,17,19,56,54.712,-0.4174,0.8941,-0.1586,0.0334
0.067,-0.424,-0.024,118.4,-11.2,-16.5,0,2018,5,17,19,56,54.735,-0.418,0.8956,-0.1514,0.0134
0.034,-0.43,-0.144,123.6,-1.1,-33.8,1023,2018,5,17,19,56,54.754,-0.4214,0.8949,-0.1463,-0.0071
-0.018,-0.415,-0.209,137.8,-18.8,-54.1,1023,2018,5,17,19,56,54.778,-0.4238,0.8938,-0.1431,-0.0305
0.022,-0.397,-0.151,150.5,-15.7,-69.9,1023,2018,5,17,19,56,54.795,-0.4244,0.8924,-0.1416,-0.0578
0.04,-0.363,-0.114,155.5,13.4,-79.4,1023,2018,5,17,19,56,54.818,-0.428,0.8883,-0.1415,-0.087
-0.032,-0.413,-0.099,157.9,64.2,-88.7,1023,2018,5,17,19,56,54.834,-0.437,0.8803,-0.1431,-0.1164
-0.075,-0.301,-0.069,158.7,89.7,-105.5,1023,2018,5,17,19,56,54.852,-0.4511,0.8679,-0.1476,-0.1461
-0.01,-0.207,-0.086,162.1,108.4,-113.5,1023,2018,5,17,19,56,54.87,-0.467,0.8527,-0.1539,-0.1761
0.004,-0.098,-0.151,165.6,117.6,-120.2,1023,2018,5,17,19,56,54.893,-0.4843,0.8348,-0.1612,-0.206
0.006,0.006,-0.157,173.3,118.8,-121.3,0,2018,5,17,19,56,54.932,-0.5002,0.8155,-0.1689,-0.2369
-0.038,0.027,-0.196,181.8,121.1,-121.3,0,2018,5,17,19,56,54.955,-0.5169,0.7934,-0.1756,-0.2689
-0.072,0.07,-0.206,188.9,123.8,-118.8,0,2018,5,17,19,56,54.959,-0.5333,0.7692,-0.1812,-0.3014
-0.112,0.13,-0.135,192.6,122.9,-117.6,0,2018,5,17,19,56,54.975,-0.5491,0.7432,-0.1856,-0.3339
-0.174,0.162,-0.072,191.7,121.8,-115,0,2018,5,17,19,56,54.999,-0.5637,0.7159,-0.1893,-0.3656
-0.213,0.141,-0.087,189.5,117.9,-114.6,0,2018,5,17,19,56,55.015,-0.5769,0.6877,-0.1925,-0.3962
-0.275,0.118,-0.004,184,101.3,-118.5,0,2018,5,17,19,56,55.039,-0.5878,0.6596,-0.195,-0.4258
-0.313,0.044,0.012,177.3,77.7,-123.8,0,2018,5,17,19,56,55.058,-0.5948,0.6327,-0.1963,-0.4553
-0.335,0.023,0.089,163.9,68.4,-125.1,0,2018,5,17,19,56,55.075,-0.5983,0.6067,-0.1978,-0.4843
-0.391,0.026,0.092,147,53.5,-131.3,0,2018,5,17,19,56,55.11,-0.5989,0.5823,-0.2,-0.5119
-0.398,-0.02,0.032,127.8,58.4,-129.8,0,2018,5,17,19,56,55.134,-0.5972,0.5594,-0.2034,-0.5375
-0.443,-0.043,-0.006,109.7,90.1,-125.7,0,2018,5,17,19,56,55.138,-0.5964,0.5356,-0.2102,-0.5596
-0.473,0.043,0.027,87,118.1,-120.5,0,2018,5,17,19,56,55.155,-0.5976,0.51,-0.2215,-0.5776
-0.429,0.116,0.006,65.9,129.1,-113.3,0,2018,5,17,19,56,55.179,-0.5995,0.4844,-0.2363,-0.5915
-0.399,0.131,-0.031,47.9,132.3,-105.6,0,2018,5,17,19,56,55.196,-0.6013,0.4601,-0.2529,-0.6022
-0.4,0.179,-0.039,29,131.3,-94.6,0,2018,5,17,19,56,55.219,-0.6029,0.4375,-0.2706,-0.6097
-0.327,0.249,-0.122,13.1,126.4,-78.8,0,2018,5,17,19,56,55.237,-0.6042,0.4175,-0.2886,-0.6141
-0.265,0.297,-0.159,3.7,117,-64.6,0,2018,5,17,19,56,55.261,-0.6057,0.4,-0.3058,-0.616
-0.218,0.285,-0.097,-7.1,103.7,-50.5,0,2018,5,17,19,56,55.276,-0.607,0.3854,-0.3217,-0.616
-0.196,0.27,-0.032,-21.5,100.8,-35.5,0,2018,5,17,19,56,55.312,-0.6083,0.3736,-0.3369,-0.6137
-0.168,0.284,-0.006,-36.2,99.7,-19.2,0,2018,5,17,19,56,55.336,-0.61,0.3644,-0.3523,-0.6089
-0.128,0.289,0.015,-52.3,103.9,-2.4,0,2018,5,17,19,56,55.341,-0.6125,0.3576,-0.3683,-0.6009
-0.129,0.333,0.06,-66.5,107.6,15.3,0,2018,5,17,19,56,55.358,-0.6159,0.3528,-0.3853,-0.5896
-0.097,0.331,0.053,-76.2,98.4,34.1,0,2018,5,17,19,56,55.378,-0.6198,0.3507,-0.4019,-0.5754
-0.102,0.267,0.034,-82.5,90.3,54,0,2018,5,17,19,56,55.415,-0.6242,0.3516,-0.4171,-0.559
-0.058,0.24,0.003,-86.7,88.6,73.3,0,2018,5,17,19,56,55.438,-0.6296,0.3547,-0.4309,-0.5403
-0.078,0.224,0.024,-90.2,88,91.7,0,2018,5,17,19,56,55.442,-0.6361,0.3594,-0.4436,-0.5189
-0.053,0.251,0.013,-91.7,76.4,108.8,0,2018,5,17,19,56,55.461,-0.6431,0.366,-0.4545,-0.4956
-0.045,0.231,-0.02,-91.2,54.2,120.3,1023,2018,5,17,19,56,55.477,-0.6497,0.3756,-0.4627,-0.4717
-0.097,0.199,-0.055,-86.2,38.1,130.8,1023,2018,5,17,19,56,55.5,-0.6556,0.3878,-0.4679,-0.448
-0.081,0.186,-0.065,-83.4,31.7,142.5,1023,2018,5,17,19,56,55.517,-0.6615,0.4014,-0.4706,-0.4238
-0.062,0.185,-0.029,-84.5,30.6,151.8,1023,2018,5,17,19,56,55.551,-0.6673,0.416,-0.472,-0.3983
-0.112,0.194,-0.024,-84.9,33.7,162.1,1023,2018,5,17,19,56,55.575,-0.6733,0.4307,-0.4722,-0.3714
-0.15,0.151,-0.022,-84.6,37.7,172.5,1023,2018,5,17,19,56,55.579,-0.6792,0.4452,-0.4721,-0.3426
-0.096,0.171,-0.038,-85.8,34.8,180.3,1023,2018,5,17,19,56,55.597,-0.6846,0.4598,-0.4711,-0.3126
-0.094,0.221,-0.024,-87,30.6,188.8,0,2018,5,17,19,56,55.62,-0.6896,0.4753,-0.4682,-0.2812
-0.122,0.234,-0.069,-84.5,18.9,196.4,0,2018,5,17,19,56,55.637,-0.6938,0.4918,-0.4633,-0.249
-0.09,0.179,-0.114,-82.4,1,200,0,2018,5,17,19,56,55.66,-0.6961,0.5098,-0.4563,-0.2171
-0.066,0.144,-0.122,-80,-13.1,201.2,0,2018,5,17,19,56,55.696,-0.6962,0.5293,-0.4476,-0.1861
-0.06,0.138,-0.09,-81.8,-5.7,208.5,0,2018,5,17,19,56,55.719,-0.6951,0.5488,-0.4378,-0.1546
-0.071,0.154,-0.098,-81.2,9.5,212.1,0,2018,5,17,19,56,55.723,-0.6943,0.5663,-0.4271,-0.1212
-0.024,0.15,-0.131,-78.6,9.5,210.7,0,2018,5,17,19,56,55.743,-0.6934,0.5819,-0.4157,-0.0868
-0.022,0.018,-0.135,-70.9,-6.9,200.5,0,2018,5,17,19,56,55.759,-0.6909,0.5973,-0.4034,-0.0544
-0.011,0.008,-0.059,-69.5,-17.9,193.6,0,2018,5,17,19,56,55.777,-0.6852,0.6138,-0.3911,-0.0243
0.008,0.007,-0.054,-70.3,-27.1,186.7,0,2018,5,17,19,56,55.801,-0.6779,0.6298,-0.379,0.0043
0.018,-0.043,-0.138,-67.7,-30.2,178.4,0,2018,5,17,19,56,55.818,-0.6687,0.6457,-0.3671,0.0315
0.006,-0.093,-0.182,-59,-40.2,163.2,0,2018,5,17,19,56,55.841,-0.6593,0.6601,-0.3552,0.0564
0.041,-0.024,-0.182,-52.4,-57.4,153.8,0,2018,5,17,19,56,55.878,-0.6485,0.6746,-0.3437,0.0777
0.007,-0.057,-0.178,-47.1,-69.3,141.7,0,2018,5,17,19,56,55.902,-0.6349,0.6904,-0.3328,0.0961
0.028,-0.089,-0.231,-43.8,-56.4,136.6,0,2018,5,17,19,56,55.905,-0.6216,0.7048,-0.3221,0.1132
0.044,-0.019,-0.257,-33.6,-66,127.1,0,2018,5,17,19,56,55.924,-0.6095,0.7175,-0.3111,0.1291
0,0.019,-0.274,-20.2,-107,117.7,0,2018,5,17,19,56,55.959,-0.5944,0.7324,-0.3005,0.1406
-0.038,-0.008,-0.293,-10,-130.6,111.7,0,2018,5,17,19,56,55.959,-0.575,0.7504,-0.2903,0.1476
-0.044,-0.045,-0.283,-4.5,-125.4,108.7,0,2018,5,17,19,56,55.982,-0.5549,0.7683,-0.2797,0.153
-0.024,0.051,-0.298,1.7,-132.3,100.5,0,2018,5,17,19,56,55.998,-0.5349,0.7853,-0.2691,0.1569
-0.004,0.057,-0.333,8.5,-141.1,97.2,0,2018,5,17,19,56,56.019,-0.5134,0.8026,-0.2588,0.1587
-0.024,0.077,-0.251,13.1,-130.1,101.3,0,2018,5,17,19,56,56.056,-0.492,0.8192,-0.2476,0.1595
-0.03,-0.026,-0.213,14.4,-92,108.5,0,2018,5,17,19,56,56.077,-0.4731,0.8337,-0.2343,0.1615
-0.027,0.034,-0.217,16.4,-53.6,112.3,0,2018,5,17,19,56,56.08,-0.4592,0.8449,-0.2187,0.1652
-0.022,0.126,-0.175,23.4,-39.5,117.8,0,2018,5,17,19,56,56.115,-0.4503,0.8531,-0.2014,0.1696
-0.015,0.071,-0.064,31.1,-41.1,122.5,0,2018,5,17,19,56,56.138,-0.4412,0.8613,-0.1822,0.1736
-0.046,-0.074,0.002,35.4,-52.4,119.9,0,2018,5,17,19,56,56.142,-0.4309,0.8698,-0.1624,0.1765
-0.07,-0.154,0.033,34.3,-51.8,113.8,0,2018,5,17,19,56,56.18,-0.4207,0.8777,-0.1433,0.1788
-0.085,-0.231,0.088,25.9,-36.1,106.4,0,2018,5,17,19,56,56.18,-0.4116,0.8842,-0.1254,0.1812
-0.08,-0.241,0.071,17.9,-21.9,94.6,0,2018,5,17,19,56,56.203,-0.4049,0.8888,-0.1092,0.1844
-0.088,-0.256,0.065,13.4,-16.2,81.6,1023,2018,5,17,19,56,56.22,-0.3999,0.892,-0.0949,0.1877
-0.048,-0.278,0.068,10.5,-17.4,68.1,1023,2018,5,17,19,56,56.243,-0.3953,0.8946,-0.083,0.1907
-0.031,-0.313,0.082,5.7,-10.1,56,1023,2018,5,17,19,56,56.261,-0.3916,0.8965,-0.0732,0.1934
-0.008,-0.283,0.063,0.7,-2.8,43.6,1023,2018,5,17,19,56,56.285,-0.3896,0.8974,-0.0653,0.1961
0.007,-0.224,0.035,-1.9,-10.7,31.6,1023,2018,5,17,19,56,56.3,-0.3876,0.8981,-0.0597,0.1987
0.037,-0.198,-0.02,-2,-19.1,22.5,1023,2018,5,17,19,56,56.323,-0.3846,0.8992,-0.0561,0.2006
0.048,-0.202,-0.048,0.6,-20.2,14.3,1023,2018,5,17,19,56,56.361,-0.3812,0.9005,-0.0539,0.2016
0.08,-0.166,-0.065,1.8,-16.3,5.7,1023,2018,5,17,19,56,56.385,-0.3786,0.9017,-0.0528,0.2018
0.093,-0.146,-0.121,4.3,-15.3,-4,1023,2018,5,17,19,56,56.39,-0.3766,0.9026,-0.053,0.2012
0.091,-0.144,-0.14,10.8,-17.4,-13.8,0,2018,5,17,19,56,56.407,-0.3746,0.904,-0.0549,0.1981
0.109,-0.132,-0.148,16.1,-14.2,-22.1,0,2018,5,17,19,56,56.442,-0.3731,0.9054,-0.0576,0.1937
0.117,-0.116,-0.186,22.5,-9.6,-29.4,0,2018,5,17,19,56,56.442,-0.3726,0.9064,-0.0608,0.1888
0.105,-0.144,-0.234,30.9,-2.6,-37.1,0,2018,5,17,19,56,56.464,-0.3733,0.9072,-0.0645,0.1823
0.069,-0.134,-0.249,42.9,1.8,-45.2,0,2018,5,17,19,56,56.481,-0.3753,0.9078,-0.0686,0.1736
0.066,-0.132,-0.229,53.3,7.2,-51.8,0,2018,5,17,19,56,56.504,-0.3784,0.9083,-0.0729,0.1625
0.059,-0.138,-0.297,66.4,1.5,-61.9,0,2018,5,17,19,56,56.522,-0.3816,0.9088,-0.0779,0.1492
0.056,-0.157,-0.3,81.5,0,-69.7,0,2018,5,17,19,56,56.542,-0.3843,0.9097,-0.0834,0.1328
0.026,-0.192,-0.266,94.3,5.9,-79.1,0,2018,5,17,19,56,56.58,-0.3872,0.9106,-0.0893,0.1131
0.012,-0.183,-0.227,106.7,10.4,-86.8,0,2018,5,17,19,56,56.604,-0.3909,0.9108,-0.0957,0.0911
0.033,-0.159,-0.198,117.3,23.9,-92.2,0,2018,5,17,19,56,56.607,-0.3964,0.9099,-0.1021,0.067
0.036,-0.133,-0.214,128.1,29.5,-97.4,0,2018,5,17,19,56,56.624,-0.4034,0.9076,-0.1084,0.0411
0.044,-0.133,-0.212,140.4,36.7,-98.3,0,2018,5,17,19,56,56.647,-0.4107,0.9044,-0.1143,0.0132
-0.011,-0.116,-0.167,152.9,45.6,-102.8,0,2018,5,17,19,56,56.663,-0.4195,0.8996,-0.1195,-0.0163
-0.029,-0.097,-0.17,165.4,37.2,-111,0,2018,5,17,19,56,56.682,-0.4281,0.8937,-0.1246,-0.0478
0.024,-0.127,-0.182,176.7,45.5,-111.9,0,2018,5,17,19,56,56.705,-0.4359,0.8868,-0.1294,-0.0817
0,-0.149,-0.153,183.3,77,-111.9,0,2018,5,17,19,56,56.742,-0.4471,0.8767,-0.1337,-0.1164
-0.039,-0.052,-0.1,187.8,94.9,-115.6,0,2018,5,17,19,56,56.765,-0.4617,0.863,-0.1381,-0.1509
-0.054,-0.053,-0.12,194.3,97.7,-120.9,0,2018,5,17,19,56,56.769,-0.4765,0.8472,-0.1429,-0.1861
-0.086,-0.011,-0.08,198.4,96.4,-124.6,0,2018,5,17,19,56,56.785,-0.491,0.8291,-0.1479,-0.2225
-0.149,-0.006,-0.13,206.7,76.1,-133.3,0,2018,5,17,19,56,56.822,-0.5031,0.8097,-0.1525,-0.2605
-0.127,-0.056,-0.14,210.9,88,-131.6,0,2018,5,17,19,56,56.845,-0.5132,0.789,-0.1563,-0.2993
-0.161,0.029,0.013,203.8,130.2,-132.6,0,2018,5,17,19,56,56.85,-0.5264,0.764,-0.1614,-0.3362
-0.231,0.134,0.092,190.2,160.8,-136,0,2018,5,17,19,56,56.863,-0.5431,0.7345,-0.1695,-0.3697
-0.214,0.244,0.022,175.4,167.6,-140.4,0,2018,5,17,19,56,56.882,-0.5599,0.7023,-0.1807,-0.4006
-0.156,0.258,0.002,162,163.6,-139.1,0,2018,5,17,19,56,56.906,-0.5742,0.6691,-0.1941,-0.4298
-0.262,0.193,0.053,149.7,155.5,-138.6,0,2018,5,17,19,56,56.94,-0.5866,0.6359,-0.2072,-0.4566
-0.324,0.17,0.13,133.6,131.3,-140,0,2018,5,17,19,56,56.964,-0.5963,0.6041,-0.2196,-0.4808
-0.314,0.202,0.16,117.3,97.5,-139.9,0,2018,5,17,19,56,56.969,-0.6009,0.5758,-0.2304,-0.5041
-0.295,0.271,0.125,97.5,67.9,-135.7,0,2018,5,17,19,56,56.986,-0.601,0.5519,-0.24,-0.5258
-0.302,0.253,0.001,83.3,52.4,-123.9,1023,2018,5,17,19,56,57.01,-0.5981,0.5318,-0.2481,-0.5456
-0.316,0.244,-0.014,69.7,65.2,-105.7,1023,2018,5,17,19,56,57.026,-0.5957,0.5132,-0.2559,-0.5622
-0.318,0.244,0.048,54.5,76.5,-85.4,1023,2018,5,17,19,56,57.049,-0.5955,0.495,-0.2646,-0.5745
-0.304,0.178,0.112,40.7,79.2,-68.3,1023,2018,5,17,19,56,57.068,-0.5967,0.4783,-0.2736,-0.5832
-0.265,0.176,0.098,23.4,79.5,-54.2,1023,2018,5,17,19,56,57.091,-0.5986,0.4636,-0.2831,-0.5885
-0.205,0.26,0.069,10.1,62.9,-45.1,1023,2018,5,17,19,56,57.11,-0.6002,0.4518,-0.2927,-0.5914
-0.208,0.197,0.019,2,39.7,-36.4,1023,2018,5,17,19,56,57.127,-0.6001,0.4439,-0.3002,-0.5938
-0.242,0.081,0.002,-5.2,44,-26,1023,2018,5,17,19,56,57.146,-0.5999,0.438,-0.3064,-0.5951
-0.197,0.08,-0.009,-12.6,52.7,-16.7,1023,2018,5,17,19,56,57.168,-0.601,0.432,-0.3137,-0.5946
-0.155,0.125,-0.029,-21,56.4,-11.3,1023,2018,5,17,19,56,57.186,-0.6026,0.4266,-0.3225,-0.5922
-0.103,0.173,-0.073,-25.3,48.4,-7.7,0,2018,5,17,19,56,57.209,-0.6042,0.4229,-0.3309,-0.5886
-0.061,0.19,-0.06,-27.4,43.4,-4.6,0,2018,5,17,19,56,57.228,-0.6054,0.4203,-0.3386,-0.5848
-0.086,0.168,-0.008,-30.1,40.5,1.1,0,2018,5,17,19,56,57.247,-0.6065,0.4187,-0.3458,-0.5806
-0.103,0.103,0.021,-34,48.2,9.7,0,2018,5,17,19,56,57.271,-0.6082,0.4174,-0.3531,-0.5753
-0.117,0.103,0.063,-42.7,70.4,22.8,0,2018,5,17,19,56,57.306,-0.6118,0.4159,-0.3616,-0.5673
-0.205,0.139,0.075,-53.7,89.9,40.2,0,2018,5,17,19,56,57.329,-0.6177,0.4138,-0.3724,-0.5552
-0.254,0.163,0.051,-59.4,86.8,57.2,0,2018,5,17,19,56,57.333,-0.6251,0.4128,-0.3834,-0.5401
-0.256,0.081,0.081,-59.8,81.4,73.9,0,2018,5,17,19,56,57.351,-0.6332,0.4136,-0.3927,-0.5231
-0.178,0.07,0.101,-67.2,81.3,89,0,2018,5,17,19,56,57.369,-0.642,0.4159,-0.4009,-0.5039
-0.141,0.126,0.102,-81.4,75.9,101.6,0,2018,5,17,19,56,57.387,-0.6509,0.4199,-0.4092,-0.4821
-0.214,0.21,0.065,-92.1,54.5,116.4,0,2018,5,17,19,56,57.41,-0.6583,0.4275,-0.4163,-0.4588
-0.179,0.14,-0.01,-100.1,49.5,134.2,0,2018,5,17,19,56,57.429,-0.6648,0.4383,-0.4219,-0.4334
-0.094,0.167,-0.019,-102.3,45.8,149.4,0,2018,5,17,19,56,57.451,-0.6709,0.4501,-0.4268,-0.4061
-0.119,0.191,-0.001,-104.7,34.9,165.8,0,2018,5,17,19,56,57.469,-0.677,0.4641,-0.4294,-0.3764
-0.152,0.207,0.06,-109.1,27.6,183.2,0,2018,5,17,19,56,57.492,-0.6826,0.4803,-0.4295,-0.3446
-0.096,0.298,0.024,-117.1,14.8,199.2,0,2018,5,17,19,56,57.529,-0.6869,0.4984,-0.4279,-0.3106
-0.063,0.296,-0.097,-120.5,4,217.3,0,2018,5,17,19,56,57.552,-0.6896,0.5189,-0.424,-0.2744
-0.053,0.271,-0.141,-120.4,-3.7,231.3,0,2018,5,17,19,56,57.556,-0.6907,0.5407,-0.4176,-0.2365
-0.088,0.246,-0.119,-119.9,-14.2,239.7,0,2018,5,17,19,56,57.589,-0.6902,0.5633,-0.409,-0.1971
-0.037,0.242,-0.126,-117.1,-24.9,246,0,2018,5,17,19,56,57.589,-0.6873,0.5866,-0.3983,-0.1573
0.049,0.234,-0.139,-113.1,-32.1,251.6,0,2018,5,17,19,56,57.613,-0.6825,0.6097,-0.3853,-0.1176
0.048,0.186,-0.15,-109.6,-38.4,247.8,0,2018,5,17,19,56,57.628,-0.6755,0.6323,-0.3707,-0.0785
0.015,0.076,-0.189,-101.4,-37,240.4,0,2018,5,17,19,56,57.651,-0.6673,0.6532,-0.3551,-0.0406
0.063,0.035,-0.215,-90.6,-27.6,232.1,0,2018,5,17,19,56,57.671,-0.6587,0.6717,-0.3388,-0.004
0.078,-0.091,-0.205,-80.4,-14,218.5,0,2018,5,17,19,56,57.69,-0.6507,0.6869,-0.3219,0.0305
0.064,-0.221,-0.187,-71.3,9.2,200.8,0,2018,5,17,19,56,57.732,-0.6437,0.6988,-0.3053,0.0631
0.046,-0.276,-0.168,-62.2,20.2,177.7,0,2018,5,17,19,56,57.735,-0.6387,0.7067,-0.2894,0.0934
0.031,-0.371,-0.208,-49.5,9.5,151.6,0,2018,5,17,19,56,57.751,-0.6342,0.7126,-0.2748,0.1197
0.03,-0.311,-0.168,-38.3,-19,122.5,0,2018,5,17,19,56,57.772,-0.6274,0.7194,-0.2628,0.1397
0.078,-0.311,-0.11,-37.1,-17.4,103.2,1023,2018,5,17,19,56,57.788,-0.6195,0.7264,-0.2534,0.1554
0.08,-0.339,-0.096,-37.6,5.8,85.3,1023,2018,5,17,19,56,57.809,-0.6142,0.7303,-0.2459,0.1699
0.074,-0.331,-0.123,-32.6,9.8,68.2,1023,2018,5,17,19,56,57.845,-0.6111,0.7317,-0.24,0.1829
0.083,-0.194,-0.149,-22.2,-5.1,55.3,1023,2018,5,17,19,56,57.869,-0.6076,0.7336,-0.2355,0.1925
0.107,-0.156,-0.093,-16.5,-3.4,49.2,1023,2018,5,17,19,56,57.873,-0.6036,0.7363,-0.2315,0.1994
0.129,-0.138,-0.021,-15.8,15.2,44.4,1023,2018,5,17,19,56,57.889,-0.602,0.737,-0.2275,0.2059
0.085,-0.108,-0.068,-11.9,10,33.4,1023,2018,5,17,19,56,57.913,-0.6019,0.7365,-0.224,0.2118
0.088,-0.024,-0.124,-3.4,-19.5,25.6,1023,2018,5,17,19,56,57.931,-0.5997,0.7381,-0.2215,0.2151
0.121,0.011,-0.063,2.9,-42.6,21.7,1023,2018,5,17,19,56,57.955,-0.5946,0.7425,-0.2197,0.2161
0.117,0.013,-0.014,3.1,-39.8,23.2,0,2018,5,17,19,56,57.973,-0.5883,0.748,-0.2186,0.2156
0.11,0.024,-0.046,1.5,-32.9,22.6,0,2018,5,17,19,56,57.997,-0.5827,0.7528,-0.2172,0.2155
0.094,0.093,-0.095,4.3,-46.7,20.5,0,2018,5,17,19,56,58.03,-0.577,0.7576,-0.2157,0.2157
0.095,0.131,-0.082,8.1,-62.4,22.4,0,2018,5,17,19,56,58.053,-0.569,0.7642,-0.2143,0.2149
0.064,0.067,-0.062,8.3,-62,27.2,0,2018,5,17,19,56,58.057,-0.5595,0.772,-0.2127,0.2137
0.014,0.013,-0.08,7.8,-53.2,29,0,2018,5,17,19,56,58.073,-0.5503,0.7794,-0.2104,0.2129
0.003,0.085,-0.095,12.2,-71.3,26.2,0,2018,5,17,19,56,58.091,-0.5405,0.7872,-0.2079,0.2118
0.016,0.109,-0.113,18.6,-102.6,25.4,0,2018,5,17,19,56,58.114,-0.5264,0.798,-0.2062,0.2084
0.017,0.05,-0.105,20.8,-108.2,28.2,0,2018,5,17,19,56,58.149,-0.5099,0.8103,-0.2046,0.2036
0.007,0.002,-0.094,21,-93.3,31.7,0,2018,5,17,19,56,58.172,-0.4945,0.8214,-0.202,0.1993
0.02,0.019,-0.059,20.9,-78,34.2,0,2018,5,17,19,56,58.176,-0.4813,0.831,-0.1984,0.1958
0.012,0.017,-0.04,22.2,-71.5,35.5,0,2018,5,17,19,56,58.196,-0.4697,0.8393,-0.194,0.1927
0.011,0.042,-0.042,22.4,-70,37.9,0,2018,5,17,19,56,58.229,-0.4585,0.8473,-0.189,0.1898
0.008,0.007,-0.064,23.1,-65.2,39.7,0,2018,5,17,19,56,58.253,-0.4475,0.8549,-0.1835,0.187
-0.008,0.017,-0.044,25.9,-62.1,42.1,0,2018,5,17,19,56,58.257,-0.437,0.8622,-0.1774,0.1843
0,-0.001,-0.039,28.7,-55.7,43.6,0,2018,5,17,19,56,58.273,-0.4272,0.8691,-0.1706,0.1815
0.01,0.005,-0.043,31.5,-52.3,44.7,0,2018,5,17,19,56,58.298,-0.4182,0.8755,-0.1632,0.1785
0.025,-0.003,-0.06,32.5,-41.5,48.6,0,2018,5,17,19,56,58.314,-0.4101,0.8814,-0.1551,0.1753
0.01,-0.014,-0.044,34.4,-31.7,50.8,0,2018,5,17,19,56,58.35,-0.4038,0.8864,-0.146,0.1724
0.011,-0.041,-0.03,35.8,-25.6,50.3,0,2018,5,17,19,56,58.374,-0.3988,0.8907,-0.1364,0.1695
0.007,-0.072,-0.028,36.7,-21.2,47.4,0,2018,5,17,19,56,58.378,-0.3948,0.8945,-0.1269,0.1666
-0.002,-0.071,-0.06,38.4,-19.4,42.7,0,2018,5,17,19,56,58.394,-0.3913,0.8979,-0.1178,0.1632
-0.002,-0.106,-0.084,41.7,-18.7,38.1,0,2018,5,17,19,56,58.418,-0.388,0.9011,-0.1092,0.1591
0.009,-0.12,-0.055,44.8,-14.6,31.9,0,2018,5,17,19,56,58.435,-0.3856,0.904,-0.1012,0.154
0.02,-0.138,-0.016,45.7,-9.1,26.6,0,2018,5,17,19,56,58.459,-0.3845,0.9062,-0.0938,0.1484
0.045,-0.157,-0.026,46.7,0.8,21.7,0,2018,5,17,19,56,58.494,-0.3849,0.9077,-0.087,0.1422
0.06,-0.165,-0.043,48.7,11.7,16.8,0,2018,5,17,19,56,58.494,-0.3873,0.9083,-0.0807,0.1355
0.043,-0.121,-0.034,52.2,12.5,11.5,0,2018,5,17,19,56,58.518,-0.3904,0.9085,-0.0749,0.128
0.025,-0.137,0.013,53.8,9.5,5.7,0,2018,5,17,19,56,58.534,-0.3934,0.9087,-0.0697,0.12
0.023,-0.156,0.036,54.5,1.8,-2.5,0,2018,5,17,19,56,58.572,-0.396,0.909,-0.0656,0.1114
0.007,-0.157,0.01,55.3,-11.3,-14.2,1023,2018,5,17,19,56,58.596,-0.397,0.9099,-0.0633,0.1019
0.025,-0.18,-0.021,54,-13.6,-23.9,1023,2018,5,17,19,56,58.6,-0.3966,0.9112,-0.0629,0.0915
0.011,-0.169,-0.063,57,-14.3,-35.1,1023,2018,5,17,19,56,58.616,-0.396,0.9124,-0.0641,0.0802
0.013,-0.195,-0.015,57,0.4,-41.7,1023,2018,5,17,19,56,58.653,-0.3966,0.913,-0.0664,0.0682
0.008,-0.194,-0.005,57,8.1,-52.1,1023,2018,5,17,19,56,58.676,-0.3997,0.9122,-0.0698,0.0558
0.005,-0.166,-0.017,57.8,11.3,-60.8,1023,2018,5,17,19,56,58.681,-0.4033,0.9109,-0.0748,0.0428
0.034,-0.147,-0.063,59.7,13.6,-67.2,1023,2018,5,17,19,56,58.699,-0.407,0.9093,-0.0807,0.029
0.044,-0.097,-0.088,66.2,10.5,-73,1023,2018,5,17,19,56,58.734,-0.4102,0.9076,-0.0874,0.014
0.051,-0.124,-0.089,72.2,13,-77,1023,2018,5,17,19,56,58.757,-0.4129,0.9058,-0.0944,-0.0025
0.053,-0.124,-0.109,78.3,22.3,-80.5,0,2018,5,17,19,56,58.763,-0.4167,0.903,-0.1016,-0.02
0.091,-0.104,-0.144,86.2,28.6,-82.9,0,2018,5,17,19,56,58.778,-0.4215,0.8994,-0.1088,-0.0389
0.096,-0.107,-0.119,93.9,36.9,-83.7,0,2018,5,17,19,56,58.795,-0.4271,0.8948,-0.1157,-0.059
0.088,-0.065,-0.055,97.9,53.7,-84.4,0,2018,5,17,19,56,58.818,-0.4348,0.8885,-0.1224,-0.0798
0.07,-0.033,-0.059,102.7,61.4,-87.4,0,2018,5,17,19,56,58.856,-0.4441,0.8807,-0.1292,-0.1011
0.063,-0.074,-0.081,108.1,60.3,-91.6,0,2018,5,17,19,56,58.878,-0.4539,0.8719,-0.136,-0.1231
0.03,-0.06,-0.077,112.9,51.5,-95.8,0,2018,5,17,19,56,58.883,-0.4625,0.8627,-0.1427,-0.146
0.025,-0.057,-0.048,117.6,53.4,-96.1,0,2018,5,17,19,56,58.902,-0.4701,0.8531,-0.1492,-0.1698
0.001,-0.049,-0.018,119.6,72.5,-96.6,0,2018,5,17,19,56,58.918,-0.4791,0.8418,-0.1556,-0.1935
-0.018,-0.039,-0.059,120.1,87.9,-98.5,0,2018,5,17,19,56,58.941,-0.4905,0.8282,-0.1626,-0.2165
-0.067,-0.108,-0.137,122.6,84,-103.8,0,2018,5,17,19,56,58.976,-0.5022,0.8132,-0.1699,-0.2395
-0.084,-0.076,-0.1,125.7,82.5,-106.2,0,2018,5,17,19,56,58.976,-0.5128,0.7974,-0.1774,-0.2639
-0.081,-0.033,-0.047,123.1,103.6,-106.9,0,2018,5,17,19,56,58.998,-0.5242,0.78,-0.1849,-0.2871
-0.09,0.032,-0.027,117.3,127.6,-109.2,0,2018,5,17,19,56,59.018,-0.5377,0.76,-0.1944,-0.3087
-0.1,0.044,-0.074,111.2,144.2,-111.3,0,2018,5,17,19,56,59.056,-0.5528,0.7375,-0.2056,-0.3286
-0.152,0.043,-0.086,105.8,146.1,-115.8,0,2018,5,17,19,56,59.08,-0.5684,0.7131,-0.2182,-0.3474
-0.153,0.09,-0.068,104.9,127.4,-120.4,0,2018,5,17,19,56,59.084,-0.5815,0.6885,-0.2309,-0.3665
-0.141,0.126,-0.068,102.3,112.6,-122.8,0,2018,5,17,19,56,59.1,-0.5911,0.6653,-0.243,-0.3858
-0.168,0.119,-0.131,101.7,104.5,-125,0,2018,5,17,19,56,59.12,-0.5988,0.642,-0.2544,-0.4054
-0.232,0.058,-0.141,103.4,93.6,-129.9,0,2018,5,17,19,56,59.139,-0.6053,0.6183,-0.265,-0.4254
-0.241,0.06,-0.098,104.3,77.4,-133,0,2018,5,17,19,56,59.161,-0.609,0.5952,-0.2744,-0.4465
-0.256,0.048,-0.059,101.2,78.9,-133.4,0,2018,5,17,19,56,59.199,-0.6111,0.5731,-0.2831,-0.4667
-0.289,0.077,-0.024,94.3,93.7,-132.1,0,2018,5,17,19,56,59.199,-0.6136,0.5495,-0.2922,-0.4858
-0.327,0.08,-0.053,86.1,109.7,-131.8,0,2018,5,17,19,56,59.222,-0.6169,0.5239,-0.3031,-0.5029
-0.324,0.095,-0.036,73.9,132.5,-128.9,0,2018,5,17,19,56,59.257,-0.6208,0.4966,-0.3162,-0.5176
-0.312,0.209,0.042,57.1,147.2,-123.8,0,2018,5,17,19,56,59.281,-0.6249,0.4678,-0.3326,-0.529
-0.308,0.29,0.123,39.5,143.9,-115,0,2018,5,17,19,56,59.285,-0.6283,0.4401,-0.3503,-0.5372
-0.292,0.3,0.137,23.1,126.4,-104.6,0,2018,5,17,19,56,59.303,-0.6299,0.4154,-0.3678,-0.5433
-0.233,0.286,0.113,8.4,110.6,-88.6,0,2018,5,17,19,56,59.32,-0.6301,0.3946,-0.3838,-0.5476
-0.187,0.329,0.063,-5.4,104.1,-68.6,0,2018,5,17,19,56,59.343,-0.6298,0.3773,-0.3991,-0.5491
-0.182,0.383,0.047,-13.7,87.3,-47.7,0,2018,5,17,19,56,59.364,-0.6298,0.3635,-0.4131,-0.5481
-0.109,0.357,0.022,-22.8,65.8,-26.1,1023,2018,5,17,19,56,59.381,-0.6298,0.3542,-0.4245,-0.5455
-0.083,0.34,0.051,-32.1,48.3,-8.8,1023,2018,5,17,19,56,59.403,-0.6295,0.3494,-0.4339,-0.5414
-0.096,0.315,0.055,-40.5,37.8,9,1023,2018,5,17,19,56,59.422,-0.6294,0.3482,-0.4418,-0.536
-0.107,0.291,0.042,-47.9,28.6,24.4,1023,2018,5,17,19,56,59.458,-0.6295,0.35,-0.4486,-0.5289
-0.115,0.25,0.031,-53.8,21.7,38.3,1023,2018,5,17,19,56,59.481,-0.6299,0.3544,-0.4543,-0.5205
-0.09,0.201,0,-59.3,12.9,49.6,1023,2018,5,17,19,56,59.486,-0.6305,0.3611,-0.4591,-0.511
-0.077,0.191,-0.016,-62.7,1.3,56.4,1023,2018,5,17,19,56,59.503,-0.6307,0.3699,-0.4628,-0.5009
-0.11,0.184,-0.016,-63.1,-12,62.4,1023,2018,5,17,19,56,59.538,-0.6304,0.3808,-0.4651,-0.491
-0.114,0.167,-0.018,-62.9,-12.9,72.4,1023,2018,5,17,19,56,59.561,-0.6301,0.3931,-0.4662,-0.4806
-0.058,0.144,-0.013,-64.3,-11.1,81.8,1023,2018,5,17,19,56,59.566,-0.6303,0.4057,-0.4668,-0.4691
-0.035,0.128,-0.008,-68.1,-11.7,87.1,0,2018,5,17,19,56,59.585,-0.6304,0.4186,-0.4678,-0.4565
-0.092,0.158,0.017,-72.2,-14.8,92.7,0,2018,5,17,19,56,59.602,-0.6304,0.4325,-0.4683,-0.4429
-0.105,0.172,0.01,-74.3,-18.6,100.8,0,2018,5,17,19,56,59.625,-0.6304,0.4478,-0.4676,-0.428
-0.069,0.158,0.01,-76.6,-16.2,109.9,0,2018,5,17,19,56,59.661,-0.6305,0.4638,-0.4661,-0.4121
-0.004,0.166,-0.006,-78.8,-12.3,116.5,0,2018,5,17,19,56,59.684,-0.6304,0.4794,-0.4651,-0.3952
-0.024,0.126,0.003,-81.3,-10.9,120.9,0,2018,5,17,19,56,59.689,-0.6304,0.4951,-0.4637,-0.3771
-0.034,0.15,0.011,-82.4,-12.1,125.3,0,2018,5,17,19,56,59.703,-0.6303,0.511,-0.4619,-0.3579
-0.047,0.168,0.015,-81,-19.9,130.5,0,2018,5,17,19,56,59.721,-0.6294,0.5274,-0.4591,-0.3387
-0.013,0.095,0.008,-81.5,-20.4,134.1,0,2018,5,17,19,56,59.745,-0.6282,0.5445,-0.4551,-0.3188
0.013,0.103,-0.027,-82.3,-19.1,134.7,0,2018,5,17,19,56,59.781,-0.6265,0.5616,-0.4506,-0.2981
-0.001,0.152,-0.04,-82.4,-17.4,138.6,0,2018,5,17,19,56,59.805,-0.6245,0.5782,-0.4458,-0.2768
-0.028,0.168,-0.069,-77.2,-23.8,141.9,0,2018,5,17,19,56,59.808,-0.6229,0.5949,-0.439,-0.2551
-0.023,0.102,-0.09,-72.2,-30.7,141.5,0,2018,5,17,19,56,59.825,-0.6204,0.6119,-0.431,-0.2341
-0.009,0.117,-0.09,-71.2,-25.1,143.9,0,2018,5,17,19,56,59.843,-0.6175,0.6284,-0.4222,-0.2131
-0.011,0.121,-0.092,-69.2,-19.8,146.3,0,2018,5,17,19,56,59.867,-0.6151,0.6438,-0.4129,-0.191
-0.009,0.147,-0.126,-63.2,-39.4,141.2,0,2018,5,17,19,56,59.903,-0.6117,0.6591,-0.4027,-0.1702
-0.017,0.126,-0.128,-55.2,-62.1,138,0,2018,5,17,19,56,59.903,-0.6055,0.676,-0.3913,-0.1521
-0.015,0.089,-0.131,-49.6,-73.7,135.1,0,2018,5,17,19,56,59.926,-0.5972,0.6937,-0.3787,-0.1362
-0.019,0.09,-0.1,-47.7,-68.6,137.1,0,2018,5,17,19,56,59.944,-0.5882,0.7111,-0.3655,-0.1209
-0.016,0.088,-0.118,-43.2,-71.2,133,0,2018,5,17,19,56,59.982,-0.5794,0.7274,-0.3517,-0.1058
-0.001,0.07,-0.082,-40.9,-64.3,134.9,0,2018,5,17,19,57,0.004,-0.57,0.7434,-0.3377,-0.0913
-0.003,0.02,-0.053,-41.3,-41.8,138.5,0,2018,5,17,19,57,0.009,-0.5618,0.7576,-0.3234,-0.0755
-0.025,-0.013,-0.076,-40.7,-20.2,139.4,0,2018,5,17,19,57,0.024,-0.5565,0.7691,-0.3086,-0.0578
-0.008,0.062,-0.079,-35.2,-32.5,134.4,0,2018,5,17,19,57,0.048,-0.5516,0.7795,-0.2938,-0.0404
-0.02,0.055,-0.065,-30.1,-52.7,134.1,0,2018,5,17,19,57,0.084,-0.5437,0.7912,-0.2785,-0.0254
0.003,0.004,-0.025,-30.1,-46.5,136.5,0,2018,5,17,19,57,0.107,-0.5349,0.8029,-0.2624,-0.0109
-0.021,-0.054,-0.021,-31.6,-27.3,135.2,0,2018,5,17,19,57,0.112,-0.5283,0.8125,-0.246,0.0045
-0.029,-0.035,-0.064,-28.1,-32.9,127.4,0,2018,5,17,19,57,0.124,-0.5225,0.8207,-0.2299,0.0201
-0.037,-0.048,-0.089,-22.8,-49.7,121.2,0,2018,5,17,19,57,0.142,-0.5142,0.8297,-0.2143,0.0336
-0.007,-0.058,-0.053,-23.1,-41.9,120,1023,2018,5,17,19,57,0.166,-0.5053,0.8384,-0.1989,0.046
0.001,-0.151,-0.029,-27,-13.6,116.9,1023,2018,5,17,19,57,0.201,-0.4994,0.8445,-0.1838,0.0592
-0.013,-0.125,-0.025,-28.7,3.2,108.2,1023,2018,5,17,19,57,0.224,-0.4973,0.8476,-0.1694,0.0734
-0.014,-0.049,-0.038,-25.1,-20.3,96.6,1023,2018,5,17,19,57,0.229,-0.4941,0.8507,-0.1566,0.0862
-0.002,-0.067,-0.067,-20.9,-41.8,89.5,1023,2018,5,17,19,57,0.247,-0.487,0.8557,-0.1452,0.0966
0.024,-0.096,-0.03,-19.8,-45,84.1,1023,2018,5,17,19,57,0.265,-0.4784,0.8612,-0.1346,0.1057
0.022,-0.103,-0.019,-18.9,-50.1,75.7,1023,2018,5,17,19,57,0.288,-0.4699,0.8663,-0.125,0.114
0.016,-0.121,-0.065,-15.6,-64.7,65.8,1023,2018,5,17,19,57,0.326,-0.4596,0.8719,-0.1169,0.1209
0.019,-0.097,-0.083,-11.1,-74.6,59.5,1023,2018,5,17,19,57,0.348,-0.4473,0.8785,-0.11,0.1261
0.031,-0.121,-0.087,-7.7,-68.4,55.6,1023,2018,5,17,19,57,0.353,-0.4347,0.885,-0.1036,0.1302
0.038,-0.134,-0.062,-7.2,-48.8,52.8,0,2018,5,17,19,57,0.388,-0.4247,0.89,-0.0972,0.1339
0.047,-0.127,-0.081,-6.3,-29.7,48.5,0,2018,5,17,19,57,0.388,-0.4181,0.8933,-0.0908,0.1375
0.041,-0.113,-0.073,-3.7,-19.6,43.2,0,2018,5,17,19,57,0.411,-0.4137,0.8954,-0.0847,0.1406
0.052,-0.1,-0.051,-0.7,-16.3,37.5,0,2018,5,17,19,57,0.43,-0.4104,0.897,-0.0791,0.143
0.048,-0.12,-0.039,0.6,-12.3,31.9,0,2018,5,17,19,57,0.448,-0.408,0.8983,-0.0741,0.1447
0.054,-0.119,-0.028,1.7,-8.9,24.9,0,2018,5,17,19,57,0.47,-0.4065,0.8991,-0.0701,0.1458
0.06,-0.121,-0.034,2.8,-6.3,19.2,0,2018,5,17,19,57,0.488,-0.4057,0.8997,-0.0668,0.1463
0.054,-0.108,-0.042,5.4,-10.5,12.8,0,2018,5,17,19,57,0.511,-0.4048,0.9003,-0.0644,0.146
0.053,-0.099,-0.029,7,-7.4,9.4,0,2018,5,17,19,57,0.529,-0.4037,0.9011,-0.0626,0.1451
0.057,-0.099,-0.022,8,-1.1,5.5,0,2018,5,17,19,57,0.552,-0.4034,0.9015,-0.0612,0.1439
0.061,-0.072,-0.008,8.6,1.5,1.6,0,2018,5,17,19,57,0.588,-0.404,0.9015,-0.0603,0.1422
0.058,-0.068,-0.006,9.2,1.4,-1.4,0,2018,5,17,19,57,0.61,-0.4048,0.9015,-0.0598,0.1403
0.055,-0.056,-0.004,9.2,0,-4.7,0,2018,5,17,19,57,0.614,-0.4056,0.9015,-0.0598,0.1381
0.047,-0.055,-0.025,9.8,-2.8,-8,0,2018,5,17,19,57,0.628,-0.4061,0.9016,-0.0603,0.1356
0.049,-0.046,-0.039,11.7,-7.2,-11.1,0,2018,5,17,19,57,0.648,-0.4058,0.9021,-0.0613,0.1326
0.052,-0.065,-0.045,13.5,-2.7,-13.3,0,2018,5,17,19,57,0.667,-0.4055,0.9027,-0.0627,0.1291
0.042,-0.057,-0.045,15.7,4.2,-16,0,2018,5,17,19,57,0.691,-0.4064,0.9027,-0.0641,0.1253
0.043,-0.059,-0.058,18.4,7.2,-19.2,0,2018,5,17,19,57,0.708,-0.408,0.9025,-0.0656,0.1209
0.041,-0.055,-0.091,23.3,2.5,-23.5,0,2018,5,17,19,57,0.731,-0.4095,0.9024,-0.0675,0.1157
0.045,-0.075,-0.103,27.2,3,-26.6,0,2018,5,17,19,57,0.752,-0.4104,0.9026,-0.0697,0.1093
0.04,-0.077,-0.074,29.7,14.1,-28.4,0,2018,5,17,19,57,0.788,-0.4124,0.9023,-0.072,0.1025
0.04,-0.055,-0.079,32.6,21.1,-31.9,0,2018,5,17,19,57,0.811,-0.4161,0.9012,-0.0744,0.0951
0.042,-0.056,-0.092,38.1,17.2,-36.3,0,2018,5,17,19,57,0.816,-0.4201,0.9,-0.0769,0.0869
0.05,-0.044,-0.064,41.7,14.8,-37.8,0,2018,5,17,19,57,0.831,-0.4235,0.899,-0.0797,0.0775
0.049,-0.033,-0.061,45.1,15,-39.7,0,2018,5,17,19,57,0.848,-0.4267,0.898,-0.0826,0.0675
0.034,-0.037,-0.043,48.4,19.9,-40.8,0,2018,5,17,19,57,0.871,-0.4304,0.8967,-0.0853,0.0569
0.021,-0.032,-0.029,52,17.4,-45.3,0,2018,5,17,19,57,0.889,-0.4343,0.8952,-0.0882,0.0458
0.031,-0.038,-0.042,52.5,23,-45.8,0,2018,5,17,19,57,0.912,-0.4384,0.8934,-0.0913,0.0343
0.036,-0.068,-0.093,55.1,35,-47.2,1023,2018,5,17,19,57,0.933,-0.4437,0.8908,-0.0944,0.0225
0.003,-0.051,-0.056,58.4,38.8,-50.7,1023,2018,5,17,19,57,0.95,-0.4505,0.8873,-0.0974,0.0105
-0.002,-0.04,-0.044,63.6,21.1,-58.2,1023,2018,5,17,19,57,0.974,-0.4561,0.8841,-0.101,-0.0026
0.042,-0.094,-0.098,68.9,16.1,-60.8,1023,2018,5,17,19,57,1.009,-0.4594,0.8818,-0.105,-0.0173
0.045,-0.168,-0.202,77,34.3,-64,1023,2018,5,17,19,57,1.032,-0.4638,0.8785,-0.1089,-0.0332
0.04,-0.176,-0.192,86.7,50.2,-68.9,1023,2018,5,17,19,57,1.037,-0.4711,0.8733,-0.1126,-0.0502
0.04,-0.183,-0.155,98.5,45.1,-80.5,1023,2018,5,17,19,57,1.052,-0.479,0.8671,-0.1169,-0.0694
0.046,-0.216,-0.139,111.8,37.9,-93.8,1023,2018,5,17,19,57,1.076,-0.4858,0.8606,-0.1218,-0.0916
0.066,-0.239,-0.141,123.7,42.5,-105.2,1023,2018,5,17,19,57,1.091,-0.4923,0.853,-0.1273,-0.1168
0.061,-0.205,-0.15,133.2,60.3,-112.4,1023,2018,5,17,19,57,1.128,-0.4999,0.8434,-0.1334,-0.1439
0.04,-0.148,-0.106,140.9,82,-120.5,0,2018,5,17,19,57,1.151,-0.5102,0.8307,-0.1403,-0.1722
0.027,-0.102,-0.025,144.8,93.1,-128,0,2018,5,17,19,57,1.155,-0.5221,0.8153,-0.1483,-0.2014
-0.024,-0.091,-0.02,148.4,92.8,-138.3,0,2018,5,17,19,57,1.171,-0.5343,0.7977,-0.1569,-0.2314
0.001,-0.038,-0.029,151.8,82.2,-143.6,0,2018,5,17,19,57,1.195,-0.5442,0.7793,-0.1659,-0.2625
0.014,-0.036,-0.02,153.1,87.3,-143.9,0,2018,5,17,19,57,1.212,-0.5529,0.7597,-0.1747,-0.2941
-0.052,0.027,0,150.9,102,-145.1,0,2018,5,17,19,57,1.236,-0.562,0.7379,-0.1839,-0.3251
-0.08,0.062,-0.001,143.9,117.8,-146.4,0,2018,5,17,19,57,1.254,-0.5722,0.7135,-0.1943,-0.3543
-0.124,0.093,-0.011,137.8,120.8,-149.3,0,2018,5,17,19,57,1.277,-0.582,0.6875,-0.2059,-0.3822
-0.145,0.101,-0.017,128.7,120.4,-149.7,0,2018,5,17,19,57,1.312,-0.5907,0.6606,-0.2182,-0.4085
-0.193,0.121,-0.025,120,109.5,-150.7,0,2018,5,17,19,57,1.312,-0.5973,0.6339,-0.2309,-0.4335
-0.217,0.152,-0.029,109.7,101.2,-147.5,0,2018,5,17,19,57,1.336,-0.6016,0.6079,-0.2434,-0.4572
-0.267,0.178,-0.075,99.2,90.8,-141.1,0,2018,5,17,19,57,1.352,-0.6041,0.583,-0.2557,-0.4791
-0.286,0.209,-0.091,90.8,74.1,-132.6,0,2018,5,17,19,57,1.376,-0.6044,0.5601,-0.2672,-0.4994
-0.286,0.262,-0.082,83,56.4,-120.6,0,2018,5,17,19,57,1.393,-0.6032,0.5394,-0.2766,-0.5182
-0.312,0.261,-0.044,74.2,36.8,-106.6,0,2018,5,17,19,57,1.415,-0.6008,0.5218,-0.2832,-0.5351
-0.324,0.243,0.004,64.3,25.3,-89.7,0,2018,5,17,19,57,1.452,-0.5977,0.5072,-0.2874,-0.5502
-0.309,0.245,0.019,52.2,22.9,-70.7,0,2018,5,17,19,57,1.476,-0.5949,0.495,-0.2906,-0.5624
-0.305,0.215,0.029,38.9,27,-51.6,0,2018,5,17,19,57,1.481,-0.5934,0.4848,-0.2934,-0.5714
-0.268,0.222,0.07,25.6,28.6,-36.2,0,2018,5,17,19,57,1.498,-0.5931,0.4763,-0.2963,-0.5774
-0.211,0.228,0.095,14.6,14.6,-24.7,0,2018,5,17,19,57,1.515,-0.593,0.4703,-0.2985,-0.5812
-0.222,0.121,0.083,4.9,8.4,-13.4,0,2018,5,17,19,57,1.531,-0.5925,0.4671,-0.2997,-0.5838
-0.213,0.106,0.086,-4.5,14.7,-2.6,0,2018,5,17,19,57,1.555,-0.5926,0.4655,-0.3012,-0.5842
-0.204,0.128,0.077,-13.1,19.1,8.1,0,2018,5,17,19,57,1.573,-0.5939,0.4646,-0.3034,-0.5824
-0.193,0.134,0.062,-20.1,12.3,16.6,0,2018,5,17,19,57,1.597,-0.5957,0.4651,-0.3056,-0.579
-0.153,0.141,0.065,-26,1.7,26.1,0,2018,5,17,19,57,1.613,-0.5972,0.4678,-0.3067,-0.5747
-0.14,0.142,0.072,-34.2,-2.6,36.7,0,2018,5,17,19,57,1.636,-0.5987,0.4725,-0.3069,-0.5691
-0.139,0.139,0.055,-43,-7.7,46.1,0,2018,5,17,19,57,1.654,-0.6003,0.479,-0.3067,-0.562
-0.164,0.17,0.02,-49.1,-16.5,55.7,0,2018,5,17,19,57,1.677,-0.6018,0.4875,-0.306,-0.5535
-0.147,0.177,0.009,-52.8,-23,67.5,0,2018,5,17,19,57,1.715,-0.6033,0.4977,-0.3039,-0.5438
-0.072,0.162,0.005,-56.1,-28.2,77.7,0,2018,5,17,19,57,1.738,-0.6051,0.5092,-0.3004,-0.533
-0.068,0.117,0.043,-59.3,-30.7,83.9,0,2018,5,17,19,57,1.742,-0.6069,0.5216,-0.2962,-0.5211
-0.141,0.134,0.042,-63.4,-29.3,92.1,1023,2018,5,17,19,57,1.754,-0.609,0.5347,-0.2916,-0.5079
-0.133,0.137,0.018,-65.1,-29.1,101.7,1023,2018,5,17,19,57,1.775,-0.6116,0.548,-0.2865,-0.4933
-0.044,0.125,0.025,-68.4,-34.1,107.9,1023,2018,5,17,19,57,1.794,-0.614,0.5616,-0.2813,-0.4778
-0.031,0.062,0.043,-74.5,-42.9,110.2,1023,2018,5,17,19,57,1.815,-0.6155,0.5765,-0.2754,-0.4613
-0.091,0.053,0.057,-79.3,-46.4,111.9,1023,2018,5,17,19,57,1.853,-0.6162,0.5922,-0.2686,-0.4441
-0.133,0.076,0.038,-82,-44.1,117.6,1023,2018,5,17,19,57,1.877,-0.6167,0.6082,-0.2615,-0.4256
-0.084,0.026,-0.008,-82.5,-35.1,122,1023,2018,5,17,19,57,1.882,-0.6176,0.6238,-0.2543,-0.4057
0.016,0.026,-0.033,-85.9,-15.7,126.9,1023,2018,5,17,19,57,1.897,-0.6194,0.6381,-0.248,-0.384
-0.004,0.015,0.012,-89.6,0.1,129.8,1023,2018,5,17,19,57,1.92,-0.6229,0.6502,-0.243,-0.3606
-0.101,-0.008,0.044,-91,4.2,129.9,1023,2018,5,17,19,57,1.938,-0.6276,0.6608,-0.2376,-0.3359
-0.101,-0.026,0.065,-94,0.8,126.4,0,2018,5,17,19,57,1.959,-0.6319,0.6709,-0.2324,-0.3105
-0.02,0.026,0.039,-94.6,1.7,127.2,0,2018,5,17,19,57,1.997,-0.6352,0.6807,-0.2274,-0.2851
0.059,-0.026,0.013,-97.7,15.1,131.4,0,2018,5,17,19,57,2.02,-0.6385,0.6893,-0.2232,-0.2592
-0.033,-0.051,0.017,-98.2,23.1,127.8,0,2018,5,17,19,57,2.024,-0.6427,0.6964,-0.2192,-0.2318
-0.085,-0.054,0.049,-98.4,17.3,123.3,0,2018,5,17,19,57,2.038,-0.6466,0.7027,-0.2152,-0.2043
-0.012,-0.046,0.036,-98.3,-0.5,114.1,0,2018,5,17,19,57,2.058,-0.6483,0.7093,-0.2114,-0.178
0.113,-0.088,-0.051,-96.5,-13.3,107.3,0,2018,5,17,19,57,2.076,-0.6468,0.7172,-0.2085,-0.1537
0.102,-0.083,-0.062,-95.9,-12.1,101.2,0,2018,5,17,19,57,2.098,-0.6436,0.7252,-0.2064,-0.1307
0.058,-0.074,-0.044,-93.2,-0.4,95.1,0,2018,5,17,19,57,2.135,-0.6409,0.7318,-0.2048,-0.1079
0.046,-0.052,-0.057,-88.5,5.8,88.2,0,2018,5,17,19,57,2.158,-0.6391,0.7366,-0.2035,-0.0858
0.087,-0.023,-0.044,-82.2,9.2,84.5,0,2018,5,17,19,57,2.163,-0.6378,0.7402,-0.2024,-0.0653
0.079,-0.014,-0.035,-76.2,13.9,83.8,0,2018,5,17,19,57,2.179,-0.637,0.7427,-0.2008,-0.0458
0.075,-0.02,-0.071,-71.1,12.1,82.2,0,2018,5,17,19,57,2.202,-0.6363,0.7448,-0.1987,-0.0269
0.058,-0.003,-0.087,-67.3,7.5,81,0,2018,5,17,19,57,2.219,-0.6346,0.7473,-0.1963,-0.0089
0.051,0.012,-0.059,-64.3,10.9,81,0,2018,5,17,19,57,2.242,-0.6328,0.7496,-0.1934,0.0085
0.05,0.031,-0.018,-62.1,18.1,80.8,0,2018,5,17,19,57,2.259,-0.6319,0.7508,-0.1902,0.026
0.046,-0.015,-0.057,-57.7,15.1,77.5,0,2018,5,17,19,57,2.295,-0.6314,0.7513,-0.1866,0.0429
0.056,-0.007,-0.092,-50.7,-2.9,74.4,0,2018,5,17,19,57,2.317,-0.6292,0.753,-0.183,0.0583
0.071,0.026,-0.093,-44.2,-18.7,72.4,0,2018,5,17,19,57,2.321,-0.6245,0.7567,-0.1792,0.0716
0.085,0.036,-0.066,-40.1,-19.9,73,0,2018,5,17,19,57,2.357,-0.6187,0.7611,-0.1751,0.0838
0.087,-0.01,-0.064,-37.1,-7.3,72.4,0,2018,5,17,19,57,2.38,-0.6141,0.7646,-0.1703,0.0956
0.072,-0.032,-0.051,-31.8,-8.4,67.2,0,2018,5,17,19,57,2.385,-0.6107,0.7669,-0.1652,0.107
0.093,-0.021,-0.07,-25.4,-27.3,63.2,0,2018,5,17,19,57,2.401,-0.6058,0.7704,-0.1604,0.1166
0.105,-0.005,-0.057,-20.4,-45.6,60.2,0,2018,5,17,19,57,2.422,-0.5985,0.7758,-0.1559,0.1242
0.066,-0.073,-0.055,-17.5,-52.1,56.5,0,2018,5,17,19,57,2.44,-0.5896,0.7824,-0.1515,0.1308
0.039,-0.101,-0.062,-15.2,-48.1,49.6,0,2018,5,17,19,57,2.476,-0.5808,0.7887,-0.1474,0.1368
0.066,-0.084,-0.076,-12.8,-42.9,43,0,2018,5,17,19,57,2.498,-0.5728,0.7943,-0.1439,0.1418
0.074,-0.088,-0.069,-9.7,-38.2,38.9,0,2018,5,17,19,57,2.502,-0.5658,0.7992,-0.1407,0.1457
0.058,-0.083,-0.075,-5.4,-38.3,34,0,2018,5,17,19,57,2.518,-0.5594,0.8037,-0.1377,0.1487
0.059,-0.047,-0.062,-0.6,-47.8,29.4,0,2018,5,17,19,57,2.542,-0.5523,0.8086,-0.1349,0.1505
0.064,-0.027,-0.034,3.9,-58.5,25.1,0,2018,5,17,19,57,2.577,-0.5441,0.8145,-0.1326,0.151
0.077,-0.022,-0.023,5.8,-63.5,21.7,1023,2018,5,17,19,57,2.599,-0.535,0.8209,-0.1307,0.1504
0.076,-0.03,-0.041,6.6,-62.3,20.6,1023,2018,5,17,19,57,2.602,-0.5256,0.8275,-0.1291,0.1492
0.067,-0.03,-0.047,8.4,-61.3,19.1,1023,2018,5,17,19,57,2.639,-0.5162,0.8338,-0.1275,0.1479
0.074,0.023,-0.02,11,-69.5,18.3,1023,2018,5,17,19,57,2.662,-0.5067,0.8402,-0.1257,0.146
0.085,0.059,-0.045,15.1,-87.4,17.4,1023,2018,5,17,19,57,2.666,-0.4947,0.8481,-0.1244,0.1431
0.072,0.022,-0.055,18.4,-90.7,19.7,1023,2018,5,17,19,57,2.684,-0.481,0.8567,-0.1227,0.1393
0.062,0.014,-0.083,21.9,-87.5,23.1,1023,2018,5,17,19,57,2.702,-0.4675,0.8652,-0.1201,0.1354
0.042,0.004,-0.101,28.7,-94,23.6,1023,2018,5,17,19,57,2.72,-0.4535,0.8737,-0.1167,0.1309
0.016,-0.043,-0.092,34,-93.9,24.6,1023,2018,5,17,19,57,2.775,-0.4388,0.8825,-0.1127,0.1256
0.008,-0.042,-0.086,38.7,-94.9,22.7,1023,2018,5,17,19,57,2.779,-0.4245,0.8909,-0.1081,0.1196
0.016,-0.061,-0.134,45.1,-98.5,20.7,0,2018,5,17,19,57,2.784,-0.4096,0.8993,-0.1036,0.1124
0.022,-0.107,-0.144,52,-88.7,20.3,0,2018,5,17,19,57,2.803,-0.3949,0.9074,-0.0988,0.1041
0.019,-0.136,-0.129,57.9,-73.1,19.2,0,2018,5,17,19,57,2.822,-0.3828,0.9141,-0.0933,0.0949
0.016,-0.163,-0.125,65.1,-55.4,16.5,0,2018,5,17,19,57,2.844,-0.3735,0.9195,-0.0874,0.0849
0.016,-0.174,-0.128,71.8,-38.7,11.7,0,2018,5,17,19,57,2.882,-0.3676,0.9234,-0.0813,0.0738
0.032,-0.197,-0.133,79.8,-28.5,7.7,0,2018,5,17,19,57,2.905,-0.3635,0.9264,-0.0754,0.0614
0.018,-0.209,-0.121,86.9,-18.4,2.3,0,2018,5,17,19,57,2.909,-0.3614,0.9285,-0.0695,0.0476
0.017,-0.215,-0.09,94.3,-11.4,-4.7,0,2018,5,17,19,57,2.926,-0.3612,0.9297,-0.0639,0.0326
0.001,-0.21,-0.067,99.3,-9.8,-15.2,0,2018,5,17,19,57,2.943,-0.3617,0.9302,-0.0593,0.016
0.012,-0.214,-0.047,101.1,-5.4,-24.4,0,2018,5,17,19,57,2.966,-0.3626,0.9302,-0.056,-0.0016
0.01,-0.232,-0.106,104.9,5,-33.6,0,2018,5,17,19,57,2.983,-0.3648,0.9292,-0.0541,-0.0202
-0.025,-0.187,-0.087,111.2,11.6,-42.7,0,2018,5,17,19,57,3.004,-0.3677,0.9275,-0.0532,-0.0399
0.011,-0.183,-0.034,114.6,30.5,-46.9,0,2018,5,17,19,57,3.027,-0.3725,0.9245,-0.0531,-0.0607
-0.008,-0.153,-0.049,116.6,45.6,-53.3,0,2018,5,17,19,57,3.045,-0.3803,0.9196,-0.0539,-0.0822
-0.027,-0.151,-0.047,117.9,62.5,-57.1,0,2018,5,17,19,57,3.065,-0.3898,0.9133,-0.0554,-0.1038
-0.043,-0.128,-0.05,119.2,73.7,-64.7,0,2018,5,17,19,57,3.102,-0.4014,0.9053,-0.058,-0.1256
-0.034,-0.103,-0.039,121.3,79.2,-70.3,0,2018,5,17,19,57,3.125,-0.4134,0.8962,-0.0615,-0.148
0.024,-0.055,-0.026,122.2,80.9,-75,0,2018,5,17,19,57,3.129,-0.4254,0.8861,-0.066,-0.1712
0.042,-0.056,-0.043,122.5,92,-75,0,2018,5,17,19,57,3.143,-0.4375,0.8749,-0.0712,-0.1947
-0.006,-0.04,-0.086,125.6,98.9,-80,0,2018,5,17,19,57,3.18,-0.4504,0.8623,-0.0769,-0.218
0,-0.015,-0.088,129.3,96.3,-85,0,2018,5,17,19,57,3.202,-0.4627,0.8487,-0.0831,-0.2418
-0.002,-0.015,-0.082,132.8,93.8,-89.4,0,2018,5,17,19,57,3.207,-0.4739,0.8344,-0.0896,-0.2664
-0.049,-0.06,-0.118,137,93.6,-94.6,0,2018,5,17,19,57,3.223,-0.4845,0.8191,-0.0962,-0.2914
-0.073,-0.057,-0.107,143.3,89.6,-101.3,0,2018,5,17,19,57,3.247,-0.4946,0.8021,-0.103,-0.3181
-0.071,-0.051,-0.075,144.2,97.1,-106.1,0,2018,5,17,19,57,3.264,-0.504,0.7839,-0.1102,-0.3453
-0.093,-0.017,-0.037,143.1,110,-107.7,0,2018,5,17,19,57,3.287,-0.5141,0.7641,-0.1181,-0.3713
-0.129,-0.024,-0.031,140.6,113.1,-112.8,0,2018,5,17,19,57,3.305,-0.5245,0.7425,-0.1268,-0.3967
-0.141,-0.004,0.002,136.3,109.7,-116.3,0,2018,5,17,19,57,3.329,-0.5339,0.7201,-0.1361,-0.4216
-0.162,0.041,0.031,130.1,105.3,-117.4,1023,2018,5,17,19,57,3.366,-0.5419,0.6972,-0.1457,-0.4459
-0.168,0.104,0.049,122,97.2,-117.5,1023,2018,5,17,19,57,3.389,-0.5481,0.6743,-0.1556,-0.4696
-0.184,0.074,0.008,112.1,98.7,-113.9,1023,2018,5,17,19,57,3.393,-0.5532,0.6517,-0.1658,-0.4915
-0.212,0.098,-0.007,101,103.9,-109.9,1023,2018,5,17,19,57,3.407,-0.5581,0.6293,-0.1767,-0.511
-0.222,0.139,-0.003,88.1,101.6,-106,1023,2018,5,17,19,57,3.443,-0.5627,0.6069,-0.1884,-0.5286
-0.239,0.124,-0.022,77.2,95.4,-102.1,1023,2018,5,17,19,57,3.466,-0.566,0.5856,-0.2004,-0.5444
-0.251,0.158,-0.011,65.6,88.8,-97.3,1023,2018,5,17,19,57,3.471,-0.5685,0.5654,-0.2121,-0.5586
-0.23,0.181,-0.032,56,73.7,-90,1023,2018,5,17,19,57,3.488,-0.5694,0.5476,-0.2233,-0.5708
-0.224,0.139,-0.055,50.1,66.7,-81,0,2018,5,17,19,57,3.507,-0.5692,0.5315,-0.2332,-0.5822
-0.24,0.153,-0.012,40.9,69.3,-70.5,0,2018,5,17,19,57,3.529,-0.5695,0.5164,-0.2428,-0.5914
-0.212,0.205,0.022,32,64.9,-59.5,0,2018,5,17,19,57,3.547,-0.5704,0.5031,-0.2519,-0.5983
-0.202,0.209,0.025,22,59.5,-47.8,0,2018,5,17,19,57,3.57,-0.5714,0.4916,-0.2601,-0.6033
-0.188,0.199,0.022,11.1,57.3,-35.7,0,2018,5,17,19,57,3.588,-0.5727,0.4821,-0.268,-0.6063
-0.179,0.181,0.028,0.6,52.7,-23.5,0,2018,5,17,19,57,3.61,-0.5745,0.4744,-0.2754,-0.6073
-0.171,0.165,0.042,-8.5,48.1,-11.7,0,2018,5,17,19,57,3.628,-0.5766,0.4688,-0.2823,-0.6065
-0.165,0.171,0.053,-17.1,43.1,-0.2,0,2018,5,17,19,57,3.646,-0.5792,0.4652,-0.2887,-0.6038
-0.135,0.189,0.053,-23.1,31.8,9.7,0,2018,5,17,19,57,3.669,-0.5817,0.4637,-0.2942,-0.5998
-0.055,0.181,0.007,-27.4,14,17.1,0,2018,5,17,19,57,3.706,-0.5837,0.4647,-0.2978,-0.5953
-0.041,0.143,-0.016,-31.5,3.6,23.7,0,2018,5,17,19,57,3.729,-0.5848,0.4679,-0.2999,-0.5907
-0.076,0.098,0.005,-35.6,3,29.9,0,2018,5,17,19,57,3.733,-0.5857,0.4719,-0.302,-0.5856
-0.038,0.096,0.039,-39.1,4.8,35.5,0,2018,5,17,19,57,3.748,-0.5872,0.4763,-0.304,-0.5794
-0.042,0.086,0.071,-41.6,2.8,39.3,0,2018,5,17,19,57,3.771,-0.5891,0.4812,-0.3056,-0.5726
-0.078,0.082,0.078,-44.1,1,44.4,0,2018,5,17,19,57,3.789,-0.5911,0.4876,-0.3067,-0.5645
-0.083,0.074,0.036,-46.2,4.2,50.5,0,2018,5,17,19,57,3.812,-0.5936,0.4937,-0.3074,-0.556
-0.016,0.07,0.028,-49,10.4,56.8,0,2018,5,17,19,57,3.848,-0.5967,0.4999,-0.3087,-0.5463
-0.038,0.052,0.037,-51.4,13.6,62.3,0,2018,5,17,19,57,3.848,-0.6006,0.5062,-0.31,-0.5354
-0.124,0.062,0.069,-54.3,14.7,68.6,0,2018,5,17,19,57,3.871,-0.6053,0.5126,-0.3111,-0.5233
-0.155,0.076,0.067,-57.5,12.1,77.1,0,2018,5,17,19,57,3.89,-0.6103,0.5196,-0.3115,-0.5102
-0.111,0.068,0.041,-61.8,7.8,83.9,0,2018,5,17,19,57,3.91,-0.6154,0.5275,-0.3112,-0.4959
-0.078,0.045,0.013,-65.9,2.5,89.2,0,2018,5,17,19,57,3.928,-0.6199,0.5368,-0.3105,-0.4806
-0.117,0.045,0.009,-69.6,3.1,95.3,0,2018,5,17,19,57,3.953,-0.6241,0.5469,-0.3092,-0.4642
-0.115,0.049,0.022,-72.8,7,101.8,0,2018,5,17,19,57,3.97,-0.6288,0.5571,-0.3076,-0.4465
-0.054,0.049,0.043,-76.6,9.6,105.5,0,2018,5,17,19,57,3.993,-0.6338,0.5672,-0.3063,-0.4273
-0.005,0.041,0.008,-82.7,7.7,107.7,0,2018,5,17,19,57,4.01,-0.6382,0.5774,-0.3051,-0.4073
-0.057,0.037,-0.022,-86.3,7,109.4,0,2018,5,17,19,57,4.031,-0.6418,0.5884,-0.3043,-0.3861
-0.015,0.037,-0.037,-88.1,5.4,109.5,0,2018,5,17,19,57,4.048,-0.6446,0.5996,-0.3035,-0.3642
-0.009,0.02,-0.017,-86.9,11.1,111.4,0,2018,5,17,19,57,4.087,-0.6474,0.6101,-0.3024,-0.3422
0.045,0.022,0.015,-88.4,21.9,112.4,1023,2018,5,17,19,57,4.11,-0.6507,0.6193,-0.3015,-0.3193
0.011,-0.005,0.043,-92.1,35.9,114.9,1023,2018,5,17,19,57,4.115,-0.6554,0.6265,-0.3012,-0.2952
0.002,0.032,0.004,-92.3,37.6,113.8,1023,2018,5,17,19,57,4.131,-0.6604,0.6326,-0.301,-0.27
0.069,0.068,-0.03,-89.8,24.2,111.6,1023,2018,5,17,19,57,4.168,-0.6637,0.6391,-0.3012,-0.2453
0.075,0.08,-0.013,-87.4,12.9,111.2,1023,2018,5,17,19,57,4.192,-0.6649,0.6465,-0.3006,-0.2222
0.036,0.059,0.043,-89.8,13.8,111.4,1023,2018,5,17,19,57,4.195,-0.6657,0.6538,-0.2993,-0.1991
0.006,0.008,-0.003,-89.6,5.1,104.8,1023,2018,5,17,19,57,4.214,-0.6658,0.6611,-0.2978,-0.1756
0.059,0.08,-0.04,-85.7,-17.4,100.1,1023,2018,5,17,19,57,4.249,-0.6631,0.6697,-0.2965,-0.1541
0.105,0.111,-0.038,-81.5,-31.6,98.9,1023,2018,5,17,19,57,4.271,-0.6577,0.6802,-0.2942,-0.1344
0.079,0.029,-0.034,-80.8,-14.7,102.4,0,2018,5,17,19,57,4.277,-0.6523,0.69,-0.2915,-0.1148
0.036,-0.031,-0.049,-78.8,5.1,100.5,0,2018,5,17,19,57,4.293,-0.6494,0.6972,-0.2886,-0.0939
0.066,0.05,-0.035,-74.1,6.7,97.9,0,2018,5,17,19,57,4.316,-0.6472,0.7029,-0.2858,-0.0732
0.066,-0.035,-0.029,-70.9,12.8,97.5,0,2018,5,17,19,57,4.332,-0.6454,0.7076,-0.2825,-0.0531
0.002,-0.082,-0.042,-67.9,22.2,92.2,0,2018,5,17,19,57,4.351,-0.6445,0.7111,-0.2788,-0.0328
-0.018,-0.142,-0.066,-66.2,33.7,88.9,0,2018,5,17,19,57,4.372,-0.6448,0.7129,-0.2751,-0.0122
-0.007,-0.039,-0.086,-59.9,22,79.4,0,2018,5,17,19,57,4.408,-0.645,0.7141,-0.2717,0.0068
0.005,-0.002,-0.116,-51.2,-1.4,73.8,0,2018,5,17,19,57,4.431,-0.6425,0.7172,-0.2686,0.0227
0.015,-0.058,-0.071,-47.1,2.2,72.4,0,2018,5,17,19,57,4.436,-0.6388,0.7212,-0.2651,0.0369
-0.009,-0.086,-0.049,-44.8,15.2,67.7,0,2018,5,17,19,57,4.454,-0.6371,0.7233,-0.2613,0.0511
0.007,-0.032,-0.06,-41,10.9,62.9,0,2018,5,17,19,57,4.489,-0.6357,0.7246,-0.2578,0.0648
0.011,0.01,-0.053,-36.2,-3.1,58.9,0,2018,5,17,19,57,4.513,-0.6332,0.7268,-0.2544,0.0765
-0.007,0.001,-0.049,-31.6,-20.9,53.9,0,2018,5,17,19,57,4.518,-0.6289,0.7305,-0.2513,0.0865
0.005,-0.012,-0.055,-28.9,-28.2,51.8,0,2018,5,17,19,57,4.534,-0.6231,0.7355,-0.2482,0.0948
0.01,-0.06,-0.081,-27.9,-17.6,49.2,0,2018,5,17,19,57,4.55,-0.6177,0.74,-0.2453,0.1028
0.007,-0.015,-0.085,-23.3,-23,43.2,0,2018,5,17,19,57,4.574,-0.6128,0.7439,-0.2426,0.1102
0.003,0.017,-0.088,-16.4,-43.4,38.6,0,2018,5,17,19,57,4.591,-0.606,0.7493,-0.2403,0.1156
0.011,-0.013,-0.084,-10.9,-53.6,36.9,0,2018,5,17,19,57,4.613,-0.5972,0.7565,-0.238,0.1192
0.011,-0.047,-0.11,-6.6,-44.8,35,0,2018,5,17,19,57,4.633,-0.5887,0.7635,-0.2354,0.1218
0.037,-0.01,-0.106,-3.1,-32.4,34.2,0,2018,5,17,19,57,4.657,-0.5818,0.7694,-0.2324,0.1243
0.059,0.025,-0.073,-0.3,-26.6,34.6,0,2018,5,17,19,57,4.673,-0.5764,0.7741,-0.229,0.1264
0.042,0.013,-0.05,2.5,-29.2,34.5,0,2018,5,17,19,57,4.696,-0.5716,0.7785,-0.2252,0.128
0.014,0.011,-0.038,5.6,-36.3,33.2,0,2018,5,17,19,57,4.732,-0.5662,0.7834,-0.221,0.1293
0.041,0.005,-0.074,7.8,-40.9,32.6,0,2018,5,17,19,57,4.755,-0.5602,0.7888,-0.2169,0.1297
0.043,-0.003,-0.072,9.7,-38.2,32.2,0,2018,5,17,19,57,4.76,-0.5538,0.7944,-0.2128,0.1296
0.033,-0.014,-0.058,11.4,-36.1,29.7,0,2018,5,17,19,57,4.773,-0.5482,0.7995,-0.2085,0.1293
0.006,-0.015,-0.038,15,-44.5,26.5,0,2018,5,17,19,57,4.793,-0.5423,0.8047,-0.2043,0.1284
0.013,-0.02,-0.04,17.6,-51.2,24.2,0,2018,5,17,19,57,4.816,-0.5354,0.8106,-0.2003,0.1265
0.042,0.002,-0.061,19.5,-53.5,23.8,0,2018,5,17,19,57,4.834,-0.5278,0.8169,-0.1965,0.1239
0.028,-0.016,-0.063,21,-50.2,24.1,0,2018,5,17,19,57,4.856,-0.5203,0.8231,-0.1925,0.1209
0.011,-0.006,-0.025,22.8,-44.9,24.4,0,2018,5,17,19,57,4.874,-0.5136,0.8287,-0.1881,0.118
-0.008,-0.031,-0.002,24.7,-44.5,22.4,1023,2018,5,17,19,57,4.897,-0.5075,0.8339,-0.1834,0.1153
0.006,-0.017,-0.018,26.2,-47.3,19.9,1023,2018,5,17,19,57,4.915,-0.5012,0.8391,-0.1789,0.112
0.022,-0.011,-0.052,28.1,-52.9,17.8,1023,2018,5,17,19,57,4.937,-0.4943,0.8446,-0.1748,0.1079
0.031,-0.005,-0.064,31.7,-57.3,18.4,1023,2018,5,17,19,57,4.957,-0.4864,0.8506,-0.1707,0.1029
0.015,-0.028,-0.022,35,-57.3,18.9,1023,2018,5,17,19,57,4.979,-0.4783,0.8567,-0.1662,0.0976
0.016,-0.046,0.01,37.6,-56.5,18,1023,2018,5,17,19,57,4.997,-0.4706,0.8625,-0.1614,0.0919
0.037,-0.048,-0.003,39.2,-50.3,17.4,1023,2018,5,17,19,57,5.02,-0.4639,0.8677,-0.1564,0.0857
0.034,-0.046,-0.053,41.1,-44.6,17.2,1023,2018,5,17,19,57,5.036,-0.4579,0.8724,-0.1512,0.0794
0.016,-0.036,-0.059,45,-42.1,18.1,1023,2018,5,17,19,57,5.072,-0.4523,0.8768,-0.1457,0.0728
-0.004,-0.05,0.004,48.9,-42.9,18.8,1023,2018,5,17,19,57,5.095,-0.4468,0.8811,-0.1396,0.0659
-0.011,-0.067,0.03,50.6,-44,16.3,0,2018,5,17,19,57,5.1,-0.4416,0.8852,-0.1333,0.0587
0.01,-0.051,-0.003,51.6,-40,14.9,0,2018,5,17,19,57,5.117,-0.4367,0.889,-0.1273,0.0509
0.003,-0.053,-0.032,52.8,-33.7,14.7,0,2018,5,17,19,57,5.136,-0.4324,0.8924,-0.1213,0.0431
-0.013,-0.055,-0.037,56.3,-39.3,13,0,2018,5,17,19,57,5.159,-0.4283,0.8955,-0.115,0.0349
-0.003,-0.057,0,58.3,-44.9,11.1,0,2018,5,17,19,57,5.178,-0.423,0.8991,-0.1089,0.026
-0.001,-0.088,0.009,59,-37.2,9.4,0,2018,5,17,19,57,5.2,-0.4182,0.9023,-0.103,0.0167
-0.007,-0.097,0.02,58.6,-25.6,6.2,0,2018,5,17,19,57,5.237,-0.4151,0.9044,-0.0973,0.0076
0.001,-0.107,0.008,57,-18.3,1.6,0,2018,5,17,19,57,5.259,-0.4136,0.9057,-0.0924,-0.0015
0.001,-0.103,-0.028,57.5,-17.4,-3.5,0,2018,5,17,19,57,5.261,-0.4122,0.9066,-0.0883,-0.0108
0.008,-0.093,0.015,57.6,-11.2,-6,0,2018,5,17,19,57,5.277,-0.4113,0.9072,-0.0848,-0.0205
0.002,-0.11,0.018,58.7,-6.7,-10.5,0,2018,5,17,19,57,5.296,-0.4116,0.9071,-0.0818,-0.0305
0.003,-0.096,0.004,60.1,-5.8,-15.4,0,2018,5,17,19,57,5.319,-0.4121,0.9067,-0.0794,-0.0408
0.007,-0.109,-0.034,62.3,-3.1,-18.5,0,2018,5,17,19,57,5.336,-0.4124,0.9061,-0.0775,-0.0517
0.007,-0.104,-0.055,65.9,2.9,-21.8,0,2018,5,17,19,57,5.359,-0.4135,0.9051,-0.076,-0.0632
0.026,-0.096,-0.037,69.2,10.9,-24.1,0,2018,5,17,19,57,5.397,-0.4155,0.9033,-0.0746,-0.0755
0.014,-0.099,-0.05,73.7,11.1,-29.4,0,2018,5,17,19,57,5.397,-0.4182,0.9009,-0.0738,-0.0886
0.026,-0.1,-0.057,79.6,8.8,-33.9,0,2018,5,17,19,57,5.422,-0.4205,0.8984,-0.0732,-0.1028
0.047,-0.128,-0.066,84.5,16.1,-36.1,0,2018,5,17,19,57,5.44,-0.4229,0.8954,-0.0729,-0.1182
0.041,-0.111,-0.116,92.8,17.2,-42.5,0,2018,5,17,19,57,5.463,-0.4257,0.8917,-0.0729,-0.1347
0.056,-0.142,-0.099,100.2,26,-44.8,0,2018,5,17,19,57,5.478,-0.4287,0.8874,-0.0731,-0.1527
0.04,-0.135,-0.036,103.1,50,-47.4,0,2018,5,17,19,57,5.514,-0.4347,0.8809,-0.0736,-0.1714
0.024,-0.117,0.005,103,68.4,-51.8,0,2018,5,17,19,57,5.537,-0.4442,0.8722,-0.0751,-0.1902
0.005,-0.128,-0.034,105.5,77.1,-58.1,0,2018,5,17,19,57,5.542,-0.4552,0.862,-0.0776,-0.209
0.02,-0.082,-0.044,107.2,84.6,-62.9,0,2018,5,17,19,57,5.559,-0.4665,0.8505,-0.0811,-0.2284
0.004,-0.046,-0.046,108.6,85.4,-67.7,0,2018,5,17,19,57,5.582,-0.4779,0.8382,-0.0854,-0.2482
0.002,0.015,-0.03,110.4,86.1,-68.8,0,2018,5,17,19,57,5.603,-0.4884,0.8253,-0.0901,-0.2685
-0.028,0.031,-0.069,111.5,82.9,-70.8,0,2018,5,17,19,57,5.62,-0.4986,0.8118,-0.0949,-0.2887
-0.012,0.028,-0.096,117.3,71.4,-72.6,0,2018,5,17,19,57,5.643,-0.5067,0.7985,-0.0991,-0.3095
-0.003,0.027,-0.067,119.5,74,-72.9,0,2018,5,17,19,57,5.663,-0.5139,0.7847,-0.1027,-0.3308
-0.027,0.037,-0.07,120.2,83.6,-73.5,0,2018,5,17,19,57,5.68,-0.5217,0.7697,-0.1067,-0.3519
-0.041,0.056,-0.04,119.8,92.3,-74.2,1023,2018,5,17,19,57,5.697,-0.5304,0.7532,-0.1115,-0.3726
-0.049,0.045,0.004,118.1,95.1,-77.2,1023,2018,5,17,19,57,5.72,-0.5396,0.7351,-0.1166,-0.3932
-0.031,-0.001,0.011,114.8,92.9,-82.2,1023,2018,5,17,19,57,5.755,-0.5485,0.7163,-0.1222,-0.4135
-0.026,-0.03,0.006,111.5,83.9,-88.6,1023,2018,5,17,19,57,5.779,-0.5556,0.6976,-0.1282,-0.4337
-0.06,-0.02,0.025,107.5,89,-92.7,1023,2018,5,17,19,57,5.783,-0.5616,0.6787,-0.1347,-0.4535
-0.087,0.035,0.018,102,91.4,-97.2,1023,2018,5,17,19,57,5.8,-0.5675,0.6588,-0.1426,-0.4727
-0.091,0.078,-0.009,97.6,85.3,-99.5,1023,2018,5,17,19,57,5.824,-0.5717,0.6391,-0.1515,-0.4915
-0.111,0.079,-0.035,93.7,82.8,-99.6,1023,2018,5,17,19,57,5.859,-0.5746,0.6198,-0.1603,-0.5098
-0.151,0.053,-0.025,88.7,83.1,-99.1,1023,2018,5,17,19,57,5.883,-0.5772,0.6004,-0.1693,-0.5268
-0.186,0.036,0.003,83,74.4,-99.1,1023,2018,5,17,19,57,5.887,-0.579,0.5813,-0.1777,-0.5433
-0.221,0.014,0.004,73.7,76.5,-96.9,0,2018,5,17,19,57,5.905,-0.5801,0.5628,-0.1856,-0.5587
-0.248,0.048,0.047,61.4,86.1,-94.1,0,2018,5,17,19,57,5.923,-0.5809,0.5445,-0.1958,-0.5723
-0.256,0.036,0.049,49.6,91.7,-92.5,0,2018,5,17,19,57,5.946,-0.5819,0.5264,-0.2077,-0.584
-0.252,0.025,0.066,36.7,93.3,-91.3,0,2018,5,17,19,57,5.962,-0.5824,0.509,-0.221,-0.5939
-0.223,0.065,0.093,22.9,96,-87.8,0,2018,5,17,19,57,5.999,-0.5825,0.4927,-0.2356,-0.6019
-0.202,0.097,0.083,12.5,95.8,-82.8,0,2018,5,17,19,57,6.021,-0.5824,0.4773,-0.251,-0.6081
-0.178,0.099,0.051,2.4,98.9,-73.6,0,2018,5,17,19,57,6.025,-0.5824,0.463,-0.2669,-0.6124
-0.153,0.14,0.016,-6.3,105,-63,0,2018,5,17,19,57,6.044,-0.5832,0.4494,-0.2831,-0.6145
-0.125,0.228,-0.008,-10.3,89.7,-54.3,0,2018,5,17,19,57,6.08,-0.5842,0.4371,-0.2989,-0.6149
-0.13,0.222,-0.02,-9.8,65.5,-43.9,0,2018,5,17,19,57,6.08,-0.5842,0.4276,-0.3116,-0.6153
-0.128,0.221,-0.025,-9.9,49.8,-29.8,0,2018,5,17,19,57,6.103,-0.5838,0.4208,-0.3212,-0.6154
-0.113,0.204,-0.053,-11,39.8,-14,0,2018,5,17,19,57,6.141,-0.5841,0.4161,-0.3284,-0.6144
-0.098,0.187,-0.065,-11.2,33.1,0.2,0,2018,5,17,19,57,6.165,-0.5855,0.4132,-0.3338,-0.6123
-0.077,0.233,-0.019,-12.1,17,11,0,2018,5,17,19,57,6.169,-0.5873,0.412,-0.3369,-0.6096
-0.084,0.228,0,-14.7,1.7,20.7,0,2018,5,17,19,57,6.184,-0.5888,0.4135,-0.3378,-0.6066
-0.074,0.177,-0.009,-18.7,-3.9,30.3,0,2018,5,17,19,57,6.201,-0.5904,0.417,-0.3375,-0.6028
-0.069,0.143,-0.013,-22,-3.5,38.4,0,2018,5,17,19,57,6.225,-0.5926,0.4216,-0.3364,-0.5981
-0.1,0.124,0.034,-26.6,5.3,47.8,0,2018,5,17,19,57,6.261,-0.5957,0.4264,-0.3356,-0.592
-0.124,0.131,0.082,-31,7,55.8,0,2018,5,17,19,57,6.283,-0.5999,0.4317,-0.3355,-0.584
-0.091,0.138,0.064,-33.1,-0.8,61.6,0,2018,5,17,19,57,6.287,-0.6043,0.4381,-0.3348,-0.575
-0.029,0.084,0.018,-34.1,-11.4,65.6,0,2018,5,17,19,57,6.303,-0.608,0.4455,-0.3331,-0.5663
-0.076,0.077,0.056,-36.6,-14.8,69.5,0,2018,5,17,19,57,6.327,-0.6115,0.4536,-0.3303,-0.5577
-0.143,0.117,0.083,-39.9,-19.1,76.4,0,2018,5,17,19,57,6.363,-0.615,0.4632,-0.3269,-0.5479
-0.107,0.099,0.03,-43.7,-22.7,85,0,2018,5,17,19,57,6.386,-0.6185,0.474,-0.3227,-0.5371
-0.046,0.121,0.02,-47.8,-25.5,91.7,0,2018,5,17,19,57,6.391,-0.622,0.485,-0.3186,-0.5255
-0.106,0.117,0.03,-49.3,-35.5,98.6,0,2018,5,17,19,57,6.404,-0.6252,0.4976,-0.3133,-0.513
-0.135,0.117,0.019,-51.5,-42.9,106,0,2018,5,17,19,57,6.422,-0.6281,0.5111,-0.3065,-0.5001
-0.057,0.159,0.022,-54.5,-51.3,112.7,0,2018,5,17,19,57,6.445,-0.6304,0.5264,-0.2985,-0.486
0.001,0.169,0.008,-59,-60.3,118.3,1023,2018,5,17,19,57,6.481,-0.6319,0.5433,-0.2894,-0.4708
-0.076,0.089,-0.003,-65.3,-64.5,122.1,1023,2018,5,17,19,57,6.504,-0.6322,0.5609,-0.2801,-0.455
-0.114,0.09,-0.008,-70.8,-63.7,125.2,1023,2018,5,17,19,57,6.509,-0.6322,0.5791,-0.2704,-0.4378
-0.001,0.122,-0.02,-72,-65.1,126,1023,2018,5,17,19,57,6.525,-0.6314,0.5971,-0.2611,-0.4199
0.072,0.118,0.006,-74.5,-72.1,125.3,1023,2018,5,17,19,57,6.547,-0.6293,0.6153,-0.2518,-0.4022
0.021,0.05,0.044,-79.3,-74.2,122,1023,2018,5,17,19,57,6.568,-0.6263,0.6335,-0.2423,-0.384
-0.023,0.042,0.023,-81.3,-82.1,114.3,1023,2018,5,17,19,57,6.586,-0.6219,0.652,-0.2329,-0.3656
0.046,0.066,-0.032,-79.1,-82.9,110.5,1023,2018,5,17,19,57,6.608,-0.6158,0.6705,-0.2238,-0.3479
0.073,0.04,-0.013,-79.2,-69.9,110.8,1023,2018,5,17,19,57,6.646,-0.6096,0.6876,-0.2152,-0.3302
0.023,-0.014,0.003,-79.6,-55.5,108.9,0,2018,5,17,19,57,6.646,-0.6053,0.7026,-0.207,-0.3113
0.009,-0.002,-0.013,-77.9,-55.4,104.9,0,2018,5,17,19,57,6.669,-0.6014,0.7164,-0.1992,-0.2921
0.044,0.032,-0.055,-73.8,-65.1,98.7,0,2018,5,17,19,57,6.685,-0.5956,0.7302,-0.1917,-0.2739
0.042,0.002,-0.042,-72.4,-63.3,96.4,0,2018,5,17,19,57,6.708,-0.5886,0.744,-0.1842,-0.2567
0,-0.071,-0.062,-70.5,-51.4,93.4,0,2018,5,17,19,57,6.725,-0.5827,0.7562,-0.1767,-0.2391
-0.001,-0.024,-0.061,-64.8,-60.3,86.2,0,2018,5,17,19,57,6.748,-0.5767,0.7676,-0.1695,-0.2222
0.039,0.04,-0.078,-57.8,-86.9,78.2,0,2018,5,17,19,57,6.766,-0.5671,0.7802,-0.162,-0.2078
0.062,0.016,-0.074,-54.6,-85.8,77.5,0,2018,5,17,19,57,6.789,-0.5552,0.7935,-0.1542,-0.1952
0.038,-0.006,-0.072,-53.4,-68.2,76.3,0,2018,5,17,19,57,6.807,-0.545,0.805,-0.1465,-0.1824
0.027,0.006,-0.07,-50.5,-63.2,72.9,0,2018,5,17,19,57,6.83,-0.5364,0.8149,-0.1391,-0.1696
0.03,0.067,-0.035,-45.9,-79,68.5,0,2018,5,17,19,57,6.867,-0.5265,0.8248,-0.1318,-0.1579
0.041,0.058,-0.034,-43.8,-88.2,66.9,0,2018,5,17,19,57,6.867,-0.5142,0.8356,-0.1242,-0.1476
0.027,-0.007,-0.053,-45.2,-69.9,68.9,0,2018,5,17,19,57,6.89,-0.5028,0.8454,-0.1165,-0.137
-0.003,-0.013,-0.062,-44.6,-63,66.2,0,2018,5,17,19,57,6.907,-0.4935,0.8536,-0.109,-0.1255
-0.036,-0.002,-0.057,-39.6,-76.3,60.9,0,2018,5,17,19,57,6.93,-0.4832,0.8619,-0.1015,-0.1147
-0.015,0.011,-0.049,-36.3,-85.6,58.6,0,2018,5,17,19,57,6.947,-0.4711,0.8706,-0.0939,-0.1052
-0.009,-0.007,-0.077,-34.7,-84.3,56.1,0,2018,5,17,19,57,6.969,-0.458,0.8794,-0.0865,-0.0963
-0.018,-0.048,-0.053,-32.9,-79,52.9,0,2018,5,17,19,57,6.987,-0.4457,0.8873,-0.0792,-0.0878
-0.025,-0.067,-0.037,-31.6,-69.8,51.1,0,2018,5,17,19,57,7.01,-0.4346,0.8941,-0.0723,-0.0795
-0.025,-0.064,-0.061,-29.6,-55.9,49.8,0,2018,5,17,19,57,7.047,-0.4253,0.8998,-0.0656,-0.0714
0.001,-0.021,-0.037,-27.4,-45.1,50,0,2018,5,17,19,57,7.07,-0.4177,0.9043,-0.0591,-0.0636
0.014,0,-0.053,-23.5,-43.4,49,0,2018,5,17,19,57,7.074,-0.4109,0.9084,-0.0526,-0.0564
-0.001,-0.038,-0.057,-18.8,-47.2,44.9,0,2018,5,17,19,57,7.089,-0.4038,0.9122,-0.0461,-0.0501
-0.011,-0.066,-0.056,-15.1,-51.9,41.6,0,2018,5,17,19,57,7.108,-0.396,0.9162,-0.0398,-0.0446
0.005,-0.075,-0.022,-14.3,-38.2,40.3,0,2018,5,17,19,57,7.127,-0.3893,0.9196,-0.0338,-0.0398
0.005,-0.109,0,-17.4,-17.1,38.3,0,2018,5,17,19,57,7.149,-0.3855,0.9216,-0.0282,-0.0349
-0.013,-0.058,-0.004,-17.7,-11.8,30.8,0,2018,5,17,19,57,7.167,-0.3846,0.9222,-0.0236,-0.0296
-0.023,-0.119,0.018,-16.3,-28.4,21.5,0,2018,5,17,19,57,7.19,-0.3818,0.9236,-0.0202,-0.025
-0.009,-0.166,0.017,-18.2,-27.3,12.6,0,2018,5,17,19,57,7.227,-0.3783,0.9252,-0.0184,-0.021
0.016,-0.123,0,-19.3,-17.3,8,1023,2018,5,17,19,57,7.25,-0.3758,0.9263,-0.0178,-0.0175
0.038,-0.076,-0.013,-19.9,-6.7,7.6,1023,2018,5,17,19,57,7.254,-0.3747,0.9268,-0.0177,-0.014
0.053,-0.011,-0.002,-19.1,-4.3,7.8,1023,2018,5,17,19,57,7.269,-0.3743,0.927,-0.0178,-0.0108
0.047,0,0.009,-18.1,-11.2,7.8,1023,2018,5,17,19,57,7.292,-0.3731,0.9275,-0.0179,-0.0077
0.025,-0.014,0.004,-16,-19.9,7.4,1023,2018,5,17,19,57,7.311,-0.3706,0.9286,-0.0178,-0.0049
0.026,-0.033,0.006,-16.6,-14.9,7.2,1023,2018,5,17,19,57,7.334,-0.3679,0.9296,-0.0176,-0.0022
0.029,-0.018,0.011,-16.8,-7.1,6.1,1023,2018,5,17,19,57,7.35,-0.3664,0.9302,-0.0177,0.0006
0.027,-0.009,0.018,-15.8,-5.6,6.2,1023,2018,5,17,19,57,7.37,-0.3658,0.9305,-0.0177,0.0033
0.026,-0.008,0.012,-14.1,-6.3,7.5,1023,2018,5,17,19,57,7.409,-0.365,0.9308,-0.0176,0.006
0.027,-0.018,0.015,-12.3,-7.7,7.7,1023,2018,5,17,19,57,7.409,-0.3639,0.9312,-0.0172,0.0083
0.017,-0.031,-0.013,-10.7,-10.9,6.6,1023,2018,5,17,19,57,7.431,-0.3626,0.9317,-0.0168,0.0104
0.023,-0.044,-0.021,-9,-11.3,5.6,0,2018,5,17,19,57,7.45,-0.361,0.9323,-0.0165,0.0122
0.038,-0.05,-0.026,-7,-10.4,4.6,0,2018,5,17,19,57,7.472,-0.3595,0.9328,-0.0162,0.0136
0.045,-0.051,-0.027,-5.3,-8.1,3.9,0,2018,5,17,19,57,7.494,-0.3582,0.9333,-0.0159,0.0144
0.055,-0.027,-0.017,-3.7,-3.1,3.4,0,2018,5,17,19,57,7.511,-0.3576,0.9335,-0.0157,0.0148
0.047,-0.035,-0.025,-1.6,-5.1,1.7,0,2018,5,17,19,57,7.534,-0.3571,0.9338,-0.0155,0.015
0.053,-0.043,-0.029,0,-3.5,0.7,0,2018,5,17,19,57,7.554,-0.3566,0.934,-0.0155,0.0147
0.051,-0.052,-0.035,2.7,-3.7,-0.9,0,2018,5,17,19,57,7.576,-0.3563,0.9341,-0.0155,0.0139
0.055,-0.064,-0.02,5,-0.9,-3,0,2018,5,17,19,57,7.594,-0.3565,0.934,-0.0156,0.0127
0.037,-0.064,-0.026,6.8,1.7,-5,0,2018,5,17,19,57,7.611,-0.3568,0.9339,-0.016,0.011
0.036,-0.047,-0.039,8.7,4.7,-7.1,0,2018,5,17,19,57,7.634,-0.3576,0.9336,-0.0166,0.009
0.043,-0.034,-0.031,11.5,6.4,-8.2,0,2018,5,17,19,57,7.653,-0.3587,0.9332,-0.0173,0.0065
0.037,-0.031,-0.027,14.1,6.8,-9.2,0,2018,5,17,19,57,7.671,-0.36,0.9327,-0.0179,0.0035
0.029,-0.04,-0.032,16,7.6,-11.4,0,2018,5,17,19,57,7.694,-0.3613,0.9322,-0.0187,0.0002
0.026,-0.04,-0.029,17.6,8.1,-13.7,0,2018,5,17,19,57,7.712,-0.3628,0.9316,-0.0197,-0.0035
0.027,-0.044,-0.036,19.8,6.7,-16,0,2018,5,17,19,57,7.735,-0.3642,0.931,-0.021,-0.0077
0.033,-0.049,-0.041,22,4.8,-18.3,0,2018,5,17,19,57,7.753,-0.3654,0.9304,-0.0224,-0.0125
0.033,-0.053,-0.048,25.1,4.9,-20.8,0,2018,5,17,19,57,7.802,-0.3663,0.9299,-0.0242,-0.0178
0.033,-0.057,-0.045,28.6,5.1,-23.2,0,2018,5,17,19,57,7.804,-0.3672,0.9294,-0.0261,-0.0239
0.028,-0.062,-0.04,32.6,4.5,-25.8,0,2018,5,17,19,57,7.811,-0.3682,0.9287,-0.0282,-0.0306
0.019,-0.071,-0.058,36.9,3.9,-29.6,0,2018,5,17,19,57,7.848,-0.3691,0.928,-0.0304,-0.0381
0.033,-0.065,-0.071,40.4,4.2,-32.2,0,2018,5,17,19,57,7.867,-0.3697,0.9273,-0.033,-0.0466
0.038,-0.058,-0.071,43.5,7.8,-34.7,0,2018,5,17,19,57,7.873,-0.3705,0.9264,-0.0359,-0.0557
0.047,-0.059,-0.071,46.3,17.2,-36,0,2018,5,17,19,57,7.91,-0.3723,0.9249,-0.0389,-0.0655
0.034,-0.062,-0.063,49.5,26.2,-36.9,0,2018,5,17,19,57,7.934,-0.3757,0.9226,-0.042,-0.0757
0.028,-0.055,-0.069,53.2,28.3,-40.3,0,2018,5,17,19,57,7.939,-0.3799,0.9198,-0.0453,-0.0864
0.022,-0.061,-0.081,57.9,21.5,-45,0,2018,5,17,19,57,7.956,-0.3834,0.917,-0.0489,-0.098
0.029,-0.076,-0.086,62.6,22.8,-47.8,0,2018,5,17,19,57,7.974,-0.3865,0.914,-0.0526,-0.1106
0.034,-0.061,-0.09,68,25.9,-50.7,0,2018,5,17,19,57,7.998,-0.3899,0.9106,-0.0565,-0.1242
0.036,-0.084,-0.105,74.1,28.3,-52.2,0,2018,5,17,19,57,8.016,-0.3934,0.9068,-0.0605,-0.1387
0.014,-0.094,-0.118,80.8,31.7,-54.4,0,2018,5,17,19,57,8.035,-0.3975,0.9022,-0.0643,-0.1541
0.021,-0.093,-0.117,89.5,34.2,-57.5,1023,2018,5,17,19,57,8.053,-0.4018,0.897,-0.068,-0.1708
0.023,-0.074,-0.099,96.8,37.6,-61.4,1023,2018,5,17,19,57,8.076,-0.4062,0.8911,-0.0717,-0.1889
0.032,-0.05,-0.103,101.7,45.6,-63.5,1023,2018,5,17,19,57,8.093,-0.4113,0.8841,-0.0759,-0.208
0.02,-0.043,-0.105,108,53.2,-64.9,1023,2018,5,17,19,57,8.115,-0.4173,0.876,-0.0802,-0.2278
0.009,-0.057,-0.067,112.7,63.1,-65.7,1023,2018,5,17,19,57,8.152,-0.4247,0.8664,-0.0844,-0.2483
0.01,-0.045,-0.053,115.5,70.9,-68.6,1023,2018,5,17,19,57,8.174,-0.4334,0.8553,-0.0888,-0.2693
0.001,-0.016,-0.055,117.5,75.9,-71.5,1023,2018,5,17,19,57,8.179,-0.4423,0.8432,-0.094,-0.2905
-0.026,0.011,-0.046,119.4,79,-73.3,1023,2018,5,17,19,57,8.197,-0.4514,0.83,-0.0996,-0.3118
-0.037,0.057,-0.032,120.9,79.6,-73.5,1023,2018,5,17,19,57,8.219,-0.4604,0.816,-0.1053,-0.3331
-0.076,0.004,-0.062,123.5,79.2,-74.4,1023,2018,5,17,19,57,8.239,-0.4687,0.8014,-0.1106,-0.3545
-0.085,0.026,-0.03,123.2,86.9,-76,0,2018,5,17,19,57,8.275,-0.4775,0.7857,-0.116,-0.3755
-0.092,0.053,-0.017,122.1,88.7,-80,0,2018,5,17,19,57,8.298,-0.4864,0.7689,-0.1223,-0.3963
-0.097,0.093,-0.013,120.3,89.2,-81.2,0,2018,5,17,19,57,8.303,-0.4947,0.7513,-0.1291,-0.4171
-0.134,0.087,-0.025,117.8,82.2,-83.3,0,2018,5,17,19,57,8.316,-0.5022,0.7334,-0.1362,-0.4373
-0.125,0.064,-0.005,116.3,70.2,-84.7,0,2018,5,17,19,57,8.335,-0.5077,0.7159,-0.1426,-0.4574
-0.156,0.063,0.016,112.2,70.4,-84.7,0,2018,5,17,19,57,8.358,-0.5124,0.6984,-0.1484,-0.477
-0.176,0.075,0.02,108.1,62.4,-85.6,0,2018,5,17,19,57,8.394,-0.5163,0.6808,-0.1545,-0.4959
-0.153,0.093,0.055,102.8,55,-84.9,0,2018,5,17,19,57,8.417,-0.5187,0.6637,-0.1601,-0.5145
-0.18,0.081,0.076,96.7,49.5,-82.5,0,2018,5,17,19,57,8.421,-0.5202,0.6468,-0.1652,-0.5324
-0.199,0.044,0.085,89,43.5,-81.1,0,2018,5,17,19,57,8.438,-0.5206,0.6312,-0.1701,-0.549
-0.208,0.049,0.13,80.6,25.9,-83.1,0,2018,5,17,19,57,8.461,-0.5189,0.6175,-0.1749,-0.5645
-0.211,0.026,0.156,69.7,20.2,-82.6,0,2018,5,17,19,57,8.478,-0.5152,0.6055,-0.1791,-0.5793
-0.23,-0.002,0.156,56.1,30.1,-79.4,0,2018,5,17,19,57,8.502,-0.5116,0.5943,-0.1844,-0.5924
-0.233,0,0.132,42.4,45.5,-75.5,0,2018,5,17,19,57,8.518,-0.509,0.5832,-0.1918,-0.6032
-0.222,0.03,0.131,29,63,-70.4,0,2018,5,17,19,57,8.554,-0.5081,0.572,-0.2016,-0.6114
-0.216,0.074,0.147,17,70,-66.1,0,2018,5,17,19,57,8.577,-0.5084,0.561,-0.2133,-0.6174
-0.22,0.106,0.133,5.8,68.6,-60,0,2018,5,17,19,57,8.581,-0.5088,0.551,-0.2258,-0.6216
-0.205,0.095,0.072,-3.1,63.4,-53,0,2018,5,17,19,57,8.6,-0.509,0.5428,-0.2381,-0.624
-0.108,0.114,0.036,-11,59.3,-46.3,0,2018,5,17,19,57,8.637,-0.5091,0.536,-0.25,-0.6251
-0.051,0.164,0.022,-17,47.2,-42.3,0,2018,5,17,19,57,8.659,-0.5087,0.5308,-0.2612,-0.6253
-0.063,0.124,0.011,-19.3,35.4,-37.7,0,2018,5,17,19,57,8.665,-0.5072,0.5272,-0.2711,-0.6254
-0.032,0.121,0.021,-21.2,35.1,-31.6,0,2018,5,17,19,57,8.682,-0.5052,0.524,-0.2802,-0.6257
-0.032,0.125,0.02,-23.6,40.4,-25,0,2018,5,17,19,57,8.7,-0.504,0.521,-0.2895,-0.6249
-0.043,0.142,0.042,-24.8,44,-17.3,0,2018,5,17,19,57,8.723,-0.5042,0.5185,-0.2984,-0.6227
-0.027,0.139,0.054,-25.9,45,-8.3,0,2018,5,17,19,57,8.74,-0.5055,0.5167,-0.3066,-0.6191
0.001,0.114,0.051,-27.5,49.3,0,0,2018,5,17,19,57,8.776,-0.5077,0.5149,-0.3146,-0.6148
-0.013,0.127,0.079,-30.5,45.4,5.5,0,2018,5,17,19,57,8.8,-0.5107,0.5137,-0.322,-0.6094
-0.01,0.126,0.062,-31.8,33.4,10.8,0,2018,5,17,19,57,8.804,-0.5134,0.514,-0.3282,-0.6036
0.019,0.134,0.03,-31.3,21.5,14.6,0,2018,5,17,19,57,8.821,-0.515,0.5152,-0.3333,-0.5984
0.046,0.135,-0.002,-32.4,12.8,16.2,1023,2018,5,17,19,57,8.839,-0.5157,0.5174,-0.3375,-0.5935
0.052,0.157,-0.023,-32.7,2.5,15.5,1023,2018,5,17,19,57,8.862,-0.5159,0.521,-0.3403,-0.5886
0.053,0.174,-0.027,-31.2,-1,16.6,1023,2018,5,17,19,57,8.879,-0.5156,0.5252,-0.3418,-0.5842
0.04,0.189,0.007,-30.2,0.4,19.4,1023,2018,5,17,19,57,8.903,-0.5155,0.5295,-0.343,-0.5797
0.028,0.196,0.024,-31.2,7.9,25.8,1023,2018,5,17,19,57,8.92,-0.5163,0.5336,-0.3441,-0.5746
-0.003,0.192,0.023,-32.5,12.2,33.2,1023,2018,5,17,19,57,8.943,-0.5184,0.5375,-0.3451,-0.5684
-0.038,0.178,0.016,-34,7.6,41.8,1023,2018,5,17,19,57,8.961,-0.5211,0.5422,-0.3458,-0.561
-0.09,0.167,0.057,-35.9,-2,51.6,1023,2018,5,17,19,57,8.981,-0.5238,0.5482,-0.3448,-0.5533
-0.133,0.167,0.085,-39.9,-10.2,64.7,1023,2018,5,17,19,57,9,-0.5264,0.556,-0.3421,-0.5445
-0.143,0.185,0.089,-44,-20.3,77.1,1023,2018,5,17,19,57,9.038,-0.5291,0.5656,-0.3377,-0.5347
-0.14,0.15,0.062,-47.3,-31.7,88,0,2018,5,17,19,57,9.061,-0.5315,0.5771,-0.3311,-0.524
-0.128,0.096,0.031,-51.3,-36.1,97.1,0,2018,5,17,19,57,9.066,-0.5334,0.5897,-0.3233,-0.5129
-0.161,0.103,0.043,-55.7,-31.3,107.2,0,2018,5,17,19,57,9.081,-0.5359,0.6028,-0.3148,-0.5001
-0.142,0.163,0.076,-61.6,-28.1,117.4,0,2018,5,17,19,57,9.103,-0.5394,0.6164,-0.3058,-0.4851
-0.117,0.158,0.06,-66.7,-36.1,124.1,0,2018,5,17,19,57,9.121,-0.5427,0.6312,-0.2962,-0.4682
-0.094,0.168,0.026,-71.6,-48.4,127.5,0,2018,5,17,19,57,9.144,-0.5441,0.6468,-0.2861,-0.4512
-0.117,0.163,0.012,-75,-56.6,131.2,0,2018,5,17,19,57,9.18,-0.5439,0.6636,-0.275,-0.4337
-0.104,0.163,0.015,-78.8,-59.8,137.5,0,2018,5,17,19,57,9.203,-0.5426,0.681,-0.2632,-0.4151
-0.071,0.12,-0.004,-82.3,-57.1,141.4,0,2018,5,17,19,57,9.208,-0.5413,0.6986,-0.2505,-0.3951
-0.045,0.073,-0.026,-84.5,-47.3,144.8,0,2018,5,17,19,57,9.221,-0.5404,0.7153,-0.2377,-0.3736
-0.035,0.082,-0.015,-85.9,-38.5,144.8,0,2018,5,17,19,57,9.257,-0.5403,0.7308,-0.2252,-0.3509
-0.019,0.109,0.028,-85.6,-41.4,143.3,0,2018,5,17,19,57,9.28,-0.5402,0.7451,-0.2128,-0.328
0.013,0.094,0.009,-84.5,-49.2,142.2,0,2018,5,17,19,57,9.284,-0.5386,0.7592,-0.2001,-0.3055
0.019,0.023,-0.036,-82.3,-48.2,140.3,0,2018,5,17,19,57,9.303,-0.5359,0.7731,-0.187,-0.2829
0.024,0.003,-0.03,-80.2,-39.9,137.6,0,2018,5,17,19,57,9.326,-0.5337,0.7856,-0.1737,-0.2603
0.029,-0.018,-0.016,-77.9,-42,131.9,0,2018,5,17,19,57,9.344,-0.5317,0.7966,-0.1609,-0.2379
0.039,0.019,-0.029,-71.8,-77.5,118.1,0,2018,5,17,19,57,9.368,-0.526,0.8086,-0.1483,-0.2176
0.048,-0.073,-0.029,-68.5,-94.8,109.9,0,2018,5,17,19,57,9.383,-0.5155,0.8221,-0.1353,-0.1997
0.041,-0.112,-0.062,-67.1,-85.7,104.6,0,2018,5,17,19,57,9.406,-0.5044,0.8349,-0.1228,-0.1823
0.018,-0.104,-0.108,-63.9,-84.6,95,0,2018,5,17,19,57,9.423,-0.4937,0.8464,-0.1113,-0.1654
0.005,-0.067,-0.125,-56,-109.8,81.6,0,2018,5,17,19,57,9.442,-0.4801,0.8583,-0.1007,-0.1504
0.007,-0.111,-0.11,-50.3,-121.3,73.4,0,2018,5,17,19,57,9.465,-0.4627,0.871,-0.0903,-0.1378
0.001,-0.173,-0.112,-49.5,-94.1,69.8,0,2018,5,17,19,57,9.485,-0.4469,0.8819,-0.0806,-0.1258
-0.03,-0.175,-0.148,-46.6,-68.7,62.4,0,2018,5,17,19,57,9.503,-0.4359,0.8898,-0.072,-0.1136
-0.057,-0.091,-0.155,-36.8,-80.7,50.4,0,2018,5,17,19,57,9.526,-0.4248,0.897,-0.0647,-0.103
-0.031,-0.117,-0.131,-28.6,-92.9,40.2,0,2018,5,17,19,57,9.545,-0.4111,0.9047,-0.0581,-0.0949
-0.002,-0.136,-0.078,-24.1,-85.7,33.2,0,2018,5,17,19,57,9.567,-0.3973,0.9118,-0.0525,-0.0888
0.017,-0.119,-0.05,-24.3,-62.9,30.3,0,2018,5,17,19,57,9.587,-0.3862,0.9173,-0.0477,-0.0833
0.021,-0.106,-0.044,-24.6,-37.7,29.5,0,2018,5,17,19,57,9.605,-0.3793,0.9209,-0.0437,-0.0779
-0.002,-0.074,-0.037,-21.6,-31.3,25.3,1023,2018,5,17,19,57,9.628,-0.3751,0.9232,-0.04,-0.0725
-0.013,-0.085,-0.028,-17.1,-41,20.7,1023,2018,5,17,19,57,9.644,-0.3698,0.9258,-0.0369,-0.0681
0.014,-0.08,-0.004,-14.9,-42.1,18.2,1023,2018,5,17,19,57,9.662,-0.3638,0.9286,-0.0341,-0.0644
0.021,-0.088,-0.006,-13.4,-32.2,16.4,1023,2018,5,17,19,57,9.685,-0.3586,0.9309,-0.0316,-0.0614
0.014,-0.085,-0.003,-13,-21.3,14.2,1023,2018,5,17,19,57,9.703,-0.3552,0.9324,-0.0295,-0.0586
0.015,-0.084,0.061,-14,-9.1,12.5,1023,2018,5,17,19,57,9.726,-0.3537,0.9332,-0.0278,-0.0558
0,-0.063,0.106,-18.5,-2.9,9.4,1023,2018,5,17,19,57,9.762,-0.3543,0.9332,-0.0268,-0.0525
0.015,-0.03,0.083,-22.6,-7,7.7,1023,2018,5,17,19,57,9.785,-0.3545,0.9333,-0.0267,-0.0489
0.021,-0.017,0.038,-23.9,-13.7,7,1023,2018,5,17,19,57,9.789,-0.3534,0.934,-0.0268,-0.0448
0.039,-0.013,0.034,-24,-15.9,6.9,1023,2018,5,17,19,57,9.807,-0.3512,0.9349,-0.027,-0.0409
0.047,-0.019,0.021,-24.2,-14.3,6.6,0,2018,5,17,19,57,9.831,-0.349,0.9359,-0.0274,-0.0371
0.046,-0.02,0.009,-24.5,-9.8,6.7,0,2018,5,17,19,57,9.85,-0.3473,0.9367,-0.0278,-0.0332
0.053,0.018,0.014,-25.4,-7,7,0,2018,5,17,19,57,9.867,-0.3461,0.9372,-0.0283,-0.0292
0.048,0.012,-0.029,-24.5,-11.8,6.4,0,2018,5,17,19,57,9.89,-0.3444,0.938,-0.0288,-0.0252
0.048,0.011,-0.033,-21.7,-12.7,7.4,0,2018,5,17,19,57,9.906,-0.3419,0.939,-0.0291,-0.0215
0.039,-0.001,-0.027,-21.2,-6.8,8.6,0,2018,5,17,19,57,9.925,-0.3404,0.9396,-0.029,-0.018
0.031,-0.004,-0.024,-19.5,-3.3,9.1,0,2018,5,17,19,57,9.948,-0.3394,0.94,-0.0288,-0.0145
0.022,-0.006,-0.001,-17.9,0.8,10,0,2018,5,17,19,57,9.968,-0.3391,0.9402,-0.0284,-0.0111
0.006,-0.009,0.001,-16.3,3.6,10.5,0,2018,5,17,19,57,9.986,-0.3396,0.94,-0.0276,-0.0078
0.005,0.005,0.001,-15.8,3.9,10.3,0,2018,5,17,19,57,10.01,-0.3403,0.9398,-0.0268,-0.0046
0.008,-0.002,-0.014,-14,-0.1,9.9,0,2018,5,17,19,57,10.028,-0.3407,0.9398,-0.026,-0.0015
0.021,-0.01,0,-11.8,-1,10.2,0,2018,5,17,19,57,10.052,-0.3405,0.9398,-0.0251,0.0009
0.021,-0.006,0.005,-12,2,10.3,0,2018,5,17,19,57,10.068,-0.341,0.9397,-0.024,0.0033
0.021,-0.005,-0.004,-12,1.1,9.6,0,2018,5,17,19,57,10.092,-0.3413,0.9396,-0.0231,0.0057
0.03,-0.009,-0.002,-11.5,-1.5,8.5,0,2018,5,17,19,57,10.127,-0.3412,0.9396,-0.0224,0.0079
0.039,-0.01,0.003,-11.5,-2.6,7.4,0,2018,5,17,19,57,10.127,-0.3409,0.9397,-0.0218,0.0099
0.041,-0.007,-0.004,-11.6,-1,6.6,0,2018,5,17,19,57,10.151,-0.3408,0.9398,-0.0214,0.0118
0.052,-0.008,-0.004,-11.2,0.4,6.5,0,2018,5,17,19,57,10.168,-0.3409,0.9397,-0.0211,0.0137
0.048,-0.003,-0.015,-10.2,-2.9,6.2,0,2018,5,17,19,57,10.186,-0.3406,0.9398,-0.0208,0.0153
0.044,0.001,-0.021,-9,-5.6,6,0,2018,5,17,19,57,10.208,-0.3397,0.9401,-0.0205,0.0168
0.042,0.018,-0.007,-8.8,-7.1,5.9,0,2018,5,17,19,57,10.227,-0.3388,0.9404,-0.0201,0.0182
0.025,-0.007,-0.022,-6,-11.3,5,0,2018,5,17,19,57,10.251,-0.337,0.941,-0.0197,0.0193
0.023,-0.021,-0.037,-4.3,-9.6,4.4,0,2018,5,17,19,57,10.286,-0.3354,0.9416,-0.0192,0.0201
0.022,-0.029,-0.018,-3.4,-4.4,3.2,0,2018,5,17,19,57,10.309,-0.3344,0.9419,-0.0188,0.0207
0.037,-0.023,-0.008,-2.9,-3.4,1.8,0,2018,5,17,19,57,10.313,-0.334,0.9421,-0.0186,0.0211
0.037,-0.021,-0.004,-1.1,-1.8,1.7,0,2018,5,17,19,57,10.327,-0.3338,0.9421,-0.0185,0.0211
0.023,-0.031,-0.013,1.4,-3.4,0.9,0,2018,5,17,19,57,10.35,-0.3338,0.9422,-0.0182,0.0208
0.012,-0.049,-0.01,3,-3.8,-0.7,0,2018,5,17,19,57,10.385,-0.3336,0.9423,-0.0181,0.0203
0.02,-0.035,-0.001,3.4,-1.5,-1.4,0,2018,5,17,19,57,10.408,-0.3336,0.9423,-0.018,0.0195
0.033,-0.014,-0.005,3.7,0.6,-1.5,0,2018,5,17,19,57,10.413,-0.3339,0.9422,-0.0181,0.0186
0.032,-0.012,-0.006,4.8,0.1,-1.1,0,2018,5,17,19,57,10.428,-0.3341,0.9421,-0.0181,0.0174
0.028,-0.008,-0.004,5.8,-0.5,-1.2,1023,2018,5,17,19,57,10.451,-0.3342,0.9421,-0.0179,0.0162
0.028,-0.003,0.007,5.8,-0.7,-1.7,1023,2018,5,17,19,57,10.469,-0.3342,0.9421,-0.0179,0.0148
0.031,-0.022,-0.011,5.3,0.7,-2.3,1023,2018,5,17,19,57,10.492,-0.3343,0.9421,-0.018,0.0135
0.018,-0.018,-0.023,7,0.3,-3.3,1023,2018,5,17,19,57,10.526,-0.3346,0.942,-0.0181,0.0121
0.014,-0.035,-0.032,8.6,2.2,-3.5,1023,2018,5,17,19,57,10.55,-0.3349,0.9419,-0.0181,0.0105
0.015,-0.033,-0.029,10.2,9.7,-3.5,1023,2018,5,17,19,57,10.553,-0.3361,0.9415,-0.0181,0.0086
0.01,-0.03,-0.025,12.1,11.8,-4.6,1023,2018,5,17,19,57,10.572,-0.3381,0.9408,-0.0181,0.0064
0.001,-0.034,-0.028,14.7,10.1,-6.6,1023,2018,5,17,19,57,10.594,-0.3401,0.9401,-0.0182,0.0038
0.009,-0.042,-0.057,17.8,5.6,-8.9,1023,2018,5,17,19,57,10.612,-0.3414,0.9397,-0.0185,0.0006
0.013,-0.072,-0.093,22.8,0.7,-12.8,1023,2018,5,17,19,57,10.629,-0.342,0.9394,-0.019,-0.0034
0.003,-0.106,-0.133,29.3,-0.7,-17.4,1023,2018,5,17,19,57,10.653,-0.3418,0.9394,-0.02,-0.0086
0.015,-0.09,-0.121,36.5,1.4,-22.4,0,2018,5,17,19,57,10.688,-0.3419,0.9393,-0.0212,-0.0152
0.03,-0.103,-0.105,42.3,8.7,-26.9,0,2018,5,17,19,57,10.709,-0.343,0.9387,-0.0229,-0.0234
0.027,-0.133,-0.152,49.9,14.1,-32.6,0,2018,5,17,19,57,10.713,-0.3449,0.9376,-0.0251,-0.0328
0.051,-0.111,-0.141,58.1,16.8,-37.4,0,2018,5,17,19,57,10.75,-0.3475,0.9362,-0.0277,-0.0439
0.058,-0.133,-0.167,66.8,15,-41.9,0,2018,5,17,19,57,10.771,-0.3501,0.9344,-0.0305,-0.0568
0.059,-0.155,-0.172,77.5,17.2,-47.3,0,2018,5,17,19,57,10.773,-0.3524,0.9324,-0.0336,-0.0715
0.051,-0.125,-0.143,86.5,22.6,-52.4,0,2018,5,17,19,57,10.808,-0.3554,0.9298,-0.037,-0.088
0.066,-0.124,-0.129,93.6,34.7,-56.2,0,2018,5,17,19,57,10.829,-0.3597,0.9261,-0.0406,-0.106
0.053,-0.091,-0.119,100.7,44,-59.9,0,2018,5,17,19,57,10.832,-0.3656,0.9211,-0.0448,-0.1252
0.013,-0.11,-0.113,107,48.4,-64.4,0,2018,5,17,19,57,10.868,-0.3724,0.9152,-0.0491,-0.1454
0.026,-0.078,-0.114,114.8,47.8,-67.6,0,2018,5,17,19,57,10.89,-0.379,0.9086,-0.0537,-0.1669
0.02,-0.023,-0.093,120.8,46.1,-70.4,0,2018,5,17,19,57,10.895,-0.3848,0.9014,-0.0583,-0.1894
-0.009,-0.039,-0.068,125.6,47.4,-70.8,0,2018,5,17,19,57,10.914,-0.3904,0.8934,-0.0627,-0.2128
-0.005,-0.01,-0.073,130,51.4,-70,0,2018,5,17,19,57,10.937,-0.3962,0.8846,-0.0669,-0.2366
-0.007,-0.01,-0.075,135,57.8,-70.5,0,2018,5,17,19,57,10.955,-0.4027,0.8744,-0.0708,-0.2608
-0.023,0.005,-0.071,140.3,52.9,-72.8,0,2018,5,17,19,57,10.975,-0.4089,0.8634,-0.0746,-0.2857
-0.046,0.007,-0.027,144.1,54,-71.3,0,2018,5,17,19,57,10.994,-0.4146,0.8516,-0.078,-0.311
-0.042,0.019,-0.027,146,57.6,-71,0,2018,5,17,19,57,11.017,-0.4204,0.8387,-0.0811,-0.3363
-0.067,0.04,-0.014,146.8,62.8,-70.8,0,2018,5,17,19,57,11.035,-0.4266,0.8246,-0.0843,-0.3616
-0.101,0.044,-0.008,146.5,70,-69.7,0,2018,5,17,19,57,11.058,-0.4333,0.8094,-0.0877,-0.3864
-0.142,0.047,0.008,145.6,77.2,-69.4,0,2018,5,17,19,57,11.074,-0.4411,0.7928,-0.0912,-0.4104
-0.156,0.085,0.051,141.2,82.5,-67.5,0,2018,5,17,19,57,11.092,-0.4491,0.7753,-0.0953,-0.4336
-0.16,0.12,0.067,133.6,87.3,-64.3,0,2018,5,17,19,57,11.115,-0.4578,0.7568,-0.1001,-0.4556
-0.176,0.1,0.063,125.7,85.3,-62.4,0,2018,5,17,19,57,11.133,-0.4664,0.738,-0.1051,-0.476
-0.16,0.097,0.077,118.5,85.9,-58.1,0,2018,5,17,19,57,11.157,-0.4746,0.7193,-0.1101,-0.4951
-0.159,0.111,0.087,111.2,79.5,-55.7,0,2018,5,17,19,57,11.175,-0.4827,0.7006,-0.1148,-0.5127
-0.133,0.099,0.093,103.7,67.3,-54.9,0,2018,5,17,19,57,11.194,-0.4892,0.6827,-0.1191,-0.5294
-0.14,0.043,0.075,97.8,50.3,-56.6,0,2018,5,17,19,57,11.215,-0.4935,0.6664,-0.1225,-0.5452
-0.153,0.014,0.087,92.2,37.3,-58,0,2018,5,17,19,57,11.254,-0.4953,0.6518,-0.1248,-0.5604
-0.145,0.009,0.104,84.3,32.5,-59.6,0,2018,5,17,19,57,11.254,-0.4952,0.6389,-0.1273,-0.5747
-0.12,-0.004,0.087,75.2,40.4,-59.4,1023,2018,5,17,19,57,11.276,-0.4949,0.6263,-0.1305,-0.5878
-0.162,-0.017,0.086,63.9,54.1,-60.8,1023,2018,5,17,19,57,11.293,-0.4954,0.6137,-0.1361,-0.5994
-0.179,-0.021,0.09,52.8,67,-61.1,1023,2018,5,17,19,57,11.314,-0.497,0.6008,-0.144,-0.6093
-0.159,-0.017,0.069,42.9,77.3,-63.3,1023,2018,5,17,19,57,11.352,-0.4991,0.5877,-0.1541,-0.6177
-0.147,0.031,0.059,31.4,88.7,-63.6,1023,2018,5,17,19,57,11.352,-0.5017,0.5745,-0.1664,-0.6248
-0.141,0.038,0.035,24.2,94,-63.9,1023,2018,5,17,19,57,11.375,-0.5051,0.5609,-0.18,-0.6306
-0.166,0.038,0.027,17,95.1,-65,1023,2018,5,17,19,57,11.412,-0.5083,0.5475,-0.1944,-0.6355
-0.127,0.068,-0.03,10.7,91.2,-65.7,1023,2018,5,17,19,57,11.435,-0.5104,0.535,-0.2097,-0.6396
-0.091,0.098,-0.009,7,89.9,-64.4,1023,2018,5,17,19,57,11.44,-0.5116,0.5231,-0.2256,-0.643
-0.113,0.148,0.025,1.8,85.9,-61.9,1023,2018,5,17,19,57,11.458,-0.5125,0.5119,-0.2413,-0.6456
-0.104,0.188,0.01,-3.7,76.7,-58.2,1023,2018,5,17,19,57,11.476,-0.5129,0.5022,-0.2559,-0.6474
-0.036,0.179,0.025,-10.2,58.8,-48.1,0,2018,5,17,19,57,11.5,-0.5119,0.4867,-0.2815,-0.6493
-0.05,0.202,0.032,-15.4,54.2,-40.1,0,2018,5,17,19,57,11.518,-0.5109,0.4811,-0.2929,-0.6493
-0.043,0.205,0.02,-19.6,57.3,-29.7,0,2018,5,17,19,57,11.542,-0.5107,0.4764,-0.3038,-0.6479
-0.031,0.234,0.041,-25.4,60.7,-19.1,0,2018,5,17,19,57,11.557,-0.5117,0.4724,-0.3147,-0.6448
-0.026,0.255,0.083,-32.1,53.4,-8.6,0,2018,5,17,19,57,11.593,-0.5133,0.4698,-0.325,-0.6404
-0.07,0.216,0.087,-38.4,40.5,2.7,0,2018,5,17,19,57,11.593,-0.5147,0.4694,-0.3338,-0.6349
-0.089,0.188,0.078,-43.6,34.1,15.7,0,2018,5,17,19,57,11.617,-0.5163,0.4713,-0.3408,-0.6285
-0.119,0.172,0.058,-48,35,31.3,0,2018,5,17,19,57,11.654,-0.519,0.4747,-0.3468,-0.6204
-0.128,0.173,0.038,-52.2,32.5,45.5,0,2018,5,17,19,57,11.677,-0.5229,0.4793,-0.352,-0.6105
-0.151,0.158,0.023,-56.2,25.6,58.9,0,2018,5,17,19,57,11.682,-0.5275,0.4857,-0.3557,-0.5992
-0.191,0.163,0.037,-59.9,19.5,73.6,0,2018,5,17,19,57,11.698,-0.5327,0.4938,-0.3578,-0.5866
-0.187,0.168,0.049,-64.8,13.3,88.5,0,2018,5,17,19,57,11.72,-0.5385,0.5038,-0.3583,-0.5724
-0.128,0.211,0.025,-69.4,2.3,101.4,0,2018,5,17,19,57,11.739,-0.5444,0.5157,-0.3572,-0.5567
-0.108,0.231,0,-72.4,-18.8,110.8,0,2018,5,17,19,57,11.762,-0.5494,0.5299,-0.3536,-0.5404
-0.129,0.225,-0.015,-74.1,-37.6,121.6,0,2018,5,17,19,57,11.779,-0.5529,0.5468,-0.3473,-0.524
-0.08,0.209,-0.036,-77.1,-43.9,132.2,0,2018,5,17,19,57,11.815,-0.5556,0.5654,-0.3387,-0.5066
-0.017,0.191,-0.025,-78.6,-42.3,139.5,0,2018,5,17,19,57,11.838,-0.5585,0.5845,-0.3292,-0.4878
-0.007,0.188,-0.008,-81.3,-43.1,143.5,0,2018,5,17,19,57,11.843,-0.5613,0.6033,-0.319,-0.4679
-0.069,0.204,0.017,-83.1,-51.2,146.7,0,2018,5,17,19,57,11.86,-0.5633,0.6224,-0.3082,-0.4474
-0.063,0.183,-0.001,-84.6,-65.4,149,0,2018,5,17,19,57,11.877,-0.5635,0.6422,-0.296,-0.4269
0.015,0.137,-0.044,-85.2,-75.1,147.4,0,2018,5,17,19,57,11.901,-0.5609,0.6629,-0.2834,-0.4067
0.025,0.117,-0.04,-86.6,-68.1,148.6,0,2018,5,17,19,57,11.938,-0.558,0.6832,-0.2699,-0.3858
-0.019,0.072,-0.021,-86.4,-56.5,147,0,2018,5,17,19,57,11.961,-0.5559,0.7017,-0.2571,-0.3638
0.004,0.109,-0.015,-83.9,-71.7,140.9,0,2018,5,17,19,57,11.964,-0.5528,0.7193,-0.2443,-0.3424
0.029,0.077,-0.052,-81.1,-87,134.5,0,2018,5,17,19,57,11.979,-0.5461,0.7378,-0.2309,-0.3224
0.061,0.024,-0.064,-79.1,-80.9,131.4,0,2018,5,17,19,57,12.015,-0.5383,0.7558,-0.2172,-0.3028
0.065,-0.014,-0.068,-77.1,-66.6,127.2,1023,2018,5,17,19,57,12.037,-0.5316,0.7717,-0.204,-0.283
0.021,-0.025,-0.098,-71.2,-79.1,113.6,1023,2018,5,17,19,57,12.04,-0.5248,0.7863,-0.1913,-0.2638
0.001,-0.044,-0.128,-64.2,-111.3,99.9,1023,2018,5,17,19,57,12.059,-0.5132,0.8021,-0.1787,-0.2475
0.002,-0.063,-0.125,-59.3,-126.6,88.8,1023,2018,5,17,19,57,12.082,-0.4973,0.8188,-0.1659,-0.2336
0.002,-0.128,-0.132,-57.5,-112.6,80.8,1023,2018,5,17,19,57,12.101,-0.4813,0.8342,-0.1536,-0.2207
-0.012,-0.079,-0.113,-54.6,-111.7,69.6,1023,2018,5,17,19,57,12.124,-0.466,0.8478,-0.1431,-0.2083
-0.03,-0.118,-0.122,-50.8,-110.2,62.1,1023,2018,5,17,19,57,12.141,-0.4501,0.8606,-0.1334,-0.1971
-0.046,-0.102,-0.097,-47,-104.6,55,1023,2018,5,17,19,57,12.163,-0.4345,0.8722,-0.1245,-0.1868
-0.011,-0.089,-0.08,-45.1,-95.1,50.8,0,2018,5,17,19,57,12.181,-0.42,0.8823,-0.1163,-0.1772
0.002,-0.074,-0.074,-42.7,-82.6,48.3,0,2018,5,17,19,57,12.204,-0.407,0.8911,-0.1089,-0.1683
-0.003,-0.073,-0.043,-40.9,-68.2,47,0,2018,5,17,19,57,12.242,-0.3961,0.8984,-0.1019,-0.1596
-0.017,-0.092,-0.037,-39.6,-56.5,44.4,0,2018,5,17,19,57,12.242,-0.3874,0.9044,-0.0956,-0.1508
-0.011,-0.063,-0.031,-37.3,-54.1,39.6,0,2018,5,17,19,57,12.264,-0.3797,0.9096,-0.0898,-0.1425
0.007,-0.031,-0.011,-34.3,-59.8,36.7,0,2018,5,17,19,57,12.28,-0.3713,0.9147,-0.0846,-0.1351
0.021,-0.064,-0.015,-33,-57.3,35.7,0,2018,5,17,19,57,12.302,-0.3626,0.9196,-0.0795,-0.1283
0.007,-0.075,-0.021,-30.8,-51.3,33.2,0,2018,5,17,19,57,12.34,-0.3548,0.9239,-0.0746,-0.1217
0.013,-0.066,0.007,-30.2,-44,31.5,0,2018,5,17,19,57,12.34,-0.3477,0.9278,-0.0702,-0.1153
0.03,-0.049,0.038,-33.2,-32.2,30.4,0,2018,5,17,19,57,12.361,-0.3425,0.9307,-0.0662,-0.1089
0.009,-0.076,0.046,-35.2,-14.2,29.9,0,2018,5,17,19,57,12.396,-0.3396,0.9328,-0.0628,-0.1019
0.004,-0.097,0.104,-40.9,5.7,28.7,0,2018,5,17,19,57,12.42,-0.3402,0.9336,-0.0601,-0.0941
0.02,-0.04,0.1,-46.1,13.9,27.1,0,2018,5,17,19,57,12.424,-0.3435,0.9334,-0.0582,-0.0854
0.012,0.03,0.025,-45,-5.2,25,0,2018,5,17,19,57,12.463,-0.3448,0.9337,-0.0569,-0.0765
0.028,0.02,-0.005,-40.9,-23.3,25.5,0,2018,5,17,19,57,12.463,-0.3419,0.9355,-0.0552,-0.0684
0.041,0.003,-0.015,-40.5,-20.2,27,0,2018,5,17,19,57,12.486,-0.3382,0.9376,-0.0531,-0.0608
0.048,0.003,-0.051,-38.1,-16.2,26.6,0,2018,5,17,19,57,12.501,-0.3351,0.9392,-0.0509,-0.0532
0.054,-0.009,-0.063,-34.3,-12.5,26.4,0,2018,5,17,19,57,12.524,-0.3325,0.9407,-0.0486,-0.0463
0.047,-0.02,-0.052,-32.1,-0.3,26.6,0,2018,5,17,19,57,12.542,-0.3312,0.9415,-0.0462,-0.0398
0.048,-0.016,-0.034,-31.9,10.9,25.8,0,2018,5,17,19,57,12.566,-0.3322,0.9415,-0.0438,-0.0334
0.04,-0.003,-0.037,-29.1,7.5,23.3,0,2018,5,17,19,57,12.583,-0.3338,0.9413,-0.0418,-0.0272
0.051,-0.008,-0.015,-26.1,1.7,22.1,0,2018,5,17,19,57,12.606,-0.3342,0.9413,-0.0398,-0.0218
0.056,-0.026,0.006,-25.6,3.1,22,0,2018,5,17,19,57,12.624,-0.3346,0.9414,-0.0378,-0.0168
0.044,-0.027,0.01,-25.4,3.8,22.1,0,2018,5,17,19,57,12.648,-0.3357,0.9412,-0.0358,-0.0117
0.028,-0.022,0.011,-24.3,3.4,22.3,0,2018,5,17,19,57,12.664,-0.3366,0.9409,-0.0336,-0.0066
0.023,-0.021,-0.014,-23.4,-1.3,21.6,0,2018,5,17,19,57,12.681,-0.3368,0.941,-0.0315,-0.0016
0.025,-0.014,-0.013,-21.8,-2.7,20.2,0,2018,5,17,19,57,12.704,-0.3365,0.9412,-0.0294,0.003
0.03,-0.006,0,-20.9,-0.4,19.6,0,2018,5,17,19,57,12.723,-0.3363,0.9413,-0.0274,0.0074
0.026,-0.012,0.003,-20.9,3.1,18.8,1023,2018,5,17,19,57,12.748,-0.3366,0.9412,-0.0255,0.0117
0.035,-0.005,-0.019,-19.9,2.3,18.2,1023,2018,5,17,19,57,12.764,-0.3372,0.9409,-0.0237,0.0158
0.031,0,-0.023,-18.1,-6.5,17.1,1023,2018,5,17,19,57,12.787,-0.3367,0.9411,-0.022,0.0197
0.041,-0.011,-0.011,-16.8,-10.6,15.7,1023,2018,5,17,19,57,12.826,-0.3352,0.9416,-0.0204,0.023
0.038,-0.02,-0.014,-16.3,-9.6,13.9,1023,2018,5,17,19,57,12.829,-0.3335,0.9421,-0.019,0.0263
0.036,-0.02,-0.018,-15.4,-4.1,13.5,1023,2018,5,17,19,57,12.846,-0.3324,0.9425,-0.0179,0.0293
0.035,-0.025,-0.019,-13.5,-2.1,12.8,1023,2018,5,17,19,57,12.867,-0.332,0.9425,-0.0166,0.0321
0.044,-0.025,-0.008,-12.3,-4.5,10.8,1023,2018,5,17,19,57,12.901,-0.3317,0.9426,-0.0155,0.0345
0.045,-0.032,-0.021,-11.3,-6.3,9.1,1023,2018,5,17,19,57,12.922,-0.3311,0.9427,-0.0145,0.0365
0.045,-0.031,-0.03,-9.7,-4.5,7.9,1023,2018,5,17,19,57,12.926,-0.3305,0.9429,-0.0139,0.0382
0.04,-0.027,-0.026,-7.9,-2.8,7.3,1023,2018,5,17,19,57,12.964,-0.33,0.943,-0.0132,0.0397
0.042,-0.03,-0.029,-6.5,-1.1,6,0,2018,5,17,19,57,12.964,-0.3299,0.943,-0.0125,0.0408
0.043,-0.016,-0.021,-5.3,-0.5,4.8,0,2018,5,17,19,57,12.987,-0.33,0.9429,-0.012,0.0417
0.04,-0.018,-0.016,-4,-2.7,3.8,0,2018,5,17,19,57,13.024,-0.3297,0.943,-0.0117,0.0423
0.046,-0.021,-0.012,-3.1,-0.2,3.9,0,2018,5,17,19,57,13.048,-0.3296,0.943,-0.0114,0.0426
0.045,-0.01,-0.003,-2.6,1.2,3.6,0,2018,5,17,19,57,13.052,-0.3299,0.9429,-0.011,0.0429
0.044,-0.006,-0.009,-2.4,-0.8,2.6,0,2018,5,17,19,57,13.07,-0.3301,0.9428,-0.0107,0.0431
0.04,0.006,-0.004,-2,-2.2,2.6,0,2018,5,17,19,57,13.089,-0.3298,0.9429,-0.0105,0.0432
0.034,0.005,-0.003,-1.9,-3.5,2.1,0,2018,5,17,19,57,13.107,-0.3295,0.9431,-0.0103,0.0433
0.034,-0.011,-0.006,-1.2,-3.2,2.1,0,2018,5,17,19,57,13.131,-0.3289,0.9432,-0.0102,0.0434
0.034,-0.007,-0.004,-1.2,-1.6,2.4,0,2018,5,17,19,57,13.148,-0.3285,0.9434,-0.01,0.0434
0.032,-0.005,-0.007,-0.7,-0.1,2.5,0,2018,5,17,19,57,13.171,-0.3286,0.9434,-0.0097,0.0433
0.034,0.001,0,-0.2,-0.7,2.6,0,2018,5,17,19,57,13.191,-0.3286,0.9434,-0.0093,0.0432
0.024,-0.003,0.007,0.2,-2.6,1.9,0,2018,5,17,19,57,13.208,-0.3285,0.9434,-0.0089,0.0431
0.027,-0.007,0.003,0.3,-1.3,1.5,0,2018,5,17,19,57,13.227,-0.3283,0.9435,-0.0086,0.0428
0.021,-0.005,-0.002,0.7,-0.4,1.1,0,2018,5,17,19,57,13.249,-0.3283,0.9435,-0.0084,0.0426
0.027,0,-0.002,1.5,-2,0.8,0,2018,5,17,19,57,13.267,-0.3282,0.9436,-0.0083,0.0422
0.026,0.003,0,1.8,-3.4,1,0,2018,5,17,19,57,13.29,-0.3278,0.9437,-0.008,0.0417
0.031,-0.006,0.007,1.4,-2.3,1.1,0,2018,5,17,19,57,13.327,-0.3275,0.9438,-0.0078,0.0412
0.029,-0.007,0.009,0.9,0.4,1.1,0,2018,5,17,19,57,13.35,-0.3276,0.9438,-0.0076,0.0408
0.021,-0.011,-0.004,1.5,-1.5,0.5,0,2018,5,17,19,57,13.354,-0.3275,0.9439,-0.0075,0.0404
0.023,-0.01,-0.005,2.1,-3.7,-0.2,0,2018,5,17,19,57,13.369,-0.3273,0.944,-0.0074,0.0399
0.025,-0.01,0.003,2.5,-3.5,-0.6,0,2018,5,17,19,57,13.392,-0.3268,0.9442,-0.0074,0.0392
0.024,-0.01,-0.005,2.9,-1.7,-0.5,0,2018,5,17,19,57,13.406,-0.3264,0.9443,-0.0074,0.0385
0.022,-0.013,-0.01,3.5,0.2,-1.4,0,2018,5,17,19,57,13.445,-0.3264,0.9444,-0.0074,0.0377
0.022,-0.005,0.003,3.7,0.8,-1.4,0,2018,5,17,19,57,13.469,-0.3266,0.9443,-0.0075,0.0367
0.03,-0.012,0.004,4.2,0.8,-1.4,0,2018,5,17,19,57,13.473,-0.327,0.9443,-0.0075,0.0357
0.026,-0.017,-0.012,5.1,-0.7,-2.1,0,2018,5,17,19,57,13.49,-0.3273,0.9442,-0.0076,0.0346
0.012,-0.023,-0.027,7.2,-6.3,-4.3,0,2018,5,17,19,57,13.508,-0.3267,0.9445,-0.0078,0.0332
0.008,-0.04,-0.044,9.5,-6.1,-6.1,1023,2018,5,17,19,57,13.528,-0.3257,0.9449,-0.0082,0.0313
