ax,ay,az,dpitch,droll,dyaw,heart,time_1,time_2,time_3,time_4,time_5,time_6,w,x,y,z
0.111,-0.683,0.194,14.6,2,49.2,0,2018,5,1,22,23,12.73,0.7571,0.1098,-0.6306,-0.13
0.057,-0.713,0.169,11.9,4.2,40,0,2018,5,1,22,23,12.752,0.7546,0.1146,-0.6316,-0.1356
-0.05,-0.767,0.187,8.6,7.9,31.6,0,2018,5,1,22,23,12.768,0.7525,0.1188,-0.6324,-0.1398
-0.143,-0.838,0.245,2.5,20.4,22.2,0,2018,5,1,22,23,12.806,0.7509,0.1234,-0.6329,-0.1419
-0.213,-0.846,0.262,-4.7,30.4,9.2,0,2018,5,1,22,23,12.828,0.7501,0.1287,-0.6331,-0.141
-0.227,-0.848,0.232,-10,32.9,-9.9,0,2018,5,1,22,23,12.831,0.7502,0.1329,-0.6329,-0.1372
-0.152,-0.841,0.2,-12.4,37.7,-36,0,2018,5,1,22,23,12.848,0.7512,0.1347,-0.6328,-0.1298
-0.046,-0.787,0.181,-12.9,49.9,-70,0,2018,5,1,22,23,12.871,0.7528,0.1345,-0.6335,-0.1175
0.002,-0.678,0.211,-16.7,63.3,-103.3,0,2018,5,1,22,23,12.908,0.7547,0.1324,-0.6347,-0.0992
-0.016,-0.541,0.212,-22.6,61.8,-132.7,0,2018,5,1,22,23,12.911,0.7573,0.1277,-0.6359,-0.0758
-0.109,-0.499,0.222,-30.2,51.9,-154.6,0,2018,5,1,22,23,12.928,0.7606,0.1196,-0.6361,-0.0499
-0.271,-0.436,0.246,-40.7,48.7,-168.7,0,2018,5,1,22,23,12.948,0.7645,0.1086,-0.6349,-0.0221
-0.484,-0.358,0.254,-54.1,50.5,-174.9,1023,2018,5,1,22,23,12.968,0.7691,0.0964,-0.6317,0.0072
-0.6,-0.257,0.195,-67.6,45.3,-173.5,1023,2018,5,1,22,23,12.988,0.7743,0.0838,-0.626,0.0369
-0.623,-0.179,0.104,-76.5,31.7,-169.2,1023,2018,5,1,22,23,13.01,0.7802,0.0682,-0.6181,0.0667
-0.591,-0.107,0.017,-81,20.8,-166,1023,2018,5,1,22,23,13.029,0.7857,0.0516,-0.609,0.094
-0.547,-0.01,-0.046,-81.2,9.5,-165.8,1023,2018,5,1,22,23,13.05,0.7906,0.0344,-0.5994,0.1194
-0.502,0.071,-0.104,-77.8,-2.6,-169.7,1023,2018,5,1,22,23,13.071,0.795,0.0157,-0.5891,0.1432
-0.452,0.14,-0.154,-72.3,-12.7,-175.3,1023,2018,5,1,22,23,13.108,0.798,-0.0049,-0.5791,0.1665
-0.407,0.193,-0.201,-65.3,-17.6,-180.2,1023,2018,5,1,22,23,13.128,0.7993,-0.0271,-0.5695,0.1896
-0.368,0.23,-0.247,-57.6,-15.2,-183.5,0,2018,5,1,22,23,13.131,0.7988,-0.0496,-0.5603,0.2129
-0.331,0.273,-0.296,-49.5,-6.6,-183.6,0,2018,5,1,22,23,13.17,0.7966,-0.0711,-0.5514,0.2369
-0.287,0.317,-0.341,-41.5,7.4,-179.2,0,2018,5,1,22,23,13.173,0.793,-0.0904,-0.5426,0.2615
-0.252,0.368,-0.375,-34.4,23.1,-168.9,0,2018,5,1,22,23,13.19,0.7885,-0.1063,-0.5336,0.2864
-0.209,0.41,-0.396,-28.3,37.8,-155,0,2018,5,1,22,23,13.211,0.7836,-0.1185,-0.5246,0.3108
-0.172,0.456,-0.407,-22.9,47.1,-138,0,2018,5,1,22,23,13.23,0.7786,-0.1272,-0.5155,0.3342
-0.103,0.497,-0.414,-17.8,47.6,-118.2,0,2018,5,1,22,23,13.252,0.7738,-0.1334,-0.507,0.3553
-0.041,0.521,-0.429,-12.7,44,-97.5,0,2018,5,1,22,23,13.272,0.7693,-0.1374,-0.4996,0.3735
0.021,0.534,-0.424,-7.5,37.2,-76.3,0,2018,5,1,22,23,13.308,0.7654,-0.1399,-0.4935,0.3884
0.043,0.535,-0.417,-2.2,31.7,-54.4,0,2018,5,1,22,23,13.328,0.7622,-0.1409,-0.4891,0.3998
0.041,0.533,-0.41,2.3,26.8,-31.6,0,2018,5,1,22,23,13.332,0.7598,-0.1405,-0.4862,0.4079
0.042,0.514,-0.393,6.8,24,-8.5,0,2018,5,1,22,23,13.372,0.7586,-0.1383,-0.4846,0.4127
0.025,0.494,-0.388,11.7,23,12.9,0,2018,5,1,22,23,13.391,0.7586,-0.134,-0.4843,0.4145
-0.007,0.486,-0.37,18,18.4,33.9,0,2018,5,1,22,23,13.396,0.7595,-0.128,-0.4854,0.4135
-0.072,0.485,-0.351,25.3,10.3,56.1,0,2018,5,1,22,23,13.409,0.7613,-0.1206,-0.4882,0.4091
-0.187,0.482,-0.339,33.4,-2.1,80.6,0,2018,5,1,22,23,13.45,0.7637,-0.1118,-0.4934,0.4009
-0.301,0.47,-0.314,43.7,-16.6,107.4,0,2018,5,1,22,23,13.468,0.7666,-0.1018,-0.5012,0.3881
-0.383,0.425,-0.261,54.5,-29.8,133.8,0,2018,5,1,22,23,13.472,0.7698,-0.0907,-0.5116,0.3705
-0.404,0.339,-0.18,63.7,-34,158.8,0,2018,5,1,22,23,13.493,0.7731,-0.0778,-0.524,0.3485
-0.384,0.241,-0.054,67.8,-20.7,177.8,0,2018,5,1,22,23,13.515,0.7765,-0.0617,-0.5369,0.3237
-0.326,0.146,0.056,66.1,2.8,187.8,0,2018,5,1,22,23,13.552,0.78,-0.0414,-0.5483,0.2985
-0.231,0.072,0.104,61.2,28.5,188.1,0,2018,5,1,22,23,13.574,0.7833,-0.0174,-0.5573,0.2746
-0.151,0.014,0.116,56.4,47.4,178.9,1023,2018,5,1,22,23,13.578,0.7864,0.0085,-0.5631,0.2534
-0.141,0.022,0.065,53.7,55.4,161.8,1023,2018,5,1,22,23,13.595,0.7884,0.0346,-0.5672,0.2354
-0.209,0.035,0.017,51.7,52,142.5,1023,2018,5,1,22,23,13.611,0.7888,0.0591,-0.5709,0.2197
-0.333,0.071,0.007,50.3,35.6,125.9,1023,2018,5,1,22,23,13.65,0.7879,0.0807,-0.5748,0.2052
-0.421,0.095,0.055,48.7,-2.8,114.9,1023,2018,5,1,22,23,13.67,0.7868,0.097,-0.5791,0.1897
-0.512,0.059,0.119,46.4,-59.5,110.1,1023,2018,5,1,22,23,13.674,0.786,0.1057,-0.5847,0.1702
-0.456,-0.015,0.144,42,-113.7,109.2,1023,2018,5,1,22,23,13.711,0.7862,0.1056,-0.591,0.1457
-0.339,-0.105,0.12,37.8,-168.1,108.5,1023,2018,5,1,22,23,13.731,0.7873,0.0972,-0.5976,0.1158
-0.206,-0.196,0.09,32.5,-198.6,106.1,1023,2018,5,1,22,23,13.735,0.7886,0.0819,-0.6037,0.0822
-0.074,-0.261,0.06,26.9,-209,102,1023,2018,5,1,22,23,13.754,0.7893,0.065,-0.6088,0.0457
0.016,-0.325,0.039,21.1,-195.1,95.4,1023,2018,5,1,22,23,13.793,0.7892,0.0478,-0.6121,0.0101
0.089,-0.388,-0.009,16,-162,89.2,0,2018,5,1,22,23,13.815,0.7884,0.0328,-0.6138,-0.0217
0.121,-0.441,-0.024,11.2,-113.7,83.9,0,2018,5,1,22,23,13.819,0.7871,0.0229,-0.6144,-0.0483
0.151,-0.457,-0.025,7.6,-66.3,80,0,2018,5,1,22,23,13.837,0.7856,0.0192,-0.6145,-0.069
0.139,-0.449,0.007,5.3,-29.1,77,0,2018,5,1,22,23,13.872,0.784,0.0212,-0.6145,-0.0846
0.107,-0.388,0.061,3.7,-14.4,75.3,0,2018,5,1,22,23,13.894,0.7823,0.0266,-0.6145,-0.0971
0.094,-0.357,0.076,2.3,-19.3,74.6,0,2018,5,1,22,23,13.898,0.7808,0.032,-0.6143,-0.1088
0.054,-0.411,0.082,2.6,-34.3,73.1,0,2018,5,1,22,23,13.916,0.7792,0.0362,-0.6137,-0.1219
0.043,-0.479,0.083,2,-41.2,68.3,0,2018,5,1,22,23,13.936,0.7776,0.0382,-0.6127,-0.1356
0.032,-0.531,0.082,2,-41.5,60.4,0,2018,5,1,22,23,13.975,0.776,0.0394,-0.6115,-0.1488
0.012,-0.605,0.092,0.9,-28.9,48.8,0,2018,5,1,22,23,13.994,0.7746,0.0403,-0.6103,-0.1601
0.007,-0.631,0.092,-0.1,-10.7,34.8,0,2018,5,1,22,23,13.998,0.7736,0.0421,-0.6095,-0.1678
0.022,-0.625,0.086,-0.8,3,18.9,0,2018,5,1,22,23,14.018,0.7729,0.0446,-0.6092,-0.1717
0.044,-0.598,0.069,-0.4,6.9,2.2,0,2018,5,1,22,23,14.039,0.7726,0.0465,-0.6092,-0.1724
0.089,-0.565,0.054,0.4,2.6,-14.7,0,2018,5,1,22,23,14.073,0.7727,0.0462,-0.6094,-0.1709
0.121,-0.539,0.048,2.5,-5.2,-30.8,0,2018,5,1,22,23,14.095,0.7733,0.0433,-0.6098,-0.1679
0.053,-0.555,0.068,4,-9,-44.2,0,2018,5,1,22,23,14.099,0.7741,0.0381,-0.6103,-0.1636
-0.074,-0.598,0.092,3.6,3.5,-53.4,0,2018,5,1,22,23,14.115,0.7751,0.0322,-0.611,-0.1574
-0.234,-0.612,0.132,-0.7,23.9,-59.5,0,2018,5,1,22,23,14.135,0.7763,0.028,-0.6119,-0.1482
-0.322,-0.583,0.135,-7,40,-64.7,0,2018,5,1,22,23,14.155,0.7782,0.0259,-0.6124,-0.1362
-0.302,-0.513,0.104,-13.3,52.8,-72.5,0,2018,5,1,22,23,14.194,0.7806,0.0253,-0.6124,-0.1217
-0.176,-0.429,0.07,-16.6,50.4,-86.9,0,2018,5,1,22,23,14.214,0.7836,0.0243,-0.6117,-0.1051
-0.06,-0.36,0.044,-16.5,41.1,-107,0,2018,5,1,22,23,14.219,0.7868,0.0203,-0.6106,-0.0868
-0.049,-0.312,0.023,-15.4,37.3,-128.2,0,2018,5,1,22,23,14.24,0.79,0.0131,-0.6092,-0.0664
-0.16,-0.28,0.014,-15.2,44.3,-145.8,1023,2018,5,1,22,23,14.258,0.7928,0.0038,-0.6078,-0.043
-0.321,-0.246,0.007,-16.3,62.6,-157.1,1023,2018,5,1,22,23,14.296,0.7953,-0.0048,-0.6059,-0.0162
-0.508,-0.202,-0.003,-19,83.1,-161.9,1023,2018,5,1,22,23,14.317,0.7973,-0.0118,-0.6032,0.0137
-0.565,-0.123,-0.007,-23.7,100.9,-162,1023,2018,5,1,22,23,14.321,0.7984,-0.0174,-0.5999,0.0469
-0.561,-0.016,-0.013,-28.5,99.2,-159.3,1023,2018,5,1,22,23,14.335,0.7991,-0.0214,-0.5954,0.0803
-0.506,0.067,-0.056,-33.5,87.3,-156.4,1023,2018,5,1,22,23,14.371,0.8,-0.0257,-0.5888,0.1119
-0.411,0.165,-0.111,-36.7,62.9,-153.2,1023,2018,5,1,22,23,14.39,0.8006,-0.0319,-0.5813,0.1411
-0.3,0.221,-0.162,-36.1,30,-150.5,0,2018,5,1,22,23,14.398,0.8005,-0.0422,-0.574,0.1668
-0.205,0.245,-0.211,-33.1,3.6,-148.3,0,2018,5,1,22,23,14.438,0.7994,-0.0561,-0.5674,0.1889
-0.122,0.264,-0.265,-29,-13.1,-145.7,0,2018,5,1,22,23,14.458,0.7973,-0.0726,-0.5616,0.2084
-0.06,0.302,-0.311,-23,-19.6,-141.3,0,2018,5,1,22,23,14.462,0.7941,-0.0901,-0.5566,0.2264
-0.006,0.319,-0.344,-15.9,-16,-133.1,0,2018,5,1,22,23,14.481,0.79,-0.1069,-0.5524,0.2432
0.015,0.344,-0.36,-9,-4.8,-122.8,0,2018,5,1,22,23,14.5,0.7854,-0.1214,-0.5485,0.2596
0.041,0.381,-0.362,-2.9,7.9,-109,0,2018,5,1,22,23,14.539,0.7806,-0.1324,-0.5451,0.2755
0.053,0.415,-0.371,2.9,17.6,-92.6,0,2018,5,1,22,23,14.558,0.7759,-0.1403,-0.542,0.2904
0.066,0.444,-0.388,8.5,23.6,-74.1,0,2018,5,1,22,23,14.562,0.7716,-0.1451,-0.5396,0.3038
0.082,0.477,-0.4,15.4,23.4,-52.8,0,2018,5,1,22,23,14.577,0.7676,-0.1471,-0.5383,0.3149
0.102,0.483,-0.415,23.1,19.2,-29.6,0,2018,5,1,22,23,14.616,0.7641,-0.1471,-0.5386,0.3228
0.113,0.475,-0.415,31.4,16,-5.5,0,2018,5,1,22,23,14.635,0.761,-0.145,-0.5408,0.3274
0.126,0.432,-0.426,43,16.2,17.5,0,2018,5,1,22,23,14.64,0.7583,-0.1403,-0.545,0.3289
0.141,0.388,-0.401,58,28.7,38.3,0,2018,5,1,22,23,14.678,0.7556,-0.1319,-0.551,0.3284
0.073,0.332,-0.321,71.9,51.7,58.9,0,2018,5,1,22,23,14.7,0.7529,-0.1183,-0.5585,0.3273
-0.045,0.267,-0.228,81.7,85.3,78.9,0,2018,5,1,22,23,14.704,0.7506,-0.0981,-0.566,0.3263
-0.183,0.208,-0.137,88.9,124.5,97,0,2018,5,1,22,23,14.722,0.7487,-0.0707,-0.5724,0.3266
-0.242,0.117,-0.045,94.6,162.8,109.5,0,2018,5,1,22,23,14.741,0.7467,-0.0363,-0.5771,0.3284
-0.229,0.056,0.04,99.2,201.2,114.6,0,2018,5,1,22,23,14.78,0.744,0.0041,-0.5795,0.3325
-0.233,0.079,0.102,101.8,227.7,114.1,0,2018,5,1,22,23,14.784,0.7399,0.05,-0.5788,0.339
-0.265,0.116,0.127,105.7,231.2,109.6,0,2018,5,1,22,23,14.802,0.7333,0.0972,-0.5766,0.3466
-0.244,0.106,0.152,108.4,222.2,103,0,2018,5,1,22,23,14.821,0.7243,0.1431,-0.5741,0.3537
-0.185,0.102,0.168,111.5,202.4,92.1,0,2018,5,1,22,23,14.842,0.7132,0.1864,-0.5719,0.3595
-0.142,0.07,0.215,111.1,180.1,81.6,0,2018,5,1,22,23,14.86,0.7008,0.2254,-0.5706,0.3638
-0.144,-0.01,0.244,106.3,170.9,72.8,1023,2018,5,1,22,23,14.899,0.6878,0.2608,-0.5689,0.3675
-0.162,-0.07,0.282,99,164,64.2,1023,2018,5,1,22,23,14.919,0.6747,0.2934,-0.566,0.3717
-0.157,-0.143,0.337,90,162.5,55.9,1023,2018,5,1,22,23,14.923,0.6606,0.3242,-0.5632,0.3757
-0.117,-0.165,0.402,80.2,162.6,48.8,1023,2018,5,1,22,23,14.943,0.6461,0.3534,-0.559,0.3807
-0.096,-0.201,0.433,70.6,157.2,39.7,1023,2018,5,1,22,23,14.963,0.6316,0.3804,-0.5538,0.3865
-0.04,-0.251,0.435,62,150.1,28.3,1023,2018,5,1,22,23,14.983,0.6171,0.4049,-0.5483,0.393
0,-0.314,0.411,55.8,149.4,16.4,1023,2018,5,1,22,23,15.003,0.6021,0.427,-0.5426,0.4006
0.023,-0.407,0.407,50.3,159,7.6,1023,2018,5,1,22,23,15.043,0.5862,0.4477,-0.5364,0.4098
0.058,-0.502,0.433,41.8,183.7,-0.8,1023,2018,5,1,22,23,15.063,0.5685,0.4685,-0.5284,0.4217
0.109,-0.516,0.422,31.8,208.5,-7.5,0,2018,5,1,22,23,15.067,0.5482,0.4902,-0.5175,0.4372
0.145,-0.503,0.391,20.9,215.7,-13,0,2018,5,1,22,23,15.083,0.5264,0.5113,-0.5043,0.4549
0.185,-0.497,0.381,7.8,214.2,-18.1,0,2018,5,1,22,23,15.103,0.5043,0.5304,-0.4895,0.4738
0.159,-0.487,0.363,-6.2,203.1,-21.1,0,2018,5,1,22,23,15.122,0.4831,0.5467,-0.4738,0.4931
0.1,-0.511,0.275,-21.1,183.3,-22.4,0,2018,5,1,22,23,15.159,0.4637,0.5595,-0.4578,0.512
0.053,-0.542,0.161,-34.8,163.2,-25,0,2018,5,1,22,23,15.179,0.4468,0.5687,-0.4421,0.5303
0.018,-0.539,0.051,-44.3,138.3,-29,0,2018,5,1,22,23,15.183,0.4323,0.5745,-0.4275,0.5479
-0.022,-0.574,-0.078,-50.3,109.2,-36.5,0,2018,5,1,22,23,15.223,0.4203,0.5766,-0.4154,0.5641
-0.072,-0.677,-0.191,-54.8,105.4,-51.4,0,2018,5,1,22,23,15.242,0.4092,0.5757,-0.4053,0.5802
-0.098,-0.641,-0.263,-55.2,101.4,-73.5,0,2018,5,1,22,23,15.246,0.3963,0.5729,-0.397,0.5975
-0.164,-0.563,-0.326,-52,91.1,-93.6,0,2018,5,1,22,23,15.263,0.3818,0.5677,-0.3915,0.6152
-0.188,-0.526,-0.353,-46.2,79.7,-111.7,0,2018,5,1,22,23,15.284,0.3657,0.5608,-0.3892,0.6326
-0.24,-0.55,-0.454,-38.4,67.6,-128.3,0,2018,5,1,22,23,15.304,0.3483,0.5522,-0.3901,0.6492
-0.312,-0.605,-0.501,-27.4,74.5,-147.5,0,2018,5,1,22,23,15.343,0.3282,0.543,-0.3932,0.6653
-0.253,-0.551,-0.444,-16.6,79.8,-165.5,0,2018,5,1,22,23,15.362,0.304,0.5338,-0.3976,0.6814
-0.235,-0.463,-0.37,-9.5,83.3,-179.6,0,2018,5,1,22,23,15.366,0.2765,0.5243,-0.4031,0.6971
-0.298,-0.424,-0.313,-7.2,79.1,-190.5,0,2018,5,1,22,23,15.386,0.247,0.5138,-0.4095,0.7121
-0.399,-0.37,-0.288,-7.9,72.1,-196,0,2018,5,1,22,23,15.406,0.2165,0.5019,-0.4169,0.7261
-0.498,-0.364,-0.292,-10.7,74.4,-197.8,0,2018,5,1,22,23,15.444,0.1856,0.4888,-0.4244,0.7391
-0.585,-0.307,-0.319,-12.4,77.9,-197.4,0,2018,5,1,22,23,15.449,0.1539,0.475,-0.4307,0.7517
-0.648,-0.215,-0.303,-11.7,69.3,-195.8,0,2018,5,1,22,23,15.468,0.1227,0.4603,-0.4367,0.763
-0.632,-0.065,-0.253,-10.1,51.5,-193.9,0,2018,5,1,22,23,15.481,0.0925,0.445,-0.4438,0.7722
-0.559,0.068,-0.225,-6,22.2,-194,0,2018,5,1,22,23,15.519,0.0639,0.4293,-0.4535,0.7783
-0.455,0.148,-0.228,1.2,-9.3,-194.5,0,2018,5,1,22,23,15.538,0.0369,0.4135,-0.4673,0.7805
-0.337,0.245,-0.233,10.8,-34.2,-194.1,0,2018,5,1,22,23,15.543,0.0112,0.3982,-0.4843,0.7788
-0.227,0.325,-0.253,21.5,-51.8,-189.2,1023,2018,5,1,22,23,15.579,-0.0131,0.3838,-0.5035,0.7738
-0.122,0.398,-0.274,32.8,-51.6,-180,1023,2018,5,1,22,23,15.601,-0.037,0.3712,-0.5227,0.7664
-0.051,0.461,-0.284,42.8,-36.2,-165.2,1023,2018,5,1,22,23,15.605,-0.0607,0.3606,-0.5394,0.7584
-0.017,0.507,-0.271,49.9,-9.9,-145.5,1023,2018,5,1,22,23,15.647,-0.084,0.3522,-0.5514,0.7514
0.001,0.546,-0.273,53.9,16.6,-120.9,1023,2018,5,1,22,23,15.667,-0.1067,0.3461,-0.5581,0.7464
-0.011,0.566,-0.264,56.2,41.4,-94,1023,2018,5,1,22,23,15.671,-0.1278,0.3422,-0.5595,0.7439
-0.024,0.605,-0.256,58.4,54.3,-66.5,1023,2018,5,1,22,23,15.688,-0.1465,0.3407,-0.5564,0.7435
-0.046,0.624,-0.242,60,57.2,-38.5,0,2018,5,1,22,23,15.708,-0.1621,0.3418,-0.5504,0.7442
-0.065,0.62,-0.219,60.3,56.8,-10.8,0,2018,5,1,22,23,15.744,-0.174,0.3456,-0.5425,0.7455
-0.08,0.628,-0.198,59.2,56.2,14.6,0,2018,5,1,22,23,15.763,-0.1826,0.3518,-0.533,0.7474
-0.083,0.6,-0.18,57.8,56.2,37.2,0,2018,5,1,22,23,15.768,-0.1878,0.36,-0.522,0.7499
-0.091,0.577,-0.163,57.2,60.8,58.3,0,2018,5,1,22,23,15.786,-0.1903,0.3699,-0.5093,0.7532
-0.094,0.564,-0.136,56.7,61.4,75.8,0,2018,5,1,22,23,15.808,-0.1901,0.3813,-0.4948,0.7573
-0.103,0.554,-0.107,57.5,57.4,90.9,0,2018,5,1,22,23,15.828,-0.1877,0.3939,-0.4792,0.7614
-0.125,0.522,-0.057,58.9,55.8,104.8,0,2018,5,1,22,23,15.847,-0.183,0.4079,-0.4628,0.7653
-0.179,0.462,-0.004,59.1,64.3,117.5,0,2018,5,1,22,23,15.868,-0.1767,0.4228,-0.4448,0.7694
-0.252,0.413,0.052,58.8,85.4,126.3,0,2018,5,1,22,23,15.887,-0.1701,0.4376,-0.4236,0.7745
-0.328,0.419,0.058,59.4,100.7,136.1,0,2018,5,1,22,23,15.926,-0.1637,0.4523,-0.3988,0.7807
-0.472,0.38,0.073,61.1,107.2,149.1,0,2018,5,1,22,23,15.945,-0.1562,0.4671,-0.3713,0.787
-0.623,0.365,0.12,61.8,111,162.6,0,2018,5,1,22,23,15.949,-0.1472,0.4824,-0.3414,0.793
-0.708,0.349,0.147,64.2,101,173.2,0,2018,5,1,22,23,15.968,-0.1363,0.498,-0.3104,0.7981
-0.684,0.301,0.176,67,82,176.4,0,2018,5,1,22,23,15.986,-0.1228,0.5141,-0.2805,0.8011
-0.529,0.285,0.19,68.8,59.4,173,0,2018,5,1,22,23,16.008,-0.1076,0.5303,-0.2532,0.8018
-0.44,0.172,0.197,67.9,47.5,161,0,2018,5,1,22,23,16.027,-0.0916,0.546,-0.229,0.8005
-0.41,0.121,0.187,66.7,48.9,141,0,2018,5,1,22,23,16.068,-0.0776,0.5604,-0.2067,0.7981
-0.379,0.071,0.186,65.3,53.4,119.9,0,2018,5,1,22,23,16.089,-0.0666,0.5734,-0.1858,0.7951
-0.297,0.053,0.196,65.1,51.8,101.8,0,2018,5,1,22,23,16.093,-0.0585,0.5852,-0.1665,0.7914
-0.229,0.021,0.204,64,47.8,87.7,0,2018,5,1,22,23,16.111,-0.0521,0.5962,-0.1492,0.7871
-0.167,0.023,0.235,62.1,39.8,78.6,0,2018,5,1,22,23,16.132,-0.0466,0.6064,-0.1338,0.7823
-0.093,0.015,0.246,59.7,23.7,74.3,0,2018,5,1,22,23,16.151,-0.0406,0.6161,-0.1208,0.7772
-0.037,-0.05,0.241,57.2,8.8,72.1,0,2018,5,1,22,23,16.168,-0.0333,0.6254,-0.1104,0.7717
0.009,-0.131,0.238,53.8,4.8,69.6,0,2018,5,1,22,23,16.206,-0.0251,0.6341,-0.1014,0.7661
0.064,-0.207,0.24,49.3,11.9,65.7,1023,2018,5,1,22,23,16.225,-0.0176,0.6421,-0.0926,0.7607
0.086,-0.25,0.253,43.8,28.1,60.2,1023,2018,5,1,22,23,16.229,-0.0119,0.6492,-0.0827,0.7559
0.108,-0.199,0.266,37,40.8,55.4,1023,2018,5,1,22,23,16.267,-0.0087,0.6551,-0.0712,0.752
0.128,-0.201,0.258,31.2,33.4,52.2,1023,2018,5,1,22,23,16.287,-0.0062,0.6602,-0.06,0.7486
0.153,-0.239,0.261,26.6,24.1,48,1023,2018,5,1,22,23,16.291,-0.0029,0.6643,-0.0503,0.7456
0.16,-0.268,0.277,22,13.4,42.7,1023,2018,5,1,22,23,16.31,0.0006,0.6679,-0.0427,0.743
0.181,-0.299,0.264,17.1,6.8,35.8,1023,2018,5,1,22,23,16.331,0.0048,0.6706,-0.0368,0.7408
0.174,-0.339,0.263,12,7.1,28.5,1023,2018,5,1,22,23,16.351,0.0082,0.6727,-0.0322,0.7391
0.176,-0.369,0.267,6.5,9.7,20.9,1023,2018,5,1,22,23,16.389,0.0105,0.674,-0.0282,0.738
0.185,-0.398,0.262,1,11.9,11.6,0,2018,5,1,22,23,16.41,0.0114,0.6746,-0.0249,0.7376
0.183,-0.401,0.255,-4.9,15.6,1.1,0,2018,5,1,22,23,16.414,0.0106,0.6744,-0.0223,0.7379
0.142,-0.404,0.252,-10.5,15.8,-10.7,0,2018,5,1,22,23,16.433,0.0082,0.6734,-0.0208,0.7389
0.058,-0.405,0.234,-16.1,15.7,-22.7,0,2018,5,1,22,23,16.454,0.0044,0.6716,-0.0207,0.7405
-0.048,-0.388,0.227,-21.2,10.4,-34.1,0,2018,5,1,22,23,16.47,-0.0006,0.669,-0.0223,0.7428
-0.21,-0.383,0.23,-26.1,5.8,-43.7,0,2018,5,1,22,23,16.509,-0.0065,0.6658,-0.0259,0.7456
-0.348,-0.386,0.249,-31.8,5.4,-50.7,0,2018,5,1,22,23,16.528,-0.0129,0.6617,-0.0307,0.7489
-0.349,-0.398,0.245,-37.4,10.4,-59.1,0,2018,5,1,22,23,16.533,-0.0207,0.6568,-0.0361,0.7528
-0.264,-0.369,0.192,-41.4,14.5,-71.3,0,2018,5,1,22,23,16.571,-0.03,0.6511,-0.0419,0.7572
-0.128,-0.298,0.14,-43.8,12.7,-90.2,0,2018,5,1,22,23,16.593,-0.0418,0.6446,-0.0493,0.7617
-0.036,-0.244,0.106,-45.7,7.2,-111.9,0,2018,5,1,22,23,16.597,-0.0559,0.6376,-0.0597,0.7659
-0.049,-0.191,0.095,-47,5.3,-132.2,0,2018,5,1,22,23,16.614,-0.0722,0.6298,-0.073,0.7698
-0.156,-0.155,0.078,-48.5,11.4,-146.4,0,2018,5,1,22,23,16.635,-0.0909,0.6212,-0.0879,0.7733
-0.3,-0.105,0.044,-50.1,23.2,-152.2,0,2018,5,1,22,23,16.655,-0.1117,0.6117,-0.1024,0.7763
-0.441,-0.063,0.008,-51.8,43,-148.9,0,2018,5,1,22,23,16.671,-0.1339,0.6017,-0.1144,0.7789
-0.516,-0.008,-0.04,-53.8,64.5,-138.7,0,2018,5,1,22,23,16.709,-0.157,0.5908,-0.1225,0.7817
-0.51,0.05,-0.083,-56.3,76.7,-127.1,0,2018,5,1,22,23,16.729,-0.1809,0.5783,-0.1276,0.7851
-0.439,0.147,-0.128,-57.6,67.8,-118.1,0,2018,5,1,22,23,16.733,-0.2033,0.5652,-0.1314,0.7885
-0.397,0.214,-0.164,-56.8,44.2,-112.1,0,2018,5,1,22,23,16.771,-0.2226,0.5526,-0.1368,0.7913
-0.298,0.255,-0.196,-54.5,15.5,-110,0,2018,5,1,22,23,16.776,-0.2389,0.541,-0.1454,0.7931
-0.235,0.256,-0.235,-50.6,-5.1,-109.4,0,2018,5,1,22,23,16.793,-0.2526,0.5307,-0.1573,0.7935
-0.18,0.267,-0.276,-46.2,-14.1,-110.7,0,2018,5,1,22,23,16.831,-0.2652,0.5214,-0.1709,0.7928
-0.145,0.278,-0.303,-40.7,-13.4,-111.7,0,2018,5,1,22,23,16.851,-0.2775,0.5127,-0.1849,0.7911
-0.13,0.308,-0.332,-35.2,-3.8,-110.7,0,2018,5,1,22,23,16.855,-0.2903,0.5042,-0.1977,0.7888
-0.123,0.343,-0.34,-30.5,8.4,-107.2,0,2018,5,1,22,23,16.872,-0.3041,0.4957,-0.2084,0.7863
-0.131,0.377,-0.333,-26,18.3,-100.4,1023,2018,5,1,22,23,16.892,-0.318,0.4873,-0.2168,0.7838
-0.147,0.408,-0.335,-22.6,26.6,-91.7,1023,2018,5,1,22,23,16.914,-0.3317,0.479,-0.223,0.7814
-0.157,0.446,-0.337,-19.7,29.7,-81.2,1023,2018,5,1,22,23,16.934,-0.3447,0.4711,-0.2274,0.7794
-0.147,0.474,-0.347,-16.9,25.8,-69.8,1023,2018,5,1,22,23,16.973,-0.3562,0.4639,-0.2307,0.7775
-0.138,0.491,-0.35,-12.8,17.6,-56.9,1023,2018,5,1,22,23,16.992,-0.3655,0.458,-0.2336,0.7758
-0.137,0.507,-0.356,-7.6,9.4,-42.4,1023,2018,5,1,22,23,16.996,-0.3724,0.4538,-0.2363,0.7742
-0.146,0.502,-0.33,-2.4,4.7,-27.2,1023,2018,5,1,22,23,17.035,-0.3771,0.4513,-0.2383,0.7727
-0.166,0.503,-0.311,2.5,0.6,-12,1023,2018,5,1,22,23,17.054,-0.3797,0.4504,-0.2393,0.7717
-0.181,0.5,-0.285,8.3,-3,3.7,1023,2018,5,1,22,23,17.059,-0.3801,0.4511,-0.2394,0.771
-0.202,0.5,-0.244,15,-6.5,19.4,1023,2018,5,1,22,23,17.077,-0.3783,0.4536,-0.2382,0.7709
-0.209,0.493,-0.189,21.2,-9.3,35,0,2018,5,1,22,23,17.115,-0.3744,0.4578,-0.2358,0.771
-0.218,0.498,-0.141,25.6,-10.2,49.2,0,2018,5,1,22,23,17.135,-0.3687,0.4634,-0.232,0.7716
-0.237,0.51,-0.147,30.5,-16.5,64.8,0,2018,5,1,22,23,17.139,-0.3607,0.4703,-0.2272,0.7726
-0.287,0.481,-0.157,36.7,-21.2,82.2,0,2018,5,1,22,23,17.154,-0.3501,0.479,-0.2216,0.7737
-0.325,0.43,-0.11,42,-14.4,99.1,0,2018,5,1,22,23,17.175,-0.3376,0.489,-0.214,0.7752
-0.32,0.404,-0.051,45.2,-4.6,113.6,0,2018,5,1,22,23,17.194,-0.3238,0.4994,-0.2035,0.7773
-0.293,0.383,0,45.3,4.7,123.6,0,2018,5,1,22,23,17.233,-0.3092,0.5096,-0.1903,0.7799
-0.229,0.374,0.003,44.3,4.5,129.9,0,2018,5,1,22,23,17.253,-0.2937,0.5195,-0.1758,0.7828
-0.21,0.33,0.008,42.9,0.4,133.2,0,2018,5,1,22,23,17.257,-0.2772,0.5293,-0.1612,0.7854
-0.265,0.299,0.009,41.2,-5.2,135.7,0,2018,5,1,22,23,17.277,-0.2596,0.5388,-0.147,0.7877
-0.346,0.268,0.005,39.3,-13.9,136.9,0,2018,5,1,22,23,17.299,-0.2411,0.548,-0.1336,0.7896
-0.378,0.232,0.009,38,-27,137.7,0,2018,5,1,22,23,17.318,-0.2211,0.5572,-0.1217,0.791
-0.336,0.18,0.036,36.5,-45.7,137.3,0,2018,5,1,22,23,17.338,-0.1995,0.5664,-0.1119,0.7916
-0.288,0.129,0.033,35.6,-67.3,135.1,0,2018,5,1,22,23,17.357,-0.1761,0.5758,-0.1051,0.7914
-0.261,0.078,0.025,34.6,-88.7,131.6,0,2018,5,1,22,23,17.375,-0.1505,0.5854,-0.1013,0.7901
-0.204,0.005,0.042,32.5,-102.4,126.5,0,2018,5,1,22,23,17.396,-0.1228,0.595,-0.0996,0.7879
-0.124,-0.061,0.052,28.7,-106.4,119.4,0,2018,5,1,22,23,17.433,-0.0955,0.6035,-0.1003,0.7851
-0.09,-0.109,0.035,24.2,-102.9,111.1,0,2018,5,1,22,23,17.454,-0.0695,0.6106,-0.1022,0.7821
-0.037,-0.134,0.01,19.7,-98.2,102.8,0,2018,5,1,22,23,17.459,-0.045,0.6166,-0.1047,0.7789
-0.013,-0.165,0.007,15.6,-92.3,94.8,0,2018,5,1,22,23,17.478,-0.0224,0.6213,-0.1076,0.7757
-0.005,-0.171,0.031,11.4,-91.6,87.5,0,2018,5,1,22,23,17.498,-0.0009,0.625,-0.1105,0.7727
0.028,-0.145,0.043,7.1,-102.1,81,0,2018,5,1,22,23,17.518,0.0206,0.6277,-0.1142,0.7697
0.067,-0.169,0.024,4.3,-121.3,76.1,0,2018,5,1,22,23,17.537,0.0431,0.6294,-0.1207,0.7663
0.072,-0.22,0.02,2.5,-138.8,71.6,0,2018,5,1,22,23,17.578,0.0673,0.6302,-0.1302,0.7624
0.082,-0.269,0.034,0,-145.7,65.4,1023,2018,5,1,22,23,17.582,0.0921,0.63,-0.1417,0.7579
0.101,-0.306,0.033,-2.5,-144.6,57.8,1023,2018,5,1,22,23,17.598,0.1163,0.6288,-0.1541,0.7531
0.122,-0.326,0.017,-3.7,-139.6,48.9,1023,2018,5,1,22,23,17.618,0.1389,0.6267,-0.1668,0.7483
0.099,-0.346,0.005,-3.4,-132,39.8,1023,2018,5,1,22,23,17.639,0.1596,0.624,-0.1796,0.7434
0.051,-0.372,0.024,-2.8,-120.7,31,1023,2018,5,1,22,23,17.675,0.178,0.621,-0.192,0.7386
-0.065,-0.379,0.046,-2.7,-107.5,24.4,1023,2018,5,1,22,23,17.696,0.1939,0.6179,-0.2036,0.7341
-0.17,-0.402,0.079,-2.8,-94.2,20,1023,2018,5,1,22,23,17.7,0.2077,0.6149,-0.214,0.7299
-0.166,-0.392,0.121,-4,-82.3,14.9,1023,2018,5,1,22,23,17.722,0.2194,0.6118,-0.2231,0.7263
-0.069,-0.391,0.119,-5,-77.2,4.9,1023,2018,5,1,22,23,17.741,0.2294,0.6085,-0.2318,0.7233
0.054,-0.371,0.115,-4.8,-76.9,-11.9,1023,2018,5,1,22,23,17.784,0.2373,0.6046,-0.2417,0.7208
0.151,-0.344,0.133,-3.9,-75.5,-33,0,2018,5,1,22,23,17.786,0.2426,0.5999,-0.2535,0.7189
0.176,-0.329,0.154,-3.3,-69.1,-53.8,0,2018,5,1,22,23,17.801,0.2448,0.5943,-0.2671,0.7179
0.09,-0.33,0.19,-5.6,-51.2,-70.5,0,2018,5,1,22,23,17.836,0.2434,0.5881,-0.2811,0.7181
-0.074,-0.296,0.226,-11,-27.4,-82.2,0,2018,5,1,22,23,17.856,0.2381,0.5816,-0.2935,0.7202
-0.264,-0.264,0.247,-18.7,-2.5,-88.3,0,2018,5,1,22,23,17.858,0.2295,0.5746,-0.3034,0.7245
-0.4,-0.189,0.277,-27.3,17.4,-93,0,2018,5,1,22,23,17.895,0.2183,0.5672,-0.3104,0.7309
-0.401,-0.062,0.264,-34.6,16.4,-97.4,0,2018,5,1,22,23,17.915,0.2063,0.5579,-0.3155,0.7392
-0.355,0.045,0.244,-39.1,-7.3,-105.5,0,2018,5,1,22,23,17.919,0.1949,0.5474,-0.323,0.7469
-0.308,0.106,0.226,-41.1,-38.1,-117.5,0,2018,5,1,22,23,17.94,0.1849,0.5349,-0.3352,0.7531
-0.291,0.151,0.207,-41.5,-63.8,-132.2,0,2018,5,1,22,23,17.96,0.1757,0.5203,-0.3523,0.7577
-0.289,0.181,0.188,-41.5,-77.4,-148.1,0,2018,5,1,22,23,17.995,0.1661,0.5037,-0.3732,0.7611
-0.303,0.215,0.168,-41.8,-74.2,-161.4,0,2018,5,1,22,23,18.014,0.1549,0.4855,-0.3957,0.7639
-0.32,0.266,0.142,-42.3,-58.4,-169.6,0,2018,5,1,22,23,18.025,0.1412,0.4663,-0.4174,0.767
-0.314,0.339,0.13,-44.3,-37.6,-171.6,0,2018,5,1,22,23,18.046,0.1252,0.4466,-0.4364,0.7709
-0.282,0.419,0.108,-47.9,-19.6,-165.7,0,2018,5,1,22,23,18.066,0.1081,0.4267,-0.4521,0.7757
-0.242,0.503,0.079,-52.1,-7.9,-152.5,0,2018,5,1,22,23,18.081,0.0914,0.4069,-0.4646,0.7811
-0.184,0.569,0.052,-56.7,-5.1,-132.1,0,2018,5,1,22,23,18.118,0.0768,0.3876,-0.4745,0.7865
-0.129,0.619,0.025,-60.1,-9.1,-106.6,0,2018,5,1,22,23,18.14,0.0657,0.3695,-0.4826,0.7913
-0.083,0.652,-0.011,-63.4,-17.4,-77.4,0,2018,5,1,22,23,18.144,0.0591,0.353,-0.4895,0.795
-0.047,0.665,-0.04,-66.2,-27,-47.1,0,2018,5,1,22,23,18.161,0.0575,0.3385,-0.4957,0.7976
-0.02,0.671,-0.064,-68.8,-35.7,-17.1,0,2018,5,1,22,23,18.199,0.0609,0.326,-0.5012,0.7991
-0.006,0.667,-0.087,-71.9,-42.4,10.5,0,2018,5,1,22,23,18.219,0.0689,0.3155,-0.5061,0.7996
-0.014,0.66,-0.11,-75.9,-46,36.6,0,2018,5,1,22,23,18.223,0.0813,0.3068,-0.51,0.7994
-0.039,0.651,-0.122,-81.3,-49.8,61.1,0,2018,5,1,22,23,18.244,0.0978,0.2995,-0.5129,0.7985
-0.087,0.637,-0.143,-87.5,-58.8,85.5,1023,2018,5,1,22,23,18.263,0.1184,0.2933,-0.515,0.7966
-0.148,0.632,-0.168,-94.2,-77.8,111.4,1023,2018,5,1,22,23,18.303,0.1438,0.2881,-0.5173,0.7928
-0.228,0.636,-0.2,-101.5,-112.4,139.4,1023,2018,5,1,22,23,18.307,0.1748,0.2834,-0.5213,0.7856
-0.311,0.609,-0.239,-109.3,-157.7,167.1,1023,2018,5,1,22,23,18.321,0.2121,0.2785,-0.5286,0.7732
-0.374,0.572,-0.284,-116.5,-209,190.8,1023,2018,5,1,22,23,18.362,0.2555,0.2727,-0.5399,0.7541
-0.437,0.51,-0.325,-123.5,-263.8,207.4,1023,2018,5,1,22,23,18.366,0.304,0.2647,-0.5553,0.7273
-0.495,0.437,-0.375,-129.5,-312,216.6,1023,2018,5,1,22,23,18.382,0.356,0.2534,-0.5743,0.6922
-0.536,0.351,-0.411,-133.5,-342.6,219.5,1023,2018,5,1,22,23,18.404,0.4092,0.2383,-0.5946,0.6496
-0.541,0.232,-0.397,-135.3,-344.7,215.8,1023,2018,5,1,22,23,18.425,0.461,0.2203,-0.6134,0.602
-0.561,0.122,-0.322,-136.9,-316.4,208,1023,2018,5,1,22,23,18.446,0.5093,0.2016,-0.6275,0.5531
-0.573,0.068,-0.25,-141.3,-272.1,198.7,1023,2018,5,1,22,23,18.467,0.5533,0.184,-0.6349,0.5067
-0.541,0.089,-0.293,-143.1,-231.5,189.8,1023,2018,5,1,22,23,18.504,0.5932,0.1685,-0.6358,0.464
-0.48,0.099,-0.392,-137,-200.9,182.5,1023,2018,5,1,22,23,18.525,0.6292,0.1554,-0.6322,0.4243
-0.422,0.061,-0.451,-125.5,-178.2,174.8,1023,2018,5,1,22,23,18.529,0.6612,0.1445,-0.6261,0.387
-0.382,0.018,-0.464,-112.9,-164.6,166.3,1023,2018,5,1,22,23,18.566,0.6892,0.1354,-0.6189,0.3514
-0.36,-0.008,-0.477,-101.9,-158.8,158.5,0,2018,5,1,22,23,18.586,0.7138,0.1268,-0.6115,0.3167
-0.331,-0.036,-0.518,-92.6,-157.4,152.1,0,2018,5,1,22,23,18.59,0.7356,0.1182,-0.6041,0.2824
-0.286,-0.082,-0.554,-83.3,-155.7,147.1,0,2018,5,1,22,23,18.604,0.7548,0.1094,-0.597,0.2483
-0.258,-0.13,-0.571,-74.6,-152.8,143.3,0,2018,5,1,22,23,18.641,0.7717,0.1007,-0.5901,0.2144
-0.227,-0.167,-0.604,-65.9,-147.7,141.2,0,2018,5,1,22,23,18.663,0.7863,0.0924,-0.5834,0.1809
-0.194,-0.215,-0.606,-56.9,-139.9,139.9,0,2018,5,1,22,23,18.667,0.7987,0.085,-0.5769,0.1479
-0.184,-0.262,-0.606,-48.2,-130.6,139.9,0,2018,5,1,22,23,18.686,0.8091,0.0789,-0.5706,0.1155
-0.167,-0.322,-0.581,-39.2,-120.7,139.6,0,2018,5,1,22,23,18.706,0.8175,0.0742,-0.5647,0.0838
-0.139,-0.366,-0.569,-28.9,-114.1,138.4,0,2018,5,1,22,23,18.746,0.824,0.0707,-0.5595,0.0528
-0.127,-0.426,-0.542,-18.6,-108.4,136,0,2018,5,1,22,23,18.767,0.8286,0.0678,-0.5552,0.0224
-0.114,-0.485,-0.484,-9.2,-101,131.7,0,2018,5,1,22,23,18.771,0.8313,0.0656,-0.5518,-0.0068
-0.114,-0.516,-0.448,-1.8,-100.3,126.2,0,2018,5,1,22,23,18.788,0.8324,0.0635,-0.5492,-0.0351
-0.093,-0.565,-0.432,6,-103.7,118.8,0,2018,5,1,22,23,18.807,0.8323,0.0604,-0.5473,-0.0627
-0.079,-0.626,-0.383,14,-104.1,109.9,0,2018,5,1,22,23,18.826,0.8308,0.056,-0.5463,-0.0893
-0.054,-0.635,-0.374,22.2,-108.2,98.3,0,2018,5,1,22,23,18.847,0.8283,0.0503,-0.5461,-0.1146
-0.031,-0.714,-0.349,32,-107.2,86.7,0,2018,5,1,22,23,18.866,0.8245,0.0427,-0.5468,-0.1386
-0.026,-0.782,-0.28,40.8,-88.4,71.7,0,2018,5,1,22,23,18.905,0.8196,0.0354,-0.549,-0.1596
0,-0.808,-0.204,48.3,-66.1,56,0,2018,5,1,22,23,18.925,0.8139,0.0297,-0.5527,-0.1765
-0.013,-0.818,-0.125,53.3,-40.9,40,0,2018,5,1,22,23,18.929,0.8077,0.0254,-0.558,-0.1886
-0.027,-0.853,-0.053,57,-12.6,24.8,0,2018,5,1,22,23,18.968,0.8012,0.0229,-0.5647,-0.1959
-0.081,-0.892,0.053,57.9,20.7,8.4,0,2018,5,1,22,23,18.988,0.7949,0.0232,-0.5729,-0.198
-0.129,-0.844,0.152,55,46.4,-11.7,1023,2018,5,1,22,23,18.992,0.7891,0.0261,-0.582,-0.1944
-0.118,-0.74,0.21,50.8,44.8,-32.3,1023,2018,5,1,22,23,19.012,0.7842,0.0288,-0.5909,-0.1867
-0.126,-0.68,0.222,46.7,25.1,-52.1,1023,2018,5,1,22,23,19.047,0.7803,0.0279,-0.5988,-0.1775
-0.138,-0.652,0.251,42.9,3.5,-70.5,1023,2018,5,1,22,23,19.052,0.7774,0.0221,-0.6056,-0.1679
-0.157,-0.635,0.324,36.4,-11.8,-85.4,1023,2018,5,1,22,23,19.067,0.7754,0.0122,-0.6111,-0.158
-0.147,-0.583,0.324,28.6,-24.8,-96.1,1023,2018,5,1,22,23,19.086,0.7744,-0.0007,-0.615,-0.1478
-0.115,-0.583,0.289,21.8,-25.5,-105.5,1023,2018,5,1,22,23,19.106,0.7742,-0.0158,-0.6176,-0.1369
-0.073,-0.561,0.253,16.2,-12.2,-116.5,1023,2018,5,1,22,23,19.147,0.7747,-0.0307,-0.6192,-0.124
-0.068,-0.506,0.224,11.1,11.6,-128.5,1023,2018,5,1,22,23,19.169,0.7757,-0.0441,-0.6202,-0.1075
-0.096,-0.438,0.195,5.9,46.8,-139.4,1023,2018,5,1,22,23,19.173,0.7773,-0.0547,-0.6206,-0.0861
-0.213,-0.395,0.189,-1.6,92.5,-147.8,1023,2018,5,1,22,23,19.192,0.7797,-0.0609,-0.6204,-0.0576
-0.34,-0.301,0.178,-12.4,129.7,-153.9,0,2018,5,1,22,23,19.213,0.7827,-0.0617,-0.6187,-0.0264
-0.406,-0.175,0.12,-24.3,149.7,-156.4,0,2018,5,1,22,23,19.233,0.7865,-0.0598,-0.6144,0.0104
-0.459,-0.064,0.086,-38.3,153.1,-156.3,0,2018,5,1,22,23,19.252,0.7907,-0.0561,-0.6076,0.0485
-0.415,0.078,0.006,-49.1,128.3,-153.6,0,2018,5,1,22,23,19.292,0.7947,-0.0532,-0.5986,0.0845
-0.358,0.155,-0.067,-53.7,84.7,-149.5,0,2018,5,1,22,23,19.312,0.7984,-0.055,-0.5881,0.1161
-0.295,0.201,-0.121,-53.7,34.5,-144.7,0,2018,5,1,22,23,19.316,0.8012,-0.0631,-0.5778,0.142
-0.241,0.212,-0.174,-50.7,-2.1,-139.8,0,2018,5,1,22,23,19.331,0.8028,-0.0768,-0.5683,0.1626
-0.182,0.233,-0.212,-45.8,-28.2,-133.9,0,2018,5,1,22,23,19.369,0.8032,-0.0941,-0.5601,0.1794
-0.15,0.231,-0.257,-40.9,-37.7,-126,0,2018,5,1,22,23,19.388,0.8025,-0.113,-0.5528,0.1935
-0.121,0.251,-0.305,-36.8,-33.1,-116.7,0,2018,5,1,22,23,19.393,0.8012,-0.131,-0.546,0.2062
-0.083,0.282,-0.347,-32.6,-21.5,-105.2,0,2018,5,1,22,23,19.414,0.7998,-0.1466,-0.5395,0.2183
-0.043,0.317,-0.367,-28.2,-8.1,-91.3,0,2018,5,1,22,23,19.434,0.7984,-0.159,-0.5332,0.2298
-0.009,0.355,-0.377,-23.1,1.9,-75.9,0,2018,5,1,22,23,19.471,0.7973,-0.1681,-0.5274,0.2404
0.018,0.375,-0.373,-17.8,8.4,-59.2,0,2018,5,1,22,23,19.49,0.7964,-0.1744,-0.5223,0.2497
0.041,0.388,-0.358,-12.5,14.4,-42.2,0,2018,5,1,22,23,19.494,0.7959,-0.178,-0.5181,0.2573
0.055,0.394,-0.346,-7.9,19.2,-25.4,0,2018,5,1,22,23,19.515,0.7958,-0.1791,-0.5149,0.2631
0.059,0.386,-0.337,-4.2,23.5,-8.6,0,2018,5,1,22,23,19.533,0.7963,-0.1779,-0.5126,0.2672
0.037,0.371,-0.316,-1,29.5,8,0,2018,5,1,22,23,19.552,0.7973,-0.1743,-0.511,0.2694
-0.003,0.343,-0.284,1,38,23.2,0,2018,5,1,22,23,19.571,0.7991,-0.1681,-0.5099,0.2702
-0.064,0.333,-0.258,2.2,46.4,37.5,0,2018,5,1,22,23,19.594,0.8016,-0.1593,-0.509,0.2698
-0.175,0.34,-0.249,4,49,52.4,0,2018,5,1,22,23,19.612,0.8048,-0.1484,-0.5084,0.2678
-0.288,0.362,-0.258,8.2,40.6,68.5,0,2018,5,1,22,23,19.633,0.8082,-0.1363,-0.5086,0.2635
-0.358,0.36,-0.242,15,22.3,85.9,1023,2018,5,1,22,23,19.67,0.8114,-0.1244,-0.5106,0.2556
-0.366,0.326,-0.19,23,-0.8,102.5,1023,2018,5,1,22,23,19.691,0.814,-0.1136,-0.5148,0.2435
-0.288,0.273,-0.117,29.5,-22.7,113.8,1023,2018,5,1,22,23,19.695,0.8158,-0.1044,-0.5212,0.2273
-0.154,0.225,-0.08,35,-42,118.7,1023,2018,5,1,22,23,19.734,0.8167,-0.0972,-0.5292,0.2082
-0.048,0.158,-0.066,39.4,-47,120.2,1023,2018,5,1,22,23,19.752,0.8166,-0.0914,-0.5381,0.1874
-0.048,0.105,-0.063,45.5,-40.5,119.8,1023,2018,5,1,22,23,19.756,0.8156,-0.085,-0.5474,0.1667
-0.136,0.016,-0.038,49.7,-17.1,119.1,1023,2018,5,1,22,23,19.778,0.8135,-0.0762,-0.5572,0.1473
-0.221,-0.03,-0.019,52.5,16.8,119.5,1023,2018,5,1,22,23,19.796,0.811,-0.0633,-0.5665,0.1311
-0.247,-0.055,0.015,53.2,48.9,121.6,1023,2018,5,1,22,23,19.814,0.8083,-0.0456,-0.5748,0.1181
-0.219,-0.05,0.059,52.9,63.3,125.1,1023,2018,5,1,22,23,19.851,0.8056,-0.0242,-0.5821,0.1071
-0.182,-0.075,0.107,51.3,61.7,127,1023,2018,5,1,22,23,19.871,0.8027,-0.002,-0.5884,0.0965
-0.12,-0.096,0.141,50,39.9,126.3,1023,2018,5,1,22,23,19.875,0.7998,0.0183,-0.5938,0.0846
-0.062,-0.149,0.163,47.3,7.2,122.2,1023,2018,5,1,22,23,19.915,0.7964,0.0355,-0.5997,0.0689
-0.042,-0.233,0.173,42.8,-16.5,114,0,2018,5,1,22,23,19.919,0.7929,0.0476,-0.6051,0.0515
-0.013,-0.268,0.175,37.7,-33.8,103.5,0,2018,5,1,22,23,19.938,0.7897,0.0559,-0.6099,0.0334
0.004,-0.284,0.144,33.1,-50.4,92.6,0,2018,5,1,22,23,19.957,0.7869,0.0604,-0.6137,0.016
0.035,-0.336,0.107,30.4,-64.1,81,0,2018,5,1,22,23,19.976,0.7843,0.0617,-0.6172,-0.0024
0.041,-0.404,0.133,27.4,-67.1,68.6,0,2018,5,1,22,23,20.014,0.7817,0.0606,-0.6203,-0.0202
0.033,-0.425,0.159,23.4,-64.6,56.2,0,2018,5,1,22,23,20.035,0.7793,0.0582,-0.6228,-0.036
0.036,-0.433,0.159,19.5,-61,45.9,0,2018,5,1,22,23,20.039,0.7773,0.0551,-0.6247,-0.0499
0.07,-0.447,0.14,17.3,-57.3,38.3,0,2018,5,1,22,23,20.053,0.7754,0.0515,-0.6261,-0.0622
0.093,-0.49,0.142,16.1,-47.3,31.1,0,2018,5,1,22,23,20.095,0.7736,0.0481,-0.6275,-0.0729
0.119,-0.518,0.164,14.2,-29.4,23.3,0,2018,5,1,22,23,20.115,0.7719,0.0459,-0.6288,-0.081
0.125,-0.537,0.175,11.7,-7.9,15.2,0,2018,5,1,22,23,20.12,0.7703,0.0459,-0.6301,-0.0858
0.131,-0.531,0.175,9.1,11.8,6.5,0,2018,5,1,22,23,20.138,0.7689,0.0476,-0.6314,-0.0871
0.129,-0.53,0.189,6.6,24.7,-2.5,0,2018,5,1,22,23,20.158,0.7678,0.0506,-0.6328,-0.0855
0.076,-0.511,0.213,-1.7,45.3,-21.8,0,2018,5,1,22,23,20.179,0.7668,0.0584,-0.6348,-0.0744
0.049,-0.49,0.207,-7.1,44.6,-31.1,0,2018,5,1,22,23,20.198,0.7671,0.0618,-0.635,-0.0658
-0.011,-0.485,0.204,-11.5,41.1,-39.1,0,2018,5,1,22,23,20.22,0.768,0.0641,-0.6346,-0.0564
-0.132,-0.49,0.226,-18,42.5,-46,0,2018,5,1,22,23,20.258,0.7695,0.0654,-0.6335,-0.046
-0.206,-0.453,0.218,-25.7,41.1,-52,0,2018,5,1,22,23,20.262,0.7718,0.0663,-0.6314,-0.0346
-0.237,-0.421,0.192,-31.8,32.8,-58.7,0,2018,5,1,22,23,20.279,0.7747,0.0659,-0.6283,-0.0228
-0.211,-0.372,0.151,-36,19.8,-68.4,0,2018,5,1,22,23,20.297,0.7783,0.0631,-0.6245,-0.0111
-0.183,-0.336,0.111,-37.6,3.9,-81.3,0,2018,5,1,22,23,20.318,0.7823,0.057,-0.6202,0.0005
-0.159,-0.297,0.056,-36.3,-8.3,-96.9,0,2018,5,1,22,23,20.338,0.7864,0.0466,-0.6157,0.0133
-0.147,-0.259,0.009,-32.7,-13.3,-112.2,1023,2018,5,1,22,23,20.357,0.7898,0.0341,-0.6118,0.0266
-0.139,-0.203,-0.021,-27.4,-10.6,-126.8,1023,2018,5,1,22,23,20.395,0.7923,0.0195,-0.6083,0.042
-0.117,-0.152,-0.049,-21.6,-9.5,-139.1,1023,2018,5,1,22,23,20.415,0.7936,0.0048,-0.6054,0.0585
-0.107,-0.096,-0.068,-14.9,-6.6,-149.3,1023,2018,5,1,22,23,20.419,0.7937,-0.0116,-0.6031,0.0778
-0.135,-0.042,-0.072,-9.1,-3.8,-153.4,1023,2018,5,1,22,23,20.44,0.792,-0.0288,-0.6017,0.0987
-0.184,-0.015,-0.082,-5.1,4.5,-149.9,1023,2018,5,1,22,23,20.461,0.7892,-0.0451,-0.6006,0.1198
-0.245,-0.001,-0.09,-4.6,21.7,-137.5,1023,2018,5,1,22,23,20.48,0.7861,-0.0584,-0.5989,0.1409
-0.289,0.011,-0.125,-7.1,43.6,-119.1,1023,2018,5,1,22,23,20.5,0.7837,-0.0673,-0.5958,0.1618
-0.276,0.044,-0.165,-11.6,64.2,-98.3,1023,2018,5,1,22,23,20.521,0.7821,-0.0711,-0.5916,0.1822
-0.214,0.097,-0.198,-16,75.5,-78.9,0,2018,5,1,22,23,20.537,0.7815,-0.0708,-0.5862,0.2013
-0.121,0.176,-0.229,-18.4,70.3,-64.2,0,2018,5,1,22,23,20.577,0.7816,-0.0686,-0.5802,0.2183
-0.041,0.224,-0.251,-19,56.1,-55.3,0,2018,5,1,22,23,20.597,0.7819,-0.0666,-0.5744,0.2325
0.026,0.254,-0.266,-17.6,37.1,-51.6,0,2018,5,1,22,23,20.601,0.7821,-0.0663,-0.5694,0.2442
0.074,0.269,-0.281,-14.7,17.4,-50.7,0,2018,5,1,22,23,20.62,0.7818,-0.0684,-0.5654,0.2536
0.093,0.264,-0.299,-10,3.5,-50.7,0,2018,5,1,22,23,20.64,0.7808,-0.0726,-0.5627,0.2613
0.084,0.251,-0.316,-4.9,-2,-49.6,0,2018,5,1,22,23,20.66,0.7792,-0.0779,-0.561,0.268
0.066,0.258,-0.333,0.3,1.2,-46,0,2018,5,1,22,23,20.698,0.7771,-0.0828,-0.5601,0.2744
0.04,0.265,-0.329,5.8,11.2,-39.7,0,2018,5,1,22,23,20.719,0.7748,-0.0858,-0.5597,0.2809
0.013,0.279,-0.323,10,22.2,-30,0,2018,5,1,22,23,20.723,0.7725,-0.0865,-0.5594,0.2874
0,0.293,-0.303,13.5,31,-17.4,0,2018,5,1,22,23,20.741,0.7706,-0.0846,-0.5593,0.2934
-0.027,0.302,-0.295,16.4,35.8,-2.1,0,2018,5,1,22,23,20.778,0.7691,-0.0802,-0.5594,0.2983
-0.076,0.299,-0.261,18.7,36,15.2,0,2018,5,1,22,23,20.797,0.7682,-0.0737,-0.56,0.3011
-0.132,0.327,-0.245,21.5,29.8,33.7,0,2018,5,1,22,23,20.802,0.7679,-0.0656,-0.5613,0.3013
-0.148,0.357,-0.225,25,16,54.1,0,2018,5,1,22,23,20.82,0.7682,-0.057,-0.5637,0.2979
-0.123,0.339,-0.198,30.2,-0.4,75.3,0,2018,5,1,22,23,20.858,0.7689,-0.048,-0.5677,0.29
-0.108,0.288,-0.123,35.1,-7.5,92.6,0,2018,5,1,22,23,20.877,0.7697,-0.0384,-0.573,0.2784
-0.134,0.206,-0.068,39.3,-5.2,105.5,0,2018,5,1,22,23,20.881,0.7706,-0.0274,-0.5791,0.2644
-0.188,0.161,-0.005,42,10.3,113.2,0,2018,5,1,22,23,20.902,0.7714,-0.014,-0.5849,0.25
-0.2,0.147,0.026,44.3,24.4,117.7,0,2018,5,1,22,23,20.921,0.7719,0.002,-0.5901,0.2363
-0.184,0.076,0.063,47,39.7,116.9,0,2018,5,1,22,23,20.961,0.7719,0.0209,-0.5946,0.2234
-0.123,0.049,0.085,49.7,51.2,112.4,0,2018,5,1,22,23,20.965,0.7713,0.0415,-0.5984,0.2124
-0.111,0.024,0.113,51,57.7,106,0,2018,5,1,22,23,20.981,0.77,0.0624,-0.6016,0.203
-0.127,0.043,0.123,52.4,54.2,101.1,1023,2018,5,1,22,23,21.018,0.7679,0.0828,-0.6045,0.1946
-0.197,-0.007,0.17,52.5,46.3,98.6,1023,2018,5,1,22,23,21.04,0.7655,0.1017,-0.6074,0.186
-0.217,-0.065,0.211,51.7,36.9,98,1023,2018,5,1,22,23,21.044,0.7628,0.1198,-0.6104,0.1763
-0.204,-0.145,0.239,50.4,32.8,97.2,1023,2018,5,1,22,23,21.062,0.7597,0.1364,-0.6137,0.166
-0.147,-0.213,0.267,48.3,34.2,93.8,1023,2018,5,1,22,23,21.082,0.7561,0.1528,-0.6169,0.1556
-0.077,-0.279,0.292,46.6,39.8,87.4,1023,2018,5,1,22,23,21.123,0.7523,0.169,-0.6197,0.1462
-0.021,-0.332,0.333,44.7,50.3,78.5,1023,2018,5,1,22,23,21.142,0.7479,0.1853,-0.622,0.1387
0.026,-0.383,0.368,42.2,62.4,67.3,1023,2018,5,1,22,23,21.146,0.7432,0.201,-0.6238,0.1341
0.066,-0.445,0.374,38.9,78.6,53.5,1023,2018,5,1,22,23,21.184,0.7375,0.2178,-0.6252,0.1325
0.113,-0.47,0.381,34.8,97.9,38.4,0,2018,5,1,22,23,21.203,0.731,0.2351,-0.6261,0.1349
0.164,-0.475,0.376,30.6,113.4,24.7,0,2018,5,1,22,23,21.207,0.7236,0.253,-0.6263,0.1412
0.212,-0.479,0.383,25.6,124.5,11.8,0,2018,5,1,22,23,21.223,0.7155,0.2707,-0.626,0.1507
0.252,-0.488,0.375,19.8,133.6,-0.7,0,2018,5,1,22,23,21.243,0.7063,0.289,-0.625,0.1637
0.268,-0.469,0.34,14.7,139.7,-10.2,0,2018,5,1,22,23,21.264,0.697,0.306,-0.6233,0.1784
0.245,-0.456,0.3,11.1,142.3,-17.2,0,2018,5,1,22,23,21.283,0.6873,0.3224,-0.621,0.1947
0.204,-0.458,0.285,8,143.6,-21.9,0,2018,5,1,22,23,21.32,0.6772,0.3378,-0.6182,0.2119
0.17,-0.462,0.268,4.2,150.4,-25.7,0,2018,5,1,22,23,21.339,0.6667,0.3528,-0.6147,0.2302
0.07,-0.47,0.272,-1.5,159.1,-26.9,0,2018,5,1,22,23,21.343,0.6555,0.3682,-0.6101,0.2497
-0.108,-0.48,0.287,-11.3,168.9,-25.5,0,2018,5,1,22,23,21.382,0.644,0.384,-0.6037,0.2705
-0.285,-0.455,0.255,-25.7,169.8,-18.5,0,2018,5,1,22,23,21.405,0.633,0.4001,-0.5948,0.2921
-0.355,-0.44,0.178,-40.4,154.8,-8.6,0,2018,5,1,22,23,21.409,0.6239,0.4152,-0.5835,0.3126
-0.29,-0.429,0.095,-53.2,130.1,-2.5,0,2018,5,1,22,23,21.429,0.6176,0.4278,-0.5707,0.331
-0.237,-0.425,-0.023,-63.4,95.4,-1.1,0,2018,5,1,22,23,21.443,0.6147,0.4366,-0.5579,0.3466
-0.145,-0.414,-0.16,-70,59.5,-6,0,2018,5,1,22,23,21.482,0.6151,0.4403,-0.5462,0.3595
-0.091,-0.422,-0.282,-71,29.5,-15.8,0,2018,5,1,22,23,21.504,0.6177,0.4395,-0.5367,0.3701
-0.11,-0.402,-0.411,-67.3,1.7,-28.6,0,2018,5,1,22,23,21.508,0.6214,0.4347,-0.53,0.3793
-0.112,-0.408,-0.514,-60.4,-22.9,-42,0,2018,5,1,22,23,21.527,0.6257,0.426,-0.5265,0.3868
-0.111,-0.399,-0.634,-50.2,-35.5,-53.2,0,2018,5,1,22,23,21.545,0.6294,0.4152,-0.5261,0.393
-0.092,-0.433,-0.695,-34.1,-31.3,-63.9,0,2018,5,1,22,23,21.584,0.6316,0.4032,-0.5281,0.3993
-0.136,-0.38,-0.73,-16.8,-11.2,-74.5,0,2018,5,1,22,23,21.602,0.6304,0.3927,-0.5317,0.4067
-0.1,-0.367,-0.679,-0.1,22.4,-82.2,0,2018,5,1,22,23,21.605,0.625,0.3857,-0.5359,0.4163
-0.141,-0.28,-0.631,13.6,63.6,-88.8,0,2018,5,1,22,23,21.642,0.6141,0.3833,-0.5393,0.43
-0.162,-0.268,-0.641,27,98.3,-92.7,0,2018,5,1,22,23,21.661,0.5995,0.3853,-0.5414,0.4459
-0.146,-0.235,-0.585,41.5,122.6,-97.5,0,2018,5,1,22,23,21.665,0.5808,0.391,-0.5425,0.4641
-0.173,-0.247,-0.479,50.8,134.1,-103,0,2018,5,1,22,23,21.686,0.56,0.3982,-0.5434,0.482
-0.228,-0.231,-0.43,55.1,141.2,-110,1023,2018,5,1,22,23,21.706,0.5359,0.4061,-0.5442,0.5016
-0.264,-0.264,-0.418,58.5,150,-116.8,1023,2018,5,1,22,23,21.725,0.5098,0.4138,-0.5446,0.5216
-0.306,-0.327,-0.401,60.2,171.4,-127.4,1023,2018,5,1,22,23,21.745,0.4808,0.422,-0.5437,0.5431
-0.341,-0.247,-0.372,61.8,179.9,-142.7,1023,2018,5,1,22,23,21.779,0.4468,0.43,-0.5415,0.5675
-0.343,-0.177,-0.312,62.2,174.4,-155,1023,2018,5,1,22,23,21.802,0.4121,0.4358,-0.5396,0.5907
-0.353,-0.171,-0.244,61.7,162.1,-168.3,1023,2018,5,1,22,23,21.809,0.3762,0.439,-0.5385,0.6129
-0.383,-0.083,-0.207,62.5,132.6,-185,1023,2018,5,1,22,23,21.848,0.3396,0.4384,-0.5398,0.6332
-0.39,-0.034,-0.169,63.5,99.1,-196.4,0,2018,5,1,22,23,21.867,0.3034,0.4338,-0.5451,0.6499
-0.383,0.007,-0.135,63.7,77.9,-203.1,0,2018,5,1,22,23,21.871,0.2678,0.4262,-0.5533,0.6635
-0.349,0.059,-0.134,63.1,68.1,-204.2,0,2018,5,1,22,23,21.89,0.2342,0.4174,-0.5623,0.6742
-0.328,0.144,-0.159,62.3,65.8,-200.2,0,2018,5,1,22,23,21.909,0.1992,0.4073,-0.5714,0.6839
-0.294,0.262,-0.191,61.4,69,-191.2,0,2018,5,1,22,23,21.926,0.1647,0.3972,-0.579,0.6926
-0.231,0.366,-0.205,60,74.7,-177.8,0,2018,5,1,22,23,21.949,0.1312,0.3877,-0.5845,0.7005
-0.18,0.46,-0.193,57.6,79.8,-160.2,0,2018,5,1,22,23,21.967,0.0976,0.3788,-0.5875,0.7082
-0.136,0.535,-0.192,55.1,82,-141.8,0,2018,5,1,22,23,21.988,0.0691,0.3719,-0.5882,0.7147
-0.108,0.606,-0.192,52.5,80.8,-119.7,0,2018,5,1,22,23,22.021,0.0419,0.3661,-0.5869,0.7208
-0.099,0.638,-0.2,50,79.7,-94.7,0,2018,5,1,22,23,22.043,0.018,0.3621,-0.5839,0.7263
-0.084,0.656,-0.196,49.3,81.1,-68.5,0,2018,5,1,22,23,22.05,-0.0026,0.3605,-0.579,0.7312
-0.068,0.66,-0.193,49.5,82.3,-42.7,0,2018,5,1,22,23,22.087,-0.02,0.3612,-0.5719,0.7361
-0.067,0.66,-0.183,51.3,83.6,-18.1,0,2018,5,1,22,23,22.107,-0.0343,0.3645,-0.563,0.7408
-0.085,0.653,-0.14,53.1,86.3,4.9,0,2018,5,1,22,23,22.111,-0.0464,0.3705,-0.5516,0.7458
-0.125,0.64,-0.097,53.1,88.6,24.1,0,2018,5,1,22,23,22.126,-0.0551,0.3778,-0.5395,0.7504
-0.169,0.631,-0.069,53.9,89.3,44.4,0,2018,5,1,22,23,22.165,-0.0616,0.3872,-0.525,0.7553
-0.224,0.602,-0.053,57.4,89,67.4,0,2018,5,1,22,23,22.186,-0.0656,0.3993,-0.508,0.7603
-0.255,0.577,-0.033,62.9,90.4,88.6,0,2018,5,1,22,23,22.19,-0.0669,0.4125,-0.4908,0.7644
-0.305,0.521,0.058,69,95.9,110,0,2018,5,1,22,23,22.209,-0.066,0.4295,-0.4693,0.7686
-0.323,0.492,0.175,69.2,104.2,126.1,0,2018,5,1,22,23,22.248,-0.0634,0.4463,-0.4471,0.7725
-0.269,0.542,0.222,68.6,101.8,142.5,0,2018,5,1,22,23,22.27,-0.0589,0.4647,-0.4216,0.7764
-0.27,0.497,0.221,70.8,88.9,157.7,0,2018,5,1,22,23,22.274,-0.0513,0.4839,-0.3956,0.7788
-0.332,0.383,0.25,72.2,86.7,167,0,2018,5,1,22,23,22.293,-0.0415,0.5039,-0.3692,0.7797
-0.398,0.318,0.309,71.4,89.8,170.4,0,2018,5,1,22,23,22.313,-0.031,0.5236,-0.3416,0.7798
-0.408,0.303,0.364,69.3,83.8,171,0,2018,5,1,22,23,22.329,-0.02,0.5425,-0.3134,0.779
-0.369,0.255,0.362,66.8,68.3,168.5,1023,2018,5,1,22,23,22.348,-0.008,0.5605,-0.2867,0.7768
-0.319,0.17,0.348,64.7,53.7,162.2,1023,2018,5,1,22,23,22.369,0.0051,0.5773,-0.2621,0.7732
-0.281,0.082,0.355,61.2,43.4,151.6,1023,2018,5,1,22,23,22.407,0.0184,0.5927,-0.2397,0.7686
-0.318,0.015,0.467,52.8,15.6,138.4,1023,2018,5,1,22,23,22.426,0.0321,0.6066,-0.2211,0.7629
-0.172,0.043,0.342,49.1,12.9,118.8,1023,2018,5,1,22,23,22.43,0.0455,0.618,-0.2056,0.7573
-0.101,-0.025,0.302,44.3,-12.5,105.5,1023,2018,5,1,22,23,22.467,0.0591,0.6285,-0.1934,0.751
-0.017,-0.159,0.28,43.4,-17.7,92.8,1023,2018,5,1,22,23,22.488,0.0724,0.6373,-0.1853,0.7444
0.008,-0.223,0.284,40,-10.1,82,1023,2018,5,1,22,23,22.492,0.0837,0.6453,-0.178,0.7381
0.034,-0.286,0.273,34.9,0.4,73.7,1023,2018,5,1,22,23,22.513,0.0929,0.6524,-0.1705,0.7325
0.088,-0.347,0.271,29.6,16.7,68,1023,2018,5,1,22,23,22.533,0.0997,0.6587,-0.1619,0.7278
0.131,-0.406,0.258,24.8,35.1,62.5,0,2018,5,1,22,23,22.572,0.1041,0.6644,-0.1516,0.7243
0.152,-0.414,0.258,20.4,50.1,56,0,2018,5,1,22,23,22.591,0.1059,0.6696,-0.1395,0.7217
0.176,-0.427,0.266,16,55.3,47.5,0,2018,5,1,22,23,22.596,0.1056,0.6741,-0.1271,0.7198
0.193,-0.443,0.263,11.9,54.7,37.2,0,2018,5,1,22,23,22.614,0.1039,0.6777,-0.1154,0.7186
0.196,-0.464,0.262,7.9,50.1,24.9,0,2018,5,1,22,23,22.63,0.1014,0.6805,-0.1054,0.7179
0.188,-0.482,0.253,3.7,45.8,11,0,2018,5,1,22,23,22.669,0.098,0.6823,-0.0973,0.7178
0.137,-0.491,0.236,-0.2,44.2,-3.9,0,2018,5,1,22,23,22.69,0.0928,0.6834,-0.0914,0.7182
0.053,-0.487,0.222,-5,44.7,-19.6,0,2018,5,1,22,23,22.694,0.0859,0.6836,-0.0873,0.7194
-0.03,-0.458,0.207,-9.5,42.2,-35,0,2018,5,1,22,23,22.732,0.0774,0.6828,-0.085,0.7214
-0.112,-0.432,0.192,-12.9,36.9,-49.6,0,2018,5,1,22,23,22.752,0.0675,0.6813,-0.0849,0.7238
-0.143,-0.421,0.192,-15.5,34.8,-63.6,0,2018,5,1,22,23,22.756,0.0564,0.679,-0.087,0.7267
-0.165,-0.401,0.187,-18.2,38,-76.8,0,2018,5,1,22,23,22.775,0.0434,0.676,-0.0906,0.7299
-0.169,-0.36,0.179,-21.7,41.1,-89.1,0,2018,5,1,22,23,22.812,0.0286,0.6724,-0.0951,0.7334
-0.156,-0.318,0.16,-25.4,42.6,-102.4,0,2018,5,1,22,23,22.814,0.012,0.6678,-0.1008,0.7373
-0.143,-0.264,0.123,-29.8,44.5,-115.4,0,2018,5,1,22,23,22.829,-0.0063,0.6622,-0.1078,0.7414
-0.192,-0.241,0.105,-34.9,52.2,-126.7,0,2018,5,1,22,23,22.866,-0.0266,0.6555,-0.1156,0.7457
-0.265,-0.21,0.085,-42,70.4,-135.4,0,2018,5,1,22,23,22.889,-0.0487,0.6476,-0.1224,0.7504
-0.369,-0.159,0.06,-51.2,89.3,-139.7,0,2018,5,1,22,23,22.893,-0.0745,0.6374,-0.1278,0.7561
-0.466,-0.08,0.022,-60,105.3,-139.1,0,2018,5,1,22,23,22.912,-0.1018,0.6257,-0.1304,0.7622
-0.517,-0.003,0,-67.5,108.4,-134.7,0,2018,5,1,22,23,22.934,-0.1289,0.6125,-0.1309,0.7687
-0.488,0.089,-0.043,-73.8,97.2,-130,0,2018,5,1,22,23,22.974,-0.1554,0.5975,-0.1322,0.7753
-0.415,0.185,-0.089,-76.6,68.6,-127,0,2018,5,1,22,23,22.995,-0.1794,0.5818,-0.1362,0.7814
-0.333,0.254,-0.128,-75.9,30,-126.9,0,2018,5,1,22,23,22.999,-0.1995,0.5667,-0.1447,0.7861
-0.263,0.297,-0.171,-71.6,-8.2,-129.4,1023,2018,5,1,22,23,23.016,-0.2158,0.5528,-0.1584,0.789
-0.223,0.32,-0.212,-65.5,-37.6,-132.7,1023,2018,5,1,22,23,23.037,-0.2294,0.5405,-0.177,0.7898
-0.19,0.335,-0.258,-57.3,-51.7,-135,1023,2018,5,1,22,23,23.056,-0.2413,0.5295,-0.1982,0.7886
-0.18,0.353,-0.309,-48,-55.4,-133.6,1023,2018,5,1,22,23,23.075,-0.2524,0.5197,-0.2201,0.7858
-0.173,0.372,-0.335,-38.5,-46.3,-128.4,1023,2018,5,1,22,23,23.095,-0.2635,0.5109,-0.2407,0.7819
-0.169,0.4,-0.345,-30.1,-28.8,-120.1,1023,2018,5,1,22,23,23.134,-0.2753,0.5026,-0.2583,0.7777
-0.159,0.437,-0.35,-23.1,-10.1,-108,1023,2018,5,1,22,23,23.154,-0.2877,0.4947,-0.272,0.7735
-0.146,0.474,-0.342,-17.2,5.4,-92.9,1023,2018,5,1,22,23,23.159,-0.2999,0.4872,-0.2817,0.7702
-0.131,0.521,-0.348,-12.2,10.8,-75.8,0,2018,5,1,22,23,23.176,-0.3108,0.4806,-0.2882,0.7676
-0.109,0.547,-0.347,-6.5,7.9,-56.7,0,2018,5,1,22,23,23.198,-0.3197,0.4755,-0.2928,0.7654
-0.09,0.556,-0.351,-0.4,2.9,-36.7,0,2018,5,1,22,23,23.217,-0.3257,0.4724,-0.2959,0.7636
-0.082,0.548,-0.348,5.1,-0.4,-16.1,0,2018,5,1,22,23,23.239,-0.329,0.4713,-0.2977,0.7621
-0.08,0.543,-0.338,10.1,-0.6,4.3,0,2018,5,1,22,23,23.258,-0.3298,0.4722,-0.2976,0.7613
-0.101,0.527,-0.327,14.8,1,24.7,0,2018,5,1,22,23,23.28,-0.3281,0.4746,-0.2955,0.7613
-0.162,0.514,-0.286,19.3,3.5,46.3,0,2018,5,1,22,23,23.3,-0.324,0.4788,-0.2909,0.7622
-0.218,0.505,-0.261,22.9,2.5,66.7,0,2018,5,1,22,23,23.317,-0.3178,0.4841,-0.2847,0.7638
-0.288,0.47,-0.223,28.1,1.5,91,0,2018,5,1,22,23,23.337,-0.308,0.4916,-0.2759,0.7662
-0.326,0.411,-0.157,33.4,5.2,113,0,2018,5,1,22,23,23.357,-0.2957,0.5005,-0.2649,0.7692
-0.361,0.352,-0.063,38.4,16.7,131.4,0,2018,5,1,22,23,23.376,-0.2816,0.5104,-0.2507,0.7728
-0.378,0.298,0.024,42.8,31.4,143.8,0,2018,5,1,22,23,23.397,-0.2667,0.5206,-0.2329,0.7768
-0.348,0.247,0.121,44.3,47.6,148.5,0,2018,5,1,22,23,23.417,-0.2527,0.5299,-0.213,0.7809
-0.25,0.251,0.157,45.9,53.1,147.1,0,2018,5,1,22,23,23.456,-0.2382,0.5395,-0.189,0.7851
-0.16,0.238,0.159,48.6,45.3,140.6,0,2018,5,1,22,23,23.476,-0.2245,0.5485,-0.1666,0.788
-0.108,0.235,0.154,51.1,33.6,130.3,0,2018,5,1,22,23,23.48,-0.2108,0.5575,-0.1461,0.7894
-0.12,0.237,0.152,53.5,20.2,121.3,0,2018,5,1,22,23,23.5,-0.198,0.5663,-0.1291,0.7894
-0.191,0.177,0.167,52.8,10.4,113.5,0,2018,5,1,22,23,23.517,-0.1845,0.5757,-0.1137,0.7883
-0.249,0.126,0.199,49.5,6.6,107.3,0,2018,5,1,22,23,23.553,-0.1706,0.5849,-0.0991,0.7866
-0.262,0.077,0.224,45,-3.4,104.2,0,2018,5,1,22,23,23.574,-0.1577,0.5927,-0.0873,0.7849
-0.228,0.043,0.253,38.9,-14.9,101.3,0,2018,5,1,22,23,23.579,-0.1431,0.6001,-0.0767,0.7832
-0.129,0.046,0.256,34.1,-35.2,96.6,0,2018,5,1,22,23,23.597,-0.1267,0.6072,-0.0684,0.7813
-0.046,0.003,0.26,30.8,-60.2,91.4,0,2018,5,1,22,23,23.618,-0.1091,0.6137,-0.0643,0.7792
0.018,-0.068,0.262,27.3,-77.9,85.5,0,2018,5,1,22,23,23.657,-0.091,0.6195,-0.0639,0.777
0.044,-0.14,0.266,21.9,-82.4,77.3,0,2018,5,1,22,23,23.677,-0.0708,0.6252,-0.066,0.7744
0.071,-0.179,0.237,15.8,-76.5,69.6,1023,2018,5,1,22,23,23.681,-0.0528,0.6294,-0.0687,0.7721
0.106,-0.209,0.183,10.6,-66.8,62.9,1023,2018,5,1,22,23,23.72,-0.0366,0.6325,-0.0712,0.7703
0.109,-0.235,0.18,5.7,-52.2,55.8,1023,2018,5,1,22,23,23.738,-0.0226,0.6346,-0.0727,0.769
0.118,-0.235,0.187,1.1,-42.9,49.4,1023,2018,5,1,22,23,23.743,-0.0108,0.6359,-0.0733,0.7681
0.139,-0.228,0.176,-1.7,-40.2,42.7,1023,2018,5,1,22,23,23.779,-0.0004,0.6364,-0.0738,0.7677
0.152,-0.246,0.167,-2.8,-42.4,35.5,1023,2018,5,1,22,23,23.783,0.0089,0.6366,-0.0751,0.7674
0.166,-0.274,0.153,-2.8,-45.8,26.6,1023,2018,5,1,22,23,23.798,0.0175,0.6365,-0.0777,0.767
0.151,-0.305,0.15,-2.9,-43.7,16.3,1023,2018,5,1,22,23,23.82,0.0249,0.6363,-0.0816,0.7666
0.16,-0.308,0.134,-2.6,-38.6,5.9,1023,2018,5,1,22,23,23.84,0.0306,0.6359,-0.0861,0.7663
0.155,-0.329,0.131,-1.8,-28.1,-3.8,0,2018,5,1,22,23,23.861,0.0339,0.6354,-0.0907,0.766
0.133,-0.32,0.134,-1.6,-13.7,-12.4,0,2018,5,1,22,23,23.881,0.0346,0.635,-0.0945,0.7659
0.085,-0.307,0.165,-3.4,-0.1,-22.1,0,2018,5,1,22,23,23.918,0.0326,0.6343,-0.0974,0.7661
0.063,-0.266,0.171,-5.7,2.9,-31.3,0,2018,5,1,22,23,23.938,0.0284,0.6333,-0.1002,0.7668
-0.011,-0.25,0.175,-8.1,3.4,-39.2,0,2018,5,1,22,23,23.942,0.0231,0.6317,-0.1038,0.7678
-0.162,-0.241,0.215,-12.1,8.8,-45,0,2018,5,1,22,23,23.98,0.0167,0.6296,-0.1078,0.7691
-0.286,-0.2,0.235,-17.7,11.4,-48.9,0,2018,5,1,22,23,24.001,0.0089,0.6268,-0.1116,0.771
-0.307,-0.181,0.215,-22.5,5.2,-53.3,0,2018,5,1,22,23,24.005,0.0009,0.623,-0.1161,0.7735
-0.242,-0.174,0.178,-24.5,-6.5,-60.4,0,2018,5,1,22,23,24.019,-0.0066,0.6186,-0.1226,0.776
-0.148,-0.123,0.145,-23.9,-19,-70.5,0,2018,5,1,22,23,24.058,-0.0138,0.6134,-0.1315,0.7785
-0.102,-0.095,0.169,-24.3,-24.5,-83.5,0,2018,5,1,22,23,24.078,-0.0217,0.6076,-0.1429,0.7809
-0.034,-0.028,0.16,-26.1,-29.7,-99.6,0,2018,5,1,22,23,24.082,-0.0308,0.601,-0.156,0.7832
-0.027,-0.012,0.107,-27.1,-30.1,-114.9,0,2018,5,1,22,23,24.101,-0.0416,0.5936,-0.171,0.7852
-0.084,-0.013,0.046,-26.6,-15.6,-127.6,0,2018,5,1,22,23,24.124,-0.0549,0.586,-0.1864,0.7866
-0.194,0.027,0.035,-26.5,9.2,-134.2,0,2018,5,1,22,23,24.142,-0.0715,0.5782,-0.1998,0.7877
-0.341,0.07,0.043,-29.2,41.4,-132.3,0,2018,5,1,22,23,24.162,-0.0909,0.5697,-0.2089,0.7895
-0.463,0.143,0.048,-35.1,65.6,-124.8,0,2018,5,1,22,23,24.202,-0.1134,0.5595,-0.2147,0.7924
-0.488,0.22,0.02,-41.5,73.1,-114.2,0,2018,5,1,22,23,24.221,-0.1358,0.5481,-0.2173,0.7961
-0.438,0.267,-0.02,-47.8,60.6,-104.7,0,2018,5,1,22,23,24.225,-0.1558,0.5359,-0.2193,0.8001
-0.364,0.344,-0.069,-51.6,34.3,-98.9,0,2018,5,1,22,23,24.24,-0.1726,0.5236,-0.2235,0.8037
-0.302,0.4,-0.108,-52.6,2.7,-96.9,0,2018,5,1,22,23,24.279,-0.1861,0.5118,-0.2316,0.806
-0.252,0.446,-0.128,-50.6,-28.7,-99.2,0,2018,5,1,22,23,24.301,-0.197,0.5009,-0.2441,0.8065
-0.232,0.446,-0.137,-46.6,-50.4,-103.2,0,2018,5,1,22,23,24.305,-0.2057,0.4911,-0.2605,0.8053
-0.231,0.449,-0.161,-42.6,-58.1,-107,0,2018,5,1,22,23,24.323,-0.214,0.4819,-0.2789,0.8025
-0.239,0.462,-0.181,-38,-51.1,-107.7,1023,2018,5,1,22,23,24.343,-0.2225,0.4729,-0.2972,0.7989
-0.243,0.493,-0.185,-34.3,-36.2,-103.5,1023,2018,5,1,22,23,24.363,-0.2319,0.464,-0.3134,0.7953
-0.233,0.529,-0.18,-32,-19.8,-93.6,1023,2018,5,1,22,23,24.383,-0.2414,0.455,-0.3265,0.7924
-0.215,0.579,-0.177,-31.6,-6.8,-78.9,1023,2018,5,1,22,23,24.422,-0.2507,0.4462,-0.3364,0.7904
-0.197,0.619,-0.182,-31.6,-2.7,-59.2,1023,2018,5,1,22,23,24.443,-0.2579,0.4379,-0.3437,0.7896
-0.178,0.656,-0.195,-32.5,-6.9,-35.2,1023,2018,5,1,22,23,24.447,-0.262,0.4308,-0.3492,0.7897
-0.158,0.678,-0.203,-32.9,-17.8,-7.8,1023,2018,5,1,22,23,24.466,-0.2622,0.4255,-0.354,0.7904
-0.146,0.683,-0.21,-33.2,-32.8,21.6,1023,2018,5,1,22,23,24.486,-0.2573,0.4226,-0.3586,0.7915
-0.136,0.668,-0.206,-33.6,-47.8,52.6,1023,2018,5,1,22,23,24.503,-0.2472,0.4222,-0.363,0.7929
-0.133,0.629,-0.204,-35.4,-59,83.2,1023,2018,5,1,22,23,24.523,-0.2317,0.4241,-0.367,0.7947
-0.143,0.584,-0.184,-38.2,-63.8,111.9,1023,2018,5,1,22,23,24.559,-0.2114,0.4278,-0.3698,0.7971
-0.167,0.555,-0.171,-42.2,-66.2,139.2,0,2018,5,1,22,23,24.58,-0.1867,0.4327,-0.3709,0.8001
-0.22,0.53,-0.159,-47.7,-71,167.7,0,2018,5,1,22,23,24.584,-0.1572,0.4384,-0.3702,0.8036
-0.279,0.501,-0.164,-53.7,-81.5,195.1,0,2018,5,1,22,23,24.606,-0.1228,0.4449,-0.3682,0.807
-0.356,0.473,-0.181,-59.9,-101.2,222.4,0,2018,5,1,22,23,24.625,-0.0824,0.4519,-0.3657,0.8094
-0.442,0.441,-0.198,-65.4,-131.6,247.7,0,2018,5,1,22,23,24.663,-0.0359,0.4593,-0.364,0.8094
-0.551,0.39,-0.228,-70.9,-172.1,269.1,0,2018,5,1,22,23,24.682,0.0172,0.4664,-0.3646,0.8057
-0.668,0.309,-0.235,-77,-218.7,283.9,0,2018,5,1,22,23,24.687,0.0768,0.4721,-0.3687,0.7969
-0.748,0.219,-0.269,-82.4,-269,288.2,0,2018,5,1,22,23,24.725,0.1419,0.4751,-0.3771,0.7821
-0.741,0.129,-0.326,-85.1,-321,280.2,0,2018,5,1,22,23,24.729,0.2104,0.4737,-0.3908,0.7605
-0.684,-0.004,-0.36,-85.1,-356.8,259.7,0,2018,5,1,22,23,24.744,0.2797,0.4669,-0.4094,0.7321
-0.602,-0.135,-0.344,-83.7,-362,228.8,0,2018,5,1,22,23,24.766,0.3455,0.4545,-0.4304,0.699
-0.514,-0.228,-0.304,-82.4,-331.5,193.4,0,2018,5,1,22,23,24.785,0.404,0.438,-0.45,0.665
-0.42,-0.274,-0.284,-82,-272.9,159.7,0,2018,5,1,22,23,24.822,0.4531,0.4201,-0.4649,0.6339
-0.329,-0.284,-0.322,-79.5,-199.3,131.3,0,2018,5,1,22,23,24.844,0.4923,0.4039,-0.4733,0.6086
-0.257,-0.305,-0.376,-73.5,-128.5,107.9,0,2018,5,1,22,23,24.848,0.5222,0.3915,-0.4751,0.5901
-0.19,-0.27,-0.402,-65.3,-81.8,88.2,0,2018,5,1,22,23,24.885,0.5447,0.383,-0.4723,0.5773
-0.134,-0.248,-0.413,-56.8,-61.2,73.1,0,2018,5,1,22,23,24.905,0.5623,0.3768,-0.468,0.568
-0.089,-0.213,-0.41,-48.5,-61.8,61.6,0,2018,5,1,22,23,24.909,0.577,0.3711,-0.4644,0.5599
-0.047,-0.176,-0.409,-41,-78.8,53.8,0,2018,5,1,22,23,24.93,0.5906,0.3643,-0.4629,0.5513
-0.008,-0.163,-0.4,-34.3,-106.1,48.6,0,2018,5,1,22,23,24.95,0.6043,0.3552,-0.4646,0.5409
0.026,-0.153,-0.406,-28.9,-135.3,46.6,0,2018,5,1,22,23,24.966,0.6187,0.3432,-0.4697,0.5278
0.06,-0.159,-0.42,-24.3,-157.7,46.1,0,2018,5,1,22,23,24.987,0.6338,0.3284,-0.4775,0.5121
0.087,-0.174,-0.44,-20.3,-168.4,47.7,1023,2018,5,1,22,23,25.005,0.649,0.312,-0.4868,0.4943
0.102,-0.173,-0.451,-16.5,-171.9,50.9,1023,2018,5,1,22,23,25.045,0.6637,0.2952,-0.4965,0.475
0.097,-0.169,-0.451,-12.5,-171.6,55.1,1023,2018,5,1,22,23,25.065,0.6779,0.2785,-0.5061,0.4544
0.099,-0.163,-0.461,-7.3,-170.6,60,1023,2018,5,1,22,23,25.069,0.6913,0.2625,-0.5155,0.4328
0.088,-0.166,-0.447,-0.7,-168.1,65.5,1023,2018,5,1,22,23,25.089,0.7038,0.2473,-0.5246,0.4099
0.071,-0.177,-0.418,5.9,-161.7,71.1,1023,2018,5,1,22,23,25.109,0.7152,0.2334,-0.5336,0.3861
0.032,-0.188,-0.394,13.2,-155.1,76.4,1023,2018,5,1,22,23,25.148,0.7254,0.2211,-0.5422,0.3616
0.013,-0.214,-0.374,21,-144.6,81.7,1023,2018,5,1,22,23,25.169,0.7343,0.2106,-0.5505,0.3365
-0.02,-0.238,-0.342,29.3,-130.4,86.3,0,2018,5,1,22,23,25.174,0.7415,0.2025,-0.5585,0.3114
-0.05,-0.269,-0.293,37.8,-113.8,89.2,0,2018,5,1,22,23,25.192,0.7471,0.1971,-0.5662,0.2869
-0.054,-0.304,-0.248,46.6,-96.5,90.1,0,2018,5,1,22,23,25.212,0.7507,0.1944,-0.5737,0.2632
-0.055,-0.343,-0.183,55.1,-78.2,88.6,0,2018,5,1,22,23,25.229,0.7525,0.1942,-0.5813,0.241
-0.061,-0.377,-0.119,62.8,-59.3,83.7,0,2018,5,1,22,23,25.248,0.7522,0.1964,-0.5888,0.2206
-0.069,-0.417,-0.041,69.5,-38.1,77.2,0,2018,5,1,22,23,25.269,0.75,0.2008,-0.5966,0.2028
-0.113,-0.469,0.073,72.8,-12.4,69.5,0,2018,5,1,22,23,25.309,0.7458,0.2077,-0.6042,0.188
-0.142,-0.493,0.171,72.1,10.2,61,0,2018,5,1,22,23,25.328,0.7402,0.2169,-0.6112,0.1769
-0.113,-0.498,0.21,71.2,26.5,52.4,0,2018,5,1,22,23,25.332,0.7335,0.2276,-0.6177,0.1689
-0.04,-0.502,0.248,72,39.8,42.8,0,2018,5,1,22,23,25.37,0.7257,0.2391,-0.6239,0.1636
0.052,-0.504,0.308,70.5,53,31.3,0,2018,5,1,22,23,25.391,0.7169,0.2511,-0.63,0.161
0.141,-0.497,0.376,64.5,63.9,17.5,0,2018,5,1,22,23,25.395,0.7074,0.2631,-0.6357,0.1615
0.193,-0.502,0.428,54.4,70.4,4.2,0,2018,5,1,22,23,25.413,0.6979,0.2742,-0.6406,0.165
0.158,-0.472,0.472,42.6,74.6,-4.1,0,2018,5,1,22,23,25.429,0.6889,0.2844,-0.6443,0.1709
0.018,-0.473,0.556,28.2,75.1,-6,0,2018,5,1,22,23,25.448,0.681,0.2938,-0.6466,0.1782
-0.197,-0.465,0.646,7.8,75.3,-3.1,0,2018,5,1,22,23,25.487,0.6748,0.3028,-0.6466,0.1864
-0.339,-0.425,0.666,-14.6,63.3,2.7,0,2018,5,1,22,23,25.508,0.6715,0.3109,-0.6437,0.1946
-0.33,-0.351,0.612,-34.6,28.6,6.5,0,2018,5,1,22,23,25.513,0.672,0.3162,-0.6388,0.2006
-0.229,-0.303,0.52,-48.7,-28.8,2.2,0,2018,5,1,22,23,25.53,0.6769,0.3152,-0.6335,0.2024
-0.135,-0.306,0.426,-57.1,-90.6,-12.4,0,2018,5,1,22,23,25.571,0.686,0.3055,-0.6296,0.199
-0.069,-0.343,0.359,-62.5,-135.2,-35.6,0,2018,5,1,22,23,25.59,0.6977,0.2867,-0.6275,0.1922
-0.02,-0.339,0.288,-64.1,-161.9,-61.1,0,2018,5,1,22,23,25.595,0.7103,0.2608,-0.627,0.1848
-0.012,-0.354,0.216,-64.3,-165.8,-86.2,0,2018,5,1,22,23,25.614,0.722,0.2299,-0.6275,0.1787
-0.035,-0.339,0.164,-64.6,-149.8,-107.8,0,2018,5,1,22,23,25.633,0.732,0.197,-0.6279,0.1762
-0.072,-0.309,0.107,-65.9,-121.8,-123.6,1023,2018,5,1,22,23,25.652,0.7398,0.1647,-0.6274,0.1783
-0.121,-0.259,0.086,-69.1,-87.3,-133.6,1023,2018,5,1,22,23,25.686,0.7458,0.135,-0.6253,0.1855
-0.154,-0.145,0.037,-71.8,-63.1,-136.2,1023,2018,5,1,22,23,25.706,0.7505,0.1077,-0.6213,0.1974
-0.198,-0.089,0.003,-72.9,-52.7,-132.9,1023,2018,5,1,22,23,25.71,0.7543,0.082,-0.6162,0.2109
-0.226,-0.03,-0.015,-74.9,-47,-127.2,1023,2018,5,1,22,23,25.749,0.7576,0.0581,-0.6101,0.2242
-0.207,0.042,-0.047,-74.3,-51.4,-118.8,1023,2018,5,1,22,23,25.771,0.7607,0.0356,-0.6035,0.2359
-0.171,0.1,-0.084,-71.9,-60.4,-109.4,1023,2018,5,1,22,23,25.775,0.7637,0.0132,-0.5968,0.2455
-0.131,0.137,-0.131,-67.4,-68.1,-101.5,1023,2018,5,1,22,23,25.794,0.7664,-0.0093,-0.5903,0.2529
-0.091,0.169,-0.167,-61.6,-71.6,-94.1,1023,2018,5,1,22,23,25.815,0.7683,-0.0316,-0.5845,0.2585
-0.054,0.191,-0.198,-54.8,-67.9,-86.7,1023,2018,5,1,22,23,25.835,0.7696,-0.0528,-0.5793,0.263
-0.016,0.216,-0.22,-47.3,-56.9,-79,0,2018,5,1,22,23,25.854,0.7702,-0.0719,-0.5745,0.2673
0.023,0.247,-0.231,-39.8,-42.1,-70.3,0,2018,5,1,22,23,25.892,0.7703,-0.0881,-0.5699,0.2717
0.061,0.27,-0.232,-32.4,-25.7,-60.6,0,2018,5,1,22,23,25.912,0.7702,-0.1008,-0.5656,0.2766
0.084,0.285,-0.228,-26,-7.4,-49.6,0,2018,5,1,22,23,25.917,0.7701,-0.1098,-0.5615,0.2818
0.102,0.315,-0.23,-20.7,10,-37.2,0,2018,5,1,22,23,25.934,0.7702,-0.1149,-0.5575,0.2874
0.101,0.334,-0.232,-16.2,24.2,-22.3,0,2018,5,1,22,23,25.954,0.7708,-0.1163,-0.5535,0.2927
0.062,0.362,-0.251,-12.4,31.4,-3.5,0,2018,5,1,22,23,25.972,0.7721,-0.1144,-0.5499,0.297
-0.029,0.385,-0.268,-8.5,28,20.3,0,2018,5,1,22,23,26.012,0.7742,-0.1101,-0.5471,0.2985
-0.117,0.385,-0.264,-4.6,18,48.8,0,2018,5,1,22,23,26.032,0.7771,-0.1039,-0.5456,0.2959
-0.177,0.357,-0.257,0.1,1.7,79.2,0,2018,5,1,22,23,26.036,0.7807,-0.0965,-0.5459,0.288
-0.194,0.306,-0.229,5.3,-15,107.6,0,2018,5,1,22,23,26.055,0.785,-0.0883,-0.5482,0.2744
-0.176,0.241,-0.188,9.2,-25.4,129.6,0,2018,5,1,22,23,26.075,0.7895,-0.0794,-0.552,0.256
-0.12,0.193,-0.158,12.6,-29.5,142.7,0,2018,5,1,22,23,26.113,0.7939,-0.0695,-0.5565,0.2345
-0.046,0.12,-0.125,15.5,-27.4,146.9,0,2018,5,1,22,23,26.134,0.7979,-0.0588,-0.5613,0.2116
-0.027,0.058,-0.092,17.7,-16.6,143.5,0,2018,5,1,22,23,26.138,0.8009,-0.047,-0.5661,0.1891
-0.059,0.036,-0.073,18.3,-1.8,135.8,0,2018,5,1,22,23,26.156,0.803,-0.034,-0.5704,0.1688
-0.122,0.059,-0.071,19,5.7,127.2,0,2018,5,1,22,23,26.173,0.8044,-0.02,-0.5741,0.1508
-0.196,0.045,-0.077,20.6,0.4,120.8,0,2018,5,1,22,23,26.212,0.805,-0.0065,-0.5778,0.1337
-0.259,0.011,-0.04,21.5,-9.6,117.5,0,2018,5,1,22,23,26.232,0.8049,0.0053,-0.5817,0.1164
-0.297,-0.021,0.018,20.3,-27.1,116.6,0,2018,5,1,22,23,26.237,0.8046,0.0148,-0.5853,0.0983
-0.261,-0.039,0.012,17.9,-53.5,116.5,0,2018,5,1,22,23,26.257,0.8043,0.0209,-0.5886,0.078
-0.196,-0.064,0.005,17.1,-79,116.7,0,2018,5,1,22,23,26.277,0.8039,0.023,-0.5916,0.0552
-0.139,-0.127,-0.012,16.7,-102.3,114.8,0,2018,5,1,22,23,26.296,0.8031,0.0212,-0.5946,0.0301
-0.089,-0.194,-0.011,16.1,-112,110.5,0,2018,5,1,22,23,26.317,0.802,0.0173,-0.5969,0.0032
-0.041,-0.269,-0.018,14.7,-108.4,104.7,0,2018,5,1,22,23,26.335,0.8005,0.0129,-0.5986,-0.0233
-0.003,-0.336,-0.029,13.4,-92.3,98,0,2018,5,1,22,23,26.355,0.7986,0.0093,-0.5997,-0.048
0.004,-0.378,-0.021,11.6,-66.6,91.7,1023,2018,5,1,22,23,26.375,0.7964,0.0086,-0.6005,-0.0697
0.02,-0.395,-0.02,10.5,-43.2,87.3,1023,2018,5,1,22,23,26.395,0.7941,0.0105,-0.6011,-0.0878
0.037,-0.428,-0.009,10.3,-26.3,84.1,1023,2018,5,1,22,23,26.415,0.7917,0.0148,-0.6018,-0.1033
0.041,-0.457,0.017,10.3,-14.8,80.6,1023,2018,5,1,22,23,26.451,0.7891,0.0208,-0.6026,-0.1169
0.052,-0.484,0.048,9.7,-10,75.8,1023,2018,5,1,22,23,26.473,0.7864,0.0275,-0.6034,-0.129
0.061,-0.517,0.06,8.8,-8.6,68.5,1023,2018,5,1,22,23,26.477,0.7837,0.0341,-0.604,-0.14
0.074,-0.555,0.066,8.6,-9.6,58.6,1023,2018,5,1,22,23,26.517,0.7813,0.0396,-0.6045,-0.1498
0.08,-0.604,0.079,8.4,-7.2,46.7,1023,2018,5,1,22,23,26.537,0.779,0.0442,-0.605,-0.1581
0.081,-0.637,0.089,8.5,0.3,32.4,0,2018,5,1,22,23,26.541,0.777,0.048,-0.6057,-0.1641
0.077,-0.651,0.112,7.9,8.7,16.7,0,2018,5,1,22,23,26.56,0.7754,0.0512,-0.6067,-0.167
0.084,-0.647,0.121,6.9,14.5,0,0,2018,5,1,22,23,26.58,0.7743,0.0538,-0.6079,-0.1669
0.076,-0.648,0.127,5.8,20.8,-16.6,0,2018,5,1,22,23,26.618,0.7737,0.0552,-0.6094,-0.164
0.053,-0.635,0.126,4.3,27.8,-32.5,0,2018,5,1,22,23,26.622,0.7736,0.0561,-0.611,-0.1582
-0.021,-0.627,0.131,2.3,36.2,-46.1,0,2018,5,1,22,23,26.637,0.7739,0.0566,-0.6126,-0.1496
-0.144,-0.623,0.154,-1.8,49.3,-56.7,0,2018,5,1,22,23,26.674,0.7748,0.0572,-0.6142,-0.1381
-0.236,-0.603,0.18,-8.8,63.2,-64.9,0,2018,5,1,22,23,26.696,0.7761,0.0589,-0.6153,-0.1238
-0.276,-0.552,0.18,-16.3,70.1,-72.2,0,2018,5,1,22,23,26.698,0.7782,0.0613,-0.6157,-0.1072
-0.238,-0.482,0.149,-22.7,66.6,-81.4,0,2018,5,1,22,23,26.737,0.7808,0.0632,-0.615,-0.0892
-0.185,-0.43,0.119,-26.8,54.7,-93.5,0,2018,5,1,22,23,26.756,0.784,0.0629,-0.6133,-0.0707
-0.126,-0.388,0.1,-29.8,43.3,-109,0,2018,5,1,22,23,26.76,0.7876,0.0593,-0.611,-0.0514
-0.085,-0.338,0.073,-32.4,36.6,-126,0,2018,5,1,22,23,26.798,0.7914,0.0527,-0.6082,-0.0307
-0.11,-0.301,0.049,-35.4,36.8,-142.4,0,2018,5,1,22,23,26.818,0.7951,0.044,-0.6047,-0.0081
-0.21,-0.237,0.024,-39.3,45.1,-155.1,0,2018,5,1,22,23,26.822,0.7986,0.0344,-0.6005,0.017
-0.365,-0.166,-0.007,-43.5,54.7,-161.3,0,2018,5,1,22,23,26.84,0.8018,0.0249,-0.5953,0.0446
-0.488,-0.092,-0.041,-47.8,64.8,-159.4,0,2018,5,1,22,23,26.86,0.8042,0.016,-0.5893,0.0739
-0.532,-0.024,-0.069,-51.8,67.9,-152.1,0,2018,5,1,22,23,26.878,0.8063,0.0085,-0.5823,0.1029
-0.481,0.027,-0.094,-55.1,63.7,-141.6,0,2018,5,1,22,23,26.896,0.8086,0.002,-0.5736,0.1304
-0.386,0.097,-0.12,-57.5,47.9,-131.7,0,2018,5,1,22,23,26.939,0.8108,-0.0047,-0.5642,0.1552
-0.28,0.179,-0.171,-57.1,19,-124.6,0,2018,5,1,22,23,26.959,0.8128,-0.0139,-0.5549,0.1765
-0.181,0.224,-0.222,-52.9,-12.7,-120.2,0,2018,5,1,22,23,26.963,0.8141,-0.0271,-0.5466,0.1938
-0.113,0.236,-0.276,-46.1,-36.2,-118,0,2018,5,1,22,23,26.983,0.8144,-0.0438,-0.5398,0.208
-0.062,0.233,-0.32,-37.3,-44.9,-114.6,0,2018,5,1,22,23,27.003,0.8136,-0.0623,-0.5344,0.2202
-0.014,0.217,-0.354,-28.2,-35.2,-108.1,0,2018,5,1,22,23,27.04,0.8117,-0.0798,-0.53,0.2318
0.039,0.206,-0.364,-19.5,-7.3,-97.6,1023,2018,5,1,22,23,27.044,0.8093,-0.0934,-0.526,0.244
0.067,0.213,-0.348,-12.8,28.2,-84.5,1023,2018,5,1,22,23,27.061,0.8069,-0.1006,-0.5218,0.2576
0.072,0.265,-0.339,-7.7,52.8,-69.6,1023,2018,5,1,22,23,27.079,0.805,-0.102,-0.5171,0.272
0.065,0.285,-0.34,-4,71,-53.5,1023,2018,5,1,22,23,27.117,0.8037,-0.099,-0.5121,0.2862
0.06,0.331,-0.355,0,75.9,-36.9,1023,2018,5,1,22,23,27.137,0.8028,-0.0922,-0.5074,0.2991
0.062,0.346,-0.356,4.6,68.6,-20.2,1023,2018,5,1,22,23,27.141,0.8022,-0.0843,-0.5034,0.3095
0.046,0.333,-0.342,9.5,56.4,-4.9,1023,2018,5,1,22,23,27.161,0.8017,-0.076,-0.501,0.3167
0.023,0.324,-0.333,14.1,42.3,9.2,1023,2018,5,1,22,23,27.181,0.8015,-0.0682,-0.4999,0.3208
0,0.309,-0.317,18.3,28.1,21.3,1023,2018,5,1,22,23,27.219,0.8013,-0.061,-0.5005,0.3218
-0.021,0.288,-0.291,21.3,16.8,31.6,1023,2018,5,1,22,23,27.24,0.8013,-0.0543,-0.5024,0.3201
-0.038,0.278,-0.27,23.9,7.5,40.3,1023,2018,5,1,22,23,27.244,0.8014,-0.0482,-0.5052,0.3163
-0.091,0.279,-0.26,27.3,-3.4,49.5,0,2018,5,1,22,23,27.283,0.8016,-0.0425,-0.5091,0.3104
-0.146,0.289,-0.258,31.2,-18.2,60.8,0,2018,5,1,22,23,27.302,0.8018,-0.0375,-0.5142,0.3018
-0.205,0.306,-0.221,35.3,-36.1,73.7,0,2018,5,1,22,23,27.306,0.8021,-0.0335,-0.5207,0.2902
-0.262,0.292,-0.177,39,-55.1,89.4,0,2018,5,1,22,23,27.323,0.8025,-0.0306,-0.5287,0.2746
-0.297,0.276,-0.123,41.5,-65.7,105.3,0,2018,5,1,22,23,27.34,0.8029,-0.0278,-0.5378,0.2554
-0.33,0.238,-0.062,42,-71,120.9,0,2018,5,1,22,23,27.361,0.8034,-0.0247,-0.5473,0.2331
-0.31,0.192,-0.028,40,-71.4,133.6,0,2018,5,1,22,23,27.382,0.8041,-0.0208,-0.5563,0.2084
-0.23,0.147,-0.03,38.3,-70.6,142.1,0,2018,5,1,22,23,27.403,0.8047,-0.0156,-0.5647,0.1821
-0.158,0.077,-0.047,37.8,-67.3,146.2,0,2018,5,1,22,23,27.443,0.805,-0.0096,-0.5725,0.1549
-0.113,0.014,-0.02,37.3,-58.6,145.5,0,2018,5,1,22,23,27.462,0.8045,-0.0026,-0.5799,0.1281
-0.116,-0.027,0.002,36.5,-48.4,143.2,0,2018,5,1,22,23,27.466,0.8034,0.0049,-0.5863,0.1027
-0.181,-0.076,0.012,36.1,-40.1,142.7,0,2018,5,1,22,23,27.502,0.8019,0.0132,-0.592,0.0787
-0.278,-0.162,0.044,36.2,-33.2,145.4,0,2018,5,1,22,23,27.522,0.7997,0.0223,-0.5973,0.0556
-0.334,-0.238,0.108,35.8,-26.3,149.6,0,2018,5,1,22,23,27.527,0.7972,0.0322,-0.6019,0.033
-0.324,-0.329,0.158,34.7,-19.3,152.5,0,2018,5,1,22,23,27.542,0.7941,0.0449,-0.6059,0.0094
-0.243,-0.42,0.199,33.1,-13.8,150.1,0,2018,5,1,22,23,27.562,0.7906,0.0585,-0.6093,-0.0135
-0.165,-0.5,0.228,31.4,-8.8,141.5,0,2018,5,1,22,23,27.583,0.7867,0.0721,-0.612,-0.0351
-0.087,-0.571,0.243,29.7,-1.8,127.1,0,2018,5,1,22,23,27.603,0.7824,0.0851,-0.6144,-0.0544
-0.048,-0.644,0.266,26.7,12.9,108,0,2018,5,1,22,23,27.643,0.7781,0.0978,-0.6164,-0.0702
0,-0.681,0.252,24,31.8,86.5,0,2018,5,1,22,23,27.661,0.7736,0.1108,-0.6184,-0.0813
0.013,-0.735,0.268,20.8,52.6,64.4,0,2018,5,1,22,23,27.665,0.7692,0.124,-0.6206,-0.0871
0.026,-0.721,0.291,17,65.5,42,0,2018,5,1,22,23,27.701,0.765,0.1373,-0.6229,-0.088
0.05,-0.709,0.295,13.2,65.9,22.7,0,2018,5,1,22,23,27.72,0.7613,0.1491,-0.6252,-0.0853
0.064,-0.714,0.308,9.3,65.8,5.5,1023,2018,5,1,22,23,27.724,0.758,0.1591,-0.6273,-0.0802
0.081,-0.723,0.321,4.9,65.2,-9.2,1023,2018,5,1,22,23,27.762,0.7555,0.167,-0.6292,-0.0728
0.101,-0.738,0.315,0.1,70.4,-22,1023,2018,5,1,22,23,27.764,0.7534,0.1738,-0.6309,-0.0633
0.109,-0.742,0.307,-4.3,82.9,-33.9,1023,2018,5,1,22,23,27.782,0.7516,0.1805,-0.6323,-0.051
0.097,-0.734,0.288,-8.8,100.2,-44.9,1023,2018,5,1,22,23,27.82,0.7497,0.188,-0.6334,-0.0354
0.074,-0.713,0.267,-13.5,119.4,-55.2,1023,2018,5,1,22,23,27.842,0.7475,0.1968,-0.6341,-0.0162
0.061,-0.673,0.238,-18.2,136.4,-65.7,1023,2018,5,1,22,23,27.844,0.7448,0.2069,-0.6343,0.0064
0.057,-0.622,0.226,-22.6,148.7,-76.2,1023,2018,5,1,22,23,27.879,0.7415,0.2175,-0.6338,0.0323
0.027,-0.57,0.199,-27,157.9,-86.1,0,2018,5,1,22,23,27.9,0.7376,0.2281,-0.6325,0.0608
-0.029,-0.516,0.187,-31.8,162.9,-94.6,0,2018,5,1,22,23,27.906,0.7331,0.2384,-0.6302,0.0914
-0.102,-0.464,0.162,-36.8,164.7,-99.8,0,2018,5,1,22,23,27.943,0.7281,0.2481,-0.6269,0.1233
-0.246,-0.434,0.145,-42.9,167.6,-101.6,0,2018,5,1,22,23,27.962,0.7226,0.2573,-0.6222,0.156
-0.343,-0.389,0.162,-52.7,171.8,-100.3,0,2018,5,1,22,23,27.965,0.7169,0.2664,-0.6158,0.1892
-0.422,-0.27,0.138,-66.4,153.7,-95.1,0,2018,5,1,22,23,28,0.7118,0.2747,-0.607,0.2218
-0.409,-0.194,0.008,-78.2,110.8,-87.2,0,2018,5,1,22,23,28.021,0.7092,0.2788,-0.5969,0.2505
-0.366,-0.184,-0.109,-83.7,64.3,-78.9,0,2018,5,1,22,23,28.022,0.7096,0.2774,-0.587,0.2735
-0.311,-0.192,-0.163,-84.9,28.3,-74.2,0,2018,5,1,22,23,28.057,0.7122,0.2712,-0.578,0.2916
-0.291,-0.246,-0.17,-86,7.6,-74.2,0,2018,5,1,22,23,28.077,0.716,0.2616,-0.57,0.3063
-0.28,-0.263,-0.221,-87,-3.6,-77.8,0,2018,5,1,22,23,28.085,0.7202,0.2499,-0.5625,0.3199
-0.238,-0.255,-0.304,-83.5,-14.1,-83.6,0,2018,5,1,22,23,28.121,0.7243,0.236,-0.5557,0.3327
-0.257,-0.251,-0.365,-77.4,-13.2,-89.9,0,2018,5,1,22,23,28.141,0.7273,0.2212,-0.55,0.3455
-0.272,-0.217,-0.421,-71.3,-5.6,-95.2,0,2018,5,1,22,23,28.145,0.729,0.2067,-0.5446,0.3592
-0.269,-0.184,-0.474,-63.7,3.6,-98.3,0,2018,5,1,22,23,28.181,0.7291,0.1934,-0.5395,0.3738
-0.248,-0.157,-0.528,-55.2,13,-99.5,0,2018,5,1,22,23,28.203,0.7276,0.1816,-0.5347,0.3892
-0.226,-0.134,-0.559,-46.6,22.3,-99.3,0,2018,5,1,22,23,28.21,0.7247,0.1715,-0.5302,0.405
-0.213,-0.104,-0.573,-38.1,31.2,-98.2,0,2018,5,1,22,23,28.224,0.7205,0.1632,-0.5259,0.4212
-0.196,-0.077,-0.583,-30.6,37.3,-97,0,2018,5,1,22,23,28.261,0.7152,0.1563,-0.5218,0.4376
-0.205,-0.045,-0.617,-22.4,37.3,-94.6,0,2018,5,1,22,23,28.281,0.7091,0.1504,-0.5182,0.4537
-0.217,-0.062,-0.645,-13.4,37.1,-93.9,0,2018,5,1,22,23,28.287,0.7021,0.1453,-0.5155,0.4691
-0.24,-0.049,-0.656,-3,30.6,-96.7,0,2018,5,1,22,23,28.321,0.6939,0.1406,-0.5142,0.484
-0.227,-0.021,-0.669,8.6,20.8,-101.1,0,2018,5,1,22,23,28.343,0.6844,0.1352,-0.5148,0.4981
-0.224,0.012,-0.671,21.7,13,-105.8,0,2018,5,1,22,23,28.348,0.6734,0.1293,-0.5176,0.5115
-0.218,0.039,-0.653,35.8,9.5,-109.2,1023,2018,5,1,22,23,28.385,0.6609,0.1233,-0.5224,0.5244
-0.247,0.057,-0.612,49.3,12.9,-110.9,1023,2018,5,1,22,23,28.405,0.6464,0.1185,-0.5287,0.5371
-0.288,0.098,-0.57,62.2,21.5,-112.6,1023,2018,5,1,22,23,28.41,0.6303,0.1153,-0.5355,0.55
-0.28,0.178,-0.529,75.3,26.5,-114.4,1023,2018,5,1,22,23,28.447,0.6122,0.114,-0.5429,0.5633
-0.265,0.22,-0.515,87.9,31.5,-113.2,1023,2018,5,1,22,23,28.466,0.5925,0.1143,-0.551,0.5764
-0.253,0.291,-0.456,100.8,44.3,-110.3,1023,2018,5,1,22,23,28.471,0.5711,0.1168,-0.5589,0.5896
-0.195,0.446,-0.355,107.8,56.2,-97.8,1023,2018,5,1,22,23,28.486,0.5489,0.1223,-0.566,0.6027
-0.091,0.576,-0.345,112,69.2,-71.1,1023,2018,5,1,22,23,28.521,0.5277,0.1313,-0.5715,0.6144
-0.114,0.543,-0.324,118.5,94.7,-43.5,1023,2018,5,1,22,23,28.541,0.5082,0.1454,-0.5744,0.6249
-0.155,0.516,-0.272,124.9,120,-20,0,2018,5,1,22,23,28.547,0.4897,0.165,-0.5738,0.6353
-0.173,0.524,-0.15,128.6,138.7,1.5,0,2018,5,1,22,23,28.586,0.4722,0.189,-0.5701,0.6451
-0.253,0.477,0.067,119,165.3,17.2,0,2018,5,1,22,23,28.605,0.4559,0.2163,-0.5622,0.6551
-0.162,0.518,0.079,105.6,172.7,28.6,0,2018,5,1,22,23,28.61,0.441,0.2446,-0.5501,0.6655
-0.117,0.485,0.009,99.3,154.7,40.7,0,2018,5,1,22,23,28.651,0.4281,0.2721,-0.5369,0.6739
-0.137,0.414,0.003,97,128.1,51.2,0,2018,5,1,22,23,28.672,0.4176,0.2984,-0.5251,0.6788
-0.145,0.377,0.034,96.4,94.2,61.5,0,2018,5,1,22,23,28.676,0.4096,0.3229,-0.5158,0.6795
-0.16,0.318,0.042,96.7,60,71.6,0,2018,5,1,22,23,28.693,0.4044,0.3458,-0.5098,0.6759
-0.163,0.185,0.038,97.8,42,80.2,0,2018,5,1,22,23,28.71,0.4015,0.3675,-0.5063,0.6687
-0.14,0.051,0.067,99.7,45.3,85.5,0,2018,5,1,22,23,28.747,0.3999,0.3897,-0.5024,0.66
-0.216,-0.144,0.198,98.4,84.4,80.9,0,2018,5,1,22,23,28.768,0.3968,0.4125,-0.4954,0.6533
-0.145,-0.179,0.318,92.7,134.5,64.4,0,2018,5,1,22,23,28.772,0.3887,0.4372,-0.4838,0.6508
-0.054,-0.181,0.336,85.1,170.8,37.7,0,2018,5,1,22,23,28.793,0.3747,0.462,-0.4683,0.6532
0.002,-0.057,0.356,77.1,196.1,5.3,0,2018,5,1,22,23,28.812,0.3551,0.4849,-0.4505,0.66
0.03,0.224,0.348,70,186.1,-18.6,0,2018,5,1,22,23,28.85,0.3317,0.5043,-0.4331,0.6692
0.004,0.384,0.39,61,144.3,-28.5,0,2018,5,1,22,23,28.871,0.309,0.5196,-0.4194,0.6771
-0.065,0.457,0.307,55.5,80.1,-27.7,0,2018,5,1,22,23,28.876,0.2912,0.5301,-0.4116,0.6816
-0.123,0.547,0.488,41.2,-11,-10.3,0,2018,5,1,22,23,28.894,0.2825,0.5359,-0.4129,0.68
-0.127,0.283,0.774,22.8,-22.4,8.4,0,2018,5,1,22,23,28.914,0.2822,0.5387,-0.4173,0.6751
-0.299,0.234,0.805,8.1,8.3,29.9,0,2018,5,1,22,23,28.93,0.284,0.5415,-0.4169,0.6724
-0.246,0.272,0.8,3.3,6.3,50,0,2018,5,1,22,23,28.968,0.2874,0.5456,-0.412,0.6707
-0.123,0.173,0.697,3.7,2,65.8,0,2018,5,1,22,23,28.988,0.2939,0.5503,-0.406,0.6676
-0.047,0.116,0.557,7.9,-0.1,68.8,0,2018,5,1,22,23,28.993,0.3012,0.556,-0.3998,0.6634
-0.012,-0.043,0.436,4.9,44,68.7,0,2018,5,1,22,23,29.031,0.3068,0.5626,-0.3911,0.6605
0.062,-0.1,0.325,-0.7,88.7,63.6,0,2018,5,1,22,23,29.05,0.3075,0.571,-0.3767,0.6613
0.058,-0.085,0.2,-5.3,120.1,58.5,1023,2018,5,1,22,23,29.054,0.304,0.5801,-0.3581,0.6653
0.088,-0.098,0.114,-7.3,127.9,56.4,1023,2018,5,1,22,23,29.092,0.2982,0.5895,-0.3372,0.6706
0.122,-0.144,0.092,-7.3,119.8,54.3,1023,2018,5,1,22,23,29.112,0.2922,0.5982,-0.3164,0.6756
0.131,-0.201,0.128,-8.2,106.9,51,1023,2018,5,1,22,23,29.116,0.2869,0.6058,-0.2971,0.6798
0.134,-0.233,0.161,-10.6,90.3,46.6,1023,2018,5,1,22,23,29.135,0.2827,0.612,-0.2797,0.6834
0.125,-0.259,0.162,-11.6,70.1,42.3,1023,2018,5,1,22,23,29.156,0.28,0.6167,-0.2649,0.6862
0.119,-0.302,0.167,-11.7,50.4,38.6,1023,2018,5,1,22,23,29.177,0.2789,0.62,-0.2528,0.6882
0.105,-0.362,0.182,-12.7,32.8,33.2,1023,2018,5,1,22,23,29.198,0.2793,0.6221,-0.2433,0.6896
0.11,-0.421,0.168,-13.5,19.1,24.8,1023,2018,5,1,22,23,29.215,0.2806,0.623,-0.2365,0.6907
0.105,-0.45,0.116,-13.1,8.7,13.9,0,2018,5,1,22,23,29.233,0.2821,0.6228,-0.2321,0.6917
0.098,-0.467,0.072,-11.6,6.2,1.1,0,2018,5,1,22,23,29.272,0.2827,0.6219,-0.2299,0.693
0.085,-0.48,0.031,-9.5,13.7,-13.6,0,2018,5,1,22,23,29.291,0.2814,0.6209,-0.229,0.6948
0.093,-0.477,-0.017,-6.8,27.5,-29.5,0,2018,5,1,22,23,29.295,0.2768,0.62,-0.2284,0.6976
0.081,-0.459,-0.041,-3,42.8,-45.3,0,2018,5,1,22,23,29.334,0.2684,0.6197,-0.228,0.7013
0.073,-0.425,-0.052,0.9,58.4,-61.1,0,2018,5,1,22,23,29.354,0.2562,0.6198,-0.2275,0.7059
0.069,-0.363,-0.051,4.4,69.3,-73.8,0,2018,5,1,22,23,29.359,0.2404,0.6203,-0.227,0.7111
0.022,-0.304,-0.072,7.8,70.9,-83.2,0,2018,5,1,22,23,29.375,0.2224,0.6209,-0.2271,0.7164
-0.043,-0.288,-0.061,10.6,71.2,-89,0,2018,5,1,22,23,29.413,0.203,0.6214,-0.228,0.7214
-0.105,-0.264,-0.054,12.6,73.3,-93.6,0,2018,5,1,22,23,29.415,0.1828,0.6218,-0.2293,0.7261
-0.138,-0.245,-0.037,13.7,76.2,-96.4,0,2018,5,1,22,23,29.432,0.1618,0.622,-0.2307,0.7305
-0.159,-0.225,0.006,13.1,80.5,-98.5,0,2018,5,1,22,23,29.473,0.1399,0.6219,-0.2317,0.7347
-0.167,-0.205,0.031,10,85.4,-100,0,2018,5,1,22,23,29.475,0.1171,0.621,-0.2325,0.7392
-0.169,-0.165,0.047,5.6,89.8,-102.1,0,2018,5,1,22,23,29.495,0.0937,0.6192,-0.2325,0.7441
-0.18,-0.13,0.069,-0.2,86.8,-106,0,2018,5,1,22,23,29.516,0.0703,0.6161,-0.2322,0.7492
-0.208,-0.079,0.085,-7,75.6,-111,0,2018,5,1,22,23,29.535,0.0477,0.6117,-0.2327,0.7545
-0.292,-0.064,0.098,-14.5,60.6,-115.3,0,2018,5,1,22,23,29.576,0.0264,0.6058,-0.2351,0.7595
-0.399,-0.077,0.074,-21.5,49.2,-121.9,0,2018,5,1,22,23,29.595,0.0063,0.5986,-0.2395,0.7643
-0.463,-0.043,0.014,-25.4,39.2,-128.8,0,2018,5,1,22,23,29.599,-0.0131,0.5905,-0.2458,0.7685
-0.506,-0.014,-0.016,-25.8,35.7,-135.8,0,2018,5,1,22,23,29.62,-0.0326,0.5818,-0.2536,0.772
-0.531,0.051,-0.033,-25.2,35.4,-143.6,0,2018,5,1,22,23,29.635,-0.0539,0.5717,-0.263,0.7752
-0.469,0.124,-0.071,-22.5,33.3,-150,0,2018,5,1,22,23,29.657,-0.076,0.5612,-0.2732,0.7775
-0.388,0.188,-0.087,-18.7,31.8,-155.7,0,2018,5,1,22,23,29.675,-0.099,0.5504,-0.284,0.7787
-0.322,0.256,-0.108,-14.8,30.8,-161.1,0,2018,5,1,22,23,29.697,-0.1224,0.5395,-0.295,0.7789
-0.275,0.317,-0.141,-10.3,28.6,-163.9,0,2018,5,1,22,23,29.717,-0.1464,0.5285,-0.3064,0.7779
-0.247,0.37,-0.172,-6.3,28.2,-163.3,0,2018,5,1,22,23,29.756,-0.1703,0.5177,-0.3176,0.7759
-0.227,0.417,-0.206,-3.1,31.7,-158.6,1023,2018,5,1,22,23,29.759,-0.1944,0.507,-0.3281,0.7729
-0.205,0.468,-0.233,-0.7,37.2,-149.9,1023,2018,5,1,22,23,29.776,-0.2179,0.4965,-0.3369,0.7696
-0.19,0.518,-0.252,0.7,42,-136.9,1023,2018,5,1,22,23,29.816,-0.2403,0.4864,-0.3437,0.7664
-0.178,0.561,-0.27,1.7,44.5,-119.8,1023,2018,5,1,22,23,29.835,-0.2609,0.4769,-0.3486,0.7634
-0.176,0.587,-0.258,0.9,45.6,-99.6,1023,2018,5,1,22,23,29.839,-0.2789,0.4683,-0.3514,0.7611
-0.17,0.62,-0.26,-1.5,41.2,-77.1,1023,2018,5,1,22,23,29.861,-0.294,0.4606,-0.3526,0.7595
-0.136,0.641,-0.284,-3,28.4,-52.7,1023,2018,5,1,22,23,29.878,-0.3048,0.4545,-0.3531,0.7587
-0.101,0.649,-0.315,-1.7,12.3,-28.7,1023,2018,5,1,22,23,29.897,-0.3112,0.4506,-0.3536,0.7582
-0.074,0.637,-0.318,1.4,-2.4,-5.2,0,2018,5,1,22,23,29.927,-0.3137,0.4493,-0.3543,0.7576
-0.083,0.604,-0.299,5,-10.4,16.5,0,2018,5,1,22,23,29.938,-0.3123,0.4506,-0.3545,0.7574
-0.113,0.573,-0.271,8,-7.4,37.3,0,2018,5,1,22,23,29.958,-0.308,0.4536,-0.3532,0.7579
-0.205,0.543,-0.245,11,1.8,57.1,0,2018,5,1,22,23,29.979,-0.3018,0.458,-0.3492,0.7596
-0.267,0.532,-0.222,14.2,12.5,75.7,0,2018,5,1,22,23,30.001,-0.2943,0.4633,-0.3421,0.7625
-0.332,0.52,-0.215,18.8,21.7,94.7,0,2018,5,1,22,23,30.021,-0.2853,0.4697,-0.332,0.7665
-0.429,0.49,-0.182,25.6,27.4,113.3,0,2018,5,1,22,23,30.056,-0.2745,0.4774,-0.3188,0.7713
-0.477,0.466,-0.138,34.3,31.7,129.9,0,2018,5,1,22,23,30.077,-0.2622,0.4867,-0.3032,0.776
-0.5,0.424,-0.087,43.6,33.9,143.7,0,2018,5,1,22,23,30.082,-0.2484,0.4976,-0.2852,0.7805
-0.503,0.365,-0.023,52.7,37.5,152.7,0,2018,5,1,22,23,30.098,-0.2335,0.5099,-0.2652,0.7842
-0.457,0.287,0.064,59.8,44.8,155.9,0,2018,5,1,22,23,30.136,-0.2185,0.5229,-0.2434,0.787
-0.374,0.224,0.147,63.3,55.6,151.2,0,2018,5,1,22,23,30.156,-0.2045,0.5358,-0.2199,0.789
-0.261,0.216,0.174,63.4,60.3,141.3,0,2018,5,1,22,23,30.16,-0.1924,0.5478,-0.1958,0.7902
-0.178,0.214,0.133,63.7,52.5,130.1,0,2018,5,1,22,23,30.2,-0.1812,0.559,-0.1728,0.7903
-0.162,0.188,0.119,63.5,43.9,119.9,0,2018,5,1,22,23,30.22,-0.1704,0.5699,-0.1519,0.7893
-0.191,0.162,0.121,62.5,34.3,113.6,0,2018,5,1,22,23,30.225,-0.1597,0.5803,-0.1329,0.7873
-0.241,0.123,0.161,59.9,20.2,111.1,0,2018,5,1,22,23,30.241,-0.1484,0.5904,-0.116,0.7847
-0.242,0.067,0.215,54.8,1.1,110.3,0,2018,5,1,22,23,30.277,-0.1352,0.6001,-0.1016,0.7817
-0.196,0.009,0.254,48.6,-21,110.7,0,2018,5,1,22,23,30.298,-0.1199,0.6092,-0.0902,0.7786
-0.118,-0.051,0.299,42.8,-44.6,108.8,0,2018,5,1,22,23,30.302,-0.1022,0.6177,-0.082,0.7753
-0.042,-0.093,0.312,36.7,-79.3,106.5,0,2018,5,1,22,23,30.319,-0.0814,0.6255,-0.0784,0.7719
0.008,-0.206,0.309,29.3,-71.5,98.6,0,2018,5,1,22,23,30.359,-0.0599,0.6322,-0.0772,0.7685
0.056,-0.23,0.321,23.2,-72.7,89,0,2018,5,1,22,23,30.377,-0.0401,0.6376,-0.0761,0.7655
0.094,-0.311,0.309,18.2,-69.5,77.2,0,2018,5,1,22,23,30.382,-0.0216,0.6418,-0.0765,0.7626
0.118,-0.357,0.29,12.3,-54.8,63.6,1023,2018,5,1,22,23,30.42,-0.0059,0.6449,-0.077,0.7602
0.122,-0.361,0.294,6.2,-37.3,48.8,1023,2018,5,1,22,23,30.44,0.0061,0.6469,-0.0768,0.7586
0.138,-0.319,0.281,1.1,-32.6,33.7,1023,2018,5,1,22,23,30.445,0.0149,0.6478,-0.0767,0.7577
0.158,-0.318,0.272,-2.2,-36.8,20.3,1023,2018,5,1,22,23,30.463,0.0219,0.648,-0.0785,0.7572
0.174,-0.321,0.266,-4.9,-41.6,7.4,1023,2018,5,1,22,23,30.483,0.0278,0.6475,-0.0823,0.757
0.178,-0.309,0.247,-6.3,-46.2,-4.2,1023,2018,5,1,22,23,30.522,0.0327,0.6466,-0.088,0.757
0.175,-0.321,0.215,-7.2,-48.2,-13.9,1023,2018,5,1,22,23,30.54,0.0366,0.6452,-0.0955,0.757
0.154,-0.331,0.194,-7.4,-41.6,-22.2,1023,2018,5,1,22,23,30.545,0.039,0.6436,-0.1036,0.7572
0.132,-0.33,0.204,-8.9,-29.3,-29.9,1023,2018,5,1,22,23,30.565,0.0392,0.6418,-0.1114,0.7576
0.095,-0.295,0.215,-11.4,-18.3,-36.6,1023,2018,5,1,22,23,30.585,0.037,0.6397,-0.1183,0.7585
0.072,-0.257,0.21,-13.2,-16.4,-41.7,0,2018,5,1,22,23,30.603,0.0334,0.6371,-0.125,0.7597
0.048,-0.246,0.208,-14.8,-14.3,-46.6,0,2018,5,1,22,23,30.623,0.029,0.6342,-0.1321,0.7611
0.029,-0.218,0.202,-16.2,-12.9,-52.9,0,2018,5,1,22,23,30.642,0.0237,0.6309,-0.1395,0.7628
-0.035,-0.198,0.182,-16.5,-12.3,-59.2,0,2018,5,1,22,23,30.681,0.0176,0.6273,-0.1475,0.7644
-0.234,-0.17,0.214,-19,5.3,-68.6,0,2018,5,1,22,23,30.703,0.0012,0.6191,-0.163,0.7681
-0.319,-0.148,0.217,-21.5,15.3,-70.4,0,2018,5,1,22,23,30.707,-0.009,0.6138,-0.1691,0.771
-0.348,-0.115,0.204,-24.8,23.5,-73.6,0,2018,5,1,22,23,30.724,-0.0202,0.6077,-0.1737,0.7745
-0.314,-0.081,0.176,-27.4,28,-79.2,0,2018,5,1,22,23,30.759,-0.0326,0.6012,-0.1779,0.7783
-0.254,-0.034,0.148,-29.4,30,-90,0,2018,5,1,22,23,30.781,-0.046,0.5941,-0.1821,0.7821
-0.18,0.017,0.114,-30.8,30.1,-105.3,0,2018,5,1,22,23,30.785,-0.0612,0.5862,-0.1874,0.7857
-0.111,0.072,0.071,-31.8,31.5,-123.6,0,2018,5,1,22,23,30.825,-0.0786,0.5776,-0.1941,0.7889
-0.114,0.125,0.021,-32.1,34,-141.7,0,2018,5,1,22,23,30.829,-0.0983,0.5683,-0.202,0.7914
-0.199,0.176,-0.003,-32.4,41.4,-156.3,0,2018,5,1,22,23,30.844,-0.1218,0.5577,-0.2122,0.793
-0.317,0.259,-0.039,-33,49.1,-163,0,2018,5,1,22,23,30.863,-0.1475,0.546,-0.2222,0.7941
-0.46,0.328,-0.072,-33.1,55.4,-158,0,2018,5,1,22,23,30.884,-0.1735,0.5335,-0.2311,0.7948
-0.525,0.368,-0.086,-34.5,61.6,-143,0,2018,5,1,22,23,30.917,-0.1985,0.5207,-0.2379,0.7955
-0.532,0.387,-0.081,-37.5,64.1,-122.7,0,2018,5,1,22,23,30.94,-0.2212,0.5078,-0.2424,0.7965
-0.474,0.41,-0.084,-41.3,56.7,-100.2,0,2018,5,1,22,23,30.948,-0.2403,0.4951,-0.2452,0.798
-0.367,0.46,-0.114,-45.9,36.5,-81.4,0,2018,5,1,22,23,30.968,-0.2551,0.4831,-0.2482,0.7999
-0.251,0.528,-0.182,-46.9,3.1,-67.7,0,2018,5,1,22,23,30.988,-0.2647,0.4724,-0.2536,0.8014
-0.162,0.552,-0.229,-43.8,-30.9,-58.8,0,2018,5,1,22,23,31.008,-0.2701,0.4639,-0.263,0.8015
-0.106,0.534,-0.257,-38.8,-51.8,-53.9,0,2018,5,1,22,23,31.023,-0.2725,0.4575,-0.2755,0.8002
-0.091,0.527,-0.261,-33,-58.3,-50.5,0,2018,5,1,22,23,31.063,-0.2735,0.4526,-0.2892,0.7978
-0.107,0.496,-0.25,-27.4,-51,-45.7,0,2018,5,1,22,23,31.084,-0.2744,0.4486,-0.3022,0.7949
-0.128,0.501,-0.242,-24.4,-30.9,-37.4,1023,2018,5,1,22,23,31.088,-0.2756,0.4448,-0.3124,0.7927
-0.139,0.546,-0.24,-22.4,-14.5,-24.6,1023,2018,5,1,22,23,31.105,-0.2771,0.4409,-0.319,0.7918
-0.156,0.578,-0.238,-21,-10.1,-6.6,1023,2018,5,1,22,23,31.147,-0.2773,0.4376,-0.3229,0.7919
-0.159,0.596,-0.231,-20.1,-10.9,14.6,1023,2018,5,1,22,23,31.151,-0.2749,0.4355,-0.3249,0.7931
-0.156,0.609,-0.223,-19.3,-20.9,38.7,1023,2018,5,1,22,23,31.166,-0.269,0.435,-0.326,0.7949
-0.155,0.595,-0.216,-18.9,-35.2,64.5,1023,2018,5,1,22,23,31.207,-0.2588,0.4366,-0.3269,0.7971
-0.179,0.559,-0.206,-18.9,-48.3,90.8,1023,2018,5,1,22,23,31.227,-0.2438,0.4404,-0.3278,0.7994
-0.198,0.522,-0.194,-20.2,-55.6,117,1023,2018,5,1,22,23,31.231,-0.2243,0.4458,-0.3279,0.802
-0.211,0.485,-0.173,-22.5,-60.4,141.7,1023,2018,5,1,22,23,31.252,-0.2005,0.4524,-0.3269,0.805
-0.228,0.438,-0.147,-25.9,-61.8,164.7,1023,2018,5,1,22,23,31.269,-0.1728,0.4598,-0.3241,0.8084
-0.252,0.402,-0.116,-30.9,-64.6,185,0,2018,5,1,22,23,31.308,-0.1417,0.4674,-0.3197,0.8118
-0.298,0.375,-0.096,-37.1,-73.9,203.2,0,2018,5,1,22,23,31.312,-0.1065,0.4748,-0.3142,0.8151
-0.397,0.347,-0.091,-43.8,-92,220.9,0,2018,5,1,22,23,31.329,-0.0671,0.4818,-0.3089,0.8172
-0.539,0.31,-0.108,-51.4,-118.1,238.4,0,2018,5,1,22,23,31.348,-0.0229,0.4881,-0.3047,0.8174
-0.669,0.266,-0.13,-59.1,-155,253.7,0,2018,5,1,22,23,31.387,0.0269,0.4932,-0.303,0.8149
-0.738,0.211,-0.161,-67.1,-205.6,263,0,2018,5,1,22,23,31.407,0.0825,0.4963,-0.3056,0.8083
-0.737,0.152,-0.225,-74.5,-271.2,261.7,0,2018,5,1,22,23,31.412,0.1439,0.4958,-0.3148,0.7964
-0.639,0.096,-0.345,-78.7,-347.4,248.8,0,2018,5,1,22,23,31.43,0.2102,0.49,-0.333,0.7776
-0.538,-0.02,-0.414,-79,-410.2,223.7,0,2018,5,1,22,23,31.449,0.2789,0.4774,-0.3607,0.751
-0.461,-0.14,-0.401,-79.3,-435.1,190.2,0,2018,5,1,22,23,31.484,0.3454,0.4577,-0.3941,0.7182
-0.397,-0.22,-0.368,-80.3,-420.6,153.9,0,2018,5,1,22,23,31.506,0.4054,0.432,-0.4281,0.6823
-0.312,-0.256,-0.354,-81.1,-370.4,121.6,0,2018,5,1,22,23,31.51,0.4564,0.4034,-0.458,0.6473
-0.224,-0.294,-0.395,-79,-290.1,97.1,0,2018,5,1,22,23,31.528,0.4974,0.3759,-0.4804,0.6167
-0.135,-0.331,-0.434,-73.3,-189.7,78.1,0,2018,5,1,22,23,31.549,0.5282,0.354,-0.4931,0.5936
-0.075,-0.302,-0.451,-65.2,-94.4,64.8,0,2018,5,1,22,23,31.57,0.5497,0.3401,-0.4965,0.5792
-0.026,-0.241,-0.436,-55.1,-32,55.8,0,2018,5,1,22,23,31.59,0.5644,0.3335,-0.4931,0.5718
0.004,-0.192,-0.417,-45.2,4,50.8,0,2018,5,1,22,23,31.611,0.5746,0.3319,-0.4861,0.5685
0.024,-0.136,-0.379,-35.6,13.3,48.3,0,2018,5,1,22,23,31.651,0.5822,0.3333,-0.4781,0.5668
0.036,-0.097,-0.348,-26.8,-1.8,47.5,0,2018,5,1,22,23,31.655,0.5891,0.3349,-0.4715,0.5642
0.052,-0.077,-0.335,-19,-31.5,47.4,0,2018,5,1,22,23,31.673,0.5966,0.3348,-0.468,0.5593
0.079,-0.069,-0.338,-11.8,-67.4,46.9,0,2018,5,1,22,23,31.692,0.6053,0.3319,-0.4685,0.5511
0.086,-0.084,-0.345,-5.1,-99.5,47.1,0,2018,5,1,22,23,31.711,0.6153,0.3259,-0.473,0.5396
0.073,-0.097,-0.337,0.3,-124.2,47.5,0,2018,5,1,22,23,31.73,0.6263,0.3174,-0.4806,0.5252
0.062,-0.113,-0.333,5,-139.3,48.8,0,2018,5,1,22,23,31.751,0.6376,0.3071,-0.4903,0.5085
0.055,-0.125,-0.319,9.6,-145.1,50.5,1023,2018,5,1,22,23,31.771,0.6488,0.296,-0.5009,0.4902
0.055,-0.137,-0.31,15,-145.3,53,1023,2018,5,1,22,23,31.79,0.6595,0.285,-0.5119,0.4708
0.083,-0.152,-0.274,21.6,-139.9,55.5,1023,2018,5,1,22,23,31.811,0.6691,0.2748,-0.5229,0.4506
0.053,-0.132,-0.203,27.3,-130.5,60,1023,2018,5,1,22,23,31.831,0.6776,0.2662,-0.5335,0.4302
0.041,-0.131,-0.15,31.6,-121,66.4,1023,2018,5,1,22,23,31.87,0.6853,0.2593,-0.5433,0.4095
0.038,-0.122,-0.102,36.7,-111,73.5,1023,2018,5,1,22,23,31.891,0.6921,0.2545,-0.5524,0.3885
0.04,-0.17,-0.041,42.7,-95.7,81.4,1023,2018,5,1,22,23,31.895,0.6979,0.2521,-0.5606,0.3672
0.049,-0.217,0.021,47.5,-74,87.5,1023,2018,5,1,22,23,31.932,0.7024,0.253,-0.5677,0.3466
0.036,-0.266,0.099,49.6,-46.2,92.1,0,2018,5,1,22,23,31.952,0.7055,0.2574,-0.5732,0.3274
0.027,-0.303,0.159,49.5,-17.8,94.4,0,2018,5,1,22,23,31.957,0.7072,0.2658,-0.5768,0.3104
0.041,-0.254,0.198,49.6,1.1,96,0,2018,5,1,22,23,31.974,0.7075,0.2772,-0.5788,0.2957
0.023,-0.302,0.237,49.9,6.8,95.3,0,2018,5,1,22,23,32.011,0.7071,0.29,-0.58,0.2818
0.008,-0.364,0.305,47.8,11.4,88.1,0,2018,5,1,22,23,32.016,0.706,0.3029,-0.5808,0.269
0.004,-0.377,0.369,46.1,-4,77.6,0,2018,5,1,22,23,32.031,0.7048,0.314,-0.5818,0.2567
-0.002,-0.391,0.402,44.3,-28,66.2,0,2018,5,1,22,23,32.053,0.7043,0.3213,-0.5841,0.2437
-0.029,-0.436,0.438,40.8,-45.8,54.1,0,2018,5,1,22,23,32.074,0.7046,0.3244,-0.5876,0.23
-0.023,-0.492,0.464,34.4,-49.1,41.6,0,2018,5,1,22,23,32.094,0.7053,0.3249,-0.5914,0.217
0.002,-0.538,0.438,26.5,-49.3,28.5,0,2018,5,1,22,23,32.113,0.7063,0.3234,-0.595,0.2058
0.041,-0.552,0.407,17.8,-43.6,13.9,0,2018,5,1,22,23,32.153,0.7073,0.3207,-0.5982,0.1972
0.091,-0.512,0.387,8.9,-43.8,-0.1,0,2018,5,1,22,23,32.173,0.7085,0.3165,-0.6009,0.1912
0.127,-0.469,0.349,0.5,-53.8,-11.9,0,2018,5,1,22,23,32.177,0.7105,0.3099,-0.6034,0.1866
0.127,-0.452,0.301,-6.7,-63,-20.9,0,2018,5,1,22,23,32.197,0.7135,0.3007,-0.6058,0.1827
0.089,-0.459,0.263,-12.8,-67.9,-27.7,0,2018,5,1,22,23,32.216,0.7171,0.2895,-0.6079,0.1793
0.025,-0.464,0.25,-18.8,-69.4,-33.5,0,2018,5,1,22,23,32.231,0.7213,0.2771,-0.6096,0.1766
-0.048,-0.479,0.251,-25.7,-66,-38.7,0,2018,5,1,22,23,32.252,0.7258,0.264,-0.6105,0.175
-0.106,-0.437,0.24,-32.1,-61.5,-43.7,0,2018,5,1,22,23,32.273,0.7305,0.2506,-0.6106,0.1748
-0.153,-0.402,0.213,-36.6,-60.1,-49.2,0,2018,5,1,22,23,32.311,0.7353,0.2368,-0.61,0.1758
-0.187,-0.382,0.18,-39.5,-58.8,-56.2,0,2018,5,1,22,23,32.334,0.7402,0.2223,-0.6091,0.1778
-0.218,-0.354,0.147,-41.2,-54.2,-64.2,0,2018,5,1,22,23,32.338,0.7447,0.2072,-0.6079,0.1811
-0.257,-0.317,0.115,-42.1,-46,-72.2,0,2018,5,1,22,23,32.355,0.7487,0.1921,-0.6064,0.1862
-0.252,-0.265,0.091,-42.7,-39.2,-80.6,0,2018,5,1,22,23,32.375,0.752,0.1771,-0.6047,0.1931
-0.219,-0.211,0.059,-42.6,-34.6,-89.5,0,2018,5,1,22,23,32.415,0.7546,0.1615,-0.6029,0.2019
-0.172,-0.149,0.021,-41.8,-32.7,-98.6,0,2018,5,1,22,23,32.433,0.7564,0.1441,-0.6012,0.2132
-0.128,-0.089,0.001,-40.6,-33.1,-107.7,0,2018,5,1,22,23,32.437,0.7573,0.1262,-0.5997,0.2253
-0.095,-0.032,-0.025,-40,-33.1,-115.3,1023,2018,5,1,22,23,32.453,0.7575,0.1077,-0.5981,0.238
-0.076,0.017,-0.019,-40.8,-32.5,-120.8,1023,2018,5,1,22,23,32.49,0.7571,0.0889,-0.5963,0.2513
-0.058,0.093,-0.053,-41.6,-35.9,-122.5,1023,2018,5,1,22,23,32.509,0.7564,0.07,-0.5941,0.2644
-0.039,0.132,-0.081,-40.4,-40,-119,1023,2018,5,1,22,23,32.515,0.7553,0.0505,-0.5918,0.2767
-0.037,0.167,-0.099,-38.1,-39.5,-111.7,1023,2018,5,1,22,23,32.555,0.7539,0.0314,-0.5894,0.2881
-0.026,0.207,-0.106,-36.3,-36.4,-100.7,1023,2018,5,1,22,23,32.559,0.7524,0.0136,-0.5869,0.2983
-0.013,0.245,-0.118,-34.5,-34.7,-85.8,1023,2018,5,1,22,23,32.579,0.7512,-0.0024,-0.5843,0.307
0.013,0.272,-0.129,-32.4,-33.3,-68.2,1023,2018,5,1,22,23,32.596,0.7503,-0.0164,-0.5816,0.3135
0.047,0.294,-0.136,-29.8,-32.3,-48.5,1023,2018,5,1,22,23,32.634,0.7502,-0.0283,-0.5791,0.3177
0.077,0.305,-0.149,-26.2,-32.6,-28,1023,2018,5,1,22,23,32.656,0.7507,-0.0379,-0.577,0.3192
0.107,0.301,-0.15,-22.1,-30.9,-8.3,0,2018,5,1,22,23,32.66,0.7519,-0.0453,-0.5755,0.3181
0.118,0.287,-0.149,-18.4,-23.4,10.1,0,2018,5,1,22,23,32.679,0.7538,-0.0498,-0.5744,0.315
0.116,0.278,-0.148,-14.5,-13.5,27,0,2018,5,1,22,23,32.698,0.7563,-0.0512,-0.5734,0.3105
0.111,0.27,-0.149,-11.1,-4.4,42.5,0,2018,5,1,22,23,32.717,0.7594,-0.0495,-0.5725,0.3049
0.098,0.256,-0.15,-8.1,1.2,56.9,0,2018,5,1,22,23,32.755,0.763,-0.0451,-0.5717,0.2981
0.075,0.232,-0.144,-5.7,4,71.3,0,2018,5,1,22,23,32.774,0.767,-0.0386,-0.5711,0.2897
0.04,0.212,-0.131,-4,4.8,85.8,0,2018,5,1,22,23,32.778,0.7714,-0.0303,-0.5707,0.2795
-0.015,0.187,-0.129,-3,2.8,101.1,0,2018,5,1,22,23,32.816,0.7762,-0.0206,-0.5705,0.2672
-0.131,0.163,-0.12,-1.9,-3.6,118.4,0,2018,5,1,22,23,32.835,0.7815,-0.0098,-0.5704,0.2523
-0.28,0.133,-0.106,-1.8,-15.2,137.7,0,2018,5,1,22,23,32.837,0.7871,0.0016,-0.5707,0.2338
-0.393,0.083,-0.082,-2,-31.6,156.7,0,2018,5,1,22,23,32.879,0.7931,0.013,-0.5711,0.211
-0.426,0.016,-0.067,-1.7,-51,171,0,2018,5,1,22,23,32.882,0.7991,0.0236,-0.5718,0.1839
-0.372,-0.073,-0.044,-2.1,-71.3,175.4,0,2018,5,1,22,23,32.899,0.8044,0.0321,-0.5729,0.1535
-0.264,-0.159,-0.024,-3,-88.1,168,0,2018,5,1,22,23,32.92,0.8089,0.0375,-0.5739,0.1214
-0.11,-0.209,-0.028,-3.5,-101,149.6,0,2018,5,1,22,23,32.935,0.8128,0.0399,-0.5741,0.0893
0.009,-0.255,-0.057,-3.9,-105.7,124.2,0,2018,5,1,22,23,32.974,0.8157,0.0388,-0.574,0.0594
0.013,-0.266,-0.104,-3,-100.7,96.3,0,2018,5,1,22,23,32.994,0.8176,0.0349,-0.5736,0.0335
-0.061,-0.269,-0.132,-0.9,-88,71.4,0,2018,5,1,22,23,32.998,0.8187,0.0297,-0.5732,0.0122
-0.162,-0.295,-0.13,0.9,-76.5,51.5,0,2018,5,1,22,23,33.036,0.8191,0.0241,-0.573,-0.0045
-0.211,-0.29,-0.124,2.3,-70.2,38,0,2018,5,1,22,23,33.057,0.8191,0.0181,-0.5729,-0.0181
-0.191,-0.27,-0.109,3.8,-72.6,31.1,0,2018,5,1,22,23,33.061,0.8188,0.0114,-0.573,-0.03
-0.123,-0.255,-0.089,4.5,-79.5,29.7,0,2018,5,1,22,23,33.098,0.8183,0.0035,-0.5731,-0.0419
0.004,-0.233,-0.105,5.6,-91.3,31.8,0,2018,5,1,22,23,33.116,0.8176,-0.0056,-0.5731,-0.0548
0.081,-0.272,-0.093,7.8,-95.9,34.1,1023,2018,5,1,22,23,33.121,0.8163,-0.0159,-0.5731,-0.0691
0.138,-0.282,-0.081,9,-88.5,34.6,1023,2018,5,1,22,23,33.139,0.8147,-0.0258,-0.5732,-0.0832
0.153,-0.29,-0.085,9.4,-72.7,34.1,1023,2018,5,1,22,23,33.159,0.8128,-0.0337,-0.5734,-0.0963
0.184,-0.278,-0.117,10.3,-53.5,33.1,1023,2018,5,1,22,23,33.178,0.8108,-0.0391,-0.5739,-0.1073
0.183,-0.297,-0.116,12.2,-32.4,31.7,1023,2018,5,1,22,23,33.198,0.8088,-0.0421,-0.5749,-0.1161
0.161,-0.267,-0.076,14,-16.9,29.9,1023,2018,5,1,22,23,33.236,0.8066,-0.0424,-0.5765,-0.1227
0.127,-0.244,-0.032,15.4,-12.7,28.3,1023,2018,5,1,22,23,33.257,0.8044,-0.0417,-0.5785,-0.1281
0.128,-0.236,-0.017,16.6,-16.3,26,1023,2018,5,1,22,23,33.261,0.8021,-0.041,-0.5806,-0.1334
0.132,-0.263,-0.031,20,-24.3,23.5,1023,2018,5,1,22,23,33.281,0.7995,-0.0414,-0.5828,-0.139
0.123,-0.338,-0.017,23.8,-17.2,19.2,0,2018,5,1,22,23,33.303,0.7966,-0.0426,-0.5855,-0.1441
0.115,-0.365,0.012,27.3,-0.1,13.4,0,2018,5,1,22,23,33.323,0.7935,-0.0425,-0.5889,-0.1472
0.104,-0.393,0.046,30.4,22.8,7.2,0,2018,5,1,22,23,33.341,0.7903,-0.0404,-0.5933,-0.1473
0.093,-0.408,0.105,31.6,48.5,0.5,0,2018,5,1,22,23,33.381,0.7872,-0.0355,-0.5985,-0.1438
0.074,-0.411,0.155,29.3,69.3,-5.5,0,2018,5,1,22,23,33.402,0.7844,-0.028,-0.6042,-0.1371
0.046,-0.398,0.191,24.7,82.3,-11.6,0,2018,5,1,22,23,33.406,0.782,-0.0187,-0.6096,-0.1277
0.02,-0.371,0.2,19,85.6,-16.3,0,2018,5,1,22,23,33.42,0.7802,-0.0088,-0.6143,-0.1168
-0.075,-0.363,0.231,12.2,83.7,-17.9,0,2018,5,1,22,23,33.441,0.7789,0.0007,-0.6181,-0.1054
-0.176,-0.365,0.273,2.8,81.4,-17.3,0,2018,5,1,22,23,33.462,0.7783,0.0103,-0.6206,-0.0942
-0.189,-0.348,0.27,-7.4,71,-16.7,0,2018,5,1,22,23,33.484,0.7787,0.0194,-0.6214,-0.0837
-0.137,-0.335,0.208,-14.4,51.4,-17.1,0,2018,5,1,22,23,33.503,0.7799,0.0265,-0.6208,-0.0749
-0.092,-0.346,0.16,-18.7,34.7,-21.5,0,2018,5,1,22,23,33.523,0.7817,0.0306,-0.6191,-0.0677
-0.042,-0.359,0.14,-21.6,26.5,-31.1,0,2018,5,1,22,23,33.543,0.784,0.0327,-0.6168,-0.061
0.011,-0.363,0.132,-23.4,25.3,-44.3,0,2018,5,1,22,23,33.581,0.7866,0.0328,-0.6142,-0.0531
0.05,-0.359,0.115,-25.2,29.7,-59.5,0,2018,5,1,22,23,33.602,0.7895,0.0316,-0.6114,-0.043
0.064,-0.336,0.09,-27.3,39.3,-75.1,0,2018,5,1,22,23,33.606,0.7925,0.0297,-0.6083,-0.03
0.009,-0.307,0.055,-29.7,52,-88.3,0,2018,5,1,22,23,33.621,0.7956,0.0279,-0.605,-0.0137
-0.096,-0.278,0.028,-33.2,69.1,-96.4,0,2018,5,1,22,23,33.643,0.7986,0.027,-0.6011,0.0056
-0.231,-0.242,0.01,-38.9,89.3,-97.8,0,2018,5,1,22,23,33.661,0.8017,0.028,-0.5963,0.0276
-0.348,-0.197,-0.004,-45.8,105.4,-92.7,0,2018,5,1,22,23,33.699,0.8049,0.0319,-0.5902,0.0514
-0.402,-0.138,-0.024,-53.6,105.8,-84.2,0,2018,5,1,22,23,33.717,0.8084,0.0378,-0.5825,0.075
-0.366,-0.091,-0.063,-61.2,97.3,-75.5,0,2018,5,1,22,23,33.722,0.8122,0.0435,-0.5734,0.0969
-0.286,0,-0.12,-66.8,67.9,-69.4,1023,2018,5,1,22,23,33.76,0.816,0.0468,-0.5642,0.1163
-0.201,0.059,-0.18,-68.4,20.7,-67.2,1023,2018,5,1,22,23,33.781,0.8208,0.0451,-0.5541,0.1308
-0.139,0.076,-0.234,-66.2,-27.1,-69.3,1023,2018,5,1,22,23,33.785,0.8257,0.0362,-0.545,0.1406
-0.088,0.074,-0.284,-61.2,-65.7,-74.2,1023,2018,5,1,22,23,33.805,0.8301,0.021,-0.5374,0.1467
-0.049,0.076,-0.323,-53.7,-88.7,-79.8,1023,2018,5,1,22,23,33.826,0.8336,0.0009,-0.5313,0.1507
-0.032,0.06,-0.362,-45.4,-95.4,-84.2,1023,2018,5,1,22,23,33.846,0.8358,-0.0216,-0.5265,0.1539
-0.027,0.073,-0.389,-36.5,-86.2,-86.7,1023,2018,5,1,22,23,33.866,0.8366,-0.0438,-0.5225,0.1578
-0.036,0.096,-0.41,-28.4,-66,-85.5,1023,2018,5,1,22,23,33.884,0.8364,-0.0637,-0.5192,0.1632
-0.052,0.128,-0.422,-20.9,-41.1,-80.6,1023,2018,5,1,22,23,33.904,0.8355,-0.0796,-0.5161,0.1702
-0.058,0.168,-0.419,-14.2,-16.8,-71.9,0,2018,5,1,22,23,33.925,0.8344,-0.0907,-0.5134,0.1785
-0.05,0.215,-0.413,-7.6,0.4,-60.4,0,2018,5,1,22,23,33.944,0.8331,-0.0977,-0.511,0.1873
-0.032,0.248,-0.408,-0.7,7.5,-46.6,0,2018,5,1,22,23,33.965,0.8318,-0.1018,-0.5094,0.1954
-0.015,0.254,-0.393,5.8,12.5,-32.1,0,2018,5,1,22,23,33.985,0.8303,-0.1036,-0.5088,0.202
0.01,0.265,-0.387,12.4,14.8,-17.2,0,2018,5,1,22,23,34.021,0.8289,-0.1034,-0.5092,0.2069
0.022,0.265,-0.381,19,15.6,-2.2,0,2018,5,1,22,23,34.043,0.8274,-0.1013,-0.5108,0.2099
-0.002,0.247,-0.367,24.9,19.6,12.5,0,2018,5,1,22,23,34.047,0.8259,-0.0971,-0.5135,0.211
-0.066,0.232,-0.336,30.4,23.9,27,0,2018,5,1,22,23,34.083,0.8245,-0.0911,-0.5171,0.2105
-0.109,0.236,-0.318,35.9,24.8,41.7,0,2018,5,1,22,23,34.102,0.8231,-0.0829,-0.5215,0.2083
-0.169,0.217,-0.28,42,21.8,57.6,0,2018,5,1,22,23,34.107,0.8216,-0.0731,-0.5271,0.2037
-0.218,0.17,-0.202,47.6,23.8,74.2,0,2018,5,1,22,23,34.123,0.82,-0.0618,-0.5337,0.1968
-0.183,0.117,-0.099,50.1,30.4,87.8,0,2018,5,1,22,23,34.145,0.8184,-0.0482,-0.5407,0.1881
-0.139,0.057,-0.005,50.4,37.9,96.6,0,2018,5,1,22,23,34.165,0.8167,-0.0324,-0.5477,0.1783
-0.075,0.025,0.051,50.7,45.1,100.2,0,2018,5,1,22,23,34.204,0.815,-0.0153,-0.554,0.1686
-0.031,-0.017,0.103,50.4,49.3,98.8,0,2018,5,1,22,23,34.223,0.8133,0.0022,-0.5594,0.1595
0.003,-0.032,0.135,49.4,53.6,92.4,0,2018,5,1,22,23,34.228,0.8114,0.0198,-0.564,0.1515
0.015,-0.033,0.151,46.7,55.1,83.5,0,2018,5,1,22,23,34.248,0.8094,0.0367,-0.5677,0.145
-0.013,-0.013,0.124,46.4,48.8,75.4,0,2018,5,1,22,23,34.268,0.807,0.0524,-0.5713,0.1394
-0.089,-0.025,0.13,47,37,71.5,0,2018,5,1,22,23,34.308,0.8042,0.0661,-0.5752,0.1335
-0.179,-0.075,0.195,46.2,26.1,70.8,0,2018,5,1,22,23,34.326,0.8012,0.0782,-0.5794,0.1267
