ax,ay,az,dpitch,droll,dyaw,heart,time_1,time_2,time_3,time_4,time_5,time_6,w,x,y,z
-0.041,0.295,-0.347,-20.9,137.4,-55.5,0,2018,5,17,21,15,41.829,0.4799,0.0006,0.2347,-0.8452
0.008,0.289,-0.463,3.5,57.7,-54.8,0,2018,5,17,21,15,41.852,0.4875,0.0119,0.2215,-0.8444
0.027,0.232,-0.385,16.7,42.6,-47.9,0,2018,5,17,21,15,41.887,0.4951,0.016,0.2134,-0.842
0.038,0.389,-0.205,20,29.5,-39.9,0,2018,5,17,21,15,41.91,0.5022,0.0179,0.2061,-0.8396
0.018,0.383,-0.155,16.7,33,-25.4,0,2018,5,17,21,15,41.914,0.5073,0.019,0.1997,-0.838
0.086,0.408,-0.231,13.8,31.5,-13.8,0,2018,5,17,21,15,41.93,0.5104,0.0202,0.1933,-0.8376
0.104,0.306,-0.247,14.8,37.3,-1.6,0,2018,5,17,21,15,41.949,0.5116,0.0213,0.1868,-0.8383
0.133,0.228,-0.34,25.1,47.2,10.4,0,2018,5,17,21,15,41.988,0.5112,0.0219,0.1788,-0.8403
0.099,0.191,-0.345,34,62.9,20.6,0,2018,5,17,21,15,42.011,0.5095,0.022,0.1679,-0.8436
0.023,0.271,-0.174,36.4,48.2,27.9,0,2018,5,17,21,15,42.015,0.5066,0.021,0.1561,-0.8476
-0.048,0.099,0.006,34.8,26.6,29.9,0,2018,5,17,21,15,42.031,0.503,0.0183,0.1472,-0.8514
-0.087,0.13,0.072,32.4,13.8,32.6,0,2018,5,17,21,15,42.069,0.499,0.0142,0.1406,-0.8549
-0.125,0.08,0.042,29.6,5.6,32.2,0,2018,5,17,21,15,42.093,0.4947,0.0095,0.1365,-0.8581
-0.174,0.06,0.002,27.3,3.7,28.3,0,2018,5,17,21,15,42.097,0.4907,0.0048,0.1333,-0.861
-0.168,0.084,-0.049,25.4,-6.1,19,0,2018,5,17,21,15,42.11,0.4876,0.0003,0.131,-0.8631
-0.146,0.125,-0.025,23,-25,15.3,1023,2018,5,17,21,15,42.127,0.4856,-0.0051,0.1312,-0.8642
-0.144,-0.042,-0.021,23,-23.5,13.7,1023,2018,5,17,21,15,42.152,0.4838,-0.0118,0.133,-0.8648
-0.176,-0.036,0.078,16.3,4.6,12.2,1023,2018,5,17,21,15,42.168,0.4823,-0.0158,0.1326,-0.8657
-0.181,0.008,0.097,7.6,18.4,13.6,1023,2018,5,17,21,15,42.191,0.4807,-0.0167,0.1297,-0.867
-0.166,0.046,0.017,3.4,22.5,13.7,1023,2018,5,17,21,15,42.229,0.4787,-0.016,0.1257,-0.8687
-0.113,0.044,-0.052,4.8,13.6,16.8,1023,2018,5,17,21,15,42.251,0.4764,-0.0157,0.1224,-0.8704
-0.102,-0.045,-0.017,5.4,20.2,18.6,1023,2018,5,17,21,15,42.255,0.4737,-0.0165,0.1194,-0.8723
-0.059,0.041,-0.01,8.6,12.9,19.7,1023,2018,5,17,21,15,42.272,0.4708,-0.0171,0.1157,-0.8744
-0.017,0.051,0.016,12.9,1.9,20.4,1023,2018,5,17,21,15,42.294,0.4677,-0.0187,0.113,-0.8763
-0.004,0.066,0.067,16.4,-11.6,17.1,1023,2018,5,17,21,15,42.315,0.4651,-0.0215,0.1119,-0.8778
0,0.046,0.129,16.4,-29.1,8.6,1023,2018,5,17,21,15,42.352,0.4632,-0.0257,0.113,-0.8786
-0.003,-0.003,0.15,12.4,-40,-1.8,0,2018,5,17,21,15,42.376,0.4628,-0.0307,0.117,-0.8781
0.008,-0.02,0.139,4.5,-30.9,-9.4,0,2018,5,17,21,15,42.38,0.4637,-0.0347,0.1218,-0.8768
0.003,-0.074,0.098,-7.1,-14.9,-15.2,0,2018,5,17,21,15,42.397,0.4655,-0.036,0.1259,-0.8752
-0.04,-0.081,0.029,-14.5,3,-19,0,2018,5,17,21,15,42.413,0.4678,-0.0347,0.1284,-0.8737
-0.079,0.026,0.045,-18.4,10.4,-21.2,0,2018,5,17,21,15,42.43,0.4706,-0.0314,0.1288,-0.8723
-0.097,0.065,0.057,-22.5,-9.7,-25.7,0,2018,5,17,21,15,42.454,0.4736,-0.028,0.1295,-0.8707
-0.065,0.046,0.032,-24.3,-31.7,-31,0,2018,5,17,21,15,42.489,0.4772,-0.026,0.1343,-0.868
-0.038,0.026,0.01,-24.7,-37.3,-35.8,0,2018,5,17,21,15,42.514,0.4816,-0.0248,0.1417,-0.8644
-0.082,-0.024,-0.043,-22.4,-41.7,-39.8,0,2018,5,17,21,15,42.518,0.4864,-0.0239,0.1497,-0.8604
-0.072,0.008,-0.115,-15.4,-45.5,-44.7,0,2018,5,17,21,15,42.535,0.4921,-0.0242,0.1583,-0.8556
-0.109,0.041,-0.053,-10.6,-33.5,-49,0,2018,5,17,21,15,42.557,0.4986,-0.0253,0.1655,-0.8504
-0.166,0.216,0.114,-15,-19.2,-47.3,0,2018,5,17,21,15,42.578,0.5054,-0.0242,0.1706,-0.8454
-0.106,0.4,0.237,-28.7,-46.9,-44.5,0,2018,5,17,21,15,42.615,0.5115,-0.0221,0.177,-0.8405
-0.098,0.344,0.096,-37.5,-113.5,-43.4,0,2018,5,17,21,15,42.615,0.5165,-0.0228,0.1922,-0.834
-0.194,0.106,-0.082,-38.3,-168.4,-50.9,1023,2018,5,17,21,15,42.637,0.5213,-0.0288,0.217,-0.8248
-0.241,0.014,-0.091,-37.9,-176.4,-55.2,1023,2018,5,17,21,15,42.655,0.5263,-0.0374,0.2458,-0.813
-0.213,-0.068,-0.052,-38.9,-144.6,-55.3,1023,2018,5,17,21,15,42.674,0.5313,-0.0444,0.2728,-0.8007
-0.147,-0.088,-0.01,-39.1,-85.7,-50,1023,2018,5,17,21,15,42.694,0.5358,-0.047,0.2927,-0.7905
-0.061,-0.008,-0.008,-36.9,-54.5,-46.5,1023,2018,5,17,21,15,42.713,0.5399,-0.0456,0.3058,-0.7828
0.055,0.044,-0.063,-29.8,-65.6,-40.3,1023,2018,5,17,21,15,42.735,0.5438,-0.0439,0.3176,-0.7755
0.131,-0.024,-0.184,-18.1,-96.4,-31.2,1023,2018,5,17,21,15,42.754,0.5468,-0.0461,0.3314,-0.7674
0.097,-0.301,-0.1,-8.2,-94.7,-24.3,1023,2018,5,17,21,15,42.778,0.5491,-0.0523,0.3463,-0.7587
0.125,-0.362,-0.017,0.6,-52.4,-21.8,1023,2018,5,17,21,15,42.815,0.5514,-0.0575,0.3571,-0.7517
0.176,-0.34,-0.051,7.6,5.4,-12,1023,2018,5,17,21,15,42.815,0.5537,-0.0591,0.3597,-0.7485
0.213,-0.203,-0.212,18.5,37.6,-11.4,1023,2018,5,17,21,15,42.839,0.5563,-0.0574,0.3553,-0.7489
0.074,0.038,-0.562,60.7,5.2,-8.5,1023,2018,5,17,21,15,42.857,0.5604,-0.0592,0.3489,-0.7487
-0.161,0.191,-0.515,114.2,-36.8,-10.1,0,2018,5,17,21,15,42.878,0.5671,-0.0721,0.3426,-0.7454
-0.171,0.241,-0.459,149.8,-51.3,-3.6,0,2018,5,17,21,15,42.915,0.5753,-0.0938,0.3356,-0.7398
-0.204,0.131,-0.283,163,-36.3,0.4,0,2018,5,17,21,15,42.915,0.5838,-0.1185,0.3252,-0.7343
-0.012,0.144,-0.299,163.3,-48.3,-0.8,0,2018,5,17,21,15,42.937,0.5922,-0.1436,0.3139,-0.728
0.208,0.102,-0.243,147.1,-95.8,-0.2,0,2018,5,17,21,15,42.973,0.599,-0.1704,0.3066,-0.7197
0.278,0.087,-0.146,113.5,-155.6,4.8,0,2018,5,17,21,15,42.997,0.6019,-0.2,0.3089,-0.7087
0.316,-0.158,-0.143,71,-172.4,9.8,0,2018,5,17,21,15,43.001,0.5997,-0.2292,0.32,-0.6966
0.352,-0.139,-0.227,41.7,-162.9,10.3,0,2018,5,17,21,15,43.019,0.5948,-0.2536,0.3342,-0.6855
0.341,-0.397,-0.132,25.1,-146.2,5.3,0,2018,5,17,21,15,43.057,0.5888,-0.274,0.3494,-0.6752
0.162,-0.631,0.113,7.3,-75,-2.4,0,2018,5,17,21,15,43.08,0.5846,-0.2873,0.3613,-0.6671
0.107,-0.571,0.234,-6.4,4.3,-10.3,0,2018,5,17,21,15,43.085,0.584,-0.2898,0.3657,-0.6641
0.146,-0.152,0.189,-2.3,9.6,-21.9,0,2018,5,17,21,15,43.099,0.5869,-0.2858,0.3659,-0.6632
0.108,0.056,0.16,8.2,-52,-30.6,0,2018,5,17,21,15,43.121,0.5895,-0.2863,0.3695,-0.6586
-0.077,-0.374,0.348,18.6,-78.7,-42.7,0,2018,5,17,21,15,43.139,0.5914,-0.2927,0.378,-0.6492
-0.198,-0.447,0.493,17.6,-31.4,-51.3,0,2018,5,17,21,15,43.175,0.5954,-0.2974,0.3848,-0.6394
-0.181,-0.241,0.461,8,3.7,-61.2,0,2018,5,17,21,15,43.199,0.6023,-0.296,0.3878,-0.6317
-0.081,-0.135,0.375,-0.1,17.3,-70.7,0,2018,5,17,21,15,43.204,0.6107,-0.2903,0.3896,-0.6251
0.023,-0.03,0.251,-4.5,9.3,-76,0,2018,5,17,21,15,43.219,0.6195,-0.2832,0.3919,-0.6182
0.029,0.031,0.224,-12.2,9.3,-72.3,1023,2018,5,17,21,15,43.238,0.6277,-0.2761,0.3957,-0.6107
0,0.011,0.18,-24.9,24.3,-70.2,1023,2018,5,17,21,15,43.262,0.6355,-0.2667,0.399,-0.6047
0.01,0.054,0.068,-35.7,28.3,-69.1,1023,2018,5,17,21,15,43.281,0.6425,-0.2547,0.4019,-0.6005
0.056,0.114,-0.098,-37.4,8.8,-65.7,1023,2018,5,17,21,15,43.304,0.648,-0.2433,0.4071,-0.5958
0.047,0.09,-0.155,-34.2,-12.8,-61.6,1023,2018,5,17,21,15,43.322,0.6521,-0.2351,0.4146,-0.5894
0.006,-0.004,-0.078,-31.7,-18.7,-59.1,0,2018,5,17,21,15,43.359,0.6552,-0.2294,0.4231,-0.5821
-0.006,-0.052,-0.009,-36.4,-10.3,-59.5,0,2018,5,17,21,15,43.383,0.6581,-0.2235,0.4312,-0.5752
-0.025,-0.037,-0.01,-43.4,2.4,-62.3,0,2018,5,17,21,15,43.387,0.6609,-0.2156,0.4386,-0.5694
-0.05,-0.071,-0.025,-51.9,13.9,-63.7,0,2018,5,17,21,15,43.399,0.6635,-0.2056,0.4457,-0.5645
0.003,-0.069,-0.015,-53.1,39.4,-66.6,0,2018,5,17,21,15,43.438,0.6664,-0.1925,0.4516,-0.5609
-0.001,0.017,-0.028,-53.1,34.6,-68.1,0,2018,5,17,21,15,43.46,0.6699,-0.1775,0.4563,-0.5579
-0.043,-0.072,-0.037,-52.8,22.1,-71.9,0,2018,5,17,21,15,43.466,0.6729,-0.1642,0.4621,-0.5537
-0.011,-0.082,-0.027,-49.1,28.3,-78.5,0,2018,5,17,21,15,43.484,0.6763,-0.1509,0.4682,-0.5481
-0.045,0.043,0.011,-46.3,39.7,-79.8,0,2018,5,17,21,15,43.503,0.6807,-0.1359,0.4723,-0.5431
-0.05,0.107,0.03,-46.8,21.6,-82.1,0,2018,5,17,21,15,43.54,0.6855,-0.1209,0.4761,-0.5372
-0.14,0.038,0.036,-51.5,8.3,-85.9,0,2018,5,17,21,15,43.562,0.6898,-0.1076,0.4817,-0.5295
-0.076,-0.109,0,-57.6,16.4,-90.1,0,2018,5,17,21,15,43.567,0.6933,-0.0939,0.489,-0.5208
-0.028,-0.04,-0.014,-61.4,34.8,-89.3,0,2018,5,17,21,15,43.58,0.6963,-0.0784,0.4953,-0.5133
0.005,0.109,-0.006,-62,32.3,-87.4,0,2018,5,17,21,15,43.616,0.6993,-0.0606,0.5006,-0.5064
-0.011,0.159,0.057,-62.8,16.1,-88.8,0,2018,5,17,21,15,43.637,0.702,-0.0441,0.5068,-0.4982
-0.017,0,0.043,-66.6,19.6,-92,0,2018,5,17,21,15,43.639,0.7043,-0.0284,0.5137,-0.489
0.088,0.02,0.117,-70.4,26.9,-91.6,0,2018,5,17,21,15,43.673,0.7062,-0.011,0.5198,-0.4803
0.351,0.012,0.211,-70.9,25.4,-86,0,2018,5,17,21,15,43.694,0.7075,0.0066,0.5262,-0.4716
0.303,-0.032,0.215,-67.1,19.8,-80.7,0,2018,5,17,21,15,43.701,0.7079,0.023,0.5325,-0.4632
-0.026,-0.123,0.201,-71.9,29.4,-77.5,1023,2018,5,17,21,15,43.737,0.7079,0.0388,0.5385,-0.4552
-0.238,-0.203,0.121,-74.6,38.5,-79.5,1023,2018,5,17,21,15,43.761,0.7068,0.0564,0.5441,-0.4484
-0.19,-0.089,0.024,-77.4,26.4,-76.8,1023,2018,5,17,21,15,43.766,0.7053,0.0742,0.5498,-0.4411
-0.105,0.005,-0.039,-80.9,2.6,-66.6,1023,2018,5,17,21,15,43.784,0.7028,0.0885,0.5575,-0.4327
-0.08,-0.165,-0.137,-82.1,-14.7,-60.6,1023,2018,5,17,21,15,43.807,0.6994,0.0992,0.5676,-0.4227
-0.028,-0.158,-0.196,-78.5,13.5,-61.3,1023,2018,5,17,21,15,43.843,0.6958,0.1112,0.5763,-0.4138
-0.027,-0.043,-0.221,-71.4,29.8,-63.2,1023,2018,5,17,21,15,43.843,0.6921,0.1256,0.5825,-0.407
-0.055,0.166,-0.24,-64.2,24.8,-66.6,1023,2018,5,17,21,15,43.867,0.6891,0.1406,0.5871,-0.4005
-0.128,0.258,-0.264,-52.8,17.4,-61.5,1023,2018,5,17,21,15,43.883,0.6871,0.1537,0.591,-0.3934
-0.101,0.17,-0.195,-44.3,20,-63.5,1023,2018,5,17,21,15,43.901,0.6858,0.1658,0.5937,-0.3867
-0.03,0.149,-0.142,-41.8,34,-58.9,1023,2018,5,17,21,15,43.922,0.6846,0.1785,0.5952,-0.3809
0.047,0.028,-0.194,-29.8,30.5,-57.3,0,2018,5,17,21,15,43.961,0.6837,0.1902,0.5957,-0.3758
0.06,0.139,-0.151,-14.6,52.2,-60.1,0,2018,5,17,21,15,43.985,0.6838,0.2031,0.5934,-0.3727
0.108,-0.143,-0.281,0,65.7,-70.3,0,2018,5,17,21,15,43.989,0.6853,0.2166,0.5883,-0.3704
0.015,-0.131,-0.31,6.1,126.3,-80.1,0,2018,5,17,21,15,44.005,0.6865,0.2361,0.5784,-0.3718
-0.057,-0.12,-0.288,7.6,154.3,-79.6,0,2018,5,17,21,15,44.028,0.6865,0.2606,0.5648,-0.3764
-0.094,0.054,-0.218,5.1,207.1,-69.4,0,2018,5,17,21,15,44.046,0.6834,0.2892,0.5483,-0.3853
-0.079,0.289,-0.193,8.1,243.1,-51.9,0,2018,5,17,21,15,44.07,0.676,0.3216,0.5287,-0.3999
0.016,0.637,-0.06,14,196.2,-27.3,0,2018,5,17,21,15,44.087,0.6664,0.351,0.5089,-0.4166
0.138,0.593,0.032,13.2,81.8,-14.8,0,2018,5,17,21,15,44.103,0.6603,0.3677,0.4959,-0.4274
0.156,0.353,0.032,12.8,-16.6,-12,0,2018,5,17,21,15,44.126,0.6606,0.371,0.4916,-0.4291
0.08,0.087,0.12,11.9,-89,-17.7,0,2018,5,17,21,15,44.143,0.6668,0.3644,0.4934,-0.4231
-0.048,-0.266,0.14,4.5,-104,-27.1,0,2018,5,17,21,15,44.165,0.6754,0.354,0.498,-0.4126
-0.104,-0.404,0.137,-5.4,-110,-53.1,0,2018,5,17,21,15,44.186,0.6848,0.3447,0.5034,-0.3983
-0.074,-0.196,0.124,-13.8,-113.4,-72.6,0,2018,5,17,21,15,44.207,0.6948,0.3379,0.5083,-0.3802
-0.061,-0.006,0.074,-15.4,-138.6,-82.9,0,2018,5,17,21,15,44.243,0.7061,0.3301,0.5134,-0.3588
-0.037,0.056,-0.001,-10.3,-178.6,-89.4,0,2018,5,17,21,15,44.266,0.7194,0.3191,0.5192,-0.333
0.023,0.109,-0.045,3.3,-229,-95.9,0,2018,5,17,21,15,44.27,0.7354,0.3025,0.5257,-0.3018
0.03,0.157,-0.044,15.7,-279.5,-98.7,1023,2018,5,17,21,15,44.287,0.7542,0.2778,0.5321,-0.266
0.063,0.165,-0.029,21.9,-312.8,-98.8,1023,2018,5,17,21,15,44.31,0.7739,0.2467,0.5378,-0.2257
0.009,0.18,-0.035,27.8,-326.2,-96.2,1023,2018,5,17,21,15,44.327,0.7926,0.2112,0.542,-0.1825
-0.046,0.154,-0.016,32.7,-332.6,-90,1023,2018,5,17,21,15,44.362,0.8092,0.1731,0.5438,-0.1392
-0.116,-0.314,-0.064,39.1,-195.3,-80.7,1023,2018,5,17,21,15,44.384,0.8217,0.1427,0.5419,-0.1027
-0.094,0.41,0.047,33.8,-135,-61.3,1023,2018,5,17,21,15,44.388,0.8299,0.1269,0.5374,-0.0791
-0.08,0.115,0.081,27.4,-96.2,-41.6,1023,2018,5,17,21,15,44.421,0.836,0.1136,0.5333,-0.061
-0.033,0.11,0.114,14.9,-37.2,-34.7,1023,2018,5,17,21,15,44.444,0.8395,0.1072,0.5301,-0.0502
0.037,0.18,0.104,8.4,7.1,-23.9,1023,2018,5,17,21,15,44.45,0.8411,0.1089,0.5277,-0.045
-0.003,0.353,0.057,7.3,-33,-15.9,1023,2018,5,17,21,15,44.468,0.8422,0.109,0.5263,-0.0417
-0.011,0.2,0.04,5.6,-63.1,-12.8,0,2018,5,17,21,15,44.491,0.8438,0.1026,0.5255,-0.0351
0.015,0.297,-0.029,10.5,-91.7,-12.7,0,2018,5,17,21,15,44.511,0.8458,0.0926,0.5245,-0.0266
0.052,0.189,-0.168,18.8,-139.5,-12,0,2018,5,17,21,15,44.529,0.8489,0.0763,0.5226,-0.0144
0.014,0.069,-0.269,26.1,-167.8,-11.5,0,2018,5,17,21,15,44.552,0.8528,0.0538,0.5193,0.0014
0.033,-0.029,-0.275,31.3,-153.1,-12.4,0,2018,5,17,21,15,44.574,0.8567,0.0305,0.5145,0.0176
0.04,-0.008,-0.194,35.7,-123.7,-13.9,0,2018,5,17,21,15,44.586,0.8601,0.0111,0.5089,0.0312
0.025,0,-0.167,41.4,-109.2,-17.7,0,2018,5,17,21,15,44.606,0.8628,-0.0047,0.5036,0.0433
-0.007,-0.014,-0.129,46.3,-97.2,-18.2,0,2018,5,17,21,15,44.63,0.8655,-0.0185,0.4973,0.0547
-0.057,-0.097,-0.016,44.8,-64.2,-16.6,0,2018,5,17,21,15,44.665,0.8688,-0.0299,0.49,0.064
-0.134,-0.05,0.1,37.5,-3.3,-14.4,0,2018,5,17,21,15,44.687,0.8718,-0.0333,0.4836,0.0689
-0.19,-0.054,0.237,26.7,22.3,-14.8,0,2018,5,17,21,15,44.692,0.8743,-0.0296,0.4793,0.07
-0.044,-0.145,0.225,14.8,42.7,-15.2,0,2018,5,17,21,15,44.71,0.8759,-0.0231,0.4768,0.0693
0.077,-0.186,-0.025,13.5,79.7,-20.6,0,2018,5,17,21,15,44.731,0.8771,-0.0124,0.4754,0.0666
0,-0.103,-0.138,15.7,103.8,-20.9,0,2018,5,17,21,15,44.767,0.8781,0.0038,0.4743,0.0616
-0.033,-0.035,-0.087,18.4,103.7,-24.7,0,2018,5,17,21,15,44.79,0.8789,0.0214,0.4731,0.056
0.053,0.057,-0.117,23.1,112.7,-24.5,0,2018,5,17,21,15,44.794,0.8795,0.0401,0.4714,0.0505
0.008,0.23,-0.102,30.5,99.1,-21.3,0,2018,5,17,21,15,44.81,0.8806,0.0587,0.468,0.0447
-0.057,0.21,0.06,32.7,81,-18.7,0,2018,5,17,21,15,44.827,0.8821,0.0738,0.4634,0.0401
-0.041,0.412,0.251,24,49.9,-8.1,0,2018,5,17,21,15,44.85,0.8834,0.0854,0.4592,0.0359
-0.016,0.401,0.22,14.2,1.2,5,1023,2018,5,17,21,15,44.871,0.8845,0.0892,0.4565,0.0338
0.042,0.184,0.062,9.9,-36.8,10.8,1023,2018,5,17,21,15,44.907,0.8858,0.0853,0.4547,0.0337
0.013,0.024,-0.019,5.9,-46,10.2,1023,2018,5,17,21,15,44.93,0.8871,0.0783,0.4534,0.0354
-0.013,-0.093,-0.046,3.7,-36.2,5,1023,2018,5,17,21,15,44.934,0.888,0.0707,0.4527,0.0371
0.007,-0.114,-0.073,3,-12.8,-1.7,1023,2018,5,17,21,15,44.969,0.8885,0.0666,0.4522,0.0386
-0.016,-0.1,-0.055,3.4,9.9,-7.1,1023,2018,5,17,21,15,44.992,0.8887,0.0665,0.4518,0.039
-0.021,-0.06,-0.025,2.7,32.4,-9.8,1023,2018,5,17,21,15,44.997,0.8886,0.0698,0.4516,0.0381
-0.038,0.06,0.031,0.4,45.8,-8.8,1023,2018,5,17,21,15,45.012,0.8882,0.077,0.4513,0.0363
-0.014,0.115,0.029,0,40.8,-6.6,1023,2018,5,17,21,15,45.034,0.8877,0.0852,0.4511,0.0344
-0.013,0.133,0.024,0.9,29.9,-3.8,1023,2018,5,17,21,15,45.071,0.8871,0.0922,0.4508,0.0329
-0.006,0.121,0.02,1.2,14.6,-1,0,2018,5,17,21,15,45.095,0.8869,0.0966,0.4505,0.0318
-0.002,0.092,0.011,1.2,3.6,1.2,0,2018,5,17,21,15,45.098,0.8869,0.0985,0.4501,0.0313
0.001,0.057,0,0.9,-1.5,2.6,0,2018,5,17,21,15,45.113,0.887,0.099,0.4499,0.031
0.002,0.044,-0.001,0.3,-2,3.2,0,2018,5,17,21,15,45.13,0.887,0.0989,0.4498,0.0308
0.001,0.03,-0.013,0.3,-1.6,3,0,2018,5,17,21,15,45.154,0.8871,0.0987,0.4498,0.0304
-0.001,0.027,-0.013,0.3,-1.2,3.3,0,2018,5,17,21,15,45.189,0.887,0.0985,0.4499,0.0301
-0.006,0.009,-0.011,0.9,-1.7,2.4,0,2018,5,17,21,15,45.212,0.8871,0.0982,0.4499,0.0296
-0.007,0.003,-0.016,1.3,-0.9,1.9,0,2018,5,17,21,15,45.217,0.8871,0.0978,0.4499,0.0292
-0.013,0.009,0,1.7,-0.3,1.3,0,2018,5,17,21,15,45.235,0.8873,0.0977,0.4497,0.0288
-0.013,0.006,0.011,1.4,0,0.5,0,2018,5,17,21,15,45.272,0.8875,0.0976,0.4493,0.0285
-0.012,0.024,0.013,0.9,0.7,-0.1,0,2018,5,17,21,15,45.296,0.8876,0.0979,0.449,0.0285
0,0.032,0.009,0.6,0.7,-0.4,0,2018,5,17,21,15,45.3,0.8877,0.0982,0.4487,0.0285
0.001,0.033,0.001,0,0,0,0,2018,5,17,21,15,45.315,0.8877,0.0986,0.4486,0.0286
0.001,0.029,0,0,-0.6,-0.4,0,2018,5,17,21,15,45.333,0.8877,0.0989,0.4486,0.0288
0,0.023,0,-0.1,-0.5,-0.4,0,2018,5,17,21,15,45.355,0.8877,0.099,0.4486,0.0289
-0.003,0.018,-0.004,-0.1,0,-0.5,0,2018,5,17,21,15,45.375,0.8876,0.0992,0.4486,0.029
-0.004,0.019,0.001,0,1,-0.7,0,2018,5,17,21,15,45.392,0.8876,0.0995,0.4486,0.029
-0.009,0.029,-0.009,0,1.7,-0.9,0,2018,5,17,21,15,45.416,0.8876,0.0999,0.4486,0.0289
-0.009,0.036,-0.006,0.2,1.8,-0.8,1023,2018,5,17,21,15,45.452,0.8876,0.1006,0.4485,0.0289
-0.008,0.046,-0.003,0.3,0.8,-0.5,1023,2018,5,17,21,15,45.476,0.8875,0.1013,0.4484,0.0291
-0.003,0.04,-0.001,0.3,-0.6,0.1,1023,2018,5,17,21,15,45.481,0.8875,0.1017,0.4483,0.0292
-0.003,0.033,-0.001,0,-1.8,0.3,1023,2018,5,17,21,15,45.495,0.8875,0.1017,0.4482,0.0293
-0.004,0.025,0,0,-2.2,0.9,1023,2018,5,17,21,15,45.517,0.8876,0.1017,0.4482,0.0294
-0.002,0.02,0.003,0.1,-2.4,1.2,1023,2018,5,17,21,15,45.555,0.8876,0.1015,0.4482,0.0295
-0.003,0.017,0.005,0.3,-1.6,1.1,1023,2018,5,17,21,15,45.555,0.8877,0.1013,0.4481,0.0296
0,0.012,0.005,0.1,-1.1,1,1023,2018,5,17,21,15,45.578,0.8877,0.1012,0.448,0.0295
-0.005,0.014,0.003,-0.1,-0.7,0.8,1023,2018,5,17,21,15,45.595,0.8878,0.1011,0.4479,0.0295
-0.004,0.017,0,-0.3,-0.8,0.5,0,2018,5,17,21,15,45.633,0.8878,0.1011,0.4479,0.0294
-0.005,0.009,0,-0.4,-0.6,0.3,0,2018,5,17,21,15,45.656,0.8878,0.101,0.4479,0.0292
-0.001,0.009,-0.002,0,0,0,0,2018,5,17,21,15,45.661,0.8878,0.1011,0.4479,0.0292
0,0.012,-0.002,-0.1,0.5,-0.4,0,2018,5,17,21,15,45.677,0.8877,0.1012,0.4479,0.0293
-0.004,0.021,-0.003,-0.2,1,-0.7,0,2018,5,17,21,15,45.699,0.8877,0.1015,0.448,0.0292
-0.003,0.027,0,-0.1,0.8,-0.6,0,2018,5,17,21,15,45.718,0.8877,0.1019,0.448,0.0291
0,0.027,-0.004,-0.3,0.3,-0.5,0,2018,5,17,21,15,45.741,0.8876,0.1022,0.448,0.0291
-0.002,0.023,-0.006,0,0,0,0,2018,5,17,21,15,45.759,0.8876,0.1025,0.448,0.0292
-0.008,0.024,-0.006,0,0,0,0,2018,5,17,21,15,45.78,0.8875,0.1028,0.448,0.0293
-0.002,0.027,-0.008,0.1,-0.5,0.3,0,2018,5,17,21,15,45.796,0.8875,0.1032,0.448,0.0295
-0.005,0.025,0,0.1,-1,0.4,0,2018,5,17,21,15,45.814,0.8875,0.1031,0.448,0.0293
0,0.022,0.002,0,-1.2,0.8,0,2018,5,17,21,15,45.836,0.8876,0.103,0.4479,0.0293
0,0.02,0.001,-0.1,-1.2,0.7,0,2018,5,17,21,15,45.875,0.8876,0.1029,0.4479,0.0291
0,0.021,-0.001,-0.2,-2,1,0,2018,5,17,21,15,45.899,0.8876,0.1029,0.4479,0.0292
-0.007,0.009,-0.007,0,-2.6,0.9,0,2018,5,17,21,15,45.902,0.8876,0.1027,0.4479,0.0294
-0.005,0.002,0,0.1,-2.3,0.6,0,2018,5,17,21,15,45.92,0.8877,0.1023,0.4479,0.0293
-0.005,0,0.003,0,-1,0.2,0,2018,5,17,21,15,45.957,0.8877,0.1022,0.4479,0.0296
-0.001,0.005,0,0,0,0,0,2018,5,17,21,15,45.98,0.8877,0.1023,0.4478,0.0297
0,0.014,-0.002,0,0.8,-0.2,0,2018,5,17,21,15,45.985,0.8877,0.1024,0.4478,0.0295
-0.003,0.021,-0.004,0,0,0,0,2018,5,17,21,15,45.998,0.8876,0.1026,0.4478,0.0294
-0.003,0.02,0.003,0,0,0,0,2018,5,17,21,15,46.033,0.8876,0.1029,0.4478,0.0295
-0.001,0.019,-0.005,-0.2,-0.6,0.1,1023,2018,5,17,21,15,46.057,0.8876,0.1031,0.4478,0.0296
-0.005,0.015,-0.01,-0.3,-0.7,0.1,1023,2018,5,17,21,15,46.061,0.8876,0.1031,0.4478,0.0296
-0.003,0.015,0.002,0,-0.5,0.1,1023,2018,5,17,21,15,46.077,0.8876,0.103,0.4478,0.0294
-0.003,0.011,-0.001,0,-0.7,0.1,1023,2018,5,17,21,15,46.1,0.8876,0.103,0.4478,0.0292
-0.002,0.016,0.001,-0.1,-0.6,0,1023,2018,5,17,21,15,46.118,0.8877,0.1029,0.4478,0.0291
-0.001,0.012,0.001,-0.1,-0.9,0.2,1023,2018,5,17,21,15,46.141,0.8877,0.103,0.4477,0.0292
-0.001,0.012,0,-0.1,-1.4,0,1023,2018,5,17,21,15,46.158,0.8877,0.1029,0.4477,0.0292
0,0.007,0.001,-0.4,-1.6,0,1023,2018,5,17,21,15,46.183,0.8877,0.1027,0.4477,0.0293
0,0.004,-0.002,-0.2,-0.8,0,1023,2018,5,17,21,15,46.202,0.8877,0.1026,0.4478,0.0293
-0.002,0.005,0.001,0,0,0,1023,2018,5,17,21,15,46.22,0.8877,0.1027,0.4478,0.0293
0,0.01,-0.004,0,0,0,0,2018,5,17,21,15,46.243,0.8876,0.1029,0.4478,0.0294
-0.003,0.01,-0.002,0,0,0,0,2018,5,17,21,15,46.279,0.8876,0.1031,0.4478,0.0295
-0.002,0.013,-0.002,0,0,0,0,2018,5,17,21,15,46.279,0.8876,0.1034,0.4478,0.0297
-0.001,0.014,-0.006,0,0,0,0,2018,5,17,21,15,46.302,0.8875,0.1036,0.4478,0.0298
-0.001,0.014,-0.004,0,0.5,0.1,0,2018,5,17,21,15,46.318,0.8875,0.1038,0.4478,0.0296
0.001,0.015,-0.003,0,0,0,0,2018,5,17,21,15,46.341,0.8874,0.1041,0.4479,0.0298
-0.001,0.018,0,0,0,0,0,2018,5,17,21,15,46.359,0.8874,0.1043,0.4479,0.0299
-0.003,0.011,0,-0.1,-0.7,0.1,0,2018,5,17,21,15,46.38,0.8874,0.1043,0.4478,0.0298
-0.007,0.006,0.001,0,0,0,0,2018,5,17,21,15,46.399,0.8874,0.1044,0.4478,0.0298
-0.002,0.008,0.004,0,0,0,0,2018,5,17,21,15,46.423,0.8874,0.1045,0.4477,0.0299
-0.003,0.006,0.002,0,0,0,0,2018,5,17,21,15,46.46,0.8874,0.1047,0.4477,0.03
-0.002,0.005,0.002,-0.6,0,-0.1,0,2018,5,17,21,15,46.483,0.8874,0.1048,0.4477,0.0299
0,0.003,-0.003,0,0,0,0,2018,5,17,21,15,46.488,0.8874,0.1049,0.4477,0.0299
0,0.004,-0.002,-0.5,0.3,-0.8,0,2018,5,17,21,15,46.501,0.8874,0.1049,0.4478,0.0298
0,0.013,-0.002,-0.2,0.5,-0.7,0,2018,5,17,21,15,46.538,0.8873,0.1051,0.4479,0.0297
-0.002,0.017,-0.006,-0.4,0.8,-0.8,0,2018,5,17,21,15,46.561,0.8873,0.1054,0.4479,0.0298
0,0.024,-0.005,0,0,0,0,2018,5,17,21,15,46.567,0.8872,0.1057,0.448,0.0297
0.002,0.022,-0.006,0,-0.7,0,0,2018,5,17,21,15,46.584,0.8872,0.106,0.448,0.0299
0.003,0.014,-0.005,0.1,-1.6,0.3,0,2018,5,17,21,15,46.602,0.8872,0.1059,0.448,0.0298
-0.001,0.007,-0.001,0.4,-1.7,0.4,0,2018,5,17,21,15,46.625,0.8872,0.1056,0.448,0.0298
-0.003,0.003,0.001,0.4,-1.3,0.4,1023,2018,5,17,21,15,46.643,0.8873,0.1054,0.4479,0.0298
-0.004,0.006,0.002,0.2,-0.8,0.4,1023,2018,5,17,21,15,46.666,0.8873,0.1053,0.4478,0.0297
-0.001,0,0.006,0,0,0,1023,2018,5,17,21,15,46.684,0.8874,0.1052,0.4477,0.0296
0,0,0.003,0,0,0,1023,2018,5,17,21,15,46.722,0.8874,0.1053,0.4477,0.0296
-0.001,0.004,0.003,0,0.5,0.1,1023,2018,5,17,21,15,46.746,0.8874,0.1054,0.4476,0.0296
0,0.009,0,-0.1,0.5,0,1023,2018,5,17,21,15,46.75,0.8874,0.1056,0.4476,0.0294
0.001,0.006,0,0,0,0,1023,2018,5,17,21,15,46.764,0.8874,0.1057,0.4476,0.0295
0.002,0.009,-0.001,0,0,0,1023,2018,5,17,21,15,46.783,0.8873,0.1059,0.4477,0.0296
-0.003,0.012,-0.001,0,0,0,1023,2018,5,17,21,15,46.821,0.8873,0.1061,0.4477,0.0297
-0.002,0.008,-0.002,0,0,0,1023,2018,5,17,21,15,46.821,0.8873,0.1063,0.4477,0.0298
-0.002,0.008,-0.001,0,0,0,1023,2018,5,17,21,15,46.846,0.8872,0.1065,0.4477,0.0299
-0.002,0.009,0,0,0,0,1023,2018,5,17,21,15,46.871,0.8872,0.1067,0.4477,0.03
0.002,0,0,0,-0.5,0.1,0,2018,5,17,21,15,46.893,0.8872,0.1067,0.4477,0.0299
0,-0.003,-0.005,0,0,0,0,2018,5,17,21,15,46.906,0.8872,0.1067,0.4477,0.0298
0.002,0.007,-0.005,0.1,0.8,-0.5,0,2018,5,17,21,15,46.943,0.8872,0.1069,0.4477,0.0298
0.002,0.014,-0.004,-0.1,0.2,-0.5,0,2018,5,17,21,15,46.964,0.8871,0.1072,0.4478,0.0299
0.001,0.007,0.001,0,0,0,0,2018,5,17,21,15,46.966,0.8871,0.1074,0.4478,0.0299
0,0.009,0.009,-0.2,0.5,-0.2,0,2018,5,17,21,15,47.003,0.8871,0.1076,0.4478,0.03
0.001,0.012,0.011,0,0,0,0,2018,5,17,21,15,47.003,0.8871,0.1078,0.4477,0.0299
0.001,0.004,0.003,0,0,0,0,2018,5,17,21,15,47.026,0.8871,0.1079,0.4477,0.03
-0.005,-0.007,0,0.3,-0.7,0,0,2018,5,17,21,15,47.043,0.8871,0.1077,0.4476,0.0298
-0.004,-0.019,0.002,0.1,0.6,-0.6,0,2018,5,17,21,15,47.066,0.8871,0.1076,0.4476,0.0297
-0.007,-0.006,0.017,-0.9,3.3,-1.6,0,2018,5,17,21,15,47.084,0.8871,0.108,0.4476,0.0297
0.007,0.017,0.004,-1.8,3.8,-1.8,0,2018,5,17,21,15,47.107,0.887,0.1087,0.4476,0.0295
-0.004,0.034,-0.01,-1.5,2.9,-1,0,2018,5,17,21,15,47.144,0.8868,0.1095,0.4479,0.0294
-0.009,0.025,-0.029,-0.4,0.6,-0.2,0,2018,5,17,21,15,47.168,0.8866,0.11,0.4481,0.0292
-0.006,0.007,-0.012,0.5,0.5,0,0,2018,5,17,21,15,47.171,0.8865,0.1102,0.4482,0.0292
0.002,0.002,0.03,-0.1,4.4,0.2,0,2018,5,17,21,15,47.187,0.8866,0.1105,0.4481,0.0287
0.01,0.023,0.027,-1.4,4.6,0.6,0,2018,5,17,21,15,47.21,0.8866,0.1113,0.448,0.0281
0.024,0.032,-0.006,-1.1,0.7,1.7,1023,2018,5,17,21,15,47.228,0.8864,0.1118,0.4483,0.0277
0.023,0.042,-0.016,0,-2.8,4.2,1023,2018,5,17,21,15,47.243,0.8862,0.1118,0.4486,0.0274
0.016,0.001,0.009,0.2,-4.4,6,1023,2018,5,17,21,15,47.267,0.8862,0.1109,0.4488,0.0268
0.004,0.033,0.03,-2.2,-2.1,7.6,1023,2018,5,17,21,15,47.284,0.8863,0.11,0.4489,0.0259
0.003,0.006,0.012,-3.7,-4.5,7.8,1023,2018,5,17,21,15,47.307,0.8863,0.1089,0.4493,0.0249
-0.011,0.009,-0.001,-4.3,-3.4,7,1023,2018,5,17,21,15,47.345,0.8861,0.1076,0.45,0.0239
-0.028,0.048,0.013,-5.2,-3.7,5,1023,2018,5,17,21,15,47.369,0.8859,0.1069,0.4507,0.0234
-0.02,0.101,0.018,-6.9,-3.4,6.1,1023,2018,5,17,21,15,47.372,0.8856,0.1064,0.4514,0.0231
-0.003,0.092,0,-7.8,-8.4,9,1023,2018,5,17,21,15,47.388,0.8851,0.1057,0.4525,0.023
0.008,0.11,0.016,-9.1,-10.8,14,1023,2018,5,17,21,15,47.412,0.8846,0.1041,0.4539,0.0224
-0.005,0.081,0.055,-11.2,-18.2,20.1,0,2018,5,17,21,15,47.428,0.8842,0.1011,0.4554,0.0215
0.016,-0.041,0.061,-16.3,0.8,24.8,0,2018,5,17,21,15,47.451,0.8837,0.0974,0.4573,0.019
-0.028,0.018,0.087,-19.1,19.4,29.3,0,2018,5,17,21,15,47.469,0.8825,0.0972,0.4598,0.0138
-0.043,0.072,0.046,-21.1,40.7,36.1,0,2018,5,17,21,15,47.492,0.8807,0.0995,0.4629,0.0065
-0.048,0.125,0.009,-21.5,49.8,44.3,0,2018,5,17,21,15,47.509,0.8782,0.1039,0.4667,-0.0029
-0.048,0.089,-0.009,-20.8,52.1,51,0,2018,5,17,21,15,47.545,0.8755,0.1081,0.4706,-0.0138
-0.039,0.083,-0.017,-18.5,54.4,56.4,0,2018,5,17,21,15,47.568,0.8726,0.1128,0.4743,-0.0258
-0.013,0.043,-0.035,-14,50.4,59.7,0,2018,5,17,21,15,47.573,0.8699,0.1168,0.4776,-0.0384
-0.005,0.008,-0.043,-9.8,49.6,61,0,2018,5,17,21,15,47.591,0.8672,0.1199,0.4805,-0.0514
-0.004,-0.025,-0.065,-5.5,48.8,59.9,0,2018,5,17,21,15,47.627,0.8647,0.1223,0.4828,-0.0648
-0.001,-0.048,-0.097,-2,51.7,58.6,0,2018,5,17,21,15,47.627,0.8621,0.1249,0.4847,-0.078
-0.004,-0.054,-0.103,3.5,55.3,56.5,0,2018,5,17,21,15,47.651,0.8597,0.1279,0.4859,-0.0912
-0.006,-0.084,-0.11,5.9,56,56.8,0,2018,5,17,21,15,47.689,0.8574,0.1314,0.4863,-0.1047
0.017,-0.171,-0.102,8.2,65.5,52.1,0,2018,5,17,21,15,47.713,0.8555,0.1357,0.4854,-0.1178
0.049,-0.149,-0.093,11.2,84.4,47.2,0,2018,5,17,21,15,47.717,0.8534,0.1427,0.4836,-0.1317
0.012,-0.048,-0.08,14.9,85.1,44.6,0,2018,5,17,21,15,47.73,0.8509,0.1515,0.4812,-0.1462
0.007,0.126,0.044,15.9,58.8,35,0,2018,5,17,21,15,47.765,0.849,0.1592,0.4781,-0.1584
0.013,0.049,0.178,16.4,-29.4,30.3,0,2018,5,17,21,15,47.789,0.8491,0.1585,0.4761,-0.1647
-0.002,-0.259,0.171,11.7,-62.5,20.5,0,2018,5,17,21,15,47.794,0.8511,0.1482,0.476,-0.1641
-0.054,-0.507,0.023,6.9,-52.6,10.8,1023,2018,5,17,21,15,47.81,0.8528,0.1376,0.477,-0.1616
-0.047,-0.465,0.017,6.4,7.4,-6.8,1023,2018,5,17,21,15,47.832,0.8539,0.134,0.4766,-0.1599
0.037,-0.572,0.088,-1.4,67.1,-22.8,1023,2018,5,17,21,15,47.868,0.8537,0.1403,0.475,-0.1603
-0.086,0.368,0.007,-5.9,112.4,-15.6,1023,2018,5,17,21,15,47.891,0.8513,0.1583,0.472,-0.1652
-0.068,0.269,-0.021,-3.6,84.2,-4.9,1023,2018,5,17,21,15,47.895,0.8482,0.174,0.4697,-0.1716
0.097,0.099,-0.026,-2.6,62.5,-4.8,1023,2018,5,17,21,15,47.914,0.8458,0.1851,0.4679,-0.1767
0.097,0.326,-0.067,-4.5,90.2,5.3,1023,2018,5,17,21,15,47.951,0.8426,0.1974,0.4663,-0.1829
0.083,0.183,0.257,-12.5,19,14.2,1023,2018,5,17,21,15,47.973,0.8395,0.2056,0.4661,-0.1886
0.052,0.228,0.164,-14,11.6,16.2,1023,2018,5,17,21,15,47.976,0.8376,0.2072,0.4676,-0.1915
0.212,0.44,0.151,-13.9,-41.8,24.3,1023,2018,5,17,21,15,47.992,0.8363,0.2047,0.4708,-0.1922
0.525,-0.226,-0.19,-6.9,-114.9,27.8,1023,2018,5,17,21,15,48.029,0.8374,0.1887,0.4771,-0.188
0.479,-0.275,-0.212,-4.8,-82.9,43.8,0,2018,5,17,21,15,48.053,0.8386,0.1714,0.4826,-0.1852
0.185,-0.254,-0.047,8.8,11,39.9,0,2018,5,17,21,15,48.057,0.8383,0.1632,0.4847,-0.1885
0.076,-0.033,0.087,18.3,25.7,33,0,2018,5,17,21,15,48.075,0.8376,0.1633,0.4829,-0.196
-0.015,0.086,0.074,23,15.2,33.4,0,2018,5,17,21,15,48.095,0.8379,0.1629,0.4797,-0.2027
0.07,0.36,-0.028,29,-8.3,47,0,2018,5,17,21,15,48.131,0.8387,0.1597,0.4767,-0.2091
0.257,-0.158,-0.198,21.6,55.9,64.6,0,2018,5,17,21,15,48.154,0.8384,0.1556,0.4742,-0.2188
0.305,0.156,-0.348,18.6,203.8,76.7,0,2018,5,17,21,15,48.158,0.8331,0.1696,0.468,-0.2408
0.187,0.747,-0.406,38.7,196.4,98.7,0,2018,5,17,21,15,48.175,0.8246,0.1924,0.4574,-0.2714
0.087,0.439,-0.417,65.4,102.1,104.2,0,2018,5,17,21,15,48.197,0.8185,0.2029,0.4461,-0.2994
0.094,-0.173,-0.4,78.5,41.8,87.9,0,2018,5,17,21,15,48.214,0.8166,0.2006,0.4359,-0.3205
0.095,-0.336,-0.338,90.1,55.7,60,0,2018,5,17,21,15,48.249,0.8172,0.1971,0.4238,-0.3369
-0.012,-0.08,-0.304,102.2,44.9,41.1,0,2018,5,17,21,15,48.272,0.8194,0.1957,0.4086,-0.3509
-0.109,-0.214,-0.52,121.7,6.9,33.2,0,2018,5,17,21,15,48.276,0.8242,0.1897,0.3927,-0.3611
-0.195,-0.338,-0.416,141.8,33.4,16.7,0,2018,5,17,21,15,48.295,0.8309,0.1822,0.3733,-0.3701
-0.238,0.09,-0.007,147.6,40.6,6.1,1023,2018,5,17,21,15,48.331,0.8383,0.178,0.3495,-0.3785
-0.226,0.273,0.229,136.8,11.2,12,1023,2018,5,17,21,15,48.354,0.8454,0.1721,0.3271,-0.3855
-0.246,0.274,0.211,122.2,-21.1,22.2,1023,2018,5,17,21,15,48.358,0.8515,0.1615,0.309,-0.3914
-0.32,-0.086,0.037,118.1,-5.5,26.2,1023,2018,5,17,21,15,48.378,0.8566,0.1493,0.2933,-0.3972
-0.294,0.037,0.161,111.7,21.3,23.3,1023,2018,5,17,21,15,48.397,0.8603,0.1422,0.2759,-0.4043
-0.233,0.001,0.199,105.5,4.6,18.9,1023,2018,5,17,21,15,48.42,0.8636,0.1358,0.2593,-0.4104
-0.149,0.072,0.262,97.7,-15.1,18.7,1023,2018,5,17,21,15,48.437,0.8668,0.1274,0.2448,-0.4152
-0.127,0.144,0.194,89.4,-88.5,16.7,0,2018,5,17,21,15,48.456,0.8705,0.1124,0.2348,-0.4176
-0.12,0.103,0.098,84.2,-149.4,19.5,0,2018,5,17,21,15,48.479,0.8749,0.0865,0.2311,-0.4166
-0.082,0.025,0.125,75.9,-155,22.3,0,2018,5,17,21,15,48.495,0.8787,0.0561,0.2299,-0.4143
0.02,0.085,0.197,61.5,-125.8,25.1,0,2018,5,17,21,15,48.532,0.8811,0.0287,0.2288,-0.4126
0.034,0.137,0.202,46.7,-88.4,31,0,2018,5,17,21,15,48.555,0.8817,0.0081,0.2277,-0.4129
0.021,0.247,0.156,36.3,-70.3,38.3,0,2018,5,17,21,15,48.559,0.8809,-0.0077,0.227,-0.415
0.002,0.419,-0.01,41.3,-99.4,48.5,0,2018,5,17,21,15,48.577,0.8791,-0.0245,0.227,-0.4183
0.02,0.278,0.034,42.2,-143.2,58.7,0,2018,5,17,21,15,48.6,0.876,-0.049,0.2295,-0.4212
0,0.001,0.063,34.7,-130,58.8,0,2018,5,17,21,15,48.619,0.8717,-0.0753,0.2329,-0.4243
0.082,-0.051,0.121,24.6,-98,55,0,2018,5,17,21,15,48.637,0.8671,-0.0971,0.2361,-0.4276
0.072,-0.097,0.146,8.8,-49.6,58.3,0,2018,5,17,21,15,48.66,0.862,-0.1121,0.2382,-0.4329
0.043,0.017,0.093,-6.4,2.8,61.5,0,2018,5,17,21,15,48.677,0.8571,-0.1175,0.2386,-0.441
-0.025,0.122,-0.032,-17.2,43.9,69.4,0,2018,5,17,21,15,48.701,0.8522,-0.1149,0.2368,-0.452
-0.137,0.006,-0.009,-33.9,89.3,74.6,0,2018,5,17,21,15,48.716,0.8467,-0.106,0.2329,-0.4664
-0.114,-0.068,0.09,-47.5,134.4,74.8,0,2018,5,17,21,15,48.739,0.8408,-0.0888,0.2282,-0.4827
-0.082,0.106,0.109,-57,168.5,82.6,0,2018,5,17,21,15,48.758,0.834,-0.0652,0.2208,-0.5012
-0.086,0.265,0.02,-55.6,156.5,89.5,0,2018,5,17,21,15,48.776,0.8256,-0.0393,0.2133,-0.5208
-0.13,0.353,-0.104,-47.5,84.2,89.8,0,2018,5,17,21,15,48.797,0.8159,-0.0206,0.2088,-0.5386
-0.13,0.213,-0.171,-37.5,13.8,89,0,2018,5,17,21,15,48.835,0.8059,-0.0135,0.2102,-0.5532
-0.136,0.105,-0.115,-33.2,-22.5,89,0,2018,5,17,21,15,48.859,0.796,-0.0146,0.215,-0.5655
-0.136,0.11,-0.138,-26.9,-48.9,90.2,1023,2018,5,17,21,15,48.862,0.786,-0.0199,0.2212,-0.5768
-0.136,0.236,-0.241,-13.6,-111.2,86.7,1023,2018,5,17,21,15,48.879,0.776,-0.0323,0.2311,-0.5859
-0.074,0.343,-0.266,-0.6,-207.6,74.2,1023,2018,5,17,21,15,48.902,0.7661,-0.0566,0.2475,-0.5903
-0.671,-0.32,0.207,5.6,-301.1,64.8,1023,2018,5,17,21,15,48.919,0.7554,-0.0925,0.2711,-0.5892
-0.144,-0.581,0.152,-18.1,-439.2,17.6,1023,2018,5,17,21,15,48.942,0.7431,-0.1456,0.311,-0.5742
0.039,0.05,-0.092,-41.2,-464,5.4,1023,2018,5,17,21,15,48.961,0.7262,-0.2026,0.3599,-0.5494
0.163,0.584,-0.409,-51.5,-358.4,29.7,1023,2018,5,17,21,15,48.978,0.7048,-0.2512,0.4042,-0.5259
0.041,0.439,-0.526,-34.8,-229.8,74,1023,2018,5,17,21,15,48.997,0.6829,-0.2864,0.4333,-0.5135
0.08,0.543,-0.555,-9.6,-82.3,98.1,0,2018,5,17,21,15,49.02,0.6657,-0.3082,0.4446,-0.5138
0.154,0.664,-0.635,26.7,-9,129.7,0,2018,5,17,21,15,49.041,0.6539,-0.3224,0.4406,-0.5237
0.08,0.519,-0.739,62.8,46.4,165.4,0,2018,5,17,21,15,49.059,0.6444,-0.3358,0.4251,-0.5395
-0.013,0.257,-0.751,99.4,130,194.8,0,2018,5,17,21,15,49.083,0.6381,-0.3468,0.3965,-0.5614
-0.08,-0.054,-0.712,141.3,230.8,207.5,0,2018,5,17,21,15,49.099,0.6368,-0.352,0.3521,-0.5885
-0.285,-0.139,-0.612,169.6,310.5,195,0,2018,5,17,21,15,49.122,0.6414,-0.3491,0.2928,-0.6171
-0.371,0.236,-0.509,199.5,275.4,170,0,2018,5,17,21,15,49.16,0.6478,-0.3436,0.2277,-0.6405
-0.475,0.126,-0.215,218.4,177.8,144.3,0,2018,5,17,21,15,49.16,0.6507,-0.3481,0.1696,-0.6531
-0.407,-0.287,0.038,215.2,186.3,128.7,0,2018,5,17,21,15,49.184,0.6509,-0.357,0.1166,-0.6597
-0.401,-0.3,0.09,202.4,240.1,111.2,0,2018,5,17,21,15,49.201,0.6536,-0.3585,0.0602,-0.6637
-0.484,-0.17,0.125,199,233.9,86.2,0,2018,5,17,21,15,49.218,0.6581,-0.3546,0.003,-0.664
-0.533,-0.069,0.487,188.4,161.5,63.1,0,2018,5,17,21,15,49.241,0.6613,-0.3537,-0.0471,-0.6597
-0.533,-0.198,0.66,163.1,96,41.5,0,2018,5,17,21,15,49.278,0.6608,-0.359,-0.0852,-0.6535
-0.337,-0.078,0.58,135.3,40.3,21.1,0,2018,5,17,21,15,49.301,0.6591,-0.3669,-0.1121,-0.6467
-0.209,-0.069,0.436,113.2,-17.8,4.9,0,2018,5,17,21,15,49.305,0.6557,-0.3792,-0.1282,-0.64
-0.156,-0.225,0.171,88.3,-52.6,-2.9,0,2018,5,17,21,15,49.324,0.6507,-0.3947,-0.1348,-0.6344
-0.213,-0.244,0.003,68.8,15.3,-7.9,0,2018,5,17,21,15,49.36,0.6481,-0.4062,-0.1405,-0.6286
-0.073,0.153,-0.041,61,43.8,-7.9,0,2018,5,17,21,15,49.384,0.6498,-0.4094,-0.1517,-0.6221
0.035,0.519,-0.194,65,-10.7,4.9,1023,2018,5,17,21,15,49.388,0.6497,-0.4139,-0.1606,-0.6169
0.011,0.187,-0.266,71.4,-50.5,12.8,1023,2018,5,17,21,15,49.402,0.6439,-0.4257,-0.1649,-0.6138
-0.077,-0.051,-0.233,73.4,-15.9,19,1023,2018,5,17,21,15,49.437,0.6373,-0.4368,-0.1707,-0.6114
-0.031,0.215,-0.257,76.2,11.8,18.6,1023,2018,5,17,21,15,49.46,0.6332,-0.4439,-0.1807,-0.6076
-0.047,0.088,-0.22,82.8,-4.2,21.2,1023,2018,5,17,21,15,49.464,0.6287,-0.4515,-0.1911,-0.6035
0,0.001,-0.233,97,38.5,25.2,1023,2018,5,17,21,15,49.5,0.6241,-0.4586,-0.2043,-0.5986
-0.224,-0.041,0.404,87.9,33.8,29.1,1023,2018,5,17,21,15,49.523,0.6207,-0.4631,-0.2211,-0.5926
-0.536,0.558,0.415,67.1,-5.3,22.2,1023,2018,5,17,21,15,49.527,0.6168,-0.4678,-0.2335,-0.5883
-0.464,0.14,0.048,48.9,-88.8,17.7,1023,2018,5,17,21,15,49.544,0.6078,-0.4782,-0.2356,-0.5884
-0.084,0.014,-0.63,57.4,-72.2,23.9,0,2018,5,17,21,15,49.562,0.5964,-0.492,-0.2337,-0.5895
-0.132,0.24,-0.327,72.7,-38,28.6,0,2018,5,17,21,15,49.586,0.5866,-0.5027,-0.2378,-0.5887
-0.118,0.125,0.04,68,-18.6,24.7,0,2018,5,17,21,15,49.622,0.578,-0.5115,-0.2451,-0.5865
0.019,-0.027,0.026,58.5,-11.2,17.6,0,2018,5,17,21,15,49.645,0.5717,-0.5185,-0.2516,-0.5838
0.194,-0.079,0.08,49,-9.3,21.4,0,2018,5,17,21,15,49.649,0.567,-0.5237,-0.2577,-0.5811
0.058,-0.114,-0.002,42.3,-30,19.4,0,2018,5,17,21,15,49.664,0.5612,-0.5289,-0.2621,-0.5799
0.23,0.015,-0.078,42.4,-41.2,23.7,0,2018,5,17,21,15,49.682,0.5538,-0.5365,-0.2635,-0.5795
0.096,-0.094,0.097,38.5,-36.8,32.6,0,2018,5,17,21,15,49.705,0.5454,-0.5435,-0.2656,-0.58
-0.102,-0.113,0.049,30.3,-24.5,41.4,0,2018,5,17,21,15,49.741,0.5372,-0.5482,-0.269,-0.5817
-0.196,0.233,-0.058,32.6,-34.8,46.8,0,2018,5,17,21,15,49.741,0.5284,-0.5519,-0.2735,-0.5842
-0.271,0.158,0.012,34.1,-41.8,48.1,0,2018,5,17,21,15,49.764,0.518,-0.5567,-0.2772,-0.5872
0.008,0.123,0.091,37,-32.7,47.2,0,2018,5,17,21,15,49.784,0.5075,-0.5613,-0.2814,-0.59
0.068,-0.159,0.025,34.5,-21.7,46.5,0,2018,5,17,21,15,49.808,0.4982,-0.5649,-0.2862,-0.592
0.073,-0.047,-0.016,31.2,-20.8,48.1,0,2018,5,17,21,15,49.842,0.4902,-0.5677,-0.2912,-0.5937
0.007,0.073,-0.169,33.4,-35.3,49.3,0,2018,5,17,21,15,49.866,0.4802,-0.572,-0.2955,-0.5956
0.038,0.136,-0.071,40.9,-46.6,56,0,2018,5,17,21,15,49.87,0.4684,-0.5768,-0.2994,-0.5984
-0.036,-0.03,0.014,39,-27.2,59,0,2018,5,17,21,15,49.883,0.4559,-0.5815,-0.3045,-0.6009
-0.075,0.069,-0.164,28.8,4,59.5,0,2018,5,17,21,15,49.92,0.4468,-0.5829,-0.3125,-0.6023
-0.055,0.31,-0.247,25.7,6.3,62.6,0,2018,5,17,21,15,49.943,0.4393,-0.582,-0.3216,-0.6039
-0.033,0.123,-0.133,24.3,6.8,70.1,1023,2018,5,17,21,15,49.948,0.4312,-0.5806,-0.3309,-0.6061
-0.076,-0.086,0.077,18,-1.2,67.9,1023,2018,5,17,21,15,49.963,0.4227,-0.5787,-0.3404,-0.6086
-0.037,-0.11,0.062,8.5,-13.6,66.5,1023,2018,5,17,21,15,49.987,0.4144,-0.5763,-0.3464,-0.6131
0.01,-0.126,-0.105,2.9,2.4,67.2,1023,2018,5,17,21,15,50.022,0.4064,-0.5736,-0.3526,-0.6175
0.003,0.025,-0.078,-2.1,6.4,66.4,1023,2018,5,17,21,15,50.045,0.3994,-0.5696,-0.3602,-0.6214
-0.087,0.078,-0.041,-5.3,0.4,68.1,1023,2018,5,17,21,15,50.05,0.3921,-0.5648,-0.3677,-0.626
-0.107,0.069,0.007,-6.7,-25.2,70.3,1023,2018,5,17,21,15,50.085,0.3829,-0.5602,-0.3733,-0.6324
-0.073,-0.196,0.05,-10.4,-20.4,70.4,1023,2018,5,17,21,15,50.105,0.3729,-0.5567,-0.3765,-0.6395
-0.028,-0.09,0.101,-16.5,1.8,70.3,0,2018,5,17,21,15,50.11,0.365,-0.5512,-0.3815,-0.6459
0.024,-0.158,-0.032,-12.6,2.8,76.7,0,2018,5,17,21,15,50.128,0.3585,-0.5442,-0.3876,-0.6519
-0.076,-0.1,-0.023,-8.1,9.1,76.4,0,2018,5,17,21,15,50.15,0.3513,-0.538,-0.3943,-0.6568
-0.034,-0.243,-0.229,-2.4,32.4,79.3,0,2018,5,17,21,15,50.169,0.3443,-0.5313,-0.4033,-0.6605
-0.053,-0.114,-0.113,0.3,96,87.8,0,2018,5,17,21,15,50.184,0.3405,-0.5215,-0.4188,-0.6607
-0.111,-0.091,-0.007,4.8,118.6,89.8,0,2018,5,17,21,15,50.208,0.34,-0.5091,-0.4397,-0.657
-0.326,-0.471,0.188,2.7,90.6,63.4,0,2018,5,17,21,15,50.244,0.34,-0.4971,-0.4594,-0.6527
-0.264,-0.196,-0.078,-0.6,32.6,37.9,0,2018,5,17,21,15,50.267,0.3397,-0.4906,-0.4694,-0.6507
-0.279,-0.113,0.13,-9.6,5.2,7.3,0,2018,5,17,21,15,50.271,0.3394,-0.4874,-0.473,-0.6506
-0.057,-0.001,-0.655,-1.4,-31.2,-4.2,0,2018,5,17,21,15,50.287,0.3382,-0.4877,-0.4701,-0.6532
-0.18,0.239,-0.124,-10.1,5.3,-3.2,0,2018,5,17,21,15,50.31,0.3382,-0.4872,-0.47,-0.6536
-0.282,0.528,0.04,-23.6,-41.3,-13.8,0,2018,5,17,21,15,50.328,0.3388,-0.4873,-0.4668,-0.6555
-0.287,0.405,0.26,-40.7,-118.2,-39.5,0,2018,5,17,21,15,50.351,0.3373,-0.4905,-0.4532,-0.6634
-0.175,0.101,0.094,-42.6,-166.7,-71.5,0,2018,5,17,21,15,50.368,0.3344,-0.4984,-0.4282,-0.6754
-0.121,0.202,-0.301,-27.6,-123.2,-71,0,2018,5,17,21,15,50.403,0.3322,-0.5082,-0.4026,-0.6849
-0.067,0.351,-0.312,-14.5,-121.1,-76.8,0,2018,5,17,21,15,50.426,0.3318,-0.5178,-0.3806,-0.6905
-0.104,0.076,-0.276,-6.5,-129.6,-74.5,0,2018,5,17,21,15,50.431,0.3297,-0.5289,-0.3579,-0.6952
-0.085,0.222,-0.228,-11.1,-109.8,-62.9,0,2018,5,17,21,15,50.448,0.3272,-0.5391,-0.3365,-0.6992
0.031,0.576,-0.214,-14.6,-123.9,-45.8,1023,2018,5,17,21,15,50.47,0.3237,-0.5471,-0.3168,-0.7038
0.073,0.577,-0.235,-14.2,-160.1,-26.2,1023,2018,5,17,21,15,50.489,0.3149,-0.5552,-0.2949,-0.7109
0.106,0.406,-0.253,-12.2,-179.4,-15.7,1023,2018,5,17,21,15,50.511,0.301,-0.5639,-0.2709,-0.7196
0.103,0.232,-0.217,-13.7,-178,-11,1023,2018,5,17,21,15,50.533,0.285,-0.5722,-0.2463,-0.7283
0.116,0.142,-0.214,-14.6,-168.6,-9.9,1023,2018,5,17,21,15,50.548,0.2694,-0.5792,-0.2225,-0.7364
0.106,0.093,-0.194,-15,-151,-9,1023,2018,5,17,21,15,50.572,0.2548,-0.5851,-0.2001,-0.7433
0.108,0.077,-0.143,-18.1,-123.4,-5.9,1023,2018,5,17,21,15,50.609,0.242,-0.5892,-0.1809,-0.7492
0.089,0.068,-0.113,-21.9,-96.9,-3.1,1023,2018,5,17,21,15,50.633,0.2316,-0.5916,-0.1657,-0.7541
0.16,0.132,-0.223,-18.1,-89.2,0.4,0,2018,5,17,21,15,50.636,0.2228,-0.5926,-0.1529,-0.7587
0.161,0.063,-0.37,-16.8,-90.6,1.1,0,2018,5,17,21,15,50.651,0.2135,-0.594,-0.1403,-0.7627
0.118,-0.049,-0.159,-23.8,-69.2,0.7,0,2018,5,17,21,15,50.67,0.2053,-0.5942,-0.1289,-0.7668
0.087,-0.132,0.032,-32.6,-43.6,-4.9,0,2018,5,17,21,15,50.69,0.201,-0.5925,-0.1197,-0.7707
0.137,-0.091,0.002,-40.3,-29.5,-3.9,0,2018,5,17,21,15,50.728,0.1986,-0.5889,-0.113,-0.7752
0.178,-0.033,-0.109,-39.1,-28,-1.3,0,2018,5,17,21,15,50.752,0.1974,-0.5845,-0.1069,-0.7796
0.166,-0.039,-0.161,-35.6,-44.8,-1.9,0,2018,5,17,21,15,50.756,0.1946,-0.5814,-0.1002,-0.7835
0.134,-0.016,-0.154,-29.8,-68.5,-3,0,2018,5,17,21,15,50.774,0.1896,-0.5791,-0.0911,-0.7875
0.095,-0.024,-0.101,-26.3,-87.3,-0.4,0,2018,5,17,21,15,50.79,0.1822,-0.5788,-0.0789,-0.7908
0.075,0.013,-0.112,-23.4,-104.3,4,0,2018,5,17,21,15,50.813,0.1723,-0.579,-0.0649,-0.7941
0.062,0.003,-0.126,-19.1,-119.1,9.2,0,2018,5,17,21,15,50.831,0.1601,-0.5801,-0.0493,-0.797
0.078,0,-0.156,-13,-130.5,13.4,0,2018,5,17,21,15,50.868,0.1459,-0.5822,-0.0325,-0.7991
0.103,-0.017,-0.175,-5,-138.1,16.4,0,2018,5,17,21,15,50.89,0.1302,-0.5846,-0.0148,-0.8006
0.104,-0.032,-0.162,3.8,-143.6,18.5,0,2018,5,17,21,15,50.895,0.1134,-0.5875,0.0031,-0.8011
0.102,-0.043,-0.133,13.1,-143.8,19.8,0,2018,5,17,21,15,50.914,0.0959,-0.5914,0.0212,-0.8003
0.1,-0.039,-0.111,23.4,-134.1,20.8,0,2018,5,17,21,15,50.932,0.079,-0.5967,0.0388,-0.7975
0.118,-0.05,-0.035,33.2,-114.8,19.7,0,2018,5,17,21,15,50.954,0.064,-0.6029,0.0544,-0.7933
0.12,-0.02,0.29,40.3,-88.6,16.2,0,2018,5,17,21,15,50.971,0.0516,-0.6091,0.0664,-0.7885
-0.013,0.04,0.694,35.1,-75.4,13.4,0,2018,5,17,21,15,50.995,0.0417,-0.6153,0.0756,-0.7834
-0.087,-0.139,0.827,14.3,-67.2,9,1023,2018,5,17,21,15,51.015,0.0329,-0.6194,0.0839,-0.7798
0.016,-0.242,0.472,-10,-50.5,-1.8,1023,2018,5,17,21,15,51.051,0.0262,-0.6199,0.0917,-0.7788
0.146,-0.217,0.053,-17.3,-27.1,-10.8,1023,2018,5,17,21,15,51.075,0.0232,-0.6178,0.098,-0.7798
0.075,-0.037,-0.043,-15.5,-12.9,-14,1023,2018,5,17,21,15,51.078,0.0232,-0.6154,0.1017,-0.7812
0,-0.104,0,-12.9,-4.5,-9.2,1023,2018,5,17,21,15,51.093,0.0235,-0.6135,0.105,-0.7822
-0.122,-0.186,-0.017,-16.4,69.3,-4.9,1023,2018,5,17,21,15,51.111,0.0277,-0.6113,0.1019,-0.7843
-0.115,0.013,-0.021,-19.9,119.4,-4.6,1023,2018,5,17,21,15,51.135,0.0391,-0.6084,0.0893,-0.7875
-0.111,-0.003,-0.022,-19.8,130,-1.8,1023,2018,5,17,21,15,51.15,0.0525,-0.605,0.0723,-0.7911
-0.135,0.062,0.05,-19.3,122.7,0.4,0,2018,5,17,21,15,51.172,0.0656,-0.6011,0.0545,-0.7945
-0.129,0.084,0.092,-21.8,91.6,-2.5,0,2018,5,17,21,15,51.21,0.0763,-0.5967,0.0392,-0.7978
-0.054,0.107,0.055,-22.6,62.1,-7.8,0,2018,5,17,21,15,51.234,0.0842,-0.5922,0.0288,-0.8008
0.027,0.144,0.03,-20.7,33.3,-9.8,0,2018,5,17,21,15,51.238,0.0902,-0.5883,0.0233,-0.8032
0.09,0.152,0.028,-18.1,0.2,-11,0,2018,5,17,21,15,51.257,0.0934,-0.5852,0.0224,-0.8051
0.14,0.15,0.029,-16.6,-34.5,-13.4,0,2018,5,17,21,15,51.293,0.0931,-0.5831,0.0264,-0.8065
0.155,0.14,0.006,-15.5,-62.3,-13,0,2018,5,17,21,15,51.316,0.0899,-0.5815,0.0351,-0.8077
0.134,0.156,-0.022,-13.2,-79,-7.9,0,2018,5,17,21,15,51.321,0.084,-0.5805,0.0467,-0.8085
0.088,0.171,-0.018,-12.9,-83,2.3,0,2018,5,17,21,15,51.335,0.0761,-0.5798,0.0587,-0.809
0.011,0.127,-0.014,-7.8,-92.2,8.9,0,2018,5,17,21,15,51.354,0.0659,-0.5795,0.0702,-0.8092
-0.047,-0.006,-0.044,-5.3,-85.5,12.2,0,2018,5,17,21,15,51.393,0.0549,-0.58,0.0818,-0.8085
-0.052,-0.073,-0.026,-5.3,-56.3,17.5,0,2018,5,17,21,15,51.393,0.0457,-0.5806,0.0909,-0.8077
0.024,-0.16,0.003,-3.5,-24.8,18.2,0,2018,5,17,21,15,51.415,0.0397,-0.5806,0.0956,-0.8075
0,-0.153,-0.01,-1,12.1,15.4,0,2018,5,17,21,15,51.453,0.0371,-0.5806,0.0949,-0.8077
0,-0.091,0,1.5,40.9,14.5,0,2018,5,17,21,15,51.475,0.0387,-0.5807,0.0905,-0.8081
0.023,-0.053,0.01,4.8,60.5,11,0,2018,5,17,21,15,51.477,0.0429,-0.5808,0.0825,-0.8086
0.02,-0.042,0.033,6.5,67.7,5.6,0,2018,5,17,21,15,51.513,0.0487,-0.581,0.0729,-0.8091
0.024,-0.02,0.052,5.6,66.8,1.8,0,2018,5,17,21,15,51.536,0.0552,-0.5809,0.0631,-0.8096
0.032,0,0.049,3.2,63.2,-2.4,0,2018,5,17,21,15,51.541,0.0621,-0.5803,0.0541,-0.8101
0.037,0.008,0.039,1.8,52.9,-5.7,0,2018,5,17,21,15,51.555,0.0684,-0.5795,0.0462,-0.8107
0.028,0.024,0.035,0.5,39.5,-8.2,1023,2018,5,17,21,15,51.592,0.0739,-0.5787,0.0403,-0.8111
0.006,0.04,0.024,-0.7,24.4,-9.4,1023,2018,5,17,21,15,51.615,0.0781,-0.5779,0.0364,-0.8114
0.004,0.073,0.007,-2.3,16.3,-10.4,1023,2018,5,17,21,15,51.62,0.0813,-0.5772,0.0343,-0.8117
0,0.074,0.002,-2.8,11.5,-10.6,1023,2018,5,17,21,15,51.637,0.0837,-0.5766,0.0329,-0.812
-0.009,0.064,0.002,-2.8,10.6,-10.7,1023,2018,5,17,21,15,51.655,0.0859,-0.5759,0.0319,-0.8122
-0.014,0.053,0.003,-2.9,12.1,-10.8,1023,2018,5,17,21,15,51.679,0.0881,-0.5753,0.031,-0.8125
-0.009,0.05,0.007,-2.6,14.4,-10.4,0,2018,5,17,21,15,51.715,0.0905,-0.5747,0.0297,-0.8127
-0.002,0.052,0.01,-2.3,17.4,-9.4,0,2018,5,17,21,15,51.739,0.0931,-0.574,0.0281,-0.813
0,0.049,0.003,-2.1,20.2,-7.9,0,2018,5,17,21,15,51.743,0.0959,-0.5733,0.026,-0.8132
-0.001,0.053,-0.002,-1.9,21.8,-5.9,0,2018,5,17,21,15,51.761,0.0986,-0.5726,0.0233,-0.8135
-0.012,0.057,-0.004,-1.8,21.9,-3.7,0,2018,5,17,21,15,51.776,0.1011,-0.5719,0.0202,-0.8137
-0.014,0.038,-0.008,-2.1,21.2,-2.7,0,2018,5,17,21,15,51.812,0.1033,-0.5714,0.0172,-0.8139
-0.008,0.063,-0.019,-2.5,21.1,-2.4,0,2018,5,17,21,15,51.835,0.1057,-0.5707,0.0141,-0.8141
-0.007,0.056,-0.017,-2.8,16.1,-2.1,0,2018,5,17,21,15,51.84,0.1074,-0.5701,0.0112,-0.8143
0.012,0.081,-0.022,-2.8,10.5,-2.2,0,2018,5,17,21,15,51.856,0.1085,-0.5696,0.009,-0.8146
0.013,0.085,-0.017,-1.8,-0.2,-1.6,0,2018,5,17,21,15,51.879,0.1088,-0.5692,0.0079,-0.8148
0.006,0.07,-0.004,-1,-10,-0.4,0,2018,5,17,21,15,51.918,0.1081,-0.5691,0.0083,-0.815
-0.003,0.056,0.001,-0.9,-17.8,1.1,0,2018,5,17,21,15,51.92,0.1062,-0.5693,0.0098,-0.8151
-0.006,0.036,0.003,-0.1,-23,2.3,0,2018,5,17,21,15,51.938,0.1036,-0.5696,0.0123,-0.8152
-0.008,0.012,0.01,0,-22.2,3.1,0,2018,5,17,21,15,51.958,0.1008,-0.5699,0.0152,-0.8152
-0.003,-0.001,0.01,-0.4,-16.2,3,0,2018,5,17,21,15,51.993,0.0984,-0.5702,0.0176,-0.8153
0.001,-0.005,0.001,-0.4,-9.9,2.6,0,2018,5,17,21,15,52.016,0.0968,-0.5703,0.0192,-0.8154
0.009,0,0.003,-0.2,-4.1,2.3,0,2018,5,17,21,15,52.02,0.0959,-0.5703,0.0201,-0.8155
0.005,-0.004,0.011,-0.6,-0.2,1.4,0,2018,5,17,21,15,52.041,0.0955,-0.5702,0.0203,-0.8156
0.009,0.008,0.007,-0.9,1.5,0.5,0,2018,5,17,21,15,52.06,0.0957,-0.5699,0.0202,-0.8158
0.015,0.005,0.003,-1.4,0.1,0.4,0,2018,5,17,21,15,52.097,0.0957,-0.5696,0.02,-0.816
0.023,-0.005,0.002,-1.2,-1.7,0.3,0,2018,5,17,21,15,52.12,0.0957,-0.5693,0.0202,-0.8162
0.029,-0.007,-0.009,-0.7,-0.8,0.1,1023,2018,5,17,21,15,52.125,0.0957,-0.5692,0.0206,-0.8163
0.014,-0.02,-0.008,0,2,-0.4,1023,2018,5,17,21,15,52.142,0.0958,-0.5691,0.0207,-0.8163
0.012,-0.022,-0.004,0,6.8,-1.2,1023,2018,5,17,21,15,52.16,0.0967,-0.5691,0.0204,-0.8162
0.002,-0.017,-0.011,0.5,11,-2.3,1023,2018,5,17,21,15,52.183,0.0979,-0.569,0.0195,-0.8162
-0.001,-0.005,-0.008,0.9,12.9,-3.5,1023,2018,5,17,21,15,52.202,0.0996,-0.569,0.0182,-0.816
0,0.004,-0.009,0.9,13.6,-4.6,1023,2018,5,17,21,15,52.24,0.1016,-0.5689,0.0167,-0.8158
-0.001,0.008,-0.008,0.9,13.8,-6.2,1023,2018,5,17,21,15,52.24,0.1037,-0.5688,0.0152,-0.8157
-0.001,0.021,-0.007,0.8,13.7,-7.6,1023,2018,5,17,21,15,52.263,0.1061,-0.5687,0.0139,-0.8154
-0.006,0.027,-0.004,0.6,13.2,-8.6,0,2018,5,17,21,15,52.279,0.1084,-0.5686,0.0126,-0.8153
-0.012,0.036,-0.002,0.4,12.7,-9.2,0,2018,5,17,21,15,52.302,0.1107,-0.5685,0.0113,-0.815
-0.011,0.047,-0.001,0.1,12.4,-9.1,0,2018,5,17,21,15,52.32,0.113,-0.5683,0.0101,-0.8148
0,0.058,-0.005,0,10.6,-8.4,0,2018,5,17,21,15,52.344,0.1152,-0.5681,0.009,-0.8147
0.005,0.055,-0.001,-0.2,8.4,-7.3,0,2018,5,17,21,15,52.361,0.1169,-0.5679,0.008,-0.8146
0.008,0.065,-0.006,-0.1,6.8,-6.2,0,2018,5,17,21,15,52.382,0.1184,-0.5677,0.0072,-0.8146
0.007,0.066,-0.008,0.3,5.1,-4.6,0,2018,5,17,21,15,52.418,0.1194,-0.5676,0.0064,-0.8145
0.002,0.055,-0.012,0.4,3.7,-2.7,0,2018,5,17,21,15,52.441,0.12,-0.5676,0.0057,-0.8144
-0.004,0.051,-0.009,0.7,3,-0.8,0,2018,5,17,21,15,52.445,0.1204,-0.5677,0.005,-0.8143
-0.002,0.044,-0.016,0.8,2.5,0.5,0,2018,5,17,21,15,52.463,0.1204,-0.5678,0.0042,-0.8142
0.003,0.044,-0.017,1.2,2.4,1.1,0,2018,5,17,21,15,52.486,0.1202,-0.568,0.0033,-0.8141
-0.001,0.038,-0.01,1.7,1.3,1.7,0,2018,5,17,21,15,52.502,0.1201,-0.5683,0.0027,-0.8139
0.001,0.031,-0.005,1.8,0.4,2.1,0,2018,5,17,21,15,52.539,0.1199,-0.5686,0.0021,-0.8137
0.005,0.028,-0.02,2,-1.3,2,0,2018,5,17,21,15,52.563,0.1195,-0.569,0.0017,-0.8135
0.001,0.024,-0.016,2.4,-2.3,1.8,0,2018,5,17,21,15,52.567,0.1188,-0.5695,0.0016,-0.8133
-0.001,0.014,-0.004,2.4,-2.2,2,0,2018,5,17,21,15,52.585,0.1183,-0.5699,0.0016,-0.813
-0.002,0.018,0.003,2.3,-2.2,1.6,0,2018,5,17,21,15,52.621,0.1178,-0.5703,0.0016,-0.8128
0.001,0.02,0,2.1,-3.6,1.6,0,2018,5,17,21,15,52.645,0.1172,-0.5707,0.0016,-0.8127
0.004,0.022,0.007,1.8,-5.5,1.2,0,2018,5,17,21,15,52.649,0.1166,-0.571,0.0021,-0.8126
0.005,0.016,0.013,1.6,-7.1,1,0,2018,5,17,21,15,52.666,0.1157,-0.5713,0.0027,-0.8125
-0.003,0.013,0.016,1.1,-7.5,0.8,0,2018,5,17,21,15,52.681,0.1149,-0.5715,0.0036,-0.8124
-0.004,0.007,0.018,0.6,-6.9,0.6,0,2018,5,17,21,15,52.704,0.114,-0.5716,0.0045,-0.8124
0,0.003,0.017,-0.1,-5.8,0.2,0,2018,5,17,21,15,52.74,0.1133,-0.5717,0.0053,-0.8125
0.004,0,0.013,-0.4,-4.2,-0.1,0,2018,5,17,21,15,52.763,0.1128,-0.5716,0.006,-0.8126
0.012,0.004,0.012,-0.9,-2.1,-0.6,0,2018,5,17,21,15,52.768,0.1126,-0.5715,0.0065,-0.8127
0.02,0.005,0.001,-0.9,0.1,-1,0,2018,5,17,21,15,52.786,0.1128,-0.5712,0.0068,-0.8129
0.021,0.009,-0.005,-0.6,2.1,-1.2,0,2018,5,17,21,15,52.802,0.1133,-0.571,0.0068,-0.813
0.017,0.004,-0.004,-0.3,4.1,-0.9,0,2018,5,17,21,15,52.825,0.1138,-0.5709,0.0064,-0.813
0.011,0.007,-0.007,0.3,5.5,-0.4,0,2018,5,17,21,15,52.844,0.1144,-0.5708,0.0058,-0.813
0.002,0.009,-0.009,0.9,6,0,0,2018,5,17,21,15,52.867,0.1151,-0.5709,0.005,-0.8128
0.008,0.009,-0.013,2,7.4,-0.1,0,2018,5,17,21,15,52.884,0.116,-0.571,0.0041,-0.8126
0.01,0.001,0,2.9,10.4,-0.2,0,2018,5,17,21,15,52.907,0.117,-0.5712,0.0028,-0.8123
-0.001,0.009,0.002,2.9,12.4,-0.7,0,2018,5,17,21,15,52.923,0.1184,-0.5714,0.0012,-0.812
-0.001,0.017,0.014,1.7,8.1,-1.3,0,2018,5,17,21,15,52.942,0.1196,-0.5714,-0.0003,-0.8118
-0.033,0.076,0.056,-3.7,-9.5,-0.2,0,2018,5,17,21,15,52.962,0.1197,-0.571,-0.0007,-0.8121
0.034,0.04,0.041,0.4,-46.9,-6.2,0,2018,5,17,21,15,53,0.1171,-0.5707,0.0032,-0.8126
0.095,-0.036,-0.015,7,-77.7,-11.9,0,2018,5,17,21,15,53.024,0.1122,-0.5723,0.0134,-0.8121
0.048,-0.096,0.035,8.5,-83.1,-17.2,0,2018,5,17,21,15,53.028,0.1067,-0.5748,0.027,-0.8108
0.017,-0.157,0.028,4.7,-82.9,-26.3,0,2018,5,17,21,15,53.045,0.1022,-0.5767,0.0419,-0.8094
0.072,-0.188,-0.085,7.5,-94.3,-40.4,0,2018,5,17,21,15,53.083,0.0985,-0.5787,0.0577,-0.8074
0.089,-0.304,-0.134,18.2,-100,-47.1,0,2018,5,17,21,15,53.107,0.0949,-0.5817,0.0761,-0.8042
0.023,-0.364,-0.024,21.7,-59.4,-51.9,0,2018,5,17,21,15,53.111,0.0939,-0.5853,0.0922,-0.8
0.063,-0.215,-0.019,24.5,-35.1,-57.9,0,2018,5,17,21,15,53.126,0.0975,-0.5881,0.1034,-0.7961
0.047,-0.366,-0.087,31.6,-24.4,-66.2,0,2018,5,17,21,15,53.144,0.1036,-0.5914,0.1137,-0.7915
0.01,-0.402,-0.063,37.8,6.9,-74.6,0,2018,5,17,21,15,53.18,0.1129,-0.595,0.1216,-0.7863
0.027,-0.196,-0.001,37,48.8,-78.7,1023,2018,5,17,21,15,53.204,0.1275,-0.5977,0.1248,-0.7815
0.02,-0.06,0.086,34.8,66.6,-79.9,1023,2018,5,17,21,15,53.207,0.146,-0.599,0.1247,-0.7773
-0.008,0.103,0.177,27.6,55.1,-74.3,1023,2018,5,17,21,15,53.226,0.1635,-0.5996,0.1233,-0.7736
0.008,0.201,0.12,18.1,24,-65.2,1023,2018,5,17,21,15,53.247,0.1776,-0.6,0.1245,-0.7699
0.057,0.172,0.032,19.6,-18.7,-55.2,1023,2018,5,17,21,15,53.266,0.186,-0.6011,0.1299,-0.7662
0.005,-0.106,-0.078,20.7,-22.4,-54.3,1023,2018,5,17,21,15,53.289,0.191,-0.6034,0.1383,-0.7616
0.069,-0.038,-0.195,15.5,23.2,-61.2,1023,2018,5,17,21,15,53.31,0.1989,-0.6046,0.1437,-0.7576
0.008,0.559,0.141,8.2,-42.7,-54.1,1023,2018,5,17,21,15,53.329,0.2071,-0.6046,0.149,-0.7544
-0.115,0.121,0.337,-2.8,-144.8,-44.9,0,2018,5,17,21,15,53.348,0.2024,-0.6075,0.1677,-0.7495
-0.181,0.039,0.289,-20.9,-176.6,-45.9,0,2018,5,17,21,15,53.37,0.1905,-0.6101,0.1943,-0.744
-0.17,0.083,0.185,-33,-205.9,-49.2,0,2018,5,17,21,15,53.386,0.1754,-0.6109,0.2248,-0.7385
-0.155,0.158,0.203,-36.4,-248.2,-47.1,0,2018,5,17,21,15,53.421,0.1558,-0.6108,0.2601,-0.7313
-0.105,-0.076,0.286,-33.1,-262.1,-48.7,0,2018,5,17,21,15,53.445,0.1324,-0.6106,0.2992,-0.721
-0.107,-0.22,0.234,-31.4,-216.5,-52.9,0,2018,5,17,21,15,53.45,0.1114,-0.609,0.3354,-0.71
-0.086,-0.151,0.222,-30.6,-165.2,-58.2,0,2018,5,17,21,15,53.467,0.097,-0.6052,0.3649,-0.7007
-0.044,-0.114,0.184,-32.8,-150.5,-63.4,0,2018,5,17,21,15,53.49,0.0863,-0.5998,0.3908,-0.6927
0.023,-0.094,0.195,-32.2,-150.1,-68,0,2018,5,17,21,15,53.508,0.0766,-0.5934,0.4161,-0.6846
0.071,-0.089,0.274,-34.3,-146.3,-69.9,0,2018,5,17,21,15,53.531,0.0672,-0.5862,0.4415,-0.6758
0.086,-0.085,0.254,-41.8,-128.1,-68.5,0,2018,5,17,21,15,53.564,0.0584,-0.5777,0.4652,-0.668
0.091,-0.127,0.176,-47.1,-92.6,-65.7,0,2018,5,17,21,15,53.587,0.0517,-0.5681,0.4853,-0.6625
0.057,0.003,0.153,-53.9,-43.9,-59.4,0,2018,5,17,21,15,53.589,0.0483,-0.5574,0.4997,-0.6611
0.033,0,0.116,-54,-13.3,-52.3,0,2018,5,17,21,15,53.606,0.0477,-0.5462,0.5082,-0.6641
0.08,-0.023,0.15,-55.3,7.6,-49.5,0,2018,5,17,21,15,53.63,0.0489,-0.5353,0.5137,-0.6686
0.131,0.069,0.036,-53.9,16.2,-41.8,0,2018,5,17,21,15,53.649,0.0505,-0.5244,0.517,-0.6745
0.117,-0.092,-0.081,-46.8,53.7,-38.2,0,2018,5,17,21,15,53.686,0.0539,-0.5145,0.5174,-0.6815
0.075,0.001,-0.093,-42.2,108,-34.4,0,2018,5,17,21,15,53.709,0.0619,-0.5051,0.5112,-0.6925
0.055,0.082,0,-38.5,130.2,-27.7,1023,2018,5,17,21,15,53.714,0.073,-0.4963,0.4997,-0.706
0.028,0.121,0.177,-40.7,122.1,-22.2,1023,2018,5,17,21,15,53.732,0.0833,-0.4875,0.4861,-0.7204
0.073,0.096,-0.133,-43.1,117.4,-17.3,1023,2018,5,17,21,15,53.75,0.0919,-0.4788,0.4735,-0.7334
0.034,0.084,-0.341,-33.4,128.5,-14.8,1023,2018,5,17,21,15,53.773,0.1012,-0.4707,0.4599,-0.746
-0.126,-0.026,-0.26,-19.6,164,-18,1023,2018,5,17,21,15,53.791,0.1134,-0.4634,0.4426,-0.7592
-0.211,0.054,-0.122,-12.3,198.5,-20,1023,2018,5,17,21,15,53.828,0.1296,-0.456,0.4199,-0.7738
-0.154,0.133,-0.095,-9.2,206,-26,1023,2018,5,17,21,15,53.852,0.1485,-0.4481,0.3943,-0.7884
-0.09,0.128,-0.163,-7.3,216.1,-32.5,1023,2018,5,17,21,15,53.855,0.1685,-0.4392,0.3676,-0.8021
-0.094,0.097,-0.322,0.7,222.2,-38.1,1023,2018,5,17,21,15,53.87,0.1902,-0.4298,0.3395,-0.8147
-0.141,0.056,-0.372,2.6,233.3,-45.4,1023,2018,5,17,21,15,53.888,0.2135,-0.4197,0.3099,-0.8259
-0.159,0.183,-0.228,2,216.7,-48.8,1023,2018,5,17,21,15,53.911,0.2373,-0.4086,0.2805,-0.8354
-0.176,0.191,-0.112,1.1,191.8,-48.5,1023,2018,5,17,21,15,53.947,0.2589,-0.3978,0.254,-0.8427
-0.17,0.062,-0.172,-1.5,164.8,-54.6,0,2018,5,17,21,15,53.971,0.2787,-0.3873,0.2314,-0.8477
-0.121,0.005,-0.25,4,147.5,-62.2,0,2018,5,17,21,15,53.974,0.2979,-0.3773,0.2125,-0.8506
-0.124,-0.081,-0.131,2.8,157.4,-65.6,0,2018,5,17,21,15,53.992,0.3174,-0.3676,0.1941,-0.8522
-0.127,0.066,-0.044,-6.4,179.7,-66,0,2018,5,17,21,15,54.01,0.3378,-0.3556,0.173,-0.854
-0.134,0.045,-0.074,-9.3,168.1,-66.8,0,2018,5,17,21,15,54.033,0.358,-0.3419,0.1511,-0.8556
-0.139,-0.037,-0.154,-7.8,154.5,-74.2,0,2018,5,17,21,15,54.051,0.3776,-0.3285,0.1319,-0.8556
-0.135,-0.045,-0.138,-5.6,146.4,-78.6,0,2018,5,17,21,15,54.075,0.3969,-0.3159,0.1141,-0.8541
-0.106,0.03,-0.097,-5.7,141.6,-84.9,0,2018,5,17,21,15,54.093,0.4166,-0.3034,0.0974,-0.8513
-0.087,0.187,-0.062,-4.8,129.3,-87.1,0,2018,5,17,21,15,54.115,0.4361,-0.2912,0.0818,-0.8475
-0.083,0.166,-0.111,-0.3,102.1,-85.2,0,2018,5,17,21,15,54.132,0.4542,-0.2809,0.0691,-0.8425
-0.066,0.098,-0.214,8.5,98.3,-80.7,0,2018,5,17,21,15,54.149,0.4708,-0.2728,0.0582,-0.8369
-0.025,0.144,-0.185,15.9,101,-75.5,0,2018,5,17,21,15,54.173,0.4867,-0.2658,0.046,-0.8308
0.015,0.172,-0.15,20.3,107.6,-69.6,0,2018,5,17,21,15,54.191,0.5017,-0.2591,0.0325,-0.8246
0.054,0.206,-0.158,23.4,105.2,-67.7,0,2018,5,17,21,15,54.215,0.5161,-0.2525,0.0179,-0.8182
0.049,0.195,-0.128,23.7,92.9,-70.4,0,2018,5,17,21,15,54.249,0.53,-0.2469,0.0045,-0.8112
0.035,0.095,-0.127,20.9,95.7,-75.6,0,2018,5,17,21,15,54.271,0.544,-0.2413,-0.0083,-0.8035
0,0.113,-0.074,16.7,94.7,-78.2,0,2018,5,17,21,15,54.276,0.5583,-0.2348,-0.0215,-0.7954
-0.042,0.15,-0.03,14.7,84.3,-76.3,1023,2018,5,17,21,15,54.295,0.5722,-0.2286,-0.0328,-0.7868
-0.077,0.147,-0.039,11.3,70.5,-73.1,1023,2018,5,17,21,15,54.319,0.585,-0.2233,-0.042,-0.7784
-0.097,0.126,-0.09,11.9,46.5,-72.3,1023,2018,5,17,21,15,54.333,0.5968,-0.2195,-0.0486,-0.7702
-0.132,0.086,-0.008,15.7,22.1,-71.6,1023,2018,5,17,21,15,54.35,0.6073,-0.2188,-0.0519,-0.7619
-0.162,0.046,0.057,15.4,11.8,-70.1,1023,2018,5,17,21,15,54.374,0.6169,-0.22,-0.0532,-0.7537
-0.187,0.001,0.061,12.9,9.4,-70.1,1023,2018,5,17,21,15,54.409,0.6259,-0.2223,-0.0546,-0.7455
-0.19,0.03,0.032,12.4,-4.5,-71.4,1023,2018,5,17,21,15,54.433,0.6347,-0.2247,-0.0542,-0.7372
-0.221,-0.002,0.016,14.4,-19.9,-70.9,1023,2018,5,17,21,15,54.438,0.6429,-0.2289,-0.0513,-0.729
-0.229,0.002,0.076,13.2,-12,-68,1023,2018,5,17,21,15,54.455,0.6506,-0.2336,-0.0481,-0.7209
-0.223,-0.002,0.103,9.6,-1.6,-65.4,0,2018,5,17,21,15,54.474,0.6583,-0.2366,-0.0465,-0.713
-0.147,-0.023,0.104,5.5,-8.7,-64.8,0,2018,5,17,21,15,54.497,0.6657,-0.2392,-0.0452,-0.7052
-0.103,0.001,0.172,0.4,-30.8,-65.7,0,2018,5,17,21,15,54.534,0.6726,-0.2427,-0.041,-0.6978
-0.043,0.001,0.147,-8.3,-48.3,-64.5,0,2018,5,17,21,15,54.557,0.6785,-0.2474,-0.0332,-0.6907
0.036,-0.042,0.093,-20,-50.7,-64,0,2018,5,17,21,15,54.562,0.6841,-0.2518,-0.0225,-0.684
0.092,-0.03,0.099,-32.5,-51.1,-62.8,0,2018,5,17,21,15,54.578,0.6896,-0.2544,-0.0099,-0.6778
0.134,-0.055,0.125,-48.5,-46,-61.2,0,2018,5,17,21,15,54.595,0.6949,-0.255,0.0041,-0.6722
0.143,-0.036,0.12,-67,-48,-63.2,0,2018,5,17,21,15,54.631,0.6998,-0.2538,0.0192,-0.6673
0.098,-0.034,0.043,-78.2,-59.9,-67.3,0,2018,5,17,21,15,54.653,0.7048,-0.2512,0.0379,-0.6623
0.052,-0.021,0.012,-85,-71.7,-72.1,0,2018,5,17,21,15,54.658,0.7092,-0.249,0.0594,-0.6567
-0.007,-0.056,-0.005,-89.8,-68.7,-74.9,0,2018,5,17,21,15,54.675,0.7133,-0.2473,0.082,-0.6505
-0.038,-0.049,-0.033,-93.3,-51.2,-74.9,0,2018,5,17,21,15,54.698,0.7175,-0.2438,0.1036,-0.6441
-0.069,-0.061,-0.067,-92.3,-37.6,-73.9,0,2018,5,17,21,15,54.716,0.7218,-0.2383,0.1233,-0.6378
-0.079,-0.026,-0.081,-85.6,-33.6,-71.2,0,2018,5,17,21,15,54.74,0.726,-0.2322,0.1413,-0.6316
-0.089,-0.004,-0.073,-78.2,-31.6,-65.8,0,2018,5,17,21,15,54.756,0.7297,-0.2266,0.1576,-0.6254
-0.101,0.005,-0.065,-71.1,-23.2,-61.3,1023,2018,5,17,21,15,54.779,0.7328,-0.2213,0.172,-0.6198
-0.079,0.038,-0.024,-62.4,-15.3,-57.1,1023,2018,5,17,21,15,54.816,0.7361,-0.2153,0.1842,-0.6145
-0.059,0.051,0.016,-51.1,-13.3,-52.9,1023,2018,5,17,21,15,54.816,0.7395,-0.2094,0.1942,-0.6094
-0.077,0.027,0.068,-42.6,-8.4,-49.3,1023,2018,5,17,21,15,54.838,0.743,-0.2041,0.2025,-0.6043
-0.088,0.011,0.073,-37,3.3,-47.7,1023,2018,5,17,21,15,54.872,0.7466,-0.1987,0.2087,-0.5995
-0.089,-0.015,0.089,-33.6,23.3,-46.2,1023,2018,5,17,21,15,54.895,0.7507,-0.1916,0.2128,-0.5952
-0.101,-0.008,0.101,-32.1,42.6,-44.3,1023,2018,5,17,21,15,54.897,0.7553,-0.1822,0.2142,-0.5918
-0.079,0.024,0.018,-30.4,53.3,-43.2,1023,2018,5,17,21,15,54.932,0.7602,-0.1711,0.2138,-0.589
-0.055,0.03,-0.014,-34.8,57.1,-42.5,1023,2018,5,17,21,15,54.951,0.7651,-0.1588,0.2132,-0.5863
-0.07,-0.002,0.01,-45.3,58.7,-41.9,1023,2018,5,17,21,15,54.958,0.7696,-0.1453,0.2134,-0.5838
-0.044,0.004,0.006,-58.4,45.1,-40.2,0,2018,5,17,21,15,54.992,0.7733,-0.1314,0.2157,-0.5815
0.035,0.004,-0.047,-67.3,20.9,-38.3,0,2018,5,17,21,15,55.016,0.7757,-0.1188,0.222,-0.5786
0.099,0.016,-0.069,-70.3,-9,-39.6,0,2018,5,17,21,15,55.02,0.777,-0.1091,0.2325,-0.5746
0.108,0.012,-0.087,-72,-34.8,-41.5,0,2018,5,17,21,15,55.058,0.7778,-0.1026,0.2464,-0.5689
0.122,-0.028,-0.106,-72.1,-46.1,-43.4,0,2018,5,17,21,15,55.082,0.778,-0.0993,0.2612,-0.5625
0.136,-0.053,-0.134,-67.8,-42.7,-46.6,0,2018,5,17,21,15,55.086,0.7785,-0.0963,0.2761,-0.5552
0.125,-0.147,-0.115,-61.1,-22,-50.7,0,2018,5,17,21,15,55.099,0.7796,-0.0922,0.2889,-0.5478
0.097,-0.149,-0.081,-54.6,8.9,-57.5,0,2018,5,17,21,15,55.116,0.7818,-0.0844,0.2983,-0.5408
0.071,-0.098,-0.045,-50.7,32.3,-61.7,0,2018,5,17,21,15,55.139,0.785,-0.0733,0.3046,-0.5342
0.01,-0.038,-0.004,-53.6,43,-65.3,0,2018,5,17,21,15,55.176,0.7885,-0.0598,0.3097,-0.5278
-0.022,0.046,-0.004,-58.7,36.8,-67.1,0,2018,5,17,21,15,55.199,0.792,-0.0453,0.3143,-0.5213
-0.017,0.064,-0.037,-62.9,20,-66.9,0,2018,5,17,21,15,55.204,0.795,-0.0317,0.3203,-0.514
-0.042,0.06,-0.03,-65.6,2.4,-64.9,0,2018,5,17,21,15,55.222,0.7975,-0.0203,0.3284,-0.5055
-0.094,-0.124,-0.027,-68.4,14.6,-66.3,0,2018,5,17,21,15,55.257,0.7993,-0.01,0.3374,-0.4971
-0.108,0.016,-0.041,-69.3,30.4,-68.9,0,2018,5,17,21,15,55.28,0.801,0.0032,0.3447,-0.4892
-0.08,0.135,0.035,-69.8,25.1,-68.6,0,2018,5,17,21,15,55.284,0.8028,0.0173,0.3515,-0.4811
-0.091,0.089,-0.044,-67.1,28.2,-65.5,0,2018,5,17,21,15,55.3,0.8043,0.0312,0.3583,-0.4728
-0.085,-0.015,-0.031,-68.3,37.4,-65.5,1023,2018,5,17,21,15,55.319,0.8053,0.0453,0.3642,-0.4655
-0.061,0.168,0.115,-76.1,32.1,-58.7,1023,2018,5,17,21,15,55.356,0.8056,0.0597,0.3705,-0.4582
-0.152,-0.248,0.186,-98.6,88.2,-45,1023,2018,5,17,21,15,55.379,0.8033,0.0772,0.3778,-0.4537
-0.032,0.136,-0.069,-116.3,160.3,-39.6,1023,2018,5,17,21,15,55.383,0.7975,0.1072,0.3815,-0.4548
0.025,0.438,-0.227,-114,143.8,-29.1,1023,2018,5,17,21,15,55.399,0.7889,0.1408,0.3844,-0.4581
0.024,0.615,-0.192,-100.6,80.4,-20.7,1023,2018,5,17,21,15,55.422,0.7805,0.1666,0.3893,-0.4597
0.074,0.187,-0.019,-92.7,21.2,-17,1023,2018,5,17,21,15,55.458,0.7741,0.1812,0.3984,-0.4572
0.001,0.071,-0.162,-92.8,28.8,-14.5,1023,2018,5,17,21,15,55.482,0.768,0.1931,0.4082,-0.4539
-0.025,0.071,-0.203,-90.4,35.9,-10.9,1023,2018,5,17,21,15,55.486,0.7611,0.2059,0.4179,-0.4512
-0.038,0.037,-0.156,-87.3,50,-3.6,0,2018,5,17,21,15,55.521,0.7535,0.2191,0.4261,-0.45
-0.008,0.088,-0.076,-83.1,53.1,-0.7,0,2018,5,17,21,15,55.545,0.7449,0.2338,0.4333,-0.45
-0.005,0.064,-0.083,-81.8,41.2,-4.2,0,2018,5,17,21,15,55.549,0.7366,0.247,0.4407,-0.4495
0.021,0.061,-0.089,-79.2,33.5,-17.4,0,2018,5,17,21,15,55.567,0.7293,0.2597,0.448,-0.447
0.1,0.175,-0.152,-66.2,2.4,-28.7,0,2018,5,17,21,15,55.582,0.7243,0.2703,0.4545,-0.4423
0.093,-0.066,-0.126,-52.1,-9.5,-34.7,0,2018,5,17,21,15,55.618,0.7226,0.2759,0.4613,-0.4344
0.07,0.142,-0.051,-48.1,8.8,-30.4,0,2018,5,17,21,15,55.641,0.7207,0.283,0.4661,-0.4279
0.01,0.203,-0.052,-48.7,9.6,-22.3,0,2018,5,17,21,15,55.646,0.7183,0.2898,0.4702,-0.4229
0.042,0.313,-0.106,-45,-9.2,-14.5,0,2018,5,17,21,15,55.661,0.7155,0.2952,0.475,-0.4184
0.115,0.267,-0.104,-36.4,-59.8,-11,0,2018,5,17,21,15,55.685,0.7149,0.2948,0.4819,-0.4119
0.465,0.212,0.028,-32.3,-110.8,-12.5,0,2018,5,17,21,15,55.703,0.7172,0.2873,0.4917,-0.4014
0.657,0.158,0.04,-32.2,-148.7,-18.2,0,2018,5,17,21,15,55.726,0.7219,0.2743,0.5041,-0.3864
0.228,0.013,-0.112,-34,-163.7,-23.4,0,2018,5,17,21,15,55.763,0.7275,0.2584,0.5181,-0.3679
-0.111,0.072,-0.222,-24.2,-193.6,-35.4,0,2018,5,17,21,15,55.787,0.734,0.2408,0.5319,-0.3467
-0.12,-0.052,-0.255,-13.6,-228.2,-47.6,0,2018,5,17,21,15,55.79,0.7432,0.2183,0.5451,-0.3204
-0.006,-0.086,-0.219,-8.4,-233,-59.1,0,2018,5,17,21,15,55.803,0.7535,0.1937,0.5568,-0.2907
0.055,-0.072,-0.186,-9.6,-226.4,-60.2,0,2018,5,17,21,15,55.838,0.7629,0.1696,0.5671,-0.2598
-0.024,-0.164,-0.239,-8.6,-211.7,-57.5,1023,2018,5,17,21,15,55.861,0.7704,0.1466,0.5761,-0.2299
0.059,-0.273,-0.275,-4.3,-188.4,-58.9,1023,2018,5,17,21,15,55.865,0.7767,0.1256,0.5832,-0.2016
0.073,-0.215,-0.306,6.1,-157.4,-61.9,1023,2018,5,17,21,15,55.902,0.7823,0.1084,0.5875,-0.1759
0.109,-0.242,-0.299,17.8,-123,-65.9,1023,2018,5,17,21,15,55.925,0.7879,0.0954,0.5887,-0.1529
0.043,-0.192,-0.265,33.4,-86.3,-70.9,1023,2018,5,17,21,15,55.93,0.7939,0.0876,0.5867,-0.1333
-0.002,-0.156,-0.257,48.6,-55.3,-75.7,1023,2018,5,17,21,15,55.963,0.8007,0.0844,0.5814,-0.1165
-0.1,-0.089,-0.132,59.2,-12.2,-79.6,1023,2018,5,17,21,15,55.986,0.8083,0.0864,0.5731,-0.1029
-0.13,0.026,0.063,55.7,22.7,-79.1,1023,2018,5,17,21,15,55.99,0.8154,0.0942,0.5633,-0.0935
-0.133,0.156,0.135,47.7,26.3,-75,1023,2018,5,17,21,15,56.007,0.8213,0.105,0.554,-0.0861
-0.032,0.21,0.096,44.2,-6.1,-67.4,1023,2018,5,17,21,15,56.03,0.8264,0.1129,0.546,-0.0778
0.013,0.154,-0.006,46,-47.3,-60.8,0,2018,5,17,21,15,56.066,0.8321,0.1139,0.5386,-0.0665
0.002,-0.02,-0.045,46.5,-41.7,-55,0,2018,5,17,21,15,56.066,0.8379,0.1125,0.5313,-0.0539
-0.036,-0.09,0.004,46.2,5.2,-54.8,0,2018,5,17,21,15,56.089,0.8429,0.1139,0.5238,-0.0456
-0.1,-0.016,0.089,38.2,41.8,-56,0,2018,5,17,21,15,56.106,0.8471,0.122,0.5155,-0.0408
-0.219,-0.038,0.299,27.8,30.9,-57,0,2018,5,17,21,15,56.142,0.8496,0.1325,0.5091,-0.036
-0.099,0.27,0.295,10.5,54.1,-57.6,0,2018,5,17,21,15,56.166,0.8505,0.1444,0.5046,-0.0319
-0.06,0.339,0.222,6.5,-1.5,-57.9,0,2018,5,17,21,15,56.17,0.8508,0.1535,0.5018,-0.0257
0.006,0.027,-0.013,12.8,-33.4,-56,0,2018,5,17,21,15,56.184,0.8524,0.1551,0.499,-0.0151
-0.014,-0.028,-0.139,14.6,21.9,-48.3,0,2018,5,17,21,15,56.206,0.8536,0.1583,0.4962,-0.0071
0.014,0.126,-0.198,14.7,87.1,-39.5,0,2018,5,17,21,15,56.228,0.8531,0.1707,0.4928,-0.0059
0.028,0.11,-0.154,19.4,126.5,-30.5,0,2018,5,17,21,15,56.251,0.8512,0.1895,0.4891,-0.0105
-0.016,0.182,-0.159,22.7,127.9,-23.9,0,2018,5,17,21,15,56.269,0.8485,0.2111,0.4848,-0.0183
-0.059,0.144,0.003,23.4,131,-20.6,0,2018,5,17,21,15,56.291,0.8457,0.2317,0.4799,-0.0266
-0.068,0.255,0.129,19.5,118.6,-17.4,0,2018,5,17,21,15,56.306,0.8421,0.2522,0.4752,-0.0355
-0.041,0.262,0.122,14.8,74.8,-12.4,0,2018,5,17,21,15,56.344,0.8392,0.2675,0.4714,-0.042
-0.002,0.183,0.088,8.1,38.7,-6.2,0,2018,5,17,21,15,56.368,0.8377,0.2761,0.4688,-0.0457
0.012,0.135,-0.001,4,10.6,-4.1,0,2018,5,17,21,15,56.372,0.8371,0.2805,0.4673,-0.0467
0.02,0.134,-0.061,6,-16.1,-0.5,1023,2018,5,17,21,15,56.39,0.8374,0.2809,0.4664,-0.046
0.049,0.098,-0.133,11.1,-44.8,0.9,1023,2018,5,17,21,15,56.426,0.8396,0.2762,0.4654,-0.0439
0.041,0.086,-0.158,17.9,-68.4,1,1023,2018,5,17,21,15,56.45,0.8436,0.2675,0.4637,-0.0401
0.026,0.114,-0.141,25,-85.3,2.4,1023,2018,5,17,21,15,56.454,0.8489,0.2558,0.4611,-0.035
0.059,0.033,-0.11,30.8,-93.6,4.7,1023,2018,5,17,21,15,56.471,0.855,0.2418,0.4577,-0.0295
0.056,0.063,-0.11,34.2,-76.1,9.4,1023,2018,5,17,21,15,56.508,0.8606,0.2286,0.4542,-0.0251
0.015,0.095,-0.032,35.3,-68.3,16,1023,2018,5,17,21,15,56.532,0.866,0.217,0.4498,-0.0225
-0.112,0.241,0.103,31.7,-78.3,20.5,1023,2018,5,17,21,15,56.536,0.871,0.2055,0.4455,-0.0212
-0.004,0.076,0.072,27,-98.4,23.9,1023,2018,5,17,21,15,56.551,0.8765,0.1898,0.4418,-0.0185
-0.047,-0.07,0.121,15.8,-74.8,29.8,1023,2018,5,17,21,15,56.574,0.8812,0.1739,0.4391,-0.0164
0.039,-0.129,0.021,6.5,-43.3,25.6,0,2018,5,17,21,15,56.589,0.8838,0.1621,0.4384,-0.0172
0.008,-0.134,-0.027,2.9,-24.6,17.9,0,2018,5,17,21,15,56.608,0.8849,0.1555,0.4384,-0.0183
-0.012,-0.093,-0.057,2.2,-13.4,11.9,0,2018,5,17,21,15,56.631,0.8855,0.1511,0.4387,-0.0193
0.001,-0.059,-0.051,5.4,-14.4,5.2,0,2018,5,17,21,15,56.649,0.886,0.148,0.4388,-0.0201
-0.002,-0.108,-0.012,6.2,-12.8,-0.2,0,2018,5,17,21,15,56.673,0.8868,0.1448,0.4384,-0.0198
-0.001,-0.113,0.029,4.5,2.5,-4.3,0,2018,5,17,21,15,56.692,0.8874,0.143,0.4376,-0.0197
-0.013,-0.066,0.033,2.2,17.7,-7.3,0,2018,5,17,21,15,56.714,0.8876,0.1444,0.4367,-0.0201
-0.028,-0.009,0.024,0.2,26.6,-9.5,0,2018,5,17,21,15,56.73,0.8873,0.1482,0.436,-0.0207
-0.026,0.024,0.003,-0.4,29.1,-10.3,0,2018,5,17,21,15,56.754,0.8867,0.1536,0.4354,-0.021
-0.016,0.059,-0.003,-0.7,29.9,-9.8,0,2018,5,17,21,15,56.775,0.8859,0.1594,0.4349,-0.0213
-0.002,0.084,-0.006,-1.2,27.8,-8.2,0,2018,5,17,21,15,56.791,0.885,0.1652,0.4346,-0.0218
0,0.1,-0.011,-1.5,23.6,-5.9,0,2018,5,17,21,15,56.827,0.8841,0.1705,0.4344,-0.0222
-0.001,0.111,-0.01,-1.5,15.4,-3.8,0,2018,5,17,21,15,56.85,0.8832,0.1748,0.4344,-0.0224
0.001,0.105,-0.014,-1.2,5.8,-1.5,0,2018,5,17,21,15,56.854,0.8826,0.1776,0.4345,-0.0223
0.002,0.083,-0.022,-0.4,-3.3,0.4,0,2018,5,17,21,15,56.874,0.8824,0.1786,0.4346,-0.0219
0.004,0.045,-0.018,0.4,-8.6,1.8,0,2018,5,17,21,15,56.891,0.8825,0.178,0.4347,-0.0214
0.001,0.019,0,0.7,-9.2,2.8,0,2018,5,17,21,15,56.914,0.8827,0.1768,0.4348,-0.0208
0,0,-0.007,0,-6.7,2.5,1023,2018,5,17,21,15,56.953,0.8829,0.1755,0.4349,-0.0204
0.002,-0.008,-0.005,-0.2,-3.2,1.7,1023,2018,5,17,21,15,56.955,0.883,0.1745,0.435,-0.0204
-0.001,-0.009,-0.01,0.1,0.5,0.8,1023,2018,5,17,21,15,56.973,0.883,0.1742,0.4351,-0.0204
-0.002,0.004,-0.014,0.4,2.8,-0.2,1023,2018,5,17,21,15,56.993,0.8829,0.1748,0.4352,-0.0201
0.002,0.019,-0.022,0,4.2,-0.2,1023,2018,5,17,21,15,57.012,0.8827,0.1756,0.4352,-0.0203
0.002,0.029,-0.011,1.7,4.4,0,1023,2018,5,17,21,15,57.035,0.8825,0.1765,0.4352,-0.0205
0.01,0.035,-0.013,0.8,3.2,0.1,1023,2018,5,17,21,15,57.054,0.8824,0.1773,0.4351,-0.0207
0.007,0.031,-0.021,-0.3,2,0.1,1023,2018,5,17,21,15,57.072,0.8822,0.178,0.4352,-0.0209
0.01,0.03,-0.019,0,0,0,1023,2018,5,17,21,15,57.094,0.882,0.1784,0.4354,-0.0208
0.002,0.03,-0.008,0.3,-0.7,0,1023,2018,5,17,21,15,57.13,0.882,0.1787,0.4355,-0.0207
0.002,0.021,-0.007,0.6,-1.4,0.3,0,2018,5,17,21,15,57.151,0.882,0.1787,0.4355,-0.0205
-0.002,0.017,-0.008,0.7,-0.9,0.6,0,2018,5,17,21,15,57.156,0.882,0.1788,0.4354,-0.0202
0.001,0.015,-0.007,1,-1.1,0.4,0,2018,5,17,21,15,57.171,0.882,0.1787,0.4354,-0.0202
0.002,0.013,0.002,1,-1.2,0.3,0,2018,5,17,21,15,57.195,0.8821,0.1787,0.4352,-0.02
0,0.009,0.001,0.6,-1.3,0.1,0,2018,5,17,21,15,57.233,0.8822,0.1786,0.4351,-0.0198
0,0.013,0.003,0.3,-0.8,-0.2,0,2018,5,17,21,15,57.255,0.8822,0.1785,0.435,-0.0197
-0.002,0.015,0.003,0,0,0,0,2018,5,17,21,15,57.26,0.8822,0.1786,0.435,-0.0196
-0.005,0.017,0.002,-0.4,0.8,-0.4,0,2018,5,17,21,15,57.274,0.8822,0.1788,0.435,-0.0195
-0.006,0.018,0.001,-0.7,1.2,-0.6,0,2018,5,17,21,15,57.294,0.8821,0.1794,0.4351,-0.0191
-0.004,0.017,-0.006,-0.6,1.3,-0.4,0,2018,5,17,21,15,57.311,0.8819,0.1799,0.4352,-0.0188
-0.005,0.023,-0.01,-0.4,1.6,-0.5,0,2018,5,17,21,15,57.336,0.8818,0.1803,0.4352,-0.0187
0.001,0.029,-0.008,-0.8,1.6,-0.4,0,2018,5,17,21,15,57.356,0.8817,0.1808,0.4353,-0.0187
0,0.027,-0.004,-0.9,1.3,-0.3,0,2018,5,17,21,15,57.393,0.8815,0.1812,0.4354,-0.0186
0.001,0.023,-0.007,-0.6,0.8,0.1,0,2018,5,17,21,15,57.414,0.8814,0.1816,0.4356,-0.0185
-0.001,0.024,-0.012,0,0,0,0,2018,5,17,21,15,57.419,0.8813,0.1819,0.4357,-0.0185
0.003,0.021,-0.008,-0.3,-0.5,0.6,0,2018,5,17,21,15,57.435,0.8812,0.182,0.4358,-0.0185
0.002,0.013,-0.004,0,-1.1,0.7,0,2018,5,17,21,15,57.459,0.8811,0.1819,0.4359,-0.0184
0.002,0.008,-0.007,0,-1.1,0.6,1023,2018,5,17,21,15,57.494,0.8811,0.1817,0.436,-0.0184
0.004,0.011,-0.004,-0.1,-1,0.6,1023,2018,5,17,21,15,57.494,0.8811,0.1816,0.436,-0.0184
0.004,0.005,-0.004,-0.3,-0.8,0.6,1023,2018,5,17,21,15,57.518,0.8811,0.1815,0.4361,-0.0184
-0.001,0.004,-0.001,-0.2,-0.8,0.3,1023,2018,5,17,21,15,57.533,0.8811,0.1815,0.4362,-0.0182
0,-0.001,-0.003,-0.1,-0.8,0,1023,2018,5,17,21,15,57.557,0.881,0.1814,0.4363,-0.018
0,0.001,-0.005,0,0,0,1023,2018,5,17,21,15,57.594,0.881,0.1814,0.4364,-0.018
0,0.006,-0.005,-0.3,1.3,-1,1023,2018,5,17,21,15,57.617,0.8809,0.1819,0.4365,-0.0175
0,0.015,-0.001,-0.4,1.6,-1,1023,2018,5,17,21,15,57.621,0.8808,0.1822,0.4365,-0.0174
0.001,0.021,-0.006,-0.5,0.8,-0.8,1023,2018,5,17,21,15,57.637,0.8806,0.1828,0.4366,-0.017
-0.001,0.02,-0.006,-0.3,0,-0.5,1023,2018,5,17,21,15,57.657,0.8805,0.1833,0.4367,-0.0166
0.001,0.018,-0.003,-0.3,-0.5,-0.2,0,2018,5,17,21,15,57.68,0.8805,0.1834,0.4367,-0.0165
-0.001,0.016,0,-0.3,-0.5,-0.1,0,2018,5,17,21,15,57.698,0.8804,0.1835,0.4368,-0.0163
-0.003,0.013,0,0,0,0,0,2018,5,17,21,15,57.72,0.8804,0.1836,0.4368,-0.0161
0,0.009,-0.003,0,0,0,0,2018,5,17,21,15,57.758,0.8804,0.1837,0.4368,-0.0161
-0.001,0.011,-0.004,0,0,0,0,2018,5,17,21,15,57.781,0.8804,0.1838,0.4368,-0.016
0,0.012,-0.003,-0.3,0.1,0.8,0,2018,5,17,21,15,57.786,0.8803,0.1838,0.4368,-0.016
0.002,0.013,0,-0.3,-0.3,0.9,0,2018,5,17,21,15,57.798,0.8803,0.1839,0.4369,-0.0161
0.004,0.009,-0.002,-0.4,-0.8,1,0,2018,5,17,21,15,57.833,0.8802,0.1839,0.4371,-0.016
0,0.004,0,-0.3,-0.8,0.6,0,2018,5,17,21,15,57.854,0.8801,0.1838,0.4372,-0.0157
0.001,-0.002,-0.009,-0.6,-0.3,0.1,0,2018,5,17,21,15,57.858,0.8801,0.1838,0.4374,-0.0155
0.001,0.006,-0.01,-0.5,0.3,-0.1,0,2018,5,17,21,15,57.897,0.88,0.1839,0.4375,-0.0155
0.001,0.011,-0.01,-0.6,0.9,-0.3,0,2018,5,17,21,15,57.897,0.8798,0.1843,0.4377,-0.015
0.001,0.018,-0.011,-0.5,0.4,-0.5,0,2018,5,17,21,15,57.921,0.8797,0.1845,0.4378,-0.015
0,0.017,-0.01,0,0,0,0,2018,5,17,21,15,57.958,0.8797,0.1847,0.4379,-0.0149
0.001,0.019,-0.004,-0.4,-0.8,-0.4,0,2018,5,17,21,15,57.982,0.8796,0.1848,0.4379,-0.0147
0.004,0.011,0,-0.1,-1.6,0,0,2018,5,17,21,15,57.986,0.8796,0.1848,0.438,-0.0144
0,0.008,0,0,-1.6,0.2,0,2018,5,17,21,15,57.999,0.8796,0.1848,0.438,-0.0137
0.004,0.01,0.003,0,-1.1,0.4,0,2018,5,17,21,15,58.016,0.8795,0.1849,0.4381,-0.0131
0.002,0.003,0.006,-0.1,-0.9,0.5,1023,2018,5,17,21,15,58.039,0.8795,0.1849,0.4381,-0.0128
0,0,0,-0.3,-0.8,0.4,1023,2018,5,17,21,15,58.077,0.8795,0.1849,0.4382,-0.0125
0,-0.003,-0.002,-0.4,-0.6,0.3,1023,2018,5,17,21,15,58.1,0.8795,0.1847,0.4383,-0.0125
0.001,0,-0.006,-0.6,0,0,1023,2018,5,17,21,15,58.105,0.8795,0.1846,0.4384,-0.0125
0,0.001,0.003,-0.5,0.5,-0.5,1023,2018,5,17,21,15,58.119,0.8794,0.1846,0.4385,-0.0124
-0.002,0.005,-0.003,-0.7,1.3,-0.7,1023,2018,5,17,21,15,58.142,0.8793,0.1849,0.4386,-0.0122
-0.002,0.012,-0.001,-0.7,1.5,-1.1,1023,2018,5,17,21,15,58.178,0.8791,0.1855,0.4387,-0.0117
0.001,0.019,-0.008,-0.4,1.3,-0.8,1023,2018,5,17,21,15,58.2,0.8789,0.186,0.4388,-0.0113
0,0.019,-0.007,-0.3,0.7,-0.3,1023,2018,5,17,21,15,58.204,0.8788,0.1865,0.4389,-0.0111
-0.001,0.019,-0.004,0,0,0,1023,2018,5,17,21,15,58.241,0.8788,0.1866,0.439,-0.011
0,0.017,-0.003,-0.2,-0.5,0.3,1023,2018,5,17,21,15,58.261,0.8787,0.1867,0.439,-0.0109
0.001,0.009,-0.005,-0.2,-1,0.4,1023,2018,5,17,21,15,58.267,0.8787,0.1868,0.439,-0.0104
0.001,0.002,-0.007,0,-0.9,0.5,1023,2018,5,17,21,15,58.287,0.8787,0.1868,0.4391,-0.0102
0.001,0.004,-0.006,0.1,-0.6,0.6,0,2018,5,17,21,15,58.302,0.8787,0.1866,0.4392,-0.0101
0.003,0.003,0,0.1,-0.5,0.4,0,2018,5,17,21,15,58.32,0.8787,0.1866,0.4392,-0.01
0.003,0.002,0.007,0,0,0,0,2018,5,17,21,15,58.344,0.8786,0.1866,0.4393,-0.0097
0.001,-0.002,-0.006,0,0,0,0,2018,5,17,21,15,58.36,0.8786,0.1865,0.4393,-0.0097
0.002,-0.003,-0.002,0,0,0,0,2018,5,17,21,15,58.384,0.8786,0.1864,0.4393,-0.0098
0,0.004,-0.006,0,0.8,-0.4,0,2018,5,17,21,15,58.421,0.8786,0.1865,0.4394,-0.0095
0,0.014,-0.001,0,0.7,-0.1,0,2018,5,17,21,15,58.443,0.8785,0.1869,0.4394,-0.0092
0.004,0.019,-0.005,0,0,0,0,2018,5,17,21,15,58.448,0.8784,0.1871,0.4394,-0.009
0,0.007,-0.01,0.4,-0.7,0,0,2018,5,17,21,15,58.464,0.8784,0.1872,0.4395,-0.0087
-0.001,0,-0.005,0.6,-0.8,0,0,2018,5,17,21,15,58.487,0.8784,0.1872,0.4395,-0.0083
0,0.003,0.002,0.6,0,0.1,0,2018,5,17,21,15,58.505,0.8784,0.1873,0.4394,-0.0079
0.003,0.008,0,0,0,0,0,2018,5,17,21,15,58.524,0.8784,0.1873,0.4394,-0.0079
0.002,0.006,0,0,0,0,0,2018,5,17,21,15,58.543,0.8784,0.1872,0.4394,-0.008
0.002,0.009,0.003,0,0,0,0,2018,5,17,21,15,58.566,0.8784,0.1871,0.4394,-0.008
0,0.007,0.002,0,-0.8,0.3,0,2018,5,17,21,15,58.581,0.8785,0.187,0.4394,-0.008
-0.002,0,-0.003,0.1,-1.3,0.2,0,2018,5,17,21,15,58.604,0.8785,0.1869,0.4394,-0.0077
0,-0.008,-0.004,0.1,-0.9,-0.1,0,2018,5,17,21,15,58.642,0.8785,0.1867,0.4395,-0.0075
0,-0.004,0.002,0,0,0,1023,2018,5,17,21,15,58.665,0.8785,0.1865,0.4395,-0.0074
0.002,0.007,0,-0.1,1.1,-0.7,1023,2018,5,17,21,15,58.67,0.8785,0.1867,0.4396,-0.0071
0.001,0.015,-0.003,-0.3,1.2,-0.6,1023,2018,5,17,21,15,58.686,0.8784,0.1872,0.4396,-0.0067
0,0.019,-0.008,0,0.7,0,1023,2018,5,17,21,15,58.724,0.8783,0.1875,0.4396,-0.0066
0.001,0.019,-0.002,0.1,-0.6,0.4,1023,2018,5,17,21,15,58.747,0.8783,0.1875,0.4397,-0.0065
0.002,0.011,-0.005,0.2,-1.3,0.6,1023,2018,5,17,21,15,58.752,0.8782,0.1876,0.4397,-0.0061
0,0.001,-0.001,0.4,-1.3,0.8,1023,2018,5,17,21,15,58.765,0.8783,0.1873,0.4397,-0.006
0,-0.006,0,0.4,-0.9,0.4,1023,2018,5,17,21,15,58.802,0.8783,0.1871,0.4397,-0.0058
0,-0.005,0,0,0,0,1023,2018,5,17,21,15,58.824,0.8784,0.1869,0.4397,-0.0059
0.003,0.002,0.005,0,0.5,0,0,2018,5,17,21,15,58.829,0.8784,0.1868,0.4397,-0.0059
0.002,0.003,0.004,0,0.6,-0.1,0,2018,5,17,21,15,58.862,0.8784,0.187,0.4397,-0.0057
0,0.011,0.001,0,0,0,0,2018,5,17,21,15,58.885,0.8783,0.1872,0.4397,-0.0054
0,0.01,0.002,0,-0.6,0.1,0,2018,5,17,21,15,58.89,0.8784,0.1871,0.4397,-0.0054
-0.005,0.001,0.001,0.1,-1.2,0.1,0,2018,5,17,21,15,58.906,0.8783,0.1871,0.4397,-0.005
0,-0.001,-0.005,0.2,-1,0.2,0,2018,5,17,21,15,58.93,0.8783,0.187,0.4397,-0.0046
0.003,0.003,0,0.3,-0.7,0.2,0,2018,5,17,21,15,58.947,0.8784,0.1869,0.4398,-0.0044
0.002,0.005,0.001,0,0,0,0,2018,5,17,21,15,58.97,0.8784,0.1869,0.4397,-0.004
0.003,0.005,0.002,0,0,0,0,2018,5,17,21,15,58.986,0.8784,0.1868,0.4397,-0.0041
0.001,0.004,-0.002,0,0,0,0,2018,5,17,21,15,59.022,0.8784,0.1866,0.4398,-0.0042
0,0.002,-0.005,0,0,0,0,2018,5,17,21,15,59.046,0.8784,0.1867,0.4398,-0.0039
0,0.005,0.001,0,0,0,0,2018,5,17,21,15,59.051,0.8784,0.1865,0.4398,-0.004
0.005,0.005,-0.001,0,0,0,0,2018,5,17,21,15,59.067,0.8784,0.1864,0.4398,-0.004
0.002,0.001,-0.006,0,0,0,0,2018,5,17,21,15,59.104,0.8784,0.1863,0.4399,-0.0041
0.002,0.006,0,0.6,0.3,-0.2,0,2018,5,17,21,15,59.126,0.8784,0.1862,0.4399,-0.0041
0,0.013,0,0.5,0,-0.1,0,2018,5,17,21,15,59.132,0.8784,0.1865,0.4398,-0.0038
0.003,0.008,0,0.4,-1.4,0.3,0,2018,5,17,21,15,59.148,0.8784,0.1866,0.4398,-0.0034
-0.003,0.005,0,0.6,-1.9,0.3,1023,2018,5,17,21,15,59.172,0.8785,0.1865,0.4397,-0.0029
-0.002,-0.003,-0.001,0.6,-1.9,0.3,1023,2018,5,17,21,15,59.19,0.8785,0.1864,0.4397,-0.0024
-0.001,-0.002,0,0.4,-1,0.1,1023,2018,5,17,21,15,59.21,0.8786,0.1862,0.4396,-0.002
-0.003,-0.004,0.001,0,0,0,1023,2018,5,17,21,15,59.228,0.8786,0.1861,0.4396,-0.0019
0.001,0.01,0.001,0,0,0,1023,2018,5,17,21,15,59.265,0.8786,0.1862,0.4396,-0.0017
-0.001,0.01,0.003,0.3,-0.6,0.1,1023,2018,5,17,21,15,59.288,0.8786,0.1861,0.4396,-0.0017
0,0.005,0.005,0.1,-1.2,0.3,1023,2018,5,17,21,15,59.292,0.8786,0.1862,0.4395,-0.0011
0,0.002,0.007,0.2,-0.9,0.1,1023,2018,5,17,21,15,59.308,0.8787,0.1861,0.4395,-0.0009
-0.001,0,0.006,0.1,-0.5,0,1023,2018,5,17,21,15,59.331,0.8787,0.186,0.4395,-0.0004
-0.002,-0.002,-0.004,0.2,-0.5,0,1023,2018,5,17,21,15,59.348,0.8787,0.186,0.4395,-0.0002
0.003,0.001,0,0.2,-0.6,0,1023,2018,5,17,21,15,59.372,0.8787,0.1858,0.4395,-0.0002
0.002,0.001,0.002,0,0,0,1023,2018,5,17,21,15,59.407,0.8788,0.1857,0.4395,-0.0002
0.002,0.008,0,0,0,0,1023,2018,5,17,21,15,59.429,0.8788,0.1855,0.4395,-0.0003
0.006,0.008,0,-0.1,-0.6,0,1023,2018,5,17,21,15,59.435,0.8788,0.1855,0.4395,-0.0002
0.003,0.002,0.009,-0.3,-1.4,0,1023,2018,5,17,21,15,59.455,0.8788,0.1853,0.4395,0
-0.01,-0.008,0.06,-1.7,1.5,-0.4,0,2018,5,17,21,15,59.472,0.8789,0.1852,0.4395,0.0003
-0.01,-0.008,0.044,-4.5,4.8,-1.3,0,2018,5,17,21,15,59.496,0.8787,0.1856,0.4396,0.0005
-0.005,0.011,0.006,-5.7,3.4,-1.6,0,2018,5,17,21,15,59.53,0.8783,0.1864,0.4402,0.0008
0.002,-0.001,-0.008,-4.8,-0.1,-1.2,0,2018,5,17,21,15,59.53,0.8778,0.1869,0.441,0.0014
0.023,0.006,-0.027,-2.8,0.6,-0.6,0,2018,5,17,21,15,59.554,0.8773,0.1868,0.4418,0.0017
0.011,0.01,-0.042,0.6,0.2,-0.2,0,2018,5,17,21,15,59.57,0.877,0.187,0.4423,0.0019
0.005,0.016,-0.031,0.5,2.9,0.8,0,2018,5,17,21,15,59.594,0.8769,0.1875,0.4425,0.002
0.019,0.056,-0.036,0.5,4.9,2.3,0,2018,5,17,21,15,59.63,0.8765,0.1886,0.4428,0.0018
0.019,0.069,-0.019,1.9,0.6,4.5,0,2018,5,17,21,15,59.65,0.8762,0.1895,0.443,0.0015
0.001,0.056,-0.01,3.8,-1.2,7.8,0,2018,5,17,21,15,59.655,0.8762,0.1895,0.4429,0.0011
-0.07,0.141,0.078,2.4,-6.3,10.9,0,2018,5,17,21,15,59.673,0.8765,0.189,0.4426,0.0002
-0.067,0.055,0.073,-0.3,-1.6,13.3,0,2018,5,17,21,15,59.696,0.8769,0.1875,0.4423,-0.0005
-0.024,0.04,0.12,-7.9,0.1,17.6,0,2018,5,17,21,15,59.73,0.877,0.1864,0.4428,-0.0019
0.016,0.011,0.09,-14,12.6,19.6,0,2018,5,17,21,15,59.73,0.8763,0.1858,0.4444,-0.0045
0.004,-0.025,0.072,-20,35,22.8,0,2018,5,17,21,15,59.755,0.8744,0.1875,0.4473,-0.0089
0.007,0.006,0.064,-24.8,67.9,23.7,0,2018,5,17,21,15,59.774,0.8711,0.1931,0.4511,-0.0156
0.032,0.228,-0.007,-27,81.3,29.1,0,2018,5,17,21,15,59.789,0.8663,0.2034,0.4555,-0.0244
0.037,0.269,-0.024,-27.8,60.5,41.8,1023,2018,5,17,21,15,59.813,0.8612,0.2118,0.4606,-0.034
0.041,0.129,-0.095,-24.5,63.3,54.2,1023,2018,5,17,21,15,59.847,0.8564,0.2172,0.4661,-0.0448
0.019,0.148,-0.078,-21.3,76.8,63.4,1023,2018,5,17,21,15,59.87,0.8512,0.2235,0.4711,-0.0581
0.063,0.194,-0.073,-19,79.9,72.4,1023,2018,5,17,21,15,59.874,0.8456,0.23,0.4759,-0.0736
0.075,0.257,-0.075,-16.2,70.1,80.5,1023,2018,5,17,21,15,59.893,0.8398,0.2353,0.4806,-0.0901
0.053,0.26,-0.075,-12.1,47.9,89.9,1023,2018,5,17,21,15,59.916,0.8347,0.2372,0.4853,-0.1065
0.071,0.21,-0.071,-8.2,25.6,97.7,1023,2018,5,17,21,15,59.953,0.8304,0.2347,0.49,-0.1227
0.145,0.137,-0.128,-2.3,17.3,104.5,1023,2018,5,17,21,15,59.977,0.8268,0.229,0.4945,-0.1388
0.129,0.148,-0.151,5.7,19.3,108.7,1023,2018,5,17,21,15,59.98,0.8235,0.2225,0.498,-0.1556
0.078,0.148,-0.157,14.6,12.2,111.6,0,2018,5,17,21,15,59.997,0.8206,0.2149,0.5004,-0.1731
0.064,0.137,-0.2,26.2,7.5,114.2,0,2018,5,17,21,16,0.014,0.8184,0.2057,0.5013,-0.1908
0.096,0.092,-0.252,40.4,9,115.1,0,2018,5,17,21,16,0.05,0.8171,0.1956,0.5003,-0.2091
0.081,0.089,-0.209,55.4,17.7,113.5,0,2018,5,17,21,16,0.071,0.8165,0.1858,0.4967,-0.2279
0.064,0.108,-0.17,65.4,20.5,113.7,0,2018,5,17,21,16,0.076,0.8164,0.1764,0.4907,-0.2478
0.077,0.152,-0.208,75.1,10.8,118.6,0,2018,5,17,21,16,0.113,0.8167,0.1657,0.4834,-0.2678
0.058,0.137,-0.231,87,-6.1,120.6,0,2018,5,17,21,16,0.136,0.8176,0.152,0.4751,-0.2873
0.008,0.104,-0.213,96.4,-19.6,121.9,0,2018,5,17,21,16,0.14,0.8193,0.1355,0.4657,-0.3057
-0.056,0.127,-0.277,103.2,-29.1,127.6,0,2018,5,17,21,16,0.157,0.821,0.1166,0.4556,-0.3235
-0.064,0.194,-0.289,110.6,-66.6,133.7,0,2018,5,17,21,16,0.176,0.8226,0.0937,0.4454,-0.3407
-0.123,-0.057,-0.165,109,-94.2,143.3,0,2018,5,17,21,16,0.2,0.8241,0.0626,0.4373,-0.3543
-0.185,0.113,0.031,99,-44.7,146.4,0,2018,5,17,21,16,0.218,0.8233,0.0359,0.4274,-0.3716
-0.239,0.093,-0.036,95.5,-64.9,149.2,0,2018,5,17,21,16,0.235,0.8208,0.011,0.4176,-0.3894
-0.324,0.201,0.035,92.3,-161.2,156.1,0,2018,5,17,21,16,0.254,0.8169,-0.0212,0.4113,-0.4036
-0.353,-0.095,0.057,83,-236.4,142,0,2018,5,17,21,16,0.277,0.8112,-0.0684,0.4124,-0.4087
-0.302,-0.165,-0.093,69.9,-195,141.1,0,2018,5,17,21,16,0.293,0.8031,-0.1146,0.4156,-0.4112
-0.168,-0.174,-0.134,62.1,-76.1,136.4,0,2018,5,17,21,16,0.317,0.7948,-0.148,0.413,-0.419
-0.17,-0.323,0.032,65.9,-27,138.6,0,2018,5,17,21,16,0.352,0.7878,-0.1692,0.4039,-0.4329
-0.138,-0.195,0.03,64.9,12.1,127.6,0,2018,5,17,21,16,0.375,0.7819,-0.184,0.3913,-0.4488
-0.093,-0.07,-0.085,63.5,45.3,122.1,1023,2018,5,17,21,16,0.38,0.7774,-0.1932,0.3761,-0.4655
0.009,-0.246,-0.113,69.2,75.6,117.9,1023,2018,5,17,21,16,0.397,0.7738,-0.199,0.3582,-0.4829
-0.08,-0.064,-0.157,69.5,134,115.4,1023,2018,5,17,21,16,0.421,0.7717,-0.1971,0.3352,-0.5031
-0.114,0.009,-0.117,71.8,135.9,110.1,1023,2018,5,17,21,16,0.456,0.7701,-0.1911,0.3093,-0.524
-0.106,-0.061,-0.128,72.1,138.7,103.2,1023,2018,5,17,21,16,0.478,0.7682,-0.1855,0.2834,-0.5431
-0.146,0.052,-0.049,77.3,131.9,95.9,1023,2018,5,17,21,16,0.483,0.7663,-0.179,0.2567,-0.5609
-0.164,-0.044,-0.005,78.2,115.1,87.9,1023,2018,5,17,21,16,0.496,0.7642,-0.1746,0.2312,-0.5761
-0.234,0.01,0.053,79.2,103,78,1023,2018,5,17,21,16,0.533,0.7619,-0.1714,0.2067,-0.5893
-0.262,-0.008,0.107,75.9,89.2,66.8,1023,2018,5,17,21,16,0.555,0.7597,-0.1694,0.1843,-0.6
-0.185,-0.133,0.105,70.5,105.1,55.1,1023,2018,5,17,21,16,0.559,0.758,-0.1669,0.1628,-0.609
-0.13,-0.117,0.067,62.6,155,44.9,1023,2018,5,17,21,16,0.576,0.758,-0.1583,0.1383,-0.6173
-0.106,-0.04,-0.07,56.8,200,35.4,1023,2018,5,17,21,16,0.599,0.7596,-0.1419,0.1099,-0.6251
-0.081,0.004,-0.214,57.5,220.8,23.6,1023,2018,5,17,21,16,0.617,0.7619,-0.1208,0.078,-0.6314
-0.016,0.072,-0.257,65.3,228.8,8.6,0,2018,5,17,21,16,0.641,0.7648,-0.0987,0.0439,-0.635
-0.075,0.266,-0.166,69.2,224.9,-4,0,2018,5,17,21,16,0.678,0.7684,-0.0757,0.0089,-0.6353
-0.124,0.501,-0.042,69.9,178.4,-5.1,0,2018,5,17,21,16,0.7,0.7712,-0.0562,-0.0229,-0.6336
-0.156,0.561,0.003,65.7,108.5,5.4,0,2018,5,17,21,16,0.705,0.7719,-0.0446,-0.048,-0.6322
-0.077,0.451,-0.066,67.4,43.4,17.2,0,2018,5,17,21,16,0.722,0.7704,-0.0421,-0.0652,-0.6328
0.004,0.254,-0.096,72.9,-16.7,19.9,0,2018,5,17,21,16,0.738,0.7674,-0.0482,-0.0763,-0.6347
-0.009,0.103,-0.144,76.4,-66.2,22.3,0,2018,5,17,21,16,0.756,0.7635,-0.0622,-0.0818,-0.6374
-0.096,-0.008,-0.125,79.9,-82.2,29.9,0,2018,5,17,21,16,0.779,0.7582,-0.0816,-0.0852,-0.6411
-0.08,-0.117,-0.005,80.2,-70,34.2,0,2018,5,17,21,16,0.817,0.7519,-0.1008,-0.088,-0.6455
-0.044,-0.11,0.051,77.3,-42.6,29,0,2018,5,17,21,16,0.841,0.746,-0.1169,-0.0926,-0.6489
-0.008,-0.037,0.024,77,-31.2,26.8,0,2018,5,17,21,16,0.845,0.7408,-0.1303,-0.0989,-0.6513
-0.077,-0.108,-0.049,80.1,-26.4,26.4,0,2018,5,17,21,16,0.859,0.7355,-0.1435,-0.1062,-0.6535
-0.056,-0.169,0.058,81.8,-7.6,25,0,2018,5,17,21,16,0.883,0.7304,-0.1544,-0.1154,-0.6551
0.002,-0.157,0.087,82.3,13.9,15,0,2018,5,17,21,16,0.9,0.7265,-0.1629,-0.1269,-0.6553
-0.021,-0.11,-0.014,84.5,25.7,9.2,0,2018,5,17,21,16,0.924,0.7238,-0.1696,-0.1401,-0.6538
0.032,-0.155,-0.024,85.6,34.1,10,0,2018,5,17,21,16,0.96,0.7216,-0.1758,-0.1543,-0.6514
-0.006,-0.189,0.038,83.4,50.8,4.6,1023,2018,5,17,21,16,0.96,0.7197,-0.18,-0.1701,-0.6485
0.067,-0.089,0.07,79.2,63.8,0.4,1023,2018,5,17,21,16,0.983,0.7187,-0.1816,-0.1869,-0.6445
0.136,-0.054,0.114,79,71.8,-7.9,1023,2018,5,17,21,16,1,0.7187,-0.1819,-0.204,-0.6392
0.127,-0.079,0.181,81.5,74.1,-18.9,1023,2018,5,17,21,16,1.023,0.7195,-0.1823,-0.2217,-0.6322
0.033,-0.113,0.248,76.7,91.3,-30.7,1023,2018,5,17,21,16,1.04,0.7217,-0.1817,-0.24,-0.6232
0.091,-0.052,0.127,65.3,95.4,-37.9,1023,2018,5,17,21,16,1.064,0.7254,-0.1787,-0.2582,-0.6124
0.029,-0.059,-0.004,59,83.9,-40.4,1023,2018,5,17,21,16,1.099,0.7297,-0.1759,-0.2734,-0.6013
-0.055,-0.032,0.008,52.1,79.6,-37.4,1023,2018,5,17,21,16,1.122,0.7335,-0.1737,-0.2878,-0.5906
-0.087,0.048,-0.031,43.7,76.2,-35.4,1023,2018,5,17,21,16,1.126,0.737,-0.1709,-0.3012,-0.5803
-0.016,0.053,-0.071,39,53.3,-35.5,0,2018,5,17,21,16,1.145,0.7399,-0.1686,-0.3129,-0.571
0.037,-0.031,-0.104,42.9,28.2,-39.5,0,2018,5,17,21,16,1.163,0.7422,-0.17,-0.3216,-0.5627
-0.039,-0.094,-0.093,44.3,25.7,-39.1,0,2018,5,17,21,16,1.187,0.7443,-0.1739,-0.3288,-0.5546
-0.152,-0.079,-0.061,42.7,21.3,-37.5,0,2018,5,17,21,16,1.223,0.746,-0.1776,-0.3361,-0.5467
-0.134,0.164,-0.096,35.4,1.8,-38.1,0,2018,5,17,21,16,1.247,0.7476,-0.1816,-0.3417,-0.5396
-0.153,0.162,-0.022,30.2,-57.8,-37.7,0,2018,5,17,21,16,1.25,0.7482,-0.191,-0.342,-0.5353
-0.205,0.238,0.024,22.1,-88.9,-29.9,0,2018,5,17,21,16,1.265,0.7469,-0.206,-0.3372,-0.5346
-0.2,0.271,0.099,13.2,-123.8,-24.2,0,2018,5,17,21,16,1.282,0.7443,-0.223,-0.3293,-0.5364
-0.306,-0.069,0.085,3.2,-142.6,-24.8,0,2018,5,17,21,16,1.305,0.74,-0.2439,-0.3166,-0.5408
-0.156,-0.092,-0.158,-0.4,-117.7,-38.2,0,2018,5,17,21,16,1.323,0.7371,-0.2626,-0.3031,-0.5437
-0.086,-0.227,-0.351,9.8,-92.8,-50.3,0,2018,5,17,21,16,1.345,0.7359,-0.2791,-0.2918,-0.5433
-0.094,-0.138,-0.352,25.3,-66,-57.1,0,2018,5,17,21,16,1.382,0.7362,-0.294,-0.2841,-0.5392
-0.046,-0.032,-0.26,36.2,-40.6,-58.4,0,2018,5,17,21,16,1.404,0.7371,-0.3069,-0.2804,-0.5326
-0.036,0.284,-0.018,31.5,-19.4,-46.2,0,2018,5,17,21,16,1.409,0.7386,-0.3163,-0.2798,-0.5253
-0.045,0.341,0.028,25.7,-53,-36.8,0,2018,5,17,21,16,1.443,0.739,-0.3258,-0.2779,-0.52
-0.09,0.25,0.006,19.1,-78.9,-23.7,0,2018,5,17,21,16,1.443,0.7365,-0.338,-0.2732,-0.5182
-0.115,-0.034,-0.105,17.9,-89.4,-20.4,0,2018,5,17,21,16,1.464,0.7319,-0.3526,-0.2667,-0.5184
-0.068,-0.157,-0.125,18.2,-54.2,-15.9,0,2018,5,17,21,16,1.483,0.7279,-0.3646,-0.2614,-0.5184
0.04,0.149,-0.07,19.1,-35.9,-13,1023,2018,5,17,21,16,1.506,0.7257,-0.3719,-0.2597,-0.517
0.091,0.229,-0.009,19.7,-100.4,-9.6,1023,2018,5,17,21,16,1.54,0.7213,-0.3827,-0.2557,-0.5174
0.162,-0.262,-0.211,27.4,-154.2,-9.6,1023,2018,5,17,21,16,1.563,0.7112,-0.404,-0.2445,-0.5205
0.071,-0.279,-0.189,29.9,-29.1,5.4,1023,2018,5,17,21,16,1.567,0.7033,-0.4182,-0.24,-0.5221
0.011,-0.077,-0.142,35.9,-4.1,2.5,1023,2018,5,17,21,16,1.585,0.7011,-0.4221,-0.2434,-0.5204
0.02,-0.075,-0.073,42.3,11.2,6.5,1023,2018,5,17,21,16,1.608,0.699,-0.4255,-0.2488,-0.5179
-0.067,0.043,0.106,42.6,18.3,11.7,1023,2018,5,17,21,16,1.625,0.6975,-0.4272,-0.2563,-0.515
-0.037,0.022,0.15,36.5,10.6,18.8,1023,2018,5,17,21,16,1.648,0.695,-0.4284,-0.2637,-0.5135
0.135,0.064,0.248,26.7,-16.7,24.7,1023,2018,5,17,21,16,1.666,0.6915,-0.4303,-0.2691,-0.514
-0.114,-0.177,-0.073,29.1,-2.3,21.9,0,2018,5,17,21,16,1.69,0.6868,-0.4334,-0.2732,-0.5155
0.025,0.138,0.027,33,-16.2,28.7,0,2018,5,17,21,16,1.726,0.682,-0.4363,-0.2785,-0.5165
-0.01,0.049,-0.028,37,-16.8,33.6,0,2018,5,17,21,16,1.726,0.6757,-0.4401,-0.2838,-0.5186
0.035,0.078,-0.081,43.1,-13.1,42.5,0,2018,5,17,21,16,1.749,0.6686,-0.4437,-0.2908,-0.5209
0.138,0.131,0.151,43.2,-48.4,48.9,0,2018,5,17,21,16,1.767,0.6599,-0.4484,-0.2972,-0.5243
-0.123,-0.233,-0.062,50.7,-13.1,52.5,0,2018,5,17,21,16,1.804,0.6499,-0.4543,-0.303,-0.5284
0.012,0.057,-0.009,50.9,-9.8,57.3,0,2018,5,17,21,16,1.827,0.6412,-0.4573,-0.3124,-0.531
0.134,0.297,-0.261,57.9,-19.4,70.9,0,2018,5,17,21,16,1.831,0.6307,-0.4609,-0.322,-0.5346
-0.032,-0.069,-0.112,70.8,-4.3,86.5,0,2018,5,17,21,16,1.85,0.6179,-0.4646,-0.3344,-0.5389
-0.258,-0.123,0.179,63.4,30.5,86.8,0,2018,5,17,21,16,1.884,0.6067,-0.4647,-0.3501,-0.5415
0.059,0.028,0.096,59.3,31.2,87.5,0,2018,5,17,21,16,1.907,0.5977,-0.4613,-0.3663,-0.5436
-0.001,-0.221,-0.002,57.2,21.2,85.8,0,2018,5,17,21,16,1.911,0.5876,-0.459,-0.3814,-0.5463
0.013,-0.225,0.046,52.6,27.9,85.3,0,2018,5,17,21,16,1.926,0.5776,-0.456,-0.396,-0.5491
0.005,-0.143,0.038,46.5,41.4,86.1,0,2018,5,17,21,16,1.945,0.5686,-0.4511,-0.4113,-0.5512
0.017,0.033,-0.051,44,45.1,87.8,0,2018,5,17,21,16,1.987,0.5604,-0.445,-0.4266,-0.5529
0.067,0.265,-0.178,56.5,49.8,100.9,0,2018,5,17,21,16,1.99,0.5512,-0.438,-0.4436,-0.5545
-0.152,0.016,-0.133,66.1,46.6,107.2,0,2018,5,17,21,16,2.006,0.5393,-0.4316,-0.4621,-0.556
-0.162,-0.279,0.134,67.9,83.6,99.7,0,2018,5,17,21,16,2.027,0.5282,-0.4239,-0.4826,-0.5551
-0.004,-0.142,0.192,64.5,102.8,92.4,0,2018,5,17,21,16,2.065,0.5204,-0.4131,-0.5049,-0.5508
-0.232,-0.296,0.197,54.4,91.7,82.3,1023,2018,5,17,21,16,2.087,0.5133,-0.4027,-0.5256,-0.5459
-0.254,-0.129,0.152,40.3,95.8,72,1023,2018,5,17,21,16,2.089,0.5085,-0.3911,-0.5445,-0.5402
-0.224,-0.16,0.108,31.7,76,61.5,1023,2018,5,17,21,16,2.126,0.5047,-0.3802,-0.5604,-0.5352
-0.155,-0.095,0.123,26.9,19.9,46.9,1023,2018,5,17,21,16,2.148,0.5,-0.3735,-0.5709,-0.5333
-0.323,-0.012,0.17,19.1,-53.6,36.2,1023,2018,5,17,21,16,2.15,0.4931,-0.3727,-0.5739,-0.5369
-0.315,0.125,0.216,5.8,-140,24.2,1023,2018,5,17,21,16,2.186,0.4825,-0.3795,-0.5675,-0.5486
-0.322,0.346,0.525,-20,-219.1,12.9,1023,2018,5,17,21,16,2.186,0.4694,-0.3916,-0.5508,-0.5681
-0.284,0.351,0.215,-30.7,-321.8,-13.8,1023,2018,5,17,21,16,2.207,0.4527,-0.4113,-0.5207,-0.5954
-0.207,0.375,-0.222,-24,-374.7,-35.7,1023,2018,5,17,21,16,2.244,0.4315,-0.4381,-0.4787,-0.6265
-0.149,0.416,-0.417,-14.9,-395,-47.4,1023,2018,5,17,21,16,2.266,0.4072,-0.4677,-0.4305,-0.6557
0.032,0.228,-0.512,3.1,-360.9,-52.3,0,2018,5,17,21,16,2.268,0.3814,-0.4966,-0.3813,-0.6799
0.028,0.015,-0.426,17.6,-301.2,-64.9,0,2018,5,17,21,16,2.306,0.3583,-0.523,-0.337,-0.6959
0.028,0.045,-0.317,19.3,-218.5,-69.5,0,2018,5,17,21,16,2.328,0.3417,-0.5449,-0.3,-0.7044
0.004,0.031,-0.247,16.9,-138.9,-66,0,2018,5,17,21,16,2.33,0.3323,-0.5607,-0.2728,-0.7075
0.101,0.032,-0.204,15.8,-71.2,-65.1,0,2018,5,17,21,16,2.367,0.3295,-0.5717,-0.2547,-0.7068
0.149,0.049,-0.154,16.4,-25,-59.5,0,2018,5,17,21,16,2.39,0.3319,-0.5791,-0.2438,-0.7035
0.148,0.084,-0.052,16.2,11.8,-49,0,2018,5,17,21,16,2.395,0.3366,-0.5841,-0.2393,-0.6986
0.116,0.093,0.095,11.3,59.2,-36,0,2018,5,17,21,16,2.412,0.3447,-0.5851,-0.2405,-0.6935
0.169,0.069,0.112,4.2,118.3,-23.1,0,2018,5,17,21,16,2.434,0.3569,-0.5818,-0.2488,-0.6871
0.189,0.338,0.124,-0.7,145.1,-3.1,0,2018,5,17,21,16,2.451,0.3721,-0.5738,-0.264,-0.68
0.081,0.374,0.115,-7.1,125.6,10,0,2018,5,17,21,16,2.469,0.3851,-0.5642,-0.2806,-0.6741
0.062,0.343,0.075,-19.5,87.1,11.7,0,2018,5,17,21,16,2.492,0.3946,-0.5549,-0.2933,-0.6709
0.109,0.38,-0.002,-29.8,30.8,10.4,0,2018,5,17,21,16,2.529,0.4002,-0.5474,-0.2996,-0.671
0.152,0.39,-0.099,-35.9,-41.8,11.4,0,2018,5,17,21,16,2.552,0.3998,-0.5435,-0.2975,-0.6753
0.141,0.307,-0.183,-36.7,-103.1,13.3,0,2018,5,17,21,16,2.556,0.3926,-0.544,-0.2874,-0.6835
0.119,0.238,-0.234,-36.4,-143.1,13.4,0,2018,5,17,21,16,2.575,0.3805,-0.5476,-0.2712,-0.694
0.079,0.142,-0.255,-34.5,-163.9,12.9,0,2018,5,17,21,16,2.594,0.3654,-0.5528,-0.2512,-0.7054
0.014,0.037,-0.244,-32.8,-164.1,12.7,0,2018,5,17,21,16,2.631,0.3488,-0.5586,-0.2299,-0.7164
-0.058,-0.044,-0.225,-32.9,-146.8,12,1023,2018,5,17,21,16,2.655,0.3328,-0.5635,-0.2096,-0.7264
-0.078,-0.062,-0.209,-34.4,-119.5,9.7,1023,2018,5,17,21,16,2.659,0.3192,-0.5665,-0.1919,-0.735
-0.077,-0.047,-0.218,-34.3,-90.4,8,1023,2018,5,17,21,16,2.672,0.3086,-0.5675,-0.1775,-0.7423
-0.069,-0.015,-0.229,-31.3,-67.2,6.7,1023,2018,5,17,21,16,2.708,0.3007,-0.5672,-0.1665,-0.7483
-0.058,-0.001,-0.225,-26.3,-45.8,5.9,1023,2018,5,17,21,16,2.732,0.2949,-0.5663,-0.1584,-0.753
-0.019,0.03,-0.217,-21.7,-29.4,5.9,1023,2018,5,17,21,16,2.736,0.291,-0.5649,-0.153,-0.7567
0.031,0.036,-0.208,-15.7,-23.4,6.5,1023,2018,5,17,21,16,2.752,0.288,-0.5636,-0.1494,-0.7595
0.081,0.03,-0.193,-8.9,-26.7,5.7,1023,2018,5,17,21,16,2.772,0.2849,-0.5632,-0.1462,-0.7617
0.11,0.001,-0.166,-2.4,-30.9,4.4,1023,2018,5,17,21,16,2.809,0.281,-0.5647,-0.1428,-0.7626
0.112,-0.021,-0.118,1.8,-30.5,4,0,2018,5,17,21,16,2.83,0.2772,-0.5671,-0.139,-0.7629
0.09,-0.035,-0.06,2.3,-27.5,4,0,2018,5,17,21,16,2.835,0.2736,-0.5694,-0.1354,-0.7631
0.074,-0.024,-0.033,-0.4,-27.2,6,0,2018,5,17,21,16,2.872,0.2703,-0.571,-0.1321,-0.7638
0.096,-0.012,-0.044,-2.3,-32.7,8.7,0,2018,5,17,21,16,2.895,0.2662,-0.5722,-0.1286,-0.7649
0.137,-0.008,-0.06,-2.7,-42.2,10.6,0,2018,5,17,21,16,2.901,0.2614,-0.5735,-0.1241,-0.7663
0.136,-0.008,-0.042,-1.5,-51.2,11.6,0,2018,5,17,21,16,2.914,0.2553,-0.5752,-0.1186,-0.768
0.098,-0.014,-0.006,0,-56.3,10.3,0,2018,5,17,21,16,2.951,0.2484,-0.5772,-0.1121,-0.7696
0.025,-0.02,0.047,1.1,-52.3,8.3,0,2018,5,17,21,16,2.975,0.2418,-0.5792,-0.1053,-0.7712
-0.052,0.039,0.154,1.9,-47.6,6.2,0,2018,5,17,21,16,2.979,0.236,-0.5807,-0.0993,-0.7727
-0.161,0.084,0.226,0,-53.8,5.3,0,2018,5,17,21,16,2.994,0.2302,-0.5827,-0.0932,-0.7737
