heart,z,y,x,w,droll,dpitch,dyaw,ax,ay,az,time_1,time_2,time_3,time_4,time_5,time_6
1023,0.6092,-0.5286,0.2986,0.51,-0.1,0,-1.9,0.007,0.01,-0.014,2018,4,24,22,52,8.193
1023,0.6094,-0.5287,0.2985,0.5097,0,0.3,-1.8,0.007,0.01,-0.012,2018,4,24,22,52,8.216
1023,0.6095,-0.5288,0.2988,0.5093,0.6,0.9,-1.2,0.004,0.009,-0.016,2018,4,24,22,52,8.218
1023,0.6096,-0.5288,0.2991,0.5089,0.8,1.4,-0.6,0.002,0.012,-0.014,2018,4,24,22,52,8.235
1023,0.6097,-0.5288,0.2995,0.5087,0.6,1.8,-0.3,-0.002,0.013,-0.009,2018,4,24,22,52,8.258
1023,0.6097,-0.5289,0.2999,0.5084,0,1.7,-0.2,0,0.011,-0.004,2018,4,24,22,52,8.275
1023,0.6097,-0.529,0.3002,0.508,-0.6,1.5,-0.4,0.005,0.011,0.001,2018,4,24,22,52,8.297
1023,0.6096,-0.5292,0.3004,0.5078,-1.2,1.4,-0.6,0.008,0.01,0.002,2018,4,24,22,52,8.333
1023,0.6096,-0.5293,0.3004,0.5077,-1.2,1.5,-0.8,0.009,0.013,-0.004,2018,4,24,22,52,8.353
0,0.6096,-0.5295,0.3005,0.5075,-1.2,1.2,-0.3,0.006,0.009,0.002,2018,4,24,22,52,8.359
0,0.6095,-0.5296,0.3006,0.5075,-1.3,1.1,0.4,0.005,0.011,0.004,2018,4,24,22,52,8.396
0,0.6093,-0.5296,0.3008,0.5075,-1.8,1,1,0.003,0.009,0.005,2018,4,24,22,52,8.419
0,0.6091,-0.5297,0.3008,0.5077,-2.6,0.4,1,0.006,0.003,0.004,2018,4,24,22,52,8.423
0,0.6089,-0.5299,0.3007,0.5078,-3.2,0,0.7,0.002,0,0.001,2018,4,24,22,52,8.458
0,0.6087,-0.5301,0.3004,0.508,-3.6,-0.3,0.2,0.002,-0.001,-0.002,2018,4,24,22,52,8.458
0,0.6085,-0.5304,0.3001,0.5081,-4.2,-0.3,-0.2,0,0,-0.003,2018,4,24,22,52,8.482
0,0.6082,-0.5308,0.2997,0.5082,-4,0,-0.2,-0.001,0,-0.003,2018,4,24,22,52,8.499
0,0.608,-0.5312,0.2995,0.5082,-2.9,0.6,0,0,-0.002,-0.005,2018,4,24,22,52,8.519
0,0.6078,-0.5315,0.2995,0.5081,-2.2,0.8,0.1,0.004,0,-0.005,2018,4,24,22,52,8.537
0,0.6076,-0.5318,0.2996,0.508,-2.1,1.1,0.2,0.007,0.004,-0.007,2018,4,24,22,52,8.56
0,0.6073,-0.5321,0.2997,0.5079,-2.2,1.4,0.4,0.009,0.001,-0.004,2018,4,24,22,52,8.578
0,0.6072,-0.5323,0.2999,0.5078,-1.6,1.7,0.8,0.007,-0.001,0,2018,4,24,22,52,8.601
0,0.607,-0.5325,0.3001,0.5077,-0.8,1.9,1.4,0.005,-0.002,-0.001,2018,4,24,22,52,8.62
0,0.6069,-0.5326,0.3004,0.5076,-0.4,1.9,1.5,0.004,-0.005,0,2018,4,24,22,52,8.642
0,0.6067,-0.5326,0.3007,0.5075,-0.4,1.6,1.3,0.002,-0.004,0.007,2018,4,24,22,52,8.661
0,0.6067,-0.5327,0.301,0.5073,-0.6,1.4,0.8,0.003,-0.006,0.005,2018,4,24,22,52,8.681
0,0.6067,-0.5328,0.301,0.5073,-1,0.9,0.3,0.003,-0.003,0.006,2018,4,24,22,52,8.7
0,0.6067,-0.5328,0.3009,0.5072,-1.5,0.7,-0.2,0.001,-0.007,0.007,2018,4,24,22,52,8.737
0,0.6067,-0.533,0.3008,0.5071,-1.5,0.4,-0.6,0,-0.009,0.002,2018,4,24,22,52,8.76
0,0.6068,-0.5331,0.3007,0.5069,-1,0.3,-0.8,0,-0.007,0,2018,4,24,22,52,8.764
0,0.6069,-0.5332,0.3006,0.5068,-0.7,0.2,-0.9,-0.001,-0.004,0.004,2018,4,24,22,52,8.781
0,0.6071,-0.5333,0.3005,0.5065,-0.6,0.1,-1.1,0.001,0,0,2018,4,24,22,52,8.819
0,0.6072,-0.5334,0.3004,0.5063,-0.4,0.2,-1.2,0,-0.001,-0.003,2018,4,24,22,52,8.842
0,0.6074,-0.5334,0.3004,0.5061,-0.3,0.3,-1.2,0,0.004,0,2018,4,24,22,52,8.846
0,0.6076,-0.5334,0.3003,0.506,-0.3,0.4,-1.2,0.002,0.007,0.003,2018,4,24,22,52,8.862
0,0.6077,-0.5334,0.3003,0.5058,-0.5,0.1,-0.9,0,0.009,0,2018,4,24,22,52,8.885
0,0.6078,-0.5334,0.3003,0.5057,-0.6,0,-0.6,0.006,0.012,-0.001,2018,4,24,22,52,8.902
0,0.6079,-0.5332,0.3002,0.5058,0,0,0,0.008,0.01,-0.005,2018,4,24,22,52,8.936
0,0.608,-0.5331,0.3003,0.5058,-0.4,0,0.8,0.005,0.01,-0.002,2018,4,24,22,52,8.96
0,0.6079,-0.533,0.3005,0.5058,-0.6,0,1,0.004,0.002,-0.003,2018,4,24,22,52,8.965
1023,0.6079,-0.5329,0.3006,0.5059,-0.4,-0.3,0.9,0.002,0.002,-0.007,2018,4,24,22,52,8.98
1023,0.6079,-0.5328,0.3006,0.506,0,-0.1,1,0.001,0,-0.004,2018,4,24,22,52,9.001
1023,0.6079,-0.5327,0.3008,0.5059,0,-0.1,0.7,0.004,0.001,-0.008,2018,4,24,22,52,9.04
1023,0.6078,-0.5328,0.3011,0.5058,-0.4,0.1,0.7,-0.001,0.001,-0.01,2018,4,24,22,52,9.063
1023,0.6078,-0.5328,0.3011,0.5058,-0.3,0.3,0.7,0.004,-0.004,-0.009,2018,4,24,22,52,9.067
1023,0.6078,-0.5328,0.3012,0.5058,0.3,0.5,0.6,0.005,-0.004,-0.008,2018,4,24,22,52,9.082
1023,0.6078,-0.5328,0.3015,0.5055,0.3,0.7,0.3,0.006,-0.003,-0.008,2018,4,24,22,52,9.105
1023,0.6079,-0.5328,0.3016,0.5053,-0.1,0.8,-0.2,0.005,-0.001,-0.006,2018,4,24,22,52,9.142
1023,0.608,-0.5329,0.3017,0.5051,-0.3,0.6,-0.5,0.007,-0.004,-0.006,2018,4,24,22,52,9.165
1023,0.6081,-0.533,0.3017,0.5049,-0.1,0.8,-0.6,0.008,-0.006,-0.002,2018,4,24,22,52,9.17
1023,0.6082,-0.533,0.3018,0.5046,0.2,0.8,-0.5,0.002,-0.001,0,2018,4,24,22,52,9.183
0,0.6084,-0.5331,0.3019,0.5043,-0.1,0.4,-0.5,0,0,0.003,2018,4,24,22,52,9.219
0,0.6085,-0.5331,0.3019,0.5042,-0.5,0.1,-0.9,0.001,0,0.002,2018,4,24,22,52,9.242
0,0.6086,-0.5332,0.3019,0.5039,-0.7,0,-1.1,0.001,0,-0.001,2018,4,24,22,52,9.246
0,0.6088,-0.5332,0.3018,0.5038,-0.7,0,-1.2,0.002,0.005,0,2018,4,24,22,52,9.264
0,0.6089,-0.5333,0.3017,0.5036,-0.5,0,-0.9,0.007,0.005,0.002,2018,4,24,22,52,9.286
0,0.609,-0.5333,0.3017,0.5034,-0.4,-0.1,-0.6,0.004,0.005,0.002,2018,4,24,22,52,9.323
0,0.6091,-0.5332,0.3017,0.5033,-0.6,-0.3,-0.5,0.003,0.004,-0.003,2018,4,24,22,52,9.323
0,0.6092,-0.5332,0.3016,0.5033,-0.8,-0.3,-0.3,0.006,0.007,-0.002,2018,4,24,22,52,9.345
0,0.6093,-0.5332,0.3016,0.5033,-0.9,-0.2,-0.1,0.003,0.004,-0.005,2018,4,24,22,52,9.384
0,0.6093,-0.5332,0.3016,0.5033,-0.7,-0.1,0.1,0.004,0.006,0,2018,4,24,22,52,9.384
0,0.6094,-0.5331,0.3016,0.5033,-0.7,0,0.4,0.003,0.004,-0.003,2018,4,24,22,52,9.406
0,0.6095,-0.5329,0.3015,0.5034,0,0,0,0.005,0.007,-0.002,2018,4,24,22,52,9.423
0,0.6096,-0.5328,0.3014,0.5035,-0.3,0.2,0.5,0.006,0.004,-0.005,2018,4,24,22,52,9.444
0,0.6096,-0.5327,0.3015,0.5035,-0.2,0.3,0.6,0.005,0.001,0,2018,4,24,22,52,9.48
0,0.6096,-0.5326,0.3016,0.5035,-0.1,0.5,0.8,0.004,0,0.003,2018,4,24,22,52,9.503
0,0.6096,-0.5326,0.3019,0.5034,-0.2,0.5,1,0.002,0.002,0.004,2018,4,24,22,52,9.505
0,0.6096,-0.5325,0.302,0.5034,-0.4,0.4,0.8,0.001,0,0.003,2018,4,24,22,52,9.541
0,0.6095,-0.5325,0.3022,0.5034,-0.7,0.3,0.5,-0.003,0,0.007,2018,4,24,22,52,9.564
0,0.6095,-0.5324,0.3022,0.5035,-2.8,-0.3,0.4,-0.003,0.009,0.04,2018,4,24,22,52,9.568
0,0.609,-0.533,0.3012,0.5042,-17.2,-6.4,-2,-0.058,0.094,0.35,2018,4,24,22,52,9.586
0,0.6059,-0.5365,0.2945,0.508,-87.9,-38.4,-7.8,-0.137,0.238,0.643,2018,4,24,22,52,9.609
0,0.5975,-0.5458,0.2764,0.5182,-157.6,-71.7,-14.5,-0.17,0.074,0.688,2018,4,24,22,52,9.625
0,0.5865,-0.5576,0.2482,0.5323,-204.4,-110,-36.9,-0.19,-0.007,0.904,2018,4,24,22,52,9.645
0,0.5739,-0.5704,0.208,0.5494,-252.5,-154.5,-65.9,-0.253,-0.238,1.334,2018,4,24,22,52,9.666
0,0.5599,-0.5827,0.1564,0.5677,-285.3,-190.7,-90.4,-0.297,-0.294,1.229,2018,4,24,22,52,9.703
0,0.5446,-0.5929,0.0961,0.5852,-304.8,-215.8,-118.3,-0.34,-0.442,0.869,2018,4,24,22,52,9.726
0,0.5286,-0.6004,0.0288,0.5992,-319.4,-231.7,-150.8,-0.47,-0.52,0.675,2018,4,24,22,52,9.728
0,0.5122,-0.6045,-0.0447,0.6084,-327.3,-237.9,-184.6,-0.457,-0.514,0.271,2018,4,24,22,52,9.748
0,0.4959,-0.6054,-0.121,0.6105,-317.1,-224.8,-213.3,-0.434,-0.544,-0.171,2018,4,24,22,52,9.771
0,0.483,-0.6023,-0.1941,0.6051,-270.8,-193.5,-235.3,-0.45,-0.537,-0.449,2018,4,24,22,52,9.789
1023,0.4778,-0.5937,-0.2579,0.5938,-186.8,-152.3,-248.7,-0.531,-0.379,-0.6,2018,4,24,22,52,9.812
1023,0.4824,-0.5799,-0.3101,0.5785,-112.5,-110.2,-260.7,-0.563,-0.209,-0.752,2018,4,24,22,52,9.824
1023,0.4954,-0.5624,-0.3522,0.5604,-54.8,-75.4,-266.4,-0.595,0.028,-0.82,2018,4,24,22,52,9.863
1023,0.5137,-0.5425,-0.3866,0.5405,-25.7,-48.7,-266.5,-0.562,0.18,-0.891,2018,4,24,22,52,9.884
1023,0.5331,-0.5231,-0.4173,0.5176,-35,-25.7,-264.7,-0.602,0.298,-0.952,2018,4,24,22,52,9.888
1023,0.5511,-0.5065,-0.4463,0.4903,-62,-2.2,-261.8,-0.539,0.38,-0.94,2018,4,24,22,52,9.906
1023,0.566,-0.495,-0.4749,0.4571,-106.2,24.1,-254.5,-0.525,0.485,-0.875,2018,4,24,22,52,9.929
1023,0.5776,-0.4894,-0.5017,0.4183,-138.9,53.8,-239.8,-0.547,0.498,-0.8,2018,4,24,22,52,9.946
1023,0.5874,-0.489,-0.524,0.3756,-148.5,91.5,-217.3,-0.522,0.501,-0.805,2018,4,24,22,52,9.971
1023,0.5988,-0.4911,-0.538,0.3327,-122,128.6,-186.3,-0.464,0.474,-0.721,2018,4,24,22,52,9.987
0,0.6114,-0.4955,-0.5438,0.291,-124.1,158.1,-154.6,-0.484,0.441,-0.606,2018,4,24,22,52,10.008
0,0.6219,-0.5058,-0.5438,0.2479,-156.2,184.7,-118.2,-0.48,0.572,-0.538,2018,4,24,22,52,10.047
0,0.6297,-0.5225,-0.5372,0.204,-165.6,210.3,-75.9,-0.445,0.497,-0.519,2018,4,24,22,52,10.068
0,0.6363,-0.5429,-0.5233,0.1622,-175.9,226.5,-34,-0.378,0.405,-0.575,2018,4,24,22,52,10.073
0,0.6386,-0.5694,-0.5034,0.12,-220.7,242.6,2.6,-0.436,0.248,-0.544,2018,4,24,22,52,10.086
0,0.6349,-0.6026,-0.4773,0.0756,-260,261.1,37.1,-0.619,-0.058,-0.405,2018,4,24,22,52,10.109
0,0.6267,-0.6391,-0.4446,0.0302,-278.2,278.5,62.7,-0.677,-0.308,-0.557,2018,4,24,22,52,10.144
0,0.6166,-0.6747,-0.4052,-0.0159,-271.4,303,76.5,-0.794,-0.599,-0.497,2018,4,24,22,52,10.168
0,0.6069,-0.7051,-0.3611,-0.0629,-243.9,316.5,69.7,-0.86,-0.888,0.091,2018,4,24,22,52,10.172
0,0.5973,-0.7283,-0.3174,-0.1091,-215,301.5,50.7,-0.793,-1.088,0.687,2018,4,24,22,52,10.188
0,0.5806,-0.7501,-0.2895,-0.1273,-220.8,54.2,98.4,1.145,-1.7,-3.544,2018,4,24,22,52,10.21
0,0.5394,-0.7826,-0.2813,-0.1314,-145.3,-56.7,52.9,-0.63,-1.189,1.133,2018,4,24,22,52,10.248
0,0.5422,-0.784,-0.2794,-0.1147,189.4,-71.8,50.1,-1.064,-0.485,1.186,2018,4,24,22,52,10.271
0,0.5654,-0.7676,-0.2872,-0.0921,180.4,-93.6,9.6,-0.467,-0.54,0.717,2018,4,24,22,52,10.276
0,0.5807,-0.7534,-0.3005,-0.0688,149.3,-127.8,-2.6,-0.278,0.018,0.474,2018,4,24,22,52,10.294
0,0.5883,-0.7438,-0.3142,-0.0435,76,-148.7,25.3,-0.173,0.328,0.425,2018,4,24,22,52,10.311
0,0.5877,-0.74,-0.3264,-0.0162,65.6,-162.6,39.1,-0.259,0.008,0.284,2018,4,24,22,52,10.328
0,0.5899,-0.7336,-0.3369,0.0151,116.2,-163.5,59.7,-0.272,0.156,0.12,2018,4,24,22,52,10.351
0,0.5979,-0.7224,-0.3434,0.0518,159,-159.8,88.7,-0.291,0.383,0.055,2018,4,24,22,52,10.37
0,0.6068,-0.7101,-0.3449,0.0917,144.5,-153.5,115.3,-0.401,0.375,-0.065,2018,4,24,22,52,10.391
0,0.6093,-0.7027,-0.3433,0.1301,75.8,-143.8,131.2,-0.494,0.354,-0.234,2018,4,24,22,52,10.429
0,0.6017,-0.7039,-0.3401,0.1634,1.2,-130.6,143.8,-0.46,0.333,-0.317,2018,4,24,22,52,10.451
0,0.588,-0.7102,-0.3349,0.1937,-14.5,-120.4,157.1,-0.399,0.26,-0.311,2018,4,24,22,52,10.455
0,0.5761,-0.715,-0.3259,0.225,30,-110.6,170.8,-0.381,0.233,-0.252,2018,4,24,22,52,10.472
0,0.5693,-0.7148,-0.3123,0.2592,69.8,-106,182.1,-0.346,0.242,-0.306,2018,4,24,22,52,10.496
0,0.5637,-0.7127,-0.2955,0.2947,70.4,-101.5,197.9,-0.25,0.273,-0.428,2018,4,24,22,52,10.512
0,0.556,-0.7111,-0.275,0.3308,72.3,-93.1,221.9,-0.262,0.153,-0.39,2018,4,24,22,52,10.53
0,0.5484,-0.7079,-0.2494,0.3685,106.7,-89.5,243.2,-0.296,0.064,-0.212,2018,4,24,22,52,10.552
0,0.541,-0.7014,-0.2202,0.4082,87.4,-97.5,252.3,-0.33,0.043,-0.378,2018,4,24,22,52,10.589
0,0.5236,-0.7001,-0.1953,0.4443,-4.4,-84.5,251.5,-0.326,-0.014,-0.609,2018,4,24,22,52,10.612
1023,0.4986,-0.7042,-0.1724,0.4749,-16,-61.7,250.1,-0.338,-0.439,-0.494,2018,4,24,22,52,10.617
1023,0.478,-0.7053,-0.1459,0.5025,45.6,-47,236.2,-0.321,-0.464,-0.253,2018,4,24,22,52,10.634
1023,0.4677,-0.6999,-0.1131,0.5277,139.9,-33.1,222.4,-0.247,-0.396,-0.165,2018,4,24,22,52,10.652
1023,0.4702,-0.6855,-0.0707,0.5512,238.4,-13.7,211.5,-0.196,-0.326,-0.156,2018,4,24,22,52,10.675
1023,0.4823,-0.6641,-0.019,0.5708,304.5,11,208,-0.173,-0.345,-0.175,2018,4,24,22,52,10.694
1023,0.4979,-0.639,0.039,0.5848,330.7,41,203.7,-0.213,-0.433,-0.143,2018,4,24,22,52,10.717
1023,0.5132,-0.6132,0.0997,0.592,327.7,70,190.5,-0.169,-0.472,-0.043,2018,4,24,22,52,10.735
1023,0.5255,-0.5895,0.1583,0.5925,294.9,90.2,166.9,-0.283,-0.462,0.093,2018,4,24,22,52,10.754
1023,0.5348,-0.5693,0.2098,0.5879,249.2,94.4,127.5,-0.19,-0.442,0.165,2018,4,24,22,52,10.777
1023,0.5429,-0.5532,0.2516,0.5795,205.6,87.9,80.3,-0.15,-0.294,0.199,2018,4,24,22,52,10.793
1023,0.551,-0.5416,0.2838,0.5678,166.7,79.7,34.9,-0.12,-0.152,0.204,2018,4,24,22,52,10.829
0,0.5591,-0.534,0.3062,0.5552,117.9,66.7,0.2,-0.161,-0.088,0.236,2018,4,24,22,52,10.851
0,0.5655,-0.5312,0.3201,0.5434,69.8,52.5,-19.2,-0.063,-0.102,0.259,2018,4,24,22,52,10.855
0,0.5694,-0.5323,0.3271,0.5341,25.6,40,-24.9,-0.012,-0.094,0.268,2018,4,24,22,52,10.89
0,0.5709,-0.536,0.3289,0.5277,-0.7,26.8,-26.8,0.036,-0.149,0.265,2018,4,24,22,52,10.911
0,0.5708,-0.5408,0.3279,0.5233,-19.5,22.1,-23.7,0.057,-0.092,0.252,2018,4,24,22,52,10.914
0,0.5698,-0.5462,0.3253,0.5206,-25.1,14.8,-23.4,0.072,-0.116,0.263,2018,4,24,22,52,10.949
0,0.5693,-0.5506,0.3226,0.5182,-12.3,9.5,-21.4,0.08,-0.094,0.247,2018,4,24,22,52,10.97
0,0.5697,-0.5532,0.3211,0.5159,-4.3,6.6,-16.2,0.062,-0.079,0.225,2018,4,24,22,52,10.975
0,0.5707,-0.5543,0.3206,0.5139,7,3.1,-11.2,0.065,-0.082,0.2,2018,4,24,22,52,11.014
0,0.5726,-0.5537,0.3211,0.512,16.7,0,-7.2,0.045,-0.077,0.181,2018,4,24,22,52,11.014
0,0.575,-0.5521,0.3221,0.5105,19.9,-3.5,-4.8,0.025,-0.055,0.163,2018,4,24,22,52,11.037
0,0.5776,-0.5499,0.3231,0.5094,19.3,-7.3,-3.8,0,-0.046,0.151,2018,4,24,22,52,11.056
0,0.581,-0.5467,0.3227,0.5092,16.4,-11,-5,-0.017,-0.042,0.133,2018,4,24,22,52,11.074
0,0.5843,-0.5438,0.3213,0.5093,11.3,-14.6,-7.2,-0.024,-0.042,0.105,2018,4,24,22,52,11.098
0,0.5875,-0.5413,0.3192,0.5096,7.9,-17.5,-10.2,-0.034,-0.044,0.081,2018,4,24,22,52,11.115
0,0.5907,-0.5393,0.3164,0.5099,5.4,-19.8,-13.3,-0.037,-0.041,0.05,2018,4,24,22,52,11.136
0,0.5939,-0.5375,0.313,0.5101,3.1,-21.6,-16.2,-0.032,-0.033,0.031,2018,4,24,22,52,11.174
0,0.597,-0.5362,0.3091,0.5102,0.6,-22.6,-18.9,-0.029,-0.018,0.012,2018,4,24,22,52,11.199
0,0.6001,-0.5352,0.3048,0.5102,-1.4,-22.9,-21.1,-0.026,-0.009,-0.016,2018,4,24,22,52,11.202
0,0.603,-0.5347,0.3004,0.51,-3,-22.7,-22.9,-0.017,0,-0.034,2018,4,24,22,52,11.219
0,0.6058,-0.5344,0.2959,0.5096,-3.5,-21.8,-23.6,-0.003,0.011,-0.051,2018,4,24,22,52,11.239
0,0.6084,-0.5344,0.2915,0.509,-3.8,-20.4,-23.7,0.005,0.018,-0.063,2018,4,24,22,52,11.259
0,0.6109,-0.5345,0.2874,0.5082,-3.2,-18.7,-23.1,0.013,0.028,-0.08,2018,4,24,22,52,11.276
0,0.6131,-0.5348,0.2838,0.5073,-2.5,-16.2,-21.6,0.014,0.034,-0.089,2018,4,24,22,52,11.295
0,0.615,-0.535,0.2807,0.5064,-1.7,-13.8,-19.3,0.013,0.045,-0.099,2018,4,24,22,52,11.318
0,0.6166,-0.5354,0.2784,0.5054,-0.7,-10.9,-16.2,0.013,0.046,-0.107,2018,4,24,22,52,11.336
0,0.6178,-0.5358,0.2768,0.5045,0.4,-7.4,-12.6,0.013,0.048,-0.107,2018,4,24,22,52,11.36
0,0.6186,-0.5361,0.2761,0.5035,2.2,-3.8,-9.1,0.013,0.047,-0.105,2018,4,24,22,52,11.377
0,0.6192,-0.5363,0.2761,0.5026,4.3,-0.7,-5.8,0.016,0.048,-0.104,2018,4,24,22,52,11.4
0,0.6195,-0.5364,0.2771,0.5015,5.6,2.2,-3,0.017,0.052,-0.09,2018,4,24,22,52,11.418
1023,0.6197,-0.5365,0.2785,0.5004,6.7,5.3,-1.1,0.009,0.049,-0.089,2018,4,24,22,52,11.441
1023,0.6196,-0.5365,0.2805,0.4993,7.7,7.8,0.2,0.008,0.046,-0.068,2018,4,24,22,52,11.458
1023,0.6196,-0.5365,0.2827,0.4982,8.1,9.9,1.6,-0.001,0.042,-0.058,2018,4,24,22,52,11.476
1023,0.6194,-0.5365,0.2853,0.497,7.8,11.2,2.6,-0.001,0.04,-0.045,2018,4,24,22,52,11.499
1023,0.619,-0.5365,0.2879,0.4959,7.2,12.4,3.5,-0.003,0.04,-0.029,2018,4,24,22,52,11.516
1023,0.6186,-0.5365,0.2905,0.4949,6.5,13,4.3,-0.002,0.036,-0.017,2018,4,24,22,52,11.539
1023,0.618,-0.5365,0.2931,0.4941,5.7,13.6,5.1,-0.006,0.028,-0.006,2018,4,24,22,52,11.557
1023,0.6174,-0.5365,0.2957,0.4933,5.1,14.2,6.1,-0.003,0.023,0.005,2018,4,24,22,52,11.58
1023,0.6167,-0.5365,0.2984,0.4926,5.1,14.2,7.1,0.003,0.018,0.023,2018,4,24,22,52,11.598
1023,0.616,-0.5363,0.3011,0.492,5.6,14.2,7.7,0.003,0.015,0.036,2018,4,24,22,52,11.621
1023,0.6154,-0.536,0.3037,0.4915,5.9,13.5,8.3,0.003,0.007,0.047,2018,4,24,22,52,11.639
1023,0.6149,-0.5355,0.3062,0.4911,6,12.6,8.7,0.006,0.005,0.056,2018,4,24,22,52,11.661
0,0.6144,-0.5348,0.3086,0.491,5.7,11.1,9.1,0.008,0.004,0.069,2018,4,24,22,52,11.68
0,0.6141,-0.5339,0.3106,0.4911,4.5,9.5,9.2,0.008,0.003,0.074,2018,4,24,22,52,11.702
0,0.6136,-0.5331,0.3123,0.4915,1.9,7,9.3,0.011,0.003,0.077,2018,4,24,22,52,11.738
0,0.613,-0.5324,0.3134,0.4923,-1.4,4.8,9.4,0.009,0.001,0.078,2018,4,24,22,52,11.738
0,0.6121,-0.5319,0.3141,0.4935,-4.4,2.7,9.6,0.008,-0.006,0.078,2018,4,24,22,52,11.76
0,0.6112,-0.5315,0.3142,0.4949,-5.9,0.9,9.7,0.01,-0.017,0.08,2018,4,24,22,52,11.779
0,0.6104,-0.5311,0.3141,0.4965,-5,-0.4,9.5,0.008,-0.03,0.067,2018,4,24,22,52,11.802
0,0.6098,-0.5305,0.3141,0.4979,-2.9,-1.5,9,0.009,-0.037,0.059,2018,4,24,22,52,11.822
0,0.6095,-0.5297,0.314,0.4991,-1,-2.6,8.4,0.01,-0.034,0.05,2018,4,24,22,52,11.858
0,0.6094,-0.5288,0.314,0.5002,0.2,-3.7,7.1,0.012,-0.035,0.045,2018,4,24,22,52,11.858
0,0.6095,-0.5278,0.3137,0.5013,-0.4,-4.5,5.6,0.013,-0.032,0.034,2018,4,24,22,52,11.881
0,0.6096,-0.5271,0.3132,0.5023,-1.4,-5.4,4.2,0.015,-0.031,0.022,2018,4,24,22,52,11.917
0,0.6098,-0.5265,0.3125,0.5031,-1.9,-5.9,2.7,0.017,-0.035,0.014,2018,4,24,22,52,11.94
0,0.61,-0.526,0.3116,0.5039,-1.8,-5.9,1.9,0.018,-0.036,0.006,2018,4,24,22,52,11.945
0,0.6103,-0.5257,0.3108,0.5044,-1.2,-5.7,1.1,0.019,-0.035,-0.001,2018,4,24,22,52,11.962
0,0.6106,-0.5254,0.3101,0.5048,-0.8,-5.6,0.7,0.018,-0.033,-0.008,2018,4,24,22,52,11.979
0,0.611,-0.5251,0.3093,0.5051,-0.4,-4.7,0,0.014,-0.031,-0.011,2018,4,24,22,52,12.002
0,0.6114,-0.525,0.3087,0.5051,0,-4.2,-0.9,0.013,-0.029,-0.019,2018,4,24,22,52,12.021
0,0.6119,-0.5249,0.3081,0.505,0.6,-3.5,-1.9,0.016,-0.028,-0.021,2018,4,24,22,52,12.043
0,0.6125,-0.5248,0.3075,0.5047,1.4,-2.8,-3.1,0.012,-0.026,-0.026,2018,4,24,22,52,12.062
0,0.6131,-0.5248,0.307,0.5042,1.6,-2,-4.4,0.014,-0.021,-0.026,2018,4,24,22,52,12.082
0,0.6139,-0.5249,0.3065,0.5035,1.7,-1.3,-5.4,0.015,-0.013,-0.024,2018,4,24,22,52,12.119
0,0.6147,-0.5251,0.306,0.5026,1.8,-0.6,-6.2,0.011,-0.007,-0.024,2018,4,24,22,52,12.141
0,0.6154,-0.5253,0.3056,0.5017,1.8,0,-6.7,0.006,-0.004,-0.023,2018,4,24,22,52,12.146
0,0.6162,-0.5256,0.3053,0.5007,1.8,0.5,-6.7,0.004,0,-0.019,2018,4,24,22,52,12.163
0,0.6169,-0.5258,0.305,0.4997,1.8,1.1,-6.9,0.001,0.007,-0.008,2018,4,24,22,52,12.18
0,0.6176,-0.5261,0.3049,0.4987,1.8,1.7,-6.7,0.003,0.013,-0.011,2018,4,24,22,52,12.204
0,0.6182,-0.5263,0.3048,0.4977,1.8,1.8,-6.5,0.008,0.019,-0.008,2018,4,24,22,52,12.222
1023,0.6189,-0.5265,0.3047,0.4968,1.7,2,-6.6,0.007,0.021,0,2018,4,24,22,52,12.245
1023,0.6196,-0.5265,0.3046,0.4959,1.9,1.8,-6.1,0.006,0.026,0.001,2018,4,24,22,52,12.262
1023,0.6201,-0.5266,0.3046,0.4951,1.5,1.7,-5.4,0.006,0.032,0.006,2018,4,24,22,52,12.282
1023,0.6206,-0.5266,0.3046,0.4945,0.7,1.7,-4.5,0.004,0.032,0.01,2018,4,24,22,52,12.302
1023,0.6209,-0.5266,0.3046,0.4941,0.7,1.8,-3.2,0.005,0.029,0.006,2018,4,24,22,52,12.323
1023,0.6212,-0.5265,0.3048,0.4938,1.3,1.7,-1.5,0.002,0.027,0.016,2018,4,24,22,52,12.362
1023,0.6214,-0.5262,0.3052,0.4936,1.9,1.8,0,0,0.025,0.015,2018,4,24,22,52,12.383
1023,0.6215,-0.5258,0.3058,0.4935,2,1.7,1.3,0,0.026,0.014,2018,4,24,22,52,12.387
1023,0.6215,-0.5253,0.3063,0.4936,1.4,1.2,2.1,0.002,0.024,0.02,2018,4,24,22,52,12.406
1023,0.6215,-0.5249,0.3068,0.4939,0.6,0.6,2.6,0.004,0.02,0.02,2018,4,24,22,52,12.426
1023,0.6214,-0.5245,0.3072,0.4942,-0.1,0.1,2.8,0.002,0.017,0.015,2018,4,24,22,52,12.445
0,0.6212,-0.5241,0.3074,0.4947,-0.5,-0.3,3.1,0.002,0.004,0.021,2018,4,24,22,52,12.465
0,0.6211,-0.5236,0.3075,0.4953,-0.1,-0.7,3.5,0.001,0.001,0.015,2018,4,24,22,52,12.486
0,0.6209,-0.5232,0.3078,0.4958,0.3,-1.1,4.1,0.004,0,0.013,2018,4,24,22,52,12.504
0,0.6207,-0.5227,0.3081,0.4963,0,-1.3,4.4,0.011,0,0.004,2018,4,24,22,52,12.527
0,0.6205,-0.5224,0.3083,0.4968,-0.4,-1.5,4,0.008,-0.007,0.004,2018,4,24,22,52,12.564
0,0.6204,-0.522,0.3084,0.4973,-0.1,-1.6,3.7,0.009,-0.011,0,2018,4,24,22,52,12.564
0,0.6203,-0.5217,0.3085,0.4977,0.1,-1.5,3.1,0.003,-0.016,0.001,2018,4,24,22,52,12.587
0,0.6203,-0.5214,0.3086,0.4979,0.1,-1.3,2.8,0.006,-0.017,-0.006,2018,4,24,22,52,12.605
0,0.6203,-0.5212,0.3086,0.4982,0.1,-1.2,2.1,0.008,-0.019,-0.011,2018,4,24,22,52,12.628
0,0.6203,-0.5211,0.3086,0.4983,0.3,-1.1,1.3,0.009,-0.022,-0.008,2018,4,24,22,52,12.646
0,0.6204,-0.521,0.3086,0.4982,0.7,-0.9,0.5,0.008,-0.021,-0.008,2018,4,24,22,52,12.669
0,0.6207,-0.5209,0.3085,0.498,1.3,-0.4,0,0.012,-0.019,-0.006,2018,4,24,22,52,12.688
0,0.6209,-0.5209,0.3086,0.4977,1.6,0,-0.8,0.009,-0.021,-0.009,2018,4,24,22,52,12.705
0,0.6213,-0.5208,0.3086,0.4973,2.3,0.4,-1.1,0.01,-0.016,-0.004,2018,4,24,22,52,12.744
0,0.6217,-0.5208,0.3087,0.4968,2.9,0.8,-1.4,0.005,-0.017,-0.001,2018,4,24,22,52,12.768
0,0.6222,-0.5206,0.3089,0.4962,2.9,0.7,-1.7,0.007,-0.009,0.004,2018,4,24,22,52,12.772
0,0.6227,-0.5204,0.3089,0.4957,2.3,0.7,-2.3,0.013,-0.005,-0.005,2018,4,24,22,52,12.789
0,0.6232,-0.5204,0.3089,0.4951,1.6,0.6,-2.9,0.006,-0.008,0.001,2018,4,24,22,52,12.806
0,0.6237,-0.5205,0.3089,0.4945,2.2,0.9,-3.1,0,-0.014,0.008,2018,4,24,22,52,12.827
0,0.6243,-0.5203,0.3088,0.4939,2.6,0.2,-3.4,0.005,0.001,0.002,2018,4,24,22,52,12.846
0,0.625,-0.5202,0.3087,0.4933,1.6,-0.1,-4.1,0.015,0.008,-0.002,2018,4,24,22,52,12.869
0,0.6255,-0.5203,0.3084,0.4927,0.5,0.1,-4.7,0.006,0.005,0.005,2018,4,24,22,52,12.885
0,0.6261,-0.5203,0.308,0.4922,0.9,-0.1,-4.7,0.01,0.008,0.001,2018,4,24,22,52,12.922
0,0.6266,-0.5203,0.3077,0.4917,0.8,0,-3.9,0.023,0.015,-0.009,2018,4,24,22,52,12.945
0,0.627,-0.5204,0.3075,0.4912,0,0.6,-3.8,0.032,0.018,-0.022,2018,4,24,22,52,12.95
0,0.6272,-0.5208,0.3074,0.4906,-0.6,2.2,-3.3,0.028,0.014,-0.03,2018,4,24,22,52,12.968
0,0.6272,-0.5213,0.3077,0.4899,1.6,4.5,-1.6,0.019,0.007,-0.022,2018,4,24,22,52,12.986
0,0.6272,-0.5214,0.3086,0.4891,4.8,6.7,0.8,0.025,0.003,-0.026,2018,4,24,22,52,13.009
0,0.6272,-0.5214,0.3103,0.4881,7.6,9,2.9,0.032,0.001,-0.025,2018,4,24,22,52,13.027
1023,0.6273,-0.5212,0.3124,0.4869,10.7,11,3.7,0.023,-0.012,-0.015,2018,4,24,22,52,13.051
1023,0.6276,-0.5207,0.315,0.4854,14,12,3.5,0.015,-0.021,-0.002,2018,4,24,22,52,13.069
1023,0.6282,-0.5199,0.3176,0.4837,15.1,12.2,2.7,0.013,-0.021,0.007,2018,4,24,22,52,13.092
1023,0.6289,-0.5192,0.3201,0.482,13.2,12.1,1.2,0.008,-0.018,0.011,2018,4,24,22,52,13.108
1023,0.6295,-0.5188,0.3223,0.4802,11.4,12.2,-0.4,-0.001,-0.03,0.016,2018,4,24,22,52,13.125
1023,0.6303,-0.5184,0.3241,0.4783,12.6,12,-1.7,0,-0.038,0.024,2018,4,24,22,52,13.148
1023,0.6313,-0.5179,0.3261,0.4761,15.3,12.1,-2.4,0.005,-0.038,0.02,2018,4,24,22,52,13.166
1023,0.6326,-0.5172,0.3281,0.4738,16.8,11.8,-3.1,0,-0.03,0.029,2018,4,24,22,52,13.19
1023,0.6342,-0.5162,0.33,0.4715,17.6,11.1,-4.1,-0.004,-0.029,0.035,2018,4,24,22,52,13.227
1023,0.6359,-0.5151,0.3317,0.4691,17.4,9.8,-5,-0.002,-0.022,0.04,2018,4,24,22,52,13.229
1023,0.6377,-0.514,0.3333,0.4668,16.4,8.5,-5.9,0,-0.017,0.041,2018,4,24,22,52,13.264
1023,0.6395,-0.5129,0.3344,0.4647,14.5,6.9,-6.7,0.001,-0.015,0.04,2018,4,24,22,52,13.286
0,0.6414,-0.5119,0.3351,0.4627,14,5.3,-7.8,0.004,-0.013,0.036,2018,4,24,22,52,13.288
0,0.6434,-0.5109,0.3356,0.4607,14.1,3.9,-8.7,0.003,-0.005,0.022,2018,4,24,22,52,13.326
0,0.6454,-0.5098,0.336,0.4588,14.1,3,-9.4,0.004,0,0.021,2018,4,24,22,52,13.35
0,0.6474,-0.5087,0.3362,0.4569,13.2,2.3,-10,-0.001,0.007,0.014,2018,4,24,22,52,13.354
0,0.6494,-0.5078,0.3364,0.4551,12.9,1.8,-10.1,-0.006,0.009,0.008,2018,4,24,22,52,13.371
0,0.6513,-0.5068,0.3366,0.4533,12.8,1.4,-9.8,-0.005,0.012,-0.001,2018,4,24,22,52,13.394
0,0.6531,-0.5058,0.3369,0.4516,12.8,1.1,-9.8,-0.009,0.019,-0.008,2018,4,24,22,52,13.413
0,0.6549,-0.5049,0.3371,0.4499,11.7,0.8,-9.7,-0.01,0.025,-0.008,2018,4,24,22,52,13.431
0,0.6565,-0.504,0.3372,0.4484,10.7,0.7,-9.7,-0.016,0.028,-0.011,2018,4,24,22,52,13.449
0,0.658,-0.5032,0.3373,0.447,9.9,0.6,-9.1,-0.012,0.035,-0.016,2018,4,24,22,52,13.472
0,0.6593,-0.5026,0.3375,0.4457,8.7,0.6,-8.5,-0.005,0.038,-0.023,2018,4,24,22,52,13.51
0,0.6605,-0.502,0.3376,0.4445,7,0.4,-8.2,-0.008,0.041,-0.027,2018,4,24,22,52,13.534
0,0.6614,-0.5016,0.3377,0.4435,5.9,0.8,-7.3,-0.006,0.04,-0.027,2018,4,24,22,52,13.538
0,0.6622,-0.5012,0.3379,0.4426,6.2,1.5,-6.1,-0.005,0.041,-0.031,2018,4,24,22,52,13.554
0,0.6629,-0.5008,0.3383,0.4418,6,1.9,-4.6,-0.004,0.047,-0.033,2018,4,24,22,52,13.592
0,0.6633,-0.5003,0.3389,0.4412,5.2,2.6,-3,-0.003,0.045,-0.033,2018,4,24,22,52,13.592
0,0.6635,-0.4999,0.3396,0.4407,5,3.2,-1.7,-0.008,0.041,-0.029,2018,4,24,22,52,13.614
0,0.6637,-0.4995,0.3404,0.4404,5.6,3.9,0,-0.001,0.036,-0.024,2018,4,24,22,52,13.634
0,0.6638,-0.4989,0.3415,0.4401,5.5,3.9,1.1,-0.003,0.037,-0.02,2018,4,24,22,52,13.651
0,0.6637,-0.4983,0.3425,0.4401,4.4,3.9,2,-0.002,0.037,-0.01,2018,4,24,22,52,13.674
0,0.6636,-0.4978,0.3435,0.4401,2.9,3.8,2.6,-0.007,0.029,-0.008,2018,4,24,22,52,13.693
0,0.6633,-0.4975,0.3444,0.4403,1.7,3.1,2.9,-0.003,0.025,-0.001,2018,4,24,22,52,13.711
0,0.6629,-0.4971,0.345,0.4407,0.1,2.3,2.9,0,0.025,-0.005,2018,4,24,22,52,13.732
0,0.6625,-0.497,0.3453,0.4413,-2,1.7,3,0.002,0.023,-0.006,2018,4,24,22,52,13.77
0,0.6619,-0.497,0.3454,0.442,-3.4,1.2,2.9,-0.005,0.015,-0.006,2018,4,24,22,52,13.793
0,0.6613,-0.4972,0.3454,0.4427,-2.9,1.4,3.5,-0.009,0.007,0.006,2018,4,24,22,52,13.797
0,0.6608,-0.4971,0.3455,0.4435,-2.4,0.9,4,-0.003,0.01,0.007,2018,4,24,22,52,13.813
0,0.6602,-0.4971,0.3456,0.4443,-3,0.4,4.1,0.001,0.005,0.008,2018,4,24,22,52,13.83
0,0.6596,-0.4971,0.3455,0.4452,-4.4,-0.4,3.7,0.002,0.009,0.007,2018,4,24,22,52,13.853
1023,0.6591,-0.4972,0.3451,0.4463,-5.7,-1.6,3.3,0.001,0.003,0.016,2018,4,24,22,52,13.871
1023,0.6585,-0.4973,0.3444,0.4474,-6.7,-2.8,3.3,0.007,0.004,0.011,2018,4,24,22,52,13.894
1023,0.6579,-0.4976,0.3436,0.4488,-8.6,-3.5,3.2,0.009,0.007,0.009,2018,4,24,22,52,13.912
1023,0.6571,-0.4981,0.3427,0.4501,-10,-3.8,3.1,0.005,0.001,-0.004,2018,4,24,22,52,13.934
1023,0.6562,-0.4987,0.3416,0.4515,-9.8,-3.9,3.3,0.003,-0.009,-0.002,2018,4,24,22,52,13.971
1023,0.6554,-0.4993,0.3406,0.4527,-8.4,-3.6,3.8,0.005,-0.009,-0.004,2018,4,24,22,52,13.992
1023,0.6546,-0.4998,0.3398,0.454,-7.7,-3.4,4,0.012,-0.006,-0.007,2018,4,24,22,52,13.997
1023,0.6537,-0.5003,0.3392,0.455,-8.5,-3.2,3.4,0.009,-0.004,-0.015,2018,4,24,22,52,14.015
1023,0.6529,-0.501,0.3383,0.4562,-8.9,-3,2.8,0.009,-0.008,-0.01,2018,4,24,22,52,14.036
1023,0.652,-0.5017,0.3374,0.4573,-8.8,-2.9,2.7,0.009,-0.009,-0.013,2018,4,24,22,52,14.073
1023,0.6512,-0.5025,0.3365,0.4583,-8.6,-2.4,2.3,0.014,-0.008,-0.012,2018,4,24,22,52,14.096
1023,0.6504,-0.5033,0.3356,0.4592,-8.7,-2,2.2,0.011,-0.01,-0.017,2018,4,24,22,52,14.101
0,0.6495,-0.5041,0.3348,0.46,-8.6,-1.5,1.9,0.01,-0.008,-0.009,2018,4,24,22,52,14.116
0,0.6488,-0.5049,0.3341,0.4609,-7.8,-1.1,2.2,0.012,-0.01,-0.007,2018,4,24,22,52,14.152
0,0.648,-0.5057,0.3334,0.4616,-7.8,-0.9,2,0.013,-0.006,-0.007,2018,4,24,22,52,14.176
0,0.6472,-0.5065,0.3328,0.4622,-8.2,-0.6,1.7,0.01,-0.007,-0.006,2018,4,24,22,52,14.18
0,0.6464,-0.5073,0.3321,0.4629,-7.6,-0.3,1.3,0.003,-0.01,0,2018,4,24,22,52,14.196
0,0.6457,-0.5081,0.3316,0.4634,-7,-0.1,1.2,-0.001,-0.009,0.003,2018,4,24,22,52,14.219
0,0.645,-0.5088,0.3311,0.4639,-6.7,0,1.4,-0.003,-0.006,0.004,2018,4,24,22,52,14.255
0,0.6443,-0.5096,0.3307,0.4645,-7.5,0,1.1,-0.004,-0.001,0.006,2018,4,24,22,52,14.278
0,0.6435,-0.5104,0.3301,0.465,-8.5,0.1,1,-0.008,0,0.01,2018,4,24,22,52,14.282
0,0.6426,-0.5112,0.3296,0.4657,-8.9,0.1,1.8,-0.021,-0.012,0.028,2018,4,24,22,52,14.298
0,0.6416,-0.5123,0.3284,0.4667,-20.1,-2,0.2,-0.03,0.014,0.227,2018,4,24,22,52,14.319
0,0.6388,-0.5161,0.3236,0.4698,-67.2,-23.7,-6.3,-0.106,0.169,0.483,2018,4,24,22,52,14.336
0,0.6329,-0.5246,0.3095,0.4777,-131,-58.6,-18.4,-0.144,0.053,0.686,2018,4,24,22,52,14.355
0,0.6236,-0.5383,0.2834,0.4908,-215.9,-102.3,-41.2,-0.14,0.03,0.844,2018,4,24,22,52,14.379
0,0.6081,-0.5589,0.2419,0.5091,-317.1,-144.9,-63.2,-0.199,-0.054,1.025,2018,4,24,22,52,14.395
0,0.5854,-0.5843,0.1846,0.5307,-382.1,-179.6,-89.1,-0.187,-0.316,1.007,2018,4,24,22,52,14.419
0,0.5599,-0.6079,0.1179,0.5503,-389.8,-199.6,-120.3,-0.248,-0.547,0.778,2018,4,24,22,52,14.438
0,0.535,-0.6266,0.0459,0.5647,-379.9,-209.2,-154.9,-0.29,-0.637,0.515,2018,4,24,22,52,14.461
0,0.5101,-0.6408,-0.0302,0.5728,-385.3,-208.9,-186.3,-0.309,-0.573,0.222,2018,4,24,22,52,14.479
0,0.4851,-0.6514,-0.1099,0.5727,-378.7,-194.5,-217.7,-0.336,-0.632,-0.045,2018,4,24,22,52,14.498
0,0.4622,-0.6573,-0.1871,0.5649,-337.6,-168.1,-239.7,-0.379,-0.571,-0.174,2018,4,24,22,52,14.521
0,0.4458,-0.6567,-0.2571,0.5511,-277.1,-140.1,-255.3,-0.457,-0.279,-0.352,2018,4,24,22,52,14.537
0,0.4358,-0.6514,-0.3195,0.5324,-218.8,-100.4,-259.7,-0.389,-0.168,-0.589,2018,4,24,22,52,14.574
0,0.4344,-0.6426,-0.371,0.5104,-150.2,-55.6,-255.1,-0.432,0.044,-0.713,2018,4,24,22,52,14.598
0,0.4406,-0.6319,-0.4115,0.4869,-95.4,-12,-242,-0.471,0.247,-0.676,2018,4,24,22,52,14.602
0,0.4521,-0.6208,-0.4433,0.4621,-72.1,20.5,-229.9,-0.487,0.431,-0.651,2018,4,24,22,52,14.618
0,0.4631,-0.6128,-0.471,0.4336,-102.9,48.1,-214,-0.486,0.556,-0.719,2018,4,24,22,52,14.641
0,0.4703,-0.6099,-0.4965,0.4002,-132.1,75.2,-193.4,-0.507,0.591,-0.79,2018,4,24,22,52,14.677
0,0.4764,-0.611,-0.517,0.3637,-125,107.1,-169.4,-0.502,0.564,-0.766,2018,4,24,22,52,14.7
1023,0.4861,-0.6127,-0.5297,0.3279,-84.5,136.1,-145.8,-0.514,0.6,-0.757,2018,4,24,22,52,14.705
1023,0.4988,-0.6153,-0.5353,0.2932,-78.2,162.7,-119.1,-0.549,0.67,-0.846,2018,4,24,22,52,14.721
1023,0.512,-0.6213,-0.5342,0.2573,-75.3,197.2,-86,-0.574,0.631,-0.802,2018,4,24,22,52,14.757
1023,0.5271,-0.6303,-0.5252,0.2212,-69.5,227.5,-53.7,-0.546,0.596,-0.715,2018,4,24,22,52,14.78
1023,0.541,-0.6432,-0.5098,0.1831,-100.3,256,-23.9,-0.576,0.497,-0.908,2018,4,24,22,52,14.785
1023,0.5508,-0.6623,-0.4879,0.1406,-145,290,10.1,-0.675,0.307,-1.03,2018,4,24,22,52,14.801
1023,0.557,-0.6861,-0.4586,0.093,-177,326.7,30.5,-0.903,-0.067,-0.759,2018,4,24,22,52,14.819
1023,0.5591,-0.7117,-0.4233,0.0392,-210.9,354.6,33,-0.928,-0.379,-0.167,2018,4,24,22,52,14.842
1023,0.5564,-0.7359,-0.3852,-0.0175,-219.8,350.4,32.9,-0.795,-0.515,0.031,2018,4,24,22,52,14.859
1023,0.5511,-0.7557,-0.3459,-0.073,-193.7,340.4,29.7,-0.819,-0.831,0.424,2018,4,24,22,52,14.88
1023,0.5473,-0.7677,-0.3114,-0.1179,-184.6,-110.3,98.2,-7.342,0.297,16.272,2018,4,24,22,52,14.916
0,0.5576,-0.7643,-0.3031,-0.114,-287.8,-25.7,26.9,1.561,-2.565,-0.2,2018,4,24,22,52,14.938
0,0.5355,-0.7807,-0.3016,-0.1119,-85.9,-81.9,76.3,-0.695,0.793,1.072,2018,4,24,22,52,14.941
0,0.5241,-0.7925,-0.2972,-0.0937,-29.2,-92.4,72,-1.497,-0.437,0.765,2018,4,24,22,52,14.977
0,0.5267,-0.7917,-0.2997,-0.0766,147.4,-80.9,17.4,-0.302,-0.977,0.321,2018,4,24,22,52,14.997
0,0.5523,-0.773,-0.3072,-0.0534,208.5,-73.5,27.9,-0.14,0.44,-0.002,2018,4,24,22,52,15.003
0,0.5756,-0.7553,-0.3118,-0.029,210.4,-81.1,37.9,-0.204,0.213,0.333,2018,4,24,22,52,15.024
0,0.5991,-0.7358,-0.3155,-0.0006,223.4,-98.4,57.5,-0.198,0.491,0.359,2018,4,24,22,52,15.04
0,0.622,-0.7152,-0.3169,0.0328,226.5,-107.1,85.4,-0.323,0.497,0.217,2018,4,24,22,52,15.078
0,0.641,-0.6966,-0.3147,0.0682,185.3,-103.4,109.7,-0.437,0.424,0.003,2018,4,24,22,52,15.101
0,0.6522,-0.6845,-0.3089,0.1026,128.1,-98.2,136.2,-0.373,0.402,-0.122,2018,4,24,22,52,15.106
0,0.6572,-0.6777,-0.2995,0.1371,103.5,-91.4,164,-0.337,0.43,-0.161,2018,4,24,22,52,15.124
0,0.6622,-0.6708,-0.285,0.1737,143.1,-77.1,192.3,-0.372,0.349,-0.148,2018,4,24,22,52,15.142
0,0.6717,-0.6586,-0.2634,0.2135,185.6,-58.4,213.5,-0.428,0.209,-0.269,2018,4,24,22,52,15.166
0,0.6815,-0.6446,-0.2363,0.253,176.3,-35.3,228.8,-0.296,0.236,-0.459,2018,4,24,22,52,15.201
0,0.6881,-0.6328,-0.2039,0.2904,167.4,-4.9,252,-0.291,0.193,-0.452,2018,4,24,22,52,15.226
0,0.6949,-0.6191,-0.1632,0.3271,216.8,26.9,277.1,-0.338,0.091,-0.278,2018,4,24,22,52,15.229
0,0.7041,-0.5991,-0.1131,0.3638,247.8,50.1,296.6,-0.365,0.075,-0.195,2018,4,24,22,52,15.241
0,0.7081,-0.5802,-0.0598,0.3976,194.9,76.2,299.3,-0.282,-0.111,-0.316,2018,4,24,22,52,15.279
0,0.704,-0.5677,-0.0063,0.4264,157.1,100.4,300.4,-0.487,-0.436,-0.009,2018,4,24,22,52,15.302
0,0.6963,-0.555,0.048,0.4523,168.3,100.1,291.5,-0.565,-0.559,0.273,2018,4,24,22,52,15.307
0,0.6885,-0.5384,0.1012,0.475,179.7,93.8,275.9,-0.411,-0.354,0.061,2018,4,24,22,52,15.341
0,0.6816,-0.518,0.1526,0.4936,200.3,96.8,251.8,-0.335,-0.421,-0.098,2018,4,24,22,52,15.364
0,0.6767,-0.4942,0.2046,0.5057,226,110.1,222.4,-0.272,-0.471,-0.05,2018,4,24,22,52,15.369
0,0.6736,-0.469,0.2559,0.5105,231.6,118.9,185.4,-0.249,-0.467,0.062,2018,4,24,22,52,15.385
0,0.6707,-0.4462,0.3022,0.5094,199.2,114.2,141.2,-0.268,-0.382,0.22,2018,4,24,22,52,15.423
0,0.6672,-0.4296,0.3389,0.5053,138,100.4,97.3,-0.292,-0.226,0.311,2018,4,24,22,52,15.423
0,0.6624,-0.4215,0.3634,0.5013,59.8,84.1,56.6,-0.307,-0.114,0.377,2018,4,24,22,52,15.447
0,0.6558,-0.423,0.3767,0.4989,-11.4,63.4,23.2,-0.274,-0.109,0.426,2018,4,24,22,52,15.461
0,0.648,-0.4317,0.38,0.4992,-66.7,46.8,4.6,-0.199,-0.119,0.367,2018,4,24,22,52,15.48
1023,0.6392,-0.4447,0.3767,0.5015,-95.9,29.6,-7.2,-0.124,-0.196,0.284,2018,4,24,22,52,15.503
1023,0.6302,-0.4593,0.3695,0.5051,-110.6,22.6,-13.7,-0.038,-0.217,0.186,2018,4,24,22,52,15.522
1023,0.6212,-0.4742,0.3606,0.5089,-110.1,17.3,-16.4,0.02,-0.222,0.137,2018,4,24,22,52,15.545
1023,0.6134,-0.4877,0.3517,0.512,-91.5,12.9,-19.5,0.054,-0.254,0.13,2018,4,24,22,52,15.563
1023,0.6075,-0.4984,0.3445,0.5135,-67.9,12.8,-18.1,0.083,-0.196,0.119,2018,4,24,22,52,15.587
1023,0.6032,-0.5067,0.3395,0.5138,-46.4,13.1,-14.5,0.079,-0.178,0.122,2018,4,24,22,52,15.604
1023,0.6003,-0.5124,0.3369,0.5132,-25.6,13.6,-10.9,0.091,-0.151,0.139,2018,4,24,22,52,15.626
1023,0.5987,-0.516,0.3362,0.5119,-10,14,-6.7,0.084,-0.135,0.145,2018,4,24,22,52,15.661
1023,0.598,-0.518,0.337,0.5102,1.5,14.1,-2.9,0.071,-0.127,0.152,2018,4,24,22,52,15.681
1023,0.5979,-0.5186,0.3391,0.5083,12.9,13.4,-0.1,0.044,-0.135,0.151,2018,4,24,22,52,15.687
1023,0.5987,-0.5179,0.3422,0.506,22.1,12,0.3,0.03,-0.119,0.148,2018,4,24,22,52,15.724
0,0.6003,-0.5163,0.3456,0.5034,26.4,9.2,-1.6,0.009,-0.111,0.139,2018,4,24,22,52,15.747
0,0.6026,-0.5144,0.3485,0.5006,26.4,5.1,-5.5,-0.007,-0.1,0.131,2018,4,24,22,52,15.749
0,0.6059,-0.5122,0.3496,0.498,23.1,0.4,-10.7,-0.02,-0.087,0.123,2018,4,24,22,52,15.768
0,0.6097,-0.5103,0.3492,0.4956,17.6,-4.1,-16.4,-0.03,-0.07,0.111,2018,4,24,22,52,15.784
0,0.6137,-0.509,0.3474,0.4933,12.6,-8.2,-21.7,-0.032,-0.068,0.105,2018,4,24,22,52,15.807
0,0.6179,-0.5081,0.3445,0.491,9.5,-11.9,-26.1,-0.035,-0.061,0.092,2018,4,24,22,52,15.825
0,0.6223,-0.5075,0.341,0.4886,8.6,-14.6,-29.7,-0.032,-0.047,0.063,2018,4,24,22,52,15.847
0,0.627,-0.5069,0.337,0.486,8.9,-16.5,-32.5,-0.027,-0.032,0.044,2018,4,24,22,52,15.866
0,0.6318,-0.5063,0.3328,0.4833,9.3,-17.9,-34.6,-0.023,-0.016,0.029,2018,4,24,22,52,15.889
0,0.6367,-0.5056,0.3286,0.4805,9.4,-18.9,-35.5,-0.021,0.002,0.007,2018,4,24,22,52,15.908
0,0.6415,-0.505,0.3244,0.4776,9.2,-19.6,-35.5,-0.023,0.016,-0.009,2018,4,24,22,52,15.93
0,0.6461,-0.5043,0.3202,0.475,8.8,-19.9,-34.6,-0.02,0.031,-0.025,2018,4,24,22,52,15.95
0,0.6504,-0.5036,0.3161,0.4725,7.5,-20.1,-33.1,-0.015,0.044,-0.036,2018,4,24,22,52,15.967
0,0.6543,-0.503,0.3123,0.4703,5.9,-19.5,-31.1,-0.016,0.059,-0.052,2018,4,24,22,52,15.985
0,0.6577,-0.5025,0.3087,0.4683,4.3,-18.7,-28.6,-0.016,0.067,-0.065,2018,4,24,22,52,16.008
0,0.6606,-0.5023,0.3054,0.4667,2.8,-17.3,-25.6,-0.013,0.074,-0.077,2018,4,24,22,52,16.027
0,0.663,-0.5022,0.3026,0.4653,1.4,-15.4,-22.5,-0.016,0.079,-0.087,2018,4,24,22,52,16.05
0,0.6649,-0.5022,0.3001,0.4642,0.5,-13.4,-19.4,-0.007,0.085,-0.089,2018,4,24,22,52,16.068
0,0.6663,-0.5023,0.2982,0.4634,0.1,-11,-16.1,-0.011,0.087,-0.096,2018,4,24,22,52,16.091
0,0.6673,-0.5024,0.2969,0.4626,0.4,-8.1,-13,-0.006,0.092,-0.096,2018,4,24,22,52,16.107
0,0.6679,-0.5026,0.2962,0.4619,1.2,-5.1,-10.1,-0.006,0.092,-0.1,2018,4,24,22,52,16.128
0,0.6682,-0.5028,0.2963,0.4612,2.4,-2,-6.9,0,0.095,-0.094,2018,4,24,22,52,16.165
0,0.6682,-0.5028,0.2971,0.4606,3.1,1.1,-4.1,0.003,0.095,-0.09,2018,4,24,22,52,16.165
0,0.6679,-0.5029,0.2985,0.4601,3.5,3.9,-0.6,0.008,0.095,-0.083,2018,4,24,22,52,16.187
0,0.6673,-0.5029,0.3004,0.4598,3.5,6.8,2.8,0.006,0.093,-0.069,2018,4,24,22,52,16.224
0,0.6663,-0.5028,0.3029,0.4597,3.9,9,6.8,0.007,0.085,-0.056,2018,4,24,22,52,16.247
0,0.665,-0.5026,0.3058,0.4599,3.7,11.3,10.4,0.012,0.075,-0.049,2018,4,24,22,52,16.252
0,0.6634,-0.5023,0.3092,0.4602,4.1,13.2,13.7,0.013,0.062,-0.031,2018,4,24,22,52,16.269
0,0.6615,-0.5019,0.313,0.4608,4.9,15,16.9,0.01,0.054,-0.019,2018,4,24,22,52,16.29
0,0.6595,-0.5013,0.317,0.4616,5.3,15.9,19.6,0.006,0.042,-0.005,2018,4,24,22,52,16.308
0,0.6574,-0.5005,0.3213,0.4626,5.6,16.4,21.8,0.008,0.034,0.004,2018,4,24,22,52,16.332
1023,0.6551,-0.4996,0.3256,0.4637,5.2,16.2,23.3,0.007,0.023,0.022,2018,4,24,22,52,16.349
1023,0.6528,-0.4986,0.3298,0.465,4.2,15.7,24.4,0.01,0.013,0.031,2018,4,24,22,52,16.373
1023,0.6504,-0.4977,0.3338,0.4665,2.9,14.8,24.9,0.009,0.001,0.04,2018,4,24,22,52,16.393
1023,0.648,-0.4968,0.3374,0.4682,0.9,13.3,24.9,0.01,-0.006,0.046,2018,4,24,22,52,16.41
1023,0.6455,-0.496,0.3405,0.4702,-1.7,11.5,24.6,0.013,-0.013,0.051,2018,4,24,22,52,16.427
1023,0.643,-0.4954,0.3431,0.4724,-4.5,9.9,24,0.014,-0.029,0.059,2018,4,24,22,52,16.449
1023,0.6405,-0.4951,0.3451,0.4747,-5.6,8.2,23,0.009,-0.043,0.063,2018,4,24,22,52,16.484
1023,0.6381,-0.4948,0.3468,0.477,-5.7,6.7,21.9,0.003,-0.058,0.061,2018,4,24,22,52,16.508
1023,0.636,-0.4945,0.3481,0.4792,-6,5.2,20.4,0.008,-0.065,0.061,2018,4,24,22,52,16.512
1023,0.6341,-0.4943,0.349,0.4812,-5.7,3.4,18.2,0.014,-0.075,0.061,2018,4,24,22,52,16.53
1023,0.6326,-0.4941,0.3495,0.4831,-5.7,2.1,15.5,0.019,-0.08,0.058,2018,4,24,22,52,16.551
0,0.6314,-0.4939,0.3496,0.4847,-4.9,1,12.6,0.021,-0.084,0.05,2018,4,24,22,52,16.589
0,0.6306,-0.4939,0.3495,0.4859,-3.9,0,9.3,0.022,-0.089,0.044,2018,4,24,22,52,16.61
0,0.6302,-0.4939,0.349,0.4867,-2.9,-0.9,6.3,0.021,-0.091,0.039,2018,4,24,22,52,16.611
0,0.6302,-0.4939,0.3484,0.4872,-1.8,-1.5,3.7,0.016,-0.089,0.034,2018,4,24,22,52,16.647
0,0.6304,-0.4939,0.3476,0.4875,-1,-2.5,1.3,0.021,-0.081,0.026,2018,4,24,22,52,16.666
0,0.6309,-0.494,0.3467,0.4874,-0.7,-3.2,-1.3,0.02,-0.078,0.018,2018,4,24,22,52,16.667
0,0.6317,-0.4942,0.3454,0.4871,-0.7,-4,-3.9,0.015,-0.074,0.01,2018,4,24,22,52,16.703
0,0.6326,-0.4945,0.344,0.4866,-0.7,-4.5,-6.2,0.014,-0.068,0.005,2018,4,24,22,52,16.724
0,0.6336,-0.4949,0.3423,0.486,-1.5,-4.9,-8.6,0.008,-0.059,0.003,2018,4,24,22,52,16.733
0,0.6348,-0.4955,0.3405,0.4852,-2,-5.3,-10.9,0.005,-0.049,-0.006,2018,4,24,22,52,16.77
0,0.636,-0.4963,0.3385,0.4842,-2.1,-5,-12.7,0.004,-0.038,-0.009,2018,4,24,22,52,16.793
0,0.6373,-0.4972,0.3365,0.4829,-1.2,-4.8,-14.4,0.004,-0.036,-0.009,2018,4,24,22,52,16.798
0,0.6388,-0.498,0.3346,0.4815,-0.3,-4.4,-15.8,0.005,-0.023,-0.016,2018,4,24,22,52,16.814
0,0.6405,-0.4987,0.3328,0.4797,1.2,-4,-16.7,0.003,-0.015,-0.021,2018,4,24,22,52,16.851
0,0.6422,-0.4994,0.3311,0.4779,2.1,-3.3,-17.6,0.004,-0.003,-0.018,2018,4,24,22,52,16.874
0,0.644,-0.5,0.3295,0.476,2.6,-2.7,-17.8,0.001,0.009,-0.024,2018,4,24,22,52,16.878
0,0.6457,-0.5006,0.3281,0.474,3,-1.8,-17.8,0,0.015,-0.02,2018,4,24,22,52,16.893
0,0.6473,-0.5011,0.3269,0.472,3.1,-1.3,-17.1,0,0.027,-0.021,2018,4,24,22,52,16.911
0,0.6489,-0.5016,0.3259,0.47,3,-0.9,-16.2,-0.003,0.031,-0.015,2018,4,24,22,52,16.934
0,0.6503,-0.502,0.325,0.4683,2.8,-0.6,-15,0,0.039,-0.016,2018,4,24,22,52,16.952
0,0.6515,-0.5024,0.3243,0.4667,2.8,-0.1,-13.6,-0.003,0.046,-0.012,2018,4,24,22,52,16.974
0,0.6526,-0.5026,0.3237,0.4653,2.6,0.2,-11.8,-0.003,0.05,-0.011,2018,4,24,22,52,16.993
0,0.6534,-0.5028,0.3234,0.4642,2.1,0.6,-9.7,-0.005,0.055,-0.008,2018,4,24,22,52,17.017
0,0.6541,-0.5028,0.3233,0.4633,1.7,0.8,-7.5,-0.002,0.059,-0.002,2018,4,24,22,52,17.035
0,0.6545,-0.5029,0.3234,0.4626,1.3,1,-5.2,0,0.056,-0.002,2018,4,24,22,52,17.055
0,0.6547,-0.5028,0.3236,0.4623,0.7,1.1,-3.1,-0.002,0.06,-0.003,2018,4,24,22,52,17.092
0,0.6547,-0.5026,0.324,0.4622,0.5,1.4,-0.9,0.003,0.055,0.005,2018,4,24,22,52,17.092
0,0.6545,-0.5024,0.3245,0.4623,0.3,1.4,1,0.003,0.052,0.001,2018,4,24,22,52,17.116
0,0.6541,-0.5021,0.3251,0.4628,-0.1,1.4,3.1,0.002,0.051,0.003,2018,4,24,22,52,17.131
0,0.6536,-0.5017,0.3258,0.4634,-0.7,1.2,4.8,0.001,0.042,0.005,2018,4,24,22,52,17.154
0,0.6529,-0.5013,0.3266,0.4643,-0.9,1.1,6.8,0.001,0.037,0.008,2018,4,24,22,52,17.193
0,0.6521,-0.5008,0.3275,0.4653,-1.2,0.8,8.3,0.004,0.031,0.007,2018,4,24,22,52,17.193
1023,0.6511,-0.5003,0.3284,0.4666,-1.8,0.7,9.9,0.009,0.025,0.005,2018,4,24,22,52,17.215
1023,0.6501,-0.4998,0.3292,0.468,-2.5,0.6,10.9,0.006,0.014,0,2018,4,24,22,52,17.253
1023,0.6489,-0.4995,0.3301,0.4694,-2.3,0.6,11.8,0.003,0.004,0.003,2018,4,24,22,52,17.276
1023,0.6477,-0.499,0.3311,0.4708,-1.6,0.6,12.6,0.006,-0.003,0.002,2018,4,24,22,52,17.28
1023,0.6465,-0.4985,0.3322,0.4722,-1.2,0.7,13,0.008,-0.009,0,2018,4,24,22,52,17.296
1023,0.6453,-0.4981,0.3333,0.4736,-1.5,0.7,13.1,0.005,-0.015,0.002,2018,4,24,22,52,17.319
1023,0.6441,-0.4977,0.3343,0.4749,-1.7,0.6,12.7,0.011,-0.021,0.004,2018,4,24,22,52,17.338
1023,0.643,-0.4974,0.3351,0.4762,-2.1,0.4,11.9,0.014,-0.026,-0.001,2018,4,24,22,52,17.361
1023,0.6419,-0.4972,0.3358,0.4773,-2.8,0.3,10.6,0.011,-0.032,0,2018,4,24,22,52,17.375
1023,0.6409,-0.4971,0.3363,0.4783,-2.9,0.6,9.1,0.007,-0.038,-0.004,2018,4,24,22,52,17.393
1023,0.64,-0.4972,0.3366,0.4792,-2.4,0.7,7.9,0.008,-0.044,-0.002,2018,4,24,22,52,17.416
0,0.6394,-0.4973,0.3369,0.4798,-1.7,1.1,6.5,0.011,-0.046,0,2018,4,24,22,52,17.435
0,0.6389,-0.4974,0.3371,0.4801,-0.8,1.1,4.6,0.011,-0.047,0,2018,4,24,22,52,17.459
0,0.6386,-0.4976,0.3373,0.4802,-0.3,1,2.7,0.011,-0.046,0,2018,4,24,22,52,17.475
0,0.6385,-0.4978,0.3373,0.4801,-0.2,0.9,0.9,0.012,-0.044,0.001,2018,4,24,22,52,17.498
0,0.6386,-0.4981,0.3371,0.4798,-0.3,0.9,-0.8,0.01,-0.04,0,2018,4,24,22,52,17.516
0,0.6388,-0.4985,0.3367,0.4794,-0.5,0.6,-2.1,0.009,-0.038,0.002,2018,4,24,22,52,17.54
0,0.6391,-0.4989,0.3364,0.4789,-0.4,0.7,-3.1,0.006,-0.031,0.002,2018,4,24,22,52,17.575
0,0.6395,-0.4993,0.3358,0.4783,0,0.4,-4.2,0.006,-0.031,0.006,2018,4,24,22,52,17.598
0,0.64,-0.4996,0.3353,0.4776,0.3,0.3,-5.3,0.006,-0.021,0.004,2018,4,24,22,52,17.603
0,0.6406,-0.5,0.3347,0.4768,0.3,0.1,-6.2,0.006,-0.013,0.003,2018,4,24,22,52,17.617
0,0.6413,-0.5003,0.3341,0.4761,0.6,0,-6.9,0.004,-0.008,0.007,2018,4,24,22,52,17.655
0,0.642,-0.5006,0.3335,0.4752,0.4,-0.3,-7.3,0.004,-0.002,0.008,2018,4,24,22,52,17.678
0,0.6427,-0.5009,0.3327,0.4744,0,-0.4,-7.7,0,0.004,0.003,2018,4,24,22,52,17.682
0,0.6434,-0.5013,0.3319,0.4737,-0.4,-0.7,-7.8,0.003,0.007,0.004,2018,4,24,22,52,17.698
0,0.6441,-0.5016,0.3312,0.4729,-0.3,-0.7,-7.7,0.001,0.011,0.001,2018,4,24,22,52,17.719
0,0.6447,-0.5019,0.3306,0.4722,-0.1,-0.9,-7.2,0,0.016,0.007,2018,4,24,22,52,17.756
0,0.6453,-0.5021,0.3299,0.4717,0,-0.8,-6.4,0.002,0.021,0.001,2018,4,24,22,52,17.78
0,0.6458,-0.5022,0.3293,0.4712,0,-0.9,-5.7,0.002,0.025,-0.001,2018,4,24,22,52,17.784
0,0.6463,-0.5023,0.3289,0.4709,-0.1,-0.9,-4.8,0,0.025,0,2018,4,24,22,52,17.8
0,0.6466,-0.5023,0.3285,0.4706,0,-0.9,-3.7,0.003,0.029,0.002,2018,4,24,22,52,17.816
0,0.6468,-0.5023,0.3283,0.4705,-0.2,-0.7,-2.7,0.002,0.028,-0.001,2018,4,24,22,52,17.837
0,0.6469,-0.5023,0.3283,0.4703,-0.5,-0.6,-1.4,0.004,0.027,-0.004,2018,4,24,22,52,17.874
0,0.6469,-0.5022,0.3283,0.4705,0,0,0,0.004,0.025,0.001,2018,4,24,22,52,17.897
0,0.6469,-0.502,0.3284,0.4707,0,-0.1,0.8,0.002,0.024,0,2018,4,24,22,52,17.902
0,0.6467,-0.5018,0.3287,0.4709,0.1,0,1.9,0.002,0.022,0,2018,4,24,22,52,17.936
0,0.6465,-0.5015,0.329,0.4712,0.2,0.1,2.8,0,0.015,0.007,2018,4,24,22,52,17.959
0,0.6462,-0.5013,0.3295,0.4716,0.2,0,3.3,0.001,0.011,0.003,2018,4,24,22,52,17.963
0,0.6459,-0.501,0.3298,0.472,-0.1,0,3.6,0.002,0.007,0.001,2018,4,24,22,52,17.997
0,0.6456,-0.5007,0.3301,0.4725,-0.3,-0.2,3.6,0.003,0.007,0.004,2018,4,24,22,52,18.02
0,0.6453,-0.5004,0.3304,0.473,-0.4,-0.3,3.8,0.007,0,0.006,2018,4,24,22,52,18.025
0,0.6451,-0.5002,0.3306,0.4735,-0.2,-0.6,4,0.008,-0.002,0.005,2018,4,24,22,52,18.039
1023,0.6448,-0.4999,0.3309,0.474,-0.4,-0.6,3.9,0.009,-0.004,-0.002,2018,4,24,22,52,18.076
1023,0.6445,-0.4997,0.3311,0.4744,-0.5,-0.8,3.7,0.007,-0.011,-0.004,2018,4,24,22,52,18.099
1023,0.6442,-0.4996,0.3313,0.4747,0,-0.6,3.4,0.004,-0.015,0,2018,4,24,22,52,18.103
1023,0.6441,-0.4994,0.3314,0.4751,0.3,-0.5,3.2,0,-0.013,0.001,2018,4,24,22,52,18.122
1023,0.6439,-0.4992,0.3316,0.4753,0.2,-0.3,2.7,0.008,-0.014,-0.001,2018,4,24,22,52,18.14
1023,0.6438,-0.4991,0.3317,0.4755,0,-0.3,1.9,0.003,-0.015,0,2018,4,24,22,52,18.162
1023,0.6438,-0.4991,0.3317,0.4756,0.4,-0.4,1.2,0.006,-0.019,-0.001,2018,4,24,22,52,18.2
1023,0.6439,-0.499,0.3317,0.4756,0.6,-0.4,0.2,0.009,-0.012,0.001,2018,4,24,22,52,18.223
1023,0.6441,-0.499,0.3316,0.4755,0.3,-0.7,-0.7,0.009,-0.01,-0.001,2018,4,24,22,52,18.228
1023,0.6443,-0.4991,0.3314,0.4752,0.1,-0.6,-1.4,0.007,-0.011,-0.002,2018,4,24,22,52,18.268
0,0.6445,-0.4991,0.3312,0.475,0.5,-0.4,-1.6,0.006,-0.007,0.001,2018,4,24,22,52,18.27
0,0.6448,-0.4991,0.3311,0.4747,1.5,-0.1,-1.2,0.006,-0.008,0.003,2018,4,24,22,52,18.283
0,0.6451,-0.499,0.331,0.4744,1.8,-0.2,-1.2,0.004,-0.003,0.001,2018,4,24,22,52,18.318
0,0.6455,-0.4988,0.331,0.4741,1.7,-0.1,-1.6,0.005,-0.003,0.005,2018,4,24,22,52,18.341
0,0.6458,-0.4987,0.3308,0.4739,1.3,-0.4,-2,0.003,-0.001,0,2018,4,24,22,52,18.346
0,0.6462,-0.4986,0.3307,0.4736,1,-0.7,-2.4,0.002,0,0.006,2018,4,24,22,52,18.361
0,0.6466,-0.4985,0.3305,0.4733,1.1,-0.7,-2.3,0.005,0.004,0.004,2018,4,24,22,52,18.385
0,0.6469,-0.4984,0.3303,0.473,0.9,-0.8,-2.5,0.006,0.004,0,2018,4,24,22,52,18.401
0,0.6473,-0.4983,0.3301,0.4728,1.3,-0.8,-2.2,0.006,0.007,-0.002,2018,4,24,22,52,18.424
0,0.6477,-0.4981,0.33,0.4726,1.4,-0.9,-1.9,0.005,0.01,0.002,2018,4,24,22,52,18.442
0,0.648,-0.4979,0.3299,0.4724,1.2,-1,-1.6,0.005,0.011,-0.001,2018,4,24,22,52,18.464
0,0.6482,-0.4977,0.3299,0.4723,1.2,-0.8,-1.1,0.003,0.012,-0.001,2018,4,24,22,52,18.502
0,0.6484,-0.4975,0.3299,0.4722,1.1,-0.8,-0.8,0.002,0.01,-0.003,2018,4,24,22,52,18.525
0,0.6486,-0.4973,0.3299,0.4722,1,-0.7,-0.4,0.001,0.01,-0.004,2018,4,24,22,52,18.529
0,0.6488,-0.4971,0.33,0.4721,1,-0.6,-0.1,0,0.006,0.001,2018,4,24,22,52,18.543
0,0.6489,-0.4968,0.33,0.4722,1.2,-0.6,0,0.002,0.007,0.002,2018,4,24,22,52,18.561
0,0.6491,-0.4966,0.3301,0.4722,1.2,-0.7,0.1,0.002,0.003,0.003,2018,4,24,22,52,18.585
0,0.6492,-0.4964,0.3302,0.4722,1,-0.6,0.2,0,0.006,0,2018,4,24,22,52,18.603
0,0.6493,-0.4962,0.3303,0.4722,0.8,-0.6,0.5,0.002,0,-0.002,2018,4,24,22,52,18.626
0,0.6494,-0.4959,0.3302,0.4723,0.9,-0.6,0.4,0.003,0.001,0,2018,4,24,22,52,18.644
0,0.6495,-0.4956,0.3302,0.4724,1.3,-0.8,0.2,0.008,0.001,0,2018,4,24,22,52,18.667
0,0.6497,-0.4954,0.3303,0.4724,1,-1,0.3,0.006,0,-0.001,2018,4,24,22,52,18.685
0,0.6498,-0.4952,0.3303,0.4725,0.7,-1.1,0.2,0.007,0.001,-0.005,2018,4,24,22,52,18.708
0,0.6499,-0.4951,0.3303,0.4724,0.4,-1,0.3,0.005,-0.001,0,2018,4,24,22,52,18.723
0,0.65,-0.4949,0.3302,0.4726,0.6,-0.7,0.3,0.003,-0.002,-0.001,2018,4,24,22,52,18.741
0,0.6502,-0.4947,0.3302,0.4726,0.8,-0.9,0.2,0.005,-0.003,-0.004,2018,4,24,22,52,18.764
0,0.6503,-0.4946,0.3302,0.4726,0.9,-0.7,0,0.005,-0.004,-0.006,2018,4,24,22,52,18.783
0,0.6504,-0.4944,0.3302,0.4725,1.2,-0.6,-0.4,0.005,-0.005,0,2018,4,24,22,52,18.806
0,0.6507,-0.4942,0.3301,0.4725,1,-0.6,-0.6,0.007,0,-0.004,2018,4,24,22,52,18.824
0,0.6509,-0.4942,0.33,0.4723,0.4,-0.7,-0.8,0.007,-0.002,0,2018,4,24,22,52,18.848
0,0.651,-0.4941,0.3298,0.4723,-0.1,-0.9,-0.9,0.009,0.002,0.002,2018,4,24,22,52,18.864
0,0.6512,-0.4941,0.3296,0.4722,0,-1,-0.8,0.007,-0.002,0,2018,4,24,22,52,18.888
1023,0.6514,-0.494,0.3294,0.4722,0.1,-1,-0.8,0.006,-0.002,0,2018,4,24,22,52,18.905
1023,0.6515,-0.4939,0.3292,0.4722,0,-1,-0.7,0.007,0,-0.006,2018,4,24,22,52,18.928
1023,0.6516,-0.494,0.3291,0.4721,0.1,-0.7,-0.8,0.005,-0.001,-0.01,2018,4,24,22,52,18.951
1023,0.6517,-0.494,0.3291,0.4719,0.7,-0.3,-1,0.003,0,-0.006,2018,4,24,22,52,18.967
1023,0.6519,-0.4939,0.3291,0.4718,1.1,0,-0.8,0.003,0.004,-0.006,2018,4,24,22,52,18.982
1023,0.652,-0.4939,0.3292,0.4716,0.9,0.2,-0.5,0.003,0.004,-0.009,2018,4,24,22,52,19.004
1023,0.6521,-0.4939,0.3293,0.4714,0.5,0.5,-0.5,0.001,0.002,-0.006,2018,4,24,22,52,19.04
1023,0.6521,-0.4939,0.3294,0.4712,0.6,0.6,-0.5,0.004,0.006,-0.001,2018,4,24,22,52,19.06
1023,0.6522,-0.4939,0.3295,0.4711,0.1,0.6,-0.8,0.007,0.008,-0.002,2018,4,24,22,52,19.066
1023,0.6522,-0.494,0.3296,0.4709,0,0.6,-0.9,0.008,0.007,-0.005,2018,4,24,22,52,19.101
1023,0.6522,-0.4941,0.3296,0.4708,-0.1,0.9,-0.7,0.004,0.008,-0.007,2018,4,24,22,52,19.122
0,0.6522,-0.4942,0.3298,0.4706,0.3,0.9,0,0.003,0.01,0.004,2018,4,24,22,52,19.127
0,0.6521,-0.4942,0.33,0.4706,0.1,1.1,0.3,0.003,0.009,0,2018,4,24,22,52,19.164
0,0.652,-0.4941,0.3302,0.4706,-0.2,1.2,0.6,0.003,0.006,0,2018,4,24,22,52,19.187
0,0.6519,-0.4942,0.3305,0.4706,-0.2,1.1,0.7,0.002,0.004,0.003,2018,4,24,22,52,19.191
0,0.6518,-0.4942,0.3306,0.4706,0,1,0.6,0.006,0.007,0.004,2018,4,24,22,52,19.21
0,0.6517,-0.4942,0.3308,0.4707,-0.2,0.9,0.7,0.007,0.005,0,2018,4,24,22,52,19.232
0,0.6515,-0.4942,0.331,0.4707,-0.3,1.1,0.9,0.006,0.004,0.003,2018,4,24,22,52,19.248
0,0.6514,-0.4942,0.3312,0.4707,-0.3,1.1,1.2,0.007,0.003,0.004,2018,4,24,22,52,19.267
0,0.6512,-0.4942,0.3314,0.4708,-0.3,1.1,1.5,0.004,0.003,0.003,2018,4,24,22,52,19.306
0,0.651,-0.4942,0.3316,0.471,-0.5,1.1,1.6,0.011,0,-0.003,2018,4,24,22,52,19.329
0,0.6508,-0.4942,0.3317,0.4711,-0.7,1,1.3,0.007,0.001,0.002,2018,4,24,22,52,19.334
0,0.6506,-0.4943,0.3319,0.4712,-0.6,1.2,1.3,0.003,-0.001,0.002,2018,4,24,22,52,19.35
0,0.6504,-0.4944,0.3321,0.4712,-0.3,1.2,1.3,0.004,-0.002,-0.003,2018,4,24,22,52,19.387
0,0.6502,-0.4945,0.3323,0.4713,-0.6,1.2,1.3,0.005,-0.003,-0.002,2018,4,24,22,52,19.387
0,0.65,-0.4946,0.3324,0.4714,-0.9,1.1,1,0.003,0,-0.001,2018,4,24,22,52,19.41
0,0.6498,-0.4947,0.3325,0.4714,-0.7,1.2,0.8,0.006,-0.003,0.001,2018,4,24,22,52,19.429
0,0.6497,-0.4949,0.3325,0.4715,-0.7,1.3,0.7,0.008,-0.006,0.002,2018,4,24,22,52,19.447
0,0.6496,-0.495,0.3326,0.4714,-0.3,1.4,0.4,0.007,-0.004,0,2018,4,24,22,52,19.47
0,0.6495,-0.4951,0.3328,0.4713,0,1.1,0.2,0.004,-0.002,0,2018,4,24,22,52,19.488
0,0.6494,-0.4952,0.3329,0.4712,-0.2,1,0.2,0.009,-0.001,0.001,2018,4,24,22,52,19.512
0,0.6494,-0.4953,0.3329,0.4711,-0.6,0.7,0.1,0.005,0,0.002,2018,4,24,22,52,19.529
0,0.6493,-0.4954,0.333,0.4711,-0.6,0.7,0.2,0.005,0,0,2018,4,24,22,52,19.552
0,0.6492,-0.4954,0.333,0.4711,-0.4,0.5,0.2,0.004,-0.001,-0.001,2018,4,24,22,52,19.57
0,0.6492,-0.4955,0.333,0.4711,-0.2,0.5,0,0.004,0.001,-0.001,2018,4,24,22,52,19.593
0,0.6491,-0.4956,0.3331,0.471,-0.4,0.6,-0.2,0.001,0.002,-0.003,2018,4,24,22,52,19.613
0,0.6491,-0.4957,0.333,0.471,-0.6,0.7,-0.2,0.001,0,-0.001,2018,4,24,22,52,19.631
0,0.6491,-0.4958,0.3329,0.471,-0.4,0.5,-0.2,0,0.001,0.002,2018,4,24,22,52,19.654
0,0.649,-0.4959,0.3329,0.471,-0.4,0.6,-0.2,0.002,0.005,-0.001,2018,4,24,22,52,19.669
0,0.649,-0.496,0.333,0.4709,-0.5,0.6,-0.4,0.002,0.007,0,2018,4,24,22,52,19.687
0,0.6489,-0.496,0.3329,0.471,-0.7,0.4,-0.3,0.008,0.006,0.004,2018,4,24,22,52,19.71
0,0.6489,-0.4961,0.3329,0.471,0,0,0,0.005,0.004,0.008,2018,4,24,22,52,19.748
0,0.6489,-0.496,0.333,0.471,-0.7,0,0.6,0.002,0.006,0.001,2018,4,24,22,52,19.769
1023,0.6488,-0.496,0.3329,0.4712,-1.1,-0.3,0.8,0.002,0.005,0.002,2018,4,24,22,52,19.773
1023,0.6486,-0.4961,0.3329,0.4714,-1.2,-0.1,0.5,0.004,0,-0.005,2018,4,24,22,52,19.791
1023,0.6485,-0.4962,0.3328,0.4715,-0.7,-0.2,0.2,0.003,-0.004,-0.004,2018,4,24,22,52,19.814
1023,0.6485,-0.4962,0.3328,0.4715,0,0,0,0.001,0,-0.002,2018,4,24,22,52,19.831
1023,0.6485,-0.4962,0.3328,0.4715,0,0,0,0.004,0.002,-0.008,2018,4,24,22,52,19.852
1023,0.6485,-0.4962,0.3328,0.4715,-0.7,0,0.3,0.003,0.003,-0.007,2018,4,24,22,52,19.889
1023,0.6484,-0.4963,0.3328,0.4715,-0.7,-0.2,0.2,0.003,0.003,-0.003,2018,4,24,22,52,19.913
1023,0.6483,-0.4965,0.3328,0.4715,-1.2,-0.2,-0.1,0.006,0,-0.016,2018,4,24,22,52,19.918
1023,0.6481,-0.4968,0.3327,0.4715,-1.9,0,-0.5,0.002,0.001,-0.009,2018,4,24,22,52,19.933
1023,0.648,-0.4971,0.3325,0.4714,-1.5,0,-0.6,0.003,0,-0.01,2018,4,24,22,52,19.951
1023,0.6479,-0.4973,0.3325,0.4714,-0.6,0.4,-0.3,0.008,0.003,-0.005,2018,4,24,22,52,19.973
0,0.6478,-0.4974,0.3325,0.4713,-0.6,0.8,0,0.005,0.003,-0.004,2018,4,24,22,52,20.007
0,0.6477,-0.4975,0.3326,0.4713,-0.6,0.9,0.3,0.006,0.003,-0.008,2018,4,24,22,52,20.03
0,0.6476,-0.4976,0.3327,0.4713,-0.4,0.9,0.2,0.003,0,-0.005,2018,4,24,22,52,20.036
0,0.6474,-0.4978,0.3329,0.4712,-0.3,0.9,0.2,0,0,0,2018,4,24,22,52,20.052
0,0.6473,-0.4979,0.333,0.4711,-0.6,1.1,0,0,0,0,2018,4,24,22,52,20.075
0,0.6472,-0.4981,0.3331,0.4711,-0.9,0.9,-0.1,0,0.001,-0.01,2018,4,24,22,52,20.094
0,0.6471,-0.4983,0.3331,0.471,-1,0.7,-0.5,-0.002,-0.001,-0.004,2018,4,24,22,52,20.117
0,0.647,-0.4985,0.3331,0.471,-1,0.7,-0.6,0,0.001,-0.002,2018,4,24,22,52,20.136
0,0.6469,-0.4987,0.333,0.4709,-1,0.4,-0.5,0,0.006,0.001,2018,4,24,22,52,20.159
0,0.6468,-0.4988,0.3329,0.471,-1.2,0.4,-0.4,0.001,0.009,-0.001,2018,4,24,22,52,20.175
0,0.6467,-0.4989,0.3328,0.4711,-1.2,0.4,-0.2,0.005,0.011,0,2018,4,24,22,52,20.193
0,0.6465,-0.4991,0.3329,0.4711,-1,0.4,0.1,0.009,0.007,-0.002,2018,4,24,22,52,20.231
0,0.6464,-0.4991,0.3328,0.4713,-0.9,0.4,0.4,0.004,0.006,-0.002,2018,4,24,22,52,20.253
0,0.6463,-0.4992,0.3329,0.4714,-0.6,0.5,0.7,0.006,0.005,-0.002,2018,4,24,22,52,20.258
0,0.6461,-0.4992,0.333,0.4715,-0.3,0.6,0.9,0.003,0.004,0.004,2018,4,24,22,52,20.276
0,0.646,-0.4992,0.3332,0.4715,-0.2,0.9,1,0.001,0.005,-0.003,2018,4,24,22,52,20.295
0,0.6458,-0.4992,0.3333,0.4716,0,0.6,0.9,0,0.002,-0.001,2018,4,24,22,52,20.318
0,0.6457,-0.4992,0.3334,0.4717,-0.1,0.7,0.7,0.003,0,0.002,2018,4,24,22,52,20.355
0,0.6456,-0.4993,0.3336,0.4717,-0.1,0.7,0.6,0.003,-0.001,0.001,2018,4,24,22,52,20.355
0,0.6455,-0.4993,0.3337,0.4717,-0.1,0.5,0.5,0.003,0,-0.002,2018,4,24,22,52,20.378
0,0.6454,-0.4994,0.3338,0.4717,-0.3,0.5,0.2,0.004,-0.002,-0.003,2018,4,24,22,52,20.393
0,0.6454,-0.4994,0.3337,0.4717,0,0,0,0.006,-0.001,-0.002,2018,4,24,22,52,20.416
0,0.6454,-0.4995,0.3338,0.4716,0,0,0,0.01,-0.003,-0.001,2018,4,24,22,52,20.433
0,0.6454,-0.4995,0.3338,0.4715,0,0,0,0.006,0,0,2018,4,24,22,52,20.456
0,0.6454,-0.4995,0.3338,0.4715,0,0,0,0.003,0.002,-0.001,2018,4,24,22,52,20.475
0,0.6454,-0.4995,0.3338,0.4715,-0.3,0.6,-0.4,0,-0.003,-0.001,2018,4,24,22,52,20.498
0,0.6454,-0.4996,0.3338,0.4714,0,0.4,-0.5,0.001,0,0,2018,4,24,22,52,20.518
0,0.6455,-0.4996,0.3337,0.4714,-0.2,0.3,-1,0,0.001,-0.003,2018,4,24,22,52,20.555
0,0.6456,-0.4997,0.3336,0.4713,-0.4,0,-1.4,0.005,0.005,-0.001,2018,4,24,22,52,20.578
0,0.6457,-0.4997,0.3334,0.4712,-0.3,0,-1.4,0.01,0.007,0.005,2018,4,24,22,52,20.583
0,0.6458,-0.4997,0.3333,0.4711,0.1,-0.1,-0.9,0.008,0.008,0,2018,4,24,22,52,20.596
1023,0.6459,-0.4997,0.3333,0.471,0.1,-0.3,-0.8,0.004,0.011,0,2018,4,24,22,52,20.616
1023,0.6459,-0.4997,0.3333,0.471,0,0,0,0.003,0.009,-0.004,2018,4,24,22,52,20.634
1023,0.6459,-0.4996,0.3333,0.4711,0,0,0,0,0.005,-0.005,2018,4,24,22,52,20.657
1023,0.6459,-0.4996,0.3333,0.4711,0,0,0,0.001,0.005,0.003,2018,4,24,22,52,20.676
1023,0.6459,-0.4996,0.3334,0.4711,0,0,0,0,0.005,-0.002,2018,4,24,22,52,20.697
1023,0.6458,-0.4996,0.3334,0.4711,0,0,0,-0.004,0.002,-0.003,2018,4,24,22,52,20.716
1023,0.6458,-0.4996,0.3334,0.4711,0,0,0,0,0,-0.005,2018,4,24,22,52,20.738
1023,0.6458,-0.4995,0.3334,0.4712,0.3,-0.3,-0.5,0.001,0.007,0.001,2018,4,24,22,52,20.756
1023,0.6459,-0.4995,0.3333,0.4712,-0.4,-0.5,-0.8,0.005,0.006,-0.003,2018,4,24,22,52,20.779
1023,0.6459,-0.4995,0.3331,0.4712,-0.9,-0.6,-0.9,0.004,0.005,-0.001,2018,4,24,22,52,20.817
0,0.646,-0.4996,0.3329,0.4713,-0.5,-0.6,-0.6,0,0.005,0,2018,4,24,22,52,20.839
0,0.646,-0.4996,0.3328,0.4713,-0.3,-0.6,-0.2,0.002,0.006,0.002,2018,4,24,22,52,20.844
0,0.646,-0.4996,0.3329,0.4713,0,-0.6,0.1,0.002,0.007,0.005,2018,4,24,22,52,20.858
0,0.646,-0.4996,0.3329,0.4713,-0.2,-0.7,0.1,0.001,0.005,0.001,2018,4,24,22,52,20.876
0,0.646,-0.4995,0.3328,0.4714,0.1,-0.9,0,0,0.003,0.004,2018,4,24,22,52,20.899
0,0.6461,-0.4992,0.3327,0.4716,0.1,-1.1,0,0.001,0.004,0.002,2018,4,24,22,52,20.917
0,0.6462,-0.4991,0.3326,0.4717,0,-1.2,0.2,0.002,0.003,0.006,2018,4,24,22,52,20.941
0,0.6463,-0.499,0.3325,0.4718,-0.1,-1.2,0.1,0.004,0,0,2018,4,24,22,52,20.958
0,0.6463,-0.4989,0.3325,0.4719,0.3,-1.1,0.2,0.004,0,0,2018,4,24,22,52,20.981
0,0.6464,-0.4987,0.3324,0.472,0.4,-1.2,0.4,0.005,0,0,2018,4,24,22,52,21
0,0.6465,-0.4986,0.3324,0.4721,0.5,-1.3,0.3,0.007,0,-0.002,2018,4,24,22,52,21.022
0,0.6466,-0.4984,0.3323,0.4722,0.5,-1.3,0.4,0.008,0,-0.002,2018,4,24,22,52,21.041
0,0.6467,-0.4982,0.3322,0.4723,0,-1.4,0.6,0.005,-0.005,0,2018,4,24,22,52,21.059
0,0.6467,-0.4981,0.3321,0.4724,0.2,-1.1,0.4,0.005,-0.006,-0.003,2018,4,24,22,52,21.082
0,0.6468,-0.4979,0.3319,0.4725,0.3,-1.2,0.2,0.003,-0.008,-0.001,2018,4,24,22,52,21.101
0,0.647,-0.4978,0.3318,0.4726,0.3,-1,0,0.004,-0.007,-0.002,2018,4,24,22,52,21.117
0,0.6471,-0.4978,0.3317,0.4726,0.1,-0.9,-0.3,0.007,-0.006,-0.004,2018,4,24,22,52,21.139
0,0.6472,-0.4977,0.3315,0.4726,0,-0.9,-0.5,0.003,-0.004,0,2018,4,24,22,52,21.177
0,0.6474,-0.4977,0.3313,0.4725,0,-0.9,-0.4,0.008,-0.001,0,2018,4,24,22,52,21.199
0,0.6475,-0.4976,0.3312,0.4725,0.2,-0.9,-0.5,0.006,-0.002,0.005,2018,4,24,22,52,21.204
0,0.6477,-0.4975,0.331,0.4725,0.3,-0.7,-0.5,0.008,-0.002,0.005,2018,4,24,22,52,21.222
0,0.6479,-0.4974,0.3309,0.4724,0.5,-0.7,-0.6,0.007,-0.003,0.006,2018,4,24,22,52,21.241
0,0.6481,-0.4973,0.3307,0.4724,1,-0.7,-0.6,0,-0.004,0.01,2018,4,24,22,52,21.265
0,0.6484,-0.4971,0.3307,0.4722,1.2,-0.6,-0.6,0.003,-0.003,0.012,2018,4,24,22,52,21.279
0,0.6487,-0.4968,0.3306,0.4721,1.4,-0.7,-0.4,0.002,-0.002,0.015,2018,4,24,22,52,21.314
0,0.649,-0.4966,0.3305,0.4721,1.5,-0.8,-0.5,0.003,0.002,0.013,2018,4,24,22,52,21.337
0,0.6493,-0.4963,0.3305,0.4719,1.9,-1,-0.7,0.006,-0.001,0.007,2018,4,24,22,52,21.34
0,0.6496,-0.496,0.3304,0.4718,2,-1,-0.6,0.007,-0.002,0.008,2018,4,24,22,52,21.378
0,0.65,-0.4956,0.3303,0.4717,2.3,-1,-0.6,0.006,0,0.006,2018,4,24,22,52,21.4
0,0.6504,-0.4952,0.3303,0.4716,2.4,-1.1,-0.7,0.008,0.002,0.003,2018,4,24,22,52,21.403
0,0.6508,-0.4949,0.3303,0.4715,2,-1.5,-1.1,0.002,0.006,0.001,2018,4,24,22,52,21.439
1023,0.6511,-0.4946,0.3302,0.4713,1.8,-1.6,-1.1,0.003,0.003,0.003,2018,4,24,22,52,21.46
1023,0.6515,-0.4943,0.3301,0.4713,1.9,-1.4,-0.6,0.008,0.006,0,2018,4,24,22,52,21.463
1023,0.6518,-0.494,0.3301,0.4711,1.8,-1.5,-0.5,0.007,0.007,-0.001,2018,4,24,22,52,21.499
1023,0.652,-0.4937,0.3301,0.4711,1.5,-1.3,-0.3,0.003,0.002,-0.012,2018,4,24,22,52,21.519
1023,0.6523,-0.4934,0.3301,0.4711,1.8,-1.3,-0.2,0.004,0.003,-0.008,2018,4,24,22,52,21.523
1023,0.6525,-0.4931,0.3302,0.471,2.2,-0.8,-0.1,0.006,0.004,-0.005,2018,4,24,22,52,21.541
1023,0.6528,-0.4928,0.3303,0.4709,2.6,-0.3,0,0.007,0.003,-0.003,2018,4,24,22,52,21.56
1023,0.653,-0.4925,0.3306,0.4707,2.4,0.1,0.1,0.006,0.001,-0.006,2018,4,24,22,52,21.599
1023,0.6531,-0.4923,0.3309,0.4705,2.6,0.1,0.3,0.002,-0.002,-0.007,2018,4,24,22,52,21.621
1023,0.6534,-0.4921,0.3311,0.4703,2.7,0.3,0,0.009,0,0,2018,4,24,22,52,21.624
0,0.6535,-0.4918,0.3314,0.47,2,0,-0.2,0.007,0,-0.001,2018,4,24,22,52,21.661
0,0.6537,-0.4917,0.3316,0.4699,1.3,0.3,-0.5,0.006,0.001,-0.005,2018,4,24,22,52,21.684
0,0.6539,-0.4916,0.3317,0.4696,1.4,0.3,-0.5,0.002,0,-0.004,2018,4,24,22,52,21.688
0,0.654,-0.4915,0.3319,0.4694,1.8,0.4,-0.1,0.006,-0.002,0,2018,4,24,22,52,21.705
0,0.6542,-0.4912,0.3321,0.4693,1.9,0.3,0,0.008,0.002,0,2018,4,24,22,52,21.728
0,0.6544,-0.4911,0.3323,0.4691,1.4,0.3,-0.1,0.011,0.003,-0.005,2018,4,24,22,52,21.764
0,0.6545,-0.4909,0.3323,0.469,1.2,0.1,-0.3,0.009,0.003,0,2018,4,24,22,52,21.764
0,0.6547,-0.4908,0.3323,0.469,1.2,0.1,-0.5,0.008,0.001,0.003,2018,4,24,22,52,21.788
0,0.6548,-0.4905,0.3323,0.4689,1.1,0,-0.2,0.005,0.004,-0.002,2018,4,24,22,52,21.805
0,0.6549,-0.4904,0.3324,0.4689,0.8,0.1,0.1,0.008,0.005,-0.005,2018,4,24,22,52,21.824
0,0.655,-0.4903,0.3325,0.4689,0.8,0.3,0.1,0.007,-0.002,-0.003,2018,4,24,22,52,21.843
0,0.655,-0.4902,0.3326,0.4688,1,0.4,0.1,0.005,0.001,-0.008,2018,4,24,22,52,21.866
0,0.6551,-0.4902,0.3328,0.4687,1.2,0.6,0,0.004,0,-0.006,2018,4,24,22,52,21.885
0,0.6551,-0.4902,0.333,0.4685,1.3,0.9,0,0.004,-0.003,-0.009,2018,4,24,22,52,21.908
0,0.6551,-0.4902,0.3333,0.4683,1.4,1.5,-0.1,0.004,0.001,-0.006,2018,4,24,22,52,21.924
0,0.6552,-0.4902,0.3335,0.468,1,1.4,0,0.002,0.001,-0.004,2018,4,24,22,52,21.945
0,0.6552,-0.4902,0.3338,0.4678,0.4,1.3,-0.3,0.009,0.004,-0.006,2018,4,24,22,52,21.983
0,0.6551,-0.4903,0.334,0.4676,0.4,1.2,-0.3,0.006,0.007,-0.005,2018,4,24,22,52,21.983
0,0.6551,-0.4904,0.3341,0.4675,0,1.2,-0.1,0.008,0.006,0,2018,4,24,22,52,22.006
0,0.6551,-0.4904,0.3342,0.4674,-0.1,1.1,0,0.011,0.003,0,2018,4,24,22,52,22.022
0,0.655,-0.4905,0.3343,0.4673,0,1,0.1,0.012,0.004,0.002,2018,4,24,22,52,22.045
0,0.655,-0.4905,0.3344,0.4673,0,0.9,0.4,0.009,0.001,0.002,2018,4,24,22,52,22.081
0,0.6549,-0.4905,0.3346,0.4673,0,0.7,0.5,0.007,0,0.003,2018,4,24,22,52,22.103
0,0.6549,-0.4905,0.3347,0.4673,0,0.5,0.8,0.009,-0.002,-0.004,2018,4,24,22,52,22.105
0,0.6548,-0.4905,0.3347,0.4674,-0.1,0.6,0.8,0.005,-0.008,-0.003,2018,4,24,22,52,22.142
0,0.6547,-0.4905,0.3348,0.4674,0.3,0.7,0.9,0.005,-0.011,-0.003,2018,4,24,22,52,22.165
0,0.6547,-0.4904,0.3348,0.4674,0.7,0.6,0.5,0.001,-0.013,0,2018,4,24,22,52,22.17
0,0.6548,-0.4905,0.3349,0.4673,0.7,0.7,0,0.002,-0.013,0.004,2018,4,24,22,52,22.187
0,0.6548,-0.4905,0.335,0.4671,0.3,0.9,-0.5,-0.001,-0.007,0,2018,4,24,22,52,22.205
0,0.6549,-0.4906,0.3349,0.467,0.2,0.6,-1.1,0.002,-0.007,0,2018,4,24,22,52,22.223
1023,0.655,-0.4907,0.3348,0.4667,0.2,0.3,-1.6,0.008,0,0.004,2018,4,24,22,52,22.246
1023,0.6552,-0.4908,0.3347,0.4665,-0.3,0,-1.9,0.004,0.002,0.003,2018,4,24,22,52,22.282
1023,0.6554,-0.4909,0.3344,0.4664,-0.8,-0.6,-1.9,0.004,0.005,0.001,2018,4,24,22,52,22.306
1023,0.6555,-0.4909,0.334,0.4664,-1.4,-0.7,-1.4,0.002,0.009,0.002,2018,4,24,22,52,22.311
1023,0.6555,-0.491,0.3337,0.4666,-1.4,-0.9,-0.8,0.001,0.01,0,2018,4,24,22,52,22.328
1023,0.6555,-0.4911,0.3334,0.4668,-1.5,-0.9,-0.6,0,0.009,0.001,2018,4,24,22,52,22.361
1023,0.6554,-0.4911,0.3332,0.4669,-0.8,-0.8,-0.3,0.001,0.007,-0.003,2018,4,24,22,52,22.386
1023,0.6555,-0.491,0.333,0.4671,0,-0.8,-0.1,0.001,0.01,0.001,2018,4,24,22,52,22.389
1023,0.6555,-0.4909,0.333,0.4672,0,-0.7,0.2,0.006,0.011,0,2018,4,24,22,52,22.41
1023,0.6555,-0.4907,0.3329,0.4675,-1.4,-0.4,0.6,-0.001,0.012,0.029,2018,4,24,22,52,22.429
0,0.6553,-0.4908,0.3325,0.4679,-8.1,-3.5,-0.9,-0.069,0.108,0.317,2018,4,24,22,52,22.466
0,0.6538,-0.493,0.3279,0.4709,-64.2,-33.8,-2.7,-0.106,0.36,0.657,2018,4,24,22,52,22.486
0,0.6467,-0.5026,0.3122,0.4812,-157.5,-62.3,-4.3,-0.075,0.242,0.65,2018,4,24,22,52,22.488
0,0.6354,-0.5167,0.288,0.4962,-190,-89.6,-12.9,-0.108,-0.028,0.873,2018,4,24,22,52,22.505
0,0.6248,-0.529,0.2582,0.5128,-189,-127.8,-21.5,-0.234,-0.076,1.18,2018,4,24,22,52,22.527
0,0.6147,-0.538,0.2218,0.5323,-213.5,-167.8,-28.3,-0.29,-0.038,1.116,2018,4,24,22,52,22.564
0,0.602,-0.5471,0.1759,0.5542,-268.2,-200.3,-44.7,-0.305,-0.109,0.881,2018,4,24,22,52,22.584
0,0.5835,-0.5589,0.1181,0.5771,-340.6,-227.5,-65.4,-0.388,-0.243,0.56,2018,4,24,22,52,22.587
0,0.559,-0.5727,0.0486,0.5975,-390.9,-237.9,-95.7,-0.394,-0.388,0.151,2018,4,24,22,52,22.625
0,0.5309,-0.5864,-0.0274,0.611,-402.4,-228.3,-128.3,-0.39,-0.45,-0.235,2018,4,24,22,52,22.645
0,0.5037,-0.5972,-0.1036,0.6154,-371.2,-194.9,-159.5,-0.312,-0.504,-0.562,2018,4,24,22,52,22.651
0,0.4852,-0.6023,-0.1703,0.6104,-252.8,-141.7,-186.7,-0.348,-0.496,-0.77,2018,4,24,22,52,22.689
0,0.4833,-0.5991,-0.2198,0.5991,-119.5,-85.5,-208,-0.403,-0.335,-0.879,2018,4,24,22,52,22.689
0,0.4963,-0.5892,-0.2542,0.5845,-27.8,-42.4,-222.1,-0.441,-0.087,-0.975,2018,4,24,22,52,22.708
0,0.5161,-0.5782,-0.282,0.5654,-30.4,-6,-237.8,-0.461,0.117,-1.052,2018,4,24,22,52,22.746
0,0.5351,-0.5714,-0.3103,0.5391,-70.7,26.4,-248.4,-0.496,0.099,-1.043,2018,4,24,22,52,22.768
0,0.5514,-0.5697,-0.3397,0.5057,-116,56.8,-255.5,-0.53,0.234,-1.06,2018,4,24,22,52,22.771
0,0.5641,-0.5736,-0.3697,0.4646,-150,92.2,-255.8,-0.552,0.204,-1.062,2018,4,24,22,52,22.807
0,0.5758,-0.5806,-0.3957,0.4178,-151.4,130.8,-248.1,-0.568,0.198,-1.031,2018,4,24,22,52,22.828
0,0.5879,-0.5888,-0.4149,0.368,-138.3,167.6,-228.9,-0.545,0.22,-0.989,2018,4,24,22,52,22.832
0,0.601,-0.5977,-0.4257,0.3163,-128.7,205.6,-204.9,-0.595,0.249,-0.887,2018,4,24,22,52,22.869
0,0.6126,-0.6098,-0.4293,0.2617,-165.8,239.7,-179.1,-0.618,0.298,-0.832,2018,4,24,22,52,22.889
0,0.6167,-0.6295,-0.4272,0.202,-223.9,268.7,-139.2,-0.446,0.305,-0.846,2018,4,24,22,52,22.892
0,0.6144,-0.6553,-0.4162,0.1404,-245.9,299.2,-88.4,-0.492,0.093,-0.843,2018,4,24,22,52,22.909
0,0.6083,-0.6836,-0.3952,0.0785,-261,327.5,-47.8,-0.677,-0.016,-0.655,2018,4,24,22,52,22.928
0,0.5968,-0.7141,-0.3655,0.0157,-297.3,345.7,-12.8,-0.906,-0.185,-0.338,2018,4,24,22,52,22.966
0,0.5787,-0.7449,-0.3283,-0.0474,-308.7,356.1,13.3,-1.11,-0.648,0.048,2018,4,24,22,52,22.986
0,0.5616,-0.7686,-0.2863,-0.1077,-236,355.6,23.1,-1.125,-0.988,0.746,2018,4,24,22,52,22.989
0,0.5486,-0.7841,-0.2558,-0.1365,-173.2,161.3,77.8,0.755,-1.068,-3.118,2018,4,24,22,52,23.025
0,0.5129,-0.8101,-0.2431,-0.1465,-169.8,-15.1,39.3,-0.698,-1.5,1.222,2018,4,24,22,52,23.045
1023,0.5124,-0.8144,-0.2379,-0.1321,153.4,-76,70.1,-0.849,-0.407,1.349,2018,4,24,22,52,23.051
1023,0.5357,-0.8012,-0.2436,-0.1082,170.6,-103.1,19.5,-0.821,-0.5,1.466,2018,4,24,22,52,23.088
1023,0.5523,-0.7883,-0.2583,-0.0816,150.6,-157,-2.5,-0.606,0.001,0.891,2018,4,24,22,52,23.108
1023,0.5632,-0.7776,-0.2746,-0.0514,121.7,-173.9,28.4,-0.294,0.362,0.318,2018,4,24,22,52,23.114
1023,0.5731,-0.7671,-0.2876,-0.0164,157.3,-180.8,54.3,-0.34,0.19,0.136,2018,4,24,22,52,23.133
1023,0.5878,-0.7523,-0.2964,0.0231,193.2,-172.4,81,-0.406,0.175,-0.101,2018,4,24,22,52,23.153
1023,0.6034,-0.7361,-0.2996,0.0649,183.7,-160.5,113.5,-0.375,0.384,-0.16,2018,4,24,22,52,23.169
1023,0.6142,-0.7232,-0.2969,0.1072,146.6,-150,147.4,-0.374,0.454,-0.143,2018,4,24,22,52,23.191
1023,0.6198,-0.7138,-0.2896,0.1494,114,-140.4,167.3,-0.469,0.352,-0.236,2018,4,24,22,52,23.228
1023,0.6181,-0.7099,-0.2802,0.1877,49.2,-117.8,171.7,-0.477,0.24,-0.476,2018,4,24,22,52,23.248
0,0.612,-0.7101,-0.2679,0.2218,51.5,-91.9,183.4,-0.362,0.122,-0.501,2018,4,24,22,52,23.251
0,0.6113,-0.7063,-0.2489,0.2555,126.4,-64,196.8,-0.311,0.08,-0.402,2018,4,24,22,52,23.291
0,0.6211,-0.6934,-0.2209,0.2907,220.9,-37.6,210.9,-0.317,0.092,-0.234,2018,4,24,22,52,23.294
0,0.638,-0.6721,-0.1847,0.3269,257,-22.4,221.6,-0.275,0.129,-0.304,2018,4,24,22,52,23.331
0,0.6515,-0.6513,-0.1456,0.3606,212.5,0.4,233.7,-0.231,0.188,-0.453,2018,4,24,22,52,23.355
0,0.6564,-0.6365,-0.1047,0.3911,162.3,23.9,254.9,-0.28,0.048,-0.397,2018,4,24,22,52,23.36
0,0.6551,-0.625,-0.0609,0.4199,154,39.3,270.5,-0.344,-0.158,-0.108,2018,4,24,22,52,23.376
0,0.6523,-0.6109,-0.0134,0.4483,182.1,39.6,278.6,-0.345,-0.215,0.089,2018,4,24,22,52,23.395
0,0.6495,-0.5922,0.0355,0.4754,191.1,37.9,271.8,-0.298,-0.314,-0.124,2018,4,24,22,52,23.41
0,0.645,-0.5729,0.0827,0.4988,164.9,53.2,256.7,-0.297,-0.272,-0.263,2018,4,24,22,52,23.432
0,0.6368,-0.5568,0.1274,0.5177,142.4,68.1,240.4,-0.338,-0.422,-0.134,2018,4,24,22,52,23.47
0,0.6271,-0.5427,0.1698,0.5322,131.7,76.4,213.7,-0.342,-0.464,-0.025,2018,4,24,22,52,23.493
0,0.6185,-0.5297,0.2086,0.5415,130.5,81.3,172.7,-0.297,-0.481,0.014,2018,4,24,22,52,23.497
0,0.6129,-0.5177,0.244,0.5447,131.4,85.8,129.4,-0.284,-0.442,0.051,2018,4,24,22,52,23.516
0,0.6102,-0.5077,0.2749,0.5424,119.7,86.8,85.6,-0.284,-0.351,0.107,2018,4,24,22,52,23.55
0,0.6091,-0.5017,0.2995,0.5361,90.3,84.7,54.5,-0.199,-0.203,0.191,2018,4,24,22,52,23.574
0,0.6073,-0.4996,0.3187,0.5289,61.4,77,28.8,-0.244,-0.283,0.291,2018,4,24,22,52,23.578
0,0.6057,-0.4995,0.3333,0.5218,44.6,67.3,16.1,-0.14,-0.246,0.287,2018,4,24,22,52,23.598
0,0.6039,-0.501,0.3443,0.5153,25.8,59.8,8.8,-0.075,-0.216,0.259,2018,4,24,22,52,23.612
0,0.6017,-0.5036,0.3525,0.5098,16.4,51.5,2.1,-0.018,-0.256,0.26,2018,4,24,22,52,23.65
0,0.6002,-0.5061,0.3591,0.5045,17.6,44.8,-1.3,0.024,-0.221,0.251,2018,4,24,22,52,23.673
0,0.5993,-0.508,0.3647,0.4995,16,38.6,-2.8,0.045,-0.161,0.246,2018,4,24,22,52,23.677
0,0.5988,-0.5096,0.3693,0.4952,14.9,31.6,-4,0.037,-0.153,0.248,2018,4,24,22,52,23.696
0,0.5986,-0.5109,0.3729,0.4913,11.6,25,-6,0.042,-0.135,0.248,2018,4,24,22,52,23.734
0,0.5986,-0.5123,0.3751,0.4882,6.2,18.4,-8.3,0.038,-0.109,0.248,2018,4,24,22,52,23.758
0,0.5988,-0.5138,0.376,0.4857,0.1,12.3,-10.7,0.037,-0.094,0.242,2018,4,24,22,52,23.761
0,0.599,-0.5155,0.3755,0.4839,-3.7,7,-12.7,0.032,-0.104,0.234,2018,4,24,22,52,23.78
1023,0.5996,-0.517,0.3743,0.4826,-1.6,1.9,-13.7,0.023,-0.109,0.229,2018,4,24,22,52,23.796
1023,0.601,-0.5177,0.3729,0.4811,3.3,-2.5,-14.8,0.022,-0.095,0.213,2018,4,24,22,52,23.819
1023,0.6032,-0.5176,0.3713,0.4798,6.8,-6.7,-15.9,0.019,-0.091,0.191,2018,4,24,22,52,23.836
1023,0.6058,-0.5171,0.3694,0.4784,8.1,-10.7,-17,0.013,-0.074,0.17,2018,4,24,22,52,23.853
1023,0.6089,-0.5163,0.367,0.4772,7.9,-14.3,-18.6,0.009,-0.063,0.142,2018,4,24,22,52,23.876
1023,0.6128,-0.5149,0.3636,0.4764,7.1,-17.9,-19.7,-0.004,-0.053,0.12,2018,4,24,22,52,23.913
1023,0.6169,-0.5134,0.3594,0.4759,4.6,-20.7,-21.1,-0.015,-0.04,0.1,2018,4,24,22,52,23.913
1023,0.6209,-0.5122,0.3548,0.4755,2.3,-23.2,-22.2,-0.023,-0.039,0.074,2018,4,24,22,52,23.936
1023,0.6248,-0.5111,0.3498,0.4752,1.7,-24.9,-23.6,-0.026,-0.033,0.05,2018,4,24,22,52,23.975
1023,0.6287,-0.5101,0.3448,0.4748,1.6,-26.4,-25.2,-0.03,-0.021,0.032,2018,4,24,22,52,23.998
0,0.6327,-0.5091,0.3396,0.4743,1.5,-27.1,-26.2,-0.03,-0.016,0.018,2018,4,24,22,52,24.002
0,0.6366,-0.5082,0.3344,0.4737,1.2,-27.4,-27.5,-0.025,0.002,-0.004,2018,4,24,22,52,24.036
0,0.6404,-0.5076,0.3292,0.4729,0.1,-27,-28.6,-0.02,0.017,-0.031,2018,4,24,22,52,24.059
0,0.644,-0.5073,0.3242,0.4719,-0.3,-26.3,-28.9,-0.018,0.027,-0.051,2018,4,24,22,52,24.064
0,0.6473,-0.5071,0.3193,0.4709,-0.6,-25.1,-28.9,-0.016,0.042,-0.062,2018,4,24,22,52,24.08
0,0.6503,-0.5071,0.3146,0.4698,-2.1,-23.5,-28.2,-0.01,0.05,-0.081,2018,4,24,22,52,24.099
0,0.653,-0.5073,0.3103,0.4687,-2,-21.6,-26.6,-0.009,0.058,-0.098,2018,4,24,22,52,24.118
0,0.6553,-0.5076,0.3065,0.4676,-2.3,-19.3,-24.6,-0.006,0.065,-0.095,2018,4,24,22,52,24.136
0,0.6572,-0.5081,0.3033,0.4666,-2.3,-16.7,-22.2,-0.002,0.081,-0.107,2018,4,24,22,52,24.16
0,0.6593,-0.5085,0.2997,0.4655,-3.7,-13.3,-19.7,0,0.08,-0.122,2018,4,24,22,52,24.197
0,0.6611,-0.5089,0.2967,0.4645,-2.2,-9.6,-16.2,-0.015,0.094,-0.123,2018,4,24,22,52,24.22
0,0.6624,-0.5094,0.2945,0.4635,-2.3,-6,-13,0.003,0.095,-0.125,2018,4,24,22,52,24.225
0,0.6634,-0.5099,0.293,0.4625,-0.7,-2.4,-9.6,0.005,0.097,-0.115,2018,4,24,22,52,24.239
0,0.664,-0.5103,0.2923,0.4616,0.1,1.1,-5.6,0.001,0.103,-0.113,2018,4,24,22,52,24.261
0,0.6641,-0.5108,0.2925,0.4608,0.3,5,-1.8,0.005,0.101,-0.112,2018,4,24,22,52,24.28
0,0.6632,-0.5114,0.2943,0.4603,2.1,8.5,2.4,0.007,0.092,-0.096,2018,4,24,22,52,24.304
0,0.6619,-0.5118,0.2971,0.4599,3.6,11.8,6.5,0.007,0.087,-0.08,2018,4,24,22,52,24.319
0,0.6603,-0.512,0.3006,0.4596,4.4,14.3,10.1,0.005,0.08,-0.063,2018,4,24,22,52,24.337
0,0.6586,-0.512,0.3045,0.4596,4.7,16.4,13.3,0.003,0.072,-0.044,2018,4,24,22,52,24.36
0,0.6565,-0.5119,0.3087,0.4598,4.8,18,16.1,-0.005,0.063,-0.027,2018,4,24,22,52,24.378
0,0.6543,-0.5116,0.3131,0.4602,5.3,19.5,18.6,0,0.051,-0.008,2018,4,24,22,52,24.401
0,0.652,-0.5113,0.3179,0.4607,5.6,20.4,20.9,-0.002,0.041,0.005,2018,4,24,22,52,24.438
0,0.6496,-0.5107,0.3228,0.4612,6.3,20.9,22.5,-0.005,0.03,0.025,2018,4,24,22,52,24.461
0,0.6473,-0.5099,0.3278,0.4619,7,20.6,23.5,-0.004,0.015,0.04,2018,4,24,22,52,24.466
0,0.6451,-0.5089,0.3325,0.4628,7.2,19.6,24.3,-0.005,0.004,0.056,2018,4,24,22,52,24.484
0,0.6429,-0.5076,0.3371,0.4638,7,18.2,24.3,-0.001,-0.001,0.068,2018,4,24,22,52,24.501
0,0.6409,-0.5064,0.3413,0.4649,5.8,16.4,24,0,-0.011,0.08,2018,4,24,22,52,24.524
1023,0.639,-0.505,0.3448,0.4663,3.5,13.7,23.3,0.001,-0.018,0.092,2018,4,24,22,52,24.54
1023,0.6371,-0.5039,0.3478,0.468,0.7,10.6,22.3,0.006,-0.026,0.096,2018,4,24,22,52,24.558
1023,0.6354,-0.5028,0.3499,0.47,-2.1,7.5,21,0.005,-0.036,0.103,2018,4,24,22,52,24.58
1023,0.6336,-0.502,0.3513,0.4722,-4.9,4.2,19.6,0.007,-0.047,0.1,2018,4,24,22,52,24.599
1023,0.632,-0.5013,0.3519,0.4745,-6.6,1.4,18.1,0.004,-0.059,0.093,2018,4,24,22,52,24.622
1023,0.6307,-0.5007,0.352,0.477,-7.1,-1.4,16.2,0.011,-0.067,0.09,2018,4,24,22,52,24.64
1023,0.6295,-0.5001,0.3516,0.4793,-6.9,-3.3,14.3,0.01,-0.077,0.074,2018,4,24,22,52,24.663
1023,0.6287,-0.4996,0.351,0.4815,-6.1,-5.3,12.2,0.01,-0.08,0.07,2018,4,24,22,52,24.681
1023,0.6282,-0.499,0.35,0.4834,-4.9,-6.7,10.1,0.012,-0.087,0.062,2018,4,24,22,52,24.702
1023,0.6281,-0.4984,0.3488,0.4849,-4,-8.2,6.8,0.013,-0.091,0.047,2018,4,24,22,52,24.741
1023,0.6283,-0.4979,0.3474,0.4862,-3.7,-9.5,4,0.007,-0.086,0.038,2018,4,24,22,52,24.763
0,0.6288,-0.4976,0.3457,0.4871,-3.1,-10.4,0.9,0.011,-0.086,0.027,2018,4,24,22,52,24.765
0,0.6297,-0.4973,0.3436,0.4878,-3,-11.3,-2.3,0.013,-0.08,0.012,2018,4,24,22,52,24.784
0,0.6307,-0.4972,0.3414,0.4881,-3.1,-11.9,-5.5,0.011,-0.072,-0.001,2018,4,24,22,52,24.807
0,0.6319,-0.4974,0.3388,0.4881,-3.3,-12,-8.4,0.01,-0.062,-0.013,2018,4,24,22,52,24.822
0,0.6333,-0.4977,0.3361,0.488,-3.2,-12,-10.7,0.005,-0.056,-0.017,2018,4,24,22,52,24.84
0,0.6347,-0.4981,0.3334,0.4875,-3.1,-11.4,-12.5,0.004,-0.048,-0.029,2018,4,24,22,52,24.863
0,0.6362,-0.4987,0.3309,0.4867,-3.2,-10.8,-14.1,0.005,-0.034,-0.041,2018,4,24,22,52,24.901
0,0.6377,-0.4995,0.3282,0.4858,-3.1,-9.5,-15.5,0.001,-0.024,-0.042,2018,4,24,22,52,24.924
0,0.6392,-0.5003,0.3257,0.4846,-1.8,-8.1,-16.6,0,-0.019,-0.05,2018,4,24,22,52,24.929
0,0.6407,-0.5012,0.3235,0.4831,-0.7,-6.2,-17.6,0.002,-0.01,-0.048,2018,4,24,22,52,24.943
0,0.6423,-0.5021,0.3217,0.4812,1.5,-4.3,-18,0,0.002,-0.056,2018,4,24,22,52,24.966
0,0.644,-0.5029,0.3203,0.4792,3.1,-2.8,-18.4,-0.004,0.011,-0.051,2018,4,24,22,52,25.002
0,0.6457,-0.5036,0.3192,0.4769,4.6,-1.2,-18.1,-0.006,0.022,-0.052,2018,4,24,22,52,25.025
0,0.6473,-0.5041,0.3184,0.4746,5,0.1,-17.4,-0.011,0.035,-0.039,2018,4,24,22,52,25.03
0,0.6488,-0.5046,0.318,0.4724,5,1.1,-16.4,-0.017,0.04,-0.039,2018,4,24,22,52,25.043
0,0.65,-0.5051,0.3177,0.4703,3.5,1.8,-15,-0.016,0.051,-0.029,2018,4,24,22,52,25.061
0,0.651,-0.5057,0.3175,0.4685,2.3,2.3,-13.3,-0.014,0.056,-0.028,2018,4,24,22,52,25.085
0,0.6518,-0.5062,0.3173,0.4669,0.8,2.6,-12,0.001,0.067,-0.022,2018,4,24,22,52,25.102
0,0.6523,-0.5069,0.3171,0.4657,-0.7,2.8,-10.5,0.009,0.072,-0.019,2018,4,24,22,52,25.126
0,0.6525,-0.5076,0.317,0.4647,-2.1,3.1,-8.7,0.01,0.071,-0.016,2018,4,24,22,52,25.162
0,0.6524,-0.5083,0.317,0.464,-2.1,3.9,-6.1,0.001,0.071,-0.014,2018,4,24,22,52,25.185
0,0.6522,-0.5088,0.3173,0.4636,-1.8,4.8,-3.1,0.006,0.071,-0.004,2018,4,24,22,52,25.189
0,0.6516,-0.5092,0.3181,0.4634,-1.3,5.5,0.1,0.009,0.069,-0.004,2018,4,24,22,52,25.205
0,0.6509,-0.5093,0.3193,0.4635,-0.6,6.4,3.3,0.006,0.066,-0.002,2018,4,24,22,52,25.228
0,0.65,-0.5092,0.3208,0.4637,0.4,7,6.2,0,0.055,0.002,2018,4,24,22,52,25.245
0,0.649,-0.5089,0.3227,0.4642,1.8,7.3,8.4,-0.006,0.048,0.017,2018,4,24,22,52,25.281
0,0.6481,-0.5083,0.3247,0.4648,2.4,7,10.1,-0.002,0.045,0.025,2018,4,24,22,52,25.305
0,0.647,-0.5075,0.3267,0.4657,1.8,6.4,11.5,0.001,0.042,0.026,2018,4,24,22,52,25.309
1023,0.6459,-0.5068,0.3286,0.4667,0.4,5.2,12.2,0.004,0.034,0.032,2018,4,24,22,52,25.327
1023,0.6446,-0.5061,0.3302,0.4681,-1.7,3.7,13.2,-0.001,0.028,0.028,2018,4,24,22,52,25.345
1023,0.643,-0.5056,0.3316,0.4698,-4.6,2.4,14.3,0,0.019,0.025,2018,4,24,22,52,25.368
1023,0.6413,-0.5054,0.3327,0.4717,-6.7,1.2,15,0.001,0.005,0.027,2018,4,24,22,52,25.389
1023,0.6394,-0.5052,0.3334,0.4739,-7.9,0.7,15.6,0.009,-0.003,0.022,2018,4,24,22,52,25.406
1023,0.6375,-0.5051,0.3341,0.476,-7.3,0.6,16.2,0.015,-0.018,0.021,2018,4,24,22,52,25.428
1023,0.6358,-0.5049,0.3349,0.478,-5.1,0.9,16.3,0.014,-0.028,0.017,2018,4,24,22,52,25.447
1023,0.6342,-0.5045,0.3358,0.4798,-2.4,1.3,15.8,0.012,-0.038,0.014,2018,4,24,22,52,25.468
1023,0.633,-0.5039,0.337,0.4813,-0.1,1.2,15.2,0.014,-0.04,0.018,2018,4,24,22,52,25.504
1023,0.6319,-0.5032,0.3381,0.4826,0.7,0.7,14.1,0.01,-0.041,0.015,2018,4,24,22,52,25.527
1023,0.6311,-0.5024,0.3391,0.4839,0,-0.1,12.9,0.008,-0.043,0.022,2018,4,24,22,52,25.532
0,0.6302,-0.5019,0.3397,0.4851,-1.5,-0.7,10.9,0.008,-0.044,0.015,2018,4,24,22,52,25.548
0,0.6295,-0.5017,0.3399,0.4862,-3,-1.7,8.9,0.002,-0.055,0.006,2018,4,24,22,52,25.566
0,0.6289,-0.5016,0.3397,0.4872,-3.6,-2.3,6.5,0.002,-0.057,0.005,2018,4,24,22,52,25.589
0,0.6285,-0.5018,0.3393,0.4878,-3.5,-2.8,3.7,0.007,-0.061,0.004,2018,4,24,22,52,25.607
0,0.6283,-0.5021,0.3385,0.4881,-3.3,-2.9,0.6,0.01,-0.058,-0.004,2018,4,24,22,52,25.628
0,0.6284,-0.5026,0.3376,0.4881,-3,-3,-2.1,0.013,-0.054,-0.012,2018,4,24,22,52,25.667
0,0.6288,-0.5032,0.3365,0.4878,-2,-2.8,-4.5,0.016,-0.049,-0.012,2018,4,24,22,52,25.69
0,0.6294,-0.5038,0.3354,0.4872,-1.5,-2.7,-6.7,0.016,-0.039,-0.015,2018,4,24,22,52,25.695
0,0.6301,-0.5045,0.3342,0.4863,-1.5,-2.4,-8.1,0.007,-0.029,-0.013,2018,4,24,22,52,25.712
0,0.6309,-0.5051,0.3329,0.4855,-1.5,-2.3,-9.2,0.005,-0.02,-0.019,2018,4,24,22,52,25.729
0,0.6317,-0.506,0.3318,0.4845,-1.6,-1.9,-9.6,0.006,-0.014,-0.019,2018,4,24,22,52,25.753
0,0.6325,-0.5067,0.3307,0.4834,-0.9,-1.7,-10,0.007,-0.008,-0.016,2018,4,24,22,52,25.768
0,0.6332,-0.5074,0.3297,0.4823,-1.3,-1,-10.5,0.004,0,-0.018,2018,4,24,22,52,25.786
0,0.634,-0.5081,0.3287,0.4813,-0.3,-0.6,-10.6,-0.001,0.008,-0.021,2018,4,24,22,52,25.809
0,0.6348,-0.5087,0.3278,0.4801,0,-0.1,-10.6,-0.002,0.012,-0.018,2018,4,24,22,52,25.827
0,0.6357,-0.5092,0.327,0.479,0.3,0.3,-10.5,-0.003,0.018,-0.012,2018,4,24,22,52,25.851
0,0.6364,-0.5098,0.3264,0.4778,0.8,0.9,-10,0.002,0.023,-0.01,2018,4,24,22,52,25.869
0,0.6372,-0.5102,0.326,0.4767,1.3,1.2,-9.2,0.001,0.025,-0.009,2018,4,24,22,52,25.893
0,0.6379,-0.5105,0.3256,0.4756,1.8,1,-8.5,0.003,0.03,-0.005,2018,4,24,22,52,25.91
0,0.6386,-0.5107,0.3254,0.4746,2,0.9,-7.7,0.003,0.034,-0.003,2018,4,24,22,52,25.934
0,0.6391,-0.5108,0.3253,0.4739,1.6,0.9,-6.1,0.001,0.042,-0.003,2018,4,24,22,52,25.948
0,0.6395,-0.5108,0.3253,0.4733,0.7,0.5,-4.4,-0.003,0.042,0,2018,4,24,22,52,25.97
0,0.6397,-0.5108,0.3254,0.4731,-0.3,0.3,-2.5,-0.005,0.042,0.002,2018,4,24,22,52,25.987
0,0.6396,-0.5107,0.3255,0.4732,-0.9,0.4,-0.5,-0.007,0.037,0.002,2018,4,24,22,52,26.011
0,0.6394,-0.5107,0.3257,0.4734,-0.7,0.3,0.8,-0.008,0.03,0.002,2018,4,24,22,52,26.048
0,0.639,-0.5106,0.326,0.4737,-0.3,0.2,1.9,-0.005,0.027,0.002,2018,4,24,22,52,26.072
0,0.6388,-0.5104,0.3264,0.4741,0.1,0.5,2.4,-0.004,0.022,0.002,2018,4,24,22,52,26.076
1023,0.6385,-0.5101,0.3268,0.4745,0.1,0.5,3,-0.002,0.018,0.003,2018,4,24,22,52,26.091
1023,0.6382,-0.5098,0.3274,0.4748,0.4,0.3,3.2,0.002,0.015,0.006,2018,4,24,22,52,26.114
1023,0.6379,-0.5095,0.3278,0.4752,0,0.1,3.5,0.009,0.017,-0.003,2018,4,24,22,52,26.15
1023,0.6376,-0.5092,0.3282,0.4757,-0.3,0,4,0.009,0.011,0.003,2018,4,24,22,52,26.173
1023,0.6372,-0.5089,0.3286,0.4763,-0.3,0,4.6,0.008,0.004,0.004,2018,4,24,22,52,26.177
1023,0.6368,-0.5086,0.329,0.4768,-0.2,0,5.1,0.01,0.002,0.007,2018,4,24,22,52,26.193
1023,0.6364,-0.5082,0.3295,0.4774,0,0.1,5.4,0.01,-0.002,0.007,2018,4,24,22,52,26.215
1023,0.6361,-0.5079,0.3299,0.4779,0.3,0.3,5.2,0.011,-0.006,0.011,2018,4,24,22,52,26.231
1023,0.6358,-0.5075,0.3304,0.4784,0.7,0.3,4.9,0.006,-0.006,0.013,2018,4,24,22,52,26.249
1023,0.6356,-0.5071,0.3308,0.4788,1.6,0.2,4.7,0,-0.013,0.021,2018,4,24,22,52,26.272
0,0.6355,-0.5065,0.3313,0.4792,1.7,0.3,4.7,-0.011,-0.014,0.022,2018,4,24,22,52,26.29
0,0.6354,-0.506,0.3317,0.4796,1.2,-0.3,4.3,-0.019,-0.017,0.02,2018,4,24,22,52,26.314
0,0.6353,-0.5056,0.332,0.4801,0.6,-0.9,3.3,-0.025,-0.019,0.021,2018,4,24,22,52,26.349
0,0.6353,-0.5052,0.332,0.4804,0.2,-1.8,2,-0.016,-0.014,0.016,2018,4,24,22,52,26.373
0,0.6354,-0.5049,0.3318,0.4807,-0.2,-2.6,0.2,0,-0.012,0.012,2018,4,24,22,52,26.377
0,0.6356,-0.5048,0.3313,0.4808,-0.9,-2.9,-1.7,0.011,-0.007,-0.001,2018,4,24,22,52,26.395
0,0.6359,-0.5049,0.3307,0.4808,-1,-3.1,-2.8,0.016,-0.002,-0.005,2018,4,24,22,52,26.433
0,0.6363,-0.5049,0.33,0.4807,-0.4,-2.9,-3.2,0.023,0.005,-0.017,2018,4,24,22,52,26.456
0,0.6366,-0.505,0.3296,0.4805,0,-2.3,-2.6,0.024,0.008,-0.019,2018,4,24,22,52,26.461
0,0.6369,-0.505,0.3294,0.4803,0.6,-1.2,-1.6,0.024,0.013,-0.024,2018,4,24,22,52,26.473
0,0.637,-0.505,0.3294,0.4801,1,0,0,0.023,0.007,-0.018,2018,4,24,22,52,26.511
0,0.6369,-0.5049,0.3299,0.48,2.1,1.4,1.9,0.018,0.001,-0.019,2018,4,24,22,52,26.511
0,0.6369,-0.5046,0.3306,0.4798,3.7,2.6,3,0.016,-0.001,-0.009,2018,4,24,22,52,26.534
0,0.6368,-0.5043,0.3316,0.4796,4.5,3.4,3.2,0.012,-0.002,0.003,2018,4,24,22,52,26.552
0,0.6368,-0.5039,0.3325,0.4793,4.5,3.7,2.7,0.006,-0.007,0.008,2018,4,24,22,52,26.574
0,0.6369,-0.5036,0.3334,0.4789,4.3,3.5,2.1,0.004,-0.013,0.015,2018,4,24,22,52,26.612
0,0.6371,-0.5032,0.3342,0.4786,4,3.2,1.2,0.002,-0.011,0.018,2018,4,24,22,52,26.636
0,0.6374,-0.5029,0.3347,0.4782,3.6,2.6,0.7,0.005,-0.012,0.021,2018,4,24,22,52,26.64
0,0.6377,-0.5025,0.3351,0.4779,2.9,1.8,0,0.002,-0.008,0.024,2018,4,24,22,52,26.654
0,0.638,-0.5023,0.3352,0.4776,2,0.8,-0.7,0.007,-0.006,0.016,2018,4,24,22,52,26.691
0,0.6384,-0.5021,0.3352,0.4773,1.5,0,-1.3,0.007,-0.009,0.015,2018,4,24,22,52,26.714
0,0.6388,-0.5019,0.3351,0.4771,1.5,-0.7,-1.8,0.005,-0.003,0.017,2018,4,24,22,52,26.719
0,0.6392,-0.5017,0.3348,0.4769,1.3,-1.1,-1.8,0.005,-0.004,0.015,2018,4,24,22,52,26.735
0,0.6396,-0.5015,0.3345,0.4767,0.9,-1.7,-2,0.007,-0.001,0.008,2018,4,24,22,52,26.773
0,0.64,-0.5014,0.3342,0.4766,0.4,-1.8,-2.1,0.002,-0.001,0.003,2018,4,24,22,52,26.794
0,0.6404,-0.5012,0.3338,0.4764,0.6,-2,-2.3,-0.001,-0.002,0.004,2018,4,24,22,52,26.798
0,0.6408,-0.5011,0.3335,0.4763,1.1,-1.9,-2.2,0.001,0,0,2018,4,24,22,52,26.815
0,0.6412,-0.501,0.3333,0.476,1.3,-1.6,-2.2,0.006,0.002,0.002,2018,4,24,22,52,26.839
1023,0.6416,-0.5008,0.333,0.4758,1.4,-1.5,-2.2,0.009,0.005,-0.008,2018,4,24,22,52,26.856
1023,0.642,-0.5006,0.3329,0.4756,1.7,-1,-2.1,0.013,0.006,-0.004,2018,4,24,22,52,26.879
1023,0.6424,-0.5004,0.3327,0.4754,2.1,-1,-1.6,0.01,0.006,-0.002,2018,4,24,22,52,26.896
1023,0.6428,-0.5001,0.3326,0.4753,1.9,-0.8,-1.1,0.008,0.005,-0.008,2018,4,24,22,52,26.931
1023,0.6431,-0.4999,0.3327,0.4751,1.4,-0.6,-0.8,0.006,0.005,-0.007,2018,4,24,22,52,26.955
1023,0.6433,-0.4997,0.3327,0.4749,1.2,-0.5,-0.8,0,0.001,-0.003,2018,4,24,22,52,26.959
1023,0.6436,-0.4996,0.3326,0.4748,1.3,-0.6,-1,0.003,0,-0.003,2018,4,24,22,52,26.977
1023,0.6438,-0.4994,0.3326,0.4746,1.6,-0.3,-1.4,0,0,-0.005,2018,4,24,22,52,26.996
1023,0.6441,-0.4993,0.3326,0.4743,1.9,-0.1,-1.7,0.001,0,-0.006,2018,4,24,22,52,27.02
1023,0.6445,-0.4992,0.3325,0.474,2,-0.1,-2,0.001,0.001,-0.005,2018,4,24,22,52,27.053
1023,0.6449,-0.499,0.3325,0.4737,1.9,-0.1,-1.9,0.003,0.004,0.003,2018,4,24,22,52,27.077
0,0.6452,-0.4989,0.3325,0.4734,1.2,-0.3,-1.7,0.004,0.008,-0.005,2018,4,24,22,52,27.081
0,0.6454,-0.4988,0.3324,0.4732,1.2,-0.3,-1.7,0.008,0.001,-0.006,2018,4,24,22,52,27.099
0,0.6458,-0.4987,0.3323,0.473,2,0,-1.6,0.007,0.002,-0.008,2018,4,24,22,52,27.122
0,0.6461,-0.4985,0.3324,0.4727,2.1,-0.1,-1.3,0.005,0.006,-0.007,2018,4,24,22,52,27.156
0,0.6464,-0.4983,0.3324,0.4725,1.9,0,-1.1,0.006,0.008,-0.004,2018,4,24,22,52,27.156
0,0.6466,-0.4981,0.3325,0.4723,1.5,0,-0.9,0.004,0.004,-0.003,2018,4,24,22,52,27.179
0,0.6468,-0.498,0.3325,0.4722,1.4,0,-0.9,0.001,0.007,-0.004,2018,4,24,22,52,27.197
0,0.6469,-0.4979,0.3326,0.472,1,0,-0.9,0.003,0.004,-0.007,2018,4,24,22,52,27.22
0,0.6471,-0.4979,0.3326,0.4718,0.2,0.2,-1.1,0.002,0,-0.004,2018,4,24,22,52,27.24
0,0.6472,-0.4979,0.3324,0.4717,0.1,0.3,-1.1,0,0,-0.012,2018,4,24,22,52,27.277
0,0.6472,-0.498,0.3324,0.4716,0.8,0.7,-0.9,-0.004,0,-0.004,2018,4,24,22,52,27.299
0,0.6473,-0.4979,0.3326,0.4714,1.4,0.9,-0.5,0,0.002,0.002,2018,4,24,22,52,27.304
0,0.6475,-0.4978,0.3327,0.4713,1.1,0.9,-0.5,0.002,0.004,0.004,2018,4,24,22,52,27.323
0,0.6476,-0.4977,0.3328,0.4711,0.8,0.6,-0.8,0.008,0.005,0,2018,4,24,22,52,27.344
0,0.6478,-0.4977,0.3328,0.471,0.6,0.3,-1.1,0.004,0.005,-0.001,2018,4,24,22,52,27.359
0,0.6479,-0.4976,0.3328,0.4708,0.9,0,-1,0.005,0.009,0.003,2018,4,24,22,52,27.382
0,0.648,-0.4975,0.3328,0.4707,0.1,-0.1,-0.6,0.001,0.008,0,2018,4,24,22,52,27.402
0,0.648,-0.4974,0.3328,0.4708,-0.7,-0.3,-0.1,-0.001,0.012,-0.004,2018,4,24,22,52,27.418
0,0.6479,-0.4975,0.3328,0.4709,-0.9,-0.3,0.1,0,0.01,-0.005,2018,4,24,22,52,27.44
0,0.6479,-0.4975,0.3327,0.4711,0,0,0,0,0.008,-0.006,2018,4,24,22,52,27.475
0,0.6478,-0.4975,0.3328,0.4711,0,0,0,0,0.007,-0.01,2018,4,24,22,52,27.499
0,0.6477,-0.4975,0.333,0.4711,0,0.4,0.7,0.005,0.008,-0.006,2018,4,24,22,52,27.503
0,0.6476,-0.4975,0.3332,0.4711,0.1,1,0.9,0.008,0.006,-0.005,2018,4,24,22,52,27.52
0,0.6474,-0.4974,0.3334,0.4712,0.1,1.1,1.3,0.007,0.007,-0.007,2018,4,24,22,52,27.542
0,0.6472,-0.4974,0.3338,0.4713,0.1,1,1.7,0.005,0.006,-0.003,2018,4,24,22,52,27.56
0,0.647,-0.4974,0.3341,0.4714,0,1.1,1.9,0.005,0.004,-0.009,2018,4,24,22,52,27.581
0,0.6467,-0.4974,0.3344,0.4715,-0.7,0.9,1.7,0,0,0.002,2018,4,24,22,52,27.6
0,0.6464,-0.4976,0.3346,0.4716,-1,0.9,1.6,0.004,-0.001,-0.006,2018,4,24,22,52,27.618
0,0.6462,-0.4976,0.3347,0.4718,-0.8,0.9,1.4,0.004,-0.004,-0.005,2018,4,24,22,52,27.638
0,0.646,-0.4977,0.3348,0.4719,-0.3,0.9,1.2,0,-0.004,-0.002,2018,4,24,22,52,27.675
1023,0.6458,-0.4978,0.335,0.4719,-0.4,0.7,1,0,-0.002,0,2018,4,24,22,52,27.698
1023,0.6457,-0.4979,0.3351,0.4719,-0.6,1,0.8,0.006,-0.001,-0.002,2018,4,24,22,52,27.704
1023,0.6455,-0.498,0.3352,0.472,-0.7,0.9,0.9,0.008,-0.004,0,2018,4,24,22,52,27.722
1023,0.6454,-0.498,0.3352,0.4721,-0.4,0.7,0.8,0.003,-0.004,0.005,2018,4,24,22,52,27.743
1023,0.6453,-0.4981,0.3353,0.4721,-0.3,0.5,0.6,0.003,-0.003,0.003,2018,4,24,22,52,27.763
1023,0.6453,-0.4981,0.3353,0.4722,0,0,0,0.003,-0.002,0.006,2018,4,24,22,52,27.786
1023,0.6452,-0.498,0.3352,0.4723,-0.8,0,0.5,0.005,0,0.005,2018,4,24,22,52,27.804
1023,0.6452,-0.4981,0.3351,0.4724,-0.8,-0.3,0.4,0.004,-0.001,0.006,2018,4,24,22,52,27.823
1023,0.6451,-0.4981,0.335,0.4725,-0.7,-0.4,0.4,0.007,-0.002,0.003,2018,4,24,22,52,27.847
1023,0.6451,-0.4981,0.3349,0.4726,-0.9,-0.6,0.2,0.004,-0.006,-0.001,2018,4,24,22,52,27.863
1023,0.6451,-0.4981,0.3347,0.4727,-0.6,-0.8,0,0.004,-0.005,-0.002,2018,4,24,22,52,27.882
0,0.6451,-0.4981,0.3346,0.4728,-0.3,-0.8,0,0.006,-0.005,-0.001,2018,4,24,22,52,27.905
0,0.6452,-0.4981,0.3344,0.4729,-0.2,-0.6,0,0.006,-0.003,-0.004,2018,4,24,22,52,27.924
0,0.6452,-0.4982,0.3343,0.4729,-0.4,-0.7,-0.2,0.002,-0.002,-0.004,2018,4,24,22,52,27.941
0,0.6452,-0.4982,0.3342,0.4729,-0.3,-0.5,-0.4,0.003,-0.002,-0.006,2018,4,24,22,52,27.965
0,0.6452,-0.4982,0.334,0.473,-0.5,-0.7,-0.6,0.006,0.002,-0.008,2018,4,24,22,52,28.002
0,0.6452,-0.4984,0.3339,0.4729,-1.4,-0.7,-1.1,0.007,0.004,-0.006,2018,4,24,22,52,28.025
0,0.6452,-0.4987,0.3335,0.4729,-2.1,-0.6,-1.3,0.004,0,-0.01,2018,4,24,22,52,28.03
0,0.6451,-0.499,0.3333,0.4729,-1.7,-0.4,-1.2,0.006,0.004,-0.013,2018,4,24,22,52,28.044
0,0.6451,-0.4991,0.333,0.4729,-0.8,0,-0.6,0.004,0.006,-0.009,2018,4,24,22,52,28.066
0,0.645,-0.4993,0.333,0.4729,-0.9,0.1,-0.4,0.004,0.006,-0.004,2018,4,24,22,52,28.083
0,0.6449,-0.4994,0.3329,0.4729,-0.9,0.3,-0.2,0.004,0.006,-0.007,2018,4,24,22,52,28.099
0,0.6448,-0.4996,0.3329,0.4729,-1,0.4,-0.3,0.004,0.002,-0.005,2018,4,24,22,52,28.125
0,0.6447,-0.4997,0.3328,0.4729,-0.8,0.4,-0.3,0.002,0.004,0.004,2018,4,24,22,52,28.143
0,0.6446,-0.4998,0.3327,0.473,-1.2,0.6,-0.3,0.002,0.004,0.002,2018,4,24,22,52,28.166
0,0.6445,-0.5,0.3326,0.473,-1.2,0.3,-0.2,0,0.004,0,2018,4,24,22,52,28.202
0,0.6444,-0.5001,0.3326,0.473,-1,0.3,0,0.002,0.004,0,2018,4,24,22,52,28.225
0,0.6443,-0.5003,0.3325,0.4731,-1.2,0.2,-0.2,0.001,0.004,0.002,2018,4,24,22,52,28.23
0,0.6442,-0.5004,0.3324,0.4732,-1.6,0,0,0.003,0.003,0,2018,4,24,22,52,28.248
0,0.6441,-0.5005,0.3322,0.4733,-1.6,0,0,0.003,0.003,0,2018,4,24,22,52,28.267
0,0.644,-0.5007,0.332,0.4735,-1.7,-0.1,0,0.005,0.005,-0.002,2018,4,24,22,52,28.303
0,0.6439,-0.5008,0.3318,0.4736,-1.5,-0.1,-0.2,0.004,0.006,-0.004,2018,4,24,22,52,28.318
0,0.6437,-0.501,0.3317,0.4737,-1.5,-0.2,0,0.002,0.003,-0.002,2018,4,24,22,52,28.347
0,0.6436,-0.5011,0.3316,0.4738,-1.2,-0.1,0.1,0,0.001,-0.007,2018,4,24,22,52,28.349
0,0.6435,-0.5013,0.3314,0.474,-1.3,0,0,0,0.005,-0.006,2018,4,24,22,52,28.362
0,0.6433,-0.5014,0.3313,0.4741,-1.5,-0.1,0,0.002,0.004,-0.007,2018,4,24,22,52,28.398
0,0.6431,-0.5016,0.3312,0.4742,-1.6,0.1,-0.2,0.004,0.003,-0.012,2018,4,24,22,52,28.42
0,0.643,-0.5018,0.3311,0.4742,-1.4,0.2,0,0.008,0.003,-0.01,2018,4,24,22,52,28.427
0,0.6428,-0.5021,0.3311,0.4742,-1.2,0.5,0,0.006,0.003,-0.007,2018,4,24,22,52,28.445
0,0.6426,-0.5022,0.3311,0.4743,-1.2,0.5,0.1,0.003,0.004,-0.009,2018,4,24,22,52,28.465
0,0.6424,-0.5025,0.3312,0.4742,-1.5,0.6,0.1,0.002,0.001,-0.009,2018,4,24,22,52,28.501
1023,0.6422,-0.5028,0.3313,0.4742,-1.5,1.1,0.3,-0.001,0,-0.001,2018,4,24,22,52,28.523
1023,0.642,-0.503,0.3313,0.4743,-1,0.9,0.2,0,0.003,0,2018,4,24,22,52,28.526
1023,0.6418,-0.5032,0.3313,0.4743,-1,0.7,0,0,0.002,0,2018,4,24,22,52,28.563
1023,0.6417,-0.5034,0.3313,0.4743,-1.7,0.5,-0.3,-0.001,0.003,0.009,2018,4,24,22,52,28.585
1023,0.6415,-0.5036,0.3312,0.4742,-1.5,0.2,-0.6,0,0.003,0.005,2018,4,24,22,52,28.588
1023,0.6415,-0.5038,0.3311,0.4743,-1.7,0.1,-0.3,0.004,0.007,0.008,2018,4,24,22,52,28.625
1023,0.6414,-0.5039,0.3309,0.4744,-1.5,0,-0.1,0.007,0.009,0.007,2018,4,24,22,52,28.646
1023,0.6413,-0.5039,0.3308,0.4746,-1.2,-0.3,0,0.006,0.006,0.006,2018,4,24,22,52,28.648
1023,0.6412,-0.5039,0.3306,0.4747,-0.8,-0.4,0.4,0.006,0.003,0.005,2018,4,24,22,52,28.666
1023,0.6412,-0.5039,0.3305,0.4749,-0.3,-0.6,0.5,0.003,0.007,0.004,2018,4,24,22,52,28.686
0,0.6412,-0.5038,0.3305,0.475,-0.4,-0.6,0.7,0.003,0.003,0.005,2018,4,24,22,52,28.723
0,0.6411,-0.5037,0.3304,0.4752,-0.7,-0.7,0.5,-0.003,-0.001,0.003,2018,4,24,22,52,28.743
0,0.6411,-0.5037,0.3303,0.4754,-0.3,-0.7,0.4,0.001,-0.003,0.004,2018,4,24,22,52,28.749
0,0.6412,-0.5036,0.3302,0.4755,0,-1,0,0.001,-0.005,0.006,2018,4,24,22,52,28.785
0,0.6412,-0.5036,0.3301,0.4755,-0.3,-1,-0.4,0.002,-0.003,-0.001,2018,4,24,22,52,28.785
0,0.6413,-0.5036,0.3299,0.4755,-0.5,-1.2,-0.7,0.002,0,0,2018,4,24,22,52,28.805
0,0.6414,-0.5036,0.3297,0.4755,-0.1,-1.2,-0.7,0.002,-0.001,-0.001,2018,4,24,22,52,28.842
0,0.6415,-0.5036,0.3295,0.4755,0,-1.2,-0.6,0.005,0.003,-0.004,2018,4,24,22,52,28.862
0,0.6416,-0.5035,0.3293,0.4756,-0.3,-1.1,-0.6,0.005,0.003,-0.004,2018,4,24,22,52,28.868
0,0.6417,-0.5035,0.3291,0.4756,-0.4,-0.9,-0.6,0.005,0.002,-0.004,2018,4,24,22,52,28.905
0,0.6418,-0.5035,0.3289,0.4756,-0.1,-1,-0.8,0.005,0.003,-0.009,2018,4,24,22,52,28.925
0,0.6419,-0.5035,0.3287,0.4757,0.2,-0.7,-0.6,0.001,0.006,0,2018,4,24,22,52,28.928
0,0.642,-0.5034,0.3287,0.4756,0.3,-0.6,-0.5,0,0.008,-0.002,2018,4,24,22,52,28.964
0,0.642,-0.5034,0.3287,0.4756,0,0,0,0.002,0.009,-0.003,2018,4,24,22,52,28.985
0,0.642,-0.5033,0.3288,0.4757,0,0,0,0.004,0.01,-0.002,2018,4,24,22,52,28.989
0,0.642,-0.5033,0.3288,0.4757,0,0,0,0.002,0.004,0,2018,4,24,22,52,29.006
0,0.642,-0.5032,0.3288,0.4757,0.6,-0.1,0,0.003,0.005,0.001,2018,4,24,22,52,29.026
0,0.642,-0.5031,0.3289,0.4758,0.8,0,0.3,0.001,0.007,0.003,2018,4,24,22,52,29.063
0,0.642,-0.5029,0.3291,0.4758,0,0,0,0,0.009,0.005,2018,4,24,22,52,29.085
0,0.642,-0.5028,0.3291,0.4758,-0.1,-0.6,0.5,0.002,0.008,0.006,2018,4,24,22,52,29.088
0,0.642,-0.5027,0.329,0.4761,-0.4,-0.9,0.5,0.001,0.005,0.001,2018,4,24,22,52,29.124
0,0.642,-0.5026,0.329,0.4762,-0.4,-0.9,0.3,0.005,0.007,0.001,2018,4,24,22,52,29.146
0,0.642,-0.5025,0.3289,0.4765,-0.2,-0.9,0.8,0.005,0.006,-0.001,2018,4,24,22,52,29.149
0,0.642,-0.5022,0.3288,0.4767,0.4,-0.7,1.2,0.003,0.003,0,2018,4,24,22,52,29.183
0,0.642,-0.5021,0.329,0.4768,0.8,-0.7,1.3,0.011,0.002,-0.001,2018,4,24,22,52,29.206
0,0.642,-0.5018,0.3291,0.477,0.9,-0.7,1.3,0.009,0.001,-0.001,2018,4,24,22,52,29.207
0,0.642,-0.5016,0.3292,0.4771,0.6,-1,1.4,0.008,0,0,2018,4,24,22,52,29.243
0,0.642,-0.5014,0.3293,0.4773,0,-0.9,1.2,0.007,-0.005,0.002,2018,4,24,22,52,29.267
0,0.642,-0.5013,0.3292,0.4774,0.1,-1,1,0.007,-0.006,-0.006,2018,4,24,22,52,29.272
1023,0.642,-0.5013,0.3292,0.4775,0,-1.2,0.6,0.008,-0.004,-0.009,2018,4,24,22,52,29.307
1023,0.642,-0.5013,0.3292,0.4774,-0.1,-0.7,0.1,0.01,-0.009,-0.002,2018,4,24,22,52,29.33
1023,0.6421,-0.5014,0.3291,0.4774,0,0,0,0.005,-0.009,-0.006,2018,4,24,22,52,29.332
1023,0.6421,-0.5014,0.3291,0.4772,0.5,-0.4,-0.5,0.008,-0.006,-0.004,2018,4,24,22,52,29.352
1023,0.6423,-0.5014,0.329,0.4771,0.3,-0.3,-1.1,0.005,-0.004,-0.003,2018,4,24,22,52,29.375
1023,0.6424,-0.5015,0.3288,0.477,0.1,-0.4,-1.2,0.003,-0.002,0,2018,4,24,22,52,29.394
1023,0.6426,-0.5014,0.3285,0.4769,-0.1,-0.6,-1.2,0.007,-0.001,-0.002,2018,4,24,22,52,29.414
1023,0.6428,-0.5014,0.3284,0.4768,0,-0.4,-0.9,0.003,0.005,0.002,2018,4,24,22,52,29.432
1023,0.6429,-0.5014,0.3282,0.4768,-0.3,-0.7,-0.9,0.004,0.006,-0.001,2018,4,24,22,52,29.456
1023,0.643,-0.5015,0.328,0.4768,-0.2,-0.7,-1.1,0.001,0.004,0.004,2018,4,24,22,52,29.492
0,0.6431,-0.5015,0.3279,0.4767,0,-0.7,-1,0.007,0.003,-0.004,2018,4,24,22,52,29.492
0,0.6433,-0.5014,0.3278,0.4766,0.3,-0.5,-0.5,0.007,0.006,0,2018,4,24,22,52,29.515
0,0.6434,-0.5013,0.3279,0.4766,0.7,-0.4,-0.1,0.005,0.007,0.006,2018,4,24,22,52,29.532
0,0.6434,-0.5012,0.3279,0.4765,0.6,-0.3,0.1,0.004,0.006,-0.002,2018,4,24,22,52,29.553
0,0.6435,-0.5011,0.328,0.4765,0.7,-0.3,0.1,0.003,0.006,0.003,2018,4,24,22,52,29.59
0,0.6435,-0.501,0.328,0.4765,0.3,-0.7,0.1,0.005,0.008,0.001,2018,4,24,22,52,29.613
0,0.6436,-0.5009,0.328,0.4766,0,0,0,0.003,0.006,0.001,2018,4,24,22,52,29.618
0,0.6436,-0.5009,0.328,0.4766,0,0,0,0.002,0.005,0.002,2018,4,24,22,52,29.636
0,0.6436,-0.5008,0.328,0.4767,0,0,0,0.003,0.004,0,2018,4,24,22,52,29.672
0,0.6436,-0.5008,0.328,0.4767,0.3,-0.1,0.5,0.004,0.003,-0.001,2018,4,24,22,52,29.695
0,0.6436,-0.5006,0.3281,0.4768,-0.1,-0.1,0.8,0.001,0.003,0,2018,4,24,22,52,29.7
0,0.6435,-0.5006,0.3282,0.4769,-0.1,-0.1,0.7,0.004,0.001,0.004,2018,4,24,22,52,29.713
0,0.6435,-0.5006,0.3282,0.4769,0,0,0,0.003,0,0.003,2018,4,24,22,52,29.751
0,0.6435,-0.5005,0.3282,0.4769,0,0,0,0.006,0,0.003,2018,4,24,22,52,29.772
0,0.6436,-0.5004,0.3282,0.477,0.6,0,0.4,0.007,0.001,0.004,2018,4,24,22,52,29.777
0,0.6436,-0.5003,0.3283,0.477,0.6,0,0.5,0.008,0.003,0.002,2018,4,24,22,52,29.795
0,0.6437,-0.5001,0.3283,0.4771,0.7,0,0.7,0.006,0,0.003,2018,4,24,22,52,29.816
0,0.6437,-0.5,0.3284,0.4771,0.5,-0.1,0.5,0.006,-0.002,0.004,2018,4,24,22,52,29.851
0,0.6437,-0.4999,0.3285,0.4771,0.6,-0.1,0.5,0.004,-0.002,0.003,2018,4,24,22,52,29.874
0,0.6438,-0.4998,0.3286,0.477,0.6,-0.1,0.4,0.007,0,0.006,2018,4,24,22,52,29.879
0,0.6438,-0.4997,0.3286,0.4771,0.5,-0.1,0.1,0.007,0.001,0.003,2018,4,24,22,52,29.895
0,0.6439,-0.4997,0.3286,0.477,0,0,0,0.007,-0.002,0.005,2018,4,24,22,52,29.918
0,0.644,-0.4997,0.3285,0.477,0,0,0,0.01,-0.002,0.001,2018,4,24,22,52,29.935
0,0.644,-0.4997,0.3284,0.477,0,0,0,0.004,-0.004,0,2018,4,24,22,52,29.952
0,0.644,-0.4996,0.3284,0.477,0,0,0,0.008,-0.002,0.004,2018,4,24,22,52,29.975
0,0.6441,-0.4996,0.3283,0.477,0,0,0,0.009,-0.001,0,2018,4,24,22,52,29.993
0,0.6442,-0.4996,0.3283,0.477,0.2,-0.2,-0.5,0.009,0,0,2018,4,24,22,52,30.014
0,0.6443,-0.4996,0.3282,0.4768,0.1,-0.3,-0.6,0.007,0,0,2018,4,24,22,52,30.051
0,0.6444,-0.4996,0.3282,0.4768,-0.4,-0.5,-0.5,0.006,0,0,2018,4,24,22,52,30.074
0,0.6444,-0.4996,0.328,0.4767,-0.5,-0.3,-0.4,0.005,0,-0.004,2018,4,24,22,52,30.079
1023,0.6445,-0.4996,0.328,0.4768,0,0,0,0.003,-0.002,0.005,2018,4,24,22,52,30.116
1023,0.6446,-0.4995,0.3277,0.4769,-2.9,-0.7,-0.9,0,0.006,0.054,2018,4,24,22,52,30.116
1023,0.6441,-0.5005,0.3261,0.4776,-24,-9.1,-4.5,-0.059,0.093,0.357,2018,4,24,22,52,30.139
1023,0.6412,-0.5052,0.3182,0.4819,-90.4,-38.1,-10.5,-0.097,0.269,0.509,2018,4,24,22,52,30.155
1023,0.6338,-0.5156,0.3002,0.492,-153.8,-69,-17.1,-0.153,0.077,0.593,2018,4,24,22,52,30.192
1023,0.6244,-0.5287,0.2728,0.5059,-200.6,-111.2,-36.6,-0.199,-0.134,0.858,2018,4,24,22,52,30.192
1023,0.6121,-0.5445,0.2329,0.5238,-279.2,-154.7,-53.6,-0.188,-0.007,1.023,2018,4,24,22,52,30.216
1023,0.5932,-0.5647,0.1784,0.5452,-355.4,-186.3,-76.7,-0.118,-0.184,0.996,2018,4,24,22,52,30.253
1023,0.5692,-0.5861,0.1128,0.5653,-388.4,-204.9,-102,-0.238,-0.334,0.73,2018,4,24,22,52,30.274
1023,0.5431,-0.6046,0.0414,0.5811,-391,-210.4,-128.4,-0.227,-0.451,0.378,2018,4,24,22,52,30.278
0,0.5165,-0.6192,-0.033,0.5904,-384.5,-207.2,-154.9,-0.253,-0.471,0.197,2018,4,24,22,52,30.296
0,0.4906,-0.6294,-0.1087,0.5925,-369.5,-195.2,-178.1,-0.232,-0.416,-0.049,2018,4,24,22,52,30.32
0,0.4658,-0.6357,-0.1813,0.5881,-343.7,-169.9,-191.9,-0.22,-0.339,-0.387,2018,4,24,22,52,30.338
0,0.4452,-0.6381,-0.2467,0.5775,-282.9,-127.9,-195.9,-0.196,-0.317,-0.566,2018,4,24,22,52,30.361
0,0.4323,-0.6371,-0.302,0.562,-216.2,-86.3,-204.9,-0.33,-0.29,-0.567,2018,4,24,22,52,30.38
0,0.4287,-0.6326,-0.3478,0.543,-154,-43.7,-214.7,-0.403,-0.084,-0.673,2018,4,24,22,52,30.402
0,0.4342,-0.626,-0.3851,0.5207,-100.7,1,-224.4,-0.475,0.024,-0.816,2018,4,24,22,52,30.418
0,0.4478,-0.6182,-0.4148,0.4951,-56.7,45.4,-229.5,-0.566,0.069,-0.843,2018,4,24,22,52,30.436
0,0.4678,-0.6097,-0.4376,0.4667,-23.6,82.2,-231.3,-0.648,0.173,-0.804,2018,4,24,22,52,30.459
0,0.4913,-0.601,-0.4553,0.4358,-22.1,107.5,-227,-0.611,0.386,-0.875,2018,4,24,22,52,30.477
0,0.5132,-0.5954,-0.4707,0.4005,-60.7,133.4,-216.6,-0.605,0.485,-1.053,2018,4,24,22,52,30.5
0,0.5313,-0.5955,-0.4837,0.359,-91.2,169.6,-197.2,-0.617,0.425,-1.043,2018,4,24,22,52,30.522
0,0.549,-0.5994,-0.4903,0.3143,-84.8,206,-171.1,-0.61,0.463,-0.913,2018,4,24,22,52,30.539
0,0.5672,-0.6055,-0.4891,0.2686,-85,236.5,-140.5,-0.597,0.54,-0.885,2018,4,24,22,52,30.562
0,0.5835,-0.6156,-0.481,0.2214,-110,264.9,-105.3,-0.578,0.565,-0.875,2018,4,24,22,52,30.581
0,0.5954,-0.6316,-0.4657,0.1719,-149.4,290.3,-61,-0.563,0.529,-0.793,2018,4,24,22,52,30.604
0,0.6019,-0.6538,-0.442,0.121,-178.2,315.9,-11.6,-0.555,0.322,-0.859,2018,4,24,22,52,30.618
0,0.6042,-0.6805,-0.4087,0.0691,-202.5,349.9,31.2,-0.66,-0.022,-0.749,2018,4,24,22,52,30.656
0,0.6025,-0.7086,-0.3667,0.0157,-231.4,362.9,51.1,-0.968,-0.462,0.135,2018,4,24,22,52,30.656
0,0.591,-0.7379,-0.3235,-0.0376,-271.7,331.6,55.2,-0.929,-0.592,0.311,2018,4,24,22,52,30.679
0,0.5763,-0.7623,-0.2807,-0.0887,-202.1,325.6,39.9,-0.969,-1.004,0.374,2018,4,24,22,52,30.697
0,0.5645,-0.7774,-0.2523,-0.1147,-181.2,116.5,57.9,-1.958,-4.272,-1.913,2018,4,24,22,52,30.721
0,0.5348,-0.7994,-0.2443,-0.1225,-183.8,-14.3,16.5,-0.76,-1.204,0.977,2018,4,24,22,52,30.739
0,0.5335,-0.8038,-0.2378,-0.1122,184.9,-43.1,78.3,-0.347,-0.06,0.517,2018,4,24,22,52,30.762
0,0.5569,-0.7911,-0.2352,-0.0923,142.2,-53.3,52.5,-1.039,-0.271,1.461,2018,4,24,22,52,30.781
0,0.577,-0.7772,-0.2405,-0.0706,187,-101,25.8,-0.558,-0.007,1.076,2018,4,24,22,52,30.803
0,0.5972,-0.7611,-0.2489,-0.0442,169.1,-117.4,51.9,-0.383,0.46,0.284,2018,4,24,22,52,30.82
0,0.6146,-0.7466,-0.254,-0.0136,173.9,-124.5,79.6,-0.303,0.447,0.074,2018,4,24,22,52,30.843
1023,0.631,-0.7322,-0.2553,0.0199,161.7,-119.9,103.5,-0.309,0.443,-0.141,2018,4,24,22,52,30.86
1023,0.6438,-0.7202,-0.2524,0.0539,134.4,-109,129,-0.304,0.447,-0.153,2018,4,24,22,52,30.878
1023,0.6536,-0.7106,-0.2446,0.0886,128,-99.2,155.6,-0.312,0.364,-0.107,2018,4,24,22,52,30.902
1023,0.6627,-0.7006,-0.2327,0.1251,132.3,-93.4,174.9,-0.339,0.328,-0.119,2018,4,24,22,52,30.919
1023,0.6686,-0.6921,-0.2185,0.1612,89.6,-82.9,180.7,-0.416,0.338,-0.295,2018,4,24,22,52,30.942
1023,0.6673,-0.6897,-0.2034,0.1938,38.5,-68,186.6,-0.284,0.238,-0.403,2018,4,24,22,52,30.96
1023,0.6627,-0.6898,-0.186,0.2242,42.8,-50.9,193,-0.268,0.101,-0.319,2018,4,24,22,52,30.983
1023,0.6608,-0.6867,-0.1647,0.254,86.5,-36,199.8,-0.302,0.046,-0.171,2018,4,24,22,52,31.002
1023,0.6633,-0.678,-0.1389,0.2843,119.4,-30.7,208.1,-0.275,0.06,-0.162,2018,4,24,22,52,31.025
1023,0.6643,-0.6688,-0.1117,0.3143,88.9,-21.5,214.8,-0.291,0.107,-0.29,2018,4,24,22,52,31.044
0,0.6587,-0.6644,-0.0839,0.3426,44.3,-7.8,227.6,-0.344,-0.041,-0.236,2018,4,24,22,52,31.062
0,0.6491,-0.6622,-0.0548,0.3701,50.9,-1.2,235.4,-0.39,-0.205,-0.053,2018,4,24,22,52,31.086
0,0.6417,-0.6551,-0.0218,0.3981,105.6,-3,241,-0.371,-0.223,0.074,2018,4,24,22,52,31.122
0,0.6381,-0.6408,0.0148,0.4264,132.7,-5.7,243.1,-0.328,-0.229,-0.102,2018,4,24,22,52,31.122
0,0.6331,-0.6258,0.051,0.4525,107.9,7.5,242.2,-0.311,-0.24,-0.23,2018,4,24,22,52,31.145
0,0.6232,-0.6143,0.0861,0.4762,78.2,20.9,240.1,-0.342,-0.364,-0.084,2018,4,24,22,52,31.163
0,0.6112,-0.6041,0.12,0.4969,85.6,26.7,226.2,-0.352,-0.447,0.049,2018,4,24,22,52,31.181
0,0.6021,-0.5915,0.1538,0.5136,116.7,32.8,205.8,-0.287,-0.469,0.079,2018,4,24,22,52,31.203
0,0.5977,-0.5746,0.19,0.5257,159.8,43.4,183.2,-0.223,-0.472,0.044,2018,4,24,22,52,31.241
0,0.5977,-0.5549,0.228,0.5317,187.2,56.8,152.9,-0.187,-0.493,0.044,2018,4,24,22,52,31.264
0,0.6007,-0.5346,0.2657,0.5315,194.2,67.3,123.3,-0.127,-0.339,0.072,2018,4,24,22,52,31.269
0,0.6044,-0.5164,0.3004,0.5268,175.7,72.8,96.9,-0.102,-0.202,0.145,2018,4,24,22,52,31.287
0,0.607,-0.5021,0.3296,0.5202,139.8,67.5,69.7,-0.183,-0.254,0.253,2018,4,24,22,52,31.305
0,0.6082,-0.4914,0.3523,0.514,96.9,57.8,53.3,-0.092,-0.156,0.286,2018,4,24,22,52,31.328
0,0.6069,-0.4856,0.368,0.5102,47,45.3,41.2,-0.041,-0.173,0.265,2018,4,24,22,52,31.345
0,0.6028,-0.4849,0.3768,0.5093,-3.6,34.1,28.4,0.008,-0.196,0.24,2018,4,24,22,52,31.362
0,0.5971,-0.4884,0.3796,0.5106,-34.3,23.8,14.7,0.038,-0.245,0.2,2018,4,24,22,52,31.386
0,0.5912,-0.494,0.3786,0.5128,-48.2,17.4,5.7,0.06,-0.248,0.159,2018,4,24,22,52,31.402
0,0.586,-0.5001,0.3759,0.5148,-43.9,12.2,-3.6,0.041,-0.279,0.152,2018,4,24,22,52,31.425
0,0.5828,-0.5053,0.373,0.5155,-30.6,8.7,-11.2,0.023,-0.264,0.155,2018,4,24,22,52,31.444
0,0.5816,-0.5092,0.3704,0.5149,-16.6,5.8,-16.3,0.022,-0.234,0.151,2018,4,24,22,52,31.467
0,0.582,-0.5118,0.3682,0.5134,-5.5,3.1,-19.6,0.017,-0.209,0.153,2018,4,24,22,52,31.484
0,0.5835,-0.5136,0.3662,0.5113,-1,0.1,-22.1,0.021,-0.174,0.144,2018,4,24,22,52,31.508
0,0.5856,-0.515,0.3639,0.5092,-0.7,-2.6,-24.1,0.023,-0.155,0.134,2018,4,24,22,52,31.544
0,0.588,-0.5163,0.3611,0.5071,-1.8,-5.2,-25.8,0.021,-0.131,0.12,2018,4,24,22,52,31.544
1023,0.5906,-0.5176,0.3578,0.505,-1.6,-7.2,-27.5,0.018,-0.119,0.101,2018,4,24,22,52,31.567
1023,0.5941,-0.5187,0.3537,0.5027,0,-9.2,-29.5,0.017,-0.112,0.084,2018,4,24,22,52,31.585
1023,0.5983,-0.5194,0.3491,0.5001,3.2,-10.2,-31.3,0.008,-0.096,0.073,2018,4,24,22,52,31.603
1023,0.6028,-0.5199,0.3447,0.4973,6.4,-11.2,-33.4,-0.001,-0.077,0.061,2018,4,24,22,52,31.626
1023,0.6077,-0.52,0.3405,0.4941,9.2,-12,-35.2,-0.014,-0.063,0.053,2018,4,24,22,52,31.645
1023,0.6128,-0.5199,0.3364,0.4907,11.6,-12.8,-37,-0.027,-0.042,0.041,2018,4,24,22,52,31.668
1023,0.6181,-0.5196,0.3326,0.487,13.2,-13.2,-38.7,-0.03,-0.023,0.024,2018,4,24,22,52,31.686
1023,0.6236,-0.5191,0.3287,0.4831,14.3,-13.5,-40.2,-0.037,-0.002,0.02,2018,4,24,22,52,31.709
1023,0.6291,-0.5186,0.325,0.4791,14.9,-13.5,-41.3,-0.041,0.013,0.004,2018,4,24,22,52,31.727
0,0.6345,-0.518,0.3213,0.4749,15.3,-13.1,-41.8,-0.036,0.031,-0.011,2018,4,24,22,52,31.75
0,0.6398,-0.5175,0.3179,0.4708,14.8,-12.6,-41.4,-0.039,0.052,-0.015,2018,4,24,22,52,31.769
0,0.6448,-0.5169,0.3146,0.4667,14.9,-12.1,-40.2,-0.033,0.062,-0.023,2018,4,24,22,52,31.791
0,0.6496,-0.5162,0.3116,0.4629,14.8,-11.3,-38.3,-0.024,0.078,-0.032,2018,4,24,22,52,31.81
0,0.6541,-0.5154,0.3089,0.4593,14.5,-10.7,-35.6,-0.019,0.091,-0.043,2018,4,24,22,52,31.833
0,0.6582,-0.5145,0.3067,0.4559,14.6,-9.7,-32.3,-0.013,0.105,-0.05,2018,4,24,22,52,31.847
0,0.6618,-0.5135,0.3051,0.4529,14,-8.4,-28,-0.011,0.114,-0.058,2018,4,24,22,52,31.865
0,0.6648,-0.5124,0.3039,0.4504,12.4,-7.8,-23.6,-0.01,0.123,-0.052,2018,4,24,22,52,31.886
0,0.6673,-0.5114,0.3031,0.4485,9.8,-6.8,-18.6,-0.01,0.129,-0.053,2018,4,24,22,52,31.924
0,0.6694,-0.5107,0.3019,0.4469,6.7,-5.2,-13.3,-0.009,0.133,-0.064,2018,4,24,22,52,31.946
0,0.6709,-0.5104,0.3008,0.4458,3,-3.8,-8,-0.006,0.137,-0.063,2018,4,24,22,52,31.951
0,0.6713,-0.51,0.3006,0.4457,0.7,-2.1,-2.7,-0.004,0.128,-0.061,2018,4,24,22,52,31.968
0,0.6708,-0.5097,0.3015,0.4463,0.1,0.1,2.1,-0.002,0.118,-0.062,2018,4,24,22,52,31.992
0,0.6698,-0.5093,0.3029,0.4472,0.3,2.4,6.5,-0.002,0.108,-0.055,2018,4,24,22,52,32.009
0,0.6685,-0.5088,0.305,0.4483,0.8,4.6,10.3,0,0.097,-0.049,2018,4,24,22,52,32.033
0,0.667,-0.5083,0.3075,0.4495,1.7,6.6,13.4,-0.001,0.085,-0.035,2018,4,24,22,52,32.048
0,0.6653,-0.5075,0.3105,0.4508,2.8,8.4,16.2,-0.002,0.076,-0.029,2018,4,24,22,52,32.067
0,0.6634,-0.5066,0.3137,0.4523,3.5,9.5,18.7,0.002,0.071,-0.019,2018,4,24,22,52,32.088
0,0.6614,-0.5056,0.3173,0.4539,3.3,10.2,21,0.005,0.061,-0.005,2018,4,24,22,52,32.127
0,0.6592,-0.5044,0.3209,0.4558,2.3,10.2,23,0.006,0.054,-0.001,2018,4,24,22,52,32.151
0,0.6568,-0.5034,0.3245,0.4579,0.7,10,25.1,0.003,0.041,0.009,2018,4,24,22,52,32.154
0,0.6541,-0.5024,0.3281,0.4603,-1.2,9.5,26.8,0.004,0.031,0.008,2018,4,24,22,52,32.17
0,0.6512,-0.5016,0.3313,0.4631,-3.9,8.6,28.4,0.006,0.019,0.017,2018,4,24,22,52,32.189
0,0.648,-0.5009,0.3343,0.4661,-6.5,7.5,29.6,0.004,0.004,0.023,2018,4,24,22,52,32.212
0,0.6445,-0.5004,0.337,0.4694,-8.8,6.6,30.3,0.004,-0.008,0.024,2018,4,24,22,52,32.231
1023,0.641,-0.5001,0.3393,0.4729,-10.6,5.9,30.8,0.005,-0.025,0.025,2018,4,24,22,52,32.253
1023,0.6374,-0.4999,0.3414,0.4766,-11.8,4.9,30.7,0.008,-0.038,0.032,2018,4,24,22,52,32.269
1023,0.6338,-0.4998,0.3432,0.4801,-12.3,4.3,30.1,0.012,-0.057,0.03,2018,4,24,22,52,32.306
1023,0.6304,-0.4998,0.3446,0.4836,-11.9,3.7,28.5,0.013,-0.07,0.034,2018,4,24,22,52,32.33
1023,0.6273,-0.4998,0.3458,0.4867,-10.5,3.2,26.5,0.011,-0.084,0.034,2018,4,24,22,52,32.334
1023,0.6246,-0.4998,0.3468,0.4895,-9,2.9,23.7,0.016,-0.091,0.038,2018,4,24,22,52,32.352
1023,0.6223,-0.4998,0.3477,0.4918,-7.5,2.5,20.4,0.018,-0.098,0.036,2018,4,24,22,52,32.389
1023,0.6206,-0.4997,0.3481,0.4937,-5.6,1.9,16.9,0.018,-0.104,0.04,2018,4,24,22,52,32.412
1023,0.6193,-0.4998,0.3485,0.495,-3.9,1.4,13.6,0.02,-0.11,0.038,2018,4,24,22,52,32.417
1023,0.6185,-0.4998,0.3486,0.4959,-2,0.8,10,0.024,-0.107,0.032,2018,4,24,22,52,32.434
1023,0.6182,-0.4998,0.3485,0.4964,-1.1,0.1,6.2,0.025,-0.109,0.034,2018,4,24,22,52,32.452
0,0.6183,-0.4999,0.348,0.4965,-0.1,-0.7,2.8,0.027,-0.105,0.031,2018,4,24,22,52,32.474
0,0.6188,-0.5,0.3472,0.4963,0.3,-1.2,-0.7,0.022,-0.101,0.025,2018,4,24,22,52,32.491
0,0.6196,-0.5003,0.3463,0.4957,0.8,-1.6,-3.6,0.023,-0.096,0.022,2018,4,24,22,52,32.516
0,0.6207,-0.5006,0.3451,0.4948,1.2,-2.3,-6.1,0.017,-0.088,0.017,2018,4,24,22,52,32.532
0,0.6221,-0.5009,0.3437,0.4938,2.3,-2.8,-8.9,0.013,-0.079,0.018,2018,4,24,22,52,32.549
0,0.6237,-0.5012,0.3422,0.4924,3.1,-3.4,-11.6,0.013,-0.07,0.01,2018,4,24,22,52,32.572
0,0.6256,-0.5015,0.3406,0.4908,3.5,-4.2,-14.2,0.004,-0.054,0.01,2018,4,24,22,52,32.59
0,0.6277,-0.5019,0.3387,0.489,3.4,-4.8,-16.6,0.001,-0.042,0.009,2018,4,24,22,52,32.613
0,0.63,-0.5023,0.3367,0.4872,2.7,-5.4,-18.6,0,-0.031,0,2018,4,24,22,52,32.631
0,0.6322,-0.5028,0.3344,0.4852,1.5,-6.2,-20.2,-0.008,-0.015,-0.001,2018,4,24,22,52,32.652
0,0.6344,-0.5035,0.3321,0.4833,0.3,-6.3,-21.1,-0.018,-0.006,-0.011,2018,4,24,22,52,32.691
0,0.6365,-0.5043,0.3297,0.4814,-0.1,-6.4,-21.4,-0.032,0,-0.011,2018,4,24,22,52,32.715
0,0.6385,-0.505,0.3272,0.4796,-0.5,-6.7,-21.4,-0.027,0.014,-0.014,2018,4,24,22,52,32.719
0,0.6403,-0.5058,0.3248,0.4779,-2.5,-6.9,-21.5,-0.01,0.03,-0.025,2018,4,24,22,52,32.737
0,0.642,-0.507,0.3222,0.4763,-4.7,-6.2,-22.2,0.004,0.037,-0.022,2018,4,24,22,52,32.753
0,0.6435,-0.5083,0.3195,0.4747,-4.8,-5.2,-22.6,0.005,0.039,-0.031,2018,4,24,22,52,32.771
0,0.645,-0.5096,0.317,0.4729,-3.3,-3.8,-22.3,0.005,0.05,-0.03,2018,4,24,22,52,32.792
0,0.6465,-0.5107,0.3151,0.4709,-1,-2.2,-21,0,0.059,-0.028,2018,4,24,22,52,32.812
0,0.6479,-0.5116,0.3137,0.4689,1.4,-0.6,-19.1,0.008,0.072,-0.027,2018,4,24,22,52,32.836
0,0.6492,-0.5122,0.313,0.467,3.4,1.3,-15.8,0,0.077,-0.03,2018,4,24,22,52,32.853
0,0.6502,-0.5124,0.313,0.4653,4.8,2.8,-11.7,-0.013,0.083,-0.022,2018,4,24,22,52,32.876
0,0.6509,-0.5123,0.3137,0.464,5.3,4.2,-7,-0.013,0.086,-0.019,2018,4,24,22,52,32.895
0,0.6512,-0.5119,0.3149,0.4632,5.3,4.7,-2.1,-0.006,0.091,-0.008,2018,4,24,22,52,32.933
0,0.651,-0.5115,0.3165,0.4629,3.4,5.3,1.8,0,0.091,-0.004,2018,4,24,22,52,32.956
0,0.6504,-0.511,0.3181,0.4632,1,5.3,5.2,0.006,0.085,-0.003,2018,4,24,22,52,32.961
0,0.6494,-0.5106,0.3198,0.4639,-1,5.1,7.8,0.01,0.075,0.004,2018,4,24,22,52,32.974
1023,0.648,-0.5102,0.3214,0.465,-2.1,5.1,10.3,0.012,0.066,0.011,2018,4,24,22,52,33.011
1023,0.6465,-0.5098,0.323,0.4664,-2.2,5,13,0.01,0.051,0.014,2018,4,24,22,52,33.034
1023,0.6449,-0.5093,0.3249,0.4679,-1.8,4.9,15.3,0.009,0.042,0.016,2018,4,24,22,52,33.039
1023,0.6431,-0.5087,0.3269,0.4697,-1.2,4.8,17.6,0.01,0.032,0.013,2018,4,24,22,52,33.056
1023,0.6412,-0.5079,0.3291,0.4716,-1.6,4.7,19.5,0.007,0.025,0.019,2018,4,24,22,52,33.092
1023,0.6392,-0.5071,0.3312,0.4738,-2.2,4.2,21.2,0.008,0.011,0.022,2018,4,24,22,52,33.116
1023,0.637,-0.5062,0.3334,0.4761,-2.7,3.6,22.4,0.005,0.001,0.025,2018,4,24,22,52,33.12
1023,0.6348,-0.5054,0.3354,0.4785,-3.2,2.8,22.4,0.006,-0.009,0.023,2018,4,24,22,52,33.138
1023,0.6327,-0.5046,0.3371,0.481,-4.3,1.9,22.4,0.006,-0.018,0.024,2018,4,24,22,52,33.156
1023,0.6305,-0.5039,0.3386,0.4834,-5.5,1.1,21.3,0.009,-0.033,0.021,2018,4,24,22,52,33.177
0,0.6284,-0.5035,0.3397,0.4858,-6.2,0.6,19.7,0.012,-0.043,0.016,2018,4,24,22,52,33.216
0,0.6265,-0.5032,0.3405,0.488,-5.7,0.3,18,0.011,-0.053,0.012,2018,4,24,22,52,33.216
0,0.6249,-0.503,0.3412,0.4899,-4.7,0,15.8,0.013,-0.062,0.014,2018,4,24,22,52,33.238
0,0.6235,-0.5028,0.3417,0.4914,-3.5,0.1,13.6,0.016,-0.069,0.011,2018,4,24,22,52,33.255
0,0.6225,-0.5026,0.3421,0.4926,-2.8,0,11,0.016,-0.067,0.006,2018,4,24,22,52,33.277
0,0.6217,-0.5026,0.3422,0.4935,-2.6,-0.2,8.3,0.017,-0.067,0.003,2018,4,24,22,52,33.294
0,0.6212,-0.5028,0.3422,0.4941,-2.9,-0.4,5.7,0.015,-0.067,0.002,2018,4,24,22,52,33.319
0,0.6209,-0.503,0.3417,0.4945,-2.8,-0.6,3.2,0.017,-0.068,0.003,2018,4,24,22,52,33.359
0,0.6207,-0.5035,0.3413,0.4945,-2.6,-0.4,0.7,0.02,-0.068,0,2018,4,24,22,52,33.363
0,0.6208,-0.5041,0.3406,0.4942,-2.2,-0.3,-1.4,0.019,-0.063,0,2018,4,24,22,52,33.378
0,0.6211,-0.5048,0.3399,0.4936,-1.4,-0.3,-3.6,0.019,-0.062,-0.009,2018,4,24,22,52,33.399
0,0.6217,-0.5054,0.3391,0.4928,-0.6,-0.2,-5.4,0.02,-0.05,-0.005,2018,4,24,22,52,33.435
0,0.6223,-0.5062,0.3382,0.4919,-0.7,0,-7.2,0.017,-0.04,-0.01,2018,4,24,22,52,33.459
0,0.6231,-0.507,0.3373,0.4907,-0.7,0.3,-8.6,0.013,-0.039,-0.005,2018,4,24,22,52,33.463
0,0.6239,-0.5078,0.3362,0.4895,-0.3,0.6,-10,0.01,-0.03,-0.008,2018,4,24,22,52,33.479
0,0.6249,-0.5086,0.3352,0.4881,0.1,0.6,-11.2,0.009,-0.018,-0.006,2018,4,24,22,52,33.498
0,0.6259,-0.5094,0.3342,0.4866,0.1,0.9,-12.3,0.004,-0.012,-0.005,2018,4,24,22,52,33.534
0,0.627,-0.5103,0.3331,0.485,0.3,1,-13,0.002,-0.005,-0.006,2018,4,24,22,52,33.557
0,0.6281,-0.5112,0.3322,0.4833,0.5,1.2,-13.4,0.003,0.005,-0.004,2018,4,24,22,52,33.562
0,0.6292,-0.5119,0.3313,0.4817,1.2,1.5,-13.5,0,0.008,0.006,2018,4,24,22,52,33.579
0,0.6304,-0.5126,0.3304,0.4801,1.5,1.5,-13.1,-0.004,0.016,0.007,2018,4,24,22,52,33.598
0,0.6315,-0.5131,0.3296,0.4786,1.5,1.3,-12.9,-0.006,0.025,0.006,2018,4,24,22,52,33.619
0,0.6326,-0.5136,0.329,0.4771,1.7,1,-12.2,-0.01,0.029,0.011,2018,4,24,22,52,33.657
0,0.6336,-0.5139,0.3283,0.4758,1.7,0.9,-11.2,-0.004,0.031,0.013,2018,4,24,22,52,33.657
0,0.6346,-0.5141,0.3278,0.4747,1.5,0.4,-10.3,-0.003,0.037,0.012,2018,4,24,22,52,33.68
0,0.6354,-0.5142,0.3273,0.4738,0.9,0,-8.9,-0.003,0.042,0.01,2018,4,24,22,52,33.7
1023,0.6361,-0.5143,0.3269,0.4731,0.5,-0.4,-7.4,-0.002,0.045,0.009,2018,4,24,22,52,33.716
1023,0.6366,-0.5143,0.3266,0.4726,0.3,-0.8,-5.5,-0.004,0.052,0.008,2018,4,24,22,52,33.739
1023,0.637,-0.5141,0.3263,0.4725,-0.4,-1.3,-3.6,-0.001,0.048,0.004,2018,4,24,22,52,33.777
1023,0.6371,-0.514,0.3261,0.4726,-1.2,-1.5,-1.6,0.002,0.047,0,2018,4,24,22,52,33.777
1023,0.637,-0.5139,0.3261,0.473,-1.7,-1.5,0.1,0.001,0.043,-0.004,2018,4,24,22,52,33.801
1023,0.6367,-0.5137,0.3261,0.4735,-1.5,-1.4,2.1,0,0.035,-0.009,2018,4,24,22,52,33.837
1023,0.6362,-0.5135,0.3264,0.4741,-1.3,-0.9,3.7,-0.005,0.032,-0.004,2018,4,24,22,52,33.86
1023,0.6357,-0.5132,0.3269,0.4748,-0.7,-0.4,5.4,-0.004,0.021,-0.004,2018,4,24,22,52,33.864
1023,0.635,-0.5129,0.3277,0.4755,-0.2,0.1,6.5,-0.004,0.017,-0.001,2018,4,24,22,52,33.898
1023,0.6344,-0.5124,0.3284,0.4763,-0.2,0.2,7.2,0.001,0.012,-0.006,2018,4,24,22,52,33.921
1023,0.6337,-0.512,0.3292,0.4772,-0.4,0.5,7.7,0.004,0.005,-0.002,2018,4,24,22,52,33.924
0,0.6329,-0.5117,0.33,0.4781,-0.3,0.7,8,0.002,0.003,0,2018,4,24,22,52,33.943
0,0.6323,-0.5112,0.3307,0.4789,0,0.7,7.9,0.007,-0.003,0.001,2018,4,24,22,52,33.965
0,0.6316,-0.5108,0.3314,0.4797,0,0.3,7.7,0.006,-0.007,-0.004,2018,4,24,22,52,33.982
0,0.631,-0.5105,0.3321,0.4805,-0.4,0.2,7.4,0.005,-0.009,0.003,2018,4,24,22,52,34.018
0,0.6303,-0.5102,0.3326,0.4812,-0.8,-0.1,7,0.004,-0.014,0,2018,4,24,22,52,34.041
0,0.6298,-0.5099,0.333,0.4819,-0.8,-0.3,6.7,0.004,-0.018,0.004,2018,4,24,22,52,34.046
0,0.6293,-0.5097,0.3333,0.4826,-0.9,-0.4,6.2,0.004,-0.023,0.002,2018,4,24,22,52,34.061
0,0.6288,-0.5095,0.3336,0.4832,-1.2,-0.7,5.1,0.008,-0.021,-0.003,2018,4,24,22,52,34.085
0,0.6285,-0.5095,0.3337,0.4837,-1.3,-1,4.1,0.01,-0.027,-0.001,2018,4,24,22,52,34.103
0,0.6282,-0.5094,0.3336,0.484,-0.9,-1.1,2.9,0.007,-0.027,-0.003,2018,4,24,22,52,34.126
0,0.6281,-0.5095,0.3336,0.4842,-1,-1,1.8,0.009,-0.027,-0.002,2018,4,24,22,52,34.144
0,0.628,-0.5096,0.3334,0.4843,-1.2,-0.7,1,0.004,-0.026,-0.005,2018,4,24,22,52,34.167
0,0.628,-0.5098,0.3331,0.4843,-0.4,-0.5,0.2,0.001,-0.028,-0.003,2018,4,24,22,52,34.182
0,0.6282,-0.5099,0.333,0.4841,0.6,-0.1,-0.4,0.001,-0.024,-0.006,2018,4,24,22,52,34.201
0,0.6284,-0.5099,0.3328,0.4839,0.6,0,-1.5,0.007,-0.016,-0.003,2018,4,24,22,52,34.225
0,0.6287,-0.5101,0.3326,0.4834,0.1,0,-2.6,0.006,-0.012,-0.008,2018,4,24,22,52,34.241
0,0.6289,-0.5104,0.3324,0.4829,0.3,0.1,-3.3,0.002,-0.01,-0.004,2018,4,24,22,52,34.262
0,0.6293,-0.5106,0.3321,0.4824,0.7,0.6,-3.6,0,-0.004,-0.002,2018,4,24,22,52,34.301
0,0.6297,-0.5108,0.332,0.4818,1.8,0.9,-3.6,-0.001,0,0,2018,4,24,22,52,34.324
0,0.6302,-0.5108,0.332,0.4812,2.4,1,-3.6,0,0.002,0,2018,4,24,22,52,34.328
0,0.6307,-0.5108,0.332,0.4805,3.1,0.9,-3.5,0.002,0.006,0.003,2018,4,24,22,52,34.344
0,0.6313,-0.5105,0.3321,0.4799,3.5,0.4,-3.4,0.002,0.011,0.01,2018,4,24,22,52,34.368
0,0.6319,-0.5102,0.3321,0.4795,3.3,0,-3.3,0.002,0.013,0.006,2018,4,24,22,52,34.384
0,0.6325,-0.5099,0.3322,0.479,2.6,-0.7,-3.2,0.004,0.016,0.01,2018,4,24,22,52,34.401
0,0.6331,-0.5095,0.332,0.4787,2.4,-1.2,-2.8,0,0.015,0.002,2018,4,24,22,52,34.424
1023,0.6336,-0.5091,0.3319,0.4785,2.4,-1.5,-2.2,0,0.015,0.004,2018,4,24,22,52,34.444
1023,0.6341,-0.5087,0.3318,0.4784,2.3,-1.8,-1.9,-0.003,0.021,-0.002,2018,4,24,22,52,34.464
1023,0.6345,-0.5083,0.3317,0.4784,2,-1.7,-1.5,0,0.016,-0.004,2018,4,24,22,52,34.501
1023,0.6348,-0.508,0.3317,0.4783,2,-1.6,-1.1,0.005,0.016,-0.005,2018,4,24,22,52,34.524
1023,0.6351,-0.5076,0.3317,0.4782,2.3,-1.4,-0.9,0.006,0.014,-0.007,2018,4,24,22,52,34.528
1023,0.6355,-0.5073,0.3319,0.4781,2.7,-1.3,-0.7,0.005,0.016,-0.011,2018,4,24,22,52,34.547
1023,0.6357,-0.5069,0.332,0.478,2.7,-1.1,-0.4,0.006,0.017,-0.013,2018,4,24,22,52,34.565
1023,0.636,-0.5065,0.3322,0.4779,2.2,-1,-0.2,0.007,0.014,-0.014,2018,4,24,22,52,34.59
1023,0.6361,-0.5062,0.3324,0.4779,1.8,-0.7,0.1,0.002,0.009,-0.019,2018,4,24,22,52,34.607
1023,0.6362,-0.506,0.3326,0.4779,1.5,-0.4,0.3,0,0.01,-0.019,2018,4,24,22,52,34.63
0,0.6362,-0.5059,0.3329,0.4778,1.1,0,0.3,0.004,0.006,-0.02,2018,4,24,22,52,34.666
0,0.6362,-0.5058,0.3332,0.4776,2,0.6,0.4,-0.001,0.002,-0.017,2018,4,24,22,52,34.666
0,0.6363,-0.5056,0.3337,0.4774,3.2,1.4,0.5,0,0.007,-0.015,2018,4,24,22,52,34.687
0,0.6364,-0.5053,0.3342,0.4772,3.3,1.8,0.7,0,0.003,-0.01,2018,4,24,22,52,34.724
0,0.6365,-0.5051,0.3348,0.4769,3.4,2,0.7,-0.003,0.004,-0.006,2018,4,24,22,52,34.745
0,0.6366,-0.5048,0.3354,0.4767,3.4,1.7,0.5,0.003,0.004,0.004,2018,4,24,22,52,34.747
0,0.6368,-0.5044,0.3359,0.4765,2.8,1.2,0.7,0.005,0.003,0.011,2018,4,24,22,52,34.785
0,0.637,-0.504,0.3362,0.4764,2,0.6,0.6,0.006,0.005,0.01,2018,4,24,22,52,34.805
0,0.6371,-0.5037,0.3363,0.4765,0,0,0,0.006,0.006,0.005,2018,4,24,22,52,34.808
0,0.6372,-0.5036,0.3362,0.4766,-0.1,-0.7,0.1,0.003,-0.001,0.008,2018,4,24,22,52,34.845
0,0.6374,-0.5034,0.336,0.4767,0.6,-1,0,0.003,-0.001,0.003,2018,4,24,22,52,34.866
0,0.6376,-0.5032,0.3359,0.4768,1,-1,0.2,0.002,0.001,0.007,2018,4,24,22,52,34.868
0,0.6377,-0.5029,0.3358,0.4769,0.4,-1.2,0,0,-0.003,0.003,2018,4,24,22,52,34.885
0,0.6379,-0.5028,0.3356,0.477,-0.1,-1.3,-0.2,0,-0.003,0.003,2018,4,24,22,52,34.907
0,0.638,-0.5026,0.3353,0.4771,0,-1.5,-0.3,0.004,-0.002,0.002,2018,4,24,22,52,34.944
0,0.6382,-0.5025,0.335,0.4772,0.1,-1.3,-0.5,0.005,-0.002,-0.003,2018,4,24,22,52,34.965
0,0.6384,-0.5024,0.3348,0.4772,0.4,-1.2,-0.5,0.008,0.001,-0.003,2018,4,24,22,52,34.967
0,0.6386,-0.5022,0.3347,0.4772,0.7,-1,-0.2,0.005,0.003,0,2018,4,24,22,52,35.002
0,0.6388,-0.502,0.3347,0.4773,1.2,-1,0,0.006,0.002,0,2018,4,24,22,52,35.024
0,0.6389,-0.5018,0.3347,0.4772,0.9,-1,0.2,0.004,0.003,0.002,2018,4,24,22,52,35.026
0,0.639,-0.5016,0.3348,0.4773,0.3,-1.1,0.3,0.008,0.003,0.001,2018,4,24,22,52,35.061
0,0.6391,-0.5015,0.3347,0.4773,0.1,-1.3,0,0.008,0,0.002,2018,4,24,22,52,35.084
0,0.6392,-0.5014,0.3345,0.4774,0,-1.2,-0.2,0.007,0,-0.002,2018,4,24,22,52,35.089
0,0.6393,-0.5013,0.3344,0.4774,0.1,-1,-0.1,0.007,0.002,-0.001,2018,4,24,22,52,35.107
0,0.6394,-0.5012,0.3343,0.4775,-0.2,-0.9,0,0.005,0.004,-0.001,2018,4,24,22,52,35.13
0,0.6394,-0.5012,0.3342,0.4775,-0.5,-0.8,0.1,0.011,0,-0.001,2018,4,24,22,52,35.148
0,0.6394,-0.5012,0.3341,0.4777,-0.3,-0.7,0.1,0.009,0,-0.007,2018,4,24,22,52,35.169
0,0.6394,-0.5012,0.3341,0.4777,0,-0.5,0.2,0.013,0,-0.008,2018,4,24,22,52,35.207
1023,0.6394,-0.5011,0.334,0.4777,0,0,0,0.012,0,0,2018,4,24,22,52,35.231
1023,0.6395,-0.5011,0.334,0.4777,0,0,0,0.01,0,-0.006,2018,4,24,22,52,35.235
1023,0.6395,-0.5011,0.334,0.4777,0,0,0,0.006,0.001,0,2018,4,24,22,52,35.251
1023,0.6395,-0.5011,0.3339,0.4777,0,0,0,0.006,-0.004,-0.003,2018,4,24,22,52,35.287
1023,0.6396,-0.5011,0.3338,0.4777,0,0,0,0.003,-0.004,0.007,2018,4,24,22,52,35.309
1023,0.6396,-0.5011,0.3338,0.4777,0,0,0,0.004,-0.001,0.006,2018,4,24,22,52,35.311
1023,0.6397,-0.501,0.3337,0.4777,0,0,0,0,-0.003,0.004,2018,4,24,22,52,35.348
1023,0.6398,-0.5009,0.3336,0.4777,0,0,0,0.004,-0.004,0.012,2018,4,24,22,52,35.348
1023,0.6399,-0.5009,0.3335,0.4778,-0.6,-0.4,-0.3,0.006,-0.001,0.007,2018,4,24,22,52,35.37
1023,0.6399,-0.5009,0.3333,0.4778,-0.7,-0.7,-0.6,0.007,0.001,0.012,2018,4,24,22,52,35.407
0,0.6401,-0.5009,0.3329,0.4779,-0.6,-0.8,-0.8,0.011,-0.001,0.007,2018,4,24,22,52,35.429
0,0.6402,-0.5008,0.3326,0.478,-0.3,-0.9,-0.8,0.004,0,0.007,2018,4,24,22,52,35.433
0,0.6404,-0.5007,0.3324,0.478,0,-1.2,-0.8,0.004,0.001,0.008,2018,4,24,22,52,35.45
0,0.6406,-0.5006,0.3322,0.478,-0.4,-1.5,-0.7,0.005,0.003,0.002,2018,4,24,22,52,35.473
0,0.6407,-0.5006,0.3319,0.4781,-1.3,-1.7,-0.8,0.007,0.006,0.002,2018,4,24,22,52,35.491
0,0.6407,-0.5006,0.3315,0.4783,-1.5,-1.8,-0.8,0.006,0.005,0,2018,4,24,22,52,35.514
0,0.6408,-0.5006,0.3312,0.4784,-1,-1.8,-0.5,0.005,0.003,-0.002,2018,4,24,22,52,35.531
0,0.6408,-0.5006,0.331,0.4786,-0.8,-1.4,-0.1,0.002,0.007,-0.007,2018,4,24,22,52,35.553
0,0.6409,-0.5005,0.3308,0.4788,-0.1,-1.3,0.1,0.006,0.003,-0.007,2018,4,24,22,52,35.592
0,0.6409,-0.5005,0.3307,0.4788,0,-0.8,0.3,0.008,0.003,-0.01,2018,4,24,22,52,35.596
0,0.6408,-0.5004,0.3307,0.4789,-0.6,-0.7,0.1,0.002,0.002,-0.007,2018,4,24,22,52,35.612
0,0.6407,-0.5005,0.3306,0.479,-1.1,-0.6,0,0.003,0.005,-0.013,2018,4,24,22,52,35.63
0,0.6406,-0.5006,0.3305,0.4791,-1.1,-0.2,0,0.004,0.004,-0.006,2018,4,24,22,52,35.653
0,0.6405,-0.5007,0.3304,0.4792,-1,-0.1,0,0.008,0.005,-0.009,2018,4,24,22,52,35.671
0,0.6404,-0.5009,0.3304,0.4792,-1.5,0.3,-0.2,0.011,0.005,-0.008,2018,4,24,22,52,35.694
0,0.6402,-0.5012,0.3304,0.4791,-1.4,0.6,-0.1,0.008,0.007,-0.005,2018,4,24,22,52,35.712
0,0.6401,-0.5013,0.3304,0.4792,-0.9,0.6,0.2,0.006,0.004,-0.004,2018,4,24,22,52,35.736
0,0.6399,-0.5014,0.3305,0.4792,-1,0.7,0.8,0.004,0.006,0,2018,4,24,22,52,35.754
0,0.6396,-0.5016,0.3306,0.4793,-2,0.6,1,0.007,0.008,-0.002,2018,4,24,22,52,35.777
0,0.6394,-0.5018,0.3306,0.4795,-2.5,0.9,0.7,0.004,0,0.001,2018,4,24,22,52,35.794
0,0.6391,-0.5021,0.3305,0.4795,-1.5,0.8,0.4,0.007,-0.006,0.004,2018,4,24,22,52,35.814
0,0.639,-0.5023,0.3305,0.4795,-1,0.7,0.4,0.002,-0.001,0.007,2018,4,24,22,52,35.831
0,0.6388,-0.5025,0.3306,0.4795,-1.8,0.6,0.1,0.004,0.006,0.006,2018,4,24,22,52,35.853
0,0.6387,-0.5027,0.3305,0.4796,-2.2,0.5,-0.1,0.002,0,0.001,2018,4,24,22,52,35.89
0,0.6385,-0.5029,0.3303,0.4797,-2.2,0.3,0,0.004,0,0.005,2018,4,24,22,52,35.912
0,0.6383,-0.5031,0.3302,0.4798,-1.7,0.3,0.1,0.004,0.002,0.007,2018,4,24,22,52,35.917
0,0.6382,-0.5033,0.3302,0.4798,-1.6,0.2,0.2,0.003,0.003,0.002,2018,4,24,22,52,35.932
0,0.638,-0.5035,0.3301,0.4798,-1.8,0.1,0,0.004,0.001,0.005,2018,4,24,22,52,35.954
1023,0.6379,-0.5037,0.33,0.4798,-1.5,0.2,-0.2,0.004,0,0.001,2018,4,24,22,52,35.99
1023,0.6378,-0.5039,0.3299,0.4798,-1,0,0,0.004,0,0.003,2018,4,24,22,52,36.011
1023,0.6378,-0.504,0.3299,0.4799,-1.3,-0.1,0,0.004,0.004,0.007,2018,4,24,22,52,36.015
1023,0.6376,-0.5041,0.3297,0.4801,-3.2,-0.6,0.1,0,0.009,0.013,2018,4,24,22,52,36.033
1023,0.6372,-0.5044,0.3289,0.4808,-13.1,-3.5,-0.8,-0.016,0.068,0.139,2018,4,24,22,52,36.071
1023,0.6354,-0.507,0.3247,0.4834,-55.3,-26.5,-4.5,-0.122,0.228,0.577,2018,4,24,22,52,36.093
1023,0.6292,-0.515,0.3098,0.4926,-152.8,-65.7,-8,-0.156,0.441,0.515,2018,4,24,22,52,36.097
1023,0.6163,-0.5297,0.2836,0.5089,-224.5,-95.6,-11.7,-0.165,0.114,0.612,2018,4,24,22,52,36.113
1023,0.6002,-0.5465,0.2475,0.5288,-265.3,-135.5,-26.9,-0.213,-0.048,0.822,2018,4,24,22,52,36.136
