ax,ay,az,dpitch,droll,dyaw,heart,time_1,time_2,time_3,time_4,time_5,time_6,w,x,y,z
-0.054,0.141,0.134,-80.7,-68.6,-11.1,1023,2018,5,17,21,46,6.65,0.6729,-0.0212,-0.7192,0.1712
-0.052,0.189,0.218,-83,-98.8,-18.6,1023,2018,5,17,21,46,6.655,0.6823,-0.0349,-0.7119,0.1622
-0.064,0.144,0.261,-84.3,-127.6,-29.4,1023,2018,5,17,21,46,6.671,0.6911,-0.0536,-0.7049,0.1499
-0.035,0.078,0.278,-84.7,-140.2,-37.2,1023,2018,5,17,21,46,6.694,0.699,-0.076,-0.6978,0.1363
-0.001,-0.06,0.228,-84.6,-122.6,-37.7,1023,2018,5,17,21,46,6.731,0.7064,-0.0988,-0.6899,0.1233
0.006,-0.112,0.165,-81.7,-85.8,-32,1023,2018,5,17,21,46,6.754,0.7137,-0.1171,-0.6811,0.1135
0.011,-0.124,0.106,-77.1,-48.4,-24.3,1023,2018,5,17,21,46,6.758,0.7211,-0.1299,-0.6719,0.1073
0.047,-0.117,0.056,-71.9,-17.4,-19.6,1023,2018,5,17,21,46,6.775,0.7288,-0.138,-0.6623,0.1049
0.073,-0.087,0.004,-64.4,3.7,-19.8,1023,2018,5,17,21,46,6.81,0.7358,-0.1428,-0.6533,0.1058
0.102,-0.055,-0.038,-53.9,19.2,-21,0,2018,5,17,21,46,6.834,0.7423,-0.1451,-0.6449,0.109
0.102,-0.021,-0.045,-44.2,29.6,-22.2,0,2018,5,17,21,46,6.838,0.7476,-0.1457,-0.6377,0.1139
0.097,-0.031,-0.039,-33.9,38.4,-22.6,0,2018,5,17,21,46,6.874,0.7521,-0.1449,-0.6315,0.1201
0.078,-0.052,-0.014,-27.7,51.8,-18.5,0,2018,5,17,21,46,6.897,0.7559,-0.1423,-0.626,0.1275
0.064,-0.026,0.022,-23.5,61.1,-16.1,0,2018,5,17,21,46,6.902,0.7597,-0.1375,-0.6207,0.1359
0.052,0.018,0.055,-23.5,62.2,-16.1,0,2018,5,17,21,46,6.918,0.7636,-0.1315,-0.6153,0.1445
0.028,0.047,0.066,-24.7,54.3,-17.9,0,2018,5,17,21,46,6.936,0.7675,-0.1258,-0.6097,0.1525
0.019,0.055,0.067,-26.7,46.5,-21.1,0,2018,5,17,21,46,6.954,0.7714,-0.1211,-0.6036,0.1603
-0.03,0.053,0.064,-27.4,33.8,-21.2,0,2018,5,17,21,46,6.977,0.7749,-0.1182,-0.598,0.1667
-0.053,0.006,0.061,-29,21.3,-21.2,0,2018,5,17,21,46,6.995,0.7782,-0.117,-0.5926,0.1716
-0.064,-0.016,0.06,-31.8,12.2,-21.1,0,2018,5,17,21,46,7.018,0.7811,-0.1175,-0.5875,0.1753
-0.064,-0.013,0.046,-36.1,6.3,-21.3,0,2018,5,17,21,46,7.055,0.7844,-0.1192,-0.5819,0.1784
-0.049,0.009,0.028,-38.7,3,-20.5,0,2018,5,17,21,46,7.078,0.7878,-0.1214,-0.576,0.1808
-0.046,0.039,0.001,-39.8,-0.3,-18.8,0,2018,5,17,21,46,7.082,0.7912,-0.1239,-0.5702,0.1826
-0.029,0.056,-0.009,-38.5,-7,-16.5,1023,2018,5,17,21,46,7.099,0.7945,-0.1266,-0.5648,0.1834
-0.016,0.043,-0.016,-36.1,-17.1,-15.1,1023,2018,5,17,21,46,7.117,0.7974,-0.1303,-0.56,0.1831
-0.01,0.044,-0.007,-34,-21.3,-15,1023,2018,5,17,21,46,7.14,0.7998,-0.1354,-0.5555,0.1823
0.008,0.037,0.01,-31.5,-22.3,-14.7,1023,2018,5,17,21,46,7.175,0.8022,-0.1408,-0.5511,0.1814
0.021,0.002,0.024,-29,-23.8,-13.8,1023,2018,5,17,21,46,7.175,0.8041,-0.1459,-0.5472,0.1805
0.022,-0.035,0.033,-27,-20.6,-12.1,1023,2018,5,17,21,46,7.197,0.8059,-0.1511,-0.5435,0.1795
0.028,-0.054,0.028,-24.7,-13.7,-8.8,1023,2018,5,17,21,46,7.216,0.8076,-0.1556,-0.5397,0.1791
0.034,-0.059,0.014,-22,-5.2,-5.1,1023,2018,5,17,21,46,7.239,0.8094,-0.1588,-0.5361,0.1789
0.042,-0.051,0.001,-19.9,3.9,-1.4,1023,2018,5,17,21,46,7.258,0.8112,-0.1602,-0.5329,0.1792
0.037,-0.041,-0.002,-17.9,11.8,1.6,1023,2018,5,17,21,46,7.276,0.8131,-0.1601,-0.5298,0.1798
0.022,-0.009,-0.005,-16.6,17.6,4.7,1023,2018,5,17,21,46,7.299,0.8151,-0.1587,-0.527,0.1805
-0.002,0.022,-0.003,-16.5,20.2,7.3,1023,2018,5,17,21,46,7.318,0.8174,-0.1557,-0.524,0.1811
-0.024,0.04,0,-16.5,18.1,8.4,0,2018,5,17,21,46,7.34,0.8196,-0.1527,-0.5215,0.1812
-0.048,0.044,0.002,-17.3,12.1,8,0,2018,5,17,21,46,7.361,0.8218,-0.15,-0.5189,0.1807
-0.047,0.048,0.001,-18.7,5.1,6.3,0,2018,5,17,21,46,7.379,0.8239,-0.148,-0.5165,0.1797
-0.029,0.043,-0.001,-19.3,-4.2,3.8,0,2018,5,17,21,46,7.402,0.8259,-0.1476,-0.5139,0.1781
-0.005,0.023,-0.02,-18.8,-11.3,1.3,0,2018,5,17,21,46,7.423,0.8274,-0.1486,-0.5119,0.1764
0.015,0.017,-0.016,-17.8,-15.7,-0.7,0,2018,5,17,21,46,7.437,0.8287,-0.151,-0.5097,0.1745
0.026,0.002,0,-16.7,-19.3,-1.9,0,2018,5,17,21,46,7.474,0.8297,-0.1541,-0.5077,0.1728
0.026,-0.025,0.027,-16.9,-20.9,-3.5,0,2018,5,17,21,46,7.494,0.8306,-0.1578,-0.5057,0.1711
0.035,-0.024,0.04,-17.1,-19.2,-4.5,0,2018,5,17,21,46,7.497,0.8316,-0.1618,-0.5033,0.1698
0.048,-0.017,0.04,-16.8,-16.5,-4.3,0,2018,5,17,21,46,7.535,0.8326,-0.1655,-0.5007,0.1687
0.056,-0.003,0.036,-15.6,-12.7,-2.7,0,2018,5,17,21,46,7.557,0.8338,-0.1684,-0.4982,0.1678
0.061,0.004,0.03,-13.4,-8,0,0,2018,5,17,21,46,7.561,0.8349,-0.1705,-0.4958,0.1669
0.057,0.001,0.024,-10.9,-2.8,1.9,0,2018,5,17,21,46,7.598,0.836,-0.1716,-0.4937,0.1662
0.047,0.015,0.024,-8.6,1.8,3.6,0,2018,5,17,21,46,7.621,0.8372,-0.1717,-0.492,0.1657
0.035,0.024,0.024,-6.5,4.6,5.5,1023,2018,5,17,21,46,7.623,0.8382,-0.171,-0.4906,0.1653
0.025,0.021,0.035,-5,5.6,6.2,1023,2018,5,17,21,46,7.641,0.8393,-0.1695,-0.4894,0.1647
0.011,0.018,0.023,-3.8,6,6.4,1023,2018,5,17,21,46,7.664,0.8403,-0.1679,-0.4885,0.1642
0.009,0.018,0.016,-2.9,6.6,6.1,1023,2018,5,17,21,46,7.681,0.8411,-0.166,-0.488,0.1637
0.004,0.011,0.011,-2.3,7,5.5,1023,2018,5,17,21,46,7.698,0.8417,-0.1644,-0.4875,0.1633
0.005,0.011,0.001,-2,8,4.9,1023,2018,5,17,21,46,7.722,0.8423,-0.1626,-0.4871,0.1632
0.006,0.012,-0.01,-0.9,7.4,4.2,1023,2018,5,17,21,46,7.758,0.8428,-0.161,-0.4868,0.1632
0.01,0.011,-0.018,0.4,7.7,3.6,1023,2018,5,17,21,46,7.781,0.8431,-0.1595,-0.4868,0.1632
0.012,0.015,-0.016,1.6,8.8,3.6,1023,2018,5,17,21,46,7.784,0.8433,-0.1579,-0.4869,0.1635
0.008,0.015,-0.013,2.8,9.3,3.6,1023,2018,5,17,21,46,7.818,0.8434,-0.156,-0.4872,0.1638
0.008,0.018,-0.01,3.3,9,2.8,1023,2018,5,17,21,46,7.841,0.8434,-0.1543,-0.4875,0.1642
0.005,0.023,-0.005,3.4,9.3,2.5,1023,2018,5,17,21,46,7.844,0.8435,-0.1522,-0.4879,0.1647
0.003,0.029,0,3.1,8.8,1.9,0,2018,5,17,21,46,7.879,0.8436,-0.1505,-0.4881,0.1652
0.002,0.033,0.005,2.7,6.9,1,0,2018,5,17,21,46,7.902,0.8437,-0.1488,-0.4884,0.1657
0.004,0.033,0.006,1.8,4.8,0.3,0,2018,5,17,21,46,7.906,0.8437,-0.1474,-0.4885,0.166
0.005,0.034,0,1.1,3.2,0,0,2018,5,17,21,46,7.942,0.8438,-0.1463,-0.4887,0.1663
0.007,0.024,0,0.4,2.1,0,0,2018,5,17,21,46,7.942,0.8439,-0.1456,-0.4887,0.1665
0.007,0.025,-0.007,0.3,1.6,0,0,2018,5,17,21,46,7.964,0.8439,-0.1454,-0.4886,0.1667
0.002,0.023,-0.01,0.3,1.8,0.5,0,2018,5,17,21,46,7.981,0.8439,-0.1448,-0.4888,0.1668
-0.004,0.031,-0.005,0.5,1.8,1.2,0,2018,5,17,21,46,8.002,0.844,-0.1439,-0.4889,0.1667
-0.006,0.026,-0.007,0.5,0.5,1.6,0,2018,5,17,21,46,8.021,0.844,-0.1433,-0.4891,0.1665
-0.007,0.015,-0.008,0.5,0,1.6,0,2018,5,17,21,46,8.043,0.844,-0.143,-0.4893,0.1663
-0.003,0.009,-0.009,0.6,0.6,1.8,0,2018,5,17,21,46,8.08,0.844,-0.1428,-0.4895,0.1661
-0.001,0.01,-0.007,1.3,1.4,1.7,0,2018,5,17,21,46,8.103,0.8439,-0.1424,-0.4897,0.166
0.003,0.015,-0.015,1.7,2.2,1.9,0,2018,5,17,21,46,8.108,0.8438,-0.1417,-0.4901,0.1659
0.003,0.025,-0.01,1.7,2.2,1.9,1023,2018,5,17,21,46,8.127,0.8438,-0.141,-0.4904,0.1659
0,0.03,-0.007,1.5,1.2,2.2,1023,2018,5,17,21,46,8.165,0.8438,-0.1403,-0.4907,0.1657
0,0.02,-0.003,1.1,0,2.5,1023,2018,5,17,21,46,8.165,0.8437,-0.1397,-0.491,0.1654
0.004,0.014,-0.004,0.5,-0.7,2.6,1023,2018,5,17,21,46,8.186,0.8437,-0.1392,-0.4912,0.165
0.003,0.013,-0.004,0.1,-1,2.7,1023,2018,5,17,21,46,8.204,0.8438,-0.1389,-0.4914,0.1645
0.004,0.002,-0.006,0,-0.8,2.2,1023,2018,5,17,21,46,8.242,0.8438,-0.1387,-0.4915,0.1641
0.002,0.003,-0.004,-0.1,0.2,1.7,1023,2018,5,17,21,46,8.265,0.8438,-0.1385,-0.4916,0.1639
0.001,0.004,-0.005,0,1.5,1.3,1023,2018,5,17,21,46,8.27,0.8439,-0.1381,-0.4917,0.1637
0.005,0.013,-0.007,0.2,1.9,0.9,1023,2018,5,17,21,46,8.286,0.8439,-0.1375,-0.4918,0.1638
0.007,0.017,-0.008,0.4,1.5,0,1023,2018,5,17,21,46,8.304,0.844,-0.1371,-0.4918,0.1639
0.007,0.017,-0.012,0.3,0.5,-0.2,1023,2018,5,17,21,46,8.327,0.844,-0.1367,-0.4919,0.164
0.007,0.007,-0.007,0.7,0.2,-0.1,1023,2018,5,17,21,46,8.362,0.8439,-0.1364,-0.4921,0.1641
0.001,-0.001,-0.013,1,0.5,-0.3,1023,2018,5,17,21,46,8.382,0.8437,-0.1362,-0.4924,0.1642
0.006,0.004,-0.015,1.3,1.3,-0.7,0,2018,5,17,21,46,8.387,0.8436,-0.136,-0.4926,0.1645
0.011,0.009,-0.005,1.6,2.8,-0.8,0,2018,5,17,21,46,8.426,0.8435,-0.1357,-0.4928,0.1649
0.008,0.012,0.003,1.8,3,-0.3,0,2018,5,17,21,46,8.449,0.8434,-0.1351,-0.4929,0.1654
0.004,0.013,0.001,2,3,0,0,2018,5,17,21,46,8.454,0.8433,-0.1346,-0.493,0.1658
0,0.015,0,1.8,3,0,0,2018,5,17,21,46,8.468,0.8432,-0.1339,-0.4933,0.1661
0.002,0.013,-0.007,1.8,2.9,-0.1,0,2018,5,17,21,46,8.485,0.8431,-0.1332,-0.4935,0.1664
0,0.017,-0.012,1.5,2.4,-0.2,0,2018,5,17,21,46,8.508,0.843,-0.1326,-0.4937,0.1668
-0.003,0.016,-0.005,1,1.2,-0.2,0,2018,5,17,21,46,8.545,0.8429,-0.1324,-0.4939,0.167
0,0.02,-0.007,0,0,0,0,2018,5,17,21,46,8.568,0.8428,-0.132,-0.4941,0.1671
0.003,0.015,-0.003,0,-1.6,-0.2,0,2018,5,17,21,46,8.573,0.8427,-0.1321,-0.4942,0.1671
0.007,0.011,-0.002,-0.5,-2.6,-0.1,0,2018,5,17,21,46,8.588,0.8427,-0.1323,-0.4943,0.1669
0.009,0.002,-0.007,-0.6,-2.7,0.2,0,2018,5,17,21,46,8.611,0.8427,-0.1326,-0.4943,0.1667
0.008,0.003,-0.003,-0.2,-2,0.9,0,2018,5,17,21,46,8.629,0.8426,-0.1328,-0.4945,0.1664
0.005,-0.002,-0.003,0,-0.3,1.4,0,2018,5,17,21,46,8.652,0.8426,-0.1328,-0.4945,0.1662
0.002,0.002,0.001,0.3,0.8,1.8,1023,2018,5,17,21,46,8.671,0.8426,-0.1326,-0.4946,0.1661
0.001,0,0.006,0.4,0.9,1.3,1023,2018,5,17,21,46,8.694,0.8427,-0.1324,-0.4946,0.1661
0.003,0,0.001,0.5,1.4,0.9,1023,2018,5,17,21,46,8.709,0.8427,-0.1321,-0.4946,0.1661
0.006,-0.002,-0.007,0.9,2.1,0.6,1023,2018,5,17,21,46,8.746,0.8427,-0.1317,-0.4947,0.1662
0.007,-0.007,-0.012,1.4,2.9,0,1023,2018,5,17,21,46,8.769,0.8426,-0.1314,-0.4948,0.1665
0.013,0,-0.019,1.6,4.4,-0.4,1023,2018,5,17,21,46,8.774,0.8425,-0.1308,-0.495,0.167
0.012,0.012,-0.018,1.7,4.7,-0.4,1023,2018,5,17,21,46,8.79,0.8424,-0.1301,-0.4952,0.1676
0.014,0.016,-0.01,1.7,3.5,-0.2,1023,2018,5,17,21,46,8.808,0.8423,-0.1293,-0.4954,0.1681
0.011,0.018,-0.008,1.5,1.9,0,1023,2018,5,17,21,46,8.831,0.8422,-0.1287,-0.4956,0.1684
0.011,0.01,-0.002,0.8,1.1,0.1,1023,2018,5,17,21,46,8.869,0.8421,-0.1283,-0.4957,0.1686
0,0.003,-0.002,0,1.4,0.5,1023,2018,5,17,21,46,8.892,0.8422,-0.1279,-0.4958,0.1687
0,0.003,-0.008,-0.5,2.2,1.1,1023,2018,5,17,21,46,8.897,0.8422,-0.1277,-0.4957,0.1688
-0.006,0.01,-0.008,-1,2.4,1.4,1023,2018,5,17,21,46,8.912,0.8423,-0.1272,-0.4956,0.1688
-0.011,0.015,-0.01,-1.2,2.5,1.7,0,2018,5,17,21,46,8.95,0.8425,-0.1265,-0.4956,0.1688
-0.01,0.011,-0.008,-1.4,1.4,1.9,0,2018,5,17,21,46,8.974,0.8426,-0.1259,-0.4955,0.1686
-0.008,0.008,-0.007,-1.4,-0.2,1.5,0,2018,5,17,21,46,8.978,0.8428,-0.1254,-0.4955,0.1683
0.001,-0.004,-0.008,-1.1,-0.8,1.1,0,2018,5,17,21,46,8.992,0.8429,-0.1253,-0.4954,0.1681
0.012,-0.012,-0.01,-1.1,0.2,0.6,0,2018,5,17,21,46,9.028,0.8429,-0.1254,-0.4954,0.168
0.017,-0.012,-0.006,-0.3,2.2,0.3,0,2018,5,17,21,46,9.052,0.843,-0.1253,-0.4953,0.1682
0.023,0,-0.002,0.3,3.6,0.6,0,2018,5,17,21,46,9.055,0.843,-0.1246,-0.4952,0.1685
0.022,0.009,-0.004,0.6,4.6,1.1,0,2018,5,17,21,46,9.071,0.8431,-0.1239,-0.4951,0.1689
0.018,0.018,-0.001,0.7,4.4,1.6,0,2018,5,17,21,46,9.094,0.8432,-0.123,-0.495,0.1692
0.006,0.001,0.001,0.3,4.2,1.6,0,2018,5,17,21,46,9.112,0.8433,-0.1221,-0.495,0.1693
0.006,0.014,0.001,-0.1,4.4,2.5,0,2018,5,17,21,46,9.136,0.8435,-0.1213,-0.4948,0.1695
0,0.011,0.002,-0.4,4.9,3.1,0,2018,5,17,21,46,9.172,0.8438,-0.1202,-0.4947,0.1695
-0.005,0.005,-0.008,-0.6,3.8,2.7,0,2018,5,17,21,46,9.195,0.844,-0.1192,-0.4945,0.1695
-0.006,0.002,-0.01,-0.9,2.2,2.4,1023,2018,5,17,21,46,9.2,0.8441,-0.1186,-0.4945,0.1694
0.007,0,-0.006,-0.8,1.3,1.9,1023,2018,5,17,21,46,9.214,0.8443,-0.1182,-0.4944,0.1692
0.01,-0.002,-0.004,-0.5,1,1.6,1023,2018,5,17,21,46,9.23,0.8444,-0.118,-0.4943,0.1692
0.016,0,-0.006,0,1,1.3,1023,2018,5,17,21,46,9.253,0.8444,-0.1179,-0.4942,0.1692
0.02,0,-0.004,0.9,1.6,1.4,1023,2018,5,17,21,46,9.289,0.8445,-0.1176,-0.4942,0.1693
0.017,-0.004,-0.001,1.4,3.4,1.9,1023,2018,5,17,21,46,9.312,0.8444,-0.1172,-0.4943,0.1694
0.018,0.003,-0.001,1.8,4.9,1.9,1023,2018,5,17,21,46,9.317,0.8445,-0.1164,-0.4944,0.1696
0.014,0.011,-0.005,1.9,5.3,1.9,1023,2018,5,17,21,46,9.333,0.8444,-0.1156,-0.4945,0.17
0.006,0.017,-0.003,1.9,4.9,2.2,1023,2018,5,17,21,46,9.356,0.8444,-0.1146,-0.4946,0.1702
-0.001,0.018,-0.001,1.7,3.7,2.5,1023,2018,5,17,21,46,9.391,0.8445,-0.1135,-0.4948,0.1703
0,0.016,-0.007,1.3,2.2,2,1023,2018,5,17,21,46,9.413,0.8444,-0.1124,-0.4951,0.1702
0,0.008,-0.009,1.3,0.7,1.5,1023,2018,5,17,21,46,9.418,0.8444,-0.112,-0.4953,0.1701
0.003,0.001,-0.004,1.5,0.5,1.2,1023,2018,5,17,21,46,9.436,0.8443,-0.1117,-0.4956,0.17
0.002,-0.004,0,1.5,1.7,1.2,0,2018,5,17,21,46,9.459,0.8442,-0.1114,-0.4958,0.1701
0.006,0,0.002,1.8,3,1.5,0,2018,5,17,21,46,9.477,0.8441,-0.111,-0.496,0.1702
0.013,0.001,0,2.3,4.3,2,0,2018,5,17,21,46,9.5,0.8441,-0.1102,-0.4962,0.1704
0.006,0.002,-0.003,2.8,5.5,2.8,0,2018,5,17,21,46,9.517,0.844,-0.1092,-0.4964,0.1707
-0.001,0.003,-0.011,3.1,6.9,4.1,0,2018,5,17,21,46,9.534,0.8439,-0.1078,-0.4968,0.1708
0,0.005,-0.011,2.6,7.8,4.7,0,2018,5,17,21,46,9.556,0.8439,-0.1061,-0.4972,0.1709
0.002,0.019,-0.01,1.4,8.2,4.8,0,2018,5,17,21,46,9.575,0.844,-0.1042,-0.4974,0.1709
0.001,0.023,-0.009,0.8,6.8,4.8,0,2018,5,17,21,46,9.597,0.8442,-0.1024,-0.4975,0.1709
-0.003,0.023,-0.004,0.6,4.2,4.5,0,2018,5,17,21,46,9.615,0.8443,-0.1011,-0.4976,0.1707
-0.003,0.015,-0.003,0.4,1.8,3.3,0,2018,5,17,21,46,9.637,0.8444,-0.1001,-0.4978,0.1703
0.006,0.008,-0.001,0.1,0.6,2.2,0,2018,5,17,21,46,9.676,0.8445,-0.0995,-0.4979,0.17
0.013,0.009,-0.005,0.1,0.2,1.6,0,2018,5,17,21,46,9.7,0.8445,-0.0991,-0.4979,0.1698
0.016,0.006,-0.001,0,-0.2,1.3,0,2018,5,17,21,46,9.703,0.8446,-0.0989,-0.4979,0.1697
0.014,0.002,-0.003,0.2,-0.7,1.4,0,2018,5,17,21,46,9.717,0.8446,-0.0989,-0.4979,0.1695
0.015,-0.003,-0.005,0.7,-0.1,1.7,1023,2018,5,17,21,46,9.736,0.8446,-0.0989,-0.498,0.1694
0.014,-0.008,-0.01,0.9,1.3,2,1023,2018,5,17,21,46,9.759,0.8446,-0.0988,-0.4981,0.1693
0.011,0,-0.007,1,2.2,2,1023,2018,5,17,21,46,9.777,0.8446,-0.0982,-0.4982,0.1693
0.012,0.011,-0.012,0.9,1.9,1.9,1023,2018,5,17,21,46,9.795,0.8446,-0.0977,-0.4983,0.1693
0.001,0.014,-0.012,1.1,1.2,1.7,1023,2018,5,17,21,46,9.818,0.8445,-0.0973,-0.4985,0.1692
0,0.018,-0.009,1.1,0.4,1.4,1023,2018,5,17,21,46,9.836,0.8445,-0.0968,-0.4988,0.1691
0,0.011,-0.001,1.1,0.2,0.9,1023,2018,5,17,21,46,9.859,0.8444,-0.0965,-0.499,0.1689
0.003,0.004,-0.004,1.2,0,0.7,1023,2018,5,17,21,46,9.878,0.8443,-0.0963,-0.4992,0.1689
0.008,0.005,0,1.2,0.7,0.3,1023,2018,5,17,21,46,9.901,0.8442,-0.0962,-0.4993,0.169
0.017,0.004,-0.002,1.5,1.4,0.2,1023,2018,5,17,21,46,9.918,0.8441,-0.096,-0.4995,0.1691
0.016,0.004,-0.004,1.8,1.7,0.2,0,2018,5,17,21,46,9.941,0.844,-0.0956,-0.4997,0.1694
0.012,0.004,-0.007,2,1.6,0.1,0,2018,5,17,21,46,9.959,0.8439,-0.0954,-0.4999,0.1696
0.013,0.009,-0.001,2.1,1.2,0.2,0,2018,5,17,21,46,9.982,0.8437,-0.0949,-0.5001,0.1698
0.011,0.009,0.003,2.1,1.2,0.2,0,2018,5,17,21,46,9.999,0.8436,-0.0946,-0.5003,0.17
0.008,0.005,0.001,2.1,1.2,0.3,0,2018,5,17,21,46,10.017,0.8434,-0.0943,-0.5006,0.1702
0.007,0.007,0.001,2.1,1.6,0.3,0,2018,5,17,21,46,10.039,0.8433,-0.0938,-0.5009,0.1703
0.005,0.009,0,2.3,1.4,0.3,0,2018,5,17,21,46,10.076,0.8431,-0.0933,-0.5012,0.1704
0.011,0.01,-0.007,2.6,1.3,0.3,0,2018,5,17,21,46,10.099,0.843,-0.0929,-0.5015,0.1706
0.004,0.006,-0.006,2.6,1.2,0.5,0,2018,5,17,21,46,10.104,0.8428,-0.0926,-0.5019,0.1707
0.003,0.003,-0.012,2.6,1.3,0.7,0,2018,5,17,21,46,10.121,0.8425,-0.0923,-0.5023,0.1709
0.003,0.006,-0.011,2.3,0.9,0.3,0,2018,5,17,21,46,10.141,0.8423,-0.0921,-0.5027,0.171
0.003,0.007,-0.007,2.3,0.5,0,0,2018,5,17,21,46,10.179,0.842,-0.0918,-0.5031,0.1711
0,0.008,-0.007,1.6,0.2,-0.2,0,2018,5,17,21,46,10.202,0.8418,-0.0917,-0.5034,0.1713
0.006,0.01,-0.011,1.2,-0.2,-0.4,0,2018,5,17,21,46,10.207,0.8417,-0.0917,-0.5037,0.1714
0.005,0.012,-0.006,1.2,-0.8,-0.7,0,2018,5,17,21,46,10.222,0.8415,-0.0918,-0.5039,0.1715
0.006,0.019,-0.008,0.9,-1.7,-0.5,0,2018,5,17,21,46,10.239,0.8413,-0.092,-0.5041,0.1715
0.007,0.01,-0.004,1.3,-2.9,-0.5,1023,2018,5,17,21,46,10.261,0.8412,-0.0921,-0.5044,0.1714
0.007,-0.007,0.003,1.7,-2.8,0.3,1023,2018,5,17,21,46,10.298,0.841,-0.0924,-0.5047,0.1712
0.012,-0.017,0,2.3,-1.1,0.8,1023,2018,5,17,21,46,10.319,0.8408,-0.0927,-0.505,0.1711
0.018,-0.013,0.004,3.1,1.7,1,1023,2018,5,17,21,46,10.324,0.8406,-0.0926,-0.5054,0.1712
0.014,-0.001,0.004,3.4,3.6,0.7,1023,2018,5,17,21,46,10.342,0.8403,-0.0922,-0.5057,0.1716
0.015,0.005,-0.003,3.7,3.5,0.5,1023,2018,5,17,21,46,10.365,0.8401,-0.0915,-0.506,0.1719
0.016,0.009,-0.008,3.8,2.6,0.3,1023,2018,5,17,21,46,10.384,0.8399,-0.0908,-0.5065,0.1723
0.009,0.007,-0.009,3.6,1.4,-0.1,1023,2018,5,17,21,46,10.42,0.8395,-0.0904,-0.507,0.1726
0.01,0.008,-0.012,3.4,0.8,-0.4,1023,2018,5,17,21,46,10.443,0.8392,-0.0901,-0.5076,0.1728
0.009,0.006,-0.006,3.1,0.1,-0.7,1023,2018,5,17,21,46,10.447,0.8388,-0.0899,-0.5081,0.173
0.004,0.003,-0.007,2.8,-0.5,-0.7,1023,2018,5,17,21,46,10.482,0.8385,-0.0897,-0.5086,0.1732
0,0,-0.005,2.9,-1.2,-0.7,1023,2018,5,17,21,46,10.504,0.8382,-0.09,-0.509,0.1733
0.001,0.004,-0.008,2.7,-1.2,-0.8,1023,2018,5,17,21,46,10.509,0.8379,-0.0901,-0.5095,0.1734
-0.001,0.001,-0.003,2.8,-0.6,-0.8,1023,2018,5,17,21,46,10.523,0.8376,-0.09,-0.51,0.1735
0.003,0.006,-0.003,2.9,0.2,-0.2,1023,2018,5,17,21,46,10.541,0.8373,-0.0901,-0.5104,0.1737
0.001,0.011,-0.007,2.9,0.7,-0.1,1023,2018,5,17,21,46,10.565,0.837,-0.0897,-0.5108,0.1738
0.003,0.007,-0.005,3.2,0.4,-0.4,0,2018,5,17,21,46,10.601,0.8367,-0.0895,-0.5113,0.174
0.012,0.014,-0.004,2.9,0.3,-0.5,0,2018,5,17,21,46,10.625,0.8365,-0.0893,-0.5117,0.1742
0.015,0.004,-0.002,2.9,0,-0.7,0,2018,5,17,21,46,10.629,0.8362,-0.0893,-0.5121,0.1744
0.018,-0.002,-0.002,3.4,0.2,-1,0,2018,5,17,21,46,10.644,0.8359,-0.0891,-0.5125,0.1747
0.024,-0.003,-0.006,3.8,1,-1.1,0,2018,5,17,21,46,10.681,0.8356,-0.0892,-0.5129,0.1751
0.023,0.002,0,4.1,1.9,-1.3,0,2018,5,17,21,46,10.701,0.8352,-0.089,-0.5134,0.1756
0.022,0.009,0.008,4.5,2.2,-1.2,0,2018,5,17,21,46,10.707,0.8348,-0.0887,-0.5138,0.1762
0.026,0.012,0.009,4.6,1.3,-1.2,0,2018,5,17,21,46,10.744,0.8345,-0.0883,-0.5142,0.1767
0.023,0.015,0.007,4.8,-0.1,-1.2,0,2018,5,17,21,46,10.767,0.8342,-0.0882,-0.5147,0.1771
0.016,0.01,0.016,5.1,-0.2,-1,0,2018,5,17,21,46,10.772,0.8338,-0.0879,-0.5153,0.1773
0.022,0.015,0.003,5.9,-0.1,-1.1,0,2018,5,17,21,46,10.785,0.8333,-0.0878,-0.5159,0.1776
0.027,0.007,0.002,7.6,-0.7,-1.3,1023,2018,5,17,21,46,10.821,0.8327,-0.0876,-0.5168,0.1779
0.018,0.003,0.012,8.8,-1.1,-1.6,1023,2018,5,17,21,46,10.844,0.832,-0.0876,-0.5179,0.1783
0.017,-0.005,0.024,9.3,-1.1,-2.2,1023,2018,5,17,21,46,10.85,0.8312,-0.0875,-0.519,0.1787
0.021,-0.005,0.019,9.8,0.3,-2.7,1023,2018,5,17,21,46,10.867,0.8303,-0.0876,-0.5201,0.1794
0.031,0,0.004,10.7,2.1,-3.2,1023,2018,5,17,21,46,10.904,0.8294,-0.0874,-0.5213,0.1802
0.041,0.02,-0.007,12.6,2.9,-3.4,1023,2018,5,17,21,46,10.927,0.8283,-0.0868,-0.5228,0.1812
0.047,0.034,-0.011,14.2,0,-3.8,1023,2018,5,17,21,46,10.932,0.8271,-0.0866,-0.5245,0.1822
0.049,0.029,-0.019,15.8,-5.6,-4.4,1023,2018,5,17,21,46,10.948,0.8256,-0.0868,-0.5266,0.1828
0.045,0.009,-0.02,17.2,-10,-5.6,1023,2018,5,17,21,46,10.97,0.8238,-0.0878,-0.5291,0.1831
0.033,-0.009,-0.004,17.8,-10.3,-6.6,1023,2018,5,17,21,46,10.989,0.8218,-0.0896,-0.5318,0.1835
0.02,-0.018,0.002,18,-7.6,-7.2,1023,2018,5,17,21,46,11.012,0.8197,-0.0914,-0.5344,0.1842
0.018,-0.002,0.006,18.1,-4.1,-7.9,1023,2018,5,17,21,46,11.03,0.8177,-0.0924,-0.5369,0.1852
0.017,0.008,0.011,18.7,-3.6,-9.1,1023,2018,5,17,21,46,11.052,0.8157,-0.0933,-0.5394,0.1865
0.023,0.024,0.001,19.8,-4.7,-10.2,1023,2018,5,17,21,46,11.069,0.8136,-0.0941,-0.5419,0.1879
0.023,0.021,-0.01,21.5,-6.7,-11,0,2018,5,17,21,46,11.086,0.8113,-0.095,-0.5449,0.1891
0.007,0.013,-0.012,23.3,-7.2,-11.6,0,2018,5,17,21,46,11.109,0.8086,-0.0962,-0.5482,0.1904
0,0.002,-0.011,24.7,-5.9,-11.6,0,2018,5,17,21,46,11.13,0.8057,-0.0975,-0.5517,0.1919
-0.004,0.011,-0.012,25.6,-3.8,-11.3,0,2018,5,17,21,46,11.147,0.8027,-0.0984,-0.5553,0.1935
-0.007,0.033,-0.012,25.6,-2.4,-10,0,2018,5,17,21,46,11.169,0.7998,-0.0986,-0.5589,0.1951
-0.013,0.031,-0.001,24.8,-2.8,-8.2,0,2018,5,17,21,46,11.206,0.797,-0.0987,-0.5625,0.1964
-0.011,0.027,0.003,23.4,-3,-6.5,0,2018,5,17,21,46,11.229,0.7943,-0.0986,-0.5659,0.1974
-0.003,0.037,-0.001,22.3,-3.5,-4.7,0,2018,5,17,21,46,11.233,0.7919,-0.0985,-0.5691,0.1981
0.006,0.046,-0.011,22.6,-7.1,-4.1,0,2018,5,17,21,46,11.251,0.7894,-0.0984,-0.5724,0.1983
0.01,0.038,-0.022,23.4,-13.3,-4.7,0,2018,5,17,21,46,11.274,0.7868,-0.099,-0.5759,0.1981
0.006,0.011,-0.022,24.4,-18.8,-6.2,0,2018,5,17,21,46,11.291,0.7839,-0.1009,-0.5798,0.1976
0.003,-0.028,-0.022,24.7,-21,-8.3,0,2018,5,17,21,46,11.309,0.7806,-0.1036,-0.5839,0.197
-0.005,-0.06,-0.011,24.6,-17.6,-9.8,0,2018,5,17,21,46,11.33,0.7772,-0.1067,-0.5879,0.197
-0.016,-0.07,0.017,23.2,-12.4,-11.6,1023,2018,5,17,21,46,11.349,0.774,-0.1094,-0.5914,0.1978
-0.018,-0.069,0.026,21.3,-9.5,-14.6,1023,2018,5,17,21,46,11.372,0.7709,-0.1118,-0.5944,0.1992
0.006,-0.03,0.009,20.7,-6.2,-16.1,1023,2018,5,17,21,46,11.409,0.768,-0.1141,-0.597,0.2013
0.019,0.016,-0.004,22,-1.9,-14.5,1023,2018,5,17,21,46,11.43,0.7651,-0.1155,-0.5997,0.2035
0.041,0.04,-0.002,22.1,2.9,-12.1,1023,2018,5,17,21,46,11.434,0.7624,-0.1157,-0.6024,0.2057
0.033,0.069,0.01,23.3,3.5,-9.7,1023,2018,5,17,21,46,11.452,0.7598,-0.1152,-0.6051,0.2078
0.036,0.039,0.004,26.1,-2.2,-9.9,1023,2018,5,17,21,46,11.489,0.7569,-0.1149,-0.6081,0.2096
0.01,0.008,0.003,27.2,-5.8,-10.2,1023,2018,5,17,21,46,11.512,0.7536,-0.1155,-0.6116,0.211
0.006,-0.025,0.009,26.5,-5.2,-11.1,1023,2018,5,17,21,46,11.517,0.7502,-0.1164,-0.6151,0.2125
0.025,-0.024,0.002,25.7,-0.2,-11.9,1023,2018,5,17,21,46,11.532,0.7468,-0.1172,-0.6183,0.2145
0.034,-0.024,-0.01,26.2,5.8,-9.8,1023,2018,5,17,21,46,11.555,0.7435,-0.1173,-0.6214,0.2169
0.026,0.02,-0.009,25.9,12.7,-5.9,1023,2018,5,17,21,46,11.577,0.7405,-0.1159,-0.6243,0.2197
0.015,0.017,0.001,25.8,15.8,-3.6,1023,2018,5,17,21,46,11.593,0.7377,-0.1133,-0.6272,0.2223
0.016,0.01,0.005,25.1,14.9,-3,1023,2018,5,17,21,46,11.611,0.7352,-0.1105,-0.6297,0.2249
0.014,0.016,0.01,24,7.9,-4.3,1023,2018,5,17,21,46,11.633,0.7327,-0.1083,-0.6322,0.2272
0.008,0.001,0.005,24.1,-0.5,-6.3,1023,2018,5,17,21,46,11.673,0.7299,-0.1074,-0.6349,0.2288
0.003,-0.002,0.009,24.8,-4.5,-6,0,2018,5,17,21,46,11.675,0.727,-0.1072,-0.638,0.2297
0.005,-0.007,0.006,27.4,-8.1,-6.2,0,2018,5,17,21,46,11.692,0.7237,-0.1076,-0.6414,0.2304
0.028,0.008,-0.005,29.1,-7.8,-5.5,0,2018,5,17,21,46,11.714,0.7201,-0.1081,-0.6452,0.2309
0.052,0.035,-0.005,32.3,-8.1,-3.6,0,2018,5,17,21,46,11.751,0.7163,-0.1082,-0.6493,0.2312
0.072,0.029,-0.005,36.5,-8.3,-0.5,0,2018,5,17,21,46,11.774,0.7122,-0.108,-0.6538,0.2312
0.064,0.03,0.001,40.7,-7.7,2.5,0,2018,5,17,21,46,11.778,0.7076,-0.1074,-0.6589,0.231
0.066,0.006,0.012,43.2,-3.1,4.7,0,2018,5,17,21,46,11.812,0.7029,-0.106,-0.6643,0.2309
0.054,-0.011,0.021,46.3,1.3,7,0,2018,5,17,21,46,11.836,0.698,-0.1038,-0.6696,0.2313
0.051,-0.007,0.03,47.9,10.7,11.1,0,2018,5,17,21,46,11.84,0.693,-0.1003,-0.675,0.232
0.06,0.024,0.036,47.7,18.3,13.6,0,2018,5,17,21,46,11.854,0.6883,-0.0951,-0.6801,0.2334
0.08,0.04,0.042,49.1,24.9,15,0,2018,5,17,21,46,11.872,0.6837,-0.0887,-0.6849,0.2352
0.076,0.061,0.048,52.2,28.9,20.2,0,2018,5,17,21,46,11.895,0.6792,-0.0809,-0.6897,0.2373
0.036,-0.005,0.035,56.1,25.2,21,0,2018,5,17,21,46,11.914,0.6742,-0.0727,-0.6949,0.2389
0.007,-0.017,0.052,56.7,27.7,22.2,1023,2018,5,17,21,46,11.937,0.6688,-0.0648,-0.7004,0.2405
-0.007,-0.026,0.049,55.1,34.8,24.5,1023,2018,5,17,21,46,11.956,0.6635,-0.0557,-0.7055,0.2424
-0.028,-0.034,0.072,50.3,41.9,27.7,1023,2018,5,17,21,46,11.979,0.6587,-0.0456,-0.7099,0.2448
-0.068,-0.045,0.089,45.5,49.5,31.5,1023,2018,5,17,21,46,11.995,0.6548,-0.0345,-0.7131,0.2478
-0.094,-0.019,0.076,39.2,49.3,36.7,1023,2018,5,17,21,46,12.018,0.6518,-0.0225,-0.7154,0.2505
-0.097,0.022,0.057,31.5,45.1,40.2,1023,2018,5,17,21,46,12.037,0.6497,-0.0103,-0.717,0.2521
-0.102,0.047,0.049,23.8,40,44.2,0,2018,5,17,21,46,12.06,0.6486,0.0016,-0.718,0.2523
-0.119,0.054,0.032,15.9,30.8,45.8,0,2018,5,17,21,46,12.076,0.6485,0.0128,-0.7183,0.2512
-0.163,0.021,0.027,5.6,21,44.8,0,2018,5,17,21,46,12.094,0.6494,0.0224,-0.7181,0.2488
-0.172,0.037,0.008,-4.8,7.3,43.9,0,2018,5,17,21,46,12.117,0.6516,0.0301,-0.7171,0.2452
-0.164,0.048,-0.017,-14.5,-9,42.3,0,2018,5,17,21,46,12.135,0.6549,0.0355,-0.7157,0.2398
-0.157,0.061,-0.04,-22.8,-26.1,40.1,0,2018,5,17,21,46,12.159,0.6591,0.0385,-0.7141,0.2323
-0.136,0.063,-0.066,-28.7,-43.8,37.3,0,2018,5,17,21,46,12.177,0.664,0.0387,-0.7125,0.223
-0.11,0.057,-0.114,-31.6,-59.7,35.5,0,2018,5,17,21,46,12.198,0.6692,0.0365,-0.7111,0.2119
-0.086,0.061,-0.138,-31.4,-73.1,33.2,0,2018,5,17,21,46,12.235,0.6748,0.0317,-0.7096,0.1998
-0.069,0.045,-0.166,-28.5,-80.6,31.6,0,2018,5,17,21,46,12.257,0.68,0.0255,-0.7085,0.1865
-0.053,0.03,-0.184,-23.5,-79.8,31,0,2018,5,17,21,46,12.262,0.6845,0.0189,-0.7078,0.1729
-0.04,0.018,-0.205,-16.9,-72.2,32.8,0,2018,5,17,21,46,12.278,0.6881,0.013,-0.7075,0.1597
-0.031,0.003,-0.21,-9.3,-58.6,36.6,0,2018,5,17,21,46,12.301,0.6908,0.0091,-0.7077,0.1475
-0.025,-0.008,-0.22,-1.4,-40,41.7,0,2018,5,17,21,46,12.316,0.6925,0.0078,-0.7082,0.1368
-0.024,-0.017,-0.217,5.9,-19.1,47.3,0,2018,5,17,21,46,12.335,0.6932,0.0099,-0.7091,0.1278
-0.024,-0.022,-0.214,12.3,0.8,52.8,0,2018,5,17,21,46,12.358,0.6932,0.0151,-0.7103,0.1207
-0.029,-0.026,-0.208,18.1,18.3,57.4,1023,2018,5,17,21,46,12.376,0.6924,0.0233,-0.7118,0.1154
-0.037,-0.027,-0.188,22.1,31.6,60.6,1023,2018,5,17,21,46,12.4,0.6909,0.0338,-0.7134,0.1116
-0.048,-0.032,-0.17,25.6,39.7,61.6,1023,2018,5,17,21,46,12.417,0.6887,0.046,-0.7152,0.1087
-0.043,-0.038,-0.138,27.4,42.2,60.2,1023,2018,5,17,21,46,12.44,0.6852,0.0586,-0.718,0.1066
-0.045,-0.047,-0.105,28.3,40.3,56.8,1023,2018,5,17,21,46,12.458,0.6814,0.0709,-0.7207,0.105
-0.051,-0.057,-0.081,28,35.8,52.1,1023,2018,5,17,21,46,12.481,0.6777,0.0821,-0.7233,0.1035
-0.074,-0.075,-0.058,25.9,31.4,46.6,1023,2018,5,17,21,46,12.499,0.6742,0.0921,-0.7255,0.1021
-0.1,-0.099,-0.051,24.3,29.9,40.6,1023,2018,5,17,21,46,12.522,0.6709,0.1008,-0.7275,0.1012
-0.095,-0.127,-0.017,23.4,35.4,33.9,1023,2018,5,17,21,46,12.541,0.6677,0.1089,-0.7293,0.1013
-0.075,-0.134,0.037,19.8,48,25.4,1023,2018,5,17,21,46,12.564,0.6646,0.1169,-0.7305,0.1038
-0.055,-0.114,0.057,13.6,61.8,14.7,1023,2018,5,17,21,46,12.58,0.6619,0.1252,-0.7308,0.1094
-0.042,-0.075,0.05,4.8,68.6,2.9,1023,2018,5,17,21,46,12.598,0.6598,0.1333,-0.73,0.1175
-0.038,-0.05,0.035,-3.4,67.7,-8.2,1023,2018,5,17,21,46,12.621,0.6583,0.1402,-0.7284,0.1272
-0.027,-0.031,0.039,-11.4,64.1,-16.5,1023,2018,5,17,21,46,12.64,0.6576,0.1456,-0.7261,0.1377
-0.024,-0.008,0.043,-18.6,58.1,-20.2,1023,2018,5,17,21,46,12.678,0.6578,0.1497,-0.723,0.1483
0.002,0.003,0.028,-22.8,48.7,-21,1023,2018,5,17,21,46,12.7,0.6588,0.1525,-0.7194,0.1581
0.038,0.008,0.015,-23.7,38.5,-20,0,2018,5,17,21,46,12.705,0.6601,0.1541,-0.7159,0.1667
0.071,0.005,0.019,-23.1,29.5,-17.2,0,2018,5,17,21,46,12.722,0.6617,0.155,-0.7125,0.1737
0.081,0,0.024,-21.9,23.1,-13.5,0,2018,5,17,21,46,12.745,0.6635,0.1553,-0.7094,0.1795
0.091,-0.009,0.009,-21.7,18,-9.4,0,2018,5,17,21,46,12.763,0.6653,0.1554,-0.7065,0.1841
0.11,-0.015,0.005,-22.4,13.4,-5.9,0,2018,5,17,21,46,12.784,0.6673,0.1556,-0.7036,0.1877
0.117,-0.021,-0.001,-23.3,9.1,-3.2,0,2018,5,17,21,46,12.802,0.6696,0.1555,-0.7008,0.1904
0.096,-0.043,0.006,-24.1,6.2,-1.4,0,2018,5,17,21,46,12.825,0.6721,0.155,-0.6979,0.1925
0.082,-0.059,0.01,-25.8,6.8,-0.8,0,2018,5,17,21,46,12.841,0.6748,0.1545,-0.6948,0.1946
0.101,-0.061,0,-27.1,6.4,-2.4,0,2018,5,17,21,46,12.86,0.6777,0.1537,-0.6915,0.1968
0.106,-0.056,-0.018,-27.3,4.6,-6.3,0,2018,5,17,21,46,12.88,0.6805,0.1523,-0.6884,0.1993
0.086,-0.059,-0.02,-26.5,2.9,-10.6,1023,2018,5,17,21,46,12.901,0.683,0.1504,-0.6855,0.2019
0.062,-0.064,-0.022,-25.3,3.6,-13.7,1023,2018,5,17,21,46,12.922,0.6853,0.148,-0.6829,0.2049
0.044,-0.06,-0.029,-23.7,7.1,-15.4,1023,2018,5,17,21,46,12.958,0.6872,0.1456,-0.6804,0.2084
0.023,-0.064,-0.036,-21.8,11.8,-16.2,1023,2018,5,17,21,46,12.979,0.6887,0.1437,-0.678,0.2125
0.008,-0.05,-0.043,-20.6,16.8,-17,1023,2018,5,17,21,46,12.984,0.6898,0.1424,-0.6757,0.2171
0.002,-0.042,-0.045,-19.2,21.1,-18.6,1023,2018,5,17,21,46,13.02,0.6906,0.1415,-0.6734,0.2223
0.002,-0.028,-0.043,-18.1,24.5,-20.8,1023,2018,5,17,21,46,13.044,0.691,0.1411,-0.6711,0.228
0.003,-0.014,-0.051,-17,26.8,-22.3,1023,2018,5,17,21,46,13.048,0.6912,0.1411,-0.6689,0.234
-0.008,-0.004,-0.038,-16.1,28.8,-23.5,1023,2018,5,17,21,46,13.064,0.6911,0.1412,-0.6666,0.2405
-0.004,0.011,-0.037,-15.5,29,-24.4,1023,2018,5,17,21,46,13.085,0.6909,0.1416,-0.6644,0.247
0.015,0.036,-0.034,-15.2,27.8,-26.1,1023,2018,5,17,21,46,13.124,0.6906,0.1418,-0.6622,0.2536
0.025,0.054,-0.029,-14.7,24.4,-27.7,1023,2018,5,17,21,46,13.124,0.6903,0.1417,-0.66,0.2599
0.04,0.079,-0.024,-14.1,20.4,-28.4,0,2018,5,17,21,46,13.147,0.6901,0.141,-0.658,0.2658
0.048,0.09,-0.001,-13.1,15,-27.7,0,2018,5,17,21,46,13.165,0.6901,0.1401,-0.6561,0.2711
0.084,0.082,-0.01,-11.9,10.5,-25.6,0,2018,5,17,21,46,13.183,0.6901,0.1386,-0.6546,0.2756
0.116,0.077,-0.029,-9.4,9.5,-20.7,0,2018,5,17,21,46,13.206,0.6901,0.1372,-0.6533,0.2793
0.09,0.074,-0.028,-5.6,7.2,-16.2,0,2018,5,17,21,46,13.242,0.6899,0.1362,-0.6524,0.2824
0.058,0.077,-0.016,-4.1,4,-10.8,0,2018,5,17,21,46,13.265,0.6897,0.1356,-0.6519,0.2844
0.055,0.074,-0.018,-3.4,-0.1,-6.2,0,2018,5,17,21,46,13.27,0.6897,0.1354,-0.6515,0.2853
0.035,0.057,-0.013,-2.2,-4.5,-3.5,0,2018,5,17,21,46,13.287,0.69,0.1349,-0.6513,0.2853
0.017,0.04,0.001,-0.8,-6,-1.2,0,2018,5,17,21,46,13.31,0.6902,0.1343,-0.6514,0.2847
0,0.018,0.027,0.2,-5.5,0,0,2018,5,17,21,46,13.347,0.6906,0.1334,-0.6514,0.2841
-0.017,-0.005,0.024,0.1,-2.8,0.4,0,2018,5,17,21,46,13.347,0.6909,0.1329,-0.6514,0.2837
-0.004,-0.001,0.012,-1.3,0.4,-0.5,0,2018,5,17,21,46,13.368,0.6911,0.1328,-0.6512,0.2837
0.005,-0.001,0.002,-2.2,2.5,-2.9,0,2018,5,17,21,46,13.385,0.6912,0.1326,-0.6508,0.2843
-0.007,-0.002,0.008,-2,4.4,-5.1,0,2018,5,17,21,46,13.408,0.6913,0.1323,-0.6504,0.2854
-0.019,-0.003,0.024,-2.2,6.8,-6.9,0,2018,5,17,21,46,13.425,0.6912,0.1321,-0.6499,0.287
-0.006,0.006,0.016,-2.1,8.7,-7.1,1023,2018,5,17,21,46,13.444,0.6911,0.1319,-0.6491,0.2889
0.012,0.011,0.003,-1.7,10.7,-6.1,1023,2018,5,17,21,46,13.482,0.6908,0.1324,-0.6485,0.2909
0.002,0.016,0.001,-0.2,12.7,-3,1023,2018,5,17,21,46,13.501,0.6905,0.1332,-0.6478,0.2928
-0.021,0.011,0.011,0.8,16.1,1.1,1023,2018,5,17,21,46,13.508,0.6901,0.1349,-0.647,0.2946
-0.03,0.015,0.011,1.9,18.5,5.1,1023,2018,5,17,21,46,13.545,0.6898,0.1375,-0.646,0.2961
-0.02,0.013,0.006,2.6,19.6,7.7,1023,2018,5,17,21,46,13.566,0.6895,0.1409,-0.6451,0.2974
-0.021,0.013,-0.008,2.9,20.6,8.7,1023,2018,5,17,21,46,13.569,0.6892,0.1445,-0.6441,0.2985
-0.019,0.004,-0.005,2.4,24,9.7,1023,2018,5,17,21,46,13.603,0.6888,0.1484,-0.643,0.2998
-0.01,0.011,-0.01,2.1,28,10.7,1023,2018,5,17,21,46,13.624,0.6884,0.1529,-0.6417,0.3014
-0.022,0.013,-0.021,2.9,31.4,12.2,1023,2018,5,17,21,46,13.626,0.6878,0.1581,-0.6402,0.3032
-0.035,-0.005,-0.019,3.1,34.5,13.5,1023,2018,5,17,21,46,13.664,0.6871,0.1639,-0.6385,0.3052
-0.028,-0.001,-0.026,3.5,36.6,13.8,1023,2018,5,17,21,46,13.685,0.6863,0.1697,-0.6368,0.3075
-0.015,-0.001,-0.025,3.3,38.1,12.7,1023,2018,5,17,21,46,13.688,0.6853,0.176,-0.6349,0.3099
0.002,0.001,-0.031,2.4,38.8,10.5,0,2018,5,17,21,46,13.724,0.6842,0.1821,-0.633,0.3127
0.012,-0.002,-0.03,1.3,36.8,9,0,2018,5,17,21,46,13.748,0.6832,0.1879,-0.6311,0.3156
0.017,-0.012,-0.028,-0.4,33.8,7.9,0,2018,5,17,21,46,13.751,0.6822,0.1929,-0.629,0.3185
0.031,-0.008,-0.029,-1.8,29.7,6.7,0,2018,5,17,21,46,13.77,0.6815,0.1975,-0.6271,0.3212
0.04,-0.005,-0.035,-3.2,24.1,4.8,0,2018,5,17,21,46,13.793,0.681,0.2009,-0.6252,0.3237
0.037,-0.015,-0.042,-4.3,18.9,3.2,0,2018,5,17,21,46,13.811,0.6807,0.2035,-0.6237,0.3257
0.029,-0.024,-0.041,-5.5,14.4,2.7,0,2018,5,17,21,46,13.834,0.6806,0.2053,-0.6223,0.3275
0.02,-0.026,-0.045,-6.7,9.7,2.3,0,2018,5,17,21,46,13.852,0.6806,0.2067,-0.6211,0.3288
0.026,-0.031,-0.048,-7.8,5,1.1,0,2018,5,17,21,46,13.869,0.6809,0.2071,-0.6201,0.3298
0.025,-0.036,-0.058,-8.2,0.4,-1.1,0,2018,5,17,21,46,13.89,0.6813,0.2066,-0.6194,0.3305
0.028,-0.038,-0.063,-7.6,-1.9,-3.6,0,2018,5,17,21,46,13.908,0.6815,0.2057,-0.6192,0.3311
0.029,-0.037,-0.063,-6.9,-1.7,-5.8,0,2018,5,17,21,46,13.931,0.6817,0.2042,-0.6191,0.3319
0.032,-0.035,-0.067,-5.6,-1.1,-7.4,0,2018,5,17,21,46,13.951,0.6816,0.2027,-0.6192,0.3329
0.03,-0.024,-0.076,-4,-1.1,-8.8,1023,2018,5,17,21,46,13.972,0.6811,0.2014,-0.6195,0.3339
0.033,-0.018,-0.077,-2.3,-0.5,-9.6,1023,2018,5,17,21,46,13.989,0.6805,0.1999,-0.6201,0.3351
0.035,-0.012,-0.075,-0.3,0.8,-9.9,1023,2018,5,17,21,46,14.012,0.6795,0.1988,-0.6208,0.3363
0.024,0.005,-0.065,1.9,1.9,-10,1023,2018,5,17,21,46,14.049,0.6784,0.198,-0.6216,0.3375
0.023,0.015,-0.068,3.7,1.9,-9.4,1023,2018,5,17,21,46,14.072,0.6771,0.1974,-0.6226,0.3387
0.021,0.022,-0.061,4.9,1,-8.4,1023,2018,5,17,21,46,14.077,0.6757,0.1971,-0.6238,0.3395
0.015,0.036,-0.053,5.8,-0.7,-7.7,1023,2018,5,17,21,46,14.093,0.6745,0.1967,-0.6249,0.3401
0.006,0.047,-0.041,6.5,-3.7,-7.1,1023,2018,5,17,21,46,14.115,0.6733,0.1963,-0.6263,0.3402
0.001,0.06,-0.039,6.7,-7.7,-6.2,1023,2018,5,17,21,46,14.132,0.6724,0.1956,-0.6277,0.3398
-0.003,0.069,-0.027,7.1,-13.1,-5,1023,2018,5,17,21,46,14.168,0.6717,0.1945,-0.6293,0.3387
-0.008,0.079,-0.01,7.1,-19.6,-3.6,1023,2018,5,17,21,46,14.189,0.6714,0.193,-0.6312,0.3367
-0.022,0.089,0.011,7,-29.5,-2.7,1023,2018,5,17,21,46,14.193,0.6716,0.1906,-0.6333,0.3337
-0.029,0.086,0.02,6.3,-39.6,-1.6,1023,2018,5,17,21,46,14.229,0.6723,0.187,-0.6358,0.3295
-0.042,0.076,0.023,4.7,-45.7,0.9,0,2018,5,17,21,46,14.252,0.6735,0.1827,-0.6386,0.3242
-0.042,0.064,0.027,2.8,-48.8,3.4,0,2018,5,17,21,46,14.254,0.6751,0.1778,-0.6413,0.3182
-0.038,0.055,0.022,0.6,-49.4,5.9,0,2018,5,17,21,46,14.291,0.677,0.1728,-0.6437,0.3118
-0.017,0.037,0.011,-0.2,-48.6,7.7,0,2018,5,17,21,46,14.313,0.6792,0.1678,-0.6459,0.3053
0.001,0.007,-0.004,1.4,-43.1,8.6,0,2018,5,17,21,46,14.318,0.681,0.1636,-0.6481,0.2989
0.02,0.007,-0.014,3.5,-34.5,11.3,0,2018,5,17,21,46,14.334,0.6823,0.1602,-0.6501,0.2933
0.036,0.001,-0.017,5.7,-24.2,16.3,0,2018,5,17,21,46,14.373,0.6832,0.1584,-0.6519,0.2882
0.047,-0.004,-0.019,8.7,-11.7,22.7,0,2018,5,17,21,46,14.373,0.6838,0.1585,-0.6531,0.2838
0.052,0.008,-0.005,12,-2,28.8,0,2018,5,17,21,46,14.396,0.684,0.161,-0.654,0.2798
0.044,0.01,0.002,15.1,2.5,34.2,0,2018,5,17,21,46,14.415,0.684,0.1654,-0.6547,0.2757
0.039,0.003,0.007,17.8,4.3,38.9,0,2018,5,17,21,46,14.432,0.6839,0.1705,-0.6553,0.2713
0.027,-0.007,0.005,19,4.7,42.6,0,2018,5,17,21,46,14.455,0.6836,0.1765,-0.656,0.2665
0.007,-0.019,0.016,19.5,4.3,45.3,0,2018,5,17,21,46,14.493,0.6834,0.1826,-0.6566,0.2614
-0.007,-0.03,0.019,19,4,46.9,1023,2018,5,17,21,46,14.516,0.6832,0.1888,-0.6571,0.256
-0.022,-0.042,0.026,18.1,4.9,46.7,1023,2018,5,17,21,46,14.521,0.6832,0.195,-0.6574,0.2507
-0.042,-0.054,0.031,16.3,6.6,45,1023,2018,5,17,21,46,14.535,0.6831,0.2013,-0.6576,0.2457
-0.065,-0.058,0.041,13.8,7.6,41.1,1023,2018,5,17,21,46,14.558,0.683,0.2072,-0.6574,0.2413
-0.066,-0.057,0.063,11.3,-0.2,33,1023,2018,5,17,21,46,14.595,0.6832,0.2119,-0.6571,0.2374
-0.07,-0.063,0.067,8.4,-15.7,21.5,1023,2018,5,17,21,46,14.617,0.6838,0.2138,-0.6573,0.2334
-0.065,-0.08,0.065,5,-29.7,9.2,1023,2018,5,17,21,46,14.622,0.6848,0.2122,-0.6582,0.2293
-0.038,-0.098,0.043,1.3,-37.5,-1.6,1023,2018,5,17,21,46,14.637,0.686,0.2079,-0.6597,0.2255
-0.014,-0.126,0.024,-1.9,-34.8,-9.1,1023,2018,5,17,21,46,14.66,0.6871,0.2018,-0.6613,0.2227
0.007,-0.14,0.023,-3.5,-21.7,-11.5,1023,2018,5,17,21,46,14.678,0.6879,0.196,-0.6626,0.2218
0.013,-0.133,0.02,-4,-3.8,-10.2,1023,2018,5,17,21,46,14.713,0.6882,0.192,-0.6631,0.2228
0.026,-0.098,0.021,-4.3,9.9,-8.3,1023,2018,5,17,21,46,14.713,0.6881,0.1904,-0.6628,0.2253
0.035,-0.074,0.008,-4,17.2,-6.5,1023,2018,5,17,21,46,14.736,0.6878,0.1903,-0.662,0.2286
0.039,-0.059,-0.001,-3.6,20.3,-5.3,0,2018,5,17,21,46,14.774,0.6872,0.1912,-0.6611,0.2322
0.029,-0.041,0.003,-3.6,20.5,-4.7,0,2018,5,17,21,46,14.798,0.6866,0.1928,-0.6601,0.2355
0.021,-0.029,0.001,-3.7,19.3,-4.9,0,2018,5,17,21,46,14.802,0.6861,0.1944,-0.659,0.2387
0.008,-0.023,0.008,-3.6,17.9,-5.7,0,2018,5,17,21,46,14.82,0.6856,0.1958,-0.658,0.2418
-0.006,-0.017,0.002,-4.5,16.8,-7,0,2018,5,17,21,46,14.857,0.6851,0.1968,-0.6571,0.2448
-0.002,-0.005,0.004,-6.1,15.7,-9,0,2018,5,17,21,46,14.88,0.6848,0.1976,-0.656,0.2479
-0.012,0.01,0.001,-7.6,14.8,-11,0,2018,5,17,21,46,14.884,0.6846,0.1981,-0.6549,0.251
-0.015,0.02,-0.002,-9,12.9,-12.7,0,2018,5,17,21,46,14.899,0.6846,0.1983,-0.6537,0.2542
-0.017,0.028,-0.004,-9.6,11.3,-13.8,0,2018,5,17,21,46,14.917,0.6847,0.198,-0.6524,0.2573
-0.009,0.039,-0.009,-9.6,10.5,-14.1,0,2018,5,17,21,46,14.94,0.6848,0.1977,-0.6512,0.2603
-0.011,0.046,-0.01,-9.3,10.7,-13.4,0,2018,5,17,21,46,14.957,0.6848,0.1974,-0.6501,0.2631
-0.005,0.054,-0.023,-8.8,11,-11.7,0,2018,5,17,21,46,14.98,0.6849,0.1975,-0.649,0.2657
0.01,0.067,-0.023,-8,9.9,-9.7,0,2018,5,17,21,46,15.001,0.6849,0.1977,-0.6479,0.268
0.014,0.068,-0.023,-7.2,7.1,-8,1023,2018,5,17,21,46,15.037,0.6851,0.1979,-0.6469,0.2698
0.013,0.077,-0.026,-6.7,3.3,-5.7,1023,2018,5,17,21,46,15.06,0.6854,0.198,-0.6461,0.271
0.017,0.071,-0.038,-5.7,-0.6,-3.4,1023,2018,5,17,21,46,15.065,0.6859,0.1979,-0.6455,0.2713
0.018,0.07,-0.032,-4.1,-3.8,-0.6,1023,2018,5,17,21,46,15.084,0.6864,0.1978,-0.6452,0.2709
0.014,0.069,-0.033,-2.8,-6.1,1.9,1023,2018,5,17,21,46,15.101,0.687,0.1977,-0.645,0.2698
0.013,0.063,-0.035,-1.7,-8.9,4.4,1023,2018,5,17,21,46,15.124,0.6876,0.1977,-0.6451,0.2681
0.014,0.054,-0.041,-0.7,-11.1,6.1,1023,2018,5,17,21,46,15.16,0.6882,0.1974,-0.6454,0.2659
0.01,0.046,-0.038,0.7,-12.8,7.8,1023,2018,5,17,21,46,15.16,0.6888,0.1972,-0.6459,0.2633
0.005,0.04,-0.033,1.8,-12.6,9.4,1023,2018,5,17,21,46,15.183,0.6894,0.1971,-0.6465,0.2604
0.009,0.031,-0.036,3.2,-12.9,10.6,1023,2018,5,17,21,46,15.199,0.6899,0.197,-0.6472,0.2574
0.004,0.025,-0.034,4.4,-12.6,11.6,1023,2018,5,17,21,46,15.222,0.6903,0.1971,-0.648,0.2542
0,0.02,-0.03,5.3,-13.1,11.9,1023,2018,5,17,21,46,15.239,0.6905,0.1973,-0.6489,0.251
-0.003,0.014,-0.026,5.9,-13.6,12.1,1023,2018,5,17,21,46,15.262,0.6908,0.1973,-0.6499,0.2477
-0.005,0.003,-0.024,6.4,-13.1,12.6,0,2018,5,17,21,46,15.299,0.691,0.1974,-0.6509,0.2444
-0.005,-0.003,-0.014,7.1,-12.2,12.5,0,2018,5,17,21,46,15.323,0.6911,0.1973,-0.6519,0.2413
-0.014,-0.005,-0.013,7.6,-12,12,0,2018,5,17,21,46,15.326,0.6912,0.1975,-0.653,0.2382
-0.011,-0.01,-0.007,7.5,-12.2,11.1,0,2018,5,17,21,46,15.345,0.6912,0.1975,-0.654,0.2352
-0.009,-0.013,-0.002,7.6,-11.8,10,0,2018,5,17,21,46,15.381,0.6911,0.1974,-0.6551,0.2324
-0.005,-0.016,0.01,7.3,-10.6,8.9,0,2018,5,17,21,46,15.404,0.6911,0.1971,-0.6561,0.2298
-0.002,-0.019,0.017,6.8,-9.9,7.9,0,2018,5,17,21,46,15.409,0.6911,0.1969,-0.657,0.2276
0,-0.014,0.012,6.1,-9.7,6.4,0,2018,5,17,21,46,15.422,0.691,0.1966,-0.6579,0.2255
0.002,-0.019,0.021,5.7,-8.8,5.6,0,2018,5,17,21,46,15.459,0.691,0.1961,-0.6587,0.2237
0.008,-0.021,0.024,5.1,-8,5,0,2018,5,17,21,46,15.481,0.691,0.1956,-0.6593,0.2221
0.012,-0.017,0.029,4.6,-7.2,4.4,0,2018,5,17,21,46,15.486,0.691,0.1952,-0.6599,0.2207
0.015,-0.022,0.031,3.9,-7,3.7,0,2018,5,17,21,46,15.503,0.6911,0.1947,-0.6604,0.2194
0.025,-0.02,0.024,3.1,-6.2,2.7,0,2018,5,17,21,46,15.522,0.6912,0.1941,-0.6608,0.2184
0.025,-0.02,0.029,2.4,-5.2,1.1,0,2018,5,17,21,46,15.545,0.6913,0.1934,-0.6612,0.2176
0.02,-0.018,0.024,1.5,-4.2,-0.5,1023,2018,5,17,21,46,15.582,0.6914,0.1928,-0.6614,0.2172
0.008,-0.014,0.022,1,-2.7,-1.4,1023,2018,5,17,21,46,15.603,0.6915,0.1919,-0.6616,0.2171
-0.008,-0.011,0.027,0.4,-1.6,-1.4,1023,2018,5,17,21,46,15.607,0.6916,0.1914,-0.6616,0.2171
-0.029,0,0.025,0.3,-1.4,-1.9,1023,2018,5,17,21,46,15.624,0.6916,0.1909,-0.6617,0.2172
-0.035,0.002,0.015,-0.1,-2.7,-3,1023,2018,5,17,21,46,15.647,0.6918,0.1903,-0.6617,0.2174
-0.042,0.002,0.014,-0.7,-4,-4.6,1023,2018,5,17,21,46,15.663,0.6919,0.1894,-0.6618,0.2174
-0.039,0.001,0.016,-1.9,-3.8,-6.5,1023,2018,5,17,21,46,15.701,0.692,0.1883,-0.6619,0.2177
-0.028,0.008,0.013,-3.2,-1.7,-8.3,1023,2018,5,17,21,46,15.724,0.6922,0.1871,-0.6618,0.2182
-0.015,0.017,0.007,-4.4,-0.2,-9.9,1023,2018,5,17,21,46,15.729,0.6924,0.1859,-0.6616,0.2193
-0.003,0.024,0.002,-5.6,1.1,-11.1,1023,2018,5,17,21,46,15.747,0.6926,0.1848,-0.6613,0.2206
0.012,0.035,0.007,-6.2,0.9,-11.3,1023,2018,5,17,21,46,15.765,0.693,0.1836,-0.6607,0.2221
0.021,0.043,0.007,-6.7,-0.6,-10.8,0,2018,5,17,21,46,15.788,0.6934,0.1823,-0.6602,0.2235
0.024,0.048,-0.003,-6.7,-2.8,-9.4,0,2018,5,17,21,46,15.804,0.694,0.1809,-0.6596,0.2245
0.028,0.056,-0.011,-6.4,-5.6,-6.9,0,2018,5,17,21,46,15.828,0.6947,0.1795,-0.6591,0.2248
0.028,0.048,-0.013,-4.9,-8.6,-3.8,0,2018,5,17,21,46,15.846,0.6954,0.1782,-0.6589,0.2245
0.026,0.044,-0.013,-3.1,-10.2,-0.4,0,2018,5,17,21,46,15.868,0.6961,0.177,-0.6588,0.2234
0.023,0.04,-0.012,-1.3,-11,2.3,0,2018,5,17,21,46,15.904,0.6968,0.1759,-0.6589,0.2219
0.015,0.031,-0.007,0.7,-11.5,4.7,0,2018,5,17,21,46,15.927,0.6973,0.1753,-0.6592,0.2199
0.012,0.023,-0.002,1.8,-11.4,6.3,0,2018,5,17,21,46,15.931,0.6977,0.1747,-0.6597,0.2176
0.012,0.013,-0.002,2.4,-11.1,7,0,2018,5,17,21,46,15.949,0.698,0.1745,-0.6601,0.2152
0.01,0.006,0.001,2.7,-10,7.6,0,2018,5,17,21,46,15.966,0.6983,0.1744,-0.6606,0.2129
0.009,0.001,0.011,2.9,-8.6,8.2,0,2018,5,17,21,46,15.985,0.6986,0.1743,-0.661,0.2107
0.009,-0.001,0.012,3.1,-7.6,8.4,0,2018,5,17,21,46,16.008,0.6989,0.1744,-0.6613,0.2087
0.006,-0.003,0.006,3.1,-7.6,9,0,2018,5,17,21,46,16.027,0.6992,0.1745,-0.6617,0.2067
0.006,-0.005,0.008,2.6,-8.1,9,0,2018,5,17,21,46,16.05,0.6994,0.1747,-0.662,0.2047
0,-0.021,0.006,2,-8.6,8.1,1023,2018,5,17,21,46,16.066,0.6998,0.1745,-0.6623,0.2027
0,-0.024,0.001,1.3,-8.5,7.6,1023,2018,5,17,21,46,16.089,0.7001,0.1741,-0.6625,0.201
-0.001,-0.023,0.001,0.6,-8.6,6.9,1023,2018,5,17,21,46,16.108,0.7005,0.1737,-0.6627,0.1992
0,-0.022,0.003,0.1,-9,5.2,1023,2018,5,17,21,46,16.129,0.7009,0.1732,-0.6629,0.1976
0.002,-0.027,0,-0.5,-10,2.9,1023,2018,5,17,21,46,16.167,0.7014,0.1723,-0.6631,0.1962
0.003,-0.027,0,0,-10.4,0.5,1023,2018,5,17,21,46,16.187,0.7018,0.1708,-0.6634,0.195
0.001,-0.03,0.003,0.4,-9.2,-2,1023,2018,5,17,21,46,16.19,0.702,0.1694,-0.6638,0.1941
0.001,-0.026,0.005,1,-7.3,-4.3,1023,2018,5,17,21,46,16.205,0.702,0.1677,-0.6643,0.1938
0.002,-0.023,0.002,0.9,-6.4,-6.1,1023,2018,5,17,21,46,16.227,0.7019,0.166,-0.6648,0.1938
0.007,-0.021,0.006,0.9,-6.8,-7.7,1023,2018,5,17,21,46,16.263,0.7018,0.1643,-0.6654,0.194
0.01,-0.012,0.01,1.1,-9.2,-9.4,1023,2018,5,17,21,46,16.284,0.7016,0.162,-0.666,0.1943
0.022,-0.013,0.007,1.5,-14.1,-11.8,1023,2018,5,17,21,46,16.291,0.7015,0.1594,-0.6668,0.1943
0.036,-0.012,0.004,2.3,-19.1,-14.3,1023,2018,5,17,21,46,16.31,0.7013,0.1556,-0.6679,0.194
0.056,-0.017,0.002,3.1,-21.7,-16.3,1023,2018,5,17,21,46,16.33,0.701,0.1514,-0.6694,0.1934
0.069,-0.024,0.001,4.2,-21.4,-17.6,1023,2018,5,17,21,46,16.351,0.7005,0.1467,-0.6711,0.1931
0.056,-0.032,0.005,5.1,-19.2,-18.2,0,2018,5,17,21,46,16.388,0.6998,0.1422,-0.6728,0.1929
0.058,-0.028,0.001,5.1,-17.4,-18.6,0,2018,5,17,21,46,16.409,0.6989,0.1379,-0.6746,0.1931
0.062,-0.019,-0.004,5.1,-17,-19.2,0,2018,5,17,21,46,16.411,0.698,0.1338,-0.6763,0.1934
0.063,-0.022,-0.004,5.6,-16.5,-18.9,0,2018,5,17,21,46,16.448,0.697,0.1297,-0.678,0.1937
0.054,-0.021,-0.006,6,-14.5,-17.4,0,2018,5,17,21,46,16.448,0.6959,0.1257,-0.6797,0.1941
0.037,-0.021,-0.007,5.6,-11.5,-14.7,0,2018,5,17,21,46,16.471,0.6948,0.1224,-0.6813,0.1945
0.028,-0.016,-0.008,5.6,-9.5,-12.2,0,2018,5,17,21,46,16.508,0.6938,0.1198,-0.6828,0.1949
0.017,-0.008,0.003,5.2,-13.3,-11.7,0,2018,5,17,21,46,16.531,0.6929,0.1172,-0.6841,0.1949
0.001,-0.009,-0.005,4.1,-19.5,-12.7,0,2018,5,17,21,46,16.535,0.6923,0.1138,-0.6855,0.1944
-0.005,-0.009,-0.019,2.4,-25.5,-14.4,0,2018,5,17,21,46,16.552,0.6918,0.1095,-0.687,0.1933
-0.011,-0.012,-0.017,0.5,-29.2,-15.8,0,2018,5,17,21,46,16.574,0.6914,0.1045,-0.6885,0.1917
-0.022,-0.018,-0.023,-0.9,-31.4,-16.8,1023,2018,5,17,21,46,16.59,0.6913,0.0989,-0.69,0.19
-0.018,-0.015,-0.027,-2,-31.9,-16.9,1023,2018,5,17,21,46,16.613,0.6912,0.0929,-0.6913,0.1883
-0.019,-0.008,-0.043,-3.1,-31.7,-17.2,1023,2018,5,17,21,46,16.651,0.6912,0.0869,-0.6926,0.1866
-0.022,-0.013,-0.051,-3.9,-29.9,-16.7,1023,2018,5,17,21,46,16.674,0.6912,0.0809,-0.6937,0.185
-0.024,-0.003,-0.058,-3.9,-26.8,-16.3,1023,2018,5,17,21,46,16.679,0.6912,0.0754,-0.6948,0.1835
-0.029,0.003,-0.054,-4.2,-23.2,-15.8,1023,2018,5,17,21,46,16.719,0.6911,0.0705,-0.6957,0.1824
-0.032,0.017,-0.067,-4.2,-23.6,-16.5,1023,2018,5,17,21,46,16.72,0.691,0.0657,-0.6965,0.1813
-0.033,0.027,-0.07,-3.6,-27.6,-17.6,1023,2018,5,17,21,46,16.73,0.6908,0.0607,-0.6975,0.18
-0.014,0.027,-0.073,-3,-31.4,-18.8,1023,2018,5,17,21,46,16.765,0.6905,0.0549,-0.6987,0.1783
0,0.03,-0.074,-1.3,-33.2,-19.7,1023,2018,5,17,21,46,16.789,0.69,0.049,-0.7002,0.1763
0.012,0.025,-0.067,1.2,-33.8,-20.1,1023,2018,5,17,21,46,16.792,0.6892,0.0428,-0.7019,0.1743
0.022,0.017,-0.064,3.1,-30.7,-19.6,1023,2018,5,17,21,46,16.832,0.688,0.0368,-0.7038,0.1724
0.032,0.01,-0.057,5.4,-25.6,-18.3,0,2018,5,17,21,46,16.853,0.6867,0.0312,-0.7058,0.171
0.065,0.021,-0.044,7.1,-20.9,-17.7,0,2018,5,17,21,46,16.859,0.6851,0.0265,-0.7077,0.1702
0.092,0.024,-0.036,9.2,-19.1,-18.2,0,2018,5,17,21,46,16.878,0.6833,0.0222,-0.7096,0.1698
0.101,0.029,-0.024,11.8,-20.9,-18.8,0,2018,5,17,21,46,16.896,0.6813,0.018,-0.7118,0.1694
0.103,0.018,-0.007,14.3,-24.6,-19,0,2018,5,17,21,46,16.934,0.6791,0.0133,-0.7142,0.1687
0.099,0.003,0,16.7,-27.1,-17.7,0,2018,5,17,21,46,16.957,0.6765,0.0083,-0.7169,0.1677
0.093,-0.012,0.009,19,-27.5,-15.4,0,2018,5,17,21,46,16.961,0.6738,0.0032,-0.7198,0.1664
0.077,-0.021,0.007,20,-24.5,-11.7,0,2018,5,17,21,46,16.973,0.6709,-0.0015,-0.7228,0.1651
0.058,-0.038,0.014,20.7,-17.3,-7.1,0,2018,5,17,21,46,17.01,0.668,-0.0049,-0.7258,0.1639
0.036,-0.047,0.018,19.9,-6.7,-2.9,0,2018,5,17,21,46,17.033,0.6652,-0.0067,-0.7284,0.1634
0.036,-0.033,0.021,17.4,1.6,-0.7,0,2018,5,17,21,46,17.038,0.6629,-0.007,-0.7304,0.1638
0.03,-0.02,0.019,16.1,4.6,-0.2,0,2018,5,17,21,46,17.055,0.6608,-0.0063,-0.7321,0.1646
-0.004,-0.025,0.031,14.8,6.1,0.5,0,2018,5,17,21,46,17.079,0.659,-0.0054,-0.7336,0.1655
-0.021,-0.035,0.041,13.2,10.2,1.6,0,2018,5,17,21,46,17.097,0.6574,-0.0041,-0.7347,0.1667
-0.008,-0.026,0.045,10.7,14,1.1,0,2018,5,17,21,46,17.133,0.6562,-0.0021,-0.7355,0.1683
-0.015,-0.014,0.044,7.6,13.5,-1.6,1023,2018,5,17,21,46,17.156,0.6553,-0.0002,-0.7358,0.1702
-0.053,-0.016,0.04,3.4,11.6,-4,1023,2018,5,17,21,46,17.16,0.6548,0.0009,-0.7358,0.1723
-0.088,-0.017,0.044,-2.2,11.6,-4.5,1023,2018,5,17,21,46,17.196,0.6549,0.0018,-0.7353,0.1743
-0.086,0,0.043,-8.4,10.7,-4.6,1023,2018,5,17,21,46,17.22,0.6558,0.0027,-0.734,0.1762
-0.054,0.018,0.043,-13.7,5.2,-5.9,1023,2018,5,17,21,46,17.225,0.6573,0.003,-0.7323,0.1776
-0.036,0.021,0.03,-17.3,-4.4,-9.2,1023,2018,5,17,21,46,17.237,0.6594,0.0018,-0.7302,0.1783
-0.03,0.017,0.023,-19.1,-12.3,-11.5,1023,2018,5,17,21,46,17.256,0.6617,-0.0007,-0.7282,0.1782
-0.025,0.008,0.028,-19.8,-13.7,-11.5,1023,2018,5,17,21,46,17.279,0.6641,-0.0041,-0.7261,0.1778
-0.027,0,0.017,-19.2,-12,-10,1023,2018,5,17,21,46,17.295,0.6663,-0.0074,-0.7241,0.1772
-0.034,-0.005,0.005,-18.9,-8.3,-8,0,2018,5,17,21,46,17.319,0.6686,-0.0101,-0.7221,0.1769
-0.036,-0.004,0.001,-18.9,-2.8,-6.1,0,2018,5,17,21,46,17.339,0.6708,-0.012,-0.7201,0.1769
-0.068,-0.01,-0.004,-18.9,3.7,-4.4,0,2018,5,17,21,46,17.375,0.673,-0.0131,-0.7178,0.1775
-0.089,-0.007,-0.004,-19.4,9.9,-1.5,0,2018,5,17,21,46,17.397,0.6753,-0.013,-0.7154,0.1785
-0.085,0.008,0,-20.5,13.6,0.2,0,2018,5,17,21,46,17.402,0.6778,-0.0119,-0.7127,0.1799
-0.078,0.014,0.004,-22.5,13,-0.2,0,2018,5,17,21,46,17.421,0.6806,-0.0105,-0.7097,0.1812
-0.055,0.032,-0.002,-24.7,13.2,-1.7,0,2018,5,17,21,46,17.457,0.6836,-0.0095,-0.7065,0.1826
-0.041,0.041,0.011,-26.2,12.1,-2.6,0,2018,5,17,21,46,17.457,0.6868,-0.0086,-0.703,0.1841
-0.024,0.053,0.019,-26.6,6.9,-3.8,0,2018,5,17,21,46,17.479,0.6901,-0.0081,-0.6994,0.1852
-0.015,0.06,0.02,-25.9,-2.2,-4.4,0,2018,5,17,21,46,17.516,0.6934,-0.0087,-0.6961,0.1856
-0.004,0.036,0.028,-25.7,-9.3,-4.2,0,2018,5,17,21,46,17.537,0.6966,-0.0103,-0.693,0.185
0.01,0.024,0.027,-25.6,-12.1,-3,0,2018,5,17,21,46,17.539,0.6998,-0.0127,-0.69,0.1839
0.015,0.013,0.03,-25.9,-10.8,-1.1,0,2018,5,17,21,46,17.576,0.703,-0.015,-0.687,0.1826
0.018,0.004,0.023,-26.6,-9.1,-0.7,0,2018,5,17,21,46,17.598,0.7063,-0.017,-0.6839,0.1815
0.006,-0.018,0,-27.3,-10.4,-1.3,0,2018,5,17,21,46,17.603,0.7127,-0.0207,-0.6777,0.1792
0.003,-0.027,-0.02,-26.5,-11.7,-3.3,1023,2018,5,17,21,46,17.619,0.7157,-0.0233,-0.6748,0.1782
0.014,-0.026,-0.037,-25.6,-9.1,-4.6,1023,2018,5,17,21,46,17.642,0.7183,-0.0258,-0.6721,0.1774
0.018,-0.008,-0.045,-23.9,-4.8,-5.7,1023,2018,5,17,21,46,17.66,0.7207,-0.0282,-0.6695,0.1773
0.003,0.007,-0.042,-21.3,-3.5,-6.3,1023,2018,5,17,21,46,17.684,0.7228,-0.03,-0.6671,0.1774
-0.002,0.019,-0.019,-18.6,-5.1,-7.2,1023,2018,5,17,21,46,17.7,0.7247,-0.0317,-0.6649,0.1774
-0.001,0.022,0.011,-16.2,-9.9,-8.3,1023,2018,5,17,21,46,17.737,0.7264,-0.0337,-0.663,0.1773
0.004,0.009,0.045,-14.9,-14.2,-10.1,1023,2018,5,17,21,46,17.76,0.728,-0.0366,-0.6612,0.1769
0.014,0.016,0.072,-16.7,-16.9,-11.7,1023,2018,5,17,21,46,17.765,0.7298,-0.0402,-0.6592,0.1764
0.019,0.032,0.099,-19.6,-17.5,-12.6,1023,2018,5,17,21,46,17.781,0.7319,-0.0441,-0.6567,0.1758
0.019,0.033,0.11,-23.1,-18,-12.9,1023,2018,5,17,21,46,17.818,0.7346,-0.0481,-0.6536,0.1751
0.01,0.022,0.104,-27.4,-14.2,-11.1,1023,2018,5,17,21,46,17.841,0.7376,-0.052,-0.65,0.1747
0.008,0.017,0.087,-30.2,-9.1,-8.5,1023,2018,5,17,21,46,17.846,0.7411,-0.0554,-0.6458,0.1745
0.014,0.04,0.046,-30.6,-9.7,-7.4,1023,2018,5,17,21,46,17.863,0.7448,-0.0582,-0.6414,0.1742
0.005,0.021,0.006,-28.7,-12.7,-6.5,1023,2018,5,17,21,46,17.881,0.748,-0.0611,-0.6376,0.1734
-0.002,0.015,-0.033,-26,-10.9,-3.6,0,2018,5,17,21,46,17.904,0.7507,-0.064,-0.6345,0.1723
-0.015,-0.013,-0.055,-22.1,-6.4,-0.5,0,2018,5,17,21,46,17.941,0.7528,-0.0661,-0.632,0.1713
-0.033,-0.047,-0.045,-18.9,3.5,1.9,0,2018,5,17,21,46,17.964,0.7547,-0.067,-0.6298,0.1708
-0.051,-0.022,-0.027,-17.6,17.7,4.2,0,2018,5,17,21,46,17.969,0.7566,-0.0658,-0.6274,0.1715
-0.04,-0.005,-0.03,-15.7,27.2,4.8,0,2018,5,17,21,46,17.982,0.7586,-0.0627,-0.6249,0.1731
-0.032,0.002,-0.027,-13.7,32.4,4.4,0,2018,5,17,21,46,18.001,0.7605,-0.0586,-0.6223,0.1756
-0.023,0.03,-0.023,-11.4,29.4,2.5,0,2018,5,17,21,46,18.024,0.7621,-0.0543,-0.6199,0.1783
-0.021,0.017,-0.011,-10.1,26.8,1.4,0,2018,5,17,21,46,18.059,0.7634,-0.0506,-0.6178,0.1808
-0.016,0.02,0.024,-11.8,28.3,0.2,0,2018,5,17,21,46,18.082,0.7649,-0.0471,-0.6155,0.1835
0.025,0.029,0.03,-14.2,26.8,-1.6,0,2018,5,17,21,46,18.086,0.7667,-0.0437,-0.6126,0.1864
0.035,0.009,0.023,-16.3,22.7,-2.8,0,2018,5,17,21,46,18.104,0.7687,-0.0411,-0.6094,0.1893
0.044,-0.001,0.011,-18.9,19.9,-5.5,0,2018,5,17,21,46,18.122,0.7708,-0.0392,-0.6061,0.1921
0.052,-0.011,0.01,-20.4,16.1,-6.9,1023,2018,5,17,21,46,18.146,0.7729,-0.0381,-0.6026,0.1948
0.046,-0.018,0.013,-21.4,16.8,-7.4,1023,2018,5,17,21,46,18.164,0.775,-0.0376,-0.5989,0.1976
0.029,-0.027,0.034,-23.4,22.2,-5.6,1023,2018,5,17,21,46,18.187,0.7774,-0.0364,-0.595,0.2005
0.006,-0.032,0.039,-27.3,25.2,-3.6,1023,2018,5,17,21,46,18.206,0.7802,-0.0347,-0.5903,0.2037
0.016,-0.024,0.02,-30.1,25.5,-3,1023,2018,5,17,21,46,18.229,0.7833,-0.0326,-0.5852,0.2068
0.038,0,-0.016,-30.3,25.2,-3,1023,2018,5,17,21,46,18.245,0.7864,-0.0306,-0.58,0.2098
0.045,0.008,-0.044,-28.1,20.4,-2.4,1023,2018,5,17,21,46,18.263,0.7893,-0.0288,-0.5752,0.2124
0.037,0.017,-0.044,-25.9,18.2,-0.8,1023,2018,5,17,21,46,18.285,0.7919,-0.0273,-0.5709,0.2144
0.024,0.027,-0.046,-23.7,14.3,0.3,1023,2018,5,17,21,46,18.323,0.7943,-0.0257,-0.5672,0.2159
0.016,0.017,-0.078,-21.2,7.9,0.9,1023,2018,5,17,21,46,18.344,0.7963,-0.0245,-0.5641,0.2166
0.012,-0.036,-0.082,-13.2,4.5,2.2,1023,2018,5,17,21,46,18.347,0.7975,-0.0245,-0.5624,0.2167
-0.004,0.016,0.002,-14.1,13.8,5.5,1023,2018,5,17,21,46,18.384,0.7988,-0.0235,-0.5603,0.2172
-0.043,0.042,0.093,-15.9,6.1,4.1,1023,2018,5,17,21,46,18.405,0.8008,-0.0216,-0.5576,0.2173
-0.013,0.034,0.113,-18.1,6.1,1.1,1023,2018,5,17,21,46,18.407,0.803,-0.0209,-0.5543,0.2175
0,0.042,0.093,-19.8,5.7,0.6,0,2018,5,17,21,46,18.445,0.8055,-0.0204,-0.5506,0.2178
0.018,0.015,0.075,-21.4,10.8,2.5,0,2018,5,17,21,46,18.466,0.808,-0.0199,-0.5467,0.2183
0.018,0.013,0.078,-20.1,12.9,5.2,0,2018,5,17,21,46,18.469,0.8105,-0.0183,-0.5428,0.2189
0.067,0.01,0.047,-21,23.7,9.1,0,2018,5,17,21,46,18.505,0.8133,-0.0159,-0.5384,0.2197
0.057,0.037,0.035,-19.8,23,11.5,0,2018,5,17,21,46,18.505,0.8159,-0.0121,-0.5342,0.2205
0.085,0.005,-0.003,-17.6,22.9,15,0,2018,5,17,21,46,18.527,0.8184,-0.0081,-0.5304,0.2206
0.022,-0.008,-0.068,-21.5,19.2,21.6,0,2018,5,17,21,46,18.547,0.8209,-0.0038,-0.5269,0.22
0.013,-0.009,-0.086,-19.6,9.7,20.2,0,2018,5,17,21,46,18.567,0.8232,-0.0005,-0.5239,0.2184
0.018,-0.037,-0.132,-18.1,0.4,19.2,0,2018,5,17,21,46,18.604,0.8252,0.001,-0.5217,0.2159
0.018,-0.039,-0.151,-13.9,-9.2,15.6,0,2018,5,17,21,46,18.627,0.827,0.0014,-0.5202,0.213
-0.012,-0.063,-0.14,-9.7,-16.9,10.6,0,2018,5,17,21,46,18.631,0.8285,0.0004,-0.5191,0.2098
-0.029,-0.084,-0.1,-6.5,-20.6,4.7,0,2018,5,17,21,46,18.647,0.8295,-0.0016,-0.5187,0.2068
-0.046,-0.072,-0.043,-6.6,-18.9,0,1023,2018,5,17,21,46,18.671,0.8297,-0.0048,-0.519,0.2049
-0.044,-0.045,0.02,-9.5,-14.9,-3.5,1023,2018,5,17,21,46,18.707,0.8301,-0.0081,-0.5188,0.2038
-0.028,-0.001,0.047,-13.5,-10.8,-4.1,1023,2018,5,17,21,46,18.73,0.831,-0.0106,-0.5174,0.2034
-0.015,0.057,0.048,-16.6,-13.9,-2.7,1023,2018,5,17,21,46,18.734,0.8325,-0.0126,-0.5154,0.2026
-0.002,0.091,0.029,-20.1,-23.9,-0.3,1023,2018,5,17,21,46,18.748,0.8343,-0.0152,-0.5131,0.2008
0.013,0.09,0.004,-23.3,-37.2,1.1,1023,2018,5,17,21,46,18.766,0.8364,-0.0195,-0.5107,0.1975
0.016,0.058,-0.007,-25.9,-48.6,1.3,1023,2018,5,17,21,46,18.789,0.8386,-0.0261,-0.5085,0.1931
0.011,0.021,0,-27.8,-56,1.2,1023,2018,5,17,21,46,18.808,0.8408,-0.0343,-0.5063,0.188
0.007,-0.006,0.008,-28.7,-60.8,-0.7,1023,2018,5,17,21,46,18.831,0.843,-0.0437,-0.5039,0.1826
0.002,-0.036,0.013,-27.9,-62.7,-3.3,1023,2018,5,17,21,46,18.851,0.8449,-0.054,-0.5016,0.1773
0.001,-0.063,0.007,-25,-58.1,-5,1023,2018,5,17,21,46,18.869,0.8464,-0.0646,-0.4994,0.1727
0.004,-0.069,0.004,-21.2,-46.5,-5.5,1023,2018,5,17,21,46,18.892,0.8475,-0.0739,-0.4975,0.1689
0.01,-0.067,0.011,-16.2,-32.5,-5.1,1023,2018,5,17,21,46,18.928,0.8484,-0.0815,-0.4957,0.1665
0.008,-0.064,0.007,-10.1,-19.7,-4.7,0,2018,5,17,21,46,18.951,0.8489,-0.0866,-0.4943,0.1652
0.008,-0.056,-0.003,-4.6,-7.8,-4.6,0,2018,5,17,21,46,18.956,0.8491,-0.0897,-0.4936,0.165
0.015,-0.029,-0.015,-0.7,3.1,-3.8,0,2018,5,17,21,46,18.971,0.849,-0.0908,-0.4932,0.1657
0.025,0.004,-0.017,2.7,8.7,-3.2,0,2018,5,17,21,46,18.995,0.8489,-0.0902,-0.4932,0.1669
0.028,0.025,-0.02,5.4,8.2,-2.3,0,2018,5,17,21,46,19.013,0.8486,-0.089,-0.4935,0.1682
0.022,0.02,-0.011,7.2,3.8,-1.7,0,2018,5,17,21,46,19.037,0.8481,-0.0879,-0.4943,0.169
0.01,0.007,-0.004,7.6,0,-1.7,0,2018,5,17,21,46,19.051,0.8474,-0.0874,-0.4954,0.1695
-0.002,-0.002,-0.011,5.6,0.6,-0.3,0,2018,5,17,21,46,19.089,0.8468,-0.0873,-0.4964,0.1699
0.003,0.006,-0.01,3.4,2.1,1.4,0,2018,5,17,21,46,19.112,0.8464,-0.0868,-0.4971,0.17
0.003,0.013,-0.008,1.7,1.7,2.4,0,2018,5,17,21,46,19.117,0.8462,-0.0863,-0.4974,0.17
0.001,0.01,-0.012,0.5,0,3,0,2018,5,17,21,46,19.134,0.8462,-0.0857,-0.4977,0.1696
-0.002,0.01,-0.018,-0.5,-2.2,2.5,0,2018,5,17,21,46,19.171,0.8462,-0.0854,-0.4979,0.169
-0.004,0,-0.014,-1,-4,1.4,0,2018,5,17,21,46,19.194,0.8462,-0.0857,-0.4981,0.1684
0,-0.002,-0.007,-1.2,-4.5,0,0,2018,5,17,21,46,19.198,0.8462,-0.0864,-0.4981,0.168
0.005,-0.002,-0.009,-0.3,-3.3,-1.3,1023,2018,5,17,21,46,19.232,0.8462,-0.0872,-0.4981,0.1678
0.009,0.003,-0.011,0.6,-1.9,-1.8,1023,2018,5,17,21,46,19.253,0.8461,-0.0877,-0.4981,0.1678
0.014,0.006,-0.007,1.2,-0.8,-1.6,1023,2018,5,17,21,46,19.258,0.8459,-0.0881,-0.4983,0.1681
0.006,0.001,-0.005,1.8,-0.6,-0.6,1023,2018,5,17,21,46,19.274,0.8457,-0.088,-0.4987,0.1682
-0.003,0.003,-0.006,1.7,-0.4,0.1,1023,2018,5,17,21,46,19.292,0.8454,-0.088,-0.499,0.1682
0.004,-0.004,-0.009,1.2,0,0.8,1023,2018,5,17,21,46,19.315,0.8453,-0.088,-0.4993,0.1682
0,0,-0.018,0.5,0.7,1.1,1023,2018,5,17,21,46,19.333,0.8452,-0.0879,-0.4995,0.1681
-0.002,0.008,-0.018,0,1,1.3,1023,2018,5,17,21,46,19.352,0.8451,-0.0876,-0.4997,0.168
-0.003,0.018,-0.021,-0.1,0,1.1,1023,2018,5,17,21,46,19.375,0.8451,-0.0872,-0.4999,0.1679
-0.007,0.016,-0.017,-0.4,-1.2,1.1,1023,2018,5,17,21,46,19.392,0.8451,-0.0871,-0.5,0.1676
-0.004,0.007,-0.014,-0.5,-2.5,0.7,1023,2018,5,17,21,46,19.415,0.845,-0.0873,-0.5002,0.1672
-0.002,0.002,-0.006,-0.9,-3.3,0.1,1023,2018,5,17,21,46,19.452,0.845,-0.0878,-0.5002,0.1669
-0.001,-0.002,-0.005,-0.9,-3.6,-0.3,1023,2018,5,17,21,46,19.474,0.845,-0.0883,-0.5003,0.1667
0.004,-0.005,-0.007,-1.1,-3.2,-0.7,0,2018,5,17,21,46,19.479,0.845,-0.089,-0.5002,0.1665
0.007,-0.002,-0.016,-1.1,-2.1,-1,0,2018,5,17,21,46,19.495,0.845,-0.0897,-0.5001,0.1664
0.013,-0.002,-0.015,-0.8,-1.2,-0.7,0,2018,5,17,21,46,19.518,0.8449,-0.0901,-0.5001,0.1665
0.007,0,-0.011,-0.6,-0.7,-0.4,0,2018,5,17,21,46,19.534,0.8449,-0.0904,-0.5,0.1666
0.006,0,-0.011,-0.1,-0.8,-0.2,0,2018,5,17,21,46,19.552,0.8449,-0.0904,-0.5001,0.1665
0.005,0.006,-0.008,-0.1,-1,-0.2,0,2018,5,17,21,46,19.576,0.8449,-0.0905,-0.5002,0.1665
0.005,0.005,-0.007,0,0,0,0,2018,5,17,21,46,19.612,0.8448,-0.0906,-0.5002,0.1665
0.004,0.004,-0.008,-0.4,-0.8,0.2,0,2018,5,17,21,46,19.636,0.8448,-0.0906,-0.5002,0.1664
0.004,0.001,-0.008,-0.5,-1.1,0,0,2018,5,17,21,46,19.641,0.8448,-0.0907,-0.5002,0.1663
0.003,-0.001,-0.016,-0.3,-0.7,-0.2,0,2018,5,17,21,46,19.657,0.8448,-0.0908,-0.5003,0.1663
0.003,-0.004,-0.009,0,0,0,0,2018,5,17,21,46,19.677,0.8448,-0.0909,-0.5003,0.1663
0.005,0,-0.006,0,0.2,-0.5,0,2018,5,17,21,46,19.7,0.8447,-0.0912,-0.5003,0.1665
0.002,0.001,-0.015,-0.1,0,-0.7,0,2018,5,17,21,46,19.718,0.8447,-0.0912,-0.5003,0.1666
0.007,0.002,-0.013,-0.1,-0.2,-1.1,0,2018,5,17,21,46,19.737,0.8446,-0.0913,-0.5003,0.1668
0.005,0.003,-0.013,-0.4,-0.3,-1.3,1023,2018,5,17,21,46,19.759,0.8445,-0.0915,-0.5003,0.167
0.008,0.004,-0.013,-0.3,-0.7,-1.2,1023,2018,5,17,21,46,19.776,0.8445,-0.0916,-0.5004,0.1672
0.009,0.002,-0.014,-0.1,-1.7,-1.6,1023,2018,5,17,21,46,19.814,0.8444,-0.092,-0.5004,0.1673
0.008,-0.003,-0.013,-0.1,-1.3,-1.5,1023,2018,5,17,21,46,19.837,0.8443,-0.0927,-0.5004,0.1675
0.009,-0.008,-0.004,-0.1,0.4,-1.2,1023,2018,5,17,21,46,19.841,0.8442,-0.093,-0.5004,0.1678
0.01,-0.007,-0.005,0,2.2,-0.8,1023,2018,5,17,21,46,19.857,0.8442,-0.0928,-0.5003,0.1681
0.011,0.001,-0.004,0.3,2.3,-0.4,1023,2018,5,17,21,46,19.88,0.8441,-0.0924,-0.5003,0.1685
0.01,0.01,-0.007,0.1,1.7,-0.2,1023,2018,5,17,21,46,19.898,0.8441,-0.092,-0.5003,0.1688
0.002,0.016,-0.005,0,0,0,1023,2018,5,17,21,46,19.917,0.8441,-0.092,-0.5003,0.1689
0.002,0.009,-0.013,0,0,0,1023,2018,5,17,21,46,19.94,0.8441,-0.092,-0.5003,0.1689
-0.005,0.005,-0.012,-0.1,-0.9,-0.1,1023,2018,5,17,21,46,19.958,0.8441,-0.0921,-0.5004,0.1689
-0.005,0.002,-0.016,-0.6,-1.3,-0.5,1023,2018,5,17,21,46,19.981,0.844,-0.0922,-0.5006,0.1688
-0.002,0.005,-0.017,-0.9,-1.5,-1,1023,2018,5,17,21,46,19.999,0.8439,-0.0924,-0.5006,0.1688
-0.004,0.004,-0.007,-1.1,-1.3,-1,1023,2018,5,17,21,46,20.022,0.8439,-0.0927,-0.5006,0.1688
0.001,0.006,-0.006,-1.1,-1.1,-0.5,1023,2018,5,17,21,46,20.059,0.8439,-0.093,-0.5005,0.1688
-0.001,0.004,-0.005,-1.3,-0.8,-0.2,0,2018,5,17,21,46,20.081,0.844,-0.0932,-0.5004,0.1688
0,0.001,-0.001,-1.5,-1,-0.2,0,2018,5,17,21,46,20.086,0.844,-0.0935,-0.5002,0.1688
0.014,-0.004,-0.014,-1.5,-0.4,-0.4,0,2018,5,17,21,46,20.099,0.8441,-0.0937,-0.5,0.1688
0.021,-0.001,-0.013,0.3,1.9,-0.2,0,2018,5,17,21,46,20.135,0.8441,-0.0937,-0.4999,0.169
0.018,0.004,-0.003,1.7,4.1,0.3,0,2018,5,17,21,46,20.158,0.8441,-0.0932,-0.5,0.1693
0.012,0.004,-0.008,2.5,3.9,0.3,0,2018,5,17,21,46,20.162,0.844,-0.0924,-0.5002,0.1697
0,0.002,0,1.9,2.9,0.3,0,2018,5,17,21,46,20.181,0.8438,-0.0918,-0.5005,0.1701
-0.001,0.008,0.001,0.7,1.9,0.4,0,2018,5,17,21,46,20.201,0.8438,-0.0912,-0.5006,0.1702
-0.001,0.005,-0.008,-0.3,0.3,0.5,0,2018,5,17,21,46,20.22,0.8438,-0.0906,-0.5008,0.1702
0.004,0.001,-0.006,-1.1,-1.4,0.5,0,2018,5,17,21,46,20.243,0.8438,-0.0907,-0.5007,0.17
0.005,-0.004,-0.013,-1.4,-2,0.4,0,2018,5,17,21,46,20.279,0.8438,-0.091,-0.5007,0.1699
0.009,-0.005,-0.011,-1.5,-1.7,0.2,0,2018,5,17,21,46,20.279,0.8438,-0.0915,-0.5006,0.1697
0.006,-0.004,-0.001,-1.8,-1.5,0.2,1023,2018,5,17,21,46,20.302,0.8439,-0.0919,-0.5004,0.1696
0.008,0.006,0.002,-2.1,-1.4,0.2,1023,2018,5,17,21,46,20.318,0.8441,-0.0922,-0.5002,0.1695
0.009,0.009,-0.003,-2.1,-2,0.1,1023,2018,5,17,21,46,20.339,0.8443,-0.0923,-0.4999,0.1693
0.008,0.005,-0.007,-2,-2.3,0.1,1023,2018,5,17,21,46,20.375,0.8444,-0.0927,-0.4996,0.1691
0.01,0.002,-0.004,-2,-1.9,-0.2,1023,2018,5,17,21,46,20.397,0.8445,-0.0931,-0.4994,0.1689
0.01,0.002,-0.007,-1.6,-1.1,-0.3,1023,2018,5,17,21,46,20.401,0.8446,-0.0935,-0.4991,0.1689
0.007,0.005,-0.013,-1.1,-0.8,-0.3,1023,2018,5,17,21,46,20.436,0.8447,-0.0937,-0.499,0.1688
0.005,0.001,-0.009,-0.9,-0.4,-0.3,1023,2018,5,17,21,46,20.459,0.8448,-0.0941,-0.4989,0.1689
0.001,0.001,-0.005,-0.9,0.4,-0.2,1023,2018,5,17,21,46,20.464,0.8448,-0.0941,-0.4988,0.169
0,0.006,-0.009,-0.9,0.4,-0.1,1023,2018,5,17,21,46,20.498,0.8448,-0.0941,-0.4987,0.169
0.006,0.005,-0.011,-1.1,-0.3,-0.1,1023,2018,5,17,21,46,20.521,0.8449,-0.0941,-0.4985,0.1691
0.007,0.007,-0.012,-1.1,-0.6,-0.1,1023,2018,5,17,21,46,20.526,0.8449,-0.0941,-0.4985,0.169
0.011,0.003,-0.01,-0.6,-0.6,-0.1,1023,2018,5,17,21,46,20.543,0.845,-0.0942,-0.4984,0.169
0.006,0.003,-0.008,0,0,0,0,2018,5,17,21,46,20.566,0.845,-0.0942,-0.4984,0.169
0.005,0,-0.004,-0.1,0.1,-0.5,0,2018,5,17,21,46,20.584,0.845,-0.0944,-0.4984,0.1691
0.011,0.001,-0.002,-0.1,0.8,-0.3,0,2018,5,17,21,46,20.608,0.845,-0.0943,-0.4983,0.1693
0.008,0.004,0.001,0,1,-0.2,0,2018,5,17,21,46,20.624,0.845,-0.0941,-0.4983,0.1694
0.005,0.005,-0.01,0.2,0.9,0,0,2018,5,17,21,46,20.66,0.845,-0.0939,-0.4982,0.1695
0.004,0.003,-0.01,0.1,0.6,0.2,0,2018,5,17,21,46,20.683,0.845,-0.0936,-0.4983,0.1696
0.006,0.003,-0.009,0,0,0,0,2018,5,17,21,46,20.688,0.845,-0.0934,-0.4984,0.1696
0.005,0,-0.004,-0.1,0.5,0,0,2018,5,17,21,46,20.704,0.845,-0.0932,-0.4984,0.1697
0.007,0.002,-0.003,-0.3,0.5,0.1,0,2018,5,17,21,46,20.727,0.845,-0.0933,-0.4984,0.1697
0.01,0.004,-0.007,0,0,0,0,2018,5,17,21,46,20.747,0.8449,-0.0934,-0.4983,0.1698
0.007,0.004,-0.008,0,0,0,0,2018,5,17,21,46,20.784,0.8449,-0.0935,-0.4983,0.1699
0.006,0,-0.002,0,0,0,0,2018,5,17,21,46,20.807,0.8449,-0.0936,-0.4983,0.17
0.004,-0.001,-0.008,-0.3,-0.2,-0.6,0,2018,5,17,21,46,20.812,0.8449,-0.0937,-0.4983,0.17
0.009,0.006,-0.012,-0.2,0,-0.9,0,2018,5,17,21,46,20.826,0.8449,-0.0937,-0.4983,0.1702
0.009,0.006,-0.004,-0.1,-0.2,-1,0,2018,5,17,21,46,20.843,0.8448,-0.0937,-0.4983,0.1704
0.011,0.008,-0.002,0,-1.1,-0.8,0,2018,5,17,21,46,20.866,0.8448,-0.0938,-0.4983,0.1705
0.013,0.004,-0.002,0.1,-1.5,-0.7,0,2018,5,17,21,46,20.886,0.8448,-0.0941,-0.4983,0.1705
0.013,0.002,-0.005,0.3,-1.3,-0.2,1023,2018,5,17,21,46,20.922,0.8447,-0.0944,-0.4983,0.1705
0.012,0.003,-0.002,0.6,-1,0.2,1023,2018,5,17,21,46,20.944,0.8446,-0.0947,-0.4984,0.1706
0.013,0.005,-0.005,0.7,-1.2,0.2,1023,2018,5,17,21,46,20.949,0.8446,-0.0947,-0.4985,0.1705
0.009,0.004,-0.01,1,-1.5,0.2,1023,2018,5,17,21,46,20.967,0.8445,-0.0948,-0.4987,0.1704
0.007,-0.003,-0.009,1.3,-1.1,0,1023,2018,5,17,21,46,20.99,0.8443,-0.095,-0.4989,0.1703
0.007,0,-0.007,1.6,0,-0.1,1023,2018,5,17,21,46,21.027,0.8442,-0.0951,-0.4991,0.1704
0.007,0,-0.005,1.7,0.4,-0.4,1023,2018,5,17,21,46,21.027,0.844,-0.095,-0.4994,0.1705
0.011,0,-0.009,1.8,0.3,-0.9,1023,2018,5,17,21,46,21.049,0.8438,-0.0948,-0.4997,0.1707
0.011,0.004,-0.001,1.7,-0.3,-1.3,1023,2018,5,17,21,46,21.07,0.8436,-0.0948,-0.5,0.1709
0.01,0.01,0.001,1.5,-0.6,-1.1,1023,2018,5,17,21,46,21.087,0.8434,-0.0948,-0.5002,0.1711
0.013,0.014,-0.004,1.8,-0.8,-0.8,0,2018,5,17,21,46,21.106,0.8433,-0.0951,-0.5004,0.1713
0.017,0.022,-0.007,2.1,-1.6,0,0,2018,5,17,21,46,21.129,0.8431,-0.095,-0.5007,0.1713
0.015,0.013,-0.006,2.8,-2.8,0,0,2018,5,17,21,46,21.147,0.8428,-0.095,-0.5012,0.1711
0.013,0.007,-0.007,3.3,-3.8,0.2,0,2018,5,17,21,46,21.17,0.8425,-0.0952,-0.5017,0.1708
0.012,-0.003,-0.014,3.3,-3.6,-0.2,0,2018,5,17,21,46,21.191,0.8421,-0.0957,-0.5024,0.1706
0.011,-0.006,-0.002,3.4,-2.8,-0.6,0,2018,5,17,21,46,21.208,0.8417,-0.0963,-0.5029,0.1705
0.017,-0.001,0.001,3.7,-2.6,-0.8,0,2018,5,17,21,46,21.231,0.8414,-0.0966,-0.5035,0.1706
0.019,0.002,0.002,4.2,-2.9,-1.3,0,2018,5,17,21,46,21.249,0.841,-0.097,-0.504,0.1706
0.021,0.005,0,4.5,-3.8,-1.4,0,2018,5,17,21,46,21.272,0.8405,-0.0974,-0.5047,0.1707
0.025,0.005,-0.006,5.4,-4.5,-1.4,0,2018,5,17,21,46,21.291,0.84,-0.0979,-0.5055,0.1707
0.023,0.008,0,6,-4.7,-1.7,0,2018,5,17,21,46,21.314,0.8394,-0.0986,-0.5064,0.1706
0.023,0.001,0.007,7,-5.2,-1.7,0,2018,5,17,21,46,21.33,0.8387,-0.0992,-0.5074,0.1706
0.022,-0.003,0.003,7.8,-5.2,-2.2,0,2018,5,17,21,46,21.348,0.838,-0.0999,-0.5084,0.1707
0.029,-0.005,0.001,8.5,-4.6,-3.2,0,2018,5,17,21,46,21.37,0.8371,-0.1007,-0.5096,0.171
0.031,-0.003,-0.001,9.9,-3.5,-3.6,1023,2018,5,17,21,46,21.389,0.8362,-0.1015,-0.5109,0.1714
0.031,-0.003,0.006,11.3,-2.8,-3.9,1023,2018,5,17,21,46,21.412,0.8351,-0.102,-0.5124,0.172
0.031,-0.003,0,12.9,-1.9,-4.2,1023,2018,5,17,21,46,21.43,0.8339,-0.1022,-0.514,0.1727
0.031,0,0.011,14.4,-0.6,-4,1023,2018,5,17,21,46,21.465,0.8325,-0.1025,-0.5158,0.1736
0.03,0,0.014,15.4,0.5,-3.8,1023,2018,5,17,21,46,21.489,0.8312,-0.1024,-0.5177,0.1746
0.028,0,0.009,16.3,1.8,-3.8,1023,2018,5,17,21,46,21.493,0.8297,-0.1021,-0.5198,0.1756
0.031,0.008,-0.003,17.8,2.6,-3.9,1023,2018,5,17,21,46,21.511,0.8281,-0.1015,-0.522,0.1768
0.029,0.019,-0.013,19.1,3.9,-3.4,1023,2018,5,17,21,46,21.534,0.8264,-0.1007,-0.5244,0.178
0.019,0.032,-0.013,20.8,4.9,-2.3,1023,2018,5,17,21,46,21.571,0.8246,-0.0995,-0.5272,0.1791
0.009,0.037,-0.013,22,4.4,-1.5,1023,2018,5,17,21,46,21.593,0.8226,-0.098,-0.5302,0.1801
0,0.033,-0.006,21.9,2.9,-1.3,1023,2018,5,17,21,46,21.598,0.8206,-0.0966,-0.5333,0.1809
-0.005,0.023,-0.005,21.2,1.5,-1.5,1023,2018,5,17,21,46,21.612,0.8186,-0.0956,-0.5363,0.1815
-0.002,0.017,-0.008,20.7,0.2,-2.5,1023,2018,5,17,21,46,21.631,0.8166,-0.0948,-0.5393,0.1822
-0.004,0.009,-0.006,20.3,-1,-3.3,1023,2018,5,17,21,46,21.654,0.8145,-0.0944,-0.5422,0.1829
-0.002,0.007,-0.011,20.4,-1.7,-4,0,2018,5,17,21,46,21.67,0.8124,-0.0941,-0.5452,0.1836
-0.003,0.002,-0.006,21,-2.8,-4.7,0,2018,5,17,21,46,21.691,0.8102,-0.094,-0.5483,0.1843
-0.005,-0.003,0,21.8,-4.6,-5.5,0,2018,5,17,21,46,21.728,0.8079,-0.0944,-0.5514,0.185
-0.006,-0.011,0.012,23.2,-4.4,-5.8,0,2018,5,17,21,46,21.767,0.8054,-0.095,-0.5545,0.1859
-0.009,-0.025,0.023,24.3,-2.1,-5.5,0,2018,5,17,21,46,21.768,0.8029,-0.0953,-0.5578,0.1869
0.008,-0.057,0.036,28,0.3,-4.3,0,2018,5,17,21,46,21.775,0.8003,-0.0954,-0.5612,0.1882
-0.013,-0.089,0.078,33.1,6.9,-3.6,0,2018,5,17,21,46,21.81,0.7973,-0.0947,-0.5649,0.19
-0.01,-0.073,0.103,34.9,21.5,-3.9,0,2018,5,17,21,46,21.832,0.7943,-0.0924,-0.5685,0.1931
0.007,-0.02,0.077,33.7,32.2,-4,0,2018,5,17,21,46,21.836,0.7915,-0.0879,-0.5715,0.1973
0.032,0.024,0.049,32.2,35.1,-3.6,0,2018,5,17,21,46,21.853,0.789,-0.0821,-0.5743,0.2018
0.059,0.025,0.02,30.9,32.7,-4.6,0,2018,5,17,21,46,21.874,0.7864,-0.0764,-0.577,0.2063
0.05,0.067,0.023,29.6,28.2,-6.5,0,2018,5,17,21,46,21.894,0.7839,-0.0714,-0.5796,0.2106
0.052,0.059,0.036,29.6,14.1,-9.1,1023,2018,5,17,21,46,21.912,0.7812,-0.0676,-0.5824,0.2139
0.032,0.041,0.037,27.8,5,-9.7,1023,2018,5,17,21,46,21.935,0.7783,-0.0661,-0.5855,0.2165
0.028,0.027,0.032,24.9,-1,-7.9,1023,2018,5,17,21,46,21.972,0.7756,-0.0656,-0.5885,0.2181
0.021,0.013,0.01,20.7,-3.7,-5.7,1023,2018,5,17,21,46,21.995,0.7732,-0.0655,-0.5914,0.219
0.025,0.018,-0.002,17.7,-8.1,-5.1,1023,2018,5,17,21,46,21.999,0.771,-0.0659,-0.5941,0.2194
0.018,0.034,-0.026,14.2,-11.4,-5,1023,2018,5,17,21,46,22.034,0.769,-0.0668,-0.5966,0.2191
0.001,0.008,-0.047,11.8,-14.9,-5,1023,2018,5,17,21,46,22.057,0.7672,-0.0684,-0.5991,0.2183
0.026,0.042,-0.05,11.5,-15.2,-5.5,1023,2018,5,17,21,46,22.061,0.7654,-0.0703,-0.6016,0.2174
0.016,0.034,-0.058,14.9,-16.7,-4.7,1023,2018,5,17,21,46,22.077,0.7633,-0.0723,-0.6043,0.2163
0.005,0.038,-0.063,18.9,-14.6,-3.4,1023,2018,5,17,21,46,22.101,0.7609,-0.0739,-0.6076,0.2152
0.014,0.049,-0.08,23.5,-13,-1.9,1023,2018,5,17,21,46,22.117,0.7579,-0.0748,-0.6115,0.214
0.029,0.066,-0.094,28.2,-11.5,-0.1,0,2018,5,17,21,46,22.134,0.7545,-0.0753,-0.6161,0.2128
0.037,0.071,-0.101,33.2,-8.3,2.2,0,2018,5,17,21,46,22.157,0.7506,-0.075,-0.6213,0.2115
0.026,0.078,-0.083,38.5,-2.2,7.5,0,2018,5,17,21,46,22.174,0.7464,-0.0736,-0.6269,0.2104
0.005,0.088,-0.07,42.2,4.5,14.5,0,2018,5,17,21,46,22.197,0.7421,-0.0704,-0.6328,0.2092
0.001,0.1,-0.058,45.3,6.9,21.9,0,2018,5,17,21,46,22.215,0.7377,-0.0654,-0.639,0.2074
-0.003,0.106,-0.043,47.1,3.9,28.7,0,2018,5,17,21,46,22.239,0.7334,-0.0595,-0.6454,0.2047
-0.006,0.103,-0.032,48.2,-2,34.5,0,2018,5,17,21,46,22.257,0.7291,-0.0533,-0.6521,0.2006
-0.017,0.094,-0.026,48.8,-9.1,39.9,0,2018,5,17,21,46,22.28,0.7248,-0.0474,-0.659,0.195
-0.041,0.067,-0.012,49.1,-15.1,44.1,0,2018,5,17,21,46,22.298,0.7204,-0.042,-0.6661,0.1882
-0.052,0.052,-0.003,48.2,-21.9,46.4,0,2018,5,17,21,46,22.322,0.7161,-0.0372,-0.6732,0.1804
-0.04,0.032,0,47,-30.2,46.6,0,2018,5,17,21,46,22.335,0.7118,-0.0332,-0.6802,0.1715
-0.035,0.013,0.002,46.2,-38.5,45.8,0,2018,5,17,21,46,22.354,0.7074,-0.0304,-0.6873,0.1618
-0.042,-0.012,0.011,44.6,-44.9,44.4,0,2018,5,17,21,46,22.377,0.7029,-0.0291,-0.6942,0.1515
-0.044,-0.044,0.017,41.8,-46.5,43.1,0,2018,5,17,21,46,22.396,0.6986,-0.0288,-0.7007,0.141
-0.035,-0.065,0.024,38.6,-43,43.3,0,2018,5,17,21,46,22.42,0.6946,-0.0286,-0.7067,0.131
-0.015,-0.078,0.021,35.6,-35.3,44.9,0,2018,5,17,21,46,22.436,0.6909,-0.0277,-0.712,0.1216
-0.005,-0.07,0.008,32.9,-27.9,46.8,0,2018,5,17,21,46,22.459,0.6874,-0.0257,-0.7168,0.113
0.007,-0.058,-0.004,30.4,-24.2,48.1,1023,2018,5,17,21,46,22.477,0.6842,-0.0226,-0.7213,0.1047
0.003,-0.063,-0.027,27.8,-21.6,48.8,1023,2018,5,17,21,46,22.5,0.6811,-0.0193,-0.7254,0.0967
0.009,-0.068,-0.04,24.9,-17.9,49,1023,2018,5,17,21,46,22.518,0.6782,-0.0156,-0.7292,0.089
0.021,-0.071,-0.052,23.6,-14,48.8,1023,2018,5,17,21,46,22.542,0.6755,-0.0114,-0.7327,0.0818
0.027,-0.071,-0.066,23.9,-12.5,47,1023,2018,5,17,21,46,22.56,0.6725,-0.0072,-0.7361,0.0751
0.026,-0.079,-0.066,24,-12.1,43.9,1023,2018,5,17,21,46,22.584,0.6694,-0.003,-0.7396,0.0688
0.022,-0.091,-0.069,24.5,-12.4,39.5,1023,2018,5,17,21,46,22.6,0.6662,0.0004,-0.743,0.0631
0.004,-0.101,-0.069,25.7,-11,35.5,1023,2018,5,17,21,46,22.618,0.6627,0.0035,-0.7465,0.0579
-0.029,-0.111,-0.071,27,-7.4,32.5,1023,2018,5,17,21,46,22.638,0.6591,0.0063,-0.7501,0.0535
-0.03,-0.118,-0.062,27.1,-3.3,29.2,1023,2018,5,17,21,46,22.66,0.6553,0.0093,-0.7536,0.0501
-0.013,-0.117,-0.057,26.7,-0.3,24.8,1023,2018,5,17,21,46,22.678,0.6515,0.0121,-0.757,0.0476
-0.016,-0.115,-0.055,26,1.6,19.1,1023,2018,5,17,21,46,22.701,0.6477,0.0145,-0.7602,0.0461
-0.029,-0.112,-0.047,25.3,3.9,12.7,1023,2018,5,17,21,46,22.718,0.644,0.0163,-0.7634,0.0455
-0.042,-0.113,-0.041,24,6.6,6.1,1023,2018,5,17,21,46,22.741,0.6405,0.0176,-0.7663,0.046
-0.047,-0.104,-0.037,22.9,9.1,0,0,2018,5,17,21,46,22.777,0.6371,0.0185,-0.769,0.0474
-0.047,-0.093,-0.028,21.9,10.4,-5.9,0,2018,5,17,21,46,22.801,0.6338,0.0189,-0.7716,0.0496
-0.058,-0.082,-0.024,21.2,10.6,-10.9,0,2018,5,17,21,46,22.805,0.6306,0.0187,-0.774,0.0525
-0.053,-0.068,-0.009,20.1,11.9,-15.2,0,2018,5,17,21,46,22.822,0.6276,0.0178,-0.7762,0.056
-0.043,-0.056,-0.004,19.3,13.4,-18.8,0,2018,5,17,21,46,22.846,0.6247,0.0167,-0.7783,0.06
-0.04,-0.042,0.007,18.5,14.9,-21.3,0,2018,5,17,21,46,22.861,0.6219,0.0155,-0.7802,0.0644
-0.045,-0.029,0.008,17.6,17.4,-23.1,0,2018,5,17,21,46,22.879,0.6192,0.0144,-0.782,0.0692
-0.057,-0.013,0.016,16.2,20.2,-24.2,0,2018,5,17,21,46,22.902,0.6167,0.0133,-0.7834,0.0745
-0.07,0.003,0.018,14,22.3,-24.3,0,2018,5,17,21,46,22.921,0.6145,0.0124,-0.7846,0.0801
-0.073,0.015,0.017,11.3,22.8,-24.2,0,2018,5,17,21,46,22.944,0.6126,0.012,-0.7856,0.0856
-0.069,0.034,0.018,8.6,21.6,-24.1,0,2018,5,17,21,46,22.96,0.6111,0.0114,-0.7861,0.091
-0.073,0.048,0.018,6.2,18.7,-24.3,0,2018,5,17,21,46,22.983,0.6099,0.0107,-0.7864,0.096
-0.077,0.06,0.021,3.8,15.7,-23.9,0,2018,5,17,21,46,23.001,0.6091,0.0098,-0.7865,0.1005
-0.073,0.066,0.025,1.4,13.5,-22.9,1023,2018,5,17,21,46,23.024,0.6087,0.0087,-0.7863,0.1045
-0.072,0.072,0.017,-0.5,12,-21.3,1023,2018,5,17,21,46,23.044,0.6086,0.0076,-0.786,0.108
-0.084,0.081,0.018,-2.8,11.4,-18.9,1023,2018,5,17,21,46,23.067,0.6088,0.0065,-0.7854,0.1112
-0.088,0.086,0.016,-4.8,11.6,-15.5,1023,2018,5,17,21,46,23.085,0.6093,0.0059,-0.7846,0.114
-0.083,0.086,0.026,-6.7,12.1,-11.7,1023,2018,5,17,21,46,23.103,0.6102,0.0058,-0.7835,0.1165
-0.075,0.088,0.022,-8.7,12.4,-8.3,1023,2018,5,17,21,46,23.122,0.6115,0.0061,-0.7822,0.1186
-0.073,0.087,0.019,-10.6,12.1,-5.2,1023,2018,5,17,21,46,23.145,0.613,0.0067,-0.7807,0.1205
-0.067,0.078,0.012,-12.9,11.9,-2.5,1023,2018,5,17,21,46,23.163,0.6149,0.0077,-0.779,0.122
-0.065,0.077,0.008,-14.8,12.5,-0.1,1023,2018,5,17,21,46,23.201,0.617,0.0089,-0.7771,0.1233
-0.059,0.064,0.002,-16.7,13.7,2.6,1023,2018,5,17,21,46,23.224,0.6194,0.0104,-0.7749,0.1246
-0.052,0.059,0.005,-17.9,14.4,4.8,1023,2018,5,17,21,46,23.229,0.622,0.0122,-0.7726,0.1259
-0.047,0.044,0.002,-18.7,14.3,5.9,1023,2018,5,17,21,46,23.245,0.6248,0.0144,-0.7702,0.1269
-0.035,0.041,0,-19.7,13.3,6.7,0,2018,5,17,21,46,23.283,0.6276,0.0166,-0.7677,0.1278
-0.025,0.029,-0.005,-20.7,12.9,7.3,0,2018,5,17,21,46,23.306,0.6305,0.0186,-0.7651,0.1287
-0.019,0.025,-0.015,-21.2,13,8.9,0,2018,5,17,21,46,23.311,0.6335,0.0206,-0.7625,0.1295
-0.022,0.009,-0.019,-20.7,13.5,11.7,0,2018,5,17,21,46,23.329,0.6363,0.023,-0.7599,0.1301
-0.008,-0.008,-0.018,-20.4,15.2,14.2,0,2018,5,17,21,46,23.365,0.6392,0.0257,-0.7573,0.1307
0.007,-0.012,-0.023,-19.4,16.4,15.6,0,2018,5,17,21,46,23.365,0.6419,0.0288,-0.7548,0.1315
0.014,-0.016,-0.034,-18.7,16.5,15.6,0,2018,5,17,21,46,23.388,0.6445,0.032,-0.7523,0.1322
0.023,-0.03,-0.034,-18.4,17.7,15.8,0,2018,5,17,21,46,23.406,0.6469,0.0353,-0.7499,0.133
0.016,-0.039,-0.034,-17,19.2,16.6,0,2018,5,17,21,46,23.424,0.6492,0.0387,-0.7476,0.134
0.006,-0.051,-0.024,-15.7,20.9,17.5,0,2018,5,17,21,46,23.448,0.6513,0.0423,-0.7453,0.1353
0.008,-0.055,-0.023,-14.7,22.7,18,0,2018,5,17,21,46,23.466,0.6533,0.0463,-0.7431,0.1367
0.023,-0.054,-0.019,-14.5,23.3,16.7,0,2018,5,17,21,46,23.487,0.6552,0.0503,-0.7409,0.1383
0.033,-0.055,-0.02,-14.5,22.7,13.9,0,2018,5,17,21,46,23.505,0.657,0.054,-0.7387,0.1401
0.032,-0.063,-0.021,-14.6,23.1,11.5,0,2018,5,17,21,46,23.529,0.6587,0.0575,-0.7365,0.1422
0.04,-0.065,-0.015,-14.5,25.2,9.2,1023,2018,5,17,21,46,23.547,0.6603,0.0605,-0.7343,0.1449
0.045,-0.06,-0.006,-14.1,28.2,7,1023,2018,5,17,21,46,23.57,0.6619,0.0637,-0.732,0.1481
0.051,-0.064,0.003,-14,31.4,4.2,1023,2018,5,17,21,46,23.588,0.6634,0.0667,-0.7295,0.1521
0.057,-0.052,0.006,-14.7,34.9,1.3,1023,2018,5,17,21,46,23.611,0.6648,0.0698,-0.7269,0.1568
0.052,-0.053,0.01,-15.7,38.3,-1.3,1023,2018,5,17,21,46,23.627,0.6662,0.0729,-0.7241,0.1621
0.05,-0.049,0.023,-17.1,41.7,-3.8,1023,2018,5,17,21,46,23.646,0.6677,0.0764,-0.721,0.1682
0.062,-0.045,0.027,-18.6,43.9,-6.5,1023,2018,5,17,21,46,23.669,0.6693,0.0799,-0.7176,0.1749
0.072,-0.033,0.034,-20,42.9,-10.3,1023,2018,5,17,21,46,23.687,0.671,0.083,-0.7139,0.182
0.053,-0.031,0.035,-20.7,40,-14,1023,2018,5,17,21,46,23.724,0.6727,0.0852,-0.7101,0.1894
0.002,-0.044,0.06,-21,38.5,-16,1023,2018,5,17,21,46,23.746,0.6744,0.0867,-0.7062,0.1968
-0.02,-0.059,0.072,-23.9,38.6,-17.7,1023,2018,5,17,21,46,23.751,0.6764,0.088,-0.7021,0.2043
-0.013,-0.053,0.05,-28.1,35.4,-20.8,1023,2018,5,17,21,46,23.768,0.6786,0.0886,-0.6975,0.212
0,-0.048,0.026,-32.1,31.8,-25.1,1023,2018,5,17,21,46,23.79,0.681,0.0884,-0.6928,0.2196
0.007,-0.035,0.015,-36.7,30.5,-29.9,0,2018,5,17,21,46,23.809,0.6836,0.0872,-0.6879,0.2274
0.007,-0.018,0.009,-40.9,32.2,-34.1,0,2018,5,17,21,46,23.832,0.6865,0.0852,-0.6824,0.2358
0.006,-0.005,-0.007,-43.9,34.1,-36.8,0,2018,5,17,21,46,23.85,0.6895,0.0832,-0.6764,0.2447
0.01,0.01,-0.027,-45.3,34.6,-37.7,0,2018,5,17,21,46,23.873,0.6926,0.081,-0.6702,0.2539
0.018,0.03,-0.044,-45,34.2,-37.4,0,2018,5,17,21,46,23.89,0.6955,0.0789,-0.6639,0.2629
0.036,0.051,-0.051,-43.3,33,-36.7,0,2018,5,17,21,46,23.908,0.6982,0.077,-0.6578,0.2715
0.056,0.066,-0.067,-40.7,31.9,-35.7,0,2018,5,17,21,46,23.93,0.7006,0.0753,-0.6519,0.2798
0.074,0.081,-0.086,-37.4,30.7,-34.4,0,2018,5,17,21,46,23.968,0.7026,0.0738,-0.6465,0.2876
0.076,0.096,-0.094,-33.3,29.5,-31.7,0,2018,5,17,21,46,23.968,0.7042,0.0725,-0.6416,0.2949
0.07,0.102,-0.102,-29.1,30.2,-27.4,0,2018,5,17,21,46,23.99,0.7054,0.0722,-0.6373,0.3015
0.074,0.127,-0.093,-25.1,30.7,-22.4,0,2018,5,17,21,46,24.027,0.7065,0.0726,-0.6332,0.3075
0.082,0.147,-0.109,-20.6,28.5,-17.2,0,2018,5,17,21,46,24.048,0.7076,0.0729,-0.629,0.3135
0.086,0.163,-0.111,-15.9,22.9,-11.9,0,2018,5,17,21,46,24.051,0.7084,0.0734,-0.6255,0.3183
0.081,0.166,-0.115,-10.2,16.6,-5.4,0,2018,5,17,21,46,24.087,0.7091,0.0741,-0.6229,0.3217
0.068,0.15,-0.118,-4.5,13.9,2.7,1023,2018,5,17,21,46,24.109,0.7097,0.0754,-0.6212,0.3235
0.05,0.145,-0.123,1.5,14.7,11.3,1023,2018,5,17,21,46,24.111,0.71,0.0779,-0.6201,0.3242
0.056,0.149,-0.126,7.4,15.8,19.4,1023,2018,5,17,21,46,24.148,0.7102,0.0816,-0.6196,0.3239
0.056,0.15,-0.122,14,14.9,26.4,1023,2018,5,17,21,46,24.148,0.7101,0.0867,-0.6197,0.3226
0.048,0.142,-0.114,20.7,14.3,33.1,1023,2018,5,17,21,46,24.169,0.7097,0.0928,-0.6206,0.3201
0.029,0.13,-0.093,27.7,15.5,40.1,1023,2018,5,17,21,46,24.206,0.7088,0.0997,-0.6221,0.3168
0.013,0.109,-0.081,33.8,18.6,47.1,1023,2018,5,17,21,46,24.228,0.7075,0.1087,-0.6244,0.3123
-0.01,0.089,-0.07,38.9,23.8,53.6,1023,2018,5,17,21,46,24.232,0.7057,0.1196,-0.6272,0.3069
-0.03,0.072,-0.052,42.3,30.2,59.1,1023,2018,5,17,21,46,24.269,0.7035,0.1319,-0.6298,0.3014
-0.067,0.053,-0.028,43.6,38.9,63.2,1023,2018,5,17,21,46,24.292,0.7011,0.1455,-0.632,0.2962
-0.076,0.044,-0.006,42.5,46.7,64.8,1023,2018,5,17,21,46,24.296,0.6985,0.1604,-0.6333,0.2916
-0.061,0.034,0.007,40.2,50.6,63.3,1023,2018,5,17,21,46,24.312,0.6959,0.1758,-0.6339,0.2877
-0.046,0.037,0.019,37.3,48.6,59.4,1023,2018,5,17,21,46,24.335,0.6932,0.1908,-0.634,0.2844
-0.032,0.038,0.031,34.3,38.9,53.4,1023,2018,5,17,21,46,24.373,0.6909,0.2041,-0.6339,0.2811
-0.023,0.018,0.045,31.5,26.5,47.2,0,2018,5,17,21,46,24.395,0.6889,0.2151,-0.6341,0.2774
-0.012,-0.006,0.063,28.9,15.4,42.4,0,2018,5,17,21,46,24.4,0.6873,0.2237,-0.6346,0.2733
-0.003,-0.028,0.071,26.4,7.2,39.1,0,2018,5,17,21,46,24.414,0.6861,0.2305,-0.6353,0.2688
0,-0.053,0.078,23.8,1.5,36.8,0,2018,5,17,21,46,24.432,0.6854,0.2358,-0.6362,0.2641
0.005,-0.074,0.085,21.1,-0.8,35,0,2018,5,17,21,46,24.455,0.6849,0.2401,-0.637,0.2595
0.018,-0.094,0.088,17.3,0.2,33.2,0,2018,5,17,21,46,24.472,0.6847,0.2438,-0.6375,0.2553
0.023,-0.107,0.097,13.7,2.2,30.5,0,2018,5,17,21,46,24.495,0.6844,0.2479,-0.6378,0.2512
0.011,-0.116,0.103,9.6,4.4,27.2,0,2018,5,17,21,46,24.513,0.6843,0.252,-0.6378,0.2476
-0.03,-0.121,0.1,4.8,4.7,22.9,0,2018,5,17,21,46,24.534,0.6843,0.2556,-0.6373,0.2449
-0.046,-0.123,0.097,-0.9,1.9,17.2,0,2018,5,17,21,46,24.574,0.6849,0.2581,-0.6365,0.2429
-0.052,-0.127,0.085,-5.9,-3.1,10,0,2018,5,17,21,46,24.574,0.6859,0.2595,-0.6355,0.2413
-0.047,-0.134,0.078,-10.6,-8.3,0.9,0,2018,5,17,21,46,24.596,0.6873,0.259,-0.6345,0.2404
-0.044,-0.137,0.062,-13.6,-10.5,-9,1023,2018,5,17,21,46,24.633,0.689,0.2568,-0.6336,0.2404
-0.034,-0.127,0.045,-15.6,-9.3,-18.6,1023,2018,5,17,21,46,24.633,0.6905,0.2522,-0.6328,0.2426
-0.035,-0.122,0.031,-16.4,-4.4,-26.8,1023,2018,5,17,21,46,24.655,0.6915,0.2474,-0.6323,0.2462
-0.012,-0.114,0.012,-16.1,3,-33.4,1023,2018,5,17,21,46,24.672,0.6918,0.2425,-0.6319,0.2512
-0.001,-0.099,0.002,-14.3,12,-37.5,1023,2018,5,17,21,46,24.694,0.6914,0.2381,-0.6314,0.2576
0.015,-0.067,0.003,-9.1,31.6,-40.1,1023,2018,5,17,21,46,24.73,0.6881,0.2325,-0.6302,0.274
0.021,-0.055,0.001,-6.8,39.5,-39.4,1023,2018,5,17,21,46,24.753,0.6854,0.2317,-0.6293,0.2834
0.016,-0.055,-0.012,-4.9,46,-38.2,1023,2018,5,17,21,46,24.757,0.6822,0.232,-0.6281,0.2933
0.01,-0.046,-0.009,-3.6,50.3,-36.9,1023,2018,5,17,21,46,24.792,0.6785,0.2333,-0.6269,0.3035
-0.015,-0.045,-0.011,-3.2,54.6,-36.1,1023,2018,5,17,21,46,24.816,0.6744,0.2352,-0.6254,0.3139
-0.033,-0.044,-0.007,-3.6,56.9,-36.5,1023,2018,5,17,21,46,24.818,0.6703,0.2375,-0.6235,0.3245
-0.039,-0.034,-0.017,-5.1,57.8,-37.9,1023,2018,5,17,21,46,24.854,0.666,0.2398,-0.6215,0.3355
-0.037,-0.023,-0.022,-6.5,58,-39.4,1023,2018,5,17,21,46,24.876,0.6616,0.242,-0.6192,0.3465
-0.043,-0.017,-0.02,-8.2,58.2,-41,0,2018,5,17,21,46,24.878,0.6573,0.2438,-0.6168,0.3577
-0.053,-0.003,-0.023,-10,57.9,-42.2,0,2018,5,17,21,46,24.916,0.6529,0.2457,-0.6141,0.369
-0.051,0.019,-0.033,-12.5,55.7,-43.6,0,2018,5,17,21,46,24.937,0.6486,0.2472,-0.6111,0.3802
-0.043,0.044,-0.046,-14.6,50.2,-45.3,0,2018,5,17,21,46,24.939,0.6446,0.2479,-0.6082,0.3911
-0.044,0.061,-0.061,-16.4,43.6,-46.8,0,2018,5,17,21,46,24.958,0.6409,0.2479,-0.6054,0.4014
-0.037,0.082,-0.068,-17.7,36.9,-46.8,0,2018,5,17,21,46,24.975,0.6375,0.247,-0.603,0.4109
-0.024,0.096,-0.078,-18.4,29.9,-45.4,0,2018,5,17,21,46,24.998,0.6345,0.2454,-0.6008,0.4195
-0.008,0.106,-0.09,-17.8,24.2,-42.6,0,2018,5,17,21,46,25.035,0.6319,0.2434,-0.599,0.4271
-0.005,0.122,-0.105,-16.3,19.6,-38.6,0,2018,5,17,21,46,25.057,0.6298,0.2402,-0.5972,0.4346
0.01,0.135,-0.113,-14,16.6,-33.5,0,2018,5,17,21,46,25.059,0.6278,0.2373,-0.5956,0.441
0.027,0.16,-0.119,-10.7,17.4,-26.5,0,2018,5,17,21,46,25.095,0.6261,0.2351,-0.5942,0.4466
0.047,0.185,-0.128,-6.7,15.7,-19.1,0,2018,5,17,21,46,25.117,0.6245,0.234,-0.5929,0.4511
0.049,0.214,-0.106,-1.9,7.5,-12,0,2018,5,17,21,46,25.119,0.6232,0.2334,-0.5921,0.4543
0.042,0.215,-0.088,3.2,-8.5,-6.1,1023,2018,5,17,21,46,25.155,0.6225,0.2324,-0.5926,0.4552
0.044,0.197,-0.09,8.1,-21.6,0,1023,2018,5,17,21,46,25.176,0.6223,0.2308,-0.5946,0.4536
0.041,0.171,-0.088,13.2,-28.3,6.9,1023,2018,5,17,21,46,25.178,0.6224,0.2293,-0.5977,0.4501
0.037,0.15,-0.085,17.5,-26.5,14.9,1023,2018,5,17,21,46,25.214,0.6228,0.2287,-0.6011,0.4454
0.033,0.129,-0.08,20.9,-22.2,23.1,1023,2018,5,17,21,46,25.236,0.6232,0.2295,-0.6043,0.4399
0.03,0.12,-0.072,24.1,-14.9,31.6,1023,2018,5,17,21,46,25.239,0.6237,0.2332,-0.6072,0.4332
0.02,0.109,-0.049,27.2,-7.1,40.2,1023,2018,5,17,21,46,25.276,0.6243,0.2386,-0.6094,0.4263
0.02,0.092,-0.036,30.2,0.8,48,1023,2018,5,17,21,46,25.298,0.6249,0.2458,-0.6109,0.4193
0.019,0.083,-0.025,32.6,7,54.6,1023,2018,5,17,21,46,25.301,0.6254,0.2545,-0.6116,0.4123
0.008,0.069,-0.006,34.8,10.2,59.8,1023,2018,5,17,21,46,25.337,0.6256,0.2646,-0.6119,0.405
-0.011,0.049,0.017,36.3,12.2,63.9,1023,2018,5,17,21,46,25.357,0.6259,0.2753,-0.6119,0.3974
-0.039,0.036,0.039,36.5,12.7,66.3,1023,2018,5,17,21,46,25.36,0.6262,0.2863,-0.6114,0.3897
-0.055,0.014,0.061,35.4,10,66.9,1023,2018,5,17,21,46,25.396,0.6267,0.297,-0.6108,0.3818
-0.074,-0.013,0.08,32.7,8.7,65.5,1023,2018,5,17,21,46,25.417,0.6274,0.3071,-0.61,0.3739
-0.079,-0.033,0.09,27.9,8.1,62.4,1023,2018,5,17,21,46,25.423,0.6283,0.3163,-0.6088,0.3666
-0.072,-0.04,0.1,22.3,6,56.7,0,2018,5,17,21,46,25.46,0.6295,0.3244,-0.6073,0.3599
-0.071,-0.058,0.114,16.3,0.3,48.3,0,2018,5,17,21,46,25.46,0.631,0.3308,-0.6058,0.354
-0.059,-0.066,0.114,10.5,-7.6,38.3,0,2018,5,17,21,46,25.482,0.6329,0.3349,-0.6045,0.3488
-0.056,-0.078,0.118,5.1,-15.6,28.1,0,2018,5,17,21,46,25.5,0.6353,0.3366,-0.6037,0.3442
-0.06,-0.097,0.106,0.2,-21.4,19.1,0,2018,5,17,21,46,25.52,0.6379,0.3362,-0.6034,0.3403
-0.049,-0.111,0.095,-4.5,-23.1,11.9,0,2018,5,17,21,46,25.557,0.6406,0.3343,-0.6034,0.3372
-0.031,-0.117,0.083,-9,-22,5.9,0,2018,5,17,21,46,25.577,0.6432,0.3313,-0.6033,0.3351
-0.014,-0.117,0.061,-12.2,-19.9,0.5,0,2018,5,17,21,46,25.582,0.6458,0.3277,-0.6031,0.334
-0.005,-0.112,0.046,-14,-16.6,-3.9,0,2018,5,17,21,46,25.62,0.648,0.3239,-0.6029,0.3339
0.007,-0.111,0.033,-15.3,-12,-7.4,0,2018,5,17,21,46,25.641,0.6499,0.3201,-0.6025,0.3346
0.011,-0.109,0.027,-15.7,-6.6,-10.1,0,2018,5,17,21,46,25.644,0.6513,0.3165,-0.602,0.3362
0.012,-0.094,0.007,-16.1,-1.9,-12.4,0,2018,5,17,21,46,25.679,0.6522,0.3133,-0.6013,0.3386
0.016,-0.079,-0.006,-16.7,0.8,-15.2,1023,2018,5,17,21,46,25.7,0.6528,0.3105,-0.6005,0.3415
0.011,-0.066,-0.018,-17,1.4,-18,1023,2018,5,17,21,46,25.703,0.653,0.3077,-0.5998,0.3448
-0.002,-0.057,-0.023,-17.1,1.1,-21.1,1023,2018,5,17,21,46,25.741,0.6531,0.3046,-0.5993,0.3484
-0.005,-0.05,-0.036,-17.1,1,-24.1,1023,2018,5,17,21,46,25.764,0.6531,0.3012,-0.5988,0.3521
-0.014,-0.041,-0.047,-17,1.7,-27.2,1023,2018,5,17,21,46,25.769,0.6526,0.2977,-0.5987,0.3562
-0.019,-0.037,-0.054,-16.6,2.7,-30.6,1023,2018,5,17,21,46,25.784,0.652,0.2938,-0.5986,0.3606
-0.02,-0.023,-0.071,-16.1,4.4,-34.1,1023,2018,5,17,21,46,25.823,0.6509,0.29,-0.5987,0.3654
-0.017,-0.012,-0.066,-14.9,7.2,-37.3,1023,2018,5,17,21,46,25.843,0.6495,0.2861,-0.5989,0.3707
-0.019,0.002,-0.078,-14,10.5,-40.1,1023,2018,5,17,21,46,25.849,0.6474,0.2826,-0.5992,0.3765
-0.032,0.021,-0.074,-12.5,13.8,-41.4,1023,2018,5,17,21,46,25.866,0.6451,0.2792,-0.5993,0.3827
-0.039,0.04,-0.087,-11.2,16.3,-41.6,1023,2018,5,17,21,46,25.889,0.6424,0.2763,-0.5995,0.389
-0.032,0.06,-0.092,-9.5,17.5,-41,1023,2018,5,17,21,46,25.908,0.6395,0.2738,-0.5996,0.3954
-0.03,0.076,-0.087,-7.2,17.9,-40.2,1023,2018,5,17,21,46,25.945,0.6364,0.2718,-0.5997,0.4015
-0.011,0.092,-0.083,-4.6,17.4,-38.4,0,2018,5,17,21,46,25.968,0.6333,0.27,-0.6,0.4072
-0.003,0.105,-0.084,-2,16.8,-36.1,0,2018,5,17,21,46,25.971,0.63,0.2689,-0.6004,0.4124
0.01,0.113,-0.079,0.7,16.8,-32.6,0,2018,5,17,21,46,25.984,0.6268,0.2681,-0.601,0.4171
0.016,0.127,-0.079,3.7,17.5,-28,0,2018,5,17,21,46,26.019,0.6235,0.2672,-0.6014,0.4218
0.027,0.14,-0.07,6.3,18.4,-22.3,0,2018,5,17,21,46,26.039,0.6203,0.267,-0.6018,0.4262
0.024,0.156,-0.071,8.8,17.2,-15.6,0,2018,5,17,21,46,26.045,0.6172,0.2675,-0.6022,0.4297
0.02,0.17,-0.061,11.2,13,-8.7,0,2018,5,17,21,46,26.082,0.6145,0.2687,-0.6027,0.4322
0.018,0.179,-0.052,13.2,4.9,-1.6,0,2018,5,17,21,46,26.103,0.6124,0.2701,-0.6036,0.4331
0.011,0.176,-0.042,14.5,-5.6,4.8,0,2018,5,17,21,46,26.108,0.611,0.2714,-0.605,0.4321
0.005,0.171,-0.035,14.9,-15.9,10.8,0,2018,5,17,21,46,26.145,0.6106,0.2722,-0.6071,0.4294
0,0.153,-0.028,14.3,-25.3,16,0,2018,5,17,21,46,26.168,0.6111,0.2727,-0.6095,0.4248
-0.005,0.136,-0.029,13.3,-32.2,20.4,0,2018,5,17,21,46,26.172,0.6128,0.2737,-0.612,0.4182
-0.012,0.115,-0.016,12.4,-37.4,24.4,0,2018,5,17,21,46,26.208,0.6151,0.2741,-0.6146,0.4106
-0.014,0.105,-0.018,11.3,-40.6,28.2,1023,2018,5,17,21,46,26.212,0.6179,0.2744,-0.6171,0.4023
-0.014,0.076,-0.02,11.1,-41.4,31.6,1023,2018,5,17,21,46,26.229,0.621,0.2745,-0.6197,0.3935
-0.017,0.067,-0.015,11.7,-42.7,35,1023,2018,5,17,21,46,26.248,0.6243,0.2748,-0.622,0.3843
-0.025,0.049,-0.012,12.4,-42,38.5,1023,2018,5,17,21,46,26.284,0.6276,0.2753,-0.6243,0.3747
-0.025,0.03,-0.013,13.4,-40.5,41.5,1023,2018,5,17,21,46,26.307,0.6308,0.2763,-0.6264,0.3649
-0.022,0.018,-0.007,14.5,-38.8,43.8,1023,2018,5,17,21,46,26.312,0.6339,0.2777,-0.6283,0.355
-0.025,0,0,15.6,-38.5,44.7,1023,2018,5,17,21,46,26.327,0.6369,0.2792,-0.6302,0.3451
-0.034,-0.014,0.009,16.7,-38.5,44.9,1023,2018,5,17,21,46,26.35,0.6397,0.2807,-0.6321,0.335
-0.035,-0.036,0.016,17.8,-38.2,44.3,1023,2018,5,17,21,46,26.388,0.6423,0.282,-0.634,0.3252
-0.026,-0.051,0.028,17.6,-36.4,42.8,1023,2018,5,17,21,46,26.41,0.6447,0.2832,-0.6359,0.3156
-0.017,-0.073,0.038,17.1,-33.8,40.6,1023,2018,5,17,21,46,26.415,0.6469,0.2842,-0.6376,0.3067
-0.019,-0.084,0.046,15.9,-31,37.6,1023,2018,5,17,21,46,26.433,0.6488,0.2851,-0.6392,0.2984
-0.019,-0.096,0.054,14.1,-28.8,33.9,1023,2018,5,17,21,46,26.451,0.6505,0.2857,-0.6405,0.2911
-0.018,-0.105,0.063,12.1,-26.9,29.5,1023,2018,5,17,21,46,26.474,0.6522,0.2857,-0.6417,0.2845
-0.008,-0.116,0.064,9.8,-25.7,25.2,0,2018,5,17,21,46,26.492,0.6537,0.2855,-0.6428,0.2788
-0.006,-0.122,0.06,7.5,-24.3,20,0,2018,5,17,21,46,26.515,0.6552,0.2846,-0.6438,0.2739
-0.004,-0.128,0.067,5.1,-22.8,14.4,0,2018,5,17,21,46,26.532,0.6566,0.283,-0.6447,0.27
-0.008,-0.129,0.065,2.7,-20.3,8.4,0,2018,5,17,21,46,26.568,0.6578,0.2812,-0.6456,0.2668
-0.011,-0.131,0.063,0,-16.7,2.4,0,2018,5,17,21,46,26.591,0.6589,0.2792,-0.6463,0.2647
-0.013,-0.117,0.061,-3.2,-13.3,-4,0,2018,5,17,21,46,26.595,0.6598,0.2765,-0.6468,0.2641
-0.016,-0.106,0.056,-6.3,-12,-10.9,0,2018,5,17,21,46,26.611,0.6606,0.2732,-0.6471,0.2646
-0.02,-0.096,0.041,-9.7,-11.1,-17.5,0,2018,5,17,21,46,26.649,0.6613,0.2692,-0.6474,0.2661
-0.026,-0.079,0.039,-12.5,-9.9,-23.5,0,2018,5,17,21,46,26.672,0.6622,0.2645,-0.6475,0.2685
-0.027,-0.061,0.024,-15.3,-9,-29.2,0,2018,5,17,21,46,26.677,0.6629,0.2594,-0.6476,0.2717
-0.015,-0.046,0.015,-17.5,-8.7,-34.8,0,2018,5,17,21,46,26.693,0.6635,0.2537,-0.6475,0.2754
-0.015,-0.024,0.007,-18.7,-8.2,-40.2,0,2018,5,17,21,46,26.716,0.6641,0.2474,-0.6475,0.2799
-0.022,-0.009,-0.004,-19.5,-6.3,-44.4,1023,2018,5,17,21,46,26.733,0.6644,0.2408,-0.6475,0.2848
-0.024,0.013,-0.008,-19.6,-3.2,-47.1,1023,2018,5,17,21,46,26.749,0.6644,0.2342,-0.6475,0.2904
-0.026,0.034,-0.022,-19.3,0,-48.3,1023,2018,5,17,21,46,26.789,0.6641,0.228,-0.6473,0.2963
-0.026,0.052,-0.032,-18.8,4.3,-48.3,1023,2018,5,17,21,46,26.791,0.6635,0.2224,-0.647,0.3025
-0.022,0.076,-0.031,-18.2,8.6,-46.8,1023,2018,5,17,21,46,26.828,0.6627,0.2175,-0.6464,0.3089
-0.02,0.092,-0.039,-17.2,13.9,-44.3,1023,2018,5,17,21,46,26.849,0.6618,0.2134,-0.6456,0.3155
-0.013,0.116,-0.051,-16.2,22.4,-40.4,1023,2018,5,17,21,46,26.851,0.6607,0.2106,-0.6443,0.3223
-0.006,0.14,-0.063,-14.8,28.9,-35.7,1023,2018,5,17,21,46,26.889,0.6593,0.2093,-0.6425,0.3295
0,0.166,-0.061,-12.8,33,-30.7,1023,2018,5,17,21,46,26.908,0.6577,0.2085,-0.6403,0.3372
0.013,0.196,-0.064,-10,33.2,-25.7,1023,2018,5,17,21,46,26.915,0.6561,0.2086,-0.6381,0.3446
0.022,0.225,-0.056,-6.8,27.4,-21.2,0,2018,5,17,21,46,26.952,0.6545,0.209,-0.6361,0.351
0.027,0.245,-0.054,-3.3,16,-16.5,0,2018,5,17,21,46,26.975,0.6531,0.2092,-0.6349,0.3557
0.034,0.255,-0.048,0.3,0.4,-11,0,2018,5,17,21,46,26.979,0.6521,0.2085,-0.6347,0.3582
0.033,0.248,-0.04,3.5,-15,-3.9,0,2018,5,17,21,46,26.997,0.6516,0.207,-0.6357,0.358
0.027,0.235,-0.03,6.4,-29.5,4.1,0,2018,5,17,21,46,27.013,0.6518,0.2049,-0.6378,0.3552
0.015,0.21,-0.024,8.9,-41.2,12.7,0,2018,5,17,21,46,27.05,0.6527,0.2024,-0.6406,0.3499
0.01,0.187,-0.012,10.1,-48.4,20.9,0,2018,5,17,21,46,27.073,0.6542,0.1998,-0.6439,0.3425
0.004,0.152,-0.011,10.6,-52.6,27.5,0,2018,5,17,21,46,27.077,0.6565,0.1983,-0.6471,0.333
-0.003,0.111,-0.01,10.6,-50.8,33,0,2018,5,17,21,46,27.113,0.6591,0.1973,-0.65,0.3223
-0.002,0.079,-0.012,10,-43.1,37.7,0,2018,5,17,21,46,27.137,0.6617,0.1973,-0.6525,0.3119
-0.007,0.063,-0.007,9.7,-32.8,41.6,0,2018,5,17,21,46,27.141,0.6641,0.1987,-0.6542,0.3021
-0.021,0.043,-0.004,9.3,-23.3,44.5,0,2018,5,17,21,46,27.158,0.6664,0.2012,-0.6551,0.2933
-0.023,0.033,-0.006,9.5,-17.8,45.7,0,2018,5,17,21,46,27.193,0.6684,0.2048,-0.6556,0.2852
-0.017,0.025,0.006,9.9,-16.1,45.2,0,2018,5,17,21,46,27.217,0.6702,0.2088,-0.6558,0.2774
-0.018,0.011,0.01,10.5,-16.6,43.7,0,2018,5,17,21,46,27.22,0.6718,0.2127,-0.6561,0.2698
-0.021,-0.009,0.012,10.7,-17.5,41.3,0,2018,5,17,21,46,27.235,0.6733,0.216,-0.6565,0.2625
-0.031,-0.024,0.028,11.2,-21.3,36.9,1023,2018,5,17,21,46,27.273,0.6746,0.2186,-0.657,0.2555
-0.044,-0.038,0.036,10.8,-32.2,30.2,1023,2018,5,17,21,46,27.296,0.6759,0.2195,-0.6581,0.2483
-0.047,-0.054,0.033,9.5,-44,22.8,1023,2018,5,17,21,46,27.3,0.6775,0.2181,-0.6598,0.2408
-0.03,-0.085,0.029,7.2,-51.3,15.2,1023,2018,5,17,21,46,27.316,0.6792,0.2141,-0.662,0.2332
-0.007,-0.117,0.025,4.5,-49.7,8.3,1023,2018,5,17,21,46,27.339,0.6809,0.2088,-0.6643,0.2265
0.012,-0.141,0.025,1.9,-38.6,3.5,1023,2018,5,17,21,46,27.357,0.6823,0.2033,-0.6663,0.2215
0.009,-0.145,0.028,0.1,-21.7,0.9,1023,2018,5,17,21,46,27.394,0.6832,0.1989,-0.6676,0.2187
0.019,-0.129,0.032,-1.3,-3.5,-0.8,1023,2018,5,17,21,46,27.417,0.6836,0.1964,-0.668,0.2183
0.026,-0.103,0.034,-1.8,7.7,-2.7,1023,2018,5,17,21,46,27.421,0.6836,0.1955,-0.6678,0.2199
0.029,-0.081,0.027,-2.6,13.5,-5.4,1023,2018,5,17,21,46,27.438,0.6833,0.1956,-0.6672,0.2225
0.02,-0.063,0.02,-3.1,15.5,-8.2,1023,2018,5,17,21,46,27.461,0.6829,0.1959,-0.6665,0.2257
0.009,-0.053,0.021,-4.2,15.6,-10.9,1023,2018,5,17,21,46,27.498,0.6824,0.1961,-0.6657,0.2292
0.009,-0.043,0.015,-5.3,15.2,-13.5,1023,2018,5,17,21,46,27.521,0.6819,0.1961,-0.6649,0.2329
0.009,-0.025,0.009,-5.9,14.5,-16.5,1023,2018,5,17,21,46,27.526,0.6814,0.1958,-0.6641,0.2369
0.009,-0.018,0.001,-5.8,14.4,-19.3,0,2018,5,17,21,46,27.539,0.6809,0.195,-0.6634,0.2411
0.004,-0.007,-0.006,-5.8,15.4,-21.6,0,2018,5,17,21,46,27.558,0.6801,0.1941,-0.6628,0.2455
0.003,0.003,-0.003,-5.2,16.9,-23.4,0,2018,5,17,21,46,27.581,0.6792,0.1933,-0.6622,0.2502
0.006,0.011,-0.007,-4.3,19.7,-24.7,0,2018,5,17,21,46,27.6,0.678,0.1927,-0.6617,0.2553
0,0.024,-0.005,-3.2,22.9,-25.3,0,2018,5,17,21,46,27.618,0.6765,0.1923,-0.6612,0.2607
0.001,0.044,-0.003,-2.7,25.5,-25.8,0,2018,5,17,21,46,27.64,0.6749,0.1925,-0.6606,0.2664
-0.004,0.056,-0.013,-2.1,27.5,-25.5,0,2018,5,17,21,46,27.659,0.6731,0.193,-0.6599,0.2722
-0.005,0.066,-0.012,-1.6,28.9,-24.2,0,2018,5,17,21,46,27.682,0.6712,0.1939,-0.6591,0.2781
-0.007,0.078,-0.012,-0.7,29.7,-22.5,0,2018,5,17,21,46,27.701,0.6693,0.1952,-0.6583,0.2837
-0.009,0.089,-0.013,0,29.9,-20.1,0,2018,5,17,21,46,27.724,0.6673,0.1969,-0.6574,0.2891
-0.007,0.095,-0.012,1,29.9,-17.3,0,2018,5,17,21,46,27.741,0.6654,0.199,-0.6565,0.294
-0.006,0.107,-0.015,1.8,28.4,-14.1,0,2018,5,17,21,46,27.758,0.6637,0.2014,-0.6555,0.2985
-0.005,0.109,-0.013,2.4,26.5,-11.1,1023,2018,5,17,21,46,27.781,0.662,0.2041,-0.6546,0.3023
-0.002,0.115,-0.012,3,23.5,-8.2,1023,2018,5,17,21,46,27.799,0.6605,0.207,-0.6538,0.3054
0.002,0.115,-0.011,3.2,20,-4.9,1023,2018,5,17,21,46,27.822,0.6592,0.2098,-0.6531,0.3078
0.007,0.118,-0.009,3.3,15.7,-2,1023,2018,5,17,21,46,27.858,0.6583,0.2125,-0.6524,0.3094
0,0.106,-0.011,3.5,9.6,0.8,1023,2018,5,17,21,46,27.881,0.6576,0.2149,-0.652,0.3099
0.003,0.098,-0.015,3.5,5.2,3.7,1023,2018,5,17,21,46,27.885,0.6573,0.2169,-0.6518,0.3098
0.005,0.087,-0.013,4,1.6,6.7,1023,2018,5,17,21,46,27.901,0.6571,0.2189,-0.6517,0.3088
0.007,0.073,-0.006,4.3,0,9.4,1023,2018,5,17,21,46,27.924,0.6573,0.2206,-0.6517,0.3073
0.007,0.058,-0.005,4.9,-0.9,11.7,1023,2018,5,17,21,46,27.941,0.6575,0.2225,-0.6517,0.3054
0.001,0.051,-0.009,4.9,-2.5,13.4,1023,2018,5,17,21,46,27.964,0.6578,0.2242,-0.6518,0.3033
0,0.042,-0.007,4.5,-3.8,14.4,0,2018,5,17,21,46,27.982,0.6583,0.226,-0.6519,0.3008
0,0.032,-0.002,4.1,-4.9,15.7,0,2018,5,17,21,46,28.005,0.6588,0.2276,-0.652,0.2982
0,0.021,-0.002,3.2,-5.3,16.1,0,2018,5,17,21,46,28.021,0.6595,0.229,-0.6519,0.2956
0.006,0.01,-0.005,2.6,-6,16.3,0,2018,5,17,21,46,28.058,0.6604,0.2302,-0.6519,0.293
0.013,0.001,-0.012,2.3,-7.4,15.5,0,2018,5,17,21,46,28.081,0.6611,0.2314,-0.6519,0.2902
0.018,-0.002,-0.006,2,-9.1,14.5,0,2018,5,17,21,46,28.086,0.662,0.2321,-0.652,0.2875
0.023,-0.014,-0.006,1.8,-11,13.4,0,2018,5,17,21,46,28.104,0.6628,0.2325,-0.6522,0.2847
0.029,-0.025,-0.004,1.4,-12.2,12.1,0,2018,5,17,21,46,28.122,0.6636,0.2326,-0.6525,0.282
0.033,-0.032,-0.007,1.2,-12.7,10.8,0,2018,5,17,21,46,28.145,0.6645,0.2321,-0.6529,0.2795
0.038,-0.038,-0.013,1.2,-12.2,8.9,0,2018,5,17,21,46,28.164,0.6652,0.2315,-0.6534,0.2771
0.032,-0.043,-0.012,1.2,-11.1,7.2,0,2018,5,17,21,46,28.186,0.6657,0.2307,-0.654,0.2751
0.023,-0.044,-0.018,0.9,-10.1,5.9,0,2018,5,17,21,46,28.204,0.6661,0.23,-0.6545,0.2734
0.004,-0.041,-0.024,0.4,-11.1,4.5,0,2018,5,17,21,46,28.226,0.6665,0.2291,-0.6551,0.2718
0.015,-0.039,-0.03,-0.2,-14.2,3.1,0,2018,5,17,21,46,28.243,0.6669,0.2279,-0.6559,0.2701
0.042,-0.041,-0.023,-0.6,-18,0.5,0,2018,5,17,21,46,28.261,0.6674,0.2259,-0.6568,0.2683
0.062,-0.045,-0.025,-0.3,-21.6,-2.7,0,2018,5,17,21,46,28.284,0.668,0.223,-0.658,0.2664
0.062,-0.046,-0.031,0.3,-22.7,-6,0,2018,5,17,21,46,28.32,0.6683,0.2196,-0.6595,0.2647
0.053,-0.052,-0.037,1,-20.5,-8.7,1023,2018,5,17,21,46,28.343,0.6683,0.2158,-0.6612,0.2634
0.037,-0.057,-0.035,2.3,-15.6,-9.4,1023,2018,5,17,21,46,28.348,0.668,0.2124,-0.663,0.2626
0.037,-0.054,-0.038,3.4,-8.8,-8.8,1023,2018,5,17,21,46,28.364,0.6673,0.2097,-0.6646,0.2624
0.029,-0.046,-0.031,4.5,-2.2,-8.1,1023,2018,5,17,21,46,28.385,0.6662,0.2081,-0.666,0.2629
0.02,-0.036,-0.033,4.5,2.5,-8.4,1023,2018,5,17,21,46,28.423,0.665,0.207,-0.6671,0.264
0.02,-0.027,-0.029,3.5,4.4,-9.9,1023,2018,5,17,21,46,28.444,0.6637,0.2064,-0.668,0.2655
0.021,-0.012,-0.025,2.8,3.2,-13,1023,2018,5,17,21,46,28.449,0.6624,0.2056,-0.6688,0.2673
0.017,-0.002,-0.027,1.6,-1.3,-17.1,1023,2018,5,17,21,46,28.467,0.6612,0.2042,-0.6697,0.2691
0.003,0.001,-0.032,0.7,-5.4,-21.1,1023,2018,5,17,21,46,28.49,0.6601,0.2017,-0.6709,0.2707
-0.018,0.004,-0.033,0.1,-7.7,-23.9,1023,2018,5,17,21,46,28.508,0.659,0.1983,-0.6723,0.2724
-0.031,0.017,-0.04,-0.5,-9.1,-25.4,1023,2018,5,17,21,46,28.531,0.658,0.1943,-0.6737,0.2742
-0.035,0.031,-0.039,-0.7,-11,-26.5,1023,2018,5,17,21,46,28.547,0.657,0.1904,-0.6752,0.2757
-0.033,0.043,-0.049,-0.9,-15,-27.2,0,2018,5,17,21,46,28.564,0.656,0.1861,-0.6768,0.2769
-0.025,0.06,-0.054,-0.7,-20.2,-28.2,0,2018,5,17,21,46,28.586,0.6552,0.1812,-0.6787,0.2776
-0.014,0.066,-0.047,-0.2,-25,-28.5,0,2018,5,17,21,46,28.624,0.6544,0.1758,-0.6809,0.2776
0,0.073,-0.047,0.7,-28.9,-28.5,0,2018,5,17,21,46,28.648,0.6537,0.1699,-0.6833,0.2769
0.018,0.078,-0.051,2.2,-32,-27.7,0,2018,5,17,21,46,28.651,0.6529,0.1637,-0.686,0.2758
0.031,0.084,-0.056,4,-33.3,-26.1,0,2018,5,17,21,46,28.669,0.652,0.1575,-0.689,0.2742
0.033,0.079,-0.045,7,-31.9,-23.1,0,2018,5,17,21,46,28.688,0.6509,0.1517,-0.6921,0.2722
0.035,0.081,-0.047,9.8,-25,-17.9,0,2018,5,17,21,46,28.711,0.6495,0.1469,-0.6952,0.2703
0.028,0.08,-0.041,13.2,-17.8,-11.6,0,2018,5,17,21,46,28.731,0.6479,0.1437,-0.698,0.2685
0.022,0.094,-0.028,16.3,-12.2,-5.2,0,2018,5,17,21,46,28.747,0.6461,0.1423,-0.7007,0.2667
0.01,0.103,-0.015,19,-11.6,0.3,0,2018,5,17,21,46,28.783,0.6443,0.1422,-0.7033,0.2644
