ax,ay,az,dpitch,droll,dyaw,heart,time_1,time_2,time_3,time_4,time_5,time_6,w,x,y,z
-0.095,-0.062,-0.054,-8.3,32.7,-12.5,0,2018,5,17,20,45,9.035,-0.4232,-0.4899,0.6207,-0.442
-0.062,-0.042,-0.021,-8.9,36.9,-10.6,0,2018,5,17,20,45,9.045,-0.4197,-0.4905,0.6187,-0.4476
-0.042,0.056,0.039,-3.8,29.5,-10,0,2018,5,17,20,45,9.063,-0.417,-0.4915,0.6162,-0.4524
-0.027,-0.002,0.052,1.4,16.3,-13.1,0,2018,5,17,20,45,9.101,-0.4146,-0.4918,0.6151,-0.4557
0.015,-0.101,0.026,0,25,-7.8,1023,2018,5,17,20,45,9.124,-0.4118,-0.4917,0.6148,-0.4587
0.031,-0.094,0.023,-6.2,58.1,1.9,1023,2018,5,17,20,45,9.129,-0.4078,-0.4936,0.6119,-0.4642
0.02,0.018,0.033,-5,82.4,3.2,1023,2018,5,17,20,45,9.146,-0.4021,-0.4985,0.6052,-0.4725
-0.024,0.183,0.053,-1.6,60.8,-10.5,1023,2018,5,17,20,45,9.168,-0.3958,-0.5036,0.5986,-0.4808
-0.044,0.245,0.015,-1.9,-6,-29.1,1023,2018,5,17,20,45,9.183,-0.3918,-0.5031,0.5982,-0.4851
-0.036,0.153,-0.036,-6.7,-42.6,-36.7,1023,2018,5,17,20,45,9.219,-0.3917,-0.4974,0.6034,-0.4847
-0.04,0.128,-0.054,-16.7,-53.5,-38.1,1023,2018,5,17,20,45,9.242,-0.3941,-0.4899,0.6098,-0.4824
-0.059,0.234,-0.004,-16.3,-75.9,-38.6,1023,2018,5,17,20,45,9.247,-0.3981,-0.48,0.6173,-0.4795
0.02,0.225,0.053,-2.7,-119.5,-48.6,1023,2018,5,17,20,45,9.263,-0.4035,-0.4676,0.6284,-0.4727
0.059,0.03,-0.007,11.9,-126.6,-48.9,1023,2018,5,17,20,45,9.286,-0.409,-0.4542,0.6432,-0.4611
0.026,-0.036,-0.03,13.8,-97.1,-42,1023,2018,5,17,20,45,9.304,-0.4123,-0.4422,0.657,-0.4501
-0.014,-0.062,0.019,7.7,-63,-39.4,1023,2018,5,17,20,45,9.327,-0.4132,-0.4327,0.6674,-0.4433
-0.038,0.048,0.063,-0.2,-46.1,-40.5,1023,2018,5,17,20,45,9.343,-0.4138,-0.4244,0.6745,-0.4399
-0.024,0.019,0.047,0.2,-45.2,-48.2,1023,2018,5,17,20,45,9.367,-0.4143,-0.4161,0.6807,-0.4378
-0.03,0.004,0.017,0.5,-51.7,-51.2,0,2018,5,17,20,45,9.385,-0.4141,-0.4068,0.6879,-0.4355
-0.024,-0.132,0.026,4.4,-59.5,-57.2,0,2018,5,17,20,45,9.406,-0.4131,-0.3962,0.6964,-0.4326
-0.05,-0.116,0.04,-1.7,-43.2,-52.9,0,2018,5,17,20,45,9.427,-0.4118,-0.3852,0.7045,-0.4307
-0.029,-0.104,0.025,-0.6,-12.4,-42.7,0,2018,5,17,20,45,9.45,-0.4098,-0.3768,0.7099,-0.4311
-0.06,-0.127,-0.019,-1.9,40.6,-21,0,2018,5,17,20,45,9.467,-0.406,-0.3733,0.7111,-0.4357
-0.017,-0.078,0,-9.6,85.3,2.4,0,2018,5,17,20,45,9.485,-0.4014,-0.3764,0.7064,-0.445
0.003,-0.082,-0.008,-9.7,121,18.3,0,2018,5,17,20,45,9.504,-0.3956,-0.384,0.6973,-0.4579
0,0.039,0.054,-15.3,143.9,38,0,2018,5,17,20,45,9.526,-0.39,-0.3957,0.6837,-0.473
0.002,0.148,0.074,-18.1,158.8,53.5,0,2018,5,17,20,45,9.544,-0.3857,-0.4104,0.666,-0.4889
-0.009,0.109,-0.019,-13.6,182.3,62.2,0,2018,5,17,20,45,9.567,-0.3804,-0.4275,0.6459,-0.5051
-0.032,-0.004,-0.129,-11,235.2,71.7,0,2018,5,17,20,45,9.586,-0.3714,-0.4484,0.6216,-0.5238
-0.01,0.094,-0.152,-8.8,282.8,78,0,2018,5,17,20,45,9.609,-0.358,-0.4725,0.5907,-0.5471
0.056,0.231,-0.149,-1.6,305,78.5,0,2018,5,17,20,45,9.627,-0.3409,-0.4982,0.5548,-0.5724
0.068,0.228,-0.135,6.3,307.7,76.6,0,2018,5,17,20,45,9.65,-0.3209,-0.5236,0.5168,-0.5963
0.048,0.274,-0.135,14.9,289.5,71.6,0,2018,5,17,20,45,9.668,-0.2995,-0.5477,0.4785,-0.6174
0.009,0.291,-0.116,22.6,248.4,61.5,0,2018,5,17,20,45,9.685,-0.2789,-0.5688,0.4437,-0.6337
-0.047,0.205,-0.105,23.6,208.6,51.4,0,2018,5,17,20,45,9.708,-0.2603,-0.5864,0.4138,-0.6457
-0.013,0.251,-0.077,22.8,154,44.2,1023,2018,5,17,20,45,9.725,-0.2452,-0.6005,0.3893,-0.6539
0.003,0.274,-0.089,27.7,91.3,33,1023,2018,5,17,20,45,9.748,-0.2351,-0.611,0.3725,-0.6576
-0.001,0.167,-0.039,30.7,53.6,22.4,1023,2018,5,17,20,45,9.766,-0.229,-0.6189,0.3629,-0.6578
-0.023,0.073,0.042,34.9,41.5,12.6,1023,2018,5,17,20,45,9.789,-0.2242,-0.626,0.3564,-0.6562
-0.029,0.067,-0.001,35.8,31.7,4.9,1023,2018,5,17,20,45,9.808,-0.2195,-0.6322,0.3522,-0.6542
-0.073,0.058,0.003,34,20.9,-6.6,1023,2018,5,17,20,45,9.831,-0.2144,-0.6375,0.3502,-0.6517
-0.122,-0.001,0.055,30.3,4.2,-18.4,1023,2018,5,17,20,45,9.848,-0.2101,-0.6409,0.3511,-0.6494
-0.183,-0.029,0.105,23,-8,-28.9,1023,2018,5,17,20,45,9.871,-0.2059,-0.642,0.3548,-0.6476
-0.121,-0.054,0.133,17.4,-16,-37.7,1023,2018,5,17,20,45,9.889,-0.2024,-0.6409,0.3605,-0.6466
-0.06,-0.154,0.12,19.4,-3,-35.2,1023,2018,5,17,20,45,9.912,-0.1982,-0.6401,0.3665,-0.6453
-0.053,-0.281,0.185,21.3,25.4,-29.5,0,2018,5,17,20,45,9.948,-0.1917,-0.6408,0.3697,-0.6448
-0.098,-0.325,0.261,18,66.2,-24.7,0,2018,5,17,20,45,9.948,-0.182,-0.643,0.3682,-0.6463
-0.13,-0.276,0.194,-0.6,100.9,-24,0,2018,5,17,20,45,9.969,-0.1691,-0.6452,0.3615,-0.6514
-0.086,-0.262,0.095,-28,128.1,-25.7,0,2018,5,17,20,45,9.988,-0.1541,-0.6452,0.3507,-0.6609
-0.084,-0.035,0.056,-51.3,138.5,-25,0,2018,5,17,20,45,10.011,-0.1381,-0.6421,0.3367,-0.6746
-0.078,0.015,0.004,-66.7,127.2,-32.2,0,2018,5,17,20,45,10.029,-0.1233,-0.6363,0.3224,-0.6898
-0.005,0.043,-0.021,-73.8,101.9,-37.1,0,2018,5,17,20,45,10.052,-0.1107,-0.6282,0.3106,-0.7046
0.059,0.036,-0.065,-71.3,74,-41.3,0,2018,5,17,20,45,10.071,-0.1004,-0.6191,0.3026,-0.7176
0.114,0.022,-0.105,-65,50.8,-44.6,0,2018,5,17,20,45,10.089,-0.0918,-0.6099,0.2987,-0.7282
0.114,0.017,-0.131,-57.4,37.7,-45.1,0,2018,5,17,20,45,10.112,-0.0842,-0.6012,0.2975,-0.7368
0.147,0.024,-0.162,-46.1,33.3,-46.7,0,2018,5,17,20,45,10.13,-0.0773,-0.5926,0.2971,-0.7446
0.187,0.06,-0.163,-31.5,30.3,-50.2,0,2018,5,17,20,45,10.153,-0.0697,-0.5854,0.2974,-0.7508
0.25,0.017,-0.126,-16.4,29.7,-56.5,0,2018,5,17,20,45,10.169,-0.0609,-0.5799,0.2988,-0.7554
0.242,0.105,-0.143,-3.4,25.6,-62.4,0,2018,5,17,20,45,10.188,-0.0506,-0.5761,0.3011,-0.7581
0.25,0.124,-0.172,1.3,14.5,-70.9,0,2018,5,17,20,45,10.21,-0.0399,-0.5729,0.3052,-0.7595
0.177,0.083,-0.178,4.1,8.8,-78,0,2018,5,17,20,45,10.229,-0.0289,-0.5693,0.3113,-0.7603
-0.042,-0.002,0.028,10.8,47.7,-84.2,0,2018,5,17,20,45,10.252,-0.0159,-0.566,0.3166,-0.7609
-0.092,0.201,0.069,23.9,100.4,-73,0,2018,5,17,20,45,10.289,0.003,-0.5641,0.3136,-0.7637
-0.192,0.296,0.104,25.9,118.9,-57.5,1023,2018,5,17,20,45,10.31,0.0239,-0.5636,0.3046,-0.7673
-0.092,0.385,0.008,14.2,98.3,-43.9,1023,2018,5,17,20,45,10.315,0.0423,-0.5632,0.2943,-0.7709
0.09,0.576,-0.048,-4.4,30,-39.1,1023,2018,5,17,20,45,10.35,0.054,-0.561,0.2889,-0.7738
-0.128,0.397,0.013,-22.4,-60.8,-38.1,1023,2018,5,17,20,45,10.373,0.0566,-0.5573,0.2952,-0.7739
-0.007,0.141,0.078,-34.1,-129,-35.3,1023,2018,5,17,20,45,10.378,0.0499,-0.5522,0.3125,-0.7712
0.044,-0.027,0.083,-31.4,-150.4,-32.3,1023,2018,5,17,20,45,10.394,0.0386,-0.5467,0.3352,-0.7662
0.259,0,-0.02,-27.5,-142.7,-31.6,1023,2018,5,17,20,45,10.413,0.0275,-0.541,0.3582,-0.7603
0.323,-0.099,-0.021,-8,-125.2,-36.5,1023,2018,5,17,20,45,10.436,0.018,-0.5368,0.3793,-0.7533
0.285,-0.364,0.013,10.4,-75.2,-39.2,1023,2018,5,17,20,45,10.452,0.0135,-0.5349,0.3962,-0.746
0.296,-0.235,-0.105,7.3,-6.8,-36.3,1023,2018,5,17,20,45,10.489,0.0154,-0.5335,0.4046,-0.7425
0.212,-0.114,-0.134,5.7,24.2,-32.8,1023,2018,5,17,20,45,10.512,0.0212,-0.5317,0.406,-0.7428
0.096,-0.076,-0.032,8.8,35.7,-34.1,1023,2018,5,17,20,45,10.516,0.0289,-0.53,0.4052,-0.7443
0.035,-0.155,0.062,19.8,45.6,-38.3,1023,2018,5,17,20,45,10.551,0.0392,-0.5284,0.4039,-0.7457
0.014,-0.229,0.058,29.1,59.4,-42.7,1023,2018,5,17,20,45,10.574,0.051,-0.5284,0.4005,-0.7468
0.022,-0.206,-0.004,31.2,78,-46.6,1023,2018,5,17,20,45,10.579,0.0663,-0.5279,0.3961,-0.7482
0.02,-0.113,-0.058,31.3,103.9,-48.9,1023,2018,5,17,20,45,10.595,0.0836,-0.5273,0.389,-0.7506
-0.16,0.049,-0.017,33.5,124.4,-44.9,1023,2018,5,17,20,45,10.617,0.1025,-0.5267,0.3775,-0.7546
-0.113,0.097,-0.016,28.9,117.5,-38.4,1023,2018,5,17,20,45,10.636,0.1199,-0.5267,0.3636,-0.7589
0.023,0.194,-0.018,30.8,100.7,-42.4,1023,2018,5,17,20,45,10.659,0.1359,-0.5262,0.3511,-0.7623
0.087,0.22,-0.054,38.6,78.9,-44.7,0,2018,5,17,20,45,10.679,0.1513,-0.5265,0.3416,-0.7635
0.016,0.207,0.002,49.4,60.4,-40.6,0,2018,5,17,20,45,10.696,0.1652,-0.5285,0.3346,-0.7624
-0.005,0.14,0.062,59,68.3,-31.7,0,2018,5,17,20,45,10.719,0.1785,-0.5317,0.3279,-0.7601
0.103,0.22,-0.023,61.9,94.5,-23.3,0,2018,5,17,20,45,10.735,0.1924,-0.5356,0.3169,-0.7586
0.137,0.372,-0.106,63.8,116.4,-23.8,0,2018,5,17,20,45,10.753,0.2083,-0.5391,0.3022,-0.7579
0.086,0.445,0.033,69.5,118.7,-25,0,2018,5,17,20,45,10.776,0.2259,-0.5421,0.2862,-0.757
0.097,0.434,-0.011,74.8,110.6,-16.6,0,2018,5,17,20,45,10.795,0.2427,-0.5459,0.27,-0.755
0.052,0.401,-0.222,78.9,106.1,-4.1,0,2018,5,17,20,45,10.815,0.2574,-0.5509,0.2532,-0.7523
-0.029,0.248,-0.184,89.2,122.4,9,0,2018,5,17,20,45,10.836,0.2711,-0.5569,0.2343,-0.7492
-0.106,0.135,-0.077,90.5,172.2,25.8,0,2018,5,17,20,45,10.859,0.2861,-0.5623,0.2089,-0.7471
-0.038,0.172,-0.101,87.9,213.7,33.9,0,2018,5,17,20,45,10.879,0.3042,-0.5649,0.1755,-0.7465
-0.07,0.193,-0.215,68.9,220.2,31.9,1023,2018,5,17,20,45,10.897,0.3234,-0.564,0.1391,-0.7468
-0.179,0.09,-0.274,56.1,233.4,19.4,1023,2018,5,17,20,45,10.921,0.3427,-0.5597,0.1039,-0.7472
-0.41,-0.12,-0.218,37.7,287.3,7.2,1023,2018,5,17,20,45,10.938,0.3668,-0.5504,0.0656,-0.7471
-0.392,0.12,-0.081,10.1,295.4,-12,1023,2018,5,17,20,45,10.961,0.3953,-0.5332,0.025,-0.7474
-0.345,0.18,0.002,-1.4,202.2,-31,1023,2018,5,17,20,45,10.977,0.4213,-0.5158,-0.0057,-0.7458
-0.25,-0.022,-0.06,6.3,140.4,-34.9,1023,2018,5,17,20,45,10.996,0.4398,-0.5042,-0.0239,-0.7427
-0.224,-0.172,0.07,1,148.6,-20.7,1023,2018,5,17,20,45,11.017,0.4559,-0.4943,-0.0401,-0.739
-0.108,-0.119,0.218,0.3,117.6,-12.6,1023,2018,5,17,20,45,11.037,0.4698,-0.4832,-0.056,-0.7365
-0.173,-0.12,0.232,17.5,41.9,-9.4,1023,2018,5,17,20,45,11.06,0.4778,-0.4774,-0.0662,-0.7344
-0.04,-0.301,0.093,24.8,-23.3,-3.4,1023,2018,5,17,20,45,11.078,0.4785,-0.48,-0.0673,-0.7321
0.069,-0.299,0.074,25.3,-4.5,8.6,1023,2018,5,17,20,45,11.103,0.4759,-0.4851,-0.0674,-0.7304
0.169,-0.238,0.167,24.4,57.2,13.3,1023,2018,5,17,20,45,11.12,0.476,-0.4859,-0.0739,-0.7292
0.278,-0.061,0.115,37.9,85.6,1.4,1023,2018,5,17,20,45,11.138,0.4811,-0.4831,-0.0873,-0.7262
0.183,-0.063,-0.118,49.2,57,-23.3,1023,2018,5,17,20,45,11.161,0.4876,-0.4832,-0.0993,-0.7202
-0.074,-0.282,-0.079,18.3,61.7,-37.8,0,2018,5,17,20,45,11.18,0.4956,-0.4841,-0.1065,-0.7131
0.009,-0.035,0.129,-0.6,93.1,-39.8,0,2018,5,17,20,45,11.203,0.5072,-0.4779,-0.1139,-0.708
0.048,0.019,0.06,-10,56.4,-50.2,0,2018,5,17,20,45,11.221,0.5195,-0.4704,-0.1192,-0.7032
0.053,-0.044,-0.087,-3.3,19.8,-48,0,2018,5,17,20,45,11.244,0.5283,-0.4666,-0.1191,-0.6991
-0.033,-0.116,0.009,-12.1,-0.3,-25.7,0,2018,5,17,20,45,11.261,0.5324,-0.4669,-0.1154,-0.6965
-0.133,-0.369,0.212,-20.2,-6.9,-34.2,0,2018,5,17,20,45,11.278,0.5357,-0.4668,-0.1093,-0.695
-0.061,-0.111,0.134,-30.5,-1.3,-37.2,0,2018,5,17,20,45,11.299,0.5407,-0.4637,-0.1038,-0.694
-0.037,-0.061,0.034,-24.9,-24.7,-37.2,0,2018,5,17,20,45,11.337,0.5447,-0.4624,-0.0957,-0.6929
-0.146,0.041,-0.026,-10,-42.5,-33.1,0,2018,5,17,20,45,11.36,0.5466,-0.4641,-0.0873,-0.6914
-0.11,-0.018,0.051,-15.9,-11.8,-24.3,0,2018,5,17,20,45,11.365,0.5475,-0.4659,-0.0802,-0.6903
-0.065,0.051,0.034,-16.5,-0.1,-19.5,0,2018,5,17,20,45,11.4,0.55,-0.4643,-0.0769,-0.6898
-0.014,0.031,-0.002,-16.3,-3.2,-19.2,0,2018,5,17,20,45,11.42,0.5522,-0.4625,-0.074,-0.6896
0,-0.023,-0.054,-10.3,-3.3,-20.3,0,2018,5,17,20,45,11.425,0.5545,-0.4615,-0.0706,-0.6888
-0.01,-0.086,-0.105,-2.4,-1.2,-24.3,0,2018,5,17,20,45,11.443,0.5568,-0.4619,-0.0676,-0.6869
0.001,0.012,-0.017,0.2,10.6,-21.3,0,2018,5,17,20,45,11.461,0.5601,-0.4619,-0.0662,-0.6844
0.017,0.085,0.119,-6.6,9.5,-17.4,0,2018,5,17,20,45,11.48,0.5635,-0.4603,-0.0656,-0.6827
0.04,0.054,0.121,-13.3,7.7,-12.2,0,2018,5,17,20,45,11.501,0.5662,-0.4582,-0.0644,-0.682
0.01,-0.023,0.034,-11.1,-2,-10,0,2018,5,17,20,45,11.519,0.5682,-0.4558,-0.0624,-0.6822
-0.002,-0.082,-0.002,-6.1,3.8,-6.7,1023,2018,5,17,20,45,11.541,0.5695,-0.4549,-0.0603,-0.6819
0.032,-0.032,0.017,-0.8,12.7,-7.4,1023,2018,5,17,20,45,11.579,0.5715,-0.4536,-0.0599,-0.6811
0.047,0.093,0.043,-0.5,-1.3,-7.1,1023,2018,5,17,20,45,11.603,0.5734,-0.4519,-0.0601,-0.6806
0.004,0.08,0.01,-1.1,-19,-5.3,1023,2018,5,17,20,45,11.607,0.5732,-0.4526,-0.0584,-0.6804
0.006,-0.013,-0.033,0.3,-17.9,-4.8,1023,2018,5,17,20,45,11.625,0.5723,-0.4545,-0.0556,-0.6802
0.027,-0.108,-0.043,10,2.5,-5.9,1023,2018,5,17,20,45,11.641,0.5724,-0.4561,-0.054,-0.6791
0.1,0.057,-0.008,13.6,6.6,0.3,1023,2018,5,17,20,45,11.664,0.5737,-0.4566,-0.0552,-0.6776
0.023,0.057,0.057,19.9,-5.8,1.7,1023,2018,5,17,20,45,11.683,0.5739,-0.4577,-0.0572,-0.6765
-0.031,0.022,0.038,20.9,-24.4,-1.6,1023,2018,5,17,20,45,11.706,0.5723,-0.4614,-0.0576,-0.6753
0.024,0.042,0.025,22.1,-32.8,-2,1023,2018,5,17,20,45,11.724,0.5701,-0.4663,-0.0563,-0.674
0.069,-0.017,-0.007,32.1,-23.5,3.9,1023,2018,5,17,20,45,11.747,0.5675,-0.4719,-0.0555,-0.6723
-0.013,0.033,0.258,40.1,-18.3,11.3,1023,2018,5,17,20,45,11.763,0.565,-0.4779,-0.057,-0.6701
-0.207,-0.109,-0.067,49.9,-20.4,12.3,1023,2018,5,17,20,45,11.782,0.5608,-0.4861,-0.0596,-0.6674
-0.046,0.01,-0.014,47.7,-27.5,6.7,1023,2018,5,17,20,45,11.805,0.5568,-0.494,-0.0624,-0.6647
0.021,0.067,0.005,53.9,-12.1,-2.5,0,2018,5,17,20,45,11.823,0.5545,-0.5017,-0.0654,-0.6606
-0.016,0.026,0.035,64.5,-4.7,-11.1,0,2018,5,17,20,45,11.846,0.554,-0.5093,-0.0696,-0.6547
-0.046,0.136,0.011,59.9,-19.4,-14.8,0,2018,5,17,20,45,11.883,0.5538,-0.5173,-0.0734,-0.6482
0.014,0.016,-0.094,59.9,-17,-18.4,0,2018,5,17,20,45,11.906,0.5529,-0.5266,-0.0754,-0.6412
0.01,-0.066,-0.1,62.7,-4.1,-16.5,0,2018,5,17,20,45,11.911,0.5531,-0.5353,-0.0783,-0.6334
0.023,0.116,-0.063,56.6,-18.6,-11,0,2018,5,17,20,45,11.929,0.5531,-0.5429,-0.0819,-0.6265
-0.001,0.028,-0.04,55.2,-41.5,-12.4,0,2018,5,17,20,45,11.948,0.5501,-0.5522,-0.0828,-0.6208
0.015,-0.081,0.063,72,-27.9,-9.7,0,2018,5,17,20,45,11.984,0.5472,-0.5622,-0.0832,-0.6143
0.056,0.038,-0.036,78.5,-25,-5.8,0,2018,5,17,20,45,11.984,0.5448,-0.5728,-0.0867,-0.6061
0.086,0.113,-0.04,83.6,-32.7,-4.7,0,2018,5,17,20,45,12.008,0.5416,-0.5838,-0.0909,-0.5978
0.049,0.121,-0.069,83.2,-45,-1.1,0,2018,5,17,20,45,12.025,0.5364,-0.5965,-0.0947,-0.5893
0.019,-0.144,0.042,86.3,-41.5,14.5,0,2018,5,17,20,45,12.044,0.5295,-0.6092,-0.0982,-0.5819
0.004,-0.011,0.084,102.8,-41.9,23.6,0,2018,5,17,20,45,12.067,0.5222,-0.6219,-0.1047,-0.574
0.187,0.232,-0.103,100.7,-46.9,27.9,0,2018,5,17,20,45,12.086,0.5129,-0.6353,-0.1126,-0.5661
0.061,-0.099,-0.066,89.7,-38.3,44.3,1023,2018,5,17,20,45,12.109,0.5029,-0.6478,-0.1208,-0.5593
-0.212,-0.206,0.037,76.9,-25.5,56.9,1023,2018,5,17,20,45,12.128,0.4929,-0.6576,-0.1302,-0.5545
-0.07,0.124,-0.029,66.8,-15.6,52.8,1023,2018,5,17,20,45,12.145,0.4833,-0.6648,-0.1411,-0.5517
0.013,-0.058,0.02,60.2,-10.1,53,1023,2018,5,17,20,45,12.169,0.475,-0.6705,-0.1517,-0.5492
-0.141,-0.044,0,50,-5.2,55,1023,2018,5,17,20,45,12.187,0.4674,-0.675,-0.1619,-0.5474
-0.078,-0.038,-0.104,24.7,-1.4,41.6,1023,2018,5,17,20,45,12.21,0.4607,-0.6775,-0.1708,-0.5471
-0.014,0.1,-0.104,7.3,3.2,45.8,1023,2018,5,17,20,45,12.246,0.4563,-0.6776,-0.1772,-0.5487
0.018,-0.121,-0.055,-1,7.7,45.4,1023,2018,5,17,20,45,12.269,0.453,-0.6761,-0.1828,-0.5514
-0.189,0.028,0.025,0.3,5.2,29.7,1023,2018,5,17,20,45,12.274,0.4498,-0.6741,-0.1887,-0.5545
0.061,-0.006,-0.161,-21.2,7.4,16.8,1023,2018,5,17,20,45,12.288,0.4484,-0.6721,-0.1911,-0.5572
0.064,0.145,-0.062,-35.6,14.1,18.5,1023,2018,5,17,20,45,12.325,0.4487,-0.6681,-0.1921,-0.5615
-0.112,0.014,0.054,-39.7,13.4,11.9,1023,2018,5,17,20,45,12.348,0.4501,-0.6624,-0.1923,-0.567
-0.262,0.039,0.149,-41.7,10.2,-11.1,1023,2018,5,17,20,45,12.353,0.4529,-0.6571,-0.1905,-0.5715
-0.011,0.087,0.084,-49.6,12.8,-26.7,1023,2018,5,17,20,45,12.37,0.4578,-0.6523,-0.1856,-0.5747
0.235,-0.164,0.026,-55.3,20.6,-10.6,1023,2018,5,17,20,45,12.387,0.4633,-0.6462,-0.1807,-0.5787
-0.023,0.053,0.014,-49.9,23,9.1,1023,2018,5,17,20,45,12.41,0.4673,-0.639,-0.1791,-0.584
-0.172,-0.071,-0.002,-52.4,19.2,0.2,1023,2018,5,17,20,45,12.429,0.4706,-0.6318,-0.1779,-0.5895
-0.147,-0.06,-0.024,-53,16.7,-10,1023,2018,5,17,20,45,12.451,0.4747,-0.6251,-0.1749,-0.5943
0.054,0.076,-0.142,-49.2,19.3,-13.9,1023,2018,5,17,20,45,12.487,0.4794,-0.6195,-0.1709,-0.5975
0.09,-0.162,-0.114,-35.7,14.7,-3.8,1023,2018,5,17,20,45,12.509,0.4834,-0.6138,-0.1681,-0.601
-0.052,0.028,-0.082,-25.8,9.7,4.3,1023,2018,5,17,20,45,12.513,0.485,-0.61,-0.1675,-0.6037
-0.042,0,-0.188,-32.1,7.3,-5,1023,2018,5,17,20,45,12.549,0.4861,-0.6067,-0.166,-0.6066
-0.031,0.117,0.203,-14.5,8.8,-8.9,1023,2018,5,17,20,45,12.572,0.4888,-0.6034,-0.1645,-0.608
0.119,0.038,0.073,-17.7,12.6,-6,1023,2018,5,17,20,45,12.577,0.4912,-0.6011,-0.1631,-0.6087
0.038,-0.042,0.185,-18.3,28.9,5.3,1023,2018,5,17,20,45,12.595,0.4938,-0.5973,-0.1639,-0.6102
-0.103,0.017,0.144,-28.9,32.2,2.4,1023,2018,5,17,20,45,12.611,0.4971,-0.592,-0.1658,-0.6121
-0.197,0.109,0.046,-54.5,22.8,-17.6,0,2018,5,17,20,45,12.632,0.5014,-0.5848,-0.1655,-0.6156
-0.125,0.116,0.143,-80.7,8,-26,0,2018,5,17,20,45,12.651,0.5075,-0.5769,-0.1587,-0.6199
-0.027,-0.296,0.296,-106.1,31.5,-30,0,2018,5,17,20,45,12.674,0.5135,-0.5671,-0.1489,-0.6264
-0.048,0.038,0.28,-110.4,83.1,-15.1,0,2018,5,17,20,45,12.692,0.525,-0.5493,-0.1447,-0.6336
-0.07,-0.007,0.236,-109.3,44.4,-12.2,0,2018,5,17,20,45,12.711,0.5349,-0.5316,-0.14,-0.6414
-0.052,-0.066,0.031,-89.7,40.6,-21.6,1023,2018,5,17,20,45,12.734,0.5431,-0.5163,-0.1336,-0.6484
0.025,0.232,0.197,-105.7,-27.7,-41.9,1023,2018,5,17,20,45,12.752,0.5496,-0.5059,-0.1229,-0.6532
-0.052,0.098,0.17,-114.2,-101.8,-42.1,1023,2018,5,17,20,45,12.775,0.55,-0.5011,-0.0995,-0.6606
-0.119,0.048,0.023,-122.5,-74.4,-11.3,1023,2018,5,17,20,45,12.794,0.5466,-0.4966,-0.076,-0.6698
0.125,-0.045,-0.095,-112.2,-33.3,-9.6,1023,2018,5,17,20,45,12.817,0.5444,-0.4876,-0.0574,-0.68
0.13,-0.031,0.015,-89.6,-29,-17.9,1023,2018,5,17,20,45,12.836,0.5449,-0.4783,-0.0422,-0.6873
0.086,-0.094,0.072,-48.9,-44.6,-23.4,1023,2018,5,17,20,45,12.856,0.5446,-0.4738,-0.0296,-0.6913
0.121,0.024,-0.226,-28,-71.6,-27.2,1023,2018,5,17,20,45,12.874,0.5431,-0.4748,-0.0171,-0.6922
0.193,0.052,-0.273,-21.4,-102.4,-36.6,1023,2018,5,17,20,45,12.892,0.5394,-0.4802,-0.0013,-0.6915
0.046,0.015,0.004,-20.2,-80.5,-36.1,1023,2018,5,17,20,45,12.915,0.5356,-0.4871,0.0155,-0.6895
-0.101,-0.102,0.145,-26.5,-14,-26.3,1023,2018,5,17,20,45,12.952,0.5353,-0.4883,0.0258,-0.6886
-0.103,-0.053,0,-51.9,38.4,-18.8,1023,2018,5,17,20,45,12.973,0.539,-0.4819,0.0292,-0.6901
-0.075,-0.002,-0.151,-69.7,37.5,-23.3,1023,2018,5,17,20,45,12.977,0.5443,-0.4707,0.0317,-0.6935
-0.095,0,-0.153,-77.6,9.1,-37.6,1023,2018,5,17,20,45,12.995,0.5492,-0.4593,0.0384,-0.697
-0.155,-0.146,-0.083,-81.4,-5.7,-59.7,0,2018,5,17,20,45,13.018,0.5544,-0.4493,0.0501,-0.6986
-0.167,-0.186,-0.074,-82.5,-0.5,-82.7,0,2018,5,17,20,45,13.04,0.5621,-0.4389,0.0641,-0.6979
-0.119,-0.159,-0.105,-80.7,8.8,-100,0,2018,5,17,20,45,13.058,0.5725,-0.4275,0.0786,-0.6951
-0.096,-0.105,-0.053,-77.6,17.1,-110.2,0,2018,5,17,20,45,13.076,0.585,-0.4153,0.0928,-0.6903
-0.132,-0.124,-0.091,-72.4,22.5,-112.4,0,2018,5,17,20,45,13.099,0.5984,-0.4027,0.1062,-0.6843
-0.148,-0.168,-0.136,-69.7,33.8,-113.9,0,2018,5,17,20,45,13.117,0.6124,-0.3891,0.1182,-0.6778
-0.124,-0.123,-0.149,-66.7,45.5,-117.4,0,2018,5,17,20,45,13.14,0.6271,-0.3743,0.1285,-0.6708
-0.066,0.037,-0.047,-62.8,44.8,-124.7,0,2018,5,17,20,45,13.156,0.6424,-0.359,0.1377,-0.6628
-0.029,0.064,-0.07,-63.2,25.4,-127.9,0,2018,5,17,20,45,13.174,0.6572,-0.345,0.1479,-0.6534
0,0.016,-0.165,-69.8,11.8,-122.9,0,2018,5,17,20,45,13.195,0.6703,-0.3329,0.1612,-0.6432
-0.021,-0.005,-0.187,-73.9,9.7,-116.4,0,2018,5,17,20,45,13.233,0.6817,-0.3208,0.1758,-0.6335
-0.041,0.002,-0.136,-69.1,17.5,-110.9,0,2018,5,17,20,45,13.255,0.6921,-0.3084,0.1891,-0.6245
-0.012,0.042,-0.138,-62.4,21.3,-110.8,0,2018,5,17,20,45,13.26,0.7025,-0.2958,0.2007,-0.6153
0,0.047,-0.173,-58.5,5.7,-113.3,0,2018,5,17,20,45,13.294,0.7127,-0.2842,0.2126,-0.6048
-0.014,0.014,-0.14,-50.5,-8,-115.1,0,2018,5,17,20,45,13.315,0.7221,-0.2751,0.2261,-0.5929
-0.024,0.019,0.041,-35,4.2,-115.7,0,2018,5,17,20,45,13.32,0.7319,-0.2667,0.2373,-0.5802
-0.059,0.031,0.035,-27.7,25.7,-109.8,0,2018,5,17,20,45,13.34,0.7427,-0.257,0.2441,-0.568
-0.058,0.074,-0.05,-35.4,32.2,-105.2,0,2018,5,17,20,45,13.356,0.753,-0.2454,0.2491,-0.5573
-0.088,0.123,-0.073,-45.1,20.3,-100.5,0,2018,5,17,20,45,13.375,0.7622,-0.2335,0.2554,-0.5469
-0.081,0.129,-0.04,-50.5,10.8,-96.3,1023,2018,5,17,20,45,13.395,0.7698,-0.2226,0.2635,-0.5369
-0.05,0.092,0.013,-42.4,1.1,-94.1,1023,2018,5,17,20,45,13.433,0.7769,-0.2124,0.2722,-0.5264
-0.087,0.058,0.006,-29.8,-4.2,-88.7,1023,2018,5,17,20,45,13.457,0.7836,-0.2048,0.2799,-0.5152
-0.152,0.078,-0.042,-19.7,-0.8,-86.2,1023,2018,5,17,20,45,13.46,0.79,-0.199,0.2858,-0.5044
-0.196,0.038,-0.066,-24.9,-3.9,-90,1023,2018,5,17,20,45,13.478,0.7964,-0.1932,0.2918,-0.493
-0.098,-0.081,-0.009,-31.4,9.4,-87.1,1023,2018,5,17,20,45,13.501,0.8024,-0.1861,0.2987,-0.4817
-0.035,-0.053,-0.037,-30.2,29.1,-80.3,1023,2018,5,17,20,45,13.52,0.8082,-0.1768,0.3042,-0.4722
-0.071,0.089,-0.079,-31.2,34.4,-81.5,1023,2018,5,17,20,45,13.558,0.814,-0.1655,0.3081,-0.4636
-0.043,0.096,-0.07,-34.7,17.1,-89.4,1023,2018,5,17,20,45,13.581,0.82,-0.1541,0.3128,-0.4538
-0.003,0.059,-0.027,-36.4,8.6,-88.5,1023,2018,5,17,20,45,13.586,0.8255,-0.1441,0.3195,-0.4422
-0.004,0.045,0.016,-31.4,19.1,-83.2,1023,2018,5,17,20,45,13.602,0.8307,-0.134,0.3255,-0.4312
-0.035,0.072,0.021,-26.2,30.6,-79.6,1023,2018,5,17,20,45,13.621,0.8359,-0.123,0.3293,-0.4214
-0.052,0.061,0.008,-25.7,30.5,-78.4,0,2018,5,17,20,45,13.644,0.841,-0.1116,0.3319,-0.4122
-0.049,0.044,0.016,-24.7,29.5,-74.4,0,2018,5,17,20,45,13.661,0.8459,-0.1004,0.3344,-0.4031
-0.008,0.039,0.011,-23.6,26.1,-68.5,0,2018,5,17,20,45,13.689,0.8502,-0.0899,0.337,-0.3942
0.017,0.044,0.01,-22.4,27.7,-62.8,0,2018,5,17,20,45,13.701,0.8538,-0.08,0.3396,-0.3862
0.008,0.088,0.05,-26.1,31.3,-62.4,0,2018,5,17,20,45,13.719,0.8572,-0.0694,0.3418,-0.3787
0.002,0.025,0.074,-26.1,32.2,-63.4,0,2018,5,17,20,45,13.741,0.8604,-0.0585,0.344,-0.3712
-0.051,-0.075,0.104,-20.4,45.6,-59.3,0,2018,5,17,20,45,13.759,0.8635,-0.0475,0.3452,-0.3644
-0.1,-0.074,0.115,-14.2,60.4,-55.2,0,2018,5,17,20,45,13.782,0.8665,-0.0347,0.3448,-0.359
-0.13,0.043,0.103,-10.2,67.3,-58.4,0,2018,5,17,20,45,13.818,0.8698,-0.0206,0.3428,-0.3541
-0.136,0.12,0.001,-14.8,58.8,-71.7,0,2018,5,17,20,45,13.841,0.8733,-0.0059,0.3409,-0.3478
-0.024,0.082,-0.057,-28.9,26.1,-81.2,0,2018,5,17,20,45,13.846,0.8768,0.0073,0.3416,-0.3382
-0.015,-0.056,-0.032,-33.8,5.6,-75.3,0,2018,5,17,20,45,13.864,0.8795,0.0161,0.346,-0.326
-0.051,-0.179,-0.013,-35.3,24.8,-64.5,0,2018,5,17,20,45,13.881,0.8813,0.0242,0.3506,-0.3156
-0.04,-0.108,-0.072,-40.5,61,-52.7,0,2018,5,17,20,45,13.9,0.8819,0.0368,0.3537,-0.3092
0.01,0.031,-0.104,-46,62.5,-54,0,2018,5,17,20,45,13.923,0.8813,0.0526,0.3574,-0.3044
0.008,0.114,-0.048,-41.3,42.3,-61.7,0,2018,5,17,20,45,13.957,0.881,0.0672,0.3613,-0.2978
-0.038,0.103,-0.026,-34.1,35.4,-65,0,2018,5,17,20,45,13.981,0.8816,0.0801,0.364,-0.2891
0.057,0.091,-0.07,-37.1,27.2,-58.2,0,2018,5,17,20,45,13.986,0.882,0.0916,0.3672,-0.2805
0.065,0.087,-0.039,-37.7,22.1,-48.8,0,2018,5,17,20,45,14.003,0.8818,0.1008,0.371,-0.2729
0.057,0.164,-0.02,-37.7,23.1,-46.3,0,2018,5,17,20,45,14.04,0.8811,0.1094,0.375,-0.2662
0.09,0.169,-0.069,-32.2,8.2,-52.1,1023,2018,5,17,20,45,14.081,0.8807,0.1168,0.3787,-0.2591
0.105,0.024,-0.127,-25.1,3.5,-53.8,1023,2018,5,17,20,45,14.082,0.8811,0.1224,0.3819,-0.2504
0.008,0.021,-0.132,-19.1,15.1,-50.8,1023,2018,5,17,20,45,14.084,0.8811,0.1288,0.385,-0.2422
-0.049,0.047,-0.02,-7.5,30,-46.9,1023,2018,5,17,20,45,14.1,0.8816,0.1367,0.3853,-0.2357
-0.015,0.057,-0.014,7.8,41.2,-44.3,1023,2018,5,17,20,45,14.122,0.8826,0.1459,0.3823,-0.231
-0.06,0.04,-0.08,13.2,34.1,-43,1023,2018,5,17,20,45,14.156,0.8841,0.1547,0.378,-0.2267
-0.106,0.082,-0.147,7.7,26,-47.9,1023,2018,5,17,20,45,14.18,0.8857,0.1626,0.3739,-0.2217
-0.118,0.116,-0.095,-4.1,15.5,-52.7,1023,2018,5,17,20,45,14.184,0.8871,0.169,0.3715,-0.2152
-0.053,0.106,-0.033,-9.6,-2.6,-57.7,1023,2018,5,17,20,45,14.202,0.8884,0.1744,0.3708,-0.2066
-0.031,0.021,-0.102,-0.7,-18,-58.5,1023,2018,5,17,20,45,14.226,0.8904,0.1772,0.3705,-0.1959
-0.092,0,-0.121,5.8,0.1,-54.5,1023,2018,5,17,20,45,14.244,0.8927,0.1795,0.3689,-0.1863
-0.116,0.061,-0.1,1.1,23.1,-51,1023,2018,5,17,20,45,14.267,0.8941,0.1855,0.3659,-0.179
-0.007,0.116,-0.09,-11.7,7.9,-50,1023,2018,5,17,20,45,14.283,0.8947,0.1921,0.3646,-0.1719
0.048,0.116,-0.117,-20.6,-20.5,-48.5,0,2018,5,17,20,45,14.307,0.8953,0.1946,0.3658,-0.1632
0.043,0.075,-0.097,-19.9,-37.3,-46.9,0,2018,5,17,20,45,14.326,0.8964,0.1933,0.3682,-0.153
-0.009,0.039,-0.073,-19.9,-29.7,-42,0,2018,5,17,20,45,14.349,0.8972,0.1916,0.3711,-0.143
-0.038,0.062,-0.052,-25.6,-13.3,-33.8,0,2018,5,17,20,45,14.369,0.8972,0.1919,0.374,-0.1347
0.065,0.108,0.024,-32.7,-5.6,-28.6,0,2018,5,17,20,45,14.385,0.8961,0.1942,0.3777,-0.1281
0.125,0.106,0.017,-26.9,-19.1,-30.1,0,2018,5,17,20,45,14.404,0.8949,0.1957,0.382,-0.1214
0.119,0.047,0.111,-4.7,-21.8,-29.1,0,2018,5,17,20,45,14.426,0.8951,0.1949,0.3843,-0.1143
0.053,-0.004,0.114,13.6,11.6,-20.5,0,2018,5,17,20,45,14.463,0.8963,0.1951,0.3824,-0.1102
0.094,0.077,0.034,15.4,36.6,-16,0,2018,5,17,20,45,14.487,0.8968,0.2005,0.3787,-0.1097
0.169,0.138,-0.04,11.3,26.1,-20.4,0,2018,5,17,20,45,14.491,0.8966,0.207,0.3756,-0.1096
0.158,0.148,-0.074,9.9,0.5,-27.2,0,2018,5,17,20,45,14.509,0.8973,0.2104,0.3728,-0.107
0.118,0.129,-0.06,10.3,-20.1,-31.2,0,2018,5,17,20,45,14.527,0.8989,0.2105,0.3704,-0.1019
0.073,0.077,-0.047,15,-27.7,-33,0,2018,5,17,20,45,14.55,0.901,0.2087,0.368,-0.0955
0.003,0.049,-0.072,19.6,-19.6,-30.2,0,2018,5,17,20,45,14.568,0.9031,0.2073,0.365,-0.0893
-0.043,0.029,-0.067,21.8,-16.5,-24.7,0,2018,5,17,20,45,14.591,0.9054,0.2065,0.3611,-0.0841
-0.064,0.038,-0.078,23.3,-9,-14.8,0,2018,5,17,20,45,14.607,0.9074,0.2061,0.357,-0.0809
-0.055,0.048,-0.004,27.8,-1.1,-5.8,0,2018,5,17,20,45,14.625,0.9093,0.206,0.3525,-0.0796
-0.068,0.058,0.111,29.6,20.6,5.1,0,2018,5,17,20,45,14.648,0.9111,0.2074,0.3468,-0.0809
-0.031,0.107,0.139,24.4,35.6,15.4,0,2018,5,17,20,45,14.666,0.9118,0.2116,0.3413,-0.0849
0.011,0.134,0.117,17.4,33.1,23.1,0,2018,5,17,20,45,14.69,0.9116,0.2163,0.3374,-0.0903
0.025,0.121,0.068,10.9,25.5,26.7,1023,2018,5,17,20,45,14.705,0.911,0.2199,0.3351,-0.0962
0.004,0.079,0.024,2.2,16.9,26.6,1023,2018,5,17,20,45,14.728,0.9101,0.2221,0.3344,-0.1018
-0.027,0.042,-0.023,-7.4,7.8,21.1,1023,2018,5,17,20,45,14.746,0.909,0.223,0.3354,-0.1061
-0.026,0.009,-0.056,-12.7,-2.7,13.1,1023,2018,5,17,20,45,14.769,0.9079,0.223,0.3377,-0.1083
-0.035,-0.022,-0.058,-11.3,-15.7,3.5,1023,2018,5,17,20,45,14.789,0.9073,0.2214,0.3404,-0.1085
-0.001,-0.05,-0.038,-0.8,-20.8,-4.2,1023,2018,5,17,20,45,14.812,0.9076,0.2182,0.342,-0.1072
0.028,-0.094,-0.021,12.9,-21.4,-10.5,1023,2018,5,17,20,45,14.831,0.9089,0.2145,0.3415,-0.1054
0.042,-0.096,-0.05,19.2,-16.6,-9.2,1023,2018,5,17,20,45,14.852,0.9107,0.211,0.3395,-0.1037
0.028,-0.086,-0.078,20.8,-12.1,-6.5,1023,2018,5,17,20,45,14.868,0.9123,0.2082,0.3371,-0.1027
0.051,-0.052,-0.046,19.2,-2,-4.9,1023,2018,5,17,20,45,14.905,0.9136,0.2067,0.3347,-0.1024
0.063,0.004,-0.005,21.1,2.5,-7.5,1023,2018,5,17,20,45,14.928,0.9146,0.2067,0.3318,-0.1025
0.055,0.013,-0.016,23.5,-5.3,-11.7,1023,2018,5,17,20,45,14.933,0.9159,0.2068,0.3283,-0.1017
0.056,0.039,-0.042,23.6,-19.1,-15.7,1023,2018,5,17,20,45,14.949,0.9177,0.2055,0.3247,-0.0996
0.067,0.02,-0.057,22.8,-32.1,-18,1023,2018,5,17,20,45,14.972,0.92,0.2023,0.3215,-0.0961
0.045,-0.004,-0.037,21.1,-31.1,-15.6,1023,2018,5,17,20,45,15.008,0.9224,0.1978,0.3185,-0.0923
0.028,0.017,-0.019,19,-21.9,-12,0,2018,5,17,20,45,15.031,0.9244,0.194,0.3156,-0.0894
0.028,0.065,-0.032,17.8,-22.2,-10.6,0,2018,5,17,20,45,15.036,0.9262,0.1912,0.3128,-0.0871
0.022,0.1,-0.054,15.9,-33.6,-11.1,0,2018,5,17,20,45,15.053,0.9279,0.1881,0.3104,-0.0841
0.034,0.097,-0.072,15.7,-50.3,-12,0,2018,5,17,20,45,15.071,0.9303,0.1817,0.3081,-0.0804
0.031,0.099,-0.048,18,-64.1,-10.7,0,2018,5,17,20,45,15.094,0.9331,0.1729,0.306,-0.0759
0.027,0.103,-0.047,22.2,-74.3,-8.8,0,2018,5,17,20,45,15.112,0.936,0.1629,0.3036,-0.0708
0.019,0.084,-0.065,27,-84.1,-5.5,0,2018,5,17,20,45,15.135,0.9394,0.1509,0.3006,-0.0658
0.017,0.086,-0.085,29.9,-92.7,-0.3,0,2018,5,17,20,45,15.152,0.9429,0.1368,0.2972,-0.0614
-0.002,0.122,-0.116,35.2,-105.5,4.4,0,2018,5,17,20,45,15.169,0.9468,0.12,0.2929,-0.0574
-0.023,0.181,-0.124,39.5,-117.2,3.9,0,2018,5,17,20,45,15.192,0.9508,0.1007,0.2878,-0.0534
-0.026,0.151,-0.134,43.3,-133.5,-1.8,0,2018,5,17,20,45,15.229,0.9548,0.0792,0.282,-0.048
-0.007,0.066,-0.116,46.9,-139.8,1.1,0,2018,5,17,20,45,15.252,0.9587,0.0558,0.2757,-0.0418
-0.12,0.045,-0.044,40.6,-140.2,9,0,2018,5,17,20,45,15.257,0.9619,0.0323,0.2689,-0.0365
-0.13,-0.014,0.034,23.3,-141,9.7,0,2018,5,17,20,45,15.291,0.9641,0.0076,0.2634,-0.0319
-0.051,-0.124,0.117,7.5,-144,0.2,0,2018,5,17,20,45,15.314,0.9646,-0.0168,0.2616,-0.0264
-0.019,-0.198,0.092,4.2,-143,-1.3,0,2018,5,17,20,45,15.319,0.9641,-0.0414,0.2613,-0.0197
-0.005,-0.22,0.054,1.5,-119.6,1.1,0,2018,5,17,20,45,15.333,0.963,-0.0637,0.2612,-0.0138
-0.006,-0.208,0.012,0.2,-91.6,5.6,0,2018,5,17,20,45,15.351,0.9617,-0.0817,0.2612,-0.0097
-0.004,-0.155,-0.002,-1,-68.3,12.7,0,2018,5,17,20,45,15.387,0.9605,-0.0954,0.2612,-0.0079
-0.013,-0.071,-0.013,0.5,-55.9,18.5,0,2018,5,17,20,45,15.41,0.9592,-0.1073,0.261,-0.0081
-0.007,-0.013,-0.031,3.6,-56,22.2,0,2018,5,17,20,45,15.415,0.9581,-0.118,0.2604,-0.0092
-0.01,0.025,-0.078,7.2,-57.7,25.5,1023,2018,5,17,20,45,15.432,0.957,-0.1287,0.2593,-0.0106
-0.01,0.041,-0.095,8.9,-61.9,28.5,1023,2018,5,17,20,45,15.471,0.9558,-0.14,0.2578,-0.0124
-0.012,0.053,-0.093,10.7,-66.6,31.2,1023,2018,5,17,20,45,15.494,0.9545,-0.152,0.2559,-0.0141
-0.017,-0.021,-0.041,11.9,-82.6,27.7,1023,2018,5,17,20,45,15.498,0.9529,-0.1654,0.2536,-0.0154
-0.029,-0.136,0.02,11.5,-91.9,19.2,1023,2018,5,17,20,45,15.514,0.9505,-0.182,0.2509,-0.0154
0,-0.286,0.06,8.8,-82.9,7.7,1023,2018,5,17,20,45,15.537,0.9479,-0.1976,0.2491,-0.0136
-0.002,-0.318,0.046,4.6,-52.6,-0.1,1023,2018,5,17,20,45,15.557,0.9458,-0.209,0.2479,-0.0107
0.054,-0.3,0.049,1.2,-13.2,-2,1023,2018,5,17,20,45,15.593,0.9447,-0.2143,0.2476,-0.009
0.019,-0.166,-0.014,0.4,14.4,0.5,1023,2018,5,17,20,45,15.615,0.9448,-0.214,0.2475,-0.0092
-0.005,-0.058,-0.04,1.6,25.6,0,1023,2018,5,17,20,45,15.619,0.9455,-0.2113,0.2474,-0.0103
-0.018,-0.007,-0.043,1.6,27.2,-1.1,1023,2018,5,17,20,45,15.635,0.9464,-0.2073,0.2471,-0.0114
-0.023,0.021,-0.029,1.4,25.8,-0.3,1023,2018,5,17,20,45,15.653,0.9474,-0.203,0.2468,-0.0124
-0.026,0.033,0,0.8,21.7,0.1,1023,2018,5,17,20,45,15.676,0.9484,-0.1988,0.2464,-0.0134
-0.025,0.04,0.022,0,17.2,1.6,1023,2018,5,17,20,45,15.694,0.9492,-0.1953,0.246,-0.0145
-0.016,0.034,0.022,-0.2,11.4,2.8,1023,2018,5,17,20,45,15.715,0.9498,-0.1927,0.2457,-0.0155
-0.016,0.014,-0.006,0.1,8.1,3.5,1023,2018,5,17,20,45,15.751,0.9502,-0.1911,0.2454,-0.0164
0,0.003,-0.016,0.7,7.6,3.1,1023,2018,5,17,20,45,15.775,0.9505,-0.1899,0.2452,-0.0173
0.01,0.001,-0.027,1.3,6.6,2.1,0,2018,5,17,20,45,15.78,0.9507,-0.1889,0.2451,-0.0181
0.006,0.007,-0.018,2,4.6,1.1,0,2018,5,17,20,45,15.798,0.9509,-0.1881,0.245,-0.0186
0,-0.01,-0.018,1.8,2.2,0.5,0,2018,5,17,20,45,15.835,0.951,-0.1877,0.2447,-0.0189
-0.002,-0.02,-0.011,1.3,2.3,0.6,0,2018,5,17,20,45,15.858,0.9511,-0.1875,0.2445,-0.019
-0.001,-0.018,-0.007,1,2.9,0.3,0,2018,5,17,20,45,15.863,0.9512,-0.1873,0.2443,-0.0193
-0.002,-0.01,-0.015,0.4,2.8,0.5,0,2018,5,17,20,45,15.877,0.9512,-0.1871,0.2442,-0.0196
-0.005,-0.014,-0.015,0,2.8,0.9,0,2018,5,17,20,45,15.893,0.9513,-0.1867,0.2441,-0.0199
-0.01,-0.02,-0.009,0.1,4.4,0.3,0,2018,5,17,20,45,15.916,0.9514,-0.1864,0.2441,-0.0203
0.001,-0.027,-0.008,0.3,7,0.3,0,2018,5,17,20,45,15.935,0.9516,-0.1856,0.244,-0.0206
0,-0.011,-0.009,0.7,9.5,0.5,0,2018,5,17,20,45,15.958,0.9518,-0.1843,0.2439,-0.0209
0.004,0.003,-0.01,0.9,9.6,0.3,0,2018,5,17,20,45,15.976,0.9522,-0.1827,0.2437,-0.0214
0,0.014,-0.018,1.1,7.7,0.8,0,2018,5,17,20,45,15.998,0.9525,-0.1813,0.2436,-0.0219
-0.005,0.007,-0.017,0.9,4.2,0.9,0,2018,5,17,20,45,16.035,0.9527,-0.1803,0.2435,-0.0222
-0.003,0,-0.005,1.2,1.7,0.4,0,2018,5,17,20,45,16.055,0.9528,-0.1799,0.2433,-0.0225
-0.003,-0.009,-0.011,1,1.6,0.4,0,2018,5,17,20,45,16.06,0.9529,-0.1797,0.2431,-0.0226
-0.007,-0.011,-0.005,0.8,2.5,0.8,0,2018,5,17,20,45,16.097,0.953,-0.1793,0.2429,-0.0227
-0.011,0.002,-0.007,0.4,3.2,0.7,0,2018,5,17,20,45,16.097,0.9531,-0.1789,0.2427,-0.0229
-0.008,0,-0.006,0.6,2,0.2,0,2018,5,17,20,45,16.12,0.9532,-0.1785,0.2425,-0.0232
-0.006,-0.007,-0.012,0.2,1.4,0.5,0,2018,5,17,20,45,16.139,0.9533,-0.1782,0.2424,-0.0233
-0.002,-0.019,-0.01,0.1,1.8,1,1023,2018,5,17,20,45,16.156,0.9533,-0.1781,0.2424,-0.0235
-0.003,-0.027,-0.015,0.2,3.9,1.6,1023,2018,5,17,20,45,16.18,0.9534,-0.1779,0.2423,-0.0238
-0.002,-0.028,-0.02,0.5,7.6,2.1,1023,2018,5,17,20,45,16.198,0.9535,-0.1772,0.2422,-0.0244
-0.003,-0.021,-0.011,0.8,11.1,2,1023,2018,5,17,20,45,16.221,0.9538,-0.1761,0.242,-0.0253
-0.001,-0.027,-0.016,1.4,14.5,2,1023,2018,5,17,20,45,16.238,0.9542,-0.1742,0.2417,-0.0261
-0.001,-0.021,-0.01,0.9,18.6,2.1,1023,2018,5,17,20,45,16.261,0.9546,-0.1718,0.2414,-0.0272
-0.004,-0.007,-0.012,0.9,23.4,2.2,1023,2018,5,17,20,45,16.278,0.9553,-0.1684,0.2411,-0.0284
-0.008,0.013,-0.007,1.5,24.5,1.9,1023,2018,5,17,20,45,16.301,0.956,-0.1645,0.2407,-0.0298
-0.006,0.026,-0.006,2.1,21.3,0.9,1023,2018,5,17,20,45,16.32,0.9568,-0.1605,0.2402,-0.0309
-0.008,0.023,-0.003,1.4,15.4,0.6,1023,2018,5,17,20,45,16.343,0.9574,-0.1572,0.2398,-0.0317
-0.002,0.015,-0.003,0.7,10.4,0.8,1023,2018,5,17,20,45,16.361,0.9578,-0.155,0.2395,-0.0324
-0.001,0.008,-0.003,0.2,6.7,0.8,1023,2018,5,17,20,45,16.382,0.9581,-0.1535,0.2393,-0.0328
-0.001,0.004,-0.01,0.4,5.4,0.7,1023,2018,5,17,20,45,16.399,0.9583,-0.1524,0.2392,-0.033
-0.001,0.006,-0.013,0.2,5,0.3,1023,2018,5,17,20,45,16.418,0.9584,-0.1514,0.2392,-0.0333
0.001,0.013,-0.011,0.5,4.1,-0.3,1023,2018,5,17,20,45,16.439,0.9586,-0.1507,0.2391,-0.0336
-0.002,0.009,-0.011,0.7,2.6,-0.4,1023,2018,5,17,20,45,16.478,0.9587,-0.1501,0.239,-0.0337
-0.001,0.004,-0.007,0.4,1.1,0,1023,2018,5,17,20,45,16.501,0.9587,-0.15,0.239,-0.034
0,0,-0.004,0,0,0,0,2018,5,17,20,45,16.505,0.9587,-0.15,0.239,-0.034
-0.004,-0.014,-0.011,-0.1,-0.5,0,0,2018,5,17,20,45,16.54,0.9587,-0.1501,0.239,-0.034
-0.004,-0.022,-0.011,0,1.4,-0.3,0,2018,5,17,20,45,16.561,0.9587,-0.1502,0.239,-0.034
-0.01,-0.006,-0.008,0.3,3.8,-0.3,0,2018,5,17,20,45,16.566,0.9587,-0.1499,0.2389,-0.0341
-0.006,-0.001,-0.002,0.3,4.1,-0.3,0,2018,5,17,20,45,16.585,0.9589,-0.1492,0.2388,-0.0342
-0.008,0.006,-0.001,0,2.7,-0.2,0,2018,5,17,20,45,16.604,0.959,-0.1486,0.2387,-0.0344
-0.005,0.009,-0.005,-0.7,0.3,-0.2,0,2018,5,17,20,45,16.626,0.959,-0.1483,0.2387,-0.0345
-0.003,-0.001,-0.011,-0.7,-0.5,-0.4,0,2018,5,17,20,45,16.642,0.959,-0.1484,0.2388,-0.0344
0.002,-0.011,-0.013,-0.6,0,0,0,2018,5,17,20,45,16.661,0.9589,-0.1485,0.239,-0.0345
-0.003,0,-0.015,-0.3,1.3,0.2,0,2018,5,17,20,45,16.683,0.9589,-0.1483,0.2391,-0.0344
-0.002,0,-0.018,0,1.3,-0.2,0,2018,5,17,20,45,16.7,0.9589,-0.1481,0.2392,-0.0344
-0.006,0.006,-0.006,0.3,0.8,-0.1,0,2018,5,17,20,45,16.723,0.959,-0.1477,0.2391,-0.0343
-0.003,0.005,-0.008,0,0,0,0,2018,5,17,20,45,16.761,0.959,-0.1476,0.2391,-0.0343
0,-0.006,-0.013,-0.2,-0.9,0.2,0,2018,5,17,20,45,16.783,0.959,-0.1478,0.2391,-0.0343
0,-0.013,-0.007,0,0,0,0,2018,5,17,20,45,16.788,0.959,-0.1479,0.2392,-0.0343
-0.003,-0.002,-0.002,-0.2,1.1,0,0,2018,5,17,20,45,16.804,0.959,-0.1478,0.2392,-0.0343
-0.003,0.002,-0.007,-0.2,1,0,0,2018,5,17,20,45,16.827,0.959,-0.1477,0.2392,-0.0344
-0.007,0.005,-0.004,0,0,0,1023,2018,5,17,20,45,16.845,0.959,-0.1473,0.2392,-0.0342
-0.001,-0.002,-0.015,-0.4,-0.7,0.2,1023,2018,5,17,20,45,16.868,0.959,-0.1473,0.2393,-0.0342
-0.004,-0.011,-0.01,0,0,0,1023,2018,5,17,20,45,16.884,0.959,-0.1475,0.2394,-0.0343
-0.001,-0.009,-0.01,-0.2,1.6,0.4,1023,2018,5,17,20,45,16.902,0.959,-0.1474,0.2394,-0.0344
-0.005,-0.005,-0.01,-1.1,2.6,-0.2,1023,2018,5,17,20,45,16.925,0.959,-0.1472,0.2395,-0.0346
0.001,-0.003,-0.007,-1.4,2.7,-0.6,1023,2018,5,17,20,45,16.944,0.959,-0.1468,0.2398,-0.0347
-0.001,0.008,-0.001,-1,2.3,-0.6,1023,2018,5,17,20,45,16.967,0.959,-0.1464,0.24,-0.0348
-0.008,0.007,-0.002,-0.7,1.4,-0.5,1023,2018,5,17,20,45,16.986,0.959,-0.146,0.2401,-0.0348
-0.008,0.002,-0.008,-0.4,1.1,-0.2,1023,2018,5,17,20,45,17.004,0.9591,-0.1456,0.2402,-0.0347
-0.005,0.001,-0.02,0,1,-0.5,1023,2018,5,17,20,45,17.027,0.9591,-0.1455,0.2402,-0.0348
-0.003,-0.001,-0.009,0,1.5,-0.6,1023,2018,5,17,20,45,17.064,0.9591,-0.1452,0.2402,-0.0347
0.001,0,-0.005,0.3,0.5,-0.6,1023,2018,5,17,20,45,17.087,0.9591,-0.145,0.2403,-0.0346
0,0.007,0.002,0.2,-0.8,-0.5,1023,2018,5,17,20,45,17.091,0.9591,-0.1449,0.2403,-0.0345
0,-0.003,-0.005,0.2,-2.2,-0.3,1023,2018,5,17,20,45,17.107,0.9591,-0.1452,0.2403,-0.0344
-0.004,-0.012,-0.012,0,-1.6,0,1023,2018,5,17,20,45,17.13,0.959,-0.1456,0.2403,-0.0343
-0.005,-0.009,-0.012,0,0,0,1023,2018,5,17,20,45,17.148,0.959,-0.1459,0.2403,-0.0343
-0.003,-0.003,-0.005,0,0,0,1023,2018,5,17,20,45,17.171,0.959,-0.1459,0.2403,-0.0343
-0.003,0.001,-0.007,0,0,0,0,2018,5,17,20,45,17.187,0.959,-0.1459,0.2404,-0.0343
-0.009,0.01,0,-1.5,0,0.2,0,2018,5,17,20,45,17.223,0.959,-0.1458,0.2404,-0.0344
-0.005,-0.005,-0.002,-1.9,-0.8,0,0,2018,5,17,20,45,17.245,0.9589,-0.1459,0.2407,-0.0345
0,-0.005,-0.005,-2.2,-0.1,0.5,0,2018,5,17,20,45,17.25,0.9588,-0.146,0.241,-0.0345
-0.001,-0.004,-0.016,-1,-0.5,0.1,0,2018,5,17,20,45,17.266,0.9587,-0.1461,0.2413,-0.0347
-0.002,0.001,-0.015,-0.7,-0.5,-0.2,0,2018,5,17,20,45,17.288,0.9587,-0.146,0.2415,-0.0345
0.001,-0.002,-0.013,-0.2,0,-0.6,0,2018,5,17,20,45,17.308,0.9586,-0.146,0.2417,-0.0343
-0.003,-0.003,-0.015,0.1,1.6,-0.3,0,2018,5,17,20,45,17.331,0.9586,-0.146,0.2417,-0.0343
-0.009,0.007,-0.005,0.3,-0.3,-0.6,0,2018,5,17,20,45,17.349,0.9587,-0.1457,0.2417,-0.0341
-0.007,0,0,0,-1.2,-1,0,2018,5,17,20,45,17.372,0.9587,-0.1458,0.2417,-0.0339
-0.007,-0.003,0,-0.5,-1.5,-0.7,0,2018,5,17,20,45,17.388,0.9586,-0.146,0.2417,-0.0338
0,0,0,-0.8,-1.8,-0.3,0,2018,5,17,20,45,17.411,0.9585,-0.1464,0.2418,-0.0339
-0.004,-0.011,-0.003,-0.8,-1,-0.3,0,2018,5,17,20,45,17.427,0.9585,-0.1467,0.2419,-0.0338
-0.006,-0.016,-0.006,-0.8,0.9,-0.5,0,2018,5,17,20,45,17.464,0.9584,-0.1466,0.2421,-0.0336
-0.003,-0.003,-0.003,-0.8,2.3,-0.4,0,2018,5,17,20,45,17.487,0.9585,-0.1462,0.2422,-0.0335
-0.002,0.017,-0.007,-1,3.5,0,0,2018,5,17,20,45,17.492,0.9585,-0.1457,0.2424,-0.0336
-0.005,-0.003,-0.008,-0.8,2.4,-0.1,0,2018,5,17,20,45,17.508,0.9585,-0.1453,0.2425,-0.0337
-0.002,-0.002,-0.006,-1.2,2.6,0.1,1023,2018,5,17,20,45,17.531,0.9586,-0.1449,0.2427,-0.0338
-0.004,0,-0.012,-1.3,3.4,0,1023,2018,5,17,20,45,17.55,0.9585,-0.1444,0.243,-0.034
-0.001,0.002,-0.013,-0.8,3.8,-0.2,1023,2018,5,17,20,45,17.573,0.9586,-0.1438,0.2432,-0.0342
0.001,0.012,-0.009,-0.6,2.8,-0.5,1023,2018,5,17,20,45,17.589,0.9586,-0.1432,0.2433,-0.0342
-0.005,0.021,-0.003,-0.6,2.9,-0.1,1023,2018,5,17,20,45,17.611,0.9587,-0.1426,0.2434,-0.0342
-0.005,0.007,-0.01,-0.3,-0.1,-0.5,1023,2018,5,17,20,45,17.65,0.9587,-0.1423,0.2436,-0.0342
-0.004,0,-0.013,-0.8,-0.5,-0.7,1023,2018,5,17,20,45,17.673,0.9587,-0.1424,0.2437,-0.034
0,0.003,-0.009,-0.8,-0.4,-0.5,1023,2018,5,17,20,45,17.678,0.9586,-0.1426,0.2439,-0.0341
-0.007,-0.004,-0.001,-0.5,0.2,-0.2,1023,2018,5,17,20,45,17.691,0.9586,-0.1426,0.2441,-0.0339
-0.002,0.001,-0.002,-1,0.5,-0.3,1023,2018,5,17,20,45,17.726,0.9586,-0.1423,0.2442,-0.0338
-0.003,-0.006,-0.005,-1.3,1.6,-0.2,1023,2018,5,17,20,45,17.748,0.9585,-0.1422,0.2443,-0.0338
-0.004,0.004,-0.009,-1.2,3,0,1023,2018,5,17,20,45,17.751,0.9585,-0.1418,0.2446,-0.0339
-0.004,0.011,-0.006,-1,1.4,-0.1,1023,2018,5,17,20,45,17.77,0.9586,-0.1414,0.2447,-0.0341
0,0,-0.007,-1.3,-0.3,-0.2,1023,2018,5,17,20,45,17.793,0.9585,-0.1411,0.2449,-0.0339
0.002,-0.002,-0.006,-1,-0.9,-0.3,1023,2018,5,17,20,45,17.812,0.9585,-0.141,0.2452,-0.0339
0.006,-0.011,-0.012,0,0,0,1023,2018,5,17,20,45,17.835,0.9585,-0.1411,0.2454,-0.0337
0.004,-0.002,-0.014,0.2,1.7,0,1023,2018,5,17,20,45,17.853,0.9584,-0.141,0.2455,-0.0337
0.001,0.005,-0.007,0.7,2.3,0.3,0,2018,5,17,20,45,17.872,0.9585,-0.1406,0.2455,-0.0338
-0.004,0.004,-0.005,0.9,1.5,0.2,0,2018,5,17,20,45,17.895,0.9586,-0.1403,0.2453,-0.0339
-0.009,0.001,-0.002,0.5,1,-0.2,0,2018,5,17,20,45,17.913,0.9586,-0.1401,0.2451,-0.034
-0.008,0.001,0.004,0,1.1,-0.5,0,2018,5,17,20,45,17.936,0.9587,-0.1399,0.245,-0.034
-0.006,0.011,0.003,-0.5,0.4,-1,0,2018,5,17,20,45,17.952,0.9587,-0.1396,0.245,-0.0339
-0.006,0.009,-0.003,-1.1,-0.7,-1,0,2018,5,17,20,45,17.97,0.9588,-0.1395,0.2451,-0.0336
-0.002,0,-0.009,-1.4,-1.3,-0.7,0,2018,5,17,20,45,17.991,0.9587,-0.1396,0.2453,-0.0335
-0.001,-0.006,-0.014,-1.1,-1.1,-0.5,0,2018,5,17,20,45,18.03,0.9586,-0.1397,0.2456,-0.0332
-0.005,-0.003,-0.006,-0.9,0,-0.2,0,2018,5,17,20,45,18.052,0.9586,-0.1397,0.2458,-0.033
-0.004,-0.004,-0.004,-0.6,0.3,0,0,2018,5,17,20,45,18.057,0.9585,-0.1397,0.2459,-0.033
-0.009,-0.018,-0.006,-0.7,1.1,-0.1,0,2018,5,17,20,45,18.073,0.9585,-0.1397,0.246,-0.0331
-0.003,-0.006,-0.008,-0.5,-0.1,-0.2,0,2018,5,17,20,45,18.096,0.9585,-0.1396,0.2461,-0.0332
-0.002,-0.005,-0.003,-0.8,0.6,-0.2,0,2018,5,17,20,45,18.115,0.9585,-0.1397,0.2462,-0.0332
0,-0.006,-0.007,-0.8,1.3,-0.1,0,2018,5,17,20,45,18.138,0.9584,-0.1394,0.2464,-0.0332
-0.003,0.002,-0.013,-0.9,1.7,0,0,2018,5,17,20,45,18.153,0.9584,-0.1392,0.2466,-0.0333
0,0.022,-0.007,-1,2.7,-0.1,0,2018,5,17,20,45,18.172,0.9585,-0.1386,0.2467,-0.0332
-0.004,0.011,-0.008,-0.8,0.8,-0.4,0,2018,5,17,20,45,18.193,0.9585,-0.1383,0.2469,-0.0332
-0.001,0.007,-0.004,-0.8,0,-0.2,0,2018,5,17,20,45,18.23,0.9585,-0.138,0.2471,-0.0331
-0.003,0.004,-0.001,-0.8,-0.2,-0.3,1023,2018,5,17,20,45,18.251,0.9584,-0.138,0.2473,-0.033
-0.004,0.001,-0.012,-0.6,-0.2,-0.2,1023,2018,5,17,20,45,18.253,0.9584,-0.1379,0.2474,-0.0328
-0.004,-0.001,-0.01,-0.5,0,-0.1,1023,2018,5,17,20,45,18.292,0.9584,-0.1379,0.2475,-0.0328
-0.002,0.003,-0.015,0,0,0,1023,2018,5,17,20,45,18.292,0.9584,-0.138,0.2475,-0.0328
-0.003,-0.003,-0.011,0.1,1.1,0.3,1023,2018,5,17,20,45,18.318,0.9584,-0.1378,0.2475,-0.0328
-0.001,-0.002,-0.013,0.2,1.3,0.2,1023,2018,5,17,20,45,18.336,0.9584,-0.1376,0.2475,-0.0329
-0.001,0.01,-0.007,0.2,0.9,0,1023,2018,5,17,20,45,18.373,0.9584,-0.1374,0.2475,-0.0329
0,0.014,-0.003,0.3,-0.8,-0.3,1023,2018,5,17,20,45,18.396,0.9585,-0.1373,0.2475,-0.0329
-0.005,0,-0.004,0.4,-2.5,-0.2,1023,2018,5,17,20,45,18.399,0.9584,-0.1376,0.2475,-0.0327
-0.001,-0.015,-0.014,0,-1.1,0,1023,2018,5,17,20,45,18.435,0.9584,-0.1382,0.2475,-0.0327
-0.003,-0.011,-0.012,0.3,1.6,0.1,1023,2018,5,17,20,45,18.458,0.9583,-0.1384,0.2475,-0.0329
-0.004,0.013,-0.005,0.6,2.1,0,1023,2018,5,17,20,45,18.463,0.9584,-0.138,0.2474,-0.0329
-0.001,0.013,0.004,0,0,0,1023,2018,5,17,20,45,18.477,0.9584,-0.1378,0.2473,-0.033
-0.004,0.007,-0.005,0.2,-1.5,-0.2,0,2018,5,17,20,45,18.513,0.9584,-0.1379,0.2473,-0.033
0,-0.002,-0.013,0.2,-1.7,-0.5,0,2018,5,17,20,45,18.535,0.9584,-0.138,0.2473,-0.0327
0,0,-0.012,0.3,-1.3,-0.6,0,2018,5,17,20,45,18.54,0.9584,-0.1384,0.2473,-0.0326
-0.003,0.003,-0.007,0.3,-0.8,-0.6,0,2018,5,17,20,45,18.557,0.9584,-0.1386,0.2473,-0.0324
-0.004,0.004,-0.008,0.2,-0.9,-0.8,0,2018,5,17,20,45,18.58,0.9584,-0.1387,0.2473,-0.0322
-0.007,-0.001,0,-0.1,-0.9,-0.8,0,2018,5,17,20,45,18.598,0.9583,-0.139,0.2472,-0.0322
-0.004,-0.01,0,0,-0.1,-0.5,0,2018,5,17,20,45,18.621,0.9583,-0.1392,0.2472,-0.0321
-0.001,-0.015,-0.012,0.2,1.2,-0.1,0,2018,5,17,20,45,18.657,0.9583,-0.1392,0.2472,-0.0321
-0.003,-0.011,-0.008,0.3,2.4,0.2,0,2018,5,17,20,45,18.68,0.9583,-0.139,0.2472,-0.0321
-0.007,0,-0.007,0.9,3.1,0,0,2018,5,17,20,45,18.684,0.9584,-0.1386,0.247,-0.0323
-0.002,0.014,-0.007,1,2.8,0,0,2018,5,17,20,45,18.698,0.9586,-0.138,0.2468,-0.0323
-0.002,0.018,-0.007,0.5,1.6,0,0,2018,5,17,20,45,18.716,0.9587,-0.1374,0.2467,-0.0323
-0.004,0.011,-0.004,0,0,0,0,2018,5,17,20,45,18.736,0.9588,-0.1371,0.2466,-0.0322
0,0,-0.007,-0.2,-0.1,0.5,0,2018,5,17,20,45,18.757,0.9587,-0.1371,0.2466,-0.0323
-0.001,-0.006,-0.009,0.2,0.2,0.5,0,2018,5,17,20,45,18.781,0.9587,-0.1374,0.2466,-0.0325
-0.001,-0.006,-0.011,0.4,0.8,0.4,0,2018,5,17,20,45,18.816,0.9587,-0.1374,0.2466,-0.0327
-0.002,0,-0.003,0.9,1.4,0.5,0,2018,5,17,20,45,18.84,0.9587,-0.1374,0.2465,-0.0328
-0.008,0.006,0,1.1,1.3,0.3,0,2018,5,17,20,45,18.844,0.9589,-0.1369,0.2462,-0.0327
-0.01,0.011,0.004,0.9,0.5,-0.1,0,2018,5,17,20,45,18.862,0.959,-0.1366,0.2459,-0.0327
-0.006,0.015,-0.003,0.3,-0.5,-0.3,0,2018,5,17,20,45,18.878,0.959,-0.1366,0.2458,-0.0327
-0.005,0.009,-0.009,0,-1.5,-0.3,0,2018,5,17,20,45,18.896,0.959,-0.1369,0.2457,-0.0328
0,0,-0.01,0.2,-1.9,0,0,2018,5,17,20,45,18.92,0.959,-0.1371,0.2457,-0.0326
-0.002,-0.015,-0.013,0.7,-0.9,0.2,0,2018,5,17,20,45,18.938,0.9589,-0.1375,0.2457,-0.0326
-0.001,-0.014,-0.008,0.6,0.9,0,1023,2018,5,17,20,45,18.961,0.9589,-0.1377,0.2456,-0.0326
-0.001,-0.001,-0.001,0.2,2.1,-0.3,1023,2018,5,17,20,45,18.98,0.9589,-0.1376,0.2455,-0.0327
-0.003,0,0,0,1.9,-0.5,1023,2018,5,17,20,45,19.002,0.959,-0.1373,0.2455,-0.0328
-0.004,0.007,-0.005,0.2,1.6,-0.5,1023,2018,5,17,20,45,19.02,0.959,-0.1371,0.2455,-0.0329
0.005,0.003,-0.007,0.3,0.9,-0.3,1023,2018,5,17,20,45,19.043,0.9591,-0.1367,0.2455,-0.0328
0.003,-0.004,-0.011,0.5,0.9,0,1023,2018,5,17,20,45,19.079,0.9591,-0.1365,0.2455,-0.0327
0,-0.006,-0.01,0.5,0.9,0,1023,2018,5,17,20,45,19.12,0.9591,-0.1363,0.2455,-0.0326
-0.005,-0.002,-0.011,0.5,2.3,0,1023,2018,5,17,20,45,19.121,0.9592,-0.136,0.2454,-0.0326
-0.006,0.01,-0.011,0.7,3.6,0.1,1023,2018,5,17,20,45,19.123,0.9593,-0.1354,0.2453,-0.0327
-0.007,0.029,-0.012,1,2.7,0.5,1023,2018,5,17,20,45,19.161,0.9594,-0.1348,0.2451,-0.0329
-0.003,0.025,-0.006,0.8,-0.7,0.4,1023,2018,5,17,20,45,19.184,0.9596,-0.1342,0.2449,-0.0327
-0.002,0.005,-0.001,0.6,-3.8,0.1,1023,2018,5,17,20,45,19.189,0.9596,-0.1345,0.2448,-0.0326
-0.004,-0.015,-0.001,0.5,-3.5,0.1,1023,2018,5,17,20,45,19.203,0.9595,-0.1352,0.2447,-0.0324
-0.003,-0.02,0,0.6,-1.5,-0.1,1023,2018,5,17,20,45,19.221,0.9594,-0.1359,0.2446,-0.0324
-0.003,-0.009,-0.001,0.8,0.2,-0.2,1023,2018,5,17,20,45,19.244,0.9594,-0.1362,0.2444,-0.0325
-0.009,0.002,0,0.6,0.3,0,0,2018,5,17,20,45,19.263,0.9595,-0.1362,0.2443,-0.0325
-0.014,-0.001,0.002,0.2,0.5,0.2,0,2018,5,17,20,45,19.301,0.9595,-0.1362,0.2441,-0.0325
-0.012,-0.011,0.004,0,2,0.2,0,2018,5,17,20,45,19.323,0.9596,-0.136,0.2439,-0.0326
-0.011,0.001,0.003,-0.3,3.3,0,0,2018,5,17,20,45,19.328,0.9597,-0.1355,0.2438,-0.0327
-0.004,0.016,0.001,-0.1,2.2,0,0,2018,5,17,20,45,19.343,0.9598,-0.1349,0.2438,-0.0328
0,0.017,-0.007,0,0,0,0,2018,5,17,20,45,19.366,0.9598,-0.1346,0.2438,-0.0328
0,0.002,-0.008,-0.9,-1.6,0,0,2018,5,17,20,45,19.403,0.9598,-0.1347,0.244,-0.0327
-0.001,-0.007,-0.002,-1.3,-0.5,-0.2,0,2018,5,17,20,45,19.426,0.9597,-0.1349,0.2441,-0.0326
0,-0.012,-0.003,-1.3,1.1,-0.6,0,2018,5,17,20,45,19.431,0.9596,-0.1349,0.2444,-0.0325
0,-0.001,-0.01,-1.2,2.3,-0.5,0,2018,5,17,20,45,19.443,0.9596,-0.1347,0.2447,-0.0326
0,0,-0.009,-0.8,2.5,-0.5,0,2018,5,17,20,45,19.481,0.9596,-0.1342,0.2449,-0.0326
0,0.001,-0.01,-0.4,2.1,-0.5,0,2018,5,17,20,45,19.481,0.9596,-0.1338,0.245,-0.0325
0.004,0.007,-0.02,0.1,0.8,-0.6,0,2018,5,17,20,45,19.506,0.9596,-0.1335,0.2452,-0.0324
0,0.01,-0.018,0.3,-0.1,-0.7,0,2018,5,17,20,45,19.524,0.9596,-0.1333,0.2452,-0.0323
-0.001,0.008,-0.021,0.5,-0.8,-0.4,0,2018,5,17,20,45,19.547,0.9596,-0.1332,0.2453,-0.0321
-0.004,0.006,-0.01,0.7,-1,-0.1,0,2018,5,17,20,45,19.565,0.9597,-0.1333,0.2452,-0.0319
-0.007,-0.001,-0.003,0.5,-0.9,-0.2,0,2018,5,17,20,45,19.588,0.9597,-0.1334,0.2451,-0.0317
-0.007,-0.005,-0.001,0,0,0,1023,2018,5,17,20,45,19.607,0.9597,-0.1335,0.245,-0.0316
-0.004,-0.001,0,0.5,-0.1,0,1023,2018,5,17,20,45,19.644,0.9597,-0.1336,0.2449,-0.0316
-0.004,0.003,0.002,0.6,0.1,0.1,1023,2018,5,17,20,45,19.667,0.9597,-0.1336,0.2448,-0.0316
-0.01,-0.008,0.011,1.1,1.7,0.3,1023,2018,5,17,20,45,19.672,0.9598,-0.1335,0.2445,-0.0316
-0.012,-0.012,0.009,0.6,4.3,0.5,1023,2018,5,17,20,45,19.685,0.96,-0.1332,0.2441,-0.0319
-0.004,-0.002,-0.011,0,5.5,0.3,1023,2018,5,17,20,45,19.703,0.9601,-0.1325,0.2439,-0.0323
0.005,0.011,-0.021,-0.3,3.9,0,1023,2018,5,17,20,45,19.726,0.9602,-0.1315,0.244,-0.0324
0.004,-0.006,0.008,0.7,3.2,-0.3,1023,2018,5,17,20,45,19.744,0.9603,-0.1309,0.2441,-0.0324
-0.014,-0.029,0.03,1.1,6.7,0.1,1023,2018,5,17,20,45,19.767,0.9604,-0.1302,0.2437,-0.0326
-0.006,-0.016,0.008,-1.3,9.1,-0.5,1023,2018,5,17,20,45,19.802,0.9606,-0.1291,0.2435,-0.033
0.02,0.009,-0.014,-4.3,6.6,-1.8,1023,2018,5,17,20,45,19.825,0.9607,-0.1277,0.2441,-0.0332
0.015,0.006,0.008,-3.6,4.4,-1.7,1023,2018,5,17,20,45,19.83,0.9606,-0.1266,0.245,-0.0331
-0.017,-0.018,0.049,-0.5,10.5,-0.2,1023,2018,5,17,20,45,19.846,0.9607,-0.1254,0.2452,-0.0333
-0.044,-0.024,0.064,-1.4,18.4,0.2,1023,2018,5,17,20,45,19.87,0.9611,-0.1231,0.2446,-0.0341
-0.022,0.01,0.039,-7,23.8,1.5,1023,2018,5,17,20,45,19.907,0.9615,-0.1195,0.2446,-0.0354
0.042,0.074,0.045,-14.1,17.6,3.6,1023,2018,5,17,20,45,19.929,0.9615,-0.1155,0.2462,-0.037
0.035,0.061,0.057,-15.7,7.5,3.2,1023,2018,5,17,20,45,19.934,0.9612,-0.1127,0.2487,-0.0381
0,0.028,0.033,-16.1,5.2,2.1,0,2018,5,17,20,45,19.95,0.9606,-0.1115,0.2513,-0.039
-0.024,0.033,0.008,-18.2,6.2,2,0,2018,5,17,20,45,19.974,0.9601,-0.1101,0.2539,-0.0399
-0.018,0.063,0.019,-24,0,3.3,0,2018,5,17,20,45,19.987,0.9593,-0.109,0.257,-0.0409
0.047,0.059,0.023,-27.1,-6.6,5.6,0,2018,5,17,20,45,20.024,0.9581,-0.1091,0.2614,-0.0417
0.045,0.053,0.016,-26.1,-9.9,6.6,0,2018,5,17,20,45,20.046,0.9566,-0.11,0.2662,-0.0426
0.003,0.036,0.022,-23.8,-9.2,8.2,0,2018,5,17,20,45,20.051,0.9552,-0.1113,0.2704,-0.0438
0.001,0.025,0.028,-25.1,-5.1,12.4,0,2018,5,17,20,45,20.067,0.9539,-0.1127,0.2741,-0.0457
0.021,0.021,0.016,-26.9,0.6,16.9,0,2018,5,17,20,45,20.09,0.9525,-0.1136,0.2782,-0.0488
0.01,0.009,0.012,-27.7,12.2,19.9,0,2018,5,17,20,45,20.108,0.9511,-0.113,0.2824,-0.0526
0.032,0.017,0.029,-28.1,25.5,21.8,0,2018,5,17,20,45,20.132,0.9499,-0.1105,0.2865,-0.0576
0.044,0.028,0.02,-25.5,35.2,23.5,0,2018,5,17,20,45,20.166,0.9488,-0.106,0.2904,-0.0634
0.058,0.027,0.059,-21,44.8,26.2,0,2018,5,17,20,45,20.189,0.948,-0.1003,0.2935,-0.0701
0.09,0.024,0.092,-17.8,62.2,30.8,0,2018,5,17,20,45,20.193,0.9475,-0.0924,0.2957,-0.0778
0.114,0.066,0.067,-17.2,85.7,37.1,0,2018,5,17,20,45,20.209,0.9472,-0.0812,0.2972,-0.0875
0.142,0.278,0.039,-21.9,97.5,44.1,0,2018,5,17,20,45,20.228,0.9468,-0.0674,0.2984,-0.0995
0.198,0.436,0.058,-21.1,72.1,39.8,0,2018,5,17,20,45,20.251,0.9457,-0.0549,0.3001,-0.1114
0.141,0.438,0.107,-19.5,25.6,31.5,1023,2018,5,17,20,45,20.288,0.9444,-0.0484,0.302,-0.1202
0.193,0.408,0.089,-29.1,-28.9,32.8,1023,2018,5,17,20,45,20.311,0.9424,-0.05,0.3056,-0.1256
0.267,0.307,0.031,-35,-83.3,34.4,1023,2018,5,17,20,45,20.315,0.9392,-0.0612,0.3121,-0.1285
0.199,0.089,0.078,-29.2,-82.9,34.2,1023,2018,5,17,20,45,20.334,0.9356,-0.0768,0.3189,-0.1297
0.158,0.038,0.08,-23.5,-52.2,43.3,1023,2018,5,17,20,45,20.37,0.9322,-0.0889,0.3247,-0.1324
0.081,0.096,0.031,-22.7,-27.9,57.6,1023,2018,5,17,20,45,20.393,0.929,-0.0969,0.3289,-0.1387
0.053,0.154,0.017,-17.1,-24.7,68.9,1023,2018,5,17,20,45,20.398,0.9257,-0.1042,0.3318,-0.1483
-0.04,0.053,-0.095,-7.2,-24,81.5,1023,2018,5,17,20,45,20.415,0.9225,-0.1121,0.3329,-0.1594
-0.124,0.008,-0.131,-4.9,-49.4,85,1023,2018,5,17,20,45,20.434,0.9189,-0.1226,0.3332,-0.1712
-0.267,-0.1,-0.126,-3.4,-72.7,84.1,1023,2018,5,17,20,45,20.471,0.9146,-0.1378,0.3338,-0.1814
-0.333,-0.09,-0.147,-7.9,-80.5,78.6,1023,2018,5,17,20,45,20.471,0.9096,-0.1552,0.3352,-0.19
-0.221,-0.226,-0.204,-3.1,-33.3,76,1023,2018,5,17,20,45,20.494,0.9049,-0.169,0.3359,-0.1991
-0.31,-0.11,-0.198,-1.5,-1.4,75.8,1023,2018,5,17,20,45,20.511,0.9016,-0.1755,0.3344,-0.2107
-0.423,-0.067,-0.148,-3.2,-8.8,76.4,1023,2018,5,17,20,45,20.548,0.8984,-0.1807,0.3323,-0.2229
-0.286,0.132,-0.153,-16.7,-30.2,75.4,1023,2018,5,17,20,45,20.569,0.8941,-0.1878,0.3322,-0.2341
-0.072,0.201,-0.29,-21.4,-65.7,72.7,1023,2018,5,17,20,45,20.573,0.8882,-0.1987,0.3348,-0.2437
-0.187,-0.049,-0.312,-13,-69.3,78.9,1023,2018,5,17,20,45,20.61,0.8812,-0.2138,0.3379,-0.252
-0.307,-0.178,-0.123,-15.8,-27.1,85.6,1023,2018,5,17,20,45,20.633,0.8748,-0.2255,0.3389,-0.2624
-0.151,-0.044,-0.059,-21.3,-19.3,84.9,1023,2018,5,17,20,45,20.637,0.8688,-0.2325,0.3394,-0.2754
-0.212,-0.002,-0.017,-16.4,-55.4,73.3,1023,2018,5,17,20,45,20.655,0.8622,-0.242,0.3406,-0.2861
-0.225,-0.126,0.071,-8.7,-75.2,60.4,1023,2018,5,17,20,45,20.674,0.8549,-0.256,0.3432,-0.2928
-0.195,-0.337,0.152,-4.2,-42.4,55.2,0,2018,5,17,20,45,20.696,0.8485,-0.2687,0.3445,-0.2982
-0.201,-0.334,0.202,-13,16.4,57.4,0,2018,5,17,20,45,20.715,0.8445,-0.2735,0.3435,-0.3065
-0.166,-0.043,0.114,-30.5,39.2,54.2,0,2018,5,17,20,45,20.739,0.8414,-0.2711,0.3422,-0.3183
-0.155,0.181,0.241,-44.4,16.7,44.7,0,2018,5,17,20,45,20.755,0.8376,-0.2678,0.3436,-0.3294
-0.111,0.155,0.333,-55.9,-18.8,37.1,0,2018,5,17,20,45,20.773,0.8319,-0.2677,0.3493,-0.3378
-0.163,-0.032,0.159,-68.8,-28.4,35.9,0,2018,5,17,20,45,20.795,0.8245,-0.2704,0.3583,-0.3443
-0.034,-0.059,-0.094,-84.6,-2.9,39.1,0,2018,5,17,20,45,20.814,0.8162,-0.2708,0.3686,-0.3528
0.112,0.083,-0.077,-85.5,15.4,47.5,0,2018,5,17,20,45,20.837,0.8079,-0.2674,0.3786,-0.3638
0.118,0.183,-0.016,-75.3,-1,58.1,0,2018,5,17,20,45,20.855,0.7993,-0.2645,0.3868,-0.376
0.043,0.162,-0.041,-61.5,-32.9,66,0,2018,5,17,20,45,20.878,0.7895,-0.267,0.3944,-0.3869
0.146,0.071,-0.169,-48.2,-39.9,68.4,0,2018,5,17,20,45,20.915,0.7788,-0.2736,0.4016,-0.3964
0.172,-0.038,-0.287,-34.6,-12.4,71.9,0,2018,5,17,20,45,20.915,0.7695,-0.2795,0.4054,-0.4065
0.134,0.01,-0.13,-20.5,1.1,73.5,1023,2018,5,17,20,45,20.938,0.7619,-0.2833,0.4056,-0.4178
-0.006,0.094,0.07,-6.9,-12.9,72.8,1023,2018,5,17,20,45,20.957,0.7555,-0.2876,0.404,-0.428
-0.017,-0.057,-0.147,-8.6,-26.1,72.8,1023,2018,5,17,20,45,20.981,0.7484,-0.2951,0.4024,-0.4367
0.073,-0.097,-0.261,-21.1,-30.6,73.6,1023,2018,5,17,20,45,20.995,0.7399,-0.3029,0.4029,-0.4452
0.04,-0.016,-0.062,-15.8,-30.8,70.2,1023,2018,5,17,20,45,21.033,0.731,-0.3105,0.4041,-0.4536
-0.044,0.046,0.055,0.2,-36.3,67.9,1023,2018,5,17,20,45,21.056,0.723,-0.3188,0.404,-0.4608
-0.073,0.035,0.052,19.8,-33,64.2,1023,2018,5,17,20,45,21.06,0.7164,-0.3289,0.4012,-0.4663
-0.014,0.162,-0.007,19.1,-35.2,60.1,1023,2018,5,17,20,45,21.081,0.7111,-0.3385,0.3971,-0.4711
-0.045,0.279,-0.016,9.5,-69.6,56.1,1023,2018,5,17,20,45,21.098,0.7045,-0.3492,0.3958,-0.4742
-0.101,0.227,-0.067,1,-96.5,62.4,1023,2018,5,17,20,45,21.116,0.6942,-0.3646,0.3988,-0.4753
-0.175,0.016,-0.183,-2.8,-44.9,86.4,1023,2018,5,17,20,45,21.139,0.6829,-0.3788,0.4001,-0.4795
-0.165,0.159,-0.205,-1.5,7.2,109.2,1023,2018,5,17,20,45,21.158,0.6731,-0.3872,0.395,-0.4907
-0.056,0.19,-0.303,12.8,14.6,114.4,1023,2018,5,17,20,45,21.18,0.6643,-0.3938,0.3853,-0.5049
0.007,0.178,-0.287,33.3,0.6,118.4,1023,2018,5,17,20,45,21.216,0.6557,-0.4028,0.3738,-0.5175
-0.047,-0.012,-0.297,56.4,14.1,129.4,1023,2018,5,17,20,45,21.239,0.6474,-0.4146,0.3593,-0.5289
-0.124,-0.13,-0.469,73.1,54.4,145.2,1023,2018,5,17,20,45,21.244,0.6407,-0.4254,0.3385,-0.542
-0.101,-0.004,-0.384,87.6,70.9,147.4,1023,2018,5,17,20,45,21.26,0.6361,-0.4341,0.312,-0.5563
0.088,0.079,-0.238,104.2,53,134.2,1023,2018,5,17,20,45,21.283,0.6316,-0.4442,0.2843,-0.5681
0.03,-0.069,-0.305,120.4,43.8,123.9,0,2018,5,17,20,45,21.318,0.6277,-0.4565,0.2572,-0.5756
-0.167,-0.234,-0.335,130,68.5,124.7,0,2018,5,17,20,45,21.318,0.6249,-0.4686,0.228,-0.5812
-0.261,-0.176,-0.062,141.9,113.1,123.3,0,2018,5,17,20,45,21.342,0.6249,-0.4769,0.1934,-0.587
-0.234,0.119,0.307,156.4,90.7,105.7,0,2018,5,17,20,45,21.358,0.6267,-0.4836,0.156,-0.5906
-0.227,0.043,0.253,163.9,41.6,92.4,0,2018,5,17,20,45,21.381,0.6261,-0.4958,0.1234,-0.5888
-0.332,0.074,0.191,152.4,15.8,90.3,0,2018,5,17,20,45,21.398,0.6221,-0.5109,0.0954,-0.5854
-0.457,-0.044,0.17,129.5,23.6,82.6,0,2018,5,17,20,45,21.421,0.6171,-0.5248,0.0706,-0.582
-0.332,-0.094,0.403,122.7,82.5,90.4,0,2018,5,17,20,45,21.439,0.6144,-0.5323,0.0441,-0.5806
-0.197,0.075,0.173,107.6,114.2,101,0,2018,5,17,20,45,21.463,0.6148,-0.5334,0.012,-0.5807
-0.161,0.135,-0.028,82.4,123,112.6,0,2018,5,17,20,45,21.499,0.6151,-0.5303,-0.02,-0.583
-0.2,0.243,-0.007,55.2,116,122.8,0,2018,5,17,20,45,21.522,0.6137,-0.5232,-0.0509,-0.589
-0.138,0.34,-0.045,58.2,42.2,109.4,0,2018,5,17,20,45,21.527,0.6086,-0.5186,-0.0758,-0.5956
-0.057,0.496,0.006,76.5,-74.7,78,0,2018,5,17,20,45,21.54,0.596,-0.5262,-0.0899,-0.5997
-0.029,0.338,-0.207,59.6,-182.6,54.6,0,2018,5,17,20,45,21.56,0.5756,-0.5464,-0.0885,-0.6018
-0.181,-0.423,-0.293,38.3,-177.2,65.8,0,2018,5,17,20,45,21.581,0.5493,-0.5701,-0.0782,-0.6057
-0.162,-0.849,-0.261,20.3,-19.1,48.6,1023,2018,5,17,20,45,21.599,0.5345,-0.5805,-0.0769,-0.6093
-0.085,-0.84,-0.16,22.1,31.3,16.3,1023,2018,5,17,20,45,21.622,0.5313,-0.5816,-0.0831,-0.6102
0.118,-0.122,-0.141,14.6,91.3,31.1,1023,2018,5,17,20,45,21.658,0.5354,-0.5769,-0.0942,-0.6095
0.073,0.311,-0.006,17.7,76.3,40.2,1023,2018,5,17,20,45,21.68,0.5399,-0.5697,-0.1087,-0.6098
-0.047,0.222,0.102,29.5,71.6,46.1,1023,2018,5,17,20,45,21.684,0.542,-0.5646,-0.1227,-0.6101
-0.029,0.237,0.027,40.3,70.2,52,1023,2018,5,17,20,45,21.721,0.5429,-0.5602,-0.1389,-0.6099
-0.091,0.015,-0.048,47.8,64.2,42.8,1023,2018,5,17,20,45,21.744,0.5428,-0.5579,-0.1549,-0.6082
-0.051,0.14,0.001,45.8,67.8,48.2,1023,2018,5,17,20,45,21.749,0.5431,-0.555,-0.1716,-0.6061
-0.024,-0.01,0.02,51.4,57.8,57.5,1023,2018,5,17,20,45,21.764,0.5419,-0.5524,-0.1879,-0.6048
-0.059,-0.158,0.036,47.4,67.1,62.5,1023,2018,5,17,20,45,21.787,0.5402,-0.5499,-0.2045,-0.6031
-0.118,0.055,0.204,41.1,11.1,45.6,1023,2018,5,17,20,45,21.805,0.5369,-0.5487,-0.2181,-0.6024
-0.054,0.173,-0.016,40,-27.3,31.5,0,2018,5,17,20,45,21.827,0.5305,-0.5524,-0.224,-0.6026
0.019,0.308,-0.048,45.1,-36.3,21,0,2018,5,17,20,45,21.843,0.5231,-0.5582,-0.2277,-0.6023
0.006,0.402,-0.034,34,-84,15.9,0,2018,5,17,20,45,21.861,0.5135,-0.5674,-0.2268,-0.6023
-0.039,0.261,-0.166,32.8,-145.4,2.1,0,2018,5,17,20,45,21.884,0.4994,-0.5812,-0.2175,-0.6044
0.025,-0.053,-0.036,25,-129.7,1.8,0,2018,5,17,20,45,21.902,0.4836,-0.5957,-0.2058,-0.6072
-0.028,-0.336,-0.052,16.9,-95.4,8.6,0,2018,5,17,20,45,21.925,0.4706,-0.6074,-0.196,-0.6091
0.004,-0.182,-0.14,12,-74.4,16.3,0,2018,5,17,20,45,21.944,0.46,-0.6151,-0.1896,-0.6115
0.026,-0.031,-0.078,8.6,-48.1,32.4,0,2018,5,17,20,45,21.967,0.4507,-0.6201,-0.1861,-0.6144
0.026,-0.177,-0.042,20.3,-27.7,42.1,0,2018,5,17,20,45,21.986,0.4422,-0.6235,-0.1868,-0.6169
0.026,0.016,-0.044,26,-13.3,50.5,0,2018,5,17,20,45,22.008,0.4347,-0.6261,-0.1912,-0.6183
-0.006,-0.061,-0.02,29.7,5.5,61,0,2018,5,17,20,45,22.024,0.4271,-0.6279,-0.1988,-0.6194
0.005,-0.032,0.019,38.1,25.4,65.9,0,2018,5,17,20,45,22.043,0.4215,-0.628,-0.2096,-0.6196
-0.069,0.052,-0.003,42.5,19.7,64.6,0,2018,5,17,20,45,22.066,0.4153,-0.6281,-0.2225,-0.6191
-0.01,0.15,-0.023,39.6,21.6,65.4,0,2018,5,17,20,45,22.084,0.4088,-0.6286,-0.2349,-0.6184
0.028,0.033,0.019,40.2,20.5,68.9,0,2018,5,17,20,45,22.107,0.4022,-0.6284,-0.2476,-0.618
-0.026,-0.029,-0.085,40.2,16.6,70.3,0,2018,5,17,20,45,22.125,0.3949,-0.6284,-0.2599,-0.6176
-0.07,0.016,-0.096,36.4,25.2,68.7,0,2018,5,17,20,45,22.149,0.3877,-0.6285,-0.2725,-0.6166
-0.008,0.031,0.112,38.3,30.2,66,0,2018,5,17,20,45,22.164,0.382,-0.6268,-0.2856,-0.616
0.068,0.034,-0.072,39.2,32.8,65.8,0,2018,5,17,20,45,22.187,0.3763,-0.6251,-0.2986,-0.6151
-0.179,-0.151,-0.1,33.5,30.8,68.5,0,2018,5,17,20,45,22.206,0.3702,-0.6245,-0.3112,-0.6131
-0.06,0.034,-0.031,32,33.9,67.5,1023,2018,5,17,20,45,22.228,0.3648,-0.6225,-0.3245,-0.6115
-0.032,-0.059,-0.048,36.8,40.9,71.6,1023,2018,5,17,20,45,22.243,0.3594,-0.6199,-0.3379,-0.6101
-0.039,-0.053,0.04,37.4,43.2,80.4,1023,2018,5,17,20,45,22.28,0.3537,-0.6163,-0.3529,-0.6086
0.016,-0.219,0.013,42.8,51.6,88,1023,2018,5,17,20,45,22.303,0.3478,-0.6128,-0.3684,-0.6063
-0.048,-0.236,0.008,58.4,75.7,98.6,1023,2018,5,17,20,45,22.308,0.3414,-0.6082,-0.3882,-0.6022
-0.062,-0.043,-0.025,64.9,95.8,106,1023,2018,5,17,20,45,22.344,0.3355,-0.6027,-0.4115,-0.5955
0.085,-0.083,0.032,76.1,104.1,109.6,1023,2018,5,17,20,45,22.365,0.33,-0.5956,-0.4373,-0.5873
0.033,-0.083,-0.034,70.2,102.2,115.2,1023,2018,5,17,20,45,22.369,0.3242,-0.5883,-0.4633,-0.5779
0.08,-0.05,-0.071,76.5,119.8,115.2,1023,2018,5,17,20,45,22.388,0.318,-0.5801,-0.4905,-0.5671
0.068,0.042,-0.167,77.7,123,115.8,1023,2018,5,17,20,45,22.408,0.312,-0.571,-0.5188,-0.5543
0.004,0.01,-0.169,71.2,96.7,113.3,1023,2018,5,17,20,45,22.431,0.3048,-0.562,-0.5441,-0.5432
0.015,0.11,-0.077,66.1,94.4,102.8,1023,2018,5,17,20,45,22.449,0.2967,-0.5529,-0.5681,-0.5323
-0.087,-0.023,0.078,66,78.5,99.2,1023,2018,5,17,20,45,22.472,0.2888,-0.5442,-0.5888,-0.523
-0.237,-0.175,0.087,69.1,88.4,101,1023,2018,5,17,20,45,22.491,0.2806,-0.5358,-0.6088,-0.5131
-0.277,-0.081,0.002,64.3,95.9,94.8,1023,2018,5,17,20,45,22.508,0.2733,-0.5265,-0.6296,-0.5015
-0.075,-0.136,-0.184,76.2,142.7,106.3,1023,2018,5,17,20,45,22.529,0.2676,-0.5165,-0.6505,-0.4882
-0.271,0.274,0.309,59.1,79.1,74.6,0,2018,5,17,20,45,22.569,0.2635,-0.5052,-0.6729,-0.4716
-0.255,-0.007,0.134,40,-66.8,-6.9,0,2018,5,17,20,45,22.569,0.2544,-0.5058,-0.6781,-0.4684
-0.057,-0.038,-0.053,27.3,-192.7,-87.3,0,2018,5,17,20,45,22.591,0.2428,-0.5207,-0.6639,-0.4785
-0.032,-0.003,0.006,-4,-260.1,-116,0,2018,5,17,20,45,22.609,0.2292,-0.5435,-0.6343,-0.4995
-0.052,0.163,0.22,-48.8,-312.6,-130,0,2018,5,17,20,45,22.628,0.2158,-0.5655,-0.5956,-0.528
-0.074,0.441,0.201,-97.7,-418.7,-147.7,0,2018,5,17,20,45,22.651,0.1994,-0.5852,-0.5443,-0.5669
0.096,0.249,-0.158,-118,-528,-185.1,0,2018,5,17,20,45,22.668,0.1763,-0.6046,-0.4732,-0.6159
0.254,-0.205,-0.286,-93,-513.3,-185.2,0,2018,5,17,20,45,22.691,0.1482,-0.6217,-0.3903,-0.6626
0.223,-0.676,-0.57,-42.1,-324.4,-146.1,0,2018,5,17,20,45,22.709,0.1249,-0.6347,-0.3205,-0.6918
0.061,-0.481,-0.474,-12.4,-109.5,-114.2,0,2018,5,17,20,45,22.732,0.119,-0.6428,-0.2814,-0.7024
0.049,0.016,-0.25,-18,-67.6,-110.6,0,2018,5,17,20,45,22.769,0.1246,-0.6479,-0.2596,-0.705
0.163,0.075,-0.09,-13.2,-101.3,-101.4,0,2018,5,17,20,45,22.792,0.1281,-0.6522,-0.2366,-0.7085
0.186,-0.117,-0.133,12.8,-77.9,-94.1,0,2018,5,17,20,45,22.797,0.1295,-0.6585,-0.2139,-0.7097
0.063,-0.07,-0.019,32.5,-46.1,-102.2,0,2018,5,17,20,45,22.81,0.134,-0.6665,-0.1951,-0.7069
0.175,0.064,-0.126,46,-8.6,-107.1,1023,2018,5,17,20,45,22.847,0.1437,-0.6759,-0.1805,-0.6998
0.125,0.475,0.106,36.9,-35.9,-71.4,1023,2018,5,17,20,45,22.869,0.1511,-0.6843,-0.1687,-0.693
0.204,0.498,0.299,20.4,-70.6,-17.3,1023,2018,5,17,20,45,22.874,0.1492,-0.6907,-0.1569,-0.6899
0.217,0.699,0.477,-0.4,-34.1,30.2,1023,2018,5,17,20,45,22.891,0.1411,-0.6927,-0.1519,-0.6907
0.058,0.994,0.663,-33.1,-44.6,57.8,1023,2018,5,17,20,45,22.91,0.1334,-0.6905,-0.1531,-0.6942
0.129,0.474,0.445,-52.2,-10.1,94.1,1023,2018,5,17,20,45,22.934,0.1204,-0.6837,-0.156,-0.7025
-0.022,-0.083,-0.235,-45.1,134.2,136,1023,2018,5,17,20,45,22.95,0.1154,-0.673,-0.1766,-0.7088
-0.094,-0.029,-0.292,-59.9,190.2,145.1,1023,2018,5,17,20,45,22.973,0.12,-0.6578,-0.2149,-0.7117
-0.082,0.554,-0.153,-57.5,10.9,70.3,1023,2018,5,17,20,45,22.992,0.1222,-0.643,-0.241,-0.7165
-0.252,0.265,-0.085,-69.8,-32.7,66.6,1023,2018,5,17,20,45,23.015,0.1132,-0.6331,-0.242,-0.7264
-0.242,0.145,0.079,-71.3,-7.6,57.3,1023,2018,5,17,20,45,23.033,0.1063,-0.6208,-0.2464,-0.7365
-0.052,-0.274,-0.231,-45.3,-7.3,30.2,1023,2018,5,17,20,45,23.056,0.1025,-0.6109,-0.2488,-0.7445
-0.103,-0.015,0.219,-18.2,-19.3,26.7,1023,2018,5,17,20,45,23.074,0.0988,-0.6059,-0.2482,-0.7492
-0.153,0.134,0.539,3.5,2,31.1,1023,2018,5,17,20,45,23.097,0.0951,-0.604,-0.2505,-0.7505
-0.019,0.035,0.511,14.2,-3.8,22.7,1023,2018,5,17,20,45,23.114,0.0913,-0.604,-0.2534,-0.75
0.011,0.006,0.257,22.8,-31.2,16.1,0,2018,5,17,20,45,23.151,0.0862,-0.6061,-0.2531,-0.749
-0.073,-0.103,0.049,24.6,-39.3,11.9,0,2018,5,17,20,45,23.174,0.0799,-0.609,-0.2499,-0.7484
-0.189,-0.09,-0.089,20.8,-45.8,8.2,0,2018,5,17,20,45,23.179,0.0742,-0.6125,-0.2446,-0.7479
-0.166,-0.039,-0.123,16.7,-32.6,-1.1,0,2018,5,17,20,45,23.196,0.0691,-0.615,-0.2401,-0.7478
-0.167,0.218,-0.221,17.9,-21.3,-16,0,2018,5,17,20,45,23.214,0.0667,-0.618,-0.2353,-0.7471
-0.013,0.292,0.07,-4.3,-35.4,-35.1,0,2018,5,17,20,45,23.237,0.068,-0.6192,-0.2301,-0.7476
0.054,0.287,-0.095,15.8,-87.1,-57,0,2018,5,17,20,45,23.255,0.068,-0.6224,-0.2169,-0.7488
0.025,0.144,-0.274,38.9,-103.1,-56.9,0,2018,5,17,20,45,23.278,0.064,-0.6293,-0.1974,-0.7489
0,0.148,-0.221,52.2,-94.5,-60.2,0,2018,5,17,20,45,23.296,0.0594,-0.6382,-0.1786,-0.7464
-0.08,0.154,-0.167,53.6,-68.2,-59.2,0,2018,5,17,20,45,23.32,0.057,-0.6477,-0.1616,-0.7422
-0.149,0.132,-0.154,50.5,-60.8,-62.4,0,2018,5,17,20,45,23.334,0.0567,-0.6565,-0.1471,-0.7375
-0.166,0.053,-0.143,55.3,-71.9,-85.3,0,2018,5,17,20,45,23.371,0.0577,-0.6659,-0.1309,-0.7321
-0.167,0.109,-0.124,62.1,-105.3,-118.3,0,2018,5,17,20,45,23.391,0.0594,-0.6769,-0.1085,-0.7255
-0.155,0.124,-0.063,67,-145.3,-147,0,2018,5,17,20,45,23.396,0.06,-0.6889,-0.0775,-0.7181
-0.225,0.096,-0.059,71.7,-169.3,-162.2,0,2018,5,17,20,45,23.414,0.0592,-0.701,-0.04,-0.7095
-0.181,-0.005,-0.044,79.1,-169.9,-171.8,1023,2018,5,17,20,45,23.438,0.0582,-0.7129,0.0007,-0.6987
-0.137,-0.026,-0.022,79.9,-152.2,-174.9,1023,2018,5,17,20,45,23.457,0.0597,-0.7237,0.0413,-0.6861
-0.078,0.007,-0.016,68.7,-128.5,-174,1023,2018,5,17,20,45,23.481,0.0638,-0.7323,0.0794,-0.6732
-0.025,0.051,0.046,55.3,-106.1,-169.2,1023,2018,5,17,20,45,23.497,0.0697,-0.7378,0.1141,-0.6615
-0.005,0.058,0.12,41.3,-77.6,-162.1,1023,2018,5,17,20,45,23.52,0.0776,-0.7403,0.1449,-0.6517
-0.019,0.102,0.165,28,-44.7,-156.6,1023,2018,5,17,20,45,23.538,0.089,-0.7407,0.1718,-0.6432
0.021,0.198,0.131,11.1,-18.3,-152.6,1023,2018,5,17,20,45,23.561,0.103,-0.7384,0.1947,-0.6372
0.046,0.291,0.08,-8.8,-10.3,-146.5,1023,2018,5,17,20,45,23.577,0.118,-0.7334,0.2154,-0.6338
0.049,0.352,0.035,-28.1,-19.1,-137.5,1023,2018,5,17,20,45,23.595,0.131,-0.726,0.2354,-0.6327
0.016,0.394,0.006,-45,-40,-127.3,1023,2018,5,17,20,45,23.619,0.1399,-0.7169,0.2561,-0.633
-0.009,0.431,-0.022,-61.2,-62.7,-115.5,1023,2018,5,17,20,45,23.638,0.1441,-0.7065,0.2783,-0.6343
0.018,0.475,-0.026,-76,-80.4,-101.2,1023,2018,5,17,20,45,23.656,0.1437,-0.6952,0.3013,-0.6364
-0.017,0.509,-0.041,-84.1,-95.1,-85.2,1023,2018,5,17,20,45,23.679,0.1391,-0.6833,0.3243,-0.639
-0.095,0.514,-0.083,-88,-108,-70.4,1023,2018,5,17,20,45,23.697,0.1306,-0.6716,0.3469,-0.6414
-0.103,0.501,-0.094,-92.1,-117.9,-55.7,1023,2018,5,17,20,45,23.72,0.1188,-0.66,0.3689,-0.6435
-0.086,0.484,-0.075,-93.3,-121.9,-39.6,0,2018,5,17,20,45,23.738,0.104,-0.6487,0.3897,-0.6452
-0.118,0.455,-0.038,-91.9,-121.5,-23.9,0,2018,5,17,20,45,23.761,0.0875,-0.6381,0.4086,-0.6466
-0.11,0.451,-0.066,-92.3,-116.8,-9.4,0,2018,5,17,20,45,23.782,0.0696,-0.6283,0.4251,-0.6477
-0.092,0.465,-0.09,-96.1,-112.2,2.6,0,2018,5,17,20,45,23.8,0.0507,-0.6186,0.4394,-0.6492
-0.093,0.464,-0.102,-98.5,-110.5,12.6,0,2018,5,17,20,45,23.823,0.0306,-0.6091,0.4519,-0.6509
-0.066,0.443,-0.12,-103.4,-109.7,20.5,0,2018,5,17,20,45,23.839,0.0092,-0.5994,0.4631,-0.6527
-0.025,0.367,-0.04,-106,-105.2,29.5,0,2018,5,17,20,45,23.876,-0.0132,-0.5894,0.4728,-0.6547
-0.039,0.246,0.097,-102.1,-91.7,43.6,0,2018,5,17,20,45,23.897,-0.0361,-0.5801,0.4801,-0.6568
-0.141,0.216,0.042,-104,-65.6,60.7,0,2018,5,17,20,45,23.902,-0.0582,-0.5723,0.4831,-0.66
-0.259,0.292,-0.053,-114.3,-56.6,73.9,0,2018,5,17,20,45,23.919,-0.0808,-0.5648,0.4819,-0.6649
-0.27,0.322,-0.161,-129.7,-67.5,81.9,0,2018,5,17,20,45,23.942,-0.1058,-0.5563,0.4795,-0.6703
-0.351,0.363,-0.214,-145,-92.4,76.5,0,2018,5,17,20,45,23.963,-0.1344,-0.5452,0.4783,-0.6751
-0.361,0.202,-0.136,-158.3,-128.2,68.3,0,2018,5,17,20,45,23.98,-0.1658,-0.5302,0.4805,-0.6785
-0.353,0.013,-0.19,-149.8,-173.3,73.3,0,2018,5,17,20,45,24.002,-0.2008,-0.513,0.4873,-0.6774
-0.376,-0.016,-0.284,-151.6,-210.5,79.5,0,2018,5,17,20,45,24.022,-0.2397,-0.4946,0.4976,-0.6709
-0.313,-0.138,-0.266,-158.9,-230.5,86.6,1023,2018,5,17,20,45,24.042,-0.2816,-0.4738,0.5095,-0.6607
-0.221,-0.212,-0.214,-154.2,-239.1,90.3,1023,2018,5,17,20,45,24.082,-0.3249,-0.4514,0.5207,-0.6476
-0.144,-0.212,-0.216,-141.7,-259.1,81.7,1023,2018,5,17,20,45,24.085,-0.3673,-0.4279,0.5327,-0.6309
-0.003,-0.288,-0.255,-130.6,-270.3,57.2,1023,2018,5,17,20,45,24.1,-0.4069,-0.4017,0.5474,-0.6109
0.094,-0.303,-0.294,-117,-266.3,32.6,1023,2018,5,17,20,45,24.14,-0.4418,-0.3731,0.5634,-0.59
0.143,-0.255,-0.319,-99,-243.8,13.5,1023,2018,5,17,20,45,24.142,-0.4705,-0.3442,0.5795,-0.5694
0.17,-0.224,-0.317,-74.6,-197.7,8.2,1023,2018,5,17,20,45,24.159,-0.4928,-0.3183,0.5935,-0.5508
0.193,-0.173,-0.301,-46.2,-131.5,15.8,1023,2018,5,17,20,45,24.181,-0.5087,-0.2999,0.6034,-0.5357
0.194,-0.139,-0.279,-20.7,-57.2,30.9,1023,2018,5,17,20,45,24.218,-0.5188,-0.2913,0.608,-0.5254
0.197,-0.039,-0.314,-0.2,-1.3,43.5,1023,2018,5,17,20,45,24.241,-0.5244,-0.2926,0.6076,-0.5196
0.188,-0.012,-0.373,9.2,29.1,45,1023,2018,5,17,20,45,24.245,-0.527,-0.2995,0.6045,-0.5167
0.148,-0.079,-0.431,11.9,59,39.4,1023,2018,5,17,20,45,24.279,-0.527,-0.3093,0.5993,-0.517
0.125,-0.103,-0.408,12.5,73.1,42.5,1023,2018,5,17,20,45,24.302,-0.5255,-0.3209,0.5922,-0.5196
0.157,-0.107,-0.372,10.8,74,51.5,1023,2018,5,17,20,45,24.307,-0.5242,-0.3338,0.5838,-0.5222
0.151,-0.082,-0.337,8.7,60.3,64.1,0,2018,5,17,20,45,24.323,-0.5244,-0.3468,0.5751,-0.5232
0.129,-0.07,-0.345,13.3,39.5,73.2,0,2018,5,17,20,45,24.346,-0.5266,-0.3593,0.5673,-0.5211
0.107,-0.085,-0.345,21,10.1,75.2,0,2018,5,17,20,45,24.363,-0.5299,-0.3708,0.5619,-0.5155
0.097,-0.138,-0.345,26.2,-16.4,70,0,2018,5,17,20,45,24.401,-0.5344,-0.3796,0.5599,-0.5066
0.102,-0.244,-0.309,27.1,-28.3,58.7,0,2018,5,17,20,45,24.401,-0.5391,-0.386,0.5601,-0.4964
0.104,-0.3,-0.254,33.3,-28.8,45.8,0,2018,5,17,20,45,24.423,-0.5426,-0.391,0.5618,-0.4867
0.136,-0.269,-0.229,43.5,-50.5,21.9,0,2018,5,17,20,45,24.461,-0.5441,-0.394,0.5665,-0.477
0.117,-0.243,-0.22,54.2,-77.9,5,0,2018,5,17,20,45,24.484,-0.5447,-0.3933,0.5756,-0.4659
0.094,-0.292,-0.203,64.2,-93.7,-11.5,0,2018,5,17,20,45,24.489,-0.5442,-0.3894,0.5887,-0.4533
0.065,-0.317,-0.165,72.9,-95.7,-22.1,0,2018,5,17,20,45,24.505,-0.542,-0.3841,0.6038,-0.4404
0.027,-0.275,-0.13,78,-104.1,-33.3,0,2018,5,17,20,45,24.525,-0.5384,-0.3774,0.6204,-0.4274
0.001,-0.386,-0.064,81.7,-102.2,-36.3,0,2018,5,17,20,45,24.563,-0.5339,-0.3694,0.6379,-0.4139
-0.013,-0.409,0.056,86.9,-61.4,-30.2,0,2018,5,17,20,45,24.586,-0.5273,-0.364,0.6537,-0.4024
-0.142,-0.372,0.237,96.1,-2.6,-21.7,0,2018,5,17,20,45,24.59,-0.5167,-0.3646,0.666,-0.3954
-0.898,-0.372,1.966,16.4,204,46.4,0,2018,5,17,20,45,24.604,-0.5016,-0.3791,0.6662,-0.4008
-0.089,0.428,1.602,-76.1,186.4,56.6,0,2018,5,17,20,45,24.622,-0.4968,-0.3993,0.643,-0.4244
-0.02,0.301,0.962,-31.9,116.8,41.5,1023,2018,5,17,20,45,24.645,-0.4963,-0.4139,0.623,-0.4405
-0.058,0.006,0.434,9.8,81.1,23.6,1023,2018,5,17,20,45,24.663,-0.4932,-0.4243,0.6127,-0.4484
-0.158,-0.264,-0.04,31.2,57.6,-0.8,1023,2018,5,17,20,45,24.686,-0.4864,-0.4333,0.6082,-0.4533
-0.327,-0.41,-0.218,33.6,27.5,-6.4,1023,2018,5,17,20,45,24.722,-0.4793,-0.4387,0.6084,-0.4555
-0.195,-0.18,-0.216,11.3,24.1,-4.7,1023,2018,5,17,20,45,24.745,-0.4747,-0.4422,0.6085,-0.4569
-0.119,-0.142,-0.189,-4.3,21.7,-21,1023,2018,5,17,20,45,24.75,-0.4717,-0.4428,0.6078,-0.4602
-0.074,-0.12,-0.153,-15.5,26.9,-29.3,1023,2018,5,17,20,45,24.767,-0.4688,-0.4412,0.6071,-0.4656
0.017,-0.043,-0.151,-27.4,31.4,-38.3,1023,2018,5,17,20,45,24.788,-0.4661,-0.4382,0.6054,-0.4733
0.103,0.003,-0.174,-32.1,27.5,-47.2,1023,2018,5,17,20,45,24.826,-0.4634,-0.4335,0.6038,-0.4823
0.155,0.069,-0.163,-30.5,18.2,-52.3,1023,2018,5,17,20,45,24.848,-0.4608,-0.4274,0.603,-0.4912
0.147,0.1,-0.17,-25.7,5.8,-52.8,1023,2018,5,17,20,45,24.853,-0.4583,-0.4203,0.6036,-0.4987
0.067,0.149,-0.274,-23.9,-6,-48.5,1023,2018,5,17,20,45,24.869,-0.4565,-0.4127,0.6054,-0.5045
0.077,0.206,-0.322,-22.1,-24.1,-44.7,1023,2018,5,17,20,45,24.892,-0.4559,-0.4045,0.6081,-0.5084
0.096,0.235,-0.322,-17.8,-48.9,-38.4,0,2018,5,17,20,45,24.908,-0.4569,-0.3954,0.6128,-0.5092
0.068,0.203,-0.313,-10.4,-67.6,-28,0,2018,5,17,20,45,24.927,-0.4595,-0.3859,0.6192,-0.5063
0.054,0.172,-0.308,-2.9,-75.1,-14.4,0,2018,5,17,20,45,24.95,-0.4631,-0.3772,0.6265,-0.5006
0.036,0.137,-0.285,5.5,-71.1,-1.2,0,2018,5,17,20,45,24.968,-0.4672,-0.3705,0.6335,-0.4929
0.017,0.096,-0.271,13.2,-58.5,9.2,0,2018,5,17,20,45,24.991,-0.4708,-0.3663,0.6395,-0.4848
0.008,0.061,-0.246,19.1,-42.9,17.4,0,2018,5,17,20,45,25.007,-0.4734,-0.365,0.6442,-0.477
-0.002,0.019,-0.211,24.2,-26.4,23.7,0,2018,5,17,20,45,25.03,-0.4749,-0.3662,0.6474,-0.4701
0.012,-0.026,-0.182,27,-8.6,28.1,0,2018,5,17,20,45,25.048,-0.4754,-0.3696,0.6493,-0.4644
0.017,-0.031,-0.171,27.8,8.3,28.7,0,2018,5,17,20,45,25.072,-0.4747,-0.375,0.6496,-0.4604
0.017,-0.031,-0.162,24.7,20.8,23,0,2018,5,17,20,45,25.108,-0.4729,-0.3812,0.6488,-0.4582
0.045,-0.057,-0.146,18,27.7,15.1,0,2018,5,17,20,45,25.108,-0.4705,-0.3869,0.6472,-0.4582
0.064,-0.052,-0.097,15.9,24.7,8.7,0,2018,5,17,20,45,25.131,-0.4677,-0.3916,0.6456,-0.4592
0.011,-0.008,-0.085,18,9.4,2.7,0,2018,5,17,20,45,25.149,-0.4644,-0.3949,0.6458,-0.4595
-0.044,-0.008,-0.052,23.8,-11.2,-5.5,0,2018,5,17,20,45,25.185,-0.4618,-0.3965,0.648,-0.4576
-0.055,0.023,0.053,19.8,-46,-16.2,0,2018,5,17,20,45,25.207,-0.4608,-0.3947,0.6525,-0.4538
-0.163,-0.156,0.248,12.1,-68.1,-24.4,0,2018,5,17,20,45,25.212,-0.4618,-0.3885,0.6597,-0.4477
-0.147,-0.187,0.445,1.8,-48.6,-24,0,2018,5,17,20,45,25.246,-0.4631,-0.3812,0.6666,-0.4424
-0.153,-0.157,0.54,-6.9,-27.7,-20.8,1023,2018,5,17,20,45,25.269,-0.4643,-0.3752,0.6707,-0.4401
-0.135,-0.11,0.461,-14.2,-21.2,-13.3,1023,2018,5,17,20,45,25.273,-0.4656,-0.3705,0.6726,-0.4397
-0.083,-0.102,0.297,-21.2,-30.8,-4.9,1023,2018,5,17,20,45,25.291,-0.4689,-0.3658,0.6737,-0.4384
-0.012,-0.105,0.224,-18.1,-31.2,2.2,1023,2018,5,17,20,45,25.315,-0.4732,-0.3615,0.6745,-0.4362
0.063,-0.095,0.158,-4.6,-28.8,7.9,1023,2018,5,17,20,45,25.334,-0.4769,-0.3587,0.6755,-0.4329
0.103,-0.059,0.077,8.8,-23.3,10.8,1023,2018,5,17,20,45,25.349,-0.4791,-0.3576,0.6771,-0.4289
0.103,-0.046,0.016,17.9,-16.6,9.2,1023,2018,5,17,20,45,25.386,-0.4793,-0.3576,0.679,-0.4255
0.048,-0.061,-0.03,21.4,-2.4,6.1,1023,2018,5,17,20,45,25.409,-0.4777,-0.3588,0.6813,-0.4228
0.044,-0.047,-0.069,18.6,20.3,3,1023,2018,5,17,20,45,25.413,-0.4745,-0.3612,0.6824,-0.4224
0.022,-0.027,-0.104,10.7,43.9,1.3,1023,2018,5,17,20,45,25.43,-0.4702,-0.3651,0.6817,-0.4251
-0.001,0.003,-0.127,-0.1,62,1.5,1023,2018,5,17,20,45,25.452,-0.4656,-0.3702,0.6786,-0.4307
-0.014,0.032,-0.124,-9.1,70.9,3.4,1023,2018,5,17,20,45,25.471,-0.4616,-0.3758,0.6734,-0.4382
0.016,0.049,-0.106,-13.6,70,7.5,1023,2018,5,17,20,45,25.494,-0.4584,-0.3816,0.667,-0.4462
0.044,0.071,-0.103,-12.9,58.3,12,1023,2018,5,17,20,45,25.512,-0.4563,-0.3872,0.6605,-0.4532
0.057,0.09,-0.108,-9.6,37,14.2,1023,2018,5,17,20,45,25.535,-0.4556,-0.3914,0.6548,-0.4585
0.046,0.1,-0.122,-4.3,10.5,13.1,0,2018,5,17,20,45,25.553,-0.4561,-0.3942,0.6514,-0.4606
0.055,0.078,-0.125,1.9,-14.6,9.6,0,2018,5,17,20,45,25.576,-0.4574,-0.395,0.6507,-0.4595
0.067,0.031,-0.115,8.5,-29,7.1,0,2018,5,17,20,45,25.613,-0.4589,-0.3946,0.6527,-0.4555
0.059,0.002,-0.105,14.6,-33,5.3,0,2018,5,17,20,45,25.636,-0.4598,-0.3938,0.6563,-0.45
0.047,-0.024,-0.095,20.1,-27.5,4.1,0,2018,5,17,20,45,25.641,-0.4597,-0.3933,0.6605,-0.4445
0.02,-0.035,-0.1,24,-14.3,3.9,0,2018,5,17,20,45,25.655,-0.4583,-0.3937,0.6642,-0.44
0.018,-0.057,-0.073,26.9,2.1,4.4,0,2018,5,17,20,45,25.672,-0.4555,-0.3955,0.667,-0.4371
-0.001,-0.087,-0.034,30,22.4,6.2,0,2018,5,17,20,45,25.694,-0.4511,-0.3989,0.6684,-0.4363
0,-0.057,0.036,29.6,37.9,8.5,0,2018,5,17,20,45,25.712,-0.4459,-0.4039,0.6679,-0.4378
-0.037,-0.125,0.151,27.8,54.4,9.9,0,2018,5,17,20,45,25.735,-0.4403,-0.4102,0.666,-0.4406
-0.059,-0.107,0.247,25.4,75.5,10.8,0,2018,5,17,20,45,25.753,-0.4334,-0.4183,0.6622,-0.4456
-0.071,-0.105,0.322,20.3,92.1,10.1,0,2018,5,17,20,45,25.776,-0.4255,-0.4275,0.6564,-0.4529
-0.116,-0.073,0.342,9.6,102.7,9.6,0,2018,5,17,20,45,25.795,-0.4173,-0.4368,0.6489,-0.4624
-0.065,0.006,0.291,1.6,95.8,6.8,0,2018,5,17,20,45,25.817,-0.4099,-0.4452,0.6403,-0.4729
-0.026,0.083,0.224,0.3,69.5,0,1023,2018,5,17,20,45,25.838,-0.4037,-0.4514,0.6331,-0.4819
-0.019,0.069,0.161,1.6,42.7,-8.6,1023,2018,5,17,20,45,25.854,-0.399,-0.4547,0.6288,-0.4883
-0.025,0.059,0.077,2.1,23,-13,1023,2018,5,17,20,45,25.891,-0.3959,-0.4557,0.6267,-0.4926
-0.028,0.058,0.016,2,12.4,-15.7,1023,2018,5,17,20,45,25.914,-0.3937,-0.4556,0.6261,-0.4952
-0.043,0.067,-0.029,0.8,-1.3,-18.5,1023,2018,5,17,20,45,25.919,-0.3923,-0.4545,0.6267,-0.4966
-0.028,0.064,-0.034,-0.8,-11.1,-19.3,1023,2018,5,17,20,45,25.935,-0.3915,-0.4523,0.6287,-0.4966
-0.007,0.06,-0.042,-3.3,-14.8,-18.6,1023,2018,5,17,20,45,25.958,-0.3914,-0.4496,0.6313,-0.496
-0.001,0.075,-0.064,-5.8,-13.5,-16.1,1023,2018,5,17,20,45,25.975,-0.3917,-0.4468,0.6336,-0.4953
0.006,0.069,-0.07,-7.1,-10.3,-12.5,1023,2018,5,17,20,45,25.997,-0.3923,-0.4443,0.6354,-0.4947
0.015,0.07,-0.068,-6.3,-5.7,-7.2,1023,2018,5,17,20,45,26.035,-0.393,-0.4425,0.6365,-0.4943
0.029,0.071,-0.063,-4.4,-2.7,-2.1,1023,2018,5,17,20,45,26.035,-0.3938,-0.4417,0.6369,-0.4939
0.032,0.071,-0.057,-1.4,-2.5,2.1,1023,2018,5,17,20,45,26.059,-0.3945,-0.4417,0.637,-0.4932
0.029,0.067,-0.049,2.1,-4.6,4.5,1023,2018,5,17,20,45,26.095,-0.3952,-0.4424,0.6372,-0.4919
0.014,0.055,-0.042,5.2,-7.8,5.1,1023,2018,5,17,20,45,26.117,-0.3959,-0.4431,0.6377,-0.49
0.005,0.038,-0.032,7.7,-10.1,4.7,1023,2018,5,17,20,45,26.122,-0.3965,-0.4438,0.6386,-0.4877
0.001,0,-0.012,8.9,-7.6,3.8,1023,2018,5,17,20,45,26.138,-0.3968,-0.4444,0.6397,-0.4855
-0.001,-0.003,0.015,9.9,-1.9,3.2,1023,2018,5,17,20,45,26.161,-0.3965,-0.4453,0.6404,-0.484
-0.016,-0.02,0.054,9.8,3.6,1.9,0,2018,5,17,20,45,26.178,-0.3958,-0.4462,0.6407,-0.4834
-0.027,-0.024,0.096,9.4,11.4,1.6,0,2018,5,17,20,45,26.195,-0.3946,-0.4472,0.6402,-0.484
-0.031,-0.041,0.129,8,17,1.2,0,2018,5,17,20,45,26.218,-0.3932,-0.4484,0.6389,-0.4857
-0.054,-0.034,0.146,5.5,24,2.1,0,2018,5,17,20,45,26.236,-0.3911,-0.4505,0.6374,-0.4876
-0.052,-0.015,0.155,2.8,26.4,2.2,0,2018,5,17,20,45,26.259,-0.3891,-0.4526,0.635,-0.4903
-0.045,-0.003,0.153,0.6,23,2.1,0,2018,5,17,20,45,26.278,-0.3874,-0.4544,0.6325,-0.4931
-0.032,0.011,0.143,-0.8,18.1,1.6,0,2018,5,17,20,45,26.302,-0.3866,-0.4556,0.63,-0.4959
-0.022,0.022,0.118,-1,10.8,0.3,0,2018,5,17,20,45,26.321,-0.3864,-0.4562,0.6279,-0.4981
-0.016,0.025,0.088,-1.3,1.9,-1,0,2018,5,17,20,45,26.358,-0.3867,-0.4564,0.6267,-0.4993
-0.014,0.027,0.06,-1.9,-5.5,-1.9,0,2018,5,17,20,45,26.381,-0.3874,-0.4558,0.6264,-0.4995
-0.008,0.022,0.033,-2.5,-9.8,-2.2,0,2018,5,17,20,45,26.386,-0.3885,-0.4548,0.6269,-0.4991
-0.002,0.02,0.02,-3.3,-10.1,-1.9,1023,2018,5,17,20,45,26.399,-0.3897,-0.4536,0.6275,-0.4984
0.003,0.015,0.016,-3.8,-8,-0.8,1023,2018,5,17,20,45,26.435,-0.3909,-0.4525,0.6281,-0.4977
0.014,0.018,0.002,-4.2,-5.6,0.5,1023,2018,5,17,20,45,26.458,-0.3921,-0.4516,0.6283,-0.4973
0.021,0.02,-0.002,-4.1,-5.3,1.4,1023,2018,5,17,20,45,26.463,-0.3931,-0.4511,0.6284,-0.4968
0.026,0.021,0.005,-3.2,-6.8,2,1023,2018,5,17,20,45,26.479,-0.3941,-0.4508,0.6286,-0.4961
0.014,0.013,0,-2.3,-9.4,2.3,1023,2018,5,17,20,45,26.502,-0.3954,-0.4503,0.6289,-0.4952
0.014,0.003,0.005,-1.2,-10.5,3,1023,2018,5,17,20,45,26.537,-0.3967,-0.4496,0.6294,-0.494
0.008,-0.005,0.005,-0.1,-9.6,3.5,1023,2018,5,17,20,45,26.56,-0.3979,-0.4492,0.63,-0.4927
0,-0.021,0.008,0.5,-6.9,4.2,1023,2018,5,17,20,45,26.565,-0.3988,-0.449,0.6305,-0.4916
-0.005,-0.019,0.02,1.4,-3.6,4.9,1023,2018,5,17,20,45,26.583,-0.3995,-0.4491,0.6306,-0.4908
0.003,-0.03,0.034,2.5,0,5.3,1023,2018,5,17,20,45,26.601,-0.3998,-0.4495,0.6305,-0.4903
0.004,-0.033,0.046,3.7,3.9,5.3,1023,2018,5,17,20,45,26.624,-0.3997,-0.4503,0.6301,-0.4902
0.002,-0.036,0.062,3.9,7.5,4.9,1023,2018,5,17,20,45,26.642,-0.3992,-0.4513,0.6293,-0.4907
0,-0.031,0.065,3.5,8.1,3.6,1023,2018,5,17,20,45,26.665,-0.3986,-0.4522,0.6284,-0.4915
-0.004,-0.022,0.062,2.5,6.4,2.1,1023,2018,5,17,20,45,26.684,-0.3981,-0.453,0.6275,-0.4923
-0.006,-0.019,0.055,1.2,3.2,0.4,1023,2018,5,17,20,45,26.707,-0.3979,-0.4532,0.6269,-0.4931
-0.002,-0.012,0.045,0.5,1.6,-0.8,1023,2018,5,17,20,45,26.726,-0.3978,-0.4531,0.6266,-0.4936
-0.001,-0.005,0.036,0.2,0.5,-1.6,0,2018,5,17,20,45,26.742,-0.3977,-0.4528,0.6264,-0.4941
0.008,0.002,0.018,0.8,-1.2,-2.1,0,2018,5,17,20,45,26.761,-0.3977,-0.4521,0.6266,-0.4946
0.006,0.005,0.005,1.4,-1.2,-2.4,0,2018,5,17,20,45,26.781,-0.3975,-0.4518,0.627,-0.4945
0.006,0.006,0.006,1.9,0.3,-2.3,0,2018,5,17,20,45,26.82,-0.3972,-0.4517,0.6274,-0.4944
0.005,0.017,0,2.9,3.8,-0.3,0,2018,5,17,20,45,26.842,-0.3961,-0.4523,0.6275,-0.4946
0.005,0.017,0.006,3.3,3.3,0,0,2018,5,17,20,45,26.847,-0.3956,-0.4528,0.6273,-0.4947
-0.001,0.015,0.01,3.5,2.9,0.3,0,2018,5,17,20,45,26.865,-0.395,-0.4534,0.6272,-0.4947
0,0.016,0.006,3.2,2.5,-0.2,0,2018,5,17,20,45,26.883,-0.3945,-0.454,0.6272,-0.4946
-0.003,0.023,0.01,3.2,2,-1,0,2018,5,17,20,45,26.906,-0.3942,-0.4544,0.6271,-0.4946
-0.004,0.021,0.015,3.5,1.8,-1.5,0,2018,5,17,20,45,26.943,-0.3937,-0.4548,0.6272,-0.4945
-0.008,0.02,0.022,4,2.5,-0.7,0,2018,5,17,20,45,26.943,-0.3932,-0.4553,0.6273,-0.4944
-0.01,0.024,0.031,4.4,3,0.3,1023,2018,5,17,20,45,26.966,-0.3927,-0.4559,0.6271,-0.4944
-0.011,0.021,0.039,4.4,2.4,1.7,1023,2018,5,17,20,45,26.984,-0.3923,-0.4566,0.6269,-0.4943
-0.01,0.019,0.047,3.7,0.8,2.8,1023,2018,5,17,20,45,27.002,-0.3923,-0.4574,0.6265,-0.4941
-0.013,0.016,0.036,1.9,-1.3,3.7,1023,2018,5,17,20,45,27.025,-0.3926,-0.4579,0.6262,-0.4938
-0.007,0.008,0.03,0.2,-3.5,4.1,1023,2018,5,17,20,45,27.061,-0.3932,-0.4583,0.626,-0.4932
0.003,0.003,0.026,-0.8,-5.1,4.2,1023,2018,5,17,20,45,27.084,-0.3941,-0.4583,0.6259,-0.4926
0.003,-0.005,0.019,-1.1,-5.1,4.1,1023,2018,5,17,20,45,27.089,-0.395,-0.4583,0.6259,-0.4919
0.01,-0.011,0.01,-0.7,-3.1,4,1023,2018,5,17,20,45,27.105,-0.3958,-0.4584,0.6258,-0.4913
0.006,-0.011,0.003,-0.4,-1,3.3,1023,2018,5,17,20,45,27.127,-0.3963,-0.4585,0.6257,-0.491
0.005,-0.005,0,-0.3,0,2.3,1023,2018,5,17,20,45,27.165,-0.3965,-0.4587,0.6255,-0.4908
0.005,-0.002,-0.007,-0.5,-0.2,1.4,1023,2018,5,17,20,45,27.188,-0.3966,-0.4589,0.6255,-0.4906
0.01,-0.005,-0.009,-0.3,-1,1.1,1023,2018,5,17,20,45,27.193,-0.3967,-0.459,0.6255,-0.4904
0.011,-0.005,-0.01,0.5,-0.6,1,1023,2018,5,17,20,45,27.208,-0.3968,-0.4589,0.6256,-0.4903
0.006,-0.01,-0.004,1.4,0.3,0.6,1023,2018,5,17,20,45,27.231,-0.3966,-0.4591,0.6257,-0.49
0.01,-0.011,0.005,2.2,2.7,0,1023,2018,5,17,20,45,27.25,-0.3963,-0.4593,0.6258,-0.4901
0.007,-0.006,0.007,2.7,4.7,-0.2,0,2018,5,17,20,45,27.27,-0.3956,-0.4598,0.6257,-0.4903
0.009,0,0.015,2.9,6.4,0,0,2018,5,17,20,45,27.288,-0.3948,-0.4604,0.6254,-0.4908
0.004,0.004,0.026,3,6.1,0.3,0,2018,5,17,20,45,27.305,-0.3941,-0.461,0.6249,-0.4914
0.001,0.006,0.029,2.4,4.6,1,0,2018,5,17,20,45,27.328,-0.3936,-0.4616,0.6245,-0.4918
0.001,0.002,0.036,1.7,3.1,1.7,0,2018,5,17,20,45,27.346,-0.3933,-0.4622,0.624,-0.4921
0.001,-0.004,0.039,1.6,1.6,2.4,0,2018,5,17,20,45,27.37,-0.3933,-0.4625,0.6235,-0.4923
-0.001,0,0.034,1.4,-0.2,2.5,0,2018,5,17,20,45,27.388,-0.3935,-0.4628,0.6232,-0.4923
-0.001,-0.005,0.031,1.6,-1.4,3.1,0,2018,5,17,20,45,27.411,-0.3938,-0.463,0.623,-0.4921
0.014,-0.003,0.031,2.1,-2.1,4,0,2018,5,17,20,45,27.429,-0.3941,-0.4634,0.6229,-0.4917
0.028,-0.006,0.029,3.7,-2.4,5.4,0,2018,5,17,20,45,27.452,-0.3944,-0.4639,0.6229,-0.491
0.044,-0.015,0.021,4.2,0.2,7.1,0,2018,5,17,20,45,27.469,-0.3945,-0.4646,0.6228,-0.4903
0.043,-0.016,0.01,4.8,5,8.9,0,2018,5,17,20,45,27.487,-0.3943,-0.4659,0.6223,-0.4898
0.039,-0.023,0.012,4.7,9.2,10.7,0,2018,5,17,20,45,27.51,-0.3938,-0.4678,0.6213,-0.4897
0.023,-0.017,0.01,4.6,11.9,13.1,1023,2018,5,17,20,45,27.528,-0.3933,-0.4702,0.6198,-0.4898
-0.044,-0.014,-0.012,4,11,15.1,1023,2018,5,17,20,45,27.55,-0.3929,-0.4729,0.618,-0.4898
-0.034,-0.027,-0.025,3,12,17.7,1023,2018,5,17,20,45,27.569,-0.3928,-0.4757,0.616,-0.4895
-0.017,-0.044,-0.012,4.1,14.5,22,1023,2018,5,17,20,45,27.588,-0.3928,-0.479,0.6137,-0.4893
-0.005,-0.058,-0.007,6.5,20.2,26.5,1023,2018,5,17,20,45,27.611,-0.3926,-0.4831,0.6107,-0.4892
-0.015,-0.072,0.012,9,25.2,28.5,1023,2018,5,17,20,45,27.647,-0.3917,-0.4882,0.6072,-0.4893
-0.016,-0.07,0.016,8.8,26.4,27.7,1023,2018,5,17,20,45,27.67,-0.3905,-0.4934,0.6033,-0.4898
-0.029,-0.104,0.029,5.6,26.2,26.1,1023,2018,5,17,20,45,27.675,-0.3894,-0.4981,0.5994,-0.4906
-0.037,-0.131,0.041,1.6,30.7,27.1,1023,2018,5,17,20,45,27.69,-0.3885,-0.5024,0.5951,-0.4922
-0.024,-0.128,0.039,-1.1,37.1,28.8,1023,2018,5,17,20,45,27.713,-0.3873,-0.5071,0.59,-0.4946
-0.012,-0.123,0.034,-2.8,38.8,28.5,1023,2018,5,17,20,45,27.731,-0.386,-0.5118,0.5842,-0.4976
0.006,-0.125,0.034,-3.8,37.6,27.1,1023,2018,5,17,20,45,27.754,-0.3846,-0.5163,0.5785,-0.5006
0.028,-0.135,0.035,-4.7,36.9,24.6,1023,2018,5,17,20,45,27.772,-0.3833,-0.5203,0.573,-0.5039
0.033,-0.14,0.032,-4.9,37.7,21.3,1023,2018,5,17,20,45,27.795,-0.3817,-0.5242,0.5677,-0.507
0.036,-0.136,0.024,-6.1,40.1,17.1,1023,2018,5,17,20,45,27.811,-0.3796,-0.5275,0.5626,-0.5108
0.037,-0.137,0.018,-7.2,41.3,12.8,1023,2018,5,17,20,45,27.83,-0.3769,-0.5304,0.5577,-0.5151
0.038,-0.129,0.007,-8.3,42.7,9.1,0,2018,5,17,20,45,27.851,-0.3738,-0.533,0.553,-0.5199
0.036,-0.123,0.004,-8.9,43.4,5.4,0,2018,5,17,20,45,27.889,-0.3703,-0.5351,0.5484,-0.5249
0.039,-0.11,-0.001,-9,44.7,1.9,0,2018,5,17,20,45,27.913,-0.3664,-0.537,0.5441,-0.5302
0.027,-0.097,-0.015,-8.8,44.5,-1.2,0,2018,5,17,20,45,27.917,-0.3622,-0.5387,0.5399,-0.5356
0.01,-0.073,-0.031,-8.6,43,-5,0,2018,5,17,20,45,27.951,-0.3579,-0.5402,0.536,-0.5409
-0.001,-0.056,-0.043,-8.3,39.2,-8,0,2018,5,17,20,45,27.975,-0.3535,-0.5413,0.5327,-0.546
-0.014,-0.052,-0.05,-7.7,35.5,-8.8,0,2018,5,17,20,45,27.979,-0.3494,-0.5419,0.5299,-0.5507
-0.016,-0.045,-0.048,-6.7,33.9,-7.4,0,2018,5,17,20,45,27.995,-0.3455,-0.5426,0.5273,-0.5549
-0.022,-0.036,-0.06,-6.1,33.9,-4.9,0,2018,5,17,20,45,28.015,-0.3417,-0.5437,0.5246,-0.5588
-0.023,-0.039,-0.066,-5.7,33.5,-2.8,0,2018,5,17,20,45,28.032,-0.3381,-0.545,0.5217,-0.5624
-0.011,-0.036,-0.054,-4.4,33.3,-1.4,1023,2018,5,17,20,45,28.051,-0.3347,-0.5464,0.5188,-0.5658
-0.007,-0.046,-0.042,-0.8,35.9,0.7,1023,2018,5,17,20,45,28.074,-0.3311,-0.5482,0.5156,-0.569
-0.014,-0.064,-0.029,3.8,42.5,2.7,1023,2018,5,17,20,45,28.092,-0.3269,-0.5508,0.512,-0.5722
-0.021,-0.065,-0.009,8.4,49,4,1023,2018,5,17,20,45,28.115,-0.3218,-0.5542,0.5077,-0.5756
-0.029,-0.083,0.002,10.1,57.3,3.8,1023,2018,5,17,20,45,28.134,-0.3157,-0.5582,0.5028,-0.5794
-0.032,-0.078,0.007,10.1,64.1,2.7,1023,2018,5,17,20,45,28.156,-0.3086,-0.5626,0.4972,-0.5838
-0.032,-0.08,0.015,10,70.8,1,1023,2018,5,17,20,45,28.175,-0.3009,-0.5671,0.4909,-0.5888
-0.048,-0.075,0.016,10.5,77.6,-0.4,1023,2018,5,17,20,45,28.196,-0.2923,-0.5716,0.4839,-0.5945
-0.049,-0.069,0.011,10.2,83.5,-3.2,1023,2018,5,17,20,45,28.215,-0.2827,-0.5764,0.4764,-0.6006
-0.045,-0.047,-0.001,9.3,89.2,-6.6,1023,2018,5,17,20,45,28.238,-0.2723,-0.581,0.4684,-0.6072
-0.045,-0.024,-0.004,7.2,92.9,-10.8,1023,2018,5,17,20,45,28.275,-0.2613,-0.5854,0.46,-0.6142
-0.114,0.005,-0.026,4.4,91.1,-16.6,1023,2018,5,17,20,45,28.297,-0.2497,-0.5892,0.4517,-0.6215
-0.096,0.077,-0.081,-1.6,79,-27.3,1023,2018,5,17,20,45,28.302,-0.2386,-0.5918,0.4445,-0.6285
-0.075,0.126,-0.099,-7.2,57,-38.8,1023,2018,5,17,20,45,28.318,-0.2283,-0.5918,0.4402,-0.6354
-0.015,0.174,-0.096,-9.9,36.2,-47.5,1023,2018,5,17,20,45,28.341,-0.2194,-0.5892,0.4393,-0.6415
0.009,0.229,-0.074,-8.3,23.2,-50.5,1023,2018,5,17,20,45,28.357,-0.2115,-0.5855,0.4409,-0.6465
0.026,0.245,-0.064,-5.7,20,-47.9,1023,2018,5,17,20,45,28.375,-0.2042,-0.5816,0.4433,-0.6506
0.08,0.255,-0.062,-3.5,22.1,-40.4,1023,2018,5,17,20,45,28.399,-0.1973,-0.5784,0.4453,-0.6542
0.068,0.296,-0.069,-3.5,19,-33.6,1023,2018,5,17,20,45,28.432,-0.1912,-0.5759,0.4464,-0.6574
0.017,0.35,-0.091,-7.1,9.4,-28.9,1023,2018,5,17,20,45,28.455,-0.1864,-0.5735,0.4478,-0.66
-0.025,0.382,-0.096,-10.8,-3,-28.3,1023,2018,5,17,20,45,28.46,-0.1834,-0.5704,0.45,-0.6621
-0.056,0.4,-0.107,-13.5,-18.4,-28.4,1023,2018,5,17,20,45,28.478,-0.1821,-0.5664,0.4537,-0.6633
-0.065,0.403,-0.128,-13.9,-31.9,-25.4,1023,2018,5,17,20,45,28.5,-0.1824,-0.5618,0.4591,-0.6634
-0.068,0.358,-0.143,-13,-38,-17.8,1023,2018,5,17,20,45,28.518,-0.1844,-0.5574,0.465,-0.6625
-0.05,0.319,-0.149,-10,-37.1,-5.7,0,2018,5,17,20,45,28.541,-0.1876,-0.5539,0.4701,-0.6609
-0.038,0.296,-0.14,-4.6,-31.1,7.6,0,2018,5,17,20,45,28.559,-0.1916,-0.5521,0.4738,-0.6587
-0.024,0.254,-0.114,3.8,-18.5,19.6,0,2018,5,17,20,45,28.582,-0.1955,-0.5524,0.4753,-0.6562
-0.003,0.212,-0.085,13.8,-0.8,28.8,0,2018,5,17,20,45,28.6,-0.1983,-0.5552,0.4744,-0.6536
-0.003,0.172,-0.079,22.2,20.8,35.7,1023,2018,5,17,20,45,28.624,-0.1993,-0.5605,0.4708,-0.6514
0,0.147,-0.064,25.9,42.6,40.5,1023,2018,5,17,20,45,28.64,-0.1985,-0.5675,0.4642,-0.6503
0.023,0.126,-0.05,26.7,60.3,43.2,1023,2018,5,17,20,45,28.658,-0.196,-0.5759,0.4548,-0.6502
0.022,0.104,-0.039,24.2,72.4,39.7,1023,2018,5,17,20,45,28.681,-0.1927,-0.5851,0.4433,-0.651
0.014,0.061,-0.022,17.5,75,35.3,1023,2018,5,17,20,45,28.699,-0.1881,-0.5933,0.4314,-0.6529
0.019,0.028,0.04,7.8,78.7,35.5,1023,2018,5,17,20,45,28.722,-0.1834,-0.5999,0.4191,-0.6562
0.05,0.04,0.086,7.4,70.2,38.3,1023,2018,5,17,20,45,28.74,-0.1794,-0.6055,0.4064,-0.6602
0.054,0.024,0.1,15.8,48.1,39.1,1023,2018,5,17,20,45,28.763,-0.1771,-0.6109,0.3953,-0.6625
0.048,-0.042,0.106,25.9,28.1,39.1,1023,2018,5,17,20,45,28.781,-0.1762,-0.6166,0.3871,-0.6624
0.016,-0.152,0.237,28.7,-11.2,31.3,1023,2018,5,17,20,45,28.805,-0.177,-0.6228,0.3825,-0.6591
-0.013,-0.42,0.277,29.1,-73,13,1023,2018,5,17,20,45,28.823,-0.1821,-0.6262,0.3861,-0.6522
-0.045,-0.485,0.161,19.7,-112.6,-5.2,0,2018,5,17,20,45,28.859,-0.1914,-0.6262,0.3977,-0.6425
0.023,-0.347,0.087,11.8,-70.1,-18,0,2018,5,17,20,45,28.882,-0.1992,-0.6238,0.4103,-0.6346
0.09,-0.221,0.055,12.1,-4.8,-18.9,0,2018,5,17,20,45,28.887,-0.1999,-0.6225,0.4168,-0.6313
0.038,-0.274,0.034,15.2,71.4,-11.1,0,2018,5,17,20,45,28.899,-0.1935,-0.6239,0.4155,-0.6328
0.024,-0.125,-0.003,20.2,125.3,-0.2,0,2018,5,17,20,45,28.937,-0.1798,-0.6288,0.4053,-0.6385
-0.015,-0.049,-0.048,22.3,141.5,4.6,0,2018,5,17,20,45,28.96,-0.1629,-0.6355,0.391,-0.6454
-0.028,-0.008,-0.06,18,141.1,6.7,0,2018,5,17,20,45,28.965,-0.1461,-0.6423,0.375,-0.6522
-0.045,0.004,-0.075,13.2,136.3,6.5,0,2018,5,17,20,45,28.999,-0.1303,-0.6482,0.3588,-0.6587
-0.056,0.001,-0.087,8.8,132.2,5.8,0,2018,5,17,20,45,29.023,-0.1151,-0.6532,0.3429,-0.665
-0.074,0.004,-0.1,4.9,125.8,4.9,0,2018,5,17,20,45,29.027,-0.1007,-0.6573,0.3274,-0.6711
-0.053,0.035,-0.12,0.3,111.8,1.1,0,2018,5,17,20,45,29.044,-0.0872,-0.6605,0.3131,-0.6767
-0.01,0.064,-0.138,-2.5,89.1,-5.2,0,2018,5,17,20,45,29.067,-0.0754,-0.6618,0.3014,-0.6821
0.04,0.066,-0.15,-2.6,64.8,-12.2,0,2018,5,17,20,45,29.085,-0.0656,-0.662,0.2934,-0.6865
0.072,0.062,-0.161,-0.7,47.7,-17.9,0,2018,5,17,20,45,29.104,-0.0574,-0.6616,0.2885,-0.6896
0.094,0.074,-0.175,3.2,37,-22.6,0,2018,5,17,20,45,29.126,-0.0501,-0.6611,0.2859,-0.6918
0.088,0.086,-0.192,7.6,32.6,-25.9,0,2018,5,17,20,45,29.142,-0.0429,-0.6608,0.2846,-0.6931
0.046,0.098,-0.207,12.2,32.8,-28.3,0,2018,5,17,20,45,29.18,-0.0355,-0.6609,0.2839,-0.6937
0.015,0.118,-0.226,15.6,36.5,-29.1,1023,2018,5,17,20,45,29.182,-0.0274,-0.6613,0.2831,-0.694
-0.016,0.134,-0.235,16.5,42,-27.8,1023,2018,5,17,20,45,29.219,-0.0189,-0.662,0.2816,-0.6942
-0.06,0.152,-0.243,16.4,46.8,-24.4,1023,2018,5,17,20,45,29.242,-0.0102,-0.6627,0.2791,-0.6947
-0.122,0.173,-0.264,15.3,48.3,-19,1023,2018,5,17,20,45,29.247,-0.0014,-0.6636,0.2758,-0.6953
-0.135,0.194,-0.293,13.2,45.2,-12.1,1023,2018,5,17,20,45,29.284,0.0063,-0.6645,0.2718,-0.6959
-0.128,0.197,-0.296,10.8,39.4,-3,1023,2018,5,17,20,45,29.284,0.0126,-0.6656,0.2675,-0.6965
-0.096,0.192,-0.305,10.5,34.7,7.8,1023,2018,5,17,20,45,29.305,0.017,-0.6669,0.2627,-0.697
-0.049,0.182,-0.295,12.8,32.5,18.9,1023,2018,5,17,20,45,29.341,0.0195,-0.6687,0.257,-0.6973
-0.01,0.162,-0.283,18,35.2,29.2,1023,2018,5,17,20,45,29.365,0.021,-0.6715,0.2499,-0.6971
0.019,0.131,-0.265,25,43.4,37.3,1023,2018,5,17,20,45,29.369,0.0223,-0.6755,0.2411,-0.6964
0.056,0.097,-0.244,31.8,57.5,44.3,0,2018,5,17,20,45,29.405,0.0243,-0.6804,0.23,-0.6953
0.071,0.067,-0.217,37.7,74.5,50.5,0,2018,5,17,20,45,29.405,0.0279,-0.6862,0.2161,-0.6939
0.069,0.048,-0.178,42.2,89.6,54.5,0,2018,5,17,20,45,29.428,0.0327,-0.6926,0.1995,-0.6924
0.027,0.029,-0.172,44.6,98.2,55.4,0,2018,5,17,20,45,29.446,0.0388,-0.6991,0.181,-0.6906
0.03,0.043,-0.184,41.1,101.7,53.9,0,2018,5,17,20,45,29.465,0.0456,-0.7051,0.1618,-0.6888
0.017,0.036,-0.177,35.4,99.5,52.3,0,2018,5,17,20,45,29.488,0.0526,-0.7103,0.1428,-0.6872
-0.023,0.034,-0.136,29.4,98,53.3,0,2018,5,17,20,45,29.524,0.059,-0.7144,0.1241,-0.686
-0.075,0.044,-0.104,25.8,92.7,55.3,0,2018,5,17,20,45,29.547,0.0643,-0.7185,0.1052,-0.6844
-0.071,0.039,-0.102,22.8,83.7,56.1,0,2018,5,17,20,45,29.551,0.0683,-0.722,0.087,-0.6829
-0.069,-0.008,-0.098,23.6,74.8,57.6,0,2018,5,17,20,45,29.567,0.0712,-0.7252,0.07,-0.6811
-0.054,-0.077,-0.062,27.2,78.6,61.8,0,2018,5,17,20,45,29.59,0.074,-0.7284,0.0533,-0.6789
-0.046,-0.122,-0.012,35.4,95.8,64.4,0,2018,5,17,20,45,29.609,0.0781,-0.7316,0.0351,-0.6762
0.008,-0.122,0.019,41.9,122.9,61.7,0,2018,5,17,20,45,29.632,0.0853,-0.7348,0.0142,-0.6726
0.07,-0.11,0.069,46,157.4,54.9,0,2018,5,17,20,45,29.648,0.097,-0.7376,-0.0098,-0.668
0.055,-0.092,0.116,45,190.9,46.5,0,2018,5,17,20,45,29.667,0.1133,-0.7395,-0.0376,-0.6624
-0.012,-0.016,0.103,41,214.2,36.2,0,2018,5,17,20,45,29.69,0.1343,-0.7395,-0.0674,-0.6561
0.027,0.104,0.083,29.4,213.1,22,0,2018,5,17,20,45,29.708,0.1579,-0.7369,-0.0969,-0.65
0.053,0.169,0.058,17.8,187.8,10.2,0,2018,5,17,20,45,29.727,0.1814,-0.7332,-0.1224,-0.6437
0.024,0.263,0.07,6.5,149.2,3,0,2018,5,17,20,45,29.75,0.2018,-0.7288,-0.1424,-0.6385
-0.011,0.306,0.08,-1.4,107.2,-2.6,1023,2018,5,17,20,45,29.767,0.2179,-0.7244,-0.1566,-0.6349
0.008,0.383,0.052,-6.1,59.3,-4.7,1023,2018,5,17,20,45,29.79,0.2286,-0.7209,-0.1651,-0.6329
0.048,0.369,0.027,-9.4,19.8,-2.1,1023,2018,5,17,20,45,29.826,0.2339,-0.7187,-0.1684,-0.6327
0.031,0.319,0.075,-13.7,-4.4,5.9,1023,2018,5,17,20,45,29.849,0.2349,-0.7171,-0.1689,-0.634
0.03,0.424,0.049,-27.3,-35.5,13.6,1023,2018,5,17,20,45,29.853,0.2317,-0.7154,-0.1674,-0.6375
0.07,0.533,0.071,-43,-94,12.4,1023,2018,5,17,20,45,29.869,0.2227,-0.7136,-0.1604,-0.6444
0.078,0.399,0.052,-51.3,-137,12.7,1023,2018,5,17,20,45,29.886,0.2073,-0.7124,-0.1465,-0.6541
0.051,0.255,-0.002,-52,-138.1,23.8,1023,2018,5,17,20,45,29.909,0.189,-0.7109,-0.1308,-0.6646
0.006,0.266,-0.03,-52,-126.5,34.7,1023,2018,5,17,20,45,29.927,0.17,-0.7084,-0.1176,-0.6747
0,0.299,0.035,-57.4,-122.7,38.4,1023,2018,5,17,20,45,29.949,0.1512,-0.7047,-0.1059,-0.685
0,0.203,0.041,-57.7,-110.3,42.9,0,2018,5,17,20,45,29.987,0.1328,-0.6999,-0.0953,-0.6952
0.042,0.105,0.033,-48,-87.1,52.8,0,2018,5,17,20,45,30.01,0.1153,-0.6946,-0.0881,-0.7045
0.054,0.06,0.016,-36.4,-50.2,61.2,0,2018,5,17,20,45,30.014,0.1001,-0.6896,-0.0863,-0.712
0.014,0.057,0,-37.8,-18.6,62.4,0,2018,5,17,20,45,30.048,0.0888,-0.6846,-0.0895,-0.7179
0.015,0.039,0.06,-44.8,-1,54.9,0,2018,5,17,20,45,30.071,0.0807,-0.6783,-0.0954,-0.724
0.075,-0.088,0.2,-43.5,-2.4,44,0,2018,5,17,20,45,30.076,0.0753,-0.6711,-0.1005,-0.7305
0.134,-0.137,0.037,-41.9,3.8,43.8,0,2018,5,17,20,45,30.093,0.0706,-0.665,-0.1049,-0.736
0.12,-0.106,-0.049,-49.3,16.2,44.3,0,2018,5,17,20,45,30.109,0.0679,-0.6584,-0.1099,-0.7414
0.06,-0.097,-0.046,-51,31,43.6,0,2018,5,17,20,45,30.145,0.067,-0.651,-0.1167,-0.747
-0.014,-0.102,-0.044,-46.1,34.6,36.5,0,2018,5,17,20,45,30.166,0.0672,-0.6438,-0.1243,-0.7519
0.065,-0.2,-0.064,-37.1,43.9,26.3,0,2018,5,17,20,45,30.171,0.0686,-0.6374,-0.1317,-0.756
0.164,-0.193,-0.105,-28.8,69.9,17.5,0,2018,5,17,20,45,30.207,0.0731,-0.6318,-0.1415,-0.7585
0.1,-0.182,-0.094,-28.1,87.1,10.1,0,2018,5,17,20,45,30.23,0.0809,-0.6267,-0.1531,-0.7597
-0.076,-0.006,-0.158,-23,77.5,-1.1,0,2018,5,17,20,45,30.234,0.0901,-0.6223,-0.1648,-0.7598
-0.136,0.042,-0.211,-26,28.8,-35.3,0,2018,5,17,20,45,30.25,0.0991,-0.6191,-0.1696,-0.7602
-0.083,-0.128,-0.202,-27,-9.2,-48.7,0,2018,5,17,20,45,30.274,0.1067,-0.6168,-0.1646,-0.7622
0.02,-0.049,-0.265,-12.4,20.4,-36.3,1023,2018,5,17,20,45,30.294,0.1132,-0.6152,-0.1602,-0.7635
0.124,0.059,-0.604,19.2,61.5,-24.6,1023,2018,5,17,20,45,30.331,0.1219,-0.6153,-0.1624,-0.7616
-0.179,1.141,-0.699,70.8,34.8,19.1,1023,2018,5,17,20,45,30.353,0.1267,-0.6207,-0.1693,-0.7549
-0.781,0.548,0.119,19.4,21.3,3.8,1023,2018,5,17,20,45,30.357,0.1256,-0.6266,-0.1756,-0.7487
-0.275,0.627,0.17,-4.2,-0.6,-31.9,1023,2018,5,17,20,45,30.372,0.1294,-0.6267,-0.1752,-0.7481
0.092,0.091,0.079,-30.5,17,-33.5,1023,2018,5,17,20,45,30.39,0.1339,-0.6237,-0.1764,-0.7495
-0.238,-0.722,-0.274,25,34.2,-60.2,1023,2018,5,17,20,45,30.413,0.1439,-0.6273,-0.1738,-0.7453
-0.005,-0.232,0.566,31.8,4,-33.5,1023,2018,5,17,20,45,30.431,0.1502,-0.6308,-0.1722,-0.7414
-0.053,-0.248,0.025,57.9,-10.5,-32.8,1023,2018,5,17,20,45,30.454,0.1528,-0.6382,-0.1685,-0.7354
-0.052,0.031,-0.02,60.2,-9.5,-24.5,1023,2018,5,17,20,45,30.49,0.1537,-0.647,-0.1657,-0.7281
-0.038,0.24,-0.079,60.7,-5.2,-28.8,1023,2018,5,17,20,45,30.513,0.1542,-0.6556,-0.1636,-0.7208
-0.002,0.136,-0.149,55.3,5.1,-33.8,1023,2018,5,17,20,45,30.518,0.1568,-0.6639,-0.1612,-0.7131
0.096,0.031,-0.102,43.8,30.2,-24.2,0,2018,5,17,20,45,30.538,0.1609,-0.6708,-0.1616,-0.7056
0.078,0.047,-0.253,28.6,29.9,-19.9,0,2018,5,17,20,45,30.555,0.1668,-0.6751,-0.1645,-0.6995
0.132,0.033,-0.167,18.3,-2.4,-20,0,2018,5,17,20,45,30.578,0.1699,-0.6781,-0.1641,-0.6959
0.096,0.041,-0.121,15,-6.9,-19.2,0,2018,5,17,20,45,30.594,0.1708,-0.6816,-0.1618,-0.6927
-0.026,0.067,-0.034,16.6,-0.5,-21.7,0,2018,5,17,20,45,30.617,0.172,-0.6847,-0.16,-0.6897
-0.05,0.063,0.105,19,-6.1,-29.9,0,2018,5,17,20,45,30.633,0.1742,-0.6871,-0.1576,-0.6874
0.005,0.033,0.119,27.5,-14.3,-39.6,0,2018,5,17,20,45,30.652,0.1766,-0.6906,-0.1528,-0.6844
0.012,-0.086,-0.006,33.4,-12.3,-37.9,0,2018,5,17,20,45,30.675,0.1795,-0.6955,-0.1469,-0.6799
0.006,-0.11,0.018,38.9,-1.6,-28.2,0,2018,5,17,20,45,30.712,0.1824,-0.701,-0.1424,-0.6745
-0.022,0.041,-0.046,41.6,8.2,-23.2,0,2018,5,17,20,45,30.735,0.1849,-0.7064,-0.1411,-0.6684
-0.014,0.143,-0.03,41.2,12.5,-28.8,0,2018,5,17,20,45,30.74,0.1877,-0.7115,-0.1413,-0.6621
-0.029,0.04,-0.112,35.1,8.2,-35.5,0,2018,5,17,20,45,30.756,0.1916,-0.7166,-0.1401,-0.6557
0.047,0.046,-0.079,28.6,12.3,-41.1,0,2018,5,17,20,45,30.779,0.1964,-0.7211,-0.138,-0.6498
-0.022,0.046,-0.12,22.4,5.5,-48.9,0,2018,5,17,20,45,30.796,0.2015,-0.7253,-0.1346,-0.6442
-0.052,0.081,-0.042,14,4.2,-56.3,0,2018,5,17,20,45,30.82,0.2073,-0.7286,-0.1292,-0.6397
-0.055,0.112,-0.028,10.9,-5.8,-68.9,0,2018,5,17,20,45,30.837,0.2132,-0.7311,-0.1226,-0.6362
-0.011,0,-0.037,9.9,-10.7,-77.1,0,2018,5,17,20,45,30.854,0.2197,-0.7343,-0.1128,-0.6322
-0.072,-0.063,-0.021,9.5,-13.4,-81.3,1023,2018,5,17,20,45,30.877,0.2271,-0.7375,-0.1016,-0.6277
0.025,-0.009,0.064,12.5,-11.8,-80.5,1023,2018,5,17,20,45,30.895,0.2346,-0.7401,-0.0897,-0.6237
0.073,0.05,-0.043,13.6,1,-78.8,1023,2018,5,17,20,45,30.918,0.2416,-0.7432,-0.0791,-0.6188
-0.031,-0.088,-0.119,7.4,1.1,-78.4,1023,2018,5,17,20,45,30.936,0.2498,-0.7459,-0.0698,-0.6133
-0.027,-0.044,0.016,3.6,-5.5,-76.7,1023,2018,5,17,20,45,30.959,0.258,-0.7475,-0.0596,-0.6091
-0.082,0.068,0.041,5.2,-20,-81.7,1023,2018,5,17,20,45,30.977,0.2646,-0.7489,-0.0481,-0.6055
-0.09,0.072,0.011,9.4,-25.8,-89.1,1023,2018,5,17,20,45,30.996,0.2698,-0.7512,-0.0353,-0.6012
-0.102,0.108,-0.019,9.6,-18.1,-88.5,1023,2018,5,17,20,45,31.016,0.2757,-0.7536,-0.0225,-0.5962
-0.159,0.059,-0.053,8.4,-7.2,-86.8,1023,2018,5,17,20,45,31.054,0.2823,-0.7557,-0.0109,-0.5908
-0.197,0.041,-0.003,6.7,-7.6,-86.7,1023,2018,5,17,20,45,31.078,0.2897,-0.7568,0.0003,-0.5858
-0.237,0.027,0.09,9.6,-6.6,-86.6,1023,2018,5,17,20,45,31.082,0.2976,-0.7576,0.0116,-0.5807
-0.195,0.058,0.075,14.3,-9,-88.8,1023,2018,5,17,20,45,31.098,0.3052,-0.759,0.0235,-0.5745
-0.317,0.192,0.042,27.4,23.5,-80.3,1023,2018,5,17,20,45,31.121,0.3139,-0.7608,0.0326,-0.5669
-0.24,0.072,0.105,24.9,59.1,-82,1023,2018,5,17,20,45,31.139,0.3277,-0.7604,0.0381,-0.5593
-0.22,0.108,0.183,29.1,78.8,-82.8,0,2018,5,17,20,45,31.162,0.3454,-0.7581,0.0402,-0.5515
-0.2,0.178,0.211,27.3,81.1,-83.1,0,2018,5,17,20,45,31.179,0.3638,-0.7555,0.0418,-0.5431
-0.13,0.007,-0.062,24.4,107.7,-84.3,0,2018,5,17,20,45,31.197,0.3829,-0.7516,0.0427,-0.5353
-0.05,0.113,-0.167,11.5,164.7,-67.7,0,2018,5,17,20,45,31.22,0.4066,-0.7437,0.0388,-0.5291
-0.026,0.15,-0.204,-0.4,241.6,-51.3,0,2018,5,17,20,45,31.238,0.4382,-0.7288,0.0272,-0.5253
0.034,0.267,-0.117,-1.9,297.7,-26.4,0,2018,5,17,20,45,31.261,0.4761,-0.7066,0.0071,-0.5233
0.001,0.37,-0.046,-1.4,317.8,-10.6,0,2018,5,17,20,45,31.279,0.5155,-0.6798,-0.0187,-0.5212
0.177,0.702,-0.026,-10.5,293,19.4,0,2018,5,17,20,45,31.303,0.5511,-0.6503,-0.0466,-0.5207
0.073,0.137,-0.097,-20.8,307.9,30.3,0,2018,5,17,20,45,31.32,0.581,-0.62,-0.0745,-0.5218
0.101,0.17,-0.172,-30.6,391,60.8,0,2018,5,17,20,45,31.342,0.6139,-0.5807,-0.1085,-0.5235
0.109,0.41,-0.244,-11.9,398.8,83.2,0,2018,5,17,20,45,31.358,0.6466,-0.5326,-0.1504,-0.5249
0.043,0.338,-0.198,3.4,333,83,0,2018,5,17,20,45,31.377,0.6718,-0.4873,-0.1914,-0.5238
-0.017,0.087,-0.209,11.1,264,78.8,0,2018,5,17,20,45,31.401,0.688,-0.4502,-0.2258,-0.5222
-0.016,0.003,-0.231,25.3,222.5,70.6,0,2018,5,17,20,45,31.421,0.6989,-0.4195,-0.2557,-0.5197
0.023,-0.1,-0.149,34.7,175,62.7,0,2018,5,17,20,45,31.439,0.7055,-0.3947,-0.2822,-0.5164
0.054,-0.098,-0.105,44.4,122.6,51.3,0,2018,5,17,20,45,31.462,0.7082,-0.3772,-0.3042,-0.5132
-0.011,-0.151,-0.016,39.8,67,43.9,1023,2018,5,17,20,45,31.498,0.7078,-0.3677,-0.3205,-0.5108
0.056,-0.176,-0.044,33.8,31.9,47.1,1023,2018,5,17,20,45,31.522,0.7047,-0.3624,-0.3322,-0.5113
0.142,-0.143,-0.055,37.4,-15.1,45.7,1023,2018,5,17,20,45,31.526,0.699,-0.3618,-0.3403,-0.5143
0.177,-0.244,0.07,38.5,-66.6,42.8,1023,2018,5,17,20,45,31.545,0.69,-0.3679,-0.3438,-0.5198
0.177,-0.252,0.133,47.6,-93.2,42.3,1023,2018,5,17,20,45,31.581,0.6782,-0.379,-0.3443,-0.527
0.117,-0.258,0.092,47.4,-107.9,38.4,1023,2018,5,17,20,45,31.604,0.6646,-0.3932,-0.3432,-0.5345
0.11,-0.188,0.231,36.9,-105.4,36.4,1023,2018,5,17,20,45,31.608,0.6509,-0.4073,-0.3406,-0.5424
0.186,-0.259,0.388,29.4,-97.5,23.8,1023,2018,5,17,20,45,31.625,0.6389,-0.4201,-0.3366,-0.5494
0.286,-0.199,0.44,34.3,-95.2,15.2,1023,2018,5,17,20,45,31.642,0.6283,-0.4321,-0.3325,-0.5547
0.306,-0.259,0.577,38.5,-113.8,-0.6,1023,2018,5,17,20,45,31.661,0.6172,-0.447,-0.3269,-0.5587
0.1,-0.554,0.752,9.4,-34.1,-11.5,1023,2018,5,17,20,45,31.684,0.6104,-0.4583,-0.3213,-0.5602
-0.013,-0.201,0.633,-23.2,-13,-21,1023,2018,5,17,20,45,31.7,0.6113,-0.4597,-0.3182,-0.56
-0.035,-0.037,0.192,-41,-14.9,-31,1023,2018,5,17,20,45,31.723,0.6147,-0.4593,-0.3109,-0.5607
-0.011,0.106,-0.044,-37.2,-53,-30.7,1023,2018,5,17,20,45,31.76,0.6173,-0.46,-0.301,-0.5626
-0.069,0.048,-0.127,-15.4,-49.7,-23.6,1023,2018,5,17,20,45,31.783,0.6164,-0.4653,-0.2912,-0.5644
-0.194,0.16,-0.143,-4.8,-10.4,-16.4,1023,2018,5,17,20,45,31.788,0.6165,-0.4685,-0.2857,-0.5645
-0.183,0.077,0.108,-12.2,-7.2,-15.7,1023,2018,5,17,20,45,31.803,0.6177,-0.4692,-0.2831,-0.564
-0.076,-0.096,0.09,-20.1,-0.7,-22.8,1023,2018,5,17,20,45,31.826,0.6204,-0.4682,-0.2791,-0.5637
0.026,-0.029,-0.024,-20.4,0,-26.8,1023,2018,5,17,20,45,31.843,0.6241,-0.4675,-0.2741,-0.5628
0.012,-0.064,0.033,-17.4,-5.5,-30.1,1023,2018,5,17,20,45,31.867,0.6276,-0.468,-0.2689,-0.5609
0.027,-0.277,-0.071,-17.4,-20.7,-39.2,1023,2018,5,17,20,45,31.885,0.6308,-0.4693,-0.2628,-0.5591
0.046,0.047,-0.015,-19.3,-9.1,-32.8,0,2018,5,17,20,45,31.908,0.634,-0.4706,-0.2566,-0.5572
0.084,0.05,0.026,-19.6,-11.4,-30,0,2018,5,17,20,45,31.945,0.6371,-0.4709,-0.251,-0.556
-0.039,-0.091,-0.025,-19.9,-10.8,-28.1,0,2018,5,17,20,45,31.945,0.6397,-0.4721,-0.245,-0.5547
-0.046,-0.05,0.042,-22.1,1,-30.4,0,2018,5,17,20,45,31.967,0.6431,-0.4722,-0.2393,-0.5531
0.073,0.073,-0.062,-22.9,-0.3,-33.1,0,2018,5,17,20,45,31.986,0.6471,-0.4715,-0.2343,-0.5512
0.073,0.027,-0.039,-21.3,-8.2,-27.7,0,2018,5,17,20,45,32.005,0.6505,-0.4707,-0.2293,-0.55
-0.058,0.035,0.06,-27.2,-21.5,-23.2,0,2018,5,17,20,45,32.023,0.6527,-0.471,-0.2232,-0.5497
-0.036,-0.098,0.072,-27.1,-13.4,-24.1,0,2018,5,17,20,45,32.046,0.6546,-0.472,-0.2159,-0.5495
-0.013,-0.062,0.04,-23.2,-6.6,-27.3,1023,2018,5,17,20,45,32.085,0.6575,-0.4715,-0.2096,-0.5489
0.144,0.106,-0.046,-21.8,-4.1,-28.9,1023,2018,5,17,20,45,32.107,0.6606,-0.4708,-0.2043,-0.5477
0.041,-0.037,0.004,-13.2,-11,-24.1,1023,2018,5,17,20,45,32.112,0.6633,-0.4709,-0.1989,-0.5464
-0.045,0.002,0.065,-8,-9,-22.7,1023,2018,5,17,20,45,32.128,0.6651,-0.4721,-0.1945,-0.5448
-0.045,-0.021,0.08,-5.4,-5.1,-25.3,1023,2018,5,17,20,45,32.15,0.6669,-0.4731,-0.1909,-0.5428
0.054,0.168,-0.014,-3.2,-7.9,-23.9,1023,2018,5,17,20,45,32.187,0.6686,-0.4746,-0.1882,-0.5405
0.084,-0.093,0.015,6,-14.7,-25.2,1023,2018,5,17,20,45,32.209,0.6694,-0.4778,-0.1851,-0.5378
0.003,-0.028,0.014,12.4,-18,-18.5,1023,2018,5,17,20,45,32.214,0.6697,-0.4814,-0.1828,-0.5349
0.015,0.022,0.003,16.6,-13.5,-19.4,1023,2018,5,17,20,45,32.228,0.6699,-0.4851,-0.1813,-0.5319
-0.011,0.003,-0.008,19.4,-11.1,-18.3,1023,2018,5,17,20,45,32.246,0.6699,-0.4891,-0.1806,-0.5284
0.045,0.113,-0.157,18.6,-5.8,-20.6,1023,2018,5,17,20,45,32.269,0.6712,-0.4914,-0.1805,-0.5247
0.117,0.108,-0.041,18.9,-18.8,-19.8,1023,2018,5,17,20,45,32.286,0.6708,-0.4959,-0.1801,-0.5211
-0.03,-0.081,0.037,21.3,-16,-15.8,1023,2018,5,17,20,45,32.309,0.6703,-0.5006,-0.179,-0.5176
-0.06,0.004,0.011,14.7,-14.7,-14.7,1023,2018,5,17,20,45,32.327,0.6697,-0.5045,-0.1786,-0.5147
0.044,0.057,-0.046,6.4,-14.7,-16,1023,2018,5,17,20,45,32.35,0.6692,-0.5079,-0.1774,-0.5123
-0.018,-0.046,0,5.5,-14.6,-13.5,0,2018,5,17,20,45,32.368,0.6691,-0.5109,-0.1752,-0.5103
0.013,0.073,0.095,6.1,-14.4,-13.9,0,2018,5,17,20,45,32.389,0.6688,-0.5136,-0.1732,-0.5086
-0.051,-0.17,-0.022,6,-10.2,-14.1,0,2018,5,17,20,45,32.428,0.6686,-0.5164,-0.1715,-0.5067
-0.026,0.032,-0.065,-0.9,0.5,-11.7,0,2018,5,17,20,45,32.451,0.6691,-0.5177,-0.1707,-0.505
-0.007,-0.072,-0.055,-8.9,2.5,-11,0,2018,5,17,20,45,32.455,0.6701,-0.5179,-0.1692,-0.5039
0.005,0.001,-0.031,-14.9,6.7,-9,0,2018,5,17,20,45,32.467,0.6717,-0.5169,-0.1672,-0.5035
-0.085,-0.024,0.006,-25.5,11.4,-12.5,0,2018,5,17,20,45,32.505,0.6738,-0.5146,-0.1649,-0.5038
0.009,0.111,-0.07,-33.2,17.7,-16.7,0,2018,5,17,20,45,32.525,0.677,-0.5107,-0.1619,-0.5045
-0.001,0.009,-0.026,-31.6,24.8,-18,0,2018,5,17,20,45,32.53,0.6814,-0.506,-0.1582,-0.5045
-0.014,-0.071,-0.059,-35.8,21.1,-11,0,2018,5,17,20,45,32.564,0.6859,-0.5002,-0.155,-0.5051
-0.034,0.056,-0.013,-41.2,37.8,-11.9,0,2018,5,17,20,45,32.587,0.6909,-0.4933,-0.1524,-0.5058
-0.09,-0.074,-0.033,-49.6,45.3,-10.3,0,2018,5,17,20,45,32.592,0.6964,-0.4849,-0.1497,-0.5071
0.023,-0.041,0.005,-54.2,47,-12.9,0,2018,5,17,20,45,32.628,0.7025,-0.4751,-0.1467,-0.509
0.027,0.022,-0.043,-52.6,45.3,-13.3,0,2018,5,17,20,45,32.651,0.709,-0.4648,-0.1433,-0.5104
-0.036,-0.035,0.049,-52.7,29.8,-24.7,0,2018,5,17,20,45,32.656,0.7152,-0.4555,-0.1391,-0.5114
-0.042,-0.034,0.044,-57.4,29.7,-28.8,0,2018,5,17,20,45,32.672,0.7212,-0.4474,-0.1326,-0.5117
0.102,-0.065,-0.054,-62.7,26.3,-26.3,0,2018,5,17,20,45,32.695,0.727,-0.4396,-0.1249,-0.5123
0.04,-0.051,-0.024,-61,29.6,-15.1,1023,2018,5,17,20,45,32.711,0.7325,-0.4309,-0.1181,-0.5134
0.238,1.021,0.413,-96.9,107.8,48.5,1023,2018,5,17,20,45,32.728,0.7371,-0.4164,-0.1146,-0.5195
0.064,-0.082,-0.04,-98.2,50.3,2.5,1023,2018,5,17,20,45,32.751,0.7423,-0.3992,-0.1079,-0.5271
-0.068,-0.021,-0.114,-105.6,72.8,26.9,1023,2018,5,17,20,45,32.79,0.7469,-0.3814,-0.1017,-0.535
0.087,-0.127,-0.149,-91.6,71.4,28.1,1023,2018,5,17,20,45,32.79,0.7505,-0.3616,-0.098,-0.5443
0.026,-0.153,-0.051,-84.6,58,24.4,1023,2018,5,17,20,45,32.813,0.7535,-0.3445,-0.0943,-0.5518
0.001,0.092,0.1,-87.1,34.4,20.5,1023,2018,5,17,20,45,32.832,0.7554,-0.3289,-0.0896,-0.5595
-0.102,0.096,0.095,-78.1,21,25.4,1023,2018,5,17,20,45,32.855,0.7557,-0.3165,-0.0835,-0.5671
-0.066,0.024,-0.164,-70.8,39.5,39.7,1023,2018,5,17,20,45,32.874,0.7548,-0.3048,-0.0791,-0.5752
0.13,-0.034,-0.074,-66.1,31.9,31.6,1023,2018,5,17,20,45,32.892,0.754,-0.2928,-0.0751,-0.5831
0.056,-0.014,0.201,-53.2,17,30,1023,2018,5,17,20,45,32.915,0.7532,-0.2825,-0.0705,-0.5897
-0.044,0.101,0.208,-25.9,0.8,35.2,1023,2018,5,17,20,45,32.934,0.7507,-0.2772,-0.0676,-0.5957
-0.055,0.126,-0.441,-25.7,-0.8,51,1023,2018,5,17,20,45,32.957,0.7463,-0.2744,-0.0673,-0.6025
0.075,-0.228,-0.389,-54.2,7.1,45.3,0,2018,5,17,20,45,32.975,0.7417,-0.2685,-0.0646,-0.6111
0.066,-0.397,-0.022,-57.1,13.6,44.8,0,2018,5,17,20,45,32.998,0.7378,-0.261,-0.0598,-0.6195
-0.013,0.003,0.122,-44.6,12.1,49.9,0,2018,5,17,20,45,33.015,0.734,-0.2526,-0.0574,-0.6277
0.083,0.009,0.044,-41.4,-11.3,49.4,0,2018,5,17,20,45,33.033,0.7288,-0.247,-0.0536,-0.6362
0.114,0.008,-0.147,-30,-29.7,48.7,0,2018,5,17,20,45,33.056,0.7228,-0.2447,-0.0484,-0.6443
0.004,-0.106,-0.049,-35.1,-32.1,33.2,0,2018,5,17,20,45,33.092,0.7169,-0.2458,-0.0418,-0.651
-0.052,0.005,-0.011,-41.9,-26.1,30.3,0,2018,5,17,20,45,33.115,0.7122,-0.2456,-0.0354,-0.6566
-0.054,0.093,-0.037,-52.5,-32.6,29.6,0,2018,5,17,20,45,33.12,0.7073,-0.2437,-0.0284,-0.6628
-0.033,0.069,-0.007,-53.6,-39,28.3,0,2018,5,17,20,45,33.136,0.7025,-0.2417,-0.0194,-0.669
0.045,-0.006,0.055,-40.4,-40.8,29.4,0,2018,5,17,20,45,33.154,0.6976,-0.2407,-0.0102,-0.6747
0.032,0.031,-0.054,-38.1,-43.4,30.2,0,2018,5,17,20,45,33.177,0.6922,-0.241,-0.0023,-0.6802
0.081,-0.123,-0.036,-49.2,-27.7,15.7,0,2018,5,17,20,45,33.193,0.6879,-0.2404,0.0071,-0.6846
0.04,-0.034,-0.008,-48.7,-21.1,6.7,0,2018,5,17,20,45,33.229,0.6855,-0.2375,0.0154,-0.688
-0.002,0.053,-0.029,-40.9,-19.7,-1,0,2018,5,17,20,45,33.252,0.6839,-0.2346,0.0226,-0.6903
-0.005,0.123,-0.008,-40.8,-18,-0.3,0,2018,5,17,20,45,33.257,0.6829,-0.2318,0.029,-0.692
0.085,0.062,0.111,-39.5,-27.1,6.7,0,2018,5,17,20,45,33.274,0.6814,-0.2291,0.0361,-0.6941
0.059,-0.198,0.119,-22.8,-10,10.2,0,2018,5,17,20,45,33.294,0.6795,-0.2273,0.0419,-0.6962
0.004,-0.059,0.021,-14.8,-0.5,13.9,0,2018,5,17,20,45,33.332,0.6775,-0.226,0.0444,-0.6985
-0.048,0.027,-0.026,-21.6,-4.3,7.1,0,2018,5,17,20,45,33.354,0.6759,-0.2247,0.0458,-0.7003
0.052,0.053,-0.042,-38.9,-12.3,6.8,0,2018,5,17,20,45,33.359,0.6742,-0.222,0.05,-0.7025
0.085,-0.007,-0.028,-39.8,-8.8,1.4,0,2018,5,17,20,45,33.394,0.673,-0.2177,0.0564,-0.7045
0.037,-0.068,0.069,-26.9,-7.9,-8.8,0,2018,5,17,20,45,33.417,0.6727,-0.2144,0.062,-0.7054
0.035,0.042,0.141,-10.4,-26.3,-23.3,0,2018,5,17,20,45,33.422,0.6738,-0.2135,0.0668,-0.7041
0.076,0.018,0.098,7.4,-49.1,-36.6,1023,2018,5,17,20,45,33.437,0.6761,-0.2174,0.0733,-0.7001
-0.02,-0.334,-0.043,21.5,8.9,-30.5,1023,2018,5,17,20,45,33.455,0.6797,-0.2218,0.0762,-0.6949
-0.067,-0.042,0.144,-4.9,51.1,-5.5,1023,2018,5,17,20,45,33.479,0.683,-0.2186,0.0711,-0.6932
-0.069,0.079,0.237,-6.5,26.7,-8,1023,2018,5,17,20,45,33.497,0.6853,-0.2121,0.0663,-0.6934
-0.117,0.066,0.187,-8,-17.7,-23,1023,2018,5,17,20,45,33.52,0.6872,-0.2109,0.067,-0.6919
-0.226,-0.16,0.074,-23.5,-3.1,-34.4,1023,2018,5,17,20,45,33.54,0.6899,-0.2107,0.0712,-0.6888
-0.243,0.028,0.13,-55,5.5,-40.6,1023,2018,5,17,20,45,33.558,0.6944,-0.2046,0.0768,-0.6855
-0.137,0.08,0.054,-75.2,-29.4,-42.2,1023,2018,5,17,20,45,33.576,0.698,-0.1972,0.0879,-0.6826
-0.092,-0.11,-0.068,-81.1,-41.3,-41.1,1023,2018,5,17,20,45,33.597,0.7002,-0.1924,0.1036,-0.6795
-0.147,-0.298,-0.089,-81.1,2.2,-38.8,1023,2018,5,17,20,45,33.636,0.7029,-0.1844,0.1176,-0.6767
-0.158,-0.117,0.079,-81.8,36.2,-42.2,1023,2018,5,17,20,45,33.657,0.7066,-0.1709,0.1261,-0.6748
-0.166,0.007,0.091,-77.1,26.3,-48.9,1023,2018,5,17,20,45,33.661,0.7113,-0.1565,0.1331,-0.6721
-0.116,0.05,0.069,-82.7,-0.1,-52.9,1023,2018,5,17,20,45,33.679,0.7159,-0.1443,0.143,-0.6679
-0.07,-0.048,0.022,-93.6,-7.1,-50.6,1023,2018,5,17,20,45,33.702,0.7194,-0.1338,0.1555,-0.6634
-0.095,-0.102,-0.026,-105.1,14.4,-43.9,1023,2018,5,17,20,45,33.721,0.7221,-0.1208,0.169,-0.6597
-0.178,-0.011,0.02,-113.4,24.2,-42.4,0,2018,5,17,20,45,33.744,0.7242,-0.104,0.1813,-0.657
-0.191,0.074,-0.06,-121.2,8.1,-49.8,0,2018,5,17,20,45,33.76,0.7261,-0.0866,0.1951,-0.6535
-0.112,-0.007,-0.157,-130.5,-22,-65.8,0,2018,5,17,20,45,33.778,0.7282,-0.0711,0.2128,-0.6475
-0.079,-0.189,-0.241,-135.2,-26.6,-81.7,0,2018,5,17,20,45,33.801,0.7312,-0.0566,0.2338,-0.6382
-0.104,-0.169,-0.172,-133.5,-10.1,-99.1,0,2018,5,17,20,45,33.819,0.7353,-0.0399,0.254,-0.6269
-0.005,0.071,-0.013,-130.5,-26,-125.3,0,2018,5,17,20,45,33.843,0.7414,-0.0223,0.2732,-0.6124
0.288,0.168,0.056,-117.8,-73.7,-150.2,0,2018,5,17,20,45,33.879,0.7498,-0.0085,0.295,-0.592
0.45,0.079,0.029,-88.6,-118.8,-162.4,0,2018,5,17,20,45,33.901,0.7602,-0.0024,0.3191,-0.5658
0.12,-0.138,-0.056,-49.2,-109,-163.3,0,2018,5,17,20,45,33.906,0.7721,-0.0026,0.3396,-0.537
-0.116,-0.106,-0.144,-38.7,-60.2,-157.1,0,2018,5,17,20,45,33.922,0.7842,-0.0004,0.3529,-0.5102
-0.089,-0.017,-0.299,-48.8,-34.6,-151.8,0,2018,5,17,20,45,33.944,0.7949,0.0069,0.3626,-0.4862
-0.006,0.153,-0.336,-53.6,-36.9,-150.1,0,2018,5,17,20,45,33.961,0.8041,0.0162,0.3727,-0.4628
-0.067,0.309,-0.163,-38.9,-47.1,-150.7,0,2018,5,17,20,45,33.978,0.8131,0.0241,0.3819,-0.4385
-0.121,0.307,-0.136,-33.3,-57.7,-144.9,0,2018,5,17,20,45,34.001,0.8221,0.0292,0.3903,-0.4133
-0.02,0.299,-0.14,-30.6,-65,-132.7,0,2018,5,17,20,45,34.019,0.83,0.0323,0.3987,-0.3886
0.073,0.271,-0.163,-21.4,-63.4,-111.7,0,2018,5,17,20,45,34.043,0.8366,0.0331,0.4061,-0.366
0.087,0.142,-0.181,-5.8,-54.6,-91.6,0,2018,5,17,20,45,34.061,0.8423,0.0328,0.4112,-0.3468
0.049,0.013,-0.138,10.7,-48.2,-77.1,0,2018,5,17,20,45,34.084,0.8477,0.0313,0.4138,-0.3303
0.048,-0.043,-0.171,27,-28.7,-67.2,0,2018,5,17,20,45,34.121,0.8533,0.0299,0.4131,-0.3165
0.046,-0.005,-0.178,46.1,-2.9,-61.3,0,2018,5,17,20,45,34.121,0.8595,0.0305,0.4082,-0.3058
-0.017,0.041,-0.014,61.1,22.2,-56.6,0,2018,5,17,20,45,34.144,0.8663,0.0336,0.3997,-0.2975
-0.065,0.133,0.023,56,33.7,-46.6,0,2018,5,17,20,45,34.16,0.8731,0.039,0.3883,-0.2918
0.064,0.206,-0.024,39.7,21.4,-40,0,2018,5,17,20,45,34.197,0.8782,0.0439,0.3794,-0.2876
0.071,0.102,-0.081,29.3,0,-37.3,0,2018,5,17,20,45,34.228,0.8823,0.0463,0.3734,-0.2825
0.051,0.035,-0.1,17.7,-6,-34.1,0,2018,5,17,20,45,34.23,0.8854,0.0472,0.3703,-0.2766
0.053,0.028,-0.096,13.2,-3,-34.4,0,2018,5,17,20,45,34.241,0.8877,0.0486,0.3689,-0.2707
0.073,0.108,-0.063,16.3,-11.2,-37.8,0,2018,5,17,20,45,34.28,0.8903,0.0498,0.3672,-0.2644
0,0.088,-0.07,25.4,-33,-43.6,0,2018,5,17,20,45,34.303,0.8937,0.0485,0.3647,-0.2565
0.016,0.049,-0.086,29.1,-58.7,-50.5,1023,2018,5,17,20,45,34.308,0.8978,0.0438,0.3624,-0.2458
0.058,0.03,-0.114,31.8,-84.6,-54.1,1023,2018,5,17,20,45,34.323,0.9022,0.0352,0.3613,-0.2325
0.012,-0.076,-0.117,38.9,-81.8,-52.8,1023,2018,5,17,20,45,34.346,0.9067,0.0236,0.3597,-0.2185
-0.031,-0.138,-0.001,45.9,-48.4,-46.6,1023,2018,5,17,20,45,34.364,0.9114,0.0147,0.3553,-0.2066
-0.054,-0.031,0.069,46.7,-31.4,-45.1,1023,2018,5,17,20,45,34.386,0.9161,0.01,0.3487,-0.1971
-0.023,0.039,0.052,46,-52,-49.4,1023,2018,5,17,20,45,34.405,0.9208,0.0049,0.3419,-0.187
0.028,0.023,0.016,42.2,-78.6,-51.8,1023,2018,5,17,20,45,34.427,0.9252,-0.0038,0.3367,-0.1746
0.027,-0.029,-0.021,41.6,-80.8,-48,1023,2018,5,17,20,45,34.443,0.9289,-0.0153,0.3327,-0.1613
-0.01,-0.027,-0.054,41.8,-56.6,-41.9,1023,2018,5,17,20,45,34.464,0.9322,-0.0254,0.3284,-0.1498
-0.007,0.028,-0.08,42.7,-37.2,-38.3,1023,2018,5,17,20,45,34.482,0.9352,-0.0317,0.3231,-0.1405
-0.008,0.075,-0.022,46.3,-37.9,-35.3,1023,2018,5,17,20,45,34.503,0.9384,-0.0361,0.3172,-0.1319
-0.012,0.052,-0.034,45.6,-44.2,-28.9,1023,2018,5,17,20,45,34.541,0.9414,-0.0415,0.3108,-0.1237
0.006,0.051,-0.054,45.2,-41.1,-19.9,1023,2018,5,17,20,45,34.564,0.944,-0.0478,0.3046,-0.1166
-0.027,0.067,-0.016,41.4,-29.6,-12,1023,2018,5,17,20,45,34.569,0.9464,-0.053,0.2982,-0.1115
-0.044,0.058,0.089,36.1,-25,-3.2,1023,2018,5,17,20,45,34.583,0.9485,-0.057,0.292,-0.1082
-0.019,0.003,0.172,30.6,-17.6,0.5,1023,2018,5,17,20,45,34.606,0.9503,-0.0608,0.286,-0.1063
0.023,-0.034,0.074,29.4,-0.5,5.2,1023,2018,5,17,20,45,34.644,0.9518,-0.0628,0.2807,-0.1059
0.02,-0.019,0.013,27.4,16.8,8.8,1023,2018,5,17,20,45,34.668,0.9531,-0.0622,0.2757,-0.1073
-0.005,0.026,0.028,24.5,-3.7,-1.4,1023,2018,5,17,20,45,34.672,0.9544,-0.0613,0.2711,-0.108
-0.059,0.016,0.032,25.4,-21.9,-14.8,1023,2018,5,17,20,45,34.688,0.9557,-0.0632,0.2671,-0.1055
-0.067,-0.023,0.078,14.1,-21.5,-11.6,0,2018,5,17,20,45,34.711,0.9569,-0.0673,0.2634,-0.1019
-0.044,-0.002,0.104,11.6,-10.8,-3.2,0,2018,5,17,20,45,34.727,0.9576,-0.0698,0.2609,-0.0997
-0.047,0.011,0.09,9.3,-8.8,3.5,0,2018,5,17,20,45,34.746,0.9582,-0.0712,0.2584,-0.0991
-0.056,-0.007,0.059,4.7,-14,7.4,0,2018,5,17,20,45,34.764,0.9585,-0.0735,0.2566,-0.0995
-0.049,0.031,0.028,-1.1,-11.8,8.7,0,2018,5,17,20,45,34.787,0.9584,-0.0763,0.2559,-0.1003
0.016,0.018,-0.016,-7.8,-14.7,2.2,0,2018,5,17,20,45,34.805,0.958,-0.0786,0.2566,-0.1008
0.053,-0.033,-0.036,-12.5,-17.7,-2.4,0,2018,5,17,20,45,34.828,0.9572,-0.0813,0.2591,-0.0999
0.082,-0.06,-0.082,-10,-11.7,-3.7,0,2018,5,17,20,45,34.846,0.9562,-0.0838,0.2622,-0.0987
0.078,-0.06,-0.092,-6.1,-2.6,-3.2,0,2018,5,17,20,45,34.869,0.9555,-0.0851,0.2646,-0.0978
0.059,-0.037,-0.06,-1,4.8,-4.6,0,2018,5,17,20,45,34.888,0.9552,-0.0849,0.266,-0.0971
0.06,-0.03,-0.074,3.3,4.2,-7,0,2018,5,17,20,45,34.91,0.9552,-0.0842,0.2666,-0.0963
0.059,0.011,-0.105,8,5.3,-6.4,0,2018,5,17,20,45,34.948,0.9554,-0.0834,0.2667,-0.0951
0.064,0.024,-0.076,10.8,1.7,-7.8,0,2018,5,17,20,45,34.948,0.9558,-0.0823,0.2662,-0.0935
0.045,-0.015,-0.051,13.6,6.2,-6.4,0,2018,5,17,20,45,34.97,0.9563,-0.0817,0.2649,-0.0921
0.015,0.025,-0.025,16.2,18.3,-1.7,0,2018,5,17,20,45,34.989,0.9572,-0.0796,0.2627,-0.0916
0.007,0.084,-0.02,16,20.9,-0.2,0,2018,5,17,20,45,35.007,0.9582,-0.0758,0.2598,-0.0919
-0.013,0.121,0.006,13.5,7.2,-0.7,0,2018,5,17,20,45,35.031,0.9592,-0.0725,0.257,-0.0919
-0.043,0.048,0.028,12.5,-9.4,0,0,2018,5,17,20,45,35.048,0.9599,-0.0723,0.2546,-0.0913
-0.051,-0.007,0.038,9.3,-13.4,2.1,0,2018,5,17,20,45,35.071,0.9604,-0.0745,0.2523,-0.0908
-0.04,-0.025,0.053,7.5,-10.1,3.2,0,2018,5,17,20,45,35.09,0.9607,-0.0769,0.2505,-0.0905
-0.038,-0.034,0.053,6,-4.9,4,0,2018,5,17,20,45,35.113,0.961,-0.0788,0.2489,-0.0908
-0.039,-0.034,0.045,3.3,-2.6,4.6,0,2018,5,17,20,45,35.131,0.9612,-0.0798,0.2476,-0.0913
-0.028,-0.027,0.046,0.2,-1,4.5,1023,2018,5,17,20,45,35.151,0.9612,-0.0807,0.2468,-0.0921
-0.019,-0.019,0.026,-1.9,-0.7,3.6,1023,2018,5,17,20,45,35.168,0.9612,-0.0812,0.2465,-0.0927
-0.011,-0.007,0,-3.9,-1.8,1.6,1023,2018,5,17,20,45,35.191,0.9611,-0.0817,0.2467,-0.0932
0.008,0,-0.017,-5.3,-3.3,0.9,1023,2018,5,17,20,45,35.208,0.9608,-0.0822,0.2476,-0.0933
0.027,0.012,-0.034,-5.5,-4.4,0.3,1023,2018,5,17,20,45,35.231,0.9604,-0.0828,0.2489,-0.0932
0.04,0.03,-0.023,-5.1,-6.7,0.2,1023,2018,5,17,20,45,35.249,0.96,-0.0834,0.2503,-0.0929
-0.007,0.025,-0.095,-2.9,-9.6,0.4,1023,2018,5,17,20,45,35.272,0.9596,-0.0847,0.2516,-0.0925
-0.01,0.012,-0.056,1.3,-8.3,1.3,1023,2018,5,17,20,45,35.291,0.9593,-0.0865,0.2521,-0.0924
0.012,0.005,-0.004,5.4,-4.6,2.2,1023,2018,5,17,20,45,35.328,0.9593,-0.0877,0.2517,-0.0922
0.015,-0.014,0.071,6.8,-0.2,3.7,1023,2018,5,17,20,45,35.352,0.9595,-0.0883,0.2506,-0.0924
0.052,-0.034,0.084,-0.1,4.5,6.2,1023,2018,5,17,20,45,35.355,0.9598,-0.0881,0.2496,-0.0931
0.061,0.002,-0.002,-6.4,7,6.4,1023,2018,5,17,20,45,35.371,0.9595,-0.0874,0.2504,-0.0946
0.047,0.022,-0.058,-8.9,5.6,4.6,1023,2018,5,17,20,45,35.395,0.959,-0.0864,0.2522,-0.0958
0.036,0.042,-0.091,-8,1,2.5,1023,2018,5,17,20,45,35.43,0.9585,-0.0855,0.2542,-0.0963
0.04,0.051,-0.106,-3.2,-5.1,0.7,1023,2018,5,17,20,45,35.454,0.958,-0.0854,0.2561,-0.0962
0.024,0.035,-0.104,2.2,-12.7,-0.7,1023,2018,5,17,20,45,35.458,0.9577,-0.0866,0.2571,-0.0955
0.009,-0.004,-0.063,4.9,-18.5,-2.2,1023,2018,5,17,20,45,35.477,0.9575,-0.0893,0.2573,-0.0943
0.008,-0.026,-0.009,6,-15.9,-1.8,1023,2018,5,17,20,45,35.492,0.9574,-0.0926,0.2569,-0.093
0.001,-0.035,0.038,6.5,-9.9,-0.4,1023,2018,5,17,20,45,35.51,0.9575,-0.0951,0.2561,-0.0921
-0.018,-0.038,0.058,4.7,-3.9,0.4,0,2018,5,17,20,45,35.532,0.9577,-0.0967,0.2548,-0.0919
-0.016,-0.021,0.033,1.5,-1.5,-0.6,0,2018,5,17,20,45,35.551,0.9578,-0.0975,0.254,-0.0919
-0.01,-0.002,0.008,0,-0.7,-1.3,0,2018,5,17,20,45,35.574,0.9579,-0.0977,0.2537,-0.0916
-0.004,-0.004,-0.006,0.2,-0.4,-0.8,0,2018,5,17,20,45,35.611,0.9579,-0.0978,0.2537,-0.0913
0,-0.009,-0.009,0.1,-0.4,0.7,0,2018,5,17,20,45,35.633,0.9579,-0.098,0.2536,-0.0912
0,-0.01,-0.013,0,1.3,2.4,0,2018,5,17,20,45,35.636,0.9579,-0.0982,0.2536,-0.0915
-0.002,0.024,-0.016,0.2,3,3.5,0,2018,5,17,20,45,35.655,0.9579,-0.098,0.2535,-0.0921
0,0.028,-0.002,0,0.2,2.4,0,2018,5,17,20,45,35.676,0.9578,-0.0978,0.2535,-0.0928
0,0.002,0.001,-0.3,-1.4,2.6,0,2018,5,17,20,45,35.694,0.9578,-0.0979,0.2534,-0.093
0.003,-0.02,0.002,-0.8,0.2,3.8,0,2018,5,17,20,45,35.716,0.9577,-0.0983,0.2534,-0.0935
0.015,-0.017,-0.008,-1,4.6,5.6,0,2018,5,17,20,45,35.733,0.9576,-0.0985,0.2536,-0.0945
0.013,-0.004,-0.022,-1.1,8.1,7.7,0,2018,5,17,20,45,35.755,0.9574,-0.0979,0.2538,-0.0959
0.003,0.012,-0.014,-2.1,8.6,7.7,0,2018,5,17,20,45,35.792,0.9573,-0.0969,0.254,-0.0976
0.002,0.025,-0.014,-4.1,6.3,6.2,0,2018,5,17,20,45,35.792,0.9572,-0.0958,0.2543,-0.099
0.002,0.033,-0.021,-3.8,4.4,3.3,0,2018,5,17,20,45,35.815,0.9571,-0.0946,0.2549,-0.1
