ax,ay,az,dpitch,droll,dyaw,heart,time_1,time_2,time_3,time_4,time_5,time_6,w,x,y,z
-0.845,1.017,1.181,136.8,-150.2,-164.1,0,2018,5,17,20,30,53.386,-0.8775,-0.2623,-0.3471,0.2013
-0.92,1.297,1.554,27.5,-26.9,-17.2,0,2018,5,17,20,30,53.397,-0.8893,-0.2511,-0.3338,0.1858
-0.743,1.234,1.357,-61.8,70.8,102.9,0,2018,5,17,20,30,53.415,-0.885,-0.2534,-0.3385,0.1944
-0.4,0.597,0.833,-117.5,126.9,178.3,0,2018,5,17,20,30,53.438,-0.8694,-0.2637,-0.3559,0.2187
-0.119,-0.19,0.248,-141.7,142.9,202.1,1023,2018,5,17,20,30,53.456,-0.8463,-0.2775,-0.3791,0.2507
0.182,-1.055,-0.498,-145.2,131.7,174.6,1023,2018,5,17,20,30,53.48,-0.8206,-0.2911,-0.4034,0.2809
0.357,-1.253,-0.996,-102.9,85.8,93.2,1023,2018,5,17,20,30,53.515,-0.7985,-0.304,-0.4228,0.3019
0.433,-1.348,-1.243,-14.5,-6.6,-24.4,1023,2018,5,17,20,30,53.538,-0.7903,-0.31,-0.4305,0.3063
0.379,-1.209,-1.133,61.7,-81.2,-123,1023,2018,5,17,20,30,53.543,-0.7991,-0.3078,-0.4249,0.2932
0.198,-0.714,-0.795,115.7,-131.2,-182.8,1023,2018,5,17,20,30,53.558,-0.8192,-0.2991,-0.4093,0.2677
-0.276,0.305,-0.002,150.9,-146.8,-215.3,1023,2018,5,17,20,30,53.58,-0.845,-0.2868,-0.3849,0.2355
-0.682,0.966,0.881,121.4,-114.4,-161.8,1023,2018,5,17,20,30,53.601,-0.8684,-0.2738,-0.3593,0.2042
-0.775,1.379,1.251,40.3,-22.6,-33,1023,2018,5,17,20,30,53.622,-0.8797,-0.2668,-0.3449,0.1892
-0.695,1.336,1.214,-33.3,53.4,77.9,1023,2018,5,17,20,30,53.658,-0.8778,-0.2682,-0.3454,0.1949
-0.466,0.716,0.891,-92.2,94.6,152.9,1023,2018,5,17,20,30,53.68,-0.8658,-0.2749,-0.3585,0.2148
-0.242,-0.085,0.331,-126.1,103,182.8,1023,2018,5,17,20,30,53.685,-0.8467,-0.2836,-0.3795,0.2419
0.04,-1.056,-0.333,-135.3,107.8,160.5,1023,2018,5,17,20,30,53.701,-0.8245,-0.2928,-0.4032,0.268
0.314,-1.331,-0.889,-95.1,82.2,80.3,1023,2018,5,17,20,30,53.719,-0.8047,-0.304,-0.4217,0.2864
0.444,-1.236,-1.096,-6.9,4.5,-34.5,1023,2018,5,17,20,30,53.742,-0.7975,-0.3113,-0.4277,0.29
0.313,-0.94,-1.092,71.4,-70.1,-126.7,1023,2018,5,17,20,30,53.758,-0.8065,-0.3107,-0.4196,0.2771
0.156,-0.479,-0.819,125.2,-124.1,-181.2,1023,2018,5,17,20,30,53.782,-0.8264,-0.3029,-0.4016,0.2526
-0.232,0.386,-0.035,161.1,-131.4,-200.1,0,2018,5,17,20,30,53.82,-0.8513,-0.2909,-0.3753,0.223
-0.652,0.92,0.852,131,-106.6,-140.7,0,2018,5,17,20,30,53.82,-0.8736,-0.2779,-0.3479,0.1961
-0.625,1.139,1.109,38.9,-21.6,-18.7,0,2018,5,17,20,30,53.843,-0.8841,-0.2699,-0.3337,0.1842
-0.504,1.037,1.017,-32.4,56.4,81,0,2018,5,17,20,30,53.879,-0.8818,-0.2711,-0.3349,0.1912
-0.349,0.58,0.732,-81.9,91.9,141.1,0,2018,5,17,20,30,53.902,-0.8704,-0.2784,-0.3468,0.2106
-0.132,-0.195,0.211,-118.3,84.2,158.8,0,2018,5,17,20,30,53.908,-0.8536,-0.2865,-0.3663,0.2345
0.207,-1.077,-0.391,-123.6,84.2,123,0,2018,5,17,20,30,53.925,-0.8349,-0.2944,-0.3886,0.255
0.407,-1.154,-0.768,-67.3,52.1,37.1,0,2018,5,17,20,30,53.943,-0.8206,-0.3041,-0.4037,0.2665
0.353,-0.843,-0.857,2.4,-20.2,-55,0,2018,5,17,20,30,53.959,-0.8182,-0.3085,-0.4067,0.2641
0.168,-0.599,-0.735,59.9,-73.1,-114.6,0,2018,5,17,20,30,53.983,-0.8275,-0.3059,-0.3991,0.2495
0.012,-0.313,-0.522,94.7,-95.5,-136.5,0,2018,5,17,20,30,54.001,-0.8429,-0.2987,-0.3844,0.2289
-0.17,0.346,0,116.7,-94.3,-140.6,0,2018,5,17,20,30,54.023,-0.8601,-0.2897,-0.3648,0.2075
-0.391,0.84,0.572,106.2,-81.5,-107.6,0,2018,5,17,20,30,54.062,-0.8762,-0.2798,-0.3442,0.1882
-0.483,1.056,0.842,38.3,-34.6,-22.5,0,2018,5,17,20,30,54.062,-0.8855,-0.2722,-0.3316,0.1781
-0.419,1.005,0.894,-31.3,28.5,68.8,0,2018,5,17,20,30,54.084,-0.8847,-0.2705,-0.3328,0.1822
-0.238,0.588,0.634,-77.2,79.3,136.6,0,2018,5,17,20,30,54.104,-0.8751,-0.2746,-0.3449,0.1991
-0.082,0.121,0.209,-99.2,118.7,172.3,0,2018,5,17,20,30,54.127,-0.8586,-0.2837,-0.3626,0.2251
0.072,-0.32,-0.209,-104.5,115.6,167.8,1023,2018,5,17,20,30,54.146,-0.8387,-0.2944,-0.3816,0.2535
0.231,-0.802,-0.536,-81.8,83.1,118.7,1023,2018,5,17,20,30,54.163,-0.8202,-0.3032,-0.3985,0.2764
0.308,-1.325,-0.662,-13.3,51.3,27.8,1023,2018,5,17,20,30,54.199,-0.8096,-0.3099,-0.4059,0.2891
0.267,-1.225,-0.72,63.2,8.8,-76.9,1023,2018,5,17,20,30,54.221,-0.8114,-0.3148,-0.3988,0.2888
0.081,-0.748,-0.577,105,-63.6,-159.4,1023,2018,5,17,20,30,54.226,-0.8249,-0.3147,-0.3809,0.2742
-0.125,-0.238,-0.147,126.9,-118.8,-213.9,1023,2018,5,17,20,30,54.244,-0.8464,-0.3077,-0.3577,0.2466
-0.347,0.272,0.451,121.3,-114.8,-210.8,1023,2018,5,17,20,30,54.28,-0.8695,-0.2971,-0.3317,0.2133
-0.546,0.917,0.828,56.9,-41.4,-125.9,1023,2018,5,17,20,30,54.303,-0.8848,-0.2914,-0.3115,0.1873
-0.508,1.301,0.904,-28.1,50.3,-9.4,1023,2018,5,17,20,30,54.308,-0.8871,-0.2956,-0.306,0.1783
-0.333,1.246,0.671,-89.6,100.6,92.6,1023,2018,5,17,20,30,54.344,-0.8779,-0.3077,-0.3156,0.1864
-0.208,0.728,0.243,-119.2,125.1,166.1,1023,2018,5,17,20,30,54.367,-0.8609,-0.3212,-0.3353,0.2074
-0.117,0.086,-0.18,-130.3,124,202.5,1023,2018,5,17,20,30,54.371,-0.8387,-0.3334,-0.3601,0.2359
-0.012,-0.644,-0.448,-112.1,84.1,181.4,1023,2018,5,17,20,30,54.387,-0.8157,-0.3416,-0.385,0.2639
0.084,-1.41,-0.789,-49.2,17.3,104.8,1023,2018,5,17,20,30,54.41,-0.8001,-0.3423,-0.4031,0.2828
0.197,-1.744,-1.033,39.1,-23.5,-11.9,1023,2018,5,17,20,30,54.429,-0.7982,-0.3382,-0.4065,0.2883
0.137,-1.109,-0.868,109.1,-74.1,-128.2,1023,2018,5,17,20,30,54.467,-0.81,-0.3331,-0.3933,0.2794
0.041,-0.579,-0.619,154.7,-175.3,-210.4,0,2018,5,17,20,30,54.49,-0.8343,-0.3203,-0.37,0.2534
-0.33,0.151,0.088,187.5,-202.5,-244.2,0,2018,5,17,20,30,54.495,-0.8653,-0.2985,-0.3395,0.2163
-0.607,0.878,0.799,139.6,-169.4,-177.1,0,2018,5,17,20,30,54.506,-0.8921,-0.2759,-0.3088,0.1803
-0.606,1.401,1.165,34.9,-41.8,-28.8,0,2018,5,17,20,30,54.525,-0.9048,-0.2615,-0.2939,0.1626
-0.452,1.583,1.146,-48.6,73.4,112.4,0,2018,5,17,20,30,54.547,-0.9017,-0.2632,-0.2973,0.1709
-0.268,1.046,0.764,-97.5,138.6,209.6,0,2018,5,17,20,30,54.566,-0.8869,-0.2741,-0.3138,0.1993
-0.129,0.275,0.323,-124.9,157.3,254.7,0,2018,5,17,20,30,54.589,-0.8639,-0.2884,-0.3367,0.2387
-0.072,-0.413,-0.015,-135.7,135.8,246.7,0,2018,5,17,20,30,54.626,-0.8365,-0.301,-0.3627,0.2791
-0.06,-0.97,-0.384,-125.7,50.3,172.1,0,2018,5,17,20,30,54.649,-0.8118,-0.3078,-0.388,0.3089
0.104,-1.591,-0.697,-75.7,-43.9,57.8,0,2018,5,17,20,30,54.654,-0.7984,-0.3053,-0.4089,0.3192
0.303,-1.936,-1.027,32.7,-63.2,-72.8,0,2018,5,17,20,30,54.67,-0.8007,-0.299,-0.4146,0.3121
0.116,-1.034,-0.961,117.9,-81.9,-184.3,0,2018,5,17,20,30,54.686,-0.8169,-0.2949,-0.3997,0.293
-0.011,-0.207,-0.591,173.6,-172.4,-255.6,0,2018,5,17,20,30,54.705,-0.8443,-0.2842,-0.3732,0.2588
-0.348,0.463,0.222,198.3,-211,-267.7,0,2018,5,17,20,30,54.729,-0.8769,-0.2629,-0.34,0.2149
-0.745,0.846,0.905,120.3,-144.3,-156.4,0,2018,5,17,20,30,54.764,-0.9022,-0.2409,-0.3104,0.1776
-0.685,1.533,1.167,15.9,15.6,9.1,0,2018,5,17,20,30,54.787,-0.91,-0.2333,-0.2991,0.1666
-0.459,1.546,1.083,-62.7,92.5,127.1,0,2018,5,17,20,30,54.792,-0.9037,-0.2403,-0.3047,0.1805
-0.3,0.801,0.739,-110.5,136.6,211.7,1023,2018,5,17,20,30,54.81,-0.8879,-0.2518,-0.3224,0.2102
-0.196,0.041,0.215,-140.1,162.7,254.7,1023,2018,5,17,20,30,54.846,-0.8639,-0.2667,-0.3462,0.2499
-0.111,-0.667,-0.19,-143.1,152.8,244.6,1023,2018,5,17,20,30,54.87,-0.835,-0.2815,-0.3724,0.2911
-0.002,-1.038,-0.576,-105.5,63.1,159.7,1023,2018,5,17,20,30,54.875,-0.8097,-0.291,-0.3948,0.3219
0.172,-1.658,-0.855,-25.9,-47.6,30.2,1023,2018,5,17,20,30,54.892,-0.7999,-0.2879,-0.409,0.3314
0.255,-1.714,-0.937,64.3,-59.3,-94.6,1023,2018,5,17,20,30,54.93,-0.8065,-0.281,-0.4075,0.323
0.157,-0.809,-0.8,129.6,-104.5,-194.7,1023,2018,5,17,20,30,54.953,-0.8254,-0.2753,-0.3898,0.3014
-0.055,-0.082,-0.332,182.8,-162.7,-249.3,1023,2018,5,17,20,30,54.957,-0.8536,-0.2618,-0.3629,0.2663
-0.521,0.779,0.632,186.1,-159.1,-232.2,1023,2018,5,17,20,30,54.971,-0.8833,-0.2435,-0.3299,0.2268
-0.634,1.2,1.113,80.2,-76.3,-97.9,1023,2018,5,17,20,30,54.992,-0.9022,-0.2282,-0.3069,0.199
-0.531,1.606,1.247,-23.9,58.9,46.3,1023,2018,5,17,20,30,55.01,-0.9041,-0.2282,-0.3025,0.1971
-0.314,1.267,0.933,-96.4,117.2,148.1,1023,2018,5,17,20,30,55.033,-0.8931,-0.2399,-0.3135,0.2155
-0.251,0.554,0.42,-136.3,138.3,205.2,1023,2018,5,17,20,30,55.05,-0.8732,-0.2548,-0.3343,0.2462
-0.164,-0.173,0.072,-148.4,101.6,206.4,1023,2018,5,17,20,30,55.073,-0.8491,-0.2675,-0.3601,0.2787
-0.013,-1.189,-0.475,-138,46.2,159.4,1023,2018,5,17,20,30,55.11,-0.8269,-0.273,-0.3866,0.3033
0.209,-1.719,-0.994,-76.6,25.6,77.5,1023,2018,5,17,20,30,55.132,-0.8113,-0.2755,-0.4063,0.3172
0.294,-1.675,-1.185,26.5,7,-29.6,1023,2018,5,17,20,30,55.137,-0.8074,-0.2777,-0.4098,0.3206
0.128,-0.822,-1.059,116.6,-63.2,-146.1,0,2018,5,17,20,30,55.153,-0.819,-0.2767,-0.3956,0.3099
-0.051,-0.103,-0.515,170.2,-171.9,-230.1,0,2018,5,17,20,30,55.176,-0.8448,-0.2641,-0.3714,0.2801
-0.428,0.679,0.441,182.2,-198.4,-234.4,0,2018,5,17,20,30,55.193,-0.8756,-0.242,-0.342,0.2401
-0.757,1.004,1.102,86.5,-117.7,-102,0,2018,5,17,20,30,55.216,-0.8973,-0.2202,-0.3201,0.209
-0.593,1.439,1.233,-24.1,28.6,48.6,0,2018,5,17,20,30,55.232,-0.9008,-0.2147,-0.3167,0.2049
-0.416,1.221,0.98,-98.6,101.9,149.8,0,2018,5,17,20,30,55.251,-0.8904,-0.2226,-0.3282,0.2232
-0.304,0.533,0.468,-140.1,110.1,198,0,2018,5,17,20,30,55.273,-0.8711,-0.2343,-0.3496,0.2526
-0.135,-0.375,-0.106,-156.4,52,187.2,0,2018,5,17,20,30,55.308,-0.8488,-0.2413,-0.3769,0.2811
0.298,-1.13,-0.834,-122.4,24.2,118.8,0,2018,5,17,20,30,55.332,-0.8298,-0.2426,-0.403,0.3
0.485,-1.467,-1.184,-20.7,7,15.2,0,2018,5,17,20,30,55.336,-0.8205,-0.2443,-0.415,0.3078
0.446,-1.011,-1.142,75.5,-51.9,-86.4,0,2018,5,17,20,30,55.352,-0.8257,-0.2422,-0.4102,0.3018
0.235,-0.427,-0.907,133.2,-122.1,-156.7,0,2018,5,17,20,30,55.375,-0.8436,-0.2326,-0.3934,0.2817
0.062,0.171,-0.528,171.9,-166,-191.1,0,2018,5,17,20,30,55.412,-0.8679,-0.2148,-0.3707,0.2512
-0.208,0.727,-0.067,174.6,-185.6,-187.9,0,2018,5,17,20,30,55.435,-0.8933,-0.1926,-0.3433,0.2165
-0.282,0.797,0.319,106.6,-159.7,-85,0,2018,5,17,20,30,55.439,-0.9122,-0.1673,-0.323,0.1882
-0.02,0.804,0.415,47.9,-72.9,30.3,0,2018,5,17,20,30,55.454,-0.92,-0.1482,-0.3145,0.1807
0.016,0.569,0.256,48.5,-44.1,76.6,0,2018,5,17,20,30,55.473,-0.9217,-0.1351,-0.3105,0.189
0.009,-0.048,0.398,35.7,-76.6,41.7,1023,2018,5,17,20,30,55.493,-0.9233,-0.1209,-0.3065,0.1971
0.068,-0.906,0.788,4.2,-145.6,-16.7,1023,2018,5,17,20,30,55.512,-0.9262,-0.1012,-0.3074,0.1931
0.107,-1.572,0.768,-28.5,-116.1,-59.6,1023,2018,5,17,20,30,55.551,-0.929,-0.0811,-0.3136,0.1788
0.145,-1.261,0.488,-54.9,-0.5,-86,1023,2018,5,17,20,30,55.574,-0.9295,-0.0779,-0.3213,0.1633
-0.07,-0.458,0.272,-77.1,28.1,-123.1,1023,2018,5,17,20,30,55.579,-0.9281,-0.0896,-0.3301,0.1464
-0.336,0.112,0.123,-96.7,-7.5,-149,1023,2018,5,17,20,30,55.595,-0.9261,-0.1019,-0.3416,0.123
-0.441,0.587,-0.105,-109.4,-55.9,-141.6,1023,2018,5,17,20,30,55.618,-0.9231,-0.1076,-0.3565,0.095
-0.39,0.876,-0.485,-96.1,-66,-97.8,1023,2018,5,17,20,30,55.637,-0.9194,-0.1062,-0.3723,0.0687
-0.191,1.025,-0.695,-42.5,-15.1,-25.3,1023,2018,5,17,20,30,55.674,-0.9161,-0.1043,-0.383,0.0547
-0.038,1.026,-0.682,29.6,35.3,46,1023,2018,5,17,20,30,55.697,-0.9154,-0.106,-0.3839,0.0574
-0.06,0.987,-0.678,92.4,37.2,85.8,1023,2018,5,17,20,30,55.701,-0.9181,-0.1072,-0.3744,0.0722
-0.171,0.715,-0.349,121.4,-38.7,71.3,1023,2018,5,17,20,30,55.718,-0.9239,-0.1013,-0.3583,0.0872
-0.464,-0.507,0.248,128.5,-105.2,61.1,1023,2018,5,17,20,30,55.741,-0.932,-0.082,-0.34,0.0944
-0.435,-1.459,0.606,98.2,-26.8,53,1023,2018,5,17,20,30,55.756,-0.9385,-0.065,-0.3234,0.101
-0.269,-1.332,0.83,36.9,66.6,14.7,1023,2018,5,17,20,30,55.776,-0.9414,-0.0669,-0.3119,0.109
0.102,-0.623,0.849,-42.5,15.7,-39.6,0,2018,5,17,20,30,55.795,-0.9408,-0.0763,-0.3116,0.1091
0.101,-0.501,0.631,-96.1,-37.2,-70.9,0,2018,5,17,20,30,55.818,-0.938,-0.0776,-0.3233,0.0971
-0.138,-0.428,0.176,-120.3,7.2,-71.1,0,2018,5,17,20,30,55.855,-0.933,-0.0808,-0.3407,0.0822
-0.224,0.057,-0.332,-126.9,36.3,-65.9,0,2018,5,17,20,30,55.878,-0.9258,-0.0915,-0.3597,0.0708
0.031,0.617,-0.823,-100.7,-7.7,-59.7,0,2018,5,17,20,30,55.883,-0.9187,-0.0998,-0.3773,0.0593
0.061,0.98,-1.063,-37.4,-43.7,-29.8,0,2018,5,17,20,30,55.901,-0.915,-0.0993,-0.3879,0.0482
0.093,0.962,-0.988,42.1,-38.5,15.2,0,2018,5,17,20,30,55.919,-0.916,-0.0929,-0.3875,0.0439
-0.055,0.932,-0.79,113.2,-7.9,68.4,0,2018,5,17,20,30,55.942,-0.9214,-0.086,-0.3754,0.0502
-0.16,0.875,-0.426,153.6,-7.2,96.5,0,2018,5,17,20,30,55.958,-0.9293,-0.0788,-0.3547,0.0652
-0.43,0.003,0.383,172.1,-42.6,99.9,0,2018,5,17,20,30,55.982,-0.9382,-0.0666,-0.3293,0.0817
-0.531,-1.209,1.2,139.3,-11.1,91.6,0,2018,5,17,20,30,55.999,-0.9459,-0.0532,-0.3045,0.0973
-0.285,-1.476,1.488,40.3,67.7,51,0,2018,5,17,20,30,56.018,-0.9492,-0.0531,-0.2892,0.1116
0.264,-0.586,1.332,-74.3,27.9,-20,0,2018,5,17,20,30,56.036,-0.9472,-0.0627,-0.2917,0.1164
0.239,-0.373,0.931,-149.7,-43.6,-62.8,0,2018,5,17,20,30,56.059,-0.9421,-0.0649,-0.311,0.1065
-0.154,-0.359,0.183,-183.8,-28.5,-77.9,0,2018,5,17,20,30,56.095,-0.9341,-0.0655,-0.339,0.0901
-0.24,0.021,-0.53,-177,8.6,-83.4,0,2018,5,17,20,30,56.118,-0.924,-0.0723,-0.3679,0.074
-0.264,0.633,-1.172,-134,-14.9,-76,0,2018,5,17,20,30,56.123,-0.9145,-0.08,-0.392,0.0585
0.283,1.242,-1.581,-52.8,-63.4,-44.2,0,2018,5,17,20,30,56.139,-0.909,-0.0789,-0.4068,0.0436
0.255,1.443,-1.516,66.3,-61.1,17.1,1023,2018,5,17,20,30,56.162,-0.9105,-0.0705,-0.4056,0.0378
0.049,0.898,-1.214,170.1,-44.8,80.9,1023,2018,5,17,20,30,56.181,-0.9195,-0.0565,-0.3866,0.042
-0.284,0.854,-0.654,230.5,3.6,121.6,1023,2018,5,17,20,30,56.203,-0.9318,-0.0461,-0.3548,0.0606
-0.698,-0.585,0.448,247.8,-20.2,115.8,1023,2018,5,17,20,30,56.219,-0.9449,-0.0344,-0.3152,0.0808
-0.622,-1.598,1.188,187.6,57.2,115.5,1023,2018,5,17,20,30,56.254,-0.9544,-0.027,-0.2792,0.1019
-0.449,-1.207,1.651,91.3,104.9,70.8,1023,2018,5,17,20,30,56.277,-0.9585,-0.0363,-0.2541,0.1232
0.037,-0.747,1.424,-37.2,15.3,-22.6,1023,2018,5,17,20,30,56.282,-0.9587,-0.0454,-0.2491,0.1292
0.098,-0.552,1.132,-136.2,-36.8,-65.5,1023,2018,5,17,20,30,56.298,-0.9557,-0.0466,-0.2649,0.1189
-0.322,-0.52,0.392,-172.5,-5.9,-72.6,1023,2018,5,17,20,30,56.321,-0.9496,-0.0492,-0.2911,0.1045
-0.394,-0.147,-0.4,-175.3,40,-78.6,1023,2018,5,17,20,30,56.339,-0.9413,-0.0598,-0.3192,0.0912
-0.116,0.66,-1.037,-147.9,29.5,-76.1,1023,2018,5,17,20,30,56.362,-0.9324,-0.0735,-0.3448,0.0786
0.299,1.207,-1.488,-80.9,-14.4,-56,1023,2018,5,17,20,30,56.398,-0.926,-0.0804,-0.3626,0.0664
0.394,1.329,-1.496,27.8,-49.7,-14.7,1023,2018,5,17,20,30,56.421,-0.9253,-0.077,-0.3668,0.0576
0.178,1.222,-1.244,138.4,-19.9,49.8,1023,2018,5,17,20,30,56.426,-0.9311,-0.0689,-0.3531,0.059
-0.085,1.32,-0.907,206.4,-7.2,103,1023,2018,5,17,20,30,56.442,-0.9407,-0.0612,-0.3251,0.0738
-0.784,0.119,0.372,240.1,-70.5,97.9,1023,2018,5,17,20,30,56.465,-0.9519,-0.0463,-0.2889,0.0907
-1.384,-2.215,1.598,187.1,-54,93.7,0,2018,5,17,20,30,56.484,-0.9611,-0.0261,-0.2542,0.1038
-0.639,-2,2.021,29,16.2,28.8,0,2018,5,17,20,30,56.506,-0.9647,-0.0198,-0.2365,0.1135
0.283,-0.855,1.725,-129.5,-21,-53.8,0,2018,5,17,20,30,56.523,-0.9625,-0.022,-0.2464,0.1105
0.088,-0.472,1.015,-212.4,-23.9,-86.8,0,2018,5,17,20,30,56.558,-0.9559,-0.0237,-0.2764,0.0956
-0.453,0.104,-0.182,-238.9,-7.7,-92.2,0,2018,5,17,20,30,56.581,-0.9453,-0.03,-0.3148,0.079
-0.355,0.824,-1.126,-210,-42.2,-95.6,0,2018,5,17,20,30,56.586,-0.9333,-0.0348,-0.3521,0.0607
0.23,1.231,-1.567,-110.5,-71.1,-69.6,0,2018,5,17,20,30,56.602,-0.9241,-0.0318,-0.3784,0.0421
0.572,1.071,-1.628,11.4,-48.3,-3.9,0,2018,5,17,20,30,56.625,-0.9216,-0.0241,-0.3859,0.0314
0.466,0.871,-1.383,120.8,15.7,67.8,0,2018,5,17,20,30,56.662,-0.9261,-0.0189,-0.3748,0.0364
0.008,0.924,-0.991,223.4,36.9,100.2,0,2018,5,17,20,30,56.684,-0.9364,-0.0175,-0.3463,0.0535
-0.868,-0.331,0.234,268.5,12.9,75.4,0,2018,5,17,20,30,56.689,-0.9498,-0.0137,-0.3042,0.0703
-1.223,-1.994,1.558,175.3,-3.5,38.8,0,2018,5,17,20,30,56.707,-0.9606,-0.0086,-0.2658,0.0802
-0.317,-1.34,2.03,18.4,-28.1,-35.8,0,2018,5,17,20,30,56.728,-0.9647,-0.0059,-0.2504,0.0802
0.317,-0.645,1.614,-111.6,-61.6,-95.2,0,2018,5,17,20,30,56.743,-0.9632,-0.0008,-0.2605,0.0654
-0.11,-0.348,0.885,-183.9,10,-100.6,0,2018,5,17,20,30,56.763,-0.9569,-0.0024,-0.2862,0.0471
-0.518,0.27,-0.05,-216.8,21.6,-103.9,0,2018,5,17,20,30,56.785,-0.9467,-0.0138,-0.3202,0.0313
-0.45,1.011,-0.859,-199,-67.9,-114.2,0,2018,5,17,20,30,56.802,-0.9347,-0.0177,-0.3546,0.0111
0.135,1.663,-1.38,-104.6,-124.5,-94.2,1023,2018,5,17,20,30,56.825,-0.9246,-0.007,-0.3804,-0.0139
0.499,1.301,-1.498,8.5,-43.3,17.5,1023,2018,5,17,20,30,56.843,-0.9218,0.0053,-0.3866,-0.027
0.301,1.542,-1.339,112.1,54.1,163.5,1023,2018,5,17,20,30,56.866,-0.9263,0.0086,-0.3763,-0.0095
-0.043,1.162,-1.287,213.6,71.8,223.8,1023,2018,5,17,20,30,56.885,-0.9366,0.0111,-0.3489,0.0273
-0.969,-0.359,-0.184,287.4,36.4,185.7,1023,2018,5,17,20,30,56.908,-0.9499,0.0161,-0.3051,0.0645
-1.339,-2.344,0.984,212.4,-22.7,93.8,1023,2018,5,17,20,30,56.942,-0.9609,0.0264,-0.2615,0.0868
-0.498,-2.243,1.698,95.5,0.9,14.5,1023,2018,5,17,20,30,56.965,-0.9666,0.0326,-0.2356,0.0942
0.036,-1.202,1.561,-42.6,24.7,-53.9,1023,2018,5,17,20,30,56.97,-0.9681,0.0297,-0.2318,0.0901
-0.052,-0.319,1.144,-134.9,46.7,-81.1,1023,2018,5,17,20,30,57.005,-0.9653,0.0187,-0.2476,0.0798
-0.41,0.618,0.259,-195.7,16.3,-79.4,1023,2018,5,17,20,30,57.028,-0.9586,0.0066,-0.2761,0.0685
-0.125,1.43,-0.408,-190.5,-71.5,-69.9,1023,2018,5,17,20,30,57.033,-0.9492,0.0055,-0.3096,0.0542
-0.047,1.667,-0.823,-121.6,-93.1,-26,1023,2018,5,17,20,30,57.049,-0.9406,0.016,-0.3365,0.0408
0.131,1.346,-0.898,-35.5,-19.7,82.8,1023,2018,5,17,20,30,57.066,-0.9355,0.0273,-0.3494,0.0421
-0.017,1.204,-0.852,48.5,69.5,189.1,1023,2018,5,17,20,30,57.089,-0.9349,0.0312,-0.3468,0.0674
-0.394,1.058,-0.597,117.4,47.9,221.4,1023,2018,5,17,20,30,57.106,-0.9372,0.0334,-0.3305,0.1059
-0.837,0.045,-0.099,113.3,-121,180.8,1023,2018,5,17,20,30,57.129,-0.9395,0.0532,-0.3096,0.1364
-0.791,-1.093,0.074,57.9,-198,132.1,1023,2018,5,17,20,30,57.148,-0.9381,0.0919,-0.2977,0.1511
-0.582,-0.99,0.305,-6.5,-173.3,96.9,1023,2018,5,17,20,30,57.171,-0.9328,0.1285,-0.2965,0.1593
-0.047,-0.906,0.355,-72.3,-209.3,33.9,0,2018,5,17,20,30,57.19,-0.9242,0.1605,-0.3067,0.161
0.389,-0.964,0.284,-139.4,-301.9,-45.1,0,2018,5,17,20,30,57.208,-0.9101,0.1985,-0.3315,0.1492
0.456,-1.479,0.138,-164.1,-284.7,-116.1,0,2018,5,17,20,30,57.231,-0.8907,0.2384,-0.3669,0.1226
0.259,-1.765,-0.071,-135.8,-86.4,-136.7,0,2018,5,17,20,30,57.268,-0.8748,0.2558,-0.3997,0.0967
0.198,-1.039,-0.244,-117.6,24.2,-180,0,2018,5,17,20,30,57.292,-0.8678,0.2437,-0.4256,0.0786
0.168,-0.521,-0.261,-107.1,-52.6,-263.2,0,2018,5,17,20,30,57.296,-0.8612,0.2274,-0.4518,0.0486
0.057,-0.093,-0.233,-82.2,-99.1,-302.8,0,2018,5,17,20,30,57.309,-0.8516,0.2155,-0.4776,0.0023
-0.177,0.671,-0.232,-53,-127.2,-297.5,0,2018,5,17,20,30,57.346,-0.8406,0.2066,-0.4982,-0.0491
-0.253,0.939,-0.4,-21.9,-157.7,-263.2,0,2018,5,17,20,30,57.368,-0.8282,0.2037,-0.512,-0.1015
-0.327,1.231,-0.407,14.2,-142.9,-179.4,0,2018,5,17,20,30,57.373,-0.8176,0.2056,-0.5173,-0.1469
-0.345,1.782,-0.309,57.2,-136.6,-59.9,0,2018,5,17,20,30,57.389,-0.8124,0.2138,-0.5124,-0.1775
-0.363,1.376,0.223,100.3,-82.3,66.9,0,2018,5,17,20,30,57.41,-0.8155,0.2281,-0.4967,-0.1899
-0.293,0.148,0.482,115.5,49.5,158.9,0,2018,5,17,20,30,57.428,-0.8281,0.2371,-0.4755,-0.1781
0.015,-1.014,0.312,85.8,58.5,122.4,0,2018,5,17,20,30,57.452,-0.8442,0.2361,-0.4559,-0.1536
0.227,-1.976,0.511,31.1,-39.4,-16.6,0,2018,5,17,20,30,57.47,-0.8501,0.2384,-0.4453,-0.1485
0.36,-1.454,0.686,-20.1,-16.5,-123.9,1023,2018,5,17,20,30,57.494,-0.8468,0.2376,-0.4472,-0.1624
0.088,-0.526,0.482,-56.1,4.9,-183.7,1023,2018,5,17,20,30,57.51,-0.8387,0.2265,-0.4596,-0.1841
-0.218,0.241,0.083,-81.5,-32.5,-215.2,1023,2018,5,17,20,30,57.546,-0.8256,0.214,-0.4773,-0.2112
-0.12,0.823,-0.415,-81.4,-122.4,-221.8,1023,2018,5,17,20,30,57.569,-0.8067,0.2098,-0.4944,-0.2463
-0.332,1.051,-0.462,-40.1,-155.9,-163.4,1023,2018,5,17,20,30,57.574,-0.7867,0.2163,-0.5035,-0.2839
-0.364,1.1,-0.317,8.3,-83.2,-58.5,1023,2018,5,17,20,30,57.59,-0.775,0.2241,-0.5032,-0.3095
-0.453,1.276,-0.153,40.3,5.4,62.6,1023,2018,5,17,20,30,57.614,-0.7763,0.2278,-0.4975,-0.3128
-0.552,1.363,-0.21,51.7,44.1,161.7,1023,2018,5,17,20,30,57.631,-0.788,0.2308,-0.488,-0.2958
-0.565,1.194,-0.129,48.1,2.9,219.4,1023,2018,5,17,20,30,57.654,-0.8029,0.2411,-0.4745,-0.2681
-0.628,0.488,0.324,43.4,-49.5,247.8,1023,2018,5,17,20,30,57.672,-0.8157,0.2627,-0.4566,-0.2388
-0.565,-0.371,0.312,21,-17.2,257.7,1023,2018,5,17,20,30,57.694,-0.8265,0.2865,-0.4382,-0.2064
-0.097,-1.252,0.098,-21.4,-40.6,210.4,1023,2018,5,17,20,30,57.731,-0.8333,0.3076,-0.4254,-0.173
0.515,-2.765,-0.211,-44.7,-83.2,76.6,1023,2018,5,17,20,30,57.754,-0.8306,0.3297,-0.4209,-0.1552
0.951,-2.728,0.063,-20.8,-8.2,-68.6,1023,2018,5,17,20,30,57.759,-0.825,0.338,-0.4248,-0.1567
0.719,-1.653,0.087,6.7,83.9,-169.3,1023,2018,5,17,20,30,57.774,-0.8235,0.3225,-0.434,-0.1712
0.045,-0.771,-0.118,4.4,95.9,-231.9,1023,2018,5,17,20,30,57.795,-0.8228,0.2925,-0.4472,-0.193
-0.472,0.046,-0.331,2.2,27.8,-282.2,1023,2018,5,17,20,30,57.814,-0.8166,0.2627,-0.4618,-0.2251
-0.74,0.836,-0.143,12.1,-33.1,-270,1023,2018,5,17,20,30,57.837,-0.8045,0.2406,-0.473,-0.2662
-0.867,1.676,0.062,22.8,1.6,-164.6,0,2018,5,17,20,30,57.852,-0.7942,0.2244,-0.4784,-0.2997
-0.807,2.528,0.132,13.7,43.9,0.7,0,2018,5,17,20,30,57.876,-0.7928,0.2126,-0.4803,-0.3089
-0.715,2.608,0.02,3.8,-19.9,140.8,0,2018,5,17,20,30,57.894,-0.7983,0.2162,-0.4775,-0.2962
-0.728,1.51,-0.046,2.2,-91.9,228.8,0,2018,5,17,20,30,57.932,-0.8053,0.2411,-0.4663,-0.2753
-0.675,0.25,-0.037,9.3,-37.9,281.9,0,2018,5,17,20,30,57.932,-0.8144,0.2716,-0.4507,-0.2442
-0.377,-1.203,-0.091,13.6,-12.5,279.7,0,2018,5,17,20,30,57.955,-0.8258,0.2952,-0.4346,-0.2046
0.35,-2.282,-0.119,-7.6,-125.5,142.8,0,2018,5,17,20,30,57.994,-0.8291,0.3217,-0.4206,-0.1789
0.972,-3.216,0.126,-8.6,-90.8,-5.2,0,2018,5,17,20,30,57.994,-0.8229,0.3448,-0.4146,-0.1783
0.997,-2.372,0.469,3,46.4,-133.6,0,2018,5,17,20,30,58.017,-0.8193,0.342,-0.4191,-0.1896
0.326,-1.211,0.255,4.4,111.6,-224.2,0,2018,5,17,20,30,58.036,-0.8183,0.3156,-0.4322,-0.2093
-0.457,-0.09,-0.1,-15,75.3,-275.1,0,2018,5,17,20,30,58.059,-0.8133,0.282,-0.4501,-0.2373
-0.904,1.035,-0.252,-30.2,-11.3,-263,0,2018,5,17,20,30,58.076,-0.8004,0.2572,-0.4679,-0.2723
-1.02,1.576,-0.374,-22.4,-9.3,-172.4,0,2018,5,17,20,30,58.112,-0.786,0.2432,-0.4804,-0.3034
-0.713,2.044,-0.397,-2.6,36.4,-26.7,0,2018,5,17,20,30,58.135,-0.7803,0.2333,-0.4873,-0.3147
-0.563,2.059,-0.479,32.6,32.7,109,1023,2018,5,17,20,30,58.14,-0.7857,0.2313,-0.4855,-0.3054
-0.644,1.647,-0.465,53.1,5.3,207.3,1023,2018,5,17,20,30,58.155,-0.7988,0.24,-0.4737,-0.2823
-0.723,0.518,-0.206,56.4,-9.7,251.3,1023,2018,5,17,20,30,58.179,-0.8139,0.2577,-0.4553,-0.2524
-0.516,-0.703,0.059,73.9,63.9,271.8,1023,2018,5,17,20,30,58.196,-0.8305,0.2726,-0.4351,-0.2156
-0.061,-1.834,0.005,80.1,134.8,220.3,1023,2018,5,17,20,30,58.219,-0.8505,0.2722,-0.4148,-0.174
0.429,-1.942,0.395,33.1,-6.8,68.6,1023,2018,5,17,20,30,58.239,-0.8623,0.2703,-0.4011,-0.1498
0.754,-1.937,0.769,-21.6,-79.7,-81.2,1023,2018,5,17,20,30,58.258,-0.8592,0.2783,-0.3997,-0.1564
0.428,-1.254,0.723,-45.2,-30,-166.4,1023,2018,5,17,20,30,58.281,-0.8499,0.2787,-0.41,-0.178
-0.027,-0.838,0.25,-51.6,3,-214.9,1023,2018,5,17,20,30,58.3,-0.8393,0.2679,-0.4265,-0.2042
-0.295,-0.327,-0.187,-43.8,3.6,-248.4,1023,2018,5,17,20,30,58.318,-0.8269,0.2511,-0.4445,-0.2355
-0.544,0.436,-0.291,-26.8,-18,-242.2,1023,2018,5,17,20,30,58.342,-0.8127,0.2341,-0.4599,-0.2703
-0.563,1.249,-0.104,-13.8,-6.3,-179.9,1023,2018,5,17,20,30,58.358,-0.8,0.2199,-0.4701,-0.3008
-0.755,1.831,-0.002,-15.1,32,-57.5,1023,2018,5,17,20,30,58.377,-0.7931,0.2089,-0.4773,-0.3154
-0.652,2.047,0.083,-13.9,37.3,76.4,1023,2018,5,17,20,30,58.43,-0.7938,0.2057,-0.4813,-0.3094
-0.616,1.607,0.206,6,37.4,194.6,1023,2018,5,17,20,30,58.434,-0.8021,0.2132,-0.4786,-0.2864
-0.557,1.079,0.262,9.3,74.7,271.3,1023,2018,5,17,20,30,58.439,-0.8162,0.2246,-0.4709,-0.2479
-0.678,0.241,0.227,-3.2,65,299.7,1023,2018,5,17,20,30,58.476,-0.8307,0.2376,-0.4618,-0.2001
-0.438,-1.666,-0.054,-11.9,50.7,280.7,1023,2018,5,17,20,30,58.497,-0.8414,0.2525,-0.4529,-0.1517
0.44,-3.102,-0.374,-18.1,14.1,136.9,1023,2018,5,17,20,30,58.499,-0.8466,0.2648,-0.4464,-0.1171
1.13,-3.123,-0.089,-10.7,19.7,-55.2,1023,2018,5,17,20,30,58.537,-0.8464,0.2664,-0.4474,-0.1111
0.876,-1.543,0.099,-3.1,87.8,-173.6,0,2018,5,17,20,30,58.56,-0.8458,0.2484,-0.4552,-0.1245
0.012,-0.432,-0.082,-1.3,103.1,-227.5,0,2018,5,17,20,30,58.565,-0.845,0.2168,-0.4662,-0.1466
-0.619,0.29,-0.253,1.2,54.5,-248.4,0,2018,5,17,20,30,58.583,-0.841,0.1851,-0.4769,-0.1757
-0.806,1.164,-0.025,1.9,22,-198.9,0,2018,5,17,20,30,58.619,-0.8346,0.161,-0.4847,-0.206
-0.766,2.078,0.05,-7.2,30,-89.7,0,2018,5,17,20,30,58.619,-0.8295,0.1455,-0.49,-0.2247
-0.649,2.366,0.034,-12.1,26.9,46,0,2018,5,17,20,30,58.64,-0.8288,0.1399,-0.4931,-0.2241
-0.569,1.88,-0.122,0.8,-3.5,166.9,0,2018,5,17,20,30,58.657,-0.8326,0.1484,-0.4919,-0.2066
-0.532,1.192,-0.184,26.7,0,249,0,2018,5,17,20,30,58.679,-0.8408,0.1671,-0.4837,-0.1759
-0.636,0.498,-0.216,37.4,-0.8,281.5,0,2018,5,17,20,30,58.717,-0.8511,0.1883,-0.4703,-0.1369
-0.341,-0.981,-0.179,28.3,-41,261,0,2018,5,17,20,30,58.738,-0.8587,0.2126,-0.4556,-0.0983
0.24,-2.826,-0.23,8.6,-111.5,146,0,2018,5,17,20,30,58.741,-0.8599,0.2412,-0.4435,-0.0742
0.914,-3.221,0.081,-3.9,-87,-27.8,0,2018,5,17,20,30,58.775,-0.8559,0.2617,-0.4394,-0.0748
0.936,-1.981,0.409,-1.7,25.1,-150.7,0,2018,5,17,20,30,58.797,-0.8529,0.2584,-0.4441,-0.0916
0.181,-0.755,0.209,-2.3,82.2,-213.1,0,2018,5,17,20,30,58.803,-0.8522,0.2342,-0.4535,-0.1144
-0.531,0.129,-0.063,-11.9,32.3,-246.8,0,2018,5,17,20,30,58.838,-0.8489,0.2065,-0.4649,-0.1433
-0.701,0.701,-0.114,-16.3,-64.7,-244.8,1023,2018,5,17,20,30,58.838,-0.8399,0.1894,-0.4752,-0.1809
-0.721,1.211,0.013,-22.2,-107.1,-191.3,1023,2018,5,17,20,30,58.858,-0.8275,0.1852,-0.482,-0.22
-0.687,1.754,0.156,-20.5,-77.8,-88,1023,2018,5,17,20,30,58.895,-0.8166,0.1883,-0.486,-0.2477
-0.696,2.061,0.122,-15.5,-15.1,62.2,1023,2018,5,17,20,30,58.917,-0.8132,0.1944,-0.4869,-0.2521
-0.676,1.763,0.008,-3.2,24.2,204.4,1023,2018,5,17,20,30,58.922,-0.8185,0.2059,-0.4839,-0.2308
-0.561,1.069,-0.096,19.1,31.1,277.7,1023,2018,5,17,20,30,58.96,-0.8296,0.2221,-0.4746,-0.1926
-0.397,-0.208,-0.328,7.9,-33.8,278,1023,2018,5,17,20,30,58.982,-0.8396,0.2443,-0.4608,-0.1515
0.07,-2.589,-0.374,-12.6,-106.5,178.5,1023,2018,5,17,20,30,58.983,-0.8413,0.2743,-0.449,-0.1232
0.865,-3.549,-0.149,5.8,-34.7,30.8,1023,2018,5,17,20,30,59.022,-0.839,0.2942,-0.4431,-0.1142
1.088,-2.28,0.214,34.6,102.5,-102.7,1023,2018,5,17,20,30,59.044,-0.842,0.2843,-0.4428,-0.1184
0.357,-0.801,0.109,33,124.5,-191.1,1023,2018,5,17,20,30,59.046,-0.8472,0.2533,-0.4475,-0.1329
-0.585,0.36,0.021,8,32,-234.1,1023,2018,5,17,20,30,59.081,-0.8468,0.2235,-0.4555,-0.1593
-0.917,1.146,0.104,-11.7,-65.8,-211.3,1023,2018,5,17,20,30,59.103,-0.8385,0.2088,-0.4638,-0.1949
-0.899,1.672,0.145,-24.9,-59.9,-110.5,1023,2018,5,17,20,30,59.104,-0.8282,0.2072,-0.47,-0.2238
-0.657,1.825,0.303,-31.7,21.1,29.7,1023,2018,5,17,20,30,59.141,-0.8236,0.208,-0.475,-0.2294
-0.564,1.491,0.143,-19.2,84,169,1023,2018,5,17,20,30,59.163,-0.8274,0.2099,-0.4772,-0.2085
-0.481,0.874,-0.066,0.8,143.4,278.5,0,2018,5,17,20,30,59.164,-0.8383,0.2128,-0.474,-0.165
-0.373,-0.165,-0.268,40.1,220.6,354.9,0,2018,5,17,20,30,59.2,-0.8542,0.2117,-0.4632,-0.1034
-0.294,-0.851,-0.183,58,251.2,372,0,2018,5,17,20,30,59.221,-0.8717,0.2037,-0.4446,-0.0303
-0.134,-2.03,0.28,78.3,335.4,321.3,0,2018,5,17,20,30,59.224,-0.8864,0.1862,-0.4215,0.0422
0.05,-2.291,0.897,73.1,485.6,245.5,0,2018,5,17,20,30,59.259,-0.9003,0.143,-0.395,0.1133
0.075,-1.159,0.949,9.1,578.2,139.7,0,2018,5,17,20,30,59.279,-0.909,0.0702,-0.3697,0.1787
0.036,0.073,0.839,-92.3,447.2,65.3,0,2018,5,17,20,30,59.285,-0.9058,-0.0092,-0.3577,0.2266
-0.35,0.268,0.686,-180.7,258.3,43.2,0,2018,5,17,20,30,59.32,-0.8927,-0.0662,-0.3652,0.2554
-0.328,-0.101,0.403,-223.9,145.9,17.3,0,2018,5,17,20,30,59.34,-0.8747,-0.103,-0.3898,0.2687
-0.147,-1.058,-0.451,-220.2,228.6,22.5,0,2018,5,17,20,30,59.347,-0.8547,-0.1387,-0.4153,0.2787
0.283,-0.689,-1.63,-212.9,329.1,39,0,2018,5,17,20,30,59.384,-0.828,-0.1913,-0.4336,0.2994
0.586,0.05,-2.187,-124.1,190.1,-11.4,0,2018,5,17,20,30,59.384,-0.8037,-0.2376,-0.4444,0.3163
0.633,-0.121,-1.968,21.6,27.7,-110.6,0,2018,5,17,20,30,59.404,-0.7992,-0.2595,-0.4427,0.3128
0.323,-0.352,-1.345,142.5,-27.9,-149.6,0,2018,5,17,20,30,59.44,-0.8136,-0.2633,-0.4246,0.2969
-0.235,0.509,-0.379,201.3,-13.4,-168.6,0,2018,5,17,20,30,59.46,-0.8355,-0.2628,-0.3924,0.2806
-0.81,1.149,0.891,176.8,-31.2,-145.4,0,2018,5,17,20,30,59.464,-0.8569,-0.2613,-0.357,0.2642
-1.102,0.807,1.544,75,18.7,-33.8,0,2018,5,17,20,30,59.499,-0.8696,-0.2586,-0.3341,0.2551
-1.027,0.979,1.512,-36,82.8,76.9,1023,2018,5,17,20,30,59.519,-0.8664,-0.2654,-0.3304,0.2637
-0.673,0.717,0.971,-121.8,73.6,127.3,1023,2018,5,17,20,30,59.526,-0.8524,-0.2754,-0.3442,0.2808
-0.324,0.039,0.352,-167.8,47.2,136.8,1023,2018,5,17,20,30,59.563,-0.8336,-0.2831,-0.3698,0.2968
-0.038,-0.495,-0.277,-184.4,66.4,137.4,1023,2018,5,17,20,30,59.583,-0.8115,-0.2911,-0.3995,0.3112
0.209,-0.668,-0.926,-172.8,89.2,127.2,1023,2018,5,17,20,30,59.587,-0.7868,-0.3029,-0.4272,0.3264
0.446,-0.698,-1.358,-103.3,49.4,81,1023,2018,5,17,20,30,59.623,-0.7657,-0.3131,-0.4478,0.3391
0.607,-0.844,-1.563,10.7,-32.2,-6.1,1023,2018,5,17,20,30,59.642,-0.7595,-0.314,-0.4555,0.3419
0.434,-0.934,-1.32,117,-80.5,-79.9,1023,2018,5,17,20,30,59.645,-0.771,-0.3053,-0.4473,0.3347
0.154,-0.836,-0.825,189.4,-118.7,-141.5,1023,2018,5,17,20,30,59.681,-0.7948,-0.2913,-0.4256,0.3197
-0.123,-0.645,-0.177,233.5,-117.3,-192.6,1023,2018,5,17,20,30,59.705,-0.8252,-0.2742,-0.3937,0.2977
-0.571,0.43,0.824,222.4,-106.8,-224.6,1023,2018,5,17,20,30,59.709,-0.8561,-0.2603,-0.3552,0.2701
-0.871,0.936,1.68,131.7,-84.8,-160.9,1023,2018,5,17,20,30,59.727,-0.8804,-0.2486,-0.3235,0.2415
-0.827,1.251,1.841,5.4,16.1,-26.7,1023,2018,5,17,20,30,59.749,-0.8893,-0.2457,-0.3107,0.2283
-0.621,1.221,1.422,-101,93,88.3,1023,2018,5,17,20,30,59.785,-0.8822,-0.2554,-0.318,0.2352
-0.411,0.622,0.766,-171.1,115.7,154.3,1023,2018,5,17,20,30,59.806,-0.8636,-0.2706,-0.3409,0.2543
-0.246,-0.19,0.018,-191.3,113.4,171.2,1023,2018,5,17,20,30,59.811,-0.8388,-0.2859,-0.3712,0.2771
-0.092,-0.801,-0.894,-189.1,100.1,166.4,1023,2018,5,17,20,30,59.85,-0.8117,-0.2996,-0.4021,0.2992
0.219,-1.188,-1.593,-134.4,53.3,121.2,1023,2018,5,17,20,30,59.85,-0.7876,-0.309,-0.4287,0.3167
0.63,-1.457,-1.853,-5.3,-28.6,19.9,0,2018,5,17,20,30,59.873,-0.7773,-0.3093,-0.442,0.3234
0.553,-1.213,-1.739,137.2,-96.3,-92.2,0,2018,5,17,20,30,59.911,-0.7888,-0.299,-0.4336,0.3166
0.228,-0.823,-1.114,224.9,-143.3,-176.6,0,2018,5,17,20,30,59.932,-0.8161,-0.2821,-0.407,0.2975
-0.547,0.257,0.12,282.4,-153.3,-230.2,0,2018,5,17,20,30,59.936,-0.851,-0.2617,-0.3666,0.2696
-1.136,0.935,1.459,229.5,-135.6,-177.5,0,2018,5,17,20,30,59.953,-0.883,-0.2405,-0.3238,0.2395
-1.231,1.168,2.072,101.3,0.9,-25.5,0,2018,5,17,20,30,59.969,-0.8989,-0.2283,-0.297,0.2267
-0.977,1.533,1.868,-24.9,90.2,97.4,0,2018,5,17,20,30,59.99,-0.8965,-0.234,-0.2912,0.2379
-0.624,0.986,1.206,-132.4,75.3,169.6,0,2018,5,17,20,31,0.026,-0.8824,-0.244,-0.3061,0.2606
-0.279,-0.101,0.518,-192.2,56,194.8,0,2018,5,17,20,31,0.049,-0.8613,-0.2511,-0.337,0.2851
-0.031,-1.01,-0.481,-204.6,67.3,189.9,0,2018,5,17,20,31,0.054,-0.836,-0.2585,-0.3725,0.3087
0.28,-1.475,-1.352,-166.6,74,139,0,2018,5,17,20,31,0.089,-0.8103,-0.2685,-0.4033,0.3294
0.621,-1.584,-1.905,-49.4,14.6,20.5,0,2018,5,17,20,31,0.112,-0.7953,-0.276,-0.4197,0.3392
0.521,-1.304,-1.728,84.4,-75.4,-106.8,0,2018,5,17,20,31,0.117,-0.8015,-0.2735,-0.4159,0.3313
0.325,-1.081,-1.168,173.9,-146.8,-201.9,0,2018,5,17,20,31,0.135,-0.8254,-0.2609,-0.3958,0.3063
-0.208,-0.25,-0.251,230,-134.1,-250.3,0,2018,5,17,20,31,0.151,-0.8571,-0.2441,-0.3628,0.2721
-0.866,0.85,0.991,226.1,-140.2,-247.6,0,2018,5,17,20,31,0.17,-0.8883,-0.2282,-0.3224,0.2341
-1.195,1.205,1.756,115.1,-61.8,-123.9,1023,2018,5,17,20,31,0.192,-0.9091,-0.2144,-0.2921,0.2051
-1.009,1.648,1.928,-13.4,42.5,18.3,1023,2018,5,17,20,31,0.228,-0.9131,-0.2151,-0.2828,0.1996
-0.62,1.266,1.372,-118.3,63,121.9,1023,2018,5,17,20,31,0.251,-0.9046,-0.223,-0.2948,0.2119
-0.386,0.389,0.688,-186.9,66.9,176.8,1023,2018,5,17,20,31,0.255,-0.8874,-0.2308,-0.3235,0.2333
-0.202,-0.535,-0.049,-198.6,70.9,173.8,1023,2018,5,17,20,31,0.272,-0.8652,-0.2393,-0.358,0.2567
-0.006,-1.056,-0.93,-169.9,58.4,146.6,1023,2018,5,17,20,31,0.294,-0.8425,-0.2475,-0.3896,0.2773
0.192,-1.312,-1.401,-92.9,11.3,73.4,1023,2018,5,17,20,31,0.331,-0.8261,-0.2513,-0.4124,0.2901
0.447,-1.602,-1.522,11.7,-36.4,-30.3,1023,2018,5,17,20,31,0.352,-0.823,-0.2495,-0.4197,0.29
0.465,-1.146,-1.266,101.3,-57.7,-125,1023,2018,5,17,20,31,0.358,-0.8335,-0.2457,-0.4095,0.2776
0.206,-0.573,-0.808,165.7,-106.1,-196,1023,2018,5,17,20,31,0.374,-0.8541,-0.2385,-0.3864,0.2532
-0.392,0.297,0.279,201.9,-104.1,-232.4,1023,2018,5,17,20,31,0.397,-0.8799,-0.2285,-0.3531,0.2208
-0.818,1.13,1.187,147.2,-68.6,-160.7,1023,2018,5,17,20,31,0.415,-0.9014,-0.2202,-0.32,0.1908
-0.766,1.551,1.503,39.2,22.6,-15.1,1023,2018,5,17,20,31,0.438,-0.91,-0.2182,-0.3031,0.1793
-0.53,1.491,1.376,-55.8,110.7,108.1,1023,2018,5,17,20,31,0.454,-0.9048,-0.2274,-0.3049,0.191
-0.336,0.922,0.768,-122.6,135.1,187.9,1023,2018,5,17,20,31,0.492,-0.8889,-0.2428,-0.3211,0.2184
-0.246,0.016,0.236,-146.6,111.9,210.7,1023,2018,5,17,20,31,0.515,-0.8669,-0.2557,-0.3462,0.251
-0.123,-0.846,-0.311,-139.9,74.1,186.3,0,2018,5,17,20,31,0.52,-0.8443,-0.2637,-0.3729,0.2801
-0.057,-1.514,-0.757,-99.6,45,130.8,0,2018,5,17,20,31,0.536,-0.8253,-0.2675,-0.395,0.3017
0.21,-1.784,-1.042,-46.4,37.4,39.8,0,2018,5,17,20,31,0.572,-0.8136,-0.2713,-0.4074,0.3135
0.273,-1.325,-1.008,29.2,-4.4,-85.2,0,2018,5,17,20,31,0.595,-0.8135,-0.2765,-0.4059,0.3113
0.188,-0.703,-0.755,87.1,-119.7,-199.4,0,2018,5,17,20,31,0.597,-0.8286,-0.2747,-0.3932,0.2886
-0.154,-0.174,-0.22,134,-188.8,-262.7,0,2018,5,17,20,31,0.617,-0.8551,-0.261,-0.373,0.2478
-0.522,0.457,0.554,143.9,-156.8,-246.6,0,2018,5,17,20,31,0.64,-0.8825,-0.2444,-0.3467,0.2029
-0.587,1.123,1.001,94.7,-47.1,-136.5,0,2018,5,17,20,31,0.658,-0.9002,-0.2359,-0.3232,0.1715
-0.638,1.657,1.171,21.3,60.3,4.2,0,2018,5,17,20,31,0.681,-0.9046,-0.2397,-0.3112,0.165
-0.429,1.422,0.956,-47.7,123.9,118.6,0,2018,5,17,20,31,0.697,-0.8976,-0.2518,-0.3136,0.18
-0.213,0.698,0.64,-89.4,160.8,199.2,0,2018,5,17,20,31,0.716,-0.8813,-0.2675,-0.3276,0.2102
-0.12,-0.22,0.055,-99.6,162.4,228.8,0,2018,5,17,20,31,0.752,-0.8589,-0.2833,-0.3465,0.2485
-0.067,-0.901,-0.246,-89.7,143.1,195.3,0,2018,5,17,20,31,0.775,-0.8349,-0.2975,-0.3644,0.2854
-0.026,-1.432,-0.585,-52.7,72,101.4,0,2018,5,17,20,31,0.78,-0.8166,-0.3074,-0.3771,0.3102
0.156,-1.485,-0.699,-15.4,-3.6,-16.8,0,2018,5,17,20,31,0.796,-0.8103,-0.3113,-0.3823,0.3165
0.215,-1.078,-0.646,30.4,-91.9,-132.7,0,2018,5,17,20,31,0.821,-0.8179,-0.3092,-0.3794,0.3023
0.096,-0.61,-0.525,66.5,-160.2,-206.1,0,2018,5,17,20,31,0.839,-0.8369,-0.2991,-0.3694,0.271
-0.186,0.344,0.054,95.2,-168.1,-232.1,0,2018,5,17,20,31,0.858,-0.8606,-0.2848,-0.3528,0.2315
-0.513,1.168,0.661,75.8,-89,-158.5,1023,2018,5,17,20,31,0.878,-0.8803,-0.2732,-0.3339,0.197
-0.468,1.643,0.896,7.8,29.1,-9.9,1023,2018,5,17,20,31,0.899,-0.8866,-0.2724,-0.3248,0.1846
-0.258,1.373,0.733,-37.4,105.9,108.2,1023,2018,5,17,20,31,0.923,-0.8801,-0.2811,-0.328,0.1965
-0.037,0.648,0.263,-62.4,143.9,182.5,1023,2018,5,17,20,31,0.939,-0.8651,-0.2939,-0.3387,0.2244
-0.001,-0.237,-0.031,-67.4,162.2,203.1,1023,2018,5,17,20,31,0.956,-0.8447,-0.3078,-0.3521,0.26
0.085,-0.947,-0.297,-56.6,147.9,166.3,1023,2018,5,17,20,31,0.979,-0.8229,-0.3221,-0.364,0.2939
0.061,-1.339,-0.541,-25.6,75.9,77.7,1023,2018,5,17,20,31,1.016,-0.807,-0.3332,-0.3708,0.3165
0.126,-1.205,-0.618,23.2,-45.3,-53.5,1023,2018,5,17,20,31,1.039,-0.8056,-0.3346,-0.3709,0.3185
0.05,-0.909,-0.589,70.1,-147.1,-165,1023,2018,5,17,20,31,1.043,-0.8208,-0.3249,-0.3625,0.2985
0.014,-0.483,-0.44,101.3,-216.3,-219.5,1023,2018,5,17,20,31,1.059,-0.8463,-0.3057,-0.3482,0.2627
-0.253,0.108,0.072,125.4,-204,-229.2,1023,2018,5,17,20,31,1.082,-0.8739,-0.2818,-0.328,0.2217
-0.44,0.747,0.568,101,-121.1,-167.8,1023,2018,5,17,20,31,1.102,-0.8957,-0.2635,-0.3053,0.1868
-0.504,1.222,0.839,33.8,-14.1,-42.7,1023,2018,5,17,20,31,1.12,-0.9054,-0.2568,-0.2919,0.1699
-0.378,1.283,0.865,-20.6,71.4,76.4,1023,2018,5,17,20,31,1.144,-0.9035,-0.2607,-0.2914,0.1754
-0.189,0.879,0.619,-54.4,113.6,153.9,1023,2018,5,17,20,31,1.18,-0.8929,-0.2711,-0.3001,0.1975
-0.028,0.216,0.201,-72.8,125.5,192.1,1023,2018,5,17,20,31,1.203,-0.877,-0.2829,-0.3141,0.2283
-0.021,-0.601,-0.068,-83.5,131.5,185.8,0,2018,5,17,20,31,1.208,-0.8579,-0.2947,-0.3301,0.2608
0.117,-1.077,-0.359,-68.3,97.9,120,0,2018,5,17,20,31,1.222,-0.8394,-0.3071,-0.3443,0.287
0.115,-1.312,-0.537,-7.6,-3.3,1.5,0,2018,5,17,20,31,1.24,-0.8314,-0.3126,-0.3504,0.2969
0.145,-1.137,-0.659,48,-109.5,-127.4,0,2018,5,17,20,31,1.263,-0.8395,-0.3065,-0.3467,0.2844
0.062,-0.526,-0.408,89.5,-177.2,-211.4,0,2018,5,17,20,31,1.279,-0.8598,-0.2916,-0.334,0.253
-0.165,0.339,0.266,107.8,-184.7,-229.4,0,2018,5,17,20,31,1.302,-0.8841,-0.2718,-0.3148,0.2129
-0.328,0.766,0.602,59.1,-125.3,-158.7,0,2018,5,17,20,31,1.321,-0.9029,-0.2547,-0.297,0.1773
-0.432,1.303,0.854,-20.2,12.7,-22.4,0,2018,5,17,20,31,1.342,-0.9089,-0.2501,-0.2918,0.1612
-0.255,1.297,0.664,-78.9,111.9,103.2,0,2018,5,17,20,31,1.378,-0.9018,-0.2602,-0.3004,0.1694
-0.144,0.86,0.257,-99.5,156.5,191,0,2018,5,17,20,31,1.401,-0.8852,-0.2768,-0.3177,0.1967
-0.049,0.021,-0.214,-89.6,139.4,224.9,0,2018,5,17,20,31,1.406,-0.8642,-0.2912,-0.3375,0.2331
-0.019,-0.782,-0.342,-51.4,107,180.2,0,2018,5,17,20,31,1.44,-0.8442,-0.3004,-0.3534,0.2682
0.082,-1.269,-0.441,9.8,20.9,62.6,0,2018,5,17,20,31,1.44,-0.8337,-0.3032,-0.3595,0.289
0.109,-1.432,-0.47,51.7,-46.6,-61.3,0,2018,5,17,20,31,1.462,-0.837,-0.2989,-0.3554,0.289
0.059,-0.802,-0.296,86.4,-111.1,-169.5,0,2018,5,17,20,31,1.499,-0.8511,-0.2915,-0.3427,0.2703
-0.071,-0.052,-0.061,125.4,-195.2,-246.3,0,2018,5,17,20,31,1.522,-0.8744,-0.2755,-0.323,0.2346
-0.294,0.41,0.296,136.9,-240,-275.4,0,2018,5,17,20,31,1.527,-0.9019,-0.2505,-0.2976,0.1872
-0.385,0.191,0.468,69.4,-178,-172.4,1023,2018,5,17,20,31,1.542,-0.9235,-0.2229,-0.2775,0.1425
-0.433,1.005,0.77,-31.3,63.4,9.1,1023,2018,5,17,20,31,1.565,-0.9278,-0.2184,-0.2731,0.129
-0.17,1.281,0.463,-81.1,157.2,128.3,1023,2018,5,17,20,31,1.602,-0.918,-0.2362,-0.2833,0.1449
-0.031,0.643,-0.004,-92.1,168.6,193.5,1023,2018,5,17,20,31,1.625,-0.9017,-0.2566,-0.2999,0.1758
0.033,-0.219,-0.262,-87.1,178.6,221.6,1023,2018,5,17,20,31,1.63,-0.8816,-0.2754,-0.3178,0.2141
0.029,-0.626,-0.34,-59.6,161.6,183.6,1023,2018,5,17,20,31,1.647,-0.8601,-0.2933,-0.3325,0.2521
0.045,-0.924,-0.3,3.3,18.5,44.8,1023,2018,5,17,20,31,1.666,-0.8479,-0.3022,-0.3386,0.2738
0.335,-1.577,-0.495,75.5,-116.1,-104.3,1023,2018,5,17,20,31,1.689,-0.8553,-0.2927,-0.3338,0.2667
0.067,-1.006,-0.57,121.5,-143.5,-196.6,1023,2018,5,17,20,31,1.71,-0.8748,-0.2768,-0.3162,0.2406
-0.072,-0.164,-0.148,149.2,-174,-226.6,1023,2018,5,17,20,31,1.723,-0.898,-0.2582,-0.2913,0.2048
-0.411,0.455,0.461,136.7,-163.8,-196.7,1023,2018,5,17,20,31,1.76,-0.9198,-0.2363,-0.2641,0.1679
-0.551,0.85,0.758,58.7,-72.2,-88.8,1023,2018,5,17,20,31,1.783,-0.933,-0.2202,-0.2459,0.1428
-0.364,1.307,0.892,-31.1,57.6,41.1,1023,2018,5,17,20,31,1.788,-0.9339,-0.2208,-0.2438,0.1398
-0.168,1.158,0.593,-83.4,134.5,143.5,1023,2018,5,17,20,31,1.804,-0.9245,-0.235,-0.255,0.1575
-0.119,0.575,0.248,-97,164.7,208.8,1023,2018,5,17,20,31,1.826,-0.9082,-0.2539,-0.273,0.1896
-0.063,-0.253,-0.149,-98.6,168.8,232.1,1023,2018,5,17,20,31,1.845,-0.8874,-0.2727,-0.2927,0.2286
-0.04,-0.785,-0.336,-83.6,144,196.4,0,2018,5,17,20,31,1.868,-0.8651,-0.2899,-0.3106,0.2662
-0.03,-0.987,-0.215,-34.4,15.5,79.9,0,2018,5,17,20,31,1.886,-0.8506,-0.2978,-0.3228,0.289
0.165,-1.574,-0.524,24,-116,-72.4,0,2018,5,17,20,31,1.909,-0.8537,-0.2886,-0.3266,0.2849
0.172,-1.108,-0.602,85.3,-135.5,-184.8,0,2018,5,17,20,31,1.928,-0.8696,-0.2742,-0.3172,0.2603
0.048,-0.178,-0.336,121.7,-182.9,-240.5,0,2018,5,17,20,31,1.951,-0.8919,-0.2573,-0.2974,0.223
-0.223,0.459,0.319,125.4,-191.6,-224.9,0,2018,5,17,20,31,1.969,-0.9151,-0.2339,-0.2736,0.1812
-0.498,0.962,0.766,58.6,-129.8,-130.9,0,2018,5,17,20,31,1.986,-0.9312,-0.213,-0.2561,0.1479
-0.471,1.287,0.932,-28.3,-7.6,6.8,0,2018,5,17,20,31,2.009,-0.9356,-0.2043,-0.2535,0.1358
-0.303,1.086,0.601,-91.8,109.2,130.3,0,2018,5,17,20,31,2.027,-0.9288,-0.2119,-0.2653,0.1481
-0.295,0.673,0.249,-109.4,160.2,203.9,0,2018,5,17,20,31,2.048,-0.9132,-0.2295,-0.2848,0.1792
-0.156,0.036,-0.143,-100.8,92.8,196,0,2018,5,17,20,31,2.066,-0.895,-0.2438,-0.3059,0.2141
0.006,-0.973,-0.337,-58.4,-6.8,120,0,2018,5,17,20,31,2.088,-0.8828,-0.2439,-0.3234,0.2377
0.212,-1.612,-0.53,-11,-25.4,25.2,0,2018,5,17,20,31,2.124,-0.8788,-0.2377,-0.3328,0.2455
0.247,-1.151,-0.518,36.4,-11,-57.1,0,2018,5,17,20,31,2.146,-0.881,-0.236,-0.3303,0.2425
0.274,-0.315,-0.344,72.4,-60.8,-136.1,0,2018,5,17,20,31,2.151,-0.8897,-0.2342,-0.3188,0.2276
0.098,0.112,-0.091,78.8,-124.4,-180.5,0,2018,5,17,20,31,2.169,-0.904,-0.2252,-0.3031,0.1999
-0.192,0.55,0.222,39.8,-99.5,-125.8,1023,2018,5,17,20,31,2.193,-0.9171,-0.2121,-0.2908,0.1707
-0.19,1.17,0.529,-32.7,-14.9,-23,1023,2018,5,17,20,31,2.209,-0.9212,-0.2073,-0.2895,0.1564
-0.049,1.101,0.414,-72.4,57.2,78.8,1023,2018,5,17,20,31,2.226,-0.9166,-0.2107,-0.2991,0.1607
0.057,0.697,0.047,-89.7,103.6,148.9,1023,2018,5,17,20,31,2.248,-0.9054,-0.2203,-0.3143,0.1809
0.018,0.32,-0.191,-83.1,105.3,181.4,1023,2018,5,17,20,31,2.267,-0.8904,-0.231,-0.331,0.2101
-0.019,-0.268,-0.274,-59.4,66.1,164.4,1023,2018,5,17,20,31,2.29,-0.8756,-0.2367,-0.3461,0.2394
0.014,-1.082,-0.173,-25.4,33.4,99.6,1023,2018,5,17,20,31,2.308,-0.8652,-0.2374,-0.356,0.2608
-0.024,-1.246,0.071,20.5,-4.6,-7.2,1023,2018,5,17,20,31,2.332,-0.8622,-0.2372,-0.3575,0.269
0.013,-1.248,0,85.4,-56.1,-142.7,1023,2018,5,17,20,31,2.35,-0.8705,-0.2347,-0.3476,0.2573
-0.05,-0.805,-0.168,118.3,-124.7,-243,1023,2018,5,17,20,31,2.373,-0.8888,-0.2281,-0.327,0.2257
-0.089,-0.438,-0.248,118.8,-199,-294.1,1023,2018,5,17,20,31,2.392,-0.9115,-0.2131,-0.3031,0.1782
-0.272,-0.224,0.028,97.4,-195.6,-268.3,1023,2018,5,17,20,31,2.415,-0.9321,-0.1912,-0.2807,0.1251
-0.535,0.541,0.559,35.2,-73.3,-171.2,1023,2018,5,17,20,31,2.435,-0.9437,-0.1786,-0.265,0.0847
-0.363,1.275,0.664,-27.1,4.8,-59.1,1023,2018,5,17,20,31,2.454,-0.9459,-0.1795,-0.2619,0.0648
-0.217,1.352,0.398,-61.1,19.1,27.5,1023,2018,5,17,20,31,2.471,-0.9435,-0.1831,-0.269,0.0621
-0.089,0.923,0.054,-86.6,36.1,96.1,1023,2018,5,17,20,31,2.494,-0.9381,-0.1857,-0.2832,0.0712
-0.069,0.484,-0.211,-102.7,51.7,149.1,1023,2018,5,17,20,31,2.532,-0.9299,-0.1883,-0.3023,0.0908
-0.044,-0.077,-0.511,-101.9,22,164.3,0,2018,5,17,20,31,2.532,-0.9199,-0.1882,-0.3238,0.1155
0.062,-0.835,-0.577,-60,-48.2,121.3,0,2018,5,17,20,31,2.555,-0.9123,-0.179,-0.3424,0.1353
-0.129,-1.417,-0.222,26,-126.4,6.7,0,2018,5,17,20,31,2.573,-0.9122,-0.1612,-0.3493,0.1406
0.08,-1.69,-0.559,121.3,-128.4,-136.6,0,2018,5,17,20,31,2.591,-0.9221,-0.1424,-0.3379,0.1227
0.064,-0.778,-0.342,162.1,-118.2,-227.1,0,2018,5,17,20,31,2.614,-0.9367,-0.1307,-0.3123,0.0885
-0.269,-0.126,0.349,161.4,-119.6,-265.5,0,2018,5,17,20,31,2.631,-0.9509,-0.1226,-0.2805,0.0435
-0.671,0.549,0.92,83.4,-49,-161,0,2018,5,17,20,31,2.653,-0.9597,-0.1177,-0.2551,0.0047
-0.835,1.636,1.372,-30,34.1,-29.6,0,2018,5,17,20,31,2.69,-0.9606,-0.1215,-0.2494,-0.0097
-0.528,1.811,1.222,-105.2,56.3,74.1,0,2018,5,17,20,31,2.712,-0.9563,-0.1287,-0.2623,-0.0045
-0.31,1.265,0.606,-157,66.4,161.1,0,2018,5,17,20,31,2.714,-0.9483,-0.1332,-0.2874,0.0153
-0.315,0.519,-0.047,-182.8,56.7,207.5,0,2018,5,17,20,31,2.73,-0.9366,-0.135,-0.32,0.0458
-0.22,-0.461,-0.66,-161.7,-1.6,189.7,0,2018,5,17,20,31,2.751,-0.9233,-0.1299,-0.3531,0.076
-0.067,-1.873,-1.018,-77.5,-35.1,113.5,0,2018,5,17,20,31,2.772,-0.9136,-0.1183,-0.3768,0.0963
0.358,-2.379,-1.381,43,31.7,5.8,0,2018,5,17,20,31,2.795,-0.9115,-0.114,-0.3807,0.1047
0.414,-1.284,-1.13,134.4,30.4,-119.3,0,2018,5,17,20,31,2.814,-0.9179,-0.1237,-0.3634,0.0998
0.175,-0.434,-0.544,185.3,-66.9,-205.4,1023,2018,5,17,20,31,2.834,-0.9309,-0.1281,-0.3337,0.0743
-0.388,0.208,0.366,207.2,-59.3,-228.8,1023,2018,5,17,20,31,2.871,-0.9458,-0.1264,-0.2967,0.0375
-0.846,0.767,0.918,134.7,14.8,-150.8,1023,2018,5,17,20,31,2.894,-0.9558,-0.1321,-0.2624,0.0073
-0.638,1.975,1.349,-2.1,64,10.3,1023,2018,5,17,20,31,2.899,-0.9574,-0.1432,-0.2503,-0.0002
-0.427,2.154,1.113,-94.2,40.5,126.7,1023,2018,5,17,20,31,2.917,-0.9534,-0.1495,-0.2613,0.0131
-0.381,1.194,0.51,-141,29.4,219.2,1023,2018,5,17,20,31,2.935,-0.946,-0.1469,-0.286,0.0407
-0.499,-0.014,-0.072,-167.1,33.3,252.5,1023,2018,5,17,20,31,2.96,-0.9344,-0.1412,-0.3174,0.0785
-0.261,-0.772,-0.528,-149.7,-4.1,194.1,1023,2018,5,17,20,31,2.977,-0.9205,-0.1335,-0.3492,0.1127
0.299,-2.293,-1.068,-75.7,-47.1,64.3,1023,2018,5,17,20,31,2.998,-0.9113,-0.1232,-0.3711,0.1282
0.656,-2.164,-1.365,37.4,-29.4,-63.2,1023,2018,5,17,20,31,3.014,-0.911,-0.1175,-0.375,0.1241
0.548,-1.11,-1.174,141.3,-36.2,-168.8,1023,2018,5,17,20,31,3.032,-0.9201,-0.1191,-0.3579,0.1047
-0.055,-0.237,-0.434,207.4,-67.1,-231.2,1023,2018,5,17,20,31,3.053,-0.935,-0.1197,-0.3257,0.0718
-0.771,0.232,0.31,206.1,-54,-241.3,1023,2018,5,17,20,31,3.092,-0.9501,-0.1205,-0.2855,0.0327
-0.928,1.19,1.044,85,39.7,-109.9,1023,2018,5,17,20,31,3.115,-0.958,-0.1278,-0.2564,0.0048
-0.643,2.426,1.416,-42.3,33.8,33.1,1023,2018,5,17,20,31,3.12,-0.9574,-0.1376,-0.2537,0.0018
-0.439,1.85,1.099,-108.6,-33.6,133.9,1023,2018,5,17,20,31,3.135,-0.9537,-0.1327,-0.2692,0.0143
-0.447,0.545,0.548,-141.7,-11.5,218,0,2018,5,17,20,31,3.156,-0.9471,-0.1196,-0.2947,0.0402
-0.45,-0.735,-0.224,-157.1,32.5,207.8,0,2018,5,17,20,31,3.195,-0.9365,-0.1115,-0.3236,0.0748
0.162,-1.601,-0.688,-149.9,-6.8,117.7,0,2018,5,17,20,31,3.219,-0.9243,-0.1079,-0.3523,0.099
0.62,-1.916,-1.145,-64.9,-66.5,-0.6,0,2018,5,17,20,31,3.223,-0.917,-0.0991,-0.3722,0.103
0.606,-1.595,-1.4,66.4,-12.2,-104.9,0,2018,5,17,20,31,3.239,-0.9189,-0.0961,-0.3714,0.0909
0.208,-0.538,-0.945,147.5,-14.4,-168.7,0,2018,5,17,20,31,3.278,-0.9281,-0.1025,-0.3509,0.0696
-0.333,0.35,-0.008,181.3,-30,-186.1,0,2018,5,17,20,31,3.278,-0.9403,-0.1074,-0.3201,0.041
-0.735,0.881,0.708,133.7,8.7,-137.7,0,2018,5,17,20,31,3.3,-0.9501,-0.1137,-0.2897,0.0156
-0.706,1.775,1.11,11.9,31.4,-13.3,0,2018,5,17,20,31,3.317,-0.9532,-0.122,-0.2764,0.0052
-0.528,2.037,1.122,-84.6,-4.6,108.8,0,2018,5,17,20,31,3.34,-0.9507,-0.1219,-0.2846,0.0134
-0.427,1.178,0.78,-137.7,-27.4,193.2,0,2018,5,17,20,31,3.359,-0.9444,-0.1113,-0.3071,0.0356
-0.459,-0.027,0.203,-160.8,-3.2,234.2,0,2018,5,17,20,31,3.379,-0.9342,-0.0976,-0.3362,0.0678
-0.171,-1.088,-0.51,-147.8,19,191.3,0,2018,5,17,20,31,3.417,-0.9211,-0.0885,-0.3651,0.1013
0.306,-2.012,-0.929,-63.3,31.6,79.1,0,2018,5,17,20,31,3.417,-0.911,-0.0859,-0.3842,0.1224
0.468,-2.088,-1.123,50,51.5,-48.8,0,2018,5,17,20,31,3.459,-0.9099,-0.0923,-0.3839,0.1269
0.424,-1.158,-0.917,133.3,10.5,-165.3,0,2018,5,17,20,31,3.46,-0.9179,-0.1037,-0.3658,0.1125
0.044,-0.409,-0.407,187.3,-43.3,-237,0,2018,5,17,20,31,3.497,-0.9319,-0.1101,-0.3359,0.0804
-0.569,0.248,0.321,197.8,-1.6,-235.7,1023,2018,5,17,20,31,3.497,-0.9461,-0.1171,-0.2986,0.0426
-0.897,1.169,0.84,108.5,72,-131.7,1023,2018,5,17,20,31,3.518,-0.954,-0.1323,-0.2681,0.0163
-0.676,2.206,1.076,-6.6,63.4,2.5,1023,2018,5,17,20,31,3.553,-0.9544,-0.1477,-0.2591,0.0108
-0.493,2.069,0.873,-81.6,1.2,111.2,1023,2018,5,17,20,31,3.575,-0.9512,-0.1499,-0.2687,0.0213
-0.467,1.015,0.424,-126.9,-12.4,195.4,1023,2018,5,17,20,31,3.58,-0.9453,-0.141,-0.2905,0.0444
-0.392,-0.13,-0.243,-153.9,-8.4,221.6,1023,2018,5,17,20,31,3.617,-0.9356,-0.1292,-0.3195,0.0761
0.306,-1.432,-0.632,-119.4,-14.9,156,1023,2018,5,17,20,31,3.64,-0.9245,-0.1183,-0.3469,0.1039
0.367,-2.227,-1.059,-20.8,-3.8,63.5,1023,2018,5,17,20,31,3.644,-0.9183,-0.1102,-0.3609,0.1192
0.476,-2.061,-1.125,80,55.9,-38.8,1023,2018,5,17,20,31,3.661,-0.9196,-0.1137,-0.3551,0.123
0.334,-1.011,-0.812,145.2,23.6,-146,1023,2018,5,17,20,31,3.698,-0.9277,-0.125,-0.333,0.1126
-0.084,-0.246,-0.124,175.6,-35.4,-221.2,1023,2018,5,17,20,31,3.721,-0.9403,-0.1309,-0.3023,0.0843
-0.636,0.494,0.568,143.4,-18.8,-206,1023,2018,5,17,20,31,3.726,-0.952,-0.1347,-0.2702,0.0493
-0.803,1.707,1.033,42.5,29.3,-89.4,1023,2018,5,17,20,31,3.744,-0.9569,-0.1427,-0.2512,0.0268
-0.581,2.331,1.18,-48.6,3.9,32.8,1023,2018,5,17,20,31,3.762,-0.956,-0.1475,-0.2521,0.0233
-0.445,1.481,0.802,-107.7,5,148.7,1023,2018,5,17,20,31,3.785,-0.952,-0.1428,-0.2681,0.0367
-0.416,0.336,0.235,-149.6,55.9,227.7,1023,2018,5,17,20,31,3.804,-0.9429,-0.1401,-0.2944,0.0676
-0.225,-0.781,-0.297,-143,41.7,197.3,1023,2018,5,17,20,31,3.827,-0.93,-0.1394,-0.3237,0.1035
0.276,-2.242,-0.684,-79.6,5.9,63.7,1023,2018,5,17,20,31,3.842,-0.9204,-0.1372,-0.3446,0.1228
0.561,-2.194,-0.913,4.7,20.7,-51.6,0,2018,5,17,20,31,3.86,-0.918,-0.1394,-0.3504,0.1223
0.422,-1.076,-0.867,68.5,28.3,-137.7,0,2018,5,17,20,31,3.88,-0.9216,-0.1498,-0.3408,0.109
-0.025,0.072,-0.46,107.7,-31.7,-194.8,0,2018,5,17,20,31,3.917,-0.9298,-0.1582,-0.3215,0.0833
-0.477,0.99,0.206,116.6,-50.1,-177,0,2018,5,17,20,31,3.938,-0.9397,-0.1596,-0.2978,0.0523
-0.636,1.553,0.674,73.3,-21.8,-80,0,2018,5,17,20,31,3.941,-0.9466,-0.1597,-0.2782,0.0315
-0.529,1.729,0.695,-6.2,7.6,49.9,0,2018,5,17,20,31,3.977,-0.9483,-0.1592,-0.2726,0.0302
-0.401,1.116,0.52,-70,34,157.6,0,2018,5,17,20,31,3.998,-0.9449,-0.1578,-0.2825,0.048
-0.405,0.04,0.262,-113.3,46.1,214.8,0,2018,5,17,20,31,4.004,-0.9368,-0.1565,-0.3026,0.0792
-0.166,-1.02,-0.329,-131.6,39.2,204.9,0,2018,5,17,20,31,4.04,-0.9251,-0.1534,-0.3284,0.1128
0.298,-1.71,-0.584,-90.3,30.8,92.4,0,2018,5,17,20,31,4.04,-0.9137,-0.1531,-0.3504,0.1368
0.588,-1.572,-0.78,6.5,-24.6,-57.8,0,2018,5,17,20,31,4.062,-0.9108,-0.1544,-0.357,0.1376
0.452,-0.861,-0.782,95.4,-69.4,-158.2,0,2018,5,17,20,31,4.1,-0.9182,-0.1522,-0.3462,0.1174
0.053,0.016,-0.348,150.1,-81.5,-204.2,0,2018,5,17,20,31,4.124,-0.9309,-0.1483,-0.3224,0.0856
-0.264,0.798,0.238,170.8,-55.9,-177.5,0,2018,5,17,20,31,4.128,-0.944,-0.1455,-0.2911,0.0538
-0.579,1.33,0.55,115.8,-22.7,-85.2,0,2018,5,17,20,31,4.143,-0.9531,-0.1446,-0.2634,0.0334
-0.576,1.569,0.607,36.6,23.7,41,1023,2018,5,17,20,31,4.182,-0.9565,-0.1455,-0.2505,0.0322
-0.477,1.299,0.498,-31.6,51.4,146.6,1023,2018,5,17,20,31,4.205,-0.9547,-0.1479,-0.253,0.0503
-0.486,0.588,0.171,-80.3,38,200.9,1023,2018,5,17,20,31,4.209,-0.9487,-0.1491,-0.2666,0.0811
-0.234,-0.331,-0.195,-84.1,-64.3,180.3,1023,2018,5,17,20,31,4.227,-0.9413,-0.139,-0.2869,0.1105
-0.104,-1.706,-0.479,-16.4,-100.1,77.4,1023,2018,5,17,20,31,4.265,-0.938,-0.1188,-0.3003,0.1253
0.288,-1.37,-0.715,46.5,-79.2,-13.3,1023,2018,5,17,20,31,4.287,-0.9401,-0.1032,-0.2997,0.1246
0.158,-0.456,-0.591,82.8,-109.7,-67.3,1023,2018,5,17,20,31,4.292,-0.9461,-0.0889,-0.2899,0.1135
-0.124,0.24,-0.141,110.8,-133.4,-93.9,1023,2018,5,17,20,31,4.31,-0.9542,-0.0706,-0.2746,0.0947
-0.489,0.655,0.241,105.5,-110,-73.6,1023,2018,5,17,20,31,4.326,-0.9621,-0.0524,-0.2565,0.0753
-0.633,0.898,0.495,28.9,-104.1,-16.7,1023,2018,5,17,20,31,4.344,-0.9665,-0.0366,-0.2458,0.0633
-0.565,1.046,0.637,-69.1,-168.2,72.3,1023,2018,5,17,20,31,4.367,-0.9658,-0.0132,-0.2511,0.0623
-0.558,0.702,0.665,-158.9,-226.6,134.4,1023,2018,5,17,20,31,4.403,-0.9589,0.0245,-0.2732,0.0716
-0.544,0.006,0.433,-221.9,-256.4,137.3,1023,2018,5,17,20,31,4.427,-0.9453,0.0688,-0.3074,0.0842
-0.176,-0.306,-0.009,-268.6,-318.5,80,1023,2018,5,17,20,31,4.432,-0.9246,0.1182,-0.3504,0.0902
0.121,-0.577,-0.394,-301.9,-412.4,-17.2,1023,2018,5,17,20,31,4.448,-0.8957,0.1745,-0.4012,0.0787
0.503,-0.686,-0.671,-287.2,-477.9,-111.1,1023,2018,5,17,20,31,4.484,-0.8576,0.2358,-0.4547,0.0447
0.53,-1.16,-0.789,-213.6,-349.5,-147.3,1023,2018,5,17,20,31,4.506,-0.8174,0.2866,-0.4996,0.0012
0.463,-0.855,-0.849,-122.4,-133.8,-142.4,0,2018,5,17,20,31,4.511,-0.79,0.3065,-0.5299,-0.031
0.423,-0.052,-0.826,-51.9,-83.3,-149.7,0,2018,5,17,20,31,4.547,-0.7762,0.3059,-0.5485,-0.0544
0.352,0.203,-0.807,-3.1,-144.9,-159.2,0,2018,5,17,20,31,4.57,-0.7657,0.3067,-0.5588,-0.0848
0.209,0.218,-0.907,47.1,-156.1,-145.3,0,2018,5,17,20,31,4.575,-0.7565,0.3123,-0.5614,-0.1218
-0.047,0.126,-0.842,117,-65.3,-100.5,0,2018,5,17,20,31,4.588,-0.7552,0.3133,-0.5547,-0.1538
-0.173,0.13,-0.781,199.9,51.2,-49.3,0,2018,5,17,20,31,4.609,-0.7683,0.3021,-0.5371,-0.1726
-0.289,0.42,-0.387,250.5,123.3,-12.1,0,2018,5,17,20,31,4.645,-0.7934,0.2791,-0.5103,-0.179
-0.568,0.556,0.413,262.8,106.1,-7.7,0,2018,5,17,20,31,4.668,-0.8213,0.2534,-0.4775,-0.182
-0.728,0.537,0.998,204,68.8,-7.7,0,2018,5,17,20,31,4.672,-0.844,0.2322,-0.446,-0.186
-0.667,0.611,1.432,92,-14.1,-1.1,0,2018,5,17,20,31,4.689,-0.8561,0.2229,-0.4254,-0.1903
-0.543,0.327,1.452,-28,-74.9,6.7,0,2018,5,17,20,31,4.712,-0.8564,0.2301,-0.4191,-0.1945
-0.371,0.164,1.048,-141.4,-96,5.6,0,2018,5,17,20,31,4.748,-0.8465,0.2465,-0.4292,-0.1956
-0.181,0.204,0.312,-222.2,-175.2,-17.7,0,2018,5,17,20,31,4.771,-0.8259,0.2718,-0.4524,-0.1978
0.106,-0.03,-0.576,-230.8,-250.8,-48.8,0,2018,5,17,20,31,4.775,-0.7939,0.3091,-0.4799,-0.209
0.283,-0.637,-1.448,-126.6,-116.3,-24.7,0,2018,5,17,20,31,4.792,-0.7651,0.3401,-0.4996,-0.2216
0.414,-0.458,-1.715,30.7,138.9,33.9,1023,2018,5,17,20,31,4.809,-0.7625,0.3397,-0.5063,-0.2162
0.386,-0.122,-1.514,179.9,269.2,66,1023,2018,5,17,20,31,4.845,-0.7869,0.3107,-0.4958,-0.1956
0.141,0.061,-0.993,261.4,286,50.1,1023,2018,5,17,20,31,4.868,-0.8227,0.2684,-0.4695,-0.1744
-0.206,0.651,-0.13,256.4,108.7,-7.8,1023,2018,5,17,20,31,4.873,-0.8534,0.2319,-0.4361,-0.1659
-0.674,0.204,1.011,202.1,-47.1,-38.9,1023,2018,5,17,20,31,4.889,-0.87,0.2215,-0.4028,-0.1781
-0.786,0.153,1.688,99.7,-30.8,-24,1023,2018,5,17,20,31,4.912,-0.8777,0.2212,-0.3791,-0.1919
-0.763,0.615,1.867,-54.1,-103.3,-20.4,1023,2018,5,17,20,31,4.931,-0.8761,0.2278,-0.3749,-0.1995
-0.583,0.321,1.432,-208.9,-204.3,-34.1,1023,2018,5,17,20,31,4.967,-0.8592,0.2555,-0.3912,-0.2082
-0.345,0.252,0.635,-306,-279.7,-62.3,1023,2018,5,17,20,31,4.99,-0.8266,0.2979,-0.4239,-0.2194
-0.039,-0.231,-0.689,-292.1,-266.1,-84.9,1023,2018,5,17,20,31,4.995,-0.7831,0.3455,-0.4603,-0.2354
0.154,-0.356,-1.682,-171.1,-5.5,-16.8,1023,2018,5,17,20,31,5.011,-0.7526,0.3693,-0.4897,-0.2392
0.528,0.24,-2.249,15.9,136.6,65.2,1023,2018,5,17,20,31,5.034,-0.7527,0.3636,-0.5013,-0.2231
0.61,0.158,-1.97,179.1,156.6,96.9,1023,2018,5,17,20,31,5.053,-0.7746,0.3469,-0.4873,-0.2048
0.174,0.48,-1.056,248.8,54.1,56.6,1023,2018,5,17,20,31,5.076,-0.8028,0.3297,-0.4557,-0.1973
-0.493,-0.024,0.053,240.5,-75.9,12.2,1023,2018,5,17,20,31,5.092,-0.8213,0.3273,-0.4175,-0.2094
-0.794,-0.543,1.37,181.2,-15.7,2.7,1023,2018,5,17,20,31,5.115,-0.8334,0.3275,-0.384,-0.2248
-0.752,0.108,1.875,45.3,-3.3,-7.1,0,2018,5,17,20,31,5.134,-0.8413,0.3216,-0.3679,-0.2306
-0.629,0.09,1.813,-112.7,-97.8,-33.6,0,2018,5,17,20,31,5.152,-0.835,0.33,-0.3722,-0.2349
-0.416,0.036,1.28,-237.2,-158.1,-59.4,0,2018,5,17,20,31,5.189,-0.8129,0.3534,-0.3961,-0.2393
-0.196,-0.189,-0.112,-272.9,-174.3,-86.3,0,2018,5,17,20,31,5.209,-0.7791,0.3841,-0.4302,-0.2453
0.217,-0.253,-1.617,-196.8,-36.3,-55.3,0,2018,5,17,20,31,5.215,-0.7494,0.4031,-0.4634,-0.247
0.586,0.186,-2.236,-7.2,91.4,20.9,0,2018,5,17,20,31,5.236,-0.7424,0.4019,-0.4795,-0.2391
0.713,0.249,-1.902,177.5,188,88,0,2018,5,17,20,31,5.257,-0.7628,0.3837,-0.4689,-0.2253
0.2,0.697,-0.939,262.4,139.4,76.9,0,2018,5,17,20,31,5.274,-0.7963,0.3576,-0.4384,-0.2138
-0.52,0.627,-0.008,235.8,-50.1,25.5,0,2018,5,17,20,31,5.297,-0.8194,0.3458,-0.401,-0.2193
-0.858,-0.321,1.208,166.5,-73.7,14.4,0,2018,5,17,20,31,5.316,-0.8285,0.351,-0.3674,-0.2352
-0.842,-0.153,1.846,49.1,-1.3,21,0,2018,5,17,20,31,5.339,-0.8343,0.352,-0.3493,-0.2408
-0.74,0.128,1.805,-104.4,-52.4,5,0,2018,5,17,20,31,5.353,-0.8319,0.3571,-0.352,-0.2374
-0.486,-0.088,1.271,-245.7,-138.2,-27.9,0,2018,5,17,20,31,5.371,-0.8134,0.3783,-0.375,-0.2334
-0.183,-0.225,0.283,-314.1,-193.3,-74.2,0,2018,5,17,20,31,5.392,-0.7796,0.4104,-0.4121,-0.2321
0.092,-0.626,-0.833,-273,-124.9,-98.4,0,2018,5,17,20,31,5.43,-0.7401,0.4387,-0.4523,-0.2346
0.392,0.001,-1.926,-138.9,21,-55.5,0,2018,5,17,20,31,5.454,-0.7165,0.4466,-0.483,-0.2319
0.622,0.453,-2.058,42.7,99.2,17.5,0,2018,5,17,20,31,5.459,-0.7175,0.4382,-0.4922,-0.2252
0.497,0.717,-1.545,164.2,86.4,48.2,1023,2018,5,17,20,31,5.476,-0.7365,0.424,-0.4788,-0.22
0.041,0.52,-0.764,205.8,-11.2,36.4,1023,2018,5,17,20,31,5.512,-0.7564,0.4155,-0.452,-0.2254
-0.43,0.109,0.227,196.8,-75.8,19.7,1023,2018,5,17,20,31,5.535,-0.7693,0.4162,-0.4206,-0.2406
-0.673,-0.661,1.094,170.3,-8.6,19,1023,2018,5,17,20,31,5.54,-0.7793,0.4167,-0.3917,-0.2558
-0.602,-0.362,1.585,77.7,88.3,12.2,1023,2018,5,17,20,31,5.555,-0.7926,0.4044,-0.3756,-0.2587
-0.578,0.038,1.646,-58.4,-5.1,-21.5,1023,2018,5,17,20,31,5.579,-0.7964,0.3971,-0.3772,-0.2562
-0.425,-0.145,1.322,-184.6,-102.4,-55,1023,2018,5,17,20,31,5.615,-0.7813,0.4089,-0.3952,-0.2568
-0.224,-0.357,0.481,-238.5,-115.7,-81.4,1023,2018,5,17,20,31,5.615,-0.7539,0.4298,-0.4243,-0.2583
-0.008,-0.603,-0.683,-216.7,-13.6,-85.6,1023,2018,5,17,20,31,5.638,-0.7266,0.4426,-0.4581,-0.257
0.246,0.204,-1.812,-125.5,54.4,-55.4,1023,2018,5,17,20,31,5.656,-0.7117,0.4403,-0.4872,-0.2492
0.475,0.437,-2.002,22.9,79.4,1,1023,2018,5,17,20,31,5.674,-0.7113,0.4318,-0.4985,-0.2428
0.44,0.526,-1.652,162.3,129.6,60.7,1023,2018,5,17,20,31,5.697,-0.729,0.4172,-0.488,-0.2368
0.028,0.695,-1.039,244.7,132.8,78,1023,2018,5,17,20,31,5.716,-0.7598,0.3965,-0.4608,-0.2303
-0.545,0.652,-0.165,242.8,-16.9,48.8,1023,2018,5,17,20,31,5.739,-0.7857,0.3831,-0.4254,-0.2339
-0.742,-0.21,0.959,195.5,-56.8,38.1,1023,2018,5,17,20,31,5.776,-0.7993,0.3847,-0.3898,-0.2468
-0.702,-0.346,1.727,103.7,38,42.1,1023,2018,5,17,20,31,5.799,-0.8106,0.3818,-0.3655,-0.2518
-0.62,0.114,1.85,-32,8.3,26,1023,2018,5,17,20,31,5.804,-0.8167,0.3775,-0.3598,-0.2464
-0.461,0.063,1.44,-182.1,-112.1,-13.8,0,2018,5,17,20,31,5.82,-0.8062,0.3903,-0.3732,-0.2412
-0.233,-0.236,0.744,-273.5,-203.8,-61.7,0,2018,5,17,20,31,5.858,-0.7768,0.4206,-0.4019,-0.2408
0.027,-0.5,-0.374,-284.6,-206.7,-106.6,0,2018,5,17,20,31,5.881,-0.7354,0.4552,-0.4375,-0.2458
0.265,-0.331,-1.293,-193,-75.5,-97.5,0,2018,5,17,20,31,5.886,-0.6996,0.4754,-0.4707,-0.2505
0.396,0.377,-1.81,-51.9,37.6,-41.3,0,2018,5,17,20,31,5.899,-0.6855,0.4762,-0.4908,-0.2497
0.398,0.663,-1.806,86.3,103.9,32,0,2018,5,17,20,31,5.918,-0.6934,0.466,-0.4917,-0.2453
0.175,0.622,-1.381,197.2,133.4,81,0,2018,5,17,20,31,5.941,-0.7182,0.4499,-0.4736,-0.2393
-0.223,0.783,-0.712,244.5,58.7,75.1,0,2018,5,17,20,31,5.96,-0.7482,0.4332,-0.4426,-0.2375
-0.55,-0.064,0.46,235.2,-25.4,56.1,0,2018,5,17,20,31,5.978,-0.7689,0.4276,-0.4057,-0.2472
-0.675,-0.473,1.267,171.3,29.8,44.4,0,2018,5,17,20,31,6.001,-0.785,0.4222,-0.374,-0.256
-0.689,-0.04,1.714,51.7,21.9,20.1,0,2018,5,17,20,31,6.019,-0.7965,0.414,-0.3579,-0.2565
-0.492,-0.232,1.588,-92.4,-82.2,-22.8,0,2018,5,17,20,31,6.042,-0.7919,0.4206,-0.36,-0.2572
-0.239,-0.237,1.057,-196.6,-152,-64,0,2018,5,17,20,31,6.079,-0.771,0.441,-0.379,-0.2592
-0.089,-0.349,0.013,-239.6,-189.4,-108.6,0,2018,5,17,20,31,6.101,-0.7374,0.4687,-0.4077,-0.2649
0.095,-0.393,-0.875,-198.5,-120.2,-113.5,0,2018,5,17,20,31,6.106,-0.7014,0.4914,-0.4383,-0.2726
0.322,0.242,-1.545,-81.4,5.9,-61.5,0,2018,5,17,20,31,6.12,-0.6813,0.4976,-0.4608,-0.275
0.436,0.709,-1.775,65.1,98.9,22.5,1023,2018,5,17,20,31,6.139,-0.685,0.4895,-0.4657,-0.2723
0.208,0.945,-1.286,179.4,102.8,83,1023,2018,5,17,20,31,6.162,-0.7078,0.4744,-0.45,-0.267
-0.252,0.577,-0.258,212.1,20.2,82.6,1023,2018,5,17,20,31,6.178,-0.7323,0.4639,-0.4202,-0.268
-0.554,-0.443,0.899,180.6,17.5,62.4,1023,2018,5,17,20,31,6.199,-0.7502,0.4587,-0.3889,-0.2744
-0.683,-0.328,1.499,79.9,45.6,33.6,1023,2018,5,17,20,31,6.239,-0.7648,0.4499,-0.3695,-0.2756
-0.631,-0.389,1.664,-59.8,-44.1,-13.9,1023,2018,5,17,20,31,6.261,-0.7656,0.4504,-0.3678,-0.2749
-0.402,-0.497,1.269,-192.4,-95.8,-66.7,1023,2018,5,17,20,31,6.266,-0.7489,0.4639,-0.3852,-0.2745
-0.126,-0.321,0.24,-259.9,-155.9,-122.2,1023,2018,5,17,20,31,6.281,-0.7173,0.4848,-0.4172,-0.2761
0.201,-0.188,-1.151,-217.1,-125.6,-141.3,1023,2018,5,17,20,31,6.304,-0.6782,0.505,-0.4522,-0.2833
0.421,0.467,-1.809,-51.7,30.8,-50.1,1023,2018,5,17,20,31,6.324,-0.658,0.5093,-0.4747,-0.2865
0.586,0.729,-1.795,122.7,178.8,64.8,1023,2018,5,17,20,31,6.344,-0.6723,0.4949,-0.4742,-0.2793
0.302,0.83,-1.051,232.6,205.7,112.5,1023,2018,5,17,20,31,6.367,-0.7095,0.4691,-0.453,-0.2665
-0.297,0.614,-0.097,249.6,79.4,82.4,1023,2018,5,17,20,31,6.385,-0.7448,0.4468,-0.4202,-0.2625
-0.698,-0.367,0.95,201.7,32.2,58.1,1023,2018,5,17,20,31,6.403,-0.767,0.4359,-0.3866,-0.2685
-0.713,-0.42,1.494,101.9,78.8,42.8,1023,2018,5,17,20,31,6.426,-0.7838,0.4241,-0.3651,-0.2692
-0.675,-0.058,1.615,-39.1,23.1,5.8,1023,2018,5,17,20,31,6.442,-0.7914,0.4159,-0.3619,-0.2638
-0.467,-0.104,1.271,-179.8,-64,-42.6,1023,2018,5,17,20,31,6.461,-0.7812,0.4232,-0.3782,-0.2594
-0.302,-0.255,0.591,-263.8,-129.7,-91.3,1023,2018,5,17,20,31,6.484,-0.7545,0.4427,-0.4097,-0.2584
-0.025,-0.352,-0.679,-262.8,-121.6,-123.6,0,2018,5,17,20,31,6.502,-0.7183,0.4642,-0.4474,-0.2612
0.259,0.044,-1.55,-158.7,-3.4,-83.6,0,2018,5,17,20,31,6.525,-0.6909,0.4727,-0.4803,-0.2614
0.684,0.584,-2.129,3.3,83.1,-6,0,2018,5,17,20,31,6.544,-0.6862,0.4667,-0.4957,-0.2559
0.564,0.893,-1.776,151.4,100.1,60.6,0,2018,5,17,20,31,6.567,-0.703,0.4536,-0.487,-0.2502
0.076,0.897,-0.955,222.4,19.3,69.2,0,2018,5,17,20,31,6.604,-0.7273,0.4429,-0.4599,-0.2514
-0.468,0.168,-0.01,224.4,-62.3,51.1,0,2018,5,17,20,31,6.625,-0.745,0.4414,-0.4246,-0.2639
-0.799,-0.627,1.023,186.5,-4.5,46.8,0,2018,5,17,20,31,6.629,-0.7589,0.4404,-0.3918,-0.2764
-0.72,-0.504,1.482,96.1,71.6,35.7,0,2018,5,17,20,31,6.645,-0.7738,0.4303,-0.3717,-0.2786
-0.655,-0.022,1.598,-35.3,4.9,-1.9,0,2018,5,17,20,31,6.668,-0.7801,0.4238,-0.369,-0.2749
-0.488,-0.143,1.206,-167.2,-104.7,-52,0,2018,5,17,20,31,6.684,-0.7673,0.4348,-0.383,-0.2743
-0.225,-0.235,0.476,-244.7,-153,-92.7,0,2018,5,17,20,31,6.722,-0.7383,0.4578,-0.4105,-0.2767
0.05,-0.383,-0.828,-223.5,-83.9,-98.9,0,2018,5,17,20,31,6.745,-0.7047,0.4784,-0.4431,-0.2794
0.375,0.349,-1.584,-107.4,28.2,-31.6,0,2018,5,17,20,31,6.75,-0.6865,0.4836,-0.4681,-0.2748
0.577,0.488,-1.743,57.5,113.1,53.9,0,2018,5,17,20,31,6.767,-0.6915,0.4769,-0.4726,-0.2661
0.413,0.674,-1.144,172.8,136.8,106.4,0,2018,5,17,20,31,6.785,-0.7165,0.462,-0.4563,-0.2545
-0.095,0.421,-0.261,213.6,79,97.2,0,2018,5,17,20,31,6.808,-0.7453,0.4473,-0.4271,-0.2485
-0.621,-0.16,0.734,179.9,41.6,71.3,1023,2018,5,17,20,31,6.826,-0.7677,0.4374,-0.3964,-0.249
-0.823,-0.457,1.344,89.7,57.7,51,1023,2018,5,17,20,31,6.85,-0.7829,0.4291,-0.3758,-0.248
-0.896,-0.128,1.432,-26.6,57.6,39.2,1023,2018,5,17,20,31,6.869,-0.7913,0.4225,-0.3712,-0.2396
-0.834,0.137,1.118,-144.4,12.2,25.3,1023,2018,5,17,20,31,6.888,-0.7893,0.4233,-0.3827,-0.2261
-0.607,0.112,0.66,-243.5,-53.2,4.4,1023,2018,5,17,20,31,6.911,-0.7744,0.435,-0.4083,-0.2104
-0.245,-0.523,0.101,-270.7,-29,-5.4,1023,2018,5,17,20,31,6.927,-0.7501,0.4517,-0.442,-0.1942
0.034,-1.199,-0.37,-215.7,176.6,36.7,1023,2018,5,17,20,31,6.945,-0.7362,0.4516,-0.4752,-0.1675
0.254,-0.995,-0.765,-114.7,387.1,96,1023,2018,5,17,20,31,6.968,-0.7467,0.4235,-0.4984,-0.1203
0.524,-1.119,-1.15,-21,547.5,161.6,1023,2018,5,17,20,31,7.002,-0.7759,0.3735,-0.5049,-0.0575
0.725,-0.671,-1.332,35.7,667.8,226,1023,2018,5,17,20,31,7.023,-0.8141,0.3052,-0.4934,0.0233
0.747,-0.32,-1.456,84.2,703.6,241.7,1023,2018,5,17,20,31,7.028,-0.8486,0.2255,-0.4649,0.1131
0.512,-0.81,-1.157,134.4,648.9,164.6,1023,2018,5,17,20,31,7.064,-0.8739,0.1419,-0.4223,0.1942
0.422,-1.013,-0.786,144.1,522.1,35.8,1023,2018,5,17,20,31,7.087,-0.8906,0.0643,-0.3763,0.2468
0.163,-0.208,-0.482,117.3,347.8,-70.2,1023,2018,5,17,20,31,7.092,-0.9026,0.0012,-0.3357,0.2694
-0.261,0.503,0.108,67.8,209.2,-131.6,1023,2018,5,17,20,31,7.126,-0.9119,-0.0434,-0.3077,0.2678
-0.806,1.016,0.654,-1,108,-148,1023,2018,5,17,20,31,7.149,-0.9187,-0.0737,-0.2941,0.2529
-0.874,1.189,0.775,-77.8,41.3,-132.8,1023,2018,5,17,20,31,7.154,-0.9217,-0.0945,-0.2955,0.2324
-0.645,1.029,0.568,-127.9,38.8,-61.4,0,2018,5,17,20,31,7.188,-0.9194,-0.1096,-0.3096,0.2162
-0.377,0.565,0.241,-157.1,106,22.4,0,2018,5,17,20,31,7.209,-0.9104,-0.1272,-0.3302,0.2139
-0.011,0.255,-0.124,-155.6,189.9,89.2,0,2018,5,17,20,31,7.213,-0.8948,-0.154,-0.351,0.2285
0.213,-0.03,-0.505,-135.7,231.7,120.4,0,2018,5,17,20,31,7.23,-0.8746,-0.1872,-0.3676,0.2544
0.437,-0.384,-0.901,-114.1,198.9,102.5,0,2018,5,17,20,31,7.247,-0.8532,-0.2188,-0.3802,0.2817
0.679,-0.754,-1.234,-57.7,129.4,33.5,0,2018,5,17,20,31,7.27,-0.8373,-0.2426,-0.3878,0.2993
0.624,-0.671,-1.113,17.2,31.3,-64.6,0,2018,5,17,20,31,7.288,-0.8332,-0.2568,-0.3856,0.3016
0.318,-0.569,-0.835,74.6,-80.7,-148,0,2018,5,17,20,31,7.311,-0.8436,-0.2573,-0.3744,0.2859
0.103,-0.616,-0.69,103,-151.8,-190.8,0,2018,5,17,20,31,7.331,-0.863,-0.2458,-0.3594,0.256
-0.343,-0.178,-0.08,141.5,-140.7,-209.6,0,2018,5,17,20,31,7.35,-0.8853,-0.2299,-0.3382,0.2209
-0.82,0.471,0.748,134.2,-72.4,-178,0,2018,5,17,20,31,7.373,-0.9048,-0.2192,-0.312,0.1892
-0.974,0.988,1.016,72.7,-18.5,-88.9,0,2018,5,17,20,31,7.391,-0.916,-0.2164,-0.2919,0.1696
-0.918,1.09,1.131,5.2,10.6,3.8,0,2018,5,17,20,31,7.412,-0.919,-0.2172,-0.2847,0.1647
-0.693,0.704,0.949,-53,44.8,80.3,0,2018,5,17,20,31,7.43,-0.9153,-0.2202,-0.2897,0.1723
-0.371,0.306,0.542,-86.4,75.7,129.4,0,2018,5,17,20,31,7.448,-0.9056,-0.2267,-0.3038,0.1899
-0.278,-0.148,0.279,-96.2,104.7,146.1,0,2018,5,17,20,31,7.471,-0.8919,-0.2366,-0.3208,0.213
-0.176,-0.311,0.028,-101.4,117.9,149,0,2018,5,17,20,31,7.49,-0.8756,-0.2498,-0.3378,0.2383
-0.068,-0.462,-0.308,-110.3,124.3,153.2,1023,2018,5,17,20,31,7.511,-0.8571,-0.2636,-0.3553,0.2637
0.06,-0.467,-0.52,-108.3,117.5,147.1,1023,2018,5,17,20,31,7.547,-0.8368,-0.2777,-0.3731,0.2885
0.244,-0.626,-0.814,-92.8,68.6,116.3,1023,2018,5,17,20,31,7.57,-0.8185,-0.288,-0.3892,0.309
0.564,-0.996,-1.182,-58.6,7.7,56.6,1023,2018,5,17,20,31,7.575,-0.8065,-0.2912,-0.4027,0.32
0.716,-0.827,-1.202,15.4,-67.1,-40.8,1023,2018,5,17,20,31,7.611,-0.8057,-0.2882,-0.408,0.3179
0.507,-0.701,-0.948,107.7,-165.2,-142.2,1023,2018,5,17,20,31,7.632,-0.8214,-0.2744,-0.4006,0.2989
0.094,-0.54,-0.512,188,-199.2,-202.8,1023,2018,5,17,20,31,7.637,-0.8491,-0.2514,-0.3798,0.267
-0.584,0.139,0.628,231,-150.7,-209.4,1023,2018,5,17,20,31,7.652,-0.8796,-0.2283,-0.3464,0.2324
-1.164,0.873,1.261,153.9,-46.1,-127.6,1023,2018,5,17,20,31,7.675,-0.9017,-0.2155,-0.3117,0.2077
-1.115,1.423,1.55,20.1,33,-1.2,1023,2018,5,17,20,31,7.712,-0.9083,-0.2159,-0.2964,0.2009
-0.797,1.333,1.406,-70.3,45.9,103.5,1023,2018,5,17,20,31,7.712,-0.9029,-0.221,-0.3021,0.2108
-0.477,0.668,0.718,-118,64.4,178,1023,2018,5,17,20,31,7.735,-0.8899,-0.2254,-0.321,0.2324
-0.101,-0.259,-0.016,-141.4,118.3,219.8,1023,2018,5,17,20,31,7.754,-0.8698,-0.233,-0.3456,0.2637
0.22,-0.811,-0.572,-134.1,150.3,218.5,1023,2018,5,17,20,31,7.775,-0.8441,-0.2473,-0.369,0.3
0.402,-1.252,-1.075,-81.4,85.6,149.4,1023,2018,5,17,20,31,7.812,-0.8208,-0.2594,-0.3867,0.3304
0.45,-1.499,-1.183,-0.3,-33.4,26.7,1023,2018,5,17,20,31,7.812,-0.8122,-0.2589,-0.3947,0.3426
0.49,-1.461,-0.992,68.5,-100.4,-93.8,0,2018,5,17,20,31,7.835,-0.8202,-0.2489,-0.3921,0.3337
0.202,-0.9,-0.775,110.8,-164.5,-179.1,0,2018,5,17,20,31,7.87,-0.84,-0.2342,-0.3801,0.3082
-0.082,-0.361,-0.43,157.8,-228.6,-236.6,0,2018,5,17,20,31,7.894,-0.8669,-0.2111,-0.3625,0.2688
-0.682,0.336,0.597,204.2,-198.9,-247.9,0,2018,5,17,20,31,7.899,-0.8968,-0.1843,-0.3344,0.2231
-1.166,1.257,1.25,134.6,-75.4,-131.3,0,2018,5,17,20,31,7.932,-0.918,-0.1672,-0.3051,0.1898
-1.16,1.952,1.615,21.1,17.8,28.8,0,2018,5,17,20,31,7.955,-0.9239,-0.1641,-0.2925,0.1835
-0.738,1.418,1.278,-51,58.1,156.7,0,2018,5,17,20,31,7.96,-0.9184,-0.1663,-0.2975,0.2005
-0.321,0.552,0.592,-80.3,88.5,229.9,0,2018,5,17,20,31,7.975,-0.9048,-0.1706,-0.3117,0.2343
-0.055,-0.579,-0.076,-89,110.4,239,0,2018,5,17,20,31,8.012,-0.8864,-0.176,-0.3283,0.2745
0.316,-1.16,-0.319,-80.6,108.6,193,0,2018,5,17,20,31,8.036,-0.8663,-0.1858,-0.3429,0.3119
0.293,-1.435,-0.632,-46.3,66.6,121.3,0,2018,5,17,20,31,8.04,-0.8506,-0.1925,-0.3528,0.3387
0.462,-1.502,-0.833,-16.3,24.8,28.9,0,2018,5,17,20,31,8.056,-0.8427,-0.1963,-0.3572,0.3514
0.456,-1.085,-0.833,18.3,-45.8,-78.6,0,2018,5,17,20,31,8.079,-0.8448,-0.1968,-0.3564,0.347
0.28,-0.729,-0.748,56.3,-153.8,-170.7,0,2018,5,17,20,31,8.098,-0.8581,-0.1873,-0.3525,0.3226
0.094,-0.572,-0.541,104.1,-203.6,-228.5,0,2018,5,17,20,31,8.116,-0.8796,-0.1673,-0.3441,0.2825
-0.362,-0.008,0.233,157.7,-154.7,-244.1,0,2018,5,17,20,31,8.139,-0.9035,-0.1468,-0.3248,0.2378
-0.91,0.795,0.891,141.7,-45.9,-177.6,0,2018,5,17,20,31,8.157,-0.923,-0.1366,-0.2978,0.2015
-1.137,1.743,1.313,48.3,46.3,-52.6,0,2018,5,17,20,31,8.18,-0.9313,-0.1411,-0.2794,0.1861
-0.823,1.746,1.315,-30.9,42.5,57.1,1023,2018,5,17,20,31,8.197,-0.93,-0.1486,-0.2776,0.1893
-0.51,1.067,0.836,-76.1,48.5,149.9,1023,2018,5,17,20,31,8.215,-0.9223,-0.1522,-0.2883,0.2073
-0.226,0.371,0.273,-96.9,63.8,199.6,1023,2018,5,17,20,31,8.237,-0.9092,-0.1558,-0.3049,0.2366
-0.035,-0.663,-0.07,-102.2,92.4,207.4,1023,2018,5,17,20,31,8.257,-0.8926,-0.1607,-0.3231,0.27
0.128,-1.193,-0.428,-102.5,123.1,180.7,1023,2018,5,17,20,31,8.295,-0.8735,-0.1721,-0.3389,0.304
0.425,-1.495,-0.817,-80.2,104.3,113.2,1023,2018,5,17,20,31,8.318,-0.8558,-0.1863,-0.3512,0.3308
0.484,-1.418,-0.985,-35.7,10.9,-7,1023,2018,5,17,20,31,8.322,-0.847,-0.1956,-0.3579,0.3407
0.52,-1.034,-1.027,22.4,-122,-139,1023,2018,5,17,20,31,8.339,-0.8532,-0.1923,-0.3597,0.3248
0.36,-0.731,-0.795,80.6,-208.5,-227.9,1023,2018,5,17,20,31,8.362,-0.8723,-0.1752,-0.3551,0.2867
-0.241,-0.19,0.037,131.9,-165.7,-251.3,1023,2018,5,17,20,31,8.378,-0.896,-0.1551,-0.34,0.2397
-0.855,0.71,0.788,122.4,-43.5,-187.1,1023,2018,5,17,20,31,8.401,-0.9151,-0.1465,-0.3171,0.2011
-1.127,1.685,1.263,27.5,70.4,-56.1,1023,2018,5,17,20,31,8.438,-0.9225,-0.1543,-0.3013,0.1851
-0.869,1.804,1.213,-47.4,58.3,56,1023,2018,5,17,20,31,8.463,-0.9195,-0.166,-0.3019,0.189
-0.519,1.098,0.751,-81.1,54.8,144.7,1023,2018,5,17,20,31,8.467,-0.9106,-0.1711,-0.3141,0.2065
-0.135,0.26,0.143,-88.4,73.6,194.1,1023,2018,5,17,20,31,8.51,-0.8971,-0.1751,-0.3306,0.2347
0.065,-0.911,-0.161,-86.7,136.1,206.4,1023,2018,5,17,20,31,8.512,-0.8799,-0.1828,-0.346,0.2692
0.3,-1.225,-0.567,-73.2,153.5,168.3,1023,2018,5,17,20,31,8.519,-0.8602,-0.1985,-0.3571,0.3049
0.358,-1.286,-0.821,-44.7,65.8,75.8,1023,2018,5,17,20,31,8.556,-0.8455,-0.2111,-0.3639,0.3286
0.452,-1.251,-0.93,-9.1,-72.4,-49.7,0,2018,5,17,20,31,8.579,-0.8434,-0.2112,-0.3688,0.3285
0.375,-1.047,-0.821,26.6,-154.8,-141.9,0,2018,5,17,20,31,8.582,-0.8542,-0.1994,-0.3703,0.3055
0.237,-0.642,-0.702,61.7,-195.5,-192.9,0,2018,5,17,20,31,8.619,-0.8715,-0.1814,-0.3669,0.2697
-0.206,-0.026,-0.016,121.6,-176.6,-223.8,0,2018,5,17,20,31,8.64,-0.8924,-0.1616,-0.3544,0.2277
-0.816,0.684,0.839,146.4,-94.7,-191.7,0,2018,5,17,20,31,8.645,-0.9123,-0.1472,-0.3319,0.1888
-1.155,1.484,1.437,67.5,24.8,-73.2,0,2018,5,17,20,31,8.661,-0.9233,-0.1466,-0.3125,0.1682
-1.041,1.709,1.573,-11.6,66.4,48.1,0,2018,5,17,20,31,8.685,-0.9233,-0.1549,-0.3071,0.1706
-0.664,1.036,1.131,-58.9,90.8,148.6,0,2018,5,17,20,31,8.721,-0.9158,-0.1631,-0.3138,0.1901
-0.301,0.148,0.375,-84.1,116.8,204.5,0,2018,5,17,20,31,8.721,-0.902,-0.1724,-0.327,0.2227
-0.023,-0.545,0.026,-99.4,137.5,202.1,0,2018,5,17,20,31,8.744,-0.8837,-0.1847,-0.3426,0.2595
0.33,-1.05,-0.544,-100.7,98.1,160.3,0,2018,5,17,20,31,8.763,-0.8647,-0.1969,-0.3585,0.2914
0.45,-1.469,-1.014,-78.5,45.2,92.1,0,2018,5,17,20,31,8.781,-0.8496,-0.204,-0.3732,0.3116
0.698,-1.531,-1.228,-24.5,-12,-15.8,0,2018,5,17,20,31,8.804,-0.8435,-0.2072,-0.3815,0.3159
0.573,-1.025,-1.111,41.6,-90.6,-124.2,0,2018,5,17,20,31,8.823,-0.8501,-0.2042,-0.3799,0.3018
0.343,-0.569,-0.838,94.4,-179.1,-206.5,0,2018,5,17,20,31,8.841,-0.868,-0.1911,-0.3706,0.2692
-0.212,0.022,0.005,143.2,-179.5,-248.9,0,2018,5,17,20,31,8.864,-0.8919,-0.1721,-0.3521,0.2253
-0.923,0.776,0.994,140.3,-86.4,-198,1023,2018,5,17,20,31,8.882,-0.9131,-0.1588,-0.3268,0.1847
-1.172,1.598,1.536,37.8,35.3,-63.1,1023,2018,5,17,20,31,8.906,-0.9223,-0.1605,-0.3101,0.1651
-0.964,1.62,1.51,-49.8,60.6,63.1,1023,2018,5,17,20,31,8.924,-0.9198,-0.1695,-0.3109,0.1685
-0.602,0.867,0.937,-96.7,86.9,154.4,1023,2018,5,17,20,31,8.946,-0.9097,-0.1774,-0.3246,0.1883
-0.226,-0.038,0.155,-114.4,93.3,189.6,1023,2018,5,17,20,31,8.965,-0.8942,-0.1854,-0.3441,0.218
0.134,-0.949,-0.355,-116.3,109.8,175.5,1023,2018,5,17,20,31,8.988,-0.8759,-0.1947,-0.3643,0.2489
0.443,-1.573,-0.976,-85.5,92.3,112.4,1023,2018,5,17,20,31,9.003,-0.859,-0.2058,-0.3804,0.2738
0.534,-1.509,-1.183,-18.6,27.1,0,1023,2018,5,17,20,31,9.04,-0.8504,-0.2141,-0.3872,0.2844
0.454,-1.111,-1.104,53.1,-72.4,-116.4,1023,2018,5,17,20,31,9.063,-0.8558,-0.2138,-0.3832,0.2738
0.189,-0.611,-0.726,108.9,-143.9,-192.2,1023,2018,5,17,20,31,9.068,-0.8727,-0.2034,-0.37,0.2449
-0.356,0.261,0.294,140.5,-134,-219.2,1023,2018,5,17,20,31,9.084,-0.8943,-0.1896,-0.348,0.2074
-0.944,1.102,1.084,83.2,-53.8,-136.7,1023,2018,5,17,20,31,9.107,-0.9109,-0.1812,-0.3257,0.1762
-0.975,1.836,1.456,-25.7,28.4,-1.7,1023,2018,5,17,20,31,9.125,-0.9143,-0.1838,-0.32,0.1664
-0.68,1.283,1.135,-82.1,39.9,100.6,1023,2018,5,17,20,31,9.147,-0.9083,-0.1876,-0.3302,0.1749
-0.297,0.47,0.33,-108.1,78.6,169.6,1023,2018,5,17,20,31,9.166,-0.8959,-0.1919,-0.3483,0.1976
0.03,-0.616,-0.261,-109.3,112.8,181,1023,2018,5,17,20,31,9.19,-0.8791,-0.1996,-0.3679,0.2278
0.451,-0.953,-0.696,-67.9,101.7,124.7,0,2018,5,17,20,31,9.207,-0.8623,-0.2106,-0.3828,0.2555
0.479,-1.381,-0.963,-8.1,45.8,31.3,0,2018,5,17,20,31,9.23,-0.8536,-0.2182,-0.3876,0.2706
0.421,-1.112,-0.936,45,-37.4,-76.4,0,2018,5,17,20,31,9.246,-0.856,-0.2196,-0.3836,0.2677
0.245,-0.602,-0.757,83.5,-128.7,-159,0,2018,5,17,20,31,9.269,-0.8692,-0.212,-0.3728,0.2457
0.01,-0.172,-0.304,115.7,-178.5,-194.7,0,2018,5,17,20,31,9.285,-0.8885,-0.1949,-0.3576,0.2108
-0.474,0.548,0.595,124.2,-135.2,-176.7,0,2018,5,17,20,31,9.323,-0.9078,-0.1769,-0.3375,0.1745
-0.808,1.243,0.974,48.8,-31.5,-68.2,0,2018,5,17,20,31,9.345,-0.9191,-0.1685,-0.3218,0.1523
-0.71,1.62,1.078,-32.7,7.7,38.8,0,2018,5,17,20,31,9.35,-0.9195,-0.1688,-0.3211,0.1507
-0.515,0.945,0.743,-69.9,5.4,119.1,0,2018,5,17,20,31,9.365,-0.914,-0.1663,-0.3322,0.1625
-0.21,0.106,0.219,-74.1,46.6,167.1,0,2018,5,17,20,31,9.388,-0.9045,-0.1637,-0.3474,0.185
0.04,-0.718,-0.087,-72.8,120.9,174.3,0,2018,5,17,20,31,9.425,-0.8913,-0.169,-0.3611,0.2154
0.356,-0.739,-0.408,-54.7,104.5,124.6,0,2018,5,17,20,31,9.448,-0.8772,-0.1811,-0.371,0.2446
0.36,-1.162,-0.626,-25.2,15.9,33.9,0,2018,5,17,20,31,9.453,-0.8693,-0.1867,-0.377,0.259
0.346,-1.107,-0.702,5.7,-65.8,-62,0,2018,5,17,20,31,9.487,-0.8704,-0.1841,-0.3794,0.2537
0.218,-0.809,-0.619,43.9,-110.2,-126.5,0,2018,5,17,20,31,9.487,-0.8793,-0.1756,-0.3763,0.2329
0.011,-0.198,-0.134,79.8,-106.3,-160.2,0,2018,5,17,20,31,9.509,-0.8923,-0.1656,-0.3664,0.2046
-0.441,0.48,0.528,85.2,-56.9,-140.9,0,2018,5,17,20,31,9.527,-0.9054,-0.1592,-0.3511,0.1773
-0.528,1.001,0.715,16.7,9.8,-53.3,1023,2018,5,17,20,31,9.55,-0.9121,-0.1602,-0.3407,0.1616
-0.529,1.321,0.838,-38,29.1,30.3,1023,2018,5,17,20,31,9.566,-0.9107,-0.1652,-0.3423,0.1615
-0.326,0.798,0.565,-57.4,47.8,96.6,1023,2018,5,17,20,31,9.589,-0.9047,-0.1682,-0.3511,0.1727
-0.084,0.131,0.123,-58.4,99.5,145.2,1023,2018,5,17,20,31,9.608,-0.8948,-0.1741,-0.3617,0.1949
0.201,-0.602,-0.2,-55.3,160,158.6,1023,2018,5,17,20,31,9.631,-0.8813,-0.1866,-0.3706,0.2257
0.376,-0.982,-0.445,-28.8,161.1,111.7,1023,2018,5,17,20,31,9.649,-0.8669,-0.2052,-0.375,0.2562
0.307,-1.003,-0.482,1.9,80.5,19,1023,2018,5,17,20,31,9.672,-0.8585,-0.2203,-0.3733,0.2736
0.198,-0.788,-0.465,19.8,-45.7,-81,1023,2018,5,17,20,31,9.69,-0.8604,-0.2243,-0.3697,0.2694
0.107,-0.542,-0.351,32.7,-127.8,-147.2,1023,2018,5,17,20,31,9.713,-0.8711,-0.2166,-0.3654,0.2462
-0.065,-0.086,0.04,51.3,-129.9,-174.2,1023,2018,5,17,20,31,9.732,-0.8854,-0.2048,-0.3583,0.2137
-0.388,0.451,0.488,45.2,-67.4,-145.4,1023,2018,5,17,20,31,9.768,-0.8979,-0.1974,-0.3479,0.1834
-0.51,0.895,0.575,-5.1,22.1,-58.6,1023,2018,5,17,20,31,9.791,-0.903,-0.1996,-0.3419,0.1665
-0.459,1.104,0.661,-49.2,78.7,27.4,1023,2018,5,17,20,31,9.796,-0.8995,-0.2102,-0.3446,0.1669
-0.263,0.753,0.422,-64.2,104.4,93.4,1023,2018,5,17,20,31,9.809,-0.8905,-0.2225,-0.3534,0.1803
-0.056,0.258,0.057,-62,122.3,129.5,1023,2018,5,17,20,31,9.848,-0.878,-0.2351,-0.3641,0.2027
0.183,-0.305,-0.234,-59.3,123.1,127,1023,2018,5,17,20,31,9.871,-0.8638,-0.2482,-0.3745,0.2277
0.324,-0.82,-0.454,-43,104.2,85.1,0,2018,5,17,20,31,9.876,-0.8507,-0.2606,-0.3824,0.249
0.298,-0.906,-0.48,-12.4,54,14.9,0,2018,5,17,20,31,9.892,-0.8428,-0.2707,-0.3852,0.2603
0.23,-0.734,-0.483,11.1,-30,-64.2,0,2018,5,17,20,31,9.93,-0.8436,-0.2743,-0.3835,0.2567
0.122,-0.486,-0.399,23.6,-109.9,-122.8,0,2018,5,17,20,31,9.93,-0.8525,-0.2693,-0.3793,0.2381
0.005,-0.142,-0.188,39.3,-144.8,-149.9,0,2018,5,17,20,31,9.953,-0.8661,-0.2571,-0.3737,0.2096
-0.265,0.423,0.295,48.1,-121,-144.5,0,2018,5,17,20,31,9.972,-0.8801,-0.2446,-0.365,0.1795
-0.466,0.882,0.54,16.3,-45.8,-74.1,0,2018,5,17,20,31,9.995,-0.8893,-0.2378,-0.357,0.1578
-0.537,1.177,0.747,-37,22.5,29.8,0,2018,5,17,20,31,10.012,-0.8893,-0.2386,-0.3584,0.1538
-0.391,0.81,0.598,-58.6,64,110,0,2018,5,17,20,31,10.03,-0.8821,-0.2422,-0.3682,0.1658
-0.162,0.283,0.217,-63,101.7,158.5,0,2018,5,17,20,31,10.054,-0.8701,-0.2483,-0.381,0.1897
0.03,-0.565,-0.148,-68.2,140.2,170.8,0,2018,5,17,20,31,10.072,-0.8544,-0.2576,-0.3938,0.2201
0.265,-0.761,-0.313,-48.8,131.7,119.5,0,2018,5,17,20,31,10.09,-0.8372,-0.2713,-0.4039,0.2495
0.201,-0.9,-0.436,-3.8,27.2,20.1,0,2018,5,17,20,31,10.113,-0.8284,-0.2794,-0.4073,0.2637
0.21,-0.853,-0.481,20.8,-86.3,-83.3,0,2018,5,17,20,31,10.134,-0.8324,-0.2768,-0.4059,0.2562
0.151,-0.627,-0.417,48.5,-159.5,-153.1,0,2018,5,17,20,31,10.152,-0.8462,-0.2651,-0.4005,0.2304
-0.03,-0.168,-0.15,75.3,-167.4,-177.7,1023,2018,5,17,20,31,10.175,-0.8645,-0.2494,-0.3897,0.196
-0.44,0.371,0.385,82,-112.9,-151.5,1023,2018,5,17,20,31,10.194,-0.8813,-0.2362,-0.3747,0.1639
-0.486,0.877,0.544,33.1,-22.9,-58.3,1023,2018,5,17,20,31,10.217,-0.8908,-0.2313,-0.363,0.1452
-0.477,1.219,0.723,-23.4,36.7,37.1,1023,2018,5,17,20,31,10.235,-0.8904,-0.2341,-0.3621,0.1451
-0.306,0.842,0.465,-46.7,54,107,1023,2018,5,17,20,31,10.256,-0.8841,-0.2374,-0.3699,0.1582
-0.136,0.342,0.11,-52,67.2,145.7,1023,2018,5,17,20,31,10.274,-0.8743,-0.2399,-0.3814,0.1801
-0.02,-0.394,-0.122,-51.1,85,147.9,1023,2018,5,17,20,31,10.294,-0.8627,-0.2428,-0.3929,0.2055
0.12,-0.656,-0.355,-38.6,78.8,114.1,1023,2018,5,17,20,31,10.312,-0.8507,-0.2486,-0.4021,0.2294
0.202,-0.727,-0.553,-11.4,17.5,47.7,1023,2018,5,17,20,31,10.335,-0.8434,-0.2513,-0.4075,0.2436
0.359,-0.692,-0.618,16.4,-61.5,-26.8,1023,2018,5,17,20,31,10.353,-0.8443,-0.2471,-0.4085,0.2429
0.373,-0.558,-0.546,40.7,-113.2,-81.9,1023,2018,5,17,20,31,10.376,-0.8527,-0.2365,-0.4054,0.2289
0.295,-0.21,-0.336,48.5,-137.6,-113.9,1023,2018,5,17,20,31,10.393,-0.8649,-0.2227,-0.3994,0.2066
0.108,0.164,-0.08,37.2,-124.4,-114.6,1023,2018,5,17,20,31,10.416,-0.877,-0.209,-0.3928,0.1811
0.045,0.494,0.094,14.6,-84,-83.7,1023,2018,5,17,20,31,10.435,-0.8854,-0.1991,-0.3885,0.1594
0.074,0.715,0.182,9.1,-59.5,-45.2,1023,2018,5,17,20,31,10.459,-0.89,-0.1925,-0.3866,0.1453
-0.002,0.567,0.127,27.7,-44,-12.5,1023,2018,5,17,20,31,10.476,-0.8937,-0.1856,-0.3843,0.1379
-0.186,0.466,0.148,39.1,8.1,23.5,1023,2018,5,17,20,31,10.499,-0.8965,-0.1816,-0.3794,0.1387
-0.413,0.257,0.411,40.8,39.5,65,1023,2018,5,17,20,31,10.536,-0.8971,-0.1818,-0.3739,0.1487
-0.491,-0.128,0.477,44.5,56.1,95.7,1023,2018,5,17,20,31,10.559,-0.8961,-0.1828,-0.3686,0.1661
-0.596,-0.329,0.436,28,64.4,89.2,0,2018,5,17,20,31,10.563,-0.8935,-0.1855,-0.3639,0.1863
-0.519,-0.175,0.323,-6.9,18.9,60,0,2018,5,17,20,31,10.578,-0.8901,-0.1876,-0.3631,0.2011
-0.259,-0.083,0.17,-35.2,-54.4,32.8,0,2018,5,17,20,31,10.596,-0.8878,-0.1821,-0.3691,0.2057
0.122,-0.175,0.014,-52,-58.4,32.1,0,2018,5,17,20,31,10.614,-0.8857,-0.172,-0.3792,0.2049
0.294,-0.21,-0.205,-46.8,-19.9,40.1,0,2018,5,17,20,31,10.637,-0.8821,-0.1654,-0.3895,0.2066
0.312,-0.096,-0.44,-32.8,-5.2,29.7,0,2018,5,17,20,31,10.673,-0.8782,-0.1632,-0.3971,0.2104
0.47,-0.095,-0.427,-6.9,-23.5,5.3,0,2018,5,17,20,31,10.696,-0.8766,-0.1606,-0.4012,0.2112
0.48,-0.485,-0.157,15.3,-25.7,-11.3,0,2018,5,17,20,31,10.701,-0.8779,-0.1566,-0.4012,0.2088
0.25,-0.901,0.225,20.3,3.8,-34.9,0,2018,5,17,20,31,10.737,-0.8805,-0.1557,-0.3978,0.2053
0.013,-0.695,0.292,-8.2,1.8,-84.5,0,2018,5,17,20,31,10.758,-0.8828,-0.1609,-0.3947,0.1969
-0.093,-0.283,0.207,-41.9,-60.8,-135.2,0,2018,5,17,20,31,10.762,-0.8854,-0.1651,-0.3968,0.1766
-0.184,0.026,0.053,-45.8,-86.5,-150.7,0,2018,5,17,20,31,10.779,-0.8887,-0.164,-0.4019,0.1468
-0.338,0.535,-0.156,-29.9,-55.2,-122.6,0,2018,5,17,20,31,10.802,-0.8913,-0.1636,-0.4056,0.1192
-0.391,0.932,-0.311,0.7,-36,-74.1,1023,2018,5,17,20,31,10.817,-0.8933,-0.1641,-0.4059,0.1007
-0.339,0.981,-0.439,42,-29.5,-18.8,1023,2018,5,17,20,31,10.837,-0.8966,-0.1617,-0.4016,0.0921
-0.35,0.824,-0.438,85.6,-8.2,45.1,1023,2018,5,17,20,31,10.86,-0.9015,-0.1564,-0.3921,0.0949
-0.19,0.735,-0.405,113.6,21.7,98.3,1023,2018,5,17,20,31,10.876,-0.9068,-0.1508,-0.3777,0.1102
-0.109,0.397,-0.048,124.1,3.7,120.8,1023,2018,5,17,20,31,10.899,-0.9117,-0.1439,-0.3612,0.1324
-0.29,-0.526,0.582,112,-31.2,113,1023,2018,5,17,20,31,10.937,-0.9165,-0.1307,-0.3454,0.1533
-0.414,-1.392,0.894,62.2,-21.2,80.8,1023,2018,5,17,20,31,10.937,-0.9197,-0.1179,-0.334,0.1691
0.105,-1.317,0.85,-22.7,-14.4,14.6,1023,2018,5,17,20,31,10.96,-0.9196,-0.1128,-0.3324,0.176
0.41,-0.863,0.446,-96.6,-65.2,-65,1023,2018,5,17,20,31,10.98,-0.9173,-0.1101,-0.3435,0.168
0.283,-0.537,0.125,-109,-96.1,-126.6,1023,2018,5,17,20,31,11.003,-0.9151,-0.1054,-0.3612,0.1446
0.001,-0.191,-0.204,-88.5,-63.2,-152.1,1023,2018,5,17,20,31,11.021,-0.9134,-0.1038,-0.3763,0.1148
-0.206,0.517,-0.446,-58.2,-54.7,-149.4,1023,2018,5,17,20,31,11.044,-0.9122,-0.1065,-0.3861,0.0858
-0.208,1.319,-0.482,-11.6,-79.2,-127.1,1023,2018,5,17,20,31,11.081,-0.9129,-0.1056,-0.3899,0.0585
-0.275,1.571,-0.303,40.8,-75.5,-50.3,1023,2018,5,17,20,31,11.081,-0.9163,-0.0979,-0.3862,0.0389
-0.418,1.446,-0.115,74.6,-7,65.2,1023,2018,5,17,20,31,11.104,-0.921,-0.09,-0.3769,0.0387
-0.458,1.406,-0.166,87.6,42.7,170.7,1023,2018,5,17,20,31,11.123,-0.9249,-0.0854,-0.3652,0.0622
-0.436,0.722,0.058,88.1,-34.9,195,1023,2018,5,17,20,31,11.142,-0.9277,-0.0741,-0.3534,0.0947
-0.412,-1.305,0.561,67.8,-102.2,165.3,1023,2018,5,17,20,31,11.177,-0.9299,-0.0483,-0.344,0.1202
-0.126,-3.013,0.766,8.9,-26.2,98,0,2018,5,17,20,31,11.2,-0.9298,-0.0278,-0.3402,0.1372
0.381,-2.264,0.515,-64.6,60.2,-3.8,0,2018,5,17,20,31,11.205,-0.9267,-0.0305,-0.3445,0.1467
0.609,-1.037,0.099,-109.7,-6.9,-110.7,0,2018,5,17,20,31,11.223,-0.9223,-0.0419,-0.3583,0.1381
0.103,-0.547,-0.181,-107,-49.5,-179.2,0,2018,5,17,20,31,11.258,-0.9188,-0.0479,-0.3757,0.1109
-0.326,0.41,-0.401,-85.8,-48,-201.4,0,2018,5,17,20,31,11.281,-0.9158,-0.0546,-0.3903,0.076
-0.375,1.392,-0.4,-45.5,-56.3,-167.2,0,2018,5,17,20,31,11.286,-0.9138,-0.0597,-0.3994,0.0418
-0.281,1.995,-0.31,-1.8,-48,-76.4,0,2018,5,17,20,31,11.322,-0.9134,-0.0598,-0.402,0.0186
-0.269,1.812,-0.183,38.7,-19.9,45.8,0,2018,5,17,20,31,11.345,-0.9152,-0.0549,-0.3988,0.0146
-0.278,1.39,-0.314,75.3,20.1,159.4,0,2018,5,17,20,31,11.35,-0.9188,-0.0473,-0.3902,0.033
-0.36,0.726,-0.256,92.5,-9.7,197.6,0,2018,5,17,20,31,11.363,-0.9228,-0.0363,-0.3779,0.0648
-0.468,-1.657,0.523,110.6,-87.4,161.2,0,2018,5,17,20,31,11.381,-0.9271,-0.0132,-0.3631,0.0912
-0.34,-3.712,0.751,46.8,10.5,66.2,0,2018,5,17,20,31,11.404,-0.9306,0.004,-0.3499,0.1069
0.547,-1.982,0.569,-51.3,81.3,-70.2,0,2018,5,17,20,31,11.422,-0.9303,-0.0076,-0.3496,0.1103
0.53,-0.826,0.256,-84.5,0.9,-171.3,0,2018,5,17,20,31,11.446,-0.9278,-0.0229,-0.3606,0.0916
-0.208,0.201,-0.217,-96.5,-18.7,-213.8,1023,2018,5,17,20,31,11.464,-0.9246,-0.0349,-0.3745,0.0585
-0.478,1.517,-0.417,-71.6,-66.1,-198.8,1023,2018,5,17,20,31,11.487,-0.9205,-0.0428,-0.3875,0.0213
-0.362,2.281,-0.424,-22.3,-99.4,-108.2,1023,2018,5,17,20,31,11.506,-0.9182,-0.0396,-0.394,-0.0096
-0.208,2.073,-0.386,31.3,-71.9,29,1023,2018,5,17,20,31,11.524,-0.919,-0.0272,-0.3925,-0.0217
-0.247,1.476,-0.519,76.3,21.1,172.5,1023,2018,5,17,20,31,11.547,-0.9232,-0.0161,-0.3837,-0.0054
-0.528,0.66,-0.359,117,32.7,226.7,1023,2018,5,17,20,31,11.584,-0.929,-0.0083,-0.3684,0.0319
-0.576,-1.163,0.521,142.2,-20.7,189.2,1023,2018,5,17,20,31,11.607,-0.9356,0.0068,-0.3464,0.0672
-0.568,-3.22,0.791,65.4,33.4,81.7,1023,2018,5,17,20,31,11.612,-0.9402,0.0172,-0.3281,0.0893
0.476,-1.656,0.636,-39.7,22.7,-56,1023,2018,5,17,20,31,11.626,-0.9407,0.0104,-0.3258,0.0931
0.649,-0.698,0.335,-83.8,-60.5,-139.1,1023,2018,5,17,20,31,11.663,-0.9382,0.008,-0.3377,0.0746
0.042,-0.348,0.128,-93.3,-29,-163.9,1023,2018,5,17,20,31,11.663,-0.9343,0.0063,-0.3533,0.0461
-0.357,0.557,-0.246,-95.4,13.7,-153.9,1023,2018,5,17,20,31,11.686,-0.9293,-0.0042,-0.3685,0.0201
-0.105,1.622,-0.442,-73.5,-29.8,-126.5,1023,2018,5,17,20,31,11.704,-0.9238,-0.0126,-0.3825,-0.0028
-0.058,1.876,-0.435,-22.4,-50.8,-46.3,1023,2018,5,17,20,31,11.726,-0.9206,-0.0107,-0.3898,-0.0201
-0.065,1.576,-0.38,31.1,5.9,81.9,1023,2018,5,17,20,31,11.762,-0.921,-0.0053,-0.3889,-0.0182
-0.203,1.178,-0.544,82.6,61.7,186.8,1023,2018,5,17,20,31,11.785,-0.9251,-0.0018,-0.3794,0.0077
-0.653,0.264,-0.251,122.3,43,203.5,1023,2018,5,17,20,31,11.789,-0.931,0.0024,-0.362,0.0448
-0.823,-2.101,0.609,129.7,-0.8,151.2,1023,2018,5,17,20,31,11.826,-0.9372,0.0123,-0.3404,0.0746
-0.4,-2.605,0.903,48.1,36.4,46.4,0,2018,5,17,20,31,11.849,-0.941,0.0178,-0.3251,0.0911
0.466,-1.362,0.735,-44.1,9.2,-58.5,0,2018,5,17,20,31,11.854,-0.9413,0.0117,-0.3247,0.0908
0.448,-0.61,0.472,-87.1,-35,-124.4,0,2018,5,17,20,31,11.869,-0.9385,0.0085,-0.3369,0.0742
-0.056,-0.238,0.169,-99.1,-2.9,-145.3,0,2018,5,17,20,31,11.892,-0.9342,0.0031,-0.3529,0.0506
-0.339,0.318,-0.133,-95.5,36.7,-134.2,0,2018,5,17,20,31,11.908,-0.929,-0.0096,-0.3686,0.0291
-0.032,1.273,-0.373,-79.8,17.9,-102.6,0,2018,5,17,20,31,11.945,-0.9235,-0.0229,-0.3826,0.0118
0.04,1.74,-0.605,-40.7,-24.6,-49.7,0,2018,5,17,20,31,11.968,-0.9196,-0.0276,-0.3918,-0.001
0.074,1.496,-0.547,12.3,-18.9,48.1,0,2018,5,17,20,31,11.972,-0.9187,-0.0229,-0.394,-0.0026
-0.105,1.009,-0.559,70.4,27.7,138,0,2018,5,17,20,31,11.989,-0.9216,-0.0167,-0.3873,0.0137
-0.381,0.369,-0.381,112.2,64.7,183.9,0,2018,5,17,20,31,12.007,-0.9269,-0.0129,-0.3723,0.0444
-0.682,-1.002,0.408,134,64.8,159.1,0,2018,5,17,20,31,12.03,-0.933,-0.0116,-0.3508,0.078
-0.546,-1.698,0.883,83,38.9,75.7,0,2018,5,17,20,31,12.049,-0.9377,-0.0108,-0.332,0.1007
0.064,-1.44,0.981,-0.5,-2.7,-14.4,0,2018,5,17,20,31,12.073,-0.9396,-0.0114,-0.325,0.1062
0.364,-0.672,0.652,-77.9,-23,-68.9,0,2018,5,17,20,31,12.092,-0.9378,-0.0123,-0.3327,0.0977
0.016,-0.276,0.282,-108.8,-13.1,-89.4,0,2018,5,17,20,31,12.109,-0.9334,-0.0153,-0.3486,0.0827
-0.235,0.136,-0.123,-110,18.8,-84.3,0,2018,5,17,20,31,12.127,-0.9276,-0.0227,-0.3663,0.0686
-0.164,0.641,-0.468,-91.7,28.9,-67.2,1023,2018,5,17,20,31,12.15,-0.9217,-0.033,-0.3821,0.0578
0.053,1.026,-0.671,-58.7,12.7,-31.2,1023,2018,5,17,20,31,12.169,-0.9168,-0.0407,-0.3937,0.0509
0.272,0.972,-0.764,-2.5,11.9,17.8,1023,2018,5,17,20,31,12.192,-0.9147,-0.0425,-0.3986,0.05
0.286,0.688,-0.697,69.3,73.4,79.9,1023,2018,5,17,20,31,12.21,-0.9162,-0.0453,-0.3932,0.0611
-0.085,0.243,-0.472,141.9,124.1,118.6,1023,2018,5,17,20,31,12.231,-0.9214,-0.0536,-0.3751,0.0859
-0.407,-0.686,0.378,160.7,107,85.8,1023,2018,5,17,20,31,12.249,-0.9284,-0.0636,-0.3483,0.1123
-0.408,-1.156,0.998,102,76.8,17.7,1023,2018,5,17,20,31,12.272,-0.9341,-0.0725,-0.3251,0.1276
-0.095,-0.829,1.145,4.5,26.3,-44.4,1023,2018,5,17,20,31,12.292,-0.9367,-0.0809,-0.3152,0.1284
0.089,-0.302,0.834,-86.6,-10.8,-82,1023,2018,5,17,20,31,12.313,-0.9355,-0.0865,-0.3218,0.117
-0.125,-0.061,0.327,-126,-19.2,-92.5,1023,2018,5,17,20,31,12.35,-0.9311,-0.0906,-0.3387,0.0997
-0.272,0.326,-0.232,-128.9,-8.9,-86.8,1023,2018,5,17,20,31,12.373,-0.9248,-0.0962,-0.3586,0.082
-0.118,0.719,-0.663,-103.8,-20.5,-65,1023,2018,5,17,20,31,12.378,-0.9185,-0.1004,-0.3764,0.0666
0.03,0.987,-0.877,-55.2,-34.9,-19.9,1023,2018,5,17,20,31,12.392,-0.9142,-0.0994,-0.3886,0.0569
0.208,0.914,-0.92,11.1,-18.8,35,1023,2018,5,17,20,31,12.416,-0.9131,-0.0943,-0.3925,0.056
0.135,0.761,-0.934,85.6,21.9,97,1023,2018,5,17,20,31,12.434,-0.9158,-0.0895,-0.3855,0.0676
-0.128,0.602,-0.746,141.4,43.6,126.3,1023,2018,5,17,20,31,12.451,-0.9213,-0.0862,-0.368,0.0906
-0.397,-0.071,-0.117,171.9,13.3,118.6,1023,2018,5,17,20,31,12.474,-0.9286,-0.0803,-0.3435,0.1149
-0.479,-0.894,0.556,155,-0.5,89.4,1023,2018,5,17,20,31,12.49,-0.936,-0.0713,-0.3174,0.1341
-0.379,-1.586,1.244,101.6,26.9,46.4,0,2018,5,17,20,31,12.529,-0.9413,-0.0664,-0.2964,0.1469
-0.049,-1.056,1.18,-3.1,26.3,-18.1,0,2018,5,17,20,31,12.552,-0.9429,-0.0699,-0.2879,0.1515
0.175,-0.434,0.934,-90.5,-47.2,-82.3,0,2018,5,17,20,31,12.557,-0.9418,-0.0725,-0.2962,0.1412
-0.12,-0.562,0.636,-130.4,-49.6,-108.3,0,2018,5,17,20,31,12.573,-0.9387,-0.0708,-0.3149,0.1204
-0.29,-0.196,0.184,-144.6,2.8,-117.5,0,2018,5,17,20,31,12.596,-0.9331,-0.0764,-0.337,0.0989
-0.268,0.376,-0.284,-139,10,-118.2,0,2018,5,17,20,31,12.615,-0.9261,-0.0878,-0.3583,0.0782
-0.147,0.846,-0.679,-111.3,-20.7,-98.8,0,2018,5,17,20,31,12.637,-0.9194,-0.0954,-0.3769,0.0581
0.036,1.103,-0.842,-63.2,-44.1,-55,0,2018,5,17,20,31,12.656,-0.9148,-0.0957,-0.3899,0.0421
0.146,1.021,-0.865,6.3,-24,7.4,0,2018,5,17,20,31,12.679,-0.9137,-0.0913,-0.3942,0.0355
0.094,0.887,-0.852,77.7,23.2,78.3,0,2018,5,17,20,31,12.695,-0.9164,-0.0882,-0.3878,0.0437
-0.02,0.854,-0.768,131.7,22,117.4,0,2018,5,17,20,31,12.71,-0.9221,-0.0849,-0.3718,0.0638
-0.265,0.179,-0.272,165.2,-30.3,109.1,0,2018,5,17,20,31,12.732,-0.9302,-0.0749,-0.3491,0.0843
-0.458,-1.49,0.726,172.8,1.3,91.6,0,2018,5,17,20,31,12.771,-0.939,-0.0619,-0.3226,0.101
-0.588,-2.128,1.244,110.1,141.4,61.4,0,2018,5,17,20,31,12.795,-0.9449,-0.0668,-0.2974,0.1191
-0.178,-0.664,1.15,-14.1,119.8,-17.8,0,2018,5,17,20,31,12.799,-0.9447,-0.0899,-0.2868,0.1309
-0.01,0.119,0.755,-109.4,-36.8,-84.5,0,2018,5,17,20,31,12.816,-0.9419,-0.1004,-0.2961,0.1223
-0.143,0.574,0.034,-155.6,-115.8,-92,0,2018,5,17,20,31,12.839,-0.9378,-0.0939,-0.3188,0.1
-0.109,0.991,-0.625,-142.2,-105.7,-58,1023,2018,5,17,20,31,12.856,-0.9319,-0.0818,-0.3445,0.078
0.095,1.248,-0.881,-74.9,-73.6,-4.7,1023,2018,5,17,20,31,12.895,-0.9266,-0.0705,-0.3632,0.0661
0.31,1.101,-0.954,21.9,-39,57.8,1023,2018,5,17,20,31,12.917,-0.9254,-0.0597,-0.3682,0.0665
0.179,0.811,-0.88,101.9,12.9,122.1,1023,2018,5,17,20,31,12.922,-0.9285,-0.0514,-0.3584,0.0819
-0.34,-0.168,-0.176,164.1,-5.9,125.2,1023,2018,5,17,20,31,12.936,-0.9346,-0.0424,-0.3373,0.1043
-0.974,-1.673,0.689,150.2,-9.1,70.8,1023,2018,5,17,20,31,12.954,-0.942,-0.032,-0.3111,0.1213
-0.546,-1.301,0.965,41.1,-16.3,-9.3,1023,2018,5,17,20,31,12.977,-0.9464,-0.028,-0.2956,0.1262
-0.098,-0.075,0.651,-70.5,-157.7,-89.7,1023,2018,5,17,20,31,13.014,-0.9469,-0.0175,-0.3004,0.1123
0.053,0.738,0.279,-125,-288.4,-109.6,1023,2018,5,17,20,31,13.037,-0.9432,0.0132,-0.3214,0.0822
-0.196,0.898,0.038,-132.5,-290.8,-78.2,1023,2018,5,17,20,31,13.042,-0.9348,0.0558,-0.3471,0.0499
-0.321,0.654,-0.107,-118.9,-206.9,-22.3,1023,2018,5,17,20,31,13.056,-0.924,0.0925,-0.3698,0.0276
-0.274,0.789,-0.095,-97.3,-148.3,40.9,1023,2018,5,17,20,31,13.079,-0.9137,0.1205,-0.3874,0.0206
-0.084,0.819,-0.149,-103.4,-177.6,83.6,1023,2018,5,17,20,31,13.097,-0.9031,0.1493,-0.4019,0.0227
0.073,0.456,-0.15,-120.2,-227.2,82.5,1023,2018,5,17,20,31,13.12,-0.8891,0.1868,-0.417,0.0257
-0.002,-1.065,-0.3,-112.5,-239.6,64.7,1023,2018,5,17,20,31,13.139,-0.8705,0.231,-0.4337,0.023
0.325,-2.119,-0.365,-81.1,-78.2,42.4,1023,2018,5,17,20,31,13.162,-0.8559,0.2592,-0.4468,0.0232
0.638,-1.943,-0.42,-44,21.4,-25.2,1023,2018,5,17,20,31,13.18,-0.8503,0.2623,-0.4553,0.0265
0.774,-1.184,-0.205,-29.8,42.5,-109.5,1023,2018,5,17,20,31,13.203,-0.8493,0.2512,-0.4637,0.0209
0.428,-0.807,-0.07,-18.5,57,-172.7,0,2018,5,17,20,31,13.218,-0.8497,0.2322,-0.4732,0.0051
0.015,-0.845,-0.102,-8.6,58.8,-232.7,0,2018,5,17,20,31,13.237,-0.8506,0.2065,-0.483,-0.0196
-0.215,-0.516,-0.054,-9.1,40.2,-278.6,0,2018,5,17,20,31,13.261,-0.8497,0.1775,-0.4935,-0.053
-0.477,0.105,-0.054,-6.5,9.5,-298.9,0,2018,5,17,20,31,13.28,-0.8461,0.1481,-0.5034,-0.0934
-0.74,1.017,-0.008,5,-54.2,-270.8,0,2018,5,17,20,31,13.297,-0.8397,0.1261,-0.5098,-0.1373
-0.903,1.583,0.06,2.3,-92.6,-192.2,0,2018,5,17,20,31,13.32,-0.832,0.1169,-0.5118,-0.1787
-0.798,1.719,0.097,-11.7,-92.9,-72.9,0,2018,5,17,20,31,13.339,-0.8253,0.1192,-0.512,-0.2058
-0.6,1.65,0.006,-12.3,-88.7,38.2,0,2018,5,17,20,31,13.361,-0.8215,0.1317,-0.5109,-0.2157
-0.43,1.258,-0.167,5.3,-50.8,142.2,0,2018,5,17,20,31,13.379,-0.8229,0.1506,-0.5066,-0.2082
-0.309,0.844,-0.26,23.6,-12,212,0,2018,5,17,20,31,13.402,-0.8298,0.1699,-0.4984,-0.1843
-0.327,0.168,-0.323,23.5,-65.7,219.4,0,2018,5,17,20,31,13.438,-0.8377,0.1929,-0.4866,-0.1551
0.011,-0.967,-0.355,3.4,-175.5,153,0,2018,5,17,20,31,13.438,-0.8388,0.2273,-0.4749,-0.1382
0.478,-2.708,-0.273,5.3,-126.9,53.3,0,2018,5,17,20,31,13.461,-0.8341,0.2604,-0.4664,-0.1369
0.815,-2.283,0.035,33.8,28.4,-46.8,0,2018,5,17,20,31,13.479,-0.8336,0.2668,-0.4624,-0.1412
0.509,-1.032,0.208,40,118.4,-124.1,0,2018,5,17,20,31,13.502,-0.8383,0.2463,-0.463,-0.1488
-0.072,-0.09,0.165,16,80.6,-179.3,0,2018,5,17,20,31,13.546,-0.8408,0.2173,-0.468,-0.1632
-0.425,0.332,0.094,-5,-9.2,-204.7,0,2018,5,17,20,31,13.548,-0.8362,0.1965,-0.4755,-0.1894
-0.585,0.863,0.214,-11.3,-48.9,-166.6,0,2018,5,17,20,31,13.561,-0.8274,0.1863,-0.4821,-0.2192
-0.669,1.385,0.232,-19.4,-44.2,-84,1023,2018,5,17,20,31,13.597,-0.8196,0.1832,-0.4863,-0.2409
-0.596,1.551,0.118,-30.8,-43.5,16.9,1023,2018,5,17,20,31,13.62,-0.8146,0.1879,-0.4892,-0.2483
-0.539,1.236,-0.081,-25,-24.9,114.5,1023,2018,5,17,20,31,13.625,-0.8138,0.2001,-0.4896,-0.2404
-0.468,0.808,-0.18,-0.5,17.7,198.8,1023,2018,5,17,20,31,13.643,-0.8189,0.2151,-0.4856,-0.2171
-0.406,0.508,-0.233,19.4,26.6,241.7,1023,2018,5,17,20,31,13.662,-0.8289,0.2295,-0.4763,-0.1823
-0.231,-0.134,-0.227,11.6,-58.6,226.3,1023,2018,5,17,20,31,13.685,-0.8365,0.2506,-0.4638,-0.1491
-0.117,-1.394,-0.201,-1,-136.4,160.3,1023,2018,5,17,20,31,13.701,-0.8365,0.2818,-0.4516,-0.129
0.419,-2.325,-0.162,-6.3,-75.5,68.8,1023,2018,5,17,20,31,13.72,-0.8326,0.3075,-0.4444,-0.1209
0.761,-1.974,0.027,10.5,37.8,-37.1,1023,2018,5,17,20,31,13.757,-0.8321,0.3109,-0.4433,-0.1197
0.573,-1.03,0.122,12.3,80,-118,1023,2018,5,17,20,31,13.779,-0.8348,0.2948,-0.4473,-0.1267
0.155,-0.422,0.097,0.5,53.8,-174.7,1023,2018,5,17,20,31,13.784,-0.8352,0.2726,-0.4555,-0.1428
-0.11,-0.254,0.007,-3.6,6.7,-213.2,1023,2018,5,17,20,31,13.821,-0.8309,0.253,-0.4657,-0.1689
-0.252,-0.06,-0.075,3.5,-8.3,-225.5,1023,2018,5,17,20,31,13.842,-0.8235,0.2353,-0.4753,-0.201
-0.398,0.4,-0.11,18.8,-17.9,-209.6,1023,2018,5,17,20,31,13.846,-0.8156,0.2186,-0.482,-0.2335
-0.457,0.841,0.014,30.5,-23.8,-160.3,1023,2018,5,17,20,31,13.863,-0.8089,0.2051,-0.4842,-0.2626
-0.641,1.262,0.077,28,-18.4,-78.2,1023,2018,5,17,20,31,13.885,-0.8052,0.1964,-0.4831,-0.282
-0.669,1.5,0.173,14.2,-18.6,22.5,1023,2018,5,17,20,31,13.904,-0.8051,0.1959,-0.4802,-0.2876
-0.659,1.465,0.149,1.9,-19,122.4,0,2018,5,17,20,31,13.926,-0.8088,0.2044,-0.4756,-0.2787
-0.607,1.203,-0.003,-5.4,-22.5,204.4,0,2018,5,17,20,31,13.944,-0.8157,0.2214,-0.4689,-0.2562
-0.553,0.755,0.012,-1.3,-32.2,260.3,0,2018,5,17,20,31,13.967,-0.824,0.2449,-0.4589,-0.2243
-0.505,0.108,-0.102,-2.1,-28.5,286.6,0,2018,5,17,20,31,13.984,-0.8326,0.2712,-0.4455,-0.1861
-0.215,-1.207,-0.353,-12.3,-91.5,246,0,2018,5,17,20,31,14.003,-0.8372,0.3002,-0.4317,-0.1499
0.253,-2.415,-0.539,-36.9,-167.7,116.9,0,2018,5,17,20,31,14.022,-0.832,0.3346,-0.4222,-0.132
0.93,-2.951,-0.233,-16,-114.8,-23.9,0,2018,5,17,20,31,14.062,-0.821,0.3611,-0.4207,-0.1355
0.932,-2.104,0.1,24.2,68.9,-120.6,0,2018,5,17,20,31,14.085,-0.8181,0.3581,-0.4246,-0.1484
0.304,-0.992,0.036,33.9,174.1,-177.6,0,2018,5,17,20,31,14.089,-0.8246,0.3262,-0.4327,-0.1618
-0.256,-0.182,0.003,18.9,130.8,-230,0,2018,5,17,20,31,14.108,-0.8291,0.2865,-0.4447,-0.1804
-0.534,0.408,-0.055,0,39.9,-251.6,0,2018,5,17,20,31,14.126,-0.8254,0.2551,-0.4579,-0.2095
-0.695,1.124,0.174,-4.1,-27.8,-216.1,0,2018,5,17,20,31,14.147,-0.8156,0.236,-0.4687,-0.2434
-0.753,1.596,0.227,-4.9,-29.2,-120.8,0,2018,5,17,20,31,14.186,-0.8064,0.2269,-0.4746,-0.27
-0.728,1.781,0.193,-19.7,-14.4,3,0,2018,5,17,20,31,14.186,-0.8018,0.2257,-0.4775,-0.2791
-0.672,1.493,0.025,-19.7,-5.8,121.3,0,2018,5,17,20,31,14.209,-0.8028,0.2338,-0.4774,-0.2698
-0.588,1.032,-0.134,-2.4,23.3,219.6,0,2018,5,17,20,31,14.225,-0.81,0.2479,-0.4721,-0.2438
-0.508,0.736,-0.216,14.7,17.4,274.6,0,2018,5,17,20,31,14.244,-0.8217,0.2645,-0.4608,-0.2056
-0.317,-0.126,-0.401,5.3,-64.4,261.4,0,2018,5,17,20,31,14.267,-0.8305,0.2889,-0.4454,-0.1679
-0.029,-1.863,-0.539,-7.2,-144,176.1,0,2018,5,17,20,31,14.301,-0.8303,0.3224,-0.4309,-0.1439
0.634,-3.146,-0.421,9.7,-70.2,45.3,0,2018,5,17,20,31,14.324,-0.826,0.3473,-0.4221,-0.1365
0.992,-2.418,0.012,51.6,90,-78.2,1023,2018,5,17,20,31,14.328,-0.8286,0.3434,-0.4191,-0.1404
0.531,-1.214,0.084,53.8,188.9,-161.4,1023,2018,5,17,20,31,14.366,-0.8381,0.3109,-0.4221,-0.1505
