ax,ay,az,dpitch,droll,dyaw,heart,time_1,time_2,time_3,time_4,time_5,time_6,w,x,y,z
-0.074,-0.081,0.001,-74.4,19.1,-49.3,0,2018,4,24,22,12,19.523,0.7407,-0.0419,-0.6583,0.1268
-0.106,-0.086,-0.034,-76.6,14.3,-52.5,0,2018,4,24,22,12,19.543,0.748,-0.0477,-0.6479,0.1351
-0.157,-0.132,0.033,-80.6,17,-54.9,0,2018,4,24,22,12,19.553,0.7554,-0.0543,-0.6369,0.1436
-0.152,-0.107,0.075,-82.3,22.7,-54.6,0,2018,4,24,22,12,19.589,0.7633,-0.0603,-0.6247,0.1528
-0.11,-0.02,0.037,-80.8,21.9,-50.3,0,2018,4,24,22,12,19.612,0.771,-0.0652,-0.6124,0.1616
-0.113,0.002,0.02,-79.4,13.3,-47.3,0,2018,4,24,22,12,19.614,0.7784,-0.0702,-0.6004,0.169
-0.093,-0.026,0.011,-77.8,11.6,-44.6,0,2018,4,24,22,12,19.65,0.7853,-0.0756,-0.5887,0.1754
-0.094,-0.031,0.006,-75.2,17.9,-42.9,0,2018,4,24,22,12,19.672,0.7919,-0.0805,-0.5773,0.1819
-0.068,0.006,0.009,-71.9,24.8,-40.1,0,2018,4,24,22,12,19.675,0.7981,-0.0839,-0.5659,0.1887
-0.046,0.064,0.018,-68.9,30.7,-34.9,0,2018,4,24,22,12,19.713,0.8042,-0.0856,-0.5546,0.1954
-0.088,0.1,0.062,-67.3,33.8,-26.6,0,2018,4,24,22,12,19.713,0.8104,-0.0856,-0.5433,0.2013
-0.099,0.134,0.139,-68.3,36.3,-18.1,0,2018,4,24,22,12,19.734,0.8167,-0.0845,-0.532,0.2066
-0.034,0.198,0.176,-67.8,30.3,-13.2,0,2018,4,24,22,12,19.771,0.8229,-0.0835,-0.5207,0.211
-0.036,0.198,0.184,-65.6,16,-8.3,0,2018,4,24,22,12,19.793,0.8289,-0.0835,-0.5101,0.2137
-0.038,0.129,0.125,-62.1,4.8,-5.2,0,2018,4,24,22,12,19.796,0.8344,-0.0851,-0.5003,0.2145
-0.054,0.067,0.105,-57.3,2.2,-2.7,0,2018,4,24,22,12,19.832,0.8395,-0.0871,-0.4914,0.2144
0.029,0.043,0.114,-51.4,-5.5,-2.1,0,2018,4,24,22,12,19.854,0.8444,-0.0892,-0.4828,0.2139
0.055,-0.039,0.128,-45.5,-7.8,-2.8,0,2018,4,24,22,12,19.858,0.8488,-0.0924,-0.4748,0.2131
0.075,-0.08,0.115,-39.9,-2.7,-3.3,0,2018,4,24,22,12,19.877,0.8523,-0.0952,-0.4681,0.2126
0.077,-0.103,0.099,-35.2,-1.3,-4.7,0,2018,4,24,22,12,19.9,0.8552,-0.0971,-0.4625,0.2124
0.093,-0.101,0.05,-30.2,0,-5.9,0,2018,4,24,22,12,19.934,0.8576,-0.0989,-0.4576,0.2127
0.102,-0.089,0.017,-26.2,2.3,-6.6,1023,2018,4,24,22,12,19.934,0.8596,-0.1003,-0.4533,0.2132
0.114,-0.081,0.004,-24.4,12.9,-7.3,1023,2018,4,24,22,12,19.957,0.8614,-0.1007,-0.4491,0.2144
0.117,-0.066,-0.019,-23.3,28.7,-6.6,1023,2018,4,24,22,12,19.976,0.8634,-0.0989,-0.4446,0.2167
0.118,-0.015,-0.063,-23.6,41.3,-5.5,1023,2018,4,24,22,12,19.997,0.8656,-0.0957,-0.4392,0.2204
0.131,0.016,-0.102,-22,44.8,-4.3,1023,2018,4,24,22,12,20.032,0.8679,-0.0909,-0.4337,0.2243
0.103,0.004,-0.103,-18.6,43.2,-6.3,1023,2018,4,24,22,12,20.053,0.8697,-0.0859,-0.4288,0.2285
0.076,-0.028,-0.064,-15,35,-8.8,1023,2018,4,24,22,12,20.058,0.8711,-0.0819,-0.4246,0.2326
0.073,-0.029,-0.016,-13.3,30.1,-9.4,1023,2018,4,24,22,12,20.093,0.8722,-0.0787,-0.4208,0.2365
0.068,0.013,-0.002,-12.3,22.1,-10,1023,2018,4,24,22,12,20.114,0.8732,-0.0762,-0.4171,0.2399
0.054,0.024,0.027,-12.6,13.3,-9.3,1023,2018,4,24,22,12,20.119,0.8742,-0.0747,-0.4138,0.2426
0.066,0.062,0.045,-12.4,5.8,-8.6,1023,2018,4,24,22,12,20.158,0.8752,-0.0742,-0.4106,0.2446
0.067,0.093,0.071,-13.1,0.2,-6,1023,2018,4,24,22,12,20.158,0.8762,-0.0746,-0.4077,0.2457
0.078,0.108,0.11,-14.4,-2.4,-2.3,0,2018,4,24,22,12,20.18,0.8769,-0.0756,-0.4056,0.246
0.099,0.175,0.12,-14.4,-7.6,2.1,0,2018,4,24,22,12,20.217,0.8779,-0.0768,-0.4036,0.2456
0.092,0.172,0.122,-13.6,-26.8,5.2,0,2018,4,24,22,12,20.238,0.8789,-0.0798,-0.4022,0.2435
0.098,0.154,0.088,-10.3,-44.4,7.7,0,2018,4,24,22,12,20.241,0.8795,-0.0855,-0.402,0.2398
0.076,0.096,0.069,-9.4,-52.2,8.9,0,2018,4,24,22,12,20.259,0.8797,-0.0929,-0.4027,0.2349
0.067,0.047,0.05,-7.6,-51.5,8.1,0,2018,4,24,22,12,20.28,0.8801,-0.1004,-0.4029,0.2297
0.071,0.033,0.027,-6.1,-49.2,7.4,0,2018,4,24,22,12,20.318,0.8803,-0.1077,-0.4032,0.225
0.086,0.047,0.022,-4.5,-45.9,8.5,0,2018,4,24,22,12,20.339,0.8805,-0.1145,-0.4036,0.2204
0.084,0.032,-0.027,-1.3,-39.2,8.8,0,2018,4,24,22,12,20.34,0.8804,-0.1206,-0.4044,0.2161
0.061,-0.074,-0.071,-3.1,-12.1,9.8,0,2018,4,24,22,12,20.378,0.8802,-0.1247,-0.4051,0.213
0.057,-0.085,-0.022,-2.6,12.6,9.5,0,2018,4,24,22,12,20.399,0.8806,-0.1248,-0.4047,0.2121
0.021,-0.122,0.04,-3.4,21.3,5.5,0,2018,4,24,22,12,20.403,0.8813,-0.1226,-0.4036,0.2126
0.03,-0.163,0.046,-4.4,32.4,2.1,0,2018,4,24,22,12,20.439,0.8824,-0.1186,-0.4017,0.214
0.014,-0.2,0.021,-6.5,49.8,-2.5,0,2018,4,24,22,12,20.439,0.8836,-0.1125,-0.3993,0.2168
0.045,-0.091,0.042,-3.5,53.8,-5.8,0,2018,4,24,22,12,20.46,0.8848,-0.1051,-0.3962,0.2213
0.035,-0.051,0.05,-2.3,49,-10.5,0,2018,4,24,22,12,20.495,0.8856,-0.0985,-0.3931,0.2265
0.042,0.024,0.047,-1.9,40.7,-12.1,0,2018,4,24,22,12,20.516,0.8863,-0.0926,-0.3901,0.2315
0.048,0.084,0.045,-1.4,26.6,-12.7,0,2018,4,24,22,12,20.519,0.8868,-0.0878,-0.3876,0.2357
0.055,0.121,0.033,0.8,3.7,-11.7,0,2018,4,24,22,12,20.556,0.8866,-0.0861,-0.3865,0.2386
0.062,0.133,0.039,4,-19.5,-9.5,0,2018,4,24,22,12,20.577,0.8859,-0.088,-0.387,0.2398
0.055,0.127,0.022,6.2,-40.5,-6.9,0,2018,4,24,22,12,20.581,0.8847,-0.0931,-0.389,0.239
0.054,0.125,0,7.5,-56.4,-2.8,0,2018,4,24,22,12,20.618,0.8834,-0.1004,-0.3918,0.2364
0.044,0.098,-0.021,8.1,-66.6,1.1,1023,2018,4,24,22,12,20.639,0.882,-0.109,-0.3952,0.2322
0.033,0.073,-0.01,8,-73.3,3.8,1023,2018,4,24,22,12,20.644,0.8804,-0.1187,-0.399,0.2269
0.035,0.026,0.002,9.1,-80.3,4.4,1023,2018,4,24,22,12,20.678,0.8785,-0.1296,-0.4031,0.2209
0.019,-0.057,0.008,9.6,-78.4,2.7,1023,2018,4,24,22,12,20.7,0.8761,-0.1415,-0.4074,0.2151
0.007,-0.128,0.008,9.3,-66.4,-0.3,1023,2018,4,24,22,12,20.702,0.8734,-0.153,-0.4115,0.2103
-0.002,-0.136,0,7.7,-46.9,-3.5,1023,2018,4,24,22,12,20.736,0.8709,-0.1625,-0.4147,0.2072
-0.005,-0.116,-0.01,5.8,-25.9,-5.2,1023,2018,4,24,22,12,20.757,0.8689,-0.169,-0.4169,0.2058
-0.01,-0.095,-0.023,4.6,-7.7,-7.1,1023,2018,4,24,22,12,20.761,0.8676,-0.1726,-0.4182,0.2061
-0.016,-0.053,-0.03,4.3,6.4,-8.2,1023,2018,4,24,22,12,20.797,0.8667,-0.1736,-0.4189,0.2076
-0.013,-0.003,-0.018,4.3,13.7,-7.8,1023,2018,4,24,22,12,20.818,0.8662,-0.1726,-0.4192,0.2098
-0.002,0.045,-0.004,4.4,15.4,-5.9,1023,2018,4,24,22,12,20.822,0.8661,-0.1705,-0.4192,0.212
0.002,0.067,-0.006,4.7,11.6,-3.8,0,2018,4,24,22,12,20.86,0.8661,-0.1681,-0.4192,0.2137
0.006,0.069,0.01,4.2,5.1,-2.7,0,2018,4,24,22,12,20.881,0.8661,-0.1664,-0.4193,0.2147
0.004,0.047,0.022,3.3,-1.2,-2.4,0,2018,4,24,22,12,20.885,0.866,-0.1657,-0.4196,0.2152
0.003,0.026,0.024,2.2,-5.7,-2.8,0,2018,4,24,22,12,20.922,0.8658,-0.166,-0.4198,0.2154
0.003,0.007,0.031,0.8,-7.6,-3.5,0,2018,4,24,22,12,20.943,0.8655,-0.1671,-0.42,0.2154
0.009,0.009,0.013,-0.6,-6.7,-3.9,0,2018,4,24,22,12,20.944,0.8653,-0.1685,-0.4199,0.2155
0.013,0.005,0.002,-1.4,-6.1,-3.8,0,2018,4,24,22,12,20.98,0.8651,-0.1697,-0.4197,0.2156
0.012,0.007,-0.004,-2,-5.8,-3.5,0,2018,4,24,22,12,21.004,0.8649,-0.171,-0.4195,0.2157
0.013,0.002,0.003,-3.3,-6.1,-3.3,0,2018,4,24,22,12,21.008,0.8649,-0.1722,-0.4191,0.2158
0.012,0.003,0.008,-4.4,-5.3,-2.8,0,2018,4,24,22,12,21.025,0.8649,-0.1735,-0.4185,0.2158
0.016,0.01,0.003,-5.2,-4,-1.8,0,2018,4,24,22,12,21.063,0.8651,-0.1746,-0.4176,0.2157
0.017,0.019,0.004,-5.7,-3.3,-0.8,0,2018,4,24,22,12,21.085,0.8654,-0.1754,-0.4167,0.2155
0.017,0.018,0.013,-5.6,-3.7,-0.2,0,2018,4,24,22,12,21.09,0.8658,-0.1761,-0.4158,0.2151
0.02,0.014,0.018,-5.5,-4.7,0.2,0,2018,4,24,22,12,21.107,0.8662,-0.1769,-0.4149,0.2147
0.02,0.006,0.024,-4.6,-5.1,0.3,0,2018,4,24,22,12,21.127,0.8666,-0.1778,-0.414,0.2142
0.022,0.004,0.023,-3.7,-5.3,0.1,0,2018,4,24,22,12,21.147,0.8669,-0.1787,-0.4132,0.2137
0.023,-0.006,0.018,-2.5,-5.3,-0.2,0,2018,4,24,22,12,21.166,0.8671,-0.1797,-0.4126,0.2133
0.031,-0.002,0.011,-1.4,-4.4,-0.6,0,2018,4,24,22,12,21.198,0.8671,-0.1807,-0.4122,0.2131
0.033,0.003,0.008,-0.6,-3,-0.8,0,2018,4,24,22,12,21.221,0.8671,-0.1814,-0.4119,0.213
0.03,0,0.006,0.1,-1.5,-0.5,0,2018,4,24,22,12,21.226,0.8671,-0.1819,-0.4116,0.2131
0.033,0.007,0.002,0.6,0,-0.3,0,2018,4,24,22,12,21.261,0.8671,-0.1821,-0.4114,0.2133
0.031,0.014,0.009,0.7,0.7,-0.2,0,2018,4,24,22,12,21.283,0.8672,-0.182,-0.4112,0.2135
0.033,0.013,0.012,0.6,0.2,0.1,0,2018,4,24,22,12,21.288,0.8673,-0.1819,-0.411,0.2136
0.029,0.009,0.013,0.5,-0.2,0.1,0,2018,4,24,22,12,21.325,0.8674,-0.1819,-0.4108,0.2137
0.025,0.003,0.01,0.7,0,0.2,0,2018,4,24,22,12,21.349,0.8675,-0.1819,-0.4106,0.2137
0.02,-0.002,0.008,1.1,0.7,0,1023,2018,4,24,22,12,21.354,0.8675,-0.1818,-0.4105,0.2139
0.017,-0.004,0.005,1.6,1.1,-0.8,1023,2018,4,24,22,12,21.372,0.8675,-0.1817,-0.4104,0.2142
0.017,0,0.012,1.6,1.9,-1,1023,2018,4,24,22,12,21.387,0.8674,-0.1816,-0.4104,0.2146
0.019,0.005,0.011,1.8,2.4,-1,1023,2018,4,24,22,12,21.405,0.8674,-0.1813,-0.4103,0.215
0.021,0.009,0.007,2.1,2.1,-0.7,1023,2018,4,24,22,12,21.429,0.8674,-0.1809,-0.4103,0.2154
0.019,0.01,0.002,2.3,1.6,-0.2,1023,2018,4,24,22,12,21.445,0.8673,-0.1805,-0.4104,0.2157
0.015,0.009,0.004,2.6,0.9,-0.1,1023,2018,4,24,22,12,21.467,0.8673,-0.1802,-0.4105,0.216
0.014,0.01,0.002,2.9,1.3,-0.3,1023,2018,4,24,22,12,21.505,0.8671,-0.1799,-0.4108,0.2162
0.013,0.01,0.003,2.9,1.6,-0.5,1023,2018,4,24,22,12,21.528,0.867,-0.1796,-0.411,0.2165
0.011,0.012,0.001,2.6,1.9,-0.5,1023,2018,4,24,22,12,21.533,0.8669,-0.1792,-0.4112,0.2169
0.01,0.019,-0.001,1.9,1.4,-0.8,1023,2018,4,24,22,12,21.551,0.8669,-0.1788,-0.4114,0.2172
0.009,0.019,0,1.5,0.4,-0.7,1023,2018,4,24,22,12,21.586,0.8668,-0.1786,-0.4115,0.2174
0.006,0.019,0.001,0.9,-0.6,-1.2,1023,2018,4,24,22,12,21.609,0.8667,-0.1785,-0.4116,0.2176
0.008,0.017,0.001,0.2,-0.8,-1.1,0,2018,4,24,22,12,21.614,0.8667,-0.1786,-0.4116,0.2177
0.009,0.018,0.003,-0.3,-1,-1.1,0,2018,4,24,22,12,21.63,0.8667,-0.1787,-0.4115,0.2178
0.013,0.011,0.005,-0.6,-1.8,-1.1,0,2018,4,24,22,12,21.652,0.8667,-0.1789,-0.4113,0.2179
0.011,0.006,0.005,-0.9,-2.3,-1.3,0,2018,4,24,22,12,21.67,0.8667,-0.1793,-0.4111,0.2179
0.014,0.004,-0.001,-1.1,-2,-1.4,0,2018,4,24,22,12,21.688,0.8667,-0.1798,-0.4109,0.218
0.011,0.008,0.001,-1.2,-1.7,-1.4,0,2018,4,24,22,12,21.71,0.8667,-0.1803,-0.4106,0.218
0.012,0.007,0.002,-1,-1.7,-1.6,0,2018,4,24,22,12,21.727,0.8667,-0.1807,-0.4104,0.2181
0.012,0.002,0.002,-0.9,-1.4,-1.6,0,2018,4,24,22,12,21.748,0.8667,-0.1811,-0.4101,0.2182
0.017,0.006,0.01,-0.8,-1.2,-1.6,0,2018,4,24,22,12,21.786,0.8667,-0.1815,-0.4099,0.2184
0.02,0.009,0.01,-0.4,-0.9,-1.4,0,2018,4,24,22,12,21.809,0.8667,-0.1818,-0.4096,0.2186
0.017,0.007,0.004,-0.3,-0.8,-1.3,0,2018,4,24,22,12,21.814,0.8668,-0.182,-0.4093,0.2188
0.022,0.004,0.003,0,-1.1,-1.3,0,2018,4,24,22,12,21.831,0.8667,-0.1823,-0.4092,0.219
0.023,0.004,0.006,0.2,-1.2,-1.4,0,2018,4,24,22,12,21.853,0.8667,-0.1826,-0.409,0.2192
0.018,0.006,0.004,0.2,-0.6,-1.3,0,2018,4,24,22,12,21.871,0.8667,-0.1828,-0.4089,0.2194
0.015,0.007,0.001,-0.1,-0.5,-1.3,0,2018,4,24,22,12,21.894,0.8666,-0.183,-0.4087,0.2196
0.014,0.006,0,-0.2,-0.4,-1.1,0,2018,4,24,22,12,21.911,0.8666,-0.1832,-0.4086,0.2198
0.015,0.01,0,-0.1,-0.6,-1.1,0,2018,4,24,22,12,21.948,0.8666,-0.1833,-0.4085,0.22
0.013,0.006,-0.002,-0.1,-0.8,-1.1,0,2018,4,24,22,12,21.97,0.8666,-0.1835,-0.4083,0.2201
0.01,0.005,-0.004,-0.3,-1.4,-1.3,0,2018,4,24,22,12,21.975,0.8665,-0.1838,-0.4082,0.2202
0.011,0,-0.003,-0.1,-0.9,-1.4,0,2018,4,24,22,12,21.992,0.8665,-0.1842,-0.4081,0.2204
0.013,0.004,-0.001,0,-0.7,-1.4,0,2018,4,24,22,12,22.01,0.8664,-0.1844,-0.408,0.2206
0.015,0.001,-0.001,0,-0.9,-1.4,0,2018,4,24,22,12,22.034,0.8664,-0.1847,-0.4079,0.2208
0.015,0.002,0.002,-0.1,-1.1,-1.3,0,2018,4,24,22,12,22.067,0.8663,-0.185,-0.4078,0.221
0.012,0.004,-0.001,-0.1,-0.7,-1.3,0,2018,4,24,22,12,22.09,0.8663,-0.1853,-0.4077,0.2212
0.013,0.008,-0.002,0,-0.4,-1,0,2018,4,24,22,12,22.095,0.8662,-0.1854,-0.4076,0.2214
0.013,0.006,0.003,-0.3,-0.2,-0.9,0,2018,4,24,22,12,22.111,0.8662,-0.1856,-0.4074,0.2215
0.013,0.012,-0.001,-0.5,-0.6,-0.8,0,2018,4,24,22,12,22.13,0.8662,-0.1857,-0.4073,0.2216
0.015,0.008,-0.002,-0.8,-1,-0.8,1023,2018,4,24,22,12,22.153,0.8663,-0.1859,-0.4071,0.2217
0.013,0.003,0.004,-0.8,-1.3,-0.7,1023,2018,4,24,22,12,22.188,0.8663,-0.1862,-0.4069,0.2217
0.011,0.006,0.006,-0.9,-1.4,-0.5,1023,2018,4,24,22,12,22.211,0.8663,-0.1864,-0.4067,0.2217
0.008,0.003,0,-0.9,-1.5,-0.5,1023,2018,4,24,22,12,22.215,0.8663,-0.1867,-0.4065,0.2217
0.01,0.003,0.004,-0.7,-1.4,-0.6,1023,2018,4,24,22,12,22.247,0.8664,-0.187,-0.4063,0.2217
0.013,0.004,0,-0.6,-1.2,-0.7,1023,2018,4,24,22,12,22.268,0.8664,-0.1873,-0.4062,0.2217
0.015,0.004,-0.004,-0.6,-0.7,-0.7,1023,2018,4,24,22,12,22.274,0.8664,-0.1876,-0.406,0.2218
0.011,0.005,-0.003,-0.5,-0.5,-0.6,1023,2018,4,24,22,12,22.31,0.8664,-0.1878,-0.4059,0.2218
0.011,0.006,0.002,-0.6,-0.5,-0.5,1023,2018,4,24,22,12,22.331,0.8664,-0.1879,-0.4057,0.2219
0.011,0.002,-0.003,-0.5,-0.1,-0.7,1023,2018,4,24,22,12,22.336,0.8665,-0.188,-0.4055,0.222
0.011,0.008,-0.001,-0.6,-0.1,-0.8,1023,2018,4,24,22,12,22.373,0.8665,-0.1881,-0.4053,0.2221
0.007,0.01,-0.005,-0.6,-0.2,-0.7,1023,2018,4,24,22,12,22.395,0.8665,-0.1882,-0.4052,0.2222
0.008,0.012,0,-0.9,-0.5,-0.6,1023,2018,4,24,22,12,22.398,0.8666,-0.1883,-0.405,0.2222
0.009,0.009,-0.001,-0.7,-0.9,-0.5,1023,2018,4,24,22,12,22.414,0.8666,-0.1885,-0.4048,0.2222
0.011,0.008,0,-0.8,-0.8,-0.4,1023,2018,4,24,22,12,22.45,0.8667,-0.1886,-0.4047,0.2222
0.012,0.002,-0.002,-0.7,-1.1,-0.5,0,2018,4,24,22,12,22.473,0.8667,-0.1889,-0.4045,0.2222
0.01,0.004,0,-0.7,-0.6,-0.5,0,2018,4,24,22,12,22.476,0.8667,-0.1891,-0.4043,0.2223
0.013,0.004,0.004,-0.8,-0.3,-0.4,0,2018,4,24,22,12,22.512,0.8668,-0.1893,-0.4041,0.2223
0.012,0.007,-0.003,-0.8,-0.4,-0.2,0,2018,4,24,22,12,22.535,0.8669,-0.1894,-0.4038,0.2223
0.015,0.005,-0.005,-0.5,-0.5,-0.5,0,2018,4,24,22,12,22.538,0.8669,-0.1895,-0.4037,0.2224
0.015,0.001,0,-0.3,-0.5,-0.4,0,2018,4,24,22,12,22.575,0.8669,-0.1897,-0.4035,0.2224
0.014,0,-0.001,-0.3,-0.2,-0.7,0,2018,4,24,22,12,22.595,0.8669,-0.1899,-0.4034,0.2225
0.014,0.003,-0.005,-0.2,0.2,-1,0,2018,4,24,22,12,22.598,0.8669,-0.19,-0.4032,0.2227
0.01,0.005,-0.002,-0.2,0.2,-1.1,0,2018,4,24,22,12,22.634,0.8669,-0.1901,-0.4031,0.2229
0.009,0.01,-0.002,-0.3,0,-0.9,0,2018,4,24,22,12,22.634,0.8669,-0.1902,-0.4029,0.2231
0.006,0.013,-0.004,-0.6,-0.1,-0.8,0,2018,4,24,22,12,22.654,0.8669,-0.1902,-0.4028,0.2232
0.004,0.013,-0.004,-0.6,-0.3,-0.5,0,2018,4,24,22,12,22.691,0.867,-0.1903,-0.4027,0.2232
0.008,0.013,0,-0.9,-0.5,-0.3,0,2018,4,24,22,12,22.713,0.867,-0.1903,-0.4025,0.2232
0.004,0.012,0.003,-1.1,-0.3,-0.4,0,2018,4,24,22,12,22.716,0.8671,-0.1904,-0.4023,0.2232
0.008,0.006,-0.001,-0.9,0,-0.5,0,2018,4,24,22,12,22.75,0.8672,-0.1905,-0.4021,0.2232
0.005,0.004,0.006,-1.3,0.6,-1,0,2018,4,24,22,12,22.773,0.8673,-0.1905,-0.4018,0.2233
0.006,-0.011,0.008,-1.9,0.5,-2.1,0,2018,4,24,22,12,22.778,0.8674,-0.1907,-0.4014,0.2236
0.002,-0.042,-0.011,-2.5,4.6,-3.9,0,2018,4,24,22,12,22.814,0.8674,-0.1908,-0.4009,0.2243
0.012,-0.053,-0.017,-2.8,12.4,-5.5,0,2018,4,24,22,12,22.836,0.8676,-0.1904,-0.4,0.2257
0.007,-0.029,-0.025,-1.7,18.5,-6.9,0,2018,4,24,22,12,22.839,0.8678,-0.189,-0.3989,0.2278
0.015,-0.012,-0.017,-1.2,22.7,-8,0,2018,4,24,22,12,22.856,0.8682,-0.1867,-0.3976,0.2304
0.018,0.006,0.006,-1.4,24.8,-8.5,0,2018,4,24,22,12,22.89,0.8687,-0.1838,-0.3961,0.2333
0.034,0.019,0,-1.1,24.2,-8.6,0,2018,4,24,22,12,22.913,0.8694,-0.1806,-0.3944,0.2364
0.037,0.038,0.001,-0.3,21,-8,0,2018,4,24,22,12,22.915,0.8699,-0.1776,-0.3928,0.2392
0.035,0.035,-0.001,0.4,18.2,-7.1,0,2018,4,24,22,12,22.951,0.8703,-0.175,-0.3916,0.2417
0.02,0.016,0.008,0.7,18.8,-6,1023,2018,4,24,22,12,22.973,0.8706,-0.1727,-0.3905,0.2441
0.028,0.01,0.005,1.9,21.3,-5.9,1023,2018,4,24,22,12,22.977,0.8709,-0.1699,-0.3895,0.2465
0.033,0.008,0.006,2.6,21.8,-6.3,1023,2018,4,24,22,12,23.012,0.8713,-0.1668,-0.3885,0.2489
0.01,0,0.016,3.4,18.9,-7.5,1023,2018,4,24,22,12,23.033,0.8715,-0.164,-0.3876,0.2515
-0.005,0.035,0.016,3.2,15.3,-7.4,1023,2018,4,24,22,12,23.04,0.8715,-0.1616,-0.3868,0.2539
0.043,0.056,0.01,4.6,12.4,-7.8,1023,2018,4,24,22,12,23.077,0.8713,-0.16,-0.3864,0.2564
0.072,0.025,-0.004,5.8,12.9,-8.5,1023,2018,4,24,22,12,23.097,0.8711,-0.1583,-0.386,0.2587
0.059,0.021,0.004,7.6,7.8,-8.7,1023,2018,4,24,22,12,23.102,0.8707,-0.157,-0.3858,0.2611
0.067,0.032,0.001,9.5,4.3,-8.5,1023,2018,4,24,22,12,23.118,0.8701,-0.1564,-0.3861,0.2633
0.071,0.021,-0.015,11,1,-7.7,1023,2018,4,24,22,12,23.14,0.8692,-0.1562,-0.3868,0.2652
0.051,0.023,-0.025,13.8,-2.6,-6.5,0,2018,4,24,22,12,23.177,0.8681,-0.1564,-0.3882,0.2667
0.067,0.015,-0.027,16.6,-6,-4.9,0,2018,4,24,22,12,23.177,0.8667,-0.1568,-0.3903,0.2678
0.074,-0.003,-0.016,19.1,-8.3,-3.6,0,2018,4,24,22,12,23.2,0.8651,-0.1577,-0.3929,0.2686
0.074,-0.003,-0.007,21.5,-8.6,-2.8,0,2018,4,24,22,12,23.235,0.8634,-0.1586,-0.396,0.2692
0.071,-0.008,-0.002,23.5,-3.1,-0.9,0,2018,4,24,22,12,23.257,0.8616,-0.159,-0.3992,0.2699
0.097,-0.033,-0.018,26.3,11.7,3.1,0,2018,4,24,22,12,23.261,0.8601,-0.1576,-0.4022,0.2711
0.077,-0.021,-0.003,28.3,18.2,6.7,0,2018,4,24,22,12,23.297,0.8589,-0.1541,-0.4052,0.2725
0.1,-0.016,0.018,31.2,21,6.6,0,2018,4,24,22,12,23.317,0.8577,-0.1496,-0.4082,0.2741
0.083,-0.022,0.017,33.2,18.8,7.4,0,2018,4,24,22,12,23.323,0.8565,-0.145,-0.4115,0.2756
0.086,-0.034,0.006,37.9,21.2,7.1,0,2018,4,24,22,12,23.338,0.8549,-0.1402,-0.4154,0.2772
0.049,-0.025,-0.013,42.6,20.1,7.8,0,2018,4,24,22,12,23.375,0.8528,-0.1352,-0.4202,0.2789
0.043,0.059,-0.031,47.9,9.4,8.1,0,2018,4,24,22,12,23.398,0.8502,-0.1302,-0.4262,0.2801
-0.002,0.068,-0.036,54.4,-6.4,11.9,0,2018,4,24,22,12,23.4,0.8469,-0.1264,-0.434,0.2798
0.004,0.038,-0.01,61.5,-18.8,16.2,0,2018,4,24,22,12,23.436,0.8428,-0.1243,-0.4439,0.2776
-0.08,-0.07,0.061,61.8,-24,18.6,0,2018,4,24,22,12,23.458,0.8384,-0.1229,-0.4545,0.2745
-0.086,-0.143,0.066,62.1,-22.6,16.7,0,2018,4,24,22,12,23.462,0.8336,-0.1224,-0.4651,0.2716
-0.065,-0.148,0.032,60.4,-19.8,13.5,0,2018,4,24,22,12,23.498,0.8285,-0.1221,-0.4754,0.2692
-0.039,-0.145,0.033,63.1,-16.7,10.8,0,2018,4,24,22,12,23.518,0.8233,-0.1215,-0.4854,0.2677
-0.003,-0.077,0.013,66.2,-22.2,11.8,0,2018,4,24,22,12,23.521,0.8176,-0.1211,-0.4958,0.2662
0.022,-0.038,0.068,65,-25,15.3,0,2018,4,24,22,12,23.538,0.812,-0.1206,-0.5062,0.2639
0.072,-0.022,0.066,61.8,-17.9,18.6,0,2018,4,24,22,12,23.56,0.807,-0.1196,-0.5157,0.2613
0.084,0.024,0.022,60.8,-12.7,24.2,0,2018,4,24,22,12,23.597,0.8025,-0.1171,-0.5247,0.2586
0.025,0.008,0.036,59.4,-7.5,28.8,0,2018,4,24,22,12,23.62,0.7981,-0.1133,-0.5337,0.2552
-0.011,0.016,0.04,59.3,-8.3,32.8,0,2018,4,24,22,12,23.622,0.794,-0.1087,-0.5425,0.2514
-0.046,0.073,0.028,60.8,-12.1,38.9,0,2018,4,24,22,12,23.658,0.79,-0.1036,-0.5517,0.2464
-0.032,0.149,-0.004,65.7,-13.9,48.1,0,2018,4,24,22,12,23.679,0.7856,-0.0978,-0.5618,0.2398
-0.023,0.198,0.007,72.1,-14.7,57.6,0,2018,4,24,22,12,23.682,0.7807,-0.0917,-0.5727,0.2323
-0.027,0.193,0.08,77.8,-17.5,64.6,0,2018,4,24,22,12,23.717,0.7753,-0.0847,-0.5845,0.2234
-0.056,0.225,0.121,81.8,-17.6,71.2,1023,2018,4,24,22,12,23.739,0.7694,-0.077,-0.5969,0.2136
-0.129,0.31,0.115,89.1,-23.1,76.4,1023,2018,4,24,22,12,23.743,0.7629,-0.0687,-0.6099,0.2027
-0.225,0.351,0.132,99.5,-45.5,79.7,1023,2018,4,24,22,12,23.78,0.7551,-0.0614,-0.6244,0.1898
-0.265,0.258,0.164,110.8,-80.4,81.2,1023,2018,4,24,22,12,23.78,0.7452,-0.0575,-0.6412,0.1733
-0.318,0.074,0.237,111.5,-88.4,85.2,1023,2018,4,24,22,12,23.8,0.734,-0.056,-0.659,0.1538
-0.678,-0.15,0.127,101.6,-50.1,78.1,1023,2018,4,24,22,12,23.838,0.7229,-0.0533,-0.6753,0.1355
-0.863,-0.286,0.197,55.5,47.7,90.8,1023,2018,4,24,22,12,23.859,0.716,-0.0414,-0.6853,0.126
-0.607,-0.286,0.166,21.3,74.4,79.5,1023,2018,4,24,22,12,23.863,0.7145,-0.0224,-0.6881,0.1239
-0.534,-0.283,0.12,-3,76.8,55,1023,2018,4,24,22,12,23.899,0.7153,-0.0048,-0.6874,0.1254
-0.394,-0.142,0.07,-23.3,51.5,32.2,1023,2018,4,24,22,12,23.922,0.718,0.0074,-0.6839,0.1285
-0.219,0.019,0.01,-41.2,21.5,25.7,1023,2018,4,24,22,12,23.924,0.7226,0.0142,-0.6788,0.1294
-0.101,0.305,-0.065,-50.8,-13.2,28.8,1023,2018,4,24,22,12,23.962,0.7287,0.0173,-0.6727,0.1264
-0.02,0.389,-0.159,-55.9,-61.3,27.4,0,2018,4,24,22,12,23.982,0.7358,0.0147,-0.6665,0.1184
0.063,0.323,-0.257,-53,-104.4,18.1,0,2018,4,24,22,12,23.985,0.7428,0.0053,-0.661,0.1057
0.084,0.198,-0.308,-48.2,-136.5,8.1,0,2018,4,24,22,12,24.021,0.7487,-0.0098,-0.6566,0.09
0.09,0.08,-0.32,-43.6,-162.2,-2.5,0,2018,4,24,22,12,24.043,0.7535,-0.03,-0.6527,0.0722
0.062,-0.031,-0.292,-41.9,-175.1,-10.7,0,2018,4,24,22,12,24.046,0.757,-0.0536,-0.6489,0.0536
0.053,-0.091,-0.242,-43.6,-177.3,-16.1,0,2018,4,24,22,12,24.081,0.7596,-0.079,-0.6445,0.0349
0.062,-0.114,-0.211,-46.2,-169,-19.7,0,2018,4,24,22,12,24.104,0.7618,-0.1043,-0.639,0.0171
0.08,-0.112,-0.196,-48.9,-150,-22.3,0,2018,4,24,22,12,24.106,0.7638,-0.128,-0.6325,0.0012
0.108,-0.062,-0.201,-50.4,-124,-22.6,0,2018,4,24,22,12,24.124,0.766,-0.1487,-0.6252,-0.0119
0.129,-0.003,-0.223,-48.8,-97.5,-23.6,0,2018,4,24,22,12,24.147,0.7685,-0.1658,-0.6175,-0.0221
0.152,0.026,-0.259,-44.9,-71.2,-24.9,0,2018,4,24,22,12,24.183,0.7711,-0.1794,-0.6101,-0.0293
0.16,0.05,-0.278,-38.1,-45.8,-26.8,0,2018,4,24,22,12,24.204,0.7738,-0.1897,-0.6033,-0.0332
0.148,0.066,-0.289,-29.3,-26.9,-29.4,0,2018,4,24,22,12,24.208,0.7763,-0.1972,-0.5976,-0.0342
0.129,0.065,-0.265,-21,-11.2,-32.2,0,2018,4,24,22,12,24.239,0.7784,-0.2028,-0.5931,-0.0328
0.121,0.084,-0.25,-14.2,3.2,-34.6,0,2018,4,24,22,12,24.262,0.7802,-0.2067,-0.5895,-0.0293
0.123,0.112,-0.218,-8.7,15.1,-37.4,0,2018,4,24,22,12,24.263,0.7819,-0.209,-0.5867,-0.0238
0.118,0.123,-0.205,-5.2,25.1,-39.8,0,2018,4,24,22,12,24.301,0.7835,-0.2101,-0.5844,-0.0166
0.125,0.153,-0.202,-3.4,33.2,-41.5,0,2018,4,24,22,12,24.322,0.7851,-0.2102,-0.5824,-0.0081
0.133,0.181,-0.195,-1.7,37.4,-41.6,0,2018,4,24,22,12,24.325,0.7867,-0.2095,-0.5806,0.001
0.135,0.21,-0.194,0.2,38.1,-39.4,0,2018,4,24,22,12,24.358,0.7881,-0.2084,-0.5789,0.0105
0.141,0.237,-0.175,2.2,35.1,-35.1,0,2018,4,24,22,12,24.382,0.7892,-0.2071,-0.5777,0.0194
0.144,0.253,-0.161,5,28.8,-28.2,0,2018,4,24,22,12,24.386,0.7899,-0.2058,-0.5769,0.0271
0.151,0.266,-0.138,8.7,19.4,-19.3,0,2018,4,24,22,12,24.423,0.7899,-0.2049,-0.5769,0.0331
0.151,0.265,-0.11,12.8,8.3,-8.5,0,2018,4,24,22,12,24.446,0.7893,-0.2043,-0.5778,0.0368
0.143,0.253,-0.096,17.4,-2.4,2.9,0,2018,4,24,22,12,24.448,0.7878,-0.2041,-0.5797,0.0379
0.125,0.24,-0.083,22,-10.9,15,0,2018,4,24,22,12,24.483,0.7856,-0.204,-0.5828,0.0366
0.101,0.212,-0.079,26.5,-13.9,26.9,0,2018,4,24,22,12,24.505,0.7828,-0.2034,-0.587,0.0333
0.075,0.189,-0.063,30.6,-13.5,37.7,0,2018,4,24,22,12,24.508,0.7795,-0.2018,-0.5922,0.0284
0.054,0.164,-0.04,34.3,-10,46.6,0,2018,4,24,22,12,24.525,0.7758,-0.1988,-0.5982,0.0224
0.029,0.129,-0.013,37.2,-3.1,54.1,1023,2018,4,24,22,12,24.557,0.772,-0.1933,-0.6052,0.0152
-0.017,0.092,0.006,39.1,6.5,60.2,1023,2018,4,24,22,12,24.567,0.7681,-0.1861,-0.6125,0.0083
-0.058,0.057,0.023,39.7,19.1,64.7,1023,2018,4,24,22,12,24.604,0.7644,-0.177,-0.6198,0.002
-0.091,0.027,0.049,39.3,34,67.5,1023,2018,4,24,22,12,24.624,0.761,-0.1657,-0.627,-0.003
-0.115,0.004,0.064,37.6,47.9,68.5,1023,2018,4,24,22,12,24.628,0.7581,-0.1524,-0.6339,-0.0066
-0.123,-0.016,0.089,35.1,57.6,67.5,1023,2018,4,24,22,12,24.662,0.7557,-0.1376,-0.6401,-0.0089
-0.13,-0.029,0.128,31,63.6,64.2,1023,2018,4,24,22,12,24.685,0.7538,-0.122,-0.6455,-0.01
-0.112,-0.041,0.146,25.4,64.9,59.2,1023,2018,4,24,22,12,24.689,0.7525,-0.1065,-0.6498,-0.0101
-0.08,-0.036,0.166,19.7,58.8,52.8,1023,2018,4,24,22,12,24.726,0.7517,-0.0921,-0.6528,-0.0099
-0.046,-0.04,0.173,14,47.1,45.5,1023,2018,4,24,22,12,24.747,0.7515,-0.0796,-0.6548,-0.0098
-0.008,-0.045,0.173,8.4,31.8,37.1,1023,2018,4,24,22,12,24.751,0.7511,-0.0698,-0.6563,-0.0105
0.021,-0.047,0.166,2.9,13.1,28.5,1023,2018,4,24,22,12,24.786,0.7506,-0.0632,-0.6574,-0.0121
0.027,-0.08,0.141,-1.8,-1.9,21.1,0,2018,4,24,22,12,24.807,0.7506,-0.0598,-0.6578,-0.0148
0.02,-0.101,0.111,-7.1,-9.4,14.8,0,2018,4,24,22,12,24.809,0.751,-0.0585,-0.6573,-0.0179
0.012,-0.105,0.103,-12,-17.5,9.5,0,2018,4,24,22,12,24.846,0.7519,-0.0589,-0.6561,-0.0211
-0.003,-0.121,0.082,-15.9,-24.1,5.4,0,2018,4,24,22,12,24.87,0.7533,-0.0608,-0.6543,-0.0246
-0.02,-0.13,0.052,-18.5,-28.9,1.9,0,2018,4,24,22,12,24.874,0.7552,-0.0643,-0.6516,-0.0279
-0.041,-0.134,0.022,-20.2,-31.7,-1.4,0,2018,4,24,22,12,24.891,0.7573,-0.0691,-0.6486,-0.0308
-0.052,-0.142,0.002,-20.9,-32.5,-5.6,0,2018,4,24,22,12,24.913,0.7593,-0.0747,-0.6455,-0.0334
-0.053,-0.145,-0.008,-21,-30.6,-10.7,0,2018,4,24,22,12,24.932,0.7612,-0.0807,-0.6423,-0.0354
-0.046,-0.14,-0.029,-20.9,-26.1,-16.6,0,2018,4,24,22,12,24.955,0.7631,-0.0869,-0.6393,-0.0362
-0.029,-0.123,-0.04,-20.6,-19.1,-23.2,0,2018,4,24,22,12,24.972,0.765,-0.093,-0.6362,-0.0355
-0.01,-0.104,-0.059,-19.8,-12.4,-29.9,0,2018,4,24,22,12,24.995,0.7668,-0.0988,-0.6332,-0.0333
-0.008,-0.074,-0.07,-18.6,-5.9,-35.9,0,2018,4,24,22,12,25.012,0.7686,-0.1043,-0.6304,-0.0296
-0.001,-0.048,-0.09,-17.5,-1.3,-41.2,0,2018,4,24,22,12,25.048,0.7702,-0.1095,-0.6278,-0.0247
-0.006,-0.014,-0.085,-16.8,0.7,-45.9,0,2018,4,24,22,12,25.071,0.7717,-0.1146,-0.6252,-0.0189
-0.023,0.022,-0.104,-16.2,-1.1,-49.3,0,2018,4,24,22,12,25.074,0.773,-0.1198,-0.6227,-0.0129
-0.033,0.055,-0.125,-14.8,-6.1,-51.7,0,2018,4,24,22,12,25.091,0.774,-0.1256,-0.6204,-0.0071
-0.04,0.081,-0.134,-12.5,-12.3,-53.2,0,2018,4,24,22,12,25.114,0.7753,-0.1326,-0.6174,-0.0013
-0.046,0.094,-0.132,-9.3,-17,-53.3,0,2018,4,24,22,12,25.133,0.7761,-0.1404,-0.6147,0.004
-0.043,0.107,-0.124,-6.2,-19.3,-52.5,0,2018,4,24,22,12,25.155,0.7764,-0.1486,-0.6123,0.009
-0.038,0.121,-0.121,-2.9,-18.5,-50.5,0,2018,4,24,22,12,25.173,0.7762,-0.1567,-0.6104,0.0138
-0.029,0.13,-0.115,0.7,-14.9,-46.7,0,2018,4,24,22,12,25.195,0.7757,-0.1641,-0.6089,0.0186
-0.015,0.14,-0.11,4.7,-8.7,-41.4,0,2018,4,24,22,12,25.211,0.7749,-0.1704,-0.6081,0.0234
-0.007,0.145,-0.094,8.9,1,-34.8,0,2018,4,24,22,12,25.23,0.7739,-0.1749,-0.6079,0.0284
0,0.155,-0.083,12.4,12.4,-27.4,0,2018,4,24,22,12,25.251,0.7728,-0.1772,-0.6083,0.0336
-0.001,0.17,-0.077,15.6,22.4,-19.2,0,2018,4,24,22,12,25.288,0.7717,-0.1771,-0.6094,0.0391
0.005,0.183,-0.056,18.3,30.9,-10.3,0,2018,4,24,22,12,25.312,0.7706,-0.1749,-0.611,0.0445
0.005,0.187,-0.041,20.5,36.3,-1.6,0,2018,4,24,22,12,25.316,0.7695,-0.1708,-0.6132,0.0495
0.004,0.192,-0.035,22.5,37.5,6,0,2018,4,24,22,12,25.332,0.7683,-0.1653,-0.6159,0.0538
-0.004,0.182,-0.02,23.4,37.4,12.9,0,2018,4,24,22,12,25.354,0.767,-0.159,-0.6189,0.0572
-0.007,0.167,-0.009,23.6,37.5,18.9,0,2018,4,24,22,12,25.392,0.7656,-0.152,-0.6221,0.0597
-0.018,0.144,0.011,22.6,37.7,23.9,1023,2018,4,24,22,12,25.416,0.7644,-0.1433,-0.6255,0.0607
-0.027,0.122,0.024,20.9,36.9,27.3,1023,2018,4,24,22,12,25.42,0.7634,-0.1342,-0.6287,0.061
-0.035,0.119,0.035,19.1,32.9,29.3,1023,2018,4,24,22,12,25.435,0.7626,-0.1252,-0.6316,0.0607
-0.04,0.103,0.026,17,26.7,30.3,1023,2018,4,24,22,12,25.452,0.7617,-0.1169,-0.6343,0.0597
-0.046,0.083,0.024,15.1,21.5,31,1023,2018,4,24,22,12,25.475,0.7609,-0.1093,-0.6368,0.0579
-0.04,0.069,0.032,12.7,15.6,30.7,1023,2018,4,24,22,12,25.512,0.7602,-0.1026,-0.639,0.0556
-0.04,0.05,0.025,10.5,10.1,30.5,1023,2018,4,24,22,12,25.535,0.7596,-0.0969,-0.6409,0.0528
-0.032,0.034,0.03,8.2,4.6,29.6,1023,2018,4,24,22,12,25.539,0.7591,-0.0921,-0.6424,0.0495
-0.026,0.02,0.036,5.9,0.1,28.6,1023,2018,4,24,22,12,25.557,0.7588,-0.0882,-0.6436,0.0458
-0.018,0.01,0.036,3.8,-4.2,27.5,1023,2018,4,24,22,12,25.575,0.7587,-0.0851,-0.6444,0.0418
-0.012,-0.007,0.031,2.1,-7.5,26.7,1023,2018,4,24,22,12,25.599,0.7586,-0.0828,-0.645,0.0376
-0.012,-0.016,0.03,0.2,-9.8,25.6,1023,2018,4,24,22,12,25.615,0.7587,-0.081,-0.6454,0.0332
-0.004,-0.029,0.022,-1.6,-11.6,24.7,0,2018,4,24,22,12,25.637,0.7589,-0.0798,-0.6455,0.0287
-0.008,-0.036,0.015,-3.1,-13,23.6,0,2018,4,24,22,12,25.658,0.7592,-0.0789,-0.6454,0.0243
-0.008,-0.046,0.01,-4.4,-13.7,21.9,0,2018,4,24,22,12,25.678,0.7596,-0.0784,-0.6452,0.02
-0.002,-0.054,-0.001,-5.6,-14.5,19.6,0,2018,4,24,22,12,25.702,0.7601,-0.0783,-0.6448,0.0159
-0.006,-0.06,-0.007,-6.4,-14.7,16.7,0,2018,4,24,22,12,25.715,0.7606,-0.0787,-0.6443,0.0121
-0.006,-0.066,-0.02,-6.9,-14.4,13.3,0,2018,4,24,22,12,25.735,0.761,-0.0794,-0.6437,0.0087
-0.007,-0.066,-0.026,-7.2,-13.8,9.9,0,2018,4,24,22,12,25.758,0.7615,-0.0805,-0.643,0.0059
-0.003,-0.068,-0.032,-7.5,-12.6,6,0,2018,4,24,22,12,25.774,0.7619,-0.0819,-0.6423,0.0037
-0.005,-0.068,-0.038,-7.3,-11.7,2.3,0,2018,4,24,22,12,25.795,0.7624,-0.0837,-0.6416,0.0022
-0.006,-0.06,-0.04,-7.2,-10.9,-1.3,0,2018,4,24,22,12,25.832,0.7628,-0.0856,-0.6409,0.0012
-0.006,-0.051,-0.035,-6.9,-10.7,-4.8,0,2018,4,24,22,12,25.854,0.7631,-0.0879,-0.6401,0.0006
-0.001,-0.044,-0.044,-6.6,-11.1,-8,0,2018,4,24,22,12,25.86,0.7634,-0.0905,-0.6394,0.0005
0,-0.037,-0.045,-5.9,-10.9,-10.8,0,2018,4,24,22,12,25.876,0.7637,-0.0934,-0.6387,0.0006
-0.005,-0.032,-0.047,-5.2,-10.1,-13.2,0,2018,4,24,22,12,25.899,0.7638,-0.0964,-0.6381,0.0012
-0.004,-0.021,-0.046,-4.3,-8.7,-15.3,0,2018,4,24,22,12,25.916,0.7639,-0.0995,-0.6375,0.0021
-0.003,-0.01,-0.042,-3.4,-6.9,-17.2,0,2018,4,24,22,12,25.934,0.7638,-0.1026,-0.6371,0.0034
-0.003,0,-0.043,-2.4,-4.7,-18.6,0,2018,4,24,22,12,25.957,0.7638,-0.1055,-0.6367,0.0052
-0.002,0.005,-0.044,-1.3,-1.9,-19.9,0,2018,4,24,22,12,25.992,0.7636,-0.1081,-0.6364,0.0073
0,0.015,-0.038,-0.5,0.7,-20.3,0,2018,4,24,22,12,26.016,0.7634,-0.1104,-0.6362,0.0098
0,0.029,-0.038,0.4,3.7,-20.8,0,2018,4,24,22,12,26.02,0.7632,-0.1122,-0.6361,0.0127
0,0.04,-0.033,1.2,6.3,-20.5,0,2018,4,24,22,12,26.056,0.763,-0.1136,-0.6361,0.0158
-0.006,0.05,-0.018,1.9,8.4,-19.8,0,2018,4,24,22,12,26.079,0.7627,-0.1146,-0.6361,0.019
-0.011,0.059,-0.013,2,9,-18.6,0,2018,4,24,22,12,26.081,0.7625,-0.1151,-0.6362,0.0223
-0.014,0.073,-0.02,2.2,8.4,-17.1,0,2018,4,24,22,12,26.103,0.7623,-0.1154,-0.6363,0.0252
-0.012,0.078,-0.016,2.5,7,-14.9,0,2018,4,24,22,12,26.12,0.762,-0.1156,-0.6365,0.0277
-0.008,0.082,-0.004,2.6,6,-12.7,0,2018,4,24,22,12,26.143,0.7617,-0.1157,-0.6367,0.0298
-0.004,0.08,-0.008,2.7,5.8,-10.5,1023,2018,4,24,22,12,26.16,0.7615,-0.1156,-0.6369,0.0315
-0.002,0.078,-0.006,2.7,6.3,-8.3,1023,2018,4,24,22,12,26.177,0.7612,-0.1152,-0.6372,0.033
0,0.08,-0.007,2.6,7.3,-6.3,1023,2018,4,24,22,12,26.2,0.761,-0.1145,-0.6375,0.0343
0.002,0.083,-0.002,2.1,7.9,-4.4,1023,2018,4,24,22,12,26.218,0.7609,-0.1135,-0.6377,0.0354
0.001,0.084,-0.003,1.9,7.7,-2.4,1023,2018,4,24,22,12,26.241,0.7608,-0.1122,-0.638,0.0362
-0.003,0.085,0,1.8,6.6,-0.3,1023,2018,4,24,22,12,26.259,0.7608,-0.1107,-0.6383,0.0367
-0.004,0.08,-0.007,1.5,4.9,1.8,1023,2018,4,24,22,12,26.281,0.7608,-0.1092,-0.6386,0.0367
-0.004,0.076,-0.004,0.9,2.9,3.8,1023,2018,4,24,22,12,26.317,0.7607,-0.1078,-0.6389,0.0363
-0.005,0.066,-0.005,0.7,1.5,5.6,1023,2018,4,24,22,12,26.34,0.7607,-0.1065,-0.6392,0.0354
-0.005,0.056,-0.011,0.7,0.5,7.6,1023,2018,4,24,22,12,26.344,0.7606,-0.1051,-0.6396,0.0343
-0.005,0.05,-0.014,0.5,-0.1,9.1,1023,2018,4,24,22,12,26.362,0.7606,-0.1037,-0.6399,0.0328
-0.007,0.042,-0.021,0.7,-0.1,10.1,1023,2018,4,24,22,12,26.38,0.7604,-0.1023,-0.6404,0.0312
-0.001,0.033,-0.017,1.1,-0.5,11,1023,2018,4,24,22,12,26.404,0.7603,-0.1009,-0.6409,0.0295
0,0.028,-0.02,1.5,-0.6,11.4,0,2018,4,24,22,12,26.44,0.7601,-0.0995,-0.6414,0.0278
-0.005,0.02,-0.021,1.6,-0.6,11.7,0,2018,4,24,22,12,26.44,0.7598,-0.0981,-0.642,0.026
-0.003,0.012,-0.018,1.8,-0.3,11.8,0,2018,4,24,22,12,26.464,0.7595,-0.0968,-0.6426,0.0243
-0.001,0.005,-0.017,2.1,0,11.6,0,2018,4,24,22,12,26.48,0.7592,-0.0954,-0.6433,0.0227
-0.001,0,-0.019,2.2,0.1,11.1,0,2018,4,24,22,12,26.502,0.7589,-0.0941,-0.6439,0.0212
-0.002,-0.006,-0.011,2.2,0.2,10.6,0,2018,4,24,22,12,26.52,0.7586,-0.0928,-0.6445,0.0198
-0.005,-0.009,-0.012,2.4,0.2,9.7,0,2018,4,24,22,12,26.544,0.7583,-0.0917,-0.6451,0.0186
-0.004,-0.011,-0.012,2.2,-0.1,8.8,0,2018,4,24,22,12,26.58,0.758,-0.0907,-0.6456,0.0174
-0.007,-0.014,-0.008,2.1,-0.5,7.7,0,2018,4,24,22,12,26.604,0.7577,-0.09,-0.6461,0.0164
-0.006,-0.017,-0.009,2.1,-1.1,6.6,0,2018,4,24,22,12,26.608,0.7574,-0.0894,-0.6465,0.0155
-0.008,-0.021,-0.004,1.9,-1.1,5.2,0,2018,4,24,22,12,26.625,0.7571,-0.089,-0.6469,0.0148
-0.009,-0.025,-0.005,1.9,-0.8,3.6,0,2018,4,24,22,12,26.639,0.7568,-0.0888,-0.6473,0.0143
-0.006,-0.024,-0.004,2.1,0,2.1,0,2018,4,24,22,12,26.659,0.7565,-0.0887,-0.6477,0.014
-0.004,-0.022,-0.007,2.1,0.7,0.4,0,2018,4,24,22,12,26.68,0.7562,-0.0887,-0.648,0.014
-0.002,-0.019,-0.008,2.2,2,-1,0,2018,4,24,22,12,26.718,0.7559,-0.0887,-0.6483,0.0144
-0.001,-0.013,-0.011,2.3,2.9,-2.2,0,2018,4,24,22,12,26.738,0.7556,-0.0887,-0.6487,0.0151
0,-0.006,-0.013,2.7,3,-3.3,0,2018,4,24,22,12,26.745,0.7553,-0.0887,-0.649,0.0159
0.005,0,-0.014,3.3,2.6,-4.3,0,2018,4,24,22,12,26.761,0.7549,-0.0888,-0.6495,0.0168
0.009,0.003,-0.02,4.2,2.1,-5.2,0,2018,4,24,22,12,26.784,0.7544,-0.089,-0.65,0.0178
0.017,0.007,-0.022,5.1,2.1,-5.8,0,2018,4,24,22,12,26.802,0.7538,-0.0894,-0.6507,0.0188
0.016,0.013,-0.022,6.2,2.9,-5.8,0,2018,4,24,22,12,26.825,0.753,-0.0896,-0.6515,0.0199
0.013,0.01,-0.024,7.2,4.8,-5.1,0,2018,4,24,22,12,26.843,0.7521,-0.0897,-0.6524,0.0211
0.015,0.011,-0.026,8.3,7.4,-3.6,0,2018,4,24,22,12,26.865,0.7512,-0.0893,-0.6536,0.0224
0.017,0.015,-0.029,9.7,10.1,-1.9,0,2018,4,24,22,12,26.884,0.7501,-0.0884,-0.6549,0.0238
0.022,0.015,-0.027,10.6,12.7,-0.1,1023,2018,4,24,22,12,26.903,0.7489,-0.0869,-0.6563,0.0254
0.025,0.021,-0.028,11.7,14.1,1.7,1023,2018,4,24,22,12,26.925,0.7477,-0.0849,-0.6579,0.0269
0.024,0.022,-0.029,13.1,14.4,3.1,1023,2018,4,24,22,12,26.961,0.7463,-0.0825,-0.6597,0.0283
0.021,0.018,-0.026,14.2,14.1,4.3,1023,2018,4,24,22,12,26.984,0.7448,-0.0801,-0.6617,0.0295
0.015,0.015,-0.031,15.2,14.1,5.1,1023,2018,4,24,22,12,26.989,0.7431,-0.0775,-0.6638,0.0306
0.014,0.02,-0.029,15.8,13.2,5.2,1023,2018,4,24,22,12,27.004,0.7414,-0.0749,-0.666,0.0316
0.016,0.027,-0.033,16.1,10,4.5,1023,2018,4,24,22,12,27.028,0.7395,-0.0726,-0.6684,0.0324
0.037,0.03,-0.037,16.6,5.1,3.3,1023,2018,4,24,22,12,27.045,0.7375,-0.0709,-0.6707,0.0328
0.046,0.025,-0.039,17.6,0.8,1.6,1023,2018,4,24,22,12,27.067,0.7353,-0.07,-0.6733,0.0328
0.054,0.021,-0.035,18.3,-1.2,0,0,2018,4,24,22,12,27.105,0.7329,-0.0698,-0.6759,0.0328
0.064,0.016,-0.039,18.8,-1.6,-1.5,0,2018,4,24,22,12,27.126,0.7304,-0.07,-0.6785,0.0329
0.07,0.024,-0.043,19.3,-1.5,-3.3,0,2018,4,24,22,12,27.129,0.7278,-0.0703,-0.6812,0.0332
0.066,0.024,-0.041,19.6,-1.2,-4.7,0,2018,4,24,22,12,27.144,0.7252,-0.0708,-0.684,0.0336
0.072,0.022,-0.04,19.3,0.2,-5.8,0,2018,4,24,22,12,27.165,0.7226,-0.0713,-0.6866,0.0344
0.07,0.014,-0.062,18.7,6,-6.4,0,2018,4,24,22,12,27.2,0.72,-0.0716,-0.6893,0.0357
0.084,0.018,-0.073,19.1,15.1,-5.8,0,2018,4,24,22,12,27.221,0.7173,-0.0709,-0.692,0.0379
0.079,0.013,-0.064,19.7,26.3,-4.5,0,2018,4,24,22,12,27.226,0.7147,-0.0688,-0.6947,0.0413
0.058,0.04,-0.043,20.1,33.8,-3,0,2018,4,24,22,12,27.261,0.7122,-0.0652,-0.6974,0.0456
0.044,0.064,-0.028,19.9,34.3,-0.7,0,2018,4,24,22,12,27.283,0.7098,-0.0606,-0.6999,0.0499
0.047,0.06,-0.035,20.6,31,1.6,0,2018,4,24,22,12,27.287,0.7075,-0.0559,-0.7023,0.0537
0.033,0.062,-0.044,22.1,26.5,3.2,0,2018,4,24,22,12,27.321,0.7049,-0.0515,-0.705,0.0567
0.029,0.063,-0.044,22.7,21.9,4.7,0,2018,4,24,22,12,27.345,0.7021,-0.0474,-0.708,0.0588
0.025,0.07,-0.028,22.5,18.5,5.6,0,2018,4,24,22,12,27.348,0.6993,-0.0436,-0.7109,0.0604
0.042,0.066,-0.029,21.9,15.7,4.7,0,2018,4,24,22,12,27.364,0.6965,-0.0402,-0.7137,0.0615
0.042,0.072,-0.021,21.5,14.2,3.4,0,2018,4,24,22,12,27.385,0.6937,-0.0371,-0.7164,0.0626
0.047,0.051,-0.005,20.4,11.3,3.6,0,2018,4,24,22,12,27.42,0.6912,-0.0346,-0.7189,0.0634
0.037,0.067,-0.006,19.5,11.7,4.1,0,2018,4,24,22,12,27.442,0.6888,-0.0321,-0.7213,0.0642
0.04,0.071,-0.011,20.2,12.6,4.9,0,2018,4,24,22,12,27.446,0.6864,-0.0294,-0.7236,0.0648
0.034,0.054,-0.003,20.1,14,6,0,2018,4,24,22,12,27.479,0.684,-0.0264,-0.726,0.0655
0.007,0.018,0.01,20.4,15.7,6.9,0,2018,4,24,22,12,27.502,0.6816,-0.0233,-0.7282,0.0664
-0.009,0.016,-0.006,21.8,15.5,6,0,2018,4,24,22,12,27.508,0.6791,-0.0202,-0.7306,0.0677
0.014,0.027,0.008,25.9,8.9,3,0,2018,4,24,22,12,27.546,0.673,-0.0152,-0.7362,0.0693
0.038,0.015,0.019,26,7.7,2.2,0,2018,4,24,22,12,27.568,0.6698,-0.0135,-0.739,0.07
0.037,0.01,0.013,25.2,7.7,1.9,0,2018,4,24,22,12,27.57,0.6666,-0.012,-0.7418,0.0708
0.031,0.014,0.015,24.3,10.2,3.5,0,2018,4,24,22,12,27.585,0.6635,-0.0102,-0.7446,0.0717
0.017,-0.012,-0.023,24,16.8,4.3,0,2018,4,24,22,12,27.608,0.6604,-0.0078,-0.7472,0.0728
-0.053,-0.085,0.188,14.2,27.1,-0.9,0,2018,4,24,22,12,27.643,0.658,-0.0048,-0.7491,0.0759
-0.126,-0.146,0.353,-6.3,29.1,-6.2,1023,2018,4,24,22,12,27.666,0.6575,-0.0022,-0.7491,0.0798
-0.075,-0.13,0.339,-22.6,37.7,-13.2,1023,2018,4,24,22,12,27.668,0.6594,0.0003,-0.7468,0.0855
-0.086,-0.071,0.281,-31.2,29.2,-20.5,1023,2018,4,24,22,12,27.705,0.6627,0.0016,-0.7431,0.092
-0.045,-0.064,0.237,-38.6,21.1,-25.3,1023,2018,4,24,22,12,27.726,0.6669,0.0008,-0.7386,0.0978
0.014,0.03,0.127,-39.8,14.8,-29,1023,2018,4,24,22,12,27.73,0.6719,-0.0012,-0.7333,0.1034
0.041,0.069,0.087,-39.6,2.1,-29.1,1023,2018,4,24,22,12,27.765,0.6773,-0.0042,-0.7277,0.1075
0.05,0.032,0.034,-41.7,3.5,-27.2,1023,2018,4,24,22,12,27.788,0.6824,-0.008,-0.7224,0.1107
0.049,0.013,0.011,-45.6,17.2,-25,1023,2018,4,24,22,12,27.791,0.6875,-0.0109,-0.7168,0.115
0.06,0.034,-0.003,-48.1,25.2,-23.9,1023,2018,4,24,22,12,27.826,0.693,-0.012,-0.7106,0.1206
0.056,0.032,-0.044,-48.7,25.8,-24.7,1023,2018,4,24,22,12,27.847,0.6984,-0.0128,-0.7043,0.1264
0.018,0.018,-0.006,-51.5,27.6,-24.6,1023,2018,4,24,22,12,27.849,0.7037,-0.0136,-0.6978,0.1324
-0.04,-0.057,0.029,-57.7,33.6,-25.9,0,2018,4,24,22,12,27.867,0.71,-0.0143,-0.6901,0.1391
-0.076,-0.079,0.024,-62.2,41.2,-28.5,0,2018,4,24,22,12,27.888,0.7166,-0.0147,-0.6814,0.1474
-0.072,-0.129,0.006,-67.2,47.6,-35.1,0,2018,4,24,22,12,27.924,0.7237,-0.0153,-0.6718,0.1567
-0.075,-0.092,-0.075,-64.6,59.6,-37.5,0,2018,4,24,22,12,27.947,0.73,-0.0153,-0.6622,0.168
-0.063,0.02,-0.105,-62,62.4,-36.9,0,2018,4,24,22,12,27.95,0.7356,-0.0136,-0.6528,0.1799
-0.102,0.076,0.018,-58.3,49.4,-37.2,0,2018,4,24,22,12,27.989,0.7411,-0.0118,-0.6436,0.1904
-0.144,0.024,0.079,-61.2,27.9,-37.4,0,2018,4,24,22,12,28.01,0.7468,-0.0125,-0.6344,0.1991
-0.123,0.028,0.032,-67.3,5.2,-38.5,0,2018,4,24,22,12,28.012,0.7529,-0.0165,-0.625,0.2054
-0.161,-0.009,-0.02,-70.7,-11.4,-38.6,0,2018,4,24,22,12,28.048,0.7589,-0.0233,-0.6161,0.2094
-0.177,-0.066,-0.003,-74.4,-19.9,-38.8,0,2018,4,24,22,12,28.07,0.7648,-0.0323,-0.6073,0.2122
-0.19,-0.081,0.017,-78,-20.5,-40.1,0,2018,4,24,22,12,28.076,0.771,-0.0421,-0.5979,0.2149
-0.185,-0.071,0.003,-79.8,-17,-40.6,0,2018,4,24,22,12,28.093,0.7773,-0.0519,-0.5878,0.2177
-0.183,-0.048,-0.016,-78.4,-13.4,-39.7,0,2018,4,24,22,12,28.111,0.7834,-0.0611,-0.5776,0.2207
-0.217,-0.064,-0.049,-74.7,-11.6,-37.8,0,2018,4,24,22,12,28.149,0.7891,-0.0695,-0.5678,0.2237
-0.125,0.02,-0.024,-70.8,-10.3,-35.2,0,2018,4,24,22,12,28.149,0.7942,-0.0773,-0.5583,0.2265
-0.073,0.06,0.018,-67,-11.2,-29.9,0,2018,4,24,22,12,28.175,0.7994,-0.084,-0.549,0.2286
-0.016,0.083,0.071,-64.7,-16.4,-24,0,2018,4,24,22,12,28.192,0.8047,-0.0904,-0.5397,0.2297
0.021,0.072,0.077,-60.8,-23.1,-17.4,0,2018,4,24,22,12,28.216,0.81,-0.097,-0.5307,0.2295
0.037,0.046,0.067,-56.2,-30.1,-10.2,0,2018,4,24,22,12,28.233,0.8149,-0.1039,-0.5225,0.2279
0.039,0.009,0.061,-51.1,-32.6,-3.7,0,2018,4,24,22,12,28.256,0.8193,-0.111,-0.5153,0.225
0.034,-0.036,0.038,-44.5,-29.5,1.1,0,2018,4,24,22,12,28.272,0.8232,-0.1176,-0.5091,0.2217
0.036,-0.087,0.052,-37.8,-18.1,4,0,2018,4,24,22,12,28.29,0.8265,-0.1229,-0.5038,0.2186
0.029,-0.109,0.047,-30.5,0.7,5.2,0,2018,4,24,22,12,28.312,0.8295,-0.1258,-0.4988,0.217
0.036,-0.11,0.026,-24.5,26.3,4.7,0,2018,4,24,22,12,28.35,0.8324,-0.1253,-0.494,0.2174
0.027,-0.127,-0.001,-22.2,64.6,3.4,0,2018,4,24,22,12,28.372,0.8353,-0.1202,-0.4888,0.2207
0.038,-0.097,0.012,-20.8,90,0.5,0,2018,4,24,22,12,28.376,0.8386,-0.1101,-0.4824,0.2273
0.033,-0.024,0.024,-18.5,91.9,-3,0,2018,4,24,22,12,28.395,0.8419,-0.098,-0.4756,0.2352
0.029,0.047,0.008,-17.7,81.5,-5.7,1023,2018,4,24,22,12,28.412,0.8447,-0.0862,-0.4689,0.2428
0.026,0.062,-0.017,-19,68.9,-7.5,1023,2018,4,24,22,12,28.435,0.8472,-0.0761,-0.4627,0.2495
0.022,0.042,-0.017,-22.2,57.7,-9.9,1023,2018,4,24,22,12,28.472,0.8493,-0.068,-0.4567,0.2554
0.001,-0.006,-0.015,-25.9,54.1,-11.2,1023,2018,4,24,22,12,28.472,0.8514,-0.0617,-0.4506,0.261
-0.027,0.017,0.008,-29.2,48.5,-11.6,1023,2018,4,24,22,12,28.495,0.8535,-0.0561,-0.4441,0.2664
-0.041,0.016,-0.002,-29.5,38.5,-12.6,1023,2018,4,24,22,12,28.53,0.8556,-0.0517,-0.4376,0.2712
-0.073,0.012,-0.005,-29.1,26.6,-13.2,1023,2018,4,24,22,12,28.551,0.8575,-0.0489,-0.4317,0.2752
-0.006,-0.015,-0.024,-25.5,17.3,-14.9,1023,2018,4,24,22,12,28.555,0.8589,-0.0482,-0.4268,0.2786
-0.001,-0.014,-0.032,-22.2,9,-15.6,1023,2018,4,24,22,12,28.59,0.8599,-0.0486,-0.4229,0.2815
0.025,-0.013,-0.049,-18.3,8,-16.9,1023,2018,4,24,22,12,28.613,0.8605,-0.0497,-0.4196,0.2844
0.043,-0.008,-0.053,-15.2,10.4,-17.9,1023,2018,4,24,22,12,28.616,0.8608,-0.0506,-0.4167,0.2876
0.07,0.016,-0.03,-11.9,14.5,-18.1,0,2018,4,24,22,12,28.652,0.8609,-0.0509,-0.4138,0.2912
0.1,0.032,-0.002,-9.7,12.5,-17.4,0,2018,4,24,22,12,28.672,0.8611,-0.0507,-0.4109,0.2949
0.132,0.043,0.028,-8.7,4.9,-16.4,0,2018,4,24,22,12,28.675,0.8613,-0.0511,-0.408,0.2982
0.146,0.056,0.042,-8.1,-7.7,-14.8,0,2018,4,24,22,12,28.713,0.8615,-0.0528,-0.4057,0.3005
0.168,0.078,0.058,-8.2,-23.2,-13.5,0,2018,4,24,22,12,28.734,0.8612,-0.0565,-0.4052,0.3015
0.176,0.084,0.071,-9.1,-41.4,-11.3,0,2018,4,24,22,12,28.736,0.8608,-0.0628,-0.4054,0.301
0.163,0.078,0.071,-10,-57.2,-9,0,2018,4,24,22,12,28.772,0.8604,-0.0714,-0.4064,0.2989
0.144,0.041,0.053,-9.7,-71.9,-5.8,0,2018,4,24,22,12,28.793,0.8598,-0.0823,-0.4082,0.2952
0.126,0.005,0.017,-8.3,-77.4,-2,0,2018,4,24,22,12,28.796,0.8593,-0.0946,-0.4099,0.2905
0.105,-0.02,-0.015,-5.9,-74.7,1.4,0,2018,4,24,22,12,28.83,0.8586,-0.107,-0.412,0.2853
0.076,-0.046,-0.02,-3.1,-62.2,4.6,0,2018,4,24,22,12,28.851,0.8577,-0.118,-0.4144,0.2801
0.046,-0.061,-0.004,-1.6,-42,7.4,0,2018,4,24,22,12,28.855,0.857,-0.1261,-0.4165,0.2757
0.016,-0.059,0.011,-1.2,-20.4,8.7,0,2018,4,24,22,12,28.89,0.8567,-0.1307,-0.4178,0.2725
-0.013,-0.048,0.029,-0.4,-3.1,8.6,0,2018,4,24,22,12,28.911,0.8569,-0.1322,-0.4183,0.2705
-0.026,-0.024,0.046,0.4,8.4,7.4,0,2018,4,24,22,12,28.916,0.8573,-0.1312,-0.4182,0.2696
-0.03,0.013,0.048,0.8,10,5.5,0,2018,4,24,22,12,28.954,0.8579,-0.129,-0.4179,0.2694
-0.02,0.042,0.018,1.6,3.9,3.7,0,2018,4,24,22,12,28.976,0.8584,-0.1271,-0.4177,0.2691
-0.01,0.048,-0.005,3.3,-4.1,2.4,0,2018,4,24,22,12,28.979,0.8584,-0.1264,-0.4182,0.2685
-0.009,0.039,-0.009,4.1,-10.7,1.6,0,2018,4,24,22,12,28.996,0.8582,-0.1268,-0.4192,0.2675
0,0.015,-0.001,4.7,-14.9,0.5,0,2018,4,24,22,12,29.016,0.8577,-0.1282,-0.4205,0.2664
0,-0.008,-0.007,4.3,-16.7,-0.2,0,2018,4,24,22,12,29.052,0.857,-0.1304,-0.422,0.2653
0.007,-0.036,-0.013,4.3,-17.2,-0.5,0,2018,4,24,22,12,29.073,0.8561,-0.133,-0.4235,0.2643
0.019,-0.043,-0.026,4.2,-16.3,-0.8,0,2018,4,24,22,12,29.078,0.8552,-0.1358,-0.425,0.2634
0.025,-0.039,-0.035,4.4,-14,-0.5,0,2018,4,24,22,12,29.115,0.8543,-0.1384,-0.4264,0.2626
0.037,-0.032,-0.044,4.5,-10.1,-0.3,0,2018,4,24,22,12,29.136,0.8535,-0.1405,-0.4277,0.2621
0.033,-0.021,-0.043,4.9,-5,0.4,0,2018,4,24,22,12,29.14,0.8528,-0.1419,-0.4289,0.2617
0.028,-0.018,-0.034,5.2,-0.6,0.5,0,2018,4,24,22,12,29.177,0.8522,-0.1423,-0.4299,0.2617
0.028,-0.009,-0.018,5.2,1.9,0.6,1023,2018,4,24,22,12,29.198,0.8518,-0.1421,-0.4307,0.2619
0.019,-0.015,-0.003,4.9,3.5,0.5,1023,2018,4,24,22,12,29.201,0.8515,-0.1416,-0.4313,0.2622
0.016,0.002,0.004,4.3,4.9,0.6,1023,2018,4,24,22,12,29.216,0.8513,-0.1408,-0.4317,0.2627
0.016,0.008,0.021,3.7,4,0.8,1023,2018,4,24,22,12,29.238,0.8512,-0.1398,-0.4318,0.263
0.008,0.008,0.027,2.9,3.1,0.7,1023,2018,4,24,22,12,29.274,0.8512,-0.139,-0.432,0.2633
0.001,0.006,0.021,2.1,3.3,0.6,1023,2018,4,24,22,12,29.295,0.8513,-0.1382,-0.432,0.2635
-0.001,0.012,0.025,1.2,3.3,0.2,1023,2018,4,24,22,12,29.298,0.8513,-0.1375,-0.432,0.2637
0,0.017,0.011,0.8,2.6,-0.3,1023,2018,4,24,22,12,29.335,0.8514,-0.1369,-0.4319,0.2639
-0.001,0.017,0.008,0.1,1.6,-0.7,1023,2018,4,24,22,12,29.355,0.8515,-0.1364,-0.4317,0.2641
-0.001,0.018,0.002,-0.3,0.7,-0.9,1023,2018,4,24,22,12,29.361,0.8503,-0.1346,-0.4348,0.264
0,0.014,-0.007,-0.5,-0.8,-1,1023,2018,4,24,22,12,29.399,0.8479,-0.1318,-0.4406,0.2635
0.003,0.008,-0.003,-1.1,-1.6,-1,1023,2018,4,24,22,12,29.422,0.8455,-0.1292,-0.4462,0.263
0.003,0.005,-0.005,-1.2,-1.6,-0.8,0,2018,4,24,22,12,29.424,0.8432,-0.1269,-0.4516,0.2623
0.002,0.009,-0.003,-1.4,-1.3,-0.5,0,2018,4,24,22,12,29.46,0.841,-0.1246,-0.4568,0.2617
0,0.013,-0.002,-1.7,-1.5,-0.2,0,2018,4,24,22,12,29.481,0.8389,-0.122,-0.4615,0.2611
0.004,0.014,0.001,-1.4,-1.6,0.2,0,2018,4,24,22,12,29.485,0.8369,-0.1197,-0.4662,0.2603
0.006,0.013,0,-1.6,-1.9,0.3,0,2018,4,24,22,12,29.501,0.835,-0.1173,-0.4706,0.2596
0.01,0.014,-0.002,-1.6,-2,0.2,0,2018,4,24,22,12,29.538,0.8331,-0.1151,-0.4749,0.2589
0.013,0.012,-0.005,-1.6,-2,0,0,2018,4,24,22,12,29.56,0.8314,-0.113,-0.4788,0.2582
0.012,0.015,-0.003,-1.4,-1.7,-0.2,0,2018,4,24,22,12,29.563,0.8296,-0.1109,-0.4827,0.2576
0.01,0.007,-0.003,-1.1,-1.9,-0.7,0,2018,4,24,22,12,29.598,0.8279,-0.1089,-0.4863,0.2571
0.013,0.004,0.007,-1.4,-2,-0.8,0,2018,4,24,22,12,29.603,0.8263,-0.1071,-0.4896,0.2566
0.016,0.004,0.005,-1.8,-2.5,-1,0,2018,4,24,22,12,29.639,0.8249,-0.1054,-0.4926,0.2562
0.021,-0.001,-0.001,-2,-3,-0.8,0,2018,4,24,22,12,29.661,0.8234,-0.1038,-0.4956,0.2558
0.016,-0.005,0.002,-2.3,-3,-0.8,0,2018,4,24,22,12,29.667,0.8221,-0.1025,-0.4983,0.2553
0.017,-0.007,0,-2,-2.4,-0.9,0,2018,4,24,22,12,29.684,0.8208,-0.1013,-0.5009,0.2549
0.017,-0.004,-0.002,-2.1,-1.5,-0.8,0,2018,4,24,22,12,29.704,0.8196,-0.0999,-0.5032,0.2547
0.012,-0.004,0.002,-2.1,-0.7,-0.8,0,2018,4,24,22,12,29.723,0.8185,-0.0984,-0.5055,0.2545
0.008,-0.001,0,-1.9,-0.1,-0.7,0,2018,4,24,22,12,29.757,0.8173,-0.0968,-0.5077,0.2543
0.01,0.005,0.004,-1.6,0,-0.4,0,2018,4,24,22,12,29.781,0.8163,-0.0951,-0.5098,0.2542
0.013,0.01,0,-1.3,-0.2,-0.5,0,2018,4,24,22,12,29.785,0.8152,-0.0932,-0.5118,0.2541
0.013,0.01,0.001,-0.8,-0.6,-0.5,0,2018,4,24,22,12,29.802,0.8142,-0.0915,-0.5138,0.2539
0.015,0.007,-0.001,-0.2,-0.8,-0.6,0,2018,4,24,22,12,29.824,0.8132,-0.0899,-0.5157,0.2538
0.019,0.007,0,0.2,-0.8,-0.5,0,2018,4,24,22,12,29.842,0.8121,-0.0884,-0.5177,0.2538
0.018,0.009,-0.006,0.7,-0.8,-0.1,0,2018,4,24,22,12,29.865,0.8111,-0.0869,-0.5197,0.2537
0.014,0.002,-0.003,1,-0.6,0.1,0,2018,4,24,22,12,29.902,0.8102,-0.0854,-0.5214,0.2536
0.012,0.002,0,0.9,0.2,0.3,0,2018,4,24,22,12,29.902,0.8091,-0.0838,-0.5234,0.2535
0.006,0.001,0,0.5,0.5,0.3,0,2018,4,24,22,12,29.924,0.8082,-0.0822,-0.5251,0.2535
0.009,0.003,-0.007,0.2,0.5,0.2,1023,2018,4,24,22,12,29.94,0.8073,-0.0806,-0.5266,0.2535
0.008,0.009,-0.007,0,0,0,1023,2018,4,24,22,12,29.962,0.8065,-0.0791,-0.5281,0.2535
0.008,0.006,0,0,0,0,1023,2018,4,24,22,12,30,0.8057,-0.0777,-0.5295,0.2535
0.005,0,0.002,0.1,-0.5,0,1023,2018,4,24,22,12,30.023,0.8049,-0.0763,-0.5309,0.2535
0.003,0,-0.002,0,0,0,1023,2018,4,24,22,12,30.025,0.8041,-0.075,-0.5323,0.2536
0.009,0.002,-0.003,0,0,0,1023,2018,4,24,22,12,30.043,0.8034,-0.0737,-0.5335,0.2537
0.012,0.005,0,-0.2,-0.5,-0.1,1023,2018,4,24,22,12,30.066,0.8027,-0.0725,-0.5346,0.2538
0.011,0.006,0,-0.2,-0.8,0,1023,2018,4,24,22,12,30.083,0.8023,-0.0714,-0.5354,0.2538
0.014,0.001,-0.001,-0.1,-0.7,0,1023,2018,4,24,22,12,30.106,0.8017,-0.0703,-0.5363,0.2539
0.015,0.002,-0.002,0,0,0,1023,2018,4,24,22,12,30.144,0.8012,-0.0692,-0.5372,0.254
0.013,0.003,-0.005,0,0,0,1023,2018,4,24,22,12,30.167,0.8007,-0.0682,-0.5381,0.2542
0.007,0.004,-0.002,-0.2,0.5,0,1023,2018,4,24,22,12,30.171,0.8001,-0.0671,-0.5389,0.2544
0.008,0.003,-0.003,0,0,0,0,2018,4,24,22,12,30.187,0.7997,-0.066,-0.5396,0.2546
0.01,0.008,-0.003,-0.5,-0.5,-0.3,0,2018,4,24,22,12,30.21,0.7992,-0.065,-0.5403,0.2548
0.011,0.003,-0.004,-0.7,-0.6,-0.2,0,2018,4,24,22,12,30.225,0.7987,-0.0641,-0.5411,0.255
0.006,0.002,0,-0.6,-0.5,-0.2,0,2018,4,24,22,12,30.263,0.7983,-0.0632,-0.5417,0.2552
0.005,0,-0.002,-0.9,-0.3,-0.2,0,2018,4,24,22,12,30.286,0.7979,-0.0623,-0.5423,0.2554
0.009,0.005,-0.006,-0.9,0,-0.3,0,2018,4,24,22,12,30.291,0.7975,-0.0614,-0.5428,0.2557
0.013,0.011,-0.007,-0.8,-0.1,0,0,2018,4,24,22,12,30.309,0.7972,-0.0605,-0.5432,0.256
0.009,0.009,-0.003,-0.6,-0.4,0,0,2018,4,24,22,12,30.326,0.7969,-0.0596,-0.5436,0.2563
0.013,0.004,0.001,-0.5,-0.2,0,0,2018,4,24,22,12,30.348,0.7967,-0.0587,-0.544,0.2565
0.011,0.002,0.004,0,0,0,0,2018,4,24,22,12,30.384,0.7963,-0.0579,-0.5445,0.2568
0.009,0.002,0,0,0,0,0,2018,4,24,22,12,30.407,0.796,-0.057,-0.5448,0.2571
0.012,0.011,-0.01,0,0,0,0,2018,4,24,22,12,30.411,0.7957,-0.0562,-0.5452,0.2575
0.01,0.004,-0.005,-0.5,-0.4,0,0,2018,4,24,22,12,30.427,0.7953,-0.0554,-0.5457,0.2578
0.008,0.001,-0.004,0,0,0,0,2018,4,24,22,12,30.445,0.795,-0.0546,-0.5461,0.2581
0.007,0.002,-0.005,-0.5,0,-0.4,0,2018,4,24,22,12,30.467,0.7947,-0.0538,-0.5465,0.2585
0.012,0.004,-0.004,-0.6,0,-0.3,0,2018,4,24,22,12,30.503,0.7945,-0.0531,-0.5466,0.2589
0.011,0.007,-0.001,0,0,0,0,2018,4,24,22,12,30.527,0.7942,-0.0524,-0.5469,0.2593
0.009,0.005,0,0,0,0,0,2018,4,24,22,12,30.531,0.7941,-0.0519,-0.5469,0.2598
0.008,0.005,-0.003,-0.5,0,-0.2,0,2018,4,24,22,12,30.548,0.7938,-0.0511,-0.5472,0.2602
0.007,0.004,-0.004,0,0,0,0,2018,4,24,22,12,30.585,0.7936,-0.0504,-0.5474,0.2606
0.009,0.008,-0.003,0,0,0,0,2018,4,24,22,12,30.608,0.7934,-0.0497,-0.5476,0.261
0.011,0.004,-0.005,0,0,0,0,2018,4,24,22,12,30.613,0.7931,-0.0492,-0.5477,0.2614
0.013,0.002,0,0,0,0,0,2018,4,24,22,12,30.633,0.7929,-0.0485,-0.5479,0.2619
0.013,0.003,-0.003,0,0,0,0,2018,4,24,22,12,30.649,0.7927,-0.0479,-0.548,0.2623
0.009,0.003,-0.005,0,0,0,0,2018,4,24,22,12,30.668,0.7924,-0.0471,-0.5483,0.2627
0.01,0.004,-0.006,-0.5,-0.8,-0.3,0,2018,4,24,22,12,30.702,0.7921,-0.0466,-0.5486,0.2632
0.009,0.004,-0.01,-0.6,-1.4,-0.2,0,2018,4,24,22,12,30.724,0.792,-0.0462,-0.5487,0.2636
0.011,0,-0.008,-0.5,-1.1,-0.2,0,2018,4,24,22,12,30.729,0.7918,-0.0459,-0.5488,0.2639
0.01,-0.004,-0.005,0,0,0,1023,2018,4,24,22,12,30.765,0.7915,-0.0455,-0.5489,0.2644
0.01,0.002,-0.005,0,0,0,1023,2018,4,24,22,12,30.787,0.7913,-0.045,-0.5491,0.2649
0.007,0.005,-0.006,0,0,0,1023,2018,4,24,22,12,30.793,0.791,-0.0445,-0.5493,0.2654
0.011,0.007,0,-0.2,-1,-0.2,1023,2018,4,24,22,12,30.809,0.7909,-0.044,-0.5493,0.2658
0.011,0.001,-0.003,-0.2,-1.4,0,1023,2018,4,24,22,12,30.832,0.7907,-0.0435,-0.5495,0.2662
0.01,0.001,0,-0.3,-1.2,-0.3,1023,2018,4,24,22,12,30.852,0.7904,-0.0432,-0.5497,0.2666
0.013,0.002,-0.004,-0.4,-1,-0.2,1023,2018,4,24,22,12,30.888,0.7901,-0.0428,-0.5499,0.267
0.012,0,-0.005,-0.4,-0.8,-0.2,1023,2018,4,24,22,12,30.911,0.79,-0.0425,-0.5499,0.2674
0.01,0.001,-0.009,0,0,0,1023,2018,4,24,22,12,30.915,0.7899,-0.0421,-0.5499,0.2679
0.009,-0.003,-0.003,-0.5,-0.1,0,1023,2018,4,24,22,12,30.931,0.7897,-0.0416,-0.5499,0.2684
0.009,0.006,-0.003,-0.6,-0.3,-0.2,1023,2018,4,24,22,12,30.95,0.7895,-0.0411,-0.5501,0.2689
0.006,0.007,-0.005,-0.6,-0.6,-0.3,1023,2018,4,24,22,12,30.972,0.7893,-0.0407,-0.5501,0.2694
0.007,0.005,-0.009,-0.6,-1.1,-0.2,0,2018,4,24,22,12,30.99,0.789,-0.0403,-0.5503,0.2698
0.009,0.001,-0.002,-0.4,-1.1,-0.3,0,2018,4,24,22,12,31.013,0.7889,-0.0402,-0.5503,0.2703
0.01,0.005,-0.006,-0.5,-0.4,-0.4,0,2018,4,24,22,12,31.031,0.7887,-0.0398,-0.5504,0.2708
0.01,0.012,-0.002,0,0,0,0,2018,4,24,22,12,31.054,0.7884,-0.0393,-0.5505,0.2713
0.01,0.008,-0.007,-0.2,-0.6,-0.2,0,2018,4,24,22,12,31.072,0.7883,-0.039,-0.5505,0.2718
0.01,0.002,-0.002,-0.2,-1.1,-0.1,0,2018,4,24,22,12,31.095,0.7881,-0.0386,-0.5505,0.2722
0.011,0,-0.003,-0.2,-0.9,0,0,2018,4,24,22,12,31.115,0.788,-0.0385,-0.5504,0.2727
0.016,0,-0.001,0,0,0,0,2018,4,24,22,12,31.134,0.7878,-0.0381,-0.5505,0.2733
0.012,-0.001,-0.004,0,0,0,0,2018,4,24,22,12,31.156,0.7875,-0.0377,-0.5506,0.2738
0.012,0.002,-0.004,0,0,0,0,2018,4,24,22,12,31.173,0.7872,-0.0372,-0.5508,0.2744
0.01,0.006,-0.006,0,0,0,0,2018,4,24,22,12,31.19,0.787,-0.0367,-0.551,0.2749
0.013,0.001,-0.006,0.2,-0.6,-0.3,0,2018,4,24,22,12,31.213,0.7868,-0.0363,-0.551,0.2754
0.011,0.001,-0.009,0.3,-0.8,-0.3,0,2018,4,24,22,12,31.23,0.7866,-0.0361,-0.551,0.276
0.01,-0.004,-0.009,0,0,0,0,2018,4,24,22,12,31.252,0.7863,-0.0357,-0.5512,0.2766
0.009,-0.001,-0.001,0,0,0,0,2018,4,24,22,12,31.271,0.786,-0.0353,-0.5514,0.2771
0.005,0,-0.008,0.1,0.8,0,0,2018,4,24,22,12,31.294,0.7858,-0.0348,-0.5514,0.2778
0.005,0.003,-0.004,0.1,0.6,0,0,2018,4,24,22,12,31.331,0.7855,-0.0343,-0.5515,0.2784
0.008,0.006,-0.002,0,0.5,0,0,2018,4,24,22,12,31.353,0.7853,-0.0339,-0.5515,0.279
0.011,0.005,-0.009,0,0,0,0,2018,4,24,22,12,31.357,0.785,-0.0335,-0.5516,0.2796
0.014,0.007,-0.008,0.7,0.3,0,0,2018,4,24,22,12,31.371,0.7848,-0.033,-0.5516,0.2802
0.009,0.007,-0.005,0.5,0.3,0.2,0,2018,4,24,22,12,31.41,0.7846,-0.0326,-0.5516,0.2808
0.008,0.004,0.002,0.5,0.2,0.4,0,2018,4,24,22,12,31.432,0.7845,-0.0321,-0.5516,0.2813
0.005,0,-0.003,0.3,0.4,0.6,0,2018,4,24,22,12,31.435,0.7842,-0.0316,-0.5517,0.2819
0.008,0.004,-0.005,0,0.4,0.5,0,2018,4,24,22,12,31.451,0.784,-0.031,-0.5518,0.2824
0.006,0.006,-0.006,0,0,0,0,2018,4,24,22,12,31.475,0.7837,-0.0305,-0.5519,0.2829
0.005,0.004,-0.011,0,0,0,1023,2018,4,24,22,12,31.493,0.7834,-0.03,-0.5521,0.2835
0.006,-0.002,-0.01,-0.1,-0.5,0,1023,2018,4,24,22,12,31.513,0.7832,-0.0298,-0.5522,0.284
0.013,0,0,0,0,0,1023,2018,4,24,22,12,31.55,0.783,-0.0295,-0.5522,0.2846
0.01,0.001,0.002,-0.3,0.5,0.3,1023,2018,4,24,22,12,31.57,0.7828,-0.0291,-0.5521,0.2852
0.009,0.009,-0.001,0,0,0,1023,2018,4,24,22,12,31.576,0.7827,-0.0286,-0.5521,0.2858
0.009,0.01,-0.007,-0.5,-0.5,0.4,1023,2018,4,24,22,12,31.612,0.7825,-0.0282,-0.552,0.2863
0.006,0.005,-0.004,-0.5,-0.5,0.6,1023,2018,4,24,22,12,31.612,0.7824,-0.0278,-0.552,0.2867
0.011,0,-0.004,-0.3,-0.4,0.7,1023,2018,4,24,22,12,31.632,0.7821,-0.0275,-0.5522,0.2871
0.013,-0.001,-0.008,0,0.2,0.8,1023,2018,4,24,22,12,31.669,0.7819,-0.0271,-0.5523,0.2876
0.01,-0.004,-0.005,-0.2,0.7,1,0,2018,4,24,22,12,31.692,0.7817,-0.0265,-0.5523,0.2882
0.006,0.002,-0.003,0,1.2,1.1,0,2018,4,24,22,12,31.695,0.7816,-0.0261,-0.5521,0.2887
0.009,0.001,-0.004,-0.2,1.5,1.1,0,2018,4,24,22,12,31.728,0.7814,-0.0254,-0.5522,0.2893
0.003,0.008,-0.001,-0.2,1.5,1.1,0,2018,4,24,22,12,31.75,0.7813,-0.0247,-0.5521,0.2898
0.006,0.015,-0.006,-0.6,0.9,1.4,0,2018,4,24,22,12,31.757,0.7813,-0.0241,-0.5518,0.2904
-0.003,0.01,0.003,-0.6,0.5,1.7,0,2018,4,24,22,12,31.794,0.7813,-0.0234,-0.5516,0.2908
0,0.005,0.001,-0.5,0.2,1.7,0,2018,4,24,22,12,31.816,0.7814,-0.0228,-0.5514,0.2911
0,0.002,0.008,-0.9,-0.8,1.3,0,2018,4,24,22,12,31.818,0.7814,-0.0224,-0.5511,0.2915
0.005,-0.005,0.014,-0.9,-2.2,0.8,0,2018,4,24,22,12,31.853,0.7814,-0.0222,-0.551,0.2918
0.012,0,0.015,-0.9,-2.5,0.3,0,2018,4,24,22,12,31.853,0.7815,-0.0224,-0.5507,0.2921
0.044,0.005,-0.01,0.2,-3.6,0,0,2018,4,24,22,12,31.876,0.7814,-0.0225,-0.5506,0.2925
0.071,0.006,-0.042,2.5,-5.5,-0.9,0,2018,4,24,22,12,31.912,0.7811,-0.023,-0.5509,0.2929
0.078,-0.01,-0.053,6,-9.3,-1.2,0,2018,4,24,22,12,31.933,0.7803,-0.024,-0.5518,0.2932
0.066,-0.041,-0.042,9.1,-9.4,-0.6,0,2018,4,24,22,12,31.937,0.779,-0.0252,-0.5535,0.2933
0.047,-0.074,-0.019,10.8,-3.3,-0.5,0,2018,4,24,22,12,31.956,0.7775,-0.0259,-0.5553,0.2938
0.023,-0.079,0.004,10.6,5.1,-1,0,2018,4,24,22,12,31.975,0.7758,-0.0255,-0.557,0.295
0.001,-0.057,0.017,8.9,11.5,-2.8,0,2018,4,24,22,12,32.013,0.7745,-0.0242,-0.5579,0.2971
-0.015,-0.006,0.018,6.7,12.7,-5.3,0,2018,4,24,22,12,32.034,0.7733,-0.0222,-0.5582,0.2996
-0.022,0.046,0.001,4.3,10.2,-6.4,0,2018,4,24,22,12,32.038,0.7723,-0.0203,-0.5583,0.302
-0.034,0.065,0.006,1.9,7.4,-6.1,0,2018,4,24,22,12,32.055,0.7718,-0.0187,-0.5579,0.3041
-0.027,0.078,0.005,0.4,8.3,-4.6,0,2018,4,24,22,12,32.076,0.7714,-0.0171,-0.5577,0.3058
0.009,0.077,0,1.2,8.7,-1.8,0,2018,4,24,22,12,32.113,0.7712,-0.0153,-0.5572,0.3074
0.015,0.04,-0.041,2.5,3.6,-1,0,2018,4,24,22,12,32.134,0.7709,-0.0136,-0.5569,0.3085
0.036,-0.033,-0.047,8.6,4.6,-1.7,0,2018,4,24,22,12,32.138,0.7699,-0.0128,-0.5577,0.3097
0.049,0.029,-0.002,11.8,7.5,-0.8,0,2018,4,24,22,12,32.176,0.7686,-0.0114,-0.5586,0.3114
0.076,0.099,-0.002,14.7,-2.8,3.1,0,2018,4,24,22,12,32.197,0.7676,-0.0095,-0.5596,0.3121
0.087,0.102,0.043,17.3,-15,5.8,0,2018,4,24,22,12,32.199,0.7666,-0.0086,-0.5615,0.3111
0.106,0.082,0.067,18.9,-28.7,7.1,1023,2018,4,24,22,12,32.236,0.7641,-0.0082,-0.567,0.3072
0.106,0.046,0.077,19,-38.4,7.2,1023,2018,4,24,22,12,32.257,0.762,-0.0096,-0.5723,0.3026
0.124,-0.006,0.06,18.6,-45.3,5.1,1023,2018,4,24,22,12,32.259,0.7594,-0.012,-0.5787,0.2967
0.131,-0.098,-0.013,21.4,-35.4,2.2,1023,2018,4,24,22,12,32.295,0.7566,-0.0146,-0.585,0.2913
0.129,-0.054,-0.022,26.2,-19.3,3.1,1023,2018,4,24,22,12,32.316,0.7534,-0.0151,-0.591,0.2875
0.177,-0.047,-0.044,31.6,-9,2.8,1023,2018,4,24,22,12,32.318,0.7504,-0.0151,-0.5954,0.2863
0.098,-0.022,-0.032,35.1,-3.2,6,1023,2018,4,24,22,12,32.355,0.7472,-0.0139,-0.5995,0.2862
0.056,-0.004,-0.025,40.8,-6.3,9.2,1023,2018,4,24,22,12,32.375,0.7438,-0.0124,-0.6039,0.2861
0.005,-0.096,-0.051,49.3,-9.7,12.1,1023,2018,4,24,22,12,32.377,0.7396,-0.0105,-0.6096,0.2848
-0.064,-0.128,0.023,54.3,-3.8,13.9,1023,2018,4,24,22,12,32.411,0.7346,-0.0081,-0.6162,0.2835
-0.084,-0.171,0.086,55.6,2.9,11.3,1023,2018,4,24,22,12,32.434,0.7294,-0.0046,-0.6226,0.2833
-0.078,-0.099,0.105,56.3,4.9,9.8,0,2018,4,24,22,12,32.44,0.7242,-0.0006,-0.6283,0.2838
-0.03,0.056,0.05,58.7,-1.9,11.1,0,2018,4,24,22,12,32.476,0.7191,0.0035,-0.6342,0.2837
0.014,0.111,0.009,63,-17.6,15.5,0,2018,4,24,22,12,32.498,0.7138,0.0074,-0.6412,0.2813
0.021,0.067,-0.001,66.6,-29.2,19,0,2018,4,24,22,12,32.502,0.7083,0.01,-0.6492,0.2768
0.003,-0.036,0.044,67.7,-35.9,20.5,0,2018,4,24,22,12,32.539,0.7023,0.0112,-0.6579,0.2714
0.019,-0.121,0.034,67.3,-36,18.3,0,2018,4,24,22,12,32.562,0.6961,0.0115,-0.6667,0.2661
0.055,-0.087,-0.018,67.1,-29.9,18.8,0,2018,4,24,22,12,32.564,0.6895,0.0118,-0.6751,0.2616
0.073,-0.036,-0.023,67.2,-24.8,21.9,0,2018,4,24,22,12,32.579,0.6828,0.0131,-0.6835,0.2573
0.061,-0.015,-0.009,66.2,-20.5,25.6,0,2018,4,24,22,12,32.6,0.6765,0.0155,-0.6913,0.253
0.031,-0.008,0.015,63.1,-11.7,29.2,0,2018,4,24,22,12,32.621,0.6707,0.0193,-0.6983,0.249
-0.029,-0.012,0.049,58.2,-8.1,31.1,0,2018,4,24,22,12,32.656,0.6656,0.024,-0.7043,0.2453
-0.028,0.05,0.035,55,-13.6,33.6,0,2018,4,24,22,12,32.677,0.6613,0.0291,-0.7096,0.2411
-0.057,0.049,0.013,53,-21.4,36.5,0,2018,4,24,22,12,32.681,0.6572,0.0335,-0.7151,0.2354
-0.067,0.071,-0.001,51.7,-32.3,39.7,0,2018,4,24,22,12,32.718,0.6535,0.0373,-0.7207,0.228
-0.089,0.028,-0.019,51.6,-37.2,42.5,0,2018,4,24,22,12,32.739,0.6497,0.0403,-0.7267,0.2191
-0.079,0.019,-0.013,50.9,-32,45.3,0,2018,4,24,22,12,32.741,0.646,0.0436,-0.7325,0.2101
-0.069,0.026,0.006,49.6,-25,48.9,0,2018,4,24,22,12,32.78,0.6424,0.0479,-0.7376,0.2018
-0.066,0.042,0.022,47.1,-23.9,52.4,0,2018,4,24,22,12,32.78,0.6393,0.053,-0.7422,0.1936
-0.06,0.055,0.024,43.2,-28,56.5,0,2018,4,24,22,12,32.8,0.6368,0.0582,-0.7462,0.1846
-0.071,0.047,0.009,39.4,-34.2,61.1,0,2018,4,24,22,12,32.838,0.6349,0.0632,-0.7498,0.1746
-0.088,0.032,-0.01,37.1,-40.1,65,0,2018,4,24,22,12,32.859,0.6334,0.0677,-0.7533,0.1633
-0.115,0.006,-0.002,35.7,-44.5,67.8,0,2018,4,24,22,12,32.863,0.632,0.0719,-0.7565,0.1512
-0.157,-0.003,-0.002,35.7,-49.8,69.9,0,2018,4,24,22,12,32.897,0.6308,0.0756,-0.7596,0.1383
-0.221,-0.049,-0.03,38.5,-50.3,69.6,0,2018,4,24,22,12,32.92,0.6292,0.0789,-0.763,0.1247
-0.34,-0.093,-0.033,44.4,-45.7,65.6,0,2018,4,24,22,12,32.922,0.6267,0.0822,-0.7667,0.112
-0.389,-0.125,-0.071,48.5,-44,58.8,0,2018,4,24,22,12,32.957,0.6231,0.085,-0.7709,0.1003
-0.429,-0.138,-0.088,46.6,-41,48.8,0,2018,4,24,22,12,32.978,0.6187,0.0867,-0.7756,0.0899
-0.367,-0.1,-0.093,40.8,-37.2,36.3,1023,2018,4,24,22,12,32.98,0.6145,0.0875,-0.7797,0.0814
-0.293,-0.09,-0.062,33.8,-43,17.9,1023,2018,4,24,22,12,33.018,0.6111,0.0856,-0.7833,0.0744
-0.263,-0.106,-0.005,22.7,-32.9,2.4,1023,2018,4,24,22,12,33.039,0.6088,0.0811,-0.786,0.0696
-0.169,-0.043,0.022,10.8,-3.9,-8.8,1023,2018,4,24,22,12,33.043,0.6079,0.077,-0.7871,0.0694
-0.108,0.026,0.048,1.7,22.2,-16.7,1023,2018,4,24,22,12,33.079,0.608,0.075,-0.7868,0.0738
-0.069,0.079,0.044,-5.6,33.2,-21,1023,2018,4,24,22,12,33.101,0.6091,0.0744,-0.7853,0.081
-0.046,0.083,0.028,-10.8,33.8,-24.9,1023,2018,4,24,22,12,33.103,0.6108,0.0741,-0.7831,0.0891
-0.019,0.073,0.015,-14.5,26.3,-29.9,1023,2018,4,24,22,12,33.137,0.613,0.0726,-0.7807,0.0972
0.007,0.048,0.004,-18,18.9,-35.1,1023,2018,4,24,22,12,33.158,0.6154,0.0694,-0.778,0.105
0.059,0.062,-0.014,-19.8,10.1,-38.6,1023,2018,4,24,22,12,33.164,0.6179,0.0648,-0.7754,0.1121
0.091,0.039,-0.026,-22.5,7.7,-40.3,0,2018,4,24,22,12,33.203,0.6205,0.0592,-0.7728,0.1185
0.118,0.029,-0.014,-26.2,14,-40.8,0,2018,4,24,22,12,33.224,0.6234,0.0535,-0.7698,0.1257
0.139,0.043,-0.001,-30.6,23.4,-40.1,0,2018,4,24,22,12,33.226,0.6267,0.0486,-0.766,0.134
0.135,0.056,0.003,-35.8,32.2,-38.6,0,2018,4,24,22,12,33.266,0.6307,0.0449,-0.7612,0.1434
0.119,0.089,0.009,-41.3,35.8,-35.5,0,2018,4,24,22,12,33.266,0.6354,0.0425,-0.7556,0.153
0.101,0.107,0,-45.6,31.9,-31.1,0,2018,4,24,22,12,33.286,0.6408,0.0406,-0.7492,0.1619
0.091,0.129,-0.016,-48.8,22.7,-25.2,0,2018,4,24,22,12,33.32,0.6468,0.0387,-0.7426,0.1691
0.082,0.123,-0.03,-50.8,8.8,-19.6,0,2018,4,24,22,12,33.341,0.6531,0.0365,-0.7361,0.1739
0.078,0.12,-0.042,-51.7,-8.3,-16,0,2018,4,24,22,12,33.343,0.6597,0.0329,-0.7298,0.1761
0.093,0.116,-0.051,-51.6,-26.1,-14.9,0,2018,4,24,22,12,33.379,0.6663,0.0276,-0.7241,0.1757
0.107,0.102,-0.073,-50.5,-37.6,-15.5,0,2018,4,24,22,12,33.402,0.6726,0.0205,-0.719,0.1735
0.113,0.09,-0.08,-49.3,-42.4,-16.8,0,2018,4,24,22,12,33.406,0.6785,0.0123,-0.7143,0.1705
0.119,0.088,-0.09,-47.7,-41.9,-17.7,0,2018,4,24,22,12,33.443,0.6841,0.0036,-0.7098,0.1673
0.139,0.079,-0.095,-46.3,-35.8,-17.4,0,2018,4,24,22,12,33.466,0.6893,-0.0045,-0.7054,0.1647
0.152,0.082,-0.092,-44,-28.1,-15.3,0,2018,4,24,22,12,33.468,0.6941,-0.0118,-0.701,0.1629
0.163,0.098,-0.092,-41.5,-20.3,-12,0,2018,4,24,22,12,33.483,0.6988,-0.0178,-0.6965,0.1617
0.16,0.123,-0.087,-38.8,-16.2,-8,0,2018,4,24,22,12,33.504,0.7032,-0.0224,-0.6921,0.1608
0.152,0.137,-0.105,-35.5,-15.7,-2.8,0,2018,4,24,22,12,33.539,0.7073,-0.0257,-0.6881,0.1591
0.144,0.152,-0.113,-31.9,-18.2,3.3,0,2018,4,24,22,12,33.56,0.7112,-0.0285,-0.6846,0.1567
0.136,0.156,-0.122,-28.1,-22.1,10.6,0,2018,4,24,22,12,33.567,0.7148,-0.0306,-0.6816,0.153
0.118,0.152,-0.129,-24.2,-25.8,18.8,0,2018,4,24,22,12,33.602,0.7181,-0.0323,-0.6792,0.1479
0.099,0.145,-0.146,-20.5,-28.4,27.9,0,2018,4,24,22,12,33.623,0.7211,-0.0334,-0.6773,0.1414
0.07,0.133,-0.152,-16.2,-29.2,37.1,0,2018,4,24,22,12,33.627,0.7237,-0.0334,-0.6761,0.1335
0.05,0.112,-0.159,-11.9,-25.8,46.3,0,2018,4,24,22,12,33.665,0.726,-0.0321,-0.6754,0.1246
0.034,0.092,-0.152,-7.2,-19,54.1,0,2018,4,24,22,12,33.686,0.7279,-0.0289,-0.6752,0.1153
0.019,0.022,-0.164,-3,0.1,61,0,2018,4,24,22,12,33.688,0.7295,-0.0236,-0.6751,0.1065
0.007,-0.078,-0.156,-0.7,44.9,67.8,0,2018,4,24,22,12,33.705,0.7309,-0.0132,-0.6748,0.1009
0.003,-0.086,-0.128,-0.2,96.5,71.4,1023,2018,4,24,22,12,33.726,0.7322,0.0039,-0.6736,0.1003
-0.028,-0.222,-0.12,-5,175.1,74.1,1023,2018,4,24,22,12,33.76,0.7333,0.0298,-0.6707,0.107
-0.009,-0.182,-0.103,-9.4,249.1,71.6,1023,2018,4,24,22,12,33.784,0.7338,0.0659,-0.6647,0.1232
0.002,-0.04,-0.064,-5.8,268.8,62.4,1023,2018,4,24,22,12,33.788,0.7324,0.1067,-0.6564,0.1457
-0.014,0.027,-0.018,2.1,244.9,50,1023,2018,4,24,22,12,33.824,0.7288,0.1454,-0.6474,0.1687
-0.008,0.114,0.01,11.8,192.5,39.5,1023,2018,4,24,22,12,33.845,0.7238,0.1783,-0.6394,0.1878
-0.021,0.151,0.041,23.8,115.6,31,1023,2018,4,24,22,12,33.849,0.7186,0.2022,-0.6345,0.1998
-0.045,0.125,0.082,32.8,37.5,26.4,1023,2018,4,24,22,12,33.888,0.7138,0.2154,-0.6345,0.2034
-0.034,0.1,0.118,39.5,-31.7,24.7,1023,2018,4,24,22,12,33.909,0.7108,0.2194,-0.6379,0.1991
-0.023,0.068,0.154,44,-92.6,22.8,1023,2018,4,24,22,12,33.911,0.7093,0.2152,-0.6444,0.1874
0.012,0.057,0.162,46.8,-145.1,21.1,0,2018,4,24,22,12,33.945,0.7093,0.2039,-0.653,0.1696
0.007,0.024,0.17,45.7,-190,19.3,0,2018,4,24,22,12,33.966,0.7107,0.1859,-0.6624,0.1464
0,-0.051,0.165,39.4,-216,17.7,0,2018,4,24,22,12,33.968,0.7138,0.1624,-0.6706,0.1198
-0.002,-0.141,0.144,30.3,-218.7,15.2,0,2018,4,24,22,12,34.001,0.7157,0.1371,-0.6786,0.0913
-0.004,-0.233,0.116,20.1,-197.2,11.7,0,2018,4,24,22,12,34.024,0.7174,0.1124,-0.6844,0.0646
-0.009,-0.3,0.08,9.6,-155.3,6.9,0,2018,4,24,22,12,34.028,0.7188,0.0913,-0.6878,0.0422
-0.012,-0.329,0.047,1,-102.6,1.6,0,2018,4,24,22,12,34.069,0.7201,0.0757,-0.6891,0.0262
-0.018,-0.323,0.043,-5.6,-49.4,-3.6,0,2018,4,24,22,12,34.09,0.7214,0.0662,-0.6891,0.0175
-0.021,-0.28,0.046,-10.2,-5.2,-8.1,0,2018,4,24,22,12,34.092,0.7226,0.0623,-0.6882,0.0153
-0.03,-0.195,0.052,-12.7,20.1,-12.5,0,2018,4,24,22,12,34.128,0.7239,0.0623,-0.6868,0.018
-0.037,-0.148,0.053,-13.7,26.8,-16.1,0,2018,4,24,22,12,34.149,0.7252,0.0634,-0.6851,0.0231
-0.025,-0.112,0.054,-14.4,22.9,-19.8,0,2018,4,24,22,12,34.153,0.7273,0.063,-0.6826,0.03
-0.017,-0.086,0.054,-15.1,11.6,-23.3,0,2018,4,24,22,12,34.171,0.7296,0.0612,-0.6801,0.0362
-0.005,-0.068,0.028,-15.2,-3.2,-26.8,0,2018,4,24,22,12,34.192,0.7319,0.0574,-0.6776,0.0411
0.005,-0.066,-0.001,-14.9,-15.9,-29.5,0,2018,4,24,22,12,34.21,0.7341,0.0515,-0.6755,0.0447
0.006,-0.06,-0.02,-14.3,-24,-31.6,0,2018,4,24,22,12,34.231,0.7361,0.044,-0.6737,0.0474
0.011,-0.057,-0.039,-13.7,-27.3,-33.5,0,2018,4,24,22,12,34.268,0.7378,0.0355,-0.6722,0.0496
0.021,-0.052,-0.05,-12.5,-25.9,-34.8,0,2018,4,24,22,12,34.289,0.7391,0.0268,-0.6709,0.052
0.023,-0.044,-0.053,-11.4,-21.2,-35.3,0,2018,4,24,22,12,34.291,0.7404,0.0185,-0.6696,0.0547
0.016,-0.028,-0.055,-9.8,-14.5,-35,0,2018,4,24,22,12,34.328,0.7411,0.0109,-0.6687,0.0581
0.007,-0.013,-0.053,-8.3,-8.1,-34.2,0,2018,4,24,22,12,34.349,0.7416,0.0044,-0.6679,0.0621
0.009,0.006,-0.062,-6.5,-3.6,-32.8,0,2018,4,24,22,12,34.351,0.7419,-0.0008,-0.6671,0.0664
0.006,0.023,-0.058,-4.3,-0.2,-30.9,0,2018,4,24,22,12,34.383,0.7418,-0.0052,-0.6668,0.0707
0.002,0.034,-0.048,-2.2,1.5,-28.8,0,2018,4,24,22,12,34.406,0.7415,-0.0089,-0.6666,0.0748
-0.002,0.049,-0.042,-0.4,2.7,-26.2,0,2018,4,24,22,12,34.41,0.7411,-0.012,-0.6665,0.0788
0,0.062,-0.045,1.2,2.6,-23,0,2018,4,24,22,12,34.446,0.7404,-0.0146,-0.6668,0.0824
0.003,0.072,-0.046,2.9,2.7,-19.4,1023,2018,4,24,22,12,34.468,0.7398,-0.0166,-0.667,0.0854
0.01,0.074,-0.038,4.6,3.4,-15.7,1023,2018,4,24,22,12,34.473,0.7389,-0.0181,-0.6677,0.0878
0.01,0.076,-0.024,6.2,5.5,-11.9,1023,2018,4,24,22,12,34.51,0.738,-0.0188,-0.6684,0.09
0.012,0.08,-0.013,7.4,7.9,-7.9,1023,2018,4,24,22,12,34.51,0.7371,-0.0187,-0.6691,0.0918
0.011,0.083,-0.006,8.6,9.6,-3.9,1023,2018,4,24,22,12,34.533,0.7362,-0.0179,-0.6699,0.0935
0.01,0.083,-0.001,9.8,10.1,0.5,1023,2018,4,24,22,12,34.57,0.7353,-0.0163,-0.6708,0.0946
0.008,0.073,0.012,10.4,10.7,5.1,1023,2018,4,24,22,12,34.593,0.7343,-0.0142,-0.6718,0.0952
0.008,0.065,0.013,11,11.8,9.3,1023,2018,4,24,22,12,34.598,0.7334,-0.0114,-0.6728,0.0954
0.013,0.056,0.01,11.3,13,13.1,1023,2018,4,24,22,12,34.642,0.7327,-0.0081,-0.6737,0.0953
0.012,0.042,0.012,11.1,14.7,16.6,1023,2018,4,24,22,12,34.645,0.7319,-0.0043,-0.6746,0.0951
0.013,0.036,0.016,11,15.8,20,1023,2018,4,24,22,12,34.657,0.7313,0,-0.6753,0.0946
0.013,0.027,0.023,10.7,16.2,22.9,0,2018,4,24,22,12,34.693,0.7308,0.0046,-0.6759,0.0939
0.012,0.016,0.03,10.2,14.7,25.3,0,2018,4,24,22,12,34.693,0.7303,0.0094,-0.6766,0.0929
0.009,0.007,0.03,9.6,12.4,27.2,0,2018,4,24,22,12,34.714,0.7301,0.0141,-0.677,0.0915
0.006,-0.006,0.029,8.7,8.8,28.6,0,2018,4,24,22,12,34.75,0.7299,0.0186,-0.6773,0.0894
0.005,-0.016,0.026,7.9,5.1,29,0,2018,4,24,22,12,34.771,0.7298,0.0226,-0.6776,0.087
0.004,-0.036,0.03,6.8,1.7,29.1,0,2018,4,24,22,12,34.775,0.7299,0.026,-0.6778,0.0842
-0.001,-0.05,0.032,5.8,-1.2,28.8,0,2018,4,24,22,12,34.813,0.73,0.0288,-0.6778,0.0812
-0.007,-0.064,0.025,4.9,-4,27.5,0,2018,4,24,22,12,34.834,0.7302,0.031,-0.6779,0.078
-0.009,-0.079,0.027,4.1,-6.1,25.8,0,2018,4,24,22,12,34.835,0.7304,0.0326,-0.678,0.0749
-0.007,-0.088,0.027,3.3,-7,23.4,0,2018,4,24,22,12,34.872,0.7307,0.0336,-0.678,0.072
-0.007,-0.103,0.019,2.4,-7.4,20.4,0,2018,4,24,22,12,34.893,0.7308,0.0341,-0.678,0.0694
-0.011,-0.112,0.019,1.8,-6.4,17.2,0,2018,4,24,22,12,34.894,0.731,0.0343,-0.678,0.0672
-0.011,-0.116,0.011,1,-5.3,13.7,0,2018,4,24,22,12,34.93,0.7313,0.0342,-0.6779,0.0657
-0.01,-0.118,0.017,0.6,-3.5,10,0,2018,4,24,22,12,34.951,0.7315,0.0338,-0.6778,0.0648
-0.005,-0.118,0.017,-0.1,-2.2,6.2,0,2018,4,24,22,12,34.954,0.7319,0.0332,-0.6774,0.0646
0.002,-0.113,0.014,-0.6,-1.2,2.2,0,2018,4,24,22,12,34.992,0.7321,0.0322,-0.6772,0.065
0.002,-0.105,0.015,-1,-0.9,-1.4,0,2018,4,24,22,12,35.012,0.7323,0.0309,-0.6769,0.0659
0,-0.101,0.01,-1.5,-0.7,-4.6,0,2018,4,24,22,12,35.014,0.7325,0.0294,-0.6767,0.0671
0.003,-0.094,0.002,-1.8,-0.4,-7.8,0,2018,4,24,22,12,35.05,0.7327,0.0276,-0.6763,0.0688
0.002,-0.088,-0.006,-1.8,0.1,-10,0,2018,4,24,22,12,35.071,0.733,0.0256,-0.676,0.0707
0.005,-0.076,-0.001,-1.9,0.5,-12.4,0,2018,4,24,22,12,35.078,0.7332,0.0236,-0.6756,0.0729
0.003,-0.062,-0.001,-1.7,1.1,-14.3,0,2018,4,24,22,12,35.113,0.7331,0.0214,-0.6754,0.0753
0.002,-0.052,-0.007,-1.6,1.3,-16,0,2018,4,24,22,12,35.134,0.7332,0.0192,-0.6751,0.078
-0.005,-0.045,-0.005,-1.4,1.5,-17.4,0,2018,4,24,22,12,35.137,0.7332,0.0168,-0.6748,0.0809
-0.006,-0.033,0,-0.9,2.3,-18.6,0,2018,4,24,22,12,35.155,0.7329,0.0146,-0.6748,0.0837
-0.004,-0.024,0,-0.9,3,-19.6,1023,2018,4,24,22,12,35.176,0.7327,0.0124,-0.6748,0.0867
0,-0.013,0.001,-0.6,4.1,-20.2,1023,2018,4,24,22,12,35.213,0.7325,0.0104,-0.6746,0.0898
0,-0.004,-0.001,-0.6,5.1,-20.5,1023,2018,4,24,22,12,35.235,0.7323,0.0086,-0.6745,0.093
-0.002,0.007,0,-0.3,6.1,-20.2,1023,2018,4,24,22,12,35.239,0.7321,0.0068,-0.6742,0.0964
-0.005,0.017,0,-0.2,6.9,-19.7,1023,2018,4,24,22,12,35.276,0.7319,0.0054,-0.674,0.0997
0,0.026,0.006,-0.2,7.4,-18.8,1023,2018,4,24,22,12,35.299,0.7316,0.0042,-0.6738,0.1029
0,0.034,0,0.2,7.7,-17.3,1023,2018,4,24,22,12,35.303,0.7316,0.003,-0.6733,0.1061
0.005,0.04,0.006,0.3,8.2,-15.3,1023,2018,4,24,22,12,35.322,0.7313,0.0025,-0.6732,0.1088
0.009,0.043,0.004,0.2,8.8,-13.1,1023,2018,4,24,22,12,35.339,0.7312,0.0021,-0.6729,0.1115
0.008,0.052,0.001,0.4,9,-10.4,1023,2018,4,24,22,12,35.362,0.7312,0.0021,-0.6725,0.1139
0.003,0.056,-0.003,0.5,8.8,-8,1023,2018,4,24,22,12,35.398,0.7312,0.0024,-0.6721,0.1161
0.011,0.054,0,0.5,8,-5.4,1023,2018,4,24,22,12,35.42,0.7314,0.0029,-0.6716,0.1178
0.011,0.057,0.002,0.4,6.7,-2.7,0,2018,4,24,22,12,35.424,0.7314,0.0037,-0.6714,0.119
0.011,0.056,0.001,0.3,4.9,-0.4,0,2018,4,24,22,12,35.44,0.7316,0.0044,-0.671,0.1198
0.007,0.052,-0.005,0.2,2.7,1.7,0,2018,4,24,22,12,35.458,0.7319,0.0052,-0.6706,0.12
0.009,0.045,-0.009,0.2,0.9,3.6,0,2018,4,24,22,12,35.481,0.7322,0.0059,-0.6703,0.1198
0.005,0.036,-0.009,0.3,-0.4,5.3,0,2018,4,24,22,12,35.5,0.7325,0.0065,-0.6701,0.1192
0.005,0.028,-0.008,0.3,-0.9,7,0,2018,4,24,22,12,35.522,0.7328,0.0072,-0.6699,0.1183
0.001,0.02,-0.011,0.7,-1,8.6,0,2018,4,24,22,12,35.541,0.7331,0.008,-0.6698,0.1172
0,0.013,-0.008,1.2,-1,9.9,0,2018,4,24,22,12,35.564,0.7333,0.0089,-0.6697,0.116
0.005,0.005,-0.008,1.8,-0.6,10.8,0,2018,4,24,22,12,35.6,0.7335,0.0099,-0.6697,0.1147
0.002,0.001,-0.007,2,0.1,11.3,0,2018,4,24,22,12,35.623,0.7336,0.0111,-0.6699,0.1133
0.007,-0.006,-0.003,2.4,0.8,11.6,0,2018,4,24,22,12,35.627,0.7336,0.0125,-0.6701,0.112
0.004,-0.01,-0.004,2.6,1.5,11.7,0,2018,4,24,22,12,35.642,0.7337,0.0138,-0.6702,0.1109
0.006,-0.017,0.004,2.7,1.6,11.6,0,2018,4,24,22,12,35.663,0.7337,0.0152,-0.6703,0.1098
0.004,-0.02,0.001,2.5,1.5,11.4,0,2018,4,24,22,12,35.679,0.7336,0.0167,-0.6705,0.1086
0.007,-0.021,0.005,2.2,0.8,10.6,0,2018,4,24,22,12,35.703,0.7336,0.018,-0.6707,0.1076
0.001,-0.029,0.001,2.1,0,9.7,0,2018,4,24,22,12,35.72,0.7336,0.019,-0.6708,0.1065
-0.002,-0.032,0,1.9,-0.5,8.6,0,2018,4,24,22,12,35.742,0.7336,0.0198,-0.6709,0.1055
-0.007,-0.04,0.001,1.8,-0.6,7.3,0,2018,4,24,22,12,35.762,0.7334,0.0206,-0.6712,0.1046
-0.008,-0.039,0.001,1.7,-0.5,6,0,2018,4,24,22,12,35.784,0.7335,0.0209,-0.6713,0.1041
-0.006,-0.04,-0.003,1.7,-0.5,4.4,0,2018,4,24,22,12,35.802,0.7333,0.0211,-0.6715,0.1036
-0.003,-0.04,0.002,1.8,-0.1,2.7,0,2018,4,24,22,12,35.824,0.733,0.0213,-0.6719,0.1033
0.001,-0.037,0,1.9,-0.1,1,0,2018,4,24,22,12,35.842,0.7328,0.0212,-0.6721,0.1034
0.007,-0.037,-0.004,2,0.4,-0.3,0,2018,4,24,22,12,35.878,0.7325,0.0209,-0.6723,0.1037
0.008,-0.034,-0.004,2.2,1.2,-1.7,0,2018,4,24,22,12,35.898,0.7323,0.0206,-0.6725,0.1043
0.006,-0.03,-0.005,2.4,1.7,-2.7,1023,2018,4,24,22,12,35.905,0.7321,0.0203,-0.6726,0.105
0.005,-0.026,-0.001,2.7,2.1,-3.2,1023,2018,4,24,22,12,35.923,0.7319,0.0199,-0.6728,0.106
0.005,-0.016,-0.001,3,2.3,-3.5,1023,2018,4,24,22,12,35.942,0.7315,0.0195,-0.673,0.1069
0.002,-0.013,-0.005,3.3,2.6,-3.4,1023,2018,4,24,22,12,35.962,0.7311,0.0192,-0.6733,0.1079
0.001,-0.013,-0.01,3.8,2.6,-3.2,1023,2018,4,24,22,12,35.999,0.7305,0.0192,-0.6738,0.1087
0.002,-0.01,-0.008,4.4,3,-3,1023,2018,4,24,22,12,36.023,0.73,0.0191,-0.6742,0.1095
0.005,-0.004,-0.011,4.7,3.1,-2.9,1023,2018,4,24,22,12,36.027,0.7294,0.0192,-0.6748,0.1104
0.006,-0.003,-0.013,5.7,3.5,-3,1023,2018,4,24,22,12,36.047,0.7288,0.0192,-0.6753,0.1113
0.015,-0.004,-0.012,6.5,4.5,-2.8,1023,2018,4,24,22,12,36.065,0.7281,0.0193,-0.6758,0.1123
0.02,0,-0.011,7.1,5.6,-2.5,0,2018,4,24,22,12,36.088,0.7273,0.0196,-0.6765,0.1135
0.024,0.004,-0.012,8.2,6.6,-2.4,0,2018,4,24,22,12,36.103,0.7263,0.0203,-0.6774,0.1145
0.022,0.005,-0.019,8.9,7.6,-1.6,0,2018,4,24,22,12,36.139,0.7252,0.0211,-0.6784,0.1156
0.016,0.007,-0.021,10.1,8.5,-0.7,0,2018,4,24,22,12,36.163,0.724,0.0221,-0.6794,0.1167
0.014,0.01,-0.016,11.5,9.3,0.6,0,2018,4,24,22,12,36.167,0.7227,0.0233,-0.6805,0.1178
0.009,0.011,-0.02,13,10.5,2.4,0,2018,4,24,22,12,36.184,0.7213,0.025,-0.6818,0.1188
0.012,0.008,-0.015,14.6,11.5,4.2,0,2018,4,24,22,12,36.205,0.7195,0.0273,-0.6835,0.1194
0.015,0.001,-0.014,16.2,13.3,5.6,0,2018,4,24,22,12,36.224,0.7176,0.0299,-0.6852,0.1201
0.02,0,-0.011,17.4,16.3,6.8,0,2018,4,24,22,12,36.246,0.7155,0.0331,-0.6871,0.1209
0.028,0,-0.01,18.7,19.2,7.8,0,2018,4,24,22,12,36.265,0.7135,0.0364,-0.6889,0.1222
0.03,-0.006,-0.017,19.5,22.6,8.6,0,2018,4,24,22,12,36.287,0.7112,0.0406,-0.6908,0.1235
0.038,-0.005,-0.005,20.1,24.8,8.5,0,2018,4,24,22,12,36.325,0.7088,0.0448,-0.6926,0.1254
0.045,-0.011,0,20.7,27.3,8,0,2018,4,24,22,12,36.325,0.7063,0.0496,-0.6945,0.1273
0.032,-0.006,0.037,19.9,27.2,6.7,0,2018,4,24,22,12,36.347,0.7038,0.0546,-0.6962,0.1295
0.04,-0.027,-0.038,19.4,29,5.3,0,2018,4,24,22,12,36.363,0.7013,0.0592,-0.6979,0.132
0.043,-0.031,-0.094,20.8,37.7,4.8,0,2018,4,24,22,12,36.384,0.6981,0.0643,-0.7,0.1353
0.034,-0.022,-0.048,21.9,43.5,5.5,0,2018,4,24,22,12,36.419,0.6947,0.0703,-0.702,0.1395
0.046,-0.029,-0.059,21.2,48,5.2,0,2018,4,24,22,12,36.441,0.6913,0.0771,-0.7037,0.1442
0.06,-0.02,-0.079,21.6,54.2,4.1,0,2018,4,24,22,12,36.447,0.6875,0.0846,-0.7055,0.1496
0.052,0.025,-0.026,24,53,1.8,0,2018,4,24,22,12,36.482,0.6835,0.0922,-0.7071,0.1555
0.06,0.039,0,23.6,42.8,2.4,0,2018,4,24,22,12,36.504,0.6799,0.0993,-0.7085,0.1605
0.071,0.02,-0.013,23.6,31.9,1.7,0,2018,4,24,22,12,36.507,0.6764,0.1049,-0.7102,0.164
0.077,0.023,-0.015,24,27,1.4,0,2018,4,24,22,12,36.523,0.6729,0.1096,-0.7122,0.1667
0.082,0.042,-0.02,25.4,19.6,1.8,0,2018,4,24,22,12,36.544,0.6694,0.1138,-0.7144,0.1686
0.081,0.046,-0.038,29,11.4,2.2,0,2018,4,24,22,12,36.58,0.6656,0.1171,-0.7172,0.1693
0.062,0.026,-0.003,30.5,8.3,3.1,0,2018,4,24,22,12,36.601,0.6617,0.1198,-0.7204,0.1692
0.035,0.035,0.05,30.1,6,4.3,1023,2018,4,24,22,12,36.606,0.6581,0.1224,-0.7234,0.1688
0.05,0.035,0.057,29.2,5.2,5.3,1023,2018,4,24,22,12,36.626,0.6549,0.1248,-0.726,0.1682
0.046,0.033,0.062,29.5,3.8,6.6,1023,2018,4,24,22,12,36.649,0.6518,0.1272,-0.7285,0.1673
0.041,0.011,0.053,30.3,4.8,7.8,1023,2018,4,24,22,12,36.685,0.6487,0.1296,-0.7312,0.1662
0.019,0.008,0.061,30.2,9.3,8.8,1023,2018,4,24,22,12,36.706,0.6454,0.1324,-0.7338,0.1655
0.028,0.007,0.071,28.5,12.3,8,1023,2018,4,24,22,12,36.709,0.6422,0.1356,-0.736,0.1654
0.051,0.003,0.051,27.1,12.8,6.1,1023,2018,4,24,22,12,36.746,0.6391,0.1387,-0.738,0.1657
0.049,0.001,0.04,25.8,11.4,4.4,1023,2018,4,24,22,12,36.769,0.636,0.1414,-0.7401,0.1662
0.042,0.023,0.02,24.5,8.9,2,1023,2018,4,24,22,12,36.771,0.6329,0.1437,-0.7422,0.1666
0.03,0.024,0.03,23.2,0.7,-1.3,1023,2018,4,24,22,12,36.805,0.6299,0.1452,-0.7445,0.1666
0.036,0.02,0.06,19.4,-4.9,-2.8,1023,2018,4,24,22,12,36.825,0.6276,0.1454,-0.7465,0.1658
0.052,0.017,0.049,15.8,-3.8,-3.9,0,2018,4,24,22,12,36.827,0.6259,0.1449,-0.7482,0.1652
0.051,0.034,0.021,14.3,-5.4,-3.5,0,2018,4,24,22,12,36.862,0.6243,0.1445,-0.7497,0.1647
0.043,0.036,0.007,13.8,-9.2,-2.6,0,2018,4,24,22,12,36.885,0.6227,0.1439,-0.7514,0.1635
0.052,0.037,-0.009,14,-12.2,-2.2,0,2018,4,24,22,12,36.888,0.6212,0.1431,-0.7532,0.1617
0.05,0.019,-0.012,14.2,-12.5,-1.6,0,2018,4,24,22,12,36.925,0.6196,0.1421,-0.7551,0.1597
0.037,0.013,-0.023,13.5,-7.2,-0.9,0,2018,4,24,22,12,36.947,0.6179,0.1413,-0.757,0.1581
0.031,0.015,-0.033,12.9,-0.6,-0.6,0,2018,4,24,22,12,36.951,0.6161,0.1412,-0.7586,0.1573
0.019,0.008,-0.004,10.5,5.5,-1.3,0,2018,4,24,22,12,36.988,0.6144,0.1418,-0.7599,0.1574
0.013,-0.03,0.006,5.1,17.9,-1.4,0,2018,4,24,22,12,37.009,0.6131,0.1429,-0.7604,0.159
-0.043,-0.114,0.026,-5.3,54,0.4,0,2018,4,24,22,12,37.012,0.6123,0.1459,-0.7594,0.1642
-0.057,-0.09,0.067,-16.5,97.3,1.4,0,2018,4,24,22,12,37.028,0.612,0.1536,-0.7555,0.1757
-0.069,-0.056,0.144,-26.1,109.3,-2.9,0,2018,4,24,22,12,37.049,0.6123,0.164,-0.7495,0.1907
-0.061,0.014,0.168,-30.8,86.8,-9.9,0,2018,4,24,22,12,37.068,0.6136,0.1729,-0.7424,0.2054
-0.009,0.092,0.135,-42.2,11.2,-22.5,0,2018,4,24,22,12,37.088,0.6231,0.1751,-0.7262,0.2316
-0.009,0.1,0.115,-47.1,-0.1,-19.9,0,2018,4,24,22,12,37.124,0.6277,0.1711,-0.7217,0.2358
-0.025,0.097,0.091,-51.3,-11.8,-16.8,0,2018,4,24,22,12,37.147,0.6337,0.1661,-0.7168,0.2385
-0.097,0.027,0.092,-55.4,-26.1,-16.3,0,2018,4,24,22,12,37.149,0.6411,0.16,-0.7113,0.2393
-0.099,-0.011,0.041,-59.3,-37.4,-20.2,0,2018,4,24,22,12,37.185,0.649,0.1515,-0.706,0.2392
-0.12,-0.01,-0.022,-61.3,-45.2,-22.5,0,2018,4,24,22,12,37.206,0.6568,0.1414,-0.7012,0.2383
-0.131,0.045,-0.03,-61.9,-51.1,-23.9,0,2018,4,24,22,12,37.211,0.6645,0.1305,-0.6967,0.2364
-0.124,0.031,-0.039,-61,-44.7,-25.9,0,2018,4,24,22,12,37.247,0.672,0.1194,-0.6921,0.2344
-0.157,-0.003,-0.046,-58.7,-25.3,-28.4,0,2018,4,24,22,12,37.247,0.6787,0.1097,-0.6872,0.2345
-0.201,0,0.019,-58.8,-10.3,-32.4,0,2018,4,24,22,12,37.269,0.6848,0.1018,-0.6814,0.2371
-0.165,0.064,0.012,-60.2,-3.1,-35.8,0,2018,4,24,22,12,37.306,0.6908,0.0948,-0.6748,0.2414
-0.16,0.068,-0.008,-60.9,-8.4,-36.9,0,2018,4,24,22,12,37.329,0.6966,0.0878,-0.6681,0.2458
-0.12,0.07,-0.029,-61.2,-21.6,-39.3,0,2018,4,24,22,12,37.331,0.7024,0.0795,-0.6619,0.2491
-0.142,0.036,-0.066,-61,-32,-40.2,1023,2018,4,24,22,12,37.367,0.7079,0.0693,-0.6564,0.2511
-0.128,0.003,-0.061,-61.6,-34.7,-40.9,1023,2018,4,24,22,12,37.388,0.7131,0.058,-0.6512,0.2526
-0.115,-0.056,-0.092,-62,-29.3,-42.1,1023,2018,4,24,22,12,37.393,0.718,0.0464,-0.6459,0.2548
-0.096,-0.056,-0.11,-61.2,-30.1,-43.9,1023,2018,4,24,22,12,37.43,0.7227,0.0349,-0.6403,0.2574
-0.113,-0.124,-0.14,-57.8,-34,-46.7,1023,2018,4,24,22,12,37.43,0.7272,0.0232,-0.6348,0.2598
-0.078,-0.077,-0.142,-57,-30.9,-45.7,1023,2018,4,24,22,12,37.453,0.7316,0.0112,-0.6291,0.2622
-0.054,-0.107,-0.1,-56.1,-20.5,-44.9,1023,2018,4,24,22,12,37.49,0.7357,0.0003,-0.6231,0.2652
-0.021,-0.141,-0.074,-56.3,-4.9,-43.4,1023,2018,4,24,22,12,37.513,0.7397,-0.0086,-0.6164,0.2695
0.008,-0.112,-0.027,-56.4,11,-41,1023,2018,4,24,22,12,37.517,0.7436,-0.0157,-0.6089,0.2755
0.032,-0.061,0.028,-57,17.7,-37.7,1023,2018,4,24,22,12,37.532,0.7476,-0.0215,-0.6005,0.2826
0.041,-0.026,0.047,-57.7,15.4,-33.8,1023,2018,4,24,22,12,37.568,0.752,-0.0264,-0.5915,0.2894
0.042,0.017,0.065,-59.4,10.1,-28.6,1023,2018,4,24,22,12,37.591,0.7569,-0.0312,-0.5823,0.2949
0.037,0.019,0.042,-60.8,5.7,-23,0,2018,4,24,22,12,37.593,0.7621,-0.036,-0.573,0.299
0.03,0.036,0.02,-59.6,1.8,-18.3,0,2018,4,24,22,12,37.628,0.7674,-0.0406,-0.5641,0.3018
0.001,0.045,-0.002,-56.6,3.4,-14.2,0,2018,4,24,22,12,37.65,0.7725,-0.0449,-0.5558,0.3037
-0.011,0.069,0.011,-53.1,7.8,-11.1,0,2018,4,24,22,12,37.654,0.7774,-0.0479,-0.5477,0.3054
-0.014,0.064,0.023,-48.6,8.5,-7.6,0,2018,4,24,22,12,37.69,0.7821,-0.0498,-0.5399,0.3068
-0.028,0.018,0.032,-42.6,9.4,-5.2,0,2018,4,24,22,12,37.713,0.7864,-0.0514,-0.5329,0.308
-0.041,0.016,0.061,-36.3,14.4,-2.3,0,2018,4,24,22,12,37.716,0.7901,-0.0521,-0.5264,0.3093
-0.062,0.013,0.058,-30.9,15.5,-0.4,0,2018,4,24,22,12,37.753,0.7935,-0.0517,-0.5206,0.3106
-0.079,0.022,0.056,-25.3,10.7,0.4,0,2018,4,24,22,12,37.753,0.7964,-0.051,-0.5158,0.3114
-0.056,0.016,0.025,-20.3,6.9,-0.7,0,2018,4,24,22,12,37.774,0.7987,-0.0509,-0.512,0.3119
-0.044,-0.01,0.009,-16.7,8,-1.3,0,2018,4,24,22,12,37.811,0.8003,-0.0508,-0.509,0.3125
-0.031,-0.024,-0.001,-14.2,14,-2.1,0,2018,4,24,22,12,37.832,0.8016,-0.0504,-0.5063,0.3136
-0.007,-0.021,0.008,-14.1,20.5,-2.9,0,2018,4,24,22,12,37.834,0.8029,-0.0492,-0.5032,0.3156
0.029,-0.024,-0.009,-14.1,30.5,-3.3,0,2018,4,24,22,12,37.872,0.8041,-0.0471,-0.4997,0.3183
0.037,-0.006,-0.032,-13.5,35.2,-3.3,0,2018,4,24,22,12,37.895,0.8053,-0.0437,-0.4958,0.3218
0.038,-0.021,-0.043,-14.2,35.6,-4.3,0,2018,4,24,22,12,37.897,0.8065,-0.0402,-0.4919,0.3254
0.033,-0.018,-0.016,-16.1,39.1,-5.4,0,2018,4,24,22,12,37.933,0.8077,-0.0366,-0.4875,0.3294
0.018,-0.032,-0.006,-18.4,41.6,-6.9,0,2018,4,24,22,12,37.954,0.809,-0.0328,-0.4826,0.3338
0.038,-0.004,-0.008,-20.8,40.4,-7.8,0,2018,4,24,22,12,37.957,0.8104,-0.0291,-0.4771,0.3384
0.048,-0.004,-0.028,-22.4,31.8,-8.9,0,2018,4,24,22,12,37.992,0.8119,-0.0263,-0.4717,0.3427
0.045,-0.028,-0.034,-23.8,26.1,-9.9,0,2018,4,24,22,12,38.015,0.8133,-0.0248,-0.4666,0.3465
0.051,-0.064,-0.017,-25,24.7,-11.6,0,2018,4,24,22,12,38.018,0.8146,-0.0243,-0.4615,0.3503
0.036,-0.081,-0.003,-25.4,21.6,-14.3,0,2018,4,24,22,12,38.035,0.8158,-0.0244,-0.4563,0.3543
0.054,-0.041,-0.021,-24.5,18.6,-15,0,2018,4,24,22,12,38.056,0.8168,-0.0251,-0.4513,0.3583
0.067,-0.043,-0.01,-23,16.4,-15.3,0,2018,4,24,22,12,38.093,0.8176,-0.0261,-0.4466,0.3622
0.091,-0.023,-0.021,-21.2,13,-15.1,1023,2018,4,24,22,12,38.114,0.8184,-0.0273,-0.442,0.3658
0.098,-0.018,-0.014,-19.3,9.8,-14.8,1023,2018,4,24,22,12,38.116,0.8191,-0.0288,-0.4379,0.3692
0.107,-0.008,0.016,-16.6,7.3,-14.3,1023,2018,4,24,22,12,38.153,0.8197,-0.0305,-0.4341,0.3722
0.128,0.019,0.023,-13.5,4.1,-12.2,1023,2018,4,24,22,12,38.174,0.8203,-0.0321,-0.4306,0.3749
0.148,0.02,0.013,-10.7,-0.4,-10.7,1023,2018,4,24,22,12,38.176,0.8208,-0.034,-0.4276,0.377
0.165,0.046,-0.01,-7.2,-4.8,-8.9,1023,2018,4,24,22,12,38.212,0.8212,-0.0362,-0.4253,0.3786
0.183,0.062,0,-4.2,-7,-6.2,1023,2018,4,24,22,12,38.235,0.8212,-0.0382,-0.4243,0.3794
0.14,0.048,0.042,-0.6,-14.6,-4.1,1023,2018,4,24,22,12,38.239,0.8209,-0.0402,-0.4247,0.3794
0.126,0.052,0.094,0.2,-24.9,-2.3,1023,2018,4,24,22,12,38.258,0.8207,-0.0433,-0.4256,0.3785
0.118,-0.023,0.012,6.5,-20.4,-0.2,1023,2018,4,24,22,12,38.276,0.8203,-0.0471,-0.4272,0.3771
0.06,-0.057,-0.005,7.9,-7.1,0.3,1023,2018,4,24,22,12,38.299,0.8196,-0.0493,-0.4288,0.3766
0.042,-0.028,-0.017,8.8,4.2,1.5,1023,2018,4,24,22,12,38.318,0.8189,-0.0495,-0.4298,0.3768
-0.006,-0.014,0.005,7.9,9.3,1.6,0,2018,4,24,22,12,38.34,0.8184,-0.048,-0.4305,0.3773
-0.035,-0.006,0.014,5.1,11.6,0.8,0,2018,4,24,22,12,38.377,0.8181,-0.046,-0.4307,0.378
-0.049,-0.003,0.01,3,11.5,-1,0,2018,4,24,22,12,38.4,0.8179,-0.0439,-0.4306,0.3789
-0.054,-0.002,-0.003,1.7,9.1,-3.3,0,2018,4,24,22,12,38.405,0.8176,-0.0424,-0.4304,0.3799
-0.052,0.01,-0.001,0.7,7.4,-4.7,0,2018,4,24,22,12,38.424,0.8172,-0.0412,-0.4303,0.381
-0.043,0.051,0.01,-0.2,2.3,-4.3,0,2018,4,24,22,12,38.443,0.817,-0.0405,-0.43,0.3818
-0.025,0.076,0.009,-1.6,-8.9,-3.9,0,2018,4,24,22,12,38.479,0.817,-0.0407,-0.43,0.3819
0.001,0.042,-0.033,-1.6,-16.6,-4.1,0,2018,4,24,22,12,38.479,0.8169,-0.0426,-0.4305,0.3813
0.011,0.003,-0.053,0,-15,-3.5,0,2018,4,24,22,12,38.501,0.8165,-0.0452,-0.4317,0.3805
0.022,-0.003,-0.03,1.1,-10.6,-3.1,0,2018,4,24,22,12,38.517,0.816,-0.0474,-0.4327,0.3801
0.025,-0.009,-0.007,1.2,-10,-3,0,2018,4,24,22,12,38.54,0.8156,-0.0492,-0.4335,0.3799
0.029,-0.015,0.01,1.3,-11.6,-2,0,2018,4,24,22,12,38.576,0.8152,-0.0512,-0.4342,0.3796
0.027,-0.02,0.004,1.5,-12.1,-0.8,0,2018,4,24,22,12,38.597,0.8149,-0.0532,-0.4349,0.3791
0.035,-0.032,-0.007,2.3,-11.8,-0.1,0,2018,4,24,22,12,38.6,0.8146,-0.0552,-0.4358,0.3785
0.035,-0.029,-0.02,4.3,-10.3,1,0,2018,4,24,22,12,38.638,0.8142,-0.0571,-0.4369,0.3778
0.016,-0.033,-0.018,5,-6.9,0.9,0,2018,4,24,22,12,38.659,0.8137,-0.0583,-0.4382,0.3772
0.004,-0.024,-0.013,5,-3.9,0,0,2018,4,24,22,12,38.661,0.8132,-0.059,-0.4394,0.3769
-0.001,-0.011,-0.016,4.3,-3.3,-0.7,0,2018,4,24,22,12,38.677,0.8127,-0.0595,-0.4403,0.3768
-0.006,0,-0.018,3.3,-3.4,-1.3,0,2018,4,24,22,12,38.7,0.8122,-0.0599,-0.4412,0.3767
-0.012,0.009,-0.012,2.2,-3.2,-1.8,0,2018,4,24,22,12,38.736,0.8118,-0.0603,-0.4419,0.3767
-0.011,0.013,-0.002,0.6,-3.7,-2.1,0,2018,4,24,22,12,38.757,0.8115,-0.0608,-0.4423,0.3767
-0.01,0.011,0.001,-1.1,-4.6,-2.4,0,2018,4,24,22,12,38.759,0.8114,-0.0615,-0.4425,0.3767
-0.008,0.015,-0.006,-2.1,-5.8,-2.5,0,2018,4,24,22,12,38.797,0.8113,-0.0624,-0.4426,0.3766
-0.008,0.013,-0.004,-2.7,-6.2,-1.9,0,2018,4,24,22,12,38.818,0.8113,-0.0635,-0.4427,0.3763
-0.005,0.014,0.001,-3,-6.8,-1.6,0,2018,4,24,22,12,38.822,0.8114,-0.0646,-0.4426,0.376
-0.005,0.01,0.002,-3.1,-7.3,-1.4,1023,2018,4,24,22,12,38.859,0.8115,-0.0659,-0.4426,0.3756
0,0.007,0.006,-3.2,-7.8,-1.4,1023,2018,4,24,22,12,38.88,0.8116,-0.0673,-0.4425,0.3752
0.007,0.006,0.003,-3.2,-8.3,-1.4,1023,2018,4,24,22,12,38.883,0.8117,-0.0687,-0.4425,0.3748
0.008,0.004,-0.01,-2.7,-8.6,-1.8,1023,2018,4,24,22,12,38.919,0.8118,-0.0703,-0.4425,0.3743
0.01,0.003,-0.016,-1.7,-8.7,-1.8,1023,2018,4,24,22,12,38.939,0.8117,-0.0719,-0.4427,0.3739
0.006,-0.001,-0.017,-0.9,-7.5,-1.8,1023,2018,4,24,22,12,38.942,0.8115,-0.0734,-0.4431,0.3735
0.004,-0.01,-0.007,-0.5,-5.3,-1.6,1023,2018,4,24,22,12,38.978,0.8113,-0.0746,-0.4434,0.3733
0.002,-0.013,-0.014,0,-2.6,-1.6,1023,2018,4,24,22,12,38.999,0.8111,-0.0755,-0.4437,0.3733
0.004,-0.001,-0.008,0,-0.1,-1.6,1023,2018,4,24,22,12,39.003,0.811,-0.0759,-0.4437,0.3734
0.003,0.013,-0.003,0,0.8,-1.1,1023,2018,4,24,22,12,39.04,0.8109,-0.076,-0.4436,0.3737
0.002,0.02,-0.001,0.1,0.1,-0.9,1023,2018,4,24,22,12,39.06,0.8109,-0.0759,-0.4436,0.3739
0,0.015,0.002,-0.1,-1.1,-0.6,0,2018,4,24,22,12,39.062,0.8109,-0.0759,-0.4435,0.3739
0.003,0.009,-0.001,-0.4,-2.5,-0.7,0,2018,4,24,22,12,39.098,0.8109,-0.0762,-0.4435,0.3738
0.005,0.003,-0.004,-0.6,-3.4,-0.7,0,2018,4,24,22,12,39.12,0.8109,-0.0767,-0.4436,0.3737
0.008,0.001,-0.012,-0.7,-3.9,-1,0,2018,4,24,22,12,39.126,0.8108,-0.0774,-0.4437,0.3736
0.008,-0.003,-0.013,-0.4,-3.4,-1.4,0,2018,4,24,22,12,39.163,0.8107,-0.0782,-0.4438,0.3735
0.009,-0.009,-0.01,-0.5,-2.4,-1.7,0,2018,4,24,22,12,39.185,0.8105,-0.079,-0.444,0.3736
0.006,-0.006,-0.01,-0.5,-1.5,-1.8,0,2018,4,24,22,12,39.187,0.8104,-0.0795,-0.444,0.3737
0.005,-0.004,-0.01,-0.9,-1.1,-1.4,0,2018,4,24,22,12,39.201,0.8102,-0.08,-0.444,0.3739
0.009,0,-0.011,-0.8,-1.4,-1.4,0,2018,4,24,22,12,39.222,0.8102,-0.0805,-0.4439,0.374
0.005,0.004,-0.011,-1.1,-1.1,-1.1,0,2018,4,24,22,12,39.26,0.8101,-0.0809,-0.4439,0.3741
0.005,0.007,-0.01,-1,-0.8,-0.8,0,2018,4,24,22,12,39.281,0.8101,-0.0812,-0.4438,0.3742
0.005,0.009,-0.011,-1,-0.6,-0.6,0,2018,4,24,22,12,39.283,0.8102,-0.0814,-0.4436,0.3742
0,0.006,0.001,-0.9,-0.6,-0.7,0,2018,4,24,22,12,39.323,0.8102,-0.0816,-0.4435,0.3742
0.007,0.01,0.004,-1,-1.2,-0.7,0,2018,4,24,22,12,39.344,0.8103,-0.0819,-0.4433,0.3743
0.01,0.004,0,-1,-2,-0.7,0,2018,4,24,22,12,39.346,0.8103,-0.0822,-0.4431,0.3743
0.012,-0.001,-0.005,-0.6,-3.2,-1,0,2018,4,24,22,12,39.381,0.8103,-0.0828,-0.4431,0.3742
0.016,-0.004,-0.013,-0.3,-2.8,-0.8,0,2018,4,24,22,12,39.402,0.8103,-0.0835,-0.4431,0.3741
0.016,-0.002,-0.012,-0.2,-1.5,-0.4,0,2018,4,24,22,12,39.404,0.8102,-0.084,-0.4432,0.3741
0.012,-0.003,-0.008,0,0,0,0,2018,4,24,22,12,39.44,0.8101,-0.0842,-0.4432,0.3742
0.01,-0.002,-0.002,0,0,0,0,2018,4,24,22,12,39.461,0.8101,-0.0843,-0.4431,0.3742
0.01,-0.001,-0.008,-0.3,-0.5,-0.2,0,2018,4,24,22,12,39.463,0.8101,-0.0844,-0.4431,0.3743
0.009,0,-0.002,-0.3,-1,0,0,2018,4,24,22,12,39.497,0.8101,-0.0847,-0.4431,0.3742
0.01,0,-0.008,-0.1,-0.9,0,0,2018,4,24,22,12,39.518,0.8101,-0.0849,-0.4431,0.3742
0.01,0,-0.013,0,0,0,0,2018,4,24,22,12,39.527,0.8101,-0.0851,-0.4431,0.3742
0.009,0,-0.009,0,0,0,0,2018,4,24,22,12,39.563,0.8101,-0.0852,-0.4431,0.3742
0.01,0.004,-0.008,0.5,0.2,-0.3,0,2018,4,24,22,12,39.584,0.81,-0.0852,-0.4431,0.3743
0.01,0.005,-0.007,0,0,0,0,2018,4,24,22,12,39.586,0.81,-0.0852,-0.4431,0.3744
0.006,0.008,-0.006,0.1,-0.5,-0.1,0,2018,4,24,22,12,39.618,0.81,-0.0852,-0.4431,0.3744
0.007,0.006,-0.003,0.4,-0.5,0.1,0,2018,4,24,22,12,39.639,0.8099,-0.0853,-0.4432,0.3744
0.007,0.003,-0.009,0.5,-0.1,0,1023,2018,4,24,22,12,39.651,0.8099,-0.0853,-0.4432,0.3744
0.008,0.004,-0.006,0,0,0,1023,2018,4,24,22,12,39.663,0.8099,-0.0854,-0.4432,0.3744
0.009,0.006,-0.006,0.4,0.2,-0.6,1023,2018,4,24,22,12,39.701,0.8099,-0.0854,-0.4432,0.3744
0.005,0,-0.004,0.3,-0.3,-0.6,1023,2018,4,24,22,12,39.722,0.8098,-0.0855,-0.4433,0.3746
0.004,0.001,-0.004,0.2,-0.8,-0.6,1023,2018,4,24,22,12,39.726,0.8097,-0.0856,-0.4433,0.3746
0.002,0.003,-0.006,0.4,-0.6,-0.3,1023,2018,4,24,22,12,39.763,0.8096,-0.0858,-0.4434,0.3747
0.007,0.005,-0.004,0,0,0,1023,2018,4,24,22,12,39.784,0.8096,-0.0858,-0.4434,0.3747
0.008,0.005,0.001,0,0,0,1023,2018,4,24,22,12,39.786,0.8096,-0.0858,-0.4433,0.3747
0.011,0.008,-0.007,0,0,0,1023,2018,4,24,22,12,39.821,0.8096,-0.0858,-0.4433,0.3747
0.011,0.005,-0.007,-0.1,-0.7,0,1023,2018,4,24,22,12,39.842,0.8097,-0.0859,-0.4432,0.3747
0.009,0.003,-0.007,0,-0.9,0,1023,2018,4,24,22,12,39.848,0.8096,-0.0861,-0.4433,0.3747
0.008,-0.001,-0.004,0,-0.5,-0.1,1023,2018,4,24,22,12,39.889,0.8096,-0.0862,-0.4433,0.3747
0.006,0.003,-0.012,0,0,0,1023,2018,4,24,22,12,39.91,0.8096,-0.0863,-0.4433,0.3747
0.006,0.001,-0.01,-0.1,-0.5,-0.4,0,2018,4,24,22,12,39.912,0.8096,-0.0864,-0.4434,0.3747
0.007,0.003,-0.009,-0.2,-0.5,-0.4,0,2018,4,24,22,12,39.927,0.8095,-0.0865,-0.4433,0.3747
0.006,0,-0.007,-0.3,-0.8,-0.7,0,2018,4,24,22,12,39.948,0.8095,-0.0867,-0.4433,0.3748
0.009,0.007,-0.007,-0.3,-1.2,-0.8,0,2018,4,24,22,12,39.983,0.8095,-0.087,-0.4433,0.3748
0.009,0.005,-0.015,-0.2,-1.1,-0.7,0,2018,4,24,22,12,40.004,0.8094,-0.0872,-0.4434,0.3748
0.01,0.003,-0.013,0,-0.8,-0.3,0,2018,4,24,22,12,40.011,0.8093,-0.0874,-0.4434,0.3749
0.007,0,-0.001,0,-0.5,-0.2,0,2018,4,24,22,12,40.046,0.8093,-0.0876,-0.4434,0.3749
0.008,0,0.001,0,-0.5,-0.2,0,2018,4,24,22,12,40.066,0.8093,-0.0878,-0.4434,0.3749
0.008,0.002,-0.001,0,-0.5,-0.2,0,2018,4,24,22,12,40.07,0.8093,-0.0879,-0.4433,0.3749
0.01,0.006,-0.007,0,0,0,0,2018,4,24,22,12,40.107,0.8093,-0.088,-0.4433,0.3749
0.009,0.007,-0.003,0,0,0,0,2018,4,24,22,12,40.126,0.8093,-0.088,-0.4433,0.375
0.006,0.001,-0.003,0.1,-0.2,-0.5,0,2018,4,24,22,12,40.128,0.8093,-0.088,-0.4433,0.375
0.008,0.003,-0.009,0,-0.7,-0.5,0,2018,4,24,22,12,40.164,0.8092,-0.0882,-0.4433,0.375
0.007,0.001,-0.01,0,-0.7,-0.5,0,2018,4,24,22,12,40.185,0.8092,-0.0884,-0.4434,0.375
0.006,0.003,-0.016,0,-0.9,-0.3,0,2018,4,24,22,12,40.19,0.8091,-0.0886,-0.4435,0.3751
0.005,0.001,-0.006,-0.3,-0.8,-0.4,0,2018,4,24,22,12,40.226,0.8091,-0.0888,-0.4435,0.3751
0.005,0.002,-0.011,-0.4,-0.7,-0.3,0,2018,4,24,22,12,40.247,0.809,-0.089,-0.4435,0.3751
0.01,0.009,-0.011,-0.4,-0.5,-0.7,0,2018,4,24,22,12,40.251,0.809,-0.0891,-0.4435,0.3751
0.009,0.005,-0.005,-0.4,-0.7,-0.5,0,2018,4,24,22,12,40.287,0.809,-0.0893,-0.4434,0.3751
0.006,0.004,-0.006,-0.4,-1.2,-0.4,0,2018,4,24,22,12,40.31,0.809,-0.0895,-0.4434,0.3751
0.004,-0.001,-0.008,-0.4,-1,-0.3,0,2018,4,24,22,12,40.314,0.809,-0.0898,-0.4434,0.3751
0.004,0.004,-0.007,-0.6,-0.8,-0.3,0,2018,4,24,22,12,40.329,0.809,-0.09,-0.4434,0.3751
0.01,0.007,-0.008,-0.7,-0.8,-0.3,0,2018,4,24,22,12,40.364,0.809,-0.0901,-0.4433,0.3751
0.005,0.004,-0.007,-0.9,-0.9,-0.3,0,2018,4,24,22,12,40.385,0.809,-0.0903,-0.4432,0.3751
0.006,0.005,-0.001,-0.9,-1.4,-0.2,0,2018,4,24,22,12,40.389,0.8091,-0.0906,-0.4431,0.375
0.013,0,-0.011,-1.1,-1.7,-0.5,0,2018,4,24,22,12,40.428,0.8091,-0.091,-0.4431,0.3749
0.01,0,-0.007,-0.7,-1.6,-0.5,0,2018,4,24,22,12,40.448,0.8091,-0.0914,-0.443,0.3749
0.011,-0.001,-0.005,-0.7,-0.8,-0.7,0,2018,4,24,22,12,40.452,0.8091,-0.0917,-0.443,0.3749
0.005,-0.001,-0.005,-0.8,-0.5,-0.5,1023,2018,4,24,22,12,40.489,0.8091,-0.092,-0.4429,0.375
0.006,0,-0.004,-0.9,-0.9,-0.5,1023,2018,4,24,22,12,40.512,0.8091,-0.0922,-0.4428,0.375
0.005,0,-0.001,-0.9,-1.2,-0.6,1023,2018,4,24,22,12,40.514,0.8091,-0.0925,-0.4427,0.375
0.014,0.003,-0.005,-1.1,-1.2,-0.7,1023,2018,4,24,22,12,40.55,0.8091,-0.0929,-0.4426,0.375
0.008,0.003,-0.006,-0.9,-1.5,-0.5,1023,2018,4,24,22,12,40.572,0.8091,-0.0932,-0.4426,0.375
0.011,0.001,-0.012,-0.8,-1.3,-0.5,1023,2018,4,24,22,12,40.574,0.8091,-0.0936,-0.4425,0.375
0.007,0.001,-0.01,-0.7,-0.8,-0.5,1023,2018,4,24,22,12,40.608,0.8091,-0.0939,-0.4424,0.375
0.011,0.002,-0.009,-0.7,0,-0.5,1023,2018,4,24,22,12,40.629,0.8091,-0.0941,-0.4423,0.375
0.007,0.006,-0.005,-0.7,-0.1,-0.5,1023,2018,4,24,22,12,40.631,0.8091,-0.0942,-0.4422,0.3751
0.009,0.006,-0.009,-0.8,-0.4,-0.5,1023,2018,4,24,22,12,40.666,0.8092,-0.0943,-0.4421,0.3751
0.008,0.01,-0.008,-0.8,-1.3,-0.5,1023,2018,4,24,22,12,40.687,0.8092,-0.0946,-0.4421,0.3751
0.002,0.003,-0.008,-0.9,-1.5,-0.4,1023,2018,4,24,22,12,40.694,0.8092,-0.0949,-0.4421,0.375
0.004,0,-0.01,-0.9,-0.5,-0.5,0,2018,4,24,22,12,40.729,0.8092,-0.0952,-0.442,0.375
-0.003,0.002,0.002,-1.1,-1.4,-1.1,0,2018,4,24,22,12,40.749,0.8092,-0.0954,-0.4419,0.375
-0.055,-0.019,0.041,-2.4,-3,-1,0,2018,4,24,22,12,40.755,0.8092,-0.0958,-0.4418,0.3749
-0.037,-0.061,0.057,-6.5,1.3,-2.7,0,2018,4,24,22,12,40.79,0.8095,-0.0966,-0.4411,0.375
0.002,0.03,-0.027,-4.6,5.6,-3,0,2018,4,24,22,12,40.811,0.8098,-0.0966,-0.4399,0.3757
0.019,0.041,-0.027,-3.1,-1.6,-3.9,0,2018,4,24,22,12,40.818,0.81,-0.0966,-0.4392,0.3762
0.053,0.032,-0.051,0.1,-6.6,-5,0,2018,4,24,22,12,40.854,0.8097,-0.0976,-0.4392,0.3765
0.061,0.029,-0.028,1.7,-9.7,-4.5,0,2018,4,24,22,12,40.854,0.8092,-0.0992,-0.4398,0.3766
0.068,0.023,-0.016,2.9,-10,-2.6,0,2018,4,24,22,12,40.875,0.8086,-0.1008,-0.4404,0.3765
0.081,0.005,-0.033,4.4,-9.4,-1.1,0,2018,4,24,22,12,40.913,0.8081,-0.1025,-0.4413,0.3763
0.062,-0.015,-0.025,5.7,-6.7,0.6,0,2018,4,24,22,12,40.934,0.8074,-0.1037,-0.4424,0.376
0.052,-0.019,-0.012,6.3,-3,1.3,0,2018,4,24,22,12,40.936,0.8068,-0.1043,-0.4435,0.3758
0.028,-0.007,0.01,5.5,0,1,0,2018,4,24,22,12,40.972,0.8064,-0.1043,-0.4443,0.3758
0.015,0.003,0.023,4.1,0.3,0.2,0,2018,4,24,22,12,40.993,0.8062,-0.104,-0.4447,0.376
0.015,0.032,0.021,3.2,-1.1,-0.9,0,2018,4,24,22,12,40.997,0.806,-0.1037,-0.4449,0.3761
-0.001,0.02,0.009,2.9,-3.6,-3.3,0,2018,4,24,22,12,41.035,0.8057,-0.1039,-0.4453,0.3763
-0.005,0.018,0.015,3.1,-8,-5.8,0,2018,4,24,22,12,41.056,0.8052,-0.1046,-0.4459,0.3765
-0.004,0.015,0,4.1,-12,-7.9,0,2018,4,24,22,12,41.058,0.8043,-0.1062,-0.4469,0.3768
0.01,-0.002,-0.014,5.4,-14.8,-10,0,2018,4,24,22,12,41.074,0.8031,-0.1085,-0.4483,0.3771
0.023,-0.002,-0.022,7.4,-15.3,-11,0,2018,4,24,22,12,41.095,0.8015,-0.1112,-0.4501,0.3775
0.036,-0.002,-0.025,9.7,-16,-10.9,0,2018,4,24,22,12,41.134,0.7997,-0.1139,-0.4521,0.378
0.039,-0.014,-0.026,11.8,-14.3,-9.9,0,2018,4,24,22,12,41.155,0.7977,-0.1166,-0.4545,0.3786
0.056,-0.003,-0.035,14.3,-10.1,-8.7,0,2018,4,24,22,12,41.157,0.7957,-0.1185,-0.4569,0.3794
0.056,0.019,-0.018,16.9,-7.8,-7.3,0,2018,4,24,22,12,41.193,0.7937,-0.1196,-0.4593,0.3803
0.051,0.006,-0.01,19.1,-8.3,-6.4,0,2018,4,24,22,12,41.217,0.7916,-0.1203,-0.4621,0.3811
0.042,0.01,-0.008,21,-7.2,-4.9,0,2018,4,24,22,12,41.222,0.7894,-0.1207,-0.4651,0.3818
0.051,0.009,-0.008,23,-7.6,-3.5,0,2018,4,24,22,12,41.239,0.7872,-0.1207,-0.4683,0.3824
0.042,-0.004,0.01,25.2,-8.7,-2.9,1023,2018,4,24,22,12,41.278,0.7849,-0.1207,-0.4719,0.3829
0.043,0.006,0.008,27.5,-8.4,-2.1,1023,2018,4,24,22,12,41.278,0.7824,-0.1205,-0.4757,0.3832
0.037,0.012,0.015,29.3,-9.6,-1.4,1023,2018,4,24,22,12,41.3,0.7798,-0.1201,-0.4799,0.3835
0.047,0.022,-0.011,31.9,-11.2,-1,1023,2018,4,24,22,12,41.316,0.7769,-0.1197,-0.4845,0.3836
0.028,0.007,-0.01,34.6,-13.8,0.6,1023,2018,4,24,22,12,41.337,0.7738,-0.1193,-0.4898,0.3833
0.025,0,-0.007,37,-14.7,2.2,1023,2018,4,24,22,12,41.374,0.7705,-0.1188,-0.4956,0.3827
0.026,-0.025,-0.001,39.3,-15.8,2.4,1023,2018,4,24,22,12,41.395,0.767,-0.1183,-0.5017,0.3819
0.04,-0.027,0.006,42.3,-18.1,2.6,1023,2018,4,24,22,12,41.398,0.7632,-0.118,-0.5082,0.3812
0.045,-0.037,-0.003,44.9,-18,3.5,1023,2018,4,24,22,12,41.435,0.7589,-0.1177,-0.5151,0.3803
0.021,-0.067,0.004,46.8,-13,6,1023,2018,4,24,22,12,41.456,0.7546,-0.1168,-0.5223,0.3794
-0.012,-0.089,0.022,48.5,-2.2,8.6,1023,2018,4,24,22,12,41.459,0.7504,-0.1145,-0.5291,0.3791
-0.018,-0.064,0.039,50.8,7,12.2,1023,2018,4,24,22,12,41.497,0.7464,-0.1103,-0.5356,0.3792
