ax,ay,az,dpitch,droll,dyaw,heart,time_1,time_2,time_3,time_4,time_5,time_6,w,x,y,z
0.061,0.097,-0.099,23.5,-102.5,95.3,0,2018,4,24,21,49,39.454,0.694,-0.2494,0.0628,0.6724
0.065,0.098,-0.125,26,-82,100.1,0,2018,4,24,21,49,39.477,0.7,-0.2595,0.0467,0.6636
-0.008,0.102,-0.123,29,-79.8,106.7,0,2018,4,24,21,49,39.479,0.7071,-0.2673,0.0295,0.6539
-0.063,0.085,-0.17,30.7,-88.9,111,0,2018,4,24,21,49,39.515,0.714,-0.2755,0.0118,0.6434
-0.12,0.135,-0.233,30.5,-104.4,113.8,0,2018,4,24,21,49,39.537,0.7199,-0.2855,-0.0063,0.6325
-0.164,0.064,-0.183,28.5,-113.6,120.4,0,2018,4,24,21,49,39.543,0.7245,-0.2978,-0.0245,0.621
-0.182,-0.076,-0.053,22.7,-96.6,127.6,0,2018,4,24,21,49,39.558,0.7295,-0.3094,-0.0435,0.6083
-0.133,0.008,-0.135,14,-61.9,132.1,0,2018,4,24,21,49,39.576,0.7365,-0.3173,-0.0602,0.5942
-0.105,0.12,-0.189,12.6,-67.9,134.9,0,2018,4,24,21,49,39.6,0.7427,-0.3251,-0.0715,0.5809
-0.106,0.144,-0.132,11.9,-93.3,139.6,0,2018,4,24,21,49,39.618,0.7476,-0.3353,-0.0846,0.5668
-0.147,-0.159,0.128,0,-74.2,144,0,2018,4,24,21,49,39.638,0.7526,-0.3454,-0.1007,0.5514
-0.027,-0.147,0.103,-15.9,-16.9,141.8,0,2018,4,24,21,49,39.657,0.76,-0.3503,-0.1118,0.5358
0.03,0.066,-0.023,-24.5,12.6,137.8,0,2018,4,24,21,49,39.68,0.7683,-0.3519,-0.1129,0.5225
0.148,0.286,-0.135,-20.3,-7,135.4,0,2018,4,24,21,49,39.718,0.7767,-0.3515,-0.115,0.5097
0.085,0.121,0.104,-14.1,-46.7,132.8,0,2018,4,24,21,49,39.718,0.7819,-0.3541,-0.1235,0.4978
0.138,-0.097,0.223,-15.3,-54.9,122.5,0,2018,4,24,21,49,39.741,0.7843,-0.3601,-0.1316,0.4875
0.174,-0.106,0.111,-17.8,-50.8,101.4,0,2018,4,24,21,49,39.756,0.7858,-0.3665,-0.1385,0.4784
0.271,-0.063,-0.087,-15.8,-39.1,86.1,0,2018,4,24,21,49,39.78,0.7871,-0.3716,-0.1496,0.4689
0.282,0.001,-0.139,0.8,-50.9,73.8,0,2018,4,24,21,49,39.798,0.7877,-0.3748,-0.1603,0.4618
0.219,0.046,-0.068,20.2,-107.7,57.5,0,2018,4,24,21,49,39.835,0.7844,-0.3826,-0.1781,0.4543
0.166,-0.081,-0.084,37.9,-163,38.7,0,2018,4,24,21,49,39.857,0.775,-0.3971,-0.2014,0.4483
0.202,-0.062,-0.087,48.4,-188.5,27.1,0,2018,4,24,21,49,39.862,0.7604,-0.4165,-0.2305,0.4416
0.178,-0.072,-0.096,63.1,-201.9,19.2,0,2018,4,24,21,49,39.879,0.7422,-0.4369,-0.262,0.4352
0.118,-0.269,-0.373,77,-215.2,9.7,0,2018,4,24,21,49,39.902,0.7204,-0.4583,-0.2961,0.428
0.141,-0.465,-0.641,96.6,-182.4,-1.6,1023,2018,4,24,21,49,39.939,0.6965,-0.4774,-0.3306,0.4213
0.074,-0.562,-0.688,110.8,-116.3,-19.4,1023,2018,4,24,21,49,39.961,0.6733,-0.4895,-0.3618,0.4195
-0.097,-0.562,-0.579,114.3,-61.2,-45.2,1023,2018,4,24,21,49,39.964,0.6528,-0.494,-0.387,0.4241
-0.02,-0.422,-0.557,118.5,-63.9,-74.6,1023,2018,4,24,21,49,39.984,0.6318,-0.4959,-0.408,0.4339
0.085,-0.368,-0.635,138.3,-104.4,-100.1,1023,2018,4,24,21,49,40.001,0.6048,-0.5015,-0.4293,0.4453
0.086,-0.276,-0.571,161.6,-127.6,-119.5,1023,2018,4,24,21,49,40.024,0.5703,-0.5095,-0.4532,0.4578
0.089,-0.142,-0.365,176,-109.9,-129.4,1023,2018,4,24,21,49,40.042,0.5321,-0.5161,-0.4767,0.4722
0.051,-0.047,-0.082,175.9,-83.1,-130.2,1023,2018,4,24,21,49,40.059,0.4939,-0.5185,-0.4968,0.4901
0.005,0.046,0.189,164.5,-62,-122.8,1023,2018,4,24,21,49,40.082,0.4572,-0.5174,-0.5117,0.5111
0.006,0.071,0.306,145.1,-63.4,-116.9,0,2018,4,24,21,49,40.101,0.4226,-0.5144,-0.5254,0.5296
0.036,0.048,0.26,124.2,-77.6,-111.5,0,2018,4,24,21,49,40.123,0.3898,-0.5132,-0.5372,0.5441
0.002,-0.067,0.156,110.8,-85.9,-102.3,0,2018,4,24,21,49,40.141,0.357,-0.5132,-0.548,0.5556
-0.065,-0.175,0.094,105,-71.7,-90,0,2018,4,24,21,49,40.165,0.3267,-0.5128,-0.5569,0.5657
-0.057,-0.067,0.115,101.5,-53,-73,0,2018,4,24,21,49,40.201,0.2997,-0.5105,-0.5649,0.5747
-0.3,-0.251,0.194,94.7,-34,-54.4,0,2018,4,24,21,49,40.223,0.277,-0.5069,-0.5702,0.584
-0.45,-0.289,0.246,85.4,10.1,-33.9,0,2018,4,24,21,49,40.228,0.2602,-0.5008,-0.5728,0.5944
-0.575,-0.335,0.289,75.4,46.9,-26.4,0,2018,4,24,21,49,40.244,0.2496,-0.4927,-0.5713,0.607
-0.517,-0.143,0.326,64.2,59.8,-15.1,0,2018,4,24,21,49,40.267,0.2439,-0.4838,-0.5668,0.6204
-0.509,-0.205,0.364,50.5,50.5,-4.8,0,2018,4,24,21,49,40.284,0.241,-0.4755,-0.5628,0.6316
-0.518,-0.099,0.394,32.5,41.3,-4.1,0,2018,4,24,21,49,40.302,0.24,-0.4688,-0.5589,0.6403
-0.353,-0.162,0.265,16.3,8,-6.4,0,2018,4,24,21,49,40.339,0.2382,-0.4656,-0.5573,0.6447
-0.169,-0.043,0.155,3.5,16.5,3.3,0,2018,4,24,21,49,40.361,0.2382,-0.4645,-0.5562,0.6465
-0.103,-0.021,0.101,0,24.6,12.8,0,2018,4,24,21,49,40.365,0.2409,-0.4628,-0.5546,0.6481
-0.049,-0.132,0.101,0.4,42.1,15.5,0,2018,4,24,21,49,40.382,0.2452,-0.4595,-0.5516,0.6514
0.118,-0.235,0.009,-2.3,67.9,11.6,0,2018,4,24,21,49,40.406,0.2508,-0.455,-0.5436,0.6591
0.239,-0.276,-0.071,2.9,91.9,-0.2,0,2018,4,24,21,49,40.423,0.2572,-0.451,-0.5329,0.668
0.295,-0.205,-0.176,10.6,88.1,-16.9,0,2018,4,24,21,49,40.446,0.2632,-0.4469,-0.5217,0.6772
0.369,-0.254,-0.304,17.6,78.3,-40.2,0,2018,4,24,21,49,40.462,0.2653,-0.4442,-0.5102,0.6868
0.339,-0.205,-0.356,25.1,73.2,-63.5,0,2018,4,24,21,49,40.497,0.2638,-0.4431,-0.4979,0.6972
0.111,-0.285,-0.314,28.3,71.9,-87.7,0,2018,4,24,21,49,40.521,0.2589,-0.4434,-0.4843,0.7083
-0.01,-0.164,-0.277,26.6,74.3,-108,0,2018,4,24,21,49,40.526,0.2515,-0.4453,-0.4686,0.7202
-0.025,0.104,-0.234,19.3,54.9,-118.8,0,2018,4,24,21,49,40.542,0.2427,-0.4492,-0.4521,0.7312
-0.095,0.138,-0.267,9.4,21.8,-120.7,0,2018,4,24,21,49,40.565,0.2318,-0.4559,-0.4386,0.7389
-0.21,0.065,-0.27,-0.2,7.9,-115.9,0,2018,4,24,21,49,40.584,0.2203,-0.4641,-0.4277,0.7436
-0.264,0.121,-0.202,-9.4,6.6,-107.5,0,2018,4,24,21,49,40.607,0.2104,-0.4727,-0.4165,0.7474
-0.227,0.267,-0.102,-16.8,-12.8,-97.4,0,2018,4,24,21,49,40.627,0.2015,-0.4811,-0.4055,0.7506
-0.188,0.301,-0.057,-18.2,-61.6,-80.1,0,2018,4,24,21,49,40.646,0.1926,-0.491,-0.4025,0.7481
-0.217,0.249,0.073,-17.2,-101.3,-58.8,0,2018,4,24,21,49,40.669,0.1821,-0.501,-0.4073,0.7415
-0.233,-0.051,0.179,-18.7,-71.9,-39.6,1023,2018,4,24,21,49,40.685,0.1737,-0.5096,-0.4149,0.7334
-0.348,-0.286,0.525,-29.6,14.1,-25.1,1023,2018,4,24,21,49,40.703,0.1741,-0.5157,-0.4153,0.7288
-0.349,-0.138,0.662,-37.9,76.3,-13.9,1023,2018,4,24,21,49,40.724,0.1835,-0.5199,-0.4063,0.7285
-0.257,-0.056,0.646,-45.8,79,-0.8,1023,2018,4,24,21,49,40.761,0.198,-0.5228,-0.394,0.7294
-0.2,-0.138,0.638,-54.2,49.4,9.6,1023,2018,4,24,21,49,40.761,0.2126,-0.5261,-0.3851,0.7277
-0.136,-0.293,0.54,-68.8,41.5,11.1,1023,2018,4,24,21,49,40.784,0.2267,-0.5312,-0.3789,0.723
-0.101,-0.513,0.446,-84.2,74.5,6.9,1023,2018,4,24,21,49,40.822,0.2426,-0.5374,-0.3699,0.7178
-0.087,-0.474,0.387,-96.3,125.7,3,1023,2018,4,24,21,49,40.843,0.2631,-0.5431,-0.3543,0.7142
0.032,-0.427,0.186,-105,154.7,-3.6,1023,2018,4,24,21,49,40.848,0.287,-0.5481,-0.3321,0.7119
0.059,-0.394,0.064,-104.7,182.9,-6.8,1023,2018,4,24,21,49,40.886,0.3129,-0.5515,-0.3053,0.7103
0.004,-0.27,0.006,-104.9,192.3,-16.1,0,2018,4,24,21,49,40.886,0.3396,-0.5528,-0.2751,0.7094
-0.039,-0.271,-0.065,-107,180.1,-22.3,0,2018,4,24,21,49,40.908,0.364,-0.5539,-0.244,0.7078
-0.15,-0.357,-0.161,-110.9,179.6,-23.7,0,2018,4,24,21,49,40.944,0.3869,-0.5548,-0.2132,0.7049
-0.11,-0.291,-0.239,-108.3,214.6,-22.4,0,2018,4,24,21,49,40.966,0.4111,-0.5535,-0.1794,0.7016
-0.012,-0.021,-0.222,-95.2,225.3,-15.3,0,2018,4,24,21,49,40.968,0.4373,-0.5478,-0.1429,0.6986
0.052,0.117,-0.185,-77.4,194.8,-8.5,0,2018,4,24,21,49,41.004,0.4624,-0.5392,-0.1095,0.6952
0.072,0.206,-0.083,-63.6,164.9,2.1,0,2018,4,24,21,49,41.027,0.484,-0.5303,-0.082,0.6911
0.185,0.238,-0.049,-51.8,165.6,17.7,0,2018,4,24,21,49,41.031,0.505,-0.5202,-0.0585,0.6861
0.324,0.393,-0.003,-37.2,176.2,35,0,2018,4,24,21,49,41.05,0.5279,-0.5067,-0.0367,0.6805
0.453,0.455,0.025,-21.5,151.2,47.5,0,2018,4,24,21,49,41.068,0.5512,-0.4913,-0.0181,0.674
0.451,0.449,0.043,-11,103.4,57.7,0,2018,4,24,21,49,41.089,0.5715,-0.4778,-0.0066,0.667
0.434,0.26,0.024,-8.2,87.4,71.2,0,2018,4,24,21,49,41.127,0.5897,-0.4667,-0.001,0.659
0.405,0.073,0.01,-15.9,137.3,90.5,0,2018,4,24,21,49,41.149,0.6104,-0.454,0.0068,0.6489
0.31,0.211,-0.011,-26.1,167.4,106.8,0,2018,4,24,21,49,41.154,0.6361,-0.4371,0.0194,0.6354
0.251,0.32,-0.107,-26.6,119.2,117.1,0,2018,4,24,21,49,41.168,0.6618,-0.4212,0.0299,0.6193
0.16,0.22,-0.05,-28.7,75.9,132.4,0,2018,4,24,21,49,41.186,0.6838,-0.4113,0.0334,0.6016
0.085,0.023,-0.003,-43.5,102.7,152.7,0,2018,4,24,21,49,41.208,0.7051,-0.4042,0.0386,0.5812
-0.018,-0.005,-0.106,-57.8,161.6,172.1,0,2018,4,24,21,49,41.227,0.7297,-0.3942,0.0513,0.5562
-0.078,0.147,-0.189,-62.4,186,189.1,0,2018,4,24,21,49,41.25,0.7586,-0.3776,0.0661,0.5267
-0.168,0.195,-0.225,-59.6,184,209.7,0,2018,4,24,21,49,41.269,0.7889,-0.3578,0.0781,0.4934
-0.306,0.209,-0.211,-57.8,179.1,229.9,0,2018,4,24,21,49,41.289,0.8184,-0.3373,0.0885,0.4565
-0.508,0.201,-0.181,-59,174,248.3,0,2018,4,24,21,49,41.312,0.8461,-0.3183,0.0995,0.4157
-0.605,0.22,-0.16,-58.4,153.7,262.4,0,2018,4,24,21,49,41.329,0.8724,-0.2981,0.1081,0.3717
-0.773,0.292,-0.191,-54.8,122.5,276.6,0,2018,4,24,21,49,41.352,0.8954,-0.2807,0.1161,0.3254
-0.94,0.201,-0.262,-53,92.7,285.6,0,2018,4,24,21,49,41.371,0.915,-0.2668,0.1227,0.2764
-1.018,0.201,-0.323,-46.9,71.8,285.8,0,2018,4,24,21,49,41.39,0.9307,-0.2567,0.1288,0.2261
-0.928,0.158,-0.292,-37.5,63.7,275.5,0,2018,4,24,21,49,41.408,0.9432,-0.248,0.1334,0.1758
-0.782,0.084,-0.311,-32.7,77.4,252.8,0,2018,4,24,21,49,41.43,0.9529,-0.2382,0.1379,0.1271
-0.43,-0.034,-0.335,-17.5,76.8,206.3,0,2018,4,24,21,49,41.449,0.96,-0.226,0.1424,0.0831
-0.178,-0.278,-0.198,-1.4,69.4,137.1,0,2018,4,24,21,49,41.471,0.9647,-0.2132,0.1463,0.049
0.016,0.009,-0.129,14.8,71.8,76.4,1023,2018,4,24,21,49,41.489,0.9677,-0.2004,0.15,0.0266
0.016,0.029,-0.085,13.8,114.3,51.2,1023,2018,4,24,21,49,41.51,0.9696,-0.1886,0.1554,0.0104
-0.051,0.064,-0.159,14.9,182.7,38.6,1023,2018,4,24,21,49,41.547,0.9729,-0.166,0.1604,-0.0057
-0.033,0.005,-0.262,19.3,224.6,37.2,1023,2018,4,24,21,49,41.57,0.9779,-0.128,0.1635,-0.0223
-0.023,0.229,-0.342,31.7,201.2,30.2,1023,2018,4,24,21,49,41.575,0.9816,-0.0881,0.1644,-0.0388
-0.18,0.189,-0.229,46.3,128.1,9.6,1023,2018,4,24,21,49,41.591,0.9833,-0.0608,0.1632,-0.0522
-0.364,-0.236,-0.213,59.8,109.6,-27.7,1023,2018,4,24,21,49,41.611,0.9846,-0.0385,0.1596,-0.0588
-0.365,-0.385,-0.292,73,121.7,-82.2,1023,2018,4,24,21,49,41.65,0.9863,-0.0146,0.1533,-0.0577
-0.619,-0.448,-0.446,96.1,125.5,-138.3,1023,2018,4,24,21,49,41.65,0.9884,0.0117,0.1432,-0.0473
-0.873,-0.272,-0.551,122.6,110.7,-189.4,0,2018,4,24,21,49,41.674,0.9906,0.0383,0.1277,-0.0279
-0.81,0.039,-0.408,146.9,38.1,-228.9,0,2018,4,24,21,49,41.691,0.9927,0.0576,0.1058,0.0002
-0.749,0.104,-0.39,166.2,-68.6,-251.3,0,2018,4,24,21,49,41.729,0.9943,0.0606,0.0789,0.0355
-0.719,-0.2,-0.397,197.9,-172.2,-268.7,0,2018,4,24,21,49,41.729,0.9951,0.0439,0.0437,0.0761
-0.562,-0.562,-0.096,208,-222.9,-270.7,0,2018,4,24,21,49,41.752,0.9927,0.0124,0.0014,0.1196
-0.23,-0.732,0.085,191.5,-180.5,-250.7,0,2018,4,24,21,49,41.789,0.9857,-0.0204,-0.042,0.1615
0.025,-0.779,0.097,178.2,-103.1,-227.9,0,2018,4,24,21,49,41.811,0.9752,-0.0428,-0.0827,0.2005
0.006,-0.576,0.032,165.5,-24.3,-216.1,0,2018,4,24,21,49,41.813,0.9625,-0.0522,-0.1195,0.2375
-0.017,-0.16,0.225,150.3,13,-208.3,0,2018,4,24,21,49,41.848,0.9479,-0.0527,-0.1524,0.2744
0.153,0.12,0.648,139,-9.6,-208.5,0,2018,4,24,21,49,41.871,0.9312,-0.0523,-0.1823,0.3109
0.244,0.08,0.643,114.1,-58.9,-209.7,0,2018,4,24,21,49,41.877,0.9124,-0.0577,-0.2115,0.3453
0.396,-0.011,0.383,92.5,-84.5,-206,0,2018,4,24,21,49,41.89,0.8924,-0.0689,-0.2372,0.3774
0.392,-0.108,0.399,92.8,-94.2,-202.7,0,2018,4,24,21,49,41.913,0.8714,-0.0825,-0.2606,0.4072
0.272,-0.217,0.557,81.7,-84.1,-197.6,0,2018,4,24,21,49,41.931,0.8491,-0.0979,-0.2807,0.4364
0.251,-0.195,0.472,69.7,-91.8,-197.1,0,2018,4,24,21,49,41.954,0.8265,-0.1137,-0.2955,0.4652
0.223,-0.255,0.289,67.8,-102.4,-194.3,0,2018,4,24,21,49,41.989,0.8022,-0.1329,-0.3083,0.4936
0.066,-0.344,0.192,74.3,-100,-197.9,0,2018,4,24,21,49,42.013,0.7753,-0.1526,-0.3217,0.5214
-0.189,-0.293,0.598,74.1,-103.4,-200.8,0,2018,4,24,21,49,42.016,0.7469,-0.1691,-0.3366,0.5477
-0.14,-0.319,0.597,53.6,-99.5,-200.8,0,2018,4,24,21,49,42.053,0.7178,-0.1856,-0.351,0.5717
-0.036,-0.351,0.406,40,-92.6,-202.1,0,2018,4,24,21,49,42.076,0.689,-0.2028,-0.3614,0.5945
0.097,-0.248,0.239,38.7,-91,-203.1,0,2018,4,24,21,49,42.08,0.6588,-0.2218,-0.3676,0.6176
0.13,-0.28,0.048,48.8,-81.9,-197.7,0,2018,4,24,21,49,42.094,0.6278,-0.2412,-0.3716,0.6399
0.107,-0.209,-0.012,69.6,-76.4,-193.1,0,2018,4,24,21,49,42.112,0.5964,-0.2545,-0.3789,0.6602
0.089,-0.139,-0.08,92.3,-80.9,-182.4,0,2018,4,24,21,49,42.135,0.5637,-0.2648,-0.3882,0.6791
0.026,-0.04,-0.217,119.8,-95.4,-168.2,0,2018,4,24,21,49,42.154,0.53,-0.272,-0.401,0.6958
-0.151,-0.098,-0.239,141.5,-106.9,-150.7,0,2018,4,24,21,49,42.172,0.4955,-0.2761,-0.4179,0.7095
-0.306,-0.276,-0.164,149.4,-90.9,-133,0,2018,4,24,21,49,42.196,0.4616,-0.2766,-0.4361,0.7212
-0.475,-0.228,-0.229,149.7,-52.8,-117.6,0,2018,4,24,21,49,42.214,0.4308,-0.2729,-0.4509,0.7324
-0.532,-0.072,-0.13,143.9,-19.2,-103.9,1023,2018,4,24,21,49,42.235,0.4033,-0.2653,-0.4608,0.7446
-0.642,-0.003,-0.118,132.4,-0.8,-92.2,1023,2018,4,24,21,49,42.274,0.3795,-0.2558,-0.4669,0.7566
-0.633,-0.068,-0.098,117.6,5.8,-86.6,1023,2018,4,24,21,49,42.296,0.3585,-0.2467,-0.4703,0.7677
-0.712,-0.014,-0.103,107.3,-13.7,-82.8,1023,2018,4,24,21,49,42.301,0.3389,-0.2392,-0.4738,0.7767
-0.727,-0.049,-0.122,98,-29.5,-75.4,1023,2018,4,24,21,49,42.32,0.3196,-0.2339,-0.4799,0.7827
-0.757,-0.046,-0.069,78.1,2.7,-68.5,1023,2018,4,24,21,49,42.336,0.3033,-0.2293,-0.4838,0.7881
-0.592,0.192,-0.064,56.4,24.3,-61.4,1023,2018,4,24,21,49,42.353,0.2908,-0.2256,-0.4825,0.7947
-0.492,0.29,-0.04,42,25.2,-52.4,1023,2018,4,24,21,49,42.375,0.2817,-0.2229,-0.4785,0.8011
-0.447,0.331,0.045,32.6,-6.1,-37.7,0,2018,4,24,21,49,42.413,0.2744,-0.2217,-0.4772,0.8047
-0.419,0.19,0.121,21.3,-5.4,-19.9,0,2018,4,24,21,49,42.436,0.2694,-0.2215,-0.4787,0.8056
-0.351,0.172,0.069,8.8,9.5,-1.8,0,2018,4,24,21,49,42.441,0.2687,-0.221,-0.4786,0.8061
-0.252,0.22,0.037,0,22.4,14.1,0,2018,4,24,21,49,42.456,0.2718,-0.2199,-0.4765,0.8065
-0.179,0.208,0.076,-5.4,26.7,30.6,0,2018,4,24,21,49,42.479,0.2778,-0.2179,-0.4736,0.8067
-0.155,0.193,0.097,-10.9,22.6,48.2,0,2018,4,24,21,49,42.498,0.2867,-0.2153,-0.4712,0.8058
-0.196,0.165,0.052,-17.5,23.3,62.5,0,2018,4,24,21,49,42.522,0.2983,-0.2123,-0.4693,0.8034
-0.136,0.188,-0.018,-24.9,15,72.6,0,2018,4,24,21,49,42.539,0.3116,-0.2093,-0.4678,0.8001
-0.077,0.125,-0.048,-33,0.7,81.4,0,2018,4,24,21,49,42.557,0.3262,-0.2072,-0.467,0.7952
-0.091,0.015,-0.053,-41.6,-2.3,88.9,0,2018,4,24,21,49,42.575,0.3422,-0.2062,-0.4626,0.7913
-0.095,0,-0.105,-49.8,-9.4,93.7,0,2018,4,24,21,49,42.598,0.3591,-0.2061,-0.4587,0.7861
-0.068,-0.09,-0.227,-57.6,-20.6,93.5,0,2018,4,24,21,49,42.616,0.3764,-0.2073,-0.4598,0.777
0.003,-0.293,-0.323,-60.4,-27.5,84.1,0,2018,4,24,21,49,42.64,0.3929,-0.2102,-0.4622,0.7665
-0.017,-0.316,-0.306,-54.7,-43.4,68.6,0,2018,4,24,21,49,42.657,0.4068,-0.2142,-0.4655,0.7561
0.024,-0.345,-0.284,-44.5,-63.8,50.3,0,2018,4,24,21,49,42.68,0.4166,-0.22,-0.4714,0.7454
0.089,-0.364,-0.287,-34.1,-66.3,35.9,0,2018,4,24,21,49,42.698,0.4226,-0.2263,-0.4789,0.7353
0.102,-0.356,-0.279,-24.1,-50,25.3,0,2018,4,24,21,49,42.721,0.4266,-0.2318,-0.4854,0.727
0.09,-0.259,-0.23,-13.7,-35.5,16.9,0,2018,4,24,21,49,42.739,0.4289,-0.2354,-0.4902,0.7213
0.096,-0.17,-0.154,-4.8,-34.5,8.6,0,2018,4,24,21,49,42.762,0.4294,-0.2377,-0.4944,0.7173
0.087,-0.085,-0.055,4.4,-37.5,5.3,0,2018,4,24,21,49,42.778,0.4281,-0.2398,-0.4989,0.7142
0.086,-0.027,0.011,7.3,-35.8,6.5,0,2018,4,24,21,49,42.796,0.4253,-0.243,-0.4998,0.7142
0.043,0.014,0.018,6.5,-32,10.2,0,2018,4,24,21,49,42.819,0.423,-0.2452,-0.5001,0.7146
0.004,0.099,0.035,2.1,-35.8,13.9,0,2018,4,24,21,49,42.836,0.4216,-0.2468,-0.5001,0.7149
-0.015,0.164,0.051,-3.1,-59.7,18.1,0,2018,4,24,21,49,42.858,0.4209,-0.2489,-0.5038,0.712
-0.037,0.144,0.052,-10.3,-92.2,21.8,0,2018,4,24,21,49,42.896,0.4201,-0.2533,-0.5139,0.7036
0.009,0.056,0.065,-17.4,-112.1,24.9,0,2018,4,24,21,49,42.919,0.4188,-0.2606,-0.5236,0.6945
0.094,-0.146,0.101,-20.3,-100.3,24.2,0,2018,4,24,21,49,42.924,0.4172,-0.2693,-0.5322,0.6856
0.124,-0.26,0.147,-25.5,-59.2,22.5,0,2018,4,24,21,49,42.939,0.4165,-0.2764,-0.5375,0.679
0.107,-0.197,0.144,-28.8,-22.5,19.5,1023,2018,4,24,21,49,42.962,0.4177,-0.281,-0.5376,0.6763
0.106,-0.109,0.13,-30.1,-4.8,15.6,1023,2018,4,24,21,49,42.981,0.4202,-0.2841,-0.534,0.6763
0.132,-0.056,0.133,-28.6,-9.9,10.4,1023,2018,4,24,21,49,43.003,0.4221,-0.2872,-0.5293,0.6774
0.129,-0.071,0.119,-25,-19.2,5.3,1023,2018,4,24,21,49,43.019,0.4225,-0.2913,-0.5258,0.6782
0.118,-0.11,0.103,-24,-17,1.1,1023,2018,4,24,21,49,43.038,0.422,-0.2959,-0.5228,0.6788
0.093,-0.088,0.07,-23.7,-5.8,-0.8,1023,2018,4,24,21,49,43.061,0.4212,-0.2998,-0.5192,0.6804
0.075,-0.047,0.04,-23.3,5,-1.7,1023,2018,4,24,21,49,43.08,0.4208,-0.3031,-0.5143,0.6829
0.065,-0.036,0.055,-20.7,11.3,-2.1,1023,2018,4,24,21,49,43.118,0.4205,-0.3055,-0.5085,0.6864
0.056,-0.017,0.033,-18.6,14.8,-1.9,1023,2018,4,24,21,49,43.142,0.4204,-0.3073,-0.5021,0.6902
0.041,-0.018,0.014,-17.2,19.2,-1.3,0,2018,4,24,21,49,43.146,0.4203,-0.3086,-0.4957,0.6944
0.029,-0.001,-0.01,-15.4,20.5,-0.5,0,2018,4,24,21,49,43.163,0.4202,-0.3095,-0.4891,0.6988
0.006,0.009,-0.008,-13.4,20.5,0.6,0,2018,4,24,21,49,43.18,0.4203,-0.3102,-0.4826,0.7029
-0.046,0.023,-0.019,-12.9,22.8,2.3,0,2018,4,24,21,49,43.201,0.4206,-0.3101,-0.4764,0.7069
-0.078,0.069,-0.048,-14.9,22.3,5,0,2018,4,24,21,49,43.238,0.4217,-0.3098,-0.47,0.7107
-0.093,0.121,-0.061,-18.1,17.2,8.5,0,2018,4,24,21,49,43.26,0.4228,-0.3095,-0.4641,0.714
-0.065,0.13,-0.077,-22,6.3,12.7,0,2018,4,24,21,49,43.263,0.4243,-0.3101,-0.459,0.7162
-0.069,0.103,-0.088,-25.5,3.3,18.1,0,2018,4,24,21,49,43.282,0.4262,-0.3116,-0.455,0.717
-0.088,0.078,-0.084,-29.8,5.3,22.6,0,2018,4,24,21,49,43.299,0.429,-0.3132,-0.4514,0.7169
-0.061,0.07,-0.088,-32.7,4.8,26.4,0,2018,4,24,21,49,43.32,0.4327,-0.3148,-0.4476,0.7164
-0.059,0.015,-0.069,-34.5,5.1,29.2,0,2018,4,24,21,49,43.358,0.4368,-0.3166,-0.444,0.7153
-0.041,0.011,-0.021,-35.6,3,31.7,0,2018,4,24,21,49,43.381,0.441,-0.3182,-0.4408,0.714
-0.012,-0.005,0,-35.6,-0.9,32.4,0,2018,4,24,21,49,43.385,0.4453,-0.3199,-0.4378,0.7124
0.011,-0.016,0.004,-35.3,-5.8,32.1,0,2018,4,24,21,49,43.401,0.4496,-0.3222,-0.4353,0.7102
0.02,-0.031,0.011,-34.2,-6.3,32,0,2018,4,24,21,49,43.424,0.453,-0.3246,-0.4334,0.7081
0.017,-0.055,0.009,-32.1,-4.3,30.3,0,2018,4,24,21,49,43.442,0.4558,-0.3266,-0.4319,0.7063
0.038,-0.044,0.011,-29.8,-2.8,28.9,0,2018,4,24,21,49,43.464,0.4586,-0.3283,-0.4302,0.7047
0.044,-0.037,0,-27.2,-1.4,27.7,0,2018,4,24,21,49,43.479,0.4607,-0.3296,-0.4288,0.7037
0.028,-0.051,-0.01,-24.8,0.2,27.2,0,2018,4,24,21,49,43.518,0.463,-0.3309,-0.4271,0.7025
0.012,-0.021,0,-22,3,27.3,0,2018,4,24,21,49,43.54,0.465,-0.3313,-0.4256,0.7019
-0.01,-0.023,-0.004,-18.8,5.8,26.4,0,2018,4,24,21,49,43.545,0.4665,-0.3309,-0.4245,0.7018
-0.02,-0.006,-0.008,-18.4,9.8,26.9,0,2018,4,24,21,49,43.56,0.4684,-0.3301,-0.4228,0.7019
-0.039,0.029,-0.014,-19.2,10.7,28.6,0,2018,4,24,21,49,43.587,0.4704,-0.3286,-0.4212,0.7022
-0.048,0.046,-0.013,-20.9,8.8,30.8,0,2018,4,24,21,49,43.603,0.4731,-0.3273,-0.4197,0.7019
-0.059,0.059,-0.009,-24.1,8.7,32.9,0,2018,4,24,21,49,43.627,0.4761,-0.3261,-0.418,0.7015
-0.05,0.069,-0.024,-28.1,12.5,35.6,0,2018,4,24,21,49,43.644,0.4796,-0.3249,-0.4162,0.7007
-0.043,0.107,-0.045,-33.1,13.8,40.2,0,2018,4,24,21,49,43.663,0.484,-0.3237,-0.4139,0.6996
-0.04,0.159,-0.072,-37.2,7.5,45,0,2018,4,24,21,49,43.686,0.4889,-0.3233,-0.4115,0.6978
-0.032,0.166,-0.095,-39,-3.3,49.5,1023,2018,4,24,21,49,43.705,0.4942,-0.3238,-0.4105,0.6945
-0.051,0.148,-0.097,-40.2,-7.6,53.9,1023,2018,4,24,21,49,43.722,0.4995,-0.3248,-0.4108,0.69
-0.052,0.13,-0.081,-42.3,-5,60,1023,2018,4,24,21,49,43.746,0.5052,-0.3251,-0.4118,0.6851
-0.034,0.119,-0.101,-42.8,-1.6,66.3,1023,2018,4,24,21,49,43.762,0.5119,-0.325,-0.413,0.6794
-0.01,0.117,-0.125,-42.2,-1.4,74.9,1023,2018,4,24,21,49,43.785,0.5192,-0.3242,-0.4147,0.6732
-0.015,0.096,-0.122,-40.8,-5.8,82.8,1023,2018,4,24,21,49,43.803,0.5271,-0.3228,-0.4173,0.666
-0.05,0.053,-0.078,-41.6,-5.1,90.5,1023,2018,4,24,21,49,43.826,0.5356,-0.3206,-0.4215,0.6576
-0.069,0.006,-0.016,-43.9,3.8,96.7,1023,2018,4,24,21,49,43.843,0.546,-0.317,-0.4252,0.6484
-0.128,-0.041,0.049,-51.4,20.7,104.1,0,2018,4,24,21,49,43.864,0.5583,-0.3114,-0.4275,0.639
-0.142,-0.061,0.044,-59.8,49.2,110,0,2018,4,24,21,49,43.899,0.5736,-0.3032,-0.4283,0.6288
-0.154,0.012,0.014,-67.8,78.3,119.5,0,2018,4,24,21,49,43.923,0.5919,-0.292,-0.4252,0.6193
-0.183,0.044,-0.068,-72.9,109,129.4,0,2018,4,24,21,49,43.928,0.6125,-0.2774,-0.4188,0.6101
-0.184,0.048,-0.082,-76.5,127.4,137.9,0,2018,4,24,21,49,43.945,0.6353,-0.2594,-0.4095,0.601
-0.138,0.035,0.072,-74.2,100.8,138.5,0,2018,4,24,21,49,43.962,0.6579,-0.2411,-0.4,0.5906
-0.115,0.095,0.184,-64,7,134.1,0,2018,4,24,21,49,43.985,0.6767,-0.2294,-0.3968,0.576
-0.156,-0.17,0.138,-60.1,-92.1,125.5,0,2018,4,24,21,49,44.004,0.6897,-0.2294,-0.4047,0.5546
-0.13,-0.316,0.085,-59.8,-149.6,105.3,0,2018,4,24,21,49,44.025,0.6976,-0.2394,-0.4195,0.529
-0.027,-0.422,-0.033,-61.6,-167.3,82.4,0,2018,4,24,21,49,44.063,0.7013,-0.2556,-0.4368,0.5018
0.079,-0.391,-0.079,-59.2,-155.2,61.6,0,2018,4,24,21,49,44.084,0.7021,-0.274,-0.4522,0.4767
0.168,-0.256,-0.077,-52.7,-140.9,44.3,0,2018,4,24,21,49,44.086,0.701,-0.2908,-0.4665,0.454
0.215,-0.216,-0.078,-43.4,-117,29,0,2018,4,24,21,49,44.123,0.6987,-0.3059,-0.4789,0.4345
0.226,-0.189,-0.086,-33.3,-82.4,18.7,0,2018,4,24,21,49,44.145,0.6959,-0.3176,-0.489,0.419
0.24,-0.135,-0.081,-22.2,-45.5,12,0,2018,4,24,21,49,44.146,0.6931,-0.3247,-0.4976,0.4078
0.206,-0.056,-0.069,-12.3,-13.9,7.7,0,2018,4,24,21,49,44.183,0.6908,-0.3275,-0.5047,0.4008
0.192,0.046,-0.074,-4.5,4.3,4.9,0,2018,4,24,21,49,44.183,0.6888,-0.3271,-0.5108,0.3967
0.168,0.159,-0.093,1.3,8.7,4.9,0,2018,4,24,21,49,44.203,0.6871,-0.325,-0.5164,0.3942
0.174,0.191,-0.052,3.9,6.8,7.5,0,2018,4,24,21,49,44.24,0.6851,-0.3226,-0.5224,0.3918
0.206,0.225,-0.028,6.2,7.6,10.2,0,2018,4,24,21,49,44.262,0.6833,-0.3197,-0.5283,0.3892
0.208,0.205,-0.03,6.7,4.8,12.4,0,2018,4,24,21,49,44.267,0.6816,-0.3165,-0.5346,0.3863
0.194,0.181,-0.049,8.1,0.9,12.2,0,2018,4,24,21,49,44.305,0.6795,-0.3136,-0.5412,0.3831
0.2,0.138,-0.008,7.7,-0.5,13.8,0,2018,4,24,21,49,44.329,0.6774,-0.3109,-0.5479,0.3796
0.227,0.092,0.053,7.1,7.5,15.9,0,2018,4,24,21,49,44.333,0.6758,-0.3075,-0.554,0.3762
0.236,0.202,0.012,8.6,17,20.7,0,2018,4,24,21,49,44.367,0.6749,-0.3028,-0.5596,0.3734
0.231,0.277,-0.056,10.2,22.6,29.1,0,2018,4,24,21,49,44.367,0.6746,-0.2964,-0.5652,0.3707
0.19,0.295,-0.08,11,36,42.4,0,2018,4,24,21,49,44.391,0.6755,-0.2876,-0.5707,0.3677
0.145,0.288,-0.074,11.6,50.7,59.2,0,2018,4,24,21,49,44.409,0.678,-0.2755,-0.5756,0.3645
0.09,0.204,-0.068,13.5,59.8,75.1,1023,2018,4,24,21,49,44.426,0.6821,-0.262,-0.5776,0.3636
0.058,0.227,-0.038,19.8,28.4,82.7,1023,2018,4,24,21,49,44.449,0.6862,-0.249,-0.5799,0.3615
0.021,0.137,-0.072,29.2,-27,83.7,1023,2018,4,24,21,49,44.489,0.6877,-0.2402,-0.5864,0.354
-0.007,0.007,-0.066,34.9,-77.2,78,1023,2018,4,24,21,49,44.491,0.6856,-0.2382,-0.5971,0.3414
-0.048,-0.331,-0.013,31.6,-73.3,72.1,1023,2018,4,24,21,49,44.507,0.6815,-0.2397,-0.6091,0.3269
0.006,-0.473,0.048,22.9,-29.3,64.2,1023,2018,4,24,21,49,44.527,0.6786,-0.2391,-0.6181,0.3164
0.053,-0.38,0.063,19.2,-15.6,56,1023,2018,4,24,21,49,44.563,0.6773,-0.236,-0.6237,0.3104
0.042,-0.354,-0.007,21.7,-31.6,46.7,1023,2018,4,24,21,49,44.587,0.6757,-0.2326,-0.6306,0.3025
0.03,-0.468,-0.043,21.2,-20.8,37.4,0,2018,4,24,21,49,44.592,0.6736,-0.2293,-0.638,0.294
0.036,-0.376,-0.014,19.2,1.9,27.2,0,2018,4,24,21,49,44.61,0.6718,-0.2249,-0.6437,0.2889
0.073,-0.242,-0.003,17.8,15.2,18.4,0,2018,4,24,21,49,44.633,0.6704,-0.2198,-0.6478,0.2871
0.083,-0.112,-0.024,17.5,21.4,16.1,0,2018,4,24,21,49,44.65,0.6691,-0.2175,-0.6483,0.2908
0.078,0.029,-0.055,17.3,26.6,23,0,2018,4,24,21,49,44.667,0.6681,-0.214,-0.6487,0.2946
0.091,0.106,-0.09,16.6,31.2,34.6,0,2018,4,24,21,49,44.69,0.668,-0.2085,-0.6492,0.2977
0.065,0.234,-0.101,18.7,1.5,42.7,0,2018,4,24,21,49,44.708,0.6681,-0.2029,-0.6506,0.2982
-0.006,0.205,-0.09,21.4,-34.2,53.1,0,2018,4,24,21,49,44.731,0.6676,-0.1998,-0.6546,0.2927
-0.063,0.087,-0.067,17.1,-20.9,65.3,0,2018,4,24,21,49,44.749,0.6671,-0.1966,-0.6597,0.2845
-0.094,0.077,-0.087,11.4,8.8,78.5,0,2018,4,24,21,49,44.772,0.6687,-0.1886,-0.6638,0.2767
-0.108,0.14,-0.178,10.7,24.1,88.7,0,2018,4,24,21,49,44.79,0.6718,-0.1758,-0.6674,0.2686
-0.164,0.173,-0.169,16.2,34.8,96.2,0,2018,4,24,21,49,44.812,0.6752,-0.1604,-0.6708,0.2611
-0.226,0.194,-0.089,19.6,41.9,98.5,0,2018,4,24,21,49,44.847,0.6784,-0.1432,-0.6741,0.2543
-0.243,0.121,-0.024,17.4,46.2,98.4,0,2018,4,24,21,49,44.847,0.6815,-0.1254,-0.6768,0.2481
-0.262,0.102,-0.051,12.6,49.8,96.2,0,2018,4,24,21,49,44.87,0.6849,-0.1072,-0.6786,0.2424
-0.201,0.139,-0.074,13.3,40.3,91.9,0,2018,4,24,21,49,44.888,0.6881,-0.0901,-0.6798,0.2367
-0.178,0.084,-0.04,14.1,40.2,87.2,0,2018,4,24,21,49,44.908,0.6906,-0.0743,-0.6813,0.2307
-0.138,0.057,-0.051,13.3,56.3,81.4,0,2018,4,24,21,49,44.947,0.6929,-0.0582,-0.682,0.2266
-0.119,0.074,-0.063,14,72.4,77.3,0,2018,4,24,21,49,44.966,0.6949,-0.0404,-0.6816,0.2251
-0.095,0.081,-0.055,18.2,67.3,71.6,0,2018,4,24,21,49,44.972,0.6964,-0.023,-0.6808,0.2255
-0.142,0.042,0,20.8,54.6,64.4,0,2018,4,24,21,49,45.009,0.698,-0.0088,-0.6791,0.2267
-0.117,0.079,-0.03,19,47.6,55.1,0,2018,4,24,21,49,45.032,0.6992,0.0029,-0.6775,0.2279
-0.092,0.089,-0.045,18.3,39.6,46,0,2018,4,24,21,49,45.037,0.6999,0.0128,-0.6763,0.2291
-0.109,0.16,-0.066,20.9,21.8,40,0,2018,4,24,21,49,45.071,0.6994,0.0217,-0.6768,0.2283
-0.116,0.086,-0.043,22.4,1.2,36.5,0,2018,4,24,21,49,45.071,0.6982,0.0278,-0.679,0.225
-0.14,0.101,-0.052,23.5,-2.6,31.4,0,2018,4,24,21,49,45.092,0.6975,0.031,-0.6803,0.2225
-0.164,0.073,-0.099,24.9,-5.6,27.1,0,2018,4,24,21,49,45.109,0.6957,0.0342,-0.6833,0.2186
-0.181,0.101,-0.011,23.2,2.9,22.5,1023,2018,4,24,21,49,45.132,0.6936,0.0373,-0.6862,0.2156
-0.167,0.154,0.056,22.5,1,16.3,1023,2018,4,24,21,49,45.15,0.6915,0.0402,-0.6887,0.2139
-0.137,0.15,0.084,26.7,-14.3,5.6,1023,2018,4,24,21,49,45.173,0.6889,0.0411,-0.6918,0.2121
-0.151,0.066,0.126,27.9,-28.4,-7.1,1023,2018,4,24,21,49,45.191,0.6856,0.0387,-0.6959,0.2098
-0.222,-0.013,0.122,27,-42.2,-22.4,1023,2018,4,24,21,49,45.214,0.6823,0.0327,-0.7,0.208
-0.21,-0.154,0.1,26.1,-36,-39.4,1023,2018,4,24,21,49,45.232,0.6796,0.0224,-0.7026,0.2095
-0.233,-0.061,0.043,31.1,-33.9,-58.7,1023,2018,4,24,21,49,45.256,0.6755,0.0112,-0.7054,0.2138
-0.223,-0.164,0.014,34.7,-34.7,-76.7,1023,2018,4,24,21,49,45.273,0.67,-0.0022,-0.709,0.2196
-0.263,-0.077,0.057,34,-18.4,-90,0,2018,4,24,21,49,45.294,0.6633,-0.0163,-0.7122,0.2288
-0.273,0.052,0.169,32.4,-28,-95.8,0,2018,4,24,21,49,45.331,0.656,-0.0295,-0.7155,0.2381
-0.29,0.025,0.137,33.1,-58,-105.2,0,2018,4,24,21,49,45.331,0.6473,-0.0457,-0.7206,0.244
-0.25,-0.006,0.125,32.3,-70.3,-111.6,0,2018,4,24,21,49,45.354,0.6378,-0.065,-0.7261,0.2481
-0.178,-0.038,0.102,36.9,-84.1,-113.6,0,2018,4,24,21,49,45.372,0.628,-0.0867,-0.7311,0.2517
-0.133,-0.036,0.032,39.6,-92.2,-112.8,0,2018,4,24,21,49,45.395,0.6177,-0.11,-0.7356,0.255
-0.086,-0.06,0.115,34.7,-81.5,-107,0,2018,4,24,21,49,45.413,0.6072,-0.1323,-0.7396,0.2581
-0.086,-0.187,0.096,27.6,-67.3,-104.2,0,2018,4,24,21,49,45.434,0.5976,-0.1534,-0.7418,0.2626
-0.078,-0.114,0.036,23.6,-46.6,-98.8,0,2018,4,24,21,49,45.472,0.5888,-0.1719,-0.7425,0.2689
-0.034,-0.071,-0.006,25.3,-42.2,-93.2,0,2018,4,24,21,49,45.495,0.58,-0.1884,-0.743,0.2755
0.005,-0.073,0.1,22.5,-38,-92.9,0,2018,4,24,21,49,45.499,0.5712,-0.2037,-0.7431,0.2824
0.011,-0.146,0.146,15.8,-35.6,-95.3,0,2018,4,24,21,49,45.515,0.5626,-0.2177,-0.7441,0.2869
0.01,-0.159,0.014,12.6,-34.5,-96.3,0,2018,4,24,21,49,45.538,0.5545,-0.233,-0.7429,0.2935
0.035,-0.198,0.031,9.3,-26.5,-97.6,0,2018,4,24,21,49,45.555,0.5464,-0.2486,-0.7409,0.301
0.05,-0.278,0.094,2.1,-12.5,-102.1,0,2018,4,24,21,49,45.591,0.5389,-0.2633,-0.7378,0.3093
0.043,-0.349,0.159,-5.1,5.4,-109.7,0,2018,4,24,21,49,45.614,0.5328,-0.2759,-0.7343,0.3173
0.014,-0.395,0.143,-13,24.9,-117.2,0,2018,4,24,21,49,45.618,0.5278,-0.2883,-0.7286,0.3275
0.043,-0.339,0.105,-18.6,39.3,-123.3,0,2018,4,24,21,49,45.637,0.524,-0.2999,-0.7208,0.3402
0.05,-0.339,0.085,-22.3,52.3,-129,0,2018,4,24,21,49,45.655,0.5208,-0.3127,-0.709,0.3581
0.023,-0.34,0.092,-26,65.9,-134.6,0,2018,4,24,21,49,45.678,0.5178,-0.3248,-0.6955,0.3774
0.03,-0.325,0.116,-31.2,78.5,-138.5,0,2018,4,24,21,49,45.696,0.5153,-0.3361,-0.6803,0.3981
0.016,-0.355,0.033,-33.1,92.1,-142.2,0,2018,4,24,21,49,45.719,0.5129,-0.3467,-0.6636,0.4196
0.016,-0.369,0.006,-34.2,107.4,-146.2,0,2018,4,24,21,49,45.738,0.5105,-0.3562,-0.6454,0.4424
-0.009,-0.35,-0.032,-37.8,128.8,-147.3,0,2018,4,24,21,49,45.759,0.5085,-0.3639,-0.6254,0.4666
-0.001,-0.252,-0.095,-40.6,143.5,-146.6,0,2018,4,24,21,49,45.776,0.5072,-0.37,-0.6032,0.4917
-0.024,-0.221,-0.206,-41.2,151.6,-146.9,0,2018,4,24,21,49,45.793,0.5064,-0.3735,-0.5812,0.5159
-0.061,-0.289,-0.263,-37.7,147.5,-150,1023,2018,4,24,21,49,45.816,0.5045,-0.376,-0.5595,0.5394
-0.075,-0.234,-0.237,-35.2,148.9,-154,1023,2018,4,24,21,49,45.834,0.5011,-0.3779,-0.5371,0.5634
-0.065,-0.204,-0.264,-34.7,147.1,-157.7,1023,2018,4,24,21,49,45.856,0.4959,-0.3794,-0.5141,0.5879
-0.056,-0.185,-0.303,-33,142.4,-160.8,1023,2018,4,24,21,49,45.894,0.4891,-0.381,-0.4903,0.6124
-0.036,-0.13,-0.302,-30,130.2,-161.1,1023,2018,4,24,21,49,45.916,0.4798,-0.3829,-0.4661,0.6369
-0.057,-0.087,-0.296,-28.3,121.8,-159.5,1023,2018,4,24,21,49,45.92,0.4689,-0.3858,-0.4414,0.6605
-0.126,-0.061,-0.286,-31.3,117,-158,1023,2018,4,24,21,49,45.938,0.4575,-0.3899,-0.4155,0.6825
-0.159,-0.002,-0.287,-34.2,115.1,-153.9,1023,2018,4,24,21,49,45.962,0.447,-0.395,-0.3886,0.7021
-0.172,-0.001,-0.317,-35.2,119.1,-146.4,0,2018,4,24,21,49,45.978,0.4377,-0.4,-0.361,0.7197
-0.206,0.051,-0.329,-36.2,123.5,-138.3,0,2018,4,24,21,49,46.001,0.4308,-0.4038,-0.3328,0.7351
-0.302,0.086,-0.287,-37,119.4,-130.8,0,2018,4,24,21,49,46.017,0.4254,-0.4068,-0.3048,0.7486
-0.38,0.057,-0.244,-36.8,102.6,-126.6,0,2018,4,24,21,49,46.035,0.4206,-0.4095,-0.2787,0.7599
-0.409,0.018,-0.23,-34.9,87.3,-124.1,0,2018,4,24,21,49,46.058,0.415,-0.4128,-0.2549,0.7696
-0.396,-0.021,-0.261,-33.1,81.6,-122.8,0,2018,4,24,21,49,46.076,0.4093,-0.4156,-0.2328,0.7781
-0.43,0.003,-0.296,-30.7,76.8,-121.8,0,2018,4,24,21,49,46.099,0.4031,-0.418,-0.2114,0.786
-0.444,-0.053,-0.266,-27.5,71.5,-123,0,2018,4,24,21,49,46.118,0.3967,-0.42,-0.1907,0.7936
-0.399,-0.066,-0.177,-24.1,69.6,-124.4,0,2018,4,24,21,49,46.141,0.3895,-0.4212,-0.1705,0.801
-0.398,-0.071,-0.213,-21.3,57.3,-128.2,0,2018,4,24,21,49,46.159,0.3816,-0.4222,-0.1513,0.8082
-0.436,-0.049,-0.31,-16.1,44.6,-133.8,0,2018,4,24,21,49,46.198,0.3716,-0.4233,-0.1338,0.8153
-0.355,-0.115,-0.267,-9.2,41.2,-139.9,0,2018,4,24,21,49,46.198,0.3601,-0.4237,-0.1174,0.8227
-0.319,-0.042,-0.216,-3,47.1,-142.1,0,2018,4,24,21,49,46.221,0.348,-0.4228,-0.0997,0.8307
-0.298,0.035,-0.222,0.4,50,-141.4,0,2018,4,24,21,49,46.238,0.3345,-0.4204,-0.0785,0.8397
-0.291,0.137,-0.236,4.8,41.6,-138,0,2018,4,24,21,49,46.259,0.3223,-0.417,-0.0611,0.8476
-0.196,0.239,-0.168,11,32.2,-130.4,0,2018,4,24,21,49,46.276,0.3107,-0.4131,-0.0466,0.8547
-0.179,0.221,-0.101,18.3,29.9,-118.9,0,2018,4,24,21,49,46.299,0.2999,-0.4081,-0.0342,0.8615
-0.168,0.271,-0.071,21.2,36.1,-101.6,0,2018,4,24,21,49,46.318,0.2914,-0.402,-0.0226,0.8676
-0.124,0.334,-0.036,24.1,33.8,-84,0,2018,4,24,21,49,46.34,0.2858,-0.3951,-0.0119,0.8729
-0.158,0.338,0.032,28,21.1,-64.1,0,2018,4,24,21,49,46.359,0.2824,-0.3879,-0.0041,0.8773
-0.18,0.24,0.036,30.4,16.8,-44.6,0,2018,4,24,21,49,46.383,0.2811,-0.3807,0.0005,0.8808
-0.152,0.206,0.103,29,26,-24.1,0,2018,4,24,21,49,46.4,0.2832,-0.3732,0.0044,0.8834
-0.168,0.161,0.091,25.7,41.1,-2.5,0,2018,4,24,21,49,46.422,0.2894,-0.3656,0.0092,0.8845
-0.191,0.133,0.041,23.3,49.3,15.6,0,2018,4,24,21,49,46.438,0.2992,-0.3577,0.0146,0.8844
-0.175,0.067,-0.033,25.7,48.1,29.4,0,2018,4,24,21,49,46.457,0.3114,-0.3497,0.0194,0.8833
-0.157,-0.014,-0.134,30.8,43,38.1,0,2018,4,24,21,49,46.48,0.3239,-0.3411,0.0249,0.882
-0.078,-0.031,-0.189,37.9,44.8,46,1023,2018,4,24,21,49,46.517,0.3363,-0.3321,0.0322,0.8806
-0.064,-0.082,-0.324,46.6,49.3,48.8,1023,2018,4,24,21,49,46.54,0.3511,-0.3217,0.0346,0.8786
-0.09,-0.055,-0.288,54.5,52.3,51.3,1023,2018,4,24,21,49,46.544,0.3666,-0.3097,0.0364,0.8765
-0.084,0.043,-0.245,61.1,47.7,54.1,1023,2018,4,24,21,49,46.562,0.382,-0.2965,0.0375,0.8744
-0.044,0.065,-0.226,64.6,37.4,55.5,1023,2018,4,24,21,49,46.58,0.397,-0.2832,0.0368,0.8722
-0.007,0.087,-0.122,65.4,31.2,58.8,1023,2018,4,24,21,49,46.604,0.4115,-0.2702,0.0344,0.8697
-0.055,0.076,0.027,58.5,27.3,58.7,1023,2018,4,24,21,49,46.62,0.4242,-0.2578,0.0361,0.8672
-0.092,0.074,0.027,48.4,20.9,56.4,1023,2018,4,24,21,49,46.643,0.4367,-0.247,0.0367,0.8642
-0.068,0.072,0.011,38,11,55.4,1023,2018,4,24,21,49,46.662,0.4483,-0.2385,0.0365,0.8606
-0.059,-0.039,0.048,28.7,2.4,55,1023,2018,4,24,21,49,46.685,0.4587,-0.2324,0.0371,0.8568
-0.032,-0.058,0.112,19.6,6.5,54.6,0,2018,4,24,21,49,46.703,0.4689,-0.2282,0.0373,0.8524
-0.027,-0.081,0.138,8.5,22.6,53.9,0,2018,4,24,21,49,46.726,0.4796,-0.2248,0.0368,0.8473
-0.021,-0.077,0.163,-3.6,46.2,57.8,0,2018,4,24,21,49,46.742,0.4913,-0.2214,0.0395,0.8414
-0.026,-0.007,0.137,-13.8,57.9,64.1,0,2018,4,24,21,49,46.761,0.5039,-0.2179,0.0479,0.8344
-0.002,0.053,0.071,-18.1,41.6,68.8,0,2018,4,24,21,49,46.781,0.5161,-0.2158,0.0587,0.8267
0.002,0.05,0.041,-19.2,19,73.3,0,2018,4,24,21,49,46.8,0.528,-0.2162,0.0665,0.8185
-0.052,-0.008,0.021,-20.9,6.3,78,0,2018,4,24,21,49,46.824,0.5395,-0.2186,0.0714,0.8099
-0.037,-0.048,-0.053,-22.5,8.7,81.6,0,2018,4,24,21,49,46.859,0.551,-0.2223,0.0755,0.8007
-0.007,-0.077,-0.12,-22.2,13.9,86.9,0,2018,4,24,21,49,46.881,0.5629,-0.2265,0.0799,0.7907
0.008,-0.024,-0.168,-18.2,11.9,90.4,0,2018,4,24,21,49,46.883,0.5752,-0.2307,0.0847,0.7801
0.001,0.023,-0.189,-15,4.8,93.2,0,2018,4,24,21,49,46.923,0.5879,-0.2341,0.0862,0.7694
-0.04,-0.007,-0.15,-15.8,1.6,96.2,0,2018,4,24,21,49,46.946,0.6002,-0.2384,0.0882,0.7583
-0.032,0.036,-0.161,-18.9,2.3,99.4,0,2018,4,24,21,49,46.95,0.6122,-0.2431,0.0909,0.7468
-0.02,0.102,-0.154,-22.1,-2.4,103.3,0,2018,4,24,21,49,46.964,0.6253,-0.2471,0.0887,0.7348
-0.042,0.083,-0.109,-23.9,-9.1,109.7,0,2018,4,24,21,49,46.982,0.6384,-0.2524,0.086,0.722
-0.042,0.052,-0.067,-27.3,-2.2,115.4,0,2018,4,24,21,49,47.006,0.6505,-0.259,0.0874,0.7085
-0.016,0.158,-0.128,-31.5,3.8,120.3,0,2018,4,24,21,49,47.023,0.6642,-0.2645,0.088,0.6936
-0.018,0.331,-0.242,-29,-19,129.7,0,2018,4,24,21,49,47.046,0.6783,-0.2707,0.0851,0.6776
-0.106,0.155,-0.138,-25.2,-46.8,145.8,0,2018,4,24,21,49,47.065,0.6921,-0.2803,0.0773,0.6606
-0.182,-0.036,-0.06,-29.9,-16.6,159.6,0,2018,4,24,21,49,47.083,0.7062,-0.2909,0.0719,0.6414
-0.139,0.055,-0.118,-37.6,28.5,169.9,0,2018,4,24,21,49,47.107,0.7232,-0.2969,0.0718,0.6193
-0.133,0.176,-0.178,-38,36.8,185,0,2018,4,24,21,49,47.125,0.7425,-0.2993,0.0724,0.5947
-0.131,0.036,-0.078,-28.3,20.5,200.4,0,2018,4,24,21,49,47.149,0.762,-0.3026,0.071,0.568
-0.126,-0.023,-0.039,-20.1,12.7,207.6,0,2018,4,24,21,49,47.164,0.7807,-0.3076,0.0677,0.5396
-0.119,0.094,-0.188,-9.2,-16.9,206.3,0,2018,4,24,21,49,47.182,0.7978,-0.3139,0.0618,0.5109
-0.198,0.146,-0.215,3.5,-95.2,201.3,0,2018,4,24,21,49,47.206,0.8106,-0.3265,0.0501,0.4833
-0.299,-0.286,-0.009,3.7,-134.8,200.2,1023,2018,4,24,21,49,47.242,0.8198,-0.345,0.0284,0.456
-0.249,-0.52,-0.032,-4.1,-110.9,191.7,1023,2018,4,24,21,49,47.265,0.8267,-0.3627,0.0101,0.4298
-0.166,-0.423,-0.095,-10.4,-63.4,179.1,1023,2018,4,24,21,49,47.269,0.8353,-0.371,0.001,0.4054
-0.093,-0.312,0.075,-8.1,-56.1,167.1,1023,2018,4,24,21,49,47.288,0.8446,-0.3752,-0.0047,0.3817
0.045,-0.46,0.198,-12.9,-46.9,150.9,1023,2018,4,24,21,49,47.306,0.8525,-0.3801,-0.0105,0.3585
0.278,-0.433,0.167,-16.2,-18.9,126.4,1023,2018,4,24,21,49,47.329,0.8591,-0.3849,-0.0126,0.3368
0.419,-0.368,0.221,-13.1,-4.2,99,1023,2018,4,24,21,49,47.348,0.8646,-0.3874,-0.0104,0.3195
0.509,-0.331,0.237,-7.4,-5,69.5,1023,2018,4,24,21,49,47.386,0.8694,-0.3881,-0.0093,0.3054
0.471,-0.323,0.237,-0.8,-9.7,38.6,1023,2018,4,24,21,49,47.407,0.873,-0.3879,-0.0086,0.2954
0.365,-0.333,0.181,2.6,-4.4,11.3,1023,2018,4,24,21,49,47.411,0.8738,-0.3897,-0.0064,0.2906
0.192,-0.283,0.108,2.1,7.2,-8.3,0,2018,4,24,21,49,47.431,0.8736,-0.3913,-0.0015,0.289
0.016,-0.221,0.061,-0.8,15.7,-20.5,0,2018,4,24,21,49,47.448,0.8735,-0.391,0.0044,0.2898
-0.076,-0.15,-0.017,-3.2,6.5,-27.6,0,2018,4,24,21,49,47.484,0.8731,-0.3902,0.0121,0.2918
-0.158,-0.078,-0.021,-4.1,-0.8,-29.4,0,2018,4,24,21,49,47.507,0.8728,-0.3884,0.0187,0.2948
-0.159,-0.082,-0.06,-4.1,-6.6,-27.1,0,2018,4,24,21,49,47.511,0.872,-0.3876,0.0253,0.2977
-0.131,0.048,-0.054,-4.5,4.3,-20.7,0,2018,4,24,21,49,47.528,0.8716,-0.3865,0.0322,0.2995
-0.017,0.086,-0.084,-3.3,8.5,-14.4,0,2018,4,24,21,49,47.566,0.8713,-0.3858,0.0404,0.3003
0.05,0.101,-0.111,0.5,12.2,-10.9,0,2018,4,24,21,49,47.566,0.8715,-0.3841,0.0487,0.3007
0.066,0.085,-0.097,6.6,4.8,-12.4,0,2018,4,24,21,49,47.59,0.8727,-0.3797,0.0549,0.3017
0.082,0.015,-0.113,12.5,-1.4,-16.6,0,2018,4,24,21,49,47.627,0.8732,-0.3762,0.0601,0.3038
0.126,-0.003,-0.138,16.1,-1.8,-22.8,0,2018,4,24,21,49,47.651,0.8733,-0.3727,0.0646,0.3068
0.182,0.005,-0.137,16.6,-1.1,-32,0,2018,4,24,21,49,47.655,0.8732,-0.3687,0.0697,0.3108
0.214,0.029,-0.102,19.2,-6.1,-43.8,0,2018,4,24,21,49,47.667,0.8722,-0.3645,0.0755,0.3172
0.216,0.019,-0.062,23.5,-16.2,-56,0,2018,4,24,21,49,47.685,0.8701,-0.3608,0.0812,0.3255
0.207,-0.015,-0.1,30.2,-30.6,-68.8,0,2018,4,24,21,49,47.709,0.8664,-0.3582,0.0861,0.3368
0.17,-0.018,-0.114,35.6,-38.9,-79.4,0,2018,4,24,21,49,47.727,0.8612,-0.3564,0.0906,0.3506
0.172,-0.101,-0.162,41,-43.7,-88.6,0,2018,4,24,21,49,47.749,0.8545,-0.3543,0.0953,0.3675
0.115,-0.101,-0.108,49.5,-54.3,-96.5,0,2018,4,24,21,49,47.768,0.8469,-0.352,0.0987,0.3859
0.011,-0.232,0.033,59.1,-75.5,-104.2,0,2018,4,24,21,49,47.791,0.8367,-0.3524,0.1003,0.4068
-0.095,-0.266,0.074,68.7,-108.3,-111.8,0,2018,4,24,21,49,47.809,0.8244,-0.3539,0.0986,0.4303
-0.091,-0.244,0.004,74.9,-104.4,-113.6,0,2018,4,24,21,49,47.832,0.8106,-0.3562,0.0942,0.455
-0.047,-0.173,-0.051,78.9,-82.6,-116,0,2018,4,24,21,49,47.85,0.7966,-0.3559,0.09,0.4802
-0.026,-0.193,-0.068,82.1,-54.2,-117.1,0,2018,4,24,21,49,47.873,0.7834,-0.3516,0.0865,0.505
-0.056,-0.09,-0.076,83.8,-31.4,-118.4,0,2018,4,24,21,49,47.889,0.7716,-0.3444,0.0823,0.5282
0.028,0.014,-0.169,89,-27.2,-119.7,0,2018,4,24,21,49,47.926,0.7588,-0.3408,0.077,0.5495
0.15,0.036,-0.282,98.2,-38.1,-118.6,0,2018,4,24,21,49,47.948,0.746,-0.3349,0.0691,0.5713
0.131,-0.048,-0.321,109.1,-43.4,-113.9,0,2018,4,24,21,49,47.952,0.7333,-0.3278,0.058,0.5926
0.037,-0.094,-0.312,119.6,-36.6,-112.7,0,2018,4,24,21,49,47.971,0.7193,-0.3205,0.046,0.6144
-0.043,-0.123,-0.249,132.6,-40,-117.7,0,2018,4,24,21,49,48.008,0.7042,-0.3115,0.0332,0.637
-0.104,-0.115,-0.214,143.2,-44.4,-118.9,1023,2018,4,24,21,49,48.031,0.6873,-0.3012,0.0182,0.6606
-0.085,-0.038,-0.208,151.1,-55.5,-114.3,1023,2018,4,24,21,49,48.036,0.6696,-0.29,0.0008,0.6836
-0.12,-0.071,-0.064,150.9,-52.2,-105.3,1023,2018,4,24,21,49,48.069,0.6515,-0.2785,-0.0183,0.7053
-0.193,-0.23,0.111,134.8,-7.3,-95.4,1023,2018,4,24,21,49,48.092,0.6353,-0.2647,-0.0342,0.7246
-0.28,-0.19,0.221,111.8,55.2,-85.8,1023,2018,4,24,21,49,48.097,0.6228,-0.2466,-0.0406,0.7413
-0.371,0.02,0.349,86.6,79.3,-76.9,1023,2018,4,24,21,49,48.111,0.6132,-0.2263,-0.0386,0.7557
-0.35,0.19,0.368,66.2,36,-72.2,1023,2018,4,24,21,49,48.13,0.6036,-0.2102,-0.0363,0.7681
-0.293,0.108,0.283,54.1,-24.5,-64.7,1023,2018,4,24,21,49,48.167,0.5929,-0.2022,-0.0401,0.7783
-0.29,0.075,0.134,45,-58.1,-55.2,1023,2018,4,24,21,49,48.19,0.5822,-0.2004,-0.0491,0.7863
-0.245,-0.257,0.07,30.7,-41,-50.5,1023,2018,4,24,21,49,48.194,0.5718,-0.201,-0.0589,0.7931
-0.199,-0.216,0.145,18.5,9.3,-50.9,0,2018,4,24,21,49,48.211,0.5632,-0.1993,-0.0614,0.7994
-0.162,-0.075,0.129,7.1,15.1,-45.3,0,2018,4,24,21,49,48.232,0.5565,-0.1967,-0.0592,0.805
-0.088,-0.029,0.056,-0.6,24.4,-44.2,0,2018,4,24,21,49,48.27,0.5504,-0.1954,-0.0549,0.8097
-0.056,-0.081,0.066,-9.9,22.7,-47.2,0,2018,4,24,21,49,48.292,0.5439,-0.197,-0.0489,0.8141
-0.111,-0.203,0.095,-18.4,31.2,-50.8,0,2018,4,24,21,49,48.297,0.5378,-0.197,-0.0422,0.8185
-0.111,-0.233,0.054,-25.7,36,-58.7,0,2018,4,24,21,49,48.314,0.5313,-0.1974,-0.0333,0.8231
-0.117,-0.187,0.022,-29.1,39.4,-66.9,0,2018,4,24,21,49,48.337,0.5241,-0.1982,-0.0229,0.8279
-0.11,-0.088,0.066,-33.1,35.8,-74.2,0,2018,4,24,21,49,48.353,0.5157,-0.1995,-0.012,0.8331
-0.089,-0.027,0.106,-33.9,23.2,-77.7,0,2018,4,24,21,49,48.372,0.5059,-0.2034,-0.0012,0.8382
-0.018,0.058,0.063,-33.1,13,-74.2,0,2018,4,24,21,49,48.39,0.4958,-0.2091,0.0085,0.8428
0.016,0.095,-0.001,-29.8,19.7,-69.3,0,2018,4,24,21,49,48.413,0.4863,-0.2146,0.0185,0.8467
-0.001,0.153,0.082,-28.4,32.9,-59.1,0,2018,4,24,21,49,48.451,0.4786,-0.2176,0.0293,0.85
-0.04,0.146,0.18,-31.2,39,-47.3,0,2018,4,24,21,49,48.473,0.4735,-0.2186,0.0396,0.8522
-0.019,0.093,0.05,-36.5,52.6,-35.2,0,2018,4,24,21,49,48.478,0.4707,-0.2198,0.0514,0.8528
-0.008,0.022,-0.113,-36.1,49,-29.7,0,2018,4,24,21,49,48.497,0.4688,-0.2233,0.0661,0.852
0.044,-0.01,-0.073,-32.7,23.7,-31,0,2018,4,24,21,49,48.515,0.4666,-0.2282,0.0782,0.8508
0.058,-0.192,0.033,-29.5,20.4,-34.4,0,2018,4,24,21,49,48.533,0.4639,-0.2321,0.0858,0.8505
0.088,-0.069,0.107,-32.2,62,-35.9,0,2018,4,24,21,49,48.558,0.4618,-0.2338,0.0966,0.85
0.12,-0.004,0.033,-39.1,75.1,-33.5,0,2018,4,24,21,49,48.572,0.4605,-0.2348,0.1139,0.8483
0.029,0.103,0.11,-51.9,88.4,-19.2,0,2018,4,24,21,49,48.591,0.4604,-0.2368,0.1325,0.8451
-0.044,0.377,0.189,-64.2,100.6,-7.4,0,2018,4,24,21,49,48.615,0.4635,-0.2368,0.1528,0.84
0.048,0.183,0.08,-62.3,83.2,-4,0,2018,4,24,21,49,48.633,0.4667,-0.2381,0.1718,0.8341
0.027,0.177,-0.063,-52.7,61.3,6.2,0,2018,4,24,21,49,48.657,0.4708,-0.2397,0.1882,0.8278
0.015,0.217,0.058,-44.9,16.6,6.7,0,2018,4,24,21,49,48.674,0.4742,-0.243,0.1977,0.8227
-0.003,0.141,0.04,-44.5,6.5,12.9,0,2018,4,24,21,49,48.697,0.4768,-0.2483,0.2026,0.8184
0.056,0.159,0.085,-49.5,17,22,0,2018,4,24,21,49,48.716,0.4802,-0.2547,0.2092,0.8127
0.07,0.301,0.123,-53.7,24.3,37,0,2018,4,24,21,49,48.734,0.4859,-0.2605,0.2159,0.8058
0.062,0.276,0.111,-55.6,8.5,46,0,2018,4,24,21,49,48.757,0.4929,-0.2674,0.2215,0.7977
0.074,0.09,0.123,-58.2,13.2,56.9,1023,2018,4,24,21,49,48.779,0.5008,-0.276,0.2259,0.7886
0.135,0.045,0.071,-59.5,51.5,71.9,1023,2018,4,24,21,49,48.795,0.5108,-0.2848,0.2345,0.7764
0.147,0.119,0.015,-59.7,78.6,86.2,1023,2018,4,24,21,49,48.813,0.5242,-0.2909,0.2475,0.761
0.119,0.165,0.024,-54.8,57.4,90,1023,2018,4,24,21,49,48.837,0.5391,-0.2952,0.2586,0.7451
0.127,0.098,0.043,-47.8,26.8,91.5,1023,2018,4,24,21,49,48.853,0.5526,-0.3016,0.2651,0.7302
0.087,-0.074,0.152,-53.4,51.8,102.2,1023,2018,4,24,21,49,48.875,0.5664,-0.3094,0.2706,0.7142
0.13,-0.158,0.13,-68.2,137.4,118.3,1023,2018,4,24,21,49,48.912,0.5846,-0.3118,0.2828,0.6934
0.106,0.016,0.091,-72.8,180.5,134,1023,2018,4,24,21,49,48.935,0.6071,-0.3103,0.3038,0.6653
0.144,0.177,0.064,-70.9,163.3,146.6,0,2018,4,24,21,49,48.94,0.6302,-0.3064,0.3244,0.6353
0.062,0.175,0.051,-71.9,148.9,163.9,0,2018,4,24,21,49,48.958,0.6529,-0.3042,0.3409,0.604
-0.055,0.08,-0.017,-75.8,152.6,183.3,0,2018,4,24,21,49,48.975,0.6755,-0.3042,0.3565,0.5691
-0.204,-0.061,-0.128,-79.1,183.3,205,0,2018,4,24,21,49,48.999,0.6994,-0.3042,0.3724,0.5286
-0.33,0.033,-0.124,-71.7,217.6,222.6,0,2018,4,24,21,49,49.016,0.7259,-0.2977,0.389,0.4826
-0.535,0.152,-0.109,-60.7,193.4,230.1,0,2018,4,24,21,49,49.04,0.7518,-0.2911,0.4028,0.4332
-0.73,0.126,-0.108,-52.2,145.1,231.1,0,2018,4,24,21,49,49.058,0.7745,-0.2857,0.411,0.3866
-0.809,0.155,-0.154,-45.8,106.3,224.7,0,2018,4,24,21,49,49.076,0.7933,-0.2844,0.4148,0.343
-0.689,0.144,-0.256,-32,75.5,210.5,0,2018,4,24,21,49,49.112,0.8087,-0.2851,0.4155,0.3033
-0.562,0.08,-0.236,-19,70.7,201.7,0,2018,4,24,21,49,49.136,0.8218,-0.2858,0.4142,0.2668
-0.387,0.198,-0.148,1.6,73,191.7,0,2018,4,24,21,49,49.14,0.8345,-0.2844,0.4109,0.2318
-0.415,0.091,0.021,10.5,68.7,177,0,2018,4,24,21,49,49.159,0.8463,-0.281,0.4062,0.1991
-0.411,0.068,0.05,11.8,65.5,153.5,0,2018,4,24,21,49,49.177,0.8565,-0.2754,0.4022,0.1691
-0.306,-0.026,-0.045,11.8,43.5,124.6,0,2018,4,24,21,49,49.2,0.8641,-0.2696,0.3998,0.1439
-0.22,-0.059,-0.084,12.6,26.9,93.6,0,2018,4,24,21,49,49.218,0.8693,-0.2646,0.3984,0.1242
-0.148,-0.019,-0.09,14.4,18.8,64.8,0,2018,4,24,21,49,49.242,0.8727,-0.2595,0.3984,0.1101
-0.128,-0.06,-0.113,14.1,24.1,44.4,0,2018,4,24,21,49,49.256,0.8756,-0.2528,0.3992,0.099
-0.11,-0.041,-0.075,14,35.4,28.1,0,2018,4,24,21,49,49.275,0.8779,-0.2463,0.4007,0.0892
-0.11,-0.039,-0.085,16.3,33.4,11,0,2018,4,24,21,49,49.297,0.8799,-0.2393,0.4024,0.0801
-0.147,-0.085,-0.087,21.3,19,-8.3,0,2018,4,24,21,49,49.334,0.8817,-0.2301,0.4045,0.076
-0.22,-0.15,-0.151,31,2.1,-34.8,0,2018,4,24,21,49,49.358,0.8831,-0.2196,0.4071,0.0778
-0.251,-0.221,-0.164,41.9,-5.7,-62.5,0,2018,4,24,21,49,49.363,0.8843,-0.209,0.4085,0.0853
-0.212,-0.233,-0.136,51.8,-7.5,-86.2,0,2018,4,24,21,49,49.378,0.8857,-0.197,0.4088,0.0977
-0.3,-0.262,-0.224,65.8,-8.4,-107.7,0,2018,4,24,21,49,49.401,0.8872,-0.1833,0.4076,0.1141
-0.435,-0.261,-0.364,85.9,-15.8,-130,0,2018,4,24,21,49,49.419,0.8889,-0.1683,0.4038,0.1349
-0.452,-0.244,-0.446,106.9,-12.2,-147.7,0,2018,4,24,21,49,49.443,0.8911,-0.1522,0.3962,0.1601
-0.376,-0.257,-0.422,122.8,20,-153.3,0,2018,4,24,21,49,49.462,0.8939,-0.1318,0.3857,0.1861
-0.273,-0.265,-0.367,138.1,38.8,-157.5,0,2018,4,24,21,49,49.479,0.8974,-0.1066,0.3724,0.211
-0.349,-0.177,-0.353,154.2,37.3,-158.9,1023,2018,4,24,21,49,49.521,0.9006,-0.0804,0.3557,0.2361
-0.351,-0.063,-0.292,165.3,12.2,-160.8,1023,2018,4,24,21,49,49.524,0.9034,-0.0576,0.3341,0.2621
-0.354,-0.17,-0.347,176.6,-17.9,-161.4,1023,2018,4,24,21,49,49.539,0.905,-0.04,0.3091,0.2891
-0.213,-0.106,-0.103,180.2,-35.3,-160.2,1023,2018,4,24,21,49,49.577,0.9048,-0.0285,0.2825,0.3173
-0.061,-0.215,0.121,175.7,-41.5,-160.2,1023,2018,4,24,21,49,49.601,0.9016,-0.0201,0.256,0.3479
-0.091,-0.144,0.222,165.7,-56.2,-161.9,1023,2018,4,24,21,49,49.604,0.8947,-0.0133,0.2287,0.3832
-0.08,-0.077,0.193,155.8,-98.9,-163.6,1023,2018,4,24,21,49,49.62,0.8857,-0.0093,0.1975,0.4199
0.026,-0.139,0.162,153.5,-131,-164.1,1023,2018,4,24,21,49,49.658,0.875,-0.0155,0.1609,0.4562
0.075,-0.277,0.285,154.4,-125.4,-163.5,1023,2018,4,24,21,49,49.68,0.862,-0.0204,0.1243,0.4909
0.073,-0.137,0.293,146.6,-137,-166.1,1023,2018,4,24,21,49,49.685,0.8464,-0.026,0.0869,0.5245
0.057,-0.147,0.312,137.7,-144.5,-161.3,0,2018,4,24,21,49,49.703,0.8286,-0.0347,0.0499,0.5563
-0.006,-0.206,0.336,131.8,-136.4,-160.3,0,2018,4,24,21,49,49.721,0.8093,-0.042,0.0142,0.5856
0.148,-0.088,0.485,128.7,-124.2,-156.4,0,2018,4,24,21,49,49.742,0.7887,-0.0485,-0.0192,0.6125
0.269,-0.156,0.466,117.8,-113.1,-154.7,0,2018,4,24,21,49,49.76,0.7667,-0.0546,-0.0491,0.6377
0.286,-0.169,0.337,108.7,-109.6,-155.1,0,2018,4,24,21,49,49.779,0.7437,-0.0613,-0.0758,0.6612
0.242,-0.21,0.154,108.9,-104.8,-157.5,0,2018,4,24,21,49,49.802,0.7192,-0.0675,-0.1017,0.6839
0.264,-0.139,0.138,116.1,-104.3,-157.1,0,2018,4,24,21,49,49.82,0.6942,-0.0684,-0.1282,0.7048
0.153,-0.238,0.105,121.9,-106.8,-156.9,0,2018,4,24,21,49,49.842,0.668,-0.0696,-0.1554,0.7243
0.055,-0.304,0.104,123.2,-95.5,-156.6,0,2018,4,24,21,49,49.88,0.6408,-0.0705,-0.1819,0.7424
0.003,-0.341,0.024,121.9,-78,-158.7,0,2018,4,24,21,49,49.903,0.6131,-0.0683,-0.2061,0.7595
0.003,-0.262,-0.141,124.6,-65.3,-159.4,0,2018,4,24,21,49,49.908,0.585,-0.0645,-0.2274,0.7757
-0.004,-0.18,-0.229,135.4,-58.4,-155.1,0,2018,4,24,21,49,49.925,0.5563,-0.0586,-0.2477,0.7909
-0.17,-0.244,-0.128,141,-52.4,-151.4,0,2018,4,24,21,49,49.961,0.5272,-0.051,-0.2679,0.8047
-0.288,-0.274,-0.026,134.8,-30.9,-145.7,0,2018,4,24,21,49,49.961,0.4987,-0.042,-0.2853,0.8173
-0.371,-0.224,0.076,116.9,-3.3,-140.6,0,2018,4,24,21,49,49.984,0.4715,-0.0324,-0.2975,0.8295
-0.387,-0.228,-0.073,97.6,18.7,-138.7,0,2018,4,24,21,49,50.002,0.4458,-0.0237,-0.3038,0.8416
-0.356,-0.091,-0.097,91.5,21.8,-135.7,0,2018,4,24,21,49,50.021,0.4212,-0.0159,-0.3068,0.8533
-0.423,-0.041,-0.07,90.2,2.6,-131.1,0,2018,4,24,21,49,50.041,0.3972,-0.0092,-0.3109,0.8633
-0.526,0.003,-0.002,90.4,-10.3,-123.7,0,2018,4,24,21,49,50.079,0.3739,-0.0034,-0.3172,0.8714
-0.575,-0.007,0.069,83.9,-8.2,-110.4,0,2018,4,24,21,49,50.103,0.3525,0.0018,-0.3238,0.8779
-0.596,-0.004,0.176,76,7.7,-91.3,0,2018,4,24,21,49,50.106,0.334,0.0075,-0.3282,0.8835
-0.55,0.059,0.169,63.9,19.4,-73.3,0,2018,4,24,21,49,50.126,0.3192,0.0135,-0.3293,0.8885
-0.502,0.235,0.094,52,4.4,-56.1,0,2018,4,24,21,49,50.143,0.3077,0.0183,-0.3302,0.8921
-0.187,0.509,0.237,38.7,12.5,-28.9,0,2018,4,24,21,49,50.166,0.2999,0.022,-0.331,0.8943
-0.421,0.114,0.664,-9.7,12.9,7.5,0,2018,4,24,21,49,50.182,0.3008,0.0228,-0.3307,0.8941
-0.28,0.709,0.512,-35.6,59.3,33.1,0,2018,4,24,21,49,50.202,0.3069,0.0218,-0.3206,0.8958
-0.267,0.437,0.092,-45.6,-35,46.4,0,2018,4,24,21,49,50.225,0.3177,0.0172,-0.3162,0.8936
-0.082,-0.157,-0.22,-49.8,-11.8,54.7,0,2018,4,24,21,49,50.244,0.33,0.0094,-0.3176,0.8888
-0.043,0.07,-0.297,-42.6,-8.3,72.7,1023,2018,4,24,21,49,50.282,0.3436,0.0025,-0.3135,0.8851
-0.067,-0.243,-0.268,-40.7,18.8,82,1023,2018,4,24,21,49,50.304,0.3592,-0.0009,-0.3104,0.88
-0.013,0.059,-0.019,-46.4,50.4,77.1,1023,2018,4,24,21,49,50.309,0.3747,-0.0026,-0.2995,0.8774
-0.09,-0.011,0.069,-50.1,9.1,71,1023,2018,4,24,21,49,50.325,0.3891,-0.0073,-0.288,0.8749
-0.174,-0.158,-0.09,-53.1,8.1,66.7,1023,2018,4,24,21,49,50.348,0.4027,-0.0122,-0.2831,0.8703
-0.208,-0.104,-0.183,-49.2,7.3,62.6,1023,2018,4,24,21,49,50.366,0.4158,-0.0166,-0.2776,0.8658
-0.268,-0.196,-0.095,-44.5,-4.4,54.9,1023,2018,4,24,21,49,50.39,0.4274,-0.0209,-0.2741,0.8611
-0.258,-0.236,-0.02,-47.3,-2.1,48.6,1023,2018,4,24,21,49,50.407,0.4376,-0.0259,-0.2714,0.8568
-0.208,-0.15,-0.116,-50.3,8.2,46,1023,2018,4,24,21,49,50.43,0.4471,-0.0308,-0.2671,0.853
-0.138,-0.072,-0.138,-51.2,9.6,45,1023,2018,4,24,21,49,50.446,0.4562,-0.0355,-0.262,0.8496
-0.129,-0.038,0.023,-54.5,8.2,45.5,0,2018,4,24,21,49,50.469,0.4654,-0.0405,-0.2567,0.846
-0.02,-0.045,0.089,-62.5,5.7,47.9,0,2018,4,24,21,49,50.485,0.4744,-0.0492,-0.2491,0.8428
0.04,-0.072,0.029,-69.9,9.8,49.6,0,2018,4,24,21,49,50.508,0.4835,-0.0597,-0.2411,0.8393
0.044,0.024,-0.014,-72.7,13.5,54.7,0,2018,4,24,21,49,50.527,0.4931,-0.0705,-0.2315,0.8355
0.079,0.011,-0.035,-74.8,17.1,58.6,0,2018,4,24,21,49,50.545,0.5032,-0.0813,-0.2213,0.8313
0.079,0.051,-0.014,-74.2,16.5,63.1,0,2018,4,24,21,49,50.568,0.5135,-0.0917,-0.2107,0.8267
0.092,0.033,-0.051,-74.4,7.6,68.8,0,2018,4,24,21,49,50.586,0.5241,-0.1025,-0.2011,0.8211
0.03,-0.047,-0.142,-75.2,14.4,76.5,0,2018,4,24,21,49,50.608,0.5356,-0.1134,-0.1922,0.8143
-0.016,-0.023,-0.234,-70.7,11.1,78.8,0,2018,4,24,21,49,50.627,0.5483,-0.1193,-0.1854,0.8066
0.015,-0.087,-0.267,-61.4,0,75.3,0,2018,4,24,21,49,50.65,0.5603,-0.1251,-0.1806,0.7985
0.1,-0.092,-0.407,-46.7,2.5,68.4,0,2018,4,24,21,49,50.666,0.5706,-0.1298,-0.1776,0.7911
0.185,-0.139,-0.293,-29.8,30,61.5,0,2018,4,24,21,49,50.704,0.5802,-0.1297,-0.1729,0.7851
0.207,0.006,-0.282,-9.9,17.7,52,0,2018,4,24,21,49,50.727,0.5879,-0.1272,-0.1692,0.7807
0.245,-0.084,-0.31,5.8,-11.1,42.7,0,2018,4,24,21,49,50.732,0.5928,-0.1253,-0.171,0.7768
0.261,-0.093,-0.317,17.2,-21.4,32.7,0,2018,4,24,21,49,50.748,0.5957,-0.1237,-0.1763,0.7737
0.263,-0.11,-0.29,25.1,-26,20.9,0,2018,4,24,21,49,50.784,0.5966,-0.1217,-0.1833,0.7717
0.222,-0.075,-0.267,30.1,-30,9.9,0,2018,4,24,21,49,50.808,0.5955,-0.1195,-0.1913,0.7709
0.173,-0.059,-0.25,33.2,-33.9,1.3,0,2018,4,24,21,49,50.813,0.5928,-0.1176,-0.2002,0.771
0.14,-0.016,-0.275,35.2,-40.5,-6,0,2018,4,24,21,49,50.83,0.589,-0.116,-0.2096,0.7717
0.168,0.053,-0.299,36.7,-58.5,-12.1,0,2018,4,24,21,49,50.848,0.5839,-0.1156,-0.2207,0.7726
0.226,0.082,-0.295,39.7,-85.6,-15,0,2018,4,24,21,49,50.871,0.5775,-0.1175,-0.235,0.7728
0.223,0.077,-0.276,43.8,-109.3,-14.6,0,2018,4,24,21,49,50.887,0.5702,-0.1215,-0.2532,0.7719
0.17,0.027,-0.257,46.6,-118.6,-12.4,0,2018,4,24,21,49,50.905,0.5625,-0.1267,-0.2739,0.7697
0.073,-0.047,-0.222,47.7,-102.3,-9.7,0,2018,4,24,21,49,50.926,0.5546,-0.1309,-0.2943,0.7672
-0.013,-0.118,-0.148,47.2,-78.6,-9.7,0,2018,4,24,21,49,50.964,0.5473,-0.1326,-0.3116,0.7652
-0.095,-0.13,-0.048,48.5,-70,-9.7,0,2018,4,24,21,49,50.987,0.5402,-0.1326,-0.3267,0.764
-0.179,-0.141,0.025,49.9,-76.5,-8.3,0,2018,4,24,21,49,50.992,0.5332,-0.1324,-0.3418,0.7624
-0.241,-0.149,0.051,49.7,-77.9,-6.6,0,2018,4,24,21,49,51.009,0.5258,-0.1323,-0.3578,0.7602
-0.268,-0.155,0.05,48,-70.1,-5.5,0,2018,4,24,21,49,51.033,0.5188,-0.1318,-0.373,0.7577
-0.27,-0.182,0.086,44.4,-59.4,-5,0,2018,4,24,21,49,51.051,0.5121,-0.1307,-0.3868,0.7556
-0.274,-0.161,0.165,39.4,-40.3,-1.8,1023,2018,4,24,21,49,51.089,0.5064,-0.1288,-0.3981,0.7539
-0.277,-0.153,0.223,32,-18,1.5,1023,2018,4,24,21,49,51.112,0.5022,-0.1256,-0.4059,0.7531
-0.271,-0.114,0.243,21.8,2.3,3.5,1023,2018,4,24,21,49,51.114,0.4992,-0.1214,-0.4102,0.7533
-0.249,-0.049,0.245,12,12.7,5,1023,2018,4,24,21,49,51.128,0.4978,-0.1172,-0.4115,0.7543
-0.197,-0.018,0.229,3.4,13.4,6.8,1023,2018,4,24,21,49,51.164,0.4974,-0.1137,-0.4113,0.7552
-0.147,-0.028,0.222,-3,9.3,8.2,1023,2018,4,24,21,49,51.188,0.4977,-0.1111,-0.4108,0.7556
-0.145,-0.049,0.205,-10.6,5.3,8.3,1023,2018,4,24,21,49,51.192,0.4983,-0.1099,-0.4104,0.7556
-0.113,-0.049,0.163,-17.3,6.3,8.3,1023,2018,4,24,21,49,51.21,0.4995,-0.1096,-0.4096,0.7554
-0.022,-0.032,0.1,-26.7,-2.3,7.1,1023,2018,4,24,21,49,51.247,0.5014,-0.1157,-0.4038,0.7563
0.002,-0.064,0.071,-31.1,-6.9,6,1023,2018,4,24,21,49,51.27,0.5021,-0.1216,-0.4011,0.7564
0.006,-0.092,0.043,-35,-4.8,4.2,0,2018,4,24,21,49,51.274,0.5024,-0.1282,-0.3986,0.7564
-0.005,-0.163,-0.017,-37,4.5,1.6,0,2018,4,24,21,49,51.292,0.5026,-0.1351,-0.3956,0.7566
0.031,-0.196,-0.021,-35.3,18.4,-2.1,0,2018,4,24,21,49,51.31,0.5025,-0.1413,-0.3913,0.7577
0.042,-0.174,-0.014,-31.8,27.9,-6.2,0,2018,4,24,21,49,51.334,0.502,-0.1465,-0.3856,0.7601
0.013,-0.165,-0.045,-28.7,35.3,-12.2,0,2018,4,24,21,49,51.367,0.5007,-0.1508,-0.3789,0.7634
0,-0.106,-0.067,-25.5,40.8,-18.4,0,2018,4,24,21,49,51.39,0.4986,-0.1545,-0.3714,0.7677
0.025,-0.024,-0.079,-21.5,36.8,-24.1,0,2018,4,24,21,49,51.395,0.4956,-0.1581,-0.3637,0.7726
0.038,-0.018,-0.101,-15.9,26.1,-28.6,0,2018,4,24,21,49,51.413,0.4913,-0.1625,-0.3568,0.7777
0.01,-0.011,-0.12,-12,17,-32.5,0,2018,4,24,21,49,51.432,0.4857,-0.1671,-0.3517,0.7825
0.018,0.021,-0.096,-10.6,11.6,-34,0,2018,4,24,21,49,51.45,0.4797,-0.1722,-0.3474,0.787
0.003,-0.01,-0.088,-10.6,8.7,-35.8,0,2018,4,24,21,49,51.472,0.4732,-0.1776,-0.3438,0.7913
0.004,0.002,-0.059,-12.7,9.1,-35,0,2018,4,24,21,49,51.51,0.4667,-0.183,-0.3401,0.7955
-0.011,0.052,-0.001,-16.7,12.1,-33.3,0,2018,4,24,21,49,51.533,0.4609,-0.1883,-0.3355,0.7996
0.058,0.083,0.023,-22.6,12.7,-29.1,0,2018,4,24,21,49,51.538,0.4558,-0.1939,-0.3296,0.8036
0.031,0.057,0.035,-27.8,20.5,-24.7,0,2018,4,24,21,49,51.558,0.452,-0.1999,-0.3226,0.8072
0,0.037,0.06,-34.7,39.6,-19,0,2018,4,24,21,49,51.574,0.4496,-0.2049,-0.3137,0.8107
-0.003,0.045,0.052,-40.9,61.8,-12.4,0,2018,4,24,21,49,51.59,0.4496,-0.2088,-0.3012,0.8145
-0.01,0.119,0.021,-44.7,71.7,-5.7,0,2018,4,24,21,49,51.629,0.4514,-0.2118,-0.2859,0.8182
-0.017,0.167,-0.029,-44.4,65.8,1.4,0,2018,4,24,21,49,51.652,0.4544,-0.2146,-0.2698,0.8213
-0.021,0.156,-0.059,-41.1,46.2,8.2,0,2018,4,24,21,49,51.657,0.4576,-0.218,-0.2563,0.8229
-0.017,0.132,-0.056,-37.2,21.9,12.2,0,2018,4,24,21,49,51.674,0.4605,-0.2225,-0.2467,0.823
0.024,0.016,-0.045,-30.9,1.1,13.5,0,2018,4,24,21,49,51.711,0.4627,-0.2283,-0.2414,0.8218
0.038,-0.066,-0.052,-22.2,-2.4,12.2,0,2018,4,24,21,49,51.735,0.4637,-0.2343,-0.2393,0.8201
0.04,-0.105,-0.057,-14.8,2.3,8.5,0,2018,4,24,21,49,51.737,0.4639,-0.2391,-0.2382,0.8189
0.082,-0.078,-0.053,-7.4,10.2,4.3,0,2018,4,24,21,49,51.756,0.4635,-0.2426,-0.2363,0.8187
0.111,-0.022,-0.041,0.1,11.7,0.5,0,2018,4,24,21,49,51.773,0.4624,-0.2449,-0.2337,0.8194
0.1,0.002,-0.034,6.8,7.1,-1.5,0,2018,4,24,21,49,51.797,0.4604,-0.2464,-0.2315,0.8207
0.059,-0.016,-0.023,11.3,5.8,-2.5,0,2018,4,24,21,49,51.813,0.458,-0.2472,-0.2302,0.8221
0.017,0.004,-0.009,12.1,13.8,-1.9,0,2018,4,24,21,49,51.85,0.4561,-0.247,-0.2287,0.8237
-0.024,0.054,0.007,10.7,22.1,-0.7,0,2018,4,24,21,49,51.873,0.4548,-0.2457,-0.2258,0.8256
-0.049,0.129,0.013,8.1,19.7,2.1,0,2018,4,24,21,49,51.878,0.454,-0.2437,-0.2219,0.8277
-0.079,0.154,0.001,6.9,9.1,6.2,1023,2018,4,24,21,49,51.896,0.4538,-0.2415,-0.2203,0.8289
-0.122,0.137,0.023,2.4,1.2,11.1,1023,2018,4,24,21,49,51.914,0.4542,-0.2397,-0.2208,0.829
-0.14,0.113,0.014,-4.7,0.2,15.4,1023,2018,4,24,21,49,51.937,0.4556,-0.2391,-0.2215,0.8283
-0.183,0.144,-0.015,-11.7,0.1,18.7,1023,2018,4,24,21,49,51.957,0.4579,-0.2394,-0.2218,0.8268
-0.221,0.164,-0.032,-18.6,-5.5,20.4,1023,2018,4,24,21,49,51.993,0.4607,-0.2409,-0.222,0.8248
-0.215,0.167,-0.033,-26.1,-18.1,22.7,1023,2018,4,24,21,49,52.016,0.4633,-0.2439,-0.2232,0.8221
-0.154,0.121,-0.03,-32.2,-29.7,27.1,1023,2018,4,24,21,49,52.021,0.4661,-0.2488,-0.2258,0.8183
-0.087,0.032,-0.04,-35.8,-38.4,32.3,1023,2018,4,24,21,49,52.037,0.4688,-0.2562,-0.2289,0.8136
-0.082,-0.03,-0.061,-37.2,-34,37.1,1023,2018,4,24,21,49,52.059,0.4719,-0.2643,-0.2328,0.8082
-0.105,-0.056,-0.07,-38.6,-25.3,40,0,2018,4,24,21,49,52.076,0.4758,-0.2711,-0.2363,0.8026
-0.112,-0.06,-0.053,-40.2,-17.4,42.4,0,2018,4,24,21,49,52.113,0.4807,-0.2761,-0.2387,0.7972
-0.116,-0.038,-0.022,-41.1,-16.8,44.5,0,2018,4,24,21,49,52.136,0.4861,-0.2806,-0.2405,0.7918
-0.099,-0.011,-0.025,-41.6,-22.2,46.9,0,2018,4,24,21,49,52.141,0.491,-0.2866,-0.2427,0.7859
-0.086,0.001,-0.038,-40.2,-30,50,0,2018,4,24,21,49,52.158,0.4954,-0.2931,-0.246,0.7797
-0.074,0.027,-0.052,-38.1,-37.7,54.6,0,2018,4,24,21,49,52.177,0.5,-0.3,-0.2506,0.7727
-0.064,0.017,-0.076,-36.4,-43.4,59.7,0,2018,4,24,21,49,52.201,0.5042,-0.3069,-0.2569,0.7651
-0.041,0.007,-0.074,-34.7,-44.1,65.8,0,2018,4,24,21,49,52.219,0.5088,-0.3136,-0.2642,0.7568
-0.043,-0.009,-0.036,-35.2,-40,71.4,0,2018,4,24,21,49,52.252,0.5136,-0.3193,-0.2721,0.7484
-0.024,0.011,-0.032,-39.2,-29.7,77.9,0,2018,4,24,21,49,52.273,0.5196,-0.3241,-0.2791,0.7396
0.018,0.004,-0.078,-44.5,-23.4,85.4,0,2018,4,24,21,49,52.279,0.5268,-0.3282,-0.2851,0.7302
0.039,0.032,-0.116,-45.6,-23.3,93.2,0,2018,4,24,21,49,52.295,0.5347,-0.3324,-0.2913,0.7201
0.033,0.051,-0.084,-42.8,-32.6,95.2,0,2018,4,24,21,49,52.333,0.5424,-0.3362,-0.2989,0.7094
0.023,0.016,-0.038,-42.8,-43.1,90.5,0,2018,4,24,21,49,52.357,0.5492,-0.3401,-0.308,0.6983
0.069,0.02,-0.039,-41.2,-52.6,84.9,0,2018,4,24,21,49,52.36,0.5541,-0.3445,-0.3183,0.6876
0.082,0.039,-0.05,-38.8,-74.5,76.7,0,2018,4,24,21,49,52.379,0.5572,-0.3507,-0.3303,0.6762
0.137,0.082,-0.038,-35.3,-93,68.7,0,2018,4,24,21,49,52.396,0.5585,-0.3571,-0.3458,0.6639
0.15,0.122,0.032,-34.6,-101.3,62.3,0,2018,4,24,21,49,52.42,0.5582,-0.3636,-0.3635,0.651
0.162,0.14,0.135,-37.9,-92.4,60.8,0,2018,4,24,21,49,52.455,0.5579,-0.3703,-0.3811,0.6373
0.165,0.092,0.109,-42.7,-71.9,62.4,0,2018,4,24,21,49,52.478,0.5588,-0.3756,-0.3967,0.6237
0.199,0.086,0.043,-46.8,-44.5,68.2,0,2018,4,24,21,49,52.482,0.5618,-0.3786,-0.4098,0.6107
0.224,0.168,0.047,-45.5,-16.7,78,0,2018,4,24,21,49,52.497,0.5677,-0.3782,-0.4203,0.5982
0.202,0.176,0.121,-43.4,10.4,86.7,0,2018,4,24,21,49,52.515,0.5761,-0.3745,-0.4292,0.586
0.182,0.173,0.193,-43,48.9,94.8,0,2018,4,24,21,49,52.538,0.588,-0.3663,-0.4345,0.5754
0.153,0.313,0.2,-43.6,49.9,100.2,0,2018,4,24,21,49,52.556,0.6014,-0.3555,-0.4381,0.5655
0.172,0.269,0.136,-42,31.9,106.4,0,2018,4,24,21,49,52.579,0.6144,-0.3451,-0.4432,0.5539
0.153,0.22,0.103,-41.4,23,116.3,0,2018,4,24,21,49,52.598,0.6273,-0.3354,-0.4497,0.54
0.152,0.101,0.105,-42.8,29.1,127.1,0,2018,4,24,21,49,52.621,0.6408,-0.3247,-0.4566,0.5246
0.132,0.112,0.085,-42.5,-0.5,131.9,0,2018,4,24,21,49,52.639,0.6546,-0.3142,-0.4639,0.5073
0.032,0.025,-0.028,-42.7,-32.4,135,0,2018,4,24,21,49,52.662,0.6656,-0.3091,-0.4735,0.4869
0.056,-0.054,-0.102,-46.9,7,144.6,1023,2018,4,24,21,49,52.682,0.6763,-0.3041,-0.4825,0.4659
0.073,-0.038,-0.166,-43.1,34.7,152.5,1023,2018,4,24,21,49,52.719,0.6911,-0.2905,-0.4886,0.4463
-0.053,0.072,-0.193,-29.6,-22.9,148.8,1023,2018,4,24,21,49,52.74,0.7038,-0.2779,-0.4968,0.4248
-0.193,-0.081,-0.151,-19.3,-56.2,147.2,1023,2018,4,24,21,49,52.745,0.7121,-0.2711,-0.5097,0.3993
-0.245,-0.133,-0.09,-22.3,-25.7,151.1,1023,2018,4,24,21,49,52.76,0.7196,-0.2639,-0.5222,0.3738
-0.208,-0.178,-0.178,-24.1,15.2,158.3,1023,2018,4,24,21,49,52.797,0.7297,-0.25,-0.5305,0.3512
-0.256,-0.097,-0.279,-13,-1.9,154.6,1023,2018,4,24,21,49,52.82,0.7388,-0.2353,-0.5388,0.3292
-0.358,-0.261,-0.283,-0.4,30.2,152.5,0,2018,4,24,21,49,52.824,0.746,-0.2197,-0.5478,0.3081
-0.344,-0.162,-0.127,6.5,83.5,147.8,0,2018,4,24,21,49,52.84,0.7536,-0.197,-0.5543,0.2929
-0.298,-0.031,-0.11,12.2,117.7,142.5,0,2018,4,24,21,49,52.863,0.7615,-0.1687,-0.5581,0.2829
-0.271,0.001,-0.17,23.7,117.9,133.5,0,2018,4,24,21,49,52.879,0.7679,-0.1383,-0.5613,0.2756
-0.268,-0.028,-0.116,36.5,125,123.6,0,2018,4,24,21,49,52.902,0.7718,-0.1079,-0.5654,0.2699
-0.287,-0.082,-0.013,34.9,158.4,111.5,0,2018,4,24,21,49,52.92,0.7746,-0.0751,-0.5678,0.2679
-0.197,0.035,-0.112,33.3,183.9,93.1,0,2018,4,24,21,49,52.943,0.7765,-0.0399,-0.5672,0.2712
-0.07,-0.05,-0.063,39.3,197.1,67.5,0,2018,4,24,21,49,52.98,0.7752,0.0295,-0.5617,0.2872
-0.07,-0.151,0.06,33.6,222.5,55.5,0,2018,4,24,21,49,52.985,0.7729,0.0636,-0.5549,0.3009
-0.066,-0.03,0.028,25.5,223.2,43.8,0,2018,4,24,21,49,53.002,0.7698,0.0978,-0.5451,0.3171
0.035,0.194,-0.006,24.2,191.1,34.3,0,2018,4,24,21,49,53.019,0.7659,0.13,-0.535,0.3319
0.027,0.17,0.023,22.6,157.3,27.7,0,2018,4,24,21,49,53.042,0.761,0.1578,-0.5275,0.343
0.017,0.123,0.116,18.2,141.2,22.4,0,2018,4,24,21,49,53.059,0.756,0.1813,-0.5209,0.3523
0.006,0.156,0.196,15.9,122.7,17.7,0,2018,4,24,21,49,53.082,0.7511,0.2018,-0.5144,0.361
-0.056,0.234,0.185,13.2,88,16.9,0,2018,4,24,21,49,53.101,0.7469,0.2184,-0.5091,0.3676
-0.078,0.251,0.181,8.6,35.8,15.5,0,2018,4,24,21,49,53.124,0.7444,0.2289,-0.5061,0.3703
-0.041,0.244,0.147,4.4,-14.6,10.7,0,2018,4,24,21,49,53.142,0.7443,0.2318,-0.506,0.3689
-0.055,0.235,0.09,1.1,-48.8,7.7,0,2018,4,24,21,49,53.165,0.7459,0.2285,-0.5083,0.3646
-0.075,0.218,0.05,2.3,-77.2,4.1,0,2018,4,24,21,49,53.182,0.7486,0.221,-0.5123,0.3579
-0.108,0.21,-0.013,4,-92.9,-2.2,0,2018,4,24,21,49,53.2,0.7516,0.21,-0.5181,0.3499
-0.12,0.25,0,6.7,-120.9,-5.8,0,2018,4,24,21,49,53.223,0.7545,0.1962,-0.5255,0.3405
-0.121,0.17,0.03,7.6,-153.2,-10.9,0,2018,4,24,21,49,53.241,0.7578,0.1777,-0.5349,0.3284
-0.153,0.105,0.048,3.3,-170.5,-18.6,0,2018,4,24,21,49,53.265,0.761,0.1553,-0.5455,0.3146
-0.111,0.16,-0.046,4.6,-174.1,-24.6,0,2018,4,24,21,49,53.284,0.7637,0.1306,-0.5559,0.3008
-0.111,0.108,-0.093,4,-170,-31,0,2018,4,24,21,49,53.301,0.7654,0.1051,-0.5661,0.2873
-0.07,-0.055,-0.179,6.6,-136.6,-41.8,0,2018,4,24,21,49,53.324,0.7656,0.0814,-0.575,0.2765
-0.096,-0.125,-0.183,6.7,-101.4,-56.3,0,2018,4,24,21,49,53.361,0.7637,0.0612,-0.5826,0.2708
-0.134,-0.166,-0.208,8.7,-50.9,-66.9,0,2018,4,24,21,49,53.384,0.7606,0.0454,-0.588,0.2712
-0.2,-0.028,-0.184,9.8,-20.1,-76,0,2018,4,24,21,49,53.389,0.7564,0.0342,-0.5912,0.2773
-0.184,0.094,-0.118,14.6,-24.5,-85.5,0,2018,4,24,21,49,53.404,0.7513,0.0238,-0.5943,0.2859
-0.153,0.132,-0.004,18.5,-41.2,-88.5,1023,2018,4,24,21,49,53.421,0.7451,0.0112,-0.5985,0.2938
-0.176,0.075,0.001,21.7,-51.9,-86.6,1023,2018,4,24,21,49,53.444,0.7385,-0.003,-0.6036,0.3002
-0.248,0.018,-0.06,24,-56.8,-83.8,1023,2018,4,24,21,49,53.462,0.7314,-0.0178,-0.6093,0.3054
-0.249,-0.007,-0.075,27.3,-67.8,-85.3,1023,2018,4,24,21,49,53.485,0.7238,-0.0334,-0.6156,0.3096
-0.195,-0.092,0.031,28.7,-75.8,-87.9,1023,2018,4,24,21,49,53.503,0.7156,-0.0509,-0.6221,0.3134
-0.189,-0.276,0.14,24,-70.2,-93.6,1023,2018,4,24,21,49,53.526,0.707,-0.0708,-0.6271,0.3189
-0.191,-0.193,0.176,18.1,-62.2,-98.9,1023,2018,4,24,21,49,53.563,0.6988,-0.0902,-0.6301,0.3262
-0.151,-0.223,0.17,13.5,-71.8,-102.3,1023,2018,4,24,21,49,53.586,0.6906,-0.1102,-0.632,0.3335
-0.139,-0.272,0.242,12.2,-90,-109.3,1023,2018,4,24,21,49,53.588,0.6818,-0.1327,-0.634,0.3398
0.001,-0.3,0.251,12.4,-96.8,-119.6,0,2018,4,24,21,49,53.61,0.6713,-0.1562,-0.6378,0.3434
-0.037,-0.531,0.269,8.7,-71.2,-127.7,0,2018,4,24,21,49,53.626,0.66,-0.1795,-0.6407,0.3485
0.001,-0.481,0.3,0,-27,-129.2,0,2018,4,24,21,49,53.65,0.65,-0.1992,-0.6399,0.358
0.031,-0.478,0.316,-9.7,8.3,-133,0,2018,4,24,21,49,53.666,0.642,-0.2149,-0.6351,0.3717
0.066,-0.453,0.293,-18.7,39.6,-138.2,0,2018,4,24,21,49,53.702,0.6355,-0.228,-0.6266,0.389
0.075,-0.393,0.25,-29.7,69.4,-142.4,0,2018,4,24,21,49,53.726,0.6306,-0.2389,-0.6143,0.4096
0.065,-0.395,0.214,-40.3,99.6,-142.7,0,2018,4,24,21,49,53.73,0.6275,-0.2472,-0.5981,0.4328
0.046,-0.279,0.214,-48.6,125.1,-140,0,2018,4,24,21,49,53.746,0.626,-0.2533,-0.5773,0.4589
0.003,-0.206,0.15,-53,129,-138,0,2018,4,24,21,49,53.764,0.6251,-0.2589,-0.5522,0.4868
0.009,-0.2,0.042,-50.3,113,-137,0,2018,4,24,21,49,53.787,0.6232,-0.2647,-0.5275,0.5129
0.038,-0.134,-0.041,-39.8,90.4,-136.1,0,2018,4,24,21,49,53.805,0.6187,-0.2721,-0.5052,0.5364
0.018,-0.194,-0.082,-28.9,72.3,-135.2,0,2018,4,24,21,49,53.828,0.6113,-0.2808,-0.4861,0.5576
-0.018,-0.258,-0.059,-23.3,82.3,-131.6,0,2018,4,24,21,49,53.864,0.6028,-0.2885,-0.4683,0.5778
-0.036,-0.26,-0.104,-21.6,111.7,-127.7,0,2018,4,24,21,49,53.887,0.596,-0.2915,-0.4492,0.5983
-0.036,-0.194,-0.161,-21.6,132.6,-125.3,0,2018,4,24,21,49,53.891,0.5905,-0.2906,-0.4273,0.6198
-0.046,-0.128,-0.203,-20.7,134.8,-123.6,0,2018,4,24,21,49,53.907,0.5851,-0.2881,-0.404,0.6413
-0.091,-0.111,-0.205,-22.6,136.1,-123.5,0,2018,4,24,21,49,53.925,0.5793,-0.2852,-0.3803,0.662
-0.11,-0.077,-0.167,-30.3,136.6,-122.1,0,2018,4,24,21,49,53.948,0.5734,-0.2825,-0.3554,0.6819
-0.11,-0.001,-0.23,-37.4,121.9,-120.2,0,2018,4,24,21,49,53.966,0.5672,-0.2809,-0.3303,0.7001
-0.136,0.068,-0.266,-40.8,95.4,-117.2,0,2018,4,24,21,49,53.989,0.56,-0.2817,-0.3072,0.7159
-0.144,0.05,-0.306,-43.4,73.6,-113.8,0,2018,4,24,21,49,54.007,0.5517,-0.285,-0.287,0.7293
-0.197,0.081,-0.295,-45.8,60.7,-110.6,0,2018,4,24,21,49,54.03,0.5428,-0.2898,-0.2686,0.741
-0.24,0.057,-0.273,-48.4,51,-108.6,0,2018,4,24,21,49,54.048,0.5335,-0.2958,-0.2514,0.7513
-0.271,0.072,-0.354,-49.5,49.1,-107.1,0,2018,4,24,21,49,54.071,0.524,-0.3022,-0.2346,0.7609
-0.259,0.116,-0.407,-45.9,33.5,-104.7,0,2018,4,24,21,49,54.088,0.514,-0.309,-0.2189,0.7696
-0.248,0.087,-0.369,-37.3,21.9,-100,0,2018,4,24,21,49,54.105,0.503,-0.316,-0.2061,0.7775
-0.283,0.046,-0.248,-30.5,21.9,-96,0,2018,4,24,21,49,54.128,0.4924,-0.3221,-0.1948,0.7847
-0.288,0.07,-0.25,-25,16.8,-96.5,0,2018,4,24,21,49,54.147,0.4813,-0.3273,-0.1842,0.7919
-0.342,-0.002,-0.259,-18.8,0.4,-103.8,0,2018,4,24,21,49,54.171,0.4685,-0.3328,-0.1755,0.7992
-0.34,-0.12,-0.22,-13.7,3.9,-110.5,1023,2018,4,24,21,49,54.188,0.4539,-0.3383,-0.168,0.807
-0.327,-0.138,-0.21,-12.6,32.6,-112.8,1023,2018,4,24,21,49,54.226,0.4395,-0.3418,-0.1577,0.8154
-0.326,-0.081,-0.284,-9.4,53.3,-115.8,1023,2018,4,24,21,49,54.249,0.4261,-0.3431,-0.1437,0.8246
-0.328,0.009,-0.262,-5.4,61.9,-118.8,1023,2018,4,24,21,49,54.254,0.4128,-0.3426,-0.1275,0.8342
-0.348,0.077,-0.288,-1.3,66.2,-117.3,1023,2018,4,24,21,49,54.272,0.3992,-0.341,-0.1108,0.8437
-0.356,0.135,-0.287,3.2,72.3,-112.5,1023,2018,4,24,21,49,54.289,0.3859,-0.3377,-0.092,0.8535
-0.335,0.151,-0.237,6.3,79.1,-106.3,1023,2018,4,24,21,49,54.313,0.3739,-0.3335,-0.0746,0.8621
-0.313,0.2,-0.2,7.7,89.2,-96.4,1023,2018,4,24,21,49,54.331,0.3633,-0.3282,-0.0564,0.87
-0.303,0.227,-0.154,7.2,98,-81.3,1023,2018,4,24,21,49,54.354,0.3551,-0.3219,-0.0376,0.8768
-0.269,0.305,-0.14,7.8,97.4,-68.1,0,2018,4,24,21,49,54.37,0.3492,-0.3149,-0.0186,0.8823
-0.219,0.335,-0.094,9.6,78,-55.3,0,2018,4,24,21,49,54.388,0.3444,-0.3084,-0.0021,0.8866
-0.185,0.237,-0.106,12.2,62.9,-38.6,0,2018,4,24,21,49,54.427,0.3409,-0.3025,0.0103,0.89
-0.182,0.141,-0.032,13.8,62.4,-23.6,0,2018,4,24,21,49,54.427,0.3394,-0.2966,0.0208,0.8923
-0.22,0.046,-0.026,12.4,63.7,-14.4,0,2018,4,24,21,49,54.45,0.3399,-0.2907,0.0308,0.8938
-0.173,0.014,-0.038,8.6,68.3,-7,0,2018,4,24,21,49,54.488,0.3416,-0.2849,0.0417,0.8946
-0.116,0.052,0.001,5.1,65.6,0,0,2018,4,24,21,49,54.511,0.3436,-0.279,0.0548,0.8949
-0.14,0.058,-0.063,0.5,58.7,5.6,0,2018,4,24,21,49,54.513,0.3465,-0.2743,0.0665,0.8945
-0.094,0.052,-0.104,-2.1,50.9,10.9,0,2018,4,24,21,49,54.535,0.3499,-0.2712,0.0765,0.8933
-0.089,0.07,-0.115,-3.6,45.5,16.7,0,2018,4,24,21,49,54.549,0.3533,-0.2689,0.0869,0.8917
-0.09,0.018,-0.146,-2.6,40.8,22.1,0,2018,4,24,21,49,54.587,0.3573,-0.2674,0.0961,0.8896
-0.06,-0.031,-0.143,-1.3,42.8,27.4,0,2018,4,24,21,49,54.607,0.3623,-0.2662,0.1043,0.8871
-0.06,-0.031,-0.125,0,48.4,31.1,0,2018,4,24,21,49,54.609,0.3682,-0.2648,0.1126,0.884
-0.052,-0.001,-0.129,0.8,45.2,33.7,0,2018,4,24,21,49,54.644,0.3746,-0.263,0.1211,0.8807
-0.023,0.002,-0.048,-0.1,39.4,37.8,0,2018,4,24,21,49,54.664,0.3813,-0.2615,0.1284,0.8773
-0.023,-0.009,-0.06,-1.8,33.8,40.2,0,2018,4,24,21,49,54.67,0.3882,-0.2607,0.1346,0.8735
-0.039,-0.013,-0.04,-4.4,26.9,41.2,0,2018,4,24,21,49,54.705,0.3951,-0.2605,0.1399,0.8697
0.007,0.022,-0.003,-9.6,23.8,45.4,0,2018,4,24,21,49,54.727,0.4019,-0.2613,0.1443,0.8656
0.018,0.08,-0.041,-15.6,17.1,51.9,0,2018,4,24,21,49,54.731,0.409,-0.2634,0.1488,0.8608
0.001,0.095,0.016,-20.5,12.5,61.3,0,2018,4,24,21,49,54.767,0.417,-0.2667,0.1514,0.8555
0.008,0.11,0.002,-26.9,23.7,71.3,0,2018,4,24,21,49,54.788,0.4262,-0.2709,0.1552,0.8489
-0.03,0.203,0.021,-35,31.5,82.1,0,2018,4,24,21,49,54.789,0.4376,-0.2753,0.1595,0.8409
-0.032,0.352,-0.024,-43,24.7,96.9,0,2018,4,24,21,49,54.825,0.4511,-0.2812,0.1628,0.8311
-0.019,0.301,-0.038,-44,0.7,113.1,0,2018,4,24,21,49,54.845,0.4656,-0.2897,0.1627,0.8202
-0.025,0.146,-0.033,-47.5,6,126.1,0,2018,4,24,21,49,54.851,0.4815,-0.2995,0.1603,0.8079
0.05,0.167,-0.089,-52.5,6.8,134.4,0,2018,4,24,21,49,54.885,0.4988,-0.3093,0.159,0.7937
0.015,0.223,-0.119,-54,-37,138.3,0,2018,4,24,21,49,54.904,0.5155,-0.3216,0.1545,0.779
0.025,0.103,-0.219,-50.6,-97.6,134.2,0,2018,4,24,21,49,54.912,0.5285,-0.3386,0.1421,0.7653
0.056,-0.298,-0.132,-46.2,-101.4,128.4,0,2018,4,24,21,49,54.947,0.5383,-0.3579,0.1246,0.7526
0.118,-0.224,-0.064,-42.5,-69.4,120,1023,2018,4,24,21,49,54.968,0.5482,-0.3741,0.11,0.7397
0.233,-0.106,-0.043,-33.1,-69.6,114.4,1023,2018,4,24,21,49,54.975,0.558,-0.3876,0.0973,0.7271
0.209,-0.281,0.187,-24.4,-70,102.3,1023,2018,4,24,21,49,55.012,0.5663,-0.3999,0.0834,0.7157
0.244,-0.342,0.289,-24.4,-39.8,79.5,1023,2018,4,24,21,49,55.034,0.5734,-0.4097,0.0726,0.7057
0.327,-0.186,0.251,-24.8,-34.5,53.2,1023,2018,4,24,21,49,55.038,0.5783,-0.4174,0.0667,0.6976
0.345,-0.174,0.124,-22.8,-31.3,28.6,1023,2018,4,24,21,49,55.051,0.5798,-0.4252,0.0632,0.692
0.313,-0.258,0.133,-15.4,-9.7,4.4,1023,2018,4,24,21,49,55.088,0.579,-0.4313,0.0627,0.6889
0.311,-0.108,0.066,-7.2,5.8,-21.6,1023,2018,4,24,21,49,55.109,0.5769,-0.4338,0.0661,0.6888
0.242,-0.019,0.025,1,-8,-40.5,0,2018,4,24,21,49,55.114,0.5717,-0.4352,0.071,0.6917
0.208,-0.041,-0.025,8.6,-21.4,-55.6,0,2018,4,24,21,49,55.151,0.5634,-0.437,0.0743,0.6971
0.167,-0.032,-0.066,18,-14.3,-62.6,0,2018,4,24,21,49,55.173,0.5536,-0.4382,0.0771,0.7038
0.096,0.122,-0.041,24.6,-6.5,-64.1,0,2018,4,24,21,49,55.178,0.5444,-0.4365,0.0802,0.7117
0.074,0.25,-0.035,27,-10.5,-59.1,0,2018,4,24,21,49,55.195,0.5365,-0.433,0.0814,0.7196
0.065,0.211,-0.077,28.6,-18.3,-49.6,0,2018,4,24,21,49,55.215,0.5288,-0.4302,0.081,0.727
0.073,0.168,-0.002,29.7,-16.2,-40.3,0,2018,4,24,21,49,55.254,0.5223,-0.4274,0.0794,0.7335
0.048,0.228,0.109,28.7,-15.7,-32.1,0,2018,4,24,21,49,55.276,0.5169,-0.4245,0.0773,0.7393
0.065,0.201,0.099,24.9,-17.6,-28,0,2018,4,24,21,49,55.28,0.5121,-0.4222,0.0749,0.7441
0.105,0.027,-0.14,22.3,-13.5,-26.9,0,2018,4,24,21,49,55.294,0.5073,-0.4206,0.0736,0.7484
0.186,-0.136,-0.21,28.4,0.7,-30.8,0,2018,4,24,21,49,55.312,0.5034,-0.4177,0.0724,0.7528
0.242,-0.227,-0.172,39.4,28,-42.1,0,2018,4,24,21,49,55.335,0.5001,-0.4114,0.074,0.7583
0.2,-0.128,-0.14,42.4,43.8,-53.8,0,2018,4,24,21,49,55.374,0.497,-0.4019,0.0791,0.7649
0.067,-0.128,-0.199,46.9,26.9,-67.7,0,2018,4,24,21,49,55.394,0.4919,-0.3918,0.0844,0.7728
0.135,-0.197,-0.34,60.5,-0.8,-74.6,0,2018,4,24,21,49,55.4,0.4838,-0.3825,0.0863,0.7823
0.042,-0.347,-0.422,81.1,-19.1,-79.8,0,2018,4,24,21,49,55.417,0.4733,-0.3726,0.0838,0.7937
-0.096,-0.362,-0.258,102.8,-20.8,-85.9,0,2018,4,24,21,49,55.455,0.4617,-0.3601,0.0785,0.8067
-0.2,-0.425,-0.127,110.1,6.6,-93.1,0,2018,4,24,21,49,55.478,0.4498,-0.3442,0.0742,0.8207
-0.241,-0.294,-0.044,102.3,44,-97,0,2018,4,24,21,49,55.482,0.439,-0.3256,0.0754,0.834
-0.263,-0.036,0.013,89.3,71.8,-94.7,0,2018,4,24,21,49,55.498,0.4294,-0.3057,0.0823,0.8457
-0.209,0.141,0.023,76,75.2,-86.6,0,2018,4,24,21,49,55.516,0.4211,-0.2864,0.0921,0.8555
-0.139,0.188,0.005,64,58.5,-77.7,0,2018,4,24,21,49,55.554,0.4132,-0.2696,0.1011,0.8638
-0.082,0.11,0.037,51.6,56.9,-68.5,0,2018,4,24,21,49,55.554,0.4058,-0.2556,0.1086,0.8707
-0.029,0.218,0.001,38.5,61.6,-57.8,0,2018,4,24,21,49,55.577,0.3998,-0.2433,0.1176,0.8758
-0.062,0.15,-0.123,30.9,40.5,-50.3,0,2018,4,24,21,49,55.595,0.3944,-0.2333,0.1255,0.8798
-0.079,0.098,-0.107,34.4,6.9,-47.3,0,2018,4,24,21,49,55.618,0.3886,-0.2256,0.1291,0.8839
-0.164,-0.155,-0.094,31.9,-5.9,-46.6,0,2018,4,24,21,49,55.637,0.3815,-0.2196,0.1293,0.8885
-0.293,-0.327,0.06,23,0,-48.6,0,2018,4,24,21,49,55.66,0.3748,-0.2143,0.1288,0.8926
-0.361,-0.437,0.114,7.1,9.9,-56.6,0,2018,4,24,21,49,55.679,0.3671,-0.2105,0.1307,0.8965
-0.37,-0.324,0.038,-3,9.9,-66.3,0,2018,4,24,21,49,55.703,0.3579,-0.2083,0.1347,0.9001
-0.426,-0.317,0.049,-10.6,-16.9,-79.3,1023,2018,4,24,21,49,55.717,0.3462,-0.2079,0.1374,0.9044
-0.361,-0.079,0,-11.7,-78.4,-91.7,1023,2018,4,24,21,49,55.735,0.3306,-0.2103,0.134,0.9101
-0.202,-0.016,-0.11,-8.7,-144.8,-93.5,1023,2018,4,24,21,49,55.758,0.3111,-0.2163,0.1197,0.9176
-0.142,0.086,-0.09,-1.8,-177.3,-87.9,1023,2018,4,24,21,49,55.776,0.2897,-0.2236,0.0979,0.9254
-0.179,0.064,0.121,-1.4,-172.2,-78,1023,2018,4,24,21,49,55.799,0.2691,-0.2311,0.0723,0.9321
-0.127,0.236,0.335,-9.7,-137.7,-62.5,1023,2018,4,24,21,49,55.817,0.2511,-0.2384,0.05,0.9367
-0.043,0.141,0.567,-24,-101.9,-41.3,1023,2018,4,24,21,49,55.84,0.2375,-0.2457,0.0334,0.9391
0.035,0.213,0.731,-46.4,-48.8,-15.8,1023,2018,4,24,21,49,55.858,0.2296,-0.2544,0.0239,0.9391
0.032,0.183,0.787,-75,-16.2,-0.3,0,2018,4,24,21,49,55.881,0.2269,-0.2655,0.0218,0.9367
0.01,0.015,0.763,-105.2,2.9,5.6,0,2018,4,24,21,49,55.9,0.2267,-0.2806,0.0243,0.9323
-0.045,-0.168,0.712,-130.4,30.2,9,0,2018,4,24,21,49,55.937,0.2283,-0.2992,0.0314,0.9258
-0.041,-0.11,0.562,-149.8,51.8,5.6,0,2018,4,24,21,49,55.96,0.231,-0.3202,0.0436,0.9176
-0.063,-0.095,0.479,-159.9,44.9,-3.2,0,2018,4,24,21,49,55.965,0.2326,-0.3431,0.0576,0.9082
-0.024,-0.13,0.325,-165,30.8,-11.6,0,2018,4,24,21,49,55.981,0.2319,-0.3672,0.0705,0.8979
0.042,-0.043,0.102,-156.7,24.9,-17.1,0,2018,4,24,21,49,55.998,0.229,-0.391,0.0825,0.8875
0.072,0.098,-0.041,-140.9,18.8,-21,0,2018,4,24,21,49,56.021,0.2245,-0.413,0.095,0.8774
0.088,0.009,-0.092,-120,11.3,-23.3,0,2018,4,24,21,49,56.039,0.2195,-0.4322,0.1046,0.8683
0.06,0.117,0.01,-102.8,10,-17.1,0,2018,4,24,21,49,56.06,0.2139,-0.4486,0.114,0.8601
0.087,0.15,0.077,-93,13.6,-3.6,0,2018,4,24,21,49,56.098,0.2099,-0.4622,0.1225,0.8527
0.121,0.168,-0.112,-81.7,15.5,10.2,0,2018,4,24,21,49,56.117,0.2093,-0.4746,0.1287,0.8451
0.125,0.131,-0.098,-66.3,12,21,0,2018,4,24,21,49,56.123,0.2111,-0.4853,0.1323,0.838
0.081,0.108,-0.082,-55.2,-6.4,30.5,0,2018,4,24,21,49,56.14,0.2138,-0.4945,0.1326,0.8319
0.05,0.034,-0.027,-48.6,-20.5,39.5,0,2018,4,24,21,49,56.163,0.2154,-0.5037,0.1307,0.8262
0.048,-0.035,-0.046,-47.7,-11.1,48.7,0,2018,4,24,21,49,56.179,0.2182,-0.5126,0.1275,0.8205
0.037,-0.066,-0.009,-49.2,36.8,59.6,0,2018,4,24,21,49,56.197,0.2252,-0.5209,0.127,0.8134
0.031,0.004,-0.081,-53.9,80.2,69.8,0,2018,4,24,21,49,56.22,0.2382,-0.5278,0.1328,0.8043
0,0.095,-0.183,-49.7,69.8,75.4,0,2018,4,24,21,49,56.259,0.2541,-0.5339,0.1403,0.794
-0.092,0.032,-0.031,-45.9,46.5,78.4,0,2018,4,24,21,49,56.259,0.2682,-0.5399,0.1437,0.7847
-0.079,-0.076,0.032,-53.5,72.8,88,0,2018,4,24,21,49,56.281,0.2829,-0.5459,0.1466,0.7748
-0.049,-0.105,0.081,-63.8,128.5,99.9,0,2018,4,24,21,49,56.32,0.3037,-0.551,0.1545,0.7616
-0.168,0.182,-0.026,-67.2,102.9,102.1,0,2018,4,24,21,49,56.32,0.3271,-0.5554,0.1655,0.7463
-0.24,0.16,-0.077,-60.5,13,99.6,0,2018,4,24,21,49,56.342,0.3435,-0.5634,0.1663,0.7326
-0.215,-0.027,-0.007,-64.5,17,106.3,0,2018,4,24,21,49,56.381,0.3543,-0.5737,0.1618,0.7204
-0.148,-0.127,-0.058,-82.9,115.2,126,0,2018,4,24,21,49,56.381,0.3726,-0.5824,0.1624,0.7039
-0.108,-0.139,-0.233,-98.9,251,153.6,0,2018,4,24,21,49,56.404,0.4059,-0.585,0.1767,0.6794
-0.2,0.245,0.005,-99.4,327.7,178.1,0,2018,4,24,21,49,56.42,0.4522,-0.5798,0.2022,0.6468
-0.456,0.413,0.146,-94.1,280.1,183.6,0,2018,4,24,21,49,56.443,0.4997,-0.5714,0.2259,0.6104
-0.329,0.588,-0.013,-85,196.1,190.5,1023,2018,4,24,21,49,56.462,0.5381,-0.5673,0.2398,0.5753
-0.209,0.108,-0.244,-76.1,225.1,227.5,1023,2018,4,24,21,49,56.48,0.5743,-0.5649,0.2463,0.5387
-0.201,0.341,-0.354,-51.4,302.1,265.1,1023,2018,4,24,21,49,56.503,0.6203,-0.5534,0.253,0.4947
-0.367,0.253,-0.425,-4.8,315.7,281.5,1023,2018,4,24,21,49,56.521,0.6711,-0.533,0.2555,0.4472
-0.486,0.4,-0.38,46.9,300,282.4,1023,2018,4,24,21,49,56.543,0.7211,-0.5063,0.2498,0.4013
-0.718,0.328,0.051,73.5,273.5,275.6,1023,2018,4,24,21,49,56.58,0.7672,-0.4766,0.2363,0.3581
-0.764,-0.404,0.481,52.3,222.1,234.4,1023,2018,4,24,21,49,56.603,0.8049,-0.4493,0.2209,0.3183
-0.245,-0.503,0.113,36.3,117.6,130.6,1023,2018,4,24,21,49,56.608,0.8292,-0.4298,0.21,0.2889
-0.035,-0.103,-0.112,38.7,43.4,48.6,0,2018,4,24,21,49,56.625,0.8398,-0.4206,0.2018,0.2773
-0.133,-0.169,0.137,21.3,73,19.3,0,2018,4,24,21,49,56.647,0.8461,-0.4129,0.1975,0.273
-0.005,0.035,0.184,9.5,110.7,17.3,0,2018,4,24,21,49,56.664,0.8541,-0.3984,0.199,0.2682
0.004,0.189,0.244,11.8,83.9,29.1,0,2018,4,24,21,49,56.682,0.8626,-0.3834,0.2004,0.2618
0.016,0.211,0.195,15.4,18.5,29.5,0,2018,4,24,21,49,56.706,0.8677,-0.3764,0.1986,0.2564
0.016,0.096,0.132,16.5,-21.4,26.3,0,2018,4,24,21,49,56.722,0.8691,-0.3776,0.1939,0.2536
-0.028,0.012,0.11,11.4,-11.6,21.7,0,2018,4,24,21,49,56.746,0.8691,-0.3812,0.1894,0.2515
-0.025,-0.058,0.055,6,11.8,19.2,0,2018,4,24,21,49,56.782,0.8703,-0.3817,0.1868,0.2486
0,0.09,0.023,7.4,3.5,13.6,0,2018,4,24,21,49,56.805,0.8715,-0.3812,0.1857,0.2462
-0.003,0.084,0.031,10.9,-25.5,9.6,0,2018,4,24,21,49,56.809,0.8712,-0.3832,0.1838,0.2455
-0.079,0.028,0.1,12.1,-52.8,1.7,0,2018,4,24,21,49,56.827,0.869,-0.389,0.1801,0.2468
-0.119,-0.072,0.018,11.2,-70.8,-16.4,0,2018,4,24,21,49,56.846,0.8647,-0.3983,0.1757,0.2504
-0.15,-0.169,-0.162,9.3,-59.5,-41.3,0,2018,4,24,21,49,56.869,0.8589,-0.4072,0.1733,0.2575
-0.183,-0.143,-0.144,12.9,-28.6,-69.8,0,2018,4,24,21,49,56.885,0.8535,-0.4115,0.1736,0.2681
-0.271,-0.202,-0.123,14.4,6.8,-96,0,2018,4,24,21,49,56.904,0.8491,-0.4099,0.1772,0.2818
-0.413,-0.089,-0.1,16.9,16.2,-121.4,0,2018,4,24,21,49,56.927,0.8452,-0.4033,0.1833,0.2986
-0.589,-0.054,-0.187,23.8,-15.9,-153.6,0,2018,4,24,21,49,56.943,0.8386,-0.3975,0.19,0.3201
-0.668,-0.167,-0.305,38.7,-30.2,-183.9,0,2018,4,24,21,49,56.967,0.8277,-0.394,0.1956,0.3482
-0.656,-0.326,-0.328,55.4,-17.2,-207.5,0,2018,4,24,21,49,56.984,0.8153,-0.3875,0.2007,0.3804
-0.571,-0.19,-0.219,75.8,-28.7,-226.2,0,2018,4,24,21,49,57.007,0.8011,-0.3778,0.2047,0.4164
-0.39,-0.114,-0.195,92.6,-63.2,-230.6,0,2018,4,24,21,49,57.025,0.7835,-0.37,0.2041,0.4555
-0.351,-0.224,-0.181,102.6,-68.9,-226,0,2018,4,24,21,49,57.047,0.7637,-0.3628,0.1999,0.4949
-0.257,-0.125,-0.065,108.2,-65.2,-216.8,0,2018,4,24,21,49,57.069,0.7433,-0.3544,0.1936,0.5331
-0.294,-0.202,0.098,97.4,-78,-218.2,0,2018,4,24,21,49,57.084,0.7216,-0.3463,0.187,0.5695
-0.045,-0.126,0.118,89,-107.8,-218.3,0,2018,4,24,21,49,57.102,0.6965,-0.3412,0.1791,0.6051
0.115,-0.123,-0.042,94,-124.4,-209.6,0,2018,4,24,21,49,57.126,0.6687,-0.3398,0.1681,0.6395
0.126,-0.053,-0.114,101.5,-125,-201.9,0,2018,4,24,21,49,57.144,0.6405,-0.3371,0.1546,0.6723
0.143,-0.129,-0.067,105.1,-118.1,-197.8,0,2018,4,24,21,49,57.167,0.6121,-0.3328,0.1405,0.7033
0.191,0.041,-0.04,115.2,-130.8,-190.1,0,2018,4,24,21,49,57.185,0.5829,-0.3278,0.1255,0.7327
0.218,-0.002,-0.258,139.3,-148.1,-183.6,0,2018,4,24,21,49,57.209,0.5529,-0.3218,0.105,0.7612
0.144,0.005,-0.279,169.7,-182.5,-178.3,1023,2018,4,24,21,49,57.226,0.522,-0.313,0.0783,0.7895
0.025,0.112,-0.038,192.4,-194.4,-165.7,1023,2018,4,24,21,49,57.249,0.4889,-0.303,0.0456,0.8166
-0.024,0.155,-0.015,210.6,-224.4,-150.7,1023,2018,4,24,21,49,57.268,0.4562,-0.2905,0.0068,0.841
-0.089,0.054,-0.031,232.5,-232.1,-135.3,1023,2018,4,24,21,49,57.291,0.4226,-0.2754,-0.0362,0.8626
-0.195,0.249,0.14,256.2,-250.1,-113.9,1023,2018,4,24,21,49,57.309,0.3899,-0.2562,-0.0838,0.8805
-0.321,0.063,0.437,265.7,-247.6,-86.9,1023,2018,4,24,21,49,57.331,0.3583,-0.2342,-0.1361,0.8934
-0.458,-0.283,0.805,248.3,-215.9,-63.2,1023,2018,4,24,21,49,57.347,0.3305,-0.2097,-0.1853,0.9013
-0.5,-0.268,0.919,219.6,-163.4,-43.8,0,2018,4,24,21,49,57.383,0.3072,-0.1853,-0.2264,0.9055
-0.351,0.102,0.709,198.3,-157.5,-33.9,0,2018,4,24,21,49,57.406,0.2877,-0.162,-0.2602,0.9073
-0.413,-0.16,0.552,171.3,-158.9,-26.3,0,2018,4,24,21,49,57.411,0.2695,-0.1419,-0.2946,0.9057
-0.47,-0.058,0.918,129.4,-155.3,-16.2,0,2018,4,24,21,49,57.443,0.2545,-0.1262,-0.325,0.902
-0.529,-0.358,1.122,67.2,-139.1,-11.4,0,2018,4,24,21,49,57.465,0.2433,-0.1183,-0.353,0.8956
-0.453,-0.664,0.866,1,-48.2,-10.3,0,2018,4,24,21,49,57.47,0.2377,-0.118,-0.3692,0.8906
-0.266,-0.53,0.626,-51.7,61.3,-8.6,0,2018,4,24,21,49,57.487,0.2382,-0.1225,-0.3659,0.8912
-0.117,-0.053,0.441,-82.2,99.3,-5.3,0,2018,4,24,21,49,57.512,0.2435,-0.1301,-0.3488,0.8955
-0.025,0.143,0.343,-96.2,60.2,-3,0,2018,4,24,21,49,57.529,0.2501,-0.141,-0.332,0.8984
0.001,0.092,0.259,-106.6,14.3,-4.8,0,2018,4,24,21,49,57.552,0.2562,-0.1556,-0.322,0.8979
-0.06,-0.118,0.127,-118.5,17.5,-7.4,0,2018,4,24,21,49,57.568,0.2619,-0.1725,-0.3137,0.8962
-0.032,-0.096,-0.106,-128,70.4,-3.5,0,2018,4,24,21,49,57.605,0.2689,-0.1902,-0.3009,0.8949
-0.01,0.144,-0.276,-127.6,104.9,6.7,0,2018,4,24,21,49,57.626,0.2786,-0.2066,-0.28,0.8951
-0.039,0.297,-0.383,-118.5,98.6,16.6,0,2018,4,24,21,49,57.631,0.29,-0.2205,-0.2576,0.8949
-0.099,0.278,-0.432,-106.6,73.3,22.8,0,2018,4,24,21,49,57.647,0.3014,-0.2328,-0.2392,0.8931
-0.132,0.168,-0.552,-92.8,60.9,27.9,0,2018,4,24,21,49,57.671,0.3118,-0.2442,-0.2244,0.8903
-0.176,0.089,-0.715,-73.2,61.3,36.2,0,2018,4,24,21,49,57.706,0.3227,-0.2525,-0.2118,0.8872
-0.248,0.1,-0.83,-46.3,50,37.8,0,2018,4,24,21,49,57.726,0.3333,-0.2571,-0.2012,0.8844
-0.288,0,-0.794,-16.1,26,33.6,0,2018,4,24,21,49,57.731,0.3415,-0.2584,-0.1952,0.8822
-0.297,-0.101,-0.768,13,20.4,32.2,0,2018,4,24,21,49,57.754,0.3475,-0.2561,-0.1935,0.8809
-0.315,-0.198,-0.802,39,43.7,31.9,0,2018,4,24,21,49,57.769,0.3529,-0.249,-0.1917,0.8812
-0.339,-0.09,-0.735,63.2,64.1,31.4,0,2018,4,24,21,49,57.787,0.3584,-0.2365,-0.1877,0.8833
-0.317,0.097,-0.635,84.5,58.5,29.4,0,2018,4,24,21,49,57.811,0.3631,-0.22,-0.1839,0.8864
-0.32,0.145,-0.45,103.1,29.3,32.2,0,2018,4,24,21,49,57.828,0.3664,-0.2016,-0.1842,0.8894
-0.37,0.025,-0.318,112.6,14.4,38.6,0,2018,4,24,21,49,57.851,0.369,-0.1822,-0.1893,0.8914
-0.364,-0.063,-0.305,111.2,31.6,45.2,0,2018,4,24,21,49,57.869,0.3724,-0.1619,-0.1947,0.8928
-0.346,-0.148,-0.222,101.5,68.2,50,0,2018,4,24,21,49,57.892,0.3775,-0.1403,-0.195,0.8942
-0.276,-0.01,-0.079,94.6,84.6,53.9,0,2018,4,24,21,49,57.91,0.3843,-0.118,-0.19,0.8956
-0.264,0.117,0.136,91.8,43.2,53.9,0,2018,4,24,21,49,57.932,0.391,-0.097,-0.1867,0.8959
-0.328,0.188,0.311,83,-51.6,50.8,0,2018,4,24,21,49,57.97,0.3965,-0.0819,-0.1941,0.8935
-0.35,-0.001,0.39,61.4,-141.1,47.5,1023,2018,4,24,21,49,57.97,0.4005,-0.076,-0.2155,0.8873
-0.315,-0.268,0.359,28.5,-174,45,1023,2018,4,24,21,49,57.994,0.4037,-0.0788,-0.2444,0.878
-0.228,-0.389,0.393,-6.1,-156.5,44.8,1023,2018,4,24,21,49,58.012,0.4075,-0.0871,-0.2714,0.8675
-0.168,-0.323,0.44,-37.2,-119.6,46.1,1023,2018,4,24,21,49,58.028,0.4131,-0.0979,-0.2912,0.8572
-0.12,-0.194,0.398,-63.6,-98.9,48.4,1023,2018,4,24,21,49,58.052,0.4212,-0.1102,-0.3035,0.8475
-0.043,-0.112,0.331,-80.3,-104.8,50,1023,2018,4,24,21,49,58.07,0.4306,-0.1253,-0.3125,0.8373
0.022,-0.115,0.266,-89.4,-120.5,50.2,1023,2018,4,24,21,49,58.092,0.44,-0.1434,-0.3222,0.8257
0.074,-0.204,0.208,-94.8,-118.2,47.1,0,2018,4,24,21,49,58.128,0.4488,-0.1638,-0.3325,0.813
0.099,-0.167,0.135,-95.4,-103.6,44.1,0,2018,4,24,21,49,58.152,0.4571,-0.1842,-0.341,0.8004
0.143,-0.111,0.064,-92,-96.4,41.9,0,2018,4,24,21,49,58.155,0.4648,-0.2038,-0.3475,0.7883
0.175,-0.11,0.038,-84.1,-91.2,40.1,0,2018,4,24,21,49,58.175,0.4723,-0.221,-0.3546,0.776
0.182,-0.144,0.067,-73.4,-79.1,38.1,0,2018,4,24,21,49,58.192,0.4791,-0.2362,-0.3611,0.7642
0.174,-0.17,0.097,-63.1,-60.8,33.2,0,2018,4,24,21,49,58.216,0.4852,-0.2488,-0.3662,0.7539
0.165,-0.17,0.043,-53,-43.3,25.5,0,2018,4,24,21,49,58.232,0.4905,-0.2589,-0.3692,0.7456
0.155,-0.11,-0.015,-41.1,-35.4,19.1,0,2018,4,24,21,49,58.269,0.4947,-0.2668,-0.3712,0.739
0.134,-0.103,-0.015,-29.9,-33.1,11.1,0,2018,4,24,21,49,58.292,0.4973,-0.2734,-0.3733,0.7338
0.118,-0.082,-0.007,-20.2,-28.2,2.8,0,2018,4,24,21,49,58.297,0.4979,-0.2793,-0.375,0.7302
0.111,-0.075,-0.033,-13.6,-21.2,-3.5,0,2018,4,24,21,49,58.311,0.4976,-0.2839,-0.3765,0.7279
0.084,-0.068,-0.048,-10,-7.9,-8.4,0,2018,4,24,21,49,58.333,0.4966,-0.2874,-0.3769,0.727
0.066,-0.034,-0.051,-9.6,6,-12.7,0,2018,4,24,21,49,58.351,0.4952,-0.2905,-0.3749,0.7278
0.046,0.022,-0.052,-11.7,17.5,-16.8,0,2018,4,24,21,49,58.376,0.4941,-0.2927,-0.3709,0.7297
0.028,0.069,-0.057,-14.5,22.9,-19.2,0,2018,4,24,21,49,58.393,0.4932,-0.2945,-0.3653,0.7324
-0.007,0.052,-0.03,-17,29.8,-17.1,0,2018,4,24,21,49,58.417,0.4928,-0.296,-0.3587,0.7353
-0.064,0.045,0.032,-19.5,43.6,-10.1,0,2018,4,24,21,49,58.432,0.4942,-0.2959,-0.3509,0.7382
-0.086,0.075,0.078,-23.1,50.3,-0.8,0,2018,4,24,21,49,58.45,0.4974,-0.2943,-0.3419,0.7408
-0.093,0.119,0.06,-25.8,40.3,7.1,0,2018,4,24,21,49,58.471,0.5017,-0.2933,-0.3339,0.742
-0.104,0.123,0.035,-26.8,15.1,12.7,0,2018,4,24,21,49,58.511,0.5061,-0.2936,-0.3284,0.7414
-0.094,0.093,0.016,-25.1,-10.1,14.7,0,2018,4,24,21,49,58.534,0.5094,-0.2961,-0.3267,0.7388
-0.08,0.015,0.005,-24.1,-18.7,15.5,0,2018,4,24,21,49,58.539,0.5121,-0.2993,-0.3268,0.7356
-0.046,-0.008,0.014,-23.7,-17.2,18.3,0,2018,4,24,21,49,58.554,0.5148,-0.3029,-0.3275,0.732
-0.031,-0.029,0.013,-23.4,-11.7,20.7,0,2018,4,24,21,49,58.577,0.5178,-0.3061,-0.3278,0.7284
-0.022,-0.004,0.012,-22,-11.9,20.3,0,2018,4,24,21,49,58.595,0.5211,-0.3089,-0.3278,0.7249
-0.016,0.012,0.003,-20.4,-13,17.7,0,2018,4,24,21,49,58.618,0.524,-0.3117,-0.3279,0.7215
0.004,0.054,-0.019,-18.6,-13.9,14.5,0,2018,4,24,21,49,58.636,0.5263,-0.3146,-0.3279,0.7186
-0.01,0.007,-0.026,-17.6,-19.5,10.6,0,2018,4,24,21,49,58.659,0.5277,-0.318,-0.3284,0.7158
0.001,0.038,-0.042,-16.8,-13.9,8.1,0,2018,4,24,21,49,58.674,0.5286,-0.3216,-0.329,0.7132
-0.007,0.066,-0.027,-18.3,-13.8,5.9,1023,2018,4,24,21,49,58.692,0.5295,-0.325,-0.3288,0.7111
0.007,0.13,-0.027,-20.9,-14.4,6.3,1023,2018,4,24,21,49,58.715,0.5304,-0.3285,-0.328,0.7092
0.011,0.143,-0.028,-24.4,-17.2,9.9,1023,2018,4,24,21,49,58.733,0.5317,-0.3324,-0.3271,0.7068
0.012,0.136,-0.032,-27.8,-18.6,16.1,1023,2018,4,24,21,49,58.755,0.5336,-0.3367,-0.3263,0.7037
-0.002,0.135,-0.042,-30.5,-24.1,22.2,1023,2018,4,24,21,49,58.792,0.5362,-0.3414,-0.3263,0.6995
-0.032,0.037,-0.048,-34,-26.6,26.9,1023,2018,4,24,21,49,58.815,0.5393,-0.3465,-0.3273,0.6941
-0.043,-0.025,-0.054,-37.7,-20.5,30.6,1023,2018,4,24,21,49,58.82,0.5433,-0.3516,-0.3285,0.6878
-0.068,-0.062,-0.046,-41.6,-13.7,33.3,1023,2018,4,24,21,49,58.839,0.5482,-0.3565,-0.329,0.6812
-0.088,-0.062,-0.041,-44.7,-2.3,35.2,0,2018,4,24,21,49,58.856,0.5543,-0.3605,-0.3283,0.6744
-0.085,-0.004,-0.033,-46.2,-3.8,34.6,0,2018,4,24,21,49,58.878,0.5609,-0.3639,-0.3266,0.6679
-0.068,0.019,-0.042,-43.8,-13.9,34.9,0,2018,4,24,21,49,58.916,0.567,-0.3681,-0.3256,0.661
-0.074,0.047,-0.046,-39.9,-26.1,35.3,0,2018,4,24,21,49,58.916,0.5721,-0.3729,-0.3261,0.6535
-0.077,0.062,-0.048,-36,-34.4,36.6,0,2018,4,24,21,49,58.938,0.5764,-0.3781,-0.3283,0.6457
-0.059,0.046,-0.038,-33.1,-34.2,37.1,0,2018,4,24,21,49,58.957,0.5802,-0.3833,-0.3312,0.6377
-0.03,0.009,-0.009,-30,-29.9,38.7,0,2018,4,24,21,49,58.974,0.584,-0.3879,-0.334,0.6299
-0.044,-0.053,0.014,-28.1,-20.6,39.1,0,2018,4,24,21,49,58.996,0.5882,-0.3914,-0.3364,0.6225
-0.042,-0.034,0.02,-27.1,-11.7,39.5,0,2018,4,24,21,49,59.033,0.593,-0.3937,-0.3379,0.6156
-0.019,-0.017,0.016,-26.3,-9.2,39.4,0,2018,4,24,21,49,59.054,0.5981,-0.3953,-0.3387,0.6092
-0.018,-0.054,0.034,-25.2,-11.8,38.5,0,2018,4,24,21,49,59.059,0.603,-0.3969,-0.3395,0.6029
-0.009,-0.05,0.05,-24.7,-14.8,38.6,0,2018,4,24,21,49,59.076,0.6076,-0.3986,-0.3406,0.5965
-0.003,-0.014,0.04,-25.7,-19.8,38.5,0,2018,4,24,21,49,59.1,0.6118,-0.4007,-0.342,0.5899
0.029,0.039,0.024,-26.5,-27.6,40,0,2018,4,24,21,49,59.135,0.6157,-0.4036,-0.3437,0.5828
0.05,0.059,0.01,-27,-38.4,42.5,0,2018,4,24,21,49,59.135,0.6189,-0.4077,-0.3463,0.575
0.081,0.032,0.016,-26.1,-46.2,45.7,0,2018,4,24,21,49,59.158,0.6216,-0.4127,-0.3499,0.5663
0.089,-0.01,0.031,-24.1,-46.6,45.4,0,2018,4,24,21,49,59.177,0.6239,-0.418,-0.3541,0.5571
0.115,-0.021,0.015,-19.6,-40.6,41.2,0,2018,4,24,21,49,59.2,0.6258,-0.4229,-0.3582,0.5487
0.138,-0.022,0.008,-12,-31.4,34.1,0,2018,4,24,21,49,59.219,0.6271,-0.4269,-0.3616,0.5419
0.135,-0.037,0.007,-2.5,-20.1,25.3,0,2018,4,24,21,49,59.236,0.6278,-0.4294,-0.3644,0.5372
0.102,-0.049,0.039,7,-7.7,17.4,0,2018,4,24,21,49,59.259,0.628,-0.4301,-0.3665,0.5349
0.068,-0.055,0.052,14.3,3.1,10.2,0,2018,4,24,21,49,59.297,0.6281,-0.4288,-0.3681,0.5347
0.026,-0.043,0.045,17.5,11.8,4.4,0,2018,4,24,21,49,59.32,0.6281,-0.4263,-0.369,0.5361
0.018,0.007,0.022,17.5,17.1,0.6,0,2018,4,24,21,49,59.324,0.6282,-0.423,-0.3692,0.5384
0.008,0.063,0.005,15.3,14,-2.8,0,2018,4,24,21,49,59.338,0.6282,-0.4198,-0.3689,0.5412
0,0.041,-0.011,10.8,9.8,-4.7,0,2018,4,24,21,49,59.356,0.6277,-0.4177,-0.3686,0.5436
0.019,0.069,-0.028,5.6,8.8,-3.6,0,2018,4,24,21,49,59.377,0.6273,-0.4164,-0.3679,0.5455
0.035,0.079,-0.046,1.3,11,-2.2,0,2018,4,24,21,49,59.413,0.6272,-0.4157,-0.3668,0.5469
0.068,0.157,-0.03,-2.3,15.5,0.8,1023,2018,4,24,21,49,59.437,0.6279,-0.4147,-0.3646,0.5483
0.114,0.255,-0.022,-3.7,14.6,5.1,1023,2018,4,24,21,49,59.442,0.6294,-0.4133,-0.3626,0.549
0.19,0.311,0.001,-3.4,17,15.6,1023,2018,4,24,21,49,59.459,0.6317,-0.4114,-0.3615,0.5485
0.243,0.412,0.053,-4.7,30.8,29.2,1023,2018,4,24,21,49,59.482,0.6358,-0.4077,-0.3604,0.5472
0.305,0.491,0.099,-8,47.4,48.4,1023,2018,4,24,21,49,59.498,0.6428,-0.4014,-0.3586,0.5449
0.312,0.52,0.096,-8.8,42.1,68.1,1023,2018,4,24,21,49,59.521,0.6523,-0.3931,-0.3572,0.5406
0.214,0.415,0.125,-7.6,-6.7,80.2,0,2018,4,24,21,49,59.559,0.661,-0.3871,-0.3596,0.5327
0.188,0.428,0.086,-4.8,-64,93.9,0,2018,4,24,21,49,59.602,0.6669,-0.3865,-0.3682,0.5197
0.1,0.025,-0.004,-6.6,-73.1,108.8,0,2018,4,24,21,49,59.605,0.6711,-0.3892,-0.3811,0.5026
0.061,-0.282,-0.06,-11.9,-25.9,113,0,2018,4,24,21,49,59.607,0.6776,-0.389,-0.3916,0.4857
0.01,-0.279,-0.122,-10,14.3,113.5,0,2018,4,24,21,49,59.619,0.6877,-0.3825,-0.3982,0.4712
-0.013,-0.198,-0.12,0.7,41.3,114.9,0,2018,4,24,21,49,59.656,0.6993,-0.3713,-0.4027,0.4591
-0.057,-0.071,-0.146,14,53.3,118.8,0,2018,4,24,21,49,59.678,0.7109,-0.3568,-0.4074,0.4486
-0.08,-0.002,-0.199,30.2,49.9,122.9,0,2018,4,24,21,49,59.68,0.7219,-0.3397,-0.4134,0.4386
-0.139,0.041,-0.244,46.3,32.3,125.3,0,2018,4,24,21,49,59.717,0.7308,-0.3225,-0.4224,0.4282
-0.213,0.015,-0.242,57.7,24,129.6,0,2018,4,24,21,49,59.737,0.7377,-0.3058,-0.4342,0.4167
-0.297,0.023,-0.193,61.6,37.3,138.2,0,2018,4,24,21,49,59.739,0.7441,-0.2872,-0.4469,0.4048
-0.339,-0.009,-0.134,60.6,47.3,142.8,0,2018,4,24,21,49,59.777,0.7513,-0.266,-0.4586,0.3928
-0.349,-0.002,-0.091,61.3,33.7,140.2,0,2018,4,24,21,49,59.799,0.7577,-0.245,-0.4702,0.3802
-0.425,-0.154,-0.143,57.1,49.7,136.9,0,2018,4,24,21,49,59.803,0.7633,-0.2246,-0.4815,0.3674
-0.365,-0.126,-0.131,49.4,93.2,126.1,0,2018,4,24,21,49,59.819,0.7698,-0.2003,-0.4889,0.3579
-0.319,-0.021,-0.087,41.9,119.8,111.1,0,2018,4,24,21,49,59.855,0.7768,-0.1727,-0.4921,0.3527
-0.312,0.053,-0.049,34.2,132.9,96.8,0,2018,4,24,21,49,59.877,0.7834,-0.1441,-0.4924,0.3506
-0.312,0.127,-0.027,25.4,134.6,83.9,0,2018,4,24,21,49,59.879,0.7893,-0.1161,-0.4904,0.3505
-0.217,0.305,-0.046,17.1,117.7,75.7,0,2018,4,24,21,49,59.916,0.7947,-0.0903,-0.4868,0.3509
-0.117,0.369,-0.145,20.7,73.1,70.7,0,2018,4,24,21,49,59.936,0.799,-0.0698,-0.4845,0.3491
-0.199,0.07,0.037,14.4,74.6,48.8,0,2018,4,24,21,49,59.942,0.8064,-0.0245,-0.4848,0.3376
-0.081,0.254,-0.131,20.8,52.1,33.2,0,2018,4,24,21,49,59.98,0.8076,-0.0107,-0.4834,0.3375
-0.069,0.271,-0.12,30.1,4.3,16.6,0,2018,4,24,21,50,0.003,0.8069,-0.0033,-0.4854,0.3364
-0.098,0.082,0.027,33.3,-23.2,0.8,0,2018,4,24,21,50,0.007,0.8046,-0.0024,-0.4908,0.3341
-0.216,-0.269,0.147,14.7,21.7,-9.1,0,2018,4,24,21,50,0.022,0.8021,-0.0029,-0.4947,0.3343
-0.156,0.058,0.195,11.4,52.2,-19.1,0,2018,4,24,21,50,0.04,0.8002,0.0025,-0.4932,0.3409
-0.194,0.117,0.231,9.4,4.6,-29.1,0,2018,4,24,21,50,0.063,0.7979,0.0051,-0.4929,0.3467
-0.245,0.116,0.245,4.2,-47.3,-43.2,0,2018,4,24,21,50,0.081,0.7951,-0.0006,-0.4953,0.3499
-0.23,0.141,0.234,0,-100.8,-58.9,0,2018,4,24,21,50,0.104,0.7917,-0.0155,-0.5001,0.3504
-0.242,0.041,0.146,0,-130.9,-76.6,0,2018,4,24,21,50,0.121,0.7871,-0.0378,-0.5069,0.3491
-0.295,-0.116,0.061,1.6,-116.7,-91.2,1023,2018,4,24,21,50,0.143,0.7808,-0.0623,-0.5142,0.3491
-0.294,-0.132,0.014,3.6,-74.4,-103.7,1023,2018,4,24,21,50,0.182,0.773,-0.0838,-0.5198,0.3536
-0.301,-0.126,-0.024,8.3,-46.7,-113.9,1023,2018,4,24,21,50,0.205,0.7646,-0.1011,-0.5228,0.363
-0.331,-0.209,0.021,10.4,-34.3,-122.1,1023,2018,4,24,21,50,0.209,0.7552,-0.1168,-0.5246,0.3751
-0.319,-0.119,0.097,16.9,-39.2,-131,1023,2018,4,24,21,50,0.227,0.7445,-0.1318,-0.5264,0.3887
-0.277,-0.003,0.06,26.3,-73.5,-135.1,1023,2018,4,24,21,50,0.245,0.7319,-0.1497,-0.53,0.401
-0.22,-0.049,-0.035,35.4,-100.7,-135.9,1023,2018,4,24,21,50,0.268,0.7168,-0.1714,-0.5366,0.4107
-0.191,-0.075,-0.05,38.3,-94.5,-133,1023,2018,4,24,21,50,0.284,0.7004,-0.1936,-0.5442,0.4191
-0.195,-0.34,-0.034,36.3,-72.2,-143.5,1023,2018,4,24,21,50,0.305,0.6831,-0.2146,-0.5506,0.4288
-0.17,-0.349,0.093,27.1,-24.2,-146.1,0,2018,4,24,21,50,0.321,0.6668,-0.2322,-0.5523,0.443
-0.118,-0.138,0.221,18.5,-10.9,-145,0,2018,4,24,21,50,0.345,0.6528,-0.246,-0.5494,0.4597
-0.079,-0.238,0.211,8.3,-6.1,-147.7,0,2018,4,24,21,50,0.364,0.6396,-0.2598,-0.5442,0.4765
-0.086,-0.308,0.249,-5.5,12.3,-148.9,0,2018,4,24,21,50,0.386,0.6274,-0.2733,-0.5363,0.4939
-0.075,-0.331,0.292,-23.1,33.1,-153.9,0,2018,4,24,21,50,0.405,0.6169,-0.286,-0.5241,0.5125
-0.051,-0.283,0.286,-38.6,46.1,-160.1,0,2018,4,24,21,50,0.428,0.6078,-0.2985,-0.5083,0.5319
-0.028,-0.227,0.235,-51.4,47.9,-167.3,0,2018,4,24,21,50,0.447,0.5993,-0.3117,-0.489,0.5516
-0.034,-0.249,0.187,-59.7,55.3,-173.3,0,2018,4,24,21,50,0.469,0.5903,-0.3261,-0.4679,0.571
-0.038,-0.3,0.162,-66.1,77.1,-177.8,0,2018,4,24,21,50,0.487,0.5814,-0.3397,-0.4442,0.5908
-0.051,-0.259,0.135,-70.4,98,-181.3,0,2018,4,24,21,50,0.51,0.5732,-0.3513,-0.4168,0.6117
-0.077,-0.177,0.104,-75.5,114.2,-182.6,0,2018,4,24,21,50,0.526,0.5653,-0.361,-0.3866,0.6327
-0.072,-0.172,0.058,-79,122.7,-183.5,0,2018,4,24,21,50,0.563,0.5576,-0.3695,-0.3542,0.6534
-0.095,-0.214,-0.025,-82.5,135.2,-183.6,0,2018,4,24,21,50,0.563,0.5496,-0.3771,-0.3198,0.6733
-0.096,-0.176,-0.111,-84.6,145.7,-182.1,0,2018,4,24,21,50,0.584,0.5415,-0.3833,-0.2828,0.6926
-0.112,-0.126,-0.205,-85.8,148.2,-178.8,0,2018,4,24,21,50,0.622,0.5333,-0.3881,-0.2445,0.7106
-0.123,-0.06,-0.243,-85.6,143.3,-176.2,0,2018,4,24,21,50,0.642,0.5243,-0.3924,-0.2062,0.7269
-0.095,-0.007,-0.184,-85.6,142.9,-171,0,2018,4,24,21,50,0.645,0.5146,-0.3961,-0.1682,0.7415
-0.066,0.035,-0.234,-85.5,134.7,-165,0,2018,4,24,21,50,0.681,0.5045,-0.3993,-0.1307,0.7542
-0.06,0.107,-0.285,-84.2,117.4,-155.3,0,2018,4,24,21,50,0.703,0.4938,-0.4026,-0.0953,0.7647
-0.042,0.145,-0.304,-81.3,94,-143.6,0,2018,4,24,21,50,0.707,0.4824,-0.4068,-0.0636,0.773
-0.001,0.136,-0.357,-76.4,73.9,-130.1,0,2018,4,24,21,50,0.725,0.4704,-0.4119,-0.0361,0.7795
0.023,0.133,-0.396,-66.4,51.9,-117.4,0,2018,4,24,21,50,0.746,0.4586,-0.417,-0.0127,0.7846
