ax,ay,az,dpitch,droll,dyaw,heart,time_1,time_2,time_3,time_4,time_5,time_6,w,x,y,z
0.231,0.011,-0.035,-89.1,-131.6,-89.9,0,2018,4,26,14,46,15.533,-0.2323,0.1232,0.5436,-0.797
0.137,-0.595,-0.116,-65.6,-125.9,-103.3,0,2018,4,26,14,46,15.554,-0.2225,0.1487,0.5577,-0.7856
0.127,-0.658,-0.375,-35.5,-26.1,-102.4,0,2018,4,26,14,46,15.563,-0.211,0.1685,0.5639,-0.7803
0.18,-0.428,-0.574,-6.9,84,-103.4,0,2018,4,26,14,46,15.599,-0.1998,0.1797,0.5556,-0.7867
0.145,0.156,-0.375,12.8,128,-100.8,0,2018,4,26,14,46,15.601,-0.1888,0.1849,0.5368,-0.8011
0.037,0.385,-0.205,28.9,90.9,-96.6,0,2018,4,26,14,46,15.618,-0.1765,0.1871,0.5184,-0.8154
-0.04,0.344,-0.247,43.9,21.2,-97,0,2018,4,26,14,46,15.658,-0.1611,0.1892,0.5089,-0.8241
0.054,0.144,-0.331,63.9,-26.7,-95.8,1023,2018,4,26,14,46,15.677,-0.1421,0.1903,0.5083,-0.8277
0.044,-0.004,-0.308,87,-29.4,-89.7,1023,2018,4,26,14,46,15.68,-0.1208,0.1883,0.5115,-0.8296
-0.023,-0.062,-0.219,103.9,10.7,-78,1023,2018,4,26,14,46,15.717,-0.0997,0.1822,0.5119,-0.8334
-0.094,-0.069,-0.207,113.7,71.8,-64,1023,2018,4,26,14,46,15.738,-0.0809,0.1719,0.5055,-0.8416
-0.095,0.104,-0.114,119.7,115.3,-53.2,1023,2018,4,26,14,46,15.744,-0.0651,0.1582,0.4904,-0.8544
-0.085,0.344,-0.015,116.2,90.6,-47.7,1023,2018,4,26,14,46,15.778,-0.0504,0.1432,0.474,-0.8673
-0.136,0.362,0.001,104.1,51.2,-39.2,1023,2018,4,26,14,46,15.798,-0.0365,0.1295,0.4631,-0.8759
-0.177,0.215,-0.002,89.1,36.3,-29.6,1023,2018,4,26,14,46,15.804,-0.0246,0.1173,0.4565,-0.8815
-0.178,0.272,0.055,74.2,28.4,-26.5,1023,2018,4,26,14,46,15.837,-0.0147,0.107,0.4509,-0.8859
-0.182,0.262,0.08,64.2,22.5,-22.3,1023,2018,4,26,14,46,15.859,-0.0059,0.0984,0.4468,-0.8891
-0.178,0.288,0.015,59.5,33.7,-13.9,0,2018,4,26,14,46,15.865,0.001,0.0902,0.4419,-0.8924
-0.212,0.442,0.043,52,32.5,-0.7,0,2018,4,26,14,46,15.901,0.0058,0.0821,0.4361,-0.896
-0.285,0.641,0.165,33.3,7.3,15,0,2018,4,26,14,46,15.921,0.0076,0.0748,0.4327,-0.8983
-0.273,0.703,0.17,7.4,-29.9,33.7,0,2018,4,26,14,46,15.922,0.0051,0.07,0.4345,-0.8978
-0.236,0.758,0.119,-16,-52.2,56.9,0,2018,4,26,14,46,15.959,-0.0018,0.0673,0.4417,-0.8946
-0.185,0.648,0.002,-35.9,-75,86.6,0,2018,4,26,14,46,15.981,-0.0144,0.066,0.4523,-0.8892
-0.177,0.458,-0.033,-49.4,-76.3,119.8,0,2018,4,26,14,46,15.988,-0.0334,0.0647,0.4651,-0.8821
-0.065,0.479,-0.08,-54.4,-61.2,145.3,0,2018,4,26,14,46,16.023,-0.0576,0.0625,0.4766,-0.8749
-0.028,0.324,-0.178,-49.6,-52.7,169.4,0,2018,4,26,14,46,16.045,-0.0855,0.0578,0.4857,-0.8679
-0.042,-0.112,-0.394,-36.8,-42,188.6,0,2018,4,26,14,46,16.05,-0.1161,0.0499,0.4943,-0.86
0.002,-0.214,-0.342,-13.9,13.4,193,0,2018,4,26,14,46,16.067,-0.1471,0.0373,0.4976,-0.8539
0.035,-0.229,-0.344,12.2,71.6,169.9,0,2018,4,26,14,46,16.105,-0.1744,0.02,0.4916,-0.8529
0.043,-0.378,-0.377,31.1,81.4,148.5,0,2018,4,26,14,46,16.108,-0.1961,0.0006,0.4806,-0.8546
-0.025,-0.657,-0.317,50.7,94.8,136.4,0,2018,4,26,14,46,16.125,-0.2137,-0.0204,0.4692,-0.8565
-0.052,-0.624,-0.124,66.3,132.9,110.9,0,2018,4,26,14,46,16.161,-0.2266,-0.044,0.4537,-0.8607
-0.04,-0.324,0.026,74.4,153.9,81.1,0,2018,4,26,14,46,16.179,-0.2339,-0.068,0.4337,-0.8674
-0.066,-0.123,0.061,75.1,158.5,61.6,0,2018,4,26,14,46,16.187,-0.2363,-0.091,0.4127,-0.8749
-0.181,-0.136,0.118,63.9,114.4,53.2,1023,2018,4,26,14,46,16.222,-0.2376,-0.1119,0.3933,-0.881
-0.306,-0.085,0.251,52.4,55.6,44.3,1023,2018,4,26,14,46,16.241,-0.2396,-0.1282,0.382,-0.8832
-0.365,-0.056,0.361,30.2,0.2,14.2,1023,2018,4,26,14,46,16.246,-0.2409,-0.1378,0.3787,-0.8828
-0.254,-0.331,0.351,-53.8,-132.1,-86.8,1023,2018,4,26,14,46,16.279,-0.2288,-0.1011,0.4362,-0.8643
-0.253,-0.405,0.29,-66.5,-145.7,-106.2,1023,2018,4,26,14,46,16.301,-0.2211,-0.0795,0.4558,-0.8584
-0.275,-0.652,0.13,-76.2,-157.6,-127.6,1023,2018,4,26,14,46,16.309,-0.2115,-0.0539,0.4774,-0.851
-0.164,-0.605,0.097,-75.8,-160.3,-170.8,1023,2018,4,26,14,46,16.346,-0.197,-0.0241,0.4994,-0.8433
-0.052,-0.446,0.056,-63.3,-174.8,-215.7,1023,2018,4,26,14,46,16.365,-0.1745,0.0091,0.5228,-0.8343
-0.041,-0.387,-0.034,-51.1,-182.9,-235.6,1023,2018,4,26,14,46,16.37,-0.1456,0.0439,0.5476,-0.8227
-0.075,-0.341,-0.173,-36.2,-153.7,-244.7,1023,2018,4,26,14,46,16.402,-0.1139,0.0777,0.5688,-0.8108
-0.135,-0.109,-0.044,-22.6,-99.6,-254.3,1023,2018,4,26,14,46,16.423,-0.0795,0.1089,0.5817,-0.802
-0.143,0.185,0.135,-11,-59.4,-248.5,0,2018,4,26,14,46,16.426,-0.0442,0.1378,0.5868,-0.7966
-0.193,0.265,0.021,-2.6,-23.1,-223.5,0,2018,4,26,14,46,16.461,-0.011,0.1631,0.5863,-0.7933
-0.219,0.453,-0.024,5.9,30.5,-186.2,0,2018,4,26,14,46,16.481,0.0172,0.1838,0.5793,-0.7938
-0.179,0.725,-0.044,12.2,59.2,-146,0,2018,4,26,14,46,16.486,0.0394,0.1993,0.5668,-0.7983
-0.143,0.931,-0.088,18,52.8,-100.4,0,2018,4,26,14,46,16.523,0.056,0.2096,0.5541,-0.8036
-0.137,0.909,-0.117,25.9,48.2,-47.9,0,2018,4,26,14,46,16.545,0.0665,0.2142,0.5439,-0.8085
-0.128,0.892,-0.114,35.3,63.8,10,0,2018,4,26,14,46,16.552,0.0697,0.2124,0.5347,-0.8148
-0.121,0.911,-0.065,45.9,89.8,70.4,0,2018,4,26,14,46,16.588,0.0645,0.2037,0.5244,-0.8241
-0.137,1,-0.007,53.1,97,126.2,0,2018,4,26,14,46,16.608,0.0511,0.1884,0.513,-0.8358
-0.171,1.048,-0.008,48.5,72.2,172.9,0,2018,4,26,14,46,16.612,0.0306,0.1681,0.5045,-0.8462
-0.165,0.962,-0.104,39.5,42.9,209.2,0,2018,4,26,14,46,16.647,0.0042,0.145,0.5011,-0.853
-0.188,0.644,-0.124,36.9,41.7,238.3,0,2018,4,26,14,46,16.667,-0.027,0.1198,0.5003,-0.857
-0.201,0.527,-0.034,46.2,61.8,262.2,0,2018,4,26,14,46,16.669,-0.062,0.0913,0.4974,-0.8604
-0.237,0.445,-0.103,57.4,37.5,275.5,0,2018,4,26,14,46,16.705,-0.0989,0.0595,0.4937,-0.8618
-0.266,0.101,-0.275,62.9,7,278.4,0,2018,4,26,14,46,16.723,-0.1355,0.0259,0.4943,-0.8582
-0.266,-0.195,-0.223,63.9,32.5,266.9,0,2018,4,26,14,46,16.73,-0.1709,-0.0078,0.4935,-0.8526
-0.321,-0.316,-0.125,60.1,19.3,234.7,0,2018,4,26,14,46,16.769,-0.2028,-0.0396,0.49,-0.8468
-0.469,-0.913,-0.057,60.3,-2.9,177.4,1023,2018,4,26,14,46,16.788,-0.2278,-0.0664,0.4897,-0.8389
-0.315,-0.907,0.159,53.5,7.6,117.1,1023,2018,4,26,14,46,16.791,-0.244,-0.0873,0.49,-0.8322
-0.169,-0.724,0.174,47.6,25.1,68.6,1023,2018,4,26,14,46,16.83,-0.2521,-0.1033,0.4881,-0.8291
-0.144,-0.397,0.155,32.1,-3.4,42.5,1023,2018,4,26,14,46,16.851,-0.2558,-0.1137,0.4879,-0.8267
-0.14,-0.292,0.127,17.3,-34.4,32.2,1023,2018,4,26,14,46,16.854,-0.259,-0.1194,0.492,-0.8224
-0.114,-0.196,0.156,8,-44.2,20.5,1023,2018,4,26,14,46,16.87,-0.2626,-0.1213,0.4979,-0.8174
-0.142,-0.294,0.175,4.9,-32.9,9.4,1023,2018,4,26,14,46,16.907,-0.2647,-0.1217,0.5035,-0.8133
-0.2,-0.354,0.184,2,-16.2,3.4,1023,2018,4,26,14,46,16.927,-0.2654,-0.1216,0.5072,-0.8107
-0.225,-0.275,0.229,-2.3,-5.6,-7.9,1023,2018,4,26,14,46,16.932,-0.2652,-0.1212,0.5087,-0.8099
-0.206,-0.219,0.261,-8.6,-5.3,-23.3,1023,2018,4,26,14,46,16.969,-0.2638,-0.1191,0.509,-0.8106
-0.222,-0.257,0.272,-14.8,-6.5,-34,1023,2018,4,26,14,46,16.989,-0.2609,-0.115,0.5094,-0.8118
-0.222,-0.36,0.245,-22.9,-1.8,-42.8,1023,2018,4,26,14,46,16.994,-0.2573,-0.1089,0.5096,-0.8137
-0.197,-0.345,0.205,-28,1.1,-56.9,0,2018,4,26,14,46,17.03,-0.2524,-0.101,0.5094,-0.8164
-0.195,-0.28,0.166,-33.9,-13.5,-78.6,0,2018,4,26,14,46,17.049,-0.2454,-0.0907,0.51,-0.8193
-0.174,-0.242,0.157,-42.9,-47.6,-105.3,0,2018,4,26,14,46,17.052,-0.2361,-0.0762,0.5141,-0.821
-0.124,-0.258,0.13,-48.7,-84.6,-130.7,0,2018,4,26,14,46,17.084,-0.2241,-0.0564,0.5231,-0.8202
-0.095,-0.298,0.103,-49,-108.3,-149,0,2018,4,26,14,46,17.104,-0.209,-0.0328,0.537,-0.8165
-0.11,-0.309,0.022,-45.8,-108,-166.5,0,2018,4,26,14,46,17.111,-0.1913,-0.0073,0.5522,-0.8114
-0.098,-0.334,-0.106,-40.1,-97.3,-189,0,2018,4,26,14,46,17.149,-0.1702,0.0192,0.5654,-0.8067
-0.074,-0.279,-0.142,-27.3,-79.4,-209,0,2018,4,26,14,46,17.169,-0.1448,0.0464,0.5761,-0.803
-0.106,-0.275,-0.143,-13.2,-55,-216.5,0,2018,4,26,14,46,17.175,-0.1161,0.0723,0.5828,-0.8009
-0.12,-0.152,-0.216,-0.5,-32.8,-214.6,0,2018,4,26,14,46,17.211,-0.086,0.0961,0.5857,-0.8001
-0.13,0.04,-0.219,14.2,1.5,-212.9,0,2018,4,26,14,46,17.233,-0.0551,0.1171,0.5839,-0.8013
-0.158,0.219,-0.142,28.9,34.7,-204.7,0,2018,4,26,14,46,17.237,-0.0239,0.1352,0.5768,-0.8052
-0.183,0.499,-0.049,37.2,57.9,-184.8,0,2018,4,26,14,46,17.274,0.0056,0.1498,0.5651,-0.8112
-0.196,0.789,-0.029,40.3,67.5,-154,0,2018,4,26,14,46,17.294,0.0318,0.161,0.5512,-0.818
-0.18,0.936,-0.003,40.5,71.2,-111.4,0,2018,4,26,14,46,17.295,0.0526,0.1684,0.5369,-0.8249
-0.191,0.929,-0.017,36.7,83.1,-52.2,1023,2018,4,26,14,46,17.328,0.0655,0.1711,0.5227,-0.8325
-0.188,0.992,-0.021,31,93.6,9.9,1023,2018,4,26,14,46,17.35,0.0685,0.1692,0.5083,-0.8415
-0.183,1.105,-0.039,24,82.5,66.1,1023,2018,4,26,14,46,17.352,0.0622,0.1627,0.4957,-0.8507
-0.16,1.007,-0.096,17.5,65.5,113.6,1023,2018,4,26,14,46,17.387,0.0482,0.1526,0.487,-0.8585
-0.14,0.761,-0.123,19.7,67.6,152.2,1023,2018,4,26,14,46,17.407,0.0276,0.139,0.4803,-0.8655
-0.149,0.911,0.007,22.7,48.4,178.4,1023,2018,4,26,14,46,17.414,0.0027,0.1221,0.4747,-0.8716
-0.164,0.868,-0.072,19.1,-6.7,200.5,1023,2018,4,26,14,46,17.449,-0.0249,0.1031,0.475,-0.8735
-0.209,0.504,-0.219,14.2,-44.6,221.5,1023,2018,4,26,14,46,17.47,-0.0553,0.0832,0.4832,-0.8697
-0.232,0.193,-0.173,12.4,-37.4,234.7,1023,2018,4,26,14,46,17.475,-0.0886,0.0622,0.4923,-0.8636
-0.214,0.117,-0.133,14.8,-43,232.8,1023,2018,4,26,14,46,17.51,-0.1224,0.0407,0.5002,-0.8562
-0.235,-0.084,-0.147,20.6,-58.3,224.4,1023,2018,4,26,14,46,17.53,-0.1546,0.0193,0.5097,-0.846
-0.264,-0.538,-0.228,27.4,-27.4,213.3,0,2018,4,26,14,46,17.538,-0.1847,-0.0023,0.518,-0.8351
-0.231,-0.666,-0.165,34.1,31.9,186.8,0,2018,4,26,14,46,17.574,-0.2109,-0.0254,0.5177,-0.8287
-0.229,-0.644,-0.054,40.3,44.8,152.9,0,2018,4,26,14,46,17.594,-0.2314,-0.0479,0.5118,-0.8259
-0.208,-0.535,0.045,43,18.8,122.5,0,2018,4,26,14,46,17.597,-0.2469,-0.0675,0.5078,-0.8225
-0.2,-0.547,0.033,42.8,2.6,89,0,2018,4,26,14,46,17.634,-0.258,-0.0835,0.5072,-0.8179
-0.213,-0.635,0.101,32.8,-1.2,53.3,0,2018,4,26,14,46,17.653,-0.2645,-0.0953,0.5082,-0.814
-0.199,-0.544,0.204,22.1,7.2,24.8,0,2018,4,26,14,46,17.654,-0.267,-0.1026,0.5087,-0.812
-0.152,-0.339,0.265,13.7,4.5,0.6,0,2018,4,26,14,46,17.689,-0.2665,-0.1063,0.5086,-0.8117
-0.117,-0.243,0.254,7.8,-2,-15.8,0,2018,4,26,14,46,17.712,-0.2642,-0.1068,0.5088,-0.8123
-0.124,-0.254,0.24,-0.1,-0.8,-20.9,0,2018,4,26,14,46,17.718,-0.2611,-0.1054,0.5091,-0.8132
-0.147,-0.218,0.264,-9.3,9.5,-23.1,0,2018,4,26,14,46,17.755,-0.2581,-0.1031,0.5083,-0.815
-0.12,-0.122,0.249,-18.8,6.6,-33.7,0,2018,4,26,14,46,17.773,-0.2555,-0.0992,0.5059,-0.8178
-0.104,-0.139,0.163,-23.9,-9,-46.9,0,2018,4,26,14,46,17.779,-0.2518,-0.0927,0.5052,-0.8201
-0.117,-0.197,0.105,-28.5,-17.1,-55.7,0,2018,4,26,14,46,17.814,-0.2468,-0.0842,0.5069,-0.8215
-0.1,-0.193,0.095,-33.5,-20.8,-66.5,0,2018,4,26,14,46,17.833,-0.241,-0.0737,0.5092,-0.8228
-0.102,-0.222,0.029,-36.9,-35.7,-82.2,0,2018,4,26,14,46,17.834,-0.2337,-0.0612,0.513,-0.8236
-0.05,-0.218,-0.039,-31.5,-55.4,-102.4,1023,2018,4,26,14,46,17.867,-0.2236,-0.046,0.52,-0.823
-0.022,-0.212,-0.097,-22.3,-66.8,-117.6,1023,2018,4,26,14,46,17.889,-0.2102,-0.0298,0.5291,-0.8215
-0.021,-0.29,-0.15,-15.8,-62.8,-123.7,1023,2018,4,26,14,46,17.895,-0.1948,-0.0134,0.5386,-0.8195
-0.021,-0.241,-0.139,-8.2,-37.7,-128.5,1023,2018,4,26,14,46,17.931,-0.178,0.0017,0.5457,-0.8188
-0.011,-0.007,-0.113,4.1,-30.6,-137.3,1023,2018,4,26,14,46,17.953,-0.1589,0.0156,0.5505,-0.8193
-0.022,0.096,-0.028,17.5,-48.1,-139.4,1023,2018,4,26,14,46,17.96,-0.1377,0.0283,0.5562,-0.819
-0.06,0.002,-0.011,26.8,-64.2,-134.1,1023,2018,4,26,14,46,18,-0.1159,0.0394,0.5642,-0.8164
-0.109,-0.079,-0.015,30.3,-63.5,-132.5,1023,2018,4,26,14,46,18.022,-0.094,0.049,0.5728,-0.8127
-0.1,0.011,0.137,27.5,-47.3,-132.7,1023,2018,4,26,14,46,18.026,-0.0721,0.0586,0.5796,-0.8095
-0.123,0.035,0.164,21,-39.4,-131.5,1023,2018,4,26,14,46,18.044,-0.0505,0.069,0.5844,-0.8068
-0.16,0.048,0.216,11.2,-22.3,-130.9,1023,2018,4,26,14,46,18.065,-0.0301,0.0804,0.5873,-0.8047
-0.126,0.062,0.166,-0.1,-11.9,-130.9,0,2018,4,26,14,46,18.085,-0.011,0.0933,0.5875,-0.8037
-0.1,0.033,0.026,-6.6,-4.8,-124.1,0,2018,4,26,14,46,18.118,0.0064,0.1069,0.5862,-0.803
-0.066,0.118,-0.043,-7.6,6.7,-116.6,0,2018,4,26,14,46,18.14,0.0219,0.1197,0.5832,-0.8031
-0.016,0.192,-0.145,-2.7,17.6,-109.7,0,2018,4,26,14,46,18.145,0.0368,0.1323,0.579,-0.8036
-0.001,0.339,-0.209,5.6,28.1,-99,0,2018,4,26,14,46,18.161,0.051,0.1429,0.5731,-0.8052
-0.024,0.456,-0.211,16.4,30.2,-82.4,0,2018,4,26,14,46,18.198,0.0642,0.1507,0.5663,-0.8077
-0.058,0.421,-0.2,26.5,42.3,-55.8,0,2018,4,26,14,46,18.217,0.0752,0.1548,0.5593,-0.8108
-0.053,0.492,-0.183,38.4,75.7,-25.9,0,2018,4,26,14,46,18.22,0.0822,0.155,0.5489,-0.8172
-0.079,0.657,-0.11,46.3,76.4,5.5,0,2018,4,26,14,46,18.254,0.0854,0.151,0.5363,-0.8259
-0.117,0.681,-0.016,49.1,56.8,37.1,0,2018,4,26,14,46,18.275,0.0849,0.143,0.5264,-0.8337
-0.135,0.486,-0.007,47,57.8,66.2,0,2018,4,26,14,46,18.282,0.0801,0.1321,0.5188,-0.8408
-0.095,0.227,-0.028,47.3,105,92.8,0,2018,4,26,14,46,18.316,0.0705,0.119,0.5079,-0.8502
-0.083,0.203,0.063,53.1,182.3,117.2,0,2018,4,26,14,46,18.336,0.0558,0.1034,0.4863,-0.8657
-0.071,0.575,0.054,49.7,183.1,132,0,2018,4,26,14,46,18.339,0.0375,0.087,0.4586,-0.8835
-0.088,0.63,-0.056,44.2,119,145.1,0,2018,4,26,14,46,18.375,0.0174,0.0697,0.4362,-0.8969
-0.053,0.45,-0.094,44.8,65.3,153.1,0,2018,4,26,14,46,18.396,-0.004,0.0518,0.4237,-0.9042
-0.105,0.644,0.046,42,0.1,152.3,0,2018,4,26,14,46,18.401,-0.0252,0.0338,0.4194,-0.9068
-0.167,0.36,-0.008,38.1,-59.7,159.6,1023,2018,4,26,14,46,18.437,-0.0467,0.0161,0.4254,-0.9036
-0.18,0.021,-0.056,29.7,-76.5,169.2,1023,2018,4,26,14,46,18.456,-0.0699,-0.0007,0.4375,-0.8964
-0.182,-0.381,-0.012,21.8,-35.9,171,1023,2018,4,26,14,46,18.462,-0.095,-0.0169,0.4468,-0.8893
-0.127,-0.323,0.094,21.7,-1.2,156.6,1023,2018,4,26,14,46,18.495,-0.1193,-0.0327,0.4489,-0.8849
-0.116,-0.211,0.104,27.3,3.9,129.5,1023,2018,4,26,14,46,18.516,-0.1394,-0.0483,0.4479,-0.8817
-0.139,-0.289,0.025,23.7,-17.7,107.5,1023,2018,4,26,14,46,18.523,-0.1557,-0.0617,0.4489,-0.8777
-0.108,-0.281,0.073,13.4,-22.8,93.5,1023,2018,4,26,14,46,18.558,-0.1696,-0.0722,0.4521,-0.8726
-0.101,-0.274,0.138,2.9,-29.5,81.1,1023,2018,4,26,14,46,18.577,-0.1823,-0.0795,0.4558,-0.8675
-0.159,-0.456,0.136,-6.9,-33.3,70.4,1023,2018,4,26,14,46,18.586,-0.1942,-0.0841,0.4604,-0.862
-0.163,-0.583,0.084,-9.3,-19.5,50.1,1023,2018,4,26,14,46,18.62,-0.2045,-0.0867,0.4637,-0.8576
-0.119,-0.46,0.061,-12.1,-11.7,15.8,0,2018,4,26,14,46,18.642,-0.2102,-0.0874,0.4651,-0.8554
-0.092,-0.334,0.054,-14.2,-28.4,-13.7,0,2018,4,26,14,46,18.645,-0.2114,-0.0846,0.4676,-0.854
-0.093,-0.252,0.103,-16.9,-66.7,-40.5,0,2018,4,26,14,46,18.681,-0.209,-0.0782,0.4754,-0.8509
-0.082,-0.348,0.102,-15.3,-106,-67.3,0,2018,4,26,14,46,18.7,-0.2032,-0.0678,0.4892,-0.8453
-0.111,-0.38,0.124,-18.7,-129.2,-92.5,0,2018,4,26,14,46,18.703,-0.194,-0.054,0.5074,-0.8377
-0.084,-0.417,0.094,-20.5,-137.9,-114.9,0,2018,4,26,14,46,18.738,-0.1816,-0.0369,0.5277,-0.8289
-0.059,-0.339,0.118,-21.3,-127,-134,0,2018,4,26,14,46,18.759,-0.166,-0.018,0.5472,-0.8201
-0.047,-0.474,-0.02,-17.1,-113.2,-151.6,0,2018,4,26,14,46,18.767,-0.1476,0.0023,0.5645,-0.812
-0.068,-0.439,-0.041,-14.2,-97.7,-167.7,0,2018,4,26,14,46,18.803,-0.1263,0.0229,0.5795,-0.8047
-0.028,-0.366,-0.02,-4.9,-85.9,-186.3,0,2018,4,26,14,46,18.821,-0.1019,0.0443,0.5919,-0.7982
-0.046,-0.356,-0.017,6.6,-69.6,-201.1,0,2018,4,26,14,46,18.824,-0.0741,0.0657,0.6014,-0.7927
-0.085,-0.295,-0.042,19.4,-26.3,-204.8,0,2018,4,26,14,46,18.858,-0.0442,0.0855,0.6063,-0.7893
-0.101,0.033,-0.013,30,15,-203,0,2018,4,26,14,46,18.879,-0.0141,0.103,0.6037,-0.7903
-0.075,0.229,-0.038,44,40.2,-197,0,2018,4,26,14,46,18.886,0.0165,0.1185,0.5955,-0.7943
-0.121,0.368,-0.093,53.3,77.2,-171.8,0,2018,4,26,14,46,18.923,0.0458,0.1308,0.5826,-0.8008
-0.138,0.563,0.006,57.8,104.3,-136.4,0,2018,4,26,14,46,18.943,0.0706,0.1393,0.5645,-0.8104
-0.146,0.655,0.053,55,107.6,-97.6,1023,2018,4,26,14,46,18.948,0.0898,0.1441,0.5451,-0.8209
-0.156,0.839,0.05,45,70.3,-60.2,1023,2018,4,26,14,46,18.983,0.1032,0.1458,0.5288,-0.8296
-0.14,0.709,0.004,35,23.3,-30.1,1023,2018,4,26,14,46,19.005,0.112,0.145,0.5202,-0.8341
-0.114,0.391,-0.02,26.1,4.7,-3.5,1023,2018,4,26,14,46,19.009,0.1167,0.1423,0.5174,-0.8356
-0.106,0.168,0.019,24.8,17.7,14.6,1023,2018,4,26,14,46,19.03,0.1175,0.1383,0.5147,-0.8379
-0.057,0.138,-0.011,25.6,27.5,24.2,1023,2018,4,26,14,46,19.05,0.1159,0.133,0.5101,-0.8417
-0.034,0.05,-0.096,25.4,18.6,25,1023,2018,4,26,14,46,19.089,0.1138,0.1274,0.5065,-0.845
-0.039,0.054,-0.051,22.2,4.3,20.3,1023,2018,4,26,14,46,19.11,0.1121,0.122,0.5051,-0.8469
-0.043,0.014,0.038,17.5,0.3,19.1,1023,2018,4,26,14,46,19.115,0.1109,0.1172,0.5051,-0.8477
-0.097,-0.001,0.176,14.4,18.4,21.7,1023,2018,4,26,14,46,19.129,0.1088,0.1133,0.5033,-0.8496
-0.113,0.035,0.084,9.5,39.3,28.8,1023,2018,4,26,14,46,19.168,0.1055,0.1098,0.499,-0.853
-0.098,0.138,0.021,0.6,31.1,31.6,1023,2018,4,26,14,46,19.188,0.1004,0.107,0.4937,-0.8571
-0.075,0.144,0.044,-3.7,5.3,24.4,0,2018,4,26,14,46,19.192,0.0954,0.1053,0.4911,-0.8593
-0.061,0.074,0.029,-2.1,-5.5,15.5,0,2018,4,26,14,46,19.212,0.0922,0.1037,0.491,-0.8599
-0.027,0.063,-0.038,-1.6,-6.4,14.9,0,2018,4,26,14,46,19.232,0.0897,0.1024,0.4916,-0.86
-0.026,0.113,-0.03,-3.6,-2.2,20.3,0,2018,4,26,14,46,19.252,0.0868,0.1012,0.4921,-0.8602
-0.018,0.144,0.026,-6.8,0.7,22.5,0,2018,4,26,14,46,19.29,0.0832,0.1002,0.492,-0.8607
-0.006,0.138,0.035,-9.9,-14.3,23.7,0,2018,4,26,14,46,19.311,0.0792,0.0995,0.4925,-0.8609
0.011,0.08,0.011,-10.1,-27.7,24,0,2018,4,26,14,46,19.315,0.0752,0.0989,0.4953,-0.8597
0.035,0.027,-0.008,-6,-22.4,26.9,0,2018,4,26,14,46,19.335,0.0711,0.098,0.4993,-0.8578
0.019,0.142,-0.009,-3.8,-7.4,34.1,0,2018,4,26,14,46,19.353,0.0665,0.0964,0.5016,-0.857
0.031,0.141,-0.044,-3.7,-17.2,40.6,0,2018,4,26,14,46,19.371,0.061,0.0942,0.5035,-0.8566
0.034,0.117,-0.009,-4.4,-25.4,42.2,0,2018,4,26,14,46,19.406,0.055,0.0914,0.5068,-0.8553
0.016,0.119,0.104,-1.9,-19.1,49.2,0,2018,4,26,14,46,19.427,0.0484,0.0881,0.5099,-0.8543
0.01,0.27,0.209,-1.8,-6.2,60.5,0,2018,4,26,14,46,19.431,0.0401,0.0835,0.5123,-0.8537
-0.041,0.411,0.145,-6.6,0,79.2,0,2018,4,26,14,46,19.451,0.0293,0.0778,0.5136,-0.8539
-0.046,0.372,0.037,-10.2,11.2,104.4,0,2018,4,26,14,46,19.472,0.0146,0.071,0.514,-0.8546
-0.045,0.254,-0.056,-10.2,35.2,126.9,0,2018,4,26,14,46,19.492,-0.0041,0.062,0.5115,-0.857
-0.039,0.403,0.009,-4.5,53.2,140.1,1023,2018,4,26,14,46,19.512,-0.0255,0.0509,0.5049,-0.8612
-0.062,0.352,-0.019,3.4,32.9,151.1,1023,2018,4,26,14,46,19.55,-0.0478,0.0379,0.4994,-0.8642
-0.043,-0.006,-0.184,13.9,37.2,163.9,1023,2018,4,26,14,46,19.57,-0.0713,0.0223,0.4958,-0.8651
0.003,-0.273,-0.243,27.3,94.7,164.7,1023,2018,4,26,14,46,19.573,-0.0946,0.0038,0.4867,-0.8683
0.01,0.056,-0.079,35.6,99.3,151.9,1023,2018,4,26,14,46,19.594,-0.1157,-0.0161,0.4718,-0.8738
-0.052,0.099,0.066,38.4,47.6,139.1,1023,2018,4,26,14,46,19.614,-0.1347,-0.0357,0.4603,-0.8766
-0.143,-0.385,0.041,36.6,19.3,127.5,1023,2018,4,26,14,46,19.633,-0.1519,-0.0532,0.4565,-0.8749
-0.101,-0.48,-0.021,32.8,56.1,117.4,1023,2018,4,26,14,46,19.652,-0.1674,-0.0695,0.4504,-0.8741
-0.096,-0.158,-0.046,26.4,64.2,100.5,1023,2018,4,26,14,46,19.693,-0.1807,-0.0845,0.4403,-0.8753
-0.102,-0.059,-0.039,20.8,27.7,81.1,1023,2018,4,26,14,46,19.713,-0.192,-0.0972,0.4336,-0.8749
-0.115,-0.272,-0.064,21.6,4.1,60.1,1023,2018,4,26,14,46,19.717,-0.2009,-0.1064,0.4316,-0.8728
-0.099,-0.275,-0.065,23.5,19.2,44.1,0,2018,4,26,14,46,19.735,-0.2067,-0.1142,0.4301,-0.8713
-0.073,-0.119,-0.013,22.5,31.2,34.5,0,2018,4,26,14,46,19.754,-0.2101,-0.1217,0.4265,-0.8712
-0.058,-0.05,0.02,26.7,39.8,32.9,0,2018,4,26,14,46,19.776,-0.2149,-0.137,0.4168,-0.8724
-0.1,-0.033,0.058,28.3,31.7,31.7,0,2018,4,26,14,46,19.795,-0.217,-0.1454,0.4118,-0.873
-0.092,0.029,0.097,23.2,22.4,27.4,0,2018,4,26,14,46,19.818,-0.2191,-0.1533,0.4076,-0.873
-0.096,0.073,0.104,14.2,5.6,21.5,0,2018,4,26,14,46,19.838,-0.2211,-0.1588,0.4055,-0.8725
-0.116,0.008,0.166,5.1,-8.5,16.2,0,2018,4,26,14,46,19.854,-0.2235,-0.162,0.4051,-0.8715
-0.181,-0.119,0.277,-3.5,-20.4,9.6,0,2018,4,26,14,46,19.892,-0.226,-0.1629,0.4065,-0.8701
-0.119,-0.119,0.275,-10.7,-32.1,-1.9,0,2018,4,26,14,46,19.914,-0.2281,-0.1612,0.4093,-0.8685
-0.084,-0.093,0.209,-17.7,-44.2,-12.7,0,2018,4,26,14,46,19.918,-0.2291,-0.1569,0.4144,-0.8666
-0.076,-0.095,0.166,-25.1,-46.8,-16.6,0,2018,4,26,14,46,19.952,-0.2295,-0.1508,0.4206,-0.8646
-0.082,-0.183,0.182,-31.2,-39.8,-19.9,0,2018,4,26,14,46,19.974,-0.2298,-0.1434,0.4265,-0.8629
-0.11,-0.149,0.208,-40.7,-38,-31.2,0,2018,4,26,14,46,19.978,-0.2294,-0.1347,0.4313,-0.862
-0.036,-0.076,0.156,-44.7,-55.1,-47.2,0,2018,4,26,14,46,20.016,-0.2277,-0.1232,0.437,-0.8613
0.006,-0.089,0.075,-46.7,-71,-54.7,0,2018,4,26,14,46,20.037,-0.2245,-0.1096,0.4457,-0.8595
0.01,-0.113,0.033,-48,-73.8,-57.7,0,2018,4,26,14,46,20.041,-0.2208,-0.0948,0.456,-0.8568
-0.024,-0.129,0.012,-47.1,-59.9,-60.5,1023,2018,4,26,14,46,20.061,-0.2164,-0.0801,0.4659,-0.8541
-0.039,-0.29,-0.05,-43.7,-44,-67.5,1023,2018,4,26,14,46,20.074,-0.211,-0.066,0.4731,-0.8527
-0.018,-0.261,-0.088,-40.2,-37.1,-78,1023,2018,4,26,14,46,20.115,-0.2039,-0.0524,0.4783,-0.8525
-0.058,-0.399,-0.162,-34.4,-55.4,-96.7,1023,2018,4,26,14,46,20.134,-0.1943,-0.0381,0.4844,-0.8521
-0.033,-0.378,-0.174,-27.3,-85,-129,1023,2018,4,26,14,46,20.139,-0.1804,-0.0218,0.4943,-0.85
0,-0.298,-0.12,-16,-137.2,-170.4,1023,2018,4,26,14,46,20.156,-0.1599,-0.0022,0.5106,-0.8447
0.012,-0.328,-0.065,-0.6,-167.3,-197.3,1023,2018,4,26,14,46,20.196,-0.133,0.0201,0.5337,-0.8348
-0.081,-0.397,-0.067,13.6,-131.3,-210.1,1023,2018,4,26,14,46,20.216,-0.1019,0.0417,0.5549,-0.8245
-0.138,-0.244,-0.007,19.5,-77.8,-213.7,1023,2018,4,26,14,46,20.22,-0.0689,0.0617,0.568,-0.8177
-0.149,0.013,0.091,21.3,-41.7,-207.4,1023,2018,4,26,14,46,20.237,-0.0363,0.0803,0.5734,-0.8145
-0.166,0.211,0.099,22.2,-23.9,-193.4,1023,2018,4,26,14,46,20.277,-0.0051,0.0974,0.5745,-0.8126
-0.198,0.345,0.067,22.5,-3.4,-175.4,1023,2018,4,26,14,46,20.298,0.0234,0.1127,0.573,-0.8113
-0.185,0.421,0.009,19.1,17.2,-149.8,0,2018,4,26,14,46,20.302,0.0482,0.1262,0.5681,-0.8117
-0.179,0.622,0.082,15.2,32.5,-118,0,2018,4,26,14,46,20.323,0.0681,0.1373,0.5608,-0.8135
-0.196,0.624,0.092,11.2,45.4,-76.4,0,2018,4,26,14,46,20.342,0.0821,0.1455,0.5525,-0.8165
-0.176,0.619,-0.001,9.1,67.2,-34.8,0,2018,4,26,14,46,20.357,0.0892,0.1502,0.5426,-0.8215
-0.104,0.711,-0.111,11.1,78.2,1.4,0,2018,4,26,14,46,20.396,0.0902,0.1515,0.5308,-0.8288
-0.073,0.794,-0.128,13.4,48.9,32,0,2018,4,26,14,46,20.415,0.087,0.1491,0.5215,-0.8355
-0.055,0.672,-0.102,15.6,23,61.6,0,2018,4,26,14,46,20.419,0.0804,0.1432,0.5174,-0.8397
-0.025,0.546,-0.074,18.1,30.3,90.8,0,2018,4,26,14,46,20.458,0.07,0.1341,0.5156,-0.8433
-0.061,0.723,0.056,18.9,33.2,117,0,2018,4,26,14,46,20.479,0.0554,0.1223,0.5123,-0.8481
-0.086,0.814,0.109,15.4,12.9,145.3,0,2018,4,26,14,46,20.483,0.0368,0.1083,0.5112,-0.8517
-0.114,0.675,0.008,9.1,-7.7,173.6,0,2018,4,26,14,46,20.503,0.0139,0.0922,0.5138,-0.8527
-0.144,0.47,-0.048,7.8,12.4,199.9,0,2018,4,26,14,46,20.538,-0.0132,0.0742,0.5166,-0.8528
-0.152,0.357,-0.018,12.2,60.6,224.6,0,2018,4,26,14,46,20.559,-0.0443,0.0533,0.5135,-0.8552
-0.152,0.426,-0.023,17.3,81.4,248,0,2018,4,26,14,46,20.586,-0.079,0.0291,0.5042,-0.8594
-0.207,0.405,-0.051,27.6,68.6,260.2,0,2018,4,26,14,46,20.608,-0.1155,0.0021,0.4942,-0.8616
-0.24,0.085,-0.153,42,56.5,262,0,2018,4,26,14,46,20.61,-0.1516,-0.027,0.4854,-0.8605
-0.29,-0.541,-0.247,51.9,43.9,252.3,1023,2018,4,26,14,46,20.619,-0.1858,-0.0573,0.4776,-0.8567
-0.389,-0.768,-0.101,61.4,53.2,217.9,1023,2018,4,26,14,46,20.66,-0.2157,-0.0871,0.47,-0.8514
-0.354,-0.644,0.059,63,66.7,157.5,1023,2018,4,26,14,46,20.68,-0.2369,-0.1144,0.4604,-0.8477
-0.295,-0.524,0.194,47.5,38.4,108.7,1023,2018,4,26,14,46,20.684,-0.25,-0.1356,0.4523,-0.8452
-0.311,-0.536,0.229,24.5,-13.2,80,1023,2018,4,26,14,46,20.703,-0.2605,-0.1487,0.4507,-0.8406
-0.315,-0.53,0.194,6.4,-35.9,51.1,1023,2018,4,26,14,46,20.721,-0.2691,-0.1549,0.4549,-0.8345
-0.202,-0.438,0.168,-4.6,-30.6,21.6,1023,2018,4,26,14,46,20.742,-0.2744,-0.156,0.4603,-0.8296
-0.103,-0.299,0.162,-8.5,-11.8,5,1023,2018,4,26,14,46,20.781,-0.2766,-0.1545,0.4634,-0.8275
-0.1,-0.245,0.167,-7.5,-5.5,0.2,1023,2018,4,26,14,46,20.802,-0.2773,-0.1527,0.4643,-0.8271
-0.124,-0.197,0.175,-5.3,-7,-5.1,1023,2018,4,26,14,46,20.806,-0.2772,-0.1512,0.4653,-0.8268
-0.066,-0.115,0.13,-2.8,-7.6,-15.8,1023,2018,4,26,14,46,20.824,-0.276,-0.1494,0.4663,-0.827
-0.026,-0.1,0.088,-1.5,-4,-22.4,0,2018,4,26,14,46,20.858,-0.273,-0.147,0.4678,-0.8275
-0.046,-0.112,0.072,-2.1,7.7,-20.3,0,2018,4,26,14,46,20.88,-0.2696,-0.1451,0.4681,-0.8288
-0.093,-0.135,0.106,-5.5,19.8,-21.3,0,2018,4,26,14,46,20.884,-0.2663,-0.1436,0.4667,-0.831
-0.094,-0.101,0.111,-11.3,18.2,-28.9,0,2018,4,26,14,46,20.921,-0.2629,-0.1414,0.4638,-0.834
-0.051,-0.041,0.084,-14.8,8.2,-40,0,2018,4,26,14,46,20.942,-0.2586,-0.1374,0.4619,-0.8371
-0.026,-0.045,0.037,-14.8,-2.7,-48,0,2018,4,26,14,46,20.946,-0.253,-0.1318,0.462,-0.8397
-0.021,-0.064,0.026,-14.5,-15.2,-50.9,0,2018,4,26,14,46,20.965,-0.2469,-0.1253,0.4639,-0.8414
-0.066,-0.083,0.057,-15.8,-16.4,-53.7,0,2018,4,26,14,46,20.984,-0.2406,-0.1184,0.4671,-0.8425
-0.057,-0.098,0.066,-18.5,-15.2,-61.1,0,2018,4,26,14,46,21.006,-0.2339,-0.1105,0.4697,-0.8439
-0.021,0.009,0.017,-18.7,-17.1,-69.4,0,2018,4,26,14,46,21.026,-0.2261,-0.1019,0.4722,-0.8458
-0.061,-0.01,-0.02,-16.8,-34.7,-75.2,0,2018,4,26,14,46,21.046,-0.2172,-0.0926,0.4767,-0.8467
-0.13,-0.157,-0.039,-15.7,-53.4,-81.3,0,2018,4,26,14,46,21.066,-0.2078,-0.0826,0.4845,-0.8456
-0.136,-0.254,-0.005,-17.1,-63.9,-94.4,0,2018,4,26,14,46,21.084,-0.197,-0.0707,0.4943,-0.8436
-0.053,-0.244,0.02,-15.8,-62.2,-113.8,0,2018,4,26,14,46,21.121,-0.1837,-0.0571,0.5048,-0.8415
-0.02,-0.142,-0.009,-8.8,-68.7,-129.9,0,2018,4,26,14,46,21.14,-0.1669,-0.0424,0.5155,-0.8393
-0.041,-0.26,-0.052,0.5,-66.1,-138.1,0,2018,4,26,14,46,21.144,-0.1478,-0.0275,0.5275,-0.836
-0.056,-0.23,0.003,4.5,-51.1,-151.3,1023,2018,4,26,14,46,21.182,-0.1266,-0.013,0.5376,-0.8334
-0.068,-0.014,0.135,-0.8,-45.9,-158.8,1023,2018,4,26,14,46,21.202,-0.104,0.002,0.5443,-0.8323
-0.101,0.101,0.192,-9.5,-54,-156.1,1023,2018,4,26,14,46,21.206,-0.0817,0.0188,0.5509,-0.8302
-0.142,0.026,0.155,-19.3,-54.6,-150.1,1023,2018,4,26,14,46,21.242,-0.0609,0.0366,0.5581,-0.8266
-0.117,-0.085,0.114,-23.9,-23.3,-149.9,1023,2018,4,26,14,46,21.262,-0.0416,0.0548,0.5624,-0.8239
-0.096,0.035,0.085,-26.3,11.5,-152.6,1023,2018,4,26,14,46,21.266,-0.0222,0.0733,0.5609,-0.8242
-0.091,0.209,-0.024,-28,22,-147.5,1023,2018,4,26,14,46,21.306,-0.0037,0.0916,0.5555,-0.8264
-0.09,0.333,-0.103,-27.1,11.7,-138.3,1023,2018,4,26,14,46,21.327,0.0137,0.1091,0.55,-0.8278
-0.074,0.351,-0.102,-20.7,1.1,-127.7,1023,2018,4,26,14,46,21.331,0.0305,0.1253,0.546,-0.8277
-0.043,0.369,-0.186,-13.1,-1.3,-115,1023,2018,4,26,14,46,21.349,0.0466,0.1399,0.5426,-0.8269
-0.026,0.366,-0.197,-1.6,-0.4,-98.7,1023,2018,4,26,14,46,21.365,0.0613,0.1512,0.5399,-0.8256
-0.042,0.343,-0.118,8.1,6.5,-75.1,1023,2018,4,26,14,46,21.404,0.0739,0.159,0.5367,-0.8252
-0.038,0.31,-0.058,14.8,7.9,-54.7,0,2018,4,26,14,46,21.425,0.084,0.1635,0.5335,-0.8254
-0.019,0.299,-0.091,20.9,9,-38.7,0,2018,4,26,14,46,21.429,0.092,0.1654,0.5306,-0.8261
-0.03,0.332,-0.066,24.7,9.8,-23.6,0,2018,4,26,14,46,21.447,0.0981,0.1652,0.5275,-0.8274
-0.048,0.237,-0.019,27,12.5,-5.8,0,2018,4,26,14,46,21.466,0.1024,0.1633,0.5243,-0.8293
-0.059,0.23,0.034,28.4,23.6,11.5,0,2018,4,26,14,46,21.506,0.104,0.1595,0.5203,-0.8324
-0.079,0.266,0.071,29.3,32.9,24.8,0,2018,4,26,14,46,21.526,0.1029,0.1542,0.5158,-0.8363
-0.106,0.385,0.15,25.8,19.7,35.8,0,2018,4,26,14,46,21.531,0.1001,0.1479,0.5117,-0.8403
-0.134,0.37,0.175,16.4,2.9,50.9,0,2018,4,26,14,46,21.55,0.0951,0.1411,0.5105,-0.8428
-0.127,0.298,0.184,2.1,2,65.7,0,2018,4,26,14,46,21.569,0.0872,0.1347,0.5114,-0.8441
-0.103,0.233,0.142,-6.9,33.1,84.5,0,2018,4,26,14,46,21.588,0.0753,0.1288,0.5103,-0.8469
-0.101,0.431,0.103,-12,43.4,107.8,0,2018,4,26,14,46,21.607,0.0591,0.1222,0.5061,-0.8517
-0.099,0.43,0.016,-12.2,35.2,132,0,2018,4,26,14,46,21.645,0.0391,0.1139,0.5027,-0.856
-0.07,0.368,-0.074,-9.9,42.9,152.3,0,2018,4,26,14,46,21.666,0.0158,0.1034,0.4996,-0.8598
-0.076,0.214,-0.116,-2.1,73.6,168.6,0,2018,4,26,14,46,21.67,-0.0101,0.09,0.4933,-0.865
-0.037,-0.039,-0.214,9.2,105.6,184.8,0,2018,4,26,14,46,21.689,-0.0381,0.0739,0.4826,-0.8718
0.007,-0.048,-0.169,29.5,146.3,195.1,1023,2018,4,26,14,46,21.709,-0.0671,0.0539,0.466,-0.8805
0.033,0.045,-0.156,55,192.3,195.5,1023,2018,4,26,14,46,21.746,-0.0951,0.0297,0.4426,-0.8911
-0.027,-0.184,-0.227,74.4,207,196.5,1023,2018,4,26,14,46,21.765,-0.1214,0.0012,0.4133,-0.9024
-0.074,-0.515,-0.231,92.9,242.5,193.9,1023,2018,4,26,14,46,21.772,-0.1461,-0.0307,0.3797,-0.9129
-0.087,-0.181,-0.128,97.6,289.9,164.9,1023,2018,4,26,14,46,21.791,-0.1666,-0.0651,0.3375,-0.9241
-0.067,0.308,0.009,88.3,260,123.4,1023,2018,4,26,14,46,21.811,-0.1807,-0.0967,0.2925,-0.934
-0.099,0.399,0.165,82.2,152.4,95.1,1023,2018,4,26,14,46,21.851,-0.1901,-0.1225,0.2594,-0.9388
-0.135,0.276,0.281,72.1,34.9,81.9,1023,2018,4,26,14,46,21.855,-0.199,-0.1419,0.2454,-0.938
-0.201,0.054,0.243,60,-41.4,72.8,1023,2018,4,26,14,46,21.869,-0.2091,-0.1557,0.2474,-0.9331
-0.197,0.033,0.202,45,-73.8,55.2,1023,2018,4,26,14,46,21.89,-0.2191,-0.1647,0.2573,-0.9266
-0.179,-0.134,0.213,30.4,-85.8,44.5,1023,2018,4,26,14,46,21.909,-0.2278,-0.17,0.2703,-0.9198
-0.18,-0.288,0.227,16,-57.7,49.8,1023,2018,4,26,14,46,21.949,-0.2364,-0.1729,0.2821,-0.9135
-0.137,-0.198,0.197,3.6,-17.4,51.5,0,2018,4,26,14,46,21.97,-0.2449,-0.1755,0.2875,-0.9091
-0.117,-0.061,0.17,-4.5,0.1,46.3,0,2018,4,26,14,46,21.974,-0.253,-0.1775,0.287,-0.9066
-0.067,0.019,0.142,-8.7,-13.8,38.8,0,2018,4,26,14,46,21.992,-0.2601,-0.1786,0.2859,-0.9047
-0.075,-0.046,0.091,-9.9,-29,29.5,0,2018,4,26,14,46,22.028,-0.2669,-0.178,0.2876,-0.9023
-0.077,-0.11,0.077,-12.3,-32.6,19.3,0,2018,4,26,14,46,22.049,-0.2721,-0.1761,0.2918,-0.8998
-0.032,-0.06,0.049,-13.3,-31.4,13.7,0,2018,4,26,14,46,22.053,-0.276,-0.1734,0.2961,-0.8977
-0.01,-0.031,0.026,-11.9,-35,9.7,0,2018,4,26,14,46,22.092,-0.2793,-0.1705,0.3006,-0.8958
-0.009,-0.085,0.001,-7.6,-38.6,4.8,0,2018,4,26,14,46,22.096,-0.2819,-0.1674,0.3062,-0.8936
0.008,-0.096,-0.02,-3.5,-35.7,0.3,0,2018,4,26,14,46,22.111,-0.2832,-0.1647,0.3126,-0.8915
0.01,-0.101,-0.031,0.9,-25.6,-3.8,0,2018,4,26,14,46,22.147,-0.2836,-0.1625,0.3182,-0.8898
0.019,-0.057,-0.014,3.9,-11.3,-6.9,0,2018,4,26,14,46,22.169,-0.2827,-0.1614,0.322,-0.8889
0.02,-0.005,0.014,5,0,-7.1,0,2018,4,26,14,46,22.174,-0.2812,-0.1613,0.3235,-0.8889
0.004,0.033,0.027,4.5,1.7,-6.9,0,2018,4,26,14,46,22.194,-0.2799,-0.1617,0.3235,-0.8892
-0.037,0.006,0.051,3.6,-2.4,-9.7,0,2018,4,26,14,46,22.231,-0.2783,-0.1621,0.3238,-0.8895
-0.027,-0.038,0.095,0,-4,-13.7,0,2018,4,26,14,46,22.251,-0.2765,-0.1616,0.3245,-0.8899
-0.053,0.004,0.104,-2.6,-19,-21.6,0,2018,4,26,14,46,22.255,-0.2743,-0.16,0.326,-0.8904
-0.112,-0.024,0.09,-7.4,-59.8,-38.9,1023,2018,4,26,14,46,22.276,-0.2711,-0.1561,0.3324,-0.8896
-0.089,-0.051,0.089,-14.6,-97.7,-64.8,1023,2018,4,26,14,46,22.295,-0.266,-0.1479,0.3457,-0.8875
-0.034,-0.089,0.137,-23.1,-114.8,-80.7,1023,2018,4,26,14,46,22.333,-0.2582,-0.1354,0.3635,-0.8847
-0.059,-0.064,0.174,-31.4,-129.2,-87.4,1023,2018,4,26,14,46,22.338,-0.2496,-0.1201,0.3826,-0.8813
-0.054,-0.092,0.132,-34.4,-140.9,-92.5,1023,2018,4,26,14,46,22.354,-0.2407,-0.103,0.4034,-0.8767
-0.037,-0.079,0.075,-34.2,-138.3,-97.7,1023,2018,4,26,14,46,22.374,-0.2311,-0.0849,0.4249,-0.871
-0.031,-0.052,0.066,-35.9,-128.8,-100.4,1023,2018,4,26,14,46,22.393,-0.2203,-0.0667,0.4453,-0.8652
-0.043,-0.126,0.065,-37.1,-120.4,-102.5,1023,2018,4,26,14,46,22.416,-0.2094,-0.0483,0.4634,-0.8596
-0.016,-0.159,0.054,-36,-115.9,-108.5,1023,2018,4,26,14,46,22.435,-0.1974,-0.0299,0.4802,-0.8541
-0.066,-0.256,0.056,-29.7,-106.3,-117.7,1023,2018,4,26,14,46,22.473,-0.1835,-0.0119,0.4966,-0.8482
-0.082,-0.325,0.027,-25,-107,-134.8,1023,2018,4,26,14,46,22.493,-0.1674,0.0065,0.5123,-0.8422
-0.017,-0.288,0.062,-21,-110.3,-154.4,0,2018,4,26,14,46,22.499,-0.148,0.0262,0.5279,-0.8358
-0.005,-0.311,0.029,-14.1,-101.3,-167.4,0,2018,4,26,14,46,22.515,-0.1253,0.0466,0.5423,-0.8294
-0.069,-0.312,-0.06,-4.2,-81.5,-173.7,0,2018,4,26,14,46,22.554,-0.1006,0.0661,0.5544,-0.8234
-0.095,-0.217,-0.067,6.1,-61,-179,0,2018,4,26,14,46,22.574,-0.0742,0.0842,0.5625,-0.8191
-0.113,-0.091,-0.066,14.7,-45.2,-185.2,0,2018,4,26,14,46,22.578,-0.0462,0.1012,0.5671,-0.816
-0.141,0.101,-0.032,19.1,-43,-189.9,0,2018,4,26,14,46,22.597,-0.0172,0.1176,0.5695,-0.8133
-0.142,0.187,-0.048,21.2,-51.3,-188.7,0,2018,4,26,14,46,22.616,0.0122,0.1331,0.572,-0.8092
-0.136,0.299,-0.011,25.8,-39.8,-178.7,0,2018,4,26,14,46,22.655,0.0411,0.1473,0.5738,-0.8045
-0.153,0.391,0.018,28.1,-19.8,-159.8,0,2018,4,26,14,46,22.659,0.0683,0.1604,0.573,-0.8007
-0.191,0.545,0.12,27.6,-3.2,-132.6,0,2018,4,26,14,46,22.676,0.0917,0.1709,0.5698,-0.7985
-0.213,0.639,0.178,23.8,1.9,-98.2,0,2018,4,26,14,46,22.696,0.1103,0.1788,0.5654,-0.7975
-0.202,0.617,0.155,18,9.6,-54.4,0,2018,4,26,14,46,22.716,0.1226,0.1836,0.5615,-0.7974
-0.186,0.616,0.138,10.8,31.3,-9.6,0,2018,4,26,14,46,22.751,0.1274,0.1852,0.5571,-0.7994
-0.176,0.626,0.122,5,47.6,31.6,0,2018,4,26,14,46,22.771,0.1249,0.1839,0.5512,-0.8041
-0.163,0.609,0.075,1.1,52.3,72.2,0,2018,4,26,14,46,22.778,0.116,0.1796,0.5453,-0.8104
-0.135,0.557,0.03,-0.8,45.6,104.7,0,2018,4,26,14,46,22.814,0.1015,0.1722,0.5409,-0.8169
-0.121,0.491,-0.002,-2.1,41.2,126.2,1023,2018,4,26,14,46,22.818,0.0833,0.1622,0.5379,-0.823
-0.087,0.409,0.025,-1.3,58.6,143.7,1023,2018,4,26,14,46,22.836,0.0622,0.1505,0.5346,-0.8292
-0.08,0.36,0.037,2.2,93,166.2,1023,2018,4,26,14,46,22.855,0.0378,0.1368,0.5272,-0.8377
-0.102,0.392,0.008,4.8,107.2,192.3,1023,2018,4,26,14,46,22.876,0.0092,0.1204,0.5158,-0.8481
-0.11,0.391,-0.02,11.9,85.9,210.9,1023,2018,4,26,14,46,22.914,-0.0221,0.1011,0.5055,-0.8565
-0.078,0.263,-0.07,24.7,86.5,218.5,1023,2018,4,26,14,46,22.935,-0.0541,0.0789,0.4964,-0.8627
-0.059,0.09,-0.129,39.8,121.7,226.7,1023,2018,4,26,14,46,22.939,-0.0864,0.053,0.4839,-0.8692
-0.12,0.134,-0.159,47.2,112.2,232,1023,2018,4,26,14,46,22.958,-0.1186,0.0248,0.4678,-0.8754
-0.129,0.213,-0.076,59.3,68.1,224.9,1023,2018,4,26,14,46,22.998,-0.1496,-0.0037,0.456,-0.8773
-0.18,0.098,-0.047,74.4,40.2,202.9,1023,2018,4,26,14,46,23.019,-0.1767,-0.0324,0.4495,-0.8749
-0.293,-0.82,-0.008,78.4,112,175.8,1023,2018,4,26,14,46,23.023,-0.2204,-0.0902,0.4335,-0.869
-0.316,-0.49,0.164,64.8,155.4,139.9,1023,2018,4,26,14,46,23.041,-0.2363,-0.1184,0.4127,-0.8716
-0.291,-0.32,0.297,47,148.6,99.4,0,2018,4,26,14,46,23.078,-0.2467,-0.1423,0.3895,-0.8758
-0.267,-0.312,0.42,28.5,97.9,65.8,0,2018,4,26,14,46,23.099,-0.2534,-0.159,0.3702,-0.8794
-0.184,-0.187,0.397,12.5,57.6,37.7,0,2018,4,26,14,46,23.103,-0.2576,-0.1686,0.3577,-0.8815
-0.12,-0.06,0.319,1.1,24.6,16.4,0,2018,4,26,14,46,23.119,-0.26,-0.173,0.3504,-0.8829
-0.122,-0.082,0.294,-8.6,-5.4,5.9,0,2018,4,26,14,46,23.156,-0.2617,-0.1733,0.3479,-0.8833
-0.133,-0.114,0.248,-17.9,-23,-2.2,0,2018,4,26,14,46,23.177,-0.2634,-0.1705,0.349,-0.8829
-0.118,-0.095,0.202,-29,-43,-17.2,0,2018,4,26,14,46,23.181,-0.2644,-0.1649,0.353,-0.8821
-0.14,-0.055,0.182,-39.8,-79.6,-39.6,0,2018,4,26,14,46,23.2,-0.2638,-0.1555,0.3612,-0.8807
-0.108,-0.052,0.166,-47.8,-135.2,-67.3,0,2018,4,26,14,46,23.222,-0.2615,-0.1406,0.3765,-0.8775
-0.097,-0.145,0.144,-50.7,-184.9,-93.6,0,2018,4,26,14,46,23.241,-0.256,-0.1203,0.401,-0.8712
-0.051,-0.276,0.083,-47.2,-200.7,-115,0,2018,4,26,14,46,23.261,-0.2471,-0.0964,0.431,-0.8624
-0.044,-0.321,0,-42.4,-192,-130.3,0,2018,4,26,14,46,23.299,-0.2346,-0.0716,0.4611,-0.8527
-0.047,-0.339,-0.049,-39.6,-167.2,-142.8,0,2018,4,26,14,46,23.319,-0.2195,-0.047,0.4877,-0.8436
-0.02,-0.308,-0.046,-31.8,-142.1,-154.1,0,2018,4,26,14,46,23.324,-0.2017,-0.023,0.5098,-0.8359
-0.031,-0.299,-0.076,-22.1,-132,-161.8,0,2018,4,26,14,46,23.34,-0.1815,-0.0001,0.5289,-0.829
-0.031,-0.271,-0.1,-8.8,-121.8,-173.2,1023,2018,4,26,14,46,23.377,-0.1586,0.0215,0.5465,-0.8219
-0.001,-0.231,-0.104,6.3,-106.3,-186,1023,2018,4,26,14,46,23.398,-0.132,0.0422,0.5629,-0.8147
-0.039,-0.136,-0.106,18.4,-88.4,-187.6,1023,2018,4,26,14,46,23.402,-0.1031,0.0609,0.5762,-0.8084
-0.079,-0.006,-0.105,25.7,-74.6,-184.4,1023,2018,4,26,14,46,23.421,-0.0738,0.0772,0.5863,-0.803
-0.109,0.075,-0.01,31.6,-58.1,-182.3,1023,2018,4,26,14,46,23.461,-0.0442,0.0924,0.5934,-0.7983
-0.125,0.214,0.077,32.3,-57.7,-179.4,1023,2018,4,26,14,46,23.48,-0.0151,0.1067,0.5981,-0.7941
-0.142,0.171,0.01,32.2,-61,-173.4,1023,2018,4,26,14,46,23.484,0.0134,0.1205,0.6029,-0.7884
-0.134,0.205,0.068,33.1,-52,-168.8,1023,2018,4,26,14,46,23.503,0.0414,0.134,0.6065,-0.7825
-0.154,0.217,0.173,35.1,-32.7,-157.9,1023,2018,4,26,14,46,23.522,0.0684,0.1464,0.6078,-0.7774
-0.212,0.27,0.237,30.5,-6.3,-134.4,1023,2018,4,26,14,46,23.544,0.0923,0.1571,0.6058,-0.7743
-0.229,0.394,0.204,21.5,11.7,-103.8,1023,2018,4,26,14,46,23.564,0.1109,0.1663,0.6013,-0.7735
-0.185,0.512,0.131,12,18.1,-75.4,1023,2018,4,26,14,46,23.584,0.124,0.1738,0.596,-0.774
-0.155,0.486,0.098,5,21.8,-47,0,2018,4,26,14,46,23.607,0.1324,0.1795,0.5911,-0.775
-0.131,0.458,0.032,2,37.8,-14,0,2018,4,26,14,46,23.621,0.1357,0.1829,0.5859,-0.7776
-0.13,0.576,0.024,2.7,47.1,19.7,0,2018,4,26,14,46,23.66,0.1338,0.1834,0.5795,-0.7826
-0.112,0.624,0.048,5.4,19.5,49.5,0,2018,4,26,14,46,23.679,0.128,0.1802,0.5754,-0.7873
-0.109,0.489,0.045,4.4,-5.1,74.7,0,2018,4,26,14,46,23.686,0.1196,0.1732,0.5765,-0.7894
-0.088,0.325,0.014,0.8,1.4,96.9,0,2018,4,26,14,46,23.703,0.108,0.1641,0.5796,-0.7908
-0.08,0.272,0.047,-0.4,30.4,116.7,0,2018,4,26,14,46,23.742,0.0927,0.1535,0.5791,-0.7952
-0.1,0.385,0.149,-3.5,27.9,133.7,0,2018,4,26,14,46,23.761,0.074,0.1417,0.5779,-0.8002
-0.112,0.397,0.236,-5.2,20.4,146.1,0,2018,4,26,14,46,23.765,0.0534,0.1283,0.5781,-0.8039
-0.099,0.239,0.122,-7.6,35,161.1,0,2018,4,26,14,46,23.802,0.0305,0.114,0.5776,-0.8076
-0.136,0.421,0.099,-14.8,31.4,179.3,0,2018,4,26,14,46,23.82,0.0046,0.0985,0.5757,-0.8116
-0.115,0.254,-0.032,-14.5,24,195.1,0,2018,4,26,14,46,23.824,-0.024,0.082,0.5748,-0.8138
-0.124,-0.179,-0.184,-5.8,56.4,203.9,0,2018,4,26,14,46,23.844,-0.0543,0.0628,0.5719,-0.816
-0.087,-0.19,-0.14,7.1,89.6,199.4,0,2018,4,26,14,46,23.863,-0.0837,0.0417,0.5626,-0.8214
-0.09,-0.115,-0.075,21.4,86.2,185.4,0,2018,4,26,14,46,23.902,-0.1103,0.0193,0.5512,-0.8267
-0.086,-0.173,-0.061,29.7,79.4,166.3,1023,2018,4,26,14,46,23.921,-0.1332,-0.0033,0.5411,-0.8302
-0.1,-0.601,-0.1,32.5,110.7,154.4,1023,2018,4,26,14,46,23.925,-0.1531,-0.0251,0.5288,-0.8343
-0.118,-0.719,-0.052,31,189,145.5,1023,2018,4,26,14,46,23.944,-0.1711,-0.0482,0.5063,-0.8437
-0.059,-0.316,0.077,29.9,228.6,129.7,1023,2018,4,26,14,46,23.965,-0.1863,-0.0711,0.4749,-0.8571
-0.002,0,0.108,25.9,231.6,112.8,1023,2018,4,26,14,46,24.004,-0.1988,-0.0927,0.439,-0.8712
-0.022,-0.071,0.08,24.4,206.8,98.8,1023,2018,4,26,14,46,24.024,-0.209,-0.112,0.404,-0.8834
-0.03,-0.007,0.105,22.3,190.8,92.5,1023,2018,4,26,14,46,24.028,-0.2179,-0.1295,0.3721,-0.8928
-0.024,0.084,0.12,19.5,165.9,83.6,1023,2018,4,26,14,46,24.049,-0.2263,-0.1453,0.3419,-0.9004
-0.046,0.199,0.154,15.5,105.8,71.7,1023,2018,4,26,14,46,24.069,-0.234,-0.158,0.319,-0.9047
-0.093,0.148,0.164,15.7,39.3,55.3,1023,2018,4,26,14,46,24.089,-0.2412,-0.1668,0.3067,-0.9054
-0.117,-0.02,0.138,15.5,-8,35.1,1023,2018,4,26,14,46,24.109,-0.2471,-0.1726,0.3039,-0.9037
-0.15,-0.159,0.11,11.3,-27.9,16.7,1023,2018,4,26,14,46,24.127,-0.2509,-0.1757,0.3074,-0.9009
-0.132,-0.147,0.094,4.3,-41,-1.6,0,2018,4,26,14,46,24.162,-0.2525,-0.1761,0.3135,-0.8982
-0.106,-0.081,0.152,-2.4,-64,-17.1,0,2018,4,26,14,46,24.183,-0.2525,-0.1734,0.3222,-0.8956
-0.131,-0.161,0.173,-6.5,-79.4,-28.8,0,2018,4,26,14,46,24.187,-0.2514,-0.1682,0.3341,-0.8926
-0.11,-0.178,0.173,-11.6,-81.2,-40.6,0,2018,4,26,14,46,24.207,-0.2487,-0.1612,0.3476,-0.8895
-0.075,-0.042,0.15,-18.6,-95.2,-55.2,0,2018,4,26,14,46,24.227,-0.2446,-0.1521,0.3616,-0.8866
-0.063,0,0.144,-26.3,-134.5,-68.5,0,2018,4,26,14,46,24.266,-0.2397,-0.1398,0.3793,-0.8826
-0.076,-0.105,0.113,-36.6,-170.2,-86.2,0,2018,4,26,14,46,24.287,-0.2337,-0.1234,0.4029,-0.8761
-0.021,-0.334,0.077,-37.4,-172.9,-104.2,0,2018,4,26,14,46,24.291,-0.225,-0.1033,0.4304,-0.8679
-0.036,-0.402,0.062,-39.1,-148.1,-118,0,2018,4,26,14,46,24.33,-0.2138,-0.0827,0.4549,-0.8604
-0.023,-0.283,0.042,-38.4,-125.6,-132.3,0,2018,4,26,14,46,24.334,-0.1996,-0.0614,0.4759,-0.8542
-0.026,-0.237,-0.038,-32.3,-133,-149.1,0,2018,4,26,14,46,24.351,-0.1824,-0.0396,0.4961,-0.8479
-0.025,-0.232,-0.085,-25.6,-139.8,-166.4,0,2018,4,26,14,46,24.369,-0.1622,-0.017,0.5168,-0.8404
-0.034,-0.24,-0.048,-17.1,-123.9,-182.6,0,2018,4,26,14,46,24.389,-0.1384,0.0056,0.5368,-0.8322
-0.063,-0.279,-0.053,-6.1,-102.1,-194.4,0,2018,4,26,14,46,24.409,-0.1119,0.0278,0.5535,-0.8247
-0.062,-0.088,-0.025,7.6,-91.7,-203,1023,2018,4,26,14,46,24.448,-0.0829,0.0484,0.5666,-0.8183
-0.078,0.075,-0.01,19.7,-96.9,-208.9,1023,2018,4,26,14,46,24.469,-0.0516,0.0675,0.5777,-0.8117
-0.113,0.19,0.069,25.8,-96.8,-204.3,1023,2018,4,26,14,46,24.473,-0.0189,0.0855,0.5889,-0.8034
-0.16,0.206,0.183,24.5,-77.4,-188.8,1023,2018,4,26,14,46,24.49,0.0126,0.1025,0.5981,-0.7946
-0.224,0.353,0.251,14.7,-53.6,-165.1,1023,2018,4,26,14,46,24.525,0.0401,0.1181,0.6035,-0.7874
-0.204,0.409,0.283,5.5,-34.5,-143.8,1023,2018,4,26,14,46,24.544,0.0631,0.1327,0.6059,-0.7817
-0.194,0.461,0.232,-3.4,-27.3,-116.9,1023,2018,4,26,14,46,24.552,0.0814,0.1462,0.6064,-0.7773
-0.162,0.429,0.135,-9,-31.8,-88.8,1023,2018,4,26,14,46,24.592,0.0953,0.1575,0.6075,-0.7726
-0.143,0.342,0.038,-11,-20.7,-59.6,1023,2018,4,26,14,46,24.595,0.1048,0.1663,0.6094,-0.768
-0.114,0.375,0.056,-10.4,5.4,-33.7,1023,2018,4,26,14,46,24.611,0.1099,0.1726,0.6088,-0.7663
-0.108,0.379,0.066,-7.3,43.8,1.2,1023,2018,4,26,14,46,24.628,0.1103,0.1761,0.605,-0.7685
-0.095,0.524,0.114,-5.9,71.4,38.2,0,2018,4,26,14,46,24.648,0.1049,0.1761,0.5974,-0.7752
-0.085,0.586,0.09,-8,70.8,74.7,0,2018,4,26,14,46,24.687,0.094,0.1725,0.589,-0.7838
-0.079,0.486,0.034,-9.1,67.5,109.1,0,2018,4,26,14,46,24.706,0.0782,0.1652,0.5825,-0.7919
-0.045,0.337,-0.011,-5.3,94.2,140.1,0,2018,4,26,14,46,24.709,0.0578,0.1545,0.5751,-0.8012
-0.051,0.491,0.078,-0.8,117.3,165.3,0,2018,4,26,14,46,24.746,0.0331,0.1406,0.564,-0.813
-0.054,0.624,0.126,5.5,106.1,184.6,0,2018,4,26,14,46,24.769,0.0056,0.1236,0.5518,-0.8247
-0.041,0.508,0.01,15.8,92.2,205.5,0,2018,4,26,14,46,24.773,-0.0234,0.1033,0.5415,-0.8339
-0.068,0.271,-0.124,25.8,89.9,233.1,0,2018,4,26,14,46,24.814,-0.0551,0.0787,0.5317,-0.8414
-0.039,0.031,-0.247,44.2,110.7,255.4,0,2018,4,26,14,46,24.833,-0.0892,0.0496,0.5211,-0.8473
-0.07,-0.099,-0.222,62.3,156.4,258.1,0,2018,4,26,14,46,24.837,-0.1234,0.0159,0.5037,-0.8548
-0.094,-0.229,-0.146,77.2,177.2,243.3,0,2018,4,26,14,46,24.852,-0.155,-0.0204,0.4799,-0.8632
-0.179,-0.19,0.04,85.3,152.5,213.9,0,2018,4,26,14,46,24.889,-0.1819,-0.0563,0.4558,-0.8694
-0.276,-0.38,0.15,85,117.4,174.2,0,2018,4,26,14,46,24.91,-0.2032,-0.0891,0.4361,-0.872
-0.301,-0.631,0.154,73.8,107.6,132.9,0,2018,4,26,14,46,24.914,-0.2182,-0.1169,0.4195,-0.8733
-0.294,-0.508,0.182,53.3,129.4,90,0,2018,4,26,14,46,24.932,-0.2278,-0.1392,0.4017,-0.8759
-0.192,-0.154,0.247,29.9,120.4,51.1,0,2018,4,26,14,46,24.969,-0.2321,-0.1556,0.3822,-0.8807
-0.1,0.121,0.279,13.6,71.1,29.5,1023,2018,4,26,14,46,24.989,-0.234,-0.1655,0.3669,-0.8849
-0.061,0.161,0.296,3.7,13.1,19.8,1023,2018,4,26,14,46,24.993,-0.2359,-0.1699,0.3602,-0.8863
-0.081,0.024,0.229,-0.1,-17.3,15.3,1023,2018,4,26,14,46,25.03,-0.2386,-0.1709,0.3608,-0.8851
-0.069,-0.056,0.125,-1.9,-15,15,1023,2018,4,26,14,46,25.052,-0.2417,-0.171,0.3625,-0.8836
-0.045,-0.091,0.094,-4.9,-9,17.5,1023,2018,4,26,14,46,25.056,-0.2448,-0.171,0.3635,-0.8823
-0.088,-0.158,0.132,-8.3,-4.4,14.1,1023,2018,4,26,14,46,25.075,-0.2478,-0.1706,0.364,-0.8814
-0.111,-0.178,0.174,-13.8,1.1,2,1023,2018,4,26,14,46,25.114,-0.2496,-0.1692,0.3639,-0.8812
-0.11,-0.111,0.19,-19.7,-11.4,-14.7,1023,2018,4,26,14,46,25.118,-0.2496,-0.166,0.3638,-0.8818
-0.13,-0.17,0.204,-27.6,-47.8,-30.6,1023,2018,4,26,14,46,25.134,-0.2483,-0.1598,0.3679,-0.8817
-0.134,-0.173,0.182,-36,-93.3,-51.9,1023,2018,4,26,14,46,25.174,-0.2461,-0.149,0.3787,-0.8796
-0.118,-0.202,0.161,-45.7,-130.6,-82.1,1023,2018,4,26,14,46,25.194,-0.2414,-0.1335,0.3961,-0.8757
-0.101,-0.23,0.19,-57.1,-157.6,-109.6,0,2018,4,26,14,46,25.198,-0.2335,-0.1127,0.4185,-0.8703
-0.039,-0.185,0.162,-58.3,-165.3,-133.9,0,2018,4,26,14,46,25.215,-0.222,-0.0879,0.4428,-0.8641
-0.014,-0.159,0.072,-50.8,-171,-150.2,0,2018,4,26,14,46,25.236,-0.207,-0.0615,0.4681,-0.8568
0.011,-0.055,0.018,-45.1,-154.8,-161.3,0,2018,4,26,14,46,25.255,-0.1699,-0.0093,0.5154,-0.8398
-0.007,0.023,-0.015,-39.7,-162,-164.9,0,2018,4,26,14,46,25.294,-0.15,0.0163,0.537,-0.8299
0.01,-0.09,-0.049,-27.4,-158.1,-172.1,0,2018,4,26,14,46,25.314,-0.1281,0.0414,0.5591,-0.818
-0.01,-0.217,-0.09,-13.8,-139.3,-180.5,0,2018,4,26,14,46,25.318,-0.1036,0.065,0.5792,-0.8059
-0.021,-0.248,-0.188,2.5,-113.7,-187.4,0,2018,4,26,14,46,25.357,-0.0768,0.0868,0.5947,-0.7955
-0.031,-0.25,-0.21,20.6,-85.6,-193.3,0,2018,4,26,14,46,25.361,-0.0476,0.1063,0.6052,-0.7874
-0.027,-0.12,-0.075,39.8,-55.1,-196.9,0,2018,4,26,14,46,25.377,-0.0163,0.1234,0.6112,-0.7815
-0.073,0.093,0.021,52.2,-37.3,-191.8,0,2018,4,26,14,46,25.398,0.0158,0.1375,0.6127,-0.778
-0.121,0.245,0.033,56.8,-33.1,-178,0,2018,4,26,14,46,25.419,0.0473,0.1492,0.6122,-0.775
-0.157,0.349,0.145,54.8,-22.7,-160.2,0,2018,4,26,14,46,25.437,0.0768,0.1594,0.6104,-0.772
-0.214,0.426,0.22,47.8,-4.4,-133.1,0,2018,4,26,14,46,25.457,0.1023,0.168,0.6069,-0.7699
-0.237,0.479,0.268,34.2,13.6,-100.2,0,2018,4,26,14,46,25.478,0.122,0.175,0.6017,-0.7696
-0.225,0.54,0.216,21.1,25.5,-65.4,1023,2018,4,26,14,46,25.499,0.1351,0.1804,0.5954,-0.7711
-0.22,0.558,0.134,9.7,30,-31.8,1023,2018,4,26,14,46,25.519,0.142,0.1841,0.5895,-0.7735
-0.172,0.538,0.072,0.8,21.4,-2.1,1023,2018,4,26,14,46,25.557,0.1437,0.1858,0.5852,-0.776
-0.143,0.485,0.008,-1.9,19.2,24.2,1023,2018,4,26,14,46,25.577,0.1412,0.1853,0.5826,-0.7785
-0.107,0.39,-0.053,1,32,51.4,1023,2018,4,26,14,46,25.58,0.1349,0.1822,0.5803,-0.7821
-0.063,0.31,-0.103,9.3,59.5,81,1023,2018,4,26,14,46,25.613,0.1253,0.1768,0.5754,-0.7886
-0.043,0.279,-0.108,21.4,93.3,111.5,1023,2018,4,26,14,46,25.614,0.1116,0.1676,0.567,-0.7987
0.021,0.334,-0.177,36.9,138.2,139.9,1023,2018,4,26,14,46,25.65,0.0934,0.1534,0.5536,-0.8131
0.017,0.639,-0.129,47.8,154.8,159.7,1023,2018,4,26,14,46,25.671,0.0719,0.135,0.5349,-0.8309
-0.078,0.742,0.055,53.6,112,170.9,1023,2018,4,26,14,46,25.677,0.0493,0.1137,0.5176,-0.8465
-0.154,0.518,0.167,60.1,65.6,181.6,1023,2018,4,26,14,46,25.698,0.0265,0.0902,0.5077,-0.8563
-0.159,0.297,0.155,70,45.4,194.8,1023,2018,4,26,14,46,25.72,0.0032,0.0641,0.5023,-0.8622
-0.142,0.16,0.025,85.2,82.9,215.6,0,2018,4,26,14,46,25.759,-0.0216,0.0344,0.4947,-0.8681
-0.255,-0.065,-0.078,94.4,116.7,225.5,0,2018,4,26,14,46,25.779,-0.0482,0.0009,0.4808,-0.8754
-0.426,0.153,0.343,59.1,64.2,186.9,0,2018,4,26,14,46,25.783,-0.0734,-0.0293,0.4652,-0.8816
-0.326,-0.281,0.478,23.9,11.7,151.1,0,2018,4,26,14,46,25.803,-0.0954,-0.0492,0.4603,-0.8811
-0.206,-0.594,0.297,12.9,55.3,150.1,0,2018,4,26,14,46,25.823,-0.1169,-0.0643,0.4553,-0.8802
-0.087,-0.613,0.061,14.1,97.6,148.5,0,2018,4,26,14,46,25.841,-0.1381,-0.0797,0.4421,-0.8826
-0.021,-0.343,-0.038,20.7,137.1,140.1,0,2018,4,26,14,46,25.861,-0.1572,-0.0965,0.4219,-0.8876
0.015,-0.007,-0.011,26.4,153.1,126.8,0,2018,4,26,14,46,25.878,-0.1733,-0.1139,0.3976,-0.8937
-0.024,-0.007,0.084,30,121.1,112.5,0,2018,4,26,14,46,25.917,-0.187,-0.1307,0.3742,-0.8988
-0.056,0.001,0.098,31.5,77.9,101.7,0,2018,4,26,14,46,25.938,-0.1995,-0.1458,0.3569,-0.9008
-0.05,0.099,0.05,32,39.8,81.1,0,2018,4,26,14,46,25.942,-0.2109,-0.1588,0.3458,-0.9003
-0.064,0.006,0.058,31.2,16.4,56.4,0,2018,4,26,14,46,25.962,-0.2192,-0.1696,0.3403,-0.8985
-0.137,-0.279,0.147,25.3,16.2,44.6,0,2018,4,26,14,46,25.982,-0.2246,-0.1776,0.3383,-0.8963
-0.133,-0.253,0.156,16.4,39.2,39.2,0,2018,4,26,14,46,26.019,-0.2287,-0.1843,0.3345,-0.8954
-0.133,-0.125,0.162,8.6,44,28.3,1023,2018,4,26,14,46,26.04,-0.2316,-0.19,0.3274,-0.896
-0.159,-0.077,0.199,0.6,24.8,15,1023,2018,4,26,14,46,26.044,-0.2335,-0.1937,0.3213,-0.897
-0.162,-0.082,0.207,-9.1,-13,-4.6,1023,2018,4,26,14,46,26.081,-0.2346,-0.1937,0.3199,-0.8972
-0.121,-0.079,0.17,-17.8,-45.8,-26.4,1023,2018,4,26,14,46,26.102,-0.2339,-0.1898,0.3246,-0.8965
-0.082,-0.096,0.154,-24.9,-65.2,-43.2,1023,2018,4,26,14,46,26.106,-0.2314,-0.182,0.3338,-0.8954
-0.1,-0.104,0.172,-32.2,-73.5,-54.4,1023,2018,4,26,14,46,26.121,-0.2277,-0.1717,0.3449,-0.8942
-0.116,-0.063,0.185,-41.7,-90.7,-69,1023,2018,4,26,14,46,26.159,-0.2227,-0.159,0.3576,-0.8928
-0.114,-0.039,0.132,-50.9,-114.2,-84.6,1023,2018,4,26,14,46,26.179,-0.2166,-0.1432,0.3734,-0.8905
-0.042,0.007,0.066,-59.6,-143.2,-100.3,1023,2018,4,26,14,46,26.184,-0.2091,-0.124,0.3933,-0.8866
-0.006,-0.046,0.04,-62.9,-171.2,-110.8,1023,2018,4,26,14,46,26.202,-0.2002,-0.1014,0.4175,-0.8804
-0.001,-0.098,0.019,-57.5,-181,-130.8,1023,2018,4,26,14,46,26.223,-0.1775,-0.052,0.4714,-0.8622
0.041,-0.011,-0.008,-48.1,-199.2,-144.5,1023,2018,4,26,14,46,26.263,-0.1625,-0.0265,0.4995,-0.8504
0.051,-0.202,-0.122,-33.7,-203.9,-159,0,2018,4,26,14,46,26.268,-0.1439,-0.0009,0.5291,-0.8361
0.021,-0.323,-0.109,-22,-175.1,-169.6,0,2018,4,26,14,46,26.286,-0.1224,0.023,0.5556,-0.822
-0.004,-0.224,-0.016,-13.3,-142,-177.5,0,2018,4,26,14,46,26.322,-0.0982,0.046,0.5773,-0.8092
-0.003,-0.086,0.014,-3.2,-127.6,-181.5,0,2018,4,26,14,46,26.343,-0.0725,0.0676,0.5941,-0.7982
-0.035,-0.101,-0.075,8.3,-120.3,-184.5,0,2018,4,26,14,46,26.347,-0.0454,0.0877,0.6093,-0.7867
-0.028,-0.119,-0.029,23.2,-101.7,-189.4,0,2018,4,26,14,46,26.369,-0.0165,0.1061,0.622,-0.7755
-0.054,-0.004,0.005,33.4,-75.5,-184.1,0,2018,4,26,14,46,26.384,0.0132,0.1225,0.6301,-0.7666
-0.098,0.239,0.065,39.7,-51,-170.2,0,2018,4,26,14,46,26.42,0.0419,0.1365,0.6341,-0.7599
-0.129,0.338,0.116,42.7,-41.3,-151.9,0,2018,4,26,14,46,26.441,0.0689,0.1485,0.6356,-0.7544
-0.168,0.369,0.217,42.8,-19.3,-124.3,0,2018,4,26,14,46,26.446,0.0926,0.1578,0.6353,-0.7502
-0.189,0.488,0.26,34.5,7.8,-91.9,0,2018,4,26,14,46,26.464,0.1111,0.1646,0.6322,-0.7488
-0.198,0.509,0.202,24,30.3,-52.4,0,2018,4,26,14,46,26.484,0.1231,0.1692,0.6267,-0.7505
-0.192,0.552,0.192,16.8,58.9,-7.2,0,2018,4,26,14,46,26.523,0.1275,0.1708,0.6192,-0.7556
-0.184,0.613,0.231,11,75.7,34.7,0,2018,4,26,14,46,26.544,0.1248,0.1689,0.6101,-0.7639
-0.169,0.624,0.181,4.4,76.3,73.3,0,2018,4,26,14,46,26.548,0.116,0.1637,0.6012,-0.7734
-0.153,0.525,0.093,-1.3,86.4,110.9,1023,2018,4,26,14,46,26.567,0.1011,0.1554,0.5926,-0.7838
-0.123,0.459,0.011,-6,92.8,144.5,1023,2018,4,26,14,46,26.586,0.0806,0.1442,0.5836,-0.7949
-0.102,0.406,0.009,-4.7,107.8,172.5,1023,2018,4,26,14,46,26.605,0.0551,0.13,0.5725,-0.8075
-0.076,0.416,0.037,0.1,111.7,192.3,1023,2018,4,26,14,46,26.625,0.0265,0.113,0.5612,-0.8194
-0.097,0.452,0.047,6.6,120.5,203,1023,2018,4,26,14,46,26.663,-0.0038,0.0935,0.5479,-0.8312
-0.115,0.28,-0.055,10,128.1,213.3,1023,2018,4,26,14,46,26.683,-0.0351,0.0722,0.5328,-0.8423
-0.084,0.066,-0.121,12.5,136.9,232.4,1023,2018,4,26,14,46,26.687,-0.0687,0.0487,0.5164,-0.8521
-0.102,0.243,0.033,21.7,143.9,235.9,1023,2018,4,26,14,46,26.706,-0.1036,0.0227,0.4966,-0.8614
-0.131,0.243,0.105,34.5,103.4,215.5,1023,2018,4,26,14,46,26.728,-0.1357,-0.0032,0.4783,-0.8676
-0.213,-0.045,0.08,44.7,34.9,191.7,1023,2018,4,26,14,46,26.766,-0.1629,-0.0276,0.4689,-0.8676
-0.228,-0.397,0.038,47.8,10.7,165.1,0,2018,4,26,14,46,26.785,-0.186,-0.0497,0.4666,-0.8632
-0.206,-0.665,0.021,45.9,62.9,134.8,0,2018,4,26,14,46,26.789,-0.2042,-0.0699,0.4617,-0.8603
-0.195,-0.898,0.03,39.4,140.1,119.2,0,2018,4,26,14,46,26.809,-0.2181,-0.0902,0.4457,-0.8634
-0.162,-0.676,0.115,33.6,220.9,107.8,0,2018,4,26,14,46,26.829,-0.2293,-0.1116,0.4172,-0.8722
-0.044,-0.13,0.152,29.3,217.4,75.7,0,2018,4,26,14,46,26.868,-0.2362,-0.1318,0.382,-0.8836
-0.003,0.182,0.141,31.2,137.3,45.7,0,2018,4,26,14,46,26.872,-0.2389,-0.1478,0.3537,-0.8921
-0.026,0.133,0.149,27.5,41.7,25,0,2018,4,26,14,46,26.889,-0.2401,-0.1581,0.3409,-0.895
-0.032,-0.04,0.149,22.3,-1,10.5,0,2018,4,26,14,46,26.909,-0.2409,-0.1635,0.3388,-0.8946
-0.01,-0.119,0.12,16.9,-0.4,5.3,0,2018,4,26,14,46,26.929,-0.2409,-0.1664,0.34,-0.8936
-0.017,-0.064,0.108,12.6,11.8,5.6,0,2018,4,26,14,46,26.948,-0.2405,-0.1688,0.3396,-0.8934
-0.036,-0.04,0.109,8.6,21.5,5.1,0,2018,4,26,14,46,26.969,-0.2402,-0.1714,0.337,-0.894
-0.05,0.004,0.115,4,27.5,1.8,0,2018,4,26,14,46,26.988,-0.2396,-0.1737,0.3329,-0.8952
-0.067,0.1,0.125,-1.8,14.5,-2.6,0,2018,4,26,14,46,27.029,-0.2391,-0.1751,0.3286,-0.8967
-0.056,0.112,0.109,-7.9,-16.3,-9.9,0,2018,4,26,14,46,27.049,-0.2383,-0.1738,0.329,-0.897
-0.058,-0.007,0.096,-11.7,-36.2,-17.2,0,2018,4,26,14,46,27.053,-0.2378,-0.1707,0.3328,-0.8963
-0.068,-0.05,0.1,-15.2,-37.3,-23.2,0,2018,4,26,14,46,27.071,-0.2365,-0.166,0.3387,-0.8954
-0.105,0.028,0.139,-21.2,-51.2,-31.2,1023,2018,4,26,14,46,27.091,-0.2346,-0.1602,0.345,-0.8945
-0.125,0.108,0.163,-30.5,-96.5,-44.4,1023,2018,4,26,14,46,27.109,-0.2324,-0.1509,0.3563,-0.8923
-0.105,0.009,0.121,-39.7,-141.7,-60,1023,2018,4,26,14,46,27.128,-0.2296,-0.1373,0.3749,-0.8875
-0.049,-0.092,0.064,-44.3,-159.1,-73.3,1023,2018,4,26,14,46,27.169,-0.2258,-0.1202,0.3981,-0.8808
-0.031,-0.169,0.026,-45.2,-152.3,-82.5,1023,2018,4,26,14,46,27.189,-0.2199,-0.1015,0.4224,-0.8734
-0.039,-0.206,0.003,-44.7,-146.6,-90.1,1023,2018,4,26,14,46,27.193,-0.2123,-0.0822,0.4454,-0.8658
-0.036,-0.162,0.004,-42.1,-146.2,-105.2,1023,2018,4,26,14,46,27.212,-0.2028,-0.0625,0.4679,-0.8579
0.009,-0.194,-0.021,-32.4,-151.2,-126.7,1023,2018,4,26,14,46,27.231,-0.1897,-0.0415,0.4905,-0.8494
0.016,-0.236,-0.04,-21.8,-149.8,-138,1023,2018,4,26,14,46,27.252,-0.1728,-0.0205,0.5139,-0.8399
0.011,-0.255,-0.056,-13.5,-130,-141.7,1023,2018,4,26,14,46,27.272,-0.1538,-0.0007,0.5351,-0.8306
0.022,-0.078,0.009,-8.5,-109.5,-144.7,1023,2018,4,26,14,46,27.292,-0.1337,0.0177,0.5522,-0.8226
0,-0.063,0.028,-4.5,-98.4,-148.7,1023,2018,4,26,14,46,27.332,-0.1128,0.0354,0.5661,-0.8157
-0.035,-0.191,0.005,2,-81.4,-150.7,0,2018,4,26,14,46,27.351,-0.0911,0.0522,0.5781,-0.8091
-0.035,-0.15,0.008,11.2,-60.4,-157.1,0,2018,4,26,14,46,27.355,-0.0682,0.0676,0.5868,-0.8039
-0.025,-0.078,0.031,17.2,-56,-165.1,0,2018,4,26,14,46,27.373,-0.0435,0.0825,0.5928,-0.7998
-0.052,0.02,0.069,17.7,-63.8,-165.3,0,2018,4,26,14,46,27.392,-0.0179,0.0973,0.598,-0.7953
-0.097,-0.036,0.036,17.5,-65.6,-163.2,0,2018,4,26,14,46,27.411,0.0072,0.1115,0.6037,-0.7893
-0.108,-0.001,0.124,20.9,-52.6,-165.1,0,2018,4,26,14,46,27.431,0.0326,0.1256,0.6082,-0.783
-0.13,0.111,0.163,21.9,-44.3,-165.2,0,2018,4,26,14,46,27.469,0.0585,0.1401,0.6105,-0.7772
-0.177,0.163,0.154,19.2,-27.4,-156.9,0,2018,4,26,14,46,27.489,0.0834,0.1541,0.611,-0.7719
-0.196,0.218,0.144,11.2,-8.5,-144.3,0,2018,4,26,14,46,27.493,0.1056,0.168,0.6084,-0.7683
-0.208,0.344,0.174,2.7,5.3,-121.2,0,2018,4,26,14,46,27.515,0.1241,0.1812,0.6041,-0.766
-0.195,0.487,0.156,-3.4,11.9,-92.1,0,2018,4,26,14,46,27.535,0.1378,0.1928,0.5992,-0.7647
-0.143,0.559,0.024,-4,14.7,-58.7,0,2018,4,26,14,46,27.553,0.1468,0.2015,0.5948,-0.7641
-0.127,0.564,-0.063,-0.1,23.3,-19,0,2018,4,26,14,46,27.576,0.151,0.2064,0.5908,-0.7651
-0.122,0.518,-0.063,7.8,49.8,24.4,0,2018,4,26,14,46,27.595,0.1495,0.2065,0.5858,-0.7692
-0.132,0.58,0.03,15,70,65.5,0,2018,4,26,14,46,27.611,0.1421,0.2019,0.5785,-0.7773
-0.127,0.646,0.059,17.6,63.9,102.5,1023,2018,4,26,14,46,27.65,0.1297,0.1927,0.5714,-0.787
-0.13,0.638,0.044,17.4,52.9,133.4,1023,2018,4,26,14,46,27.653,0.113,0.1796,0.5669,-0.7959
-0.123,0.593,0.069,15.6,47.5,160.5,1023,2018,4,26,14,46,27.672,0.0925,0.1637,0.5641,-0.8039
-0.142,0.472,0.065,14.5,55.8,185.2,1023,2018,4,26,14,46,27.712,0.068,0.1453,0.5611,-0.8119
-0.155,0.532,0.146,12.2,63,205.1,1023,2018,4,26,14,46,27.731,0.0398,0.125,0.5569,-0.8201
-0.152,0.546,0.083,11.2,61.9,221.3,1023,2018,4,26,14,46,27.736,0.0088,0.103,0.5518,-0.8274
-0.18,0.168,-0.078,14.3,81.6,240.6,1023,2018,4,26,14,46,27.773,-0.0245,0.0791,0.5455,-0.8339
-0.093,-0.292,-0.153,27.3,159.8,260.6,1023,2018,4,26,14,46,27.794,-0.0605,0.0515,0.5318,-0.843
-0.009,-0.151,-0.078,55.8,257.9,267.8,1023,2018,4,26,14,46,27.798,-0.0973,0.0181,0.5026,-0.8587
-0.072,0.155,-0.03,78.7,235.3,258.7,0,2018,4,26,14,46,27.817,-0.1313,-0.0197,0.4655,-0.875
-0.241,-0.114,0.02,93.7,177.2,241.2,0,2018,4,26,14,46,27.836,-0.1616,-0.0585,0.4352,-0.8837
-0.301,-0.503,0.052,97.4,181.5,191.1,0,2018,4,26,14,46,27.873,-0.1857,-0.0947,0.4086,-0.8885
-0.269,-0.526,0.168,87.5,214.4,136.5,0,2018,4,26,14,46,27.876,-0.2002,-0.1272,0.3772,-0.8951
-0.203,-0.024,0.38,65.5,153.4,106.9,0,2018,4,26,14,46,27.894,-0.2094,-0.154,0.3465,-0.9013
-0.271,0.091,0.451,46.2,22.5,80.5,0,2018,4,26,14,46,27.933,-0.2185,-0.1713,0.3327,-0.9012
-0.291,-0.267,0.34,27.2,-57.6,40.3,0,2018,4,26,14,46,27.954,-0.2268,-0.1799,0.3362,-0.8961
-0.169,-0.33,0.218,7.2,-59.9,6.1,0,2018,4,26,14,46,27.959,-0.2308,-0.1811,0.3467,-0.8908
-0.061,-0.18,0.166,-4,-41.1,-4.6,0,2018,4,26,14,46,27.976,-0.2318,-0.1788,0.3551,-0.8877
-0.019,-0.175,0.173,-7.2,-26.2,-1.9,0,2018,4,26,14,46,28.016,-0.2324,-0.1755,0.3606,-0.886
-0.044,-0.142,0.166,-7.3,-1.2,2.4,0,2018,4,26,14,46,28.035,-0.2332,-0.1733,0.3625,-0.8855
-0.029,-0.005,0.146,-7.4,11,0.2,0,2018,4,26,14,46,28.039,-0.2335,-0.1723,0.3608,-0.8862
-0.051,0.029,0.143,-7.3,-0.8,-4.6,0,2018,4,26,14,46,28.075,-0.2336,-0.1714,0.3589,-0.8872
-0.08,-0.046,0.126,-8.2,-13.2,-12.4,0,2018,4,26,14,46,28.079,-0.2332,-0.1695,0.3596,-0.8874
-0.113,-0.052,0.147,-14.1,-21.7,-22.8,0,2018,4,26,14,46,28.095,-0.2317,-0.1663,0.3622,-0.8873
-0.089,0,0.18,-23.5,-41.8,-35.4,0,2018,4,26,14,46,28.116,-0.2294,-0.1606,0.3665,-0.8872
-0.083,-0.058,0.153,-29.3,-65.7,-46.3,0,2018,4,26,14,46,28.137,-0.2265,-0.1517,0.3744,-0.8862
-0.097,-0.13,0.133,-34,-77.5,-57.7,1023,2018,4,26,14,46,28.159,-0.2227,-0.1405,0.3854,-0.8843
-0.086,-0.071,0.124,-39.5,-88,-70.4,1023,2018,4,26,14,46,28.179,-0.2172,-0.1275,0.3982,-0.882
-0.06,-0.018,0.108,-43.9,-112.8,-83.8,1023,2018,4,26,14,46,28.199,-0.2105,-0.1121,0.4132,-0.8788
-0.06,-0.223,0.065,-47.9,-120.1,-108.8,1023,2018,4,26,14,46,28.22,-0.1922,-0.0743,0.4513,-0.8682
-0.046,-0.234,0.024,-44,-105.1,-119.4,1023,2018,4,26,14,46,28.239,-0.1797,-0.0543,0.4687,-0.8631
-0.028,-0.096,0.037,-39.1,-109.3,-129.1,1023,2018,4,26,14,46,28.261,-0.1653,-0.0345,0.4846,-0.8582
-0.034,-0.065,0.011,-32.8,-124.2,-139.4,1023,2018,4,26,14,46,28.279,-0.1489,-0.0144,0.5019,-0.8518
-0.036,-0.087,0.011,-28.8,-125,-150.3,1023,2018,4,26,14,46,28.3,-0.1304,0.006,0.5201,-0.844
-0.025,-0.082,0.07,-26.8,-111.7,-156.9,1023,2018,4,26,14,46,28.321,-0.1102,0.0267,0.5365,-0.8361
-0.034,-0.072,0.087,-21.6,-92.1,-156.3,1023,2018,4,26,14,46,28.341,-0.0893,0.0468,0.5493,-0.8294
-0.03,-0.051,0.053,-15.1,-71.9,-152.8,1023,2018,4,26,14,46,28.379,-0.0683,0.0653,0.559,-0.8237
-0.042,-0.079,-0.027,-9.2,-48,-151.3,1023,2018,4,26,14,46,28.383,-0.0471,0.0823,0.5656,-0.8191
-0.099,-0.131,-0.156,-5.7,-17.9,-155.4,0,2018,4,26,14,46,28.399,-0.0257,0.0984,0.5681,-0.8166
-0.072,0.007,-0.031,-4.6,-2.1,-168.4,0,2018,4,26,14,46,28.438,-0.0032,0.1151,0.5661,-0.8162
-0.056,0.161,0.11,-2.7,-18.1,-174,0,2018,4,26,14,46,28.458,0.0208,0.1323,0.5632,-0.8153
-0.089,0.181,0.017,0.5,-38,-168.8,0,2018,4,26,14,46,28.462,0.0457,0.149,0.563,-0.8115
-0.116,0.214,-0.047,5.5,-28.1,-156.5,0,2018,4,26,14,46,28.479,0.0696,0.1638,0.5627,-0.8072
-0.143,0.431,0.019,9.2,-9,-137.1,0,2018,4,26,14,46,28.519,0.0913,0.1767,0.5602,-0.804
-0.122,0.695,0.016,9.7,-5.9,-107.9,0,2018,4,26,14,46,28.538,0.1096,0.1874,0.5566,-0.8018
-0.128,0.829,-0.065,16.1,-9.4,-63,0,2018,4,26,14,46,28.542,0.1225,0.1936,0.5548,-0.7997
-0.148,0.713,0.043,21.9,20.1,-4,0,2018,4,26,14,46,28.582,0.1289,0.1943,0.5527,-0.8
-0.143,0.602,0.047,29.5,80.6,64,0,2018,4,26,14,46,28.601,0.1252,0.1888,0.546,-0.8065
-0.188,0.861,0.079,30.5,92.8,120,0,2018,4,26,14,46,28.605,0.1116,0.1776,0.5348,-0.8184
-0.231,0.847,0.041,25.8,53,156.7,0,2018,4,26,14,46,28.617,0.0916,0.1618,0.5277,-0.8288
-0.207,0.566,0.012,20.9,22.2,170.3,0,2018,4,26,14,46,28.653,0.0687,0.1439,0.5266,-0.8349
-0.148,0.272,0.101,18.9,41.6,182.8,0,2018,4,26,14,46,28.673,0.044,0.1251,0.526,-0.84
-0.157,0.182,0.041,17.8,61.7,201.2,0,2018,4,26,14,46,28.68,0.0162,0.1052,0.5219,-0.8462
-0.156,0.196,0.004,20,65.1,212,1023,2018,4,26,14,46,28.714,-0.0141,0.0837,0.5155,-0.8526
-0.113,0.157,0.011,27.5,65.7,206.4,1023,2018,4,26,14,46,28.734,-0.0442,0.0611,0.5086,-0.8576
-0.098,-0.054,-0.032,37.3,90.5,203.3,1023,2018,4,26,14,46,28.741,-0.0728,0.0369,0.4996,-0.8623
-0.079,-0.319,-0.062,47.6,162.4,210.5,1023,2018,4,26,14,46,28.777,-0.1009,0.0105,0.4825,-0.8699
-0.085,-0.286,-0.037,58.6,202.5,210.6,1023,2018,4,26,14,46,28.797,-0.1286,-0.0185,0.4555,-0.8806
-0.117,-0.255,0.003,74.1,212.6,192.6,1023,2018,4,26,14,46,28.8,-0.1536,-0.0497,0.4237,-0.8912
-0.111,-0.205,0.03,83,193.1,157.4,1023,2018,4,26,14,46,28.836,-0.1728,-0.0807,0.393,-0.8994
-0.136,-0.256,0.074,81.4,154.8,128.4,1023,2018,4,26,14,46,28.856,-0.1867,-0.109,0.3671,-0.9046
-0.164,-0.249,0.205,69.3,114.3,102.8,1023,2018,4,26,14,46,28.862,-0.1971,-0.133,0.3468,-0.9072
-0.177,-0.262,0.238,59.4,80.4,73.7,1023,2018,4,26,14,46,28.882,-0.2048,-0.1518,0.3323,-0.908
-0.128,-0.164,0.203,47.7,52.9,45.3,0,2018,4,26,14,46,28.901,-0.2092,-0.166,0.3224,-0.9081
-0.095,-0.12,0.177,35.9,33.5,25.9,0,2018,4,26,14,46,28.937,-0.2111,-0.176,0.3164,-0.9079
-0.095,-0.192,0.209,25.5,41,17.2,0,2018,4,26,14,46,28.957,-0.2115,-0.1831,0.3115,-0.9081
-0.086,-0.101,0.252,16.9,52.2,13.4,0,2018,4,26,14,46,28.962,-0.2112,-0.1885,0.3041,-0.9095
-0.057,0.063,0.224,9.4,41.7,8.5,0,2018,4,26,14,46,28.998,-0.2108,-0.1928,0.2959,-0.9114
-0.057,0.123,0.19,2.5,14.2,1.2,0,2018,4,26,14,46,29.02,-0.2105,-0.1949,0.2913,-0.9125
-0.057,0.063,0.165,-3,-8.5,-5.4,0,2018,4,26,14,46,29.024,-0.2102,-0.1947,0.2911,-0.9127
-0.068,0.002,0.168,-8.5,-10.6,-7.7,0,2018,4,26,14,46,29.061,-0.21,-0.193,0.292,-0.9128
-0.078,0.037,0.16,-14.4,-6.5,-9.9,0,2018,4,26,14,46,29.082,-0.2097,-0.1904,0.2924,-0.9133
-0.078,0.093,0.154,-21.2,-22.2,-14.7,0,2018,4,26,14,46,29.084,-0.2094,-0.1865,0.2936,-0.9138
-0.089,0.03,0.144,-28,-44.8,-21,0,2018,4,26,14,46,29.105,-0.2092,-0.1807,0.298,-0.9136
-0.09,-0.009,0.141,-36.1,-62.7,-29.1,0,2018,4,26,14,46,29.125,-0.2089,-0.1726,0.3056,-0.9127
-0.082,-0.009,0.152,-44.6,-80.5,-39.9,0,2018,4,26,14,46,29.144,-0.2078,-0.162,0.3161,-0.9113
-0.065,-0.044,0.122,-50.8,-102.5,-52.8,0,2018,4,26,14,46,29.164,-0.2058,-0.1485,0.3298,-0.9092
-0.043,-0.095,0.081,-54.3,-121.4,-66.5,0,2018,4,26,14,46,29.184,-0.2022,-0.1326,0.3472,-0.906
-0.018,-0.095,0.032,-55.2,-137.6,-82,0,2018,4,26,14,46,29.22,-0.1966,-0.1146,0.3678,-0.9016
0.016,-0.006,-0.008,-55.7,-160.5,-98.3,1023,2018,4,26,14,46,29.24,-0.1888,-0.0947,0.3912,-0.8957
0.03,-0.067,-0.035,-51,-183.5,-110.6,1023,2018,4,26,14,46,29.244,-0.1785,-0.0731,0.4183,-0.8875
0.019,-0.251,-0.012,-44.3,-172,-118.6,1023,2018,4,26,14,46,29.283,-0.1661,-0.0513,0.4469,-0.8775
0.038,-0.254,0.026,-32.4,-128.3,-123,1023,2018,4,26,14,46,29.304,-0.1517,-0.0314,0.4697,-0.869
0.015,-0.094,0.02,-21,-99.4,-122.3,1023,2018,4,26,14,46,29.308,-0.1355,-0.0138,0.4867,-0.8628
-0.001,0.044,0.006,-15.7,-97.7,-120.9,1023,2018,4,26,14,46,29.327,-0.119,0.0015,0.5008,-0.8572
0.004,0.063,-0.001,-12.4,-101.8,-124.4,1023,2018,4,26,14,46,29.348,-0.1019,0.0162,0.5154,-0.8506
0.004,-0.016,-0.001,-7.2,-100,-129.3,1023,2018,4,26,14,46,29.366,-0.0836,0.0311,0.5297,-0.8434
0.001,-0.048,0.025,-3,-89.7,-129.4,1023,2018,4,26,14,46,29.387,-0.0645,0.0453,0.5428,-0.8361
-0.009,0.013,0.054,-1.9,-83.5,-130,1023,2018,4,26,14,46,29.405,-0.0452,0.0588,0.5536,-0.8294
-0.02,-0.022,0,2.4,-75.5,-130.9,1023,2018,4,26,14,46,29.446,-0.0257,0.072,0.5637,-0.8224
-0.027,0.029,0,6,-52.4,-135.6,0,2018,4,26,14,46,29.465,-0.0056,0.0845,0.5711,-0.8164
-0.044,0.119,0.044,8.3,-40.2,-136.1,0,2018,4,26,14,46,29.469,0.0151,0.0969,0.575,-0.8121
-0.065,0.238,0.084,5.3,-44.4,-127.7,0,2018,4,26,14,46,29.489,0.0352,0.109,0.5782,-0.8077
-0.077,0.215,0.067,3.7,-51.2,-117.3,0,2018,4,26,14,46,29.51,0.0537,0.1204,0.5824,-0.8021
-0.085,0.184,0.072,4.4,-41.7,-102.1,0,2018,4,26,14,46,29.53,0.0705,0.1306,0.5865,-0.7962
-0.112,0.206,0.117,4.8,-16.6,-80.9,0,2018,4,26,14,46,29.552,0.0842,0.139,0.5881,-0.7922
-0.135,0.263,0.116,2.3,13.5,-56.2,0,2018,4,26,14,46,29.569,0.094,0.1455,0.5864,-0.7912
-0.13,0.302,0.112,-0.4,53.8,-26.9,0,2018,4,26,14,46,29.585,0.0989,0.1503,0.5805,-0.794
-0.1,0.396,0.075,-1.7,87.9,6.9,0,2018,4,26,14,46,29.608,0.0982,0.1526,0.5702,-0.8011
-0.075,0.464,0.02,-1.1,105.3,42.8,0,2018,4,26,14,46,29.627,0.0918,0.1519,0.5571,-0.8111
-0.071,0.497,-0.012,-1,116.4,78.1,0,2018,4,26,14,46,29.647,0.08,0.1479,0.5427,-0.8228
-0.036,0.424,-0.074,2.7,132.3,110.1,0,2018,4,26,14,46,29.685,0.063,0.1406,0.527,-0.8357
-0.019,0.479,-0.079,7.3,135.3,132.3,0,2018,4,26,14,46,29.703,0.0421,0.13,0.5099,-0.8492
-0.022,0.504,-0.087,17,111.1,144.5,0,2018,4,26,14,46,29.708,0.0196,0.1168,0.4938,-0.8614
-0.023,0.374,-0.1,28.1,85,153.7,0,2018,4,26,14,46,29.748,-0.0029,0.1009,0.4821,-0.8702
-0.015,0.107,-0.112,40.2,102.5,161.9,1023,2018,4,26,14,46,29.769,-0.0256,0.0824,0.4709,-0.8779
0.007,-0.112,-0.156,55,168.9,171.1,1023,2018,4,26,14,46,29.773,-0.0493,0.0608,0.4533,-0.8878
0.007,0.006,-0.135,71.2,211.9,176.2,1023,2018,4,26,14,46,29.791,-0.0732,0.0356,0.4259,-0.901
0.01,0.082,-0.134,92.4,209.1,170.6,1023,2018,4,26,14,46,29.811,-0.0957,0.007,0.3947,-0.9137
-0.016,0.134,-0.112,105.2,177,152.4,1023,2018,4,26,14,46,29.833,-0.1149,-0.0234,0.3653,-0.9234
-0.068,-0.049,-0.043,112,146.1,137.8,1023,2018,4,26,14,46,29.852,-0.1306,-0.0539,0.3413,-0.9292
-0.126,-0.342,0.059,111.2,154.3,128.7,1023,2018,4,26,14,46,29.868,-0.1442,-0.0835,0.3189,-0.933
-0.134,-0.253,0.177,99.5,186.8,115.5,1023,2018,4,26,14,46,29.89,-0.1555,-0.1119,0.292,-0.937
-0.199,-0.002,0.261,83.6,180.6,94,1023,2018,4,26,14,46,29.909,-0.1643,-0.1378,0.2616,-0.941
-0.199,0.063,0.304,63.3,130,68.7,1023,2018,4,26,14,46,29.929,-0.1705,-0.1578,0.2358,-0.9435
-0.189,0.002,0.335,41.2,73.9,49.1,1023,2018,4,26,14,46,29.952,-0.1755,-0.1716,0.2189,-0.9443
-0.145,0.051,0.328,18.6,37.7,32.6,1023,2018,4,26,14,46,29.971,-0.1799,-0.1798,0.2087,-0.9442
-0.1,0.076,0.308,3.7,8.2,19.2,1023,2018,4,26,14,46,29.993,-0.1832,-0.183,0.2042,-0.944
-0.093,0.002,0.298,-7.1,-14.3,9.1,0,2018,4,26,14,46,30.032,-0.186,-0.1829,0.2036,-0.9436
-0.088,-0.049,0.244,-14,-33.2,-2.9,0,2018,4,26,14,46,30.051,-0.1879,-0.1803,0.2066,-0.9431
-0.053,-0.018,0.187,-19.6,-52.5,-16.2,0,2018,4,26,14,46,30.055,-0.1885,-0.1755,0.2129,-0.9424
-0.034,0.001,0.169,-24.9,-83.7,-30.3,0,2018,4,26,14,46,30.074,-0.1877,-0.1684,0.2235,-0.9414
-0.038,0.015,0.167,-32.3,-120.2,-44.5,0,2018,4,26,14,46,30.114,-0.186,-0.1586,0.2397,-0.9395
-0.03,-0.07,0.133,-35.3,-150,-59.9,0,2018,4,26,14,46,30.118,-0.1826,-0.1462,0.2621,-0.9362
-0.012,-0.12,0.098,-37.1,-162,-73.5,0,2018,4,26,14,46,30.133,-0.1773,-0.1316,0.2885,-0.9316
-0.012,-0.098,0.09,-39.9,-166.3,-84,0,2018,4,26,14,46,30.153,-0.17,-0.1158,0.3162,-0.9261
-0.031,-0.037,0.089,-44.5,-166.8,-92.8,0,2018,4,26,14,46,30.172,-0.1615,-0.0988,0.3433,-0.9199
-0.02,-0.084,0.078,-50.5,-172.3,-103.1,0,2018,4,26,14,46,30.194,-0.1516,-0.0803,0.3704,-0.9128
-0.024,-0.077,0.085,-53.6,-163.4,-104.4,0,2018,4,26,14,46,30.214,-0.1409,-0.0605,0.397,-0.9048
0.001,-0.054,0.067,-52.4,-148.5,-104.6,0,2018,4,26,14,46,30.25,-0.1297,-0.0408,0.421,-0.8967
-0.011,-0.019,0.048,-50.8,-137.7,-108,0,2018,4,26,14,46,30.268,-0.1178,-0.0217,0.4426,-0.8886
0.001,-0.014,0.005,-47.5,-136.5,-114.8,0,2018,4,26,14,46,30.276,-0.1048,-0.0026,0.4631,-0.88
0.001,-0.032,-0.017,-43.1,-134.9,-120.8,1023,2018,4,26,14,46,30.295,-0.0905,0.0164,0.4828,-0.8708
0.014,0.009,-0.023,-38.8,-132.4,-125.1,1023,2018,4,26,14,46,30.313,-0.0748,0.0353,0.502,-0.8608
0.014,-0.02,-0.03,-31.6,-126.8,-127,1023,2018,4,26,14,46,30.351,-0.0579,0.0533,0.5204,-0.8502
0,-0.098,-0.084,-22.7,-112.1,-127.6,1023,2018,4,26,14,46,30.354,-0.0403,0.0703,0.537,-0.8396
-0.011,-0.033,-0.043,-14.4,-93.8,-128.8,1023,2018,4,26,14,46,30.371,-0.0221,0.0857,0.5508,-0.8298
-0.009,0.077,0.004,-6.6,-87.3,-129.4,1023,2018,4,26,14,46,30.412,-0.003,0.0999,0.5617,-0.8212
-0.027,0.086,-0.008,-0.5,-84.7,-126.9,1023,2018,4,26,14,46,30.433,0.0164,0.1129,0.5715,-0.8126
-0.041,0.104,0.033,3.4,-77.7,-122,1023,2018,4,26,14,46,30.436,0.0358,0.1247,0.5804,-0.8038
-0.05,0.191,0.11,3.6,-70.2,-114.4,1023,2018,4,26,14,46,30.455,0.0543,0.1356,0.5872,-0.796
-0.09,0.21,0.122,1.6,-63.3,-99.7,1023,2018,4,26,14,46,30.475,0.0711,0.1455,0.5938,-0.7881
-0.11,0.282,0.158,-3.1,-53.6,-83.2,1023,2018,4,26,14,46,30.496,0.0849,0.1544,0.5992,-0.7809
-0.116,0.278,0.168,-7.5,-43.4,-66,0,2018,4,26,14,46,30.516,0.0958,0.1621,0.6038,-0.7745
-0.133,0.299,0.197,-12.5,-25.6,-44.4,0,2018,4,26,14,46,30.538,0.1032,0.1687,0.6071,-0.7695
-0.138,0.335,0.227,-16.9,2.3,-14.3,0,2018,4,26,14,46,30.559,0.1059,0.1736,0.6081,-0.7672
-0.129,0.23,0.151,-18.3,54.8,23.3,0,2018,4,26,14,46,30.579,0.1024,0.176,0.6049,-0.7697
-0.118,0.322,0.081,-18.6,108.8,59.5,0,2018,4,26,14,46,30.599,0.0921,0.1755,0.5949,-0.7789
-0.089,0.547,0.042,-19,102.2,87.1,0,2018,4,26,14,46,30.616,0.0765,0.1721,0.5824,-0.7907
-0.065,0.507,0.002,-16.2,79.7,108.3,0,2018,4,26,14,46,30.661,0.0584,0.1656,0.5732,-0.8003
-0.037,0.203,-0.11,-11,98.1,129.5,0,2018,4,26,14,46,30.663,0.0382,0.1568,0.5649,-0.8091
0.007,0.033,-0.157,-0.1,169.8,152.8,0,2018,4,26,14,46,30.674,0.0139,0.1444,0.5499,-0.8224
0.022,0.355,-0.068,14.6,198.2,169.4,0,2018,4,26,14,46,30.71,-0.0131,0.1285,0.5265,-0.8402
-0.004,0.425,-0.061,33.1,163.2,177.2,0,2018,4,26,14,46,30.732,-0.0403,0.1083,0.5034,-0.8562
-0.002,0.247,-0.106,49.5,127.8,179.4,0,2018,4,26,14,46,30.736,-0.0659,0.0853,0.4853,-0.8676
-0.006,-0.032,-0.166,63.6,143.2,185.3,0,2018,4,26,14,46,30.777,-0.0905,0.0598,0.4689,-0.8765
-0.054,-0.047,-0.087,70.7,170.3,187.4,0,2018,4,26,14,46,30.799,-0.1151,0.0314,0.4473,-0.8863
-0.015,-0.094,-0.06,85.9,174.3,178.1,0,2018,4,26,14,46,30.803,-0.1382,0.0014,0.4237,-0.8951
-0.042,-0.099,-0.051,99.4,175.6,162.9,1023,2018,4,26,14,46,30.822,-0.1577,-0.0303,0.3992,-0.9026
-0.069,-0.228,-0.028,103.7,183.9,149.3,1023,2018,4,26,14,46,30.836,-0.1737,-0.0624,0.3738,-0.9089
-0.122,-0.341,0.118,100.8,192,141.2,1023,2018,4,26,14,46,30.874,-0.1876,-0.094,0.3452,-0.9147
-0.206,-0.359,0.281,91.2,190,123.2,1023,2018,4,26,14,46,30.893,-0.1994,-0.1237,0.3166,-0.919
-0.243,-0.131,0.315,70.5,163.7,85.9,1023,2018,4,26,14,46,30.897,-0.2077,-0.1491,0.2886,-0.9226
-0.231,0.117,0.346,45,92.1,41.5,1023,2018,4,26,14,46,30.935,-0.2116,-0.1664,0.2675,-0.9251
-0.236,0.182,0.405,16.3,-12.5,-1.7,1023,2018,4,26,14,46,30.957,-0.212,-0.1735,0.2622,-0.9252
-0.165,0.102,0.374,-6.1,-91.7,-36.9,1023,2018,4,26,14,46,30.961,-0.2102,-0.171,0.272,-0.9233
-0.11,-0.059,0.31,-23.2,-125.3,-57.3,1023,2018,4,26,14,46,30.98,-0.2067,-0.1618,0.2905,-0.9201
-0.066,-0.106,0.253,-34.9,-120.8,-62.6,1023,2018,4,26,14,46,31,-0.2022,-0.149,0.3104,-0.9167
-0.048,-0.069,0.227,-44.1,-107.7,-60.4,1023,2018,4,26,14,46,31.019,-0.1976,-0.1349,0.3281,-0.9138
-0.056,-0.042,0.2,-50.4,-100,-58.3,1023,2018,4,26,14,46,31.039,-0.1935,-0.1201,0.3433,-0.9111
-0.034,0.006,0.139,-53.7,-109.5,-63.7,0,2018,4,26,14,46,31.077,-0.1894,-0.1046,0.3584,-0.9081
-0.017,-0.009,0.073,-54.4,-125.7,-73.2,0,2018,4,26,14,46,31.097,-0.1842,-0.0878,0.3758,-0.9039
-0.013,-0.135,0.023,-54.5,-141.3,-81.9,0,2018,4,26,14,46,31.101,-0.1776,-0.0695,0.3964,-0.898
-0.025,-0.178,-0.014,-52.9,-147.7,-91.5,0,2018,4,26,14,46,31.12,-0.1691,-0.0504,0.4194,-0.8904
0.005,-0.145,0.018,-50.2,-144.2,-104,0,2018,4,26,14,46,31.138,-0.1587,-0.0306,0.4422,-0.8821
0.001,-0.12,0.041,-45.1,-140.8,-118.5,0,2018,4,26,14,46,31.179,-0.1459,-0.0104,0.4635,-0.8739
-0.009,-0.122,0.012,-34.9,-131.8,-127.2,0,2018,4,26,14,46,31.197,-0.1304,0.0094,0.4835,-0.8655
-0.013,-0.067,-0.005,-26.3,-121.8,-131.6,0,2018,4,26,14,46,31.201,-0.1132,0.0278,0.5017,-0.857
-0.033,-0.002,-0.014,-21.9,-117.2,-133.5,0,2018,4,26,14,46,31.221,-0.0949,0.0452,0.5185,-0.8485
-0.058,-0.016,-0.018,-18.8,-105.8,-136.1,0,2018,4,26,14,46,31.242,-0.0761,0.0619,0.5337,-0.8399
-0.054,0.032,0.007,-19.3,-102.7,-142.5,0,2018,4,26,14,46,31.262,-0.0567,0.0785,0.5467,-0.8316
-0.027,0.015,-0.013,-13.6,-107.9,-149.8,0,2018,4,26,14,46,31.281,-0.0358,0.0956,0.5596,-0.8223
-0.043,0.027,0.014,-6,-105.9,-155.8,0,2018,4,26,14,46,31.303,-0.0134,0.1123,0.5722,-0.8122
-0.037,0.135,0.034,-0.8,-111.4,-158.7,0,2018,4,26,14,46,31.322,0.0104,0.1286,0.5836,-0.8016
-0.027,0.158,0.009,1.4,-113.2,-153.5,0,2018,4,26,14,46,31.339,0.0349,0.1443,0.5947,-0.79
-0.039,0.213,0.061,4.2,-100.9,-141.3,1023,2018,4,26,14,46,31.377,0.0584,0.1586,0.6046,-0.7783
-0.058,0.213,0.136,7.1,-73.6,-119.6,1023,2018,4,26,14,46,31.397,0.0792,0.1707,0.6126,-0.7676
-0.088,0.276,0.15,7.2,-35.1,-86.2,1023,2018,4,26,14,46,31.401,0.0953,0.1799,0.6164,-0.7605
-0.093,0.425,0.134,6.1,-1.1,-49.6,1023,2018,4,26,14,46,31.439,0.1053,0.1861,0.6161,-0.758
-0.096,0.447,0.124,7.7,28.3,-10.3,1023,2018,4,26,14,46,31.459,0.1095,0.1886,0.6132,-0.7591
-0.105,0.502,0.109,9,57,29.8,1023,2018,4,26,14,46,31.461,0.1075,0.1871,0.6074,-0.7644
-0.109,0.512,0.093,8.1,62.8,63.8,1023,2018,4,26,14,46,31.499,0.1,0.1819,0.6006,-0.7721
-0.101,0.366,-0.006,5.6,65.3,92.4,1023,2018,4,26,14,46,31.52,0.088,0.1738,0.5944,-0.7801
-0.053,0.088,-0.101,7.6,107.5,119.2,1023,2018,4,26,14,46,31.524,0.0717,0.1632,0.5862,-0.7902
0.009,-0.071,-0.088,18.6,205.4,148.3,1023,2018,4,26,14,46,31.544,0.0498,0.1496,0.569,-0.807
0.031,0.371,0.013,32.2,273.1,169.8,1023,2018,4,26,14,46,31.564,0.0235,0.1321,0.5374,-0.8325
0.01,0.636,-0.053,41.9,248.9,185.1,0,2018,4,26,14,46,31.6,-0.005,0.1109,0.5018,-0.8577
-0.033,0.59,-0.081,49.3,199.1,195.9,0,2018,4,26,14,46,31.619,-0.0339,0.087,0.4718,-0.8766
-0.032,0.369,-0.083,57.9,182.5,196.4,0,2018,4,26,14,46,31.624,-0.0626,0.0615,0.4458,-0.8907
-0.005,0.238,-0.097,69.1,180.3,193.6,0,2018,4,26,14,46,31.643,-0.09,0.0342,0.4188,-0.9029
-0.053,0.309,0.003,78,150.8,188.7,0,2018,4,26,14,46,31.662,-0.1158,0.0062,0.3943,-0.9116
-0.081,0.352,0.007,89.1,112.3,179.1,0,2018,4,26,14,46,31.698,-0.1395,-0.0223,0.3749,-0.9162
-0.152,-0.099,-0.014,98,85.4,167.3,0,2018,4,26,14,46,31.717,-0.1606,-0.0508,0.3611,-0.9171
-0.177,-0.371,0.052,97.6,108,163.8,0,2018,4,26,14,46,31.723,-0.1799,-0.0798,0.3467,-0.917
-0.194,-0.219,0.176,85.5,96.4,144.8,0,2018,4,26,14,46,31.759,-0.1975,-0.1074,0.3306,-0.9165
-0.172,-0.02,0.198,74.8,59.9,114.2,0,2018,4,26,14,46,31.78,-0.2123,-0.131,0.318,-0.9146
-0.241,-0.288,0.24,64.4,22.3,79.1,0,2018,4,26,14,46,31.785,-0.2229,-0.1495,0.3125,-0.9111
-0.208,-0.406,0.288,45.3,21.9,51.4,0,2018,4,26,14,46,31.819,-0.2291,-0.1625,0.311,-0.9079
-0.169,-0.356,0.304,27.9,36.9,32.2,0,2018,4,26,14,46,31.841,-0.2325,-0.1712,0.3073,-0.9066
-0.147,-0.168,0.283,14.3,38.9,19.5,0,2018,4,26,14,46,31.843,-0.2339,-0.1773,0.3018,-0.907
-0.103,0.015,0.255,4.1,12.8,4.8,0,2018,4,26,14,46,31.882,-0.2346,-0.1805,0.2969,-0.9078
-0.086,0.011,0.219,-1.7,-19.4,-8,1023,2018,4,26,14,46,31.902,-0.2347,-0.1804,0.2967,-0.9079
-0.047,-0.01,0.146,-4,-33.1,-17.6,1023,2018,4,26,14,46,31.906,-0.2337,-0.1781,0.3009,-0.9072
-0.041,-0.025,0.121,-3.5,-29,-22.3,1023,2018,4,26,14,46,31.927,-0.2316,-0.175,0.3061,-0.9066
-0.053,0.024,0.12,-5,-28.3,-21.4,1023,2018,4,26,14,46,31.946,-0.2294,-0.172,0.3106,-0.9062
-0.062,0.045,0.106,-7.4,-31.4,-20.8,1023,2018,4,26,14,46,31.966,-0.2276,-0.1689,0.3149,-0.9057
-0.085,0.028,0.135,-15.7,-46.1,-24,1023,2018,4,26,14,46,31.986,-0.2247,-0.1606,0.3257,-0.9042
-0.089,0.01,0.144,-22.9,-67.2,-34.1,1023,2018,4,26,14,46,32.026,-0.2232,-0.154,0.3338,-0.9027
-0.091,-0.053,0.116,-27.9,-88.1,-47.1,1023,2018,4,26,14,46,32.047,-0.2205,-0.1448,0.3459,-0.9004
-0.067,-0.071,0.115,-36.4,-105.9,-61.5,1023,2018,4,26,14,46,32.051,-0.2164,-0.1329,0.361,-0.8972
-0.063,-0.075,0.121,-44.1,-123.6,-73.6,1023,2018,4,26,14,46,32.07,-0.211,-0.1178,0.3789,-0.8932
-0.037,-0.068,0.115,-50.7,-143.4,-86.2,1023,2018,4,26,14,46,32.09,-0.2044,-0.1001,0.3993,-0.888
-0.015,-0.171,0.133,-60.2,-149.3,-108.3,0,2018,4,26,14,46,32.127,-0.1862,-0.058,0.4444,-0.8742
-0.011,-0.193,0.092,-57.6,-141.8,-116.9,0,2018,4,26,14,46,32.132,-0.1748,-0.0351,0.4657,-0.8667
-0.016,-0.197,0.056,-54.4,-139.6,-128.3,0,2018,4,26,14,46,32.148,-0.1613,-0.0123,0.486,-0.8588
-0.005,-0.174,0.012,-50.6,-142.7,-141.6,0,2018,4,26,14,46,32.168,-0.1455,0.011,0.5061,-0.85
0,-0.308,-0.059,-40.7,-142,-159.4,0,2018,4,26,14,46,32.187,-0.1266,0.0351,0.5268,-0.8397
0.027,-0.332,-0.054,-25.9,-122.3,-174.8,0,2018,4,26,14,46,32.223,-0.1039,0.0586,0.5453,-0.8296
0.018,-0.208,-0.061,-9.7,-107.9,-183.9,0,2018,4,26,14,46,32.243,-0.0782,0.0806,0.5599,-0.8208
-0.015,-0.081,-0.107,5.6,-97.3,-187.1,0,2018,4,26,14,46,32.247,-0.0502,0.1005,0.5724,-0.8122
-0.042,-0.018,-0.107,18.9,-85.5,-190.8,0,2018,4,26,14,46,32.286,-0.0208,0.1183,0.5826,-0.8037
-0.077,0.115,0.027,29.2,-61.2,-187.1,0,2018,4,26,14,46,32.306,0.0094,0.134,0.5888,-0.7969
-0.105,0.323,0.115,33.6,-42.6,-170.6,0,2018,4,26,14,46,32.311,0.0387,0.1478,0.5912,-0.7918
-0.153,0.455,0.115,32.9,-21.8,-141,0,2018,4,26,14,46,32.35,0.0645,0.159,0.5909,-0.7882
-0.186,0.55,0.123,28.9,-1.8,-102.9,0,2018,4,26,14,46,32.354,0.0847,0.1672,0.5885,-0.7864
-0.206,0.587,0.138,23.9,16.9,-64.6,0,2018,4,26,14,46,32.371,0.0985,0.1722,0.5846,-0.7866
-0.213,0.576,0.147,15.8,37.8,-27.6,0,2018,4,26,14,46,32.388,0.1057,0.1747,0.5788,-0.7894
-0.205,0.654,0.131,8.1,64,9.1,1023,2018,4,26,14,46,32.424,0.1063,0.1749,0.5708,-0.7951
-0.18,0.871,0.108,-1.6,48.8,42,1023,2018,4,26,14,46,32.445,0.1011,0.1731,0.5631,-0.8016
-0.163,0.809,0.063,-9.2,13.6,75.5,1023,2018,4,26,14,46,32.449,0.0912,0.1686,0.5607,-0.8054
-0.16,0.601,0.03,-14.4,1,108.2,1023,2018,4,26,14,46,32.487,0.0767,0.1613,0.5629,-0.8069
-0.124,0.343,-0.08,-13.4,28,138,1023,2018,4,26,14,46,32.507,0.0573,0.1513,0.5642,-0.8095
-0.076,0.414,-0.048,-6.9,64.5,162.2,1023,2018,4,26,14,46,32.511,0.0336,0.1383,0.5606,-0.8157
-0.037,0.483,-0.037,4.6,79.2,182.8,1023,2018,4,26,14,46,32.531,0.007,0.122,0.5539,-0.8235
-0.038,0.295,-0.12,18.7,101.4,207.3,1023,2018,4,26,14,46,32.551,-0.0215,0.1014,0.5448,-0.832
-0.036,-0.027,-0.214,35.4,170,233.1,1023,2018,4,26,14,46,32.571,-0.0534,0.0758,0.5293,-0.8433
-0.046,0.07,-0.135,50.9,211.1,250.5,1023,2018,4,26,14,46,32.592,-0.0874,0.0448,0.5035,-0.8583
-0.056,0.043,-0.084,75.7,213.7,249.1,1023,2018,4,26,14,46,32.613,-0.1211,0.0094,0.4746,-0.8717
-0.089,-0.344,-0.139,98.1,222.5,225.9,0,2018,4,26,14,46,32.632,-0.1502,-0.0283,0.4437,-0.883
-0.142,-0.586,-0.055,115.1,264.1,196.7,0,2018,4,26,14,46,32.65,-0.1727,-0.068,0.4069,-0.8943
-0.183,-0.063,0.233,105.3,218.5,155,0,2018,4,26,14,46,32.671,-0.1889,-0.1057,0.3688,-0.9039
-0.296,0.098,0.376,90.6,105.1,104.8,0,2018,4,26,14,46,32.705,-0.1998,-0.1348,0.3438,-0.9075
-0.345,-0.188,0.465,63.2,7.9,53.2,0,2018,4,26,14,46,32.725,-0.2063,-0.1534,0.3369,-0.9057
-0.275,-0.376,0.447,32,-20.3,18.4,0,2018,4,26,14,46,32.73,-0.2093,-0.1624,0.3396,-0.9024
-0.114,-0.089,0.329,-7.9,-2.2,2.5,0,2018,4,26,14,46,32.768,-0.2107,-0.1651,0.342,-0.9007
-0.081,0.024,0.265,-15.1,-11.8,-3.3,0,2018,4,26,14,46,32.79,-0.2118,-0.1628,0.3421,-0.9008
-0.056,0.026,0.186,-15.2,-20.7,-8.8,0,2018,4,26,14,46,32.793,-0.2121,-0.1594,0.3441,-0.9006
-0.051,-0.033,0.123,-13.3,-21.6,-8.4,0,2018,4,26,14,46,32.831,-0.2123,-0.1559,0.3467,-0.9002
-0.05,-0.048,0.091,-11.8,-17.8,-9.3,0,2018,4,26,14,46,32.851,-0.2123,-0.1526,0.3493,-0.8997
-0.066,-0.056,0.085,-11,-15.7,-13.9,0,2018,4,26,14,46,32.854,-0.2116,-0.1497,0.3517,-0.8994
-0.083,-0.045,0.102,-12.3,-24,-22.4,0,2018,4,26,14,46,32.871,-0.21,-0.1463,0.3546,-0.8992
-0.086,0.008,0.13,-17.2,-50,-33.3,0,2018,4,26,14,46,32.89,-0.2076,-0.1414,0.3601,-0.8984
-0.066,-0.047,0.122,-22.1,-80.1,-46,0,2018,4,26,14,46,32.911,-0.2044,-0.1336,0.3702,-0.8962
-0.045,-0.148,0.091,-25.4,-90.9,-57.8,1023,2018,4,26,14,46,32.932,-0.1998,-0.1233,0.3843,-0.8928
-0.035,-0.112,0.056,-35.7,-105.1,-90.1,1023,2018,4,26,14,46,32.97,-0.1772,-0.0843,0.4291,-0.8816
-0.021,-0.144,0.04,-34.8,-120.4,-107.8,1023,2018,4,26,14,46,32.989,-0.1661,-0.0678,0.447,-0.8762
0.006,-0.121,0.066,-31.8,-125.8,-126.6,1023,2018,4,26,14,46,32.992,-0.152,-0.0495,0.4664,-0.8699
0.009,-0.053,0.113,-29.8,-133.4,-136.9,1023,2018,4,26,14,46,33.032,-0.1352,-0.0303,0.4859,-0.8629
-0.009,-0.04,0.121,-29.1,-143.1,-138.5,1023,2018,4,26,14,46,33.052,-0.1177,-0.0107,0.5057,-0.8545
-0.047,-0.16,0.057,-28.2,-134.1,-140.2,1023,2018,4,26,14,46,33.055,-0.0998,0.0085,0.5256,-0.8447
-0.032,-0.158,0.068,-24,-109,-147.8,1023,2018,4,26,14,46,33.092,-0.0809,0.0274,0.5428,-0.8354
-0.012,-0.065,0.062,-18.2,-93.4,-153.8,1023,2018,4,26,14,46,33.112,-0.0604,0.0463,0.5555,-0.8279
-0.024,-0.037,0.012,-13.2,-88.8,-153,1023,2018,4,26,14,46,33.117,-0.0391,0.0641,0.5668,-0.8203
-0.05,-0.072,-0.061,-9,-86,-152.4,1023,2018,4,26,14,46,33.132,-0.0177,0.0811,0.5775,-0.812
-0.063,0.106,0.023,-6,-80.7,-154.8,0,2018,4,26,14,46,33.168,0.004,0.0975,0.5868,-0.8038
-0.048,0.083,0.031,-1.8,-84.9,-157.3,0,2018,4,26,14,46,33.188,0.0267,0.1138,0.5947,-0.7953
-0.105,0.051,0.037,4.5,-62.4,-150.1,0,2018,4,26,14,46,33.194,0.0492,0.1286,0.6013,-0.787
-0.143,0.141,0.015,7.3,-19.4,-135.4,0,2018,4,26,14,46,33.229,0.0701,0.1422,0.603,-0.7817
-0.161,0.397,0.01,6.5,5.1,-113.1,0,2018,4,26,14,46,33.251,0.0878,0.1542,0.6001,-0.7798
-0.14,0.597,0.028,4.3,2.9,-85.7,0,2018,4,26,14,46,33.256,0.1017,0.164,0.5965,-0.779
-0.114,0.647,-0.008,5,-3.9,-53.9,0,2018,4,26,14,46,33.291,0.1116,0.1706,0.5946,-0.7777
-0.105,0.584,-0.012,9.9,16.1,-13.7,0,2018,4,26,14,46,33.311,0.1167,0.1733,0.5927,-0.7778
-0.1,0.511,0.007,15.6,58.1,32.2,0,2018,4,26,14,46,33.316,0.1155,0.1713,0.5874,-0.7824
-0.105,0.752,0.08,14.9,65,76.1,0,2018,4,26,14,46,33.353,0.1075,0.1647,0.5794,-0.7909
-0.11,0.782,0.072,10.5,27.6,109.7,0,2018,4,26,14,46,33.356,0.0943,0.1542,0.5754,-0.7976
-0.121,0.548,0.06,5.8,8.8,133.9,0,2018,4,26,14,46,33.373,0.0776,0.141,0.5764,-0.8011
-0.087,0.21,0.037,4.7,54.9,158.1,0,2018,4,26,14,46,33.412,0.0568,0.126,0.5757,-0.8058
-0.074,0.374,0.101,5,101.7,179.7,0,2018,4,26,14,46,33.431,0.0314,0.1086,0.5665,-0.8162
-0.046,0.705,0.158,4.1,84,197.6,0,2018,4,26,14,46,33.434,0.0031,0.0898,0.556,-0.8262
-0.122,0.644,0.066,3.1,36.4,215.8,0,2018,4,26,14,46,33.475,-0.0274,0.0693,0.5503,-0.8316
-0.154,0.23,-0.084,4.3,22.6,229.9,1023,2018,4,26,14,46,33.495,-0.0598,0.0471,0.5492,-0.8321
-0.118,-0.12,-0.079,16.6,69.3,239.2,1023,2018,4,26,14,46,33.499,-0.0932,0.0225,0.5445,-0.8332
-0.121,-0.113,-0.033,35.3,96.1,237.5,1023,2018,4,26,14,46,33.519,-0.1257,-0.006,0.533,-0.8366
-0.213,-0.27,-0.067,50.3,91.5,226.7,1023,2018,4,26,14,46,33.558,-0.1552,-0.0362,0.5195,-0.8394
-0.282,-0.576,-0.044,56.7,103.2,198.6,1023,2018,4,26,14,46,33.579,-0.1806,-0.0663,0.5057,-0.8409
-0.28,-0.806,0.027,55.1,143.2,158.6,1023,2018,4,26,14,46,33.583,-0.1999,-0.0943,0.4872,-0.8448
-0.255,-0.353,0.224,40.8,111.2,112.7,1023,2018,4,26,14,46,33.6,-0.2133,-0.1177,0.4674,-0.8497
-0.225,-0.074,0.291,24.3,25.1,69.5,1023,2018,4,26,14,46,33.617,-0.2226,-0.1328,0.4564,-0.8511
-0.2,-0.24,0.24,6.7,-45.4,23.6,1023,2018,4,26,14,46,33.654,-0.2288,-0.1384,0.458,-0.8477
-0.143,-0.423,0.226,-8.2,-47.2,-8.3,1023,2018,4,26,14,46,33.675,-0.2305,-0.1364,0.4657,-0.8433
-0.054,-0.412,0.2,-17.2,-15.1,-14.6,0,2018,4,26,14,46,33.68,-0.2299,-0.1312,0.4706,-0.8416
-0.004,-0.245,0.167,-20.1,14.8,-6.2,0,2018,4,26,14,46,33.697,-0.2291,-0.127,0.4704,-0.8426
0.014,-0.124,0.112,-17.7,30.4,-0.7,0,2018,4,26,14,46,33.738,-0.2293,-0.1242,0.4661,-0.8453
-0.003,-0.057,0.074,-12.2,24.5,-3.7,0,2018,4,26,14,46,33.757,-0.2293,-0.1228,0.4612,-0.8482
-0.049,-0.091,0.068,-7.3,7.8,-13.3,0,2018,4,26,14,46,33.761,-0.2284,-0.1213,0.4586,-0.8501
-0.083,-0.131,0.079,-6.3,-10.8,-30.1,0,2018,4,26,14,46,33.782,-0.2254,-0.1188,0.4594,-0.8508
-0.076,-0.236,0.068,-6.2,-27.5,-46.3,0,2018,4,26,14,46,33.803,-0.2203,-0.1139,0.4635,-0.8506
-0.075,-0.248,0.071,-6,-31.8,-59.4,0,2018,4,26,14,46,33.821,-0.2132,-0.1074,0.4694,-0.85
-0.08,-0.142,0.078,-7.4,-37.7,-73.3,0,2018,4,26,14,46,33.859,-0.2043,-0.0997,0.4757,-0.8497
-0.08,-0.136,0.078,-9.9,-57.1,-89.3,0,2018,4,26,14,46,33.863,-0.1938,-0.09,0.4838,-0.8486
-0.093,-0.194,0.09,-13.4,-71.5,-104.6,0,2018,4,26,14,46,33.88,-0.1813,-0.0782,0.4949,-0.8462
-0.074,-0.125,0.087,-14.7,-80.8,-118.8,0,2018,4,26,14,46,33.916,-0.167,-0.0641,0.5073,-0.8429
-0.055,-0.092,0.071,-15.2,-87.7,-127.8,0,2018,4,26,14,46,33.937,-0.151,-0.0486,0.5205,-0.8389
-0.071,-0.126,0.039,-14.7,-85,-132.7,0,2018,4,26,14,46,33.941,-0.134,-0.0325,0.5338,-0.8342
-0.073,-0.123,0.009,-13.8,-79.3,-136.1,0,2018,4,26,14,46,33.98,-0.1165,-0.0162,0.5461,-0.8293
-0.053,-0.041,0.026,-9.8,-75.7,-141.2,0,2018,4,26,14,46,33.999,-0.0978,-0.0002,0.5576,-0.8242
-0.031,-0.014,0.03,-3.9,-76,-147.3,1023,2018,4,26,14,46,34.003,-0.0779,0.0158,0.5682,-0.8189
-0.016,0.055,0.037,2.5,-75.4,-151.7,1023,2018,4,26,14,46,34.024,-0.0565,0.0316,0.5781,-0.8133
-0.016,0.124,0.025,7.2,-82.9,-151.7,1023,2018,4,26,14,46,34.042,-0.0341,0.0468,0.5876,-0.807
-0.021,0.137,0.017,9.6,-89.9,-148.7,1023,2018,4,26,14,46,34.082,-0.0115,0.0614,0.5977,-0.7992
-0.031,0.209,0.102,8.7,-94.8,-144.6,1023,2018,4,26,14,46,34.103,0.0107,0.0754,0.6077,-0.7904
-0.03,0.121,0.077,9.7,-104.4,-138.2,1023,2018,4,26,14,46,34.107,0.0325,0.089,0.6183,-0.7801
-0.055,0.025,0.063,11.7,-85.9,-129.4,1023,2018,4,26,14,46,34.121,0.0531,0.1011,0.6285,-0.7692
-0.096,0.06,0.09,12,-41.2,-117,1023,2018,4,26,14,46,34.14,0.0718,0.1121,0.634,-0.7617
-0.135,0.219,0.139,9.7,-4.3,-98.3,1023,2018,4,26,14,46,34.159,0.0876,0.1223,0.6342,-0.7583
-0.153,0.386,0.137,5.2,13.2,-75.9,1023,2018,4,26,14,46,34.201,0.0997,0.1311,0.6311,-0.7579
-0.146,0.484,0.052,-1,18.4,-49.3,0,2018,4,26,14,46,34.22,0.1077,0.1381,0.6273,-0.7587
-0.124,0.488,0.012,-4.3,35.4,-19,0,2018,4,26,14,46,34.224,0.1112,0.1427,0.623,-0.7609
-0.102,0.571,0.003,-2.5,62.7,17.1,0,2018,4,26,14,46,34.243,0.1096,0.1442,0.6163,-0.7663
-0.082,0.753,0.008,-0.9,59.8,52.6,0,2018,4,26,14,46,34.264,0.1029,0.1418,0.6084,-0.7739
-0.076,0.738,0.007,-1.3,35.6,86.1,0,2018,4,26,14,46,34.3,0.0921,0.1354,0.6037,-0.7801
-0.052,0.536,-0.018,-0.7,43.4,119.3,0,2018,4,26,14,46,34.321,0.077,0.1252,0.6013,-0.7853
-0.028,0.272,-0.081,4.8,108.7,154.2,0,2018,4,26,14,46,34.326,0.0568,0.1119,0.5935,-0.7949
-0.02,0.475,-0.028,11.6,137,181.2,0,2018,4,26,14,46,34.34,0.032,0.0947,0.5784,-0.8095
-0.045,0.672,0.046,18.9,113.6,201.5,0,2018,4,26,14,46,34.378,0.0043,0.0737,0.5631,-0.823
-0.093,0.49,-0.034,24.9,88.4,213.2,0,2018,4,26,14,46,34.399,-0.0244,0.0499,0.5515,-0.8322
-0.109,-0.085,-0.195,34.1,125.3,220.7,0,2018,4,26,14,46,34.403,-0.0538,0.0242,0.5388,-0.8403
-0.127,-0.112,-0.065,47.2,157.6,219.9,0,2018,4,26,14,46,34.424,-0.083,-0.0038,0.5188,-0.8508
-0.178,-0.079,0.069,63.6,173.1,206.7,0,2018,4,26,14,46,34.463,-0.1098,-0.0348,0.4938,-0.8618
-0.224,-0.217,0.102,68.9,166.7,178.6,0,2018,4,26,14,46,34.483,-0.1317,-0.0649,0.4681,-0.8713
-0.238,-0.442,0.116,62.7,173.1,157.5,0,2018,4,26,14,46,34.487,-0.1494,-0.0925,0.4418,-0.8797
-0.21,-0.123,0.254,44.3,133.6,136.7,0,2018,4,26,14,46,34.506,-0.1652,-0.1166,0.4167,-0.8862
-0.219,-0.055,0.255,29.6,49.6,111.8,1023,2018,4,26,14,46,34.546,-0.1798,-0.1339,0.4008,-0.8882
-0.191,-0.238,0.158,16.6,-23.8,78.3,1023,2018,4,26,14,46,34.565,-0.1929,-0.1446,0.398,-0.885
-0.107,-0.36,0.116,9.2,-44.8,46.8,1023,2018,4,26,14,46,34.57,-0.2022,-0.1494,0.4038,-0.8795
-0.034,-0.349,0.12,7,-31.2,28.7,1023,2018,4,26,14,46,34.584,-0.2081,-0.1519,0.4091,-0.8753
-0.026,-0.282,0.136,6.2,-20.4,21.4,1023,2018,4,26,14,46,34.622,-0.2119,-0.1536,0.4126,-0.8724
-0.011,-0.19,0.145,6.4,-12.9,15.7,1023,2018,4,26,14,46,34.644,-0.2143,-0.1546,0.4152,-0.8704
0.002,-0.102,0.14,6.9,-9.8,8.6,1023,2018,4,26,14,46,34.648,-0.2154,-0.1556,0.417,-0.8691
0.017,-0.077,0.125,6.8,-4.4,3.7,1023,2018,4,26,14,46,34.666,-0.2158,-0.1562,0.418,-0.8684
0.007,-0.022,0.111,6.4,2.6,1.7,1023,2018,4,26,14,46,34.685,-0.2156,-0.1569,0.4177,-0.8685
-0.025,0.001,0.111,3.7,7.5,1.5,1023,2018,4,26,14,46,34.724,-0.2154,-0.1578,0.4164,-0.869
-0.052,-0.04,0.117,0,8.1,0.5,0,2018,4,26,14,46,34.744,-0.2153,-0.1586,0.4147,-0.8697
-0.084,-0.071,0.122,-2.6,4.2,-2.9,0,2018,4,26,14,46,34.747,-0.2152,-0.1587,0.4134,-0.8703
-0.099,-0.078,0.118,-6.6,-2.9,-11.8,0,2018,4,26,14,46,34.769,-0.2144,-0.1578,0.4131,-0.8708
-0.101,-0.032,0.132,-13,-29.8,-25.8,0,2018,4,26,14,46,34.787,-0.2127,-0.1547,0.4153,-0.8707
-0.115,-0.082,0.128,-19.2,-69.3,-43.3,0,2018,4,26,14,46,34.825,-0.21,-0.1483,0.4229,-0.8688
-0.116,-0.18,0.116,-25.1,-94.7,-61,0,2018,4,26,14,46,34.845,-0.206,-0.1381,0.436,-0.865
-0.073,-0.182,0.113,-30.9,-105.2,-78.2,0,2018,4,26,14,46,34.85,-0.1998,-0.1247,0.4521,-0.8602
-0.037,-0.186,0.101,-34.9,-116.9,-92.9,0,2018,4,26,14,46,34.867,-0.1916,-0.1088,0.4697,-0.8548
-0.004,-0.221,0.074,-34.1,-122.7,-104.3,0,2018,4,26,14,46,34.904,-0.1815,-0.091,0.4886,-0.8485
-0.009,-0.306,0.059,-30.3,-108.2,-113.6,0,2018,4,26,14,46,34.927,-0.1694,-0.0726,0.5071,-0.8419
-0.024,-0.266,0.034,-25.9,-87.3,-123.2,0,2018,4,26,14,46,34.931,-0.1554,-0.0546,0.5223,-0.8366
0.004,-0.113,-0.015,-24,-85.6,-134.6,0,2018,4,26,14,46,34.949,-0.1393,-0.0369,0.5353,-0.8322
0.009,-0.086,-0.084,-17.2,-104.4,-148.5,0,2018,4,26,14,46,34.97,-0.1209,-0.0182,0.55,-0.8261
0.007,-0.186,-0.095,-3.5,-110.3,-160.4,0,2018,4,26,14,46,34.99,-0.0996,0.0008,0.5668,-0.8177
-0.008,-0.252,-0.037,8.1,-90.6,-165.1,0,2018,4,26,14,46,35.029,-0.0759,0.0186,0.5817,-0.8095
-0.057,-0.086,0.075,18,-61.3,-165.9,0,2018,4,26,14,46,35.047,-0.051,0.0342,0.5918,-0.8037
-0.089,-0.029,0.01,26.4,-45.6,-164.9,1023,2018,4,26,14,46,35.052,-0.0254,0.0482,0.5978,-0.7997
-0.122,0.097,-0.002,28.9,-33.8,-161.9,1023,2018,4,26,14,46,35.069,-0.0002,0.0606,0.6015,-0.7965
-0.113,0.205,0.072,25.5,-30.2,-158.9,1023,2018,4,26,14,46,35.087,0.025,0.0731,0.6039,-0.7932
-0.142,0.241,0.104,19.5,-34.9,-147.4,1023,2018,4,26,14,46,35.125,0.0491,0.086,0.6061,-0.7891
-0.151,0.312,0.113,12.2,-32.4,-134.5,1023,2018,4,26,14,46,35.145,0.0705,0.0985,0.6082,-0.7844
-0.122,0.335,0.073,7.6,-21.8,-119.1,1023,2018,4,26,14,46,35.149,0.0893,0.1104,0.6094,-0.7799
-0.127,0.399,0.065,4.7,-9.3,-96.8,1023,2018,4,26,14,46,35.169,0.1048,0.1208,0.609,-0.7768
-0.115,0.514,0.051,2.2,-4.3,-71.2,1023,2018,4,26,14,46,35.19,0.1164,0.1293,0.6075,-0.7749
-0.117,0.571,0.036,0.2,-6.5,-42.3,1023,2018,4,26,14,46,35.21,0.1242,0.135,0.6068,-0.7733
-0.126,0.559,0.051,-0.9,0.1,-9.2,1023,2018,4,26,14,46,35.248,0.1277,0.1377,0.6068,-0.7723
-0.115,0.509,0.043,0.1,25.2,29.1,1023,2018,4,26,14,46,35.269,0.1258,0.1371,0.6053,-0.7739
-0.121,0.556,0.106,0.6,50.3,68.7,0,2018,4,26,14,46,35.273,0.1181,0.1326,0.6008,-0.7793
-0.109,0.557,0.111,-1.4,58.2,105.3,0,2018,4,26,14,46,35.291,0.1047,0.1245,0.5953,-0.7867
-0.083,0.518,0.119,-3.3,84.7,140.5,0,2018,4,26,14,46,35.312,0.0857,0.1134,0.5881,-0.7961
-0.059,0.408,0.097,-1.2,146.5,176.7,0,2018,4,26,14,46,35.35,0.061,0.099,0.5748,-0.8099
-0.088,0.662,0.085,-4.1,135.5,204.7,0,2018,4,26,14,46,35.354,0.0311,0.0818,0.5572,-0.8257
-0.105,0.623,-0.006,-2.9,93.8,231.7,0,2018,4,26,14,46,35.37,-0.0025,0.0616,0.5433,-0.8372
-0.132,0.203,-0.142,0,75.8,244.1,0,2018,4,26,14,46,35.39,-0.0385,0.039,0.5337,-0.8438
-0.063,-0.198,-0.166,12.4,127.5,247.3,0,2018,4,26,14,46,35.409,-0.0747,0.0144,0.5202,-0.8506
-0.103,-0.048,-0.012,30.9,132.2,238,0,2018,4,26,14,46,35.444,-0.109,-0.013,0.501,-0.8584
-0.178,-0.281,-0.002,48,114.7,222.4,0,2018,4,26,14,46,35.464,-0.1395,-0.0417,0.483,-0.8633
-0.234,-0.607,-0.043,57.9,131.5,188,0,2018,4,26,14,46,35.473,-0.1649,-0.0703,0.4647,-0.867
-0.227,-0.649,-0.037,56.8,181.8,140.5,0,2018,4,26,14,46,35.493,-0.1826,-0.0971,0.4394,-0.8741
-0.176,-0.268,0.133,42.3,152.2,103,0,2018,4,26,14,46,35.512,-0.1939,-0.1193,0.4126,-0.8819
-0.15,-0.006,0.256,31,53.9,69.2,0,2018,4,26,14,46,35.552,-0.2025,-0.1349,0.3957,-0.8854
-0.114,-0.024,0.217,21.6,-34.9,30.1,0,2018,4,26,14,46,35.556,-0.2083,-0.1426,0.3945,-0.8835
-0.058,-0.194,0.135,15.8,-62.6,1.4,0,2018,4,26,14,46,35.572,-0.2105,-0.1442,0.4029,-0.8788
-0.047,-0.266,0.127,10.8,-46.3,-6.5,1023,2018,4,26,14,46,35.608,-0.2099,-0.1435,0.4125,-0.8746
-0.065,-0.14,0.197,4.6,-38.9,-2.4,1023,2018,4,26,14,46,35.629,-0.2095,-0.1424,0.4192,-0.8718
-0.09,-0.085,0.205,0.1,-44.5,-1.5,1023,2018,4,26,14,46,35.633,-0.2103,-0.1411,0.4249,-0.869
-0.092,-0.15,0.165,-3.9,-49.2,-9.8,1023,2018,4,26,14,46,35.653,-0.2107,-0.1388,0.4319,-0.8658
-0.084,-0.191,0.126,-9,-41.2,-18.2,1023,2018,4,26,14,46,35.68,-0.2099,-0.135,0.439,-0.863
-0.095,-0.143,0.126,-14.4,-33.5,-24,1023,2018,4,26,14,46,35.7,-0.2083,-0.1302,0.4448,-0.8612
-0.115,-0.123,0.126,-18.7,-34,-31.1,1023,2018,4,26,14,46,35.712,-0.2064,-0.1244,0.4495,-0.8601
-0.086,-0.043,0.125,-23.7,-44.5,-41,1023,2018,4,26,14,46,35.75,-0.2036,-0.1173,0.4551,-0.8588
-0.035,-0.016,0.083,-24.9,-58.8,-49.9,1023,2018,4,26,14,46,35.77,-0.1998,-0.1083,0.4625,-0.8569
-0.019,-0.043,0.042,-25.4,-61.3,-52.7,1023,2018,4,26,14,46,35.774,-0.1952,-0.0984,0.4716,-0.8542
-0.044,-0.066,0.034,-27.4,-54.5,-52.6,1023,2018,4,26,14,46,35.81,-0.1903,-0.0882,0.4806,-0.8514
-0.022,-0.051,-0.005,-28.5,-53.5,-55.8,0,2018,4,26,14,46,35.832,-0.1855,-0.0777,0.4883,-0.8491
0.021,-0.022,-0.015,-27.2,-65.8,-65.4,0,2018,4,26,14,46,35.835,-0.1796,-0.0666,0.4971,-0.8462
0.045,-0.014,-0.02,-20,-74.2,-72.3,0,2018,4,26,14,46,35.855,-0.1718,-0.0546,0.508,-0.8422
0.04,-0.071,-0.035,-12.6,-74.3,-75.6,0,2018,4,26,14,46,35.874,-0.1626,-0.043,0.5195,-0.8377
0,-0.158,-0.099,-8.3,-77.1,-76.8,0,2018,4,26,14,46,35.912,-0.1526,-0.0322,0.5317,-0.8324
0.035,-0.097,-0.093,-2.1,-80.8,-90.6,0,2018,4,26,14,46,35.932,-0.1412,-0.0216,0.544,-0.8268
0.063,-0.175,-0.1,11.4,-95.1,-108,0,2018,4,26,14,46,35.936,-0.1264,-0.0104,0.5575,-0.8204
0.062,-0.281,-0.142,23.7,-98.7,-117.4,0,2018,4,26,14,46,35.974,-0.1085,0.0002,0.572,-0.813
0.051,-0.277,-0.034,36.5,-73.1,-124.6,0,2018,4,26,14,46,35.993,-0.0881,0.0098,0.5849,-0.8061
-0.003,-0.219,0.086,43,-49.3,-131.5,0,2018,4,26,14,46,35.998,-0.0656,0.0186,0.5937,-0.8017
-0.082,-0.14,0.19,38.3,-44.6,-131.2,0,2018,4,26,14,46,36.017,-0.043,0.0267,0.5993,-0.7988
-0.122,0.005,0.222,28.1,-43.5,-131.8,0,2018,4,26,14,46,36.039,-0.0211,0.0361,0.6047,-0.7953
-0.119,-0.045,0.131,20.1,-43.5,-138.7,0,2018,4,26,14,46,36.055,0.0004,0.0473,0.6099,-0.791
-0.115,-0.072,0.114,15.8,-29.6,-142.7,0,2018,4,26,14,46,36.075,0.0221,0.0599,0.6135,-0.787
-0.126,0.005,0.1,11.6,-11.6,-143.9,0,2018,4,26,14,46,36.094,0.0434,0.0734,0.6144,-0.7843
-0.124,0.095,0.021,6.4,-1.3,-143.3,1023,2018,4,26,14,46,36.116,0.0636,0.0874,0.6127,-0.7828
-0.149,0.191,0.031,3,0.2,-141,1023,2018,4,26,14,46,36.134,0.0834,0.102,0.61,-0.7813
-0.171,0.305,0.091,2,4.5,-131.3,1023,2018,4,26,14,46,36.174,0.1022,0.1163,0.607,-0.7794
-0.199,0.434,0.117,0.2,21.2,-110.2,1023,2018,4,26,14,46,36.194,0.1185,0.1293,0.6025,-0.7785
-0.21,0.542,0.058,-3.3,60.8,-72,1023,2018,4,26,14,46,36.199,0.1297,0.14,0.5949,-0.7807
-0.209,0.748,0.084,-7.4,103.2,-21.8,1023,2018,4,26,14,46,36.219,0.1333,0.1475,0.582,-0.7884
-0.207,1.023,0.123,-15.4,97.7,31.2,1023,2018,4,26,14,46,36.239,0.1285,0.1509,0.5678,-0.7988
-0.199,1.052,0.047,-26.2,45.7,82.3,1023,2018,4,26,14,46,36.276,0.1163,0.1497,0.5597,-0.8066
-0.178,0.776,-0.09,-34.6,15.2,125.3,1023,2018,4,26,14,46,36.298,0.0975,0.1444,0.5591,-0.8105
-0.125,0.43,-0.188,-32.7,37.3,159.2,1023,2018,4,26,14,46,36.302,0.0732,0.1359,0.5596,-0.8141
-0.066,0.294,-0.124,-21.3,80.3,185,1023,2018,4,26,14,46,36.338,0.0445,0.1239,0.5554,-0.821
-0.046,0.342,-0.108,-5.9,94.9,202.9,1023,2018,4,26,14,46,36.359,0.0134,0.1078,0.546,-0.8306
-0.032,0.288,-0.163,13.3,98.2,210,0,2018,4,26,14,46,36.363,-0.018,0.0879,0.5359,-0.8394
-0.002,0.085,-0.177,34.9,123.4,204.9,0,2018,4,26,14,46,36.378,-0.0478,0.0646,0.5237,-0.848
-0.016,-0.15,-0.229,53.8,145.6,199.8,0,2018,4,26,14,46,36.398,-0.0751,0.0382,0.5056,-0.8585
-0.016,-0.113,-0.045,68.8,137,196.1,0,2018,4,26,14,46,36.417,-0.1003,0.0095,0.4864,-0.8678
-0.043,0.063,0.17,80.8,114,174.7,0,2018,4,26,14,46,36.455,-0.1223,-0.0201,0.4682,-0.8748
-0.102,-0.142,0.129,89.1,92.5,155,0,2018,4,26,14,46,36.476,-0.14,-0.0487,0.4535,-0.8788
-0.185,-0.392,0.102,85.2,106.2,146.9,0,2018,4,26,14,46,36.48,-0.1552,-0.0774,0.4392,-0.8814
-0.212,-0.194,0.24,65,99.3,129.2,0,2018,4,26,14,46,36.501,-0.1695,-0.1028,0.4236,-0.8838
-0.164,0.104,0.298,41.8,65.4,105.1,0,2018,4,26,14,46,36.52,-0.1821,-0.1223,0.4095,-0.8855
-0.126,0.047,0.21,26.2,13.7,85.9,0,2018,4,26,14,46,36.559,-0.1935,-0.1352,0.4028,-0.8842
-0.17,-0.404,0.161,20.1,-1.3,78.1,0,2018,4,26,14,46,36.58,-0.2043,-0.1447,0.4016,-0.8808
-0.147,-0.408,0.162,15.9,20.5,68.7,0,2018,4,26,14,46,36.584,-0.2141,-0.1528,0.3994,-0.8781
-0.085,-0.183,0.106,13.2,35,49.4,0,2018,4,26,14,46,36.598,-0.2209,-0.1601,0.3945,-0.8774
-0.072,-0.085,0.082,12.6,28.7,33.1,0,2018,4,26,14,46,36.637,-0.2251,-0.1663,0.3892,-0.8775
-0.082,-0.145,0.111,13.1,21.8,21.7,0,2018,4,26,14,46,36.657,-0.2274,-0.171,0.3854,-0.8777
-0.079,-0.149,0.13,12.2,23,16.4,1023,2018,4,26,14,46,36.661,-0.2286,-0.1749,0.3823,-0.878
-0.075,-0.042,0.12,10.9,23.9,10.4,1023,2018,4,26,14,46,36.681,-0.2289,-0.1787,0.3787,-0.8787
-0.066,0.037,0.135,7.7,8.6,2.3,1023,2018,4,26,14,46,36.703,-0.2288,-0.1815,0.3757,-0.8794
-0.071,0.022,0.149,3.3,-6.8,-3.5,1023,2018,4,26,14,46,36.721,-0.2286,-0.1825,0.375,-0.8795
-0.069,-0.014,0.172,-0.6,-10.6,-7,1023,2018,4,26,14,46,36.741,-0.2282,-0.182,0.376,-0.8793
-0.07,-0.019,0.162,-4.9,-5.7,-7.4,1023,2018,4,26,14,46,36.781,-0.2276,-0.1808,0.3768,-0.8794
-0.069,0.023,0.14,-10.3,-5.1,-7.4,1023,2018,4,26,14,46,36.803,-0.2273,-0.1792,0.3767,-0.8799
-0.057,0.063,0.145,-16.4,-17.3,-10.8,1023,2018,4,26,14,46,36.807,-0.2273,-0.1762,0.3777,-0.88
-0.064,-0.014,0.163,-21.3,-28.5,-14.6,1023,2018,4,26,14,46,36.824,-0.2273,-0.1715,0.3806,-0.8797
-0.056,-0.073,0.155,-26,-28,-18.3,1023,2018,4,26,14,46,36.842,-0.2273,-0.1656,0.384,-0.8794
-0.084,-0.072,0.136,-31.2,-37.6,-26.8,1023,2018,4,26,14,46,36.862,-0.2267,-0.1585,0.3881,-0.879
-0.068,-0.073,0.116,-37.7,-52.4,-39.7,0,2018,4,26,14,46,36.882,-0.2252,-0.1492,0.3944,-0.8783
-0.035,-0.075,0.097,-43.2,-67.6,-52.7,0,2018,4,26,14,46,36.903,-0.2224,-0.1373,0.403,-0.877
-0.031,-0.131,0.097,-46.8,-79.1,-61.9,0,2018,4,26,14,46,36.924,-0.2182,-0.1232,0.4141,-0.8749
-0.066,-0.203,0.102,-49.9,-87.6,-72.1,0,2018,4,26,14,46,36.943,-0.2131,-0.1076,0.4266,-0.8723
-0.091,-0.244,0.07,-50,-100.7,-92.3,0,2018,4,26,14,46,36.983,-0.2057,-0.0904,0.4411,-0.8688
-0.021,-0.17,0.041,-48.6,-123.7,-120.3,0,2018,4,26,14,46,37.003,-0.1948,-0.0705,0.4585,-0.8641
0.029,-0.196,0.01,-42.7,-135.6,-140.1,0,2018,4,26,14,46,37.007,-0.1795,-0.0481,0.479,-0.8578
0.027,-0.155,0.007,-37.4,-134.6,-147.9,0,2018,4,26,14,46,37.025,-0.1618,-0.0253,0.4994,-0.8507
0.006,-0.106,-0.013,-31.6,-121.7,-151.3,0,2018,4,26,14,46,37.043,-0.1428,-0.003,0.5183,-0.8431
