ax,ay,az,dpitch,droll,dyaw,heart,time_1,time_2,time_3,time_4,time_5,time_6,w,x,y,z
0.093,0.205,-0.072,6.7,27.2,-9.5,1023,2018,4,24,22,11,17.66,0.6154,-0.1366,-0.7758,-0.0238
0.059,0.212,-0.078,8.8,31.9,-1.1,1023,2018,4,24,22,11,17.681,0.615,-0.134,-0.7767,-0.0191
0.001,0.223,-0.077,9.9,34.4,7,1023,2018,4,24,22,11,17.695,0.6145,-0.1299,-0.7779,-0.0148
-0.037,0.228,-0.075,9.6,34.7,13.8,1023,2018,4,24,22,11,17.732,0.6139,-0.1244,-0.7793,-0.0112
-0.055,0.239,-0.082,8.7,31.9,18.8,1023,2018,4,24,22,11,17.753,0.6134,-0.1183,-0.7807,-0.0084
-0.051,0.245,-0.1,8.6,25.7,22.8,1023,2018,4,24,22,11,17.758,0.6128,-0.1121,-0.7821,-0.0067
-0.034,0.224,-0.114,9.6,18.8,26.4,1023,2018,4,24,22,11,17.774,0.612,-0.1062,-0.7836,-0.0063
-0.006,0.189,-0.094,11.5,16.8,30.6,0,2018,4,24,22,11,17.796,0.6108,-0.1003,-0.7853,-0.0069
0.015,0.166,-0.044,11.8,17.9,35.7,0,2018,4,24,22,11,17.814,0.6095,-0.0937,-0.7871,-0.008
-0.005,0.107,-0.008,10.8,22.8,41.4,0,2018,4,24,22,11,17.832,0.6103,-0.0858,-0.7874,-0.0096
-0.03,0.062,0.003,8.5,29.3,47.6,0,2018,4,24,22,11,17.855,0.612,-0.0765,-0.787,-0.0106
-0.072,0.02,0.01,6.8,31.1,51,0,2018,4,24,22,11,17.875,0.614,-0.0664,-0.7863,-0.0114
-0.121,-0.02,0.025,4.2,31,50,0,2018,4,24,22,11,17.898,0.6162,-0.0563,-0.7854,-0.012
-0.151,-0.054,0.047,1.5,28.3,44.3,0,2018,4,24,22,11,17.916,0.6188,-0.047,-0.784,-0.0123
-0.185,-0.074,0.053,-2.8,24.8,35.3,0,2018,4,24,22,11,17.939,0.6218,-0.0393,-0.782,-0.0121
-0.205,-0.091,0.049,-8.3,19.9,23.7,0,2018,4,24,22,11,17.957,0.6254,-0.0334,-0.7794,-0.0115
-0.199,-0.095,0.04,-13.6,15.9,12.8,0,2018,4,24,22,11,17.996,0.6296,-0.0295,-0.7762,-0.0103
-0.171,-0.102,0.039,-18.6,12.8,1.8,0,2018,4,24,22,11,17.996,0.6344,-0.0275,-0.7724,-0.0084
-0.145,-0.085,0.028,-23,9,-7.8,0,2018,4,24,22,11,18.019,0.6397,-0.0272,-0.7681,-0.0059
-0.117,-0.062,0.014,-26.5,3.5,-16.7,0,2018,4,24,22,11,18.035,0.6454,-0.0286,-0.7632,-0.0031
-0.088,-0.032,-0.006,-28.9,-2.1,-24.2,0,2018,4,24,22,11,18.055,0.6512,-0.0314,-0.7581,-0.0003
-0.075,-0.032,0.004,-31.2,-6.7,-29.3,0,2018,4,24,22,11,18.074,0.6573,-0.0356,-0.7527,0.0022
-0.068,-0.05,0.02,-33.1,-8.9,-32.4,0,2018,4,24,22,11,18.099,0.6635,-0.0407,-0.747,0.0049
-0.083,-0.087,0.025,-33.4,-13.9,-36.2,0,2018,4,24,22,11,18.117,0.6698,-0.0467,-0.741,0.0077
-0.089,-0.103,0.042,-33.3,-17,-40.9,0,2018,4,24,22,11,18.155,0.6759,-0.0541,-0.7348,0.0107
-0.087,-0.083,0.078,-32.5,-17.5,-46.5,0,2018,4,24,22,11,18.179,0.682,-0.0626,-0.7284,0.0144
-0.086,-0.081,0.099,-31.9,-16.4,-53,0,2018,4,24,22,11,18.183,0.6881,-0.0717,-0.7218,0.0188
-0.097,-0.096,0.12,-32.9,-13.3,-60.7,0,2018,4,24,22,11,18.202,0.6941,-0.0815,-0.7148,0.0244
-0.104,-0.091,0.11,-33.1,-10.3,-67.7,0,2018,4,24,22,11,18.217,0.7,-0.0917,-0.7075,0.0313
-0.111,-0.061,0.096,-31.9,-7.6,-71.4,0,2018,4,24,22,11,18.233,0.7055,-0.1021,-0.7001,0.0392
-0.15,-0.02,0.09,-30.2,-5.8,-71.3,0,2018,4,24,22,11,18.256,0.7106,-0.1121,-0.6929,0.0473
-0.186,0.025,0.096,-29.4,-8.7,-67.2,1023,2018,4,24,22,11,18.275,0.7153,-0.1213,-0.6859,0.0548
-0.184,0.027,0.09,-27.2,-16.5,-64.5,1023,2018,4,24,22,11,18.297,0.7197,-0.1306,-0.6791,0.061
-0.156,0.008,0.077,-22.6,-29.3,-64.4,1023,2018,4,24,22,11,18.333,0.7231,-0.141,-0.6729,0.0659
-0.121,-0.019,0.064,-17.2,-39.1,-65.5,1023,2018,4,24,22,11,18.355,0.7254,-0.1531,-0.6673,0.0699
-0.086,-0.041,0.06,-12.8,-38.7,-67.8,1023,2018,4,24,22,11,18.359,0.7268,-0.1662,-0.6623,0.0739
-0.034,-0.063,0.073,-10.4,-25.9,-70.5,1023,2018,4,24,22,11,18.397,0.7278,-0.1787,-0.6572,0.0794
0.01,-0.065,0.084,-8.8,-6.6,-73.6,1023,2018,4,24,22,11,18.397,0.729,-0.1895,-0.6518,0.0875
0.05,-0.041,0.089,-7.5,12.8,-76.1,1023,2018,4,24,22,11,18.423,0.7307,-0.198,-0.6458,0.0983
0.098,0.019,0.087,-6.2,25.2,-77.6,1023,2018,4,24,22,11,18.441,0.7326,-0.2043,-0.6395,0.1112
0.144,0.068,0.078,-4.7,29.7,-78.5,1023,2018,4,24,22,11,18.46,0.7335,-0.2095,-0.6343,0.1246
0.172,0.102,0.063,-2.3,28.8,-78,1023,2018,4,24,22,11,18.479,0.7332,-0.2145,-0.6303,0.1377
0.18,0.117,0.045,0.5,25.2,-76.8,1023,2018,4,24,22,11,18.518,0.7332,-0.2194,-0.6256,0.1509
0.175,0.073,0.054,1.5,28.9,-74.3,1023,2018,4,24,22,11,18.518,0.7326,-0.2241,-0.6213,0.1638
0.183,0.072,0.062,1.2,37.6,-70.9,1023,2018,4,24,22,11,18.542,0.7316,-0.2277,-0.6177,0.1768
0.164,0.055,0.06,-0.3,45.3,-67.7,0,2018,4,24,22,11,18.559,0.731,-0.2297,-0.6136,0.1901
0.15,0.047,0.051,-2.6,47.4,-65.1,0,2018,4,24,22,11,18.581,0.7308,-0.2309,-0.6091,0.2035
0.122,0.052,0.035,-5.3,45,-64.3,0,2018,4,24,22,11,18.616,0.7319,-0.2319,-0.6026,0.2174
0.128,0.052,-0.001,-8.9,35,-61.8,0,2018,4,24,22,11,18.64,0.7345,-0.235,-0.588,0.2436
0.138,0.027,-0.012,-9,27.1,-60.6,0,2018,4,24,22,11,18.644,0.7351,-0.2379,-0.581,0.2554
0.132,-0.003,-0.015,-8.3,23.2,-60.6,0,2018,4,24,22,11,18.66,0.7352,-0.2416,-0.5743,0.2667
0.12,-0.037,-0.019,-7,25.8,-60.5,0,2018,4,24,22,11,18.683,0.7349,-0.2454,-0.5676,0.2779
0.113,-0.059,0.005,-5.3,32.1,-61.3,0,2018,4,24,22,11,18.701,0.7345,-0.2486,-0.5609,0.2897
0.11,-0.068,0.034,-2.8,36.5,-63.6,0,2018,4,24,22,11,18.724,0.734,-0.251,-0.5538,0.3023
0.101,-0.084,0.032,0.2,36.5,-67.7,0,2018,4,24,22,11,18.742,0.7329,-0.2532,-0.5467,0.3156
0.073,-0.074,0.007,3.3,38.6,-71.8,0,2018,4,24,22,11,18.76,0.7311,-0.2555,-0.5399,0.3294
0.065,-0.015,-0.021,6.9,37.2,-75.2,0,2018,4,24,22,11,18.781,0.7286,-0.2575,-0.5335,0.3437
0.048,-0.031,-0.041,10.2,34.3,-78.8,0,2018,4,24,22,11,18.819,0.7252,-0.2597,-0.5276,0.358
0.019,-0.035,-0.097,13.2,34.2,-80.8,0,2018,4,24,22,11,18.842,0.7208,-0.2623,-0.5223,0.3724
-0.015,-0.065,-0.156,16.6,42.9,-80.6,0,2018,4,24,22,11,18.847,0.7159,-0.264,-0.5176,0.3869
-0.058,-0.05,-0.144,18,54.9,-82.4,0,2018,4,24,22,11,18.863,0.711,-0.2639,-0.5126,0.4024
-0.109,-0.002,-0.102,15.7,52.3,-85.2,0,2018,4,24,22,11,18.883,0.706,-0.2634,-0.507,0.4184
-0.11,0.073,-0.122,13.8,37.4,-86.5,0,2018,4,24,22,11,18.901,0.7004,-0.2643,-0.5014,0.4336
-0.116,0.041,-0.175,12.3,21.4,-88.9,0,2018,4,24,22,11,18.924,0.6938,-0.2675,-0.4967,0.4474
-0.148,0,-0.219,12.1,11.9,-91.1,0,2018,4,24,22,11,18.946,0.6864,-0.2723,-0.4927,0.4602
-0.117,0.064,-0.3,16.4,2.3,-92.5,1023,2018,4,24,22,11,18.962,0.678,-0.2783,-0.4894,0.4724
-0.129,0.063,-0.35,19.1,-7.5,-94.1,1023,2018,4,24,22,11,18.979,0.6685,-0.285,-0.4872,0.484
-0.128,0.078,-0.324,18.4,-24.4,-95.5,1023,2018,4,24,22,11,19.003,0.658,-0.2932,-0.4859,0.4947
-0.104,0.151,-0.309,11.2,-52.4,-95.1,1023,2018,4,24,22,11,19.021,0.6464,-0.3044,-0.4861,0.5031
0.019,-0.122,-0.231,8,-56.4,-93.5,1023,2018,4,24,22,11,19.043,0.6341,-0.3185,-0.4869,0.5092
-0.06,-0.391,0.071,14.1,-32.8,-79.9,1023,2018,4,24,22,11,19.062,0.6229,-0.3289,-0.4871,0.5162
-0.131,-0.9,0.5,-16.6,-29.1,-100.3,1023,2018,4,24,22,11,19.085,0.6135,-0.3394,-0.4837,0.5237
-0.478,-1.162,0.925,-65,29.4,-124.5,1023,2018,4,24,22,11,19.103,0.6068,-0.3518,-0.4714,0.5344
-0.512,-0.501,0.367,-114.4,43.9,-135.5,1023,2018,4,24,22,11,19.126,0.6049,-0.3668,-0.4493,0.5454
-0.298,0.158,-0.272,-113.4,-9.5,-150.2,0,2018,4,24,22,11,19.144,0.6012,-0.3866,-0.4253,0.555
-0.136,0.42,-0.471,-95.2,-97,-147.4,0,2018,4,24,22,11,19.165,0.5905,-0.4135,-0.4092,0.5592
0.257,0.406,-0.405,-35.3,-132.5,-124.7,0,2018,4,24,22,11,19.185,0.5726,-0.4418,-0.4043,0.5597
0.424,0.522,-0.073,8.3,-131.9,-95.8,0,2018,4,24,22,11,19.209,0.5521,-0.4635,-0.4074,0.5606
0.352,0.359,0.091,14.4,-139.3,-62.7,0,2018,4,24,22,11,19.223,0.5321,-0.4807,-0.4156,0.5593
0.367,0.185,0.143,13.6,-124.4,-34.4,0,2018,4,24,22,11,19.261,0.5152,-0.495,-0.4258,0.555
0.255,0.094,0.083,9,-99.7,-12.8,0,2018,4,24,22,11,19.284,0.5023,-0.5056,-0.4357,0.5496
0.097,0.039,-0.076,6.3,-67.5,1.5,0,2018,4,24,22,11,19.289,0.4939,-0.5124,-0.4434,0.5447
-0.041,-0.089,-0.14,-0.1,-55.8,1.4,0,2018,4,24,22,11,19.307,0.4884,-0.5172,-0.4493,0.5403
-0.074,-0.162,-0.12,0.5,-38.8,1.9,0,2018,4,24,22,11,19.323,0.4843,-0.5211,-0.4539,0.5364
-0.053,-0.109,0.016,5.4,-33.3,-4.7,0,2018,4,24,22,11,19.344,0.4814,-0.5232,-0.457,0.5343
-0.07,-0.005,0.005,8.5,-50.8,-16.3,0,2018,4,24,22,11,19.381,0.4769,-0.5259,-0.4601,0.5331
-0.055,0.043,-0.053,11.6,-55.1,-22.5,0,2018,4,24,22,11,19.404,0.4699,-0.5304,-0.4637,0.5318
-0.047,-0.053,-0.122,13,-54.4,-27.5,0,2018,4,24,22,11,19.408,0.4618,-0.5355,-0.4674,0.5304
-0.035,-0.08,-0.123,15.9,-48,-32.5,0,2018,4,24,22,11,19.427,0.4531,-0.5405,-0.4705,0.5301
0.021,-0.024,-0.107,17.2,-44.8,-34.6,0,2018,4,24,22,11,19.45,0.4443,-0.5453,-0.4727,0.5307
0.004,-0.009,-0.068,19.8,-43.7,-36.7,0,2018,4,24,22,11,19.465,0.4352,-0.5498,-0.4745,0.532
0.016,0.008,-0.047,20.7,-44.5,-37.7,0,2018,4,24,22,11,19.484,0.426,-0.5541,-0.4761,0.5336
0.041,-0.067,-0.038,22.2,-40.6,-40.7,0,2018,4,24,22,11,19.507,0.4163,-0.5583,-0.4773,0.5356
0.046,-0.038,-0.061,22.1,-30.6,-41.6,0,2018,4,24,22,11,19.525,0.4074,-0.5619,-0.4775,0.5386
-0.027,-0.093,-0.077,24.7,-24.1,-43.5,0,2018,4,24,22,11,19.547,0.3989,-0.565,-0.4774,0.5418
0.016,-0.02,-0.08,26.6,-12.4,-44.4,0,2018,4,24,22,11,19.585,0.391,-0.5672,-0.4764,0.5462
0.042,-0.014,-0.078,27.6,-8.2,-42.4,0,2018,4,24,22,11,19.608,0.3835,-0.5689,-0.4745,0.5513
-0.003,0.073,-0.07,30.8,-5.6,-38.2,0,2018,4,24,22,11,19.613,0.3763,-0.5698,-0.4726,0.5569
0.042,0.089,-0.057,31.5,-6.1,-33.1,0,2018,4,24,22,11,19.629,0.3698,-0.5699,-0.4713,0.5623
0.03,0.077,-0.081,35.5,-6.7,-25.6,0,2018,4,24,22,11,19.647,0.3631,-0.5697,-0.4707,0.5674
-0.009,0.017,-0.061,39.5,-9.5,-23.1,0,2018,4,24,22,11,19.665,0.3567,-0.5684,-0.4712,0.5723
0.006,-0.039,0,39.7,-10.4,-21.7,0,2018,4,24,22,11,19.688,0.3503,-0.5665,-0.4721,0.5773
0.037,-0.069,0.023,36.1,-8.2,-21.6,0,2018,4,24,22,11,19.706,0.3445,-0.5644,-0.4727,0.5824
0.041,-0.04,0.017,32.9,-4.6,-22.8,0,2018,4,24,22,11,19.744,0.3392,-0.5625,-0.4726,0.5874
0.073,-0.022,0.059,29.9,-13.1,-26.3,1023,2018,4,24,22,11,19.767,0.3334,-0.5613,-0.472,0.5923
0.011,0,0.083,27.1,-29.9,-29.7,1023,2018,4,24,22,11,19.772,0.3262,-0.5613,-0.4722,0.5962
-0.011,-0.004,0.035,24.3,-34.1,-29.1,1023,2018,4,24,22,11,19.789,0.3183,-0.5621,-0.4735,0.5986
-0.018,0.04,-0.013,22.9,-28,-26,1023,2018,4,24,22,11,19.808,0.3106,-0.5631,-0.4749,0.6006
-0.052,0.084,-0.04,23,-25.2,-21.2,1023,2018,4,24,22,11,19.83,0.3039,-0.5638,-0.4764,0.6022
-0.042,0.064,-0.039,24.2,-25.2,-17.2,1023,2018,4,24,22,11,19.866,0.2978,-0.5639,-0.4783,0.6036
-0.025,0.041,-0.024,25.1,-27.7,-13.3,1023,2018,4,24,22,11,19.888,0.2918,-0.5636,-0.4807,0.6049
-0.015,0.032,0.003,25.5,-28.4,-8.5,1023,2018,4,24,22,11,19.892,0.2861,-0.5627,-0.4837,0.606
-0.027,0.028,0.021,24.5,-25.8,-4.3,1023,2018,4,24,22,11,19.909,0.2811,-0.5614,-0.4869,0.6071
0.01,-0.034,-0.007,22.8,-15.3,-1.7,1023,2018,4,24,22,11,19.932,0.2772,-0.5595,-0.4897,0.6083
0.056,0.002,-0.036,23.5,-4.2,-0.2,1023,2018,4,24,22,11,19.948,0.2743,-0.5574,-0.4914,0.6103
0.049,0.065,-0.024,24.3,-2.5,2.7,1023,2018,4,24,22,11,19.968,0.2718,-0.5549,-0.4924,0.6129
-0.008,0.008,0.029,21.6,-3.5,3.8,1023,2018,4,24,22,11,19.991,0.2698,-0.552,-0.4936,0.6153
-0.046,-0.058,0.047,17.1,3.8,3.8,1023,2018,4,24,22,11,20.009,0.2692,-0.5487,-0.4948,0.6176
-0.086,-0.037,0.02,14.4,18.5,3.6,0,2018,4,24,22,11,20.046,0.2703,-0.5452,-0.4946,0.6204
-0.089,0.003,-0.004,16.1,32.5,4.4,0,2018,4,24,22,11,20.069,0.2728,-0.5412,-0.4928,0.6242
-0.124,0.045,-0.037,20.2,33.1,5.2,0,2018,4,24,22,11,20.074,0.2758,-0.5365,-0.4908,0.6286
-0.15,0.036,-0.051,23.7,30.4,6.3,0,2018,4,24,22,11,20.092,0.2783,-0.5314,-0.4893,0.6329
-0.15,-0.015,-0.049,27.9,23.3,7,0,2018,4,24,22,11,20.129,0.2793,-0.5265,-0.4884,0.6372
-0.183,-0.09,-0.041,30.4,22.1,6.6,0,2018,4,24,22,11,20.153,0.2796,-0.5216,-0.488,0.6414
-0.223,-0.125,-0.02,31,27.6,5.5,0,2018,4,24,22,11,20.157,0.2799,-0.5164,-0.4873,0.646
-0.094,-0.126,-0.027,33.6,43.3,1.8,0,2018,4,24,22,11,20.17,0.2815,-0.5101,-0.4855,0.6517
-0.029,-0.06,-0.064,34.7,48.8,-2.1,0,2018,4,24,22,11,20.207,0.2834,-0.5032,-0.4821,0.6586
0.009,-0.016,-0.088,38.2,44.1,-3.2,0,2018,4,24,22,11,20.231,0.2843,-0.4969,-0.4784,0.6657
-0.003,0.034,-0.061,43.8,32.3,-3.9,0,2018,4,24,22,11,20.234,0.2838,-0.4905,-0.4758,0.6726
-0.009,0.056,-0.01,45.7,23.3,-4.1,0,2018,4,24,22,11,20.251,0.2818,-0.4841,-0.4743,0.6791
-0.041,0.037,0.024,44.4,25.4,-2.4,0,2018,4,24,22,11,20.271,0.28,-0.4772,-0.4731,0.6855
-0.079,0.026,0.009,39.5,29.4,-1.2,0,2018,4,24,22,11,20.309,0.2792,-0.4702,-0.4714,0.6917
-0.102,0.04,-0.004,37.6,31,-0.1,0,2018,4,24,22,11,20.333,0.2792,-0.4633,-0.4696,0.6976
-0.065,0.066,0.001,36,25.1,1.2,0,2018,4,24,22,11,20.336,0.2792,-0.4565,-0.4681,0.7031
-0.046,0.07,0.064,32.7,11.3,2.6,0,2018,4,24,22,11,20.354,0.2786,-0.4504,-0.4672,0.7078
-0.054,0.031,0.067,29.1,0.5,3.1,0,2018,4,24,22,11,20.372,0.2775,-0.4451,-0.4677,0.7113
-0.042,0.024,0.05,27.6,-3.5,1.9,0,2018,4,24,22,11,20.393,0.2759,-0.4406,-0.4691,0.7138
-0.024,0.044,0.03,27.9,-5.6,1,0,2018,4,24,22,11,20.409,0.2739,-0.4365,-0.4707,0.716
-0.012,0.052,0.021,29,-2.2,1.3,0,2018,4,24,22,11,20.431,0.2717,-0.4325,-0.4723,0.7182
0.008,0.071,0.038,29.4,4.1,2.9,0,2018,4,24,22,11,20.45,0.2697,-0.4282,-0.4731,0.721
0.001,0.097,0.107,26.2,8.5,6.4,0,2018,4,24,22,11,20.471,0.2687,-0.4233,-0.4731,0.7243
0.005,0.113,0.137,19.6,11.7,12,0,2018,4,24,22,11,20.511,0.2687,-0.4192,-0.4736,0.7264
0.005,0.108,0.133,11.5,11.9,17.4,0,2018,4,24,22,11,20.531,0.2702,-0.4154,-0.4738,0.7278
0.001,0.11,0.129,4.4,8.1,20.7,0,2018,4,24,22,11,20.534,0.2728,-0.4124,-0.4743,0.7283
0.022,0.125,0.07,1.8,1.8,24.1,0,2018,4,24,22,11,20.569,0.2758,-0.4098,-0.4751,0.7281
0.006,0.127,0.016,2.7,-6.8,28.9,1023,2018,4,24,22,11,20.592,0.2788,-0.4071,-0.4765,0.7275
-0.008,0.096,0,4.5,-12.6,33.1,1023,2018,4,24,22,11,20.598,0.2818,-0.4042,-0.4796,0.726
-0.028,0.071,0.016,5.1,-13.1,35.9,1023,2018,4,24,22,11,20.613,0.2851,-0.4008,-0.4836,0.7239
-0.014,0.006,0.018,4,-5,36.5,1023,2018,4,24,22,11,20.632,0.289,-0.3971,-0.4872,0.722
0.028,-0.01,-0.02,3.4,4.2,35.9,1023,2018,4,24,22,11,20.654,0.2934,-0.3933,-0.4896,0.7206
0.029,-0.005,-0.045,4.4,6.6,35.4,1023,2018,4,24,22,11,20.672,0.2979,-0.3895,-0.4914,0.7197
0.029,0.001,-0.049,5.3,2.9,36,1023,2018,4,24,22,11,20.696,0.3022,-0.3856,-0.4934,0.7185
0.026,0.025,-0.037,5.5,-4.5,36.6,1023,2018,4,24,22,11,20.712,0.3062,-0.3819,-0.4962,0.717
0.027,0.045,-0.048,6.2,-15.9,35.3,1023,2018,4,24,22,11,20.734,0.3093,-0.3787,-0.5,0.7146
0.026,0.068,-0.054,7.1,-28.6,34.9,1023,2018,4,24,22,11,20.753,0.3115,-0.3762,-0.5053,0.7113
-0.018,0.054,-0.043,7.7,-45.9,33.8,1023,2018,4,24,22,11,20.776,0.3126,-0.3743,-0.5126,0.7066
-0.017,0.049,-0.034,7.8,-59.5,33.9,1023,2018,4,24,22,11,20.794,0.3127,-0.373,-0.5219,0.7004
-0.031,0.047,-0.016,6.2,-63.4,36.9,1023,2018,4,24,22,11,20.817,0.3125,-0.372,-0.5321,0.6933
-0.064,0.041,-0.002,4,-58.2,41.2,1023,2018,4,24,22,11,20.835,0.3132,-0.3706,-0.5423,0.6858
-0.088,0.043,0.004,0.5,-50,45.5,1023,2018,4,24,22,11,20.859,0.3153,-0.3683,-0.5517,0.6784
-0.08,0.043,0.033,-3.8,-40.5,50.5,1023,2018,4,24,22,11,20.894,0.3191,-0.3655,-0.56,0.6714
-0.044,0.034,0.025,-6.8,-35.3,53.6,0,2018,4,24,22,11,20.917,0.324,-0.3623,-0.5672,0.6647
-0.023,0.004,0.005,-10.8,-28.8,56.6,0,2018,4,24,22,11,20.921,0.3297,-0.3592,-0.5738,0.6579
-0.027,-0.058,0.009,-12.7,-27.9,56.4,0,2018,4,24,22,11,20.938,0.336,-0.356,-0.5796,0.6513
-0.037,-0.138,-0.02,-13.5,-34.1,53.1,0,2018,4,24,22,11,20.974,0.3419,-0.3534,-0.5859,0.644
-0.034,-0.212,-0.056,-12.8,-33.6,46,0,2018,4,24,22,11,20.995,0.347,-0.3516,-0.5923,0.6364
-0.018,-0.277,-0.107,-9.2,-25.3,36.6,0,2018,4,24,22,11,20.999,0.3509,-0.3503,-0.5978,0.6298
-0.058,-0.413,-0.144,-8.4,-6.6,22.2,0,2018,4,24,22,11,21.018,0.3542,-0.3491,-0.6016,0.6249
-0.065,-0.29,-0.155,-5.5,12.1,2.4,0,2018,4,24,22,11,21.055,0.3564,-0.3485,-0.6022,0.6235
-0.028,-0.061,-0.1,-1.9,21.4,-12.2,0,2018,4,24,22,11,21.078,0.3572,-0.3484,-0.6004,0.6248
0.001,0.033,-0.033,-0.6,6.5,-14.8,0,2018,4,24,22,11,21.082,0.3564,-0.3494,-0.5983,0.6267
0.022,0.136,-0.002,0.7,6.7,-8,0,2018,4,24,22,11,21.1,0.3556,-0.3501,-0.5966,0.6284
0.026,0.158,0,1.2,6.5,1.3,0,2018,4,24,22,11,21.135,0.3555,-0.3499,-0.5955,0.6296
0.016,0.123,0.018,0.1,11.8,9.9,0,2018,4,24,22,11,21.135,0.3566,-0.3486,-0.5946,0.6305
0.022,0.073,0.018,-0.6,19.6,16.9,0,2018,4,24,22,11,21.159,0.3593,-0.3461,-0.5932,0.6317
0.011,-0.038,0.008,-1,21.4,17.8,0,2018,4,24,22,11,21.192,0.3627,-0.3429,-0.5917,0.6329
-0.014,-0.098,0.007,-2.7,18.6,12.8,0,2018,4,24,22,11,21.214,0.366,-0.34,-0.5901,0.6341
-0.016,-0.068,0.006,-2.8,10.4,5.6,0,2018,4,24,22,11,21.219,0.3684,-0.3382,-0.5887,0.6349
-0.012,-0.014,0.016,-1.6,2.1,0.2,0,2018,4,24,22,11,21.255,0.3695,-0.3375,-0.588,0.6353
-0.003,0.042,0.015,-1.1,-2.8,-1.4,0,2018,4,24,22,11,21.279,0.3697,-0.3375,-0.5877,0.6355
0.006,0.046,0.007,-1,-5.3,0,0,2018,4,24,22,11,21.283,0.3697,-0.3378,-0.5878,0.6353
0.004,0.038,-0.005,-1,-5,2.5,0,2018,4,24,22,11,21.301,0.3698,-0.338,-0.5881,0.6348
0.008,0.008,-0.015,-0.7,-5.9,3.8,0,2018,4,24,22,11,21.337,0.3699,-0.338,-0.5888,0.6341
0.002,-0.016,-0.019,-0.3,-5.3,3.7,0,2018,4,24,22,11,21.36,0.3701,-0.338,-0.5896,0.6332
0,-0.01,-0.011,-0.3,-4,3,0,2018,4,24,22,11,21.364,0.3703,-0.3379,-0.5903,0.6325
-0.002,0.001,-0.004,0.1,-3.4,2.2,0,2018,4,24,22,11,21.378,0.3705,-0.3378,-0.5908,0.632
-0.002,0.011,0.001,0,-4.1,1.5,0,2018,4,24,22,11,21.397,0.3706,-0.3377,-0.5912,0.6316
-0.003,0.019,0,0,-5.8,1.6,0,2018,4,24,22,11,21.418,0.3706,-0.3377,-0.5918,0.631
-0.005,0.014,0,0,-7.6,1.9,0,2018,4,24,22,11,21.456,0.3705,-0.3378,-0.5926,0.6303
-0.008,0,-0.002,-0.4,-8.4,2.1,1023,2018,4,24,22,11,21.481,0.3704,-0.338,-0.5935,0.6294
-0.011,-0.006,-0.011,-0.3,-8.9,1.9,1023,2018,4,24,22,11,21.484,0.3703,-0.3383,-0.5945,0.6284
-0.006,-0.005,-0.013,-0.2,-8.1,1.5,1023,2018,4,24,22,11,21.503,0.3701,-0.3386,-0.5955,0.6273
-0.003,0,-0.013,-0.3,-7.1,1.2,1023,2018,4,24,22,11,21.518,0.37,-0.3389,-0.5964,0.6264
-0.005,-0.001,-0.014,-0.2,-5.6,0.9,1023,2018,4,24,22,11,21.542,0.3698,-0.3391,-0.5972,0.6257
-0.003,0.002,-0.014,-0.3,-3.9,0.8,1023,2018,4,24,22,11,21.579,0.3698,-0.3392,-0.5977,0.6251
-0.004,0.003,-0.022,0,-2.1,1,1023,2018,4,24,22,11,21.602,0.3697,-0.3393,-0.5981,0.6247
-0.004,-0.003,-0.014,0,-0.4,0.9,1023,2018,4,24,22,11,21.607,0.3698,-0.3392,-0.5983,0.6244
-0.002,-0.001,-0.013,-0.1,1,0.8,1023,2018,4,24,22,11,21.621,0.37,-0.3391,-0.5984,0.6244
-0.002,-0.002,-0.009,0.1,1.8,0.8,1023,2018,4,24,22,11,21.64,0.3703,-0.3388,-0.5982,0.6245
-0.001,0,-0.006,0,3.1,0.3,1023,2018,4,24,22,11,21.658,0.3705,-0.3385,-0.598,0.6248
0.003,0.005,-0.007,0.2,3.8,0.5,1023,2018,4,24,22,11,21.682,0.3708,-0.3382,-0.5976,0.6252
0.001,0.006,-0.001,0,4,0.6,1023,2018,4,24,22,11,21.716,0.3712,-0.3378,-0.5971,0.6256
-0.001,0.007,0.002,0,3.4,0.5,1023,2018,4,24,22,11,21.739,0.3716,-0.3374,-0.5967,0.626
0,0.008,0.002,0,2.7,0.6,1023,2018,4,24,22,11,21.743,0.372,-0.337,-0.5963,0.6264
-0.001,0.004,0,-0.2,1.9,0.7,1023,2018,4,24,22,11,21.761,0.3723,-0.3367,-0.596,0.6266
-0.003,0.008,0.001,-0.2,0.7,0.3,1023,2018,4,24,22,11,21.784,0.3725,-0.3365,-0.5958,0.6268
-0.003,0.007,0,0,0,0,1023,2018,4,24,22,11,21.804,0.3727,-0.3364,-0.5957,0.6268
-0.002,0.005,-0.001,-0.3,-0.1,0.5,0,2018,4,24,22,11,21.823,0.3728,-0.3363,-0.5956,0.6269
-0.004,0.006,0.001,-0.1,-0.3,0.5,0,2018,4,24,22,11,21.846,0.3729,-0.3362,-0.5956,0.6269
-0.001,0.003,0,0,0,0,0,2018,4,24,22,11,21.882,0.373,-0.3361,-0.5955,0.6269
0,0.006,-0.003,0,0,0,0,2018,4,24,22,11,21.903,0.3731,-0.336,-0.5955,0.627
-0.004,0.007,0.001,0.1,-0.5,0.2,0,2018,4,24,22,11,21.908,0.3732,-0.336,-0.5954,0.627
0.001,0.006,-0.002,-0.1,-0.8,0.3,0,2018,4,24,22,11,21.922,0.3732,-0.3359,-0.5955,0.627
-0.001,0.008,0.002,0,-1.3,0.3,0,2018,4,24,22,11,21.941,0.3733,-0.3358,-0.5956,0.6269
-0.001,0.007,-0.004,0,-2,0.3,0,2018,4,24,22,11,21.96,0.3733,-0.3358,-0.5958,0.6267
-0.003,0.005,-0.003,0,-2.1,0.3,0,2018,4,24,22,11,21.998,0.3732,-0.3359,-0.596,0.6265
-0.003,0.004,-0.001,-0.1,-1.7,0.5,0,2018,4,24,22,11,22.022,0.3732,-0.3359,-0.5962,0.6262
-0.002,0.001,-0.005,0,-1.4,0.3,0,2018,4,24,22,11,22.027,0.3732,-0.3359,-0.5964,0.6261
-0.003,0.001,-0.009,0,-1,0.1,0,2018,4,24,22,11,22.06,0.3733,-0.3359,-0.5966,0.6259
-0.002,0.001,-0.007,0,0,0,0,2018,4,24,22,11,22.082,0.3733,-0.3359,-0.5966,0.6258
0.002,0.005,-0.005,0,0,0,0,2018,4,24,22,11,22.086,0.3733,-0.3359,-0.5966,0.6258
0.001,0.007,-0.007,0.1,0.6,0.2,0,2018,4,24,22,11,22.103,0.3734,-0.3358,-0.5966,0.6259
0,0.006,0,0,0,0,0,2018,4,24,22,11,22.14,0.3734,-0.3357,-0.5965,0.626
-0.004,0.003,-0.004,0,0,0,0,2018,4,24,22,11,22.164,0.3735,-0.3356,-0.5965,0.626
-0.004,0.006,-0.001,0,0,0,0,2018,4,24,22,11,22.168,0.3736,-0.3355,-0.5964,0.626
-0.003,0.008,-0.005,0,0,0,0,2018,4,24,22,11,22.185,0.3737,-0.3355,-0.5964,0.6261
-0.001,0.002,-0.002,0,0,0,0,2018,4,24,22,11,22.203,0.3737,-0.3354,-0.5964,0.6261
0.002,0.004,-0.002,-0.2,0.5,0,0,2018,4,24,22,11,22.224,0.3738,-0.3353,-0.5964,0.6261
0.002,0.004,-0.002,0,0.5,0,0,2018,4,24,22,11,22.262,0.3738,-0.3353,-0.5963,0.6262
-0.001,0.004,-0.006,0,0.7,0.2,0,2018,4,24,22,11,22.285,0.3739,-0.3352,-0.5962,0.6263
0,0.007,-0.004,-0.2,1,0.3,0,2018,4,24,22,11,22.29,0.3741,-0.3351,-0.596,0.6264
-0.002,0.004,0.001,0,0.7,0.3,0,2018,4,24,22,11,22.305,0.3742,-0.3349,-0.5959,0.6265
-0.004,0.008,-0.003,0,0,0,0,2018,4,24,22,11,22.329,0.3743,-0.3348,-0.5959,0.6265
-0.001,0.007,0.003,0,0,0,1023,2018,4,24,22,11,22.344,0.3744,-0.3348,-0.5958,0.6266
-0.002,0.005,0.008,0,-0.5,0,1023,2018,4,24,22,11,22.364,0.3744,-0.3347,-0.5958,0.6266
0.003,0.008,0.002,0,-0.8,0.1,1023,2018,4,24,22,11,22.386,0.3745,-0.3347,-0.5958,0.6266
-0.003,0.005,-0.005,0,-0.8,0.2,1023,2018,4,24,22,11,22.421,0.3745,-0.3347,-0.5959,0.6265
-0.003,0.003,0,0.1,-0.8,0.2,1023,2018,4,24,22,11,22.444,0.3745,-0.3346,-0.596,0.6264
-0.002,0,-0.003,0.2,-0.5,0,1023,2018,4,24,22,11,22.447,0.3745,-0.3346,-0.596,0.6264
-0.003,0.002,-0.003,0.1,-0.5,0,1023,2018,4,24,22,11,22.482,0.3745,-0.3346,-0.5961,0.6263
0,0.005,-0.003,0,-0.5,0,1023,2018,4,24,22,11,22.504,0.3745,-0.3345,-0.5961,0.6263
-0.002,0.006,-0.006,0,0,0,1023,2018,4,24,22,11,22.507,0.3745,-0.3345,-0.5961,0.6263
0,0.005,-0.005,0,0,0,1023,2018,4,24,22,11,22.545,0.3745,-0.3345,-0.5961,0.6263
0,0.004,-0.003,0,0,0,1023,2018,4,24,22,11,22.568,0.3746,-0.3345,-0.5961,0.6263
0.001,0.005,-0.003,0,0,0,1023,2018,4,24,22,11,22.573,0.3746,-0.3344,-0.5961,0.6263
0,0.007,-0.007,0,0,0,1023,2018,4,24,22,11,22.607,0.3746,-0.3344,-0.5961,0.6263
-0.001,0.003,-0.005,0,0,0,1023,2018,4,24,22,11,22.629,0.3746,-0.3344,-0.5961,0.6263
0,0.004,-0.005,0,0,0,1023,2018,4,24,22,11,22.633,0.3747,-0.3343,-0.5961,0.6264
-0.002,0.002,-0.002,0,0,0,1023,2018,4,24,22,11,22.647,0.3747,-0.3343,-0.5961,0.6264
-0.003,0.004,-0.005,0,0,0,1023,2018,4,24,22,11,22.685,0.3748,-0.3342,-0.596,0.6264
-0.003,0.004,-0.004,0.1,0.5,0.2,1023,2018,4,24,22,11,22.727,0.3749,-0.3341,-0.596,0.6264
0,0.008,-0.005,0,0,0,0,2018,4,24,22,11,22.729,0.3749,-0.334,-0.5959,0.6265
0,0.004,-0.005,0,0,0,0,2018,4,24,22,11,22.731,0.375,-0.334,-0.5959,0.6266
-0.003,0.007,0,0,0,0,0,2018,4,24,22,11,22.767,0.375,-0.3339,-0.5959,0.6266
-0.002,0.004,-0.004,0.2,0.5,0,0,2018,4,24,22,11,22.789,0.3751,-0.3339,-0.5958,0.6266
0.001,0.003,-0.001,0.2,0.5,0,0,2018,4,24,22,11,22.79,0.3751,-0.3338,-0.5958,0.6267
0.001,0.007,0.001,0.1,0.7,-0.1,0,2018,4,24,22,11,22.825,0.3752,-0.3337,-0.5957,0.6268
0,0.006,-0.001,0,0,0,0,2018,4,24,22,11,22.849,0.3752,-0.3337,-0.5956,0.6269
0.002,0.008,-0.002,0,0,0,0,2018,4,24,22,11,22.853,0.3752,-0.3336,-0.5956,0.6269
0.002,0.009,-0.001,0,-0.5,0,0,2018,4,24,22,11,22.87,0.3752,-0.3336,-0.5955,0.6269
-0.002,0.007,-0.001,0.1,-0.5,0.2,0,2018,4,24,22,11,22.887,0.3753,-0.3336,-0.5955,0.6269
-0.002,0.004,0,0,-0.8,0.2,0,2018,4,24,22,11,22.91,0.3753,-0.3336,-0.5956,0.6269
-0.002,0.002,-0.007,0,-0.5,0.2,0,2018,4,24,22,11,22.929,0.3753,-0.3336,-0.5957,0.6268
-0.001,0.001,-0.002,0,0,0,0,2018,4,24,22,11,22.951,0.3753,-0.3336,-0.5957,0.6267
-0.001,0.005,-0.008,0,0,0,0,2018,4,24,22,11,22.969,0.3753,-0.3335,-0.5957,0.6267
0,0.007,-0.005,0,0,0,0,2018,4,24,22,11,22.992,0.3753,-0.3335,-0.5957,0.6267
0.001,0.008,0.001,0,0,0,0,2018,4,24,22,11,23.011,0.3753,-0.3335,-0.5957,0.6268
0,0.006,0.001,0,0,0,0,2018,4,24,22,11,23.034,0.3754,-0.3334,-0.5956,0.6268
-0.004,0.005,0,0,-0.7,0.1,0,2018,4,24,22,11,23.053,0.3754,-0.3334,-0.5957,0.6268
-0.006,0.003,-0.003,-0.1,-0.9,0.2,0,2018,4,24,22,11,23.076,0.3754,-0.3334,-0.5958,0.6267
-0.002,0.001,-0.002,-0.1,-0.9,-0.2,0,2018,4,24,22,11,23.092,0.3755,-0.3335,-0.5959,0.6265
0,0.004,-0.003,0,0,0,0,2018,4,24,22,11,23.108,0.3754,-0.3335,-0.596,0.6265
0.002,0.005,-0.005,0,0,0,0,2018,4,24,22,11,23.13,0.3754,-0.3335,-0.596,0.6265
0,0.003,-0.004,0,0.7,0,0,2018,4,24,22,11,23.169,0.3754,-0.3335,-0.5959,0.6265
0.001,0.008,-0.002,0,1.2,0,0,2018,4,24,22,11,23.169,0.3755,-0.3334,-0.5958,0.6266
0,0.007,-0.002,0,1.2,0.2,0,2018,4,24,22,11,23.193,0.3756,-0.3333,-0.5957,0.6268
-0.004,0.006,-0.001,0.1,0.8,0.3,0,2018,4,24,22,11,23.228,0.3757,-0.3332,-0.5955,0.6269
0,0.006,0.001,0,0,0,0,2018,4,24,22,11,23.25,0.3758,-0.3331,-0.5955,0.6269
0,0.009,0,0,0,0,0,2018,4,24,22,11,23.255,0.3758,-0.3331,-0.5955,0.6269
-0.001,0.005,0,0,-0.7,0,0,2018,4,24,22,11,23.292,0.3758,-0.333,-0.5955,0.6269
-0.003,0.008,0.003,0,-0.8,0,0,2018,4,24,22,11,23.292,0.3758,-0.3331,-0.5956,0.6269
-0.004,0.005,-0.004,0,-0.7,0.2,0,2018,4,24,22,11,23.315,0.3758,-0.3331,-0.5957,0.6268
0,0.004,-0.002,0,0,0,1023,2018,4,24,22,11,23.332,0.3758,-0.3331,-0.5957,0.6267
-0.003,0.005,-0.002,0,0,0,1023,2018,4,24,22,11,23.351,0.3758,-0.3331,-0.5958,0.6267
0,0.002,0,0,0,0,1023,2018,4,24,22,11,23.373,0.3758,-0.333,-0.5958,0.6267
0.002,0.007,-0.001,0,0,0,1023,2018,4,24,22,11,23.393,0.3758,-0.333,-0.5958,0.6267
0,0.006,0.001,0,0,0,1023,2018,4,24,22,11,23.417,0.3759,-0.333,-0.5957,0.6267
0,0.007,-0.004,0,0,0,1023,2018,4,24,22,11,23.432,0.3759,-0.333,-0.5957,0.6267
0,0.004,-0.001,0,0,0,1023,2018,4,24,22,11,23.454,0.3759,-0.333,-0.5957,0.6267
0,0.006,-0.003,0,0,0,1023,2018,4,24,22,11,23.491,0.3759,-0.333,-0.5957,0.6267
-0.002,0.005,-0.005,0,0,0,1023,2018,4,24,22,11,23.515,0.3759,-0.333,-0.5957,0.6267
0.001,0.006,0,0,0,0,1023,2018,4,24,22,11,23.519,0.3759,-0.333,-0.5957,0.6267
0,0.002,-0.005,0,0,0,1023,2018,4,24,22,11,23.537,0.3759,-0.3329,-0.5957,0.6267
0,0.006,0,0,0,0,1023,2018,4,24,22,11,23.574,0.3759,-0.3329,-0.5957,0.6267
-0.001,0.007,-0.004,0,0,0,1023,2018,4,24,22,11,23.597,0.376,-0.3329,-0.5957,0.6267
-0.001,0.007,-0.001,0,0,0,1023,2018,4,24,22,11,23.602,0.376,-0.3329,-0.5957,0.6267
0.003,0.009,0.001,0,0,0,1023,2018,4,24,22,11,23.613,0.376,-0.3329,-0.5957,0.6267
-0.002,0.008,-0.004,0,0,0,1023,2018,4,24,22,11,23.649,0.376,-0.3329,-0.5957,0.6267
-0.004,0.006,-0.001,0,0,0,1023,2018,4,24,22,11,23.672,0.376,-0.3328,-0.5957,0.6267
0,0.003,-0.001,0,0,0,1023,2018,4,24,22,11,23.676,0.376,-0.3328,-0.5957,0.6267
-0.001,0.006,-0.007,0,0,0,1023,2018,4,24,22,11,23.695,0.376,-0.3328,-0.5957,0.6267
0,0.004,-0.001,0,0,0,0,2018,4,24,22,11,23.719,0.376,-0.3328,-0.5957,0.6267
0.001,0.008,-0.002,0,0,0,0,2018,4,24,22,11,23.736,0.3761,-0.3328,-0.5957,0.6267
0.001,0.006,-0.004,0,0,0,0,2018,4,24,22,11,23.758,0.3761,-0.3328,-0.5957,0.6267
0.001,0.005,-0.003,0,0,0,0,2018,4,24,22,11,23.777,0.3761,-0.3328,-0.5957,0.6267
0,0.005,0.002,0,0,0,0,2018,4,24,22,11,23.801,0.3761,-0.3328,-0.5957,0.6267
0,0.002,0,0,0,0,0,2018,4,24,22,11,23.816,0.3761,-0.3328,-0.5957,0.6267
0.001,0.005,-0.001,0,0,0,0,2018,4,24,22,11,23.842,0.3761,-0.3328,-0.5957,0.6267
0,0.005,0.002,0,0,0,0,2018,4,24,22,11,23.857,0.3761,-0.3328,-0.5957,0.6267
0.001,0.006,-0.002,0,0,0,0,2018,4,24,22,11,23.894,0.3761,-0.3327,-0.5957,0.6267
0.001,0.007,0.001,0,0,0,0,2018,4,24,22,11,23.918,0.3761,-0.3327,-0.5957,0.6267
0,0.007,0.001,0,0,0,0,2018,4,24,22,11,23.922,0.3761,-0.3327,-0.5957,0.6267
0,0.006,0.001,0.1,-1,0.3,0,2018,4,24,22,11,23.938,0.3762,-0.3327,-0.5957,0.6267
-0.003,0.005,-0.001,0,-1.2,0,0,2018,4,24,22,11,23.956,0.3761,-0.3327,-0.5958,0.6266
-0.002,0,-0.003,0,-0.8,0,0,2018,4,24,22,11,23.979,0.3761,-0.3328,-0.596,0.6264
0.002,0.003,-0.002,0,-0.6,0,0,2018,4,24,22,11,23.997,0.3761,-0.3328,-0.5961,0.6263
0.001,0.003,-0.006,0,0,0,0,2018,4,24,22,11,24.021,0.376,-0.3329,-0.5961,0.6263
0.001,0.005,0.001,0,0,0,0,2018,4,24,22,11,24.056,0.376,-0.3329,-0.5961,0.6263
0.002,0.007,-0.005,0.1,0.7,0.2,0,2018,4,24,22,11,24.078,0.3761,-0.3328,-0.596,0.6264
0,0.008,-0.002,0,0.6,0.2,0,2018,4,24,22,11,24.083,0.3761,-0.3327,-0.596,0.6265
-0.001,0.004,0,0,0.5,0.3,0,2018,4,24,22,11,24.1,0.3762,-0.3326,-0.5959,0.6265
-0.002,0.006,0.002,0,0,0,0,2018,4,24,22,11,24.119,0.3763,-0.3326,-0.5959,0.6265
0,0.001,-0.002,0,0,0,0,2018,4,24,22,11,24.136,0.3763,-0.3326,-0.5959,0.6265
0.001,0.003,-0.001,0,0,0,0,2018,4,24,22,11,24.159,0.3763,-0.3326,-0.5959,0.6265
0,0.007,-0.003,0,0,0,0,2018,4,24,22,11,24.197,0.3763,-0.3326,-0.5958,0.6265
0,0.007,-0.002,0,0,0,0,2018,4,24,22,11,24.22,0.3763,-0.3326,-0.5958,0.6266
0,0.006,0.001,0,0,0,0,2018,4,24,22,11,24.224,0.3763,-0.3326,-0.5958,0.6266
-0.002,0.005,0.002,0,0,0,0,2018,4,24,22,11,24.241,0.3763,-0.3326,-0.5958,0.6266
-0.001,0.005,-0.001,0,0,0,1023,2018,4,24,22,11,24.279,0.3763,-0.3325,-0.5958,0.6266
-0.001,0.003,0.003,0,0,0,1023,2018,4,24,22,11,24.279,0.3764,-0.3325,-0.5958,0.6266
0.002,0.006,0,0,0,0,1023,2018,4,24,22,11,24.302,0.3764,-0.3325,-0.5958,0.6266
0.001,0.007,-0.002,0,0,0,1023,2018,4,24,22,11,24.319,0.3764,-0.3325,-0.5958,0.6266
0,0.007,-0.005,0,0,0,1023,2018,4,24,22,11,24.338,0.3763,-0.3325,-0.5958,0.6266
0,0.005,-0.004,0,0,0,1023,2018,4,24,22,11,24.359,0.3763,-0.3325,-0.5958,0.6266
0.001,0.005,-0.003,0,0,0,1023,2018,4,24,22,11,24.397,0.3764,-0.3325,-0.5958,0.6266
0.001,0.006,-0.002,0,0,0,1023,2018,4,24,22,11,24.42,0.3764,-0.3325,-0.5958,0.6266
0,0.003,-0.002,0,0,0,1023,2018,4,24,22,11,24.424,0.3764,-0.3325,-0.5958,0.6266
0,0.004,-0.002,0,0,0,1023,2018,4,24,22,11,24.44,0.3764,-0.3325,-0.5958,0.6265
0.001,0.006,0,0,0,0,1023,2018,4,24,22,11,24.462,0.3764,-0.3325,-0.5959,0.6265
0,0.005,-0.002,0,0,0,1023,2018,4,24,22,11,24.48,0.3764,-0.3325,-0.5959,0.6265
0,0.006,0.002,0,0,0,1023,2018,4,24,22,11,24.503,0.3764,-0.3325,-0.5959,0.6265
0,0.005,0.001,0,0,0,1023,2018,4,24,22,11,24.522,0.3764,-0.3325,-0.5959,0.6265
-0.003,0.004,0.004,0,0,0,1023,2018,4,24,22,11,24.545,0.3764,-0.3325,-0.5958,0.6265
-0.001,0.004,0,0,0,0,1023,2018,4,24,22,11,24.563,0.3764,-0.3325,-0.5958,0.6266
0.002,0.007,0.001,0,0,0,1023,2018,4,24,22,11,24.586,0.3764,-0.3325,-0.5958,0.6266
0.001,0.004,-0.002,0,0,0,1023,2018,4,24,22,11,24.621,0.3764,-0.3324,-0.5958,0.6266
-0.001,0.006,0.006,0,0,0,0,2018,4,24,22,11,24.621,0.3764,-0.3324,-0.5958,0.6266
0,0.003,-0.003,0,0,0,0,2018,4,24,22,11,24.644,0.3764,-0.3324,-0.5958,0.6266
0.001,0.004,-0.003,0,0,0,0,2018,4,24,22,11,24.662,0.3764,-0.3324,-0.5958,0.6266
0,0.006,0.002,0,0,0,0,2018,4,24,22,11,24.685,0.3764,-0.3324,-0.5958,0.6266
0.005,0.006,-0.002,0,0,0,0,2018,4,24,22,11,24.705,0.3764,-0.3324,-0.5958,0.6266
0,0.007,0.008,0,0,0,0,2018,4,24,22,11,24.722,0.3764,-0.3324,-0.5958,0.6266
0,0.001,0,0,0,0,0,2018,4,24,22,11,24.746,0.3765,-0.3324,-0.5958,0.6266
0,0.006,0.001,0,0,0,0,2018,4,24,22,11,24.781,0.3765,-0.3324,-0.5958,0.6266
-0.001,0.009,0.001,0,0,0,0,2018,4,24,22,11,24.805,0.3765,-0.3324,-0.5958,0.6266
0,0.004,-0.002,0,0,0,0,2018,4,24,22,11,24.808,0.3765,-0.3324,-0.5958,0.6266
0,0.005,0.001,0,0,0,0,2018,4,24,22,11,24.826,0.3765,-0.3324,-0.5958,0.6266
-0.001,0.005,-0.001,0,0,0,0,2018,4,24,22,11,24.841,0.3765,-0.3324,-0.5958,0.6266
0.001,0.005,0.003,0.1,0.5,0,0,2018,4,24,22,11,24.881,0.3765,-0.3324,-0.5958,0.6266
-0.001,0.011,0.006,0.2,0.5,0,0,2018,4,24,22,11,24.904,0.3765,-0.3323,-0.5957,0.6267
0,0.01,0.006,0,0,0,0,2018,4,24,22,11,24.909,0.3765,-0.3323,-0.5957,0.6267
0,0.008,0.005,0.1,-1,0.2,0,2018,4,24,22,11,24.927,0.3765,-0.3323,-0.5957,0.6267
-0.004,0.004,0.005,0,-1.3,0.2,0,2018,4,24,22,11,24.946,0.3765,-0.3323,-0.5959,0.6266
0,0.006,-0.004,0,-1.2,0,0,2018,4,24,22,11,24.964,0.3764,-0.3323,-0.596,0.6264
0.001,0,-0.001,0.1,-0.6,0.1,0,2018,4,24,22,11,24.988,0.3764,-0.3324,-0.5961,0.6263
0.002,0,-0.006,0,0,0,0,2018,4,24,22,11,25.003,0.3764,-0.3324,-0.5962,0.6263
0.002,0.003,0,0,0,0,0,2018,4,24,22,11,25.026,0.3763,-0.3324,-0.5962,0.6263
0.001,0.007,0,0,0,0,0,2018,4,24,22,11,25.043,0.3763,-0.3325,-0.5962,0.6263
0.003,0.008,0.004,0,0.5,0.3,0,2018,4,24,22,11,25.081,0.3764,-0.3324,-0.5961,0.6263
-0.001,0.006,0.003,0,0,0,0,2018,4,24,22,11,25.104,0.3764,-0.3324,-0.5961,0.6263
0,0.004,0.001,0,0,0,0,2018,4,24,22,11,25.109,0.3764,-0.3324,-0.5961,0.6263
0.002,0.001,0,0,-0.5,0,0,2018,4,24,22,11,25.124,0.3764,-0.3324,-0.5961,0.6264
-0.002,0.009,0,0,-0.5,0,0,2018,4,24,22,11,25.147,0.3764,-0.3324,-0.5961,0.6263
0.001,0.007,-0.002,0,0,0,0,2018,4,24,22,11,25.184,0.3764,-0.3324,-0.5961,0.6263
-0.006,0.008,0,0,0,0,0,2018,4,24,22,11,25.206,0.3764,-0.3324,-0.5961,0.6263
-0.002,0.004,-0.003,0,0,0,0,2018,4,24,22,11,25.212,0.3764,-0.3324,-0.5961,0.6263
-0.001,0.004,0,0,0,0,0,2018,4,24,22,11,25.229,0.3764,-0.3324,-0.5961,0.6263
-0.001,0.004,0.001,0,0,0,0,2018,4,24,22,11,25.249,0.3764,-0.3324,-0.5961,0.6263
0,0.003,0,0.1,-0.5,0,0,2018,4,24,22,11,25.267,0.3764,-0.3323,-0.5961,0.6263
0.001,0.006,0,0,0,0,1023,2018,4,24,22,11,25.284,0.3764,-0.3323,-0.5962,0.6263
0.003,0.006,0,0,0,0,1023,2018,4,24,22,11,25.307,0.3764,-0.3324,-0.5962,0.6263
0.002,0.005,-0.003,0,0,0,1023,2018,4,24,22,11,25.325,0.3764,-0.3324,-0.5961,0.6263
0.001,0.006,-0.005,0,0,0,1023,2018,4,24,22,11,25.349,0.3764,-0.3324,-0.5961,0.6263
0.001,0.007,-0.001,0,0,0,1023,2018,4,24,22,11,25.366,0.3764,-0.3324,-0.5961,0.6263
-0.002,0.005,-0.002,0,0,0,1023,2018,4,24,22,11,25.39,0.3764,-0.3324,-0.5962,0.6263
0.001,0.005,0,0,0,0,1023,2018,4,24,22,11,25.406,0.3764,-0.3324,-0.5962,0.6263
0.003,0.006,0,0,0,0,1023,2018,4,24,22,11,25.429,0.3764,-0.3324,-0.5962,0.6263
0.003,0,-0.004,0,0.5,0.3,1023,2018,4,24,22,11,25.462,0.3764,-0.3324,-0.5962,0.6263
0.004,0,-0.009,0.2,1.7,0.8,1023,2018,4,24,22,11,25.485,0.3764,-0.3323,-0.5961,0.6263
0.004,0,-0.008,0.4,3.1,1,1023,2018,4,24,22,11,25.488,0.3766,-0.3321,-0.5959,0.6265
0.005,-0.001,-0.001,1.2,4.9,0.5,1023,2018,4,24,22,11,25.526,0.3768,-0.3317,-0.5956,0.6269
0,0.002,0,1.2,3.8,0.6,1023,2018,4,24,22,11,25.546,0.3771,-0.3312,-0.5953,0.6274
-0.009,0.011,0.008,1.3,2.1,0.2,1023,2018,4,24,22,11,25.552,0.3772,-0.3307,-0.5951,0.6277
-0.003,0.016,0.008,0.9,0.4,-0.2,1023,2018,4,24,22,11,25.571,0.3773,-0.3304,-0.5949,0.628
0.005,0.013,0.005,0.5,-0.7,0,1023,2018,4,24,22,11,25.587,0.3772,-0.3303,-0.595,0.628
0.036,-0.005,-0.01,1,0.8,-0.4,1023,2018,4,24,22,11,25.625,0.377,-0.3304,-0.595,0.6281
0.018,-0.012,-0.015,1.2,2.8,0.6,0,2018,4,24,22,11,25.649,0.3769,-0.3302,-0.5949,0.6283
0.011,-0.016,-0.022,2.4,4.8,0.3,0,2018,4,24,22,11,25.653,0.3769,-0.3299,-0.5948,0.6286
-0.003,-0.007,-0.009,2.6,5.4,-0.2,0,2018,4,24,22,11,25.669,0.3769,-0.3294,-0.5944,0.6292
-0.011,0.01,-0.001,3.1,3.5,-1.3,0,2018,4,24,22,11,25.694,0.3767,-0.3288,-0.5941,0.6299
-0.008,0.017,0.007,3.6,1,-1.8,0,2018,4,24,22,11,25.71,0.3764,-0.3284,-0.5939,0.6305
0.008,0.013,0.002,3.7,-0.5,-2.2,0,2018,4,24,22,11,25.733,0.3758,-0.3282,-0.594,0.6309
0.038,0,-0.01,5.1,-1.8,-3.2,0,2018,4,24,22,11,25.75,0.3749,-0.3281,-0.5942,0.6313
0.05,-0.014,-0.012,8.3,-6.4,-4.6,0,2018,4,24,22,11,25.774,0.3733,-0.3283,-0.5948,0.6316
0.029,0.004,-0.002,10.2,-17.9,-5.7,0,2018,4,24,22,11,25.81,0.3707,-0.3289,-0.5962,0.6315
0.007,0.034,-0.033,11.5,-31.7,-6.9,0,2018,4,24,22,11,25.81,0.3672,-0.3303,-0.5993,0.6299
0.014,0.019,-0.055,12.9,-41.2,-8.8,0,2018,4,24,22,11,25.833,0.3626,-0.3324,-0.604,0.627
0.034,0.007,-0.041,14.2,-38.8,-9.3,0,2018,4,24,22,11,25.849,0.3574,-0.3349,-0.6089,0.6238
0.034,-0.01,0.002,12.5,-29.2,-6.8,0,2018,4,24,22,11,25.869,0.3527,-0.3367,-0.613,0.6215
0.008,0.015,0.044,9.2,-18.3,-3,0,2018,4,24,22,11,25.891,0.3496,-0.3375,-0.6157,0.6202
0.002,0.034,0.068,4.6,-14.4,-0.2,0,2018,4,24,22,11,25.928,0.348,-0.3377,-0.6173,0.6194
-0.012,0.017,0.041,2.2,-15.8,0.1,0,2018,4,24,22,11,25.951,0.347,-0.338,-0.6188,0.6183
-0.032,0.013,0.038,0.4,-19.7,-1.3,0,2018,4,24,22,11,25.955,0.3459,-0.3388,-0.6205,0.6167
-0.032,-0.016,0.046,-2.7,-20.8,-2.8,0,2018,4,24,22,11,25.971,0.345,-0.34,-0.6224,0.6147
-0.039,-0.008,0.054,-6.6,-25.4,-4.9,0,2018,4,24,22,11,25.994,0.3442,-0.3418,-0.6241,0.6123
-0.037,0.006,0.038,-8,-31.7,-7.5,0,2018,4,24,22,11,26.012,0.343,-0.3447,-0.6262,0.6093
-0.053,-0.013,0.046,-8.9,-35.6,-10.1,0,2018,4,24,22,11,26.048,0.3414,-0.3482,-0.6287,0.6056
-0.112,-0.015,0.064,-11.2,-35.7,-13.5,0,2018,4,24,22,11,26.072,0.3397,-0.352,-0.631,0.6019
-0.008,-0.053,0.051,-13.6,-37.9,-17.3,0,2018,4,24,22,11,26.075,0.3379,-0.3566,-0.6331,0.598
0.031,-0.04,0.044,-12.7,-37.3,-21.1,0,2018,4,24,22,11,26.093,0.3351,-0.3622,-0.6347,0.5946
-0.022,-0.036,0.034,-14,-45.5,-22.7,0,2018,4,24,22,11,26.111,0.3322,-0.368,-0.6368,0.5904
-0.003,-0.054,0.026,-13.7,-50.5,-27.8,0,2018,4,24,22,11,26.135,0.3282,-0.3748,-0.6391,0.5857
0.012,-0.009,0.031,-14.8,-53.1,-32.3,0,2018,4,24,22,11,26.171,0.3234,-0.3825,-0.6415,0.5809
0.03,0.035,0.054,-16,-57.7,-37.3,0,2018,4,24,22,11,26.192,0.318,-0.391,-0.6435,0.5759
-0.038,0.003,0.035,-16.7,-70.6,-43.7,0,2018,4,24,22,11,26.196,0.3114,-0.4007,-0.6459,0.5701
0.087,-0.186,0.021,-15.6,-80.1,-52.2,0,2018,4,24,22,11,26.215,0.3032,-0.4118,-0.6491,0.563
-0.112,-0.104,0.045,-19.5,-85,-54.7,1023,2018,4,24,22,11,26.232,0.2947,-0.4232,-0.6525,0.5551
-0.12,-0.098,0.072,-26,-77.7,-57.7,1023,2018,4,24,22,11,26.252,0.2859,-0.4359,-0.655,0.5468
-0.107,-0.095,0.1,-31.4,-66.9,-62.8,1023,2018,4,24,22,11,26.275,0.278,-0.4491,-0.6558,0.5393
-0.165,-0.062,0.129,-36.3,-60.5,-68.9,1023,2018,4,24,22,11,26.291,0.2709,-0.4627,-0.6546,0.5328
-0.115,-0.12,0.085,-39.7,-51.8,-72.5,1023,2018,4,24,22,11,26.313,0.2639,-0.4771,-0.6523,0.5264
-0.173,-0.154,0.017,-42.1,-20.9,-71.1,1023,2018,4,24,22,11,26.35,0.259,-0.4906,-0.6475,0.5222
-0.003,-0.08,-0.086,-36.6,5.5,-72.7,1023,2018,4,24,22,11,26.373,0.2567,-0.5025,-0.6403,0.5211
-0.027,0.066,-0.149,-32.5,17.6,-69.9,1023,2018,4,24,22,11,26.378,0.2549,-0.5131,-0.6315,0.5222
0.062,0.178,-0.129,-35.2,14.9,-63.2,1023,2018,4,24,22,11,26.393,0.254,-0.5228,-0.6224,0.524
-0.018,0.238,-0.108,-32.4,3.2,-59.6,1023,2018,4,24,22,11,26.415,0.253,-0.5321,-0.6144,0.5246
-0.013,0.133,-0.16,-23.7,-0.1,-51.4,1023,2018,4,24,22,11,26.454,0.2508,-0.5407,-0.6079,0.5244
0.128,0.137,-0.179,-16.3,3.9,-42.4,1023,2018,4,24,22,11,26.477,0.2488,-0.5474,-0.6024,0.5248
0.045,0.065,-0.209,-6.2,13.5,-33.1,1023,2018,4,24,22,11,26.481,0.2473,-0.552,-0.5976,0.5261
0.047,-0.039,-0.223,1.5,34.5,-28.2,1023,2018,4,24,22,11,26.498,0.2471,-0.5543,-0.5923,0.5298
0.084,-0.046,-0.156,6,57.7,-26.4,1023,2018,4,24,22,11,26.521,0.2485,-0.5549,-0.5856,0.536
0.006,0.072,-0.063,7.5,78.9,-25.3,1023,2018,4,24,22,11,26.537,0.2519,-0.5539,-0.577,0.5446
0.034,0.117,-0.076,8.6,69.9,-23.8,0,2018,4,24,22,11,26.561,0.2552,-0.5529,-0.5679,0.5536
-0.019,0.085,0.003,8.1,53,-24.5,0,2018,4,24,22,11,26.575,0.2577,-0.552,-0.5602,0.5611
-0.005,0.067,0.079,3.5,38.2,-23.1,0,2018,4,24,22,11,26.595,0.259,-0.5517,-0.5536,0.5673
0.125,-0.003,0.035,3.7,30.5,-21,0,2018,4,24,22,11,26.619,0.2596,-0.5521,-0.548,0.5722
0.006,0.185,0.028,2.2,22.3,-21.2,0,2018,4,24,22,11,26.654,0.2602,-0.5521,-0.5432,0.5764
0.012,0.089,-0.013,2.7,5.7,-15.5,0,2018,4,24,22,11,26.678,0.2584,-0.5536,-0.5401,0.5786
-0.029,-0.06,0.032,-2.1,11.8,-12.7,0,2018,4,24,22,11,26.682,0.2579,-0.5544,-0.538,0.5801
-0.13,0.095,0.007,-5.2,29.4,-6.7,0,2018,4,24,22,11,26.699,0.2599,-0.5542,-0.5349,0.5822
0.052,0.157,-0.057,-3.6,22.3,-2.4,0,2018,4,24,22,11,26.718,0.2619,-0.5544,-0.5314,0.5843
0.08,0.154,-0.046,0.9,5.4,1,0,2018,4,24,22,11,26.741,0.2633,-0.5539,-0.5298,0.5856
0.039,0.105,-0.021,4.8,-1.8,6.3,0,2018,4,24,22,11,26.759,0.2628,-0.5538,-0.5301,0.5857
0.012,0.1,0.023,4.4,-3.6,11.2,0,2018,4,24,22,11,26.782,0.2625,-0.5529,-0.5313,0.5855
-0.019,0.082,0.094,1.2,-3.3,15.9,0,2018,4,24,22,11,26.799,0.2631,-0.5514,-0.5328,0.5854
0.009,0.122,0.09,-2.6,-2.3,20.5,0,2018,4,24,22,11,26.834,0.2649,-0.5497,-0.5342,0.585
0.001,0.106,0.06,-5.5,-4.7,25.2,0,2018,4,24,22,11,26.857,0.2671,-0.5481,-0.5361,0.5837
-0.01,0.084,0.059,-8.1,-8.2,28.5,0,2018,4,24,22,11,26.862,0.2698,-0.5465,-0.5386,0.5816
-0.049,-0.023,0.052,-11.9,-9.1,30.2,0,2018,4,24,22,11,26.879,0.2731,-0.5448,-0.5417,0.5787
-0.106,-0.23,0.073,-17,-2.5,26.1,0,2018,4,24,22,11,26.897,0.2773,-0.5434,-0.5446,0.5754
-0.091,-0.297,0.028,-21.7,13.3,17.7,0,2018,4,24,22,11,26.921,0.282,-0.543,-0.5451,0.5729
-0.067,-0.234,0.008,-24.9,23.5,6.6,0,2018,4,24,22,11,26.957,0.2882,-0.5425,-0.5434,0.572
-0.028,-0.177,-0.01,-26.9,25.2,-4.3,0,2018,4,24,22,11,26.98,0.2937,-0.5433,-0.54,0.5716
0.045,-0.163,-0.006,-25.7,26.9,-12.2,0,2018,4,24,22,11,26.984,0.298,-0.5452,-0.5355,0.5718
-0.009,0.061,0.012,-24.9,29.6,-18.5,0,2018,4,24,22,11,26.998,0.3023,-0.5471,-0.5295,0.5733
0.005,-0.085,0.04,-25.8,31.9,-17.2,0,2018,4,24,22,11,27.016,0.3052,-0.5501,-0.5237,0.5743
0.019,0.089,-0.028,-31.7,25.2,-14.6,0,2018,4,24,22,11,27.037,0.309,-0.553,-0.5175,0.575
0.009,0.015,-0.038,-28.8,37.9,-6.6,0,2018,4,24,22,11,27.073,0.313,-0.5559,-0.5119,0.5752
-0.005,0.171,-0.011,-30.7,35.9,-2.5,0,2018,4,24,22,11,27.097,0.3187,-0.5573,-0.5058,0.576
0.066,0.012,-0.024,-30.3,39,7.2,0,2018,4,24,22,11,27.102,0.3244,-0.5588,-0.5008,0.5758
-0.043,0.151,0.043,-33.6,56.5,13,1023,2018,4,24,22,11,27.118,0.3334,-0.5579,-0.4949,0.5767
0.039,0.031,0.033,-37.8,51.3,21.3,1023,2018,4,24,22,11,27.141,0.3429,-0.5572,-0.4889,0.5768
-0.067,0.065,0.042,-39.4,69.4,26.3,1023,2018,4,24,22,11,27.159,0.3551,-0.5548,-0.4827,0.577
0.061,0.031,0.003,-43.4,56.3,29.5,1023,2018,4,24,22,11,27.183,0.3674,-0.5528,-0.4762,0.5765
0.006,0.011,0.036,-38.3,79.4,36.5,1023,2018,4,24,22,11,27.22,0.3806,-0.5496,-0.47,0.5761
0.045,0.335,0.058,-42.9,50.7,42.1,1023,2018,4,24,22,11,27.24,0.3943,-0.5459,-0.4638,0.5755
0.026,0.488,0.133,-38.1,28,57.2,1023,2018,4,24,22,11,27.245,0.4062,-0.5432,-0.4619,0.5713
0.074,0.456,0.016,-43,-3,74.8,1023,2018,4,24,22,11,27.261,0.4171,-0.5411,-0.4641,0.5636
0.034,0.007,-0.034,-41.6,7.7,94.7,1023,2018,4,24,22,11,27.297,0.4284,-0.5387,-0.4692,0.5532
-0.165,-0.041,-0.142,-48.1,23.6,100.5,1023,2018,4,24,22,11,27.319,0.4434,-0.5332,-0.4734,0.5429
-0.199,-0.392,-0.333,-57.2,14.7,109,1023,2018,4,24,22,11,27.322,0.4586,-0.5285,-0.4776,0.5312
-0.208,-0.289,-0.199,-52,50.5,117.7,1023,2018,4,24,22,11,27.34,0.4759,-0.5211,-0.4806,0.5203
-0.164,0.136,-0.04,-52.5,79.6,119.7,1023,2018,4,24,22,11,27.364,0.4975,-0.5093,-0.481,0.5114
-0.024,0.048,-0.106,-57.3,56,124.7,0,2018,4,24,22,11,27.382,0.5186,-0.4988,-0.4814,0.5004
-0.069,-0.011,-0.057,-57,51.8,135.6,0,2018,4,24,22,11,27.406,0.5391,-0.4877,-0.4833,0.4876
-0.1,-0.095,0.017,-59.8,41.6,138.5,0,2018,4,24,22,11,27.423,0.56,-0.4763,-0.4857,0.4728
-0.036,-0.17,0.054,-68.3,34.6,140,0,2018,4,24,22,11,27.447,0.5801,-0.4655,-0.4877,0.4568
0,-0.116,0.018,-79.5,32.9,138.5,0,2018,4,24,22,11,27.465,0.6002,-0.4559,-0.4884,0.4395
0.04,-0.11,-0.089,-81.2,31.5,137.7,0,2018,4,24,22,11,27.482,0.6196,-0.4473,-0.4883,0.4212
0.095,-0.287,-0.132,-63.9,55.7,137.1,0,2018,4,24,22,11,27.506,0.6388,-0.4366,-0.4879,0.4038
0.009,-0.312,-0.127,-57.2,80.6,131.6,0,2018,4,24,22,11,27.522,0.6585,-0.4213,-0.4864,0.3901
0.063,-0.155,-0.115,-44.5,95.2,125.3,0,2018,4,24,22,11,27.56,0.6778,-0.4035,-0.4837,0.379
0.099,0.008,-0.098,-25.2,94,121.5,0,2018,4,24,22,11,27.582,0.6953,-0.384,-0.4817,0.37
0.063,-0.013,-0.066,-1.1,83.3,116.5,0,2018,4,24,22,11,27.584,0.7092,-0.3647,-0.4823,0.3624
0.021,-0.003,-0.037,20.6,74.8,111.4,0,2018,4,24,22,11,27.62,0.7198,-0.3452,-0.4859,0.3556
-0.05,0.083,0.025,36.6,61.3,108.6,0,2018,4,24,22,11,27.642,0.7282,-0.325,-0.492,0.3492
-0.083,0.113,0.066,43.1,39.5,105.7,0,2018,4,24,22,11,27.645,0.7341,-0.3065,-0.5001,0.3419
-0.063,0.061,0.066,41.4,22.9,104,0,2018,4,24,22,11,27.678,0.7385,-0.2901,-0.5093,0.3331
-0.02,0.052,0.018,38.9,8,104.7,0,2018,4,24,22,11,27.699,0.742,-0.276,-0.5187,0.3225
0.036,0.021,-0.017,39.6,6.2,106.8,0,2018,4,24,22,11,27.704,0.7446,-0.2632,-0.5284,0.3112
0.041,-0.007,-0.02,42.2,10.8,110.2,0,2018,4,24,22,11,27.742,0.7469,-0.25,-0.5382,0.2998
0.047,0.001,-0.015,44.9,14.4,114.8,0,2018,4,24,22,11,27.744,0.7489,-0.2356,-0.5479,0.2884
0.049,-0.016,-0.008,47.5,13.7,119.7,0,2018,4,24,22,11,27.78,0.7507,-0.2204,-0.5579,0.2764
0.025,-0.048,-0.017,50.1,12.3,122.6,0,2018,4,24,22,11,27.802,0.752,-0.2049,-0.5681,0.2639
0.053,-0.073,-0.011,54.5,16.4,123.3,0,2018,4,24,22,11,27.808,0.7526,-0.1889,-0.5785,0.2512
0.058,-0.082,0.007,62.5,26.8,124.4,0,2018,4,24,22,11,27.825,0.7524,-0.1717,-0.5889,0.2396
0.069,-0.102,0,67.2,28.2,124.2,0,2018,4,24,22,11,27.848,0.7513,-0.1532,-0.5996,0.2287
0.038,-0.137,-0.029,71,25.5,120.8,0,2018,4,24,22,11,27.867,0.7492,-0.135,-0.6106,0.2179
0.036,-0.186,-0.038,76,29.5,118.3,0,2018,4,24,22,11,27.903,0.7462,-0.1159,-0.6219,0.2069
0.008,-0.239,0.014,80.3,33.5,115,0,2018,4,24,22,11,27.926,0.7423,-0.0962,-0.6331,0.1967
-0.034,-0.294,0.085,80.9,42.5,108.1,0,2018,4,24,22,11,27.931,0.7376,-0.076,-0.644,0.1879
-0.047,-0.329,0.116,77.4,50.1,98.3,0,2018,4,24,22,11,27.944,0.7325,-0.0558,-0.6538,0.1808
-0.072,-0.323,0.103,72.7,57.7,87.1,0,2018,4,24,22,11,27.962,0.7271,-0.0359,-0.6625,0.1759
-0.095,-0.288,0.085,66.6,61.2,75.2,1023,2018,4,24,22,11,27.985,0.7218,-0.0168,-0.6698,0.173
-0.127,-0.246,0.062,59.7,57.7,62.5,1023,2018,4,24,22,11,28.003,0.7165,0.0006,-0.6761,0.1715
-0.14,-0.203,0.046,51.8,48.8,49.2,1023,2018,4,24,22,11,28.027,0.7115,0.015,-0.6812,0.1714
-0.169,-0.15,0.037,43.3,36.2,37.2,1023,2018,4,24,22,11,28.063,0.7069,0.0259,-0.6855,0.1718
-0.207,-0.121,0.035,34.9,24,26.9,1023,2018,4,24,22,11,28.086,0.7031,0.034,-0.6891,0.1718
-0.209,-0.082,0.035,26.2,13.6,17.1,1023,2018,4,24,22,11,28.091,0.7,0.0394,-0.692,0.1715
-0.216,-0.043,0.02,19,3.1,7.6,1023,2018,4,24,22,11,28.107,0.6977,0.0424,-0.6943,0.171
-0.213,-0.009,0.016,13.8,-6.3,-1.2,1023,2018,4,24,22,11,28.131,0.6959,0.0431,-0.6962,0.1702
-0.198,0.015,0.01,9.4,-13.7,-9.7,1023,2018,4,24,22,11,28.147,0.6945,0.0417,-0.6979,0.1694
-0.192,0.033,0,6,-18.9,-17.3,1023,2018,4,24,22,11,28.17,0.6934,0.0386,-0.6994,0.1686
-0.183,0.054,-0.009,3,-21.9,-23.4,1023,2018,4,24,22,11,28.189,0.6925,0.0342,-0.7007,0.1681
-0.164,0.07,-0.019,0.7,-23,-27.6,1023,2018,4,24,22,11,28.213,0.6917,0.0289,-0.7017,0.1679
-0.157,0.086,-0.023,-0.8,-25.2,-30.7,1023,2018,4,24,22,11,28.229,0.691,0.0231,-0.7027,0.1678
-0.16,0.093,-0.038,-3,-26.1,-32.1,0,2018,4,24,22,11,28.246,0.6904,0.0168,-0.7034,0.1676
-0.15,0.103,-0.045,-4.4,-24,-32.3,0,2018,4,24,22,11,28.269,0.6899,0.0105,-0.704,0.1676
-0.116,0.13,-0.055,-7.7,-15.6,-29.8,0,2018,4,24,22,11,28.305,0.6895,-0.0007,-0.7043,0.1685
-0.105,0.154,-0.052,-9.1,-11.9,-26.8,0,2018,4,24,22,11,28.329,0.6897,-0.0061,-0.7037,0.1703
-0.096,0.179,-0.047,-10.7,-11.6,-22.9,0,2018,4,24,22,11,28.332,0.6901,-0.0108,-0.7028,0.1719
-0.084,0.199,-0.05,-12.5,-14.8,-18.6,0,2018,4,24,22,11,28.35,0.6909,-0.0153,-0.7017,0.1727
-0.071,0.217,-0.049,-14.2,-21.4,-13.5,0,2018,4,24,22,11,28.369,0.692,-0.0198,-0.7006,0.1724
-0.069,0.219,-0.051,-15.9,-28.3,-8.3,0,2018,4,24,22,11,28.392,0.6934,-0.0246,-0.6995,0.1706
-0.064,0.229,-0.048,-18.2,-34.5,-2.7,0,2018,4,24,22,11,28.41,0.6952,-0.0296,-0.6983,0.1674
-0.05,0.235,-0.05,-20.8,-40.6,3,0,2018,4,24,22,11,28.431,0.6974,-0.0348,-0.6971,0.1626
-0.051,0.261,-0.059,-23.1,-46.4,9.4,0,2018,4,24,22,11,28.449,0.6999,-0.04,-0.6956,0.1563
-0.036,0.247,-0.069,-24.7,-50.8,16.3,0,2018,4,24,22,11,28.466,0.7028,-0.045,-0.6941,0.1486
-0.01,0.22,-0.057,-25.7,-52.8,23,0,2018,4,24,22,11,28.49,0.706,-0.0496,-0.6925,0.1396
0.015,0.19,-0.048,-26.9,-53.7,29.1,0,2018,4,24,22,11,28.525,0.7093,-0.0536,-0.6907,0.1297
0.058,0.163,-0.054,-28.1,-55,34.2,0,2018,4,24,22,11,28.548,0.7128,-0.0572,-0.6888,0.1189
0.042,0.138,-0.071,-27.6,-54.4,38.6,0,2018,4,24,22,11,28.553,0.7163,-0.0602,-0.6867,0.1075
0.038,0.12,-0.063,-25.9,-53.3,42.2,0,2018,4,24,22,11,28.568,0.7195,-0.0621,-0.685,0.0952
0.031,0.088,-0.066,-24.1,-51.9,44,0,2018,4,24,22,11,28.592,0.7222,-0.0633,-0.6837,0.0825
0.045,0.057,-0.07,-21.2,-49.1,44.4,0,2018,4,24,22,11,28.627,0.7245,-0.0642,-0.6825,0.0701
0.062,0.041,-0.071,-17.4,-45.9,42.8,0,2018,4,24,22,11,28.651,0.7264,-0.065,-0.6816,0.0583
0.069,0.021,-0.063,-13,-41.9,39.5,0,2018,4,24,22,11,28.655,0.7276,-0.0657,-0.6811,0.0475
0.082,0.004,-0.055,-8.1,-36.6,34.7,0,2018,4,24,22,11,28.669,0.7283,-0.0664,-0.6809,0.038
0.094,-0.014,-0.04,-3.4,-29.2,28.9,0,2018,4,24,22,11,28.706,0.7284,-0.067,-0.6811,0.0301
0.103,-0.028,-0.021,0.4,-19.7,22.1,0,2018,4,24,22,11,28.73,0.7282,-0.0674,-0.6815,0.0242
0.115,-0.034,-0.008,3.2,-9.9,14.9,0,2018,4,24,22,11,28.734,0.7278,-0.0675,-0.682,0.0205
0.118,-0.019,0.009,4.6,-2.3,7.8,0,2018,4,24,22,11,28.752,0.7274,-0.0672,-0.6826,0.0188
0.125,-0.013,0.021,4.3,1.5,1.6,0,2018,4,24,22,11,28.769,0.727,-0.0668,-0.683,0.0186
0.137,-0.001,0.034,2.9,2.5,-3.9,0,2018,4,24,22,11,28.792,0.7269,-0.0669,-0.6831,0.0193
0.161,0.012,0.051,0.4,0,-8.5,0,2018,4,24,22,11,28.81,0.7271,-0.0675,-0.6828,0.0204
0.191,0.021,0.069,-2.4,-4.2,-11,0,2018,4,24,22,11,28.834,0.7278,-0.069,-0.6819,0.0214
0.218,0.016,0.086,-6.2,-7.6,-11.3,0,2018,4,24,22,11,28.847,0.729,-0.0712,-0.6803,0.0222
0.262,0.012,0.093,-9.8,-9.6,-9.4,1023,2018,4,24,22,11,28.871,0.7308,-0.0737,-0.6782,0.0226
0.292,0.003,0.102,-12,-10.3,-5,1023,2018,4,24,22,11,28.889,0.732,-0.0759,-0.6766,0.0221
0.304,-0.02,0.087,-13.5,-7.9,1.6,1023,2018,4,24,22,11,28.912,0.7333,-0.0773,-0.675,0.0211
0.301,-0.025,0.075,-13.9,-4.5,10.2,1023,2018,4,24,22,11,28.93,0.7349,-0.0774,-0.6733,0.0194
0.258,-0.048,0.059,-14.2,-1.3,19.5,1023,2018,4,24,22,11,28.953,0.7366,-0.0761,-0.6718,0.0169
0.202,-0.045,0.044,-15.3,1.4,29.2,1023,2018,4,24,22,11,28.971,0.7387,-0.0735,-0.6697,0.0139
0.163,-0.055,0.023,-15.6,0.8,36.9,1023,2018,4,24,22,11,28.994,0.741,-0.0701,-0.6676,0.0102
0.121,-0.074,0.016,-14.5,-0.3,41.9,1023,2018,4,24,22,11,29.012,0.7431,-0.0661,-0.6658,0.0055
0.081,-0.102,0.015,-13.3,-0.2,43.2,1023,2018,4,24,22,11,29.035,0.7449,-0.0619,-0.6642,0.0004
0.039,-0.14,0.015,-12.2,2.1,40.2,1023,2018,4,24,22,11,29.053,0.7465,-0.0579,-0.6627,-0.0041
-0.012,-0.179,0.015,-12,9.7,33.7,1023,2018,4,24,22,11,29.076,0.7481,-0.054,-0.6613,-0.0075
-0.076,-0.211,0.007,-13.9,22,23.7,1023,2018,4,24,22,11,29.092,0.7497,-0.0485,-0.6599,-0.0095
-0.126,-0.204,-0.02,-15.6,33.5,9.4,0,2018,4,24,22,11,29.115,0.7516,-0.0429,-0.6581,-0.0084
-0.159,-0.183,-0.031,-17.4,39.9,-7.2,0,2018,4,24,22,11,29.133,0.7537,-0.0379,-0.656,-0.0044
-0.171,-0.155,-0.049,-19.1,42.6,-25.5,0,2018,4,24,22,11,29.156,0.7561,-0.0342,-0.6534,0.0024
-0.17,-0.104,-0.051,-20.4,37.4,-44.2,0,2018,4,24,22,11,29.174,0.7582,-0.0335,-0.6509,0.0121
-0.148,-0.056,-0.039,-21.2,24.4,-61,0,2018,4,24,22,11,29.192,0.7602,-0.0359,-0.6481,0.0229
-0.127,-0.019,-0.032,-21,8.5,-74.3,0,2018,4,24,22,11,29.214,0.7621,-0.0418,-0.6452,0.0338
-0.109,0,-0.038,-20.5,-6.2,-83.2,0,2018,4,24,22,11,29.252,0.7636,-0.0507,-0.6421,0.0442
-0.084,0.023,-0.046,-20.3,-16,-87.8,0,2018,4,24,22,11,29.276,0.7646,-0.0619,-0.6391,0.054
-0.052,0.047,-0.054,-19.9,-19.7,-88.8,0,2018,4,24,22,11,29.28,0.7654,-0.0741,-0.636,0.0632
-0.024,0.066,-0.065,-19.3,-18.6,-86.7,0,2018,4,24,22,11,29.297,0.7659,-0.0863,-0.6329,0.0721
0.004,0.09,-0.076,-18.4,-14.6,-82.2,0,2018,4,24,22,11,29.314,0.7662,-0.0976,-0.6299,0.0807
0.024,0.119,-0.081,-17.5,-9.8,-76.1,0,2018,4,24,22,11,29.338,0.7664,-0.1075,-0.6269,0.089
0.035,0.147,-0.083,-15.9,-5.1,-68.3,0,2018,4,24,22,11,29.355,0.7668,-0.1164,-0.6236,0.0973
0.033,0.176,-0.089,-14.3,-1.6,-59.4,0,2018,4,24,22,11,29.378,0.7672,-0.124,-0.6203,0.1051
0.026,0.203,-0.093,-12.2,-0.1,-49.3,0,2018,4,24,22,11,29.396,0.7676,-0.1302,-0.6173,0.112
0.016,0.219,-0.101,-10.1,-0.3,-38.2,0,2018,4,24,22,11,29.415,0.768,-0.1351,-0.6148,0.1176
0.009,0.232,-0.107,-7.3,-1.2,-26.6,0,2018,4,24,22,11,29.452,0.7682,-0.1389,-0.6129,0.1216
-0.002,0.235,-0.108,-4,-2.2,-14.6,0,2018,4,24,22,11,29.474,0.7683,-0.1414,-0.6117,0.124
-0.017,0.23,-0.099,-0.6,-2.2,-3,0,2018,4,24,22,11,29.478,0.7683,-0.1426,-0.6112,0.1249
-0.035,0.222,-0.097,2.4,-1.4,8.1,0,2018,4,24,22,11,29.497,0.7682,-0.1426,-0.6114,0.1243
-0.044,0.213,-0.091,5.7,0.3,18.4,0,2018,4,24,22,11,29.535,0.7681,-0.1411,-0.6124,0.1225
-0.052,0.2,-0.086,9,2.7,27.2,0,2018,4,24,22,11,29.535,0.7678,-0.1382,-0.6139,0.1198
-0.056,0.18,-0.065,12,6.2,34.4,0,2018,4,24,22,11,29.556,0.7674,-0.134,-0.616,0.1163
-0.048,0.162,-0.053,14.4,10.3,39.6,0,2018,4,24,22,11,29.573,0.7669,-0.1286,-0.6185,0.1125
-0.048,0.144,-0.031,16.1,14.1,42.8,0,2018,4,24,22,11,29.611,0.7663,-0.1222,-0.6212,0.1086
-0.046,0.129,-0.016,17,17.9,44.8,0,2018,4,24,22,11,29.635,0.7656,-0.1142,-0.6243,0.1042
-0.046,0.115,-0.005,16.9,19.9,45.8,0,2018,4,24,22,11,29.639,0.765,-0.1054,-0.6274,0.0998
-0.045,0.099,0.008,16.4,19.6,46.2,0,2018,4,24,22,11,29.655,0.7644,-0.0965,-0.6302,0.0954
-0.044,0.087,0.015,15.5,16.8,46.3,0,2018,4,24,22,11,29.679,0.7638,-0.0879,-0.6328,0.0909
-0.039,0.073,0.023,13.9,11.5,45.8,0,2018,4,24,22,11,29.694,0.7633,-0.08,-0.6352,0.0859
-0.028,0.06,0.032,12.5,4.4,45,0,2018,4,24,22,11,29.717,0.7628,-0.0731,-0.6374,0.0805
-0.02,0.043,0.038,10.7,-3.9,43.8,1023,2018,4,24,22,11,29.735,0.7623,-0.0676,-0.6392,0.0744
-0.018,0.021,0.037,8.7,-12.8,42.6,1023,2018,4,24,22,11,29.759,0.7619,-0.0635,-0.6409,0.0677
-0.02,-0.002,0.044,6.8,-20,41.7,1023,2018,4,24,22,11,29.795,0.7616,-0.0608,-0.6422,0.0602
-0.022,-0.024,0.046,4.7,-25.5,41,1023,2018,4,24,22,11,29.818,0.7614,-0.0592,-0.6433,0.0523
-0.026,-0.049,0.044,2.9,-28.9,40,1023,2018,4,24,22,11,29.823,0.7613,-0.0585,-0.6442,0.044
-0.024,-0.066,0.045,0.9,-31.4,38.7,1023,2018,4,24,22,11,29.837,0.7613,-0.0585,-0.6447,0.0358
-0.021,-0.084,0.043,-0.5,-32.2,36.9,1023,2018,4,24,22,11,29.873,0.7614,-0.0589,-0.6449,0.0276
-0.015,-0.098,0.031,-1.5,-32,34.6,1023,2018,4,24,22,11,29.896,0.7615,-0.0598,-0.645,0.0197
-0.009,-0.111,0.031,-2.4,-31.4,31.4,1023,2018,4,24,22,11,29.901,0.7617,-0.0611,-0.6449,0.0124
-0.005,-0.12,0.025,-3.1,-30.1,27.8,1023,2018,4,24,22,11,29.918,0.7618,-0.0627,-0.6446,0.0057
0.002,-0.13,0.02,-3.3,-28,23.9,1023,2018,4,24,22,11,29.957,0.762,-0.0646,-0.6442,-0.0002
0.004,-0.137,0.02,-3.5,-25,19.8,1023,2018,4,24,22,11,29.957,0.7622,-0.0666,-0.6437,-0.0053
0.007,-0.146,0.014,-3.5,-20.9,15.8,0,2018,4,24,22,11,29.98,0.7625,-0.0687,-0.6432,-0.0093
0.007,-0.148,0.011,-3.3,-16.2,12.1,0,2018,4,24,22,11,29.998,0.7627,-0.0707,-0.6427,-0.0124
0.008,-0.15,0.007,-3.3,-10.9,8.5,0,2018,4,24,22,11,30.021,0.7629,-0.0725,-0.6421,-0.0144
0.008,-0.146,0.007,-3,-5.8,4.9,0,2018,4,24,22,11,30.058,0.7632,-0.0739,-0.6416,-0.0153
0.008,-0.143,0.003,-3,-0.6,1,0,2018,4,24,22,11,30.077,0.7636,-0.0751,-0.6411,-0.0151
0.016,-0.128,0.001,-2.9,3.2,-3.3,0,2018,4,24,22,11,30.083,0.764,-0.076,-0.6405,-0.014
0.021,-0.116,0.001,-2.9,5.2,-8.3,0,2018,4,24,22,11,30.099,0.7644,-0.077,-0.6399,-0.0119
0.018,-0.097,-0.006,-3,5.6,-13.3,0,2018,4,24,22,11,30.119,0.7648,-0.0783,-0.6393,-0.0092
0.014,-0.08,0.005,-3.1,4.5,-18.6,0,2018,4,24,22,11,30.138,0.7652,-0.0801,-0.6386,-0.0059
0.006,-0.048,0.007,-4.4,0.5,-23.1,0,2018,4,24,22,11,30.162,0.7658,-0.0825,-0.6376,-0.0024
-0.004,-0.013,0.006,-6.3,-7.8,-26.8,0,2018,4,24,22,11,30.18,0.7665,-0.086,-0.6364,0.0006
0.003,0.007,-0.008,-7.3,-20.2,-30,0,2018,4,24,22,11,30.202,0.767,-0.0911,-0.635,0.0027
0,0.005,-0.015,-6.6,-30.5,-32,0,2018,4,24,22,11,30.22,0.7672,-0.098,-0.6337,0.0038
-0.006,-0.011,-0.01,-5.5,-32.4,-33,0,2018,4,24,22,11,30.242,0.7672,-0.1059,-0.6324,0.0045
-0.013,-0.02,-0.009,-4.2,-25.6,-33.2,0,2018,4,24,22,11,30.278,0.7671,-0.1137,-0.6312,0.0057
-0.019,-0.018,-0.018,-2.5,-12.6,-32.5,0,2018,4,24,22,11,30.301,0.7669,-0.12,-0.6303,0.008
-0.017,0.001,-0.02,-0.8,2.8,-31.3,0,2018,4,24,22,11,30.306,0.7668,-0.1242,-0.6295,0.0118
-0.017,0.023,-0.025,1,15.8,-30,0,2018,4,24,22,11,30.32,0.7668,-0.1262,-0.6291,0.0169
-0.019,0.051,-0.02,2.4,25.5,-28.7,0,2018,4,24,22,11,30.339,0.7668,-0.1262,-0.6288,0.0229
-0.022,0.075,-0.014,3,30.7,-27,0,2018,4,24,22,11,30.36,0.7669,-0.125,-0.6287,0.0294
-0.018,0.091,-0.014,2.9,32.2,-24.8,0,2018,4,24,22,11,30.398,0.7671,-0.1229,-0.6285,0.0359
-0.007,0.112,-0.018,3.2,29.9,-21.9,0,2018,4,24,22,11,30.421,0.7672,-0.1205,-0.6285,0.0419
-0.003,0.118,-0.011,3.1,25.5,-18.9,0,2018,4,24,22,11,30.426,0.7673,-0.1181,-0.6285,0.047
-0.002,0.12,0.004,3.2,20.3,-15.5,0,2018,4,24,22,11,30.442,0.7673,-0.116,-0.6285,0.0511
0,0.126,0,2.6,14.3,-12.1,0,2018,4,24,22,11,30.46,0.7673,-0.1142,-0.6286,0.0541
0.005,0.126,-0.005,2.2,8.2,-8.5,0,2018,4,24,22,11,30.483,0.7672,-0.1129,-0.6287,0.056
0.004,0.121,-0.006,2.1,3.1,-5.3,0,2018,4,24,22,11,30.506,0.7671,-0.1119,-0.629,0.0568
0.002,0.112,-0.011,1.9,-0.1,-2.4,0,2018,4,24,22,11,30.523,0.7668,-0.1113,-0.6294,0.0567
0.001,0.102,-0.014,1.8,-1.6,0.3,0,2018,4,24,22,11,30.54,0.7666,-0.1107,-0.6299,0.056
0,0.091,-0.016,2.2,-0.8,3,0,2018,4,24,22,11,30.563,0.7664,-0.11,-0.6304,0.0551
-0.001,0.084,-0.015,2.7,0.5,5.8,0,2018,4,24,22,11,30.581,0.7661,-0.1088,-0.631,0.0539
-0.007,0.078,-0.014,3.3,2.1,8.3,1023,2018,4,24,22,11,30.602,0.7658,-0.1072,-0.6318,0.0527
-0.008,0.075,-0.018,3.8,3.3,11,1023,2018,4,24,22,11,30.639,0.7655,-0.1052,-0.6326,0.0513
-0.005,0.062,-0.013,4.3,3.9,13.5,1023,2018,4,24,22,11,30.66,0.7651,-0.1028,-0.6335,0.0496
0,0.057,-0.008,4.4,3.7,15.8,1023,2018,4,24,22,11,30.664,0.7648,-0.1002,-0.6345,0.0478
0.003,0.043,-0.011,4.6,2.7,17.6,1023,2018,4,24,22,11,30.7,0.7645,-0.0975,-0.6355,0.0456
0.003,0.034,-0.012,4.7,1.8,19.1,1023,2018,4,24,22,11,30.723,0.7641,-0.0948,-0.6365,0.0433
0.004,0.024,-0.006,4.9,1.2,20.2,1023,2018,4,24,22,11,30.727,0.7633,-0.092,-0.638,0.0406
0.003,0.007,-0.007,5.2,1.8,20.8,1023,2018,4,24,22,11,30.745,0.7614,-0.089,-0.641,0.0375
0,-0.003,-0.005,5.2,2.6,21,1023,2018,4,24,22,11,30.764,0.7594,-0.0861,-0.6439,0.0346
0,-0.009,-0.007,5.2,3.5,20.7,1023,2018,4,24,22,11,30.787,0.7576,-0.0831,-0.6465,0.0319
-0.001,-0.018,-0.002,4.7,4,20.2,1023,2018,4,24,22,11,30.804,0.756,-0.0802,-0.6489,0.0295
-0.007,-0.026,-0.003,4.4,3.3,18.9,0,2018,4,24,22,11,30.84,0.7545,-0.0774,-0.651,0.0272
-0.008,-0.03,0,3.8,2.2,17.5,0,2018,4,24,22,11,30.86,0.753,-0.0749,-0.6531,0.0251
-0.011,-0.04,0.004,3.3,0.8,15.8,0,2018,4,24,22,11,30.866,0.7516,-0.073,-0.6551,0.0231
-0.007,-0.046,0.006,2.9,-0.4,13.6,0,2018,4,24,22,11,30.901,0.7504,-0.0714,-0.6566,0.0213
-0.003,-0.053,0.001,2.4,-1.4,10.8,0,2018,4,24,22,11,30.925,0.7492,-0.0703,-0.6581,0.0197
-0.001,-0.056,0.01,1.8,-2,8,0,2018,4,24,22,11,30.929,0.7481,-0.0698,-0.6595,0.0185
0,-0.058,0.008,1.3,-2.7,5.1,0,2018,4,24,22,11,30.948,0.7473,-0.0696,-0.6605,0.0176
-0.002,-0.057,0.011,0.7,-3,1.9,0,2018,4,24,22,11,30.966,0.7465,-0.0698,-0.6614,0.017
0,-0.055,0.005,0.4,-2.8,-0.7,0,2018,4,24,22,11,30.989,0.7456,-0.0704,-0.6623,0.0167
0,-0.054,0.004,0.1,-2.4,-2.9,0,2018,4,24,22,11,31.005,0.7448,-0.0714,-0.6631,0.0169
0.001,-0.05,0.005,-0.2,-1.2,-4.6,0,2018,4,24,22,11,31.023,0.7441,-0.0723,-0.6638,0.0174
-0.004,-0.046,0.006,-0.5,0.4,-5.7,0,2018,4,24,22,11,31.046,0.7436,-0.0732,-0.6642,0.0182
-0.008,-0.041,0.005,-0.9,2.1,-7,0,2018,4,24,22,11,31.064,0.7431,-0.0739,-0.6647,0.0192
-0.004,-0.033,-0.003,-1.1,3.2,-7.9,0,2018,4,24,22,11,31.087,0.7427,-0.0745,-0.6651,0.0205
-0.006,-0.021,-0.001,-1.3,4.2,-9,0,2018,4,24,22,11,31.105,0.7423,-0.0749,-0.6654,0.0219
-0.005,-0.015,0,-1.5,4.4,-10.1,0,2018,4,24,22,11,31.129,0.7418,-0.0754,-0.6659,0.0235
-0.005,-0.007,0.002,-1.5,4.6,-11.3,0,2018,4,24,22,11,31.147,0.7414,-0.0759,-0.6661,0.0253
-0.003,-0.001,-0.001,-1.9,4.5,-12.2,0,2018,4,24,22,11,31.166,0.7411,-0.0765,-0.6663,0.0271
-0.002,0.008,-0.006,-2,4.1,-13.2,0,2018,4,24,22,11,31.189,0.7409,-0.0771,-0.6664,0.0289
-0.004,0.015,-0.009,-2.1,3.9,-13.8,0,2018,4,24,22,11,31.207,0.7408,-0.0779,-0.6664,0.0308
-0.004,0.019,-0.014,-2.1,3.4,-14.1,0,2018,4,24,22,11,31.228,0.7405,-0.0787,-0.6665,0.0327
-0.007,0.03,-0.014,-2,2.8,-14.3,0,2018,4,24,22,11,31.243,0.7403,-0.0797,-0.6665,0.0346
-0.008,0.036,-0.022,-1.7,1.6,-14,0,2018,4,24,22,11,31.284,0.7399,-0.0806,-0.6668,0.0361
-0.003,0.04,-0.023,-1.1,0.8,-13.5,0,2018,4,24,22,11,31.284,0.7396,-0.0816,-0.6669,0.0375
-0.002,0.038,-0.018,-0.6,1.3,-12.3,0,2018,4,24,22,11,31.308,0.7392,-0.0824,-0.6672,0.0388
0,0.044,-0.012,-0.2,2.4,-10.7,0,2018,4,24,22,11,31.345,0.7387,-0.083,-0.6676,0.0399
0.001,0.047,-0.018,0.2,3.8,-9.1,0,2018,4,24,22,11,31.369,0.7384,-0.0832,-0.6679,0.041
0.001,0.053,-0.024,0.8,4.6,-7.2,0,2018,4,24,22,11,31.372,0.738,-0.083,-0.6683,0.042
0.004,0.056,-0.021,1.1,5.1,-5.4,0,2018,4,24,22,11,31.39,0.7374,-0.0825,-0.6689,0.0429
0.008,0.059,-0.01,1.6,5,-3.5,1023,2018,4,24,22,11,31.407,0.737,-0.0818,-0.6694,0.0434
0.011,0.06,-0.014,1.9,4.2,-1.3,1023,2018,4,24,22,11,31.431,0.7367,-0.0808,-0.6698,0.0438
0.009,0.056,-0.011,2.1,2.9,0.5,1023,2018,4,24,22,11,31.451,0.7363,-0.0797,-0.6704,0.0437
0.007,0.053,-0.007,2.3,1.7,2.5,1023,2018,4,24,22,11,31.467,0.7358,-0.0787,-0.6711,0.0432
0.003,0.047,-0.01,2.4,0.9,4.2,1023,2018,4,24,22,11,31.485,0.7354,-0.0776,-0.6717,0.0425
0.001,0.037,-0.004,2.5,0.5,6,1023,2018,4,24,22,11,31.509,0.735,-0.0764,-0.6724,0.0415
0,0.034,-0.004,2.6,0.2,7.6,1023,2018,4,24,22,11,31.527,0.7345,-0.075,-0.6731,0.0403
0,0.026,-0.001,2.9,0,8.9,1023,2018,4,24,22,11,31.55,0.7341,-0.0736,-0.6738,0.0389
0,0.019,0,2.9,-0.3,10,1023,2018,4,24,22,11,31.569,0.7339,-0.0722,-0.6743,0.0375
0.004,0.008,0.002,3,0,10.5,1023,2018,4,24,22,11,31.591,0.7336,-0.0709,-0.6748,0.036
0.002,0.006,0.007,2.9,0.8,10.9,0,2018,4,24,22,11,31.609,0.7333,-0.0694,-0.6754,0.0346
0,0,0.009,2.4,1,10.9,0,2018,4,24,22,11,31.63,0.7332,-0.0679,-0.6757,0.0333
0,-0.003,0.011,1.8,0.5,10.3,0,2018,4,24,22,11,31.667,0.7332,-0.0665,-0.6758,0.0321
-0.002,-0.005,0.015,1.4,-0.3,10.1,0,2018,4,24,22,11,31.69,0.7333,-0.0652,-0.6759,0.0308
0,-0.013,0.012,0.9,-1.6,9.4,0,2018,4,24,22,11,31.694,0.7334,-0.0643,-0.676,0.0296
-0.002,-0.013,0.011,0.2,-2.8,8.5,0,2018,4,24,22,11,31.712,0.7336,-0.0636,-0.6759,0.0283
-0.004,-0.021,0.008,-0.2,-3.4,7.4,0,2018,4,24,22,11,31.731,0.7337,-0.0632,-0.6759,0.0271
-0.001,-0.023,0.008,-0.6,-4.1,6,0,2018,4,24,22,11,31.75,0.7336,-0.063,-0.676,0.0259
0,-0.028,0.008,-0.9,-4.1,4.7,0,2018,4,24,22,11,31.787,0.7338,-0.0631,-0.6759,0.0249
-0.002,-0.03,0.011,-1.1,-3.9,3.5,0,2018,4,24,22,11,31.81,0.734,-0.0635,-0.6757,0.0242
0.002,-0.031,0.007,-1.4,-3.4,2.5,0,2018,4,24,22,11,31.815,0.7341,-0.0639,-0.6755,0.0237
0.002,-0.03,-0.002,-1.4,-3.1,1.4,0,2018,4,24,22,11,31.829,0.7342,-0.0643,-0.6754,0.0232
0.006,-0.032,0.003,-1.5,-3,0.5,0,2018,4,24,22,11,31.852,0.7344,-0.0648,-0.6751,0.023
0.005,-0.028,-0.003,-1.7,-2.2,-0.2,0,2018,4,24,22,11,31.869,0.7346,-0.0653,-0.6748,0.0228
0.006,-0.025,-0.002,-1.6,-1.4,-1.2,0,2018,4,24,22,11,31.892,0.7346,-0.0659,-0.6747,0.0229
0.005,-0.023,-0.002,-1.5,-1.1,-2,0,2018,4,24,22,11,31.911,0.7347,-0.0665,-0.6746,0.0231
0.004,-0.018,-0.004,-1.2,-0.9,-2.7,0,2018,4,24,22,11,31.932,0.7346,-0.0671,-0.6746,0.0234
0.003,-0.012,-0.008,-1.2,-0.9,-3.5,0,2018,4,24,22,11,31.948,0.7345,-0.0676,-0.6747,0.0237
0.003,-0.009,-0.004,-0.8,-0.9,-4.2,0,2018,4,24,22,11,31.971,0.7347,-0.0683,-0.6744,0.0242
0.003,-0.009,-0.002,-0.5,-0.6,-4.9,0,2018,4,24,22,11,31.99,0.7346,-0.069,-0.6744,0.0247
0,-0.007,-0.007,-0.2,0,-5.6,0,2018,4,24,22,11,32.013,0.7345,-0.0697,-0.6744,0.0254
-0.001,-0.003,-0.005,0,0.7,-5.8,0,2018,4,24,22,11,32.049,0.7345,-0.0704,-0.6744,0.0263
0.003,0.003,-0.001,0.1,1.3,-6,0,2018,4,24,22,11,32.072,0.7344,-0.0709,-0.6744,0.0271
0.004,0.01,-0.002,0.3,1.5,-6.3,0,2018,4,24,22,11,32.077,0.7343,-0.0714,-0.6744,0.028
0.005,0.014,0.001,0.3,1.3,-6,0,2018,4,24,22,11,32.095,0.7341,-0.0718,-0.6745,0.0288
0.007,0.018,0.002,0.4,0.8,-5.8,0,2018,4,24,22,11,32.131,0.7341,-0.0721,-0.6745,0.0296
0.003,0.02,0,0.7,0.4,-5.2,0,2018,4,24,22,11,32.155,0.734,-0.0725,-0.6745,0.0302
0.006,0.021,0.002,1,0.5,-4.6,0,2018,4,24,22,11,32.158,0.7338,-0.0728,-0.6747,0.0306
0.004,0.02,0.004,1.3,1,-3.6,0,2018,4,24,22,11,32.173,0.7336,-0.0729,-0.6749,0.031
0.004,0.024,0,1.3,1.4,-2.5,1023,2018,4,24,22,11,32.191,0.7335,-0.0728,-0.675,0.0314
0.003,0.026,0.002,1.5,1.7,-1.6,1023,2018,4,24,22,11,32.214,0.7333,-0.0726,-0.6752,0.0316
0.006,0.027,0,1.5,2.2,-0.5,1023,2018,4,24,22,11,32.231,0.7329,-0.0721,-0.6756,0.0317
0.01,0.025,0.006,1.4,2.1,0.3,1023,2018,4,24,22,11,32.254,0.7329,-0.0717,-0.6757,0.0319
0.01,0.023,0.011,1.4,1.5,1.1,1023,2018,4,24,22,11,32.272,0.7329,-0.0711,-0.6757,0.0318
0.008,0.019,0.004,1.2,0.6,1.8,1023,2018,4,24,22,11,32.295,0.733,-0.0706,-0.6757,0.0317
0.007,0.018,-0.001,0.9,0,2.2,1023,2018,4,24,22,11,32.331,0.733,-0.0702,-0.6757,0.0313
0,0.014,-0.002,0.7,-0.3,2.6,1023,2018,4,24,22,11,32.355,0.7327,-0.0698,-0.6761,0.0308
0,0.011,-0.002,0.5,-0.5,3.1,1023,2018,4,24,22,11,32.359,0.7328,-0.0693,-0.6762,0.0303
-0.002,0.007,0,0.7,-1.4,3.8,1023,2018,4,24,22,11,32.393,0.7328,-0.069,-0.6762,0.0297
-0.001,0.003,-0.007,0.8,-2.3,4,1023,2018,4,24,22,11,32.417,0.7328,-0.0687,-0.6762,0.029
-0.006,-0.003,-0.009,1,-2.4,4.1,1023,2018,4,24,22,11,32.421,0.7327,-0.0685,-0.6765,0.0281
0.001,-0.007,-0.003,1.5,-1.7,4.3,0,2018,4,24,22,11,32.435,0.7324,-0.0684,-0.6768,0.0274
0.001,-0.01,-0.005,1.8,-0.8,4,0,2018,4,24,22,11,32.452,0.7321,-0.068,-0.6771,0.0268
0.004,-0.009,0.002,2.1,0.1,3.7,0,2018,4,24,22,11,32.474,0.7319,-0.0678,-0.6774,0.0265
0.004,-0.009,0.001,2.1,0.2,3.3,0,2018,4,24,22,11,32.492,0.7318,-0.0674,-0.6776,0.0261
0.006,-0.01,0.008,2.4,0.4,3.1,0,2018,4,24,22,11,32.516,0.7316,-0.067,-0.6778,0.0259
0.005,-0.013,0.008,2.4,0.7,3,0,2018,4,24,22,11,32.535,0.7315,-0.0666,-0.6779,0.0257
0.005,-0.011,0.009,1.8,0.5,2.8,0,2018,4,24,22,11,32.558,0.7315,-0.0663,-0.6781,0.0256
0.001,-0.012,0.009,1.8,0.1,2.5,0,2018,4,24,22,11,32.575,0.7314,-0.0661,-0.6782,0.0254
0,-0.014,0.011,1.5,-0.6,2.1,0,2018,4,24,22,11,32.597,0.7314,-0.066,-0.6781,0.0253
-0.005,-0.017,0.007,1.4,-1.1,1.3,0,2018,4,24,22,11,32.633,0.7314,-0.0661,-0.6781,0.0251
-0.004,-0.017,0.013,1.3,-0.3,0.8,0,2018,4,24,22,11,32.654,0.7314,-0.0661,-0.6782,0.025
-0.001,-0.018,0.005,1.3,0.4,0.3,0,2018,4,24,22,11,32.657,0.7311,-0.066,-0.6785,0.025
-0.001,-0.016,0.008,1.2,1.1,0,0,2018,4,24,22,11,32.693,0.731,-0.066,-0.6786,0.0253
0.002,-0.01,0.007,1.3,1.7,-0.5,0,2018,4,24,22,11,32.714,0.731,-0.0659,-0.6786,0.0256
0.003,-0.004,0.001,1.3,1.8,-1,0,2018,4,24,22,11,32.717,0.7309,-0.0659,-0.6787,0.0261
0.006,-0.002,0.004,1.5,1.9,-1.5,0,2018,4,24,22,11,32.754,0.731,-0.0658,-0.6785,0.0266
0.007,-0.001,0.001,1.8,1.8,-1.6,0,2018,4,24,22,11,32.796,0.7309,-0.0657,-0.6787,0.027
0.004,0,-0.001,2.4,1.9,-1.4,0,2018,4,24,22,11,32.799,0.7307,-0.0656,-0.6789,0.0274
0.009,0,0,2.7,2.7,-1,0,2018,4,24,22,11,32.8,0.7305,-0.0654,-0.679,0.0279
0.005,0.003,-0.002,3.2,4,-0.4,0,2018,4,24,22,11,32.817,0.7303,-0.0651,-0.6793,0.0285
0.004,0.004,-0.002,3.5,5.1,0.1,0,2018,4,24,22,11,32.838,0.7301,-0.0645,-0.6796,0.0291
0.001,0.011,-0.002,3.7,5.3,0.6,0,2018,4,24,22,11,32.854,0.7298,-0.0637,-0.68,0.0297
0.005,0.011,0.001,4.1,4.8,1,0,2018,4,24,22,11,32.875,0.7295,-0.0628,-0.6803,0.0302
0.003,0.011,0,4.4,4.2,1.6,0,2018,4,24,22,11,32.908,0.7291,-0.0619,-0.6809,0.0305
0.004,0.008,0,4.4,3.8,2.2,0,2018,4,24,22,11,32.929,0.7287,-0.061,-0.6813,0.0307
0.005,0.009,0,4.7,3.8,2.7,0,2018,4,24,22,11,32.935,0.7283,-0.0601,-0.6818,0.0308
0,0.012,-0.001,4.9,3.5,3,0,2018,4,24,22,11,32.97,0.7278,-0.0592,-0.6824,0.0309
0,0.011,0.001,5.1,3.5,3.3,0,2018,4,24,22,11,32.992,0.7273,-0.0582,-0.6831,0.0309
-0.001,0.01,0.001,5,3.4,3.5,1023,2018,4,24,22,11,32.998,0.7267,-0.0572,-0.6837,0.0308
-0.001,0.006,-0.003,5,3.2,3.6,1023,2018,4,24,22,11,33.035,0.7264,-0.0563,-0.6841,0.0308
0,0.008,0.004,5.1,3.6,3.8,1023,2018,4,24,22,11,33.056,0.726,-0.0552,-0.6846,0.0307
0.005,0.01,0.005,4.9,3.5,3.8,1023,2018,4,24,22,11,33.057,0.7257,-0.0542,-0.6851,0.0307
0.005,0.013,0.003,5,2.9,3.9,1023,2018,4,24,22,11,33.095,0.7253,-0.0533,-0.6855,0.0306
0.006,0.013,0.003,5.1,1.9,4,1023,2018,4,24,22,11,33.116,0.7249,-0.0524,-0.686,0.0305
-0.001,0.011,0.009,5,0.7,4.1,1023,2018,4,24,22,11,33.117,0.7245,-0.0516,-0.6866,0.03
-0.013,0.016,0.008,4.6,-0.2,4,1023,2018,4,24,22,11,33.154,0.7243,-0.0509,-0.6869,0.0295
0.001,0.015,-0.002,4.7,-1.3,3.9,1023,2018,4,24,22,11,33.177,0.724,-0.0505,-0.6872,0.029
0.007,0.002,0.006,5.1,-0.3,4.6,0,2018,4,24,22,11,33.182,0.7237,-0.0501,-0.6876,0.0284
-0.016,0.001,0.026,5.4,3.9,6.1,0,2018,4,24,22,11,33.2,0.7234,-0.0492,-0.688,0.028
-0.034,-0.017,0.058,4.3,13.5,8.6,0,2018,4,24,22,11,33.217,0.7234,-0.0473,-0.6882,0.0282
0.033,-0.009,0.068,1.7,23.8,9.9,0,2018,4,24,22,11,33.241,0.7237,-0.0439,-0.688,0.0295
0.14,0.008,0.056,1.5,29.1,7.9,0,2018,4,24,22,11,33.258,0.7245,-0.0394,-0.6873,0.0318
0.113,0.011,0.079,3.2,31.2,3.8,0,2018,4,24,22,11,33.28,0.7252,-0.0349,-0.6867,0.0348
0.093,0.001,0.087,2.6,33.5,0,0,2018,4,24,22,11,33.317,0.726,-0.0306,-0.6858,0.0387
0.065,0.016,0.083,1.3,37.2,-3.2,0,2018,4,24,22,11,33.339,0.7269,-0.0264,-0.6848,0.0433
0.054,0.026,0.07,-0.7,39,-6.2,0,2018,4,24,22,11,33.344,0.7278,-0.0219,-0.6836,0.0485
0.076,0.044,0.061,-3,37.6,-8.8,0,2018,4,24,22,11,33.359,0.7289,-0.0177,-0.6822,0.0539
0.102,0.049,0.049,-4.9,32.8,-11.9,0,2018,4,24,22,11,33.377,0.73,-0.0142,-0.6806,0.0591
0.102,0.052,0.032,-7.3,27.9,-16.4,0,2018,4,24,22,11,33.401,0.7313,-0.0117,-0.6788,0.0643
0.086,0.047,0,-11.4,27.1,-20.4,0,2018,4,24,22,11,33.438,0.7329,-0.0104,-0.6766,0.0697
0.091,0.039,-0.041,-15.4,32.3,-24.9,0,2018,4,24,22,11,33.462,0.7343,-0.0091,-0.6744,0.0759
0.065,0.067,-0.075,-18.9,36.6,-29.1,0,2018,4,24,22,11,33.465,0.736,-0.0076,-0.6718,0.083
0.043,0.1,-0.117,-22,34.7,-31.9,0,2018,4,24,22,11,33.484,0.7379,-0.0064,-0.6687,0.0908
0.02,0.145,-0.185,-23.3,27.7,-32.2,0,2018,4,24,22,11,33.501,0.74,-0.0066,-0.6652,0.0986
-0.02,0.158,-0.247,-24.2,21.6,-28.1,0,2018,4,24,22,11,33.524,0.7423,-0.0074,-0.6616,0.1053
0.012,0.241,-0.309,-21.9,14.9,-21,0,2018,4,24,22,11,33.542,0.7445,-0.0083,-0.6582,0.1107
0.011,0.229,-0.203,-20.5,0.2,-14.6,0,2018,4,24,22,11,33.566,0.7466,-0.0097,-0.6553,0.1138
0.022,0.253,-0.122,-22.2,-28.1,-9.8,0,2018,4,24,22,11,33.582,0.7488,-0.0133,-0.6527,0.1138
-0.014,0.214,-0.131,-24.1,-50.5,-2.7,0,2018,4,24,22,11,33.6,0.7512,-0.0198,-0.6505,0.1099
-0.012,0.211,-0.216,-23.2,-60,8.6,0,2018,4,24,22,11,33.638,0.7537,-0.0274,-0.6484,0.103
0.026,0.198,-0.276,-14.3,-61.7,21.4,0,2018,4,24,22,11,33.638,0.7558,-0.034,-0.647,0.0939
0.039,0.187,-0.256,-4.2,-53.6,34,0,2018,4,24,22,11,33.66,0.7569,-0.0387,-0.6469,0.0836
0.04,0.23,-0.218,2.7,-43.6,47.6,0,2018,4,24,22,11,33.699,0.7572,-0.0404,-0.6478,0.0727
0.027,0.191,-0.2,11.5,-35,59.1,0,2018,4,24,22,11,33.722,0.7567,-0.0394,-0.6496,0.0612
0.01,0.155,-0.179,19.6,-23,71.1,1023,2018,4,24,22,11,33.726,0.7553,-0.0357,-0.6524,0.0494
0.005,0.142,-0.19,28.4,-10.8,82.8,1023,2018,4,24,22,11,33.741,0.7531,-0.0288,-0.6561,0.0375
-0.014,0.112,-0.17,38.9,-2.9,92.2,1023,2018,4,24,22,11,33.764,0.7496,-0.0194,-0.661,0.0253
-0.03,0.071,-0.123,47.1,8.8,100.4,1023,2018,4,24,22,11,33.801,0.7448,-0.0076,-0.667,0.0131
-0.054,0.031,-0.074,51.5,17.8,106.1,1023,2018,4,24,22,11,33.801,0.7387,0.0065,-0.6739,0.0011
-0.067,-0.024,-0.042,53.5,25.9,108.9,1023,2018,4,24,22,11,33.823,0.7318,0.0218,-0.681,-0.0099
-0.085,-0.049,-0.013,52.9,36.8,110.5,1023,2018,4,24,22,11,33.842,0.7248,0.0382,-0.6875,-0.0198
-0.098,-0.029,0.004,50.1,47.1,110.5,1023,2018,4,24,22,11,33.861,0.7178,0.056,-0.6933,-0.0285
-0.098,-0.007,0,46.1,49.8,109.4,1023,2018,4,24,22,11,33.884,0.7111,0.0747,-0.6981,-0.0363
-0.093,-0.051,0.03,42.7,43.1,105.3,0,2018,4,24,22,11,33.919,0.7046,0.0926,-0.7021,-0.0439
-0.114,-0.067,0.067,37.3,33.2,101.1,0,2018,4,24,22,11,33.943,0.6989,0.1088,-0.7049,-0.052
-0.086,-0.037,0.032,32.4,21,96.7,0,2018,4,24,22,11,33.947,0.6938,0.1234,-0.7068,-0.0609
-0.072,-0.041,0.011,29,-0.3,92.2,0,2018,4,24,22,11,33.965,0.6893,0.1354,-0.708,-0.0713
-0.059,-0.097,-0.012,28.1,-19.5,85.5,0,2018,4,24,22,11,33.988,0.6852,0.1441,-0.7089,-0.0834
-0.075,-0.13,-0.023,27.7,-26.8,77.7,0,2018,4,24,22,11,34.006,0.6814,0.1499,-0.7098,-0.0959
-0.09,-0.12,0.016,25.4,-30.9,68.5,0,2018,4,24,22,11,34.043,0.6781,0.1539,-0.7104,-0.1078
-0.095,-0.143,0.042,23,-27.1,58.1,0,2018,4,24,22,11,34.043,0.6752,0.1568,-0.7108,-0.1188
-0.061,-0.197,-0.078,21.3,-15.6,46.7,0,2018,4,24,22,11,34.066,0.6721,0.1603,-0.7114,-0.1283
-0.15,-0.395,-0.03,12.4,14.6,32.1,0,2018,4,24,22,11,34.082,0.6692,0.1636,-0.7123,-0.1339
-0.101,-0.231,0.094,0.8,58.7,16.7,0,2018,4,24,22,11,34.103,0.6666,0.1708,-0.7134,-0.132
-0.057,-0.193,0.116,-10.1,83,3,0,2018,4,24,22,11,34.139,0.6648,0.1807,-0.7141,-0.1237
-0.021,-0.103,0.047,-17.3,76.2,-8.3,0,2018,4,24,22,11,34.161,0.6644,0.1897,-0.714,-0.1124
-0.011,0.008,0.086,-18.8,54.5,-16.6,0,2018,4,24,22,11,34.166,0.6656,0.1954,-0.7129,-0.1017
-0.029,-0.023,0.124,-23.9,18.4,-26.5,0,2018,4,24,22,11,34.201,0.6679,0.1973,-0.7114,-0.0937
-0.009,-0.133,0.055,-26.2,0.4,-36.2,0,2018,4,24,22,11,34.224,0.6722,0.1938,-0.7091,-0.0879
-0.008,-0.099,0.053,-30.3,-10.1,-46,0,2018,4,24,22,11,34.229,0.677,0.1879,-0.7067,-0.0826
-0.004,-0.073,0.059,-32,-10.9,-54.7,0,2018,4,24,22,11,34.249,0.6827,0.1801,-0.7039,-0.076
-0.052,-0.064,0.063,-35.6,-18.3,-60.6,0,2018,4,24,22,11,34.265,0.6889,0.1707,-0.7009,-0.0695
-0.062,-0.045,0.007,-39.4,-20.8,-66.5,0,2018,4,24,22,11,34.283,0.6954,0.1605,-0.6975,-0.0625
-0.098,0.001,-0.041,-42.3,-32.2,-72.8,0,2018,4,24,22,11,34.305,0.7021,0.1488,-0.694,-0.0557
-0.097,0.019,-0.173,-44.1,-31.4,-78.8,0,2018,4,24,22,11,34.323,0.7087,0.1356,-0.6906,-0.0489
-0.103,0.1,-0.127,-41.7,-31.7,-81.4,0,2018,4,24,22,11,34.346,0.7149,0.1225,-0.687,-0.0415
-0.071,0.048,0.045,-45.1,-22.2,-85.7,0,2018,4,24,22,11,34.364,0.7212,0.1095,-0.6831,-0.0336
-0.067,0.107,0.15,-45.8,-11.1,-86.1,0,2018,4,24,22,11,34.387,0.7275,0.0978,-0.6786,-0.0241
-0.183,-0.028,0.198,-56.1,-29.4,-88.6,0,2018,4,24,22,11,34.405,0.7342,0.0849,-0.6733,-0.015
-0.182,-0.104,0.021,-59,-21.8,-90.1,0,2018,4,24,22,11,34.428,0.7417,0.0709,-0.6668,-0.0052
-0.271,0.045,0.181,-57.3,-26.7,-91.9,1023,2018,4,24,22,11,34.466,0.7491,0.0569,-0.6598,0.0049
-0.26,0.09,0.209,-59.8,-35.7,-87.8,1023,2018,4,24,22,11,34.487,0.7571,0.0424,-0.6516,0.0133
-0.225,0.074,0.227,-61.9,-41.9,-83.9,1023,2018,4,24,22,11,34.492,0.7647,0.0277,-0.6434,0.0205
-0.188,-0.049,0.315,-62.8,-51,-93.1,1023,2018,4,24,22,11,34.508,0.772,0.0112,-0.6348,0.0272
-0.087,-0.11,0.265,-62,-32.7,-101.4,1023,2018,4,24,22,11,34.525,0.7784,-0.0056,-0.6266,0.0358
-0.033,-0.125,0.386,-65.3,-11.2,-103.3,1023,2018,4,24,22,11,34.548,0.7845,-0.0201,-0.6179,0.0473
0.026,-0.187,0.415,-72.1,14.9,-105.6,1023,2018,4,24,22,11,34.566,0.7909,-0.0315,-0.6079,0.0616
0.081,-0.158,0.373,-78.4,38.8,-107,1023,2018,4,24,22,11,34.59,0.7977,-0.0398,-0.5965,0.0788
0.096,-0.049,0.381,-89.9,54.1,-105.5,1023,2018,4,24,22,11,34.609,0.8051,-0.0454,-0.5831,0.098
0.081,-0.149,0.371,-106.1,73.3,-105.5,1023,2018,4,24,22,11,34.645,0.8135,-0.0487,-0.5672,0.1185
0.14,-0.133,0.153,-109.6,85.5,-112.2,1023,2018,4,24,22,11,34.668,0.8223,-0.0503,-0.5489,0.1408
0.136,-0.156,0.058,-109.1,80.2,-123.3,1023,2018,4,24,22,11,34.67,0.8302,-0.0522,-0.5298,0.1648
0.134,-0.107,0.016,-106,77.5,-127.8,1023,2018,4,24,22,11,34.707,0.8368,-0.0557,-0.5105,0.1892
0.147,-0.014,-0.038,-99.4,72.3,-125.5,0,2018,4,24,22,11,34.73,0.8423,-0.0596,-0.4912,0.2136
0.144,0.071,-0.112,-88.4,54.6,-123,0,2018,4,24,22,11,34.734,0.8462,-0.0646,-0.4729,0.2366
0.12,0.1,-0.199,-75.2,32.2,-120.7,0,2018,4,24,22,11,34.753,0.8481,-0.0714,-0.4575,0.257
0.082,0.093,-0.248,-61,13.7,-116.8,0,2018,4,24,22,11,34.768,0.8481,-0.0806,-0.4453,0.2753
0.045,0.06,-0.279,-49.4,12.4,-112.5,0,2018,4,24,22,11,34.787,0.8468,-0.0903,-0.4349,0.2923
0.019,0.054,-0.311,-37,19.6,-108.9,0,2018,4,24,22,11,34.81,0.8445,-0.0986,-0.4259,0.3091
-0.015,0.075,-0.312,-25.6,30.8,-105.8,0,2018,4,24,22,11,34.828,0.8413,-0.1044,-0.418,0.3263
-0.041,0.077,-0.265,-18.1,36.7,-102.8,0,2018,4,24,22,11,34.848,0.8374,-0.1081,-0.4109,0.3437
-0.086,0.063,-0.214,-13.4,34.6,-100.8,0,2018,4,24,22,11,34.886,0.8329,-0.1111,-0.4045,0.3608
-0.1,0.083,-0.198,-8.9,28.7,-96.8,0,2018,4,24,22,11,34.909,0.8279,-0.1141,-0.3988,0.3772
-0.102,0.087,-0.197,-4.4,19.9,-91,0,2018,4,24,22,11,34.914,0.8226,-0.1176,-0.3944,0.3922
-0.098,0.085,-0.214,-0.3,11,-86,0,2018,4,24,22,11,34.93,0.8169,-0.1216,-0.3911,0.4059
-0.107,0.05,-0.243,2.5,3.7,-82.6,0,2018,4,24,22,11,34.953,0.8109,-0.1262,-0.3889,0.4183
-0.105,0.033,-0.307,7.8,-1.9,-81.7,0,2018,4,24,22,11,34.971,0.8045,-0.1313,-0.3877,0.4301
-0.103,0.039,-0.314,13.3,-10.3,-81.1,0,2018,4,24,22,11,34.994,0.7975,-0.1368,-0.3878,0.4413
-0.1,-0.003,-0.313,17.9,-17.6,-81,0,2018,4,24,22,11,35.01,0.7897,-0.1431,-0.3892,0.4519
-0.121,-0.063,-0.324,21.4,-22.5,-82.1,0,2018,4,24,22,11,35.028,0.7813,-0.1498,-0.3914,0.4622
-0.091,-0.009,-0.392,27.5,-26,-82.3,0,2018,4,24,22,11,35.049,0.7722,-0.1569,-0.3946,0.4724
-0.113,-0.108,-0.324,30,-33.3,-83.1,0,2018,4,24,22,11,35.086,0.7626,-0.164,-0.3986,0.4822
-0.164,-0.209,-0.234,31.1,-51.1,-92.1,0,2018,4,24,22,11,35.11,0.7518,-0.173,-0.4036,0.4917
-0.16,-0.199,-0.238,32.5,-65.8,-97.3,0,2018,4,24,22,11,35.114,0.7394,-0.1849,-0.41,0.5009
-0.146,-0.232,-0.218,31.2,-67,-101.4,0,2018,4,24,22,11,35.13,0.7261,-0.1978,-0.4166,0.5098
-0.127,-0.179,-0.178,31.2,-75.8,-110.8,0,2018,4,24,22,11,35.153,0.7117,-0.2116,-0.4231,0.5191
-0.047,-0.201,-0.026,30.4,-87.6,-119.1,0,2018,4,24,22,11,35.172,0.6955,-0.2279,-0.4301,0.5283
-0.021,-0.417,0.401,35.9,-45.3,-108,0,2018,4,24,22,11,35.196,0.6793,-0.2423,-0.4358,0.5383
-0.1,-0.339,0.664,13.3,-20.6,-100.5,1023,2018,4,24,22,11,35.21,0.6664,-0.2508,-0.4373,0.5492
-0.179,-0.299,0.739,-26.6,5.9,-109.1,1023,2018,4,24,22,11,35.228,0.6564,-0.2603,-0.4328,0.5602
-0.298,-0.17,0.614,-66.9,21.3,-121,1023,2018,4,24,22,11,35.251,0.6492,-0.2719,-0.4203,0.5726
-0.252,-0.107,0.285,-95.1,-5.7,-122,1023,2018,4,24,22,11,35.289,0.6435,-0.2878,-0.4037,0.583
-0.125,-0.022,-0.206,-90.9,-36.3,-121.9,1023,2018,4,24,22,11,35.312,0.6363,-0.3087,-0.3889,0.5903
-0.13,0.106,-0.35,-65.2,-60.4,-112.4,1023,2018,4,24,22,11,35.317,0.6265,-0.3301,-0.379,0.5955
-0.155,0.207,-0.308,-39.5,-75.3,-98.8,1023,2018,4,24,22,11,35.333,0.6148,-0.3499,-0.3743,0.5994
0.156,0.118,-0.134,5.6,-92.8,-59.4,1023,2018,4,24,22,11,35.351,0.5887,-0.3823,-0.3801,0.6022
0.364,0.056,0.096,15.5,-58.7,-41.3,1023,2018,4,24,22,11,35.373,0.5775,-0.3921,-0.3859,0.603
0.375,0.104,0.138,10.8,-33.9,-27.9,1023,2018,4,24,22,11,35.412,0.5699,-0.3974,-0.3896,0.6044
0.249,0.053,0.037,8.2,-23.4,-18.1,1023,2018,4,24,22,11,35.434,0.565,-0.4008,-0.3919,0.6052
0.053,0.085,-0.038,8.6,-25,-16.3,0,2018,4,24,22,11,35.439,0.5611,-0.4033,-0.3936,0.6061
-0.062,-0.13,-0.12,10.6,-28.8,-18.2,0,2018,4,24,22,11,35.454,0.5564,-0.4065,-0.3967,0.6063
-0.095,-0.024,-0.161,16.8,-29.2,-22,0,2018,4,24,22,11,35.477,0.5513,-0.4092,-0.3994,0.6073
-0.067,-0.038,-0.16,24,-33.3,-25.7,0,2018,4,24,22,11,35.493,0.5451,-0.4117,-0.4031,0.6089
-0.083,0.018,-0.164,25.8,-43.1,-28.5,0,2018,4,24,22,11,35.531,0.5376,-0.4145,-0.4075,0.6107
0.013,-0.038,-0.103,28,-45.3,-32.9,0,2018,4,24,22,11,35.531,0.5289,-0.4182,-0.413,0.612
0.07,-0.088,-0.01,29.1,-40.8,-38.1,0,2018,4,24,22,11,35.555,0.5196,-0.4221,-0.4175,0.6143
0.025,-0.011,-0.072,29.1,-32.8,-40.2,0,2018,4,24,22,11,35.591,0.5008,-0.4288,-0.4234,0.6212
0.016,-0.016,-0.088,31.4,-29,-38.6,0,2018,4,24,22,11,35.614,0.4916,-0.4315,-0.4266,0.6244
0,-0.082,-0.031,31,-25.4,-41.9,0,2018,4,24,22,11,35.619,0.4827,-0.4336,-0.4294,0.6281
0.018,-0.089,0.019,27.9,-15.3,-45.3,0,2018,4,24,22,11,35.635,0.4742,-0.4352,-0.4307,0.6325
0.043,-0.017,0.042,24.9,-11.9,-45.1,0,2018,4,24,22,11,35.657,0.4662,-0.4367,-0.4304,0.6375
0.029,0.005,0.028,22.7,-11,-44.2,0,2018,4,24,22,11,35.695,0.4586,-0.4382,-0.4296,0.6426
0.011,0.028,-0.023,22.1,-14.1,-43.7,0,2018,4,24,22,11,35.695,0.4509,-0.44,-0.429,0.6471
0.012,0.048,-0.042,21.8,-14.2,-42.2,0,2018,4,24,22,11,35.718,0.4433,-0.4418,-0.429,0.6512
0.018,0.065,-0.038,22.7,-10.6,-37.4,0,2018,4,24,22,11,35.736,0.436,-0.4434,-0.4289,0.6551
-0.037,0.008,0.028,23.3,-3.6,-31.4,0,2018,4,24,22,11,35.753,0.4299,-0.4436,-0.4287,0.6591
-0.039,-0.012,0.05,22.2,-1.4,-27.1,0,2018,4,24,22,11,35.776,0.4251,-0.4427,-0.4282,0.6632
-0.008,-0.012,0.033,20.2,-2.2,-25.8,0,2018,4,24,22,11,35.794,0.4207,-0.4417,-0.4277,0.667
0.033,0.013,0.005,18.1,-6.6,-26.2,0,2018,4,24,22,11,35.817,0.416,-0.4415,-0.4272,0.6703
-0.009,-0.025,0.025,15.3,-14.4,-27.7,0,2018,4,24,22,11,35.854,0.4108,-0.4422,-0.4273,0.673
-0.11,-0.062,0.052,10,-22,-32.8,0,2018,4,24,22,11,35.877,0.4054,-0.4436,-0.4282,0.6748
-0.003,-0.038,0.015,4.4,-30.6,-36.8,0,2018,4,24,22,11,35.882,0.3993,-0.4466,-0.4291,0.6759
0.046,-0.031,-0.056,6,-31.1,-36.1,0,2018,4,24,22,11,35.899,0.392,-0.4511,-0.4302,0.6765
0.022,-0.011,-0.071,12.3,-31,-34.7,0,2018,4,24,22,11,35.915,0.3844,-0.4552,-0.4317,0.6771
-0.063,-0.078,0.013,16,-41.2,-37.5,0,2018,4,24,22,11,35.952,0.3764,-0.4585,-0.4342,0.6778
-0.063,-0.022,0.064,17.8,-53.1,-39.9,1023,2018,4,24,22,11,35.974,0.3672,-0.4617,-0.438,0.6782
-0.044,0.006,0.029,16.7,-54.7,-38.3,1023,2018,4,24,22,11,35.979,0.3572,-0.4655,-0.4423,0.6782
-0.013,0.039,-0.02,13.3,-44.1,-34.8,1023,2018,4,24,22,11,35.995,0.3478,-0.4693,-0.4461,0.6779
-0.005,0.067,-0.074,10.5,-30.9,-29.3,1023,2018,4,24,22,11,36.018,0.34,-0.4728,-0.4485,0.6778
0,0.104,-0.089,9.7,-18.4,-24.5,1023,2018,4,24,22,11,36.036,0.3336,-0.4756,-0.4498,0.6782
-0.082,0.013,-0.014,8,-6.9,-19.2,1023,2018,4,24,22,11,36.059,0.3294,-0.477,-0.4502,0.679
-0.083,0.019,0.019,6.1,4.4,-15.3,1023,2018,4,24,22,11,36.078,0.3274,-0.4769,-0.4497,0.6804
-0.038,0.05,0.011,4.9,18.8,-7.1,1023,2018,4,24,22,11,36.101,0.327,-0.4759,-0.4477,0.6826
-0.027,0.07,-0.029,5.6,31.3,0,1023,2018,4,24,22,11,36.119,0.3286,-0.4739,-0.4445,0.6854
-0.074,0.073,-0.041,7.9,31.7,3.9,1023,2018,4,24,22,11,36.142,0.3311,-0.4709,-0.4414,0.6882
-0.104,0.014,-0.04,8,30.4,4.2,1023,2018,4,24,22,11,36.161,0.334,-0.4673,-0.439,0.6907
-0.02,0.011,-0.04,9.7,40,5.2,1023,2018,4,24,22,11,36.179,0.3369,-0.4636,-0.4359,0.6938
0.013,0.016,-0.061,11.1,44.4,6.2,0,2018,4,24,22,11,36.201,0.3402,-0.4596,-0.432,0.6973
0.027,0.041,-0.064,14,43.7,6.9,0,2018,4,24,22,11,36.216,0.3433,-0.4553,-0.4279,0.7011
0.017,0.048,-0.053,16.3,38.5,8.1,0,2018,4,24,22,11,36.238,0.3461,-0.4508,-0.4243,0.7049
0.004,0.064,-0.073,18.3,37.2,10.6,0,2018,4,24,22,11,36.257,0.3486,-0.446,-0.4215,0.7083
0.007,0.06,-0.08,20.4,41.9,13.2,0,2018,4,24,22,11,36.281,0.3514,-0.4408,-0.4188,0.7118
0.017,0.081,-0.088,22.9,46.3,14.9,0,2018,4,24,22,11,36.298,0.3546,-0.4348,-0.4158,0.7156
0,0.085,-0.072,25.7,52.4,17.2,0,2018,4,24,22,11,36.321,0.3583,-0.428,-0.4124,0.7199
-0.019,0.073,-0.037,27.9,54.8,19.8,0,2018,4,24,22,11,36.339,0.3625,-0.42,-0.4085,0.7246
-0.053,0.047,0.008,27.2,51.8,20.6,0,2018,4,24,22,11,36.363,0.3672,-0.4113,-0.405,0.7293
-0.028,0.015,0.019,26.6,48.2,20.9,0,2018,4,24,22,11,36.38,0.3719,-0.4027,-0.4017,0.7335
0.006,-0.027,-0.003,27.5,49,20.5,0,2018,4,24,22,11,36.403,0.3761,-0.3945,-0.3986,0.7375
-0.003,-0.042,-0.015,29,56.6,19.3,0,2018,4,24,22,11,36.421,0.3803,-0.3859,-0.3952,0.7417
-0.01,-0.028,-0.012,29.9,64,16.2,0,2018,4,24,22,11,36.437,0.3847,-0.3767,-0.3906,0.7465
-0.001,0.009,-0.022,30.2,64.1,12.4,0,2018,4,24,22,11,36.46,0.3888,-0.3673,-0.3852,0.7519
-0.025,-0.022,-0.044,30.4,62.3,10.1,0,2018,4,24,22,11,36.478,0.3922,-0.3583,-0.3798,0.7572
-0.037,-0.023,-0.045,32.6,63.3,7.8,0,2018,4,24,22,11,36.501,0.3954,-0.3492,-0.3747,0.7623
-0.016,0,-0.068,36.4,64.4,6.9,0,2018,4,24,22,11,36.535,0.398,-0.3397,-0.3695,0.7678
-0.005,0.023,-0.043,40.3,63.8,6.4,0,2018,4,24,22,11,36.558,0.4001,-0.3297,-0.3641,0.7736
-0.007,0.041,0,40.9,57.7,6.5,0,2018,4,24,22,11,36.564,0.4019,-0.3194,-0.3589,0.7794
-0.031,0.002,0.032,39.6,48.7,6.9,0,2018,4,24,22,11,36.581,0.4034,-0.3093,-0.3547,0.7846
-0.049,-0.01,0.051,32.5,36.7,4.6,0,2018,4,24,22,11,36.602,0.4053,-0.2915,-0.3493,0.7928
-0.003,0.044,0.038,28.8,36.8,5.2,0,2018,4,24,22,11,36.64,0.4062,-0.2839,-0.3462,0.7964
0.018,0.118,0.006,29,31.8,7.5,0,2018,4,24,22,11,36.64,0.4072,-0.2767,-0.3429,0.7999
-0.006,0.104,-0.005,31.8,28,10.1,0,2018,4,24,22,11,36.664,0.408,-0.2696,-0.3407,0.8029
-0.036,0.059,0.022,31,29.3,10.1,0,2018,4,24,22,11,36.681,0.4091,-0.2621,-0.339,0.8055
-0.009,0.057,0.033,30.4,34.4,10.6,0,2018,4,24,22,11,36.719,0.4104,-0.2543,-0.3368,0.8083
0.005,0.078,0.036,29.4,35.7,13.6,0,2018,4,24,22,11,36.719,0.412,-0.2464,-0.3337,0.8112
0.008,0.094,0.034,27.4,27.4,16.7,1023,2018,4,24,22,11,36.745,0.414,-0.2388,-0.3311,0.8135
0.023,0.084,0.036,25.4,18.2,19.2,1023,2018,4,24,22,11,36.759,0.416,-0.232,-0.3296,0.815
0.023,0.091,0.029,23.8,6.6,21.6,1023,2018,4,24,22,11,36.783,0.4181,-0.2262,-0.3295,0.8157
0.025,0.085,0.036,21.9,-8.1,24,1023,2018,4,24,22,11,36.802,0.42,-0.2215,-0.3312,0.8153
0.016,0.048,0.038,21.3,-25.3,25.5,1023,2018,4,24,22,11,36.825,0.4216,-0.218,-0.3355,0.8136
0.01,0.074,0.044,20.7,-43.3,27.1,1023,2018,4,24,22,11,36.843,0.4229,-0.2157,-0.3422,0.8108
-0.017,0.058,0.072,14,-88.4,24.5,1023,2018,4,24,22,11,36.867,0.4234,-0.2165,-0.3639,0.8008
-0.049,0.061,0.098,7.1,-105.3,24.9,1023,2018,4,24,22,11,36.884,0.4227,-0.2199,-0.3785,0.7934
-0.052,0.069,0.038,0.4,-115.3,25.2,1023,2018,4,24,22,11,36.907,0.4221,-0.225,-0.3945,0.7845
-0.051,0.03,-0.01,-4.9,-117.3,25.5,1023,2018,4,24,22,11,36.923,0.4214,-0.2315,-0.411,0.7744
-0.048,-0.004,-0.02,-7.8,-112.8,26.2,1023,2018,4,24,22,11,36.96,0.4208,-0.2386,-0.4274,0.7636
-0.048,-0.048,-0.011,-10.9,-106.8,24.8,1023,2018,4,24,22,11,36.982,0.4205,-0.2456,-0.4426,0.7528
-0.038,-0.125,-0.051,-12.1,-94.9,19.3,1023,2018,4,24,22,11,36.986,0.42,-0.2526,-0.4565,0.7424
-0.011,-0.04,-0.013,-8.7,-3.4,6.5,1023,2018,4,24,22,11,37.005,0.4205,-0.2884,-0.5025,0.6981
-0.028,-0.037,0,-8.3,4.9,2.8,0,2018,4,24,22,11,37.04,0.422,-0.2888,-0.5022,0.6972
0.017,-0.075,-0.016,-7.7,-0.1,-0.9,0,2018,4,24,22,11,37.063,0.4228,-0.2897,-0.5015,0.6968
0.044,0.002,-0.021,-7.2,-3.1,-4.4,0,2018,4,24,22,11,37.068,0.4229,-0.2911,-0.5009,0.6967
0.036,0.015,-0.023,-5.9,0.8,-5,0,2018,4,24,22,11,37.087,0.4225,-0.2929,-0.5006,0.6964
0.072,0.078,-0.058,-6.1,-7.6,-2.6,0,2018,4,24,22,11,37.124,0.4221,-0.2946,-0.4999,0.6964
0.029,0.031,-0.053,-3.1,-6,-1.1,0,2018,4,24,22,11,37.146,0.4215,-0.2964,-0.5006,0.6955
0.044,0.026,-0.057,-3.4,-12.5,1.7,0,2018,4,24,22,11,37.149,0.4211,-0.2978,-0.5014,0.6946
0.019,0.03,-0.027,-1.9,-9,3.9,0,2018,4,24,22,11,37.165,0.4209,-0.2989,-0.5026,0.6933
0.009,0.003,-0.016,-1.6,-7.2,5.3,0,2018,4,24,22,11,37.183,0.4211,-0.2994,-0.5038,0.6921
0,0.011,-0.01,-1.9,-6.1,5.6,0,2018,4,24,22,11,37.206,0.4216,-0.2997,-0.5047,0.6911
-0.013,-0.018,-0.008,-0.8,-7.4,4.9,0,2018,4,24,22,11,37.223,0.422,-0.2998,-0.5058,0.6899
-0.023,-0.034,-0.004,-1.5,-5.4,2.7,0,2018,4,24,22,11,37.247,0.4223,-0.3,-0.5068,0.6889
-0.029,-0.055,0.01,-2.1,-4.8,-1.3,0,2018,4,24,22,11,37.284,0.4224,-0.3004,-0.5075,0.6881
-0.035,-0.051,0.008,-2.3,1.2,-6.9,0,2018,4,24,22,11,37.307,0.422,-0.3011,-0.5075,0.6881
-0.006,-0.09,-0.007,-3.4,3.3,-11.4,0,2018,4,24,22,11,37.312,0.4213,-0.3021,-0.5068,0.6887
-0.011,-0.116,0,-3.4,17.4,-15.5,0,2018,4,24,22,11,37.327,0.4204,-0.3031,-0.5048,0.6902
0.041,-0.055,-0.034,-2.8,17.3,-16,0,2018,4,24,22,11,37.349,0.4196,-0.3037,-0.5016,0.6927
0.003,0.037,-0.021,-2,26.3,-13.5,0,2018,4,24,22,11,37.365,0.4191,-0.3036,-0.4979,0.6957
0.003,0.117,-0.018,-3.5,29.8,-8.8,0,2018,4,24,22,11,37.384,0.4195,-0.3029,-0.4935,0.6989
0.023,0.177,-0.03,-2,21.1,-3.9,0,2018,4,24,22,11,37.404,0.4205,-0.3018,-0.4894,0.7017
0.026,0.169,-0.04,-1.3,-1.3,0.3,0,2018,4,24,22,11,37.444,0.4209,-0.3013,-0.4875,0.703
0.013,0.058,-0.028,2.7,-6.1,5.1,0,2018,4,24,22,11,37.444,0.4207,-0.3017,-0.4884,0.7024
0.014,0.05,-0.021,3.2,-4.9,10.1,0,2018,4,24,22,11,37.467,0.421,-0.3011,-0.4897,0.7015
0.024,0.065,-0.036,4.1,-0.9,14.6,0,2018,4,24,22,11,37.488,0.4221,-0.2999,-0.4909,0.7005
0,-0.061,-0.025,4.6,-1.9,13,0,2018,4,24,22,11,37.507,0.4232,-0.2985,-0.4924,0.6994
-0.013,-0.116,0.025,1.5,5.7,8.1,0,2018,4,24,22,11,37.531,0.4244,-0.2971,-0.4931,0.6988
-0.013,-0.019,0.062,0,-1.1,4.2,0,2018,4,24,22,11,37.548,0.4254,-0.296,-0.493,0.6987
-0.002,0.033,0.01,-0.6,-9.4,2.4,0,2018,4,24,22,11,37.571,0.4257,-0.296,-0.4936,0.6981
0,0.029,-0.01,0.4,-11.8,2.1,1023,2018,4,24,22,11,37.586,0.4254,-0.2966,-0.4949,0.6971
0.003,0.043,-0.019,-0.2,-10.1,3.6,1023,2018,4,24,22,11,37.604,0.4252,-0.2972,-0.4964,0.6959
0.006,0.032,-0.017,-0.8,-7.9,5.8,1023,2018,4,24,22,11,37.628,0.4254,-0.2975,-0.4977,0.6947
-0.014,-0.024,0.01,-2.4,-7,5.8,1023,2018,4,24,22,11,37.665,0.4258,-0.2977,-0.4989,0.6935
0,-0.06,-0.003,-3.7,-3,4.9,1023,2018,4,24,22,11,37.688,0.4265,-0.298,-0.4996,0.6924
0.012,-0.001,-0.056,-1.6,8.4,4,1023,2018,4,24,22,11,37.692,0.4274,-0.2978,-0.4994,0.6921
0.004,-0.031,-0.053,1.2,2,2.6,1023,2018,4,24,22,11,37.711,0.4279,-0.2973,-0.4992,0.6922
0.011,-0.004,-0.029,2.2,7.7,1.9,1023,2018,4,24,22,11,37.728,0.4281,-0.2967,-0.499,0.6924
-0.009,-0.015,0.015,1.3,8.2,0.3,1023,2018,4,24,22,11,37.75,0.4285,-0.2958,-0.4983,0.6931
0.001,0.016,0,0.4,7.6,-0.3,1023,2018,4,24,22,11,37.786,0.4289,-0.295,-0.4974,0.6939
0.008,0.023,-0.006,1.1,4.8,0,1023,2018,4,24,22,11,37.82,0.4292,-0.2945,-0.4966,0.6945
0.002,0.025,-0.009,1.3,2.7,0.3,1023,2018,4,24,22,11,37.822,0.4293,-0.294,-0.4962,0.6949
0.001,0.026,0,1.5,1.6,1,1023,2018,4,24,22,11,37.833,0.4294,-0.2936,-0.496,0.6952
0.002,0.03,0.006,0.6,-0.2,1.9,1023,2018,4,24,22,11,37.85,0.4295,-0.2932,-0.496,0.6952
0.004,0.02,-0.001,0.4,-3,2.5,1023,2018,4,24,22,11,37.871,0.4297,-0.293,-0.4962,0.695
-0.002,0.005,-0.004,0.1,-4.5,3,0,2018,4,24,22,11,37.909,0.4299,-0.293,-0.4968,0.6945
-0.001,-0.002,-0.004,-0.3,-4.4,2.5,0,2018,4,24,22,11,37.909,0.43,-0.2931,-0.4975,0.6939
-0.005,-0.004,-0.009,-0.3,-4.2,1.8,0,2018,4,24,22,11,37.931,0.4301,-0.2933,-0.4982,0.6933
-0.001,0,-0.013,-0.2,-3.4,1.1,0,2018,4,24,22,11,37.949,0.4301,-0.2935,-0.4988,0.6928
-0.002,-0.009,-0.011,0,-2.3,0.5,0,2018,4,24,22,11,37.971,0.43,-0.2937,-0.4993,0.6924
0,0,-0.019,0.2,-0.8,0.2,0,2018,4,24,22,11,38.008,0.4299,-0.2938,-0.4996,0.6922
0.003,0.005,-0.014,0.4,0.5,0.1,0,2018,4,24,22,11,38.03,0.4299,-0.2938,-0.4997,0.6921
0.002,0.013,-0.003,0.4,1.3,0.5,0,2018,4,24,22,11,38.032,0.4299,-0.2937,-0.4996,0.6922
0.001,0.012,0,0.4,1.1,0.8,0,2018,4,24,22,11,38.068,0.4301,-0.2934,-0.4995,0.6923
0,0.013,0.001,0,0.8,1.1,0,2018,4,24,22,11,38.09,0.4302,-0.2932,-0.4994,0.6923
0,0.013,0.001,-0.5,0,1.4,0,2018,4,24,22,11,38.092,0.4305,-0.2931,-0.4994,0.6923
0.001,0,0,-0.4,-1,0.8,0,2018,4,24,22,11,38.127,0.4306,-0.293,-0.4995,0.6921
0.002,0.004,0,-0.3,-1.4,0.5,0,2018,4,24,22,11,38.15,0.4307,-0.2931,-0.4996,0.6919
0.001,0.011,-0.009,0,-1.9,0.7,0,2018,4,24,22,11,38.154,0.4306,-0.2933,-0.4999,0.6917
0,0.015,-0.006,0,-1.8,0.8,0,2018,4,24,22,11,38.174,0.4306,-0.2934,-0.5001,0.6915
0,0.009,-0.009,0,-1.6,1.1,0,2018,4,24,22,11,38.192,0.4307,-0.2934,-0.5004,0.6913
0.001,0.008,-0.006,0.1,-1.4,1.1,0,2018,4,24,22,11,38.231,0.4307,-0.2934,-0.5007,0.691
0.003,0.005,-0.002,0.1,-1.2,1,0,2018,4,24,22,11,38.231,0.4308,-0.2934,-0.501,0.6908
0,0,-0.004,0.1,-1.1,0.6,0,2018,4,24,22,11,38.253,0.4308,-0.2934,-0.5012,0.6906
0.001,0.005,-0.008,0,-0.9,0.5,0,2018,4,24,22,11,38.291,0.4308,-0.2935,-0.5014,0.6905
0.001,0.006,-0.007,0.2,-0.7,0.6,0,2018,4,24,22,11,38.312,0.4308,-0.2935,-0.5015,0.6903
0,0.007,-0.007,0.1,-0.6,0.7,0,2018,4,24,22,11,38.316,0.4308,-0.2935,-0.5017,0.6902
0,0.011,-0.002,-0.1,-0.4,0.8,0,2018,4,24,22,11,38.332,0.4309,-0.2935,-0.5018,0.6901
0,0.009,-0.006,0,-1,0.8,0,2018,4,24,22,11,38.351,0.431,-0.2935,-0.5019,0.6899
-0.001,0.003,-0.007,0.1,-0.9,0.6,0,2018,4,24,22,11,38.375,0.431,-0.2935,-0.5021,0.6898
-0.002,0.003,-0.009,0,-0.8,0.3,0,2018,4,24,22,11,38.393,0.431,-0.2935,-0.5023,0.6897
0,0.008,-0.007,0,0,0,0,2018,4,24,22,11,38.43,0.431,-0.2935,-0.5024,0.6896
0.001,0.01,-0.009,0.1,-0.5,0.3,0,2018,4,24,22,11,38.452,0.431,-0.2935,-0.5024,0.6895
-0.002,0.004,-0.003,0,-0.5,0.4,1023,2018,4,24,22,11,38.457,0.4311,-0.2935,-0.5025,0.6895
0.001,0.006,-0.006,0,0,0,1023,2018,4,24,22,11,38.476,0.4311,-0.2935,-0.5026,0.6894
0,0.006,-0.01,0,-0.5,0.3,1023,2018,4,24,22,11,38.493,0.4311,-0.2935,-0.5026,0.6893
0.002,0.005,-0.008,0,0,0,1023,2018,4,24,22,11,38.515,0.4311,-0.2935,-0.5027,0.6893
0.002,0.009,-0.004,0,0,0,1023,2018,4,24,22,11,38.552,0.4311,-0.2936,-0.5027,0.6893
0.003,0.009,-0.006,0,-0.5,0.1,1023,2018,4,24,22,11,38.574,0.431,-0.2936,-0.5027,0.6893
0.004,0.005,-0.008,0,0,0,1023,2018,4,24,22,11,38.579,0.431,-0.2936,-0.5028,0.6892
0.001,0.006,-0.006,0,0,0,1023,2018,4,24,22,11,38.596,0.431,-0.2937,-0.5028,0.6892
0.001,0.009,-0.006,0,0,0,1023,2018,4,24,22,11,38.612,0.431,-0.2937,-0.5028,0.6892
0.001,0.008,-0.003,0,0,0,1023,2018,4,24,22,11,38.635,0.431,-0.2937,-0.5028,0.6892
0,0.006,-0.006,0,0,0,1023,2018,4,24,22,11,38.654,0.431,-0.2937,-0.5028,0.6892
0.002,0.004,-0.009,0,0,0,1023,2018,4,24,22,11,38.677,0.431,-0.2937,-0.5029,0.6892
0,0.009,-0.005,0,0,0,1023,2018,4,24,22,11,38.695,0.431,-0.2937,-0.5029,0.6891
0,0.009,-0.004,0,0,0,1023,2018,4,24,22,11,38.718,0.431,-0.2937,-0.5029,0.6891
-0.003,0.006,-0.005,0,0,0,1023,2018,4,24,22,11,38.736,0.431,-0.2937,-0.5029,0.6891
0.001,0.012,-0.002,0,0,0,0,2018,4,24,22,11,38.76,0.431,-0.2937,-0.5029,0.6891
-0.001,0.01,-0.004,0,0,0,0,2018,4,24,22,11,38.778,0.431,-0.2936,-0.503,0.6891
-0.002,0.005,-0.009,0.1,-0.5,0.2,0,2018,4,24,22,11,38.796,0.431,-0.2936,-0.503,0.6891
0,0.004,-0.009,0.2,-0.5,0.2,0,2018,4,24,22,11,38.819,0.431,-0.2936,-0.5031,0.689
-0.001,0.005,-0.005,0,0,0,0,2018,4,24,22,11,38.837,0.431,-0.2936,-0.5031,0.689
0.002,0.01,-0.006,0,0,0,0,2018,4,24,22,11,38.858,0.431,-0.2936,-0.5031,0.689
-0.001,0.008,-0.001,0,0,0,0,2018,4,24,22,11,38.876,0.431,-0.2936,-0.5031,0.689
0.002,0.006,-0.004,0,0,0,0,2018,4,24,22,11,38.915,0.431,-0.2936,-0.5031,0.689
0.001,0.005,-0.008,0,0,0,0,2018,4,24,22,11,38.915,0.431,-0.2936,-0.5032,0.689
0.003,0.004,-0.004,0,0,0,0,2018,4,24,22,11,38.937,0.431,-0.2937,-0.5032,0.6889
-0.001,0.011,-0.007,0.4,0.5,0,0,2018,4,24,22,11,38.956,0.431,-0.2936,-0.5032,0.689
-0.001,0.012,-0.002,0.5,0.2,0.2,0,2018,4,24,22,11,38.979,0.431,-0.2936,-0.5032,0.689
-0.001,0.015,0.005,0,-0.9,0.3,0,2018,4,24,22,11,38.997,0.431,-0.2936,-0.5031,0.689
-0.003,0.004,-0.006,-0.2,-1.3,0.2,0,2018,4,24,22,11,39.02,0.431,-0.2936,-0.5033,0.6888
0,0.004,-0.006,-0.2,-1.4,0.2,0,2018,4,24,22,11,39.038,0.431,-0.2937,-0.5035,0.6887
-0.002,0.002,-0.01,0,-0.8,0,0,2018,4,24,22,11,39.062,0.431,-0.2938,-0.5037,0.6886
0.001,0.008,-0.01,0,0,0,0,2018,4,24,22,11,39.078,0.4309,-0.2938,-0.5037,0.6885
0,0.006,-0.004,0,0,0,0,2018,4,24,22,11,39.096,0.4309,-0.2938,-0.5037,0.6885
0.005,0.006,-0.01,0.1,0.7,0,0,2018,4,24,22,11,39.12,0.4309,-0.2938,-0.5037,0.6885
0.002,0.015,-0.009,0,0.6,0,0,2018,4,24,22,11,39.137,0.4309,-0.2938,-0.5037,0.6886
0,0.012,-0.002,0.2,0.5,0.3,0,2018,4,24,22,11,39.16,0.431,-0.2937,-0.5036,0.6886
-0.001,0.011,-0.001,0,0,0,0,2018,4,24,22,11,39.178,0.431,-0.2936,-0.5036,0.6886
-0.003,0.005,-0.007,0,0,0,0,2018,4,24,22,11,39.198,0.4311,-0.2936,-0.5036,0.6886
0,0.004,-0.005,0,0,0,0,2018,4,24,22,11,39.236,0.4311,-0.2936,-0.5036,0.6886
0,0.009,-0.005,0,0,0,0,2018,4,24,22,11,39.259,0.4311,-0.2936,-0.5037,0.6886
0,0.013,-0.003,0,0,0,0,2018,4,24,22,11,39.265,0.4311,-0.2936,-0.5037,0.6886
-0.003,0.005,-0.001,0,0,0,0,2018,4,24,22,11,39.278,0.4311,-0.2935,-0.5037,0.6886
-0.003,0.004,-0.01,0,0,0,0,2018,4,24,22,11,39.316,0.4311,-0.2935,-0.5037,0.6885
-0.004,0.008,-0.003,0,0,0,0,2018,4,24,22,11,39.339,0.4311,-0.2935,-0.5037,0.6885
-0.001,0.007,-0.004,0,0,0,0,2018,4,24,22,11,39.343,0.4311,-0.2935,-0.5038,0.6885
0,0.011,-0.005,0,0,0,1023,2018,4,24,22,11,39.36,0.4311,-0.2935,-0.5038,0.6885
0,0.004,-0.01,0,0,0,1023,2018,4,24,22,11,39.394,0.4311,-0.2935,-0.5038,0.6885
0.001,0.009,-0.005,0,0,0,1023,2018,4,24,22,11,39.415,0.4311,-0.2935,-0.5038,0.6885
0.001,0.008,-0.008,0,0,0,1023,2018,4,24,22,11,39.419,0.4311,-0.2935,-0.5038,0.6885
-0.003,0.006,-0.004,0,0,0,1023,2018,4,24,22,11,39.457,0.4311,-0.2935,-0.5038,0.6885
0.001,0.007,-0.003,0,0,0,1023,2018,4,24,22,11,39.479,0.4311,-0.2935,-0.5038,0.6884
0.001,0.005,-0.003,0,0,0,1023,2018,4,24,22,11,39.484,0.4311,-0.2935,-0.5039,0.6884
-0.001,0.009,-0.004,0,0,0,1023,2018,4,24,22,11,39.503,0.4311,-0.2935,-0.5039,0.6884
0,0.009,-0.002,0,0,0,1023,2018,4,24,22,11,39.522,0.4311,-0.2935,-0.5039,0.6884
-0.001,0.008,-0.006,0,0,0,1023,2018,4,24,22,11,39.541,0.4311,-0.2935,-0.5039,0.6884
-0.003,0.009,0,0,0,0,1023,2018,4,24,22,11,39.559,0.4311,-0.2935,-0.5039,0.6884
-0.002,0.007,-0.003,0,0,0,1023,2018,4,24,22,11,39.582,0.4311,-0.2935,-0.5039,0.6884
-0.001,0.008,-0.006,0,0,0,1023,2018,4,24,22,11,39.601,0.4311,-0.2935,-0.504,0.6884
0,0.007,-0.003,0,0,0,1023,2018,4,24,22,11,39.625,0.4311,-0.2935,-0.504,0.6883
-0.002,0.008,-0.004,0,0,0,1023,2018,4,24,22,11,39.642,0.4311,-0.2935,-0.504,0.6883
-0.001,0.008,-0.006,0,0,0,1023,2018,4,24,22,11,39.665,0.4311,-0.2935,-0.504,0.6883
0,0.005,-0.006,0,0,0,0,2018,4,24,22,11,39.682,0.4311,-0.2935,-0.504,0.6883
0,0.009,-0.007,0,0,0,0,2018,4,24,22,11,39.705,0.4311,-0.2935,-0.504,0.6883
-0.002,0.01,-0.006,0,0,0,0,2018,4,24,22,11,39.723,0.4311,-0.2935,-0.504,0.6883
-0.002,0.009,0,0,0,0,0,2018,4,24,22,11,39.744,0.4311,-0.2935,-0.5041,0.6883
0,0.007,-0.006,0,0,0,0,2018,4,24,22,11,39.783,0.4311,-0.2935,-0.5041,0.6883
-0.001,0.007,-0.006,0,0,0,0,2018,4,24,22,11,39.806,0.4311,-0.2935,-0.5041,0.6883
0,0.008,-0.003,0,0,0,0,2018,4,24,22,11,39.81,0.4311,-0.2935,-0.5041,0.6882
0.003,0.009,-0.007,0,0,0,0,2018,4,24,22,11,39.824,0.4311,-0.2935,-0.5041,0.6882
0,0.011,0.001,0,0,0,0,2018,4,24,22,11,39.842,0.4311,-0.2934,-0.5041,0.6883
-0.002,0.01,-0.003,0,-0.7,0,0,2018,4,24,22,11,39.866,0.4312,-0.2934,-0.5041,0.6883
-0.003,0.008,-0.006,0.1,-1.4,0.2,0,2018,4,24,22,11,39.885,0.4311,-0.2934,-0.5043,0.6881
-0.004,0.007,-0.004,0,-1.6,0.3,0,2018,4,24,22,11,39.922,0.4311,-0.2935,-0.5045,0.688
-0.001,0.002,-0.011,0,-0.9,0.2,0,2018,4,24,22,11,39.946,0.4311,-0.2936,-0.5047,0.6878
0,0,-0.006,0,0,0,0,2018,4,24,22,11,39.949,0.431,-0.2937,-0.5048,0.6877
0.002,0.006,-0.004,0,0,0,0,2018,4,24,22,11,39.967,0.431,-0.2937,-0.5048,0.6877
0.001,0.009,-0.007,0.1,0.5,0,0,2018,4,24,22,11,39.985,0.431,-0.2937,-0.5048,0.6877
0.002,0.008,-0.004,0,0,0,0,2018,4,24,22,11,40.008,0.431,-0.2937,-0.5048,0.6877
0,0.009,0,0,0,0,0,2018,4,24,22,11,40.025,0.431,-0.2937,-0.5048,0.6877
0,0.009,0,0,0,0,0,2018,4,24,22,11,40.043,0.431,-0.2937,-0.5048,0.6877
0,0.005,-0.006,0,0,0,0,2018,4,24,22,11,40.064,0.431,-0.2937,-0.5048,0.6877
-0.002,0.007,-0.006,0,0,0,0,2018,4,24,22,11,40.102,0.431,-0.2936,-0.5048,0.6877
-0.001,0.009,-0.002,0,0,0,0,2018,4,24,22,11,40.124,0.431,-0.2936,-0.5048,0.6877
-0.001,0.006,-0.007,0,0,0,0,2018,4,24,22,11,40.129,0.431,-0.2936,-0.5049,0.6877
-0.003,0.007,-0.003,0,0,0,0,2018,4,24,22,11,40.147,0.431,-0.2936,-0.5049,0.6877
0,0.008,-0.001,0,0,0,0,2018,4,24,22,11,40.165,0.431,-0.2936,-0.5049,0.6877
-0.001,0.007,0,0,-0.5,0,0,2018,4,24,22,11,40.189,0.431,-0.2936,-0.5049,0.6877
0,0.009,0.002,0,0,0,0,2018,4,24,22,11,40.206,0.431,-0.2936,-0.5049,0.6876
0,0.008,-0.009,0,0,0,0,2018,4,24,22,11,40.228,0.431,-0.2936,-0.505,0.6876
0.002,0.009,-0.007,0,0,0,0,2018,4,24,22,11,40.244,0.431,-0.2936,-0.505,0.6876
0,0.006,-0.006,0,0,0,0,2018,4,24,22,11,40.283,0.431,-0.2937,-0.505,0.6876
0.001,0.009,-0.004,0,0,0,0,2018,4,24,22,11,40.304,0.431,-0.2937,-0.505,0.6876
0,0.009,-0.005,0,0,0,1023,2018,4,24,22,11,40.308,0.431,-0.2937,-0.505,0.6876
-0.001,0.007,-0.003,0,0,0,1023,2018,4,24,22,11,40.342,0.431,-0.2937,-0.505,0.6876
0,0.008,-0.004,0,0,0,1023,2018,4,24,22,11,40.363,0.431,-0.2937,-0.505,0.6876
0,0.008,-0.004,0,0,0,1023,2018,4,24,22,11,40.367,0.431,-0.2937,-0.5051,0.6876
-0.002,0.008,-0.005,0,0,0,1023,2018,4,24,22,11,40.386,0.431,-0.2937,-0.5051,0.6875
0,0.006,-0.001,0,0,0,1023,2018,4,24,22,11,40.41,0.431,-0.2937,-0.5051,0.6875
-0.003,0.006,0,0,0,0,1023,2018,4,24,22,11,40.426,0.431,-0.2936,-0.5051,0.6875
-0.001,0.008,-0.005,0,0,0,1023,2018,4,24,22,11,40.45,0.431,-0.2936,-0.5051,0.6875
-0.002,0.006,-0.001,0,0,0,1023,2018,4,24,22,11,40.468,0.431,-0.2936,-0.5051,0.6875
-0.003,0.007,-0.004,0,0,0,1023,2018,4,24,22,11,40.489,0.431,-0.2936,-0.5052,0.6875
-0.002,0.009,-0.006,0,0,0,1023,2018,4,24,22,11,40.509,0.431,-0.2936,-0.5052,0.6875
0,0.011,-0.002,0,0,0,1023,2018,4,24,22,11,40.531,0.431,-0.2936,-0.5052,0.6875
-0.001,0.005,-0.005,0,0,0,1023,2018,4,24,22,11,40.55,0.431,-0.2936,-0.5052,0.6875
0.003,0.007,-0.006,0,0,0,1023,2018,4,24,22,11,40.566,0.431,-0.2936,-0.5052,0.6874
-0.001,0.011,0,0,0,0,1023,2018,4,24,22,11,40.589,0.431,-0.2936,-0.5052,0.6874
0,0.009,-0.001,0,0,0,0,2018,4,24,22,11,40.607,0.431,-0.2936,-0.5052,0.6875
0,0.008,-0.002,0,0,0,0,2018,4,24,22,11,40.631,0.431,-0.2936,-0.5052,0.6875
-0.001,0.004,-0.004,0,0,0,0,2018,4,24,22,11,40.649,0.431,-0.2936,-0.5052,0.6875
0,0.004,-0.004,0,0,0,0,2018,4,24,22,11,40.672,0.431,-0.2936,-0.5052,0.6874
0,0.007,-0.001,0,0,0,0,2018,4,24,22,11,40.708,0.431,-0.2936,-0.5052,0.6874
0,0.008,-0.006,0,0,0,0,2018,4,24,22,11,40.731,0.431,-0.2936,-0.5053,0.6874
0.001,0.006,-0.003,0,0,0,0,2018,4,24,22,11,40.736,0.431,-0.2936,-0.5053,0.6874
-0.003,0.009,-0.003,0,0,0,0,2018,4,24,22,11,40.752,0.431,-0.2936,-0.5053,0.6874
0,0.008,0,0,0,0,0,2018,4,24,22,11,40.772,0.4311,-0.2935,-0.5053,0.6874
