ax,ay,az,dpitch,droll,dyaw,heart,time_1,time_2,time_3,time_4,time_5,time_6,w,x,y,z
1.154,0.648,1.303,-7.3,-43.1,6.1,1023,2018,5,1,18,34,28.96,-0.4372,-0.3623,-0.613,0.5491
1.044,0.445,0.789,-8.5,-22.1,-26.5,1023,2018,5,1,18,34,28.97,-0.4395,-0.3617,-0.6171,0.5432
0.909,0.432,0.355,-4.1,9.9,-36.3,1023,2018,5,1,18,34,29.008,-0.4428,-0.3653,-0.6162,0.539
0.497,0.408,-0.189,-12.1,14.8,-22.8,1023,2018,5,1,18,34,29.027,-0.4434,-0.371,-0.6131,0.5382
-0.164,-0.88,-0.851,-2.2,-75,-43.7,1023,2018,5,1,18,34,29.031,-0.4471,-0.3727,-0.6145,0.5323
-1.284,-0.797,-0.858,-28.8,-103.5,-35.2,1023,2018,5,1,18,34,29.052,-0.455,-0.3709,-0.6236,0.5161
-1.981,-0.363,-1.475,-12.3,-51.8,14.1,1023,2018,5,1,18,34,29.072,-0.4584,-0.367,-0.6331,0.5042
-0.912,-0.519,-0.597,12.4,102.3,47.1,1023,2018,5,1,18,34,29.087,-0.453,-0.3656,-0.6324,0.5109
-0.019,-0.571,-0.042,11.1,87.6,32.1,0,2018,5,1,18,34,29.107,-0.4433,-0.3686,-0.6242,0.527
0.149,0.04,0.187,22.8,-6.8,31.1,0,2018,5,1,18,34,29.127,-0.4406,-0.366,-0.622,0.5337
0.198,0.103,0.128,33,76.2,21.7,0,2018,5,1,18,34,29.166,-0.4396,-0.3626,-0.6189,0.5404
0.59,0.54,0.58,36.2,90.4,18,0,2018,5,1,18,34,29.187,-0.4353,-0.3641,-0.6082,0.5548
0.955,0.738,1.088,30.9,40.6,-6.1,0,2018,5,1,18,34,29.191,-0.4344,-0.3649,-0.5998,0.5641
0.917,0.83,0.898,19.8,15.7,-20.4,0,2018,5,1,18,34,29.21,-0.4367,-0.3661,-0.5944,0.5673
0.64,0.291,0.408,10.7,16.8,-20.8,0,2018,5,1,18,34,29.23,-0.4399,-0.3675,-0.5911,0.5673
0.263,-0.026,0.31,-18.2,16.3,-19.9,0,2018,5,1,18,34,29.268,-0.4395,-0.3719,-0.5876,0.5684
0.096,-0.149,-0.418,-48.7,-80.1,-11.6,0,2018,5,1,18,34,29.288,-0.4404,-0.3743,-0.5934,0.5601
-0.46,-0.691,-0.676,-76.5,-101.3,-17.1,0,2018,5,1,18,34,29.292,-0.4411,-0.3741,-0.6078,0.5439
-1.058,-0.143,-1.71,-35,-97.6,-1.3,0,2018,5,1,18,34,29.308,-0.4429,-0.3734,-0.6208,0.528
-1.398,-0.156,-0.58,5.7,-17.4,31.2,0,2018,5,1,18,34,29.346,-0.4446,-0.3681,-0.628,0.5218
-0.478,-0.685,0.316,8.3,77.2,23.2,0,2018,5,1,18,34,29.366,-0.4409,-0.3665,-0.6253,0.5292
0.018,0.173,-0.248,18.2,35,16.6,0,2018,5,1,18,34,29.37,-0.4361,-0.3688,-0.6192,0.5387
-0.212,0.024,0.185,40.2,64.7,29.1,0,2018,5,1,18,34,29.39,-0.4349,-0.366,-0.6154,0.5459
-0.23,0.093,-0.242,63.1,143.1,32.6,0,2018,5,1,18,34,29.41,-0.4301,-0.3663,-0.603,0.563
-0.172,0.371,0.329,89.7,141.2,40.4,0,2018,5,1,18,34,29.449,-0.4253,-0.3656,-0.5846,0.5861
0.129,0.275,0.565,77.3,118.6,54,0,2018,5,1,18,34,29.47,-0.4209,-0.3614,-0.5683,0.6075
0.151,0.489,0.347,77.6,124.8,85.7,0,2018,5,1,18,34,29.474,-0.4131,-0.3551,-0.5538,0.6296
-0.041,0.336,0.084,87.1,147.6,118.6,0,2018,5,1,18,34,29.493,-0.4011,-0.3457,-0.5393,0.6547
0.019,0.106,-0.425,111,203.1,141.1,0,2018,5,1,18,34,29.512,-0.3843,-0.3338,-0.5201,0.6857
-0.123,0.562,-0.623,145.1,233.1,155.3,0,2018,5,1,18,34,29.531,-0.3647,-0.3197,-0.4919,0.723
0.051,-0.12,-0.436,172.6,315.6,156.3,1023,2018,5,1,18,34,29.551,-0.3432,-0.3019,-0.4565,0.7632
0.102,0.13,-0.013,196.4,384.7,147.6,1023,2018,5,1,18,34,29.571,-0.3172,-0.2854,-0.4037,0.8092
0.345,-0.173,-0.155,197.1,442.6,123.3,1023,2018,5,1,18,34,29.593,-0.29,-0.2702,-0.3401,0.8526
0.293,0.591,0.472,185.9,398.3,90.7,1023,2018,5,1,18,34,29.612,-0.2648,-0.255,-0.2702,0.8897
0.392,0.163,0.063,144.8,254.1,51.1,1023,2018,5,1,18,34,29.634,-0.2477,-0.2414,-0.2156,0.9131
0.282,-0.488,-0.08,123.5,111.9,19.3,1023,2018,5,1,18,34,29.671,-0.2384,-0.2264,-0.1828,0.9264
0.277,-0.461,-0.344,131.8,111.7,-25.9,1023,2018,5,1,18,34,29.69,-0.2387,-0.211,-0.159,0.9344
0.379,-0.265,-0.669,141.5,-14.3,-64.5,1023,2018,5,1,18,34,29.694,-0.2484,-0.1921,-0.1436,0.9384
0.077,-0.528,-0.618,156.8,-47.9,-71.4,1023,2018,5,1,18,34,29.716,-0.2645,-0.1676,-0.1416,0.939
0.078,-0.635,-0.332,182.4,-61.5,-85.3,1023,2018,5,1,18,34,29.735,-0.283,-0.1388,-0.1397,0.9386
0.111,0.472,1.219,160.1,77.3,-85.5,1023,2018,5,1,18,34,29.772,-0.3011,-0.1121,-0.1281,0.9382
-0.555,0.657,2.472,3.5,-417.1,-46.6,1023,2018,5,1,18,34,29.791,-0.3189,-0.0896,-0.1514,0.9312
-0.015,-1.594,1.192,-83.4,-359.2,-41.9,1023,2018,5,1,18,34,29.796,-0.3282,-0.0742,-0.2239,0.9146
0.033,-0.796,-0.089,-75,-181,-112.8,1023,2018,5,1,18,34,29.832,-0.3407,-0.0757,-0.2669,0.8982
-0.627,1.301,0.026,-51.8,-223.2,-114.6,1023,2018,5,1,18,34,29.837,-0.3591,-0.0793,-0.2967,0.8812
-0.774,0.464,0.847,-86.5,-271.9,-85.9,1023,2018,5,1,18,34,29.854,-0.3724,-0.0779,-0.3387,0.8604
-0.482,0.15,0.378,-76.2,-191.9,-69.7,0,2018,5,1,18,34,29.89,-0.3825,-0.0803,-0.3767,0.8398
-0.211,0.367,-0.375,-50.4,-168.9,-49.7,0,2018,5,1,18,34,29.911,-0.3889,-0.0813,-0.4062,0.8228
-0.322,0.418,-0.596,-20,-41.3,-28,0,2018,5,1,18,34,29.916,-0.3937,-0.0815,-0.4237,0.8116
-0.199,1.363,-0.681,14.6,95,25.3,0,2018,5,1,18,34,29.935,-0.3934,-0.0847,-0.4187,0.814
-0.384,1.544,-0.287,52.9,125.8,75.2,0,2018,5,1,18,34,29.955,-0.3862,-0.084,-0.3998,0.8269
-0.261,0.951,0.246,70.4,129.8,123.2,0,2018,5,1,18,34,29.993,-0.3744,-0.0761,-0.3787,0.8429
-0.196,0.321,0.027,62.3,191,158.6,0,2018,5,1,18,34,30.014,-0.3554,-0.0675,-0.353,0.8627
-0.278,0.881,-0.211,71.7,209.3,206.1,0,2018,5,1,18,34,30.019,-0.3291,-0.0594,-0.3185,0.8869
-0.263,0.528,-0.083,82.6,218.5,236.1,0,2018,5,1,18,34,30.038,-0.2959,-0.0474,-0.2828,0.9111
-0.617,1.138,0.312,69,-13.8,245.5,0,2018,5,1,18,34,30.056,-0.2602,-0.0297,-0.2601,0.9293
-0.312,-0.308,-0.478,60.9,-160.6,285.9,0,2018,5,1,18,34,30.093,-0.2192,-0.0018,-0.2781,0.9351
-0.092,-0.964,-0.431,81.9,-56.8,271.1,0,2018,5,1,18,34,30.112,-0.1761,0.0283,-0.2932,0.9392
-0.456,-2.36,0.442,71.5,85.4,185.8,0,2018,5,1,18,34,30.116,-0.1427,0.0518,-0.287,0.9457
-0.365,-2.656,1.272,29.8,-24.9,69.4,0,2018,5,1,18,34,30.135,-0.125,0.067,-0.2778,0.9501
-0.252,-3.437,0.352,-21.2,-32.1,-83.8,0,2018,5,1,18,34,30.155,-0.1262,0.0669,-0.2872,0.9471
-0.044,-1.077,0.073,-26.8,-20.6,-178.1,0,2018,5,1,18,34,30.194,-0.1482,0.0567,-0.2898,0.9438
-0.106,-0.855,-0.037,-46.5,-56.2,-225.9,0,2018,5,1,18,34,30.213,-0.179,0.0416,-0.3014,0.9355
-0.087,-0.117,-0.074,-44.9,10.8,-245.2,0,2018,5,1,18,34,30.217,-0.2153,0.0221,-0.3074,0.9266
-0.198,0.487,-0.035,-51,29.6,-226.7,0,2018,5,1,18,34,30.257,-0.251,0.001,-0.3063,0.9182
-0.307,0.725,-0.154,-43.3,63.7,-210,0,2018,5,1,18,34,30.274,-0.2828,-0.0206,-0.2998,0.9108
-0.314,1.541,-0.271,-25.3,24.3,-159.1,0,2018,5,1,18,34,30.279,-0.3104,-0.0383,-0.293,0.9034
-0.133,2.292,-0.479,-13.5,-37.6,-63.7,0,2018,5,1,18,34,30.295,-0.3273,-0.0463,-0.2959,0.8961
-0.123,2.442,-0.588,11.4,-13.5,54.3,0,2018,5,1,18,34,30.336,-0.3277,-0.0445,-0.3018,0.8941
-0.217,1.298,-0.123,29.3,126.2,131.7,1023,2018,5,1,18,34,30.354,-0.3127,-0.0384,-0.2932,0.9026
-0.136,-0.134,0.009,47.2,371.1,129.1,1023,2018,5,1,18,34,30.359,-0.2913,-0.0396,-0.2525,0.9218
-0.327,0.647,0.277,87.1,307.6,123.5,1023,2018,5,1,18,34,30.378,-0.2718,-0.0423,-0.1875,0.9429
-0.4,0.303,0.476,75.2,31.8,148.5,1023,2018,5,1,18,34,30.418,-0.25,-0.0312,-0.1593,0.9545
-0.404,0.101,0.348,64.4,19.4,166.6,1023,2018,5,1,18,34,30.422,-0.2252,-0.0157,-0.1559,0.9615
-0.278,0.018,0.346,49.8,88.1,176.8,1023,2018,5,1,18,34,30.439,-0.1975,-0.0035,-0.1447,0.9695
-0.065,0.172,0.084,53.5,158.5,180.1,1023,2018,5,1,18,34,30.46,-0.1682,0.0051,-0.1202,0.9783
-0.022,0.184,0.166,58.1,119,181.3,1023,2018,5,1,18,34,30.479,-0.1383,0.014,-0.0933,0.9858
-0.061,-0.004,0.345,54.8,102.3,189.6,1023,2018,5,1,18,34,30.501,-0.1073,0.0239,-0.072,0.9913
0.052,-0.512,0.458,35.3,101.6,191.9,1023,2018,5,1,18,34,30.521,-0.0745,0.033,-0.0535,0.9952
-0.025,-0.063,0.41,23.5,57.8,191.3,1023,2018,5,1,18,34,30.558,-0.0418,0.0397,-0.0348,0.9977
-0.128,-0.014,0.124,15.7,-123.3,192.2,1023,2018,5,1,18,34,30.563,-0.0083,0.0439,-0.0393,0.9982
-0.087,-0.249,-0.206,-7.9,-248.5,194.9,1023,2018,5,1,18,34,30.58,0.0274,0.0457,-0.072,0.9959
-0.005,-0.004,-0.207,-15.3,-270.4,212.4,1023,2018,5,1,18,34,30.6,0.0651,0.046,-0.1164,0.9899
-0.048,-0.254,-0.679,4.5,-172.9,211.9,1023,2018,5,1,18,34,30.62,0.1032,0.0463,-0.1568,0.9811
-0.095,0.03,-0.642,13.4,-33.4,181.5,1023,2018,5,1,18,34,30.657,0.1368,0.0507,-0.1709,0.9744
-0.217,-0.217,-0.449,29.3,3.6,154.9,1023,2018,5,1,18,34,30.677,0.1644,0.0591,-0.1714,0.9695
-0.146,-0.855,-0.246,49.2,33.2,120.3,0,2018,5,1,18,34,30.681,0.1867,0.0702,-0.1684,0.9653
-0.042,-0.668,-0.126,77,94.2,72.1,0,2018,5,1,18,34,30.702,0.1997,0.0861,-0.1579,0.9631
0.105,-0.167,-0.015,84.4,99.8,55.9,0,2018,5,1,18,34,30.722,0.2064,0.1052,-0.1421,0.9623
0.251,-0.17,0.078,82.9,69.7,53.1,0,2018,5,1,18,34,30.757,0.212,0.1234,-0.1298,0.9606
0.048,-0.254,0.194,79.5,49.7,45.4,0,2018,5,1,18,34,30.778,0.2173,0.1404,-0.1222,0.9581
-0.073,-0.312,0.375,67.6,59.4,43.2,0,2018,5,1,18,34,30.782,0.222,0.1557,-0.1145,0.9556
-0.096,-0.187,0.438,47.2,46.5,36.6,0,2018,5,1,18,34,30.821,0.2261,0.1679,-0.1065,0.9535
-0.119,-0.097,0.45,28.1,25.9,33.3,0,2018,5,1,18,34,30.823,0.2302,0.1755,-0.101,0.9518
-0.664,-0.018,0.641,-13.4,-61.2,35.4,0,2018,5,1,18,34,30.84,0.236,0.1775,-0.1012,0.9499
-0.357,-0.137,0.077,-28.4,-86,28.2,0,2018,5,1,18,34,30.878,0.2444,0.1689,-0.1139,0.948
0.059,-0.06,-0.257,-35.4,-48.5,13.8,0,2018,5,1,18,34,30.898,0.2497,0.1599,-0.1233,0.947
0.062,0.184,-0.259,-7,49.2,0,0,2018,5,1,18,34,30.902,0.2516,0.1569,-0.1215,0.9472
0.172,0.148,-0.201,13.9,97.9,9.6,0,2018,5,1,18,34,30.923,0.2502,0.161,-0.1086,0.9484
0.167,0.2,-0.04,25.3,95.5,22.4,0,2018,5,1,18,34,30.943,0.2498,0.1693,-0.0918,0.9489
-0.068,0.147,0.094,21,49,32.1,0,2018,5,1,18,34,30.98,0.252,0.1769,-0.0794,0.948
-0.06,-0.015,-0.18,16.9,15.6,33.9,0,2018,5,1,18,34,31.001,0.2571,0.1823,-0.0739,0.9461
-0.103,-0.061,-0.361,20.5,0.6,35.1,0,2018,5,1,18,34,31.006,0.2624,0.1863,-0.0725,0.9439
-0.081,0.072,-0.028,20.5,-21.7,31.3,0,2018,5,1,18,34,31.022,0.2678,0.1904,-0.0734,0.9415
-0.026,-0.073,0.059,6.8,-51.6,27.9,0,2018,5,1,18,34,31.058,0.2744,0.1919,-0.0794,0.9389
-0.013,-0.108,0.049,-3.7,-57.6,21.3,1023,2018,5,1,18,34,31.077,0.2802,0.1888,-0.0886,0.9369
-0.708,0.29,0.298,-20.3,-102.7,14.7,1023,2018,5,1,18,34,31.081,0.286,0.1841,-0.0988,0.9351
1.855,-0.43,-0.281,-52.8,-193.8,30.2,1023,2018,5,1,18,34,31.12,0.294,0.1692,-0.1246,0.9323
-0.186,0.261,-0.031,-28.4,-58.1,-4,1023,2018,5,1,18,34,31.139,0.2983,0.159,-0.1377,0.9309
-0.299,0.162,0.199,-59.3,-153.1,1.5,1023,2018,5,1,18,34,31.143,0.3021,0.1464,-0.1518,0.9296
-0.495,0.077,0.272,-60.6,-183.5,-10.7,1023,2018,5,1,18,34,31.166,0.3079,0.127,-0.1762,0.9262
-0.438,0.035,0.274,-79.5,-242,-14.2,1023,2018,5,1,18,34,31.185,0.3129,0.1034,-0.2071,0.921
-0.255,0.136,0.189,-101.5,-305,-25.5,1023,2018,5,1,18,34,31.205,0.3178,0.0733,-0.2456,0.9128
-0.309,-0.064,0.071,-120.6,-385.3,-34.9,1023,2018,5,1,18,34,31.225,0.3216,0.0348,-0.295,0.899
-0.225,-0.431,0.064,-135.6,-401.1,-72.7,1023,2018,5,1,18,34,31.245,0.3213,-0.0107,-0.35,0.8798
-0.35,-0.567,0.136,-140.7,-362.9,-119.1,1023,2018,5,1,18,34,31.265,0.3132,-0.0594,-0.4002,0.8591
-0.331,-0.658,0.07,-137.4,-289.4,-170.6,1023,2018,5,1,18,34,31.304,0.2971,-0.1081,-0.4392,0.8408
-0.468,-0.329,0.022,-124.2,-210.3,-214.5,0,2018,5,1,18,34,31.324,0.2733,-0.1546,-0.4641,0.8282
-0.417,-0.238,-0.024,-114.5,-185.4,-236.3,0,2018,5,1,18,34,31.328,0.2444,-0.1992,-0.4793,0.8189
-0.51,-0.237,-0.06,-98.6,-206.2,-248.3,0,2018,5,1,18,34,31.345,0.2115,-0.2424,-0.4936,0.8079
-0.569,-0.229,-0.088,-80.2,-225.1,-258.6,0,2018,5,1,18,34,31.364,0.1737,-0.2844,-0.5095,0.7932
-0.527,-0.238,-0.068,-59,-228.5,-270,0,2018,5,1,18,34,31.384,0.1317,-0.3239,-0.5248,0.776
-0.075,-0.222,-0.26,-39,-219.5,-269.7,0,2018,5,1,18,34,31.421,0.0861,-0.3599,-0.5384,0.757
-0.153,0.003,-0.276,15.7,-84.5,-279.2,0,2018,5,1,18,34,31.441,-0.004,-0.4173,-0.5397,0.731
-0.108,0.245,-0.287,32.1,-51.2,-275.8,0,2018,5,1,18,34,31.448,-0.0462,-0.4397,-0.5267,0.7259
-0.133,0.241,-0.271,46.4,-74,-273.6,0,2018,5,1,18,34,31.487,-0.0892,-0.4587,-0.5123,0.7204
-0.087,0.338,-0.185,61.7,-84.3,-270.6,0,2018,5,1,18,34,31.506,-0.1345,-0.4744,-0.4991,0.7124
-0.097,0.563,-0.249,81.8,-103.4,-263.1,0,2018,5,1,18,34,31.51,-0.1815,-0.486,-0.4861,0.7031
-0.099,0.667,-0.057,99.2,-145.9,-244.5,0,2018,5,1,18,34,31.528,-0.2308,-0.4915,-0.4763,0.6914
-0.069,0.662,0.248,98.4,-167.2,-218.4,0,2018,5,1,18,34,31.547,-0.2804,-0.4915,-0.4713,0.6764
0.044,0.853,0.397,88.9,-166.5,-185,0,2018,5,1,18,34,31.567,-0.3256,-0.4884,-0.4685,0.6601
0.202,0.91,0.387,80.7,-201.5,-150.3,0,2018,5,1,18,34,31.588,-0.367,-0.4814,-0.4702,0.642
0.185,0.821,0.762,68.1,-203.3,-112.3,0,2018,5,1,18,34,31.607,-0.4048,-0.4702,-0.4769,0.6225
0.056,0.683,0.809,29.1,-193.3,-50.6,0,2018,5,1,18,34,31.628,-0.4331,-0.4569,-0.4889,0.6037
-0.297,0.359,0.707,-10.9,-141.2,-3.8,0,2018,5,1,18,34,31.648,-0.4501,-0.4453,-0.5034,0.5878
-0.514,0.157,0.13,-60.6,-81.7,20,0,2018,5,1,18,34,31.67,-0.4533,-0.4399,-0.5193,0.5755
-0.491,-0.647,-1.997,-35.1,-124.3,19,0,2018,5,1,18,34,31.69,-0.4545,-0.4347,-0.5356,0.5633
-0.989,-1.08,-1.116,29.1,-58.2,0.5,0,2018,5,1,18,34,31.709,-0.4607,-0.4263,-0.5453,0.5554
-0.803,-0.85,-0.122,43.8,17.8,-9.4,0,2018,5,1,18,34,31.729,-0.4662,-0.4216,-0.5433,0.5564
-0.509,0.149,-0.116,42.6,41.7,-0.5,0,2018,5,1,18,34,31.746,-0.4685,-0.4211,-0.5356,0.5623
-0.185,0.306,-0.236,44.8,41.2,28.3,0,2018,5,1,18,34,31.765,-0.4678,-0.4187,-0.5291,0.5707
0.283,0.221,0.225,52.5,57.8,33.1,0,2018,5,1,18,34,31.785,-0.4655,-0.4149,-0.5225,0.5814
0.474,0.513,0.954,47.6,51.1,28.3,0,2018,5,1,18,34,31.824,-0.463,-0.4113,-0.5147,0.5927
0.749,0.854,1.596,12,-11.2,22,0,2018,5,1,18,34,31.841,-0.4616,-0.4075,-0.5115,0.5992
0.768,0.245,0.702,-20.6,-23.7,7,0,2018,5,1,18,34,31.846,-0.4612,-0.405,-0.516,0.5973
0.79,0.334,0.61,-44.3,11.7,-4.2,0,2018,5,1,18,34,31.885,-0.4586,-0.408,-0.519,0.5947
0.599,0.258,-0.436,-72.9,-55.6,-7.5,1023,2018,5,1,18,34,31.904,-0.4547,-0.4137,-0.5256,0.588
-0.068,-0.744,-2.418,-58.8,-45.5,-37.1,1023,2018,5,1,18,34,31.909,-0.4555,-0.4174,-0.5362,0.575
-1.575,-0.558,-1.509,-8.5,-96.1,-44.8,1023,2018,5,1,18,34,31.948,-0.462,-0.42,-0.5411,0.5631
-1.546,-0.508,-0.558,2.5,-69.5,-3.2,1023,2018,5,1,18,34,31.968,-0.4709,-0.4145,-0.5489,0.5522
-0.527,-0.377,-0.103,31.2,82.1,8.8,1023,2018,5,1,18,34,31.972,-0.4716,-0.4136,-0.5461,0.555
-0.24,0.091,0.098,43.4,40.8,35.1,1023,2018,5,1,18,34,31.993,-0.4676,-0.414,-0.5367,0.5672
-0.326,-0.279,-0.088,40.3,-34.3,54.9,1023,2018,5,1,18,34,32.012,-0.468,-0.404,-0.5385,0.5724
0.423,0.236,0.497,58.3,45.1,43.2,1023,2018,5,1,18,34,32.03,-0.4667,-0.3952,-0.5361,0.5817
1.173,0.841,1.291,38.6,46.7,18.9,1023,2018,5,1,18,34,32.068,-0.4651,-0.3904,-0.5301,0.5916
1.334,1.062,1.447,-13,3.9,-10.7,1023,2018,5,1,18,34,32.087,-0.4638,-0.3914,-0.5262,0.5956
0.923,0.433,0.597,-42,-21.5,-34.4,1023,2018,5,1,18,34,32.091,-0.4648,-0.3951,-0.529,0.5898
0.58,0.531,0.107,-66.1,-7.7,-32,1023,2018,5,1,18,34,32.109,-0.4636,-0.4036,-0.5315,0.5827
0.147,-0.269,-0.788,-66,-91.7,-35.2,1023,2018,5,1,18,34,32.149,-0.464,-0.4094,-0.54,0.5703
-0.93,-0.751,-1.897,-34.2,-62.3,-52.7,1023,2018,5,1,18,34,32.171,-0.4691,-0.4126,-0.549,0.555
-2.482,-0.72,-1.241,-5.9,-99.8,-8.6,1023,2018,5,1,18,34,32.175,-0.4769,-0.4106,-0.5564,0.5425
-0.923,-0.387,-0.53,5.6,-31.7,42.3,1023,2018,5,1,18,34,32.193,-0.4792,-0.4024,-0.5649,0.5377
-0.082,-0.666,-0.078,10.4,80.4,36.6,1023,2018,5,1,18,34,32.213,-0.4736,-0.4002,-0.5648,0.5443
0.18,0.197,0.021,30.8,0.1,38.6,1023,2018,5,1,18,34,32.253,-0.4687,-0.3994,-0.5599,0.5543
0.008,-0.334,0.273,32,4.3,35.8,1023,2018,5,1,18,34,32.273,-0.4696,-0.3906,-0.5625,0.5571
0.234,0.475,0.557,38.4,62.9,32.6,0,2018,5,1,18,34,32.277,-0.4667,-0.3878,-0.5567,0.5672
0.776,0.527,0.849,38.9,65.1,13.9,0,2018,5,1,18,34,32.295,-0.4637,-0.3868,-0.5486,0.5781
1.187,0.987,1.409,15.7,7.4,-9.2,0,2018,5,1,18,34,32.31,-0.4638,-0.3871,-0.5418,0.5842
0.845,0.52,0.599,-9.2,-41,-24.1,0,2018,5,1,18,34,32.35,-0.467,-0.3869,-0.5429,0.5808
0.633,-0.091,0.197,-20.7,17.8,-30.2,0,2018,5,1,18,34,32.369,-0.4702,-0.3895,-0.5443,0.5751
0.436,0.083,-0.161,-32.9,17.9,-33.8,0,2018,5,1,18,34,32.373,-0.4689,-0.398,-0.5409,0.5735
-0.509,-0.156,0.231,-36.8,-86.7,-38.4,0,2018,5,1,18,34,32.393,-0.4724,-0.4023,-0.5436,0.565
-0.526,-0.591,-0.106,-67.7,-68.4,-30.3,0,2018,5,1,18,34,32.412,-0.4764,-0.4036,-0.5554,0.5491
-0.539,-0.446,-0.387,-74.5,-46.7,-22.8,0,2018,5,1,18,34,32.451,-0.4762,-0.4078,-0.5658,0.5353
-0.779,-0.772,-0.713,-60.7,56.8,-27.4,0,2018,5,1,18,34,32.47,-0.4714,-0.4174,-0.5689,0.5289
-0.548,-0.619,-1.007,-21.5,143.5,-30.5,0,2018,5,1,18,34,32.474,-0.4624,-0.4323,-0.5608,0.5334
-0.317,-0.014,-0.742,22.3,196,-40.2,0,2018,5,1,18,34,32.495,-0.4522,-0.4498,-0.5409,0.5481
-0.228,1.162,-0.215,14.8,157.2,-20.1,0,2018,5,1,18,34,32.517,-0.443,-0.465,-0.5187,0.5641
-0.245,0.207,-0.252,0.2,153.2,-4.5,0,2018,5,1,18,34,32.532,-0.4326,-0.4765,-0.5025,0.5772
-0.044,0.094,-0.202,10.6,144.3,-5.6,0,2018,5,1,18,34,32.549,-0.4205,-0.4877,-0.4861,0.5906
0.088,0.063,-0.022,20,149.2,-15.8,0,2018,5,1,18,34,32.584,-0.4106,-0.4978,-0.4693,0.6027
0.133,0.242,0.227,23.6,184.2,-14.4,0,2018,5,1,18,34,32.603,-0.3999,-0.5085,-0.4483,0.6168
0.337,0.76,0.489,22.5,182.5,7.7,0,2018,5,1,18,34,32.612,-0.3849,-0.5193,-0.4256,0.6331
0.57,0.505,0.618,1.3,112.5,28.1,0,2018,5,1,18,34,32.645,-0.3704,-0.5259,-0.4104,0.6462
0.701,-0.057,0.266,-10.3,151.5,17.2,0,2018,5,1,18,34,32.666,-0.356,-0.5327,-0.3992,0.6557
0.486,0.002,0.231,-1.8,211.9,-10.2,0,2018,5,1,18,34,32.673,-0.3379,-0.5441,-0.3774,0.6687
0.303,0.336,0.297,-6.1,156.8,-19.8,1023,2018,5,1,18,34,32.707,-0.3211,-0.5567,-0.353,0.6798
0.19,0.283,0.138,-13.4,-4.8,-14.5,1023,2018,5,1,18,34,32.729,-0.3153,-0.5631,-0.3433,0.6822
0.158,-0.07,-0.111,-14.1,-123.5,-13.8,1023,2018,5,1,18,34,32.734,-0.323,-0.5619,-0.3518,0.6752
-0.067,0.002,-0.183,-20.6,-197.8,-11.6,1023,2018,5,1,18,34,32.752,-0.3388,-0.5558,-0.3709,0.6622
-0.357,0.241,-0.254,-38.9,-286.4,0.1,1023,2018,5,1,18,34,32.772,-0.3612,-0.5448,-0.4006,0.6419
-0.572,0.477,-0.837,-32.9,-338.2,24.9,1023,2018,5,1,18,34,32.81,-0.3865,-0.5274,-0.4391,0.616
-0.726,0.132,-0.899,-26,-290.5,55.3,1023,2018,5,1,18,34,32.83,-0.4089,-0.5047,-0.479,0.5903
-0.592,0.152,-0.764,-1.1,-208.3,77.8,1023,2018,5,1,18,34,32.833,-0.4215,-0.4831,-0.5097,0.5735
-0.466,-0.325,-0.739,22.9,-158,88,1023,2018,5,1,18,34,32.869,-0.4291,-0.4604,-0.5344,0.5639
-0.401,-0.626,-0.321,29.9,-151.8,82.4,1023,2018,5,1,18,34,32.888,-0.4351,-0.4381,-0.5536,0.5586
-0.211,-0.934,-0.297,28.1,-107.1,60.6,1023,2018,5,1,18,34,32.893,-0.4409,-0.4182,-0.5705,0.5523
-0.111,-0.455,0.372,30.2,2.6,49.9,1023,2018,5,1,18,34,32.929,-0.4426,-0.4054,-0.5775,0.5533
0.137,0.134,0.523,37.6,108.9,31.9,1023,2018,5,1,18,34,32.949,-0.4368,-0.4042,-0.5696,0.5667
0.32,0.042,0.509,34.3,39.8,40.5,1023,2018,5,1,18,34,32.954,-0.4315,-0.4021,-0.563,0.5788
0.615,0.534,0.726,30.2,6.8,39.1,1023,2018,5,1,18,34,32.987,-0.4292,-0.3966,-0.5606,0.5865
0.866,0.288,0.966,7,-14.2,26.5,1023,2018,5,1,18,34,33.008,-0.428,-0.3908,-0.5622,0.5898
0.716,0.106,0.367,-9.3,-28.1,3.6,1023,2018,5,1,18,34,33.015,-0.4276,-0.3881,-0.5656,0.5886
0.491,0.243,0.444,-35,-47.9,-8,1023,2018,5,1,18,34,33.049,-0.4286,-0.3877,-0.5708,0.5831
0.394,0.088,0.117,-63.5,-79.3,-12.8,0,2018,5,1,18,34,33.072,-0.4289,-0.3889,-0.5803,0.5725
0.188,-0.455,-0.602,-63.9,-97.9,-41.2,0,2018,5,1,18,34,33.076,-0.4317,-0.3911,-0.5933,0.5553
-0.507,-0.21,-1.383,-25.7,-92.7,-62.8,0,2018,5,1,18,34,33.096,-0.4384,-0.3943,-0.602,0.5383
-1.913,0.179,-0.43,-15.9,-76.2,-19.6,0,2018,5,1,18,34,33.115,-0.447,-0.3935,-0.6081,0.5247
-0.605,-0.514,-0.692,-7.4,35.9,11.5,0,2018,5,1,18,34,33.149,-0.4466,-0.3928,-0.612,0.5211
0.163,-0.302,-0.287,13.1,95.4,-1.1,0,2018,5,1,18,34,33.169,-0.4412,-0.3979,-0.6045,0.5305
0.016,0.016,-0.091,28.4,32,-3.9,0,2018,5,1,18,34,33.176,-0.4394,-0.4012,-0.5966,0.5384
-0.358,-0.035,0.285,26,10.4,1.8,0,2018,5,1,18,34,33.211,-0.4412,-0.3998,-0.5926,0.5423
-0.334,-0.041,-0.044,27.7,45.2,9,0,2018,5,1,18,34,33.231,-0.4416,-0.3986,-0.5886,0.5472
0.121,0.085,-0.178,64.6,87.8,8.6,0,2018,5,1,18,34,33.237,-0.441,-0.3984,-0.579,0.558
0.389,0.422,0.642,53.5,90.6,15.5,0,2018,5,1,18,34,33.27,-0.4397,-0.3979,-0.5662,0.5723
0.767,0.731,1.315,14.3,21.2,8.4,0,2018,5,1,18,34,33.292,-0.437,-0.3986,-0.5574,0.5825
0.904,0.484,1.014,-33.8,-46.7,4.1,0,2018,5,1,18,34,33.299,-0.4366,-0.3972,-0.5614,0.5799
0.805,0.232,0.157,-45.8,-52.5,-18.3,0,2018,5,1,18,34,33.319,-0.4365,-0.3986,-0.5691,0.5715
0.346,0.134,-0.106,-37.3,-56.7,-29.2,0,2018,5,1,18,34,33.339,-0.4387,-0.401,-0.576,0.561
0.057,-0.032,-0.189,-32.3,-51.2,-28.8,0,2018,5,1,18,34,33.377,-0.4419,-0.4035,-0.5814,0.5511
-0.201,-0.074,-0.416,-27.3,-94.6,-34.7,0,2018,5,1,18,34,33.397,-0.4465,-0.4046,-0.5875,0.54
-0.607,-0.029,0.269,-51.1,-127.3,-4.1,0,2018,5,1,18,34,33.398,-0.4533,-0.4002,-0.6003,0.5232
-0.287,-0.338,-0.586,-56.6,-68.6,-6.2,0,2018,5,1,18,34,33.432,-0.4546,-0.3981,-0.613,0.5088
-0.51,-0.19,-1.397,-11.5,-21,-5.1,1023,2018,5,1,18,34,33.452,-0.4543,-0.3989,-0.619,0.5011
-0.95,-0.125,-0.22,20.7,31.5,14.9,1023,2018,5,1,18,34,33.461,-0.4548,-0.398,-0.6179,0.5028
-0.508,-0.19,0.02,24.6,112.6,18.5,1023,2018,5,1,18,34,33.495,-0.4503,-0.4,-0.6108,0.5137
0.308,0.293,0.008,17.9,60.1,28.3,1023,2018,5,1,18,34,33.516,-0.4437,-0.4031,-0.6021,0.5272
-0.017,-0.058,0.039,25.4,11.1,22.1,1023,2018,5,1,18,34,33.519,-0.4418,-0.4007,-0.5998,0.5332
-0.115,-0.131,0.057,24.3,60.1,19.3,1023,2018,5,1,18,34,33.554,-0.4401,-0.3986,-0.5963,0.54
-0.045,0.104,-0.142,20.1,56.9,14.3,1023,2018,5,1,18,34,33.576,-0.4367,-0.3995,-0.5895,0.5496
-0.044,0.092,-0.342,35.4,84.9,13.5,1023,2018,5,1,18,34,33.58,-0.433,-0.4009,-0.5814,0.5599
-0.086,0.093,0.126,41.7,73.8,21.4,1023,2018,5,1,18,34,33.602,-0.4299,-0.4013,-0.5715,0.572
-0.041,-0.044,0.166,44.1,73.4,33.1,1023,2018,5,1,18,34,33.621,-0.4264,-0.3998,-0.5631,0.5841
-0.002,-0.052,0.027,62.1,79,47.6,1023,2018,5,1,18,34,33.642,-0.4222,-0.3958,-0.5537,0.5985
0.094,-0.075,-0.08,91.1,83.2,59.8,1023,2018,5,1,18,34,33.662,-0.418,-0.3884,-0.5431,0.6159
0.061,0.144,0.142,100,65.1,62.9,1023,2018,5,1,18,34,33.681,-0.4157,-0.3775,-0.5319,0.6337
0.028,0.274,0.167,103,77.9,71.8,1023,2018,5,1,18,34,33.703,-0.413,-0.3648,-0.5212,0.6515
-0.094,0.07,-0.033,115,127.9,80.4,1023,2018,5,1,18,34,33.738,-0.4075,-0.3528,-0.5063,0.673
0.069,0.247,-0.111,141.7,167.9,86.5,1023,2018,5,1,18,34,33.757,-0.3993,-0.3412,-0.4835,0.7001
0.195,0.124,0.034,142.8,128.4,81.8,0,2018,5,1,18,34,33.764,-0.392,-0.3264,-0.46,0.7267
0.101,0.05,0.151,131.4,147.8,67.3,0,2018,5,1,18,34,33.799,-0.3862,-0.3122,-0.4375,0.7495
0.086,0.357,0.289,113.4,168.4,49.3,0,2018,5,1,18,34,33.818,-0.3789,-0.3028,-0.4104,0.7721
-0.023,0.39,0.168,99.7,82.3,51.9,0,2018,5,1,18,34,33.82,-0.3728,-0.2937,-0.3885,0.7897
-0.031,0.145,0.046,99.3,55.4,64.6,0,2018,5,1,18,34,33.855,-0.3683,-0.2797,-0.3772,0.8023
0.019,0.136,-0.056,97.3,46.1,75.7,0,2018,5,1,18,34,33.875,-0.3626,-0.2641,-0.3682,0.8142
-0.157,0.1,-0.004,101.5,97.9,76.8,0,2018,5,1,18,34,33.88,-0.3546,-0.2495,-0.355,0.8281
-0.094,0.291,-0.07,101.8,109.2,89.9,0,2018,5,1,18,34,33.914,-0.3441,-0.2361,-0.337,0.8439
0.067,0.238,-0.291,108.5,116.3,98.2,0,2018,5,1,18,34,33.937,-0.3317,-0.2217,-0.3179,0.86
-0.061,0.405,-0.37,121.7,108.4,110.7,0,2018,5,1,18,34,33.945,-0.3177,-0.2054,-0.2978,0.8764
-0.239,0.516,-0.214,128.7,73.7,129.9,0,2018,5,1,18,34,33.983,-0.3025,-0.1845,-0.2816,0.8916
-0.258,0.383,-0.25,136.5,68.3,149.6,0,2018,5,1,18,34,33.985,-0.2847,-0.1608,-0.2678,0.9062
-0.191,0.15,0.165,128.9,13.9,166.8,0,2018,5,1,18,34,34.018,-0.2645,-0.1341,-0.2588,0.9192
-0.145,-0.371,0.579,97.9,-62.4,176.7,0,2018,5,1,18,34,34.039,-0.2421,-0.1069,-0.2612,0.9282
0.048,-0.347,0.476,54.7,-196,165.3,0,2018,5,1,18,34,34.041,-0.2198,-0.0809,-0.2818,0.9304
0.158,-0.503,0.021,6.1,-234.3,143.8,0,2018,5,1,18,34,34.076,-0.1988,-0.06,-0.3201,0.9243
0.145,-0.55,-0.293,-12.2,-153.7,117.1,0,2018,5,1,18,34,34.097,-0.1795,-0.0465,-0.3536,0.9167
0.103,-0.765,-0.082,-13.5,-44.3,73,0,2018,5,1,18,34,34.103,-0.1643,-0.0398,-0.3697,0.9136
0.079,-0.919,0.311,-29.5,-39.1,23.5,0,2018,5,1,18,34,34.142,-0.1559,-0.0391,-0.3763,0.9124
0.029,-0.857,0.419,-49,-91.5,-20.3,0,2018,5,1,18,34,34.162,-0.1539,-0.0437,-0.3875,0.9078
0.08,-0.531,0.323,-66.9,-156.4,-52.6,0,2018,5,1,18,34,34.166,-0.1569,-0.0521,-0.4093,0.8972
0.147,-0.314,0.35,-79.4,-174.7,-79.2,0,2018,5,1,18,34,34.205,-0.1635,-0.0636,-0.4368,0.8822
0.109,-0.408,0.33,-87.8,-137.6,-107.7,0,2018,5,1,18,34,34.224,-0.1733,-0.0792,-0.4622,0.866
0.138,-0.28,0.285,-93.4,-94.5,-134,1023,2018,5,1,18,34,34.228,-0.186,-0.0992,-0.4797,0.8516
0.164,-0.249,0.151,-93.3,-62.2,-157.2,1023,2018,5,1,18,34,34.249,-0.2012,-0.1227,-0.4914,0.8383
0.119,-0.152,0.121,-90.5,-62.2,-174.3,1023,2018,5,1,18,34,34.268,-0.2193,-0.1486,-0.4994,0.8248
0.063,-0.246,0.105,-85.1,-57.7,-195.6,1023,2018,5,1,18,34,34.284,-0.2398,-0.1745,-0.5069,0.8092
0.015,-0.102,0.091,-81.4,-46.8,-212.4,1023,2018,5,1,18,34,34.303,-0.2625,-0.2015,-0.511,0.7932
-0.034,0.017,0.039,-77.4,-65.8,-223.8,1023,2018,5,1,18,34,34.337,-0.2874,-0.2288,-0.5139,0.7751
-0.132,0.076,0.037,-69.5,-91.1,-227.8,1023,2018,5,1,18,34,34.356,-0.3147,-0.2544,-0.5184,0.7532
-0.124,0.173,0.01,-59.2,-97.6,-225.8,1023,2018,5,1,18,34,34.365,-0.343,-0.2776,-0.5235,0.7288
-0.159,0.115,-0.004,-50,-97.3,-217.5,1023,2018,5,1,18,34,34.398,-0.3711,-0.2984,-0.5278,0.7032
-0.168,0.09,0.062,-44.7,-81.3,-206.3,1023,2018,5,1,18,34,34.419,-0.3976,-0.3172,-0.5296,0.6787
-0.089,0.235,0.167,-43.8,-70.7,-190.3,1023,2018,5,1,18,34,34.427,-0.421,-0.3353,-0.5303,0.6549
-0.062,0.202,0.202,-42.4,-65.3,-178.7,1023,2018,5,1,18,34,34.461,-0.4418,-0.3521,-0.5304,0.6319
-0.045,0.255,0.291,-39,-44,-161.7,1023,2018,5,1,18,34,34.482,-0.4601,-0.3679,-0.5293,0.6104
0.014,0.329,0.243,-43.7,-22.8,-135.5,1023,2018,5,1,18,34,34.49,-0.4739,-0.3834,-0.5261,0.5928
0.011,0.126,-0.187,-40.7,-46.4,-116.1,1023,2018,5,1,18,34,34.528,-0.4849,-0.3966,-0.525,0.5761
-0.23,0.76,0,-55.6,-148.1,-70.8,1023,2018,5,1,18,34,34.549,-0.4976,-0.4005,-0.5336,0.5541
-0.589,-0.053,-0.497,-58,-106.1,-47.8,1023,2018,5,1,18,34,34.554,-0.5069,-0.3996,-0.5479,0.5319
-1.015,-0.394,-0.387,-58.7,-27,-35.9,1023,2018,5,1,18,34,34.574,-0.5098,-0.4029,-0.5563,0.5178
-0.989,-0.543,-0.886,-54.6,3.4,-32.6,0,2018,5,1,18,34,34.587,-0.5073,-0.4115,-0.5593,0.5103
-0.642,-0.551,-1.204,-7.3,29.6,-24.1,0,2018,5,1,18,34,34.624,-0.5057,-0.4182,-0.5592,0.5065
-0.61,-0.25,-0.554,35.9,96.4,-12.2,0,2018,5,1,18,34,34.643,-0.5045,-0.4239,-0.5505,0.5123
-0.484,0.154,0.255,28.8,119.5,7.5,0,2018,5,1,18,34,34.647,-0.4992,-0.4314,-0.5366,0.5259
-0.308,0.371,0.209,10.2,49.2,43.9,0,2018,5,1,18,34,34.682,-0.4922,-0.4342,-0.5296,0.5371
0.156,0.22,0.152,9.8,46,69.4,0,2018,5,1,18,34,34.703,-0.4842,-0.4317,-0.5297,0.5463
0.394,0.439,0.316,15.6,21.8,78.6,0,2018,5,1,18,34,34.708,-0.4753,-0.4267,-0.5305,0.5571
0.623,0.536,0.56,8,-37.7,77.8,0,2018,5,1,18,34,34.744,-0.4696,-0.4171,-0.5367,0.5632
0.865,0.236,0.552,-0.8,-46.3,57.2,0,2018,5,1,18,34,34.765,-0.4665,-0.4066,-0.5459,0.5648
0.905,0.04,0.373,-11.4,-25.9,21.5,0,2018,5,1,18,34,34.77,-0.4647,-0.4003,-0.553,0.5637
0.678,0.127,0.281,-20.4,-3.7,-7.8,0,2018,5,1,18,34,34.809,-0.4634,-0.4007,-0.5556,0.562
0.344,0.202,0.099,-27.1,-33.2,-13.9,0,2018,5,1,18,34,34.827,-0.4635,-0.403,-0.5584,0.5575
0.081,-0.451,-0.398,-26.5,-32.4,-17.7,0,2018,5,1,18,34,34.829,-0.465,-0.4041,-0.5638,0.5499
-0.205,-0.651,-0.433,-24.6,-6.4,-33.6,0,2018,5,1,18,34,34.864,-0.4662,-0.4078,-0.5659,0.5439
-0.627,-0.388,-0.549,-14.2,-6.8,-41,0,2018,5,1,18,34,34.884,-0.4682,-0.4135,-0.5648,0.539
-1.056,0.289,-0.222,-16.5,-76.7,-14.2,0,2018,5,1,18,34,34.888,-0.4729,-0.4143,-0.5677,0.5313
-0.783,-0.101,-0.454,-15.6,-19,22.9,0,2018,5,1,18,34,34.922,-0.4745,-0.4102,-0.5755,0.5245
-0.297,-0.402,-0.48,5.7,80,30.1,1023,2018,5,1,18,34,34.941,-0.4689,-0.4108,-0.5745,0.5303
-0.084,-0.147,-0.303,25.3,80.3,19.7,1023,2018,5,1,18,34,34.95,-0.4614,-0.4142,-0.5663,0.5428
-0.13,-0.077,0.148,21.9,13.7,6.6,1023,2018,5,1,18,34,34.985,-0.4595,-0.4139,-0.561,0.5501
-0.164,0,0.348,8.4,41.8,2.1,1023,2018,5,1,18,34,35.005,-0.4592,-0.4138,-0.5581,0.5535
0.061,0.142,0.245,-2.3,100.1,6.3,1023,2018,5,1,18,34,35.014,-0.4536,-0.419,-0.5513,0.5609
0.254,0.288,0.185,-2.2,147,8.9,1023,2018,5,1,18,34,35.052,-0.4431,-0.4286,-0.5396,0.5732
0.378,0.326,0.298,-5.6,172.8,10.8,1023,2018,5,1,18,34,35.072,-0.4295,-0.4403,-0.5244,0.5885
0.603,0.341,0.405,-12,174.8,8.2,1023,2018,5,1,18,34,35.074,-0.4137,-0.4534,-0.5077,0.6044
0.663,0.241,0.291,-20.2,144.3,-5,1023,2018,5,1,18,34,35.108,-0.3992,-0.4664,-0.492,0.6171
0.459,0.089,0.106,-23.7,98.4,-22.2,1023,2018,5,1,18,34,35.127,-0.389,-0.4784,-0.4795,0.6243
0.374,0.098,0.033,-23.6,61.3,-35.5,1023,2018,5,1,18,34,35.128,-0.3843,-0.4891,-0.4693,0.6267
0.349,0.053,-0.109,-19.2,48.7,-38.4,1023,2018,5,1,18,34,35.161,-0.3819,-0.4982,-0.4619,0.6264
0.056,-0.093,-0.056,-16.5,35.9,-36.6,1023,2018,5,1,18,34,35.182,-0.3814,-0.5062,-0.4555,0.625
-0.091,0.279,-0.039,-22.1,4.2,-18.3,1023,2018,5,1,18,34,35.194,-0.381,-0.5119,-0.4519,0.6232
-0.432,0.038,-0.306,-21,-61.9,-6.1,1023,2018,5,1,18,34,35.228,-0.3834,-0.5129,-0.4562,0.6177
-0.615,-0.212,-0.602,-0.3,-46,11.8,1023,2018,5,1,18,34,35.249,-0.3872,-0.5098,-0.4641,0.612
-0.715,-0.325,-0.452,15.3,-6.2,21.2,0,2018,5,1,18,34,35.252,-0.3882,-0.5059,-0.4676,0.6119
-0.398,-0.238,-0.441,23.2,21.2,30.9,0,2018,5,1,18,34,35.288,-0.3863,-0.5022,-0.4676,0.6162
-0.213,-0.129,-0.3,21,-0.4,29.6,0,2018,5,1,18,34,35.311,-0.3837,-0.4981,-0.4671,0.6215
-0.114,0.117,-0.281,16.2,-48.5,34.6,0,2018,5,1,18,34,35.319,-0.3839,-0.492,-0.4716,0.6229
-0.214,-0.074,-0.08,11.6,-80.6,40.3,0,2018,5,1,18,34,35.338,-0.387,-0.4826,-0.4822,0.6202
-0.085,0.031,0,11.4,-62.1,39.3,0,2018,5,1,18,34,35.354,-0.3892,-0.4731,-0.4922,0.6183
-0.043,0.132,0.02,8.6,-86,44,0,2018,5,1,18,34,35.39,-0.3926,-0.4636,-0.5022,0.6152
0.035,0.103,0,7.9,-103.9,50.8,0,2018,5,1,18,34,35.41,-0.3967,-0.4523,-0.515,0.6104
0.175,0.046,0.047,10.4,-127.1,52.1,0,2018,5,1,18,34,35.415,-0.4017,-0.4389,-0.5304,0.6037
0.335,0.017,0.248,9.3,-133.7,46.5,0,2018,5,1,18,34,35.451,-0.4078,-0.4237,-0.5469,0.5956
0.33,-0.059,0.549,-1.6,-96.6,38.2,0,2018,5,1,18,34,35.471,-0.4124,-0.4107,-0.5623,0.5872
0.395,0.032,0.547,-15.2,-73.7,25.4,0,2018,5,1,18,34,35.476,-0.414,-0.4027,-0.5735,0.5808
0.5,-0.038,0.281,-24.6,-81.3,9.4,0,2018,5,1,18,34,35.512,-0.4154,-0.3976,-0.5842,0.5726
0.467,0.155,0.173,-30,-118.8,-3.6,0,2018,5,1,18,34,35.531,-0.4192,-0.3929,-0.596,0.5607
0.34,0.215,-0.164,-24,-159.9,-11.1,0,2018,5,1,18,34,35.534,-0.4268,-0.3861,-0.6114,0.543
0.136,0.009,-0.228,-16.4,-132.6,-7.7,0,2018,5,1,18,34,35.57,-0.4358,-0.3774,-0.6269,0.5239
-0.017,-0.023,-0.319,-11.5,-43.4,-5.7,0,2018,5,1,18,34,35.59,-0.4406,-0.3729,-0.6355,0.5126
-0.173,-0.019,-0.422,0.1,-1.2,-3.1,0,2018,5,1,18,34,35.593,-0.4413,-0.3727,-0.6369,0.5104
-0.379,-0.121,-0.295,7.8,1.8,-0.8,0,2018,5,1,18,34,35.633,-0.442,-0.3726,-0.6363,0.5107
-0.54,-0.159,-0.101,5.6,-22.8,-1.3,0,2018,5,1,18,34,35.653,-0.4434,-0.3714,-0.6363,0.5103
-0.513,-0.353,-0.085,-4.1,-10.2,-0.8,0,2018,5,1,18,34,35.657,-0.4451,-0.3695,-0.6386,0.5073
-0.335,-0.294,-0.132,-3.1,70.6,-3.9,1023,2018,5,1,18,34,35.695,-0.4427,-0.3727,-0.6359,0.5105
-0.144,0.047,-0.081,1.4,101.5,-1.7,1023,2018,5,1,18,34,35.713,-0.4367,-0.3802,-0.6275,0.5203
-0.076,-0.004,-0.163,8.8,98.5,-0.3,1023,2018,5,1,18,34,35.718,-0.4307,-0.3875,-0.618,0.5312
-0.032,-0.022,-0.143,13.4,133.7,-2.1,1023,2018,5,1,18,34,35.754,-0.4242,-0.395,-0.6064,0.5441
0.006,0.348,-0.204,14.5,148.3,1.9,1023,2018,5,1,18,34,35.773,-0.4153,-0.4047,-0.5909,0.5606
0,0.55,-0.139,15.2,86.7,18.5,1023,2018,5,1,18,34,35.777,-0.4074,-0.4108,-0.5787,0.5746
0.005,0.512,-0.166,14.6,19.3,36.3,1023,2018,5,1,18,34,35.81,-0.4024,-0.41,-0.5747,0.5827
-0.036,0.11,-0.12,17.9,-8.3,48.6,1023,2018,5,1,18,34,35.832,-0.3996,-0.4039,-0.5768,0.5868
0.036,-0.123,-0.055,23.9,32.8,51,1023,2018,5,1,18,34,35.837,-0.3954,-0.3973,-0.5781,0.5928
0.162,0.052,0.013,25.6,34.9,52.1,1023,2018,5,1,18,34,35.874,-0.3897,-0.3922,-0.5756,0.6024
0.27,0.232,0.137,24.1,-33.1,53.5,1023,2018,5,1,18,34,35.894,-0.3867,-0.3844,-0.5772,0.6078
0.387,0.122,0.354,22.3,-82.6,47.4,1023,2018,5,1,18,34,35.895,-0.3878,-0.3724,-0.5858,0.6063
0.523,-0.068,0.382,17.5,-82.8,27.4,1023,2018,5,1,18,34,35.931,-0.3913,-0.3605,-0.5961,0.6011
0.533,0.125,0.306,11,-98.2,6.8,1023,2018,5,1,18,34,35.954,-0.3965,-0.3515,-0.6052,0.594
0.434,0.241,0.247,1.2,-152.6,0,1023,2018,5,1,18,34,35.961,-0.4046,-0.3418,-0.6181,0.5807
0.277,0.313,0.017,-7.9,-212.6,4.2,1023,2018,5,1,18,34,35.999,-0.415,-0.3286,-0.6373,0.5599
0.09,-0.031,-0.191,-10.2,-185.9,6.2,1023,2018,5,1,18,34,36.018,-0.4249,-0.3137,-0.6583,0.5362
-0.08,0.094,-0.377,-1.4,-111.3,13,1023,2018,5,1,18,34,36.023,-0.4312,-0.3023,-0.6728,0.5194
-0.227,0.072,-0.503,9.9,-82.1,23.2,1023,2018,5,1,18,34,36.044,-0.435,-0.2927,-0.682,0.5097
-0.436,-0.032,-0.545,23.4,-59.7,34,1023,2018,5,1,18,34,36.064,-0.4378,-0.2825,-0.6882,0.5047
-0.552,-0.134,-0.469,32.3,-56,39.2,1023,2018,5,1,18,34,36.101,-0.4408,-0.271,-0.6931,0.5017
-0.688,-0.299,-0.308,35.6,-23.6,39.9,0,2018,5,1,18,34,36.12,-0.4434,-0.2599,-0.6958,0.5015
-0.64,-0.429,-0.195,33.9,15.4,33.6,0,2018,5,1,18,34,36.121,-0.4445,-0.2521,-0.6951,0.5055
-0.435,-0.429,-0.074,28.1,53.4,23,0,2018,5,1,18,34,36.154,-0.4443,-0.2486,-0.6907,0.5134
-0.339,-0.081,0.129,12.5,32,17.2,0,2018,5,1,18,34,36.174,-0.443,-0.2482,-0.6856,0.5214
-0.194,-0.185,-0.007,6.5,26.1,18.6,0,2018,5,1,18,34,36.181,-0.4413,-0.2471,-0.6837,0.526
-0.003,-0.157,-0.025,9.3,55.1,17.1,0,2018,5,1,18,34,36.214,-0.4386,-0.2469,-0.6804,0.5324
0.045,-0.028,0.068,13.2,74.7,12.6,0,2018,5,1,18,34,36.233,-0.4354,-0.2486,-0.6737,0.5428
0.17,0.103,0.171,13.8,78.4,13.7,0,2018,5,1,18,34,36.24,-0.4328,-0.2515,-0.6657,0.5532
0.382,0.274,0.316,11.1,81.7,19.3,0,2018,5,1,18,34,36.273,-0.429,-0.2546,-0.6574,0.5647
0.586,0.256,0.43,5.2,35.6,19.1,0,2018,5,1,18,34,36.295,-0.4252,-0.2559,-0.6519,0.5732
0.706,0.201,0.446,-2.1,-5,10.5,0,2018,5,1,18,34,36.304,-0.4234,-0.2549,-0.6513,0.5757
0.54,0.17,0.295,-2.4,-16,2.2,0,2018,5,1,18,34,36.342,-0.4231,-0.2535,-0.6534,0.5741
0.43,0.196,0.258,-2.1,0.1,-0.9,0,2018,5,1,18,34,36.347,-0.4232,-0.2532,-0.6545,0.5729
0.318,0.079,0.075,-0.9,-36.7,-0.3,0,2018,5,1,18,34,36.361,-0.4236,-0.2525,-0.656,0.5712
0.205,-0.158,-0.078,-0.6,-84,-4.4,0,2018,5,1,18,34,36.396,-0.427,-0.2482,-0.6625,0.563
-0.018,-0.271,-0.149,-1,-76.9,-13.4,0,2018,5,1,18,34,36.415,-0.431,-0.243,-0.6706,0.5525
-0.257,-0.139,-0.244,-6.4,-55.3,-14.7,0,2018,5,1,18,34,36.421,-0.4349,-0.24,-0.6772,0.5427
-0.723,-0.298,-0.41,-3.6,-26.5,-14.8,1023,2018,5,1,18,34,36.454,-0.4373,-0.2393,-0.6806,0.5367
-1.155,-0.41,-0.386,-3.4,-6.8,-11,1023,2018,5,1,18,34,36.474,-0.439,-0.2398,-0.6821,0.5333
-0.673,-0.271,-0.385,0.3,38.4,-6.4,1023,2018,5,1,18,34,36.482,-0.4387,-0.2424,-0.6801,0.5349
-0.408,-0.32,-0.217,1.2,62.5,-10.7,1023,2018,5,1,18,34,36.517,-0.4377,-0.247,-0.6749,0.5401
-0.231,-0.097,-0.264,4.6,82.1,-11.9,1023,2018,5,1,18,34,36.54,-0.4358,-0.2541,-0.6669,0.5483
-0.328,-0.028,-0.179,8.9,71.2,-8.9,1023,2018,5,1,18,34,36.546,-0.4341,-0.2605,-0.6586,0.5566
-0.281,0.083,-0.007,15,75.6,5.1,1023,2018,5,1,18,34,36.583,-0.4322,-0.2648,-0.6506,0.5654
-0.105,0.208,0.023,21.5,66,20.5,1023,2018,5,1,18,34,36.603,-0.4299,-0.2669,-0.6421,0.5757
0.248,0.227,0.235,17.9,67.6,36.4,1023,2018,5,1,18,34,36.605,-0.4264,-0.2661,-0.6357,0.5858
0.531,0.38,0.434,6.4,87.9,36.8,1023,2018,5,1,18,34,36.637,-0.4201,-0.2667,-0.6284,0.5978
0.727,0.59,0.561,-7.9,34.3,26.4,1023,2018,5,1,18,34,36.658,-0.4138,-0.268,-0.6234,0.6067
0.711,0.225,0.551,-24.2,9,11.5,0,2018,5,1,18,34,36.661,-0.4093,-0.2687,-0.6244,0.6085
0.656,-0.037,0.356,-37.7,20.1,-11.6,0,2018,5,1,18,34,36.695,-0.4051,-0.2732,-0.625,0.6086
0.584,0.076,0.222,-43.5,3.6,-33.3,0,2018,5,1,18,34,36.718,-0.4024,-0.2813,-0.6252,0.6066
0.322,0.083,0.254,-51.3,-61.5,-44.6,0,2018,5,1,18,34,36.724,-0.403,-0.2884,-0.6301,0.5977
0.129,-0.259,0.023,-53.9,-65.9,-57.5,0,2018,5,1,18,34,36.759,-0.4056,-0.2946,-0.6382,0.5841
-0.199,-0.586,-0.221,-54.7,-74.2,-72.8,0,2018,5,1,18,34,36.781,-0.4098,-0.302,-0.6462,0.5684
-0.533,-0.159,-0.616,-35.3,-57.4,-68.9,0,2018,5,1,18,34,36.785,-0.415,-0.3103,-0.6517,0.5537
-1.116,-0.409,-0.772,-5.6,-32.7,-56.7,0,2018,5,1,18,34,36.824,-0.4214,-0.3158,-0.6543,0.5426
-1.244,-0.231,-0.337,-1,26,-29.5,0,2018,5,1,18,34,36.844,-0.4254,-0.3204,-0.6527,0.5387
-0.616,-0.422,-0.385,1.5,91.1,-19.8,0,2018,5,1,18,34,36.847,-0.4239,-0.328,-0.6449,0.5447
-0.272,-0.287,-0.331,-0.6,62.9,-14.3,0,2018,5,1,18,34,36.866,-0.4209,-0.3354,-0.6367,0.552
-0.195,-0.226,-0.145,4.2,96.7,-15.9,0,2018,5,1,18,34,36.9,-0.4179,-0.3428,-0.6283,0.5594
-0.066,0.165,0.114,6.8,85.2,-6.4,0,2018,5,1,18,34,36.919,-0.4143,-0.3501,-0.6177,0.5693
0.403,0.352,0.262,2.1,92.5,0.4,0,2018,5,1,18,34,36.924,-0.4098,-0.3561,-0.6086,0.5785
0.69,0.74,0.633,-5.8,93.1,-6.4,0,2018,5,1,18,34,36.958,-0.4038,-0.3633,-0.5987,0.5884
0.803,1.039,0.988,-25.9,59.8,-10.4,0,2018,5,1,18,34,36.977,-0.3983,-0.3713,-0.5912,0.5948
0.68,0.665,0.704,-53.9,29.5,-13.4,0,2018,5,1,18,34,36.985,-0.3926,-0.3796,-0.5894,0.5951
0.695,0.221,0.431,-76.4,38.5,-23.4,0,2018,5,1,18,34,37.019,-0.3855,-0.3905,-0.5894,0.5927
0.547,0.06,0.094,-98.1,-38.1,-39.8,0,2018,5,1,18,34,37.039,-0.379,-0.4034,-0.5927,0.5848
0.138,-0.546,-0.471,-99.2,-131.4,-68.6,0,2018,5,1,18,34,37.047,-0.3809,-0.4131,-0.6054,0.5636
-0.358,-1.04,-1.352,-62.4,-106.1,-98.8,0,2018,5,1,18,34,37.083,-0.3893,-0.4219,-0.6172,0.5378
-1.157,-0.892,-1.453,12.9,-24.8,-100.6,0,2018,5,1,18,34,37.103,-0.4006,-0.4308,-0.6174,0.522
-1.789,-0.014,0.261,-7.3,-39.3,-51.7,0,2018,5,1,18,34,37.104,-0.4119,-0.436,-0.6144,0.5124
-0.674,-0.291,-0.059,-29.5,63.7,-15.8,0,2018,5,1,18,34,37.14,-0.4113,-0.4421,-0.612,0.5105
-0.164,-0.114,-0.436,-30.6,57.7,9,1023,2018,5,1,18,34,37.161,-0.4027,-0.4502,-0.6084,0.5145
-0.096,-0.441,-0.32,-8.3,88.3,13.1,1023,2018,5,1,18,34,37.167,-0.3942,-0.4556,-0.6043,0.5212
0.053,0.112,0.025,5.2,56.8,17.5,1023,2018,5,1,18,34,37.208,-0.3867,-0.4596,-0.5977,0.5308
0.399,0.288,0.292,3,42.6,19.2,1023,2018,5,1,18,34,37.228,-0.3822,-0.46,-0.5951,0.5366
0.806,0.861,0.664,-1.4,36,6.5,1023,2018,5,1,18,34,37.231,-0.3776,-0.4615,-0.5917,0.5424
1.032,0.907,0.837,-18.5,14.8,-7.8,1023,2018,5,1,18,34,37.268,-0.375,-0.4639,-0.5906,0.5433
0.778,0.526,0.401,-24.9,34.6,-28.4,1023,2018,5,1,18,34,37.286,-0.3722,-0.4697,-0.5885,0.5426
0.625,0.314,0.261,-29.5,39.5,-45.9,1023,2018,5,1,18,34,37.287,-0.37,-0.4786,-0.5837,0.5415
0.309,0.158,0.109,-39.6,24.5,-50.6,1023,2018,5,1,18,34,37.323,-0.3683,-0.4889,-0.579,0.5384
0.014,-0.441,-0.361,-33.9,16.1,-66.4,1023,2018,5,1,18,34,37.344,-0.3685,-0.4995,-0.5748,0.5331
-0.514,-0.603,0.133,-54.2,-10.5,-65.9,1023,2018,5,1,18,34,37.346,-0.37,-0.5103,-0.5713,0.5255
-0.651,-0.333,-0.2,-59.4,-98.2,-52.4,1023,2018,5,1,18,34,37.38,-0.3743,-0.5182,-0.5737,0.5118
-0.582,-0.475,-0.336,-54.9,-91.2,-39.5,1023,2018,5,1,18,34,37.401,-0.3818,-0.5208,-0.5836,0.4921
-0.307,-0.669,-0.425,-35.7,34.3,-41,1023,2018,5,1,18,34,37.41,-0.3829,-0.5267,-0.5861,0.4819
-0.081,-0.784,-0.284,-5.4,179.5,-59.4,1023,2018,5,1,18,34,37.45,-0.3745,-0.5408,-0.5735,0.488
-0.021,-0.047,0.138,4.2,211.5,-78,0,2018,5,1,18,34,37.47,-0.3608,-0.5611,-0.5486,0.5039
-0.061,0.283,0.037,-3.2,167.7,-76.3,0,2018,5,1,18,34,37.474,-0.3489,-0.58,-0.5243,0.5166
0.036,0.541,-0.725,-3.4,151.3,-68.2,0,2018,5,1,18,34,37.494,-0.3391,-0.5966,-0.5034,0.5248
-0.323,0.575,-0.976,30.2,214,-50.1,0,2018,5,1,18,34,37.514,-0.3264,-0.6112,-0.4792,0.5386
-0.579,0.505,-0.151,32.6,175.8,-25.2,0,2018,5,1,18,34,37.551,-0.3111,-0.622,-0.4541,0.5568
-0.436,0.128,0.002,7.7,123.9,-3.4,0,2018,5,1,18,34,37.572,-0.2977,-0.629,-0.4373,0.5695
-0.156,-0.036,-0.487,-3.4,127.8,10.7,0,2018,5,1,18,34,37.576,-0.2834,-0.6351,-0.4257,0.5788
-0.011,0.001,-0.45,7.3,114.3,22.7,0,2018,5,1,18,34,37.593,-0.2682,-0.6395,-0.4156,0.5884
-0.021,0.019,-0.05,22.7,96.4,28.5,0,2018,5,1,18,34,37.612,-0.2549,-0.6409,-0.4065,0.599
-0.007,-0.289,-0.038,22.8,110.9,28.9,0,2018,5,1,18,34,37.632,-0.2425,-0.6408,-0.3984,0.6097
0.101,-0.038,-0.218,27.8,106.1,28,0,2018,5,1,18,34,37.653,-0.2285,-0.6408,-0.3884,0.6214
0.04,0.035,-0.306,45.4,79.5,25.9,0,2018,5,1,18,34,37.673,-0.2173,-0.6387,-0.3799,0.6327
0.001,-0.077,-0.174,66.4,75.3,15.5,0,2018,5,1,18,34,37.693,-0.2105,-0.6338,-0.372,0.6445
0.001,0.273,0.082,82.8,70,11.3,0,2018,5,1,18,34,37.714,-0.2059,-0.6273,-0.3616,0.6582
0.085,0.4,0.176,85,32.3,21.5,0,2018,5,1,18,34,37.734,-0.2037,-0.6182,-0.3543,0.6712
0.134,0.178,0.067,85.1,10.6,28.3,0,2018,5,1,18,34,37.755,-0.204,-0.6072,-0.3521,0.6823
0.145,0.053,0.046,90.6,18.2,25.2,0,2018,5,1,18,34,37.774,-0.2054,-0.5956,-0.3492,0.6935
-0.134,-0.03,0.445,89.9,27.6,21.1,0,2018,5,1,18,34,37.793,-0.2065,-0.5838,-0.3453,0.7051
0.436,0.308,0.143,69.3,28.9,14.1,0,2018,5,1,18,34,37.812,-0.2059,-0.574,-0.3402,0.7157
0.116,0.156,-0.068,68.5,32.9,16.3,0,2018,5,1,18,34,37.832,-0.205,-0.5658,-0.336,0.7244
0.319,0.196,0.162,66.1,32.5,22.7,1023,2018,5,1,18,34,37.872,-0.2032,-0.5571,-0.3312,0.7338
0.36,0.3,0.404,44.2,-24.5,22.1,1023,2018,5,1,18,34,37.893,-0.2024,-0.5489,-0.3299,0.7408
0.437,0.065,0.313,17.6,-97.8,17.3,1023,2018,5,1,18,34,37.897,-0.2078,-0.5414,-0.3393,0.7406
0.477,-0.14,0.219,-5.3,-135.6,-0.8,1023,2018,5,1,18,34,37.912,-0.2187,-0.5352,-0.3548,0.7347
0.408,-0.152,0.129,-25.6,-142.1,-28.3,1023,2018,5,1,18,34,37.933,-0.2329,-0.5322,-0.3715,0.7241
0.265,-0.104,0.072,-41.7,-113.7,-50.3,1023,2018,5,1,18,34,37.973,-0.2482,-0.5333,-0.3851,0.711
0.179,0.074,-0.086,-40.4,-79.6,-63.7,1023,2018,5,1,18,34,37.993,-0.2614,-0.5384,-0.3927,0.6981
0.125,0.118,-0.303,-21.7,-58.5,-65.9,1023,2018,5,1,18,34,37.997,-0.2731,-0.5438,-0.3959,0.6876
0.079,-0.028,-0.256,-8.4,-94,-67.5,1023,2018,5,1,18,34,38.036,-0.2874,-0.5463,-0.399,0.6779
-0.083,-0.007,-0.267,6.7,-114.9,-64.7,1023,2018,5,1,18,34,38.055,-0.3052,-0.5458,-0.4047,0.667
-0.271,0.203,0.254,-3.8,-154.3,-44.5,1023,2018,5,1,18,34,38.059,-0.3251,-0.5418,-0.4152,0.6543
-0.041,0.248,-0.184,-4.7,-162.1,-30.6,1023,2018,5,1,18,34,38.097,-0.3434,-0.536,-0.4296,0.6403
-0.04,0.307,-0.175,-8.4,-223.2,-18.3,1023,2018,5,1,18,34,38.117,-0.3636,-0.5267,-0.4489,0.6234
-0.154,0.264,-0.053,-17.1,-250.9,0.6,1023,2018,5,1,18,34,38.121,-0.3852,-0.513,-0.475,0.6023
-0.158,0.111,-0.398,-14.5,-221,9.5,1023,2018,5,1,18,34,38.136,-0.404,-0.4978,-0.5012,0.581
-0.122,0.075,-0.4,-2.6,-147,15.2,1023,2018,5,1,18,34,38.156,-0.418,-0.4842,-0.5215,0.5645
-0.132,0.165,-0.304,7.7,-75.8,22.1,0,2018,5,1,18,34,38.175,-0.4249,-0.4747,-0.5327,0.5569
-0.183,0.047,-0.14,10.3,-108.3,29.6,0,2018,5,1,18,34,38.215,-0.4307,-0.4646,-0.5431,0.551
-0.124,-0.221,-0.029,9,-96.9,29.1,0,2018,5,1,18,34,38.235,-0.4373,-0.4526,-0.5553,0.5434
-0.119,-0.412,-0.006,10.4,-44.8,17.8,0,2018,5,1,18,34,38.24,-0.4417,-0.4439,-0.5632,0.5389
-0.105,-0.107,-0.005,7.8,-27,9.7,0,2018,5,1,18,34,38.258,-0.4436,-0.4393,-0.5662,0.5381
-0.137,-0.075,-0.167,5.6,-50.6,8.2,0,2018,5,1,18,34,38.277,-0.4461,-0.4345,-0.5705,0.5353
-0.217,-0.301,-0.361,12,-42.1,3,0,2018,5,1,18,34,38.318,-0.4501,-0.4292,-0.5751,0.5312
-0.287,-0.319,-0.413,24.4,7.4,-5.9,0,2018,5,1,18,34,38.338,-0.4534,-0.4263,-0.5753,0.5306
-0.259,-0.033,-0.264,32,54,-6.6,0,2018,5,1,18,34,38.342,-0.4544,-0.4271,-0.5694,0.5354
-0.192,0.167,-0.012,30.4,43,-4.7,0,2018,5,1,18,34,38.356,-0.4543,-0.4291,-0.5616,0.5421
-0.134,0.108,0.023,22.6,15.4,5.2,0,2018,5,1,18,34,38.378,-0.455,-0.4289,-0.5571,0.5464
-0.043,-0.103,-0.026,22.1,40.9,8.9,0,2018,5,1,18,34,38.398,-0.4547,-0.4275,-0.5538,0.5509
0.031,0.004,0.052,27.3,82.8,5.5,0,2018,5,1,18,34,38.437,-0.4512,-0.429,-0.5459,0.5605
0.001,-0.018,0.043,27.1,68.1,1.8,0,2018,5,1,18,34,38.441,-0.4482,-0.4315,-0.5359,0.5706
0.004,0.033,-0.066,29.3,53.4,-1.7,0,2018,5,1,18,34,38.457,-0.4465,-0.4335,-0.5275,0.5782
-0.023,0.006,-0.073,33.9,67.6,2.4,0,2018,5,1,18,34,38.494,-0.4452,-0.435,-0.5196,0.5852
-0.104,0.153,0.106,38.9,92.9,5.8,0,2018,5,1,18,34,38.515,-0.4419,-0.4372,-0.5082,0.5959
-0.137,0.094,0.187,33.5,73.9,14.4,0,2018,5,1,18,34,38.519,-0.4376,-0.439,-0.4974,0.6068
-0.085,0.014,0.069,27.3,68.4,20.2,0,2018,5,1,18,34,38.559,-0.4333,-0.4392,-0.4891,0.6164
-0.078,-0.102,-0.099,27.3,110.6,24.1,0,2018,5,1,18,34,38.564,-0.4264,-0.4405,-0.4795,0.6277
-0.062,0.025,-0.112,34.6,143,25.3,1023,2018,5,1,18,34,38.58,-0.4159,-0.4449,-0.4648,0.6426
-0.05,0.131,-0.097,40.3,124,27.9,1023,2018,5,1,18,34,38.616,-0.4054,-0.4488,-0.4488,0.6577
-0.069,0.05,-0.032,43.4,87.1,32.3,1023,2018,5,1,18,34,38.636,-0.3974,-0.4491,-0.436,0.6709
-0.073,0.032,-0.049,47.9,72.8,34.6,1023,2018,5,1,18,34,38.641,-0.3911,-0.4465,-0.4263,0.6825
-0.075,0.114,-0.056,56.1,81.2,37.6,1023,2018,5,1,18,34,38.662,-0.3849,-0.4431,-0.4161,0.6944
-0.1,0.246,-0.029,67.6,82.4,47,1023,2018,5,1,18,34,38.682,-0.378,-0.4381,-0.4051,0.7078
-0.189,0.304,0.017,79,98.2,63.6,1023,2018,5,1,18,34,38.7,-0.3695,-0.4309,-0.3937,0.7229
-0.241,0.424,-0.019,97.3,109.2,85.7,1023,2018,5,1,18,34,38.723,-0.3578,-0.4215,-0.3802,0.7413
-0.305,0.356,0.028,114.9,77.9,104.3,1023,2018,5,1,18,34,38.758,-0.3453,-0.407,-0.3684,0.761
-0.265,0.21,0.184,126.7,40.4,114.9,1023,2018,5,1,18,34,38.778,-0.334,-0.3873,-0.361,0.7797
-0.237,0.286,0.159,130.8,-37.4,130.2,1023,2018,5,1,18,34,38.782,-0.3251,-0.3619,-0.3614,0.7953
-0.243,0.253,0.038,130.4,-100.1,141.1,1023,2018,5,1,18,34,38.822,-0.3189,-0.3307,-0.3727,0.8062
-0.277,0.037,0.042,127.8,-107.6,149.9,1023,2018,5,1,18,34,38.841,-0.3127,-0.2967,-0.3889,0.8141
-0.254,-0.132,-0.045,124.6,-75.9,151.3,1023,2018,5,1,18,34,38.846,-0.3045,-0.263,-0.4029,0.8219
-0.207,-0.222,0.145,118.2,-15.6,147.6,1023,2018,5,1,18,34,38.865,-0.2933,-0.2325,-0.4093,0.832
-0.224,-0.127,0.202,107.1,6.2,140.3,1023,2018,5,1,18,34,38.88,-0.2804,-0.2057,-0.4092,0.8435
-0.181,-0.035,0.141,93.9,-3.5,134.7,0,2018,5,1,18,34,38.917,-0.2676,-0.181,-0.4087,0.8535
-0.308,0.262,0.655,52.7,-20.4,158.3,0,2018,5,1,18,34,38.937,-0.2513,-0.1585,-0.4116,0.8615
0.068,0.454,0.461,8.5,-70.5,176.8,0,2018,5,1,18,34,38.942,-0.2293,-0.1403,-0.4213,0.8661
0.119,0.15,0.075,-19.1,-80.4,197.9,0,2018,5,1,18,34,38.979,-0.2019,-0.1241,-0.4388,0.8667
0.079,0.075,0,-29.8,-81.2,197.6,0,2018,5,1,18,34,39.001,-0.1715,-0.1099,-0.4549,0.8669
0.014,-0.267,-0.095,-35.9,-125.5,188.7,0,2018,5,1,18,34,39.027,-0.1413,-0.0966,-0.4748,0.8632
0.124,-0.606,-0.344,-26.7,-131.6,155.8,0,2018,5,1,18,34,39.038,-0.1149,-0.084,-0.4988,0.8549
0.096,-0.752,-0.312,-11.4,-69.8,119.9,0,2018,5,1,18,34,39.044,-0.0943,-0.0726,-0.5163,0.848
0.01,-0.504,-0.314,6.5,-17.8,88.9,0,2018,5,1,18,34,39.081,-0.0796,-0.0629,-0.5237,0.8458
-0.172,-0.506,-0.162,14.9,3.2,64.6,0,2018,5,1,18,34,39.102,-0.0695,-0.054,-0.5251,0.8464
-0.213,-0.334,0,12.5,13.1,53.4,0,2018,5,1,18,34,39.106,-0.0622,-0.0467,-0.5245,0.8477
-0.08,-0.293,-0.009,14.2,25.2,43.2,0,2018,5,1,18,34,39.143,-0.0563,-0.0405,-0.5219,0.8501
-0.054,-0.3,-0.076,18.1,27.6,31.6,0,2018,5,1,18,34,39.162,-0.0521,-0.0349,-0.5183,0.8528
-0.136,-0.777,-0.008,15.4,115.7,14.7,0,2018,5,1,18,34,39.166,-0.05,-0.0308,-0.5098,0.8582
-0.167,-0.656,0.183,5,303.1,-9.8,0,2018,5,1,18,34,39.183,-0.0497,-0.0309,-0.4772,0.8767
-0.007,-0.077,0.018,-6.5,381.2,-25.2,0,2018,5,1,18,34,39.204,-0.0505,-0.0354,-0.4217,0.9046
0.017,-0.017,-0.184,-7.5,360.1,-37.2,0,2018,5,1,18,34,39.223,-0.0526,-0.0427,-0.3621,0.9296
0.068,-0.28,-0.449,12.7,324.4,-65.9,0,2018,5,1,18,34,39.263,-0.0586,-0.0486,-0.3055,0.9491
0.069,-0.484,-0.311,38.7,217.2,-104.7,0,2018,5,1,18,34,39.281,-0.0721,-0.051,-0.2588,0.9618
-0.08,-0.667,-0.287,58.5,119.2,-132.7,0,2018,5,1,18,34,39.286,-0.0929,-0.0502,-0.2298,0.9674
-0.235,-0.171,0.009,49.3,92,-133.3,0,2018,5,1,18,34,39.302,-0.1174,-0.0472,-0.2112,0.9691
-0.127,0.024,-0.01,46.7,32.5,-140.2,1023,2018,5,1,18,34,39.323,-0.1414,-0.0447,-0.197,0.969
-0.131,-0.278,-0.004,30.9,30.5,-143.5,1023,2018,5,1,18,34,39.344,-0.166,-0.0443,-0.1897,0.9666
-0.129,-0.384,-0.059,29.5,-12.6,-155.7,1023,2018,5,1,18,34,39.364,-0.1923,-0.044,-0.1867,0.9623
-0.051,-0.077,0.069,23.8,-28.8,-162.7,1023,2018,5,1,18,34,39.384,-0.2204,-0.044,-0.1882,0.956
-0.091,0.666,0.427,7.6,-72.7,-138.1,1023,2018,5,1,18,34,39.42,-0.2464,-0.0441,-0.1933,0.9486
-0.063,0.246,0.358,-24.2,-86.4,-118.9,1023,2018,5,1,18,34,39.44,-0.2675,-0.0463,-0.2076,0.9397
-0.033,0.213,0.216,-29.4,-18.8,-110,1023,2018,5,1,18,34,39.447,-0.285,-0.0526,-0.2159,0.9323
-0.04,0.267,0.086,-30.4,-8,-114.5,1023,2018,5,1,18,34,39.467,-0.302,-0.0613,-0.2176,0.926
-0.031,0.284,0.004,-20.3,-4.6,-113.1,1023,2018,5,1,18,34,39.506,-0.3194,-0.0695,-0.2183,0.9194
-0.069,0.287,-0.021,-15.1,-8.5,-96.5,1023,2018,5,1,18,34,39.527,-0.3356,-0.076,-0.2189,0.913
-0.061,0.269,-0.083,-9.4,-1.7,-77.5,1023,2018,5,1,18,34,39.531,-0.3487,-0.081,-0.2192,0.9075
-0.085,0.433,-0.208,2.5,-11.5,-55.6,1023,2018,5,1,18,34,39.568,-0.3591,-0.0836,-0.2191,0.9032
-0.132,0.525,-0.251,17.6,-19.1,-31.9,1023,2018,5,1,18,34,39.588,-0.3665,-0.0826,-0.2202,0.9001
-0.102,0.84,-0.206,31.4,-34.1,5.7,1023,2018,5,1,18,34,39.592,-0.37,-0.0774,-0.2224,0.8986
-0.099,0.818,-0.201,37.8,-6.4,51,1023,2018,5,1,18,34,39.61,-0.3669,-0.0689,-0.2247,0.9
-0.032,0.604,-0.117,52.8,79.2,82.1,0,2018,5,1,18,34,39.626,-0.3573,-0.0616,-0.2161,0.9065
-0.029,0.372,0.164,54.2,97.2,97.8,0,2018,5,1,18,34,39.665,-0.3435,-0.0553,-0.1982,0.9163
-0.094,-0.094,0.331,38,81.1,98.4,0,2018,5,1,18,34,39.684,-0.3284,-0.0496,-0.1826,0.9253
-0.115,0.116,0.263,33.2,66.2,110.8,0,2018,5,1,18,34,39.688,-0.3118,-0.0443,-0.1678,0.9341
-0.079,0.372,-0.048,26.5,0.9,135.2,0,2018,5,1,18,34,39.709,-0.2919,-0.0374,-0.1622,0.9418
-0.053,0.129,-0.114,29.6,35,147.7,0,2018,5,1,18,34,39.73,-0.2688,-0.0292,-0.1592,0.9494
-0.1,0.193,0.008,37.1,92.3,150.4,0,2018,5,1,18,34,39.749,-0.2444,-0.0224,-0.1455,0.9584
-0.128,0.013,0.281,31.5,98.4,147.8,0,2018,5,1,18,34,39.77,-0.2195,-0.0164,-0.1274,0.967
-0.076,0.031,0.446,16.1,52.6,154.5,0,2018,5,1,18,34,39.808,-0.1939,-0.0115,-0.1131,0.9743
-0.045,0.155,0.169,8.5,6.2,161.2,0,2018,5,1,18,34,39.829,-0.167,-0.0071,-0.1062,0.9801
-0.06,-0.064,-0.065,-6,-64.5,164.4,0,2018,5,1,18,34,39.834,-0.1385,-0.0029,-0.1118,0.984
-0.088,-0.151,-0.02,-5.7,-54.7,154.4,0,2018,5,1,18,34,39.848,-0.1108,0.0009,-0.1219,0.9863
-0.095,-0.446,-0.113,-4.3,-47.7,139.7,0,2018,5,1,18,34,39.867,-0.0854,0.0045,-0.1317,0.9875
-0.229,-0.115,0.149,0,-3.9,129.2,0,2018,5,1,18,34,39.888,-0.0623,0.0078,-0.1336,0.989
-0.377,-0.36,0.196,-14.4,-76.9,125.2,0,2018,5,1,18,34,39.926,-0.0394,0.0102,-0.1402,0.9892
-0.159,-0.927,-0.005,-22.8,-95.1,84.7,0,2018,5,1,18,34,39.945,-0.0204,0.0099,-0.1564,0.9874
-0.133,-1.275,-0.133,-16.4,-26.8,20.7,0,2018,5,1,18,34,39.95,-0.0106,0.0082,-0.1675,0.9857
-0.039,-1.499,-0.004,-10.9,70.1,-57.8,0,2018,5,1,18,34,39.989,-0.0134,0.0051,-0.1629,0.9865
0.001,-0.94,0.145,-12.7,81.7,-118.1,0,2018,5,1,18,34,40.009,-0.0291,0.0006,-0.1478,0.9885
0.048,-0.654,0.208,-23.7,27.1,-152.5,0,2018,5,1,18,34,40.013,-0.0521,-0.0063,-0.1381,0.989
-0.061,-1.118,0.097,-35.7,-9.1,-192.7,0,2018,5,1,18,34,40.032,-0.0807,-0.0156,-0.1374,0.987
-0.11,-0.824,-0.149,-18.9,31.8,-243.1,0,2018,5,1,18,34,40.051,-0.118,-0.0256,-0.1346,0.9835
-0.272,-0.392,-0.258,-16.8,20.4,-280.6,0,2018,5,1,18,34,40.068,-0.1627,-0.0356,-0.1285,0.9776
-0.509,-0.481,-0.134,-22.8,34.8,-300.8,1023,2018,5,1,18,34,40.109,-0.2109,-0.0466,-0.1223,0.9686
-0.533,1.259,0.441,-33.2,-74.9,-266,1023,2018,5,1,18,34,40.128,-0.259,-0.0563,-0.1203,0.9566
-0.503,0.313,0.449,-73.6,-198.9,-222.4,1023,2018,5,1,18,34,40.132,-0.2985,-0.0627,-0.1484,0.9406
-0.362,0.253,0.046,-59,37,-207.2,1023,2018,5,1,18,34,40.151,-0.3321,-0.0765,-0.1622,0.9259
-0.428,1.513,-0.082,-51.4,50,-162.5,1023,2018,5,1,18,34,40.173,-0.3584,-0.0962,-0.1478,0.9167
-0.308,0.918,-0.267,-56.1,-95.7,-108.8,1023,2018,5,1,18,34,40.192,-0.3788,-0.1067,-0.1557,0.9059
-0.352,1.15,-0.21,-27.7,-97.9,-49.3,1023,2018,5,1,18,34,40.23,-0.3917,-0.1084,-0.1731,0.8971
-0.26,0.812,-0.202,-11,-55.9,-1.8,1023,2018,5,1,18,34,40.25,-0.396,-0.1066,-0.1867,0.8926
-0.096,0.89,-0.402,24.6,23.4,35.5,1023,2018,5,1,18,34,40.255,-0.3936,-0.1042,-0.188,0.8937
-0.021,0.769,-0.509,54,38.1,66.5,1023,2018,5,1,18,34,40.274,-0.386,-0.0985,-0.1809,0.8991
-0.036,0.434,-0.343,82.1,61.2,87.1,1023,2018,5,1,18,34,40.295,-0.3748,-0.0883,-0.17,0.907
0.028,0.041,0.009,93.8,92.5,88.6,1023,2018,5,1,18,34,40.334,-0.3622,-0.0763,-0.153,0.9162
-0.015,0.191,0.281,95.6,159.2,103.5,1023,2018,5,1,18,34,40.338,-0.3476,-0.0667,-0.1267,0.9266
-0.164,0.66,0.434,72.9,108.7,127.3,1023,2018,5,1,18,34,40.353,-0.3288,-0.0591,-0.0996,0.9372
-0.221,0.302,0.406,46.4,57.6,157.5,1023,2018,5,1,18,34,40.373,-0.3053,-0.0513,-0.0855,0.9469
-0.114,0,0.315,31.4,87.2,169.1,1023,2018,5,1,18,34,40.393,-0.2775,-0.0459,-0.0724,0.9568
-0.08,0.146,0.245,21.4,61.1,181.6,1023,2018,5,1,18,34,40.412,-0.2476,-0.0427,-0.0588,0.9661
-0.052,0.074,0.181,13.4,36.7,186.1,0,2018,5,1,18,34,40.434,-0.2161,-0.0396,-0.0503,0.9742
-0.091,0.078,0.027,6.6,28.2,185.8,0,2018,5,1,18,34,40.456,-0.1841,-0.0373,-0.0448,0.9811
-0.062,0.019,-0.036,2.1,-37.4,186.5,0,2018,5,1,18,34,40.474,-0.1517,-0.0347,-0.0461,0.9867
-0.124,-0.131,-0.183,3.4,-63.2,188.5,0,2018,5,1,18,34,40.496,-0.1197,-0.031,-0.0566,0.9906
-0.215,-0.604,-0.088,2.3,-77.3,169.7,0,2018,5,1,18,34,40.517,-0.0886,-0.0271,-0.07,0.9932
-0.257,-0.885,0.145,12.6,-12.2,126.5,0,2018,5,1,18,34,40.537,-0.0628,-0.0237,-0.0767,0.9947
-0.363,-0.779,0.092,0.4,-55.8,89.3,0,2018,5,1,18,34,40.556,-0.0442,-0.0209,-0.0826,0.9953
-0.201,-1.283,-0.075,-4.1,-40.4,29.9,0,2018,5,1,18,34,40.576,-0.0338,-0.0199,-0.0925,0.9949
-0.074,-1.428,0.046,-1.5,20.5,-43.7,0,2018,5,1,18,34,40.593,-0.0353,-0.0201,-0.0935,0.9947
-0.039,-1.014,0.15,-0.7,62.5,-103.3,0,2018,5,1,18,34,40.63,-0.0483,-0.0217,-0.0846,0.9949
-0.041,-0.398,0.198,-16.4,17.6,-125.6,0,2018,5,1,18,34,40.651,-0.0682,-0.025,-0.076,0.9944
0.02,-0.585,0.069,-33.3,-29.5,-148.9,0,2018,5,1,18,34,40.655,-0.0913,-0.0313,-0.0779,0.9922
-0.051,-0.626,-0.102,-19.8,46.4,-186.4,0,2018,5,1,18,34,40.695,-0.1196,-0.0392,-0.0749,0.9892
-0.108,-0.539,-0.224,-22.6,34.9,-220.9,0,2018,5,1,18,34,40.699,-0.1542,-0.0469,-0.0666,0.9846
-0.298,-0.113,-0.121,-18.5,9.9,-227.1,0,2018,5,1,18,34,40.716,-0.1926,-0.053,-0.0612,0.9779
-0.265,0.516,-0.111,-9.6,-4.3,-220,0,2018,5,1,18,34,40.752,-0.2309,-0.0581,-0.0582,0.9694
-0.435,0.977,0.289,-30.4,-101.5,-169.3,0,2018,5,1,18,34,40.774,-0.2642,-0.0604,-0.0669,0.9602
-0.317,0.919,0.08,-32.8,-9.6,-119.4,0,2018,5,1,18,34,40.778,-0.2885,-0.0649,-0.0779,0.952
-0.286,1.565,-0.086,-29.6,27.9,-52,0,2018,5,1,18,34,40.815,-0.3021,-0.072,-0.0749,0.9475
-0.132,1.559,-0.408,-11.5,29.5,24.5,0,2018,5,1,18,34,40.819,-0.3031,-0.0773,-0.071,0.9471
-0.072,1.147,-0.366,10.5,25.5,81.8,0,2018,5,1,18,34,40.837,-0.2932,-0.0777,-0.0674,0.9504
-0.047,0.318,0.122,21.7,85.8,104.7,0,2018,5,1,18,34,40.854,-0.2764,-0.0762,-0.0588,0.9561
0,0.328,0.516,20.3,138,113.8,1023,2018,5,1,18,34,40.875,-0.2569,-0.0773,-0.0383,0.9625
-0.05,0.209,0.768,-10.1,87.4,134.4,1023,2018,5,1,18,34,40.911,-0.2339,-0.0806,-0.0199,0.9686
-0.001,0.066,0.514,-36.9,60.8,145.2,1023,2018,5,1,18,34,40.932,-0.2091,-0.0866,-0.0106,0.9739
-0.075,0.33,0.259,-55.4,10.3,164.1,1023,2018,5,1,18,34,40.936,-0.1818,-0.0954,-0.0078,0.9786
-0.202,0.224,0.039,-67.3,-44.4,182.9,1023,2018,5,1,18,34,40.973,-0.1524,-0.105,-0.0164,0.9825
-0.279,0.203,-0.097,-65.1,-23.5,201.1,1023,2018,5,1,18,34,40.991,-0.1193,-0.1149,-0.0271,0.9858
-0.478,-0.333,0.195,-80.1,-57.4,194.2,1023,2018,5,1,18,34,40.995,-0.0857,-0.1253,-0.0401,0.9875
-0.325,-0.792,0.55,-93.4,-25.2,171.7,1023,2018,5,1,18,34,41.038,-0.0539,-0.1384,-0.052,0.9875
-0.279,-0.358,0.522,-127.3,-105.3,154,1023,2018,5,1,18,34,41.057,-0.0261,-0.1553,-0.0664,0.9852
-0.163,-0.289,0.402,-146.2,-227.6,120.6,1023,2018,5,1,18,34,41.061,-0.0053,-0.1767,-0.0991,0.9792
-0.194,-0.484,0.166,-167.7,-329.5,78.9,1023,2018,5,1,18,34,41.081,0.0057,-0.2011,-0.151,0.9678
-0.267,-0.902,0.012,-187.3,-321.6,13.7,1023,2018,5,1,18,34,41.097,0.0064,-0.2298,-0.209,0.9504
-0.135,-0.959,-0.089,-179.6,-214,-50.1,1023,2018,5,1,18,34,41.118,-0.0007,-0.2613,-0.2516,0.9318
-0.162,-0.64,-0.096,-173.2,-149.7,-96,1023,2018,5,1,18,34,41.138,-0.013,-0.293,-0.2758,0.9153
-0.24,-0.43,-0.12,-165.4,-148.5,-130.8,1023,2018,5,1,18,34,41.158,-0.0306,-0.325,-0.2932,0.8985
-0.263,-0.301,-0.2,-153.5,-175.6,-158.7,1023,2018,5,1,18,34,41.179,-0.0545,-0.3563,-0.3108,0.8794
-0.27,-0.156,-0.225,-135.8,-201.5,-178.9,0,2018,5,1,18,34,41.199,-0.0845,-0.3854,-0.3306,0.8573
-0.268,-0.106,-0.241,-114.5,-192.5,-192.7,0,2018,5,1,18,34,41.238,-0.1185,-0.4113,-0.3494,0.8334
-0.215,-0.062,-0.241,-95.2,-135.9,-200.6,0,2018,5,1,18,34,41.26,-0.1527,-0.4346,-0.3613,0.8106
-0.125,0.055,-0.202,-81.5,-59.8,-200.8,0,2018,5,1,18,34,41.264,-0.1827,-0.4568,-0.3618,0.7917
-0.032,0.275,-0.144,-73.2,-38.8,-193.8,0,2018,5,1,18,34,41.281,-0.2082,-0.4782,-0.3541,0.7762
0.096,0.512,-0.112,-68.7,-114.5,-186.3,0,2018,5,1,18,34,41.321,-0.2356,-0.4965,-0.3509,0.7581
0.106,0.481,-0.251,-56.2,-194.2,-171.8,0,2018,5,1,18,34,41.341,-0.2689,-0.5088,-0.3588,0.7348
0.084,0.423,-0.211,-38.6,-213.8,-157.7,0,2018,5,1,18,34,41.345,-0.3054,-0.5147,-0.3732,0.7088
0.114,0.624,-0.048,-23.9,-186.7,-142.7,0,2018,5,1,18,34,41.359,-0.3398,-0.517,-0.3858,0.6842
0.172,0.808,-0.01,-14.8,-176.9,-118.6,0,2018,5,1,18,34,41.397,-0.3698,-0.5172,-0.3962,0.6622
0.138,0.605,0.012,-8.6,-184.5,-88,0,2018,5,1,18,34,41.418,-0.3972,-0.5135,-0.4087,0.6413
0.093,0.845,0.199,-18.5,-199.5,-46.7,0,2018,5,1,18,34,41.422,-0.4208,-0.5061,-0.4252,0.6211
-0.14,0.316,0.017,-26.5,-186.8,-12.2,0,2018,5,1,18,34,41.44,-0.4389,-0.4961,-0.4453,0.6023
-0.345,0.205,-0.139,-25.8,-176.5,14.6,0,2018,5,1,18,34,41.461,-0.452,-0.4848,-0.4665,0.5856
-0.646,-0.243,-0.36,-23.3,-199.4,26.1,0,2018,5,1,18,34,41.484,-0.4632,-0.4706,-0.4895,0.5694
-0.873,-0.816,-0.501,-23.3,-161,16.7,0,2018,5,1,18,34,41.503,-0.4745,-0.4554,-0.5123,0.5521
-0.702,-0.436,-0.625,-1.6,-71,11.9,0,2018,5,1,18,34,41.523,-0.4804,-0.4465,-0.5249,0.5423
-0.436,-0.159,-0.467,17,-47.8,12.4,0,2018,5,1,18,34,41.561,-0.4846,-0.4397,-0.5305,0.5387
-0.18,-0.083,-0.201,21.4,-10.9,16.3,0,2018,5,1,18,34,41.565,-0.4873,-0.434,-0.5326,0.5388
-0.179,-0.037,-0.361,26.8,15.7,21,0,2018,5,1,18,34,41.582,-0.4878,-0.4302,-0.5318,0.5422
-0.157,-0.115,-0.14,31.4,51.8,21.9,0,2018,5,1,18,34,41.62,-0.4858,-0.4284,-0.5276,0.5495
-0.005,-0.043,0.155,27.9,44.6,17.9,0,2018,5,1,18,34,41.641,-0.4823,-0.4276,-0.5215,0.5589
0.181,0.116,0.516,20.8,10.2,12.3,1023,2018,5,1,18,34,41.645,-0.4812,-0.426,-0.518,0.5644
0.413,0.283,0.757,9.8,8.7,11.5,1023,2018,5,1,18,34,41.663,-0.481,-0.4239,-0.5171,0.5669
0.651,0.447,0.894,-3.7,19.5,14.3,1023,2018,5,1,18,34,41.702,-0.4787,-0.4238,-0.5162,0.5697
0.725,0.306,0.678,-19.9,-13.1,10.8,1023,2018,5,1,18,34,41.722,-0.4759,-0.4243,-0.5178,0.5703
0.671,0.096,0.341,-27.3,-42.9,-1.9,1023,2018,5,1,18,34,41.726,-0.4754,-0.4239,-0.5233,0.5659
0.504,0.017,0.192,-32,-59.9,-16.7,1023,2018,5,1,18,34,41.745,-0.4779,-0.4234,-0.5301,0.5578
0.405,0.288,0.077,-42.8,-83.1,-21.5,1023,2018,5,1,18,34,41.765,-0.4814,-0.423,-0.539,0.5465
0.1,-0.021,-0.13,-54.5,-96.5,-25.9,1023,2018,5,1,18,34,41.804,-0.4861,-0.4221,-0.5507,0.5311
-0.29,-0.208,-0.762,-47.5,-59,-24.7,1023,2018,5,1,18,34,41.809,-0.4887,-0.4232,-0.5605,0.5174
-1.336,-0.413,-0.946,-19.9,-86.5,-26.4,1023,2018,5,1,18,34,41.825,-0.4929,-0.4229,-0.5672,0.5063
-1.502,-0.764,-1.179,2.1,1,-3.6,1023,2018,5,1,18,34,41.843,-0.4973,-0.4203,-0.5721,0.4986
-0.665,-0.581,-0.583,38.2,91.7,-11.9,1023,2018,5,1,18,34,41.863,-0.4955,-0.4242,-0.5638,0.5064
-0.338,-0.005,0.136,21.7,75.4,-3.4,1023,2018,5,1,18,34,41.884,-0.4933,-0.4297,-0.553,0.5159
-0.12,-0.057,-0.089,1.4,57.6,6.7,1023,2018,5,1,18,34,41.903,-0.4887,-0.4344,-0.5463,0.5233
0.366,0.293,0.078,0.9,-29.5,8,1023,2018,5,1,18,34,41.926,-0.4866,-0.4351,-0.5457,0.5253
0.602,0.159,0.844,15.4,-10.1,0.7,1023,2018,5,1,18,34,41.946,-0.4894,-0.4309,-0.5489,0.5228
0.659,0.958,1.403,7.9,69.6,-7.4,1023,2018,5,1,18,34,41.965,-0.4875,-0.4343,-0.5431,0.5278
0.676,0.776,0.955,-18.7,9.4,5.4,0,2018,5,1,18,34,42.004,-0.484,-0.4383,-0.5403,0.5306
0.628,0.364,0.276,-34.1,4,5.1,0,2018,5,1,18,34,42.023,-0.4804,-0.4406,-0.5429,0.5293
0.474,0.208,0.029,-52.3,-19,0,0,2018,5,1,18,34,42.026,-0.4765,-0.4439,-0.5474,0.5254
0.111,-0.151,-0.708,-52.1,-46.4,-10.6,0,2018,5,1,18,34,42.058,-0.4745,-0.4465,-0.5548,0.5172
-0.25,-0.317,-2.184,-39.9,-71.9,-19.3,0,2018,5,1,18,34,42.078,-0.4764,-0.4473,-0.563,0.5058
-0.807,-0.872,-1.458,12.1,-76.3,-23.3,0,2018,5,1,18,34,42.088,-0.4833,-0.4438,-0.5695,0.4949
-1.286,-0.42,0.059,13.1,-82.6,-1.9,0,2018,5,1,18,34,42.102,-0.493,-0.4364,-0.5736,0.4871
-0.702,-0.591,0.101,-5.3,29.8,7.2,0,2018,5,1,18,34,42.138,-0.4948,-0.4334,-0.576,0.4851
-0.15,-0.048,-0.528,-1.5,65.2,20.2,0,2018,5,1,18,34,42.163,-0.4886,-0.4377,-0.573,0.4911
-0.039,-0.11,-0.495,30,52,27.3,0,2018,5,1,18,34,42.167,-0.4837,-0.4389,-0.5686,0.4999
0.054,-0.004,0.022,46.8,33.2,25.2,0,2018,5,1,18,34,42.188,-0.4822,-0.4361,-0.5635,0.5095
-0.028,0.035,0.713,38.5,89.7,11.9,0,2018,5,1,18,34,42.208,-0.4806,-0.435,-0.5562,0.5199
0.484,0.967,0.795,26.2,65.3,7.3,0,2018,5,1,18,34,42.227,-0.4763,-0.4389,-0.5456,0.5316
0.707,0.838,0.889,5.4,-21.3,12.1,0,2018,5,1,18,34,42.247,-0.4754,-0.4379,-0.5436,0.5353
0.859,0.361,0.435,-8.9,-35.6,6.5,0,2018,5,1,18,34,42.268,-0.477,-0.434,-0.5484,0.5321
0.718,0.118,0.008,-2.5,4.8,-15,0,2018,5,1,18,34,42.289,-0.4782,-0.4343,-0.5494,0.5297
0.439,0.213,0.116,1.9,16.3,-21.3,0,2018,5,1,18,34,42.308,-0.4795,-0.4376,-0.5464,0.5289
0.254,0.187,0.124,-4.6,17.4,-15.6,0,2018,5,1,18,34,42.344,-0.48,-0.4409,-0.5438,0.5284
0.073,-0.274,-0.24,-10.3,-16,-20.8,0,2018,5,1,18,34,42.364,-0.4805,-0.4439,-0.543,0.5264
-0.455,-0.257,0.28,-39.5,-57.3,-7.2,0,2018,5,1,18,34,42.368,-0.483,-0.4441,-0.5477,0.5189
-0.446,-0.488,-0.638,-42.1,-71.4,-8.6,0,2018,5,1,18,34,42.39,-0.4839,-0.4437,-0.5569,0.5085
-0.674,-0.25,-0.696,-25.9,-47.6,-4.3,0,2018,5,1,18,34,42.41,-0.4861,-0.4416,-0.566,0.4982
-0.752,-0.379,-0.999,6.4,32.2,1.5,1023,2018,5,1,18,34,42.43,-0.4857,-0.442,-0.5674,0.4966
-0.439,-0.286,-0.6,45.4,35.6,0.8,1023,2018,5,1,18,34,42.449,-0.4851,-0.4429,-0.5615,0.5031
-0.17,-0.032,0.489,35.1,24.7,0.1,1023,2018,5,1,18,34,42.47,-0.4874,-0.4413,-0.5552,0.5092
-0.284,0.217,0.095,13.9,16,7.9,1023,2018,5,1,18,34,42.49,-0.4882,-0.4403,-0.552,0.5127
-0.207,0.106,-0.052,21.5,35.5,17.9,1023,2018,5,1,18,34,42.51,-0.4865,-0.4399,-0.5494,0.5175
-0.101,-0.066,0.138,29.5,54.4,23.1,1023,2018,5,1,18,34,42.53,-0.4834,-0.4392,-0.545,0.5256
0.158,0.104,0.136,28.2,34.5,25.1,1023,2018,5,1,18,34,42.551,-0.4811,-0.4378,-0.5396,0.5343
0.474,0.33,0.454,22.3,19.5,26.1,1023,2018,5,1,18,34,42.571,-0.4789,-0.4352,-0.5371,0.5409
0.796,0.514,0.606,14.3,20.7,19.3,1023,2018,5,1,18,34,42.59,-0.4771,-0.4328,-0.536,0.5455
0.799,0.462,0.401,2.3,16,8.2,1023,2018,5,1,18,34,42.608,-0.4751,-0.4324,-0.5347,0.5488
0.644,0.232,0.072,-2.5,18.6,0.4,1023,2018,5,1,18,34,42.628,-0.4735,-0.4335,-0.5337,0.5503
0.267,0.12,0.009,-6.2,0.7,-1.2,1023,2018,5,1,18,34,42.668,-0.4726,-0.4355,-0.5327,0.5505
-0.03,-0.185,-0.321,-7.3,-37.6,-8,1023,2018,5,1,18,34,42.689,-0.4737,-0.4355,-0.5349,0.5474
-0.495,-0.386,-0.246,-10.3,-40.5,-9,1023,2018,5,1,18,34,42.693,-0.4775,-0.4336,-0.5391,0.5415
-0.549,-0.396,-0.389,-22.9,-42.8,5.7,1023,2018,5,1,18,34,42.713,-0.4789,-0.4319,-0.5445,0.5361
-0.551,-0.13,-0.74,-9.5,-55.9,14.6,1023,2018,5,1,18,34,42.733,-0.4801,-0.4286,-0.5513,0.5307
-0.548,-0.033,-0.653,8.1,-34,29.6,0,2018,5,1,18,34,42.752,-0.4817,-0.4221,-0.5577,0.5277
-0.359,-0.256,-0.249,28.1,-0.9,29.3,0,2018,5,1,18,34,42.773,-0.4816,-0.4162,-0.5594,0.5307
-0.155,-0.318,0.125,23.5,-10.4,14.3,0,2018,5,1,18,34,42.792,-0.4823,-0.4114,-0.5592,0.5341
-0.09,0.053,0.223,18.2,-9.3,11.6,0,2018,5,1,18,34,42.83,-0.4841,-0.4073,-0.5595,0.5353
-0.029,0.179,0.163,24.2,26.2,17.1,0,2018,5,1,18,34,42.85,-0.484,-0.4048,-0.5583,0.5386
0.215,0.325,0.404,29.5,56.1,25,0,2018,5,1,18,34,42.852,-0.4814,-0.404,-0.5535,0.5464
0.486,0.352,0.43,23.5,23.2,25.3,0,2018,5,1,18,34,42.871,-0.4787,-0.4023,-0.5493,0.5541
0.662,0.318,0.518,14.3,34,16.6,0,2018,5,1,18,34,42.892,-0.4766,-0.4005,-0.5469,0.5595
0.596,0.18,0.241,3.2,35.1,1,0,2018,5,1,18,34,42.912,-0.4741,-0.4018,-0.5435,0.5641
0.46,0.189,0.119,-7.1,24.2,-9.4,0,2018,5,1,18,34,42.933,-0.4722,-0.4051,-0.5403,0.5664
0.315,0.104,0.083,-17.4,-4.7,-15.9,0,2018,5,1,18,34,42.952,-0.4722,-0.4088,-0.5391,0.5649
0.155,-0.075,0.068,-25.6,-41.3,-17.5,0,2018,5,1,18,34,42.989,-0.4737,-0.4102,-0.5423,0.5594
-0.042,-0.251,-0.012,-23.3,-65.7,-23.9,0,2018,5,1,18,34,43.008,-0.4772,-0.4101,-0.5484,0.5507
-0.201,-0.246,0.219,-43.2,-83.7,-13.3,0,2018,5,1,18,34,43.013,-0.481,-0.4084,-0.5579,0.5389
-0.094,-0.263,-0.226,-44.3,-88.9,-13.1,0,2018,5,1,18,34,43.053,-0.4836,-0.4069,-0.5689,0.526
-0.296,-0.712,-0.433,-31.4,-62,-31.2,0,2018,5,1,18,34,43.072,-0.4878,-0.4053,-0.5786,0.5127
-0.389,-0.825,-0.92,1.1,73.9,-57.8,0,2018,5,1,18,34,43.077,-0.4896,-0.412,-0.5764,0.508
-0.571,0.02,-0.916,46,151.3,-64.7,0,2018,5,1,18,34,43.093,-0.4882,-0.4272,-0.5578,0.5175
-0.689,0.637,-0.261,56,83.9,-31.6,0,2018,5,1,18,34,43.113,-0.4888,-0.4371,-0.5385,0.5289
-0.497,0.615,0.099,32.6,44.6,8.5,0,2018,5,1,18,34,43.135,-0.4896,-0.4391,-0.5281,0.5371
-0.198,-0.149,-0.172,9.8,66.5,27.9,0,2018,5,1,18,34,43.173,-0.4857,-0.4394,-0.5239,0.5444
-0.091,-0.622,-0.464,16.3,153,5.7,1023,2018,5,1,18,34,43.193,-0.4764,-0.4462,-0.5136,0.5567
-0.098,0.062,-0.105,29,150.3,-3,1023,2018,5,1,18,34,43.197,-0.4655,-0.4575,-0.4957,0.5728
-0.018,0.375,0.138,30.3,83.7,-0.4,1023,2018,5,1,18,34,43.216,-0.4593,-0.464,-0.4815,0.5845
0.112,0.335,0.215,28,94.3,13.8,1023,2018,5,1,18,34,43.236,-0.4543,-0.4671,-0.4715,0.5941
0.344,0.566,0.39,24,140.1,32.9,1023,2018,5,1,18,34,43.256,-0.444,-0.4719,-0.4589,0.6078
0.66,0.641,0.381,14.4,100.9,41.6,1023,2018,5,1,18,34,43.277,-0.4308,-0.4766,-0.447,0.6223
0.696,0.446,0.298,1.9,-7,36.9,1023,2018,5,1,18,34,43.297,-0.4232,-0.4761,-0.4452,0.6291
0.512,0.14,0.229,-1.2,-54.3,23.9,1023,2018,5,1,18,34,43.335,-0.4231,-0.4709,-0.4524,0.628
0.372,0.139,0.101,-0.1,-60.2,15.3,1023,2018,5,1,18,34,43.34,-0.4257,-0.4652,-0.4605,0.6246
0.254,0.156,0.082,-0.7,-77.6,11.6,1023,2018,5,1,18,34,43.355,-0.4303,-0.4597,-0.4682,0.6198
0.127,0.064,-0.094,-3.6,-126.1,16.4,1023,2018,5,1,18,34,43.375,-0.4368,-0.4515,-0.4804,0.6118
-0.023,0.136,-0.179,-8.4,-174.9,27.2,1023,2018,5,1,18,34,43.394,-0.4459,-0.439,-0.4989,0.5994
-0.238,-0.102,-0.395,-4.2,-207.7,29.8,1023,2018,5,1,18,34,43.415,-0.4568,-0.4218,-0.522,0.5837
-0.407,-0.123,-0.591,5.2,-204.3,30.7,1023,2018,5,1,18,34,43.437,-0.4689,-0.4021,-0.5453,0.5665
-0.532,-0.364,-0.738,21.4,-149.3,28.2,1023,2018,5,1,18,34,43.456,-0.4794,-0.3831,-0.564,0.5524
-0.596,-0.44,-0.532,30.4,-85.3,23.8,1023,2018,5,1,18,34,43.497,-0.487,-0.3684,-0.5743,0.5451
-0.505,-0.231,-0.451,34.8,-61.4,20.2,1023,2018,5,1,18,34,43.501,-0.4927,-0.3573,-0.5792,0.5421
-0.387,-0.269,-0.371,35.9,-45.9,20.8,1023,2018,5,1,18,34,43.517,-0.4979,-0.3469,-0.5828,0.5403
-0.354,-0.165,-0.099,31.3,-10.5,22.4,1023,2018,5,1,18,34,43.557,-0.5007,-0.3393,-0.5834,0.5419
-0.181,-0.1,-0.012,22.6,16.1,25.5,0,2018,5,1,18,34,43.578,-0.501,-0.3346,-0.5825,0.5455
-0.136,0.05,0.101,19.2,31.5,36.6,0,2018,5,1,18,34,43.582,-0.4987,-0.3311,-0.5796,0.5528
0.072,0.06,0.22,15.6,35.6,41.6,0,2018,5,1,18,34,43.6,-0.4946,-0.3284,-0.5773,0.5603
0.306,0.058,0.414,14.1,39.5,38.6,0,2018,5,1,18,34,43.616,-0.49,-0.3262,-0.575,0.5681
0.504,0.401,0.679,10.1,-2.3,30.7,0,2018,5,1,18,34,43.639,-0.4866,-0.3234,-0.5737,0.5739
0.665,0.292,0.6,-1.8,-27.2,27,0,2018,5,1,18,34,43.657,-0.4852,-0.3183,-0.5774,0.5741
0.596,0.098,0.295,-8.2,-9.8,18.5,0,2018,5,1,18,34,43.678,-0.4834,-0.315,-0.5812,0.5736
0.499,0.133,0.135,-6.4,-26.3,9.6,0,2018,5,1,18,34,43.697,-0.4821,-0.3132,-0.5842,0.5727
0.318,0.041,0.159,-10.3,-50.7,5.5,0,2018,5,1,18,34,43.735,-0.4829,-0.3101,-0.5894,0.5684
0.091,-0.105,-0.21,-9.9,-75.4,5.7,0,2018,5,1,18,34,43.754,-0.4848,-0.3051,-0.597,0.5616
-0.073,-0.318,-0.254,-6.6,-51.3,1,0,2018,5,1,18,34,43.758,-0.4871,-0.3001,-0.6046,0.554
-0.292,-0.211,-0.375,-2.5,-51.9,3.8,0,2018,5,1,18,34,43.799,-0.4889,-0.2962,-0.61,0.5486
-0.587,-0.215,-0.381,5,-68.8,10,0,2018,5,1,18,34,43.819,-0.4917,-0.29,-0.6164,0.5423
-0.773,-0.21,-0.392,10.4,-50.7,19.4,0,2018,5,1,18,34,43.823,-0.4943,-0.2823,-0.6224,0.537
-0.561,-0.255,-0.469,24.4,-2.3,27.5,0,2018,5,1,18,34,43.837,-0.4951,-0.2758,-0.6246,0.5371
-0.416,-0.118,-0.184,34.6,20.1,32.2,0,2018,5,1,18,34,43.86,-0.495,-0.2709,-0.622,0.5427
-0.293,0.015,-0.068,31.8,14,41.5,0,2018,5,1,18,34,43.877,-0.4941,-0.2646,-0.6195,0.5494
-0.177,-0.19,0.041,35,56.5,45,0,2018,5,1,18,34,43.917,-0.4921,-0.2593,-0.6155,0.5582
-0.015,0.013,0.233,37.3,98,40.7,0,2018,5,1,18,34,43.936,-0.488,-0.2584,-0.606,0.5725
0.211,0.221,0.202,27.6,48.6,40.2,1023,2018,5,1,18,34,43.94,-0.4838,-0.2574,-0.5975,0.5852
0.439,0.156,0.161,17.6,0,34.6,1023,2018,5,1,18,34,43.96,-0.4815,-0.2527,-0.5957,0.591
0.498,0.267,0.385,15.9,27,22.2,1023,2018,5,1,18,34,43.98,-0.4799,-0.2489,-0.5947,0.5949
0.53,0.494,0.506,8,19.8,14.7,1023,2018,5,1,18,34,44.017,-0.4781,-0.2484,-0.5913,0.5999
0.512,0.353,0.362,-6,-44.2,14.6,1023,2018,5,1,18,34,44.037,-0.4772,-0.2457,-0.5935,0.5996
0.506,0.154,0.184,-16.4,-77,13,1023,2018,5,1,18,34,44.052,-0.4773,-0.2401,-0.6019,0.5933
0.37,-0.046,0.049,-22.7,-84.9,7.5,1023,2018,5,1,18,34,44.065,-0.4777,-0.2343,-0.6125,0.5845
0.165,-0.197,-0.154,-19.6,-66.7,0.1,1023,2018,5,1,18,34,44.081,-0.4781,-0.23,-0.6224,0.5753
-0.017,-0.223,-0.352,-12,-61.9,-8,1023,2018,5,1,18,34,44.103,-0.4793,-0.2269,-0.6299,0.5673
-0.204,-0.346,-0.319,-7.7,-86.2,-12.2,1023,2018,5,1,18,34,44.118,-0.4822,-0.2227,-0.6378,0.5576
-0.521,-0.565,-0.396,-1.1,-77.4,-23.3,1023,2018,5,1,18,34,44.138,-0.4869,-0.2179,-0.6459,0.546
-0.747,-0.447,-0.349,7.1,-4.9,-26.4,1023,2018,5,1,18,34,44.176,-0.491,-0.2167,-0.6488,0.5393
-0.785,-0.228,-0.319,10.2,36.1,-25.6,1023,2018,5,1,18,34,44.194,-0.4941,-0.2206,-0.6454,0.5389
-0.608,-0.001,-0.152,9.9,44.1,-16.4,1023,2018,5,1,18,34,44.201,-0.4954,-0.2259,-0.6392,0.5429
-0.434,-0.1,-0.146,1.5,20.2,-5.5,1023,2018,5,1,18,34,44.241,-0.4959,-0.2291,-0.6357,0.5452
-0.324,-0.141,-0.132,-3.2,27.8,0,1023,2018,5,1,18,34,44.261,-0.4952,-0.2314,-0.6339,0.547
-0.158,-0.114,-0.089,-4.5,75,7.1,1023,2018,5,1,18,34,44.265,-0.4925,-0.2357,-0.6298,0.5523
0.055,0.057,-0.037,-1.1,108.9,10.1,0,2018,5,1,18,34,44.303,-0.4872,-0.2435,-0.6211,0.5633
0.308,0.233,0.027,0.2,95.7,10.2,0,2018,5,1,18,34,44.323,-0.4819,-0.2514,-0.6112,0.5751
0.484,0.305,0.205,4,88.3,7.4,0,2018,5,1,18,34,44.327,-0.4771,-0.2578,-0.6025,0.5854
0.539,0.501,0.436,2.5,76.4,3.6,0,2018,5,1,18,34,44.347,-0.4732,-0.2639,-0.5938,0.5947
0.609,0.48,0.496,-7,55.1,1.6,0,2018,5,1,18,34,44.366,-0.4697,-0.2692,-0.5874,0.6014
0.541,0.269,0.303,-16.4,29.5,-1.4,0,2018,5,1,18,34,44.383,-0.4664,-0.2739,-0.5841,0.605
0.484,0.264,0.25,-22.4,-4.3,-4.2,0,2018,5,1,18,34,44.404,-0.4641,-0.2775,-0.5841,0.6051
0.275,0.079,0.099,-24.3,-52.3,-3.4,0,2018,5,1,18,34,44.422,-0.4637,-0.2778,-0.5892,0.6004
0.072,-0.203,0.026,-25.4,-67,-7.2,0,2018,5,1,18,34,44.446,-0.465,-0.2756,-0.597,0.5926
-0.109,-0.481,-0.147,-27.8,-41.9,-16.7,0,2018,5,1,18,34,44.463,-0.4658,-0.2749,-0.6045,0.5846
-0.285,-0.403,-0.291,-25,-33.8,-29.4,0,2018,5,1,18,34,44.483,-0.4673,-0.2773,-0.609,0.5776
-0.499,-0.113,-0.286,-24.2,-37.2,-31.9,0,2018,5,1,18,34,44.505,-0.4697,-0.2802,-0.6132,0.5698
-0.733,-0.139,-0.3,-22.5,-24.9,-30.2,0,2018,5,1,18,34,44.527,-0.4719,-0.2834,-0.6166,0.5626
-0.822,0.034,-0.254,-25.8,5.2,-13.3,0,2018,5,1,18,34,44.545,-0.472,-0.2873,-0.6189,0.5582
-0.523,-0.039,-0.32,-28.5,17.6,-4.4,0,2018,5,1,18,34,44.583,-0.469,-0.2921,-0.6194,0.5576
-0.383,-0.076,-0.3,-29.6,-1,-0.6,0,2018,5,1,18,34,44.604,-0.4657,-0.2959,-0.621,0.5566
-0.219,-0.118,-0.371,-27.6,4,-1.1,0,2018,5,1,18,34,44.608,-0.4627,-0.2986,-0.6238,0.5545
-0.113,-0.14,-0.296,-19.3,48.6,-3.9,0,2018,5,1,18,34,44.625,-0.4589,-0.3033,-0.6232,0.5557
-0.014,0.05,-0.069,-12.9,78.9,-4.6,0,2018,5,1,18,34,44.644,-0.4541,-0.3108,-0.6179,0.5613
0.202,0.131,0.262,-18.8,79.2,-3.6,0,2018,5,1,18,34,44.664,-0.4487,-0.3192,-0.6108,0.5688
0.386,0.202,0.55,-34.1,60.7,-7.1,0,2018,5,1,18,34,44.702,-0.4423,-0.3281,-0.6054,0.5744
0.509,0.264,0.672,-52.5,-5.3,-14.6,0,2018,5,1,18,34,44.725,-0.4372,-0.3357,-0.6055,0.5738
0.517,0.122,0.579,-62.9,-22.5,-22.8,0,2018,5,1,18,34,44.729,-0.4341,-0.3421,-0.6109,0.5667
0.456,0.061,0.417,-62.5,-11.3,-28.7,1023,2018,5,1,18,34,44.764,-0.4309,-0.3498,-0.6159,0.5589
0.417,0,0.26,-56.4,-2,-34,1023,2018,5,1,18,34,44.786,-0.4279,-0.3586,-0.619,0.5522
0.294,-0.181,0.077,-48.9,1.3,-40.2,1023,2018,5,1,18,34,44.79,-0.426,-0.3674,-0.6203,0.5464
0.088,-0.359,-0.064,-41.4,5.6,-51,1023,2018,5,1,18,34,44.81,-0.4251,-0.3762,-0.6206,0.5408
-0.122,-0.493,-0.147,-35.9,20.4,-63.6,1023,2018,5,1,18,34,44.829,-0.4255,-0.387,-0.6187,0.535
-0.296,-0.482,-0.13,-37.9,34.3,-74.7,1023,2018,5,1,18,34,44.845,-0.4261,-0.4,-0.6143,0.53
-0.439,-0.384,-0.309,-37.5,50.6,-80.3,1023,2018,5,1,18,34,44.867,-0.4261,-0.4151,-0.6079,0.5257
-0.508,-0.125,-0.423,-30.6,58.8,-79.2,1023,2018,5,1,18,34,44.887,-0.4259,-0.4311,-0.5997,0.5225
-0.605,-0.058,-0.342,-28.1,76,-57.5,1023,2018,5,1,18,34,44.908,-0.4235,-0.4458,-0.5907,0.5223
-0.441,-0.034,-0.442,-25.7,86.4,-39.7,1023,2018,5,1,18,34,44.926,-0.4186,-0.4593,-0.5818,0.5245
-0.287,0.02,-0.485,-19,86.1,-22.2,1023,2018,5,1,18,34,44.946,-0.4119,-0.4707,-0.5732,0.5292
-0.194,0.164,-0.338,-16.3,62.6,-9.4,1023,2018,5,1,18,34,44.984,-0.4056,-0.4792,-0.5665,0.5336
-0.107,0.091,-0.225,-10.5,73.6,1.5,1023,2018,5,1,18,34,45.004,-0.3991,-0.4853,-0.5615,0.5383
0.111,0.235,-0.054,-3.6,106.9,8.3,1023,2018,5,1,18,34,45.008,-0.39,-0.4918,-0.5538,0.5469
0.253,0.43,0.151,-5.3,134,19.7,1023,2018,5,1,18,34,45.046,-0.3778,-0.4989,-0.5439,0.5588
0.427,0.578,0.254,-9.5,160.7,27.5,0,2018,5,1,18,34,45.066,-0.3614,-0.5071,-0.5319,0.5737
0.591,0.658,0.311,-13,130,25.6,0,2018,5,1,18,34,45.069,-0.3441,-0.5151,-0.5198,0.5881
0.576,0.533,0.382,-18.7,51.9,18.4,0,2018,5,1,18,34,45.108,-0.3323,-0.52,-0.5137,0.5959
0.479,0.314,0.324,-25.5,-7.4,12,0,2018,5,1,18,34,45.13,-0.3271,-0.522,-0.5146,0.5963
0.368,0.236,0.128,-30.3,-52.5,9.9,0,2018,5,1,18,34,45.134,-0.3262,-0.5222,-0.5203,0.5916
0.206,0.246,0,-33.3,-121.7,12.5,0,2018,5,1,18,34,45.15,-0.3301,-0.5196,-0.5318,0.5814
-0.034,-0.082,-0.209,-39.9,-188.1,14.7,0,2018,5,1,18,34,45.17,-0.3402,-0.5127,-0.5512,0.5633
-0.258,-0.471,-0.352,-38.5,-136.5,11.8,0,2018,5,1,18,34,45.188,-0.35,-0.5049,-0.5713,0.5441
-0.535,-0.687,-0.519,-26.3,-12.9,8.5,0,2018,5,1,18,34,45.228,-0.352,-0.5023,-0.5816,0.5342
-0.787,-0.277,-0.467,-16.4,51.5,-2.2,0,2018,5,1,18,34,45.247,-0.3472,-0.5061,-0.5801,0.5353
-0.784,-0.159,-0.395,-14.6,18.5,11.3,0,2018,5,1,18,34,45.252,-0.3421,-0.5093,-0.5782,0.5376
-0.524,-0.053,-0.352,-11.9,-20.3,23.3,0,2018,5,1,18,34,45.272,-0.3389,-0.5086,-0.5808,0.5375
-0.345,-0.171,-0.421,-11,-42.5,27.9,0,2018,5,1,18,34,45.291,-0.3385,-0.5049,-0.5877,0.5338
-0.208,-0.183,-0.339,-13.8,-18.6,30.7,0,2018,5,1,18,34,45.329,-0.3371,-0.5012,-0.5941,0.531
-0.037,-0.007,-0.35,-10.5,-15.1,36.8,0,2018,5,1,18,34,45.333,-0.3338,-0.498,-0.5992,0.5304
0.097,0.112,-0.144,-2.1,-32.5,40,0,2018,5,1,18,34,45.35,-0.3316,-0.4931,-0.6054,0.5293
0.271,0.084,0.27,-2.6,-24.9,38.3,0,2018,5,1,18,34,45.371,-0.3309,-0.4873,-0.6119,0.5277
0.583,0.237,0.436,-10.7,1.8,27.4,0,2018,5,1,18,34,45.39,-0.328,-0.4838,-0.616,0.528
0.794,0.427,0.58,-21.7,-14.7,9.7,0,2018,5,1,18,34,45.41,-0.3248,-0.4831,-0.6191,0.527
0.718,0.454,0.51,-25.9,-47,-5.3,0,2018,5,1,18,34,45.432,-0.3247,-0.4834,-0.6235,0.5215
0.532,0.269,0.374,-24.9,-47.5,-11.8,0,2018,5,1,18,34,45.453,-0.3269,-0.4839,-0.6288,0.5132
0.315,0.195,0.224,-23.1,-24.8,-9.5,0,2018,5,1,18,34,45.472,-0.3283,-0.4852,-0.6324,0.5066
0.13,0.057,-0.057,-20.4,-19.3,-7.5,0,2018,5,1,18,34,45.492,-0.3288,-0.4871,-0.6343,0.5021
0,-0.119,-0.274,-18.5,-42.1,-2,1023,2018,5,1,18,34,45.512,-0.3298,-0.4878,-0.6378,0.4963
-0.22,-0.484,-0.61,-9.3,-42.7,-1.7,1023,2018,5,1,18,34,45.532,-0.3321,-0.4866,-0.6426,0.4897
-0.465,-0.789,-0.842,16.3,1.4,-12.6,1023,2018,5,1,18,34,45.572,-0.3349,-0.4857,-0.6439,0.4869
-0.659,-0.551,-0.68,41.6,63.1,-22.4,1023,2018,5,1,18,34,45.576,-0.3369,-0.4873,-0.6379,0.4919
-0.625,0.05,-0.265,48.7,55.1,-13.7,1023,2018,5,1,18,34,45.592,-0.3378,-0.4894,-0.6276,0.5023
-0.41,0.223,-0.065,28.2,-38.7,14.8,1023,2018,5,1,18,34,45.61,-0.342,-0.486,-0.6257,0.5051
-0.261,-0.252,-0.143,22.2,-11.1,26.5,1023,2018,5,1,18,34,45.649,-0.3453,-0.4794,-0.629,0.505
-0.067,-0.086,-0.088,15.4,25.6,27.3,1023,2018,5,1,18,34,45.668,-0.3439,-0.4755,-0.6294,0.5093
0.108,0.049,-0.096,11.6,3,24.7,1023,2018,5,1,18,34,45.672,-0.3415,-0.4726,-0.6296,0.5133
0.279,0.282,0.063,16.8,-26.7,22.4,1023,2018,5,1,18,34,45.691,-0.3423,-0.4681,-0.632,0.514
0.344,0.346,0.385,21.8,-22.8,16.1,1023,2018,5,1,18,34,45.714,-0.3451,-0.4624,-0.6352,0.5133
0.491,0.559,0.715,20.9,43.1,11.8,1023,2018,5,1,18,34,45.754,-0.3455,-0.4596,-0.634,0.5171
0.537,0.739,0.555,10.7,28.6,12.9,1023,2018,5,1,18,34,45.773,-0.3425,-0.4595,-0.6301,0.5238
0.476,0.43,0.297,0.3,-29.3,18.1,1023,2018,5,1,18,34,45.777,-0.3418,-0.4571,-0.6314,0.5247
0.277,0.262,0.25,-8.3,-60.7,24.9,0,2018,5,1,18,34,45.796,-0.3431,-0.4523,-0.6377,0.5204
0.096,-0.13,-0.155,-6.4,-87.3,22,0,2018,5,1,18,34,45.818,-0.3461,-0.4458,-0.6466,0.5131
0.004,-0.395,-0.418,-0.9,-91.7,16,0,2018,5,1,18,34,45.838,-0.3511,-0.4382,-0.6567,0.5032
-0.165,-0.413,-0.596,8.1,-67.2,13,0,2018,5,1,18,34,45.853,-0.3563,-0.4314,-0.6646,0.4949
-0.375,-0.414,-0.611,20.1,-48.1,13.2,0,2018,5,1,18,34,45.873,-0.3612,-0.4251,-0.6698,0.4899
-0.611,-0.331,-0.689,33.7,-18,14.4,0,2018,5,1,18,34,45.894,-0.3657,-0.4191,-0.6721,0.4886
-0.651,0.12,-0.483,46.4,-16.7,28.3,0,2018,5,1,18,34,45.913,-0.3696,-0.4123,-0.6722,0.4913
-0.491,-0.012,-0.149,43.1,-28.9,43.4,0,2018,5,1,18,34,45.953,-0.3737,-0.4022,-0.6742,0.4938
-0.227,-0.023,-0.157,30.6,-24.2,53,0,2018,5,1,18,34,45.973,-0.3755,-0.3917,-0.6779,0.4958
-0.154,-0.162,-0.111,27.2,-23.5,51.5,0,2018,5,1,18,34,45.977,-0.376,-0.3813,-0.682,0.4979
-0.138,-0.122,-0.076,33.7,0,48.5,0,2018,5,1,18,34,45.996,-0.3761,-0.3719,-0.6846,0.5015
0.033,0.075,0.049,40.6,7.5,47.4,0,2018,5,1,18,34,46.015,-0.3759,-0.363,-0.6844,0.5083
0.25,0.161,0.279,39.1,-11.5,46.3,0,2018,5,1,18,34,46.051,-0.3768,-0.3536,-0.6851,0.5133
0.409,0.294,0.577,29.1,-21.4,37.7,0,2018,5,1,18,34,46.07,-0.3783,-0.3443,-0.687,0.516
0.533,0.405,0.622,16.9,-28.5,28.8,0,2018,5,1,18,34,46.075,-0.3794,-0.3367,-0.6896,0.5166
0.517,0.385,0.315,10.1,-56.2,23.6,0,2018,5,1,18,34,46.092,-0.3811,-0.3296,-0.6943,0.5137
0.474,0.235,0.103,11.1,-61,21.9,0,2018,5,1,18,34,46.116,-0.3837,-0.3219,-0.7002,0.5086
0.327,0.212,0.065,10.2,-73.6,23.6,0,2018,5,1,18,34,46.154,-0.3868,-0.3137,-0.7065,0.5026
0.17,-0.049,-0.178,13.6,-79.5,21.6,0,2018,5,1,18,34,46.173,-0.3905,-0.3046,-0.7137,0.4952
-0.04,-0.373,-0.302,18.9,-73.4,13.1,0,2018,5,1,18,34,46.177,-0.395,-0.2956,-0.7203,0.4874
-0.17,-0.236,-0.344,18.7,-65.6,14.1,0,2018,5,1,18,34,46.197,-0.3997,-0.2876,-0.7259,0.48
-0.384,-0.356,-0.474,23.2,-54.3,13.5,0,2018,5,1,18,34,46.218,-0.4043,-0.2797,-0.7304,0.474
-0.551,-0.376,-0.546,35.1,-6.1,15.1,0,2018,5,1,18,34,46.238,-0.4082,-0.2734,-0.7315,0.4725
-0.652,-0.155,-0.372,42.8,18.6,20.9,0,2018,5,1,18,34,46.26,-0.4114,-0.2686,-0.7289,0.4766
-0.512,-0.156,-0.215,43.4,14.3,30.4,1023,2018,5,1,18,34,46.296,-0.4139,-0.2628,-0.7255,0.4827
-0.4,-0.078,-0.089,34.4,6.3,38,1023,2018,5,1,18,34,46.301,-0.4155,-0.2558,-0.7237,0.4878
-0.18,-0.108,-0.134,35.4,25.8,36.8,1023,2018,5,1,18,34,46.318,-0.4159,-0.2493,-0.7215,0.4942
-0.148,-0.055,-0.056,36.7,34.5,37.1,1023,2018,5,1,18,34,46.336,-0.4159,-0.2437,-0.718,0.502
-0.02,0.034,0.01,39.2,46,36.6,1023,2018,5,1,18,34,46.358,-0.4154,-0.2381,-0.7131,0.5119
0.183,0.167,0.153,41.5,38.7,33.5,1023,2018,5,1,18,34,46.378,-0.4158,-0.2332,-0.7075,0.5215
0.397,0.211,0.364,41.4,50.7,26.8,1023,2018,5,1,18,34,46.398,-0.4165,-0.2286,-0.7019,0.5305
0.455,0.485,0.631,35.6,65.3,17.3,1023,2018,5,1,18,34,46.418,-0.4169,-0.227,-0.6941,0.5411
0.463,0.615,0.669,18.7,-1.7,15.8,1023,2018,5,1,18,34,46.438,-0.4174,-0.225,-0.6894,0.5475
0.374,0.056,0.336,6.6,-43.3,13.2,1023,2018,5,1,18,34,46.458,-0.4185,-0.2198,-0.6922,0.5453
0.328,-0.069,0.208,1.7,-35.1,4.1,1023,2018,5,1,18,34,46.479,-0.4196,-0.2154,-0.696,0.5412
0.219,-0.101,0.046,-4,-49.2,-4.1,1023,2018,5,1,18,34,46.518,-0.421,-0.2127,-0.6998,0.5362
0.062,-0.442,-0.244,-2.2,-47.6,-20.4,1023,2018,5,1,18,34,46.538,-0.4235,-0.2105,-0.7045,0.529
-0.156,-0.433,-0.366,-0.6,-42.8,-34.2,1023,2018,5,1,18,34,46.542,-0.4276,-0.2109,-0.7075,0.5214
-0.399,-0.318,-0.562,10,-27.4,-32.9,1023,2018,5,1,18,34,46.564,-0.4326,-0.2122,-0.7091,0.5147
-0.766,-0.202,-0.502,17.1,-13.2,-15.2,1023,2018,5,1,18,34,46.581,-0.4373,-0.2122,-0.7093,0.5103
-0.797,-0.122,-0.193,16.8,18.1,6,1023,2018,5,1,18,34,46.62,-0.4397,-0.2115,-0.7074,0.5112
-0.519,-0.343,-0.13,9.5,21.4,18.8,1023,2018,5,1,18,34,46.642,-0.4393,-0.2101,-0.7054,0.5149
-0.302,-0.253,-0.165,8.4,45.3,19.9,1023,2018,5,1,18,34,46.646,-0.4373,-0.2095,-0.7025,0.5207
-0.177,-0.086,-0.131,17.6,36.8,18,1023,2018,5,1,18,34,46.658,-0.4354,-0.2094,-0.6986,0.5276
-0.137,0.024,-0.068,32.6,36,18.3,0,2018,5,1,18,34,46.696,-0.4354,-0.2072,-0.6947,0.5336
-0.011,0.21,0.151,44.6,67.2,24.1,0,2018,5,1,18,34,46.716,-0.4364,-0.2046,-0.6873,0.5433
0.182,0.252,0.344,39.5,79.7,28.1,0,2018,5,1,18,34,46.72,-0.4365,-0.2028,-0.678,0.5554
0.387,0.383,0.36,28.9,67.6,26.4,0,2018,5,1,18,34,46.756,-0.4351,-0.2023,-0.6687,0.5679
0.545,0.446,0.458,10.6,-37.5,20,0,2018,5,1,18,34,46.777,-0.4344,-0.1988,-0.6664,0.5722
0.497,-0.006,0.46,-4.9,-76.1,4.2,0,2018,5,1,18,34,46.781,-0.4357,-0.1918,-0.6737,0.565
0.462,-0.107,0.319,-11.2,-27.7,-17.8,0,2018,5,1,18,34,46.82,-0.4372,-0.1897,-0.6791,0.5581
0.427,-0.036,0.191,-15.1,-23.8,-31.4,0,2018,5,1,18,34,46.84,-0.4388,-0.1925,-0.6813,0.5532
0.251,0.027,0.137,-21.6,-63.3,-35.5,0,2018,5,1,18,34,46.844,-0.4413,-0.195,-0.6855,0.5451
0.051,-0.225,-0.044,-26,-68.2,-41.3,0,2018,5,1,18,34,46.861,-0.4443,-0.1957,-0.6926,0.5333
-0.162,-0.421,-0.462,-21.4,-29.9,-45.9,0,2018,5,1,18,34,46.882,-0.4471,-0.1993,-0.6977,0.5229
-0.344,-0.228,-0.695,-0.7,25.1,-42.5,0,2018,5,1,18,34,46.9,-0.4497,-0.2061,-0.6969,0.519
-0.715,-0.392,-0.579,25.7,34,-36.2,0,2018,5,1,18,34,46.941,-0.4538,-0.2122,-0.6914,0.5204
-0.883,-0.146,-0.069,21.8,5.1,-14.4,0,2018,5,1,18,34,46.961,-0.4589,-0.2143,-0.6871,0.5208
-0.63,-0.37,-0.127,7.1,38.9,-5.1,0,2018,5,1,18,34,46.965,-0.4606,-0.2156,-0.6841,0.5227
-0.375,-0.231,-0.179,0.4,85.9,-2.8,0,2018,5,1,18,34,46.984,-0.4587,-0.221,-0.678,0.53
-0.199,-0.06,-0.063,16.4,95.9,-3.8,0,2018,5,1,18,34,47.005,-0.4563,-0.2283,-0.6686,0.5408
0.121,0.033,0.353,31.8,109.9,-3.9,0,2018,5,1,18,34,47.026,-0.4556,-0.2338,-0.6567,0.5534
0.316,0.392,0.818,30.5,134.8,-0.8,1023,2018,5,1,18,34,47.044,-0.4545,-0.2408,-0.6416,0.5688
0.5,0.559,0.987,11.5,154.3,9.3,1023,2018,5,1,18,34,47.064,-0.4503,-0.2496,-0.6255,0.5861
0.616,0.477,0.665,-5.1,163.3,17.5,1023,2018,5,1,18,34,47.085,-0.4418,-0.2606,-0.6092,0.6046
0.621,0.15,0.5,-12.1,108.1,14.7,1023,2018,5,1,18,34,47.101,-0.4326,-0.2704,-0.5958,0.6202
0.602,-0.262,0.398,-22.4,51.1,-2.6,1023,2018,5,1,18,34,47.141,-0.4265,-0.2771,-0.5895,0.6274
0.446,-0.464,0.358,-37.1,35.9,-29.5,1023,2018,5,1,18,34,47.163,-0.4235,-0.2847,-0.5855,0.6297
0.272,-0.463,0.171,-54.7,40.2,-55.7,1023,2018,5,1,18,34,47.167,-0.4217,-0.297,-0.5826,0.628
0.111,-0.426,-0.088,-64.1,54.3,-77,1023,2018,5,1,18,34,47.185,-0.4204,-0.314,-0.5781,0.6247
0.022,-0.499,-0.257,-57.6,78.3,-91.1,1023,2018,5,1,18,34,47.222,-0.4195,-0.3342,-0.5704,0.622
-0.043,-0.505,-0.33,-48.1,88.5,-102.8,1023,2018,5,1,18,34,47.245,-0.4196,-0.3558,-0.5588,0.6204
-0.204,-0.439,-0.4,-38.5,82.4,-115.2,1023,2018,5,1,18,34,47.249,-0.4217,-0.3773,-0.5456,0.618
-0.183,-0.429,-0.49,-26.2,89.5,-124.5,1023,2018,5,1,18,34,47.268,-0.4258,-0.3983,-0.5307,0.615
-0.184,-0.236,-0.448,-8.5,84.3,-133.3,1023,2018,5,1,18,34,47.288,-0.4318,-0.4185,-0.5134,0.6121
-0.171,-0.262,-0.285,4.3,87,-138.7,1023,2018,5,1,18,34,47.325,-0.44,-0.437,-0.494,0.6093
-0.222,-0.14,-0.324,9.5,89.5,-138.3,1023,2018,5,1,18,34,47.345,-0.4483,-0.455,-0.4728,0.6068
-0.309,-0.008,-0.315,16.5,71.1,-124.8,1023,2018,5,1,18,34,47.349,-0.457,-0.4704,-0.4528,0.6038
-0.382,0.349,-0.235,24.5,93.4,-99.9,0,2018,5,1,18,34,47.37,-0.4638,-0.4834,-0.433,0.6029
-0.471,0.945,0.13,20.1,76.7,-43,0,2018,5,1,18,34,47.389,-0.4656,-0.4935,-0.4151,0.6059
-0.527,1.124,0.472,-4.8,-10.1,31,0,2018,5,1,18,34,47.405,-0.4634,-0.496,-0.4098,0.6091
-0.44,1.043,0.026,-16.7,-125.9,99,0,2018,5,1,18,34,47.443,-0.4617,-0.4866,-0.4242,0.6082
-0.389,0.735,-0.264,-4.5,-197.4,156.7,0,2018,5,1,18,34,47.465,-0.4609,-0.4644,-0.4534,0.6052
-0.429,-0.156,-0.306,6.5,-185,186.9,0,2018,5,1,18,34,47.469,-0.4587,-0.433,-0.4884,0.6028
-0.236,-0.693,-0.25,20.2,-36.4,178.2,0,2018,5,1,18,34,47.486,-0.4483,-0.4069,-0.512,0.6092
-0.213,-1.483,-0.468,36.5,18.9,131.8,0,2018,5,1,18,34,47.524,-0.4345,-0.3887,-0.5214,0.6229
-0.01,-2.055,-0.479,58.5,107.9,24.7,0,2018,5,1,18,34,47.546,-0.4256,-0.3813,-0.5153,0.6385
0.155,-2.038,0.033,51.6,200.6,-105.8,0,2018,5,1,18,34,47.55,-0.4263,-0.3893,-0.4916,0.6518
0.047,-0.747,0.041,16.7,312.6,-185.2,0,2018,5,1,18,34,47.569,-0.4277,-0.418,-0.4475,0.6647
0.067,-0.283,-0.827,16.3,319.7,-220.4,0,2018,5,1,18,34,47.589,-0.4276,-0.4559,-0.3926,0.6745
0.017,-0.194,-0.954,52.7,236.1,-243.7,0,2018,5,1,18,34,47.609,-0.4343,-0.4874,-0.3377,0.6779
-0.151,-0.032,-0.885,94.9,197.2,-251.6,0,2018,5,1,18,34,47.645,-0.4498,-0.5078,-0.2856,0.6768
-0.316,0.116,-0.582,115.6,233.2,-252.8,0,2018,5,1,18,34,47.666,-0.4648,-0.5237,-0.2282,0.6763
-0.451,0.772,-0.171,118.4,206.3,-240.9,0,2018,5,1,18,34,47.67,-0.4774,-0.537,-0.1683,0.6748
-0.318,1.454,-0.023,108,116.1,-193.6,0,2018,5,1,18,34,47.69,-0.4902,-0.5431,-0.1183,0.6712
-0.139,2.039,0.008,87.6,8.6,-108.4,0,2018,5,1,18,34,47.71,-0.5041,-0.5391,-0.0886,0.6687
-0.165,1.673,0.18,86.6,26.5,-0.2,0,2018,5,1,18,34,47.728,-0.5103,-0.5303,-0.074,0.6728
-0.205,1.268,0.289,65,50.1,91.9,0,2018,5,1,18,34,47.767,-0.5007,-0.5249,-0.0663,0.685
-0.203,0.545,0.283,37.8,-15.9,138.8,0,2018,5,1,18,34,47.787,-0.485,-0.519,-0.0705,0.7002
-0.214,-0.244,-0.024,22.3,-15.7,148.1,1023,2018,5,1,18,34,47.791,-0.4696,-0.5113,-0.0843,0.7147
-0.218,-0.131,-0.407,24.8,-20.7,140.4,1023,2018,5,1,18,34,47.812,-0.4523,-0.5057,-0.0963,0.7282
-0.292,-0.896,-0.596,38.2,-105.4,117.9,1023,2018,5,1,18,34,47.833,-0.4421,-0.4938,-0.1143,0.7399
-0.154,-2.284,-0.552,51,-47.1,37.2,1023,2018,5,1,18,34,47.849,-0.4402,-0.4793,-0.1293,0.7481
-0.1,-2.324,0.166,47.5,122.3,-76,1023,2018,5,1,18,34,47.868,-0.4412,-0.4758,-0.1187,0.7515
-0.146,-0.49,0.401,5,168.3,-148.8,1023,2018,5,1,18,34,47.888,-0.4432,-0.4872,-0.0848,0.7475
-0.036,-0.146,-0.243,-12.4,115.1,-178.9,1023,2018,5,1,18,34,47.924,-0.4528,-0.5011,-0.053,0.7355
-0.057,0.071,-0.405,1,103.6,-179.9,1023,2018,5,1,18,34,47.945,-0.4662,-0.5116,-0.0238,0.7212
-0.189,0.983,-0.35,14.5,84.8,-149.8,1023,2018,5,1,18,34,47.949,-0.4786,-0.5186,0.0039,0.7084
-0.12,1.761,-0.202,30.1,132.2,-80.6,1023,2018,5,1,18,34,47.988,-0.4833,-0.5243,0.0296,0.7003
-0.022,2.367,0.141,48.8,85.7,27.7,1023,2018,5,1,18,34,48.008,-0.4751,-0.5295,0.0498,0.7009
-0.145,1.076,0.599,27.3,-74.9,115.7,1023,2018,5,1,18,34,48.012,-0.4658,-0.5247,0.0448,0.7111
-0.122,0.267,0.5,-25.2,-117.1,154.8,1023,2018,5,1,18,34,48.033,-0.4578,-0.5169,0.0193,0.723
-0.054,-0.011,-0.144,-48.2,-102.7,166.9,1023,2018,5,1,18,34,48.054,-0.447,-0.5134,-0.0121,0.7323
0.025,-0.511,-0.538,-19.6,-102.5,144.6,1023,2018,5,1,18,34,48.073,-0.4358,-0.5092,-0.0419,0.7409
-0.042,-1.077,-0.671,0.2,-79.8,101.9,1023,2018,5,1,18,34,48.112,-0.4274,-0.5025,-0.065,0.7486
-0.023,-1.796,-0.696,24.2,-37.4,25.2,1023,2018,5,1,18,34,48.117,-0.4244,-0.4955,-0.0776,0.7538
-0.021,-1.766,-0.091,27.9,50.9,-61.1,1023,2018,5,1,18,34,48.132,-0.4275,-0.492,-0.0737,0.7547
-0.075,-0.565,0.464,-3,144.2,-116.1,0,2018,5,1,18,34,48.152,-0.4302,-0.4994,-0.0498,0.7502
-0.133,-0.04,0.231,-41.1,124.7,-139.4,0,2018,5,1,18,34,48.173,-0.4347,-0.5139,-0.0222,0.7391
-0.083,0.671,-0.214,-53.8,51.1,-134.1,0,2018,5,1,18,34,48.192,-0.4443,-0.5274,-0.0016,0.7241
-0.065,1.46,-0.337,-50.4,-61.8,-78.8,0,2018,5,1,18,34,48.213,-0.4586,-0.5333,0.0028,0.7107
-0.082,1.596,-0.262,-48.9,-74.8,14.6,0,2018,5,1,18,34,48.232,-0.4698,-0.5329,-0.0073,0.7036
-0.2,1.08,0.184,-56.2,-96.6,99.1,0,2018,5,1,18,34,48.252,-0.47,-0.5318,-0.0276,0.7038
-0.452,0.355,1.24,-109.3,-136.8,131.6,0,2018,5,1,18,34,48.293,-0.4647,-0.5318,-0.0582,0.7055
-0.365,0.757,-0.079,-151.5,-274.3,164.7,0,2018,5,1,18,34,48.313,-0.4634,-0.5297,-0.1088,0.7019
-0.31,0.27,-0.77,-148.9,-346,173.6,0,2018,5,1,18,34,48.317,-0.4684,-0.5174,-0.1767,0.6939
-0.171,-0.163,-0.659,-118,-317.9,162.3,0,2018,5,1,18,34,48.335,-0.4735,-0.4991,-0.2436,0.6835
-0.189,0.017,-0.391,-97.4,-275.4,150.4,0,2018,5,1,18,34,48.356,-0.4745,-0.4805,-0.2994,0.6739
-0.169,0.196,-0.536,-90.8,-295.9,148.5,0,2018,5,1,18,34,48.373,-0.475,-0.4595,-0.3526,0.6624
-0.117,-0.019,-0.605,-78.4,-281.5,142.2,0,2018,5,1,18,34,48.394,-0.4755,-0.4353,-0.4044,0.6485
-0.122,0.023,-0.545,-63.8,-258.7,135.5,0,2018,5,1,18,34,48.413,-0.4745,-0.4106,-0.4505,0.6349
-0.229,0.004,-0.593,-54.3,-234.6,134.3,0,2018,5,1,18,34,48.434,-0.472,-0.3856,-0.4917,0.6217
-0.31,-0.296,-0.701,-36.8,-203.1,126,0,2018,5,1,18,34,48.455,-0.4683,-0.3606,-0.5278,0.6099
-0.32,-0.423,-0.605,-20,-129.9,106.1,0,2018,5,1,18,34,48.476,-0.4636,-0.3391,-0.5546,0.602
-0.343,-0.315,-0.225,-9,-111.8,91.8,0,2018,5,1,18,34,48.494,-0.4583,-0.3217,-0.5729,0.5984
-0.36,-0.859,-0.148,-8.5,-81.9,59.1,0,2018,5,1,18,34,48.534,-0.4553,-0.3063,-0.5887,0.5934
-0.311,-1.066,-0.137,-7.4,2.6,12.3,1023,2018,5,1,18,34,48.538,-0.4527,-0.3006,-0.5946,0.5924
-0.134,-0.875,-0.082,-11.2,54.4,-32.2,1023,2018,5,1,18,34,48.556,-0.4514,-0.3051,-0.5913,0.5944
0.035,-0.715,-0.07,-18.9,108.1,-64.4,1023,2018,5,1,18,34,48.594,-0.4505,-0.3185,-0.581,0.5983
0.073,-0.508,-0.029,-19.6,157.6,-85.9,1023,2018,5,1,18,34,48.599,-0.449,-0.3386,-0.5639,0.6046
0.035,0.047,0.051,-30.5,151.7,-93.4,1023,2018,5,1,18,34,48.616,-0.4463,-0.3626,-0.5423,0.6124
0.073,0.076,0.021,-44.8,95.7,-88.6,1023,2018,5,1,18,34,48.635,-0.4449,-0.3845,-0.5262,0.6141
0.065,0,-0.105,-46,77.9,-85.2,1023,2018,5,1,18,34,48.655,-0.4444,-0.4042,-0.5149,0.6114
-0.011,0.038,-0.156,-40.8,53.4,-84.1,1023,2018,5,1,18,34,48.692,-0.4445,-0.4218,-0.505,0.6077
0.067,-0.226,-0.212,-28.4,47.8,-88.8,1023,2018,5,1,18,34,48.714,-0.4468,-0.4368,-0.4963,0.6026
0.143,0.22,-0.053,-10.7,51.2,-83.6,1023,2018,5,1,18,34,48.718,-0.4505,-0.4503,-0.4854,0.5987
0.123,0.233,0.082,-3.4,51.7,-70.5,1023,2018,5,1,18,34,48.737,-0.4536,-0.4615,-0.474,0.597
0.146,0.352,0.121,-0.6,8,-55.6,1023,2018,5,1,18,34,48.756,-0.4577,-0.4691,-0.4657,0.5944
0.247,0.269,0.095,-0.4,-23.2,-42.4,1023,2018,5,1,18,34,48.796,-0.4636,-0.4722,-0.4626,0.5899
0.295,0.09,-0.013,7.9,-16.9,-33.8,1023,2018,5,1,18,34,48.816,-0.47,-0.4731,-0.4611,0.5852
0.288,0,0.102,17.1,32.6,-31.9,1023,2018,5,1,18,34,48.82,-0.4742,-0.4749,-0.4562,0.5842
0.26,0.192,0.192,22.3,70.8,-30.2,1023,2018,5,1,18,34,48.839,-0.4747,-0.4798,-0.4454,0.5881
0.297,0.328,0.104,24.2,69.3,-24.8,0,2018,5,1,18,34,48.861,-0.4732,-0.4855,-0.4336,0.5934
0.308,0.31,0.041,28.1,41.1,-19.7,0,2018,5,1,18,34,48.88,-0.4726,-0.4891,-0.4235,0.5981
0.287,0.152,0.062,32.2,22.2,-15.6,0,2018,5,1,18,34,48.918,-0.4745,-0.4897,-0.4163,0.6013
0.327,0.053,-0.033,41.7,27.4,-17.2,0,2018,5,1,18,34,48.922,-0.4772,-0.4895,-0.4086,0.6046
0.318,-0.092,-0.062,53.5,24,-24.7,0,2018,5,1,18,34,48.936,-0.4805,-0.4883,-0.4003,0.6084
0.239,-0.224,0.17,59.6,79,-38.6,0,2018,5,1,18,34,48.974,-0.4835,-0.4882,-0.3879,0.6142
0.243,-0.207,0.189,57.9,84.6,-56.1,0,2018,5,1,18,34,48.995,-0.4848,-0.4925,-0.369,0.6214
0.201,-0.299,0.125,53.2,79.1,-74.2,0,2018,5,1,18,34,48.999,-0.4886,-0.4973,-0.3499,0.6255
0.107,-0.557,-0.106,58.4,92.5,-91.9,0,2018,5,1,18,34,49.017,-0.4938,-0.5033,-0.3287,0.6282
-0.072,-0.703,-0.162,66.2,183.4,-112.3,0,2018,5,1,18,34,49.038,-0.4968,-0.5136,-0.2991,0.6323
-0.208,-0.76,-0.355,72,293.8,-136.3,0,2018,5,1,18,34,49.076,-0.4915,-0.533,-0.2543,0.6399
-0.317,-0.599,-0.449,78.5,371.1,-162.9,0,2018,5,1,18,34,49.103,-0.4793,-0.5588,-0.1955,0.6478
-0.354,-0.164,-0.368,79.1,380.5,-181.8,0,2018,5,1,18,34,49.117,-0.4626,-0.5864,-0.1274,0.6524
-0.357,0.172,-0.022,68.7,250.7,-181.1,0,2018,5,1,18,34,49.119,-0.4514,-0.6064,-0.0663,0.6511
-0.315,0.064,-0.086,68.7,153.2,-175.3,0,2018,5,1,18,34,49.137,-0.4513,-0.6153,-0.0197,0.6459
-0.328,-0.031,-0.227,73.2,86.8,-171.2,0,2018,5,1,18,34,49.158,-0.4584,-0.6165,0.0175,0.6398
-0.262,0.061,-0.328,78.4,70.3,-154.2,0,2018,5,1,18,34,49.195,-0.468,-0.6131,0.0495,0.6344
-0.279,0.236,-0.393,83.9,69.3,-134.7,0,2018,5,1,18,34,49.215,-0.4757,-0.6082,0.0795,0.6303
-0.38,0.7,-0.266,86.8,72.5,-87.4,0,2018,5,1,18,34,49.216,-0.4793,-0.6029,0.1062,0.6287
-0.385,1.375,0.083,83.5,79.5,-10.3,0,2018,5,1,18,34,49.257,-0.4745,-0.5992,0.1275,0.632
-0.317,0.849,0.365,60.7,7.8,56.8,0,2018,5,1,18,34,49.276,-0.4651,-0.5953,0.1354,0.6409
-0.107,0.08,0.408,32.9,-9,88.9,1023,2018,5,1,18,34,49.28,-0.4559,-0.5915,0.1305,0.652
-0.043,-0.119,0.111,10.1,-14.2,94,1023,2018,5,1,18,34,49.302,-0.4462,-0.5902,0.1213,0.6615
-0.132,0.156,-0.01,-2.8,-23.7,101.1,1023,2018,5,1,18,34,49.32,-0.4367,-0.5904,0.1098,0.6697
-0.147,0.45,-0.225,-12.4,-112.1,117.8,1023,2018,5,1,18,34,49.358,-0.4304,-0.5886,0.0905,0.6781
-0.149,-0.47,-0.648,-3.1,-201.8,110.7,1023,2018,5,1,18,34,49.363,-0.4342,-0.5781,0.0571,0.6883
-0.019,-1.847,-0.743,34.5,-49.1,55.4,1023,2018,5,1,18,34,49.38,-0.4377,-0.5663,0.0327,0.6975
-0.025,-1.63,0.316,39,75.3,-32,1023,2018,5,1,18,34,49.401,-0.4328,-0.5638,0.0394,0.7022
0.013,-0.88,0.368,17.7,104.2,-95,1023,2018,5,1,18,34,49.42,-0.4317,-0.5669,0.0591,0.699
0.013,-0.068,-0.224,12.8,72,-129.7,1023,2018,5,1,18,34,49.441,-0.4364,-0.5707,0.0828,0.6905
-0.055,0.282,-0.311,30.3,39,-139.9,1023,2018,5,1,18,34,49.479,-0.4475,-0.5698,0.1039,0.6813
-0.095,0.847,-0.018,38.2,-10.2,-117.1,1023,2018,5,1,18,34,49.5,-0.4602,-0.5644,0.1218,0.6742
-0.022,1.21,0.263,26.7,-20.9,-57.7,1023,2018,5,1,18,34,49.505,-0.4732,-0.5559,0.13,0.6708
-0.044,2.066,0.419,9.1,17.8,34,1023,2018,5,1,18,34,49.523,-0.4732,-0.5544,0.1337,0.6713
0.003,0.589,0.528,-28.2,-66,97.2,1023,2018,5,1,18,34,49.544,-0.4678,-0.5547,0.1222,0.677
0.043,0.004,0.409,-57.1,-43.6,107.5,1023,2018,5,1,18,34,49.564,-0.4616,-0.5576,0.1021,0.6822
-0.015,0.239,-0.053,-76.5,-125.3,120.5,1023,2018,5,1,18,34,49.583,-0.4568,-0.5612,0.0754,0.6859
-0.067,0.181,-0.046,-81.7,-138.9,122.2,1023,2018,5,1,18,34,49.622,-0.4567,-0.561,0.041,0.6891
-0.133,0.395,-0.167,-87.1,-178.5,129.4,0,2018,5,1,18,34,49.641,-0.457,-0.5594,0.0033,0.6914
-0.199,0.213,-0.179,-92.2,-227.2,137.1,0,2018,5,1,18,34,49.645,-0.4605,-0.5533,-0.0417,0.6927
-0.228,0.077,-0.019,-102,-255.5,135.8,0,2018,5,1,18,34,49.662,-0.466,-0.5438,-0.0921,0.6917
-0.271,0.027,-0.141,-111.1,-265.3,130,0,2018,5,1,18,34,49.682,-0.4726,-0.5323,-0.1451,0.6871
-0.282,0.139,-0.354,-112.1,-241,127.4,0,2018,5,1,18,34,49.703,-0.4771,-0.5209,-0.1964,0.6799
-0.358,0.32,-0.473,-105.7,-252.8,131.6,0,2018,5,1,18,34,49.725,-0.4795,-0.5085,-0.2458,0.6715
-0.36,0.219,-0.46,-99.2,-263.1,134.6,0,2018,5,1,18,34,49.744,-0.4818,-0.4923,-0.2964,0.6614
-0.333,0.209,-0.495,-92.6,-264.2,143.3,0,2018,5,1,18,34,49.782,-0.4826,-0.4734,-0.3464,0.6502
-0.356,0.092,-0.541,-82.6,-277.7,152.7,0,2018,5,1,18,34,49.804,-0.4821,-0.4506,-0.3964,0.6381
-0.401,0.1,-0.699,-69.7,-276.5,157.1,0,2018,5,1,18,34,49.808,-0.4804,-0.4244,-0.4451,0.6251
-0.549,-0.402,-0.964,-47.6,-259.3,147.5,0,2018,5,1,18,34,49.827,-0.4783,-0.3956,-0.4901,0.6119
-0.565,-0.953,-0.865,-20.8,-186.1,116.3,0,2018,5,1,18,34,49.847,-0.476,-0.3687,-0.5252,0.6012
-0.391,-0.961,0.211,-19.6,-112.1,69.1,0,2018,5,1,18,34,49.866,-0.4738,-0.3499,-0.547,0.5948
-0.27,-1.147,0.02,-46.5,-56.6,7.9,0,2018,5,1,18,34,49.887,-0.4718,-0.3426,-0.5613,0.5873
-0.163,-1.078,-0.583,-30.8,4.8,-44.5,0,2018,5,1,18,34,49.906,-0.4712,-0.3469,-0.5655,0.581
-0.127,-0.873,0.059,-25.8,91.7,-82.4,0,2018,5,1,18,34,49.925,-0.4724,-0.3598,-0.5586,0.5789
-0.177,-0.331,0.207,-52.9,149.3,-106,0,2018,5,1,18,34,49.964,-0.47,-0.3839,-0.5423,0.5809
0.049,-0.227,-0.171,-63,142.4,-105.8,0,2018,5,1,18,34,49.984,-0.4651,-0.4119,-0.525,0.5815
-0.008,-0.168,-0.19,-57.4,157.3,-103.3,0,2018,5,1,18,34,49.988,-0.4591,-0.4394,-0.5067,0.5824
-0.026,-0.099,-0.154,-52.3,178.2,-100.5,1023,2018,5,1,18,34,50.008,-0.4511,-0.4673,-0.4853,0.5851
-0.041,0.155,0.008,-57.3,141.7,-93.5,1023,2018,5,1,18,34,50.027,-0.4428,-0.4942,-0.4639,0.5868
0.084,0.054,-0.02,-62.3,62.5,-88.8,1023,2018,5,1,18,34,50.062,-0.4388,-0.5154,-0.45,0.5823
0.445,0.001,-0.296,-42.7,68.4,-96.7,1023,2018,5,1,18,34,50.083,-0.4381,-0.533,-0.4391,0.5753
0.521,0.257,-0.178,-18.7,97,-97.7,1023,2018,5,1,18,34,50.087,-0.438,-0.5496,-0.4241,0.5711
0.569,0.568,-0.066,-3.3,124,-89.5,1023,2018,5,1,18,34,50.126,-0.4355,-0.5659,-0.4048,0.571
0.603,0.688,0.014,11.7,109.9,-77.6,1023,2018,5,1,18,34,50.146,-0.4318,-0.5803,-0.3838,0.5739
0.548,0.686,0.136,21.7,69.8,-70.7,1023,2018,5,1,18,34,50.151,-0.4315,-0.59,-0.3659,0.5759
0.507,0.855,0.27,23.7,-1.2,-51.9,1023,2018,5,1,18,34,50.164,-0.4352,-0.5943,-0.3536,0.5763
0.533,0.645,0.196,21.4,-82.8,-33.8,1023,2018,5,1,18,34,50.2,-0.4458,-0.591,-0.3522,0.5726
0.319,0.002,0.155,18.9,-82.1,-22.8,1023,2018,5,1,18,34,50.222,-0.4604,-0.5824,-0.3575,0.5664
0.257,0.755,0.181,12.5,2.9,-14.4,1023,2018,5,1,18,34,50.225,-0.4649,-0.5807,-0.3552,0.566
0.149,0.763,0.044,-1.7,-96,15.2,1023,2018,5,1,18,34,50.264,-0.4701,-0.5762,-0.3598,0.5634
-0.057,0.483,-0.14,-13.4,-167.9,47.5,1023,2018,5,1,18,34,50.285,-0.4805,-0.5631,-0.3773,0.5563
-0.278,0.38,-0.357,-18.7,-198.4,78.6,1023,2018,5,1,18,34,50.289,-0.4911,-0.5445,-0.4024,0.5479
-0.449,-0.16,0.049,-28.2,-184.1,94.4,1023,2018,5,1,18,34,50.325,-0.4995,-0.523,-0.4312,0.5393
-0.507,0.232,0.084,-46.8,-186.5,101.5,1023,2018,5,1,18,34,50.345,-0.5026,-0.5034,-0.46,0.5312
-0.448,0.06,-0.456,-47.8,-223.6,118,1023,2018,5,1,18,34,50.349,-0.5069,-0.4808,-0.492,0.5192
-0.517,0.041,-0.575,-31.1,-188.2,131.4,0,2018,5,1,18,34,50.388,-0.5089,-0.4549,-0.5238,0.5094
