ax,ay,az,dpitch,droll,dyaw,heart,time_1,time_2,time_3,time_4,time_5,time_6,w,x,y,z
0.03,0.132,0.059,5,-40.1,7.7,0,2018,5,11,13,21,22.021,0.8611,-0.4741,-0.1262,-0.1332
0.006,0.198,0.12,1.4,-66.6,10.5,0,2018,5,11,13,21,22.039,0.8562,-0.4821,-0.1262,-0.1354
0.051,0.647,0.023,-2.9,-159.9,16.2,0,2018,5,11,13,21,22.054,0.8469,-0.4975,-0.1246,-0.1395
0.028,0.579,-0.242,-18.8,-311.6,29.6,0,2018,5,11,13,21,22.073,0.825,-0.5318,-0.1194,-0.1488
-0.021,0.406,-0.209,-52.7,-473.2,30.8,0,2018,5,11,13,21,22.093,0.7865,-0.5855,-0.1066,-0.1644
-0.023,-0.103,-0.138,-87.6,-538.9,30.2,0,2018,5,11,13,21,22.111,0.7301,-0.6522,-0.0845,-0.185
0.058,-0.898,-0.292,-81.5,-390.4,23.5,0,2018,5,11,13,21,22.148,0.6735,-0.7075,-0.0607,-0.2048
0.101,-0.662,-0.129,-55.2,-164.8,9.5,0,2018,5,11,13,21,22.169,0.6401,-0.7353,-0.0448,-0.2177
0.069,-0.156,0.079,-30.2,-39.6,5,0,2018,5,11,13,21,22.173,0.629,-0.7432,-0.0379,-0.2244
0.06,0.13,0.112,-18.5,-28.8,10.5,0,2018,5,11,13,21,22.192,0.6256,-0.745,-0.0351,-0.2283
0.04,0.06,0.009,-17.7,-72.6,14.6,0,2018,5,11,13,21,22.212,0.6187,-0.7496,-0.0331,-0.2325
0.115,-0.19,-0.204,-11.5,-77.7,11.4,0,2018,5,11,13,21,22.234,0.607,-0.7581,-0.0297,-0.2362
0.141,-0.226,-0.235,-1,-21.8,8.3,0,2018,5,11,13,21,22.254,0.6,-0.7631,-0.0283,-0.2383
0.151,-0.148,-0.17,6.7,34.7,4.5,0,2018,5,11,13,21,22.292,0.6009,-0.7622,-0.03,-0.2385
0.131,-0.022,-0.049,9.2,53.8,2.9,0,2018,5,11,13,21,22.297,0.607,-0.7576,-0.0333,-0.2375
0.112,0.034,0.018,7,34,3.9,0,2018,5,11,13,21,22.312,0.6122,-0.7538,-0.036,-0.2358
0.101,-0.008,0.028,4.8,11.2,4.6,0,2018,5,11,13,21,22.331,0.6144,-0.7522,-0.0375,-0.2348
0.091,-0.085,-0.011,5.1,10,4,0,2018,5,11,13,21,22.353,0.6153,-0.7517,-0.0383,-0.2338
0.078,-0.12,-0.037,9.7,35.9,2.1,1023,2018,5,11,13,21,22.392,0.6177,-0.7502,-0.0398,-0.2321
0.062,-0.078,0.001,12.8,62.9,-0.6,1023,2018,5,11,13,21,22.412,0.6241,-0.7456,-0.0426,-0.2296
0.064,-0.002,0.024,12.1,67,-2.9,1023,2018,5,11,13,21,22.416,0.6325,-0.7391,-0.0461,-0.2267
0.057,0.03,0.016,9.4,49.5,-3.6,1023,2018,5,11,13,21,22.432,0.6397,-0.7334,-0.0489,-0.2241
0.05,-0.022,-0.014,8.4,37,-2.7,1023,2018,5,11,13,21,22.472,0.6445,-0.7298,-0.0507,-0.222
0.039,-0.105,-0.042,12.4,58.5,-1.7,1023,2018,5,11,13,21,22.492,0.65,-0.7255,-0.053,-0.2195
0.027,-0.049,-0.025,16.6,84.2,-2.3,1023,2018,5,11,13,21,22.495,0.6585,-0.7185,-0.0569,-0.2162
0.017,0.034,0.008,17.7,89.7,-3.5,1023,2018,5,11,13,21,22.534,0.6692,-0.7092,-0.0618,-0.2125
0.027,0.046,-0.038,17.3,77.3,-4.2,1023,2018,5,11,13,21,22.554,0.6788,-0.7006,-0.0664,-0.2091
0.013,0.005,-0.088,19.2,74.7,-4.8,1023,2018,5,11,13,21,22.558,0.6872,-0.6932,-0.0708,-0.2051
0.01,-0.049,-0.051,21.8,78.5,-7.5,0,2018,5,11,13,21,22.574,0.6954,-0.6858,-0.0752,-0.2007
0.015,-0.009,0.03,20.8,82.4,-10.3,0,2018,5,11,13,21,22.593,0.705,-0.677,-0.0796,-0.1956
0.029,0.09,0.067,14.6,62.6,-13.6,0,2018,5,11,13,21,22.614,0.7139,-0.6684,-0.0828,-0.191
0.002,0.04,0.1,6.5,44.8,-12.2,0,2018,5,11,13,21,22.651,0.7204,-0.6623,-0.0843,-0.1876
-0.014,-0.04,0.093,2.2,33.3,-15.4,0,2018,5,11,13,21,22.671,0.7256,-0.6572,-0.0845,-0.1853
0.012,-0.122,-0.008,5,33.8,-24.1,0,2018,5,11,13,21,22.674,0.7299,-0.6536,-0.0834,-0.1815
0.015,-0.125,-0.015,8.4,40.6,-25.6,0,2018,5,11,13,21,22.714,0.7341,-0.6504,-0.0822,-0.1767
0.006,0.001,0.096,3.5,58.5,-23.3,0,2018,5,11,13,21,22.734,0.7405,-0.6444,-0.0816,-0.172
0.048,-0.062,0.072,-4.1,73.9,-20.7,0,2018,5,11,13,21,22.737,0.7488,-0.6359,-0.0808,-0.1683
0.08,-0.009,0.052,-8.1,89.6,-25,0,2018,5,11,13,21,22.774,0.759,-0.6249,-0.0791,-0.1643
0.121,0.18,0.054,-10.1,69.3,-19.4,0,2018,5,11,13,21,22.795,0.7687,-0.6141,-0.0772,-0.1608
0.12,0.195,0.058,-14.8,35.6,-9.2,0,2018,5,11,13,21,22.799,0.7747,-0.607,-0.0754,-0.1596
0.149,0.002,-0.055,-12,39.2,-2.5,0,2018,5,11,13,21,22.816,0.7786,-0.6023,-0.0733,-0.1595
0.186,-0.157,-0.149,1.1,89.4,-1,0,2018,5,11,13,21,22.837,0.7853,-0.5936,-0.0741,-0.1592
0.17,-0.028,-0.11,16.6,117,-2.7,0,2018,5,11,13,21,22.857,0.7961,-0.5792,-0.0783,-0.1567
0.133,0.071,-0.024,25.2,95.9,-4.9,0,2018,5,11,13,21,22.876,0.8069,-0.5646,-0.0835,-0.152
0.083,0.038,0.008,24.7,67.6,-5.7,0,2018,5,11,13,21,22.895,0.8146,-0.5539,-0.088,-0.147
0.071,-0.022,-0.033,22.2,62.5,-5.4,0,2018,5,11,13,21,22.934,0.8205,-0.5458,-0.0918,-0.1425
0.078,-0.02,-0.057,19.6,49,-2.9,0,2018,5,11,13,21,22.955,0.8253,-0.539,-0.0952,-0.1385
0.092,0.047,-0.058,19,57.2,1,0,2018,5,11,13,21,22.959,0.8297,-0.5325,-0.0985,-0.1351
0.072,0.27,-0.01,16.2,30.1,6.5,0,2018,5,11,13,21,22.979,0.8339,-0.5256,-0.1025,-0.133
0.034,0.115,0.031,13.4,7.3,10.7,0,2018,5,11,13,21,22.998,0.8353,-0.5229,-0.1056,-0.1327
-0.045,-0.1,0.075,10.6,14,9.3,0,2018,5,11,13,21,23.017,0.8358,-0.5213,-0.1088,-0.133
-0.102,-0.086,0.154,3.6,35,5.7,0,2018,5,11,13,21,23.037,0.8381,-0.5171,-0.1114,-0.1329
-0.072,0.049,0.193,-6.9,15.7,-1,0,2018,5,11,13,21,23.074,0.8406,-0.5128,-0.1121,-0.133
-0.016,0.039,0.134,-14.3,-0.6,-8,0,2018,5,11,13,21,23.096,0.8417,-0.5115,-0.1102,-0.133
0.019,0.075,0.065,-12.9,-22,-14.1,0,2018,5,11,13,21,23.1,0.842,-0.5117,-0.107,-0.1329
0.09,0.123,0.048,-12.1,-26.7,-12.5,0,2018,5,11,13,21,23.118,0.8407,-0.5147,-0.103,-0.1323
0.037,0.122,0.007,-16.4,-95.7,-11.3,1023,2018,5,11,13,21,23.14,0.8358,-0.5236,-0.0983,-0.1326
0.128,0.036,-0.166,-11.6,-88,1,1023,2018,5,11,13,21,23.178,0.8273,-0.5373,-0.0931,-0.1346
0.118,-0.103,-0.178,-2.9,-35,11.1,1023,2018,5,11,13,21,23.197,0.8213,-0.5461,-0.0912,-0.1372
0.077,-0.087,-0.129,10.5,18.1,11.4,1023,2018,5,11,13,21,23.202,0.8206,-0.5464,-0.093,-0.1385
0.087,0.025,-0.095,18.6,26.8,9.8,1023,2018,5,11,13,21,23.22,0.8224,-0.5433,-0.0965,-0.1379
0.067,0.153,-0.021,22.5,23.3,15.2,1023,2018,5,11,13,21,23.24,0.824,-0.5402,-0.1011,-0.1369
0.013,0.116,0.067,16.5,11.8,25.5,1023,2018,5,11,13,21,23.277,0.8251,-0.5374,-0.1062,-0.1376
-0.041,-0.217,0.101,7.3,22.2,22.5,1023,2018,5,11,13,21,23.281,0.826,-0.5346,-0.1106,-0.1399
-0.062,-0.192,0.188,-0.7,56.2,13.5,1023,2018,5,11,13,21,23.3,0.8294,-0.5284,-0.1134,-0.141
-0.043,-0.132,0.213,-7.8,61.2,6.7,1023,2018,5,11,13,21,23.319,0.8351,-0.5188,-0.115,-0.1417
0.007,-0.021,0.15,-12.6,21.1,-4.4,1023,2018,5,11,13,21,23.358,0.8397,-0.5114,-0.1145,-0.1418
0.023,0.059,0.12,-16.9,-9.3,-8.9,0,2018,5,11,13,21,23.379,0.8409,-0.5101,-0.1114,-0.1419
0.017,0.038,0.099,-22,-31.9,-10,0,2018,5,11,13,21,23.383,0.8402,-0.5119,-0.1073,-0.1426
0.101,0.055,0.017,-26.2,-41.5,-8.3,0,2018,5,11,13,21,23.401,0.8378,-0.5166,-0.1012,-0.1439
0.095,0.115,-0.015,-26.6,-56.5,-4.2,0,2018,5,11,13,21,23.421,0.8344,-0.5229,-0.0949,-0.1459
0.119,0.098,-0.109,-23.2,-60.1,0.1,0,2018,5,11,13,21,23.459,0.8292,-0.5313,-0.0889,-0.1485
0.139,0.115,-0.246,-9.9,-51.6,4.5,0,2018,5,11,13,21,23.48,0.8243,-0.5388,-0.0853,-0.151
0.101,-0.009,-0.159,-3.4,-62.9,-1.6,0,2018,5,11,13,21,23.484,0.8192,-0.5464,-0.0832,-0.1526
0.076,0,-0.018,-3.8,-79.5,-4.6,0,2018,5,11,13,21,23.497,0.8124,-0.5568,-0.0801,-0.153
0.065,0.011,-0.013,-10,-106.8,-3.9,0,2018,5,11,13,21,23.519,0.8035,-0.5699,-0.0757,-0.1541
0.114,-0.174,-0.151,-6.6,-76.4,-1.3,0,2018,5,11,13,21,23.537,0.7942,-0.583,-0.0713,-0.1555
0.129,-0.194,-0.156,6.2,-25.3,-0.9,0,2018,5,11,13,21,23.577,0.7892,-0.5898,-0.0699,-0.156
0.09,-0.119,-0.049,17.2,14.9,-0.9,0,2018,5,11,13,21,23.598,0.7888,-0.5905,-0.0713,-0.1545
0.056,0.029,0.052,19.7,28.1,0.8,0,2018,5,11,13,21,23.602,0.791,-0.5879,-0.0741,-0.1517
0.037,0.053,0.04,16.6,25.6,4.6,0,2018,5,11,13,21,23.624,0.7936,-0.5844,-0.0773,-0.1498
0.008,-0.017,-0.002,15.7,40.4,8.3,0,2018,5,11,13,21,23.643,0.7966,-0.5803,-0.0809,-0.1485
-0.055,-0.082,0.068,13.3,63.5,7.2,0,2018,5,11,13,21,23.664,0.8013,-0.5734,-0.0852,-0.1475
-0.042,-0.062,0.152,8.4,71.4,-0.8,0,2018,5,11,13,21,23.684,0.8081,-0.5635,-0.0889,-0.1459
0.007,-0.095,0.117,4.2,63,-9.9,0,2018,5,11,13,21,23.719,0.8152,-0.5536,-0.0908,-0.1436
0.042,-0.066,0.063,2.8,64,-16.1,0,2018,5,11,13,21,23.738,0.8216,-0.545,-0.0911,-0.1398
0.054,0.139,0.037,-4,61.7,-10.5,0,2018,5,11,13,21,23.743,0.8282,-0.5357,-0.091,-0.1367
0.06,0.125,0.197,-18.5,37.7,-3.6,0,2018,5,11,13,21,23.761,0.8334,-0.5279,-0.0898,-0.1361
0.045,0.112,0.109,-28.1,-7,-2.8,0,2018,5,11,13,21,23.783,0.8351,-0.5255,-0.0863,-0.1375
0.107,0.208,-0.107,-22.4,-40.9,-2.8,0,2018,5,11,13,21,23.8,0.8336,-0.5281,-0.0812,-0.1396
0.087,0.042,-0.202,-13.4,-59,4.1,0,2018,5,11,13,21,23.84,0.8284,-0.5362,-0.0771,-0.142
0.05,0.189,-0.117,-4.6,-84.7,5,0,2018,5,11,13,21,23.862,0.8216,-0.5463,-0.0747,-0.1443
0.055,0.137,-0.1,-3.5,-137,4.9,0,2018,5,11,13,21,23.866,0.8104,-0.5625,-0.0719,-0.1467
0.046,0.09,-0.171,-2.3,-151.1,11.3,0,2018,5,11,13,21,23.885,0.7948,-0.5839,-0.0684,-0.1499
0.065,-0.159,-0.195,0.9,-139.1,15.5,1023,2018,5,11,13,21,23.905,0.7787,-0.6046,-0.0656,-0.1537
0.076,-0.255,-0.181,16.4,-56.7,15.4,1023,2018,5,11,13,21,23.943,0.768,-0.6175,-0.066,-0.1559
0.106,-0.156,-0.103,28.5,7.3,16.7,1023,2018,5,11,13,21,23.963,0.7653,-0.6205,-0.0702,-0.1556
0.068,0.04,0.04,32.8,42.1,23.6,1023,2018,5,11,13,21,23.968,0.7675,-0.6174,-0.0769,-0.1541
-0.051,0.2,0.202,23.4,26.3,22.7,1023,2018,5,11,13,21,23.984,0.7713,-0.6118,-0.0844,-0.1535
-0.051,0.456,0.162,4,-94.6,21.4,1023,2018,5,11,13,21,24.002,0.7672,-0.6159,-0.0878,-0.1554
-0.02,0.464,0.014,-17.3,-241.8,18,1023,2018,5,11,13,21,24.039,0.7482,-0.6379,-0.0843,-0.1613
-0.041,-0.144,-0.045,-34.1,-310.4,17,1023,2018,5,11,13,21,24.059,0.7146,-0.6741,-0.0749,-0.171
-0.018,-0.284,-0.028,-40.9,-261.6,7.8,1023,2018,5,11,13,21,24.064,0.6798,-0.7081,-0.0626,-0.1802
0.013,-0.061,-0.003,-44.9,-232.1,-0.1,1023,2018,5,11,13,21,24.085,0.6498,-0.7347,-0.05,-0.188
0.046,-0.111,-0.011,-44.4,-210.2,-3,1023,2018,5,11,13,21,24.104,0.6212,-0.758,-0.037,-0.1949
0.039,-0.147,-0.079,-38.1,-170.3,-3.2,0,2018,5,11,13,21,24.142,0.596,-0.777,-0.0251,-0.2006
0.042,-0.352,-0.13,-19.6,-82.4,-1.3,0,2018,5,11,13,21,24.162,0.5786,-0.7894,-0.0168,-0.2038
0.025,-0.353,-0.133,1.8,44.3,-2.5,0,2018,5,11,13,21,24.166,0.5763,-0.7912,-0.0144,-0.2038
0.005,-0.183,-0.1,17.6,147.9,-2.5,0,2018,5,11,13,21,24.186,0.5903,-0.7814,-0.0184,-0.201
0.004,-0.039,-0.048,25.5,198.2,-5.1,0,2018,5,11,13,21,24.207,0.6137,-0.7641,-0.0262,-0.1966
-0.004,-0.223,-0.04,31.7,218.4,-11,0,2018,5,11,13,21,24.226,0.6405,-0.743,-0.0352,-0.1906
-0.005,-0.336,-0.029,34.9,282.3,-15,0,2018,5,11,13,21,24.245,0.6721,-0.7161,-0.0449,-0.1825
0.039,0.008,-0.052,28.6,302.5,-14.6,0,2018,5,11,13,21,24.265,0.7087,-0.6813,-0.056,-0.1739
0.063,0.139,-0.081,22.2,220.2,-19.9,0,2018,5,11,13,21,24.301,0.7388,-0.6499,-0.0647,-0.166
0.069,-0.072,-0.089,25.5,172,-24.4,0,2018,5,11,13,21,24.322,0.7594,-0.6272,-0.0704,-0.1578
0.114,0.177,-0.119,23.3,151.1,-29.1,0,2018,5,11,13,21,24.327,0.777,-0.607,-0.0746,-0.1488
0.123,0.179,0.101,6.2,104.5,-22.9,0,2018,5,11,13,21,24.348,0.7905,-0.5906,-0.0769,-0.1422
0.105,1.039,0.305,-14.3,-38.4,-16.9,0,2018,5,11,13,21,24.368,0.796,-0.5841,-0.0755,-0.139
0.059,0.644,0,-37.3,-241.3,1.7,0,2018,5,11,13,21,24.407,0.7808,-0.6044,-0.0672,-0.1428
0.054,0.217,-0.294,-35.6,-297.7,6.8,0,2018,5,11,13,21,24.426,0.7509,-0.6404,-0.0557,-0.1507
0.06,-0.287,-0.348,-21.6,-269.3,6.7,0,2018,5,11,13,21,24.43,0.7179,-0.6765,-0.0451,-0.1574
0.059,-0.646,-0.249,-2.8,-120.8,3.8,0,2018,5,11,13,21,24.445,0.6939,-0.7007,-0.0387,-0.1609
0.044,-0.249,-0.142,13.6,18.1,2.1,0,2018,5,11,13,21,24.466,0.6888,-0.7058,-0.0386,-0.1607
0.077,-0.29,-0.151,29.4,117.8,7.6,0,2018,5,11,13,21,24.486,0.6967,-0.6982,-0.0436,-0.1582
0.037,-0.142,-0.12,43.3,219.8,12.5,0,2018,5,11,13,21,24.506,0.717,-0.6776,-0.0541,-0.1536
-0.042,0.103,0.064,48.6,261.7,12.7,0,2018,5,11,13,21,24.541,0.7447,-0.6472,-0.0685,-0.1472
-0.072,0.205,0.289,37.6,224.8,9.2,0,2018,5,11,13,21,24.562,0.771,-0.6155,-0.0817,-0.1408
-0.019,0.017,0.187,21.7,138.8,-9.9,0,2018,5,11,13,21,24.566,0.7896,-0.5916,-0.09,-0.135
0.066,-0.076,0.042,13.4,91.1,-14.9,0,2018,5,11,13,21,24.605,0.8012,-0.5767,-0.093,-0.1294
0.098,0.058,-0.075,12.5,86,-9.4,0,2018,5,11,13,21,24.626,0.8101,-0.565,-0.0948,-0.1244
0.054,0.103,0.049,7.8,86.7,-4.8,0,2018,5,11,13,21,24.63,0.8187,-0.5528,-0.097,-0.1205
0.032,0.203,0.169,-3.4,46.4,-2.4,0,2018,5,11,13,21,24.647,0.8255,-0.5428,-0.0983,-0.1186
0.028,0.146,0.066,-7.1,5.8,-2.4,0,2018,5,11,13,21,24.666,0.8284,-0.5385,-0.0978,-0.1184
0.013,0.032,-0.014,-5.2,-8.9,0,1023,2018,5,11,13,21,24.686,0.8286,-0.5383,-0.0966,-0.1189
0.002,0.007,-0.043,0.6,0.3,0,1023,2018,5,11,13,21,24.724,0.8282,-0.539,-0.0963,-0.119
0,0.072,0.048,2.8,8.7,1.4,1023,2018,5,11,13,21,24.743,0.8288,-0.538,-0.097,-0.1187
0.001,0.408,0.174,-2.4,-46.6,3.4,1023,2018,5,11,13,21,24.748,0.8279,-0.5392,-0.0971,-0.1192
-0.016,0.581,0.135,-18.5,-184.5,7.5,1023,2018,5,11,13,21,24.786,0.8172,-0.5551,-0.0938,-0.1229
-0.073,0.386,-0.05,-44.4,-324.2,11.4,1023,2018,5,11,13,21,24.806,0.7915,-0.5907,-0.0848,-0.1314
-0.021,-0.043,-0.091,-64.5,-369.6,5.9,1023,2018,5,11,13,21,24.81,0.7532,-0.638,-0.0698,-0.1435
-0.009,-0.095,-0.001,-79.6,-337,5.6,1023,2018,5,11,13,21,24.849,0.7126,-0.6818,-0.0519,-0.1562
0,-0.163,0.064,-86.1,-260.6,4.9,1023,2018,5,11,13,21,24.87,0.677,-0.7154,-0.0337,-0.1692
0.021,-0.123,0.057,-84,-183.7,5.1,1023,2018,5,11,13,21,24.874,0.6502,-0.7375,-0.0175,-0.1813
0.024,-0.116,0.044,-74.1,-117.6,8.3,1023,2018,5,11,13,21,24.893,0.6316,-0.751,-0.0044,-0.1922
0.017,-0.054,0.016,-63.5,-76.8,10.5,0,2018,5,11,13,21,24.913,0.6193,-0.7586,0.0051,-0.2021
0.013,-0.005,-0.023,-54.6,-61.2,12.8,0,2018,5,11,13,21,24.931,0.6099,-0.7637,0.0124,-0.2108
0.025,-0.056,-0.121,-45.9,-56.1,13.1,0,2018,5,11,13,21,24.95,0.6008,-0.7687,0.0182,-0.2184
0.06,-0.106,-0.201,-34.5,-38.4,8.3,0,2018,5,11,13,21,24.968,0.5937,-0.7722,0.0228,-0.2247
0.095,-0.114,-0.251,-22.3,-13.2,3.4,0,2018,5,11,13,21,24.992,0.5898,-0.7739,0.026,-0.229
0.107,-0.075,-0.229,-10.3,8.9,-0.2,0,2018,5,11,13,21,25.012,0.5896,-0.7733,0.0274,-0.2312
0.116,-0.018,-0.169,-3,12.9,-2.5,0,2018,5,11,13,21,25.031,0.5912,-0.7718,0.0278,-0.232
0.113,0,-0.139,2,6.1,-3.8,0,2018,5,11,13,21,25.051,0.5927,-0.7708,0.0278,-0.2318
0.1,-0.03,-0.12,6.4,3.6,-4.6,0,2018,5,11,13,21,25.09,0.5932,-0.7706,0.0279,-0.2308
0.093,-0.041,-0.127,11,12.8,-4.6,0,2018,5,11,13,21,25.109,0.5944,-0.7702,0.0273,-0.2292
0.076,-0.059,-0.125,17.1,33.3,-4.1,0,2018,5,11,13,21,25.113,0.5977,-0.7684,0.0255,-0.227
0.059,-0.022,-0.089,22.6,49.3,-3.6,0,2018,5,11,13,21,25.132,0.6033,-0.765,0.0224,-0.2239
0.051,0.008,-0.062,26.4,54.5,-3.1,0,2018,5,11,13,21,25.153,0.61,-0.7609,0.0185,-0.2198
0.038,0.003,-0.059,30,55.1,-1.9,0,2018,5,11,13,21,25.172,0.6168,-0.7568,0.014,-0.2155
0.029,-0.032,-0.038,35.3,73.3,0.6,0,2018,5,11,13,21,25.191,0.6246,-0.7518,0.0085,-0.211
0.029,-0.06,-0.049,42.5,103.6,1,0,2018,5,11,13,21,25.231,0.6358,-0.7438,0.0011,-0.2057
0.026,-0.001,-0.021,48.9,123.8,1,0,2018,5,11,13,21,25.251,0.6504,-0.7328,-0.008,-0.1995
0.014,-0.009,0.002,52,130.1,0.8,0,2018,5,11,13,21,25.255,0.6661,-0.7202,-0.0182,-0.1928
-0.01,-0.171,-0.022,55.8,157.9,1.1,0,2018,5,11,13,21,25.273,0.6831,-0.7057,-0.0291,-0.1855
-0.022,-0.237,-0.001,60.6,218.9,-1.5,0,2018,5,11,13,21,25.308,0.7054,-0.685,-0.0418,-0.1769
-0.005,0.02,0.058,58.2,238.6,-6.7,0,2018,5,11,13,21,25.328,0.7326,-0.6572,-0.0559,-0.1673
-0.007,0.118,0.145,45.5,187.7,-13.8,0,2018,5,11,13,21,25.332,0.7565,-0.631,-0.0676,-0.1579
-0.006,0,0.088,30.5,146.8,-19.7,0,2018,5,11,13,21,25.352,0.7743,-0.6102,-0.0751,-0.1497
0.012,0.086,0.015,19.8,122,-22.5,0,2018,5,11,13,21,25.372,0.7889,-0.5924,-0.0797,-0.1425
0.037,0.263,-0.054,11.5,73.3,-20.8,0,2018,5,11,13,21,25.411,0.7994,-0.5791,-0.0823,-0.1367
0.036,0.219,0.067,4.4,31.8,-16.3,0,2018,5,11,13,21,25.43,0.8052,-0.5718,-0.0831,-0.1329
0.037,0.362,0.145,-5.6,-18.7,-15.8,0,2018,5,11,13,21,25.434,0.8064,-0.5709,-0.0815,-0.1304
0.055,0.321,0.043,-13.1,-91.6,-11,1023,2018,5,11,13,21,25.453,0.8013,-0.5786,-0.0775,-0.1302
0.077,-0.094,-0.153,-6.2,-93.3,-4.2,1023,2018,5,11,13,21,25.474,0.7912,-0.5926,-0.0728,-0.1314
0.066,-0.204,-0.127,12.2,-10.5,1.7,1023,2018,5,11,13,21,25.493,0.786,-0.5997,-0.072,-0.1316
0.013,0,0.024,24.2,55,6,1023,2018,5,11,13,21,25.516,0.7886,-0.5962,-0.0756,-0.1295
0.006,0.078,0.085,26.2,63.6,6,1023,2018,5,11,13,21,25.535,0.7952,-0.5873,-0.0811,-0.1267
-0.008,-0.107,0.052,22.9,63.7,6.9,1023,2018,5,11,13,21,25.556,0.8012,-0.5788,-0.0865,-0.1243
-0.034,-0.125,0.072,18.6,86.7,7.9,1023,2018,5,11,13,21,25.575,0.8083,-0.5685,-0.0917,-0.1219
-0.065,0.162,0.297,0.4,56.2,6.7,1023,2018,5,11,13,21,25.595,0.8158,-0.5573,-0.0957,-0.1207
-0.045,0.085,0.241,-17,14.8,6.1,1023,2018,5,11,13,21,25.635,0.8192,-0.5521,-0.0956,-0.122
-0.031,0.042,0.068,-22.4,-21.5,-3,1023,2018,5,11,13,21,25.653,0.8196,-0.5513,-0.0929,-0.1244
-0.001,-0.033,-0.046,-20.7,-74.5,-15.3,1023,2018,5,11,13,21,25.657,0.8152,-0.5583,-0.0879,-0.1258
0.022,0.143,0.004,-16,-85.1,-15.5,1023,2018,5,11,13,21,25.674,0.8079,-0.5697,-0.0819,-0.1263
0.063,0.27,-0.005,-21.1,-132.5,-12.9,0,2018,5,11,13,21,25.709,0.7981,-0.5838,-0.0758,-0.1279
0.088,0.219,-0.065,-25.3,-185.9,-12,0,2018,5,11,13,21,25.731,0.7822,-0.6052,-0.0676,-0.1306
0.143,-0.161,-0.171,-25.2,-185.6,-9.3,0,2018,5,11,13,21,25.735,0.7616,-0.6312,-0.0583,-0.1339
0.161,-0.187,-0.119,-16.7,-92.9,-5.1,0,2018,5,11,13,21,25.757,0.7465,-0.6491,-0.0514,-0.1366
0.17,0.018,-0.073,-7.7,-22.2,1.3,0,2018,5,11,13,21,25.777,0.7409,-0.6553,-0.0484,-0.1382
0.163,0.015,-0.114,2.6,7,8,0,2018,5,11,13,21,25.797,0.7401,-0.656,-0.0485,-0.1392
0.106,-0.003,-0.103,12.9,35.3,15.5,0,2018,5,11,13,21,25.817,0.7423,-0.6532,-0.0515,-0.1396
0.074,-0.142,-0.103,22.1,81.4,23.2,0,2018,5,11,13,21,25.853,0.7481,-0.6461,-0.0574,-0.1396
0.01,-0.188,-0.094,31.7,150.2,24.7,0,2018,5,11,13,21,25.872,0.7599,-0.6317,-0.0663,-0.1381
-0.045,0.066,0.057,32.1,168.9,19.1,0,2018,5,11,13,21,25.876,0.7768,-0.61,-0.0772,-0.1353
-0.053,0.024,0.164,20.5,109,9.8,0,2018,5,11,13,21,25.896,0.7905,-0.5916,-0.0855,-0.1326
-0.049,0.083,0.224,6.1,35.6,0.9,0,2018,5,11,13,21,25.914,0.7977,-0.5817,-0.0894,-0.1307
0.002,-0.126,0.111,-1.2,-9,-3.9,0,2018,5,11,13,21,25.954,0.7987,-0.5805,-0.0895,-0.1301
0.03,-0.148,0.065,1.4,30.5,-5.7,0,2018,5,11,13,21,25.974,0.8001,-0.5789,-0.0888,-0.1288
0.054,0.028,0.046,3.6,47.4,-6.3,0,2018,5,11,13,21,25.979,0.8048,-0.5729,-0.0891,-0.1266
0.068,0.134,0.045,3.3,36.6,-3.7,0,2018,5,11,13,21,25.997,0.8097,-0.5662,-0.0896,-0.1245
0.063,0.205,0.06,-0.1,5.3,0.8,0,2018,5,11,13,21,26.033,0.8128,-0.562,-0.09,-0.1238
0.054,0.139,0.042,-5,-28.4,4.8,0,2018,5,11,13,21,26.054,0.8121,-0.5628,-0.0894,-0.1248
0.065,0.082,-0.029,-5.9,-50.6,6.7,0,2018,5,11,13,21,26.058,0.8085,-0.5678,-0.0882,-0.1267
0.06,0.039,-0.058,-2.8,-56.2,8.3,0,2018,5,11,13,21,26.076,0.8029,-0.5755,-0.0867,-0.1287
0.041,0.124,0.018,-0.7,-70.6,8.4,0,2018,5,11,13,21,26.096,0.7968,-0.5836,-0.0859,-0.1306
-0.01,0.395,0.134,-12,-160.1,10.1,0,2018,5,11,13,21,26.117,0.7852,-0.5987,-0.0834,-0.134
-0.023,0.322,0.029,-28.8,-256.5,17.5,0,2018,5,11,13,21,26.138,0.7623,-0.6268,-0.0769,-0.1411
0.018,0.086,-0.111,-37.6,-284,24.2,0,2018,5,11,13,21,26.176,0.7309,-0.6618,-0.0683,-0.1514
0.038,-0.047,-0.189,-35.6,-261.6,27.2,0,2018,5,11,13,21,26.198,0.698,-0.6948,-0.0592,-0.1621
-0.004,-0.067,-0.143,-28.1,-218.4,27.8,1023,2018,5,11,13,21,26.202,0.6678,-0.7223,-0.0519,-0.1716
0,-0.139,0.016,-25.2,-170.4,24.9,1023,2018,5,11,13,21,26.22,0.642,-0.7439,-0.0462,-0.1792
-0.006,-0.165,0.045,-26.3,-116.5,21,1023,2018,5,11,13,21,26.24,0.6232,-0.7583,-0.0416,-0.1861
0.037,-0.21,-0.14,-19.5,-69.2,17.4,1023,2018,5,11,13,21,26.259,0.6106,-0.7674,-0.0383,-0.1915
0.061,-0.203,-0.22,-2.4,-17.1,12.7,1023,2018,5,11,13,21,26.279,0.6049,-0.7711,-0.0378,-0.1948
0.073,-0.13,-0.137,12.5,13.9,8.6,1023,2018,5,11,13,21,26.317,0.6046,-0.7711,-0.0399,-0.1951
0.075,-0.079,-0.022,15.9,20,3.8,1023,2018,5,11,13,21,26.338,0.6063,-0.7701,-0.0426,-0.193
0.079,-0.073,0.028,12.5,20.1,0,1023,2018,5,11,13,21,26.343,0.6087,-0.7688,-0.0444,-0.1905
0.086,-0.135,-0.004,11.9,40.1,-0.9,1023,2018,5,11,13,21,26.356,0.6128,-0.7661,-0.0458,-0.1879
0.093,-0.103,-0.064,18.5,68.3,-0.6,1023,2018,5,11,13,21,26.396,0.62,-0.7609,-0.0484,-0.1844
0.082,-0.062,-0.047,29.1,77.9,0.7,1023,2018,5,11,13,21,26.415,0.6291,-0.7543,-0.0527,-0.1798
0.05,-0.062,0.045,36.8,81.8,2.7,1023,2018,5,11,13,21,26.419,0.6391,-0.7467,-0.0586,-0.1743
0.01,-0.059,0.127,38.1,85.6,3.6,1023,2018,5,11,13,21,26.44,0.6499,-0.738,-0.0655,-0.1687
-0.021,-0.06,0.151,35.7,84.1,5.8,1023,2018,5,11,13,21,26.46,0.6612,-0.7284,-0.0727,-0.1636
-0.015,-0.09,0.179,33,81.5,7.6,0,2018,5,11,13,21,26.482,0.6713,-0.7194,-0.0797,-0.1591
0.018,-0.11,0.203,33.1,85,9.4,0,2018,5,11,13,21,26.501,0.6807,-0.7106,-0.087,-0.1548
-0.027,-0.095,0.247,29.5,91.1,10.3,0,2018,5,11,13,21,26.539,0.6909,-0.7006,-0.0944,-0.1507
-0.059,-0.072,0.216,20.6,84,11,0,2018,5,11,13,21,26.558,0.7009,-0.6904,-0.101,-0.1474
-0.056,-0.175,0.102,14.3,86.8,11.6,0,2018,5,11,13,21,26.562,0.7108,-0.6798,-0.1066,-0.1454
-0.038,-0.271,0.037,15,102.9,7.1,0,2018,5,11,13,21,26.6,0.7214,-0.6682,-0.1116,-0.143
-0.041,-0.27,0.065,18.1,126.8,0.2,0,2018,5,11,13,21,26.604,0.7344,-0.6539,-0.1167,-0.1389
-0.056,-0.229,0.13,17.3,145.8,-7.9,0,2018,5,11,13,21,26.621,0.7497,-0.6365,-0.1215,-0.1333
-0.071,-0.15,0.17,9.4,142.8,-15.7,0,2018,5,11,13,21,26.641,0.7662,-0.6172,-0.1251,-0.1271
-0.056,-0.108,0.148,-2.1,122.2,-21.4,0,2018,5,11,13,21,26.66,0.7812,-0.599,-0.1264,-0.1214
-0.038,-0.11,0.106,-11.4,94.8,-24.8,0,2018,5,11,13,21,26.699,0.7934,-0.584,-0.1251,-0.1167
-0.044,-0.212,0.056,-16.8,84.7,-28.6,0,2018,5,11,13,21,26.721,0.8031,-0.5722,-0.1219,-0.1125
-0.028,-0.233,0.03,-19.3,93.9,-34.2,0,2018,5,11,13,21,26.724,0.8126,-0.5605,-0.1177,-0.1078
-0.011,-0.2,0.007,-20.6,109.5,-40.5,0,2018,5,11,13,21,26.742,0.8233,-0.5467,-0.1128,-0.102
-0.001,-0.142,-0.017,-20.6,114.7,-43.7,0,2018,5,11,13,21,26.762,0.8347,-0.5316,-0.1075,-0.0953
0.002,-0.107,-0.034,-19.9,111.1,-44.2,0,2018,5,11,13,21,26.782,0.8456,-0.5162,-0.1021,-0.0884
-0.002,-0.096,-0.044,-20.5,104.1,-44.5,0,2018,5,11,13,21,26.803,0.8557,-0.5017,-0.0967,-0.0816
-0.003,-0.089,-0.04,-22.2,98.4,-45.7,0,2018,5,11,13,21,26.82,0.8648,-0.4879,-0.0909,-0.075
0.009,-0.072,-0.064,-23.7,92.8,-47.4,0,2018,5,11,13,21,26.84,0.8734,-0.4745,-0.0846,-0.0682
0.041,-0.044,-0.099,-22.3,87.7,-48.3,0,2018,5,11,13,21,26.86,0.8811,-0.4622,-0.0779,-0.0612
0.037,-0.033,-0.126,-19,83.4,-48.6,0,2018,5,11,13,21,26.897,0.8882,-0.4504,-0.0715,-0.0539
0.039,-0.02,-0.135,-15.4,82.3,-48.5,0,2018,5,11,13,21,26.917,0.8948,-0.439,-0.0656,-0.0463
0.048,-0.009,-0.135,-11.8,83.1,-47.9,0,2018,5,11,13,21,26.922,0.9011,-0.4275,-0.0602,-0.0385
0.069,0.011,-0.125,-7.2,86,-46.9,0,2018,5,11,13,21,26.959,0.9073,-0.4156,-0.0552,-0.0305
0.07,0.042,-0.136,-3.7,84.7,-43.4,0,2018,5,11,13,21,26.979,0.9134,-0.403,-0.051,-0.0225
0.052,0.049,-0.142,-0.7,79.3,-40.1,1023,2018,5,11,13,21,26.982,0.9189,-0.3911,-0.0476,-0.015
0.046,0.036,-0.145,1.4,78.2,-36.1,1023,2018,5,11,13,21,27.02,0.9239,-0.3797,-0.0449,-0.008
0.063,0.026,-0.141,4.6,82.7,-33.5,1023,2018,5,11,13,21,27.039,0.9288,-0.3679,-0.0427,-0.0013
0.087,0.059,-0.156,8.1,87.5,-32.1,1023,2018,5,11,13,21,27.062,0.9341,-0.3544,-0.0415,0.0052
0.07,0.106,-0.16,9.1,82.8,-31.1,1023,2018,5,11,13,21,27.078,0.9391,-0.341,-0.0401,0.012
0.055,0.124,-0.184,6.8,73.1,-29.8,1023,2018,5,11,13,21,27.083,0.9435,-0.3284,-0.039,0.0184
0.077,0.121,-0.198,6.2,68.4,-27.5,1023,2018,5,11,13,21,27.122,0.9472,-0.3173,-0.0376,0.0243
0.121,0.12,-0.205,6.7,72.9,-26.3,1023,2018,5,11,13,21,27.143,0.9508,-0.3059,-0.0364,0.0297
0.12,0.156,-0.213,6.8,74.9,-24.4,1023,2018,5,11,13,21,27.147,0.9545,-0.2937,-0.0358,0.0348
0.113,0.226,-0.208,4.6,61.8,-21.1,1023,2018,5,11,13,21,27.166,0.9579,-0.282,-0.0352,0.0394
0.123,0.253,-0.218,1.9,31.8,-16.6,0,2018,5,11,13,21,27.203,0.96,-0.2744,-0.0345,0.043
0.133,0.193,-0.219,1.1,12.6,-12,0,2018,5,11,13,21,27.224,0.9609,-0.2709,-0.0339,0.0457
0.138,0.144,-0.248,2.1,8.7,-8.9,0,2018,5,11,13,21,27.228,0.9613,-0.269,-0.0338,0.0478
0.123,0.112,-0.262,5.1,15,-6.6,0,2018,5,11,13,21,27.247,0.9618,-0.2668,-0.034,0.0494
0.104,0.1,-0.258,7.6,22,-4.7,0,2018,5,11,13,21,27.286,0.9626,-0.2636,-0.0346,0.0508
0.083,0.169,-0.242,7.5,20,-5.2,0,2018,5,11,13,21,27.305,0.9636,-0.2597,-0.035,0.0523
0.092,0.219,-0.22,7.3,4.5,-5.9,0,2018,5,11,13,21,27.309,0.9641,-0.2575,-0.0356,0.0538
0.117,0.218,-0.199,9.2,-15,-6.6,0,2018,5,11,13,21,27.325,0.9637,-0.2584,-0.0367,0.0552
0.118,0.182,-0.214,11.2,-29.9,-5.8,0,2018,5,11,13,21,27.346,0.9625,-0.2621,-0.0385,0.0567
0.101,0.145,-0.23,12.7,-39.2,-2.5,0,2018,5,11,13,21,27.367,0.9608,-0.268,-0.0402,0.0578
0.075,0.115,-0.2,13.9,-41.8,1.2,0,2018,5,11,13,21,27.405,0.9587,-0.2751,-0.0419,0.0585
0.074,0.111,-0.122,15.4,-45.6,5.4,0,2018,5,11,13,21,27.409,0.9565,-0.2821,-0.0442,0.0587
0.036,0.125,-0.083,13.3,-54.8,9.6,0,2018,5,11,13,21,27.426,0.9541,-0.2899,-0.047,0.058
0.007,0.164,-0.083,9.5,-72.4,15.1,0,2018,5,11,13,21,27.464,0.9511,-0.2995,-0.05,0.056
0.026,0.175,-0.147,8,-93.7,21.2,0,2018,5,11,13,21,27.483,0.947,-0.3123,-0.053,0.0527
0.043,0.09,-0.144,16.8,-107.2,23.9,0,2018,5,11,13,21,27.487,0.9414,-0.3286,-0.0569,0.0488
-0.026,-0.018,-0.105,24.9,-100.8,19.9,0,2018,5,11,13,21,27.508,0.9349,-0.3462,-0.0626,0.0453
-0.072,-0.007,-0.072,33.6,-92.7,13.2,0,2018,5,11,13,21,27.524,0.9285,-0.362,-0.0698,0.0432
-0.108,0.033,-0.03,38.3,-89.9,7.1,0,2018,5,11,13,21,27.566,0.9221,-0.3763,-0.078,0.0425
-0.068,0.069,-0.01,41.9,-96,3.5,0,2018,5,11,13,21,27.586,0.9155,-0.3905,-0.0864,0.0428
-0.035,0.023,0.039,47.8,-98.7,2.6,0,2018,5,11,13,21,27.59,0.9083,-0.4049,-0.0951,0.0438
-0.037,-0.015,0.074,53.3,-88.1,2.1,0,2018,5,11,13,21,27.607,0.9008,-0.4188,-0.1043,0.0454
-0.044,0.008,0.076,57.2,-73.4,1,0,2018,5,11,13,21,27.645,0.8941,-0.4302,-0.1141,0.0477
-0.033,0.044,0.078,59,-63.1,0.9,0,2018,5,11,13,21,27.664,0.8881,-0.4396,-0.1241,0.0505
-0.014,0.057,0.082,59,-62.8,2.7,0,2018,5,11,13,21,27.668,0.8825,-0.4474,-0.1341,0.0534
-0.018,0.029,0.101,57.4,-66.1,6.5,0,2018,5,11,13,21,27.69,0.8766,-0.4555,-0.1441,0.0558
-0.057,0.03,0.118,52.4,-70.4,12.1,0,2018,5,11,13,21,27.71,0.8704,-0.4639,-0.1541,0.0569
0,0.023,0.121,49.6,-79.3,19.6,0,2018,5,11,13,21,27.749,0.8636,-0.4733,-0.1639,0.0564
-0.006,-0.092,0.163,48.8,-78.5,27.4,1023,2018,5,11,13,21,27.753,0.8561,-0.4836,-0.1737,0.0547
-0.073,-0.219,0.159,47.9,-51.2,28.6,1023,2018,5,11,13,21,27.768,0.8495,-0.4915,-0.1838,0.0526
-0.099,-0.201,0.156,46.3,-23.1,25.4,1023,2018,5,11,13,21,27.788,0.8453,-0.4951,-0.1936,0.0514
-0.074,-0.112,0.177,44.3,-10.5,19.5,1023,2018,5,11,13,21,27.808,0.8431,-0.4953,-0.2025,0.0514
-0.034,-0.049,0.233,41.6,-18.9,14.4,1023,2018,5,11,13,21,27.843,0.8411,-0.4954,-0.2103,0.0521
-0.051,-0.215,0.21,37.6,-19.2,8.7,1023,2018,5,11,13,21,27.864,0.838,-0.4976,-0.2171,0.0529
-0.046,-0.34,0.251,32.6,19.7,1,1023,2018,5,11,13,21,27.868,0.8369,-0.4969,-0.2221,0.0556
-0.055,-0.19,0.251,26.7,55.5,-7.6,1023,2018,5,11,13,21,27.909,0.8397,-0.4903,-0.2253,0.0607
-0.022,0.039,0.216,14.1,34,-14.2,1023,2018,5,11,13,21,27.928,0.843,-0.4832,-0.2267,0.066
0.06,-0.014,0.124,7.2,20,-15.7,1023,2018,5,11,13,21,27.933,0.8447,-0.4795,-0.2267,0.07
0.095,-0.01,0.071,2.6,12.5,-13,1023,2018,5,11,13,21,27.951,0.8458,-0.4774,-0.2261,0.0731
0.099,-0.042,-0.029,1.4,13.9,-9.6,1023,2018,5,11,13,21,27.97,0.8467,-0.4763,-0.2244,0.0759
0.126,-0.096,-0.112,4.5,22.7,-9.9,1023,2018,5,11,13,21,28.006,0.8478,-0.4743,-0.2236,0.0785
0.102,-0.014,-0.109,5.1,44.2,-7.5,0,2018,5,11,13,21,28.027,0.8503,-0.4695,-0.2232,0.0815
0.066,0.063,-0.092,6.4,62.7,-1.3,0,2018,5,11,13,21,28.032,0.8541,-0.4621,-0.2226,0.0851
0.022,0.074,-0.123,10.9,61,3.3,0,2018,5,11,13,21,28.048,0.8585,-0.4531,-0.2231,0.0881
-0.032,0.073,-0.106,17.2,45.7,4.6,0,2018,5,11,13,21,28.07,0.8617,-0.4453,-0.2253,0.0905
-0.096,0.069,-0.062,21.1,28.7,3.6,0,2018,5,11,13,21,28.105,0.8635,-0.4395,-0.2289,0.0924
-0.129,0.037,-0.09,23.6,21.8,3.2,0,2018,5,11,13,21,28.124,0.8645,-0.4354,-0.2323,0.0945
-0.145,-0.05,-0.139,27.8,36.8,2.9,0,2018,5,11,13,21,28.129,0.8656,-0.4307,-0.2359,0.0971
-0.17,-0.055,-0.111,34.4,64,2.7,0,2018,5,11,13,21,28.163,0.8682,-0.4223,-0.24,0.1011
-0.192,-0.002,-0.022,38.4,83.2,0,0,2018,5,11,13,21,28.183,0.8721,-0.41,-0.2443,0.1068
-0.22,0.104,-0.025,38.4,77.6,-3.6,0,2018,5,11,13,21,28.193,0.8762,-0.397,-0.2485,0.1133
-0.24,0.034,0.149,23.6,77.7,-3.2,0,2018,5,11,13,21,28.212,0.8799,-0.3849,-0.2514,0.1192
-0.202,0.078,0.386,1.7,37.1,-8.5,0,2018,5,11,13,21,28.231,0.8829,-0.3764,-0.2517,0.1239
-0.121,-0.028,0.324,-9.2,46.9,-5,0,2018,5,11,13,21,28.252,0.8856,-0.3705,-0.2497,0.1262
-0.091,0.024,0.268,-15.4,21.5,-9.7,0,2018,5,11,13,21,28.271,0.8883,-0.3654,-0.2465,0.1281
-0.058,-0.045,0.189,-17.1,3.9,-16,0,2018,5,11,13,21,28.293,0.8895,-0.3647,-0.2426,0.1295
0.012,0.076,0.16,-15.2,14.1,-16.6,0,2018,5,11,13,21,28.33,0.8907,-0.3638,-0.2386,0.1316
0.036,0.068,0.141,-19,19.5,-12.3,0,2018,5,11,13,21,28.352,0.8922,-0.3619,-0.2345,0.1336
0.033,-0.01,0.142,-20.2,7.7,-14.1,0,2018,5,11,13,21,28.356,0.8938,-0.3602,-0.2301,0.1349
0.058,-0.111,0.066,-21.2,-2.4,-20.5,0,2018,5,11,13,21,28.375,0.8944,-0.3615,-0.2249,0.1367
0.12,-0.03,-0.008,-16.6,2.9,-21.9,0,2018,5,11,13,21,28.393,0.8944,-0.3635,-0.2197,0.1394
0.15,0.019,-0.064,-9.9,13.9,-17.4,0,2018,5,11,13,21,28.432,0.895,-0.3634,-0.2159,0.1421
0.138,-0.042,-0.098,-0.5,24.5,-15.1,0,2018,5,11,13,21,28.452,0.896,-0.361,-0.2135,0.145
0.09,-0.003,-0.055,4.8,30.3,-13.2,0,2018,5,11,13,21,28.455,0.8973,-0.3573,-0.2121,0.1486
0.047,0.074,0.03,3.1,25.3,-11.3,0,2018,5,11,13,21,28.472,0.8985,-0.3534,-0.2108,0.1521
0.052,0.086,0.018,1.6,15.4,-8.9,0,2018,5,11,13,21,28.511,0.8999,-0.3497,-0.2093,0.1546
0.082,0.005,-0.005,-1,8.5,-8.8,0,2018,5,11,13,21,28.529,0.9003,-0.3487,-0.2079,0.1567
0.058,0.085,-0.004,-2.8,2.6,-4.3,0,2018,5,11,13,21,28.532,0.9007,-0.3478,-0.2063,0.1581
0.09,0.003,-0.088,-0.9,13,1.6,1023,2018,5,11,13,21,28.57,0.901,-0.3475,-0.2052,0.1587
0.105,0.069,-0.045,5.4,26.1,5.9,1023,2018,5,11,13,21,28.59,0.9022,-0.3445,-0.2045,0.1593
0.123,0.091,0.001,11.6,27.5,7.4,1023,2018,5,11,13,21,28.593,0.9037,-0.3399,-0.2052,0.1599
0.126,0.191,0.03,18.6,23.3,11.4,1023,2018,5,11,13,21,28.63,0.905,-0.3349,-0.2074,0.1603
0.099,0.211,0.129,19.8,7.4,18.2,1023,2018,5,11,13,21,28.651,0.9056,-0.3312,-0.211,0.1597
0.144,0.161,0.201,14.1,-15.7,25.2,1023,2018,5,11,13,21,28.654,0.9053,-0.3307,-0.2151,0.157
0.191,0.129,0.21,9.1,-39.6,31.7,1023,2018,5,11,13,21,28.692,0.904,-0.3337,-0.2193,0.152
0.209,0.084,0.203,6.2,-62.2,39,1023,2018,5,11,13,21,28.713,0.9016,-0.3402,-0.2239,0.1449
0.139,-0.066,0.187,-0.9,-66.8,48.8,1023,2018,5,11,13,21,28.716,0.8983,-0.3495,-0.2287,0.1354
0.092,-0.038,0.1,-0.2,-41.1,52.7,1023,2018,5,11,13,21,28.756,0.8965,-0.3553,-0.2329,0.1252
0.044,0.063,0.039,-3.5,-60.2,54.8,1023,2018,5,11,13,21,28.759,0.8949,-0.3605,-0.2361,0.115
-0.004,0.17,-0.03,-2.8,-100.4,54.5,1023,2018,5,11,13,21,28.775,0.8915,-0.3698,-0.2405,0.1027
-0.111,0.037,-0.076,-5.6,-155.8,44.6,0,2018,5,11,13,21,28.814,0.8837,-0.3883,-0.2455,0.089
-0.185,-0.349,-0.158,-6.3,-130.7,30.2,0,2018,5,11,13,21,28.833,0.8739,-0.4101,-0.2492,0.0762
-0.203,-0.524,-0.198,-0.6,-37.6,5.4,0,2018,5,11,13,21,28.837,0.8682,-0.4221,-0.251,0.0696
-0.18,-0.209,-0.169,4.7,31.1,-19.8,0,2018,5,11,13,21,28.859,0.8683,-0.4217,-0.2508,0.0712
-0.185,-0.102,-0.135,4.2,47.5,-41.4,0,2018,5,11,13,21,28.879,0.8709,-0.4164,-0.2487,0.078
-0.168,-0.1,-0.153,5.2,47.9,-64,0,2018,5,11,13,21,28.898,0.8734,-0.4113,-0.2449,0.0887
-0.129,-0.019,-0.093,9,53.9,-78.6,0,2018,5,11,13,21,28.917,0.8755,-0.4064,-0.24,0.1024
-0.088,0.105,-0.031,12.3,56.3,-86.6,0,2018,5,11,13,21,28.956,0.8773,-0.4011,-0.2351,0.118
-0.033,0.23,-0.012,18.2,44.8,-87.4,0,2018,5,11,13,21,28.978,0.8785,-0.3963,-0.2302,0.1346
0.025,0.304,-0.005,28,21.5,-81.4,0,2018,5,11,13,21,28.982,0.8777,-0.3941,-0.227,0.1505
0,0.085,0.02,36,19.4,-72.5,0,2018,5,11,13,21,28.998,0.8755,-0.3936,-0.2263,0.1651
0.03,0.263,0.148,38.3,60,-56.1,0,2018,5,11,13,21,29.017,0.8751,-0.3884,-0.2261,0.1792
0.056,0.316,0.256,34,72.3,-38.6,0,2018,5,11,13,21,29.037,0.8767,-0.3786,-0.2265,0.1915
-0.008,0.494,0.45,17,55.4,-18.3,0,2018,5,11,13,21,29.075,0.879,-0.3685,-0.2264,0.2004
0.005,0.496,0.497,-17.1,2.3,9.9,0,2018,5,11,13,21,29.095,0.8807,-0.3643,-0.2251,0.2021
-0.047,0.294,0.275,-47.1,-56.5,31.5,0,2018,5,11,13,21,29.099,0.8808,-0.3694,-0.2224,0.1952
0.006,0.021,-0.004,-55,-25.8,47.4,0,2018,5,11,13,21,29.138,0.8814,-0.3763,-0.2182,0.1837
0.094,-0.189,-0.217,-40.9,40.6,57.2,0,2018,5,11,13,21,29.158,0.8852,-0.3752,-0.2139,0.1725
0.171,0.14,-0.169,-13.5,93.8,63.3,0,2018,5,11,13,21,29.162,0.8927,-0.3621,-0.2116,0.1645
0.043,0.154,-0.067,-1,56.8,68.6,0,2018,5,11,13,21,29.2,0.8997,-0.3473,-0.2126,0.1565
0.031,-0.068,-0.096,6.7,22.5,58.9,0,2018,5,11,13,21,29.204,0.9033,-0.3395,-0.2159,0.1481
0.062,-0.153,-0.145,10.4,2.1,43.7,0,2018,5,11,13,21,29.22,0.9049,-0.3358,-0.22,0.141
0.096,-0.188,-0.185,15.6,-0.9,28.6,0,2018,5,11,13,21,29.238,0.9052,-0.3343,-0.2241,0.136
0.102,-0.306,-0.186,21.1,13.5,10.7,0,2018,5,11,13,21,29.277,0.9052,-0.3323,-0.228,0.1342
0.077,-0.409,-0.177,25.7,54.3,-6.3,0,2018,5,11,13,21,29.297,0.9061,-0.3266,-0.2312,0.1367
0.061,-0.021,-0.045,28.6,70.5,-17.6,0,2018,5,11,13,21,29.3,0.9086,-0.3155,-0.233,0.1432
0.043,-0.107,-0.068,30.6,39.4,-29.9,0,2018,5,11,13,21,29.338,0.9094,-0.3082,-0.2347,0.151
0.01,-0.077,-0.063,34.5,30.8,-35.4,0,2018,5,11,13,21,29.358,0.9084,-0.3047,-0.2372,0.1597
0.01,0.102,0.011,34.1,47.3,-27.8,0,2018,5,11,13,21,29.361,0.9079,-0.2992,-0.2401,0.1683
0.002,0.326,0.142,29.5,36.5,-20.5,0,2018,5,11,13,21,29.379,0.9083,-0.2916,-0.2426,0.1758
-0.054,0.28,0.242,19.7,24.1,-9.2,1023,2018,5,11,13,21,29.402,0.9082,-0.287,-0.2449,0.1806
-0.096,0.435,0.34,6.4,-13.7,2.2,1023,2018,5,11,13,21,29.418,0.908,-0.2854,-0.2466,0.182
-0.069,0.234,0.233,-7.1,-45.2,10.1,1023,2018,5,11,13,21,29.438,0.9065,-0.2906,-0.2478,0.1795
-0.045,0.028,0.12,-9.1,-29.2,13.1,1023,2018,5,11,13,21,29.458,0.9055,-0.2961,-0.2481,0.1753
-0.02,-0.021,0.084,-5.4,-12.2,7.5,1023,2018,5,11,13,21,29.496,0.9053,-0.2986,-0.248,0.1724
0.004,0.006,0.094,-2.1,0.8,2.5,1023,2018,5,11,13,21,29.518,0.9055,-0.2989,-0.2475,0.1714
0.014,0.094,0.075,-0.6,-1.8,3.3,1023,2018,5,11,13,21,29.522,0.906,-0.298,-0.2469,0.171
-0.003,0.047,0.078,-3.5,-17.9,4.8,1023,2018,5,11,13,21,29.541,0.9061,-0.2987,-0.2467,0.1697
0.01,0.091,0.1,-6.2,-33.3,6.5,1023,2018,5,11,13,21,29.562,0.9055,-0.3018,-0.2465,0.1674
0.015,0.098,0.091,-9.1,-52.3,6.7,1023,2018,5,11,13,21,29.599,0.9042,-0.3075,-0.2464,0.164
-0.011,0.358,0.245,-14.6,-96.8,4.5,1023,2018,5,11,13,21,29.618,0.9013,-0.3181,-0.2468,0.1595
-0.073,0.36,0.209,-36.3,-201.5,10.3,1023,2018,5,11,13,21,29.622,0.8939,-0.3421,-0.2472,0.1504
-0.078,0.401,-0.005,-63,-301.5,15.8,1023,2018,5,11,13,21,29.662,0.88,-0.3826,-0.2469,0.1344
-0.091,0.283,-0.022,-95.9,-343.2,29.2,0,2018,5,11,13,21,29.682,0.8607,-0.4331,-0.2433,0.1109
-0.077,0.26,0.062,-119.3,-361.5,29.4,0,2018,5,11,13,21,29.686,0.8374,-0.4861,-0.2355,0.0829
-0.077,0.203,0.004,-137.3,-391.5,24.9,0,2018,5,11,13,21,29.699,0.8091,-0.5408,-0.2237,0.0522
-0.044,-0.201,-0.199,-131,-340.1,19.5,0,2018,5,11,13,21,29.74,0.7774,-0.5925,-0.2095,0.0214
0.057,-0.341,-0.244,-99.5,-197.6,17.1,0,2018,5,11,13,21,29.76,0.7529,-0.628,-0.1964,-0.0028
0.088,-0.194,-0.245,-64.3,-76.2,16.2,0,2018,5,11,13,21,29.764,0.7417,-0.6436,-0.1876,-0.0183
0.067,-0.138,-0.196,-37.2,-36.2,6.8,0,2018,5,11,13,21,29.783,0.7379,-0.6491,-0.1825,-0.0269
0.08,-0.076,-0.165,-23,-39.5,1,0,2018,5,11,13,21,29.802,0.7349,-0.6532,-0.1791,-0.0317
0.115,-0.129,-0.203,-13.4,-43.2,1.6,0,2018,5,11,13,21,29.841,0.7304,-0.6587,-0.1766,-0.0353
0.137,-0.144,-0.206,-4,-24.4,1.3,0,2018,5,11,13,21,29.861,0.7268,-0.6629,-0.1755,-0.0376
0.123,-0.12,-0.147,4.5,2.8,-0.4,0,2018,5,11,13,21,29.866,0.7256,-0.6641,-0.1756,-0.0379
0.105,-0.037,-0.074,9.5,22.6,-3.6,0,2018,5,11,13,21,29.905,0.7273,-0.6622,-0.1765,-0.0363
0.074,-0.005,-0.008,9.4,22.3,-6,0,2018,5,11,13,21,29.923,0.7295,-0.6598,-0.1768,-0.0331
0.052,0.029,0.017,6.6,9,-6.9,0,2018,5,11,13,21,29.928,0.7312,-0.6581,-0.1768,-0.0305
0.054,0.021,0.005,2.9,-2.4,-6.4,0,2018,5,11,13,21,29.942,0.7316,-0.6579,-0.1763,-0.0287
0.065,0.017,-0.022,2.6,-2.1,-4.4,0,2018,5,11,13,21,29.979,0.731,-0.6587,-0.1756,-0.0274
0.066,0.018,0.002,2.8,6,-1.7,0,2018,5,11,13,21,30.001,0.7311,-0.6587,-0.1752,-0.0262
0.043,0.04,0.022,1.7,8.6,0,0,2018,5,11,13,21,30.005,0.7324,-0.6574,-0.1752,-0.0252
0.027,0.033,-0.008,-0.1,2.2,0.7,0,2018,5,11,13,21,30.041,0.7331,-0.6566,-0.1752,-0.0249
0.016,0,-0.034,0,-1,1,0,2018,5,11,13,21,30.06,0.7329,-0.6568,-0.1752,-0.0249
0.018,-0.059,-0.073,4.2,10.7,0.3,0,2018,5,11,13,21,30.064,0.7328,-0.6568,-0.1755,-0.0245
0.018,-0.053,-0.09,10.4,31.7,-0.8,0,2018,5,11,13,21,30.086,0.7345,-0.6547,-0.1765,-0.0227
0.009,-0.041,-0.071,18,53.9,-3.2,0,2018,5,11,13,21,30.106,0.7385,-0.6498,-0.1783,-0.0192
0.006,-0.12,-0.085,28.2,88.1,-6.4,0,2018,5,11,13,21,30.123,0.7453,-0.6415,-0.1809,-0.0135
-0.001,-0.189,-0.137,39,130.6,-11.3,0,2018,5,11,13,21,30.143,0.7556,-0.6283,-0.1845,-0.005
0.015,-0.1,-0.107,50.3,193,-12.8,0,2018,5,11,13,21,30.163,0.7719,-0.6067,-0.1892,0.0069
0.023,0.116,-0.011,52.7,202.4,-13.6,0,2018,5,11,13,21,30.183,0.7908,-0.5798,-0.1945,0.0211
0.028,0.221,0.129,44.9,163.1,-13.8,0,2018,5,11,13,21,30.223,0.8077,-0.5537,-0.1991,0.0343
0.025,0.234,0.142,32.5,100.6,-11.7,0,2018,5,11,13,21,30.242,0.8188,-0.5351,-0.2025,0.0444
0.03,0.156,0.072,24.2,50.5,-7.3,0,2018,5,11,13,21,30.246,0.8247,-0.5245,-0.2051,0.0509
0.034,0.083,0.035,20.6,36.3,0,1023,2018,5,11,13,21,30.267,0.8279,-0.5181,-0.2073,0.0549
0.029,0.072,0.071,18.7,43.7,5.2,1023,2018,5,11,13,21,30.287,0.8313,-0.5114,-0.2097,0.0576
0.001,0.122,0.141,15.6,39.2,4.1,1023,2018,5,11,13,21,30.326,0.835,-0.504,-0.2121,0.0601
-0.006,0.158,0.159,8.3,-1.8,1.8,1023,2018,5,11,13,21,30.347,0.8364,-0.5007,-0.2139,0.0614
-0.016,0.083,0.135,0.8,-31.2,2.5,1023,2018,5,11,13,21,30.351,0.8345,-0.5035,-0.2149,0.0608
-0.001,-0.024,0.098,-2.6,-24.5,5.3,1023,2018,5,11,13,21,30.37,0.8325,-0.507,-0.2152,0.059
0.014,0.01,0.104,-3.5,-9.2,7.2,1023,2018,5,11,13,21,30.39,0.8318,-0.5083,-0.2152,0.0573
0.018,0.012,0.101,-3.7,-11.2,6,1023,2018,5,11,13,21,30.406,0.8318,-0.5086,-0.215,0.0557
0.022,0.004,0.074,-3.2,-14.8,4.6,1023,2018,5,11,13,21,30.427,0.8313,-0.5096,-0.2148,0.0543
0.036,-0.034,0.026,-2.1,-9.7,4.8,1023,2018,5,11,13,21,30.464,0.8306,-0.511,-0.2146,0.053
0.053,-0.047,-0.006,1.6,6.4,4.9,1023,2018,5,11,13,21,30.484,0.8304,-0.5114,-0.2146,0.0526
0.058,-0.013,-0.02,5.4,17.6,4.5,1023,2018,5,11,13,21,30.489,0.8314,-0.5095,-0.215,0.053
0.076,-0.066,-0.052,8.7,31.3,3.7,1023,2018,5,11,13,21,30.507,0.8331,-0.5062,-0.2158,0.0543
0.097,-0.336,-0.124,16.8,97.9,0.2,0,2018,5,11,13,21,30.545,0.8379,-0.4974,-0.2171,0.0575
0.126,-0.329,-0.165,32.3,208.6,-3.6,0,2018,5,11,13,21,30.567,0.8502,-0.474,-0.219,0.0658
0.13,0.028,-0.055,40.9,232.8,-13,0,2018,5,11,13,21,30.571,0.8671,-0.4391,-0.2211,0.079
0.146,-0.044,-0.048,42.8,207,-19.7,0,2018,5,11,13,21,30.588,0.8812,-0.4061,-0.2227,0.0934
0.193,0.08,-0.009,46.8,178.5,-25.7,0,2018,5,11,13,21,30.626,0.8924,-0.376,-0.2247,0.1077
0.201,0.146,0.063,52.3,141.2,-27.1,0,2018,5,11,13,21,30.645,0.8999,-0.3514,-0.2276,0.1212
0.158,0.167,0.151,53.9,127,-22.1,0,2018,5,11,13,21,30.649,0.905,-0.3307,-0.2316,0.1337
0.057,0.476,0.225,51.6,127.8,-7.1,0,2018,5,11,13,21,30.667,0.9097,-0.3094,-0.2361,0.1444
-0.056,0.557,0.56,23.7,19.4,11.7,0,2018,5,11,13,21,30.689,0.9122,-0.2961,-0.2404,0.1491
0.044,0.464,0.327,5,-94.5,24.7,0,2018,5,11,13,21,30.709,0.91,-0.3015,-0.2445,0.1451
-0.015,0.49,0.187,-9.7,-164.4,49,0,2018,5,11,13,21,30.729,0.9037,-0.3214,-0.2492,0.1332
-0.036,0.628,0.077,-17.1,-194,69.3,0,2018,5,11,13,21,30.75,0.896,-0.3456,-0.254,0.1147
-0.229,0.292,0.181,-49.1,-287.8,79.2,0,2018,5,11,13,21,30.789,0.883,-0.3815,-0.2578,0.0899
-0.262,0.127,0.149,-73,-303,79.4,0,2018,5,11,13,21,30.808,0.8659,-0.4241,-0.2579,0.0598
-0.267,-0.131,-0.052,-88.2,-273.7,70.9,0,2018,5,11,13,21,30.812,0.8473,-0.4657,-0.2536,0.029
-0.173,-0.181,-0.127,-80.7,-179.1,60.5,0,2018,5,11,13,21,30.831,0.8323,-0.4961,-0.2472,0.0023
-0.113,-0.155,-0.145,-63.5,-97.4,47.6,0,2018,5,11,13,21,30.851,0.8236,-0.5127,-0.2415,-0.0176
-0.078,-0.089,-0.129,-46.8,-46.1,34.1,0,2018,5,11,13,21,30.868,0.8197,-0.5204,-0.2371,-0.0311
-0.081,-0.022,-0.149,-36.8,-32,24.1,0,2018,5,11,13,21,30.888,0.8181,-0.5237,-0.2337,-0.0404
-0.045,-0.07,-0.182,-29.5,-24.8,17.4,0,2018,5,11,13,21,30.909,0.8168,-0.5265,-0.2307,-0.0475
-0.008,-0.062,-0.246,-22.9,-17.9,12.6,0,2018,5,11,13,21,30.928,0.8159,-0.5284,-0.2282,-0.0529
0.035,-0.072,-0.27,-15,-3.4,8.6,0,2018,5,11,13,21,30.95,0.8157,-0.5292,-0.2264,-0.0566
0.065,-0.058,-0.247,-5.4,16.7,5,0,2018,5,11,13,21,30.968,0.8169,-0.5274,-0.2258,-0.0582
0.075,-0.044,-0.194,2.8,25.2,1.4,0,2018,5,11,13,21,30.99,0.8192,-0.5236,-0.2263,-0.0579
0.053,-0.038,-0.147,7.8,23.3,-3.8,0,2018,5,11,13,21,31.031,0.8214,-0.52,-0.2273,-0.0562
0.05,-0.048,-0.146,9.5,19,-9.1,0,2018,5,11,13,21,31.05,0.8232,-0.517,-0.2282,-0.0536
0.067,-0.053,-0.153,11.9,12.5,-12.5,0,2018,5,11,13,21,31.054,0.8243,-0.5151,-0.2289,-0.0504
0.085,-0.089,-0.147,15.4,16.2,-14.4,0,2018,5,11,13,21,31.068,0.8251,-0.5138,-0.2298,-0.0467
0.079,-0.127,-0.123,18.9,33.9,-17,0,2018,5,11,13,21,31.103,0.827,-0.5107,-0.2311,-0.0419
0.066,-0.039,-0.094,21.5,48.6,-20.7,1023,2018,5,11,13,21,31.124,0.8301,-0.5054,-0.2327,-0.0354
0.062,-0.012,-0.068,23.3,47,-24.9,1023,2018,5,11,13,21,31.131,0.8332,-0.5,-0.2341,-0.0278
0.069,-0.001,-0.01,23.9,34.3,-28,1023,2018,5,11,13,21,31.152,0.8359,-0.4955,-0.2351,-0.0197
0.067,-0.033,0.019,23.8,27.2,-28.6,1023,2018,5,11,13,21,31.17,0.8375,-0.4927,-0.2357,-0.0119
0.052,-0.123,0.027,25.8,56.7,-25.9,1023,2018,5,11,13,21,31.208,0.84,-0.4882,-0.2364,-0.0035
0.026,0.011,0.001,25.9,82.9,-23.2,1023,2018,5,11,13,21,31.229,0.8451,-0.4786,-0.2377,0.0055
-0.009,0.107,0.114,19.1,78.7,-21.2,1023,2018,5,11,13,21,31.233,0.8513,-0.4666,-0.239,0.0143
0.001,0.128,0.101,11.2,40.6,-21.5,1023,2018,5,11,13,21,31.254,0.8554,-0.4586,-0.2393,0.0212
0,-0.07,0.035,9.6,31.7,-23.6,1023,2018,5,11,13,21,31.273,0.858,-0.4539,-0.2388,0.0269
-0.005,-0.29,-0.019,14.3,104.8,-22.5,1023,2018,5,11,13,21,31.313,0.8625,-0.4449,-0.2384,0.034
-0.015,0.03,0.08,16.3,159,-24.8,1023,2018,5,11,13,21,31.334,0.8724,-0.4246,-0.2378,0.0446
0.017,0.101,0.001,17.9,129.5,-35.2,0,2018,5,11,13,21,31.338,0.8824,-0.4024,-0.2369,0.0565
0.062,0.002,-0.056,24.8,94.7,-41.1,0,2018,5,11,13,21,31.356,0.8885,-0.3872,-0.2362,0.0686
0.094,0.045,0.044,28.4,73.6,-44.4,0,2018,5,11,13,21,31.376,0.8923,-0.3761,-0.2358,0.0809
0.116,0.151,0.093,27.7,64.2,-41,0,2018,5,11,13,21,31.392,0.895,-0.3666,-0.2363,0.0923
0.119,0.077,0.083,28.1,60.5,-33.2,0,2018,5,11,13,21,31.412,0.8971,-0.3582,-0.2373,0.1024
0.136,0.124,-0.019,29.6,65.8,-24.1,0,2018,5,11,13,21,31.434,0.8991,-0.3494,-0.2389,0.1113
0.073,0.576,0.333,22,20.4,-12.1,0,2018,5,11,13,21,31.453,0.9009,-0.3406,-0.2413,0.118
0.059,0.295,0.399,2,-45.4,0.8,0,2018,5,11,13,21,31.487,0.8992,-0.3437,-0.243,0.1185
0.068,0.088,0.21,-6.2,-48.1,12.8,0,2018,5,11,13,21,31.509,0.8963,-0.3519,-0.244,0.1149
0.038,0.077,0.154,-0.7,-17.2,20.5,0,2018,5,11,13,21,31.515,0.8948,-0.3562,-0.2452,0.1106
0.035,0.071,0.199,3.7,-2.4,18.9,0,2018,5,11,13,21,31.553,0.895,-0.3556,-0.2467,0.1072
0.016,0.275,0.169,1.5,-31.9,21.6,0,2018,5,11,13,21,31.574,0.8944,-0.3567,-0.2486,0.1038
0.072,0.211,0.047,-1,-78.7,30,0,2018,5,11,13,21,31.578,0.8913,-0.3644,-0.2513,0.0972
0.04,0.158,-0.007,-2.7,-139.1,38.8,0,2018,5,11,13,21,31.593,0.8849,-0.3798,-0.2548,0.0868
-0.016,0.206,-0.036,-10.7,-145.2,54.1,0,2018,5,11,13,21,31.632,0.8764,-0.3995,-0.2587,0.0721
-0.14,0.059,-0.024,-21.8,-193.2,44.4,0,2018,5,11,13,21,31.651,0.8653,-0.4237,-0.2617,0.0556
-0.121,-0.315,-0.118,-18.6,-100.7,33.5,0,2018,5,11,13,21,31.656,0.8552,-0.4448,-0.2626,0.041
-0.127,-0.345,-0.116,-7.2,14.8,13.9,0,2018,5,11,13,21,31.675,0.8528,-0.4498,-0.2628,0.0347
-0.053,-0.266,-0.176,8.5,119,-7.1,0,2018,5,11,13,21,31.695,0.8584,-0.4387,-0.2627,0.0378
0,-0.197,-0.185,19.2,166,-19.8,0,2018,5,11,13,21,31.716,0.8687,-0.4171,-0.2627,0.0478
0.043,-0.068,-0.123,25.8,190.5,-22.3,0,2018,5,11,13,21,31.736,0.8803,-0.3899,-0.263,0.0612
0.055,-0.088,-0.066,22.5,179.8,-21.4,0,2018,5,11,13,21,31.776,0.8906,-0.3632,-0.2631,0.075
0.052,-0.002,0.019,17.6,163.1,-24.6,0,2018,5,11,13,21,31.796,0.8996,-0.3377,-0.262,0.0882
0.065,0.171,0.012,14,123.5,-26.6,0,2018,5,11,13,21,31.8,0.9069,-0.3158,-0.2601,0.1
0.084,0.197,-0.041,11.9,87.5,-20.8,0,2018,5,11,13,21,31.815,0.9114,-0.3004,-0.2589,0.1091
0.021,0.671,0.3,5.9,8.3,-12.5,0,2018,5,11,13,21,31.835,0.9135,-0.2919,-0.2587,0.115
0.02,0.489,0.292,-9.8,-136.1,-4.4,0,2018,5,11,13,21,31.857,0.9102,-0.3025,-0.259,0.1129
0.032,0.437,0.188,-24.9,-281,-0.3,0,2018,5,11,13,21,31.874,0.8987,-0.3374,-0.2604,0.1028
0.023,0.171,0.13,-38.9,-332.1,8.2,0,2018,5,11,13,21,31.914,0.8805,-0.3863,-0.2608,0.0856
-0.013,-0.015,0.127,-52.9,-339.9,8.9,1023,2018,5,11,13,21,31.934,0.8583,-0.4381,-0.2588,0.0655
-0.009,-0.021,0.088,-61.2,-320.2,0.3,1023,2018,5,11,13,21,31.939,0.8348,-0.4864,-0.2535,0.0456
0.001,0.012,0.018,-69.5,-338.8,-6.3,1023,2018,5,11,13,21,31.957,0.8085,-0.534,-0.2456,0.0259
0.016,-0.18,-0.069,-65.6,-295.1,-6.4,1023,2018,5,11,13,21,31.978,0.7793,-0.5803,-0.2362,0.0067
0.04,-0.172,-0.085,-50.3,-184.3,-2.9,1023,2018,5,11,13,21,31.998,0.7563,-0.6132,-0.2276,-0.0077
0.057,-0.082,-0.15,-30.8,-89.5,-0.2,1023,2018,5,11,13,21,32.018,0.7437,-0.6302,-0.2219,-0.0171
0.03,-0.047,-0.153,-12.8,-30.1,1.4,1023,2018,5,11,13,21,32.056,0.7387,-0.6369,-0.2192,-0.0217
0.027,0.009,-0.135,-0.9,2.7,3.1,1023,2018,5,11,13,21,32.06,0.7374,-0.6385,-0.2187,-0.023
0.038,-0.072,-0.192,9.8,43.1,6.6,1023,2018,5,11,13,21,32.088,0.7397,-0.6355,-0.22,-0.0223
0.045,-0.316,-0.228,25.3,151.2,10,1023,2018,5,11,13,21,32.104,0.7494,-0.6228,-0.2236,-0.0178
0.028,-0.183,-0.161,38.1,272.7,8.9,1023,2018,5,11,13,21,32.114,0.7714,-0.5933,-0.2295,-0.007
-0.022,-0.012,-0.076,44.3,304.6,-3.6,1023,2018,5,11,13,21,32.152,0.7988,-0.5533,-0.2357,0.0088
-0.025,-0.186,-0.041,43.7,306.5,-18,0,2018,5,11,13,21,32.172,0.8245,-0.5114,-0.2402,0.0272
0.029,-0.138,-0.004,37.8,305.7,-30.8,0,2018,5,11,13,21,32.176,0.8486,-0.4679,-0.2419,0.0479
0.111,0.185,-0.033,29.2,254.2,-35.1,0,2018,5,11,13,21,32.215,0.869,-0.4268,-0.2408,0.0678
0.151,0.173,-0.064,23.6,157.4,-38.7,0,2018,5,11,13,21,32.236,0.8826,-0.3959,-0.2387,0.0842
0.16,0.227,0.021,15.4,53.7,-37.7,0,2018,5,11,13,21,32.238,0.888,-0.3817,-0.2375,0.0959
0.231,0.388,0.036,6.8,-9.3,-16.6,0,2018,5,11,13,21,32.277,0.8882,-0.38,-0.2369,0.1016
0.185,0.281,0.007,4.2,-32.5,6.7,0,2018,5,11,13,21,32.298,0.8863,-0.384,-0.238,0.1015
0.112,0.138,-0.026,8.6,-1.2,27.3,0,2018,5,11,13,21,32.302,0.8851,-0.3861,-0.2403,0.0983
0.008,0.008,-0.006,18.9,70.3,39.2,0,2018,5,11,13,21,32.317,0.8875,-0.3791,-0.2437,0.0955
-0.085,0.201,0.122,24.4,103.3,39.9,0,2018,5,11,13,21,32.355,0.8934,-0.3621,-0.2484,0.0947
-0.124,0.047,0.119,24,89.8,30.4,0,2018,5,11,13,21,32.375,0.8989,-0.345,-0.2527,0.0948
-0.123,-0.056,0.04,29.2,71.1,8.5,0,2018,5,11,13,21,32.379,0.9027,-0.3309,-0.2573,0.0967
-0.162,0.014,0.156,17.6,41.9,-2.5,0,2018,5,11,13,21,32.4,0.9046,-0.3217,-0.2607,0.1002
-0.164,0.377,0.467,-3.1,-31.4,-18.4,0,2018,5,11,13,21,32.419,0.905,-0.3195,-0.2608,0.1031
-0.006,0.118,0.233,-27.3,-140.4,-22.6,0,2018,5,11,13,21,32.456,0.8998,-0.3364,-0.2586,0.1011
0.06,0.207,0.17,-30.7,-201.3,-19.6,0,2018,5,11,13,21,32.477,0.8902,-0.3646,-0.2557,0.095
0.041,0.258,0.18,-42,-289,-17.2,0,2018,5,11,13,21,32.481,0.8749,-0.4041,-0.2529,0.0845
0.056,0.11,0.092,-59.5,-328.1,-7.9,0,2018,5,11,13,21,32.496,0.8532,-0.4533,-0.2484,0.0687
0.124,-0.545,-0.216,-54.7,-181.4,4.6,0,2018,5,11,13,21,32.537,0.833,-0.4946,-0.242,0.0523
0.188,-0.316,-0.299,-19.7,44.5,9.8,0,2018,5,11,13,21,32.557,0.8301,-0.5022,-0.2378,0.0457
0.137,-0.05,-0.207,8.1,114.3,10.4,0,2018,5,11,13,21,32.561,0.8382,-0.4885,-0.2373,0.0476
0.102,-0.142,-0.186,25.5,159.6,8.6,0,2018,5,11,13,21,32.579,0.8488,-0.4681,-0.2397,0.0532
0.063,-0.17,-0.144,35.6,232.9,9.9,0,2018,5,11,13,21,32.6,0.8632,-0.4377,-0.2433,0.0626
0.007,-0.119,-0.122,34.8,276.7,3.5,0,2018,5,11,13,21,32.639,0.8809,-0.397,-0.2462,0.0753
0.007,0.023,-0.141,37.2,237.6,-14.3,0,2018,5,11,13,21,32.658,0.8961,-0.3567,-0.2482,0.0897
-0.019,-0.006,-0.054,34,167.5,-40.6,0,2018,5,11,13,21,32.663,0.9057,-0.3263,-0.2492,0.105
0.034,0.097,0.058,22.9,104.3,-47.8,0,2018,5,11,13,21,32.702,0.9108,-0.3068,-0.2487,0.1198
0.055,0.343,0.289,3.1,27.7,-37.2,0,2018,5,11,13,21,32.721,0.9128,-0.2977,-0.2471,0.1303
0.117,0.309,0.224,-12.7,-50.6,-23.7,0,2018,5,11,13,21,32.725,0.9116,-0.3015,-0.2447,0.1341
0.131,0.199,0.025,-16,-102.9,-6.7,1023,2018,5,11,13,21,32.741,0.9073,-0.3159,-0.2435,0.132
0.104,-0.062,-0.012,-9,-69.1,6.7,1023,2018,5,11,13,21,32.781,0.9027,-0.3311,-0.2431,0.1274
0.086,0.163,0.061,0,-5.6,16.7,1023,2018,5,11,13,21,32.785,0.9014,-0.3357,-0.2433,0.1242
0.03,0.302,0.122,-1,-3.4,23.5,1023,2018,5,11,13,21,32.8,0.9018,-0.3349,-0.2445,0.121
0.021,0.222,0.037,-3.5,-13.2,29.3,1023,2018,5,11,13,21,32.837,0.9019,-0.3354,-0.2458,0.1162
-0.015,0.048,-0.024,1.9,4.6,30.1,1023,2018,5,11,13,21,32.856,0.9024,-0.3346,-0.2475,0.111
-0.066,-0.051,-0.013,11.7,23.8,19.4,1023,2018,5,11,13,21,32.863,0.9031,-0.3314,-0.2505,0.1079
-0.144,-0.048,0.159,13.1,17.6,-0.7,1023,2018,5,11,13,21,32.901,0.904,-0.3267,-0.2532,0.1081
-0.136,0.083,0.272,0.6,-2.5,-12.5,1023,2018,5,11,13,21,32.921,0.904,-0.3256,-0.2538,0.1101
-0.05,0.138,0.156,-8.8,-32.6,-13.3,1023,2018,5,11,13,21,32.925,0.903,-0.3289,-0.2527,0.1111
0.032,-0.013,0.095,-11.8,-44.7,-11.9,1023,2018,5,11,13,21,32.945,0.9011,-0.3359,-0.2506,0.1107
0.093,-0.063,0.034,-7.7,-44,-9.1,1023,2018,5,11,13,21,32.964,0.899,-0.3432,-0.2484,0.11
0.108,-0.072,0.035,-9.7,-45.7,-9.2,0,2018,5,11,13,21,33.005,0.8963,-0.3514,-0.2472,0.1093
0.131,-0.083,-0.019,-12.3,-19.6,4.7,0,2018,5,11,13,21,33.023,0.8945,-0.3575,-0.2457,0.1075
0.127,0.105,-0.042,-8.4,15.1,9.8,0,2018,5,11,13,21,33.027,0.8952,-0.3572,-0.2442,0.1059
0.126,0.093,-0.092,-3.4,6,12.7,0,2018,5,11,13,21,33.043,0.8967,-0.3548,-0.2429,0.1045
0.075,-0.017,-0.063,1,4.7,9.1,0,2018,5,11,13,21,33.065,0.8968,-0.3548,-0.243,0.1033
0.03,0.063,0.059,1.4,26.8,8.7,0,2018,5,11,13,21,33.084,0.8979,-0.352,-0.243,0.103
0.025,-0.069,0.068,-0.2,21.7,-0.7,0,2018,5,11,13,21,33.123,0.8998,-0.3474,-0.2425,0.1034
0.046,-0.036,0.039,0.6,22,-5.8,0,2018,5,11,13,21,33.127,0.901,-0.3447,-0.2412,0.1053
0.047,0.041,0.008,4.7,26.1,-6.6,0,2018,5,11,13,21,33.143,0.9023,-0.341,-0.2404,0.1076
0,0.1,0.13,1.6,-1.8,-10.3,0,2018,5,11,13,21,33.181,0.9028,-0.3393,-0.2401,0.1099
0.025,0.078,0.113,0.8,4.3,-6.2,0,2018,5,11,13,21,33.202,0.903,-0.339,-0.2392,0.1113
0.024,0.132,0.089,-0.5,-2.3,-4.1,0,2018,5,11,13,21,33.207,0.903,-0.3388,-0.2388,0.1122
0.021,0.108,0.076,-0.2,-10.8,-0.8,0,2018,5,11,13,21,33.223,0.9028,-0.3395,-0.2385,0.1122
0.02,0.124,0.086,0.4,-15.7,1.3,0,2018,5,11,13,21,33.243,0.9025,-0.3407,-0.2384,0.1115
0.011,0.277,0.157,1,-51.6,0.7,0,2018,5,11,13,21,33.265,0.9007,-0.3452,-0.2393,0.1102
-0.017,0.353,0.174,-3.2,-114.1,2.7,0,2018,5,11,13,21,33.304,0.8958,-0.3579,-0.2408,0.1064
-0.072,0.351,0.114,-22.2,-200.7,6.6,0,2018,5,11,13,21,33.325,0.8859,-0.3829,-0.2423,0.0982
-0.099,0.319,0.145,-56.7,-241.6,21,0,2018,5,11,13,21,33.329,0.8721,-0.4177,-0.2406,0.0838
-0.132,0.255,0.279,-86.3,-265.8,30.3,0,2018,5,11,13,21,33.347,0.856,-0.4559,-0.235,0.0636
-0.11,0.215,0.207,-107.5,-285.9,32.9,0,2018,5,11,13,21,33.382,0.837,-0.4967,-0.2256,0.0395
-0.089,-0.007,0.074,-112.7,-260.4,30.2,0,2018,5,11,13,21,33.404,0.8171,-0.5351,-0.214,0.014
-0.008,-0.235,-0.109,-100.3,-204.1,25.7,0,2018,5,11,13,21,33.408,0.7982,-0.5674,-0.2017,-0.0087
0.061,-0.261,-0.205,-74,-107.8,21.1,0,2018,5,11,13,21,33.446,0.7857,-0.5875,-0.1916,-0.026
0.06,-0.174,-0.178,-51.5,-43,13.8,0,2018,5,11,13,21,33.45,0.7805,-0.5959,-0.1846,-0.037
0.105,-0.043,-0.179,-36.8,-13.7,8.7,0,2018,5,11,13,21,33.467,0.7797,-0.5981,-0.1799,-0.0438
0.159,0.024,-0.21,-28.8,-33.6,8,0,2018,5,11,13,21,33.504,0.7785,-0.6003,-0.1762,-0.049
0.15,-0.047,-0.235,-19.5,-48.4,6.6,0,2018,5,11,13,21,33.524,0.7749,-0.6053,-0.1734,-0.0538
0.125,-0.16,-0.208,-9.1,-30,6.3,0,2018,5,11,13,21,33.528,0.7708,-0.6106,-0.1718,-0.0574
0.116,-0.121,-0.179,1.5,12.8,5.1,1023,2018,5,11,13,21,33.547,0.7703,-0.611,-0.172,-0.0587
0.103,-0.041,-0.136,8.3,28.2,1.7,1023,2018,5,11,13,21,33.567,0.7728,-0.6077,-0.1734,-0.0579
0.097,0.01,-0.078,11.4,22,-0.5,1023,2018,5,11,13,21,33.586,0.7753,-0.6041,-0.175,-0.0558
0.085,0.008,-0.026,10.3,6.2,-1.4,1023,2018,5,11,13,21,33.627,0.7764,-0.6026,-0.1761,-0.0535
0.076,-0.014,-0.017,7.6,-5.6,-1.9,1023,2018,5,11,13,21,33.646,0.776,-0.6032,-0.1766,-0.0518
0.067,-0.018,-0.023,5.6,-5.1,-2.6,1023,2018,5,11,13,21,33.651,0.7752,-0.6043,-0.1767,-0.0505
0.068,-0.005,-0.037,5.6,-4.3,-3.3,1023,2018,5,11,13,21,33.689,0.7745,-0.6052,-0.1767,-0.0491
0.055,-0.014,-0.009,7.3,-0.7,-3.9,1023,2018,5,11,13,21,33.71,0.774,-0.606,-0.1768,-0.0476
0.06,0.009,0.037,8.3,1,-3.7,1023,2018,5,11,13,21,33.714,0.7741,-0.606,-0.1771,-0.0458
0.061,0.019,0.046,8.3,-3.1,-3.8,1023,2018,5,11,13,21,33.729,0.7742,-0.6059,-0.1773,-0.0441
0.06,0.015,0.05,8.7,-7.1,-2.8,1023,2018,5,11,13,21,33.766,0.7739,-0.6063,-0.1777,-0.0425
0.049,-0.008,0.054,8.6,-4.7,-1.9,1023,2018,5,11,13,21,33.786,0.7735,-0.6067,-0.1782,-0.0411
0.049,-0.03,0.025,10.5,4.1,-1.3,1023,2018,5,11,13,21,33.79,0.7734,-0.6068,-0.1788,-0.0396
0.032,-0.044,0.048,12.8,21.2,-0.7,0,2018,5,11,13,21,33.809,0.7747,-0.6048,-0.1801,-0.0374
0.013,-0.006,0.081,12.8,28.7,-1,0,2018,5,11,13,21,33.848,0.7775,-0.6009,-0.1816,-0.0349
0.002,-0.001,0.11,10.3,26.7,-0.7,0,2018,5,11,13,21,33.852,0.7809,-0.5962,-0.1831,-0.0326
-0.005,0.011,0.121,6.2,16.2,0.2,0,2018,5,11,13,21,33.869,0.7836,-0.5924,-0.1841,-0.031
0.002,-0.019,0.089,3.1,6.1,2.6,0,2018,5,11,13,21,33.909,0.7852,-0.5901,-0.1848,-0.0304
0,-0.049,0.081,2.7,8.5,3.9,0,2018,5,11,13,21,33.93,0.7862,-0.5886,-0.1854,-0.0303
-0.005,-0.052,0.083,3.9,15.6,3.6,0,2018,5,11,13,21,33.934,0.7877,-0.5863,-0.1861,-0.0299
-0.02,-0.059,0.096,4,22.7,2.5,0,2018,5,11,13,21,33.953,0.7901,-0.583,-0.1869,-0.0292
-0.026,-0.033,0.1,1.8,25.2,2.3,0,2018,5,11,13,21,33.966,0.7931,-0.5786,-0.1876,-0.0284
-0.015,-0.038,0.07,-1,24.7,2.5,0,2018,5,11,13,21,34.004,0.796,-0.5745,-0.188,-0.0279
0,-0.047,0.009,0,24.5,2.6,0,2018,5,11,13,21,34.027,0.7987,-0.5708,-0.1882,-0.0275
0.004,-0.093,0.021,2.8,36.1,2,0,2018,5,11,13,21,34.032,0.8015,-0.5667,-0.1887,-0.0264
-0.006,-0.07,0.059,3.8,49,0.3,0,2018,5,11,13,21,34.051,0.8058,-0.5604,-0.1893,-0.0246
-0.01,-0.06,0.093,1.2,52.8,-1.3,0,2018,5,11,13,21,34.09,0.811,-0.5529,-0.1896,-0.0224
0.015,-0.039,0.088,-1.2,48.8,-0.6,0,2018,5,11,13,21,34.11,0.8165,-0.5449,-0.1894,-0.0204
0.015,-0.075,0.074,-1,43.7,0.6,0,2018,5,11,13,21,34.115,0.8212,-0.5379,-0.189,-0.0188
-0.033,-0.134,0.111,-0.4,51.1,1.7,0,2018,5,11,13,21,34.133,0.8258,-0.5309,-0.1889,-0.0173
-0.054,-0.134,0.166,-3.1,63.5,0.4,0,2018,5,11,13,21,34.154,0.8316,-0.5218,-0.1888,-0.0156
-0.056,-0.095,0.166,-10.6,69,-2.1,0,2018,5,11,13,21,34.171,0.8385,-0.5111,-0.1878,-0.0139
-0.092,-0.068,0.159,-18.1,60.8,-3.8,0,2018,5,11,13,21,34.189,0.8453,-0.5007,-0.1856,-0.0127
-0.085,-0.09,0.162,-24.2,50.9,-5.5,0,2018,5,11,13,21,34.212,0.8512,-0.4919,-0.1823,-0.0123
-0.058,-0.078,0.141,-29.1,45.4,-7.8,0,2018,5,11,13,21,34.23,0.8565,-0.4842,-0.1778,-0.0122
-0.035,-0.085,0.103,-30.4,43.9,-9.9,0,2018,5,11,13,21,34.25,0.8615,-0.4771,-0.1727,-0.012
0,-0.095,0.104,-28.2,52.8,-10.6,0,2018,5,11,13,21,34.287,0.8666,-0.4699,-0.1672,-0.0113
0.005,-0.082,0.11,-26.4,66.8,-9.7,0,2018,5,11,13,21,34.308,0.8725,-0.4607,-0.162,-0.01
0.037,-0.078,0.073,-21.8,78,-7,1023,2018,5,11,13,21,34.313,0.8791,-0.4497,-0.1573,-0.0084
0.086,-0.108,0.06,-12.6,96.9,-2.2,1023,2018,5,11,13,21,34.35,0.8864,-0.4365,-0.1536,-0.0062
0.07,-0.131,0.037,-1.5,126.8,4.6,1023,2018,5,11,13,21,34.37,0.8949,-0.4194,-0.1519,-0.0034
0.031,-0.101,0.028,6.9,156.1,10.7,1023,2018,5,11,13,21,34.375,0.9049,-0.3973,-0.1524,-0.0002
0.021,-0.065,-0.017,13.5,171.9,15.5,1023,2018,5,11,13,21,34.396,0.9156,-0.3709,-0.1547,0.003
0.018,-0.066,-0.017,20.2,179,18,1023,2018,5,11,13,21,34.416,0.9259,-0.3429,-0.1582,0.0064
-0.026,-0.054,-0.016,20.8,177.2,17.2,1023,2018,5,11,13,21,34.431,0.9354,-0.3137,-0.1624,0.01
-0.062,0.013,-0.036,15,156.7,14.5,1023,2018,5,11,13,21,34.47,0.9436,-0.2855,-0.1665,0.0131
-0.04,0.057,-0.054,6.9,117.5,9.7,1023,2018,5,11,13,21,34.492,0.9499,-0.2621,-0.1692,0.0156
-0.013,0.01,-0.089,1.2,79.2,4.9,1023,2018,5,11,13,21,34.497,0.954,-0.2458,-0.1705,0.0174
-0.013,-0.056,-0.099,-2.9,66.2,-0.5,1023,2018,5,11,13,21,34.515,0.9567,-0.2349,-0.1706,0.0191
-0.018,-0.039,-0.047,-11,71.3,-8.2,0,2018,5,11,13,21,34.533,0.9593,-0.2243,-0.1695,0.0218
-0.002,0.108,-0.07,-25.3,59.7,-16.1,0,2018,5,11,13,21,34.554,0.9624,-0.2134,-0.1659,0.0252
0.035,0.165,-0.137,-38.6,26,-21,0,2018,5,11,13,21,34.595,0.9649,-0.2059,-0.1599,0.0283
0.089,0.172,-0.203,-46.5,-1.8,-21.3,0,2018,5,11,13,21,34.615,0.9665,-0.2042,-0.1517,0.0306
0.128,0.122,-0.205,-48,-7.6,-17.3,0,2018,5,11,13,21,34.619,0.9676,-0.2059,-0.1424,0.0321
0.136,0.097,-0.203,-47,13.4,-10.7,0,2018,5,11,13,21,34.638,0.9688,-0.2063,-0.1329,0.0331
0.122,0.181,-0.194,-49.2,23.3,-4.5,0,2018,5,11,13,21,34.657,0.9707,-0.2031,-0.1236,0.0333
0.123,0.224,-0.234,-53.7,12.2,1.8,0,2018,5,11,13,21,34.672,0.9724,-0.2002,-0.1147,0.0321
0.127,0.231,-0.292,-57.4,-10.3,7.9,0,2018,5,11,13,21,34.694,0.9736,-0.2003,-0.1054,0.0293
0.147,0.175,-0.3,-56.4,-27.5,13.7,0,2018,5,11,13,21,34.714,0.9739,-0.2039,-0.0961,0.025
0.161,0.124,-0.277,-52.4,-28.4,18.5,0,2018,5,11,13,21,34.75,0.9738,-0.2088,-0.0875,0.0198
0.178,0.105,-0.265,-47,-25.2,21.3,0,2018,5,11,13,21,34.771,0.9736,-0.2132,-0.0799,0.0142
0.192,0.14,-0.236,-42.7,-24.9,21.7,0,2018,5,11,13,21,34.776,0.9733,-0.217,-0.0733,0.0085
0.198,0.193,-0.258,-41,-49.1,20.6,0,2018,5,11,13,21,34.798,0.9725,-0.2227,-0.067,0.0029
0.207,0.145,-0.275,-35.2,-73.5,20.5,0,2018,5,11,13,21,34.818,0.9704,-0.2331,-0.0613,-0.0026
0.246,0.045,-0.229,-25.1,-78.7,20.6,0,2018,5,11,13,21,34.855,0.9675,-0.246,-0.057,-0.0081
0.278,-0.011,-0.205,-12.7,-58.8,21.2,0,2018,5,11,13,21,34.875,0.9646,-0.2576,-0.0546,-0.0131
0.239,0.048,-0.179,-3.1,-40,21.4,0,2018,5,11,13,21,34.88,0.9624,-0.2653,-0.0542,-0.0175
0.205,0.088,-0.128,2.4,-44.6,21.4,0,2018,5,11,13,21,34.895,0.9605,-0.2718,-0.0551,-0.0214
0.219,0.057,-0.089,7.1,-57.5,22.5,0,2018,5,11,13,21,34.932,0.9579,-0.2801,-0.0568,-0.0252
0.218,0,-0.077,12.8,-58.5,23.9,0,2018,5,11,13,21,34.952,0.9548,-0.2894,-0.0595,-0.029
0.164,-0.027,-0.07,17.1,-50.6,24.2,0,2018,5,11,13,21,34.956,0.9519,-0.2979,-0.063,-0.0326
0.119,-0.004,-0.048,19.9,-43.3,24,0,2018,5,11,13,21,34.978,0.9492,-0.3051,-0.0672,-0.036
0.111,-0.001,-0.006,21.9,-35,23.8,0,2018,5,11,13,21,34.997,0.9468,-0.3114,-0.0707,-0.0387
0.088,0.05,0.01,21.4,-34.4,21.1,0,2018,5,11,13,21,35.033,0.9446,-0.3167,-0.0744,-0.0413
0.049,0.11,-0.016,18.3,-47.9,18,0,2018,5,11,13,21,35.053,0.9423,-0.3226,-0.078,-0.0436
0.033,0.129,-0.066,15.9,-64.9,16.1,0,2018,5,11,13,21,35.057,0.9389,-0.3312,-0.0811,-0.0461
0.014,0.042,-0.045,15.8,-71.1,18.8,0,2018,5,11,13,21,35.098,0.9345,-0.3423,-0.0841,-0.0489
0.031,0.013,0.007,16.4,-56.7,24.1,0,2018,5,11,13,21,35.102,0.9302,-0.3525,-0.0874,-0.0521
0.013,0.044,0.015,15.8,-44.4,30.4,0,2018,5,11,13,21,35.118,0.9267,-0.3602,-0.091,-0.0562
-0.004,0.065,-0.009,15,-40.7,36.4,1023,2018,5,11,13,21,35.137,0.9235,-0.3663,-0.0953,-0.0614
-0.006,0.067,-0.027,13.7,-41.7,40.5,1023,2018,5,11,13,21,35.156,0.9203,-0.372,-0.0998,-0.0674
-0.002,0.073,-0.043,11.8,-43.9,43.4,1023,2018,5,11,13,21,35.177,0.9167,-0.3783,-0.1043,-0.0741
-0.004,0.065,-0.053,9.2,-49.5,44.6,1023,2018,5,11,13,21,35.215,0.9128,-0.3849,-0.1085,-0.0813
-0.02,0.051,-0.053,7.4,-57.1,46.4,1023,2018,5,11,13,21,35.235,0.9083,-0.3927,-0.1125,-0.089
-0.032,0.01,-0.025,7.2,-63.6,47,1023,2018,5,11,13,21,35.24,0.903,-0.4018,-0.1163,-0.0972
-0.005,-0.004,-0.031,6.2,-71.9,47.7,1023,2018,5,11,13,21,35.259,0.8971,-0.4117,-0.1198,-0.1056
0.014,-0.02,-0.045,8.5,-78.1,48.6,1023,2018,5,11,13,21,35.28,0.8904,-0.4229,-0.123,-0.114
0.014,-0.04,-0.048,12,-80.6,49.7,1023,2018,5,11,13,21,35.319,0.8829,-0.4352,-0.1266,-0.1224
-0.008,-0.127,-0.053,15.4,-76.1,48.9,1023,2018,5,11,13,21,35.338,0.875,-0.4473,-0.1307,-0.1305
-0.014,-0.196,0,19.2,-60.9,43.9,1023,2018,5,11,13,21,35.342,0.8676,-0.4582,-0.1353,-0.1374
-0.02,-0.176,0.036,23.3,-42.5,37.9,1023,2018,5,11,13,21,35.363,0.8618,-0.4659,-0.1403,-0.1426
-0.083,-0.125,0.076,30,-31.9,16.7,0,2018,5,11,13,21,35.382,0.8482,-0.4829,-0.1568,-0.1505
-0.087,-0.146,0.147,30.3,-20.6,9.9,0,2018,5,11,13,21,35.398,0.8449,-0.4869,-0.1618,-0.1506
-0.081,-0.068,0.128,27.9,-6.5,6,0,2018,5,11,13,21,35.417,0.8432,-0.4886,-0.1665,-0.1496
-0.098,-0.04,0.05,26.8,-1.5,1.2,0,2018,5,11,13,21,35.452,0.8422,-0.4892,-0.1711,-0.1481
-0.121,-0.123,0.137,20.9,13.4,-8.8,0,2018,5,11,13,21,35.474,0.8422,-0.4885,-0.175,-0.1456
-0.158,-0.303,0.204,16.8,50.5,-24.4,0,2018,5,11,13,21,35.478,0.8449,-0.4846,-0.1771,-0.1407
-0.15,-0.212,0.22,13.7,76.9,-35,0,2018,5,11,13,21,35.52,0.851,-0.4757,-0.1783,-0.1327
-0.129,0.044,0.202,8.1,80.2,-37.5,0,2018,5,11,13,21,35.539,0.8586,-0.4641,-0.1789,-0.1238
-0.083,0.039,0.219,-1.7,43.7,-39.1,0,2018,5,11,13,21,35.544,0.8645,-0.4555,-0.1777,-0.1158
0.016,-0.03,0.264,-14.3,5.8,-38.4,0,2018,5,11,13,21,35.562,0.8674,-0.4529,-0.1739,-0.1098
0.089,-0.166,0.324,-29.4,0.8,-35.2,0,2018,5,11,13,21,35.582,0.869,-0.453,-0.1677,-0.1059
0.151,-0.091,0.315,-43.4,23.9,-29.4,0,2018,5,11,13,21,35.6,0.8721,-0.4507,-0.1599,-0.1034
0.224,0.036,0.216,-53,15.1,-24.6,0,2018,5,11,13,21,35.619,0.8759,-0.4466,-0.1509,-0.1024
0.23,-0.081,0.024,-56.8,-5.6,-22.2,0,2018,5,11,13,21,35.637,0.8778,-0.446,-0.1405,-0.103
0.307,0.108,-0.042,-49,0.5,-15.8,0,2018,5,11,13,21,35.676,0.8796,-0.4452,-0.1309,-0.1041
0.247,0.153,-0.068,-44.6,-12.5,-6.2,0,2018,5,11,13,21,35.698,0.8807,-0.4448,-0.1229,-0.1061
0.213,0.266,-0.132,-39.5,-32.7,6.2,0,2018,5,11,13,21,35.702,0.8799,-0.4473,-0.116,-0.1097
0.145,0.368,-0.204,-29.6,-74.5,19.2,0,2018,5,11,13,21,35.721,0.8764,-0.4541,-0.1104,-0.1154
0.071,0.314,-0.3,-18.4,-140.7,29.7,0,2018,5,11,13,21,35.742,0.8679,-0.4691,-0.1067,-0.1232
0.033,0.103,-0.396,-7.7,-177.3,37.1,0,2018,5,11,13,21,35.763,0.8537,-0.4927,-0.104,-0.1323
0.038,0.018,-0.307,2.3,-174.5,38.8,0,2018,5,11,13,21,35.783,0.8375,-0.5177,-0.1029,-0.1412
0.015,-0.135,-0.244,11.5,-134.9,41.6,0,2018,5,11,13,21,35.803,0.8221,-0.5394,-0.1037,-0.1491
-0.023,-0.239,-0.24,23.9,-71.5,43.8,0,2018,5,11,13,21,35.824,0.811,-0.5535,-0.1076,-0.1554
-0.05,-0.281,-0.203,38.8,-1.2,40.9,0,2018,5,11,13,21,35.84,0.8061,-0.5581,-0.1152,-0.1589
-0.106,-0.12,-0.049,50.6,60.5,38.1,0,2018,5,11,13,21,35.879,0.8071,-0.5541,-0.1266,-0.1591
-0.19,0.096,0.21,48.9,67.3,34.8,0,2018,5,11,13,21,35.899,0.8117,-0.5444,-0.1398,-0.1581
-0.19,-0.193,0.187,37,32.9,16.7,0,2018,5,11,13,21,35.903,0.8146,-0.5379,-0.1497,-0.1567
-0.165,-0.403,0.229,24.1,31,-7.2,0,2018,5,11,13,21,35.942,0.8166,-0.5342,-0.1552,-0.1534
-0.154,-0.399,0.302,10.8,72.9,-19.2,0,2018,5,11,13,21,35.961,0.8215,-0.5275,-0.1574,-0.1483
-0.074,-0.139,0.299,-2.8,98.4,-32.4,0,2018,5,11,13,21,35.965,0.8304,-0.5153,-0.1573,-0.1416
-0.018,-0.019,0.29,-18.5,67.3,-42.1,1023,2018,5,11,13,21,35.984,0.8394,-0.5032,-0.1545,-0.1348
0.013,0.018,0.281,-32.4,28.6,-47.3,1023,2018,5,11,13,21,36.004,0.8452,-0.4969,-0.1478,-0.1291
0.103,-0.007,0.159,-44.7,0,-43.3,1023,2018,5,11,13,21,36.041,0.8485,-0.495,-0.1383,-0.1254
0.189,0.056,-0.028,-46,-4.1,-37.4,1023,2018,5,11,13,21,36.061,0.8506,-0.4947,-0.128,-0.1234
0.246,0.25,-0.114,-40.8,-39.5,-31,1023,2018,5,11,13,21,36.065,0.8508,-0.4971,-0.1181,-0.1223
0.312,0.239,-0.281,-26.3,-70.9,-20.5,1023,2018,5,11,13,21,36.084,0.847,-0.5053,-0.1096,-0.1226
0.256,0.387,-0.235,-13.1,-114.8,-7,1023,2018,5,11,13,21,36.102,0.8396,-0.5184,-0.1037,-0.1239
0.149,0.263,-0.181,-4.5,-142.1,8.8,1023,2018,5,11,13,21,36.141,0.8275,-0.5376,-0.0996,-0.127
0.063,0.249,-0.14,-1.2,-167,17.6,1023,2018,5,11,13,21,36.159,0.8119,-0.5602,-0.0974,-0.1314
0.208,0.142,-0.244,-4,-229.4,21.9,1023,2018,5,11,13,21,36.163,0.7908,-0.5888,-0.094,-0.1377
0.121,-0.445,-0.384,15.5,-102.7,40.9,1023,2018,5,11,13,21,36.202,0.7715,-0.6123,-0.0939,-0.1445
0.081,-0.221,-0.183,33.5,39.3,48.4,1023,2018,5,11,13,21,36.222,0.7677,-0.615,-0.1017,-0.1481
-0.016,-0.203,0.073,41.7,98.5,47.4,0,2018,5,11,13,21,36.227,0.7733,-0.6056,-0.1137,-0.1489
-0.094,-0.161,0.162,36.1,92.2,31.4,0,2018,5,11,13,21,36.246,0.782,-0.5922,-0.1256,-0.148
-0.181,-0.175,0.322,19,43.9,3.6,0,2018,5,11,13,21,36.266,0.7885,-0.5822,-0.1335,-0.1458
-0.12,-0.421,0.32,0.6,53.9,-14.3,0,2018,5,11,13,21,36.307,0.7927,-0.5768,-0.1351,-0.1432
-0.043,-0.149,0.286,-14.1,96.8,-20.1,0,2018,5,11,13,21,36.311,0.8011,-0.5662,-0.134,-0.1396
0.009,0.053,0.215,-23.3,96.8,-20.3,0,2018,5,11,13,21,36.327,0.8121,-0.5516,-0.1318,-0.1363
-0.007,0.104,0.178,-29,53.6,-25.7,0,2018,5,11,13,21,36.345,0.8207,-0.5405,-0.1276,-0.1337
0.017,0.096,0.163,-36.5,8.4,-27.4,0,2018,5,11,13,21,36.365,0.8247,-0.5362,-0.1209,-0.1322
0.166,0.133,0.032,-40.2,-4.9,-20.6,0,2018,5,11,13,21,36.405,0.8265,-0.5352,-0.113,-0.1321
0.193,0.245,-0.045,-40.1,-32.6,-9.6,0,2018,5,11,13,21,36.424,0.8261,-0.5369,-0.1054,-0.134
0.13,0.284,-0.153,-37.8,-89.6,-6.3,0,2018,5,11,13,21,36.428,0.8215,-0.5446,-0.0974,-0.1376
0.24,0.199,-0.391,-20.1,-106.8,3.6,0,2018,5,11,13,21,36.448,0.8121,-0.5586,-0.0906,-0.1418
0.233,0.105,-0.403,1.4,-112.1,14.7,0,2018,5,11,13,21,36.469,0.801,-0.5739,-0.0876,-0.1457
0.128,-0.056,-0.382,22.5,-74.3,17.6,0,2018,5,11,13,21,36.506,0.7909,-0.587,-0.0887,-0.1482
0.103,-0.259,-0.21,34,2.9,21,0,2018,5,11,13,21,36.527,0.7859,-0.5928,-0.0936,-0.1484
0.03,-0.113,-0.064,40.2,73.6,23.8,0,2018,5,11,13,21,36.531,0.789,-0.5877,-0.1022,-0.1468
-0.022,0.002,0.068,39.7,100.8,25.2,0,2018,5,11,13,21,36.546,0.7966,-0.576,-0.1127,-0.1443
-0.038,-0.042,0.158,32.8,115.6,27.7,0,2018,5,11,13,21,36.566,0.8063,-0.5607,-0.1231,-0.1425
-0.076,-0.146,0.206,23.4,100.3,6.9,0,2018,5,11,13,21,36.586,0.8163,-0.5447,-0.1318,-0.1397
-0.064,-0.209,0.388,3.4,64.8,-13.8,0,2018,5,11,13,21,36.624,0.824,-0.5331,-0.1352,-0.1356
0.033,0.034,0.367,-14.4,65.6,-11.5,0,2018,5,11,13,21,36.645,0.8306,-0.5237,-0.1346,-0.1327
0.026,0.142,0.193,-24.3,27.9,-11.7,0,2018,5,11,13,21,36.65,0.8358,-0.5162,-0.1318,-0.1318
0.106,0.208,0.052,-28.2,-17.9,-11.5,0,2018,5,11,13,21,36.669,0.8373,-0.515,-0.1268,-0.1323
0.103,0.337,0.075,-29,-76.8,-8.1,0,2018,5,11,13,21,36.706,0.8339,-0.5214,-0.1207,-0.1341
0.086,0.287,0.031,-33.2,-135.9,-0.4,0,2018,5,11,13,21,36.726,0.825,-0.536,-0.1133,-0.1385
0.122,0.079,-0.17,-29.8,-156.9,9.6,0,2018,5,11,13,21,36.73,0.8109,-0.5569,-0.1053,-0.1451
0.155,-0.021,-0.274,-14.7,-121.5,15.2,0,2018,5,11,13,21,36.747,0.7973,-0.5755,-0.0998,-0.1516
0.147,-0.144,-0.286,-0.3,-84.8,14.1,0,2018,5,11,13,21,36.767,0.7866,-0.5893,-0.0975,-0.1562
0.07,-0.229,-0.137,10.3,-22.6,11.4,0,2018,5,11,13,21,36.788,0.7808,-0.5962,-0.0983,-0.1581
0.055,-0.181,-0.039,13.4,35.3,12.5,0,2018,5,11,13,21,36.823,0.781,-0.5956,-0.1012,-0.158
0.034,-0.122,0.03,15.2,87.9,13.4,0,2018,5,11,13,21,36.843,0.7868,-0.5875,-0.1057,-0.1565
0.036,-0.133,0.002,19.5,88.9,1.2,0,2018,5,11,13,21,36.847,0.7954,-0.5755,-0.1111,-0.1537
0.071,-0.112,-0.013,22.7,64.5,-10.5,1023,2018,5,11,13,21,36.886,0.8024,-0.5663,-0.1148,-0.1486
0.066,-0.018,0.151,19.2,60.9,-11.1,1023,2018,5,11,13,21,36.906,0.8082,-0.5588,-0.1178,-0.1432
0.038,0.179,0.359,-3.6,42,-3.8,1023,2018,5,11,13,21,36.91,0.8136,-0.5514,-0.1193,-0.1402
0.075,0.181,0.165,-19.2,-3.6,-2.4,1023,2018,5,11,13,21,36.949,0.8161,-0.548,-0.1178,-0.1404
0.082,0.141,0.015,-18.8,-24.8,2.3,1023,2018,5,11,13,21,36.968,0.8151,-0.5497,-0.1142,-0.1424
0.021,0.448,0.129,-17.1,-97.4,5,1023,2018,5,11,13,21,36.972,0.8104,-0.5564,-0.1109,-0.1455
-0.034,0.563,0.235,-35.4,-227.7,12.9,1023,2018,5,11,13,21,36.993,0.7946,-0.5783,-0.104,-0.1523
-0.018,0.479,0.072,-61.3,-326,27.7,1023,2018,5,11,13,21,37.014,0.7655,-0.615,-0.0916,-0.165
-0.031,0.184,-0.143,-75.1,-343.2,38.2,1023,2018,5,11,13,21,37.03,0.7278,-0.6567,-0.0761,-0.182
0.003,0.091,-0.151,-84.5,-334.6,38.3,1023,2018,5,11,13,21,37.067,0.6876,-0.6953,-0.0595,-0.2002
-0.021,-0.077,-0.066,-91.1,-302.6,34.9,1023,2018,5,11,13,21,37.088,0.6466,-0.7297,-0.0422,-0.2181
0.008,-0.204,-0.047,-95.2,-241.5,27.4,1023,2018,5,11,13,21,37.092,0.6103,-0.756,-0.0249,-0.2348
-0.006,-0.175,-0.056,-93,-172.3,22.2,0,2018,5,11,13,21,37.127,0.5828,-0.7731,-0.0095,-0.25
-0.004,-0.148,-0.104,-85.1,-122.7,20.8,0,2018,5,11,13,21,37.13,0.5619,-0.7839,0.0032,-0.2637
0.017,-0.228,-0.138,-70.1,-65.9,18.5,0,2018,5,11,13,21,37.166,0.5475,-0.79,0.0128,-0.2755
0.026,-0.095,-0.068,-54.1,-22.4,15.5,0,2018,5,11,13,21,37.185,0.5405,-0.7914,0.0186,-0.2848
-0.03,-0.06,-0.186,-42,-44.9,5.3,0,2018,5,11,13,21,37.191,0.5351,-0.7923,0.0228,-0.2919
0.04,-0.163,-0.2,-29.6,-45.4,0,0,2018,5,11,13,21,37.229,0.5282,-0.795,0.0283,-0.2968
0.127,-0.369,-0.431,-8.2,-0.4,-11.3,0,2018,5,11,13,21,37.249,0.5248,-0.7963,0.0324,-0.2987
0.171,-0.169,-0.395,16.8,62.2,-16.1,0,2018,5,11,13,21,37.25,0.5303,-0.7934,0.0322,-0.2968
0.145,0.043,-0.2,27.5,77.7,-17.1,0,2018,5,11,13,21,37.27,0.5417,-0.7875,0.0284,-0.2924
0.127,0.104,-0.088,25.4,47.9,-16.2,0,2018,5,11,13,21,37.289,0.5513,-0.7827,0.0248,-0.2874
0.111,0.059,-0.067,19.1,15.4,-13.5,0,2018,5,11,13,21,37.309,0.5564,-0.7808,0.0232,-0.283
0.103,-0.046,-0.147,19.3,8.7,-11.5,0,2018,5,11,13,21,37.331,0.5582,-0.7808,0.0226,-0.2793
0.089,-0.09,-0.153,26.8,30.1,-11.9,0,2018,5,11,13,21,37.35,0.5616,-0.78,0.021,-0.2751
0.078,-0.067,-0.079,33.9,57.5,-12.4,0,2018,5,11,13,21,37.369,0.5682,-0.7771,0.0176,-0.2697
0.055,-0.002,-0.008,35.3,75.4,-13.8,0,2018,5,11,13,21,37.41,0.5776,-0.7725,0.013,-0.2632
0.036,0.025,0,32.6,70.3,-14.9,0,2018,5,11,13,21,37.431,0.5878,-0.7669,0.0083,-0.2572
0.023,0.017,-0.029,32,64.7,-13.7,0,2018,5,11,13,21,37.432,0.5967,-0.762,0.0041,-0.2513
0.031,0.013,-0.06,36.4,74.6,-9.6,0,2018,5,11,13,21,37.47,0.6056,-0.7569,-0.0007,-0.2454
0.028,0.086,-0.059,41.7,90,-3.8,0,2018,5,11,13,21,37.474,0.6159,-0.7505,-0.0076,-0.2392
0.025,0.13,0,46.4,96,2.2,0,2018,5,11,13,21,37.491,0.6273,-0.7428,-0.0164,-0.2332
0.016,-0.001,0.027,49.4,106.6,4.1,0,2018,5,11,13,21,37.512,0.6395,-0.7339,-0.0263,-0.2271
-0.012,-0.17,-0.058,56.3,152.8,4.2,0,2018,5,11,13,21,37.533,0.6547,-0.722,-0.0375,-0.2201
-0.026,-0.195,-0.096,69,229.8,1,0,2018,5,11,13,21,37.57,0.6773,-0.7029,-0.0521,-0.2107
-0.053,0.053,0.029,74.5,261.5,-2.4,0,2018,5,11,13,21,37.591,0.7061,-0.6757,-0.0701,-0.1992
-0.078,0.054,0.21,64.5,237.1,-9.7,0,2018,5,11,13,21,37.595,0.7341,-0.6468,-0.0868,-0.1871
-0.084,-0.251,0.164,49.3,219.7,-18.9,0,2018,5,11,13,21,37.614,0.7585,-0.6195,-0.0996,-0.1754
-0.103,-0.07,0.078,29.2,214.3,-29.9,0,2018,5,11,13,21,37.633,0.7818,-0.5916,-0.1088,-0.1639
0.137,0.245,0.348,-14.3,28.3,-25,0,2018,5,11,13,21,37.673,0.8095,-0.5566,-0.1135,-0.1478
0.067,0,0.348,-32.4,17.5,-27.5,0,2018,5,11,13,21,37.694,0.8132,-0.5527,-0.1084,-0.1462
0.164,0.167,0.13,-42.4,-28.3,-33.9,1023,2018,5,11,13,21,37.698,0.8144,-0.5528,-0.0997,-0.1454
0.182,0.304,0.043,-40.6,-69.9,-22.1,1023,2018,5,11,13,21,37.714,0.8112,-0.5589,-0.0899,-0.1462
0.188,0.399,-0.029,-37.2,-128.3,-11.2,1023,2018,5,11,13,21,37.733,0.8024,-0.572,-0.0803,-0.1492
0.169,0.565,0.024,-39,-213.9,-4.7,1023,2018,5,11,13,21,37.753,0.7863,-0.594,-0.0702,-0.1541
0.154,0.011,-0.303,-37.6,-278.7,2.1,1023,2018,5,11,13,21,37.794,0.7591,-0.6279,-0.0577,-0.1611
0.159,-0.172,-0.391,-20.4,-216.2,5.9,1023,2018,5,11,13,21,37.814,0.7314,-0.6594,-0.0472,-0.1671
0.178,-0.212,-0.306,-1.8,-116.3,13.3,1023,2018,5,11,13,21,37.818,0.7121,-0.6796,-0.0422,-0.1709
0.183,-0.153,-0.188,13.3,-13.9,17,1023,2018,5,11,13,21,37.836,0.7043,-0.6872,-0.0429,-0.1724
0.149,0.116,-0.099,23,51.4,28.4,1023,2018,5,11,13,21,37.857,0.7064,-0.6846,-0.0487,-0.1727
0.092,0.175,-0.105,32.5,82.9,44.3,1023,2018,5,11,13,21,37.896,0.7128,-0.677,-0.0585,-0.1731
-0.023,-0.058,-0.119,47,112.9,53.9,1023,2018,5,11,13,21,37.915,0.721,-0.6669,-0.0723,-0.1734
-0.133,-0.059,0.019,58.4,164.7,57.6,1023,2018,5,11,13,21,37.919,0.734,-0.6505,-0.0903,-0.1726
-0.206,0.04,0.143,58.7,168.7,44.9,0,2018,5,11,13,21,37.939,0.7505,-0.629,-0.1093,-0.17
-0.19,-0.178,0.059,56.6,129.5,15,0,2018,5,11,13,21,37.958,0.7647,-0.6101,-0.1248,-0.165
-0.13,-0.311,0.031,59,100.8,-10,0,2018,5,11,13,21,37.977,0.7753,-0.5964,-0.1364,-0.1566
-0.144,-0.126,0.506,30.1,29.8,-28.8,0,2018,5,11,13,21,37.997,0.7814,-0.5894,-0.1419,-0.1473
-0.15,-0.132,0.514,-5.7,34,-33.3,0,2018,5,11,13,21,38.016,0.7854,-0.5857,-0.1414,-0.1411
-0.012,-0.027,0.311,-35.2,16.9,-38.5,0,2018,5,11,13,21,38.036,0.79,-0.5818,-0.1352,-0.1378
0.168,0.107,0.058,-40.3,-18.6,-42.9,0,2018,5,11,13,21,38.074,0.792,-0.5817,-0.1256,-0.136
0.206,0.094,0.054,-34,-30.2,-33.9,0,2018,5,11,13,21,38.094,0.7909,-0.5855,-0.1157,-0.135
0.153,0.289,0.199,-35.7,-40.7,-23.2,0,2018,5,11,13,21,38.098,0.7893,-0.5891,-0.1076,-0.1349
0.227,0.24,0.038,-40.2,-69.2,-14,0,2018,5,11,13,21,38.117,0.7848,-0.596,-0.0992,-0.1373
0.181,0.283,-0.062,-41.1,-105.1,-3.5,0,2018,5,11,13,21,38.137,0.777,-0.6065,-0.0905,-0.1415
0.187,0.231,-0.219,-35.7,-141.1,4.4,0,2018,5,11,13,21,38.175,0.7644,-0.6222,-0.0819,-0.1473
0.199,0.103,-0.332,-24,-148.1,8.7,0,2018,5,11,13,21,38.196,0.7488,-0.6403,-0.075,-0.1534
0.213,0.016,-0.337,-12,-144.5,10.8,0,2018,5,11,13,21,38.2,0.7321,-0.6587,-0.0698,-0.1585
0.208,-0.224,-0.291,4.2,-83.3,14.4,0,2018,5,11,13,21,38.217,0.7184,-0.673,-0.0677,-0.1618
0.206,-0.344,-0.311,24.2,29.5,21.4,0,2018,5,11,13,21,38.253,0.7147,-0.6764,-0.0708,-0.1626
0.128,-0.189,-0.236,44.7,124.3,26.4,0,2018,5,11,13,21,38.274,0.7237,-0.6662,-0.0806,-0.1604
-0.06,0.115,0.088,48.7,159.7,36.7,0,2018,5,11,13,21,38.279,0.7388,-0.6485,-0.0945,-0.1566
-0.17,0.023,0.256,44.6,130.2,23.3,0,2018,5,11,13,21,38.299,0.7538,-0.6296,-0.1085,-0.153
-0.111,-0.043,0.255,30.9,53.9,-2.1,0,2018,5,11,13,21,38.32,0.7628,-0.6183,-0.1168,-0.1482
-0.086,-0.039,0.187,15.4,8.2,-8.5,0,2018,5,11,13,21,38.357,0.7655,-0.6154,-0.1198,-0.1444
-0.055,-0.383,0.233,0,34.2,-19.9,0,2018,5,11,13,21,38.379,0.7678,-0.6131,-0.1199,-0.1415
0.058,0.2,0.215,-8.6,57.9,-24,0,2018,5,11,13,21,38.384,0.775,-0.6053,-0.1183,-0.1374
0.088,0.183,0.128,-17.2,0.3,-19.4,0,2018,5,11,13,21,38.402,0.7787,-0.6017,-0.1149,-0.1354
0.093,0.214,0.065,-19.2,-45.2,-13.2,0,2018,5,11,13,21,38.416,0.777,-0.6047,-0.11,-0.1355
0.133,-0.02,-0.06,-11.9,-30,-3.5,0,2018,5,11,13,21,38.454,0.7729,-0.6106,-0.1053,-0.1363
0.116,0.067,0.015,-4.9,11.5,6,0,2018,5,11,13,21,38.474,0.7724,-0.6115,-0.1034,-0.1367
0.109,0.074,0.023,2.4,41.8,10.4,0,2018,5,11,13,21,38.478,0.7753,-0.6076,-0.104,-0.1367
0.112,0.067,0.032,4.2,21.4,10,0,2018,5,11,13,21,38.5,0.7791,-0.6024,-0.1059,-0.1367
0.111,0.076,0.018,5.3,14.7,19,1023,2018,5,11,13,21,38.519,0.7808,-0.5997,-0.1076,-0.1374
0.087,0.068,0.021,6.9,-4.8,20.5,1023,2018,5,11,13,21,38.558,0.7813,-0.5982,-0.1104,-0.1389
0.053,-0.049,0.09,1.8,-36.2,20,1023,2018,5,11,13,21,38.578,0.7787,-0.6008,-0.112,-0.1413
0.056,-0.126,0.092,0.1,-18.7,15.2,1023,2018,5,11,13,21,38.582,0.7757,-0.604,-0.1127,-0.1436
0.036,-0.011,0.136,-3.9,-12,11.5,1023,2018,5,11,13,21,38.602,0.7746,-0.6049,-0.1131,-0.1454
0.01,0.175,0.177,-12.7,-46.5,10.2,1023,2018,5,11,13,21,38.62,0.7719,-0.6078,-0.1125,-0.1482
-0.02,0.339,0.144,-25.9,-124,12.4,1023,2018,5,11,13,21,38.658,0.7631,-0.6181,-0.1089,-0.1533
-0.039,0.167,0.064,-37.5,-169.4,19.4,1023,2018,5,11,13,21,38.679,0.7469,-0.6367,-0.1023,-0.1618
-0.074,0.061,0.126,-51.2,-181.4,20.8,1023,2018,5,11,13,21,38.683,0.7275,-0.6573,-0.0939,-0.1723
-0.079,-0.015,0.132,-67.8,-169.3,20.1,1023,2018,5,11,13,21,38.7,0.7076,-0.6769,-0.0833,-0.1846
-0.039,0.042,0.068,-81,-159.8,16.3,1023,2018,5,11,13,21,38.738,0.6892,-0.6932,-0.0713,-0.1981
-0.015,0.019,0.054,-90.4,-173.6,10.8,1023,2018,5,11,13,21,38.758,0.6698,-0.7091,-0.0572,-0.2124
0.015,-0.015,-0.023,-96.8,-188.7,6.3,0,2018,5,11,13,21,38.763,0.6476,-0.7263,-0.0405,-0.2267
0.036,-0.17,-0.091,-91.3,-158.7,2.7,0,2018,5,11,13,21,38.781,0.625,-0.7425,-0.023,-0.2396
0.061,-0.112,-0.107,-79.6,-119.2,-1,0,2018,5,11,13,21,38.821,0.6071,-0.7539,-0.0078,-0.2506
0.08,-0.075,-0.114,-66.8,-92.3,-5.3,0,2018,5,11,13,21,38.84,0.5936,-0.7616,0.0049,-0.2598
0.116,-0.099,-0.146,-52.1,-62.3,-6,0,2018,5,11,13,21,38.845,0.5835,-0.7668,0.0153,-0.2669
0.126,-0.089,-0.165,-37.3,-24.5,-3.8,0,2018,5,11,13,21,38.864,0.578,-0.7689,0.0224,-0.2721
0.141,-0.054,-0.18,-23.2,7.4,0.3,0,2018,5,11,13,21,38.885,0.5771,-0.7681,0.0259,-0.2759
0.125,0,-0.188,-11.9,19.6,2.7,0,2018,5,11,13,21,38.904,0.5791,-0.7656,0.0266,-0.2785
0.12,-0.012,-0.198,-2.8,12.3,2.8,0,2018,5,11,13,21,38.924,0.5813,-0.7636,0.0261,-0.2797
0.117,-0.039,-0.179,3.9,6.2,2.7,0,2018,5,11,13,21,38.942,0.5825,-0.7626,0.0252,-0.2799
0.114,-0.085,-0.164,9,11.3,0.5,0,2018,5,11,13,21,38.98,0.5835,-0.7621,0.0239,-0.2791
0.114,-0.061,-0.14,12.2,21.8,-1.9,0,2018,5,11,13,21,39,0.5859,-0.7609,0.022,-0.2777
0.11,-0.03,-0.121,13.4,24.1,-4.1,0,2018,5,11,13,21,39.005,0.589,-0.7592,0.02,-0.2758
0.102,-0.016,-0.111,14.5,16.7,-5.7,0,2018,5,11,13,21,39.024,0.5921,-0.7577,0.0182,-0.2735
0.097,-0.06,-0.132,18.2,13.2,-8,0,2018,5,11,13,21,39.043,0.5944,-0.7569,0.0168,-0.2707
0.095,-0.119,-0.157,25.8,31.4,-10.5,0,2018,5,11,13,21,39.082,0.5975,-0.7559,0.0148,-0.2669
0.103,-0.091,-0.151,35.6,65.3,-12.8,0,2018,5,11,13,21,39.101,0.6046,-0.7521,0.0108,-0.2617
0.093,-0.01,-0.113,43.6,89,-13.1,0,2018,5,11,13,21,39.105,0.6156,-0.7455,0.0047,-0.2552
0.087,0.044,-0.073,48.9,88.7,-12.3,0,2018,5,11,13,21,39.122,0.6275,-0.7381,-0.0024,-0.2475
0.092,-0.013,-0.093,54.7,87.6,-11.8,0,2018,5,11,13,21,39.159,0.6385,-0.7314,-0.0099,-0.239
0.09,-0.049,-0.102,64.1,113.4,-8.8,0,2018,5,11,13,21,39.179,0.6512,-0.7228,-0.0194,-0.2301
0.079,0.047,-0.006,70.5,134.9,-6.9,0,2018,5,11,13,21,39.183,0.6664,-0.7117,-0.0308,-0.2198
0.038,0.088,0.084,71.1,125,-5.9,0,2018,5,11,13,21,39.222,0.6824,-0.6989,-0.0432,-0.2093
0.029,-0.057,0.048,71.6,128.6,-4.3,0,2018,5,11,13,21,39.242,0.6971,-0.6865,-0.0554,-0.199
0.004,-0.074,0.036,72.2,151.6,-5,0,2018,5,11,13,21,39.246,0.7131,-0.6718,-0.0682,-0.1881
-0.066,-0.036,0.168,66,162.9,-7.4,0,2018,5,11,13,21,39.266,0.7309,-0.6538,-0.0815,-0.1773
-0.085,0.038,0.299,48.9,151.3,-14.3,0,2018,5,11,13,21,39.286,0.7483,-0.6352,-0.0925,-0.1669
-0.084,-0.11,0.257,28.6,115.6,-24,0,2018,5,11,13,21,39.323,0.7627,-0.6191,-0.0992,-0.158
-0.054,0.004,0.121,9.6,81.9,-33.5,0,2018,5,11,13,21,39.344,0.7738,-0.6068,-0.1012,-0.1503
0,0.383,0.218,-4.8,39.3,-31,1023,2018,5,11,13,21,39.348,0.7819,-0.598,-0.1006,-0.1443
0,0,0.426,-28.7,8.3,-24.5,1023,2018,5,11,13,21,39.364,0.7847,-0.5956,-0.0958,-0.1424
0.064,0.266,0.272,-45.9,-23.2,-30.5,1023,2018,5,11,13,21,39.401,0.7861,-0.5948,-0.0876,-0.1425
0.13,0.133,0.004,-50.8,-92.1,-26.4,1023,2018,5,11,13,21,39.421,0.7809,-0.6029,-0.0756,-0.1446
0.094,0.3,-0.024,-45.2,-138.3,-17.1,1023,2018,5,11,13,21,39.426,0.7704,-0.6168,-0.0635,-0.1477
0.116,0.231,-0.148,-35.6,-168,-8.9,1023,2018,5,11,13,21,39.446,0.754,-0.6368,-0.0527,-0.1519
0.084,0.152,-0.1,-31.5,-184.8,-2.4,1023,2018,5,11,13,21,39.466,0.7337,-0.6598,-0.0428,-0.156
0.139,0.037,-0.239,-23.8,-161.7,3.6,1023,2018,5,11,13,21,39.503,0.7131,-0.6815,-0.0344,-0.1604
0.208,-0.2,-0.352,0.3,-72,10.2,1023,2018,5,11,13,21,39.525,0.6988,-0.6956,-0.0305,-0.1634
0.203,-0.059,-0.257,27.6,28.4,17.7,1023,2018,5,11,13,21,39.529,0.6964,-0.6979,-0.0336,-0.1633
0.142,0.047,-0.072,41.7,84.5,26.8,1023,2018,5,11,13,21,39.549,0.7029,-0.6913,-0.0425,-0.1613
0.062,0.082,0.02,43.1,99.3,36.2,1023,2018,5,11,13,21,39.568,0.7128,-0.6809,-0.0538,-0.1588
0.012,-0.032,-0.024,44.7,102.9,41.8,0,2018,5,11,13,21,39.587,0.7229,-0.6694,-0.0666,-0.1573
-0.054,-0.114,0.001,50.1,128.8,45.8,0,2018,5,11,13,21,39.626,0.7338,-0.6561,-0.081,-0.1559
-0.088,0.048,0.108,50.6,136.8,37.8,0,2018,5,11,13,21,39.648,0.7472,-0.6392,-0.0964,-0.1537
-0.131,0.054,0.117,47,92.1,15.4,0,2018,5,11,13,21,39.652,0.7586,-0.6244,-0.1092,-0.1499
-0.128,-0.229,0.282,35.5,35.1,-12.2,0,2018,5,11,13,21,39.668,0.7649,-0.6166,-0.117,-0.1445
-0.084,-0.295,0.399,7.3,17.3,-18.2,0,2018,5,11,13,21,39.705,0.7669,-0.615,-0.1183,-0.1396
-0.041,-0.074,0.339,-17.6,30,-19.6,0,2018,5,11,13,21,39.725,0.7708,-0.6111,-0.1162,-0.1371
0.031,-0.014,0.192,-30.7,7.2,-21,0,2018,5,11,13,21,39.729,0.774,-0.6081,-0.1111,-0.1367
0.116,0.024,0.088,-30.6,-10.8,-25.3,0,2018,5,11,13,21,39.75,0.775,-0.6079,-0.1044,-0.1368
0.126,0.084,0.118,-28.9,-9.7,-21.4,0,2018,5,11,13,21,39.769,0.775,-0.609,-0.0977,-0.1367
0.153,0.147,0.096,-35.1,-10.6,-11,0,2018,5,11,13,21,39.809,0.7751,-0.6095,-0.0913,-0.1383
0.155,0.236,0.053,-40.9,-36.6,-3.9,0,2018,5,11,13,21,39.813,0.7738,-0.6115,-0.0848,-0.1417
0.168,0.242,-0.064,-40.3,-78.1,1.4,0,2018,5,11,13,21,39.828,0.7682,-0.6183,-0.0772,-0.1462
0.167,0.2,-0.191,-34,-115.7,6.9,0,2018,5,11,13,21,39.849,0.7576,-0.6309,-0.0696,-0.1517
0.182,0.105,-0.249,-20.3,-116.5,11,0,2018,5,11,13,21,39.867,0.7449,-0.645,-0.0641,-0.1571
0.148,-0.033,-0.257,-8,-104.5,11.3,0,2018,5,11,13,21,39.907,0.7321,-0.6589,-0.0605,-0.1614
0.146,-0.239,-0.285,4.5,-52.5,12.4,0,2018,5,11,13,21,39.926,0.7222,-0.6693,-0.0593,-0.164
0.167,-0.351,-0.263,20.7,57.1,15,0,2018,5,11,13,21,39.93,0.7219,-0.6692,-0.0626,-0.1641
0.161,-0.065,-0.161,37.3,145.8,22.2,0,2018,5,11,13,21,39.949,0.7338,-0.6558,-0.0716,-0.1617
0.065,0.164,0,44.1,181.7,33.8,0,2018,5,11,13,21,39.988,0.7511,-0.6352,-0.0847,-0.1581
-0.037,0.072,0.099,45,183.7,33.2,0,2018,5,11,13,21,40.008,0.7698,-0.611,-0.0997,-0.1549
-0.114,0.036,0.141,41.4,156.8,21.9,0,2018,5,11,13,21,40.013,0.7864,-0.5881,-0.1131,-0.1509
-0.071,0.059,0.073,35,100.6,6.9,0,2018,5,11,13,21,40.032,0.7983,-0.5709,-0.1232,-0.1465
-0.074,0.146,0.288,18.6,-3.2,-10.3,0,2018,5,11,13,21,40.05,0.8027,-0.5648,-0.1281,-0.1421
0.012,-0.042,0.309,1.3,-20.6,-10.3,0,2018,5,11,13,21,40.071,0.8006,-0.5682,-0.1278,-0.1403
0.039,-0.05,0.201,-10.9,-6.3,-8.3,0,2018,5,11,13,21,40.089,0.8001,-0.5695,-0.1258,-0.1399
0.09,-0.011,0.09,-11.1,6.8,-7.7,0,2018,5,11,13,21,40.126,0.8011,-0.5686,-0.1235,-0.1399
0.105,0.05,0.066,-6.1,2.3,-3.7,0,2018,5,11,13,21,40.148,0.8021,-0.5676,-0.1216,-0.1397
0.097,0.066,0.107,-3.1,-3.7,2.2,0,2018,5,11,13,21,40.152,0.8025,-0.5671,-0.121,-0.1399
0.095,0.059,0.129,-4.3,-11.5,6,0,2018,5,11,13,21,40.171,0.8019,-0.5677,-0.1209,-0.1409
0.093,0.067,0.1,-7.4,-26.5,7.3,0,2018,5,11,13,21,40.191,0.8001,-0.5699,-0.1203,-0.1429
0.059,0.091,0.093,-11.6,-48.3,7.8,1023,2018,5,11,13,21,40.229,0.7967,-0.5743,-0.1187,-0.1456
0.027,0.18,0.103,-18.4,-87.3,8.7,1023,2018,5,11,13,21,40.251,0.7907,-0.5821,-0.1158,-0.1495
-0.034,0.246,0.138,-35.6,-151,9.2,1023,2018,5,11,13,21,40.255,0.7787,-0.5976,-0.1099,-0.1558
-0.03,0.12,0.065,-54,-184,10.2,1023,2018,5,11,13,21,40.273,0.7612,-0.6189,-0.1001,-0.1652
-0.003,0.195,0.035,-69.8,-214.3,11.6,1023,2018,5,11,13,21,40.293,0.7404,-0.6424,-0.0876,-0.177
0.009,0.044,0.056,-79.8,-218,12.7,1023,2018,5,11,13,21,40.328,0.716,-0.6675,-0.0727,-0.1905
-0.01,0.038,0.094,-89,-205.2,10.1,1023,2018,5,11,13,21,40.347,0.6923,-0.6896,-0.0566,-0.2044
-0.034,-0.04,0.103,-98.4,-199.5,6.7,1023,2018,5,11,13,21,40.351,0.6686,-0.7095,-0.0392,-0.2189
-0.027,-0.036,0.029,-104.6,-197.5,1.9,1023,2018,5,11,13,21,40.371,0.6445,-0.7277,-0.0204,-0.2334
0.041,-0.145,-0.139,-98.7,-183.8,-1.7,1023,2018,5,11,13,21,40.389,0.6194,-0.7452,-0.0009,-0.2469
0.105,-0.203,-0.132,-79.8,-116.3,-4,1023,2018,5,11,13,21,40.431,0.5998,-0.7571,0.0155,-0.2579
0.145,-0.11,-0.085,-60.9,-36,-1.7,1023,2018,5,11,13,21,40.452,0.5901,-0.7615,0.0266,-0.2665
0.125,-0.003,-0.116,-43.2,11.9,3.5,1023,2018,5,11,13,21,40.456,0.5891,-0.7596,0.032,-0.2734
0.133,0.059,-0.194,-28.5,11.2,7.2,0,2018,5,11,13,21,40.475,0.5907,-0.7564,0.0341,-0.2787
0.144,0.041,-0.272,-16.8,-20.4,9.9,0,2018,5,11,13,21,40.496,0.5894,-0.7559,0.0355,-0.2825
0.164,-0.072,-0.297,-6.2,-31,10.5,0,2018,5,11,13,21,40.514,0.585,-0.7583,0.0367,-0.2849
0.183,-0.123,-0.268,3.4,-3.7,8.3,0,2018,5,11,13,21,40.552,0.5822,-0.7602,0.0364,-0.2858
0.172,-0.073,-0.213,9.7,21.3,4.1,0,2018,5,11,13,21,40.573,0.5836,-0.7593,0.0343,-0.2855
0.146,-0.038,-0.142,13.6,27.5,1.7,0,2018,5,11,13,21,40.577,0.5871,-0.7571,0.0314,-0.2843
0.112,-0.039,-0.058,14.2,14.9,0.2,0,2018,5,11,13,21,40.592,0.5899,-0.7557,0.0287,-0.2827
0.09,-0.047,-0.024,13.3,3.6,-1.1,0,2018,5,11,13,21,40.63,0.5908,-0.7561,0.0276,-0.28
0.077,-0.072,-0.008,12.8,3.3,-2.4,0,2018,5,11,13,21,40.652,0.5912,-0.7567,0.0268,-0.2774
0.067,-0.065,0.005,12.8,10.1,-3.3,0,2018,5,11,13,21,40.656,0.5919,-0.7571,0.0261,-0.275
0.065,-0.043,0.033,12.2,17,-3.7,0,2018,5,11,13,21,40.674,0.594,-0.7564,0.025,-0.2726
0.056,-0.017,0.038,10.5,18.5,-3.8,0,2018,5,11,13,21,40.693,0.5967,-0.755,0.0237,-0.2704
0.056,0.002,0.045,9.2,15.1,-3.2,0,2018,5,11,13,21,40.731,0.5992,-0.7538,0.0226,-0.2686
0.053,-0.002,0.041,8.1,9.3,-3,0,2018,5,11,13,21,40.75,0.6008,-0.753,0.0218,-0.267
0.055,-0.002,0.043,7.8,6.4,-2.7,0,2018,5,11,13,21,40.754,0.602,-0.7527,0.0212,-0.2655
0.06,-0.016,0.035,8.3,8.4,-2.4,0,2018,5,11,13,21,40.795,0.6031,-0.7523,0.0207,-0.2639
0.06,-0.016,0.021,9.2,14.3,-1.4,0,2018,5,11,13,21,40.799,0.6046,-0.7517,0.0198,-0.2623
0.055,-0.015,0.014,9.6,20.3,-1.3,0,2018,5,11,13,21,40.815,0.607,-0.7504,0.0185,-0.2606
0.05,-0.006,0.014,9.3,21.7,-0.5,0,2018,5,11,13,21,40.833,0.6098,-0.7488,0.0169,-0.2589
0.045,-0.01,-0.001,7.9,18.9,-0.6,0,2018,5,11,13,21,40.87,0.6122,-0.7473,0.0154,-0.2576
0.061,-0.008,-0.029,8.4,12.8,-0.1,0,2018,5,11,13,21,40.89,0.6139,-0.7464,0.0142,-0.2562
0.069,-0.067,-0.034,11.4,14.5,0,0,2018,5,11,13,21,40.895,0.6154,-0.7459,0.013,-0.2543
0.066,-0.083,-0.04,14.6,24.5,-0.2,0,2018,5,11,13,21,40.932,0.6178,-0.7447,0.0112,-0.2519
0.054,-0.096,-0.037,18.7,39.3,-0.7,0,2018,5,11,13,21,40.953,0.6218,-0.7424,0.0086,-0.2491
0.047,-0.087,-0.036,22,49.4,-1.6,0,2018,5,11,13,21,40.957,0.6275,-0.7387,0.0049,-0.2457
0.049,-0.062,-0.011,23.4,50.2,-3.2,0,2018,5,11,13,21,40.997,0.6339,-0.7345,0.001,-0.242
0.062,-0.056,0,22.2,43.4,-5.1,0,2018,5,11,13,21,41.001,0.6399,-0.7305,-0.0024,-0.2382
0.071,-0.063,-0.022,21.7,36.9,-6.6,0,2018,5,11,13,21,41.018,0.6451,-0.7272,-0.0053,-0.2341
0.07,-0.1,-0.041,23.7,37.6,-8,1023,2018,5,11,13,21,41.035,0.6495,-0.7246,-0.0078,-0.2298
0.067,-0.107,-0.025,26.7,46.4,-10.7,1023,2018,5,11,13,21,41.055,0.655,-0.7212,-0.0106,-0.2247
0.065,-0.087,0.004,28.6,51.9,-13.9,1023,2018,5,11,13,21,41.074,0.6616,-0.7169,-0.0136,-0.2192
0.068,-0.077,0.029,30.3,48.6,-16.7,1023,2018,5,11,13,21,41.096,0.6686,-0.7121,-0.0165,-0.2129
0.074,-0.124,0.034,32.9,50,-18,1023,2018,5,11,13,21,41.115,0.6753,-0.7077,-0.0191,-0.2063
0.069,-0.144,0.038,36.5,60.2,-19.7,1023,2018,5,11,13,21,41.154,0.683,-0.7024,-0.0222,-0.1988
0.065,-0.129,0.039,39.3,69.2,-22.7,1023,2018,5,11,13,21,41.175,0.6917,-0.6959,-0.0257,-0.1908
0.116,-0.118,0.039,43.9,73.4,-24.1,1023,2018,5,11,13,21,41.179,0.701,-0.6888,-0.0295,-0.182
0.151,-0.164,0.045,51.5,81.4,-22.8,1023,2018,5,11,13,21,41.199,0.7108,-0.6809,-0.0345,-0.1726
0.115,-0.223,0.056,59.3,100.8,-21.7,0,2018,5,11,13,21,41.22,0.7218,-0.6713,-0.0415,-0.1625
0.092,-0.237,0.087,63.9,129,-22.2,0,2018,5,11,13,21,41.241,0.7354,-0.6586,-0.049,-0.151
0.102,-0.205,0.097,65.2,149.7,-24.2,0,2018,5,11,13,21,41.262,0.7514,-0.6422,-0.0583,-0.1393
0.096,-0.219,0.08,66.3,166.8,-25,0,2018,5,11,13,21,41.281,0.7686,-0.6233,-0.0677,-0.1268
0.061,-0.18,0.066,66.2,179.4,-26.3,0,2018,5,11,13,21,41.298,0.7869,-0.6016,-0.0767,-0.1134
0.038,-0.125,0.039,64.5,179.8,-28,0,2018,5,11,13,21,41.338,0.8049,-0.5785,-0.0857,-0.1
0.025,-0.106,0.011,63.3,171.5,-28.2,0,2018,5,11,13,21,41.343,0.8214,-0.5556,-0.0944,-0.0866
0.016,-0.097,0.01,61.9,164.2,-28.8,0,2018,5,11,13,21,41.358,0.8363,-0.5334,-0.1028,-0.0734
0.001,-0.089,0.003,57.9,157.5,-30.3,0,2018,5,11,13,21,41.379,0.8498,-0.5118,-0.1105,-0.0605
0.016,-0.078,-0.033,54.1,152.8,-31,0,2018,5,11,13,21,41.398,0.8621,-0.4904,-0.1175,-0.0478
0.05,-0.056,-0.06,52.8,152.3,-31.1,0,2018,5,11,13,21,41.437,0.8737,-0.4691,-0.1238,-0.035
0.016,-0.033,-0.024,48.3,151.1,-31.7,0,2018,5,11,13,21,41.456,0.8846,-0.4472,-0.1296,-0.0224
-0.016,0.017,-0.014,37.9,135.9,-31.1,0,2018,5,11,13,21,41.461,0.8946,-0.4259,-0.1343,-0.0109
0,0.033,-0.024,28.1,115.4,-29.5,0,2018,5,11,13,21,41.481,0.903,-0.4068,-0.1375,-0.0007
0.026,-0.005,-0.037,23.7,104.8,-26.3,0,2018,5,11,13,21,41.501,0.9099,-0.3904,-0.1395,0.0081
0.02,-0.039,-0.033,20.4,110.4,-24.3,0,2018,5,11,13,21,41.517,0.9163,-0.3743,-0.141,0.0165
-0.024,0.019,0.005,13.4,114.5,-23.6,0,2018,5,11,13,21,41.539,0.923,-0.3566,-0.142,0.0244
-0.003,0.071,0.011,4.4,106.3,-20.8,0,2018,5,11,13,21,41.558,0.9296,-0.3385,-0.1417,0.0314
0.001,0.064,-0.025,-3.1,98.7,-16.9,0,2018,5,11,13,21,41.597,0.9356,-0.3217,-0.1402,0.037
0.028,0.044,-0.113,-4.3,96.7,-9.8,0,2018,5,11,13,21,41.617,0.941,-0.306,-0.1381,0.0414
0.035,-0.019,-0.155,3.6,113.7,-0.1,0,2018,5,11,13,21,41.621,0.9461,-0.2897,-0.1371,0.0449
0.011,0.001,-0.145,9.3,137.5,7.1,0,2018,5,11,13,21,41.641,0.9518,-0.2696,-0.1376,0.0478
-0.011,0.076,-0.13,11,147.5,12,0,2018,5,11,13,21,41.663,0.958,-0.2455,-0.139,0.0501
0.006,0.079,-0.129,11.9,146.6,15.5,0,2018,5,11,13,21,41.68,0.9638,-0.2201,-0.1407,0.0518
0.026,0.087,-0.126,8.3,142.1,16.3,0,2018,5,11,13,21,41.701,0.9689,-0.1952,-0.142,0.0531
0.044,0.08,-0.131,1.6,130.1,16.9,0,2018,5,11,13,21,41.719,0.9734,-0.1713,-0.1421,0.0538
0.04,0.095,-0.158,-7.8,116.5,13.6,0,2018,5,11,13,21,41.739,0.9771,-0.1498,-0.1408,0.0542
0.054,0.158,-0.219,-17.9,86.5,9,0,2018,5,11,13,21,41.777,0.9801,-0.1315,-0.1379,0.0543
0.09,0.141,-0.238,-25.3,51,4.1,1023,2018,5,11,13,21,41.797,0.9823,-0.1191,-0.1334,0.0543
0.111,0.09,-0.235,-30.2,26.7,-2,1023,2018,5,11,13,21,41.801,0.9838,-0.1126,-0.1277,0.0544
0.134,0.086,-0.244,-32.7,13.7,-8.2,1023,2018,5,11,13,21,41.82,0.985,-0.1097,-0.1211,0.0552
0.135,0.093,-0.244,-34.1,2.5,-14.1,1023,2018,5,11,13,21,41.841,0.9858,-0.1088,-0.1139,0.0568
0.125,0.159,-0.269,-35.8,-19.8,-18.1,1023,2018,5,11,13,21,41.881,0.9863,-0.1106,-0.1069,0.0589
0.124,0.165,-0.294,-34,-48.7,-18.9,1023,2018,5,11,13,21,41.902,0.986,-0.1173,-0.1008,0.0608
0.11,0.084,-0.271,-29,-64.3,-19.6,1023,2018,5,11,13,21,41.907,0.9852,-0.1279,-0.0949,0.0625
0.072,0.052,-0.201,-26.2,-67.3,-22.7,1023,2018,5,11,13,21,41.926,0.9838,-0.1404,-0.0897,0.0645
0.043,0.103,-0.161,-25.9,-70.1,-26,1023,2018,5,11,13,21,41.945,0.9822,-0.1528,-0.0851,0.0671
0.035,0.166,-0.154,-25.4,-88.4,-27.2,1023,2018,5,11,13,21,41.965,0.9803,-0.1661,-0.0807,0.0698
0.045,0.138,-0.14,-23.6,-110.2,-28,1023,2018,5,11,13,21,42.004,0.9774,-0.183,-0.0766,0.0724
0.055,0.093,-0.135,-18.6,-118.8,-30.2,0,2018,5,11,13,21,42.008,0.9735,-0.2031,-0.073,0.0752
0.076,0.068,-0.105,-9.8,-111.8,-32.2,0,2018,5,11,13,21,42.024,0.9689,-0.2234,-0.0704,0.0787
0.102,0.088,-0.037,-0.9,-99.9,-33.9,0,2018,5,11,13,21,42.042,0.9643,-0.2415,-0.0688,0.083
0.074,0.141,0.003,3,-93.5,-33,0,2018,5,11,13,21,42.064,0.9596,-0.258,-0.0691,0.0876
0.062,0.179,0.001,3.6,-97.8,-27.8,0,2018,5,11,13,21,42.083,0.9547,-0.274,-0.0697,0.0918
0.077,0.154,-0.016,7,-103.2,-19.7,0,2018,5,11,13,21,42.103,0.9493,-0.2908,-0.0712,0.0949
0.109,0.064,0.011,14.7,-92,-10.9,0,2018,5,11,13,21,42.141,0.9438,-0.3071,-0.0739,0.0967
0.089,0.03,0.087,20.9,-69.3,-4.5,0,2018,5,11,13,21,42.176,0.939,-0.3201,-0.0778,0.0979
0.042,0.068,0.095,22.5,-53,-0.3,0,2018,5,11,13,21,42.179,0.9356,-0.3289,-0.0816,0.0989
0.026,0.089,0.071,22.5,-52.7,2.1,0,2018,5,11,13,21,42.184,0.9326,-0.3359,-0.0858,0.0995
0.011,0.088,0.068,22.5,-58,3.8,0,2018,5,11,13,21,42.201,0.9294,-0.3435,-0.0902,0.0996
0.001,0.036,0.078,22.3,-59,4.2,0,2018,5,11,13,21,42.222,0.9259,-0.3517,-0.0949,0.0994
0.003,0.041,0.081,20.9,-54.1,4.6,0,2018,5,11,13,21,42.26,0.9224,-0.3595,-0.0996,0.0992
0.001,0.07,0.088,18.2,-52.7,4.7,0,2018,5,11,13,21,42.281,0.9192,-0.3664,-0.104,0.099
-0.006,0.109,0.085,13.9,-61.1,4.9,0,2018,5,11,13,21,42.286,0.9158,-0.3739,-0.1077,0.0983
-0.007,0.106,0.057,9.2,-75,6.5,0,2018,5,11,13,21,42.305,0.9117,-0.3833,-0.1109,0.0969
0,0.107,0.021,5.2,-87.5,10.5,0,2018,5,11,13,21,42.327,0.9066,-0.3951,-0.114,0.0944
0.03,0.044,0.011,4.2,-90.7,16.4,0,2018,5,11,13,21,42.346,0.9006,-0.4085,-0.1169,0.0908
0.007,-0.018,0.02,4.2,-76.7,20,0,2018,5,11,13,21,42.365,0.8948,-0.421,-0.1201,0.0867
-0.017,0.01,0.021,2.7,-64.4,22.6,0,2018,5,11,13,21,42.403,0.89,-0.4309,-0.1234,0.0823
-0.03,0.052,-0.018,-0.1,-69.3,24,0,2018,5,11,13,21,42.425,0.8855,-0.4401,-0.1266,0.0773
0.043,0.067,-0.051,0.4,-83,27.4,0,2018,5,11,13,21,42.429,0.88,-0.4511,-0.1298,0.0716
0.06,-0.064,-0.011,5.8,-79.3,28.4,0,2018,5,11,13,21,42.444,0.8736,-0.4633,-0.1331,0.066
0.025,-0.128,0.025,9.3,-55.1,26.1,0,2018,5,11,13,21,42.464,0.868,-0.4732,-0.1369,0.0612
0.018,-0.069,0.023,10.1,-39.1,22.5,0,2018,5,11,13,21,42.483,0.8641,-0.4796,-0.1408,0.0575
0.051,0.013,-0.015,12.1,-35.4,18,0,2018,5,11,13,21,42.524,0.861,-0.4844,-0.1442,0.0548
0.097,0.049,-0.007,15,-48.9,16.2,0,2018,5,11,13,21,42.543,0.8574,-0.4901,-0.1476,0.0528
0.088,-0.007,0.03,17.8,-55.1,14.9,0,2018,5,11,13,21,42.548,0.8527,-0.4972,-0.1512,0.0511
0.043,-0.034,0.001,17.8,-44.4,15.5,1023,2018,5,11,13,21,42.567,0.8481,-0.5041,-0.1551,0.0495
0.023,-0.066,-0.086,20.5,-26.7,16.9,1023,2018,5,11,13,21,42.604,0.8441,-0.5095,-0.1594,0.048
0.037,-0.068,-0.096,26,-7.2,17.4,1023,2018,5,11,13,21,42.624,0.8416,-0.5121,-0.1645,0.0473
0.047,-0.044,-0.001,32.1,4,16.3,1023,2018,5,11,13,21,42.629,0.8405,-0.5119,-0.1701,0.0479
0.021,0,0.026,33.3,8.7,15.6,1023,2018,5,11,13,21,42.646,0.8405,-0.5099,-0.1762,0.049
-0.001,0.002,0.006,32.7,12.6,16.1,1023,2018,5,11,13,21,42.668,0.8405,-0.5076,-0.1822,0.05
-0.037,0.014,0.012,30.1,10,17.1,1023,2018,5,11,13,21,42.685,0.8409,-0.5047,-0.1884,0.0507
0.026,0.008,0.001,29.7,2.6,20.3,1023,2018,5,11,13,21,42.72,0.8408,-0.5025,-0.1945,0.0507
0.053,-0.041,-0.039,33.6,11.7,23.9,1023,2018,5,11,13,21,42.74,0.8403,-0.5008,-0.2008,0.0507
0.025,-0.154,-0.027,41.5,58.8,24.3,1023,2018,5,11,13,21,42.747,0.8419,-0.4952,-0.2079,0.052
-0.022,-0.103,0.001,46.2,108,23,1023,2018,5,11,13,21,42.784,0.8476,-0.4815,-0.2157,0.0558
-0.059,0.039,0.018,46.1,122.9,23.1,1023,2018,5,11,13,21,42.804,0.8559,-0.4622,-0.2236,0.0606
-0.094,-0.031,0.066,44.9,107.6,17.1,1023,2018,5,11,13,21,42.809,0.8636,-0.4429,-0.2313,0.0654
-0.12,-0.106,0.083,41,107.5,8.8,0,2018,5,11,13,21,42.829,0.87,-0.4258,-0.238,0.0708
-0.141,-0.181,0.067,36.5,126.2,0.3,0,2018,5,11,13,21,42.848,0.8768,-0.4074,-0.2432,0.0775
-0.135,-0.159,0.084,34,152.2,-9.8,0,2018,5,11,13,21,42.869,0.8846,-0.3858,-0.2468,0.0867
-0.103,0.027,0.1,30.1,157.1,-15.5,0,2018,5,11,13,21,42.909,0.8934,-0.3609,-0.249,0.0974
-0.055,0.145,0.115,25.4,131.4,-17.1,0,2018,5,11,13,21,42.929,0.9008,-0.3382,-0.2497,0.108
-0.062,0.026,0.075,21.7,115,-18.3,0,2018,5,11,13,21,42.933,0.9065,-0.319,-0.2501,0.1172
-0.07,-0.055,0.066,21.1,125.1,-21.4,0,2018,5,11,13,21,42.947,0.9116,-0.3003,-0.25,0.1267
-0.089,-0.03,0.083,16.1,127.5,-25.2,0,2018,5,11,13,21,42.982,0.9167,-0.2805,-0.2492,0.1368
-0.062,0.093,0.124,6.6,113.2,-29.2,0,2018,5,11,13,21,43.004,0.9215,-0.2611,-0.2468,0.1469
-0.021,0.216,0.2,-0.9,88.7,-29.7,0,2018,5,11,13,21,43.01,0.9252,-0.2454,-0.2433,0.1561
-0.059,0.335,0.337,-18.2,21,-26.4,0,2018,5,11,13,21,43.029,0.9271,-0.2382,-0.2391,0.1627
-0.07,0.155,0.233,-35.3,-38.3,-22.7,0,2018,5,11,13,21,43.067,0.927,-0.2419,-0.2341,0.165
-0.038,0.006,0.142,-48.3,-77.2,-21.9,0,2018,5,11,13,21,43.088,0.9255,-0.2538,-0.228,0.1642
0.004,-0.07,0.12,-54.2,-74.5,-18.6,0,2018,5,11,13,21,43.092,0.9235,-0.2685,-0.2204,0.1621
0.122,0.068,0.13,-52.4,-56.9,-15.5,0,2018,5,11,13,21,43.112,0.9221,-0.2811,-0.2121,0.1601
0.103,0.328,0.232,-56.8,-96.3,-9.6,0,2018,5,11,13,21,43.131,0.92,-0.2945,-0.205,0.157
0.133,0.402,0.123,-66.7,-152.3,9.9,0,2018,5,11,13,21,43.152,0.9155,-0.3163,-0.1983,0.1491
0.127,0.183,-0.154,-67.1,-216.3,19.2,0,2018,5,11,13,21,43.168,0.9073,-0.3477,-0.1931,0.1362
0.151,0.178,-0.264,-57,-245.6,18.6,0,2018,5,11,13,21,43.208,0.8949,-0.385,-0.1896,0.1218
0.032,0.095,-0.297,-49.6,-294.3,19.9,0,2018,5,11,13,21,43.229,0.8778,-0.4275,-0.188,0.1058
0.143,0.003,-0.375,-36.8,-264.8,20.8,0,2018,5,11,13,21,43.234,0.8574,-0.4704,-0.1878,0.0902
0.095,0.108,-0.344,-25.2,-258.5,28.3,0,2018,5,11,13,21,43.251,0.8367,-0.5082,-0.1892,0.0754
0.114,-0.004,-0.377,-15.1,-243.8,30.8,0,2018,5,11,13,21,43.289,0.8144,-0.5441,-0.1921,0.0609
0.111,-0.418,-0.317,-0.4,-154.1,28.8,0,2018,5,11,13,21,43.309,0.7954,-0.5713,-0.196,0.049
0.112,-0.753,-0.288,23.9,30.2,25.2,0,2018,5,11,13,21,43.313,0.7888,-0.579,-0.201,0.0442
0.074,-0.177,-0.228,50.6,199.8,26,0,2018,5,11,13,21,43.332,0.8006,-0.5598,-0.2077,0.0492
