ax,ay,az,dpitch,droll,dyaw,heart,time_1,time_2,time_3,time_4,time_5,time_6,w,x,y,z
-0.013,0.049,0.092,-16,78,43,0,2018,5,11,13,20,15.302,0.8249,-0.4057,-0.0285,0.3925
-0.022,0.053,0.089,-16.8,74.9,41.7,0,2018,5,11,13,20,15.321,0.8339,-0.3939,-0.0235,0.3856
-0.011,-0.009,0.034,-17.4,48.3,35.7,0,2018,5,11,13,20,15.331,0.8411,-0.3851,-0.0198,0.3792
-0.009,-0.055,-0.009,-16.7,19.7,29.9,0,2018,5,11,13,20,15.351,0.8455,-0.3812,-0.0175,0.3733
-0.001,-0.004,-0.02,-19.2,-2.7,24.5,0,2018,5,11,13,20,15.372,0.8477,-0.3816,-0.0162,0.3679
0.022,-0.081,-0.051,-18.2,-27.7,14,0,2018,5,11,13,20,15.411,0.848,-0.3852,-0.0158,0.3635
0.06,-0.24,-0.126,-10.6,-36.3,-5,0,2018,5,11,13,20,15.431,0.8459,-0.3914,-0.0161,0.3617
0.078,-0.249,-0.178,0.2,-27.9,-19.6,0,2018,5,11,13,20,15.434,0.8427,-0.3968,-0.0165,0.3632
0.088,-0.113,-0.193,10.7,-14.9,-29.7,0,2018,5,11,13,20,15.451,0.8397,-0.3993,-0.017,0.3674
0.086,-0.082,-0.147,19.2,-19.5,-39.4,0,2018,5,11,13,20,15.469,0.8362,-0.4011,-0.0176,0.3733
0.081,-0.045,-0.101,25.8,-29,-48.4,1023,2018,5,11,13,20,15.491,0.8314,-0.4037,-0.0193,0.3812
0.06,-0.023,-0.074,31.7,-28.5,-51.3,1023,2018,5,11,13,20,15.513,0.8254,-0.4071,-0.0215,0.3903
0.036,-0.017,-0.033,36.1,-8.2,-49,1023,2018,5,11,13,20,15.532,0.8201,-0.4084,-0.0238,0.3999
0,0.124,0.045,35.7,6.4,-42.8,1023,2018,5,11,13,20,15.552,0.8169,-0.4053,-0.0254,0.4093
-0.023,0.228,0.106,30.6,9.5,-32.1,1023,2018,5,11,13,20,15.573,0.8148,-0.4016,-0.0268,0.4171
-0.04,0.284,0.169,21.8,8.5,-17.8,1023,2018,5,11,13,20,15.591,0.8134,-0.3986,-0.0281,0.4225
-0.047,0.269,0.202,11.2,17.9,-1.6,1023,2018,5,11,13,20,15.634,0.8135,-0.3956,-0.0288,0.4251
-0.045,0.234,0.187,0.9,33.9,15.7,1023,2018,5,11,13,20,15.653,0.8158,-0.3916,-0.0281,0.4245
-0.035,0.212,0.152,-6.3,42.2,30.1,1023,2018,5,11,13,20,15.657,0.8203,-0.3858,-0.0265,0.4212
-0.017,0.147,0.1,-12.3,27.9,38.9,1023,2018,5,11,13,20,15.676,0.8253,-0.3812,-0.0249,0.4156
-0.012,0.111,0.089,-19.2,11.3,44.7,1023,2018,5,11,13,20,15.699,0.8297,-0.3794,-0.024,0.4085
0.003,-0.058,0.035,-23.5,22.9,47.6,1023,2018,5,11,13,20,15.717,0.8342,-0.3783,-0.0228,0.4004
0.028,-0.064,0.009,-23.8,56.6,48.2,0,2018,5,11,13,20,15.753,0.8403,-0.3739,-0.0198,0.3919
0.04,-0.051,0.003,-21.1,75.7,44.6,0,2018,5,11,13,20,15.758,0.8479,-0.3654,-0.0148,0.3837
0.035,-0.021,-0.006,-19.7,54.7,36.6,0,2018,5,11,13,20,15.775,0.8548,-0.3569,-0.0097,0.3765
0.036,-0.013,-0.006,-20.5,18.7,28.8,0,2018,5,11,13,20,15.794,0.8591,-0.353,-0.006,0.3704
0.011,-0.089,0.006,-21.8,-14,18.2,0,2018,5,11,13,20,15.814,0.8606,-0.3544,-0.0043,0.3656
0.039,-0.14,-0.051,-19,-32.8,4.4,0,2018,5,11,13,20,15.854,0.8595,-0.3602,-0.0038,0.3624
0.058,-0.143,-0.116,-12.7,-26.8,-7.9,0,2018,5,11,13,20,15.875,0.8573,-0.3662,-0.003,0.3616
0.038,-0.077,-0.061,-6.4,-27.4,-20.3,0,2018,5,11,13,20,15.879,0.8547,-0.3708,-0.0025,0.3632
0.044,-0.048,-0.072,-2.5,-43,-29.1,0,2018,5,11,13,20,15.897,0.8505,-0.3769,-0.0023,0.3665
0.071,-0.037,-0.148,6.5,-57,-37.3,0,2018,5,11,13,20,15.918,0.8448,-0.3849,-0.0035,0.3715
0.065,-0.03,-0.182,17,-58.3,-40.7,0,2018,5,11,13,20,15.938,0.8381,-0.3929,-0.0064,0.3781
0.05,-0.022,-0.103,25.8,-42.1,-39.4,0,2018,5,11,13,20,15.956,0.8319,-0.3989,-0.0104,0.3854
0.029,0.057,0.017,27.9,-17.9,-35,0,2018,5,11,13,20,15.995,0.8272,-0.4014,-0.0134,0.3928
0.021,0.131,0.065,26.7,-1.5,-28.3,0,2018,5,11,13,20,15.999,0.8246,-0.4,-0.015,0.3996
0.006,0.206,0.096,22.3,7.8,-18,0,2018,5,11,13,20,16.017,0.8231,-0.3979,-0.0167,0.4046
-0.01,0.2,0.126,17.3,14.3,-5.3,0,2018,5,11,13,20,16.037,0.8231,-0.3949,-0.018,0.4076
-0.025,0.193,0.146,9.5,26.2,8.8,0,2018,5,11,13,20,16.056,0.8245,-0.3911,-0.0186,0.4083
-0.009,0.207,0.116,3.1,35.4,22.9,0,2018,5,11,13,20,16.079,0.8279,-0.386,-0.0183,0.4064
-0.003,0.15,0.107,-2.4,28.6,31.7,0,2018,5,11,13,20,16.099,0.832,-0.3812,-0.0178,0.4025
0.001,0.08,0.081,-6.8,20.9,37.2,0,2018,5,11,13,20,16.118,0.8363,-0.3771,-0.0175,0.3973
-0.004,0.03,0.058,-10.7,25.9,41.7,0,2018,5,11,13,20,16.138,0.8408,-0.3735,-0.0171,0.3911
0.011,0.022,0.016,-12.6,39.2,44.3,0,2018,5,11,13,20,16.178,0.8461,-0.3688,-0.0158,0.3843
0.038,-0.006,-0.018,-10.2,48.7,43.5,0,2018,5,11,13,20,16.182,0.852,-0.3626,-0.0137,0.3771
0.014,0.01,0.017,-9.2,24.1,34.8,0,2018,5,11,13,20,16.198,0.8571,-0.3571,-0.0122,0.3709
0.034,-0.03,0.006,-10.2,-16.3,25.5,0,2018,5,11,13,20,16.218,0.8592,-0.357,-0.0124,0.366
0.023,-0.103,-0.012,-9.8,-43,14.2,0,2018,5,11,13,20,16.237,0.8584,-0.3625,-0.0144,0.3624
0.047,-0.18,-0.081,-6.5,-42.3,3.2,0,2018,5,11,13,20,16.259,0.8559,-0.3704,-0.0168,0.3603
0.064,-0.149,-0.122,0.8,-22.1,-7.1,0,2018,5,11,13,20,16.277,0.8537,-0.3751,-0.0184,0.3606
0.059,-0.055,-0.058,5.4,-20.2,-16.9,0,2018,5,11,13,20,16.299,0.8516,-0.3777,-0.0193,0.3626
0.052,0.013,-0.029,8.6,-54.3,-28.8,1023,2018,5,11,13,20,16.319,0.8476,-0.383,-0.0206,0.3665
0.047,-0.018,-0.059,13.3,-84.5,-37.4,1023,2018,5,11,13,20,16.358,0.8403,-0.3932,-0.0244,0.3722
0.031,-0.034,-0.049,17.1,-75.9,-38.6,1023,2018,5,11,13,20,16.377,0.8316,-0.4051,-0.0293,0.3785
0.007,0.046,0.023,19.2,-43.5,-34.6,1023,2018,5,11,13,20,16.382,0.8248,-0.4125,-0.0332,0.3849
-0.012,0.102,0.079,16.8,-24.1,-32.7,1023,2018,5,11,13,20,16.401,0.8206,-0.415,-0.0354,0.3912
0.009,0.059,0.014,18.4,-21.8,-32.5,1023,2018,5,11,13,20,16.422,0.817,-0.4163,-0.0367,0.3972
0.014,0.061,-0.062,22.8,-22.7,-28.8,1023,2018,5,11,13,20,16.437,0.813,-0.418,-0.0388,0.4032
-0.003,0.08,-0.01,23.7,-14.1,-18.9,1023,2018,5,11,13,20,16.458,0.8097,-0.4192,-0.0415,0.4083
-0.001,0.146,0.089,19.6,5.3,-6.7,1023,2018,5,11,13,20,16.477,0.8087,-0.4175,-0.0437,0.4119
0.016,0.141,0.146,14.5,28.2,3.6,1023,2018,5,11,13,20,16.514,0.8097,-0.4138,-0.0448,0.4134
0.018,0.196,0.143,8.4,36.5,13.3,1023,2018,5,11,13,20,16.533,0.8127,-0.4082,-0.0444,0.4133
0.02,0.163,0.095,4.2,24.7,21.7,1023,2018,5,11,13,20,16.54,0.8161,-0.4032,-0.0443,0.4114
0.022,0.111,0.073,0,8.7,28.3,0,2018,5,11,13,20,16.578,0.8193,-0.3999,-0.0449,0.4082
0.031,-0.011,0.066,-3.6,-2.9,30,0,2018,5,11,13,20,16.599,0.8217,-0.399,-0.0461,0.404
0.008,0.045,0.105,-10.1,2.3,30.7,0,2018,5,11,13,20,16.604,0.8242,-0.3986,-0.0471,0.3994
-0.004,0.085,0.118,-17.1,0.5,31.4,0,2018,5,11,13,20,16.622,0.8271,-0.3975,-0.047,0.3943
-0.001,0.041,0.062,-22.1,-3.5,31.1,0,2018,5,11,13,20,16.642,0.8298,-0.3976,-0.0463,0.3887
0.004,-0.038,-0.008,-22,-3.2,28.2,0,2018,5,11,13,20,16.68,0.8318,-0.399,-0.0455,0.3829
0.011,-0.059,-0.046,-19,4.4,25.3,0,2018,5,11,13,20,16.684,0.8336,-0.4006,-0.0445,0.3775
0.016,-0.038,-0.05,-15.2,10.1,22.5,0,2018,5,11,13,20,16.7,0.8357,-0.4007,-0.0433,0.3728
0.018,-0.022,-0.042,-11.9,0.4,15.8,0,2018,5,11,13,20,16.72,0.8372,-0.4013,-0.0421,0.3689
0.034,-0.037,-0.053,-9.8,-12.6,8.9,0,2018,5,11,13,20,16.74,0.8374,-0.4033,-0.0416,0.3663
0.037,-0.044,-0.052,-7.6,-29,-0.4,0,2018,5,11,13,20,16.761,0.8359,-0.4077,-0.0419,0.3648
0.056,-0.135,-0.1,0,-30.9,-11.4,0,2018,5,11,13,20,16.783,0.8329,-0.4134,-0.0427,0.3651
0.072,-0.148,-0.158,10.8,-14.6,-20.3,0,2018,5,11,13,20,16.803,0.8302,-0.4164,-0.044,0.3678
0.056,0.016,-0.099,17.5,-3.5,-24.6,0,2018,5,11,13,20,16.824,0.828,-0.4169,-0.0448,0.3722
0.039,0.087,0,19.5,-13.7,-27.2,0,2018,5,11,13,20,16.844,0.8255,-0.4168,-0.0456,0.3776
0.032,0.021,0.027,21.5,-26.3,-31.3,0,2018,5,11,13,20,16.864,0.822,-0.4182,-0.0474,0.3834
0.027,-0.04,-0.028,26.1,-19.2,-34.1,0,2018,5,11,13,20,16.902,0.8176,-0.4207,-0.0498,0.3897
0.009,0.008,-0.074,31.3,0.7,-31,0,2018,5,11,13,20,16.906,0.8143,-0.4206,-0.0522,0.3965
0,0.107,-0.014,32.5,16.1,-22.6,0,2018,5,11,13,20,16.922,0.8128,-0.4172,-0.054,0.4028
-0.02,0.199,0.125,27,17.8,-14.2,0,2018,5,11,13,20,16.942,0.8127,-0.4122,-0.0555,0.408
-0.011,0.187,0.199,19.3,9.1,-6.9,0,2018,5,11,13,20,16.961,0.8126,-0.4088,-0.0571,0.4112
-0.005,0.143,0.138,12.8,7.5,1.4,0,2018,5,11,13,20,16.998,0.8128,-0.4066,-0.0587,0.4128
0.002,0.12,0.085,7,15.6,13,0,2018,5,11,13,20,17.017,0.8142,-0.4038,-0.0599,0.4127
0,0.112,0.12,1.3,24.4,23.1,0,2018,5,11,13,20,17.024,0.8173,-0.3993,-0.0599,0.4109
0.002,0.147,0.162,-6.5,16.1,29.5,0,2018,5,11,13,20,17.044,0.8208,-0.3959,-0.06,0.4072
0.001,0.135,0.166,-16.3,0.1,33.1,0,2018,5,11,13,20,17.066,0.8237,-0.3949,-0.0603,0.4021
-0.001,0.029,0.102,-22.3,-3.8,34.3,0,2018,5,11,13,20,17.086,0.8263,-0.3959,-0.0598,0.3959
0.006,-0.123,0.01,-24.8,22.5,35.7,0,2018,5,11,13,20,17.107,0.8295,-0.3962,-0.0583,0.3892
0.01,-0.074,-0.003,-21.4,57.9,34.4,1023,2018,5,11,13,20,17.122,0.8348,-0.3917,-0.055,0.3828
0,0.058,0.029,-21,53.9,31.4,1023,2018,5,11,13,20,17.141,0.8413,-0.3837,-0.0503,0.3772
0.006,0.08,0.033,-24.5,15,25.3,1023,2018,5,11,13,20,17.163,0.846,-0.3789,-0.0463,0.372
0.014,0.014,0.007,-25.7,-23.3,17,1023,2018,5,11,13,20,17.183,0.8473,-0.3808,-0.0441,0.3673
0.031,-0.115,-0.079,-21.4,-39.3,4.4,1023,2018,5,11,13,20,17.205,0.8457,-0.3876,-0.0437,0.364
0.049,-0.142,-0.134,-13.6,-30.1,-5.7,1023,2018,5,11,13,20,17.224,0.8433,-0.3941,-0.0434,0.3627
0.06,-0.099,-0.133,-5.5,-31.3,-17.6,1023,2018,5,11,13,20,17.244,0.8406,-0.3988,-0.0431,0.3636
0.079,-0.014,-0.1,0,-49.8,-26.9,1023,2018,5,11,13,20,17.283,0.8363,-0.4052,-0.0435,0.3665
0.074,-0.043,-0.085,7.3,-70.1,-35.7,1023,2018,5,11,13,20,17.304,0.8297,-0.4145,-0.0456,0.3708
0.071,-0.061,-0.115,15.4,-66.7,-39.4,1023,2018,5,11,13,20,17.308,0.8219,-0.4244,-0.049,0.3766
0.049,-0.022,-0.075,22.4,-43,-37.8,1023,2018,5,11,13,20,17.327,0.8149,-0.4315,-0.0526,0.3832
0.009,0.106,0.063,22.6,-23.7,-32.7,1023,2018,5,11,13,20,17.365,0.8098,-0.4348,-0.0548,0.3898
-0.002,0.191,0.144,18,-27.3,-25.7,1023,2018,5,11,13,20,17.386,0.8058,-0.437,-0.057,0.3952
-0.005,0.19,0.131,12.8,-34.9,-17.4,1023,2018,5,11,13,20,17.39,0.8018,-0.4406,-0.0597,0.3991
-0.016,0.163,0.095,8.3,-32.9,-6.9,0,2018,5,11,13,20,17.41,0.7981,-0.445,-0.0626,0.4012
-0.01,0.107,0.077,5,-16.3,4.9,0,2018,5,11,13,20,17.426,0.7961,-0.4478,-0.0651,0.4016
-0.003,0.077,0.113,0.1,8.7,14.2,0,2018,5,11,13,20,17.463,0.7971,-0.4466,-0.0663,0.4007
0.023,0.09,0.103,-4.7,15.9,21,0,2018,5,11,13,20,17.483,0.8,-0.4434,-0.0659,0.3987
0.034,0.102,0.035,-7.4,13.4,25.5,0,2018,5,11,13,20,17.487,0.8032,-0.4404,-0.0652,0.3955
0.042,-0.02,-0.008,-7.9,13,27.5,0,2018,5,11,13,20,17.506,0.806,-0.4389,-0.0648,0.3915
0.008,-0.11,0.004,-7.7,42.3,29.1,0,2018,5,11,13,20,17.526,0.8098,-0.4357,-0.0643,0.3873
0,0.006,0.05,-9.1,75,32,0,2018,5,11,13,20,17.561,0.8166,-0.4272,-0.0616,0.3829
0.011,0.095,0.059,-10.4,73.6,29.9,0,2018,5,11,13,20,17.581,0.8249,-0.4156,-0.057,0.3788
0.016,0.019,0.014,-10.8,46,24.1,0,2018,5,11,13,20,17.588,0.8312,-0.4069,-0.053,0.3749
0.02,0.01,-0.01,-10.4,13.1,16.2,0,2018,5,11,13,20,17.609,0.8346,-0.4033,-0.0506,0.3715
0.022,-0.053,-0.05,-9,-14.8,8.8,0,2018,5,11,13,20,17.628,0.8351,-0.4048,-0.0501,0.3689
0.039,-0.031,-0.043,-6.8,-28.1,1,0,2018,5,11,13,20,17.647,0.8335,-0.4093,-0.0506,0.3674
0.053,-0.009,-0.001,-4.5,-39.1,-9.2,0,2018,5,11,13,20,17.667,0.8306,-0.4151,-0.0514,0.3674
0.059,-0.091,-0.028,-1,-46.5,-19.4,0,2018,5,11,13,20,17.706,0.8263,-0.4221,-0.0525,0.369
0.06,-0.048,-0.07,4.2,-40.5,-26,0,2018,5,11,13,20,17.725,0.821,-0.4296,-0.0535,0.372
0.04,-0.025,-0.089,10,-33.8,-28.8,0,2018,5,11,13,20,17.729,0.8159,-0.4356,-0.0546,0.3761
0.038,0.003,-0.109,17.9,-32.1,-32.6,0,2018,5,11,13,20,17.768,0.8108,-0.4402,-0.0563,0.3813
0.029,-0.011,-0.106,25.8,-33.1,-35.8,0,2018,5,11,13,20,17.787,0.8052,-0.4448,-0.0588,0.3875
0.015,0.024,-0.023,29.8,-25.9,-33.7,0,2018,5,11,13,20,17.791,0.7999,-0.448,-0.0619,0.3943
0.004,0.081,0.066,29.4,-16.5,-27.5,0,2018,5,11,13,20,17.809,0.7959,-0.4488,-0.0648,0.4008
-0.003,0.136,0.1,26.8,-7.2,-19.3,0,2018,5,11,13,20,17.83,0.7933,-0.4482,-0.0673,0.4064
-0.012,0.182,0.155,21.1,3.6,-9.1,0,2018,5,11,13,20,17.848,0.7919,-0.4469,-0.0695,0.4102
-0.023,0.153,0.179,12.2,14.8,2.2,0,2018,5,11,13,20,17.866,0.7921,-0.4445,-0.0709,0.412
-0.004,0.141,0.16,3,26.4,13.9,0,2018,5,11,13,20,17.886,0.7943,-0.4409,-0.071,0.4117
0.005,0.172,0.156,-4.9,29.7,24.7,0,2018,5,11,13,20,17.925,0.7981,-0.4364,-0.0704,0.4093
0.002,0.194,0.168,-13.8,11.4,31.9,0,2018,5,11,13,20,17.945,0.8019,-0.4336,-0.0698,0.4049
-0.004,0.099,0.133,-22.7,-7.1,35.5,0,2018,5,11,13,20,17.949,0.8046,-0.4344,-0.0698,0.3987
-0.002,-0.082,0.062,-27.3,-0.8,36.6,0,2018,5,11,13,20,17.97,0.807,-0.4363,-0.0693,0.3917
-0.013,-0.125,0.025,-28.1,38.6,36.4,0,2018,5,11,13,20,17.99,0.8111,-0.4354,-0.0672,0.3845
0.001,-0.033,0.018,-25.6,68.7,35.5,0,2018,5,11,13,20,18.011,0.8181,-0.4286,-0.0627,0.3779
-0.001,0.026,0.027,-24.2,56.2,28.8,0,2018,5,11,13,20,18.031,0.8255,-0.4202,-0.0574,0.3721
0.022,0.028,-0.009,-23.8,20,21.7,0,2018,5,11,13,20,18.047,0.8302,-0.4157,-0.0531,0.3673
0.037,-0.063,-0.06,-20.7,-1.3,13.4,0,2018,5,11,13,20,18.087,0.8318,-0.4164,-0.0506,0.3633
0.051,-0.104,-0.111,-14.9,-0.9,5.5,0,2018,5,11,13,20,18.107,0.832,-0.4188,-0.0487,0.3604
0.049,-0.035,-0.083,-9.2,1,-3.6,0,2018,5,11,13,20,18.112,0.832,-0.4198,-0.0469,0.3594
0.057,-0.029,-0.055,-3.9,-14,-13.6,0,2018,5,11,13,20,18.128,0.8307,-0.4218,-0.0452,0.3602
0.064,-0.044,-0.063,2.3,-28.5,-24.6,0,2018,5,11,13,20,18.169,0.8275,-0.4259,-0.0448,0.3629
0.051,0.01,-0.095,8.7,-38.4,-30.5,0,2018,5,11,13,20,18.19,0.8227,-0.4315,-0.0452,0.3671
0.046,0.011,-0.085,15,-37.7,-32.8,0,2018,5,11,13,20,18.194,0.8172,-0.4371,-0.0468,0.3725
0.031,0.049,-0.027,19.5,-32.9,-32.4,0,2018,5,11,13,20,18.212,0.8119,-0.4417,-0.0487,0.3784
0.018,0.058,0.042,20.8,-27.4,-30,1023,2018,5,11,13,20,18.232,0.8074,-0.4446,-0.0508,0.3843
0.019,0.056,0.036,21.5,-19.8,-26.5,1023,2018,5,11,13,20,18.251,0.8035,-0.4465,-0.0526,0.3899
0.01,0.065,0.049,21.4,-2.3,-19.6,1023,2018,5,11,13,20,18.286,0.8011,-0.4462,-0.0543,0.395
-0.012,0.13,0.117,17.9,14,-10.1,1023,2018,5,11,13,20,18.291,0.8005,-0.4436,-0.0553,0.3989
-0.019,0.141,0.169,11.5,32.2,-0.4,1023,2018,5,11,13,20,18.308,0.8019,-0.4392,-0.0553,0.401
-0.012,0.163,0.163,3.9,41.2,8.5,1023,2018,5,11,13,20,18.346,0.8051,-0.4332,-0.0541,0.4014
0,0.167,0.099,-0.6,32.4,16.1,1023,2018,5,11,13,20,18.367,0.8088,-0.4276,-0.0526,0.4001
0.007,0.101,0.047,-3.8,20.7,22.4,1023,2018,5,11,13,20,18.371,0.8123,-0.4235,-0.0515,0.3975
0.008,0.033,0.018,-5.2,22.5,27.3,1023,2018,5,11,13,20,18.392,0.8157,-0.4203,-0.0509,0.3941
0,-0.025,0.036,-6.2,49.8,31.3,1023,2018,5,11,13,20,18.412,0.8203,-0.4153,-0.0497,0.3897
-0.001,0.018,0.075,-7.3,78.1,33,1023,2018,5,11,13,20,18.449,0.8276,-0.4054,-0.0466,0.3851
0.004,0.04,0.075,-7.8,74.4,29.1,1023,2018,5,11,13,20,18.47,0.8356,-0.3935,-0.0423,0.3809
0.019,0.038,0.042,-9,48.4,23.2,1023,2018,5,11,13,20,18.474,0.8417,-0.3843,-0.0384,0.3771
0.023,0.01,0.002,-9.9,26,18.3,1023,2018,5,11,13,20,18.495,0.8456,-0.3792,-0.0358,0.3738
0.035,-0.027,-0.038,-7.7,15.1,13.5,1023,2018,5,11,13,20,18.515,0.8479,-0.3769,-0.0341,0.3711
0.032,0.024,0.02,-7.5,12,7.8,1023,2018,5,11,13,20,18.534,0.8494,-0.3754,-0.0327,0.3693
0.035,0.031,0.056,-9,0.7,0.7,0,2018,5,11,13,20,18.555,0.8502,-0.3745,-0.0309,0.3684
0.038,-0.057,-0.017,-6.9,-25,-9.5,0,2018,5,11,13,20,18.594,0.8492,-0.3766,-0.0298,0.3686
0.044,-0.016,-0.063,-2.3,-40.3,-18.3,0,2018,5,11,13,20,18.598,0.8456,-0.383,-0.0303,0.3703
0.025,0.112,-0.017,-2.7,-53.1,-17.4,0,2018,5,11,13,20,18.613,0.8413,-0.39,-0.0313,0.3728
0.026,0.051,0.005,-0.8,-65.7,-20.7,0,2018,5,11,13,20,18.634,0.8361,-0.3982,-0.0333,0.3755
0.048,0.04,-0.024,2,-75.2,-23.2,0,2018,5,11,13,20,18.655,0.8296,-0.4086,-0.036,0.3786
0.032,0.016,-0.084,7.8,-74.1,-23,0,2018,5,11,13,20,18.675,0.8223,-0.4198,-0.0396,0.382
0.016,0.038,-0.068,12,-58.1,-18.4,0,2018,5,11,13,20,18.695,0.8156,-0.4292,-0.0438,0.3853
0.016,0.033,0.019,13.6,-37.5,-13,0,2018,5,11,13,20,18.715,0.8109,-0.4352,-0.0474,0.3882
0.029,0.033,0.072,12.6,-14.3,-8.9,0,2018,5,11,13,20,18.734,0.8082,-0.4375,-0.0498,0.3908
0.019,0.081,0.088,10.9,5.3,-4.4,0,2018,5,11,13,20,18.776,0.8077,-0.4366,-0.0507,0.3929
0,0.089,0.068,8.3,15.3,1.7,0,2018,5,11,13,20,18.795,0.8087,-0.4335,-0.0507,0.3942
0.003,0.102,0.075,5.3,22.9,8.8,0,2018,5,11,13,20,18.799,0.8109,-0.4291,-0.0504,0.3946
-0.001,0.068,0.079,2,26.8,14.1,0,2018,5,11,13,20,18.813,0.814,-0.424,-0.0498,0.3938
0.013,0.026,0.056,0.7,30.8,16.9,0,2018,5,11,13,20,18.849,0.8175,-0.4189,-0.0489,0.3921
-0.011,-0.041,0.037,0.1,43.7,19,0,2018,5,11,13,20,18.87,0.8213,-0.4135,-0.0476,0.3898
-0.013,0.04,0.044,-1.3,56.1,21.9,0,2018,5,11,13,20,18.875,0.8266,-0.4056,-0.0456,0.3873
-0.022,0.051,0.086,-4,55.6,23.9,0,2018,5,11,13,20,18.897,0.8325,-0.3966,-0.0429,0.3843
-0.012,0.102,0.101,-7.5,42.4,22.5,0,2018,5,11,13,20,18.933,0.8379,-0.3885,-0.0402,0.3811
-0.004,0.093,0.073,-12.7,12.1,19.2,0,2018,5,11,13,20,18.955,0.8417,-0.3837,-0.0378,0.3777
0.019,-0.071,-0.013,-13.4,-13.7,11.3,0,2018,5,11,13,20,18.96,0.8425,-0.3851,-0.0369,0.3746
0.032,0.006,-0.058,-12.4,-27.1,5.1,0,2018,5,11,13,20,18.977,0.8415,-0.3894,-0.0368,0.3724
0.051,-0.103,-0.098,-7.6,-34.4,-4,0,2018,5,11,13,20,18.998,0.8391,-0.3956,-0.0374,0.3713
0.062,-0.063,-0.083,-2,-29.1,-10.8,0,2018,5,11,13,20,19.017,0.8363,-0.4008,-0.0383,0.372
0.066,-0.02,-0.063,2.2,-27.6,-15.8,0,2018,5,11,13,20,19.052,0.833,-0.4057,-0.0388,0.3739
0.058,0.025,-0.061,6.8,-29.3,-17,0,2018,5,11,13,20,19.074,0.8296,-0.4102,-0.0396,0.3766
0.039,0.058,-0.07,12.3,-21.2,-14.3,0,2018,5,11,13,20,19.078,0.8264,-0.4137,-0.0411,0.3796
0.017,0.082,-0.021,15.3,-11.5,-10,0,2018,5,11,13,20,19.096,0.8243,-0.415,-0.0429,0.3825
0.009,0.095,0.022,16,-5.9,-5.8,0,2018,5,11,13,20,19.116,0.8232,-0.4148,-0.0446,0.385
0.001,0.067,0.042,15.5,-5.4,-3.8,0,2018,5,11,13,20,19.136,0.8225,-0.4141,-0.0465,0.3869
0.004,0.063,0.024,15.9,-4.4,-0.4,0,2018,5,11,13,20,19.157,0.8221,-0.4131,-0.0486,0.3885
-0.008,0.038,0.022,15.2,-11.3,0.5,0,2018,5,11,13,20,19.179,0.8216,-0.4126,-0.0514,0.3898
-0.001,0.029,0.033,15.2,-13.7,1.1,0,2018,5,11,13,20,19.198,0.8208,-0.413,-0.0543,0.3907
0.003,0.033,0.066,12.5,-18.8,0.3,0,2018,5,11,13,20,19.219,0.8197,-0.414,-0.0573,0.3915
0.009,-0.013,0.065,10.2,-21.2,-1.4,0,2018,5,11,13,20,19.235,0.8183,-0.4155,-0.0603,0.3924
0.015,-0.028,0.065,8.6,-12.8,-2.8,0,2018,5,11,13,20,19.255,0.8168,-0.4171,-0.0626,0.3933
-0.001,0.023,0.067,5.8,-6.5,-3.1,0,2018,5,11,13,20,19.276,0.8161,-0.4176,-0.0638,0.3943
-0.007,0.076,0.081,0.6,-8.4,-1.9,0,2018,5,11,13,20,19.314,0.8156,-0.4176,-0.0643,0.395
-0.01,0.088,0.079,-3.7,-19.2,-2.2,0,2018,5,11,13,20,19.335,0.815,-0.4185,-0.0646,0.3954
-0.012,0.004,0.045,-5.8,-31.5,-4.7,0,2018,5,11,13,20,19.339,0.8132,-0.4217,-0.0654,0.3955
0.007,-0.03,0.014,-7.4,-31.2,-7.2,0,2018,5,11,13,20,19.377,0.8105,-0.4268,-0.0665,0.3955
-0.003,0.014,0.038,-9.7,-18.9,-4.5,0,2018,5,11,13,20,19.398,0.8085,-0.4304,-0.0667,0.3955
0.036,-0.013,0,-8.9,-6.7,-5.7,1023,2018,5,11,13,20,19.402,0.8073,-0.4328,-0.0657,0.3955
0.038,0.018,-0.029,-6.2,2.5,-5.2,1023,2018,5,11,13,20,19.42,0.8067,-0.434,-0.0639,0.3958
0.041,0.031,-0.045,-4.1,5.1,-2.4,1023,2018,5,11,13,20,19.441,0.8065,-0.4342,-0.0622,0.3961
0.051,0.042,-0.031,-2.3,12.4,2.8,1023,2018,5,11,13,20,19.461,0.8071,-0.4334,-0.0606,0.3962
0.048,0.004,-0.009,0.1,32,5,1023,2018,5,11,13,20,19.477,0.8088,-0.4307,-0.0588,0.3959
0.039,-0.017,-0.045,4.3,55.7,7,1023,2018,5,11,13,20,19.498,0.8123,-0.4247,-0.0561,0.3956
0.017,0.005,-0.027,6.8,70,8.1,1023,2018,5,11,13,20,19.517,0.8173,-0.4154,-0.0529,0.3956
0.006,0.058,-0.006,8.2,60.4,9,1023,2018,5,11,13,20,19.555,0.8226,-0.4052,-0.0497,0.3956
-0.013,0.062,0.009,8.4,44.2,10.4,1023,2018,5,11,13,20,19.576,0.8268,-0.3969,-0.0479,0.3954
-0.02,0.104,0.065,6.3,35,13.5,1023,2018,5,11,13,20,19.58,0.8306,-0.39,-0.0467,0.3946
-0.023,0.124,0.086,1.6,19.5,14.6,1023,2018,5,11,13,20,19.619,0.8336,-0.3851,-0.046,0.3931
0.002,0.013,0.028,1.2,9.1,11.1,1023,2018,5,11,13,20,19.639,0.8357,-0.3822,-0.0461,0.3915
0,-0.035,-0.025,4.2,4.7,5.7,1023,2018,5,11,13,20,19.643,0.8367,-0.3809,-0.0468,0.3906
0.019,0.008,-0.048,5.9,0.1,1.9,1023,2018,5,11,13,20,19.662,0.8369,-0.3805,-0.0476,0.3904
0.037,0.034,0.019,2.5,-17.6,-1,1023,2018,5,11,13,20,19.682,0.8362,-0.3815,-0.0486,0.3907
0.045,0,0.066,0.3,-37.1,-7.2,0,2018,5,11,13,20,19.722,0.8343,-0.3847,-0.0499,0.3914
0.06,0.002,0.023,-1.5,-47,-11.8,0,2018,5,11,13,20,19.727,0.8305,-0.3914,-0.0519,0.3928
0.02,0.075,0.028,-2.7,-46.2,-10.7,0,2018,5,11,13,20,19.742,0.8267,-0.3977,-0.0535,0.3942
0.021,0.031,-0.006,-3.2,-40.1,-9.5,0,2018,5,11,13,20,19.761,0.8231,-0.4038,-0.0552,0.3953
0.023,-0.002,-0.037,-1.1,-27.6,-8.6,0,2018,5,11,13,20,19.781,0.82,-0.409,-0.0564,0.3962
0.015,0.011,-0.047,0.7,-18.4,-6.8,0,2018,5,11,13,20,19.817,0.8177,-0.4127,-0.0572,0.3971
0.013,-0.002,-0.019,2.2,-7.9,-3.5,0,2018,5,11,13,20,19.836,0.8162,-0.4147,-0.0579,0.3979
0.012,0.005,0.044,2.4,5.6,-0.7,0,2018,5,11,13,20,19.842,0.816,-0.4147,-0.0579,0.3983
-0.004,0.042,0.056,0.8,17.5,3.2,0,2018,5,11,13,20,19.863,0.817,-0.4125,-0.0572,0.3986
0.01,0.031,0.02,1.3,25.6,6.4,0,2018,5,11,13,20,19.882,0.8191,-0.4088,-0.0558,0.3983
0.02,-0.083,-0.039,4.9,34.5,8.2,0,2018,5,11,13,20,19.903,0.8217,-0.4044,-0.0547,0.3977
-0.009,-0.051,-0.021,7.5,66.6,12.7,0,2018,5,11,13,20,19.922,0.8256,-0.3973,-0.0532,0.397
-0.018,0.133,0.069,5.5,80.3,18.9,0,2018,5,11,13,20,19.961,0.8321,-0.3848,-0.0501,0.396
-0.019,0.204,0.139,-0.6,57.4,19.9,0,2018,5,11,13,20,19.982,0.8382,-0.3741,-0.0468,0.3939
-0.02,0.061,0.084,-5.2,22.8,17.9,0,2018,5,11,13,20,19.987,0.8421,-0.3685,-0.0448,0.3911
-0.005,-0.041,0.003,-6.1,7,13.6,0,2018,5,11,13,20,20.002,0.8442,-0.3663,-0.0441,0.3886
0.011,0.008,-0.009,-6.3,3.1,10.3,0,2018,5,11,13,20,20.037,0.8453,-0.3661,-0.0438,0.3865
0.029,0.067,0.022,-10.4,-13.2,8,0,2018,5,11,13,20,20.057,0.8458,-0.3669,-0.043,0.3847
0.042,0.032,0.038,-11.5,-38,-1.4,0,2018,5,11,13,20,20.06,0.8446,-0.3709,-0.043,0.3836
0.056,-0.054,-0.025,-11,-60.9,-8.6,0,2018,5,11,13,20,20.098,0.8408,-0.3794,-0.044,0.3834
0.031,0.074,-0.058,-8.7,-64.8,-10.5,0,2018,5,11,13,20,20.12,0.8357,-0.3898,-0.0458,0.3839
0.036,0.046,-0.035,-7.3,-66.7,-10.2,0,2018,5,11,13,20,20.124,0.8304,-0.4001,-0.0477,0.3845
0.03,-0.014,-0.006,-5.6,-64,-12.8,0,2018,5,11,13,20,20.162,0.8249,-0.4105,-0.0499,0.3851
0.02,-0.011,-0.016,-4.2,-58.9,-13.5,0,2018,5,11,13,20,20.182,0.8194,-0.4202,-0.0522,0.3862
0.015,-0.014,-0.054,-1.2,-38.5,-9.4,0,2018,5,11,13,20,20.186,0.8147,-0.4281,-0.0541,0.3871
0.018,-0.034,-0.075,4.5,-15.9,-5.7,0,2018,5,11,13,20,20.202,0.8118,-0.4327,-0.0556,0.3879
0.005,0.025,0,7.7,8.4,-0.6,0,2018,5,11,13,20,20.222,0.8112,-0.433,-0.0564,0.3887
0.004,0.041,0.055,7.1,29.9,4.8,0,2018,5,11,13,20,20.242,0.8129,-0.4293,-0.0561,0.3894
0.002,0.041,0.055,5.4,45.8,8.9,0,2018,5,11,13,20,20.263,0.8165,-0.4226,-0.0545,0.3893
0.003,-0.025,0.003,6.2,65.9,12.3,0,2018,5,11,13,20,20.301,0.8212,-0.4142,-0.0522,0.3888
0,0.03,-0.028,8.9,79.6,16.2,0,2018,5,11,13,20,20.323,0.8274,-0.4028,-0.0494,0.388
-0.014,0.105,0.042,7,71.1,18.6,0,2018,5,11,13,20,20.35,0.8341,-0.3904,-0.0464,0.3867
-0.011,0.118,0.116,0.4,39.5,17.8,0,2018,5,11,13,20,20.369,0.8393,-0.3813,-0.0443,0.3849
0.009,-0.007,0.1,-5.6,14.9,14.1,0,2018,5,11,13,20,20.371,0.8422,-0.3772,-0.0431,0.3827
0.009,-0.024,0.045,-7.2,13.7,10.3,0,2018,5,11,13,20,20.381,0.844,-0.3753,-0.0421,0.3807
0.005,0.028,0.02,-8.6,6.4,7.5,0,2018,5,11,13,20,20.419,0.8455,-0.3738,-0.0408,0.379
0.012,0.059,0.049,-12.7,-8.7,3.3,0,2018,5,11,13,20,20.438,0.8459,-0.3742,-0.0395,0.3778
0.008,0.102,0.105,-17.4,-35.6,-2,0,2018,5,11,13,20,20.442,0.8449,-0.3775,-0.0383,0.3767
0.003,0.067,0.093,-21.5,-71,-8.8,0,2018,5,11,13,20,20.483,0.8414,-0.3858,-0.0382,0.3762
0.008,0.046,-0.007,-23.8,-95.2,-13,0,2018,5,11,13,20,20.502,0.8352,-0.3994,-0.0392,0.3757
0.004,0.054,-0.07,-23.3,-111.6,-14.7,1023,2018,5,11,13,20,20.506,0.827,-0.4163,-0.0413,0.3754
0,0.015,-0.081,-22.3,-120,-13.8,1023,2018,5,11,13,20,20.526,0.8173,-0.4352,-0.0442,0.3748
0.045,-0.073,-0.142,-14.8,-112.9,-17.7,1023,2018,5,11,13,20,20.561,0.8069,-0.454,-0.048,0.3746
0.052,-0.122,-0.169,-5.3,-87.7,-16.9,1023,2018,5,11,13,20,20.581,0.7977,-0.4689,-0.0518,0.3754
0.058,-0.093,-0.128,3.7,-41.5,-12.5,1023,2018,5,11,13,20,20.585,0.7913,-0.4782,-0.0548,0.3768
0.042,-0.007,-0.017,9.7,5.1,-6.5,1023,2018,5,11,13,20,20.626,0.789,-0.4804,-0.0559,0.3785
0.031,0.021,0.021,12.2,37.2,-2.1,1023,2018,5,11,13,20,20.648,0.7904,-0.4768,-0.0552,0.3805
0.018,0.005,-0.037,15.9,71.7,3.6,1023,2018,5,11,13,20,20.652,0.7947,-0.4685,-0.0531,0.3821
0.018,0.024,-0.044,18,106.1,10.1,1023,2018,5,11,13,20,20.666,0.8021,-0.4549,-0.0498,0.3834
0.007,0.092,0.007,19.7,114.5,15,1023,2018,5,11,13,20,20.686,0.8116,-0.4374,-0.0456,0.3842
-0.025,0.191,0.071,15.8,89.4,18.5,1023,2018,5,11,13,20,20.724,0.8207,-0.4208,-0.0422,0.3841
-0.022,0.083,0.068,10.3,57.9,20,1023,2018,5,11,13,20,20.744,0.8273,-0.4089,-0.0405,0.3828
-0.004,-0.032,0.046,7.9,36.6,16.8,1023,2018,5,11,13,20,20.748,0.8318,-0.4013,-0.0401,0.3812
0.002,0.045,0.058,4.8,24.6,14.7,1023,2018,5,11,13,20,20.767,0.8351,-0.3959,-0.0401,0.3796
0.003,0.042,0.076,0.4,1.6,11,0,2018,5,11,13,20,20.786,0.8371,-0.393,-0.0402,0.3782
0.014,0.02,0.058,-2.6,-21.6,5.3,0,2018,5,11,13,20,20.808,0.8371,-0.394,-0.0411,0.377
0.017,-0.013,0.041,-5.2,-39.3,0,0,2018,5,11,13,20,20.829,0.8352,-0.3986,-0.0426,0.3763
0.022,0.007,0.039,-9.1,-38.8,-2.1,0,2018,5,11,13,20,20.848,0.8323,-0.4048,-0.044,0.3758
0.011,0.103,0.073,-12.7,-35.2,-3.3,0,2018,5,11,13,20,20.869,0.8299,-0.4101,-0.0442,0.3754
-0.003,0.015,0.051,-14.7,-41.8,-6.8,0,2018,5,11,13,20,20.906,0.8273,-0.4156,-0.0442,0.3751
0.009,-0.008,-0.035,-14,-50.5,-11.3,0,2018,5,11,13,20,20.925,0.8234,-0.4234,-0.0444,0.3751
0.016,-0.016,-0.127,-10.5,-64.9,-12.7,0,2018,5,11,13,20,20.93,0.8181,-0.4333,-0.0454,0.3753
0.025,-0.044,-0.132,-5,-70.7,-12.4,0,2018,5,11,13,20,20.948,0.8117,-0.4443,-0.0479,0.3759
0.028,-0.03,-0.013,-0.4,-34.9,-5.8,0,2018,5,11,13,20,20.985,0.8065,-0.453,-0.0503,0.3763
0.031,-0.072,0.008,3.1,13.1,-2.7,0,2018,5,11,13,20,21.007,0.8053,-0.4547,-0.0507,0.3769
0.033,-0.073,-0.08,8.9,76.6,2.3,0,2018,5,11,13,20,21.012,0.8087,-0.4482,-0.0486,0.3777
0.02,0.044,-0.074,14.7,115.9,6.9,0,2018,5,11,13,20,21.031,0.8162,-0.4339,-0.0439,0.3787
0.026,0.189,-0.02,17,102.5,12.2,0,2018,5,11,13,20,21.051,0.8251,-0.4166,-0.0388,0.3794
0.037,0.098,-0.011,17,63.2,12.8,0,2018,5,11,13,20,21.07,0.8317,-0.4035,-0.0365,0.3795
0.032,-0.023,-0.034,16.1,57.3,12.1,0,2018,5,11,13,20,21.092,0.8362,-0.3944,-0.0356,0.3793
0.009,0.007,0.027,14.1,76.2,14.1,0,2018,5,11,13,20,21.112,0.8414,-0.3836,-0.0343,0.3789
0.002,0.099,0.111,8.3,70.3,14.5,0,2018,5,11,13,20,21.128,0.8477,-0.3703,-0.0317,0.3783
-0.005,0.081,0.068,2.7,38.5,9.9,0,2018,5,11,13,20,21.167,0.8524,-0.3606,-0.0293,0.3774
0.007,0.033,0.037,0,9.5,6.3,0,2018,5,11,13,20,21.186,0.8545,-0.3564,-0.0284,0.3766
-0.002,-0.066,0.017,-1.8,-4.4,3.6,0,2018,5,11,13,20,21.19,0.8549,-0.3561,-0.0286,0.3759
0.006,-0.017,0.019,-2.1,-4.6,0,0,2018,5,11,13,20,21.21,0.8547,-0.3573,-0.0287,0.3753
0.013,0.038,0.02,-3.5,-12.2,-3.1,0,2018,5,11,13,20,21.229,0.8541,-0.3586,-0.0286,0.3754
0.026,0.074,0.022,-4,-32.1,-8.5,0,2018,5,11,13,20,21.251,0.8526,-0.3615,-0.0285,0.3761
0.031,0.033,0.029,-4.8,-61.8,-14.4,0,2018,5,11,13,20,21.272,0.8488,-0.3686,-0.0299,0.3775
0.016,0.023,-0.033,-4.6,-78.2,-15.9,0,2018,5,11,13,20,21.292,0.8432,-0.3794,-0.0327,0.3793
0.025,0.018,-0.056,-2.8,-73.3,-14.3,0,2018,5,11,13,20,21.311,0.8368,-0.3914,-0.036,0.3809
0.014,-0.014,0.006,-1.1,-56.9,-12.8,0,2018,5,11,13,20,21.331,0.8313,-0.4013,-0.0389,0.3823
0.011,-0.021,0.01,2.2,-41,-14.6,0,2018,5,11,13,20,21.349,0.8269,-0.4084,-0.0414,0.3841
0.006,-0.022,-0.039,3.6,-26.2,-13.2,0,2018,5,11,13,20,21.369,0.8235,-0.4132,-0.043,0.386
0.009,-0.036,-0.057,7.2,-11.1,-8.9,0,2018,5,11,13,20,21.409,0.8211,-0.4161,-0.0444,0.3879
0.01,0.036,-0.019,10.1,4.5,-4.3,0,2018,5,11,13,20,21.429,0.8203,-0.4164,-0.0452,0.3893
-0.012,0.102,0.072,7.6,20.9,3.4,0,2018,5,11,13,20,21.433,0.8214,-0.4132,-0.0454,0.3904
-0.008,0.099,0.12,2.3,32.9,9,0,2018,5,11,13,20,21.452,0.824,-0.4082,-0.0443,0.3902
0,0.062,0.091,-3.1,32.6,13.1,0,2018,5,11,13,20,21.471,0.8275,-0.4024,-0.0423,0.389
0.003,0.04,0.036,-6.7,30.2,16.9,0,2018,5,11,13,20,21.491,0.831,-0.3976,-0.0402,0.3869
0.011,-0.044,-0.014,-8.1,31.2,19.6,0,2018,5,11,13,20,21.513,0.8343,-0.3937,-0.0382,0.3839
0.027,-0.067,-0.004,-8.1,47.6,18.1,0,2018,5,11,13,20,21.533,0.8381,-0.389,-0.0357,0.3806
0.02,0.039,0.032,-9.5,53.1,17.4,0,2018,5,11,13,20,21.55,0.8427,-0.3821,-0.0318,0.3776
0.015,0.068,0.031,-12.3,29.7,13.8,1023,2018,5,11,13,20,21.569,0.8468,-0.3758,-0.0281,0.375
0.028,-0.034,-0.037,-11.6,4.6,9.2,1023,2018,5,11,13,20,21.608,0.8486,-0.3744,-0.0257,0.3727
0.015,-0.003,-0.048,-9.2,4,7.5,1023,2018,5,11,13,20,21.628,0.8491,-0.3751,-0.0244,0.3708
0.009,0.017,-0.016,-6.9,2.5,5.8,1023,2018,5,11,13,20,21.632,0.8498,-0.3751,-0.0233,0.3693
0.019,0.001,-0.024,-5.6,-3.1,0.7,1023,2018,5,11,13,20,21.671,0.85,-0.3755,-0.0227,0.3686
0.029,-0.015,-0.048,-1.5,-8.7,-4.6,1023,2018,5,11,13,20,21.69,0.8494,-0.3769,-0.0223,0.3686
0.035,-0.01,-0.09,2.4,-22.3,-8.9,1023,2018,5,11,13,20,21.694,0.8476,-0.3797,-0.0226,0.3697
0.028,-0.075,-0.109,9,-22,-13.2,1023,2018,5,11,13,20,21.713,0.8448,-0.3842,-0.0241,0.3714
0.025,0.012,-0.06,12.6,-15.1,-14.2,1023,2018,5,11,13,20,21.735,0.8422,-0.3872,-0.0258,0.3741
0.027,0.015,0.003,15.3,-9.3,-15.7,1023,2018,5,11,13,20,21.753,0.8403,-0.3881,-0.0275,0.3773
0.016,-0.007,0.039,16.3,-5.7,-19.4,1023,2018,5,11,13,20,21.794,0.8386,-0.388,-0.0289,0.381
0.025,-0.05,-0.032,19.7,-6.2,-21,1023,2018,5,11,13,20,21.815,0.8367,-0.3879,-0.0305,0.3853
-0.009,0.046,-0.014,20,5.8,-15.8,1023,2018,5,11,13,20,21.82,0.8352,-0.3868,-0.0323,0.3894
-0.01,0.17,0.085,15.3,7.1,-6.3,0,2018,5,11,13,20,21.838,0.835,-0.3839,-0.0335,0.3925
-0.015,0.164,0.163,7.9,1.5,0.5,0,2018,5,11,13,20,21.855,0.8351,-0.3823,-0.035,0.3938
-0.012,0.144,0.138,1.1,4,8,0,2018,5,11,13,20,21.892,0.8356,-0.3812,-0.036,0.3936
-0.023,0.057,0.069,-3.4,7,15.4,0,2018,5,11,13,20,21.896,0.837,-0.3799,-0.0362,0.3919
-0.016,0.073,0.033,-6.8,12.4,22.1,0,2018,5,11,13,20,21.911,0.8394,-0.3775,-0.0362,0.3891
-0.014,0.023,0.06,-10.2,8.7,25.8,0,2018,5,11,13,20,21.953,0.8421,-0.3755,-0.0358,0.3852
-0.004,0.042,0.084,-14.5,-1,23.8,0,2018,5,11,13,20,21.975,0.8444,-0.3747,-0.0354,0.381
0.01,-0.006,0.063,-19.3,-9.5,21.3,0,2018,5,11,13,20,21.979,0.8458,-0.3761,-0.0346,0.3766
0.019,-0.026,0.011,-20.7,-10.6,17.2,0,2018,5,11,13,20,21.995,0.8465,-0.3787,-0.0335,0.3725
0.027,-0.102,-0.042,-18.1,-6.1,11.6,0,2018,5,11,13,20,22.034,0.8468,-0.3816,-0.0322,0.3689
0.021,-0.034,-0.046,-17,-5.5,5.4,0,2018,5,11,13,20,22.054,0.8467,-0.3844,-0.0304,0.3663
0.043,-0.043,-0.064,-12.9,-13.1,-3.9,0,2018,5,11,13,20,22.058,0.8459,-0.3875,-0.0287,0.3651
0.049,-0.096,-0.09,-7.3,-20.1,-12.1,0,2018,5,11,13,20,22.074,0.8438,-0.3917,-0.0278,0.3656
0.041,-0.046,-0.077,-1.3,-11.2,-16.3,0,2018,5,11,13,20,22.112,0.8413,-0.3955,-0.0271,0.3673
0.036,0,-0.077,4.7,-1.6,-18.3,0,2018,5,11,13,20,22.132,0.8394,-0.3972,-0.0263,0.3699
0.029,0.001,-0.07,10.5,5,-20.6,0,2018,5,11,13,20,22.136,0.8379,-0.397,-0.0258,0.3733
0.032,0.001,-0.087,17.3,4,-21.6,0,2018,5,11,13,20,22.175,0.8366,-0.396,-0.0257,0.3774
0.004,-0.04,-0.038,21.1,14.2,-21.2,0,2018,5,11,13,20,22.195,0.8351,-0.3949,-0.0263,0.3818
-0.003,0.16,0.048,18.9,20.6,-13.2,0,2018,5,11,13,20,22.199,0.8353,-0.3904,-0.0265,0.386
-0.01,0.176,0.132,14.3,18.8,-6.4,0,2018,5,11,13,20,22.235,0.8359,-0.3865,-0.027,0.3886
-0.02,0.173,0.171,7.5,16.9,1.1,0,2018,5,11,13,20,22.255,0.8369,-0.3832,-0.0272,0.3897
-0.034,0.138,0.168,-0.9,20.1,9.8,0,2018,5,11,13,20,22.259,0.8385,-0.3801,-0.0269,0.3892
-0.037,0.122,0.15,-9.4,17.9,17.4,0,2018,5,11,13,20,22.273,0.8408,-0.3774,-0.0257,0.3869
-0.027,0.071,0.121,-16.5,8,21.4,0,2018,5,11,13,20,22.312,0.8433,-0.3758,-0.0242,0.3833
-0.011,0.012,0.109,-22.6,0.4,22.8,0,2018,5,11,13,20,22.332,0.8454,-0.3757,-0.0224,0.3789
-0.007,0.029,0.129,-30,3.6,24.6,0,2018,5,11,13,20,22.336,0.8474,-0.3762,-0.0201,0.3738
-0.002,0.034,0.125,-36.5,5.3,24.6,0,2018,5,11,13,20,22.357,0.8499,-0.3763,-0.0164,0.3682
0.008,-0.069,0.059,-38.8,4.3,18.9,0,2018,5,11,13,20,22.377,0.8518,-0.3777,-0.0119,0.3625
0.019,-0.023,-0.025,-38.2,8.6,15.9,0,2018,5,11,13,20,22.398,0.8533,-0.3796,-0.0067,0.3572
0.017,-0.004,-0.036,-36,11.7,16.5,0,2018,5,11,13,20,22.417,0.8548,-0.3808,-0.0015,0.3524
0.022,-0.013,-0.022,-32.9,9.8,16.9,0,2018,5,11,13,20,22.455,0.8564,-0.3817,0.0033,0.3475
0.03,0.015,-0.031,-30.9,7.7,16.3,0,2018,5,11,13,20,22.474,0.8578,-0.3825,0.0077,0.3429
0.038,-0.074,-0.081,-25.8,5,10.8,0,2018,5,11,13,20,22.477,0.8587,-0.384,0.0116,0.3388
0.046,-0.087,-0.125,-16.5,1.3,4.2,0,2018,5,11,13,20,22.494,0.859,-0.3856,0.0146,0.3362
0.011,-0.116,-0.172,-6.3,-1.9,-0.3,0,2018,5,11,13,20,22.513,0.859,-0.3864,0.0161,0.3352
0.017,-0.111,-0.215,5.4,-1.3,-5.8,0,2018,5,11,13,20,22.552,0.8587,-0.3867,0.0162,0.3357
0.033,-0.106,-0.219,23.9,3.6,-16.6,0,2018,5,11,13,20,22.572,0.8581,-0.3857,0.0148,0.3384
0.005,-0.055,-0.141,40.4,6.8,-27.1,0,2018,5,11,13,20,22.577,0.8572,-0.3829,0.0117,0.3439
-0.008,-0.015,-0.075,51.1,17.6,-33.2,0,2018,5,11,13,20,22.616,0.8558,-0.3794,0.0075,0.3513
0.017,-0.025,-0.06,58.1,23.6,-33.9,0,2018,5,11,13,20,22.636,0.8549,-0.3735,0.003,0.3598
0.042,0.033,-0.028,63.5,29.7,-34.6,0,2018,5,11,13,20,22.639,0.8542,-0.3661,-0.0018,0.3688
0.05,0.171,0.049,65.3,24.7,-31.9,1023,2018,5,11,13,20,22.679,0.8538,-0.3575,-0.0072,0.3782
0.026,0.186,0.186,57.8,29.3,-25.4,1023,2018,5,11,13,20,22.699,0.8534,-0.3495,-0.0131,0.3864
0.015,0.21,0.276,42.2,46.2,-16.6,1023,2018,5,11,13,20,22.703,0.8542,-0.3403,-0.0167,0.3927
0.015,0.24,0.265,25.6,48.3,-7.4,1023,2018,5,11,13,20,22.72,0.856,-0.3309,-0.0176,0.3965
0.03,0.324,0.235,10,42.9,5.8,1023,2018,5,11,13,20,22.738,0.8587,-0.3226,-0.0168,0.3977
0.01,0.298,0.288,-8.9,19.7,20.1,1023,2018,5,11,13,20,22.757,0.8614,-0.3178,-0.0155,0.3958
0.012,0.255,0.235,-26.8,1.8,32,1023,2018,5,11,13,20,22.777,0.8638,-0.3176,-0.0134,0.3908
0,0.153,0.148,-41.2,-7,42.1,1023,2018,5,11,13,20,22.818,0.8662,-0.3203,-0.0107,0.3833
-0.012,0.098,0.082,-50.6,1,49.7,1023,2018,5,11,13,20,22.838,0.8693,-0.323,-0.0066,0.3739
-0.04,0.011,0.037,-56,1.1,52.1,1023,2018,5,11,13,20,22.842,0.873,-0.3252,-0.0013,0.3632
-0.045,-0.03,-0.019,-57.9,-8.5,49.1,1023,2018,5,11,13,20,22.86,0.8761,-0.329,0.0037,0.3521
-0.04,-0.116,-0.105,-54.5,-15.6,42.4,1023,2018,5,11,13,20,22.899,0.878,-0.335,0.0084,0.3417
-0.037,-0.208,-0.17,-45,-10.3,32.2,1023,2018,5,11,13,20,22.919,0.8793,-0.3399,0.0131,0.333
-0.011,-0.206,-0.234,-28.4,-7.7,16.6,0,2018,5,11,13,20,22.924,0.8802,-0.3432,0.0168,0.3271
-0.018,-0.201,-0.226,-7.6,-21.5,-2.4,0,2018,5,11,13,20,22.943,0.8797,-0.3464,0.0183,0.325
-0.037,-0.228,-0.245,10.8,-34.7,-21,0,2018,5,11,13,20,22.982,0.8771,-0.3509,0.017,0.3271
0,-0.205,-0.23,30.9,-25.9,-34.4,0,2018,5,11,13,20,23.002,0.8736,-0.3546,0.0138,0.3328
0.01,-0.133,-0.163,48.2,-5.4,-45,0,2018,5,11,13,20,23.007,0.8703,-0.3547,0.0092,0.3414
0.023,0.027,-0.056,58.4,3.1,-53.9,0,2018,5,11,13,20,23.021,0.8671,-0.3519,0.0043,0.3523
0.019,0.174,0.031,60.6,2.3,-51.9,0,2018,5,11,13,20,23.04,0.864,-0.3475,-0.0007,0.3642
0.027,0.213,0.07,59.2,-5.4,-46.9,0,2018,5,11,13,20,23.06,0.8607,-0.3439,-0.0067,0.3752
0.034,0.207,0.098,56.1,-8.2,-38,0,2018,5,11,13,20,23.1,0.8572,-0.3414,-0.0134,0.3851
0.058,0.252,0.147,50.5,-0.1,-26.9,0,2018,5,11,13,20,23.12,0.8546,-0.3386,-0.0197,0.393
0.065,0.284,0.221,40.7,12.9,-12.8,0,2018,5,11,13,20,23.124,0.8535,-0.3345,-0.0249,0.3986
0.056,0.336,0.251,25,17,3.2,0,2018,5,11,13,20,23.142,0.8539,-0.3299,-0.0284,0.4013
0.033,0.32,0.239,8.2,13.7,20.3,0,2018,5,11,13,20,23.163,0.8556,-0.3261,-0.0306,0.4005
0.008,0.256,0.208,-8.5,5.9,34.9,0,2018,5,11,13,20,23.183,0.8582,-0.3242,-0.0316,0.3965
-0.021,0.203,0.174,-24,-6.2,45.8,0,2018,5,11,13,20,23.22,0.8611,-0.3249,-0.0316,0.3895
-0.033,0.115,0.127,-37.6,-14.3,53.1,0,2018,5,11,13,20,23.238,0.864,-0.3284,-0.0306,0.3802
-0.047,0.006,0.094,-47.7,2.5,58.8,0,2018,5,11,13,20,23.242,0.8678,-0.3309,-0.028,0.3694
-0.065,0.003,0.057,-55.6,12.3,60.2,0,2018,5,11,13,20,23.281,0.8727,-0.3317,-0.0236,0.3573
-0.091,-0.024,0.005,-61.1,4.3,58.4,0,2018,5,11,13,20,23.303,0.8773,-0.3331,-0.0183,0.3448
-0.073,-0.085,-0.053,-60.3,9.7,53.8,0,2018,5,11,13,20,23.307,0.8812,-0.3354,-0.0123,0.3326
-0.103,-0.068,-0.064,-57,8.6,47.5,0,2018,5,11,13,20,23.323,0.8849,-0.337,-0.0056,0.3213
-0.095,-0.182,-0.105,-53.4,-4,36.6,0,2018,5,11,13,20,23.361,0.8873,-0.3398,0.0004,0.3116
-0.087,-0.215,-0.127,-46.9,-5.5,24.1,0,2018,5,11,13,20,23.381,0.8886,-0.3433,0.0061,0.3039
-0.042,-0.224,-0.158,-38.3,-2.8,9.9,0,2018,5,11,13,20,23.385,0.8892,-0.3462,0.0115,0.2987
0.014,-0.149,-0.211,-22.9,-5.4,-3.5,0,2018,5,11,13,20,23.406,0.889,-0.3486,0.0161,0.2962
0.024,-0.139,-0.213,-4.1,-14,-17.1,0,2018,5,11,13,20,23.427,0.8877,-0.351,0.0183,0.297
0.019,-0.065,-0.15,10.9,-17.6,-28.6,0,2018,5,11,13,20,23.443,0.8855,-0.3534,0.0184,0.3008
0.02,-0.12,-0.092,21.4,-13.5,-35.5,0,2018,5,11,13,20,23.462,0.8824,-0.3562,0.017,0.3067
0.051,0.009,-0.051,30.1,0.9,-39.7,0,2018,5,11,13,20,23.483,0.8796,-0.3566,0.0151,0.3142
0.063,0.154,0.009,34.8,10.6,-37.4,0,2018,5,11,13,20,23.504,0.8779,-0.3538,0.0135,0.3222
0.058,0.258,0.114,32.4,15.3,-30.2,0,2018,5,11,13,20,23.524,0.8768,-0.3499,0.0112,0.3294
0.058,0.3,0.172,22.5,21.2,-17.4,0,2018,5,11,13,20,23.561,0.8766,-0.3454,0.0095,0.3347
0.069,0.366,0.18,9.3,18.4,-1.3,0,2018,5,11,13,20,23.581,0.8774,-0.3411,0.0087,0.3371
0.08,0.413,0.16,-3.1,4.3,17.8,0,2018,5,11,13,20,23.586,0.8786,-0.3392,0.0085,0.3359
0.064,0.333,0.165,-14.7,-7.6,34.1,0,2018,5,11,13,20,23.625,0.88,-0.3401,0.0082,0.3313
0.039,0.159,0.14,-24.8,-8.1,46.1,0,2018,5,11,13,20,23.644,0.8817,-0.343,0.0084,0.3236
0.013,0.043,0.1,-32.1,-0.7,50.2,0,2018,5,11,13,20,23.648,0.8844,-0.3446,0.01,0.3145
0.01,-0.064,0.035,-36,5.6,48.6,0,2018,5,11,13,20,23.664,0.8872,-0.346,0.0126,0.3047
0.001,-0.081,0.01,-36.1,10.3,44.3,0,2018,5,11,13,20,23.702,0.8899,-0.3472,0.0158,0.2951
-0.015,-0.132,0.009,-35.2,5.5,33.9,0,2018,5,11,13,20,23.722,0.8922,-0.3484,0.0191,0.2866
-0.006,-0.183,-0.032,-32,-3.1,20.9,1023,2018,5,11,13,20,23.726,0.8932,-0.3511,0.0223,0.28
0.008,-0.177,-0.075,-24.8,-8.2,6.9,1023,2018,5,11,13,20,23.764,0.8932,-0.3537,0.0256,0.2761
0.029,-0.123,-0.115,-14.9,-8.7,-5.7,1023,2018,5,11,13,20,23.768,0.8926,-0.356,0.0282,0.2749
0.038,-0.087,-0.131,-1.8,-5.1,-15.1,1023,2018,5,11,13,20,23.786,0.8916,-0.3574,0.0298,0.2761
0.044,-0.004,-0.096,9.4,-1.2,-21.3,1023,2018,5,11,13,20,23.807,0.8902,-0.3584,0.0305,0.2792
0.045,0.065,-0.046,18.1,2.4,-23.2,1023,2018,5,11,13,20,23.828,0.889,-0.3578,0.0304,0.2837
0.048,0.096,0.002,23.2,4.2,-23.3,1023,2018,5,11,13,20,23.848,0.8882,-0.356,0.0296,0.2888
0.053,0.125,0.04,24.1,11.1,-19.7,1023,2018,5,11,13,20,23.867,0.8877,-0.3531,0.0281,0.2939
0.055,0.172,0.096,19.2,21.7,-11.9,1023,2018,5,11,13,20,23.907,0.888,-0.3495,0.0267,0.2974
0.06,0.284,0.128,10.1,24.4,-0.8,1023,2018,5,11,13,20,23.926,0.8892,-0.3449,0.0262,0.2992
0.062,0.327,0.14,-1.3,6.9,11.9,1023,2018,5,11,13,20,23.93,0.8905,-0.3422,0.026,0.2984
0.068,0.304,0.133,-12.7,-15.6,24.1,1023,2018,5,11,13,20,23.945,0.8912,-0.3431,0.0257,0.2953
0.048,0.151,0.104,-22.3,-26.8,33.4,0,2018,5,11,13,20,23.985,0.8912,-0.3481,0.0257,0.2896
0.026,0,0.063,-27.3,-8.8,38.2,0,2018,5,11,13,20,24.006,0.8918,-0.3521,0.0268,0.2826
0.017,-0.014,0.031,-28.7,13.2,38.8,0,2018,5,11,13,20,24.01,0.8938,-0.3529,0.0291,0.2749
0.018,-0.006,0.024,-28.5,20.2,36.6,0,2018,5,11,13,20,24.027,0.8966,-0.3517,0.0323,0.267
0.005,-0.016,0.01,-26.8,4.8,30.5,0,2018,5,11,13,20,24.066,0.8988,-0.351,0.0353,0.26
0.009,-0.1,-0.043,-22.9,-3.7,23,0,2018,5,11,13,20,24.085,0.8995,-0.353,0.0375,0.2542
0.011,-0.134,-0.064,-14.9,2.3,15,0,2018,5,11,13,20,24.089,0.8998,-0.3554,0.0391,0.2498
0.013,-0.077,-0.057,-6.6,7.6,6.5,0,2018,5,11,13,20,24.129,0.9002,-0.3559,0.04,0.2474
0.016,-0.07,-0.069,2,7.2,-3.1,0,2018,5,11,13,20,24.148,0.9005,-0.3556,0.0406,0.2469
0.021,-0.004,-0.047,9.2,2.9,-9,0,2018,5,11,13,20,24.152,0.9003,-0.3551,0.0404,0.2482
0.017,0.037,-0.031,15.2,1.5,-11.8,0,2018,5,11,13,20,24.168,0.8999,-0.3544,0.0395,0.2507
0.014,0.081,0.001,18.5,2.5,-12.7,0,2018,5,11,13,20,24.206,0.8996,-0.353,0.0381,0.2538
0.024,0.119,0.05,19.7,2.2,-11.9,0,2018,5,11,13,20,24.224,0.8996,-0.3506,0.0363,0.2574
0.065,0.102,0.058,20.4,1.3,-10.7,0,2018,5,11,13,20,24.228,0.8994,-0.3493,0.0341,0.2604
0.072,0.152,0.069,19,5.6,-6.6,0,2018,5,11,13,20,24.266,0.8992,-0.348,0.0317,0.2628
0.056,0.2,0.111,14.7,9.3,1.7,0,2018,5,11,13,20,24.287,0.8996,-0.3463,0.0297,0.2641
0.043,0.227,0.157,7.1,10.3,11.4,0,2018,5,11,13,20,24.291,0.9006,-0.3441,0.0279,0.2637
0.046,0.223,0.125,-1.6,1.8,21.2,0,2018,5,11,13,20,24.309,0.9019,-0.3426,0.0266,0.2615
0.055,0.133,0.082,-8.2,-8.1,28.9,0,2018,5,11,13,20,24.333,0.9028,-0.3437,0.0258,0.2571
0.048,0.055,0.073,-15.2,-2.5,36.3,0,2018,5,11,13,20,24.351,0.9039,-0.3449,0.0257,0.2513
0.033,0.038,0.085,-21.1,8.7,39.9,0,2018,5,11,13,20,24.369,0.9059,-0.3444,0.0268,0.2445
0.018,0.069,0.058,-27.6,10.8,40.7,0,2018,5,11,13,20,24.389,0.9084,-0.343,0.029,0.2369
0.017,0.021,0.03,-31.9,3.4,39.1,0,2018,5,11,13,20,24.408,0.9105,-0.3428,0.032,0.2288
0.024,-0.033,-0.022,-32.2,-1.3,36.6,0,2018,5,11,13,20,24.43,0.9118,-0.3442,0.035,0.2209
0.024,-0.085,-0.067,-27.9,6.8,33.4,0,2018,5,11,13,20,24.45,0.9128,-0.346,0.038,0.2135
0.013,-0.084,-0.075,-21,10,26.4,0,2018,5,11,13,20,24.489,0.9139,-0.3467,0.0404,0.2069
0.006,-0.078,-0.051,-13.1,4.9,16.3,0,2018,5,11,13,20,24.508,0.9147,-0.3472,0.0421,0.2024
0.012,-0.055,-0.056,-5.6,-2.1,6.6,0,2018,5,11,13,20,24.512,0.9148,-0.3483,0.0429,0.1998
0.02,-0.052,-0.095,2.5,-9.7,-3.4,0,2018,5,11,13,20,24.532,0.9141,-0.3503,0.043,0.1994
0.027,-0.04,-0.085,11,-9.1,-10.2,0,2018,5,11,13,20,24.552,0.9128,-0.3528,0.0422,0.201
0.028,0.001,-0.004,17.6,2.3,-13,0,2018,5,11,13,20,24.568,0.9121,-0.3533,0.0407,0.2038
0.022,0.05,0.042,19.8,10.5,-15.2,0,2018,5,11,13,20,24.606,0.9122,-0.3509,0.039,0.2075
0.028,0.105,0.053,18.9,13.6,-14.4,0,2018,5,11,13,20,24.625,0.9128,-0.3473,0.0377,0.2111
0.039,0.129,0.067,15,11.5,-12.1,0,2018,5,11,13,20,24.629,0.9134,-0.3437,0.0366,0.2145
0.065,0.142,0.041,10.8,7,-8,0,2018,5,11,13,20,24.667,0.9137,-0.3415,0.0354,0.2169
0.097,0.14,0.023,8.8,3.9,-3,0,2018,5,11,13,20,24.687,0.9139,-0.3402,0.0344,0.2184
0.116,0.076,0.018,10.6,-0.4,1.8,1023,2018,5,11,13,20,24.691,0.9139,-0.34,0.033,0.2189
0.085,0.226,0.081,6.4,16.1,13.5,1023,2018,5,11,13,20,24.712,0.9148,-0.3383,0.0315,0.2182
0.064,0.271,0.131,-2.1,21,25.8,1023,2018,5,11,13,20,24.732,0.9167,-0.3352,0.0307,0.2149
0.057,0.215,0.097,-10.6,4.7,33.9,1023,2018,5,11,13,20,24.77,0.9186,-0.3334,0.0306,0.2096
0.051,0.046,0.033,-15.9,-5,37.1,1023,2018,5,11,13,20,24.791,0.9198,-0.334,0.031,0.2032
0.04,-0.069,0.01,-16.3,0,36.6,1023,2018,5,11,13,20,24.795,0.9208,-0.3353,0.0315,0.1966
0.007,-0.038,0.047,-17.4,21.9,34.1,1023,2018,5,11,13,20,24.815,0.9225,-0.3343,0.0325,0.1901
-0.004,-0.02,0.081,-20.7,30.1,31.3,1023,2018,5,11,13,20,24.834,0.9251,-0.3304,0.0345,0.1834
-0.003,-0.015,0.063,-24.9,15.9,22.6,1023,2018,5,11,13,20,24.852,0.9273,-0.3271,0.0374,0.1776
0.017,-0.057,-0.013,-25.6,-4.8,13.7,1023,2018,5,11,13,20,24.872,0.9279,-0.3275,0.0406,0.1732
0.038,-0.106,-0.054,-19.9,-4.1,5.3,1023,2018,5,11,13,20,24.911,0.9274,-0.33,0.0437,0.1704
0.037,-0.083,-0.03,-12.9,6.6,-2.2,0,2018,5,11,13,20,24.915,0.9269,-0.3314,0.0464,0.1693
0.043,-0.006,-0.017,-8.8,17.9,-6.4,0,2018,5,11,13,20,24.932,0.9273,-0.3299,0.0491,0.1694
0.061,-0.135,-0.115,-7.3,55.4,-7.1,0,2018,5,11,13,20,24.97,0.9286,-0.3254,0.0522,0.1699
0.112,-0.675,-0.251,6.3,213.9,-7.1,0,2018,5,11,13,20,24.99,0.9358,-0.3037,0.0569,0.1694
0.107,-0.126,-0.197,25.9,322.6,-15.8,0,2018,5,11,13,20,24.995,0.9494,-0.2568,0.0628,0.1693
0.081,0.325,-0.109,23.6,282.4,-17.6,0,2018,5,11,13,20,25.032,0.9617,-0.2036,0.0683,0.1698
0.053,0.503,-0.025,12.9,137.8,-25.2,0,2018,5,11,13,20,25.054,0.9682,-0.167,0.0721,0.1716
0.065,0.217,0.015,-0.6,6.5,-26.7,0,2018,5,11,13,20,25.058,0.9691,-0.1561,0.0737,0.1756
0.094,-0.035,0.013,-4.2,-19.4,-26,0,2018,5,11,13,20,25.07,0.9678,-0.1581,0.0753,0.1802
0.078,-0.04,0.002,-7.1,-9,-25.3,0,2018,5,11,13,20,25.11,0.9664,-0.1609,0.0771,0.1846
0.089,0.035,-0.029,-11.5,-9.7,-25.1,0,2018,5,11,13,20,25.13,0.9651,-0.1621,0.0799,0.189
0.091,0.078,-0.048,-15.1,-40.7,-25.4,0,2018,5,11,13,20,25.134,0.9634,-0.166,0.083,0.1933
0.096,0.049,-0.02,-16.8,-78.8,-29.2,0,2018,5,11,13,20,25.153,0.9603,-0.1764,0.0846,0.1983
0.097,-0.069,-0.041,-17.4,-92.9,-37.1,0,2018,5,11,13,20,25.175,0.9558,-0.1919,0.0864,0.2048
0.091,-0.097,-0.063,-12.9,-84.4,-44.8,0,2018,5,11,13,20,25.196,0.951,-0.2066,0.0872,0.2125
0.056,-0.041,-0.013,-11.2,-77.8,-47.9,0,2018,5,11,13,20,25.233,0.9458,-0.2204,0.0884,0.2211
0.057,0.038,0.022,-12.9,-82.4,-50.3,0,2018,5,11,13,20,25.254,0.9405,-0.2332,0.0897,0.23
0.068,0.018,-0.042,-11.5,-93.7,-55.3,0,2018,5,11,13,20,25.259,0.9344,-0.2472,0.091,0.2397
0.076,-0.018,-0.095,-2.6,-101.2,-62.7,0,2018,5,11,13,20,25.277,0.9271,-0.263,0.0914,0.2507
0.031,0.029,-0.002,7.1,-94.5,-67.1,0,2018,5,11,13,20,25.293,0.9193,-0.2779,0.0901,0.2632
-0.014,0.096,0.095,8.9,-81.2,-66.9,0,2018,5,11,13,20,25.331,0.9121,-0.2896,0.088,0.2761
-0.015,0.121,0.071,7.7,-77.4,-63.2,0,2018,5,11,13,20,25.351,0.9051,-0.3001,0.0862,0.2882
0.023,0.088,-0.042,13.4,-83.6,-61.3,0,2018,5,11,13,20,25.377,0.898,-0.3103,0.0842,0.3001
0.026,0.13,0.003,25.3,-85.5,-62.2,0,2018,5,11,13,20,25.39,0.8902,-0.3213,0.0806,0.3124
-0.016,0.126,0.146,32.3,-79,-62.7,0,2018,5,11,13,20,25.392,0.8825,-0.3314,0.0751,0.325
-0.015,0.131,0.171,32.3,-65,-60.8,0,2018,5,11,13,20,25.43,0.8751,-0.3397,0.0695,0.3374
0.024,0.135,0.095,31.1,-49,-54,0,2018,5,11,13,20,25.45,0.8687,-0.3455,0.0647,0.3489
0.041,0.172,0.061,32.5,-38.8,-45.7,0,2018,5,11,13,20,25.454,0.8633,-0.3494,0.06,0.359
-0.005,0.237,0.17,14.3,-42,-24.2,0,2018,5,11,13,20,25.492,0.8508,-0.358,0.0473,0.3816
0.022,0.184,0.118,8.9,-38,-13.1,0,2018,5,11,13,20,25.494,0.847,-0.363,0.0438,0.3856
0,0.238,0.173,3.3,-15.7,2,0,2018,5,11,13,20,25.514,0.845,-0.3665,0.0414,0.3869
-0.041,0.252,0.198,-6.6,-5,14.4,0,2018,5,11,13,20,25.533,0.8451,-0.3678,0.0405,0.3856
-0.056,0.27,0.129,-16.8,-13.7,26.4,0,2018,5,11,13,20,25.556,0.8459,-0.37,0.0404,0.3819
-0.059,0.161,0.048,-22,-24,36.3,0,2018,5,11,13,20,25.592,0.8466,-0.3742,0.0397,0.3761
-0.081,0.012,0.014,-21.3,-20.7,40.2,0,2018,5,11,13,20,25.612,0.8477,-0.3786,0.0385,0.3693
-0.107,-0.05,0.023,-17.1,-9.6,38.6,0,2018,5,11,13,20,25.615,0.8494,-0.3819,0.0367,0.362
-0.125,-0.04,0.045,-13.6,-9.1,31.9,0,2018,5,11,13,20,25.652,0.8513,-0.384,0.035,0.3556
-0.142,-0.063,0.055,-12.9,-18.2,23.1,1023,2018,5,11,13,20,25.673,0.8522,-0.3868,0.0338,0.3506
-0.147,-0.094,0.038,-10.9,-33.5,11.8,1023,2018,5,11,13,20,25.676,0.8514,-0.3916,0.0329,0.3473
-0.116,-0.15,-0.026,-2.1,-43.2,-4.7,1023,2018,5,11,13,20,25.717,0.8488,-0.3977,0.0311,0.3467
-0.08,-0.091,-0.046,11.1,-39.4,-18.9,1023,2018,5,11,13,20,25.736,0.8451,-0.4035,0.0286,0.3492
-0.073,-0.046,0.026,21.4,-26.8,-26,1023,2018,5,11,13,20,25.74,0.8414,-0.4075,0.0248,0.3537
-0.036,0.081,0.094,23.9,-18.3,-26.1,1023,2018,5,11,13,20,25.756,0.8387,-0.4084,0.0216,0.3593
0.01,0.097,0.078,22.8,-16,-23.6,1023,2018,5,11,13,20,25.794,0.8365,-0.4081,0.019,0.3651
0.046,0.1,0.031,23.3,-12.3,-19.5,1023,2018,5,11,13,20,25.816,0.8342,-0.408,0.017,0.3703
0.055,0.154,0.07,23.6,-2.1,-12.6,1023,2018,5,11,13,20,25.82,0.8327,-0.4075,0.0146,0.3744
0.055,0.187,0.149,17.8,9.1,-3.3,1023,2018,5,11,13,20,25.838,0.8326,-0.4054,0.0122,0.3771
0.067,0.231,0.146,7.3,14.9,7.6,1023,2018,5,11,13,20,25.875,0.8336,-0.4028,0.0112,0.3776
0.07,0.221,0.111,-3.5,17.3,19.7,1023,2018,5,11,13,20,25.895,0.8357,-0.4004,0.011,0.3756
0.066,0.206,0.067,-11.3,18.1,30.3,1023,2018,5,11,13,20,25.899,0.8386,-0.3982,0.0116,0.3712
0.039,0.13,0.05,-17,13.6,36.3,0,2018,5,11,13,20,25.938,0.8419,-0.397,0.0124,0.3652
0.022,0.035,0.025,-19.7,15.7,38.3,0,2018,5,11,13,20,25.958,0.8452,-0.3959,0.0141,0.3585
-0.006,0.045,0.025,-20.5,25.4,39.3,0,2018,5,11,13,20,25.962,0.8491,-0.394,0.0161,0.3513
-0.042,0.054,0.045,-23.9,14.6,37.1,0,2018,5,11,13,20,25.999,0.8531,-0.3917,0.0181,0.344
-0.049,-0.027,0.014,-25.2,-15.1,29.7,0,2018,5,11,13,20,26.02,0.8552,-0.3929,0.0192,0.3372
-0.023,-0.141,-0.042,-20.6,-38.6,16.4,0,2018,5,11,13,20,26.024,0.8543,-0.3991,0.0186,0.3321
0,-0.178,-0.051,-9,-32.7,0.7,0,2018,5,11,13,20,26.038,0.852,-0.4058,0.018,0.3299
0.024,-0.117,-0.051,4,-16.2,-12.8,0,2018,5,11,13,20,26.073,0.8496,-0.4106,0.0173,0.3305
0.038,0.015,-0.019,15.3,-5.7,-20.8,0,2018,5,11,13,20,26.094,0.8476,-0.4121,0.0166,0.3338
0.048,0.09,0.016,21.7,-3.5,-22.3,0,2018,5,11,13,20,26.101,0.846,-0.4115,0.0159,0.3386
0.052,0.072,0.03,25.8,-1.8,-20.8,0,2018,5,11,13,20,26.12,0.8446,-0.4098,0.0144,0.344
0.056,0.106,0.052,26.3,5,-16.3,0,2018,5,11,13,20,26.142,0.8437,-0.4074,0.0126,0.3491
0.056,0.216,0.073,21.3,14.5,-5.6,0,2018,5,11,13,20,26.161,0.8438,-0.4046,0.0105,0.3523
0.038,0.249,0.118,11.7,21.9,6.5,0,2018,5,11,13,20,26.181,0.8451,-0.4008,0.0091,0.3534
0.04,0.249,0.148,0.7,23.1,18,0,2018,5,11,13,20,26.219,0.8476,-0.3968,0.0087,0.352
0.033,0.122,0.09,-16.8,7.7,32.6,0,2018,5,11,13,20,26.238,0.8528,-0.3934,0.0092,0.3431
0.004,0.069,0.092,-23.2,4.9,35.3,0,2018,5,11,13,20,26.243,0.8555,-0.3928,0.0104,0.3369
0.002,0.01,0.066,-25.7,2.4,33,0,2018,5,11,13,20,26.261,0.858,-0.393,0.0121,0.3302
0.002,-0.003,0.053,-26.1,-6.4,26.5,0,2018,5,11,13,20,26.281,0.8597,-0.3945,0.0139,0.3241
0.006,-0.073,0.023,-21.5,-17.7,15.7,0,2018,5,11,13,20,26.302,0.86,-0.3974,0.0151,0.3194
0.018,-0.093,-0.018,-13,-25.3,1.1,0,2018,5,11,13,20,26.339,0.8587,-0.4021,0.0155,0.317
0.051,-0.091,-0.054,3.1,-21.2,-14.7,0,2018,5,11,13,20,26.359,0.8562,-0.4069,0.0155,0.3176
0.045,-0.01,0.006,17.8,-12.1,-25.4,0,2018,5,11,13,20,26.364,0.8536,-0.4094,0.0147,0.3216
0.043,0.051,0.05,26.3,-1.8,-28.3,0,2018,5,11,13,20,26.403,0.8516,-0.4089,0.0135,0.3275
0.046,0.034,0.022,30.5,5.4,-28.1,0,2018,5,11,13,20,26.407,0.8502,-0.4064,0.0118,0.3342
0.044,0.151,0.017,30.8,9.7,-22,0,2018,5,11,13,20,26.423,0.8493,-0.4031,0.01,0.3404
0.034,0.257,0.056,26.5,10.1,-9.7,0,2018,5,11,13,20,26.44,0.8491,-0.3999,0.0074,0.3447
0.017,0.251,0.153,17.5,15.2,1,0,2018,5,11,13,20,26.46,0.8498,-0.3968,0.0052,0.3468
0.013,0.215,0.168,3.2,22,14.9,0,2018,5,11,13,20,26.481,0.8515,-0.3934,0.0042,0.3464
0.003,0.227,0.143,-11.3,30.9,29.7,0,2018,5,11,13,20,26.501,0.8548,-0.3895,0.0049,0.3427
-0.012,0.167,0.111,-24,20.8,39.6,0,2018,5,11,13,20,26.521,0.8587,-0.3866,0.0069,0.3361
-0.01,0.049,0.051,-31.8,4.2,41.3,0,2018,5,11,13,20,26.542,0.862,-0.3859,0.009,0.3282
-0.006,-0.016,-0.001,-33.2,0.3,37.6,0,2018,5,11,13,20,26.563,0.8644,-0.3873,0.0112,0.3202
-0.02,-0.048,0.024,-32.4,-0.3,31.7,0,2018,5,11,13,20,26.6,0.8662,-0.3894,0.0137,0.3125
-0.001,-0.081,0.006,-29.4,-5.3,22.1,0,2018,5,11,13,20,26.62,0.8674,-0.3917,0.0161,0.3062
0.032,-0.091,-0.066,-19.5,-11.6,10.5,0,2018,5,11,13,20,26.625,0.8673,-0.3952,0.0183,0.3019
0.062,-0.098,-0.111,-2.6,-9.9,-2.9,0,2018,5,11,13,20,26.643,0.8664,-0.3979,0.019,0.3007
0.048,-0.032,-0.027,13.4,-0.5,-13.2,0,2018,5,11,13,20,26.664,0.8654,-0.3988,0.0184,0.3026
0.017,0.03,0.064,20.9,4.2,-19,0,2018,5,11,13,20,26.702,0.8647,-0.3973,0.0173,0.3065
0.014,0.092,0.073,22.5,8.3,-20,0,2018,5,11,13,20,26.722,0.8644,-0.3943,0.016,0.3113
0.026,0.126,0.041,22.3,6.3,-18.3,0,2018,5,11,13,20,26.727,0.8642,-0.3911,0.0151,0.3161
0.028,0.095,0.046,22.4,5.6,-16.3,0,2018,5,11,13,20,26.746,0.8639,-0.3881,0.0138,0.3206
0.045,0.074,0.052,19.8,2.3,-12.6,0,2018,5,11,13,20,26.765,0.8635,-0.3857,0.0126,0.3245
0.045,0.165,0.068,13.3,14,-2.8,1023,2018,5,11,13,20,26.786,0.8637,-0.3831,0.0115,0.3271
0.037,0.194,0.077,2.2,20.7,10.5,1023,2018,5,11,13,20,26.806,0.8652,-0.3799,0.011,0.3269
0.042,0.176,0.059,-7.9,23.1,21.7,1023,2018,5,11,13,20,26.827,0.8677,-0.3765,0.0117,0.3242
0.031,0.164,0.051,-16.5,13.9,30.2,1023,2018,5,11,13,20,26.845,0.8704,-0.3742,0.0128,0.3194
0.022,0.117,0.017,-22.7,-3.3,34.3,1023,2018,5,11,13,20,26.866,0.8727,-0.3739,0.0144,0.3134
0.004,-0.007,-0.03,-24.7,-13,33,1023,2018,5,11,13,20,26.886,0.8739,-0.3765,0.0155,0.3069
-0.014,-0.066,-0.025,-22.3,-10.1,29,1023,2018,5,11,13,20,26.906,0.8745,-0.3802,0.0163,0.3004
-0.021,-0.017,0.027,-20.1,-5.4,22.2,1023,2018,5,11,13,20,26.924,0.8752,-0.3828,0.0172,0.295
-0.006,-0.032,0.056,-19,-5.6,13.2,1023,2018,5,11,13,20,26.961,0.8758,-0.3844,0.0186,0.291
0.028,0.001,-0.006,-13,-9.8,3,1023,2018,5,11,13,20,26.982,0.8756,-0.3865,0.0203,0.2888
0.049,-0.014,-0.014,-5.2,-10.6,-1.8,1023,2018,5,11,13,20,26.986,0.8745,-0.3893,0.0215,0.2881
0.029,0.06,0.063,-0.9,-3.5,-2.2,1023,2018,5,11,13,20,27.006,0.874,-0.3901,0.022,0.2887
0.041,0.093,0.071,-1,1.2,-1.4,1023,2018,5,11,13,20,27.025,0.8741,-0.3894,0.0227,0.2893
0.057,0.082,0.066,-1.5,5.6,-1.4,1023,2018,5,11,13,20,27.066,0.8744,-0.3882,0.0239,0.2897
0.067,0.078,0.072,-3,2.5,-0.6,0,2018,5,11,13,20,27.085,0.8748,-0.3871,0.025,0.2901
0.078,0.053,0.018,-3.2,3.7,2.5,0,2018,5,11,13,20,27.09,0.875,-0.3863,0.0262,0.2903
0.071,0.119,0.033,-6.3,18.3,11.9,0,2018,5,11,13,20,27.109,0.8761,-0.3847,0.0273,0.2889
0.054,0.193,0.104,-13.1,22,18.6,0,2018,5,11,13,20,27.128,0.8783,-0.3819,0.0288,0.2858
0.045,0.182,0.094,-20,5.6,24.1,0,2018,5,11,13,20,27.168,0.8803,-0.3806,0.0307,0.2812
0.044,0.086,0.027,-23.2,-7.9,26.7,0,2018,5,11,13,20,27.189,0.8813,-0.3819,0.0324,0.2761
0.04,0.046,-0.002,-21.5,-3.9,26.5,0,2018,5,11,13,20,27.193,0.882,-0.3838,0.0343,0.2708
0.015,-0.03,0.01,-17.4,3.3,24.1,0,2018,5,11,13,20,27.207,0.8831,-0.3849,0.0358,0.2657
0.01,-0.036,-0.012,-12,5,17.2,0,2018,5,11,13,20,27.228,0.8841,-0.3853,0.0371,0.2614
0.019,-0.055,-0.052,-4,-2.6,8.2,0,2018,5,11,13,20,27.248,0.8845,-0.3862,0.0376,0.2588
0.028,-0.043,-0.047,5.9,-7.3,-0.5,0,2018,5,11,13,20,27.283,0.8839,-0.3879,0.0371,0.2582
0.018,-0.015,-0.013,13.7,-6.8,-7.8,0,2018,5,11,13,20,27.304,0.883,-0.3891,0.0355,0.2597
0.017,0.008,0.007,19.5,1,-13.5,0,2018,5,11,13,20,27.308,0.8824,-0.3889,0.0337,0.2626
0.021,0.109,0.066,20,4.6,-13.8,0,2018,5,11,13,20,27.347,0.8822,-0.3868,0.032,0.2664
0.016,0.156,0.12,14.7,6.2,-9.6,0,2018,5,11,13,20,27.366,0.8823,-0.3844,0.0303,0.2696
0.032,0.13,0.086,8.7,2.3,-4.7,0,2018,5,11,13,20,27.371,0.8822,-0.3834,0.0292,0.2713
0.051,0.137,0.033,5,-0.3,0.2,0,2018,5,11,13,20,27.387,0.8823,-0.3828,0.0283,0.2722
0.053,0.13,0.054,0.3,-1.8,6.6,0,2018,5,11,13,20,27.424,0.8824,-0.3827,0.0275,0.2719
0.044,0.157,0.105,-7.1,-2.5,13.4,0,2018,5,11,13,20,27.443,0.8827,-0.3833,0.0273,0.2701
0.04,0.134,0.097,-15,-4.1,20.3,0,2018,5,11,13,20,27.448,0.8832,-0.3844,0.0276,0.2668
0.039,0.087,0.064,-21,-3.2,24.4,0,2018,5,11,13,20,27.486,0.8841,-0.3856,0.0291,0.2622
0.039,0.065,0.025,-23,-2.3,25.7,0,2018,5,11,13,20,27.506,0.885,-0.3867,0.0315,0.257
0.036,0.033,0,-21.5,-3.8,24.9,0,2018,5,11,13,20,27.511,0.8858,-0.3882,0.0337,0.2516
0.023,0.039,0.024,-18.1,-7.7,22.1,0,2018,5,11,13,20,27.531,0.8864,-0.3896,0.0351,0.2471
0.016,0.042,0.025,-15.7,-18.2,18.8,0,2018,5,11,13,20,27.551,0.8864,-0.3921,0.036,0.243
0.017,0.019,-0.006,-13,-23.7,15.6,0,2018,5,11,13,20,27.57,0.8856,-0.3961,0.0364,0.2396
0.029,-0.051,-0.048,-6.2,-12.7,11.6,0,2018,5,11,13,20,27.59,0.8846,-0.3999,0.0363,0.2369
0.021,0.014,-0.012,0.7,-6.2,7.8,0,2018,5,11,13,20,27.608,0.8842,-0.4017,0.0359,0.2354
0.027,0.051,0.007,4.9,-11.9,3.7,0,2018,5,11,13,20,27.629,0.8838,-0.4029,0.035,0.2349
0.04,0.071,-0.008,8,-22.1,1.6,0,2018,5,11,13,20,27.649,0.8828,-0.405,0.0335,0.2354
0.031,0.076,0.029,7.8,-36.3,2.7,0,2018,5,11,13,20,27.669,0.8809,-0.4088,0.0314,0.2361
0.026,0.121,0.079,0,-50.4,7.1,0,2018,5,11,13,20,27.69,0.8782,-0.4146,0.0291,0.2362
0.022,0.159,0.108,-11.6,-69.1,14.1,0,2018,5,11,13,20,27.71,0.8743,-0.424,0.0268,0.2344
0.016,0.179,0.124,-26.3,-84.4,21,0,2018,5,11,13,20,27.73,0.8692,-0.4365,0.0251,0.2308
0.037,-0.032,0.067,-39,-60.2,27.4,0,2018,5,11,13,20,27.768,0.8642,-0.4491,0.0254,0.2249
0.048,-0.097,0.027,-43.3,-4.3,30.2,0,2018,5,11,13,20,27.79,0.8626,-0.4558,0.0284,0.2174
0.05,-0.007,0.028,-42,19.7,27.5,0,2018,5,11,13,20,27.794,0.8643,-0.4559,0.0334,0.2096
0.051,0.022,0.017,-38.5,0,20,0,2018,5,11,13,20,27.809,0.8658,-0.4557,0.0385,0.2029
0.069,-0.035,-0.009,-33.8,-26.7,11.4,0,2018,5,11,13,20,27.848,0.8647,-0.4595,0.0428,0.1979
0.08,-0.095,-0.056,-26.3,-24.1,4.3,0,2018,5,11,13,20,27.869,0.8619,-0.4658,0.0464,0.1946
0.095,-0.07,-0.103,-16.9,-5.8,0,0,2018,5,11,13,20,27.873,0.8604,-0.4692,0.0492,0.1926
0.096,0.034,-0.111,-6.2,-0.8,-3.9,0,2018,5,11,13,20,27.891,0.86,-0.47,0.0512,0.1918
0.089,0.029,-0.091,3.1,-11.3,-8.3,1023,2018,5,11,13,20,27.912,0.8592,-0.471,0.0517,0.1926
0.069,-0.011,-0.035,10.8,-14.3,-13.5,1023,2018,5,11,13,20,27.949,0.8573,-0.4734,0.0518,0.1951
0.065,-0.003,-0.033,15.1,-7.6,-17.1,1023,2018,5,11,13,20,27.97,0.8557,-0.4749,0.0513,0.1988
0.071,-0.033,-0.072,18.9,-0.7,-19.3,1023,2018,5,11,13,20,27.973,0.8544,-0.4754,0.0508,0.2031
0.085,0.055,-0.086,23.3,-1.2,-19.7,1023,2018,5,11,13,20,28.01,0.8536,-0.4749,0.0497,0.2079
0.077,0.077,-0.063,27.2,-12.3,-21.9,1023,2018,5,11,13,20,28.03,0.8523,-0.475,0.0481,0.2133
0.081,0.037,-0.066,31,-27.6,-24.9,1023,2018,5,11,13,20,28.035,0.8496,-0.4771,0.0459,0.2198
0.072,-0.005,-0.074,37.8,-26.7,-27.7,1023,2018,5,11,13,20,28.055,0.846,-0.4804,0.0425,0.227
0.048,-0.031,0.006,41.7,-16.9,-30.2,1023,2018,5,11,13,20,28.076,0.843,-0.4821,0.0387,0.2349
0.061,0.009,-0.009,42.8,-3.4,-32.5,1023,2018,5,11,13,20,28.091,0.841,-0.4818,0.0351,0.2433
0.065,0.063,-0.05,44.7,5.1,-32.4,1023,2018,5,11,13,20,28.13,0.8397,-0.4799,0.0323,0.2519
0.053,0.047,-0.032,49,-4.3,-35,1023,2018,5,11,13,20,28.15,0.8383,-0.4776,0.0291,0.261
0.017,0.017,0.073,53.9,-20.6,-39.6,1023,2018,5,11,13,20,28.154,0.8356,-0.477,0.0246,0.271
-0.011,-0.057,0.129,52.9,-10.7,-41.8,0,2018,5,11,13,20,28.174,0.8327,-0.4763,0.0192,0.2815
0.022,0.028,0.076,50,9.3,-42,0,2018,5,11,13,20,28.195,0.8311,-0.4729,0.0154,0.2921
0.012,0.114,0.03,49.6,18.1,-40.2,0,2018,5,11,13,20,28.215,0.8306,-0.4672,0.0127,0.3025
0.008,0.128,0.064,49.8,1.4,-38.4,0,2018,5,11,13,20,28.235,0.8298,-0.462,0.0098,0.3125
-0.05,0.097,0.188,48,-6.3,-37,0,2018,5,11,13,20,28.274,0.8276,-0.4596,0.0054,0.322
-0.03,0.072,0.152,43.1,-8.5,-36.3,0,2018,5,11,13,20,28.293,0.8249,-0.4581,0.0013,0.331
-0.022,0.083,0.068,40.6,-4.5,-32.4,0,2018,5,11,13,20,28.297,0.8227,-0.4557,-0.0022,0.3396
-0.031,0.122,0.104,39.3,2.2,-26.3,0,2018,5,11,13,20,28.316,0.8212,-0.4526,-0.0055,0.3472
-0.046,0.16,0.18,33.5,5.2,-20.1,0,2018,5,11,13,20,28.336,0.8201,-0.4499,-0.0085,0.3533
-0.055,0.169,0.193,25.8,-1.7,-13.7,0,2018,5,11,13,20,28.353,0.8192,-0.4477,-0.0114,0.3581
-0.033,0.103,0.118,16.2,8.6,0,0,2018,5,11,13,20,28.393,0.818,-0.4454,-0.0165,0.3635
-0.049,0.153,0.139,11,17.9,7.4,0,2018,5,11,13,20,28.411,0.8194,-0.4422,-0.018,0.3641
-0.043,0.179,0.148,2.9,10.1,14.2,0,2018,5,11,13,20,28.415,0.8212,-0.4394,-0.019,0.3632
-0.036,0.172,0.147,-5.2,0,20.3,0,2018,5,11,13,20,28.452,0.8228,-0.4386,-0.0199,0.3606
-0.025,0.109,0.088,-12.4,-7.7,26.3,0,2018,5,11,13,20,28.474,0.824,-0.4396,-0.0207,0.3566
-0.047,-0.012,0.053,-18.3,-0.3,30.3,0,2018,5,11,13,20,28.478,0.8258,-0.4404,-0.0213,0.3514
-0.04,0.034,0.023,-21.2,11.1,32.4,0,2018,5,11,13,20,28.495,0.8286,-0.4399,-0.0208,0.3454
-0.05,0.041,0.005,-23.4,4.2,33.6,0,2018,5,11,13,20,28.535,0.8317,-0.4392,-0.0199,0.3389
-0.063,-0.023,-0.004,-24.1,-15.4,28.1,0,2018,5,11,13,20,28.556,0.8333,-0.4412,-0.0196,0.3323
-0.059,-0.143,-0.043,-20.1,-20.2,19.8,0,2018,5,11,13,20,28.56,0.8332,-0.4454,-0.0202,0.3268
-0.035,-0.194,-0.083,-8.2,-8.7,6.1,0,2018,5,11,13,20,28.575,0.8329,-0.4481,-0.0201,0.3238
-0.032,-0.119,-0.062,3.9,0.6,-6.7,0,2018,5,11,13,20,28.595,0.8325,-0.4489,-0.0203,0.3237
-0.014,-0.041,-0.056,13.6,-1.1,-16,0,2018,5,11,13,20,28.614,0.8315,-0.4492,-0.0211,0.3259
-0.006,-0.008,-0.036,21.6,0.4,-19.9,0,2018,5,11,13,20,28.653,0.8301,-0.4488,-0.0227,0.3299
0.015,0.052,-0.002,26.2,2.8,-19.6,0,2018,5,11,13,20,28.675,0.8291,-0.4468,-0.0244,0.3348
0.022,0.097,0.066,26.3,12.7,-16.8,0,2018,5,11,13,20,28.679,0.8286,-0.4438,-0.0263,0.34
0.022,0.217,0.134,19.2,18.1,-7.5,0,2018,5,11,13,20,28.698,0.8292,-0.4396,-0.0277,0.3438
0.036,0.277,0.154,7.7,12.9,3,0,2018,5,11,13,20,28.718,0.8303,-0.4364,-0.0286,0.3452
0.039,0.287,0.171,-5.4,-0.9,15.4,0,2018,5,11,13,20,28.757,0.8313,-0.4353,-0.0292,0.344
0.043,0.199,0.163,-17.1,-8.3,26,0,2018,5,11,13,20,28.762,0.8323,-0.4366,-0.0295,0.3401
0.024,0.077,0.126,-25.6,-10.6,30.3,0,2018,5,11,13,20,28.777,0.8334,-0.4389,-0.0293,0.3343
0.014,0.052,0.101,-31.9,-8.8,32.2,0,2018,5,11,13,20,28.796,0.8351,-0.4408,-0.0276,0.3278
-0.007,0.022,0.086,-36.6,-11.7,31.1,0,2018,5,11,13,20,28.816,0.8367,-0.4429,-0.0256,0.3208
-0.006,-0.066,0.018,-37.9,-17.2,26.3,0,2018,5,11,13,20,28.854,0.8374,-0.4468,-0.0232,0.3136
0.006,-0.108,-0.042,-32.3,-17.6,18.5,0,2018,5,11,13,20,28.875,0.8371,-0.4519,-0.0209,0.3072
0.001,-0.118,-0.029,-22.4,-13,8.5,0,2018,5,11,13,20,28.879,0.8363,-0.4566,-0.019,0.3027
-0.001,-0.095,-0.012,-14.3,-12.4,-1.8,0,2018,5,11,13,20,28.898,0.8353,-0.4599,-0.0175,0.3005
0.009,-0.041,-0.037,-3.2,-10.4,-10.6,0,2018,5,11,13,20,28.938,0.8338,-0.4626,-0.0164,0.3006
0.015,0,-0.044,7.2,-8.3,-15.4,0,2018,5,11,13,20,28.956,0.832,-0.4644,-0.0161,0.3027
0.015,0.059,-0.022,17.5,-3.7,-17.7,1023,2018,5,11,13,20,28.96,0.8305,-0.4647,-0.0168,0.3063
0.008,0.12,0.026,24,2.3,-17,1023,2018,5,11,13,20,28.979,0.8296,-0.4632,-0.0182,0.311
0.031,0.112,0.059,25,8.1,-13.1,1023,2018,5,11,13,20,28.998,0.8295,-0.4601,-0.0197,0.3156
0.051,0.119,0.068,21.8,13.3,-6.9,1023,2018,5,11,13,20,29.016,0.8301,-0.4564,-0.0212,0.3195
0.059,0.213,0.097,14.3,16.7,4.7,1023,2018,5,11,13,20,29.039,0.8311,-0.4533,-0.0228,0.3211
0.042,0.235,0.165,1.5,20.6,16.9,1023,2018,5,11,13,20,29.06,0.8332,-0.4502,-0.0237,0.3201
0.028,0.246,0.2,-14.1,12.3,27.2,1023,2018,5,11,13,20,29.077,0.8359,-0.4476,-0.0237,0.3165
0.028,0.126,0.126,-26.6,0.6,32.5,1023,2018,5,11,13,20,29.099,0.8381,-0.4478,-0.0228,0.3104
0.038,-0.027,0.027,-31.3,6.3,33.6,1023,2018,5,11,13,20,29.12,0.8404,-0.4485,-0.0206,0.3035
0.024,-0.051,-0.004,-29.3,22.6,33.8,1023,2018,5,11,13,20,29.14,0.8433,-0.4479,-0.0179,0.2964
-0.002,-0.005,0.064,-27.7,26.2,31,1023,2018,5,11,13,20,29.159,0.8472,-0.4451,-0.015,0.2895
-0.014,0.019,0.065,-29,3.8,24.5,1023,2018,5,11,13,20,29.201,0.8502,-0.4434,-0.0123,0.2833
-0.007,-0.061,0.006,-26,-14,15.8,1023,2018,5,11,13,20,29.206,0.8507,-0.4458,-0.0101,0.278
0,-0.147,-0.02,-16.9,-12.7,4.7,0,2018,5,11,13,20,29.219,0.8498,-0.4497,-0.0088,0.2746
0.013,-0.111,-0.038,-4.2,3.4,-6,0,2018,5,11,13,20,29.258,0.849,-0.4518,-0.0076,0.2737
0.001,0.033,0.008,3.2,11.2,-11.1,0,2018,5,11,13,20,29.279,0.8491,-0.4509,-0.0066,0.275
0.002,0.11,0.07,5.3,12.6,-11.1,0,2018,5,11,13,20,29.283,0.8498,-0.4481,-0.0055,0.2773
0.005,0.104,0.092,4,12.5,-10.2,0,2018,5,11,13,20,29.302,0.8506,-0.4451,-0.0043,0.2795
0.031,0.078,0.052,1.7,16.4,-6.9,0,2018,5,11,13,20,29.321,0.8517,-0.4419,-0.0028,0.2812
0.051,0.031,-0.008,1.8,17.7,-4.7,0,2018,5,11,13,20,29.341,0.8528,-0.439,-0.0011,0.2825
0.05,0.083,0.004,0.7,23.3,0.8,0,2018,5,11,13,20,29.379,0.8541,-0.4361,0.0003,0.2833
0.054,0.202,0.058,-3.7,31.7,11.4,0,2018,5,11,13,20,29.4,0.8566,-0.4317,0.0015,0.2823
0.055,0.187,0.07,-10.2,24.6,18.6,0,2018,5,11,13,20,29.404,0.8596,-0.4276,0.0028,0.2795
0.049,0.163,0.063,-18.4,14.3,26.8,0,2018,5,11,13,20,29.423,0.862,-0.4258,0.0044,0.2748
0.062,0.093,-0.005,-21.5,13.3,33.6,0,2018,5,11,13,20,29.442,0.8643,-0.4248,0.0058,0.2688
0.038,0.056,-0.018,-19.9,29.4,37.6,0,2018,5,11,13,20,29.462,0.8674,-0.4228,0.0082,0.262
0.007,0.045,0.069,-18.2,36.6,39.7,0,2018,5,11,13,20,29.479,0.8718,-0.4181,0.0101,0.2547
-0.019,0.053,0.115,-18.8,22,35.5,0,2018,5,11,13,20,29.501,0.8761,-0.4134,0.0116,0.2477
-0.024,-0.013,0.091,-20.8,-4.1,27.3,0,2018,5,11,13,20,29.536,0.8784,-0.4122,0.0125,0.2415
-0.005,-0.105,0.026,-18.2,-17.6,17.7,0,2018,5,11,13,20,29.557,0.8783,-0.4152,0.0132,0.2364
0.014,-0.124,0.014,-12,-6.2,7.4,0,2018,5,11,13,20,29.562,0.8776,-0.4183,0.0138,0.2334
0.02,-0.014,0.025,-7,5.3,0.2,0,2018,5,11,13,20,29.579,0.8777,-0.4188,0.015,0.2322
0.023,0.013,0.079,-6.3,12.7,-3.5,0,2018,5,11,13,20,29.601,0.8783,-0.4176,0.0167,0.232
0.028,0.077,0.088,-7.4,13,-4.6,0,2018,5,11,13,20,29.639,0.8795,-0.4148,0.019,0.2324
0.061,0.081,-0.021,-6.9,6.1,-2.8,0,2018,5,11,13,20,29.659,0.8802,-0.4128,0.0214,0.2328
0.084,0.062,-0.086,-2.2,4.1,-2.7,0,2018,5,11,13,20,29.663,0.8802,-0.4126,0.0235,0.2331
0.079,0.078,-0.045,0.5,-1.5,-1.1,0,2018,5,11,13,20,29.685,0.88,-0.4124,0.0248,0.2338
0.084,0.069,-0.01,0.1,-12.9,2.2,0,2018,5,11,13,20,29.705,0.8795,-0.4134,0.0254,0.2341
0.08,0.016,-0.037,-1.6,-1.9,8.5,0,2018,5,11,13,20,29.721,0.8789,-0.4149,0.0254,0.2338
0.092,0.027,-0.058,-1,21,12.8,0,2018,5,11,13,20,29.741,0.8798,-0.4137,0.026,0.2324
0.067,0.131,-0.006,-2.4,41.7,19.2,0,2018,5,11,13,20,29.777,0.8827,-0.4089,0.0273,0.2299
0.021,0.178,0.074,-8.4,30.5,23.3,0,2018,5,11,13,20,29.796,0.8863,-0.4031,0.028,0.2259
0.006,0.121,0.087,-15,-2.3,21.9,0,2018,5,11,13,20,29.803,0.8882,-0.4013,0.0287,0.2217
0,0.013,0.041,-18.5,-18.2,20.5,0,2018,5,11,13,20,29.842,0.8883,-0.4033,0.0295,0.2174
0.005,-0.04,0.026,-19,-12.6,18.6,0,2018,5,11,13,20,29.861,0.8878,-0.4066,0.0305,0.2131
-0.004,-0.045,0.033,-17.8,6.8,16.2,0,2018,5,11,13,20,29.865,0.8881,-0.4078,0.0318,0.2092
-0.014,0.013,0.055,-19,12,12.9,0,2018,5,11,13,20,29.885,0.8894,-0.4067,0.034,0.2054
-0.001,0.041,0.046,-19.8,1.7,9,0,2018,5,11,13,20,29.902,0.8904,-0.4059,0.0364,0.2023
-0.003,0.003,0.06,-19.5,-5.7,5,0,2018,5,11,13,20,29.923,0.8905,-0.4067,0.0389,0.1998
0.019,0.073,0.032,-18.5,-9.9,2.7,0,2018,5,11,13,20,29.96,0.8902,-0.408,0.0414,0.1982
0.042,-0.011,-0.03,-15.8,-12.3,3.6,0,2018,5,11,13,20,29.98,0.8893,-0.4104,0.0438,0.1968
0.069,0.026,-0.088,-11,3.2,4.9,0,2018,5,11,13,20,29.984,0.8887,-0.4121,0.0461,0.1954
0.07,-0.033,-0.088,-7.7,34.7,9.7,1023,2018,5,11,13,20,30.004,0.8899,-0.4101,0.0478,0.1934
0.073,0.041,-0.016,-5.1,70.6,14.8,1023,2018,5,11,13,20,30.024,0.8939,-0.4021,0.0504,0.191
0.045,0.186,0.103,-9.4,74.5,19.7,1023,2018,5,11,13,20,30.063,0.8997,-0.3905,0.0533,0.1871
0.037,0.179,0.102,-16,49,23.6,1023,2018,5,11,13,20,30.083,0.9044,-0.3817,0.056,0.1819
0.037,0.108,0.054,-19.2,25.4,25.8,1023,2018,5,11,13,20,30.087,0.9074,-0.3766,0.0584,0.1766
0.024,0.027,0.023,-19.5,13.1,25.7,1023,2018,5,11,13,20,30.109,0.9094,-0.3741,0.0608,0.1712
0.005,-0.005,0.039,-19.6,5,22.7,1023,2018,5,11,13,20,30.127,0.9105,-0.3733,0.0627,0.1659
-0.002,-0.02,0.047,-20.8,-2.8,17,1023,2018,5,11,13,20,30.166,0.911,-0.3738,0.0646,0.1615
0.005,0.011,0.052,-20.4,-17.1,8.3,1023,2018,5,11,13,20,30.186,0.9106,-0.3757,0.0668,0.1582
0.024,0,0.052,-21,-31.3,0.8,1023,2018,5,11,13,20,30.19,0.9089,-0.3802,0.0692,0.1565
0.034,0.029,0.084,-23.2,-32.3,-0.8,1023,2018,5,11,13,20,30.204,0.9065,-0.3857,0.0722,0.1554
0.043,0.028,0.109,-29.7,-32.2,0.3,1023,2018,5,11,13,20,30.242,0.9041,-0.391,0.0759,0.1541
0.057,0.07,0.029,-34.5,-35.1,1.7,1023,2018,5,11,13,20,30.261,0.9016,-0.3965,0.0806,0.1523
0.079,0.102,-0.148,-31,-30.7,6.4,0,2018,5,11,13,20,30.265,0.8989,-0.4027,0.0852,0.15
0.097,-0.004,-0.231,-18.7,-16.2,8,0,2018,5,11,13,20,30.304,0.897,-0.4071,0.0879,0.1473
0.093,-0.028,-0.17,-7.6,1.4,7,0,2018,5,11,13,20,30.324,0.8965,-0.4086,0.0892,0.1454
0.071,0,-0.03,-4.9,16.6,10.2,0,2018,5,11,13,20,30.328,0.8972,-0.4077,0.09,0.1436
0.059,0.047,-0.002,-5.4,33.8,13.3,0,2018,5,11,13,20,30.367,0.8991,-0.4041,0.0914,0.141
0.054,0.049,-0.054,-3.7,41.6,14.4,0,2018,5,11,13,20,30.386,0.902,-0.3982,0.0929,0.1379
0.05,-0.007,-0.093,-0.2,43.2,13.2,0,2018,5,11,13,20,30.413,0.9049,-0.3924,0.094,0.135
0.04,-0.017,-0.027,2.9,58,12.2,0,2018,5,11,13,20,30.426,0.9083,-0.3852,0.0947,0.1322
-0.016,0.086,0.178,-5.9,23.7,6.4,0,2018,5,11,13,20,30.427,0.9154,-0.3695,0.0959,0.1273
0.114,-0.116,-0.171,-2.7,41,-2.1,0,2018,5,11,13,20,30.464,0.9028,-0.3954,0.1074,0.1303
0.077,0.069,-0.012,-2.2,90,3.7,0,2018,5,11,13,20,30.482,0.9074,-0.3845,0.1097,0.1286
0.035,0.191,0.054,-7.1,79.7,6,0,2018,5,11,13,20,30.484,0.9133,-0.3705,0.1123,0.1256
0.022,0.179,-0.019,-9.8,21.7,4.9,0,2018,5,11,13,20,30.522,0.9166,-0.3626,0.1145,0.1231
0.029,0.039,-0.102,-5.3,-32.8,0.4,0,2018,5,11,13,20,30.542,0.9159,-0.3642,0.1159,0.1225
0.018,-0.118,-0.102,3.6,-47.7,-7.5,0,2018,5,11,13,20,30.546,0.9126,-0.3718,0.1157,0.1238
0,-0.128,-0.078,12.4,-39.5,-18.5,0,2018,5,11,13,20,30.584,0.9094,-0.3791,0.1142,0.1272
0.026,-0.097,-0.126,21.3,-31.4,-28.4,0,2018,5,11,13,20,30.604,0.9067,-0.3842,0.1123,0.1326
0.054,-0.07,-0.206,31.8,-37.1,-34.5,0,2018,5,11,13,20,30.608,0.9041,-0.3883,0.1095,0.1401
0.039,-0.033,-0.137,41.7,-47.6,-38.6,0,2018,5,11,13,20,30.625,0.901,-0.3935,0.1051,0.1491
0.024,-0.028,-0.017,46.3,-60,-45.3,0,2018,5,11,13,20,30.662,0.8966,-0.4005,0.0998,0.1598
0.036,-0.045,-0.031,48.7,-69,-51.1,0,2018,5,11,13,20,30.682,0.8912,-0.409,0.0942,0.1717
0.061,-0.034,-0.08,52.6,-74.3,-53.9,0,2018,5,11,13,20,30.686,0.8848,-0.4185,0.0883,0.1847
0.061,-0.021,-0.013,55.1,-70.7,-54,0,2018,5,11,13,20,30.723,0.878,-0.4275,0.082,0.1984
0.062,0.005,0.091,52.5,-55.4,-54.4,0,2018,5,11,13,20,30.743,0.8722,-0.4342,0.076,0.2118
0.07,0.035,0.074,48.9,-47.4,-54.6,0,2018,5,11,13,20,30.749,0.8671,-0.4386,0.0711,0.2249
0.081,0.059,-0.001,49.1,-52.6,-54.7,0,2018,5,11,13,20,30.77,0.8617,-0.443,0.0667,0.2379
0.06,0.107,0.116,48.3,-56.8,-52.3,0,2018,5,11,13,20,30.789,0.8556,-0.4485,0.0616,0.2505
0.049,0.109,0.182,42.7,-57.4,-49.8,0,2018,5,11,13,20,30.829,0.8493,-0.4546,0.0563,0.2622
0.039,0.082,0.127,38.1,-55.2,-48.1,0,2018,5,11,13,20,30.849,0.8428,-0.4608,0.0518,0.2731
0.03,0.043,0.057,37.2,-48.5,-45.2,0,2018,5,11,13,20,30.853,0.8369,-0.4654,0.0479,0.2837
0.008,0.002,0.086,39.6,-26.5,-40.8,0,2018,5,11,13,20,30.869,0.8321,-0.4684,0.0442,0.2934
-0.027,0.071,0.205,38.6,-10.5,-39.4,0,2018,5,11,13,20,30.906,0.8291,-0.4681,0.0408,0.3027
-0.028,0.124,0.213,32.7,-3.4,-37.5,0,2018,5,11,13,20,30.926,0.8268,-0.4668,0.0385,0.3113
-0.025,0.175,0.139,28.5,-9.5,-32.7,0,2018,5,11,13,20,30.93,0.8245,-0.4659,0.0368,0.3187
-0.033,0.157,0.117,26.2,-7.9,-23.3,0,2018,5,11,13,20,30.968,0.8222,-0.4658,0.0347,0.3249
-0.054,0.084,0.165,22.2,5.6,-14,1023,2018,5,11,13,20,30.989,0.8211,-0.4647,0.0326,0.3296
-0.053,0.085,0.144,16.5,33.4,-5.5,1023,2018,5,11,13,20,30.993,0.8223,-0.4607,0.032,0.3323
-0.054,0.111,0.096,12.2,40.6,2,1023,2018,5,11,13,20,31.011,0.8253,-0.4544,0.0322,0.3334
-0.045,0.205,0.029,9.8,33.9,11.9,1023,2018,5,11,13,20,31.031,0.8288,-0.4482,0.0323,0.3331
-0.069,0.059,-0.016,9.2,31.1,19.6,1023,2018,5,11,13,20,31.072,0.8326,-0.4425,0.0312,0.3315
-0.084,0.009,-0.017,10.4,42.9,23.5,1023,2018,5,11,13,20,31.077,0.837,-0.4364,0.0296,0.3286
-0.105,0.024,0.05,10.3,44.4,20.6,1023,2018,5,11,13,20,31.09,0.8421,-0.4288,0.0282,0.3256
-0.141,0.076,0.126,7.1,12.4,16.3,1023,2018,5,11,13,20,31.111,0.8454,-0.424,0.0272,0.3234
-0.138,0.009,0.115,1.3,-32.4,7.8,1023,2018,5,11,13,20,31.131,0.8453,-0.4255,0.0251,0.322
-0.137,-0.06,0.088,-2.6,-58.8,-0.7,1023,2018,5,11,13,20,31.168,0.8418,-0.4326,0.0222,0.3217
-0.095,-0.093,0.052,-2.1,-56.6,-9,1023,2018,5,11,13,20,31.189,0.8372,-0.4414,0.0189,0.3222
-0.06,-0.013,0.036,-0.6,-43.2,-13.6,1023,2018,5,11,13,20,31.193,0.8329,-0.4484,0.0164,0.3238
-0.036,0.038,0.045,0.8,-33.8,-13.4,0,2018,5,11,13,20,31.213,0.8295,-0.4532,0.0149,0.3259
0.001,0.074,0.016,3.8,-36.6,-13.2,0,2018,5,11,13,20,31.233,0.8263,-0.4573,0.0137,0.3282
0.019,0.106,-0.017,5.8,-39,-9.1,0,2018,5,11,13,20,31.254,0.8227,-0.462,0.0121,0.3306
0.016,0.078,-0.009,6.5,-32.5,-4.6,0,2018,5,11,13,20,31.273,0.8194,-0.4666,0.0102,0.3325
0.038,0.045,-0.005,5.8,-21,-2.2,0,2018,5,11,13,20,31.295,0.8172,-0.4696,0.0085,0.3338
0.067,-0.047,-0.049,6.2,-3.7,1.6,0,2018,5,11,13,20,31.316,0.816,-0.4713,0.0074,0.3345
0.075,-0.096,-0.087,8.3,31,6.9,0,2018,5,11,13,20,31.354,0.8168,-0.4696,0.0068,0.3346
0.057,0.094,-0.005,7.8,80.3,13.2,0,2018,5,11,13,20,31.358,0.822,-0.4611,0.0087,0.3338
0.012,0.24,0.089,2.9,79,20.5,0,2018,5,11,13,20,31.374,0.8298,-0.4485,0.0114,0.3317
-0.015,0.279,0.145,-5.2,20.4,21.1,0,2018,5,11,13,20,31.409,0.835,-0.4411,0.0129,0.3285
-0.012,0.099,0.11,-13.1,-38.7,19.6,0,2018,5,11,13,20,31.432,0.8351,-0.4436,0.012,0.3248
-0.019,-0.05,0.098,-16,-62,15.4,0,2018,5,11,13,20,31.436,0.8322,-0.4516,0.0096,0.3215
-0.027,-0.104,0.149,-19,-38.7,12.7,0,2018,5,11,13,20,31.454,0.8292,-0.4595,0.0077,0.318
-0.015,-0.063,0.132,-19,-6,5.5,0,2018,5,11,13,20,31.491,0.8283,-0.4629,0.0081,0.3151
0.017,-0.014,0.032,-13.4,0.4,-2.3,0,2018,5,11,13,20,31.512,0.8287,-0.4633,0.0101,0.3137
0.046,0.029,-0.018,-6.9,-10.1,-6.9,0,2018,5,11,13,20,31.517,0.828,-0.4644,0.012,0.3138
0.041,0.059,0.025,-3.7,-21.5,-6,0,2018,5,11,13,20,31.535,0.8262,-0.4669,0.0129,0.3147
0.032,0.093,0.013,-3.7,-22.4,-1.3,0,2018,5,11,13,20,31.574,0.8242,-0.4699,0.013,0.3154
0.033,0.058,-0.03,-3.9,-3.5,3.8,0,2018,5,11,13,20,31.578,0.8231,-0.4721,0.0134,0.3152
0.033,0.06,-0.023,-2.9,15.5,7.3,0,2018,5,11,13,20,31.593,0.824,-0.4711,0.0144,0.3142
0.032,0.013,-0.015,-3.7,31.3,13.7,0,2018,5,11,13,20,31.614,0.8263,-0.4681,0.0157,0.3127
0.028,0.045,0.015,-5.3,47.9,19.2,0,2018,5,11,13,20,31.65,0.8305,-0.4623,0.0175,0.31
0.018,0.109,0.029,-9.6,55.8,25,0,2018,5,11,13,20,31.67,0.836,-0.4547,0.0202,0.3062
0.007,0.132,0.02,-12.9,43.9,29.2,0,2018,5,11,13,20,31.674,0.8417,-0.4471,0.023,0.3015
0,0.092,-0.008,-16.3,37.6,33.5,0,2018,5,11,13,20,31.696,0.8467,-0.4414,0.0251,0.2958
-0.013,0.021,-0.008,-16.7,36.5,35.7,0,2018,5,11,13,20,31.718,0.8513,-0.4366,0.0269,0.2893
-0.032,0.054,0.066,-16.1,20.4,32.9,0,2018,5,11,13,20,31.737,0.8554,-0.4329,0.0281,0.2827
-0.025,0.073,0.123,-21.7,-8.4,29.6,0,2018,5,11,13,20,31.772,0.8577,-0.4321,0.0288,0.2767
-0.022,0.055,0.136,-26.2,-40.7,22.5,0,2018,5,11,13,20,31.793,0.8572,-0.4367,0.0293,0.2711
0.004,-0.04,0.07,-26.3,-50.1,12.7,0,2018,5,11,13,20,31.797,0.8545,-0.4446,0.0296,0.2667
0.026,-0.043,0.052,-22.6,-41.5,7.7,0,2018,5,11,13,20,31.816,0.8512,-0.4526,0.0302,0.2636
0.049,-0.015,0.093,-22.4,-23.1,6.7,0,2018,5,11,13,20,31.835,0.8489,-0.4584,0.0318,0.261
0.064,0.057,0.075,-24.9,-13.6,5.7,0,2018,5,11,13,20,31.854,0.8479,-0.4615,0.0346,0.2585
0.078,0.048,-0.014,-25.2,-14.8,6.4,0,2018,5,11,13,20,31.892,0.8468,-0.4645,0.0382,0.2559
0.087,0.07,-0.078,-21.1,-12.4,7.4,0,2018,5,11,13,20,31.914,0.8454,-0.4681,0.0414,0.2535
0.084,-0.058,-0.064,-14.7,12.3,9.6,0,2018,5,11,13,20,31.918,0.8454,-0.4695,0.0437,0.2505
0.071,-0.016,-0.032,-11.6,38.1,11.3,0,2018,5,11,13,20,31.938,0.8474,-0.4671,0.0465,0.2478
0.069,0.077,-0.07,-8.6,65.6,15.8,0,2018,5,11,13,20,31.957,0.8519,-0.4601,0.0499,0.2447
0.031,0.142,-0.005,-7.5,64.5,18.8,0,2018,5,11,13,20,31.998,0.858,-0.4502,0.0535,0.2411
0.021,0.123,0.039,-8.8,34.5,20,0,2018,5,11,13,20,32.002,0.8627,-0.4429,0.0558,0.2373
-0.005,0.01,0.04,-9.1,8.7,18.1,1023,2018,5,11,13,20,32.017,0.8652,-0.4398,0.0566,0.2337
-0.02,-0.044,0.05,-8.6,4.6,14.4,1023,2018,5,11,13,20,32.036,0.8662,-0.4396,0.0569,0.2303
-0.027,0.023,0.091,-11.5,5,12.6,1023,2018,5,11,13,20,32.056,0.8674,-0.4387,0.0572,0.2275
-0.024,-0.028,0.089,-14.9,-4.3,9.7,1023,2018,5,11,13,20,32.095,0.8681,-0.4384,0.058,0.2249
-0.005,-0.008,0.048,-16.2,-9.5,4.7,1023,2018,5,11,13,20,32.115,0.8679,-0.4398,0.0595,0.2225
0.005,-0.018,0.031,-13.7,-17.1,1,1023,2018,5,11,13,20,32.119,0.8669,-0.4425,0.061,0.221
0.013,0.013,0.047,-13.5,-16,-0.1,1023,2018,5,11,13,20,32.157,0.8655,-0.4455,0.0624,0.2201
0.032,0.064,0.024,-14.3,-13.4,-0.2,1023,2018,5,11,13,20,32.177,0.8644,-0.4476,0.0642,0.2194
0.038,0.068,-0.013,-16.2,-10,2.9,1023,2018,5,11,13,20,32.181,0.8634,-0.4497,0.0666,0.2184
0.053,0.051,-0.104,-16,2.2,7.4,1023,2018,5,11,13,20,32.2,0.8628,-0.4513,0.0692,0.2166
0.061,-0.013,-0.134,-11.5,21.4,11.1,1023,2018,5,11,13,20,32.219,0.8639,-0.4503,0.0713,0.2138
0.063,-0.012,-0.116,-7.9,34.1,15.2,1023,2018,5,11,13,20,32.258,0.8663,-0.4469,0.0728,0.2105
0.045,0.039,-0.045,-6.5,55.7,20.3,1023,2018,5,11,13,20,32.28,0.8702,-0.4407,0.0746,0.2069
0.026,0.084,-0.005,-9.3,65.6,25.7,0,2018,5,11,13,20,32.284,0.8756,-0.4317,0.0768,0.2022
0.01,0.103,-0.001,-11.8,59.6,29.2,0,2018,5,11,13,20,32.298,0.8813,-0.4221,0.0792,0.1965
0.002,0.072,0.005,-13,34.7,28.5,0,2018,5,11,13,20,32.335,0.8858,-0.4152,0.081,0.1905
-0.018,0.028,0.051,-14,1.6,23.9,0,2018,5,11,13,20,32.354,0.8879,-0.413,0.0819,0.1851
-0.033,0.012,0.113,-18.4,-17.1,19.6,0,2018,5,11,13,20,32.358,0.888,-0.4148,0.0824,0.1804
-0.015,-0.045,0.069,-21.5,-30.9,11.4,0,2018,5,11,13,20,32.397,0.8866,-0.4191,0.0833,0.1767
0.02,-0.016,0.009,-18.7,-32.6,6.6,0,2018,5,11,13,20,32.418,0.8842,-0.4247,0.0849,0.1743
0.045,-0.034,-0.043,-12.3,-36.7,1.9,0,2018,5,11,13,20,32.422,0.8814,-0.4309,0.0862,0.173
0.056,-0.014,-0.041,-5.9,-36.6,-0.1,0,2018,5,11,13,20,32.443,0.8781,-0.4374,0.0869,0.1728
0.068,0.031,-0.047,0.7,-32.3,-0.8,0,2018,5,11,13,20,32.463,0.8751,-0.4432,0.0869,0.1735
0.058,-0.009,-0.053,4.7,-14.3,0.4,0,2018,5,11,13,20,32.499,0.8729,-0.4474,0.0865,0.1741
0.058,-0.027,-0.011,4.7,13.6,1.9,0,2018,5,11,13,20,32.521,0.8727,-0.4477,0.0863,0.1742
0.058,0.06,0.026,1.4,22.5,5.1,0,2018,5,11,13,20,32.525,0.8744,-0.4444,0.0867,0.1739
0.059,0.039,-0.005,-2.4,19.6,10.3,0,2018,5,11,13,20,32.539,0.8763,-0.441,0.0876,0.1725
0.07,0.013,-0.052,-3.7,28.5,13.8,0,2018,5,11,13,20,32.577,0.8781,-0.4381,0.0886,0.1701
0.046,0.012,-0.004,-6.2,55.4,19.2,0,2018,5,11,13,20,32.597,0.8816,-0.4321,0.0899,0.1668
0.024,-0.013,0.03,-10.9,84.8,21.9,0,2018,5,11,13,20,32.601,0.8872,-0.4219,0.0921,0.1618
0.015,0.089,0.034,-15.2,94.9,24.7,0,2018,5,11,13,20,32.637,0.8946,-0.4078,0.0953,0.1558
0.009,0.134,0.037,-18.1,76,27.7,0,2018,5,11,13,20,32.658,0.9015,-0.3938,0.0988,0.1493
-0.028,0.12,0.053,-21.9,32.8,26,0,2018,5,11,13,20,32.662,0.906,-0.385,0.1016,0.1429
-0.043,0.029,0.094,-25.1,-12.2,19.7,0,2018,5,11,13,20,32.682,0.9071,-0.3839,0.1038,0.1372
-0.033,-0.046,0.087,-25.2,-39.8,8.3,0,2018,5,11,13,20,32.702,0.9053,-0.3889,0.1057,0.1338
-0.001,-0.103,0,-19.5,-33.7,-0.3,0,2018,5,11,13,20,32.721,0.9022,-0.3959,0.1079,0.132
0.027,-0.045,-0.051,-10.8,-15.6,-4.6,0,2018,5,11,13,20,32.741,0.8999,-0.4007,0.11,0.1317
0.048,0.019,-0.071,-1.3,-3.8,-7.2,0,2018,5,11,13,20,32.776,0.8988,-0.4025,0.1116,0.1325
0.056,0.061,-0.047,5.4,-0.2,-6.5,0,2018,5,11,13,20,32.797,0.8984,-0.4027,0.1124,0.134
0.051,-0.025,-0.034,9.2,-12.3,-3.8,0,2018,5,11,13,20,32.801,0.8979,-0.4034,0.1121,0.1356
0.067,-0.089,-0.06,9.4,9.5,2.9,0,2018,5,11,13,20,32.823,0.8973,-0.4046,0.1111,0.1364
0.036,0.017,-0.045,6.9,66.1,12.8,0,2018,5,11,13,20,32.843,0.9,-0.3992,0.1107,0.135
0.024,0.151,0.007,2.5,95,21,0,2018,5,11,13,20,32.862,0.9064,-0.3856,0.1113,0.1311
0.013,-0.13,-0.083,-9.9,31.8,13.5,0,2018,5,11,13,20,32.898,0.9193,-0.359,0.116,0.1111
0.011,-0.064,-0.091,-4.7,26.8,4.6,0,2018,5,11,13,20,32.918,0.9209,-0.3553,0.1173,0.1084
0.023,0.001,-0.085,-0.1,2.9,-4.1,0,2018,5,11,13,20,32.925,0.9215,-0.3535,0.1183,0.1079
0.03,-0.016,-0.107,4.7,-26.7,-13.3,0,2018,5,11,13,20,32.942,0.9204,-0.3558,0.1186,0.1099
0.042,-0.063,-0.107,17.9,-39,-25.1,0,2018,5,11,13,20,32.961,0.9148,-0.3676,0.1162,0.1198
0.052,-0.035,-0.085,22.2,-34,-28.1,0,2018,5,11,13,20,32.981,0.9119,-0.3731,0.1144,0.1262
0.084,-0.022,-0.144,27.6,-35.7,-31.1,0,2018,5,11,13,20,33.001,0.9093,-0.3778,0.112,0.1332
0.122,-0.065,-0.22,37.1,-42.3,-36.5,1023,2018,5,11,13,20,33.021,0.9065,-0.3827,0.1081,0.1414
0.114,-0.031,-0.133,45.3,-43,-40.5,1023,2018,5,11,13,20,33.063,0.9034,-0.3877,0.103,0.1513
0.115,0.002,-0.01,45.1,-41.3,-42.8,1023,2018,5,11,13,20,33.083,0.9001,-0.3923,0.098,0.1619
0.147,-0.024,-0.036,42.1,-46.4,-45.8,1023,2018,5,11,13,20,33.088,0.8963,-0.3972,0.0938,0.1728
0.172,-0.032,-0.113,43.6,-55.9,-47.1,1023,2018,5,11,13,20,33.104,0.8919,-0.4034,0.0889,0.1837
0.161,-0.076,-0.098,48.9,-53.7,-48.4,1023,2018,5,11,13,20,33.143,0.887,-0.4099,0.0832,0.1953
0.096,-0.041,0.104,47.8,-42.1,-52.4,1023,2018,5,11,13,20,33.162,0.8825,-0.4147,0.0778,0.2076
0.077,-0.017,0.153,37.3,-33.7,-56.1,1023,2018,5,11,13,20,33.166,0.8786,-0.4173,0.0742,0.2198
0.083,0.034,0.043,29.6,-33.7,-57.3,1023,2018,5,11,13,20,33.185,0.8745,-0.4197,0.0726,0.2317
0.069,0.017,-0.042,29.2,-41.3,-55.7,1023,2018,5,11,13,20,33.224,0.8697,-0.4234,0.0716,0.2432
0.032,0,-0.027,34.2,-48.8,-55.9,1023,2018,5,11,13,20,33.228,0.864,-0.4285,0.0694,0.2548
-0.043,0.014,0.125,35.4,-42.8,-57.1,1023,2018,5,11,13,20,33.243,0.8586,-0.4326,0.066,0.2666
-0.078,0.052,0.156,31.3,-34.5,-57.2,0,2018,5,11,13,20,33.283,0.8535,-0.4359,0.0634,0.2782
-0.091,0.075,0.084,29.7,-29.1,-54,0,2018,5,11,13,20,33.304,0.8487,-0.4384,0.0616,0.2892
-0.099,0.061,0.013,32.4,-27.3,-47.8,0,2018,5,11,13,20,33.308,0.8444,-0.4402,0.0593,0.2992
-0.136,0.016,0,39.6,-22.7,-42.7,0,2018,5,11,13,20,33.326,0.8408,-0.4411,0.0552,0.3085
-0.208,0.063,0.149,42.4,-16.6,-39.7,0,2018,5,11,13,20,33.362,0.8375,-0.4412,0.0511,0.318
-0.208,0.094,0.215,37.6,-16,-37.6,0,2018,5,11,13,20,33.382,0.8345,-0.4408,0.0472,0.327
-0.16,0.154,0.143,31.7,-16.3,-31.4,0,2018,5,11,13,20,33.386,0.8315,-0.4408,0.0439,0.3349
-0.124,0.154,0.081,28.7,-17.1,-21.4,0,2018,5,11,13,20,33.427,0.8289,-0.4413,0.0407,0.341
-0.122,0.094,0.096,26.2,-12.7,-11.4,0,2018,5,11,13,20,33.447,0.8269,-0.4418,0.0369,0.3457
-0.111,0.098,0.128,21.8,0.6,0,0,2018,5,11,13,20,33.451,0.8263,-0.441,0.0335,0.3484
-0.094,0.144,0.081,14.8,21.8,11.9,0,2018,5,11,13,20,33.467,0.8277,-0.4382,0.031,0.3489
-0.084,0.165,0.077,9.4,33.2,22.2,0,2018,5,11,13,20,33.505,0.8312,-0.4331,0.0297,0.3471
-0.056,0.152,0.049,5.3,22.1,30,0,2018,5,11,13,20,33.524,0.835,-0.4285,0.0283,0.3437
-0.061,0.062,0.044,2.9,10.6,36.1,0,2018,5,11,13,20,33.528,0.8386,-0.4251,0.0259,0.3393
-0.096,0.022,0.076,0.9,8.1,38.9,0,2018,5,11,13,20,33.548,0.842,-0.423,0.0228,0.3338
-0.102,-0.015,0.122,-1.8,-10.8,34.1,0,2018,5,11,13,20,33.568,0.8441,-0.4231,0.02,0.3285
-0.113,-0.03,0.185,-9,-31.6,24.7,0,2018,5,11,13,20,33.606,0.8441,-0.4266,0.0172,0.3239
-0.103,-0.136,0.262,-16.3,-43.3,12.2,0,2018,5,11,13,20,33.626,0.8424,-0.4328,0.0153,0.3203
0.011,-0.152,0.001,-12.6,-38.2,-2.8,0,2018,5,11,13,20,33.63,0.8394,-0.4399,0.0144,0.3186
0.043,-0.067,-0.114,0,-23.7,-8.4,0,2018,5,11,13,20,33.647,0.8364,-0.4453,0.0139,0.319
0.034,0.065,-0.031,6.7,-30.5,-10.8,0,2018,5,11,13,20,33.666,0.8335,-0.4493,0.013,0.321
0.035,0.165,-0.018,6.1,-43.9,-7.9,0,2018,5,11,13,20,33.688,0.8302,-0.4538,0.011,0.3235
0.055,0,-0.097,7.7,-28.2,-1.4,0,2018,5,11,13,20,33.707,0.8268,-0.4589,0.0086,0.325
0.073,-0.048,-0.152,14.1,6.1,-0.6,0,2018,5,11,13,20,33.729,0.8258,-0.4598,0.0065,0.3261
0.059,0.028,-0.052,13.2,44.4,8.7,0,2018,5,11,13,20,33.748,0.8279,-0.4556,0.0059,0.3268
0.042,0.222,0.082,5.9,61.3,19.2,0,2018,5,11,13,20,33.768,0.8332,-0.4466,0.0067,0.3257
0,0.262,0.123,-5.8,35.3,27.8,0,2018,5,11,13,20,33.805,0.8385,-0.4392,0.0077,0.3221
0,0.144,0.039,-14.2,-2.1,32,0,2018,5,11,13,20,33.829,0.8415,-0.4375,0.0078,0.3168
-0.021,-0.007,0.031,-18.2,-16.1,31.5,0,2018,5,11,13,20,33.833,0.8427,-0.4392,0.007,0.3111
-0.037,-0.085,0.093,-19.1,-13,25.2,0,2018,5,11,13,20,33.85,0.8433,-0.4421,0.0062,0.3054
-0.048,-0.095,0.124,-21.6,-14.5,16.4,0,2018,5,11,13,20,33.869,0.8437,-0.4446,0.0062,0.3006
-0.028,-0.05,0.087,-23.1,-20.7,8.8,0,2018,5,11,13,20,33.89,0.8432,-0.448,0.0072,0.2969
-0.015,-0.011,0.082,-21.6,-27.4,-1,0,2018,5,11,13,20,33.909,0.8416,-0.4525,0.0087,0.2946
-0.023,0.006,0.136,-21.4,-32,-5.4,0,2018,5,11,13,20,33.927,0.8395,-0.4569,0.0103,0.2936
-0.008,0.027,0.129,-21.8,-28.4,-7.9,0,2018,5,11,13,20,33.966,0.8372,-0.4615,0.0124,0.2931
0.01,0.044,0.113,-24.2,-23.1,-4.7,0,2018,5,11,13,20,33.986,0.8352,-0.4652,0.015,0.2925
0.021,0.134,0.032,-27,-24.1,-1.1,0,2018,5,11,13,20,33.99,0.8334,-0.4691,0.0182,0.2914
0.042,0.004,-0.065,-26.4,-8.6,6.4,1023,2018,5,11,13,20,34.029,0.8319,-0.4731,0.0217,0.289
0.073,-0.017,-0.121,-19.5,16.4,7.1,1023,2018,5,11,13,20,34.048,0.8322,-0.4741,0.0248,0.2862
0.052,0.056,-0.065,-17.3,40.9,13.9,1023,2018,5,11,13,20,34.052,0.8348,-0.4711,0.0286,0.283
0.04,0.155,0.009,-18.7,45.4,21.3,1023,2018,5,11,13,20,34.071,0.8393,-0.4653,0.0327,0.2791
0.024,0.116,0.024,-22.2,27.2,25,1023,2018,5,11,13,20,34.092,0.8433,-0.4607,0.0359,0.274
0.024,0.054,-0.023,-23.7,28.1,28.9,1023,2018,5,11,13,20,34.111,0.8467,-0.4576,0.0389,0.2682
0.009,0.028,-0.004,-22.4,31.2,28.2,1023,2018,5,11,13,20,34.129,0.8502,-0.4547,0.0419,0.2619
-0.008,0.019,0.061,-22.8,31.5,26.9,1023,2018,5,11,13,20,34.166,0.8539,-0.4508,0.0445,0.2558
-0.024,0.034,0.112,-25.1,19,25,1023,2018,5,11,13,20,34.189,0.8573,-0.4475,0.0471,0.2498
-0.047,0.033,0.14,-29.3,-5,20.6,1023,2018,5,11,13,20,34.193,0.8588,-0.4475,0.0495,0.2442
-0.037,-0.031,0.117,-31.2,-26,13.9,1023,2018,5,11,13,20,34.21,0.8583,-0.4508,0.0517,0.2394
-0.022,-0.018,0.108,-32.1,-27.7,8.4,1023,2018,5,11,13,20,34.251,0.8565,-0.456,0.0542,0.2353
-0.005,-0.064,0.089,-31.8,-17.3,4.6,0,2018,5,11,13,20,34.271,0.8548,-0.4606,0.0573,0.2319
0.026,-0.021,0.072,-33.3,-2.3,2.4,0,2018,5,11,13,20,34.275,0.854,-0.463,0.0614,0.2288
0.043,0.093,0.028,-36.5,-3.1,3.9,0,2018,5,11,13,20,34.294,0.8537,-0.4644,0.0668,0.2257
0.051,0.091,-0.174,-31.6,1.5,7.7,0,2018,5,11,13,20,34.312,0.8532,-0.4661,0.0722,0.2222
0.067,-0.069,-0.278,-16.9,24,9.9,0,2018,5,11,13,20,34.333,0.8542,-0.4656,0.0756,0.2185
0.072,0.007,-0.197,-4,49.2,11.7,0,2018,5,11,13,20,34.353,0.8575,-0.4605,0.0778,0.2155
0.065,0.076,-0.027,-2.7,62,18.5,0,2018,5,11,13,20,34.371,0.8624,-0.4526,0.0795,0.2123
0.03,0.147,0.024,-6.6,56.2,24.7,0,2018,5,11,13,20,34.393,0.8678,-0.4439,0.0813,0.2077
0.026,0.06,-0.029,-11,53.3,29.4,0,2018,5,11,13,20,34.412,0.8728,-0.4362,0.0832,0.2022
0.028,0.037,0,-11.8,55.6,31.5,0,2018,5,11,13,20,34.431,0.8778,-0.4286,0.0851,0.1959
-0.038,0.022,0.1,-13.7,37.3,29.1,0,2018,5,11,13,20,34.451,0.8825,-0.4216,0.0863,0.1896
-0.068,0.042,0.209,-22,7.5,25.3,0,2018,5,11,13,20,34.49,0.8848,-0.419,0.0877,0.1837
-0.041,0.001,0.179,-30.5,-20.3,18.7,0,2018,5,11,13,20,34.511,0.8845,-0.4213,0.0901,0.1784
0,-0.052,-0.004,-29.3,-23.8,11,0,2018,5,11,13,20,34.515,0.8829,-0.426,0.0928,0.1741
0.028,-0.059,-0.099,-19.1,-5.6,7.5,0,2018,5,11,13,20,34.534,0.8811,-0.4302,0.0956,0.1709
0.031,0.005,-0.047,-10.4,12.8,6.2,0,2018,5,11,13,20,34.554,0.881,-0.4309,0.0978,0.1685
0.036,0.073,-0.041,-6.3,18,8.6,0,2018,5,11,13,20,34.574,0.8822,-0.4288,0.0996,0.1667
0.043,0.083,-0.088,-2.3,19,12,0,2018,5,11,13,20,34.592,0.8838,-0.426,0.1007,0.1648
0.056,-0.041,-0.155,5.3,13.2,12.8,0,2018,5,11,13,20,34.63,0.8852,-0.4239,0.1003,0.1627
0.067,-0.05,-0.12,10.9,18.5,15.5,0,2018,5,11,13,20,34.65,0.8868,-0.4218,0.0985,0.1607
0.048,-0.022,-0.036,10.3,46.5,20.6,0,2018,5,11,13,20,34.655,0.8894,-0.4176,0.0966,0.1581
0.02,0.16,0.097,2.7,62.6,26.1,0,2018,5,11,13,20,34.673,0.8945,-0.4085,0.0958,0.1541
-0.005,0.162,0.126,-8.8,47.2,30.1,0,2018,5,11,13,20,34.695,0.8991,-0.4005,0.0959,0.1482
-0.003,0.021,0.063,-15.5,28.1,29.6,0,2018,5,11,13,20,34.714,0.9024,-0.3949,0.0967,0.1422
0,-0.032,0.015,-16.3,19.5,26.6,0,2018,5,11,13,20,34.753,0.9045,-0.3919,0.0978,0.1362
-0.006,-0.04,0.007,-14.6,10.4,22.3,0,2018,5,11,13,20,34.774,0.9058,-0.3904,0.0989,0.1309
-0.022,-0.03,0.062,-14.9,0.1,17.3,0,2018,5,11,13,20,34.778,0.9064,-0.3904,0.0998,0.1265
-0.013,0.032,0.099,-14.5,-24.3,5.6,0,2018,5,11,13,20,34.792,0.906,-0.3919,0.1008,0.1238
0.019,0,0.002,-11.5,-50.5,-2.1,0,2018,5,11,13,20,34.811,0.9032,-0.3981,0.102,0.1233
0.049,-0.093,-0.106,-5.7,-45.6,-4.1,0,2018,5,11,13,20,34.833,0.899,-0.407,0.1029,0.1241
0.065,-0.129,-0.117,4.1,-7.7,-4.4,0,2018,5,11,13,20,34.853,0.8969,-0.4113,0.1028,0.1252
0.042,-0.007,-0.054,9.2,22.5,-1.9,0,2018,5,11,13,20,34.89,0.8974,-0.41,0.1023,0.1261
0.024,0.151,-0.015,6.7,26.2,2.5,0,2018,5,11,13,20,34.91,0.8995,-0.4053,0.1021,0.1264
0.031,0.193,-0.05,1.7,9.8,12.1,0,2018,5,11,13,20,34.914,0.901,-0.4026,0.1015,0.125
0.034,0,-0.077,-1,12.5,18.8,0,2018,5,11,13,20,34.953,0.9019,-0.4015,0.101,0.1224
0.044,-0.01,-0.037,-1.8,39,23,0,2018,5,11,13,20,34.973,0.9039,-0.3983,0.1007,0.1187
0.04,0.08,0.025,-4.3,50.5,26.1,0,2018,5,11,13,20,34.977,0.9076,-0.3911,0.101,0.1138
0.008,0.094,0.082,-10.2,25.9,24.6,0,2018,5,11,13,20,34.999,0.9111,-0.3843,0.1015,0.1086
0.01,0.036,0.087,-17.4,-13.4,20.2,0,2018,5,11,13,20,35.018,0.912,-0.3832,0.1023,0.1042
0.006,-0.04,0.083,-19.5,-41.6,11.8,0,2018,5,11,13,20,35.035,0.9102,-0.3878,0.1035,0.1011
0.017,-0.06,0.097,-22.7,-50.1,4.8,0,2018,5,11,13,20,35.051,0.9068,-0.3956,0.1054,0.0992
0.036,-0.026,0.086,-24.7,-54.8,-0.3,0,2018,5,11,13,20,35.073,0.903,-0.4038,0.1081,0.0982
0.056,0.005,-0.015,-23.1,-62.6,-5.7,0,2018,5,11,13,20,35.11,0.8984,-0.4131,0.1114,0.0984
0.078,-0.05,-0.079,-19.3,-59.3,-7.2,1023,2018,5,11,13,20,35.131,0.893,-0.4235,0.1148,0.0994
0.082,-0.025,-0.094,-13.9,-39.2,-6.3,1023,2018,5,11,13,20,35.134,0.8886,-0.4318,0.1175,0.1002
0.073,-0.004,-0.184,-4,-9.1,-4.1,1023,2018,5,11,13,20,35.173,0.8865,-0.4355,0.1188,0.1009
0.069,-0.023,-0.206,6.1,18.1,-3.9,1023,2018,5,11,13,20,35.194,0.8868,-0.4346,0.1191,0.1013
0.084,0.004,-0.124,12.3,38.4,-1.6,1023,2018,5,11,13,20,35.197,0.8892,-0.4298,0.1184,0.1019
0.056,0.112,0.002,11.1,49.8,3.6,1023,2018,5,11,13,20,35.217,0.8928,-0.4224,0.1179,0.102
0.022,0.156,0.076,3.9,36.8,8.5,1023,2018,5,11,13,20,35.238,0.8963,-0.4154,0.1171,0.1006
0.023,0.066,0.023,-2.3,19.2,10.2,1023,2018,5,11,13,20,35.276,0.8986,-0.411,0.1171,0.0986
0.022,-0.004,-0.001,-3.4,13.3,8.2,1023,2018,5,11,13,20,35.297,0.8999,-0.4086,0.1174,0.0967
0.012,0,0.04,-3.4,-0.2,3.8,1023,2018,5,11,13,20,35.301,0.9005,-0.4075,0.1178,0.0954
-0.004,-0.02,0.099,-6.9,-16.5,-0.5,1023,2018,5,11,13,20,35.314,0.8999,-0.4087,0.1183,0.0949
0.017,-0.052,0.079,-10.5,-28.2,-6.3,1023,2018,5,11,13,20,35.355,0.8982,-0.4121,0.1194,0.0952
0.05,-0.028,-0.026,-7.2,-27.4,-12.6,1023,2018,5,11,13,20,35.375,0.8957,-0.4165,0.1213,0.0967
0.044,-0.025,-0.074,-0.4,-21.5,-13.3,1023,2018,5,11,13,20,35.379,0.8932,-0.4209,0.1231,0.099
0.034,0.068,-0.05,5,-16.9,-13.5,0,2018,5,11,13,20,35.399,0.8914,-0.4238,0.1239,0.1016
0.051,0.011,-0.166,11.7,-18.9,-10.2,0,2018,5,11,13,20,35.426,0.8899,-0.4263,0.1236,0.1047
0.066,-0.138,-0.288,24,5,-11.4,0,2018,5,11,13,20,35.437,0.8892,-0.4275,0.1215,0.1078
0.039,-0.03,-0.103,33.7,63.4,-8.7,0,2018,5,11,13,20,35.475,0.8923,-0.4212,0.1184,0.1107
-0.02,0.251,0.213,23.7,67.5,-2.8,0,2018,5,11,13,20,35.497,0.898,-0.4091,0.1157,0.1124
-0.031,0.245,0.262,1.9,11.6,2.6,0,2018,5,11,13,20,35.499,0.9011,-0.4026,0.1145,0.1124
0.005,0.119,0.131,-11.1,-41.3,3.8,0,2018,5,11,13,20,35.533,0.8997,-0.4058,0.1149,0.1117
0.014,-0.094,0.035,-13.1,-51.2,1.6,0,2018,5,11,13,20,35.553,0.896,-0.4138,0.1157,0.1112
0.014,-0.094,0.016,-8.9,-28.8,-1.5,0,2018,5,11,13,20,35.557,0.8927,-0.4206,0.1165,0.1111
0.011,-0.004,-0.004,-4.5,-14.7,-4.5,0,2018,5,11,13,20,35.593,0.891,-0.4239,0.1174,0.1116
0.015,0.019,0.024,-1.6,-15.2,-7.4,0,2018,5,11,13,20,35.615,0.8899,-0.4258,0.1182,0.1126
0.031,0.026,-0.033,1.3,-24.6,-9.2,0,2018,5,11,13,20,35.617,0.8883,-0.4286,0.1187,0.1144
0.043,-0.067,-0.171,10.3,-22,-9.2,0,2018,5,11,13,20,35.653,0.8861,-0.4324,0.1182,0.1171
0.043,-0.085,-0.17,21.4,8.5,-12.1,0,2018,5,11,13,20,35.674,0.8857,-0.4329,0.1164,0.1199
0.024,0.005,-0.049,23.4,19.7,-13.6,0,2018,5,11,13,20,35.678,0.8869,-0.4302,0.1145,0.1232
0.034,0.019,-0.02,18.4,9.5,-14.1,0,2018,5,11,13,20,35.717,0.8881,-0.4269,0.1129,0.1269
0.057,0.021,0.015,14.6,-3.7,-16.9,0,2018,5,11,13,20,35.739,0.8882,-0.4259,0.112,0.1306
0.089,-0.053,-0.065,11.4,-5.1,-19.6,0,2018,5,11,13,20,35.744,0.8874,-0.4263,0.1119,0.1346
0.114,-0.114,-0.054,11.4,10.3,-24.7,0,2018,5,11,13,20,35.761,0.8873,-0.4251,0.1119,0.1389
0.102,-0.006,0.015,9.6,5.3,-29.3,0,2018,5,11,13,20,35.799,0.8874,-0.423,0.1131,0.1438
0.106,0.052,0.006,7.8,-22.3,-33.5,0,2018,5,11,13,20,35.818,0.8861,-0.4232,0.1149,0.1498
0.106,0.016,0,7.9,-48.1,-38.5,0,2018,5,11,13,20,35.822,0.8825,-0.4278,0.1159,0.157
0.121,-0.055,-0.074,16.1,-48.9,-45.8,0,2018,5,11,13,20,35.841,0.8776,-0.4344,0.1164,0.1654
0.117,-0.055,-0.157,27.8,-42.4,-50.6,0,2018,5,11,13,20,35.86,0.873,-0.44,0.1154,0.1754
0.097,-0.026,-0.15,41.5,-34.1,-53.9,0,2018,5,11,13,20,35.881,0.8692,-0.4435,0.1129,0.1869
0.046,0.068,0.038,47.4,-37.1,-56.7,0,2018,5,11,13,20,35.901,0.8655,-0.446,0.1096,0.1997
0.036,0.119,0.086,46,-46.6,-59,0,2018,5,11,13,20,35.938,0.8612,-0.4489,0.106,0.2132
0.058,0.043,0.012,43.7,-43.2,-56.4,0,2018,5,11,13,20,35.958,0.8561,-0.453,0.1025,0.2263
0.074,0.05,0.032,44.5,-25.7,-52.8,0,2018,5,11,13,20,35.963,0.8518,-0.4553,0.0997,0.2387
0.041,0.112,0.124,41.7,-13.7,-47.2,0,2018,5,11,13,20,35.979,0.8491,-0.4548,0.0968,0.2503
0,0.169,0.192,33.6,-15.1,-39.6,0,2018,5,11,13,20,36.017,0.8467,-0.4545,0.0941,0.2598
0.01,0.185,0.142,23.7,-24.1,-29.1,0,2018,5,11,13,20,36.039,0.844,-0.4556,0.0917,0.2675
0.015,0.093,0.016,21.4,-12.3,-18,0,2018,5,11,13,20,36.043,0.8417,-0.4568,0.0896,0.2732
-0.031,-0.019,0.012,24,16.7,-9.9,0,2018,5,11,13,20,36.06,0.8417,-0.455,0.0875,0.2768
-0.066,0.087,0.089,22.4,21.7,-6.7,0,2018,5,11,13,20,36.1,0.8438,-0.4499,0.0854,0.2796
-0.071,0.113,0.102,15.6,0.8,-2.3,0,2018,5,11,13,20,36.121,0.8447,-0.4472,0.0836,0.2815
-0.075,-0.004,0.035,10.3,-9.5,1.4,0,2018,5,11,13,20,36.125,0.8446,-0.4473,0.081,0.2826
-0.074,-0.022,0.004,9.7,6.2,7.5,0,2018,5,11,13,20,36.163,0.845,-0.447,0.0785,0.2824
-0.107,-0.05,0.001,10.6,25,8.8,0,2018,5,11,13,20,36.167,0.8471,-0.4442,0.0763,0.2813
-0.115,0.028,-0.024,12.8,23.9,9.4,0,2018,5,11,13,20,36.183,0.85,-0.4398,0.0742,0.2801
-0.138,0,-0.013,14.5,10.4,8,1023,2018,5,11,13,20,36.22,0.8522,-0.4367,0.0716,0.2789
-0.149,-0.107,-0.042,18.1,-10.3,-0.4,1023,2018,5,11,13,20,36.239,0.8525,-0.4363,0.0688,0.2793
-0.136,-0.12,-0.036,27.3,-15.9,-12.8,1023,2018,5,11,13,20,36.244,0.8512,-0.4375,0.0653,0.282
-0.135,-0.088,0.028,33.8,-10.7,-24.7,1023,2018,5,11,13,20,36.263,0.8496,-0.4378,0.0615,0.2874
-0.097,0.031,0.042,37,-1,-33.3,1023,2018,5,11,13,20,36.282,0.8482,-0.4361,0.0577,0.2946
-0.068,0.161,0.017,35.3,-5.7,-29.3,1023,2018,5,11,13,20,36.302,0.8473,-0.4332,0.0541,0.3023
-0.044,0.172,0.023,31.6,-9.8,-20.5,1023,2018,5,11,13,20,36.341,0.846,-0.4316,0.0507,0.3086
-0.006,0.102,0.013,27.6,-17.9,-13.7,1023,2018,5,11,13,20,36.36,0.8446,-0.4313,0.0469,0.3136
0.024,-0.059,-0.009,26.5,-15.4,-10.5,1023,2018,5,11,13,20,36.364,0.8429,-0.432,0.0427,0.3177
0.033,0.057,0.001,20.6,8.9,0.3,1023,2018,5,11,13,20,36.401,0.8423,-0.4313,0.0395,0.3205
