ax,ay,az,dpitch,droll,dyaw,heart,time_1,time_2,time_3,time_4,time_5,time_6,w,x,y,z
-0.066,-0.175,0.146,38.3,36.3,56.3,0,2018,5,11,13,20,47.169,0.753,-0.3598,-0.4038,0.3745
-0.048,-0.277,0.118,35.4,45.4,44.3,0,2018,5,11,13,20,47.189,0.756,-0.349,-0.409,0.3731
-0.036,-0.2,0.116,33.9,70.6,34.7,0,2018,5,11,13,20,47.194,0.7595,-0.3365,-0.4118,0.3744
-0.051,-0.164,0.177,31.2,75.7,24.4,0,2018,5,11,13,20,47.212,0.7636,-0.3221,-0.4124,0.3781
-0.089,-0.15,0.22,27.3,56.5,10.8,0,2018,5,11,13,20,47.231,0.7666,-0.3096,-0.4123,0.3824
-0.098,-0.067,0.24,18.6,25.2,-0.2,0,2018,5,11,13,20,47.251,0.7678,-0.3019,-0.4125,0.386
-0.081,-0.084,0.227,8.9,3.6,-9.6,0,2018,5,11,13,20,47.268,0.7675,-0.2992,-0.4128,0.3884
-0.048,-0.174,0.188,2.3,-4,-19.2,0,2018,5,11,13,20,47.305,0.7664,-0.2998,-0.4122,0.3907
-0.04,-0.2,0.171,-0.4,8.1,-26.4,0,2018,5,11,13,20,47.326,0.765,-0.3012,-0.4104,0.3943
-0.062,-0.146,0.194,-2.6,19,-33.7,0,2018,5,11,13,20,47.33,0.7639,-0.3014,-0.4071,0.3996
-0.081,-0.025,0.228,-9.8,2.6,-40,0,2018,5,11,13,20,47.369,0.7627,-0.3023,-0.403,0.4053
-0.062,-0.031,0.178,-18.2,-24.3,-45.7,0,2018,5,11,13,20,47.388,0.7602,-0.3077,-0.3995,0.4094
-0.066,-0.208,0.128,-20.1,-27.6,-54.2,0,2018,5,11,13,20,47.392,0.7567,-0.3161,-0.3959,0.4131
-0.067,-0.258,0.138,-20.5,-6.8,-64.8,0,2018,5,11,13,20,47.43,0.7526,-0.3242,-0.391,0.4188
-0.089,-0.118,0.18,-24.9,-6.2,-72.9,0,2018,5,11,13,20,47.45,0.749,-0.3308,-0.3841,0.4264
-0.079,-0.108,0.159,-30.7,-22.5,-79.3,0,2018,5,11,13,20,47.454,0.7447,-0.3393,-0.3768,0.4337
-0.041,-0.106,0.111,-33.2,-25.2,-84.8,0,2018,5,11,13,20,47.471,0.7393,-0.35,-0.3694,0.4409
0.003,-0.157,0.058,-33.9,-20.4,-89.2,0,2018,5,11,13,20,47.506,0.7332,-0.3612,-0.3613,0.4486
0.01,-0.099,0.059,-33.7,-14,-91.9,0,2018,5,11,13,20,47.527,0.7269,-0.372,-0.3523,0.4571
0.008,-0.043,0.098,-34,-15.3,-93.6,0,2018,5,11,13,20,47.531,0.7206,-0.3821,-0.3428,0.4659
0,-0.06,0.108,-36.6,-11.5,-94.7,0,2018,5,11,13,20,47.551,0.7143,-0.3919,-0.3327,0.4748
0.014,-0.057,0.048,-40.2,1.8,-97.4,0,2018,5,11,13,20,47.571,0.7082,-0.4011,-0.3213,0.484
0.021,0,-0.029,-41.6,11.2,-99.4,0,2018,5,11,13,20,47.61,0.7024,-0.4094,-0.3086,0.4937
0.035,0,-0.062,-37.9,10.7,-98.6,0,2018,5,11,13,20,47.63,0.6963,-0.4173,-0.2956,0.5034
0.015,-0.054,-0.028,-34,22.6,-99.2,0,2018,5,11,13,20,47.634,0.6902,-0.424,-0.2827,0.5135
0.007,0.028,0.009,-36.2,37.3,-101,0,2018,5,11,13,20,47.653,0.685,-0.4284,-0.2682,0.5245
0.006,0.078,-0.033,-40.1,40.9,-100.9,0,2018,5,11,13,20,47.674,0.6805,-0.4317,-0.252,0.5357
0.023,0.074,-0.151,-37.5,35.6,-100.8,0,2018,5,11,13,20,47.694,0.6752,-0.4356,-0.2361,0.5462
0.031,0.067,-0.177,-29.8,35.6,-100.3,0,2018,5,11,13,20,47.711,0.6695,-0.4388,-0.2211,0.5569
-0.016,0.06,-0.045,-28.1,36.9,-100.2,0,2018,5,11,13,20,47.749,0.6633,-0.4415,-0.2065,0.5677
-0.035,0.045,-0.024,-31.8,39.5,-100.8,0,2018,5,11,13,20,47.77,0.6573,-0.4435,-0.1915,0.5783
-0.024,0.097,-0.135,-33.3,41.2,-101.3,0,2018,5,11,13,20,47.774,0.6512,-0.4456,-0.1757,0.5885
-0.004,0.127,-0.18,-29.8,41.3,-100.2,0,2018,5,11,13,20,47.794,0.6444,-0.448,-0.1598,0.5986
-0.031,0.039,-0.125,-25.2,41.6,-99.9,0,2018,5,11,13,20,47.813,0.6374,-0.4498,-0.1449,0.6084
-0.073,-0.003,-0.032,-25.2,58.1,-100.7,1023,2018,5,11,13,20,47.835,0.6312,-0.4496,-0.1295,0.6185
-0.077,0.071,-0.088,-29.7,72,-101.7,1023,2018,5,11,13,20,47.855,0.626,-0.4474,-0.1117,0.6287
-0.052,0.146,-0.195,-30.7,73.1,-99.9,1023,2018,5,11,13,20,47.894,0.6209,-0.445,-0.0925,0.6386
-0.031,0.172,-0.215,-24.6,64.4,-95.5,1023,2018,5,11,13,20,47.898,0.6155,-0.4422,-0.0744,0.648
-0.053,0.173,-0.128,-21.5,55.3,-89.7,1023,2018,5,11,13,20,47.916,0.6095,-0.4398,-0.0573,0.657
-0.077,0.121,-0.059,-23.8,58,-86.6,1023,2018,5,11,13,20,47.954,0.6037,-0.4371,-0.0413,0.6653
-0.073,0.134,-0.113,-27.5,66.2,-84.1,1023,2018,5,11,13,20,47.957,0.5985,-0.4338,-0.0246,0.6729
-0.066,0.221,-0.158,-28.2,67.1,-78,1023,2018,5,11,13,20,47.975,0.594,-0.4303,-0.0071,0.6796
-0.052,0.286,-0.169,-25.6,50.8,-67.9,1023,2018,5,11,13,20,47.992,0.5898,-0.4271,0.0079,0.6852
-0.064,0.279,-0.133,-23.2,29.7,-55.7,1023,2018,5,11,13,20,48.031,0.5852,-0.4257,0.0195,0.6897
-0.079,0.274,-0.104,-22.9,16.3,-44.1,1023,2018,5,11,13,20,48.051,0.5808,-0.4259,0.0281,0.693
-0.072,0.261,-0.122,-22.7,8.3,-31.9,0,2018,5,11,13,20,48.055,0.577,-0.4271,0.0343,0.6952
-0.062,0.305,-0.136,-20,0.3,-17.1,0,2018,5,11,13,20,48.092,0.5742,-0.429,0.0387,0.6961
-0.059,0.305,-0.155,-16.5,-13.2,-0.8,0,2018,5,11,13,20,48.116,0.5725,-0.4318,0.0402,0.6957
-0.06,0.307,-0.147,-13.4,-27.3,14.9,0,2018,5,11,13,20,48.12,0.5717,-0.4356,0.0384,0.6941
-0.078,0.255,-0.079,-12.9,-36,30.2,0,2018,5,11,13,20,48.138,0.572,-0.4405,0.0337,0.691
-0.084,0.21,-0.055,-14.5,-35.7,42.7,0,2018,5,11,13,20,48.175,0.5735,-0.4459,0.0276,0.6866
-0.069,0.174,-0.099,-15.6,-31.5,53,0,2018,5,11,13,20,48.198,0.5764,-0.451,0.0218,0.681
-0.052,0.153,-0.157,-13.8,-32.9,61.2,0,2018,5,11,13,20,48.202,0.5802,-0.4563,0.0158,0.6743
-0.061,0.161,-0.131,-11.3,-40.7,67.8,0,2018,5,11,13,20,48.216,0.5842,-0.4619,0.0082,0.6672
-0.088,0.131,-0.072,-11,-50.2,73.7,0,2018,5,11,13,20,48.236,0.5884,-0.4678,-0.001,0.6593
-0.098,0.049,-0.025,-12.6,-46.5,79.1,0,2018,5,11,13,20,48.256,0.5932,-0.4737,-0.0119,0.6507
-0.066,0.02,-0.065,-12.4,-34.5,82.1,0,2018,5,11,13,20,48.277,0.5992,-0.4789,-0.0225,0.6411
-0.019,0.088,-0.127,-9,-31.6,86.4,0,2018,5,11,13,20,48.296,0.6057,-0.4834,-0.0321,0.631
-0.01,0.164,-0.138,-4.5,-47.6,94.1,0,2018,5,11,13,20,48.337,0.6117,-0.4883,-0.0426,0.6208
-0.013,0.121,-0.084,0,-61.5,101.6,0,2018,5,11,13,20,48.358,0.617,-0.494,-0.0562,0.6099
-0.01,0.074,-0.046,4.2,-59,106.5,0,2018,5,11,13,20,48.362,0.6223,-0.4994,-0.0717,0.5983
0.007,0.057,-0.137,8,-58.8,109.8,0,2018,5,11,13,20,48.378,0.628,-0.5041,-0.0878,0.5862
0.003,0.124,-0.222,11.3,-78.8,112.6,0,2018,5,11,13,20,48.413,0.6333,-0.5083,-0.1058,0.5738
0.006,0.026,-0.146,20.5,-97,114.9,0,2018,5,11,13,20,48.433,0.6362,-0.5143,-0.1271,0.5607
0.006,-0.028,0.001,28.9,-80.4,116.2,0,2018,5,11,13,20,48.437,0.6382,-0.5198,-0.1492,0.5478
0.02,-0.039,0.008,32.8,-46.8,117.7,0,2018,5,11,13,20,48.457,0.6426,-0.5207,-0.1692,0.5358
0.019,0.018,-0.088,36.4,-22.6,118,0,2018,5,11,13,20,48.477,0.6493,-0.5178,-0.1868,0.5246
0.02,0.105,-0.116,41.4,-26.1,122.2,0,2018,5,11,13,20,48.516,0.6561,-0.5138,-0.2038,0.5136
-0.006,0.102,0.082,53.9,-27.9,129.9,0,2018,5,11,13,20,48.536,0.6687,-0.5026,-0.2421,0.4914
-0.018,0.002,0.053,52.8,-16,133.5,0,2018,5,11,13,20,48.541,0.6762,-0.4939,-0.2612,0.48
-0.026,-0.181,-0.024,53.4,-17.4,127.5,0,2018,5,11,13,20,48.561,0.683,-0.4856,-0.2802,0.4679
-0.02,-0.302,0.022,63.1,8.9,116.4,1023,2018,5,11,13,20,48.581,0.689,-0.476,-0.2986,0.4576
-0.036,-0.287,0.155,66,62.3,103.3,1023,2018,5,11,13,20,48.617,0.6971,-0.4607,-0.3129,0.4514
-0.047,-0.023,0.227,62.5,106.2,93,1023,2018,5,11,13,20,48.638,0.7084,-0.4388,-0.3213,0.4497
-0.04,0.271,0.243,46.7,64.2,92.8,1023,2018,5,11,13,20,48.642,0.7194,-0.4177,-0.3279,0.4475
-0.078,0.038,0.157,29.2,-11.7,92.5,1023,2018,5,11,13,20,48.657,0.726,-0.4068,-0.3376,0.4396
-0.069,-0.144,0.149,19.5,-15.7,92.2,1023,2018,5,11,13,20,48.697,0.7306,-0.4014,-0.3485,0.4283
-0.026,-0.205,0.085,15.9,27.8,85.9,1023,2018,5,11,13,20,48.718,0.7366,-0.3939,-0.3564,0.4185
0.015,-0.072,0.08,16.5,64.3,81.6,1023,2018,5,11,13,20,48.722,0.7449,-0.3812,-0.3603,0.4121
0.051,0.084,0.065,19.2,54.9,81.5,1023,2018,5,11,13,20,48.74,0.754,-0.3664,-0.3627,0.407
0.036,0.007,0.053,24,39.8,84.4,1023,2018,5,11,13,20,48.76,0.7616,-0.3531,-0.3668,0.4006
0.033,-0.145,0.053,28.4,47.8,81.3,1023,2018,5,11,13,20,48.782,0.7681,-0.3407,-0.3721,0.3941
0.04,-0.134,0.064,34,68.9,78.6,1023,2018,5,11,13,20,48.802,0.7747,-0.3261,-0.3765,0.3894
0.004,-0.138,0.108,40.4,73.7,70.7,1023,2018,5,11,13,20,48.82,0.7812,-0.309,-0.3803,0.3864
-0.069,-0.208,0.147,43.6,70.9,56,1023,2018,5,11,13,20,48.84,0.7864,-0.2922,-0.3842,0.3851
-0.1,-0.205,0.166,41.2,65.6,40.4,0,2018,5,11,13,20,48.88,0.7901,-0.2769,-0.3877,0.3854
-0.108,-0.127,0.185,34.8,52.5,26.5,0,2018,5,11,13,20,48.901,0.7927,-0.2636,-0.3903,0.3867
-0.117,-0.121,0.224,26.1,27.5,12.9,0,2018,5,11,13,20,48.905,0.7941,-0.2541,-0.3924,0.3881
-0.113,-0.083,0.235,15.4,2.9,0,0,2018,5,11,13,20,48.924,0.7941,-0.2498,-0.394,0.3893
-0.079,-0.076,0.189,5.4,-10.7,-8.6,0,2018,5,11,13,20,48.942,0.7933,-0.2496,-0.395,0.3901
-0.057,-0.094,0.138,-1.3,-12.6,-14.1,0,2018,5,11,13,20,48.961,0.7921,-0.2517,-0.3952,0.391
-0.047,-0.082,0.142,-4.7,-4.3,-17.5,0,2018,5,11,13,20,48.982,0.791,-0.2541,-0.3943,0.3926
-0.052,-0.031,0.149,-6.5,4.7,-21,0,2018,5,11,13,20,49.02,0.7904,-0.2553,-0.392,0.3952
-0.029,0.024,0.141,-9.5,5.1,-22.1,0,2018,5,11,13,20,49.039,0.7902,-0.2559,-0.3889,0.3983
-0.029,-0.029,0.125,-13.5,0.5,-22,0,2018,5,11,13,20,49.043,0.79,-0.2572,-0.3856,0.4012
-0.039,-0.146,0.094,-17.6,4.3,-24.5,0,2018,5,11,13,20,49.062,0.7896,-0.2596,-0.3819,0.4038
-0.048,-0.173,0.084,-20.7,16.3,-31.7,0,2018,5,11,13,20,49.083,0.7892,-0.2619,-0.3772,0.4077
-0.022,-0.059,0.069,-23.1,17.5,-38,0,2018,5,11,13,20,49.105,0.7888,-0.2634,-0.3711,0.4128
-0.023,0.043,0.116,-27.4,-8,-43.5,0,2018,5,11,13,20,49.126,0.788,-0.2665,-0.3649,0.4178
-0.02,0.024,0.142,-35.3,-46.6,-48,0,2018,5,11,13,20,49.141,0.7858,-0.2749,-0.3599,0.421
-0.026,-0.114,0.108,-41.1,-61.7,-52.8,0,2018,5,11,13,20,49.177,0.782,-0.2884,-0.3559,0.4225
-0.019,-0.196,0.074,-40.7,-40.2,-59.5,0,2018,5,11,13,20,49.199,0.7774,-0.3025,-0.3512,0.4249
-0.021,-0.092,0.076,-40.2,-22.5,-64.4,0,2018,5,11,13,20,49.203,0.7735,-0.3136,-0.3445,0.4295
-0.039,-0.026,0.153,-42.3,-24.6,-68.3,0,2018,5,11,13,20,49.223,0.77,-0.3232,-0.3367,0.4349
-0.044,-0.023,0.192,-49.3,-45.4,-73.5,0,2018,5,11,13,20,49.245,0.7657,-0.3346,-0.3286,0.4399
-0.027,-0.13,0.137,-53.1,-50.4,-78.7,0,2018,5,11,13,20,49.28,0.7601,-0.349,-0.3206,0.4443
0.025,-0.165,0.059,-52.1,-32.6,-82.7,0,2018,5,11,13,20,49.3,0.754,-0.3634,-0.3117,0.4495
0.03,-0.205,0.027,-45.6,-5,-87.2,0,2018,5,11,13,20,49.304,0.7484,-0.3749,-0.3012,0.4566
-0.004,-0.133,0.101,-39.6,13.3,-92,0,2018,5,11,13,20,49.326,0.7434,-0.3826,-0.2893,0.4659
-0.017,0.094,0.14,-42.4,3.5,-93.8,0,2018,5,11,13,20,49.345,0.7389,-0.3884,-0.2765,0.476
0.008,0.114,0.078,-49.5,-28.8,-92.2,0,2018,5,11,13,20,49.363,0.733,-0.3972,-0.2646,0.4845
0.036,-0.039,-0.028,-48.9,-44.8,-91.9,0,2018,5,11,13,20,49.382,0.7247,-0.4105,-0.2547,0.4911
0.06,-0.187,-0.047,-38.7,-16.2,-93.9,0,2018,5,11,13,20,49.403,0.7156,-0.4237,-0.2454,0.498
0.009,-0.062,0.038,-32,17.9,-97.4,0,2018,5,11,13,20,49.424,0.7085,-0.4309,-0.2338,0.5074
0.012,0.083,0.055,-35,22.6,-96.7,1023,2018,5,11,13,20,49.444,0.7029,-0.4347,-0.2201,0.518
0.013,0.062,-0.049,-39.9,12.6,-95.1,1023,2018,5,11,13,20,49.484,0.6971,-0.4393,-0.206,0.5278
0.032,0.018,-0.149,-37.9,15.8,-96,1023,2018,5,11,13,20,49.504,0.6902,-0.4454,-0.1927,0.5367
0.04,0.019,-0.172,-30.5,30.4,-97.8,1023,2018,5,11,13,20,49.508,0.6839,-0.449,-0.1788,0.5464
-0.007,0.055,-0.124,-26.2,38.5,-98.7,1023,2018,5,11,13,20,49.526,0.6779,-0.4508,-0.1644,0.5568
-0.044,0.001,-0.047,-27.3,43.7,-101.7,1023,2018,5,11,13,20,49.567,0.6718,-0.4518,-0.1496,0.5675
-0.045,0.003,-0.061,-30.7,58.1,-107.6,1023,2018,5,11,13,20,49.571,0.666,-0.4515,-0.1334,0.5784
-0.035,0.097,-0.17,-33.7,64.5,-110.8,1023,2018,5,11,13,20,49.584,0.6603,-0.4507,-0.1149,0.5896
-0.032,0.201,-0.204,-32.5,54,-109.7,1023,2018,5,11,13,20,49.625,0.6539,-0.4497,-0.096,0.6007
-0.054,0.112,-0.203,-27.8,41.4,-107.1,1023,2018,5,11,13,20,49.647,0.6464,-0.4495,-0.0792,0.6112
-0.096,0.096,-0.174,-24.9,42.9,-106.8,1023,2018,5,11,13,20,49.651,0.6382,-0.4499,-0.0636,0.6214
-0.108,0.171,-0.177,-26.2,44.6,-106.4,0,2018,5,11,13,20,49.666,0.6301,-0.4489,-0.048,0.6316
-0.089,0.239,-0.206,-27.3,35.9,-102.8,0,2018,5,11,13,20,49.687,0.6216,-0.4483,-0.0319,0.6415
-0.072,0.219,-0.223,-22.5,24,-95.5,0,2018,5,11,13,20,49.706,0.6128,-0.4483,-0.0184,0.6504
-0.093,0.235,-0.172,-17.8,17.3,-87.7,0,2018,5,11,13,20,49.744,0.6039,-0.4484,-0.0071,0.6588
-0.124,0.27,-0.144,-18.1,6.5,-78.2,0,2018,5,11,13,20,49.766,0.5953,-0.449,0.0022,0.6662
-0.13,0.287,-0.132,-20.6,-5.5,-67.5,0,2018,5,11,13,20,49.77,0.5868,-0.4512,0.0099,0.6722
-0.1,0.315,-0.18,-21.8,-17.2,-53.9,0,2018,5,11,13,20,49.79,0.5787,-0.4547,0.0153,0.6768
-0.086,0.354,-0.214,-18.1,-29.5,-37.6,0,2018,5,11,13,20,49.809,0.5713,-0.4591,0.0178,0.6799
-0.081,0.304,-0.162,-12.3,-37.4,-19.3,0,2018,5,11,13,20,49.848,0.5652,-0.4643,0.0175,0.6816
-0.099,0.266,-0.065,-11.5,-35.7,-1.3,0,2018,5,11,13,20,49.868,0.561,-0.4692,0.0148,0.6818
-0.102,0.184,-0.013,-15.2,-23.8,13.4,0,2018,5,11,13,20,49.873,0.5592,-0.4738,0.012,0.6801
-0.056,0.202,-0.052,-17.6,-11.8,27.4,0,2018,5,11,13,20,49.886,0.5602,-0.4774,0.0098,0.6767
-0.026,0.28,-0.122,-16.2,-17.7,42.7,0,2018,5,11,13,20,49.906,0.5633,-0.4805,0.0067,0.672
-0.026,0.317,-0.136,-13.5,-41.5,58.6,0,2018,5,11,13,20,49.926,0.5668,-0.4851,0.0003,0.6658
-0.043,0.156,-0.059,-12.4,-64.1,70.5,0,2018,5,11,13,20,49.962,0.5696,-0.4919,-0.0104,0.6583
-0.025,-0.023,-0.011,-11.3,-55.9,75,0,2018,5,11,13,20,49.982,0.5726,-0.4991,-0.0227,0.6499
0.01,-0.037,-0.075,-7.9,-37.4,75.7,0,2018,5,11,13,20,49.987,0.5771,-0.5046,-0.0341,0.641
0.027,0.075,-0.154,-1.6,-30.1,77.7,0,2018,5,11,13,20,50.027,0.5826,-0.5084,-0.0441,0.6325
0.034,0.217,-0.181,5,-52,84.4,0,2018,5,11,13,20,50.047,0.5879,-0.5114,-0.056,0.6241
0.012,0.188,-0.094,15.4,-76.2,94.4,0,2018,5,11,13,20,50.051,0.5917,-0.5158,-0.0726,0.6152
-0.022,0.139,-0.016,21.2,-85.7,104.4,0,2018,5,11,13,20,50.069,0.5943,-0.5206,-0.0919,0.6059
-0.031,0.039,-0.055,23.7,-83.1,112.3,0,2018,5,11,13,20,50.089,0.5975,-0.5251,-0.1128,0.5953
-0.039,-0.05,-0.068,28.5,-62,116.7,0,2018,5,11,13,20,50.108,0.6019,-0.5279,-0.1342,0.5838
-0.023,-0.034,-0.068,34.8,-37.7,118.9,0,2018,5,11,13,20,50.128,0.6084,-0.5274,-0.1538,0.5727
-0.033,0.104,-0.028,38.6,-30.8,120.5,0,2018,5,11,13,20,50.148,0.6161,-0.5238,-0.1724,0.5623
-0.059,0.237,-0.002,34.3,-44.8,128.6,0,2018,5,11,13,20,50.186,0.6238,-0.5196,-0.1909,0.5515
-0.079,0.213,-0.069,23.6,-69.2,137.5,0,2018,5,11,13,20,50.205,0.6304,-0.5181,-0.2112,0.5379
-0.049,0.044,-0.106,20.6,-68.8,140.5,0,2018,5,11,13,20,50.208,0.6358,-0.5191,-0.2332,0.5212
-0.024,0.02,-0.062,22.6,-38.2,139.7,0,2018,5,11,13,20,50.246,0.6422,-0.5177,-0.2536,0.505
0,0.027,-0.083,20.9,-23,137.5,0,2018,5,11,13,20,50.265,0.6506,-0.5129,-0.271,0.49
-0.039,0.03,-0.073,19.9,-38.9,130.5,0,2018,5,11,13,20,50.268,0.6578,-0.5087,-0.2882,0.4747
-0.019,-0.026,0.007,23.7,-52,125,1023,2018,5,11,13,20,50.306,0.6627,-0.506,-0.3061,0.4592
0.001,-0.077,0.074,27.3,-34.5,120.8,1023,2018,5,11,13,20,50.324,0.6671,-0.5023,-0.3234,0.4449
0.002,-0.127,0.018,29.8,-10.7,119.2,1023,2018,5,11,13,20,50.327,0.6729,-0.4956,-0.3386,0.4322
0.029,-0.216,-0.079,35.5,2.3,113.9,1023,2018,5,11,13,20,50.367,0.6789,-0.487,-0.3528,0.421
0.055,-0.222,-0.016,47.1,17.5,104.7,1023,2018,5,11,13,20,50.387,0.6843,-0.477,-0.3664,0.412
0.032,-0.157,0.145,55.1,44.7,96.1,1023,2018,5,11,13,20,50.391,0.6904,-0.4634,-0.3782,0.4067
0.016,-0.12,0.229,55.9,78.2,95.1,1023,2018,5,11,13,20,50.429,0.6986,-0.4451,-0.3875,0.4043
-0.015,-0.053,0.261,46,64.8,92.8,1023,2018,5,11,13,20,50.449,0.7076,-0.4256,-0.3957,0.4018
-0.064,-0.133,0.223,34.7,30.4,85.7,1023,2018,5,11,13,20,50.453,0.7146,-0.4107,-0.4037,0.3969
-0.066,-0.115,0.177,27.3,18.8,76.9,1023,2018,5,11,13,20,50.492,0.7201,-0.3993,-0.4112,0.3907
-0.046,-0.087,0.163,22.5,29.2,70,1023,2018,5,11,13,20,50.513,0.7255,-0.3887,-0.4172,0.3852
-0.053,-0.008,0.175,15.2,9.2,62.5,1023,2018,5,11,13,20,50.517,0.7305,-0.3792,-0.422,0.3799
-0.092,-0.182,0.214,8.5,-23.4,52.1,0,2018,5,11,13,20,50.533,0.7331,-0.375,-0.4276,0.3726
-0.112,-0.334,0.246,2,-15.5,38.2,0,2018,5,11,13,20,50.556,0.7346,-0.3737,-0.4321,0.3657
-0.079,-0.351,0.237,-1,26,24.4,0,2018,5,11,13,20,50.575,0.7371,-0.3707,-0.4331,0.3626
-0.062,-0.219,0.209,-2.8,52.5,14.6,0,2018,5,11,13,20,50.589,0.7415,-0.3638,-0.4307,0.3636
-0.053,-0.112,0.16,-3,48.4,7.7,0,2018,5,11,13,20,50.628,0.7462,-0.3559,-0.4269,0.3662
-0.054,-0.046,0.159,-2.6,28.4,2.4,0,2018,5,11,13,20,50.649,0.7496,-0.3502,-0.4238,0.3685
-0.043,-0.043,0.173,-3.3,8,-2.7,0,2018,5,11,13,20,50.653,0.7514,-0.3474,-0.4216,0.3698
-0.02,-0.122,0.164,-6.1,1.8,-8.6,0,2018,5,11,13,20,50.674,0.752,-0.3472,-0.4197,0.3709
-0.021,-0.166,0.136,-8.3,12.2,-13.8,0,2018,5,11,13,20,50.693,0.7524,-0.3476,-0.417,0.3728
-0.055,-0.24,0.147,-9.9,27.2,-21.4,0,2018,5,11,13,20,50.732,0.7532,-0.347,-0.413,0.3762
-0.079,-0.152,0.189,-13.8,29.3,-31.4,0,2018,5,11,13,20,50.752,0.7543,-0.3455,-0.4074,0.3814
-0.065,-0.051,0.196,-21.5,8.4,-38.3,0,2018,5,11,13,20,50.756,0.7549,-0.3459,-0.401,0.3865
-0.047,-0.112,0.15,-27.9,-14.6,-46.1,0,2018,5,11,13,20,50.775,0.754,-0.3505,-0.395,0.3904
-0.047,-0.244,0.122,-30.1,-11.5,-55.4,0,2018,5,11,13,20,50.809,0.7517,-0.358,-0.3887,0.3944
-0.039,-0.234,0.118,-31.5,5.3,-64.4,0,2018,5,11,13,20,50.83,0.7493,-0.3647,-0.3808,0.4004
-0.022,-0.122,0.098,-35.5,3.4,-71.9,0,2018,5,11,13,20,50.834,0.747,-0.3709,-0.3714,0.4077
0.002,-0.04,0.083,-38.5,-13.2,-76.1,0,2018,5,11,13,20,50.854,0.7439,-0.3788,-0.3617,0.4148
0.006,-0.109,0.046,-39,-20.1,-80.3,0,2018,5,11,13,20,50.874,0.7395,-0.3889,-0.3525,0.4214
0.031,-0.143,0.016,-38.1,-9.1,-85.7,0,2018,5,11,13,20,50.896,0.7343,-0.3992,-0.3428,0.4286
0.033,-0.104,-0.01,-37.5,-3.8,-91.3,0,2018,5,11,13,20,50.916,0.7291,-0.4086,-0.3321,0.4371
0.039,-0.082,-0.026,-35.1,-1.9,-94.2,0,2018,5,11,13,20,50.954,0.7234,-0.4177,-0.3209,0.4462
0.031,-0.097,0.003,-30.8,0.3,-98.6,0,2018,5,11,13,20,50.973,0.7172,-0.4262,-0.3097,0.4559
0.026,-0.071,0.038,-29.3,7.4,-104.4,0,2018,5,11,13,20,50.978,0.7107,-0.4339,-0.2979,0.4666
0.033,0.037,0.021,-33.8,3.7,-107.2,0,2018,5,11,13,20,50.996,0.704,-0.4411,-0.285,0.4779
0.038,-0.012,-0.058,-36.3,-2.3,-109.5,0,2018,5,11,13,20,51.013,0.6964,-0.4498,-0.2721,0.4885
0.048,-0.047,-0.1,-31.9,8.9,-112.2,0,2018,5,11,13,20,51.032,0.6881,-0.4584,-0.2589,0.4992
0.039,-0.017,-0.086,-27,27.7,-115.3,0,2018,5,11,13,20,51.071,0.6802,-0.4648,-0.2447,0.5111
0.01,0.056,-0.047,-26.1,35.4,-117.6,0,2018,5,11,13,20,51.092,0.673,-0.4687,-0.229,0.5241
-0.005,0.11,-0.047,-28.8,31.5,-118.8,1023,2018,5,11,13,20,51.096,0.6659,-0.4719,-0.2126,0.5372
0.01,0.117,-0.119,-29.5,25.2,-120.5,1023,2018,5,11,13,20,51.132,0.6576,-0.4761,-0.1964,0.5496
0.015,0.142,-0.18,-25.1,24,-120.6,1023,2018,5,11,13,20,51.152,0.6486,-0.4803,-0.1808,0.5619
-0.002,0.142,-0.136,-20.2,21.5,-118.5,1023,2018,5,11,13,20,51.156,0.6391,-0.484,-0.1657,0.5742
-0.024,0.088,-0.125,-17.6,22.8,-118.5,1023,2018,5,11,13,20,51.177,0.629,-0.4875,-0.1513,0.5862
-0.035,0.114,-0.132,-15.5,27.8,-119.3,1023,2018,5,11,13,20,51.197,0.6189,-0.4901,-0.1367,0.5982
-0.04,0.184,-0.151,-12.9,26.4,-118,1023,2018,5,11,13,20,51.216,0.6086,-0.492,-0.122,0.6103
-0.06,0.176,-0.125,-9.9,22.8,-114.3,1023,2018,5,11,13,20,51.236,0.598,-0.4935,-0.1076,0.6222
-0.081,0.149,-0.081,-7.9,26,-110.3,1023,2018,5,11,13,20,51.273,0.5877,-0.494,-0.0942,0.6336
-0.107,0.173,-0.101,-9.8,29.3,-104.9,1023,2018,5,11,13,20,51.293,0.5782,-0.4937,-0.0807,0.6444
-0.106,0.261,-0.132,-11.9,21,-97.7,1023,2018,5,11,13,20,51.296,0.5689,-0.4935,-0.0674,0.6543
-0.101,0.294,-0.126,-11.7,7.7,-87.6,0,2018,5,11,13,20,51.316,0.5595,-0.4945,-0.0567,0.6626
-0.097,0.275,-0.095,-9.8,-1.5,-74.4,0,2018,5,11,13,20,51.337,0.5504,-0.496,-0.0489,0.6696
-0.114,0.26,-0.043,-9.7,-4.8,-60.6,0,2018,5,11,13,20,51.356,0.5424,-0.4978,-0.0428,0.6753
-0.13,0.269,-0.026,-14,-9.9,-46.4,0,2018,5,11,13,20,51.378,0.5356,-0.5002,-0.0379,0.6792
-0.117,0.273,-0.072,-18.6,-17.8,-31.8,0,2018,5,11,13,20,51.396,0.5298,-0.5038,-0.0347,0.6813
-0.073,0.271,-0.113,-18.6,-24.9,-17.2,0,2018,5,11,13,20,51.417,0.5252,-0.508,-0.0336,0.6818
-0.065,0.239,-0.086,-16.2,-27.3,-2.1,0,2018,5,11,13,20,51.456,0.5219,-0.5123,-0.0348,0.681
-0.078,0.207,-0.016,-16.5,-25.4,11.4,0,2018,5,11,13,20,51.476,0.5202,-0.5165,-0.0371,0.679
-0.07,0.174,-0.008,-19.9,-19.5,24.1,0,2018,5,11,13,20,51.479,0.5204,-0.5204,-0.0399,0.6757
-0.046,0.225,-0.061,-22.8,-18.7,35.8,0,2018,5,11,13,20,51.499,0.5225,-0.5242,-0.043,0.671
-0.028,0.271,-0.115,-19.8,-36.2,49.2,0,2018,5,11,13,20,51.517,0.5252,-0.5287,-0.0482,0.6649
-0.039,0.225,-0.101,-13.9,-58.4,62.9,0,2018,5,11,13,20,51.556,0.5274,-0.5346,-0.0575,0.6577
-0.081,0.128,-0.035,-11.5,-60.6,74.8,0,2018,5,11,13,20,51.576,0.5294,-0.5409,-0.0695,0.6498
-0.093,0.097,-0.037,-12.6,-46.5,82.7,0,2018,5,11,13,20,51.579,0.5335,-0.5458,-0.082,0.6408
-0.028,0.133,-0.1,-8.8,-34.7,91.1,0,2018,5,11,13,20,51.616,0.5392,-0.5496,-0.0936,0.6311
-0.016,0.185,-0.127,-2.4,-36.5,102.1,0,2018,5,11,13,20,51.638,0.5465,-0.5518,-0.1062,0.6208
-0.038,0.232,-0.104,1.1,-50.9,113.3,0,2018,5,11,13,20,51.642,0.5538,-0.5537,-0.1214,0.6097
-0.069,0.175,-0.032,1.7,-67.7,122.1,0,2018,5,11,13,20,51.662,0.5598,-0.557,-0.1386,0.5974
-0.06,0.006,-0.003,3.7,-60.1,126.3,0,2018,5,11,13,20,51.683,0.5663,-0.5597,-0.158,0.5838
-0.037,-0.077,-0.027,8.1,-33.4,127.9,0,2018,5,11,13,20,51.7,0.5746,-0.56,-0.1763,0.5701
-0.024,-0.019,-0.051,13.3,-4.8,128.2,0,2018,5,11,13,20,51.718,0.585,-0.5569,-0.1921,0.5573
-0.028,0.146,-0.057,14.6,-4.3,131,0,2018,5,11,13,20,51.739,0.5966,-0.5514,-0.2064,0.5452
-0.04,0.119,-0.057,17,-27.6,133.3,0,2018,5,11,13,20,51.76,0.6066,-0.5471,-0.2221,0.5322
-0.032,0.036,0.032,21.1,-31.3,135.7,0,2018,5,11,13,20,51.779,0.6151,-0.5432,-0.24,0.5184
-0.012,0.029,0.086,22.8,-9.8,137.7,0,2018,5,11,13,20,51.799,0.6247,-0.5371,-0.257,0.5051
0,0.076,-0.026,20.9,-8.3,139.7,0,2018,5,11,13,20,51.821,0.6354,-0.529,-0.2725,0.4919
-0.002,0.027,-0.131,24.3,-23.1,139.2,0,2018,5,11,13,20,51.839,0.6442,-0.5227,-0.2893,0.4773
0.003,-0.189,-0.102,33.9,-28.1,131.3,0,2018,5,11,13,20,51.86,0.6505,-0.5175,-0.3079,0.4626
0.024,-0.229,0.033,40.4,1.4,119.2,0,2018,5,11,13,20,51.899,0.6566,-0.5099,-0.325,0.4507
0.04,-0.106,0.11,42.9,52.6,111.6,0,2018,5,11,13,20,51.92,0.6655,-0.4968,-0.3374,0.443
0.064,0.191,0.074,38.1,50.5,111.7,0,2018,5,11,13,20,51.925,0.6767,-0.4799,-0.3468,0.4373
0.042,0.041,-0.024,40.8,22.5,114.2,1023,2018,5,11,13,20,51.94,0.6856,-0.4661,-0.3579,0.4294
0.023,-0.113,0.01,46.7,28.6,111.2,1023,2018,5,11,13,20,51.977,0.6928,-0.4533,-0.3705,0.4208
0.031,-0.255,0.091,51.1,82.9,105.3,1023,2018,5,11,13,20,51.997,0.7013,-0.4366,-0.3807,0.4152
0.032,-0.004,0.18,48.9,119.2,100.3,1023,2018,5,11,13,20,52.001,0.7137,-0.4122,-0.386,0.4143
-0.013,-0.016,0.17,38.2,66.2,92.7,1023,2018,5,11,13,20,52.021,0.7244,-0.3906,-0.3913,0.4116
-0.082,-0.177,0.158,31.5,29.5,79.2,1023,2018,5,11,13,20,52.041,0.7314,-0.3762,-0.3979,0.4062
-0.046,-0.299,0.133,25.6,39.7,65,1023,2018,5,11,13,20,52.079,0.7365,-0.3653,-0.4038,0.401
0.013,-0.222,0.071,26.1,82.8,53.7,1023,2018,5,11,13,20,52.099,0.7425,-0.3519,-0.4061,0.3997
0.03,-0.018,0.128,27.9,83,48.2,1023,2018,5,11,13,20,52.104,0.7493,-0.3352,-0.406,0.4015
-0.016,0.067,0.219,25.1,53.5,46.7,1023,2018,5,11,13,20,52.122,0.7548,-0.3208,-0.407,0.4018
-0.033,0.059,0.203,18.7,18.8,45.9,1023,2018,5,11,13,20,52.143,0.7584,-0.3114,-0.41,0.3994
-0.04,-0.15,0.13,15.4,11.4,42.2,1023,2018,5,11,13,20,52.18,0.7612,-0.3053,-0.4134,0.3953
-0.047,-0.307,0.125,18.7,41.6,32.8,0,2018,5,11,13,20,52.203,0.7638,-0.2984,-0.4156,0.3933
-0.093,-0.252,0.194,19.3,65.1,18.7,0,2018,5,11,13,20,52.218,0.7668,-0.2881,-0.4154,0.3953
-0.1,-0.091,0.239,12.6,55.2,7.7,0,2018,5,11,13,20,52.221,0.77,-0.2773,-0.4133,0.3991
-0.088,-0.032,0.242,2.9,20.4,-1.7,0,2018,5,11,13,20,52.261,0.7715,-0.2713,-0.4117,0.4019
-0.091,-0.114,0.235,-4.5,-7.3,-11.7,0,2018,5,11,13,20,52.263,0.7715,-0.2712,-0.4106,0.4031
-0.09,-0.249,0.212,-8.4,-4,-22.8,0,2018,5,11,13,20,52.28,0.7707,-0.2737,-0.4088,0.4047
-0.088,-0.286,0.187,-11.5,13.1,-35.3,0,2018,5,11,13,20,52.319,0.7695,-0.2761,-0.4054,0.4088
-0.081,-0.173,0.209,-16.3,19.3,-45.9,0,2018,5,11,13,20,52.339,0.7685,-0.2775,-0.3999,0.4151
-0.1,-0.06,0.27,-25.2,-1.3,-55,0,2018,5,11,13,20,52.343,0.767,-0.2808,-0.3935,0.4217
-0.119,-0.079,0.267,-36,-23.8,-64.3,0,2018,5,11,13,20,52.383,0.764,-0.289,-0.3873,0.4273
-0.072,-0.167,0.183,-43.8,-34.7,-72.7,0,2018,5,11,13,20,52.402,0.7604,-0.3002,-0.3803,0.4323
-0.046,-0.198,0.121,-48.1,-26,-82.2,0,2018,5,11,13,20,52.406,0.7558,-0.3131,-0.3722,0.4382
-0.039,-0.139,0.152,-50.1,-11.4,-89.8,0,2018,5,11,13,20,52.445,0.7513,-0.3247,-0.3621,0.4458
-0.052,-0.041,0.181,-55.3,-18.3,-96,0,2018,5,11,13,20,52.449,0.7469,-0.3358,-0.3504,0.4544
-0.013,0.054,0.143,-62,-47.6,-99.6,0,2018,5,11,13,20,52.465,0.7412,-0.3497,-0.3389,0.4619
0.007,-0.039,0.092,-65.3,-64.8,-103.3,0,2018,5,11,13,20,52.483,0.7333,-0.3679,-0.3284,0.4677
0.017,-0.186,0.055,-62.4,-46.8,-109.3,0,2018,5,11,13,20,52.502,0.7244,-0.3867,-0.3178,0.4739
0.009,-0.057,0.057,-60,-23.7,-115.8,0,2018,5,11,13,20,52.539,0.7158,-0.4023,-0.305,0.4822
0.024,0.049,0.031,-60.6,-25.5,-116.9,0,2018,5,11,13,20,52.559,0.7076,-0.416,-0.2907,0.4914
0.035,0.036,-0.001,-61,-41.3,-120.2,0,2018,5,11,13,20,52.565,0.6978,-0.4314,-0.277,0.5
0.048,-0.08,-0.03,-56.6,-28.6,-125.3,0,2018,5,11,13,20,52.583,0.6866,-0.4475,-0.2637,0.5086
0.06,-0.111,-0.088,-49.8,10.1,-130.9,0,2018,5,11,13,20,52.604,0.6761,-0.4601,-0.2481,0.5191
0.038,-0.008,-0.126,-42.7,48.5,-134.3,0,2018,5,11,13,20,52.644,0.6682,-0.4665,-0.2291,0.5322
-0.002,-0.023,-0.097,-35.6,74.7,-134.8,0,2018,5,11,13,20,52.648,0.6615,-0.469,-0.208,0.5468
-0.054,-0.001,-0.051,-33.1,92.3,-136.3,0,2018,5,11,13,20,52.662,0.6564,-0.4676,-0.1852,0.5622
-0.052,0.123,-0.054,-37.7,99.5,-136.6,0,2018,5,11,13,20,52.698,0.6519,-0.4639,-0.1603,0.5779
-0.039,0.178,-0.151,-41.9,86.2,-135.2,0,2018,5,11,13,20,52.72,0.6464,-0.461,-0.1348,0.5927
-0.038,0.078,-0.155,-39.6,84,-134.1,0,2018,5,11,13,20,52.724,0.6395,-0.4594,-0.1109,0.6062
-0.055,0.048,-0.133,-36,99.5,-134.3,0,2018,5,11,13,20,52.763,0.6329,-0.4562,-0.0868,0.6194
-0.092,0.124,-0.097,-37.7,107.2,-133.7,0,2018,5,11,13,20,52.784,0.6269,-0.4504,-0.0612,0.6326
-0.116,0.254,-0.13,-44.4,93.7,-129,0,2018,5,11,13,20,52.788,0.6206,-0.4445,-0.0344,0.645
-0.101,0.278,-0.162,-47.6,62.3,-121.3,0,2018,5,11,13,20,52.806,0.6124,-0.442,-0.011,0.6552
-0.101,0.23,-0.187,-46.8,41.1,-113,0,2018,5,11,13,20,52.826,0.6029,-0.442,0.0085,0.664
-0.108,0.177,-0.182,-43.4,37.5,-105.5,1023,2018,5,11,13,20,52.845,0.5928,-0.4429,0.0263,0.672
-0.112,0.201,-0.202,-39.6,39,-97.3,1023,2018,5,11,13,20,52.868,0.5832,-0.4433,0.0433,0.6792
-0.126,0.286,-0.193,-37,34.1,-85.2,1023,2018,5,11,13,20,52.886,0.5749,-0.4432,0.0588,0.6851
-0.124,0.352,-0.222,-33.4,10.1,-69.1,1023,2018,5,11,13,20,52.905,0.5671,-0.4442,0.071,0.6898
-0.114,0.379,-0.216,-26.5,-19,-49.7,1023,2018,5,11,13,20,52.926,0.5591,-0.4475,0.0777,0.6935
-0.14,0.269,-0.172,-19.3,-32.3,-29.6,1023,2018,5,11,13,20,52.946,0.5519,-0.4523,0.0793,0.696
-0.147,0.219,-0.155,-14.8,-28.6,-11.9,1023,2018,5,11,13,20,52.966,0.5467,-0.4572,0.0789,0.6969
-0.147,0.24,-0.15,-11.8,-25.5,5.6,1023,2018,5,11,13,20,53.007,0.5441,-0.4613,0.0772,0.6965
-0.14,0.256,-0.126,-10.1,-32.4,23.4,1023,2018,5,11,13,20,53.025,0.5435,-0.4654,0.0735,0.6946
-0.121,0.238,-0.114,-9.7,-43.6,39.6,1023,2018,5,11,13,20,53.03,0.5441,-0.4706,0.0672,0.6912
-0.108,0.198,-0.074,-10.2,-50.9,54.2,1023,2018,5,11,13,20,53.048,0.5457,-0.4769,0.0584,0.6864
-0.122,0.07,-0.048,-14.3,-42.3,64.1,1023,2018,5,11,13,20,53.087,0.5486,-0.4833,0.0495,0.6803
-0.134,0.048,-0.059,-20.2,-20.6,68.8,1023,2018,5,11,13,20,53.109,0.554,-0.4886,0.0413,0.6726
-0.101,0.18,-0.079,-25.2,-21.5,73.7,0,2018,5,11,13,20,53.113,0.5605,-0.4934,0.0356,0.664
-0.059,0.312,-0.122,-28.6,-54.8,83.2,0,2018,5,11,13,20,53.132,0.5662,-0.5004,0.0271,0.6543
-0.037,0.298,-0.173,-28.2,-91.8,95.3,0,2018,5,11,13,20,53.15,0.5695,-0.5114,0.0133,0.6432
-0.046,-0.016,-0.082,-23.1,-90.7,102.8,0,2018,5,11,13,20,53.17,0.5717,-0.5244,-0.0037,0.6308
-0.049,-0.197,0.018,-18.1,-44.2,102.7,0,2018,5,11,13,20,53.188,0.5768,-0.5334,-0.0193,0.6183
-0.028,-0.073,0.008,-13.4,-0.6,101.7,0,2018,5,11,13,20,53.209,0.5862,-0.5365,-0.0298,0.6062
-0.039,0.187,-0.072,-11.8,-13.2,106,0,2018,5,11,13,20,53.23,0.5967,-0.5376,-0.0382,0.5944
-0.058,0.259,-0.061,-10.6,-55,118.2,0,2018,5,11,13,20,53.249,0.605,-0.5415,-0.0511,0.5814
-0.044,0.15,0.005,-8.1,-84.6,128.2,0,2018,5,11,13,20,53.27,0.6105,-0.5486,-0.0685,0.567
-0.02,-0.045,-0.031,-4.9,-80.7,133,0,2018,5,11,13,20,53.289,0.6152,-0.5564,-0.089,0.5512
0.003,-0.067,-0.092,0.2,-53.8,135.7,0,2018,5,11,13,20,53.328,0.6212,-0.562,-0.1086,0.535
0.005,-0.124,-0.1,11,-20.1,137.4,0,2018,5,11,13,20,53.348,0.6301,-0.5628,-0.1264,0.5197
0.027,-0.041,-0.05,22.3,5.8,137.1,0,2018,5,11,13,20,53.352,0.6411,-0.5592,-0.1427,0.5057
0.02,0.076,0.016,30.4,16,138.5,0,2018,5,11,13,20,53.372,0.6536,-0.5517,-0.158,0.4932
0.009,0.079,-0.034,35.6,5.5,141.8,0,2018,5,11,13,20,53.392,0.6656,-0.5433,-0.1738,0.4809
0.027,-0.021,-0.072,42.5,2.3,142.8,0,2018,5,11,13,20,53.411,0.676,-0.5358,-0.1916,0.468
0.049,-0.125,-0.069,53.7,17.7,136.4,0,2018,5,11,13,20,53.43,0.6859,-0.5267,-0.21,0.4559
0.051,-0.067,0.004,65.4,48.4,130.7,0,2018,5,11,13,20,53.451,0.6968,-0.5133,-0.2267,0.4466
0.043,0.156,0.023,71.2,44.6,127.4,0,2018,5,11,13,20,53.488,0.7084,-0.4964,-0.2419,0.4394
0.039,0.103,-0.04,73.3,3.1,126.2,0,2018,5,11,13,20,53.51,0.7169,-0.4824,-0.2593,0.4312
0.024,-0.045,0.008,79.7,-12.5,120.7,0,2018,5,11,13,20,53.514,0.7216,-0.4723,-0.2796,0.4218
0.028,-0.117,0.078,82.6,9.6,114,0,2018,5,11,13,20,53.531,0.7256,-0.4611,-0.2995,0.4136
0.05,-0.084,0.127,83.7,55.9,110.5,0,2018,5,11,13,20,53.57,0.7318,-0.4447,-0.316,0.4082
0.057,-0.045,0.086,81.2,61.1,105,0,2018,5,11,13,20,53.59,0.7398,-0.4244,-0.3295,0.4047
0.025,-0.127,0.073,81.6,54.8,97.2,0,2018,5,11,13,20,53.594,0.7462,-0.4057,-0.3429,0.4011
-0.021,-0.12,0.145,82.4,73,88.6,0,2018,5,11,13,20,53.611,0.752,-0.3861,-0.3553,0.3987
-0.035,-0.061,0.224,76.9,99.2,80.3,0,2018,5,11,13,20,53.629,0.759,-0.3631,-0.3647,0.3986
-0.034,-0.029,0.291,66.4,95.6,73.3,0,2018,5,11,13,20,53.65,0.7661,-0.3394,-0.3718,0.3994
-0.072,-0.062,0.317,49.3,63.9,65,0,2018,5,11,13,20,53.691,0.7716,-0.3203,-0.378,0.3987
-0.082,-0.15,0.275,34.2,48.8,56.7,0,2018,5,11,13,20,53.71,0.7763,-0.3058,-0.3828,0.3964
-0.076,-0.188,0.235,24,51.1,45.4,0,2018,5,11,13,20,53.715,0.7809,-0.2932,-0.3852,0.3945
-0.059,-0.223,0.256,17.1,56.2,32.9,0,2018,5,11,13,20,53.731,0.7851,-0.2817,-0.3856,0.3941
-0.083,-0.202,0.313,7.9,50,19,0,2018,5,11,13,20,53.773,0.7889,-0.2715,-0.3841,0.3952
-0.075,-0.129,0.309,-3.7,27.7,6.5,0,2018,5,11,13,20,53.792,0.792,-0.2644,-0.3813,0.3965
-0.062,-0.091,0.255,-11.8,3.6,-4.5,0,2018,5,11,13,20,53.796,0.7938,-0.2624,-0.3783,0.3972
-0.045,-0.122,0.24,-14.8,-5.4,-13.9,0,2018,5,11,13,20,53.812,0.7943,-0.2639,-0.3753,0.398
-0.049,-0.155,0.234,-16.4,-3.4,-22.5,0,2018,5,11,13,20,53.832,0.7941,-0.2667,-0.3719,0.3998
-0.048,-0.183,0.208,-19,7.7,-29.9,1023,2018,5,11,13,20,53.853,0.7937,-0.2693,-0.3674,0.403
-0.061,-0.148,0.218,-23.7,11.5,-37.4,1023,2018,5,11,13,20,53.891,0.7933,-0.2713,-0.3616,0.4075
-0.067,-0.087,0.237,-30,8.9,-45.3,1023,2018,5,11,13,20,53.913,0.7929,-0.2739,-0.3545,0.4129
-0.049,-0.058,0.197,-35.9,-2.1,-51.7,1023,2018,5,11,13,20,53.917,0.792,-0.278,-0.3466,0.4184
-0.038,-0.09,0.182,-41.6,-15.3,-58.9,1023,2018,5,11,13,20,53.934,0.7901,-0.285,-0.3387,0.4238
-0.018,-0.111,0.162,-47.1,-20.2,-65.6,1023,2018,5,11,13,20,53.955,0.7873,-0.2943,-0.3303,0.4292
-0.01,-0.097,0.126,-51.2,-19.3,-71.6,1023,2018,5,11,13,20,53.975,0.784,-0.3046,-0.3211,0.4351
0.003,-0.122,0.113,-52.4,-14.3,-77.2,1023,2018,5,11,13,20,53.995,0.7802,-0.3152,-0.3109,0.4417
-0.013,-0.067,0.153,-54.7,-22,-83.2,1023,2018,5,11,13,20,54.014,0.776,-0.3257,-0.3,0.4489
-0.021,-0.076,0.155,-61.4,-35.1,-89.1,1023,2018,5,11,13,20,54.036,0.7708,-0.3381,-0.289,0.4559
0.007,-0.128,0.096,-64.8,-27,-96.1,1023,2018,5,11,13,20,54.057,0.7646,-0.3521,-0.2773,0.463
0.029,-0.129,0.014,-64.9,-8.2,-102.1,1023,2018,5,11,13,20,54.078,0.7583,-0.3648,-0.2637,0.4714
0.022,-0.119,-0.014,-63.6,7,-108.3,1023,2018,5,11,13,20,54.097,0.752,-0.3756,-0.2486,0.4811
0.01,-0.099,0.013,-62.6,21.5,-112.7,1023,2018,5,11,13,20,54.114,0.746,-0.3843,-0.2319,0.4919
-0.025,-0.037,0.043,-65.2,35.9,-117.4,0,2018,5,11,13,20,54.152,0.7403,-0.3906,-0.2134,0.5036
0.012,0.044,0,-70.8,43.1,-119,0,2018,5,11,13,20,54.172,0.735,-0.3956,-0.1928,0.5157
0.01,0.069,-0.125,-73.5,40.3,-118.2,0,2018,5,11,13,20,54.177,0.7293,-0.4007,-0.1712,0.5273
0.019,-0.06,-0.155,-68.1,48.4,-119.7,0,2018,5,11,13,20,54.197,0.723,-0.4059,-0.15,0.5384
-0.027,-0.238,-0.059,-61.4,90.6,-127.1,0,2018,5,11,13,20,54.216,0.7177,-0.4064,-0.1267,0.5509
-0.086,-0.114,0.01,-67.4,133.1,-135.3,0,2018,5,11,13,20,54.236,0.7142,-0.4008,-0.0983,0.5652
-0.103,0.108,-0.079,-81.1,144.7,-137.2,0,2018,5,11,13,20,54.277,0.7116,-0.3922,-0.0659,0.579
-0.084,0.203,-0.219,-88.1,116.5,-132.5,0,2018,5,11,13,20,54.296,0.7076,-0.3855,-0.0322,0.5912
-0.094,0.097,-0.214,-87.3,89.8,-129.6,0,2018,5,11,13,20,54.3,0.7006,-0.383,-0.0022,0.6019
-0.106,-0.003,-0.138,-86.8,93,-130.7,0,2018,5,11,13,20,54.32,0.6925,-0.3817,0.0256,0.6114
-0.11,0.107,-0.183,-89.5,96,-131.3,0,2018,5,11,13,20,54.34,0.6842,-0.3789,0.0546,0.6206
-0.1,0.195,-0.232,-87.9,84.8,-126.4,0,2018,5,11,13,20,54.358,0.6748,-0.3762,0.0839,0.6292
-0.103,0.206,-0.218,-82.7,64.8,-118.2,0,2018,5,11,13,20,54.376,0.6647,-0.3746,0.1099,0.6368
-0.099,0.258,-0.187,-77.6,38.1,-108.5,0,2018,5,11,13,20,54.396,0.6536,-0.3752,0.132,0.6437
-0.107,0.235,-0.188,-71.6,17,-96.6,0,2018,5,11,13,20,54.434,0.642,-0.3783,0.1504,0.6496
-0.115,0.215,-0.189,-65.6,2.7,-85,0,2018,5,11,13,20,54.453,0.6305,-0.3826,0.1653,0.6547
-0.093,0.229,-0.219,-57.9,-10.5,-71.8,0,2018,5,11,13,20,54.458,0.6193,-0.3879,0.1768,0.6592
-0.072,0.27,-0.252,-46.7,-21.2,-55.6,0,2018,5,11,13,20,54.497,0.6092,-0.3937,0.185,0.6629
-0.075,0.256,-0.263,-34.6,-37.3,-39.3,0,2018,5,11,13,20,54.517,0.6005,-0.4,0.1893,0.6659
-0.087,0.247,-0.238,-23.2,-52.5,-21.6,0,2018,5,11,13,20,54.521,0.5928,-0.4073,0.1895,0.6682
-0.101,0.273,-0.234,-12.9,-67.2,-4.9,0,2018,5,11,13,20,54.535,0.5864,-0.4152,0.1853,0.6702
-0.122,0.254,-0.213,-3.4,-77.4,13.8,0,2018,5,11,13,20,54.575,0.5814,-0.4238,0.1773,0.6714
-0.132,0.196,-0.162,2.6,-80.6,30.7,0,2018,5,11,13,20,54.594,0.5781,-0.4327,0.1667,0.6712
-0.108,0.121,-0.155,9,-73.7,46.3,0,2018,5,11,13,20,54.599,0.5768,-0.4412,0.1544,0.6698
-0.093,0.159,-0.152,15.8,-65.6,60.3,0,2018,5,11,13,20,54.635,0.5777,-0.4482,0.1415,0.6672
-0.082,0.251,-0.176,20.8,-73.4,73.7,0,2018,5,11,13,20,54.655,0.5806,-0.4547,0.1267,0.6633
-0.091,0.147,-0.117,24.8,-81.6,84.7,0,2018,5,11,13,20,54.659,0.5839,-0.4619,0.1093,0.6585
-0.077,0.035,-0.105,27.9,-68.9,91.3,0,2018,5,11,13,20,54.678,0.588,-0.4685,0.091,0.6529
-0.055,0.101,-0.124,30,-54.4,95.5,0,2018,5,11,13,20,54.716,0.5939,-0.4733,0.0739,0.6463
-0.07,0.259,-0.188,29.5,-66.2,101.9,0,2018,5,11,13,20,54.736,0.6003,-0.4774,0.0568,0.6391
-0.08,0.208,-0.215,31.4,-101,111.1,0,2018,5,11,13,20,54.74,0.6052,-0.484,0.0353,0.631
-0.083,0.015,-0.097,39.3,-102.7,118.3,0,2018,5,11,13,20,54.757,0.6088,-0.492,0.0102,0.6221
-0.102,-0.062,0.001,45.6,-66.7,121.8,0,2018,5,11,13,20,54.796,0.6146,-0.4966,-0.015,0.6126
-0.098,0.032,-0.029,47.6,-39.3,123,1023,2018,5,11,13,20,54.816,0.6236,-0.496,-0.0369,0.6029
-0.079,0.188,-0.127,47.1,-56.6,127.3,1023,2018,5,11,13,20,54.82,0.6323,-0.4949,-0.0576,0.5931
-0.068,0.19,-0.139,48.4,-88.9,134.7,1023,2018,5,11,13,20,54.84,0.6384,-0.497,-0.0815,0.5819
-0.082,0.053,-0.021,50.6,-97.9,141.7,1023,2018,5,11,13,20,54.858,0.643,-0.5006,-0.1087,0.5692
-0.073,-0.014,0.029,47.6,-81.7,142.4,1023,2018,5,11,13,20,54.88,0.6484,-0.5024,-0.1362,0.5554
-0.066,0,0.015,40.7,-73.1,139.8,1023,2018,5,11,13,20,54.918,0.6545,-0.5025,-0.1616,0.5411
-0.032,0.034,-0.063,33.6,-76.6,137.3,1023,2018,5,11,13,20,54.938,0.6599,-0.5033,-0.1854,0.526
-0.005,0.027,-0.101,34.3,-78.1,136.7,1023,2018,5,11,13,20,54.942,0.6639,-0.5052,-0.2086,0.5101
0.001,0.113,-0.017,35.8,-73.8,137.4,1023,2018,5,11,13,20,54.963,0.6677,-0.5059,-0.2314,0.4945
-0.007,0.143,0.021,29.7,-78.1,139.9,1023,2018,5,11,13,20,54.982,0.6716,-0.5055,-0.2537,0.4783
-0.005,-0.047,-0.097,21.5,-83.7,139.5,1023,2018,5,11,13,20,55.002,0.6748,-0.5066,-0.2757,0.4602
0.024,-0.17,-0.059,27.6,-65.1,133.5,1023,2018,5,11,13,20,55.022,0.6769,-0.5078,-0.2971,0.4421
0.028,-0.095,0.035,32.9,-42.6,128.5,1023,2018,5,11,13,20,55.06,0.6803,-0.5051,-0.3163,0.4265
0.024,0.053,0.12,30.3,-34.5,126.6,1023,2018,5,11,13,20,55.064,0.6847,-0.4996,-0.3336,0.4124
0.005,0.105,0.069,20.1,-53,128.8,1023,2018,5,11,13,20,55.08,0.6894,-0.4943,-0.35,0.3973
0.028,-0.209,-0.088,18.9,-64,123.8,1023,2018,5,11,13,20,55.117,0.6913,-0.4929,-0.3672,0.3797
0.013,-0.348,-0.06,30.6,-29.1,111.9,1023,2018,5,11,13,20,55.137,0.6925,-0.4901,-0.3837,0.3644
0.004,-0.243,0.097,35.1,7.5,100.1,1023,2018,5,11,13,20,55.142,0.6957,-0.4823,-0.3972,0.3541
-0.005,-0.029,0.211,27.1,15.1,92.7,0,2018,5,11,13,20,55.18,0.7009,-0.4715,-0.4077,0.3465
-0.023,-0.018,0.203,13.8,-19,89.6,0,2018,5,11,13,20,55.2,0.7048,-0.4639,-0.4176,0.3368
-0.054,-0.225,0.189,5.6,-37.3,82.8,0,2018,5,11,13,20,55.204,0.7071,-0.4604,-0.4271,0.3248
-0.048,-0.237,0.203,-0.9,-22.8,73.3,0,2018,5,11,13,20,55.224,0.7093,-0.4578,-0.4346,0.3135
-0.035,-0.186,0.177,-8.5,-6.5,66.4,0,2018,5,11,13,20,55.244,0.7129,-0.454,-0.4395,0.3038
-0.037,-0.27,0.091,-11,-2,56.5,0,2018,5,11,13,20,55.264,0.7169,-0.4502,-0.4427,0.2954
-0.071,-0.363,0.089,-5.6,3.1,43,0,2018,5,11,13,20,55.3,0.72,-0.4469,-0.4451,0.2889
-0.106,-0.364,0.157,-0.9,13.9,27.2,0,2018,5,11,13,20,55.319,0.7227,-0.4434,-0.4466,0.2853
-0.088,-0.261,0.195,0.8,22.3,12.6,0,2018,5,11,13,20,55.323,0.7256,-0.4391,-0.4466,0.2847
-0.074,-0.186,0.198,-0.1,-1.2,0.4,0,2018,5,11,13,20,55.363,0.7274,-0.4365,-0.4458,0.2852
-0.064,-0.221,0.169,0.6,-19.3,-9.9,0,2018,5,11,13,20,55.382,0.7268,-0.4379,-0.4454,0.2853
-0.057,-0.298,0.133,3,-20.2,-20.5,0,2018,5,11,13,20,55.386,0.7245,-0.4417,-0.4449,0.2861
-0.062,-0.302,0.146,5,-3.9,-32.2,0,2018,5,11,13,20,55.403,0.722,-0.4451,-0.4434,0.2893
-0.051,-0.228,0.149,3.1,3.2,-41.4,0,2018,5,11,13,20,55.426,0.7202,-0.4474,-0.4404,0.2948
-0.045,-0.202,0.107,1.1,-2,-50,0,2018,5,11,13,20,55.446,0.7181,-0.4505,-0.4365,0.3012
-0.054,-0.233,0.089,1.8,-7,-61.4,0,2018,5,11,13,20,55.467,0.7147,-0.4553,-0.4322,0.3081
-0.035,-0.205,0.095,1.7,-7.7,-71.6,0,2018,5,11,13,20,55.486,0.7104,-0.4612,-0.4272,0.3163
-0.023,-0.176,0.064,0.4,-13.5,-81.1,0,2018,5,11,13,20,55.504,0.7053,-0.468,-0.4213,0.3253
-0.007,-0.192,0.055,0.7,-16,-90.7,0,2018,5,11,13,20,55.523,0.6991,-0.4762,-0.4148,0.335
0,-0.185,0.04,2.1,-11.9,-100.2,0,2018,5,11,13,20,55.542,0.692,-0.4849,-0.4076,0.346
0.012,-0.122,0.012,4,-8.1,-108.4,0,2018,5,11,13,20,55.565,0.6844,-0.4935,-0.3994,0.3583
0.033,-0.034,-0.012,4.7,-18.8,-112.4,0,2018,5,11,13,20,55.584,0.6757,-0.5026,-0.391,0.3712
0.035,-0.058,-0.004,7.9,-32.1,-114.1,0,2018,5,11,13,20,55.604,0.6652,-0.5133,-0.3833,0.3834
0.028,-0.104,0.07,12,-22.4,-115.8,0,2018,5,11,13,20,55.625,0.654,-0.5236,-0.3757,0.396
0.019,-0.087,0.051,12.9,-5.1,-118.6,0,2018,5,11,13,20,55.664,0.6439,-0.5316,-0.3669,0.4099
0.022,0.022,-0.043,13,-2.2,-121,0,2018,5,11,13,20,55.684,0.6341,-0.5386,-0.3572,0.4244
0.057,0.089,-0.123,15,-15.6,-120.3,0,2018,5,11,13,20,55.688,0.6228,-0.5465,-0.3479,0.4384
0.041,-0.017,-0.079,23.2,-18.7,-120.5,0,2018,5,11,13,20,55.707,0.6101,-0.5547,-0.34,0.452
0.019,0.029,0.058,27.1,-3.2,-121.4,0,2018,5,11,13,20,55.728,0.5975,-0.5612,-0.3317,0.4667
0.004,0.062,0.059,23.5,6.9,-120.7,0,2018,5,11,13,20,55.745,0.5868,-0.5651,-0.3217,0.4824
-0.009,0.009,-0.033,24.5,15.8,-120.3,0,2018,5,11,13,20,55.763,0.5762,-0.5686,-0.3111,0.4976
0,-0.011,-0.036,28.2,38.7,-121.4,0,2018,5,11,13,20,55.785,0.5667,-0.5702,-0.2995,0.5136
-0.014,0.076,-0.013,27.9,51.9,-122.6,0,2018,5,11,13,20,55.822,0.5587,-0.5694,-0.286,0.5307
-0.037,0.205,0.065,22.9,47.6,-119.7,0,2018,5,11,13,20,55.843,0.5514,-0.5674,-0.2711,0.548
-0.03,0.131,0.025,18.1,36.7,-114.3,0,2018,5,11,13,20,55.847,0.5434,-0.5665,-0.2571,0.5634
-0.039,0.059,-0.006,17.4,47.6,-111.3,0,2018,5,11,13,20,55.866,0.5356,-0.5656,-0.2435,0.5777
-0.044,0.136,-0.046,15.3,62.1,-110.7,1023,2018,5,11,13,20,55.905,0.5291,-0.5633,-0.2284,0.5919
-0.058,0.241,-0.082,11.2,56.4,-107.7,1023,2018,5,11,13,20,55.924,0.5227,-0.5609,-0.2123,0.6057
-0.061,0.273,-0.078,9.2,38.1,-100.5,1023,2018,5,11,13,20,55.928,0.5154,-0.5595,-0.197,0.6182
-0.049,0.178,-0.065,9.4,28.8,-92.7,1023,2018,5,11,13,20,55.949,0.5072,-0.5593,-0.1843,0.6291
-0.081,0.258,-0.042,7.7,31.9,-85,1023,2018,5,11,13,20,55.968,0.4999,-0.5583,-0.1722,0.6392
-0.09,0.293,-0.051,4.1,28,-75.3,1023,2018,5,11,13,20,55.986,0.4933,-0.5572,-0.1606,0.6483
-0.091,0.288,-0.053,2.3,22.3,-63.9,1023,2018,5,11,13,20,56.005,0.4875,-0.5566,-0.151,0.6554
-0.078,0.259,-0.072,1.4,16.5,-51.5,1023,2018,5,11,13,20,56.025,0.4827,-0.5563,-0.1432,0.661
-0.083,0.284,-0.063,0.8,11.7,-39.4,1023,2018,5,11,13,20,56.066,0.4788,-0.5559,-0.1374,0.6653
-0.093,0.304,-0.059,-2.7,3.4,-27.7,1023,2018,5,11,13,20,56.085,0.4756,-0.5563,-0.1333,0.6681
-0.087,0.289,-0.074,-6.5,-0.2,-15.8,1023,2018,5,11,13,20,56.089,0.4734,-0.5572,-0.1306,0.6695
-0.082,0.29,-0.095,-6.9,-5.6,-4.2,1023,2018,5,11,13,20,56.107,0.4721,-0.5584,-0.1296,0.6696
-0.087,0.308,-0.094,-7.4,-19.3,8.2,1023,2018,5,11,13,20,56.127,0.4713,-0.5602,-0.1307,0.6684
-0.094,0.262,-0.051,-9.3,-32.7,18.6,0,2018,5,11,13,20,56.167,0.4705,-0.5629,-0.1347,0.6659
-0.088,0.195,0.021,-13.8,-35.1,27.3,0,2018,5,11,13,20,56.186,0.47,-0.5666,-0.14,0.662
-0.067,0.14,-0.001,-18.5,-25.9,34.4,0,2018,5,11,13,20,56.19,0.471,-0.5699,-0.1449,0.6575
-0.031,0.188,-0.073,-19.3,-20,41.3,0,2018,5,11,13,20,56.228,0.4733,-0.573,-0.149,0.6522
-0.031,0.333,-0.095,-20.7,-40.9,49.1,0,2018,5,11,13,20,56.249,0.476,-0.5764,-0.1551,0.6457
-0.059,0.33,-0.067,-24.5,-78.8,58.9,0,2018,5,11,13,20,56.253,0.4766,-0.5824,-0.1657,0.6372
-0.036,0.157,-0.051,-24.5,-87.9,67.7,0,2018,5,11,13,20,56.269,0.4752,-0.5905,-0.1792,0.6271
0,0.083,-0.081,-18.7,-73.6,74.5,0,2018,5,11,13,20,56.305,0.4747,-0.5978,-0.1933,0.6162
0.005,0.184,-0.136,-12.9,-68.2,81.4,0,2018,5,11,13,20,56.325,0.4761,-0.6027,-0.2074,0.6057
-0.009,0.24,-0.105,-11.2,-86.6,89.2,0,2018,5,11,13,20,56.329,0.4773,-0.6072,-0.2235,0.5944
-0.013,0.094,0.053,-10.5,-91.6,96.4,0,2018,5,11,13,20,56.367,0.4774,-0.6121,-0.2418,0.5821
-0.016,0.027,0.06,-13.2,-72.3,102.4,0,2018,5,11,13,20,56.389,0.4794,-0.6153,-0.2595,0.5693
-0.007,0.015,-0.049,-14.4,-51.5,105.4,0,2018,5,11,13,20,56.393,0.4838,-0.6168,-0.2754,0.5563
-0.039,0.082,-0.061,-14.1,-51,105.3,0,2018,5,11,13,20,56.412,0.489,-0.6176,-0.2905,0.543
-0.043,0.019,0.029,-15.7,-57.9,103.5,0,2018,5,11,13,20,56.447,0.4935,-0.6184,-0.306,0.5293
-0.047,0.003,0.155,-21.7,-43.1,104.1,0,2018,5,11,13,20,56.466,0.4987,-0.6185,-0.3203,0.5157
-0.057,-0.018,0.154,-31.2,-12.7,106.8,0,2018,5,11,13,20,56.47,0.5067,-0.6172,-0.3318,0.502
-0.054,0.06,-0.002,-37.7,-2.9,106.7,0,2018,5,11,13,20,56.49,0.5179,-0.614,-0.3406,0.4885
-0.056,0.044,-0.123,-32.6,-30.6,110.3,0,2018,5,11,13,20,56.51,0.5272,-0.6123,-0.3506,0.4732
-0.047,-0.029,-0.003,-26.9,-29.6,114.4,0,2018,5,11,13,20,56.55,0.5344,-0.6111,-0.3632,0.457
-0.043,-0.114,0.117,-26,10.7,115.3,0,2018,5,11,13,20,56.554,0.5444,-0.6063,-0.374,0.4427
-0.048,0.017,0.168,-28.9,55,117.2,0,2018,5,11,13,20,56.568,0.5593,-0.5967,-0.3806,0.4312
-0.038,0.189,0.034,-34.8,22.9,122.4,0,2018,5,11,13,20,56.609,0.5753,-0.5864,-0.3863,0.4192
-0.043,0.046,-0.134,-30.7,-27.8,128.2,0,2018,5,11,13,20,56.629,0.5855,-0.5814,-0.3968,0.4019
-0.056,-0.084,0.001,-27.9,-29.8,129.1,0,2018,5,11,13,20,56.634,0.5928,-0.5778,-0.4098,0.3828
-0.022,-0.175,0.091,-29.8,4.4,119.7,0,2018,5,11,13,20,56.67,0.6021,-0.5716,-0.4201,0.3661
0.007,-0.016,0.101,-34.9,9.7,112.8,0,2018,5,11,13,20,56.675,0.6134,-0.5634,-0.4269,0.3518
0.008,-0.057,-0.003,-37.3,-17.6,113.2,0,2018,5,11,13,20,56.691,0.6228,-0.5574,-0.434,0.336
0.01,-0.201,-0.047,-32.3,-13.6,109.4,0,2018,5,11,13,20,56.711,0.6296,-0.5533,-0.4422,0.3189
0.051,-0.297,0,-25.2,41.1,101.4,0,2018,5,11,13,20,56.731,0.6383,-0.5459,-0.4482,0.3058
0.066,-0.229,0.021,-18.4,85.9,96,1023,2018,5,11,13,20,56.751,0.6515,-0.5318,-0.4508,0.2988
-0.004,-0.101,0.082,-15.9,71.4,90.2,1023,2018,5,11,13,20,56.773,0.6652,-0.516,-0.4525,0.2937
-0.013,-0.156,0.063,-16.2,52.9,85.2,1023,2018,5,11,13,20,56.793,0.6765,-0.5028,-0.455,0.287
0.01,-0.182,0.019,-13.7,73.4,77.5,1023,2018,5,11,13,20,56.812,0.6869,-0.49,-0.4569,0.2811
0.036,-0.137,0.03,-7.7,108.8,72.7,1023,2018,5,11,13,20,56.853,0.6992,-0.4734,-0.4569,0.2793
-0.032,-0.117,0.024,-4.7,86.4,65.2,1023,2018,5,11,13,20,56.873,0.7111,-0.4562,-0.4566,0.2785
-0.081,-0.192,0.05,-4.1,53.7,56.7,1023,2018,5,11,13,20,56.877,0.7198,-0.4428,-0.4574,0.2762
-0.076,-0.205,0.019,-4.7,25.1,41.9,1023,2018,5,11,13,20,56.896,0.7253,-0.4345,-0.4588,0.2727
-0.055,-0.226,0.021,-1.6,25.5,26.7,1023,2018,5,11,13,20,56.915,0.7287,-0.4294,-0.4598,0.2702
-0.043,-0.204,0.052,2.1,20.2,11.7,1023,2018,5,11,13,20,56.935,0.7313,-0.425,-0.4599,0.27
-0.042,-0.204,0.098,4.1,8.7,1,1023,2018,5,11,13,20,56.953,0.7324,-0.4227,-0.4597,0.271
-0.049,-0.197,0.114,4.3,0.1,-7.8,1023,2018,5,11,13,20,56.973,0.7323,-0.4223,-0.4594,0.2724
-0.043,-0.211,0.14,3.3,2.1,-16.3,0,2018,5,11,13,20,56.991,0.7317,-0.423,-0.4583,0.2747
-0.053,-0.259,0.152,1.4,14.8,-25.7,0,2018,5,11,13,20,57.032,0.7314,-0.4235,-0.456,0.2786
-0.06,-0.225,0.16,-0.4,31.8,-35.8,0,2018,5,11,13,20,57.052,0.732,-0.4226,-0.4518,0.285
-0.066,-0.175,0.152,-2.7,36.4,-43.2,0,2018,5,11,13,20,57.056,0.7331,-0.421,-0.4463,0.2931
-0.062,-0.111,0.138,-6.4,28.5,-49.9,0,2018,5,11,13,20,57.075,0.734,-0.4201,-0.4401,0.3016
-0.048,-0.163,0.121,-9.8,10.3,-56.9,0,2018,5,11,13,20,57.097,0.7335,-0.4219,-0.4337,0.3094
-0.052,-0.236,0.092,-11.3,10.4,-66.9,0,2018,5,11,13,20,57.114,0.7317,-0.426,-0.4269,0.3174
-0.029,-0.187,0.071,-11.4,22.5,-76.9,0,2018,5,11,13,20,57.136,0.7297,-0.43,-0.4188,0.3272
0.002,-0.091,0.039,-12,23.1,-82.4,0,2018,5,11,13,20,57.157,0.7278,-0.4334,-0.4096,0.3386
0.007,-0.014,0.017,-11.7,3.4,-85.5,0,2018,5,11,13,20,57.176,0.7246,-0.4384,-0.4007,0.3494
0.003,-0.055,0.012,-9.3,-7,-89.1,0,2018,5,11,13,20,57.195,0.7196,-0.4456,-0.3927,0.3594
0.022,-0.109,0.013,-6.3,-4.8,-93.8,0,2018,5,11,13,20,57.24,0.7137,-0.4533,-0.3848,0.37
0.037,-0.09,0.017,-6,3.1,-97.2,0,2018,5,11,13,20,57.243,0.7076,-0.4604,-0.3762,0.3816
0.026,-0.05,0.034,-7.1,7,-100,0,2018,5,11,13,20,57.256,0.7017,-0.4667,-0.3667,0.3938
0.009,-0.065,0.037,-7.6,10.1,-103.9,0,2018,5,11,13,20,57.293,0.6958,-0.4727,-0.3566,0.4063
0.001,-0.061,0.04,-9,8,-109.8,0,2018,5,11,13,20,57.312,0.6894,-0.4786,-0.3459,0.4193
0,-0.002,0.069,-14.8,-4.5,-115.2,0,2018,5,11,13,20,57.315,0.6821,-0.4856,-0.3346,0.4321
0.011,0.01,0.071,-20.8,-14.9,-118.9,0,2018,5,11,13,20,57.351,0.6735,-0.4946,-0.323,0.4441
0.021,-0.05,0.037,-23.3,-12.6,-121.9,0,2018,5,11,13,20,57.371,0.6641,-0.5047,-0.3107,0.4555
0.007,-0.077,0.01,-22.7,6.8,-126,0,2018,5,11,13,20,57.375,0.655,-0.5135,-0.2973,0.4676
-0.011,-0.027,-0.032,-22.9,25.8,-130.5,0,2018,5,11,13,20,57.393,0.647,-0.5201,-0.2819,0.4808
-0.006,0.055,-0.064,-24.3,25.9,-132.7,0,2018,5,11,13,20,57.413,0.6393,-0.5256,-0.265,0.4946
-0.008,0.068,-0.032,-24.3,19.8,-132.7,0,2018,5,11,13,20,57.449,0.6307,-0.5313,-0.248,0.5081
-0.004,0.038,-0.064,-22.5,18.9,-132.5,0,2018,5,11,13,20,57.47,0.6213,-0.5372,-0.2314,0.5211
-0.015,-0.017,-0.084,-18.6,28.6,-133.9,0,2018,5,11,13,20,57.475,0.6118,-0.5423,-0.2148,0.5341
-0.035,0.056,-0.119,-15.4,38,-136.9,0,2018,5,11,13,20,57.512,0.6025,-0.5459,-0.1973,0.5477
-0.04,0.119,-0.13,-11.2,36.8,-137.1,0,2018,5,11,13,20,57.533,0.5928,-0.5485,-0.1794,0.5616
-0.032,0.192,-0.148,-4.6,28.4,-133.3,0,2018,5,11,13,20,57.537,0.5826,-0.5502,-0.1624,0.5757
-0.035,0.225,-0.141,1.8,13.6,-126.2,0,2018,5,11,13,20,57.576,0.5714,-0.5517,-0.1478,0.5892
-0.066,0.098,-0.092,7,10.7,-120.2,0,2018,5,11,13,20,57.596,0.5591,-0.5537,-0.1353,0.6019
-0.079,0.103,-0.127,10.9,22.5,-117,0,2018,5,11,13,20,57.6,0.5477,-0.5543,-0.1233,0.6143
-0.096,0.262,-0.111,12.9,26.4,-111.8,1023,2018,5,11,13,20,57.617,0.5372,-0.5533,-0.1101,0.6269
-0.106,0.344,-0.098,12.5,7.3,-101.4,1023,2018,5,11,13,20,57.656,0.5268,-0.5522,-0.099,0.6385
-0.125,0.26,-0.07,10.2,-10.5,-89.9,1023,2018,5,11,13,20,57.675,0.5155,-0.5527,-0.0911,0.6483
-0.151,0.188,-0.042,7.1,-11.2,-80.5,1023,2018,5,11,13,20,57.679,0.5044,-0.5537,-0.0844,0.657
-0.157,0.232,-0.072,2.6,-4.1,-73.1,1023,2018,5,11,13,20,57.715,0.4947,-0.5545,-0.0779,0.6644
-0.133,0.394,-0.13,-0.4,-13,-60.2,1023,2018,5,11,13,20,57.733,0.4862,-0.5558,-0.0721,0.6703
-0.114,0.392,-0.097,1.2,-30.1,-40.2,1023,2018,5,11,13,20,57.738,0.4782,-0.5581,-0.0703,0.6744
-0.128,0.307,-0.036,1.2,-35.9,-20.3,1023,2018,5,11,13,20,57.776,0.4714,-0.561,-0.0718,0.6766
-0.13,0.265,0.005,-2.6,-27.9,-2.2,1023,2018,5,11,13,20,57.795,0.467,-0.5638,-0.0747,0.677
-0.126,0.266,0.023,-8.2,-21.5,14.7,1023,2018,5,11,13,20,57.797,0.4655,-0.5662,-0.078,0.6756
-0.097,0.278,0.012,-14.2,-19.5,31.1,1023,2018,5,11,13,20,57.831,0.4665,-0.5689,-0.0817,0.6723
-0.063,0.312,-0.013,-17.7,-26.2,48.3,1023,2018,5,11,13,20,57.85,0.4692,-0.5719,-0.0872,0.6671
-0.082,0.228,0.013,-21,-33.5,64.1,0,2018,5,11,13,20,57.858,0.473,-0.5757,-0.095,0.66
-0.118,0.105,-0.01,-27,-28.5,74.9,0,2018,5,11,13,20,57.896,0.4784,-0.5796,-0.1038,0.6514
-0.147,0.042,-0.067,-33.8,-8.4,78.9,0,2018,5,11,13,20,57.898,0.4862,-0.5828,-0.1118,0.6413
-0.105,0.114,-0.081,-36.5,0.1,80,0,2018,5,11,13,20,57.917,0.4957,-0.5854,-0.1179,0.6304
-0.097,0.268,-0.074,-38.7,-21.8,86.2,0,2018,5,11,13,20,57.952,0.5042,-0.5889,-0.1233,0.6194
-0.114,0.316,-0.042,-44.4,-58.2,97.3,0,2018,5,11,13,20,57.973,0.5107,-0.5947,-0.1336,0.6062
-0.125,0.236,-0.048,-53.1,-87.1,107.8,0,2018,5,11,13,20,57.978,0.5147,-0.6037,-0.1477,0.5904
-0.074,-0.036,-0.077,-52.4,-80.2,113,0,2018,5,11,13,20,58.015,0.5181,-0.6143,-0.1641,0.5719
-0.013,-0.145,-0.063,-42.9,-35.7,115.6,0,2018,5,11,13,20,58.036,0.5246,-0.6212,-0.1787,0.5539
0.017,-0.039,-0.003,-33.7,4.7,118.6,0,2018,5,11,13,20,58.042,0.5356,-0.6224,-0.1896,0.5382
0.004,0.229,0.029,-33.7,0.6,126.7,0,2018,5,11,13,20,58.079,0.5487,-0.6206,-0.1987,0.5236
-0.002,0.309,-0.027,-37,-41.6,139.9,0,2018,5,11,13,20,58.101,0.5598,-0.621,-0.2115,0.506
0.001,0.056,-0.071,-33.3,-68.9,149,0,2018,5,11,13,20,58.104,0.567,-0.6244,-0.2285,0.486
0.019,-0.159,-0.054,-22.9,-48.5,148.7,0,2018,5,11,13,20,58.119,0.5732,-0.6274,-0.2476,0.4651
0.052,0.173,0.045,-11,26,152.7,0,2018,5,11,13,20,58.155,0.5978,-0.6159,-0.2766,0.432
0.039,0.333,-0.039,-7.8,-13.4,163.2,0,2018,5,11,13,20,58.176,0.6106,-0.608,-0.2908,0.4156
0,0.092,-0.102,0.4,-51.2,171.7,0,2018,5,11,13,20,58.178,0.6181,-0.6041,-0.3109,0.3952
0.003,-0.133,-0.05,9.4,-29.3,172.5,0,2018,5,11,13,20,58.217,0.6241,-0.5995,-0.3329,0.3742
0.026,-0.16,0.027,18.2,37.3,167.2,0,2018,5,11,13,20,58.236,0.6345,-0.588,-0.3518,0.3575
0.026,0.05,-0.019,22.5,35.7,162.1,0,2018,5,11,13,20,58.242,0.6476,-0.5717,-0.3678,0.3441
-0.019,-0.167,-0.131,34,13.9,155.5,0,2018,5,11,13,20,58.28,0.6567,-0.5576,-0.3856,0.33
-0.068,-0.335,-0.054,47.3,27.1,139.9,0,2018,5,11,13,20,58.303,0.6633,-0.5436,-0.4041,0.3179
-0.047,-0.411,0.046,53.1,75.3,119.5,0,2018,5,11,13,20,58.307,0.6711,-0.526,-0.4194,0.3112
0,-0.137,0.101,53.9,93.7,105.1,0,2018,5,11,13,20,58.322,0.6815,-0.5039,-0.4304,0.3101
-0.024,-0.119,0.106,50.9,58.3,96.7,0,2018,5,11,13,20,58.358,0.6899,-0.484,-0.4406,0.3088
-0.065,-0.232,0.12,48,39.5,86.9,0,2018,5,11,13,20,58.377,0.6953,-0.4682,-0.4514,0.3057
-0.085,-0.387,0.177,43.3,55.2,70.3,0,2018,5,11,13,20,58.381,0.6996,-0.4541,-0.4604,0.3037
-0.064,-0.396,0.248,36.6,99.5,55.2,0,2018,5,11,13,20,58.422,0.706,-0.4373,-0.4654,0.3058
-0.119,-0.199,0.301,26.7,102.3,37.7,0,2018,5,11,13,20,58.426,0.7139,-0.4186,-0.4671,0.3111
-0.15,-0.168,0.364,10,65,23.9,0,2018,5,11,13,20,58.443,0.72,-0.4048,-0.467,0.3154
-0.144,-0.171,0.323,-6.2,37.9,10.8,0,2018,5,11,13,20,58.479,0.7243,-0.3971,-0.4656,0.3175
-0.112,-0.167,0.266,-18.7,13.1,-1.9,0,2018,5,11,13,20,58.499,0.7273,-0.3943,-0.4628,0.3181
-0.076,-0.181,0.212,-25.4,-1.8,-12.5,0,2018,5,11,13,20,58.502,0.7294,-0.3952,-0.4587,0.3181
-0.061,-0.177,0.191,-29,-4.9,-21.7,0,2018,5,11,13,20,58.539,0.7309,-0.3983,-0.4535,0.3184
-0.057,-0.159,0.157,-31.3,-2,-29.2,0,2018,5,11,13,20,58.559,0.7321,-0.402,-0.4473,0.3197
-0.037,-0.107,0.117,-32.2,-6.3,-34.8,0,2018,5,11,13,20,58.563,0.7329,-0.4064,-0.4406,0.3215
-0.03,-0.126,0.085,-31.4,-12.9,-40.6,1023,2018,5,11,13,20,58.584,0.7328,-0.4122,-0.4339,0.3236
-0.027,-0.187,0.082,-27.9,-13.1,-48.4,1023,2018,5,11,13,20,58.603,0.7315,-0.4191,-0.4273,0.3262
-0.039,-0.212,0.113,-23.4,-1.8,-57.2,1023,2018,5,11,13,20,58.642,0.7299,-0.4255,-0.4202,0.3309
-0.025,-0.132,0.107,-22.8,-0.7,-65,1023,2018,5,11,13,20,58.662,0.7281,-0.4311,-0.4123,0.3373
0.006,-0.078,0.069,-23.8,-10.7,-70,1023,2018,5,11,13,20,58.666,0.7255,-0.438,-0.4041,0.3439
0.027,-0.097,0.054,-21.2,-10.7,-73.7,1023,2018,5,11,13,20,58.703,0.7219,-0.4459,-0.396,0.3508
0.047,-0.069,0.045,-18.8,-8,-76.2,1023,2018,5,11,13,20,58.724,0.7178,-0.4537,-0.3878,0.3584
0.052,-0.089,0.018,-17.6,0.5,-77.2,1023,2018,5,11,13,20,58.728,0.7137,-0.4607,-0.3791,0.3667
0.045,-0.059,0.008,-18.5,4.1,-79.9,1023,2018,5,11,13,20,58.747,0.7099,-0.467,-0.3699,0.3755
0.036,-0.064,0.032,-19.5,4.6,-84.1,1023,2018,5,11,13,20,58.784,0.7059,-0.4732,-0.3602,0.3846
0.018,-0.113,0.023,-20.7,12.2,-91.4,1023,2018,5,11,13,20,58.805,0.7017,-0.4792,-0.3497,0.3944
0.024,-0.055,0.015,-23,18.7,-98.4,1023,2018,5,11,13,20,58.809,0.6975,-0.4846,-0.3377,0.4054
0.028,-0.028,-0.003,-26.7,16.4,-103.1,1023,2018,5,11,13,20,58.844,0.6932,-0.4902,-0.3246,0.4167
0.016,-0.03,0.001,-27.7,12.8,-107.5,1023,2018,5,11,13,20,58.847,0.688,-0.4966,-0.311,0.4279
0.012,-0.024,0.015,-26.6,10.9,-112.1,1023,2018,5,11,13,20,58.865,0.6821,-0.5032,-0.2971,0.4394
0.01,-0.017,0.021,-27.7,8.9,-116.7,0,2018,5,11,13,20,58.901,0.6754,-0.5099,-0.2829,0.4512
-0.017,-0.077,-0.007,-31,23.5,-128,0,2018,5,11,13,20,58.923,0.6611,-0.5228,-0.2517,0.4755
-0.01,0.014,-0.035,-28.1,30.6,-133.5,0,2018,5,11,13,20,58.926,0.6537,-0.5278,-0.2342,0.4889
0.006,0.136,-0.091,-25,18.9,-134.1,0,2018,5,11,13,20,58.944,0.6453,-0.5329,-0.2164,0.5026
0.01,0.092,-0.101,-20,4.7,-132.5,0,2018,5,11,13,20,58.964,0.6348,-0.5392,-0.2002,0.5158
-0.012,-0.027,-0.086,-13.9,12.3,-134.3,0,2018,5,11,13,20,58.999,0.6234,-0.5451,-0.1854,0.5288
-0.031,-0.019,-0.061,-9.5,32.9,-138.5,0,2018,5,11,13,20,59.02,0.6129,-0.5485,-0.1694,0.5427
-0.046,0.13,-0.116,-6.7,43.1,-140.8,0,2018,5,11,13,20,59.027,0.6033,-0.5494,-0.1515,0.5576
-0.044,0.254,-0.201,-2.3,24.5,-136.8,0,2018,5,11,13,20,59.063,0.5929,-0.55,-0.134,0.5726
-0.054,0.209,-0.182,8.3,4.2,-130,0,2018,5,11,13,20,59.084,0.5806,-0.5513,-0.1202,0.5868
-0.081,0.116,-0.079,15.5,2.1,-124.7,0,2018,5,11,13,20,59.088,0.5671,-0.5527,-0.1089,0.6008
-0.104,0.159,-0.04,16.1,8.1,-121.1,0,2018,5,11,13,20,59.107,0.5542,-0.5527,-0.0981,0.6145
-0.104,0.254,-0.083,12.9,4.9,-114.6,0,2018,5,11,13,20,59.125,0.5418,-0.552,-0.0867,0.6277
-0.1,0.287,-0.126,13.9,-7.9,-104.6,0,2018,5,11,13,20,59.148,0.5292,-0.5522,-0.0774,0.6394
-0.101,0.257,-0.098,17,-18.1,-91.9,0,2018,5,11,13,20,59.169,0.5167,-0.5529,-0.0711,0.6496
-0.129,0.226,-0.032,15.9,-21.3,-80.6,0,2018,5,11,13,20,59.188,0.5045,-0.5535,-0.0663,0.6592
-0.156,0.251,-0.022,9.9,-20.4,-68.6,0,2018,5,11,13,20,59.207,0.4938,-0.5545,-0.0629,0.6668
-0.145,0.302,-0.045,3.6,-21.6,-55,0,2018,5,11,13,20,59.245,0.4845,-0.5562,-0.0599,0.6725
-0.124,0.327,-0.028,1.6,-25.8,-37.4,0,2018,5,11,13,20,59.266,0.4767,-0.5583,-0.0585,0.6763
-0.13,0.321,-0.001,-1.3,-27.7,-18.5,0,2018,5,11,13,20,59.27,0.4708,-0.5607,-0.0593,0.6784
-0.133,0.35,0.046,-8.4,-30.6,1.9,0,2018,5,11,13,20,59.284,0.4671,-0.5637,-0.0616,0.6783
-0.124,0.34,0.064,-17.6,-35.8,23.4,0,2018,5,11,13,20,59.319,0.4656,-0.5677,-0.0661,0.6756
-0.109,0.263,0.024,-24,-38.7,44.7,0,2018,5,11,13,20,59.34,0.4662,-0.5728,-0.0725,0.6702
-0.091,0.166,-0.041,-24.5,-33.2,61.5,0,2018,5,11,13,20,59.344,0.4691,-0.5777,-0.0799,0.6631
-0.08,0.224,-0.048,-24.6,-31,74.4,0,2018,5,11,13,20,59.381,0.4737,-0.582,-0.0876,0.655
-0.099,0.326,0.009,-30.1,-43.7,88.2,0,2018,5,11,13,20,59.402,0.4797,-0.5866,-0.0981,0.6449
-0.089,0.181,0.048,-35.7,-59.8,101,0,2018,5,11,13,20,59.409,0.4856,-0.5929,-0.1114,0.6325
-0.046,-0.046,-0.037,-34.2,-48.5,106.3,0,2018,5,11,13,20,59.444,0.492,-0.5992,-0.1258,0.6187
-0.038,-0.013,-0.022,-29.8,-20.3,108.3,0,2018,5,11,13,20,59.465,0.5009,-0.6032,-0.1385,0.6049
-0.071,0.179,0.026,-31.6,-13.7,111.4,0,2018,5,11,13,20,59.469,0.5117,-0.6044,-0.149,0.592
-0.088,0.267,-0.028,-38.8,-39.9,117.8,0,2018,5,11,13,20,59.503,0.5217,-0.6069,-0.16,0.5777
-0.043,0.142,-0.072,-36.2,-62.5,125,0,2018,5,11,13,20,59.525,0.5287,-0.6124,-0.1742,0.5612
-0.013,0.078,-0.068,-27.6,-58.7,130.4,0,2018,5,11,13,20,59.526,0.5349,-0.6177,-0.1911,0.5437
-0.022,0.133,0.006,-23.2,-45.4,137.1,0,2018,5,11,13,20,59.561,0.5423,-0.6204,-0.208,0.5267
-0.054,0.229,0.025,-25.3,-44.1,146.6,0,2018,5,11,13,20,59.582,0.5516,-0.6209,-0.2245,0.5096
-0.03,0.05,-0.128,-18.5,-55.7,154.1,0,2018,5,11,13,20,59.586,0.5599,-0.622,-0.2431,0.4903
-0.016,-0.07,-0.17,-1.5,-43,156.5,1023,2018,5,11,13,20,59.623,0.5678,-0.621,-0.2634,0.4716
-0.033,0.068,0.064,11.7,-11.3,156.9,1023,2018,5,11,13,20,59.642,0.5863,-0.6094,-0.3031,0.4391
-0.024,0.114,0.051,8.6,-27.7,161.1,1023,2018,5,11,13,20,59.65,0.5965,-0.6011,-0.3218,0.4232
-0.006,-0.256,-0.197,18.1,-36,155.1,1023,2018,5,11,13,20,59.685,0.603,-0.5954,-0.3428,0.4053
0.019,-0.32,-0.133,34.3,1.5,143.9,1023,2018,5,11,13,20,59.707,0.609,-0.5871,-0.3628,0.3906
0.045,-0.242,-0.032,42.9,44.1,129.1,1023,2018,5,11,13,20,59.712,0.6175,-0.5736,-0.3793,0.3816
0.057,-0.059,0.055,45,79.3,120,1023,2018,5,11,13,20,59.733,0.629,-0.5553,-0.3919,0.3772
0.065,0.078,0.057,42,70.6,117.5,1023,2018,5,11,13,20,59.752,0.6414,-0.5354,-0.4021,0.3743
0.03,-0.156,-0.017,41.8,60.3,110.5,1023,2018,5,11,13,20,59.769,0.6513,-0.5178,-0.413,0.3699
0.026,-0.243,0.024,41.2,95,98.1,1023,2018,5,11,13,20,59.79,0.6613,-0.4993,-0.422,0.3675
0.056,-0.112,0.068,41.4,140.9,86.9,1023,2018,5,11,13,20,59.829,0.6744,-0.476,-0.4263,0.3697
0.012,0.161,0.189,38.9,111.3,81.9,1023,2018,5,11,13,20,59.849,0.6875,-0.4513,-0.4291,0.3732
-0.04,-0.018,0.247,28.9,55.1,75.8,1023,2018,5,11,13,20,59.853,0.6962,-0.4336,-0.4342,0.3723
-0.064,-0.114,0.245,16.7,37.3,68.5,1023,2018,5,11,13,20,59.89,0.7023,-0.4215,-0.4396,0.3684
-0.028,-0.178,0.178,9,63.4,60.5,1023,2018,5,11,13,20,59.91,0.7095,-0.4093,-0.4419,0.3655
-0.064,-0.163,0.202,9.1,81.9,55,1023,2018,5,11,13,20,59.914,0.7184,-0.3941,-0.4414,0.3654
-0.111,-0.38,0.178,10.6,89.5,40.8,0,2018,5,11,13,20,59.933,0.7266,-0.3792,-0.4401,0.3666
-0.174,-0.228,0.256,8.3,92,29.2,0,2018,5,11,13,20,59.953,0.7344,-0.3636,-0.4372,0.3702
-0.163,-0.124,0.28,1.8,76.3,19.1,0,2018,5,11,13,20,59.994,0.7411,-0.3502,-0.4337,0.3739
-0.182,-0.086,0.315,-5.3,45.3,5.2,0,2018,5,11,13,21,0.014,0.7458,-0.3415,-0.4302,0.3768
-0.158,-0.125,0.304,-13.5,8.4,-10.2,0,2018,5,11,13,21,0.018,0.7478,-0.3389,-0.427,0.3786
-0.125,-0.194,0.235,-20.7,-20.1,-21.2,0,2018,5,11,13,21,0.034,0.7478,-0.3421,-0.4241,0.3791
-0.118,-0.317,0.187,-23.3,-25.4,-33.2,0,2018,5,11,13,21,0.053,0.7464,-0.3486,-0.4208,0.3795
-0.093,-0.319,0.206,-24.8,-10.7,-47.3,0,2018,5,11,13,21,0.072,0.7444,-0.3555,-0.4161,0.3822
-0.073,-0.147,0.222,-30.1,-11.3,-59.2,0,2018,5,11,13,21,0.111,0.7426,-0.362,-0.4093,0.3871
-0.047,-0.09,0.161,-34.9,-24.8,-67.7,0,2018,5,11,13,21,0.13,0.7399,-0.3705,-0.4015,0.3922
-0.026,-0.171,0.093,-36.1,-35.5,-75.6,0,2018,5,11,13,21,0.134,0.7356,-0.3818,-0.394,0.3971
-0.022,-0.238,0.078,-34.8,-27.9,-85.4,0,2018,5,11,13,21,0.155,0.7301,-0.3941,-0.3861,0.403
-0.019,-0.171,0.101,-35.1,-15.4,-96,0,2018,5,11,13,21,0.175,0.7243,-0.4055,-0.3766,0.4109
0.002,-0.042,0.106,-38.4,-17.9,-102.7,0,2018,5,11,13,21,0.197,0.7186,-0.4164,-0.3655,0.4201
0.016,-0.008,0.073,-40.7,-24.9,-106.5,0,2018,5,11,13,21,0.216,0.712,-0.4282,-0.3539,0.4292
0.033,-0.011,0.004,-39.3,-30.8,-108.9,0,2018,5,11,13,21,0.234,0.7042,-0.4413,-0.3425,0.4379
0.028,-0.039,-0.027,-35.8,-28.8,-110.5,0,2018,5,11,13,21,0.256,0.6953,-0.4547,-0.3316,0.4468
0.011,-0.024,0.01,-32.4,-17.9,-113.1,0,2018,5,11,13,21,0.275,0.6863,-0.4669,-0.3203,0.4563
0,-0.019,0.017,-32,-12,-115,0,2018,5,11,13,21,0.295,0.6777,-0.4775,-0.3081,0.4665
0.026,-0.089,-0.051,-23.8,32.7,-119.1,0,2018,5,11,13,21,0.316,0.6619,-0.4936,-0.2803,0.4895
0.007,-0.025,-0.02,-19.1,63.5,-120.3,0,2018,5,11,13,21,0.354,0.6564,-0.4959,-0.2634,0.5036
-0.028,0.039,-0.002,-19.3,78.9,-120.3,0,2018,5,11,13,21,0.374,0.6529,-0.4945,-0.2442,0.519
-0.021,0.095,-0.054,-21.2,77.9,-120.2,0,2018,5,11,13,21,0.378,0.6495,-0.4923,-0.2243,0.5341
0,0.163,-0.085,-21.5,65.2,-118.5,0,2018,5,11,13,21,0.413,0.645,-0.4909,-0.2046,0.5486
-0.008,0.151,-0.074,-20.3,48.5,-116.2,0,2018,5,11,13,21,0.434,0.6389,-0.4909,-0.1862,0.5621
-0.004,0.048,-0.061,-18.2,45.1,-114.7,0,2018,5,11,13,21,0.438,0.6317,-0.4917,-0.1694,0.5747
-0.007,0.055,-0.074,-16.2,56.4,-115.3,0,2018,5,11,13,21,0.454,0.6247,-0.4914,-0.1524,0.5873
-0.034,0.127,-0.107,-16.6,60.3,-116.1,0,2018,5,11,13,21,0.493,0.6178,-0.4901,-0.1346,0.5998
-0.045,0.216,-0.129,-18.7,47.3,-114.7,0,2018,5,11,13,21,0.513,0.6104,-0.4888,-0.1164,0.6121
-0.04,0.209,-0.127,-18.1,26.9,-111,0,2018,5,11,13,21,0.517,0.6012,-0.4894,-0.0999,0.6236
-0.054,0.159,-0.137,-15.4,17.4,-108,0,2018,5,11,13,21,0.537,0.5908,-0.4914,-0.0858,0.634
-0.102,0.128,-0.111,-15.4,17.7,-106.4,0,2018,5,11,13,21,0.556,0.5802,-0.4933,-0.073,0.6438
-0.149,0.127,-0.077,-19.8,22,-105.7,0,2018,5,11,13,21,0.578,0.5703,-0.4942,-0.0602,0.6533
-0.157,0.171,-0.062,-26.8,26.9,-104.1,0,2018,5,11,13,21,0.597,0.5608,-0.4948,-0.0462,0.662
-0.145,0.263,-0.109,-31.9,19.1,-98.3,0,2018,5,11,13,21,0.634,0.5513,-0.4961,-0.0313,0.6699
-0.136,0.3,-0.141,-33.8,0.3,-89,0,2018,5,11,13,21,0.653,0.5413,-0.4994,-0.019,0.676
-0.132,0.284,-0.124,-32,-13.9,-76.6,1023,2018,5,11,13,21,0.659,0.5309,-0.5043,-0.0096,0.6809
-0.133,0.305,-0.075,-31,-17.6,-61.6,1023,2018,5,11,13,21,0.675,0.5213,-0.5095,-0.0029,0.6845
-0.119,0.344,-0.072,-31.4,-23.9,-45.1,1023,2018,5,11,13,21,0.695,0.5132,-0.5148,0.0018,0.6866
-0.111,0.328,-0.068,-33.4,-31.3,-25.8,1023,2018,5,11,13,21,0.716,0.5065,-0.5211,0.0043,0.6869
-0.068,0.332,-0.097,-30.7,-38.7,-4.9,1023,2018,5,11,13,21,0.751,0.5014,-0.528,0.004,0.6853
-0.051,0.325,-0.082,-23.8,-39.9,18.7,1023,2018,5,11,13,21,0.773,0.4986,-0.5346,0.0009,0.6822
-0.057,0.324,-0.015,-20.1,-38.5,41.3,1023,2018,5,11,13,21,0.777,0.4986,-0.5404,-0.005,0.6776
-0.064,0.335,-0.046,-20.7,-42.4,62.3,1023,2018,5,11,13,21,0.816,0.5011,-0.5461,-0.0133,0.6711
-0.068,0.259,-0.067,-20.3,-51.6,80.7,1023,2018,5,11,13,21,0.836,0.505,-0.5523,-0.0243,0.6627
-0.071,0.182,-0.038,-16.6,-51.6,94.3,1023,2018,5,11,13,21,0.84,0.51,-0.5583,-0.0372,0.6531
-0.107,0.256,0.007,-17.5,-54.1,107.1,1023,2018,5,11,13,21,0.877,0.5164,-0.5639,-0.0513,0.6423
-0.148,0.377,-0.012,-24.6,-71.3,122.7,1023,2018,5,11,13,21,0.896,0.5233,-0.5706,-0.0677,0.6292
-0.136,0.233,-0.128,-27.2,-93.6,139.4,1023,2018,5,11,13,21,0.901,0.5293,-0.5795,-0.0877,0.6133
-0.086,-0.02,-0.208,-16.5,-80.6,148.2,1023,2018,5,11,13,21,0.921,0.5357,-0.5877,-0.1102,0.5961
-0.069,-0.095,-0.14,-2.3,-34,152.4,0,2018,5,11,13,21,0.941,0.5454,-0.5909,-0.131,0.5798
-0.079,0.092,-0.024,4.9,8.2,155.2,0,2018,5,11,13,21,0.978,0.5599,-0.5877,-0.1484,0.5648
-0.078,0.343,0.026,3.4,-5,163.2,0,2018,5,11,13,21,0.982,0.5759,-0.582,-0.1645,0.5499
-0.072,0.172,-0.062,8.9,-43.5,172.7,0,2018,5,11,13,21,0.999,0.589,-0.5788,-0.1846,0.5327
-0.052,-0.106,-0.107,20.9,-47,175.8,0,2018,5,11,13,21,1.036,0.5994,-0.5767,-0.2087,0.5142
-0.031,-0.201,-0.045,32.2,-10.1,171.3,0,2018,5,11,13,21,1.056,0.6106,-0.5709,-0.2323,0.4971
-0.023,-0.091,0.031,38.6,37.7,164.2,0,2018,5,11,13,21,1.061,0.6251,-0.5589,-0.252,0.4829
-0.005,0.093,0.045,41.9,43.4,161.7,0,2018,5,11,13,21,1.099,0.6413,-0.5428,-0.2681,0.4711
-0.001,0.116,0.024,47.1,20.8,163.2,0,2018,5,11,13,21,1.119,0.6556,-0.5274,-0.2853,0.4588
0.004,-0.057,-0.038,54.8,7.2,162.4,0,2018,5,11,13,21,1.124,0.6668,-0.5137,-0.305,0.4452
0.011,-0.139,-0.025,63.5,31.7,156.3,0,2018,5,11,13,21,1.16,0.6769,-0.4989,-0.325,0.4326
0.015,-0.054,-0.01,67.2,51.2,147.5,0,2018,5,11,13,21,1.18,0.688,-0.4799,-0.3425,0.4228
0.004,-0.026,-0.01,68.2,38.3,138.3,0,2018,5,11,13,21,1.184,0.6978,-0.4611,-0.3591,0.414
-0.033,-0.066,0.05,66.1,18.3,128.7,0,2018,5,11,13,21,1.2,0.7051,-0.4445,-0.376,0.4046
-0.031,-0.1,0.127,58.4,23.3,117.7,0,2018,5,11,13,21,1.221,0.7111,-0.4293,-0.3916,0.3956
-0.006,-0.129,0.108,48.6,29.4,105.2,0,2018,5,11,13,21,1.241,0.7175,-0.4139,-0.404,0.3879
-0.041,-0.264,0.086,42.3,16.8,89.1,0,2018,5,11,13,21,1.278,0.7223,-0.4014,-0.4147,0.3807
-0.074,-0.347,0.127,40.9,26.9,71.7,0,2018,5,11,13,21,1.299,0.7258,-0.3906,-0.424,0.3751
-0.072,-0.289,0.185,36.7,52.3,54.4,0,2018,5,11,13,21,1.304,0.7296,-0.3784,-0.4302,0.373
-0.03,-0.187,0.224,33.6,77.8,42.6,0,2018,5,11,13,21,1.341,0.7348,-0.3638,-0.4326,0.3747
-0.064,-0.056,0.31,25.9,59.1,34.3,0,2018,5,11,13,21,1.361,0.7394,-0.3498,-0.4342,0.3771
-0.08,-0.027,0.354,13.1,30.1,31.4,0,2018,5,11,13,21,1.366,0.7427,-0.3403,-0.4358,0.3774
-0.087,-0.052,0.311,-0.2,1.2,28,0,2018,5,11,13,21,1.387,0.7451,-0.3357,-0.4373,0.375
-0.088,-0.2,0.243,-7.9,-17.3,21.1,0,2018,5,11,13,21,1.406,0.7468,-0.3354,-0.4385,0.3707
-0.103,-0.293,0.258,-9.6,-6.2,9.4,0,2018,5,11,13,21,1.419,0.748,-0.3363,-0.4384,0.3675
-0.113,-0.244,0.277,-12.6,7.9,-3.3,0,2018,5,11,13,21,1.458,0.7495,-0.3362,-0.4362,0.3671
-0.106,-0.126,0.294,-19,2.9,-13.4,0,2018,5,11,13,21,1.479,0.751,-0.3365,-0.4326,0.3681
-0.125,-0.034,0.287,-28.8,-31.4,-22.2,0,2018,5,11,13,21,1.483,0.7508,-0.3411,-0.4292,0.368
-0.103,-0.156,0.21,-35.9,-62,-31.4,0,2018,5,11,13,21,1.504,0.7487,-0.3516,-0.4263,0.3658
-0.077,-0.205,0.16,-37.5,-65.4,-43.5,0,2018,5,11,13,21,1.524,0.7453,-0.3649,-0.4228,0.3639
-0.07,-0.249,0.177,-40.1,-57.5,-56.1,0,2018,5,11,13,21,1.563,0.7411,-0.3789,-0.418,0.3635
-0.058,-0.247,0.158,-44.2,-48.8,-67.8,0,2018,5,11,13,21,1.582,0.7369,-0.3929,-0.4113,0.3651
-0.031,-0.185,0.098,-46.5,-44,-78.3,0,2018,5,11,13,21,1.586,0.7323,-0.4068,-0.4029,0.3683
0.01,-0.123,0.059,-47.6,-46.6,-86.7,0,2018,5,11,13,21,1.605,0.727,-0.4214,-0.3934,0.3726
0.034,-0.138,0.03,-45.7,-51.4,-95,0,2018,5,11,13,21,1.623,0.7204,-0.4373,-0.3836,0.3775
0.03,-0.218,0.016,-40.4,-46.9,-105.5,0,2018,5,11,13,21,1.644,0.7123,-0.4537,-0.3735,0.3837
0.037,-0.14,0.064,-36.6,-34.9,-115.1,0,2018,5,11,13,21,1.663,0.7037,-0.4687,-0.3623,0.392
0.064,-0.044,0.047,-37.4,-39.5,-121,1023,2018,5,11,13,21,1.701,0.6949,-0.483,-0.3498,0.4016
0.068,-0.086,-0.03,-34.9,-49,-127.1,1023,2018,5,11,13,21,1.721,0.6841,-0.499,-0.3375,0.4111
0.061,-0.15,-0.03,-26.8,-36.2,-134.5,1023,2018,5,11,13,21,1.725,0.6719,-0.5146,-0.3253,0.4215
0.041,-0.191,-0.007,-19.6,-5,-145,1023,2018,5,11,13,21,1.764,0.6603,-0.5272,-0.3114,0.4346
0.005,0.101,-0.03,-21.8,9.8,-154.3,1023,2018,5,11,13,21,1.784,0.6406,-0.5435,-0.2764,0.4666
0.011,0.062,-0.064,-18.2,3.2,-155.4,1023,2018,5,11,13,21,1.788,0.6289,-0.5522,-0.2587,0.4821
0.001,-0.006,-0.11,-9.9,17.1,-158.1,1023,2018,5,11,13,21,1.806,0.6165,-0.56,-0.2413,0.4979
-0.028,0.096,-0.066,-3.4,40,-159.2,1023,2018,5,11,13,21,1.842,0.6052,-0.5644,-0.2226,0.5152
-0.056,0.158,-0.07,-1.2,45.1,-158,1023,2018,5,11,13,21,1.862,0.5949,-0.5661,-0.2028,0.5332
-0.07,0.15,-0.092,3,43.3,-153.9,1023,2018,5,11,13,21,1.866,0.5843,-0.567,-0.1833,0.5507
-0.063,0.212,-0.163,8.5,37,-148.3,1023,2018,5,11,13,21,1.906,0.573,-0.5674,-0.165,0.5677
-0.092,0.287,-0.129,14.3,27.9,-140.7,1023,2018,5,11,13,21,1.91,0.5613,-0.567,-0.1484,0.5842
-0.113,0.282,-0.117,17,15.1,-130.6,1023,2018,5,11,13,21,1.925,0.5485,-0.5669,-0.1336,0.5998
-0.1,0.259,-0.109,21.9,7.3,-119.6,1023,2018,5,11,13,21,1.963,0.5352,-0.5672,-0.1212,0.614
-0.104,0.251,-0.091,27.6,-0.3,-107.5,0,2018,5,11,13,21,1.982,0.5221,-0.5669,-0.1111,0.6273
-0.141,0.213,-0.024,27.8,-4.6,-95.2,0,2018,5,11,13,21,1.986,0.5099,-0.5657,-0.1032,0.6396
-0.168,0.22,-0.007,22.2,-3.1,-86,0,2018,5,11,13,21,2.005,0.499,-0.5641,-0.0965,0.6506
-0.16,0.262,-0.05,15.8,-5.5,-76.3,0,2018,5,11,13,21,2.025,0.489,-0.5631,-0.0901,0.66
-0.151,0.3,-0.068,11.2,-15.2,-63.6,0,2018,5,11,13,21,2.068,0.4797,-0.5634,-0.0855,0.667
-0.166,0.316,-0.045,6.3,-24.2,-48.9,0,2018,5,11,13,21,2.088,0.4711,-0.5648,-0.0833,0.6723
-0.177,0.304,-0.019,-1.5,-28.4,-34.6,0,2018,5,11,13,21,2.093,0.4636,-0.5671,-0.0829,0.6756
-0.167,0.284,0,-9.4,-25.9,-20.7,0,2018,5,11,13,21,2.111,0.4577,-0.5704,-0.0829,0.6768
-0.157,0.314,0.055,-17.3,-21.6,-4.2,0,2018,5,11,13,21,2.131,0.4542,-0.5739,-0.0836,0.6761
-0.146,0.34,0.07,-27.7,-24.3,13.5,0,2018,5,11,13,21,2.148,0.4528,-0.5783,-0.0851,0.6732
-0.155,0.424,0.022,-42.1,-34.6,31.9,0,2018,5,11,13,21,2.167,0.4532,-0.5842,-0.0882,0.6674
-0.141,0.425,-0.092,-53.2,-60.3,49.2,0,2018,5,11,13,21,2.187,0.4538,-0.5929,-0.0941,0.6583
-0.096,0.237,-0.104,-55.2,-72.7,63.8,0,2018,5,11,13,21,2.207,0.4542,-0.6036,-0.1038,0.6469
-0.08,0.236,-0.04,-55.1,-71.6,74.2,0,2018,5,11,13,21,2.225,0.4546,-0.6144,-0.114,0.6345
-0.105,0.339,-0.006,-61,-79.9,86.7,0,2018,5,11,13,21,2.263,0.4565,-0.6249,-0.1264,0.6204
-0.136,0.329,-0.048,-68.7,-98.4,100.5,0,2018,5,11,13,21,2.266,0.4584,-0.6367,-0.1413,0.6036
-0.112,0.117,-0.061,-70.7,-102.3,110.6,0,2018,5,11,13,21,2.302,0.4592,-0.6497,-0.1578,0.5847
-0.063,-0.016,-0.142,-65.7,-86.3,116,0,2018,5,11,13,21,2.323,0.4618,-0.6611,-0.1749,0.5648
-0.068,0.069,-0.086,-60.5,-71.8,120.9,0,2018,5,11,13,21,2.329,0.4661,-0.6698,-0.1916,0.5451
-0.094,0.222,0.027,-64,-71.5,129.2,0,2018,5,11,13,21,2.362,0.4715,-0.6771,-0.2077,0.5252
-0.092,0.116,0.031,-68.2,-89.6,139.6,0,2018,5,11,13,21,2.382,0.4765,-0.6845,-0.2252,0.5035
-0.059,-0.087,-0.052,-62.8,-75.4,146.9,0,2018,5,11,13,21,2.385,0.4818,-0.6911,-0.2447,0.4797
-0.051,-0.159,-0.092,-52.6,-53.1,149.7,0,2018,5,11,13,21,2.424,0.4888,-0.6947,-0.2634,0.457
-0.059,-0.08,0.024,-45.7,-25.6,151.3,0,2018,5,11,13,21,2.444,0.4984,-0.6946,-0.2811,0.4358
-0.068,0.121,0.14,-48.9,-23.5,154.3,0,2018,5,11,13,21,2.449,0.5101,-0.6918,-0.2971,0.4156
-0.061,0.042,0.044,-51.8,-46.1,160.8,0,2018,5,11,13,21,2.484,0.52,-0.6898,-0.3142,0.3935
-0.029,-0.165,-0.124,-44.8,-46.5,164.4,0,2018,5,11,13,21,2.507,0.5277,-0.6885,-0.333,0.3694
0.004,-0.252,-0.111,-29.8,-0.7,161.4,0,2018,5,11,13,21,2.509,0.5367,-0.6837,-0.3512,0.3477
0.034,-0.083,0.007,-21,46.5,156.6,0,2018,5,11,13,21,2.547,0.5509,-0.6725,-0.3662,0.3315
0.033,0.159,0.004,-18.7,17.6,157.3,0,2018,5,11,13,21,2.568,0.5653,-0.6599,-0.3802,0.3166
0.009,-0.032,-0.044,-11.5,-22.6,159.8,0,2018,5,11,13,21,2.571,0.5738,-0.6508,-0.3974,0.2985
0.012,-0.228,0.032,-2.7,-10,155.8,0,2018,5,11,13,21,2.588,0.5799,-0.642,-0.4155,0.2805
0.019,-0.299,0.101,1,42.3,146.5,0,2018,5,11,13,21,2.607,0.5895,-0.6287,-0.431,0.2669
0.033,-0.322,-0.021,6.7,72.5,134.8,0,2018,5,11,13,21,2.642,0.6023,-0.6116,-0.4433,0.2579
0.023,-0.385,-0.108,21.2,84.5,120.1,0,2018,5,11,13,21,2.662,0.6148,-0.5929,-0.4546,0.2523
0.003,-0.401,0.008,32.8,112.3,101.5,0,2018,5,11,13,21,2.669,0.627,-0.5726,-0.4643,0.2515
0.004,-0.359,0.136,34.9,162.9,84.4,0,2018,5,11,13,21,2.707,0.6419,-0.5482,-0.4708,0.2562
0.029,-0.216,0.193,33.6,217.6,74,0,2018,5,11,13,21,2.728,0.6609,-0.5177,-0.4731,0.2666
-0.014,0.161,0.213,22.9,114.9,60.7,1023,2018,5,11,13,21,2.733,0.6775,-0.49,-0.4739,0.2758
-0.057,-0.361,0.245,13.9,59,47,1023,2018,5,11,13,21,2.754,0.6845,-0.4766,-0.477,0.2767
-0.052,-0.37,0.238,9.3,103.1,37,1023,2018,5,11,13,21,2.774,0.6922,-0.4628,-0.478,0.2793
-0.059,-0.261,0.196,8,136.7,25.6,1023,2018,5,11,13,21,2.794,0.7027,-0.4448,-0.4754,0.2865
-0.076,-0.159,0.159,5.5,129.3,11.8,1023,2018,5,11,13,21,2.811,0.7141,-0.4257,-0.47,0.2964
-0.088,-0.022,0.187,-0.5,80.8,0.5,1023,2018,5,11,13,21,2.831,0.7222,-0.4114,-0.4648,0.3048
-0.094,-0.038,0.219,-9.6,20.4,-9.1,1023,2018,5,11,13,21,2.848,0.7259,-0.4059,-0.4612,0.3089
-0.072,-0.124,0.222,-17.3,-15.8,-18.6,1023,2018,5,11,13,21,2.89,0.7261,-0.4081,-0.4585,0.3095
-0.039,-0.202,0.156,-20.3,-19.7,-28.8,1023,2018,5,11,13,21,2.909,0.7254,-0.4132,-0.4547,0.31
-0.026,-0.238,0.099,-20.3,-1.7,-38.5,1023,2018,5,11,13,21,2.913,0.7245,-0.4185,-0.4497,0.3123
-0.022,-0.217,0.067,-18.1,19.6,-46.9,1023,2018,5,11,13,21,2.932,0.7243,-0.422,-0.4431,0.3175
-0.028,-0.127,0.092,-17.8,25.5,-53.5,1023,2018,5,11,13,21,2.952,0.7247,-0.4237,-0.4353,0.3248
-0.037,-0.039,0.151,-21,7.3,-60.4,1023,2018,5,11,13,21,2.99,0.7246,-0.4265,-0.4271,0.3322
-0.042,-0.074,0.151,-27.3,-18.1,-68.2,1023,2018,5,11,13,21,3.01,0.7228,-0.4329,-0.4191,0.3383
-0.021,-0.152,0.093,-30.9,-22.6,-76.9,1023,2018,5,11,13,21,3.014,0.7192,-0.4424,-0.4107,0.3438
0.012,-0.174,0.035,-29.2,-11.7,-85,1023,2018,5,11,13,21,3.054,0.715,-0.4524,-0.4013,0.3506
0.007,-0.137,0.038,-24.6,2,-91.3,0,2018,5,11,13,21,3.074,0.7109,-0.461,-0.3908,0.3595
-0.007,-0.076,0.097,-23.2,0,-95.7,0,2018,5,11,13,21,3.078,0.7067,-0.4685,-0.3799,0.3695
0.012,-0.018,0.117,-26.3,-17.6,-99.7,0,2018,5,11,13,21,3.094,0.7017,-0.477,-0.3688,0.3793
0.026,-0.098,0.067,-26.9,-29.5,-104.6,0,2018,5,11,13,21,3.111,0.6946,-0.4882,-0.3581,0.3882
0.031,-0.151,0.031,-23.4,-22.3,-110.7,0,2018,5,11,13,21,3.132,0.6864,-0.5,-0.3472,0.3976
0.031,-0.156,0.042,-17.5,-11.4,-117.8,0,2018,5,11,13,21,3.173,0.6778,-0.5106,-0.3357,0.4086
0.002,-0.126,0.123,-16.5,-2,-124.5,0,2018,5,11,13,21,3.177,0.6696,-0.5193,-0.323,0.4213
0,-0.007,0.107,-24.8,-14.3,-129.6,0,2018,5,11,13,21,3.195,0.661,-0.528,-0.309,0.4342
0.018,-0.034,0.015,-29.6,-23.4,-135,0,2018,5,11,13,21,3.234,0.6507,-0.5391,-0.2947,0.446
0.012,-0.131,-0.038,-15.8,6.4,-149.6,0,2018,5,11,13,21,3.254,0.6269,-0.5607,-0.2644,0.4717
-0.027,-0.015,0.038,-14.6,26.6,-155.7,0,2018,5,11,13,21,3.258,0.6166,-0.5668,-0.2464,0.4876
-0.046,0.086,-0.009,-18.7,24.2,-158.2,0,2018,5,11,13,21,3.277,0.6065,-0.5716,-0.2268,0.5038
-0.043,0.079,-0.138,-17.6,13.8,-160.2,0,2018,5,11,13,21,3.298,0.5947,-0.5777,-0.2073,0.5191
-0.046,0.123,-0.197,-8.5,14.5,-162.1,0,2018,5,11,13,21,3.316,0.5815,-0.5834,-0.1884,0.5346
-0.079,0.144,-0.159,-0.8,16.8,-162.4,0,2018,5,11,13,21,3.333,0.5678,-0.5874,-0.17,0.5509
-0.114,0.201,-0.164,2.5,16,-160.8,0,2018,5,11,13,21,3.371,0.5533,-0.5908,-0.152,0.567
-0.142,0.218,-0.178,5.2,10.8,-157.7,0,2018,5,11,13,21,3.39,0.5385,-0.5932,-0.1346,0.5829
-0.16,0.303,-0.153,9.8,8.1,-151.8,0,2018,5,11,13,21,3.394,0.5234,-0.5949,-0.1184,0.5983
-0.167,0.366,-0.144,13.6,-0.4,-141.4,0,2018,5,11,13,21,3.415,0.508,-0.5962,-0.1039,0.6128
-0.187,0.377,-0.101,14,-11.1,-127.3,0,2018,5,11,13,21,3.45,0.4927,-0.5973,-0.0921,0.626
-0.195,0.375,-0.104,10.4,-19,-112.3,0,2018,5,11,13,21,3.47,0.4777,-0.5989,-0.0826,0.6372
-0.172,0.384,-0.128,10.1,-23.4,-94,0,2018,5,11,13,21,3.477,0.4638,-0.6009,-0.0753,0.6464
-0.17,0.419,-0.099,12.6,-23.1,-72.2,0,2018,5,11,13,21,3.514,0.452,-0.6023,-0.0704,0.654
-0.185,0.444,-0.055,12.1,-28.1,-47.4,0,2018,5,11,13,21,3.518,0.4422,-0.6036,-0.0683,0.6597
-0.199,0.422,0.03,5.4,-34.8,-20.7,0,2018,5,11,13,21,3.534,0.4351,-0.6052,-0.0695,0.6629
-0.173,0.368,0.084,-4.9,-36,3.6,0,2018,5,11,13,21,3.556,0.4304,-0.6079,-0.0731,0.6631
-0.135,0.289,0.105,-13.6,-27.7,26.4,0,2018,5,11,13,21,3.575,0.4289,-0.6112,-0.0779,0.6604
-0.109,0.309,0.072,-22.2,-22.9,46.9,0,2018,5,11,13,21,3.616,0.4309,-0.6145,-0.0834,0.6554
-0.105,0.373,-0.021,-31.5,-35.6,66.7,0,2018,5,11,13,21,3.634,0.4349,-0.6188,-0.0909,0.6477
-0.093,0.32,-0.099,-36.4,-60.1,84.4,0,2018,5,11,13,21,3.639,0.4388,-0.6251,-0.102,0.6373
-0.079,0.155,-0.066,-34.1,-69.1,95.7,0,2018,5,11,13,21,3.657,0.442,-0.6325,-0.1168,0.6252
-0.085,0.074,0.025,-31.5,-56.3,103.9,0,2018,5,11,13,21,3.677,0.4464,-0.6386,-0.1323,0.6125
-0.102,0.183,0.076,-35.4,-48.7,112,0,2018,5,11,13,21,3.714,0.4531,-0.643,-0.147,0.5995
-0.121,0.211,0.003,-43.2,-62.4,122.4,0,2018,5,11,13,21,3.732,0.4602,-0.648,-0.1627,0.5845
-0.094,0.043,-0.053,-44.2,-70,129.1,0,2018,5,11,13,21,3.737,0.4665,-0.6543,-0.1806,0.567
-0.064,-0.024,-0.007,-40.2,-54.6,132.4,1023,2018,5,11,13,21,3.772,0.4737,-0.6592,-0.199,0.5489
-0.063,0.063,0.054,-39.6,-38.2,136.2,1023,2018,5,11,13,21,3.794,0.4829,-0.6615,-0.2159,0.5314
-0.081,0.203,0.03,-44.9,-43.2,143,1023,2018,5,11,13,21,3.798,0.4932,-0.6626,-0.2319,0.5136
-0.067,0.162,-0.085,-48.5,-62.9,151.3,1023,2018,5,11,13,21,3.818,0.5017,-0.6654,-0.2497,0.493
-0.034,-0.018,-0.064,-39.4,-57.4,155.7,1023,2018,5,11,13,21,3.838,0.5089,-0.6682,-0.2697,0.4707
-0.01,-0.081,0.048,-30.2,-21.9,160,1023,2018,5,11,13,21,3.875,0.5188,-0.6667,-0.2888,0.4503
-0.023,0.069,0.183,-27.6,18.4,166.7,1023,2018,5,11,13,21,3.894,0.5335,-0.6596,-0.3052,0.4324
-0.037,0.228,0.038,-31.6,4.2,179.6,1023,2018,5,11,13,21,3.899,0.5501,-0.6505,-0.3211,0.4135
-0.057,0.043,-0.123,-22.5,-22.7,185.5,1023,2018,5,11,13,21,3.92,0.5628,-0.6434,-0.3403,0.3915
-0.036,-0.106,0.002,-9.2,-14.1,185.2,1023,2018,5,11,13,21,3.94,0.5738,-0.635,-0.3615,0.3697
-0.011,-0.154,0.121,-2.3,7.3,179.3,1023,2018,5,11,13,21,3.96,0.5858,-0.6233,-0.3812,0.3506
-0.007,-0.125,0.169,-2.6,25.3,177.2,1023,2018,5,11,13,21,3.998,0.5995,-0.6084,-0.3985,0.3338
-0.015,-0.274,-0.038,-3.4,6.6,166.9,1023,2018,5,11,13,21,4.018,0.6115,-0.5945,-0.415,0.3166
0.008,-0.404,-0.039,5.5,21.8,151.6,0,2018,5,11,13,21,4.023,0.6207,-0.5819,-0.4308,0.3006
0.022,-0.388,0.077,10.4,58.3,132.4,0,2018,5,11,13,21,4.039,0.6313,-0.5664,-0.4433,0.2897
0.031,-0.299,0.14,10.6,103.5,116,0,2018,5,11,13,21,4.078,0.6447,-0.5471,-0.452,0.2839
0.031,-0.092,0.083,4.3,92.6,104.2,0,2018,5,11,13,21,4.097,0.6595,-0.5259,-0.4575,0.2809
0.006,-0.303,-0.009,5.2,57.5,90.2,0,2018,5,11,13,21,4.101,0.6703,-0.5099,-0.4629,0.2762
0.011,-0.385,0.03,9.8,70,72.2,0,2018,5,11,13,21,4.121,0.6784,-0.4964,-0.4676,0.2728
0.03,-0.375,0.088,12.5,118.7,54.7,0,2018,5,11,13,21,4.141,0.6883,-0.48,-0.4691,0.2748
0.027,-0.121,0.127,11.9,146.4,42.5,0,2018,5,11,13,21,4.162,0.7012,-0.4585,-0.4672,0.2821
0,-0.004,0.114,6.1,82.8,36.3,0,2018,5,11,13,21,4.182,0.7122,-0.4401,-0.4648,0.2879
-0.038,-0.17,0.128,3.4,44.6,28.2,0,2018,5,11,13,21,4.204,0.7182,-0.4298,-0.4643,0.2893
-0.048,-0.233,0.129,1.7,40.3,14.7,0,2018,5,11,13,21,4.223,0.7224,-0.4227,-0.4635,0.2905
-0.028,-0.283,0.087,3.1,48.3,-0.5,0,2018,5,11,13,21,4.243,0.7258,-0.4168,-0.4615,0.2939
-0.021,-0.278,0.071,6.2,61.5,-13,0,2018,5,11,13,21,4.261,0.7288,-0.4106,-0.4582,0.3002
-0.037,-0.102,0.135,6.5,53.4,-21.3,0,2018,5,11,13,21,4.28,0.7317,-0.4041,-0.454,0.3082
-0.05,-0.021,0.178,1.1,19.5,-26.5,0,2018,5,11,13,21,4.301,0.7331,-0.4007,-0.4504,0.3146
-0.034,-0.093,0.159,-4,-5.9,-32.7,0,2018,5,11,13,21,4.337,0.7322,-0.4022,-0.4474,0.3188
-0.019,-0.196,0.111,-5.2,-9.7,-41.5,0,2018,5,11,13,21,4.358,0.7301,-0.4065,-0.4441,0.3228
-0.026,-0.347,0.059,-1.6,11.8,-52.7,0,2018,5,11,13,21,4.362,0.7276,-0.4109,-0.4398,0.329
-0.047,-0.188,0.095,0.1,31.6,-62.9,0,2018,5,11,13,21,4.382,0.7258,-0.4126,-0.4338,0.3386
-0.043,0.01,0.134,-5.9,11.2,-67.7,0,2018,5,11,13,21,4.402,0.7242,-0.4141,-0.4268,0.3488
-0.005,-0.008,0.118,-12.2,-21.2,-71.3,0,2018,5,11,13,21,4.438,0.7208,-0.42,-0.4204,0.3566
0.016,-0.159,0.079,-12.9,-32.1,-76.3,0,2018,5,11,13,21,4.459,0.7152,-0.4297,-0.4145,0.3631
0.015,-0.267,0.075,-10.9,-14.8,-84.8,0,2018,5,11,13,21,4.463,0.7088,-0.4397,-0.4081,0.3709
0.003,-0.176,0.119,-13,2.8,-94,0,2018,5,11,13,21,4.48,0.7034,-0.4474,-0.3994,0.3812
0.004,-0.117,0.114,-18.5,-7.5,-100.8,0,2018,5,11,13,21,4.518,0.6981,-0.4552,-0.3893,0.3922
0.012,-0.148,0.089,-21.8,-16.1,-109.5,0,2018,5,11,13,21,4.538,0.6913,-0.4651,-0.3787,0.4028
0.018,-0.194,0.089,-22,-9.2,-119.5,0,2018,5,11,13,21,4.542,0.6834,-0.4758,-0.3673,0.4141
-0.004,-0.185,0.136,-26.2,7.3,-130,0,2018,5,11,13,21,4.563,0.6757,-0.4855,-0.3536,0.4272
-0.028,-0.174,0.12,-33.4,20.1,-138.9,0,2018,5,11,13,21,4.582,0.6688,-0.4937,-0.3372,0.4415
-0.018,0.008,-0.06,-42.8,23.4,-156.9,0,2018,5,11,13,21,4.621,0.646,-0.5186,-0.2773,0.4865
-0.039,-0.094,-0.072,-39.1,29.6,-162.9,0,2018,5,11,13,21,4.642,0.6361,-0.5273,-0.2565,0.5013
-0.046,-0.029,-0.059,-37.4,47,-168.9,0,2018,5,11,13,21,4.646,0.6263,-0.534,-0.2341,0.5173
-0.067,0.137,-0.126,-37.6,45.6,-171.3,1023,2018,5,11,13,21,4.666,0.6165,-0.5392,-0.21,0.5338
-0.068,0.172,-0.216,-33.4,30.8,-171,1023,2018,5,11,13,21,4.681,0.6048,-0.5451,-0.1866,0.5496
-0.07,0.126,-0.233,-23.4,25,-170.4,1023,2018,5,11,13,21,4.721,0.5916,-0.5502,-0.1647,0.5656
-0.091,0.154,-0.206,-13.7,30.4,-169.7,1023,2018,5,11,13,21,4.739,0.5778,-0.5537,-0.1439,0.582
-0.121,0.287,-0.149,-10.1,25.1,-164.9,1023,2018,5,11,13,21,4.743,0.5633,-0.5561,-0.1234,0.5983
-0.156,0.321,-0.098,-11.5,7.6,-156.1,1023,2018,5,11,13,21,4.78,0.5478,-0.5588,-0.1041,0.6138
-0.156,0.265,-0.149,-11.1,-0.2,-146.7,1023,2018,5,11,13,21,4.801,0.5314,-0.5625,-0.0872,0.6273
-0.13,0.287,-0.241,-3.4,-0.1,-135.2,1023,2018,5,11,13,21,4.805,0.5159,-0.5652,-0.0726,0.6395
-0.145,0.33,-0.194,4.3,0.4,-122.5,1023,2018,5,11,13,21,4.824,0.5014,-0.5665,-0.0599,0.6511
-0.18,0.39,-0.097,3.5,-12.4,-105.7,1023,2018,5,11,13,21,4.844,0.4878,-0.5674,-0.0498,0.6614
-0.187,0.371,-0.036,-1.6,-27.4,-87.2,1023,2018,5,11,13,21,4.88,0.4745,-0.5699,-0.0427,0.6694
-0.16,0.328,-0.06,-3.4,-29.3,-67.2,1023,2018,5,11,13,21,4.9,0.4625,-0.5733,-0.0383,0.6751
-0.173,0.331,-0.078,-4.7,-25.2,-45.5,1023,2018,5,11,13,21,4.907,0.4533,-0.5762,-0.0358,0.6791
-0.173,0.338,-0.054,-7.6,-25.4,-23.5,1023,2018,5,11,13,21,4.946,0.4467,-0.5791,-0.0349,0.681
-0.165,0.365,-0.01,-14,-29,-0.1,0,2018,5,11,13,21,4.966,0.4427,-0.5825,-0.0363,0.6806
-0.123,0.414,0.044,-20.5,-37.7,25.3,0,2018,5,11,13,21,4.97,0.441,-0.587,-0.0402,0.6776
-0.093,0.35,0.018,-24.7,-46.6,51.3,0,2018,5,11,13,21,4.984,0.4413,-0.5927,-0.0474,0.6719
-0.078,0.315,-0.043,-26.8,-50.5,73.6,0,2018,5,11,13,21,5.006,0.4438,-0.599,-0.0578,0.6639
-0.106,0.276,-0.085,-28.4,-54.6,92.7,0,2018,5,11,13,21,5.026,0.4484,-0.6052,-0.0706,0.6538
-0.104,0.181,-0.024,-27.4,-50.1,106.5,0,2018,5,11,13,21,5.066,0.454,-0.6112,-0.0847,0.6426
-0.083,0.31,0.015,-26.9,-51.7,121.7,0,2018,5,11,13,21,5.084,0.4618,-0.6161,-0.1002,0.63
-0.063,0.411,-0.102,-25.7,-80.7,141.1,0,2018,5,11,13,21,5.089,0.4697,-0.6217,-0.1195,0.6152
-0.084,0.355,-0.167,-23.1,-110.8,160.9,0,2018,5,11,13,21,5.108,0.4757,-0.6287,-0.1445,0.5978
-0.081,0.025,-0.052,-15,-107.1,173.8,0,2018,5,11,13,21,5.125,0.4809,-0.6357,-0.1733,0.5783
-0.058,-0.123,0.01,-8,-61.3,178.8,0,2018,5,11,13,21,5.166,0.4899,-0.6379,-0.2012,0.559
-0.022,0.05,0,-1.6,-33.1,179.6,0,2018,5,11,13,21,5.186,0.5028,-0.6352,-0.2253,0.5412
-0.045,0.24,0.027,-1.2,-51.8,186.2,0,2018,5,11,13,21,5.19,0.5151,-0.6312,-0.2487,0.5236
-0.091,0.185,0.049,-7.3,-77.1,193.8,0,2018,5,11,13,21,5.207,0.5254,-0.6284,-0.2749,0.5033
-0.1,-0.153,0.022,-6.8,-62.6,193,0,2018,5,11,13,21,5.244,0.5349,-0.6256,-0.3023,0.4805
-0.04,-0.339,-0.092,2,-12.1,183.6,0,2018,5,11,13,21,5.266,0.5468,-0.6189,-0.3264,0.4597
-0.027,-0.194,-0.026,13.4,29,171.8,0,2018,5,11,13,21,5.27,0.5614,-0.6068,-0.3459,0.4436
-0.041,-0.017,0.102,14.5,46.1,165.5,0,2018,5,11,13,21,5.287,0.5778,-0.5909,-0.3622,0.4308
-0.038,0.063,0.118,8.7,53.9,161.4,0,2018,5,11,13,21,5.308,0.5952,-0.5734,-0.3759,0.4189
-0.012,-0.012,0.01,8.6,50.3,156.7,0,2018,5,11,13,21,5.329,0.6116,-0.5562,-0.3887,0.4064
-0.004,-0.217,-0.09,14.5,64.2,149.6,0,2018,5,11,13,21,5.366,0.6266,-0.5392,-0.401,0.3946
0.003,-0.349,-0.038,23.3,117.9,135.2,0,2018,5,11,13,21,5.388,0.6426,-0.5184,-0.4105,0.3868
0,-0.021,0.097,25.1,150.4,123.4,0,2018,5,11,13,21,5.392,0.6618,-0.4914,-0.4149,0.3849
-0.019,0.231,0.161,13.9,98.4,121.4,0,2018,5,11,13,21,5.409,0.6794,-0.466,-0.4187,0.3817
-0.037,0.012,0.08,2.2,35.7,117.7,0,2018,5,11,13,21,5.428,0.6921,-0.4488,-0.4249,0.3726
-0.025,-0.231,-0.008,-3.8,9.8,104,0,2018,5,11,13,21,5.448,0.7006,-0.4385,-0.4322,0.3603
0.056,-0.324,-0.061,-1.6,38.8,90.5,0,2018,5,11,13,21,5.468,0.708,-0.4294,-0.4377,0.35
0.096,-0.298,-0.014,8.7,80.4,80.8,0,2018,5,11,13,21,5.489,0.7176,-0.4148,-0.4407,0.3444
0.054,-0.274,0.059,16.7,85.6,69.4,0,2018,5,11,13,21,5.529,0.7268,-0.3981,-0.4422,0.3429
0.03,-0.277,0.098,21.3,80.4,56.3,0,2018,5,11,13,21,5.533,0.7344,-0.3822,-0.4433,0.3433
0.028,-0.196,0.118,22.1,77.6,45.6,1023,2018,5,11,13,21,5.549,0.7407,-0.3675,-0.4439,0.345
0.041,-0.172,0.142,22.8,92.9,37.2,1023,2018,5,11,13,21,5.586,0.7468,-0.3523,-0.4434,0.3483
0.023,-0.07,0.194,21.4,81.7,29.2,1023,2018,5,11,13,21,5.606,0.7526,-0.3365,-0.4427,0.3524
-0.013,-0.133,0.236,17.2,50,20.9,1023,2018,5,11,13,21,5.61,0.7564,-0.3248,-0.4426,0.3552
-0.055,-0.139,0.264,10.6,28.6,11.9,1023,2018,5,11,13,21,5.651,0.7585,-0.3177,-0.443,0.3568
-0.076,-0.162,0.274,1.4,15.3,1.1,1023,2018,5,11,13,21,5.67,0.7598,-0.3138,-0.4425,0.3581
-0.074,-0.211,0.279,-5.9,10.6,-11.9,1023,2018,5,11,13,21,5.674,0.7609,-0.3124,-0.4402,0.36
-0.069,-0.209,0.27,-13.1,7.8,-24.2,1023,2018,5,11,13,21,5.688,0.761,-0.3131,-0.4371,0.3627
-0.06,-0.167,0.227,-18.7,0.7,-34.6,1023,2018,5,11,13,21,5.727,0.7611,-0.3154,-0.4321,0.3666
-0.041,-0.153,0.195,-23.7,-18.1,-43.2,1023,2018,5,11,13,21,5.746,0.76,-0.3207,-0.4269,0.3703
-0.047,-0.204,0.212,-27.1,-27.5,-54.1,1023,2018,5,11,13,21,5.751,0.7577,-0.329,-0.4215,0.3739
-0.038,-0.215,0.229,-30.9,-25.4,-66.5,1023,2018,5,11,13,21,5.771,0.7546,-0.3387,-0.415,0.3787
-0.024,-0.157,0.163,-36.3,-37.6,-78.1,1023,2018,5,11,13,21,5.809,0.7506,-0.3499,-0.4075,0.3845
0.013,-0.103,0.089,-40.4,-59.8,-86,0,2018,5,11,13,21,5.83,0.7449,-0.3647,-0.4,0.3898
0.021,-0.188,0.031,-38.1,-69.7,-94.9,0,2018,5,11,13,21,5.834,0.7369,-0.3828,-0.3933,0.3945
-0.004,-0.335,0.055,-31.3,-50.4,-107.7,0,2018,5,11,13,21,5.871,0.7275,-0.4007,-0.3861,0.4011
-0.008,-0.204,0.135,-28.8,-17.9,-119.1,0,2018,5,11,13,21,5.893,0.7189,-0.4148,-0.3762,0.4116
-0.008,0.002,0.143,-34.5,-20.2,-124.5,0,2018,5,11,13,21,5.897,0.7111,-0.4266,-0.3639,0.4239
0.013,0.061,0.056,-40.1,-49.9,-125.9,0,2018,5,11,13,21,5.932,0.702,-0.4409,-0.3518,0.4346
0.042,-0.027,-0.025,-35.7,-59.6,-126.9,0,2018,5,11,13,21,5.936,0.69,-0.4587,-0.3414,0.4436
0.052,-0.117,-0.009,-26.9,-36.4,-129.1,0,2018,5,11,13,21,5.951,0.6773,-0.4751,-0.3309,0.4536
0.026,-0.057,0.036,-24.4,-9.4,-131.9,0,2018,5,11,13,21,5.971,0.6664,-0.4872,-0.3184,0.4658
0.011,-0.026,-0.031,-27.4,27.5,-137.6,0,2018,5,11,13,21,5.991,0.6481,-0.5037,-0.2874,0.4934
0.016,0.124,-0.086,-26.2,31.1,-139.7,0,2018,5,11,13,21,6.032,0.6397,-0.5097,-0.2693,0.5081
0.001,0.173,-0.066,-23.1,19,-137.4,0,2018,5,11,13,21,6.05,0.6303,-0.516,-0.2515,0.5226
-0.026,0.121,-0.042,-22.4,6.8,-136.1,0,2018,5,11,13,21,6.055,0.6195,-0.5226,-0.2352,0.5362
-0.025,0.038,-0.069,-22.4,12.2,-137.9,0,2018,5,11,13,21,6.093,0.6081,-0.5295,-0.2196,0.549
-0.029,0.092,-0.119,-21.2,24.3,-140.2,0,2018,5,11,13,21,6.112,0.5968,-0.5354,-0.2027,0.562
-0.038,0.246,-0.107,-19.3,19.9,-138,0,2018,5,11,13,21,6.116,0.5853,-0.5404,-0.1849,0.5754
-0.058,0.257,-0.071,-17.8,0.8,-131,0,2018,5,11,13,21,6.137,0.5728,-0.5455,-0.1686,0.588
-0.077,0.074,-0.092,-15.9,-3.2,-127.1,0,2018,5,11,13,21,6.152,0.5594,-0.5513,-0.1549,0.5991
-0.07,0.017,-0.152,-11.3,19,-127.7,0,2018,5,11,13,21,6.172,0.5471,-0.5554,-0.1412,0.6101
-0.083,0.156,-0.139,-6.5,38.4,-125.8,0,2018,5,11,13,21,6.208,0.5364,-0.5566,-0.1251,0.6217
-0.111,0.261,-0.131,-4.8,32.8,-118,0,2018,5,11,13,21,6.229,0.5262,-0.5568,-0.1082,0.6334
-0.13,0.3,-0.082,-6.8,14.7,-109,0,2018,5,11,13,21,6.233,0.5156,-0.5572,-0.0939,0.644
-0.137,0.259,-0.077,-9.8,3.5,-99.4,0,2018,5,11,13,21,6.255,0.5045,-0.5587,-0.0817,0.653
-0.139,0.268,-0.09,-11.5,1,-88.1,0,2018,5,11,13,21,6.274,0.4937,-0.5608,-0.0704,0.6608
-0.142,0.303,-0.086,-13.1,-0.9,-74.6,0,2018,5,11,13,21,6.312,0.4844,-0.563,-0.0617,0.6666
-0.139,0.339,-0.099,-15.1,-8.8,-57.6,0,2018,5,11,13,21,6.333,0.4766,-0.5656,-0.0549,0.6707
-0.137,0.388,-0.11,-16.3,-22.3,-38.3,0,2018,5,11,13,21,6.337,0.4696,-0.5691,-0.0509,0.673
-0.142,0.396,-0.086,-17.8,-36.5,-17.2,0,2018,5,11,13,21,6.353,0.4635,-0.5737,-0.0504,0.6733
-0.139,0.339,-0.046,-20.8,-45.1,2.5,0,2018,5,11,13,21,6.391,0.4586,-0.5795,-0.053,0.6715
-0.124,0.246,-0.025,-24.4,-37.6,21,0,2018,5,11,13,21,6.411,0.456,-0.5853,-0.0575,0.6678
-0.11,0.207,-0.026,-27.5,-18.5,37.4,0,2018,5,11,13,21,6.415,0.4568,-0.5902,-0.0617,0.6626
-0.097,0.339,-0.058,-31.6,-11.8,52.6,1023,2018,5,11,13,21,6.434,0.4609,-0.594,-0.0652,0.656
-0.085,0.362,-0.064,-34.3,-35.9,70.5,1023,2018,5,11,13,21,6.474,0.4659,-0.5989,-0.0718,0.6472
-0.086,0.226,-0.011,-34.4,-52.4,86.9,1023,2018,5,11,13,21,6.493,0.4705,-0.6054,-0.0826,0.6365
-0.088,0.092,-0.008,-35.8,-47.9,97.2,1023,2018,5,11,13,21,6.497,0.4756,-0.6117,-0.0949,0.6248
-0.1,0.102,-0.076,-38.1,-33.2,103.5,1023,2018,5,11,13,21,6.517,0.4829,-0.6172,-0.1073,0.6117
-0.056,0.188,-0.172,-35.2,-34.2,112.2,1023,2018,5,11,13,21,6.537,0.4914,-0.622,-0.119,0.5977
-0.026,0.154,-0.132,-23.3,-44.5,125.3,1023,2018,5,11,13,21,6.575,0.4999,-0.6259,-0.1337,0.5834
-0.037,0.1,-0.031,-14.2,-42.7,138.9,1023,2018,5,11,13,21,6.596,0.5085,-0.6285,-0.1513,0.5686
-0.044,0.118,-0.021,-10.6,-34.4,150.5,1023,2018,5,11,13,21,6.6,0.5187,-0.629,-0.1696,0.5534
-0.049,0.077,-0.133,-6.5,-31.2,158.6,1023,2018,5,11,13,21,6.62,0.5298,-0.6285,-0.1889,0.537
-0.014,-0.081,-0.138,7,-22.1,160.8,1023,2018,5,11,13,21,6.64,0.5417,-0.6254,-0.2093,0.5211
-0.014,-0.14,-0.023,21.2,2.9,158.6,1023,2018,5,11,13,21,6.655,0.5544,-0.619,-0.2297,0.5066
-0.017,-0.065,0.081,28.6,37.8,158.1,1023,2018,5,11,13,21,6.692,0.5697,-0.6077,-0.2477,0.4946
-0.034,0.146,0.074,28.6,50.1,160.4,1023,2018,5,11,13,21,6.713,0.5877,-0.5924,-0.2629,0.4842
-0.025,-0.023,-0.099,30.4,-34.8,164.1,0,2018,5,11,13,21,6.717,0.6119,-0.5721,-0.3012,0.4554
0.007,-0.24,-0.001,39.2,-6.2,155.6,0,2018,5,11,13,21,6.757,0.6196,-0.5638,-0.3232,0.4399
0.041,-0.294,0.07,48.9,83.9,146,0,2018,5,11,13,21,6.777,0.6321,-0.5476,-0.3398,0.4301
0.063,0.058,0.056,51.2,119.5,141.1,0,2018,5,11,13,21,6.781,0.6502,-0.5225,-0.3499,0.4261
0.058,0.137,-0.011,44.6,71.1,143,0,2018,5,11,13,21,6.801,0.6664,-0.4991,-0.3601,0.4206
0.018,0.006,-0.037,44,37,137.6,0,2018,5,11,13,21,6.818,0.6779,-0.4813,-0.3735,0.4112
0.008,-0.149,0.02,43.7,41.7,123.5,0,2018,5,11,13,21,6.856,0.6868,-0.4658,-0.3871,0.4016
0.038,-0.194,0.108,45.6,106.1,111.9,0,2018,5,11,13,21,6.878,0.6976,-0.4461,-0.3963,0.3965
0.053,0.018,0.162,43.5,112.6,103.2,0,2018,5,11,13,21,6.882,0.7109,-0.4209,-0.4013,0.3953
-0.003,0.039,0.207,38.3,63.1,99.1,0,2018,5,11,13,21,6.897,0.7213,-0.4,-0.4076,0.3918
-0.041,0.021,0.24,30.4,19.3,94.2,0,2018,5,11,13,21,6.934,0.728,-0.3857,-0.416,0.3847
-0.033,-0.108,0.233,23.4,13.3,88.6,0,2018,5,11,13,21,6.954,0.733,-0.3758,-0.4245,0.3757
-0.013,-0.253,0.243,20.7,33.4,82.5,0,2018,5,11,13,21,6.959,0.7385,-0.3646,-0.4312,0.368
-0.082,-0.36,0.269,17.3,44.5,68.8,0,2018,5,11,13,21,6.999,0.7446,-0.3527,-0.4352,0.3628
-0.119,-0.348,0.273,13.8,61.4,53.8,0,2018,5,11,13,21,7.017,0.7507,-0.34,-0.4368,0.3603
-0.134,-0.246,0.309,6.3,59.1,38.2,0,2018,5,11,13,21,7.021,0.7568,-0.3273,-0.4362,0.3601
-0.132,-0.175,0.36,-6.3,25.4,22.1,0,2018,5,11,13,21,7.04,0.7613,-0.3192,-0.4349,0.3595
-0.114,-0.18,0.325,-18.8,-13.7,6.8,0,2018,5,11,13,21,7.06,0.7633,-0.3185,-0.4337,0.3572
-0.078,-0.221,0.244,-27.3,-30.2,-7.2,0,2018,5,11,13,21,7.098,0.7642,-0.3229,-0.4312,0.3544
-0.041,-0.219,0.192,-31.3,-26.2,-19.7,0,2018,5,11,13,21,7.102,0.7641,-0.3297,-0.4275,0.3528
-0.018,-0.165,0.181,-35.5,-21.5,-28.6,0,2018,5,11,13,21,7.119,0.7639,-0.3367,-0.4223,0.3529
-0.017,-0.124,0.177,-40.4,-22,-36.1,0,2018,5,11,13,21,7.157,0.7638,-0.3441,-0.4157,0.3539
-0.013,-0.166,0.121,-44.3,-28.2,-45.3,0,2018,5,11,13,21,7.177,0.763,-0.3531,-0.4084,0.3553
-0.009,-0.153,0.059,-44.8,-21.8,-52.9,0,2018,5,11,13,21,7.181,0.7614,-0.3631,-0.4005,0.3575
0.018,-0.153,0.048,-43.8,-14.6,-61.3,0,2018,5,11,13,21,7.22,0.7595,-0.3727,-0.3919,0.3614
-0.03,-0.201,0.113,-43.2,-5.1,-71.4,0,2018,5,11,13,21,7.224,0.7573,-0.3816,-0.3821,0.3669
-0.037,-0.104,0.179,-46.8,-2,-80.7,0,2018,5,11,13,21,7.241,0.7554,-0.3896,-0.3707,0.3741
-0.02,-0.043,0.128,-54.3,-18.2,-86.9,0,2018,5,11,13,21,7.263,0.753,-0.3988,-0.3582,0.3813
0.009,-0.105,0.019,-56.7,-34.7,-95,0,2018,5,11,13,21,7.287,0.7483,-0.412,-0.3461,0.3877
0.019,-0.241,0,-51.6,-31.2,-104.3,0,2018,5,11,13,21,7.301,0.7418,-0.4268,-0.3341,0.3947
0.003,-0.264,0.068,-46,-11.8,-116.5,0,2018,5,11,13,21,7.335,0.7347,-0.44,-0.321,0.4042
0.007,-0.112,0.116,-47.6,-1.8,-126.1,0,2018,5,11,13,21,7.357,0.7282,-0.4506,-0.3057,0.4161
0.004,-0.003,0.062,-54.4,-19.7,-133,0,2018,5,11,13,21,7.358,0.7207,-0.462,-0.2892,0.4282
0.033,-0.079,-0.031,-54.9,-33.6,-138.9,0,2018,5,11,13,21,7.398,0.7106,-0.4767,-0.2732,0.4393
0.04,-0.162,-0.068,-47.3,-18.7,-147.2,1023,2018,5,11,13,21,7.419,0.6989,-0.4916,-0.2571,0.4512
-0.039,0.119,-0.037,-46,-2.4,-162.9,1023,2018,5,11,13,21,7.424,0.6652,-0.5208,-0.1994,0.4963
-0.039,-0.006,-0.152,-43.4,-5,-166.1,1023,2018,5,11,13,21,7.441,0.6516,-0.5312,-0.1797,0.5107
-0.045,-0.02,-0.182,-34,15.9,-171.3,1023,2018,5,11,13,21,7.463,0.6379,-0.5391,-0.1591,0.5263
-0.072,0.123,-0.144,-27.5,31.2,-174.4,1023,2018,5,11,13,21,7.483,0.6248,-0.5438,-0.1371,0.5431
-0.113,0.241,-0.134,-26.3,22.3,-171.3,1023,2018,5,11,13,21,7.521,0.6111,-0.5476,-0.1151,0.5597
-0.125,0.271,-0.145,-24.5,-1.4,-165.7,1023,2018,5,11,13,21,7.543,0.5955,-0.5524,-0.0951,0.5754
-0.119,0.235,-0.192,-18.4,-15.7,-159.6,1023,2018,5,11,13,21,7.547,0.578,-0.5584,-0.078,0.5898
-0.118,0.234,-0.181,-9.8,-13.7,-152.7,1023,2018,5,11,13,21,7.566,0.5604,-0.5631,-0.0633,0.6039
-0.137,0.303,-0.133,-5.9,-20.6,-142.4,1023,2018,5,11,13,21,7.582,0.5432,-0.5669,-0.0499,0.6172
-0.157,0.301,-0.076,-5.6,-29,-128.6,1023,2018,5,11,13,21,7.602,0.526,-0.5707,-0.0388,0.6292
-0.156,0.32,-0.059,-5.9,-31.2,-113.3,1023,2018,5,11,13,21,7.622,0.5097,-0.5748,-0.0298,0.6394
-0.148,0.35,-0.103,-5.2,-35.6,-94.7,1023,2018,5,11,13,21,7.643,0.4948,-0.5787,-0.0227,0.6478
-0.161,0.399,-0.074,-5.6,-41.5,-74.1,1023,2018,5,11,13,21,7.681,0.4813,-0.5828,-0.0182,0.6543
-0.155,0.388,-0.041,-8.4,-51,-50.3,1023,2018,5,11,13,21,7.701,0.4695,-0.5877,-0.0167,0.6586
-0.148,0.286,-0.005,-10.6,-49.8,-27.1,0,2018,5,11,13,21,7.705,0.4598,-0.5932,-0.0179,0.6605
-0.141,0.263,0,-14,-39.5,-6.7,0,2018,5,11,13,21,7.727,0.4533,-0.5982,-0.0204,0.6603
-0.134,0.261,-0.024,-17.6,-29.8,13.6,0,2018,5,11,13,21,7.745,0.4503,-0.6027,-0.0237,0.6583
-0.11,0.289,-0.048,-19.9,-24.8,33,0,2018,5,11,13,21,7.767,0.4504,-0.6067,-0.0278,0.6543
-0.063,0.26,-0.057,-17.9,-30.1,51.9,0,2018,5,11,13,21,7.804,0.4524,-0.6109,-0.0339,0.6487
-0.044,0.221,-0.021,-14.1,-36,69.1,0,2018,5,11,13,21,7.825,0.4559,-0.615,-0.0427,0.6419
-0.05,0.166,-0.003,-12.9,-37.7,83.2,0,2018,5,11,13,21,7.829,0.46,-0.6187,-0.0534,0.6345
-0.06,0.155,-0.041,-13.2,-32.1,93.8,0,2018,5,11,13,21,7.843,0.4657,-0.6221,-0.065,0.6259
-0.052,0.14,-0.047,-10.6,-27.3,103.3,0,2018,5,11,13,21,7.879,0.4728,-0.6248,-0.0775,0.6163
-0.056,0.165,-0.015,-8.2,-29.3,113.4,0,2018,5,11,13,21,7.899,0.481,-0.6266,-0.0909,0.6063
-0.068,0.182,-0.049,-7.7,-36.8,123,0,2018,5,11,13,21,7.906,0.4896,-0.6282,-0.1061,0.5952
-0.086,0.172,-0.14,-7.7,-49.6,131.1,0,2018,5,11,13,21,7.927,0.4977,-0.6305,-0.1236,0.5825
-0.07,0.082,-0.09,-3.2,-46.4,136.9,0,2018,5,11,13,21,7.946,0.5055,-0.6329,-0.143,0.5687
-0.045,-0.028,-0.029,5,-17.9,139.9,0,2018,5,11,13,21,7.986,0.5152,-0.6324,-0.162,0.5551
-0.043,0.062,-0.009,11.9,8.3,143.2,0,2018,5,11,13,21,8.004,0.5285,-0.6274,-0.1788,0.5431
-0.063,0.194,-0.077,16.5,0.9,147.1,0,2018,5,11,13,21,8.009,0.5422,-0.6208,-0.1954,0.5313
-0.068,0.198,-0.129,19.4,-37,152.1,0,2018,5,11,13,21,8.047,0.5532,-0.6156,-0.2152,0.5182
-0.04,0.04,-0.038,24.2,-49.9,154.8,0,2018,5,11,13,21,8.051,0.5605,-0.6128,-0.2385,0.5033
-0.021,-0.093,0.077,30.9,-9.3,156.5,0,2018,5,11,13,21,8.067,0.5696,-0.6064,-0.2611,0.4893
-0.016,-0.026,0,35.6,26.1,155.5,0,2018,5,11,13,21,8.104,0.5831,-0.5943,-0.2799,0.4778
-0.017,-0.051,-0.079,48.1,-8.9,148.6,0,2018,5,11,13,21,8.124,0.605,-0.5702,-0.3188,0.4549
-0.014,-0.156,0.041,50.2,-1.3,138.8,0,2018,5,11,13,21,8.129,0.6126,-0.559,-0.3393,0.4438
0.018,-0.199,0.118,53.2,56.4,129.2,0,2018,5,11,13,21,8.147,0.6223,-0.5439,-0.3557,0.4361
0.018,0.082,0.114,50.8,84.2,124.2,0,2018,5,11,13,21,8.166,0.6364,-0.5226,-0.3666,0.4328
-0.006,0.112,0.005,44,36.5,124.1,0,2018,5,11,13,21,8.205,0.6487,-0.5035,-0.3778,0.4276
-0.035,-0.05,0.026,42.2,3.9,120,0,2018,5,11,13,21,8.227,0.6562,-0.4902,-0.3923,0.4183
-0.04,-0.198,0.12,38.9,19.4,110.2,0,2018,5,11,13,21,8.231,0.6626,-0.4781,-0.406,0.4091
0.003,-0.196,0.152,38.6,73.6,101.1,0,2018,5,11,13,21,8.249,0.6714,-0.4621,-0.4153,0.4038
0.006,-0.129,0.125,37.9,89.3,94.6,0,2018,5,11,13,21,8.266,0.6826,-0.4417,-0.4208,0.4021
-0.046,-0.159,0.111,38.3,72.8,86.4,0,2018,5,11,13,21,8.286,0.6926,-0.4223,-0.426,0.4005
-0.074,-0.211,0.167,34.6,55.3,74.8,0,2018,5,11,13,21,8.323,0.7002,-0.4059,-0.4316,0.3982
-0.059,-0.213,0.223,28.4,62.3,61.8,0,2018,5,11,13,21,8.344,0.707,-0.391,-0.4356,0.3967
-0.023,-0.16,0.239,24.7,81.1,52.2,1023,2018,5,11,13,21,8.348,0.7142,-0.3755,-0.4369,0.3974
-0.031,-0.037,0.285,16,62.1,46.2,1023,2018,5,11,13,21,8.368,0.7208,-0.3608,-0.4374,0.3984
-0.049,-0.134,0.287,3.7,33,40.7,1023,2018,5,11,13,21,8.388,0.7258,-0.3514,-0.4382,0.3969
-0.036,-0.222,0.219,-1.5,40.1,33.6,1023,2018,5,11,13,21,8.408,0.7308,-0.3438,-0.4374,0.3952
-0.034,-0.209,0.191,-2.3,45.3,22.6,1023,2018,5,11,13,21,8.429,0.7358,-0.3361,-0.4351,0.3952
-0.052,-0.15,0.266,-6.6,30.8,9.4,1023,2018,5,11,13,21,8.468,0.7399,-0.3297,-0.4318,0.3965
-0.061,-0.164,0.292,-17.1,0.5,-2.4,1023,2018,5,11,13,21,8.488,0.7419,-0.3285,-0.4295,0.3964
-0.038,-0.071,0.242,-29.7,-32.9,-14.1,1023,2018,5,11,13,21,8.493,0.7421,-0.3329,-0.427,0.395
-0.01,-0.198,0.166,-34.6,-50.6,-24.9,1023,2018,5,11,13,21,8.528,0.7408,-0.3422,-0.4239,0.3926
-0.013,-0.304,0.154,-33.9,-37.2,-37.9,1023,2018,5,11,13,21,8.549,0.7385,-0.3531,-0.42,0.3917
-0.031,-0.278,0.188,-33.8,-19.3,-51.4,1023,2018,5,11,13,21,8.553,0.7361,-0.3624,-0.414,0.394
-0.041,-0.191,0.218,-39.6,-20.7,-63.8,1023,2018,5,11,13,21,8.567,0.7338,-0.3713,-0.4063,0.3981
-0.008,-0.122,0.156,-45.7,-36.8,-73.4,1023,2018,5,11,13,21,8.606,0.7305,-0.3824,-0.3975,0.4025
0.002,-0.194,0.09,-45.2,-43,-83.9,0,2018,5,11,13,21,8.627,0.7253,-0.3964,-0.3888,0.4068
0.014,-0.258,0.071,-40.4,-29.6,-94.8,0,2018,5,11,13,21,8.631,0.7188,-0.4106,-0.3794,0.4129
0.002,-0.158,0.108,-37.9,-19.5,-104.2,0,2018,5,11,13,21,8.651,0.7123,-0.4231,-0.3687,0.4213
-0.004,-0.08,0.13,-40.2,-28.3,-110.8,0,2018,5,11,13,21,8.672,0.7053,-0.4353,-0.357,0.4306
0.015,-0.081,0.081,-42.4,-39.4,-116.3,0,2018,5,11,13,21,8.692,0.6967,-0.4495,-0.3453,0.4394
0.024,-0.073,0.037,-40.4,-36.1,-122.1,0,2018,5,11,13,21,8.711,0.6869,-0.4643,-0.3334,0.4485
0.048,-0.093,-0.02,-36.2,-28.2,-126.6,0,2018,5,11,13,21,8.748,0.6763,-0.4787,-0.3209,0.4586
0.047,-0.061,-0.027,-30.7,-20.2,-129.6,0,2018,5,11,13,21,8.769,0.6653,-0.4919,-0.308,0.4695
0.018,-0.048,-0.095,-24,19.2,-141.7,0,2018,5,11,13,21,8.773,0.6327,-0.5216,-0.2639,0.5077
0.019,0.065,-0.143,-18.7,34.5,-143.8,0,2018,5,11,13,21,8.79,0.6229,-0.5276,-0.2461,0.5224
0.001,0.145,-0.128,-11.6,30.1,-141.6,0,2018,5,11,13,21,8.828,0.6133,-0.5314,-0.2281,0.5379
-0.023,0.172,-0.095,-8.2,14.5,-138.2,0,2018,5,11,13,21,8.847,0.6018,-0.5361,-0.2117,0.5527
-0.053,0.139,-0.057,-9.1,10.8,-136.7,0,2018,5,11,13,21,8.851,0.5895,-0.5408,-0.1967,0.5666
-0.062,0.154,-0.097,-9.2,17.2,-135.1,0,2018,5,11,13,21,8.89,0.5774,-0.545,-0.1812,0.5801
-0.051,0.178,-0.162,-3.4,22.4,-130.8,0,2018,5,11,13,21,8.911,0.5657,-0.5481,-0.1657,0.5932
-0.073,0.194,-0.136,3.6,23.3,-124.1,0,2018,5,11,13,21,8.915,0.5544,-0.5494,-0.1511,0.6064
-0.101,0.217,-0.105,5.2,18.6,-117.2,0,2018,5,11,13,21,8.934,0.5431,-0.5502,-0.1377,0.619
-0.108,0.266,-0.099,4.1,11.4,-108.4,0,2018,5,11,13,21,8.953,0.5319,-0.5509,-0.1251,0.6307
-0.105,0.212,-0.104,5.2,7.6,-98.5,0,2018,5,11,13,21,8.992,0.5206,-0.552,-0.114,0.6411
-0.109,0.182,-0.105,7.8,11.5,-89.7,0,2018,5,11,13,21,8.996,0.5105,-0.5524,-0.1044,0.6505
-0.126,0.237,-0.099,8.4,14.8,-80,0,2018,5,11,13,21,9.013,0.5016,-0.552,-0.0948,0.6592
-0.143,0.328,-0.091,4.8,2.8,-67.5,0,2018,5,11,13,21,9.032,0.4938,-0.5514,-0.087,0.6666
-0.14,0.366,-0.092,0.4,-12.3,-52.5,0,2018,5,11,13,21,9.051,0.4863,-0.5524,-0.0823,0.6719
-0.122,0.345,-0.098,-0.3,-20.3,-33.6,0,2018,5,11,13,21,9.09,0.4796,-0.5544,-0.0803,0.6753
-0.133,0.279,-0.038,-0.5,-17.8,-15.1,0,2018,5,11,13,21,9.11,0.4748,-0.5564,-0.0806,0.677
-0.151,0.297,-0.029,-4.6,-12.6,3.8,0,2018,5,11,13,21,9.114,0.4729,-0.5578,-0.0819,0.677
-0.157,0.351,-0.031,-10.7,-17.9,21.8,0,2018,5,11,13,21,9.135,0.4732,-0.5596,-0.0845,0.675
-0.145,0.32,-0.025,-17.1,-26.4,39.1,0,2018,5,11,13,21,9.155,0.4749,-0.5625,-0.0893,0.6707
-0.112,0.291,-0.044,-21.6,-31.5,54.1,0,2018,5,11,13,21,9.176,0.4779,-0.5664,-0.0958,0.6644
-0.098,0.23,-0.059,-23.9,-35.4,67.8,0,2018,5,11,13,21,9.193,0.4819,-0.5708,-0.1037,0.6565
-0.112,0.1,-0.008,-25.6,-27.4,76.9,0,2018,5,11,13,21,9.213,0.4872,-0.5748,-0.1122,0.6476
-0.127,0.06,0.012,-30.2,-7.3,79.7,0,2018,5,11,13,21,9.251,0.4953,-0.5773,-0.1201,0.6378
-0.1,0.136,-0.039,-35.9,6.1,81.7,0,2018,5,11,13,21,9.255,0.5054,-0.5787,-0.1255,0.6275
-0.058,0.235,-0.058,-37.2,-0.3,88.6,0,2018,5,11,13,21,9.275,0.5155,-0.5805,-0.1299,0.6166
-0.044,0.238,-0.016,-35.7,-17.9,101,0,2018,5,11,13,21,9.311,0.5254,-0.5828,-0.137,0.6044
-0.052,0.173,-0.021,-35.6,-34.5,111,0,2018,5,11,13,21,9.331,0.5344,-0.5862,-0.1467,0.5909
-0.045,0.07,-0.092,-34.5,-40.5,115.9,1023,2018,5,11,13,21,9.336,0.5426,-0.5907,-0.159,0.5755
-0.002,0.041,-0.097,-30.2,-37.9,118,1023,2018,5,11,13,21,9.355,0.5507,-0.5949,-0.1721,0.5595
0.017,0.026,-0.057,-22.4,-35.1,120.7,1023,2018,5,11,13,21,9.376,0.5588,-0.5977,-0.1858,0.5439
0.007,0.006,-0.019,-15.6,-33.2,122.7,1023,2018,5,11,13,21,9.415,0.5671,-0.5988,-0.2001,0.5288
-0.003,-0.008,-0.067,-11.8,-35.7,124.6,1023,2018,5,11,13,21,9.436,0.5752,-0.5991,-0.2149,0.5137
-0.016,-0.016,-0.133,-4.9,-39,123,1023,2018,5,11,13,21,9.44,0.5821,-0.5994,-0.231,0.4983
0.005,-0.038,-0.152,3.5,-51,119.8,1023,2018,5,11,13,21,9.454,0.5875,-0.5995,-0.2478,0.4836
0.008,-0.036,-0.091,12.3,-55.2,117.7,1023,2018,5,11,13,21,9.493,0.5906,-0.6,-0.2659,0.4693
0.01,-0.059,-0.048,20.8,-44.8,117.4,1023,2018,5,11,13,21,9.512,0.5934,-0.5989,-0.2843,0.4563
0,-0.092,-0.016,26.8,-15.4,118,1023,2018,5,11,13,21,9.516,0.5981,-0.5943,-0.3015,0.4449
-0.001,0,-0.037,30.6,-2,116.1,1023,2018,5,11,13,21,9.553,0.6048,-0.5865,-0.3171,0.4352
0,-0.002,-0.032,34,-12.1,115.6,1023,2018,5,11,13,21,9.573,0.6107,-0.5786,-0.3329,0.4257
-0.002,-0.056,0.046,37,-8.2,114.8,1023,2018,5,11,13,21,9.577,0.6157,-0.5705,-0.3492,0.4163
0.016,-0.13,0.095,39.6,27.5,113,1023,2018,5,11,13,21,9.616,0.6226,-0.5594,-0.3637,0.4086
0.033,-0.041,0.073,42.4,48.1,108.8,0,2018,5,11,13,21,9.635,0.6321,-0.5444,-0.3754,0.4035
0.033,-0.067,0.07,47.2,38.8,105.2,0,2018,5,11,13,21,9.64,0.6408,-0.5293,-0.3868,0.3992
0.029,-0.145,0.088,50.3,43.4,100.4,0,2018,5,11,13,21,9.658,0.6483,-0.5143,-0.3985,0.3952
0.036,-0.186,0.133,51.2,76.3,94.2,0,2018,5,11,13,21,9.696,0.6567,-0.4972,-0.4082,0.3933
0.035,-0.054,0.183,49.2,107.6,90.6,0,2018,5,11,13,21,9.715,0.6679,-0.4756,-0.4147,0.3944
-0.007,0.189,0.236,36.6,56.5,86.1,0,2018,5,11,13,21,9.719,0.6778,-0.4561,-0.4209,0.3939
-0.034,0.01,0.156,21.9,-7.7,83.6,0,2018,5,11,13,21,9.735,0.6831,-0.4455,-0.4297,0.3875
-0.035,-0.236,0.094,13.1,-7.1,74.6,0,2018,5,11,13,21,9.774,0.6864,-0.4396,-0.4383,0.3785
0.004,-0.253,0.098,12.5,45.5,64.9,0,2018,5,11,13,21,9.794,0.6914,-0.4314,-0.4434,0.373
0.001,-0.16,0.132,13.1,73.5,56.3,0,2018,5,11,13,21,9.798,0.6991,-0.4182,-0.4446,0.3721
-0.014,-0.055,0.153,10.9,66,51,0,2018,5,11,13,21,9.817,0.7073,-0.4041,-0.4445,0.3725
-0.028,-0.068,0.136,8.4,45.9,46.6,0,2018,5,11,13,21,9.838,0.714,-0.3924,-0.4448,0.3717
-0.034,-0.117,0.142,5.5,40.8,41.3,0,2018,5,11,13,21,9.876,0.7196,-0.3829,-0.4453,0.3702
-0.03,-0.191,0.147,5,47.3,33.3,0,2018,5,11,13,21,9.897,0.7248,-0.3739,-0.4449,0.3697
-0.042,-0.23,0.146,5.8,50.6,22.2,0,2018,5,11,13,21,9.901,0.7296,-0.3651,-0.4436,0.3708
-0.059,-0.181,0.149,4.7,39.3,11,0,2018,5,11,13,21,9.923,0.7333,-0.3576,-0.4418,0.3729
-0.066,-0.129,0.162,-0.1,12,0.2,0,2018,5,11,13,21,9.937,0.7355,-0.3533,-0.4402,0.3746
-0.053,-0.163,0.162,-4.3,-7,-10.4,0,2018,5,11,13,21,9.977,0.7356,-0.3535,-0.4391,0.3754
-0.052,-0.224,0.165,-7.1,-12.7,-22.5,0,2018,5,11,13,21,9.997,0.7346,-0.3564,-0.4374,0.3766
-0.063,-0.294,0.166,-7.7,-4.1,-36.6,0,2018,5,11,13,21,10.001,0.7327,-0.3605,-0.4346,0.3797
-0.064,-0.228,0.159,-8,-6,-48.7,0,2018,5,11,13,21,10.019,0.7303,-0.3647,-0.4307,0.3847
-0.057,-0.187,0.152,-10.4,-23.4,-59.9,0,2018,5,11,13,21,10.055,0.7266,-0.3711,-0.4265,0.3902
-0.04,-0.192,0.174,-11.6,-27,-70.3,0,2018,5,11,13,21,10.076,0.7214,-0.38,-0.4222,0.396
-0.024,-0.209,0.171,-12.9,-18.4,-81.3,0,2018,5,11,13,21,10.08,0.7157,-0.389,-0.4165,0.4034
-0.003,-0.159,0.131,-14.4,-14.2,-89.9,0,2018,5,11,13,21,10.101,0.7097,-0.3981,-0.4094,0.4125
0.015,-0.079,0.097,-15.3,-19.1,-94.3,0,2018,5,11,13,21,10.121,0.703,-0.4077,-0.4017,0.422
0.005,-0.11,0.107,-16,-21.6,-97.9,0,2018,5,11,13,21,10.138,0.6956,-0.4179,-0.3939,0.4315
-0.011,-0.125,0.115,-17,-12.6,-103.9,0,2018,5,11,13,21,10.159,0.6879,-0.428,-0.3854,0.4416
-0.006,-0.04,0.094,-21.6,-11.2,-109.1,0,2018,5,11,13,21,10.179,0.6803,-0.4375,-0.3754,0.4524
0.014,0.023,0.051,-26.2,-26.6,-112.4,0,2018,5,11,13,21,10.198,0.6718,-0.4485,-0.365,0.4627
0.004,-0.062,0.044,-25.7,-33.8,-115.3,0,2018,5,11,13,21,10.218,0.6617,-0.4614,-0.3553,0.4721
-0.013,-0.106,0.077,-26.4,-16.2,-120.2,0,2018,5,11,13,21,10.259,0.6514,-0.4737,-0.3448,0.4819
-0.009,-0.034,0.027,-31,0.6,-124.3,0,2018,5,11,13,21,10.277,0.6424,-0.4837,-0.3316,0.4931
0.012,0.039,-0.068,-25.3,7.3,-130,0,2018,5,11,13,21,10.281,0.6231,-0.5035,-0.3027,0.5162
0,0.012,-0.026,-21.2,16,-130.3,1023,2018,5,11,13,21,10.304,0.6132,-0.5113,-0.2876,0.5288
-0.039,0.122,-0.013,-22.6,19,-130.2,1023,2018,5,11,13,21,10.324,0.6039,-0.5174,-0.2717,0.5418
-0.009,0.109,-0.091,-23.2,18.4,-128.2,1023,2018,5,11,13,21,10.342,0.5941,-0.5239,-0.2556,0.5542
-0.02,0.041,-0.155,-19,24.9,-128.3,1023,2018,5,11,13,21,10.38,0.584,-0.5301,-0.2397,0.5659
-0.026,0.091,-0.127,-12,40.4,-127.6,1023,2018,5,11,13,21,10.4,0.5743,-0.5344,-0.2234,0.5784
-0.057,0.19,-0.08,-9.6,44.5,-124.5,1023,2018,5,11,13,21,10.405,0.5655,-0.5364,-0.206,0.5915
-0.087,0.242,-0.072,-13.1,29.1,-118.8,1023,2018,5,11,13,21,10.422,0.5566,-0.538,-0.189,0.604
-0.09,0.154,-0.131,-13.7,17.5,-114.7,1023,2018,5,11,13,21,10.442,0.5464,-0.5414,-0.1742,0.6146
-0.072,0.131,-0.184,-9.2,21.7,-111.2,1023,2018,5,11,13,21,10.46,0.5361,-0.5447,-0.1605,0.6245
-0.09,0.213,-0.125,-5.8,24.2,-107.1,1023,2018,5,11,13,21,10.499,0.5262,-0.5467,-0.1466,0.6345
-0.115,0.245,-0.053,-8.2,18.4,-101.1,1023,2018,5,11,13,21,10.52,0.5164,-0.5482,-0.133,0.6442
-0.113,0.225,-0.08,-11.7,11.5,-93.5,1023,2018,5,11,13,21,10.524,0.5069,-0.5499,-0.1204,0.6526
-0.114,0.277,-0.104,-12.3,3.4,-83.9,1023,2018,5,11,13,21,10.544,0.4974,-0.5524,-0.1091,0.6599
-0.121,0.288,-0.116,-13.2,-10.9,-72.8,1023,2018,5,11,13,21,10.564,0.4882,-0.5555,-0.1013,0.6653
-0.146,0.205,-0.089,-14.9,-17.8,-62.6,1023,2018,5,11,13,21,10.584,0.4788,-0.5597,-0.0949,0.6695
-0.139,0.162,-0.04,-16.7,-13.7,-53.5,0,2018,5,11,13,21,10.622,0.4705,-0.5636,-0.0897,0.6728
-0.117,0.202,-0.05,-18.7,-4.9,-42.8,0,2018,5,11,13,21,10.644,0.4642,-0.5668,-0.0841,0.6753
-0.096,0.244,-0.065,-19.8,-1.7,-29.2,0,2018,5,11,13,21,10.648,0.4596,-0.5698,-0.0784,0.6766
-0.079,0.324,-0.093,-20.6,-14.1,-12.4,0,2018,5,11,13,21,10.667,0.4568,-0.5729,-0.0756,0.6762
-0.049,0.288,-0.073,-17.8,-28.2,7.7,0,2018,5,11,13,21,10.688,0.4546,-0.5769,-0.0768,0.6741
-0.05,0.256,-0.025,-15.3,-36,26,0,2018,5,11,13,21,10.704,0.4536,-0.581,-0.0816,0.6707
-0.052,0.209,0.025,-16.3,-35,42.7,0,2018,5,11,13,21,10.739,0.4543,-0.5851,-0.0882,0.6658
-0.059,0.136,0.009,-19.8,-26,55.9,0,2018,5,11,13,21,10.76,0.4572,-0.5886,-0.0956,0.6597
-0.041,0.096,-0.051,-20.6,-19.1,63.9,0,2018,5,11,13,21,10.764,0.462,-0.5916,-0.1025,0.6525
-0.015,0.166,-0.049,-18.6,-23.8,72,0,2018,5,11,13,21,10.802,0.4676,-0.5944,-0.1098,0.6448
-0.039,0.265,-0.019,-20,-47.4,82.2,0,2018,5,11,13,21,10.824,0.4727,-0.5979,-0.1201,0.636
-0.067,0.205,-0.029,-23.7,-69,92.8,0,2018,5,11,13,21,10.829,0.4765,-0.6033,-0.1338,0.6252
-0.068,-0.027,-0.017,-21.3,-57,98.6,0,2018,5,11,13,21,10.846,0.4804,-0.6089,-0.1492,0.6131
-0.044,-0.111,-0.012,-14.4,-14.9,101.3,0,2018,5,11,13,21,10.867,0.4882,-0.611,-0.163,0.6013
-0.048,0.049,0.016,-8.8,9.4,104.3,0,2018,5,11,13,21,10.885,0.4995,-0.6089,-0.1734,0.5912
-0.069,0.245,0.003,-11,-11.4,112,0,2018,5,11,13,21,10.903,0.511,-0.6061,-0.1834,0.5811
-0.082,0.261,-0.01,-15.1,-44.9,123.2,0,2018,5,11,13,21,10.924,0.5202,-0.6058,-0.1974,0.5686
-0.036,0.035,-0.056,-13.1,-57.9,129.5,0,2018,5,11,13,21,10.963,0.5271,-0.6078,-0.2147,0.5536
-0.003,-0.131,-0.077,-4.8,-32,130.3,0,2018,5,11,13,21,10.984,0.5348,-0.6082,-0.2328,0.5382
0.005,-0.064,-0.007,2.6,6.4,127.6,0,2018,5,11,13,21,10.988,0.5455,-0.6041,-0.248,0.5251
-0.012,0.175,0.063,1.4,13.1,129.1,0,2018,5,11,13,21,11.007,0.5585,-0.5967,-0.2603,0.5139
-0.025,0.239,0.047,-4.3,-11.3,135,0,2018,5,11,13,21,11.025,0.5706,-0.5903,-0.2738,0.5009
-0.018,-0.003,-0.098,-1.7,-28.3,136.4,0,2018,5,11,13,21,11.047,0.5798,-0.5866,-0.2894,0.4856
0.002,-0.13,-0.095,6.5,-11.3,133,0,2018,5,11,13,21,11.068,0.5883,-0.5821,-0.3059,0.4704
0.002,-0.082,0.009,10.8,18.4,126.3,0,2018,5,11,13,21,11.088,0.5984,-0.5742,-0.3198,0.4579
0,0.095,0.125,9,27.1,123.2,0,2018,5,11,13,21,11.103,0.6106,-0.5631,-0.3308,0.4477
-0.004,0.032,0.028,5.4,4.2,123,0,2018,5,11,13,21,11.138,0.6218,-0.553,-0.3418,0.4365
-0.008,-0.187,-0.086,10.6,-2.3,117.2,0,2018,5,11,13,21,11.157,0.6299,-0.5457,-0.3546,0.4237
0.018,-0.25,-0.05,18.2,26.9,108.6,0,2018,5,11,13,21,11.164,0.6377,-0.5369,-0.3665,0.413
0.032,-0.212,0.002,23.4,79.2,98.6,0,2018,5,11,13,21,11.197,0.6482,-0.5232,-0.3746,0.4068
0.03,0.139,0.091,25.5,82.4,94.6,0,2018,5,11,13,21,11.219,0.6613,-0.505,-0.3794,0.4044
0.013,0.14,0.062,22.3,30.9,96.6,0,2018,5,11,13,21,11.223,0.6719,-0.4897,-0.3859,0.3995
0.011,0.055,0.017,21.1,-0.9,98,0,2018,5,11,13,21,11.258,0.6784,-0.4799,-0.3955,0.3909
0.006,-0.081,0.011,21.1,2.7,97,0,2018,5,11,13,21,11.279,0.6833,-0.4721,-0.4061,0.3809
0.018,-0.178,0.039,27.8,52,95.7,0,2018,5,11,13,21,11.285,0.6899,-0.4607,-0.4149,0.3734
-0.015,-0.258,0.005,35.3,85.3,87.9,0,2018,5,11,13,21,11.32,0.699,-0.4435,-0.4212,0.3703
-0.067,-0.21,0.063,39.5,93.7,77.7,1023,2018,5,11,13,21,11.339,0.7082,-0.424,-0.4262,0.3699
-0.078,-0.08,0.114,35.3,90.3,70.5,1023,2018,5,11,13,21,11.341,0.7171,-0.4042,-0.4301,0.3704
-0.056,-0.001,0.145,29.5,78.6,63.7,1023,2018,5,11,13,21,11.374,0.7254,-0.3858,-0.433,0.3706
-0.061,-0.117,0.193,25.4,57.3,52.8,1023,2018,5,11,13,21,11.394,0.7321,-0.3702,-0.4355,0.3703
-0.098,-0.239,0.213,18.3,29.5,35.8,1023,2018,5,11,13,21,11.403,0.7363,-0.3598,-0.4378,0.3695
-0.086,-0.226,0.189,9.2,13.3,21.6,1023,2018,5,11,13,21,11.438,0.7387,-0.3538,-0.4395,0.3685
-0.067,-0.185,0.175,2,1,9,1023,2018,5,11,13,21,11.458,0.74,-0.3512,-0.4401,0.3677
-0.037,-0.218,0.186,-3,-9.1,-4.1,1023,2018,5,11,13,21,11.467,0.7402,-0.3516,-0.4397,0.3674
-0.019,-0.235,0.208,-6.5,-7.4,-14.4,1023,2018,5,11,13,21,11.502,0.7396,-0.3538,-0.4382,0.3682
-0.013,-0.172,0.18,-10.2,-5.6,-23,1023,2018,5,11,13,21,11.523,0.7389,-0.3565,-0.4354,0.3702
-0.023,-0.141,0.151,-14.2,-16.3,-30.2,1023,2018,5,11,13,21,11.528,0.7378,-0.3605,-0.4321,0.3725
-0.038,-0.212,0.14,-15.7,-21,-39.1,1023,2018,5,11,13,21,11.567,0.7356,-0.3666,-0.4287,0.3748
-0.057,-0.295,0.138,-16.3,-8.3,-52.1,1023,2018,5,11,13,21,11.587,0.7328,-0.3733,-0.4243,0.3788
-0.047,-0.223,0.108,-18.5,1.8,-64.4,1023,2018,5,11,13,21,11.588,0.7301,-0.3791,-0.4179,0.3853
-0.025,-0.122,0.088,-20.8,-6.5,-73.9,1023,2018,5,11,13,21,11.626,0.7267,-0.3856,-0.4106,0.3929
-0.034,-0.109,0.105,-22.3,-23.4,-82.3,0,2018,5,11,13,21,11.627,0.722,-0.3944,-0.4032,0.4005
-0.03,-0.155,0.103,-24.3,-31.5,-90.8,0,2018,5,11,13,21,11.645,0.7156,-0.4057,-0.396,0.4078
-0.001,-0.09,0.071,-26,-35.8,-98.3,0,2018,5,11,13,21,11.68,0.7083,-0.4179,-0.3881,0.4158
0.019,-0.113,0.026,-24.1,-35.9,-103.8,0,2018,5,11,13,21,11.701,0.6998,-0.4312,-0.3799,0.4241
0.029,-0.122,0.015,-18.7,-26,-107.3,0,2018,5,11,13,21,11.706,0.6906,-0.444,-0.3714,0.4334
-0.017,-0.079,0.112,-16.8,-10.6,-111.8,0,2018,5,11,13,21,11.741,0.6819,-0.4544,-0.3619,0.4442
-0.015,0.018,0.136,-23.1,-10.6,-113.5,0,2018,5,11,13,21,11.763,0.6741,-0.4633,-0.3508,0.4557
-0.002,0.043,0.055,-29.7,-24,-114,0,2018,5,11,13,21,11.768,0.6657,-0.4736,-0.3392,0.4662
0.027,0,-0.018,-28.6,-25.9,-115.1,0,2018,5,11,13,21,11.804,0.6558,-0.4858,-0.3282,0.4754
0.023,-0.043,-0.018,-24.5,-11.8,-116.1,0,2018,5,11,13,21,11.825,0.6457,-0.4971,-0.3168,0.4853
-0.003,-0.001,0.016,-26.4,15.5,-118.9,0,2018,5,11,13,21,11.833,0.6285,-0.513,-0.2898,0.5076
0.005,0.073,-0.035,-28.5,17.2,-119.8,0,2018,5,11,13,21,11.849,0.6207,-0.5195,-0.2744,0.519
0.007,0.021,-0.103,-25.2,22.8,-120.5,0,2018,5,11,13,21,11.869,0.6124,-0.526,-0.2587,0.5302
-0.009,0.022,-0.117,-19,32.2,-122.1,0,2018,5,11,13,21,11.908,0.604,-0.5313,-0.2428,0.5419
-0.034,0.077,-0.052,-16,39.6,-122.7,0,2018,5,11,13,21,11.928,0.5961,-0.5347,-0.2264,0.5544
-0.049,0.09,-0.049,-18.5,38.3,-123.8,0,2018,5,11,13,21,11.93,0.5883,-0.537,-0.2094,0.567
-0.04,0.082,-0.142,-17.7,36.1,-124.1,0,2018,5,11,13,21,11.964,0.5798,-0.54,-0.1923,0.5789
-0.029,0.136,-0.174,-11.5,36.6,-123,0,2018,5,11,13,21,11.982,0.5709,-0.5422,-0.1755,0.5909
-0.057,0.135,-0.107,-6.9,30.4,-119.7,0,2018,5,11,13,21,11.992,0.5616,-0.5434,-0.1597,0.6031
-0.086,0.117,-0.062,-7.5,30,-118.1,0,2018,5,11,13,21,12.026,0.5518,-0.5445,-0.1448,0.6147
-0.083,0.158,-0.068,-10,28.6,-116.1,0,2018,5,11,13,21,12.046,0.5422,-0.5454,-0.1297,0.6258
-0.066,0.242,-0.1,-10.4,20.1,-110.2,0,2018,5,11,13,21,12.048,0.5319,-0.5467,-0.1145,0.6363
-0.066,0.208,-0.123,-8,5.6,-101,0,2018,5,11,13,21,12.082,0.5214,-0.5487,-0.1021,0.6454
-0.078,0.133,-0.103,-5.4,6.1,-94.9,0,2018,5,11,13,21,12.105,0.5104,-0.551,-0.0914,0.6537
-0.095,0.162,-0.094,-4.5,12.6,-90,0,2018,5,11,13,21,12.109,0.5005,-0.5524,-0.0809,0.6615
-0.11,0.263,-0.062,-6,12.5,-82.4,0,2018,5,11,13,21,12.148,0.4915,-0.5529,-0.07,0.669
-0.116,0.329,-0.023,-9.3,3,-69.7,0,2018,5,11,13,21,12.167,0.4835,-0.5539,-0.0614,0.6749
-0.12,0.326,-0.036,-13.1,-16.3,-54,0,2018,5,11,13,21,12.17,0.4757,-0.5565,-0.0554,0.6789
-0.125,0.287,-0.075,-16,-32.8,-38.3,0,2018,5,11,13,21,12.21,0.4679,-0.5607,-0.0528,0.681
-0.109,0.273,-0.08,-16.2,-37.9,-21.9,0,2018,5,11,13,21,12.229,0.461,-0.5657,-0.0531,0.6815
-0.103,0.243,-0.049,-16.2,-33.7,-4.7,0,2018,5,11,13,21,12.233,0.4559,-0.5708,-0.0548,0.6806
-0.109,0.22,-0.003,-16.7,-20.1,12.1,0,2018,5,11,13,21,12.269,0.454,-0.5747,-0.0572,0.6784
-0.109,0.228,0.013,-19.6,-12.2,29.2,0,2018,5,11,13,21,12.289,0.455,-0.5778,-0.06,0.6748
-0.101,0.257,-0.053,-23.7,-16.6,44.4,1023,2018,5,11,13,21,12.292,0.4584,-0.581,-0.0636,0.6694
-0.053,0.226,-0.088,-23,-28.4,58.6,1023,2018,5,11,13,21,12.324,0.4624,-0.5849,-0.0699,0.6626
-0.037,0.157,-0.056,-18.9,-38.7,70.1,1023,2018,5,11,13,21,12.329,0.4662,-0.5894,-0.0782,0.6549
-0.052,0.141,0.015,-17.9,-37,80.9,1023,2018,5,11,13,21,12.363,0.4707,-0.5935,-0.0882,0.6467
-0.073,0.166,0.039,-20.6,-28.4,91.6,1023,2018,5,11,13,21,12.384,0.4772,-0.5967,-0.099,0.6373
-0.056,0.118,-0.02,-21.9,-26.5,100.5,1023,2018,5,11,13,21,12.392,0.4853,-0.5993,-0.1098,0.627
-0.035,0.074,-0.076,-19.2,-23.4,107.2,1023,2018,5,11,13,21,12.43,0.4943,-0.6017,-0.1215,0.6154
-0.001,0.162,-0.119,-14.1,-30.1,113.1,1023,2018,5,11,13,21,12.452,0.5034,-0.6035,-0.1347,0.6034
-0.01,0.267,-0.088,-10.1,-45.7,123.7,1023,2018,5,11,13,21,12.453,0.5121,-0.605,-0.1503,0.5907
-0.049,0.108,0.038,-8.7,-47.5,133.2,1023,2018,5,11,13,21,12.489,0.5203,-0.6066,-0.1677,0.5771
-0.057,-0.138,-0.025,-5.7,-27.6,131.6,1023,2018,5,11,13,21,12.509,0.53,-0.6065,-0.1856,0.5627
