ax,ay,az,dpitch,droll,dyaw,heart,time_1,time_2,time_3,time_4,time_5,time_6,w,x,y,z
0.01,0.008,-0.022,-4.7,-6.8,-2.2,0,2018,5,17,22,14,51.753,-0.5631,-0.3154,0.5649,-0.5139
0.014,0.004,-0.025,-3.5,-7.4,-2.6,0,2018,5,17,22,14,51.776,-0.5637,-0.314,0.5653,-0.5136
0.016,-0.002,-0.025,-2.2,-5.8,-2.1,0,2018,5,17,22,14,51.785,-0.5641,-0.3128,0.566,-0.5133
0.012,-0.004,-0.027,-0.6,-3.4,-1.2,0,2018,5,17,22,14,51.803,-0.5642,-0.3121,0.5665,-0.513
0.013,-0.009,-0.025,1.2,-0.4,0,0,2018,5,17,22,14,51.821,-0.5641,-0.3118,0.567,-0.5127
0.005,-0.002,-0.014,2.7,2.7,1.2,0,2018,5,17,22,14,51.844,-0.5639,-0.3121,0.5671,-0.5127
0.002,0.001,-0.007,3.7,4.8,2,0,2018,5,17,22,14,51.88,-0.5634,-0.313,0.5671,-0.5127
0.003,0.007,-0.002,4.5,5.4,2.4,0,2018,5,17,22,14,51.902,-0.563,-0.3141,0.5669,-0.5127
0.004,0.006,-0.002,4.8,5.1,2.4,0,2018,5,17,22,14,51.908,-0.5625,-0.3153,0.5667,-0.5127
0.008,0.006,-0.001,4.6,5.2,2.2,0,2018,5,17,22,14,51.926,-0.562,-0.3164,0.5665,-0.5127
0.01,0.004,0.006,4.5,5.8,2.1,0,2018,5,17,22,14,51.945,-0.5615,-0.3176,0.5664,-0.5127
0.009,0.009,0.003,4,6.3,2,0,2018,5,17,22,14,51.982,-0.5609,-0.3189,0.5661,-0.5128
0.01,0.012,-0.004,3.4,6.8,2.3,0,2018,5,17,22,14,52.005,-0.5604,-0.3202,0.5658,-0.513
0.009,0.022,0.004,2.2,5.1,2.6,0,2018,5,17,22,14,52.01,-0.56,-0.3214,0.5653,-0.5131
0.005,0.025,0.009,0.6,0,2.7,0,2018,5,17,22,14,52.024,-0.5602,-0.3221,0.5648,-0.513
0.009,0.013,0.015,-0.2,-4.2,3.1,0,2018,5,17,22,14,52.059,-0.5607,-0.3222,0.5648,-0.5125
0.009,0.003,0.007,-0.7,-5.3,3.7,0,2018,5,17,22,14,52.083,-0.5614,-0.322,0.5649,-0.5117
0.012,0,-0.002,-0.6,-4.5,4,0,2018,5,17,22,14,52.087,-0.5622,-0.3218,0.565,-0.5109
0.013,-0.007,0,0.1,-3.3,4,0,2018,5,17,22,14,52.105,-0.5628,-0.3217,0.5651,-0.5101
0.009,-0.006,-0.004,0.7,-1.9,4.1,0,2018,5,17,22,14,52.126,-0.5633,-0.3217,0.5652,-0.5094
0.005,-0.011,-0.005,1.2,-0.8,3.9,0,2018,5,17,22,14,52.162,-0.5635,-0.3222,0.5653,-0.5088
0.005,-0.013,-0.004,1.4,0.3,3.7,0,2018,5,17,22,14,52.162,-0.5636,-0.3226,0.5654,-0.5084
0.005,-0.011,-0.001,1.4,1.5,3.2,0,2018,5,17,22,14,52.186,-0.5637,-0.323,0.5653,-0.5081
0.005,-0.006,-0.001,1.2,1.5,2.4,0,2018,5,17,22,14,52.222,-0.5636,-0.3236,0.5652,-0.5079
0.007,-0.006,-0.01,0.7,0.5,1.7,0,2018,5,17,22,14,52.243,-0.5636,-0.324,0.5652,-0.5077
0.012,-0.001,-0.005,0.4,-0.6,0.7,0,2018,5,17,22,14,52.248,-0.5636,-0.3242,0.5653,-0.5076
0.015,-0.004,-0.007,0.4,-1.7,-0.3,0,2018,5,17,22,14,52.264,-0.5636,-0.324,0.5655,-0.5074
0.012,-0.008,-0.007,0.7,-2,-0.7,0,2018,5,17,22,14,52.302,-0.5636,-0.3236,0.5658,-0.5073
0.011,-0.006,-0.004,0.9,-2,-0.8,0,2018,5,17,22,14,52.323,-0.5635,-0.3234,0.5662,-0.5071
0.015,-0.005,-0.004,1.3,-1.5,-0.4,0,2018,5,17,22,14,52.325,-0.5633,-0.3232,0.5666,-0.5069
0.015,-0.007,-0.003,1.8,-0.9,-0.1,0,2018,5,17,22,14,52.359,-0.5632,-0.3231,0.5669,-0.5068
0.011,-0.005,-0.001,2.3,-0.4,0,0,2018,5,17,22,14,52.381,-0.5631,-0.3231,0.5672,-0.5066
0.006,-0.005,0.003,2.6,0,-0.1,0,2018,5,17,22,14,52.388,-0.5628,-0.3232,0.5675,-0.5065
0.001,-0.003,0.004,2.8,0.3,-0.3,0,2018,5,17,22,14,52.406,-0.5626,-0.3233,0.5677,-0.5064
0.001,-0.002,0.008,2.9,0.6,-0.8,0,2018,5,17,22,14,52.427,-0.5624,-0.3233,0.5679,-0.5065
0.004,0.002,0.013,2.8,0.6,-0.9,0,2018,5,17,22,14,52.463,-0.5621,-0.3234,0.5681,-0.5065
0,-0.002,0.011,2.7,0.4,-0.9,0,2018,5,17,22,14,52.486,-0.5618,-0.3235,0.5683,-0.5066
0.001,0,0.018,2.1,0.6,-1,0,2018,5,17,22,14,52.488,-0.5614,-0.3237,0.5685,-0.5066
0.001,0.003,0.017,2,0.6,-1.2,0,2018,5,17,22,14,52.524,-0.5612,-0.3238,0.5686,-0.5067
0.001,0.003,0.011,1.6,0.6,-1,0,2018,5,17,22,14,52.544,-0.5609,-0.3239,0.5687,-0.5068
0.002,0.005,0.011,1.2,0.4,-0.9,0,2018,5,17,22,14,52.55,-0.5607,-0.324,0.5687,-0.5069
0.004,0.004,0.017,0.9,0.4,-0.8,0,2018,5,17,22,14,52.588,-0.5606,-0.324,0.5688,-0.507
0.001,0.004,0.016,0.9,0.3,-0.7,0,2018,5,17,22,14,52.588,-0.5605,-0.324,0.5688,-0.5071
0.006,0.006,0.012,0.6,0.4,-0.4,0,2018,5,17,22,14,52.612,-0.5604,-0.3241,0.5688,-0.5072
0.005,0.003,0.009,0,0,0,0,2018,5,17,22,14,52.627,-0.5604,-0.3241,0.5687,-0.5072
0.004,0.002,0.011,0,0,0,0,2018,5,17,22,14,52.649,-0.5604,-0.3242,0.5686,-0.5073
0.002,0,0.008,0,0.6,0.1,0,2018,5,17,22,14,52.686,-0.5604,-0.3243,0.5685,-0.5074
0.003,0,0.004,-0.1,0.9,0.4,0,2018,5,17,22,14,52.708,-0.5604,-0.3244,0.5683,-0.5074
0.004,-0.002,0.005,0,1.3,0.4,0,2018,5,17,22,14,52.712,-0.5605,-0.3244,0.5681,-0.5076
0.004,0,0.004,-0.1,1.7,0.4,0,2018,5,17,22,14,52.748,-0.5605,-0.3246,0.5679,-0.5077
0.003,0.002,0.003,-0.1,1.7,0.4,0,2018,5,17,22,14,52.769,-0.5604,-0.3249,0.5678,-0.5078
0.006,-0.002,0,-0.2,1.5,0.4,0,2018,5,17,22,14,52.772,-0.5605,-0.3249,0.5675,-0.508
0.006,0,-0.004,-0.4,1,0.2,0,2018,5,17,22,14,52.808,-0.5604,-0.3251,0.5674,-0.508
0.005,0,0,-0.6,0.5,0,0,2018,5,17,22,14,52.829,-0.5604,-0.3252,0.5673,-0.5081
0.009,0,-0.01,-0.6,0.1,0,0,2018,5,17,22,14,52.832,-0.5604,-0.3252,0.5672,-0.5082
0.009,0,-0.009,-0.6,-0.1,-0.1,0,2018,5,17,22,14,52.871,-0.5605,-0.3251,0.5672,-0.5082
0,-0.002,-0.008,-0.5,0.1,-0.2,0,2018,5,17,22,14,52.893,-0.5605,-0.325,0.5672,-0.5082
-0.001,-0.001,-0.007,0,0,0,0,2018,5,17,22,14,52.896,-0.5604,-0.325,0.5673,-0.5082
0,0.002,-0.009,0,0,0,0,2018,5,17,22,14,52.932,-0.5604,-0.3251,0.5674,-0.5081
0.005,0.002,-0.011,0.1,-1.1,-0.7,0,2018,5,17,22,14,52.932,-0.5604,-0.3249,0.5675,-0.508
0.011,0.002,-0.013,0.3,-1.3,-0.9,0,2018,5,17,22,14,52.953,-0.5604,-0.3247,0.5677,-0.5079
0.013,0.003,-0.016,0.6,-0.9,-0.8,0,2018,5,17,22,14,52.988,-0.5603,-0.3245,0.568,-0.5078
0.01,0.006,-0.011,1.1,0,-0.5,0,2018,5,17,22,14,53.012,-0.5602,-0.3245,0.5683,-0.5077
0.008,0.008,-0.001,1.5,0.8,0,0,2018,5,17,22,14,53.014,-0.56,-0.3247,0.5684,-0.5077
0.007,0.008,0,1.4,0.7,0.2,0,2018,5,17,22,14,53.047,-0.5598,-0.325,0.5685,-0.5076
0.001,0.011,-0.008,1.1,-0.7,0.4,0,2018,5,17,22,14,53.07,-0.5598,-0.3251,0.5685,-0.5074
0.002,0.017,-0.01,0,-3.6,0.1,0,2018,5,17,22,14,53.073,-0.5599,-0.3252,0.5688,-0.507
0.01,0.017,-0.004,-1,-7,0,0,2018,5,17,22,14,53.11,-0.5603,-0.3248,0.5692,-0.5064
0.011,0.014,-0.013,-2,-9.3,-0.4,0,2018,5,17,22,14,53.131,-0.5609,-0.3239,0.5698,-0.5055
0.007,0.013,-0.02,-2.7,-11.2,-0.4,0,2018,5,17,22,14,53.136,-0.5616,-0.3229,0.5706,-0.5045
0,0.013,-0.029,-3.7,-12.3,-0.4,0,2018,5,17,22,14,53.174,-0.5625,-0.3216,0.5715,-0.5034
0.004,0.013,-0.039,-5,-14.6,-0.4,0,2018,5,17,22,14,53.174,-0.5635,-0.3202,0.5724,-0.5021
0.012,0.017,-0.047,-6,-18,-0.3,0,2018,5,17,22,14,53.196,-0.5648,-0.3182,0.5735,-0.5006
0.011,0.016,-0.054,-7,-22.4,-0.1,0,2018,5,17,22,14,53.232,-0.5664,-0.316,0.5749,-0.4986
0.01,0.017,-0.069,-7.4,-26.8,0.6,0,2018,5,17,22,14,53.254,-0.5683,-0.3132,0.5767,-0.4962
0.011,0.011,-0.074,-7.2,-32,1.8,0,2018,5,17,22,14,53.257,-0.5705,-0.31,0.5789,-0.4931
-0.002,0.01,-0.086,-6,-36.7,3.8,0,2018,5,17,22,14,53.293,-0.5729,-0.3066,0.5816,-0.4892
-0.007,0.006,-0.102,-4.6,-42.4,6.5,0,2018,5,17,22,14,53.313,-0.5756,-0.303,0.5847,-0.4845
-0.009,-0.001,-0.113,-2.6,-48.5,9.3,0,2018,5,17,22,14,53.317,-0.5786,-0.2992,0.5884,-0.4788
-0.002,0,-0.113,-0.2,-54.7,12.4,0,2018,5,17,22,14,53.351,-0.5818,-0.2953,0.5928,-0.4719
0.008,-0.009,-0.119,2.4,-60.1,14.7,0,2018,5,17,22,14,53.373,-0.5853,-0.2911,0.5976,-0.464
0.017,-0.016,-0.121,5.1,-64.5,16.6,0,2018,5,17,22,14,53.377,-0.5887,-0.2868,0.6031,-0.4553
0.026,-0.016,-0.122,7.6,-68.1,18.2,0,2018,5,17,22,14,53.394,-0.5921,-0.2824,0.6089,-0.4458
0.035,-0.017,-0.119,10.6,-71.3,19.5,0,2018,5,17,22,14,53.415,-0.5954,-0.2778,0.6152,-0.4356
0.032,-0.027,-0.12,12.8,-73.9,21.3,0,2018,5,17,22,14,53.45,-0.5984,-0.2733,0.6217,-0.4248
0.027,-0.037,-0.116,14.9,-76.3,23.7,0,2018,5,17,22,14,53.47,-0.6014,-0.2688,0.6285,-0.4134
0.03,-0.039,-0.11,17,-79.4,26.3,0,2018,5,17,22,14,53.477,-0.6043,-0.2644,0.6354,-0.4012
0.036,-0.051,-0.101,19.2,-82,28.8,0,2018,5,17,22,14,53.515,-0.6072,-0.2599,0.6425,-0.3884
0.042,-0.066,-0.081,21.4,-82.9,31.8,0,2018,5,17,22,14,53.536,-0.6099,-0.2557,0.6495,-0.3749
0.023,-0.083,-0.065,23.7,-83.1,35.1,0,2018,5,17,22,14,53.537,-0.6125,-0.2516,0.6565,-0.3611
-0.018,-0.106,-0.048,25.7,-82.8,39.2,1023,2018,5,17,22,14,53.574,-0.615,-0.2479,0.6632,-0.3469
-0.047,-0.126,-0.021,27.5,-82.5,43.1,1023,2018,5,17,22,14,53.595,-0.6174,-0.2446,0.6696,-0.3322
-0.071,-0.149,0.005,28.1,-82.3,46,1023,2018,5,17,22,14,53.597,-0.6198,-0.2416,0.6757,-0.3173
-0.072,-0.16,0.038,27.8,-81.2,47.6,1023,2018,5,17,22,14,53.616,-0.6223,-0.2385,0.6813,-0.3024
-0.086,-0.181,0.068,26.5,-81,46.4,1023,2018,5,17,22,14,53.637,-0.6248,-0.2366,0.6865,-0.2866
-0.102,-0.194,0.093,24.2,-81,42.9,1023,2018,5,17,22,14,53.673,-0.6274,-0.234,0.6913,-0.271
-0.068,-0.191,0.135,21.1,-80,35.9,1023,2018,5,17,22,14,53.694,-0.6299,-0.2307,0.6959,-0.2562
-0.02,-0.191,0.16,17.3,-78.6,25.6,1023,2018,5,17,22,14,53.696,-0.6322,-0.2262,0.7002,-0.2425
0.037,-0.17,0.187,14,-75.1,14.1,1023,2018,5,17,22,14,53.73,-0.6341,-0.2205,0.7043,-0.2303
0.063,-0.131,0.195,11.4,-66.1,4.8,1023,2018,5,17,22,14,53.751,-0.6357,-0.2141,0.7082,-0.2201
0.133,-0.098,0.22,6.4,-31.7,-6.3,1023,2018,5,17,22,14,53.76,-0.637,-0.2026,0.714,-0.2077
0.145,-0.066,0.217,3.3,-12.2,-7.2,1023,2018,5,17,22,14,53.797,-0.637,-0.1992,0.7155,-0.2058
0.14,-0.049,0.23,-0.1,4,-7,1023,2018,5,17,22,14,53.797,-0.6367,-0.1977,0.7161,-0.2063
0.097,-0.009,0.23,-3.4,18.1,-6.4,1023,2018,5,17,22,14,53.819,-0.6364,-0.1978,0.7156,-0.2087
0.046,0.052,0.221,-6.7,24.9,-5.4,1023,2018,5,17,22,14,53.857,-0.6361,-0.1991,0.7144,-0.2124
0.027,0.079,0.21,-11.8,23.9,-6.1,1023,2018,5,17,22,14,53.881,-0.6363,-0.2005,0.7126,-0.2166
0.007,0.067,0.188,-17.9,16.5,-8.6,1023,2018,5,17,22,14,53.885,-0.6372,-0.2011,0.7104,-0.2205
-0.036,0.075,0.14,-25.4,3.1,-13.1,1023,2018,5,17,22,14,53.903,-0.6393,-0.1998,0.7079,-0.2238
-0.055,0.124,0.06,-33.3,-13.9,-17.8,0,2018,5,17,22,14,53.925,-0.6431,-0.1962,0.7049,-0.2256
-0.043,0.178,-0.007,-38.5,-28.8,-24.2,0,2018,5,17,22,14,53.941,-0.6481,-0.1906,0.7019,-0.2255
0.017,0.199,-0.066,-38.8,-37.7,-30.9,0,2018,5,17,22,14,53.978,-0.653,-0.1817,0.6997,-0.2256
0.058,0.14,-0.091,-36,-32.3,-34.4,0,2018,5,17,22,14,54.001,-0.6574,-0.172,0.6978,-0.2262
0.043,0.086,-0.09,-30.9,-13.5,-35.3,0,2018,5,17,22,14,54.006,-0.6606,-0.1638,0.6961,-0.2282
0.028,0.128,-0.134,-26.2,3.5,-32.9,0,2018,5,17,22,14,54.023,-0.6628,-0.1579,0.694,-0.2324
0.031,0.193,-0.172,-21.2,10.9,-29.8,0,2018,5,17,22,14,54.041,-0.6642,-0.1541,0.6917,-0.2377
0.087,0.268,-0.201,-16.3,8.7,-26.2,0,2018,5,17,22,14,54.064,-0.665,-0.1509,0.6898,-0.2428
0.097,0.262,-0.239,-10.3,0.1,-22.9,0,2018,5,17,22,14,54.101,-0.6655,-0.1479,0.6887,-0.2465
0.106,0.215,-0.222,-4.9,-7.3,-18.8,0,2018,5,17,22,14,54.123,-0.6656,-0.1444,0.6885,-0.2488
0.12,0.209,-0.218,-0.6,-10.9,-12.3,0,2018,5,17,22,14,54.128,-0.6655,-0.141,0.689,-0.2496
0.137,0.209,-0.224,3.2,-13.9,-3.2,0,2018,5,17,22,14,54.147,-0.6653,-0.1385,0.6899,-0.249
0.16,0.172,-0.216,6.7,-15.4,4.7,0,2018,5,17,22,14,54.164,-0.6652,-0.1369,0.6911,-0.247
0.119,0.133,-0.222,10.7,-16,12.5,0,2018,5,17,22,14,54.18,-0.6649,-0.1366,0.6926,-0.2439
0.105,0.101,-0.2,13.6,-18.4,19.6,0,2018,5,17,22,14,54.202,-0.6645,-0.137,0.6943,-0.2397
0.094,0.046,-0.146,16.2,-17.3,24.4,0,2018,5,17,22,14,54.239,-0.664,-0.1382,0.6963,-0.2345
0.05,0.006,-0.106,18.4,-10.2,28.2,0,2018,5,17,22,14,54.262,-0.6626,-0.1409,0.699,-0.2289
-0.021,-0.029,-0.095,19.8,-1.5,33,1023,2018,5,17,22,14,54.267,-0.6609,-0.145,0.7014,-0.2239
-0.045,-0.084,-0.082,21.2,6.7,36.2,1023,2018,5,17,22,14,54.285,-0.6589,-0.1503,0.7034,-0.2197
-0.08,-0.125,-0.038,22.8,15.7,37.6,1023,2018,5,17,22,14,54.303,-0.6567,-0.1565,0.7051,-0.2167
-0.066,-0.142,0.02,21.8,16.2,35.1,1023,2018,5,17,22,14,54.326,-0.6545,-0.1631,0.7063,-0.2147
-0.066,-0.131,0.105,21.7,8.1,26.8,1023,2018,5,17,22,14,54.362,-0.6526,-0.1686,0.7073,-0.2124
-0.206,-0.119,0.168,17.7,2.3,19.5,1023,2018,5,17,22,14,54.385,-0.6508,-0.1727,0.7088,-0.2099
-0.183,-0.118,0.201,7.1,-0.3,14.6,1023,2018,5,17,22,14,54.389,-0.6499,-0.1754,0.7097,-0.2077
-0.153,-0.133,0.15,-5,-5.1,7.6,1023,2018,5,17,22,14,54.406,-0.6503,-0.1765,0.7095,-0.2061
-0.064,-0.163,0.069,-25.7,-2.7,-4.6,1023,2018,5,17,22,14,54.429,-0.6544,-0.1745,0.7064,-0.2051
-0.018,-0.14,0.069,-34.4,11,-7.2,1023,2018,5,17,22,14,54.445,-0.6578,-0.1731,0.703,-0.2072
-0.022,-0.089,0.041,-40.1,26.7,-6.7,1023,2018,5,17,22,14,54.481,-0.6616,-0.1728,0.6981,-0.2119
0,-0.061,-0.01,-42.8,34.2,-6.9,1023,2018,5,17,22,14,54.481,-0.6654,-0.1736,0.6923,-0.2182
-0.018,-0.059,-0.029,-40.4,36.2,-7,1023,2018,5,17,22,14,54.507,-0.6687,-0.1754,0.6867,-0.2246
-0.046,-0.053,-0.015,-37.2,36.3,-7.2,1023,2018,5,17,22,14,54.525,-0.6715,-0.1773,0.6812,-0.2311
-0.004,-0.032,-0.012,-32.3,33.8,-8.9,1023,2018,5,17,22,14,54.545,-0.6739,-0.1792,0.6762,-0.2372
-0.011,-0.011,-0.001,-24.6,34.9,-10.8,1023,2018,5,17,22,14,54.584,-0.6756,-0.1812,0.6719,-0.2431
-0.059,0.005,-0.026,-18.6,40.4,-12.9,0,2018,5,17,22,14,54.607,-0.6762,-0.1837,0.6683,-0.2494
-0.101,0.009,-0.076,-15.6,46.4,-15,0,2018,5,17,22,14,54.611,-0.6757,-0.187,0.6653,-0.2563
-0.132,0.026,-0.114,-15.1,47.7,-16.8,0,2018,5,17,22,14,54.626,-0.6746,-0.1905,0.6625,-0.2638
-0.105,0.027,-0.134,-15.9,42.9,-17.9,0,2018,5,17,22,14,54.649,-0.6733,-0.1941,0.6599,-0.2709
-0.084,0.017,-0.119,-13.7,35.6,-20,0,2018,5,17,22,14,54.685,-0.6719,-0.1964,0.6578,-0.2775
-0.093,-0.005,-0.11,-9.3,30.4,-21.4,0,2018,5,17,22,14,54.685,-0.6704,-0.1979,0.6564,-0.2836
-0.12,-0.011,-0.088,-2.6,29.2,-23.4,0,2018,5,17,22,14,54.708,-0.6683,-0.1987,0.6556,-0.2895
-0.105,-0.022,-0.072,5.9,32,-24.7,0,2018,5,17,22,14,54.725,-0.6653,-0.1998,0.6557,-0.2954
-0.097,-0.029,-0.036,16.8,38.9,-26.4,0,2018,5,17,22,14,54.748,-0.6609,-0.202,0.6566,-0.3018
-0.09,-0.042,0.024,27.2,52,-26.3,0,2018,5,17,22,14,54.768,-0.6551,-0.2053,0.6579,-0.3093
-0.114,-0.028,0.053,34.5,68,-24.7,0,2018,5,17,22,14,54.804,-0.6481,-0.2108,0.6589,-0.3182
-0.078,0.051,0.064,34.5,73.5,-23.3,0,2018,5,17,22,14,54.827,-0.6404,-0.2183,0.6592,-0.3278
-0.021,0.082,0.062,30.6,63.2,-23.1,0,2018,5,17,22,14,54.832,-0.6332,-0.2256,0.6592,-0.3367
0.012,0.072,0.101,24.1,50.3,-22.9,0,2018,5,17,22,14,54.849,-0.627,-0.2313,0.6593,-0.3443
0.031,0.043,0.126,17.5,42.5,-21.6,0,2018,5,17,22,14,54.867,-0.6221,-0.2352,0.6589,-0.3512
0.032,0.013,0.069,12.3,32.5,-21.4,0,2018,5,17,22,14,54.891,-0.6182,-0.2376,0.6583,-0.3575
0.076,-0.007,0.069,6.4,25,-21.5,0,2018,5,17,22,14,54.906,-0.615,-0.2386,0.6581,-0.3628
0.074,-0.01,0.095,1.6,22.8,-21,1023,2018,5,17,22,14,54.925,-0.6126,-0.2386,0.6574,-0.3681
0.113,-0.028,0.062,2,23.2,-20.5,1023,2018,5,17,22,14,54.948,-0.6106,-0.2382,0.6564,-0.3733
0.146,-0.029,-0.036,9.8,31.3,-22.2,1023,2018,5,17,22,14,54.968,-0.6077,-0.2385,0.6558,-0.3789
0.002,0.294,0.153,-4.4,5.3,-15.3,1023,2018,5,17,22,14,55.006,-0.6048,-0.2386,0.6556,-0.3838
0.07,0,0.08,-13.7,-46,-24.8,1023,2018,5,17,22,14,55.028,-0.6062,-0.2331,0.6567,-0.3832
-0.08,0.359,0.339,-47.3,-77.5,-6.8,1023,2018,5,17,22,14,55.034,-0.6107,-0.2218,0.6585,-0.3795
0.087,0.295,0.282,-60.9,-131.8,-2.8,1023,2018,5,17,22,14,55.051,-0.621,-0.2064,0.6596,-0.3695
0.125,-0.105,0.252,-50,-99.8,-9.8,1023,2018,5,17,22,14,55.069,-0.6315,-0.1884,0.6614,-0.358
0.088,-0.039,0.189,-32.5,-28.7,-8.4,1023,2018,5,17,22,14,55.092,-0.6375,-0.1781,0.661,-0.3533
0.052,-0.08,0.147,-18.8,8.7,-12.5,1023,2018,5,17,22,14,55.111,-0.6402,-0.1745,0.6587,-0.3544
-0.105,-0.379,0.661,-38.7,39.6,-14,1023,2018,5,17,22,14,55.129,-0.6412,-0.1738,0.655,-0.3597
0.044,-0.02,0.582,-46.8,95.1,-4.7,1023,2018,5,17,22,14,55.15,-0.644,-0.1784,0.6452,-0.3701
0.087,0.388,0.345,-46.2,49.8,-7.7,1023,2018,5,17,22,14,55.188,-0.6463,-0.1833,0.6351,-0.3811
0.102,0.313,0.11,-36.1,2.1,-5.9,0,2018,5,17,22,14,55.211,-0.6498,-0.182,0.6292,-0.3854
0.04,0.21,0.039,-24.8,14.9,-5.9,0,2018,5,17,22,14,55.215,-0.6525,-0.1802,0.6255,-0.3877
0.097,0.132,-0.007,-11.5,22.6,-7.1,0,2018,5,17,22,14,55.231,-0.6535,-0.181,0.6223,-0.3909
0.027,0.052,0.089,-4.9,18.7,-4.7,0,2018,5,17,22,14,55.268,-0.6537,-0.1827,0.6195,-0.394
-0.059,-0.065,0.14,-1.4,6.2,-4.7,0,2018,5,17,22,14,55.268,-0.6538,-0.1831,0.6178,-0.3964
-0.073,-0.119,0.078,2.2,3.8,-6.5,0,2018,5,17,22,14,55.291,-0.6535,-0.1823,0.6173,-0.3981
-0.098,-0.031,0.048,6.1,9.1,-6.4,0,2018,5,17,22,14,55.328,-0.6524,-0.1822,0.6173,-0.3999
-0.034,0.141,0.054,8.6,13.4,-3.6,0,2018,5,17,22,14,55.353,-0.6511,-0.1838,0.6172,-0.4014
0.012,0.183,0.007,13.3,1.7,-2.2,0,2018,5,17,22,14,55.357,-0.6494,-0.1852,0.618,-0.4023
0.099,0.093,0.002,17.2,-17.1,-0.5,0,2018,5,17,22,14,55.391,-0.6481,-0.1854,0.6203,-0.4009
0.051,-0.057,0.028,19,-17,3.5,0,2018,5,17,22,14,55.411,-0.6467,-0.1844,0.6236,-0.3984
0.021,-0.049,-0.011,23.4,-12.6,8.4,0,2018,5,17,22,14,55.418,-0.6449,-0.1843,0.627,-0.396
0.06,0.026,-0.075,26.1,-15.2,13.7,0,2018,5,17,22,14,55.432,-0.6431,-0.1855,0.6307,-0.3925
0.074,0.025,-0.004,30.9,-21.5,12.6,0,2018,5,17,22,14,55.449,-0.6413,-0.1871,0.635,-0.3877
0.092,-0.002,0.067,34.5,-13.9,11.6,0,2018,5,17,22,14,55.471,-0.6392,-0.1884,0.6393,-0.3834
-0.033,-0.041,0.109,34,-0.7,12.1,0,2018,5,17,22,14,55.49,-0.6369,-0.1908,0.6425,-0.3807
-0.124,0.017,0.097,33.9,8.7,8.5,0,2018,5,17,22,14,55.511,-0.6341,-0.1948,0.645,-0.3791
-0.103,0.073,-0.007,29.5,9,-5.1,0,2018,5,17,22,14,55.549,-0.6308,-0.1984,0.6475,-0.3787
-0.168,0.045,0.021,19.5,12,-16.4,0,2018,5,17,22,14,55.572,-0.6273,-0.2003,0.6495,-0.38
-0.102,0.02,0.028,10.9,10.4,-23.3,0,2018,5,17,22,14,55.577,-0.624,-0.2006,0.6509,-0.3827
-0.036,-0.03,0.039,4.5,6.9,-25.8,0,2018,5,17,22,14,55.593,-0.6213,-0.1993,0.652,-0.386
-0.009,0.011,0.021,0.7,9.1,-25.3,0,2018,5,17,22,14,55.616,-0.619,-0.1971,0.6525,-0.3898
0.01,0.035,0.043,-1.9,11.8,-26.8,0,2018,5,17,22,14,55.631,-0.6173,-0.1954,0.6523,-0.3938
-0.017,0.026,0.024,-1.9,12.6,-30.2,1023,2018,5,17,22,14,55.667,-0.6155,-0.1935,0.6519,-0.3983
-0.009,0.076,0.009,-0.2,12.6,-33,1023,2018,5,17,22,14,55.689,-0.6132,-0.1914,0.6517,-0.403
-0.01,0.01,0.026,3.4,8.3,-37.3,1023,2018,5,17,22,14,55.694,-0.6104,-0.1889,0.6522,-0.4076
-0.009,-0.004,0.049,6.6,9.8,-40.7,1023,2018,5,17,22,14,55.73,-0.6068,-0.1857,0.6532,-0.4128
0.028,0.043,0.06,8.8,8.5,-41.8,1023,2018,5,17,22,14,55.752,-0.6031,-0.1828,0.6542,-0.4181
0.026,-0.032,0.046,12.8,11.3,-41.7,1023,2018,5,17,22,14,55.757,-0.5987,-0.1795,0.6556,-0.4235
-0.018,-0.033,0.022,12.8,17,-38.7,0,2018,5,17,22,14,55.79,-0.5937,-0.1773,0.657,-0.4292
0.028,0,-0.023,11.6,18.7,-40.4,0,2018,5,17,22,14,55.814,-0.5885,-0.1754,0.6584,-0.4351
0.008,0.004,-0.021,6.5,16.6,-45.9,0,2018,5,17,22,14,55.818,-0.5837,-0.1731,0.6592,-0.4412
-0.005,0.016,-0.056,-2.1,16.7,-47.9,0,2018,5,17,22,14,55.835,-0.5794,-0.1699,0.6594,-0.4476
-0.081,-0.03,-0.013,-9.3,18.1,-51.8,0,2018,5,17,22,14,55.857,-0.5753,-0.1653,0.6592,-0.4548
-0.085,-0.02,-0.049,-11.8,16.5,-57.9,0,2018,5,17,22,14,55.875,-0.5714,-0.16,0.6587,-0.4624
-0.043,0.118,0.032,-12.4,13.5,-62.1,0,2018,5,17,22,14,55.898,-0.5676,-0.1542,0.6579,-0.4701
0.061,0.124,-0.04,-13.2,3.2,-63.7,0,2018,5,17,22,14,55.914,-0.5643,-0.1475,0.6574,-0.4769
-0.064,-0.116,0.13,-10.9,4.7,-67.3,0,2018,5,17,22,14,55.933,-0.5602,-0.1388,0.6574,-0.4843
-0.156,0.021,0.201,-10.5,14,-69.9,0,2018,5,17,22,14,55.956,-0.5557,-0.131,0.6566,-0.4927
-0.079,0.106,0.151,-13.8,11.3,-72.8,0,2018,5,17,22,14,55.974,-0.5506,-0.1229,0.6558,-0.5015
-0.096,0.032,0.202,-18.8,10.1,-77.5,0,2018,5,17,22,14,55.997,-0.5455,-0.1138,0.655,-0.5102
-0.121,-0.018,0.201,-25.4,5.8,-79.8,0,2018,5,17,22,14,56.015,-0.5408,-0.1037,0.6536,-0.519
-0.092,0.087,0.209,-29.4,6.2,-82,0,2018,5,17,22,14,56.038,-0.5363,-0.0923,0.652,-0.5277
-0.031,0.07,0.205,-32.6,12.2,-77.3,0,2018,5,17,22,14,56.073,-0.5323,-0.0812,0.6496,-0.5366
-0.016,0.089,0.207,-38.2,26.3,-63.1,0,2018,5,17,22,14,56.097,-0.5292,-0.0719,0.6452,-0.5461
0.328,0.488,1.01,-80.6,66,-31.2,0,2018,5,17,22,14,56.102,-0.5306,-0.0647,0.6371,-0.5552
0.328,0.399,0.455,-111.4,83.6,3.6,0,2018,5,17,22,14,56.114,-0.5386,-0.06,0.6208,-0.5663
0.171,-0.068,-0.016,-121.5,71.3,8,0,2018,5,17,22,14,56.151,-0.5512,-0.057,0.6015,-0.5753
0.374,-0.41,-0.323,-123.7,67.3,-7,0,2018,5,17,22,14,56.173,-0.5633,-0.051,0.5828,-0.5833
0.439,-0.849,-0.305,-123.5,151.3,-28.7,0,2018,5,17,22,14,56.178,-0.5726,-0.0466,0.5602,-0.5967
0.33,-0.136,-0.224,-125.5,226.8,-7.4,0,2018,5,17,22,14,56.214,-0.5807,-0.0518,0.5268,-0.6184
0.232,0.166,-0.106,-129.9,240.4,4.3,1023,2018,5,17,22,14,56.237,-0.5897,-0.0615,0.4875,-0.6408
0.15,0.091,-0.141,-128.7,251.3,7.5,1023,2018,5,17,22,14,56.242,-0.598,-0.0725,0.4454,-0.6623
-0.021,0.206,-0.226,-124.9,233.7,12.9,1023,2018,5,17,22,14,56.258,-0.605,-0.0836,0.4037,-0.681
-0.182,0.094,-0.242,-109.6,235.3,17.4,1023,2018,5,17,22,14,56.282,-0.6109,-0.0947,0.3635,-0.6968
-0.286,0.52,-0.278,-97.8,229.1,32.4,1023,2018,5,17,22,14,56.298,-0.6161,-0.1081,0.3232,-0.7099
-0.454,0.471,-0.378,-63.1,240.9,42.7,1023,2018,5,17,22,14,56.32,-0.6206,-0.1254,0.2844,-0.7197
-0.329,-0.533,0,-46.3,209,16.8,1023,2018,5,17,22,14,56.339,-0.6214,-0.1456,0.2492,-0.7283
0.045,-0.354,0.263,-60.3,132.2,31,1023,2018,5,17,22,14,56.363,-0.6219,-0.1587,0.2206,-0.7343
-0.259,-0.043,0.266,-69.5,22.9,33,1023,2018,5,17,22,14,56.378,-0.6267,-0.1597,0.203,-0.735
-0.082,-0.51,0.231,-67.6,23.1,14.6,1023,2018,5,17,22,14,56.396,-0.6316,-0.1528,0.1933,-0.735
0.191,-0.202,0.263,-68.7,79.8,37.6,1023,2018,5,17,22,14,56.418,-0.6351,-0.1513,0.1781,-0.7361
0.099,0.29,0.409,-76.8,59.5,49.8,1023,2018,5,17,22,14,56.456,-0.6408,-0.1529,0.1588,-0.7353
0.178,0.443,0.48,-111.2,-55.9,52.9,1023,2018,5,17,22,14,56.478,-0.6498,-0.1423,0.1464,-0.7321
0.103,0.464,0.154,-128.2,-168.9,59.8,1023,2018,5,17,22,14,56.483,-0.6627,-0.1141,0.1464,-0.7254
-0.132,-0.002,0.03,-141.9,-230.3,36.2,1023,2018,5,17,22,14,56.499,-0.6762,-0.075,0.1553,-0.7162
0.094,-0.522,-0.13,-130.6,-209.9,12.1,1023,2018,5,17,22,14,56.521,-0.6848,-0.0309,0.1673,-0.7085
-0.001,-0.648,-0.188,-97.1,-118.6,4.1,1023,2018,5,17,22,14,56.54,-0.6895,0.0021,0.1738,-0.703
-0.073,-0.519,-0.151,-72.3,-59.2,-10.6,0,2018,5,17,22,14,56.563,-0.6915,0.0224,0.1739,-0.7007
-0.051,-0.348,-0.187,-50.9,-33.7,-23.1,0,2018,5,17,22,14,56.58,-0.6909,0.0358,0.1718,-0.7012
-0.069,0.039,-0.174,-32.3,-18.5,-31.9,0,2018,5,17,22,14,56.602,-0.6885,0.0446,0.17,-0.7036
-0.131,0.538,-0.11,-19.5,-4.5,-23.1,0,2018,5,17,22,14,56.621,-0.6857,0.0497,0.168,-0.7063
-0.226,0.499,-0.101,-8,2.4,-19,0,2018,5,17,22,14,56.643,-0.6835,0.0522,0.1664,-0.7087
-0.164,0.411,-0.172,3.5,27.4,-3.5,0,2018,5,17,22,14,56.663,-0.6821,0.051,0.1641,-0.7106
-0.184,0.452,-0.147,13.7,39.6,15.6,0,2018,5,17,22,14,56.68,-0.6831,0.0453,0.1608,-0.7108
-0.138,0.463,-0.152,20,21.9,24.9,0,2018,5,17,22,14,56.701,-0.6855,0.0389,0.1591,-0.7093
-0.087,0.241,-0.135,26.2,4.2,24.4,0,2018,5,17,22,14,56.72,-0.6881,0.0337,0.1605,-0.7068
0.048,-0.161,-0.216,31.9,-1.7,20.1,0,2018,5,17,22,14,56.742,-0.6899,0.0299,0.1647,-0.7042
0.04,-0.525,-0.245,48.2,56.5,8.1,0,2018,5,17,22,14,56.78,-0.6907,0.0215,0.1667,-0.7032
0.087,-0.475,-0.243,54.9,136.7,-3.7,0,2018,5,17,22,14,56.78,-0.6896,0.003,0.1608,-0.706
-0.056,0.379,0.317,21.2,40.7,-20.5,0,2018,5,17,22,14,56.804,-0.6866,-0.0143,0.1529,-0.7106
-0.067,0.583,0.674,-18.5,-117.7,-20.1,0,2018,5,17,22,14,56.822,-0.684,-0.0082,0.1589,-0.7118
0.124,-0.105,0.309,-25.7,-104.1,-9.3,1023,2018,5,17,22,14,56.844,-0.6832,0.0106,0.1714,-0.7097
0.185,-0.347,0.1,-15.6,-26.1,-10.3,1023,2018,5,17,22,14,56.882,-0.6824,0.0202,0.1763,-0.709
0.197,-0.164,0.089,-5.4,21.3,-6.8,1023,2018,5,17,22,14,56.882,-0.6818,0.0211,0.1747,-0.7099
0.053,-0.026,0.062,-0.9,41.6,-3.4,1023,2018,5,17,22,14,56.906,-0.6814,0.0177,0.17,-0.7116
-0.017,0.043,0.023,-4.5,34.3,-2,1023,2018,5,17,22,14,56.923,-0.6813,0.0133,0.1645,-0.7131
0.014,0.018,-0.019,-9.9,21.7,0,1023,2018,5,17,22,14,56.959,-0.6815,0.0106,0.16,-0.7139
0.046,-0.019,-0.078,-9.8,13.3,0.3,1023,2018,5,17,22,14,56.959,-0.6818,0.0102,0.1567,-0.7144
0.038,0.073,-0.097,-4.2,15.2,-0.2,1023,2018,5,17,22,14,56.981,-0.6821,0.0095,0.1538,-0.7147
-0.01,0.134,-0.05,-0.4,9.6,-1.4,1023,2018,5,17,22,14,57.019,-0.6822,0.0075,0.1513,-0.7152
-0.02,0.135,-0.022,0.3,-0.5,0.5,1023,2018,5,17,22,14,57.042,-0.6822,0.0065,0.1504,-0.7154
-0.027,0.084,-0.023,-0.6,-13.1,1.2,1023,2018,5,17,22,14,57.046,-0.6825,0.0062,0.1507,-0.715
-0.007,0.02,-0.054,-1.3,-22,-0.5,1023,2018,5,17,22,14,57.066,-0.6826,0.0081,0.1529,-0.7145
-0.009,0.032,-0.043,-1.2,-26.5,-1.4,1023,2018,5,17,22,14,57.085,-0.6825,0.011,0.1557,-0.7139
0.107,-0.114,-0.284,12.8,1.4,12.4,1023,2018,5,17,22,14,57.108,-0.6827,0.0132,0.1588,-0.713
-0.12,0.212,0.213,9.4,18.3,3.4,1023,2018,5,17,22,14,57.125,-0.6838,0.0082,0.158,-0.7122
0.057,-0.061,0.126,-5.2,-34.9,-3.1,1023,2018,5,17,22,14,57.148,-0.6834,0.0104,0.1599,-0.7121
0.077,-0.215,-0.048,-1.9,-3.7,1,1023,2018,5,17,22,14,57.166,-0.6834,0.0136,0.162,-0.7116
0.033,-0.088,0.044,-1.8,14.8,-4.2,0,2018,5,17,22,14,57.187,-0.683,0.0132,0.1611,-0.7122
0.012,-0.052,0.025,-0.7,29.6,-0.6,0,2018,5,17,22,14,57.205,-0.6828,0.0114,0.1583,-0.7131
-0.003,0.023,0.007,-3.1,28.3,-0.3,0,2018,5,17,22,14,57.242,-0.6828,0.0081,0.1542,-0.714
0,0.033,-0.01,-2.4,25.5,-0.5,0,2018,5,17,22,14,57.265,-0.6829,0.0051,0.1503,-0.7147
0,0.042,-0.019,-2.9,19.8,-1.2,0,2018,5,17,22,14,57.269,-0.683,0.0024,0.147,-0.7154
0.025,0.026,-0.005,-2.9,16.1,-0.6,0,2018,5,17,22,14,57.287,-0.683,0.0005,0.1441,-0.716
0.042,0.061,-0.023,-1.1,17.9,2.7,0,2018,5,17,22,14,57.306,-0.6831,-0.0012,0.1413,-0.7164
0.054,0.126,-0.006,-1.9,10.1,3.3,0,2018,5,17,22,14,57.329,-0.6836,-0.0035,0.1384,-0.7165
0.058,0.054,-0.009,-1.7,1.7,2.4,0,2018,5,17,22,14,57.346,-0.6842,-0.0042,0.1364,-0.7163
0.038,-0.015,0.011,-0.4,4.4,2.6,0,2018,5,17,22,14,57.368,-0.6846,-0.0041,0.1356,-0.7161
0.029,-0.051,0.02,0.9,12.9,3.1,0,2018,5,17,22,14,57.386,-0.685,-0.0047,0.1345,-0.7159
-0.001,-0.046,0.013,1.5,19.5,2.9,0,2018,5,17,22,14,57.409,-0.6853,-0.0065,0.1327,-0.716
-0.001,0.01,-0.002,1.6,20.4,4.1,0,2018,5,17,22,14,57.426,-0.6856,-0.0091,0.1306,-0.716
0.002,0.05,-0.012,1.7,15.1,3.4,0,2018,5,17,22,14,57.444,-0.6861,-0.012,0.1282,-0.7159
0.015,0.06,-0.024,0.5,4.3,0.9,0,2018,5,17,22,14,57.467,-0.6863,-0.0136,0.1268,-0.7159
0.008,0.076,-0.019,-0.5,-8.1,-0.6,0,2018,5,17,22,14,57.503,-0.6864,-0.0138,0.1265,-0.7159
0.011,0.073,-0.031,-2.1,-20.7,-2.3,0,2018,5,17,22,14,57.526,-0.6864,-0.0123,0.1276,-0.7157
0.015,-0.003,-0.021,-2.3,-25.3,-3.5,1023,2018,5,17,22,14,57.531,-0.6862,-0.0093,0.1301,-0.7156
0.029,-0.022,0.019,-3.1,-20.3,-2.8,1023,2018,5,17,22,14,57.549,-0.6859,-0.0058,0.1325,-0.7154
0.032,-0.03,0.013,-2.6,-13.6,-2.2,1023,2018,5,17,22,14,57.57,-0.6856,-0.003,0.1341,-0.7154
0.02,-0.025,0.006,-1.7,-7.2,-2,1023,2018,5,17,22,14,57.587,-0.6854,-0.0011,0.1351,-0.7154
0.014,-0.005,0,-0.7,-2.3,-1.5,1023,2018,5,17,22,14,57.61,-0.6851,-0.0001,0.1355,-0.7156
0.005,0.016,-0.008,-0.3,-2.7,-1.2,1023,2018,5,17,22,14,57.648,-0.685,0.0001,0.1356,-0.7157
0.005,0.025,-0.005,-0.1,-7,-0.9,1023,2018,5,17,22,14,57.671,-0.6849,0.0006,0.1361,-0.7157
0,0.016,-0.009,-0.5,-11.7,-1.1,1023,2018,5,17,22,14,57.675,-0.6848,0.0016,0.1371,-0.7156
0.001,0.026,-0.012,-1.4,-13.4,-0.6,1023,2018,5,17,22,14,57.689,-0.6847,0.0032,0.1385,-0.7154
0.007,-0.021,0.003,-0.6,-9.3,-0.3,1023,2018,5,17,22,14,57.707,-0.6846,0.0048,0.1399,-0.7152
0.015,-0.017,0.012,-0.6,-4.4,-0.7,1023,2018,5,17,22,14,57.73,-0.6846,0.0058,0.1406,-0.7151
0.015,-0.013,0.005,-0.2,1.3,-0.8,1023,2018,5,17,22,14,57.748,-0.6845,0.0063,0.1407,-0.7152
0.014,0.003,-0.01,0,3.7,-0.8,1023,2018,5,17,22,14,57.77,-0.6844,0.006,0.1403,-0.7154
0.007,0.023,-0.012,0,2.4,-0.6,1023,2018,5,17,22,14,57.788,-0.6843,0.0056,0.1397,-0.7156
0.006,0.03,-0.014,-0.1,-1.2,-0.8,1023,2018,5,17,22,14,57.81,-0.6842,0.0054,0.1394,-0.7157
0.008,0.023,-0.005,-0.5,-4.8,-0.9,1023,2018,5,17,22,14,57.848,-0.6842,0.0057,0.1395,-0.7157
0.017,0.01,0.002,-0.8,-5,-0.8,1023,2018,5,17,22,14,57.87,-0.6841,0.0064,0.1399,-0.7157
0.017,0.004,0.002,-0.9,-3.1,-0.9,1023,2018,5,17,22,14,57.872,-0.684,0.0071,0.1402,-0.7157
0.022,-0.004,0.005,-0.9,-0.7,-1.2,0,2018,5,17,22,14,57.894,-0.6839,0.0077,0.1402,-0.7158
0.012,0.014,0.005,-1,0.3,-1.5,0,2018,5,17,22,14,57.93,-0.6838,0.0079,0.1399,-0.716
0,0.003,-0.006,-2,-1.5,-2.9,0,2018,5,17,22,14,57.93,-0.6835,0.0082,0.1397,-0.7163
0.016,-0.002,-0.003,-2.3,-1.5,-3.4,0,2018,5,17,22,14,57.954,-0.6832,0.0088,0.1396,-0.7166
0.007,0.001,-0.011,-1.7,0.6,-2.5,0,2018,5,17,22,14,57.97,-0.6828,0.0092,0.1394,-0.717
0.013,0.005,-0.007,-1,1,-1.7,0,2018,5,17,22,14,58.008,-0.6826,0.0094,0.139,-0.7173
0.015,0.002,0,-0.2,2.4,-0.4,0,2018,5,17,22,14,58.031,-0.6825,0.0094,0.1386,-0.7175
0.008,0.005,0,0.5,4.3,0.2,0,2018,5,17,22,14,58.036,-0.6825,0.009,0.1381,-0.7176
0.004,0.006,-0.005,0.9,5.2,0.4,0,2018,5,17,22,14,58.069,-0.6825,0.0083,0.1375,-0.7177
0,0.012,-0.015,0.4,5.2,0.6,0,2018,5,17,22,14,58.093,-0.6826,0.0075,0.1369,-0.7177
0,0.016,-0.006,0,4.1,0.6,0,2018,5,17,22,14,58.098,-0.6827,0.0068,0.1362,-0.7178
0.007,0.016,-0.009,-0.3,2,0.1,0,2018,5,17,22,14,58.112,-0.6827,0.0064,0.1357,-0.7178
0.008,0.014,-0.007,-0.2,0.7,0.1,0,2018,5,17,22,14,58.152,-0.6828,0.0062,0.1354,-0.7178
0.012,0.002,-0.003,0,0,0,0,2018,5,17,22,14,58.175,-0.6828,0.0061,0.1352,-0.7179
0.011,0.002,-0.006,0.1,0.9,0,0,2018,5,17,22,14,58.179,-0.6828,0.0062,0.1351,-0.7179
0.009,0.008,-0.006,0,1.2,0.2,0,2018,5,17,22,14,58.193,-0.6828,0.0061,0.1348,-0.7179
0.007,0.012,-0.001,-0.2,0.7,0.1,0,2018,5,17,22,14,58.229,-0.6829,0.0059,0.1345,-0.7179
0.01,0.013,-0.002,-0.1,0.5,0.1,0,2018,5,17,22,14,58.229,-0.6829,0.0058,0.1343,-0.7179
0.007,0.012,-0.006,0,0,0,0,2018,5,17,22,14,58.251,-0.6829,0.0058,0.1341,-0.718
0.008,0.005,-0.006,-0.3,-0.9,-0.3,1023,2018,5,17,22,14,58.287,-0.6829,0.0058,0.1341,-0.718
0.006,0.01,-0.005,-0.4,-1.4,-0.1,1023,2018,5,17,22,14,58.308,-0.6829,0.0061,0.1341,-0.718
0.005,0.008,-0.008,-0.1,-2.5,-0.3,1023,2018,5,17,22,14,58.314,-0.6829,0.0063,0.1342,-0.718
0.007,0.001,-0.004,0,-2.6,0,1023,2018,5,17,22,14,58.351,-0.6828,0.0067,0.1345,-0.7179
0.005,0.001,-0.004,0,-1.4,0,1023,2018,5,17,22,14,58.371,-0.6828,0.0069,0.1347,-0.7179
0.001,0.001,0,-0.3,-0.9,-0.1,1023,2018,5,17,22,14,58.376,-0.6828,0.0071,0.1348,-0.7179
0.007,0.008,-0.005,0,0,0,1023,2018,5,17,22,14,58.413,-0.6828,0.0072,0.1348,-0.7179
0.002,0.005,-0.009,-0.4,-1.1,-0.3,1023,2018,5,17,22,14,58.435,-0.6828,0.0073,0.1348,-0.7179
0.008,-0.001,-0.007,-0.5,-1.7,-0.2,1023,2018,5,17,22,14,58.436,-0.6828,0.0075,0.1349,-0.7179
0.008,-0.004,0,0,0,0,1023,2018,5,17,22,14,58.454,-0.6828,0.0078,0.135,-0.7179
0.008,-0.002,-0.006,0,1,0.4,1023,2018,5,17,22,14,58.474,-0.6828,0.0079,0.1349,-0.7179
0.008,0.003,-0.006,0.4,2.8,0.4,1023,2018,5,17,22,14,58.51,-0.6828,0.0076,0.1346,-0.7179
0.007,0.011,-0.007,0.4,2.6,0.1,1023,2018,5,17,22,14,58.531,-0.6829,0.0072,0.1343,-0.718
0.007,0.014,-0.007,-0.1,1.5,0,1023,2018,5,17,22,14,58.534,-0.6829,0.0069,0.1339,-0.718
0.004,0.014,-0.01,-0.6,0,-0.3,1023,2018,5,17,22,14,58.568,-0.6829,0.0068,0.1336,-0.7181
0.005,0.012,-0.012,-0.8,-1.7,-0.5,1023,2018,5,17,22,14,58.589,-0.6829,0.0069,0.1335,-0.7181
0.005,0.009,-0.005,-0.6,-3.3,-0.4,1023,2018,5,17,22,14,58.597,-0.6828,0.0073,0.1337,-0.7181
0.004,0,-0.002,-0.3,-3.4,-0.4,1023,2018,5,17,22,14,58.635,-0.6828,0.0078,0.134,-0.7181
0.007,-0.008,-0.001,-0.1,-1.2,0,1023,2018,5,17,22,14,58.656,-0.6827,0.0083,0.1343,-0.7181
0.002,-0.002,-0.002,0.2,0.6,0,1023,2018,5,17,22,14,58.657,-0.6827,0.0084,0.1343,-0.7181
0.005,0.005,-0.007,0.1,1.3,0.4,1023,2018,5,17,22,14,58.695,-0.6828,0.0082,0.1342,-0.7181
0.004,0.008,-0.003,0,0.7,0.1,0,2018,5,17,22,14,58.716,-0.6828,0.008,0.134,-0.7181
0.001,0.009,-0.011,0,0,0,0,2018,5,17,22,14,58.718,-0.6828,0.008,0.1339,-0.7181
0.007,0.01,-0.006,0,0,0,0,2018,5,17,22,14,58.754,-0.6828,0.0079,0.1339,-0.7181
0.007,0.017,-0.009,0.3,-1.2,0.2,0,2018,5,17,22,14,58.775,-0.6829,0.0079,0.1339,-0.718
0.007,0.001,-0.007,0.7,-1.5,0.2,0,2018,5,17,22,14,58.778,-0.6829,0.008,0.1341,-0.718
0.004,-0.003,-0.002,0.7,-0.8,0.4,0,2018,5,17,22,14,58.813,-0.6829,0.0081,0.1344,-0.7179
0,-0.006,-0.005,0,0,0,0,2018,5,17,22,14,58.836,-0.6829,0.0081,0.1345,-0.7179
0.005,0.003,-0.004,0.1,0.7,0.2,0,2018,5,17,22,14,58.838,-0.6829,0.0081,0.1345,-0.7179
0.006,0.01,-0.008,0,0,0,0,2018,5,17,22,14,58.873,-0.683,0.008,0.1343,-0.7178
0.005,0.004,-0.005,0.1,-0.6,0.1,0,2018,5,17,22,14,58.896,-0.683,0.008,0.1343,-0.7178
0.005,0.001,-0.002,0,0,0,0,2018,5,17,22,14,58.902,-0.683,0.008,0.1343,-0.7178
0.002,-0.002,-0.003,0,0.6,0.3,0,2018,5,17,22,14,58.919,-0.683,0.008,0.1343,-0.7178
0.005,0.002,-0.009,0,1,0.4,0,2018,5,17,22,14,58.942,-0.683,0.0079,0.1342,-0.7178
0.001,0.007,-0.008,-0.1,0.7,0,0,2018,5,17,22,14,58.959,-0.6831,0.0078,0.134,-0.7178
0,0.011,-0.008,0,0,0,0,2018,5,17,22,14,58.976,-0.6831,0.0077,0.1339,-0.7178
0.006,0.005,-0.008,-0.4,-1.8,-0.3,1023,2018,5,17,22,14,58.998,-0.683,0.0079,0.1339,-0.7179
0.007,-0.001,-0.008,-0.3,-2.5,0,1023,2018,5,17,22,14,59.037,-0.683,0.0082,0.1341,-0.7178
0.005,-0.002,-0.005,0.1,-1.7,-0.1,1023,2018,5,17,22,14,59.059,-0.683,0.0085,0.1344,-0.7178
0.001,-0.004,-0.001,0,0,0,1023,2018,5,17,22,14,59.064,-0.683,0.0087,0.1345,-0.7178
0.001,0.003,0,0,0.7,0,1023,2018,5,17,22,14,59.079,-0.6829,0.0087,0.1345,-0.7178
0,0,-0.002,-0.2,1.2,0.1,1023,2018,5,17,22,14,59.102,-0.683,0.0085,0.1344,-0.7178
0.005,0.003,-0.013,0,0.8,0.1,1023,2018,5,17,22,14,59.139,-0.683,0.0084,0.1342,-0.7179
0.005,0.005,-0.005,0,0,0,1023,2018,5,17,22,14,59.139,-0.683,0.0084,0.1341,-0.7179
0.007,0.007,-0.006,0,0,0,1023,2018,5,17,22,14,59.164,-0.683,0.0084,0.134,-0.7179
0.004,0.008,-0.007,0,0,0,1023,2018,5,17,22,14,59.182,-0.683,0.0084,0.134,-0.7179
0.004,0.004,-0.008,0,-0.5,0,1023,2018,5,17,22,14,59.205,-0.683,0.0084,0.1339,-0.7179
0,0.002,-0.006,0,-0.9,0.1,1023,2018,5,17,22,14,59.225,-0.683,0.0085,0.134,-0.7179
0.006,0.001,-0.004,0,0,0,1023,2018,5,17,22,14,59.244,-0.683,0.0086,0.134,-0.7178
0.003,0.003,-0.003,0,0,0,1023,2018,5,17,22,14,59.267,-0.683,0.0086,0.134,-0.7178
0.003,-0.002,-0.005,0,0,0,1023,2018,5,17,22,14,59.282,-0.683,0.0086,0.134,-0.7178
0.001,-0.001,-0.005,0.2,0.5,0.4,0,2018,5,17,22,14,59.301,-0.6831,0.0086,0.134,-0.7178
0.001,0.002,-0.006,0.3,1,0.2,0,2018,5,17,22,14,59.323,-0.6831,0.0084,0.1339,-0.7178
0.004,0.003,-0.004,0.2,0.9,0.2,0,2018,5,17,22,14,59.36,-0.6831,0.0083,0.1338,-0.7178
0.003,0.005,-0.008,0.3,1,0.4,0,2018,5,17,22,14,59.383,-0.6832,0.0081,0.1337,-0.7178
0,0.005,-0.007,0.5,0.9,0.6,0,2018,5,17,22,14,59.387,-0.6832,0.0079,0.1336,-0.7177
0.003,0.007,-0.009,0.3,0.9,0.5,0,2018,5,17,22,14,59.406,-0.6833,0.0077,0.1335,-0.7177
0.003,0.007,-0.006,0.7,0.4,0.6,0,2018,5,17,22,14,59.424,-0.6834,0.0075,0.1334,-0.7176
0.002,0,-0.007,0.6,0.2,0.5,0,2018,5,17,22,14,59.446,-0.6834,0.0074,0.1335,-0.7176
0.001,0.005,-0.006,0.7,0.2,0.4,0,2018,5,17,22,14,59.464,-0.6835,0.0072,0.1335,-0.7175
0.004,0.005,-0.007,0,0,0,0,2018,5,17,22,14,59.484,-0.6835,0.0072,0.1335,-0.7175
0.004,0.006,-0.008,0,0,0,0,2018,5,17,22,14,59.506,-0.6835,0.0072,0.1335,-0.7175
0.002,0,-0.006,0,0,0,0,2018,5,17,22,14,59.525,-0.6835,0.0072,0.1335,-0.7175
0.001,0,-0.003,0,0,0,0,2018,5,17,22,14,59.543,-0.6835,0.0072,0.1335,-0.7175
0.001,0.005,-0.005,0.2,-0.5,0.3,0,2018,5,17,22,14,59.565,-0.6835,0.0072,0.1335,-0.7175
0.003,0.002,-0.007,0,0,0,0,2018,5,17,22,14,59.584,-0.6836,0.0072,0.1335,-0.7174
-0.002,0,-0.007,0,0,0,0,2018,5,17,22,14,59.604,-0.6836,0.0072,0.1336,-0.7174
0.001,0,-0.007,0.4,0,0.5,0,2018,5,17,22,14,59.622,-0.6836,0.0071,0.1336,-0.7174
0.004,0.002,-0.009,0,0,0,0,2018,5,17,22,14,59.643,-0.6836,0.0071,0.1336,-0.7173
0.003,0.009,-0.011,0,0,0,0,2018,5,17,22,14,59.68,-0.6837,0.0071,0.1336,-0.7173
0.002,0.012,-0.01,0.2,-0.5,0.2,0,2018,5,17,22,14,59.704,-0.6837,0.007,0.1336,-0.7173
0.004,0,-0.015,0,-0.5,0.8,0,2018,5,17,22,14,59.709,-0.6837,0.0071,0.1336,-0.7173
0.005,0,-0.014,0.1,-0.4,1.3,0,2018,5,17,22,14,59.723,-0.6839,0.0071,0.1336,-0.7171
0,0.011,-0.004,0.3,-1.2,1.2,1023,2018,5,17,22,14,59.761,-0.684,0.0071,0.1338,-0.7169
0.004,0,0.001,0,-0.4,1.6,1023,2018,5,17,22,14,59.782,-0.6842,0.0072,0.1339,-0.7167
0.007,-0.007,-0.005,-1,0.4,2,1023,2018,5,17,22,14,59.785,-0.6845,0.0073,0.1338,-0.7165
0.012,-0.013,-0.005,-1.1,1,1.8,1023,2018,5,17,22,14,59.821,-0.6847,0.0075,0.1336,-0.7163
-0.003,0.005,0,-0.5,2.6,1.5,1023,2018,5,17,22,14,59.845,-0.685,0.0073,0.1333,-0.7161
0.003,0,0.001,-1.2,4.7,2.4,1023,2018,5,17,22,14,59.849,-0.6852,0.007,0.1327,-0.716
0.021,0.002,-0.009,-0.7,5.3,3.1,1023,2018,5,17,22,14,59.866,-0.6856,0.0065,0.1319,-0.7158
0.007,-0.006,0.012,0.2,7.4,3.3,0,2018,5,17,22,14,59.888,-0.686,0.0059,0.131,-0.7156
0.014,-0.015,-0.025,0.4,10.6,4.1,0,2018,5,17,22,14,59.906,-0.6864,0.0048,0.1299,-0.7154
0.009,-0.006,-0.022,0.7,10.2,3.3,0,2018,5,17,22,14,59.929,-0.6869,0.0035,0.1286,-0.7152
0.005,-0.029,0.026,2.1,14.4,2.3,0,2018,5,17,22,14,59.947,-0.6872,0.002,0.1274,-0.7151
0.014,-0.034,0.029,2,22.6,2.9,0,2018,5,17,22,14,59.97,-0.6874,-0.0002,0.1254,-0.7153
0.02,-0.029,-0.012,2.5,24.9,3,0,2018,5,17,22,14,59.986,-0.6877,-0.0032,0.1227,-0.7154
0.068,-0.019,-0.018,6.4,22.9,0.9,0,2018,5,17,22,15,0.004,-0.6879,-0.0062,0.1201,-0.7157
0.091,-0.016,0.038,13,22.4,0.1,0,2018,5,17,22,15,0.026,-0.6877,-0.0094,0.118,-0.7162
0.065,-0.044,0.055,19.5,31.4,3.7,0,2018,5,17,22,15,0.045,-0.6875,-0.0139,0.1162,-0.7166
0.052,-0.042,0.027,26.7,43.5,9.7,0,2018,5,17,22,15,0.067,-0.6877,-0.0208,0.114,-0.7166
0.006,-0.059,-0.012,36,49,16.5,0,2018,5,17,22,15,0.105,-0.6885,-0.0303,0.1119,-0.7158
-0.063,-0.022,-0.005,80.4,56,36.8,0,2018,5,17,22,15,0.105,-0.6963,-0.0873,0.1131,-0.7033
-0.038,0.033,-0.06,93.6,55.6,41.5,0,2018,5,17,22,15,0.129,-0.6982,-0.1062,0.1166,-0.6982
-0.003,0.133,0.083,103.2,43,42.9,0,2018,5,17,22,15,0.164,-0.7004,-0.126,0.1212,-0.6919
-0.003,-0.041,0.13,106.4,36.2,42.4,0,2018,5,17,22,15,0.186,-0.7024,-0.1441,0.1281,-0.685
-0.076,-0.101,0.09,108.6,53.8,42.4,0,2018,5,17,22,15,0.191,-0.7037,-0.1626,0.1355,-0.6782
-0.028,0.023,0.019,109.3,73.8,43.8,0,2018,5,17,22,15,0.208,-0.7039,-0.1842,0.1407,-0.6712
0.017,0.051,0.009,109,91.7,41.5,0,2018,5,17,22,15,0.245,-0.7035,-0.2084,0.1426,-0.6642
0.036,0.025,-0.01,105.9,96.2,38.4,0,2018,5,17,22,15,0.268,-0.7019,-0.2339,0.1427,-0.6573
-0.049,0.145,-0.082,104,83.1,30.4,0,2018,5,17,22,15,0.272,-0.6993,-0.2582,0.1434,-0.6508
-0.008,0.03,-0.128,95,39.3,13.9,0,2018,5,17,22,15,0.289,-0.6964,-0.2779,0.1478,-0.6448
-0.058,-0.035,-0.064,82.2,15.4,7.5,0,2018,5,17,22,15,0.326,-0.6936,-0.2918,0.1559,-0.6398
-0.073,-0.042,-0.033,69.2,-2.2,10.6,0,2018,5,17,22,15,0.326,-0.6918,-0.3013,0.1646,-0.6351
-0.18,-0.08,-0.112,50.9,-32.4,15.2,1023,2018,5,17,22,15,0.352,-0.6923,-0.3065,0.1735,-0.6298
-0.245,-0.036,-0.207,31.8,-69.5,2.4,1023,2018,5,17,22,15,0.387,-0.6948,-0.305,0.1834,-0.6248
-0.278,0.112,-0.348,16.2,-78.4,-10.6,1023,2018,5,17,22,15,0.409,-0.6974,-0.2972,0.1957,-0.6219
-0.653,0.087,-0.335,24.2,-60.1,-44.3,1023,2018,5,17,22,15,0.415,-0.698,-0.2914,0.2058,-0.6208
-0.802,-0.243,-0.563,35.4,-13.8,-84.5,1023,2018,5,17,22,15,0.43,-0.6923,-0.2865,0.218,-0.6252
-0.931,0.23,-0.458,37.6,-88.1,-128.9,1023,2018,5,17,22,15,0.45,-0.6812,-0.2833,0.2316,-0.6339
-0.746,-0.056,-0.566,27.3,-176.2,-137.5,1023,2018,5,17,22,15,0.468,-0.6715,-0.2632,0.2585,-0.6425
-0.825,-0.411,-0.375,41.1,-156.8,-158.4,1023,2018,5,17,22,15,0.491,-0.6609,-0.2405,0.2876,-0.65
-0.494,-1.151,-0.575,75.5,-111.5,-200.9,1023,2018,5,17,22,15,0.509,-0.6426,-0.2218,0.317,-0.6611
-0.016,-1.034,-0.623,134.3,-15.7,-213.7,1023,2018,5,17,22,15,0.533,-0.6141,-0.2151,0.344,-0.6769
0.354,-0.304,-0.427,181.1,39.5,-187.9,1023,2018,5,17,22,15,0.549,-0.5794,-0.2242,0.3658,-0.6928
0.52,0,-0.009,202.9,-4.4,-194.8,1023,2018,5,17,22,15,0.573,-0.5425,-0.2373,0.3901,-0.705
0.614,0.395,0.469,198.6,-68.1,-181.7,1023,2018,5,17,22,15,0.591,-0.5063,-0.2455,0.4217,-0.7109
0.405,0.65,0.764,167.8,-86.4,-128.3,1023,2018,5,17,22,15,0.613,-0.4762,-0.2495,0.4545,-0.7101
0.472,1.316,1.317,120.1,-102.5,-87.2,0,2018,5,17,22,15,0.631,-0.4555,-0.2506,0.4825,-0.7048
0.657,1.257,1.166,77.5,-99.6,-49.9,0,2018,5,17,22,15,0.654,-0.4433,-0.2475,0.5064,-0.6968
0.689,1.216,1.036,51.7,-25.5,13.4,0,2018,5,17,22,15,0.672,-0.4383,-0.2487,0.5198,-0.6897
0.323,0.583,0.256,25.9,46.2,58.5,0,2018,5,17,22,15,0.696,-0.4395,-0.2588,0.5181,-0.6865
-0.17,-0.375,0.034,44.8,80.6,47.9,0,2018,5,17,22,15,0.713,-0.44,-0.2714,0.5112,-0.6865
-0.253,-0.875,-0.121,67.1,41.1,6.3,0,2018,5,17,22,15,0.73,-0.4349,-0.287,0.5064,-0.6869
-0.645,0.137,0.228,33.4,67.9,33,0,2018,5,17,22,15,0.753,-0.43,-0.2998,0.5019,-0.6878
-0.695,0.171,-0.014,-9.2,22.3,34.2,0,2018,5,17,22,15,0.771,-0.431,-0.3076,0.4958,-0.6882
-0.076,0.034,-0.064,-32,14.4,37.9,0,2018,5,17,22,15,0.793,-0.4364,-0.3089,0.4905,-0.688
0.167,-0.059,0.008,-30.8,19.4,42.1,0,2018,5,17,22,15,0.811,-0.443,-0.3099,0.4841,-0.6879
0.039,-0.034,0.079,-30.5,13,39.3,0,2018,5,17,22,15,0.833,-0.4494,-0.3107,0.4775,-0.688
-0.067,-0.032,0.084,-28.8,2.8,38.4,0,2018,5,17,22,15,0.87,-0.4561,-0.3104,0.4719,-0.6876
0.023,0.057,0.013,-23.7,0.4,37.7,0,2018,5,17,22,15,0.892,-0.4629,-0.31,0.4671,-0.6864
-0.036,0.025,0.08,-18.1,-7.3,36.5,0,2018,5,17,22,15,0.897,-0.4698,-0.3106,0.4632,-0.6842
-0.077,0.026,0.017,-13.5,-10.1,41.2,0,2018,5,17,22,15,0.911,-0.4764,-0.311,0.4607,-0.6811
-0.064,0.001,0.045,-13.7,-21,41.1,0,2018,5,17,22,15,0.93,-0.4835,-0.3115,0.4589,-0.6771
0.014,0.02,-0.028,-13.4,-34.7,45.8,0,2018,5,17,22,15,0.953,-0.4911,-0.3108,0.4586,-0.6721
-0.001,-0.005,0,-14.5,-45.6,48.2,1023,2018,5,17,22,15,0.971,-0.4999,-0.3094,0.4595,-0.6657
0.018,0.002,0.013,-13.5,-53.1,53.4,1023,2018,5,17,22,15,0.993,-0.5097,-0.3076,0.4609,-0.658
0.009,-0.125,0.05,-14.3,-50.5,58.8,1023,2018,5,17,22,15,1.031,-0.5201,-0.3057,0.4626,-0.6495
-0.007,-0.054,0.04,-12.8,-34.9,58.7,1023,2018,5,17,22,15,1.031,-0.53,-0.3047,0.4628,-0.6418
0.074,0.033,-0.051,-3.7,-32,52.7,1023,2018,5,17,22,15,1.055,-0.5388,-0.3051,0.4629,-0.6342
-0.003,0.009,-0.021,3.3,-22.6,44.1,1023,2018,5,17,22,15,1.073,-0.5454,-0.3059,0.4632,-0.6279
-0.001,0.114,-0.053,5.4,-24.4,38.9,1023,2018,5,17,22,15,1.096,-0.551,-0.3082,0.4635,-0.6216
0.055,-0.016,-0.087,8.4,-26.4,32.4,1023,2018,5,17,22,15,1.116,-0.5558,-0.3099,0.4649,-0.6154
0.037,-0.047,0.033,17.3,-20.1,31.6,1023,2018,5,17,22,15,1.138,-0.5593,-0.3115,0.4674,-0.6095
0.016,-0.087,0.053,26.3,-12,29.3,1023,2018,5,17,22,15,1.157,-0.5613,-0.3141,0.4703,-0.6041
-0.037,0.079,0.037,36.4,-7.8,24.4,1023,2018,5,17,22,15,1.181,-0.5623,-0.3186,0.4728,-0.5989
0.022,0.116,-0.02,46.3,-13.8,17.4,1023,2018,5,17,22,15,1.198,-0.5618,-0.3238,0.4764,-0.5936
-0.008,0.052,-0.003,52.1,-14,12.9,1023,2018,5,17,22,15,1.221,-0.5602,-0.329,0.4812,-0.5884
-0.014,0.051,-0.004,61.1,-11.4,7.9,1023,2018,5,17,22,15,1.237,-0.5572,-0.3343,0.4875,-0.583
-0.018,0.05,0.046,70.5,-12.5,1.1,1023,2018,5,17,22,15,1.255,-0.5529,-0.3404,0.495,-0.5772
0.028,0.034,0.069,80.9,-17.3,-6.5,1023,2018,5,17,22,15,1.274,-0.5472,-0.3467,0.5037,-0.5713
-0.032,0.034,0.015,91.5,-17.9,-9.5,1023,2018,5,17,22,15,1.296,-0.5401,-0.3533,0.5135,-0.5653
-0.01,-0.058,-0.009,95.3,-19,-12.3,0,2018,5,17,22,15,1.314,-0.5319,-0.3595,0.5244,-0.5591
-0.07,0.019,0.059,102.8,-17.5,-18.4,0,2018,5,17,22,15,1.337,-0.5227,-0.366,0.5359,-0.5526
-0.019,0.056,0.052,107,-23.6,-25.4,0,2018,5,17,22,15,1.356,-0.5122,-0.3726,0.5486,-0.5455
0.038,0.095,-0.022,115.1,-27.8,-26.4,0,2018,5,17,22,15,1.378,-0.501,-0.3787,0.5625,-0.5376
-0.121,-0.09,0.079,113.4,-29,-30.1,0,2018,5,17,22,15,1.417,-0.4893,-0.3841,0.5763,-0.5298
-0.151,0.041,-0.023,108.9,-30.1,-31.5,0,2018,5,17,22,15,1.439,-0.4769,-0.3891,0.5905,-0.5217
-0.109,0.02,0.045,106.1,-32.4,-35.3,0,2018,5,17,22,15,1.444,-0.4653,-0.3929,0.6043,-0.5136
-0.13,0,0.015,102.3,-31.9,-37.1,0,2018,5,17,22,15,1.458,-0.4535,-0.3959,0.6177,-0.5059
-0.139,0.016,0.088,95.4,-36.4,-38.1,0,2018,5,17,22,15,1.476,-0.4423,-0.398,0.6309,-0.4978
-0.184,0.013,0.03,86.3,-41.5,-37.9,0,2018,5,17,22,15,1.499,-0.4324,-0.3989,0.6431,-0.4901
-0.136,0.023,0.052,71.8,-44.9,-36.6,0,2018,5,17,22,15,1.517,-0.4242,-0.3979,0.6544,-0.4829
-0.083,0.125,0.13,69,-40.4,-31.5,0,2018,5,17,22,15,1.54,-0.4165,-0.3968,0.6653,-0.4757
-0.094,0.044,0.195,66,-37.9,-27.1,0,2018,5,17,22,15,1.558,-0.409,-0.3961,0.6753,-0.4686
-0.153,0.004,0.215,59.5,-36.7,-31.3,0,2018,5,17,22,15,1.577,-0.4017,-0.3951,0.6849,-0.4618
-0.178,-0.009,0.254,46.3,-32.1,-37.2,1023,2018,5,17,22,15,1.599,-0.395,-0.3928,0.6936,-0.4564
-0.13,0.095,0.034,44.7,-23.7,-42,1023,2018,5,17,22,15,1.637,-0.3884,-0.3897,0.7013,-0.4531
-0.059,0.263,-0.159,62.6,-15.4,-33.9,1023,2018,5,17,22,15,1.637,-0.3806,-0.3879,0.7091,-0.449
-0.203,0.262,0.106,70,8.5,-33.1,1023,2018,5,17,22,15,1.659,-0.3696,-0.3886,0.7162,-0.4463
-0.237,0.358,0.17,61.6,20.6,-31.2,1023,2018,5,17,22,15,1.697,-0.3576,-0.3905,0.7216,-0.4459
-0.269,0.348,0.239,44.4,28.6,-31.7,1023,2018,5,17,22,15,1.719,-0.3466,-0.3924,0.7249,-0.4474
-0.271,0.34,0.321,21.1,22.1,-31.5,1023,2018,5,17,22,15,1.724,-0.3383,-0.3925,0.7269,-0.4505
-0.211,0.267,0.286,3.3,17.7,-24.7,1023,2018,5,17,22,15,1.74,-0.3334,-0.3904,0.7283,-0.4536
-0.13,0.205,0.289,-4.5,56,-1.9,1023,2018,5,17,22,15,1.758,-0.33,-0.3911,0.7262,-0.4589
-0.031,0.245,0.172,-10.1,80.7,7.9,1023,2018,5,17,22,15,1.779,-0.3264,-0.3949,0.7197,-0.4683
-0.002,0.217,0.072,-10.2,106.3,22.8,1023,2018,5,17,22,15,1.803,-0.3223,-0.4012,0.7105,-0.4797
0.084,0.329,0.243,-25.4,118.4,31.8,1023,2018,5,17,22,15,1.82,-0.3185,-0.4101,0.6975,-0.4937
-0.021,0.373,0.874,-86.5,26.4,0,1023,2018,5,17,22,15,1.855,-0.3203,-0.412,0.6863,-0.5064
0.068,0.745,0.56,-107.9,-82,63.4,1023,2018,5,17,22,15,1.877,-0.3374,-0.4033,0.6818,-0.5084
0.059,0.492,0.191,-105,-161.7,115.6,1023,2018,5,17,22,15,1.881,-0.3674,-0.3981,0.6795,-0.4946
0.088,0.184,0.112,-119.7,-184.7,133.2,1023,2018,5,17,22,15,1.917,-0.4034,-0.3912,0.6785,-0.473
0.18,-0.126,-0.058,-114.5,-155,157.7,1023,2018,5,17,22,15,1.94,-0.4408,-0.3867,0.6736,-0.4498
0.114,-0.276,0.008,-117.7,-128.7,160.2,0,2018,5,17,22,15,1.944,-0.4758,-0.3855,0.6643,-0.4284
0.019,-0.217,0.081,-128.4,-113.8,152.5,0,2018,5,17,22,15,1.962,-0.5093,-0.3844,0.6521,-0.4093
-0.052,-0.223,0.095,-139.2,-86.7,145.5,0,2018,5,17,22,15,1.984,-0.5417,-0.3824,0.6368,-0.3933
-0.065,-0.339,-0.065,-141.3,-63.7,135.8,0,2018,5,17,22,15,2.003,-0.5715,-0.3813,0.6186,-0.381
-0.135,-0.501,-0.119,-133.1,-54,117.3,0,2018,5,17,22,15,2.023,-0.5984,-0.3797,0.6,-0.3709
-0.392,-0.361,0.038,-134,-58.5,95.3,0,2018,5,17,22,15,2.042,-0.6223,-0.3766,0.5822,-0.363
-0.397,-0.198,0.031,-138.7,-95.7,65.5,0,2018,5,17,22,15,2.079,-0.6458,-0.3676,0.5668,-0.3556
-0.334,-0.164,-0.118,-140.3,-149.2,30.4,0,2018,5,17,22,15,2.103,-0.6698,-0.3491,0.5557,-0.3472
-0.383,-0.245,-0.276,-138.4,-196.8,-5.2,0,2018,5,17,22,15,2.107,-0.694,-0.3212,0.5488,-0.3372
-0.442,-0.244,-0.418,-138,-241.1,-41.5,0,2018,5,17,22,15,2.125,-0.7173,-0.284,0.546,-0.3264
-0.461,-0.232,-0.492,-136.9,-261.1,-74.5,0,2018,5,17,22,15,2.143,-0.7386,-0.2386,0.5454,-0.316
-0.363,-0.166,-0.535,-125.5,-283.3,-108,0,2018,5,17,22,15,2.165,-0.7561,-0.1873,0.5466,-0.307
-0.337,-0.171,-0.56,-110.7,-278.8,-136.2,0,2018,5,17,22,15,2.184,-0.7688,-0.1319,0.5492,-0.2997
-0.362,-0.141,-0.534,-87.4,-254.3,-160.7,0,2018,5,17,22,15,2.206,-0.7754,-0.0763,0.5526,-0.2958
-0.398,-0.097,-0.477,-60.4,-199,-174,1023,2018,5,17,22,15,2.227,-0.7757,-0.0256,0.5559,-0.2973
-0.4,-0.052,-0.439,-32.1,-120.2,-177.1,1023,2018,5,17,22,15,2.244,-0.7709,0.015,0.5584,-0.3057
-0.395,0.021,-0.419,-5.3,-32.1,-171.4,1023,2018,5,17,22,15,2.262,-0.7627,0.0429,0.5593,-0.3217
-0.451,0.086,-0.433,17.6,55.7,-158.7,1023,2018,5,17,22,15,2.284,-0.7525,0.0565,0.558,-0.345
-0.446,0.173,-0.445,35.6,129.2,-142.2,1023,2018,5,17,22,15,2.305,-0.7414,0.0568,0.5541,-0.3742
-0.393,0.258,-0.445,49.8,185.6,-122.3,1023,2018,5,17,22,15,2.324,-0.7296,0.0459,0.5475,-0.407
-0.307,0.353,-0.441,61.9,220.4,-101.5,1023,2018,5,17,22,15,2.346,-0.7174,0.0263,0.5386,-0.4409
-0.239,0.427,-0.426,73.2,235.8,-80.3,1023,2018,5,17,22,15,2.364,-0.7044,0.0008,0.5283,-0.4738
-0.161,0.505,-0.398,85.3,231.1,-61,1023,2018,5,17,22,15,2.386,-0.6906,-0.0284,0.5182,-0.5036
-0.103,0.559,-0.361,96.3,201.2,-47.2,1023,2018,5,17,22,15,2.405,-0.676,-0.0577,0.5098,-0.5287
-0.05,0.591,-0.33,106.3,151.1,-35,1023,2018,5,17,22,15,2.427,-0.661,-0.0842,0.5056,-0.5478
-0.001,0.589,-0.288,114.3,86,-21.8,1023,2018,5,17,22,15,2.465,-0.6466,-0.1058,0.5073,-0.5597
0.022,0.566,-0.27,120.8,18.8,-5.3,1023,2018,5,17,22,15,2.487,-0.6337,-0.1219,0.5157,-0.5634
0.016,0.516,-0.218,125,-44.8,14.1,1023,2018,5,17,22,15,2.492,-0.6232,-0.1329,0.5307,-0.5587
-0.014,0.448,-0.163,125,-100,35.1,0,2018,5,17,22,15,2.508,-0.6154,-0.1395,0.551,-0.5459
-0.044,0.391,-0.126,121.1,-144.7,57.1,0,2018,5,17,22,15,2.53,-0.6106,-0.1426,0.5748,-0.5255
-0.086,0.295,-0.083,114,-169.5,81.4,0,2018,5,17,22,15,2.546,-0.6087,-0.1434,0.6,-0.4988
-0.09,0.197,-0.033,105.4,-168.7,106.6,0,2018,5,17,22,15,2.583,-0.6092,-0.1448,0.6238,-0.4676
-0.111,0.11,0.02,96.1,-149.3,129.3,0,2018,5,17,22,15,2.606,-0.6116,-0.1496,0.644,-0.4343
-0.128,0.045,0.062,85.6,-120.7,144.8,0,2018,5,17,22,15,2.61,-0.6155,-0.1583,0.6594,-0.4014
-0.136,0,0.097,75.9,-91.8,153.2,0,2018,5,17,22,15,2.627,-0.6198,-0.1701,0.6704,-0.3706
-0.141,-0.046,0.129,66.7,-67.7,156.6,0,2018,5,17,22,15,2.649,-0.6241,-0.184,0.6775,-0.3426
-0.146,-0.095,0.151,57.2,-49.9,155.8,0,2018,5,17,22,15,2.671,-0.6283,-0.1993,0.6816,-0.3172
-0.147,-0.133,0.184,46.8,-44.1,150.9,0,2018,5,17,22,15,2.689,-0.632,-0.2152,0.6842,-0.2931
-0.144,-0.171,0.194,35,-51.4,142,0,2018,5,17,22,15,2.707,-0.6363,-0.2293,0.6853,-0.2698
-0.138,-0.22,0.186,21.4,-68.2,128.5,0,2018,5,17,22,15,2.73,-0.6415,-0.24,0.6855,-0.2465
-0.105,-0.276,0.187,6,-86.8,110.7,0,2018,5,17,22,15,2.746,-0.6481,-0.2459,0.6852,-0.2231
-0.073,-0.314,0.161,-7.9,-103.3,90.2,0,2018,5,17,22,15,2.765,-0.6562,-0.2467,0.6842,-0.2005
-0.015,-0.341,0.156,-21.2,-115.4,66.2,0,2018,5,17,22,15,2.786,-0.6654,-0.2426,0.6828,-0.1791
0.036,-0.39,0.141,-33.7,-117.5,41.6,0,2018,5,17,22,15,2.824,-0.6752,-0.2341,0.6808,-0.1601
0.106,-0.381,0.103,-43.8,-112.4,16.7,1023,2018,5,17,22,15,2.847,-0.6853,-0.2225,0.678,-0.1448
0.145,-0.413,0.07,-51,-100.4,-5.1,1023,2018,5,17,22,15,2.851,-0.6952,-0.2087,0.6747,-0.1335
0.159,-0.41,0.026,-56.7,-81.6,-25.9,1023,2018,5,17,22,15,2.869,-0.7044,-0.1942,0.6707,-0.1268
0.156,-0.4,-0.008,-60.5,-61.2,-42.3,1023,2018,5,17,22,15,2.907,-0.7129,-0.1799,0.6661,-0.1248
0.152,-0.354,-0.022,-63.6,-43.3,-56,1023,2018,5,17,22,15,2.93,-0.7206,-0.166,0.6609,-0.1271
0.118,-0.315,-0.03,-66.7,-30.6,-68.1,1023,2018,5,17,22,15,2.934,-0.7277,-0.1526,0.6553,-0.1327
0.084,-0.199,-0.081,-71.7,-25.7,-86.2,1023,2018,5,17,22,15,2.953,-0.7409,-0.1246,0.6424,-0.1504
0.083,-0.149,-0.103,-70,-33.1,-93,1023,2018,5,17,22,15,2.971,-0.7471,-0.1087,0.6358,-0.1603
0.045,-0.121,-0.113,-64.8,-40.3,-98.6,1023,2018,5,17,22,15,2.993,-0.7524,-0.0912,0.6297,-0.1699
-0.012,-0.111,-0.12,-56.9,-41.4,-102,1023,2018,5,17,22,15,3.011,-0.7566,-0.0729,0.6244,-0.1795
-0.033,-0.088,-0.13,-46.1,-36.2,-103.6,1023,2018,5,17,22,15,3.034,-0.7593,-0.0549,0.62,-0.1894
-0.019,-0.074,-0.15,-31.7,-23.6,-104.2,1023,2018,5,17,22,15,3.05,-0.7602,-0.0382,0.6167,-0.2003
-0.016,-0.053,-0.146,-14.2,-2.1,-102.8,1023,2018,5,17,22,15,3.069,-0.759,-0.0244,0.6147,-0.2128
-0.023,-0.026,-0.139,3.6,27.7,-100,1023,2018,5,17,22,15,3.091,-0.7556,-0.0148,0.6139,-0.2277
-0.061,0.001,-0.123,19.4,63,-96.4,1023,2018,5,17,22,15,3.109,-0.7494,-0.0107,0.6149,-0.2453
-0.083,0.044,-0.132,32.4,99.1,-93.7,1023,2018,5,17,22,15,3.132,-0.7418,-0.0122,0.6153,-0.2662
-0.072,0.09,-0.147,43.2,130.7,-91,1023,2018,5,17,22,15,3.15,-0.7329,-0.0188,0.6148,-0.2905
-0.112,0.113,-0.137,51.4,161.6,-88,0,2018,5,17,22,15,3.172,-0.7224,-0.0301,0.6133,-0.3175
-0.127,0.164,-0.137,55.2,188.2,-83.4,0,2018,5,17,22,15,3.193,-0.7106,-0.0458,0.6103,-0.3468
-0.144,0.204,-0.154,55.6,207.4,-77.2,0,2018,5,17,22,15,3.216,-0.6978,-0.065,0.6052,-0.3774
-0.123,0.25,-0.184,54.6,214.6,-70.3,0,2018,5,17,22,15,3.234,-0.6842,-0.0865,0.5982,-0.4079
-0.132,0.284,-0.18,54.5,211.5,-63.7,0,2018,5,17,22,15,3.252,-0.67,-0.1087,0.59,-0.4371
-0.165,0.314,-0.16,53.1,200.3,-54.8,0,2018,5,17,22,15,3.275,-0.6555,-0.1306,0.5811,-0.464
-0.16,0.327,-0.149,51.2,181,-45,0,2018,5,17,22,15,3.292,-0.6415,-0.1515,0.5724,-0.4876
-0.148,0.34,-0.151,50.2,153,-37.6,0,2018,5,17,22,15,3.31,-0.6283,-0.1702,0.5646,-0.5073
-0.127,0.341,-0.141,49.8,121.4,-32.4,0,2018,5,17,22,15,3.333,-0.6161,-0.1859,0.5587,-0.523
-0.154,0.338,-0.118,50.4,94.5,-27.6,0,2018,5,17,22,15,3.352,-0.6049,-0.199,0.5552,-0.5349
-0.15,0.32,-0.105,49.2,74.1,-21.4,0,2018,5,17,22,15,3.375,-0.5949,-0.2099,0.5534,-0.5438
-0.132,0.29,-0.115,48.9,58.9,-14.7,0,2018,5,17,22,15,3.395,-0.586,-0.2196,0.5528,-0.5501
-0.094,0.258,-0.101,48.8,51.5,-8.1,0,2018,5,17,22,15,3.413,-0.578,-0.2287,0.553,-0.5546
-0.067,0.232,-0.083,48.1,53.5,-0.8,1023,2018,5,17,22,15,3.436,-0.5709,-0.2382,0.5529,-0.5581
-0.011,0.213,-0.083,46.6,60.6,7.7,1023,2018,5,17,22,15,3.454,-0.5644,-0.2486,0.5518,-0.5613
0.006,0.192,-0.094,46.2,70.1,16.8,1023,2018,5,17,22,15,3.478,-0.5584,-0.2605,0.5492,-0.5644
0.002,0.169,-0.097,46.2,79.9,27,1023,2018,5,17,22,15,3.494,-0.5527,-0.2744,0.5452,-0.5673
-0.023,0.156,-0.09,44.8,86.2,50.6,1023,2018,5,17,22,15,3.517,-0.5434,-0.307,0.5327,-0.5714
-0.015,0.144,-0.074,43.1,75.1,60.5,1023,2018,5,17,22,15,3.535,-0.5405,-0.3241,0.5257,-0.5713
-0.025,0.123,-0.072,40.6,53.1,68.1,1023,2018,5,17,22,15,3.559,-0.5395,-0.34,0.5194,-0.5687
-0.057,0.079,-0.055,37.6,27.3,74.8,1023,2018,5,17,22,15,3.576,-0.5409,-0.3548,0.5147,-0.5625
-0.089,0.033,-0.055,32.5,1.1,80.9,1023,2018,5,17,22,15,3.594,-0.5445,-0.3672,0.5119,-0.5536
-0.095,-0.009,-0.051,26.2,-26.1,83.7,1023,2018,5,17,22,15,3.616,-0.5506,-0.3764,0.5109,-0.5422
-0.098,-0.055,-0.049,18.7,-53.1,83,1023,2018,5,17,22,15,3.633,-0.5588,-0.3822,0.5117,-0.5288
-0.106,-0.112,-0.042,10.1,-76.9,79.1,1023,2018,5,17,22,15,3.656,-0.569,-0.3839,0.5143,-0.514
-0.1,-0.174,-0.05,1.1,-93.7,74,1023,2018,5,17,22,15,3.693,-0.5808,-0.3822,0.5177,-0.4983
-0.093,-0.22,-0.063,-7.9,-103.1,65.3,1023,2018,5,17,22,15,3.715,-0.5938,-0.3779,0.5211,-0.4825
-0.078,-0.265,-0.085,-15.7,-107.2,53.8,1023,2018,5,17,22,15,3.72,-0.607,-0.3709,0.5246,-0.4675
-0.067,-0.29,-0.091,-21.1,-103.4,41.3,1023,2018,5,17,22,15,3.738,-0.6195,-0.3622,0.528,-0.4539
-0.043,-0.308,-0.117,-24.9,-93.3,28,1023,2018,5,17,22,15,3.757,-0.6306,-0.3525,0.531,-0.4426
-0.019,-0.314,-0.131,-25,-79.7,15.1,1023,2018,5,17,22,15,3.78,-0.64,-0.3427,0.5335,-0.4338
0.004,-0.319,-0.139,-23.3,-63.1,3.7,0,2018,5,17,22,15,3.797,-0.6473,-0.3335,0.5355,-0.4276
0.022,-0.325,-0.145,-19.6,-44.2,-5.8,0,2018,5,17,22,15,3.82,-0.6523,-0.3256,0.5371,-0.424
0.04,-0.32,-0.148,-15.1,-23.4,-12.6,0,2018,5,17,22,15,3.838,-0.6552,-0.3194,0.5381,-0.423
0.059,-0.297,-0.147,-10.3,-4.1,-17.9,0,2018,5,17,22,15,3.861,-0.6561,-0.3153,0.5384,-0.4243
0.069,-0.264,-0.149,-5.9,10,-22.1,0,2018,5,17,22,15,3.876,-0.6553,-0.313,0.5383,-0.4274
0.073,-0.236,-0.145,-2.3,19.8,-25.3,0,2018,5,17,22,15,3.914,-0.6532,-0.312,0.5379,-0.4319
0.074,-0.208,-0.132,0.5,25.4,-28.1,0,2018,5,17,22,15,3.936,-0.65,-0.3119,0.5375,-0.4371
0.062,-0.18,-0.123,2.6,27.7,-30.4,0,2018,5,17,22,15,3.941,-0.6462,-0.3122,0.5372,-0.4429
0.052,-0.153,-0.108,3.7,27.5,-32.7,0,2018,5,17,22,15,3.957,-0.642,-0.3125,0.5371,-0.4489
0.043,-0.123,-0.099,4.6,24.2,-34.7,0,2018,5,17,22,15,3.981,-0.6376,-0.3124,0.5373,-0.455
0.033,-0.095,-0.065,5.3,20.5,-35.9,0,2018,5,17,22,15,4.017,-0.6331,-0.3116,0.5381,-0.4608
0.021,-0.06,-0.032,4.4,17.4,-35.1,0,2018,5,17,22,15,4.017,-0.6282,-0.3104,0.5397,-0.4664
0.006,-0.039,-0.04,3.9,10.6,-33.2,0,2018,5,17,22,15,4.04,-0.6241,-0.3087,0.5412,-0.4714
-0.017,-0.033,-0.034,4.8,0.1,-31,0,2018,5,17,22,15,4.057,-0.6203,-0.3066,0.5434,-0.4751
-0.044,-0.031,-0.016,6,-10.4,-28.6,0,2018,5,17,22,15,4.08,-0.6174,-0.3036,0.5464,-0.4774
-0.051,-0.027,0.011,7.6,-17.3,-26.3,0,2018,5,17,22,15,4.116,-0.6151,-0.2999,0.55,-0.4786
-0.035,-0.017,0.04,9.8,-17.9,-24.5,1023,2018,5,17,22,15,4.136,-0.6131,-0.2962,0.5538,-0.4791
-0.004,-0.002,0.056,12.3,-11.4,-24.2,1023,2018,5,17,22,15,4.139,-0.611,-0.2929,0.5572,-0.4798
0.007,0.004,0.071,14.4,0.6,-24.7,1023,2018,5,17,22,15,4.175,-0.6082,-0.2908,0.5599,-0.4814
0.009,0.017,0.071,15.9,16.2,-25.6,1023,2018,5,17,22,15,4.196,-0.6045,-0.2904,0.5616,-0.4843
-0.001,0.02,0.061,16.5,32.3,-26.1,1023,2018,5,17,22,15,4.201,-0.5999,-0.2918,0.5621,-0.4888
-0.028,0.021,0.053,17.2,47.8,-26.5,1023,2018,5,17,22,15,4.238,-0.5942,-0.2949,0.5613,-0.4947
-0.046,0.031,0.048,17.8,62.1,-25.7,1023,2018,5,17,22,15,4.259,-0.5878,-0.2995,0.5593,-0.5018
-0.058,0.044,0.048,17.1,75.1,-23.7,1023,2018,5,17,22,15,4.262,-0.5806,-0.3059,0.5559,-0.5101
-0.074,0.064,0.044,15.7,85.2,-20.9,1023,2018,5,17,22,15,4.296,-0.573,-0.3138,0.5511,-0.519
-0.069,0.087,0.031,13,89.5,-17.4,1023,2018,5,17,22,15,4.318,-0.5654,-0.3226,0.5451,-0.5281
-0.058,0.107,0.009,9.6,85.8,-14.3,1023,2018,5,17,22,15,4.321,-0.5582,-0.3316,0.5385,-0.5369
-0.042,0.127,0.003,5.6,72.9,-11.7,1023,2018,5,17,22,15,4.356,-0.5521,-0.3397,0.532,-0.5446
-0.012,0.135,0,1.1,53.2,-9.9,1023,2018,5,17,22,15,4.38,-0.5476,-0.346,0.5263,-0.5506
0.007,0.133,0,-2.7,31.6,-8.7,1023,2018,5,17,22,15,4.384,-0.5449,-0.3499,0.5222,-0.5547
0.016,0.112,-0.007,-5.9,13.8,-6.8,1023,2018,5,17,22,15,4.402,-0.5437,-0.3517,0.5197,-0.5571
0.024,0.097,-0.018,-8.5,0.8,-3.9,1023,2018,5,17,22,15,4.437,-0.544,-0.3517,0.5182,-0.5582
0.023,0.074,-0.033,-9.8,-7.5,-0.9,1023,2018,5,17,22,15,4.458,-0.5451,-0.3509,0.5177,-0.5581
0.016,0.052,-0.051,-11.4,-11.8,2.5,0,2018,5,17,22,15,4.464,-0.5469,-0.3495,0.5177,-0.5573
0.009,0.04,-0.063,-12,-14.7,6,0,2018,5,17,22,15,4.5,-0.5492,-0.3479,0.5177,-0.5559
0.005,0.032,-0.065,-12.1,-17.5,8.7,0,2018,5,17,22,15,4.523,-0.5519,-0.3464,0.5179,-0.554
-0.001,0.021,-0.07,-11.7,-20.1,10.6,0,2018,5,17,22,15,4.526,-0.5549,-0.3449,0.5184,-0.5516
-0.01,0.011,-0.074,-10.4,-22.3,11.1,0,2018,5,17,22,15,4.544,-0.5581,-0.343,0.5191,-0.5489
-0.01,0.002,-0.069,-9,-24.5,11,0,2018,5,17,22,15,4.567,-0.5612,-0.3412,0.5202,-0.5458
-0.008,-0.01,-0.075,-6.8,-24.9,10.7,0,2018,5,17,22,15,4.587,-0.5643,-0.3391,0.5216,-0.5426
-0.002,-0.012,-0.078,-4.9,-24.2,9.8,0,2018,5,17,22,15,4.623,-0.5668,-0.3374,0.5233,-0.5393
0.006,-0.019,-0.079,-2.2,-22,8.8,0,2018,5,17,22,15,4.623,-0.569,-0.3358,0.5252,-0.5361
0.015,-0.028,-0.074,0.3,-17.9,7.9,0,2018,5,17,22,15,4.646,-0.5707,-0.3344,0.5271,-0.5333
0.025,-0.03,-0.07,2.9,-12,7.5,0,2018,5,17,22,15,4.663,-0.5717,-0.3339,0.5288,-0.5309
0.028,-0.034,-0.062,6,-4.5,7.3,0,2018,5,17,22,15,4.685,-0.5721,-0.334,0.5302,-0.529
0.029,-0.035,-0.054,8.5,3,7.2,1023,2018,5,17,22,15,4.704,-0.5718,-0.3352,0.5311,-0.5278
0.025,-0.025,-0.045,10.7,7.3,7.3,1023,2018,5,17,22,15,4.727,-0.5709,-0.3372,0.5316,-0.5269
0.021,-0.019,-0.039,12.4,8.5,7.1,1023,2018,5,17,22,15,4.744,-0.5698,-0.3397,0.5319,-0.5262
0.017,-0.019,-0.032,14.2,8,7,1023,2018,5,17,22,15,4.767,-0.5685,-0.3423,0.5324,-0.5254
0.015,-0.016,-0.024,15,6.8,6.6,1023,2018,5,17,22,15,4.786,-0.5673,-0.3448,0.5329,-0.5245
0.011,-0.019,-0.007,16,5.6,6.2,1023,2018,5,17,22,15,4.808,-0.566,-0.3472,0.5337,-0.5235
0.008,-0.022,-0.006,16.2,4.9,5.9,1023,2018,5,17,22,15,4.827,-0.5648,-0.3495,0.5345,-0.5225
0.008,-0.026,0.011,16.3,5.1,5.7,1023,2018,5,17,22,15,4.849,-0.5635,-0.3517,0.5354,-0.5215
0.008,-0.028,0.014,16.1,5.5,5.3,1023,2018,5,17,22,15,4.868,-0.5621,-0.3539,0.5362,-0.5206
0.005,-0.03,0.032,15.4,6.3,4.3,1023,2018,5,17,22,15,4.89,-0.5608,-0.3561,0.5369,-0.5199
0.002,-0.031,0.042,14.2,7.9,3.1,1023,2018,5,17,22,15,4.906,-0.5593,-0.3581,0.5374,-0.5195
-0.005,-0.014,0.045,5.7,8.7,-1.7,1023,2018,5,17,22,15,4.925,-0.5539,-0.3643,0.5371,-0.5214
-0.006,-0.011,0.045,1,4.2,-2.9,1023,2018,5,17,22,15,4.948,-0.5524,-0.3651,0.5364,-0.5231
-0.008,-0.012,0.039,-0.9,2.4,-3.4,1023,2018,5,17,22,15,4.967,-0.552,-0.3649,0.5362,-0.5239
-0.008,-0.016,0.035,-2.4,1.8,-3.9,1023,2018,5,17,22,15,4.985,-0.5518,-0.3643,0.536,-0.5247
-0.004,-0.009,0.017,-5.8,2.8,-5.1,1023,2018,5,17,22,15,5.008,-0.5516,-0.3628,0.5351,-0.5268
0,-0.011,0.008,-7.4,2.8,-5.9,0,2018,5,17,22,15,5.026,-0.5516,-0.3618,0.5346,-0.5281
0.007,-0.009,0.004,-8.7,2.9,-6.7,0,2018,5,17,22,15,5.049,-0.5516,-0.3606,0.534,-0.5295
0.006,-0.006,-0.001,-9.2,3.5,-7.5,0,2018,5,17,22,15,5.067,-0.5515,-0.3594,0.5333,-0.5311
0.002,-0.006,-0.015,-9.8,4,-7.9,0,2018,5,17,22,15,5.089,-0.5515,-0.358,0.5326,-0.5327
0,-0.007,-0.019,-9.8,5,-7.9,0,2018,5,17,22,15,5.126,-0.5512,-0.3569,0.5319,-0.5344
0,0,-0.023,-9.5,5.9,-7.5,0,2018,5,17,22,15,5.148,-0.551,-0.3558,0.5311,-0.5362
0.003,0.004,-0.032,-8.9,5.9,-7.3,0,2018,5,17,22,15,5.152,-0.5506,-0.355,0.5304,-0.5378
0.006,0.006,-0.033,-8.8,5.9,-6.7,0,2018,5,17,22,15,5.169,-0.5502,-0.3543,0.5296,-0.5394
0.016,0.011,-0.041,-7.9,4.7,-5.9,0,2018,5,17,22,15,5.205,-0.5497,-0.353,0.5283,-0.5422
0.017,0.015,-0.049,-7.4,4,-5.1,0,2018,5,17,22,15,5.227,-0.5495,-0.3523,0.5277,-0.5433
-0.002,0.003,-0.045,0.7,-1,1.2,0,2018,5,17,22,15,5.231,-0.5491,-0.3521,0.5264,-0.5452
0,0.002,-0.038,2,-0.6,1.4,0,2018,5,17,22,15,5.247,-0.5491,-0.3524,0.5268,-0.5446
-0.003,-0.002,-0.039,3.3,1.1,1.6,0,2018,5,17,22,15,5.27,-0.5488,-0.353,0.5273,-0.5441
0.006,0,-0.027,4.4,3.5,1.9,1023,2018,5,17,22,15,5.289,-0.5484,-0.3538,0.5276,-0.5437
0.01,-0.002,-0.021,5.4,5.9,2.2,1023,2018,5,17,22,15,5.311,-0.5478,-0.3549,0.5276,-0.5435
0.01,0.002,-0.022,5.9,7.6,2.7,1023,2018,5,17,22,15,5.33,-0.547,-0.3563,0.5275,-0.5434
0.01,0.007,-0.016,6.7,8.1,3.5,1023,2018,5,17,22,15,5.352,-0.5463,-0.358,0.5273,-0.5433
0.009,0.008,-0.005,6.7,7.9,4.4,1023,2018,5,17,22,15,5.372,-0.5455,-0.3598,0.527,-0.5432
0.008,0.011,-0.003,6.7,6.5,5.3,1023,2018,5,17,22,15,5.394,-0.545,-0.3616,0.5267,-0.5429
0.001,0.007,-0.004,6.2,3.8,6.5,1023,2018,5,17,22,15,5.41,-0.5448,-0.3631,0.5264,-0.5423
0.003,0.002,0.001,5.4,0.8,7.1,1023,2018,5,17,22,15,5.427,-0.5448,-0.3645,0.5263,-0.5414
-0.001,-0.006,0,4.6,-2,7.5,1023,2018,5,17,22,15,5.45,-0.545,-0.3656,0.5264,-0.5403
-0.002,-0.01,0.002,4.1,-4.2,7.7,1023,2018,5,17,22,15,5.468,-0.5456,-0.3664,0.5267,-0.5389
-0.004,-0.017,0.004,3.8,-4.8,7.5,1023,2018,5,17,22,15,5.489,-0.5464,-0.3667,0.5271,-0.5376
-0.002,-0.023,0.013,3.5,-4.3,7,1023,2018,5,17,22,15,5.528,-0.5471,-0.367,0.5274,-0.5364
0.001,-0.028,0.008,3.2,-2.8,6.5,1023,2018,5,17,22,15,5.55,-0.5477,-0.3672,0.5277,-0.5353
0.003,-0.03,0.008,2.5,-1.3,5.6,1023,2018,5,17,22,15,5.555,-0.5481,-0.3676,0.5279,-0.5345
0.01,-0.026,0.014,2,0.2,4.3,1023,2018,5,17,22,15,5.571,-0.5483,-0.3679,0.5279,-0.534
0.007,-0.025,0.015,1,1.5,3.4,1023,2018,5,17,22,15,5.611,-0.5487,-0.3679,0.5276,-0.5338
0.006,-0.023,0.015,-0.1,2.2,2.6,1023,2018,5,17,22,15,5.635,-0.5488,-0.3682,0.5273,-0.5338
0.011,-0.02,0.013,-1,1.6,1.9,1023,2018,5,17,22,15,5.639,-0.5488,-0.3684,0.5271,-0.5339
0.008,-0.021,0.013,-2,0,1.3,0,2018,5,17,22,15,5.655,-0.5491,-0.3682,0.5268,-0.5341
0.014,-0.022,0.008,-3,-1.5,0.9,0,2018,5,17,22,15,5.692,-0.5494,-0.3678,0.5266,-0.5341
0.013,-0.022,0.007,-3.6,-3.1,0.6,0,2018,5,17,22,15,5.715,-0.5499,-0.3672,0.5265,-0.5341
0.017,-0.022,0,-4.2,-3.8,0.4,0,2018,5,17,22,15,5.719,-0.5506,-0.3662,0.5265,-0.5341
0.014,-0.023,0,-4.2,-4.3,-0.2,0,2018,5,17,22,15,5.733,-0.5512,-0.3652,0.5266,-0.5341
0.01,-0.026,-0.007,-4.8,-4.2,-0.7,0,2018,5,17,22,15,5.75,-0.5518,-0.3641,0.5268,-0.5341
0.011,-0.03,-0.006,-4.8,-3.4,-1.5,0,2018,5,17,22,15,5.775,-0.5522,-0.363,0.527,-0.5342
0.008,-0.026,-0.006,-4.8,-2.1,-2.2,0,2018,5,17,22,15,5.794,-0.5525,-0.3619,0.5271,-0.5345
0.007,-0.022,-0.013,-4.5,-1.2,-3.3,0,2018,5,17,22,15,5.817,-0.5527,-0.3609,0.5272,-0.535
0.009,-0.019,-0.012,-4.4,-0.7,-3.9,0,2018,5,17,22,15,5.834,-0.5528,-0.3598,0.5273,-0.5355
0.006,-0.014,-0.01,-4,-0.5,-4.5,0,2018,5,17,22,15,5.857,-0.5527,-0.3589,0.5274,-0.5361
0.009,-0.009,-0.019,-3.7,-0.7,-4.7,0,2018,5,17,22,15,5.876,-0.5526,-0.3579,0.5275,-0.5367
0.01,-0.007,-0.012,-3.2,-0.6,-5.3,1023,2018,5,17,22,15,5.897,-0.5524,-0.357,0.5277,-0.5373
0.009,0,-0.017,-2.9,-0.2,-5.3,1023,2018,5,17,22,15,5.933,-0.5523,-0.356,0.5279,-0.5379
0.01,0.001,-0.017,-2.6,-0.1,-5.1,1023,2018,5,17,22,15,5.933,-0.5521,-0.3553,0.5281,-0.5384
0.01,0.002,-0.015,-2.1,0.1,-4.4,1023,2018,5,17,22,15,5.957,-0.5518,-0.3546,0.5283,-0.5389
0.008,0.006,-0.016,-1.5,0.6,-3.6,1023,2018,5,17,22,15,5.974,-0.5516,-0.3541,0.5284,-0.5394
0.004,0.009,-0.008,-1.2,0.6,-2.8,1023,2018,5,17,22,15,5.996,-0.5514,-0.3539,0.5285,-0.5397
0.007,0.012,-0.008,-0.7,0.1,-1.6,1023,2018,5,17,22,15,6.032,-0.5513,-0.3537,0.5285,-0.5398
0.004,0.013,-0.011,-0.7,-0.7,-0.9,1023,2018,5,17,22,15,6.032,-0.5512,-0.3536,0.5287,-0.5398
0.007,0.011,-0.012,-0.7,-2,-0.1,1023,2018,5,17,22,15,6.056,-0.5514,-0.3534,0.5289,-0.5396
0.006,0.01,-0.012,-0.4,-3.4,0.1,1023,2018,5,17,22,15,6.094,-0.5516,-0.3532,0.5292,-0.5392
0.007,0.008,-0.012,-0.1,-3.9,0.5,1023,2018,5,17,22,15,6.094,-0.5519,-0.353,0.5296,-0.5387
0.007,0.001,-0.014,0.3,-3.8,1,1023,2018,5,17,22,15,6.116,-0.5521,-0.3528,0.53,-0.5381
0.011,-0.003,-0.012,1.2,-2.9,1.5,1023,2018,5,17,22,15,6.154,-0.5524,-0.3527,0.5305,-0.5375
0.014,0,-0.009,1.9,-1.7,2,1023,2018,5,17,22,15,6.176,-0.5525,-0.3528,0.5308,-0.537
0.01,0,-0.009,2.3,-0.7,2.3,1023,2018,5,17,22,15,6.182,-0.5526,-0.353,0.5311,-0.5364
0.012,0,-0.01,2.5,-0.8,2.7,1023,2018,5,17,22,15,6.202,-0.5525,-0.3536,0.5314,-0.5358
0.008,-0.003,-0.01,2.6,-1.5,2.7,1023,2018,5,17,22,15,6.219,-0.5526,-0.3539,0.5317,-0.5352
0.006,-0.004,-0.005,2.5,-2.6,3,1023,2018,5,17,22,15,6.242,-0.5528,-0.3541,0.5321,-0.5345
0.004,-0.007,-0.005,2.6,-3.1,3,0,2018,5,17,22,15,6.257,-0.5531,-0.3541,0.5324,-0.5338
0.003,-0.013,-0.001,2.6,-3.4,2.7,0,2018,5,17,22,15,6.276,-0.5534,-0.3541,0.5329,-0.5331
0.005,-0.011,-0.003,2.5,-3.6,2.4,0,2018,5,17,22,15,6.299,-0.5536,-0.3542,0.5334,-0.5323
0.003,-0.011,0,2.4,-4.2,1.7,0,2018,5,17,22,15,6.335,-0.5538,-0.3541,0.5339,-0.5317
0.003,-0.017,-0.002,1.9,-4.5,0.8,0,2018,5,17,22,15,6.335,-0.5539,-0.3539,0.5346,-0.531
0.006,-0.013,0.002,1.6,-4.7,0.1,0,2018,5,17,22,15,6.36,-0.554,-0.3536,0.5353,-0.5304
0.002,-0.012,0.001,1.5,-4,-0.4,0,2018,5,17,22,15,6.378,-0.5541,-0.3532,0.5359,-0.5299
0.007,-0.01,0.001,1.4,-3.2,-1.1,0,2018,5,17,22,15,6.4,-0.5541,-0.3528,0.5366,-0.5296
0.008,-0.003,0.003,1.1,-3.1,-1.6,0,2018,5,17,22,15,6.419,-0.554,-0.3524,0.5371,-0.5293
0.004,-0.005,0.003,1.2,-3.1,-1.8,0,2018,5,17,22,15,6.442,-0.5539,-0.3519,0.5377,-0.5291
0.003,-0.001,0.003,0.9,-3.4,-1.7,0,2018,5,17,22,15,6.46,-0.5539,-0.3515,0.5383,-0.5289
-0.001,0,0.002,1.1,-4.2,-2,0,2018,5,17,22,15,6.483,-0.5539,-0.351,0.5389,-0.5286
0,0,-0.001,0.6,-5.2,-2.2,0,2018,5,17,22,15,6.499,-0.5539,-0.3504,0.5395,-0.5283
-0.003,0.003,0.003,0.1,-6.2,-2.5,0,2018,5,17,22,15,6.519,-0.554,-0.3497,0.5403,-0.5279
0.001,0.006,-0.005,-0.4,-7.3,-2.9,0,2018,5,17,22,15,6.556,-0.5543,-0.3488,0.5411,-0.5274
0.004,0.005,-0.005,-0.7,-8.2,-3.1,1023,2018,5,17,22,15,6.58,-0.5545,-0.3478,0.542,-0.5269
0.012,0.014,-0.005,-0.9,-9,-3.6,1023,2018,5,17,22,15,6.584,-0.5548,-0.3466,0.5429,-0.5264
0.008,0.015,-0.015,-1.1,-10.1,-4,1023,2018,5,17,22,15,6.603,-0.5553,-0.3452,0.5439,-0.5258
0.006,0.018,-0.018,-1.7,-12.1,-4.5,1023,2018,5,17,22,15,6.621,-0.5557,-0.3437,0.5451,-0.5251
0.008,0.021,-0.031,-3.1,-15.1,-5.1,1023,2018,5,17,22,15,6.644,-0.5564,-0.3418,0.5465,-0.5242
0.013,0.024,-0.041,-4,-19.3,-6.2,1023,2018,5,17,22,15,6.664,-0.5572,-0.3394,0.5482,-0.523
0.01,0.027,-0.042,-4.8,-23.4,-6.7,1023,2018,5,17,22,15,6.683,-0.5582,-0.3367,0.5503,-0.5215
0.005,0.027,-0.061,-5.6,-27.3,-6.6,1023,2018,5,17,22,15,6.706,-0.5594,-0.3336,0.5528,-0.5196
0,0.026,-0.078,-5.9,-32.7,-6.1,1023,2018,5,17,22,15,6.721,-0.561,-0.3299,0.5557,-0.5172
0.022,0.028,-0.086,-5.4,-37.6,-5.8,1023,2018,5,17,22,15,6.76,-0.5628,-0.3257,0.5591,-0.5141
0.032,0.032,-0.096,-4.7,-41.6,-4.8,1023,2018,5,17,22,15,6.76,-0.5647,-0.3214,0.5631,-0.5105
0.042,0.028,-0.108,-4.2,-44.2,-4.3,1023,2018,5,17,22,15,6.783,-0.5668,-0.3168,0.5673,-0.5064
0.037,0.037,-0.129,-3.2,-47.1,-3,1023,2018,5,17,22,15,6.8,-0.5689,-0.312,0.5718,-0.5018
0.041,0.048,-0.154,-1.8,-51,0,1023,2018,5,17,22,15,6.823,-0.5716,-0.3068,0.5762,-0.4969
0.031,0.047,-0.167,0,-55.6,4.6,1023,2018,5,17,22,15,6.862,-0.5749,-0.3014,0.5806,-0.4913
0.005,0.033,-0.181,1.9,-59.3,11.4,1023,2018,5,17,22,15,6.864,-0.5786,-0.2963,0.5851,-0.4846
-0.037,0.008,-0.195,3.7,-63,20.4,1023,2018,5,17,22,15,6.901,-0.5829,-0.2917,0.5897,-0.4766
-0.082,-0.024,-0.206,5.6,-65.7,31,1023,2018,5,17,22,15,6.924,-0.5879,-0.288,0.5941,-0.4671
-0.1,-0.035,-0.223,7.4,-68.8,41.2,1023,2018,5,17,22,15,6.928,-0.5936,-0.2852,0.5983,-0.4561
-0.075,-0.042,-0.232,9.2,-76.8,48.5,1023,2018,5,17,22,15,6.947,-0.6,-0.2829,0.6026,-0.4434
-0.027,-0.06,-0.219,11.5,-87.5,52.3,1023,2018,5,17,22,15,6.982,-0.607,-0.2802,0.6074,-0.4289
0.032,-0.078,-0.184,13.8,-95.9,52.5,0,2018,5,17,22,15,6.982,-0.6141,-0.2766,0.6129,-0.4129
0.049,-0.082,-0.167,15.7,-100.9,50.9,0,2018,5,17,22,15,7.007,-0.6211,-0.2722,0.619,-0.3961
0.053,-0.097,-0.157,16.8,-102.8,47.9,0,2018,5,17,22,15,7.045,-0.6275,-0.2673,0.6253,-0.3789
0.061,-0.119,-0.145,18.4,-101.1,44.3,0,2018,5,17,22,15,7.068,-0.6334,-0.2621,0.6317,-0.3618
0.033,-0.137,-0.152,19.4,-97.1,42,0,2018,5,17,22,15,7.073,-0.6385,-0.2569,0.6379,-0.3453
-0.009,-0.177,-0.146,20.3,-91.4,42.7,0,2018,5,17,22,15,7.084,-0.6431,-0.252,0.6437,-0.3292
-0.052,-0.199,-0.137,21.3,-85.1,45.6,0,2018,5,17,22,15,7.102,-0.6471,-0.2481,0.6491,-0.3134
-0.099,-0.211,-0.119,22.6,-81.1,48.9,0,2018,5,17,22,15,7.125,-0.6507,-0.2451,0.6539,-0.2978
-0.106,-0.204,-0.109,24.4,-81.2,50.9,1023,2018,5,17,22,15,7.143,-0.6541,-0.2426,0.6585,-0.2819
-0.106,-0.186,-0.093,29.5,-86.4,50.6,1023,2018,5,17,22,15,7.167,-0.657,-0.2401,0.6634,-0.2653
-0.086,-0.184,-0.032,36.2,-90.4,47.9,1023,2018,5,17,22,15,7.202,-0.6592,-0.2367,0.6691,-0.2481
-0.063,-0.212,0.052,42.6,-83.3,44.4,1023,2018,5,17,22,15,7.224,-0.6599,-0.2329,0.6757,-0.2314
-0.057,-0.209,0.106,49.7,-64.5,41.2,1023,2018,5,17,22,15,7.23,-0.6591,-0.231,0.6822,-0.2159
-0.055,-0.229,0.159,56,-37.9,38.8,1023,2018,5,17,22,15,7.249,-0.6563,-0.2317,0.6886,-0.2031
-0.054,-0.206,0.199,59.6,-6.8,35.8,1023,2018,5,17,22,15,7.268,-0.6516,-0.2354,0.6944,-0.1939
-0.052,-0.164,0.239,61.4,25.5,33,1023,2018,5,17,22,15,7.29,-0.645,-0.2425,0.6996,-0.1889
-0.056,-0.11,0.259,60.2,53.4,31.5,1023,2018,5,17,22,15,7.309,-0.6369,-0.2526,0.7036,-0.1878
-0.061,-0.086,0.274,55.3,72.4,28.8,1023,2018,5,17,22,15,7.332,-0.628,-0.265,0.7066,-0.1899
-0.064,-0.035,0.296,46.7,80.6,25.4,1023,2018,5,17,22,15,7.349,-0.619,-0.2782,0.7082,-0.1943
-0.06,0.027,0.312,35.4,75.7,20.9,0,2018,5,17,22,15,7.367,-0.6109,-0.2905,0.7087,-0.1997
-0.048,0.105,0.312,23.5,59.7,16.5,0,2018,5,17,22,15,7.404,-0.6045,-0.3008,0.7085,-0.2049
-0.039,0.147,0.324,11.3,36.4,11,0,2018,5,17,22,15,7.427,-0.6005,-0.3079,0.7078,-0.2085
-0.022,0.14,0.327,-0.4,13.4,5.1,0,2018,5,17,22,15,7.432,-0.5989,-0.3114,0.707,-0.2105
-0.006,0.099,0.313,-11.7,-5.3,-1.1,0,2018,5,17,22,15,7.45,-0.5996,-0.3116,0.7061,-0.2111
0.001,0.083,0.282,-22,-18.7,-6.4,0,2018,5,17,22,15,7.468,-0.6024,-0.3088,0.705,-0.211
0.039,0.096,0.219,-31.2,-27.3,-9.1,0,2018,5,17,22,15,7.491,-0.6067,-0.3042,0.7034,-0.2104
0.092,0.112,0.177,-38.5,-30.4,-10.6,0,2018,5,17,22,15,7.509,-0.6124,-0.2984,0.7013,-0.2098
0.081,0.067,0.147,-45.1,-28.4,-12.9,0,2018,5,17,22,15,7.531,-0.6186,-0.2921,0.6985,-0.2097
0.082,0.011,0.103,-52.7,-25,-14.5,0,2018,5,17,22,15,7.552,-0.626,-0.2857,0.6944,-0.2103
0.089,-0.033,0.025,-59.8,-22.9,-16.1,0,2018,5,17,22,15,7.57,-0.6337,-0.2791,0.6895,-0.2119
0.092,-0.014,-0.053,-65.2,-25.3,-18.6,0,2018,5,17,22,15,7.588,-0.6414,-0.2721,0.6846,-0.214
0.109,0.036,-0.138,-69.1,-34.3,-20.9,0,2018,5,17,22,15,7.624,-0.6494,-0.2644,0.6796,-0.2152
0.105,0.035,-0.196,-72.2,-45.8,-26,0,2018,5,17,22,15,7.647,-0.6587,-0.2543,0.6741,-0.2164
0.107,0.043,-0.256,-73,-60.2,-32.3,0,2018,5,17,22,15,7.651,-0.6684,-0.2421,0.669,-0.2167
0.081,0.044,-0.326,-71.7,-77.5,-40.3,0,2018,5,17,22,15,7.687,-0.6783,-0.227,0.6645,-0.2159
0.069,0.049,-0.411,-68.2,-91,-46.6,0,2018,5,17,22,15,7.71,-0.688,-0.2091,0.6611,-0.214
0.043,0.065,-0.476,-62.8,-95.2,-47,0,2018,5,17,22,15,7.715,-0.697,-0.1899,0.6583,-0.2112
0.062,0.092,-0.56,-52.1,-89.2,-47.1,0,2018,5,17,22,15,7.731,-0.7049,-0.1709,0.6561,-0.2081
0.06,0.153,-0.625,-37.4,-75.3,-42.8,0,2018,5,17,22,15,7.753,-0.7107,-0.154,0.6549,-0.2054
0.048,0.22,-0.622,-20.9,-57.3,-32.9,1023,2018,5,17,22,15,7.769,-0.7142,-0.1407,0.6547,-0.2033
0.037,0.2,-0.625,-6.3,-39.5,-19.5,1023,2018,5,17,22,15,7.787,-0.716,-0.1314,0.6553,-0.2012
0.042,0.19,-0.613,12,-20.9,-6.1,1023,2018,5,17,22,15,7.81,-0.7158,-0.1264,0.6571,-0.1994
0.058,0.182,-0.581,29.6,-11.2,7.5,1023,2018,5,17,22,15,7.828,-0.7137,-0.1254,0.6602,-0.1971
0.07,0.171,-0.538,45.9,-12.5,20.1,1023,2018,5,17,22,15,7.85,-0.71,-0.1269,0.665,-0.1932
0.065,0.171,-0.511,61.5,-21.4,31.6,1023,2018,5,17,22,15,7.869,-0.705,-0.1295,0.6717,-0.1868
0.048,0.102,-0.454,74.8,-31.4,40.6,1023,2018,5,17,22,15,7.891,-0.6987,-0.1327,0.6801,-0.1776
0.033,0.015,-0.44,86.9,-33.6,48,1023,2018,5,17,22,15,7.929,-0.691,-0.1365,0.69,-0.1662
0.028,-0.014,-0.416,100.1,-26.7,54.3,1023,2018,5,17,22,15,7.951,-0.6818,-0.1418,0.7008,-0.1541
0.033,-0.087,-0.334,112,-10.3,58.2,1023,2018,5,17,22,15,7.956,-0.6706,-0.1493,0.7125,-0.1423
0.011,-0.162,-0.25,121.7,11.5,58.4,1023,2018,5,17,22,15,7.971,-0.6572,-0.1596,0.7245,-0.1325
-0.038,-0.264,-0.171,129.8,37.7,57,1023,2018,5,17,22,15,7.994,-0.6417,-0.1724,0.7366,-0.1256
-0.081,-0.301,-0.127,134.2,65.7,54.2,1023,2018,5,17,22,15,8.011,-0.6241,-0.1884,0.7483,-0.122
-0.104,-0.278,-0.074,132.8,86.4,47.4,1023,2018,5,17,22,15,8.035,-0.6048,-0.2062,0.7594,-0.1221
-0.14,-0.2,0.029,126.8,93.7,36.2,1023,2018,5,17,22,15,8.072,-0.5849,-0.2243,0.7693,-0.1249
-0.131,-0.172,0.131,118.2,90.1,20.1,0,2018,5,17,22,15,8.072,-0.5651,-0.2402,0.7785,-0.1294
-0.147,-0.187,0.142,107.1,86,4.8,0,2018,5,17,22,15,8.096,-0.5461,-0.2532,0.7869,-0.1354
-0.146,-0.189,0.201,89.3,80.4,-8.8,0,2018,5,17,22,15,8.112,-0.5286,-0.2632,0.7943,-0.1424
-0.172,-0.112,0.301,68.2,76.7,-18.2,0,2018,5,17,22,15,8.135,-0.5136,-0.2705,0.8001,-0.1508
-0.205,0.035,0.376,46,62.3,-24.3,0,2018,5,17,22,15,8.153,-0.5015,-0.2756,0.8043,-0.1595
-0.199,0.004,0.408,23.2,49.5,-28.9,0,2018,5,17,22,15,8.176,-0.4931,-0.278,0.8071,-0.1676
-0.208,0.022,0.458,0.4,43.1,-32,0,2018,5,17,22,15,8.193,-0.4882,-0.2782,0.8082,-0.1758
-0.224,0.114,0.519,-21,41.5,-31.3,0,2018,5,17,22,15,8.216,-0.4866,-0.2771,0.8075,-0.185
-0.183,0.112,0.465,-36.9,37.1,-33.8,0,2018,5,17,22,15,8.234,-0.4879,-0.2748,0.8052,-0.1946
-0.253,0.048,0.29,-31.8,53.5,-40.1,0,2018,5,17,22,15,8.256,-0.4895,-0.2722,0.8023,-0.2059
-0.066,0.345,0.286,-61.2,22.1,-28.8,0,2018,5,17,22,15,8.274,-0.4933,-0.2691,0.7981,-0.2169
-0.111,0.319,0.286,-73.4,-8.7,-30.1,0,2018,5,17,22,15,8.297,-0.5012,-0.2628,0.7935,-0.2232
0,0.234,0.221,-88.1,-1.8,-6.1,0,2018,5,17,22,15,8.313,-0.5125,-0.2561,0.7874,-0.227
0.003,0.213,0.234,-89.9,25.1,10.9,1023,2018,5,17,22,15,8.333,-0.5241,-0.2542,0.7787,-0.2325
-0.014,0.275,0.309,-90.6,34.3,24,1023,2018,5,17,22,15,8.354,-0.5357,-0.256,0.7682,-0.2392
-0.024,0.3,0.376,-93.4,15,17.6,1023,2018,5,17,22,15,8.392,-0.5477,-0.2573,0.7575,-0.2444
-0.058,0.056,0.193,-93.1,21.1,3,1023,2018,5,17,22,15,8.415,-0.5597,-0.256,0.7475,-0.2497
-0.198,-0.072,-0.256,-73.8,72.3,4.6,1023,2018,5,17,22,15,8.419,-0.5685,-0.2575,0.737,-0.2592
-0.093,-0.169,-0.019,-50.7,62.4,-0.9,1023,2018,5,17,22,15,8.436,-0.5721,-0.2626,0.7282,-0.2707
-0.015,-0.424,0.283,-55.4,37.3,-22.6,1023,2018,5,17,22,15,8.454,-0.5758,-0.2633,0.7214,-0.2802
-0.095,-0.182,0.223,-68.2,47.3,-15.4,1023,2018,5,17,22,15,8.475,-0.5808,-0.2618,0.7139,-0.2904
0.125,0.276,0.152,-72.7,65.4,-0.4,1023,2018,5,17,22,15,8.512,-0.5866,-0.2627,0.7043,-0.3011
-0.207,0.019,0.056,-43.8,60.6,-9.3,1023,2018,5,17,22,15,8.535,-0.5901,-0.2664,0.6951,-0.3122
-0.204,-0.066,0.281,-52.4,66.3,-25.8,1023,2018,5,17,22,15,8.537,-0.5917,-0.2676,0.6874,-0.3249
-0.339,0.047,0.155,-70.4,37.1,-36.5,1023,2018,5,17,22,15,8.558,-0.5948,-0.266,0.6796,-0.3368
-0.281,0.075,0.029,-90.8,23,-46.7,1023,2018,5,17,22,15,8.582,-0.6013,-0.2595,0.6709,-0.3475
-0.198,-0.031,0.07,-100.4,20.4,-51.5,1023,2018,5,17,22,15,8.599,-0.6093,-0.2503,0.6609,-0.3594
-0.132,-0.023,0,-100.3,19.2,-58.3,1023,2018,5,17,22,15,8.621,-0.6169,-0.2393,0.6508,-0.3721
-0.067,0.043,0.031,-103.3,19.8,-66.7,1023,2018,5,17,22,15,8.637,-0.6238,-0.2276,0.6406,-0.3853
0.078,0.003,0.043,-97.3,19.4,-70,1023,2018,5,17,22,15,8.674,-0.6295,-0.2157,0.631,-0.3985
0.192,-0.049,-0.043,-79,24.2,-64.8,1023,2018,5,17,22,15,8.697,-0.6337,-0.2042,0.6223,-0.4115
0.039,-0.037,0.041,-67.9,37.3,-62.9,1023,2018,5,17,22,15,8.701,-0.6358,-0.195,0.6141,-0.4247
-0.11,0.039,0.075,-63.4,39.9,-68.2,1023,2018,5,17,22,15,8.721,-0.6367,-0.1878,0.6057,-0.4384
-0.023,0.066,0.015,-63.7,29.6,-74.2,0,2018,5,17,22,15,8.739,-0.6372,-0.1798,0.5979,-0.4517
0.115,-0.014,-0.066,-56.5,23.7,-71.8,0,2018,5,17,22,15,8.777,-0.6368,-0.1704,0.5915,-0.4641
-0.014,-0.062,0.105,-50.4,32.6,-70.5,0,2018,5,17,22,15,8.8,-0.6353,-0.1614,0.5853,-0.477
-0.135,-0.032,0.099,-52.8,32.6,-74.3,0,2018,5,17,22,15,8.804,-0.6338,-0.1538,0.5784,-0.4899
-0.06,0.002,0.056,-52.8,24.9,-80.6,0,2018,5,17,22,15,8.822,-0.6318,-0.1445,0.572,-0.5026
0.134,0.032,0.005,-44.1,20.6,-76.1,0,2018,5,17,22,15,8.843,-0.6294,-0.1351,0.5663,-0.5146
0.056,-0.048,-0.022,-39.6,24.6,-69.5,0,2018,5,17,22,15,8.861,-0.6262,-0.126,0.5613,-0.5261
-0.029,-0.041,0.024,-40.4,24.6,-64.6,0,2018,5,17,22,15,8.884,-0.6232,-0.1182,0.5562,-0.5368
0.023,0.002,-0.023,-42.9,18.4,-63.9,0,2018,5,17,22,15,8.9,-0.6208,-0.1104,0.551,-0.5465
0.089,0.018,-0.06,-39,12.2,-57.3,0,2018,5,17,22,15,8.917,-0.6185,-0.1024,0.5466,-0.5551
0.056,0.04,-0.003,-35.9,19.2,-54.6,0,2018,5,17,22,15,8.941,-0.6159,-0.0948,0.5421,-0.5636
0.01,-0.04,0.013,-33.7,13.9,-54.2,0,2018,5,17,22,15,8.959,-0.6138,-0.0881,0.5376,-0.5713
-0.034,0.04,0.051,-29.2,11.5,-54.3,0,2018,5,17,22,15,8.982,-0.6111,-0.0814,0.5335,-0.5788
0.08,0.087,-0.118,-24.3,4.5,-52.8,1023,2018,5,17,22,15,9,-0.6082,-0.0747,0.5305,-0.5856
0.079,0.066,-0.004,-18.7,1.7,-51.1,1023,2018,5,17,22,15,9.022,-0.6048,-0.068,0.5284,-0.5917
0.001,-0.054,0.015,-15.1,-1.2,-49.2,1023,2018,5,17,22,15,9.04,-0.6011,-0.0614,0.5273,-0.5972
-0.042,-0.052,0.029,-12.5,-3.2,-44.6,1023,2018,5,17,22,15,9.063,-0.5975,-0.0555,0.5267,-0.602
-0.053,-0.091,0.053,-11.5,-4.5,-41.2,1023,2018,5,17,22,15,9.081,-0.594,-0.0498,0.5264,-0.6061
0.056,-0.034,-0.026,-12,-3.4,-37.1,1023,2018,5,17,22,15,9.104,-0.5909,-0.0443,0.5259,-0.61
0.029,0.014,-0.028,-8.7,-0.4,-31.4,1023,2018,5,17,22,15,9.122,-0.5879,-0.0393,0.5254,-0.6137
0.032,-0.077,0.012,-10.3,0.1,-30.1,1023,2018,5,17,22,15,9.146,-0.5854,-0.0352,0.5247,-0.6169
0.045,0.016,-0.014,-10,3.2,-26.3,1023,2018,5,17,22,15,9.164,-0.5832,-0.0316,0.5237,-0.6201
0.011,0.005,0.003,-11.8,-7.3,-28.9,1023,2018,5,17,22,15,9.182,-0.5814,-0.0279,0.5225,-0.6229
0.068,-0.04,-0.054,-8.7,-5.6,-27.6,0,2018,5,17,22,15,9.218,-0.579,-0.023,0.5228,-0.6251
-0.08,-0.091,0.063,-3.3,-5.1,-29.3,0,2018,5,17,22,15,9.241,-0.5763,-0.0193,0.5229,-0.6276
-0.049,0.034,-0.004,-2.4,-9.8,-30.1,0,2018,5,17,22,15,9.245,-0.5735,-0.0161,0.5231,-0.6301
0.076,0.017,-0.081,-1.1,-13.6,-30,0,2018,5,17,22,15,9.261,-0.5703,-0.0118,0.5246,-0.6319
0.061,0.02,0.034,5.6,-7.7,-28.3,0,2018,5,17,22,15,9.302,-0.5667,-0.0081,0.5259,-0.6341
-0.056,-0.069,0.084,4.8,-3.5,-29.8,0,2018,5,17,22,15,9.302,-0.5628,-0.0049,0.5271,-0.6366
0.032,0.111,-0.003,0.5,-14.3,-29.8,0,2018,5,17,22,15,9.325,-0.5597,-0.0023,0.5278,-0.6387
0.057,-0.024,-0.037,1,-14.4,-31.4,0,2018,5,17,22,15,9.343,-0.5562,0.0021,0.5296,-0.6402
-0.01,0.009,-0.06,4.7,-9.7,-29.2,0,2018,5,17,22,15,9.366,-0.5524,0.0058,0.5312,-0.6422
-0.01,0.005,-0.055,10.1,-9.3,-27.7,0,2018,5,17,22,15,9.385,-0.5484,0.0083,0.5332,-0.644
-0.025,-0.03,0.023,15.2,-8.1,-26.3,0,2018,5,17,22,15,9.401,-0.5442,0.01,0.5356,-0.6455
0.049,0.053,-0.03,16.9,-11.5,-24,0,2018,5,17,22,15,9.421,-0.5396,0.0118,0.5384,-0.6471
0.049,-0.046,-0.016,16.1,-11.6,-24,0,2018,5,17,22,15,9.459,-0.5352,0.0135,0.5412,-0.6483
0.026,0.004,0.036,15,-10.1,-21.8,0,2018,5,17,22,15,9.483,-0.5311,0.0149,0.5435,-0.6497
0.038,0.031,-0.016,11.7,-9,-20.3,0,2018,5,17,22,15,9.488,-0.5273,0.0166,0.5457,-0.651
-0.022,0.023,0.116,7.5,-6.8,-16.5,0,2018,5,17,22,15,9.504,-0.5243,0.0178,0.5473,-0.652
0.011,-0.028,-0.002,10.7,-5.5,-15.4,0,2018,5,17,22,15,9.527,-0.5212,0.0195,0.5493,-0.6528
0.03,0.018,0.009,12.7,-3.4,-10.5,0,2018,5,17,22,15,9.545,-0.5185,0.0199,0.5509,-0.6535
-0.006,0.036,-0.002,11.4,0.9,-5.3,0,2018,5,17,22,15,9.566,-0.5161,0.0197,0.5526,-0.6539
-0.015,0.017,0.065,9,-2.3,-7.4,1023,2018,5,17,22,15,9.586,-0.514,0.0195,0.5542,-0.6543
0.001,0.014,0.031,5.4,0.6,-8.9,1023,2018,5,17,22,15,9.603,-0.5119,0.0203,0.5554,-0.6549
0.039,-0.041,-0.051,-5.6,0.6,-17.4,1023,2018,5,17,22,15,9.625,-0.5102,0.0218,0.5557,-0.656
0.006,0.048,-0.009,-18,4.3,-22.2,1023,2018,5,17,22,15,9.643,-0.5088,0.025,0.5545,-0.6579
-0.054,-0.037,-0.096,-31.5,9.6,-24,1023,2018,5,17,22,15,9.666,-0.5082,0.0295,0.5519,-0.6604
0.188,-0.075,0.02,-49.6,21.4,-33.6,1023,2018,5,17,22,15,9.684,-0.5089,0.0359,0.5465,-0.664
-0.004,-0.002,-0.144,-53.2,17,-27.7,1023,2018,5,17,22,15,9.707,-0.5105,0.0434,0.5398,-0.6678
-0.115,-0.002,-0.057,-54.1,21.5,-26.1,1023,2018,5,17,22,15,9.724,-0.5128,0.0498,0.5328,-0.6712
-0.049,0.007,0.057,-54.9,20.3,-28.4,1023,2018,5,17,22,15,9.747,-0.5152,0.0561,0.5251,-0.6749
-0.027,0.135,0.142,-55.8,12.4,-31.4,1023,2018,5,17,22,15,9.783,-0.5171,0.0643,0.5177,-0.6784
0.082,0.119,0.039,-59,-6.9,-33.7,1023,2018,5,17,22,15,9.806,-0.5178,0.0758,0.5119,-0.6811
-0.057,0.008,0.007,-44.9,4.5,-27.6,0,2018,5,17,22,15,9.81,-0.5188,0.0846,0.5073,-0.6827
0.055,-0.038,-0.172,-39.3,8.3,-27.9,0,2018,5,17,22,15,9.829,-0.5192,0.0916,0.502,-0.6854
-0.081,0.129,0.134,-38.2,-2.1,-26.4,0,2018,5,17,22,15,9.851,-0.5198,0.0976,0.4971,-0.6877
-0.044,0.007,0.102,-47.6,-29.7,-33.1,0,2018,5,17,22,15,9.866,-0.5197,0.1068,0.4944,-0.6883
-0.109,-0.061,-0.03,-53,-51.6,-43,0,2018,5,17,22,15,9.884,-0.5194,0.1189,0.4941,-0.6869
0.045,0.005,-0.15,-45.7,-29.6,-44.3,0,2018,5,17,22,15,9.906,-0.5173,0.1328,0.494,-0.686
-0.059,0.236,-0.014,-30.9,-4.2,-36.1,0,2018,5,17,22,15,9.925,-0.5155,0.1418,0.4916,-0.6873
0.033,-0.017,0.083,-29.6,-23.7,-46.7,0,2018,5,17,22,15,9.947,-0.5128,0.1501,0.4893,-0.6891
0.041,-0.092,0.094,-28.8,-11.7,-40.7,0,2018,5,17,22,15,9.966,-0.5093,0.1597,0.4873,-0.6909
0.058,-0.185,0.144,-31.1,4.8,-39.2,0,2018,5,17,22,15,9.99,-0.5067,0.1674,0.4836,-0.6936
0.012,0.022,0.08,-36.3,10.9,-41.9,0,2018,5,17,22,15,10.026,-0.5049,0.174,0.4775,-0.6976
-0.012,0.153,0.061,-37.3,-7.1,-40.8,0,2018,5,17,22,15,10.049,-0.5033,0.1815,0.472,-0.7006
-0.022,0.093,0.166,-46.3,-11.4,-46.1,0,2018,5,17,22,15,10.054,-0.5015,0.1903,0.4677,-0.7024
0.011,-0.097,0.264,-67.4,48.8,-44.1,0,2018,5,17,22,15,10.069,-0.5015,0.1991,0.4579,-0.7064
0.165,-0.044,0.244,-79.7,80.3,-41.8,0,2018,5,17,22,15,10.087,-0.5047,0.2056,0.4414,-0.7127
0.283,0.074,0.056,-76.6,67.4,-37.7,0,2018,5,17,22,15,10.124,-0.5084,0.2117,0.4232,-0.7193
0.29,0.262,-0.022,-65.3,33.8,-24.7,0,2018,5,17,22,15,10.147,-0.5117,0.2183,0.4093,-0.7231
0.302,0.255,0.051,-61.9,17.7,-9.7,0,2018,5,17,22,15,10.153,-0.5147,0.2255,0.4003,-0.7238
0.128,0.266,0.261,-71.5,22.7,5.5,0,2018,5,17,22,15,10.169,-0.52,0.2319,0.3918,-0.7226
0.064,0.218,0.242,-85.4,9.9,2.1,0,2018,5,17,22,15,10.188,-0.5267,0.2399,0.3824,-0.7202
0.081,0.124,-0.029,-86,-18.6,2.7,0,2018,5,17,22,15,10.209,-0.5324,0.2513,0.375,-0.716
0.107,0.012,-0.062,-80.2,-14.2,12.2,1023,2018,5,17,22,15,10.247,-0.5372,0.2639,0.3699,-0.7105
0.118,-0.016,0.013,-81.1,26.1,25.5,1023,2018,5,17,22,15,10.27,-0.5448,0.2725,0.3624,-0.7053
0.004,0.059,0.055,-90.6,65.7,38.4,1023,2018,5,17,22,15,10.275,-0.5564,0.2763,0.3491,-0.7014
0.008,0.132,-0.131,-94.7,51,39.3,1023,2018,5,17,22,15,10.293,-0.57,0.2787,0.3338,-0.697
0.1,-0.057,-0.269,-86.4,33.4,46.4,1023,2018,5,17,22,15,10.329,-0.5821,0.2838,0.3221,-0.6904
0.057,-0.159,-0.217,-77,51.8,57.1,1023,2018,5,17,22,15,10.329,-0.5949,0.2865,0.3115,-0.6832
-0.026,-0.171,-0.186,-68.7,82.9,63.5,1023,2018,5,17,22,15,10.354,-0.6095,0.2845,0.2987,-0.6769
-0.167,-0.089,-0.381,-52.1,56.1,57.4,1023,2018,5,17,22,15,10.369,-0.6235,0.2806,0.2864,-0.6711
-0.177,-0.249,-0.456,-24.8,16,51.2,1023,2018,5,17,22,15,10.408,-0.6333,0.2788,0.281,-0.6649
-0.246,-0.309,-0.288,-1.4,9,42.6,1023,2018,5,17,22,15,10.43,-0.6397,0.2768,0.2808,-0.6596
-0.321,-0.113,-0.027,8.2,10.4,31.9,1023,2018,5,17,22,15,10.435,-0.6442,0.2732,0.282,-0.6562
-0.402,0.119,0.189,0.9,-13.2,17.1,1023,2018,5,17,22,15,10.452,-0.6469,0.2713,0.2837,-0.6537
-0.273,0.073,0.179,-8.7,-29.3,7.9,1023,2018,5,17,22,15,10.471,-0.6472,0.274,0.2865,-0.651
-0.245,-0.026,0.069,-13.4,-12.7,6.6,0,2018,5,17,22,15,10.492,-0.6475,0.2775,0.2881,-0.6485
-0.241,-0.063,-0.082,-10.9,15.5,3.2,0,2018,5,17,22,15,10.528,-0.6489,0.2783,0.2866,-0.6474
-0.235,-0.081,-0.148,-4.2,26,-0.6,0,2018,5,17,22,15,10.551,-0.6505,0.2765,0.2832,-0.6481
-0.203,-0.066,-0.163,2.1,22.4,-0.9,0,2018,5,17,22,15,10.556,-0.6516,0.2738,0.2802,-0.6494
-0.01,-0.052,-0.131,9.6,20.2,0.6,0,2018,5,17,22,15,10.591,-0.6521,0.2711,0.2788,-0.6506
0.052,0.018,-0.108,18.2,34,7.4,0,2018,5,17,22,15,10.591,-0.6529,0.2669,0.278,-0.6519
0.096,0.08,-0.132,26.8,41.8,11.3,0,2018,5,17,22,15,10.614,-0.6544,0.2602,0.2764,-0.6538
0.101,0.101,-0.131,33.2,35.2,13.6,0,2018,5,17,22,15,10.631,-0.6559,0.2521,0.2757,-0.6558
0.107,-0.024,-0.011,36.2,26.2,15.9,0,2018,5,17,22,15,10.654,-0.6569,0.2448,0.2766,-0.6572
0.107,-0.09,0.178,30.7,33,18.1,0,2018,5,17,22,15,10.689,-0.6581,0.2373,0.2772,-0.6584
0.114,-0.066,0.227,21.2,46.3,21.6,0,2018,5,17,22,15,10.689,-0.6609,0.2288,0.2761,-0.6592
0.036,0.002,0.168,11.1,33.1,19.3,0,2018,5,17,22,15,10.712,-0.6642,0.221,0.2736,-0.6595
0,-0.254,0.096,3.9,47.2,6.6,0,2018,5,17,22,15,10.749,-0.6666,0.2157,0.2709,-0.6599
-0.032,-0.169,-0.017,4.8,104.2,4.8,0,2018,5,17,22,15,10.773,-0.6695,0.2068,0.2636,-0.6628
0.025,-0.037,-0.124,10.3,145.5,13.3,0,2018,5,17,22,15,10.777,-0.6744,0.1913,0.2507,-0.6675
-0.03,0.086,-0.155,16.5,158.5,16.3,0,2018,5,17,22,15,10.811,-0.6804,0.171,0.2352,-0.6726
-0.016,0.143,-0.152,20.2,147,18.2,0,2018,5,17,22,15,10.811,-0.6862,0.149,0.2201,-0.677
0.02,0.069,-0.128,26.8,147.7,17,1023,2018,5,17,22,15,10.835,-0.691,0.1277,0.206,-0.6809
-0.011,0.139,-0.117,32.5,142.7,13.6,1023,2018,5,17,22,15,10.851,-0.6949,0.1054,0.1923,-0.6848
-0.03,0.368,0.024,25.8,80,5.9,1023,2018,5,17,22,15,10.874,-0.6969,0.0871,0.1825,-0.6879
-0.052,0.256,0.154,16.7,-7.8,0.6,1023,2018,5,17,22,15,10.892,-0.6971,0.0807,0.1813,-0.6888
-0.011,-0.043,0.129,11.8,-32.8,1.2,1023,2018,5,17,22,15,10.915,-0.6964,0.0823,0.186,-0.6881
0.033,-0.165,-0.015,16.1,4.6,7.4,1023,2018,5,17,22,15,10.952,-0.696,0.0831,0.1902,-0.6873
0.009,-0.104,0.026,21.2,40.1,9.9,1023,2018,5,17,22,15,10.974,-0.6969,0.0773,0.1897,-0.6872
-0.072,0.011,0.096,10,22.3,2.3,1023,2018,5,17,22,15,10.976,-0.6976,0.0707,0.1878,-0.6877
-0.039,-0.066,-0.003,1.2,-2.3,-0.6,1023,2018,5,17,22,15,10.995,-0.6977,0.0687,0.1876,-0.6879
-0.002,-0.073,-0.053,0.7,9.9,1.6,1023,2018,5,17,22,15,11.017,-0.6975,0.0691,0.1885,-0.6878
-0.002,0.001,0.02,-0.8,16,-0.4,1023,2018,5,17,22,15,11.036,-0.6977,0.0674,0.187,-0.6881
-0.002,0.017,0.014,-2.3,13.5,-1.1,1023,2018,5,17,22,15,11.058,-0.6977,0.066,0.185,-0.6888
-0.017,0.054,-0.023,-2.6,12.4,2,1023,2018,5,17,22,15,11.076,-0.6981,0.0643,0.1829,-0.6891
-0.016,-0.059,-0.042,1.5,32,2.4,1023,2018,5,17,22,15,11.096,-0.6986,0.062,0.1809,-0.6894
0.007,0.082,-0.03,3.9,36,5.7,1023,2018,5,17,22,15,11.133,-0.6995,0.0567,0.1765,-0.69
0.017,0.045,-0.009,3.4,23,3.8,1023,2018,5,17,22,15,11.133,-0.7003,0.0524,0.1734,-0.6904
0.007,0.049,-0.028,3.1,14,4.4,1023,2018,5,17,22,15,11.156,-0.7009,0.0495,0.1713,-0.6905
0.001,0.012,-0.009,3.2,4.3,5.1,1023,2018,5,17,22,15,11.193,-0.7016,0.0477,0.1705,-0.6901
0.004,0.028,0.038,2,1.7,5.2,0,2018,5,17,22,15,11.193,-0.7022,0.0467,0.1704,-0.6896
-0.006,-0.025,0.024,0.9,-4.7,7.4,0,2018,5,17,22,15,11.216,-0.703,0.0464,0.1706,-0.6888
0,-0.105,-0.02,0.9,1.7,7.8,0,2018,5,17,22,15,11.254,-0.7037,0.0468,0.1716,-0.6878
-0.004,0.024,-0.012,1.7,10.7,5.7,0,2018,5,17,22,15,11.276,-0.7045,0.0452,0.1709,-0.6872
0.013,-0.032,0.011,1.6,6.8,4.5,0,2018,5,17,22,15,11.282,-0.7051,0.0442,0.1704,-0.6868
0.003,-0.005,0.01,1.4,11,4,0,2018,5,17,22,15,11.299,-0.7056,0.0429,0.1695,-0.6866
-0.001,0.014,-0.013,0.6,10.4,2.4,0,2018,5,17,22,15,11.321,-0.706,0.0413,0.1683,-0.6865
-0.001,0.025,-0.015,-0.3,8.7,2.1,0,2018,5,17,22,15,11.339,-0.7064,0.0399,0.1671,-0.6865
0,0.03,-0.009,-0.6,5.9,1.6,0,2018,5,17,22,15,11.363,-0.7068,0.0388,0.166,-0.6865
0,0.015,-0.005,-0.8,4.9,1.2,0,2018,5,17,22,15,11.378,-0.707,0.038,0.1652,-0.6865
-0.007,0.014,-0.002,-1,3.1,0.3,0,2018,5,17,22,15,11.396,-0.7072,0.0373,0.1645,-0.6865
0.001,0.012,-0.028,-0.7,1.2,0.1,0,2018,5,17,22,15,11.419,-0.7073,0.0371,0.1642,-0.6865
0.005,0.006,-0.017,0.5,0,0.9,0,2018,5,17,22,15,11.437,-0.7074,0.037,0.1641,-0.6864
0.001,0.006,0.001,1.2,0.3,1.7,0,2018,5,17,22,15,11.459,-0.7075,0.0368,0.1642,-0.6862
-0.008,-0.007,-0.002,1.3,2.7,2.1,0,2018,5,17,22,15,11.477,-0.708,0.0357,0.1639,-0.6859
-0.003,0.006,-0.018,0.1,2.2,3.8,0,2018,5,17,22,15,11.5,-0.7082,0.0357,0.1641,-0.6856
-0.018,-0.013,-0.013,1.8,8.8,-0.1,0,2018,5,17,22,15,11.519,-0.7084,0.0349,0.1639,-0.6855
0.012,-0.005,0.008,0,2.8,1.2,0,2018,5,17,22,15,11.542,-0.7086,0.0339,0.1629,-0.6856
-0.003,0.002,0.006,-0.2,7.7,1.3,0,2018,5,17,22,15,11.56,-0.7088,0.0332,0.1623,-0.6856
0.014,0.014,-0.01,0,8.3,0.8,0,2018,5,17,22,15,11.583,-0.709,0.0321,0.1612,-0.6857
0.015,0.025,-0.014,0.3,6.1,0.1,1023,2018,5,17,22,15,11.599,-0.7091,0.0312,0.1602,-0.6859
0.008,0.027,-0.021,0.3,2.9,-0.4,1023,2018,5,17,22,15,11.617,-0.7091,0.0304,0.1595,-0.686
0.003,0.028,-0.017,0,-1.6,-0.9,1023,2018,5,17,22,15,11.64,-0.7091,0.0302,0.1593,-0.6861
0,0.012,-0.007,-0.3,-4.3,-1.3,1023,2018,5,17,22,15,11.658,-0.7089,0.0305,0.1596,-0.6862
-0.002,0.004,-0.015,-0.6,-5.2,-1.4,1023,2018,5,17,22,15,11.682,-0.7088,0.0312,0.1601,-0.6862
0,0,-0.009,-0.6,-6.2,-1.2,1023,2018,5,17,22,15,11.698,-0.7086,0.032,0.1607,-0.6862
0,0.005,0,-0.4,-6.4,-1.2,1023,2018,5,17,22,15,11.721,-0.7084,0.0328,0.1614,-0.6862
0,-0.002,-0.007,-0.4,-5.1,-0.9,1023,2018,5,17,22,15,11.739,-0.7083,0.0336,0.162,-0.6861
-0.001,-0.006,-0.007,-0.3,-3.6,-0.6,1023,2018,5,17,22,15,11.763,-0.7082,0.0343,0.1626,-0.6861
0,-0.006,-0.007,-0.1,-1.9,-0.3,0,2018,5,17,22,15,11.798,-0.7081,0.0347,0.1629,-0.6861
0.002,0.001,-0.008,0,-1.4,-0.3,0,2018,5,17,22,15,11.82,-0.7081,0.0349,0.1631,-0.686
0.001,0.006,-0.009,0.3,-1.3,-0.3,0,2018,5,17,22,15,11.823,-0.708,0.0351,0.1633,-0.686
-0.001,0.002,-0.002,0.1,-1.4,-0.1,0,2018,5,17,22,15,11.858,-0.708,0.0352,0.1635,-0.686
0.005,0,-0.008,0.1,-1.1,0,0,2018,5,17,22,15,11.858,-0.7079,0.0354,0.1637,-0.686
0.003,0.002,-0.004,0,0,0,0,2018,5,17,22,15,11.893,-0.7079,0.0354,0.1638,-0.686
0.001,0,-0.009,0,0,0,0,2018,5,17,22,15,11.901,-0.7079,0.0354,0.1638,-0.686
0.005,0.01,-0.012,0,0,0,0,2018,5,17,22,15,11.936,-0.7079,0.0354,0.1638,-0.686
0.001,0.01,-0.003,0.1,-1.1,-0.2,0,2018,5,17,22,15,11.958,-0.7079,0.0354,0.1638,-0.686
0.001,0.003,-0.008,0,-1.3,-0.4,0,2018,5,17,22,15,11.962,-0.7079,0.0355,0.164,-0.686
-0.001,0.004,-0.004,-0.2,-1.7,-0.7,0,2018,5,17,22,15,11.997,-0.7078,0.0357,0.1641,-0.686
0.002,0,-0.01,0.1,-0.7,-0.5,0,2018,5,17,22,15,12.018,-0.7077,0.0359,0.1643,-0.6861
0.001,0.003,-0.007,0,0,0,0,2018,5,17,22,15,12.025,-0.7077,0.0359,0.1643,-0.6861
0.002,0.001,-0.014,0.1,1.4,-0.4,0,2018,5,17,22,15,12.061,-0.7077,0.0358,0.1642,-0.6862
-0.002,0,-0.004,-0.1,1.3,-0.4,0,2018,5,17,22,15,12.061,-0.7076,0.0356,0.164,-0.6863
-0.004,-0.008,-0.009,-0.9,2.9,-0.7,0,2018,5,17,22,15,12.081,-0.7075,0.0355,0.1638,-0.6864
0.001,-0.021,-0.004,-3,7,-0.9,0,2018,5,17,22,15,12.116,-0.7075,0.0352,0.1632,-0.6866
-0.011,-0.019,0.015,-2.8,11.3,-1.7,0,2018,5,17,22,15,12.137,-0.7074,0.0345,0.1618,-0.687
0,-0.032,0.008,-4.3,16.7,-2.2,0,2018,5,17,22,15,12.14,-0.7073,0.0334,0.1598,-0.6876
0.014,0.005,-0.004,-4,35.7,-2,0,2018,5,17,22,15,12.176,-0.7073,0.0309,0.1562,-0.6886
0.011,-0.026,-0.006,-4.6,24.9,-4,0,2018,5,17,22,15,12.197,-0.7072,0.0279,0.1521,-0.6898
0.008,-0.002,-0.018,-4.9,25.3,-4.5,1023,2018,5,17,22,15,12.202,-0.7068,0.0257,0.1486,-0.691
-0.016,0.028,0.045,-8.5,20.8,-7.3,1023,2018,5,17,22,15,12.239,-0.7065,0.0235,0.1448,-0.6923
0.011,0.012,0.036,-13.1,20.8,-9.8,1023,2018,5,17,22,15,12.262,-0.7058,0.0225,0.1409,-0.6938
0.134,-0.054,-0.058,-9,31.2,-8.3,1023,2018,5,17,22,15,12.266,-0.705,0.0217,0.1361,-0.6956
0.122,-0.059,0.034,-1.5,49.9,-4.4,1023,2018,5,17,22,15,12.299,-0.7045,0.0172,0.1305,-0.6973
0.074,-0.083,0.041,0.8,57.2,-2.4,1023,2018,5,17,22,15,12.322,-0.7042,0.0115,0.1234,-0.699
0.092,-0.035,-0.077,8.1,52.4,4,1023,2018,5,17,22,15,12.324,-0.7042,0.0053,0.1169,-0.7002
0.112,-0.046,-0.138,23.6,44,13.9,1023,2018,5,17,22,15,12.36,-0.705,-0.0019,0.1129,-0.7
-0.051,-0.03,-0.137,38.2,53.3,21.7,1023,2018,5,17,22,15,12.382,-0.7065,-0.0113,0.1113,-0.6987
-0.252,0.1,-0.069,45.6,61.7,24.5,1023,2018,5,17,22,15,12.383,-0.7084,-0.0245,0.1097,-0.6967
0.01,0.131,-0.135,52,41.4,30.5,1023,2018,5,17,22,15,12.42,-0.7104,-0.0375,0.1089,-0.6942
0.086,0.21,-0.233,73.8,24.4,41.1,1023,2018,5,17,22,15,12.442,-0.7135,-0.0503,0.112,-0.6897
0.016,0.208,0.064,88.7,4.9,36.8,1023,2018,5,17,22,15,12.446,-0.7165,-0.0628,0.1202,-0.6842
-0.053,0.1,0.112,94.5,-10.9,29.3,0,2018,5,17,22,15,12.48,-0.7184,-0.0747,0.1314,-0.6789
-0.063,-0.092,0.116,99.5,-11.5,24.3,0,2018,5,17,22,15,12.5,-0.7194,-0.0852,0.145,-0.6738
-0.083,-0.206,0.2,105.5,18.4,23.8,0,2018,5,17,22,15,12.506,-0.7193,-0.0978,0.1577,-0.6693
0.009,-0.145,0.093,112.1,63.2,23.7,0,2018,5,17,22,15,12.541,-0.7182,-0.1164,0.166,-0.6655
-0.08,0.01,0.099,119.5,87.1,14.3,0,2018,5,17,22,15,12.562,-0.7152,-0.14,0.1713,-0.6628
-0.128,0.03,0.059,124.2,92.3,2.7,0,2018,5,17,22,15,12.569,-0.7098,-0.1665,0.1761,-0.6612
-0.274,-0.115,0.021,110.3,70.1,-4,0,2018,5,17,22,15,12.586,-0.7034,-0.1908,0.1816,-0.66
-0.337,0.01,-0.208,97.4,-0.2,-22.8,0,2018,5,17,22,15,12.607,-0.6974,-0.2069,0.1902,-0.6591
-0.214,-0.14,-0.125,89.2,-46.1,-43.3,0,2018,5,17,22,15,12.643,-0.6913,-0.2123,0.2064,-0.6589
-0.451,0.219,-0.19,79.5,-80.1,-47.9,0,2018,5,17,22,15,12.666,-0.6853,-0.2127,0.2255,-0.6589
-0.9,0.232,-0.576,78.2,-95,-75.3,0,2018,5,17,22,15,12.67,-0.6789,-0.2096,0.2468,-0.6589
-0.792,-0.342,-0.641,80.4,-89.3,-129.8,0,2018,5,17,22,15,12.689,-0.6661,-0.2028,0.2708,-0.6645
-0.614,-0.514,-0.673,94.6,-87.1,-170.1,0,2018,5,17,22,15,12.707,-0.6472,-0.1956,0.296,-0.6746
-0.48,-0.911,-0.641,122.3,-74.8,-210.8,0,2018,5,17,22,15,12.73,-0.6213,-0.1891,0.3244,-0.6877
-0.264,-0.979,-0.816,146.2,-33.3,-232.9,0,2018,5,17,22,15,12.747,-0.5877,-0.1863,0.3525,-0.7039
0.111,-0.435,-0.511,176.1,23.7,-224.1,0,2018,5,17,22,15,12.77,-0.549,-0.1918,0.3762,-0.7212
0.17,0.35,0.11,172,11.4,-212.3,0,2018,5,17,22,15,12.807,-0.508,-0.2012,0.398,-0.7368
0.722,0.586,0.667,150.5,-43.7,-202,0,2018,5,17,22,15,12.807,-0.4702,-0.2051,0.4216,-0.7476
0.873,1.812,0.812,118.6,-19.5,-96.5,1023,2018,5,17,22,15,12.829,-0.4422,-0.2087,0.4418,-0.752
1.15,2.347,0.863,101.1,61.2,-4.4,1023,2018,5,17,22,15,12.847,-0.4265,-0.2205,0.4496,-0.7531
0.24,1.797,1.335,66.5,52.8,79.5,1023,2018,5,17,22,15,12.869,-0.4233,-0.2419,0.4427,-0.7524
-0.361,-3.047,0.698,34.9,-104.6,-65.8,1023,2018,5,17,22,15,12.89,-0.4232,-0.2431,0.4562,-0.744
-0.154,0.421,-0.318,59,145.4,27.1,1023,2018,5,17,22,15,12.926,-0.4149,-0.2495,0.4545,-0.7476
-0.798,0.367,0.023,51.3,27.6,5.4,1023,2018,5,17,22,15,12.926,-0.4087,-0.2659,0.4457,-0.7506
-0.595,-0.096,0.22,24.2,-19,-19.2,1023,2018,5,17,22,15,12.948,-0.4048,-0.2698,0.4496,-0.749
0.155,0.025,-0.163,7.2,-32.9,-5.4,1023,2018,5,17,22,15,12.984,-0.4033,-0.2691,0.4545,-0.7471
0.184,-0.243,0.001,13.6,-13,0.9,1023,2018,5,17,22,15,13.005,-0.4037,-0.2684,0.4587,-0.7446
0,-0.026,0.054,22.3,11.5,9.8,1023,2018,5,17,22,15,13.012,-0.4026,-0.2712,0.4592,-0.7438
-0.053,-0.033,0.07,23.8,8.4,11.2,1023,2018,5,17,22,15,13.048,-0.4018,-0.2759,0.4586,-0.743
0.02,0.016,-0.002,23.5,6.9,13.8,1023,2018,5,17,22,15,13.069,-0.4013,-0.2805,0.4584,-0.7416
-0.044,0.038,-0.029,21.8,6.1,17.3,1023,2018,5,17,22,15,13.07,-0.4013,-0.2853,0.4579,-0.74
-0.024,0.027,-0.016,18.2,-0.6,17.9,1023,2018,5,17,22,15,13.109,-0.4021,-0.2897,0.4578,-0.738
-0.009,-0.044,0.006,17,-3.4,17.7,1023,2018,5,17,22,15,13.131,-0.4031,-0.2929,0.4587,-0.7356
0.016,-0.047,-0.049,17.5,-1,19.3,1023,2018,5,17,22,15,13.132,-0.4039,-0.2963,0.4598,-0.7331
0.059,0.027,-0.088,20.9,5.7,23.6,0,2018,5,17,22,15,13.167,-0.4048,-0.3006,0.4599,-0.7308
0.008,0.039,0.021,23.4,9.9,26.3,0,2018,5,17,22,15,13.188,-0.4057,-0.3059,0.4591,-0.7286
-0.016,0.061,0.023,21.8,9.7,28.2,0,2018,5,17,22,15,13.19,-0.4069,-0.3116,0.4577,-0.7263
0.018,0.042,-0.039,16.8,3.8,29.1,0,2018,5,17,22,15,13.225,-0.4088,-0.3169,0.4567,-0.7237
0.048,0.002,-0.022,14.2,1.8,30.6,0,2018,5,17,22,15,13.246,-0.4113,-0.3213,0.4557,-0.721
-0.039,-0.032,0.069,15.4,1.2,32.2,0,2018,5,17,22,15,13.253,-0.4141,-0.3257,0.4547,-0.718
-0.099,0.028,0.042,16.5,1.4,33.5,0,2018,5,17,22,15,13.288,-0.417,-0.3308,0.4536,-0.7147
-0.033,0.013,-0.017,13.9,-6.4,32.9,0,2018,5,17,22,15,13.31,-0.4203,-0.3358,0.453,-0.7108
0.074,0.069,-0.013,16.4,-11,36.3,0,2018,5,17,22,15,13.314,-0.4239,-0.3398,0.4533,-0.7065
0.065,0.031,-0.01,17.1,-10.8,32.6,0,2018,5,17,22,15,13.348,-0.4273,-0.3436,0.4541,-0.7021
-0.035,-0.044,0.043,19,-15.9,30.3,0,2018,5,17,22,15,13.37,-0.4308,-0.3477,0.455,-0.6973
-0.023,-0.011,0.06,22.9,-13.1,30.3,0,2018,5,17,22,15,13.375,-0.4337,-0.3514,0.4563,-0.6928
0.041,0.058,-0.044,27.5,-13.2,29.9,0,2018,5,17,22,15,13.39,-0.4363,-0.3558,0.4577,-0.688
0,-0.004,0.005,33.4,-15.1,23.8,0,2018,5,17,22,15,13.414,-0.4381,-0.3606,0.4597,-0.683
-0.044,0.037,0.016,40.7,-15,18.1,0,2018,5,17,22,15,13.433,-0.4387,-0.3658,0.4629,-0.6777
-0.052,0.019,0.011,45,-16,10.3,0,2018,5,17,22,15,13.455,-0.438,-0.3709,0.4671,-0.6725
-0.004,0.04,0.022,47.8,-18,3.1,1023,2018,5,17,22,15,13.473,-0.4362,-0.3762,0.4721,-0.6671
0.049,0.025,0.022,55.6,-24.5,0.7,1023,2018,5,17,22,15,13.497,-0.4338,-0.3811,0.4782,-0.6616
-0.032,0.028,0.005,57.1,-31.6,-4.7,1023,2018,5,17,22,15,13.514,-0.4308,-0.3853,0.4854,-0.6558
-0.074,0.014,0.018,55.4,-49.3,-9.1,1023,2018,5,17,22,15,13.536,-0.4282,-0.3882,0.4945,-0.649
-0.044,-0.052,0.035,59,-52.1,-11.7,1023,2018,5,17,22,15,13.557,-0.4254,-0.3899,0.5053,-0.6415
0.008,0.046,-0.01,66,-56.1,-14,1023,2018,5,17,22,15,13.575,-0.4223,-0.3918,0.5166,-0.6333
-0.02,0.018,0.025,73.7,-60.7,-20.4,1023,2018,5,17,22,15,13.598,-0.4183,-0.394,0.5289,-0.6244
-0.029,0.06,-0.008,74.2,-62.4,-23.3,1023,2018,5,17,22,15,13.615,-0.4137,-0.3957,0.5422,-0.6149
0.023,-0.03,0,75.4,-58.7,-24.6,1023,2018,5,17,22,15,13.632,-0.4083,-0.3971,0.5557,-0.6054
-0.038,-0.085,0.018,80.6,-49.5,-24.7,1023,2018,5,17,22,15,13.655,-0.4016,-0.399,0.5688,-0.5964
-0.043,-0.005,0.03,84.5,-39.4,-22.1,1023,2018,5,17,22,15,13.673,-0.394,-0.4019,0.5807,-0.5881
-0.001,0.023,-0.108,87.1,-35.3,-20,1023,2018,5,17,22,15,13.695,-0.386,-0.4059,0.5917,-0.5796
-0.117,0.088,0.043,84.7,-50.7,-22.6,1023,2018,5,17,22,15,13.734,-0.378,-0.4104,0.6026,-0.5704
-0.117,-0.055,0.07,83.4,-66.1,-27.4,1023,2018,5,17,22,15,13.756,-0.3711,-0.4121,0.6157,-0.5596
-0.107,0.081,-0.051,80.1,-73.1,-25.8,1023,2018,5,17,22,15,13.761,-0.3649,-0.4124,0.6295,-0.548
-0.156,0.301,-0.083,77.6,-83.7,-17.5,0,2018,5,17,22,15,13.779,-0.3598,-0.4123,0.6437,-0.5349
-0.114,-0.056,0.103,64.6,-85.3,-25.1,0,2018,5,17,22,15,13.797,-0.3563,-0.4111,0.6574,-0.5213
-0.101,0.129,0.08,63.5,-80.1,-16.1,0,2018,5,17,22,15,13.819,-0.3531,-0.4093,0.6701,-0.5085
-0.132,-0.014,0.099,66.9,-58.7,-16.7,0,2018,5,17,22,15,13.837,-0.3494,-0.4088,0.6811,-0.4967
-0.186,0.116,0.117,64.4,-42.4,-10,0,2018,5,17,22,15,13.859,-0.3442,-0.4101,0.6899,-0.4869
-0.142,0.204,0.108,62.7,-39.7,-8.6,0,2018,5,17,22,15,13.877,-0.3386,-0.4119,0.6978,-0.478
-0.106,0.276,0.117,62.2,-32.8,-5.9,0,2018,5,17,22,15,13.895,-0.3332,-0.4139,0.7051,-0.4694
-0.085,0.413,0.123,63,-30.7,-0.9,0,2018,5,17,22,15,13.917,-0.3272,-0.4169,0.7114,-0.4613
-0.175,0.212,0.125,60.3,-17.5,-2.9,0,2018,5,17,22,15,13.937,-0.3212,-0.42,0.7171,-0.4537
-0.211,0.036,0.036,64.2,25.2,-1,0,2018,5,17,22,15,13.956,-0.3132,-0.4247,0.7204,-0.4498
-0.28,0.155,0.022,60.4,73.7,1.6,0,2018,5,17,22,15,13.978,-0.3015,-0.4324,0.7196,-0.4517
-0.263,0.37,0.098,55.6,101.2,14.8,0,2018,5,17,22,15,14.016,-0.2879,-0.4426,0.7149,-0.4582
-0.295,0.454,0.216,44.2,119.7,35.1,0,2018,5,17,22,15,14.039,-0.275,-0.4554,0.7064,-0.4667
-0.241,0.392,0.275,20.9,141.5,49.3,0,2018,5,17,22,15,14.043,-0.2641,-0.4694,0.6938,-0.4779
-0.238,0.231,0.523,0.3,177,60.1,0,2018,5,17,22,15,14.059,-0.2543,-0.4841,0.6762,-0.4935
-0.104,0.253,0.65,-22.7,195.9,59.6,1023,2018,5,17,22,15,14.079,-0.2443,-0.4983,0.6534,-0.5147
-0.085,0.836,0.478,-29.9,93.3,80.6,1023,2018,5,17,22,15,14.103,-0.2406,-0.51,0.6322,-0.5311
-0.016,0.686,0.512,-51.7,-50.6,89,1023,2018,5,17,22,15,14.117,-0.2514,-0.5161,0.6213,-0.5332
-0.064,0.726,0.357,-70.7,-170.9,118.8,1023,2018,5,17,22,15,14.136,-0.2782,-0.5165,0.6197,-0.5212
-0.062,0.53,0.235,-90.5,-247.6,137.9,1023,2018,5,17,22,15,14.159,-0.3178,-0.512,0.623,-0.4986
-0.099,0.292,0.187,-114,-280.6,153.2,1023,2018,5,17,22,15,14.177,-0.3648,-0.5036,0.6267,-0.4695
-0.199,0.018,0.117,-141.4,-288.8,164.9,1023,2018,5,17,22,15,14.2,-0.4165,-0.4916,0.6264,-0.4385
-0.323,-0.101,0.059,-167.3,-284.4,164,1023,2018,5,17,22,15,14.236,-0.4704,-0.4753,0.6213,-0.4083
-0.379,-0.263,-0.019,-195.7,-270.8,160,1023,2018,5,17,22,15,14.258,-0.5236,-0.4561,0.6112,-0.3794
-0.41,-0.495,-0.182,-221,-266.5,141.5,1023,2018,5,17,22,15,14.264,-0.5761,-0.4332,0.5963,-0.353
-0.522,-0.749,-0.324,-240.7,-266.1,106.2,1023,2018,5,17,22,15,14.281,-0.6268,-0.4041,0.5788,-0.3296
-0.576,-0.657,-0.393,-256,-280.6,60.3,1023,2018,5,17,22,15,14.303,-0.6746,-0.3676,0.56,-0.3099
-0.585,-0.53,-0.424,-261.5,-301.1,5,1023,2018,5,17,22,15,14.321,-0.7188,-0.3215,0.5418,-0.2937
-0.547,-0.397,-0.586,-256.2,-326.4,-55.6,1023,2018,5,17,22,15,14.343,-0.7577,-0.2657,0.5253,-0.2812
-0.482,-0.305,-0.694,-230.9,-333.9,-124.2,0,2018,5,17,22,15,14.361,-0.7889,-0.2008,0.512,-0.2737
-0.441,-0.215,-0.737,-185.4,-311.7,-181.7,0,2018,5,17,22,15,14.382,-0.8093,-0.1318,0.503,-0.2729
-0.39,-0.058,-0.75,-125.9,-263.3,-223.9,0,2018,5,17,22,15,14.4,-0.8179,-0.0654,0.4984,-0.2796
-0.368,0.043,-0.75,-61.7,-209.7,-248.3,0,2018,5,17,22,15,14.437,-0.8155,-0.0063,0.4986,-0.2935
-0.332,0.06,-0.689,2.7,-127.5,-250.3,0,2018,5,17,22,15,14.459,-0.804,0.0411,0.5029,-0.3142
-0.397,0.08,-0.556,56.9,-5.7,-228.9,0,2018,5,17,22,15,14.464,-0.7867,0.0694,0.509,-0.3421
-0.433,0.098,-0.49,92.5,136.4,-197.7,0,2018,5,17,22,15,14.483,-0.7674,0.074,0.5124,-0.3781
-0.455,0.199,-0.517,111,263.2,-167,0,2018,5,17,22,15,14.501,-0.7478,0.0558,0.5096,-0.4217
-0.426,0.288,-0.595,115.7,355.1,-135.8,0,2018,5,17,22,15,14.524,-0.7281,0.0195,0.4988,-0.4696
-0.396,0.417,-0.669,113.6,404.3,-106.2,0,2018,5,17,22,15,14.543,-0.7076,-0.0284,0.48,-0.5176
-0.327,0.597,-0.682,110.7,395.7,-76.6,0,2018,5,17,22,15,14.565,-0.6859,-0.0812,0.4563,-0.5609
-0.31,0.73,-0.616,111.2,325.5,-55,0,2018,5,17,22,15,14.586,-0.6639,-0.1304,0.4339,-0.5947
-0.28,0.792,-0.527,113.1,209.9,-40.8,0,2018,5,17,22,15,14.599,-0.6435,-0.1695,0.4197,-0.6171
-0.23,0.767,-0.464,118.6,75.8,-30,0,2018,5,17,22,15,14.639,-0.6266,-0.1953,0.4186,-0.6275
-0.177,0.691,-0.453,126.6,-49.7,-15.6,0,2018,5,17,22,15,14.661,-0.6146,-0.2081,0.432,-0.6262
-0.163,0.635,-0.439,135.3,-151.1,4,0,2018,5,17,22,15,14.666,-0.6074,-0.211,0.4577,-0.6139
-0.167,0.568,-0.405,140.9,-225.1,29.4,0,2018,5,17,22,15,14.681,-0.6046,-0.2068,0.4921,-0.5911
-0.202,0.475,-0.337,142.9,-266.6,62.9,0,2018,5,17,22,15,14.703,-0.6052,-0.1993,0.5307,-0.5588
-0.24,0.356,-0.266,141.5,-277.4,100.1,1023,2018,5,17,22,15,14.722,-0.6084,-0.1917,0.5688,-0.519
-0.276,0.248,-0.18,136.4,-266,137.5,1023,2018,5,17,22,15,14.744,-0.6134,-0.1872,0.6035,-0.4736
-0.311,0.117,-0.091,127.3,-233.9,172.1,1023,2018,5,17,22,15,14.762,-0.6195,-0.1877,0.6323,-0.4255
-0.331,0.03,-0.052,116.2,-196.4,200,1023,2018,5,17,22,15,14.784,-0.6259,-0.1946,0.6544,-0.3766
-0.37,-0.048,-0.037,104,-166.2,218.5,1023,2018,5,17,22,15,14.82,-0.6324,-0.2064,0.6704,-0.3285
-0.427,-0.138,-0.005,91.5,-142.2,226.2,1023,2018,5,17,22,15,14.843,-0.6383,-0.2207,0.6812,-0.2822
-0.454,-0.216,0.051,77.5,-122.5,224.1,1023,2018,5,17,22,15,14.848,-0.6438,-0.2357,0.6876,-0.2388
-0.442,-0.284,0.101,61.9,-112.4,212.7,1023,2018,5,17,22,15,14.865,-0.6488,-0.2513,0.6905,-0.1973
-0.36,-0.351,0.155,44.3,-111.9,191.7,1023,2018,5,17,22,15,14.887,-0.6538,-0.2645,0.6909,-0.1585
-0.24,-0.41,0.193,25.1,-117.2,161.7,1023,2018,5,17,22,15,14.905,-0.6594,-0.2732,0.6894,-0.123
-0.104,-0.462,0.201,5.3,-122.6,126.8,1023,2018,5,17,22,15,14.923,-0.6662,-0.2766,0.6864,-0.0913
0.013,-0.494,0.174,-14,-123.4,91.1,1023,2018,5,17,22,15,14.946,-0.6743,-0.2747,0.6823,-0.0643
0.108,-0.493,0.148,-28.1,-121.8,55.6,1023,2018,5,17,22,15,14.964,-0.6835,-0.2682,0.6775,-0.0424
0.183,-0.536,0.128,-39.1,-112,24.2,1023,2018,5,17,22,15,14.986,-0.6932,-0.2584,0.6722,-0.0254
0.215,-0.556,0.091,-46.9,-96.4,-2.5,1023,2018,5,17,22,15,15.023,-0.7029,-0.2465,0.6669,-0.0141
0.23,-0.562,0.069,-52.8,-80.3,-25.6,1023,2018,5,17,22,15,15.044,-0.7125,-0.2335,0.6615,-0.008
0.257,-0.56,0.036,-57.5,-67.1,-45.6,0,2018,5,17,22,15,15.046,-0.7217,-0.2199,0.6562,-0.0064
0.275,-0.538,0.008,-59,-54.8,-63.9,0,2018,5,17,22,15,15.084,-0.7307,-0.2055,0.6509,-0.0088
0.271,-0.51,-0.008,-57.9,-44.1,-77.9,0,2018,5,17,22,15,15.105,-0.7389,-0.1907,0.646,-0.0145
0.229,-0.466,-0.007,-54.6,-32,-89.2,0,2018,5,17,22,15,15.107,-0.7462,-0.1759,0.6415,-0.023
0.181,-0.431,-0.019,-50.1,-18.4,-97.2,0,2018,5,17,22,15,15.144,-0.7523,-0.1619,0.6375,-0.034
0.16,-0.386,-0.051,-43.5,-5.9,-103.9,0,2018,5,17,22,15,15.144,-0.7572,-0.1485,0.6342,-0.0473
0.156,-0.353,-0.073,-34.2,4.9,-108.7,0,2018,5,17,22,15,15.165,-0.7605,-0.1361,0.6318,-0.0624
0.104,-0.331,-0.053,-22.4,20.1,-112.2,0,2018,5,17,22,15,15.201,-0.7619,-0.1251,0.6304,-0.0792
0.008,-0.302,-0.016,-12.4,39,-115.5,0,2018,5,17,22,15,15.222,-0.7614,-0.116,0.6301,-0.098
-0.044,-0.259,-0.023,-4.6,58.4,-119.5,0,2018,5,17,22,15,15.227,-0.7592,-0.1093,0.6304,-0.1193
-0.089,-0.212,-0.04,2.4,76.6,-124.3,0,2018,5,17,22,15,15.264,-0.7552,-0.1048,0.631,-0.1429
-0.129,-0.158,-0.046,7.9,95.2,-130.2,0,2018,5,17,22,15,15.286,-0.7496,-0.1022,0.6316,-0.1691
-0.166,-0.107,-0.037,11.1,116,-135.3,0,2018,5,17,22,15,15.29,-0.7419,-0.1012,0.6323,-0.1983
-0.213,-0.047,-0.028,10.9,138.8,-140.4,0,2018,5,17,22,15,15.307,-0.7329,-0.1026,0.6318,-0.2302
-0.228,0.012,-0.039,8.6,158.5,-144.1,0,2018,5,17,22,15,15.329,-0.7226,-0.1065,0.6296,-0.2644
-0.244,0.076,-0.05,4.5,173.8,-145.9,0,2018,5,17,22,15,15.366,-0.7113,-0.1124,0.6254,-0.3002
-0.295,0.12,-0.06,-0.9,189.9,-144.5,0,2018,5,17,22,15,15.366,-0.6993,-0.1193,0.6185,-0.3377
-0.296,0.198,-0.104,-8.1,202,-139.4,0,2018,5,17,22,15,15.386,-0.6866,-0.1279,0.6088,-0.3761
