time_1,time_2,time_3,time_4,time_5,time_6,w,x,y,z,droll,dpitch,dyaw,ax,ay,az,heart
2018,4,26,14,43,5.36,-0.0891,0.2361,-0.0101,-0.9675,0,0,0,-0.003,-0.001,-0.002,1023
2018,4,26,14,43,5.365,-0.0891,0.2361,-0.0101,-0.9675,0,0,0,-0.002,-0.001,-0.001,1023
2018,4,26,14,43,5.382,-0.0892,0.2361,-0.0101,-0.9675,0,0,0,0,-0.002,0.005,1023
2018,4,26,14,43,5.401,-0.0891,0.236,-0.01,-0.9675,0.5,-0.1,-0.2,-0.001,0,0.004,1023
2018,4,26,14,43,5.42,-0.0891,0.236,-0.0101,-0.9675,0,0,0,-0.001,0.003,0.001,1023
2018,4,26,14,43,5.441,-0.0891,0.236,-0.0101,-0.9675,0,0,0,0.002,0.007,0,1023
2018,4,26,14,43,5.478,-0.0891,0.236,-0.0102,-0.9675,0,0,0,-0.003,0.004,-0.002,1023
2018,4,26,14,43,5.498,-0.0891,0.236,-0.0102,-0.9675,0,0,0,-0.004,0.005,-0.011,0
2018,4,26,14,43,5.502,-0.0891,0.236,-0.0103,-0.9675,0,0,0,-0.004,0.007,-0.006,0
2018,4,26,14,43,5.521,-0.0891,0.236,-0.0104,-0.9675,-0.6,0,0,-0.003,0.004,0.001,0
2018,4,26,14,43,5.541,-0.0891,0.236,-0.0102,-0.9675,-1,0.2,0.3,0,0.003,0,0
2018,4,26,14,43,5.58,-0.0891,0.236,-0.0102,-0.9675,-0.9,0.1,0.2,0.001,0,0.001,0
2018,4,26,14,43,5.6,-0.0892,0.236,-0.0102,-0.9675,0,0,0,0.001,-0.001,0.004,0
2018,4,26,14,43,5.604,-0.0892,0.236,-0.0102,-0.9675,-0.1,0.5,0.1,-0.001,0,-0.001,0
2018,4,26,14,43,5.625,-0.0892,0.2359,-0.0101,-0.9675,0,0,0,-0.005,0.001,-0.001,0
2018,4,26,14,43,5.641,-0.0892,0.2358,-0.0098,-0.9676,-0.9,0.3,0,-0.001,0,-0.001,0
2018,4,26,14,43,5.661,-0.0891,0.2358,-0.0095,-0.9676,-1.3,0.1,-0.1,0.001,-0.009,0.003,0
2018,4,26,14,43,5.681,-0.089,0.2358,-0.0092,-0.9676,0,0,0,-0.001,-0.008,0.001,0
2018,4,26,14,43,5.722,-0.0891,0.2358,-0.0091,-0.9676,0,0,0,0,0,-0.006,0
2018,4,26,14,43,5.726,-0.0891,0.2358,-0.0091,-0.9676,0,0,0,-0.002,0.005,-0.003,0
2018,4,26,14,43,5.744,-0.0891,0.2358,-0.0092,-0.9676,-0.7,0.3,0,0.001,0.009,-0.003,0
2018,4,26,14,43,5.766,-0.0891,0.2358,-0.0092,-0.9676,-0.9,0.4,0.2,0,0.008,-0.004,0
2018,4,26,14,43,5.785,-0.0891,0.2357,-0.009,-0.9676,-0.8,0.6,0.1,0.001,0.002,-0.002,0
2018,4,26,14,43,5.822,-0.0891,0.2356,-0.009,-0.9676,-1,0.4,0.2,-0.001,0.003,0.003,0
2018,4,26,14,43,5.843,-0.0892,0.2355,-0.0088,-0.9677,-1,0.1,0.2,-0.005,-0.002,0.001,1023
2018,4,26,14,43,5.847,-0.0892,0.2355,-0.0087,-0.9677,-0.7,0.2,0.1,-0.002,-0.003,-0.001,1023
2018,4,26,14,43,5.862,-0.0892,0.2354,-0.0084,-0.9677,-0.8,0.2,0.1,-0.002,0.001,0.001,1023
2018,4,26,14,43,5.9,-0.0891,0.2354,-0.008,-0.9677,-1.1,0.1,0.1,0,0,0,1023
2018,4,26,14,43,5.918,-0.089,0.2353,-0.0076,-0.9677,-1.3,0.4,0.6,-0.001,-0.002,-0.002,1023
2018,4,26,14,43,5.923,-0.0891,0.2352,-0.0072,-0.9678,-1.2,0.6,0.3,-0.002,-0.007,0,1023
2018,4,26,14,43,5.963,-0.0891,0.2351,-0.0071,-0.9678,-0.9,0.3,0.2,-0.001,-0.005,-0.001,1023
2018,4,26,14,43,5.982,-0.0892,0.235,-0.0069,-0.9678,-0.9,0.3,0,-0.003,-0.004,0.002,1023
2018,4,26,14,43,5.986,-0.0893,0.235,-0.0069,-0.9678,-0.7,0.3,0,-0.003,-0.002,-0.001,1023
2018,4,26,14,43,6.005,-0.0893,0.2349,-0.0068,-0.9678,-0.6,0.2,-0.1,0,0.002,-0.007,1023
2018,4,26,14,43,6.028,-0.0892,0.2349,-0.0066,-0.9678,-0.9,0.4,0,-0.002,0.004,-0.005,1023
2018,4,26,14,43,6.046,-0.0893,0.2348,-0.0067,-0.9679,-1.2,0.6,0,0.001,0.001,-0.002,1023
2018,4,26,14,43,6.066,-0.0892,0.2347,-0.0065,-0.9679,-1.2,0.6,0.3,0,0.001,0.001,1023
2018,4,26,14,43,6.087,-0.0892,0.2345,-0.0061,-0.9679,-0.9,0.6,0.2,0,0.002,0,0
2018,4,26,14,43,6.107,-0.0893,0.2344,-0.0061,-0.9679,-1.3,0.6,0.5,0,0.002,0.002,0
2018,4,26,14,43,6.143,-0.0893,0.2344,-0.0058,-0.9679,-1.8,0.5,0.3,0.001,0.001,0.001,0
2018,4,26,14,43,6.162,-0.0894,0.2343,-0.0055,-0.968,-1.6,0.3,0.3,-0.002,-0.003,-0.002,0
2018,4,26,14,43,6.167,-0.0895,0.2343,-0.0054,-0.968,-0.9,0.5,0.1,0,-0.003,-0.005,0
2018,4,26,14,43,6.186,-0.0895,0.2342,-0.0053,-0.968,-0.5,0.7,0.2,-0.007,0,-0.002,0
2018,4,26,14,43,6.206,-0.0894,0.234,-0.0049,-0.968,-0.9,0.8,0.1,-0.007,0.006,-0.006,0
2018,4,26,14,43,6.226,-0.0893,0.2337,-0.0045,-0.9681,-1.7,1.2,0.2,-0.007,0.006,0,0
2018,4,26,14,43,6.265,-0.0893,0.2336,-0.0042,-0.9682,-2.9,1.1,0.5,0,0.002,0.003,0
2018,4,26,14,43,6.285,-0.0893,0.2334,-0.0036,-0.9682,-2.7,1.2,0.8,0.002,-0.006,0.009,0
2018,4,26,14,43,6.289,-0.0894,0.2333,-0.0031,-0.9682,-2.3,0.9,0.9,0.005,-0.007,0.005,0
2018,4,26,14,43,6.309,-0.0895,0.2332,-0.0028,-0.9682,-1.8,0.6,0.7,0,-0.007,0.003,0
2018,4,26,14,43,6.329,-0.0896,0.2332,-0.0025,-0.9682,-1.3,0.4,0.4,-0.001,-0.007,0.003,0
2018,4,26,14,43,6.364,-0.0896,0.2331,-0.0022,-0.9682,-0.8,0.3,0,-0.003,-0.004,0,0
2018,4,26,14,43,6.369,-0.0896,0.233,-0.002,-0.9683,-0.6,0.5,0,0,0,0,0
2018,4,26,14,43,6.387,-0.0897,0.233,-0.0021,-0.9683,-0.7,0.6,0,-0.001,0.006,-0.002,0
2018,4,26,14,43,6.425,-0.0895,0.2328,-0.0017,-0.9683,-1.2,0.6,0.1,-0.002,0.006,0.003,0
2018,4,26,14,43,6.446,-0.0897,0.2328,-0.0018,-0.9683,-1.3,0.5,0.5,0,0.006,-0.001,1023
2018,4,26,14,43,6.45,-0.0897,0.2327,-0.0016,-0.9683,-1.4,0.2,0.6,0,0.002,0.002,1023
2018,4,26,14,43,6.467,-0.0898,0.2327,-0.0015,-0.9683,-1.1,0.3,0.5,0,-0.002,-0.001,1023
2018,4,26,14,43,6.488,-0.0899,0.2327,-0.0013,-0.9683,-1.2,0.3,0.6,0,-0.001,0.005,1023
2018,4,26,14,43,6.526,-0.0901,0.2326,-0.0014,-0.9683,-0.7,0.3,0.5,-0.001,-0.002,0.002,1023
2018,4,26,14,43,6.546,-0.0901,0.2325,-0.001,-0.9683,-1,0.2,0.2,-0.007,-0.001,0.001,1023
2018,4,26,14,43,6.55,-0.0901,0.2325,-0.0007,-0.9684,-1.4,0.2,0.3,-0.001,0,0.003,1023
2018,4,26,14,43,6.588,-0.0902,0.2324,-0.0006,-0.9684,-1.7,0.3,0.3,-0.002,0.001,0.001,1023
2018,4,26,14,43,6.609,-0.0903,0.2324,-0.0003,-0.9683,-1.4,0.2,0.4,0.001,-0.003,-0.003,1023
2018,4,26,14,43,6.613,-0.0902,0.2324,0,-0.9684,-1.1,0.3,0.3,-0.001,-0.004,0.002,1023
2018,4,26,14,43,6.631,-0.0904,0.2324,0,-0.9684,-0.8,0.5,0.1,-0.004,-0.004,0.003,1023
2018,4,26,14,43,6.651,-0.0903,0.2323,0.0002,-0.9684,0,0,0,-0.001,-0.006,-0.001,1023
2018,4,26,14,43,6.668,-0.0903,0.2323,0.0003,-0.9684,0,0,0,0,0,-0.001,0
2018,4,26,14,43,6.706,-0.0904,0.2323,0.0003,-0.9684,0,0,0,-0.001,0.003,0.001,0
2018,4,26,14,43,6.727,-0.0903,0.2322,0.0005,-0.9684,-1,0.1,0,0.002,0.003,0.004,0
2018,4,26,14,43,6.731,-0.0901,0.2322,0.001,-0.9684,-1.2,0,0.1,0,-0.002,0.004,0
2018,4,26,14,43,6.768,-0.0902,0.2323,0.0012,-0.9684,-0.7,0,0.2,0,-0.005,-0.001,0
2018,4,26,14,43,6.787,-0.0902,0.2323,0.0014,-0.9684,0,0,0,0,-0.003,-0.006,0
2018,4,26,14,43,6.792,-0.0902,0.2322,0.0015,-0.9684,0.4,0.5,0,-0.004,0.003,-0.001,0
2018,4,26,14,43,6.813,-0.0902,0.2321,0.0014,-0.9684,0,0,0,-0.003,0.005,0.002,0
2018,4,26,14,43,6.833,-0.09,0.2319,0.0017,-0.9685,-1.1,0.6,0,-0.003,0.007,0.004,0
2018,4,26,14,43,6.873,-0.09,0.2318,0.002,-0.9685,-1.9,0.5,0,0.001,-0.003,0.003,0
2018,4,26,14,43,6.877,-0.0899,0.2317,0.0025,-0.9685,-1.3,0.4,0.1,0.001,-0.008,0.003,0
2018,4,26,14,43,6.891,-0.0899,0.2317,0.0028,-0.9686,0,0,0,0,-0.01,0.004,0
2018,4,26,14,43,6.91,-0.0899,0.2316,0.0028,-0.9686,0,0,0,-0.002,-0.002,0.003,0
2018,4,26,14,43,6.95,-0.0899,0.2316,0.0029,-0.9686,0,0,0,0,0,-0.001,0
2018,4,26,14,43,6.969,-0.0899,0.2316,0.0029,-0.9686,0,0,0,0,-0.001,-0.001,0
2018,4,26,14,43,6.973,-0.0899,0.2316,0.0029,-0.9686,0,0,0,-0.001,0.002,-0.001,0
2018,4,26,14,43,7.011,-0.0899,0.2316,0.0028,-0.9686,0,0,0,0,0.003,0,0
2018,4,26,14,43,7.032,-0.0899,0.2316,0.0028,-0.9686,0,0,0,-0.006,0,-0.003,1023
2018,4,26,14,43,7.036,-0.0899,0.2315,0.0028,-0.9686,0,0,0,-0.003,-0.002,0,1023
2018,4,26,14,43,7.053,-0.0899,0.2315,0.0029,-0.9686,0,0,0,-0.002,0.002,0,1023
2018,4,26,14,43,7.092,-0.0899,0.2315,0.0029,-0.9686,0,0,0,0,0,0.001,1023
2018,4,26,14,43,7.113,-0.0899,0.2315,0.0029,-0.9686,0,0,0,0.001,-0.004,0.003,1023
2018,4,26,14,43,7.117,-0.09,0.2315,0.003,-0.9686,0,0,0,-0.001,-0.011,0.001,1023
2018,4,26,14,43,7.134,-0.09,0.2315,0.0031,-0.9686,0,0,0,-0.002,-0.01,0.003,1023
2018,4,26,14,43,7.153,-0.09,0.2315,0.0032,-0.9686,0,0,0,-0.001,-0.003,-0.003,1023
2018,4,26,14,43,7.174,-0.09,0.2314,0.0033,-0.9686,0,0,0,-0.002,-0.002,-0.005,1023
2018,4,26,14,43,7.212,-0.09,0.2314,0.0033,-0.9686,0,0,0,-0.001,0,0.003,1023
2018,4,26,14,43,7.233,-0.09,0.2314,0.0033,-0.9686,0,0,0,0,0.003,0.001,1023
2018,4,26,14,43,7.237,-0.09,0.2314,0.0033,-0.9686,0,0,0,-0.001,0.002,0.001,1023
2018,4,26,14,43,7.255,-0.09,0.2314,0.0032,-0.9686,0,0,0,-0.001,0.005,0.001,1023
2018,4,26,14,43,7.295,-0.09,0.2314,0.0032,-0.9686,0,0,0,0,0.001,-0.002,0
2018,4,26,14,43,7.299,-0.09,0.2313,0.0032,-0.9686,0,0,0,-0.001,0.001,0.003,0
2018,4,26,14,43,7.316,-0.09,0.2313,0.0032,-0.9686,0,0,0,-0.002,0,0.004,0
2018,4,26,14,43,7.337,-0.09,0.2314,0.0034,-0.9686,-0.3,-0.6,0,-0.001,-0.008,0.003,0
2018,4,26,14,43,7.356,-0.09,0.2314,0.0035,-0.9686,0,0,0,0,-0.009,-0.001,0
2018,4,26,14,43,7.395,-0.09,0.2314,0.0035,-0.9686,1.2,-0.1,-0.3,0,-0.001,-0.002,0
2018,4,26,14,43,7.399,-0.09,0.2314,0.0031,-0.9686,0.9,0,-0.5,-0.005,0.008,-0.006,0
2018,4,26,14,43,7.414,-0.0899,0.2314,0.0031,-0.9686,0,0,0,-0.005,0.009,0,0
2018,4,26,14,43,7.452,-0.0898,0.2313,0.0032,-0.9686,-1.7,0.1,-0.2,0,0.001,0.002,0
2018,4,26,14,43,7.473,-0.0898,0.2313,0.0035,-0.9686,-1.5,0,0,0.004,-0.008,0,0
2018,4,26,14,43,7.477,-0.0896,0.2314,0.0041,-0.9687,-0.6,0.1,-0.1,0.002,-0.013,0,0
2018,4,26,14,43,7.497,-0.0896,0.2314,0.0042,-0.9687,0.6,0,-0.1,0,-0.011,-0.001,0
2018,4,26,14,43,7.516,-0.0898,0.2314,0.0038,-0.9686,0.9,-0.2,-0.3,-0.001,0.004,-0.001,0
2018,4,26,14,43,7.539,-0.0897,0.2314,0.0037,-0.9686,0,0,0,-0.002,0.007,0.002,0
2018,4,26,14,43,7.56,-0.0897,0.2314,0.0037,-0.9686,0,0,0,0,0.006,-0.006,0
2018,4,26,14,43,7.597,-0.0897,0.2314,0.0036,-0.9687,0,0,0,-0.004,0.002,-0.001,0
2018,4,26,14,43,7.601,-0.0897,0.2313,0.0036,-0.9687,0,0,0,-0.004,-0.003,0,0
2018,4,26,14,43,7.617,-0.0897,0.2313,0.0037,-0.9687,0,0,0,-0.001,0,0,1023
2018,4,26,14,43,7.635,-0.0897,0.2313,0.0037,-0.9687,0,0,0,-0.001,0.002,0,1023
2018,4,26,14,43,7.655,-0.0897,0.2312,0.0036,-0.9687,0,0,0,0,0.004,0.002,1023
2018,4,26,14,43,7.694,-0.0897,0.2313,0.0037,-0.9687,-0.9,0,0.3,0,0,0.002,1023
2018,4,26,14,43,7.715,-0.0898,0.2313,0.0039,-0.9687,-0.9,0,0.3,0.003,-0.008,0.004,1023
2018,4,26,14,43,7.719,-0.0898,0.2313,0.004,-0.9687,0,0,0,-0.003,-0.011,0.005,1023
2018,4,26,14,43,7.739,-0.0898,0.2313,0.0042,-0.9687,0,0,0,-0.002,-0.008,0.005,1023
2018,4,26,14,43,7.76,-0.0898,0.2312,0.0042,-0.9687,0,0,0,-0.002,-0.006,0,1023
2018,4,26,14,43,7.779,-0.0898,0.2312,0.0042,-0.9687,0.5,-0.1,-0.5,0,-0.002,0.003,1023
2018,4,26,14,43,7.801,-0.0897,0.2313,0.0041,-0.9687,0,0,0,0,0.004,-0.006,1023
2018,4,26,14,43,7.819,-0.0897,0.2313,0.0039,-0.9687,0,0,0,0,0.001,-0.004,1023
2018,4,26,14,43,7.839,-0.0897,0.2313,0.0039,-0.9687,0,0,0,-0.002,0.006,-0.004,1023
2018,4,26,14,43,7.88,-0.0897,0.2313,0.0038,-0.9687,0,0,0,-0.002,0.008,0,1023
2018,4,26,14,43,7.9,-0.0897,0.2312,0.0038,-0.9687,0,0,0,-0.003,0.005,-0.003,0
2018,4,26,14,43,7.904,-0.0897,0.2312,0.0038,-0.9687,0,0,0,0.001,0.005,0.003,0
2018,4,26,14,43,7.919,-0.0897,0.2312,0.0037,-0.9687,0,0,0,0,-0.001,0.003,0
2018,4,26,14,43,7.94,-0.0897,0.2313,0.0038,-0.9687,0,-0.5,0,0.001,-0.01,0.005,0
2018,4,26,14,43,7.96,-0.0898,0.2313,0.0038,-0.9686,0.7,-0.5,-0.1,0,-0.008,0,0
2018,4,26,14,43,7.997,-0.0898,0.2314,0.0035,-0.9686,1.6,-0.2,-0.4,0.001,0,-0.001,0
2018,4,26,14,43,8.017,-0.0897,0.2314,0.0033,-0.9686,1.4,-0.1,-0.5,-0.005,0.006,0.002,0
2018,4,26,14,43,8.021,-0.0896,0.2313,0.0032,-0.9687,0.3,0.1,-0.5,-0.005,0.005,0.002,0
2018,4,26,14,43,8.06,-0.0896,0.2313,0.0032,-0.9687,-0.8,0.2,-0.5,0,-0.003,-0.001,0
2018,4,26,14,43,8.079,-0.0895,0.2313,0.0033,-0.9687,0,0,0,0,-0.006,0,0
2018,4,26,14,43,8.083,-0.0895,0.2313,0.0033,-0.9687,0,0,0,0.001,-0.008,0.004,0
2018,4,26,14,43,8.105,-0.0895,0.2314,0.0033,-0.9687,0.9,-0.5,-0.3,0,-0.006,0.003,0
2018,4,26,14,43,8.124,-0.0896,0.2314,0.0029,-0.9686,1.2,-0.8,-0.3,-0.004,0.002,-0.003,0
2018,4,26,14,43,8.14,-0.0896,0.2315,0.0027,-0.9686,0.8,-0.7,-0.6,0,0.001,-0.002,0
2018,4,26,14,43,8.161,-0.0895,0.2316,0.0025,-0.9686,0.8,-0.4,-0.4,0.001,0.004,-0.002,0
2018,4,26,14,43,8.181,-0.0894,0.2317,0.0024,-0.9686,0.7,-0.4,-0.6,-0.002,0.002,-0.002,0
2018,4,26,14,43,8.201,-0.0894,0.2317,0.0023,-0.9686,0.7,-0.4,-0.3,-0.001,0.001,0,1023
2018,4,26,14,43,8.236,-0.0894,0.2318,0.002,-0.9686,0.7,-0.4,-0.2,-0.004,0.002,-0.004,1023
2018,4,26,14,43,8.258,-0.0894,0.2319,0.0016,-0.9686,0.7,-0.5,-0.4,0,0.003,0.001,1023
2018,4,26,14,43,8.262,-0.0894,0.232,0.0015,-0.9685,0.6,-0.5,-0.3,-0.001,-0.001,0.002,1023
2018,4,26,14,43,8.303,-0.0893,0.232,0.0016,-0.9685,0.7,-0.6,-0.2,0,-0.005,-0.003,1023
2018,4,26,14,43,8.307,-0.0892,0.2321,0.0017,-0.9685,0.7,-0.5,-0.3,0,-0.004,0.001,1023
2018,4,26,14,43,8.324,-0.0892,0.2321,0.0017,-0.9685,1.2,-0.4,-0.4,-0.003,-0.01,0.003,1023
2018,4,26,14,43,8.361,-0.0892,0.2322,0.0014,-0.9685,1.4,-0.5,-0.5,-0.002,-0.005,0.002,1023
2018,4,26,14,43,8.384,-0.0892,0.2322,0.0012,-0.9685,1.3,-0.5,-0.7,-0.003,-0.001,-0.002,1023
2018,4,26,14,43,8.388,-0.089,0.2323,0.001,-0.9685,1.2,-0.4,-0.6,-0.001,0.001,-0.003,1023
2018,4,26,14,43,8.405,-0.089,0.2323,0.0008,-0.9685,1.1,-0.4,-0.5,-0.001,0.003,0,1023
2018,4,26,14,43,8.423,-0.0889,0.2324,0.0005,-0.9685,1.2,-0.4,-0.4,-0.001,0.003,0,1023
2018,4,26,14,43,8.442,-0.0889,0.2324,0.0002,-0.9685,1.2,-0.5,-0.4,-0.004,0.003,0.002,1023
2018,4,26,14,43,8.462,-0.0888,0.2325,0,-0.9685,1.1,-0.5,-0.4,-0.002,0.002,-0.002,1023
2018,4,26,14,43,8.5,-0.0888,0.2325,0,-0.9685,1.6,-0.4,-0.2,-0.021,-0.039,0.016,0
2018,4,26,14,43,8.519,-0.0888,0.2326,-0.0005,-0.9685,1.2,-0.4,-0.7,-0.008,0.002,0,0
2018,4,26,14,43,8.521,-0.0887,0.2327,-0.0006,-0.9684,0.7,-0.8,-0.3,0.003,0.006,0,0
2018,4,26,14,43,8.558,-0.0886,0.2328,-0.0007,-0.9684,0.6,-0.7,-0.4,0,-0.007,0.001,0
2018,4,26,14,43,8.578,-0.0886,0.2329,-0.0008,-0.9684,1.5,-0.5,-0.5,0.002,-0.004,0,0
2018,4,26,14,43,8.587,-0.0886,0.233,-0.0012,-0.9684,2,-0.1,-0.5,0.002,0.006,0,0
2018,4,26,14,43,8.605,-0.0886,0.233,-0.0017,-0.9684,1.3,-0.3,-0.8,-0.003,0.009,0,0
2018,4,26,14,43,8.625,-0.0885,0.233,-0.0019,-0.9684,0.7,-0.2,-0.5,-0.004,0.004,0.001,0
2018,4,26,14,43,8.643,-0.0884,0.233,-0.002,-0.9684,0,0,-0.5,-0.001,-0.001,-0.001,0
2018,4,26,14,43,8.682,-0.0884,0.233,-0.002,-0.9684,0,0,0,0,-0.003,0.003,0
2018,4,26,14,43,8.704,-0.0884,0.233,-0.0019,-0.9684,0.5,-0.4,-0.1,0,-0.009,0.005,0
2018,4,26,14,43,8.708,-0.0884,0.2331,-0.002,-0.9684,1.1,-0.4,-0.1,0,-0.004,0.003,0
2018,4,26,14,43,8.727,-0.0885,0.2331,-0.0024,-0.9683,1.2,-0.7,-0.3,0.001,0,0.001,0
2018,4,26,14,43,8.748,-0.0885,0.2333,-0.0028,-0.9683,1.2,-0.7,-0.5,0,0,0.003,0
2018,4,26,14,43,8.767,-0.0886,0.2334,-0.0032,-0.9683,1.4,-0.5,-0.5,-0.002,0,-0.006,0
2018,4,26,14,43,8.786,-0.0886,0.2335,-0.0036,-0.9682,1.4,-0.5,-0.4,0,-0.003,-0.003,1023
2018,4,26,14,43,8.806,-0.0885,0.2336,-0.0038,-0.9682,1.2,-0.6,-0.5,-0.002,0.001,-0.002,1023
2018,4,26,14,43,8.843,-0.0884,0.2337,-0.004,-0.9682,1.1,-0.6,-0.8,-0.002,0.001,0.002,1023
2018,4,26,14,43,8.862,-0.0883,0.2337,-0.0042,-0.9682,1.4,-0.8,-0.6,0,0.002,0.004,1023
2018,4,26,14,43,8.867,-0.0884,0.2339,-0.0048,-0.9682,1.4,-0.7,-0.6,0.001,0.002,-0.002,1023
2018,4,26,14,43,8.888,-0.0884,0.234,-0.0051,-0.9681,1.2,-0.6,-0.4,0,0,-0.001,1023
2018,4,26,14,43,8.909,-0.0884,0.234,-0.0052,-0.9681,1.2,-0.5,-0.2,0,-0.002,0.003,1023
2018,4,26,14,43,8.925,-0.0884,0.2341,-0.0055,-0.9681,1.5,-0.5,-0.4,-0.003,-0.001,0,1023
2018,4,26,14,43,8.963,-0.0885,0.2342,-0.0059,-0.9681,1.4,-0.6,-0.4,-0.004,0.002,0.004,1023
2018,4,26,14,43,8.983,-0.0885,0.2342,-0.0062,-0.9681,1.1,-0.7,-0.4,-0.003,-0.002,0,1023
2018,4,26,14,43,8.987,-0.0884,0.2343,-0.0063,-0.9681,1.1,-0.8,-0.5,-0.002,-0.003,0,1023
2018,4,26,14,43,9.01,-0.0885,0.2345,-0.0067,-0.968,1.2,-1,-0.5,0,-0.001,-0.004,1023
2018,4,26,14,43,9.03,-0.0885,0.2346,-0.0072,-0.968,1.5,-0.8,-0.6,0,0,-0.003,1023
2018,4,26,14,43,9.049,-0.0883,0.2347,-0.0073,-0.9679,1.4,-0.7,-0.6,0,0.003,-0.003,1023
2018,4,26,14,43,9.069,-0.0882,0.2348,-0.0074,-0.9679,1.4,-0.7,-0.5,-0.003,0.005,-0.004,0
2018,4,26,14,43,9.091,-0.0882,0.2349,-0.0078,-0.9679,1.4,-0.7,-0.5,-0.002,0.004,-0.005,0
2018,4,26,14,43,9.108,-0.0881,0.235,-0.0081,-0.9679,0.9,-0.7,-0.4,-0.002,0.004,0,0
2018,4,26,14,43,9.149,-0.0882,0.2352,-0.0085,-0.9678,0.3,-0.9,-0.2,0.002,0,0.002,0
2018,4,26,14,43,9.169,-0.0882,0.2353,-0.0085,-0.9678,0.6,-0.8,-0.2,0,-0.002,-0.001,0
2018,4,26,14,43,9.173,-0.0882,0.2355,-0.0086,-0.9678,1.2,-0.6,-0.1,0,-0.003,-0.009,0
2018,4,26,14,43,9.19,-0.0884,0.2355,-0.0092,-0.9677,1.3,-0.2,-0.2,-0.005,0.002,-0.007,0
2018,4,26,14,43,9.21,-0.0885,0.2355,-0.0096,-0.9677,0.5,-0.2,-0.2,-0.005,0.005,-0.006,0
2018,4,26,14,43,9.229,-0.0885,0.2355,-0.0096,-0.9677,0,0,0,-0.007,0,0.001,0
2018,4,26,14,43,9.249,-0.0884,0.2354,-0.0095,-0.9678,-0.9,0.3,-0.2,-0.002,-0.006,0.001,0
2018,4,26,14,43,9.289,-0.0884,0.2354,-0.0093,-0.9678,-0.5,-0.1,-0.1,0.003,-0.006,0.004,0
2018,4,26,14,43,9.308,-0.0884,0.2354,-0.0092,-0.9678,0.6,0,-0.1,0.002,-0.008,0.002,0
2018,4,26,14,43,9.312,-0.0884,0.2354,-0.0093,-0.9678,0.7,-0.1,-0.1,-0.002,0,0,0
2018,4,26,14,43,9.332,-0.0884,0.2354,-0.0094,-0.9678,0,0,0,-0.003,0.004,-0.006,0
2018,4,26,14,43,9.353,-0.0884,0.2354,-0.0094,-0.9678,0,0,0,0,0.003,-0.005,0
2018,4,26,14,43,9.372,-0.0884,0.2354,-0.0094,-0.9678,0,0,0,-0.005,0.004,-0.005,1023
2018,4,26,14,43,9.39,-0.0884,0.2354,-0.0094,-0.9678,0,0,0,-0.003,0.002,-0.005,1023
2018,4,26,14,43,9.41,-0.0884,0.2354,-0.0095,-0.9678,0,0,0,0,0.006,-0.004,1023
2018,4,26,14,43,9.43,-0.0884,0.2354,-0.0095,-0.9678,0,0,0,-0.002,0.011,-0.007,1023
2018,4,26,14,43,9.45,-0.0885,0.2354,-0.0097,-0.9677,-0.7,0,0.2,-0.003,0.005,-0.005,1023
2018,4,26,14,43,9.47,-0.0885,0.2354,-0.0097,-0.9677,-1,0.1,0.4,-0.002,0,-0.003,1023
2018,4,26,14,43,9.491,-0.0886,0.2354,-0.0095,-0.9677,-1,0.1,0.3,-0.003,-0.007,0.002,1023
2018,4,26,14,43,9.51,-0.0887,0.2354,-0.0092,-0.9677,-0.8,0.1,0.4,-0.001,-0.011,-0.002,1023
2018,4,26,14,43,9.55,-0.0887,0.2353,-0.0089,-0.9678,0,0,0,-0.004,-0.011,0,1023
2018,4,26,14,43,9.571,-0.0887,0.2352,-0.0089,-0.9678,0,0,0,0,-0.003,0,1023
2018,4,26,14,43,9.596,-0.0888,0.2352,-0.0088,-0.9678,0,0,0,0,0,-0.005,1023
2018,4,26,14,43,9.609,-0.0888,0.2352,-0.0088,-0.9678,0,0,0,0.001,0.004,-0.001,1023
2018,4,26,14,43,9.611,-0.0888,0.2352,-0.0089,-0.9678,-0.5,0,-0.1,0.001,0.005,0,1023
2018,4,26,14,43,9.648,-0.0887,0.2352,-0.0087,-0.9678,-0.7,0.3,0.1,-0.001,0.003,0,0
2018,4,26,14,43,9.668,-0.0887,0.2351,-0.0086,-0.9678,-0.5,0.3,0,-0.001,0.002,-0.002,0
2018,4,26,14,43,9.672,-0.0887,0.2351,-0.0084,-0.9678,-0.6,0.5,0.2,-0.002,0.002,-0.004,0
2018,4,26,14,43,9.691,-0.0888,0.2351,-0.0084,-0.9678,-0.8,0.3,0.2,-0.003,0.004,-0.001,0
2018,4,26,14,43,9.71,-0.0888,0.235,-0.0083,-0.9678,-1.1,0.3,0.3,-0.003,0.005,0,0
2018,4,26,14,43,9.745,-0.0889,0.235,-0.0083,-0.9678,-1.2,0.1,0.4,-0.001,0,0,0
2018,4,26,14,43,9.766,-0.0889,0.2349,-0.008,-0.9679,-1,0.6,0.5,-0.003,0,-0.003,0
2018,4,26,14,43,9.773,-0.0891,0.2348,-0.008,-0.9678,-0.8,0.6,0.5,-0.004,0.001,-0.011,0
2018,4,26,14,43,9.811,-0.0891,0.2347,-0.0077,-0.9679,-1,0.8,0.3,0,0.005,-0.006,0
2018,4,26,14,43,9.831,-0.089,0.2345,-0.0074,-0.9679,-1.4,0.9,0.3,-0.003,0.004,-0.001,0
2018,4,26,14,43,9.835,-0.089,0.2344,-0.0071,-0.968,-2.2,0.9,0.2,-0.003,0.002,0.004,0
2018,4,26,14,43,9.858,-0.089,0.2342,-0.0066,-0.968,-2.9,0.5,0.3,0,-0.01,0.009,0
2018,4,26,14,43,9.876,-0.0891,0.2342,-0.0062,-0.968,-2,0.5,0.5,-0.001,-0.012,0.001,0
2018,4,26,14,43,9.893,-0.0891,0.2341,-0.0058,-0.968,-0.8,0.3,0.2,0.001,-0.007,0,0
2018,4,26,14,43,9.932,-0.0892,0.2341,-0.0056,-0.968,-0.9,0.2,0.2,-0.002,-0.004,-0.001,0
2018,4,26,14,43,9.953,-0.0892,0.2341,-0.0053,-0.968,-1.2,0.3,0.1,0,0,0,0
2018,4,26,14,43,9.957,-0.0891,0.234,-0.005,-0.9681,-1.1,0.6,0,-0.002,0.001,-0.005,0
2018,4,26,14,43,9.975,-0.0891,0.2339,-0.0049,-0.9681,-1.1,0.7,0,0,0,0,1023
2018,4,26,14,43,9.994,-0.0891,0.2337,-0.0046,-0.9681,-0.9,0.9,0,-0.004,0.001,0.004,1023
2018,4,26,14,43,10.032,-0.0891,0.2336,-0.0045,-0.9682,-0.7,0.5,0.1,-0.003,0.002,-0.002,1023
2018,4,26,14,43,10.052,-0.0891,0.2335,-0.0044,-0.9682,-0.8,0.4,0.1,-0.003,0.004,-0.001,1023
2018,4,26,14,43,10.056,-0.0891,0.2334,-0.0044,-0.9682,-1.2,0.2,0.2,-0.001,0.006,0,1023
2018,4,26,14,43,10.077,-0.0892,0.2334,-0.0042,-0.9682,-1.4,0.2,0.6,0.003,0,-0.001,1023
2018,4,26,14,43,10.099,-0.0892,0.2334,-0.0039,-0.9682,-1.3,0.4,0.6,0.003,-0.002,0,1023
2018,4,26,14,43,10.136,-0.0894,0.2334,-0.0036,-0.9682,-1.1,0.3,0.8,-0.001,-0.008,-0.004,1023
2018,4,26,14,43,10.156,-0.0894,0.2333,-0.0033,-0.9682,-1,0.5,0.3,-0.003,-0.006,-0.002,1023
2018,4,26,14,43,10.16,-0.0896,0.2332,-0.0033,-0.9682,-1,0.3,0.3,-0.005,-0.002,-0.001,1023
2018,4,26,14,43,10.18,-0.0896,0.2331,-0.003,-0.9682,-1.3,0.2,0.1,-0.004,0,-0.002,1023
2018,4,26,14,43,10.2,-0.0896,0.2331,-0.0028,-0.9682,-1.3,0.1,0.1,0.001,0.001,0,1023
2018,4,26,14,43,10.216,-0.0894,0.2331,-0.0023,-0.9683,-1,0.1,0.1,0.003,-0.002,0.001,0
2018,4,26,14,43,10.256,-0.0895,0.2331,-0.0023,-0.9683,-0.8,0.3,0.2,0.001,0,0.002,0
2018,4,26,14,43,10.275,-0.0896,0.233,-0.0024,-0.9683,-0.8,0.4,0.1,-0.003,0,-0.001,0
2018,4,26,14,43,10.279,-0.0896,0.233,-0.0021,-0.9683,-1,0.4,0.1,0,0,-0.004,0
2018,4,26,14,43,10.316,-0.0896,0.2329,-0.002,-0.9683,-1,0.3,0.1,0,0,0,0
2018,4,26,14,43,10.337,-0.0895,0.2329,-0.0015,-0.9683,-1,0.3,0.4,-0.002,-0.002,0,0
2018,4,26,14,43,10.341,-0.0896,0.2328,-0.0012,-0.9683,-0.7,0.1,0.1,-0.001,-0.005,0.002,0
2018,4,26,14,43,10.36,-0.0896,0.2328,-0.0011,-0.9683,0,0,0,0.002,0,-0.001,0
2018,4,26,14,43,10.379,-0.0896,0.2328,-0.001,-0.9683,0,0,0,0,0.002,0.001,0
2018,4,26,14,43,10.419,-0.0896,0.2328,-0.0011,-0.9683,0,0,0,-0.002,0.006,-0.001,0
2018,4,26,14,43,10.423,-0.0896,0.2327,-0.001,-0.9684,-1.2,0.4,0,-0.004,0.003,0.003,0
2018,4,26,14,43,10.439,-0.0896,0.2326,-0.0008,-0.9684,-2,0.6,0.1,0,-0.003,0.006,0
2018,4,26,14,43,10.457,-0.0896,0.2325,-0.0005,-0.9684,-1.5,0.3,0,0,-0.011,0.005,0
2018,4,26,14,43,10.495,-0.0896,0.2325,-0.0003,-0.9684,0,0,0,0,-0.007,0,0
2018,4,26,14,43,10.518,-0.0897,0.2325,-0.0002,-0.9684,0,0,0,-0.001,0.001,0.003,0
2018,4,26,14,43,10.522,-0.0897,0.2324,-0.0002,-0.9684,0,0,0,0.001,0.001,-0.001,0
2018,4,26,14,43,10.538,-0.0897,0.2325,-0.0002,-0.9684,0,0,0,0.001,0.002,0,1023
2018,4,26,14,43,10.575,-0.0897,0.2325,-0.0002,-0.9684,0,0,0,0.001,0.005,0,1023
2018,4,26,14,43,10.597,-0.0897,0.2325,-0.0002,-0.9684,0,0,0,0.001,0.003,-0.003,1023
2018,4,26,14,43,10.601,-0.0897,0.2324,-0.0002,-0.9684,0,0,0,-0.003,0,-0.002,1023
2018,4,26,14,43,10.621,-0.0898,0.2324,-0.0003,-0.9684,0,0,0,-0.004,0.002,-0.008,1023
2018,4,26,14,43,10.643,-0.0898,0.2324,-0.0002,-0.9684,-0.6,0,0,-0.005,0.001,-0.001,1023
2018,4,26,14,43,10.678,-0.0898,0.2324,-0.0002,-0.9684,-0.6,-0.1,0.1,-0.002,-0.002,0,1023
2018,4,26,14,43,10.682,-0.0898,0.2324,0,-0.9684,-0.7,0,0.3,0,-0.006,-0.003,1023
2018,4,26,14,43,10.699,-0.0899,0.2323,0.0002,-0.9684,-0.7,0.3,0.3,0,-0.006,0.005,1023
2018,4,26,14,43,10.72,-0.0899,0.2323,0.0003,-0.9684,0,0,0,-0.003,-0.008,-0.002,1023
2018,4,26,14,43,10.74,-0.0899,0.2322,0.0006,-0.9684,0,0,0,-0.003,-0.002,-0.001,1023
2018,4,26,14,43,10.778,-0.0899,0.2322,0.0007,-0.9684,0,0,0,-0.003,-0.006,-0.001,1023
2018,4,26,14,43,10.798,-0.0899,0.2321,0.0008,-0.9685,0,0,0,-0.001,-0.002,0.004,1023
2018,4,26,14,43,10.802,-0.0899,0.2321,0.0008,-0.9685,0,0,0,-0.001,-0.001,-0.002,0
2018,4,26,14,43,10.839,-0.0899,0.2321,0.0008,-0.9685,0,0,0,-0.003,0.007,-0.003,0
2018,4,26,14,43,10.86,-0.0899,0.2321,0.0008,-0.9685,0,0,0,-0.005,0,-0.004,0
2018,4,26,14,43,10.864,-0.0899,0.232,0.0008,-0.9685,0,0,0,-0.003,0.001,-0.002,0
2018,4,26,14,43,10.903,-0.0899,0.232,0.0008,-0.9685,-0.6,0.1,0.1,0,0,0,0
2018,4,26,14,43,10.907,-0.0899,0.232,0.0009,-0.9685,-0.9,-0.1,0.2,0,0,0.005,0
2018,4,26,14,43,10.923,-0.09,0.232,0.001,-0.9685,-0.6,-0.1,0.3,0.001,-0.008,0.005,0
2018,4,26,14,43,10.941,-0.0901,0.2321,0.0011,-0.9685,0,0,0,0.003,-0.008,0,0
2018,4,26,14,43,10.961,-0.0901,0.232,0.001,-0.9685,1,0.1,0,0,0,0.001,0
2018,4,26,14,43,10.984,-0.0901,0.232,0.0009,-0.9685,0,0,0,-0.001,0.006,0.002,0
2018,4,26,14,43,11.003,-0.0901,0.2319,0.0009,-0.9685,-0.7,0,0,-0.002,0.005,0.003,0
2018,4,26,14,43,11.023,-0.0899,0.2319,0.0014,-0.9685,-1.5,0,-0.1,0.001,-0.007,0.004,0
2018,4,26,14,43,11.044,-0.0898,0.2319,0.0018,-0.9685,-0.5,0,-0.1,0.004,-0.016,0.007,0
2018,4,26,14,43,11.063,-0.0898,0.2319,0.002,-0.9685,0.6,-0.1,-0.1,0.001,-0.014,0.003,0
2018,4,26,14,43,11.101,-0.0898,0.2319,0.002,-0.9685,1.2,-0.5,-0.2,-0.001,-0.004,0.004,0
2018,4,26,14,43,11.121,-0.0897,0.2319,0.0019,-0.9685,1.1,-0.7,-0.5,-0.002,0,0.002,0
2018,4,26,14,43,11.125,-0.0896,0.232,0.0018,-0.9685,0.7,-0.6,-0.7,0.002,0.003,0,1023
2018,4,26,14,43,11.159,-0.0895,0.2321,0.0016,-0.9685,0.9,-0.2,-0.4,0,0.003,-0.005,1023
2018,4,26,14,43,11.18,-0.0895,0.2321,0.0014,-0.9685,0.6,-0.1,-0.4,0,0.004,-0.003,1023
2018,4,26,14,43,11.184,-0.0895,0.2321,0.0014,-0.9685,0,0,0,-0.002,0.003,0.004,1023
2018,4,26,14,43,11.203,-0.0895,0.2321,0.0014,-0.9685,0,0,0,0,0.001,0,1023
2018,4,26,14,43,11.222,-0.0895,0.2321,0.0013,-0.9685,0.3,-0.5,-0.1,-0.003,0,0,1023
2018,4,26,14,43,11.261,-0.0896,0.2322,0.0009,-0.9685,0.4,-0.5,-0.2,-0.002,-0.003,0.002,1023
2018,4,26,14,43,11.282,-0.0896,0.2322,0.0009,-0.9685,0,0,0,-0.002,-0.004,-0.003,1023
2018,4,26,14,43,11.286,-0.0896,0.2322,0.001,-0.9685,0,0,0,-0.003,-0.01,0.003,1023
2018,4,26,14,43,11.305,-0.0897,0.2322,0.0009,-0.9685,0.9,-0.1,-0.4,-0.003,-0.005,0.002,1023
2018,4,26,14,43,11.325,-0.0896,0.2322,0.0008,-0.9685,1.1,-0.2,-0.5,-0.001,-0.002,0,1023
2018,4,26,14,43,11.349,-0.0897,0.2323,0.0003,-0.9684,1.2,-0.4,-0.7,0,-0.001,0.002,1023
2018,4,26,14,43,11.37,-0.0897,0.2323,0,-0.9684,1,-0.5,-0.7,0.001,0.003,0,0
2018,4,26,14,43,11.39,-0.0897,0.2324,-0.0003,-0.9684,1.1,-0.3,-0.7,0.001,0.002,-0.001,0
2018,4,26,14,43,11.41,-0.0898,0.2325,-0.001,-0.9684,1.2,-0.2,-0.5,-0.001,0.004,-0.009,0
2018,4,26,14,43,11.428,-0.0898,0.2325,-0.0013,-0.9684,1,-0.3,-0.4,-0.004,0.003,-0.005,0
2018,4,26,14,43,11.448,-0.0898,0.2326,-0.0015,-0.9684,0.7,-0.4,-0.4,0,0.005,-0.001,0
2018,4,26,14,43,11.465,-0.0897,0.2326,-0.0017,-0.9684,0.5,-0.4,-0.4,0,0.001,0.002,0
2018,4,26,14,43,11.505,-0.0897,0.2327,-0.0015,-0.9684,0.4,-0.5,-0.2,0.002,-0.002,0.007,0
2018,4,26,14,43,11.524,-0.0897,0.2328,-0.0018,-0.9683,0.6,-0.5,-0.3,0.001,-0.002,0,0
2018,4,26,14,43,11.529,-0.0897,0.2328,-0.0018,-0.9683,1.5,-0.4,-0.2,-0.002,-0.006,-0.003,0
2018,4,26,14,43,11.548,-0.0897,0.2329,-0.002,-0.9683,1.8,0,-0.5,-0.003,0,-0.002,0
2018,4,26,14,43,11.568,-0.0897,0.2329,-0.0023,-0.9683,1.1,-0.2,-0.4,-0.001,0.007,-0.003,0
2018,4,26,14,43,11.588,-0.0896,0.2328,-0.0026,-0.9683,0,0,0,-0.006,0.006,-0.005,0
2018,4,26,14,43,11.609,-0.0896,0.2328,-0.0026,-0.9683,0,0,0,-0.005,-0.001,0,0
2018,4,26,14,43,11.628,-0.0896,0.2328,-0.0025,-0.9683,0,0,0,0,-0.007,0,0
2018,4,26,14,43,11.649,-0.0897,0.2328,-0.0025,-0.9683,0.6,-0.2,-0.1,0,-0.007,0.002,0
2018,4,26,14,43,11.668,-0.0897,0.2328,-0.0025,-0.9683,0.8,-0.5,-0.2,-0.003,-0.005,0.003,0
2018,4,26,14,43,11.689,-0.0897,0.2329,-0.0028,-0.9683,0.7,-0.6,-0.4,0.001,0,0.001,1023
2018,4,26,14,43,11.709,-0.0897,0.233,-0.0029,-0.9683,1,-0.5,-0.4,0.002,0,0.006,1023
2018,4,26,14,43,11.727,-0.0896,0.2331,-0.003,-0.9682,1.2,-0.2,-0.5,0,-0.002,-0.003,1023
2018,4,26,14,43,11.747,-0.0896,0.2331,-0.0032,-0.9682,1.4,-0.4,-0.7,0,0,0.003,1023
2018,4,26,14,43,11.786,-0.0895,0.2332,-0.0034,-0.9682,1.1,-0.4,-0.5,-0.001,0.002,-0.001,1023
2018,4,26,14,43,11.805,-0.0894,0.2332,-0.0035,-0.9682,1.1,-0.7,-0.5,-0.001,-0.001,0,1023
2018,4,26,14,43,11.809,-0.0894,0.2334,-0.0039,-0.9682,1.2,-0.8,-0.5,-0.003,-0.001,-0.003,1023
2018,4,26,14,43,11.846,-0.0893,0.2334,-0.0041,-0.9682,1.5,-0.5,-0.5,0,0.003,0,1023
2018,4,26,14,43,11.867,-0.0892,0.2335,-0.0042,-0.9682,1.4,-0.5,-0.4,0.001,0.002,0.002,1023
2018,4,26,14,43,11.871,-0.0893,0.2336,-0.0045,-0.9682,1.2,-0.4,-0.3,0,-0.001,-0.002,1023
2018,4,26,14,43,11.91,-0.0893,0.2336,-0.0047,-0.9681,1.1,-0.3,-0.2,-0.003,0,0.005,1023
2018,4,26,14,43,11.931,-0.0892,0.2336,-0.0048,-0.9681,0.7,-0.5,-0.2,-0.001,0,-0.004,1023
2018,4,26,14,43,11.935,-0.0892,0.2337,-0.0049,-0.9681,0.6,-0.7,-0.2,-0.001,-0.001,-0.002,1023
2018,4,26,14,43,11.971,-0.0891,0.2338,-0.005,-0.9681,0.5,-0.6,-0.2,-0.002,0,-0.002,1023
2018,4,26,14,43,11.975,-0.089,0.2339,-0.0049,-0.9681,0.9,-0.7,-0.4,-0.001,-0.005,0.002,1023
2018,4,26,14,43,11.992,-0.089,0.234,-0.0051,-0.9681,1.4,-0.3,-0.4,-0.001,-0.003,-0.004,1023
2018,4,26,14,43,12.011,-0.0889,0.234,-0.0053,-0.9681,1.5,-0.5,-0.5,-0.002,0.001,0.003,1023
2018,4,26,14,43,12.05,-0.0889,0.2341,-0.0057,-0.9681,1.5,-0.6,-0.7,0,0.004,-0.007,0
2018,4,26,14,43,12.07,-0.0889,0.2341,-0.0061,-0.968,0.9,-0.5,-0.5,0,0.005,0,0
2018,4,26,14,43,12.074,-0.0889,0.2342,-0.0064,-0.968,0.7,-0.7,-0.2,0,0.003,0.002,0
2018,4,26,14,43,12.094,-0.089,0.2344,-0.0069,-0.968,0.6,-0.7,-0.4,0,-0.001,0.001,0
2018,4,26,14,43,12.114,-0.0891,0.2345,-0.0072,-0.9679,1.2,-0.5,-0.1,-0.001,-0.002,-0.002,0
2018,4,26,14,43,12.135,-0.089,0.2345,-0.0073,-0.9679,1.7,-0.5,-0.2,-0.002,0.001,0.001,0
2018,4,26,14,43,12.155,-0.0891,0.2346,-0.0077,-0.9679,1.2,-0.4,-0.4,-0.005,0.001,0,0
2018,4,26,14,43,12.194,-0.0891,0.2346,-0.0081,-0.9679,0.7,-0.3,-0.4,-0.006,0.004,-0.007,0
2018,4,26,14,43,12.198,-0.0891,0.2346,-0.0082,-0.9679,0,0,0,-0.002,0,-0.001,0
2018,4,26,14,43,12.213,-0.0891,0.2346,-0.0082,-0.9679,0,0,0,-0.001,-0.004,0.001,0
2018,4,26,14,43,12.23,-0.0891,0.2347,-0.0082,-0.9679,0.6,-0.5,-0.3,0.006,-0.01,0.001,0
2018,4,26,14,43,12.269,-0.089,0.2348,-0.0081,-0.9679,1.1,-1.2,-0.2,0.001,-0.002,0.003,0
2018,4,26,14,43,12.289,-0.0891,0.235,-0.0084,-0.9678,1.5,-1,-0.3,0.004,0.001,0.003,1023
2018,4,26,14,43,12.294,-0.089,0.2351,-0.0088,-0.9678,1.2,-1,-0.5,0.001,0.002,0,1023
2018,4,26,14,43,12.314,-0.0891,0.2353,-0.0091,-0.9677,1.1,-0.7,-0.5,0.001,0.003,-0.007,1023
2018,4,26,14,43,12.334,-0.0889,0.2354,-0.0092,-0.9677,1.1,-0.4,-0.7,0,0,-0.005,1023
2018,4,26,14,43,12.354,-0.0889,0.2354,-0.0095,-0.9677,1,-0.4,-0.4,-0.002,0.001,0,1023
2018,4,26,14,43,12.376,-0.0888,0.2355,-0.0096,-0.9677,1,-0.4,-0.5,0.001,0.002,-0.006,1023
2018,4,26,14,43,12.395,-0.0888,0.2355,-0.0098,-0.9677,1.1,-0.4,-0.5,-0.004,0.002,-0.002,1023
2018,4,26,14,43,12.415,-0.0889,0.2356,-0.0103,-0.9676,0.7,-0.4,-0.1,0,0,-0.002,1023
2018,4,26,14,43,12.436,-0.0888,0.2357,-0.0103,-0.9676,0.7,-0.5,-0.2,0,-0.002,0.003,0
2018,4,26,14,43,12.473,-0.0889,0.2358,-0.0104,-0.9676,0.6,-0.4,-0.1,0.001,-0.006,0,0
2018,4,26,14,43,12.477,-0.0889,0.2358,-0.0106,-0.9676,0.7,-0.5,-0.4,-0.001,-0.004,0.002,0
2018,4,26,14,43,12.493,-0.089,0.2359,-0.0109,-0.9676,0.6,-0.4,-0.4,-0.001,-0.003,0.005,0
2018,4,26,14,43,12.534,-0.089,0.236,-0.0111,-0.9675,0.6,-0.6,-0.4,-0.001,-0.005,-0.001,0
2018,4,26,14,43,12.554,-0.0889,0.236,-0.0111,-0.9675,0.7,-0.5,-0.5,-0.003,0,-0.001,0
2018,4,26,14,43,12.558,-0.0889,0.2361,-0.0114,-0.9675,0.7,-0.3,-0.4,-0.004,0.002,-0.004,0
2018,4,26,14,43,12.574,-0.0889,0.2361,-0.0115,-0.9675,0,0,0,-0.005,0.007,-0.002,0
2018,4,26,14,43,12.614,-0.0888,0.2361,-0.0116,-0.9675,0,0,0,-0.005,0.006,-0.004,0
2018,4,26,14,43,12.634,-0.0888,0.2361,-0.0116,-0.9675,0,0,0,-0.001,0.001,-0.006,0
2018,4,26,14,43,12.638,-0.0888,0.236,-0.0116,-0.9675,0,0,0,0,0.006,0,0
2018,4,26,14,43,12.675,-0.0888,0.236,-0.0117,-0.9676,0,0,0,-0.007,0.006,0.003,0
2018,4,26,14,43,12.68,-0.0889,0.2359,-0.0116,-0.9676,-1.3,-1,1.6,-0.027,0.028,0.012,0
2018,4,26,14,43,12.696,-0.0891,0.236,-0.0114,-0.9675,-2.1,-1.9,2.4,-0.024,0.025,0.002,0
2018,4,26,14,43,12.715,-0.0894,0.2362,-0.0111,-0.9674,-3.3,-2.7,2,-0.022,0.007,-0.002,0
2018,4,26,14,43,12.736,-0.0896,0.2364,-0.0105,-0.9674,-3.7,-4.3,2.6,-0.074,0.028,0.028,0
2018,4,26,14,43,12.757,-0.0902,0.2369,-0.0101,-0.9672,-6.1,-8.5,5.5,-0.141,0.069,0.061,0
2018,4,26,14,43,12.777,-0.0913,0.2391,-0.0086,-0.9666,-12.6,-15.4,10.8,-0.154,0.151,0.065,0
2018,4,26,14,43,12.797,-0.0926,0.2427,-0.0047,-0.9656,-29.2,-22.7,15.1,-0.223,0.21,0.075,0
2018,4,26,14,43,12.817,-0.0938,0.2475,0.0014,-0.9643,-37.9,-26,17.4,-0.138,0.053,-0.067,0
2018,4,26,14,43,12.837,-0.0954,0.2516,0.008,-0.963,-32.9,-28.6,20.1,-0.174,0.029,-0.013,0
2018,4,26,14,43,12.876,-0.0977,0.2565,0.0136,-0.9614,-33.6,-33,21.7,-0.128,0.081,-0.024,0
2018,4,26,14,43,12.896,-0.0997,0.2631,0.0206,-0.9593,-43.2,-39.4,22,-0.168,0.077,0.024,0
2018,4,26,14,43,12.9,-0.1015,0.2712,0.029,-0.9566,-54,-48.1,24.1,-0.187,0.112,0.048,0
2018,4,26,14,43,12.916,-0.103,0.2811,0.0397,-0.9532,-67.4,-58.8,25.4,-0.192,0.127,0.037,0
2018,4,26,14,43,12.955,-0.1042,0.2928,0.0515,-0.949,-76,-66.9,24.5,-0.133,0.075,0.035,0
2018,4,26,14,43,12.976,-0.1048,0.305,0.0639,-0.9443,-78.5,-73.8,22,-0.086,0.032,0.005,0
2018,4,26,14,43,12.98,-0.1051,0.318,0.0769,-0.939,-78.8,-78.1,21,-0.079,-0.001,-0.018,0
2018,4,26,14,43,12.998,-0.1051,0.3316,0.0902,-0.9331,-81.5,-77.4,20.2,-0.061,0.015,-0.047,0
2018,4,26,14,43,13.019,-0.1048,0.3448,0.104,-0.9269,-82.8,-74.1,20.6,-0.037,0.01,-0.042,0
2018,4,26,14,43,13.04,-0.1045,0.3576,0.1176,-0.9204,-80.6,-68.9,21.5,0.034,-0.204,-0.129,0
2018,4,26,14,43,13.057,-0.1055,0.3687,0.1286,-0.9145,-48.6,-59.3,21.9,-0.063,-0.128,-0.041,0
2018,4,26,14,43,13.095,-0.1074,0.3783,0.1367,-0.9091,-40.8,-56.8,19.2,-0.079,-0.092,-0.014,0
2018,4,26,14,43,13.097,-0.1093,0.3872,0.1441,-0.904,-38.4,-53.7,17.4,-0.037,-0.107,0.033,0
2018,4,26,14,43,13.114,-0.1112,0.3956,0.1508,-0.899,-31.4,-49.4,16.7,-0.028,-0.099,0.011,0
2018,4,26,14,43,13.155,-0.1131,0.4032,0.1565,-0.8944,-29.6,-48.2,14.9,-0.001,-0.089,-0.026,0
2018,4,26,14,43,13.174,-0.1155,0.4104,0.1616,-0.8899,-19.2,-46,14.9,-0.054,-0.053,0.014,0
2018,4,26,14,43,13.178,-0.1181,0.4174,0.1656,-0.8856,-14.9,-45.1,15.1,-0.037,-0.068,-0.007,0
2018,4,26,14,43,13.218,-0.1207,0.4238,0.1686,-0.8816,-15.1,-45.4,12.2,-0.063,-0.023,-0.016,0
2018,4,26,14,43,13.238,-0.1231,0.4306,0.1712,-0.8775,-9.9,-43.7,10,-0.074,-0.023,-0.026,0
2018,4,26,14,43,13.242,-0.1253,0.437,0.1731,-0.8736,-8.9,-43.6,7.4,-0.075,-0.055,-0.028,0
2018,4,26,14,43,13.262,-0.1278,0.4433,0.1747,-0.8698,1,-42.7,7,-0.064,-0.086,-0.057,0
2018,4,26,14,43,13.28,-0.1304,0.4493,0.1739,-0.8664,2.4,-44.4,4.5,-0.103,0.027,-0.042,0
2018,4,26,14,43,13.3,-0.1325,0.456,0.1737,-0.8627,-3.8,-48.7,2.8,-0.094,0.083,-0.066,0
2018,4,26,14,43,13.32,-0.1337,0.4637,0.1742,-0.8583,-11.5,-54.1,2.3,-0.124,0.071,-0.066,0
2018,4,26,14,43,13.337,-0.1345,0.4722,0.1751,-0.8533,-16,-60.5,0.8,-0.08,0.047,-0.001,0
2018,4,26,14,43,13.357,-0.1348,0.4818,0.1761,-0.8476,-17.9,-68.3,-3.8,-0.065,0.024,-0.013,0
2018,4,26,14,43,13.394,-0.1345,0.4929,0.1769,-0.8411,-21.1,-73.9,-8.2,-0.069,0.027,-0.029,0
2018,4,26,14,43,13.416,-0.1335,0.5048,0.1779,-0.834,-24.7,-78.1,-10.2,-0.1,0.034,-0.041,0
2018,4,26,14,43,13.42,-0.1322,0.5172,0.1793,-0.8263,-27.7,-82.1,-10.7,-0.144,0.055,-0.043,0
2018,4,26,14,43,13.439,-0.1304,0.53,0.1809,-0.8181,-36.5,-86.8,-11.5,-0.153,0.092,-0.023,0
2018,4,26,14,43,13.46,-0.1276,0.5435,0.1835,-0.809,-48.4,-94,-13.7,-0.165,0.049,0.039,1023
2018,4,26,14,43,13.481,-0.1237,0.5588,0.1875,-0.7982,-55.1,-102.1,-18.1,-0.184,0.033,0.067,1023
2018,4,26,14,43,13.5,-0.1184,0.5756,0.1916,-0.786,-62.8,-112.6,-24.9,-0.246,-0.048,0.096,1023
2018,4,26,14,43,13.54,-0.1116,0.594,0.1952,-0.7723,-67.4,-123.5,-34.4,-0.293,-0.141,0.089,1023
2018,4,26,14,43,13.56,-0.1036,0.6137,0.1983,-0.7571,-68.1,-132.1,-45.3,-0.358,-0.304,0.074,1023
2018,4,26,14,43,13.564,-0.0953,0.6342,0.1986,-0.741,-54,-137.7,-54.5,-0.336,-0.302,0.014,1023
2018,4,26,14,43,13.579,-0.0863,0.655,0.1962,-0.7245,-47.6,-141,-67.7,-0.362,-0.419,-0.051,1023
2018,4,26,14,43,13.619,-0.0774,0.6757,0.1906,-0.7078,-31.2,-141.2,-78,-0.307,-0.452,-0.1,1023
2018,4,26,14,43,13.639,-0.0689,0.6956,0.1814,-0.6916,-14.3,-133.7,-91.8,-0.184,-0.573,-0.235,1023
2018,4,26,14,43,13.643,-0.0603,0.7135,0.1686,-0.6773,2,-114.1,-102.5,-0.121,-0.585,-0.43,1023
2018,4,26,14,43,13.681,-0.0521,0.7282,0.153,-0.666,18.1,-88.3,-108.1,-0.042,-0.507,-0.565,0
2018,4,26,14,43,13.685,-0.0448,0.7391,0.1357,-0.6582,40.3,-58.6,-105.7,0.01,-0.524,-0.727,0
2018,4,26,14,43,13.7,-0.0448,0.7453,0.1131,-0.6555,119.6,-23.3,-95.4,0.104,-0.342,-0.866,0
2018,4,26,14,43,13.739,-0.0545,0.7468,0.0839,-0.6574,179.5,-1.9,-81.9,0.131,-0.109,-0.715,0
2018,4,26,14,43,13.758,-0.0733,0.7451,0.0514,-0.6608,227.2,0.8,-56.7,0.09,0.079,-0.37,0
2018,4,26,14,43,13.763,-0.0997,0.742,0.0169,-0.6626,258.1,-9.3,-38,0.023,0.24,-0.053,0
2018,4,26,14,43,13.801,-0.1311,0.739,-0.0178,-0.6605,275.9,-31.9,-15.8,-0.055,0.3,0.16,0
2018,4,26,14,43,13.821,-0.1679,0.7372,-0.0517,-0.6524,295.1,-65.5,18.8,-0.183,0.46,0.247,0
2018,4,26,14,43,13.825,-0.2106,0.7374,-0.0843,-0.6361,325.9,-111.9,56.9,-0.368,0.412,0.377,0
2018,4,26,14,43,13.84,-0.2641,0.739,-0.1175,-0.6084,391.8,-160.8,121.5,-0.288,0.605,0.252,0
2018,4,26,14,43,13.875,-0.3295,0.7398,-0.1494,-0.5671,427.5,-197.2,184.9,-0.412,0.888,0.101,0
2018,4,26,14,43,13.896,-0.3969,0.7392,-0.1751,-0.515,393.3,-219.3,228.6,-0.489,1.194,-0.01,0
2018,4,26,14,43,13.903,-0.455,0.7411,-0.189,-0.4559,284.6,-236.9,268,-0.647,1.352,-0.017,0
2018,4,26,14,43,13.942,-0.4965,0.7505,-0.1889,-0.3929,167.7,-261.8,294.8,-0.934,1.18,-0.058,1023
2018,4,26,14,43,13.961,-0.5227,0.7671,-0.1805,-0.325,78.7,-291.3,317,-1.255,1.07,-0.04,1023
2018,4,26,14,43,13.965,-0.5363,0.7883,-0.1666,-0.251,30.3,-321.2,342.2,-1.477,0.745,-0.029,1023
2018,4,26,14,43,14.004,-0.5474,0.8054,-0.1484,-0.1717,78.5,-315.4,380.5,-1.664,0.348,-0.067,1023
2018,4,26,14,43,14.023,-0.5761,0.8038,-0.1211,-0.085,307.6,-260.8,467,-1.405,-0.207,-0.107,1023
2018,4,26,14,43,14.027,-0.634,0.7696,-0.0745,0.0065,503.4,-163.8,556.6,-1.016,0.494,-0.526,1023
2018,4,26,14,43,14.047,-0.6957,0.7124,-0.0079,0.0908,500.6,-62.6,564.5,-1.44,0.781,-0.976,1023
2018,4,26,14,43,14.067,-0.7342,0.6577,0.0584,0.1576,313.3,-14.1,453.2,-2.014,0.187,-0.617,1023
2018,4,26,14,43,14.084,-0.7382,0.6334,0.1057,0.2064,8.2,6.8,347.4,-2.3,-0.014,-0.179,1023
2018,4,26,14,43,14.103,-0.7336,0.6234,0.1286,0.2377,312,-156.8,-222.4,-1.998,-15.137,1.106,1023
2018,4,26,14,43,14.124,-0.8063,0.5492,0.1208,0.1833,369.7,5.8,-72.1,2.191,-2.17,2.572,1023
2018,4,26,14,43,14.161,-0.8436,0.4959,0.1283,0.161,311.8,-29.7,-26.8,0.433,-0.74,0.261,1023
2018,4,26,14,43,14.18,-0.86,0.4656,0.1206,0.17,13.6,-181,40.7,-0.237,1.489,2.811,1023
2018,4,26,14,43,14.185,-0.8517,0.4802,0.0804,0.1933,-219.8,-267.5,-22.3,-0.177,0.574,1.657,1023
2018,4,26,14,43,14.206,-0.8352,0.5074,0.0204,0.2109,-230.7,-296.5,-111.9,0.059,0.869,-1.533,0
2018,4,26,14,43,14.226,-0.8313,0.5119,-0.0222,0.2151,16.4,-137.1,-82.4,-0.151,-0.792,0.851,0
2018,4,26,14,43,14.265,-0.8383,0.5004,-0.0447,0.2112,33,-101.3,-106,-0.688,0.83,1.261,0
2018,4,26,14,43,14.284,-0.8354,0.5058,-0.0788,0.1996,-186.7,-139.4,-197,-0.35,1.328,1.545,0
2018,4,26,14,43,14.288,-0.8087,0.5464,-0.128,0.1756,-470.7,-141.8,-178.3,-0.491,-0.283,1.32,0
2018,4,26,14,43,14.309,-0.7484,0.6169,-0.179,0.1646,-551.4,-255.5,-47,-0.977,0.281,-2.602,0
2018,4,26,14,43,14.329,-0.7145,0.6414,-0.212,0.1816,60.3,-133.7,37.8,-0.69,-1.628,-1.875,0
2018,4,26,14,43,14.346,-0.7238,0.6288,-0.2105,0.1901,110.1,61.7,-13.5,-0.267,-1.951,-1.196,0
2018,4,26,14,43,14.38,-0.741,0.6193,-0.197,0.1689,7.9,191.6,-105.1,-0.503,0.762,-0.835,0
2018,4,26,14,43,14.401,-0.74,0.6335,-0.1805,0.1353,-163.7,189.3,-45.2,-1.348,1.658,0.041,0
2018,4,26,14,43,14.405,-0.7276,0.6565,-0.1664,0.1082,-119.4,130,6.6,0.642,1.15,0.555,0
2018,4,26,14,43,14.445,-0.7295,0.6585,-0.1495,0.1083,131.3,10.7,95.1,0.757,-0.67,0.991,0
2018,4,26,14,43,14.464,-0.7448,0.6393,-0.1418,0.1274,165.5,-60.7,68.3,0.37,-0.636,0.72,0
2018,4,26,14,43,14.468,-0.7484,0.6318,-0.1463,0.1384,-89.9,-66.6,-21.9,0.207,0.637,0.857,1023
2018,4,26,14,43,14.489,-0.7317,0.647,-0.1628,0.1393,-138.8,-89.4,-16.9,0.306,-0.283,0.454,1023
2018,4,26,14,43,14.508,-0.7131,0.6615,-0.1785,0.1478,-133.5,-106.9,17.7,0.152,-0.087,0.119,1023
2018,4,26,14,43,14.547,-0.693,0.6768,-0.1925,0.1564,-153.7,-85.7,9.1,-0.164,0.056,-0.196,1023
2018,4,26,14,43,14.567,-0.6692,0.6956,-0.2069,0.1594,-196.2,-67.4,-8.5,-0.19,0.336,-0.534,1023
2018,4,26,14,43,14.571,-0.6448,0.7148,-0.2195,0.158,-151,-46.3,-9.3,-0.013,-0.318,-0.638,1023
2018,4,26,14,43,14.609,-0.6327,0.7229,-0.227,0.1595,-25.2,-34.1,-1,-0.046,-0.289,-0.389,1023
2018,4,26,14,43,14.635,-0.6342,0.7206,-0.2282,0.1622,41,1.4,1.3,-0.504,-0.077,-0.137,1023
2018,4,26,14,43,14.649,-0.6405,0.7157,-0.2261,0.162,35.3,10.8,-16.9,-0.167,0.187,0.303,1023
2018,4,26,14,43,14.651,-0.6387,0.7175,-0.2282,0.1581,-76.1,2.5,-13.5,0.068,0.239,0.344,1023
2018,4,26,14,43,14.668,-0.6248,0.7289,-0.233,0.1545,-123.1,-21.6,-2.3,-0.062,0.037,0.025,1023
2018,4,26,14,43,14.689,-0.609,0.7403,-0.2393,0.1536,-98.5,-34.3,-5.8,-0.107,-0.057,-0.18,1023
2018,4,26,14,43,14.727,-0.5982,0.7466,-0.2464,0.1544,-46.3,-36.9,-15,-0.073,-0.102,-0.208,0
2018,4,26,14,43,14.748,-0.5936,0.7482,-0.2527,0.1542,-19.6,-16.4,-20.2,0.084,-0.005,-0.069,0
2018,4,26,14,43,14.752,-0.5918,0.7486,-0.2561,0.1534,2.3,-8.7,-5.6,0.121,-0.152,-0.125,0
2018,4,26,14,43,14.79,-0.5936,0.7469,-0.2564,0.1547,30.7,-2.1,1.7,-0.041,-0.009,-0.081,0
2018,4,26,14,43,14.809,-0.5976,0.7436,-0.2557,0.1564,32,-1.9,-5.2,-0.174,0.047,-0.021,0
2018,4,26,14,43,14.814,-0.6001,0.7412,-0.2567,0.1561,-1.5,2.4,-15.9,-0.127,0.142,0.2,0
2018,4,26,14,43,14.85,-0.5971,0.7438,-0.259,0.1517,-57.8,14.4,-20.9,-0.098,0.158,0.184,0
2018,4,26,14,43,14.854,-0.5885,0.7508,-0.2622,0.1451,-75.4,1.1,-14.2,-0.087,-0.037,0.037,0
2018,4,26,14,43,14.871,-0.5792,0.7576,-0.2653,0.1412,-69,-2.9,-5.5,0.083,-0.003,0.035,0
2018,4,26,14,43,14.89,-0.5706,0.7641,-0.2674,0.1375,-64.5,4.4,-2.7,0.231,-0.044,0.096,0
2018,4,26,14,43,14.91,-0.5624,0.7702,-0.2693,0.1334,-67.7,2,-4.6,0.074,0.006,0.014,0
2018,4,26,14,43,14.949,-0.5525,0.7774,-0.2711,0.1295,-73.3,3.3,-0.5,-0.037,0.019,-0.035,0
2018,4,26,14,43,14.969,-0.5435,0.7836,-0.2726,0.127,-49.5,-4.1,1,-0.095,-0.054,-0.106,0
2018,4,26,14,43,14.973,-0.538,0.7873,-0.2731,0.1261,-24.1,2.5,3,-0.038,-0.013,-0.065,0
2018,4,26,14,43,14.993,-0.5359,0.7892,-0.2724,0.1249,-7.9,9,1.7,0,-0.006,-0.015,1023
2018,4,26,14,43,15.028,-0.5353,0.7902,-0.2715,0.1233,-9,9.5,1.9,0.004,0.001,0.023,1023
2018,4,26,14,43,15.049,-0.5345,0.7912,-0.2709,0.1217,-11.5,5.5,1,0.047,0.01,0.042,1023
2018,4,26,14,43,15.053,-0.5334,0.7921,-0.271,0.1205,-10.2,1.2,-0.7,0.024,0.016,0.029,1023
2018,4,26,14,43,15.092,-0.5319,0.7929,-0.2716,0.1199,-12.8,-2.4,-1.5,-0.015,0.015,0.017,1023
2018,4,26,14,43,15.112,-0.5299,0.7941,-0.2723,0.1197,-14.2,-3.4,-1.7,-0.022,0.01,0.019,1023
2018,4,26,14,43,15.117,-0.5277,0.7953,-0.2731,0.1195,-13.7,-2.3,-1.1,-0.016,0.002,-0.003,1023
2018,4,26,14,43,15.132,-0.526,0.7964,-0.2733,0.119,-7.2,0.1,-1,0.01,0.002,-0.005,1023
2018,4,26,14,43,15.17,-0.5253,0.797,-0.2733,0.1186,-2.3,2.6,0.9,-0.007,-0.004,-0.011,1023
2018,4,26,14,43,15.19,-0.5252,0.7972,-0.2728,0.1183,-0.3,4.3,0.5,-0.023,0.005,0.009,1023
2018,4,26,14,43,15.194,-0.5245,0.7981,-0.2719,0.1176,-9.3,8.5,5,-0.081,0.035,-0.043,1023
2018,4,26,14,43,15.213,-0.5237,0.799,-0.2709,0.1171,-4.7,1.3,2.8,0.035,-0.038,0.026,0
2018,4,26,14,43,15.233,-0.5241,0.7987,-0.2711,0.1173,5.3,-0.2,-0.8,-0.017,0.003,-0.012,0
2018,4,26,14,43,15.273,-0.525,0.7981,-0.271,0.1177,7.1,-0.6,-0.4,-0.015,0.023,0.031,0
2018,4,26,14,43,15.277,-0.5257,0.7976,-0.2707,0.118,2.5,0.9,0.5,-0.008,0.002,0.026,0
2018,4,26,14,43,15.293,-0.5259,0.7975,-0.2706,0.1181,-0.5,0.3,-0.1,-0.005,0.013,0.024,0
2018,4,26,14,43,15.332,-0.5256,0.7977,-0.2705,0.1182,-3.4,-1.1,1.9,-0.008,0.009,0.009,0
2018,4,26,14,43,15.353,-0.525,0.7982,-0.2703,0.1186,-2.6,-0.8,2.6,-0.014,0,0.001,0
2018,4,26,14,43,15.357,-0.5246,0.7985,-0.27,0.1188,-2.6,1.1,1.1,-0.011,0.006,0.013,0
2018,4,26,14,43,15.371,-0.5242,0.7989,-0.2697,0.1185,-4,2.1,1.1,-0.003,0.015,0.013,0
2018,4,26,14,43,15.414,-0.5236,0.7994,-0.2694,0.1184,-3.4,0,2.5,-0.007,0.002,0.003,0
2018,4,26,14,43,15.431,-0.5231,0.7998,-0.2691,0.1187,-2.6,-0.8,2.5,-0.019,0.004,0.011,0
2018,4,26,14,43,15.436,-0.5226,0.8002,-0.2688,0.119,-3.6,-0.6,0.6,-0.021,0.005,0.009,0
2018,4,26,14,43,15.456,-0.5221,0.8005,-0.2689,0.119,-2.7,0.4,-0.9,-0.008,0.003,0.005,0
2018,4,26,14,43,15.477,-0.5218,0.8007,-0.2689,0.1188,-0.2,0.6,-0.3,-0.004,0.003,0,0
2018,4,26,14,43,15.495,-0.522,0.8006,-0.2688,0.119,3.4,-0.2,0,-0.015,0,0.003,0
2018,4,26,14,43,15.516,-0.5225,0.8003,-0.2687,0.1193,2.2,0,-1.1,-0.018,0.006,0.018,0
2018,4,26,14,43,15.539,-0.5237,0.7994,-0.2689,0.1194,-1.7,-0.2,-0.8,-0.007,0.012,0.02,1023
2018,4,26,14,43,15.558,-0.5234,0.7995,-0.269,0.1195,-0.6,-1,0,-0.007,0.001,0.004,1023
2018,4,26,14,43,15.594,-0.5234,0.7995,-0.269,0.1197,1.4,0,0.1,-0.009,0,0.003,1023
2018,4,26,14,43,15.598,-0.5237,0.7994,-0.2688,0.1198,1.7,0.7,-0.2,-0.011,0.008,0.016,1023
2018,4,26,14,43,15.614,-0.5238,0.7993,-0.2688,0.1199,0,0.1,-0.5,-0.005,0.011,0.014,1023
2018,4,26,14,43,15.653,-0.5237,0.7994,-0.2688,0.1198,-1.5,-0.4,-0.5,-0.009,0.004,0.008,1023
2018,4,26,14,43,15.673,-0.5235,0.7994,-0.2689,0.1199,-0.2,-0.3,-0.7,-0.008,0.004,0.008,1023
2018,4,26,14,43,15.677,-0.5235,0.7994,-0.269,0.1199,0.3,-0.4,-0.8,-0.009,0.008,0.011,1023
2018,4,26,14,43,15.697,-0.5235,0.7993,-0.2692,0.12,-0.8,-0.4,-1.1,-0.005,0.01,0.009,1023
2018,4,26,14,43,15.715,-0.5233,0.7994,-0.2693,0.1199,-1.5,-0.1,0,-0.002,0.004,0.004,1023
2018,4,26,14,43,15.755,-0.5231,0.7995,-0.2692,0.12,1.1,0.3,0.3,-0.008,0.003,-0.001,1023
2018,4,26,14,43,15.777,-0.5234,0.7994,-0.269,0.1201,1.5,0.8,0.1,-0.01,0.01,0.017,0
2018,4,26,14,43,15.782,-0.5235,0.7994,-0.2689,0.1201,-1.1,0.7,0,-0.012,0.008,0.017,0
2018,4,26,14,43,15.8,-0.5232,0.7996,-0.2689,0.12,-2.3,-0.5,-0.1,-0.009,0.008,0.006,0
2018,4,26,14,43,15.822,-0.5229,0.7998,-0.269,0.1201,-1.7,-0.8,-0.4,-0.007,0.002,0.002,0
2018,4,26,14,43,15.841,-0.5227,0.7998,-0.2691,0.1202,-0.2,-0.4,-0.8,-0.006,0.008,0.007,0
2018,4,26,14,43,15.861,-0.5226,0.7998,-0.2692,0.1202,-0.6,-0.4,-0.4,-0.002,0.006,0.008,0
2018,4,26,14,43,15.878,-0.5225,0.7999,-0.2693,0.1202,-1.1,-0.3,0,-0.006,0.005,0.005,0
2018,4,26,14,43,15.917,-0.5223,0.8,-0.2692,0.1203,-0.9,-0.1,0.3,-0.006,0.008,0.005,0
2018,4,26,14,43,15.935,-0.5222,0.8001,-0.2692,0.1204,0,0,0,-0.006,0.006,0.011,0
2018,4,26,14,43,15.939,-0.5222,0.8001,-0.2692,0.1204,-0.5,0.3,0.1,-0.004,0.012,0.01,0
2018,4,26,14,43,15.959,-0.5222,0.8001,-0.2691,0.1204,1.6,0.1,0.2,-0.007,0.005,0.005,0
2018,4,26,14,43,15.979,-0.5224,0.8,-0.2689,0.1206,0.7,0.1,-0.2,-0.01,0.007,0.014,0
2018,4,26,14,43,16.017,-0.5224,0.8,-0.2689,0.1206,-0.8,0.7,-0.7,-0.006,0.005,0.01,0
2018,4,26,14,43,16.038,-0.5224,0.8001,-0.2689,0.1205,-0.1,0.5,-0.2,-0.004,0.01,0.008,0
2018,4,26,14,43,16.042,-0.5224,0.8001,-0.2689,0.1204,-0.6,0.8,-0.1,-0.004,0.008,0.009,0
2018,4,26,14,43,16.059,-0.5223,0.8002,-0.2687,0.1203,-0.1,0.6,-0.1,-0.01,0.005,0.003,0
2018,4,26,14,43,16.077,-0.5223,0.8002,-0.2687,0.1203,-0.6,0.1,-0.4,-0.006,0.009,0.016,1023
2018,4,26,14,43,16.097,-0.5222,0.8003,-0.2688,0.1203,-1.6,-0.3,-0.3,-0.008,0.007,0.003,1023
2018,4,26,14,43,16.137,-0.522,0.8004,-0.2689,0.1204,0,-0.6,-0.7,-0.006,0,0.002,1023
2018,4,26,14,43,16.157,-0.5221,0.8003,-0.2689,0.1204,1.1,0.1,-0.6,-0.002,0.008,0.003,1023
2018,4,26,14,43,16.162,-0.5222,0.8002,-0.2689,0.1204,0,0,0,-0.002,0.012,0.014,1023
2018,4,26,14,43,16.18,-0.5221,0.8002,-0.2689,0.1204,-0.6,-0.3,-0.2,-0.003,0.006,0,1023
2018,4,26,14,43,16.201,-0.5222,0.8002,-0.269,0.1205,1.4,-0.5,-0.4,-0.004,0.007,0.004,1023
2018,4,26,14,43,16.224,-0.5224,0.8,-0.269,0.1207,1.6,0,-0.3,-0.005,0.01,0.008,1023
2018,4,26,14,43,16.244,-0.5226,0.7999,-0.269,0.1207,0,0,0,-0.003,0.008,0.008,1023
2018,4,26,14,43,16.263,-0.5226,0.7999,-0.2689,0.1207,0.1,0,0.6,-0.005,0.007,0.007,1023
2018,4,26,14,43,16.283,-0.5226,0.7999,-0.2688,0.1209,0.6,-0.1,0,-0.01,0.007,0.003,1023
2018,4,26,14,43,16.32,-0.5226,0.7999,-0.2688,0.1209,0,0,0,-0.005,0.011,0.011,0
2018,4,26,14,43,16.34,-0.5225,0.8,-0.2688,0.1208,-1.2,0,0.1,-0.003,0.012,0.008,0
2018,4,26,14,43,16.344,-0.5223,0.8001,-0.2688,0.1208,-2.2,0,0.3,-0.002,0.009,0.004,0
2018,4,26,14,43,16.36,-0.522,0.8004,-0.2687,0.1208,0,0,0,-0.008,0.003,-0.003,0
2018,4,26,14,43,16.4,-0.5221,0.8003,-0.2686,0.1208,1.7,0.4,-0.2,-0.007,0.008,0.01,0
2018,4,26,14,43,16.42,-0.5223,0.8002,-0.2686,0.1209,0,0,0,-0.005,0.013,0.013,0
2018,4,26,14,43,16.424,-0.522,0.8003,-0.2686,0.1209,-1.9,-0.4,0,-0.004,0.007,0.005,0
2018,4,26,14,43,16.441,-0.5218,0.8005,-0.2686,0.1208,-1.2,0,0,-0.005,0.008,0,0
2018,4,26,14,43,16.48,-0.5217,0.8006,-0.2686,0.1207,-0.3,1.1,-0.4,-0.003,0.009,0.002,0
2018,4,26,14,43,16.502,-0.5217,0.8007,-0.2686,0.1205,-0.7,0.9,-0.6,-0.006,0.008,0.007,0
2018,4,26,14,43,16.506,-0.5216,0.8007,-0.2686,0.1204,-1.5,0.1,-0.1,0.001,0.012,0.013,0
2018,4,26,14,43,16.524,-0.5213,0.8009,-0.2686,0.1203,-0.9,-0.1,0,-0.006,0.005,-0.004,0
2018,4,26,14,43,16.544,-0.5213,0.8009,-0.2686,0.1203,1,0.4,-0.6,-0.004,0.007,0.003,0
2018,4,26,14,43,16.563,-0.5215,0.8007,-0.2686,0.1203,0.6,0.8,-0.4,-0.002,0.009,0.014,0
2018,4,26,14,43,16.584,-0.5216,0.8008,-0.2686,0.1202,-1.1,0.3,0.1,-0.004,0.008,0.01,0
2018,4,26,14,43,16.603,-0.5214,0.8009,-0.2686,0.1203,-1.5,-0.8,0,-0.004,0.009,0.007,0
2018,4,26,14,43,16.622,-0.5211,0.801,-0.2687,0.1204,0,-1.2,0,-0.002,0.008,0.001,0
2018,4,26,14,43,16.641,-0.5211,0.8009,-0.2688,0.1205,0.4,-0.5,-0.2,-0.002,0.007,0.008,1023
2018,4,26,14,43,16.664,-0.5212,0.8009,-0.2688,0.1206,0,0,0,-0.003,0.01,0.012,1023
2018,4,26,14,43,16.682,-0.5211,0.8009,-0.2688,0.1206,-0.9,0,-0.1,0,0.011,0.012,1023
2018,4,26,14,43,16.723,-0.521,0.801,-0.2688,0.1206,-0.9,-0.3,0.2,-0.003,0.008,0.002,1023
2018,4,26,14,43,16.745,-0.5209,0.801,-0.2688,0.1206,0.7,0,0,-0.003,0.005,0,1023
2018,4,26,14,43,16.749,-0.521,0.801,-0.2687,0.1207,0.1,0.5,-0.1,-0.006,0.011,0.013,1023
2018,4,26,14,43,16.765,-0.521,0.801,-0.2687,0.1206,-0.7,0.3,-0.2,-0.006,0.01,0.003,1023
2018,4,26,14,43,16.803,-0.521,0.8011,-0.2687,0.1206,0,0,0,-0.003,0.006,-0.002,1023
2018,4,26,14,43,16.824,-0.5211,0.801,-0.2686,0.1206,1.6,0.4,0.2,-0.003,0.009,0.011,1023
2018,4,26,14,43,16.828,-0.5213,0.8009,-0.2684,0.1207,-2.4,-0.1,0,-0.006,0.01,0.007,0
2018,4,26,14,43,16.842,-0.5208,0.8012,-0.2685,0.1206,-3.2,0,0.1,-0.001,0.013,0.011,0
2018,4,26,14,43,16.863,-0.5204,0.8015,-0.2685,0.1205,-1,0.1,0.3,-0.001,0.003,-0.01,0
2018,4,26,14,43,16.883,-0.5204,0.8015,-0.2684,0.1205,0.4,0.9,0.3,0,0.008,0.004,0
2018,4,26,14,43,16.921,-0.5205,0.8016,-0.2682,0.1204,-0.2,1.4,0.3,-0.004,0.009,0.01,0
2018,4,26,14,43,16.941,-0.5205,0.8017,-0.268,0.1202,-0.6,1.2,0,-0.003,0.011,0.008,0
2018,4,26,14,43,16.945,-0.5205,0.8017,-0.2679,0.1201,0,0,0,-0.005,0.008,0.001,0
2018,4,26,14,43,16.986,-0.5207,0.8016,-0.2679,0.1202,0.9,0.4,-0.1,-0.002,0.01,0.011,0
2018,4,26,14,43,17.005,-0.5208,0.8015,-0.2678,0.1202,0,0,0,-0.005,0.009,0.006,0
2018,4,26,14,43,17.01,-0.5206,0.8016,-0.2679,0.1202,-1,-0.1,-0.1,-0.004,0.01,0.001,0
2018,4,26,14,43,17.029,-0.5206,0.8017,-0.2679,0.1201,0.5,0.3,0.2,0,0.01,0.006,0
2018,4,26,14,43,17.049,-0.5207,0.8016,-0.2678,0.1202,1.2,0.3,0.1,-0.007,0.008,0.002,0
2018,4,26,14,43,17.065,-0.5209,0.8015,-0.2677,0.1202,1.2,0.2,-0.4,-0.005,0.008,0.004,0
2018,4,26,14,43,17.104,-0.521,0.8014,-0.2676,0.1202,0,0,0,-0.002,0.011,0.01,0
2018,4,26,14,43,17.124,-0.521,0.8015,-0.2676,0.1201,-0.1,0.5,0,0,0.009,0,0
2018,4,26,14,43,17.128,-0.5211,0.8014,-0.2675,0.1201,1.3,0.6,0.2,0,0.012,0.007,0
2018,4,26,14,43,17.147,-0.5213,0.8013,-0.2674,0.1202,1.2,0.5,0.2,-0.005,0.009,0.009,0
2018,4,26,14,43,17.168,-0.5215,0.8012,-0.2673,0.1202,0.9,0.2,-0.1,-0.007,0.008,0.009,1023
2018,4,26,14,43,17.187,-0.5216,0.8012,-0.2673,0.1202,1.6,0.2,-0.7,-0.003,0.009,0.005,1023
2018,4,26,14,43,17.207,-0.5219,0.801,-0.2673,0.1202,2.1,0.4,-0.4,-0.002,0.009,0.008,1023
2018,4,26,14,43,17.245,-0.5222,0.8008,-0.2673,0.1202,1.9,0.8,-0.4,-0.001,0.011,0.006,1023
2018,4,26,14,43,17.264,-0.5225,0.8006,-0.2672,0.1202,0.9,0.5,-0.1,0,0.01,0.008,1023
2018,4,26,14,43,17.268,-0.5226,0.8006,-0.2672,0.1202,0.1,0,-0.5,-0.005,0.009,0.009,1023
2018,4,26,14,43,17.307,-0.5227,0.8005,-0.2673,0.1202,0.6,-0.3,-0.6,-0.004,0.01,0.013,1023
2018,4,26,14,43,17.328,-0.5227,0.8004,-0.2673,0.1202,0.4,0,-0.5,0.002,0.008,0.003,1023
2018,4,26,14,43,17.332,-0.5228,0.8004,-0.2673,0.1202,0,0,0,0,0.009,0.011,1023
2018,4,26,14,43,17.349,-0.5228,0.8004,-0.2673,0.1202,-1,0.1,0,-0.004,0.008,0.012,1023
2018,4,26,14,43,17.37,-0.5226,0.8005,-0.2673,0.1201,-2.4,-0.1,-0.1,-0.004,0.008,0.009,1023
2018,4,26,14,43,17.388,-0.5222,0.8008,-0.2674,0.12,-2.8,0,0,0,0.008,0.005,1023
2018,4,26,14,43,17.427,-0.5218,0.801,-0.2675,0.1199,-1.9,-0.2,0.2,-0.003,0.008,0.005,0
2018,4,26,14,43,17.447,-0.5216,0.8012,-0.2674,0.1199,-1.2,0.1,0.2,-0.004,0.009,0.007,0
2018,4,26,14,43,17.451,-0.5214,0.8013,-0.2674,0.1198,-1.9,0.5,0,-0.003,0.012,0.008,0
2018,4,26,14,43,17.471,-0.5212,0.8015,-0.2674,0.1197,-1,-0.2,-0.1,-0.001,0.009,-0.001,0
2018,4,26,14,43,17.49,-0.5212,0.8015,-0.2675,0.1198,0.5,-0.6,0,-0.003,0.004,0.003,0
2018,4,26,14,43,17.531,-0.5212,0.8014,-0.2675,0.1199,0,0,0,-0.003,0.007,0.008,0
2018,4,26,14,43,17.535,-0.5212,0.8014,-0.2675,0.1199,-0.9,-0.1,-0.4,0,0.01,0.006,0
2018,4,26,14,43,17.551,-0.5211,0.8015,-0.2675,0.1199,-0.6,-0.2,-0.1,-0.005,0.009,0.004,0
2018,4,26,14,43,17.57,-0.5211,0.8015,-0.2676,0.1199,1.1,0.1,-0.1,0.001,0.008,0.007,0
2018,4,26,14,43,17.59,-0.5212,0.8014,-0.2675,0.1199,0.6,0.3,0,0,0.013,0.004,0
2018,4,26,14,43,17.627,-0.5213,0.8014,-0.2675,0.1199,0,0,0,-0.007,0.009,0.006,0
2018,4,26,14,43,17.649,-0.5213,0.8014,-0.2675,0.1199,0,0,0,0.001,0.009,0.005,0
2018,4,26,14,43,17.654,-0.5215,0.8013,-0.2673,0.12,0,0,0,-0.002,0.01,0.016,0
2018,4,26,14,43,17.669,-0.5213,0.8014,-0.2673,0.12,-1.3,-0.5,0,-0.003,0.006,0.003,0
2018,4,26,14,43,17.69,-0.5212,0.8014,-0.2674,0.12,0,0,0,0,0.01,0.004,0
2018,4,26,14,43,17.731,-0.5212,0.8014,-0.2674,0.12,0,0,0,-0.003,0.006,0.005,0
2018,4,26,14,43,17.75,-0.5212,0.8014,-0.2673,0.1201,0,0,0,-0.002,0.012,0.011,1023
2018,4,26,14,43,17.754,-0.5211,0.8015,-0.2674,0.12,-1.2,-0.4,-0.4,-0.002,0.009,0.006,1023
2018,4,26,14,43,17.793,-0.521,0.8015,-0.2675,0.12,0,0,0,0,0.008,0,1023
2018,4,26,14,43,17.812,-0.521,0.8015,-0.2675,0.12,0.7,0.4,0,-0.002,0.009,0.005,1023
2018,4,26,14,43,17.816,-0.5211,0.8015,-0.2674,0.12,0.6,0.3,-0.1,-0.001,0.01,0.012,1023
2018,4,26,14,43,17.832,-0.5212,0.8014,-0.2674,0.12,0,0,0,-0.004,0.006,0.008,1023
2018,4,26,14,43,17.87,-0.5211,0.8015,-0.2674,0.12,-0.7,0,0,0,0.011,0.003,1023
2018,4,26,14,43,17.89,-0.5211,0.8015,-0.2674,0.12,0,0,0,0,0.012,0.002,1023
2018,4,26,14,43,17.894,-0.5211,0.8015,-0.2674,0.12,0,0,0,-0.002,0.01,0.005,1023
2018,4,26,14,43,17.913,-0.521,0.8015,-0.2674,0.12,-1,-0.1,0,-0.002,0.009,0.007,1023
2018,4,26,14,43,17.951,-0.5209,0.8016,-0.2674,0.12,-1.3,-0.1,0.1,-0.001,0.005,0.005,1023
2018,4,26,14,43,17.972,-0.5207,0.8017,-0.2674,0.12,-0.7,0,0.1,-0.002,0.006,0.003,1023
2018,4,26,14,43,17.976,-0.5207,0.8018,-0.2674,0.12,-0.6,0.3,0,-0.003,0.008,0.004,0
2018,4,26,14,43,17.995,-0.5206,0.8018,-0.2674,0.1199,-0.8,0.1,-0.1,-0.001,0.008,0.004,0
2018,4,26,14,43,18.015,-0.5205,0.8019,-0.2674,0.1199,0,0,0,-0.001,0.008,0.002,0
2018,4,26,14,43,18.035,-0.5206,0.8019,-0.2674,0.1199,0,0,0,-0.002,0.01,0.002,0
2018,4,26,14,43,18.056,-0.5206,0.8018,-0.2674,0.12,0,0,0,-0.006,0.008,0.005,0
2018,4,26,14,43,18.073,-0.5206,0.8018,-0.2673,0.12,0,0,0,-0.001,0.01,0.001,0
2018,4,26,14,43,18.11,-0.5206,0.8018,-0.2673,0.12,0,0,0,0.002,0.01,0.009,0
2018,4,26,14,43,18.13,-0.5206,0.8018,-0.2673,0.12,0.5,0.1,0,-0.003,0.009,0.003,0
2018,4,26,14,43,18.134,-0.5206,0.8018,-0.2673,0.12,0,0,0,-0.002,0.012,0.005,0
2018,4,26,14,43,18.173,-0.5206,0.8018,-0.2673,0.12,0,0,0,0.001,0.01,0.005,0
2018,4,26,14,43,18.192,-0.5206,0.8018,-0.2673,0.12,0,0,0,0,0.007,0.01,0
2018,4,26,14,43,18.196,-0.5207,0.8018,-0.2673,0.12,0,0,0,-0.005,0.009,0.004,0
2018,4,26,14,43,18.215,-0.5207,0.8018,-0.2673,0.1201,0.6,-0.1,-0.1,-0.002,0.007,0.006,0
2018,4,26,14,43,18.237,-0.5208,0.8017,-0.2673,0.1201,0.8,-0.1,-0.2,0,0.008,0.006,0
2018,4,26,14,43,18.259,-0.5208,0.8017,-0.2673,0.1201,0,0,0,-0.003,0.01,0.005,0
2018,4,26,14,43,18.279,-0.5208,0.8017,-0.2673,0.1202,0,0,0,-0.002,0.013,0.007,1023
2018,4,26,14,43,18.298,-0.5208,0.8017,-0.2673,0.1202,0,0,0,-0.001,0.009,0.007,1023
2018,4,26,14,43,18.32,-0.5208,0.8017,-0.2673,0.1202,0,0,0,-0.001,0.007,0,1023
2018,4,26,14,43,18.335,-0.5208,0.8017,-0.2673,0.1202,0,0,0,-0.002,0.009,0.012,1023
2018,4,26,14,43,18.355,-0.521,0.8016,-0.2673,0.1202,1.2,0,0.2,-0.003,0.011,0.01,1023
2018,4,26,14,43,18.394,-0.5211,0.8015,-0.2672,0.1203,0.7,0.1,0,-0.003,0.008,0.004,1023
2018,4,26,14,43,18.416,-0.5212,0.8015,-0.2672,0.1203,0,0,0,-0.002,0.012,0.01,1023
2018,4,26,14,43,18.42,-0.5212,0.8015,-0.2672,0.1203,0,0,0,-0.001,0.006,0.004,1023
2018,4,26,14,43,18.438,-0.5212,0.8015,-0.2672,0.1203,0,0,0,-0.001,0.009,0.006,1023
2018,4,26,14,43,18.458,-0.5211,0.8015,-0.2672,0.1203,-0.5,-0.1,0,-0.001,0.006,0.004,0
2018,4,26,14,43,18.479,-0.5211,0.8015,-0.2672,0.1203,0,0,0,-0.003,0.009,0,0
2018,4,26,14,43,18.498,-0.5211,0.8015,-0.2672,0.1204,0,0,0,0,0.008,0.005,0
2018,4,26,14,43,18.519,-0.5211,0.8015,-0.2672,0.1204,0,0,0,-0.001,0.01,0.004,0
2018,4,26,14,43,18.554,-0.5211,0.8015,-0.2672,0.1204,0,0,0,0,0.01,0.003,0
2018,4,26,14,43,18.575,-0.5211,0.8015,-0.2672,0.1204,0.5,0.1,0,0,0.009,0.003,0
2018,4,26,14,43,18.579,-0.5213,0.8014,-0.2672,0.1205,0.6,0.1,0,-0.004,0.007,0.009,0
2018,4,26,14,43,18.595,-0.5213,0.8014,-0.2671,0.1205,0,0,0,-0.002,0.009,0.007,0
2018,4,26,14,43,18.635,-0.5213,0.8014,-0.2671,0.1205,0,0,0,-0.003,0.009,0.008,0
2018,4,26,14,43,18.653,-0.5213,0.8014,-0.2671,0.1205,0,0,0,-0.001,0.009,0.006,0
2018,4,26,14,43,18.657,-0.5213,0.8014,-0.2671,0.1205,0.5,0.1,-0.1,-0.002,0.008,0.003,0
2018,4,26,14,43,18.678,-0.5215,0.8013,-0.2671,0.1205,0.7,0.2,-0.4,0,0.009,0.008,0
2018,4,26,14,43,18.699,-0.5215,0.8012,-0.2671,0.1205,0,0,0,0,0.011,0.005,0
2018,4,26,14,43,18.719,-0.5215,0.8013,-0.2671,0.1204,-0.5,0.2,0.3,-0.003,0.011,0.006,0
2018,4,26,14,43,18.739,-0.5215,0.8013,-0.2671,0.1204,0,0,0,-0.004,0.006,0.002,0
2018,4,26,14,43,18.777,-0.5215,0.8013,-0.2671,0.1205,0,0,0,0,0.008,0.006,0
2018,4,26,14,43,18.782,-0.5215,0.8013,-0.2671,0.1205,0,0,0,-0.002,0.009,0.002,0
2018,4,26,14,43,18.799,-0.5215,0.8013,-0.2671,0.1205,0,0,0,-0.001,0.008,0.004,0
2018,4,26,14,43,18.818,-0.5215,0.8013,-0.2671,0.1205,0,0,0,-0.003,0.008,0.005,0
2018,4,26,14,43,18.838,-0.5215,0.8013,-0.267,0.1205,0,0,0,0,0.01,0.007,0
2018,4,26,14,43,18.876,-0.5215,0.8012,-0.267,0.1205,0,0,0,0,0.004,0.005,1023
2018,4,26,14,43,18.896,-0.5215,0.8012,-0.267,0.1205,0,0,0,-0.003,0.012,0.008,1023
2018,4,26,14,43,18.9,-0.5215,0.8012,-0.267,0.1205,0,0,0,-0.001,0.01,0.002,1023
2018,4,26,14,43,18.937,-0.5216,0.8012,-0.267,0.1206,0.6,0,-0.2,0.001,0.007,0.002,1023
2018,4,26,14,43,18.957,-0.5216,0.8012,-0.267,0.1206,0,0,0,0,0.011,0.007,1023
2018,4,26,14,43,18.961,-0.5217,0.8012,-0.267,0.1206,0,0,0,-0.002,0.009,0.002,1023
2018,4,26,14,43,19.001,-0.5216,0.8012,-0.267,0.1206,-0.9,-0.1,0.1,-0.001,0.01,0.004,1023
2018,4,26,14,43,19.02,-0.5214,0.8013,-0.2671,0.1206,-1.2,-0.3,0,-0.002,0.01,0.006,1023
2018,4,26,14,43,19.024,-0.5213,0.8014,-0.2671,0.1206,0,0,0,0,0.007,0.002,1023
2018,4,26,14,43,19.06,-0.5213,0.8014,-0.2671,0.1206,0,0,0,0,0.008,0.006,0
2018,4,26,14,43,19.064,-0.5213,0.8014,-0.2671,0.1206,0,0,0,-0.003,0.008,0.003,0
2018,4,26,14,43,19.08,-0.5213,0.8014,-0.2671,0.1206,0,0,0,-0.001,0.007,0.002,0
2018,4,26,14,43,19.12,-0.5213,0.8014,-0.2671,0.1206,0,0,0,-0.001,0.007,0.003,0
2018,4,26,14,43,19.14,-0.5213,0.8014,-0.2671,0.1206,0.5,0.3,-0.1,-0.001,0.009,0.002,0
2018,4,26,14,43,19.144,-0.5214,0.8013,-0.2671,0.1206,0,0,0,-0.005,0.012,0.004,0
2018,4,26,14,43,19.162,-0.5214,0.8013,-0.2671,0.1206,-0.5,-0.3,-0.1,-0.002,0.011,0.001,0
2018,4,26,14,43,19.184,-0.5213,0.8014,-0.2671,0.1206,0,0,0,0,0.005,0.001,0
2018,4,26,14,43,19.204,-0.5213,0.8014,-0.2671,0.1206,0,0,0,0.001,0.011,0.011,0
2018,4,26,14,43,19.24,-0.5213,0.8014,-0.2671,0.1206,0,0,0,-0.001,0.009,0.002,0
2018,4,26,14,43,19.26,-0.5213,0.8014,-0.2671,0.1206,0.5,-0.1,-0.2,-0.002,0.009,0,0
2018,4,26,14,43,19.265,-0.5213,0.8013,-0.2671,0.1206,0.5,0.2,0.1,0.002,0.01,0.006,0
2018,4,26,14,43,19.282,-0.5214,0.8013,-0.2671,0.1206,0,0,0,0.001,0.014,0.011,0
2018,4,26,14,43,19.301,-0.5214,0.8013,-0.2671,0.1207,-0.7,-0.4,0.1,-0.001,0.008,0.006,0
2018,4,26,14,43,19.321,-0.5213,0.8014,-0.2671,0.1207,0,0,0,0,0.005,0,0
2018,4,26,14,43,19.361,-0.5214,0.8013,-0.2671,0.1208,1.6,0.2,0,-0.001,0.006,0.003,0
2018,4,26,14,43,19.38,-0.5216,0.8011,-0.2671,0.1208,0.9,0.3,-0.2,0,0.014,0.011,0
2018,4,26,14,43,19.384,-0.5217,0.8011,-0.2671,0.1208,0,0,0,-0.003,0.014,0.008,0
2018,4,26,14,43,19.421,-0.5216,0.8011,-0.2672,0.1208,0,0,0,0,0.005,0.001,1023
2018,4,26,14,43,19.442,-0.5216,0.8011,-0.2672,0.1207,0.8,0.1,-0.4,0.001,0.005,0.004,1023
2018,4,26,14,43,19.446,-0.5218,0.801,-0.2672,0.1207,1.1,0,-0.2,0,0.012,0.008,1023
2018,4,26,14,43,19.464,-0.5219,0.8009,-0.2672,0.1208,0,0,0,-0.003,0.01,0.009,1023
2018,4,26,14,43,19.5,-0.5219,0.8009,-0.2672,0.1207,0,0,0,0.005,0.008,-0.006,1023
2018,4,26,14,43,19.519,-0.5219,0.8009,-0.2671,0.1207,0.3,0.4,1.1,0,0.009,0.003,1023
2018,4,26,14,43,19.527,-0.5219,0.801,-0.2669,0.1208,-0.2,0,1,-0.004,0.011,0.011,1023
2018,4,26,14,43,19.544,-0.5219,0.801,-0.2668,0.1209,0,0,0,-0.003,0.008,0.007,1023
2018,4,26,14,43,19.564,-0.5219,0.801,-0.2668,0.121,0,0,0,-0.001,0.005,0.008,1023
2018,4,26,14,43,19.585,-0.5219,0.801,-0.2668,0.121,0,0,0,-0.003,0.007,0.009,1023
2018,4,26,14,43,19.623,-0.5219,0.801,-0.2669,0.1209,-1,-0.3,-0.5,-0.002,0.01,0.007,1023
2018,4,26,14,43,19.644,-0.5218,0.8011,-0.267,0.1209,-0.9,-0.4,-0.2,0,0.008,0.001,0
2018,4,26,14,43,19.672,-0.5217,0.8011,-0.2671,0.1209,0,0,0,-0.002,0.005,0.002,0
2018,4,26,14,43,19.686,-0.5217,0.8011,-0.267,0.1209,0,0,0,-0.004,0.006,0.003,0
2018,4,26,14,43,19.688,-0.5217,0.8011,-0.2671,0.1209,0,0,0,0,0.011,0.002,0
2018,4,26,14,43,19.724,-0.5217,0.8011,-0.267,0.1209,0,0,0,-0.002,0.01,0.009,0
2018,4,26,14,43,19.743,-0.5216,0.8011,-0.2671,0.1209,-1.2,0,-0.2,0,0.008,0.003,0
2018,4,26,14,43,19.745,-0.5215,0.8012,-0.2672,0.1208,-0.9,-0.2,-0.2,-0.001,0.005,-0.001,0
2018,4,26,14,43,19.763,-0.5214,0.8012,-0.2672,0.1208,-0.7,0,-0.1,-0.003,0.014,0.011,0
2018,4,26,14,43,19.784,-0.5213,0.8013,-0.2673,0.1208,-1.1,-0.2,-0.5,0,0.005,0,0
2018,4,26,14,43,19.822,-0.5212,0.8013,-0.2674,0.1207,0,0,0,0,0.007,-0.001,0
2018,4,26,14,43,19.843,-0.5213,0.8013,-0.2674,0.1207,1.1,0.1,0,0.002,0.009,0.005,0
2018,4,26,14,43,19.845,-0.5214,0.8012,-0.2673,0.1207,0,0,0,0,0.009,0.007,0
2018,4,26,14,43,19.883,-0.5214,0.8012,-0.2673,0.1208,0,0,0,-0.004,0.01,0.008,0
2018,4,26,14,43,19.903,-0.5214,0.8012,-0.2674,0.1208,0,0,0,0.001,0.009,0.003,0
2018,4,26,14,43,19.905,-0.5214,0.8012,-0.2674,0.1208,0.7,0,-0.1,0,0.005,0,0
2018,4,26,14,43,19.945,-0.5216,0.8011,-0.2674,0.1208,1.1,0.1,-0.1,0,0.007,0.01,0
2018,4,26,14,43,19.964,-0.5217,0.801,-0.2673,0.1208,0,0,0,0,0.01,0.013,0
2018,4,26,14,43,19.968,-0.5216,0.801,-0.2674,0.1208,-0.6,-0.3,0.1,0.002,0.006,0.004,0
2018,4,26,14,43,19.984,-0.5216,0.8011,-0.2674,0.1208,0.7,0.1,0,-0.003,0.007,0.003,1023
2018,4,26,14,43,20.003,-0.5217,0.801,-0.2673,0.1208,0.5,0.3,0,0,0.011,0.009,1023
2018,4,26,14,43,20.042,-0.5217,0.801,-0.2673,0.1208,0,0,0,-0.003,0.01,0.008,1023
2018,4,26,14,43,20.063,-0.5217,0.801,-0.2673,0.1208,0,0,0,-0.001,0.009,0.007,1023
2018,4,26,14,43,20.067,-0.5218,0.801,-0.2673,0.1209,0,0,0,-0.004,0.009,0.006,1023
2018,4,26,14,43,20.087,-0.5218,0.801,-0.2673,0.1209,0,0,0,0,0.01,0.005,1023
2018,4,26,14,43,20.108,-0.5217,0.801,-0.2673,0.1209,-0.7,-0.2,0,-0.001,0.008,0.003,1023
2018,4,26,14,43,20.146,-0.5216,0.8011,-0.2673,0.1209,-0.7,-0.1,0,-0.003,0.009,0.008,1023
2018,4,26,14,43,20.166,-0.5215,0.8011,-0.2673,0.1208,-0.9,0,0,-0.003,0.008,0.001,1023
2018,4,26,14,43,20.17,-0.5214,0.8012,-0.2674,0.1208,0,0,0,0,0.01,0.004,1023
2018,4,26,14,43,20.191,-0.5214,0.8012,-0.2674,0.1208,-0.1,0.1,-0.5,-0.002,0.011,0.005,1023
2018,4,26,14,43,20.212,-0.5214,0.8012,-0.2674,0.1208,0,0,0,0,0.011,0.006,0
2018,4,26,14,43,20.232,-0.5214,0.8012,-0.2674,0.1208,0,0,0,0,0.008,0.002,0
2018,4,26,14,43,20.252,-0.5214,0.8012,-0.2674,0.1207,0,0,0,0.002,0.011,0.001,0
2018,4,26,14,43,20.268,-0.5214,0.8012,-0.2674,0.1207,0,0,0,-0.002,0.011,0.008,0
2018,4,26,14,43,20.305,-0.5214,0.8012,-0.2674,0.1208,-0.7,-0.3,0,-0.001,0.008,0.002,0
2018,4,26,14,43,20.325,-0.5213,0.8012,-0.2674,0.1208,0,0,0,0,0.012,0.007,0
2018,4,26,14,43,20.329,-0.5213,0.8012,-0.2674,0.1208,0,0,0,0,0.009,0.001,0
2018,4,26,14,43,20.367,-0.5214,0.8012,-0.2674,0.1208,0.5,0.1,0,0,0.008,0.006,0
2018,4,26,14,43,20.388,-0.5215,0.8011,-0.2674,0.1208,0.9,-0.1,-0.2,-0.002,0.008,0.01,0
2018,4,26,14,43,20.392,-0.5216,0.8011,-0.2674,0.1208,0.7,0,0,0,0.01,0.009,0
2018,4,26,14,43,20.411,-0.5216,0.801,-0.2674,0.1208,0,0,0,0,0.009,0.006,0
2018,4,26,14,43,20.448,-0.5216,0.8011,-0.2674,0.1208,0.5,-0.3,0.1,0.001,0.007,0,0
2018,4,26,14,43,20.468,-0.5217,0.801,-0.2674,0.1209,0.7,0.1,0,-0.002,0.009,0.007,0
2018,4,26,14,43,20.473,-0.5218,0.8009,-0.2674,0.1209,0.6,0.1,-0.3,0,0.009,0.008,0
2018,4,26,14,43,20.49,-0.5219,0.8009,-0.2674,0.1209,0,0,0,0,0.012,0.011,0
2018,4,26,14,43,20.511,-0.5218,0.8009,-0.2674,0.1209,0,0,0,-0.002,0.006,-0.002,0
2018,4,26,14,43,20.533,-0.5218,0.8009,-0.2674,0.1209,0,0,0,0,0.009,0.004,0
2018,4,26,14,43,20.552,-0.5218,0.8009,-0.2674,0.1209,0,0,0,0,0.012,0.005,1023
2018,4,26,14,43,20.57,-0.5219,0.8008,-0.2674,0.1209,0.5,0,-0.2,0,0.01,0.009,1023
2018,4,26,14,43,20.592,-0.5219,0.8008,-0.2674,0.1209,0,0,0,0,0.008,0.003,1023
2018,4,26,14,43,20.612,-0.5219,0.8008,-0.2674,0.1209,0,0,0,-0.001,0.008,0.007,1023
2018,4,26,14,43,20.652,-0.5219,0.8008,-0.2674,0.1209,0,0,0,0,0.006,0.003,1023
2018,4,26,14,43,20.673,-0.5219,0.8008,-0.2674,0.1209,0,0,0,0,0.011,0.004,1023
2018,4,26,14,43,20.677,-0.5219,0.8008,-0.2674,0.1209,-0.6,0,0,0,0.01,0.006,1023
2018,4,26,14,43,20.696,-0.5218,0.8009,-0.2674,0.1209,0,0,0,0,0.006,0.001,1023
2018,4,26,14,43,20.716,-0.5218,0.8009,-0.2674,0.1209,0,0,0,-0.001,0.006,0.004,1023
2018,4,26,14,43,20.737,-0.5218,0.8009,-0.2674,0.1209,0,0,0,-0.003,0.011,0.007,1023
2018,4,26,14,43,20.755,-0.5219,0.8009,-0.2674,0.1209,0,0,0,0,0.007,0.007,1023
2018,4,26,14,43,20.772,-0.5219,0.8009,-0.2674,0.1209,0,0,0,0,0.008,0.004,0
2018,4,26,14,43,20.794,-0.5219,0.8009,-0.2674,0.1209,0,0,0,-0.001,0.01,0.004,0
2018,4,26,14,43,20.814,-0.5219,0.8008,-0.2674,0.1209,0,0,0,-0.002,0.013,0.007,0
2018,4,26,14,43,20.851,-0.522,0.8008,-0.2674,0.121,0,0,0,-0.001,0.011,0.011,0
2018,4,26,14,43,20.872,-0.5218,0.8009,-0.2674,0.121,-0.9,-0.5,0.2,-0.001,0.007,-0.003,0
2018,4,26,14,43,20.876,-0.5217,0.8009,-0.2674,0.121,0,0,0,0,0.003,-0.002,0
2018,4,26,14,43,20.895,-0.5219,0.8008,-0.2674,0.121,0.6,0.2,-0.2,-0.001,0.015,0.011,0
2018,4,26,14,43,20.915,-0.5219,0.8008,-0.2674,0.121,0,0,0,0,0.01,0.007,0
2018,4,26,14,43,20.935,-0.5219,0.8008,-0.2674,0.121,0.7,-0.1,-0.2,0,0.006,0.002,0
2018,4,26,14,43,20.955,-0.522,0.8007,-0.2674,0.121,0.9,0.1,-0.1,0,0.009,0.003,0
2018,4,26,14,43,20.992,-0.5222,0.8006,-0.2674,0.121,0.7,0.3,0.2,0.001,0.009,0.008,0
2018,4,26,14,43,20.997,-0.5223,0.8006,-0.2674,0.121,0,0,0,0,0.01,0.006,0
2018,4,26,14,43,21.013,-0.5223,0.8006,-0.2673,0.1211,0,0,0,-0.005,0.008,0.003,0
2018,4,26,14,43,21.053,-0.5224,0.8005,-0.2673,0.1211,0.6,0.2,-0.4,-0.003,0.008,0.006,0
2018,4,26,14,43,21.072,-0.5224,0.8005,-0.2674,0.121,0,0,0,-0.002,0.011,0.008,0
2018,4,26,14,43,21.076,-0.5225,0.8005,-0.2674,0.121,0,0,0,-0.002,0.01,0.003,0
2018,4,26,14,43,21.095,-0.5225,0.8004,-0.2674,0.121,0,0,0,0,0.008,0.004,0
2018,4,26,14,43,21.116,-0.5225,0.8004,-0.2674,0.121,0,0,0,0.002,0.01,0.007,0
2018,4,26,14,43,21.138,-0.5225,0.8004,-0.2674,0.121,0,0,0,0,0.006,-0.003,1023
2018,4,26,14,43,21.157,-0.5225,0.8004,-0.2674,0.121,0.9,0.1,-0.2,-0.001,0.008,0.004,1023
2018,4,26,14,43,21.176,-0.5227,0.8003,-0.2673,0.121,1.1,0.5,-0.1,0,0.012,0.01,1023
2018,4,26,14,43,21.197,-0.5229,0.8002,-0.2673,0.121,0,0,0,0,0.014,0.012,1023
2018,4,26,14,43,21.238,-0.5227,0.8003,-0.2673,0.121,-1.2,-0.4,0.2,-0.003,0.008,0.003,1023
2018,4,26,14,43,21.268,-0.5225,0.8004,-0.2673,0.1211,-1,-0.2,0.1,-0.004,0.008,0.003,1023
2018,4,26,14,43,21.27,-0.5225,0.8005,-0.2673,0.1211,0,0,0,0,0.006,0.001,1023
2018,4,26,14,43,21.274,-0.5225,0.8005,-0.2673,0.1211,0,0,0,-0.002,0.011,0.01,1023
2018,4,26,14,43,21.31,-0.5225,0.8005,-0.2673,0.1211,-0.6,0,0,0,0.01,0.003,1023
2018,4,26,14,43,21.33,-0.5224,0.8005,-0.2673,0.1211,0,0,0,-0.002,0.006,0.001,1023
2018,4,26,14,43,21.335,-0.5225,0.8005,-0.2673,0.1211,0.8,0,0,-0.003,0.004,0.004,1023
2018,4,26,14,43,21.371,-0.5226,0.8004,-0.2673,0.1211,0,0,0,0,0.011,0.009,0
2018,4,26,14,43,21.392,-0.5226,0.8004,-0.2673,0.1211,0,0,0,-0.003,0.009,0.004,0
2018,4,26,14,43,21.396,-0.5226,0.8004,-0.2673,0.1211,0,0,0,-0.001,0.011,0.003,0
2018,4,26,14,43,21.433,-0.5226,0.8004,-0.2673,0.1211,0,0,0,-0.001,0.007,0.004,0
2018,4,26,14,43,21.453,-0.5225,0.8004,-0.2673,0.1211,-0.6,-0.1,0,-0.002,0.009,0.006,0
2018,4,26,14,43,21.457,-0.5224,0.8005,-0.2673,0.1211,0,0,0,-0.004,0.004,0.003,0
2018,4,26,14,43,21.493,-0.5225,0.8005,-0.2673,0.1212,0,0,0,-0.001,0.01,0.005,0
2018,4,26,14,43,21.512,-0.5225,0.8005,-0.2673,0.1212,0,0,0,0,0.009,0.003,0
2018,4,26,14,43,21.515,-0.5225,0.8005,-0.2673,0.1212,0,0,0,0.002,0.008,0,0
2018,4,26,14,43,21.551,-0.5225,0.8004,-0.2673,0.1212,0,0,0,0,0.01,0.008,0
2018,4,26,14,43,21.571,-0.5225,0.8004,-0.2673,0.1211,0,0,0,0.001,0.009,0.008,0
2018,4,26,14,43,21.575,-0.5225,0.8004,-0.2673,0.1212,0,0,0,-0.003,0.01,0.008,0
2018,4,26,14,43,21.612,-0.5225,0.8004,-0.2673,0.1212,0,0,0,0,0.009,0,0
2018,4,26,14,43,21.632,-0.5226,0.8004,-0.2673,0.1212,0.5,0,0,-0.003,0.008,0.007,0
2018,4,26,14,43,21.642,-0.5227,0.8003,-0.2673,0.1212,0,0,0,-0.003,0.008,0.009,0
2018,4,26,14,43,21.659,-0.5227,0.8003,-0.2673,0.1212,0,0,0,-0.002,0.007,0.006,0
2018,4,26,14,43,21.679,-0.5226,0.8004,-0.2673,0.1212,0,0,0,0,0.007,0.005,0
2018,4,26,14,43,21.702,-0.5227,0.8003,-0.2673,0.1212,0,0,0,-0.002,0.007,0.005,1023
2018,4,26,14,43,21.722,-0.5227,0.8003,-0.2673,0.1212,0,0,0,-0.001,0.011,0.009,1023
2018,4,26,14,43,21.757,-0.5227,0.8003,-0.2673,0.1212,0,0,0,0,0.008,0.006,1023
2018,4,26,14,43,21.778,-0.5228,0.8003,-0.2673,0.1212,0,0,0,-0.002,0.007,0.006,1023
2018,4,26,14,43,21.782,-0.5228,0.8003,-0.2673,0.1212,-0.6,0.1,0,0,0.009,0.007,1023
2018,4,26,14,43,21.803,-0.5227,0.8003,-0.2673,0.1212,-0.9,-0.1,0,0,0.009,0.009,1023
2018,4,26,14,43,21.82,-0.5224,0.8005,-0.2674,0.1211,-0.7,-0.1,0,0,0.007,0.001,1023
2018,4,26,14,43,21.861,-0.5223,0.8005,-0.2674,0.1211,-0.5,0,0,-0.001,0.008,0.006,1023
2018,4,26,14,43,21.881,-0.5222,0.8006,-0.2674,0.1211,-0.8,-0.2,0,-0.003,0.01,0.003,1023
2018,4,26,14,43,21.885,-0.5221,0.8006,-0.2674,0.1211,0,0,0,0,0.003,-0.001,1023
2018,4,26,14,43,21.902,-0.5221,0.8007,-0.2674,0.1211,0,0,0,0,0.009,0.006,1023
2018,4,26,14,43,21.938,-0.5222,0.8006,-0.2674,0.1211,0,0,0,0.001,0.01,0.009,0
2018,4,26,14,43,21.958,-0.5222,0.8006,-0.2674,0.1211,0,0,0,0,0.011,0.009,0
2018,4,26,14,43,21.963,-0.5222,0.8006,-0.2674,0.1211,0,0,0,0,0.006,0.004,0
2018,4,26,14,43,21.996,-0.5222,0.8006,-0.2674,0.1211,0.5,0.1,0,-0.003,0.008,0.004,0
2018,4,26,14,43,21.998,-0.5224,0.8005,-0.2674,0.1211,0,0,0,0,0.016,0.015,0
2018,4,26,14,43,22.019,-0.5222,0.8006,-0.2674,0.121,-1.2,-0.3,-0.1,-0.003,0.008,0.002,0
2018,4,26,14,43,22.053,-0.5221,0.8006,-0.2675,0.121,0,0,0,0,0.005,0,0
2018,4,26,14,43,22.073,-0.5222,0.8006,-0.2675,0.121,0.8,0.1,-0.1,0.001,0.01,0.008,0
2018,4,26,14,43,22.08,-0.5223,0.8005,-0.2675,0.121,0,0,0,-0.002,0.012,0.008,0
2018,4,26,14,43,22.113,-0.5222,0.8006,-0.2675,0.121,-0.7,-0.4,0.1,-0.003,0.007,0.006,0
2018,4,26,14,43,22.134,-0.5222,0.8006,-0.2675,0.1211,0,0,0,0,0.007,0.003,0
2018,4,26,14,43,22.139,-0.5222,0.8006,-0.2675,0.1211,0.7,0.1,-0.1,-0.001,0.006,0.003,0
2018,4,26,14,43,22.176,-0.5223,0.8005,-0.2675,0.1211,0,0,0,-0.003,0.008,0.005,0
2018,4,26,14,43,22.196,-0.5223,0.8005,-0.2675,0.1211,0,0,0,-0.001,0.01,0.002,0
2018,4,26,14,43,22.199,-0.5223,0.8005,-0.2675,0.1211,0,0,0,-0.001,0.008,0.001,0
2018,4,26,14,43,22.234,-0.5223,0.8005,-0.2675,0.1211,0.6,0.3,-0.1,-0.001,0.007,0.003,0
2018,4,26,14,43,22.253,-0.5224,0.8005,-0.2675,0.1211,0,0,0,-0.003,0.003,0,0
2018,4,26,14,43,22.26,-0.5224,0.8005,-0.2674,0.1211,0,0,0,-0.002,0.011,0.006,0
2018,4,26,14,43,22.293,-0.5224,0.8004,-0.2674,0.1211,0,0,0,-0.001,0.007,0.008,1023
2018,4,26,14,43,22.314,-0.5224,0.8004,-0.2674,0.1211,0,0,0,-0.003,0.011,0.003,1023
2018,4,26,14,43,22.321,-0.5224,0.8004,-0.2674,0.1211,0,0,0,-0.003,0.009,0.011,1023
2018,4,26,14,43,22.356,-0.5224,0.8005,-0.2674,0.1211,-0.7,0,0,-0.002,0.012,0.012,1023
2018,4,26,14,43,22.375,-0.5223,0.8005,-0.2675,0.1211,-1,0,0,0,0.008,0.001,1023
2018,4,26,14,43,22.384,-0.5222,0.8006,-0.2675,0.1211,0,0,0,0,0.009,0.003,1023
2018,4,26,14,43,22.419,-0.5222,0.8006,-0.2675,0.1211,0,0,0,-0.002,0.007,0.007,1023
2018,4,26,14,43,22.438,-0.5222,0.8006,-0.2675,0.1211,0,0,0,0,0.009,0.006,1023
2018,4,26,14,43,22.446,-0.5222,0.8006,-0.2675,0.1211,0,0,0,0,0.006,0.006,1023
2018,4,26,14,43,22.483,-0.5222,0.8006,-0.2675,0.1211,0,0,0,0,0.006,0.004,1023
2018,4,26,14,43,22.502,-0.5222,0.8006,-0.2675,0.1211,0,0,0,0,0.008,0.002,1023
2018,4,26,14,43,22.503,-0.5222,0.8006,-0.2674,0.1211,0,0,0,-0.001,0.013,0.01,0
2018,4,26,14,43,22.542,-0.5222,0.8006,-0.2674,0.1211,0,0,0,-0.002,0.009,0.007,0
2018,4,26,14,43,22.562,-0.5222,0.8006,-0.2674,0.1211,0,0,0,0.001,0.007,0.001,0
2018,4,26,14,43,22.565,-0.5222,0.8006,-0.2674,0.1211,0,0,0,-0.002,0.011,0.004,0
2018,4,26,14,43,22.602,-0.5222,0.8006,-0.2674,0.1211,-0.6,-0.1,-0.1,0,0.008,0.002,0
2018,4,26,14,43,22.623,-0.5222,0.8006,-0.2675,0.1211,0,0,0,-0.002,0.006,0,0
2018,4,26,14,43,22.624,-0.5223,0.8005,-0.2675,0.1211,1,0.1,-0.4,-0.001,0.009,0.005,0
