ax,ay,az,dpitch,droll,dyaw,heart,time_1,time_2,time_3,time_4,time_5,time_6,w,x,y,z
-0.256,0.669,0.338,-92.1,85.9,156.6,0,2018,5,11,13,45,30.317,0.6684,0.468,0.214,-0.5368
-0.173,-0.327,-0.192,-107.4,128.3,197.7,0,2018,5,11,13,45,30.336,0.6373,0.4834,0.2303,-0.554
0.14,-1.39,-1.003,-75.6,122.4,137.3,0,2018,5,11,13,45,30.345,0.6054,0.499,0.2437,-0.5701
0.334,-1.528,-0.938,14.2,81.9,-9.2,0,2018,5,11,13,45,30.366,0.5877,0.5109,0.2407,-0.5791
0.09,-0.773,-0.387,67.9,-108.2,-126.9,0,2018,5,11,13,45,30.386,0.5983,0.5083,0.23,-0.575
-0.153,-0.382,-0.077,101.8,-252.4,-185.7,0,2018,5,11,13,45,30.405,0.6348,0.485,0.226,-0.5572
-0.454,0.1,0.562,95.6,-218.7,-176.2,0,2018,5,11,13,45,30.427,0.6774,0.4536,0.2226,-0.5344
-0.375,0.967,0.878,47.7,-60.6,-110.4,0,2018,5,11,13,45,30.465,0.7043,0.4358,0.2155,-0.5171
-0.217,1.711,0.854,-16.7,19.4,0.8,0,2018,5,11,13,45,30.485,0.7104,0.4356,0.2102,-0.5111
-0.137,1.088,0.553,-79.1,41.5,122.8,0,2018,5,11,13,45,30.489,0.7004,0.4412,0.2191,-0.5164
-0.224,-0.092,0.205,-120,102.6,193.7,0,2018,5,11,13,45,30.506,0.675,0.4531,0.2375,-0.5315
0.085,-1.283,-0.709,-115.6,123.9,156.3,0,2018,5,11,13,45,30.525,0.6434,0.4696,0.2562,-0.5475
0.345,-1.444,-1.204,-15.4,152.8,14.7,0,2018,5,11,13,45,30.545,0.6193,0.4888,0.2562,-0.5583
0.156,-0.489,-0.573,51.5,-70.7,-108.3,0,2018,5,11,13,45,30.585,0.6213,0.4943,0.2434,-0.557
-0.075,-0.375,-0.207,96.3,-255.8,-172.2,0,2018,5,11,13,45,30.604,0.654,0.4726,0.2405,-0.5394
-0.395,0.035,0.539,103.3,-245.6,-171.6,0,2018,5,11,13,45,30.608,0.6957,0.4395,0.2381,-0.5158
-0.426,0.757,0.767,57.6,-125.9,-111.1,0,2018,5,11,13,45,30.629,0.7258,0.4147,0.2339,-0.4962
-0.289,1.369,0.648,13.3,13.1,-17.2,0,2018,5,11,13,45,30.648,0.7361,0.4083,0.2292,-0.4886
-0.203,1.318,0.566,-23.5,76.7,88.1,0,2018,5,11,13,45,30.686,0.7288,0.4142,0.2281,-0.4951
-0.301,0.528,0.6,-61.5,85,174.6,0,2018,5,11,13,45,30.706,0.7087,0.4232,0.2361,-0.5126
-0.146,-0.633,-0.217,-86.3,57.9,189.4,0,2018,5,11,13,45,30.71,0.6828,0.4306,0.2532,-0.5329
0.084,-1.399,-0.975,-32.7,103,125.7,1023,2018,5,11,13,45,30.726,0.6588,0.4384,0.266,-0.5503
0.027,-0.824,-0.593,41,61.8,33.2,1023,2018,5,11,13,45,30.761,0.6442,0.4451,0.2611,-0.5643
-0.137,-0.426,-0.182,77,-98.1,-25.4,1023,2018,5,11,13,45,30.782,0.6489,0.4365,0.2565,-0.5679
-0.269,-0.281,0.106,93.8,-146.2,-49.6,1023,2018,5,11,13,45,30.786,0.6672,0.4137,0.257,-0.5634
-0.324,0.227,0.482,77.3,-44.4,-28.8,1023,2018,5,11,13,45,30.827,0.6824,0.3952,0.2536,-0.5601
-0.339,0.873,0.597,38.8,36.7,34.6,1023,2018,5,11,13,45,30.848,0.6845,0.39,0.246,-0.5645
-0.17,0.822,0.412,3.6,50.9,107.8,0,2018,5,11,13,45,30.852,0.6747,0.3908,0.2438,-0.5765
-0.04,0.289,0.176,-20.3,43.7,157.7,0,2018,5,11,13,45,30.888,0.657,0.3915,0.2496,-0.5938
0.05,-0.29,-0.185,-23.8,61.3,165.4,0,2018,5,11,13,45,30.909,0.6352,0.3922,0.2584,-0.613
0.079,-0.4,-0.29,-9.5,98.3,142.5,0,2018,5,11,13,45,30.913,0.612,0.3959,0.262,-0.6324
0.102,-0.33,-0.202,5.1,98.1,112.1,0,2018,5,11,13,45,30.932,0.5905,0.4011,0.2594,-0.6504
0.131,-0.191,-0.054,11.2,67.6,82.6,0,2018,5,11,13,45,30.948,0.5741,0.4041,0.2558,-0.6644
0.111,-0.019,-0.005,8.9,28.7,64.7,0,2018,5,11,13,45,30.987,0.5625,0.4045,0.2547,-0.6745
0.132,-0.011,-0.042,6.5,3.7,50.7,0,2018,5,11,13,45,31.006,0.5549,0.4025,0.2572,-0.6809
0.147,-0.005,-0.018,1.7,10.4,43.5,0,2018,5,11,13,45,31.011,0.5489,0.401,0.2598,-0.6857
0.19,0.069,-0.066,-5.3,28,40.5,0,2018,5,11,13,45,31.027,0.542,0.4021,0.2608,-0.6902
0.21,0.029,-0.173,-14.5,15.3,38.9,0,2018,5,11,13,45,31.067,0.535,0.4038,0.2618,-0.6943
0.254,-0.093,-0.331,-16.6,-11.3,30.4,0,2018,5,11,13,45,31.087,0.5299,0.4042,0.2657,-0.6965
0.268,-0.075,-0.409,-12.1,-25.4,14.2,0,2018,5,11,13,45,31.091,0.5278,0.4032,0.2709,-0.6966
0.3,-0.123,-0.43,-7.3,-35.6,-3.2,0,2018,5,11,13,45,31.127,0.5289,0.4012,0.2759,-0.6949
0.39,-0.114,-0.376,-4.1,-64.2,-18,0,2018,5,11,13,45,31.146,0.5333,0.398,0.2812,-0.6913
0.438,-0.287,-0.378,-10.6,-112.9,-33.5,0,2018,5,11,13,45,31.15,0.5423,0.3916,0.291,-0.6839
0.42,-0.369,-0.423,-12.6,-138.7,-59.7,0,2018,5,11,13,45,31.167,0.5558,0.3832,0.3042,-0.6719
0.475,-0.18,-0.482,-15.1,-168.8,-84.1,0,2018,5,11,13,45,31.207,0.5737,0.3737,0.3185,-0.6554
0.615,-0.314,-0.494,-15.6,-202.4,-106,0,2018,5,11,13,45,31.227,0.5955,0.3618,0.3352,-0.634
0.478,-0.441,-0.228,-3.4,-189.7,-132.4,0,2018,5,11,13,45,31.231,0.6205,0.3485,0.3509,-0.6085
0.145,-0.276,0.331,6.7,-124.5,-151.5,0,2018,5,11,13,45,31.25,0.645,0.3398,0.3581,-0.5831
0.007,0,0.588,-8.9,-90.1,-148.7,0,2018,5,11,13,45,31.287,0.6661,0.3376,0.3594,-0.5594
-0.161,0.117,0.503,-21.5,-87.6,-134,0,2018,5,11,13,45,31.307,0.6838,0.3377,0.3616,-0.5362
-0.37,0.173,0.657,-25.8,-87.1,-120.3,0,2018,5,11,13,45,31.311,0.699,0.3373,0.365,-0.5139
-0.537,0.08,0.773,-33.8,-73.2,-102.3,0,2018,5,11,13,45,31.351,0.7117,0.337,0.3694,-0.4932
-0.779,0.032,0.713,-33.8,-11.6,-82.5,0,2018,5,11,13,45,31.371,0.7198,0.3404,0.3721,-0.4768
-0.906,0.335,0.625,-28.4,33.7,-59.1,0,2018,5,11,13,45,31.375,0.7225,0.3498,0.3703,-0.4672
-0.902,0.451,0.45,-20.9,29.6,-30.5,1023,2018,5,11,13,45,31.392,0.7224,0.359,0.368,-0.4622
-0.869,0.465,0.295,-2.3,17.7,-1.6,1023,2018,5,11,13,45,31.411,0.7214,0.3639,0.3667,-0.461
-0.75,0.335,0.09,23.8,36.6,28.3,1023,2018,5,11,13,45,31.43,0.7194,0.3653,0.3643,-0.4649
-0.652,0.357,-0.063,56.5,76.8,61.3,1023,2018,5,11,13,45,31.45,0.7145,0.3663,0.3573,-0.4769
-0.52,0.358,-0.038,88.1,95.7,93.7,1023,2018,5,11,13,45,31.47,0.7066,0.3663,0.3456,-0.4969
-0.357,0.36,0.069,109,83.7,126.3,1023,2018,5,11,13,45,31.509,0.6968,0.3621,0.3322,-0.5223
-0.169,0.159,0.029,116.7,71.4,156.7,1023,2018,5,11,13,45,31.531,0.6853,0.3523,0.3205,-0.5508
-0.052,-0.157,0.026,119.2,85.9,169.3,0,2018,5,11,13,45,31.535,0.6708,0.3404,0.3085,-0.582
0.167,-0.37,0.111,112.2,91.3,158.5,0,2018,5,11,13,45,31.571,0.6545,0.3299,0.2953,-0.6127
0.334,-0.49,0.153,95,97.4,134.1,0,2018,5,11,13,45,31.593,0.6383,0.3219,0.2815,-0.6399
0.393,-0.452,0.229,66.1,90.3,111.2,0,2018,5,11,13,45,31.597,0.6231,0.3173,0.2685,-0.6624
0.58,-0.471,0.151,26.8,72.5,92.5,0,2018,5,11,13,45,31.616,0.6088,0.3161,0.2597,-0.6796
0.683,-0.5,0.02,-8.1,48.3,69.9,0,2018,5,11,13,45,31.635,0.5961,0.3179,0.256,-0.6913
0.682,-0.624,-0.031,-38.7,6.5,35.2,0,2018,5,11,13,45,31.651,0.587,0.3214,0.2581,-0.6967
0.559,-0.825,-0.099,-63.4,-42,-13.5,0,2018,5,11,13,45,31.689,0.5844,0.3252,0.2664,-0.694
0.443,-1.164,-0.235,-72.9,-44.1,-86.4,0,2018,5,11,13,45,31.709,0.5898,0.3312,0.2765,-0.6825
0.198,-0.855,-0.216,-57.1,-39,-164.7,0,2018,5,11,13,45,31.713,0.6039,0.3414,0.28,-0.6635
-0.086,-0.291,-0.184,-45.7,-101.2,-213.6,0,2018,5,11,13,45,31.751,0.6275,0.3491,0.2816,-0.6363
-0.325,0.163,0.106,-40.4,-132.6,-230,0,2018,5,11,13,45,31.771,0.6575,0.3504,0.286,-0.6024
-0.538,0.635,0.457,-53.7,-52.3,-206.5,0,2018,5,11,13,45,31.775,0.6837,0.3548,0.2878,-0.5689
-0.565,1.53,0.484,-77,50.7,-132.4,0,2018,5,11,13,45,31.795,0.6966,0.3707,0.2842,-0.5443
-0.534,1.932,0.342,-94.3,65,-28.5,0,2018,5,11,13,45,31.814,0.6955,0.3905,0.2837,-0.5321
-0.374,1.405,0.078,-98.7,74.2,74.6,0,2018,5,11,13,45,31.836,0.6836,0.4059,0.2915,-0.5317
-0.243,0.956,-0.063,-80.7,140.4,162.5,0,2018,5,11,13,45,31.857,0.6597,0.4208,0.3006,-0.5452
-0.219,0.351,-0.17,-62.8,143.6,221.4,0,2018,5,11,13,45,31.872,0.6252,0.4342,0.3085,-0.5702
-0.033,-0.666,-0.509,-64.6,24.7,206.3,0,2018,5,11,13,45,31.893,0.5929,0.4374,0.3235,-0.5936
0.736,-2.53,-1.253,1.8,85.9,71.5,0,2018,5,11,13,45,31.931,0.5721,0.4376,0.3338,-0.608
0.416,-1.902,-0.342,79.5,65.1,-99.2,0,2018,5,11,13,45,31.951,0.5701,0.4431,0.3165,-0.6151
-0.184,-1.567,0.271,73.3,-105.3,-214.4,0,2018,5,11,13,45,31.955,0.5938,0.4406,0.2992,-0.603
-0.649,-0.648,0.81,47.8,-149.9,-278.6,0,2018,5,11,13,45,31.992,0.6339,0.4319,0.2878,-0.5733
-0.878,0.787,1.178,-0.5,-68.1,-264.7,0,2018,5,11,13,45,32.013,0.6703,0.4309,0.2747,-0.5379
-0.805,2.376,0.755,-55.2,-33.4,-164.2,0,2018,5,11,13,45,32.018,0.6924,0.4382,0.2664,-0.5073
-0.624,2.489,0.202,-79.3,-8.7,-26.1,1023,2018,5,11,13,45,32.035,0.6993,0.4455,0.2707,-0.489
-0.286,1.872,-0.143,-65.4,72.2,116,1023,2018,5,11,13,45,32.057,0.689,0.4533,0.2809,-0.4906
-0.162,0.882,-0.313,-30.1,113.6,231.7,1023,2018,5,11,13,45,32.095,0.6624,0.4607,0.2917,-0.5135
-0.263,-0.5,-0.431,-16.5,19.7,248.6,1023,2018,5,11,13,45,32.1,0.6327,0.4572,0.3082,-0.5436
0.244,-2.556,-0.812,40.4,76.4,110.9,1023,2018,5,11,13,45,32.118,0.612,0.4499,0.3196,-0.5663
0.146,-1.865,-0.011,115.1,67.6,-86.1,1023,2018,5,11,13,45,32.134,0.6094,0.4509,0.3011,-0.5783
-0.151,-1.25,0.35,99.5,-102.5,-189.9,0,2018,5,11,13,45,32.171,0.6317,0.4444,0.2806,-0.5696
-0.257,-0.494,0.502,73.6,-89.8,-220.3,0,2018,5,11,13,45,32.191,0.665,0.4334,0.2657,-0.5469
-0.672,1.129,0.695,30.2,-58.1,-173,0,2018,5,11,13,45,32.195,0.6912,0.43,0.2499,-0.5242
-0.33,1.733,0.202,-14.3,-70.4,-71.4,0,2018,5,11,13,45,32.236,0.7073,0.4267,0.2461,-0.5068
-0.229,1.683,0.067,-22.6,-26.3,37.8,0,2018,5,11,13,45,32.254,0.7114,0.423,0.2519,-0.5014
-0.29,1.227,0.033,-25.5,-1.4,139.4,0,2018,5,11,13,45,32.259,0.7028,0.4195,0.2627,-0.5107
-0.301,0.476,-0.078,-26.5,35.5,210.2,0,2018,5,11,13,45,32.278,0.6842,0.4152,0.2777,-0.5312
-0.366,-0.015,-0.059,-13.1,78.9,238.4,0,2018,5,11,13,45,32.317,0.657,0.4129,0.2908,-0.5596
-0.41,-0.413,0.132,-2.5,82.8,225.9,0,2018,5,11,13,45,32.321,0.6271,0.4107,0.3002,-0.5897
-0.349,-0.513,0.311,0.9,53.4,184.7,0,2018,5,11,13,45,32.338,0.6003,0.4075,0.3072,-0.6156
-0.241,-0.358,0.214,4.8,-25.4,135.3,0,2018,5,11,13,45,32.355,0.5819,0.4002,0.3164,-0.6331
-0.135,-0.233,0.107,5.3,-122.7,92.8,0,2018,5,11,13,45,32.376,0.5753,0.3853,0.3325,-0.6402
-0.002,-0.642,-0.182,5.1,-92.1,67.5,0,2018,5,11,13,45,32.416,0.5751,0.3673,0.3513,-0.6409
0.043,-0.367,-0.2,36.7,47.6,50.1,0,2018,5,11,13,45,32.437,0.5709,0.3598,0.3544,-0.6471
0.011,0.167,-0.116,47.7,56.2,47.2,0,2018,5,11,13,45,32.442,0.5643,0.3582,0.346,-0.6583
-0.014,0.2,-0.122,59.6,-4.9,51.2,0,2018,5,11,13,45,32.457,0.56,0.3517,0.3406,-0.6682
0.027,0.133,-0.016,62.2,-68.4,53.3,0,2018,5,11,13,45,32.497,0.56,0.3373,0.3424,-0.6747
0.053,-0.205,-0.056,60.4,-89.9,54.2,0,2018,5,11,13,45,32.517,0.5621,0.3187,0.3495,-0.6783
0.116,-0.215,-0.089,60.3,-53.9,47.2,0,2018,5,11,13,45,32.522,0.5636,0.3014,0.355,-0.6821
0.104,0.004,-0.186,65.6,-58,41.4,0,2018,5,11,13,45,32.537,0.5648,0.2862,0.357,-0.6866
0.132,0.057,-0.172,65.6,-106.7,36.1,0,2018,5,11,13,45,32.557,0.5684,0.2676,0.3624,-0.6883
0.192,-0.06,-0.123,60.3,-163.2,31.3,0,2018,5,11,13,45,32.596,0.5746,0.2439,0.3741,-0.6857
0.409,-0.328,-0.161,46.5,-155.6,21.1,0,2018,5,11,13,45,32.615,0.5817,0.2189,0.3898,-0.6794
0.535,-0.364,-0.332,42.8,-93.1,-1.6,0,2018,5,11,13,45,32.619,0.5879,0.2007,0.4001,-0.6737
0.45,0.033,-0.17,34.6,-55.6,-29.9,0,2018,5,11,13,45,32.638,0.5951,0.19,0.4037,-0.6682
0.433,0.212,-0.106,17.7,-46.3,-48.2,0,2018,5,11,13,45,32.674,0.6033,0.1843,0.4057,-0.6613
0.461,0.072,-0.127,0.9,7.1,-59.6,0,2018,5,11,13,45,32.695,0.6109,0.1848,0.4056,-0.6541
0.404,-0.116,-0.103,-4.7,95.9,-76.3,0,2018,5,11,13,45,32.699,0.6164,0.1961,0.3974,-0.6508
0.197,0.272,0.3,-13.7,84.5,-94.6,1023,2018,5,11,13,45,32.737,0.6224,0.2131,0.3837,-0.6479
0.115,0.11,0.261,-38.3,51.7,-102.3,1023,2018,5,11,13,45,32.757,0.6289,0.2301,0.3757,-0.6404
0.005,-0.1,0.136,-50.2,55.4,-117.2,1023,2018,5,11,13,45,32.765,0.6362,0.2475,0.37,-0.63
-0.063,0.017,0.163,-49.2,68,-129.4,1023,2018,5,11,13,45,32.78,0.6439,0.2671,0.3629,-0.6182
-0.236,0.364,0.339,-50.1,54.3,-131.9,1023,2018,5,11,13,45,32.816,0.652,0.2875,0.3551,-0.605
-0.246,0.51,0.364,-57.9,63.5,-111.7,1023,2018,5,11,13,45,32.836,0.6585,0.3072,0.3491,-0.5915
-0.234,0.65,0.227,-69.5,95.6,-70.4,1023,2018,5,11,13,45,32.841,0.6596,0.3285,0.3434,-0.5821
-0.202,0.829,0.033,-64,123.6,-20.9,0,2018,5,11,13,45,32.859,0.6534,0.3509,0.3371,-0.5797
-0.158,0.676,-0.1,-51.2,121.4,25.5,0,2018,5,11,13,45,32.882,0.6418,0.3704,0.3313,-0.5839
-0.071,0.299,-0.068,-34.7,127.7,53.9,0,2018,5,11,13,45,32.919,0.6267,0.3862,0.3262,-0.5929
-0.066,-0.3,0.102,-26.4,130.6,51.7,0,2018,5,11,13,45,32.939,0.6105,0.4,0.3195,-0.6042
0.023,-0.785,0.099,-20.9,130.5,15.6,0,2018,5,11,13,45,32.943,0.596,0.4143,0.3104,-0.6136
0.124,-1.089,-0.024,-20.1,106.7,-57.2,0,2018,5,11,13,45,32.965,0.5885,0.4299,0.2985,-0.6161
0.035,-0.587,-0.002,-10.4,49.7,-133.1,0,2018,5,11,13,45,32.984,0.592,0.4451,0.2833,-0.6091
-0.08,-0.289,-0.028,-15.5,-59.6,-172.8,0,2018,5,11,13,45,33,0.6087,0.4527,0.2737,-0.5912
-0.187,0.04,0.062,-15.1,-79.5,-178.6,0,2018,5,11,13,45,33.021,0.6323,0.4541,0.2688,-0.5671
-0.255,0.622,0.064,-20.2,-39.3,-146,0,2018,5,11,13,45,33.042,0.6522,0.4568,0.2636,-0.5443
-0.206,1.106,-0.117,-24.3,-26.4,-76.7,0,2018,5,11,13,45,33.079,0.664,0.4606,0.2601,-0.5283
-0.17,1.01,-0.146,-19.6,-12.5,5,0,2018,5,11,13,45,33.099,0.6678,0.4616,0.2619,-0.5217
-0.143,0.594,-0.014,-16.6,28.8,73.2,0,2018,5,11,13,45,33.103,0.6622,0.4626,0.2664,-0.5257
-0.068,-0.073,-0.192,-23.6,16,94.4,0,2018,5,11,13,45,33.122,0.6508,0.4634,0.2737,-0.5354
0.114,-0.615,-0.668,-5.7,4.6,60.3,0,2018,5,11,13,45,33.142,0.6417,0.4619,0.2815,-0.5435
0.143,-0.716,-0.498,36.2,-23.5,-2.9,0,2018,5,11,13,45,33.164,0.6403,0.4584,0.2822,-0.5477
0.011,-0.666,-0.072,50.1,-55,-54.3,0,2018,5,11,13,45,33.184,0.649,0.4508,0.2788,-0.5456
-0.14,-0.298,0.246,44.3,-53.2,-83.8,0,2018,5,11,13,45,33.205,0.6627,0.443,0.273,-0.5384
-0.236,0.362,0.462,20,-38.7,-75.4,0,2018,5,11,13,45,33.225,0.6755,0.4385,0.2669,-0.5292
-0.177,1.01,0.156,-6.6,-17.9,-26,0,2018,5,11,13,45,33.241,0.6825,0.4375,0.2649,-0.522
-0.066,1.283,-0.234,-13.5,-15.7,48.6,0,2018,5,11,13,45,33.279,0.6823,0.4358,0.2689,-0.5216
-0.089,0.791,-0.04,-7.7,-6.3,115.7,0,2018,5,11,13,45,33.299,0.6745,0.4315,0.2774,-0.5307
-0.062,-0.058,-0.052,-10.8,-37.5,145.8,0,2018,5,11,13,45,33.303,0.6627,0.4234,0.2903,-0.5451
0.097,-0.922,-0.351,0.1,-76.3,107.7,0,2018,5,11,13,45,33.323,0.6539,0.4104,0.3066,-0.5566
0.148,-1.461,-0.395,30.4,-83.1,6.9,0,2018,5,11,13,45,33.343,0.655,0.3965,0.3171,-0.5595
-0.019,-0.852,-0.129,54.5,-112.2,-76.3,0,2018,5,11,13,45,33.379,0.6679,0.3833,0.3183,-0.5527
-0.155,-0.175,0.103,52.6,-137.7,-109.3,0,2018,5,11,13,45,33.399,0.6889,0.3681,0.3176,-0.5375
-0.169,0.499,0.197,41,-72.6,-90.5,1023,2018,5,11,13,45,33.403,0.7077,0.3565,0.3155,-0.5219
-0.161,1.26,0.026,23.9,-42.1,-34.6,1023,2018,5,11,13,45,33.424,0.7184,0.3505,0.3121,-0.5133
-0.042,1.273,-0.041,14.2,-22.7,38.5,1023,2018,5,11,13,45,33.446,0.7209,0.3447,0.3129,-0.5132
-0.041,0.964,-0.08,15.6,16.5,105.9,1023,2018,5,11,13,45,33.463,0.7151,0.3389,0.3158,-0.5233
-0.162,0.652,0.059,23.7,37.1,154.2,1023,2018,5,11,13,45,33.482,0.7019,0.3337,0.3182,-0.5426
-0.362,-0.358,0.255,14.1,-15.7,157.3,1023,2018,5,11,13,45,33.505,0.6866,0.3243,0.3236,-0.5644
-0.131,-1.402,0.325,8,-40.9,86,1023,2018,5,11,13,45,33.524,0.6766,0.312,0.333,-0.5778
-0.156,-1.587,0.54,2.2,-33.8,-16.6,0,2018,5,11,13,45,33.544,0.6757,0.3051,0.3376,-0.5799
-0.02,-1.096,0.376,-12.6,-36.2,-99.4,0,2018,5,11,13,45,33.584,0.6836,0.3053,0.3384,-0.5699
-0.015,-0.321,0.153,-22.9,-41.9,-134.2,0,2018,5,11,13,45,33.603,0.6965,0.3095,0.3379,-0.552
-0.069,0.36,-0.057,-28,-31.3,-126.1,0,2018,5,11,13,45,33.607,0.7096,0.3152,0.3374,-0.532
-0.248,0.965,-0.202,-24.9,-14.8,-91.1,0,2018,5,11,13,45,33.625,0.7194,0.3212,0.3368,-0.5155
-0.052,1.531,-0.384,-13.2,-12.3,-30.7,0,2018,5,11,13,45,33.664,0.7244,0.3253,0.3366,-0.5059
-0.024,1.454,-0.388,6.5,0.4,42.8,0,2018,5,11,13,45,33.684,0.7239,0.324,0.3384,-0.5062
-0.057,1.119,-0.305,31.5,32.2,109.3,0,2018,5,11,13,45,33.688,0.717,0.32,0.3386,-0.5183
-0.063,0.672,-0.281,52.7,20,146.5,0,2018,5,11,13,45,33.703,0.7056,0.312,0.338,-0.5388
-0.261,-0.521,0.183,53.1,-28.5,124.7,0,2018,5,11,13,45,33.741,0.6955,0.2976,0.339,-0.5591
-0.082,-1.696,0.677,39.6,-2.6,39.9,0,2018,5,11,13,45,33.761,0.6911,0.2854,0.3401,-0.5702
-0.052,-1.436,0.848,13.9,20.4,-66.4,0,2018,5,11,13,45,33.766,0.6937,0.2858,0.3339,-0.5705
0.147,-0.79,0.382,-22.4,-25.8,-126.9,0,2018,5,11,13,45,33.786,0.7036,0.2918,0.33,-0.5574
-0.003,-0.153,0.212,-44.1,-44.6,-142,0,2018,5,11,13,45,33.805,0.7167,0.2983,0.3307,-0.5364
-0.081,0.367,-0.034,-57.4,-30.6,-128.5,0,2018,5,11,13,45,33.826,0.7285,0.3058,0.3337,-0.514
-0.159,0.94,-0.126,-59.9,-0.5,-95.3,0,2018,5,11,13,45,33.849,0.7357,0.3159,0.3364,-0.4956
-0.114,1.407,-0.318,-49.5,7.3,-36,0,2018,5,11,13,45,33.87,0.7378,0.3253,0.3394,-0.4843
-0.069,1.387,-0.424,-31.2,7.6,33.5,0,2018,5,11,13,45,33.889,0.735,0.3294,0.3443,-0.4822
-0.074,1.153,-0.486,-5.7,30.8,104.1,0,2018,5,11,13,45,33.905,0.7267,0.329,0.3491,-0.4914
-0.097,0.827,-0.575,25.4,42.1,151.4,0,2018,5,11,13,45,33.926,0.7135,0.3252,0.3519,-0.511
-0.095,0.275,-0.568,57.5,3,161.1,0,2018,5,11,13,45,33.944,0.7,0.3147,0.3533,-0.5348
-0.187,-0.629,-0.187,78.5,-68.5,122.3,0,2018,5,11,13,45,33.965,0.6926,0.2945,0.356,-0.5537
-0.096,-1.599,0.596,86.8,-54.1,35.7,0,2018,5,11,13,45,33.987,0.6933,0.2733,0.3565,-0.5634
-0.264,-1.792,1.018,47.2,-38.5,-60.8,0,2018,5,11,13,45,34.009,0.7014,0.2617,0.3515,-0.562
-0.072,-1.207,0.788,-4,-27,-132.8,0,2018,5,11,13,45,34.029,0.7138,0.2623,0.3473,-0.5486
-0.015,-0.303,0.425,-52.8,-61.2,-156.7,0,2018,5,11,13,45,34.049,0.7279,0.2688,0.3484,-0.5257
-0.077,0.472,-0.014,-70.5,-87,-146.9,0,2018,5,11,13,45,34.068,0.7413,0.2741,0.356,-0.4983
-0.168,1.075,-0.194,-69.5,-69.8,-110.7,1023,2018,5,11,13,45,34.106,0.7517,0.2777,0.3663,-0.4727
-0.154,1.448,-0.465,17.8,49.5,109.1,1023,2018,5,11,13,45,34.126,0.7464,0.2855,0.379,-0.4664
-0.271,1.03,-0.445,50.1,32.6,168.3,1023,2018,5,11,13,45,34.131,0.7347,0.2788,0.3778,-0.4894
-0.324,0.473,-0.456,78.3,-1.9,195,1023,2018,5,11,13,45,34.146,0.7219,0.2629,0.3769,-0.5173
-0.357,-0.567,-0.058,93.3,-36.9,171.5,1023,2018,5,11,13,45,34.184,0.7113,0.2393,0.3767,-0.5428
-0.336,-1.881,0.979,87.5,15.1,86.7,1023,2018,5,11,13,45,34.205,0.7053,0.2199,0.3718,-0.562
-0.165,-1.899,1.118,45.1,29.7,-18.6,1023,2018,5,11,13,45,34.209,0.7056,0.2146,0.3616,-0.5702
0.057,-1.229,0.73,-16.3,-4.5,-97,1023,2018,5,11,13,45,34.23,0.7121,0.219,0.3563,-0.5637
0.138,-0.345,0.314,-57.6,-26.7,-126.9,0,2018,5,11,13,45,34.251,0.7218,0.2276,0.3587,-0.5462
0.033,0.455,-0.071,-70.1,4.7,-116.3,0,2018,5,11,13,45,34.271,0.7296,0.2401,0.3632,-0.5271
-0.027,1.179,-0.336,-62.5,44.6,-76.9,0,2018,5,11,13,45,34.29,0.7329,0.256,0.3656,-0.5133
-0.089,1.43,-0.353,-45.4,30.5,-19.1,0,2018,5,11,13,45,34.312,0.7319,0.2689,0.3669,-0.5072
-0.089,1.271,-0.429,-19.2,18.8,45.1,0,2018,5,11,13,45,34.331,0.7274,0.2736,0.3698,-0.509
-0.122,1.081,-0.414,13.3,18.1,99.2,0,2018,5,11,13,45,34.351,0.7196,0.2716,0.3717,-0.5196
-0.222,0.719,-0.294,35.6,-18.5,136.4,0,2018,5,11,13,45,34.373,0.7101,0.2615,0.3739,-0.536
-0.263,0.002,-0.154,41.5,-48.8,143.5,0,2018,5,11,13,45,34.388,0.7009,0.2435,0.379,-0.5529
-0.253,-0.989,0.315,42.8,-12.1,107.6,0,2018,5,11,13,45,34.409,0.6925,0.2266,0.3824,-0.5681
-0.151,-1.371,0.701,23.5,21.6,33.6,0,2018,5,11,13,45,34.429,0.6873,0.2198,0.3799,-0.5786
0.037,-1.024,0.442,-7.9,-11.3,-32.6,0,2018,5,11,13,45,34.449,0.6878,0.2203,0.3781,-0.579
0.128,-0.5,0.095,-26.4,-38.5,-72.4,0,2018,5,11,13,45,34.467,0.6933,0.2225,0.3812,-0.5696
0.157,0.504,-0.344,-20.9,-65.6,-71,0,2018,5,11,13,45,34.508,0.7009,0.2239,0.3862,-0.5561
0.133,1.196,-0.556,0.2,-114.7,-33.9,0,2018,5,11,13,45,34.528,0.7088,0.2175,0.3944,-0.5428
0.011,1.552,-0.571,31.2,-181,27,0,2018,5,11,13,45,34.533,0.7156,0.1977,0.4062,-0.5326
-0.112,1.563,-0.415,55.2,-261.4,97.9,0,2018,5,11,13,45,34.552,0.7199,0.161,0.4231,-0.526
-0.273,1.226,-0.276,64.5,-342.7,158.9,0,2018,5,11,13,45,34.574,0.7196,0.107,0.4463,-0.5209
-0.588,-0.331,0.1,31.4,-383.7,175.2,0,2018,5,11,13,45,34.588,0.7128,0.0419,0.4759,-0.5133
-0.334,-1.623,0.267,-1.9,-309.4,124.2,0,2018,5,11,13,45,34.626,0.7009,-0.0155,0.5056,-0.5027
-0.089,-1.533,0.062,-24,-257.5,30.4,0,2018,5,11,13,45,34.646,0.6911,-0.0545,0.5309,-0.4872
0.371,-0.795,-0.293,-32.2,-298.9,-42.8,0,2018,5,11,13,45,34.65,0.686,-0.0843,0.5575,-0.4598
0.428,-0.576,-0.311,-25.4,-306.4,-72.8,0,2018,5,11,13,45,34.689,0.6824,-0.1125,0.5856,-0.4226
0.166,-0.359,-0.267,-10.2,-249.6,-90.3,0,2018,5,11,13,45,34.708,0.6801,-0.1362,0.6096,-0.3835
0.077,-0.145,-0.199,15.9,-163.4,-98.4,0,2018,5,11,13,45,34.712,0.6814,-0.1502,0.6246,-0.3504
0.027,0.124,0.004,35.1,-122.9,-100.9,0,2018,5,11,13,45,34.751,0.6865,-0.157,0.6325,-0.3223
0.092,0.112,0.16,45,-99.5,-90.8,1023,2018,5,11,13,45,34.772,0.6931,-0.1618,0.6363,-0.2972
0.058,0.44,0.384,43.1,-76.2,-76.8,1023,2018,5,11,13,45,34.776,0.7,-0.1649,0.6374,-0.2764
0.009,0.726,0.563,27.8,-97.2,-53.6,1023,2018,5,11,13,45,34.794,0.7045,-0.1699,0.6389,-0.2578
-0.01,0.821,0.761,8.2,-95.1,-25.2,1023,2018,5,11,13,45,34.813,0.7052,-0.1786,0.6423,-0.2412
0.018,0.776,0.653,-9.8,-47.4,15.3,1023,2018,5,11,13,45,34.833,0.7027,-0.1873,0.6458,-0.2321
-0.044,0.617,0.493,-22.4,10.6,55,1023,2018,5,11,13,45,34.851,0.6989,-0.1922,0.647,-0.236
-0.018,0.067,0.065,-22.7,-8.7,76.1,1023,2018,5,11,13,45,34.87,0.6935,-0.1984,0.6475,-0.2456
-0.028,-0.93,-0.202,-10.6,-50.7,52.4,0,2018,5,11,13,45,34.893,0.6874,-0.2091,0.6485,-0.251
0.039,-1.662,-0.404,11.6,-54,-18.3,0,2018,5,11,13,45,34.912,0.6845,-0.2182,0.6504,-0.2463
0.087,-1.292,-0.344,40,20.7,-101.6,0,2018,5,11,13,45,34.95,0.6896,-0.2141,0.6503,-0.2358
0.099,-0.464,-0.193,53.4,71.4,-151.4,0,2018,5,11,13,45,34.97,0.7022,-0.1947,0.6469,-0.2243
0.014,0.308,0.037,51.3,44.4,-162.9,0,2018,5,11,13,45,34.974,0.7162,-0.1709,0.6433,-0.2095
-0.156,0.704,0.378,40,10.3,-138.3,0,2018,5,11,13,45,34.995,0.7273,-0.1525,0.641,-0.1917
-0.238,0.961,0.618,20.2,10.4,-92.4,0,2018,5,11,13,45,35.015,0.7346,-0.1394,0.6398,-0.1772
-0.2,1.166,0.651,-4.2,18.8,-31.7,0,2018,5,11,13,45,35.053,0.7376,-0.1308,0.6398,-0.1709
-0.172,1.196,0.519,-25.9,10.7,35.2,0,2018,5,11,13,45,35.074,0.7361,-0.1286,0.6414,-0.1735
-0.191,1.008,0.337,-42.5,-14.8,92.4,0,2018,5,11,13,45,35.079,0.73,-0.1354,0.6444,-0.1825
-0.239,0.539,0.015,-42.8,20.9,136.1,0,2018,5,11,13,45,35.094,0.7211,-0.1473,0.6471,-0.1984
-0.243,-0.318,-0.288,-23.6,25.7,143,0,2018,5,11,13,45,35.132,0.7127,-0.1587,0.6466,-0.2205
-0.113,-1.365,-0.418,-4.6,-18.9,88,0,2018,5,11,13,45,35.151,0.7068,-0.1707,0.6442,-0.2369
-0.012,-1.924,-0.51,10.9,-79.8,-11.6,0,2018,5,11,13,45,35.155,0.7036,-0.1828,0.6454,-0.2342
0.062,-1.413,-0.275,28.6,4.7,-106.7,0,2018,5,11,13,45,35.174,0.7071,-0.1818,0.6466,-0.2207
0.071,-0.463,-0.06,30,72.5,-160.4,0,2018,5,11,13,45,35.194,0.7173,-0.161,0.645,-0.2083
-0.021,0.384,0.156,15.2,30.2,-168.7,0,2018,5,11,13,45,35.234,0.7272,-0.1361,0.6446,-0.1925
-0.176,0.861,0.497,-2,12,-139.5,0,2018,5,11,13,45,35.238,0.7332,-0.1165,0.6467,-0.1744
-0.243,1.404,0.578,-18.8,39.2,-73.9,0,2018,5,11,13,45,35.255,0.7356,-0.1008,0.6495,-0.1636
-0.217,1.646,0.564,-30.4,56.1,13.2,0,2018,5,11,13,45,35.273,0.7344,-0.0901,0.6518,-0.1661
-0.19,1.605,0.395,-40.6,7,104.4,0,2018,5,11,13,45,35.293,0.7289,-0.0915,0.6543,-0.1787
-0.237,1.102,0.163,-44.6,-38.6,175.2,0,2018,5,11,13,45,35.33,0.7188,-0.1093,0.6581,-0.1952
-0.365,-0.084,-0.202,-35.2,-35.8,203.8,0,2018,5,11,13,45,35.359,0.7062,-0.1353,0.6606,-0.2156
-0.326,-1.735,-0.352,-10.8,-30.9,146,0,2018,5,11,13,45,35.373,0.6957,-0.1592,0.6596,-0.2354
0.024,-2.64,-0.523,14.2,-46.7,10.5,0,2018,5,11,13,45,35.375,0.6912,-0.1739,0.6589,-0.24
0.279,-1.812,-0.386,31.8,-15.6,-128.6,0,2018,5,11,13,45,35.394,0.6959,-0.1712,0.6591,-0.2276
0.208,-0.551,-0.072,32.6,-3.7,-199.3,0,2018,5,11,13,45,35.416,0.706,-0.1534,0.6601,-0.2051
-0.039,0.309,0.297,22.3,-3,-213.5,1023,2018,5,11,13,45,35.436,0.7162,-0.1307,0.6619,-0.1779
-0.25,0.858,0.601,5.5,6.4,-185.2,1023,2018,5,11,13,45,35.456,0.7236,-0.1075,0.6643,-0.1525
-0.343,1.508,0.754,-14.5,19.3,-114.4,1023,2018,5,11,13,45,35.497,0.7271,-0.088,0.6672,-0.135
-0.325,1.877,0.661,-31.8,6.5,-10.2,1023,2018,5,11,13,45,35.517,0.726,-0.0783,0.6708,-0.1293
-0.306,1.813,0.436,-40.7,-30.2,102.8,1023,2018,5,11,13,45,35.521,0.7202,-0.085,0.6751,-0.1345
-0.378,1.319,0.211,-37,-44.8,194.1,1023,2018,5,11,13,45,35.536,0.7111,-0.107,0.6785,-0.1498
-0.392,0.511,-0.245,-22.4,-16.7,247.3,1023,2018,5,11,13,45,35.575,0.7003,-0.1375,0.6784,-0.1739
-0.337,-1.272,-0.498,14.7,-0.2,225,1023,2018,5,11,13,45,35.595,0.6917,-0.1658,0.6726,-0.2039
0,-2.604,-0.772,34.8,-78.5,103.8,0,2018,5,11,13,45,35.6,0.6871,-0.1912,0.6657,-0.2188
0.336,-2.263,-0.58,47.9,-76.9,-41.6,0,2018,5,11,13,45,35.617,0.688,-0.2068,0.6631,-0.21
0.273,-0.952,-0.038,47.5,30.6,-140.2,0,2018,5,11,13,45,35.653,0.6964,-0.1994,0.6614,-0.1939
0.089,0.223,0.216,30.8,58.3,-170.4,0,2018,5,11,13,45,35.673,0.7082,-0.1754,0.6598,-0.1793
-0.163,0.798,0.504,9.2,-2.7,-150.8,0,2018,5,11,13,45,35.678,0.7161,-0.1535,0.6613,-0.1618
-0.256,1.249,0.608,-9.7,-45.3,-91.4,0,2018,5,11,13,45,35.699,0.7185,-0.143,0.6654,-0.143
-0.286,1.383,0.561,-19.7,-44.7,-9.2,0,2018,5,11,13,45,35.72,0.7167,-0.1427,0.6697,-0.1318
-0.295,1.385,0.446,-22.1,-34.5,80.4,0,2018,5,11,13,45,35.742,0.7123,-0.1517,0.6722,-0.1325
-0.342,1.017,0.276,-18.1,-30.1,153,0,2018,5,11,13,45,35.761,0.7061,-0.1692,0.6722,-0.1442
-0.397,0.217,-0.142,-7.1,-9.1,197.2,0,2018,5,11,13,45,35.776,0.699,-0.1928,0.6688,-0.164
-0.275,-1.062,-0.426,23.1,-2,178.5,0,2018,5,11,13,45,35.811,0.6939,-0.2156,0.6609,-0.1871
0.088,-2.178,-0.543,46.7,-19.7,77.4,0,2018,5,11,13,45,35.832,0.693,-0.2334,0.6519,-0.2002
0.388,-1.876,-0.407,58.5,-16.2,-48.4,0,2018,5,11,13,45,35.839,0.6978,-0.2391,0.6458,-0.1967
0.323,-0.803,-0.037,57.5,21.2,-132.2,0,2018,5,11,13,45,35.876,0.7078,-0.2295,0.6423,-0.183
0.105,0.147,0.176,44.2,5.4,-164.3,0,2018,5,11,13,45,35.896,0.719,-0.212,0.6412,-0.164
-0.145,0.659,0.426,28.1,-18.4,-150.8,0,2018,5,11,13,45,35.9,0.7269,-0.196,0.6426,-0.1413
-0.31,1.001,0.518,11.7,-24.7,-96.7,0,2018,5,11,13,45,35.921,0.7313,-0.1851,0.6448,-0.1224
-0.333,1.232,0.524,-1.8,-49.2,-23.1,0,2018,5,11,13,45,35.939,0.7318,-0.1831,0.6469,-0.1106
-0.366,1.178,0.54,-11.5,-61,53.6,0,2018,5,11,13,45,35.979,0.7289,-0.1922,0.6483,-0.1066
-0.402,1.032,0.455,-17.7,-61,122.7,0,2018,5,11,13,45,35.983,0.7233,-0.21,0.6482,-0.1118
-0.392,0.97,0.332,-24.5,-82,176.8,0,2018,5,11,13,45,35.999,0.7151,-0.2355,0.6463,-0.1239
-0.47,0.741,0.304,-37.8,-107.4,218.7,0,2018,5,11,13,45,36.018,0.7027,-0.2691,0.6436,-0.1393
-0.501,0.407,0.232,-59.3,-151.2,247.6,0,2018,5,11,13,45,36.038,0.6848,-0.3096,0.6409,-0.1561
-0.423,-0.283,-0.259,-78.9,-283.5,247.5,0,2018,5,11,13,45,36.079,0.6568,-0.3608,0.6409,-0.1654
-0.4,-1.241,-0.434,-61.8,-309.3,221,0,2018,5,11,13,45,36.099,0.6206,-0.42,0.642,-0.1616
-0.397,-1.823,-0.838,-22.4,-132.1,157.1,0,2018,5,11,13,45,36.104,0.5933,-0.4637,0.6381,-0.1601
-0.109,-0.858,-1.145,27.7,-12.6,80.2,0,2018,5,11,13,45,36.121,0.5856,-0.4824,0.6299,-0.1654
0.091,-0.874,-0.743,73.4,29.3,30.2,1023,2018,5,11,13,45,36.158,0.5908,-0.4887,0.6196,-0.1672
0.045,-0.503,-0.197,87.6,27.9,-11.3,1023,2018,5,11,13,45,36.179,0.603,-0.488,0.609,-0.165
0.075,-0.33,0.115,80.5,4.8,-33.9,1023,2018,5,11,13,45,36.183,0.6137,-0.4867,0.6014,-0.157
0.021,-0.174,0.276,62,-38.4,-51.1,1023,2018,5,11,13,45,36.202,0.6212,-0.4855,0.5978,-0.1445
-0.024,-0.002,0.333,42,-95.1,-58.9,1023,2018,5,11,13,45,36.222,0.6219,-0.4885,0.5987,-0.1265
0.022,0.128,0.169,32.9,-83.3,-51.5,1023,2018,5,11,13,45,36.242,0.6186,-0.4939,0.6015,-0.1071
0.009,0.086,0.245,29.8,0.6,-44.4,1023,2018,5,11,13,45,36.261,0.6195,-0.4936,0.6028,-0.0948
-0.008,0.117,0.519,17.5,37.5,-34.4,0,2018,5,11,13,45,36.28,0.6253,-0.4869,0.6029,-0.091
0.008,0.125,0.606,-7.8,-31.2,-35,0,2018,5,11,13,45,36.3,0.6273,-0.4822,0.6051,-0.0878
0.145,-0.187,0.122,-17.4,-85.2,-38.3,0,2018,5,11,13,45,36.32,0.6201,-0.4861,0.6109,-0.0768
0.155,-0.344,0.173,-5.9,45,-42.6,0,2018,5,11,13,45,36.36,0.6175,-0.4842,0.6158,-0.0705
0.206,-0.126,0.166,0.1,175.9,-47.8,0,2018,5,11,13,45,36.38,0.6276,-0.4663,0.6183,-0.0782
0.297,0.235,0.268,2.1,212.5,-47.4,0,2018,5,11,13,45,36.384,0.6452,-0.438,0.6186,-0.095
0.269,0.385,0.323,-6.8,147.1,-45.7,0,2018,5,11,13,45,36.403,0.6592,-0.4125,0.619,-0.109
0.213,0.604,0.147,-10.9,97.3,-38.6,0,2018,5,11,13,45,36.424,0.6674,-0.394,0.6208,-0.1176
0.114,0.548,0.185,-7.9,112.9,-20.3,0,2018,5,11,13,45,36.441,0.6735,-0.379,0.6219,-0.1254
0.056,0.526,0.18,-4.6,193.2,9.3,0,2018,5,11,13,45,36.461,0.6827,-0.3603,0.6196,-0.1414
-0.02,0.478,0.236,1.7,305.8,44.6,0,2018,5,11,13,45,36.481,0.697,-0.333,0.6112,-0.172
-0.017,0.756,0.296,5.9,340.6,72.1,0,2018,5,11,13,45,36.502,0.7142,-0.2977,0.5957,-0.215
0.079,1.069,0.174,-4.8,163.7,87.8,0,2018,5,11,13,45,36.543,0.7239,-0.2733,0.581,-0.2519
0.126,0.192,0.072,-16.8,-0.1,95.2,0,2018,5,11,13,45,36.547,0.7214,-0.274,0.5753,-0.2708
0.035,-0.737,0.149,-18.2,20.3,78,0,2018,5,11,13,45,36.562,0.7153,-0.2822,0.5731,-0.2829
0.014,-1.195,-0.013,-19.3,55.4,13.8,0,2018,5,11,13,45,36.601,0.7131,-0.2808,0.5711,-0.2936
0.243,-1.17,-0.072,-17.3,77.2,-59.7,0,2018,5,11,13,45,36.621,0.7159,-0.2687,0.571,-0.2985
0.374,-0.769,-0.077,-17,56.8,-121.7,0,2018,5,11,13,45,36.625,0.7222,-0.2499,0.5738,-0.2942
0.191,-0.118,-0.002,-15.7,47.9,-156,0,2018,5,11,13,45,36.663,0.7297,-0.2282,0.5793,-0.2822
0.034,0.312,0.06,-14.6,36.2,-156.1,0,2018,5,11,13,45,36.667,0.7373,-0.206,0.5854,-0.2665
-0.124,0.652,0.174,-11.3,43.3,-131.9,0,2018,5,11,13,45,36.683,0.7439,-0.1855,0.5903,-0.2521
-0.18,0.791,0.281,-13.5,30.2,-93.8,0,2018,5,11,13,45,36.701,0.7487,-0.1683,0.5937,-0.2417
-0.192,0.919,0.357,-17,5.4,-43.1,0,2018,5,11,13,45,36.723,0.7504,-0.1584,0.597,-0.235
-0.184,0.857,0.301,-20.2,-12.5,9.9,0,2018,5,11,13,45,36.743,0.7489,-0.1568,0.6001,-0.233
-0.168,0.458,0.144,-19.6,20.5,56.6,0,2018,5,11,13,45,36.762,0.7452,-0.1603,0.602,-0.2377
-0.3,-0.153,0.037,-11.9,67.3,74.7,0,2018,5,11,13,45,36.783,0.7419,-0.1601,0.5999,-0.2527
-0.217,-1.141,-0.038,-7,22.3,38.8,0,2018,5,11,13,45,36.805,0.7397,-0.1597,0.597,-0.2661
-0.105,-1.572,-0.132,-2.8,-15.5,-35.6,0,2018,5,11,13,45,36.825,0.7389,-0.1602,0.5979,-0.266
-0.016,-1.028,-0.042,2.9,35.8,-106.9,1023,2018,5,11,13,45,36.848,0.7426,-0.1516,0.5997,-0.2566
0.048,-0.071,-0.028,1.1,100,-132.1,1023,2018,5,11,13,45,36.867,0.75,-0.1292,0.5992,-0.2482
-0.038,0.826,0.005,-5.4,68.8,-118.8,1023,2018,5,11,13,45,36.882,0.7571,-0.1034,0.5982,-0.241
-0.108,1.355,0.182,-13.5,2,-66.7,1023,2018,5,11,13,45,36.9,0.7605,-0.0889,0.5998,-0.232
-0.147,1.443,0.27,-17.1,-41.8,7.2,1023,2018,5,11,13,45,36.941,0.7596,-0.0889,0.6034,-0.2254
-0.166,1.104,0.18,-12.3,22.8,88,1023,2018,5,11,13,45,36.962,0.7557,-0.0957,0.6053,-0.2307
-0.405,0.228,0.108,-3.3,62.8,133.8,1023,2018,5,11,13,45,36.966,0.7509,-0.1008,0.6022,-0.2515
-0.22,-0.796,0.03,2.3,22.7,117,0,2018,5,11,13,45,36.985,0.7457,-0.1085,0.5976,-0.2737
-0.09,-1.631,-0.042,2.8,12.8,39.6,0,2018,5,11,13,45,37.023,0.7422,-0.1158,0.5952,-0.2849
0.099,-1.284,0.014,3.9,77.9,-51.1,0,2018,5,11,13,45,37.043,0.7441,-0.109,0.5926,-0.2883
0.194,-0.361,-0.054,-3.3,135.9,-96.6,0,2018,5,11,13,45,37.047,0.75,-0.0864,0.5884,-0.2893
0.109,0.318,-0.089,-12.4,132.5,-103.4,0,2018,5,11,13,45,37.067,0.756,-0.0569,0.5838,-0.2904
0.018,0.761,-0.021,-17.9,46.6,-90.7,0,2018,5,11,13,45,37.087,0.7601,-0.0341,0.582,-0.2867
-0.035,1.2,0.107,-15.6,-7.6,-51.2,0,2018,5,11,13,45,37.125,0.762,-0.0241,0.584,-0.2785
-0.05,1.376,0.118,-9.4,-32.1,13.2,0,2018,5,11,13,45,37.129,0.7615,-0.0249,0.5871,-0.2734
-0.117,1.392,0.119,1.5,-21.6,89.7,0,2018,5,11,13,45,37.143,0.7584,-0.0337,0.5886,-0.2778
-0.302,0.425,0.12,10.5,-29.9,142,0,2018,5,11,13,45,37.181,0.7529,-0.0498,0.588,-0.2912
-0.199,-0.95,0.176,14.3,-48.3,127.7,0,2018,5,11,13,45,37.202,0.7465,-0.0703,0.5868,-0.3054
-0.002,-1.717,0.13,6,-18.4,42,0,2018,5,11,13,45,37.206,0.7423,-0.0849,0.5866,-0.3123
0.256,-1.428,0.059,-0.2,83.1,-59.8,0,2018,5,11,13,45,37.226,0.7439,-0.079,0.5843,-0.3143
0.311,-0.295,-0.083,-9.5,102.9,-117.9,0,2018,5,11,13,45,37.265,0.7498,-0.0555,0.5804,-0.3126
0.149,0.564,-0.136,-14.8,38.4,-125.3,0,2018,5,11,13,45,37.285,0.7559,-0.0326,0.5791,-0.3034
-0.03,1.221,0.001,-12.3,-16.9,-92,0,2018,5,11,13,45,37.289,0.7601,-0.02,0.5813,-0.2895
-0.133,1.427,0.112,-4.5,-35.1,-27.7,0,2018,5,11,13,45,37.309,0.7621,-0.0174,0.5841,-0.2785
-0.19,1.441,0.195,5,-40.9,52.9,0,2018,5,11,13,45,37.329,0.7613,-0.0237,0.5857,-0.2767
-0.241,1.046,0.093,14.5,-32.7,124.4,0,2018,5,11,13,45,37.346,0.7576,-0.039,0.5859,-0.2847
-0.386,0.435,0.028,23.6,-15.4,164.1,0,2018,5,11,13,45,37.365,0.7518,-0.0582,0.5832,-0.3019
-0.325,-1.194,0.094,32.5,15.7,144.5,0,2018,5,11,13,45,37.404,0.7459,-0.076,0.5776,-0.3226
-0.124,-2.099,0.224,24.3,9.6,46.3,0,2018,5,11,13,45,37.424,0.7434,-0.0857,0.5716,-0.3364
0.225,-1.797,0.124,4.2,30.9,-70.2,0,2018,5,11,13,45,37.428,0.746,-0.0825,0.569,-0.3358
0.261,-0.629,0.025,-17.4,21.5,-143.9,0,2018,5,11,13,45,37.466,0.7523,-0.0667,0.5696,-0.3241
0.13,0.365,-0.075,-29.9,-9.3,-161,0,2018,5,11,13,45,37.47,0.7584,-0.049,0.5743,-0.3041
-0.285,0.983,0.043,-32.2,-29.6,-133.3,0,2018,5,11,13,45,37.489,0.7626,-0.0352,0.5808,-0.2823
-0.188,1.446,0.157,-26.5,-22.3,-70.2,1023,2018,5,11,13,45,37.509,0.7644,-0.0269,0.5866,-0.266
-0.177,1.743,0.155,-12.7,-2.3,17.4,1023,2018,5,11,13,45,37.529,0.7635,-0.0249,0.5898,-0.2614
-0.259,1.406,0.085,5.6,11.2,108.8,1023,2018,5,11,13,45,37.55,0.7601,-0.0309,0.5897,-0.2709
-0.404,0.315,0.095,22,-10.5,161.9,1023,2018,5,11,13,45,37.569,0.7546,-0.0456,0.5867,-0.29
-0.259,-1.358,0.196,28.4,-43.4,129.7,1023,2018,5,11,13,45,37.586,0.7492,-0.0665,0.583,-0.3069
0.074,-1.988,0.166,19.7,0.8,34.9,1023,2018,5,11,13,45,37.624,0.7468,-0.0801,0.5805,-0.3144
0.285,-1.411,0.13,-1.5,46.8,-69.6,0,2018,5,11,13,45,37.647,0.7493,-0.0747,0.5781,-0.3139
0.27,-0.163,-0.049,-21.3,63.2,-125.3,0,2018,5,11,13,45,37.651,0.7543,-0.0558,0.5778,-0.3065
0.054,0.836,-0.16,-28.4,30.4,-123.9,0,2018,5,11,13,45,37.67,0.7588,-0.035,0.5798,-0.2944
-0.093,1.482,-0.067,-19.1,15.9,-72.1,0,2018,5,11,13,45,37.688,0.7614,-0.0207,0.5825,-0.2834
-0.145,1.671,-0.008,-1.2,2.8,15.8,0,2018,5,11,13,45,37.728,0.7618,-0.0164,0.5837,-0.2803
-0.269,1.457,0.028,22.2,-15.5,107.1,0,2018,5,11,13,45,37.748,0.7596,-0.0241,0.5822,-0.2887
-0.348,0.76,0.012,34.7,-61.3,164.1,0,2018,5,11,13,45,37.752,0.7552,-0.0454,0.5795,-0.3028
-0.256,-0.563,0.087,40.4,-41.3,164.3,0,2018,5,11,13,45,37.79,0.7492,-0.0718,0.5758,-0.3191
-0.157,-1.494,0.206,31.8,15.3,101.6,0,2018,5,11,13,45,37.81,0.7449,-0.0893,0.5697,-0.3352
0.195,-1.464,0.167,16.7,63.6,6.1,0,2018,5,11,13,45,37.815,0.7449,-0.0899,0.563,-0.3463
0.296,-0.488,0.035,-1.8,35.1,-63.3,0,2018,5,11,13,45,37.829,0.7484,-0.0802,0.5595,-0.3466
0.203,0.101,-0.009,-12.2,19.8,-87,0,2018,5,11,13,45,37.848,0.7525,-0.0688,0.5606,-0.3386
0.046,1.004,0.055,-14.6,22,-65.6,0,2018,5,11,13,45,37.868,0.756,-0.0574,0.5621,-0.3303
0,1.557,0.048,-8.6,38.7,-5,0,2018,5,11,13,45,37.909,0.7571,-0.0491,0.5624,-0.3286
-0.085,1.776,0.15,7.6,23.9,78.8,0,2018,5,11,13,45,37.928,0.7551,-0.0481,0.5602,-0.3369
-0.291,0.971,0.172,20.8,-42.4,152,0,2018,5,11,13,45,37.932,0.7493,-0.0622,0.5576,-0.3516
-0.301,-0.742,0.335,22,-56.1,156.8,0,2018,5,11,13,45,37.95,0.7405,-0.0866,0.5561,-0.367
-0.182,-1.922,0.31,9.2,12.7,83,0,2018,5,11,13,45,37.991,0.7336,-0.1034,0.554,-0.3796
0.152,-1.375,0.249,-2.3,134,-20.2,0,2018,5,11,13,45,38.01,0.7336,-0.0954,0.5474,-0.391
0.31,0.02,-0.146,-12,125.8,-63.3,0,2018,5,11,13,45,38.014,0.7382,-0.0727,0.5398,-0.3977
0.223,0.868,-0.317,-4.7,88.6,-47.2,0,2018,5,11,13,45,38.029,0.7426,-0.0527,0.5342,-0.4003
0.082,1.297,-0.178,10.1,54.2,4.9,0,2018,5,11,13,45,38.05,0.745,-0.0417,0.5291,-0.404
-0.028,0.932,-0.058,24.5,11.7,61.4,0,2018,5,11,13,45,38.071,0.7442,-0.0423,0.5243,-0.4114
-0.089,0.702,0.07,31.7,-44.5,92.4,0,2018,5,11,13,45,38.108,0.7409,-0.0536,0.5211,-0.4201
-0.12,0.424,-0.04,32.2,-38.6,119.2,0,2018,5,11,13,45,38.129,0.7354,-0.0726,0.5197,-0.4285
-0.252,-0.018,0.222,36.2,52.1,124.9,0,2018,5,11,13,45,38.133,0.7292,-0.0852,0.5127,-0.4449
-0.221,-0.354,0.326,30.2,86.8,107.5,0,2018,5,11,13,45,38.153,0.7241,-0.0888,0.5007,-0.4658
-0.132,-0.5,0.464,13.4,92.3,78.6,0,2018,5,11,13,45,38.173,0.7197,-0.0872,0.4888,-0.4851
0.013,-0.174,0.48,-12.7,98.1,61.4,1023,2018,5,11,13,45,38.194,0.7153,-0.0813,0.4797,-0.5014
0.103,0.104,0.116,-31.3,124.2,57.8,1023,2018,5,11,13,45,38.214,0.7097,-0.0712,0.4723,-0.5177
0.076,-0.422,0.177,-46.9,276.2,54.9,1023,2018,5,11,13,45,38.233,0.703,-0.0479,0.4588,-0.5411
-0.051,-0.11,0.445,-52.2,374.4,44.4,1023,2018,5,11,13,45,38.253,0.696,-0.0052,0.4311,-0.574
0.013,0.071,0.318,-71,332.8,45.6,1023,2018,5,11,13,45,38.272,0.6858,0.0411,0.4019,-0.6052
0.046,0.149,0.201,-75.9,270,45.3,1023,2018,5,11,13,45,38.292,0.6726,0.0817,0.379,-0.6302
0.019,-0.047,0.023,-85,271,49.9,1023,2018,5,11,13,45,38.313,0.6576,0.1179,0.36,-0.6511
0.029,0.003,0.11,-76.8,312.3,49.8,0,2018,5,11,13,45,38.333,0.6395,0.1575,0.336,-0.6731
0.051,0.204,0.07,-76.9,262.5,45.4,0,2018,5,11,13,45,38.354,0.6207,0.1963,0.3104,-0.6926
0.094,0.103,-0.029,-79.5,170.9,43.2,0,2018,5,11,13,45,38.373,0.6031,0.2265,0.2943,-0.7058
0.088,0.022,-0.11,-80.5,106.5,38.5,0,2018,5,11,13,45,38.412,0.5885,0.2486,0.2879,-0.7133
0.14,-0.067,-0.253,-77.1,102,34.7,0,2018,5,11,13,45,38.433,0.5753,0.2672,0.2854,-0.7183
0.126,-0.076,-0.294,-68.2,113.1,31,0,2018,5,11,13,45,38.438,0.5622,0.2856,0.2805,-0.7236
0.149,-0.142,-0.336,-64.2,102.9,24.8,0,2018,5,11,13,45,38.456,0.5499,0.3029,0.2746,-0.7282
0.217,-0.195,-0.413,-56.3,86.6,18.4,0,2018,5,11,13,45,38.474,0.5392,0.3187,0.2693,-0.7315
0.208,-0.314,-0.449,-46,48.9,4.2,0,2018,5,11,13,45,38.494,0.5313,0.3312,0.2659,-0.733
0.222,-0.436,-0.539,-30.7,-3.2,-19.9,0,2018,5,11,13,45,38.511,0.5293,0.3382,0.2664,-0.7309
0.236,-0.479,-0.596,-12.7,-27.3,-48.8,0,2018,5,11,13,45,38.552,0.5339,0.3409,0.2686,-0.7255
0.212,-0.533,-0.53,7.2,-46.6,-77.8,0,2018,5,11,13,45,38.571,0.544,0.3407,0.2696,-0.7177
0.184,-0.526,-0.477,26.4,-77.4,-108.5,0,2018,5,11,13,45,38.576,0.5601,0.3372,0.2699,-0.7068
0.074,-0.453,-0.383,43.3,-116.8,-140.5,0,2018,5,11,13,45,38.613,0.5829,0.3288,0.2713,-0.6916
-0.024,-0.133,-0.247,57.7,-138.1,-164.2,0,2018,5,11,13,45,38.634,0.611,0.3164,0.2727,-0.6723
-0.146,0.011,0.035,55.3,-92.2,-171,0,2018,5,11,13,45,38.638,0.6397,0.3046,0.2712,-0.6514
-0.197,0.2,0.282,39.5,-16.8,-164.7,0,2018,5,11,13,45,38.656,0.6635,0.3015,0.2622,-0.6324
-0.226,0.558,0.379,13.1,-9.1,-143.5,0,2018,5,11,13,45,38.675,0.6819,0.3048,0.2517,-0.6153
-0.252,0.87,0.435,-15.3,-54.4,-110.2,0,2018,5,11,13,45,38.713,0.6968,0.3068,0.2484,-0.5987
-0.224,0.835,0.348,-35.9,-89.5,-75.1,0,2018,5,11,13,45,38.718,0.7092,0.3041,0.2547,-0.5826
-0.213,0.772,0.194,-45.1,-59.9,-38.9,0,2018,5,11,13,45,38.735,0.7172,0.301,0.2648,-0.5698
-0.218,0.767,0.087,-45.1,7.6,-2.3,0,2018,5,11,13,45,38.754,0.7183,0.3034,0.2719,-0.5638
-0.212,0.765,0.085,-39.4,48.6,29.1,0,2018,5,11,13,45,38.774,0.7131,0.3109,0.2748,-0.5649
-0.23,0.731,0.071,-31,50.8,55.2,0,2018,5,11,13,45,38.795,0.7042,0.3188,0.2764,-0.5709
-0.228,0.578,0.057,-23.2,45.1,73.2,0,2018,5,11,13,45,38.815,0.6937,0.3241,0.2786,-0.5796
-0.172,0.468,0.012,-13.8,65.5,87.1,0,2018,5,11,13,45,38.854,0.6814,0.3286,0.28,-0.5909
-0.122,0.36,-0.011,-4.7,97.6,96.6,0,2018,5,11,13,45,38.874,0.6665,0.3348,0.2778,-0.6053
-0.054,0.298,0.009,1.4,109.8,102.6,0,2018,5,11,13,45,38.878,0.6495,0.3423,0.2725,-0.6218
-0.021,0.137,0.064,1.4,107.1,105.8,1023,2018,5,11,13,45,38.899,0.6315,0.3493,0.2667,-0.6387
0.03,0.035,0.037,0.4,98.4,105.8,1023,2018,5,11,13,45,38.918,0.6134,0.3555,0.2608,-0.655
0.052,0.01,-0.025,-3,90.4,103.4,1023,2018,5,11,13,45,38.935,0.5953,0.3613,0.2566,-0.6701
0.058,-0.13,0.001,-11.8,79.3,97.4,1023,2018,5,11,13,45,38.955,0.5774,0.3663,0.2543,-0.6837
0.092,-0.262,-0.015,-22,75.4,88.2,1023,2018,5,11,13,45,38.975,0.5606,0.3719,0.2528,-0.6952
0.104,-0.324,-0.08,-28.5,71.5,73,1023,2018,5,11,13,45,39.015,0.5446,0.3787,0.2515,-0.7046
0.129,-0.366,-0.166,-33.1,45.4,52.1,1023,2018,5,11,13,45,39.035,0.5316,0.3855,0.2511,-0.711
0.16,-0.435,-0.237,-34.5,-0.2,27.2,1023,2018,5,11,13,45,39.039,0.5236,0.3901,0.2542,-0.7133
0.183,-0.714,-0.353,-35.8,-48.6,-10.2,0,2018,5,11,13,45,39.057,0.5229,0.3916,0.2616,-0.7104
0.186,-0.732,-0.433,-20.9,-54.9,-54.7,0,2018,5,11,13,45,39.079,0.5293,0.3918,0.2686,-0.7028
0.117,-0.54,-0.465,-1.5,-74,-97.1,0,2018,5,11,13,45,39.099,0.5425,0.391,0.2718,-0.6919
0.062,-0.452,-0.501,21.2,-126,-130,0,2018,5,11,13,45,39.119,0.5635,0.3857,0.2748,-0.6768
-0.012,-0.294,-0.453,47.6,-195.2,-158,0,2018,5,11,13,45,39.158,0.5928,0.3724,0.2806,-0.6565
-0.147,-0.07,-0.307,73.1,-231.6,-175,0,2018,5,11,13,45,39.177,0.6286,0.3503,0.2881,-0.6317
-0.275,0.089,0.04,83,-160,-178.8,0,2018,5,11,13,45,39.18,0.6638,0.3283,0.2904,-0.6059
-0.346,0.524,0.312,67.9,-53.6,-161.5,0,2018,5,11,13,45,39.194,0.6915,0.3164,0.2825,-0.5846
-0.266,1.166,0.392,36.8,22.1,-112.9,0,2018,5,11,13,45,39.232,0.7082,0.317,0.2693,-0.5702
-0.306,1.434,0.393,4,2.9,-47.1,0,2018,5,11,13,45,39.253,0.716,0.321,0.2607,-0.5622
-0.105,1.364,0.285,-17.1,-29,23,0,2018,5,11,13,45,39.257,0.7177,0.3202,0.2627,-0.5596
-0.068,1.06,0.134,-28.5,-18.8,87.6,0,2018,5,11,13,45,39.279,0.7124,0.3165,0.2715,-0.5643
-0.079,0.741,-0.011,-33.5,12.1,139.2,0,2018,5,11,13,45,39.298,0.6995,0.3136,0.2821,-0.5767
-0.052,0.46,-0.175,-29.3,48.3,174.1,0,2018,5,11,13,45,39.337,0.6798,0.3129,0.2914,-0.5957
-0.038,0.236,-0.257,-16.2,24.2,187.7,0,2018,5,11,13,45,39.357,0.6568,0.3108,0.2994,-0.6182
0.11,-0.09,-0.485,-4.8,-108.2,161.3,0,2018,5,11,13,45,39.361,0.6387,0.2983,0.3141,-0.6358
0.25,-0.956,-0.591,11.2,-203.1,99.5,0,2018,5,11,13,45,39.381,0.6327,0.2714,0.3396,-0.6407
0.164,-1.775,-0.131,36.4,-87.5,6.6,0,2018,5,11,13,45,39.402,0.6355,0.2482,0.3571,-0.6378
0.082,-1.364,-0.013,62,43.9,-92.1,0,2018,5,11,13,45,39.418,0.6441,0.2446,0.3498,-0.6346
0.01,-0.871,-0.066,56,-18.8,-170.9,0,2018,5,11,13,45,39.455,0.6618,0.2486,0.3345,-0.623
-0.053,-0.843,-0.1,48.6,-103.8,-222.3,0,2018,5,11,13,45,39.478,0.689,0.2464,0.3275,-0.5976
-0.293,-0.239,0.185,38.9,-73.3,-245.5,0,2018,5,11,13,45,39.482,0.7199,0.2431,0.3217,-0.5649
-0.454,0.669,0.385,16,23.9,-233.2,0,2018,5,11,13,45,39.501,0.7457,0.2509,0.3099,-0.5337
-0.412,1.516,0.304,-20.2,58.7,-178,0,2018,5,11,13,45,39.522,0.7621,0.2687,0.2963,-0.5089
-0.33,2.022,0.163,-48.1,26.4,-89.4,0,2018,5,11,13,45,39.543,0.7699,0.2845,0.2908,-0.4915
-0.172,1.542,-0.198,-52.7,59.9,110.5,0,2018,5,11,13,45,39.563,0.7593,0.2985,0.3035,-0.492
-0.117,1.191,-0.422,-26.8,102.9,192.2,0,2018,5,11,13,45,39.6,0.7389,0.3051,0.3092,-0.5149
-0.155,0.542,-0.488,3.3,50.4,234.1,1023,2018,5,11,13,45,39.619,0.7134,0.305,0.3144,-0.5468
-0.118,-0.268,-0.545,27.6,-77.9,205.9,1023,2018,5,11,13,45,39.623,0.6929,0.2889,0.3256,-0.5746
-0.176,-1.74,-0.04,42.7,-67.7,123.4,1023,2018,5,11,13,45,39.641,0.6827,0.264,0.3392,-0.5908
-0.214,-2.308,0.651,70.7,91.7,-25.7,1023,2018,5,11,13,45,39.661,0.6798,0.2578,0.3319,-0.6009
-0.218,-1.52,0.636,37.2,38.3,-148.3,1023,2018,5,11,13,45,39.679,0.6897,0.2666,0.3121,-0.5964
-0.03,-1.017,0.291,-3.7,-37.3,-202.5,1023,2018,5,11,13,45,39.701,0.7093,0.2737,0.3029,-0.5745
-0.217,-0.096,0.186,-30.3,-31.9,-212.7,1023,2018,5,11,13,45,39.72,0.7308,0.2817,0.2987,-0.5451
-0.355,0.806,-0.084,-48.4,12.6,-186.7,1023,2018,5,11,13,45,39.76,0.748,0.2946,0.2948,-0.5164
-0.312,1.754,-0.325,-48.7,42.2,-123.8,0,2018,5,11,13,45,39.779,0.7576,0.3114,0.29,-0.4948
-0.234,2.1,-0.325,-39,35.1,-32.2,0,2018,5,11,13,45,39.783,0.7598,0.3242,0.2883,-0.484
-0.131,1.957,-0.415,-21.8,48.4,75.9,0,2018,5,11,13,45,39.822,0.754,0.3307,0.2905,-0.4874
-0.122,1.445,-0.494,3.1,93.7,170.1,0,2018,5,11,13,45,39.843,0.7383,0.3344,0.2929,-0.5071
-0.158,0.94,-0.547,34,86.9,231.1,0,2018,5,11,13,45,39.847,0.7146,0.3347,0.2935,-0.5394
-0.284,0.082,-0.355,54,-42.4,232.1,0,2018,5,11,13,45,39.865,0.6921,0.3217,0.2987,-0.5728
-0.199,-1.335,-0.065,50,-130.5,161.2,0,2018,5,11,13,45,39.885,0.6807,0.2925,0.3148,-0.5931
-0.281,-2.655,0.702,60.2,45.7,27.8,0,2018,5,11,13,45,39.902,0.6759,0.2757,0.3181,-0.6048
-0.062,-1.78,0.828,32.7,79,-117.7,0,2018,5,11,13,45,39.939,0.6801,0.2838,0.2996,-0.6058
0.148,-1.179,0.355,-16.9,-37.7,-186.9,0,2018,5,11,13,45,39.96,0.6963,0.2929,0.2898,-0.5876
-0.097,-0.182,0.088,-43.7,-59.5,-210.3,0,2018,5,11,13,45,39.964,0.718,0.299,0.289,-0.558
-0.484,1.015,-0.199,-48.3,15.6,-188.5,0,2018,5,11,13,45,39.984,0.736,0.3111,0.2862,-0.5287
-0.295,2.068,-0.535,-43.4,41.7,-114.4,0,2018,5,11,13,45,40.004,0.7456,0.3278,0.2802,-0.5079
-0.188,2.382,-0.579,-19.3,26.9,-7.2,0,2018,5,11,13,45,40.024,0.7473,0.338,0.2778,-0.5
-0.063,1.965,-0.649,10.6,39.2,112.7,0,2018,5,11,13,45,40.059,0.7404,0.3393,0.2792,-0.5084
-0.175,1.104,-0.408,41.4,36.9,193.2,0,2018,5,11,13,45,40.081,0.7244,0.335,0.2806,-0.533
-0.28,-0.198,0.031,39.9,-87.1,186.6,0,2018,5,11,13,45,40.085,0.7088,0.3182,0.2888,-0.5593
-0.184,-2.522,0.55,19.5,-77,79.3,0,2018,5,11,13,45,40.101,0.7025,0.295,0.3033,-0.5721
0.037,-2.523,0.811,26.5,45.1,-108.5,0,2018,5,11,13,45,40.123,0.7055,0.2935,0.2992,-0.5713
0.184,-1.391,0.32,-13.7,-64.1,-224.4,0,2018,5,11,13,45,40.142,0.7233,0.3013,0.2898,-0.5494
-0.108,-0.436,0.026,-29.9,-79,-268.6,0,2018,5,11,13,45,40.163,0.7502,0.3051,0.2874,-0.5111
-0.424,0.955,-0.135,-29.8,-15.4,-242.8,0,2018,5,11,13,45,40.184,0.7734,0.3151,0.2808,-0.4728
-0.523,1.919,-0.392,-32.7,-9.7,-165.8,0,2018,5,11,13,45,40.203,0.7887,0.3267,0.2742,-0.4424
-0.382,2.448,-0.599,-12.9,-8.4,-48.9,0,2018,5,11,13,45,40.243,0.7963,0.332,0.2723,-0.4258
-0.174,2.195,-0.607,17.2,28.9,90.9,0,2018,5,11,13,45,40.262,0.7942,0.3318,0.2728,-0.4295
-0.223,1.646,-0.58,49.3,74.6,211.9,0,2018,5,11,13,45,40.266,0.7805,0.3292,0.2729,-0.4558
-0.392,0.702,-0.275,74.9,47,279.5,0,2018,5,11,13,45,40.288,0.7582,0.3216,0.2728,-0.4972
-0.579,-0.456,0.115,51.2,-124.9,247.9,1023,2018,5,11,13,45,40.307,0.7392,0.2972,0.2825,-0.5341
-0.472,-3.169,0.818,23.7,-38.1,116.5,1023,2018,5,11,13,45,40.325,0.7282,0.2701,0.2987,-0.5545
0.089,-2.273,0.826,20,68.1,-81.4,1023,2018,5,11,13,45,40.36,0.7269,0.2724,0.2916,-0.5588
0.242,-1.181,0.241,-19.9,-43.7,-184.2,1023,2018,5,11,13,45,40.383,0.7401,0.2807,0.2845,-0.5407
-0.074,-0.077,-0.102,-26.9,-21.3,-214.7,1023,2018,5,11,13,45,40.396,0.76,0.2872,0.2818,-0.5102
-0.285,0.97,-0.397,-21.9,46.4,-173.4,1023,2018,5,11,13,45,40.403,0.775,0.3018,0.2729,-0.4835
-0.355,2.514,-0.597,-7.8,18.7,-67.5,0,2018,5,11,13,45,40.444,0.7823,0.3144,0.2645,-0.468
-0.064,2.435,-0.766,19.8,8.3,68.3,0,2018,5,11,13,45,40.464,0.7822,0.3145,0.2635,-0.4687
-0.106,1.726,-0.624,58.1,69.9,198,0,2018,5,11,13,45,40.468,0.77,0.3104,0.2623,-0.4917
-0.406,0.857,-0.424,79.8,-3.7,255.7,0,2018,5,11,13,45,40.486,0.7498,0.2991,0.2609,-0.5292
-0.529,-1.028,0.384,60.5,-104.4,203.8,0,2018,5,11,13,45,40.525,0.7336,0.2725,0.2699,-0.5608
-0.318,-3.54,1.139,29.8,20.8,41.2,0,2018,5,11,13,45,40.546,0.7254,0.2553,0.2759,-0.5764
0.163,-2.042,0.826,9.6,69,-160.9,0,2018,5,11,13,45,40.55,0.7307,0.2659,0.2616,-0.5717
0.09,-0.91,0.236,-28.1,-60.5,-257.6,0,2018,5,11,13,45,40.585,0.7516,0.2765,0.2534,-0.5425
-0.208,0.262,-0.215,-31.6,-36,-265.8,0,2018,5,11,13,45,40.589,0.7777,0.2829,0.2504,-0.5022
-0.405,1.79,-0.47,-22.3,43.6,-197.9,0,2018,5,11,13,45,40.607,0.7958,0.2966,0.2417,-0.4692
-0.373,2.594,-0.736,-10.9,29,-66.7,0,2018,5,11,13,45,40.643,0.8035,0.309,0.2341,-0.4516
-0.112,2.429,-0.741,19.3,35.8,80.2,0,2018,5,11,13,45,40.665,0.8014,0.312,0.2321,-0.4542
-0.139,1.819,-0.6,55,92.5,212.3,0,2018,5,11,13,45,40.669,0.787,0.3116,0.2299,-0.48
-0.48,0.831,-0.157,77.1,53.6,286.9,0,2018,5,11,13,45,40.688,0.7622,0.3075,0.2265,-0.5225
-0.401,-0.591,0.289,31.5,-155.7,243.9,0,2018,5,11,13,45,40.709,0.7413,0.2837,0.2386,-0.5593
-0.276,-3.714,0.827,-2.9,-35.4,87.7,0,2018,5,11,13,45,40.745,0.7308,0.2579,0.2593,-0.5761
0.237,-2.103,0.664,13.3,105.5,-148.5,0,2018,5,11,13,45,40.765,0.7328,0.2685,0.2481,-0.5738
0.257,-1.017,0.043,-30.7,-51.3,-239.6,0,2018,5,11,13,45,40.769,0.7512,0.2807,0.2383,-0.5476
-0.155,0.187,-0.315,-25.1,-31.5,-259.4,0,2018,5,11,13,45,40.808,0.7765,0.2862,0.2349,-0.5097
-0.508,1.885,-0.274,-19.5,42,-195.8,0,2018,5,11,13,45,40.812,0.7948,0.2989,0.2251,-0.4776
-0.501,2.534,-0.418,-22.3,22.1,-59.4,0,2018,5,11,13,45,40.829,0.8022,0.3108,0.2183,-0.4604
-0.081,2.396,-0.611,-2.2,15.4,89.2,0,2018,5,11,13,45,40.849,0.7995,0.3132,0.22,-0.4628
-0.083,1.685,-0.423,19.1,48.1,224.3,0,2018,5,11,13,45,40.887,0.7846,0.3103,0.225,-0.487
-0.569,0.798,-0.05,29.8,15.7,307.9,0,2018,5,11,13,45,40.906,0.7588,0.3033,0.2319,-0.5275
-0.5,-0.572,0.203,-16.8,-135.6,279.1,0,2018,5,11,13,45,40.91,0.7337,0.2812,0.2532,-0.5641
-0.225,-3.206,0.328,-29.8,-24.8,135.7,1023,2018,5,11,13,45,40.93,0.7156,0.2613,0.2777,-0.5851
0.061,-2.014,0.301,2.1,70.8,-79.9,1023,2018,5,11,13,45,40.948,0.7112,0.268,0.2739,-0.5892
0.216,-1.075,-0.19,-2.5,-39.8,-188.1,1023,2018,5,11,13,45,40.989,0.7252,0.2762,0.2665,-0.5715
-0.032,0.079,-0.419,12.3,-32.5,-211.4,1023,2018,5,11,13,45,41.009,0.748,0.279,0.2606,-0.5428
-0.323,1.465,-0.31,20.4,29,-162.6,1023,2018,5,11,13,45,41.013,0.766,0.2864,0.2483,-0.5189
-0.348,2.25,-0.359,14.2,15.8,-50,1023,2018,5,11,13,45,41.031,0.775,0.2931,0.238,-0.5066
-0.125,2.262,-0.397,30.8,20.8,77,1023,2018,5,11,13,45,41.05,0.7737,0.2926,0.2344,-0.5106
-0.139,1.693,-0.305,42,41.7,194.4,1023,2018,5,11,13,45,41.069,0.7608,0.2877,0.2338,-0.5326
-0.51,0.604,0.086,41.8,-3.8,263.5,1023,2018,5,11,13,45,41.107,0.7383,0.2775,0.2366,-0.5673
-0.555,-0.937,0.339,4.7,-112.6,228,1023,2018,5,11,13,45,41.129,0.7164,0.2557,0.2525,-0.5978
-0.156,-2.836,0.32,10.3,6.4,75,1023,2018,5,11,13,45,41.133,0.7024,0.2413,0.2657,-0.6145
0.134,-1.403,0.146,25.8,-36.7,-97.2,1023,2018,5,11,13,45,41.151,0.7056,0.2414,0.26,-0.6133
0.179,-0.749,-0.374,38.4,-107.5,-165.3,1023,2018,5,11,13,45,41.172,0.7253,0.2332,0.2602,-0.593
-0.069,0.595,-0.269,60.3,-74.8,-163.6,1023,2018,5,11,13,45,41.192,0.7485,0.2242,0.2557,-0.5692
-0.166,1.491,-0.188,60.1,-92.3,-97.7,1023,2018,5,11,13,45,41.23,0.7672,0.2134,0.2507,-0.5503
-0.183,1.695,-0.109,53.6,-147.9,-8.9,0,2018,5,11,13,45,41.248,0.779,0.1936,0.2529,-0.54
-0.154,1.347,0.035,34,-124.8,84.3,0,2018,5,11,13,45,41.253,0.7818,0.1676,0.2619,-0.5402
-0.076,0.93,-0.077,18.4,-9.7,162.8,0,2018,5,11,13,45,41.275,0.7727,0.1501,0.2685,-0.5551
-0.188,0.977,-0.11,22.1,16.8,212.5,0,2018,5,11,13,45,41.294,0.7542,0.1415,0.2688,-0.582
-0.357,0.487,-0.021,8.7,-88.2,235.3,0,2018,5,11,13,45,41.314,0.7322,0.1246,0.2755,-0.6102
-0.34,0.217,0.147,-5.8,-242.6,226.4,0,2018,5,11,13,45,41.334,0.7098,0.0924,0.2976,-0.6315
-0.325,-0.15,0.036,-45.6,-440.1,192.2,0,2018,5,11,13,45,41.354,0.6891,0.0411,0.3418,-0.6376
-0.13,-0.176,-0.219,-85.1,-618.1,136.7,0,2018,5,11,13,45,41.374,0.6671,-0.026,0.4091,-0.6219
-0.052,-0.261,-0.537,-120.1,-735,79.8,0,2018,5,11,13,45,41.392,0.6396,-0.1015,0.4921,-0.5816
0.128,-1.037,-0.83,-118.4,-608.1,41.1,0,2018,5,11,13,45,41.429,0.6054,-0.1712,0.5725,-0.5256
0.054,-0.922,-0.353,-75.7,-230.8,21.6,0,2018,5,11,13,45,41.447,0.5788,-0.2087,0.6177,-0.4895
0.105,-0.044,-0.22,-43.4,-62.4,-8,0,2018,5,11,13,45,41.451,0.5678,-0.216,0.6332,-0.4795
0.298,0.217,-0.227,-14.4,-109.3,-21.1,0,2018,5,11,13,45,41.49,0.563,-0.2196,0.6431,-0.4701
0.289,0.122,-0.256,6.6,-166.7,-15.2,0,2018,5,11,13,45,41.51,0.5586,-0.2314,0.6559,-0.4517
0.324,-0.592,-0.304,38.7,-42,-10.2,0,2018,5,11,13,45,41.518,0.5573,-0.2431,0.6629,-0.4366
0.201,-0.082,0.179,62.9,80.8,-31.6,0,2018,5,11,13,45,41.536,0.5665,-0.2413,0.6558,-0.4366
0.298,0.014,0.347,61.1,7.3,-63.9,0,2018,5,11,13,45,41.556,0.5796,-0.2353,0.6475,-0.435
0.413,-0.369,0.157,58.4,-90.3,-95,0,2018,5,11,13,45,41.572,0.5903,-0.2356,0.6483,-0.419
0.288,-0.585,0.313,52.4,-109.1,-124.7,0,2018,5,11,13,45,41.609,0.6005,-0.2379,0.6543,-0.393
0.198,-0.466,0.545,41.1,-68.4,-164.1,0,2018,5,11,13,45,41.63,0.6119,-0.2337,0.6612,-0.3655
0.159,-0.228,0.472,30.8,-22.3,-196.7,0,2018,5,11,13,45,41.634,0.6252,-0.2197,0.6676,-0.3389
0.045,0.086,0.397,25.8,27.6,-212.7,0,2018,5,11,13,45,41.653,0.6405,-0.1964,0.6717,-0.3159
-0.092,0.447,0.363,20.2,27.2,-209.4,0,2018,5,11,13,45,41.674,0.6556,-0.1691,0.6742,-0.2947
-0.225,0.821,0.384,14.8,-2,-184.6,0,2018,5,11,13,45,41.694,0.6678,-0.1451,0.677,-0.2729
-0.358,1.194,0.462,6.3,-29.1,-131.5,0,2018,5,11,13,45,41.715,0.676,-0.1288,0.6804,-0.2518
-0.379,1.59,0.395,-3.4,-14.9,-42.2,0,2018,5,11,13,45,41.738,0.6793,-0.1214,0.6832,-0.2385
-0.417,1.728,0.486,-5.1,27.3,67.7,1023,2018,5,11,13,45,41.756,0.6783,-0.122,0.6831,-0.2412
-0.456,1.618,0.44,-6.8,29.8,178.3,1023,2018,5,11,13,45,41.773,0.6727,-0.1331,0.6796,-0.2602
-0.443,1.367,0.288,-7.6,21.4,262.2,1023,2018,5,11,13,45,41.793,0.6617,-0.1563,0.6735,-0.2897
-0.53,0.791,0.037,-14.4,-2.7,306.4,1023,2018,5,11,13,45,41.833,0.6452,-0.1882,0.6654,-0.3244
-0.463,-1.16,-0.386,-2.1,20.1,299.4,1023,2018,5,11,13,45,41.854,0.6251,-0.2236,0.6561,-0.3585
-0.26,-3.756,-0.425,38.6,91.8,170.6,1023,2018,5,11,13,45,41.858,0.6141,-0.2459,0.6394,-0.3916
0.382,-3.525,-0.436,58.8,116.2,-55.6,0,2018,5,11,13,45,41.876,0.6208,-0.2445,0.6245,-0.4059
0.633,-1.838,-0.169,48.9,156.3,-219.6,0,2018,5,11,13,45,41.914,0.6432,-0.2164,0.6142,-0.4026
0.303,-0.252,-0.039,22.6,59,-299.6,0,2018,5,11,13,45,41.935,0.669,-0.1776,0.612,-0.3822
-0.256,0.483,0.418,3.3,-23.1,-323.2,0,2018,5,11,13,45,41.939,0.6907,-0.1429,0.6187,-0.3457
-0.543,0.904,0.707,-14.5,-68.7,-302.3,0,2018,5,11,13,45,41.958,0.7068,-0.1144,0.6294,-0.3016
-0.599,1.538,0.752,-30.8,-69.5,-233.9,0,2018,5,11,13,45,41.977,0.7162,-0.0921,0.6407,-0.2607
-0.569,2.008,0.662,-43.7,-49.5,-124.9,0,2018,5,11,13,45,41.997,0.7187,-0.078,0.6508,-0.2317
-0.55,2.065,0.523,-48.5,-24.3,7.7,0,2018,5,11,13,45,42.015,0.715,-0.0743,0.6589,-0.2211
-0.591,1.92,0.242,-36,-25.4,141.9,0,2018,5,11,13,45,42.054,0.7066,-0.0845,0.6641,-0.2291
-0.545,1.5,0.003,-12.7,-31.3,244.6,0,2018,5,11,13,45,42.073,0.6949,-0.1104,0.665,-0.2502
-0.515,1.129,-0.072,15,1,312.5,0,2018,5,11,13,45,42.077,0.6815,-0.1453,0.6593,-0.2822
-0.549,0.159,-0.171,40.9,43.1,339.5,0,2018,5,11,13,45,42.097,0.668,-0.1815,0.6451,-0.3233
-0.177,-1.358,-0.12,74.7,-10.3,297.5,0,2018,5,11,13,45,42.135,0.6558,-0.2182,0.6255,-0.3617
-0.024,-3.145,-0.249,77.4,-97.1,168,0,2018,5,11,13,45,42.155,0.6463,-0.2557,0.6104,-0.3797
0.255,-2.892,0.094,63.9,6.1,-3.7,0,2018,5,11,13,45,42.159,0.6455,-0.2764,0.6033,-0.3778
0.505,-1.362,0.196,38.9,175.3,-138.3,0,2018,5,11,13,45,42.18,0.6611,-0.2593,0.5944,-0.377
0.345,0.196,0.046,8.7,188.8,-181.3,0,2018,5,11,13,45,42.201,0.6828,-0.2204,0.5856,-0.3768
-0.084,1.125,0.176,-16.1,66.4,-165,0,2018,5,11,13,45,42.214,0.6985,-0.1864,0.5841,-0.3689
-0.237,1.248,0.341,-28.3,-15.2,-112.4,0,2018,5,11,13,45,42.255,0.7052,-0.169,0.5905,-0.354
-0.287,1.078,0.259,-22.8,8,-47.3,0,2018,5,11,13,45,42.276,0.7068,-0.1609,0.5969,-0.3437
-0.233,1.143,0.071,-0.6,93.6,13.9,0,2018,5,11,13,45,42.28,0.7079,-0.1515,0.5953,-0.3483
-0.223,0.942,-0.1,36.4,105.9,64.6,0,2018,5,11,13,45,42.299,0.7098,-0.144,0.5856,-0.3638
-0.197,0.798,-0.127,71.1,74.8,102.9,0,2018,5,11,13,45,42.317,0.7122,-0.145,0.5706,-0.3822
-0.106,0.586,-0.027,88.1,53.1,129.1,0,2018,5,11,13,45,42.337,0.7138,-0.1541,0.5529,-0.4011
0,0.355,0.136,84.1,-8.1,136.1,0,2018,5,11,13,45,42.358,0.7132,-0.1699,0.5364,-0.4179
0.06,-0.079,0.188,62.2,-97.7,129.2,0,2018,5,11,13,45,42.379,0.7082,-0.1952,0.5273,-0.4267
0.022,-0.973,0.391,32,-87,93,0,2018,5,11,13,45,42.416,0.7005,-0.2213,0.5246,-0.43
0.124,-1.401,0.389,0,-34,19.4,0,2018,5,11,13,45,42.435,0.6951,-0.235,0.5252,-0.4307
0.181,-1.31,0.292,-28.8,-1.1,-67.9,0,2018,5,11,13,45,42.439,0.6951,-0.2331,0.5293,-0.4268
0.212,-0.543,0.174,-52.4,-0.3,-126.6,0,2018,5,11,13,45,42.457,0.6987,-0.2206,0.5381,-0.4165
0.077,0.013,0.151,-66,-16.4,-155,1023,2018,5,11,13,45,42.497,0.7029,-0.2038,0.5512,-0.4005
-0.066,0.642,0.194,-70.8,-23.2,-148.3,1023,2018,5,11,13,45,42.518,0.706,-0.1866,0.5663,-0.3818
-0.152,1.111,0.157,-70.6,-24.9,-111.1,1023,2018,5,11,13,45,42.522,0.7067,-0.1717,0.5808,-0.3655
-0.092,1.338,0.095,-58.9,-54.8,-48.8,1023,2018,5,11,13,45,42.54,0.7039,-0.1639,0.5936,-0.3537
-0.12,1.439,0.122,-35.6,-84.1,22.8,1023,2018,5,11,13,45,42.561,0.6977,-0.1685,0.6042,-0.3459
-0.097,1.283,0.197,-9.9,-77.1,99,1023,2018,5,11,13,45,42.582,0.689,-0.1839,0.6098,-0.3455
-0.118,1.016,0.174,4.5,-67.1,159.4,1023,2018,5,11,13,45,42.602,0.6783,-0.2067,0.61,-0.3535
-0.211,0.029,0.055,9.5,-17,184.4,0,2018,5,11,13,45,42.641,0.6663,-0.2308,0.6049,-0.3697
-0.06,-1.367,0.139,24.3,31.2,146.6,0,2018,5,11,13,45,42.66,0.6574,-0.2489,0.5949,-0.3896
0.13,-2.139,0.068,17.8,9.5,33.4,0,2018,5,11,13,45,42.664,0.6543,-0.2572,0.5869,-0.4015
0.423,-1.57,0.029,7,4.3,-82.4,0,2018,5,11,13,45,42.683,0.6576,-0.2549,0.5868,-0.3975
0.346,-0.698,0.104,-6.8,38.1,-153.1,0,2018,5,11,13,45,42.703,0.6667,-0.24,0.5906,-0.386
0.131,0.172,0.096,-14.6,18.3,-183.7,0,2018,5,11,13,45,42.721,0.6782,-0.2175,0.5967,-0.3695
-0.091,0.836,0.279,-16.5,-19.6,-170,0,2018,5,11,13,45,42.758,0.6877,-0.1979,0.6053,-0.3484
-0.229,1.306,0.416,-19.6,-36.2,-116.9,0,2018,5,11,13,45,42.778,0.6934,-0.1851,0.6141,-0.3281
-0.283,1.678,0.44,-19.4,-42.6,-35.3,0,2018,5,11,13,45,42.782,0.6943,-0.1803,0.621,-0.3156
-0.253,1.733,0.446,-15,-59.8,56.3,0,2018,5,11,13,45,42.801,0.6901,-0.1871,0.6255,-0.312
-0.282,1.388,0.419,-10.7,-53.8,140,0,2018,5,11,13,45,42.822,0.6812,-0.2045,0.6266,-0.3183
-0.248,1.09,0.267,-10.7,-53.6,201,0,2018,5,11,13,45,42.841,0.6681,-0.2293,0.6243,-0.3332
-0.258,0.188,0.023,-14.1,-17.5,230.7,0,2018,5,11,13,45,42.862,0.6518,-0.2569,0.6188,-0.355
-0.196,-1.167,-0.068,-0.1,39.7,205.5,0,2018,5,11,13,45,42.885,0.6373,-0.2788,0.6083,-0.3819
-0.043,-2.339,-0.331,7.9,-6.3,92.9,0,2018,5,11,13,45,42.899,0.6285,-0.2925,0.5984,-0.4014
0.3,-2.26,-0.353,7.9,-59.3,-52.6,0,2018,5,11,13,45,42.935,0.626,-0.2994,0.5998,-0.3981
0.384,-1.312,-0.048,4.5,8.7,-157.3,0,2018,5,11,13,45,42.954,0.6328,-0.2911,0.6068,-0.3826
0.261,-0.246,0.017,0.8,42.9,-210.6,0,2018,5,11,13,45,42.962,0.6468,-0.2676,0.6137,-0.365
0.036,0.422,0.204,1.8,14,-220.2,0,2018,5,11,13,45,42.999,0.6618,-0.2405,0.6215,-0.343
-0.158,0.866,0.457,0.7,-4.1,-194.2,0,2018,5,11,13,45,43.019,0.6742,-0.2175,0.6295,-0.3188
-0.313,1.471,0.631,-10.1,6.4,-131,0,2018,5,11,13,45,43.023,0.6826,-0.1992,0.636,-0.2995
-0.299,1.854,0.63,-17.4,12.2,-40.6,0,2018,5,11,13,45,43.061,0.6858,-0.1873,0.64,-0.2913
-0.287,1.818,0.638,-20.7,-11.8,62.6,0,2018,5,11,13,45,43.081,0.6831,-0.1876,0.6417,-0.2938
-0.313,1.478,0.501,-26.2,-45.4,152.6,0,2018,5,11,13,45,43.085,0.6735,-0.2026,0.6423,-0.3044
-0.317,0.981,0.293,-33.6,-55,214.1,0,2018,5,11,13,45,43.106,0.6579,-0.2282,0.6416,-0.3213
-0.19,-0.149,-0.004,-33.8,-24,230.9,0,2018,5,11,13,45,43.126,0.6388,-0.2564,0.6384,-0.3443
-0.279,-1.642,-0.124,-21.1,8.5,189.7,0,2018,5,11,13,45,43.142,0.6226,-0.2789,0.6311,-0.3689
0.036,-2.335,-0.493,-11.6,-23.8,63,0,2018,5,11,13,45,43.179,0.6121,-0.2923,0.6272,-0.3826
0.332,-1.868,-0.37,-2.3,-17.8,-67.9,0,2018,5,11,13,45,43.198,0.6104,-0.2943,0.6303,-0.3787
0.344,-1.057,-0.196,1.1,82.3,-157.1,0,2018,5,11,13,45,43.202,0.6197,-0.2774,0.634,-0.37
0.249,-0.042,-0.104,3.9,68.3,-203.5,0,2018,5,11,13,45,43.224,0.6355,-0.2477,0.637,-0.3589
0.039,0.474,0.15,9,3.6,-209,1023,2018,5,11,13,45,43.245,0.6505,-0.221,0.6427,-0.3388
-0.147,0.962,0.444,8.8,-32.3,-179.2,1023,2018,5,11,13,45,43.262,0.662,-0.2016,0.65,-0.3137
-0.262,1.242,0.593,2.2,-8.3,-118.7,1023,2018,5,11,13,45,43.298,0.6697,-0.1877,0.6557,-0.2935
-0.263,1.624,0.639,-5.9,23.5,-39.4,1023,2018,5,11,13,45,43.318,0.6738,-0.1771,0.6579,-0.2857
-0.274,1.638,0.587,-13.1,4.8,48.7,1023,2018,5,11,13,45,43.325,0.6729,-0.1753,0.6579,-0.2889
-0.281,1.354,0.498,-19.3,-47.6,129.4,1023,2018,5,11,13,45,43.364,0.6656,-0.1876,0.658,-0.2976
-0.194,1.049,0.327,-27,-67.2,190.2,1023,2018,5,11,13,45,43.384,0.652,-0.2126,0.6584,-0.3098
-0.187,0.412,0.145,-34.4,-14.8,223.6,0,2018,5,11,13,45,43.386,0.6349,-0.2398,0.6561,-0.3297
-0.144,-0.694,-0.048,-18.4,31.4,215.8,0,2018,5,11,13,45,43.403,0.6189,-0.2623,0.6485,-0.357
-0.109,-2.081,-0.42,-8.4,-6.5,128.9,0,2018,5,11,13,45,43.422,0.607,-0.2793,0.6401,-0.379
0.146,-2.203,-0.454,0.7,-54,-5.3,0,2018,5,11,13,45,43.443,0.6008,-0.2897,0.6401,-0.3811
0.422,-1.563,-0.19,2.6,43.3,-118,0,2018,5,11,13,45,43.483,0.6048,-0.2837,0.6442,-0.3723
0.36,-0.497,-0.148,3.4,109.6,-189.2,0,2018,5,11,13,45,43.503,0.6196,-0.2561,0.6455,-0.3657
0.184,0.157,0,10.6,53.4,-213.2,0,2018,5,11,13,45,43.505,0.6366,-0.2244,0.6483,-0.3521
-0.1,0.581,0.314,15.8,5.8,-206.2,0,2018,5,11,13,45,43.543,0.6518,-0.1982,0.6529,-0.3308
-0.253,0.886,0.481,14.2,-4.4,-173,0,2018,5,11,13,45,43.562,0.6641,-0.1775,0.6575,-0.3081
-0.3,1.283,0.557,5.6,7.5,-115.7,0,2018,5,11,13,45,43.565,0.6729,-0.1612,0.6606,-0.291
-0.252,1.644,0.582,-1.7,16,-37.2,0,2018,5,11,13,45,43.588,0.6772,-0.1511,0.6619,-0.2833
-0.242,1.615,0.487,-3.6,-7.5,52.7,0,2018,5,11,13,45,43.603,0.6764,-0.1515,0.6618,-0.2851
-0.277,1.437,0.397,-6.2,-52.9,136.1,0,2018,5,11,13,45,43.639,0.6701,-0.1662,0.6613,-0.2932
-0.268,1.061,0.299,-12.5,-61.6,200.7,0,2018,5,11,13,45,43.66,0.658,-0.1929,0.6602,-0.3061
-0.228,0.482,0.217,-20.4,-18.9,237.8,0,2018,5,11,13,45,43.663,0.6422,-0.2221,0.6564,-0.3274
-0.158,-0.586,0.042,-9.5,35.3,241.7,0,2018,5,11,13,45,43.7,0.6262,-0.248,0.6477,-0.3559
-0.108,-1.79,-0.358,-1,17.7,167.2,0,2018,5,11,13,45,43.72,0.6138,-0.2673,0.6363,-0.3829
0.066,-2.324,-0.339,4,-40.1,34.9,0,2018,5,11,13,45,43.725,0.6067,-0.28,0.6321,-0.3921
0.425,-1.945,-0.169,2.9,11.9,-98.7,0,2018,5,11,13,45,43.766,0.6083,-0.279,0.6355,-0.3848
0.396,-0.797,-0.102,-0.1,97.3,-187.3,0,2018,5,11,13,45,43.785,0.6216,-0.255,0.6376,-0.3766
0.232,0.073,-0.07,2.2,42,-227.1,0,2018,5,11,13,45,43.789,0.6381,-0.2234,0.6419,-0.3614
-0.106,0.59,0.256,5.8,-11,-228.2,0,2018,5,11,13,45,43.804,0.6532,-0.1965,0.6491,-0.3365
-0.31,1.071,0.451,2.9,-4,-189.7,0,2018,5,11,13,45,43.843,0.6652,-0.1742,0.6562,-0.3105
-0.343,1.557,0.443,-3.2,29.1,-117.7,0,2018,5,11,13,45,43.863,0.6736,-0.1547,0.6599,-0.2944
-0.29,1.858,0.423,-2.3,12.9,-20.3,0,2018,5,11,13,45,43.867,0.6773,-0.1436,0.6608,-0.2894
-0.295,1.828,0.43,0.6,-34.6,86.1,0,2018,5,11,13,45,43.904,0.6752,-0.149,0.6605,-0.2924
-0.298,1.423,0.316,3,-66.6,175.5,0,2018,5,11,13,45,43.925,0.6668,-0.1712,0.6594,-0.3018
-0.271,1.062,0.246,-0.3,-45.2,236.1,0,2018,5,11,13,45,43.929,0.6538,-0.2024,0.6555,-0.319
-0.263,-0.094,0.103,-2.1,26.5,260.1,0,2018,5,11,13,45,43.949,0.6383,-0.2321,0.647,-0.3463
-0.283,-2.018,-0.091,9.5,28.6,206.6,0,2018,5,11,13,45,43.97,0.6259,-0.2543,0.633,-0.3778
0.266,-2.691,-0.314,2.2,-72.7,47.8,0,2018,5,11,13,45,43.991,0.6165,-0.2718,0.629,-0.3876
0.518,-2.19,-0.054,-3.8,-18.2,-107.4,1023,2018,5,11,13,45,44.01,0.6159,-0.2741,0.635,-0.377
0.416,-0.916,-0.034,-7.9,91.4,-206.9,1023,2018,5,11,13,45,44.028,0.628,-0.2501,0.6399,-0.3653
0.17,0.355,0.097,-6.7,48.2,-244.4,1023,2018,5,11,13,45,44.045,0.6446,-0.2149,0.6457,-0.3482
-0.17,0.976,0.386,-6.2,1.7,-222.7,1023,2018,5,11,13,45,44.084,0.6585,-0.1854,0.6534,-0.3238
-0.192,1.418,0.428,-11.6,6.2,-153.7,1023,2018,5,11,13,45,44.104,0.6679,-0.1629,0.6602,-0.3021
-0.328,1.89,0.461,-10.4,6.1,-59.3,1023,2018,5,11,13,45,44.108,0.6725,-0.1487,0.6639,-0.2911
-0.322,1.925,0.435,-3.5,-17.3,53.2,1023,2018,5,11,13,45,44.147,0.6715,-0.1488,0.665,-0.2907
-0.403,1.585,0.278,7.6,-48.4,151.4,0,2018,5,11,13,45,44.151,0.6653,-0.1653,0.6636,-0.2992
-0.387,1.232,0.193,15.2,-45.4,225.4,0,2018,5,11,13,45,44.17,0.6548,-0.1942,0.659,-0.3148
-0.429,0.511,0.071,17.9,34.9,271.4,0,2018,5,11,13,45,44.19,0.642,-0.2248,0.6481,-0.3421
-0.305,-0.923,0.03,34.3,56.1,255.3,0,2018,5,11,13,45,44.211,0.6303,-0.25,0.6304,-0.3776
-0.011,-2.626,-0.3,22,-45.9,142.6,0,2018,5,11,13,45,44.233,0.6197,-0.2739,0.6179,-0.3987
0.281,-2.559,-0.094,8.4,-45.4,-13.3,0,2018,5,11,13,45,44.252,0.6143,-0.2877,0.6172,-0.3985
0.497,-1.553,0.034,-5.9,71.6,-138.8,0,2018,5,11,13,45,44.271,0.6207,-0.2773,0.6205,-0.3907
0.394,-0.267,-0.027,-15.9,77,-210.3,0,2018,5,11,13,45,44.291,0.6353,-0.2475,0.6243,-0.3811
0.087,0.439,0.228,-16.4,1.2,-226,0,2018,5,11,13,45,44.31,0.6494,-0.2178,0.6328,-0.3608
-0.14,0.935,0.413,-16.4,-27.3,-199.1,0,2018,5,11,13,45,44.346,0.6599,-0.1953,0.6437,-0.3344
-0.249,1.414,0.443,-18.1,5,-136.5,0,2018,5,11,13,45,44.365,0.6671,-0.1765,0.6519,-0.3141
-0.232,2.058,0.371,-14.5,17.5,-41.1,0,2018,5,11,13,45,44.369,0.6705,-0.1634,0.6557,-0.3061
-0.277,2.163,0.278,6.2,-15.3,74.7,0,2018,5,11,13,45,44.41,0.669,-0.1649,0.6555,-0.3089
-0.405,1.773,0.214,29.1,-75.6,183.7,0,2018,5,11,13,45,44.431,0.6623,-0.1867,0.6519,-0.3183
-0.341,1.241,0.156,41.4,-65.9,265,0,2018,5,11,13,45,44.435,0.6506,-0.2238,0.6439,-0.3343
-0.369,0.205,0.154,41.4,-16.5,294.4,0,2018,5,11,13,45,44.453,0.6363,-0.2623,0.6294,-0.3606
-0.372,-1.959,0.025,46.6,-38.9,242.6,0,2018,5,11,13,45,44.491,0.6223,-0.2972,0.6124,-0.3863
0.026,-3.043,-0.163,18.9,-122.9,78.6,0,2018,5,11,13,45,44.495,0.6096,-0.3262,0.6066,-0.3923
0.373,-2.59,0.064,-1.2,-17.9,-86.8,0,2018,5,11,13,45,44.511,0.6061,-0.3348,0.6123,-0.3815
0.366,-1.099,0.022,-21.6,132.3,-195,0,2018,5,11,13,45,44.547,0.6187,-0.3099,0.6167,-0.3751
0.24,0.147,-0.011,-33,60.2,-237.4,0,2018,5,11,13,45,44.568,0.635,-0.2727,0.6247,-0.3632
-0.1,0.852,0.379,-36.8,-10.9,-223,0,2018,5,11,13,45,44.572,0.6464,-0.2428,0.638,-0.3406
-0.264,1.415,0.461,-39.6,-6.3,-165.2,0,2018,5,11,13,45,44.611,0.6527,-0.2202,0.6511,-0.3183
-0.24,1.957,0.382,-36.3,27.9,-75.3,0,2018,5,11,13,45,44.615,0.6553,-0.2028,0.6593,-0.3075
-0.234,2.167,0.381,-20.9,13.5,41.1,0,2018,5,11,13,45,44.63,0.6535,-0.1969,0.662,-0.3093
-0.316,1.803,0.324,4.9,-14.8,157.1,0,2018,5,11,13,45,44.671,0.6469,-0.2085,0.6593,-0.3213
-0.341,1.371,0.192,25.2,-30.6,239.2,0,2018,5,11,13,45,44.692,0.636,-0.2358,0.6511,-0.3403
-0.351,0.314,0.106,29.5,15.4,274.9,1023,2018,5,11,13,45,44.696,0.6225,-0.2682,0.6371,-0.3667
-0.431,-1.433,0.099,43.9,40.6,231.2,1023,2018,5,11,13,45,44.71,0.6111,-0.2954,0.6177,-0.3969
0.098,-2.769,-0.124,26.4,-37.5,88.3,1023,2018,5,11,13,45,44.751,0.603,-0.3155,0.6054,-0.4124
0.433,-2.467,-0.012,3.3,-29.9,-73,1023,2018,5,11,13,45,44.771,0.6018,-0.3215,0.6072,-0.4069
0.449,-1.181,0.01,-15,40.6,-178.5,1023,2018,5,11,13,45,44.775,0.6106,-0.3061,0.6142,-0.3951
0.247,-0.15,-0.016,-22.2,9.8,-231.1,1023,2018,5,11,13,45,44.794,0.6239,-0.2787,0.6253,-0.3767
-0.063,0.559,0.279,-18.2,-41.4,-231.1,0,2018,5,11,13,45,44.812,0.6358,-0.2535,0.6397,-0.3494
-0.215,1.222,0.476,-17.3,-24.1,-186.6,0,2018,5,11,13,45,44.832,0.6445,-0.2331,0.653,-0.3221
-0.141,1.835,0.434,-16.5,35.7,-103.7,0,2018,5,11,13,45,44.871,0.6506,-0.2146,0.6603,-0.3073
-0.237,2.342,0.483,-8.6,34.8,13.3,0,2018,5,11,13,45,44.891,0.653,-0.2039,0.6612,-0.3077
-0.283,2.025,0.377,6.1,-11.5,138.2,0,2018,5,11,13,45,44.895,0.6488,-0.2119,0.6579,-0.318
-0.334,1.494,0.168,20.6,-40.4,227.5,0,2018,5,11,13,45,44.915,0.6385,-0.2376,0.6505,-0.3354
-0.37,0.522,0.103,27.4,-29.5,266.6,0,2018,5,11,13,45,44.956,0.6243,-0.2716,0.6388,-0.358
-0.198,-0.933,0.062,40.8,-23.5,242.4,0,2018,5,11,13,45,44.96,0.6099,-0.3049,0.6238,-0.3817
-0.165,-2.633,-0.083,37.5,-24.5,133.5,0,2018,5,11,13,45,44.975,0.5999,-0.3313,0.6102,-0.3973
0.267,-2.581,0.022,18.9,15.8,-26.3,0,2018,5,11,13,45,44.993,0.599,-0.3395,0.605,-0.3997
0.49,-1.44,0.153,-8.7,95.1,-145.7,0,2018,5,11,13,45,45.014,0.6093,-0.3238,0.6055,-0.3963
0.366,-0.325,0.026,-31.3,61,-208.7,0,2018,5,11,13,45,45.035,0.6242,-0.2936,0.6118,-0.3869
0.033,0.354,0.262,-38.2,-10.1,-223.5,0,2018,5,11,13,45,45.055,0.636,-0.2649,0.6251,-0.3665
-0.16,0.61,0.431,-36.8,-24,-204.9,0,2018,5,11,13,45,45.074,0.6441,-0.2413,0.6403,-0.3416
-0.245,0.985,0.449,-34.4,-10.9,-165.5,0,2018,5,11,13,45,45.095,0.6502,-0.2202,0.6528,-0.3201
-0.317,1.499,0.328,-34.5,-16.3,-99.2,0,2018,5,11,13,45,45.114,0.653,-0.2042,0.6624,-0.3049
-0.162,1.903,0.255,-22,-34,-11,0,2018,5,11,13,45,45.154,0.6516,-0.1991,0.6691,-0.2967
-0.209,1.823,0.334,0.8,-19.5,97.9,0,2018,5,11,13,45,45.174,0.647,-0.2072,0.67,-0.2988
-0.229,1.5,0.158,21.8,-15.9,191.3,0,2018,5,11,13,45,45.178,0.6399,-0.2269,0.6638,-0.3135
-0.216,0.926,0.047,31.9,-39,243.6,0,2018,5,11,13,45,45.194,0.6294,-0.2572,0.6528,-0.3337
-0.155,-0.398,0.02,35.7,-45.4,245.3,0,2018,5,11,13,45,45.23,0.6161,-0.2919,0.6396,-0.3547
-0.012,-1.995,-0.04,42.9,-61.4,173.5,0,2018,5,11,13,45,45.251,0.6042,-0.324,0.6272,-0.3693
0.098,-2.486,-0.031,30,-27.6,29.4,0,2018,5,11,13,45,45.255,0.5989,-0.3422,0.6206,-0.3726
0.36,-1.913,0.087,15,68.6,-101,0,2018,5,11,13,45,45.291,0.6051,-0.3372,0.6196,-0.3687
0.379,-0.668,0.115,-6.6,121.4,-178.9,0,2018,5,11,13,45,45.312,0.6211,-0.31,0.6203,-0.3649
0.171,0.227,0.071,-18.4,56.8,-206.7,0,2018,5,11,13,45,45.314,0.637,-0.2772,0.6262,-0.3537
-0.165,0.92,0.363,-22.7,-7.7,-187.3,0,2018,5,11,13,45,45.354,0.6476,-0.2517,0.6366,-0.3342
-0.256,1.373,0.423,-25.6,-18.3,-128.3,0,2018,5,11,13,45,45.373,0.6531,-0.2346,0.6472,-0.3152
-0.235,1.77,0.31,-21.6,-10.9,-42.5,1023,2018,5,11,13,45,45.377,0.6545,-0.2249,0.6541,-0.3052
-0.221,1.868,0.328,-5,-25.1,56.9,1023,2018,5,11,13,45,45.422,0.6518,-0.2272,0.6562,-0.3047
-0.27,1.425,0.264,15.1,-27.9,149.4,1023,2018,5,11,13,45,45.425,0.6454,-0.2431,0.6527,-0.3134
-0.283,0.951,0.168,32.3,-11.8,212.8,1023,2018,5,11,13,45,45.434,0.6369,-0.2678,0.6428,-0.3306
-0.196,-0.014,0.09,38.1,12.6,234.9,1023,2018,5,11,13,45,45.471,0.6272,-0.2949,0.6274,-0.3547
-0.128,-1.797,0.1,52.6,-6,184.8,1023,2018,5,11,13,45,45.494,0.6189,-0.3204,0.6102,-0.3766
0.175,-2.138,0.025,34.3,-45.8,60.8,1023,2018,5,11,13,45,45.499,0.6135,-0.3397,0.6009,-0.3833
0.327,-1.045,0.012,7.3,-30.1,-42,1023,2018,5,11,13,45,45.517,0.6124,-0.3465,0.6015,-0.3781
0.336,-1.083,0.156,-9,93.6,-113.5,1023,2018,5,11,13,45,45.555,0.619,-0.3349,0.6041,-0.3736
0.212,0.42,0.264,-21.3,129.7,-139,0,2018,5,11,13,45,45.575,0.6332,-0.306,0.6049,-0.3733
0.086,1.145,0.243,-27,101.3,-95.4,0,2018,5,11,13,45,45.579,0.644,-0.2792,0.6064,-0.3733
-0.013,1.357,0.324,-20.5,93.7,-36.3,0,2018,5,11,13,45,45.618,0.6501,-0.2599,0.6061,-0.3772
-0.009,1.281,0.268,-0.5,112.3,29.3,0,2018,5,11,13,45,45.637,0.6534,-0.2475,0.6008,-0.3881
-0.026,1.074,0.256,27.1,142.8,83.6,0,2018,5,11,13,45,45.641,0.6562,-0.2399,0.5878,-0.4077
-0.018,0.8,0.284,51.6,188.2,124,0,2018,5,11,13,45,45.658,0.6593,-0.2347,0.5665,-0.4348
0.064,0.591,0.284,66.5,265.6,153.1,0,2018,5,11,13,45,45.694,0.6633,-0.2266,0.5358,-0.4706
0.257,0.858,-0.246,89.3,305.2,174.4,0,2018,5,11,13,45,45.716,0.6672,-0.2147,0.4957,-0.5127
-0.012,-0.02,0.259,86.7,397.3,173,0,2018,5,11,13,45,45.72,0.6704,-0.1976,0.4465,-0.5586
-0.224,-0.68,1.013,54.2,540.6,135.7,0,2018,5,11,13,45,45.738,0.6748,-0.16,0.384,-0.6094
-0.046,-1.133,1.133,-11,610.1,79,0,2018,5,11,13,45,45.76,0.6774,-0.0998,0.3146,-0.6573
0.347,-0.596,0.743,-59.5,556.4,36.5,0,2018,5,11,13,45,45.779,0.6756,-0.0271,0.2476,-0.6938
0.424,0.056,0.578,-98,285.1,14.2,0,2018,5,11,13,45,45.815,0.6694,0.0311,0.205,-0.7133
0.205,-0.503,0.419,-144,118.6,-19.8,0,2018,5,11,13,45,45.835,0.664,0.0671,0.1978,-0.7179
0.136,-0.541,0.292,-157.3,169.1,-56.7,0,2018,5,11,13,45,45.839,0.6615,0.104,0.1972,-0.7159
0.073,-0.173,0.1,-168,132.6,-89.1,0,2018,5,11,13,45,45.877,0.6614,0.1457,0.194,-0.7095
-0.003,0.076,-0.277,-170.4,14.9,-128.4,0,2018,5,11,13,45,45.882,0.6669,0.1785,0.2029,-0.6943
-0.102,0.584,-0.516,-150.5,-42.7,-151.3,0,2018,5,11,13,45,45.899,0.6787,0.2003,0.2198,-0.6714
-0.231,0.942,-0.677,-128.2,21.4,-136.6,0,2018,5,11,13,45,45.919,0.6908,0.2199,0.2331,-0.648
-0.177,1.551,-0.603,-102.6,117,-78.5,0,2018,5,11,13,45,45.938,0.6952,0.2464,0.2337,-0.6334
-0.158,1.735,-0.542,-81.8,113.6,0.8,0,2018,5,11,13,45,45.979,0.6898,0.2733,0.2294,-0.6298
-0.084,1.267,-0.608,-57.3,43.9,71.1,0,2018,5,11,13,45,45.998,0.6789,0.2883,0.2314,-0.6342
0.016,0.758,-0.788,-21.3,44.2,126.2,0,2018,5,11,13,45,46.002,0.6641,0.293,0.2368,-0.6456
-0.046,0.218,-0.526,14.3,64.7,161.9,0,2018,5,11,13,45,46.021,0.6442,0.2938,0.2379,-0.6648
-0.055,-0.388,-0.29,15.7,-28.4,152.6,0,2018,5,11,13,45,46.061,0.6247,0.2873,0.2416,-0.6845
0.061,-1.313,-0.247,28.4,-47.9,87.3,0,2018,5,11,13,45,46.08,0.6129,0.2747,0.251,-0.6969
0.018,-1.722,-0.2,36.4,-4.3,-25.8,1023,2018,5,11,13,45,46.084,0.6123,0.2661,0.2526,-0.7002
0.021,-1.463,0.077,44.5,40.2,-139.4,1023,2018,5,11,13,45,46.098,0.6235,0.2678,0.2406,-0.6939
-0.006,-0.741,-0.087,32.5,-17.9,-197.4,1023,2018,5,11,13,45,46.118,0.6454,0.2715,0.2269,-0.6769
-0.128,0.258,-0.141,25.9,-36,-209.4,1023,2018,5,11,13,45,46.156,0.6721,0.2722,0.2175,-0.6532
-0.259,1.167,0.043,-2.1,64,-170.3,1023,2018,5,11,13,45,46.176,0.6939,0.2792,0.2055,-0.631
-0.011,2.138,-0.18,-22.3,153.4,-73.9,1023,2018,5,11,13,45,46.18,0.7011,0.3,0.1875,-0.619
-0.006,2.424,-0.182,-27.8,73.4,49.4,1023,2018,5,11,13,45,46.218,0.6944,0.3184,0.1767,-0.6205
0.006,1.746,-0.212,-31.4,-44.4,161.1,1023,2018,5,11,13,45,46.239,0.6813,0.3187,0.1861,-0.6321
-0.087,0.897,-0.309,-28.7,-60.4,238.2,0,2018,5,11,13,45,46.244,0.6603,0.3083,0.2074,-0.6525
-0.146,-0.049,-0.533,-30.1,-141.8,228,0,2018,5,11,13,45,46.264,0.6355,0.2923,0.2336,-0.6752
-0.1,-2.368,-0.188,20.7,19.5,-36.3,0,2018,5,11,13,45,46.283,0.6218,0.2535,0.2843,-0.6842
0.068,-1.173,-0.167,51.6,125,-163.3,0,2018,5,11,13,45,46.302,0.6324,0.2649,0.2628,-0.6787
0.002,-0.261,-0.231,43.9,26.3,-205.3,0,2018,5,11,13,45,46.34,0.6532,0.276,0.2393,-0.6631
-0.207,0.644,0.075,35.3,42.2,-195.3,0,2018,5,11,13,45,46.342,0.6773,0.2818,0.2227,-0.642
-0.12,1.749,0.04,-0.7,148.9,-113.6,0,2018,5,11,13,45,46.359,0.6901,0.2975,0.2025,-0.6277
0,2.422,-0.119,-18.2,132.2,13.6,0,2018,5,11,13,45,46.397,0.6864,0.3191,0.1847,-0.6267
0.01,2.036,-0.223,-26.1,2.4,134.1,0,2018,5,11,13,45,46.418,0.6735,0.3266,0.1848,-0.6366
-0.106,1.168,-0.254,-27,-36.7,232.2,0,2018,5,11,13,45,46.422,0.6535,0.3226,0.2028,-0.6539
-0.217,0.066,-0.38,-35.9,-94.6,248.9,0,2018,5,11,13,45,46.47,0.6277,0.3142,0.229,-0.6743
-0.042,-1.488,-0.729,-48,-197.4,158.3,0,2018,5,11,13,45,46.474,0.6107,0.2962,0.2671,-0.6839
-0.007,-2.642,-0.382,2.2,-1.1,-16.8,0,2018,5,11,13,45,46.488,0.6071,0.2871,0.2891,-0.6821
0.108,-1.484,-0.318,46.3,95.9,-175,0,2018,5,11,13,45,46.504,0.619,0.3001,0.2736,-0.672
-0.002,-0.28,-0.29,45.3,17.3,-235.8,0,2018,5,11,13,45,46.543,0.6444,0.3139,0.2526,-0.6498
-0.215,0.628,-0.072,40,54.2,-225.7,0,2018,5,11,13,45,46.563,0.6722,0.3244,0.2346,-0.6226
-0.206,1.898,-0.023,6.8,146.3,-138.5,0,2018,5,11,13,45,46.568,0.6873,0.3453,0.2117,-0.6028
-0.005,2.641,-0.084,-13.7,78.4,-1.1,0,2018,5,11,13,45,46.583,0.6869,0.3664,0.1972,-0.5957
0.051,2.092,-0.12,-27,-39.7,135.1,0,2018,5,11,13,45,46.601,0.6787,0.3705,0.2053,-0.5998
-0.115,1.164,-0.211,-35.1,-33.7,245.3,0,2018,5,11,13,45,46.64,0.6601,0.3643,0.2283,-0.6159
-0.369,0.057,-0.288,-41.2,-40.4,286.9,0,2018,5,11,13,45,46.663,0.6305,0.3566,0.2548,-0.6404
-0.131,-1.169,-0.657,-55.2,-175.1,199.4,0,2018,5,11,13,45,46.667,0.608,0.3403,0.2914,-0.6553
-0.155,-2.502,-0.356,-21,-58.5,44.1,0,2018,5,11,13,45,46.684,0.5994,0.3269,0.3203,-0.6566
0.088,-1.748,-0.579,37.3,75,-125.2,0,2018,5,11,13,45,46.705,0.6053,0.3338,0.315,-0.6503
0.031,-0.476,-0.325,59.6,24.2,-214.1,0,2018,5,11,13,45,46.745,0.6256,0.3461,0.2942,-0.6341
-0.021,0.017,-0.204,55.3,8.7,-223.6,0,2018,5,11,13,45,46.764,0.6532,0.3536,0.2759,-0.6099
-0.285,1.129,0.079,33.9,112,-171.3,0,2018,5,11,13,45,46.768,0.673,0.3685,0.2526,-0.5893
-0.053,2.457,-0.026,1.1,95.8,-56,0,2018,5,11,13,45,46.783,0.6782,0.3882,0.2326,-0.5789
0.125,2.313,0.014,-19.1,-5,74.2,1023,2018,5,11,13,45,46.821,0.674,0.3961,0.2322,-0.5785
0.018,1.477,-0.035,-36.2,-30.4,196.7,1023,2018,5,11,13,45,46.842,0.6605,0.3922,0.2497,-0.5894
-0.158,0.397,-0.245,-43.7,-35.6,255.7,1023,2018,5,11,13,45,46.846,0.6357,0.3855,0.2746,-0.6096
-0.045,-0.486,-0.809,-62.1,-184.5,194.4,1023,2018,5,11,13,45,46.865,0.6153,0.3697,0.3096,-0.6234
-0.013,-2.144,-0.633,-21.8,-88.2,60.4,1023,2018,5,11,13,45,46.886,0.6095,0.3509,0.343,-0.6225
0.111,-1.88,-0.463,47.6,109.8,-124.6,1023,2018,5,11,13,45,46.907,0.6136,0.3572,0.3367,-0.6183
0.033,-0.416,-0.291,61.8,27.4,-209.9,1023,2018,5,11,13,45,46.926,0.631,0.372,0.3119,-0.605
-0.045,0.094,-0.226,58.3,-14.5,-219.7,1023,2018,5,11,13,45,46.961,0.6581,0.3778,0.2939,-0.581
-0.132,1.126,0.128,31.4,117.7,-161.9,0,2018,5,11,13,45,46.983,0.6763,0.3913,0.2714,-0.5618
-0.006,2.398,0.034,-2.6,145.8,-41.1,0,2018,5,11,13,45,46.988,0.6766,0.4143,0.2497,-0.555
0.095,2.344,0.057,-22.7,16.3,90,0,2018,5,11,13,45,47.025,0.6671,0.4261,0.2468,-0.5589
0,1.445,-0.073,-39.5,-51.7,204.9,0,2018,5,11,13,45,47.048,0.653,0.4208,0.2665,-0.5704
-0.235,0.309,-0.313,-50.2,-58.7,265.5,0,2018,5,11,13,45,47.052,0.6297,0.4094,0.2961,-0.59
-0.147,-0.68,-0.844,-61.8,-158,210.5,0,2018,5,11,13,45,47.067,0.6082,0.3919,0.3326,-0.6047
-0.254,-2.555,-0.682,-12.1,-49.9,72,0,2018,5,11,13,45,47.085,0.5988,0.3753,0.3615,-0.6081
0.041,-1.821,-0.558,59.7,88.6,-124.4,0,2018,5,11,13,45,47.125,0.6025,0.3804,0.3536,-0.6059
0.027,-0.575,-0.343,78.9,24.8,-210.7,0,2018,5,11,13,45,47.129,0.6216,0.3919,0.3288,-0.5931
-0.061,0.097,-0.173,74.5,8.1,-219.1,0,2018,5,11,13,45,47.145,0.6481,0.3979,0.3064,-0.5723
-0.286,1.109,0.069,45.1,102.9,-166.5,0,2018,5,11,13,45,47.185,0.6663,0.4104,0.2807,-0.5555
-0.038,2.261,0.068,12.1,97.4,-51.7,0,2018,5,11,13,45,47.204,0.6698,0.428,0.2598,-0.5482
0.113,2.201,0.068,-10.4,-18.6,68.2,0,2018,5,11,13,45,47.208,0.6658,0.4334,0.2585,-0.5495
0.022,1.391,-0.066,-28.8,-63.9,183.8,0,2018,5,11,13,45,47.244,0.6561,0.4245,0.2773,-0.5588
-0.187,0.661,-0.309,-32.4,-40,256,0,2018,5,11,13,45,47.249,0.6354,0.4121,0.3035,-0.578
-0.242,-0.057,-0.398,-49.8,-138.4,236.1,0,2018,5,11,13,45,47.266,0.6126,0.3943,0.3355,-0.597
-0.166,-1.695,-0.677,-27.1,-129,141.5,0,2018,5,11,13,45,47.304,0.601,0.3715,0.3704,-0.6028
0.061,-1.896,-0.566,31.1,48.3,-24.9,0,2018,5,11,13,45,47.323,0.5977,0.3654,0.3786,-0.6047
0.104,-0.874,-0.389,64.7,51.2,-135.2,0,2018,5,11,13,45,47.328,0.6065,0.3739,0.3618,-0.6011
0.058,-0.24,-0.291,76.4,-4.1,-178.5,0,2018,5,11,13,45,47.347,0.6269,0.3795,0.343,-0.5875
-0.096,0.432,-0.003,70.4,49.4,-176.6,0,2018,5,11,13,45,47.384,0.6489,0.3849,0.3227,-0.5713
0.007,1.525,0.091,38.2,112,-115.2,0,2018,5,11,13,45,47.404,0.6603,0.3992,0.2989,-0.5614
0.12,2.027,0.127,5.2,43.9,-9.8,0,2018,5,11,13,45,47.406,0.6612,0.4113,0.2855,-0.5586
0.172,1.707,0.027,-18.1,-52.9,90.6,0,2018,5,11,13,45,47.447,0.6574,0.4096,0.2919,-0.561
0.104,0.905,-0.146,-33.5,-58.8,162.8,0,2018,5,11,13,45,47.467,0.647,0.3994,0.3114,-0.5698
0.04,0.319,-0.344,-38.7,-100.8,169.2,0,2018,5,11,13,45,47.471,0.6326,0.3863,0.3358,-0.5811
0.12,-0.823,-0.604,-35.1,-133.2,107.6,0,2018,5,11,13,45,47.487,0.6244,0.3683,0.3645,-0.5843
0.057,-1.411,-0.449,8.6,27.3,3,0,2018,5,11,13,45,47.526,0.6209,0.3611,0.3762,-0.5851
0.157,-0.814,-0.313,37.7,76.5,-98.2,0,2018,5,11,13,45,47.547,0.6238,0.3703,0.364,-0.584
0.132,-0.254,-0.238,46.7,10.8,-144.9,1023,2018,5,11,13,45,47.551,0.6366,0.3794,0.3477,-0.5743
0.034,0.225,-0.094,43.3,7.5,-148.9,1023,2018,5,11,13,45,47.57,0.6542,0.3846,0.3337,-0.559
-0.04,0.97,0.041,22.5,80.3,-109.7,1023,2018,5,11,13,45,47.59,0.6655,0.3952,0.3172,-0.5477
0.079,1.756,0.017,-1.3,72,-35.8,1023,2018,5,11,13,45,47.609,0.667,0.409,0.3044,-0.5432
0.088,1.611,0,-21.2,-25.4,54.4,1023,2018,5,11,13,45,47.63,0.6632,0.413,0.3054,-0.5442
0.038,1.168,-0.083,-32.3,-105.2,129.6,1023,2018,5,11,13,45,47.668,0.6576,0.403,0.3229,-0.5484
-0.029,0.399,-0.279,-45.4,-166.5,164.1,0,2018,5,11,13,45,47.689,0.6497,0.3829,0.3518,-0.5544
0.114,-0.349,-0.717,-55.1,-244.6,117.5,0,2018,5,11,13,45,47.693,0.6457,0.3554,0.3886,-0.5528
0.074,-1.723,-0.89,-3.8,-85.4,16.3,0,2018,5,11,13,45,47.711,0.648,0.3335,0.4152,-0.5443
0.145,-1.231,-0.552,64.8,110.1,-129.5,0,2018,5,11,13,45,47.729,0.6548,0.3394,0.4053,-0.54
0.154,-0.32,-0.308,77.4,85.6,-190.7,0,2018,5,11,13,45,47.749,0.669,0.3572,0.3772,-0.5314
-0.002,0.226,-0.114,70.9,53.3,-198.2,0,2018,5,11,13,45,47.77,0.6881,0.3707,0.3509,-0.5156
-0.12,0.771,0.07,38.7,117.1,-153.5,0,2018,5,11,13,45,47.79,0.7017,0.3873,0.3256,-0.5014
-0.083,1.435,0.025,11.6,178.4,-77.8,0,2018,5,11,13,45,47.83,0.7023,0.4115,0.3014,-0.4963
-0.029,1.946,0.131,-3.9,82.7,14,0,2018,5,11,13,45,47.849,0.6942,0.4312,0.287,-0.4995
-0.019,1.502,-0.018,-19.9,-96.3,102,0,2018,5,11,13,45,47.853,0.6894,0.428,0.2956,-0.504
-0.128,1.096,-0.126,-32.9,-165.7,172.9,0,2018,5,11,13,45,47.873,0.6855,0.4067,0.3223,-0.5106
-0.254,0.143,-0.365,-51.2,-203.6,204.7,0,2018,5,11,13,45,47.894,0.6777,0.3775,0.3577,-0.5196
0.106,-0.674,-0.734,-49.6,-222.6,141,0,2018,5,11,13,45,47.932,0.672,0.3456,0.3966,-0.5211
0.021,-1.476,-0.745,3.9,-64.9,39.9,0,2018,5,11,13,45,47.936,0.6708,0.3234,0.4196,-0.5188
0.148,-1.149,-0.688,66.8,103.1,-80.7,0,2018,5,11,13,45,47.953,0.674,0.3264,0.4112,-0.5195
0.026,0.125,-0.128,88.6,86.6,-157.4,0,2018,5,11,13,45,47.971,0.6978,0.3547,0.3565,-0.5099
-0.12,0.92,0.141,59.3,143,-127,0,2018,5,11,13,45,47.991,0.7079,0.3716,0.3284,-0.5028
0.001,1.678,0.168,27.6,125,-52.4,0,2018,5,11,13,45,48.027,0.7085,0.3913,0.3048,-0.5018
0.028,1.911,0.22,0.1,-20.9,36.6,0,2018,5,11,13,45,48.047,0.7059,0.3976,0.2985,-0.5043
0.021,1.557,0.14,-24.9,-155.5,126.6,0,2018,5,11,13,45,48.051,0.7043,0.3826,0.3149,-0.5081
-0.119,0.927,-0.055,-46.8,-221.6,193.1,0,2018,5,11,13,45,48.072,0.6998,0.3533,0.3478,-0.5141
-0.066,0.059,-0.569,-69.9,-310.4,181.4,0,2018,5,11,13,45,48.093,0.6939,0.3137,0.391,-0.5167
0.136,-1.156,-1.129,-40.2,-247.9,96.9,0,2018,5,11,13,45,48.132,0.6927,0.2723,0.4333,-0.508
0.12,-1.803,-0.99,54.6,68.3,-28.7,0,2018,5,11,13,45,48.152,0.694,0.2592,0.442,-0.5056
0.214,-0.718,-0.66,119.5,222.8,-136.9,0,2018,5,11,13,45,48.156,0.7013,0.2791,0.4111,-0.5109
0.116,-0.103,-0.26,128,164.6,-179.6,0,2018,5,11,13,45,48.173,0.7144,0.3037,0.3698,-0.5103
-0.196,0.557,0.227,98.4,139.7,-173.5,0,2018,5,11,13,45,48.212,0.7298,0.3228,0.3329,-0.5021
-0.128,1.382,0.371,51.1,126.5,-118.4,0,2018,5,11,13,45,48.216,0.7388,0.3423,0.3037,-0.4945
-0.049,1.653,0.346,6.2,41.1,-29.7,1023,2018,5,11,13,45,48.233,0.741,0.3554,0.2889,-0.4909
0.019,1.555,0.256,-22.8,-73.1,56.9,1023,2018,5,11,13,45,48.254,0.7403,0.3531,0.2931,-0.4911
-0.027,1.227,0.036,-47,-151.7,134.2,1023,2018,5,11,13,45,48.274,0.737,0.3358,0.3142,-0.4951
-0.126,0.594,-0.182,-65.4,-198.2,175.1,1023,2018,5,11,13,45,48.313,0.7295,0.3095,0.3462,-0.502
0.044,-0.225,-0.621,-70.7,-282.7,138.3,1023,2018,5,11,13,45,48.332,0.7229,0.2748,0.3851,-0.5034
0.15,-0.575,-0.855,-22.3,-263.7,68.1,1023,2018,5,11,13,45,48.337,0.7236,0.2359,0.4209,-0.4934
0.21,-0.97,-0.873,48.3,-58,-13,1023,2018,5,11,13,45,48.354,0.7288,0.2122,0.4346,-0.4845
0.215,-0.145,-0.617,110.3,77.2,-69.8,0,2018,5,11,13,45,48.375,0.7378,0.2129,0.4198,-0.4837
0.169,0.582,-0.262,136.5,14.1,-89.1,0,2018,5,11,13,45,48.397,0.7517,0.2155,0.3957,-0.4814
0.069,0.753,-0.04,128.4,-70.4,-63.8,0,2018,5,11,13,45,48.418,0.7689,0.2046,0.3783,-0.4729
-0.032,1.267,0.403,104.1,-115.1,-7.5,0,2018,5,11,13,45,48.435,0.7825,0.1852,0.3685,-0.4662
-0.035,1.244,0.557,54.1,-209.2,54.2,0,2018,5,11,13,45,48.454,0.7904,0.1545,0.3716,-0.4616
0.002,0.856,0.709,-1.5,-305.1,94.9,0,2018,5,11,13,45,48.473,0.7917,0.1117,0.3905,-0.4561
-0.032,0.646,0.599,-70.5,-460,99.7,0,2018,5,11,13,45,48.497,0.7868,0.0546,0.4269,-0.4423
-0.048,0.21,0.392,-142.9,-584.1,77.8,0,2018,5,11,13,45,48.515,0.7726,-0.017,0.4817,-0.413
-0.014,0.148,0.044,-195.2,-662.8,31.7,0,2018,5,11,13,45,48.554,0.7469,-0.0941,0.5466,-0.3665
0.126,0.13,-0.273,-209.5,-684.5,-17.6,0,2018,5,11,13,45,48.574,0.7091,-0.1705,0.612,-0.3057
0.322,-0.223,-0.57,-174.4,-552.9,-44.9,0,2018,5,11,13,45,48.578,0.6657,-0.2342,0.6668,-0.239
0.273,-0.262,-0.528,-110.2,-265.5,-46.9,0,2018,5,11,13,45,48.599,0.632,-0.2701,0.7002,-0.1925
0.225,0.02,-0.429,-41.7,-5.7,-34.2,0,2018,5,11,13,45,48.619,0.6183,-0.2757,0.7137,-0.179
0.287,0.128,-0.474,18.2,29.1,-27.6,0,2018,5,11,13,45,48.636,0.6191,-0.2686,0.7153,-0.1811
0.268,0.103,-0.481,68.9,-38.9,-18.8,0,2018,5,11,13,45,48.674,0.625,-0.2676,0.7114,-0.1777
0.211,-0.067,-0.45,105.8,-86,-14.6,0,2018,5,11,13,45,48.694,0.6328,-0.2761,0.7043,-0.1649
0.039,-0.298,-0.049,129.4,-56.6,-25.8,0,2018,5,11,13,45,48.698,0.6433,-0.2864,0.6938,-0.1502
0.048,-0.181,0.301,129.3,-29.5,-47.9,0,2018,5,11,13,45,48.716,0.6574,-0.2903,0.6818,-0.1361
0.106,-0.24,0.358,115.8,-25.2,-74.1,0,2018,5,11,13,45,48.736,0.6716,-0.289,0.6713,-0.1213
0.064,-0.31,0.572,95.6,-30.7,-103.6,0,2018,5,11,13,45,48.756,0.6839,-0.2842,0.6637,-0.104
0.112,-0.307,0.839,69,-17.4,-129.3,0,2018,5,11,13,45,48.794,0.6936,-0.2756,0.6601,-0.0843
0.081,-0.105,0.925,36.9,30.9,-148.6,0,2018,5,11,13,45,48.815,0.7015,-0.2596,0.6602,-0.0671
0.018,0.043,0.844,4.5,93.4,-157.7,0,2018,5,11,13,45,48.82,0.7078,-0.2346,0.6638,-0.056
-0.015,0.359,0.675,-19.9,134.5,-153.6,0,2018,5,11,13,45,48.835,0.7126,-0.2016,0.6698,-0.0521
0.017,0.602,0.455,-33.7,105.4,-137.8,0,2018,5,11,13,45,48.855,0.7144,-0.169,0.677,-0.0505
0.027,0.78,0.285,-35.1,41.8,-112.2,0,2018,5,11,13,45,48.876,0.7132,-0.1449,0.6842,-0.0458
-0.013,1.024,0.12,-22.6,-6.5,-67.9,0,2018,5,11,13,45,48.916,0.7105,-0.1323,0.69,-0.0381
-0.042,1.35,0.006,4.5,-12.3,-3,0,2018,5,11,13,45,48.935,0.7092,-0.1298,0.692,-0.0334
-0.133,1.341,0.077,39.4,17.9,78.9,0,2018,5,11,13,45,48.939,0.7118,-0.1345,0.6882,-0.0394
-0.185,1.227,0.163,67,32.9,158,1023,2018,5,11,13,45,48.958,0.7178,-0.1461,0.6781,-0.0577
-0.213,1.106,0.25,81.9,28.1,218.5,1023,2018,5,11,13,45,48.998,0.7251,-0.1658,0.6629,-0.0842
-0.307,0.727,0.339,83.4,55.6,259.5,1023,2018,5,11,13,45,49.019,0.7314,-0.1903,0.6441,-0.1174
-0.331,0.209,0.448,83.7,110.5,267.1,1023,2018,5,11,13,45,49.023,0.7371,-0.2106,0.6218,-0.1596
-0.332,-0.863,0.442,78.4,66.5,226.1,1023,2018,5,11,13,45,49.039,0.7414,-0.2278,0.5986,-0.1997
-0.14,-1.802,0.411,49.7,-43.3,132.3,1023,2018,5,11,13,45,49.075,0.7415,-0.2478,0.5825,-0.222
0.173,-1.913,0.506,12.8,-84.7,14.9,1023,2018,5,11,13,45,49.096,0.738,-0.2664,0.5783,-0.2229
0.393,-1.214,0.61,-23.9,1.9,-81.1,0,2018,5,11,13,45,49.1,0.7365,-0.2682,0.5825,-0.2149
0.373,-0.42,0.427,-56.3,20,-139.6,0,2018,5,11,13,45,49.119,0.7371,-0.2522,0.5922,-0.2053
0.205,0.039,0.373,-71.5,-39.9,-168.8,0,2018,5,11,13,45,49.155,0.7349,-0.2351,0.6076,-0.1876
0.022,0.075,0.332,-73.2,-42.9,-178.2,0,2018,5,11,13,45,49.175,0.7302,-0.2207,0.6255,-0.1636
-0.059,0.247,0.259,-65.4,26.7,-173.8,0,2018,5,11,13,45,49.179,0.7267,-0.2004,0.641,-0.1437
-0.084,0.451,0.212,-54.1,72.9,-159.1,0,2018,5,11,13,45,49.199,0.7256,-0.1732,0.6527,-0.1314
-0.082,0.702,0.131,-43.4,51.4,-136.4,0,2018,5,11,13,45,49.221,0.7251,-0.1468,0.6615,-0.1223
-0.095,0.804,0.073,-30.9,10.1,-107.8,0,2018,5,11,13,45,49.239,0.7239,-0.1285,0.6685,-0.1116
-0.123,0.929,0.053,-14.8,-3.2,-73.3,0,2018,5,11,13,45,49.263,0.7228,-0.1174,0.6733,-0.1014
-0.151,1.029,0.081,1.8,-3.7,-28.1,0,2018,5,11,13,45,49.281,0.7228,-0.1121,0.675,-0.0954
-0.117,1.131,0.056,15.9,-3.3,27.1,0,2018,5,11,13,45,49.297,0.7238,-0.1127,0.6739,-0.0954
-0.114,1.261,0.094,26.6,-18.4,90.8,0,2018,5,11,13,45,49.338,0.7251,-0.1213,0.67,-0.1018
-0.165,1.199,0.157,34,-65.6,156.7,0,2018,5,11,13,45,49.357,0.7253,-0.1419,0.664,-0.1125
-0.188,1.111,0.248,34.8,-112.6,216.4,0,2018,5,11,13,45,49.361,0.7227,-0.1762,0.6563,-0.1254
-0.212,0.766,0.385,31.8,-80.6,260.1,0,2018,5,11,13,45,49.379,0.7171,-0.218,0.6463,-0.143
-0.242,0.328,0.635,28.9,31.4,287.1,0,2018,5,11,13,45,49.401,0.7118,-0.2522,0.6317,-0.1746
-0.163,-0.619,0.535,32,61.2,270.7,0,2018,5,11,13,45,49.42,0.7081,-0.2769,0.6128,-0.2151
-0.036,-2.198,0.157,13.5,-54.5,177.7,0,2018,5,11,13,45,49.439,0.7014,-0.3014,0.5981,-0.2434
0.251,-2.426,0.214,-1,-90,35.3,0,2018,5,11,13,45,49.479,0.6927,-0.3229,0.5952,-0.2477
0.537,-2.115,0.335,-16.8,17.6,-105.2,0,2018,5,11,13,45,49.501,0.6907,-0.3239,0.6005,-0.2393
0.531,-1.019,0.156,-32.1,133.1,-201.2,0,2018,5,11,13,45,49.505,0.6991,-0.2953,0.6082,-0.2322
0.33,-0.089,0.078,-37.1,66.5,-250.8,0,2018,5,11,13,45,49.517,0.7088,-0.2572,0.6194,-0.2183
0.003,0.356,0.258,-33.1,-3.4,-261.8,0,2018,5,11,13,45,49.556,0.715,-0.2247,0.6337,-0.1911
-0.234,0.521,0.351,-27.7,-3.4,-246.9,0,2018,5,11,13,45,49.576,0.719,-0.1964,0.6472,-0.1596
-0.343,0.759,0.288,-20.2,27.3,-216.5,0,2018,5,11,13,45,49.58,0.7225,-0.1677,0.6573,-0.1333
-0.409,1.102,0.231,-10,22.3,-169.4,0,2018,5,11,13,45,49.602,0.7255,-0.1417,0.6638,-0.1128
-0.371,1.318,0.203,1.9,10.9,-105.5,0,2018,5,11,13,45,49.621,0.7279,-0.1238,0.6671,-0.0978
-0.349,1.609,0.184,14.2,-20.7,-21.9,0,2018,5,11,13,45,49.662,0.7297,-0.1174,0.6675,-0.0894
-0.374,1.655,0.248,26.3,-33.4,79,1023,2018,5,11,13,45,49.666,0.731,-0.1253,0.6647,-0.0897
-0.36,1.453,0.256,34.7,-18.4,177.7,1023,2018,5,11,13,45,49.681,0.7317,-0.1444,0.658,-0.1031
-0.286,1.357,0.215,40.2,-31.1,251.7,1023,2018,5,11,13,45,49.723,0.7309,-0.1732,0.6476,-0.1274
-0.344,0.679,0.29,39.2,11.4,298.2,1023,2018,5,11,13,45,49.741,0.7277,-0.2076,0.6337,-0.1599
-0.31,-0.369,0.385,48.5,65.8,304.6,1023,2018,5,11,13,45,49.746,0.7246,-0.2364,0.615,-0.2019
-0.149,-1.845,0.192,47.7,-0.9,225.2,1023,2018,5,11,13,45,49.76,0.7215,-0.2618,0.595,-0.2382
0.201,-2.149,0.203,28.4,-57,89.4,1023,2018,5,11,13,45,49.799,0.717,-0.284,0.5846,-0.2516
0.479,-1.816,0.37,7.4,6.9,-36.3,1023,2018,5,11,13,45,49.821,0.7162,-0.2909,0.5826,-0.2505
0.563,-0.687,0.353,-16,84,-119.9,0,2018,5,11,13,45,49.826,0.7219,-0.2752,0.5851,-0.246
0.391,0.061,0.232,-29.8,60,-157.3,0,2018,5,11,13,45,49.843,0.7289,-0.2497,0.5915,-0.2373
0.159,0.509,0.288,-32.3,-3.8,-161.1,0,2018,5,11,13,45,49.861,0.7331,-0.2284,0.6012,-0.221
0,0.577,0.352,-29.3,-23.5,-144.5,0,2018,5,11,13,45,49.884,0.7346,-0.2136,0.6118,-0.2008
-0.064,0.797,0.346,-21.4,-16.1,-114.6,0,2018,5,11,13,45,49.903,0.7354,-0.2012,0.6204,-0.1833
-0.09,1.115,0.325,-13.1,-29.5,-71.5,0,2018,5,11,13,45,49.926,0.7356,-0.1935,0.6265,-0.1696
-0.098,1.239,0.322,-2.3,-23.2,-15.8,0,2018,5,11,13,45,49.946,0.735,-0.1923,0.6297,-0.1614
-0.08,1.206,0.248,16.5,-11.5,56.4,0,2018,5,11,13,45,49.964,0.7345,-0.197,0.6286,-0.1623
-0.111,1.368,0.362,32.3,-22.8,128.6,0,2018,5,11,13,45,50.004,0.7341,-0.2096,0.6222,-0.1726
-0.068,1.065,0.348,32.9,-62.6,188,0,2018,5,11,13,45,50.009,0.7307,-0.2343,0.6131,-0.1872
-0.101,0.332,0.243,25.1,-35.5,220,0,2018,5,11,13,45,50.024,0.7242,-0.2643,0.6021,-0.2074
-0.124,-1.216,0.122,26.1,9.6,186.5,0,2018,5,11,13,45,50.043,0.718,-0.2885,0.5894,-0.2317
-0.072,-2.181,0.161,19.9,-3.7,79.6,0,2018,5,11,13,45,50.063,0.7152,-0.3021,0.579,-0.2487
0.184,-1.712,0.244,2.5,-36.1,-45.3,0,2018,5,11,13,45,50.086,0.714,-0.3076,0.5782,-0.2472
0.439,-1.075,0.203,-11.3,79.5,-130.3,0,2018,5,11,13,45,50.124,0.7185,-0.2954,0.5829,-0.238
0.372,0.005,0.048,-20.1,91.3,-173,0,2018,5,11,13,45,50.144,0.7275,-0.2673,0.5884,-0.2301
0.159,0.537,0.125,-15.7,22.9,-180.5,0,2018,5,11,13,45,50.148,0.735,-0.2409,0.5965,-0.214
-0.033,0.78,0.349,-12.6,-20.8,-160.3,0,2018,5,11,13,45,50.167,0.7393,-0.223,0.6053,-0.1925
-0.124,0.862,0.442,-12.4,-12.6,-124.1,0,2018,5,11,13,45,50.202,0.7417,-0.21,0.6129,-0.1728
-0.161,1.065,0.41,-11.6,2.4,-77.4,0,2018,5,11,13,45,50.206,0.7432,-0.1993,0.6182,-0.16
-0.092,1.239,0.359,-6.8,1.8,-21.3,0,2018,5,11,13,45,50.221,0.7435,-0.1934,0.6211,-0.1545
-0.099,1.239,0.148,8.1,-13.8,44.2,0,2018,5,11,13,45,50.257,0.743,-0.1953,0.6208,-0.156
-0.106,1.305,0.079,36.1,-65.1,107.7,0,2018,5,11,13,45,50.279,0.7419,-0.2094,0.6162,-0.161
-0.098,1.048,0.325,50.8,-62.3,172.6,0,2018,5,11,13,45,50.281,0.7398,-0.2354,0.6069,-0.1699
-0.169,0.681,0.473,44,35.3,225,0,2018,5,11,13,45,50.32,0.7378,-0.2599,0.5923,-0.1925
-0.132,-0.268,0.378,34.1,65.8,228.3,0,2018,5,11,13,45,50.339,0.7363,-0.2767,0.5739,-0.2273
-0.145,-2.257,0.208,12.6,-32.7,138.3,0,2018,5,11,13,45,50.343,0.7319,-0.2936,0.5606,-0.2524
0.067,-2.516,0.532,-14.3,-68.5,-15.8,0,2018,5,11,13,45,50.386,0.7261,-0.3072,0.5603,-0.2536
0.43,-1.611,0.522,-51.8,29.3,-134.7,1023,2018,5,11,13,45,50.403,0.7246,-0.3012,0.5704,-0.2423
0.366,-0.519,0.103,-64.8,125.6,-203.6,1023,2018,5,11,13,45,50.406,0.73,-0.27,0.5826,-0.2337
0.198,0.406,-0.135,-59.5,54.7,-226.1,1023,2018,5,11,13,45,50.443,0.7358,-0.2334,0.5968,-0.2186
-0.134,1.372,0.134,-38.2,-6.8,-198,1023,2018,5,11,13,45,50.445,0.7393,-0.2065,0.6106,-0.1947
-0.197,2.028,0.265,-16.3,6.2,-107.4,1023,2018,5,11,13,45,50.464,0.7409,-0.1901,0.6197,-0.1749
-0.268,2.274,0.252,12.5,54.2,15.3,1023,2018,5,11,13,45,50.484,0.743,-0.1812,0.6205,-0.1728
-0.316,2.302,0.429,39.8,36,149.1,0,2018,5,11,13,45,50.521,0.7448,-0.1845,0.6125,-0.1894
-0.317,1.625,0.405,49.3,-29,246.9,0,2018,5,11,13,45,50.541,0.7425,-0.2077,0.5994,-0.2145
-0.437,-0.464,0.121,39.3,-57,263.9,0,2018,5,11,13,45,50.546,0.7347,-0.2428,0.585,-0.2425
-0.2,-2.816,0.047,20.3,-56,162.5,0,2018,5,11,13,45,50.585,0.7254,-0.2742,0.5739,-0.2628
-0.016,-2.719,0.75,-13.4,-1.2,-1.8,0,2018,5,11,13,45,50.606,0.7208,-0.2856,0.5707,-0.2703
0.626,-1.563,0.142,-45.5,90.6,-139.2,0,2018,5,11,13,45,50.61,0.7228,-0.2717,0.5769,-0.2658
0.503,0.249,-0.079,-49.4,90.7,-193.6,0,2018,5,11,13,45,50.647,0.7299,-0.2393,0.5862,-0.2571
0.182,1.478,-0.097,-37.8,14.9,-167.2,0,2018,5,11,13,45,50.669,0.7354,-0.2118,0.5971,-0.24
-0.044,2.067,0.181,-11.4,-30.1,-88.5,0,2018,5,11,13,45,50.673,0.7378,-0.1984,0.6052,-0.2232
-0.088,1.993,0.235,19.5,-26.6,32.2,0,2018,5,11,13,45,50.686,0.7381,-0.2,0.6069,-0.2162
-0.265,1.981,0.542,45.7,-43.7,149.1,0,2018,5,11,13,45,50.707,0.737,-0.215,0.6,-0.2244
-0.268,1.329,0.654,51.4,-46.5,230.4,0,2018,5,11,13,45,50.726,0.7321,-0.2444,0.588,-0.2416
-0.235,0.744,0.468,51.2,49.3,275.1,0,2018,5,11,13,45,50.747,0.7259,-0.2727,0.5698,-0.272
-0.198,0.13,0.211,55.2,114.2,275.4,0,2018,5,11,13,45,50.768,0.7209,-0.2915,0.5449,-0.3133
-0.158,-1.172,0.518,57.4,153.5,230.2,0,2018,5,11,13,45,50.789,0.7185,-0.3012,0.5162,-0.3554
-0.337,-2.351,0.885,33.2,141.4,130.2,0,2018,5,11,13,45,50.827,0.719,-0.3016,0.4912,-0.3882
0.161,-1.961,0.859,-22,140.2,26.3,0,2018,5,11,13,45,50.846,0.7219,-0.2904,0.477,-0.4084
0.424,0.207,-0.678,-40.2,153.5,2.5,0,2018,5,11,13,45,50.85,0.725,-0.2717,0.4712,-0.4223
0.286,-1.811,0.067,-57.7,279,-90.5,0,2018,5,11,13,45,50.87,0.7333,-0.2379,0.4634,-0.4368
0.165,-0.149,0.81,-71.6,340.1,-141.3,0,2018,5,11,13,45,50.89,0.7502,-0.181,0.4495,-0.4497
0.001,-0.116,0.775,-143.3,228.2,-144.9,0,2018,5,11,13,45,50.909,0.7606,-0.1249,0.4461,-0.4547
-0.011,0.15,0.281,-172.4,295,-136,0,2018,5,11,13,45,50.927,0.7637,-0.0665,0.45,-0.458
0.033,0.483,-0.167,-195.4,374.2,-116.4,0,2018,5,11,13,45,50.948,0.761,0.0038,0.4484,-0.4686
-0.01,1.183,-0.386,-178.9,363.9,-82.6,0,2018,5,11,13,45,50.968,0.7519,0.0775,0.4409,-0.4839
-0.171,1.122,-0.619,-165.1,277.7,-45,0,2018,5,11,13,45,50.989,0.7379,0.1387,0.4353,-0.4966
0.003,1.234,-0.707,-125.5,203.1,-10.1,0,2018,5,11,13,45,51.011,0.7226,0.1839,0.4319,-0.5072
0.053,0.892,-0.88,-76,176.3,23,0,2018,5,11,13,45,51.031,0.7075,0.216,0.4282,-0.5189
0.112,0.771,-1.006,-15.2,147.9,41.4,0,2018,5,11,13,45,51.05,0.6945,0.2376,0.4202,-0.5334
0.176,0.511,-1.101,48.5,85.4,41.1,1023,2018,5,11,13,45,51.069,0.6869,0.2467,0.4087,-0.5478
0.238,-0.059,-1.015,109.5,1.5,17.9,1023,2018,5,11,13,45,51.111,0.6876,0.2421,0.3958,-0.5584
0.305,-0.68,-0.71,158,-57.9,-33.2,1023,2018,5,11,13,45,51.115,0.6989,0.225,0.3828,-0.5605
-0.051,-1.251,0.289,175,-17.4,-117,1023,2018,5,11,13,45,51.131,0.7191,0.2073,0.3636,-0.5545
-0.242,-0.516,0.703,154.5,88.9,-186.2,1023,2018,5,11,13,45,51.149,0.7429,0.2062,0.3326,-0.5429
-0.294,0.29,0.879,65.2,103.7,-197.8,1023,2018,5,11,13,45,51.169,0.7637,0.2203,0.3009,-0.5268
-0.022,1.171,1.175,-26.3,70.3,-158.8,1023,2018,5,11,13,45,51.192,0.7775,0.24,0.2838,-0.5071
0.048,1.998,0.829,-103.7,-2.1,-68,0,2018,5,11,13,45,51.211,0.7826,0.2553,0.2859,-0.4903
0.029,1.821,0.212,-148.7,15.5,46.6,0,2018,5,11,13,45,51.233,0.7764,0.2668,0.3036,-0.4833
-0.021,1.299,-0.37,-155.2,50,145.5,0,2018,5,11,13,45,51.251,0.7575,0.2794,0.3261,-0.4916
-0.101,0.249,-0.699,-132.1,-22,174.1,0,2018,5,11,13,45,51.292,0.7327,0.2854,0.351,-0.5082
0.29,-0.877,-1.644,-83,-161.8,88.2,0,2018,5,11,13,45,51.312,0.7189,0.2728,0.3815,-0.5128
0.258,-2.077,-1.7,47.5,3.7,-64.1,0,2018,5,11,13,45,51.316,0.7205,0.2617,0.3932,-0.5075
0.028,-0.851,-0.859,148.7,104.6,-201.4,0,2018,5,11,13,45,51.335,0.737,0.2719,0.3654,-0.4992
-0.38,0.215,0.006,149.2,32,-237.8,0,2018,5,11,13,45,51.357,0.7625,0.281,0.3287,-0.481
-0.628,1.15,0.672,103.8,57.9,-200.1,0,2018,5,11,13,45,51.369,0.786,0.2879,0.2972,-0.4591
-0.388,2.388,0.81,36.8,70,-94.1,0,2018,5,11,13,45,51.406,0.7979,0.2996,0.2739,-0.4454
-0.015,2.44,0.759,-34.7,42.3,55,0,2018,5,11,13,45,51.424,0.796,0.3084,0.2691,-0.4457
0.027,1.814,0.431,-83.1,27.3,202.7,0,2018,5,11,13,45,51.428,0.7807,0.3113,0.2823,-0.4623
-0.324,0.355,0.019,-111.2,21,290,0,2018,5,11,13,45,51.464,0.7524,0.3102,0.3073,-0.493
-0.368,-0.829,-0.551,-112.3,-50.6,229.4,0,2018,5,11,13,45,51.485,0.7233,0.3025,0.3388,-0.52
-0.001,-2.438,-0.929,-41,24.2,50.1,0,2018,5,11,13,45,51.495,0.706,0.2987,0.3583,-0.5327
0.1,-1.445,-0.621,34.2,45.1,-127.2,0,2018,5,11,13,45,51.514,0.7085,0.3078,0.3502,-0.5295
0.094,-0.152,-0.396,57.3,-15.4,-193.6,0,2018,5,11,13,45,51.552,0.7264,0.3147,0.334,-0.5114
-0.115,1.026,-0.059,54.5,38.9,-174.6,0,2018,5,11,13,45,51.573,0.7461,0.3206,0.316,-0.4904
-0.093,2.347,0.222,21.6,80.4,-85.4,0,2018,5,11,13,45,51.577,0.7555,0.3338,0.2969,-0.479
0.076,2.566,0.238,-24.2,48.3,59.2,0,2018,5,11,13,45,51.591,0.7525,0.343,0.2914,-0.4807
0.085,1.807,0.256,-59.3,64,189.9,0,2018,5,11,13,45,51.633,0.736,0.3469,0.3005,-0.4975
-0.206,0.452,0.132,-85.8,51.6,274.9,0,2018,5,11,13,45,51.637,0.7061,0.3489,0.3185,-0.5274
-0.177,-0.891,-0.649,-105.4,-111.2,222.1,0,2018,5,11,13,45,51.652,0.6779,0.3392,0.3492,-0.5508
0.019,-2.896,-1.19,-39.5,-32.6,51.1,0,2018,5,11,13,45,51.691,0.664,0.3273,0.3756,-0.5575
0.08,-1.584,-0.766,50,30.2,-127.3,0,2018,5,11,13,45,51.711,0.6689,0.3319,0.3686,-0.5534
-0.074,-0.154,-0.514,73.9,-37,-189.9,0,2018,5,11,13,45,51.715,0.6896,0.3351,0.3521,-0.5367
-0.239,1.091,-0.006,78.3,38.8,-176.9,0,2018,5,11,13,45,51.735,0.712,0.3382,0.3324,-0.5177
-0.124,2.632,0.359,41.7,54.4,-87.9,1023,2018,5,11,13,45,51.771,0.724,0.3484,0.3105,-0.5078
0.16,2.492,0.37,-13.5,-19.9,54.8,1023,2018,5,11,13,45,51.791,0.725,0.3494,0.3073,-0.5076
0.216,1.482,0.245,-52.7,-1.5,173.5,1023,2018,5,11,13,45,51.795,0.7132,0.344,0.3203,-0.5198
-0.066,0.126,-0.052,-78.8,-11.5,219.5,1023,2018,5,11,13,45,51.813,0.6898,0.3389,0.3407,-0.5414
-0.117,-1.242,-0.829,-74.5,-92.4,145.9,1023,2018,5,11,13,45,51.834,0.6706,0.3266,0.3673,-0.5555
0.133,-2.333,-1.093,10.8,-21.3,-53,1023,2018,5,11,13,45,51.855,0.6669,0.3198,0.3802,-0.5552
0.108,-1.154,-0.679,80.9,-33.7,-206.7,1023,2018,5,11,13,45,51.874,0.685,0.3224,0.3673,-0.5402
-0.068,-0.163,-0.341,96.8,-62.6,-249.6,0,2018,5,11,13,45,51.911,0.7161,0.3209,0.3485,-0.5125
-0.402,1.226,0.416,75.5,65.1,-214.2,0,2018,5,11,13,45,51.932,0.7418,0.3274,0.3232,-0.4877
-0.262,2.938,0.592,15.1,87.6,-104.3,0,2018,5,11,13,45,51.937,0.753,0.3443,0.3001,-0.4736
0.142,2.822,0.471,-41.2,34.4,49.3,0,2018,5,11,13,45,51.955,0.7507,0.3544,0.2961,-0.4722
