ax,ay,az,dpitch,droll,dyaw,heart,time_1,time_2,time_3,time_4,time_5,time_6,w,x,y,z
-0.037,-0.02,-0.254,92.7,11.7,37,1023,2018,4,25,16,20,8.238,0.8283,-0.1504,0.5378,-0.0435
-0.142,-0.114,-0.03,108.5,8,33.8,1023,2018,4,25,16,20,8.256,0.8378,-0.1528,0.5219,-0.0471
-0.252,-0.214,0.131,108.8,-26.6,23.7,1023,2018,4,25,16,20,8.278,0.8472,-0.1576,0.505,-0.0476
-0.293,-0.427,0.18,94,-26.3,5.6,1023,2018,4,25,16,20,8.296,0.855,-0.1646,0.4896,-0.0441
-0.104,-0.884,0.965,45.1,-69.3,-18,1023,2018,4,25,16,20,8.335,0.8587,-0.1747,0.4805,-0.0343
-0.381,-0.201,1.411,-6.9,118.9,-33.7,1023,2018,4,25,16,20,8.356,0.8616,-0.1664,0.4781,-0.0339
-0.319,0.18,0.922,-70.3,38.4,-39.5,1023,2018,4,25,16,20,8.36,0.8608,-0.1499,0.4849,-0.0363
-0.294,-0.063,0.341,-106.5,-7.7,-39.9,1023,2018,4,25,16,20,8.379,0.8532,-0.1454,0.4997,-0.0333
-0.123,-0.166,-0.158,-114.8,-9,-43.7,1023,2018,4,25,16,20,8.415,0.8432,-0.1422,0.5175,-0.0291
-0.096,-0.236,-0.588,-100,-17.9,-47.1,1023,2018,4,25,16,20,8.436,0.833,-0.14,0.5346,-0.0237
0.059,-0.098,-0.58,-73.8,35.7,-51.5,1023,2018,4,25,16,20,8.44,0.8252,-0.1339,0.5483,-0.0192
0.141,0.187,-0.49,-48.2,84.3,-42,0,2018,4,25,16,20,8.457,0.8208,-0.1203,0.5579,-0.0196
0.173,0.239,-0.666,-18.4,139.5,-29.1,0,2018,4,25,16,20,8.495,0.8199,-0.1006,0.5628,-0.0261
0.261,0.611,-0.589,14.2,163.7,-9.3,0,2018,4,25,16,20,8.517,0.8223,-0.0757,0.5624,-0.0392
0.216,0.745,-0.553,42.9,90.8,10.4,0,2018,4,25,16,20,8.521,0.8268,-0.0573,0.5571,-0.0519
0.149,0.606,-0.487,63,14.8,25.7,0,2018,4,25,16,20,8.539,0.8323,-0.0527,0.5486,-0.0587
0.049,0.264,-0.284,76.7,-29.2,33.1,0,2018,4,25,16,20,8.56,0.8385,-0.0579,0.5381,-0.0615
-0.06,0,-0.156,83.4,-44.1,31.5,0,2018,4,25,16,20,8.578,0.8451,-0.0675,0.5266,-0.0618
-0.135,-0.225,-0.157,87.1,-51.1,22.5,0,2018,4,25,16,20,8.599,0.8517,-0.0782,0.5144,-0.0605
-0.201,-0.536,-0.153,90,-49.3,4.8,0,2018,4,25,16,20,8.638,0.8587,-0.088,0.5014,-0.0567
-0.353,-0.54,0.245,73.6,-71.4,-26.2,0,2018,4,25,16,20,8.658,0.8654,-0.0955,0.4893,-0.0496
-0.381,-1.155,1.031,38.3,-40.3,-42.9,0,2018,4,25,16,20,8.662,0.8687,-0.1058,0.4825,-0.0355
-0.411,-0.325,1.197,-5,58.9,-62.7,0,2018,4,25,16,20,8.678,0.8711,-0.0962,0.4805,-0.0304
-0.333,-0.184,0.599,-46.1,20.1,-65.9,0,2018,4,25,16,20,8.697,0.8696,-0.085,0.4856,-0.0239
-0.219,-0.033,0.292,-66.4,-19.3,-64.2,0,2018,4,25,16,20,8.72,0.8649,-0.0795,0.4953,-0.0146
0.177,-0.052,-0.074,-63,-6.3,-55.3,0,2018,4,25,16,20,8.738,0.859,-0.0765,0.5061,-0.0053
0.473,0.317,-0.413,-37.3,43,-42.6,0,2018,4,25,16,20,8.761,0.8547,-0.0691,0.5144,-0.0004
0.542,0.79,-0.527,-12.7,88,-21.2,0,2018,4,25,16,20,8.799,0.8532,-0.0564,0.5183,-0.0018
0.493,0.962,-0.276,6.6,120.3,7.5,0,2018,4,25,16,20,8.82,0.8539,-0.0396,0.5186,-0.0108
0.228,1.006,-0.142,13.9,72.5,30.1,1023,2018,4,25,16,20,8.823,0.8555,-0.0263,0.5165,-0.0229
0.123,0.669,-0.285,16.4,7.6,44.8,1023,2018,4,25,16,20,8.842,0.8569,-0.0244,0.5138,-0.0318
0.028,0.341,-0.376,20.3,-32.6,54.2,1023,2018,4,25,16,20,8.88,0.8581,-0.0313,0.5109,-0.0379
-0.139,-0.026,-0.302,26.1,-37.7,58.2,1023,2018,4,25,16,20,8.9,0.8596,-0.0421,0.5073,-0.0429
-0.293,-0.395,-0.136,35.6,-28.8,52.9,1023,2018,4,25,16,20,8.904,0.8616,-0.0525,0.5025,-0.0481
-0.374,-0.607,-0.12,44.6,-19.8,34.8,1023,2018,4,25,16,20,8.92,0.8645,-0.0602,0.4961,-0.0524
-0.357,-0.618,-0.233,55.8,-29,11.1,1023,2018,4,25,16,20,8.957,0.8684,-0.066,0.4885,-0.0532
-0.431,-0.593,-0.136,55.6,-35.4,-10.7,1023,2018,4,25,16,20,8.978,0.8728,-0.0719,0.48,-0.0494
-0.32,-0.618,0.601,25.7,-73.5,-36.5,1023,2018,4,25,16,20,8.982,0.8758,-0.0796,0.4744,-0.0393
-0.494,-0.208,1.123,-18,57.5,-44.2,1023,2018,4,25,16,20,9.002,0.8763,-0.0765,0.4742,-0.0339
-0.366,0.017,0.68,-73.6,-1.6,-53,1023,2018,4,25,16,20,9.023,0.873,-0.067,0.4821,-0.0293
-0.153,0.238,0.198,-96.9,-41.2,-48.2,0,2018,4,25,16,20,9.044,0.8653,-0.0663,0.4963,-0.0202
0.242,0.188,-0.141,-86,-45,-39.9,0,2018,4,25,16,20,9.065,0.8566,-0.0695,0.511,-0.0102
0.572,0.292,-0.473,-58.6,-4.7,-34,0,2018,4,25,16,20,9.082,0.8499,-0.0694,0.5222,-0.0037
0.653,0.532,-0.321,-43.4,55.6,-24.5,0,2018,4,25,16,20,9.123,0.8455,-0.0632,0.53,-0.0019
0.531,0.987,0.106,-37.5,102.2,-2.8,0,2018,4,25,16,20,9.143,0.8427,-0.0489,0.5359,-0.0086
0.337,0.995,-0.027,-39.4,28.4,17.9,0,2018,4,25,16,20,9.147,0.8397,-0.0393,0.5413,-0.0166
0.236,0.501,-0.316,-32.7,-33.7,37.9,0,2018,4,25,16,20,9.161,0.8359,-0.0434,0.5466,-0.0201
0.128,0.184,-0.368,-14.7,-36.2,55.4,0,2018,4,25,16,20,9.18,0.8332,-0.0533,0.5498,-0.0236
-0.065,-0.038,-0.415,5.3,-30.2,67,0,2018,4,25,16,20,9.204,0.8321,-0.064,0.5499,-0.0296
-0.225,-0.325,-0.353,27.4,-34.3,62.1,0,2018,4,25,16,20,9.239,0.833,-0.0749,0.5469,-0.0359
-0.285,-0.545,-0.437,54.9,-38.1,49.9,0,2018,4,25,16,20,9.259,0.8359,-0.0861,0.5404,-0.0398
-0.321,-0.767,-0.437,81,-36,22.3,0,2018,4,25,16,20,9.263,0.8415,-0.0954,0.53,-0.0407
-0.363,-0.667,-0.135,92.9,-28.6,-2.4,0,2018,4,25,16,20,9.303,0.849,-0.1018,0.5171,-0.0374
-0.354,-0.519,-0.08,94.7,-14.7,-24.6,0,2018,4,25,16,20,9.323,0.8571,-0.1041,0.5033,-0.0317
-0.281,-0.486,0.81,52.7,12.8,-45.3,0,2018,4,25,16,20,9.327,0.8637,-0.1023,0.4929,-0.0239
-0.803,0.425,1.876,-27.1,61.2,-36.2,0,2018,4,25,16,20,9.346,0.8658,-0.0904,0.4915,-0.0229
-0.358,0.307,0.536,-83.1,48.1,-34,0,2018,4,25,16,20,9.365,0.8615,-0.0789,0.501,-0.0228
0.149,0.148,-0.255,-89.8,8.3,-16,0,2018,4,25,16,20,9.384,0.8539,-0.0726,0.5147,-0.0223
0.351,0.148,-0.308,-72.7,0.9,-2.1,0,2018,4,25,16,20,9.403,0.8465,-0.0708,0.527,-0.0227
0.425,0.515,0.004,-58.9,53,6.7,0,2018,4,25,16,20,9.442,0.841,-0.0664,0.5362,-0.0266
0.357,0.857,0.262,-76.4,25.4,19.3,1023,2018,4,25,16,20,9.464,0.8351,-0.0608,0.5455,-0.0332
0.458,0.741,0.323,-91.9,-18,33.3,1023,2018,4,25,16,20,9.468,0.8269,-0.0623,0.5575,-0.0386
0.231,0.272,-0.031,-91.6,-21.5,47.1,1023,2018,4,25,16,20,9.484,0.817,-0.0698,0.5707,-0.0428
0.281,0.059,-0.487,-66.5,14.9,53.6,1023,2018,4,25,16,20,9.502,0.8085,-0.0743,0.5815,-0.0509
0.287,0.15,-0.577,-30.5,13.4,58.7,1023,2018,4,25,16,20,9.528,0.8033,-0.0772,0.5873,-0.0612
0.192,0.137,-0.518,1.7,-16.7,64.2,1023,2018,4,25,16,20,9.547,0.8012,-0.0836,0.5883,-0.0699
0.064,-0.021,-0.462,26.2,-37,64.1,1023,2018,4,25,16,20,9.569,0.8014,-0.0945,0.5856,-0.0757
0.002,-0.216,-0.503,50.2,-36.6,54.8,1023,2018,4,25,16,20,9.589,0.804,-0.1063,0.5795,-0.0797
-0.053,-0.127,-0.405,69.3,-48.9,44.2,1023,2018,4,25,16,20,9.608,0.8085,-0.1177,0.5706,-0.0814
-0.109,-0.141,-0.362,82,-92,30.7,1023,2018,4,25,16,20,9.628,0.8141,-0.1324,0.5599,-0.0783
-0.134,-0.113,-0.203,87.7,-130.2,21.9,1023,2018,4,25,16,20,9.666,0.8191,-0.1523,0.5487,-0.0686
-0.203,-0.347,-0.062,91.1,-123.5,16.1,1023,2018,4,25,16,20,9.686,0.8236,-0.174,0.5367,-0.0564
-0.225,-0.396,-0.013,93.3,-87.8,2.3,0,2018,4,25,16,20,9.69,0.8289,-0.1905,0.5239,-0.0452
-0.221,-0.206,-0.117,89.2,-72.1,-12.5,0,2018,4,25,16,20,9.706,0.8344,-0.2023,0.5114,-0.0339
-0.387,-0.258,0.673,52.9,-151.1,-33.2,0,2018,4,25,16,20,9.744,0.8372,-0.216,0.502,-0.0181
-0.261,-0.22,1.391,6.7,67.6,-33,0,2018,4,25,16,20,9.763,0.8383,-0.2194,0.4989,-0.0087
-0.403,0.117,1.029,-53.1,38.9,-34.3,0,2018,4,25,16,20,9.767,0.8383,-0.2077,0.5039,-0.0094
-0.208,0.136,0.197,-86.6,33.6,-30.5,0,2018,4,25,16,20,9.803,0.833,-0.1997,0.5157,-0.0102
-0.047,-0.259,-0.336,-87.4,48.8,-26,0,2018,4,25,16,20,9.823,0.8263,-0.1913,0.5294,-0.0127
-0.109,-0.033,0,-85,88.2,-12.3,0,2018,4,25,16,20,9.828,0.8203,-0.1801,0.5423,-0.0195
0.013,0.129,-0.075,-80,119.3,-5.7,0,2018,4,25,16,20,9.866,0.8157,-0.1631,0.5539,-0.0308
0.068,0.253,-0.082,-76.3,82.8,5.3,0,2018,4,25,16,20,9.888,0.8109,-0.148,0.5644,-0.043
0.118,0.122,-0.088,-70.2,51.8,14.8,0,2018,4,25,16,20,9.893,0.8051,-0.1393,0.574,-0.0528
0.199,-0.046,-0.21,-58.5,62.8,22,0,2018,4,25,16,20,9.906,0.7996,-0.1331,0.5821,-0.0624
0.252,-0.038,-0.433,-37.8,98.7,27.1,0,2018,4,25,16,20,9.943,0.7963,-0.1239,0.5872,-0.075
0.19,0.129,-0.3,-18.8,142.7,30,0,2018,4,25,16,20,9.964,0.7956,-0.109,0.5885,-0.0926
0.086,0.248,-0.208,-10.5,90.8,26,0,2018,4,25,16,20,9.968,0.7959,-0.0945,0.5878,-0.1094
0.101,0.092,-0.23,-2.6,19,21.4,0,2018,4,25,16,20,10.007,0.7955,-0.0898,0.5874,-0.118
0.067,0.011,-0.389,12.2,-16.4,17.5,0,2018,4,25,16,20,10.027,0.7955,-0.0923,0.5865,-0.1202
0.048,0.029,-0.669,36.3,-33.1,13.2,0,2018,4,25,16,20,10.031,0.7973,-0.0978,0.5834,-0.1195
0.009,-0.16,-0.668,67.9,-43,4.6,0,2018,4,25,16,20,10.051,0.8017,-0.1054,0.5767,-0.1158
-0.051,-0.155,-0.414,93.9,-39.9,-9.8,0,2018,4,25,16,20,10.07,0.8092,-0.1127,0.5659,-0.1095
-0.159,0.154,-0.202,103.2,-75.2,-19.9,1023,2018,4,25,16,20,10.09,0.8182,-0.1205,0.553,-0.1002
-0.164,-0.069,-0.235,108.3,-122.2,-25.3,1023,2018,4,25,16,20,10.11,0.8263,-0.1351,0.5401,-0.0845
-0.198,-0.321,-0.172,120.2,-87.9,-33.1,1023,2018,4,25,16,20,10.128,0.8346,-0.1499,0.5256,-0.0672
-0.207,-0.238,0.183,119.6,-27.4,-43.2,1023,2018,4,25,16,20,10.149,0.8445,-0.1556,0.5095,-0.0534
-0.306,-0.197,0.544,93,12.3,-54.1,1023,2018,4,25,16,20,10.189,0.8541,-0.1534,0.495,-0.0426
-0.332,0.246,1.633,25,48.6,-42.6,1023,2018,4,25,16,20,10.193,0.86,-0.1447,0.4877,-0.0366
-0.41,0.403,1.278,-46.7,12,-24.2,1023,2018,4,25,16,20,10.209,0.8599,-0.1371,0.4904,-0.0347
-0.271,-0.069,0.454,-95.2,33.9,-14.2,1023,2018,4,25,16,20,10.231,0.8539,-0.1321,0.502,-0.0354
-0.065,0.198,0.202,-114.1,20.8,3.7,1023,2018,4,25,16,20,10.253,0.8453,-0.1258,0.5175,-0.0396
-0.083,0.024,0.174,-125.3,48.5,17.6,1023,2018,4,25,16,20,10.27,0.8348,-0.1217,0.5348,-0.0468
-0.079,0.093,-0.185,-121.3,62.9,32.3,1023,2018,4,25,16,20,10.309,0.8238,-0.1144,0.552,-0.0583
-0.064,-0.036,-0.427,-103.9,48,42.4,1023,2018,4,25,16,20,10.33,0.8134,-0.1094,0.5668,-0.0712
0.028,0.063,-0.669,-72.7,56.9,41.9,1023,2018,4,25,16,20,10.335,0.8051,-0.1043,0.5777,-0.0846
0.052,0.111,-0.983,-37.5,-14.7,42.2,0,2018,4,25,16,20,10.355,0.7992,-0.1049,0.5843,-0.0935
0.085,0.001,-1.021,10,-28,37.8,0,2018,4,25,16,20,10.373,0.7966,-0.1129,0.5859,-0.0964
0.081,0.037,-0.761,55.1,-20.7,26.4,0,2018,4,25,16,20,10.412,0.7992,-0.1196,0.5807,-0.0981
0.11,0.118,-0.546,85.5,-48.7,18.8,0,2018,4,25,16,20,10.416,0.8053,-0.1277,0.5707,-0.0963
0.084,0.021,-0.529,108.9,-79.2,13.2,0,2018,4,25,16,20,10.431,0.8132,-0.1403,0.5575,-0.0897
0.048,-0.023,-0.365,128.6,-88.2,8.7,0,2018,4,25,16,20,10.469,0.8223,-0.1554,0.5414,-0.08
-0.07,-0.083,-0.087,138.6,-83.5,3,0,2018,4,25,16,20,10.488,0.8323,-0.1702,0.5229,-0.0689
-0.161,-0.218,0.231,134.2,-72.6,-6.3,0,2018,4,25,16,20,10.492,0.8423,-0.1828,0.5036,-0.0576
-0.186,-0.361,0.341,122.4,-32.5,-16,0,2018,4,25,16,20,10.512,0.8518,-0.1913,0.4853,-0.0468
-0.201,-0.287,1.665,51.1,-48.3,-32.6,0,2018,4,25,16,20,10.533,0.858,-0.1954,0.4735,-0.0361
-0.472,0.518,2.264,-39.9,69.9,-23.9,0,2018,4,25,16,20,10.574,0.8601,-0.1868,0.473,-0.0362
-0.447,-0.283,0.868,-112.9,3,-22.6,0,2018,4,25,16,20,10.579,0.8541,-0.181,0.486,-0.0373
-0.254,-0.239,0.017,-133.2,33.5,-20,0,2018,4,25,16,20,10.592,0.8439,-0.1754,0.5052,-0.0398
-0.062,-0.051,-0.075,-137.7,39.1,-6.7,0,2018,4,25,16,20,10.611,0.8329,-0.1675,0.5254,-0.0451
-0.12,0.19,0.02,-142.4,19,3.1,0,2018,4,25,16,20,10.632,0.8208,-0.1615,0.5453,-0.0518
-0.114,0.026,-0.271,-135.4,32.1,6.2,0,2018,4,25,16,20,10.669,0.8077,-0.1574,0.5651,-0.0587
0.044,0.05,-0.705,-109.8,49.6,4.3,0,2018,4,25,16,20,10.69,0.7964,-0.1505,0.5817,-0.0669
0.098,0.184,-0.99,-72.7,33.1,4.5,0,2018,4,25,16,20,10.694,0.7881,-0.1437,0.5937,-0.0745
0.127,0.192,-1.114,-24.8,-0.1,0.9,0,2018,4,25,16,20,10.714,0.7834,-0.1413,0.6001,-0.0776
0.17,0.245,-0.908,25.6,-4.8,-1.8,0,2018,4,25,16,20,10.753,0.7835,-0.1419,0.5999,-0.0769
0.172,0.264,-0.764,68,-7.3,2.5,1023,2018,4,25,16,20,10.757,0.7885,-0.1433,0.5933,-0.075
0.096,0.308,-0.63,101.4,-25.2,8.1,1023,2018,4,25,16,20,10.774,0.7969,-0.1469,0.5814,-0.0722
-0.005,0.098,-0.309,122.8,-49,13.1,1023,2018,4,25,16,20,10.812,0.8071,-0.1549,0.5656,-0.0668
-0.085,-0.097,-0.039,133.1,-49.9,13.9,1023,2018,4,25,16,20,10.832,0.818,-0.1651,0.5475,-0.0603
-0.13,-0.243,-0.178,145.8,-29.9,10,1023,2018,4,25,16,20,10.836,0.8298,-0.1734,0.5275,-0.0543
-0.29,-0.412,0.283,144,-18.6,-3.5,1023,2018,4,25,16,20,10.875,0.8423,-0.1785,0.5061,-0.0481
-0.476,0.21,1.193,71.8,-95.8,-34.9,1023,2018,4,25,16,20,10.879,0.8517,-0.1824,0.4896,-0.0394
-0.392,-0.387,2.409,-2.1,77.5,-29.5,1023,2018,4,25,16,20,10.895,0.8541,-0.1846,0.4851,-0.0318
-0.567,-0.084,1.136,-89.9,20,-41.3,1023,2018,4,25,16,20,10.915,0.8516,-0.1726,0.4938,-0.0326
-0.258,-0.332,0.192,-122.4,58.3,-42.4,1023,2018,4,25,16,20,10.935,0.8428,-0.1637,0.5116,-0.0325
-0.148,-0.03,-0.028,-131.6,53.4,-28.6,1023,2018,4,25,16,20,10.957,0.8332,-0.1506,0.5307,-0.0366
0.018,0.152,-0.121,-128.4,50,-18.3,1023,2018,4,25,16,20,10.976,0.8222,-0.1403,0.5499,-0.0414
0.13,0.328,-0.287,-115.4,42.9,-8,0,2018,4,25,16,20,10.997,0.8115,-0.1312,0.5673,-0.047
0.16,0.388,-0.53,-95.1,24.8,5,0,2018,4,25,16,20,11.016,0.8018,-0.1252,0.5818,-0.0528
0.276,0.213,-0.658,-67.9,47.2,14.2,0,2018,4,25,16,20,11.054,0.7939,-0.1214,0.5927,-0.059
0.274,0.33,-0.884,-33.3,59.1,19.8,0,2018,4,25,16,20,11.075,0.7897,-0.1146,0.5986,-0.0686
0.251,0.282,-0.924,10,43.3,22.6,0,2018,4,25,16,20,11.08,0.7893,-0.1096,0.5991,-0.0771
0.109,0.372,-0.8,51.6,10.5,26.7,0,2018,4,25,16,20,11.099,0.7928,-0.1089,0.5938,-0.0828
0.078,0.015,-0.64,86.7,-6.2,24.4,0,2018,4,25,16,20,11.119,0.7996,-0.1129,0.5835,-0.0848
-0.029,0.023,-0.421,112.8,-5.8,19.6,0,2018,4,25,16,20,11.136,0.8094,-0.1173,0.5689,-0.0854
-0.144,-0.122,-0.288,129.7,-13.7,11.6,0,2018,4,25,16,20,11.171,0.8209,-0.1222,0.5513,-0.084
-0.253,-0.281,-0.09,135.3,-32.5,-2.1,0,2018,4,25,16,20,11.192,0.833,-0.1278,0.5322,-0.0797
-0.307,-0.52,0.131,132.9,-41.5,-21.2,0,2018,4,25,16,20,11.196,0.8445,-0.1343,0.5133,-0.0712
-0.342,-0.592,0.161,123.9,-27.5,-42.5,0,2018,4,25,16,20,11.236,0.8554,-0.1381,0.4954,-0.0604
-0.385,-0.695,0.227,107.4,-12.7,-71.6,0,2018,4,25,16,20,11.257,0.8656,-0.1368,0.4791,-0.048
-0.34,-1.017,1.595,49.6,31.5,-77.2,0,2018,4,25,16,20,11.261,0.8714,-0.1358,0.4702,-0.0304
-0.729,0.189,1.742,-29.1,60,-89.7,0,2018,4,25,16,20,11.28,0.8745,-0.1166,0.4699,-0.0244
-0.43,-0.163,0.888,-92.3,25.8,-87.9,0,2018,4,25,16,20,11.301,0.8698,-0.1049,0.4818,-0.0142
0.089,0.328,0.004,-111.1,48.4,-68.4,0,2018,4,25,16,20,11.32,0.8617,-0.0916,0.4989,-0.0075
0.273,0.332,-0.268,-101,53.1,-48.7,0,2018,4,25,16,20,11.34,0.8531,-0.0785,0.5157,-0.0051
0.318,0.706,-0.242,-92.9,48.9,-27.9,0,2018,4,25,16,20,11.358,0.8449,-0.0676,0.5305,-0.005
0.423,0.687,-0.161,-87.5,66.4,-11.7,0,2018,4,25,16,20,11.377,0.837,-0.0573,0.544,-0.0086
0.407,0.768,-0.367,-72.7,57.7,12.6,0,2018,4,25,16,20,11.414,0.8298,-0.0479,0.5556,-0.0156
0.326,0.566,-0.573,-46.1,53.3,30.9,0,2018,4,25,16,20,11.435,0.8243,-0.0419,0.5639,-0.0248
0.216,0.377,-0.727,-11,30.8,49.5,1023,2018,4,25,16,20,11.439,0.8216,-0.0397,0.5675,-0.035
0.064,0.136,-0.68,26.9,6.1,59.5,1023,2018,4,25,16,20,11.457,0.8222,-0.0429,0.5656,-0.0445
-0.082,0.001,-0.495,57.9,-6.3,60.8,1023,2018,4,25,16,20,11.497,0.826,-0.0494,0.5589,-0.0528
-0.131,-0.13,-0.463,85,-19.7,53.3,1023,2018,4,25,16,20,11.518,0.8323,-0.0574,0.548,-0.0593
-0.237,-0.32,-0.337,102.9,-39.9,42,1023,2018,4,25,16,20,11.523,0.8404,-0.0676,0.5339,-0.0621
-0.317,-0.467,-0.186,112.4,-38.2,24.9,1023,2018,4,25,16,20,11.542,0.8496,-0.0777,0.5179,-0.062
-0.4,-0.628,-0.041,112.5,-28.7,2.5,1023,2018,4,25,16,20,11.579,0.8589,-0.0854,0.5013,-0.0593
-0.426,-0.667,0.052,106.9,-19,-28,1023,2018,4,25,16,20,11.599,0.8682,-0.0886,0.4851,-0.0539
-0.463,-0.64,0.234,91.9,-27.8,-64,1023,2018,4,25,16,20,11.603,0.8766,-0.0891,0.4708,-0.0431
-0.165,-0.616,0.576,57.8,-26.2,-99.4,1023,2018,4,25,16,20,11.618,0.8824,-0.0879,0.4612,-0.0265
-0.534,0.163,1.34,2.4,55,-94.9,1023,2018,4,25,16,20,11.657,0.8855,-0.076,0.458,-0.014
-0.27,0.247,1.004,-64.8,-3.7,-96.8,1023,2018,4,25,16,20,11.678,0.8833,-0.065,0.4641,-0.0006
0.228,0.435,0.545,-97.4,3.3,-85.7,1023,2018,4,25,16,20,11.682,0.8762,-0.0572,0.4782,0.0122
0.396,0.594,-0.322,-90.6,-0.5,-64.5,0,2018,4,25,16,20,11.7,0.8679,-0.0514,0.4933,0.023
0.391,0.94,-0.394,-72.2,53,-29.2,0,2018,4,25,16,20,11.736,0.8608,-0.0437,0.5062,0.0272
0.428,0.829,-0.335,-53.9,92.7,10.7,0,2018,4,25,16,20,11.757,0.8557,-0.0319,0.5159,0.021
0.253,0.667,-0.227,-33.5,95.1,39.6,0,2018,4,25,16,20,11.762,0.8522,-0.0197,0.5226,0.008
0.163,0.502,-0.376,-10,52.2,68.5,0,2018,4,25,16,20,11.783,0.8505,-0.0136,0.5256,-0.007
0.116,0.187,-0.506,16.2,39.6,87.7,0,2018,4,25,16,20,11.803,0.8507,-0.0152,0.5249,-0.0225
0.018,-0.12,-0.385,47.7,62.1,92.3,0,2018,4,25,16,20,11.823,0.8533,-0.016,0.5195,-0.0406
-0.308,-0.015,-0.051,60.2,65.2,92.3,0,2018,4,25,16,20,11.845,0.8578,-0.0148,0.5101,-0.0607
-0.279,-0.578,-0.163,63.5,20.2,59.5,0,2018,4,25,16,20,11.862,0.8625,-0.0166,0.5,-0.0757
-0.191,-0.769,-0.285,70.7,-7.6,20.6,0,2018,4,25,16,20,11.881,0.8678,-0.02,0.4896,-0.0816
-0.275,-0.512,-0.085,73.7,-18,-9.6,0,2018,4,25,16,20,11.901,0.8738,-0.0235,0.4788,-0.081
-0.283,-0.712,-0.083,73.1,-30.7,-47.2,0,2018,4,25,16,20,11.94,0.8801,-0.0261,0.4681,-0.074
-0.282,-0.686,0.046,68.6,-15.2,-87.6,0,2018,4,25,16,20,11.96,0.8866,-0.0249,0.4575,-0.0614
-0.257,-0.431,0.237,52,-1.6,-119.2,0,2018,4,25,16,20,11.964,0.8923,-0.0189,0.4488,-0.0439
-0.172,-0.206,0.337,32.2,-16.5,-138,0,2018,4,25,16,20,12.002,0.8964,-0.0105,0.4424,-0.0226
-0.155,-0.265,0.376,14.7,38.1,-146.5,0,2018,4,25,16,20,12.022,0.8983,0.0012,0.4393,-0.0008
-0.139,0.202,0.482,-7.6,77.6,-141.2,0,2018,4,25,16,20,12.026,0.8981,0.0226,0.4387,0.0166
0.002,0.594,0.208,-28.5,-0.5,-132.9,0,2018,4,25,16,20,12.046,0.8958,0.0392,0.4411,0.0355
0.115,0.669,0.147,-34.1,-12.6,-104.1,0,2018,4,25,16,20,12.065,0.8925,0.0459,0.4451,0.0555
0.119,0.734,0.125,-36.3,31.4,-67.4,0,2018,4,25,16,20,12.084,0.8888,0.0535,0.4499,0.0683
0.073,0.731,0.115,-38.4,77.5,-29,0,2018,4,25,16,20,12.103,0.8846,0.0657,0.456,0.0715
0.043,0.741,-0.033,-38.6,85.9,9.8,0,2018,4,25,16,20,12.123,0.8803,0.0791,0.4629,0.0664
0.079,0.458,-0.14,-30.8,99.7,46,1023,2018,4,25,16,20,12.143,0.8764,0.0899,0.4698,0.0552
0.057,0.231,-0.239,-13.4,160.5,74.3,1023,2018,4,25,16,20,12.161,0.8728,0.1044,0.4753,0.0356
0.003,0.162,-0.3,11.9,212.9,95,1023,2018,4,25,16,20,12.202,0.8693,0.1264,0.4777,0.0064
-0.111,0.193,-0.155,28.1,180.8,98.2,1023,2018,4,25,16,20,12.223,0.8658,0.1494,0.4768,-0.0261
-0.013,-0.146,-0.21,38.8,71.9,82.9,1023,2018,4,25,16,20,12.227,0.8645,0.1608,0.4732,-0.0513
-0.026,-0.507,-0.321,45.5,-28,55.6,1023,2018,4,25,16,20,12.246,0.8669,0.1568,0.4687,-0.0641
-0.059,-0.828,-0.464,61.9,-68,14.1,1023,2018,4,25,16,20,12.265,0.8722,0.1455,0.462,-0.0666
-0.104,-0.64,-0.358,81.4,-84.1,-31.6,1023,2018,4,25,16,20,12.304,0.8799,0.134,0.4515,-0.0607
-0.147,-0.366,-0.109,84.1,-140.1,-70.5,1023,2018,4,25,16,20,12.326,0.8896,0.1198,0.4383,-0.0455
-0.272,-0.577,0.35,67,-156.2,-94.9,1023,2018,4,25,16,20,12.331,0.899,0.1015,0.4254,-0.0221
-0.391,-0.282,0.861,34.9,-33.2,-110,1023,2018,4,25,16,20,12.347,0.9045,0.0951,0.4155,-0.0001
-0.492,0.542,0.799,-18.2,-113.6,-113.7,1023,2018,4,25,16,20,12.364,0.9058,0.0936,0.4124,0.0222
-0.164,0.175,0.216,-45.4,-171.6,-103.4,1023,2018,4,25,16,20,12.402,0.9049,0.0764,0.4153,0.0515
-0.073,0.32,0.104,-53.3,-100.2,-76,1023,2018,4,25,16,20,12.423,0.9019,0.0595,0.4205,0.0771
-0.058,0.618,0.371,-65.8,43.1,-30.1,1023,2018,4,25,16,20,12.427,0.8971,0.0589,0.4289,0.0874
-0.041,0.697,0.339,-84.4,124,13.1,0,2018,4,25,16,20,12.447,0.8901,0.0727,0.4421,0.0824
0.032,0.877,0.106,-92.7,110.8,54.3,0,2018,4,25,16,20,12.468,0.8817,0.0882,0.4582,0.0685
0.124,0.742,-0.166,-84.8,48.7,90.9,0,2018,4,25,16,20,12.486,0.8739,0.0933,0.4741,0.0521
0.116,0.438,-0.307,-67.7,12.4,117.3,0,2018,4,25,16,20,12.527,0.8679,0.0878,0.4875,0.0352
0.061,0.142,-0.39,-45.1,12,131.2,0,2018,4,25,16,20,12.546,0.8634,0.0781,0.498,0.0162
0.014,0.024,-0.405,-16.3,22.5,138.1,0,2018,4,25,16,20,12.55,0.8608,0.069,0.5041,-0.0053
-0.092,-0.235,-0.412,10,38.7,134.6,0,2018,4,25,16,20,12.569,0.8597,0.0616,0.506,-0.0287
-0.162,-0.236,-0.448,33,-10.7,115.1,0,2018,4,25,16,20,12.589,0.8607,0.0532,0.5038,-0.0494
-0.154,-0.688,-0.574,56.6,-75.1,82.9,0,2018,4,25,16,20,12.61,0.864,0.0368,0.4983,-0.0604
-0.226,-0.718,-0.32,72.6,-102.4,41.9,0,2018,4,25,16,20,12.627,0.8695,0.0169,0.4896,-0.0622
-0.216,-0.741,-0.097,76,-111.1,-1.2,0,2018,4,25,16,20,12.663,0.8758,-0.0018,0.4793,-0.0561
-0.136,-0.79,-0.12,75.2,-99.3,-45.1,0,2018,4,25,16,20,12.685,0.882,-0.017,0.4688,-0.0433
-0.302,-0.705,0.029,61.8,-82.4,-92.7,0,2018,4,25,16,20,12.689,0.888,-0.0257,0.4584,-0.0251
-0.097,-0.596,0.899,40.3,-13.6,-116.5,0,2018,4,25,16,20,12.709,0.8923,-0.0255,0.4506,-0.0031
-0.341,0.292,1.326,-15.1,-1,-131.4,0,2018,4,25,16,20,12.729,0.8932,-0.0137,0.4491,0.0146
-0.124,0.227,0.757,-69.4,-61,-128.7,0,2018,4,25,16,20,12.768,0.8886,-0.0108,0.4567,0.0385
0.129,0.403,0.02,-76.6,-48.6,-114.5,0,2018,4,25,16,20,12.787,0.8814,-0.0099,0.4681,0.0612
0.171,0.523,-0.112,-75.1,-30.2,-90.5,0,2018,4,25,16,20,12.792,0.8737,-0.0092,0.4795,0.0809
0.152,0.827,0.055,-68.2,41.5,-42.2,0,2018,4,25,16,20,12.806,0.8667,-0.0041,0.4904,0.0904
0.103,1.022,-0.005,-63.7,91.7,4,0,2018,4,25,16,20,12.843,0.8607,0.0081,0.5015,0.0863
0.072,0.964,-0.186,-55,54.2,47.4,1023,2018,4,25,16,20,12.863,0.8556,0.016,0.5116,0.0758
0.027,0.8,-0.388,-39.9,14.8,86.8,1023,2018,4,25,16,20,12.867,0.8521,0.0141,0.5192,0.0628
-0.038,0.55,-0.482,-20.2,1.2,119.2,1023,2018,4,25,16,20,12.888,0.8504,0.0052,0.5239,0.0468
-0.138,0.289,-0.524,2.2,-3.6,140,1023,2018,4,25,16,20,12.908,0.8504,-0.0071,0.5252,0.0275
-0.238,0.257,-0.386,21.7,-28.3,149.4,1023,2018,4,25,16,20,12.943,0.8521,-0.0225,0.5228,0.0072
-0.378,0.072,-0.281,29.8,-81.3,150.9,1023,2018,4,25,16,20,12.962,0.8541,-0.0443,0.518,-0.0101
-0.445,-0.427,-0.257,35.6,-127.9,141.2,1023,2018,4,25,16,20,12.971,0.8554,-0.0737,0.5121,-0.0222
-0.439,-0.553,-0.211,38.7,-166.3,114.5,1023,2018,4,25,16,20,13.009,0.8558,-0.1075,0.5052,-0.0275
-0.355,-0.965,-0.201,40.8,-170.8,80.1,1023,2018,4,25,16,20,13.029,0.8549,-0.1424,0.498,-0.0259
-0.262,-1.114,-0.182,48.9,-110.1,33.9,1023,2018,4,25,16,20,13.033,0.8548,-0.1686,0.4903,-0.0209
-0.356,-1.314,0.368,25.1,-76.2,-26.4,1023,2018,4,25,16,20,13.072,0.8553,-0.1825,0.4845,-0.0123
-0.327,-0.721,1.187,-16.3,-41.5,-55.6,1023,2018,4,25,16,20,13.091,0.8541,-0.1873,0.485,-0.0005
-0.203,-0.386,1.101,-69.9,-19.9,-90.4,0,2018,4,25,16,20,13.095,0.8495,-0.1846,0.494,0.0107
-0.032,-0.025,0.581,-108.5,-13.5,-100.4,0,2018,4,25,16,20,13.108,0.8404,-0.179,0.5108,0.0236
0.265,0.286,0.037,-117.7,-4.3,-97.4,0,2018,4,25,16,20,13.147,0.8292,-0.1717,0.5306,0.0353
0.386,0.501,-0.2,-104.4,14.2,-78.2,0,2018,4,25,16,20,13.167,0.818,-0.1642,0.5493,0.0447
0.461,0.877,-0.31,-84.7,81.6,-49.3,0,2018,4,25,16,20,13.171,0.8097,-0.1517,0.5648,0.0463
0.466,1.081,-0.526,-64.9,108.1,-13.9,0,2018,4,25,16,20,13.209,0.8045,-0.1352,0.5769,0.0388
0.369,1.231,-0.668,-37.5,76.2,23.4,0,2018,4,25,16,20,13.231,0.8016,-0.1224,0.5845,0.0271
0.242,0.926,-0.766,-6,8.7,59.2,0,2018,4,25,16,20,13.235,0.8005,-0.1214,0.5866,0.0166
0.064,0.621,-0.714,26.8,-34.8,89.5,0,2018,4,25,16,20,13.272,0.8015,-0.1313,0.5833,0.0078
-0.158,0.388,-0.54,52.2,-74.1,112.9,0,2018,4,25,16,20,13.274,0.8042,-0.1496,0.5751,0.0001
-0.242,0.002,-0.48,80.8,-72.5,124.8,0,2018,4,25,16,20,13.31,0.8087,-0.1721,0.5624,-0.0073
-0.417,-0.337,-0.302,103,-85.4,121.6,0,2018,4,25,16,20,13.331,0.815,-0.1953,0.5453,-0.0145
-0.532,-0.654,-0.092,109.7,-124.7,105,0,2018,4,25,16,20,13.333,0.8208,-0.2214,0.5261,-0.0169
-0.556,-1.036,0.043,107.1,-123.1,76.7,0,2018,4,25,16,20,13.35,0.8251,-0.2485,0.5071,-0.0139
-0.631,-1.186,0.3,89.7,-87.6,28.8,0,2018,4,25,16,20,13.39,0.8293,-0.2678,0.4903,-0.0082
-0.604,-1.328,1.214,31.7,-47.9,-25.4,0,2018,4,25,16,20,13.409,0.8307,-0.2782,0.4822,0.0004
-0.439,-1.005,1.25,-29.5,2.9,-45.2,0,2018,4,25,16,20,13.413,0.8278,-0.2822,0.4846,0.0103
-0.434,-0.213,0.877,-79.9,108,-55.5,0,2018,4,25,16,20,13.453,0.8265,-0.2667,0.4954,0.0088
-0.257,-0.027,0.282,-119.3,59.1,-57.3,0,2018,4,25,16,20,13.472,0.8214,-0.249,0.5129,0.0044
0.11,0.172,-0.193,-126.4,23.6,-50.4,0,2018,4,25,16,20,13.476,0.8115,-0.2389,0.5331,0.0035
0.42,0.252,-0.409,-111.4,35.9,-45.9,0,2018,4,25,16,20,13.51,0.8013,-0.2307,0.5519,0.0029
0.53,0.45,-0.364,-89.3,95.4,-33.5,0,2018,4,25,16,20,13.53,0.794,-0.2179,0.5674,-0.0016
0.596,0.786,-0.539,-60.5,149.2,-9.2,1023,2018,4,25,16,20,13.533,0.7911,-0.198,0.5784,-0.0142
0.589,1.05,-0.71,-28.7,109.9,10.3,1023,2018,4,25,16,20,13.551,0.7912,-0.1789,0.5839,-0.03
0.487,0.783,-0.855,5,16.2,27.5,1023,2018,4,25,16,20,13.572,0.7917,-0.1729,0.5845,-0.0389
0.26,0.512,-0.716,38.6,-27.3,41.4,1023,2018,4,25,16,20,13.592,0.7935,-0.178,0.5803,-0.042
-0.017,0.37,-0.404,65,-19,55.7,1023,2018,4,25,16,20,13.612,0.7977,-0.1869,0.5715,-0.0445
-0.192,-0.008,-0.317,87.2,-10.4,61.4,1023,2018,4,25,16,20,13.653,0.8044,-0.1954,0.5588,-0.0489
-0.281,-0.193,-0.329,106.1,-19.8,57.3,1023,2018,4,25,16,20,13.673,0.8129,-0.2036,0.5429,-0.0528
-0.433,-0.465,0.071,108.7,-41.8,45.1,1023,2018,4,25,16,20,13.677,0.8214,-0.2143,0.5257,-0.0531
-0.519,-0.643,0.376,91.4,-67.5,20.7,1023,2018,4,25,16,20,13.695,0.8281,-0.2262,0.5105,-0.0489
-0.512,-0.69,0.396,65.6,-68.5,-7.7,1023,2018,4,25,16,20,13.717,0.8321,-0.2375,0.4995,-0.0404
-0.475,-0.58,0.377,36.1,-62.2,-31.5,1023,2018,4,25,16,20,13.754,0.8337,-0.2456,0.4935,-0.0294
-0.439,-0.378,0.622,1.2,-59.9,-43.5,1023,2018,4,25,16,20,13.776,0.833,-0.2511,0.4925,-0.0178
-0.393,-0.232,0.806,-32.7,-16.2,-41.5,1023,2018,4,25,16,20,13.78,0.8299,-0.2532,0.4968,-0.0086
-0.363,-0.133,0.752,-71.1,27.5,-39.5,1023,2018,4,25,16,20,13.799,0.8257,-0.2484,0.5062,-0.0058
-0.224,0.025,0.537,-100.9,56.6,-28.1,0,2018,4,25,16,20,13.818,0.8198,-0.2388,0.5203,-0.0087
0.182,0.03,0.063,-106.1,71.3,-16.5,0,2018,4,25,16,20,13.84,0.8127,-0.2272,0.5361,-0.0158
0.487,0.235,-0.294,-98,73.4,-8.2,0,2018,4,25,16,20,13.859,0.8057,-0.2153,0.5511,-0.0249
0.603,0.393,-0.406,-81.6,84.9,-1.6,0,2018,4,25,16,20,13.876,0.8,-0.2033,0.5633,-0.0353
0.69,0.498,-0.403,-61.4,91.9,4.3,0,2018,4,25,16,20,13.912,0.7959,-0.1905,0.5726,-0.0468
0.62,0.568,-0.508,-38,67.3,4,0,2018,4,25,16,20,13.933,0.7936,-0.1791,0.5785,-0.0575
0.545,0.442,-0.739,-9.8,13.9,-2.1,0,2018,4,25,16,20,13.937,0.7924,-0.1733,0.5814,-0.0624
0.306,0.4,-0.746,25,-26.6,-1.3,0,2018,4,25,16,20,13.973,0.793,-0.1743,0.5804,-0.061
0.056,0.075,-0.493,55.5,-50.8,-1.2,0,2018,4,25,16,20,13.992,0.7959,-0.1805,0.5752,-0.0553
-0.064,-0.188,-0.381,83.5,-41.2,-4.1,0,2018,4,25,16,20,14,0.8013,-0.1878,0.5658,-0.0478
-0.152,-0.182,-0.273,104.3,-22.5,-9,0,2018,4,25,16,20,14.038,0.8097,-0.192,0.5529,-0.0407
-0.305,-0.22,-0.123,113.9,-21.3,-13.9,0,2018,4,25,16,20,14.057,0.8196,-0.1945,0.5377,-0.0334
-0.478,-0.389,0.031,109.7,-32.8,-23.6,0,2018,4,25,16,20,14.061,0.8292,-0.1973,0.5223,-0.0244
-0.529,-0.491,0.162,98.3,-31,-38.1,0,2018,4,25,16,20,14.077,0.8375,-0.1997,0.5083,-0.0133
-0.722,-0.506,0.372,64.4,-29.7,-54.4,0,2018,4,25,16,20,14.098,0.8439,-0.2002,0.4975,-0.0009
-0.722,-0.11,1.076,24.7,22.5,-42.6,0,2018,4,25,16,20,14.118,0.8476,-0.197,0.4925,0.0091
-0.665,-0.005,0.903,-34.4,2,-42.3,0,2018,4,25,16,20,14.156,0.8478,-0.1899,0.4948,0.0131
-0.543,-0.281,0.543,-73.9,13.7,-37,0,2018,4,25,16,20,14.176,0.8427,-0.1865,0.5047,0.0168
-0.288,-0.195,0.172,-90.2,41.1,-28.7,0,2018,4,25,16,20,14.181,0.836,-0.1793,0.5181,0.0163
-0.052,-0.169,0.047,-92.9,84.5,-17.1,0,2018,4,25,16,20,14.201,0.8294,-0.1686,0.5323,0.0111
0.145,0.065,0.036,-93.3,116.4,-10.3,0,2018,4,25,16,20,14.221,0.8238,-0.1523,0.5459,0.0005
0.568,0.48,-0.414,-81.9,117.7,1.3,1023,2018,4,25,16,20,14.242,0.8181,-0.1347,0.5588,-0.0122
0.842,0.475,-0.752,-48.9,129.4,6.2,1023,2018,4,25,16,20,14.261,0.8144,-0.1175,0.5675,-0.0266
0.647,0.804,-0.26,-29.3,104.2,7.9,1023,2018,4,25,16,20,14.3,0.8131,-0.1003,0.5719,-0.0406
0.448,0.745,-0.101,-28.3,12.7,12.4,1023,2018,4,25,16,20,14.304,0.8111,-0.0931,0.5753,-0.0483
0.319,0.306,-0.371,-21,-31.9,12.1,1023,2018,4,25,16,20,14.32,0.8081,-0.0966,0.5789,-0.0487
0.187,0.117,-0.521,-2.8,-22.4,9.3,1023,2018,4,25,16,20,14.339,0.8063,-0.1013,0.5807,-0.0476
0.054,0.082,-0.47,18.9,-18.3,12.9,1023,2018,4,25,16,20,14.359,0.8068,-0.1054,0.5794,-0.0468
-0.165,0.16,-0.124,34.2,-1.9,19.6,1023,2018,4,25,16,20,14.381,0.8092,-0.1086,0.5752,-0.0478
-0.271,-0.091,-0.21,47.4,-14.2,19.3,1023,2018,4,25,16,20,14.4,0.813,-0.1118,0.5692,-0.0489
-0.196,-0.195,-0.426,68,-22.6,16.5,1023,2018,4,25,16,20,14.437,0.8182,-0.1168,0.5607,-0.0483
-0.243,-0.152,-0.183,83.1,-19.4,16.4,1023,2018,4,25,16,20,14.456,0.8251,-0.1221,0.5495,-0.0471
-0.32,-0.206,0.031,85.2,-30.9,12.9,1023,2018,4,25,16,20,14.461,0.8325,-0.1277,0.5371,-0.0451
-0.353,-0.342,0.089,79.6,-47.6,5.6,1023,2018,4,25,16,20,14.484,0.8391,-0.1351,0.5252,-0.0409
-0.295,-0.455,0.071,69.7,-64.1,-8.6,0,2018,4,25,16,20,14.504,0.8445,-0.1439,0.5147,-0.0337
-0.271,-0.463,0.355,45.2,-60.7,-29,0,2018,4,25,16,20,14.542,0.8483,-0.1515,0.5067,-0.024
-0.37,-0.468,1.209,9.5,30.3,-33.2,0,2018,4,25,16,20,14.562,0.8499,-0.1532,0.5038,-0.0157
-0.295,-0.268,1.042,-44.2,28,-52.4,0,2018,4,25,16,20,14.567,0.8492,-0.1446,0.5076,-0.0121
-0.178,0.359,0.79,-90.5,38.4,-48.5,0,2018,4,25,16,20,14.581,0.844,-0.1336,0.5192,-0.0102
0.174,0.423,0.145,-106.1,-7.6,-37.3,0,2018,4,25,16,20,14.601,0.8351,-0.1275,0.535,-0.0074
0.416,0.16,-0.288,-99.4,-34.1,-36.5,0,2018,4,25,16,20,14.622,0.8246,-0.1282,0.5509,-0.0019
0.411,0.211,-0.249,-81.3,22.2,-37.7,0,2018,4,25,16,20,14.641,0.8155,-0.1259,0.5647,0.0024
0.346,0.359,-0.197,-67.2,81.6,-27.4,0,2018,4,25,16,20,14.66,0.8095,-0.1145,0.5757,-0.0002
0.197,0.434,-0.308,-59.8,113,-17.4,0,2018,4,25,16,20,14.698,0.8049,-0.0984,0.5851,-0.0081
0.219,0.42,-0.461,-43.9,138.7,-0.9,0,2018,4,25,16,20,14.718,0.8014,-0.0792,0.5923,-0.0209
0.206,0.402,-0.645,-13.7,129.2,18.2,0,2018,4,25,16,20,14.722,0.8001,-0.0609,0.5955,-0.0367
0.155,0.305,-0.801,25,91.5,33.4,0,2018,4,25,16,20,14.759,0.8016,-0.0483,0.5935,-0.0518
0.003,0.308,-0.488,56,57.5,40.9,0,2018,4,25,16,20,14.781,0.8061,-0.0423,0.5866,-0.0644
-0.126,0.037,-0.245,76.6,25.6,35.7,0,2018,4,25,16,20,14.785,0.8128,-0.0413,0.5763,-0.0735
-0.166,-0.022,-0.236,88.9,-34.6,27.4,0,2018,4,25,16,20,14.803,0.8207,-0.0462,0.5642,-0.0769
-0.213,-0.155,-0.256,94.6,-61.1,21.7,0,2018,4,25,16,20,14.823,0.8288,-0.0575,0.5515,-0.0743
-0.303,-0.152,0.017,91.7,-66.6,13.2,0,2018,4,25,16,20,14.844,0.8368,-0.0696,0.5384,-0.0698
-0.365,-0.194,-0.037,84.4,-103.5,3.1,0,2018,4,25,16,20,14.881,0.8438,-0.0836,0.5263,-0.062
-0.443,-0.409,-0.053,77.1,-102.9,-9.5,0,2018,4,25,16,20,14.902,0.8494,-0.0997,0.5156,-0.0507
-0.45,-0.643,0.009,70,-82.8,-26.7,0,2018,4,25,16,20,14.907,0.8543,-0.113,0.5058,-0.038
-0.403,-0.459,0.349,42.7,-48.7,-42.1,1023,2018,4,25,16,20,14.925,0.8582,-0.1199,0.4983,-0.0258
-0.518,0.16,0.966,2.5,10.5,-40.3,1023,2018,4,25,16,20,14.943,0.8603,-0.1172,0.4957,-0.019
-0.422,-0.112,0.658,-46.4,-44.5,-39.1,1023,2018,4,25,16,20,14.967,0.8578,-0.1173,0.5002,-0.0112
-0.366,-0.029,0.356,-74.7,-26.9,-32.4,1023,2018,4,25,16,20,14.985,0.8515,-0.1193,0.5105,-0.0041
-0.063,0.004,0.006,-78.1,-7.9,-22.8,1023,2018,4,25,16,20,15.006,0.8442,-0.1193,0.5224,-0.0002
0.168,0.042,-0.177,-68.5,-5.4,-10.5,1023,2018,4,25,16,20,15.027,0.8371,-0.1193,0.5338,0.0015
0.458,0.14,-0.189,-50.5,38.8,-8.3,1023,2018,4,25,16,20,15.042,0.8319,-0.1158,0.5426,0
0.517,0.319,-0.069,-35.1,68.9,-2.8,1023,2018,4,25,16,20,15.081,0.829,-0.107,0.5488,-0.0054
0.605,0.484,-0.027,-25.7,75.9,4.1,1023,2018,4,25,16,20,15.101,0.8275,-0.0965,0.5529,-0.0131
0.624,0.536,0.125,-21.8,86,10.5,1023,2018,4,25,16,20,15.105,0.8265,-0.0853,0.5559,-0.0224
0.473,0.551,0.068,-18,69.6,16.2,1023,2018,4,25,16,20,15.125,0.8256,-0.0749,0.5582,-0.0325
0.336,0.401,-0.118,-11.9,29.3,24.3,1023,2018,4,25,16,20,15.146,0.8246,-0.0699,0.5598,-0.0404
0.213,0.14,-0.264,1.1,10.8,30.6,1023,2018,4,25,16,20,15.184,0.8241,-0.0701,0.5601,-0.0461
0.114,-0.059,-0.202,13.5,13.6,33.4,1023,2018,4,25,16,20,15.205,0.8246,-0.0717,0.5586,-0.0518
-0.068,-0.036,-0.129,25.1,18.3,37.5,0,2018,4,25,16,20,15.21,0.8264,-0.073,0.5551,-0.0582
-0.231,0.014,-0.085,33.1,25.5,32.2,0,2018,4,25,16,20,15.227,0.8289,-0.0739,0.5504,-0.0656
-0.276,-0.334,-0.268,41.8,-14.2,17.6,0,2018,4,25,16,20,15.265,0.8324,-0.076,0.5444,-0.0696
-0.307,-0.255,-0.124,46.4,-23.3,3.5,0,2018,4,25,16,20,15.286,0.8362,-0.0805,0.538,-0.0685
-0.361,-0.192,-0.067,40.8,-53.4,-6.2,0,2018,4,25,16,20,15.29,0.8398,-0.0864,0.532,-0.0641
-0.362,-0.386,-0.159,36.5,-57.5,-16.7,0,2018,4,25,16,20,15.307,0.8425,-0.0944,0.5273,-0.0564
-0.322,-0.391,-0.268,42.1,-38.2,-27,0,2018,4,25,16,20,15.327,0.8454,-0.1001,0.5223,-0.0478
-0.196,-0.118,0.302,27.2,19.9,-28.9,0,2018,4,25,16,20,15.347,0.8488,-0.0992,0.5175,-0.0416
-0.582,0.231,1.046,-10.8,52.8,-24.3,0,2018,4,25,16,20,15.382,0.8508,-0.0891,0.516,-0.0425
-0.327,-0.049,0.468,-49.4,33.4,-22.6,0,2018,4,25,16,20,15.404,0.8484,-0.0816,0.5211,-0.0425
0,0.364,0.241,-59.7,61.4,-1.8,0,2018,4,25,16,20,15.408,0.844,-0.0724,0.5293,-0.046
0.3,0.347,-0.004,-54.4,32,14.8,0,2018,4,25,16,20,15.43,0.8391,-0.0658,0.5373,-0.0521
0.598,0.246,-0.108,-42.3,38.2,21.8,0,2018,4,25,16,20,15.449,0.8347,-0.0624,0.5438,-0.0586
0.543,0.507,-0.055,-35.3,38.4,22.1,0,2018,4,25,16,20,15.469,0.8313,-0.0578,0.5486,-0.0665
0.525,0.582,0.127,-38.5,40.8,19,0,2018,4,25,16,20,15.487,0.828,-0.0532,0.5531,-0.0741
0.475,0.519,0.068,-48.6,1.9,19.8,0,2018,4,25,16,20,15.529,0.8237,-0.0515,0.559,-0.0791
0.305,0.339,0.009,-50.6,-29,19.7,0,2018,4,25,16,20,15.533,0.8184,-0.055,0.5661,-0.0808
0.201,0.196,-0.079,-46.5,-42.3,20.4,0,2018,4,25,16,20,15.549,0.8129,-0.0615,0.5734,-0.0805
0.123,0.003,-0.325,-32.5,-35.9,21.5,0,2018,4,25,16,20,15.567,0.808,-0.0688,0.5795,-0.0799
0.111,-0.072,-0.494,-10.2,-19.1,21.2,0,2018,4,25,16,20,15.589,0.8052,-0.0745,0.5826,-0.0803
0.034,0.032,-0.456,18,-9.6,24.5,1023,2018,4,25,16,20,15.609,0.8052,-0.0786,0.5819,-0.0822
-0.106,0.106,-0.368,40.5,-19.3,24.7,1023,2018,4,25,16,20,15.647,0.8077,-0.0834,0.5775,-0.084
-0.13,0.008,-0.432,57.7,-51.9,23,1023,2018,4,25,16,20,15.667,0.8118,-0.0915,0.5706,-0.0831
-0.195,-0.2,-0.438,74.9,-62.2,21.1,1023,2018,4,25,16,20,15.671,0.8171,-0.1033,0.5615,-0.079
-0.305,-0.116,-0.165,83.4,-57.1,13.2,1023,2018,4,25,16,20,15.692,0.8236,-0.1144,0.5503,-0.0743
-0.333,0.019,0.037,77.6,-79.8,5.3,1023,2018,4,25,16,20,15.713,0.8299,-0.1256,0.5393,-0.0678
-0.366,-0.277,-0.109,70.9,-111.9,-0.7,1023,2018,4,25,16,20,15.732,0.8343,-0.1416,0.5297,-0.0568
-0.452,-0.308,-0.113,63.8,-97.4,-16.3,1023,2018,4,25,16,20,15.752,0.8379,-0.1564,0.521,-0.0445
-0.466,-0.293,-0.046,49.7,-96.6,-30.3,1023,2018,4,25,16,20,15.772,0.8404,-0.1692,0.5139,-0.0301
-0.443,0.064,0.836,2.7,-174.6,-41.8,1023,2018,4,25,16,20,15.811,0.8388,-0.1847,0.5119,-0.012
-0.583,-0.447,0.835,-34.4,-67.1,-49.6,1023,2018,4,25,16,20,15.815,0.8329,-0.1995,0.516,0.0046
-0.425,-0.427,0.117,-54.7,7.6,-56.6,1023,2018,4,25,16,20,15.831,0.8274,-0.1989,0.5248,0.0138
-0.3,-0.067,-0.293,-51.2,49.9,-41.4,0,2018,4,25,16,20,15.868,0.8234,-0.1896,0.5345,0.0159
-0.146,-0.036,-0.41,-36.1,66.2,-23.2,0,2018,4,25,16,20,15.888,0.821,-0.1785,0.5419,0.0137
-0.092,0.209,-0.077,-30.8,60.7,-9.2,0,2018,4,25,16,20,15.892,0.8201,-0.1674,0.547,0.0083
0.042,0.146,0.245,-33.9,98.1,4.2,0,2018,4,25,16,20,15.912,0.8194,-0.156,0.5515,0.0006
0.247,0.411,0.247,-42.9,105.7,15.5,0,2018,4,25,16,20,15.933,0.8185,-0.1413,0.5565,-0.0123
0.476,0.584,0.291,-52.7,58.3,30,0,2018,4,25,16,20,15.953,0.8157,-0.1319,0.5626,-0.0245
0.706,0.535,0.208,-57.9,26.7,36.6,0,2018,4,25,16,20,15.974,0.8109,-0.1293,0.5695,-0.0348
0.717,0.358,0.204,-59.3,20.3,31.1,0,2018,4,25,16,20,15.994,0.8053,-0.1292,0.5769,-0.0432
0.624,0.318,0.152,-59.1,4.1,23.6,0,2018,4,25,16,20,16.014,0.7991,-0.1308,0.5846,-0.0488
0.57,0.222,0.111,-57,-4.3,15.9,0,2018,4,25,16,20,16.032,0.7917,-0.1398,0.5926,-0.0479
0.466,0.25,-0.059,-53.6,-27.9,11.9,0,2018,4,25,16,20,16.05,0.7842,-0.15,0.6003,-0.0447
0.404,0.153,-0.19,-42.7,-40.5,11.1,0,2018,4,25,16,20,16.073,0.7768,-0.1629,0.607,-0.039
0.304,0.098,-0.23,-28,-48.6,13.8,0,2018,4,25,16,20,16.091,0.7704,-0.1769,0.6115,-0.0327
0.191,-0.073,-0.391,-8.8,-32.6,15.3,0,2018,4,25,16,20,16.111,0.7655,-0.1909,0.6138,-0.0268
0.061,-0.058,-0.594,18.5,6.4,19,0,2018,4,25,16,20,16.152,0.7643,-0.2009,0.6122,-0.0237
-0.093,0.276,-0.51,43.5,7.3,25.3,0,2018,4,25,16,20,16.171,0.7668,-0.2081,0.6067,-0.0232
-0.233,0.205,-0.376,57.3,-52.3,27.1,0,2018,4,25,16,20,16.175,0.7698,-0.2205,0.5985,-0.0188
-0.218,-0.071,-0.401,71.9,-73.9,21.1,0,2018,4,25,16,20,16.193,0.7723,-0.2384,0.5886,-0.0088
-0.298,-0.05,-0.281,81.7,-82.3,17.9,0,2018,4,25,16,20,16.231,0.7753,-0.2571,0.5768,0.0033
-0.425,-0.117,-0.164,83.8,-103.6,13.6,0,2018,4,25,16,20,16.251,0.7774,-0.2771,0.5642,0.0178
-0.486,-0.267,-0.066,80.6,-105.2,2.9,0,2018,4,25,16,20,16.255,0.7783,-0.2979,0.5515,0.0347
-0.562,-0.401,-0.261,76.9,-115.1,-11.7,1023,2018,4,25,16,20,16.273,0.7774,-0.3181,0.5399,0.0537
-0.666,-0.501,-0.202,79.3,-89.8,-31.2,1023,2018,4,25,16,20,16.291,0.776,-0.3351,0.5289,0.0746
-0.833,-0.363,-0.101,63.2,-93.2,-49.3,1023,2018,4,25,16,20,16.314,0.7743,-0.3481,0.5194,0.0965
-0.562,-0.118,1.098,20.6,-101,-43.8,1023,2018,4,25,16,20,16.333,0.7681,-0.3618,0.5146,0.1187
-0.844,-0.492,1.02,-32.9,-88.5,-46.6,1023,2018,4,25,16,20,16.372,0.7568,-0.3772,0.5158,0.137
-0.737,-0.523,0.456,-68.1,22.1,-49.8,1023,2018,4,25,16,20,16.392,0.7455,-0.384,0.5247,0.1462
-0.388,-0.162,-0.073,-80.5,86.4,-34.6,1023,2018,4,25,16,20,16.396,0.7388,-0.379,0.5382,0.144
0.13,0.017,-0.181,-78.4,81,-23.3,1023,2018,4,25,16,20,16.417,0.7336,-0.3721,0.5517,0.1373
0.505,0.157,0.06,-69.1,95.9,-12.8,1023,2018,4,25,16,20,16.435,0.7292,-0.3661,0.5634,0.1293
0.953,0.364,0.09,-59.1,122.3,-7.8,1023,2018,4,25,16,20,16.473,0.7272,-0.3576,0.5737,0.1183
1.073,0.646,-0.059,-44.9,112.5,-5.5,1023,2018,4,25,16,20,16.492,0.7268,-0.3481,0.5822,0.1069
0.938,0.914,-0.151,-34.1,85.6,-1.5,1023,2018,4,25,16,20,16.496,0.727,-0.3403,0.5882,0.0974
0.734,0.814,0.058,-30.6,24.9,6.9,1023,2018,4,25,16,20,16.518,0.7251,-0.3391,0.5921,0.0923
0.552,0.53,-0.065,-27.4,-18.2,16.4,0,2018,4,25,16,20,16.539,0.7206,-0.3453,0.594,0.0917
0.422,0.24,-0.253,-17,-32.4,21.2,0,2018,4,25,16,20,16.553,0.7151,-0.3558,0.5942,0.0934
0.234,0.171,-0.305,-4.6,-9.8,26.5,0,2018,4,25,16,20,16.594,0.7115,-0.3652,0.5926,0.0944
0.017,0.132,-0.284,12.6,0.5,34.4,0,2018,4,25,16,20,16.612,0.7109,-0.3725,0.5891,0.0932
-0.208,0.15,-0.362,30.5,-29.6,43.9,0,2018,4,25,16,20,16.616,0.7115,-0.3816,0.5826,0.093
-0.275,-0.12,-0.628,57.1,-61.2,45.5,0,2018,4,25,16,20,16.638,0.7121,-0.3949,0.5722,0.097
-0.406,-0.305,-0.499,81.8,-87.4,38.7,0,2018,4,25,16,20,16.657,0.7128,-0.4111,0.5581,0.1062
-0.496,-0.45,-0.247,97.4,-94.9,24.3,0,2018,4,25,16,20,16.678,0.714,-0.4271,0.5416,0.1195
-0.538,-0.487,-0.048,94.5,-103.7,5.1,0,2018,4,25,16,20,16.698,0.7138,-0.4426,0.5252,0.1363
-0.535,-0.493,-0.123,88.2,-93.3,-15.4,0,2018,4,25,16,20,16.718,0.7122,-0.4557,0.5108,0.1551
-0.636,0.24,0.36,52.2,-188.9,-44,0,2018,4,25,16,20,16.738,0.7071,-0.468,0.4997,0.1762
-0.734,-0.765,1.417,3.3,-57,-38.6,0,2018,4,25,16,20,16.755,0.6927,-0.4869,0.4936,0.1983
-0.698,-0.379,1.055,-55.2,15.9,-51.3,0,2018,4,25,16,20,16.793,0.6855,-0.4882,0.4999,0.2041
-0.511,0.056,0.358,-83.7,32.5,-42.4,0,2018,4,25,16,20,16.813,0.6776,-0.4863,0.5129,0.203
-0.292,0.124,-0.055,-90.5,11.2,-16.8,0,2018,4,25,16,20,16.817,0.6682,-0.4876,0.5255,0.1988
0.117,0.048,-0.082,-80.2,31.8,7.1,0,2018,4,25,16,20,16.855,0.66,-0.4904,0.5353,0.1927
0.595,0.04,-0.056,-66.8,71.9,20.2,0,2018,4,25,16,20,16.86,0.657,-0.4905,0.5429,0.181
0.861,0.143,0.032,-58.3,157.8,22.6,0,2018,4,25,16,20,16.877,0.6603,-0.4835,0.5506,0.1637
0.891,0.475,0.065,-51.6,198.4,26.9,0,2018,4,25,16,20,16.913,0.6702,-0.4679,0.5589,0.1393
0.724,0.948,0,-55,76.2,28.5,0,2018,4,25,16,20,16.933,0.6763,-0.4571,0.5652,0.1187
0.668,0.403,-0.156,-57.1,-38.4,26.4,1023,2018,4,25,16,20,16.94,0.6704,-0.4629,0.5689,0.1116
0.49,0.096,-0.313,-43.9,-49,23.4,1023,2018,4,25,16,20,16.977,0.6609,-0.474,0.5711,0.1104
0.328,-0.053,-0.573,-15.3,-10.4,22.5,1023,2018,4,25,16,20,16.997,0.6552,-0.4821,0.5712,0.1092
0.195,0.084,-0.687,21.8,3.3,23.5,1023,2018,4,25,16,20,17.001,0.6554,-0.4858,0.5681,0.1076
0.067,0.098,-0.566,51.2,-26.2,23.4,1023,2018,4,25,16,20,17.018,0.6582,-0.4898,0.5609,0.1097
-0.041,-0.096,-0.462,77.4,-44.1,20.3,1023,2018,4,25,16,20,17.039,0.661,-0.4966,0.55,0.1174
-0.2,-0.011,-0.33,98.1,-49.8,18.1,1023,2018,4,25,16,20,17.059,0.6651,-0.5034,0.5363,0.1281
-0.279,-0.208,-0.163,105.3,-38.3,13.9,1023,2018,4,25,16,20,17.079,0.6701,-0.5095,0.521,0.1405
-0.421,-0.03,0.06,99,-35.9,12.3,1023,2018,4,25,16,20,17.1,0.6756,-0.5139,0.5061,0.152
-0.521,-0.344,0.135,87.2,-42.7,-0.2,1023,2018,4,25,16,20,17.136,0.6793,-0.5185,0.4926,0.1642
-0.603,-0.25,0.399,65,-43.4,-15.5,1023,2018,4,25,16,20,17.156,0.6804,-0.5226,0.4822,0.1768
-0.623,-0.202,0.327,37.9,-66.5,-27.2,1023,2018,4,25,16,20,17.161,0.6772,-0.5283,0.4756,0.1898
-0.636,-0.315,0.279,15,-79.1,-36.1,1023,2018,4,25,16,20,17.182,0.669,-0.5365,0.4721,0.2036
-0.699,-0.28,0.305,-5.2,-56.3,-39.6,0,2018,4,25,16,20,17.202,0.66,-0.5434,0.4716,0.2155
-0.358,-0.003,0.507,-34.9,-12.2,-34.8,0,2018,4,25,16,20,17.239,0.6517,-0.5474,0.4756,0.222
-0.38,0.108,1.281,-73.2,114.8,-5.9,0,2018,4,25,16,20,17.259,0.6496,-0.5447,0.4843,0.2156
-0.474,0.355,0.679,-120.2,28.7,10.7,0,2018,4,25,16,20,17.263,0.6478,-0.5411,0.4974,0.1999
0.054,-0.031,-0.073,-136.7,-5.6,20.6,0,2018,4,25,16,20,17.279,0.6361,-0.5481,0.5097,0.1871
0.409,-0.067,-0.16,-129.7,54.9,25.5,0,2018,4,25,16,20,17.317,0.627,-0.5521,0.5222,0.1707
0.545,0.095,-0.313,-119.4,72.9,25.3,0,2018,4,25,16,20,17.337,0.6224,-0.5513,0.5348,0.15
0.642,0.014,-0.631,-98.8,109.4,20.7,0,2018,4,25,16,20,17.341,0.621,-0.5469,0.5463,0.1288
0.695,0.136,-0.692,-67.7,151.1,17.4,0,2018,4,25,16,20,17.381,0.6259,-0.5362,0.5562,0.1061
0.657,0.28,-0.624,-30.9,127.6,12.9,0,2018,4,25,16,20,17.4,0.6349,-0.5228,0.5623,0.0857
0.526,0.207,-0.602,3.8,48.7,6.8,0,2018,4,25,16,20,17.404,0.6415,-0.5145,0.5638,0.075
0.37,0.031,-0.546,39.6,-18.3,0.6,0,2018,4,25,16,20,17.44,0.6447,-0.5135,0.561,0.0758
0.257,-0.071,-0.421,68.7,-20.5,-2.4,0,2018,4,25,16,20,17.459,0.6477,-0.5158,0.5544,0.0834
0.147,-0.064,-0.316,91.5,-4.1,-4.6,0,2018,4,25,16,20,17.463,0.6542,-0.5158,0.5452,0.0925
0.017,-0.037,-0.322,112.2,10.1,-4.2,0,2018,4,25,16,20,17.482,0.664,-0.5136,0.5335,0.1021
-0.112,0.025,-0.229,122.7,7.6,-4.2,0,2018,4,25,16,20,17.52,0.6752,-0.5108,0.5198,0.1127
-0.283,-0.039,0.012,125.6,1.2,-3.1,0,2018,4,25,16,20,17.541,0.6859,-0.5091,0.5046,0.1248
-0.417,-0.002,0.301,115.5,-14.2,-6.2,0,2018,4,25,16,20,17.545,0.6952,-0.5078,0.4897,0.1369
-0.419,-0.184,0.299,97.3,-34.1,-14.6,0,2018,4,25,16,20,17.562,0.7005,-0.5094,0.4764,0.1505
-0.422,-0.23,0.368,77.2,-35.8,-23.1,0,2018,4,25,16,20,17.584,0.7022,-0.5126,0.4656,0.1651
-0.515,-0.16,0.536,48.5,-28.2,-29.4,1023,2018,4,25,16,20,17.604,0.702,-0.5149,0.4586,0.1776
-0.467,-0.12,0.566,13.1,-29.7,-35.1,1023,2018,4,25,16,20,17.641,0.6986,-0.5178,0.4563,0.188
-0.355,-0.073,0.851,-22.6,34,-26.3,1023,2018,4,25,16,20,17.662,0.6948,-0.5186,0.4592,0.1929
-0.354,0.572,0.738,-67.1,35.7,-15.3,1023,2018,4,25,16,20,17.666,0.6936,-0.5145,0.4678,0.1879
-0.282,0.207,0.299,-99,-30.9,-2,1023,2018,4,25,16,20,17.684,0.6836,-0.5203,0.4779,0.1829
-0.047,0.137,0.076,-111.7,-28.2,-2.9,1023,2018,4,25,16,20,17.724,0.6708,-0.5287,0.489,0.1765
0.066,-0.067,-0.006,-114.2,-45.2,-8.5,1023,2018,4,25,16,20,17.745,0.6574,-0.5363,0.5005,0.1719
0.211,-0.163,-0.239,-104.4,-16.3,-15.5,1023,2018,4,25,16,20,17.749,0.6442,-0.5427,0.5122,0.1672
0.238,-0.147,-0.423,-87.7,48.5,-22.1,1023,2018,4,25,16,20,17.763,0.6359,-0.5429,0.5248,0.1592
0.339,0.111,-0.547,-63,107,-17.6,1023,2018,4,25,16,20,17.802,0.6355,-0.5348,0.5368,0.1473
0.366,0.32,-0.687,-32.8,137.8,-5.7,1023,2018,4,25,16,20,17.822,0.642,-0.5215,0.5459,0.1325
0.315,0.54,-0.726,3.1,110.1,6.2,1023,2018,4,25,16,20,17.826,0.6518,-0.5083,0.5499,0.1193
0.219,0.61,-0.731,40.8,55.8,21.3,1023,2018,4,25,16,20,17.847,0.6611,-0.5007,0.5472,0.1123
0.109,0.383,-0.652,71.5,5.8,31.5,0,2018,4,25,16,20,17.866,0.6691,-0.4999,0.5382,0.112
0.017,0.164,-0.474,95.5,-24.5,37,0,2018,4,25,16,20,17.886,0.676,-0.504,0.5245,0.117
-0.143,0.066,-0.174,112.1,-17.2,38.6,0,2018,4,25,16,20,17.906,0.684,-0.5088,0.5077,0.124
-0.294,-0.016,-0.054,115.4,-48.7,32.6,0,2018,4,25,16,20,17.943,0.6923,-0.5132,0.489,0.1345
-0.333,-0.262,0,114.6,-65.1,20.2,0,2018,4,25,16,20,17.965,0.6963,-0.5214,0.4706,0.1472
-0.388,-0.513,0.234,107.5,-55.3,2.6,0,2018,4,25,16,20,17.969,0.6986,-0.5289,0.4535,0.1621
-0.432,-0.519,0.397,93.6,-24.6,-17.5,0,2018,4,25,16,20,17.989,0.7013,-0.5321,0.4401,0.1764
-0.383,-0.363,0.737,52.7,0.6,-38.8,0,2018,4,25,16,20,18.009,0.7027,-0.5321,0.4326,0.1892
-0.344,0.222,1.559,-8.8,55.5,-23.5,0,2018,4,25,16,20,18.026,0.7036,-0.5287,0.4332,0.194
-0.315,0.473,0.946,-71,-1.5,-16.4,0,2018,4,25,16,20,18.063,0.7009,-0.5269,0.4408,0.1914
-0.32,-0.091,0.376,-103.5,-76,-8.1,0,2018,4,25,16,20,18.082,0.6866,-0.5382,0.4503,0.1897
-0.138,-0.392,-0.046,-111,-46.8,-12.4,0,2018,4,25,16,20,18.086,0.6698,-0.5508,0.4615,0.1866
0.006,-0.253,-0.12,-102.5,13.5,-16.5,0,2018,4,25,16,20,18.125,0.6581,-0.5563,0.4743,0.1796
0.171,-0.044,-0.366,-85.7,66.8,-23.7,0,2018,4,25,16,20,18.144,0.6529,-0.5538,0.4879,0.1697
0.319,0.383,-0.488,-66,75.9,-12.3,0,2018,4,25,16,20,18.148,0.6527,-0.5465,0.5001,0.1585
0.412,0.203,-0.407,-45.2,75.3,-1,0,2018,4,25,16,20,18.167,0.6539,-0.5403,0.5083,0.148
0.391,0.365,-0.383,-28.6,89.5,0.7,0,2018,4,25,16,20,18.189,0.6585,-0.5318,0.5144,0.1373
0.407,0.33,-0.362,-11.4,111.7,10.1,0,2018,4,25,16,20,18.21,0.6654,-0.5223,0.518,0.1262
0.278,0.595,-0.443,9.2,102.5,21.7,0,2018,4,25,16,20,18.231,0.6752,-0.5117,0.5186,0.1146
0.176,0.513,-0.485,31.1,48.4,34.2,0,2018,4,25,16,20,18.245,0.6838,-0.5062,0.5145,0.1066
0.116,0.357,-0.401,50.3,4.6,44.2,1023,2018,4,25,16,20,18.284,0.6896,-0.5074,0.506,0.1041
-0.015,0.15,-0.327,69.6,-15.2,51.2,1023,2018,4,25,16,20,18.31,0.6947,-0.5123,0.4938,0.1046
-0.122,-0.008,-0.289,89,-10.7,50.1,1023,2018,4,25,16,20,18.33,0.7007,-0.5178,0.4788,0.1072
-0.213,0.078,-0.176,101.5,-29,46.6,1023,2018,4,25,16,20,18.332,0.7076,-0.5227,0.4618,0.1124
-0.248,-0.034,-0.136,106,-69.3,38.6,1023,2018,4,25,16,20,18.346,0.7113,-0.5316,0.4434,0.1212
-0.317,-0.3,-0.07,107.2,-82.2,25,1023,2018,4,25,16,20,18.382,0.7115,-0.5434,0.4247,0.1339
-0.374,-0.496,0.173,98.4,-67.2,0.9,1023,2018,4,25,16,20,18.405,0.7106,-0.5534,0.408,0.1487
-0.392,-0.505,0.343,77.4,-57.8,-29.3,1023,2018,4,25,16,20,18.411,0.709,-0.5596,0.3964,0.1641
-0.352,-0.285,0.555,40.8,-66.7,-58.1,1023,2018,4,25,16,20,18.429,0.704,-0.5645,0.391,0.1809
-0.337,-0.281,1.175,-3.6,8.3,-55.7,1023,2018,4,25,16,20,18.448,0.6975,-0.5671,0.3928,0.1936
-0.428,0.183,1.133,-57.7,0.3,-56.2,1023,2018,4,25,16,20,18.486,0.6931,-0.5644,0.4024,0.1974
-0.32,-0.042,0.584,-94.3,-42.7,-52.8,1023,2018,4,25,16,20,18.508,0.6809,-0.5689,0.4158,0.1989
-0.084,-0.184,0.213,-111.3,4.8,-48.7,0,2018,4,25,16,20,18.512,0.6674,-0.5737,0.4318,0.197
0.096,0.088,0.044,-114,40.6,-35.1,0,2018,4,25,16,20,18.53,0.6603,-0.5711,0.4489,0.1903
0.201,0.257,-0.098,-109.1,25.4,-22.6,0,2018,4,25,16,20,18.55,0.6529,-0.5697,0.4652,0.1802
0.389,0.255,-0.413,-96,29.1,-11.7,0,2018,4,25,16,20,18.572,0.6459,-0.5694,0.479,0.1702
0.573,0.422,-0.647,-69.2,56.4,5,0,2018,4,25,16,20,18.588,0.6429,-0.567,0.4898,0.1589
0.577,0.587,-0.773,-36.3,59.7,21.1,0,2018,4,25,16,20,18.61,0.6448,-0.5627,0.4959,0.1468
0.487,0.439,-0.806,-0.6,50.3,31.9,0,2018,4,25,16,20,18.645,0.6489,-0.5598,0.4965,0.1375
0.323,0.417,-0.71,39.6,60.6,39.6,0,2018,4,25,16,20,18.665,0.6568,-0.5563,0.4917,0.1307
0.109,0.499,-0.472,71.1,27.5,47.1,0,2018,4,25,16,20,18.671,0.6674,-0.5532,0.4819,0.1271
-0.035,0.058,-0.379,94.3,1.2,49.3,0,2018,4,25,16,20,18.71,0.6758,-0.5551,0.4673,0.129
-0.199,0.103,-0.225,110.8,-17.4,45.9,0,2018,4,25,16,20,18.728,0.6842,-0.558,0.4498,0.1342
-0.349,-0.111,-0.053,115.1,-48.5,37.9,0,2018,4,25,16,20,18.733,0.69,-0.5636,0.4307,0.1433
-0.454,-0.394,0.064,110.5,-65.4,24.8,0,2018,4,25,16,20,18.752,0.6922,-0.5717,0.4119,0.1556
-0.539,-0.536,0.276,98.6,-65.8,6.5,0,2018,4,25,16,20,18.77,0.6921,-0.5795,0.3953,0.1696
-0.607,-0.532,0.352,74.5,-62.7,-15.7,0,2018,4,25,16,20,18.789,0.6897,-0.5863,0.3826,0.1844
-0.422,-0.527,1.01,23.4,-86.3,-29,0,2018,4,25,16,20,18.83,0.6813,-0.5952,0.3766,0.1987
-0.479,-0.053,1.342,-30.2,99.2,-28.6,0,2018,4,25,16,20,18.85,0.6809,-0.593,0.38,0.2003
-0.344,0.102,0.829,-82.5,29.4,-25.7,0,2018,4,25,16,20,18.854,0.6807,-0.5876,0.3919,0.1941
-0.098,-0.022,0.126,-107.7,28.2,-20.2,0,2018,4,25,16,20,18.873,0.6737,-0.5888,0.4057,0.186
0.174,0.101,-0.125,-114.6,24.7,-14.6,1023,2018,4,25,16,20,18.894,0.6684,-0.587,0.4211,0.1765
0.416,0.211,-0.352,-105.2,19.4,-13.7,1023,2018,4,25,16,20,18.915,0.6605,-0.5886,0.4355,0.1659
0.517,0.449,-0.368,-85.8,48.2,-9.4,1023,2018,4,25,16,20,18.934,0.6561,-0.5867,0.4483,0.1549
0.503,0.495,-0.555,-63.5,37,1.7,1023,2018,4,25,16,20,18.974,0.6545,-0.5835,0.4584,0.1443
0.531,0.437,-0.67,-33,29.3,13.8,1023,2018,4,25,16,20,18.978,0.6538,-0.5821,0.4637,0.136
0.393,0.531,-0.742,3.6,11.1,25.6,1023,2018,4,25,16,20,18.994,0.6555,-0.5814,0.4638,0.1305
0.179,0.366,-0.731,40.1,-27.1,35.9,1023,2018,4,25,16,20,19.013,0.6569,-0.5847,0.4577,0.1301
0.045,-0.014,-0.52,75.3,-30.6,40.4,1023,2018,4,25,16,20,19.034,0.6591,-0.5902,0.4461,0.1343
-0.118,0.07,-0.301,98.8,-39.7,39,1023,2018,4,25,16,20,19.055,0.6635,-0.5949,0.431,0.1414
-0.219,-0.087,-0.147,110,-49.2,35.1,1023,2018,4,25,16,20,19.074,0.6671,-0.6007,0.4135,0.1516
-0.314,-0.264,-0.026,112.8,-44.2,25.9,1023,2018,4,25,16,20,19.112,0.6703,-0.606,0.3956,0.1635
-0.382,-0.341,0.176,105.5,-30.2,11.2,1023,2018,4,25,16,20,19.132,0.6736,-0.6094,0.3792,0.1759
-0.489,-0.011,0.487,77.3,-68,-15.6,1023,2018,4,25,16,20,19.136,0.675,-0.6118,0.3665,0.1886
-0.352,-0.828,0.88,26.4,-125.8,-18.1,0,2018,4,25,16,20,19.174,0.6607,-0.6272,0.3575,0.2052
-0.44,-0.231,1.268,-20,65.9,-32.2,0,2018,4,25,16,20,19.178,0.6576,-0.6282,0.359,0.2095
-0.418,-0.156,0.97,-69.5,29.2,-33.4,0,2018,4,25,16,20,19.197,0.6562,-0.6247,0.3692,0.2065
-0.398,0.006,0.286,-104.6,22.8,-35.1,0,2018,4,25,16,20,19.234,0.6512,-0.6236,0.3837,0.1991
-0.152,-0.183,-0.037,-114.6,22.6,-34,0,2018,4,25,16,20,19.255,0.6436,-0.6238,0.4005,0.19
0.008,-0.026,-0.085,-109.9,44.4,-33.4,0,2018,4,25,16,20,19.259,0.6394,-0.6202,0.4172,0.1798
0.26,0.175,-0.2,-102.8,62.3,-29.1,0,2018,4,25,16,20,19.273,0.6363,-0.615,0.434,0.1685
0.381,0.449,-0.219,-94.6,67.8,-19,0,2018,4,25,16,20,19.311,0.6354,-0.6081,0.4497,0.1552
0.465,0.544,-0.349,-80.4,31.1,-2.7,0,2018,4,25,16,20,19.331,0.6337,-0.6035,0.4621,0.1429
0.521,0.338,-0.677,-52.9,29.4,13.3,0,2018,4,25,16,20,19.335,0.6312,-0.6025,0.4698,0.133
0.47,0.279,-0.929,-10.1,52.8,25.3,0,2018,4,25,16,20,19.375,0.6338,-0.5997,0.4724,0.1238
0.358,0.388,-0.82,37.2,35.6,35.9,0,2018,4,25,16,20,19.396,0.641,-0.596,0.4688,0.1178
0.129,0.366,-0.529,70.3,1.8,47.6,0,2018,4,25,16,20,19.4,0.6487,-0.5956,0.4589,0.1172
0.004,-0.038,-0.384,96,-9.2,50,0,2018,4,25,16,20,19.418,0.6556,-0.5985,0.4441,0.1208
-0.075,0.012,-0.277,116.3,-14.9,49.7,0,2018,4,25,16,20,19.439,0.6639,-0.6009,0.4264,0.127
-0.153,-0.003,-0.103,125.6,-17.2,48.5,0,2018,4,25,16,20,19.458,0.6724,-0.6034,0.4066,0.1354
-0.271,-0.222,-0.014,126.7,-30.9,39,0,2018,4,25,16,20,19.476,0.68,-0.6059,0.386,0.1455
-0.392,-0.244,0.148,120,-15.1,26.8,0,2018,4,25,16,20,19.495,0.6858,-0.6086,0.3668,0.1567
-0.428,-0.328,0.217,108.5,-9.4,7.9,0,2018,4,25,16,20,19.536,0.6911,-0.6092,0.3506,0.168
-0.449,-0.129,0.363,85.1,-30.4,-18.8,0,2018,4,25,16,20,19.555,0.6935,-0.6097,0.3384,0.1806
-0.427,-0.6,0.704,35.2,-125.1,-29.5,1023,2018,4,25,16,20,19.559,0.6821,-0.6218,0.3302,0.1972
-0.464,-0.554,0.968,-3.9,-15.8,-43.4,1023,2018,4,25,16,20,19.577,0.6717,-0.6298,0.3296,0.2084
-0.454,0.192,0.96,-48.8,73.8,-48.7,1023,2018,4,25,16,20,19.615,0.6719,-0.6241,0.3395,0.2086
-0.551,-0.042,0.328,-86,-2.8,-45.5,1023,2018,4,25,16,20,19.634,0.6673,-0.6224,0.3536,0.2054
-0.251,-0.231,-0.126,-96.1,34.2,-42.5,1023,2018,4,25,16,20,19.637,0.6587,-0.6241,0.3692,0.2005
-0.183,0.011,-0.149,-96,42,-37.7,1023,2018,4,25,16,20,19.67,0.6546,-0.621,0.3857,0.1921
0.078,0.052,-0.208,-86.2,50,-34.1,1023,2018,4,25,16,20,19.693,0.6511,-0.6175,0.401,0.1837
0.318,0.118,-0.168,-79.5,74.6,-29,1023,2018,4,25,16,20,19.7,0.6503,-0.6115,0.4155,0.1742
0.557,0.371,-0.109,-70.7,91.2,-14.1,1023,2018,4,25,16,20,19.74,0.6524,-0.6035,0.4284,0.1628
0.686,0.514,-0.162,-58.1,98.9,1.5,1023,2018,4,25,16,20,19.744,0.6571,-0.5942,0.4389,0.1495
0.716,0.584,-0.363,-39.6,70,17.7,1023,2018,4,25,16,20,19.76,0.6622,-0.5866,0.4455,0.1368
0.689,0.494,-0.448,-14.7,54.4,33.7,1023,2018,4,25,16,20,19.779,0.6668,-0.5824,0.4472,0.1263
0.508,0.473,-0.451,11.7,34.6,47.4,1023,2018,4,25,16,20,19.799,0.6721,-0.5805,0.4441,0.1179
0.274,0.468,-0.41,35.6,-11.1,57.8,0,2018,4,25,16,20,19.838,0.6761,-0.5829,0.436,0.1134
0.139,0.13,-0.383,54.9,-40.7,60.4,0,2018,4,25,16,20,19.859,0.6779,-0.5896,0.4241,0.1131
0,-0.029,-0.27,72.8,-46,59,0,2018,4,25,16,20,19.863,0.6793,-0.5978,0.4093,0.116
-0.13,-0.02,-0.211,85.4,-54.8,54.9,0,2018,4,25,16,20,19.883,0.6807,-0.6063,0.3927,0.1212
-0.17,-0.155,-0.2,93.4,-52.2,46.2,0,2018,4,25,16,20,19.903,0.6815,-0.6149,0.3752,0.1286
-0.264,-0.187,-0.073,97,-47.9,33.2,0,2018,4,25,16,20,19.921,0.6828,-0.6217,0.3581,0.1375
-0.377,-0.259,0.083,91.9,-49.9,16.9,0,2018,4,25,16,20,19.941,0.6834,-0.6273,0.3427,0.1481
-0.475,-0.3,0.147,79.2,-64.3,-5.4,0,2018,4,25,16,20,19.981,0.6814,-0.6331,0.33,0.1604
-0.51,-0.396,0.018,62.4,-70.5,-33.5,0,2018,4,25,16,20,19.985,0.6757,-0.6398,0.3214,0.1751
-0.544,-0.517,0.413,25.3,-129.6,-58.5,0,2018,4,25,16,20,20,0.6619,-0.6507,0.3181,0.1927
-0.519,-0.343,0.693,-0.7,4.8,-67.2,0,2018,4,25,16,20,20.037,0.6509,-0.6559,0.3215,0.2063
-0.537,0.088,0.638,-37.1,-4.1,-78.1,0,2018,4,25,16,20,20.057,0.6479,-0.6517,0.3324,0.2119
-0.508,-0.289,0.126,-55.1,-16.3,-81,0,2018,4,25,16,20,20.061,0.6377,-0.653,0.3457,0.2172
-0.269,-0.253,-0.25,-54.9,41.1,-77.8,0,2018,4,25,16,20,20.08,0.6314,-0.6501,0.3612,0.2193
-0.177,0.084,-0.048,-49.4,122.1,-62.7,0,2018,4,25,16,20,20.121,0.6346,-0.6385,0.3778,0.2161
0.084,0.476,-0.069,-48,94.2,-37.2,0,2018,4,25,16,20,20.141,0.6411,-0.6251,0.3926,0.2096
0.343,0.474,0.003,-47.4,71.3,-6.7,0,2018,4,25,16,20,20.145,0.6451,-0.6172,0.4028,0.2013
0.513,0.369,0.001,-42.8,85.8,20.1,0,2018,4,25,16,20,20.18,0.6495,-0.6116,0.4093,0.1905
0.666,0.357,0.064,-31.4,132.5,40.4,0,2018,4,25,16,20,20.184,0.6588,-0.6034,0.4135,0.1752
0.755,0.767,-0.073,-24.7,92.4,52.7,1023,2018,4,25,16,20,20.201,0.6701,-0.5946,0.4149,0.1584
0.652,0.585,-0.277,-16.9,-6.1,58.8,1023,2018,4,25,16,20,20.24,0.6737,-0.5954,0.4122,0.147
0.522,0.061,-0.314,-1.6,-32.1,57.2,1023,2018,4,25,16,20,20.259,0.671,-0.6037,0.4063,0.1413
0.283,-0.028,-0.35,21.9,-12.1,54.3,1023,2018,4,25,16,20,20.263,0.6703,-0.6105,0.3985,0.1376
-0.013,0.071,-0.363,47.1,13,55.1,1023,2018,4,25,16,20,20.282,0.6742,-0.6134,0.3884,0.1347
-0.213,-0.065,-0.386,67.1,-8,43.5,1023,2018,4,25,16,20,20.303,0.6794,-0.6152,0.3763,0.1348
-0.276,-0.248,-0.338,84.9,-29.3,29.6,1023,2018,4,25,16,20,20.342,0.6826,-0.6187,0.3626,0.1402
-0.401,-0.314,-0.151,94.7,-33.5,14.5,1023,2018,4,25,16,20,20.362,0.6844,-0.6227,0.3481,0.15
-0.511,-0.414,-0.064,92.4,-15.8,-4.5,1023,2018,4,25,16,20,20.367,0.6864,-0.6246,0.3353,0.1614
-0.573,-0.358,0.02,82.7,-16.2,-27.4,1023,2018,4,25,16,20,20.386,0.688,-0.6245,0.3257,0.1744
-0.595,-0.279,0.301,57.6,-5.5,-52.8,1023,2018,4,25,16,20,20.404,0.6883,-0.6226,0.3208,0.1885
-0.446,-0.302,0.645,12.2,-76,-64.2,1023,2018,4,25,16,20,20.424,0.6793,-0.6275,0.3211,0.2039
-0.668,-0.033,0.686,-24.8,54.2,-58.4,1023,2018,4,25,16,20,20.461,0.6736,-0.6275,0.328,0.2114
-0.52,-0.197,0.015,-49.7,70.3,-71,0,2018,4,25,16,20,20.481,0.6739,-0.6194,0.3422,0.2119
-0.311,0.245,-0.209,-55.2,58.9,-64.2,0,2018,4,25,16,20,20.485,0.6742,-0.6102,0.3579,0.2117
-0.001,0.167,-0.184,-55.7,51,-46.5,0,2018,4,25,16,20,20.504,0.6722,-0.6048,0.3717,0.2098
0.108,0.239,-0.04,-50.8,90.2,-28.6,0,2018,4,25,16,20,20.522,0.6731,-0.5979,0.3841,0.2044
0.384,0.268,-0.205,-40.5,145.3,-10.1,0,2018,4,25,16,20,20.563,0.6802,-0.5858,0.3952,0.1943
0.581,0.569,0.051,-34.2,123.8,6.9,0,2018,4,25,16,20,20.567,0.6903,-0.572,0.404,0.1816
0.749,0.707,0.229,-29.5,63,22,0,2018,4,25,16,20,20.586,0.6963,-0.5646,0.4088,0.1708
0.803,0.464,0.139,-24.6,44.5,29.6,0,2018,4,25,16,20,20.625,0.6984,-0.5633,0.4105,0.1621
0.653,0.235,-0.192,-7.1,72.1,32.2,0,2018,4,25,16,20,20.643,0.7024,-0.5608,0.4105,0.1532
0.514,0.213,-0.172,13.1,104.5,32.1,0,2018,4,25,16,20,20.646,0.7112,-0.5534,0.4089,0.1435
0.241,0.205,-0.141,24.3,78,25.5,0,2018,4,25,16,20,20.666,0.7212,-0.5448,0.4057,0.1355
0.002,0.092,-0.206,32.6,20.9,15.9,0,2018,4,25,16,20,20.686,0.7271,-0.5413,0.4007,0.1327
-0.133,-0.283,-0.352,43.4,-37.3,-1.3,0,2018,4,25,16,20,20.702,0.7272,-0.5447,0.3944,0.1371
-0.271,-0.245,-0.404,56.3,-34,-14.6,0,2018,4,25,16,20,20.725,0.7253,-0.5497,0.3875,0.1463
-0.346,-0.181,-0.327,65.1,-27.9,-25.6,0,2018,4,25,16,20,20.762,0.7241,-0.553,0.3805,0.1579
-0.435,-0.129,-0.432,69.7,-6.9,-32.8,0,2018,4,25,16,20,20.781,0.7242,-0.5536,0.3738,0.1705
-0.358,0.001,-0.15,51.9,-30.2,-35.2,0,2018,4,25,16,20,20.784,0.7234,-0.5544,0.3682,0.1834
-0.807,0.186,0.528,29.4,-20.5,-18.9,0,2018,4,25,16,20,20.823,0.7207,-0.557,0.3643,0.1936
-0.63,-0.175,0.115,0.5,-20.2,-12.4,0,2018,4,25,16,20,20.843,0.7164,-0.5611,0.3629,0.2
-0.427,-0.098,-0.133,-2.8,37.3,-2.1,0,2018,4,25,16,20,20.847,0.7147,-0.562,0.3642,0.2014
-0.203,-0.076,-0.12,3.1,99.3,15.5,0,2018,4,25,16,20,20.869,0.7198,-0.5561,0.3657,0.1968
-0.047,-0.016,0.115,5.8,122.5,24.6,1023,2018,4,25,16,20,20.889,0.7301,-0.5446,0.3665,0.1891
0.151,0.164,0.417,-6.8,105.2,31.1,1023,2018,4,25,16,20,20.91,0.7399,-0.5339,0.3673,0.1801
0.272,0.523,0.702,-32.6,60,37.3,1023,2018,4,25,16,20,20.93,0.7453,-0.5285,0.3691,0.1697
0.509,0.445,0.655,-58.5,12.2,44.3,1023,2018,4,25,16,20,20.947,0.7435,-0.5321,0.3721,0.1598
0.635,0.521,0.687,-71,13.1,48.4,1023,2018,4,25,16,20,20.968,0.7394,-0.5382,0.3762,0.1481
0.686,0.44,0.469,-77.1,11.5,45.5,1023,2018,4,25,16,20,20.987,0.735,-0.5441,0.3812,0.1352
0.61,0.361,0.2,-73.6,8.8,38.5,1023,2018,4,25,16,20,21.024,0.73,-0.5498,0.3867,0.1228
0.532,0.204,-0.027,-63.8,11,31.8,1023,2018,4,25,16,20,21.045,0.7257,-0.5542,0.3918,0.1117
0.418,0.181,-0.291,-48.5,0.1,22.3,1023,2018,4,25,16,20,21.049,0.7221,-0.5576,0.3961,0.1028
0.281,-0.03,-0.502,-30.8,-41.3,9.5,1023,2018,4,25,16,20,21.069,0.7166,-0.5634,0.3988,0.0988
0.098,-0.212,-0.627,-9.3,-77.7,-7,1023,2018,4,25,16,20,21.105,0.7087,-0.5724,0.3997,0.1012
-0.102,-0.326,-0.629,14.6,-99.9,-24.6,1023,2018,4,25,16,20,21.124,0.6987,-0.5833,0.3991,0.1101
-0.23,-0.428,-0.673,46.8,-57.2,-39.5,1023,2018,4,25,16,20,21.128,0.6911,-0.5912,0.3967,0.1233
-0.352,-0.343,-0.543,74.7,16.1,-49.2,1023,2018,4,25,16,20,21.149,0.6919,-0.5898,0.3932,0.1366
-0.455,-0.224,-0.413,91.9,64.7,-55.5,0,2018,4,25,16,20,21.171,0.7001,-0.5798,0.3889,0.149
-0.49,-0.14,-0.254,95.8,63.5,-62.7,0,2018,4,25,16,20,21.19,0.7108,-0.5662,0.3847,0.1616
-0.532,-0.023,-0.286,88,3.8,-65.6,0,2018,4,25,16,20,21.212,0.7168,-0.5568,0.3802,0.1773
-0.466,0.538,0.378,44.7,-110.2,-62.6,0,2018,4,25,16,20,21.228,0.7144,-0.5568,0.3761,0.1951
-0.701,0.083,0.699,4.6,-113.5,-28.8,0,2018,4,25,16,20,21.267,0.6996,-0.5717,0.3725,0.2118
-0.515,-0.285,0.195,-15.9,-25.9,-8.7,0,2018,4,25,16,20,21.272,0.6888,-0.582,0.3723,0.2192
-0.187,0.098,0.032,-9.1,98.1,19,0,2018,4,25,16,20,21.288,0.6913,-0.5789,0.3749,0.215
0.027,0.185,0.07,2.3,122.7,40,0,2018,4,25,16,20,21.31,0.7027,-0.5684,0.3761,0.2037
0.299,0.236,0.152,6.3,64.4,52.6,0,2018,4,25,16,20,21.33,0.7118,-0.5623,0.3737,0.1932
0.586,0.343,0.352,1.3,23.7,54.3,0,2018,4,25,16,20,21.372,0.7158,-0.5631,0.3689,0.1853
0.731,0.557,0.595,-13.9,6.8,47.2,0,2018,4,25,16,20,21.376,0.7162,-0.5674,0.3648,0.1787
0.701,0.463,0.612,-33.9,36.4,38.4,0,2018,4,25,16,20,21.391,0.7161,-0.5706,0.3639,0.1705
0.551,0.386,0.394,-52.4,42.1,29.6,0,2018,4,25,16,20,21.431,0.7167,-0.5709,0.3669,0.1601
0.406,0.293,0.119,-63.2,18.6,22,0,2018,4,25,16,20,21.451,0.7149,-0.5725,0.3722,0.1499
0.265,0.158,-0.205,-59.3,-11.9,16.5,0,2018,4,25,16,20,21.455,0.7103,-0.5767,0.3778,0.1416
0.182,-0.017,-0.339,-48,-59.6,11.3,0,2018,4,25,16,20,21.469,0.7023,-0.5848,0.3819,0.1371
0.017,-0.149,-0.454,-36.9,-85.9,-2,0,2018,4,25,16,20,21.491,0.6908,-0.5964,0.3847,0.1376
-0.123,-0.276,-0.588,-13.8,-81.4,-11.2,0,2018,4,25,16,20,21.51,0.6791,-0.6078,0.3862,0.1418
-0.214,-0.325,-0.71,21.6,-61.3,-20.4,0,2018,4,25,16,20,21.531,0.671,-0.6154,0.3854,0.1491
-0.313,-0.296,-0.653,55.8,-26.9,-27.5,1023,2018,4,25,16,20,21.552,0.6681,-0.6181,0.3821,0.1592
-0.426,-0.241,-0.495,78.7,-2.6,-31.8,1023,2018,4,25,16,20,21.572,0.67,-0.6162,0.3767,0.1712
-0.481,-0.253,-0.483,94,6,-36.3,1023,2018,4,25,16,20,21.593,0.6741,-0.6119,0.3699,0.1847
-0.534,-0.079,-0.35,94.9,-8.3,-32,1023,2018,4,25,16,20,21.631,0.6777,-0.608,0.3617,0.2
-0.872,0.265,0.663,55,-99.7,-23.7,1023,2018,4,25,16,20,21.652,0.6754,-0.6102,0.3535,0.2156
-0.637,-0.101,0.628,14.8,-75.1,-1.8,1023,2018,4,25,16,20,21.656,0.6642,-0.6217,0.3467,0.2277
-0.404,-0.115,0.217,-1.6,33.3,20.6,1023,2018,4,25,16,20,21.691,0.6618,-0.6254,0.3442,0.2286
-0.135,0.181,0.111,-0.6,94.8,43.6,1023,2018,4,25,16,20,21.712,0.6696,-0.6204,0.3434,0.2205
0.196,0.131,0.095,0,47.5,52.1,1023,2018,4,25,16,20,21.715,0.6774,-0.6168,0.3405,0.2112
0.359,0.3,0.464,-8.5,-4.9,54,1023,2018,4,25,16,20,21.731,0.6797,-0.6194,0.3356,0.204
0.606,0.188,0.667,-21.3,-29.8,46.7,1023,2018,4,25,16,20,21.765,0.6762,-0.6276,0.3306,0.1984
0.767,0.21,0.763,-31.5,24.1,34.9,1023,2018,4,25,16,20,21.787,0.6739,-0.6331,0.3288,0.1916
0.711,0.305,0.615,-44.5,75,21.5,0,2018,4,25,16,20,21.792,0.6771,-0.6311,0.3317,0.1815
0.584,0.328,0.341,-56.7,69.8,10.4,0,2018,4,25,16,20,21.828,0.6818,-0.6258,0.3382,0.17
0.407,0.229,0.061,-61.3,41.1,2.5,0,2018,4,25,16,20,21.849,0.6835,-0.6224,0.346,0.1597
0.302,0.15,-0.152,-57.2,18.2,-4,0,2018,4,25,16,20,21.851,0.682,-0.6217,0.3538,0.1519
0.149,0.041,-0.311,-48.6,1.4,-10.8,0,2018,4,25,16,20,21.888,0.6787,-0.6225,0.3608,0.1467
-0.006,-0.178,-0.525,-34.5,-12.2,-20.3,0,2018,4,25,16,20,21.91,0.6745,-0.6239,0.3671,0.1445
-0.146,-0.198,-0.61,-11.6,-39.2,-32.1,0,2018,4,25,16,20,21.918,0.6689,-0.6265,0.3718,0.147
-0.278,-0.266,-0.671,15.4,-35.2,-40.2,0,2018,4,25,16,20,21.938,0.6636,-0.6289,0.3744,0.1542
-0.366,-0.267,-0.626,42.4,-13.4,-45.6,0,2018,4,25,16,20,21.958,0.6613,-0.6285,0.3749,0.1642
-0.443,-0.253,-0.558,65.3,23.6,-47.8,0,2018,4,25,16,20,21.974,0.6637,-0.6236,0.3737,0.1755
-0.462,-0.198,-0.502,82.1,55.5,-48.4,0,2018,4,25,16,20,22.013,0.6708,-0.6141,0.3712,0.1867
-0.474,-0.156,-0.44,90.5,56.2,-50.7,0,2018,4,25,16,20,22.032,0.6801,-0.6022,0.3679,0.1985
-0.341,0.121,-0.092,81.1,41.8,-46.4,0,2018,4,25,16,20,22.036,0.6884,-0.5908,0.364,0.2107
-0.631,0.125,0.557,41.9,-14.7,-33.7,0,2018,4,25,16,20,22.054,0.6897,-0.587,0.3608,0.2221
-0.403,-0.014,0.419,18.4,64,-11.8,0,2018,4,25,16,20,22.078,0.691,-0.5839,0.3602,0.2273
-0.153,0.22,0.136,8.4,129.8,17,0,2018,4,25,16,20,22.097,0.7005,-0.5731,0.3622,0.2225
0.021,0.544,0.188,12.8,156.2,42.3,0,2018,4,25,16,20,22.117,0.7159,-0.5575,0.3634,0.2106
0.282,0.483,0.467,3.1,79.3,57.9,0,2018,4,25,16,20,22.137,0.7278,-0.5479,0.3614,0.1984
0.43,0.466,0.758,-15.6,-9.6,62.3,0,2018,4,25,16,20,22.156,0.7301,-0.5508,0.3571,0.1894
0.542,0.461,0.711,-36.7,-27.3,60.5,0,2018,4,25,16,20,22.176,0.7262,-0.5609,0.3535,0.1814
0.596,0.4,0.59,-58.8,-22.6,50.6,0,2018,4,25,16,20,22.195,0.7207,-0.5712,0.3531,0.1719
0.55,0.223,0.39,-71.5,-12.1,36.8,1023,2018,4,25,16,20,22.215,0.7144,-0.58,0.3563,0.1616
0.541,0.096,0.161,-72,0,23.5,1023,2018,4,25,16,20,22.236,0.7085,-0.5866,0.3617,0.1515
0.467,0.078,-0.015,-63.2,-1.7,8.4,1023,2018,4,25,16,20,22.255,0.7035,-0.5907,0.3682,0.1431
0.341,-0.055,-0.216,-50.6,5.2,-2.6,1023,2018,4,25,16,20,22.294,0.6991,-0.5933,0.3746,0.1372
0.201,-0.055,-0.349,-31.5,11.7,-12.7,1023,2018,4,25,16,20,22.313,0.6968,-0.5931,0.3804,0.1334
0.125,-0.129,-0.445,-9.6,-3.4,-19.3,1023,2018,4,25,16,20,22.317,0.6949,-0.5927,0.3845,0.1332
-0.028,-0.316,-0.479,11.3,-10.7,-30.4,1023,2018,4,25,16,20,22.339,0.6932,-0.5926,0.3864,0.1371
-0.18,-0.542,-0.529,35.4,16.7,-47.5,1023,2018,4,25,16,20,22.361,0.6935,-0.5899,0.3875,0.1444
-0.273,-0.581,-0.563,59.4,48.1,-67.6,1023,2018,4,25,16,20,22.38,0.6983,-0.5811,0.3882,0.1542
-0.348,-0.528,-0.385,77,74.4,-87.1,1023,2018,4,25,16,20,22.416,0.7063,-0.5673,0.389,0.1668
-0.362,-0.505,-0.141,81.8,103.5,-107.4,1023,2018,4,25,16,20,22.436,0.7166,-0.5484,0.3909,0.1811
-0.34,-0.379,-0.132,82.7,163.7,-122.7,1023,2018,4,25,16,20,22.44,0.7291,-0.5232,0.3954,0.1955
-0.267,0.077,0.507,48.6,61.9,-136.5,1023,2018,4,25,16,20,22.459,0.7375,-0.4989,0.4031,0.2109
-0.191,-0.041,0.43,32.8,107.6,-127.1,1023,2018,4,25,16,20,22.479,0.7395,-0.4814,0.412,0.2268
0.091,0.169,-0.128,31.4,157.8,-117.3,0,2018,4,25,16,20,22.499,0.7471,-0.4536,0.4237,0.2376
0.119,0.656,-0.225,37,103.9,-100.1,0,2018,4,25,16,20,22.519,0.7534,-0.4291,0.4332,0.2459
0.167,0.676,-0.083,43.8,45.5,-79.4,0,2018,4,25,16,20,22.539,0.7556,-0.4143,0.4374,0.2569
0.132,0.589,0.065,42.8,14.9,-55.4,0,2018,4,25,16,20,22.561,0.7554,-0.407,0.4376,0.2685
0.132,0.443,-0.084,37.2,4.6,-35.6,0,2018,4,25,16,20,22.597,0.7547,-0.4037,0.4358,0.2781
0.157,0.258,-0.161,44.2,33.5,-23.2,0,2018,4,25,16,20,22.619,0.7552,-0.4007,0.4332,0.2852
0.056,0.343,-0.102,43.4,33.4,-14.8,0,2018,4,25,16,20,22.623,0.7581,-0.3949,0.4306,0.2896
0.07,0.064,-0.166,40,-6.7,-13.7,0,2018,4,25,16,20,22.643,0.7588,-0.3935,0.4267,0.295
0.058,-0.184,-0.342,48.5,-15.1,-17,0,2018,4,25,16,20,22.662,0.7577,-0.3956,0.4211,0.3031
-0.004,-0.245,-0.261,54.4,30.6,-25.5,0,2018,4,25,16,20,22.676,0.7585,-0.3934,0.4162,0.3108
0.037,-0.166,-0.249,57.1,71.1,-36.2,0,2018,4,25,16,20,22.716,0.7619,-0.3841,0.4141,0.3167
0.039,0.124,-0.419,70.8,72.5,-39.5,0,2018,4,25,16,20,22.737,0.7667,-0.3711,0.4123,0.3229
-0.045,0.133,-0.161,73.4,3.6,-43.3,0,2018,4,25,16,20,22.741,0.7694,-0.362,0.4076,0.3326
-0.063,-0.213,-0.168,74,6.9,-46.8,0,2018,4,25,16,20,22.78,0.7701,-0.3539,0.4002,0.3485
-0.093,-0.126,-0.094,74.3,65.4,-53.5,0,2018,4,25,16,20,22.799,0.7722,-0.3421,0.3957,0.3604
-0.16,0.056,0.101,63.9,58.1,-56.4,0,2018,4,25,16,20,22.803,0.7752,-0.3253,0.3935,0.3718
-0.237,0.053,0.187,41.9,10.6,-53,0,2018,4,25,16,20,22.841,0.7739,-0.3175,0.3919,0.3828
-0.294,0.238,0.024,25.8,-61.9,-46.8,0,2018,4,25,16,20,22.862,0.7687,-0.318,0.3891,0.3954
-0.169,-0.106,-0.341,25.3,-71.8,-46.5,0,2018,4,25,16,20,22.866,0.7597,-0.3269,0.3834,0.4109
-0.181,0.257,-0.325,35.1,-83.4,-39.2,0,2018,4,25,16,20,22.884,0.7516,-0.334,0.3771,0.4256
-0.27,0.188,-0.168,29.5,-164.1,-31.6,1023,2018,4,25,16,20,22.899,0.7404,-0.3491,0.3653,0.443
-0.357,-0.001,0.083,15.9,-192.6,-23,1023,2018,4,25,16,20,22.938,0.725,-0.3724,0.3498,0.4618
-0.422,-0.122,0.317,-5.6,-145.4,-19.2,1023,2018,4,25,16,20,22.958,0.7089,-0.3949,0.3366,0.4775
-0.468,0.035,0.458,-42.9,-85.7,-9.6,1023,2018,4,25,16,20,22.962,0.6952,-0.4127,0.3312,0.4864
-0.348,0.167,0.295,-73.9,-15.9,9.4,1023,2018,4,25,16,20,22.982,0.685,-0.4264,0.3344,0.4869
-0.263,0.332,0.139,-94.5,25.5,34,1023,2018,4,25,16,20,23.002,0.6797,-0.4361,0.3437,0.4791
-0.218,0.276,0.151,-107.8,40.3,56.5,1023,2018,4,25,16,20,23.042,0.6772,-0.4457,0.355,0.4654
-0.197,0.244,0.122,-113.9,63.7,76.3,1023,2018,4,25,16,20,23.062,0.677,-0.455,0.3669,0.4469
-0.142,0.204,0.003,-110.7,94.5,96.4,1023,2018,4,25,16,20,23.066,0.6804,-0.462,0.3794,0.4236
0.02,0.191,-0.046,-103.5,113.2,111.6,1023,2018,4,25,16,20,23.085,0.6871,-0.4664,0.3912,0.3964
0.058,0.27,-0.301,-88.9,94.1,119.7,1023,2018,4,25,16,20,23.105,0.6952,-0.4698,0.4003,0.3682
0.124,0.266,-0.387,-74.4,54.4,123.7,1023,2018,4,25,16,20,23.125,0.7014,-0.4765,0.4045,0.3423
0.051,0.082,-0.223,-61.4,22.9,122.1,1023,2018,4,25,16,20,23.144,0.7053,-0.4864,0.4044,0.3197
0.006,-0.124,-0.032,-53.4,25.3,116.4,1023,2018,4,25,16,20,23.183,0.7097,-0.4927,0.4024,0.3025
0.08,-0.225,-0.074,-46.4,55.5,104.6,0,2018,4,25,16,20,23.204,0.7142,-0.4994,0.4009,0.2822
0.155,-0.04,-0.162,-38.8,53.3,92.4,0,2018,4,25,16,20,23.208,0.7199,-0.5024,0.4002,0.2626
0.133,0.027,-0.197,-30.2,6.3,81.4,0,2018,4,25,16,20,23.222,0.7231,-0.5074,0.3982,0.2469
0.132,-0.128,-0.346,-19.9,-50.8,65.1,0,2018,4,25,16,20,23.244,0.7214,-0.5178,0.3934,0.2375
0.245,-0.184,-0.369,-6.1,-86.2,45.3,0,2018,4,25,16,20,23.282,0.7155,-0.532,0.3869,0.2347
0.28,-0.192,-0.29,7.8,-108.3,23.8,0,2018,4,25,16,20,23.303,0.7073,-0.5471,0.3793,0.2375
0.21,-0.027,-0.206,15.4,-154.9,8.8,0,2018,4,25,16,20,23.308,0.6957,-0.5641,0.3705,0.2455
0.304,-0.284,-0.217,22.1,-174.6,-8.5,0,2018,4,25,16,20,23.347,0.6796,-0.5841,0.3607,0.2583
0.348,-0.139,-0.043,30.8,-134.2,-22.3,0,2018,4,25,16,20,23.349,0.6641,-0.6003,0.3522,0.2727
0.311,-0.16,-0.032,38.5,-105.9,-30.4,0,2018,4,25,16,20,23.366,0.6532,-0.6085,0.3454,0.289
0.208,0.069,-0.161,49.6,-43.2,-33.8,0,2018,4,25,16,20,23.387,0.6471,-0.6118,0.3405,0.3015
0.098,-0.003,-0.214,62.1,-28,-29.8,0,2018,4,25,16,20,23.424,0.6448,-0.6109,0.3356,0.3133
0.017,-0.069,-0.198,73.6,7.6,-27.4,0,2018,4,25,16,20,23.428,0.646,-0.6068,0.3304,0.3243
-0.088,-0.06,-0.195,85,24.5,-27.3,0,2018,4,25,16,20,23.447,0.6517,-0.5965,0.3252,0.3368
-0.226,-0.11,-0.18,97.4,29.2,-29.6,0,2018,4,25,16,20,23.464,0.6599,-0.5827,0.3187,0.3509
-0.352,-0.085,-0.139,105.7,32.9,-33.8,0,2018,4,25,16,20,23.503,0.6659,-0.5718,0.3118,0.3636
-0.384,0.076,0.266,91.7,35.3,-32.2,0,2018,4,25,16,20,23.524,0.6713,-0.5606,0.3055,0.3762
-0.419,0.325,0.447,57.7,0.8,-25.8,0,2018,4,25,16,20,23.528,0.6741,-0.5528,0.3008,0.3864
-0.483,0.039,0.308,22.8,-61.6,-24.7,0,2018,4,25,16,20,23.563,0.6694,-0.5545,0.2962,0.3955
-0.409,-0.144,0.15,2.1,-41.6,-27.2,0,2018,4,25,16,20,23.584,0.6612,-0.5602,0.2934,0.4034
-0.317,-0.08,0.086,-14.2,-2.6,-27.4,1023,2018,4,25,16,20,23.588,0.6552,-0.5631,0.2953,0.4077
-0.258,0.323,0.07,-28.6,5,-19.2,1023,2018,4,25,16,20,23.626,0.6517,-0.5638,0.3005,0.4086
-0.133,0.281,0.081,-40.3,-28.5,-11.3,1023,2018,4,25,16,20,23.646,0.6459,-0.5684,0.3049,0.4081
-0.089,0.161,0.017,-43.9,-11.5,-2.9,1023,2018,4,25,16,20,23.65,0.6395,-0.5748,0.3087,0.4065
-0.011,0.245,-0.075,-45.3,17.2,4.6,1023,2018,4,25,16,20,23.665,0.6364,-0.5786,0.3137,0.4021
-0.046,0.297,0.013,-52.7,17.9,8.6,1023,2018,4,25,16,20,23.701,0.6352,-0.581,0.3197,0.3956
-0.031,0.206,0.102,-60.7,11.9,11.1,1023,2018,4,25,16,20,23.721,0.633,-0.5849,0.3259,0.3883
-0.014,0.159,0.082,-66.8,20,15.3,1023,2018,4,25,16,20,23.725,0.6309,-0.5891,0.3325,0.3798
0.021,0.113,0.013,-67.1,37.6,19.8,1023,2018,4,25,16,20,23.746,0.632,-0.5884,0.3399,0.3723
0.041,0.147,-0.059,-66.1,69.6,27.6,1023,2018,4,25,16,20,23.768,0.6356,-0.5859,0.3484,0.3622
0.075,0.18,-0.096,-60.5,86.1,34.6,1023,2018,4,25,16,20,23.803,0.6414,-0.5832,0.3571,0.3474
0.12,0.119,-0.096,-53.5,87.3,39.5,1023,2018,4,25,16,20,23.823,0.6486,-0.5795,0.3648,0.332
0.139,0.067,-0.142,-42.8,92.3,41.3,1023,2018,4,25,16,20,23.827,0.6566,-0.5749,0.3712,0.3168
0.176,0.244,-0.205,-31.9,67,42.7,0,2018,4,25,16,20,23.865,0.6646,-0.5702,0.3758,0.3029
0.206,0.181,-0.268,-22.9,3.1,41.8,0,2018,4,25,16,20,23.886,0.6685,-0.5704,0.3765,0.293
0.256,0.093,-0.263,-10.3,-45.6,39.5,0,2018,4,25,16,20,23.89,0.667,-0.5768,0.3731,0.2881
0.261,0.066,-0.389,5,-73.3,35.4,0,2018,4,25,16,20,23.911,0.6625,-0.5865,0.3666,0.2874
0.22,0.034,-0.512,29.6,-87.2,31.7,0,2018,4,25,16,20,23.931,0.657,-0.5969,0.3571,0.2903
0.195,0.009,-0.432,52.7,-94.2,23,0,2018,4,25,16,20,23.95,0.6516,-0.6066,0.3448,0.2972
0.147,0.013,-0.198,64.2,-107.3,12.8,0,2018,4,25,16,20,23.969,0.6455,-0.6157,0.3309,0.3074
0.169,-0.114,-0.037,66,-119.4,4.6,0,2018,4,25,16,20,24.007,0.6372,-0.6255,0.3163,0.32
0.087,-0.251,-0.031,69.2,-91.9,-3.8,0,2018,4,25,16,20,24.029,0.6292,-0.6334,0.3028,0.3332
0.031,-0.309,-0.035,72.3,-51.3,-12.3,0,2018,4,25,16,20,24.033,0.6245,-0.6366,0.2917,0.3457
-0.016,-0.253,-0.003,74.4,-11,-21.3,0,2018,4,25,16,20,24.051,0.6238,-0.6345,0.2838,0.3573
-0.12,-0.239,0.005,76.9,1.7,-30.8,0,2018,4,25,16,20,24.072,0.6253,-0.6289,0.2782,0.3687
-0.325,-0.367,0.261,71,25.8,-41.8,0,2018,4,25,16,20,24.093,0.6277,-0.6211,0.2747,0.3803
-0.334,-0.29,0.456,48.9,78.4,-52,0,2018,4,25,16,20,24.113,0.633,-0.6089,0.2768,0.3895
-0.331,0.236,0.174,23.7,77.8,-50.3,0,2018,4,25,16,20,24.132,0.64,-0.5946,0.2843,0.3948
-0.314,0.384,0.091,10.3,22,-38.1,0,2018,4,25,16,20,24.15,0.6431,-0.5854,0.2906,0.3988
-0.309,0.202,0.19,-4.7,-44.3,-33.5,0,2018,4,25,16,20,24.17,0.6392,-0.5852,0.2927,0.4038
-0.279,-0.062,0.167,-23.9,-54,-33.9,0,2018,4,25,16,20,24.191,0.6305,-0.5906,0.2939,0.4087
-0.253,-0.064,0.055,-36.4,-15.1,-31.6,0,2018,4,25,16,20,24.211,0.6227,-0.5951,0.2982,0.411
-0.137,0.16,-0.085,-40.7,23.3,-24.1,0,2018,4,25,16,20,24.23,0.6194,-0.5956,0.3059,0.4096
-0.06,0.369,-0.116,-39.1,13.3,-14.3,0,2018,4,25,16,20,24.271,0.6182,-0.595,0.3139,0.4062
-0.055,0.241,-0.035,-40.6,-17.6,-6.7,1023,2018,4,25,16,20,24.29,0.6146,-0.5981,0.3187,0.4035
-0.048,0.072,0.108,-47.9,-12,-6.8,1023,2018,4,25,16,20,24.294,0.6099,-0.6023,0.3227,0.4012
0.041,0.185,0.01,-53.1,10.8,-3.9,1023,2018,4,25,16,20,24.314,0.6086,-0.6011,0.3284,0.4003
0.037,0.254,-0.052,-55,19.9,2.3,1023,2018,4,25,16,20,24.334,0.6067,-0.6035,0.3353,0.3938
0.014,0.305,-0.112,-51.9,24.5,9.8,1023,2018,4,25,16,20,24.373,0.606,-0.6054,0.3419,0.3862
0.086,0.307,-0.141,-46.8,31.6,20,1023,2018,4,25,16,20,24.392,0.6071,-0.6066,0.3473,0.3778
0.025,0.227,-0.117,-41.9,50,30.9,1023,2018,4,25,16,20,24.396,0.6101,-0.6069,0.3518,0.3679
-0.04,0.105,-0.074,-37,90.1,41.2,1023,2018,4,25,16,20,24.412,0.6175,-0.6039,0.3566,0.3558
0.018,-0.001,-0.075,-28.9,143,48.7,1023,2018,4,25,16,20,24.45,0.6333,-0.59,0.3628,0.345
0.019,0.032,-0.102,-19.3,184.4,54.5,1023,2018,4,25,16,20,24.469,0.6539,-0.5706,0.3704,0.3309
-0.085,0.366,0.033,-14.9,129.6,56.7,1023,2018,4,25,16,20,24.473,0.6723,-0.5555,0.3761,0.3128
-0.001,0.273,0.064,-21.8,19.5,55.2,1023,2018,4,25,16,20,24.493,0.6805,-0.5523,0.3766,0.2998
0.098,-0.049,-0.096,-25.8,-42.4,51,1023,2018,4,25,16,20,24.512,0.6801,-0.5578,0.3736,0.2943
0.257,-0.087,-0.21,-18.5,-36.4,41.1,0,2018,4,25,16,20,24.534,0.677,-0.5667,0.3697,0.2892
0.309,0.24,-0.424,-3,-85.8,33.3,0,2018,4,25,16,20,24.553,0.6725,-0.5763,0.3644,0.2876
0.353,0.065,-0.431,15.1,-141.6,22.3,0,2018,4,25,16,20,24.593,0.6623,-0.5914,0.3549,0.2924
0.389,0.224,-0.179,29.5,-178.5,9.8,0,2018,4,25,16,20,24.612,0.6488,-0.6083,0.3425,0.3026
0.41,-0.286,-0.123,35.4,-176.9,-8.3,0,2018,4,25,16,20,24.618,0.6305,-0.6273,0.3288,0.3171
0.346,-0.389,-0.194,45.5,-120.9,-21.2,0,2018,4,25,16,20,24.637,0.6155,-0.6403,0.3177,0.3317
0.225,-0.38,-0.17,61.2,-42.1,-32.1,0,2018,4,25,16,20,24.656,0.6081,-0.644,0.3104,0.3449
0.134,-0.153,-0.088,74.9,-0.4,-39.4,0,2018,4,25,16,20,24.674,0.6084,-0.639,0.3065,0.3571
0.01,-0.053,-0.042,82.4,-9.3,-41.8,0,2018,4,25,16,20,24.693,0.612,-0.6281,0.3022,0.3733
-0.122,-0.257,0.003,88.7,-4.4,-45.6,0,2018,4,25,16,20,24.714,0.6139,-0.6191,0.2967,0.3894
-0.343,-0.482,0.303,83.3,48.2,-53.8,0,2018,4,25,16,20,24.753,0.6169,-0.6085,0.2939,0.4032
-0.29,-0.133,0.321,62.9,110.6,-60.6,0,2018,4,25,16,20,24.772,0.6253,-0.5911,0.298,0.413
-0.326,0.18,-0.002,42.1,108.6,-56.8,0,2018,4,25,16,20,24.775,0.6356,-0.5716,0.3069,0.4182
-0.301,0.16,-0.152,41.4,64.4,-58.2,0,2018,4,25,16,20,24.797,0.6424,-0.5555,0.3144,0.4239
-0.261,-0.016,0.074,32.9,-19.6,-64.5,0,2018,4,25,16,20,24.818,0.6418,-0.5471,0.3174,0.4334
-0.422,-0.313,0.173,15.3,-12.4,-72.8,0,2018,4,25,16,20,24.836,0.6353,-0.5444,0.3194,0.4448
-0.364,-0.095,0.003,1.9,24.6,-73.8,0,2018,4,25,16,20,24.856,0.631,-0.5384,0.3263,0.453
-0.246,0.141,-0.107,0.3,34.5,-68.1,0,2018,4,25,16,20,24.875,0.6283,-0.5308,0.3354,0.4592
-0.256,0.293,-0.014,-1.6,37.1,-56.3,0,2018,4,25,16,20,24.895,0.6267,-0.523,0.3441,0.4638
-0.22,0.252,0.286,-18.6,16.2,-49.5,0,2018,4,25,16,20,24.914,0.6242,-0.5178,0.352,0.4671
-0.179,0.214,0.314,-39.4,28.6,-36.8,0,2018,4,25,16,20,24.934,0.6205,-0.5154,0.3608,0.4679
-0.074,0.471,0.13,-51.8,56.7,-15.5,1023,2018,4,25,16,20,24.974,0.6194,-0.5127,0.3718,0.4637
-0.004,0.605,-0.063,-53.2,56.6,10.4,1023,2018,4,25,16,20,24.994,0.621,-0.5105,0.3824,0.4554
-0.018,0.535,-0.059,-52.4,55.9,36.2,1023,2018,4,25,16,20,24.999,0.6242,-0.5103,0.3904,0.4443
-0.068,0.467,-0.004,-51.3,68.1,63.1,1023,2018,4,25,16,20,25.036,0.6299,-0.511,0.3963,0.4299
-0.091,0.349,-0.036,-47.3,92.8,88.3,1023,2018,4,25,16,20,25.057,0.6393,-0.5111,0.4009,0.4114
-0.054,0.224,-0.084,-40.2,110.9,104,1023,2018,4,25,16,20,25.061,0.6522,-0.5093,0.4044,0.3892
0.045,0.238,-0.177,-29.3,103.8,113,1023,2018,4,25,16,20,25.081,0.6667,-0.5067,0.4059,0.3657
0.079,0.28,-0.157,-17.4,57.8,116,1023,2018,4,25,16,20,25.101,0.6795,-0.5066,0.4036,0.3443
0.067,0.142,-0.098,-10,-10.7,111.7,1023,2018,4,25,16,20,25.122,0.6874,-0.5126,0.3964,0.3278
0.072,-0.151,-0.061,-8.7,-47.3,101.6,1023,2018,4,25,16,20,25.141,0.6902,-0.5221,0.3862,0.3189
0.126,-0.091,-0.024,-14,-50.2,81.1,1023,2018,4,25,16,20,25.162,0.69,-0.5346,0.3764,0.3103
0.169,0.163,-0.063,-17.9,-115.8,67.3,1023,2018,4,25,16,20,25.181,0.6863,-0.5464,0.3678,0.3082
0.249,-0.094,-0.578,-2.2,-148.5,60,1023,2018,4,25,16,20,25.198,0.675,-0.568,0.3554,0.3086
0.182,0.347,-0.444,17.9,-174.7,47,1023,2018,4,25,16,20,25.234,0.6634,-0.5882,0.3406,0.3126
0.371,-0.52,-0.255,28.2,-160.3,20.1,0,2018,4,25,16,20,25.254,0.6472,-0.61,0.3242,0.3221
0.35,-0.504,-0.205,35.9,-82.4,-3.1,0,2018,4,25,16,20,25.259,0.6367,-0.6218,0.3131,0.3314
0.247,-0.182,-0.235,49.6,-12.3,-16.2,0,2018,4,25,16,20,25.278,0.6343,-0.6229,0.3073,0.3393
0.167,-0.053,-0.309,66.9,2.8,-23.4,0,2018,4,25,16,20,25.318,0.6359,-0.6186,0.3028,0.348
0.038,-0.016,-0.277,83,-15.2,-30.2,0,2018,4,25,16,20,25.339,0.6376,-0.6131,0.2969,0.3594
-0.054,-0.262,-0.184,96.6,-30.9,-41.7,0,2018,4,25,16,20,25.343,0.6368,-0.6087,0.289,0.3745
-0.147,-0.504,-0.024,102.1,-0.6,-58.4,0,2018,4,25,16,20,25.361,0.6362,-0.6018,0.2817,0.3918
-0.319,-0.477,0.247,91.9,75.2,-70.1,0,2018,4,25,16,20,25.382,0.6403,-0.5876,0.2802,0.4075
-0.275,0.111,0.394,64.7,125.9,-76.8,0,2018,4,25,16,20,25.397,0.6503,-0.5656,0.2868,0.4181
-0.295,0.204,0.164,34.2,59.7,-82.4,0,2018,4,25,16,20,25.434,0.6559,-0.5472,0.2961,0.4271
-0.361,0.117,0.041,19.6,-8.8,-87.9,0,2018,4,25,16,20,25.455,0.6528,-0.5383,0.303,0.4383
-0.182,-0.214,-0.08,17.7,-17.1,-94.5,0,2018,4,25,16,20,25.459,0.6452,-0.534,0.3079,0.4512
-0.236,-0.185,-0.219,26.3,25.9,-94.2,0,2018,4,25,16,20,25.498,0.6391,-0.5266,0.3147,0.4637
-0.296,-0.267,-0.124,32.4,51.4,-95.6,0,2018,4,25,16,20,25.52,0.6376,-0.5128,0.3227,0.4756
-0.39,0.399,0.107,29.7,67.5,-78.5,0,2018,4,25,16,20,25.524,0.6379,-0.498,0.3323,0.4843
-0.25,0.449,0.128,17,19.5,-65.7,0,2018,4,25,16,20,25.543,0.6368,-0.487,0.3396,0.4917
-0.068,0.064,0.056,9.1,2.9,-57.6,0,2018,4,25,16,20,25.579,0.6329,-0.481,0.3436,0.4998
-0.159,0.298,0.258,-0.1,49.6,-38.4,0,2018,4,25,16,20,25.599,0.632,-0.472,0.3487,0.506
-0.153,0.498,0.386,-17.7,87.6,-14.5,0,2018,4,25,16,20,25.603,0.635,-0.4632,0.3581,0.5038
-0.108,0.628,0.242,-35,86.6,11.4,0,2018,4,25,16,20,25.62,0.6405,-0.4553,0.3692,0.4959
-0.063,0.708,0.059,-49,42.6,40,1023,2018,4,25,16,20,25.641,0.6449,-0.4537,0.3773,0.4855
-0.061,0.567,-0.066,-51.4,33.7,69.9,1023,2018,4,25,16,20,25.659,0.649,-0.4577,0.3816,0.4727
-0.032,0.415,-0.061,-51.5,36.5,88.7,1023,2018,4,25,16,20,25.698,0.6549,-0.4633,0.3838,0.4571
-0.058,0.31,-0.039,-50.3,38.1,102.5,1023,2018,4,25,16,20,25.718,0.6621,-0.4695,0.3848,0.4394
-0.127,0.163,-0.031,-46.4,44.1,112.6,1023,2018,4,25,16,20,25.722,0.6702,-0.4757,0.3845,0.4201
-0.189,0.06,-0.032,-41,57.1,119.4,1023,2018,4,25,16,20,25.739,0.68,-0.4805,0.3837,0.3991
-0.123,0.059,-0.034,-37.7,34.4,116.1,1023,2018,4,25,16,20,25.764,0.6896,-0.4852,0.3817,0.3785
-0.063,0.077,-0.025,-37.2,-15.4,110.9,1023,2018,4,25,16,20,25.783,0.6973,-0.4874,0.3773,0.3656
-0.032,-0.184,-0.125,-35.7,-56.6,100.6,1023,2018,4,25,16,20,25.801,0.6995,-0.4971,0.37,0.3555
-0.033,-0.205,-0.178,-29.1,-29.2,91.1,1023,2018,4,25,16,20,25.839,0.6994,-0.5107,0.3628,0.3438
0.046,0.024,-0.24,-21.9,-32,78.1,1023,2018,4,25,16,20,25.86,0.7005,-0.5207,0.3568,0.3328
0.238,-0.072,-0.244,-18.1,-92.8,57.4,1023,2018,4,25,16,20,25.864,0.6974,-0.5336,0.3495,0.3265
0.36,-0.243,-0.295,-9.6,-119.3,37.6,1023,2018,4,25,16,20,25.904,0.6885,-0.5509,0.3403,0.3263
0.32,0.067,-0.217,2.1,-121.3,17.6,1023,2018,4,25,16,20,25.922,0.679,-0.5661,0.3313,0.3295
0.443,-0.338,-0.143,5.3,-155.6,-4.3,0,2018,4,25,16,20,25.927,0.6643,-0.5841,0.3215,0.3377
0.485,-0.353,-0.278,17.7,-86.3,-28.5,0,2018,4,25,16,20,25.944,0.6509,-0.5968,0.3148,0.3477
0.41,-0.186,-0.224,35,-28.8,-42.7,0,2018,4,25,16,20,25.964,0.6445,-0.5993,0.3123,0.3576
0.35,-0.126,-0.241,53.3,8.9,-53.4,0,2018,4,25,16,20,25.984,0.6426,-0.595,0.3118,0.3683
0.234,-0.028,-0.189,71.6,20.5,-60.6,0,2018,4,25,16,20,26.023,0.644,-0.5858,0.3118,0.3803
0.128,-0.129,-0.154,87.5,11.3,-65.9,0,2018,4,25,16,20,26.042,0.6455,-0.5754,0.3102,0.3948
-0.016,-0.255,-0.101,99.7,18.8,-73.8,0,2018,4,25,16,20,26.046,0.6469,-0.5636,0.3073,0.4115
-0.224,-0.465,0.076,96.1,83.6,-81.5,0,2018,4,25,16,20,26.065,0.651,-0.5468,0.3071,0.4275
-0.371,-0.058,0.339,72.8,147.5,-86,0,2018,4,25,16,20,26.085,0.6613,-0.521,0.3149,0.438
-0.401,0.101,0.119,44.8,87.6,-91.2,0,2018,4,25,16,20,26.124,0.6681,-0.4979,0.3254,0.4469
-0.371,-0.072,-0.141,39.1,61.2,-94.6,0,2018,4,25,16,20,26.144,0.6693,-0.4809,0.3343,0.457
-0.333,0.076,-0.125,39.4,20.6,-97.2,0,2018,4,25,16,20,26.148,0.6671,-0.4674,0.341,0.4691
-0.341,-0.009,-0.093,37.8,-1,-96.2,0,2018,4,25,16,20,26.165,0.6618,-0.4577,0.3449,0.4831
-0.406,0.052,-0.021,32.3,6.6,-90.6,0,2018,4,25,16,20,26.204,0.6561,-0.4487,0.3484,0.4966
-0.416,0.181,-0.085,28.3,12.5,-76.5,0,2018,4,25,16,20,26.223,0.6514,-0.4397,0.3524,0.5078
-0.344,0.3,0.067,18.9,-2.6,-62.4,0,2018,4,25,16,20,26.226,0.6473,-0.4324,0.3556,0.517
-0.383,0.315,0.189,2,5.1,-35.7,0,2018,4,25,16,20,26.246,0.6432,-0.4288,0.3578,0.5236
-0.302,0.533,0.044,-9.4,34.6,-4.9,0,2018,4,25,16,20,26.266,0.6427,-0.4255,0.3618,0.5241
-0.262,0.465,0.1,-23.2,55.5,27.1,0,2018,4,25,16,20,26.286,0.6461,-0.4227,0.3669,0.5187
-0.214,0.487,0.166,-38.3,81.2,57.7,1023,2018,4,25,16,20,26.308,0.6531,-0.4204,0.3735,0.507
-0.184,0.467,0.056,-48.2,88.7,87,1023,2018,4,25,16,20,26.345,0.663,-0.419,0.3808,0.4895
-0.097,0.387,-0.036,-50.4,73.7,107,1023,2018,4,25,16,20,26.366,0.6738,-0.4202,0.3863,0.4689
-0.048,0.279,-0.053,-45,47.6,120.9,1023,2018,4,25,16,20,26.371,0.6842,-0.4247,0.3885,0.4477
-0.092,0.189,0.042,-41.6,21.4,128.9,1023,2018,4,25,16,20,26.384,0.6934,-0.4324,0.3867,0.4272
0.013,0.144,0.064,-41.3,-6.2,128.7,1023,2018,4,25,16,20,26.42,0.7007,-0.4426,0.3824,0.4084
0.092,-0.017,-0.009,-39.5,-16.8,121.5,1023,2018,4,25,16,20,26.441,0.7071,-0.4493,0.3768,0.3948
0.054,0.008,-0.093,-34.1,-26.4,114.2,1023,2018,4,25,16,20,26.445,0.7123,-0.4565,0.371,0.3827
-0.035,-0.02,-0.176,-26.6,-32.4,106.5,1023,2018,4,25,16,20,26.467,0.7162,-0.4638,0.3647,0.3724
0.02,-0.157,-0.105,-23.6,-31.4,90.4,1023,2018,4,25,16,20,26.486,0.7191,-0.473,0.3579,0.3619
0.055,-0.221,-0.016,-24.6,-40.4,71.8,1023,2018,4,25,16,20,26.524,0.7197,-0.4839,0.3519,0.3519
0.077,-0.218,-0.056,-23.4,-66.2,51.3,1023,2018,4,25,16,20,26.544,0.7176,-0.4955,0.3466,0.3452
0.207,-0.23,-0.239,-20,-89.3,28.6,1023,2018,4,25,16,20,26.552,0.7116,-0.5093,0.3411,0.3432
0.338,-0.188,-0.354,-4.9,-88.8,7.9,1023,2018,4,25,16,20,26.57,0.7038,-0.5222,0.3357,0.3451
0.345,-0.14,-0.198,8.8,-88.2,-10.6,0,2018,4,25,16,20,26.591,0.6958,-0.5326,0.3301,0.3508
0.309,-0.162,0.009,11.7,-74.8,-28.1,0,2018,4,25,16,20,26.611,0.6872,-0.541,0.3255,0.3591
0.283,-0.033,0.091,10.9,-42.9,-40.5,0,2018,4,25,16,20,26.631,0.6804,-0.5445,0.3238,0.3682
0.274,0.103,0.008,12.7,-30.8,-45.3,0,2018,4,25,16,20,26.67,0.676,-0.5422,0.3248,0.3787
0.232,0.14,-0.064,18.6,-43,-44,0,2018,4,25,16,20,26.674,0.6704,-0.5429,0.3248,0.3875
0.154,-0.028,-0.085,26.9,-34.2,-41,0,2018,4,25,16,20,26.689,0.665,-0.5429,0.3233,0.3978
0.049,-0.104,-0.097,34.6,2.8,-41.2,0,2018,4,25,16,20,26.708,0.6624,-0.5402,0.3226,0.4063
-0.036,-0.07,-0.137,42.4,32.6,-40.9,0,2018,4,25,16,20,26.746,0.6645,-0.5306,0.3232,0.4151
-0.163,-0.029,-0.1,46.8,35.9,-41.6,0,2018,4,25,16,20,26.765,0.6698,-0.5153,0.3236,0.4254
-0.259,-0.14,-0.101,45.8,30.5,-44.4,0,2018,4,25,16,20,26.77,0.673,-0.5035,0.324,0.434
-0.265,-0.183,-0.094,43.9,46.1,-49.4,0,2018,4,25,16,20,26.788,0.6752,-0.4931,0.3256,0.4413
-0.309,-0.059,-0.111,40,58.6,-52.9,0,2018,4,25,16,20,26.808,0.6781,-0.4806,0.3292,0.4479
-0.329,0.001,-0.091,35.5,62.5,-54.4,0,2018,4,25,16,20,26.845,0.6812,-0.4671,0.334,0.4538
-0.336,0.007,-0.038,28,49.2,-55.8,0,2018,4,25,16,20,26.867,0.6832,-0.4546,0.3392,0.4597
-0.288,-0.049,-0.072,21.6,53.9,-56.3,0,2018,4,25,16,20,26.871,0.684,-0.4434,0.3447,0.4653
-0.237,-0.006,-0.246,24.4,74.7,-53.4,0,2018,4,25,16,20,26.89,0.6859,-0.4305,0.3513,0.4698
-0.15,0.01,-0.147,26.9,95,-52.7,0,2018,4,25,16,20,26.927,0.6897,-0.4132,0.359,0.4738
-0.128,0.19,0.028,22.5,96.3,-49.3,0,2018,4,25,16,20,26.947,0.6941,-0.3953,0.3676,0.476
-0.153,0.299,-0.023,18.1,77.3,-43.4,0,2018,4,25,16,20,26.951,0.6975,-0.38,0.3755,0.4773
-0.166,0.357,0.069,8.7,19.1,-39.1,0,2018,4,25,16,20,26.988,0.6982,-0.3701,0.3807,0.4801
-0.181,0.252,0.162,-7.4,-12.6,-29.3,0,2018,4,25,16,20,27.009,0.6952,-0.3681,0.3826,0.4844
-0.189,0.28,0.112,-23.3,-6.8,-15.7,1023,2018,4,25,16,20,27.013,0.6915,-0.3692,0.3851,0.4868
-0.166,0.396,-0.059,-31.8,-1.7,1.9,1023,2018,4,25,16,20,27.033,0.6887,-0.3717,0.3887,0.4861
-0.201,0.261,-0.037,-39.7,13.3,17.3,1023,2018,4,25,16,20,27.053,0.6875,-0.3749,0.3926,0.4822
-0.172,0.09,0.18,-56.1,53.6,29.4,1023,2018,4,25,16,20,27.092,0.6883,-0.3765,0.3995,0.4739
-0.201,0.181,0.243,-74.2,74.8,42.9,1023,2018,4,25,16,20,27.113,0.6912,-0.3762,0.4107,0.4603
-0.076,0.278,0.084,-84.4,41.7,54.2,1023,2018,4,25,16,20,27.117,0.6931,-0.3789,0.4219,0.4448
0.014,0.337,-0.068,-86.1,6.1,63,1023,2018,4,25,16,20,27.131,0.6927,-0.3872,0.4301,0.4302
0.119,0.368,-0.18,-81.8,-17.3,68.5,1023,2018,4,25,16,20,27.17,0.6908,-0.3993,0.4351,0.417
0.144,0.408,-0.169,-77.5,-26.2,72.1,1023,2018,4,25,16,20,27.19,0.6881,-0.4131,0.438,0.4046
0.227,0.453,-0.152,-67.8,-37.8,76.4,1023,2018,4,25,16,20,27.194,0.6855,-0.4275,0.4391,0.3927
0.351,0.261,-0.216,-54.6,-55.6,78.3,1023,2018,4,25,16,20,27.214,0.6825,-0.4433,0.4373,0.3824
0.327,0.292,-0.224,-40.8,-94.6,74.2,1023,2018,4,25,16,20,27.232,0.6781,-0.461,0.432,0.3753
0.256,0.268,-0.199,-30.6,-137.6,69,1023,2018,4,25,16,20,27.253,0.6704,-0.4825,0.4226,0.3727
0.168,0.301,-0.199,-26.5,-183.4,64.2,1023,2018,4,25,16,20,27.275,0.6585,-0.5081,0.4096,0.3745
0.062,-0.024,-0.247,-17.7,-198.8,60.8,0,2018,4,25,16,20,27.312,0.643,-0.5364,0.3936,0.3791
-0.012,-0.152,-0.405,-5.5,-199.3,55.4,0,2018,4,25,16,20,27.334,0.6268,-0.5633,0.376,0.385
-0.133,-0.218,-0.376,8.2,-179.9,47.7,0,2018,4,25,16,20,27.338,0.6116,-0.5868,0.3578,0.3917
-0.299,-0.358,-0.285,12.8,-164.8,30.6,0,2018,4,25,16,20,27.358,0.5972,-0.6064,0.3407,0.3992
-0.295,-0.553,-0.592,23.3,-133.6,4.5,0,2018,4,25,16,20,27.378,0.5837,-0.6214,0.3266,0.4078
-0.405,-0.99,-0.18,26.6,-91.2,-32,0,2018,4,25,16,20,27.394,0.5723,-0.6297,0.3175,0.4183
-0.473,-0.844,0.055,8,-64.4,-69.2,0,2018,4,25,16,20,27.432,0.5614,-0.6328,0.3158,0.4295
-0.343,-0.423,0.374,-13.7,-39.3,-96.2,0,2018,4,25,16,20,27.453,0.5484,-0.6338,0.3216,0.4404
-0.426,-0.067,0.506,-36,-26.7,-104.2,0,2018,4,25,16,20,27.457,0.5363,-0.6326,0.3329,0.4485
-0.262,-0.106,0.439,-53.9,-11,-104.4,0,2018,4,25,16,20,27.475,0.5227,-0.6322,0.347,0.4544
-0.082,0.284,0.309,-65.5,6.7,-88,0,2018,4,25,16,20,27.495,0.5106,-0.6314,0.3629,0.4568
0.234,0.559,0.206,-67.9,53.6,-59.6,0,2018,4,25,16,20,27.516,0.5039,-0.6291,0.3795,0.454
0.335,0.949,0.269,-71,56.8,-26,0,2018,4,25,16,20,27.535,0.5026,-0.6263,0.3951,0.4459
0.4,0.987,0.191,-71.2,28.4,10.1,0,2018,4,25,16,20,27.574,0.5016,-0.6277,0.4053,0.4358
0.408,0.8,0.232,-71.1,10.4,37.1,0,2018,4,25,16,20,27.593,0.5006,-0.6332,0.4102,0.4243
0.304,0.486,0.155,-70.2,1.4,51.8,0,2018,4,25,16,20,27.597,0.4993,-0.6413,0.4116,0.4121
0.183,0.366,0.047,-66.9,-6.2,60.4,0,2018,4,25,16,20,27.615,0.4981,-0.6505,0.4109,0.3996
0.133,0.281,-0.037,-61.3,-21.5,64.5,0,2018,4,25,16,20,27.634,0.4963,-0.6606,0.4084,0.3877
0.15,0.145,-0.271,-50,-39.4,64,0,2018,4,25,16,20,27.656,0.4928,-0.6717,0.4037,0.3779
0.151,0.035,-0.433,-28,-38.5,62.8,0,2018,4,25,16,20,27.692,0.4894,-0.6822,0.3969,0.3707
0.03,0.037,-0.393,-5.4,-31.4,61.2,0,2018,4,25,16,20,27.712,0.4882,-0.6903,0.3886,0.3659
-0.066,0.145,-0.314,11,-47.7,61.4,1023,2018,4,25,16,20,27.716,0.4878,-0.6974,0.3785,0.3637
-0.235,0.127,-0.276,21.3,-88.2,61.8,1023,2018,4,25,16,20,27.754,0.4846,-0.7061,0.3653,0.3647
-0.219,-0.259,-0.404,38.9,-91.8,55.6,1023,2018,4,25,16,20,27.776,0.4786,-0.7158,0.3494,0.3693
-0.257,-0.241,-0.31,51.3,-98.5,41.5,1023,2018,4,25,16,20,27.779,0.4727,-0.7234,0.3333,0.3767
-0.318,-0.2,-0.03,52,-112.9,26.7,1023,2018,4,25,16,20,27.815,0.4647,-0.7304,0.3178,0.3866
-0.342,-0.426,-0.002,45,-120.5,9,1023,2018,4,25,16,20,27.835,0.4532,-0.7377,0.3034,0.3977
-0.333,-0.429,-0.109,41.4,-107.7,-12.8,1023,2018,4,25,16,20,27.839,0.4405,-0.7434,0.2923,0.4095
-0.303,-0.504,-0.148,40.6,-89.6,-34.4,1023,2018,4,25,16,20,27.879,0.428,-0.7467,0.2851,0.4216
-0.337,-0.431,0.198,20.4,-81,-57.5,1023,2018,4,25,16,20,27.898,0.4153,-0.7481,0.2827,0.4334
-0.566,-0.229,0.835,-12.9,-25.6,-62.6,1023,2018,4,25,16,20,27.902,0.4033,-0.7486,0.2861,0.4414
-0.315,-0.06,0.611,-46.4,-17.4,-67.2,1023,2018,4,25,16,20,27.917,0.3948,-0.7487,0.2957,0.4427
-0.336,0.046,0.404,-69,15.6,-56.8,1023,2018,4,25,16,20,27.958,0.3869,-0.75,0.3079,0.4392
-0.171,0.129,0.254,-83.5,12.2,-39.6,1023,2018,4,25,16,20,27.962,0.3807,-0.7523,0.3206,0.4315
0.171,0.186,0.04,-79.6,47.6,-17.3,1023,2018,4,25,16,20,27.977,0.3775,-0.7551,0.3317,0.4208
0.414,0.331,0.012,-68.7,76.5,-3.7,0,2018,4,25,16,20,28.015,0.3808,-0.7557,0.3425,0.4079
0.511,0.517,0.027,-61.9,85.4,5.3,0,2018,4,25,16,20,28.037,0.3882,-0.7546,0.3526,0.3942
0.557,0.582,0.058,-58,67.4,17.8,0,2018,4,25,16,20,28.041,0.3954,-0.7541,0.3603,0.3807
0.547,0.658,0.098,-53.6,35.3,29.3,0,2018,4,25,16,20,28.06,0.4003,-0.7557,0.3644,0.3683
0.556,0.422,-0.045,-42,13,37,0,2018,4,25,16,20,28.097,0.4021,-0.7595,0.3646,0.3583
0.461,0.264,-0.196,-25.5,13.7,41.8,0,2018,4,25,16,20,28.118,0.4041,-0.7632,0.3625,0.3502
0.352,0.072,-0.223,-4.2,29.1,46.1,0,2018,4,25,16,20,28.122,0.4085,-0.7654,0.3589,0.3439
0.189,0.225,-0.201,17.5,46.1,52.1,0,2018,4,25,16,20,28.141,0.4174,-0.765,0.3542,0.3388
0.055,0.153,-0.392,37.5,12.2,52.8,0,2018,4,25,16,20,28.16,0.4264,-0.7644,0.3469,0.3367
-0.041,-0.111,-0.469,58.4,-17.3,45.6,0,2018,4,25,16,20,28.18,0.4315,-0.7648,0.3364,0.3398
-0.215,-0.239,-0.276,74.1,-36.2,34.6,0,2018,4,25,16,20,28.2,0.4341,-0.7653,0.3243,0.3473
-0.354,-0.278,-0.177,81.1,-47.1,18,0,2018,4,25,16,20,28.222,0.4344,-0.7651,0.3122,0.3582
-0.464,-0.351,-0.229,83.8,-39.6,1.1,0,2018,4,25,16,20,28.243,0.4332,-0.7638,0.3019,0.3709
-0.597,-0.412,-0.157,80.5,-19,-20.4,0,2018,4,25,16,20,28.261,0.4333,-0.7599,0.2951,0.3841
-0.761,-0.409,-0.083,68.6,-19.4,-41.1,0,2018,4,25,16,20,28.283,0.4325,-0.7546,0.2923,0.3974
-0.786,-0.177,0.251,37.5,-31.3,-56.3,0,2018,4,25,16,20,28.301,0.4286,-0.75,0.2932,0.4095
-0.874,-0.051,0.745,0.8,11.9,-50,0,2018,4,25,16,20,28.322,0.4241,-0.7466,0.298,0.4168
-0.609,0.036,0.677,-41.8,15.5,-41.1,0,2018,4,25,16,20,28.338,0.4217,-0.7445,0.3069,0.4166
-0.467,0.058,0.527,-72.5,37.5,-22.4,0,2018,4,25,16,20,28.384,0.4196,-0.7452,0.3173,0.4096
-0.074,0.094,0.236,-84.2,50.5,-2.4,0,2018,4,25,16,20,28.386,0.4204,-0.7467,0.328,0.3975
0.446,0.236,-0.065,-76.2,40.2,19,0,2018,4,25,16,20,28.398,0.4219,-0.7495,0.336,0.3836
0.867,0.355,-0.192,-55.4,64.2,30,1023,2018,4,25,16,20,28.436,0.4264,-0.7517,0.3406,0.3701
0.949,0.536,0.075,-40.3,63.9,28.2,1023,2018,4,25,16,20,28.455,0.4345,-0.7512,0.3446,0.3577
0.869,0.53,0.243,-34.1,42.6,27.1,1023,2018,4,25,16,20,28.462,0.4408,-0.7512,0.347,0.3476
0.769,0.412,0.148,-28.9,24.8,21.5,1023,2018,4,25,16,20,28.502,0.4447,-0.752,0.3482,0.3396
0.659,0.249,-0.109,-18.4,10.5,14.5,1023,2018,4,25,16,20,28.52,0.4465,-0.7532,0.3487,0.334
0.504,0.175,-0.185,-2.9,0.3,8.6,1023,2018,4,25,16,20,28.525,0.4472,-0.7541,0.3483,0.3314
0.248,0.176,-0.195,12.8,-7.9,8.9,1023,2018,4,25,16,20,28.544,0.4474,-0.7546,0.3466,0.3317
0.05,0.016,-0.252,26.6,-3.7,7.7,1023,2018,4,25,16,20,28.582,0.4482,-0.7545,0.3436,0.334
-0.092,-0.041,-0.348,43.9,-6.3,6.7,1023,2018,4,25,16,20,28.603,0.4502,-0.7532,0.3395,0.3384
-0.26,-0.081,-0.373,57.3,-14.9,2.7,1023,2018,4,25,16,20,28.608,0.4521,-0.7513,0.3342,0.3454
-0.41,-0.125,-0.272,66.6,-22.4,-2.4,1023,2018,4,25,16,20,28.644,0.4533,-0.7489,0.3281,0.3547
-0.563,-0.268,-0.218,71,-16.5,-12,1023,2018,4,25,16,20,28.648,0.454,-0.7458,0.3222,0.3655
-0.634,-0.293,-0.169,68.4,-2.9,-23.5,1023,2018,4,25,16,20,28.665,0.4554,-0.7411,0.3183,0.3766
-0.694,-0.292,-0.152,62.9,12.5,-36,0,2018,4,25,16,20,28.682,0.4578,-0.7346,0.3174,0.3872
-0.733,-0.103,-0.186,54.9,11,-46.3,0,2018,4,25,16,20,28.721,0.46,-0.727,0.3189,0.3974
-0.497,0.047,0.187,32,9.1,-45,0,2018,4,25,16,20,28.74,0.4591,-0.7212,0.322,0.4065
-0.648,0.379,0.603,-1.1,29.7,-32.8,0,2018,4,25,16,20,28.744,0.4613,-0.7156,0.3274,0.4095
-0.499,-0.176,0.388,-40.6,1.8,-28.2,0,2018,4,25,16,20,28.765,0.4585,-0.715,0.3334,0.4089
-0.228,0.156,-0.056,-52.1,20.5,-17.6,0,2018,4,25,16,20,28.784,0.456,-0.7157,0.3415,0.4038
0.059,0.048,-0.269,-40.2,22.1,-0.4,0,2018,4,25,16,20,28.823,0.4552,-0.7166,0.3475,0.3979
0.175,0.108,-0.065,-25.9,46.9,13.4,0,2018,4,25,16,20,28.844,0.4581,-0.7165,0.3516,0.3911
0.241,0.315,0.197,-23.4,49.2,24.6,0,2018,4,25,16,20,28.848,0.4642,-0.7153,0.3544,0.3835
0.475,0.351,0.318,-25.7,42.8,30.3,0,2018,4,25,16,20,28.864,0.4704,-0.7148,0.3559,0.3753
0.676,0.333,0.389,-26.8,28.9,29.4,0,2018,4,25,16,20,28.883,0.4749,-0.7157,0.3566,0.3674
0.665,0.294,0.452,-26.6,41.3,24,0,2018,4,25,16,20,28.905,0.4794,-0.716,0.3577,0.3597
0.613,0.354,0.404,-31.6,38,18.4,0,2018,4,25,16,20,28.942,0.4841,-0.7157,0.3601,0.3516
0.575,0.311,0.24,-33.6,23.2,8.9,0,2018,4,25,16,20,28.962,0.4866,-0.716,0.363,0.3444
0.46,0.223,0.069,-31.3,13.7,1.4,0,2018,4,25,16,20,28.967,0.487,-0.7168,0.3662,0.3388
0.296,0.149,-0.037,-25.8,10.8,-2.3,0,2018,4,25,16,20,28.985,0.4865,-0.7175,0.3694,0.3345
0.179,0.129,-0.134,-18.9,5.8,-3.9,0,2018,4,25,16,20,29.006,0.486,-0.7178,0.3722,0.3314
0.093,0.048,-0.275,-7.4,1.6,-3.4,0,2018,4,25,16,20,29.026,0.4852,-0.7181,0.374,0.3298
-0.013,0.015,-0.344,9.2,4.6,-2.6,0,2018,4,25,16,20,29.048,0.4854,-0.7176,0.3745,0.3301
-0.151,0.112,-0.401,27.1,-1.9,2,0,2018,4,25,16,20,29.067,0.487,-0.7163,0.3731,0.3322
-0.248,-0.152,-0.526,49,-2.9,-0.1,0,2018,4,25,16,20,29.087,0.4891,-0.7145,0.3694,0.3371
-0.353,-0.149,-0.43,67.8,-5.7,-4.4,0,2018,4,25,16,20,29.103,0.4922,-0.7112,0.3644,0.3449
-0.42,-0.136,-0.325,78.3,-4.6,-9.2,0,2018,4,25,16,20,29.143,0.4958,-0.7067,0.3586,0.355
-0.487,-0.138,-0.337,83.9,-14.7,-12.6,1023,2018,4,25,16,20,29.163,0.499,-0.7016,0.3523,0.3666
-0.537,-0.091,-0.451,88.6,-21.8,-13.5,1023,2018,4,25,16,20,29.167,0.5011,-0.6968,0.3451,0.3795
-0.511,-0.283,0.238,63.2,-43.3,-10.9,1023,2018,4,25,16,20,29.188,0.4987,-0.6949,0.3374,0.3929
-0.698,0.112,0.482,35.2,41.4,-8.4,1023,2018,4,25,16,20,29.209,0.5023,-0.6901,0.3347,0.399
-0.532,-0.18,0.364,0.6,49.4,-4.6,1023,2018,4,25,16,20,29.229,0.5076,-0.6852,0.3368,0.3992
-0.294,-0.081,0.018,-9.9,96.9,6.5,1023,2018,4,25,16,20,29.248,0.5165,-0.6787,0.3426,0.3937
-0.089,0.145,-0.129,-7.5,65.9,19,1023,2018,4,25,16,20,29.287,0.5282,-0.6704,0.3475,0.388
0.138,0.101,-0.239,9.3,44.3,25.9,1023,2018,4,25,16,20,29.307,0.5363,-0.6667,0.3482,0.3828
0.138,0.327,0.195,18.2,26.2,38.9,1023,2018,4,25,16,20,29.311,0.5435,-0.6644,0.3453,0.3791
0.394,0.211,0.489,10.5,22.3,37.1,1023,2018,4,25,16,20,29.332,0.5497,-0.6636,0.3408,0.3757
0.516,0.312,0.654,-9.3,7,28.7,1023,2018,4,25,16,20,29.35,0.5536,-0.6641,0.3378,0.3718
0.591,0.377,0.632,-26,11.3,20.6,1023,2018,4,25,16,20,29.369,0.5549,-0.666,0.3372,0.3669
0.561,0.315,0.529,-37.4,25.6,11.6,1023,2018,4,25,16,20,29.407,0.5563,-0.6671,0.3397,0.3604
0.484,0.309,0.389,-45.8,34.9,3.4,1023,2018,4,25,16,20,29.427,0.5578,-0.6672,0.345,0.3529
0.401,0.273,0.258,-49.5,34.8,-3,0,2018,4,25,16,20,29.431,0.559,-0.6666,0.3518,0.3451
0.288,0.173,0.06,-49.1,31.6,-7.7,0,2018,4,25,16,20,29.448,0.5595,-0.666,0.3593,0.3378
0.227,0.116,-0.147,-40.1,28.2,-10.3,0,2018,4,25,16,20,29.469,0.5595,-0.6651,0.3665,0.3316
0.131,0.082,-0.292,-25.7,22,-11.8,0,2018,4,25,16,20,29.489,0.5597,-0.6638,0.3725,0.3273
0.012,0.08,-0.346,-11.9,0.9,-13.1,0,2018,4,25,16,20,29.511,0.5593,-0.6628,0.3765,0.3255
-0.097,-0.076,-0.41,3.3,-17.7,-13.5,0,2018,4,25,16,20,29.531,0.557,-0.6632,0.3778,0.327
-0.198,-0.151,-0.502,23.4,-16,-14,0,2018,4,25,16,20,29.569,0.5549,-0.6633,0.377,0.3312
-0.312,-0.153,-0.532,44.5,-1.3,-15.2,0,2018,4,25,16,20,29.589,0.5555,-0.6611,0.3749,0.3371
-0.399,-0.118,-0.43,60.4,6.5,-17,0,2018,4,25,16,20,29.593,0.5583,-0.6566,0.3718,0.3446
-0.461,-0.157,-0.353,71.1,12,-18.9,0,2018,4,25,16,20,29.61,0.5626,-0.6504,0.3679,0.3533
-0.485,-0.106,-0.334,78.1,4.4,-19.4,0,2018,4,25,16,20,29.645,0.5673,-0.6435,0.3633,0.3632
