ax,ay,az,dpitch,droll,dyaw,heart,time_1,time_2,time_3,time_4,time_5,time_6,w,x,y,z
-0.21,0.068,0.021,-7.9,60.8,-14.1,0,2018,5,17,21,2,20.471,-0.2725,-0.3566,0.1033,0.8875
-0.04,-0.092,-0.179,-5.9,25.8,-15.4,0,2018,5,17,21,2,20.495,-0.2725,-0.3596,0.1103,0.8855
-0.021,-0.098,-0.178,1.7,19.9,-16.1,0,2018,5,17,21,2,20.511,-0.2734,-0.3613,0.114,0.884
-0.057,-0.104,-0.147,8.2,33,-16.1,0,2018,5,17,21,2,20.53,-0.2738,-0.3621,0.1187,0.883
-0.056,-0.093,-0.008,9.4,61.8,-15.7,0,2018,5,17,21,2,20.553,-0.2727,-0.3626,0.1269,0.882
0.002,0.047,0.066,4.2,67,-18,0,2018,5,17,21,2,20.59,-0.2711,-0.3639,0.1385,0.8802
0.043,0.021,0.06,0.6,66.8,-15.6,0,2018,5,17,21,2,20.612,-0.2695,-0.366,0.1498,0.8779
0.011,0.021,0.027,-2,74.5,-13.3,0,2018,5,17,21,2,20.617,-0.2671,-0.3691,0.1614,0.8753
-0.005,0.013,0.083,-4.7,100.8,-8.2,0,2018,5,17,21,2,20.635,-0.2633,-0.3729,0.1751,0.8722
0.088,0.258,0.2,-16.8,119.7,-2.1,0,2018,5,17,21,2,20.653,-0.2572,-0.3791,0.1925,0.8677
0.111,0.352,0.23,-28.5,104.7,6.5,0,2018,5,17,21,2,20.676,-0.2503,-0.3875,0.2092,0.8621
0.117,0.237,0.18,-36.4,82.8,11.5,0,2018,5,17,21,2,20.693,-0.244,-0.3966,0.2215,0.8567
0.186,0.149,0.106,-39.1,76.9,11.4,0,2018,5,17,21,2,20.711,-0.2385,-0.406,0.2309,0.8513
0.296,-0.009,-0.081,-33.1,92.4,9.3,0,2018,5,17,21,2,20.734,-0.2321,-0.4158,0.241,0.8456
0.336,0.021,-0.225,-23.1,101.1,-1.3,0,2018,5,17,21,2,20.77,-0.2256,-0.424,0.254,0.8395
0.314,0.361,-0.093,-16.8,79.3,-10.2,0,2018,5,17,21,2,20.793,-0.2206,-0.4301,0.2671,0.8335
0.283,0.292,0.007,-15.3,71.5,-9.1,0,2018,5,17,21,2,20.798,-0.2174,-0.4347,0.2778,0.8285
0.245,0.238,0.001,-18.7,88.5,-6.8,0,2018,5,17,21,2,20.813,-0.2129,-0.4408,0.2898,0.8223
0.204,0.229,-0.042,-17.8,68.4,-6.2,0,2018,5,17,21,2,20.836,-0.2083,-0.447,0.3018,0.8158
0.163,0.172,-0.069,-11.2,27.1,-5.2,1023,2018,5,17,21,2,20.855,-0.2061,-0.4509,0.3086,0.8116
0.136,0.097,-0.117,-1.1,-3,-3.1,1023,2018,5,17,21,2,20.892,-0.2063,-0.452,0.3101,0.8105
0.061,0.009,-0.05,7.9,-7.8,-0.4,1023,2018,5,17,21,2,20.914,-0.2067,-0.4514,0.3094,0.8109
0.021,-0.007,-0.041,13.5,-14.5,0.8,1023,2018,5,17,21,2,20.919,-0.2067,-0.4499,0.3083,0.8122
-0.017,-0.039,-0.041,19.5,-29.7,1.5,1023,2018,5,17,21,2,20.936,-0.2071,-0.4472,0.3056,0.8146
-0.07,-0.058,-0.025,24.8,-43,2,1023,2018,5,17,21,2,20.959,-0.2086,-0.4428,0.301,0.8183
-0.105,-0.118,-0.033,28.5,-47.4,2.8,1023,2018,5,17,21,2,20.975,-0.2105,-0.4371,0.2951,0.823
-0.148,-0.168,-0.047,30.4,-49.7,0.1,1023,2018,5,17,21,2,20.993,-0.2124,-0.4307,0.2887,0.8281
-0.165,-0.071,-0.069,33.1,-66.2,-1.8,1023,2018,5,17,21,2,21.016,-0.2155,-0.4234,0.2819,0.8335
-0.209,-0.133,0.003,35.3,-77.6,-0.9,0,2018,5,17,21,2,21.035,-0.2197,-0.415,0.2727,0.8396
-0.213,-0.236,0.013,33.9,-70.9,-1.6,0,2018,5,17,21,2,21.057,-0.2236,-0.407,0.2631,0.8455
-0.159,-0.232,-0.109,32.9,-66.7,-8.1,0,2018,5,17,21,2,21.076,-0.2276,-0.3991,0.2546,0.8508
-0.164,-0.168,-0.296,40.1,-70.9,-11.2,0,2018,5,17,21,2,21.099,-0.2321,-0.3907,0.2464,0.8559
-0.19,-0.281,-0.189,42.7,-60.5,-20.4,0,2018,5,17,21,2,21.118,-0.237,-0.3813,0.2388,0.8609
-0.189,-0.26,0.058,31.1,-18.7,-25.8,0,2018,5,17,21,2,21.155,-0.2421,-0.3728,0.2355,0.8642
-0.257,-0.306,0.176,12.1,96.9,-19.6,0,2018,5,17,21,2,21.176,-0.2421,-0.3702,0.2438,0.863
-0.139,0.169,0.076,-1.2,111.8,-20.1,0,2018,5,17,21,2,21.18,-0.2372,-0.3738,0.263,0.8571
-0.046,0.097,0,1.5,39,-17.3,0,2018,5,17,21,2,21.197,-0.2352,-0.376,0.2753,0.8528
-0.012,0.009,-0.066,6.6,-6.4,-19.5,0,2018,5,17,21,2,21.215,-0.2372,-0.3749,0.2789,0.8516
-0.011,-0.053,-0.005,9.8,-1.5,-18.5,0,2018,5,17,21,2,21.237,-0.24,-0.3726,0.2795,0.8516
0.007,-0.069,0.029,8.4,33.3,-19.1,0,2018,5,17,21,2,21.274,-0.2411,-0.3707,0.2828,0.851
-0.016,0.001,0.058,2.8,53.7,-15,0,2018,5,17,21,2,21.297,-0.2404,-0.3708,0.2907,0.8485
-0.028,0.029,0.08,-1,47.9,-14.2,0,2018,5,17,21,2,21.301,-0.2394,-0.3715,0.2992,0.8455
-0.082,-0.006,0.081,-5,44.1,-15.3,0,2018,5,17,21,2,21.318,-0.239,-0.3726,0.3066,0.8425
0.011,-0.076,-0.02,-3.4,45.1,-21.4,0,2018,5,17,21,2,21.341,-0.239,-0.3738,0.314,0.8393
0.031,-0.147,-0.011,-2.7,52.1,-25.5,0,2018,5,17,21,2,21.36,-0.2391,-0.3753,0.3217,0.8357
0.002,-0.139,0.039,-6,75,-29.4,0,2018,5,17,21,2,21.378,-0.2392,-0.377,0.3324,0.8307
0.005,-0.035,0.052,-9,84.1,-32.3,0,2018,5,17,21,2,21.401,-0.2385,-0.3795,0.3452,0.8244
0.017,0.087,0.038,-11.7,66.8,-36.9,0,2018,5,17,21,2,21.417,-0.2392,-0.3818,0.358,0.8177
0.026,-0.077,0.022,-13.9,57.2,-40.1,0,2018,5,17,21,2,21.436,-0.2415,-0.3838,0.3683,0.8115
-0.007,-0.207,0.068,-18.9,87.5,-45.2,0,2018,5,17,21,2,21.459,-0.2438,-0.3862,0.3803,0.8041
0.012,-0.118,0.029,-22.1,117.3,-49.9,1023,2018,5,17,21,2,21.476,-0.2446,-0.3904,0.3968,0.7938
0.025,0.13,0.029,-22.9,102.6,-57.9,1023,2018,5,17,21,2,21.499,-0.2458,-0.3945,0.415,0.782
0.041,0.141,0.015,-22.3,60.7,-61.2,1023,2018,5,17,21,2,21.535,-0.2501,-0.3966,0.4294,0.7717
0.094,0.042,-0.11,-10.1,19.1,-65.8,1023,2018,5,17,21,2,21.558,-0.2573,-0.3961,0.4383,0.7646
0.158,0.323,-0.35,7.5,16.3,-63.4,1023,2018,5,17,21,2,21.563,-0.2648,-0.3919,0.4448,0.7604
0.223,0.718,-0.542,14.1,20.4,-47.7,1023,2018,5,17,21,2,21.578,-0.2707,-0.3865,0.4511,0.7574
0.115,0.591,-0.24,10.9,123.2,-12,1023,2018,5,17,21,2,21.601,-0.2691,-0.3853,0.4627,0.7515
0.02,0.566,0.127,-5.8,213,17.2,1023,2018,5,17,21,2,21.62,-0.2565,-0.3934,0.4857,0.7371
0.104,0.69,0.178,-19,194.4,36.2,1023,2018,5,17,21,2,21.643,-0.2399,-0.4062,0.5107,0.7186
0.172,0.543,0.023,-14.7,76.1,46.8,1023,2018,5,17,21,2,21.661,-0.2269,-0.4174,0.5239,0.7068
0.17,0.326,-0.175,-1.5,-22.1,54.5,1023,2018,5,17,21,2,21.684,-0.2197,-0.4242,0.5226,0.706
0.109,0.166,-0.269,14.5,-73.1,54.8,0,2018,5,17,21,2,21.7,-0.216,-0.4264,0.5125,0.7132
0.053,0.011,-0.251,27.4,-99.3,54.2,0,2018,5,17,21,2,21.719,-0.2139,-0.4251,0.498,0.7248
-0.028,-0.129,-0.134,35.1,-88.4,52.5,0,2018,5,17,21,2,21.742,-0.2115,-0.4221,0.4829,0.7374
-0.059,-0.173,-0.062,38.3,-67.7,47.9,0,2018,5,17,21,2,21.761,-0.2072,-0.4192,0.4708,0.748
-0.048,-0.156,-0.06,41.2,-63.6,40.3,0,2018,5,17,21,2,21.798,-0.2027,-0.4155,0.4606,0.7576
-0.105,-0.232,0.05,39.9,-55.1,34.8,0,2018,5,17,21,2,21.821,-0.1987,-0.4108,0.4508,0.767
-0.136,-0.247,0.14,33.8,-42.2,25.8,0,2018,5,17,21,2,21.826,-0.1951,-0.4066,0.4436,0.7744
-0.094,-0.212,0.101,32,-65.9,15.9,0,2018,5,17,21,2,21.86,-0.1934,-0.4021,0.4363,0.7812
-0.069,-0.252,-0.035,37.8,-110,5.6,0,2018,5,17,21,2,21.883,-0.1955,-0.3951,0.4241,0.791
-0.106,-0.351,-0.052,42.4,-115.9,-3.3,0,2018,5,17,21,2,21.887,-0.2001,-0.3856,0.4086,0.8026
-0.168,-0.338,0.003,40.1,-91.2,-16.5,0,2018,5,17,21,2,21.901,-0.2054,-0.3753,0.3961,0.8123
-0.178,-0.399,0.004,30.8,-20.8,-19.4,0,2018,5,17,21,2,21.938,-0.2094,-0.3668,0.3903,0.818
-0.192,-0.558,0.034,19,87.1,-26.7,0,2018,5,17,21,2,21.961,-0.2089,-0.3628,0.3973,0.8165
-0.088,-0.046,0.149,7.1,114.6,-41.3,0,2018,5,17,21,2,21.965,-0.2059,-0.3629,0.416,0.8079
-0.106,-0.049,0.16,0.1,86.4,-44,0,2018,5,17,21,2,21.981,-0.2055,-0.3627,0.4325,0.7994
-0.14,0.039,0.142,-8.2,48.6,-43.6,0,2018,5,17,21,2,22.019,-0.2076,-0.3624,0.4447,0.7922
-0.124,-0.091,0.035,-14.8,20.4,-45.5,0,2018,5,17,21,2,22.042,-0.2126,-0.3618,0.4515,0.7874
-0.077,-0.151,-0.056,-17,16,-48.6,0,2018,5,17,21,2,22.046,-0.2197,-0.3605,0.456,0.7834
-0.122,-0.13,-0.078,-18.4,29,-49.1,0,2018,5,17,21,2,22.063,-0.2267,-0.3595,0.4616,0.7785
-0.093,-0.072,-0.106,-16.1,38.6,-50.9,0,2018,5,17,21,2,22.086,-0.233,-0.359,0.4695,0.7722
-0.048,-0.057,-0.118,-10.8,38.4,-52.9,0,2018,5,17,21,2,22.104,-0.2387,-0.3583,0.4783,0.7653
-0.07,-0.097,-0.108,-7.2,31.7,-52.3,1023,2018,5,17,21,2,22.12,-0.2444,-0.3567,0.4866,0.759
-0.098,-0.126,-0.097,-6.4,64,-48.7,1023,2018,5,17,21,2,22.143,-0.2488,-0.3553,0.4963,0.7519
-0.079,-0.015,-0.099,-5.8,81.6,-46.5,1023,2018,5,17,21,2,22.179,-0.2512,-0.355,0.5097,0.7422
-0.038,0.119,-0.069,-5.4,72.8,-44.6,1023,2018,5,17,21,2,22.202,-0.253,-0.3551,0.5233,0.732
0.014,0.276,-0.029,-2.1,40.4,-41.5,1023,2018,5,17,21,2,22.206,-0.2553,-0.3542,0.5339,0.724
0.045,0.409,0.034,2.4,-8.7,-27.4,1023,2018,5,17,21,2,22.222,-0.259,-0.3514,0.5381,0.7209
0.001,0.605,0.079,0.1,-17.6,-0.5,1023,2018,5,17,21,2,22.245,-0.2618,-0.3487,0.5374,0.7217
-0.08,0.561,0.15,-16.9,-24.9,29,1023,2018,5,17,21,2,22.263,-0.2626,-0.3496,0.534,0.7235
-0.051,0.343,0.042,-22.1,-62.7,47.8,1023,2018,5,17,21,2,22.287,-0.2631,-0.3532,0.5254,0.7279
-0.035,-0.108,-0.176,-17.6,-66.4,48.5,0,2018,5,17,21,2,22.303,-0.263,-0.3567,0.5128,0.7351
0.007,-0.656,-0.236,-19.4,12.6,36.9,0,2018,5,17,21,2,22.324,-0.2609,-0.3618,0.5053,0.7386
0.075,-0.527,-0.072,-19.7,112.9,20.4,0,2018,5,17,21,2,22.362,-0.2546,-0.3694,0.5116,0.7327
0.104,-0.031,-0.017,-30.4,161.8,16.6,0,2018,5,17,21,2,22.387,-0.245,-0.3809,0.5273,0.7188
0.172,0.72,-0.004,-41.6,159.2,35.2,0,2018,5,17,21,2,22.39,-0.2342,-0.3949,0.5445,0.7018
0.016,0.583,-0.017,-47,139.6,47.5,0,2018,5,17,21,2,22.404,-0.2232,-0.41,0.5579,0.686
0.117,0.531,-0.069,-46.1,118.3,64.4,0,2018,5,17,21,2,22.425,-0.2122,-0.4259,0.5683,0.6712
0.245,0.506,-0.159,-30.3,61.2,83.4,0,2018,5,17,21,2,22.444,-0.2002,-0.4413,0.5721,0.6616
0.249,0.477,-0.306,-10.2,-2.2,97.3,0,2018,5,17,21,2,22.462,-0.1895,-0.4541,0.5674,0.6601
0.174,0.382,-0.283,6.7,-34.7,105.8,0,2018,5,17,21,2,22.486,-0.1795,-0.4636,0.5568,0.6654
0.154,0.41,-0.309,22.3,-87,107.9,0,2018,5,17,21,2,22.503,-0.1703,-0.4703,0.5416,0.6755
0.099,0.242,-0.289,37.7,-154.7,104.3,0,2018,5,17,21,2,22.527,-0.1649,-0.4729,0.519,0.6926
0.057,0.044,-0.241,47.4,-201.6,98.6,0,2018,5,17,21,2,22.545,-0.1636,-0.4713,0.4896,0.715
0.036,-0.031,-0.282,53.5,-243.4,94.2,0,2018,5,17,21,2,22.565,-0.1654,-0.4664,0.4548,0.7403
-0.005,-0.075,-0.303,59.4,-288,87.4,0,2018,5,17,21,2,22.59,-0.1708,-0.4579,0.4139,0.7679
-0.096,-0.171,-0.254,63.5,-309.3,82.2,0,2018,5,17,21,2,22.604,-0.1788,-0.446,0.3679,0.796
-0.155,-0.292,-0.144,59,-291.3,75.5,0,2018,5,17,21,2,22.622,-0.187,-0.4327,0.3207,0.8215
-0.157,-0.298,-0.102,48.7,-245.4,71.2,0,2018,5,17,21,2,22.645,-0.1931,-0.4199,0.2778,0.842
-0.132,-0.364,-0.218,46.3,-222.2,64.3,1023,2018,5,17,21,2,22.683,-0.1978,-0.4082,0.2401,0.8582
-0.168,-0.378,-0.251,49.9,-205.9,54.4,1023,2018,5,17,21,2,22.706,-0.2019,-0.3958,0.2054,0.8719
-0.266,-0.326,-0.157,52.4,-195.1,45.4,1023,2018,5,17,21,2,22.71,-0.2061,-0.3825,0.1732,0.8838
-0.292,-0.409,-0.074,48.2,-184.6,31.2,1023,2018,5,17,21,2,22.745,-0.2112,-0.3688,0.1431,0.8937
-0.251,-0.479,-0.086,42.9,-168.8,15.5,1023,2018,5,17,21,2,22.765,-0.2177,-0.3556,0.1157,0.9014
-0.181,-0.531,-0.139,42,-152,-1.9,1023,2018,5,17,21,2,22.77,-0.2257,-0.3429,0.0914,0.9072
-0.161,-0.567,-0.079,39,-121.1,-19.1,1023,2018,5,17,21,2,22.788,-0.2351,-0.3307,0.0718,0.9111
-0.142,-0.447,0.035,32.5,-68.6,-31.5,1023,2018,5,17,21,2,22.81,-0.2445,-0.3206,0.0595,0.9131
-0.157,-0.29,0.151,21.1,4.1,-34.8,0,2018,5,17,21,2,22.827,-0.2512,-0.3147,0.0576,0.9134
-0.107,-0.092,0.142,8.4,49.2,-36.6,0,2018,5,17,21,2,22.85,-0.2553,-0.3134,0.0649,0.9123
-0.071,0.018,0.074,1,69.8,-33.5,0,2018,5,17,21,2,22.866,-0.2574,-0.3147,0.0771,0.9103
-0.003,0.055,0.063,-2.8,47.3,-33.8,0,2018,5,17,21,2,22.885,-0.2595,-0.3166,0.089,0.9079
0.039,0.07,-0.024,-2,12.2,-32.4,0,2018,5,17,21,2,22.907,-0.2634,-0.3179,0.0958,0.9057
-0.024,-0.004,-0.035,0.6,-12.2,-33.4,0,2018,5,17,21,2,22.942,-0.2687,-0.3177,0.0977,0.904
0.012,-0.074,-0.053,0.9,6.9,-35.2,0,2018,5,17,21,2,22.962,-0.2742,-0.317,0.0986,0.9025
0.002,-0.048,-0.023,-3.3,69.6,-30.7,0,2018,5,17,21,2,22.968,-0.2792,-0.3207,0.1148,0.8977
0.019,0.016,0,-6.9,65.1,-35.5,0,2018,5,17,21,2,23.004,-0.2805,-0.3244,0.1275,0.8942
0.057,-0.008,-0.014,-5,44.1,-39.9,0,2018,5,17,21,2,23.025,-0.2833,-0.3275,0.1376,0.8907
0.056,-0.088,-0.034,-0.9,23.8,-45.7,0,2018,5,17,21,2,23.031,-0.288,-0.329,0.1445,0.8875
0.04,-0.239,-0.131,2.8,53.8,-49.1,0,2018,5,17,21,2,23.048,-0.2934,-0.3294,0.1527,0.8843
0.033,-0.251,-0.184,4.8,151.8,-47.6,0,2018,5,17,21,2,23.071,-0.2951,-0.3325,0.1708,0.8792
-0.002,-0.036,-0.164,0.1,273.9,-39.1,0,2018,5,17,21,2,23.088,-0.2887,-0.3423,0.2065,0.8699
0.02,0.084,-0.151,-10,372.6,-27.7,0,2018,5,17,21,2,23.106,-0.2738,-0.3583,0.2579,0.8544
0.099,0.205,-0.168,-15.6,440.4,-22.1,0,2018,5,17,21,2,23.129,-0.2514,-0.3779,0.3195,0.8317
0.118,0.243,-0.251,-17.3,466.3,-21.1,0,2018,5,17,21,2,23.148,-0.2247,-0.398,0.385,0.8017
0.064,0.309,-0.185,-23.7,480.5,-18.2,0,2018,5,17,21,2,23.171,-0.1948,-0.417,0.4509,0.7646
0.041,0.542,-0.041,-20.2,416.6,-17.3,0,2018,5,17,21,2,23.189,-0.1653,-0.4328,0.5105,0.7243
0.003,0.425,0.112,-16.5,296.8,-16.2,0,2018,5,17,21,2,23.212,-0.1425,-0.4424,0.5552,0.6896
0.047,0.212,0.115,-26.2,229,-15.2,0,2018,5,17,21,2,23.231,-0.1268,-0.449,0.5857,0.6627
0.024,0.022,0.092,-37.8,198.3,-24.8,0,2018,5,17,21,2,23.249,-0.1158,-0.4548,0.6101,0.6382
-0.004,0,-0.072,-38.7,169.5,-29,0,2018,5,17,21,2,23.272,-0.1089,-0.4594,0.6314,0.615
-0.032,0.053,-0.171,-34.7,169,-20.9,1023,2018,5,17,21,2,23.308,-0.1021,-0.4635,0.6507,0.5926
0.008,0.515,-0.098,-32.7,144.7,2.9,1023,2018,5,17,21,2,23.308,-0.0946,-0.4684,0.6673,0.5711
0.07,0.555,0.117,-30,84,33.1,1023,2018,5,17,21,2,23.331,-0.0868,-0.4756,0.6765,0.5554
0.132,0.487,0.021,-27.7,3.7,61.2,1023,2018,5,17,21,2,23.35,-0.082,-0.4848,0.6763,0.5484
0.136,0.484,-0.252,-16.9,-96.4,75.8,1023,2018,5,17,21,2,23.368,-0.0824,-0.4942,0.6655,0.5531
0.149,0.466,-0.432,0.1,-193.7,78.8,1023,2018,5,17,21,2,23.391,-0.0889,-0.5017,0.6442,0.5703
0.143,0.287,-0.472,17.9,-255.8,83.1,1023,2018,5,17,21,2,23.428,-0.0998,-0.5058,0.6137,0.5978
0.119,0.196,-0.398,32.3,-280.4,87.5,1023,2018,5,17,21,2,23.451,-0.1118,-0.5069,0.5777,0.6298
0.095,0.114,-0.384,39.8,-298.8,88.4,1023,2018,5,17,21,2,23.456,-0.1241,-0.5054,0.5377,0.6633
0.095,0.008,-0.348,45.9,-299.2,85.1,0,2018,5,17,21,2,23.473,-0.1363,-0.5013,0.4952,0.6962
0.064,-0.058,-0.252,49.9,-287.4,79.6,0,2018,5,17,21,2,23.491,-0.1476,-0.4947,0.4527,0.7269
0.044,-0.113,-0.23,53.1,-278.5,72.9,0,2018,5,17,21,2,23.512,-0.158,-0.4863,0.411,0.7546
0.034,-0.221,-0.245,56.8,-267.3,63.8,0,2018,5,17,21,2,23.552,-0.1681,-0.4758,0.3702,0.7798
-0.018,-0.266,-0.184,60,-253.4,53.1,0,2018,5,17,21,2,23.552,-0.1776,-0.4634,0.3313,0.8023
-0.04,-0.233,-0.114,60.4,-249.6,45.2,0,2018,5,17,21,2,23.575,-0.1875,-0.4495,0.2936,0.8225
-0.083,-0.351,-0.071,60.7,-230.5,38.3,0,2018,5,17,21,2,23.592,-0.1971,-0.4346,0.2574,0.8401
-0.099,-0.271,-0.045,57.1,-204.5,30,0,2018,5,17,21,2,23.627,-0.2058,-0.4196,0.225,0.8549
-0.121,-0.291,-0.068,54.9,-198.6,24.2,0,2018,5,17,21,2,23.65,-0.214,-0.4049,0.195,0.8672
-0.181,-0.32,-0.072,51.2,-206.9,15.1,0,2018,5,17,21,2,23.652,-0.2234,-0.3896,0.1647,0.8781
-0.223,-0.41,-0.032,47.7,-195.1,7,0,2018,5,17,21,2,23.69,-0.234,-0.3742,0.1345,0.8871
-0.232,-0.406,-0.05,42.8,-152.6,-2.4,0,2018,5,17,21,2,23.712,-0.2439,-0.3599,0.1092,0.8938
-0.232,-0.299,-0.07,39.7,-126.9,-10.9,0,2018,5,17,21,2,23.714,-0.2528,-0.3476,0.09,0.8984
-0.244,-0.523,-0.228,41.5,-99.1,-23.2,0,2018,5,17,21,2,23.751,-0.2616,-0.3358,0.0748,0.9017
-0.258,-0.254,0.134,24.5,-0.9,-44.4,0,2018,5,17,21,2,23.774,-0.2783,-0.3192,0.0667,0.9034
-0.227,-0.046,0.117,11.8,31.5,-42.6,0,2018,5,17,21,2,23.779,-0.2839,-0.3167,0.0729,0.902
-0.109,0.05,-0.074,7.8,35.8,-40.6,0,2018,5,17,21,2,23.793,-0.2885,-0.3164,0.0815,0.8999
-0.059,0.059,-0.099,9.2,33.2,-36.3,0,2018,5,17,21,2,23.812,-0.2927,-0.3165,0.0906,0.8977
-0.061,0.018,-0.044,9.7,32.6,-35.6,0,2018,5,17,21,2,23.835,-0.2965,-0.3161,0.0988,0.8957
-0.013,0.042,0,8.5,25.3,-35.4,1023,2018,5,17,21,2,23.853,-0.3004,-0.3154,0.1062,0.8938
-0.01,-0.026,-0.002,6.3,25.8,-35.8,1023,2018,5,17,21,2,23.877,-0.3045,-0.3148,0.1124,0.8918
0.036,-0.001,-0.047,7.4,19.4,-41.2,1023,2018,5,17,21,2,23.894,-0.3089,-0.3146,0.1187,0.8896
0.023,-0.026,-0.045,10.3,10.5,-46.1,1023,2018,5,17,21,2,23.917,-0.3146,-0.3135,0.1236,0.8873
0.034,-0.112,0.052,9.4,22,-53.2,1023,2018,5,17,21,2,23.935,-0.3212,-0.3114,0.1282,0.885
0.092,0.006,0.04,3.9,45.1,-58.1,1023,2018,5,17,21,2,23.973,-0.3276,-0.3111,0.1363,0.8816
0.097,0.013,-0.007,6,38.3,-59.4,1023,2018,5,17,21,2,23.994,-0.3338,-0.3123,0.1461,0.8772
0.027,-0.004,0.033,7.3,32.6,-63.7,1023,2018,5,17,21,2,23.999,-0.341,-0.312,0.1549,0.873
0,0.085,0.052,6.8,33.8,-62.4,1023,2018,5,17,21,2,24.016,-0.3487,-0.3111,0.1639,0.8687
0.007,-0.063,0.044,3.9,36.4,-65.4,0,2018,5,17,21,2,24.039,-0.3723,-0.3083,0.187,0.8551
0.026,0.11,0.007,1.8,35.5,-63.5,0,2018,5,17,21,2,24.076,-0.3798,-0.3081,0.1963,0.8498
0.02,0.182,0.039,-2.3,47.8,-54.1,0,2018,5,17,21,2,24.076,-0.3864,-0.3091,0.2062,0.8441
-0.032,0.262,0.155,-11,48.6,-40.7,0,2018,5,17,21,2,24.099,-0.3909,-0.3118,0.216,0.8385
-0.07,0.169,0.122,-19.5,64.8,-24.5,0,2018,5,17,21,2,24.118,-0.3935,-0.316,0.2254,0.8332
-0.051,-0.065,-0.085,-19.1,82.1,-15.1,0,2018,5,17,21,2,24.135,-0.393,-0.3233,0.2362,0.8277
-0.036,-0.218,-0.091,-13.4,99.9,-18.5,0,2018,5,17,21,2,24.158,-0.3906,-0.3314,0.2488,0.8219
-0.041,0.139,0.062,-18.5,72.3,-20.7,0,2018,5,17,21,2,24.176,-0.3893,-0.3384,0.2617,0.8156
-0.089,0.135,0.058,-23.4,22.2,-15.2,0,2018,5,17,21,2,24.199,-0.3901,-0.3438,0.2681,0.8109
-0.144,-0.315,-0.028,-24.2,5.3,-18.4,0,2018,5,17,21,2,24.216,-0.3931,-0.3468,0.2686,0.808
-0.131,-0.713,0.002,-36.2,85.5,-21.7,0,2018,5,17,21,2,24.239,-0.3952,-0.3527,0.2732,0.8029
-0.189,-0.61,0.197,-57.1,308.6,-17.3,0,2018,5,17,21,2,24.258,-0.3879,-0.3711,0.2985,0.789
-0.217,-0.275,0.065,-87.1,504.1,4.5,0,2018,5,17,21,2,24.279,-0.3648,-0.4081,0.3502,0.76
-0.104,0.426,-0.205,-107.9,592,34.8,0,2018,5,17,21,2,24.297,-0.3253,-0.4568,0.4161,0.7157
0.081,0.71,-0.195,-102.5,395.1,42.6,0,2018,5,17,21,2,24.314,-0.2865,-0.5001,0.4679,0.6699
0.136,0.231,-0.162,-88.7,135.6,37.5,0,2018,5,17,21,2,24.337,-0.2672,-0.5268,0.4891,0.6416
0.103,-0.138,-0.109,-78.7,61.8,35.3,0,2018,5,17,21,2,24.373,-0.263,-0.5426,0.4907,0.6288
0.17,0.104,-0.318,-67.2,101.9,36.5,0,2018,5,17,21,2,24.396,-0.2578,-0.5575,0.4929,0.6162
0.304,0.487,-0.682,-30.9,120,51.1,0,2018,5,17,21,2,24.401,-0.246,-0.5716,0.4987,0.6032
0.403,0.591,-0.719,14.3,78.7,58.8,0,2018,5,17,21,2,24.417,-0.2304,-0.5815,0.5034,0.596
0.406,0.678,-0.51,45.4,-14.4,59.8,1023,2018,5,17,21,2,24.44,-0.2183,-0.5846,0.5019,0.5988
0.37,0.694,-0.333,65.9,-90.5,64.8,1023,2018,5,17,21,2,24.477,-0.2124,-0.5822,0.492,0.6113
0.229,0.605,-0.147,75.1,-146.2,72.1,1023,2018,5,17,21,2,24.5,-0.2118,-0.5756,0.4748,0.631
0.214,0.135,-0.165,78.2,-119.2,78.9,1023,2018,5,17,21,2,24.505,-0.2106,-0.5681,0.4548,0.6526
0.162,0.109,-0.049,72.4,-87,73.6,1023,2018,5,17,21,2,24.518,-0.2052,-0.5621,0.4387,0.6703
0.069,-0.106,0.033,67.3,-97.2,63.7,1023,2018,5,17,21,2,24.539,-0.2002,-0.5561,0.4231,0.6866
0.106,-0.168,-0.027,64.8,-78.4,59.7,1023,2018,5,17,21,2,24.576,-0.1966,-0.5496,0.4081,0.7018
0.128,-0.014,-0.073,62.5,-66.9,56.1,1023,2018,5,17,21,2,24.599,-0.1907,-0.5441,0.3959,0.7146
0.103,-0.001,-0.192,70.1,-111.4,47.6,1023,2018,5,17,21,2,24.603,-0.1879,-0.5364,0.3821,0.7285
-0.022,-0.048,-0.114,75.6,-161.9,37.6,1023,2018,5,17,21,2,24.617,-0.1905,-0.5253,0.3628,0.7456
-0.038,-0.229,-0.349,92.6,-185.3,29,1023,2018,5,17,21,2,24.64,-0.1968,-0.5101,0.3394,0.7653
-0.12,-0.219,-0.15,87,-175.3,23.6,1023,2018,5,17,21,2,24.679,-0.2039,-0.4932,0.3157,0.7845
-0.241,-0.362,0.118,69.6,-151.4,18.4,1023,2018,5,17,21,2,24.679,-0.2104,-0.4777,0.2942,0.8005
-0.204,-0.454,0.046,58.2,-148.3,9.4,1023,2018,5,17,21,2,24.702,-0.2176,-0.4639,0.2744,0.8136
-0.204,-0.77,-0.141,62.9,-110.5,0.8,0,2018,5,17,21,2,24.72,-0.2245,-0.4505,0.2572,0.8248
-0.234,-0.812,-0.067,54.8,-46.1,-28.5,0,2018,5,17,21,2,24.742,-0.2299,-0.4385,0.2495,0.8321
-0.271,-0.469,0.279,43.1,24.6,-43.1,0,2018,5,17,21,2,24.778,-0.2335,-0.4293,0.2537,0.8346
-0.307,-0.448,0.438,23.1,11.3,-53.2,0,2018,5,17,21,2,24.802,-0.2386,-0.4226,0.2606,0.8345
-0.234,-0.538,0.175,2.3,81.5,-65.1,0,2018,5,17,21,2,24.806,-0.2433,-0.4201,0.2718,0.8308
-0.186,-0.413,-0.077,-8.6,162.9,-73.9,0,2018,5,17,21,2,24.821,-0.2444,-0.4226,0.2948,0.8213
-0.205,-0.152,-0.163,-10.5,195.5,-78,0,2018,5,17,21,2,24.857,-0.2419,-0.4282,0.3263,0.8071
-0.084,0.058,-0.107,-5.3,168.3,-75.7,0,2018,5,17,21,2,24.88,-0.2393,-0.4325,0.3577,0.7922
-0.043,-0.072,-0.172,1.8,128.5,-75.2,0,2018,5,17,21,2,24.885,-0.2386,-0.434,0.3833,0.7794
-0.021,-0.062,-0.203,7,129.3,-77.3,0,2018,5,17,21,2,24.9,-0.2392,-0.4332,0.4062,0.7681
-0.075,-0.078,-0.2,12,139.7,-82.9,0,2018,5,17,21,2,24.923,-0.239,-0.4317,0.4305,0.7556
-0.076,-0.048,-0.181,15.9,133.5,-88.3,0,2018,5,17,21,2,24.941,-0.2386,-0.4291,0.4558,0.7423
-0.024,-0.026,-0.169,22.6,110.5,-91.7,0,2018,5,17,21,2,24.962,-0.2398,-0.4241,0.4787,0.7303
-0.069,0.065,-0.152,27.5,109,-89.1,0,2018,5,17,21,2,24.999,-0.241,-0.4178,0.5003,0.7189
-0.145,0.21,-0.02,26.1,108.9,-83.7,0,2018,5,17,21,2,25.023,-0.2416,-0.4111,0.5212,0.7077
-0.137,0.266,0.027,21.3,92.7,-76.2,0,2018,5,17,21,2,25.027,-0.2419,-0.4052,0.5405,0.6964
-0.078,0.137,0.011,19,67.3,-69.1,0,2018,5,17,21,2,25.043,-0.2439,-0.3984,0.5566,0.6869
-0.043,0.092,0.062,16.7,62.1,-62.9,1023,2018,5,17,21,2,25.059,-0.2463,-0.3918,0.5694,0.6792
-0.116,0.165,0.173,1.6,100.7,-49,1023,2018,5,17,21,2,25.083,-0.2468,-0.388,0.583,0.6697
-0.049,0.3,0.051,-8.6,104.5,-40.1,1023,2018,5,17,21,2,25.103,-0.2451,-0.3887,0.5985,0.6561
-0.002,0.145,-0.012,-5.8,52.7,-35.5,1023,2018,5,17,21,2,25.141,-0.2454,-0.3886,0.6096,0.6458
0.019,0.002,-0.086,-0.1,29.7,-36.5,1023,2018,5,17,21,2,25.163,-0.2471,-0.3868,0.6164,0.6397
-0.054,0.025,-0.02,7.7,29.5,-35.1,0,2018,5,17,21,2,25.167,-0.2482,-0.384,0.6228,0.6347
-0.043,-0.105,-0.021,5,62.8,-37.1,0,2018,5,17,21,2,25.184,-0.2492,-0.3807,0.6301,0.6291
-0.01,0.042,0.012,24.4,-41.1,-14.5,0,2018,5,17,21,2,25.222,-0.2501,-0.368,0.6456,0.6205
-0.041,-0.069,0.059,21.6,-39.4,-13.9,0,2018,5,17,21,2,25.246,-0.252,-0.3617,0.6429,0.6263
0.008,-0.202,-0.014,16.9,-13.7,-19,0,2018,5,17,21,2,25.25,-0.2533,-0.3565,0.6416,0.63
0.002,-0.402,0.097,8,59,-21.8,0,2018,5,17,21,2,25.264,-0.2524,-0.3541,0.6452,0.6281
-0.043,-0.045,0.23,-9.6,111.6,-25.6,0,2018,5,17,21,2,25.301,-0.2493,-0.3557,0.657,0.6161
-0.01,-0.001,0.06,-19.9,106.6,-25.4,0,2018,5,17,21,2,25.324,-0.2472,-0.359,0.6693,0.6016
0.011,0.031,-0.065,-20.7,107.8,-25.7,0,2018,5,17,21,2,25.328,-0.2454,-0.3629,0.6812,0.5864
-0.015,0.136,-0.168,-11.5,86.6,-24.6,0,2018,5,17,21,2,25.346,-0.2435,-0.3659,0.6925,0.5719
-0.012,0.17,-0.157,2.8,66.4,-20.8,0,2018,5,17,21,2,25.363,-0.2412,-0.3669,0.702,0.5605
-0.027,0.236,-0.097,11.3,38.3,-9.3,0,2018,5,17,21,2,25.386,-0.2384,-0.3664,0.7087,0.5536
0.004,0.318,-0.229,18.4,-5.7,3.8,0,2018,5,17,21,2,25.407,-0.236,-0.3652,0.7113,0.5521
0.047,0.149,0.102,21.9,-32.2,11.3,0,2018,5,17,21,2,25.425,-0.2339,-0.363,0.7092,0.5571
-0.047,0.097,0.244,13.8,-43.3,13.9,0,2018,5,17,21,2,25.448,-0.2327,-0.3615,0.7053,0.5635
-0.08,0.268,0.177,7.3,-117.4,16.1,0,2018,5,17,21,2,25.465,-0.2348,-0.3593,0.6972,0.574
-0.001,0.002,-0.013,10.4,-185.3,15.1,0,2018,5,17,21,2,25.505,-0.2424,-0.3534,0.6801,0.5947
0.018,-0.451,-0.172,17.1,-115.7,14.9,0,2018,5,17,21,2,25.508,-0.2488,-0.3472,0.6629,0.6148
-0.017,-0.128,-0.101,20.9,-28.3,10.7,0,2018,5,17,21,2,25.524,-0.2487,-0.3442,0.6567,0.6231
-0.002,0.044,-0.006,26.5,-12,12.6,0,2018,5,17,21,2,25.562,-0.2455,-0.3424,0.6558,0.6262
-0.097,0.142,0.169,24.1,-43.6,22.7,1023,2018,5,17,21,2,25.584,-0.2421,-0.3404,0.6531,0.6315
-0.07,0.072,0.156,17.2,-95.8,31.2,1023,2018,5,17,21,2,25.589,-0.2412,-0.3381,0.6442,0.6421
-0.09,-0.199,0.167,9.7,-99.8,35,1023,2018,5,17,21,2,25.608,-0.2421,-0.3359,0.631,0.6559
-0.119,-0.175,0.132,2,-33,39.7,1023,2018,5,17,21,2,25.627,-0.241,-0.3363,0.6213,0.6653
-0.148,-0.105,0.092,0.6,3.2,48.9,1023,2018,5,17,21,2,25.649,-0.2361,-0.3407,0.6178,0.6681
-0.175,-0.134,-0.001,5.9,-10.6,55.4,1023,2018,5,17,21,2,25.666,-0.2299,-0.3459,0.6148,0.6703
-0.077,-0.111,-0.156,18.9,-35.3,63.2,1023,2018,5,17,21,2,25.689,-0.2233,-0.3497,0.6086,0.6762
0.039,-0.147,-0.242,36.1,-36.2,68,1023,2018,5,17,21,2,25.726,-0.2148,-0.3519,0.6011,0.6845
-0.025,-0.176,-0.117,47.6,-0.8,76.1,1023,2018,5,17,21,2,25.749,-0.2027,-0.3536,0.5961,0.6916
-0.052,-0.179,-0.021,54.3,31.3,86.9,0,2018,5,17,21,2,25.754,-0.1862,-0.3567,0.5954,0.6953
-0.117,-0.134,0.108,55.8,31.2,95.5,0,2018,5,17,21,2,25.768,-0.1673,-0.3604,0.5954,0.6981
-0.11,-0.131,0.162,48.7,11,104.7,0,2018,5,17,21,2,25.786,-0.1481,-0.365,0.5931,0.702
0.043,-0.2,-0.098,53.8,21.8,109.2,0,2018,5,17,21,2,25.809,-0.1287,-0.3702,0.5885,0.707
0.073,-0.279,-0.17,64.3,87.6,115.6,0,2018,5,17,21,2,25.828,-0.1053,-0.3755,0.5887,0.7079
0.051,0.142,-0.162,81.6,129.8,122.6,0,2018,5,17,21,2,25.846,-0.0755,-0.3806,0.5964,0.7026
0.074,0.296,-0.186,99.6,92.5,127.3,0,2018,5,17,21,2,25.869,-0.0429,-0.3837,0.6032,0.6978
0.024,0.081,-0.155,112.1,23.4,130.4,0,2018,5,17,21,2,25.906,-0.0123,-0.3846,0.6015,0.6999
0.032,-0.079,-0.024,116.3,1.6,123.1,0,2018,5,17,21,2,25.929,0.016,-0.384,0.5942,0.7064
0.022,-0.037,0.098,114.3,9.5,120.3,0,2018,5,17,21,2,25.934,0.044,-0.3825,0.5857,0.7131
0.026,-0.015,0.286,105.4,-5.2,112.6,0,2018,5,17,21,2,25.949,0.0698,-0.3804,0.5768,0.7194
0.079,-0.08,0.037,100.1,9.6,108.3,0,2018,5,17,21,2,25.972,0.094,-0.3786,0.5679,0.7247
0.068,0.008,-0.199,109.5,29.6,103,0,2018,5,17,21,2,25.989,0.1194,-0.3756,0.5618,0.7272
0.02,-0.009,-0.274,130,15,98.7,0,2018,5,17,21,2,26.007,0.1456,-0.3698,0.5555,0.7303
0.048,-0.08,-0.123,142.5,-22.6,81.3,0,2018,5,17,21,2,26.028,0.17,-0.361,0.5451,0.7372
0.14,-0.244,-0.05,151,-47.2,52.8,0,2018,5,17,21,2,26.066,0.1903,-0.3493,0.5318,0.7475
0.065,-0.226,-0.015,159,-60.2,28.9,0,2018,5,17,21,2,26.089,0.2063,-0.3344,0.5167,0.7606
-0.025,-0.151,-0.021,162.6,-56.4,13.1,0,2018,5,17,21,2,26.094,0.2202,-0.3171,0.5012,0.7743
-0.104,0.122,0.108,158,-61.7,7.1,0,2018,5,17,21,2,26.11,0.2325,-0.2981,0.4862,0.7877
-0.039,0.074,0.117,152,-101.5,2.5,0,2018,5,17,21,2,26.132,0.2419,-0.2804,0.4683,0.8021
0.02,-0.025,0.074,152,-109.7,-3.8,0,2018,5,17,21,2,26.168,0.249,-0.2634,0.4459,0.8183
-0.011,-0.073,0.054,150.4,-83.5,-10.5,1023,2018,5,17,21,2,26.19,0.2552,-0.245,0.4247,0.8332
-0.091,-0.082,-0.064,155.4,-48,-11.2,1023,2018,5,17,21,2,26.195,0.2625,-0.2249,0.4086,0.8446
-0.125,0.106,-0.06,153.5,-81.7,-28.6,1023,2018,5,17,21,2,26.209,0.2679,-0.2035,0.3935,0.8554
-0.052,0.064,0.009,158.5,-117.2,-46.1,1023,2018,5,17,21,2,26.227,0.2689,-0.1816,0.3723,0.8695
-0.097,-0.116,-0.078,167.2,-100.9,-50.5,1023,2018,5,17,21,2,26.25,0.2679,-0.1584,0.3478,0.8843
-0.154,-0.089,-0.306,182.1,-40.6,-48.8,1023,2018,5,17,21,2,26.269,0.2687,-0.1314,0.3306,0.895
-0.24,0.17,-0.14,188.3,-32.3,-61.9,1023,2018,5,17,21,2,26.292,0.2704,-0.1001,0.3181,0.9031
-0.169,0.029,-0.005,191.7,-89,-71.7,1023,2018,5,17,21,2,26.31,0.2689,-0.0695,0.3,0.9125
-0.178,-0.141,-0.149,199.2,-59.8,-71.2,1023,2018,5,17,21,2,26.333,0.2666,-0.0381,0.2791,0.9216
-0.222,-0.104,-0.237,204.3,-31.7,-80.4,0,2018,5,17,21,2,26.368,0.2639,-0.0039,0.2632,0.9279
-0.214,0.045,-0.202,207.9,-25,-84.5,0,2018,5,17,21,2,26.391,0.2597,0.0321,0.2492,0.9324
-0.231,0.227,0.317,207,-57.8,-81,0,2018,5,17,21,2,26.396,0.2554,0.0678,0.2326,0.9359
-0.209,0.542,0.781,179,-17.5,-61.2,0,2018,5,17,21,2,26.432,0.2518,0.1014,0.2162,0.9378
-0.009,0.694,0.88,140.1,56.9,-27.2,0,2018,5,17,21,2,26.432,0.2503,0.1301,0.2124,0.9355
0.028,0.496,0.421,111.8,122.4,6.5,0,2018,5,17,21,2,26.454,0.2513,0.155,0.2212,0.9294
-0.229,1.265,1.175,71.8,72.6,29.4,0,2018,5,17,21,2,26.47,0.2547,0.1745,0.2373,0.921
-0.229,1.041,2.108,-9.3,-82.9,81,0,2018,5,17,21,2,26.507,0.2655,0.1764,0.2351,0.9181
-0.1,0.348,1.862,-109.7,-126.2,119.4,0,2018,5,17,21,2,26.529,0.2832,0.1567,0.2231,0.9194
-0.054,0.094,1.261,-190.8,-125.1,120.7,0,2018,5,17,21,2,26.531,0.3002,0.1208,0.2136,0.9217
-0.213,-0.187,1.063,-253.9,-130,96.5,0,2018,5,17,21,2,26.565,0.3118,0.0738,0.2073,0.9242
-0.35,-0.39,0.709,-302.8,-158.7,50.7,0,2018,5,17,21,2,26.589,0.3148,0.0179,0.2003,0.9275
-0.354,-0.44,0.379,-331.1,-190.1,-5.5,0,2018,5,17,21,2,26.593,0.3072,-0.0443,0.1891,0.9315
-0.409,-0.455,0.187,-343.3,-201.4,-63.7,0,2018,5,17,21,2,26.632,0.288,-0.1087,0.1754,0.9351
-0.53,-0.356,0.049,-343,-203.6,-119,0,2018,5,17,21,2,26.655,0.2576,-0.1718,0.1613,0.937
-0.54,-0.283,-0.188,-331.8,-208.3,-160.8,0,2018,5,17,21,2,26.66,0.2179,-0.2319,0.1467,0.9365
-0.482,-0.193,-0.428,-302.9,-209.7,-191.8,0,2018,5,17,21,2,26.67,0.1714,-0.2867,0.1314,0.9333
-0.445,-0.11,-0.487,-261.5,-210.8,-211.3,0,2018,5,17,21,2,26.69,0.1211,-0.3334,0.1156,0.9277
-0.448,0.045,-0.493,-217.2,-233.6,-225.9,0,2018,5,17,21,2,26.713,0.0675,-0.3713,0.0975,0.9208
-0.416,0.073,-0.647,-168.6,-266.4,-228.5,0,2018,5,17,21,2,26.731,0.0109,-0.4004,0.074,0.9132
-0.405,-0.181,-0.742,-112.6,-235.9,-215.1,0,2018,5,17,21,2,26.754,-0.0443,-0.4194,0.0486,0.9053
-0.488,-0.095,-0.616,-65.5,-153.9,-194.6,1023,2018,5,17,21,2,26.772,-0.0913,-0.4294,0.0327,0.8978
-0.566,0.149,-0.438,-29.2,-126.2,-168.5,1023,2018,5,17,21,2,26.795,-0.1301,-0.433,0.0244,0.8915
-0.58,0.231,-0.28,-6.5,-131.7,-140.6,1023,2018,5,17,21,2,26.816,-0.1637,-0.4318,0.0158,0.8867
-0.521,0.063,-0.323,15.5,-135.9,-112.3,1023,2018,5,17,21,2,26.852,-0.1932,-0.4267,0.0045,0.8834
-0.491,0.042,-0.268,24.8,-136.4,-94.6,1023,2018,5,17,21,2,26.874,-0.2189,-0.4185,-0.0076,0.8813
-0.491,0.056,-0.011,25,-148.9,-74.8,1023,2018,5,17,21,2,26.878,-0.2422,-0.409,-0.0224,0.8794
-0.42,0.045,0.165,16.2,-141,-53.7,1023,2018,5,17,21,2,26.897,-0.2625,-0.3999,-0.0393,0.8772
-0.412,-0.045,0.174,6.4,-105.9,-33,1023,2018,5,17,21,2,26.915,-0.2779,-0.3925,-0.055,0.8749
-0.31,-0.044,0.051,-4.6,-84.3,-20.9,1023,2018,5,17,21,2,26.939,-0.288,-0.3882,-0.0669,0.8727
-0.145,-0.1,-0.015,-11.3,-74.1,-15.5,1023,2018,5,17,21,2,26.955,-0.2959,-0.3856,-0.0782,0.8703
-0.045,-0.121,-0.089,-11.2,-68.9,-16.8,0,2018,5,17,21,2,26.973,-0.3027,-0.384,-0.0886,0.8677
0.021,-0.154,-0.083,-6.5,-55.5,-15.7,0,2018,5,17,21,2,26.993,-0.3094,-0.3822,-0.0977,0.8652
0.051,-0.154,-0.109,-0.7,-40.9,-18.7,0,2018,5,17,21,2,27.032,-0.3149,-0.3805,-0.1039,0.8632
0.075,-0.112,-0.042,4.8,-11.7,-20.4,0,2018,5,17,21,2,27.055,-0.3196,-0.379,-0.1062,0.8618
0.134,-0.145,0.049,8.5,5.7,-26.3,0,2018,5,17,21,2,27.06,-0.3234,-0.3781,-0.1045,0.861
0.112,-0.043,0.079,8.7,12.8,-27.9,0,2018,5,17,21,2,27.075,-0.3266,-0.3781,-0.1007,0.8603
0.157,-0.054,0.084,10.4,10,-35.2,0,2018,5,17,21,2,27.096,-0.3305,-0.3778,-0.0972,0.8593
0.183,-0.04,-0.021,14.6,6.9,-39.6,0,2018,5,17,21,2,27.134,-0.3353,-0.3777,-0.0929,0.858
0.153,-0.165,-0.059,23.9,13.6,-46.8,0,2018,5,17,21,2,27.156,-0.3416,-0.3759,-0.0877,0.8568
0.123,-0.136,0.006,30.9,36.6,-52.4,0,2018,5,17,21,2,27.161,-0.3477,-0.3739,-0.0788,0.8561
0.118,0.036,0.101,31.7,50.7,-54,0,2018,5,17,21,2,27.178,-0.353,-0.3728,-0.0666,0.8555
0.1,0.052,0.119,28.7,60.4,-55.5,0,2018,5,17,21,2,27.196,-0.3578,-0.3723,-0.0526,0.8547
0.112,0.045,0.055,29,57.2,-55.9,0,2018,5,17,21,2,27.218,-0.3624,-0.3723,-0.0379,0.8535
0.082,0.081,-0.057,32.5,58.2,-51.3,0,2018,5,17,21,2,27.237,-0.3668,-0.3726,-0.0237,0.852
0.053,0.14,-0.071,36.4,51.1,-50.6,0,2018,5,17,21,2,27.273,-0.3708,-0.3712,-0.0099,0.8511
0.008,0.089,-0.046,40.4,40.2,-49,0,2018,5,17,21,2,27.297,-0.3753,-0.3685,0.0027,0.8504
-0.046,0.12,-0.02,38.7,21.9,-44.8,0,2018,5,17,21,2,27.301,-0.3801,-0.3649,0.0137,0.8497
-0.104,0.064,-0.08,36.1,3.1,-40.6,0,2018,5,17,21,2,27.317,-0.3859,-0.3601,0.0215,0.849
-0.132,0.044,-0.25,42.1,-13.1,-35.6,0,2018,5,17,21,2,27.34,-0.3918,-0.354,0.0258,0.8488
-0.219,0.039,-0.189,44,-17.4,-31,0,2018,5,17,21,2,27.359,-0.3974,-0.3461,0.0285,0.8493
-0.311,-0.05,-0.06,34.4,-28.4,-23.1,1023,2018,5,17,21,2,27.379,-0.4026,-0.3384,0.0294,0.8499
-0.381,-0.092,0.013,15,-31.1,-16.3,1023,2018,5,17,21,2,27.398,-0.4071,-0.3325,0.028,0.8501
-0.409,-0.057,0.045,-6.2,-40.1,-6.7,1023,2018,5,17,21,2,27.416,-0.4109,-0.3293,0.0236,0.8497
-0.42,-0.016,0.016,-27,-40.4,5.3,1023,2018,5,17,21,2,27.439,-0.4134,-0.329,0.0164,0.8488
-0.383,-0.012,0.011,-49.4,-35.3,20.4,1023,2018,5,17,21,2,27.457,-0.4137,-0.3319,0.0072,0.8476
-0.383,0.006,0.021,-72.7,-28.1,33.1,1023,2018,5,17,21,2,27.478,-0.4114,-0.3388,-0.0034,0.846
-0.333,-0.015,0.008,-90.7,-28.1,45.7,1023,2018,5,17,21,2,27.517,-0.4071,-0.349,-0.0158,0.8438
-0.281,-0.049,0.008,-106.4,-17.6,55.3,1023,2018,5,17,21,2,27.517,-0.4007,-0.3616,-0.0294,0.8412
-0.271,-0.093,-0.069,-120.6,0.1,65.8,1023,2018,5,17,21,2,27.539,-0.3916,-0.3773,-0.0424,0.8381
-0.202,-0.061,-0.182,-129.8,21.3,78.5,1023,2018,5,17,21,2,27.56,-0.3793,-0.3952,-0.0538,0.8348
-0.114,-0.094,-0.279,-132.3,41.5,86.9,1023,2018,5,17,21,2,27.581,-0.3634,-0.4157,-0.0639,0.8312
-0.068,-0.09,-0.328,-129.5,55.8,93.9,0,2018,5,17,21,2,27.599,-0.3449,-0.4367,-0.0713,0.8277
-0.018,-0.126,-0.244,-126.2,76.2,97.5,0,2018,5,17,21,2,27.622,-0.3243,-0.4576,-0.0766,0.8243
0.017,-0.147,-0.201,-127.4,98.6,100.6,0,2018,5,17,21,2,27.641,-0.301,-0.4791,-0.0788,0.8206
0.133,-0.166,-0.266,-129.8,131.9,101.6,0,2018,5,17,21,2,27.664,-0.2749,-0.502,-0.0772,0.8163
0.224,-0.065,-0.33,-115.9,161.6,103.1,0,2018,5,17,21,2,27.679,-0.2454,-0.5249,-0.0705,0.8118
0.196,0.036,-0.308,-97.9,172.3,113.4,0,2018,5,17,21,2,27.697,-0.2132,-0.5454,-0.061,0.8082
0.171,-0.034,-0.191,-81.1,187.6,127.8,0,2018,5,17,21,2,27.72,-0.178,-0.5629,-0.0505,0.8055
0.257,-0.06,-0.074,-65.6,210.5,139.2,0,2018,5,17,21,2,27.739,-0.1385,-0.5779,-0.038,0.8032
0.282,-0.102,-0.139,-46.2,232.9,142.5,0,2018,5,17,21,2,27.762,-0.0957,-0.5895,-0.0222,0.8017
0.248,-0.114,-0.161,-25.9,259.3,147.2,0,2018,5,17,21,2,27.799,-0.0497,-0.5974,-0.0029,0.8003
0.231,0.089,-0.087,-3.3,249.9,152.1,0,2018,5,17,21,2,27.822,-0.0018,-0.6012,0.0175,0.7988
0.262,0.285,-0.067,16.5,196.3,159.1,0,2018,5,17,21,2,27.827,0.0434,-0.6002,0.0328,0.7979
0.246,0.075,-0.081,35.9,138.8,153.4,0,2018,5,17,21,2,27.842,0.0822,-0.5956,0.0386,0.798
0.197,-0.109,0.036,49.6,131.6,139,0,2018,5,17,21,2,27.865,0.1165,-0.5889,0.0411,0.7986
0.149,-0.173,0.204,54.6,131.4,122.7,0,2018,5,17,21,2,27.881,0.1491,-0.5794,0.045,0.8
0.113,-0.091,0.283,50.9,116.6,104.3,0,2018,5,17,21,2,27.9,0.1777,-0.5694,0.0498,0.801
0.118,-0.11,0.192,48.1,104.9,89.2,0,2018,5,17,21,2,27.923,0.2025,-0.5597,0.054,0.8016
0.099,0.092,0.088,50.4,93.5,77,0,2018,5,17,21,2,27.942,0.2242,-0.5493,0.0585,0.8027
0.086,0.194,-0.048,56.6,77.7,75,0,2018,5,17,21,2,27.96,0.2431,-0.539,0.0617,0.804
0.068,0.407,-0.135,71.8,34.9,81.9,0,2018,5,17,21,2,27.983,0.2602,-0.5283,0.06,0.8059
-0.019,0.402,-0.128,89.7,-36.7,93.8,0,2018,5,17,21,2,28.02,0.2732,-0.5178,0.048,0.8092
-0.119,0.188,0.076,99.4,-89.8,101.8,1023,2018,5,17,21,2,28.044,0.2817,-0.5082,0.0248,0.8134
-0.097,0.15,0.064,93.5,-120.9,108.7,1023,2018,5,17,21,2,28.048,0.2874,-0.5,-0.0043,0.8168
-0.087,0.05,-0.109,89.3,-104.1,113.6,1023,2018,5,17,21,2,28.064,0.2927,-0.4924,-0.0351,0.8188
-0.162,-0.032,-0.086,92.9,-73.5,118.1,1023,2018,5,17,21,2,28.087,0.3014,-0.4829,-0.0621,0.8197
-0.18,0.118,0.077,89.1,-68.4,127.7,1023,2018,5,17,21,2,28.106,0.3121,-0.4719,-0.0869,0.8199
-0.235,-0.145,0.107,78.4,-80.3,134,1023,2018,5,17,21,2,28.123,0.323,-0.4621,-0.1132,0.818
-0.167,0.013,-0.182,74.5,-39.1,137.6,1023,2018,5,17,21,2,28.141,0.3362,-0.4516,-0.1362,0.815
-0.099,0.001,-0.016,76.3,-8.5,138,1023,2018,5,17,21,2,28.163,0.352,-0.439,-0.1555,0.8118
-0.053,-0.049,0.202,67.9,-0.1,128.4,0,2018,5,17,21,2,28.181,0.3688,-0.4249,-0.1702,0.8089
0.103,-0.031,0.035,60.1,27.1,119.8,0,2018,5,17,21,2,28.204,0.3853,-0.411,-0.1823,0.8057
0.167,0.067,-0.024,64.7,40.4,115,0,2018,5,17,21,2,28.241,0.402,-0.3963,-0.19,0.8032
0.196,0.227,-0.086,76.5,75.8,111.7,0,2018,5,17,21,2,28.264,0.4197,-0.3783,-0.1942,0.8018
0.21,-0.008,-0.187,95.4,91.2,107.6,0,2018,5,17,21,2,28.268,0.4369,-0.357,-0.1971,0.8017
0.278,0.182,-0.103,122.1,159.7,102.6,0,2018,5,17,21,2,28.285,0.4558,-0.3277,-0.1934,0.8046
0.271,-0.206,0.334,144.6,172.7,85.2,0,2018,5,17,21,2,28.308,0.4738,-0.2917,-0.1863,0.8097
0.23,-0.171,0.849,123.5,171.6,47.5,0,2018,5,17,21,2,28.326,0.4869,-0.255,-0.1756,0.8167
0.173,-0.327,1.221,72.6,97.4,14.3,0,2018,5,17,21,2,28.342,0.4939,-0.2283,-0.1665,0.8222
0.138,-0.759,1.353,8.5,68.2,-23.5,0,2018,5,17,21,2,28.382,0.4952,-0.2152,-0.1588,0.8265
0.115,-0.766,1.253,-56.4,43.1,-72.3,0,2018,5,17,21,2,28.382,0.4911,-0.2144,-0.1473,0.8313
0.167,-0.765,0.955,-110.1,-2.8,-121.2,0,2018,5,17,21,2,28.404,0.4796,-0.2274,-0.135,0.8366
0.125,-0.678,0.612,-142.1,-30.2,-161.6,0,2018,5,17,21,2,28.425,0.4606,-0.2508,-0.1219,0.8426
0.037,-0.643,0.311,-156.4,-37,-196.1,0,2018,5,17,21,2,28.463,0.4353,-0.2793,-0.1072,0.849
-0.036,-0.538,0.032,-154.3,-41,-225.3,0,2018,5,17,21,2,28.484,0.4044,-0.309,-0.0908,0.8559
-0.072,-0.453,-0.143,-143,-43.7,-250.3,0,2018,5,17,21,2,28.488,0.3681,-0.3377,-0.0737,0.8631
-0.097,-0.304,-0.149,-128.5,-50.1,-267.5,0,2018,5,17,21,2,28.507,0.3275,-0.3638,-0.0566,0.8701
-0.159,-0.18,-0.124,-114.6,-61.9,-275.5,0,2018,5,17,21,2,28.543,0.2834,-0.3876,-0.0405,0.8762
-0.218,-0.082,-0.186,-98.9,-90,-276.3,0,2018,5,17,21,2,28.564,0.2365,-0.409,-0.0274,0.8809
-0.225,-0.049,-0.268,-79.6,-133,-275.3,1023,2018,5,17,21,2,28.57,0.1861,-0.428,-0.021,0.8841
-0.214,-0.016,-0.337,-57.9,-156.4,-269.1,1023,2018,5,17,21,2,28.586,0.1329,-0.4437,-0.0212,0.8859
-0.266,0.032,-0.378,-41.1,-150.8,-254.3,1023,2018,5,17,21,2,28.606,0.0804,-0.4552,-0.0234,0.8864
-0.34,-0.149,-0.476,-17.4,-132.4,-236.3,1023,2018,5,17,21,2,28.625,0.0312,-0.4622,-0.0257,0.8858
-0.406,-0.185,-0.489,0.6,-82.7,-220.2,1023,2018,5,17,21,2,28.647,-0.0127,-0.4645,-0.0239,0.8851
-0.441,0,-0.313,12.6,-45.9,-201,1023,2018,5,17,21,2,28.666,-0.0499,-0.464,-0.016,0.8842
-0.504,0.056,-0.129,18.6,-40.3,-179.3,1023,2018,5,17,21,2,28.688,-0.0826,-0.4611,-0.0067,0.8834
-0.56,0.103,-0.122,20.9,-63.9,-156,1023,2018,5,17,21,2,28.706,-0.1124,-0.4573,-0.0004,0.8821
-0.578,0.052,-0.11,23.1,-108.1,-135.4,1023,2018,5,17,21,2,28.729,-0.1415,-0.4519,-0.0015,0.8807
-0.559,-0.033,-0.198,28.1,-145.3,-117.3,1023,2018,5,17,21,2,28.766,-0.1709,-0.4446,-0.0107,0.8791
-0.538,-0.101,-0.172,33.6,-159.2,-100.4,0,2018,5,17,21,2,28.79,-0.1996,-0.4351,-0.0251,0.8775
-0.524,-0.24,-0.059,31.2,-140.6,-86.9,0,2018,5,17,21,2,28.794,-0.2254,-0.4249,-0.0399,0.8757
-0.563,-0.225,0.09,19.5,-119.6,-80.9,0,2018,5,17,21,2,28.811,-0.2478,-0.4163,-0.0526,0.8731
-0.435,-0.057,0.15,11.9,-80,-64,0,2018,5,17,21,2,28.829,-0.2661,-0.4102,-0.0614,0.87
-0.374,-0.053,0.134,-1.3,-34.8,-49,0,2018,5,17,21,2,28.851,-0.2787,-0.4074,-0.0658,0.8671
-0.269,-0.003,0.055,-10.6,-14.6,-39.1,0,2018,5,17,21,2,28.865,-0.2868,-0.4079,-0.0662,0.8642
-0.125,-0.143,-0.041,-13.1,-7.8,-32.4,0,2018,5,17,21,2,28.887,-0.2928,-0.4095,-0.066,0.8614
0.025,-0.067,-0.084,-6.7,2.3,-27.4,0,2018,5,17,21,2,28.906,-0.297,-0.4115,-0.0643,0.8591
0.056,-0.106,-0.063,4.6,-8.7,-22.4,0,2018,5,17,21,2,28.926,-0.3008,-0.412,-0.0634,0.8577
0.087,-0.062,-0.054,12.4,-19.3,-23.2,0,2018,5,17,21,2,28.966,-0.3051,-0.4104,-0.0637,0.8569
0.16,-0.047,0.054,19.2,-25.1,-28.5,0,2018,5,17,21,2,28.989,-0.3104,-0.4075,-0.0653,0.8563
0.161,-0.05,0.052,22.9,-29.6,-33.9,0,2018,5,17,21,2,28.993,-0.3168,-0.4036,-0.0666,0.8556
0.198,-0.035,0.105,26.1,-28.2,-38.6,0,2018,5,17,21,2,29.008,-0.3243,-0.399,-0.0675,0.855
0.157,0.004,0.129,25,-27.2,-43.2,0,2018,5,17,21,2,29.031,-0.3323,-0.3942,-0.0678,0.8541
0.15,0.015,0.103,27,-29,-46.5,0,2018,5,17,21,2,29.068,-0.3412,-0.3893,-0.0677,0.8528
0.147,-0.031,0.12,29.8,-8.9,-46.8,0,2018,5,17,21,2,29.068,-0.3497,-0.3845,-0.0663,0.8516
0.119,0.007,0.149,28.4,1.5,-46.6,0,2018,5,17,21,2,29.09,-0.3569,-0.3805,-0.0615,0.8508
0.082,0.019,0.11,25,5.8,-46.1,0,2018,5,17,21,2,29.11,-0.3638,-0.3772,-0.0563,0.8497
0.024,0.01,0.043,22.9,16.6,-42.8,0,2018,5,17,21,2,29.13,-0.3698,-0.3746,-0.05,0.8487
-0.01,0.029,-0.008,23.9,29.6,-38.4,0,2018,5,17,21,2,29.166,-0.3745,-0.3731,-0.0424,0.8477
-0.036,0.078,-0.092,26.7,22.3,-34.6,1023,2018,5,17,21,2,29.189,-0.3783,-0.3718,-0.0334,0.847
-0.113,-0.006,-0.094,30.4,6.9,-33.4,1023,2018,5,17,21,2,29.194,-0.3827,-0.369,-0.0266,0.8465
-0.192,-0.01,-0.02,26.1,5.2,-32.1,1023,2018,5,17,21,2,29.21,-0.3874,-0.3645,-0.0209,0.8464
-0.29,-0.073,0.014,15.7,-1.4,-29.8,1023,2018,5,17,21,2,29.233,-0.392,-0.3616,-0.0173,0.8457
-0.339,-0.113,-0.029,3.8,-1.2,-25.7,1023,2018,5,17,21,2,29.269,-0.3962,-0.3601,-0.015,0.8444
-0.389,-0.091,0.004,-10.6,5.8,-17,1023,2018,5,17,21,2,29.291,-0.3992,-0.3607,-0.0134,0.8427
-0.396,-0.031,0,-28.7,13.8,-5.1,1023,2018,5,17,21,2,29.296,-0.4001,-0.3645,-0.0126,0.8407
-0.403,-0.072,-0.091,-46.8,12.8,7.9,1023,2018,5,17,21,2,29.313,-0.3989,-0.3711,-0.0135,0.8384
-0.381,-0.01,-0.167,-59,19.8,22.3,1023,2018,5,17,21,2,29.335,-0.3955,-0.38,-0.0159,0.8359
-0.304,0.133,-0.15,-67.6,20.3,41.9,1023,2018,5,17,21,2,29.352,-0.3891,-0.3906,-0.0193,0.8339
-0.288,0.087,-0.064,-75.7,22.7,59.9,0,2018,5,17,21,2,29.37,-0.3799,-0.4021,-0.0248,0.8326
-0.313,0.043,0.032,-89.6,40.6,75.1,0,2018,5,17,21,2,29.392,-0.3673,-0.4158,-0.0303,0.8313
-0.257,0.025,-0.054,-104.6,59.1,92.2,0,2018,5,17,21,2,29.411,-0.3508,-0.4327,-0.0352,0.8296
-0.061,0.049,-0.213,-114,69.4,104.7,0,2018,5,17,21,2,29.434,-0.3308,-0.4519,-0.0395,0.8274
0.015,0.016,-0.401,-108.4,67.7,113.9,0,2018,5,17,21,2,29.452,-0.3085,-0.4711,-0.0444,0.8251
-0.005,-0.044,-0.433,-96.7,75.8,120.6,0,2018,5,17,21,2,29.475,-0.2848,-0.4885,-0.0492,0.8232
0.022,-0.043,-0.271,-88.6,90.7,127.2,0,2018,5,17,21,2,29.492,-0.2589,-0.5046,-0.0521,0.8219
0.123,0.03,-0.115,-86.3,86.2,133.4,0,2018,5,17,21,2,29.515,-0.2312,-0.52,-0.0545,0.8204
0.174,0.062,-0.13,-86.8,81.7,140.4,0,2018,5,17,21,2,29.533,-0.2031,-0.5344,-0.0583,0.8183
0.144,-0.031,-0.158,-79.7,87.6,147,0,2018,5,17,21,2,29.556,-0.1738,-0.5476,-0.0625,0.816
0.119,0.138,-0.084,-67.2,94.3,158.6,0,2018,5,17,21,2,29.572,-0.1422,-0.5592,-0.0659,0.814
0.175,0.175,-0.014,-56.5,81.5,164.9,0,2018,5,17,21,2,29.59,-0.11,-0.5684,-0.0703,0.8123
0.193,0.066,0.067,-42.5,39.9,170.8,0,2018,5,17,21,2,29.613,-0.0796,-0.5742,-0.0792,0.8109
0.058,-0.369,0.185,-43.7,77.2,168.9,0,2018,5,17,21,2,29.649,-0.0498,-0.578,-0.0893,0.8095
0.061,-0.332,0.088,-46.8,146.6,167.2,0,2018,5,17,21,2,29.672,-0.0135,-0.5825,-0.09,0.8076
0.162,-0.185,-0.056,-35.7,172.4,158.9,0,2018,5,17,21,2,29.677,0.0266,-0.5858,-0.0836,0.8056
0.216,-0.156,-0.158,-12.5,178.2,149,0,2018,5,17,21,2,29.696,0.0666,-0.5856,-0.0741,0.8043
0.189,-0.18,-0.137,12.1,175.8,138.7,0,2018,5,17,21,2,29.713,0.1048,-0.5812,-0.0638,0.8044
0.109,0.025,0.029,29.6,169.2,125.9,0,2018,5,17,21,2,29.736,0.1409,-0.5731,-0.053,0.8054
0.068,0.165,0.109,35.5,117.3,117.6,0,2018,5,17,21,2,29.773,0.1718,-0.5636,-0.0454,0.8066
0.061,0.112,0.06,37.4,66.9,110.9,0,2018,5,17,21,2,29.773,0.1964,-0.5547,-0.0448,0.8072
0.066,0.042,-0.041,40.4,35.3,106.1,1023,2018,5,17,21,2,29.796,0.2156,-0.5468,-0.0491,0.8075
0.052,0.088,-0.093,47.9,22.8,105.8,1023,2018,5,17,21,2,29.815,0.2322,-0.5393,-0.0561,0.8074
-0.057,0.121,0.119,51.6,1.4,105.6,1023,2018,5,17,21,2,29.833,0.2477,-0.5305,-0.066,0.8079
-0.021,0.009,0.19,43.7,-17.3,99.9,1023,2018,5,17,21,2,29.856,0.2607,-0.5229,-0.0787,0.8076
0.033,-0.074,-0.004,38.2,-12.6,95.6,1023,2018,5,17,21,2,29.873,0.2725,-0.5162,-0.0918,0.8067
0.007,0.012,-0.114,44.2,13.3,96.5,1023,2018,5,17,21,2,29.897,0.2852,-0.5095,-0.1027,0.8052
-0.069,0.047,-0.039,50.6,49.6,100,1023,2018,5,17,21,2,29.915,0.3013,-0.4997,-0.1103,0.8045
-0.14,-0.046,-0.018,47.9,75.5,105,1023,2018,5,17,21,2,29.938,0.3204,-0.4872,-0.1126,0.8044
-0.07,0.101,-0.076,49.7,73.8,109.8,1023,2018,5,17,21,2,29.956,0.3413,-0.4736,-0.1138,0.8038
-0.047,0.118,-0.136,59.6,50.5,113.6,1023,2018,5,17,21,2,29.979,0.3607,-0.4604,-0.1171,0.8025
-0.051,0.078,-0.162,74.2,29.4,111.5,1023,2018,5,17,21,2,29.996,0.3779,-0.4469,-0.1247,0.8011
-0.05,0.184,-0.164,89.3,-6.5,107,1023,2018,5,17,21,2,30.019,0.3919,-0.433,-0.1365,0.8001
-0.026,0.319,-0.18,101.5,-58.7,106.5,1023,2018,5,17,21,2,30.055,0.402,-0.419,-0.1556,0.7991
-0.031,0.363,-0.075,108.8,-146.3,107.3,1023,2018,5,17,21,2,30.078,0.4062,-0.4084,-0.1851,0.7961
-0.05,-0.17,-0.05,102.4,-164.7,115.6,1023,2018,5,17,21,2,30.083,0.406,-0.4016,-0.2241,0.7896
-0.124,-0.816,0.011,89.7,-56.2,103.6,1023,2018,5,17,21,2,30.097,0.4083,-0.3926,-0.2554,0.7834
0.028,-0.64,0.05,88.7,156.6,78.9,0,2018,5,17,21,2,30.118,0.4206,-0.3719,-0.2595,0.7856
0.04,0.084,0.369,89,238,60.3,0,2018,5,17,21,2,30.154,0.4393,-0.3404,-0.2416,0.7953
0.135,0.524,0.547,87.9,164.7,51.7,0,2018,5,17,21,2,30.177,0.4554,-0.3092,-0.2226,0.8045
0.159,0.224,0.626,86.3,56.3,43.5,0,2018,5,17,21,2,30.182,0.4642,-0.2867,-0.2179,0.8091
0.029,-0.115,0.76,51.6,56.7,32.3,0,2018,5,17,21,2,30.197,0.4692,-0.271,-0.2187,0.8114
0.038,-0.205,1.114,10.3,56.6,2.4,0,2018,5,17,21,2,30.22,0.4734,-0.2609,-0.2137,0.8136
0.177,-0.332,1.254,-33.6,26.4,-30.6,0,2018,5,17,21,2,30.238,0.4735,-0.2597,-0.2064,0.8158
0.188,-0.517,1.157,-78,18.5,-60.8,0,2018,5,17,21,2,30.261,0.4698,-0.2673,-0.1967,0.8179
0.081,-0.807,0.953,-115,39.7,-97.1,0,2018,5,17,21,2,30.279,0.4633,-0.281,-0.1816,0.8205
0.003,-0.919,0.656,-140.4,100.2,-135.9,0,2018,5,17,21,2,30.302,0.4537,-0.2974,-0.1555,0.8254
0.001,-0.564,0.299,-151.2,149.6,-162.5,0,2018,5,17,21,2,30.318,0.4422,-0.3121,-0.117,0.8326
-0.089,-0.378,0.133,-154,171.8,-176.4,0,2018,5,17,21,2,30.339,0.4288,-0.3248,-0.0725,0.8397
-0.158,-0.25,0.076,-155.3,178.8,-185.9,0,2018,5,17,21,2,30.376,0.4136,-0.3358,-0.0249,0.8458
-0.171,-0.197,0.073,-160.4,166.6,-190.6,0,2018,5,17,21,2,30.376,0.3961,-0.3468,0.0232,0.8498
-0.16,-0.127,-0.041,-158.9,118.9,-195.1,0,2018,5,17,21,2,30.399,0.3749,-0.3594,0.0675,0.8518
-0.187,-0.176,-0.096,-154,81.6,-197.6,0,2018,5,17,21,2,30.417,0.3496,-0.3737,0.1046,0.8527
-0.211,-0.256,-0.118,-149.6,65.4,-200.7,0,2018,5,17,21,2,30.44,0.3215,-0.3878,0.1378,0.8527
-0.197,-0.36,-0.119,-145.1,66,-206.6,1023,2018,5,17,21,2,30.461,0.2918,-0.4007,0.1694,0.8517
-0.162,-0.424,-0.22,-142.5,79.3,-211.3,1023,2018,5,17,21,2,30.479,0.2611,-0.4118,0.2019,0.8493
-0.192,-0.326,-0.237,-136.6,98.8,-210.8,1023,2018,5,17,21,2,30.501,0.2308,-0.4205,0.2363,0.8449
-0.258,-0.244,-0.143,-137.8,127.3,-202.7,0,2018,5,17,21,2,30.542,0.2029,-0.4271,0.2736,0.8375
-0.197,-0.095,-0.157,-137.9,123.8,-194.9,0,2018,5,17,21,2,30.544,0.1769,-0.4329,0.3116,0.8271
-0.199,0.027,-0.243,-128.9,79.3,-188.5,0,2018,5,17,21,2,30.559,0.1495,-0.4384,0.3448,0.8163
-0.147,-0.066,-0.228,-109.9,32.9,-178.8,0,2018,5,17,21,2,30.596,0.1201,-0.4427,0.3691,0.8082
-0.191,-0.228,-0.126,-98.2,29.8,-170.9,0,2018,5,17,21,2,30.617,0.0913,-0.4453,0.3885,0.8014
-0.23,-0.258,-0.084,-92.7,36.2,-167.4,0,2018,5,17,21,2,30.621,0.0644,-0.447,0.4069,0.7939
-0.257,-0.282,-0.121,-87.9,36.5,-163.1,0,2018,5,17,21,2,30.641,0.0387,-0.4475,0.425,0.7858
-0.257,-0.305,-0.204,-80,31.1,-159.6,0,2018,5,17,21,2,30.677,0.013,-0.4468,0.4424,0.7773
-0.223,-0.276,-0.22,-67.7,30.7,-158.4,0,2018,5,17,21,2,30.699,-0.0118,-0.4442,0.4589,0.7693
-0.258,-0.241,-0.092,-57.8,39.4,-154.5,0,2018,5,17,21,2,30.704,-0.0351,-0.4399,0.4757,0.7608
-0.334,-0.223,-0.094,-51.7,33.8,-147.4,0,2018,5,17,21,2,30.74,-0.0571,-0.4343,0.4921,0.7521
-0.339,-0.27,-0.125,-41.2,16.1,-144.2,0,2018,5,17,21,2,30.763,-0.0784,-0.428,0.5057,0.7448
-0.36,-0.346,-0.122,-28.9,9.9,-139.3,0,2018,5,17,21,2,30.768,-0.099,-0.42,0.5171,0.7391
-0.385,-0.363,-0.126,-18.4,30.7,-134.9,0,2018,5,17,21,2,30.782,-0.1173,-0.4108,0.5291,0.733
-0.436,-0.193,0.019,-14.6,52.4,-130,0,2018,5,17,21,2,30.818,-0.1324,-0.4014,0.5439,0.7248
-0.376,0.167,0.024,-10.9,12.3,-123.8,0,2018,5,17,21,2,30.818,-0.1471,-0.3919,0.5573,0.717
-0.289,-0.117,-0.085,5.2,-46.1,-114.9,0,2018,5,17,21,2,30.842,-0.1638,-0.3798,0.5622,0.716
-0.289,-0.212,-0.065,10.5,11.4,-103.2,0,2018,5,17,21,2,30.862,-0.1782,-0.3672,0.5665,0.7158
-0.241,-0.046,0.031,0.3,117,-87.5,0,2018,5,17,21,2,30.899,-0.185,-0.3591,0.5813,0.7062
-0.176,0.161,0.055,-11.8,161,-74.3,0,2018,5,17,21,2,30.922,-0.1859,-0.3568,0.6043,0.6875
-0.132,0.309,0.048,-3.9,74.6,-67.9,0,2018,5,17,21,2,30.927,-0.1885,-0.3535,0.6229,0.6719
-0.082,0.173,0.042,2.6,10.7,-61,0,2018,5,17,21,2,30.943,-0.1944,-0.347,0.6311,0.6659
-0.106,0.027,0.086,-0.6,2.6,-48.4,0,2018,5,17,21,2,30.966,-0.2012,-0.34,0.6345,0.6642
-0.107,-0.119,0.06,-6.4,45.8,-41.1,1023,2018,5,17,21,2,30.982,-0.2055,-0.3364,0.6394,0.66
-0.038,0.127,-0.031,-4.5,59.6,-38.7,1023,2018,5,17,21,2,31.019,-0.2075,-0.3345,0.6487,0.6512
-0.054,0.223,-0.046,7.9,-18,-38,1023,2018,5,17,21,2,31.042,-0.2107,-0.3305,0.6538,0.647
-0.073,0.035,-0.114,23.5,-69.5,-32.1,1023,2018,5,17,21,2,31.046,-0.2163,-0.3223,0.6508,0.6524
-0.088,0,-0.074,23.1,0.9,-9.6,1023,2018,5,17,21,2,31.065,-0.2182,-0.3155,0.6484,0.6574
-0.126,0.153,0.008,19.5,85.1,17.3,1023,2018,5,17,21,2,31.081,-0.2132,-0.3151,0.6551,0.6527
-0.136,0.198,0.077,23.1,89.1,34,1023,2018,5,17,21,2,31.104,-0.2029,-0.319,0.665,0.644
-0.086,0.036,-0.023,24,33.2,43.3,1023,2018,5,17,21,2,31.122,-0.1927,-0.3228,0.6706,0.6393
-0.119,-0.234,-0.024,31.2,4.9,51.4,1023,2018,5,17,21,2,31.145,-0.1837,-0.3255,0.6708,0.6404
-0.171,-0.12,0.076,34.3,11.6,52.1,1023,2018,5,17,21,2,31.164,-0.1741,-0.3275,0.6702,0.6427
-0.112,0.067,0.004,34.2,2.1,56.9,0,2018,5,17,21,2,31.187,-0.1637,-0.3301,0.6689,0.6454
-0.002,0.054,-0.083,38.2,-12.6,59.3,0,2018,5,17,21,2,31.205,-0.1537,-0.3325,0.6662,0.6495
0.003,0.011,-0.244,52.3,-46.6,56.2,0,2018,5,17,21,2,31.225,-0.1434,-0.3333,0.661,0.6566
-0.049,-0.084,-0.217,64.9,-46.8,68.5,0,2018,5,17,21,2,31.244,-0.1324,-0.332,0.6524,0.6681
-0.103,-0.259,-0.115,61.1,19.2,79.6,0,2018,5,17,21,2,31.263,-0.1171,-0.333,0.6481,0.6747
-0.087,-0.182,-0.047,63,35.7,78.1,0,2018,5,17,21,2,31.286,-0.0988,-0.3355,0.649,0.6756
-0.062,-0.049,-0.071,66.4,-4.1,80.7,0,2018,5,17,21,2,31.304,-0.0812,-0.3371,0.6478,0.6782
-0.08,-0.113,-0.142,77,-47.7,85.8,0,2018,5,17,21,2,31.327,-0.065,-0.3377,0.6406,0.6864
-0.06,-0.185,-0.179,87.8,-49.1,90.3,0,2018,5,17,21,2,31.363,-0.0483,-0.3369,0.6299,0.698
-0.048,-0.194,-0.091,91.1,-29.8,95,0,2018,5,17,21,2,31.363,-0.0294,-0.3358,0.6204,0.7081
-0.01,-0.073,-0.01,93.2,-17.6,96.9,0,2018,5,17,21,2,31.386,-0.0083,-0.3351,0.6125,0.7158
-0.005,-0.005,0.02,95.6,-38.5,98.7,0,2018,5,17,21,2,31.405,0.0124,-0.3336,0.6032,0.7242
-0.015,-0.143,0.06,98.5,-48,97.9,0,2018,5,17,21,2,31.428,0.0326,-0.3317,0.5907,0.7347
0.092,-0.112,0.137,97.4,-43.2,92.5,0,2018,5,17,21,2,31.445,0.0524,-0.3291,0.5788,0.7442
0.094,-0.034,0.128,96.7,-55.3,85.7,0,2018,5,17,21,2,31.468,0.071,-0.3257,0.5662,0.7537
0.054,0.043,0.116,97.8,-79.2,79.8,0,2018,5,17,21,2,31.486,0.0878,-0.3218,0.5509,0.7649
0.096,0.025,0.185,99.2,-91.2,70.9,0,2018,5,17,21,2,31.506,0.1026,-0.3169,0.5327,0.7779
0.183,-0.007,0.252,96.7,-78.2,59.2,0,2018,5,17,21,2,31.525,0.1158,-0.311,0.5155,0.7899
0.164,0.062,0.194,87.5,-72.7,45.7,0,2018,5,17,21,2,31.546,0.1272,-0.3044,0.5005,0.8003
0.1,0.205,0.127,85.5,-86,33.3,0,2018,5,17,21,2,31.566,0.1361,-0.2974,0.4849,0.811
-0.036,0.101,0.161,86.4,-74,26.5,0,2018,5,17,21,2,31.589,0.1429,-0.289,0.4694,0.8219
-0.028,0.079,0.148,87.3,-47,22.5,1023,2018,5,17,21,2,31.609,0.1505,-0.2799,0.4575,0.8304
-0.012,0.14,0.07,92,-40,22.7,1023,2018,5,17,21,2,31.627,0.1586,-0.2691,0.4479,0.8377
0,0.127,-0.088,100.4,-46.7,23.3,1023,2018,5,17,21,2,31.65,0.167,-0.2576,0.4382,0.8447
-0.021,0.041,-0.042,110.9,-58.6,21.1,1023,2018,5,17,21,2,31.668,0.176,-0.2451,0.4267,0.8525
-0.051,-0.04,0.047,116.7,-69.3,17,1023,2018,5,17,21,2,31.691,0.1844,-0.231,0.4123,0.8617
-0.037,-0.102,0.061,114.9,-56.5,12.3,1023,2018,5,17,21,2,31.713,0.1925,-0.2164,0.3976,0.8705
-0.03,-0.067,-0.002,110.8,-49.1,4.5,0,2018,5,17,21,2,31.728,0.1997,-0.2013,0.3847,0.8783
-0.045,-0.043,0.061,107.9,-54.8,-0.7,0,2018,5,17,21,2,31.746,0.2056,-0.186,0.3722,0.8857
0.02,0.045,0.084,101.2,-65.4,-0.9,0,2018,5,17,21,2,31.769,0.2102,-0.1717,0.3585,0.8931
0.033,0.068,0.029,93.6,-62.5,0.8,0,2018,5,17,21,2,31.805,0.2143,-0.1586,0.3447,0.9
0.066,0.117,-0.052,87.6,-51.6,4,0,2018,5,17,21,2,31.805,0.2184,-0.1469,0.3331,0.9053
0.001,0.094,0.045,88.2,-45.8,5.4,0,2018,5,17,21,2,31.828,0.2228,-0.1351,0.3229,0.9097
0,0.031,0.162,83.2,-43.8,6.6,0,2018,5,17,21,2,31.867,0.2275,-0.1231,0.3119,0.9142
-0.002,-0.052,0.145,69.2,-29.4,6.8,0,2018,5,17,21,2,31.89,0.232,-0.1125,0.3018,0.9178
-0.002,-0.061,0.063,58.2,-16.8,2.6,0,2018,5,17,21,2,31.895,0.2359,-0.1035,0.2946,0.9201
0.002,-0.026,-0.036,55.4,-23.7,-2.6,0,2018,5,17,21,2,31.908,0.2385,-0.0953,0.2886,0.9223
-0.015,-0.003,-0.083,56,-27,-5.4,0,2018,5,17,21,2,31.932,0.2404,-0.0873,0.2828,0.9244
-0.027,-0.017,-0.092,61.6,-27.5,-5.7,0,2018,5,17,21,2,31.948,0.242,-0.0786,0.2766,0.9266
-0.041,-0.046,-0.072,68.1,-26.9,-3.4,0,2018,5,17,21,2,31.988,0.244,-0.0689,0.2695,0.929
-0.034,-0.115,-0.032,71.4,-33.7,-8.4,0,2018,5,17,21,2,32.009,0.2463,-0.0585,0.2614,0.9314
-0.055,-0.229,0.082,66.6,-32.7,-18.7,0,2018,5,17,21,2,32.013,0.247,-0.048,0.2523,0.9343
-0.01,-0.056,0.116,61.2,-35.9,-25.9,0,2018,5,17,21,2,32.029,0.246,-0.0379,0.2445,0.9371
-0.018,-0.055,0.264,51,-46.6,-35.5,0,2018,5,17,21,2,32.066,0.2432,-0.0293,0.2351,0.9405
-0.02,0.133,-0.033,50.7,-36.7,-27,0,2018,5,17,21,2,32.089,0.2396,-0.0217,0.2257,0.944
-0.093,-0.3,-0.049,52,-20.5,-38.5,0,2018,5,17,21,2,32.094,0.2369,-0.0131,0.2184,0.9465
-0.065,0.041,0.102,47.4,-12.4,-42.7,0,2018,5,17,21,2,32.11,0.232,-0.0031,0.2147,0.9486
0.065,0.361,0.055,57.1,-26.4,-31.4,0,2018,5,17,21,2,32.131,0.2276,0.0063,0.2102,0.9507
-0.048,0.103,0.241,49.8,-22,-33.1,1023,2018,5,17,21,2,32.149,0.224,0.0151,0.2031,0.953
-0.051,0.015,0.172,40.8,-20.9,-29.5,1023,2018,5,17,21,2,32.168,0.2209,0.023,0.1976,0.9547
0.029,0.435,-0.416,61.9,-32.8,-11.5,1023,2018,5,17,21,2,32.191,0.2193,0.0313,0.1926,0.9559
0.025,-0.209,-0.461,83.7,-51.6,-23.5,1023,2018,5,17,21,2,32.212,0.2201,0.0425,0.1813,0.9575
-0.282,0.156,0.365,72.5,7.4,-26.2,1023,2018,5,17,21,2,32.228,0.2178,0.0559,0.1743,0.9586
-0.022,0.444,0.788,51.8,55.7,-16,1023,2018,5,17,21,2,32.251,0.2154,0.0686,0.1775,0.9577
-0.032,0.652,1.055,21.4,69.5,8.7,1023,2018,5,17,21,2,32.269,0.2152,0.0772,0.1877,0.9552
-0.036,0.606,0.821,-17.4,58.5,37.6,1023,2018,5,17,21,2,32.293,0.2185,0.0789,0.1996,0.9519
-0.024,0.406,0.251,-37.1,45.2,53.1,1023,2018,5,17,21,2,32.312,0.2246,0.0745,0.2113,0.9483
0.049,0.251,-0.076,-34.8,25.6,52.5,1023,2018,5,17,21,2,32.335,0.2316,0.0678,0.2193,0.9453
0.029,-0.116,0.036,-23.4,1.6,37.2,0,2018,5,17,21,2,32.351,0.2375,0.0617,0.2222,0.9435
0.046,-0.563,0.222,-24.6,40.3,18.3,0,2018,5,17,21,2,32.374,0.2411,0.0576,0.2267,0.9418
-0.02,-0.629,-0.05,-25.1,88,-5.6,0,2018,5,17,21,2,32.392,0.2407,0.0558,0.239,0.939
0.235,-0.038,-1.658,27.7,70.7,5.5,0,2018,5,17,21,2,32.415,0.2393,0.0581,0.2536,0.9353
0.163,-1.117,-1.84,105.1,123.2,-34,0,2018,5,17,21,2,32.431,0.2411,0.0737,0.2656,0.9305
-0.461,-0.328,-1.072,173.7,127.3,-92.1,0,2018,5,17,21,2,32.45,0.2342,0.1063,0.2805,0.9247
-0.517,0.263,0.349,172,22.7,-95.7,0,2018,5,17,21,2,32.473,0.2259,0.143,0.2837,0.9208
-0.133,0.49,0.923,125,-55,-41.9,0,2018,5,17,21,2,32.51,0.2227,0.1696,0.272,0.9206
-0.085,0.75,1.108,67.2,-76.7,25.9,0,2018,5,17,21,2,32.533,0.2285,0.1818,0.2569,0.9212
-0.018,1.002,0.971,11.7,-127.4,84.8,0,2018,5,17,21,2,32.537,0.2429,0.1808,0.2413,0.9219
-0.113,0.592,0.842,-30.7,-159.8,124.2,0,2018,5,17,21,2,32.553,0.2648,0.1681,0.2205,0.9235
-0.252,0.16,0.885,-82.1,-113.2,127.9,0,2018,5,17,21,2,32.576,0.287,0.1474,0.2038,0.9242
-0.274,0.001,0.937,-130.4,-77,118.3,0,2018,5,17,21,2,32.597,0.3051,0.121,0.1977,0.9236
-0.225,-0.078,0.89,-170.4,-96.7,101.1,0,2018,5,17,21,2,32.614,0.319,0.0882,0.1945,0.9233
-0.252,-0.341,0.838,-205.2,-115.8,76.5,0,2018,5,17,21,2,32.638,0.3284,0.0485,0.1886,0.9242
-0.291,-0.519,0.767,-237,-86.9,41.7,0,2018,5,17,21,2,32.655,0.3312,0.0047,0.1849,0.9252
-0.299,-0.526,0.651,-265.5,-39.1,6.8,0,2018,5,17,21,2,32.672,0.3266,-0.0403,0.1894,0.925
-0.339,-0.461,0.422,-289.1,-26.7,-22.2,0,2018,5,17,21,2,32.695,0.3156,-0.0867,0.2006,0.9233
-0.312,-0.307,0.111,-296.8,-53.2,-53.3,0,2018,5,17,21,2,32.714,0.298,-0.1349,0.2112,0.921
-0.3,-0.268,0.009,-288.6,-89.3,-82.7,0,2018,5,17,21,2,32.732,0.274,-0.183,0.2159,0.9191
-0.382,-0.254,0.024,-282.3,-110.8,-111.2,1023,2018,5,17,21,2,32.754,0.2439,-0.2297,0.2164,0.9169
-0.424,-0.212,-0.104,-270.1,-130.9,-138.2,1023,2018,5,17,21,2,32.793,0.2081,-0.2739,0.2137,0.9142
-0.421,-0.194,-0.23,-249.3,-155.6,-164.5,1023,2018,5,17,21,2,32.813,0.1669,-0.3145,0.2071,0.9112
-0.439,-0.183,-0.34,-219.7,-175.8,-185.2,1023,2018,5,17,21,2,32.818,0.121,-0.3496,0.197,0.9078
-0.472,-0.269,-0.44,-181.4,-191.9,-203.7,1023,2018,5,17,21,2,32.834,0.0717,-0.3779,0.1827,0.9047
-0.517,-0.281,-0.518,-142.8,-169,-213.8,1023,2018,5,17,21,2,32.857,0.0215,-0.3983,0.1698,0.9011
-0.535,-0.147,-0.636,-101.5,-151.2,-214.6,1023,2018,5,17,21,2,32.878,-0.0268,-0.4112,0.1603,0.8969
-0.546,-0.127,-0.614,-56.3,-144.8,-208.2,1023,2018,5,17,21,2,32.898,-0.0728,-0.4163,0.1517,0.8934
-0.578,-0.25,-0.575,-14.6,-98.7,-192.6,0,2018,5,17,21,2,32.914,-0.1138,-0.4142,0.1463,0.891
-0.638,-0.073,-0.499,15.1,-37.8,-176.1,0,2018,5,17,21,2,32.952,-0.1471,-0.4078,0.1493,0.8886
-0.627,0.2,-0.491,37.1,-16.2,-152,0,2018,5,17,21,2,32.975,-0.1735,-0.3986,0.1582,0.8865
-0.524,0.055,-0.484,60.7,0.8,-128.8,0,2018,5,17,21,2,32.98,-0.1942,-0.3866,0.1677,0.8857
-0.474,0.109,-0.402,82.5,21.3,-107.1,0,2018,5,17,21,2,32.996,-0.2093,-0.3723,0.18,0.886
-0.454,0.17,-0.322,94,24.8,-85.8,0,2018,5,17,21,2,33.014,-0.2198,-0.3562,0.193,0.8874
-0.384,0.401,-0.122,82.8,121.8,-51.5,0,2018,5,17,21,2,33.037,-0.2233,-0.3427,0.2112,0.8877
-0.4,0.495,0.095,67.9,155.5,-27.1,0,2018,5,17,21,2,33.054,-0.2175,-0.3353,0.2392,0.8848
-0.163,0.318,-0.175,50.3,176.4,-0.6,0,2018,5,17,21,2,33.078,-0.2075,-0.3317,0.2671,0.8806
-0.013,0.742,0.048,41,160.5,15.7,0,2018,5,17,21,2,33.115,-0.1934,-0.3318,0.296,0.8745
-0.132,0.558,0.178,33.9,37.4,38,0,2018,5,17,21,2,33.115,-0.1817,-0.3306,0.3103,0.8725
-0.154,-0.044,0.354,20,-15.9,42,0,2018,5,17,21,2,33.137,-0.1738,-0.3285,0.3087,0.8754
-0.067,-0.179,0.208,-0.6,-13.4,37.5,0,2018,5,17,21,2,33.155,-0.168,-0.329,0.3045,0.8778
0.006,-0.247,0.153,-14.1,-18.7,24.5,0,2018,5,17,21,2,33.174,-0.1646,-0.3315,0.3,0.8791
0.022,-0.194,0.021,-20,-27,9.3,0,2018,5,17,21,2,33.197,-0.1644,-0.3344,0.2949,0.8798
-0.001,-0.122,-0.005,-20.6,-11.4,-0.9,0,2018,5,17,21,2,33.216,-0.1662,-0.3371,0.2907,0.8798
0.003,0.038,0.042,-20.4,-6.4,-2,0,2018,5,17,21,2,33.239,-0.1679,-0.3399,0.2889,0.879
0.025,0.11,-0.023,-19.1,-7.6,4.5,0,2018,5,17,21,2,33.257,-0.1695,-0.3425,0.2871,0.8783
0,0.384,-0.178,-18.2,-24.5,15.9,0,2018,5,17,21,2,33.28,-0.1694,-0.3458,0.2846,0.8778
-0.025,0.106,-0.114,-12,-88.6,19.1,0,2018,5,17,21,2,33.317,-0.1708,-0.3471,0.274,0.8804
-0.232,-0.229,0.002,-19.5,-74.5,24.7,0,2018,5,17,21,2,33.317,-0.1739,-0.3472,0.2581,0.8845
-0.257,0.044,0.165,-47.5,24.8,33,1023,2018,5,17,21,2,33.34,-0.1718,-0.3533,0.2528,0.884
-0.199,0.169,0.007,-62,-11.8,44.8,1023,2018,5,17,21,2,33.357,-0.1675,-0.3641,0.2505,0.8811
-0.119,0.138,-0.194,-63,-68.3,53.9,1023,2018,5,17,21,2,33.395,-0.1653,-0.3749,0.239,0.8802
-0.165,0.046,-0.273,-57,-107.6,62.2,1023,2018,5,17,21,2,33.395,-0.1648,-0.3837,0.2194,0.8816
-0.236,-0.061,-0.257,-56.2,-107.3,69.9,1023,2018,5,17,21,2,33.416,-0.1641,-0.3917,0.1962,0.8837
-0.277,-0.164,-0.122,-61.3,-91.1,74.8,1023,2018,5,17,21,2,33.454,-0.1618,-0.3998,0.1745,0.8851
-0.131,-0.204,-0.102,-66.8,-71.6,74,1023,2018,5,17,21,2,33.476,-0.1579,-0.4095,0.1546,0.885
-0.128,0.008,-0.183,-74.5,-61.3,84.8,1023,2018,5,17,21,2,33.479,-0.152,-0.4211,0.1371,0.8835
-0.088,-0.026,-0.261,-75.4,-65.8,93.3,1023,2018,5,17,21,2,33.515,-0.1448,-0.433,0.1184,0.8817
-0.027,0.088,-0.365,-72.9,-58.5,101.7,1023,2018,5,17,21,2,33.536,-0.1359,-0.4449,0.0997,0.8795
-0.005,0.07,-0.241,-48,-58.9,124.8,0,2018,5,17,21,2,33.542,-0.1127,-0.4632,0.0603,0.8769
0.069,0.114,-0.111,-60.9,-91.6,141.7,0,2018,5,17,21,2,33.561,-0.0835,-0.4796,0.0171,0.8733
0.135,-0.031,-0.237,-57.8,-120.1,147.9,0,2018,5,17,21,2,33.597,-0.0707,-0.4874,-0.0122,0.8701
0.088,-0.22,-0.23,-46.1,-104.5,148,0,2018,5,17,21,2,33.62,-0.0578,-0.4931,-0.0425,0.8669
0.037,-0.22,-0.101,-41.3,-74.5,146.3,0,2018,5,17,21,2,33.624,-0.0429,-0.4973,-0.0686,0.8637
0.078,-0.019,-0.041,-41.8,-72.2,146.3,0,2018,5,17,21,2,33.64,-0.0262,-0.5013,-0.0921,0.8599
0.096,-0.382,0.123,-40.8,-51.7,141,0,2018,5,17,21,2,33.659,-0.0096,-0.5048,-0.1152,0.8554
0.066,-0.604,0.237,-46.8,17.1,132,0,2018,5,17,21,2,33.682,0.0101,-0.5082,-0.1297,0.8513
0.084,-0.545,0.174,-52.8,82.5,118.7,0,2018,5,17,21,2,33.701,0.0344,-0.5126,-0.1328,0.8475
0.126,-0.195,0,-55.6,142.7,111.2,0,2018,5,17,21,2,33.719,0.0629,-0.5171,-0.1252,0.8443
0.231,0.281,-0.199,-42.8,134.1,117.5,0,2018,5,17,21,2,33.742,0.094,-0.5205,-0.1133,0.841
0.177,0.271,-0.237,-16.2,57.1,128.7,0,2018,5,17,21,2,33.76,0.1212,-0.5206,-0.1105,0.8378
0.065,-0.355,0.065,1,57.6,121.7,0,2018,5,17,21,2,33.783,0.1442,-0.518,-0.1148,0.8352
0.137,-0.329,0.127,7.8,111.6,104.6,0,2018,5,17,21,2,33.82,0.1684,-0.5126,-0.1124,0.8343
0.164,0.033,-0.021,14.5,126.6,99.6,0,2018,5,17,21,2,33.82,0.1942,-0.5054,-0.1038,0.8342
0.136,0.19,-0.115,30.5,91.9,99,0,2018,5,17,21,2,33.843,0.2178,-0.4965,-0.0973,0.8345
0.069,0.33,-0.085,50.2,43.3,102.9,0,2018,5,17,21,2,33.862,0.2375,-0.4862,-0.0976,0.8352
-0.047,0.325,0.093,59,3.2,110.6,0,2018,5,17,21,2,33.879,0.254,-0.4752,-0.1056,0.8357
-0.035,0.161,-0.045,61,-17.7,117.2,0,2018,5,17,21,2,33.901,0.2687,-0.4648,-0.1191,0.8351
0.017,0.007,-0.22,76.2,-20.9,113.6,0,2018,5,17,21,2,33.938,0.2824,-0.4534,-0.1344,0.8345
-0.042,-0.22,-0.075,95.5,7.5,106.5,0,2018,5,17,21,2,33.961,0.2956,-0.4384,-0.1484,0.8356
-0.078,-0.226,0.25,97.8,35.7,94.2,1023,2018,5,17,21,2,33.965,0.3092,-0.4201,-0.1583,0.8383
-0.163,-0.589,0.559,79.6,88.5,75.3,1023,2018,5,17,21,2,34.001,0.3235,-0.4011,-0.1609,0.8417
0.06,-0.212,0.377,54.7,195.1,54,1023,2018,5,17,21,2,34.024,0.3414,-0.3808,-0.147,0.8465
0.097,0.079,-0.079,53.7,226,37.6,1023,2018,5,17,21,2,34.028,0.3607,-0.3588,-0.1217,0.8522
0.132,0.625,-0.278,77.7,167.6,37.2,1023,2018,5,17,21,2,34.044,0.3775,-0.3349,-0.0975,0.8577
0.066,0.846,-0.256,109.7,62.3,58.5,1023,2018,5,17,21,2,34.063,0.3892,-0.3125,-0.0901,0.8617
0.015,0.589,-0.142,129.9,-11.7,75,1023,2018,5,17,21,2,34.084,0.3986,-0.2916,-0.0991,0.8638
-0.057,0.245,0.044,139.9,-69.5,86.1,1023,2018,5,17,21,2,34.101,0.406,-0.2724,-0.1196,0.864
-0.025,-0.287,0.231,135.4,-44.2,79.5,1023,2018,5,17,21,2,34.122,0.4127,-0.2537,-0.1434,0.8629
-0.091,-0.672,0.566,115,44.9,50.1,0,2018,5,17,21,2,34.14,0.4191,-0.2329,-0.1559,0.8635
0.066,-0.236,0.884,83.7,76.5,23.6,0,2018,5,17,21,2,34.164,0.4245,-0.2108,-0.1541,0.8668
0.123,-0.07,0.978,44.3,15.1,9,0,2018,5,17,21,2,34.182,0.4268,-0.1971,-0.1525,0.8693
0.104,-0.299,0.894,0.3,-33.9,-7.1,0,2018,5,17,21,2,34.202,0.4258,-0.1942,-0.1563,0.8697
0.134,-0.564,0.775,-39.2,-30.6,-30.7,0,2018,5,17,21,2,34.241,0.4223,-0.2002,-0.1602,0.8694
0.132,-0.582,0.678,-71.8,8.9,-56.3,0,2018,5,17,21,2,34.264,0.4167,-0.2109,-0.1575,0.87
0.118,-0.429,0.589,-97.5,44.3,-77.3,0,2018,5,17,21,2,34.269,0.4098,-0.2235,-0.1456,0.8722
0.119,-0.388,0.425,-114.3,46.5,-95.9,0,2018,5,17,21,2,34.284,0.4011,-0.2384,-0.1283,0.875
0.086,-0.512,0.286,-126.4,51.3,-117.7,0,2018,5,17,21,2,34.306,0.3891,-0.2558,-0.1086,0.8782
0.078,-0.547,0.22,-133.2,69.4,-144.8,0,2018,5,17,21,2,34.323,0.3738,-0.2738,-0.0849,0.882
0.038,-0.368,0.201,-141.9,64.4,-166.6,0,2018,5,17,21,2,34.347,0.3547,-0.2924,-0.0576,0.8861
0.043,-0.185,0.061,-143.8,6.4,-185.6,0,2018,5,17,21,2,34.363,0.3304,-0.3137,-0.0343,0.8894
0.032,-0.195,-0.135,-133.1,-68.5,-203.7,0,2018,5,17,21,2,34.386,0.2989,-0.3382,-0.0203,0.892
0.013,-0.205,-0.213,-114.3,-134.2,-222.2,0,2018,5,17,21,2,34.404,0.2596,-0.3632,-0.0171,0.8945
-0.086,-0.202,-0.114,-97.8,-171.5,-234,0,2018,5,17,21,2,34.428,0.2139,-0.387,-0.022,0.8966
-0.141,-0.103,-0.15,-87,-178.9,-237.7,0,2018,5,17,21,2,34.445,0.165,-0.4084,-0.0301,0.8972
-0.161,-0.005,-0.309,-71.6,-178.5,-232.3,0,2018,5,17,21,2,34.467,0.1155,-0.4267,-0.0388,0.8961
-0.242,-0.051,-0.333,-50.6,-163.3,-221.4,1023,2018,5,17,21,2,34.504,0.0674,-0.4407,-0.0476,0.8938
-0.344,-0.09,-0.237,-38.2,-118.4,-209,1023,2018,5,17,21,2,34.524,0.0233,-0.4504,-0.0523,0.8909
-0.312,0.026,-0.289,-27.5,-74.5,-192.4,1023,2018,5,17,21,2,34.527,-0.0149,-0.4576,-0.0512,0.8875
-0.316,0.235,-0.373,-16.8,-63,-169.9,1023,2018,5,17,21,2,34.544,-0.0479,-0.4624,-0.0468,0.8841
-0.338,0.23,-0.353,-2.6,-88,-146.2,0,2018,5,17,21,2,34.563,-0.078,-0.4643,-0.0454,0.881
-0.332,0.163,-0.363,9.1,-112.2,-125.5,0,2018,5,17,21,2,34.601,-0.1071,-0.4631,-0.0495,0.8783
-0.339,0.08,-0.406,22.5,-137.2,-106.8,0,2018,5,17,21,2,34.621,-0.135,-0.4591,-0.0591,0.876
-0.424,0.023,-0.258,35.6,-146.2,-88.2,0,2018,5,17,21,2,34.624,-0.1615,-0.4521,-0.0723,0.8741
-0.421,0.091,-0.159,40.7,-159.4,-71.7,0,2018,5,17,21,2,34.661,-0.186,-0.4427,-0.088,0.8727
-0.418,0.029,-0.101,41.8,-169.8,-58.2,0,2018,5,17,21,2,34.682,-0.2092,-0.4317,-0.1069,0.8708
-0.423,0.024,-0.077,39.5,-177.5,-48.4,0,2018,5,17,21,2,34.686,-0.2309,-0.4199,-0.1276,0.8683
-0.402,-0.084,0.013,34.4,-176.9,-41.3,0,2018,5,17,21,2,34.724,-0.2514,-0.4078,-0.1495,0.8649
-0.378,-0.201,0.028,23.8,-162.5,-38.4,0,2018,5,17,21,2,34.747,-0.27,-0.3968,-0.1708,0.8604
-0.27,-0.385,-0.015,15.7,-120,-39.1,0,2018,5,17,21,2,34.752,-0.2863,-0.3882,-0.1883,0.8554
-0.286,-0.209,0.047,10.5,-72.3,-37,0,2018,5,17,21,2,34.765,-0.2988,-0.3827,-0.1989,0.8512
-0.265,-0.222,0.136,1,-41.1,-39.3,0,2018,5,17,21,2,34.788,-0.3082,-0.3801,-0.2041,0.8478
-0.227,-0.151,0.093,-8.9,-12.9,-41,0,2018,5,17,21,2,34.806,-0.3157,-0.3809,-0.205,0.8444
-0.144,-0.238,-0.029,-11,6.4,-38.3,0,2018,5,17,21,2,34.83,-0.3212,-0.3837,-0.2029,0.8416
-0.062,-0.191,-0.158,-4.3,19.8,-39.9,0,2018,5,17,21,2,34.846,-0.3257,-0.3871,-0.1981,0.8395
-0.088,-0.177,-0.086,3.3,39.1,-36.7,0,2018,5,17,21,2,34.867,-0.3293,-0.3899,-0.1911,0.8383
-0.118,-0.19,-0.005,4.9,66.2,-38.8,0,2018,5,17,21,2,34.904,-0.3312,-0.3935,-0.18,0.8384
-0.065,-0.046,-0.058,3.4,51.3,-42.2,0,2018,5,17,21,2,34.928,-0.3327,-0.3978,-0.1677,0.8383
0.042,-0.015,-0.097,8.2,17.4,-43.2,0,2018,5,17,21,2,34.931,-0.3365,-0.4005,-0.1601,0.837
0.027,-0.14,-0.033,11.3,10.2,-48.6,0,2018,5,17,21,2,34.95,-0.3424,-0.4012,-0.1553,0.8351
0.01,-0.156,-0.013,11.3,41,-53.5,0,2018,5,17,21,2,34.969,-0.3485,-0.4024,-0.1474,0.8335
0.056,-0.033,-0.025,12.2,41.7,-61.2,0,2018,5,17,21,2,34.986,-0.3536,-0.4048,-0.1362,0.8321
0.134,-0.031,-0.086,17.1,30.3,-63.4,0,2018,5,17,21,2,35.009,-0.3601,-0.4068,-0.1263,0.8299
0.105,0.04,-0.045,24,17.2,-65.7,0,2018,5,17,21,2,35.028,-0.368,-0.4077,-0.1171,0.8273
0.04,-0.012,-0.01,28,15.5,-68.2,0,2018,5,17,21,2,35.046,-0.3767,-0.4068,-0.1083,0.825
0.01,0.023,-0.129,36.7,15.7,-67.8,0,2018,5,17,21,2,35.069,-0.3858,-0.4051,-0.0991,0.8228
-0.099,-0.017,-0.013,36.8,27.1,-68.3,0,2018,5,17,21,2,35.087,-0.3947,-0.4025,-0.0884,0.8211
-0.247,0.013,0.07,25.2,38,-63.7,1023,2018,5,17,21,2,35.11,-0.4021,-0.401,-0.0762,0.8195
-0.293,0.059,0.139,8.4,34.1,-50.3,1023,2018,5,17,21,2,35.146,-0.4081,-0.4016,-0.0656,0.8171
-0.346,0.17,0.159,-14.3,30.3,-36.6,1023,2018,5,17,21,2,35.169,-0.4115,-0.4051,-0.0572,0.8143
-0.294,0.181,0.025,-30,8,-15.5,1023,2018,5,17,21,2,35.174,-0.4138,-0.4097,-0.0544,0.811
-0.26,0.201,0.037,-44.4,14.3,8.7,1023,2018,5,17,21,2,35.191,-0.413,-0.4157,-0.0552,0.8083
-0.248,0.26,-0.003,-60.3,13.2,30,1023,2018,5,17,21,2,35.214,-0.4085,-0.424,-0.058,0.8061
-0.222,0.253,-0.046,-74,3.6,49.6,1023,2018,5,17,21,2,35.234,-0.4015,-0.4336,-0.0645,0.804
-0.225,0.164,-0.096,-83.4,0.5,69.5,1023,2018,5,17,21,2,35.251,-0.3919,-0.4441,-0.0742,0.8022
-0.176,0.071,-0.173,-86.4,3.4,86.9,1023,2018,5,17,21,2,35.269,-0.3795,-0.4551,-0.0856,0.8009
-0.043,-0.085,-0.211,-83.3,14.8,94,1023,2018,5,17,21,2,35.291,-0.3645,-0.4662,-0.0973,0.8001
-0.028,-0.116,-0.115,-83.7,40,94.5,1023,2018,5,17,21,2,35.31,-0.3476,-0.4778,-0.1061,0.7997
-0.05,-0.04,-0.107,-86.9,53.8,99.3,0,2018,5,17,21,2,35.333,-0.3278,-0.4911,-0.1131,0.799
-0.023,-0.029,-0.138,-87.7,73.2,107.5,0,2018,5,17,21,2,35.351,-0.3058,-0.5055,-0.1189,0.7979
0.069,-0.074,-0.148,-79.3,109.9,118.4,0,2018,5,17,21,2,35.37,-0.2797,-0.5199,-0.1206,0.7979
0.092,0.032,-0.055,-68.7,132.9,130.1,0,2018,5,17,21,2,35.392,-0.2492,-0.5338,-0.1182,0.7992
0.109,0.083,-0.038,-57.3,141,149.4,0,2018,5,17,21,2,35.429,-0.2154,-0.5462,-0.1148,0.8012
0.124,0.014,-0.07,-40.1,148.1,165,0,2018,5,17,21,2,35.452,-0.1785,-0.5557,-0.1111,0.8043
0.195,0.074,-0.063,-18,163.4,176.8,0,2018,5,17,21,2,35.456,-0.1383,-0.5617,-0.1069,0.8086
0.191,0.122,-0.016,0.8,158.5,187.7,0,2018,5,17,21,2,35.47,-0.0964,-0.5628,-0.1022,0.8144
0.125,0.058,0.042,15.4,144.8,189.5,0,2018,5,17,21,2,35.489,-0.055,-0.5606,-0.0984,0.8203
0.116,-0.107,0.036,29,147.8,183.4,0,2018,5,17,21,2,35.512,-0.0143,-0.5551,-0.0957,0.8261
0.149,-0.171,0.039,43.8,161.9,170.9,0,2018,5,17,21,2,35.53,0.0263,-0.5468,-0.0914,0.8318
0.134,-0.084,0.062,56.2,166.5,154.6,0,2018,5,17,21,2,35.579,0.0655,-0.5355,-0.0839,0.8377
0.111,0.08,0.051,64.9,141.9,139.7,0,2018,5,17,21,2,35.581,0.1005,-0.5222,-0.0752,0.8434
0.091,0.121,0.016,71.8,104,128.8,0,2018,5,17,21,2,35.593,0.1301,-0.508,-0.0701,0.8485
0.049,0.078,0.079,76.1,79.7,121.2,0,2018,5,17,21,2,35.629,0.1551,-0.493,-0.0683,0.8532
0.052,-0.027,0.056,77.4,73.3,111,0,2018,5,17,21,2,35.652,0.1779,-0.4777,-0.0691,0.8574
0.03,0.024,0.045,75.1,64.8,100.4,0,2018,5,17,21,2,35.655,0.1986,-0.4625,-0.0698,0.8612
0.054,0.135,0.021,71.7,36.8,91.5,0,2018,5,17,21,2,35.674,0.2161,-0.4483,-0.0718,0.8643
0.05,0.189,0.015,68.9,-12,87.9,0,2018,5,17,21,2,35.696,0.2296,-0.436,-0.0797,0.8664
0.004,-0.022,0.069,63.4,-18.9,85.2,1023,2018,5,17,21,2,35.713,0.2401,-0.4253,-0.092,0.8677
0.018,-0.083,0.058,53.4,21.6,76.4,1023,2018,5,17,21,2,35.749,0.2516,-0.4147,-0.1011,0.8685
0.03,0.046,-0.011,48.5,49.1,70.6,1023,2018,5,17,21,2,35.772,0.2647,-0.4039,-0.1028,0.8695
0.013,0.229,-0.083,50.7,34.4,70.1,1023,2018,5,17,21,2,35.775,0.2775,-0.3932,-0.1028,0.8704
-0.025,0.267,-0.16,58.2,-12.8,72.6,1023,2018,5,17,21,2,35.793,0.288,-0.3831,-0.1089,0.8708
-0.061,-0.012,-0.188,66.7,-48.3,69.1,1023,2018,5,17,21,2,35.815,0.2953,-0.3742,-0.1223,0.8704
-0.01,-0.233,-0.151,74.5,-43.3,60.7,1023,2018,5,17,21,2,35.834,0.3004,-0.3645,-0.1376,0.8705
-0.026,-0.009,-0.14,81.2,-13.2,60,1023,2018,5,17,21,2,35.856,0.3059,-0.3527,-0.1499,0.8714
-0.041,0.251,-0.14,87.3,-18.9,65.4,1023,2018,5,17,21,2,35.875,0.3125,-0.339,-0.1599,0.8728
-0.098,0.067,-0.14,94.7,-56.3,69.7,1023,2018,5,17,21,2,35.895,0.3179,-0.3252,-0.1747,0.8732
-0.089,-0.094,-0.112,99.9,-66.7,67.6,1023,2018,5,17,21,2,35.933,0.3217,-0.3117,-0.1947,0.8725
-0.038,-0.187,-0.025,104.8,-17.4,61.5,1023,2018,5,17,21,2,35.955,0.3254,-0.2963,-0.2109,0.8727
-0.026,0.12,0.133,110.5,72.1,62.6,1023,2018,5,17,21,2,35.96,0.3325,-0.2753,-0.2155,0.8758
-0.047,0.143,0.427,108.9,90.2,65.3,1023,2018,5,17,21,2,35.976,0.3421,-0.251,-0.2122,0.8802
-0.086,-0.181,0.655,98.8,137.6,56.7,0,2018,5,17,21,2,35.999,0.3523,-0.226,-0.204,0.8849
-0.027,-0.093,0.722,87.4,166,34.7,0,2018,5,17,21,2,36.015,0.3621,-0.1999,-0.1877,0.8908
0.043,0.211,1.097,54.6,136,19.7,0,2018,5,17,21,2,36.033,0.3687,-0.1779,-0.1689,0.8965
0.122,0.166,1.486,5.5,55.7,18.6,0,2018,5,17,21,2,36.056,0.3739,-0.1662,-0.1564,0.8989
0.139,-0.279,1.493,-51.5,-12.5,0.1,0,2018,5,17,21,2,36.074,0.3764,-0.1686,-0.1529,0.898
0.066,-0.851,1.3,-105,1.6,-29.5,0,2018,5,17,21,2,36.097,0.3759,-0.1815,-0.1496,0.8962
0.044,-0.826,1.038,-146.3,63,-67.6,0,2018,5,17,21,2,36.115,0.3724,-0.2003,-0.1344,0.8961
-0.042,-0.746,0.762,-176.4,88,-104.6,0,2018,5,17,21,2,36.138,0.3651,-0.2226,-0.1085,0.8974
-0.078,-0.651,0.418,-192.8,107.8,-138.2,0,2018,5,17,21,2,36.157,0.3527,-0.2474,-0.0767,0.8991
-0.118,-0.57,0.188,-197.6,131,-162.7,0,2018,5,17,21,2,36.181,0.3362,-0.2727,-0.0391,0.9005
-0.214,-0.519,0.043,-202,146.5,-180,0,2018,5,17,21,2,36.199,0.3167,-0.2966,0.0027,0.9009
-0.207,-0.41,-0.03,-202.8,145.1,-193.1,0,2018,5,17,21,2,36.222,0.2943,-0.3196,0.047,0.8994
-0.198,-0.387,-0.16,-197.8,120.4,-202,0,2018,5,17,21,2,36.236,0.2685,-0.3422,0.0891,0.8959
-0.265,-0.363,-0.228,-188.2,105.5,-210,0,2018,5,17,21,2,36.255,0.2396,-0.3635,0.1281,0.891
-0.311,-0.321,-0.235,-180.1,99.8,-213.2,0,2018,5,17,21,2,36.276,0.2087,-0.3825,0.1653,0.8847
-0.295,-0.213,-0.303,-168.2,83.6,-211.9,0,2018,5,17,21,2,36.314,0.1767,-0.3993,0.1998,0.8771
-0.325,-0.188,-0.295,-156.1,71.7,-210.1,0,2018,5,17,21,2,36.314,0.1439,-0.4139,0.231,0.8686
-0.392,-0.247,-0.273,-143.6,72.4,-204.5,0,2018,5,17,21,2,36.336,0.1113,-0.4259,0.2602,0.8592
-0.41,-0.41,-0.285,-134.2,92,-199.8,1023,2018,5,17,21,2,36.375,0.0807,-0.4354,0.2898,0.8484
-0.338,-0.308,-0.373,-125.5,117.2,-193.7,1023,2018,5,17,21,2,36.398,0.053,-0.4427,0.3222,0.835
-0.316,-0.227,-0.438,-110.4,104.7,-184.4,1023,2018,5,17,21,2,36.403,0.0277,-0.4478,0.3542,0.8204
-0.27,-0.195,-0.456,-88.6,75.1,-176.2,1023,2018,5,17,21,2,36.419,0.0027,-0.4501,0.3812,0.8074
-0.275,-0.19,-0.408,-67.1,45.7,-169.1,1023,2018,5,17,21,2,36.442,-0.022,-0.4492,0.403,0.797
-0.32,-0.253,-0.337,-43.9,24.1,-162.5,1023,2018,5,17,21,2,36.46,-0.0463,-0.4451,0.4201,0.7894
-0.406,-0.326,-0.226,-29.9,34.8,-155.3,1023,2018,5,17,21,2,36.484,-0.0686,-0.4383,0.4359,0.783
-0.424,-0.166,-0.227,-20.5,29.3,-146.9,1023,2018,5,17,21,2,36.5,-0.0884,-0.4305,0.4518,0.7762
-0.38,-0.079,-0.27,-2.3,-0.8,-137.6,1023,2018,5,17,21,2,36.518,-0.1075,-0.4209,0.464,0.7719
-0.449,-0.173,-0.183,14.2,-8,-125.6,0,2018,5,17,21,2,36.541,-0.1253,-0.409,0.4725,0.7704
-0.505,-0.253,-0.09,19.4,24,-113.5,0,2018,5,17,21,2,36.559,-0.1393,-0.3968,0.4822,0.7684
-0.45,-0.125,-0.109,21.1,44,-104.1,0,2018,5,17,21,2,36.578,-0.1494,-0.3859,0.4954,0.7637
-0.414,-0.104,-0.138,30.4,25.2,-96.9,0,2018,5,17,21,2,36.601,-0.1583,-0.3745,0.5072,0.7598
-0.368,-0.114,-0.098,33.2,45.7,-85.2,0,2018,5,17,21,2,36.637,-0.1652,-0.363,0.5184,0.7563
-0.416,-0.272,0.083,24.8,126.3,-72.1,0,2018,5,17,21,2,36.66,-0.1676,-0.3543,0.5349,0.7484
-0.276,0.176,0.043,6.7,179.1,-63.6,0,2018,5,17,21,2,36.665,-0.1648,-0.3508,0.5607,0.7316
-0.17,0.319,-0.015,3.9,120.4,-50.9,0,2018,5,17,21,2,36.681,-0.1623,-0.3488,0.5836,0.715
-0.098,0.018,-0.011,6.2,86.2,-42,0,2018,5,17,21,2,36.704,-0.1622,-0.3455,0.5988,0.704
-0.106,0.041,-0.005,3.8,91.8,-34.5,0,2018,5,17,21,2,36.72,-0.1615,-0.3428,0.6125,0.6936
-0.064,0.043,0.072,-0.9,78.6,-33.1,0,2018,5,17,21,2,36.755,-0.161,-0.3408,0.6248,0.6837
0.005,0.059,-0.032,-2,47.6,-36.2,0,2018,5,17,21,2,36.777,-0.1618,-0.3388,0.6343,0.6757
-0.028,-0.125,-0.045,0,23.3,-40.1,0,2018,5,17,21,2,36.782,-0.1645,-0.3356,0.6402,0.671
-0.055,-0.258,0,-5.4,93.2,-41,0,2018,5,17,21,2,36.819,-0.1661,-0.3332,0.6487,0.6636
-0.071,0.044,0.002,-15,152,-40.9,0,2018,5,17,21,2,36.819,-0.1647,-0.3333,0.6659,0.6467
-0.045,0.258,0.032,-15.8,115.6,-44,0,2018,5,17,21,2,36.842,-0.1636,-0.3336,0.6838,0.6279
-0.024,0.417,0.046,-4.8,-25,-42,0,2018,5,17,21,2,36.861,-0.1676,-0.3303,0.6908,0.6208
-0.022,-0.139,-0.169,12.6,-125.6,-42.1,0,2018,5,17,21,2,36.884,-0.1773,-0.3218,0.6833,0.6309
-0.049,-0.07,-0.176,13.4,-31.6,-31.3,1023,2018,5,17,21,2,36.904,-0.1845,-0.3129,0.6763,0.6407
-0.02,0.31,-0.182,20.5,37.8,-11.3,1023,2018,5,17,21,2,36.924,-0.1844,-0.3092,0.6796,0.6391
-0.117,0.323,0.06,25.4,51.2,14.6,1023,2018,5,17,21,2,36.94,-0.1791,-0.308,0.6859,0.6343
-0.145,0.238,0.083,26.5,23,40.8,1023,2018,5,17,21,2,36.963,-0.1707,-0.3098,0.6895,0.6319
-0.204,-0.105,0.012,27.2,3.9,55.2,1023,2018,5,17,21,2,36.981,-0.1615,-0.3131,0.6886,0.6337
-0.137,-0.129,-0.103,30.6,30.8,59,1023,2018,5,17,21,2,37.004,-0.1509,-0.3171,0.688,0.6349
-0.115,-0.096,-0.126,46.8,42.1,62.1,1023,2018,5,17,21,2,37.022,-0.1373,-0.3212,0.69,0.6338
-0.137,-0.097,-0.081,60.2,13.2,61.7,1023,2018,5,17,21,2,37.059,-0.1222,-0.3235,0.6911,0.6346
-0.156,-0.208,-0.125,70.5,-31.2,57.4,1023,2018,5,17,21,2,37.082,-0.1081,-0.3231,0.6879,0.6408
-0.058,-0.211,-0.233,80.5,-53.4,57.6,1023,2018,5,17,21,2,37.087,-0.0952,-0.3206,0.6809,0.6514
-0.012,-0.161,-0.125,87.2,-57.2,60.4,0,2018,5,17,21,2,37.102,-0.0816,-0.317,0.6725,0.6636
-0.033,-0.199,0.009,87.9,-45.6,63.6,0,2018,5,17,21,2,37.125,-0.0667,-0.3135,0.664,0.6754
0.026,-0.108,-0.002,83.4,-4.1,72.2,0,2018,5,17,21,2,37.163,-0.0495,-0.3113,0.6581,0.6837
0.029,-0.007,-0.065,87.6,-0.9,79.3,0,2018,5,17,21,2,37.186,-0.03,-0.3104,0.6548,0.6883
0.001,-0.015,-0.108,94.9,-24.3,83.2,0,2018,5,17,21,2,37.191,-0.0103,-0.3089,0.6497,0.6944
-0.001,-0.005,-0.135,103.7,-54.5,86.4,0,2018,5,17,21,2,37.205,0.0092,-0.3068,0.641,0.7034
-0.017,-0.122,-0.124,110.3,-72.8,85.8,0,2018,5,17,21,2,37.221,0.0282,-0.3037,0.6284,0.7155
0.063,-0.16,-0.051,115.6,-74.7,77.4,0,2018,5,17,21,2,37.241,0.047,-0.2987,0.6141,0.7289
0.045,-0.09,-0.003,116.5,-88,70.7,0,2018,5,17,21,2,37.28,0.0652,-0.293,0.5983,0.7428
0.055,-0.041,-0.016,116.3,-76.1,68.3,0,2018,5,17,21,2,37.303,0.0827,-0.2866,0.582,0.7564
0.144,0.021,0.017,112.3,-58.4,62,0,2018,5,17,21,2,37.308,0.1003,-0.2795,0.5678,0.7676
0.231,0.093,0.098,108.3,-69.7,47.5,0,2018,5,17,21,2,37.323,0.1162,-0.2717,0.5543,0.778
0.137,0.089,0.107,102.6,-94.7,31,0,2018,5,17,21,2,37.345,0.1282,-0.2632,0.5381,0.7903
-0.004,0.114,0.052,103.1,-108.1,18.3,0,2018,5,17,21,2,37.383,0.1363,-0.2534,0.52,0.8041
-0.055,0.043,0.059,107.4,-104.4,7.9,0,2018,5,17,21,2,37.404,0.1425,-0.2416,0.5015,0.8183
-0.09,-0.007,0.074,109.7,-96.9,-1.3,0,2018,5,17,21,2,37.407,0.148,-0.2281,0.484,0.8316
-0.087,0.007,0.084,111.8,-92.8,-16.5,0,2018,5,17,21,2,37.421,0.152,-0.2132,0.4673,0.8443
-0.126,0.086,0.087,111.5,-76.1,-21.5,0,2018,5,17,21,2,37.444,0.1549,-0.1972,0.4523,0.8558
-0.16,0.134,0.115,111.7,-59.8,-15.2,0,2018,5,17,21,2,37.481,0.1586,-0.1808,0.4401,0.8651
-0.091,0.091,0.074,108.4,-59.5,-8.5,0,2018,5,17,21,2,37.504,0.1633,-0.1644,0.4283,0.8733
-0.041,0.095,0.044,105.3,-72.8,-9.4,0,2018,5,17,21,2,37.509,0.1676,-0.1484,0.4155,0.8815
-0.041,0.046,-0.015,104.6,-83.5,-8.1,1023,2018,5,17,21,2,37.525,0.1715,-0.1334,0.4006,0.89
-0.053,-0.006,-0.02,107.3,-88.1,-4.8,1023,2018,5,17,21,2,37.548,0.1755,-0.1187,0.3842,0.8985
-0.071,-0.17,0.11,103.9,-70.1,-0.2,1023,2018,5,17,21,2,37.586,0.1805,-0.1041,0.368,0.9061
-0.032,-0.177,0.046,98.4,-53.9,-5.6,1023,2018,5,17,21,2,37.586,0.1855,-0.0899,0.3554,0.9116
-0.021,-0.124,-0.072,98.3,-53.1,-17.2,1023,2018,5,17,21,2,37.608,0.1891,-0.0755,0.3433,0.9168
-0.043,-0.026,-0.153,102.8,-54.8,-25.7,1023,2018,5,17,21,2,37.626,0.1908,-0.0598,0.3316,0.9219
-0.095,-0.014,-0.083,108.1,-48.6,-27.9,1023,2018,5,17,21,2,37.649,0.1918,-0.0423,0.3206,0.9265
-0.088,0.002,0.002,110.4,-42.6,-27.1,1023,2018,5,17,21,2,37.686,0.1928,-0.0236,0.3098,0.9307
-0.074,0.093,0.026,110.1,-52,-26.6,0,2018,5,17,21,2,37.686,0.1941,-0.005,0.2989,0.9342
-0.077,0.095,-0.084,115.3,-63,-27.6,0,2018,5,17,21,2,37.709,0.1954,0.0129,0.2853,0.9382
-0.108,0.132,-0.068,120,-34.4,-26.9,0,2018,5,17,21,2,37.728,0.1969,0.0318,0.2732,0.941
-0.098,0.184,-0.029,122.9,-5.3,-22.9,0,2018,5,17,21,2,37.746,0.1988,0.0524,0.266,0.9417
-0.081,0.263,0.157,118.6,-8.6,-13.3,0,2018,5,17,21,2,37.769,0.2015,0.073,0.2612,0.9411
-0.113,0.393,0.375,115.4,-36.7,-6.2,0,2018,5,17,21,2,37.786,0.2057,0.0926,0.2544,0.9403
-0.079,0.513,0.364,103.5,-54.6,9.3,0,2018,5,17,21,2,37.809,0.2115,0.1093,0.2434,0.9402
-0.063,0.304,0.208,91.2,-3.5,34.7,0,2018,5,17,21,2,37.846,0.2201,0.1235,0.2365,0.9382
-0.137,0.637,0.412,72.4,20.5,50.1,0,2018,5,17,21,2,37.87,0.2301,0.1363,0.2378,0.9337
-0.216,0.647,0.902,45.3,-36.4,71.8,0,2018,5,17,21,2,37.874,0.2426,0.1432,0.236,0.9299
-0.247,0.401,1.129,-3.6,-88.3,90.1,0,2018,5,17,21,2,37.888,0.2585,0.1407,0.226,0.9285
-0.156,0.095,1.001,-60,-100.4,103,0,2018,5,17,21,2,37.906,0.2753,0.1268,0.2127,0.9288
-0.15,-0.068,0.953,-115,-82,98.3,0,2018,5,17,21,2,37.929,0.2904,0.1041,0.2044,0.9289
-0.097,-0.105,0.85,-162.8,-73.9,91.1,0,2018,5,17,21,2,37.947,0.3018,0.074,0.2006,0.929
-0.191,-0.197,0.723,-206.7,-62.5,80.6,0,2018,5,17,21,2,37.97,0.3099,0.0371,0.2001,0.9286
-0.262,-0.281,0.45,-240.7,-49.5,63.2,0,2018,5,17,21,2,37.99,0.3142,-0.005,0.2042,0.9271
-0.275,-0.261,0.308,-266.5,-32.7,40.4,0,2018,5,17,21,2,38.009,0.3131,-0.0504,0.2113,0.9245
-0.286,-0.247,0.284,-288.9,-7.6,24.4,0,2018,5,17,21,2,38.032,0.3076,-0.0974,0.2232,0.9197
-0.361,-0.16,0.234,-305.7,-6.7,5.8,0,2018,5,17,21,2,38.051,0.2979,-0.146,0.2381,0.9127
-0.36,-0.151,0.056,-311.7,-42.3,-15.4,0,2018,5,17,21,2,38.089,0.2833,-0.1962,0.2507,0.9046
-0.29,-0.209,-0.19,-298.6,-95,-51.3,1023,2018,5,17,21,2,38.112,0.2619,-0.2462,0.2559,0.8973
-0.166,-0.148,-0.208,-277.4,-153.1,-93.5,1023,2018,5,17,21,2,38.116,0.2318,-0.2934,0.2519,0.8925
-0.105,-0.14,-0.132,-253.1,-184.5,-128.6,1023,2018,5,17,21,2,38.13,0.1936,-0.3366,0.2404,0.8896
-0.15,-0.087,-0.246,-228.6,-180.7,-154.8,1023,2018,5,17,21,2,38.148,0.1503,-0.3744,0.2273,0.8862
-0.106,-0.032,-0.435,-191.4,-165.9,-170.6,1023,2018,5,17,21,2,38.172,0.1051,-0.4044,0.2164,0.8823
0.01,0.07,-0.513,-147.4,-137.5,-174.8,1023,2018,5,17,21,2,38.187,0.0611,-0.4261,0.2081,0.8782
0.032,0.138,-0.368,-109.5,-104.6,-167.8,1023,2018,5,17,21,2,38.21,0.0211,-0.4401,0.2037,0.8742
-0.022,0.096,-0.314,-82.6,-93.6,-156.9,1023,2018,5,17,21,2,38.229,-0.0143,-0.4491,0.2015,0.8703
0.018,0.016,-0.298,-51.7,-91.1,-144.8,1023,2018,5,17,21,2,38.252,-0.0468,-0.4534,0.1991,0.8675
-0.075,0.046,-0.173,-28.3,-94.8,-129.2,0,2018,5,17,21,2,38.289,-0.0761,-0.4535,0.1957,0.8661
-0.118,0.006,-0.143,-9.2,-106.6,-111.4,0,2018,5,17,21,2,38.311,-0.1029,-0.4506,0.1895,0.8662
-0.162,0.056,-0.122,1.5,-120.1,-92.5,0,2018,5,17,21,2,38.316,-0.1274,-0.4457,0.1806,0.8674
-0.223,-0.043,-0.112,14.1,-125.7,-72,0,2018,5,17,21,2,38.334,-0.1493,-0.4388,0.1682,0.8699
-0.278,-0.089,-0.138,22.3,-110.6,-54,0,2018,5,17,21,2,38.352,-0.1675,-0.4302,0.1559,0.8732
-0.317,-0.112,-0.175,30.3,-96.4,-38.9,0,2018,5,17,21,2,38.374,-0.1817,-0.4213,0.1446,0.8766
-0.363,-0.114,-0.198,36.5,-85.3,-27.9,0,2018,5,17,21,2,38.391,-0.1926,-0.4122,0.1344,0.8802
-0.378,-0.185,-0.222,42.1,-68.3,-18.7,0,2018,5,17,21,2,38.427,-0.2007,-0.4029,0.1254,0.884
-0.393,-0.209,-0.085,43,-32.9,-13.4,0,2018,5,17,21,2,38.451,-0.2057,-0.3941,0.1202,0.8876
-0.334,-0.143,-0.142,42.4,-16.2,-9.2,0,2018,5,17,21,2,38.455,-0.208,-0.3866,0.1191,0.8905
-0.252,-0.12,-0.197,46.5,-10.3,-8.3,0,2018,5,17,21,2,38.472,-0.2095,-0.3784,0.1191,0.8936
-0.236,-0.046,-0.145,46.2,11.6,-5.6,0,2018,5,17,21,2,38.496,-0.2098,-0.3703,0.1216,0.8966
-0.202,-0.029,-0.074,42.5,34.7,-4.4,0,2018,5,17,21,2,38.513,-0.2082,-0.3638,0.1274,0.8988
-0.134,-0.071,0.052,34.6,78.3,-4.1,0,2018,5,17,21,2,38.536,-0.2046,-0.3594,0.1377,0.8999
-0.119,0.151,0.108,23.7,87.1,-2.4,0,2018,5,17,21,2,38.552,-0.1989,-0.3579,0.1529,0.8993
-0.043,0.158,0.154,12.6,74.6,1.4,0,2018,5,17,21,2,38.575,-0.1934,-0.3578,0.1662,0.8982
-0.029,0.26,0.132,2.9,34.8,7.6,0,2018,5,17,21,2,38.592,-0.189,-0.3587,0.175,0.8971
-0.005,0.209,0.016,-2.2,7.6,17.2,0,2018,5,17,21,2,38.61,-0.1859,-0.3597,0.1773,0.8969
-0.095,0.179,-0.048,-5.4,-28.1,20.4,0,2018,5,17,21,2,38.634,-0.1836,-0.3606,0.1744,0.8976
-0.028,-0.113,-0.144,-0.5,-49.7,13.8,0,2018,5,17,21,2,38.651,-0.1835,-0.3608,0.1668,0.899
-0.006,-0.306,-0.255,8.6,-56.2,1,1023,2018,5,17,21,2,38.675,-0.1857,-0.3587,0.1575,0.901
0.014,-0.27,-0.21,17.8,-16.6,-10.2,1023,2018,5,17,21,2,38.712,-0.1887,-0.355,0.1521,0.9028
-0.052,-0.025,-0.01,15,25.8,-12.7,1023,2018,5,17,21,2,38.712,-0.1895,-0.3523,0.1544,0.9033
-0.108,0.164,0.064,6.9,4.4,-15.3,1023,2018,5,17,21,2,38.735,-0.1901,-0.3508,0.1591,0.903
-0.048,0.018,0.017,4.4,-43.3,-19.6,1023,2018,5,17,21,2,38.772,-0.1943,-0.3483,0.1571,0.9034
0.032,-0.176,-0.06,9.1,-56,-24.9,1023,2018,5,17,21,2,38.793,-0.2008,-0.3449,0.1498,0.9045
-0.092,0.101,0.03,7.1,-47.5,-23.4,1023,2018,5,17,21,2,38.796,-0.2074,-0.3409,0.1438,0.9055
-0.044,-0.164,-0.036,7.7,-13.3,-16.6,1023,2018,5,17,21,2,38.834,-0.213,-0.3378,0.1384,0.9062
-0.119,0.085,0.116,-2.3,92.1,-6.8,0,2018,5,17,21,2,38.854,-0.2113,-0.339,0.1474,0.9047
-0.073,0.106,0.1,-7.7,46.4,-5.8,0,2018,5,17,21,2,38.859,-0.2082,-0.3424,0.1591,0.9022
-0.122,0.079,0.034,-11.2,-12.3,-4.3,0,2018,5,17,21,2,38.874,-0.2084,-0.3443,0.1615,0.901
-0.173,-0.077,-0.049,-12.6,-40.8,-4.1,0,2018,5,17,21,2,38.892,-0.2114,-0.3442,0.1566,0.9012
-0.181,-0.209,-0.077,-14.7,-7.8,-4.2,0,2018,5,17,21,2,38.916,-0.2142,-0.3449,0.1518,0.9011
-0.17,-0.199,-0.074,-14.9,16,-5.9,0,2018,5,17,21,2,38.933,-0.2149,-0.347,0.1525,0.9
-0.123,-0.095,0.004,-15.5,33.3,-8.3,0,2018,5,17,21,2,38.956,-0.2147,-0.35,0.1569,0.8981
-0.086,-0.078,0.015,-19.8,22.3,-10.7,0,2018,5,17,21,2,38.993,-0.2152,-0.3526,0.1607,0.8963
-0.109,0.015,-0.031,-23.1,18.4,-9.3,0,2018,5,17,21,2,39.015,-0.2162,-0.3559,0.1636,0.8943
-0.023,0.021,-0.129,-20.1,-3.3,-7.8,0,2018,5,17,21,2,39.02,-0.2179,-0.3595,0.1651,0.8921
0.069,-0.042,-0.157,-15.6,17.9,-4.3,0,2018,5,17,21,2,39.056,-0.2193,-0.3626,0.1653,0.8905
0.046,0.184,0.016,-13.2,19.3,-1.3,0,2018,5,17,21,2,39.056,-0.2185,-0.3658,0.1691,0.8887
-0.064,0.113,0.221,-24.1,-15.9,5,0,2018,5,17,21,2,39.078,-0.2185,-0.3687,0.1685,0.8875
-0.077,-0.044,0.058,-35.3,-33.3,6.1,0,2018,5,17,21,2,39.096,-0.2205,-0.3722,0.1623,0.8868
0.076,0.014,-0.218,-33.4,-26.7,5.8,0,2018,5,17,21,2,39.115,-0.2225,-0.3769,0.1559,0.8854
0.077,0.094,-0.165,-24.3,-39.8,7.6,0,2018,5,17,21,2,39.137,-0.2242,-0.3803,0.1494,0.8847
0.009,0.137,-0.046,-20,-66.7,10.1,0,2018,5,17,21,2,39.156,-0.227,-0.3816,0.1398,0.8849
-0.106,-0.024,0.014,-24,-76,15.8,0,2018,5,17,21,2,39.18,-0.2308,-0.382,0.1269,0.8857
-0.145,0.032,0.026,-35.7,-68,19.7,0,2018,5,17,21,2,39.195,-0.2332,-0.3841,0.1138,0.886
-0.039,0.032,-0.09,-38.6,-93.8,21.8,0,2018,5,17,21,2,39.218,-0.2364,-0.3871,0.0987,0.8857
-0.03,-0.027,-0.154,-37,-97.3,24.2,0,2018,5,17,21,2,39.237,-0.2399,-0.3899,0.0805,0.8853
-0.064,-0.025,-0.128,-38.2,-84.5,27.8,1023,2018,5,17,21,2,39.26,-0.2423,-0.3928,0.0633,0.8848
-0.082,-0.065,-0.079,-42.8,-77,31.4,1023,2018,5,17,21,2,39.278,-0.2435,-0.3961,0.0471,0.884
-0.035,-0.086,-0.091,-47.9,-70.3,30.8,1023,2018,5,17,21,2,39.301,-0.2438,-0.4002,0.0311,0.8828
0.08,0.012,-0.127,-47,-62.4,32,1023,2018,5,17,21,2,39.317,-0.2435,-0.4059,0.0162,0.8806
0.043,0.008,-0.08,-46.4,-54.1,35.9,1023,2018,5,17,21,2,39.355,-0.2423,-0.4118,0.003,0.8784
-0.031,-0.016,0.003,-50.4,-30.9,42.6,1023,2018,5,17,21,2,39.355,-0.2393,-0.4175,-0.0084,0.8765
-0.075,-0.008,0.03,-59.2,-4.1,52,1023,2018,5,17,21,2,39.378,-0.2329,-0.4246,-0.016,0.8747
-0.039,-0.006,-0.03,-66.2,1,55.9,1023,2018,5,17,21,2,39.398,-0.2244,-0.4336,-0.0224,0.8724
0.029,0.011,-0.132,-67.2,-3.9,62,1023,2018,5,17,21,2,39.416,-0.2151,-0.4442,-0.0296,0.8692
0.01,0.056,-0.176,-67.2,-4.1,71.8,1023,2018,5,17,21,2,39.439,-0.2048,-0.4541,-0.0375,0.8662
-0.038,0.021,-0.15,-66.8,8.1,85,0,2018,5,17,21,2,39.478,-0.1924,-0.4638,-0.0458,0.8635
-0.048,-0.116,-0.055,-69.1,46.4,95.2,0,2018,5,17,21,2,39.478,-0.1755,-0.4744,-0.0519,0.861
-0.018,-0.112,-0.062,-74.5,82.9,103.6,0,2018,5,17,21,2,39.499,-0.1537,-0.4863,-0.0534,0.8584
0.039,0,-0.184,-75.7,93.5,113.5,0,2018,5,17,21,2,39.538,-0.1286,-0.4995,-0.0515,0.8551
0.043,0.163,-0.314,-68.8,64.5,126.3,0,2018,5,17,21,2,39.561,-0.1029,-0.5109,-0.0514,0.8518
0.086,0.24,-0.452,-52.6,16.5,140.9,0,2018,5,17,21,2,39.566,-0.0789,-0.5193,-0.0583,0.8488
0.021,0.045,-0.198,-37,3.8,154.6,0,2018,5,17,21,2,39.579,-0.056,-0.5241,-0.0713,0.8467
-0.034,-0.091,0.157,-34.6,22,161.2,0,2018,5,17,21,2,39.597,-0.0309,-0.5272,-0.0842,0.8449
-0.038,-0.136,0.179,-39.1,46.5,167.6,0,2018,5,17,21,2,39.619,-0.0027,-0.5302,-0.094,0.8426
0.035,-0.086,0.052,-39.2,47.5,169.4,0,2018,5,17,21,2,39.658,0.0274,-0.5327,-0.1024,0.8395
0.143,-0.098,-0.097,-28.7,30.8,167.2,0,2018,5,17,21,2,39.681,0.0567,-0.5346,-0.1123,0.8356
0.126,-0.119,-0.152,-18.4,24.3,167.4,0,2018,5,17,21,2,39.686,0.0837,-0.5342,-0.124,0.8319
0.067,-0.158,-0.04,-7.2,57.4,167.6,0,2018,5,17,21,2,39.702,0.112,-0.5316,-0.1335,0.8288
-0.028,-0.085,0.275,3.5,76.3,163.8,0,2018,5,17,21,2,39.72,0.1428,-0.526,-0.1392,0.8267
-0.006,-0.036,0.414,10.6,51.9,157.5,0,2018,5,17,21,2,39.743,0.1719,-0.519,-0.1447,0.8246
0.033,-0.055,0.376,12.1,43.5,153.1,0,2018,5,17,21,2,39.761,0.1977,-0.5119,-0.1528,0.8218
0.066,-0.09,0.139,16.2,78.8,151.8,0,2018,5,17,21,2,39.785,0.2243,-0.5034,-0.1588,0.8191
0.118,0.113,-0.078,33.9,136.4,150.4,0,2018,5,17,21,2,39.801,0.2546,-0.491,-0.1577,0.8179
0.015,0.231,-0.13,60,111.5,154.6,1023,2018,5,17,21,2,39.819,0.2864,-0.4738,-0.1542,0.8183
-0.04,0.269,-0.091,80.6,69,151.5,1023,2018,5,17,21,2,39.842,0.3133,-0.4548,-0.158,0.8185
-0.039,0.446,-0.228,104.3,25.1,153.8,1023,2018,5,17,21,2,39.86,0.3361,-0.4347,-0.1682,0.8183
-0.075,0.457,-0.379,129.6,-12.4,163.1,1023,2018,5,17,21,2,39.883,0.3551,-0.4128,-0.1869,0.8175
-0.22,-0.339,-0.059,143.8,5,166.8,1023,2018,5,17,21,2,39.92,0.3737,-0.3876,-0.2087,0.8163
-0.343,-0.528,0.39,132.1,78.5,147.2,0,2018,5,17,21,2,39.92,0.393,-0.3594,-0.2231,0.8164
-0.016,-0.282,0.324,118.3,202.1,133.3,0,2018,5,17,21,2,39.943,0.4165,-0.3259,-0.2201,0.8195
0.201,0.322,0.297,116.5,239.4,118.1,0,2018,5,17,21,2,39.964,0.4433,-0.2861,-0.2014,0.8252
0.279,0.672,0.418,118.7,118.5,111.6,0,2018,5,17,21,2,39.982,0.4639,-0.2508,-0.1903,0.828
0.052,-0.118,0.699,113.4,37.9,94,0,2018,5,17,21,2,40.003,0.4777,-0.2247,-0.1958,0.8263
0.044,-0.755,1.195,70.1,57.5,60.1,0,2018,5,17,21,2,40.025,0.4875,-0.2038,-0.2001,0.825
0.208,-0.736,1.574,6.2,75.5,10.2,0,2018,5,17,21,2,40.043,0.4936,-0.1907,-0.1947,0.8258
0.419,-0.428,1.471,-62.5,34.5,-31.4,0,2018,5,17,21,2,40.06,0.4948,-0.19,-0.1829,0.8279
0.353,-0.559,1.142,-120.3,-34.6,-75.1,0,2018,5,17,21,2,40.081,0.4896,-0.2055,-0.1737,0.8293
0.265,-0.751,0.769,-157.5,-50,-118.4,0,2018,5,17,21,2,40.119,0.4775,-0.2332,-0.1654,0.8307
0.08,-0.923,0.449,-181.5,-17.7,-168.4,0,2018,5,17,21,2,40.141,0.4596,-0.2649,-0.1507,0.8341
0.035,-0.696,0.181,-195.4,19,-211,0,2018,5,17,21,2,40.146,0.4362,-0.2968,-0.1261,0.8399
-0.002,-0.408,-0.065,-195.6,-1,-247.9,0,2018,5,17,21,2,40.164,0.4067,-0.3292,-0.0974,0.8465
-0.079,-0.27,-0.184,-179.2,-31.2,-267,0,2018,5,17,21,2,40.183,0.3698,-0.3619,-0.0718,0.8526
-0.115,-0.219,-0.233,-156.1,-67.1,-280.7,0,2018,5,17,21,2,40.203,0.3274,-0.3929,-0.0507,0.8577
-0.147,-0.137,-0.254,-130,-110.5,-288.9,0,2018,5,17,21,2,40.242,0.2792,-0.4212,-0.0361,0.8621
-0.154,-0.183,-0.312,-102.9,-139.5,-292.4,0,2018,5,17,21,2,40.242,0.2261,-0.446,-0.0283,0.8655
-0.242,-0.136,-0.302,-77.5,-136.6,-289.5,0,2018,5,17,21,2,40.265,0.1713,-0.4656,-0.023,0.8679
-0.283,-0.067,-0.333,-54.6,-120,-272.8,0,2018,5,17,21,2,40.283,0.1183,-0.4798,-0.0173,0.8691
-0.303,-0.161,-0.423,-33.4,-94.4,-256,0,2018,5,17,21,2,40.302,0.0692,-0.4888,-0.0104,0.8695
-0.354,-0.152,-0.378,-16,-51.8,-237.6,0,2018,5,17,21,2,40.325,0.0255,-0.4933,0.0001,0.8694
-0.405,0.008,-0.335,-5.3,-28.1,-213.8,1023,2018,5,17,21,2,40.36,-0.0117,-0.4948,0.0146,0.8687
-0.414,0.13,-0.303,4.4,-45.8,-186,1023,2018,5,17,21,2,40.383,-0.0448,-0.4939,0.0267,0.8679
-0.447,0.104,-0.168,12.6,-76.1,-160.2,1023,2018,5,17,21,2,40.388,-0.0762,-0.4908,0.0325,0.8672
-0.465,0.077,-0.146,17.8,-103.3,-137.7,1023,2018,5,17,21,2,40.422,-0.1062,-0.4863,0.0317,0.8666
-0.448,0.027,-0.141,26,-123.6,-116.5,1023,2018,5,17,21,2,40.445,-0.1349,-0.4798,0.0257,0.8665
-0.495,-0.015,-0.093,27.7,-133.7,-94.6,1023,2018,5,17,21,2,40.449,-0.1615,-0.4719,0.0155,0.8665
-0.564,-0.025,-0.058,26.2,-134.2,-76.6,1023,2018,5,17,21,2,40.466,-0.1851,-0.4636,0.003,0.8664
-0.449,-0.12,-0.138,24.5,-156.7,-55.8,1023,2018,5,17,21,2,40.489,-0.228,-0.4455,-0.0281,0.8652
-0.376,-0.068,-0.003,17.7,-146.1,-43.4,1023,2018,5,17,21,2,40.506,-0.2473,-0.4364,-0.0463,0.8638
-0.386,-0.171,0.1,10.2,-106.7,-30,1023,2018,5,17,21,2,40.53,-0.2627,-0.4288,-0.0626,0.862
-0.31,-0.06,0.045,1,-65.1,-22.4,1023,2018,5,17,21,2,40.547,-0.2728,-0.4245,-0.0727,0.8602
-0.232,-0.039,0.007,-6,-58.2,-17.7,0,2018,5,17,21,2,40.566,-0.28,-0.4223,-0.0801,0.8583
-0.182,-0.063,-0.033,-9.7,-63.2,-16.6,0,2018,5,17,21,2,40.607,-0.2868,-0.4207,-0.0881,0.8561
-0.138,-0.176,-0.081,-8.6,-61.3,-15.1,0,2018,5,17,21,2,40.61,-0.2936,-0.4186,-0.0971,0.8538
-0.053,-0.19,-0.088,-5.4,-32.1,-14.9,0,2018,5,17,21,2,40.625,-0.2992,-0.4175,-0.1034,0.8516
0.025,-0.129,-0.075,-3.9,-3.3,-15.1,0,2018,5,17,21,2,40.647,-0.3025,-0.4176,-0.105,0.8502
0.062,-0.009,-0.043,-1.4,9.1,-15.2,0,2018,5,17,21,2,40.683,-0.3041,-0.419,-0.1033,0.8492
0.046,-0.006,-0.029,1.1,14.4,-16.5,0,2018,5,17,21,2,40.707,-0.3055,-0.4204,-0.1007,0.8483
0.116,-0.084,-0.046,7.3,20,-20.7,0,2018,5,17,21,2,40.712,-0.3068,-0.4215,-0.0967,0.8478
0.166,-0.01,0.036,12.1,21.6,-24.9,0,2018,5,17,21,2,40.726,-0.3085,-0.422,-0.0916,0.8475
0.146,-0.009,0.096,14.5,17.1,-27,0,2018,5,17,21,2,40.749,-0.311,-0.4217,-0.0862,0.8472
0.081,0.01,0.117,14.8,21.6,-29.5,0,2018,5,17,21,2,40.767,-0.3139,-0.4208,-0.0805,0.8472
0.105,-0.001,0.123,16.4,30.2,-30.8,0,2018,5,17,21,2,40.786,-0.3166,-0.4199,-0.0734,0.8473
0.127,0.023,0.066,17.6,36,-29.6,0,2018,5,17,21,2,40.809,-0.3187,-0.4196,-0.0649,0.8473
0.156,-0.029,0.03,22.9,44.9,-29,0,2018,5,17,21,2,40.829,-0.32,-0.4195,-0.056,0.8475
0.089,0.047,0.077,24.4,50.4,-29.7,0,2018,5,17,21,2,40.866,-0.3207,-0.4192,-0.045,0.8481
0.035,0.087,0.036,24.3,45.2,-27.6,0,2018,5,17,21,2,40.888,-0.3219,-0.4186,-0.0339,0.8485
0.081,0.037,0.028,27.9,44.4,-27.8,0,2018,5,17,21,2,40.891,-0.3228,-0.4176,-0.0235,0.8489
0.111,-0.016,0.01,34.3,36,-28.2,0,2018,5,17,21,2,40.91,-0.324,-0.4158,-0.0139,0.8496
0.081,-0.086,0.012,40.8,45.4,-28.2,0,2018,5,17,21,2,40.929,-0.3251,-0.4127,-0.005,0.8508
0.024,-0.051,0.015,42.4,76.8,-27.5,1023,2018,5,17,21,2,40.951,-0.3244,-0.41,0.0078,0.8524
0.04,-0.044,-0.017,43.5,116.3,-25.4,1023,2018,5,17,21,2,40.967,-0.321,-0.4091,0.026,0.8537
0.048,-0.03,-0.062,44.7,149.9,-25.5,1023,2018,5,17,21,2,41.004,-0.3144,-0.4101,0.0501,0.8545
0.029,-0.001,-0.148,46.9,178.1,-25,1023,2018,5,17,21,2,41.026,-0.3056,-0.4127,0.0788,0.8544
0.014,-0.041,-0.219,49.8,214.1,-27,1023,2018,5,17,21,2,41.031,-0.2945,-0.4153,0.1124,0.8532
-0.014,-0.054,-0.263,52.2,281,-29.5,1023,2018,5,17,21,2,41.049,-0.2795,-0.4194,0.1537,0.8498
-0.068,-0.059,-0.255,53,351.6,-34,1023,2018,5,17,21,2,41.067,-0.2589,-0.4257,0.2056,0.8422
-0.091,-0.097,-0.261,47.9,406.7,-43.8,1023,2018,5,17,21,2,41.09,-0.2339,-0.433,0.2665,0.8287
-0.115,-0.056,-0.252,39.1,450.1,-53.8,1023,2018,5,17,21,2,41.108,-0.2058,-0.4406,0.3334,0.8076
-0.153,0.044,-0.19,26.9,454.6,-60.9,1023,2018,5,17,21,2,41.129,-0.1761,-0.4476,0.4023,0.7788
-0.174,0.134,-0.13,16.8,392.6,-67.4,0,2018,5,17,21,2,41.15,-0.1496,-0.452,0.4647,0.7465
-0.167,0.186,-0.058,10.3,296.5,-71,0,2018,5,17,21,2,41.173,-0.1301,-0.4527,0.5145,0.7164
-0.14,0.17,-0.07,10.9,183.8,-71.6,0,2018,5,17,21,2,41.191,-0.1193,-0.4498,0.5495,0.6937
-0.119,0.107,-0.089,14.1,102.6,-62.6,0,2018,5,17,21,2,41.213,-0.1155,-0.4446,0.5714,0.6799
-0.17,0.059,-0.114,20.6,61.3,-54,0,2018,5,17,21,2,41.251,-0.1145,-0.4382,0.5855,0.6722
-0.204,-0.02,-0.123,26.2,43,-47.9,0,2018,5,17,21,2,41.251,-0.1141,-0.4313,0.5957,0.6678
-0.211,-0.115,-0.142,34.3,37.1,-41.5,0,2018,5,17,21,2,41.273,-0.1132,-0.4238,0.6042,0.6651
-0.23,-0.141,-0.131,40.9,39.9,-33,0,2018,5,17,21,2,41.292,-0.1108,-0.4162,0.6121,0.663
-0.245,-0.028,-0.137,47.7,37.6,-19.6,0,2018,5,17,21,2,41.309,-0.1061,-0.409,0.6195,0.6614
-0.234,0.077,-0.098,56.5,17,-6.9,0,2018,5,17,21,2,41.332,-0.0999,-0.4021,0.6246,0.6618
-0.206,-0.014,-0.069,60.5,0.7,6.8,0,2018,5,17,21,2,41.35,-0.093,-0.3953,0.6263,0.6653
-0.185,-0.08,-0.044,61.7,6.2,21.7,0,2018,5,17,21,2,41.373,-0.0844,-0.3899,0.6267,0.6692
-0.127,-0.021,-0.015,64.7,-8.6,32.6,0,2018,5,17,21,2,41.391,-0.0745,-0.3853,0.6261,0.6736
-0.124,0.009,-0.013,70.8,-50,44.3,0,2018,5,17,21,2,41.414,-0.0653,-0.3805,0.6213,0.6818
-0.042,-0.108,-0.087,74.6,-79.4,56.8,0,2018,5,17,21,2,41.451,-0.0561,-0.3763,0.6109,0.6942
-0.008,-0.201,-0.193,79.2,-81.6,66.2,0,2018,5,17,21,2,41.451,-0.0457,-0.3728,0.5976,0.7083
-0.026,-0.101,-0.15,83.1,-86.2,70.1,0,2018,5,17,21,2,41.473,-0.0341,-0.3691,0.5834,0.7226
-0.07,-0.117,-0.126,88.7,-92.3,69.3,0,2018,5,17,21,2,41.493,-0.0224,-0.3651,0.5683,0.7369
-0.097,-0.043,-0.095,95.4,-81.8,67.6,1023,2018,5,17,21,2,41.509,-0.0101,-0.3597,0.5537,0.7508
0.013,0.01,-0.106,104,-79,70.1,1023,2018,5,17,21,2,41.533,0.0033,-0.3531,0.5393,0.7644
0.096,-0.03,0.015,108.4,-68.5,67.3,1023,2018,5,17,21,2,41.551,0.0186,-0.346,0.525,0.7773
0.027,0.025,0.063,109.4,-68.9,61.3,1023,2018,5,17,21,2,41.575,0.0335,-0.3374,0.5108,0.79
-0.007,0.015,-0.002,113.4,-73.9,51.5,1023,2018,5,17,21,2,41.592,0.047,-0.3273,0.4965,0.8025
0.001,0,-0.004,122.4,-77.8,36.9,1023,2018,5,17,21,2,41.615,0.0591,-0.3151,0.4822,0.8152
0.02,0.047,-0.06,133,-79.9,27.3,1023,2018,5,17,21,2,41.633,0.0698,-0.3003,0.4679,0.8282
-0.042,0.081,0.073,142.1,-86.2,16.5,1023,2018,5,17,21,2,41.654,0.0799,-0.2828,0.4534,0.8414
-0.001,0.083,0.222,144.2,-103.5,3.9,1023,2018,5,17,21,2,41.692,0.0877,-0.263,0.4363,0.8559
-0.024,0.064,0.147,142.1,-108.7,-0.9,0,2018,5,17,21,2,41.715,0.0938,-0.2431,0.4177,0.8703
-0.078,0.004,-0.121,148.5,-102.5,-2.4,0,2018,5,17,21,2,41.719,0.099,-0.222,0.3991,0.884
-0.108,0.03,-0.259,163.1,-82,-5.5,0,2018,5,17,21,2,41.734,0.1056,-0.199,0.3824,0.896
-0.139,0.126,-0.175,176.2,-76.7,-3,0,2018,5,17,21,2,41.752,0.1134,-0.1734,0.3672,0.9067
-0.198,0.117,-0.088,188.8,-87.1,0,0,2018,5,17,21,2,41.775,0.1224,-0.1458,0.3505,0.9169
-0.188,-0.088,-0.218,198.1,-83.7,4.5,0,2018,5,17,21,2,41.812,0.1324,-0.1167,0.332,0.9265
-0.255,-0.116,-0.271,209.9,-67.8,-2.3,0,2018,5,17,21,2,41.834,0.1428,-0.0855,0.3148,0.9344
-0.246,-0.059,-0.11,219.6,-49.2,-10.9,0,2018,5,17,21,2,41.838,0.1524,-0.0512,0.2997,0.9403
-0.223,0.017,-0.061,217,-26.6,-12.7,0,2018,5,17,21,2,41.855,0.1613,-0.0156,0.2876,0.9439
-0.22,0.112,-0.07,217.1,-5.4,-15.4,0,2018,5,17,21,2,41.893,0.1698,0.0202,0.2791,0.9448
-0.195,0.271,-0.042,220.1,0.9,-20.4,0,2018,5,17,21,2,41.914,0.1772,0.0571,0.2718,0.9441
-0.211,0.419,0.243,212.4,21.8,-12.1,0,2018,5,17,21,2,41.918,0.1848,0.0941,0.267,0.9411
-0.215,0.52,0.542,189.2,46.2,6.2,0,2018,5,17,21,2,41.935,0.1932,0.1287,0.2665,0.9354
-0.143,0.527,0.837,152,75.6,30.8,0,2018,5,17,21,2,41.954,0.2026,0.158,0.2715,0.9274
-0.12,0.77,1.225,106.5,30,56.2,0,2018,5,17,21,2,41.977,0.2146,0.1784,0.2773,0.9193
-0.165,0.652,1.647,40.1,-46.9,91.8,0,2018,5,17,21,2,41.993,0.2308,0.1859,0.2753,0.9145
-0.174,0.218,1.57,-43.8,-107.5,119.5,0,2018,5,17,21,2,42.016,0.2504,0.1766,0.2657,0.914
-0.062,0.073,1.155,-117.5,-151.4,117.7,0,2018,5,17,21,2,42.035,0.2698,0.152,0.2526,0.9166
-0.115,-0.04,0.944,-179.2,-185.5,103.6,0,2018,5,17,21,2,42.058,0.2852,0.1147,0.2348,0.9221
-0.203,-0.112,0.849,-235.3,-184.7,84.5,0,2018,5,17,21,2,42.079,0.2953,0.0678,0.2169,0.9279
-0.331,-0.134,0.655,-284.5,-187.3,55.1,0,2018,5,17,21,2,42.096,0.2985,0.0129,0.2009,0.9328
-0.348,-0.113,0.32,-317.3,-176.5,22.7,0,2018,5,17,21,2,42.119,0.2942,-0.0473,0.187,0.936
-0.328,-0.068,0.045,-328.1,-149.4,-6.5,0,2018,5,17,21,2,42.156,0.2829,-0.1089,0.1766,0.9364
-0.35,-0.113,-0.054,-330.1,-102.7,-36.2,0,2018,5,17,21,2,42.156,0.2663,-0.1681,0.1726,0.9332
-0.392,-0.037,-0.102,-325,-56.1,-56.8,0,2018,5,17,21,2,42.177,0.2461,-0.2233,0.1769,0.9264
-0.368,-0.022,-0.137,-312.8,-44.5,-77.7,0,2018,5,17,21,2,42.194,0.2232,-0.2746,0.1856,0.9166
-0.231,0,-0.259,-289.8,-69.7,-100.1,0,2018,5,17,21,2,42.217,0.1959,-0.3214,0.1929,0.9061
-0.11,0.026,-0.389,-254,-116.3,-121.5,0,2018,5,17,21,2,42.235,0.1637,-0.3633,0.1937,0.8964
-0.059,0.097,-0.377,-209.2,-157.3,-141.3,0,2018,5,17,21,2,42.258,0.1259,-0.3983,0.1867,0.8891
-0.043,0.13,-0.344,-168.1,-166.5,-145.9,0,2018,5,17,21,2,42.276,0.0856,-0.4257,0.1749,0.8836
0.031,0.109,-0.398,-132.3,-153.4,-144.8,0,2018,5,17,21,2,42.297,0.0466,-0.4463,0.1632,0.8786
0.043,0.084,-0.42,-92.3,-138.5,-139.1,0,2018,5,17,21,2,42.333,0.0102,-0.4602,0.1526,0.8745
