ax,ay,az,dpitch,droll,dyaw,heart,time_1,time_2,time_3,time_4,time_5,time_6,w,x,y,z
0,0.04,-0.062,-0.5,0.7,0.4,1023,2018,5,17,21,9,39.667,0.482,-0.0196,-0.4433,0.7553
0.014,0,-0.065,2.4,-5.8,-0.3,1023,2018,5,17,21,9,39.688,0.4818,-0.0195,-0.4445,0.7548
-0.002,0.002,-0.042,2.9,-10.2,-1,1023,2018,5,17,21,9,39.704,0.4813,-0.0199,-0.4463,0.754
-0.013,0.011,-0.01,1.5,-11.5,-1,1023,2018,5,17,21,9,39.728,0.481,-0.0205,-0.4482,0.7531
-0.029,0.027,0.005,-0.4,-8.7,-0.6,1023,2018,5,17,21,9,39.762,0.481,-0.021,-0.4497,0.7522
-0.032,0.015,0.005,-1.2,-5.5,-1.6,1023,2018,5,17,21,9,39.785,0.4811,-0.0214,-0.4506,0.7516
0.005,0.031,0.005,-1.2,-3.3,-1.7,1023,2018,5,17,21,9,39.79,0.4809,-0.0217,-0.4511,0.7514
0.006,0.026,-0.001,-2.4,-4.5,-0.6,1023,2018,5,17,21,9,39.804,0.481,-0.0221,-0.4514,0.7512
-0.005,0.02,-0.018,-1.9,-3,0.4,1023,2018,5,17,21,9,39.823,0.4811,-0.0224,-0.452,0.7507
0.007,0.006,-0.025,-0.3,-1.9,-0.2,0,2018,5,17,21,9,39.847,0.4811,-0.0224,-0.4526,0.7503
0.026,0.003,-0.011,0.7,-4.4,-0.7,0,2018,5,17,21,9,39.882,0.4809,-0.0227,-0.4532,0.7501
0.017,-0.021,-0.01,0.2,-6.2,-1.2,0,2018,5,17,21,9,39.906,0.4806,-0.0232,-0.4542,0.7497
0.014,-0.014,-0.003,-0.3,-5.9,-0.8,0,2018,5,17,21,9,39.909,0.4803,-0.0239,-0.4552,0.7492
0.014,-0.025,-0.002,-0.1,-1.1,-1.5,0,2018,5,17,21,9,39.925,0.48,-0.0245,-0.456,0.7489
0.013,-0.017,0.001,-0.2,2.9,-2.1,0,2018,5,17,21,9,39.949,0.4797,-0.0247,-0.4558,0.7492
0.002,-0.026,-0.007,-0.4,6.2,-3.1,0,2018,5,17,21,9,39.982,0.4793,-0.0247,-0.4554,0.7497
-0.009,0.003,-0.013,-0.9,10.4,-3.1,0,2018,5,17,21,9,40.004,0.4788,-0.0241,-0.4546,0.7505
-0.012,0.028,-0.022,-1.2,9.6,-2.1,0,2018,5,17,21,9,40.009,0.4787,-0.0233,-0.4533,0.7515
-0.007,0.024,-0.021,-0.7,6.4,-1,0,2018,5,17,21,9,40.025,0.4787,-0.0227,-0.4523,0.7521
-0.007,0.033,-0.018,0.2,2.2,-1,0,2018,5,17,21,9,40.062,0.4787,-0.0222,-0.4518,0.7524
-0.011,0.032,-0.003,1.1,-1,-1.1,0,2018,5,17,21,9,40.083,0.4786,-0.0219,-0.4518,0.7524
-0.013,0.006,0.001,0.6,1.9,-1.2,0,2018,5,17,21,9,40.087,0.4784,-0.0216,-0.452,0.7525
-0.008,0.006,-0.001,0,5.5,-1.1,0,2018,5,17,21,9,40.107,0.4783,-0.0211,-0.4515,0.7528
0.006,0,-0.024,-0.1,4.5,-0.8,0,2018,5,17,21,9,40.125,0.4782,-0.0207,-0.4509,0.7532
0.007,-0.016,-0.007,0.8,3.1,-1.3,0,2018,5,17,21,9,40.148,0.478,-0.0206,-0.4506,0.7535
-0.009,-0.015,-0.007,0.6,7.8,-2.1,0,2018,5,17,21,9,40.167,0.4777,-0.0203,-0.4501,0.7541
-0.003,0.035,-0.037,0.6,10.3,-1.9,0,2018,5,17,21,9,40.191,0.4775,-0.0195,-0.449,0.7549
0.012,0.045,-0.04,1.7,10.5,-2.4,0,2018,5,17,21,9,40.211,0.4771,-0.0186,-0.4477,0.7559
0.009,0.049,-0.034,4.3,8.9,-2,0,2018,5,17,21,9,40.226,0.4767,-0.0173,-0.4466,0.7568
0.008,0.064,-0.052,7.4,-1.2,-1,1023,2018,5,17,21,9,40.243,0.4762,-0.0163,-0.4466,0.7572
0.005,0.059,-0.086,12.2,-11.2,1.5,1023,2018,5,17,21,9,40.267,0.4756,-0.015,-0.4485,0.7565
-0.017,-0.1,-0.011,10.3,-3,-0.6,1023,2018,5,17,21,9,40.302,0.4745,-0.0141,-0.4513,0.7555
-0.028,-0.073,0.033,3.2,14.6,-0.7,1023,2018,5,17,21,9,40.325,0.4737,-0.0128,-0.4514,0.756
-0.004,-0.019,0.039,-0.5,16.2,-1.9,1023,2018,5,17,21,9,40.33,0.4734,-0.0115,-0.4494,0.7574
-0.002,0.022,-0.039,0.7,6.1,-2.2,1023,2018,5,17,21,9,40.348,0.4732,-0.0108,-0.4479,0.7584
-0.012,-0.081,-0.017,3.2,17.6,-3.4,1023,2018,5,17,21,9,40.372,0.4725,-0.0102,-0.4472,0.7592
-0.071,-0.048,0.086,-1.5,50.2,-1.5,1023,2018,5,17,21,9,40.407,0.4721,-0.0072,-0.443,0.762
-0.04,-0.029,0.092,-10.5,71.8,-0.6,1023,2018,5,17,21,9,40.43,0.4727,-0.0027,-0.4337,0.767
-0.002,0.008,0.04,-13.7,73.8,0.4,0,2018,5,17,21,9,40.434,0.4739,0.0016,-0.4222,0.7727
0.015,0.046,0.011,-11.5,66,0.3,0,2018,5,17,21,9,40.453,0.4749,0.0058,-0.4113,0.7778
0.021,0.104,-0.015,-6.8,59.3,0.8,0,2018,5,17,21,9,40.47,0.4758,0.01,-0.4015,0.7824
0.038,0.047,0.001,-5.9,52.7,0.8,0,2018,5,17,21,9,40.493,0.4765,0.014,-0.3928,0.7863
0.067,0.022,-0.02,-3.6,45.7,-1,0,2018,5,17,21,9,40.509,0.4767,0.017,-0.3852,0.7899
0.106,0.038,-0.003,1.8,39.3,-5.1,0,2018,5,17,21,9,40.546,0.4763,0.0195,-0.3788,0.7932
0.109,0.014,0.08,3.2,38.8,-10.5,0,2018,5,17,21,9,40.569,0.4748,0.0221,-0.3734,0.7966
0.132,-0.04,0.103,5.6,34.8,-16.8,0,2018,5,17,21,9,40.574,0.4726,0.025,-0.3683,0.8002
0.273,-0.025,0.022,9.6,6.6,-25.4,0,2018,5,17,21,9,40.59,0.469,0.0263,-0.3658,0.8033
0.418,0.057,0.048,17,-30.1,-20.9,0,2018,5,17,21,9,40.628,0.4648,0.0256,-0.3687,0.8045
0.211,0.249,0.184,15.3,-102.9,-20.6,0,2018,5,17,21,9,40.651,0.461,0.0218,-0.3789,0.802
0.213,0.421,0.062,10.6,-209.8,-9.8,0,2018,5,17,21,9,40.655,0.4585,0.0094,-0.402,0.7924
0.101,0.291,-0.003,7.3,-269.7,8.5,0,2018,5,17,21,9,40.671,0.4578,-0.0088,-0.4364,0.7745
-0.119,0.228,-0.127,-2,-293.9,21.8,0,2018,5,17,21,9,40.693,0.4588,-0.0302,-0.4744,0.7506
-0.261,0.036,-0.168,-8.2,-262.5,31.7,0,2018,5,17,21,9,40.71,0.4608,-0.051,-0.5102,0.7243
-0.314,-0.086,-0.27,-9.8,-196.4,34.1,0,2018,5,17,21,9,40.728,0.4635,-0.0678,-0.5386,0.7002
-0.283,-0.038,-0.311,-11.1,-106.7,30.1,0,2018,5,17,21,9,40.749,0.4664,-0.0781,-0.5562,0.6832
-0.273,0.065,-0.294,-10.6,-39.7,26.5,0,2018,5,17,21,9,40.786,0.47,-0.0824,-0.5638,0.674
-0.232,0.093,-0.279,-3.6,3.1,22,0,2018,5,17,21,9,40.81,0.4733,-0.0822,-0.5653,0.6704
-0.207,0.126,-0.1,1.3,34.1,21.5,0,2018,5,17,21,9,40.815,0.4762,-0.0784,-0.5631,0.6706
-0.147,0.17,-0.033,1.6,28.9,18.7,0,2018,5,17,21,9,40.83,0.4788,-0.0733,-0.5596,0.6724
-0.069,0.121,-0.07,5.6,-7.1,17.4,0,2018,5,17,21,9,40.854,0.4808,-0.0701,-0.5588,0.672
-0.063,-0.018,-0.122,14.1,-37.2,15.6,0,2018,5,17,21,9,40.889,0.4815,-0.0691,-0.5631,0.6679
-0.054,-0.147,-0.07,18.6,-33.2,10.4,1023,2018,5,17,21,9,40.912,0.4807,-0.069,-0.5696,0.6629
-0.034,-0.207,0.009,15.8,-10.5,1.8,1023,2018,5,17,21,9,40.917,0.4789,-0.0686,-0.5744,0.6602
-0.007,-0.15,0.057,11.1,11,-3.3,1023,2018,5,17,21,9,40.934,0.4771,-0.0674,-0.5755,0.6607
0.007,-0.083,0.051,8.6,12.4,-6.1,1023,2018,5,17,21,9,40.95,0.4755,-0.066,-0.5746,0.6627
0.052,-0.036,0.014,9.3,3.7,-5.8,1023,2018,5,17,21,9,40.988,0.4737,-0.0652,-0.5743,0.6643
0.051,-0.071,0.052,7.4,6.6,-4.3,1023,2018,5,17,21,9,41.01,0.472,-0.0647,-0.5746,0.6654
0.074,-0.057,0.088,2,11.3,-2.4,1023,2018,5,17,21,9,41.015,0.4711,-0.0643,-0.5732,0.6672
0.049,-0.066,0.093,-0.3,16.9,-1.6,1023,2018,5,17,21,9,41.033,0.4708,-0.0636,-0.5712,0.6692
0.058,-0.007,0.05,-2.4,10.7,-2,1023,2018,5,17,21,9,41.05,0.4708,-0.063,-0.5688,0.6713
0.047,-0.007,-0.007,-1.8,-3.6,-1.8,0,2018,5,17,21,9,41.073,0.4707,-0.0634,-0.5682,0.6719
0.014,-0.032,-0.007,0,-3,-0.2,0,2018,5,17,21,9,41.112,0.4703,-0.0643,-0.5688,0.6715
-0.021,-0.007,0.025,0.3,3.8,1.2,0,2018,5,17,21,9,41.112,0.4703,-0.0641,-0.5688,0.6715
-0.049,-0.014,-0.003,-0.4,3.4,0.1,0,2018,5,17,21,9,41.134,0.4707,-0.0633,-0.5684,0.6717
-0.062,0.014,-0.029,0.1,1.1,-2.5,0,2018,5,17,21,9,41.173,0.4706,-0.0627,-0.5686,0.6717
-0.048,0.015,-0.044,0.4,-1.7,-3.6,0,2018,5,17,21,9,41.173,0.4703,-0.0624,-0.5692,0.6714
-0.03,0.011,-0.032,1.4,3,-4.5,0,2018,5,17,21,9,41.197,0.4697,-0.0621,-0.5699,0.6712
-0.014,0.03,-0.01,1.8,10.5,-4.8,0,2018,5,17,21,9,41.211,0.4691,-0.0614,-0.5695,0.6721
0.022,0.052,-0.018,0.4,11,-4.4,0,2018,5,17,21,9,41.234,0.4686,-0.0606,-0.5683,0.6735
0.013,0.049,-0.015,0.2,8,-3.7,0,2018,5,17,21,9,41.251,0.4682,-0.06,-0.5672,0.6747
0.002,0.034,-0.014,-0.5,10.7,-2.1,0,2018,5,17,21,9,41.274,0.468,-0.0593,-0.5662,0.6758
0.004,0.006,-0.011,-0.2,14.2,-1.8,0,2018,5,17,21,9,41.292,0.468,-0.0584,-0.5648,0.6771
0.016,-0.01,-0.019,1.3,30.9,0.1,0,2018,5,17,21,9,41.315,0.4679,-0.0567,-0.5625,0.6792
-0.001,-0.032,0.039,-1.7,39.8,-6,0,2018,5,17,21,9,41.35,0.4679,-0.0539,-0.5579,0.6832
0.051,-0.045,-0.008,-3.7,34,-9.7,0,2018,5,17,21,9,41.374,0.4674,-0.0523,-0.5531,0.6875
0.048,-0.067,-0.055,-0.4,32.7,-10.5,0,2018,5,17,21,9,41.377,0.4662,-0.0515,-0.5493,0.6915
0.024,-0.139,-0.012,3.1,40.7,-13.7,0,2018,5,17,21,9,41.394,0.4644,-0.0501,-0.5454,0.6958
0.029,-0.184,0.029,0.9,61.5,-18.6,0,2018,5,17,21,9,41.416,0.462,-0.048,-0.5397,0.702
0.064,-0.167,0.06,-5.1,84.4,-21,0,2018,5,17,21,9,41.434,0.4598,-0.045,-0.5302,0.7108
0.051,-0.149,0.015,-6.2,110.7,-21.4,0,2018,5,17,21,9,41.471,0.4578,-0.0407,-0.5177,0.7215
-0.009,-0.111,0.005,-5,142.9,-22.3,0,2018,5,17,21,9,41.494,0.4559,-0.0336,-0.5012,0.7346
0.01,-0.15,-0.012,-3.1,169,-25.1,0,2018,5,17,21,9,41.497,0.4535,-0.0242,-0.4811,0.7497
-0.04,-0.056,0.031,-0.1,195.2,-27.3,0,2018,5,17,21,9,41.513,0.4504,-0.0123,-0.4572,0.7667
-0.075,0.009,0.132,-5,215.6,-26.5,1023,2018,5,17,21,9,41.536,0.4471,0.0017,-0.4289,0.7848
-0.051,0.021,0.051,-10.3,244.7,-19.5,1023,2018,5,17,21,9,41.554,0.4445,0.0175,-0.3957,0.8033
-0.031,0.025,-0.154,-7.8,261.6,-16.5,1023,2018,5,17,21,9,41.577,0.4414,0.0352,-0.3592,0.8214
-0.025,0.068,-0.223,0.7,245.2,-15.7,1023,2018,5,17,21,9,41.597,0.4372,0.0534,-0.3223,0.8378
-0.036,0.108,-0.229,8.1,208.5,-15.7,1023,2018,5,17,21,9,41.619,0.4322,0.0705,-0.2893,0.8511
-0.081,0.166,-0.24,11.7,179.1,-15.4,1023,2018,5,17,21,9,41.638,0.4268,0.0857,-0.2612,0.8614
0.003,0.267,-0.182,13,130.7,-9.3,1023,2018,5,17,21,9,41.659,0.4219,0.0984,-0.239,0.8689
0.015,0.229,-0.162,17.8,81.9,-3.9,1023,2018,5,17,21,9,41.679,0.4188,0.1082,-0.224,0.8733
0.07,0.271,-0.178,24.9,19.6,0.7,1023,2018,5,17,21,9,41.697,0.4171,0.1149,-0.2174,0.8749
0.045,0.287,-0.267,37.2,-58.3,9.8,1023,2018,5,17,21,9,41.715,0.4175,0.118,-0.2225,0.873
-0.068,0.243,-0.137,40.9,-129.2,17.5,0,2018,5,17,21,9,41.738,0.4203,0.1176,-0.2393,0.8672
-0.085,0.223,0.007,29,-220.6,21.6,0,2018,5,17,21,9,41.758,0.4254,0.1104,-0.268,0.8573
-0.087,-0.06,0.028,15.7,-241.7,25,0,2018,5,17,21,9,41.776,0.4325,0.097,-0.3046,0.843
-0.134,-0.146,-0.005,3.6,-212,18.4,0,2018,5,17,21,9,41.799,0.4388,0.0824,-0.3388,0.8281
-0.139,-0.192,-0.056,0.4,-166.7,15.1,0,2018,5,17,21,9,41.836,0.4437,0.0688,-0.3658,0.8151
-0.088,-0.2,-0.007,3.4,-94.4,10.8,0,2018,5,17,21,9,41.859,0.447,0.0598,-0.3841,0.8056
-0.067,-0.065,0.083,1.3,-63.8,3.1,0,2018,5,17,21,9,41.863,0.4485,0.0547,-0.3949,0.7999
-0.065,-0.012,0.086,-2.7,-64.1,1.4,0,2018,5,17,21,9,41.881,0.4496,0.0499,-0.4033,0.7954
-0.063,0.064,0.067,-9.2,-62.3,4.7,0,2018,5,17,21,9,41.917,0.4512,0.0447,-0.4112,0.7907
-0.053,0.027,0.014,-10.9,-55.1,7.1,0,2018,5,17,21,9,41.917,0.4537,0.0396,-0.418,0.786
-0.047,-0.008,-0.02,-7.3,-48.2,2.9,0,2018,5,17,21,9,41.94,0.4555,0.0353,-0.4243,0.7817
-0.03,0.024,-0.039,-6.2,-48.3,0.3,0,2018,5,17,21,9,41.956,0.4565,0.031,-0.4307,0.7778
0.003,0.055,0.008,-6.7,-57.8,-0.5,0,2018,5,17,21,9,41.979,0.4574,0.0262,-0.4372,0.7738
0.017,-0.028,-0.07,-3.7,-52.2,0.3,0,2018,5,17,21,9,41.996,0.458,0.021,-0.4446,0.7693
0.026,0.002,-0.049,-1.7,-42,0.9,0,2018,5,17,21,9,42.02,0.4583,0.0166,-0.4511,0.7655
0.007,0.004,-0.001,-1.3,-40.6,0,0,2018,5,17,21,9,42.038,0.4586,0.0131,-0.4564,0.7623
0.02,0.018,-0.021,-1.4,-48.7,-1.1,0,2018,5,17,21,9,42.061,0.4586,0.0094,-0.4624,0.7587
0.05,0.013,-0.043,0,-56.1,-0.4,0,2018,5,17,21,9,42.079,0.4585,0.0048,-0.4694,0.7545
0.05,0.006,-0.03,2.2,-52.3,1.6,0,2018,5,17,21,9,42.1,0.4583,0.0002,-0.477,0.7498
0.029,-0.084,0.019,4.5,-23.8,3.2,0,2018,5,17,21,9,42.12,0.458,-0.0027,-0.4826,0.7464
-0.007,0.055,0.037,2.9,-11.5,4.2,0,2018,5,17,21,9,42.136,0.4583,-0.0029,-0.4844,0.7451
-0.009,-0.049,0.031,2.7,-20.5,0.9,0,2018,5,17,21,9,42.159,0.4585,-0.0035,-0.4866,0.7435
-0.046,0.032,0.033,-0.4,-8.3,3.6,1023,2018,5,17,21,9,42.196,0.4588,-0.0041,-0.4885,0.7421
-0.048,0.042,-0.024,-1.8,-8,3.3,1023,2018,5,17,21,9,42.217,0.4597,-0.0038,-0.4892,0.741
0.012,0.027,-0.007,-2.7,-12.3,2.2,1023,2018,5,17,21,9,42.222,0.4603,-0.0045,-0.4905,0.7398
-0.022,0.027,0.007,-3.6,-9.4,0.4,1023,2018,5,17,21,9,42.241,0.4609,-0.0055,-0.4918,0.7386
-0.02,0.105,-0.039,-3.4,-12.1,-0.2,1023,2018,5,17,21,9,42.277,0.4615,-0.0063,-0.4926,0.7377
0.014,0.083,-0.056,-1.8,-15.4,3,1023,2018,5,17,21,9,42.299,0.4621,-0.0072,-0.4942,0.7362
-0.009,0.099,-0.042,-0.1,-24.5,4.4,1023,2018,5,17,21,9,42.302,0.4628,-0.008,-0.4967,0.7341
-0.012,0.069,-0.085,0.9,-37.6,7.7,1023,2018,5,17,21,9,42.34,0.4638,-0.0094,-0.501,0.7305
-0.012,0.09,-0.089,-1.1,-42.7,9.8,1023,2018,5,17,21,9,42.363,0.4649,-0.0114,-0.5066,0.7259
-0.011,0.134,-0.103,2.4,-63.6,14.5,1023,2018,5,17,21,9,42.367,0.4665,-0.0138,-0.5137,0.7198
-0.037,0.082,-0.094,7.6,-85.2,14.8,0,2018,5,17,21,9,42.386,0.4679,-0.0171,-0.5243,0.7111
-0.054,0.028,0,6,-93.2,11.6,0,2018,5,17,21,9,42.402,0.4687,-0.0217,-0.5364,0.7014
-0.075,-0.013,0.052,-1.5,-91.7,7.6,0,2018,5,17,21,9,42.437,0.4697,-0.0277,-0.5477,0.6917
-0.101,-0.006,0.066,-9.4,-79.2,3.9,0,2018,5,17,21,9,42.461,0.4709,-0.0344,-0.5573,0.6828
-0.067,-0.003,0.098,-13.7,-64.7,1.8,0,2018,5,17,21,9,42.466,0.4724,-0.0408,-0.5645,0.6755
-0.074,0.028,0.125,-18.2,-52.3,0.3,0,2018,5,17,21,9,42.481,0.4742,-0.0466,-0.5694,0.6697
-0.11,0.073,0.136,-24.3,-51.5,-1.7,0,2018,5,17,21,9,42.505,0.4757,-0.0534,-0.5737,0.6645
-0.172,0.074,0.089,-28.7,-54.2,-2.8,0,2018,5,17,21,9,42.539,0.4776,-0.0611,-0.5776,0.6591
-0.106,0.027,0.091,-31.8,-49.7,-0.2,0,2018,5,17,21,9,42.562,0.48,-0.0688,-0.581,0.6535
-0.097,0.007,0.035,-34.7,-34.2,3.8,0,2018,5,17,21,9,42.567,0.4838,-0.0751,-0.5828,0.6485
-0.029,-0.006,0.002,-36.2,-12.3,7.7,0,2018,5,17,21,9,42.583,0.4879,-0.0799,-0.5825,0.645
0.021,0.016,0.01,-34.5,-7.3,9.3,0,2018,5,17,21,9,42.607,0.4924,-0.0836,-0.5805,0.643
0.052,0.011,-0.023,-33,-21.1,12.3,0,2018,5,17,21,9,42.622,0.4967,-0.0875,-0.5793,0.6402
0.082,-0.011,-0.05,-32.9,-38.1,14.4,0,2018,5,17,21,9,42.644,0.5007,-0.0931,-0.5802,0.6355
0.118,-0.031,-0.1,-30.9,-53.1,16.3,0,2018,5,17,21,9,42.662,0.5044,-0.0997,-0.583,0.629
0.129,-0.121,-0.109,-27.8,-57.4,15.8,0,2018,5,17,21,9,42.686,0.5081,-0.1061,-0.5869,0.6212
0.168,-0.139,-0.144,-24.2,-52.8,12.3,0,2018,5,17,21,9,42.703,0.5113,-0.1125,-0.5908,0.6138
0.166,-0.096,-0.171,-16.5,-48.1,9.3,0,2018,5,17,21,9,42.742,0.5135,-0.118,-0.5945,0.6073
0.127,-0.127,-0.092,-11.1,-49.4,6,0,2018,5,17,21,9,42.765,0.5147,-0.1232,-0.5985,0.6013
0.175,-0.184,-0.128,-1.8,-39.3,5.2,0,2018,5,17,21,9,42.77,0.5149,-0.1274,-0.6029,0.5958
0.168,-0.27,-0.119,6,-0.6,3.4,0,2018,5,17,21,9,42.783,0.5146,-0.1285,-0.6054,0.5932
0.151,-0.227,-0.096,10.7,38.1,-1.4,0,2018,5,17,21,9,42.822,0.5143,-0.1256,-0.604,0.5956
0.088,-0.189,-0.07,11.9,53.8,-10.1,1023,2018,5,17,21,9,42.846,0.5135,-0.1208,-0.5997,0.6015
0.072,-0.164,-0.063,13.7,48.2,-17.6,1023,2018,5,17,21,9,42.85,0.5118,-0.1164,-0.595,0.6086
0.078,-0.16,-0.04,19.3,42.8,-21.1,1023,2018,5,17,21,9,42.863,0.5089,-0.1127,-0.5913,0.6153
0.085,-0.166,-0.005,26,54.8,-22.3,1023,2018,5,17,21,9,42.899,0.5051,-0.1083,-0.5877,0.6226
0.048,-0.142,0.05,28.8,85.4,-22,1023,2018,5,17,21,9,42.922,0.5005,-0.1024,-0.582,0.6326
0.02,-0.169,0.048,26.9,130.4,-22.9,1023,2018,5,17,21,9,42.927,0.4966,-0.0928,-0.5718,0.6462
0.017,-0.165,-0.016,26,183,-23.4,1023,2018,5,17,21,9,42.962,0.4933,-0.0792,-0.5557,0.6644
0.016,-0.081,-0.093,27.1,231.2,-21.1,1023,2018,5,17,21,9,42.986,0.4901,-0.0609,-0.5336,0.6864
-0.015,-0.02,-0.096,27.3,269.3,-20.1,1023,2018,5,17,21,9,42.989,0.4868,-0.0383,-0.5059,0.711
-0.051,0.039,-0.084,22,296.4,-17.7,1023,2018,5,17,21,9,43.006,0.4834,-0.0123,-0.4726,0.7366
-0.103,0.158,-0.003,13.1,288,-20.5,1023,2018,5,17,21,9,43.028,0.4797,0.0136,-0.4355,0.7615
-0.095,0.259,0.02,3.5,236.9,-23.3,0,2018,5,17,21,9,43.045,0.475,0.0352,-0.4006,0.7827
-0.09,0.339,-0.035,-0.8,157.1,-24.1,0,2018,5,17,21,9,43.066,0.4701,0.0499,-0.3738,0.7979
-0.094,0.212,-0.079,-2.1,89.2,-23.9,0,2018,5,17,21,9,43.104,0.4658,0.0577,-0.3571,0.8074
-0.123,0.141,-0.108,-6,61.9,-24.2,0,2018,5,17,21,9,43.127,0.4619,0.0615,-0.3466,0.814
-0.244,0.005,-0.017,-15.9,57.9,-26.8,0,2018,5,17,21,9,43.133,0.4584,0.063,-0.3377,0.8196
-0.115,0.116,-0.037,-25.3,72.9,-23.5,0,2018,5,17,21,9,43.147,0.4554,0.0635,-0.3266,0.8257
-0.053,0.147,-0.047,-29.8,64.4,-22.4,0,2018,5,17,21,9,43.182,0.453,0.0636,-0.314,0.8319
0,0.123,-0.036,-26.4,41.8,-18.8,0,2018,5,17,21,9,43.205,0.4512,0.0628,-0.3038,0.8366
0.015,0.237,0.031,-23.1,0.3,-16.3,0,2018,5,17,21,9,43.209,0.4499,0.0601,-0.2983,0.8395
0.035,0.359,-0.017,-16.9,-72.2,-10,0,2018,5,17,21,9,43.226,0.4496,0.0533,-0.3018,0.8389
0.049,0.249,-0.107,-6.3,-135.6,-2.8,0,2018,5,17,21,9,43.25,0.4504,0.0427,-0.3164,0.8337
0.079,0.141,-0.141,-1.3,-186.6,-2.1,0,2018,5,17,21,9,43.271,0.4518,0.0293,-0.3388,0.8247
0.084,0.047,-0.141,6.9,-236.2,-7,0,2018,5,17,21,9,43.291,0.4517,0.0123,-0.3693,0.812
0.09,0.014,-0.132,10.9,-291.1,-12,0,2018,5,17,21,9,43.308,0.4496,-0.0088,-0.4075,0.7948
0.069,0.034,-0.104,11.2,-323.4,-9,0,2018,5,17,21,9,43.332,0.4457,-0.0331,-0.4512,0.7724
0.046,0.11,-0.22,10.5,-354.5,-4.1,0,2018,5,17,21,9,43.346,0.441,-0.059,-0.4979,0.7443
0.053,0.027,-0.274,21.6,-317.2,5.8,0,2018,5,17,21,9,43.384,0.4353,-0.0833,-0.5427,0.7133
0.022,0.263,-0.139,35.2,-237.2,27.6,0,2018,5,17,21,9,43.408,0.43,-0.099,-0.5785,0.6859
-0.046,0.285,0.095,39.3,-181.6,58.7,0,2018,5,17,21,9,43.413,0.4274,-0.1056,-0.6062,0.6622
-0.015,0.174,0.027,31.5,-155.5,85,0,2018,5,17,21,9,43.427,0.4288,-0.1061,-0.6292,0.6394
0.045,-0.11,-0.211,25.7,-101.2,97.2,0,2018,5,17,21,9,43.45,0.4336,-0.1024,-0.6473,0.6183
-0.055,-0.251,-0.254,20.3,-27.8,86.7,0,2018,5,17,21,9,43.486,0.4399,-0.0941,-0.6573,0.6045
-0.123,-0.154,-0.083,12.6,23,67.1,1023,2018,5,17,21,9,43.508,0.4459,-0.0831,-0.6598,0.5989
-0.163,-0.099,0.109,4.1,28.4,49.8,1023,2018,5,17,21,9,43.514,0.4517,-0.0729,-0.6587,0.5972
-0.196,-0.083,0.186,-5.4,38.9,35.7,1023,2018,5,17,21,9,43.53,0.4565,-0.0655,-0.656,0.5973
-0.239,-0.103,0.052,-13,64.5,20,1023,2018,5,17,21,9,43.553,0.4615,-0.0586,-0.65,0.6007
-0.245,-0.123,-0.036,-15.5,89.6,1.2,1023,2018,5,17,21,9,43.571,0.4653,-0.0518,-0.6411,0.6079
-0.193,-0.098,-0.045,-14.7,109.9,-9.4,1023,2018,5,17,21,9,43.594,0.4673,-0.0457,-0.6293,0.6191
-0.13,0.013,0.001,-12.5,123.8,-11.4,1023,2018,5,17,21,9,43.61,0.4688,-0.0378,-0.6155,0.6323
-0.048,0.021,0.072,-7.3,104.6,-13.5,1023,2018,5,17,21,9,43.632,0.4696,-0.0299,-0.6017,0.6453
-0.013,0.063,0.046,-3.5,71,-13.3,1023,2018,5,17,21,9,43.65,0.4694,-0.0243,-0.5909,0.6555
0.016,0.033,0.041,-2.1,48.4,-13.2,0,2018,5,17,21,9,43.673,0.4687,-0.0209,-0.5838,0.6625
0.065,-0.038,0.086,-6.8,49.1,-11,0,2018,5,17,21,9,43.69,0.4679,-0.019,-0.5773,0.6688
0.109,-0.079,0.095,-12.1,49.7,-11.5,0,2018,5,17,21,9,43.729,0.4676,-0.0174,-0.5704,0.6749
0.111,0.005,0.11,-14.1,30.9,-7.6,0,2018,5,17,21,9,43.749,0.4679,-0.0167,-0.5644,0.6798
0.1,0.039,0.076,-12.5,21.2,-0.4,0,2018,5,17,21,9,43.754,0.4687,-0.0163,-0.5606,0.6823
0.071,-0.037,0.056,-13.7,22.4,-1.5,0,2018,5,17,21,9,43.773,0.4699,-0.0166,-0.5567,0.6847
0.018,-0.114,0.063,-16.2,40.2,-2.9,0,2018,5,17,21,9,43.792,0.4709,-0.0166,-0.5515,0.6882
0.029,-0.081,0.039,-17.5,48.3,-4.1,0,2018,5,17,21,9,43.816,0.4719,-0.0158,-0.5443,0.6932
0.021,-0.037,0.001,-15,28.2,-6.5,0,2018,5,17,21,9,43.829,0.4728,-0.0154,-0.5381,0.6975
0.015,-0.052,-0.033,-11.2,6.5,-9.1,0,2018,5,17,21,9,43.85,0.4728,-0.0167,-0.5354,0.6995
0.036,-0.046,-0.002,-10.1,16.5,-8.6,0,2018,5,17,21,9,43.887,0.472,-0.0184,-0.534,0.7012
0.057,-0.029,0.049,-11.4,40.2,-2.2,0,2018,5,17,21,9,43.911,0.4722,-0.0183,-0.5294,0.7044
0.005,-0.021,0.057,-16.5,76.3,0.9,0,2018,5,17,21,9,43.915,0.4735,-0.0154,-0.5207,0.7101
0.022,0.122,-0.043,-17.2,81.2,-1.8,0,2018,5,17,21,9,43.932,0.4755,-0.0106,-0.5086,0.7176
0.043,0.055,-0.088,-9.4,45,-9.4,0,2018,5,17,21,9,43.95,0.476,-0.0072,-0.4998,0.7235
0.033,-0.024,-0.031,-6,14.5,-15.9,0,2018,5,17,21,9,43.974,0.4748,-0.0071,-0.4961,0.7268
0.049,-0.048,-0.007,-6.4,6.6,-18.8,0,2018,5,17,21,9,44.01,0.4727,-0.0091,-0.4948,0.729
0.079,-0.051,-0.029,-7.8,17.6,-18.1,0,2018,5,17,21,9,44.034,0.4706,-0.0114,-0.493,0.7316
0.134,-0.042,-0.045,-8.1,49.6,-14.5,0,2018,5,17,21,9,44.037,0.469,-0.0114,-0.4882,0.7358
0.128,-0.013,-0.077,-4.8,66.8,-15.4,0,2018,5,17,21,9,44.052,0.4678,-0.0084,-0.4796,0.7422
0.087,-0.021,-0.077,0.3,51.5,-19.3,0,2018,5,17,21,9,44.087,0.4652,-0.006,-0.4721,0.7487
0.066,-0.02,-0.053,3.8,39.9,-18.5,0,2018,5,17,21,9,44.11,0.462,-0.0044,-0.4672,0.7537
0.061,-0.034,-0.029,5.7,54.1,-15.4,0,2018,5,17,21,9,44.115,0.4592,-0.0019,-0.4615,0.7589
0.04,-0.096,-0.046,6.7,74.3,-18,1023,2018,5,17,21,9,44.132,0.4562,0.0019,-0.4536,0.7655
0.017,-0.005,-0.174,11.5,61.5,-21.6,1023,2018,5,17,21,9,44.156,0.4524,0.0066,-0.4455,0.7724
0.021,-0.015,-0.227,20.7,58.3,-23.1,1023,2018,5,17,21,9,44.172,0.4482,0.0116,-0.4388,0.7787
-0.072,0.094,-0.032,21.4,65.5,-23.6,1023,2018,5,17,21,9,44.195,0.4431,0.0181,-0.4324,0.785
-0.094,0.154,-0.037,18.2,77.8,-17.9,1023,2018,5,17,21,9,44.215,0.4385,0.0246,-0.4242,0.7918
-0.202,0.247,0.024,13.3,87,-9,1023,2018,5,17,21,9,44.237,0.4351,0.0322,-0.4137,0.799
-0.195,0.491,0.146,8.1,38.6,-0.2,1023,2018,5,17,21,9,44.272,0.4334,0.0385,-0.4047,0.8042
-0.196,0.425,0.129,2.7,-43.5,5.8,1023,2018,5,17,21,9,44.296,0.4335,0.0389,-0.4059,0.8035
-0.147,0.296,0.07,-7.5,-93.2,11.7,1023,2018,5,17,21,9,44.3,0.4355,0.0336,-0.4157,0.7976
-0.115,0.258,-0.094,-13,-141.6,14.7,0,2018,5,17,21,9,44.314,0.4389,0.0238,-0.431,0.788
-0.09,0.092,-0.185,-9.2,-164.1,17,0,2018,5,17,21,9,44.35,0.4425,0.0114,-0.4514,0.7747
-0.076,-0.016,-0.166,-4.5,-154.2,16.1,0,2018,5,17,21,9,44.373,0.4454,-0.0005,-0.4722,0.7605
-0.089,0.012,-0.095,-1.3,-149.3,13.6,0,2018,5,17,21,9,44.378,0.4475,-0.0115,-0.4917,0.7468
-0.093,0.052,-0.003,-2.3,-147.6,11.5,0,2018,5,17,21,9,44.395,0.4491,-0.0216,-0.5109,0.7326
-0.065,-0.015,0.006,-3.7,-152.1,8.6,0,2018,5,17,21,9,44.414,0.4504,-0.0323,-0.5297,0.7178
-0.038,-0.092,0.074,-6.9,-133.6,5.8,0,2018,5,17,21,9,44.438,0.4508,-0.0435,-0.5474,0.7036
-0.021,-0.151,0.095,-14,-81.6,4.7,0,2018,5,17,21,9,44.472,0.4517,-0.053,-0.5594,0.6929
0.032,-0.129,0,-17.1,-42.6,0.9,0,2018,5,17,21,9,44.494,0.4527,-0.0599,-0.5652,0.6869
0.043,-0.145,-0.057,-16.6,-16.2,0.3,0,2018,5,17,21,9,44.5,0.4536,-0.0649,-0.5677,0.6838
0.065,-0.192,-0.037,-13.6,20.1,-0.7,0,2018,5,17,21,9,44.515,0.455,-0.0665,-0.5664,0.6838
0.063,-0.237,-0.002,-13,67.2,-3.4,0,2018,5,17,21,9,44.553,0.4566,-0.0649,-0.5601,0.6881
0.027,-0.262,0.007,-13.3,134.4,-3.2,0,2018,5,17,21,9,44.553,0.4584,-0.0586,-0.5468,0.698
0.018,-0.061,-0.003,-15.4,168.5,-4.3,0,2018,5,17,21,9,44.576,0.4603,-0.0487,-0.5266,0.7129
0.032,0.085,-0.028,-10.6,154.5,-2.4,0,2018,5,17,21,9,44.611,0.462,-0.0376,-0.5052,0.7279
0.052,0.395,0.094,-11.8,88.7,5.9,0,2018,5,17,21,9,44.633,0.4641,-0.0287,-0.4879,0.7386
0.03,0.183,0.113,-8.4,13.5,6.5,0,2018,5,17,21,9,44.637,0.466,-0.0258,-0.4813,0.7418
0.01,0.084,0.056,-8,-22.2,4.2,0,2018,5,17,21,9,44.675,0.4675,-0.0268,-0.4812,0.7409
0.043,-0.017,-0.045,-4.2,-34.4,4.1,0,2018,5,17,21,9,44.719,0.4682,-0.0299,-0.4849,0.738
0.031,0.013,-0.103,-2.8,-31.1,7.3,0,2018,5,17,21,9,44.723,0.469,-0.0329,-0.4894,0.7344
0.033,0.008,-0.081,-0.6,-10.3,7.9,0,2018,5,17,21,9,44.725,0.4697,-0.0344,-0.4925,0.7318
0.032,0.068,-0.131,3.1,-11.4,6,0,2018,5,17,21,9,44.735,0.4703,-0.0344,-0.4943,0.7302
-0.05,0.024,-0.159,5.4,-11.7,3.9,0,2018,5,17,21,9,44.772,0.4702,-0.0343,-0.4968,0.7285
0.001,-0.03,-0.001,5.6,-14.2,1.2,1023,2018,5,17,21,9,44.795,0.4699,-0.0345,-0.4993,0.727
-0.008,-0.029,0.016,5.6,-8.9,0,1023,2018,5,17,21,9,44.8,0.4694,-0.035,-0.5011,0.726
-0.003,0.002,-0.065,7.5,13.2,1.5,1023,2018,5,17,21,9,44.815,0.4689,-0.0338,-0.5018,0.726
0.016,0.05,-0.084,11.4,13.7,-0.6,1023,2018,5,17,21,9,44.838,0.468,-0.0312,-0.5011,0.7271
0.034,-0.079,-0.071,15.1,24.1,-0.2,1023,2018,5,17,21,9,44.873,0.4665,-0.0285,-0.5008,0.7284
0.021,0.043,-0.041,18.8,40.9,0.1,1023,2018,5,17,21,9,44.897,0.4648,-0.0238,-0.4982,0.7314
-0.019,0.014,-0.027,23.1,26,-0.1,1023,2018,5,17,21,9,44.902,0.4634,-0.0182,-0.4954,0.7344
-0.099,0.313,0.228,16.7,15.7,7.3,1023,2018,5,17,21,9,44.917,0.4622,-0.0132,-0.4941,0.7361
-0.128,0.101,0.408,-2,-2.8,7.6,0,2018,5,17,21,9,44.94,0.4627,-0.0111,-0.4941,0.7358
-0.019,-0.158,0.061,-8.9,2.8,3.2,0,2018,5,17,21,9,44.977,0.464,-0.0117,-0.4936,0.7354
0.004,-0.02,-0.019,-5.9,7.4,0.1,0,2018,5,17,21,9,44.999,0.4645,-0.0123,-0.4923,0.7359
-0.007,-0.087,-0.024,-3.2,11,-2.1,0,2018,5,17,21,9,45.004,0.4646,-0.0127,-0.4914,0.7364
-0.018,0.019,-0.034,-2.6,23,-1.9,0,2018,5,17,21,9,45.018,0.4645,-0.012,-0.4891,0.7381
-0.013,0.096,-0.008,-2,21.8,0.2,0,2018,5,17,21,9,45.055,0.4649,-0.01,-0.4859,0.74
-0.021,0.163,0.002,-1.9,8.8,0.9,0,2018,5,17,21,9,45.077,0.4656,-0.0083,-0.4833,0.7412
-0.027,0.179,0.011,-1.1,-7.6,2.3,0,2018,5,17,21,9,45.082,0.4659,-0.0085,-0.4831,0.7411
-0.05,0.17,0.022,-1.7,-20.8,4.2,0,2018,5,17,21,9,45.097,0.4665,-0.0097,-0.4848,0.7397
-0.055,0.157,0.024,-3.6,-32.2,5.3,0,2018,5,17,21,9,45.121,0.4674,-0.0119,-0.4878,0.737
-0.032,0.113,-0.021,-5.8,-45,4.5,0,2018,5,17,21,9,45.157,0.4686,-0.0149,-0.4924,0.7332
-0.013,0.131,-0.037,-6.7,-49.4,5.4,0,2018,5,17,21,9,45.181,0.4701,-0.0184,-0.4978,0.7285
-0.041,0.061,-0.049,-4.2,-51.5,7.8,0,2018,5,17,21,9,45.185,0.4716,-0.0221,-0.504,0.7231
-0.069,0.081,-0.028,-2.9,-43.3,9.2,0,2018,5,17,21,9,45.201,0.4731,-0.025,-0.5099,0.7179
-0.032,0.17,0.028,-5,-55,13.9,0,2018,5,17,21,9,45.224,0.4748,-0.0284,-0.5154,0.7127
-0.015,0.136,0.011,-6.8,-76.2,20.4,0,2018,5,17,21,9,45.239,0.4773,-0.0329,-0.5231,0.7052
-0.007,0.055,-0.025,-8,-72.3,26.1,0,2018,5,17,21,9,45.277,0.4808,-0.0375,-0.5318,0.696
-0.053,-0.044,-0.029,-8.4,-64.4,23.7,0,2018,5,17,21,9,45.301,0.4842,-0.0415,-0.5398,0.6872
-0.06,-0.004,0.036,-9.5,-63.1,18.5,0,2018,5,17,21,9,45.304,0.4872,-0.0457,-0.5469,0.6792
-0.04,0.053,0.055,-11.1,-68.6,14.8,0,2018,5,17,21,9,45.319,0.49,-0.0505,-0.5535,0.6714
-0.022,-0.021,0.019,-11.6,-59.5,13.9,0,2018,5,17,21,9,45.358,0.4925,-0.0557,-0.56,0.6637
-0.008,-0.029,0,-11.4,-41,14.3,0,2018,5,17,21,9,45.38,0.4947,-0.0599,-0.565,0.6574
-0.025,0.005,0.041,-12.3,-32.3,13.1,1023,2018,5,17,21,9,45.386,0.4972,-0.0629,-0.5681,0.6527
-0.04,0.043,0.071,-15.3,-34.7,14.3,1023,2018,5,17,21,9,45.403,0.5001,-0.0655,-0.5704,0.6481
-0.016,0.03,0.054,-18.6,-38.1,18.1,1023,2018,5,17,21,9,45.437,0.5038,-0.0686,-0.5727,0.643
0.008,-0.022,-0.012,-18.6,-32,21.1,1023,2018,5,17,21,9,45.461,0.5075,-0.0718,-0.5752,0.6374
-0.036,-0.018,0.03,-19.4,-28.9,20.8,1023,2018,5,17,21,9,45.466,0.5113,-0.0745,-0.5771,0.6323
-0.031,-0.003,0.092,-19.8,-31.4,20,1023,2018,5,17,21,9,45.482,0.5155,-0.0771,-0.5784,0.6274
0.02,-0.025,0.028,-20,-28.7,17.2,1023,2018,5,17,21,9,45.499,0.5194,-0.0802,-0.5797,0.6225
0.065,-0.03,-0.002,-18.3,-25.1,15.9,1023,2018,5,17,21,9,45.522,0.5225,-0.0835,-0.581,0.6183
0.081,-0.052,-0.006,-16.7,-19.7,15.7,1023,2018,5,17,21,9,45.54,0.5252,-0.0865,-0.582,0.6146
0.096,-0.072,-0.007,-15.7,-11.9,15.4,1023,2018,5,17,21,9,45.564,0.5278,-0.0889,-0.5825,0.6116
0.098,-0.114,-0.008,-14.5,4.1,14.5,0,2018,5,17,21,9,45.601,0.5302,-0.0903,-0.5819,0.6099
0.094,-0.092,-0.028,-13.9,16.8,12.5,0,2018,5,17,21,9,45.625,0.5326,-0.0903,-0.5796,0.61
0.11,-0.078,-0.054,-11,9.9,10.1,0,2018,5,17,21,9,45.628,0.5346,-0.0902,-0.5773,0.6104
0.091,-0.161,-0.089,-7.6,3.2,6,0,2018,5,17,21,9,45.645,0.5365,-0.0898,-0.576,0.61
0.057,-0.2,-0.121,-3.1,7.5,-1.2,0,2018,5,17,21,9,45.682,0.5373,-0.0896,-0.5751,0.6102
0.069,-0.218,-0.117,2,17.7,-9.5,0,2018,5,17,21,9,45.705,0.537,-0.0889,-0.5737,0.6119
0.059,-0.179,-0.116,5.7,21.2,-18.4,0,2018,5,17,21,9,45.71,0.5353,-0.0878,-0.5717,0.6154
0.039,-0.169,-0.127,9.2,15.1,-24.1,0,2018,5,17,21,9,45.724,0.5325,-0.0875,-0.5702,0.6192
-0.011,-0.226,-0.08,12.6,21.3,-28.4,0,2018,5,17,21,9,45.742,0.5287,-0.0873,-0.5691,0.6235
-0.038,-0.084,-0.04,13.4,35.7,-32.1,0,2018,5,17,21,9,45.764,0.5242,-0.0866,-0.567,0.6293
-0.02,-0.003,-0.073,18.6,41.8,-33.8,0,2018,5,17,21,9,45.8,0.5193,-0.0846,-0.5643,0.636
-0.053,0.039,-0.013,20.5,58.2,-34.8,0,2018,5,17,21,9,45.823,0.5142,-0.0809,-0.5604,0.6441
-0.102,0.054,-0.012,23.4,54.9,-39.3,0,2018,5,17,21,9,45.828,0.509,-0.0762,-0.5556,0.6529
-0.121,0.021,0.012,22.1,63.1,-38.2,0,2018,5,17,21,9,45.843,0.5036,-0.0712,-0.5507,0.6617
-0.09,0.074,-0.005,20.4,87.3,-36.5,0,2018,5,17,21,9,45.866,0.4986,-0.0648,-0.5435,0.6721
-0.043,0.204,0.031,18.4,85.4,-33.7,0,2018,5,17,21,9,45.885,0.4938,-0.0575,-0.5341,0.6837
-0.071,0.232,0.079,16.8,48.8,-31.5,0,2018,5,17,21,9,45.906,0.4888,-0.0525,-0.5274,0.6928
-0.083,0.174,0.078,14.3,18.9,-30.6,0,2018,5,17,21,9,45.924,0.4838,-0.0508,-0.5247,0.6985
-0.067,0.12,0.062,9.5,9.7,-27.6,0,2018,5,17,21,9,45.959,0.4794,-0.0511,-0.5237,0.7022
-0.039,0.111,0.057,4.8,13.2,-26.3,0,2018,5,17,21,9,45.983,0.4761,-0.051,-0.5221,0.7057
0.003,0.1,0.043,2.8,43.4,-13.7,0,2018,5,17,21,9,45.988,0.4735,-0.0497,-0.5189,0.7098
-0.068,0.629,0.281,-14.2,24.8,10.7,0,2018,5,17,21,9,46.004,0.4746,-0.0471,-0.5129,0.7137
-0.111,0.188,0.218,-20.3,-19.8,8.1,0,2018,5,17,21,9,46.027,0.4776,-0.0484,-0.5116,0.7125
-0.059,-0.039,0.024,-19.8,-31.3,1.8,1023,2018,5,17,21,9,46.045,0.4799,-0.0529,-0.5133,0.7094
-0.019,-0.075,-0.082,-14.9,-20.3,-2,1023,2018,5,17,21,9,46.069,0.4809,-0.0573,-0.5158,0.7065
0.035,-0.005,-0.084,-9.2,-16,-2.1,1023,2018,5,17,21,9,46.085,0.4813,-0.0607,-0.5175,0.7048
0.057,0.007,-0.026,-6.9,-15.8,0,1023,2018,5,17,21,9,46.108,0.4813,-0.0636,-0.5194,0.7031
0.068,-0.021,0.056,-9.6,-13.1,-2.4,1023,2018,5,17,21,9,46.127,0.4816,-0.0663,-0.5203,0.702
0.102,-0.098,0.039,-11.5,-2.7,-8.2,1023,2018,5,17,21,9,46.149,0.4815,-0.0696,-0.5199,0.7021
0.116,-0.015,0.033,-10.6,-10,-10.1,1023,2018,5,17,21,9,46.168,0.4809,-0.0732,-0.5189,0.7028
0.142,-0.131,-0.015,-7.4,0.4,-10.1,1023,2018,5,17,21,9,46.191,0.4803,-0.0763,-0.5187,0.703
0.162,-0.057,0.002,-5.6,21.5,-8.7,1023,2018,5,17,21,9,46.209,0.4799,-0.0771,-0.5165,0.7049
0.156,0.009,-0.002,-2,24,-6,0,2018,5,17,21,9,46.224,0.4797,-0.0761,-0.513,0.7076
0.154,-0.042,-0.013,2.5,16.2,-5.7,0,2018,5,17,21,9,46.247,0.4792,-0.0751,-0.5104,0.7099
0.139,-0.091,-0.036,7.1,9,-7.3,0,2018,5,17,21,9,46.284,0.4781,-0.0741,-0.5092,0.7116
0.139,-0.093,-0.054,12.3,9.3,-6.9,0,2018,5,17,21,9,46.308,0.4765,-0.0729,-0.5088,0.7132
0.131,-0.113,-0.06,21.3,20.3,-8.4,0,2018,5,17,21,9,46.312,0.4742,-0.0704,-0.5083,0.7152
0.115,-0.152,-0.044,30.5,51.2,-12,0,2018,5,17,21,9,46.329,0.4711,-0.065,-0.5059,0.7195
0.08,-0.109,-0.046,36.3,73.4,-17.9,0,2018,5,17,21,9,46.367,0.4669,-0.0568,-0.5004,0.7268
0.011,-0.016,-0.002,37.7,81.5,-19.8,0,2018,5,17,21,9,46.389,0.4616,-0.048,-0.4933,0.7356
-0.118,0.001,0.028,35.1,93.3,-23.1,0,2018,5,17,21,9,46.394,0.4564,-0.0379,-0.485,0.7449
-0.188,0.119,-0.007,24.1,110.4,-20.7,0,2018,5,17,21,9,46.408,0.4515,-0.0278,-0.4741,0.7553
-0.181,0.205,-0.028,17,136.9,-13.5,0,2018,5,17,21,9,46.444,0.4482,-0.0165,-0.4586,0.767
-0.18,0.239,-0.068,12.3,124,-12.3,0,2018,5,17,21,9,46.466,0.4457,-0.0055,-0.4414,0.7786
-0.154,0.235,-0.063,11,91.1,-7.4,0,2018,5,17,21,9,46.469,0.4435,0.0036,-0.4278,0.7875
-0.151,0.24,-0.057,9.3,66.2,-1.3,0,2018,5,17,21,9,46.485,0.4422,0.0104,-0.4176,0.7936
-0.127,0.254,-0.08,9.3,38.6,5.8,0,2018,5,17,21,9,46.507,0.4418,0.0157,-0.4109,0.7972
-0.102,0.22,-0.122,10.4,19,13.3,0,2018,5,17,21,9,46.546,0.4426,0.0198,-0.4075,0.7984
-0.133,0.151,-0.069,9.6,-21.3,14.7,0,2018,5,17,21,9,46.569,0.444,0.022,-0.4081,0.7973
-0.122,0.017,-0.02,8.3,-56.1,14.5,0,2018,5,17,21,9,46.574,0.4458,0.0213,-0.4145,0.7929
-0.071,0.1,0.083,5.8,-72.5,11.7,0,2018,5,17,21,9,46.593,0.4477,0.0188,-0.4237,0.7871
-0.035,0.18,0.034,4.8,-97.6,12.8,0,2018,5,17,21,9,46.61,0.4493,0.0137,-0.4357,0.7797
-0.028,0.125,-0.035,6.2,-113.3,16.7,0,2018,5,17,21,9,46.634,0.4513,0.0076,-0.4504,0.7702
-0.027,0.034,-0.046,7.8,-114.3,19.2,1023,2018,5,17,21,9,46.647,0.4536,0.0014,-0.4663,0.7593
-0.06,-0.022,0.002,5.5,-112.3,19,1023,2018,5,17,21,9,46.686,0.4558,-0.0047,-0.4817,0.7483
-0.037,0.026,0.051,2,-105.5,16.8,1023,2018,5,17,21,9,46.709,0.4579,-0.0111,-0.4961,0.7375
-0.056,0.021,0.032,-1.2,-90.5,15,1023,2018,5,17,21,9,46.713,0.4601,-0.0171,-0.5084,0.7276
-0.043,-0.044,-0.023,-3.6,-72,10.1,1023,2018,5,17,21,9,46.729,0.4618,-0.0225,-0.5185,0.7191
-0.033,-0.017,-0.036,-5.3,-64.8,2.6,1023,2018,5,17,21,9,46.752,0.4627,-0.0277,-0.527,0.7122
-0.005,-0.051,-0.007,-5.3,-65.8,-3.6,1023,2018,5,17,21,9,46.77,0.4626,-0.0337,-0.5351,0.706
-0.023,-0.091,0.018,-7.3,-54.6,-7.1,1023,2018,5,17,21,9,46.794,0.462,-0.0402,-0.5422,0.7005
-0.035,-0.077,0.002,-8.8,-35.1,-9.1,1023,2018,5,17,21,9,46.811,0.4613,-0.0457,-0.5472,0.6968
-0.043,-0.032,-0.024,-10.9,-18,-12.1,0,2018,5,17,21,9,46.831,0.4607,-0.0499,-0.5497,0.6949
-0.033,-0.006,-0.063,-11.2,-7.1,-14.5,0,2018,5,17,21,9,46.854,0.4599,-0.0533,-0.5509,0.6943
0.074,-0.053,-0.032,-11.4,21,-12.9,0,2018,5,17,21,9,46.873,0.4591,-0.0558,-0.5497,0.6955
0.189,-0.156,-0.014,-8.6,71.7,-7.7,0,2018,5,17,21,9,46.896,0.4591,-0.0544,-0.5433,0.7007
0.154,-0.217,0.08,-9.3,134.5,-5.7,0,2018,5,17,21,9,46.91,0.4601,-0.0475,-0.5296,0.711
0.105,0.02,0.138,-10.7,144.3,-6.8,0,2018,5,17,21,9,46.948,0.4612,-0.0375,-0.5105,0.7247
0.114,0.26,0.119,-8.4,86.3,-4.9,0,2018,5,17,21,9,46.971,0.4619,-0.0298,-0.4947,0.7354
0.095,0.217,0.107,-4.5,16.4,-1.2,0,2018,5,17,21,9,46.975,0.4624,-0.0268,-0.4879,0.7398
0.091,0.058,0.085,-3.8,-18.1,3.7,0,2018,5,17,21,9,46.993,0.4628,-0.0278,-0.4883,0.7392
0.022,-0.071,0.02,-4,-8.5,6.8,0,2018,5,17,21,9,47.012,0.4639,-0.0293,-0.4895,0.7377
-0.009,-0.018,-0.06,-2.1,-1.4,5.6,0,2018,5,17,21,9,47.05,0.4647,-0.0298,-0.4902,0.7367
-0.017,0.048,-0.025,1.8,-17.2,6.2,0,2018,5,17,21,9,47.073,0.4655,-0.0298,-0.4916,0.7352
-0.045,-0.306,-0.099,8.8,-13.7,-2.2,0,2018,5,17,21,9,47.078,0.4652,-0.0309,-0.495,0.7331
-0.036,-0.033,-0.038,8.2,28.2,-6,0,2018,5,17,21,9,47.111,0.4639,-0.0293,-0.4948,0.7342
-0.017,0.193,-0.062,11.3,33.7,-6.8,0,2018,5,17,21,9,47.111,0.4625,-0.0254,-0.4913,0.7375
-0.04,0.312,0.046,10.2,21.2,1.9,0,2018,5,17,21,9,47.134,0.4612,-0.022,-0.4888,0.7401
-0.083,0.257,0.108,6,-7,10.2,0,2018,5,17,21,9,47.151,0.4614,-0.0198,-0.4884,0.7402
-0.053,0.046,0.081,0.1,-17.2,12.9,0,2018,5,17,21,9,47.174,0.4629,-0.0195,-0.4906,0.7379
-0.021,0.013,0.078,-5.4,-3.3,12,0,2018,5,17,21,9,47.191,0.465,-0.0193,-0.4912,0.7362
0.036,0.037,-0.031,-4.2,-0.9,13.7,0,2018,5,17,21,9,47.214,0.4675,-0.0191,-0.4905,0.7351
0.021,0.031,-0.067,2.4,-4.9,11.8,0,2018,5,17,21,9,47.25,0.4688,-0.0186,-0.4911,0.7338
-0.026,-0.188,0.02,1.9,4.6,7.9,0,2018,5,17,21,9,47.274,0.4697,-0.0179,-0.4923,0.7325
-0.005,-0.058,-0.017,-2,17.8,0.4,0,2018,5,17,21,9,47.277,0.4701,-0.0169,-0.4906,0.7334
0.055,0.036,-0.066,-0.1,8.4,-0.1,0,2018,5,17,21,9,47.297,0.47,-0.0162,-0.4891,0.7344
0.013,0.064,-0.035,2.3,7,-0.2,0,2018,5,17,21,9,47.314,0.4698,-0.0156,-0.4885,0.735
-0.013,0.058,0.018,2.8,2.5,-1.8,1023,2018,5,17,21,9,47.338,0.4697,-0.0146,-0.488,0.7354
-0.015,0.142,0.045,1.1,-1.4,0,1023,2018,5,17,21,9,47.354,0.4698,-0.0139,-0.4876,0.7357
-0.024,0.14,0.077,-2.5,-9.6,3.5,1023,2018,5,17,21,9,47.375,0.4702,-0.0144,-0.4881,0.7351
-0.047,0.155,0.044,-9.3,-17.2,6.8,1023,2018,5,17,21,9,47.41,0.4713,-0.0159,-0.4893,0.7335
-0.039,0.182,0.042,-11.2,-31.9,10.1,1023,2018,5,17,21,9,47.432,0.4733,-0.0186,-0.4916,0.7306
-0.049,0.081,0.021,-10.6,-38.4,10.6,1023,2018,5,17,21,9,47.436,0.4758,-0.0216,-0.4951,0.7265
-0.066,0.083,0.004,-10.5,-39.5,9,1023,2018,5,17,21,9,47.456,0.4783,-0.0244,-0.4991,0.7221
-0.045,0.081,-0.032,-10.7,-42.1,10.4,1023,2018,5,17,21,9,47.475,0.4807,-0.0275,-0.5033,0.7174
-0.058,0.066,-0.027,-10.9,-40,13.3,1023,2018,5,17,21,9,47.498,0.4833,-0.0306,-0.5077,0.7124
-0.064,0.092,-0.002,-13,-39.2,13.6,0,2018,5,17,21,9,47.532,0.4863,-0.0335,-0.5116,0.7074
-0.057,0.137,-0.01,-13.7,-49,12.2,0,2018,5,17,21,9,47.555,0.4892,-0.0373,-0.5157,0.7023
0.027,0.15,-0.1,-7.8,-68.7,12,0,2018,5,17,21,9,47.56,0.4917,-0.0421,-0.5219,0.6956
0.034,-0.009,-0.113,-0.9,-75.9,16.5,0,2018,5,17,21,9,47.579,0.493,-0.0478,-0.5314,0.6871
-0.02,-0.127,-0.045,0.7,-50.2,17.5,0,2018,5,17,21,9,47.598,0.494,-0.0522,-0.5401,0.6793
-0.012,0.017,0.002,-3.1,-36.1,13.9,0,2018,5,17,21,9,47.616,0.4954,-0.0543,-0.5452,0.6739
0.052,0.11,0.041,-6.8,-55.5,12.9,0,2018,5,17,21,9,47.635,0.4974,-0.0573,-0.5495,0.6687
0.106,-0.009,-0.054,-5.3,-73.3,15.3,0,2018,5,17,21,9,47.658,0.4989,-0.0629,-0.5566,0.6612
0.089,-0.205,-0.035,-0.3,-49.1,18.5,0,2018,5,17,21,9,47.677,0.5003,-0.0675,-0.564,0.6534
0.027,-0.185,0.049,0.6,-6,15.6,0,2018,5,17,21,9,47.711,0.5017,-0.0682,-0.567,0.6495
-0.006,-0.052,0.105,-1,1.6,10.4,0,2018,5,17,21,9,47.735,0.5032,-0.0673,-0.5665,0.6489
-0.005,-0.111,0.099,-1.5,-9.9,4.7,0,2018,5,17,21,9,47.74,0.5043,-0.0673,-0.5664,0.6482
-0.044,-0.17,0.128,-3.7,-10.6,-0.3,0,2018,5,17,21,9,47.757,0.5046,-0.0687,-0.5672,0.6472
-0.057,-0.165,0.147,-7.8,0.5,-5.7,0,2018,5,17,21,9,47.781,0.5048,-0.0703,-0.5668,0.6472
-0.056,-0.132,0.123,-10.3,4.6,-12.7,0,2018,5,17,21,9,47.797,0.5048,-0.072,-0.565,0.6485
-0.072,-0.119,0.155,-12.5,6.3,-19.5,0,2018,5,17,21,9,47.82,0.5044,-0.0746,-0.5626,0.6507
-0.078,-0.116,0.2,-17,13.9,-23.1,0,2018,5,17,21,9,47.836,0.5038,-0.0773,-0.5592,0.6537
-0.052,-0.123,0.182,-23.2,27.8,-25.4,0,2018,5,17,21,9,47.854,0.5036,-0.0799,-0.5539,0.658
-0.092,-0.162,0.186,-28.1,44.2,-28.2,0,2018,5,17,21,9,47.877,0.5037,-0.0821,-0.5465,0.6639
-0.08,-0.164,0.199,-32.8,58.3,-33,0,2018,5,17,21,9,47.915,0.5041,-0.0838,-0.5366,0.6713
-0.058,-0.098,0.211,-35.7,57.9,-40.5,1023,2018,5,17,21,9,47.937,0.5041,-0.0857,-0.5254,0.68
-0.076,-0.107,0.248,-38.9,41.8,-48.8,1023,2018,5,17,21,9,47.942,0.5033,-0.0895,-0.5145,0.6883
-0.085,-0.142,0.283,-43.4,26.4,-55.9,1023,2018,5,17,21,9,47.961,0.5016,-0.0958,-0.505,0.6957
-0.098,-0.198,0.268,-48.9,26.1,-60.2,1023,2018,5,17,21,9,47.978,0.4994,-0.104,-0.496,0.7026
-0.086,-0.205,0.223,-54.5,33.5,-63.8,1023,2018,5,17,21,9,48.001,0.497,-0.1132,-0.4857,0.71
-0.046,-0.185,0.17,-57,30.1,-67.6,1023,2018,5,17,21,9,48.021,0.4943,-0.123,-0.4749,0.7175
-0.02,-0.218,0.102,-53.6,28,-69.8,1023,2018,5,17,21,9,48.038,0.4908,-0.1336,-0.4649,0.7245
-0.013,-0.261,0.025,-47,48.5,-70.9,1023,2018,5,17,21,9,48.061,0.4866,-0.1431,-0.4543,0.7322
-0.013,-0.238,0.019,-40,59.8,-74.2,1023,2018,5,17,21,9,48.098,0.4817,-0.1507,-0.4421,0.7413
-0.012,-0.266,0,-35,82.9,-76.8,0,2018,5,17,21,9,48.098,0.4762,-0.1562,-0.4284,0.7518
0.026,-0.222,-0.089,-29.3,104.1,-77.7,0,2018,5,17,21,9,48.121,0.4707,-0.1589,-0.4118,0.7639
0.066,-0.186,-0.171,-20.1,115.1,-78,0,2018,5,17,21,9,48.139,0.4651,-0.1589,-0.3923,0.7774
0.074,-0.133,-0.214,-10.7,113.3,-76.8,0,2018,5,17,21,9,48.162,0.4587,-0.1571,-0.3729,0.791
0.056,-0.129,-0.231,-4.2,112.1,-74.5,0,2018,5,17,21,9,48.181,0.4517,-0.154,-0.3547,0.8039
0.06,-0.122,-0.279,0.4,114.4,-74.7,0,2018,5,17,21,9,48.201,0.4443,-0.1499,-0.3364,0.8166
0.047,-0.082,-0.324,3.4,111.2,-73.7,0,2018,5,17,21,9,48.238,0.4365,-0.1453,-0.3182,0.8288
0.063,-0.051,-0.443,8.8,115.2,-73.4,0,2018,5,17,21,9,48.261,0.4282,-0.1399,-0.3005,0.8406
0.107,-0.003,-0.517,23.9,135.1,-77.5,0,2018,5,17,21,9,48.266,0.4193,-0.1321,-0.2816,0.8528
0.035,0.023,-0.459,38.2,173.6,-79.8,0,2018,5,17,21,9,48.284,0.4093,-0.12,-0.2589,0.8666
0.104,0.167,-0.489,44.8,202,-80.9,0,2018,5,17,21,9,48.3,0.399,-0.1035,-0.2309,0.8813
0.119,0.279,-0.538,53,150.8,-73.4,0,2018,5,17,21,9,48.318,0.388,-0.0865,-0.2049,0.8943
0.171,0.25,-0.555,57.6,79.2,-58,0,2018,5,17,21,9,48.34,0.3775,-0.0724,-0.1899,0.9034
0.179,0.295,-0.541,60.1,11.2,-47.4,0,2018,5,17,21,9,48.359,0.3678,-0.0619,-0.1864,0.9089
0.188,0.347,-0.509,53.2,-54.3,-36.7,0,2018,5,17,21,9,48.383,0.359,-0.0556,-0.1933,0.9113
0.169,0.25,-0.526,42.3,-103.4,-29,0,2018,5,17,21,9,48.399,0.3514,-0.0542,-0.2091,0.9109
0.14,0.195,-0.564,29.3,-111.9,-23.5,0,2018,5,17,21,9,48.423,0.3449,-0.0564,-0.2287,0.9085
0.068,0.15,-0.458,17.5,-71.9,-19.8,0,2018,5,17,21,9,48.458,0.3395,-0.0592,-0.2448,0.9062
0.032,0.225,-0.39,-2.5,-23.9,-6.6,0,2018,5,17,21,9,48.482,0.3364,-0.0615,-0.2528,0.905
0.008,0.315,-0.398,-23.4,-14.8,9.8,0,2018,5,17,21,9,48.487,0.3372,-0.0643,-0.2543,0.9041
0.114,0.366,-0.433,-24.2,-38.4,23.6,0,2018,5,17,21,9,48.502,0.3409,-0.0689,-0.2566,0.9017
0.029,0.391,-0.377,-13.2,-72.3,38.8,0,2018,5,17,21,9,48.525,0.3459,-0.0736,-0.2646,0.8971
-0.117,0.359,-0.203,-9.7,-123.4,53.4,1023,2018,5,17,21,9,48.542,0.3525,-0.079,-0.2797,0.8894
-0.158,0.187,-0.076,-5.5,-181.3,62,1023,2018,5,17,21,9,48.577,0.3598,-0.087,-0.3038,0.8778
-0.197,-0.041,-0.022,4.6,-204.1,60.6,1023,2018,5,17,21,9,48.6,0.3662,-0.0964,-0.3344,0.8629
-0.205,-0.168,0.07,11.6,-182.4,57,1023,2018,5,17,21,9,48.604,0.3709,-0.1041,-0.3652,0.8474
-0.227,-0.163,0.151,11,-142.2,57,1023,2018,5,17,21,9,48.622,0.3755,-0.1092,-0.3906,0.8333
-0.167,-0.225,0.189,12.6,-95.9,57.9,1023,2018,5,17,21,9,48.659,0.381,-0.111,-0.4099,0.8212
-0.095,-0.17,0.249,18.1,-52.6,58.6,1023,2018,5,17,21,9,48.681,0.3872,-0.1087,-0.4222,0.8123
-0.037,-0.113,0.362,19.2,-19.9,66.4,1023,2018,5,17,21,9,48.685,0.3942,-0.1036,-0.4285,0.8063
-0.076,0.047,0.397,13.4,-4.5,75.2,1023,2018,5,17,21,9,48.702,0.4029,-0.0966,-0.432,0.8009
0.069,0.004,0.352,14.3,-8.4,73.7,1023,2018,5,17,21,9,48.725,0.4122,-0.0895,-0.4351,0.7953
0.022,-0.038,0.345,17.5,-21.6,67.6,0,2018,5,17,21,9,48.744,0.4206,-0.0831,-0.4392,0.7894
-0.037,-0.029,0.31,17.7,-36.9,64.1,0,2018,5,17,21,9,48.768,0.4278,-0.0778,-0.4455,0.7825
-0.124,-0.009,0.247,12.6,-57.6,59.5,0,2018,5,17,21,9,48.784,0.4345,-0.0745,-0.4538,0.7743
-0.147,-0.025,0.152,9.6,-75.9,53.1,0,2018,5,17,21,9,48.807,0.4403,-0.0737,-0.4645,0.7647
-0.148,-0.047,0.1,8.1,-88.4,45,0,2018,5,17,21,9,48.822,0.4454,-0.0742,-0.4767,0.7542
-0.214,-0.091,0.09,6.3,-111.6,31.8,0,2018,5,17,21,9,48.842,0.4488,-0.0772,-0.4907,0.7427
-0.229,-0.175,0.144,0.1,-130.1,18.4,0,2018,5,17,21,9,48.865,0.4501,-0.0842,-0.5072,0.73
-0.238,-0.379,0.081,-7.3,-96.6,5.7,0,2018,5,17,21,9,48.899,0.4503,-0.0923,-0.5224,0.7181
-0.199,-0.236,-0.019,-12.6,-43.1,-11,0,2018,5,17,21,9,48.923,0.4499,-0.099,-0.53,0.7119
-0.079,-0.083,-0.129,-8.4,-31.9,-20.6,0,2018,5,17,21,9,48.928,0.4482,-0.1046,-0.533,0.7098
-0.009,-0.104,-0.085,0.4,-35.9,-28.7,0,2018,5,17,21,9,48.946,0.4446,-0.11,-0.5372,0.7081
-0.013,-0.081,-0.009,6.5,-35,-36.3,0,2018,5,17,21,9,48.966,0.4391,-0.1157,-0.5419,0.707
0.012,-0.033,-0.033,8.2,-35.6,-42.9,0,2018,5,17,21,9,48.987,0.4326,-0.1213,-0.5464,0.7067
0.043,-0.099,-0.042,9.1,-19.5,-45.2,0,2018,5,17,21,9,49.003,0.4252,-0.1271,-0.5503,0.7071
0.075,-0.174,-0.035,9.6,21.2,-47.5,0,2018,5,17,21,9,49.041,0.4179,-0.1312,-0.5504,0.7107
0.119,-0.125,-0.07,9.4,60.4,-45,0,2018,5,17,21,9,49.041,0.4121,-0.1312,-0.5447,0.7184
0.19,-0.209,-0.224,12.8,82.5,-39.8,0,2018,5,17,21,9,49.063,0.4074,-0.1287,-0.5354,0.7284
0.206,-0.044,-0.108,9.6,138.2,-29.9,0,2018,5,17,21,9,49.102,0.4042,-0.1225,-0.5213,0.7414
0.195,0.159,-0.019,4.8,160.5,-19.3,0,2018,5,17,21,9,49.123,0.4036,-0.1129,-0.5011,0.757
0.223,0.216,0.027,0.7,143.2,-11.3,0,2018,5,17,21,9,49.126,0.4043,-0.103,-0.4805,0.7713
0.19,0.251,0.041,2.3,101,-3.9,0,2018,5,17,21,9,49.164,0.4054,-0.0949,-0.4636,0.782
0.17,0.193,-0.003,8.1,56,1.7,1023,2018,5,17,21,9,49.188,0.406,-0.089,-0.4536,0.7882
0.125,0.177,-0.015,12.1,43.2,10.1,1023,2018,5,17,21,9,49.192,0.4068,-0.0837,-0.4479,0.7917
0.02,0.078,-0.024,18.4,30.1,15.2,1023,2018,5,17,21,9,49.208,0.408,-0.078,-0.4437,0.794
-0.09,-0.095,-0.016,18.2,55.1,20.3,1023,2018,5,17,21,9,49.227,0.4095,-0.0711,-0.4404,0.7957
-0.049,0.081,0.01,16,87.6,21.5,1023,2018,5,17,21,9,49.25,0.4123,-0.0611,-0.4316,0.7999
-0.032,0.013,0.004,17,99.9,22.2,1023,2018,5,17,21,9,49.266,0.4153,-0.05,-0.4198,0.8054
-0.064,0.117,0.025,17.3,115.8,26.2,1023,2018,5,17,21,9,49.286,0.4186,-0.0373,-0.4055,0.8117
-0.176,0.244,0.127,16.4,94.4,28.2,1023,2018,5,17,21,9,49.305,0.4221,-0.0252,-0.3912,0.8173
-0.182,0.15,0.08,14.4,48.8,30.8,1023,2018,5,17,21,9,49.328,0.4256,-0.016,-0.3823,0.8199
-0.189,0.218,0.036,9.9,7.3,33.2,0,2018,5,17,21,9,49.345,0.4296,-0.0103,-0.379,0.8195
-0.214,0.047,0.003,5.9,-21.1,33.3,0,2018,5,17,21,9,49.366,0.4339,-0.0079,-0.3809,0.8163
-0.231,0.087,0.027,-1.2,-24.5,29,0,2018,5,17,21,9,49.404,0.4385,-0.0072,-0.3838,0.8125
-0.22,0.07,0.057,-4.4,-69,13.7,0,2018,5,17,21,9,49.427,0.4416,-0.0101,-0.3901,0.8078
-0.203,-0.086,0.057,-5.6,-86.3,-0.4,0,2018,5,17,21,9,49.432,0.4427,-0.0168,-0.4011,0.8017
-0.148,0,0.107,-9,-76.5,-8.7,0,2018,5,17,21,9,49.448,0.4427,-0.0236,-0.4118,0.7961
-0.094,0.072,0.073,-8.6,-92.9,-21.1,0,2018,5,17,21,9,49.47,0.4409,-0.0326,-0.4223,0.7912
-0.02,0.049,0.006,-6.2,-103.2,-26,0,2018,5,17,21,9,49.508,0.4378,-0.0427,-0.4351,0.7855
-0.003,0.041,0.01,-7.5,-89.9,-25.9,0,2018,5,17,21,9,49.508,0.4342,-0.0529,-0.4473,0.78
0.018,0.069,-0.009,-3.9,-93.4,-26.3,0,2018,5,17,21,9,49.531,0.4303,-0.0625,-0.4585,0.7749
0.019,0.033,-0.049,-1.3,-87,-22.3,0,2018,5,17,21,9,49.547,0.4263,-0.0716,-0.4704,0.7693
0.064,0.031,-0.057,-0.1,-74.8,-16,0,2018,5,17,21,9,49.571,0.4225,-0.0796,-0.481,0.7639
0.084,0.057,-0.021,-1.1,-65.5,-9,0,2018,5,17,21,9,49.587,0.4197,-0.0864,-0.4899,0.759
0.073,0.039,0.022,-3.1,-54.2,-5.4,0,2018,5,17,21,9,49.611,0.4179,-0.0922,-0.4972,0.7547
0.082,0.077,-0.007,-3.9,-53.8,-3.6,0,2018,5,17,21,9,49.646,0.4167,-0.0971,-0.5033,0.7506
0.093,-0.143,-0.031,-1.4,-36.8,1.7,0,2018,5,17,21,9,49.669,0.4157,-0.1016,-0.5095,0.7464
0.086,-0.031,-0.011,-0.5,-20.6,3.7,0,2018,5,17,21,9,49.673,0.4156,-0.1038,-0.5126,0.7441
0.042,-0.022,-0.013,1.3,-31.5,5.1,0,2018,5,17,21,9,49.691,0.4153,-0.1057,-0.5162,0.7414
0.014,-0.058,0.018,-1.6,-27.5,6.6,0,2018,5,17,21,9,49.726,0.4154,-0.1077,-0.5202,0.7383
0,0.006,0.019,-3.9,-27.7,8.4,0,2018,5,17,21,9,49.728,0.4162,-0.1095,-0.5235,0.7353
0.035,-0.037,-0.032,-3.1,-21.2,11.5,0,2018,5,17,21,9,49.764,0.4172,-0.111,-0.5268,0.7321
0.021,-0.003,-0.036,-2.5,-10.3,12.3,1023,2018,5,17,21,9,49.785,0.4185,-0.1117,-0.529,0.7296
0.032,0.065,-0.041,0.4,-25.1,10.9,1023,2018,5,17,21,9,49.788,0.4197,-0.112,-0.5314,0.7271
-0.022,-0.015,-0.046,1.1,-32.1,9.8,1023,2018,5,17,21,9,49.827,0.4202,-0.1131,-0.536,0.7233
-0.045,0.001,-0.006,-1.5,-22.5,8.4,1023,2018,5,17,21,9,49.848,0.4209,-0.1141,-0.54,0.7197
-0.047,0.065,0.001,-4.1,-30.3,7.4,1023,2018,5,17,21,9,49.851,0.422,-0.115,-0.5431,0.7166
-0.026,0.092,-0.007,-7.8,-51.1,7.4,1023,2018,5,17,21,9,49.887,0.4232,-0.1174,-0.548,0.7118
-0.044,0.058,-0.012,-8.5,-69.1,7.3,1023,2018,5,17,21,9,49.909,0.424,-0.1216,-0.5552,0.705
-0.039,0.094,-0.007,-10.6,-84.8,5.2,1023,2018,5,17,21,9,49.911,0.4244,-0.1272,-0.5643,0.6965
-0.026,0.063,-0.024,-10.6,-98.8,2.7,1023,2018,5,17,21,9,49.947,0.4241,-0.1344,-0.575,0.6865
-0.019,0.093,-0.048,-11,-105.9,0.9,1023,2018,5,17,21,9,49.969,0.4231,-0.1427,-0.5869,0.6753
-0.039,0.069,-0.036,-12.6,-100.1,0.1,0,2018,5,17,21,9,49.971,0.4219,-0.1513,-0.5985,0.6638
-0.038,0.053,-0.071,-14,-89.6,-3.8,0,2018,5,17,21,9,49.988,0.4208,-0.1597,-0.6089,0.6531
-0.02,0.076,-0.045,-14.3,-80.7,-3.5,0,2018,5,17,21,9,50.01,0.4195,-0.1677,-0.6178,0.6434
-0.069,0.082,0.016,-12.8,-82.6,-0.6,0,2018,5,17,21,9,50.045,0.4188,-0.1747,-0.626,0.6341
-0.113,-0.009,0.006,-12.1,-81.9,-0.9,0,2018,5,17,21,9,50.066,0.418,-0.1812,-0.6346,0.6241
-0.088,-0.042,-0.007,-13.9,-68.3,-4,0,2018,5,17,21,9,50.074,0.4173,-0.1878,-0.642,0.615
-0.058,-0.033,-0.027,-13.9,-44.4,-4.7,0,2018,5,17,21,9,50.093,0.4168,-0.1935,-0.6473,0.6081
-0.044,-0.048,0.019,-14.8,-15.5,-4.3,0,2018,5,17,21,9,50.114,0.4171,-0.1974,-0.6494,0.6043
-0.052,-0.057,0.008,-14.7,12.1,-3.2,0,2018,5,17,21,9,50.132,0.4187,-0.1991,-0.6483,0.6038
0.068,-0.369,-0.208,-3.4,40.6,-18.3,0,2018,5,17,21,9,50.155,0.4204,-0.1996,-0.6405,0.6107
0.094,-0.167,-0.067,-3.1,57.9,-20.3,0,2018,5,17,21,9,50.192,0.4204,-0.1983,-0.6341,0.6178
0.093,0.029,0.064,-4.3,46.2,-21.8,0,2018,5,17,21,9,50.216,0.4197,-0.1977,-0.6272,0.6255
0.229,0.162,0.132,-5,-2.6,-19.3,0,2018,5,17,21,9,50.22,0.4186,-0.1988,-0.624,0.6291
0.281,0.061,0.082,-5.1,-30.9,-11.2,0,2018,5,17,21,9,50.234,0.4167,-0.2025,-0.6255,0.6276
0.231,-0.026,0.088,-5.7,-14.5,-3.3,0,2018,5,17,21,9,50.252,0.4156,-0.2056,-0.6276,0.6252
0.182,-0.06,0.06,-4.3,7.7,0.6,0,2018,5,17,21,9,50.275,0.416,-0.2063,-0.6276,0.6248
0.146,-0.034,-0.004,-0.4,14.1,1,0,2018,5,17,21,9,50.293,0.4164,-0.206,-0.626,0.6262
0.077,-0.014,0.044,-0.2,10.8,-0.1,0,2018,5,17,21,9,50.316,0.4163,-0.2057,-0.6244,0.6279
0.015,0.041,0.059,-1.1,1.4,-0.8,0,2018,5,17,21,9,50.333,0.4165,-0.2053,-0.6234,0.629
-0.025,-0.001,0.014,-1.7,-5,-0.9,0,2018,5,17,21,9,50.357,0.4168,-0.2054,-0.6234,0.6287
-0.042,-0.01,-0.034,-2.7,2.3,1.1,0,2018,5,17,21,9,50.393,0.417,-0.2054,-0.6238,0.6281
-0.019,0.02,-0.025,-2.7,1.3,1.1,1023,2018,5,17,21,9,50.416,0.4177,-0.2052,-0.6238,0.6278
-0.007,0.06,-0.013,-0.7,-8.4,0.9,1023,2018,5,17,21,9,50.419,0.4179,-0.2053,-0.6244,0.627
-0.034,0.012,-0.015,0.6,-2.6,2.6,1023,2018,5,17,21,9,50.434,0.418,-0.2054,-0.6254,0.6259
-0.029,0.035,-0.001,0.9,8.7,4.5,1023,2018,5,17,21,9,50.452,0.4186,-0.2043,-0.6254,0.6259
-0.019,0.053,0.021,0.1,6.3,4.7,1023,2018,5,17,21,9,50.475,0.4197,-0.2027,-0.6248,0.6263
-0.023,0.038,0.036,-2.2,-4.5,3.3,1023,2018,5,17,21,9,50.512,0.4206,-0.2019,-0.6246,0.6261
-0.026,0.018,0.03,-4.5,-12.2,1.8,1023,2018,5,17,21,9,50.533,0.4213,-0.2022,-0.6254,0.6248
-0.003,-0.007,0,-5.9,-10.3,0.1,1023,2018,5,17,21,9,50.537,0.4217,-0.2033,-0.6264,0.6231
0.027,0.002,-0.02,-5.4,-4.3,-1.6,1023,2018,5,17,21,9,50.554,0.4218,-0.2048,-0.6268,0.6222
0.036,0.03,-0.019,-4.2,-0.3,-2.7,0,2018,5,17,21,9,50.592,0.4218,-0.2059,-0.6266,0.6219
0.015,0.024,-0.027,-3.5,0.2,-1.9,0,2018,5,17,21,9,50.616,0.4219,-0.2067,-0.6263,0.622
0.016,0.019,-0.068,-2.7,0.1,0.1,0,2018,5,17,21,9,50.62,0.4219,-0.2073,-0.6263,0.6217
0.012,0.02,-0.059,-2.3,3.9,1.8,0,2018,5,17,21,9,50.638,0.4222,-0.2075,-0.6265,0.6214
0.017,0.015,-0.031,-0.6,9.7,2.5,0,2018,5,17,21,9,50.657,0.4226,-0.207,-0.626,0.6217
0.021,0.011,0,0.4,16.2,2.5,0,2018,5,17,21,9,50.681,0.4233,-0.2058,-0.6247,0.6229
0.027,0.005,0.01,-0.9,18.6,2.3,0,2018,5,17,21,9,50.694,0.4241,-0.2043,-0.6229,0.6247
0.028,-0.03,-0.021,0,18,1.8,0,2018,5,17,21,9,50.718,0.4249,-0.203,-0.6209,0.6265
0.021,-0.066,-0.012,2.6,25.9,0.4,0,2018,5,17,21,9,50.737,0.4252,-0.2016,-0.619,0.6287
0.042,-0.036,0.043,1.8,38.8,-1.3,0,2018,5,17,21,9,50.772,0.4259,-0.199,-0.6152,0.6327
0.06,-0.004,0.023,1.9,27.8,-2.5,0,2018,5,17,21,9,50.796,0.4265,-0.1968,-0.6112,0.6369
0.052,0.001,0.02,0.9,19.2,-3.4,0,2018,5,17,21,9,50.8,0.4265,-0.1955,-0.6084,0.6399
0.035,-0.021,0.035,0.4,16.6,-4,0,2018,5,17,21,9,50.818,0.4265,-0.1949,-0.6061,0.6423
0.019,-0.107,-0.011,-2,35.6,-5.6,0,2018,5,17,21,9,50.838,0.4265,-0.1938,-0.6033,0.6453
0.059,-0.138,-0.018,-3.4,72.6,-7.6,0,2018,5,17,21,9,50.858,0.4277,-0.1912,-0.5967,0.6514
0.09,-0.171,-0.044,-1.2,101,-14.3,0,2018,5,17,21,9,50.881,0.4289,-0.1868,-0.5861,0.6614
0.151,-0.136,-0.081,2.9,112.1,-18.8,0,2018,5,17,21,9,50.9,0.4301,-0.1806,-0.5732,0.6735
0.193,-0.105,-0.048,6.3,135.8,-17.9,0,2018,5,17,21,9,50.923,0.4313,-0.1726,-0.5582,0.6873
0.229,-0.107,0.002,7.8,163,-16.6,0,2018,5,17,21,9,50.939,0.4328,-0.162,-0.5402,0.7032
0.215,-0.062,0.046,7.3,184.7,-13.8,0,2018,5,17,21,9,50.955,0.435,-0.1491,-0.5184,0.7208
0.324,-0.057,0.026,8.4,198.5,-11.5,1023,2018,5,17,21,9,50.979,0.4374,-0.1347,-0.4943,0.739
0.282,-0.01,0.047,10.2,211.8,-4.7,1023,2018,5,17,21,9,51.013,0.44,-0.1186,-0.468,0.7571
0.21,0.016,-0.027,10.6,233.4,4.8,1023,2018,5,17,21,9,51.037,0.4436,-0.1002,-0.4388,0.7749
0.099,0.073,-0.08,12.4,250.1,10,1023,2018,5,17,21,9,51.041,0.4475,-0.0795,-0.4064,0.7926
0.038,0.16,-0.081,12.5,256.6,17,1023,2018,5,17,21,9,51.059,0.4516,-0.057,-0.3712,0.8092
-0.077,0.188,-0.021,13.9,244.3,18.9,1023,2018,5,17,21,9,51.082,0.4556,-0.0337,-0.3359,0.8236
-0.193,0.339,0.014,16.5,191.3,16.8,1023,2018,5,17,21,9,51.102,0.4583,-0.0132,-0.3048,0.8347
-0.235,0.241,-0.056,20.3,113.3,17.5,1023,2018,5,17,21,9,51.138,0.4603,0.0021,-0.2841,0.841
-0.266,0.197,-0.139,25.9,30.1,11.2,1023,2018,5,17,21,9,51.162,0.4613,0.0114,-0.2757,0.8432
-0.326,0.043,-0.015,19.5,-1.1,7.5,1023,2018,5,17,21,9,51.166,0.4617,0.0158,-0.2758,0.8428
-0.312,0.137,0.011,11.7,-22.8,-6.7,0,2018,5,17,21,9,51.182,0.4612,0.0174,-0.278,0.8424
-0.224,0.241,-0.067,5.2,-69.5,-6.7,0,2018,5,17,21,9,51.2,0.46,0.014,-0.2851,0.8407
-0.176,0.326,-0.114,2.5,-128.4,-4.3,0,2018,5,17,21,9,51.219,0.4594,0.006,-0.2994,0.8361
-0.109,0.073,-0.186,-0.7,-157.9,0.9,0,2018,5,17,21,9,51.24,0.4594,-0.0062,-0.3209,0.8281
-0.055,-0.104,-0.15,-3.8,-116.3,4.7,0,2018,5,17,21,9,51.278,0.4598,-0.0179,-0.3406,0.8198
-0.024,0.072,-0.085,-2.3,-86.7,4.2,0,2018,5,17,21,9,51.278,0.4605,-0.0258,-0.3542,0.8135
-0.016,0.149,-0.066,1.7,-115.4,4.1,0,2018,5,17,21,9,51.302,0.4609,-0.0328,-0.3678,0.8069
-0.015,-0.042,-0.038,1.8,-127.2,5.5,0,2018,5,17,21,9,51.338,0.4608,-0.042,-0.3858,0.7981
0.018,-0.16,0.003,-1.1,-72,7.2,0,2018,5,17,21,9,51.361,0.4607,-0.0504,-0.4004,0.7904
0.006,-0.022,0.031,-2.7,-40.8,4,0,2018,5,17,21,9,51.367,0.4611,-0.0548,-0.4073,0.7863
0.027,0.011,0.066,-2.2,-69.4,1.3,0,2018,5,17,21,9,51.386,0.4613,-0.0595,-0.4137,0.7825
0.08,-0.023,0.061,-1.5,-92,1.7,0,2018,5,17,21,9,51.4,0.4607,-0.0669,-0.4242,0.7766
0.044,-0.077,0.027,-1.8,-80.8,3.9,0,2018,5,17,21,9,51.435,0.4599,-0.0748,-0.4358,0.7699
0.044,-0.057,0.044,-3.7,-51,4.7,0,2018,5,17,21,9,51.459,0.4597,-0.0806,-0.4442,0.7646
0.067,-0.003,-0.018,-1.7,-38.7,3.4,0,2018,5,17,21,9,51.463,0.4598,-0.0847,-0.4495,0.7611
0.013,0.156,0.102,-5.9,-46.6,5.8,0,2018,5,17,21,9,51.481,0.4603,-0.0877,-0.4541,0.7577
0.038,0.235,0.169,-8.5,-100.9,7.7,0,2018,5,17,21,9,51.504,0.4604,-0.0943,-0.4633,0.7512
0.014,0.018,0.035,-12.3,-107.2,13.7,0,2018,5,17,21,9,51.522,0.4608,-0.1039,-0.4769,0.7411
-0.009,-0.115,-0.119,-10.2,-60.2,14.6,0,2018,5,17,21,9,51.559,0.462,-0.1111,-0.4872,0.7326
0.025,0.073,-0.209,0.3,-61.7,10.2,0,2018,5,17,21,9,51.582,0.4629,-0.1155,-0.4941,0.7267
0.003,-0.032,-0.256,10.2,-72.5,7.9,0,2018,5,17,21,9,51.586,0.4621,-0.1195,-0.5034,0.7201
-0.073,-0.303,-0.212,9.9,-39.8,2,1023,2018,5,17,21,9,51.622,0.4605,-0.1226,-0.512,0.7145
-0.068,-0.212,-0.114,4.5,15.5,-3.5,1023,2018,5,17,21,9,51.622,0.4596,-0.1226,-0.5135,0.7141
-0.058,0.022,-0.02,0.8,22.6,-7.7,1023,2018,5,17,21,9,51.645,0.4591,-0.1207,-0.5113,0.7163
-0.09,0.064,0.009,0,-19.1,-13.3,1023,2018,5,17,21,9,51.661,0.4584,-0.1205,-0.5107,0.7172
-0.147,0.028,-0.035,-2.8,-62,-19,1023,2018,5,17,21,9,51.684,0.4559,-0.1246,-0.5159,0.7143
-0.145,0.004,-0.077,-2.1,-100.9,-22.6,1023,2018,5,17,21,9,51.701,0.4517,-0.1338,-0.5256,0.7083
-0.007,0.046,-0.052,-3.8,-104.9,-23.5,1023,2018,5,17,21,9,51.724,0.4465,-0.1444,-0.538,0.7001
0.07,-0.078,-0.032,0.3,-90.3,-23.3,1023,2018,5,17,21,9,51.761,0.441,-0.1551,-0.5496,0.6923
0.055,-0.031,0.088,-4.1,-49.9,-18,0,2018,5,17,21,9,51.783,0.4365,-0.163,-0.5567,0.6875
0.073,0.055,0.116,-4.9,-60.6,-19.2,0,2018,5,17,21,9,51.788,0.4333,-0.1695,-0.5616,0.684
0.093,-0.164,0.156,-6.8,-41.9,-17.6,0,2018,5,17,21,9,51.804,0.4299,-0.1764,-0.5675,0.6796
0.191,-0.102,0.042,-7.8,31.2,-11.5,0,2018,5,17,21,9,51.827,0.4288,-0.1793,-0.5668,0.6801
0.228,-0.045,-0.007,-2.2,74.3,-3.8,0,2018,5,17,21,9,51.843,0.4303,-0.1762,-0.5594,0.6861
0.099,-0.087,0.135,-0.8,112.6,5,0,2018,5,17,21,9,51.867,0.4332,-0.1691,-0.5481,0.6951
0.066,-0.042,0.182,-5.1,152.4,16.8,0,2018,5,17,21,9,51.885,0.4388,-0.1582,-0.5318,0.7067
0.066,0.188,0.076,-4.8,169.7,27.2,0,2018,5,17,21,9,51.902,0.4464,-0.144,-0.5114,0.7199
0.067,0.318,0.012,4.8,102.2,26.1,0,2018,5,17,21,9,51.925,0.4533,-0.1305,-0.4946,0.7299
-0.019,0.002,-0.042,14.8,53.8,21.2,0,2018,5,17,21,9,51.962,0.4573,-0.1212,-0.4863,0.7345
-0.098,0.026,0.038,9.6,37.9,10,0,2018,5,17,21,9,51.985,0.4593,-0.1141,-0.4824,0.737
-0.083,0.091,0.057,4,23.9,5.8,0,2018,5,17,21,9,51.99,0.4608,-0.1094,-0.479,0.739
-0.079,0.137,0.065,1.4,4.6,3.3,0,2018,5,17,21,9,52.008,0.4614,-0.1074,-0.4774,0.7399
-0.142,0.087,0.039,-1.6,-20.1,0.6,0,2018,5,17,21,9,52.027,0.4615,-0.1078,-0.4787,0.739
-0.078,0.198,-0.073,-3,-57.7,-4.6,0,2018,5,17,21,9,52.063,0.4607,-0.1116,-0.4833,0.7359
-0.044,0.155,-0.113,-2.6,-76.7,-2.6,0,2018,5,17,21,9,52.086,0.4592,-0.1174,-0.4924,0.7299
0.024,0.069,-0.128,-1.1,-62.2,4.9,0,2018,5,17,21,9,52.09,0.4581,-0.1231,-0.5019,0.7231
0.018,0.08,-0.069,-0.7,-46.9,10.3,0,2018,5,17,21,9,52.104,0.458,-0.1267,-0.509,0.7176
-0.032,0.042,0.018,-1.2,-52.6,9.9,0,2018,5,17,21,9,52.142,0.4585,-0.1296,-0.5152,0.7123
-0.031,0.061,-0.02,-1.7,-57,8.1,0,2018,5,17,21,9,52.165,0.4588,-0.1329,-0.5221,0.7064
-0.031,0.033,-0.014,-2.3,-58.3,7.9,0,2018,5,17,21,9,52.17,0.4588,-0.1368,-0.5295,0.7001
-0.033,0.047,0.014,-3.9,-58.5,8.1,0,2018,5,17,21,9,52.184,0.459,-0.1407,-0.5366,0.6938
-0.107,-0.062,0.023,-8.1,-59.4,2.8,1023,2018,5,17,21,9,52.207,0.4591,-0.145,-0.5435,0.6875
-0.12,-0.165,-0.013,-13.5,-41.6,-5.6,1023,2018,5,17,21,9,52.225,0.4588,-0.1502,-0.5493,0.682
-0.084,-0.12,-0.018,-17.5,-25.3,-16.4,1023,2018,5,17,21,9,52.249,0.4582,-0.1556,-0.5521,0.6789
-0.004,0.02,-0.014,-18,-14.5,-18.8,1023,2018,5,17,21,9,52.282,0.4573,-0.1609,-0.5528,0.6777
0.018,0.034,0.015,-17.3,-1.6,-11.8,1023,2018,5,17,21,9,52.305,0.4569,-0.165,-0.5519,0.6777
0.007,0.097,0.014,-19,2.4,-3.7,1023,2018,5,17,21,9,52.309,0.458,-0.1675,-0.5498,0.678
0.021,0.11,-0.009,-16.5,-17.8,-0.7,1023,2018,5,17,21,9,52.347,0.4596,-0.17,-0.5491,0.6769
0.016,0.054,0.019,-13.9,-34,-0.9,1023,2018,5,17,21,9,52.368,0.4603,-0.1738,-0.5507,0.6741
0.014,-0.054,0.003,-13.4,-39.8,-2.1,1023,2018,5,17,21,9,52.372,0.4603,-0.1786,-0.5541,0.6701
0.004,-0.209,-0.018,-15.4,-23.9,-7,0,2018,5,17,21,9,52.388,0.4598,-0.1836,-0.557,0.6666
0.008,-0.22,-0.016,-15.5,-12.7,-17.4,0,2018,5,17,21,9,52.423,0.4588,-0.1886,-0.5578,0.6653
0.002,-0.019,0.006,-13.6,-22,-22.4,0,2018,5,17,21,9,52.446,0.4571,-0.1937,-0.5581,0.6647
0.016,-0.035,-0.006,-13.2,-32.8,-22.4,0,2018,5,17,21,9,52.45,0.4547,-0.1998,-0.5598,0.6632
0.037,0.038,-0.008,-14.7,-17.1,-15.7,0,2018,5,17,21,9,52.47,0.4528,-0.2056,-0.5611,0.6616
0.053,0.069,-0.001,-15.1,2.1,-8.8,0,2018,5,17,21,9,52.488,0.4526,-0.209,-0.5601,0.6615
0.133,0.152,-0.064,-7.8,-8,-5.2,0,2018,5,17,21,9,52.512,0.4525,-0.2114,-0.559,0.6617
0.161,0.019,0.001,-1.5,-11.2,0.7,0,2018,5,17,21,9,52.546,0.4515,-0.2141,-0.56,0.6607
0.202,-0.011,0.026,0.4,6.9,3.9,0,2018,5,17,21,9,52.569,0.4519,-0.2138,-0.5603,0.6603
0.263,-0.078,-0.021,4.4,27.4,2.4,0,2018,5,17,21,9,52.573,0.4526,-0.2119,-0.5586,0.6618
0.215,-0.072,0.015,8,38.6,1.2,0,2018,5,17,21,9,52.589,0.4534,-0.208,-0.5555,0.6651
0.146,0.017,0.07,7,43,2.9,0,2018,5,17,21,9,52.606,0.4543,-0.2034,-0.5515,0.6692
0.088,-0.034,0.126,3.2,40.9,5.3,0,2018,5,17,21,9,52.626,0.4557,-0.1991,-0.5473,0.673
0.033,-0.007,0.122,-1.9,33.2,4.7,0,2018,5,17,21,9,52.666,0.4577,-0.1955,-0.5426,0.6765
0.023,0.015,0.02,-1.5,15,3.8,0,2018,5,17,21,9,52.69,0.4595,-0.1933,-0.5391,0.6787
0.003,-0.058,-0.049,2.4,4.4,3.6,0,2018,5,17,21,9,52.693,0.4598,-0.1926,-0.5388,0.679
-0.031,-0.02,-0.026,2.6,19.7,5.4,0,2018,5,17,21,9,52.71,0.4604,-0.1908,-0.5383,0.6795
-0.023,0.01,-0.014,1.7,30.8,4.8,0,2018,5,17,21,9,52.729,0.4617,-0.1876,-0.536,0.6812
-0.02,0.015,-0.017,1.5,38.3,3.6,0,2018,5,17,21,9,52.75,0.4633,-0.184,-0.5324,0.684
-0.041,0.053,0.041,1.1,45.5,2.8,0,2018,5,17,21,9,52.787,0.4651,-0.1796,-0.5275,0.6877
-0.08,0.008,0.071,-1.7,44.9,0.4,1023,2018,5,17,21,9,52.811,0.4672,-0.1751,-0.5218,0.6918
-0.041,0.021,0.033,-3.5,35.7,-1.5,1023,2018,5,17,21,9,52.816,0.469,-0.1716,-0.5164,0.6955
-0.024,0.029,-0.016,-1.7,21.5,-4.8,1023,2018,5,17,21,9,52.832,0.4699,-0.1695,-0.5127,0.6981
0.009,0.032,-0.013,-0.4,16.2,-5.1,1023,2018,5,17,21,9,52.849,0.47,-0.1685,-0.5104,0.7
0,-0.038,-0.001,-1.4,29.4,-6.1,1023,2018,5,17,21,9,52.872,0.47,-0.1673,-0.5075,0.7024
0.016,-0.063,0.001,-2.6,51.8,-8,1023,2018,5,17,21,9,52.889,0.4704,-0.165,-0.5023,0.7064
0.01,0.006,0.04,-5.3,63.2,-5.7,1023,2018,5,17,21,9,52.911,0.4715,-0.1616,-0.4942,0.7122
0.034,0.029,0.015,-6.1,59.5,-6,1023,2018,5,17,21,9,52.948,0.473,-0.1577,-0.4856,0.7179
0.037,0.012,0.023,-5.7,57.6,-5.7,1023,2018,5,17,21,9,52.972,0.4743,-0.1543,-0.4772,0.7234
0.024,0.006,0.045,-7.7,59.9,-5.1,1023,2018,5,17,21,9,52.977,0.4758,-0.1509,-0.4686,0.7287
0.033,0.018,0.033,-9.1,53.7,-5,0,2018,5,17,21,9,52.992,0.4775,-0.1476,-0.4599,0.7339
0.078,-0.024,0.006,-7.5,49.6,-7.6,0,2018,5,17,21,9,53.016,0.4784,-0.1453,-0.4523,0.7384
0.091,-0.033,0.028,-5.7,47.1,-9.9,0,2018,5,17,21,9,53.052,0.4787,-0.1436,-0.4448,0.7431
0.109,-0.025,-0.003,-2.8,44.7,-12.6,0,2018,5,17,21,9,53.075,0.4782,-0.1421,-0.4379,0.7478
0.098,0.013,0.013,-2,38.3,-13.2,0,2018,5,17,21,9,53.079,0.4774,-0.1407,-0.4313,0.7523
0.068,-0.102,0.002,-0.8,31.9,-15.3,0,2018,5,17,21,9,53.092,0.4761,-0.14,-0.4263,0.7562
0.092,-0.05,0.011,-1.4,33.3,-16.3,0,2018,5,17,21,9,53.111,0.4746,-0.1394,-0.4213,0.7601
0.071,-0.028,0.028,-1.2,21.1,-19.3,0,2018,5,17,21,9,53.134,0.4726,-0.1393,-0.4169,0.7637
0.075,-0.022,-0.002,0.6,11.3,-23.2,0,2018,5,17,21,9,53.154,0.47,-0.1402,-0.4138,0.7668
0.08,-0.059,-0.079,4.6,-4.2,-25.7,0,2018,5,17,21,9,53.191,0.4662,-0.1423,-0.4132,0.7691
0.059,-0.079,-0.099,7.4,6,-24.2,0,2018,5,17,21,9,53.214,0.4624,-0.1436,-0.413,0.7713
0.073,0,-0.07,10.4,20.3,-23.9,0,2018,5,17,21,9,53.217,0.4587,-0.1436,-0.411,0.7745
0.071,0.067,-0.073,14,20.8,-19.8,0,2018,5,17,21,9,53.235,0.4552,-0.1423,-0.4084,0.7782
0.094,0.17,-0.105,20.9,1.6,-14.4,0,2018,5,17,21,9,53.256,0.4518,-0.1408,-0.407,0.7812
0.069,0.181,-0.136,30.4,-33.9,-4.6,0,2018,5,17,21,9,53.273,0.4481,-0.14,-0.4107,0.7815
0.001,0.106,-0.142,34.2,-25.5,7.2,0,2018,5,17,21,9,53.294,0.4451,-0.1382,-0.4181,0.7796
-0.031,0.11,-0.154,36.4,1.2,19.3,0,2018,5,17,21,9,53.31,0.4442,-0.1332,-0.4234,0.7781
-0.035,0.239,-0.12,37.6,29.1,31.2,0,2018,5,17,21,9,53.332,0.4457,-0.1244,-0.4245,0.7781
-0.135,0.113,-0.043,38.4,34.4,41.2,0,2018,5,17,21,9,53.369,0.4485,-0.1142,-0.4242,0.7783
-0.232,0.033,0.008,33.2,67.4,41.4,0,2018,5,17,21,9,53.393,0.4527,-0.1023,-0.4203,0.7796
-0.269,-0.021,0.022,25.3,81.3,37.6,0,2018,5,17,21,9,53.397,0.4572,-0.0896,-0.4131,0.7824
-0.205,0.018,0.069,13.3,112.2,29.8,1023,2018,5,17,21,9,53.413,0.462,-0.0768,-0.4013,0.787
-0.146,0.127,0.087,8.8,88.8,20,1023,2018,5,17,21,9,53.433,0.4661,-0.0653,-0.3877,0.7924
-0.155,0.095,0.044,8.9,42.9,10.1,1023,2018,5,17,21,9,53.472,0.4683,-0.0579,-0.3797,0.7957
-0.16,0.092,-0.012,7.9,0.4,7.7,1023,2018,5,17,21,9,53.495,0.4691,-0.0548,-0.3777,0.7963
-0.084,0.096,-0.106,10.6,-8.7,7.5,1023,2018,5,17,21,9,53.499,0.4698,-0.0531,-0.3795,0.7952
-0.082,0.081,-0.036,12.3,-22.6,8.7,1023,2018,5,17,21,9,53.517,0.4703,-0.0518,-0.3826,0.7934
-0.158,0.074,0.11,6,-32.3,6.5,1023,2018,5,17,21,9,53.539,0.4707,-0.0519,-0.3872,0.791
-0.135,0.375,0.151,3.7,-105.6,-1.2,1023,2018,5,17,21,9,53.556,0.4703,-0.0564,-0.3959,0.7866
-0.123,0.175,0.09,2.2,-197.2,-0.6,1023,2018,5,17,21,9,53.574,0.4681,-0.0692,-0.4177,0.7756
-0.007,0.031,0.038,-1.8,-192.2,-0.6,0,2018,5,17,21,9,53.597,0.4658,-0.0852,-0.4439,0.7606
0.053,-0.04,-0.127,-0.9,-158.1,-3.9,0,2018,5,17,21,9,53.612,0.4627,-0.1002,-0.467,0.7468
0.007,0.002,-0.111,1.2,-126.2,-3.8,0,2018,5,17,21,9,53.636,0.4593,-0.1119,-0.4857,0.7352
-0.026,0.021,-0.062,0.9,-105.5,-4.5,0,2018,5,17,21,9,53.674,0.4563,-0.1212,-0.5009,0.7252
0,-0.031,-0.085,1.9,-79.1,-4.9,0,2018,5,17,21,9,53.674,0.4534,-0.129,-0.5132,0.7171
-0.021,-0.057,-0.07,0.7,-50,-2.6,0,2018,5,17,21,9,53.698,0.4509,-0.1344,-0.5221,0.7112
0.001,0.016,-0.044,0.7,-41.4,-1.6,0,2018,5,17,21,9,53.733,0.4495,-0.1379,-0.5281,0.707
0.005,0.023,-0.047,1.7,-36.4,-0.5,0,2018,5,17,21,9,53.757,0.4481,-0.1409,-0.5334,0.7033
-0.011,0.021,-0.002,1.1,-25.8,-0.1,0,2018,5,17,21,9,53.761,0.4472,-0.143,-0.5376,0.7002
-0.019,0.034,0.019,0.7,-21.5,-2.1,0,2018,5,17,21,9,53.776,0.4466,-0.1444,-0.5403,0.6982
-0.031,-0.008,0.014,1.7,-25.2,-2.6,0,2018,5,17,21,9,53.811,0.4458,-0.146,-0.5433,0.6961
0.035,-0.084,-0.012,6,-21.9,-1.8,0,2018,5,17,21,9,53.835,0.4444,-0.1478,-0.5468,0.6939
0.057,0.06,-0.001,10.9,-26.6,-0.2,0,2018,5,17,21,9,53.839,0.4427,-0.149,-0.55,0.6922
0.014,-0.055,0.04,11.4,-24.3,-0.3,0,2018,5,17,21,9,53.854,0.4407,-0.1499,-0.5542,0.6899
-0.004,0.003,0.095,5.3,-7.6,-1.3,0,2018,5,17,21,9,53.877,0.4395,-0.1499,-0.5562,0.689
0.072,-0.067,0.038,4.7,-14.1,-2.7,0,2018,5,17,21,9,53.915,0.4386,-0.1505,-0.5573,0.6886
0.06,-0.078,0.033,4.7,-6.6,-1.4,0,2018,5,17,21,9,53.938,0.4372,-0.1516,-0.5588,0.6881
0.063,0.003,0.03,5.6,-7.8,-0.3,0,2018,5,17,21,9,53.942,0.4362,-0.1518,-0.5598,0.6879
0.057,-0.077,0.024,4.8,-1.2,-0.7,0,2018,5,17,21,9,53.958,0.4351,-0.1519,-0.5608,0.6877
0.065,-0.039,0.044,2.4,8.7,-0.3,0,2018,5,17,21,9,53.981,0.4345,-0.1515,-0.5605,0.6884
0.093,-0.039,0.051,1.8,10.8,-1.3,1023,2018,5,17,21,9,53.996,0.4343,-0.151,-0.5589,0.69
0.1,-0.086,0.043,2.6,13.7,-4.8,1023,2018,5,17,21,9,54.015,0.4335,-0.1508,-0.5572,0.6918
0.091,-0.105,0.069,2.9,18.5,-8.5,1023,2018,5,17,21,9,54.038,0.4323,-0.1506,-0.5551,0.6944
0.072,-0.078,0.147,-0.8,36.6,-9.7,1023,2018,5,17,21,9,54.056,0.4316,-0.1494,-0.5516,0.6978
0.078,-0.143,0.08,-4.9,68.4,-8.5,1023,2018,5,17,21,9,54.077,0.4319,-0.147,-0.5447,0.7035
0.051,0.145,0.112,-9.1,70.4,-5.6,1023,2018,5,17,21,9,54.115,0.4334,-0.143,-0.5345,0.7112
-0.002,0.063,0.233,-14.2,40.4,-5.1,1023,2018,5,17,21,9,54.138,0.4352,-0.1409,-0.527,0.7161
0.023,-0.185,0.109,-15.9,55.7,-8.4,1023,2018,5,17,21,9,54.142,0.4365,-0.14,-0.52,0.7206
0.023,0.281,0.113,-15.3,15.6,-7.7,0,2018,5,17,21,9,54.162,0.4381,-0.1394,-0.5129,0.7248
0.047,0.023,-0.006,-10.3,-23.9,-5.4,0,2018,5,17,21,9,54.198,0.4381,-0.1424,-0.5133,0.724
-0.014,-0.014,-0.021,-12.3,-0.9,-4.6,0,2018,5,17,21,9,54.222,0.4378,-0.1454,-0.5147,0.7226
-0.104,-0.088,0.002,-10.5,25.9,-6.9,0,2018,5,17,21,9,54.226,0.4382,-0.1456,-0.5123,0.7239
-0.012,0.023,0.006,-9.8,14.6,-2.1,0,2018,5,17,21,9,54.241,0.4397,-0.1452,-0.5084,0.7259
-0.028,-0.024,-0.116,-3.7,11.6,0.6,0,2018,5,17,21,9,54.264,0.4403,-0.1453,-0.5072,0.7263
-0.027,0.094,-0.237,4.3,20.1,4.4,0,2018,5,17,21,9,54.281,0.4409,-0.1439,-0.5055,0.7274
-0.023,0.031,-0.218,9.8,24.3,1.9,0,2018,5,17,21,9,54.298,0.4412,-0.141,-0.5034,0.7293
-0.054,0.096,-0.181,13,47.4,3.3,0,2018,5,17,21,9,54.321,0.4414,-0.1365,-0.4996,0.7326
-0.068,0.171,-0.09,14.3,41.1,5.1,0,2018,5,17,21,9,54.339,0.442,-0.1305,-0.4949,0.7366
-0.161,0.136,0.047,10.1,39.6,9.4,0,2018,5,17,21,9,54.363,0.4427,-0.1255,-0.4909,0.7397
-0.172,0.186,-0.01,7.1,34.9,8.9,0,2018,5,17,21,9,54.399,0.4441,-0.1205,-0.4865,0.7425
-0.135,0.333,-0.004,9.3,-27.5,4.1,0,2018,5,17,21,9,54.399,0.4444,-0.1184,-0.4864,0.7428
-0.205,0.122,0.118,5.9,-70,6.1,0,2018,5,17,21,9,54.424,0.4431,-0.1214,-0.4944,0.7378
-0.139,-0.054,-0.022,0.9,-38.6,5.1,0,2018,5,17,21,9,54.442,0.4425,-0.1248,-0.5021,0.7324
-0.092,0.06,0.021,-2.3,-27.5,-2.9,0,2018,5,17,21,9,54.465,0.4425,-0.1263,-0.5059,0.7295
-0.053,0.116,0.018,0.6,-60.5,-6.3,0,2018,5,17,21,9,54.48,0.441,-0.13,-0.5114,0.7259
-0.049,0.076,-0.032,0.6,-71.1,-4.7,0,2018,5,17,21,9,54.501,0.4389,-0.135,-0.5201,0.72
-0.011,0.04,-0.059,-0.8,-62.9,0.3,0,2018,5,17,21,9,54.519,0.4373,-0.14,-0.5288,0.7137
0.027,0.05,-0.048,-1.7,-50.1,3,0,2018,5,17,21,9,54.541,0.4362,-0.1443,-0.5358,0.7083
-0.014,0.094,0.017,-1.4,-58,2.1,0,2018,5,17,21,9,54.578,0.4354,-0.148,-0.5423,0.703
-0.049,0.028,0.059,-5.1,-74.9,-0.7,1023,2018,5,17,21,9,54.578,0.4345,-0.1528,-0.5499,0.6966
-0.065,-0.013,0.029,-8.2,-72.6,-0.9,1023,2018,5,17,21,9,54.601,0.4332,-0.1589,-0.5585,0.6892
-0.008,0.15,-0.001,-7.5,-86.4,1.7,1023,2018,5,17,21,9,54.639,0.4325,-0.1649,-0.5669,0.6812
-0.005,0.032,0.013,-2.5,-88.7,2.8,1023,2018,5,17,21,9,54.662,0.4309,-0.1718,-0.5772,0.6719
-0.1,0.011,0.107,-1.4,-75.5,-2.9,1023,2018,5,17,21,9,54.667,0.429,-0.1774,-0.5864,0.6637
-0.147,-0.185,0.085,-0.1,-53,-9.5,1023,2018,5,17,21,9,54.703,0.4268,-0.1823,-0.5937,0.6572
-0.105,-0.17,0.124,-4.8,4.6,-9.1,1023,2018,5,17,21,9,54.703,0.4255,-0.1849,-0.5958,0.6554
-0.059,-0.027,0.168,-12.5,31.1,-6.3,1023,2018,5,17,21,9,54.726,0.4268,-0.1844,-0.5918,0.6583
-0.032,-0.041,0.12,-15.6,1,-11.7,1023,2018,5,17,21,9,54.765,0.4283,-0.185,-0.5879,0.6607
-0.06,-0.367,-0.14,-3.6,-38,-26.9,0,2018,5,17,21,9,54.768,0.4259,-0.1905,-0.5899,0.6589
0.008,-0.224,-0.168,0.7,12.7,-27.5,0,2018,5,17,21,9,54.784,0.4223,-0.1942,-0.5905,0.6596
0.047,0,-0.056,0.9,37.2,-19.6,0,2018,5,17,21,9,54.821,0.4201,-0.1945,-0.5869,0.6641
0.096,0.287,0.049,-7,24.9,-12.7,0,2018,5,17,21,9,54.841,0.4198,-0.1938,-0.5819,0.6689
0.076,0.128,-0.088,-8.1,-4.1,-10.1,0,2018,5,17,21,9,54.846,0.4194,-0.1956,-0.5801,0.6702
0.04,0.061,-0.14,-6.5,-1.4,-8.4,0,2018,5,17,21,9,54.864,0.4184,-0.198,-0.5806,0.6697
0.078,-0.012,-0.154,-4.2,9.6,-8.2,0,2018,5,17,21,9,54.887,0.418,-0.1993,-0.5796,0.6704
0.103,0.047,-0.14,-3,8.2,-6.9,0,2018,5,17,21,9,54.905,0.4178,-0.1997,-0.5778,0.672
0.072,0.012,-0.112,-2.6,-3.3,-6,0,2018,5,17,21,9,54.927,0.4171,-0.2008,-0.5775,0.6723
0.023,0.088,-0.093,-1.8,-4.2,-5.4,0,2018,5,17,21,9,54.944,0.416,-0.2022,-0.5784,0.6718
0.065,0.138,-0.062,-2.2,-5,-1,0,2018,5,17,21,9,54.966,0.4153,-0.2033,-0.5791,0.6713
0.062,0.082,0.001,-4.2,-3.7,3.7,0,2018,5,17,21,9,54.983,0.4154,-0.2041,-0.5794,0.6707
0.029,0.013,0.024,-6.5,-1,6.8,0,2018,5,17,21,9,55.006,0.4165,-0.2045,-0.5791,0.6701
0.032,-0.032,0.018,-6.2,4.8,6.7,0,2018,5,17,21,9,55.025,0.4179,-0.2045,-0.5786,0.6698
0.096,-0.097,0.031,-4.3,16.4,5.8,0,2018,5,17,21,9,55.063,0.4192,-0.204,-0.5771,0.6704
0.155,-0.079,0.079,1,19.1,3,0,2018,5,17,21,9,55.084,0.4203,-0.2027,-0.5748,0.6721
0.135,-0.069,0.134,5.2,16.1,-0.8,0,2018,5,17,21,9,55.088,0.4206,-0.2006,-0.5733,0.6738
0.117,-0.063,0.143,5.6,12.8,-3.3,0,2018,5,17,21,9,55.104,0.4202,-0.1989,-0.5722,0.6755
0.132,-0.103,0.141,3.5,18.2,-4.8,0,2018,5,17,21,9,55.128,0.4197,-0.1977,-0.5708,0.6774
0.118,-0.103,0.116,-0.1,29.3,-5.9,0,2018,5,17,21,9,55.163,0.4197,-0.1961,-0.568,0.6801
0.1,-0.111,0.075,-2.6,42.1,-6.5,0,2018,5,17,21,9,55.187,0.4201,-0.1944,-0.5635,0.6841
0.091,-0.106,0.034,-3.2,60.6,-6.6,1023,2018,5,17,21,9,55.192,0.4208,-0.1923,-0.5564,0.69
0.074,-0.089,-0.005,-2,80.8,-5.8,1023,2018,5,17,21,9,55.207,0.4221,-0.1886,-0.5473,0.6975
0.061,-0.157,-0.026,0.2,115.7,-1,1023,2018,5,17,21,9,55.224,0.4244,-0.1824,-0.5353,0.707
-0.015,-0.064,0.041,-1.6,140.5,1.5,1023,2018,5,17,21,9,55.248,0.4281,-0.1731,-0.5194,0.7189
-0.016,-0.015,0.078,-5.3,156.1,0.6,1023,2018,5,17,21,9,55.264,0.4332,-0.1619,-0.4998,0.7322
0.011,0.114,-0.064,-2,135.1,-0.1,1023,2018,5,17,21,9,55.288,0.4378,-0.1508,-0.4802,0.7449
-0.034,0.107,-0.101,4.9,104.9,-0.1,1023,2018,5,17,21,9,55.325,0.4407,-0.1414,-0.465,0.7546
-0.044,0.037,-0.026,6.5,95.3,-1.3,1023,2018,5,17,21,9,55.348,0.4426,-0.1326,-0.4528,0.7624
-0.077,0.088,-0.014,4.7,92.1,1.8,1023,2018,5,17,21,9,55.353,0.4446,-0.1237,-0.4406,0.7698
-0.086,0.076,-0.039,3.6,75.1,0.8,0,2018,5,17,21,9,55.368,0.4465,-0.1161,-0.4297,0.7761
-0.074,0.173,-0.036,4,55,1,0,2018,5,17,21,9,55.392,0.448,-0.1099,-0.4211,0.7809
-0.071,0.187,-0.034,6.5,20.2,1.7,0,2018,5,17,21,9,55.407,0.4486,-0.1064,-0.4163,0.7836
-0.09,0.064,-0.036,4.8,7.5,3.6,0,2018,5,17,21,9,55.431,0.4489,-0.1045,-0.4151,0.7843
-0.116,0.047,-0.005,0.6,13.8,4.2,0,2018,5,17,21,9,55.445,0.4499,-0.1022,-0.414,0.7846
-0.115,0.069,0.018,-3.7,-1.6,3.4,0,2018,5,17,21,9,55.467,0.4506,-0.1018,-0.413,0.7847
-0.073,0.053,-0.006,-5.7,-10.1,2.2,0,2018,5,17,21,9,55.485,0.4515,-0.1025,-0.4134,0.7839
-0.066,0.008,-0.035,-6.3,-15.3,1.7,0,2018,5,17,21,9,55.508,0.4523,-0.1039,-0.4147,0.7826
-0.093,0.029,0.027,-7.8,-13.2,2.3,0,2018,5,17,21,9,55.545,0.4532,-0.1054,-0.4161,0.7811
-0.135,-0.01,0.014,-11.1,-16.6,-1.5,0,2018,5,17,21,9,55.569,0.4541,-0.1077,-0.4171,0.7798
-0.095,-0.051,-0.116,-12.8,-6.1,-2.1,0,2018,5,17,21,9,55.574,0.4544,-0.1104,-0.4185,0.7785
0.011,0.16,0.025,-14.8,1.8,0.3,0,2018,5,17,21,9,55.591,0.456,-0.1119,-0.4164,0.7784
-0.007,-0.013,0.118,-14.8,-4.8,-4,0,2018,5,17,21,9,55.628,0.4571,-0.1141,-0.4146,0.7784
-0.1,-0.02,0.074,-17.3,-14.2,-9.3,0,2018,5,17,21,9,55.65,0.4574,-0.1171,-0.414,0.7782
-0.011,0.071,-0.086,-16,-30,-9.6,0,2018,5,17,21,9,55.654,0.4572,-0.1215,-0.4153,0.7769
0.052,0.077,-0.15,-10,-37.3,-7.7,0,2018,5,17,21,9,55.668,0.4561,-0.1274,-0.419,0.7746
0.044,0.023,-0.103,-5.3,-22.2,-5.1,0,2018,5,17,21,9,55.706,0.4549,-0.1322,-0.4226,0.7725
0.011,0.002,-0.057,-1.3,-9.1,-7.4,0,2018,5,17,21,9,55.729,0.4538,-0.1347,-0.4243,0.7718
0.028,0.033,-0.057,2.1,-8.5,-7.6,0,2018,5,17,21,9,55.734,0.4525,-0.1364,-0.4251,0.7718
0.039,0.028,-0.122,7.3,-11.9,-6.3,0,2018,5,17,21,9,55.752,0.4509,-0.1377,-0.4268,0.7716
0.059,0.018,-0.128,12.3,-5.6,-4.6,0,2018,5,17,21,9,55.769,0.4488,-0.1385,-0.4291,0.7714
0.03,0.031,-0.022,12.1,11.9,-4.5,1023,2018,5,17,21,9,55.793,0.4473,-0.1375,-0.4296,0.7722
0.045,-0.037,-0.026,12.4,24.7,-6.2,1023,2018,5,17,21,9,55.81,0.446,-0.1351,-0.4276,0.7745
0.099,-0.02,-0.088,14.6,31.3,-4.5,1023,2018,5,17,21,9,55.833,0.4447,-0.132,-0.4247,0.7773
0.092,0.034,-0.073,18.4,34,-0.5,1023,2018,5,17,21,9,55.851,0.4436,-0.1281,-0.4214,0.7804
0.077,-0.03,-0.06,20.6,56.5,3.9,1023,2018,5,17,21,9,55.875,0.4431,-0.1228,-0.417,0.7839
0.101,-0.002,-0.119,23.4,89,7.3,1023,2018,5,17,21,9,55.91,0.4437,-0.1144,-0.4086,0.7893
0.141,0.055,-0.295,34.6,106.7,14.9,1023,2018,5,17,21,9,55.931,0.4451,-0.1023,-0.3972,0.7959
0.111,0.499,-0.044,42.9,116.5,20.9,1023,2018,5,17,21,9,55.935,0.4468,-0.0863,-0.3835,0.8035
-0.042,-0.084,0.174,42.5,90.4,27.5,0,2018,5,17,21,9,55.952,0.4485,-0.0716,-0.3743,0.8084
-0.089,0.075,0.178,29.8,173.5,31.8,0,2018,5,17,21,9,55.972,0.4523,-0.0536,-0.3573,0.8153
-0.078,0.44,0.204,28.4,119.8,35.3,0,2018,5,17,21,9,55.99,0.4568,-0.0349,-0.3371,0.8224
-0.093,0.081,0.14,33.1,9.4,25.4,0,2018,5,17,21,9,56.013,0.4596,-0.0245,-0.3315,0.8235
-0.133,-0.014,0.091,32.6,-21.7,21.7,0,2018,5,17,21,9,56.05,0.4615,-0.0185,-0.3354,0.821
-0.165,-0.105,0.028,25.9,-25.3,14.4,0,2018,5,17,21,9,56.071,0.4626,-0.0147,-0.3419,0.8178
-0.194,-0.303,0.183,7.8,38.2,10.2,0,2018,5,17,21,9,56.075,0.4633,-0.0115,-0.343,0.8169
-0.084,0.013,0.116,-1,57.9,-1.8,0,2018,5,17,21,9,56.095,0.464,-0.0061,-0.3349,0.82
-0.053,0.022,-0.018,2.7,37.4,-4.7,0,2018,5,17,21,9,56.112,0.4637,-0.0021,-0.3281,0.8229
-0.053,0.034,-0.061,2.9,47.8,-1.6,0,2018,5,17,21,9,56.135,0.4632,0.0021,-0.323,0.8252
0.019,0.193,-0.121,7.3,41,0.3,0,2018,5,17,21,9,56.151,0.4632,0.0071,-0.3162,0.8278
-0.015,0.162,0.007,8.5,7.7,1.4,0,2018,5,17,21,9,56.169,0.4629,0.0102,-0.3132,0.829
-0.053,0.084,0.043,5.3,-11,3.9,0,2018,5,17,21,9,56.193,0.4634,0.0115,-0.3137,0.8286
-0.048,0.11,0.041,2.6,-26.1,2.5,0,2018,5,17,21,9,56.228,0.4641,0.0116,-0.3158,0.8274
-0.022,0.123,0.023,3.9,-52.1,1.1,0,2018,5,17,21,9,56.25,0.4648,0.0095,-0.3209,0.8251
-0.015,0.06,-0.027,4.2,-73.4,-1,0,2018,5,17,21,9,56.254,0.465,0.0054,-0.33,0.8214
-0.022,0.048,-0.058,3,-66.7,-0.9,0,2018,5,17,21,9,56.272,0.4648,0.0004,-0.3405,0.8173
-0.022,0.021,-0.078,3.3,-62.2,1.2,0,2018,5,17,21,9,56.296,0.4646,-0.0039,-0.3503,0.8132
-0.006,0.062,-0.021,4,-60.6,5.2,0,2018,5,17,21,9,56.331,0.4649,-0.0078,-0.3593,0.809
-0.03,0.062,-0.007,6.3,-75.2,5.6,0,2018,5,17,21,9,56.355,0.4656,-0.0116,-0.369,0.8042
-0.042,-0.002,0.044,3.4,-79.8,4.7,0,2018,5,17,21,9,56.358,0.466,-0.0166,-0.3804,0.7986
0,-0.029,0.053,1.1,-76.5,2.6,1023,2018,5,17,21,9,56.373,0.4663,-0.0224,-0.3912,0.793
-0.009,0.041,0.056,1,-82.6,-1,1023,2018,5,17,21,9,56.409,0.4662,-0.0285,-0.4015,0.7877
-0.01,-0.041,0.036,1.6,-97.5,-6.3,1023,2018,5,17,21,9,56.433,0.4653,-0.0359,-0.4137,0.7816
0.017,0.073,0.103,-1.5,-108.9,-5.6,1023,2018,5,17,21,9,56.437,0.4638,-0.0447,-0.4271,0.7748
0.02,0.073,0.065,-1.4,-139.9,-7.3,1023,2018,5,17,21,9,56.454,0.4622,-0.0554,-0.443,0.7661
0.002,-0.015,0.023,-3.2,-144.6,-8.4,1023,2018,5,17,21,9,56.477,0.4599,-0.0678,-0.4618,0.7553
0.003,-0.097,-0.049,-1.7,-136.2,-12.9,1023,2018,5,17,21,9,56.513,0.4567,-0.0805,-0.4803,0.7444
0.044,0.027,-0.07,1.3,-134.4,-16.8,1023,2018,5,17,21,9,56.535,0.4524,-0.0927,-0.4979,0.7339
0.073,-0.099,-0.094,3.6,-107.3,-12.1,1023,2018,5,17,21,9,56.54,0.4478,-0.1039,-0.5142,0.724
0.083,-0.03,-0.057,2.2,-62.5,-9.6,0,2018,5,17,21,9,56.558,0.4442,-0.1115,-0.525,0.7173
0.05,0.012,-0.032,3,-36.4,-7,0,2018,5,17,21,9,56.576,0.4415,-0.1161,-0.5312,0.7136
0.056,0.01,-0.014,3.4,-36.4,-4.2,0,2018,5,17,21,9,56.599,0.4396,-0.1193,-0.5359,0.7107
0.052,0.006,0.024,2,-23.3,1.7,0,2018,5,17,21,9,56.616,0.4383,-0.1216,-0.5398,0.7081
0.022,-0.018,0.034,0.2,0.1,6.2,0,2018,5,17,21,9,56.637,0.4384,-0.1221,-0.5413,0.7069
-0.026,-0.025,0.035,-1.7,15.6,5.8,0,2018,5,17,21,9,56.654,0.4396,-0.1207,-0.54,0.7074
-0.044,0.012,0.009,-1.7,7.7,2.6,0,2018,5,17,21,9,56.677,0.4408,-0.1191,-0.5384,0.7082
-0.068,-0.001,-0.002,-3.2,0.8,0.1,0,2018,5,17,21,9,56.694,0.4415,-0.1185,-0.5382,0.708
-0.035,0.003,-0.068,-2.4,5,-0.1,0,2018,5,17,21,9,56.714,0.4419,-0.1183,-0.5382,0.7077
-0.07,0.025,-0.076,-0.6,15.2,-0.6,0,2018,5,17,21,9,56.753,0.4423,-0.1172,-0.5375,0.7082
-0.093,-0.013,-0.053,0.1,17,-4.7,0,2018,5,17,21,9,56.776,0.4425,-0.1155,-0.5363,0.7093
-0.103,0.026,-0.044,0,17,-9.4,0,2018,5,17,21,9,56.78,0.4422,-0.114,-0.5347,0.7109
-0.059,0.051,-0.079,0.3,6.6,-12.5,0,2018,5,17,21,9,56.798,0.4413,-0.1132,-0.5338,0.7122
0.003,0.04,-0.077,2.4,-1.3,-14.3,0,2018,5,17,21,9,56.836,0.4394,-0.1139,-0.5343,0.713
-0.018,0.012,-0.048,3.1,2.4,-14.2,0,2018,5,17,21,9,56.836,0.4373,-0.1146,-0.5348,0.7137
-0.034,-0.001,-0.044,2.6,16,-14.5,0,2018,5,17,21,9,56.859,0.4355,-0.1147,-0.5341,0.7153
-0.025,0.034,-0.014,2.3,21.2,-17.6,0,2018,5,17,21,9,56.876,0.4338,-0.1139,-0.5318,0.7183
0.011,0.03,0.006,3.4,-2.2,-19.8,0,2018,5,17,21,9,56.895,0.4314,-0.1143,-0.5304,0.7206
0.007,0.006,0.03,4.9,-20,-19,0,2018,5,17,21,9,56.917,0.4283,-0.1166,-0.5318,0.7211
-0.004,0.022,0.031,5,-21.4,-18.5,0,2018,5,17,21,9,56.935,0.4252,-0.1192,-0.5342,0.7207
-0.013,0.028,0.042,4.2,-22.2,-18,0,2018,5,17,21,9,56.958,0.4222,-0.1217,-0.5365,0.7203
-0.012,0.024,0.033,2.1,-23.1,-16.3,1023,2018,5,17,21,9,56.976,0.4195,-0.1243,-0.539,0.7197
0,0.006,0.003,0.6,-18.1,-13.5,1023,2018,5,17,21,9,57,0.4171,-0.1269,-0.5414,0.7188
0.038,0.038,0.014,0.7,-4.7,-10.8,1023,2018,5,17,21,9,57.036,0.4153,-0.1288,-0.5424,0.7187
0.048,0.037,0.034,2.8,-1.8,-10.4,1023,2018,5,17,21,9,57.059,0.4138,-0.1298,-0.5422,0.7196
0.039,0.003,0.037,4.5,1,-9.3,1023,2018,5,17,21,9,57.065,0.4121,-0.1305,-0.542,0.7205
0.049,0.007,0.064,4.9,13.4,-7.3,1023,2018,5,17,21,9,57.082,0.4107,-0.1302,-0.541,0.7222
0.099,0.014,0.092,5.2,29.8,-3.9,1023,2018,5,17,21,9,57.099,0.4099,-0.1285,-0.5383,0.725
0.21,0.023,0.147,5.4,52.5,2.8,0,2018,5,17,21,9,57.132,0.4101,-0.1247,-0.5337,0.7289
0.302,0.025,0.192,4.8,82,10.6,0,2018,5,17,21,9,57.155,0.4119,-0.1183,-0.5259,0.7346
0.299,0.011,0.274,0.6,115.4,18.4,0,2018,5,17,21,9,57.159,0.4154,-0.1092,-0.5138,0.7425
0.235,0.034,0.308,-6.4,139.3,25.3,0,2018,5,17,21,9,57.178,0.4209,-0.098,-0.4971,0.7523
0.166,0.12,0.211,-8.1,114.8,28.8,0,2018,5,17,21,9,57.201,0.4272,-0.087,-0.4799,0.7612
0.074,0.069,0.179,-12.9,75,31.3,0,2018,5,17,21,9,57.218,0.4334,-0.0787,-0.4674,0.7664
0.083,0.01,0.142,-15.1,59,33.1,0,2018,5,17,21,9,57.242,0.4397,-0.073,-0.4583,0.7689
0.074,-0.107,0.132,-16.8,56.8,33.7,0,2018,5,17,21,9,57.278,0.4461,-0.0682,-0.4496,0.7707
0.036,-0.116,0.112,-17.6,48.3,27.6,0,2018,5,17,21,9,57.302,0.4521,-0.0646,-0.4409,0.7726
0.038,-0.078,0.036,-14.2,34.2,21.8,0,2018,5,17,21,9,57.306,0.4568,-0.0621,-0.4343,0.7737
0.045,-0.218,-0.031,-11.4,55.4,16.3,0,2018,5,17,21,9,57.319,0.4605,-0.0597,-0.4282,0.7751
0.19,0.006,-0.174,-1.5,62.9,9.5,0,2018,5,17,21,9,57.336,0.4634,-0.0548,-0.419,0.7788
0.116,-0.021,-0.182,8.3,36,15.8,0,2018,5,17,21,9,57.36,0.4651,-0.0497,-0.4133,0.7812
-0.003,-0.117,-0.104,7,86.9,20.1,0,2018,5,17,21,9,57.396,0.4676,-0.0424,-0.4061,0.7839
-0.034,-0.042,-0.057,-2,137.3,22.2,0,2018,5,17,21,9,57.419,0.471,-0.0312,-0.3914,0.7899
0.036,0.106,-0.075,-6,162.8,22.9,0,2018,5,17,21,9,57.423,0.475,-0.0179,-0.3697,0.7983
0.026,0.121,-0.035,-3.1,140.8,27.3,0,2018,5,17,21,9,57.44,0.4794,-0.0042,-0.3471,0.8059
-0.031,0.197,-0.064,5.3,92.8,23.1,0,2018,5,17,21,9,57.464,0.4832,0.0075,-0.3297,0.8109
-0.048,0.045,-0.061,11.7,47.2,19.8,0,2018,5,17,21,9,57.498,0.4858,0.0156,-0.3211,0.8127
-0.086,-0.014,-0.064,12.3,50.1,17.2,0,2018,5,17,21,9,57.522,0.4877,0.0226,-0.3158,0.8135
-0.16,0.004,-0.104,12,46.2,15.1,0,2018,5,17,21,9,57.526,0.4893,0.0297,-0.3099,0.8145
-0.235,-0.031,-0.091,8.3,45.3,12.1,1023,2018,5,17,21,9,57.542,0.4907,0.0354,-0.304,0.8157
-0.243,-0.047,-0.081,2.2,50.8,5.2,1023,2018,5,17,21,9,57.56,0.4914,0.0406,-0.2974,0.8175
-0.265,-0.057,-0.089,-3.2,58.9,-2.4,1023,2018,5,17,21,9,57.579,0.4914,0.045,-0.289,0.8202
-0.224,0.09,-0.144,-7.5,39.8,-6.5,1023,2018,5,17,21,9,57.601,0.4907,0.048,-0.2809,0.8233
-0.202,0.219,-0.196,-2.5,-2,-7,1023,2018,5,17,21,9,57.619,0.4899,0.0483,-0.2775,0.8249
-0.215,0.229,-0.207,-0.9,-38.5,-6.4,1023,2018,5,17,21,9,57.642,0.4894,0.0456,-0.2804,0.8244
-0.167,0.002,-0.146,-4.9,-61.2,-9.7,1023,2018,5,17,21,9,57.66,0.4889,0.0398,-0.288,0.8224
-0.165,-0.088,-0.059,-9.8,-40.9,-19.7,1023,2018,5,17,21,9,57.684,0.4877,0.0334,-0.2943,0.8211
-0.179,-0.088,0.002,-14,-32.5,-26.9,1023,2018,5,17,21,9,57.702,0.4853,0.0271,-0.2981,0.8214
-0.128,-0.026,0.015,-15.7,-42.3,-29.7,1023,2018,5,17,21,9,57.726,0.4823,0.0207,-0.3023,0.8219
-0.06,-0.059,-0.02,-17.9,-50.1,-27.8,0,2018,5,17,21,9,57.744,0.4793,0.013,-0.3081,0.8216
0.046,0.004,-0.052,-17.6,-51.9,-21.3,0,2018,5,17,21,9,57.767,0.4768,0.0046,-0.3141,0.8209
0.14,0.001,-0.015,-12.2,-65.3,-14.3,0,2018,5,17,21,9,57.785,0.475,-0.0044,-0.3212,0.8192
0.084,0.037,0.081,-13.3,-59.2,-9.6,0,2018,5,17,21,9,57.808,0.4742,-0.0128,-0.3283,0.8167
0.036,0.043,0.09,-13.7,-56.3,-12.3,0,2018,5,17,21,9,57.822,0.4734,-0.0205,-0.3341,0.8147
0.133,0.054,0.09,-12.5,-61.9,-12.1,0,2018,5,17,21,9,57.841,0.4722,-0.0283,-0.3407,0.8124
0.165,0.079,0.073,-7.1,-78.2,-11.4,0,2018,5,17,21,9,57.864,0.4708,-0.0362,-0.3495,0.8091
0.131,0.125,0.049,2.1,-110.4,-11,0,2018,5,17,21,9,57.881,0.4687,-0.045,-0.3625,0.8042
0.055,-0.013,0.024,5.2,-123.3,-12.1,0,2018,5,17,21,9,57.905,0.4658,-0.0553,-0.3792,0.7975
0.031,-0.08,0.035,2.9,-109.5,-12.7,0,2018,5,17,21,9,57.923,0.4623,-0.0656,-0.3957,0.7907
0.025,-0.126,0.026,-1.2,-71.9,-14.3,0,2018,5,17,21,9,57.944,0.4591,-0.0743,-0.4083,0.7854
0.025,0.028,0.048,-3,-46.4,-15.5,0,2018,5,17,21,9,57.982,0.4564,-0.0805,-0.4155,0.7826
-0.016,0.066,0.113,-4.4,-47.5,-19.4,0,2018,5,17,21,9,58.005,0.4539,-0.0858,-0.4204,0.7809
-0.007,0.064,0.048,-3.4,-68.4,-21.6,0,2018,5,17,21,9,58.009,0.4508,-0.0919,-0.4268,0.7785
-0.015,0.023,0,-3.6,-72.3,-17.4,0,2018,5,17,21,9,58.023,0.4474,-0.0992,-0.4359,0.7745
-0.035,-0.041,-0.028,-5.2,-52.9,-15.8,0,2018,5,17,21,9,58.041,0.4444,-0.1057,-0.4442,0.7706
-0.037,-0.028,-0.009,-6.5,-33,-16.8,0,2018,5,17,21,9,58.065,0.4421,-0.1108,-0.4494,0.7682
-0.051,-0.044,-0.03,-4.7,-25.8,-22,0,2018,5,17,21,9,58.102,0.4394,-0.115,-0.4528,0.7671
-0.043,-0.032,-0.038,-1.7,-28.7,-26.6,0,2018,5,17,21,9,58.124,0.4359,-0.1193,-0.4564,0.7664
-0.064,-0.034,-0.018,-1.3,-23.4,-31.1,0,2018,5,17,21,9,58.129,0.4316,-0.1234,-0.4598,0.7661
-0.09,0.001,-0.019,-1.7,-24.8,-34.1,0,2018,5,17,21,9,58.147,0.4271,-0.1274,-0.4626,0.7663
-0.054,-0.016,-0.023,-2.6,-29.5,-36.6,1023,2018,5,17,21,9,58.166,0.4221,-0.1321,-0.466,0.7662
0.025,0.042,-0.039,-2.4,-34.2,-38.2,1023,2018,5,17,21,9,58.189,0.4166,-0.1376,-0.4695,0.7661
0.051,0.048,-0.025,-2,-40.5,-38.4,1023,2018,5,17,21,9,58.207,0.4106,-0.144,-0.4734,0.7658
0.068,0.022,-0.029,-2.4,-38.8,-36.3,1023,2018,5,17,21,9,58.245,0.4045,-0.1507,-0.4775,0.7652
0.071,0.039,-0.01,-3.5,-26.4,-30.1,1023,2018,5,17,21,9,58.267,0.399,-0.1567,-0.4808,0.7647
0.019,0.047,0.025,-4.5,-27.6,-24.8,1023,2018,5,17,21,9,58.271,0.3949,-0.1614,-0.4831,0.7645
0.007,0.047,0.008,-4.8,-37.2,-24.5,1023,2018,5,17,21,9,58.287,0.3914,-0.1662,-0.4858,0.7636
0.062,0.037,-0.009,-2.9,-41.1,-22.7,0,2018,5,17,21,9,58.305,0.3872,-0.1718,-0.49,0.7618
0.123,0.043,0.006,-0.4,-37.8,-20.2,0,2018,5,17,21,9,58.325,0.3829,-0.1771,-0.4943,0.7599
0.174,0.068,0.029,1.6,-30.5,-16.3,0,2018,5,17,21,9,58.364,0.3792,-0.1809,-0.4983,0.7582
0.21,0.147,0.045,3.8,-25.5,-10.5,0,2018,5,17,21,9,58.387,0.3764,-0.1834,-0.5017,0.7569
0.196,0.136,0.058,8,-32.7,-4.9,0,2018,5,17,21,9,58.392,0.3739,-0.1853,-0.5056,0.755
0.188,0.101,0.019,12.3,-18.3,3,0,2018,5,17,21,9,58.409,0.3719,-0.1857,-0.51,0.7529
0.151,0.061,0.052,13.4,7.7,11.7,0,2018,5,17,21,9,58.445,0.3716,-0.1836,-0.5118,0.7524
0.102,0.095,0.097,10.9,24.4,15.8,0,2018,5,17,21,9,58.469,0.3729,-0.1795,-0.5106,0.7535
0.011,0.08,0.112,7.8,20.1,18.9,0,2018,5,17,21,9,58.473,0.3753,-0.1751,-0.5084,0.7549
-0.063,0.007,0.088,4.1,14.3,18.3,0,2018,5,17,21,9,58.493,0.3781,-0.1709,-0.5065,0.7557
-0.058,-0.044,0.038,1.1,13.8,15.1,0,2018,5,17,21,9,58.509,0.3809,-0.1674,-0.5054,0.7558
-0.044,-0.023,0.034,-1.7,17,11.3,0,2018,5,17,21,9,58.524,0.3834,-0.1649,-0.5038,0.7562
-0.043,0.013,0,-2.1,6.9,8.5,0,2018,5,17,21,9,58.547,0.3854,-0.163,-0.5024,0.7565
-0.066,-0.015,-0.024,-1.8,0.7,7.3,0,2018,5,17,21,9,58.567,0.3869,-0.1618,-0.5027,0.7558
-0.038,0.018,-0.031,-2,-0.8,5.8,0,2018,5,17,21,9,58.591,0.3881,-0.1609,-0.5034,0.7549
-0.017,0.012,-0.038,-1.7,-1.9,4.5,0,2018,5,17,21,9,58.606,0.3889,-0.1606,-0.5041,0.7541
-0.018,0.021,-0.02,-1.8,1.9,4.5,0,2018,5,17,21,9,58.629,0.3896,-0.1601,-0.5047,0.7534
-0.02,0.053,-0.009,-2.3,1.6,5,0,2018,5,17,21,9,58.664,0.3906,-0.1594,-0.5046,0.7531
-0.006,0.032,-0.008,-2.7,-1.2,5.4,0,2018,5,17,21,9,58.687,0.3916,-0.1591,-0.5046,0.7526
-0.024,0,-0.004,-3.5,-4.1,5.3,0,2018,5,17,21,9,58.691,0.3925,-0.159,-0.5053,0.7518
-0.024,-0.003,-0.004,-4.4,-4,5,0,2018,5,17,21,9,58.707,0.3936,-0.159,-0.5059,0.7508
0.002,-0.002,-0.003,-4.7,-1.1,3.9,0,2018,5,17,21,9,58.725,0.3945,-0.1594,-0.5061,0.7501
0.014,0.014,0.013,-4,-1.6,2.6,1023,2018,5,17,21,9,58.749,0.3953,-0.1596,-0.5061,0.7496
0.044,0.024,0.024,-3.1,-3.1,1.3,1023,2018,5,17,21,9,58.784,0.3957,-0.1602,-0.506,0.7493
0.034,-0.011,0.027,-3.4,-0.5,0.9,1023,2018,5,17,21,9,58.806,0.396,-0.1608,-0.5059,0.7491
0.033,0.024,0.08,-6.3,8,2.5,1023,2018,5,17,21,9,58.81,0.3967,-0.1611,-0.5048,0.7495
0.079,0.025,0.059,-9,13.2,4.4,1023,2018,5,17,21,9,58.828,0.3981,-0.1612,-0.5022,0.7504
0.149,0.019,0.082,-10.1,18.4,5.4,1023,2018,5,17,21,9,58.85,0.4,-0.1609,-0.4994,0.7513
0.174,-0.02,0.114,-10.4,28.7,3.1,1023,2018,5,17,21,9,58.888,0.4021,-0.1601,-0.496,0.7527
0.158,0.01,0.108,-11.5,24.9,-0.1,1023,2018,5,17,21,9,58.912,0.4041,-0.1593,-0.4915,0.7547
0.117,-0.155,0.07,-11.4,16.4,-1.8,0,2018,5,17,21,9,58.916,0.4051,-0.1599,-0.4882,0.7561
0.084,-0.084,0.065,-14.8,26.9,-1.2,0,2018,5,17,21,9,58.933,0.4063,-0.1609,-0.4842,0.7579
0.079,-0.104,0.083,-16.9,35.8,-3.1,0,2018,5,17,21,9,58.952,0.4079,-0.1616,-0.4784,0.7606
0.094,-0.109,0.024,-20.6,59.9,-5.2,0,2018,5,17,21,9,58.975,0.4098,-0.1617,-0.4703,0.7646
0.128,-0.122,-0.053,-15.9,52.6,-8.9,0,2018,5,17,21,9,58.99,0.4119,-0.1608,-0.461,0.7692
0.14,-0.036,-0.089,-11.7,46.9,-7,0,2018,5,17,21,9,59.027,0.4132,-0.1599,-0.4533,0.7733
0.152,0.007,-0.075,-6,54.6,-3.3,0,2018,5,17,21,9,59.049,0.4145,-0.158,-0.4458,0.7773
0.153,0,-0.105,-0.9,87.3,2.5,0,2018,5,17,21,9,59.054,0.4167,-0.1536,-0.4357,0.7828
0.147,0.073,-0.127,2.6,124.2,10.6,0,2018,5,17,21,9,59.071,0.4204,-0.1451,-0.4212,0.7904
0.147,0.17,-0.221,13.4,134.2,21.2,0,2018,5,17,21,9,59.093,0.4252,-0.1333,-0.4039,0.7988
0.095,0.155,-0.269,24,165.2,36.9,0,2018,5,17,21,9,59.112,0.4312,-0.1176,-0.3852,0.8073
0.086,0.387,-0.308,35.7,214.4,58.6,0,2018,5,17,21,9,59.134,0.4398,-0.0962,-0.3604,0.8169
-0.002,0.638,-0.346,60.3,190.2,74.5,0,2018,5,17,21,9,59.151,0.4495,-0.0692,-0.3354,0.8249
-0.164,0.146,-0.213,64.2,180.4,81.2,0,2018,5,17,21,9,59.175,0.4592,-0.0414,-0.3151,0.8294
-0.426,-0.522,0.014,54.8,268.3,71.5,0,2018,5,17,21,9,59.19,0.4683,-0.0112,-0.2884,0.835
-0.447,0.08,0.193,50.6,299.2,48.1,0,2018,5,17,21,9,59.209,0.4743,0.0242,-0.2481,0.8442
-0.363,0.308,0.191,46.3,160.4,20.9,0,2018,5,17,21,9,59.232,0.476,0.0519,-0.2172,0.8506
-0.301,0.123,0.158,35.9,20.9,2.9,0,2018,5,17,21,9,59.249,0.4753,0.0649,-0.2081,0.8523
-0.284,-0.156,0.158,16.4,-23.5,-7,0,2018,5,17,21,9,59.273,0.4742,0.0676,-0.2117,0.8518
-0.199,-0.101,0.152,-1.2,-11.6,-13.3,0,2018,5,17,21,9,59.31,0.4727,0.0668,-0.2149,0.8519
-0.086,0.064,0.079,-7.8,-38.2,-13.8,1023,2018,5,17,21,9,59.333,0.4714,0.0644,-0.2176,0.8521
-0.054,0.074,0.021,-9.2,-73.2,-10.9,1023,2018,5,17,21,9,59.337,0.4707,0.0585,-0.2253,0.851
-0.02,-0.013,-0.021,-8.2,-93.4,-7.3,1023,2018,5,17,21,9,59.356,0.4709,0.0503,-0.2368,0.8482
-0.031,0.055,0.078,-12.9,-117.2,-3.2,1023,2018,5,17,21,9,59.374,0.4716,0.0397,-0.2512,0.8443
-0.005,0.118,-0.012,-11.3,-130.7,1.3,1023,2018,5,17,21,9,59.398,0.4732,0.0281,-0.2674,0.8388
-0.005,0.049,-0.13,-5.7,-172.5,-1.2,1023,2018,5,17,21,9,59.431,0.4747,0.0148,-0.2879,0.8315
-0.056,-0.244,-0.143,1.2,-174.7,-7,1023,2018,5,17,21,9,59.455,0.4743,-0.0008,-0.314,0.8223
-0.007,-0.069,-0.077,-2,-129.1,-5.9,1023,2018,5,17,21,9,59.458,0.4733,-0.0142,-0.3357,0.8142
0.001,-0.187,-0.077,-13.2,-47,1.3,1023,2018,5,17,21,9,59.475,0.4732,-0.0231,-0.348,0.8089
0.051,-0.071,-0.068,-19.9,33.5,2.8,1023,2018,5,17,21,9,59.493,0.4745,-0.0258,-0.3469,0.8085
0.162,0.211,-0.021,-15.4,30.7,1.8,0,2018,5,17,21,9,59.517,0.476,-0.0254,-0.3398,0.8107
0.175,0.185,-0.062,-1.6,-15.7,2.9,0,2018,5,17,21,9,59.533,0.4769,-0.0259,-0.3381,0.8108
0.159,0.03,-0.098,10.1,-38.2,2.5,0,2018,5,17,21,9,59.556,0.4768,-0.0277,-0.3429,0.8088
0.11,0.104,-0.054,16.5,-33.4,6.8,0,2018,5,17,21,9,59.593,0.4764,-0.0289,-0.3486,0.8065
0.031,-0.057,0.05,16,-30.1,11.2,0,2018,5,17,21,9,59.615,0.4763,-0.0292,-0.3546,0.804
-0.1,-0.131,0.187,6.8,3.4,11.6,0,2018,5,17,21,9,59.619,0.4771,-0.0281,-0.3575,0.8022
-0.012,0.17,0.158,0.6,-10.2,9.2,0,2018,5,17,21,9,59.637,0.4787,-0.0266,-0.3571,0.8015
-0.032,-0.04,-0.01,2.4,-36.8,3.6,0,2018,5,17,21,9,59.673,0.4793,-0.0281,-0.3612,0.7993
-0.047,-0.026,0.032,0.9,-31.6,1.5,0,2018,5,17,21,9,59.696,0.4795,-0.0304,-0.3665,0.7967
-0.036,0.03,0.021,-0.4,-20.9,-1.5,0,2018,5,17,21,9,59.7,0.4795,-0.0321,-0.37,0.795
-0.039,0.138,-0.031,1.9,-35.3,-3.9,0,2018,5,17,21,9,59.717,0.4792,-0.0336,-0.3734,0.7935
-0.052,0.107,-0.011,3.5,-62.5,-3,0,2018,5,17,21,9,59.734,0.4783,-0.0374,-0.3806,0.7905
-0.061,0.049,-0.011,1.3,-71.4,0.6,0,2018,5,17,21,9,59.757,0.4778,-0.0419,-0.3902,0.7858
-0.009,0.047,-0.049,0.1,-64.7,3.4,0,2018,5,17,21,9,59.797,0.4778,-0.047,-0.3997,0.7808
-0.006,0.06,-0.093,1.3,-62.4,3.5,0,2018,5,17,21,9,59.799,0.4778,-0.0517,-0.4086,0.7758
-0.026,-0.009,-0.063,0.9,-54.7,3.9,0,2018,5,17,21,9,59.817,0.4776,-0.056,-0.4173,0.771
-0.053,-0.098,-0.048,0.9,-36.1,5.9,0,2018,5,17,21,9,59.839,0.4775,-0.0592,-0.4246,0.7668
-0.116,-0.003,-0.006,-3,-28.8,5.9,0,2018,5,17,21,9,59.876,0.4781,-0.0608,-0.4295,0.7636
-0.128,-0.045,0.033,-10.1,-32.3,2.9,0,2018,5,17,21,9,59.898,0.4791,-0.0629,-0.4338,0.7604
-0.07,0.015,0.033,-15.6,-37.5,0.7,0,2018,5,17,21,9,59.902,0.4802,-0.0666,-0.4376,0.7572
-0.044,0.056,0.046,-18.8,-47.6,-0.5,1023,2018,5,17,21,9,59.915,0.4814,-0.0717,-0.4415,0.7537
-0.012,0.041,0.029,-20.1,-48.7,-2.2,1023,2018,5,17,21,9,59.934,0.4823,-0.078,-0.446,0.7498
0.03,0.058,-0.017,-18.6,-52.9,-2.2,1023,2018,5,17,21,9,59.957,0.4829,-0.0847,-0.4509,0.7458
0.069,0.014,-0.006,-16.4,-45.2,0.3,1023,2018,5,17,21,9,59.993,0.4832,-0.0915,-0.456,0.7416
0.089,0.047,0.007,-13.6,-30.9,2.8,1023,2018,5,17,21,10,0.016,0.4839,-0.0969,-0.4592,0.7385
0.097,0.069,-0.015,-9.4,-30.3,4.8,1023,2018,5,17,21,10,0.021,0.4847,-0.101,-0.4616,0.736
0.114,0.038,-0.013,-6.7,-27.7,9.4,1023,2018,5,17,21,10,0.039,0.4853,-0.1045,-0.4647,0.7331
0.116,0.049,-0.027,-4.7,-23.7,14.4,1023,2018,5,17,21,10,0.057,0.4865,-0.1072,-0.4673,0.7303
0.071,0.014,0.014,-4.5,-26.7,18.3,1023,2018,5,17,21,10,0.08,0.4884,-0.1089,-0.4698,0.7271
-0.049,-0.601,-0.004,-3.2,-33.9,-7.2,0,2018,5,17,21,10,0.098,0.4888,-0.1115,-0.4742,0.7236
0.09,-0.124,-0.021,-3.7,3.7,-8.2,0,2018,5,17,21,10,0.122,0.4876,-0.1135,-0.4756,0.7231
0.066,0.074,0.024,-4.5,-17,-6.6,0,2018,5,17,21,10,0.157,0.4868,-0.1155,-0.4753,0.7236
0.046,0.102,0.039,-7.9,-30.6,-2.1,0,2018,5,17,21,10,0.179,0.4863,-0.1186,-0.4774,0.722
0.116,0.031,0.002,-8.2,-36.5,0,0,2018,5,17,21,10,0.185,0.4862,-0.1228,-0.4804,0.7194
0.126,-0.111,-0.057,-4.3,-15.5,-1.3,0,2018,5,17,21,10,0.2,0.4859,-0.126,-0.4835,0.717
0.11,-0.066,-0.021,0,10.6,-3.1,0,2018,5,17,21,10,0.219,0.4856,-0.1264,-0.4836,0.7171
0.08,0.01,0.034,0,26.1,-3,0,2018,5,17,21,10,0.241,0.4852,-0.1254,-0.481,0.7192
0.093,0.038,0.001,-0.1,30.4,-0.9,0,2018,5,17,21,10,0.26,0.4855,-0.1234,-0.4769,0.7221
0.09,-0.017,-0.008,1.6,35.6,2,0,2018,5,17,21,10,0.278,0.4858,-0.1211,-0.4727,0.725
0.037,-0.07,0.032,1.9,49.4,2.8,0,2018,5,17,21,10,0.3,0.4865,-0.1174,-0.4676,0.7285
0.013,0.015,-0.016,4.5,43.9,0.4,0,2018,5,17,21,10,0.328,0.4872,-0.1127,-0.4619,0.7324
0,-0.001,-0.039,6.7,30,-1.1,0,2018,5,17,21,10,0.342,0.4872,-0.1089,-0.4581,0.7353
-0.029,-0.026,-0.033,5.8,33.5,-1,0,2018,5,17,21,10,0.36,0.487,-0.1053,-0.4554,0.7377
-0.027,-0.034,-0.037,3.2,46.8,0.9,0,2018,5,17,21,10,0.38,0.4872,-0.1011,-0.4513,0.7406
-0.046,-0.015,0.006,0.3,54.6,1.4,0,2018,5,17,21,10,0.4,0.488,-0.0963,-0.4452,0.7444
-0.063,-0.003,0.035,-3.8,55.8,-0.4,0,2018,5,17,21,10,0.42,0.4894,-0.0912,-0.4379,0.7485
-0.055,0.005,0.011,-5,47.2,-3.5,0,2018,5,17,21,10,0.438,0.4905,-0.0871,-0.4306,0.7525
-0.039,0.02,-0.024,-3.5,40.7,-4.9,0,2018,5,17,21,10,0.461,0.491,-0.0838,-0.4247,0.7559
-0.021,0.067,-0.012,-2.9,30.8,-7.5,0,2018,5,17,21,10,0.481,0.4911,-0.0811,-0.4195,0.759
-0.027,0.067,-0.003,-1.8,13.8,-8.2,1023,2018,5,17,21,10,0.518,0.4907,-0.0797,-0.4161,0.7613
0.014,0.058,-0.016,-2,2.3,-8.5,1023,2018,5,17,21,10,0.542,0.4901,-0.0796,-0.4146,0.7625
0.038,0.11,0.033,-2.5,0.8,-6.5,1023,2018,5,17,21,10,0.545,0.4892,-0.0804,-0.4138,0.7634
0.034,0.191,0.1,-6.3,-7.2,0.2,1023,2018,5,17,21,10,0.562,0.4892,-0.0813,-0.4134,0.7636
0.085,0.183,0.046,-7.8,-28.6,8.6,1023,2018,5,17,21,10,0.583,0.4901,-0.0837,-0.4151,0.7618
0.038,0.154,0.028,-7.5,-48.7,17.2,1023,2018,5,17,21,10,0.618,0.492,-0.0869,-0.4192,0.7579
0.015,0.091,0.038,-6.4,-63.7,21.2,1023,2018,5,17,21,10,0.64,0.4946,-0.0909,-0.4254,0.7523
0.002,-0.047,-0.005,-5.1,-64.7,19.8,1023,2018,5,17,21,10,0.642,0.4968,-0.0958,-0.4336,0.7455
-0.02,-0.132,-0.066,-2.6,-49.3,14.5,0,2018,5,17,21,10,0.661,0.4981,-0.1003,-0.4416,0.7394
-0.022,-0.202,-0.126,0.9,-41.9,4.2,0,2018,5,17,21,10,0.684,0.4984,-0.1039,-0.4479,0.7349
-0.005,-0.273,-0.15,3.9,-9.2,-2.6,0,2018,5,17,21,10,0.702,0.4976,-0.1059,-0.4517,0.7327
0.037,-0.186,-0.157,3.7,29.8,-7.4,0,2018,5,17,21,10,0.725,0.4968,-0.1047,-0.4505,0.7342
0.05,-0.082,-0.074,5.9,39.7,-13.1,0,2018,5,17,21,10,0.744,0.4956,-0.1018,-0.4462,0.7381
0.095,-0.113,-0.049,8.2,26,-17.8,0,2018,5,17,21,10,0.763,0.4934,-0.0995,-0.4424,0.7421
0.136,-0.021,-0.034,9,9.7,-18.4,0,2018,5,17,21,10,0.799,0.4906,-0.0983,-0.4405,0.7452
0.118,0.028,0.016,6,4.1,-16.8,0,2018,5,17,21,10,0.822,0.4877,-0.0987,-0.4398,0.7476
0.103,-0.026,-0.041,9.9,-8,-18.8,0,2018,5,17,21,10,0.826,0.4845,-0.1001,-0.4396,0.7495
0.095,-0.223,-0.154,18.6,-20.3,-20.4,0,2018,5,17,21,10,0.843,0.4804,-0.1011,-0.4427,0.7502
0.028,-0.147,-0.112,20.4,-8.4,-14.6,0,2018,5,17,21,10,0.867,0.4763,-0.1012,-0.4462,0.7508
0.003,0.014,0.001,17.2,17.2,-3.8,0,2018,5,17,21,10,0.884,0.4733,-0.0996,-0.4475,0.7521
-0.077,-0.244,0.005,2.5,133.6,8.9,0,2018,5,17,21,10,0.9,0.4743,-0.0921,-0.4393,0.7572
0.037,0.342,-0.085,7.3,140.9,5.4,0,2018,5,17,21,10,0.924,0.4772,-0.0783,-0.4197,0.768
-0.02,-0.047,-0.094,14.6,126.8,10.1,0,2018,5,17,21,10,0.959,0.4789,-0.0659,-0.4043,0.7763
-0.116,-0.19,-0.229,9.4,250.2,11.8,0,2018,5,17,21,10,0.983,0.4817,-0.048,-0.3796,0.7883
-0.085,0.274,-0.247,13.8,287.4,6.3,0,2018,5,17,21,10,0.987,0.4839,-0.022,-0.3411,0.8055
-0.188,0.289,-0.104,17.7,231.3,5.1,0,2018,5,17,21,10,1.004,0.4843,0.0024,-0.3053,0.8198
-0.185,0.134,-0.058,14.6,189.4,0.9,0,2018,5,17,21,10,1.026,0.4836,0.0221,-0.2769,0.8299
-0.19,0.188,-0.012,6,155,-4.1,0,2018,5,17,21,10,1.063,0.482,0.0378,-0.2525,0.838
-0.158,0.236,-0.029,3.7,112.5,-6.6,0,2018,5,17,21,10,1.085,0.4801,0.0493,-0.233,0.8442
-0.189,0.311,0.039,2,48.9,-4.8,1023,2018,5,17,21,10,1.088,0.4785,0.0561,-0.2212,0.8478
-0.16,0.202,-0.022,-2.5,-13.8,3.1,1023,2018,5,17,21,10,1.104,0.4784,0.057,-0.2189,0.8484
-0.036,0.101,-0.098,-0.6,-42,7.8,1023,2018,5,17,21,10,1.123,0.4798,0.0543,-0.223,0.8467
-0.052,0.2,-0.009,4,-79.9,12.1,1023,2018,5,17,21,10,1.145,0.4821,0.0499,-0.2313,0.8435
-0.037,0.104,-0.016,7.6,-120.3,12.3,1023,2018,5,17,21,10,1.165,0.4847,0.0424,-0.2464,0.8381
-0.077,-0.002,0.015,5.7,-132.8,12.8,1023,2018,5,17,21,10,1.186,0.4873,0.0338,-0.2655,0.8311
-0.052,-0.161,0.005,1.4,-124.5,9,1023,2018,5,17,21,10,1.204,0.4894,0.0235,-0.2853,0.8236
-0.029,-0.071,0.032,-1.1,-104.9,5.8,1023,2018,5,17,21,10,1.228,0.4908,0.0137,-0.3021,0.817
0.008,0.03,-0.067,1.7,-111.8,2.1,1023,2018,5,17,21,10,1.264,0.4916,0.005,-0.3172,0.8109
0.001,0.027,-0.011,0.9,-128.5,1.4,1023,2018,5,17,21,10,1.288,0.4918,-0.0052,-0.3342,0.8039
0.023,-0.131,-0.06,2.4,-117.8,0,0,2018,5,17,21,10,1.292,0.4914,-0.0164,-0.3525,0.7962
-0.016,-0.079,-0.05,2,-88.9,-1,0,2018,5,17,21,10,1.309,0.4905,-0.0252,-0.3675,0.7896
0.019,-0.041,0.003,0.8,-75.3,-3.4,0,2018,5,17,21,10,1.329,0.4896,-0.0324,-0.3792,0.7844
0.043,0.026,0.011,2.9,-72,-5.2,0,2018,5,17,21,10,1.363,0.4884,-0.0389,-0.3891,0.78
0.018,-0.012,-0.038,3.4,-69.5,-5.2,0,2018,5,17,21,10,1.363,0.4868,-0.045,-0.3991,0.7756
0.015,-0.059,-0.052,2.9,-42,-5.4,0,2018,5,17,21,10,1.387,0.4851,-0.0501,-0.4077,0.7719
0.02,0.005,-0.014,2.9,-18,-8.1,0,2018,5,17,21,10,1.404,0.4836,-0.053,-0.4118,0.7704
0.024,-0.019,0.045,2,-8.1,-10.6,0,2018,5,17,21,10,1.427,0.482,-0.0545,-0.4136,0.7704
0.042,-0.037,0.046,1.6,-2.8,-10.5,0,2018,5,17,21,10,1.464,0.4802,-0.0556,-0.4142,0.7711
0.069,0.153,-0.038,7.9,-22.5,-7.2,0,2018,5,17,21,10,1.486,0.4787,-0.0565,-0.4151,0.7715
0.03,0.008,-0.047,9.6,-40,-4.4,0,2018,5,17,21,10,1.491,0.4769,-0.0586,-0.4204,0.7696
0.031,0,-0.053,8.9,-33.4,-1.8,0,2018,5,17,21,10,1.508,0.4751,-0.061,-0.4265,0.7671
0.01,-0.03,-0.015,8.5,-19.4,-1.1,0,2018,5,17,21,10,1.532,0.4738,-0.0624,-0.4311,0.7652
-0.012,-0.056,0.011,6.8,-2.2,-2,0,2018,5,17,21,10,1.548,0.4728,-0.0625,-0.4334,0.7646
