ax,ay,az,dpitch,droll,dyaw,heart,time_1,time_2,time_3,time_4,time_5,time_6,w,x,y,z
0.044,0.184,-0.185,-42.8,-76.9,-33.9,0,2018,5,17,21,14,12.352,-0.74,-0.0634,0.5486,-0.3839
0.011,0.203,-0.203,-41.2,-68.4,-26.9,0,2018,5,17,21,14,12.374,-0.7427,-0.0482,0.5483,-0.3813
0.002,0.222,-0.211,-40.8,-57.8,-18.1,0,2018,5,17,21,14,12.384,-0.7455,-0.0352,0.5473,-0.3784
-0.003,0.248,-0.222,-40.1,-48.7,-8.4,0,2018,5,17,21,14,12.421,-0.7488,-0.0244,0.5456,-0.3753
-0.017,0.263,-0.222,-39.2,-41.5,2.2,0,2018,5,17,21,14,12.444,-0.7526,-0.0157,0.5433,-0.3716
-0.034,0.284,-0.216,-37.8,-39.2,13.5,0,2018,5,17,21,14,12.446,-0.7568,-0.0087,0.5407,-0.3668
-0.04,0.296,-0.209,-36.5,-41.6,25.6,0,2018,5,17,21,14,12.483,-0.7616,-0.0029,0.5383,-0.3604
-0.062,0.311,-0.194,-35,-47.7,37.4,0,2018,5,17,21,14,12.483,-0.767,0.0022,0.5363,-0.352
-0.171,0.311,-0.178,-33.4,-55.3,50.9,0,2018,5,17,21,14,12.505,-0.7728,0.0071,0.5349,-0.3412
-0.265,0.293,-0.184,-32.8,-63.6,67.1,0,2018,5,17,21,14,12.542,-0.7793,0.0115,0.534,-0.3276
-0.308,0.274,-0.204,-30.9,-75.9,81.5,0,2018,5,17,21,14,12.542,-0.7862,0.0159,0.5337,-0.3108
-0.319,0.259,-0.214,-27.3,-92,93.6,0,2018,5,17,21,14,12.564,-0.7933,0.0208,0.5344,-0.2907
-0.289,0.236,-0.21,-22.1,-110.9,101.7,0,2018,5,17,21,14,12.599,-0.8,0.027,0.5363,-0.2674
-0.246,0.193,-0.203,-15.4,-129,105.2,0,2018,5,17,21,14,12.622,-0.8057,0.035,0.5396,-0.2413
-0.191,0.148,-0.162,-8.9,-139,102.9,0,2018,5,17,21,14,12.625,-0.8101,0.0445,0.544,-0.2138
-0.111,0.129,-0.12,-2.9,-141.2,95.3,0,2018,5,17,21,14,12.662,-0.8129,0.0553,0.5489,-0.1863
-0.05,0.109,-0.074,2.6,-133.1,87.3,0,2018,5,17,21,14,12.683,-0.8142,0.0661,0.5541,-0.16
-0.006,0.082,-0.01,4.5,-115,80.8,0,2018,5,17,21,14,12.686,-0.8143,0.0747,0.5592,-0.1355
0.033,0.053,-0.002,3,-95.3,76.8,0,2018,5,17,21,14,12.705,-0.8143,0.0813,0.5631,-0.1139
0.051,0.024,-0.026,-0.5,-78.7,76.2,0,2018,5,17,21,14,12.728,-0.8144,0.0858,0.566,-0.0944
0.058,0.019,-0.069,-4.3,-69.1,76.9,0,2018,5,17,21,14,12.761,-0.8145,0.0886,0.5681,-0.0762
0.055,0.022,-0.083,-7,-69.7,79.7,1023,2018,5,17,21,14,12.761,-0.8146,0.0907,0.5698,-0.0581
0.062,0.027,-0.062,-8.9,-79.8,83.4,1023,2018,5,17,21,14,12.785,-0.8146,0.0932,0.571,-0.0389
0.072,0.018,-0.057,-7.9,-97.1,87.2,1023,2018,5,17,21,14,12.821,-0.8143,0.0972,0.5719,-0.0177
0.071,-0.019,-0.044,-6.3,-120.1,88.6,1023,2018,5,17,21,14,12.844,-0.813,0.1041,0.5727,0.0056
0.069,-0.047,-0.047,-3.3,-145.5,87.9,1023,2018,5,17,21,14,12.847,-0.8106,0.1146,0.5733,0.0313
0.064,-0.09,-0.063,0.7,-165,85.3,1023,2018,5,17,21,14,12.882,-0.8065,0.1287,0.5739,0.0588
0.048,-0.136,-0.062,4.6,-172.5,80.6,0,2018,5,17,21,14,12.903,-0.801,0.1448,0.5742,0.0871
0.046,-0.17,-0.05,7.7,-167.3,75.4,0,2018,5,17,21,14,12.907,-0.7944,0.1609,0.5741,0.1149
0.031,-0.2,-0.033,9.7,-153.6,70.6,0,2018,5,17,21,14,12.943,-0.7872,0.1759,0.5739,0.1409
0.034,-0.248,-0.017,10.4,-135.8,65.6,0,2018,5,17,21,14,12.966,-0.7797,0.1892,0.5736,0.1643
0.046,-0.26,-0.003,12.2,-117.7,60,0,2018,5,17,21,14,12.968,-0.7724,0.2003,0.5734,0.1851
0.035,-0.253,0.013,14.9,-104.2,54.2,0,2018,5,17,21,14,13.004,-0.7652,0.2099,0.5736,0.2033
0.025,-0.243,0.046,17.9,-94.5,47.7,0,2018,5,17,21,14,13.004,-0.7579,0.2185,0.574,0.2193
0.037,-0.227,0.071,20.9,-88.6,40.1,0,2018,5,17,21,14,13.028,-0.7507,0.2269,0.5747,0.2335
0.032,-0.193,0.1,24.1,-91,31.4,0,2018,5,17,21,14,13.063,-0.7433,0.2359,0.5753,0.2462
0.046,-0.186,0.118,28.2,-99.2,23.3,0,2018,5,17,21,14,13.085,-0.7355,0.2467,0.5757,0.2582
-0.01,-0.218,0.154,32.4,-100.3,17.6,0,2018,5,17,21,14,13.089,-0.727,0.2589,0.5758,0.2695
-0.113,-0.259,0.263,32.4,-86.5,14.8,0,2018,5,17,21,14,13.125,-0.7186,0.2709,0.5762,0.2795
-0.198,-0.282,0.365,25.6,-60.5,14.2,0,2018,5,17,21,14,13.146,-0.7114,0.2801,0.5769,0.2873
-0.266,-0.273,0.439,13.1,-36.7,13,0,2018,5,17,21,14,13.149,-0.7064,0.2855,0.5776,0.2927
-0.194,-0.181,0.461,-1.8,-39.3,6.9,0,2018,5,17,21,14,13.185,-0.7035,0.2891,0.577,0.2973
-0.07,-0.118,0.448,-14.6,-64.3,-4.6,0,2018,5,17,21,14,13.205,-0.7017,0.2948,0.5733,0.3031
0.027,-0.097,0.41,-25.6,-83.6,-23.6,0,2018,5,17,21,14,13.211,-0.7005,0.3044,0.5659,0.3101
0.034,-0.049,0.358,-36,-80.6,-43.1,0,2018,5,17,21,14,13.228,-0.7009,0.3162,0.5557,0.3157
-0.029,-0.081,0.322,-46.1,-70.6,-54,0,2018,5,17,21,14,13.25,-0.7033,0.328,0.5436,0.3194
-0.091,-0.053,0.259,-55.7,-51.9,-61.8,0,2018,5,17,21,14,13.286,-0.7079,0.3381,0.5305,0.3208
-0.119,0.017,0.246,-62.4,-47,-60.2,0,2018,5,17,21,14,13.307,-0.7139,0.3464,0.5168,0.321
-0.106,0.05,0.212,-69.2,-60.7,-55.6,1023,2018,5,17,21,14,13.309,-0.7198,0.3545,0.5021,0.3226
-0.046,0.046,0.105,-74.4,-75.5,-55.5,1023,2018,5,17,21,14,13.344,-0.7249,0.3635,0.4854,0.3264
0.024,0.11,0.01,-76.4,-77.2,-54.3,1023,2018,5,17,21,14,13.366,-0.7296,0.3728,0.4678,0.3312
0.056,0.105,-0.065,-74.5,-76.4,-49,1023,2018,5,17,21,14,13.371,-0.7332,0.3818,0.4509,0.3364
0.061,0.102,-0.109,-70.6,-72.7,-44.5,1023,2018,5,17,21,14,13.406,-0.736,0.3905,0.4349,0.3413
0.063,0.124,-0.137,-66,-66.8,-39.4,1023,2018,5,17,21,14,13.429,-0.7385,0.3985,0.4195,0.346
0.046,0.151,-0.152,-59.5,-57.6,-33.6,1023,2018,5,17,21,14,13.432,-0.7409,0.4053,0.405,0.3502
0.046,0.188,-0.163,-52.8,-50,-25.5,1023,2018,5,17,21,14,13.466,-0.7428,0.4108,0.3924,0.354
0.055,0.202,-0.18,-45.1,-46.7,-16.8,0,2018,5,17,21,14,13.487,-0.7439,0.4155,0.3816,0.3581
0.059,0.203,-0.203,-36.1,-44.5,-8.7,0,2018,5,17,21,14,13.494,-0.744,0.4197,0.3725,0.3624
0.06,0.215,-0.211,-26.5,-41.2,-2.1,0,2018,5,17,21,14,13.509,-0.7432,0.4236,0.3654,0.3668
0.032,0.213,-0.202,-16.7,-34.7,3.9,0,2018,5,17,21,14,13.532,-0.7416,0.4271,0.3602,0.3709
0.005,0.207,-0.177,-8.1,-23.7,9.5,0,2018,5,17,21,14,13.549,-0.7397,0.4297,0.3572,0.3746
0.001,0.198,-0.146,-1.7,-8.3,15.3,0,2018,5,17,21,14,13.571,-0.738,0.4307,0.3566,0.3775
0.011,0.203,-0.115,2.4,6.9,20.6,0,2018,5,17,21,14,13.608,-0.7368,0.4296,0.358,0.3798
0,0.216,-0.088,4.3,19.1,26.2,0,2018,5,17,21,14,13.632,-0.736,0.4266,0.3612,0.3817
-0.013,0.23,-0.068,4.1,26.3,32.5,0,2018,5,17,21,14,13.637,-0.7355,0.422,0.3655,0.3837
-0.046,0.241,-0.07,2.9,25.5,40.1,0,2018,5,17,21,14,13.653,-0.7348,0.4165,0.3704,0.3864
-0.151,0.253,-0.1,4.2,14.1,50.2,0,2018,5,17,21,14,13.69,-0.733,0.4112,0.3755,0.3906
-0.226,0.222,-0.105,6.5,-0.3,62.2,0,2018,5,17,21,14,13.713,-0.7292,0.407,0.3806,0.397
-0.26,0.197,-0.052,8.2,-13.9,73.1,0,2018,5,17,21,14,13.718,-0.7234,0.4039,0.3859,0.4056
-0.231,0.188,-0.013,7.3,-27.3,81.4,0,2018,5,17,21,14,13.731,-0.7158,0.4018,0.3909,0.4162
-0.152,0.177,0.004,5,-46.1,84.7,0,2018,5,17,21,14,13.75,-0.7066,0.4011,0.3948,0.4287
-0.069,0.157,-0.017,3.2,-71.2,82.3,0,2018,5,17,21,14,13.773,-0.6958,0.4029,0.3967,0.4427
-0.043,0.137,-0.041,3.8,-95.7,76.3,0,2018,5,17,21,14,13.791,-0.6833,0.4078,0.396,0.4579
-0.076,0.09,-0.036,3.8,-109.7,68.6,0,2018,5,17,21,14,13.814,-0.6694,0.4153,0.3937,0.4735
-0.114,0.038,-0.015,2.1,-110.2,60.4,0,2018,5,17,21,14,13.832,-0.6552,0.4239,0.3901,0.4886
-0.129,-0.004,0,-0.4,-99.2,53.1,0,2018,5,17,21,14,13.853,-0.6421,0.4321,0.3858,0.502
-0.083,-0.016,-0.005,-3.1,-84.9,47,0,2018,5,17,21,14,13.89,-0.6306,0.439,0.3814,0.5138
-0.004,0.005,-0.015,-4.7,-75.6,41.7,1023,2018,5,17,21,14,13.914,-0.6207,0.4445,0.3773,0.5241
0.078,0.037,-0.022,-5.2,-77.4,37,1023,2018,5,17,21,14,13.919,-0.6114,0.4495,0.373,0.5337
0.141,0.055,-0.043,-4.6,-88.1,33.3,1023,2018,5,17,21,14,13.932,-0.6018,0.4553,0.3677,0.5433
0.181,0.057,-0.05,-2.9,-101.8,31.1,1023,2018,5,17,21,14,13.951,-0.5912,0.4626,0.3609,0.5532
0.202,0.04,-0.052,-0.2,-113,30.9,1023,2018,5,17,21,14,13.975,-0.5795,0.4713,0.3527,0.5634
0.191,0.015,-0.044,2.2,-116.6,32,1023,2018,5,17,21,14,13.992,-0.5668,0.481,0.3439,0.5736
0.169,-0.006,-0.044,5.6,-112.3,35.1,1023,2018,5,17,21,14,14.014,-0.5536,0.4907,0.3352,0.5833
0.123,-0.029,-0.036,9.3,-100.5,40.6,1023,2018,5,17,21,14,14.032,-0.5402,0.4997,0.3279,0.5922
0.08,-0.054,-0.016,12.8,-83.7,46.8,0,2018,5,17,21,14,14.054,-0.525,0.5084,0.3237,0.6008
0.046,-0.055,0.01,15.8,-66.7,52.4,0,2018,5,17,21,14,14.073,-0.5095,0.5156,0.3223,0.6087
0.02,-0.051,0.043,19.3,-55.6,57.8,0,2018,5,17,21,14,14.095,-0.4943,0.5212,0.323,0.616
0.007,-0.059,0.075,21.8,-50.3,60.1,0,2018,5,17,21,14,14.133,-0.4794,0.5258,0.3249,0.6228
0.024,-0.036,0.089,25.4,-54.2,58.8,0,2018,5,17,21,14,14.157,-0.4646,0.5302,0.327,0.6292
0.03,-0.053,0.131,29.2,-64.6,55,0,2018,5,17,21,14,14.162,-0.449,0.5355,0.328,0.6355
0.034,-0.077,0.187,31.8,-72,48.9,0,2018,5,17,21,14,14.176,-0.4321,0.5424,0.3285,0.6411
0.023,-0.09,0.235,31.7,-73.7,42.7,0,2018,5,17,21,14,14.196,-0.4154,0.5499,0.328,0.6459
-0.024,-0.112,0.269,29.6,-72.7,37,0,2018,5,17,21,14,14.214,-0.3993,0.5575,0.3266,0.6503
-0.138,-0.126,0.312,27.1,-72.2,33.6,0,2018,5,17,21,14,14.233,-0.3839,0.5648,0.3246,0.6543
-0.303,-0.161,0.398,20.7,-61.1,32.5,0,2018,5,17,21,14,14.271,-0.3694,0.5711,0.3227,0.6581
-0.367,-0.197,0.436,8.8,-43.2,30.8,0,2018,5,17,21,14,14.294,-0.3572,0.5753,0.3216,0.6617
-0.315,-0.187,0.396,-3.9,-26.4,27.3,0,2018,5,17,21,14,14.299,-0.3479,0.5768,0.3215,0.6653
-0.19,-0.152,0.347,-14.4,-28.3,18.8,0,2018,5,17,21,14,14.317,-0.3405,0.5769,0.3212,0.6693
-0.01,-0.101,0.306,-23.4,-41.1,3.9,0,2018,5,17,21,14,14.354,-0.3344,0.5769,0.3178,0.6739
0.14,-0.064,0.243,-31.1,-53.1,-15.1,0,2018,5,17,21,14,14.376,-0.3294,0.5775,0.3107,0.6791
0.173,-0.069,0.179,-36.7,-51.1,-32.9,0,2018,5,17,21,14,14.381,-0.3265,0.5787,0.3006,0.6841
0.102,-0.07,0.167,-40.4,-41.6,-42.4,0,2018,5,17,21,14,14.393,-0.3263,0.5794,0.2897,0.6883
0.019,-0.072,0.212,-45.9,-38.9,-44.1,1023,2018,5,17,21,14,14.431,-0.3274,0.5794,0.2787,0.6923
-0.087,-0.072,0.213,-52.8,-46.6,-45.1,1023,2018,5,17,21,14,14.454,-0.3288,0.5786,0.267,0.6969
-0.142,-0.02,0.116,-59.5,-62.1,-46.4,1023,2018,5,17,21,14,14.458,-0.3303,0.5769,0.2519,0.7032
-0.13,0.006,0.011,-64.2,-77.2,-45.9,1023,2018,5,17,21,14,14.479,-0.33,0.5756,0.235,0.7102
-0.055,0.01,-0.068,-67,-87.6,-46.2,1023,2018,5,17,21,14,14.496,-0.3283,0.5747,0.2165,0.7176
0.019,0.015,-0.13,-65.8,-97,-49,1023,2018,5,17,21,14,14.518,-0.3257,0.5745,0.1964,0.7247
0.048,0.017,-0.158,-60.5,-102.1,-54.1,1023,2018,5,17,21,14,14.538,-0.3225,0.5752,0.1752,0.7309
0.046,0.057,-0.157,-53.6,-100.5,-59.1,1023,2018,5,17,21,14,14.56,-0.3192,0.5764,0.1537,0.7362
0.054,0.095,-0.151,-46.8,-93.9,-61.5,1023,2018,5,17,21,14,14.58,-0.3165,0.5774,0.133,0.7407
0.048,0.122,-0.145,-39.8,-83.9,-60.2,1023,2018,5,17,21,14,14.599,-0.3146,0.5784,0.1135,0.7439
0.055,0.122,-0.164,-33.4,-71.1,-56.1,0,2018,5,17,21,14,14.621,-0.3131,0.5794,0.0962,0.7462
0.088,0.131,-0.19,-26.8,-56.4,-50.1,0,2018,5,17,21,14,14.639,-0.3124,0.5802,0.0815,0.7477
0.11,0.146,-0.22,-18.4,-39.1,-41.5,0,2018,5,17,21,14,14.662,-0.312,0.5808,0.07,0.7485
0.099,0.157,-0.211,-10,-16.6,-31.5,0,2018,5,17,21,14,14.679,-0.3123,0.5813,0.0625,0.7487
0.086,0.184,-0.191,-3.7,5.4,-21.8,0,2018,5,17,21,14,14.697,-0.3136,0.5813,0.0595,0.7484
0.048,0.207,-0.152,2,24,-12.6,0,2018,5,17,21,14,14.719,-0.316,0.5809,0.0602,0.7476
0.036,0.228,-0.124,5.3,35.6,-4.6,0,2018,5,17,21,14,14.738,-0.3187,0.5801,0.0642,0.7468
0.038,0.257,-0.095,8,34.3,2.3,0,2018,5,17,21,14,14.761,-0.3208,0.5793,0.0697,0.746
0.044,0.267,-0.072,10.3,22.5,9.9,0,2018,5,17,21,14,14.779,-0.3212,0.5792,0.0752,0.7454
0.043,0.255,-0.056,12.8,7.8,17.9,0,2018,5,17,21,14,14.802,-0.3192,0.58,0.0797,0.7451
-0.003,0.211,-0.04,14.6,0,27.6,0,2018,5,17,21,14,14.82,-0.3149,0.5817,0.0836,0.7452
-0.148,0.152,-0.017,15.7,1.3,40,0,2018,5,17,21,14,14.843,-0.309,0.5834,0.0884,0.7457
-0.265,0.123,-0.011,17.3,2.4,53.7,0,2018,5,17,21,14,14.86,-0.3016,0.585,0.0947,0.7467
-0.338,0.081,0.019,19.6,4.3,66.8,0,2018,5,17,21,14,14.884,-0.2925,0.5865,0.1028,0.7481
-0.285,0.044,0.046,19.8,7.9,74.3,0,2018,5,17,21,14,14.899,-0.2824,0.5877,0.1121,0.7497
-0.144,0.012,0.072,19.2,8.5,72.8,0,2018,5,17,21,14,14.92,-0.2725,0.5884,0.1217,0.7514
-0.069,-0.022,0.077,20.1,3.5,63.4,0,2018,5,17,21,14,14.956,-0.2637,0.5889,0.1297,0.7528
-0.073,-0.048,0.085,22.8,-0.9,50,0,2018,5,17,21,14,14.956,-0.2557,0.5901,0.1356,0.7536
-0.089,-0.088,0.115,25.1,2.9,33.9,1023,2018,5,17,21,14,14.982,-0.2498,0.5919,0.1397,0.7533
-0.058,-0.108,0.161,26.8,19.3,17.7,1023,2018,5,17,21,14,15,-0.2474,0.5938,0.1434,0.752
0.027,-0.131,0.19,26.8,44.9,3.8,1023,2018,5,17,21,14,15.02,-0.2478,0.5958,0.1501,0.7489
0.115,-0.123,0.174,25.4,70.8,-7,1023,2018,5,17,21,14,15.056,-0.2525,0.597,0.159,0.7446
0.162,-0.113,0.141,23.3,90.2,-14.6,1023,2018,5,17,21,14,15.08,-0.2606,0.5971,0.1699,0.7392
0.165,-0.108,0.116,22.3,103.5,-18,1023,2018,5,17,21,14,15.085,-0.2711,0.5963,0.1821,0.7332
0.176,-0.103,0.126,20.3,111.7,-18.2,1023,2018,5,17,21,14,15.101,-0.2828,0.5948,0.1954,0.7266
0.183,-0.084,0.137,17.8,113.8,-16.2,1023,2018,5,17,21,14,15.124,-0.2949,0.5924,0.2093,0.7198
0.177,-0.094,0.113,16,110.4,-13.2,1023,2018,5,17,21,14,15.143,-0.3066,0.5895,0.223,0.7131
0.141,-0.131,0.084,16,104.1,-9.5,0,2018,5,17,21,14,15.165,-0.3172,0.5865,0.2364,0.7066
0.103,-0.18,0.065,16.8,101.8,-7.6,0,2018,5,17,21,14,15.182,-0.3268,0.5835,0.2494,0.7002
0.075,-0.243,0.052,16.1,110.2,-8.7,0,2018,5,17,21,14,15.2,-0.3365,0.5803,0.2628,0.6934
0.075,-0.263,0.026,15.1,126,-13.9,0,2018,5,17,21,14,15.222,-0.348,0.5761,0.2772,0.6856
0.05,-0.257,0.001,14.9,138.1,-21.2,0,2018,5,17,21,14,15.241,-0.3615,0.571,0.2925,0.6764
0.019,-0.249,0.001,14.6,141.7,-30,0,2018,5,17,21,14,15.264,-0.3764,0.5656,0.3078,0.6659
-0.038,-0.258,-0.021,15,142.8,-39,0,2018,5,17,21,14,15.282,-0.3923,0.5603,0.3221,0.6544
-0.135,-0.27,-0.019,15,148.2,-45.9,0,2018,5,17,21,14,15.306,-0.4092,0.5549,0.3359,0.6415
-0.19,-0.272,-0.011,12.6,156,-52.1,0,2018,5,17,21,14,15.342,-0.4273,0.549,0.3494,0.6275
-0.159,-0.263,-0.027,6.7,163.3,-58.1,0,2018,5,17,21,14,15.365,-0.4466,0.542,0.3626,0.6124
-0.093,-0.272,-0.075,-0.6,167.6,-62.7,0,2018,5,17,21,14,15.37,-0.467,0.5339,0.3751,0.5966
-0.057,-0.257,-0.122,-8.4,167.7,-64.6,0,2018,5,17,21,14,15.383,-0.4878,0.5246,0.3866,0.5806
-0.064,-0.26,-0.162,-18.5,166.2,-63,0,2018,5,17,21,14,15.402,-0.5089,0.5142,0.3968,0.5648
-0.108,-0.304,-0.188,-28,166,-58.7,0,2018,5,17,21,14,15.426,-0.5297,0.5021,0.406,0.5498
-0.137,-0.359,-0.292,-33.6,160.7,-56.1,0,2018,5,17,21,14,15.442,-0.55,0.489,0.414,0.5355
-0.152,-0.464,-0.406,-32.9,167.9,-51.9,0,2018,5,17,21,14,15.465,-0.5695,0.4752,0.4219,0.5212
-0.177,-0.488,-0.428,-33.6,178,-50.6,0,2018,5,17,21,14,15.483,-0.5891,0.4598,0.4306,0.5059
-0.144,-0.433,-0.457,-34.8,172,-53.3,0,2018,5,17,21,14,15.505,-0.6086,0.4436,0.439,0.4898
-0.086,-0.383,-0.503,-30.9,139.7,-60.8,0,2018,5,17,21,14,15.523,-0.6263,0.4298,0.4449,0.4742
-0.044,-0.459,-0.549,-20.9,106.5,-71.3,0,2018,5,17,21,14,15.547,-0.641,0.4211,0.4477,0.4594
-0.027,-0.464,-0.545,-10.8,88.8,-82.6,1023,2018,5,17,21,14,15.566,-0.6537,0.4168,0.4486,0.4445
-0.036,-0.438,-0.517,-2.1,79.6,-92.4,1023,2018,5,17,21,14,15.588,-0.6655,0.4151,0.4485,0.4283
-0.046,-0.433,-0.52,5.4,72.1,-100.7,1023,2018,5,17,21,14,15.608,-0.6767,0.4153,0.4478,0.4109
-0.058,-0.432,-0.567,15.2,67.6,-105.9,1023,2018,5,17,21,14,15.624,-0.687,0.4172,0.4469,0.3924
-0.047,-0.418,-0.551,25.2,71.4,-108.5,1023,2018,5,17,21,14,15.661,-0.6963,0.4202,0.4467,0.3727
-0.045,-0.411,-0.517,32.9,85.1,-110.5,1023,2018,5,17,21,14,15.661,-0.7053,0.4227,0.4476,0.3511
-0.064,-0.376,-0.48,39,101.2,-112.9,1023,2018,5,17,21,14,15.685,-0.7149,0.4234,0.4499,0.3273
-0.091,-0.326,-0.464,43.7,110.1,-116.2,1023,2018,5,17,21,14,15.704,-0.7247,0.4227,0.4529,0.3014
-0.114,-0.28,-0.435,48.2,112.3,-120.8,1023,2018,5,17,21,14,15.726,-0.7344,0.4213,0.4559,0.274
-0.151,-0.224,-0.407,52.6,109.6,-124.6,1023,2018,5,17,21,14,15.748,-0.7431,0.4205,0.4588,0.2455
-0.167,-0.168,-0.368,56.1,104.1,-127.3,0,2018,5,17,21,14,15.766,-0.7508,0.4201,0.4612,0.2164
-0.162,-0.1,-0.337,59.3,93.8,-128.2,0,2018,5,17,21,14,15.789,-0.7572,0.4206,0.4631,0.1873
-0.173,-0.051,-0.307,62.9,80.2,-126.3,0,2018,5,17,21,14,15.807,-0.7618,0.4225,0.4646,0.1589
-0.163,-0.023,-0.282,66.2,71.8,-122,0,2018,5,17,21,14,15.83,-0.7644,0.4254,0.466,0.1313
-0.136,0.018,-0.272,68.2,67.7,-116.3,0,2018,5,17,21,14,15.848,-0.7659,0.4284,0.4676,0.1047
-0.106,0.06,-0.254,70.7,66.5,-108.3,0,2018,5,17,21,14,15.87,-0.7664,0.4308,0.4696,0.0789
-0.078,0.089,-0.243,72.8,70.4,-98.3,0,2018,5,17,21,14,15.886,-0.7664,0.432,0.4722,0.054
-0.069,0.124,-0.232,74.8,80.2,-85.7,0,2018,5,17,21,14,15.904,-0.766,0.4313,0.4757,0.0299
-0.083,0.149,-0.215,77.3,94.2,-69.8,0,2018,5,17,21,14,15.927,-0.7659,0.4274,0.4802,0.0065
-0.123,0.181,-0.192,79.8,109.2,-52.3,0,2018,5,17,21,14,15.945,-0.7661,0.4201,0.4861,-0.016
-0.129,0.172,-0.16,80.4,120.7,-35.8,0,2018,5,17,21,14,15.966,-0.7668,0.4092,0.493,-0.0376
-0.091,0.189,-0.145,81.2,125.5,-21,0,2018,5,17,21,14,16.004,-0.7678,0.3954,0.5006,-0.0578
-0.055,0.171,-0.119,80.2,123.9,-10.5,0,2018,5,17,21,14,16.027,-0.7684,0.3802,0.5088,-0.0764
-0.057,0.167,-0.111,77.3,115.8,-4.4,0,2018,5,17,21,14,16.032,-0.7686,0.3649,0.5169,-0.0933
-0.089,0.169,-0.113,75.5,101.6,0.8,0,2018,5,17,21,14,16.049,-0.768,0.3504,0.5249,-0.1082
-0.153,0.126,-0.107,73.6,88.2,6.1,0,2018,5,17,21,14,16.088,-0.7665,0.3371,0.533,-0.121
-0.166,0.077,-0.08,70.4,81.6,9.5,0,2018,5,17,21,14,16.088,-0.7644,0.3247,0.541,-0.132
-0.155,0.045,-0.051,66,79,11,0,2018,5,17,21,14,16.11,-0.7625,0.3116,0.5489,-0.1413
-0.124,0.008,-0.041,60.6,81.3,11.2,1023,2018,5,17,21,14,16.126,-0.7614,0.2969,0.5566,-0.1488
-0.103,-0.012,-0.044,54.5,87.1,8.8,1023,2018,5,17,21,14,16.149,-0.7606,0.2822,0.5631,-0.1568
-0.065,-0.011,-0.056,48.5,91.8,4.3,1023,2018,5,17,21,14,16.166,-0.7603,0.2675,0.5682,-0.1655
-0.035,0.004,-0.052,43.9,95.4,0.4,1023,2018,5,17,21,14,16.187,-0.7604,0.2526,0.5721,-0.1749
-0.023,0.007,-0.028,38.9,94.1,-3.1,1023,2018,5,17,21,14,16.226,-0.7606,0.238,0.5749,-0.1848
0.007,0.021,-0.017,34.1,85.3,-6.5,1023,2018,5,17,21,14,16.246,-0.761,0.2245,0.5767,-0.1943
0.024,0.033,-0.028,30.9,71.2,-9.1,1023,2018,5,17,21,14,16.253,-0.761,0.2128,0.5782,-0.2028
0.026,0.021,-0.04,28.6,56.9,-11.3,1023,2018,5,17,21,14,16.27,-0.7604,0.2035,0.5798,-0.2099
0.027,0.022,-0.045,26.8,45.9,-12.9,0,2018,5,17,21,14,16.294,-0.7593,0.196,0.5815,-0.216
0.021,0.017,-0.045,26.2,37.4,-12.5,0,2018,5,17,21,14,16.311,-0.7579,0.1901,0.5834,-0.2211
0.049,0.002,-0.054,26.7,32.8,-10.4,0,2018,5,17,21,14,16.334,-0.7562,0.1849,0.5856,-0.2254
0.067,-0.016,-0.043,27,34.5,-8.1,0,2018,5,17,21,14,16.353,-0.7545,0.1801,0.5879,-0.2294
0.068,-0.029,-0.035,26.7,38.8,-6.3,0,2018,5,17,21,14,16.369,-0.7529,0.1746,0.5899,-0.2335
0.091,-0.054,-0.036,25.8,46.3,-5.9,0,2018,5,17,21,14,16.407,-0.7515,0.1685,0.5916,-0.2382
0.122,-0.05,-0.048,25,52.9,-6.8,0,2018,5,17,21,14,16.43,-0.7503,0.1617,0.5927,-0.2437
0.088,-0.071,-0.029,24.2,63.4,-7.1,0,2018,5,17,21,14,16.435,-0.7492,0.1541,0.5934,-0.2503
0.041,-0.014,-0.018,23.8,68.3,-6,0,2018,5,17,21,14,16.452,-0.7485,0.1447,0.5936,-0.2575
0,-0.055,0.003,23.8,61,-6.1,0,2018,5,17,21,14,16.469,-0.7478,0.1354,0.5937,-0.264
-0.077,-0.127,-0.029,26.4,54.5,-9.5,0,2018,5,17,21,14,16.492,-0.7464,0.1274,0.5945,-0.2704
-0.211,-0.176,-0.038,30.1,50.1,-9.1,0,2018,5,17,21,14,16.511,-0.744,0.1204,0.5962,-0.2762
-0.316,-0.222,-0.001,32.5,54.6,-7.2,0,2018,5,17,21,14,16.533,-0.7413,0.113,0.5984,-0.282
-0.323,-0.258,0.016,32.1,64.3,-5.2,0,2018,5,17,21,14,16.554,-0.7387,0.1044,0.6001,-0.2884
-0.182,-0.254,0.015,30.3,71.2,-8.1,0,2018,5,17,21,14,16.572,-0.7363,0.0952,0.6009,-0.296
0.027,-0.246,-0.031,27.9,73.2,-19,0,2018,5,17,21,14,16.589,-0.7339,0.0868,0.6004,-0.3054
0.181,-0.194,-0.091,28.1,70.6,-33,0,2018,5,17,21,14,16.613,-0.7308,0.0798,0.5994,-0.3164
0.232,-0.184,-0.117,31,68.3,-42.7,0,2018,5,17,21,14,16.631,-0.7267,0.0741,0.5986,-0.3287
0.16,-0.231,-0.076,33.8,78,-47.7,0,2018,5,17,21,14,16.649,-0.7216,0.0684,0.5978,-0.3421
0.064,-0.26,-0.031,32.1,103.6,-48.3,1023,2018,5,17,21,14,16.671,-0.7162,0.0602,0.5959,-0.3579
-0.002,-0.267,-0.014,27.4,126.8,-47.6,1023,2018,5,17,21,14,16.709,-0.711,0.0484,0.5918,-0.3765
-0.023,-0.244,-0.034,21.4,138,-47.4,1023,2018,5,17,21,14,16.732,-0.7058,0.034,0.5857,-0.3969
-0.014,-0.208,-0.068,14.9,137.1,-50,1023,2018,5,17,21,14,16.737,-0.7001,0.0188,0.5783,-0.4181
-0.006,-0.151,-0.094,9.8,128.8,-54,1023,2018,5,17,21,14,16.755,-0.6938,0.0043,0.5704,-0.4394
0.01,-0.109,-0.079,4.9,115.7,-58.6,1023,2018,5,17,21,14,16.792,-0.6869,-0.0082,0.5627,-0.4597
0.029,-0.057,-0.073,0.5,99.3,-63.8,1023,2018,5,17,21,14,16.813,-0.6793,-0.0187,0.5564,-0.4779
0.04,-0.008,-0.093,-1.9,81.2,-68.1,1023,2018,5,17,21,14,16.82,-0.6715,-0.0265,0.5515,-0.4941
0.048,0.036,-0.114,-2.7,62.4,-70.2,1023,2018,5,17,21,14,16.834,-0.6635,-0.0317,0.5479,-0.5083
0.034,0.047,-0.126,-2,47.8,-68.8,0,2018,5,17,21,14,16.853,-0.6557,-0.0347,0.5458,-0.5204
0.024,0.064,-0.138,-1.4,39.1,-64.4,0,2018,5,17,21,14,16.871,-0.6482,-0.0361,0.5443,-0.5311
0.017,0.074,-0.152,-0.8,36.2,-56.9,0,2018,5,17,21,14,16.893,-0.6417,-0.0357,0.5417,-0.5416
0.024,0.082,-0.18,-0.5,42.3,-46.5,0,2018,5,17,21,14,16.931,-0.636,-0.0361,0.5388,-0.5511
0.042,0.11,-0.191,-0.4,54.7,-35.4,0,2018,5,17,21,14,16.954,-0.6313,-0.0385,0.5347,-0.5603
0.049,0.145,-0.203,-0.7,65.8,-23.6,0,2018,5,17,21,14,16.959,-0.6277,-0.043,0.5291,-0.5692
0.026,0.167,-0.203,-0.7,72.2,-12,0,2018,5,17,21,14,16.976,-0.6252,-0.0494,0.5224,-0.5776
-0.037,0.194,-0.18,-1.4,69.3,-0.8,0,2018,5,17,21,14,16.993,-0.6239,-0.0568,0.5152,-0.5848
-0.069,0.192,-0.158,-2,54.6,7.8,0,2018,5,17,21,14,17.016,-0.6236,-0.064,0.5087,-0.5899
-0.108,0.199,-0.163,-1.5,34.6,16.1,0,2018,5,17,21,14,17.053,-0.6244,-0.07,0.5039,-0.5926
-0.233,0.175,-0.165,1,9.1,27.2,0,2018,5,17,21,14,17.053,-0.6263,-0.0743,0.5014,-0.5921
-0.389,0.099,-0.169,4.6,-8.9,39.7,0,2018,5,17,21,14,17.077,-0.6296,-0.0774,0.5014,-0.5882
-0.311,0.069,-0.166,7.9,-18.3,47.3,0,2018,5,17,21,14,17.095,-0.6339,-0.0802,0.5028,-0.582
-0.179,0.06,-0.176,14.5,-29.7,49.8,0,2018,5,17,21,14,17.113,-0.6382,-0.0829,0.5057,-0.5743
-0.064,0.023,-0.164,22,-47.2,47.1,0,2018,5,17,21,14,17.135,-0.6421,-0.0845,0.5108,-0.5651
-0.017,-0.005,-0.149,30.2,-58.4,41.5,0,2018,5,17,21,14,17.154,-0.6449,-0.0849,0.5186,-0.5548
-0.046,-0.038,-0.104,36.8,-51.4,35.1,0,2018,5,17,21,14,17.176,-0.6459,-0.0864,0.529,-0.5434
-0.021,-0.082,-0.068,39.5,-25.8,27.8,0,2018,5,17,21,14,17.194,-0.6454,-0.0895,0.5381,-0.5345
-0.011,-0.134,-0.04,39.8,6.4,20.1,0,2018,5,17,21,14,17.216,-0.6436,-0.0945,0.5442,-0.5296
-0.001,-0.138,-0.032,39.5,36.9,12.9,1023,2018,5,17,21,14,17.255,-0.6407,-0.102,0.5469,-0.529
0.012,-0.118,-0.029,36.5,61.9,6.7,1023,2018,5,17,21,14,17.278,-0.6366,-0.112,0.5474,-0.5314
0.035,-0.082,-0.035,33.8,79.6,1.3,1023,2018,5,17,21,14,17.282,-0.6316,-0.1237,0.5456,-0.5366
0.053,-0.046,-0.017,32.8,86.2,-2.1,1023,2018,5,17,21,14,17.296,-0.6262,-0.1362,0.5423,-0.5432
0.062,-0.022,0.007,32.2,82.1,-3.6,1023,2018,5,17,21,14,17.332,-0.6206,-0.1488,0.5385,-0.5501
0.083,-0.007,0.021,31.5,67.6,-3.7,1023,2018,5,17,21,14,17.355,-0.6151,-0.1602,0.5353,-0.5561
0.093,-0.043,0.023,31.4,51,-2.8,1023,2018,5,17,21,14,17.357,-0.61,-0.1697,0.5336,-0.5606
0.114,-0.07,0.006,30.9,40.4,-2.3,1023,2018,5,17,21,14,17.384,-0.6051,-0.1775,0.5332,-0.5638
0.11,-0.124,-0.003,30.5,42.4,-2.7,0,2018,5,17,21,14,17.399,-0.6004,-0.1845,0.533,-0.5667
0.122,-0.142,-0.012,29.6,55.6,-5,0,2018,5,17,21,14,17.418,-0.5957,-0.1921,0.5314,-0.5707
0.126,-0.137,-0.015,28.8,71.6,-7,0,2018,5,17,21,14,17.454,-0.5902,-0.2011,0.5282,-0.5762
0.136,-0.127,-0.017,28.5,81.9,-10.4,0,2018,5,17,21,14,17.475,-0.5839,-0.2111,0.5236,-0.5832
0.136,-0.118,-0.035,30.1,86.1,-13.8,0,2018,5,17,21,14,17.478,-0.5768,-0.2216,0.5184,-0.5911
0.125,-0.136,-0.028,32.7,89.4,-17.6,0,2018,5,17,21,14,17.514,-0.5688,-0.2322,0.513,-0.5993
0.088,-0.153,-0.029,34.2,94.1,-22.6,0,2018,5,17,21,14,17.535,-0.56,-0.2429,0.5075,-0.6081
0.048,-0.173,-0.052,36.1,104.5,-26.3,0,2018,5,17,21,14,17.539,-0.55,-0.254,0.5013,-0.6177
-0.037,-0.156,-0.051,36.8,114.2,-28.2,0,2018,5,17,21,14,17.575,-0.5388,-0.266,0.4941,-0.6282
-0.147,-0.204,-0.048,37,123.8,-29,0,2018,5,17,21,14,17.596,-0.527,-0.2785,0.4857,-0.6393
-0.255,-0.211,-0.051,35.4,134.2,-29,0,2018,5,17,21,14,17.598,-0.5142,-0.2919,0.4758,-0.651
-0.291,-0.22,-0.058,32.9,143.3,-30.1,0,2018,5,17,21,14,17.636,-0.5007,-0.3057,0.4644,-0.6633
-0.256,-0.216,-0.061,28.4,152.3,-33.4,0,2018,5,17,21,14,17.657,-0.4865,-0.3196,0.4515,-0.6762
-0.152,-0.186,-0.09,20.9,158.3,-38.7,0,2018,5,17,21,14,17.66,-0.4714,-0.3327,0.437,-0.6899
-0.059,-0.159,-0.158,14.2,158.3,-45.2,0,2018,5,17,21,14,17.697,-0.4555,-0.3445,0.4216,-0.7042
-0.043,-0.168,-0.219,9.9,155.5,-49.1,0,2018,5,17,21,14,17.718,-0.4391,-0.3548,0.4059,-0.7186
-0.135,-0.193,-0.256,7.3,156.2,-47.9,0,2018,5,17,21,14,17.721,-0.4226,-0.3642,0.3899,-0.7325
-0.206,-0.225,-0.282,2.9,162.7,-44,0,2018,5,17,21,14,17.757,-0.406,-0.3734,0.3727,-0.7461
-0.151,-0.211,-0.338,-1.2,164.3,-42.7,0,2018,5,17,21,14,17.757,-0.3895,-0.3822,0.3539,-0.7595
-0.04,-0.194,-0.415,-2.1,154.8,-44.5,0,2018,5,17,21,14,17.779,-0.373,-0.39,0.3353,-0.7721
0.035,-0.168,-0.457,-1.3,134,-50.2,0,2018,5,17,21,14,17.817,-0.3567,-0.3963,0.3188,-0.7835
0.084,-0.152,-0.48,1.2,111.8,-58.1,0,2018,5,17,21,14,17.817,-0.3407,-0.4008,0.3058,-0.7935
0.075,-0.138,-0.476,3.6,96.5,-64.4,1023,2018,5,17,21,14,17.839,-0.3248,-0.4039,0.2959,-0.8023
0.061,-0.106,-0.472,6.3,84.5,-69.1,1023,2018,5,17,21,14,17.875,-0.3087,-0.4062,0.2882,-0.8102
0.052,-0.105,-0.488,9.6,74,-71.4,1023,2018,5,17,21,14,17.897,-0.2927,-0.408,0.2824,-0.8173
0.037,-0.095,-0.506,13.8,65.8,-71,1023,2018,5,17,21,14,17.899,-0.2769,-0.4097,0.2781,-0.8234
0.009,-0.081,-0.514,18.4,61,-68.8,1023,2018,5,17,21,14,17.937,-0.2615,-0.4116,0.2749,-0.8286
-0.021,-0.069,-0.507,22.1,62.4,-65.4,1023,2018,5,17,21,14,17.958,-0.2464,-0.414,0.2717,-0.833
-0.034,-0.051,-0.487,25.3,71.3,-60.6,1023,2018,5,17,21,14,17.96,-0.2312,-0.4173,0.2676,-0.837
-0.073,-0.02,-0.452,27.1,82.6,-55.6,1023,2018,5,17,21,14,17.997,-0.2158,-0.4215,0.2615,-0.8409
-0.124,0.015,-0.414,27.1,90.6,-50.9,0,2018,5,17,21,14,18.019,-0.2003,-0.4263,0.2536,-0.8448
-0.174,0.054,-0.374,26,86.3,-47.2,0,2018,5,17,21,14,18.021,-0.1852,-0.4312,0.2449,-0.8483
-0.201,0.096,-0.351,27.4,68.9,-44.3,0,2018,5,17,21,14,18.038,-0.1714,-0.4356,0.2376,-0.851
-0.211,0.113,-0.323,30.2,44.9,-39.7,0,2018,5,17,21,14,18.06,-0.1596,-0.4398,0.2332,-0.8524
-0.303,0.107,-0.285,35.7,21.6,-31.4,0,2018,5,17,21,14,18.096,-0.1505,-0.4442,0.232,-0.8521
-0.299,0.07,-0.249,40.9,8.5,-22.6,0,2018,5,17,21,14,18.118,-0.1439,-0.4492,0.2331,-0.8503
-0.175,0.054,-0.204,44.9,7.4,-17.4,0,2018,5,17,21,14,18.124,-0.1386,-0.4549,0.2346,-0.8477
-0.027,0.076,-0.193,49.8,9.3,-15.7,0,2018,5,17,21,14,18.14,-0.1336,-0.4615,0.2358,-0.8446
0.05,0.083,-0.188,54.8,12.3,-16.4,0,2018,5,17,21,14,18.164,-0.1282,-0.4688,0.2367,-0.8412
0,0.089,-0.182,60.9,15.5,-16.3,0,2018,5,17,21,14,18.182,-0.1222,-0.4769,0.2372,-0.8373
-0.083,0.047,-0.152,66.2,21.1,-14.9,0,2018,5,17,21,14,18.204,-0.1158,-0.486,0.2373,-0.833
-0.129,0.018,-0.113,69,37.6,-11.6,0,2018,5,17,21,14,18.224,-0.1086,-0.4958,0.2356,-0.8287
-0.158,-0.015,-0.073,69.5,63.1,-7.2,0,2018,5,17,21,14,18.248,-0.0998,-0.5069,0.2308,-0.8244
-0.145,-0.037,-0.055,66.2,89.2,-5.8,0,2018,5,17,21,14,18.26,-0.0887,-0.5188,0.2227,-0.8205
-0.087,0.015,-0.054,61.7,94,-9.3,0,2018,5,17,21,14,18.299,-0.0759,-0.53,0.2119,-0.8175
-0.07,-0.025,-0.007,57.6,76.9,-12,0,2018,5,17,21,14,18.321,-0.0638,-0.5401,0.2021,-0.8144
-0.057,-0.072,0.044,51.1,69,-20.7,0,2018,5,17,21,14,18.326,-0.0517,-0.5479,0.1956,-0.8116
-0.002,-0.03,0.079,46.6,59.2,-18.2,0,2018,5,17,21,14,18.345,-0.0403,-0.5544,0.1899,-0.8092
0.056,-0.029,-0.036,44.1,58.8,-16,1023,2018,5,17,21,14,18.382,-0.03,-0.5605,0.185,-0.8066
0.13,-0.087,-0.096,44.4,83.3,-10.1,1023,2018,5,17,21,14,18.382,-0.0192,-0.5668,0.1775,-0.8042
0.111,0.025,-0.089,43.7,96.9,-6,1023,2018,5,17,21,14,18.407,-0.007,-0.5732,0.166,-0.8023
0.067,-0.122,-0.072,41.2,108.7,-3.5,1023,2018,5,17,21,14,18.425,0.0053,-0.5794,0.1533,-0.8004
0.02,-0.042,-0.101,37,122.5,-1.5,1023,2018,5,17,21,14,18.449,0.0189,-0.5847,0.1373,-0.7992
-0.028,-0.106,-0.105,32.2,129.4,1.2,1023,2018,5,17,21,14,18.466,0.0329,-0.5893,0.1203,-0.7982
-0.053,-0.101,-0.101,25.3,136.8,1.4,1023,2018,5,17,21,14,18.489,0.0472,-0.5924,0.1012,-0.7978
-0.026,-0.073,-0.112,19.6,128.9,-0.4,1023,2018,5,17,21,14,18.503,0.0613,-0.5942,0.0823,-0.7977
0.028,-0.039,-0.131,15.7,108.5,-5.9,1023,2018,5,17,21,14,18.542,0.0743,-0.5952,0.0658,-0.7973
0.07,-0.017,-0.149,14.1,77.7,-13.2,1023,2018,5,17,21,14,18.542,0.0855,-0.5958,0.0537,-0.7966
0.08,-0.037,-0.17,16.7,50.7,-19.3,1023,2018,5,17,21,14,18.564,0.0944,-0.5968,0.0465,-0.7953
0.074,-0.065,-0.154,18.7,39.9,-23.7,1023,2018,5,17,21,14,18.603,0.1022,-0.5984,0.0424,-0.7934
0.066,-0.077,-0.137,19.3,39.8,-27.2,0,2018,5,17,21,14,18.626,0.1097,-0.6002,0.0392,-0.7912
0.044,-0.08,-0.146,19.1,41.1,-29.1,0,2018,5,17,21,14,18.63,0.118,-0.6018,0.0362,-0.7889
0.02,-0.067,-0.177,19.2,40.7,-29.4,0,2018,5,17,21,14,18.649,0.1266,-0.6034,0.0332,-0.7865
-0.012,-0.067,-0.196,21.3,39.3,-27,0,2018,5,17,21,14,18.666,0.1348,-0.6051,0.0303,-0.784
-0.075,-0.098,-0.186,24.8,44.4,-22.1,0,2018,5,17,21,14,18.69,0.1425,-0.6071,0.0267,-0.7812
-0.155,-0.109,-0.162,27.8,52.7,-15.7,0,2018,5,17,21,14,18.707,0.1501,-0.6094,0.0213,-0.7781
-0.192,-0.123,-0.142,30,59.7,-9.8,0,2018,5,17,21,14,18.729,0.1576,-0.6118,0.0141,-0.7749
-0.157,-0.117,-0.139,32.6,62.7,-7,0,2018,5,17,21,14,18.745,0.1653,-0.6143,0.0057,-0.7714
-0.075,-0.13,-0.124,35.1,63,-8.3,0,2018,5,17,21,14,18.765,0.1731,-0.617,-0.0028,-0.7676
0.044,-0.112,-0.118,36.6,62.4,-14.7,0,2018,5,17,21,14,18.788,0.1814,-0.6199,-0.0111,-0.7632
0.164,-0.099,-0.122,37.8,62.9,-24.5,0,2018,5,17,21,14,18.806,0.1907,-0.6229,-0.0185,-0.7584
0.15,-0.084,-0.143,40.1,65.7,-31.9,0,2018,5,17,21,14,18.829,0.2013,-0.6259,-0.0252,-0.7529
0.031,-0.111,-0.126,41.8,73.6,-33.6,0,2018,5,17,21,14,18.864,0.2131,-0.629,-0.0321,-0.7468
-0.111,-0.155,-0.091,40.6,92.6,-29.7,0,2018,5,17,21,14,18.887,0.226,-0.6314,-0.0409,-0.7405
-0.227,-0.19,-0.077,34.9,117.4,-23.7,0,2018,5,17,21,14,18.892,0.2408,-0.6322,-0.0531,-0.7344
-0.236,-0.183,-0.113,26.9,137.7,-19.1,0,2018,5,17,21,14,18.908,0.2574,-0.6308,-0.0686,-0.7287
-0.145,-0.137,-0.159,19.3,144.1,-19.3,0,2018,5,17,21,14,18.931,0.2751,-0.6273,-0.0856,-0.7234
-0.033,-0.089,-0.205,13.4,135.4,-23.1,0,2018,5,17,21,14,18.967,0.2928,-0.6227,-0.1018,-0.7183
0.033,-0.032,-0.215,11.2,116.2,-30.4,1023,2018,5,17,21,14,18.969,0.3096,-0.6181,-0.1153,-0.7132
0.063,0.012,-0.203,10.5,91.9,-37.6,1023,2018,5,17,21,14,18.985,0.3248,-0.6144,-0.1251,-0.7079
0.083,0.015,-0.177,11.9,65.8,-42.3,1023,2018,5,17,21,14,19.021,0.3379,-0.6122,-0.131,-0.7027
0.106,0.011,-0.174,13.8,44.8,-44.6,1023,2018,5,17,21,14,19.045,0.3487,-0.6115,-0.1337,-0.6974
0.134,0.012,-0.186,14.7,30.5,-44,1023,2018,5,17,21,14,19.049,0.3577,-0.6121,-0.1343,-0.6922
0.162,-0.005,-0.209,15.9,22.1,-40.7,1023,2018,5,17,21,14,19.071,0.3652,-0.6133,-0.1338,-0.6873
0.16,-0.028,-0.236,16.7,23.7,-34.6,1023,2018,5,17,21,14,19.091,0.3717,-0.6147,-0.1334,-0.6826
0.138,-0.049,-0.233,16.4,36.9,-26.8,1023,2018,5,17,21,14,19.109,0.3781,-0.6155,-0.1348,-0.6781
0.092,-0.051,-0.22,14.6,55.4,-18.4,1023,2018,5,17,21,14,19.133,0.3855,-0.6147,-0.139,-0.6738
0.056,-0.028,-0.203,12.9,69.1,-10.7,0,2018,5,17,21,14,19.15,0.3936,-0.6124,-0.1458,-0.6698
0.036,-0.015,-0.182,10.9,75.8,-4.1,0,2018,5,17,21,14,19.171,0.4019,-0.6089,-0.1544,-0.6662
0.004,0.009,-0.165,9,71.8,1.2,0,2018,5,17,21,14,19.207,0.4097,-0.6047,-0.1636,-0.663
-0.047,0.021,-0.139,7.3,58.2,5.3,0,2018,5,17,21,14,19.23,0.4159,-0.6009,-0.1721,-0.6604
-0.072,0.009,-0.12,3.5,39.3,7.2,0,2018,5,17,21,14,19.232,0.4201,-0.5979,-0.1787,-0.6587
-0.058,0.028,-0.129,-0.1,18.2,7.2,0,2018,5,17,21,14,19.247,0.4222,-0.596,-0.1827,-0.658
-0.066,0.042,-0.127,-2.9,-4.4,5.9,0,2018,5,17,21,14,19.285,0.4222,-0.5951,-0.184,-0.6584
-0.107,0.051,-0.124,-5.1,-25.4,5.1,0,2018,5,17,21,14,19.306,0.4201,-0.5956,-0.1824,-0.6598
-0.204,0.062,-0.127,-5.4,-42.4,7.1,0,2018,5,17,21,14,19.31,0.416,-0.5974,-0.1786,-0.6618
-0.266,0.045,-0.126,-4.8,-50.9,12.2,0,2018,5,17,21,14,19.347,0.41,-0.5999,-0.1737,-0.6646
-0.292,0.016,-0.108,-2.2,-46.1,20,0,2018,5,17,21,14,19.368,0.403,-0.6026,-0.1693,-0.6676
-0.258,-0.021,-0.065,-1.5,-28.1,28,0,2018,5,17,21,14,19.37,0.3963,-0.6043,-0.1674,-0.6705
-0.178,-0.022,-0.027,-3.5,-3.9,32.5,0,2018,5,17,21,14,19.404,0.3914,-0.6044,-0.1683,-0.673
-0.062,0.028,-0.011,-5.3,8.7,31.6,0,2018,5,17,21,14,19.425,0.3885,-0.6025,-0.1714,-0.6756
0.047,0.069,-0.028,-4.7,6.2,26.1,0,2018,5,17,21,14,19.432,0.3865,-0.6001,-0.1746,-0.6781
0.043,0.092,-0.022,-1.5,-5.8,19.1,0,2018,5,17,21,14,19.449,0.3843,-0.5986,-0.1765,-0.6802
-0.021,0.072,0.006,1.5,-16.7,12.3,0,2018,5,17,21,14,19.484,0.3815,-0.5985,-0.1765,-0.6819
-0.081,0.062,0.052,2.7,-17,7.6,0,2018,5,17,21,14,19.507,0.3787,-0.599,-0.1752,-0.6833
-0.103,0.042,0.06,2.7,-6.4,6.1,0,2018,5,17,21,14,19.512,0.3769,-0.5993,-0.1743,-0.6843
-0.059,0.034,0.061,1.1,14.5,5.8,0,2018,5,17,21,14,19.547,0.377,-0.5984,-0.1751,-0.6848
0.031,0.099,0.069,-1.5,23.4,4.3,1023,2018,5,17,21,14,19.571,0.379,-0.596,-0.1778,-0.685
0.1,0.155,0.081,-2.6,10.3,2.9,1023,2018,5,17,21,14,19.576,0.3806,-0.5945,-0.1802,-0.6849
0.14,0.164,0.106,-2.9,-14.6,1.2,1023,2018,5,17,21,14,19.592,0.3802,-0.5942,-0.1799,-0.6854
0.136,0.135,0.117,-3.6,-34,1.5,1023,2018,5,17,21,14,19.615,0.3774,-0.5955,-0.1768,-0.6866
0.127,0.092,0.088,-5.8,-42.7,2.6,1023,2018,5,17,21,14,19.632,0.3732,-0.5975,-0.1719,-0.6885
0.112,0.063,0.05,-9,-40.1,5.2,1023,2018,5,17,21,14,19.654,0.3689,-0.5986,-0.1664,-0.6912
0.1,0.05,0.033,-11.8,-28.9,9.1,1023,2018,5,17,21,14,19.673,0.3654,-0.5985,-0.1616,-0.6943
0.09,0.06,0.024,-14.4,-18.1,13.4,1023,2018,5,17,21,14,19.693,0.3627,-0.5972,-0.1585,-0.6975
0.077,0.06,0.017,-15.8,-15.4,17.1,1023,2018,5,17,21,14,19.716,0.3601,-0.5952,-0.1567,-0.701
0.082,0.059,0.011,-16.4,-21.9,19,0,2018,5,17,21,14,19.732,0.3569,-0.5931,-0.1548,-0.7048
0.079,0.04,-0.005,-15.6,-33.6,20.2,0,2018,5,17,21,14,19.751,0.3525,-0.5918,-0.1519,-0.7087
0.065,0.023,-0.018,-14.1,-45.1,20.4,0,2018,5,17,21,14,19.774,0.3467,-0.5915,-0.1475,-0.7127
0.05,-0.001,-0.016,-12.5,-52.2,20.4,0,2018,5,17,21,14,19.791,0.34,-0.592,-0.142,-0.7166
0.038,-0.018,-0.009,-11.1,-53.2,20.1,0,2018,5,17,21,14,19.815,0.3329,-0.593,-0.1358,-0.7203
0.032,-0.031,-0.004,-9.5,-50.9,20.2,0,2018,5,17,21,14,19.834,0.3259,-0.5941,-0.1298,-0.7237
0.026,-0.043,0.001,-8.6,-47.9,19.7,0,2018,5,17,21,14,19.856,0.3191,-0.5952,-0.1242,-0.7269
0.019,-0.052,0.017,-8.5,-44.3,17.8,0,2018,5,17,21,14,19.875,0.313,-0.5961,-0.1187,-0.7297
0.024,-0.042,0.011,-9,-43,14.8,0,2018,5,17,21,14,19.897,0.3074,-0.5967,-0.1133,-0.7324
0.023,-0.042,-0.004,-8.9,-43.4,11.2,0,2018,5,17,21,14,19.916,0.3022,-0.5974,-0.1077,-0.7348
0.003,-0.025,-0.009,-7.6,-45.3,7.9,0,2018,5,17,21,14,19.938,0.2972,-0.5985,-0.1016,-0.7369
-0.094,-0.037,0.005,-6.1,-45,7.3,0,2018,5,17,21,14,19.955,0.292,-0.5999,-0.0955,-0.7387
-0.207,-0.039,-0.001,-5.3,-38.4,9.8,0,2018,5,17,21,14,19.972,0.2868,-0.6013,-0.0902,-0.7402
-0.325,-0.049,-0.003,-5.9,-26.8,13.7,0,2018,5,17,21,14,19.995,0.282,-0.6024,-0.0867,-0.7416
-0.38,-0.073,-0.005,-8.4,-11,15.6,0,2018,5,17,21,14,20.013,0.2779,-0.6028,-0.0854,-0.743
-0.232,-0.034,-0.023,-14.3,1.3,9.8,0,2018,5,17,21,14,20.035,0.2759,-0.6018,-0.0855,-0.7445
-0.093,0.047,-0.057,-22.1,-0.4,-1.6,0,2018,5,17,21,14,20.053,0.2756,-0.5997,-0.0852,-0.7463
-0.072,0.106,-0.122,-27.7,-14.2,-11.9,0,2018,5,17,21,14,20.077,0.2757,-0.5972,-0.0825,-0.7486
-0.146,0.108,-0.147,-32.3,-28,-17.9,0,2018,5,17,21,14,20.114,0.2759,-0.5945,-0.0766,-0.7513
-0.225,0.141,-0.167,-36.9,-37.1,-18.2,0,2018,5,17,21,14,20.136,0.2753,-0.5918,-0.0686,-0.7544
-0.275,0.163,-0.201,-41.4,-45.5,-14.4,0,2018,5,17,21,14,20.141,0.2736,-0.5887,-0.0595,-0.7581
-0.215,0.182,-0.247,-46.3,-53.4,-10.5,0,2018,5,17,21,14,20.155,0.2706,-0.5854,-0.0496,-0.7626
-0.145,0.217,-0.301,-49,-65.5,-7.4,1023,2018,5,17,21,14,20.173,0.2658,-0.5819,-0.0386,-0.7675
-0.087,0.254,-0.343,-50.5,-80,-5.2,1023,2018,5,17,21,14,20.196,0.2591,-0.5786,-0.0259,-0.7728
-0.04,0.275,-0.364,-49.6,-91.9,-3.1,1023,2018,5,17,21,14,20.215,0.251,-0.5757,-0.0116,-0.778
-0.03,0.299,-0.364,-46.7,-102.8,0.4,1023,2018,5,17,21,14,20.237,0.2412,-0.5734,0.0038,-0.7829
-0.046,0.304,-0.347,-44.1,-112.3,6.4,0,2018,5,17,21,14,20.255,0.2296,-0.5717,0.02,-0.7873
-0.063,0.288,-0.32,-43.2,-118.3,14.1,0,2018,5,17,21,14,20.278,0.216,-0.5703,0.0365,-0.7916
-0.072,0.285,-0.308,-45.3,-123.6,22.8,0,2018,5,17,21,14,20.295,0.2008,-0.5688,0.053,-0.7957
-0.091,0.289,-0.309,-50,-129.1,31.7,0,2018,5,17,21,14,20.318,0.1834,-0.5668,0.0694,-0.8001
-0.125,0.264,-0.301,-56.8,-132,40.3,0,2018,5,17,21,14,20.336,0.1644,-0.5638,0.0857,-0.8048
-0.23,0.235,-0.293,-65,-134.5,49.7,0,2018,5,17,21,14,20.359,0.1435,-0.5595,0.1015,-0.8099
-0.32,0.2,-0.291,-72.3,-138,59.4,0,2018,5,17,21,14,20.397,0.121,-0.5539,0.1171,-0.8153
-0.31,0.195,-0.278,-78,-143.1,67.6,0,2018,5,17,21,14,20.397,0.0965,-0.5472,0.1323,-0.8207
-0.252,0.206,-0.262,-81.2,-153.7,73.4,0,2018,5,17,21,14,20.421,0.0702,-0.5396,0.148,-0.8257
-0.204,0.215,-0.276,-83.9,-170.5,75.4,0,2018,5,17,21,14,20.437,0.042,-0.5313,0.1653,-0.8298
-0.164,0.216,-0.295,-83.8,-189.5,76,0,2018,5,17,21,14,20.457,0.012,-0.5222,0.185,-0.8323
-0.146,0.208,-0.301,-81.8,-208,77.2,0,2018,5,17,21,14,20.493,-0.0196,-0.5127,0.2071,-0.8329
-0.129,0.193,-0.313,-78.4,-222.2,79,0,2018,5,17,21,14,20.518,-0.0528,-0.5027,0.2312,-0.8312
-0.128,0.146,-0.308,-74,-226.1,83.3,0,2018,5,17,21,14,20.523,-0.0872,-0.4924,0.2559,-0.8272
-0.129,0.084,-0.287,-70.4,-217.2,89.4,0,2018,5,17,21,14,20.538,-0.1218,-0.4821,0.2793,-0.8213
-0.095,0.034,-0.266,-66.6,-197.7,95.2,0,2018,5,17,21,14,20.56,-0.1556,-0.472,0.2996,-0.8143
-0.041,-0.003,-0.238,-61.6,-172.3,98.9,0,2018,5,17,21,14,20.578,-0.1877,-0.4628,0.316,-0.8066
0.005,-0.013,-0.2,-55.8,-147.9,100.6,0,2018,5,17,21,14,20.602,-0.2177,-0.4546,0.3282,-0.7988
0.022,-0.009,-0.161,-51.2,-131.4,101.2,0,2018,5,17,21,14,20.621,-0.2454,-0.4476,0.3374,-0.7908
0.028,-0.01,-0.142,-48.8,-124.8,101,0,2018,5,17,21,14,20.637,-0.2718,-0.4415,0.3454,-0.7822
0.019,-0.018,-0.143,-47.6,-123.6,100.8,0,2018,5,17,21,14,20.658,-0.2972,-0.4357,0.353,-0.7727
-0.011,-0.039,-0.153,-47.4,-122.3,99.7,0,2018,5,17,21,14,20.677,-0.3228,-0.429,0.3594,-0.7632
-0.027,-0.056,-0.173,-48.5,-118.4,98.6,0,2018,5,17,21,14,20.699,-0.3479,-0.4219,0.3652,-0.7533
-0.035,-0.058,-0.192,-48.9,-113.6,98,1023,2018,5,17,21,14,20.72,-0.3722,-0.4146,0.3701,-0.7432
-0.026,-0.059,-0.194,-47.3,-113.2,97.8,1023,2018,5,17,21,14,20.739,-0.3958,-0.4073,0.3745,-0.7328
-0.036,-0.051,-0.196,-43.9,-119.9,96.3,1023,2018,5,17,21,14,20.761,-0.4193,-0.3997,0.3792,-0.7214
-0.035,-0.049,-0.182,-39.2,-133.6,93.9,1023,2018,5,17,21,14,20.78,-0.4423,-0.3916,0.3854,-0.7087
-0.021,-0.062,-0.191,-33.2,-149.4,91.1,1023,2018,5,17,21,14,20.802,-0.4655,-0.3824,0.3938,-0.6941
-0.005,-0.089,-0.191,-27.4,-158.5,87,1023,2018,5,17,21,14,20.821,-0.4881,-0.3723,0.4042,-0.6779
0.028,-0.13,-0.182,-21.5,-158.7,82,1023,2018,5,17,21,14,20.844,-0.5097,-0.362,0.4154,-0.6607
0.079,-0.147,-0.145,-15.7,-153.5,75.8,0,2018,5,17,21,14,20.861,-0.5295,-0.3517,0.4267,-0.6432
0.067,-0.135,-0.096,-11.4,-149.5,69,0,2018,5,17,21,14,20.883,-0.5473,-0.3418,0.4379,-0.6259
0.046,-0.146,-0.071,-8.4,-149.7,63.7,0,2018,5,17,21,14,20.901,-0.5639,-0.3315,0.4492,-0.6084
0.053,-0.182,-0.039,-5.9,-146.1,59.2,0,2018,5,17,21,14,20.919,-0.5791,-0.321,0.4606,-0.591
0.046,-0.208,-0.006,-2.8,-136.4,56.1,0,2018,5,17,21,14,20.942,-0.5929,-0.311,0.4715,-0.5738
0.047,-0.23,0.043,-1.4,-123.1,53.4,0,2018,5,17,21,14,20.96,-0.6053,-0.302,0.4812,-0.5574
0.035,-0.232,0.084,-0.4,-111.9,49.7,0,2018,5,17,21,14,20.983,-0.6162,-0.2941,0.4898,-0.542
0.05,-0.221,0.104,0.4,-106.5,44.1,0,2018,5,17,21,14,21,-0.626,-0.2865,0.4975,-0.5276
0.062,-0.219,0.115,2.3,-105.8,37.8,0,2018,5,17,21,14,21.022,-0.6348,-0.2786,0.5053,-0.5137
0.013,-0.235,0.15,3.9,-104.1,32.2,0,2018,5,17,21,14,21.04,-0.6425,-0.2705,0.5134,-0.5003
-0.06,-0.252,0.192,3.2,-99.1,27.7,0,2018,5,17,21,14,21.063,-0.6493,-0.2622,0.5213,-0.4876
-0.171,-0.268,0.23,2,-90.5,25.3,0,2018,5,17,21,14,21.1,-0.6556,-0.254,0.5284,-0.4758
-0.197,-0.277,0.265,-1.5,-80.4,22.6,0,2018,5,17,21,14,21.1,-0.6613,-0.2464,0.5343,-0.4651
-0.138,-0.275,0.26,-5.1,-74.8,16.9,0,2018,5,17,21,14,21.121,-0.6664,-0.2391,0.5393,-0.4557
-0.043,-0.268,0.229,-8.2,-70.2,8.1,0,2018,5,17,21,14,21.139,-0.6712,-0.2311,0.5436,-0.4477
0,-0.262,0.15,-11.3,-58.6,-2.6,0,2018,5,17,21,14,21.162,-0.6749,-0.2228,0.5474,-0.4416
0.025,-0.23,0.098,-14.6,-41.9,-11.8,0,2018,5,17,21,14,21.197,-0.6776,-0.2151,0.5499,-0.4383
0.037,-0.185,0.05,-16.3,-31.4,-18.1,0,2018,5,17,21,14,21.218,-0.6793,-0.208,0.5513,-0.4372
0.021,-0.147,0.015,-15.6,-27.2,-21.5,0,2018,5,17,21,14,21.223,-0.6804,-0.2011,0.5523,-0.4375
0.05,-0.12,-0.005,-14.8,-25.8,-22.7,0,2018,5,17,21,14,21.259,-0.6807,-0.1938,0.5538,-0.4385
0.16,-0.069,-0.041,-13.7,-32.2,-23.7,0,2018,5,17,21,14,21.281,-0.6809,-0.1793,0.5573,-0.4399
0.158,-0.072,-0.075,-14,-31.3,-24.8,1023,2018,5,17,21,14,21.283,-0.6809,-0.1713,0.5595,-0.4403
0.133,-0.071,-0.109,-14.5,-25.6,-24.9,1023,2018,5,17,21,14,21.318,-0.6813,-0.1641,0.5607,-0.4409
0.112,-0.06,-0.113,-15.4,-19.1,-24.5,1023,2018,5,17,21,14,21.34,-0.6815,-0.1578,0.5612,-0.4422
0.1,-0.037,-0.114,-15.4,-18,-23.8,1023,2018,5,17,21,14,21.344,-0.6816,-0.1519,0.5615,-0.4437
0.089,-0.019,-0.115,-13.7,-23.1,-23.1,1023,2018,5,17,21,14,21.378,-0.6812,-0.146,0.563,-0.4445
0.064,-0.004,-0.121,-11.6,-31.2,-22.3,1023,2018,5,17,21,14,21.399,-0.6808,-0.1398,0.5652,-0.4443
0.045,-0.005,-0.114,-9,-39.1,-21.4,1023,2018,5,17,21,14,21.402,-0.6804,-0.1329,0.5683,-0.443
0.037,-0.013,-0.108,-6.2,-41.8,-21,1023,2018,5,17,21,14,21.435,-0.6799,-0.1256,0.572,-0.4411
0.036,-0.016,-0.101,-3.7,-39.7,-20.7,1023,2018,5,17,21,14,21.457,-0.6792,-0.1182,0.576,-0.4391
0.051,-0.013,-0.086,-0.8,-33.7,-20.4,1023,2018,5,17,21,14,21.463,-0.6782,-0.1116,0.5798,-0.4374
0.056,-0.007,-0.069,3.1,-26.2,-20.3,1023,2018,5,17,21,14,21.501,-0.6767,-0.1061,0.5832,-0.4364
0.035,-0.001,-0.039,6.6,-17.3,-19.8,0,2018,5,17,21,14,21.523,-0.6749,-0.1019,0.5863,-0.4361
0.039,0.011,-0.014,8.9,-7,-19.2,0,2018,5,17,21,14,21.526,-0.6727,-0.0994,0.5888,-0.4367
0.052,0.034,0.005,9.6,2,-18.7,0,2018,5,17,21,14,21.562,-0.6705,-0.0981,0.5904,-0.4383
0.055,0.057,0.017,9.6,6.8,-17.7,0,2018,5,17,21,14,21.585,-0.6683,-0.0978,0.5912,-0.4405
0.04,0.074,0.032,9.4,7.9,-15.2,0,2018,5,17,21,14,21.587,-0.6664,-0.098,0.5917,-0.4427
-0.012,0.093,0.052,8.7,6.4,-11.7,0,2018,5,17,21,14,21.603,-0.6649,-0.099,0.592,-0.4444
-0.052,0.09,0.078,6.8,5.5,-7.6,0,2018,5,17,21,14,21.624,-0.6639,-0.1,0.5922,-0.4455
-0.058,0.097,0.091,3.5,7.1,-2.1,0,2018,5,17,21,14,21.659,-0.6629,-0.1004,0.5923,-0.4466
-0.096,0.102,0.098,0.1,10.8,4.4,0,2018,5,17,21,14,21.683,-0.6627,-0.1016,0.5917,-0.4474
-0.238,0.113,0.096,-2.9,15.7,13.1,0,2018,5,17,21,14,21.685,-0.6635,-0.1035,0.5902,-0.4478
-0.306,0.101,0.093,-6.2,23.4,21.7,0,2018,5,17,21,14,21.721,-0.6651,-0.1069,0.5877,-0.4479
-0.278,0.133,0.067,-8.6,24.1,27.8,0,2018,5,17,21,14,21.741,-0.6675,-0.1114,0.5842,-0.4478
-0.225,0.148,0.063,-8.5,16.3,32.6,0,2018,5,17,21,14,21.747,-0.6704,-0.1161,0.581,-0.4465
-0.121,0.171,0.055,-8.7,2.4,33.3,0,2018,5,17,21,14,21.781,-0.6738,-0.1195,0.5784,-0.4437
-0.055,0.174,0.043,-7.9,-14.1,30,0,2018,5,17,21,14,21.803,-0.6774,-0.1209,0.5771,-0.4396
-0.072,0.154,0.043,-7.3,-26.7,25.7,0,2018,5,17,21,14,21.807,-0.6808,-0.1206,0.5772,-0.4343
-0.084,0.129,0.045,-8.7,-31.1,20.1,1023,2018,5,17,21,14,21.825,-0.6841,-0.1192,0.578,-0.4285
-0.084,0.127,0.015,-10.4,-31.5,13.7,1023,2018,5,17,21,14,21.846,-0.6874,-0.1178,0.5786,-0.4226
-0.096,0.129,-0.008,-10.7,-31.4,8.8,1023,2018,5,17,21,14,21.882,-0.6902,-0.1155,0.5794,-0.4175
-0.058,0.13,-0.015,-11.1,-30.8,5,1023,2018,5,17,21,14,21.903,-0.6927,-0.1128,0.5803,-0.413
0,0.144,-0.033,-10,-31.4,1.7,1023,2018,5,17,21,14,21.905,-0.6948,-0.1098,0.5812,-0.4088
0.048,0.167,-0.028,-8.1,-35.1,0,1023,2018,5,17,21,14,21.942,-0.6964,-0.1052,0.5825,-0.4055
0.095,0.181,-0.027,-6.1,-42.5,-0.9,1023,2018,5,17,21,14,21.963,-0.6978,-0.0999,0.5843,-0.4018
0.14,0.178,-0.033,-3.6,-51.2,-0.1,1023,2018,5,17,21,14,21.965,-0.6991,-0.0938,0.587,-0.3971
0.167,0.177,-0.018,-1.5,-59.3,2.2,1023,2018,5,17,21,14,22.004,-0.7004,-0.0872,0.5905,-0.3912
0.16,0.162,0.003,-0.6,-67,6.1,1023,2018,5,17,21,14,22.027,-0.7017,-0.0798,0.5946,-0.3841
0.155,0.151,0.007,-1.4,-73.8,11.2,1023,2018,5,17,21,14,22.029,-0.7033,-0.072,0.5991,-0.3757
0.15,0.123,0.014,-1.4,-80.5,16.3,1023,2018,5,17,21,14,22.065,-0.7056,-0.0644,0.6035,-0.3655
0.113,0.098,0.027,-1.4,-84.2,20.3,1023,2018,5,17,21,14,22.086,-0.7084,-0.0569,0.6079,-0.354
0.111,0.063,0.047,-1,-84.7,23.5,1023,2018,5,17,21,14,22.088,-0.7112,-0.0494,0.6122,-0.3419
0.092,0.031,0.084,-1.2,-86.6,24.1,1023,2018,5,17,21,14,22.126,-0.714,-0.0417,0.6162,-0.3297
0.092,0.03,0.085,0.1,-93.7,24,0,2018,5,17,21,14,22.148,-0.7167,-0.0334,0.6202,-0.3169
0.093,-0.003,0.095,2.9,-98.7,23.3,0,2018,5,17,21,14,22.15,-0.7189,-0.0241,0.6248,-0.3035
0.07,-0.049,0.114,5.2,-94.9,22.1,0,2018,5,17,21,14,22.183,-0.7204,-0.0145,0.6297,-0.2902
0.021,-0.1,0.149,5.4,-81.7,19.8,0,2018,5,17,21,14,22.204,-0.721,-0.0059,0.6347,-0.2778
-0.102,-0.16,0.193,3.4,-63.2,16.4,0,2018,5,17,21,14,22.211,-0.7213,0.0008,0.6387,-0.2674
-0.239,-0.2,0.226,-0.9,-41,11.8,0,2018,5,17,21,14,22.248,-0.7218,0.0057,0.6413,-0.2599
-0.333,-0.239,0.264,-8,-17.3,6.8,0,2018,5,17,21,14,22.269,-0.7227,0.0084,0.642,-0.2554
-0.338,-0.232,0.28,-17.2,2.7,-6.3,0,2018,5,17,21,14,22.272,-0.7242,0.0097,0.6407,-0.2547
-0.247,-0.194,0.265,-27.5,8.4,-24.8,0,2018,5,17,21,14,22.307,-0.726,0.0115,0.6375,-0.2573
-0.193,-0.194,0.274,-39.6,4.3,-53.7,0,2018,5,17,21,14,22.328,-0.728,0.0165,0.6328,-0.263
-0.191,-0.086,0.233,-49.9,-13.3,-83.4,0,2018,5,17,21,14,22.33,-0.7297,0.0267,0.6269,-0.2713
-0.286,-0.067,0.251,-55.7,-41.2,-107.1,0,2018,5,17,21,14,22.366,-0.7312,0.043,0.6203,-0.2803
-0.431,-0.099,0.299,-64.2,-67.2,-123.8,0,2018,5,17,21,14,22.386,-0.7313,0.0656,0.6143,-0.2886
-0.517,-0.184,0.299,-76.5,-78.8,-139.2,0,2018,5,17,21,14,22.391,-0.7313,0.0927,0.6072,-0.2964
-0.453,-0.141,0.215,-85.8,-85.4,-157.1,0,2018,5,17,21,14,22.422,-0.7312,0.122,0.5978,-0.3048
-0.426,-0.133,0.162,-91.2,-108,-179,0,2018,5,17,21,14,22.431,-0.7295,0.1555,0.5876,-0.3135
-0.431,-0.213,0.16,-93.6,-127.8,-204.5,0,2018,5,17,21,14,22.468,-0.725,0.1943,0.5767,-0.3223
-0.472,-0.193,0.177,-93.7,-135.6,-230.4,0,2018,5,17,21,14,22.489,-0.7173,0.2371,0.5645,-0.3323
-0.454,-0.178,0.212,-94.3,-126.4,-249.8,0,2018,5,17,21,14,22.492,-0.7064,0.2821,0.5497,-0.345
-0.456,-0.159,0.211,-92.3,-109.1,-266.3,1023,2018,5,17,21,14,22.528,-0.693,0.3267,0.5318,-0.3605
-0.478,-0.213,0.178,-88.5,-87,-277.5,1023,2018,5,17,21,14,22.552,-0.6777,0.3691,0.5108,-0.3787
-0.556,-0.239,0.123,-86.4,-48.9,-287.4,1023,2018,5,17,21,14,22.555,-0.6614,0.4076,0.4861,-0.3999
-0.584,-0.164,0.095,-88.1,-6.7,-294.5,1023,2018,5,17,21,14,22.574,-0.6456,0.4409,0.4564,-0.4245
-0.552,-0.117,0.095,-92.1,11.1,-299.6,1023,2018,5,17,21,14,22.595,-0.6302,0.47,0.4224,-0.4509
-0.449,-0.032,0.044,-90.6,3.3,-300.8,1023,2018,5,17,21,14,22.614,-0.613,0.4978,0.3863,-0.4764
-0.462,-0.045,-0.006,-84.3,-5.5,-300.2,1023,2018,5,17,21,14,22.631,-0.5928,0.5248,0.3505,-0.5001
-0.485,-0.003,-0.051,-76.7,3,-300.2,1023,2018,5,17,21,14,22.655,-0.5703,0.5497,0.3145,-0.523
-0.404,0.109,-0.085,-69.5,32.4,-294,1023,2018,5,17,21,14,22.672,-0.548,0.5701,0.2766,-0.5458
-0.342,0.067,-0.167,-60.2,55,-286.8,1023,2018,5,17,21,14,22.693,-0.5273,0.5851,0.2368,-0.5685
-0.357,0.055,-0.216,-50.3,61.7,-279.5,1023,2018,5,17,21,14,22.713,-0.5068,0.5961,0.1967,-0.5908
-0.403,0.172,-0.238,-40.9,76.5,-266.9,1023,2018,5,17,21,14,22.737,-0.4864,0.6034,0.1571,-0.6119
-0.352,0.348,-0.204,-35.4,102.1,-245.7,0,2018,5,17,21,14,22.756,-0.4692,0.6061,0.117,-0.6314
-0.271,0.315,-0.208,-27.4,103,-220.9,0,2018,5,17,21,14,22.774,-0.4547,0.6051,0.0782,-0.6486
-0.233,0.207,-0.245,-20.4,95.3,-197.1,0,2018,5,17,21,14,22.797,-0.4414,0.6024,0.043,-0.6635
-0.27,0.133,-0.199,-12.7,101.6,-172.4,0,2018,5,17,21,14,22.816,-0.4302,0.5977,0.0111,-0.6763
-0.3,0.164,-0.094,-11.3,111.9,-148.4,0,2018,5,17,21,14,22.839,-0.4227,0.5908,-0.0186,-0.6868
-0.29,0.236,-0.097,-7.1,98.4,-125.2,0,2018,5,17,21,14,22.855,-0.4173,0.5827,-0.0464,-0.6957
-0.294,0.156,-0.123,0.4,67.4,-104.7,0,2018,5,17,21,14,22.874,-0.4116,0.5755,-0.0685,-0.7032
-0.306,-0.024,-0.119,9.6,48.9,-88.8,0,2018,5,17,21,14,22.91,-0.4057,0.5695,-0.0841,-0.7098
-0.318,-0.053,-0.036,15.5,59.8,-72.3,0,2018,5,17,21,14,22.933,-0.4012,0.5628,-0.0978,-0.716
-0.33,-0.04,-0.096,18.5,70.2,-53.1,0,2018,5,17,21,14,22.937,-0.4001,0.5549,-0.111,-0.7208
-0.246,-0.282,-0.208,22,88.2,-38.5,0,2018,5,17,21,14,22.955,-0.4021,0.5462,-0.1235,-0.7243
-0.263,-0.066,-0.165,18.5,112.6,-20.7,0,2018,5,17,21,14,22.992,-0.409,0.5356,-0.1385,-0.7256
-0.275,0.023,-0.121,18.6,113.2,-0.9,0,2018,5,17,21,14,23.015,-0.4189,0.5249,-0.1523,-0.725
-0.279,-0.095,-0.027,14.2,134,16.6,0,2018,5,17,21,14,23.019,-0.4315,0.514,-0.1652,-0.7226
-0.179,-0.132,-0.155,9.5,165.2,26.8,0,2018,5,17,21,14,23.037,-0.4481,0.5017,-0.1814,-0.7173
-0.084,-0.407,-0.291,18.1,202.1,29.4,0,2018,5,17,21,14,23.06,-0.4679,0.4864,-0.2006,-0.71
-0.015,-0.404,-0.407,31.3,261.2,27.3,0,2018,5,17,21,14,23.075,-0.4916,0.4649,-0.2248,-0.7011
0.072,-0.216,-0.367,44.1,288.1,26.5,1023,2018,5,17,21,14,23.093,-0.5186,0.4367,-0.2533,-0.69
0.112,-0.203,-0.294,59.6,285,20.6,1023,2018,5,17,21,14,23.115,-0.5449,0.405,-0.2808,-0.6783
0.126,-0.262,-0.315,70.9,302.3,14.3,1023,2018,5,17,21,14,23.153,-0.57,0.3698,-0.3075,-0.666
0.159,-0.155,-0.353,80.3,335.8,5,1023,2018,5,17,21,14,23.176,-0.5948,0.329,-0.336,-0.6518
0.116,0.037,-0.362,89,343,0.9,1023,2018,5,17,21,14,23.18,-0.6186,0.2834,-0.3653,-0.6352
0.071,-0.019,-0.436,96.1,343.8,-5.7,1023,2018,5,17,21,14,23.196,-0.6399,0.2357,-0.3923,-0.6172
0.028,-0.116,-0.568,99.9,401.3,-7.3,1023,2018,5,17,21,14,23.219,-0.6593,0.1835,-0.4201,-0.5957
-0.098,-0.191,-0.639,102.1,504.2,-11.9,1023,2018,5,17,21,14,23.237,-0.6782,0.1193,-0.4546,-0.5648
-0.163,-0.159,-0.759,98.6,591.5,-18.8,1023,2018,5,17,21,14,23.261,-0.6927,0.0424,-0.4952,-0.5225
-0.286,0.148,-0.708,97.1,612.3,-24.9,1023,2018,5,17,21,14,23.279,-0.6995,-0.0423,-0.5361,-0.4704
-0.36,0.664,-0.535,98,485.7,-26.2,1023,2018,5,17,21,14,23.302,-0.6989,-0.1205,-0.5672,-0.4185
-0.299,0.071,-0.571,111.8,353.6,-23.3,1023,2018,5,17,21,14,23.32,-0.697,-0.1795,-0.5822,-0.378
-0.275,-0.003,-0.641,132.9,320.5,-20.3,0,2018,5,17,21,14,23.342,-0.6962,-0.23,-0.5875,-0.3421
-0.326,0.368,-0.435,154.4,236.1,-7.9,0,2018,5,17,21,14,23.362,-0.6977,-0.2742,-0.5854,-0.3085
-0.368,0.313,-0.345,174.7,134.9,15.9,0,2018,5,17,21,14,23.378,-0.7056,-0.3041,-0.5745,-0.2817
-0.267,0.145,-0.223,191.3,113.2,49.8,0,2018,5,17,21,14,23.396,-0.7189,-0.3241,-0.559,-0.2558
-0.221,0.192,-0.118,202.6,119.9,87.9,0,2018,5,17,21,14,23.416,-0.734,-0.3405,-0.5429,-0.2244
-0.176,0.146,-0.151,211.2,124.1,127.7,0,2018,5,17,21,14,23.455,-0.7499,-0.3536,-0.527,-0.1862
-0.141,0.111,-0.17,221,111,159.3,0,2018,5,17,21,14,23.476,-0.7661,-0.3626,-0.511,-0.1426
-0.104,0,0,225.2,71.2,182,0,2018,5,17,21,14,23.483,-0.7834,-0.3649,-0.4934,-0.0973
-0.142,-0.11,0.096,222.4,23.9,205.6,0,2018,5,17,21,14,23.499,-0.802,-0.3579,-0.4751,-0.0525
-0.138,-0.223,0.11,212.9,-24.4,222.3,0,2018,5,17,21,14,23.52,-0.8209,-0.3413,-0.4575,-0.0089
0.014,-0.305,0.079,195.3,-59.6,234.8,0,2018,5,17,21,14,23.557,-0.8389,-0.3166,-0.4413,0.0325
0.008,-0.353,0.06,174.6,-86.8,248.7,0,2018,5,17,21,14,23.58,-0.8546,-0.2854,-0.4275,0.0723
-0.071,-0.389,0.026,154.6,-103.7,260.3,0,2018,5,17,21,14,23.584,-0.8671,-0.2496,-0.4163,0.1113
-0.071,-0.346,0.051,136.6,-106.7,265.1,0,2018,5,17,21,14,23.599,-0.8757,-0.2111,-0.4074,0.1496
0.062,-0.326,0.118,114.4,-109.5,262.1,0,2018,5,17,21,14,23.617,-0.8805,-0.1721,-0.4001,0.1867
0.135,-0.37,0.115,85.7,-102.8,252.2,1023,2018,5,17,21,14,23.64,-0.881,-0.1344,-0.3955,0.2216
0.067,-0.386,0.125,55.1,-91.6,239.1,1023,2018,5,17,21,14,23.66,-0.8776,-0.0995,-0.3939,0.254
0.005,-0.294,0.191,28.8,-55.3,230.9,1023,2018,5,17,21,14,23.683,-0.8705,-0.0701,-0.3947,0.2853
-0.019,-0.182,0.272,10.4,-27.3,221.1,1023,2018,5,17,21,14,23.7,-0.8602,-0.0478,-0.3962,0.3171
0.072,-0.138,0.196,-2.9,-35,206.5,1023,2018,5,17,21,14,23.723,-0.8483,-0.0282,-0.3988,0.3469
0.118,-0.147,0.038,-13.9,-41.4,194.9,1023,2018,5,17,21,14,23.742,-0.835,-0.0084,-0.4037,0.3736
0.084,-0.166,-0.039,-18.7,-18.1,188.3,1023,2018,5,17,21,14,23.764,-0.8208,0.0084,-0.4085,0.3991
0.051,-0.133,-0.003,-18.3,12.7,182.3,1023,2018,5,17,21,14,23.782,-0.806,0.0207,-0.411,0.4253
0.067,-0.17,0.071,-19.8,20.5,172.8,0,2018,5,17,21,14,23.805,-0.7908,0.0299,-0.4119,0.4517
0.048,-0.178,0.045,-21.6,16.3,165.1,0,2018,5,17,21,14,23.823,-0.7753,0.0385,-0.4127,0.4764
0.043,-0.147,-0.032,-21.9,13.7,155.6,0,2018,5,17,21,14,23.846,-0.7598,0.0468,-0.4138,0.4992
0.05,-0.099,-0.121,-18.8,14.9,147.5,0,2018,5,17,21,14,23.861,-0.7449,0.054,-0.4141,0.5201
0.049,-0.136,-0.143,-12.2,26.3,140.6,0,2018,5,17,21,14,23.879,-0.7307,0.0604,-0.4127,0.5403
0.049,-0.1,-0.146,-7.1,38.5,134.6,0,2018,5,17,21,14,23.901,-0.7172,0.0651,-0.4092,0.5601
0.042,-0.107,-0.165,-1.1,39.4,128.4,0,2018,5,17,21,14,23.939,-0.7043,0.0691,-0.4042,0.5794
0.064,-0.098,-0.188,3.2,31.2,121.4,0,2018,5,17,21,14,23.961,-0.692,0.0736,-0.3989,0.597
0.07,-0.053,-0.185,7.6,21,117.5,0,2018,5,17,21,14,23.967,-0.6802,0.0793,-0.3939,0.613
0.074,-0.021,-0.197,12.6,6,113.1,0,2018,5,17,21,14,23.984,-0.6686,0.0868,-0.3895,0.6273
0.05,-0.1,-0.146,17.8,-2.5,109.6,0,2018,5,17,21,14,24.005,-0.6573,0.0959,-0.3858,0.6401
0.024,-0.164,-0.079,20.6,-17,97.3,0,2018,5,17,21,14,24.04,-0.6468,0.1062,-0.3828,0.6509
0.057,-0.11,-0.097,20.7,-33.1,88.9,0,2018,5,17,21,14,24.063,-0.6371,0.1176,-0.3817,0.6591
0.076,-0.113,-0.129,22.4,-38.1,82.3,0,2018,5,17,21,14,24.067,-0.6278,0.13,-0.3817,0.6656
0.083,-0.108,-0.116,21.8,-26.9,75.9,0,2018,5,17,21,14,24.083,-0.6193,0.1414,-0.3814,0.6714
0.07,-0.152,-0.051,21.5,-9.5,71.4,0,2018,5,17,21,14,24.101,-0.6116,0.1508,-0.3795,0.6775
0.045,-0.219,0.014,20,-6,59.6,0,2018,5,17,21,14,24.123,-0.6046,0.1587,-0.3774,0.6831
0.077,-0.164,0.006,18.1,-18.4,47.8,0,2018,5,17,21,14,24.145,-0.5989,0.166,-0.3765,0.6869
0.094,-0.164,-0.025,18.1,-31.2,37.6,0,2018,5,17,21,14,24.163,-0.5941,0.1737,-0.3776,0.6886
0.105,-0.149,-0.016,17.1,-28.4,28.9,0,2018,5,17,21,14,24.186,-0.5903,0.1811,-0.3789,0.6892
0.087,-0.181,0.04,14.7,-19.1,21.2,0,2018,5,17,21,14,24.204,-0.5875,0.187,-0.3804,0.6892
0.073,-0.143,0.057,10.7,-17.2,10.8,0,2018,5,17,21,14,24.226,-0.5859,0.1912,-0.3815,0.6888
0.086,-0.094,0.033,8.2,-19.8,3.7,1023,2018,5,17,21,14,24.245,-0.5851,0.1944,-0.3832,0.6876
0.086,-0.085,0.001,8.5,-18.6,-2.1,1023,2018,5,17,21,14,24.267,-0.585,0.197,-0.3856,0.6856
0.074,-0.064,-0.017,9.7,-12.9,-6.3,1023,2018,5,17,21,14,24.285,-0.5857,0.1991,-0.3877,0.6833
0.046,-0.057,0.008,10.1,-6.8,-9.6,1023,2018,5,17,21,14,24.308,-0.587,0.2005,-0.3888,0.6811
0.033,-0.038,0.017,8.8,0,-11.8,1023,2018,5,17,21,14,24.325,-0.5889,0.201,-0.3891,0.6791
0.032,-0.028,0.009,7.7,6.8,-12.9,1023,2018,5,17,21,14,24.343,-0.5912,0.2004,-0.3886,0.6776
0.023,-0.026,0,7.6,11,-13.7,1023,2018,5,17,21,14,24.366,-0.5936,0.1992,-0.3876,0.6764
0.024,-0.015,-0.037,8.7,11.9,-13.8,1023,2018,5,17,21,14,24.388,-0.5963,0.1979,-0.3864,0.6752
-0.012,-0.027,-0.027,10.6,8.4,-15.7,1023,2018,5,17,21,14,24.405,-0.5989,0.197,-0.3851,0.6738
-0.017,-0.009,-0.027,11,1,-17.4,1023,2018,5,17,21,14,24.428,-0.6017,0.1969,-0.3843,0.6718
-0.013,-0.009,-0.027,10.9,-1.1,-17.3,0,2018,5,17,21,14,24.445,-0.6044,0.1971,-0.3841,0.6694
-0.004,0.008,-0.049,11.8,0,-16.5,0,2018,5,17,21,14,24.467,-0.607,0.1974,-0.384,0.667
-0.01,-0.001,-0.045,13.7,1.8,-15.2,0,2018,5,17,21,14,24.505,-0.6097,0.1978,-0.3835,0.6648
-0.013,0.024,-0.064,15.9,1.2,-13.5,0,2018,5,17,21,14,24.528,-0.6123,0.1985,-0.3826,0.6626
-0.005,0.042,-0.078,18.5,2.1,-10.7,0,2018,5,17,21,14,24.531,-0.6148,0.1995,-0.3815,0.6606
0.013,0.081,-0.109,22.6,0.8,-7.1,0,2018,5,17,21,14,24.549,-0.6173,0.201,-0.38,0.6588
0.019,0.108,-0.122,26.5,-1.6,-2.4,0,2018,5,17,21,14,24.572,-0.6195,0.2032,-0.3783,0.657
0.047,0.182,-0.146,31.9,-5.1,4.1,0,2018,5,17,21,14,24.587,-0.6214,0.2062,-0.3762,0.6554
0.083,0.263,-0.199,39.5,-7.3,13.9,0,2018,5,17,21,14,24.623,-0.6226,0.2115,-0.3728,0.6546
0.104,0.35,-0.243,48.9,-4.8,28.2,0,2018,5,17,21,14,24.644,-0.6228,0.2187,-0.368,0.6548
0.107,0.404,-0.278,60.7,4.8,47,0,2018,5,17,21,14,24.65,-0.6219,0.2274,-0.3606,0.6567
0.107,0.464,-0.308,73.4,18.5,67.9,0,2018,5,17,21,14,24.669,-0.62,0.2374,-0.3495,0.661
0.09,0.484,-0.336,88.8,30,90.8,0,2018,5,17,21,14,24.689,-0.6166,0.249,-0.3345,0.6676
0.006,0.394,-0.304,101.5,45.7,109.2,0,2018,5,17,21,14,24.708,-0.612,0.2615,-0.3154,0.6763
-0.01,0.443,-0.299,116.2,53.7,129.3,0,2018,5,17,21,14,24.728,-0.6063,0.2746,-0.2918,0.6868
-0.081,0.425,-0.312,130.7,53,146.5,0,2018,5,17,21,14,24.747,-0.5981,0.2907,-0.2655,0.6979
-0.215,0.242,-0.194,140.6,59.7,161.1,0,2018,5,17,21,14,24.769,-0.588,0.3084,-0.2363,0.7093
-0.276,0.245,-0.222,152.7,65.1,171.9,0,2018,5,17,21,14,24.785,-0.5763,0.3267,-0.2044,0.7206
-0.352,0.165,-0.233,164.9,65.1,178.9,0,2018,5,17,21,14,24.808,-0.563,0.3459,-0.1698,0.731
-0.435,0.179,-0.224,176.2,52.9,182.3,0,2018,5,17,21,14,24.844,-0.548,0.367,-0.1343,0.7395
-0.509,0.124,-0.209,182,48.2,185.6,1023,2018,5,17,21,14,24.864,-0.531,0.3893,-0.0989,0.746
-0.511,0.163,-0.256,191.2,44.4,187.4,1023,2018,5,17,21,14,24.871,-0.5125,0.4122,-0.0627,0.7506
-0.565,0.035,-0.242,195.8,45.5,187.3,1023,2018,5,17,21,14,24.89,-0.4926,0.4351,-0.0261,0.7531
-0.627,-0.009,-0.244,197.1,57.4,180.4,1023,2018,5,17,21,14,24.909,-0.4726,0.4569,0.0115,0.7534
-0.643,-0.035,-0.148,192.8,69.6,171.7,1023,2018,5,17,21,14,24.932,-0.4537,0.4764,0.0501,0.7514
-0.61,-0.039,-0.062,185.4,74.5,160.1,0,2018,5,17,21,14,24.951,-0.4358,0.4935,0.0883,0.7474
-0.553,-0.085,-0.003,174.6,77.7,146.4,0,2018,5,17,21,14,24.969,-0.4192,0.5083,0.1251,0.7417
-0.473,-0.1,0.012,166.1,76.9,130.6,0,2018,5,17,21,14,24.992,-0.4039,0.5215,0.1598,0.7342
-0.411,-0.109,0.048,157.7,71,114.7,0,2018,5,17,21,14,25.012,-0.3902,0.534,0.1917,0.7251
-0.371,-0.176,0.106,148.2,65.1,100.2,0,2018,5,17,21,14,25.03,-0.3778,0.5453,0.2201,0.715
-0.311,-0.243,0.203,135.1,62.5,82.4,0,2018,5,17,21,14,25.049,-0.3673,0.5551,0.2455,0.7047
-0.234,-0.244,0.276,120.3,53.8,63.9,0,2018,5,17,21,14,25.068,-0.3585,0.5637,0.2678,0.6942
-0.141,-0.217,0.325,105.6,36.8,47.6,0,2018,5,17,21,14,25.106,-0.3509,0.5717,0.2857,0.6843
-0.058,-0.192,0.354,92.1,13.1,35.5,0,2018,5,17,21,14,25.129,-0.3435,0.5798,0.2988,0.6756
-0.025,-0.253,0.393,78.5,-10.8,25,0,2018,5,17,21,14,25.133,-0.3354,0.5882,0.3068,0.6687
-0.03,-0.346,0.432,65,-17,18.2,0,2018,5,17,21,14,25.152,-0.3275,0.5963,0.3113,0.6634
-0.045,-0.426,0.464,50.7,-2.3,14.1,0,2018,5,17,21,14,25.171,-0.3214,0.6027,0.315,0.6588
-0.045,-0.446,0.457,36,17.4,9.2,0,2018,5,17,21,14,25.194,-0.3185,0.6065,0.3196,0.6545
-0.043,-0.443,0.445,21.1,34.3,5.6,0,2018,5,17,21,14,25.211,-0.3189,0.6079,0.325,0.6504
-0.047,-0.462,0.436,4,53.6,1.1,1023,2018,5,17,21,14,25.231,-0.3225,0.6066,0.331,0.6467
-0.046,-0.434,0.411,-12.1,70.1,-5.2,1023,2018,5,17,21,14,25.247,-0.3296,0.6027,0.3376,0.6434
-0.046,-0.383,0.375,-27.1,71.4,-13.9,1023,2018,5,17,21,14,25.27,-0.3395,0.5967,0.3436,0.6406
-0.026,-0.325,0.318,-38.2,57.6,-23.6,1023,2018,5,17,21,14,25.289,-0.3504,0.5903,0.3468,0.639
-0.012,-0.288,0.284,-47.1,40.4,-32.6,1023,2018,5,17,21,14,25.311,-0.3611,0.5841,0.3467,0.6387
-0.012,-0.264,0.237,-54.6,23.5,-40.7,1023,2018,5,17,21,14,25.329,-0.3715,0.5787,0.3431,0.6397
-0.021,-0.271,0.183,-61.7,16.4,-48.5,1023,2018,5,17,21,14,25.353,-0.3819,0.5736,0.3368,0.6415
-0.034,-0.267,0.137,-67.8,19.2,-54,1023,2018,5,17,21,14,25.37,-0.3932,0.5681,0.3292,0.6435
-0.048,-0.258,0.105,-73.1,24.4,-55.8,1023,2018,5,17,21,14,25.394,-0.4056,0.5618,0.3213,0.6453
-0.072,-0.241,0.053,-77.9,26.8,-55.1,1023,2018,5,17,21,14,25.43,-0.4186,0.5544,0.3134,0.6473
-0.113,-0.22,0.009,-82.7,27.1,-54.5,1023,2018,5,17,21,14,25.43,-0.4317,0.5462,0.3053,0.6495
-0.171,-0.162,-0.042,-87.5,23,-54.6,1023,2018,5,17,21,14,25.455,-0.4448,0.5375,0.2964,0.652
-0.163,-0.126,-0.113,-90.8,15.2,-55.7,1023,2018,5,17,21,14,25.475,-0.4574,0.5286,0.2864,0.6551
-0.162,-0.088,-0.19,-90.9,5.5,-57.5,1023,2018,5,17,21,14,25.493,-0.4694,0.52,0.2751,0.6583
-0.172,-0.065,-0.246,-87.6,-5.8,-59,1023,2018,5,17,21,14,25.516,-0.4802,0.5125,0.2623,0.6616
-0.209,-0.041,-0.276,-83.2,-13.6,-61.5,1023,2018,5,17,21,14,25.553,-0.4901,0.5062,0.2485,0.6646
-0.217,-0.01,-0.316,-77.8,-17.2,-63.6,1023,2018,5,17,21,14,25.553,-0.4994,0.5008,0.2342,0.6669
-0.19,0.019,-0.344,-71.7,-17.7,-64.5,1023,2018,5,17,21,14,25.575,-0.5083,0.4962,0.22,0.6685
-0.147,0.045,-0.385,-64.3,-17.1,-63.7,1023,2018,5,17,21,14,25.593,-0.5168,0.4922,0.2064,0.6692
-0.156,0.066,-0.408,-55,-14.7,-60.8,0,2018,5,17,21,14,25.615,-0.5248,0.4889,0.1937,0.6692
-0.15,0.073,-0.426,-45.2,-9.8,-56.8,0,2018,5,17,21,14,25.651,-0.5322,0.4862,0.1827,0.6685
-0.106,0.091,-0.441,-36.1,-1.2,-52.7,0,2018,5,17,21,14,25.651,-0.5394,0.4837,0.1736,0.6669
-0.089,0.126,-0.449,-25.9,6.4,-48.1,0,2018,5,17,21,14,25.676,-0.5464,0.4813,0.1668,0.6647
-0.101,0.159,-0.454,-14.7,8.5,-42.4,0,2018,5,17,21,14,25.713,-0.5529,0.4795,0.1619,0.6618
-0.164,0.164,-0.461,-1.8,12.5,-35.2,0,2018,5,17,21,14,25.713,-0.5584,0.4786,0.1591,0.6584
-0.218,0.22,-0.418,9.4,21.5,-26.8,0,2018,5,17,21,14,25.735,-0.5633,0.4783,0.1589,0.6546
-0.192,0.242,-0.375,19.2,33.9,-18.9,0,2018,5,17,21,14,25.773,-0.5678,0.4779,0.1616,0.6503
-0.122,0.283,-0.328,26.7,45.6,-11,0,2018,5,17,21,14,25.796,-0.5722,0.477,0.1673,0.6457
-0.042,0.323,-0.299,31.6,54.4,-4.2,0,2018,5,17,21,14,25.801,-0.5763,0.4755,0.1753,0.641
-0.014,0.367,-0.29,36,58.9,2.3,0,2018,5,17,21,14,25.816,-0.5801,0.4735,0.185,0.6363
-0.045,0.405,-0.279,41.2,56.7,9.5,0,2018,5,17,21,14,25.835,-0.583,0.4716,0.1959,0.6318
-0.081,0.423,-0.269,47.1,48.8,18.5,0,2018,5,17,21,14,25.856,-0.5842,0.4706,0.2074,0.6277
-0.098,0.414,-0.247,54.2,38,28,0,2018,5,17,21,14,25.874,-0.5833,0.4709,0.2192,0.6243
-0.121,0.417,-0.193,61.7,28.4,37.5,0,2018,5,17,21,14,25.897,-0.5801,0.4726,0.2314,0.6216
-0.116,0.402,-0.117,67.3,21.2,48.3,0,2018,5,17,21,14,25.935,-0.5748,0.4754,0.2442,0.6195
-0.101,0.361,-0.061,71.6,17.5,56.4,0,2018,5,17,21,14,25.957,-0.5676,0.4787,0.2576,0.6181
-0.084,0.316,-0.029,76,13.4,63.8,0,2018,5,17,21,14,25.962,-0.559,0.4823,0.2717,0.6172
-0.066,0.258,0.002,80.4,7,69.8,0,2018,5,17,21,14,25.978,-0.5488,0.4865,0.286,0.6166
-0.063,0.191,0.056,83.4,3.8,75,0,2018,5,17,21,14,26,-0.5372,0.4911,0.3005,0.6162
-0.065,0.123,0.102,83.2,2.8,79.1,1023,2018,5,17,21,14,26.016,-0.5247,0.4957,0.3153,0.616
-0.049,0.068,0.143,81.6,0.5,83.9,1023,2018,5,17,21,14,26.033,-0.5114,0.4998,0.3301,0.6161
-0.05,-0.009,0.189,78.9,-1.1,86.8,1023,2018,5,17,21,14,26.059,-0.4978,0.5025,0.3441,0.6173
-0.035,-0.036,0.233,72.9,-4.8,90,1023,2018,5,17,21,14,26.076,-0.4838,0.5049,0.3577,0.6187
-0.033,-0.064,0.266,67,-20.6,92.8,1023,2018,5,17,21,14,26.099,-0.4684,0.5077,0.3703,0.6209
-0.021,-0.097,0.281,61,-43.3,95.6,1023,2018,5,17,21,14,26.116,-0.4511,0.511,0.3804,0.6249
-0.013,-0.15,0.29,55.6,-72.4,96.7,1023,2018,5,17,21,14,26.139,-0.4314,0.5154,0.3871,0.6311
-0.025,-0.239,0.308,49.9,-96.4,96.7,1023,2018,5,17,21,14,26.176,-0.4093,0.521,0.3902,0.6393
-0.017,-0.332,0.326,42.3,-110.6,94,0,2018,5,17,21,14,26.199,-0.3858,0.5269,0.3904,0.6488
-0.001,-0.41,0.322,35.3,-115.9,87.9,0,2018,5,17,21,14,26.204,-0.3622,0.5326,0.3883,0.6589
-0.007,-0.466,0.312,28.7,-114.5,78.4,0,2018,5,17,21,14,26.22,-0.3396,0.5377,0.3846,0.6689
-0.04,-0.534,0.31,23,-105.8,66.8,0,2018,5,17,21,14,26.242,-0.3189,0.5423,0.3799,0.678
-0.097,-0.596,0.333,16.9,-93.2,51.3,0,2018,5,17,21,14,26.278,-0.3012,0.5462,0.3748,0.6859
-0.179,-0.644,0.365,10.5,-78.3,34,0,2018,5,17,21,14,26.278,-0.287,0.5494,0.3692,0.6923
-0.269,-0.651,0.389,2.5,-67.6,14.2,0,2018,5,17,21,14,26.301,-0.2767,0.5522,0.3631,0.6975
-0.287,-0.641,0.366,-5.7,-61.4,-7.7,0,2018,5,17,21,14,26.318,-0.2703,0.5549,0.3554,0.7018
-0.215,-0.622,0.342,-13.2,-54.5,-30.8,0,2018,5,17,21,14,26.337,-0.2677,0.5576,0.3459,0.7054
-0.071,-0.569,0.323,-20.9,-50.7,-55.1,0,2018,5,17,21,14,26.36,-0.269,0.5605,0.3344,0.7081
0.07,-0.497,0.343,-27.9,-58.4,-82,0,2018,5,17,21,14,26.397,-0.2737,0.5639,0.3199,0.7103
0.15,-0.433,0.299,-33,-78.9,-108.5,0,2018,5,17,21,14,26.421,-0.2806,0.5686,0.3003,0.7125
0.049,-0.457,0.241,-33.3,-90.8,-129.7,0,2018,5,17,21,14,26.426,-0.2885,0.5748,0.2758,0.7142
-0.109,-0.47,0.21,-34.9,-79.1,-144.8,0,2018,5,17,21,14,26.442,-0.2986,0.5813,0.2494,0.7146
-0.253,-0.455,0.183,-40.8,-51.1,-152.2,0,2018,5,17,21,14,26.461,-0.3121,0.5862,0.224,0.7132
-0.323,-0.395,0.113,-49.7,-17.8,-153.9,0,2018,5,17,21,14,26.484,-0.3294,0.5881,0.2015,0.7105
-0.294,-0.322,0.034,-57.6,13.1,-151.7,1023,2018,5,17,21,14,26.5,-0.3501,0.5866,0.1825,0.707
-0.256,-0.224,-0.05,-63.4,35.1,-148.2,1023,2018,5,17,21,14,26.519,-0.373,0.582,0.1665,0.703
-0.221,-0.122,-0.107,-67.6,48.2,-146.2,1023,2018,5,17,21,14,26.541,-0.3971,0.5752,0.1524,0.6986
-0.203,-0.018,-0.151,-70.6,55.9,-143.4,1023,2018,5,17,21,14,26.558,-0.4217,0.5667,0.1395,0.6938
-0.21,0.07,-0.213,-70,53,-140.6,1023,2018,5,17,21,14,26.582,-0.4459,0.5572,0.1269,0.6888
-0.207,0.127,-0.262,-66.2,44.4,-139.4,1023,2018,5,17,21,14,26.599,-0.4688,0.5481,0.1137,0.6832
-0.198,0.188,-0.288,-60.7,38.5,-137.3,1023,2018,5,17,21,14,26.621,-0.4903,0.5397,0.1001,0.6769
-0.193,0.232,-0.322,-54.7,34,-133,1023,2018,5,17,21,14,26.659,-0.5105,0.532,0.0867,0.6698
-0.196,0.251,-0.356,-47.6,33.2,-126.2,1023,2018,5,17,21,14,26.682,-0.5293,0.5249,0.0739,0.6623
-0.201,0.27,-0.386,-40.9,39.6,-117,1023,2018,5,17,21,14,26.687,-0.5471,0.5179,0.0629,0.6545
-0.222,0.333,-0.417,-36.4,50.7,-104.8,1023,2018,5,17,21,14,26.703,-0.5641,0.5103,0.0543,0.6467
-0.243,0.419,-0.476,-33.7,68.2,-81.6,1023,2018,5,17,21,14,26.723,-0.5801,0.5013,0.0493,0.64
-0.123,0.489,-0.527,-29.7,84.2,-63.4,1023,2018,5,17,21,14,26.742,-0.5951,0.4903,0.0485,0.6348
-0.067,0.52,-0.591,-20.3,82.6,-49.8,1023,2018,5,17,21,14,26.765,-0.6086,0.4792,0.0504,0.6303
-0.114,0.529,-0.615,-3.9,70.9,-38.1,0,2018,5,17,21,14,26.784,-0.6199,0.47,0.0539,0.626
-0.316,0.598,-0.584,14.1,61,-19.3,0,2018,5,17,21,14,26.807,-0.6283,0.4638,0.0592,0.6216
-0.459,0.627,-0.556,29,61.9,9.3,0,2018,5,17,21,14,26.824,-0.6334,0.4596,0.0679,0.6187
-0.453,0.562,-0.541,44.2,68.3,31.1,0,2018,5,17,21,14,26.86,-0.6358,0.456,0.0807,0.6173
-0.326,0.483,-0.512,60.8,71.8,45.3,0,2018,5,17,21,14,26.883,-0.6364,0.4533,0.0974,0.6164
-0.175,0.481,-0.492,77.4,62.7,56.1,0,2018,5,17,21,14,26.888,-0.6349,0.4522,0.1165,0.6153
-0.163,0.486,-0.463,95.3,47.7,65.6,0,2018,5,17,21,14,26.921,-0.6308,0.4541,0.1368,0.614
-0.256,0.442,-0.415,113.6,38,72.8,0,2018,5,17,21,14,26.944,-0.6239,0.4589,0.1583,0.6122
-0.335,0.365,-0.305,128.4,44.4,76.1,0,2018,5,17,21,14,26.948,-0.6156,0.4654,0.1818,0.6093
-0.421,0.263,-0.168,136.7,63.4,79,0,2018,5,17,21,14,26.964,-0.6072,0.4712,0.208,0.6049
-0.419,0.123,-0.006,135.4,94.7,81.4,0,2018,5,17,21,14,26.984,-0.5999,0.4741,0.2374,0.599
-0.303,0.075,0.101,130.1,126.6,81.1,0,2018,5,17,21,14,27.002,-0.5948,0.4725,0.2698,0.5916
-0.212,0.047,0.097,126.3,139.9,78,0,2018,5,17,21,14,27.039,-0.591,0.4671,0.304,0.583
-0.193,0.017,0.103,125.8,132.1,73.3,0,2018,5,17,21,14,27.063,-0.5873,0.4609,0.3372,0.5733
-0.178,-0.083,0.238,125.7,120.6,69,0,2018,5,17,21,14,27.066,-0.5829,0.4557,0.3678,0.5631
-0.08,-0.128,0.503,119.5,111,62.6,0,2018,5,17,21,14,27.084,-0.5775,0.4515,0.3967,0.5523
-0.024,-0.162,0.614,109.2,97.7,58.2,0,2018,5,17,21,14,27.103,-0.5718,0.4477,0.4228,0.542
0.022,-0.275,0.625,97.2,91.5,55,0,2018,5,17,21,14,27.127,-0.5659,0.4438,0.4462,0.5325
0.023,-0.396,0.611,84.4,98.9,50.5,0,2018,5,17,21,14,27.145,-0.5611,0.4386,0.4679,0.5231
0.036,-0.47,0.609,70.4,106,42.2,1023,2018,5,17,21,14,27.168,-0.5583,0.4316,0.4883,0.5132
0.053,-0.529,0.583,57.8,111.8,30.8,1023,2018,5,17,21,14,27.186,-0.5576,0.4235,0.5069,0.5026
0.065,-0.558,0.531,46.4,122.5,18.4,1023,2018,5,17,21,14,27.208,-0.5594,0.4144,0.5238,0.4906
0.074,-0.575,0.467,36.8,138.2,4.1,1023,2018,5,17,21,14,27.226,-0.564,0.404,0.5397,0.4767
0.061,-0.533,0.454,27.4,152.3,-12,1023,2018,5,17,21,14,27.249,-0.5714,0.3926,0.5545,0.46
0.01,-0.494,0.446,15.6,160.8,-24.7,1023,2018,5,17,21,14,27.263,-0.5814,0.3804,0.5677,0.4413
-0.071,-0.493,0.404,1.8,169.1,-30.7,1023,2018,5,17,21,14,27.283,-0.5935,0.367,0.5792,0.4213
-0.083,-0.492,0.32,-14,174.1,-32.9,1023,2018,5,17,21,14,27.307,-0.6073,0.3518,0.5888,0.4008
-0.079,-0.459,0.22,-29.6,174.4,-31.4,0,2018,5,17,21,14,27.326,-0.6223,0.3349,0.5964,0.3805
-0.049,-0.426,0.107,-46.4,166.6,-26.7,0,2018,5,17,21,14,27.349,-0.6379,0.3166,0.6015,0.3617
-0.04,-0.433,-0.038,-61,158.8,-21.7,0,2018,5,17,21,14,27.368,-0.6538,0.2976,0.6041,0.3448
-0.107,-0.445,-0.183,-72,160.5,-15.4,0,2018,5,17,21,14,27.385,-0.6699,0.2773,0.6048,0.3293
-0.145,-0.43,-0.305,-78.9,166.2,-8.1,0,2018,5,17,21,14,27.41,-0.6862,0.2549,0.6044,0.3142
-0.165,-0.45,-0.408,-79.7,177.3,-0.4,0,2018,5,17,21,14,27.427,-0.702,0.2303,0.6037,0.299
-0.158,-0.439,-0.456,-79.4,190.2,6.8,0,2018,5,17,21,14,27.469,-0.7172,0.203,0.6034,0.283
-0.145,-0.479,-0.544,-76.7,193.3,11.1,0,2018,5,17,21,14,27.472,-0.7313,0.1739,0.603,0.2666
-0.105,-0.551,-0.579,-69.6,191.2,7.5,0,2018,5,17,21,14,27.486,-0.7439,0.1448,0.6026,0.2496
-0.075,-0.581,-0.583,-61.1,173.2,-0.4,0,2018,5,17,21,14,27.523,-0.7549,0.1178,0.6018,0.2324
-0.068,-0.607,-0.615,-51,143.3,-10.1,0,2018,5,17,21,14,27.544,-0.7639,0.0952,0.6005,0.2161
-0.113,-0.656,-0.608,-38.2,106.9,-20.6,0,2018,5,17,21,14,27.546,-0.771,0.0785,0.5989,0.2017
-0.101,-0.725,-0.557,-26.5,78.7,-34,0,2018,5,17,21,14,27.583,-0.7764,0.0682,0.5973,0.1889
-0.105,-0.793,-0.527,-20,83.3,-45.1,0,2018,5,17,21,14,27.604,-0.7809,0.0608,0.5963,0.1755
-0.176,-0.773,-0.51,-8.9,101.1,-69.9,0,2018,5,17,21,14,27.609,-0.7888,0.0461,0.5966,0.1401
-0.193,-0.775,-0.463,-4.6,99.1,-86.3,0,2018,5,17,21,14,27.643,-0.792,0.0402,0.5973,0.1189
-0.177,-0.707,-0.431,-0.6,94.5,-102.9,0,2018,5,17,21,14,27.664,-0.7947,0.0367,0.5982,0.0956
-0.186,-0.64,-0.396,3.5,96,-119.2,0,2018,5,17,21,14,27.67,-0.7968,0.0353,0.599,0.0703
-0.207,-0.542,-0.351,6.2,101.9,-134.3,0,2018,5,17,21,14,27.709,-0.7981,0.0348,0.5999,0.0421
-0.236,-0.442,-0.31,8,106.5,-146.8,0,2018,5,17,21,14,27.709,-0.7986,0.0351,0.6006,0.0115
-0.246,-0.33,-0.279,9.2,108.6,-156.7,1023,2018,5,17,21,14,27.728,-0.7982,0.036,0.6008,-0.0211
-0.231,-0.225,-0.256,10.3,104.3,-162.7,1023,2018,5,17,21,14,27.763,-0.7968,0.0378,0.6004,-0.0546
-0.223,-0.139,-0.233,11.3,92.9,-166.2,1023,2018,5,17,21,14,27.783,-0.7943,0.0412,0.5996,-0.088
-0.206,-0.059,-0.218,13.2,77.1,-167.3,1023,2018,5,17,21,14,27.787,-0.7906,0.0467,0.5985,-0.12
-0.198,0.007,-0.172,14.5,62.7,-165.4,1023,2018,5,17,21,14,27.822,-0.7858,0.0542,0.5974,-0.1503
-0.214,0.082,-0.152,12.1,49.9,-160.6,1023,2018,5,17,21,14,27.843,-0.7803,0.0631,0.5959,-0.1786
-0.202,0.114,-0.174,10.6,44.4,-151.4,1023,2018,5,17,21,14,27.851,-0.7744,0.0727,0.5941,-0.2047
-0.142,0.153,-0.194,10.2,47.8,-141.2,1023,2018,5,17,21,14,27.889,-0.7685,0.0812,0.5917,-0.2292
-0.105,0.2,-0.221,12.2,55.1,-129.6,1023,2018,5,17,21,14,27.909,-0.7624,0.0879,0.589,-0.2528
-0.211,0.314,-0.19,10.8,71.7,-114.1,0,2018,5,17,21,14,27.91,-0.7565,0.0915,0.5858,-0.2756
-0.193,0.46,-0.17,4,97,-95.7,0,2018,5,17,21,14,27.947,-0.7518,0.0907,0.5809,-0.2982
-0.164,0.553,-0.204,-4.6,117,-72.6,0,2018,5,17,21,14,27.968,-0.7491,0.0849,0.5736,-0.3201
-0.182,0.606,-0.348,-5.7,117.3,-48.3,0,2018,5,17,21,14,27.973,-0.7479,0.0756,0.5651,-0.3397
-0.183,0.672,-0.437,5,93.8,-29.6,0,2018,5,17,21,14,27.989,-0.747,0.0656,0.5581,-0.3552
-0.17,0.841,-0.428,18.2,57.1,-2,0,2018,5,17,21,14,28.01,-0.7456,0.0566,0.5547,-0.3647
-0.109,0.866,-0.386,33.2,13.8,26.6,0,2018,5,17,21,14,28.048,-0.7443,0.0491,0.556,-0.3665
-0.104,0.735,-0.321,48.2,-20.7,47.6,0,2018,5,17,21,14,28.068,-0.7427,0.0435,0.562,-0.3613
-0.138,0.655,-0.281,64.4,-41.4,65.4,0,2018,5,17,21,14,28.071,-0.7404,0.0385,0.5717,-0.3511
-0.195,0.586,-0.226,82.8,-52.8,85,0,2018,5,17,21,14,28.108,-0.7371,0.0326,0.5847,-0.337
-0.283,0.498,-0.135,99.6,-56.4,104.2,0,2018,5,17,21,14,28.129,-0.7328,0.0247,0.6001,-0.3195
-0.371,0.267,0.043,105.4,-31.4,119.6,0,2018,5,17,21,14,28.132,-0.7277,0.013,0.6163,-0.3005
-0.432,0.074,0.243,96.2,18.8,128.6,0,2018,5,17,21,14,28.169,-0.7229,-0.0049,0.6296,-0.2842
-0.328,0.087,0.24,86.4,46,128.9,0,2018,5,17,21,14,28.189,-0.7191,-0.0283,0.6388,-0.2718
-0.218,0.083,0.144,85.3,13.7,120.9,0,2018,5,17,21,14,28.19,-0.7151,-0.0508,0.647,-0.2594
-0.23,-0.505,0.474,73.3,-27,122.2,0,2018,5,17,21,14,28.227,-0.7118,-0.0641,0.6565,-0.2411
-0.044,0.025,0.347,63.6,34.7,109.7,0,2018,5,17,21,14,28.249,-0.7085,-0.0809,0.6631,-0.2272
-0.095,-0.123,0.368,61.5,-33.6,112,0,2018,5,17,21,14,28.253,-0.7055,-0.0967,0.669,-0.2125
0.117,-0.387,0.229,54.1,-6.7,111.1,0,2018,5,17,21,14,28.287,-0.7032,-0.1085,0.6748,-0.1952
0.062,-0.449,0.252,51.4,31.9,103.7,0,2018,5,17,21,14,28.31,-0.7002,-0.1249,0.6787,-0.1827
0.046,-0.425,0.39,45.9,34.9,95.5,1023,2018,5,17,21,14,28.314,-0.6965,-0.1426,0.6813,-0.1736
0.055,-0.458,0.392,35.9,24.7,86.4,1023,2018,5,17,21,14,28.35,-0.6936,-0.1582,0.683,-0.1651
0.072,-0.478,0.396,29.2,13.3,77.9,1023,2018,5,17,21,14,28.374,-0.6915,-0.1712,0.684,-0.1566
0.081,-0.503,0.397,24.8,-8,67.9,1023,2018,5,17,21,14,28.377,-0.6902,-0.181,0.6849,-0.1473
0.078,-0.576,0.402,22,-28,58,1023,2018,5,17,21,14,28.395,-0.6896,-0.1867,0.6861,-0.1367
0.066,-0.609,0.415,19.1,-38.4,45.7,1023,2018,5,17,21,14,28.416,-0.6894,-0.1893,0.6877,-0.1256
0.07,-0.69,0.423,14.5,-36.2,30.8,0,2018,5,17,21,14,28.451,-0.6895,-0.1896,0.6893,-0.1158
0.066,-0.737,0.432,9.9,-23.4,13.6,0,2018,5,17,21,14,28.451,-0.6894,-0.1889,0.6906,-0.1091
-0.033,-0.784,0.462,5.9,-5.1,-3.9,0,2018,5,17,21,14,28.473,-0.689,-0.1878,0.6917,-0.1066
-0.261,-0.869,0.526,-1.6,27.5,-19.6,0,2018,5,17,21,14,28.512,-0.6882,-0.1877,0.6922,-0.1093
-0.508,-0.896,0.571,-17.6,71.9,-34.9,0,2018,5,17,21,14,28.533,-0.6871,-0.1903,0.6909,-0.119
-0.548,-0.798,0.496,-36.1,101.6,-55.9,0,2018,5,17,21,14,28.535,-0.6864,-0.1947,0.6872,-0.1361
-0.3,-0.577,0.361,-51.5,100.7,-77.1,0,2018,5,17,21,14,28.569,-0.6864,-0.1981,0.6814,-0.1582
-0.087,-0.449,0.251,-59.7,72.1,-98.7,0,2018,5,17,21,14,28.59,-0.6875,-0.1964,0.6752,-0.181
-0.083,-0.438,0.221,-65.3,57.9,-121.1,0,2018,5,17,21,14,28.596,-0.6889,-0.1888,0.6693,-0.2039
-0.216,-0.383,0.201,-77.4,80.4,-141.2,0,2018,5,17,21,14,28.632,-0.6901,-0.1786,0.6626,-0.2295
-0.246,-0.066,0.112,-88.2,103.8,-133.1,0,2018,5,17,21,14,28.654,-0.691,-0.1701,0.6524,-0.2602
-0.324,-0.33,0.119,-93.2,74.1,-123.7,0,2018,5,17,21,14,28.657,-0.6927,-0.1622,0.6408,-0.2883
-0.413,-0.33,0.038,-103.6,57.8,-126.6,0,2018,5,17,21,14,28.673,-0.6953,-0.1507,0.6289,-0.3135
-0.361,-0.199,-0.089,-113.1,42.3,-125.7,0,2018,5,17,21,14,28.696,-0.6987,-0.1368,0.6159,-0.337
-0.329,-0.088,-0.2,-118.1,33.1,-125.2,0,2018,5,17,21,14,28.713,-0.7026,-0.1209,0.6023,-0.3589
-0.309,-0.029,-0.279,-117.1,26,-126,0,2018,5,17,21,14,28.735,-0.7062,-0.1038,0.5884,-0.3796
-0.318,-0.003,-0.333,-113.1,27.4,-129.5,1023,2018,5,17,21,14,28.754,-0.7087,-0.0862,0.5746,-0.4
-0.341,0.07,-0.399,-109,30.4,-131.3,1023,2018,5,17,21,14,28.777,-0.71,-0.069,0.5605,-0.4206
-0.335,0.146,-0.476,-102.2,27.7,-133.2,1023,2018,5,17,21,14,28.795,-0.7099,-0.0519,0.5466,-0.4409
-0.301,0.223,-0.526,-92.1,21.6,-134.8,1023,2018,5,17,21,14,28.817,-0.7083,-0.0347,0.5336,-0.4606
-0.259,0.272,-0.543,-80.5,16.9,-135.1,1023,2018,5,17,21,14,28.836,-0.7051,-0.0175,0.522,-0.4794
-0.252,0.313,-0.561,-69.4,16.5,-132.6,1023,2018,5,17,21,14,28.858,-0.7003,-0.001,0.5117,-0.4975
-0.228,0.347,-0.602,-58.9,19,-126.5,1023,2018,5,17,21,14,28.876,-0.6945,0.0139,0.5022,-0.5148
-0.23,0.359,-0.633,-46.5,26.3,-118.3,1023,2018,5,17,21,14,28.9,-0.688,0.0266,0.4935,-0.5313
-0.232,0.387,-0.658,-34.6,35.5,-109.8,1023,2018,5,17,21,14,28.936,-0.6809,0.0364,0.4851,-0.5474
-0.205,0.437,-0.675,-22,42.2,-100,1023,2018,5,17,21,14,28.936,-0.6734,0.0432,0.4772,-0.5629
-0.202,0.481,-0.689,-8.2,46,-86.8,1023,2018,5,17,21,14,28.958,-0.6656,0.0473,0.4703,-0.5774
-0.21,0.525,-0.706,7.9,49.3,-69.8,1023,2018,5,17,21,14,28.979,-0.658,0.0481,0.4647,-0.5903
-0.324,0.543,-0.699,29.3,52.4,-47.5,1023,2018,5,17,21,14,28.997,-0.6509,0.0451,0.4611,-0.6013
-0.35,0.515,-0.668,50.5,57.9,-25.1,1023,2018,5,17,21,14,29.019,-0.6442,0.0374,0.4596,-0.61
-0.256,0.49,-0.612,70.7,63.6,-7.4,0,2018,5,17,21,14,29.037,-0.638,0.0252,0.4598,-0.617
-0.143,0.499,-0.558,89.1,63.2,6.5,0,2018,5,17,21,14,29.06,-0.6317,0.0094,0.4618,-0.6224
-0.077,0.53,-0.531,107.5,55.7,20.4,0,2018,5,17,21,14,29.095,-0.6252,-0.0089,0.4661,-0.6257
-0.148,0.536,-0.486,127.7,45.7,37.1,0,2018,5,17,21,14,29.118,-0.6186,-0.0297,0.4733,-0.6263
-0.292,0.521,-0.409,145.1,39.1,55.4,0,2018,5,17,21,14,29.122,-0.6119,-0.0531,0.4831,-0.6239
-0.443,0.406,-0.31,158.2,39.1,73.5,0,2018,5,17,21,14,29.139,-0.6055,-0.0792,0.4945,-0.6184
-0.553,0.268,-0.154,164.1,55.2,88.2,0,2018,5,17,21,14,29.163,-0.5993,-0.1086,0.5052,-0.6112
-0.538,0.219,-0.025,163.8,78.8,99,0,2018,5,17,21,14,29.179,-0.5931,-0.1415,0.5131,-0.6039
-0.497,0.226,0.004,160.9,94.7,103.1,0,2018,5,17,21,14,29.215,-0.5867,-0.1767,0.5178,-0.5969
-0.438,0.191,0.019,157.4,104.2,104.5,0,2018,5,17,21,14,29.238,-0.5796,-0.2128,0.5202,-0.5899
-0.364,0.123,0.083,154.5,109.6,99.9,0,2018,5,17,21,14,29.243,-0.5716,-0.2489,0.5207,-0.5831
-0.311,0.091,0.24,151,109.7,93.9,0,2018,5,17,21,14,29.262,-0.5623,-0.2841,0.5202,-0.5765
-0.264,0.092,0.352,146.3,96.7,90.3,0,2018,5,17,21,14,29.28,-0.5526,-0.3173,0.5194,-0.5692
-0.235,0.027,0.415,142.3,77.7,88.9,0,2018,5,17,21,14,29.299,-0.5433,-0.3479,0.5195,-0.5601
-0.208,-0.105,0.5,136.3,66.8,85.4,0,2018,5,17,21,14,29.337,-0.5346,-0.376,0.5203,-0.5495
-0.158,-0.159,0.559,127.4,66.4,78.3,0,2018,5,17,21,14,29.358,-0.5259,-0.4021,0.5206,-0.539
-0.047,-0.244,0.563,118.4,69.6,67.7,0,2018,5,17,21,14,29.362,-0.5167,-0.4263,0.5203,-0.5296
0.051,-0.281,0.575,112.8,80.6,55,0,2018,5,17,21,14,29.399,-0.5061,-0.4491,0.5191,-0.5221
0.061,-0.347,0.614,104.6,100.1,44.5,0,2018,5,17,21,14,29.399,-0.4935,-0.4712,0.5166,-0.5171
-0.043,-0.443,0.676,90.9,130.2,37.3,0,2018,5,17,21,14,29.42,-0.4786,-0.4934,0.5111,-0.5158
-0.102,-0.532,0.714,72.6,167.6,30.4,0,2018,5,17,21,14,29.457,-0.4613,-0.516,0.5014,-0.519
-0.124,-0.547,0.702,50.9,206.3,23.1,1023,2018,5,17,21,14,29.478,-0.441,-0.5388,0.4866,-0.5275
-0.064,-0.455,0.633,27.6,226.2,14.6,1023,2018,5,17,21,14,29.48,-0.4184,-0.5604,0.4672,-0.5407
-0.002,-0.382,0.591,5.3,219.1,6.7,1023,2018,5,17,21,14,29.515,-0.3958,-0.5787,0.4459,-0.5563
-0.041,-0.32,0.581,-22.9,195.5,1.8,1023,2018,5,17,21,14,29.537,-0.3755,-0.5921,0.4244,-0.5728
-0.027,-0.346,0.443,-50.1,171.9,2.9,1023,2018,5,17,21,14,29.54,-0.3594,-0.6002,0.4033,-0.5898
-0.09,-0.371,0.359,-75,174.9,14,1023,2018,5,17,21,14,29.577,-0.3467,-0.6046,0.3807,-0.6075
-0.113,-0.451,0.185,-96.3,226,37,1023,2018,5,17,21,14,29.598,-0.3339,-0.6088,0.3513,-0.6279
-0.219,-0.292,0.123,-117.3,228.5,39.7,0,2018,5,17,21,14,29.602,-0.3191,-0.6128,0.314,-0.6511
-0.139,-0.359,-0.178,-123.8,106.5,37.3,0,2018,5,17,21,14,29.637,-0.3121,-0.6097,0.284,-0.6708
-0.189,-0.581,-0.207,-121.2,19.8,21.8,0,2018,5,17,21,14,29.659,-0.3155,-0.5998,0.2673,-0.6848
-0.234,-0.694,-0.226,-123.9,-4.7,-2.4,0,2018,5,17,21,14,29.663,-0.3221,-0.5855,0.2595,-0.6971
-0.364,-0.765,-0.393,-125.1,29.2,-23.2,0,2018,5,17,21,14,29.679,-0.325,-0.5701,0.2522,-0.711
-0.375,-0.715,-0.475,-116.9,51.8,-53.1,0,2018,5,17,21,14,29.701,-0.321,-0.5558,0.2435,-0.727
-0.273,-0.561,-0.488,-111.9,34.1,-83.1,0,2018,5,17,21,14,29.737,-0.3126,-0.5407,0.2381,-0.7437
-0.121,-0.495,-0.555,-103.4,8.6,-105.4,0,2018,5,17,21,14,29.76,-0.3026,-0.5237,0.2385,-0.7597
-0.197,-0.582,-0.732,-89.5,5.6,-122.2,0,2018,5,17,21,14,29.762,-0.2909,-0.5062,0.2431,-0.7745
-0.24,-0.603,-0.761,-70.3,12.9,-140.4,0,2018,5,17,21,14,29.798,-0.2755,-0.4902,0.2493,-0.7884
-0.325,-0.518,-0.7,-56.5,17.4,-161.3,0,2018,5,17,21,14,29.819,-0.2559,-0.4755,0.2569,-0.8014
-0.344,-0.374,-0.669,-46.7,20.1,-178.5,0,2018,5,17,21,14,29.824,-0.2326,-0.4613,0.266,-0.8137
-0.424,-0.269,-0.706,-37.5,26.4,-190.8,0,2018,5,17,21,14,29.86,-0.2062,-0.4474,0.2759,-0.8253
-0.454,-0.156,-0.656,-27.5,33.7,-202.8,0,2018,5,17,21,14,29.86,-0.1768,-0.4341,0.2855,-0.8358
-0.455,-0.04,-0.575,-20.2,35.9,-212.7,0,2018,5,17,21,14,29.88,-0.1448,-0.421,0.2952,-0.8453
-0.446,0.072,-0.538,-14.5,35.1,-217.4,0,2018,5,17,21,14,29.915,-0.1111,-0.4079,0.3051,-0.8532
-0.453,0.161,-0.535,-6.4,32.9,-217.9,0,2018,5,17,21,14,29.937,-0.0767,-0.3951,0.3151,-0.8594
-0.521,0.236,-0.536,6.2,36.5,-215.1,0,2018,5,17,21,14,29.944,-0.0418,-0.3833,0.3248,-0.8635
-0.635,0.369,-0.49,17.5,49.3,-198.1,0,2018,5,17,21,14,29.98,-0.0069,-0.3735,0.3321,-0.866
-0.611,0.431,-0.492,22.9,66.2,-171.8,0,2018,5,17,21,14,30.003,0.0259,-0.3657,0.3353,-0.8678
-0.448,0.478,-0.564,29.2,93.6,-143.2,0,2018,5,17,21,14,30.006,0.0562,-0.3599,0.3329,-0.8697
-0.243,0.602,-0.613,41.2,111.6,-113.7,1023,2018,5,17,21,14,30.041,0.0842,-0.3565,0.3245,-0.872
-0.151,0.708,-0.586,60.2,108,-86.9,1023,2018,5,17,21,14,30.062,0.1091,-0.3569,0.3129,-0.8733
-0.11,0.753,-0.506,76.5,100.7,-60.6,1023,2018,5,17,21,14,30.065,0.1305,-0.3614,0.3001,-0.873
-0.101,0.821,-0.437,88.2,94.1,-32.9,1023,2018,5,17,21,14,30.102,0.1479,-0.3693,0.2862,-0.8716
-0.104,0.773,-0.415,98.8,90.7,-8.9,1023,2018,5,17,21,14,30.124,0.1615,-0.38,0.271,-0.8694
-0.127,0.734,-0.429,110.9,95.5,14.2,1023,2018,5,17,21,14,30.127,0.1721,-0.3934,0.2537,-0.8667
-0.185,0.705,-0.42,124.5,99.3,38.9,1023,2018,5,17,21,14,30.143,0.1799,-0.4094,0.2334,-0.8634
-0.351,0.617,-0.393,135.4,100.2,64.5,1023,2018,5,17,21,14,30.165,0.1843,-0.4279,0.2104,-0.8594
-0.459,0.493,-0.327,141.2,103.9,83.8,1023,2018,5,17,21,14,30.203,0.1856,-0.4479,0.1848,-0.8547
-0.49,0.415,-0.269,142.1,104,95.9,1023,2018,5,17,21,14,30.225,0.1848,-0.4683,0.1574,-0.8495
-0.49,0.341,-0.237,142.8,99.4,101.3,0,2018,5,17,21,14,30.228,0.1822,-0.4886,0.1294,-0.8433
-0.466,0.311,-0.195,144.3,87.6,102.8,0,2018,5,17,21,14,30.263,0.1782,-0.5087,0.1023,-0.836
-0.478,0.214,-0.085,144.2,79.3,101.8,0,2018,5,17,21,14,30.285,0.173,-0.5287,0.0765,-0.8274
-0.465,0.113,0.071,139,76.2,98.6,0,2018,5,17,21,14,30.288,0.1675,-0.5479,0.0518,-0.8179
-0.418,0.067,0.155,131.2,64.3,95.4,0,2018,5,17,21,14,30.325,0.1614,-0.5657,0.028,-0.8081
-0.345,0.011,0.16,124.6,43,93.1,0,2018,5,17,21,14,30.346,0.1535,-0.5822,0.007,-0.7983
-0.253,-0.069,0.162,119.6,25.8,90,0,2018,5,17,21,14,30.35,0.1442,-0.5979,-0.0102,-0.7883
-0.181,-0.137,0.198,114.6,20.4,85.3,0,2018,5,17,21,14,30.366,0.1347,-0.6124,-0.0247,-0.7785
-0.131,-0.204,0.272,107.6,20.7,79.7,0,2018,5,17,21,14,30.404,0.1251,-0.6265,-0.039,-0.7682
-0.086,-0.251,0.334,98,26.3,73.1,0,2018,5,17,21,14,30.425,0.1167,-0.6392,-0.0526,-0.7582
-0.023,-0.304,0.331,86.8,40.2,67.2,0,2018,5,17,21,14,30.427,0.1102,-0.6499,-0.0666,-0.749
0.041,-0.367,0.345,76,60.1,60.6,0,2018,5,17,21,14,30.447,0.1066,-0.6586,-0.082,-0.7402
0.094,-0.407,0.383,64.2,79.2,52.9,0,2018,5,17,21,14,30.485,0.1064,-0.6654,-0.0989,-0.7321
0.132,-0.398,0.392,52.4,87.6,45.3,0,2018,5,17,21,14,30.507,0.109,-0.6703,-0.1165,-0.7247
0.148,-0.41,0.399,41,85.7,37.6,0,2018,5,17,21,14,30.51,0.113,-0.6735,-0.1332,-0.7181
0.157,-0.414,0.401,30.4,81,28.9,0,2018,5,17,21,14,30.545,0.1178,-0.6755,-0.1482,-0.7126
0.12,-0.47,0.414,20.2,82.1,20.3,0,2018,5,17,21,14,30.566,0.1236,-0.6762,-0.1617,-0.7079
0.026,-0.521,0.437,7.8,86.2,10.6,0,2018,5,17,21,14,30.57,0.1313,-0.6756,-0.1741,-0.7041
-0.1,-0.562,0.446,-6.4,96,0.6,1023,2018,5,17,21,14,30.585,0.1413,-0.6734,-0.186,-0.7013
-0.203,-0.539,0.421,-24.3,102.2,-10.3,1023,2018,5,17,21,14,30.607,0.1542,-0.6691,-0.1972,-0.6997
-0.211,-0.529,0.331,-41.1,96.5,-21.8,1023,2018,5,17,21,14,30.644,0.169,-0.6627,-0.2066,-0.6996
-0.101,-0.579,0.248,-53.3,91.9,-35.9,1023,2018,5,17,21,14,30.666,0.1851,-0.655,-0.2132,-0.7007
-0.014,-0.569,0.207,-63.8,86.7,-54.5,1023,2018,5,17,21,14,30.669,0.203,-0.6465,-0.2171,-0.7025
-0.002,-0.493,0.183,-72.9,65.6,-74.3,1023,2018,5,17,21,14,30.705,0.2223,-0.6376,-0.2168,-0.7049
-0.167,-0.571,0.168,-79.8,34.6,-94,1023,2018,5,17,21,14,30.726,0.2409,-0.6294,-0.2103,-0.7082
-0.377,-0.699,0.161,-91.5,30.5,-115.2,1023,2018,5,17,21,14,30.731,0.2604,-0.6212,-0.1988,-0.7118
-0.503,-0.667,0.105,-105.7,37.8,-131,1023,2018,5,17,21,14,30.767,0.2828,-0.6114,-0.185,-0.7154
-0.589,-0.659,-0.01,-120,39.1,-148.8,1023,2018,5,17,21,14,30.79,0.308,-0.5994,-0.1693,-0.719
-0.535,-0.517,-0.168,-127.5,25.7,-167,0,2018,5,17,21,14,30.792,0.3349,-0.5863,-0.1501,-0.7221
-0.501,-0.409,-0.23,-129,3,-183.7,0,2018,5,17,21,14,30.827,0.3616,-0.5734,-0.1263,-0.7241
-0.506,-0.291,-0.278,-127,-16.8,-199.3,0,2018,5,17,21,14,30.849,0.3877,-0.5615,-0.0979,-0.7243
-0.5,-0.157,-0.337,-123.1,-25.6,-208.8,0,2018,5,17,21,14,30.853,0.4131,-0.5502,-0.0664,-0.7225
-0.474,-0.021,-0.394,-117.3,-23.6,-210.6,0,2018,5,17,21,14,30.868,0.4383,-0.5388,-0.0343,-0.7185
-0.428,0.097,-0.445,-110.3,-17.3,-205.1,0,2018,5,17,21,14,30.906,0.4628,-0.5268,-0.0035,-0.7128
-0.396,0.196,-0.474,-103.8,-12.6,-194.9,0,2018,5,17,21,14,30.928,0.486,-0.5144,0.0252,-0.706
-0.357,0.277,-0.518,-97.8,-14.6,-181.1,0,2018,5,17,21,14,30.932,0.5072,-0.5019,0.0523,-0.6985
-0.331,0.356,-0.552,-90,-23.3,-164.9,0,2018,5,17,21,14,30.968,0.5255,-0.4902,0.0779,-0.6909
-0.313,0.422,-0.582,-80,-36.9,-148.1,0,2018,5,17,21,14,30.989,0.5403,-0.4804,0.1027,-0.6831
-0.268,0.475,-0.592,-67.8,-47.9,-130.6,0,2018,5,17,21,14,30.993,0.5517,-0.473,0.1264,-0.6751
-0.234,0.527,-0.593,-55.3,-53.4,-113.3,0,2018,5,17,21,14,31.028,0.5602,-0.4679,0.1484,-0.6671
-0.211,0.585,-0.592,-42.9,-55.1,-95,0,2018,5,17,21,14,31.05,0.5664,-0.4647,0.168,-0.6594
-0.206,0.628,-0.602,-30.2,-50.1,-73.4,0,2018,5,17,21,14,31.053,0.5706,-0.4633,0.1845,-0.6524
-0.211,0.64,-0.605,-16.1,-34.2,-47.7,0,2018,5,17,21,14,31.07,0.5732,-0.463,0.1965,-0.6468
-0.225,0.64,-0.598,-0.4,-5.6,-19.6,0,2018,5,17,21,14,31.092,0.575,-0.4629,0.2023,-0.6434
-0.237,0.627,-0.561,14,29,8.2,0,2018,5,17,21,14,31.128,0.5768,-0.4623,0.2005,-0.6428
-0.245,0.602,-0.533,27.6,65.4,37.6,0,2018,5,17,21,14,31.15,0.5788,-0.4606,0.1911,-0.6451
-0.298,0.594,-0.537,42,99.6,69.5,0,2018,5,17,21,14,31.156,0.5805,-0.4579,0.1737,-0.6504
-0.366,0.621,-0.541,59.1,120.4,101.8,0,2018,5,17,21,14,31.173,0.581,-0.4547,0.1488,-0.6583
-0.464,0.592,-0.529,79.2,121.8,134,0,2018,5,17,21,14,31.209,0.5785,-0.4531,0.1182,-0.6677
-0.544,0.5,-0.481,99.8,111.3,163.7,1023,2018,5,17,21,14,31.233,0.5717,-0.4545,0.0835,-0.6778
-0.603,0.41,-0.376,120.7,94.9,185.9,1023,2018,5,17,21,14,31.236,0.5602,-0.4595,0.0462,-0.6876
-0.593,0.378,-0.242,137,69.4,196.8,1023,2018,5,17,21,14,31.254,0.5441,-0.4682,0.0081,-0.696
-0.549,0.33,-0.134,143.8,39.3,196.3,1023,2018,5,17,21,14,31.272,0.5242,-0.48,-0.0279,-0.7027
-0.602,0.227,-0.071,143.4,16.3,191.4,1023,2018,5,17,21,14,31.297,0.5014,-0.4939,-0.0606,-0.7076
-0.686,0.049,0.012,134.5,11.8,183.7,1023,2018,5,17,21,14,31.316,0.4774,-0.5077,-0.0904,-0.7114
-0.647,-0.021,0.071,119.3,21.3,171,1023,2018,5,17,21,14,31.334,0.4545,-0.5188,-0.1187,-0.7142
-0.564,0.008,0.093,107.8,16.9,156.2,1023,2018,5,17,21,14,31.352,0.4334,-0.5275,-0.1449,-0.716
-0.486,0.008,0.106,101.4,-5.3,143.6,0,2018,5,17,21,14,31.374,0.412,-0.5361,-0.1679,-0.7172
-0.401,-0.043,0.14,97.3,-34.7,130.8,0,2018,5,17,21,14,31.392,0.3896,-0.5458,-0.1855,-0.7181
-0.297,-0.083,0.191,93.1,-61.4,117.8,0,2018,5,17,21,14,31.415,0.3663,-0.5566,-0.1973,-0.719
-0.173,-0.144,0.266,88.6,-76.7,107.7,0,2018,5,17,21,14,31.433,0.3425,-0.568,-0.2045,-0.7198
-0.097,-0.228,0.329,81.7,-80.8,100.8,0,2018,5,17,21,14,31.455,0.3184,-0.5795,-0.2099,-0.7201
-0.033,-0.296,0.364,73.6,-78.6,95.3,0,2018,5,17,21,14,31.474,0.295,-0.59,-0.2139,-0.7204
0.006,-0.35,0.447,62.2,-66.1,92.2,0,2018,5,17,21,14,31.494,0.273,-0.5987,-0.2179,-0.7207
0.04,-0.369,0.462,43.8,-49.8,88.6,0,2018,5,17,21,14,31.534,0.2536,-0.6044,-0.2226,-0.7215
0.078,-0.38,0.413,25.6,-40,84.2,0,2018,5,17,21,14,31.555,0.2368,-0.6072,-0.2277,-0.7233
0.105,-0.422,0.369,9.6,-44.5,78.9,0,2018,5,17,21,14,31.561,0.2214,-0.6078,-0.2318,-0.7265
0.101,-0.453,0.334,-3.1,-55.6,72.8,0,2018,5,17,21,14,31.577,0.2063,-0.6069,-0.2336,-0.731
0.067,-0.476,0.308,-11.5,-66.7,65.9,0,2018,5,17,21,14,31.594,0.1912,-0.6052,-0.2327,-0.7368
0.017,-0.515,0.282,-17.1,-67.2,58.2,0,2018,5,17,21,14,31.617,0.1766,-0.603,-0.2299,-0.7431
-0.028,-0.572,0.261,-22.7,-56.7,47.8,0,2018,5,17,21,14,31.637,0.1639,-0.6001,-0.2268,-0.7492
-0.017,-0.558,0.238,-29.4,-49.8,33.1,0,2018,5,17,21,14,31.655,0.1542,-0.5965,-0.2235,-0.7552
0.025,-0.535,0.195,-33,-55.3,14.1,0,2018,5,17,21,14,31.677,0.1469,-0.5928,-0.2182,-0.7611
0.082,-0.5,0.147,-32.9,-67.3,-9.1,0,2018,5,17,21,14,31.694,0.1415,-0.5898,-0.2094,-0.7669
0.123,-0.478,0.118,-30,-77.5,-33.5,0,2018,5,17,21,14,31.717,0.1381,-0.5881,-0.1965,-0.7722
0.106,-0.414,0.115,-26.4,-77.9,-56.6,0,2018,5,17,21,14,31.736,0.1371,-0.5877,-0.1805,-0.7766
0.025,-0.379,0.127,-23.3,-65.5,-74.1,0,2018,5,17,21,14,31.758,0.1394,-0.5881,-0.1632,-0.7797
-0.095,-0.356,0.132,-23.2,-41.7,-88.3,1023,2018,5,17,21,14,31.777,0.1457,-0.5884,-0.147,-0.7815
-0.23,-0.317,0.1,-24.7,-15.6,-97.9,1023,2018,5,17,21,14,31.794,0.1563,-0.5882,-0.1328,-0.7822
-0.383,-0.28,0.108,-28.1,13.8,-102.4,1023,2018,5,17,21,14,31.816,0.1705,-0.5868,-0.1217,-0.782
-0.49,-0.198,0.144,-39.9,36.6,-108.1,1023,2018,5,17,21,14,31.853,0.1888,-0.5837,-0.113,-0.7815
-0.449,-0.007,0.11,-55,28.9,-118.1,1023,2018,5,17,21,14,31.876,0.2091,-0.5782,-0.1044,-0.7816
-0.275,0.099,0.037,-66.5,-10.3,-133.7,1023,2018,5,17,21,14,31.88,0.2279,-0.5717,-0.0913,-0.7827
-0.179,0.151,0.018,-72.3,-61.3,-152,1023,2018,5,17,21,14,31.899,0.2447,-0.5657,-0.0693,-0.7843
-0.301,0.139,0.126,-77.1,-104.1,-166.3,1023,2018,5,17,21,14,31.917,0.259,-0.5608,-0.0387,-0.7854
-0.492,0.075,0.128,-83.8,-126.3,-173.6,0,2018,5,17,21,14,31.94,0.2711,-0.5557,-0.0023,-0.7859
-0.643,0.099,0.085,-89.3,-125.6,-172.1,0,2018,5,17,21,14,31.957,0.2823,-0.5495,0.036,-0.7855
-0.583,0.156,0.035,-95.9,-105.9,-166.5,0,2018,5,17,21,14,31.98,0.2935,-0.541,0.0728,-0.7847
-0.494,0.23,0.01,-103.7,-82.2,-156.3,0,2018,5,17,21,14,32.016,0.3053,-0.5296,0.1058,-0.7842
-0.401,0.387,-0.022,-110.7,-62.2,-144.1,0,2018,5,17,21,14,32.039,0.3171,-0.5156,0.1351,-0.7843
-0.307,0.494,-0.109,-114.3,-50,-129.1,0,2018,5,17,21,14,32.043,0.3279,-0.4996,0.1611,-0.7853
-0.262,0.583,-0.21,-111.4,-43.4,-114.8,0,2018,5,17,21,14,32.056,0.3372,-0.4831,0.1845,-0.7865
-0.277,0.686,-0.259,-106.3,-29.7,-96,0,2018,5,17,21,14,32.08,0.345,-0.4668,0.2049,-0.788
-0.263,0.918,-0.325,-103.4,-15.5,-65.1,0,2018,5,17,21,14,32.096,0.3505,-0.4506,0.2207,-0.7907
-0.299,1.004,-0.418,-97.2,-14.9,-28.1,0,2018,5,17,21,14,32.118,0.3517,-0.4358,0.2324,-0.7951
-0.34,0.967,-0.478,-89.7,-14.3,5.5,0,2018,5,17,21,14,32.156,0.3482,-0.4233,0.241,-0.8008
-0.386,0.939,-0.519,-83.2,-14.2,36.6,0,2018,5,17,21,14,32.179,0.3404,-0.4129,0.2465,-0.8079
-0.527,0.941,-0.573,-77.5,-22.5,67.3,0,2018,5,17,21,14,32.184,0.3282,-0.4049,0.25,-0.8159
-0.707,0.931,-0.616,-70.5,-34,96.4,0,2018,5,17,21,14,32.201,0.311,-0.3995,0.2524,-0.8245
-0.79,0.871,-0.656,-64.2,-43.4,121.7,0,2018,5,17,21,14,32.237,0.2894,-0.3967,0.254,-0.8332
-0.748,0.756,-0.664,-56.8,-47.3,141.7,0,2018,5,17,21,14,32.259,0.2641,-0.396,0.2545,-0.8417
-0.689,0.693,-0.654,-49,-56.9,157.6,0,2018,5,17,21,14,32.264,0.236,-0.3971,0.254,-0.8497
-0.648,0.573,-0.646,-40.3,-77,170,0,2018,5,17,21,14,32.28,0.2049,-0.4003,0.2543,-0.8561
-0.606,0.439,-0.636,-30.5,-91.6,180.2,0,2018,5,17,21,14,32.299,0.1709,-0.4056,0.256,-0.8605
-0.617,0.238,-0.59,-21.9,-84.8,187,0,2018,5,17,21,14,32.321,0.1357,-0.4124,0.2569,-0.8633
-0.572,0.195,-0.591,-14.6,-90.3,191.6,1023,2018,5,17,21,14,32.34,0.1001,-0.4199,0.2564,-0.8647
-0.541,0.146,-0.594,-0.9,-116,200,1023,2018,5,17,21,14,32.362,0.0624,-0.4288,0.2575,-0.8636
-0.589,-0.073,-0.476,14.1,-136.2,208.6,1023,2018,5,17,21,14,32.381,0.0218,-0.4401,0.261,-0.8588
-0.621,-0.282,-0.318,19.8,-142.3,211.2,1023,2018,5,17,21,14,32.403,-0.02,-0.4524,0.2653,-0.8511
-0.535,-0.385,-0.27,19.7,-149.8,202.8,1023,2018,5,17,21,14,32.421,-0.0616,-0.4639,0.2702,-0.8413
-0.349,-0.392,-0.293,22.3,-172.2,188.9,1023,2018,5,17,21,14,32.443,-0.1025,-0.474,0.2778,-0.8291
-0.203,-0.471,-0.189,18.2,-190.6,171.3,1023,2018,5,17,21,14,32.461,-0.1429,-0.4819,0.2894,-0.8145
-0.11,-0.528,-0.14,5.1,-190.2,153.8,1023,2018,5,17,21,14,32.503,-0.1817,-0.4864,0.3029,-0.7991
-0.015,-0.552,-0.194,-5.6,-180.9,137.2,1023,2018,5,17,21,14,32.505,-0.2178,-0.4875,0.316,-0.7841
0.124,-0.617,-0.213,-10.7,-170.4,122.4,1023,2018,5,17,21,14,32.523,-0.2509,-0.4863,0.3284,-0.7697
0.151,-0.622,-0.097,-13.9,-159.5,109.7,0,2018,5,17,21,14,32.544,-0.281,-0.4837,0.3399,-0.7559
0.077,-0.554,-0.029,-17,-157.4,100.6,0,2018,5,17,21,14,32.56,-0.309,-0.4798,0.3508,-0.7423
0.069,-0.498,-0.053,-22,-157.1,91.5,0,2018,5,17,21,14,32.582,-0.3358,-0.4744,0.3619,-0.7287
0.097,-0.473,-0.078,-26.5,-157,80.4,0,2018,5,17,21,14,32.619,-0.3612,-0.4672,0.3731,-0.7154
0.089,-0.44,-0.069,-31,-161.4,67.3,0,2018,5,17,21,14,32.641,-0.3851,-0.4581,0.3849,-0.7025
0.04,-0.391,-0.053,-35.7,-163.7,58.6,0,2018,5,17,21,14,32.644,-0.408,-0.4469,0.3974,-0.6897
-0.001,-0.326,-0.076,-39.2,-166.5,49.7,0,2018,5,17,21,14,32.681,-0.4299,-0.434,0.4101,-0.6771
-0.031,-0.23,-0.147,-37.5,-173,42.7,0,2018,5,17,21,14,32.681,-0.451,-0.4196,0.4234,-0.6641
-0.045,-0.178,-0.183,-32.2,-174.1,35.8,0,2018,5,17,21,14,32.702,-0.4709,-0.4042,0.4378,-0.6504
-0.078,-0.083,-0.179,-28,-160.9,30.7,0,2018,5,17,21,14,32.739,-0.4888,-0.3891,0.4518,-0.6367
-0.036,0.132,-0.255,-20.7,-130.5,27.3,0,2018,5,17,21,14,32.739,-0.5183,-0.3625,0.4748,-0.6118
-0.055,0.219,-0.283,-12.5,-124.9,28.1,0,2018,5,17,21,14,32.761,-0.5308,-0.3511,0.4849,-0.5996
-0.118,0.269,-0.312,-3,-121.2,37.3,0,2018,5,17,21,14,32.799,-0.5427,-0.3412,0.4948,-0.5866
-0.126,0.28,-0.293,7.6,-119,45,0,2018,5,17,21,14,32.82,-0.5537,-0.3335,0.5047,-0.572
-0.13,0.246,-0.251,17.6,-122.2,52.5,0,2018,5,17,21,14,32.823,-0.5643,-0.3275,0.515,-0.5558
-0.162,0.204,-0.191,26.9,-127,59.3,0,2018,5,17,21,14,32.86,-0.5747,-0.3223,0.526,-0.5376
-0.193,0.138,-0.145,34.5,-127.1,64.4,0,2018,5,17,21,14,32.882,-0.5847,-0.318,0.5374,-0.5176
-0.171,0.072,-0.072,39.9,-116.8,67.3,0,2018,5,17,21,14,32.884,-0.5937,-0.3153,0.5486,-0.497
-0.155,0.015,0.009,42,-104.5,69.1,0,2018,5,17,21,14,32.921,-0.6015,-0.3147,0.5587,-0.4763
-0.106,-0.047,0.056,40.3,-97.2,68.9,1023,2018,5,17,21,14,32.943,-0.6086,-0.3143,0.5674,-0.4568
-0.038,-0.106,0.07,37.9,-93,68.6,1023,2018,5,17,21,14,32.946,-0.6152,-0.3136,0.5752,-0.4383
0.017,-0.173,0.09,37,-90.8,68.6,1023,2018,5,17,21,14,32.983,-0.6215,-0.3131,0.5824,-0.4199
0.041,-0.255,0.199,34.2,-97.9,68,1023,2018,5,17,21,14,32.983,-0.6279,-0.3125,0.5892,-0.4009
0.074,-0.38,0.277,27.1,-119.6,64.5,1023,2018,5,17,21,14,33.004,-0.6352,-0.3094,0.5964,-0.3806
0.068,-0.553,0.324,14.7,-114.8,59,1023,2018,5,17,21,14,33.041,-0.6433,-0.304,0.6033,-0.36
0.141,-0.518,0.287,1,-102.3,51.2,1023,2018,5,17,21,14,33.063,-0.6516,-0.2981,0.6077,-0.3421
0.174,-0.603,0.253,-5,-94.7,41.5,1023,2018,5,17,21,14,33.065,-0.6597,-0.2916,0.6108,-0.3264
0.111,-0.699,0.323,-10.1,-77.5,31.4,1023,2018,5,17,21,14,33.103,-0.6669,-0.2851,0.6128,-0.3134
0.046,-0.705,0.425,-15.9,-67.8,17.6,0,2018,5,17,21,14,33.124,-0.6731,-0.2787,0.6139,-0.3036
-0.021,-0.673,0.446,-20.6,-75,-0.9,0,2018,5,17,21,14,33.128,-0.6789,-0.2704,0.615,-0.296
-0.039,-0.615,0.394,-24.5,-93.5,-22.8,0,2018,5,17,21,14,33.164,-0.6846,-0.2578,0.6171,-0.2895
-0.072,-0.584,0.376,-27.6,-116,-44,0,2018,5,17,21,14,33.185,-0.6904,-0.2402,0.6207,-0.2833
-0.125,-0.666,0.427,-32,-122.5,-64.1,0,2018,5,17,21,14,33.187,-0.6957,-0.2181,0.6253,-0.2779
-0.104,-0.635,0.4,-38.4,-115.6,-82.1,0,2018,5,17,21,14,33.225,-0.7003,-0.1938,0.6294,-0.2751
-0.029,-0.556,0.358,-43,-110.9,-97.7,0,2018,5,17,21,14,33.225,-0.7041,-0.1681,0.6326,-0.2751
0.041,-0.5,0.326,-48.2,-109.2,-112.2,0,2018,5,17,21,14,33.246,-0.707,-0.1405,0.6351,-0.2771
0.029,-0.496,0.286,-52.6,-93.7,-123.1,0,2018,5,17,21,14,33.283,-0.7091,-0.1123,0.6365,-0.2815
0.008,-0.411,0.228,-56.5,-71.5,-132.4,0,2018,5,17,21,14,33.305,-0.7102,-0.0851,0.636,-0.2892
-0.019,-0.309,0.172,-57.8,-53.1,-138.8,0,2018,5,17,21,14,33.307,-0.7104,-0.0595,0.6338,-0.3
-0.038,-0.209,0.116,-57.1,-37.2,-142.4,0,2018,5,17,21,14,33.342,-0.7096,-0.0354,0.6302,-0.313
-0.056,-0.081,0.07,-55.8,-27.4,-145.1,0,2018,5,17,21,14,33.363,-0.7079,-0.0121,0.6253,-0.328
-0.075,0.026,0.013,-53,-19.1,-142,0,2018,5,17,21,14,33.366,-0.7055,0.0093,0.6199,-0.3432
-0.1,0.118,-0.033,-49.5,-10.8,-134.6,0,2018,5,17,21,14,33.403,-0.7026,0.0282,0.6143,-0.3577
-0.119,0.182,-0.075,-45.9,-1.4,-122.9,0,2018,5,17,21,14,33.424,-0.6995,0.0458,0.608,-0.3725
-0.123,0.24,-0.106,-41.7,7.7,-108.8,0,2018,5,17,21,14,33.427,-0.6965,0.0605,0.6014,-0.3866
-0.089,0.313,-0.133,-38,15.2,-92.7,0,2018,5,17,21,14,33.464,-0.6939,0.0722,0.5946,-0.3995
-0.03,0.398,-0.15,-33.2,20.1,-75.9,0,2018,5,17,21,14,33.485,-0.6918,0.0812,0.5879,-0.4111
0.006,0.474,-0.168,-27.9,26.6,-55.6,0,2018,5,17,21,14,33.487,-0.6905,0.0874,0.5815,-0.421
0.03,0.509,-0.203,-21.1,37.1,-34,1023,2018,5,17,21,14,33.525,-0.6902,0.0898,0.5755,-0.4291
-0.011,0.547,-0.227,-11.2,49.1,-12,1023,2018,5,17,21,14,33.546,-0.6908,0.088,0.5699,-0.4359
-0.06,0.56,-0.242,-0.4,60.3,9.2,1023,2018,5,17,21,14,33.548,-0.6922,0.0821,0.565,-0.4413
-0.099,0.557,-0.247,8.9,69,29.8,1023,2018,5,17,21,14,33.585,-0.6943,0.0722,0.5607,-0.4452
-0.106,0.567,-0.278,17.4,72.4,47.9,1023,2018,5,17,21,14,33.607,-0.697,0.0588,0.5571,-0.4475
-0.199,0.592,-0.322,27.6,69.4,65.7,1023,2018,5,17,21,14,33.61,-0.6999,0.0429,0.5548,-0.4476
-0.36,0.598,-0.336,40.8,59.8,86.2,1023,2018,5,17,21,14,33.645,-0.7029,0.0247,0.5544,-0.4448
-0.403,0.499,-0.336,52.6,50.2,103.6,1023,2018,5,17,21,14,33.668,-0.7057,0.0049,0.5563,-0.4385
-0.316,0.416,-0.295,62.3,43.5,114.1,0,2018,5,17,21,14,33.67,-0.7082,-0.0162,0.5599,-0.4296
-0.234,0.388,-0.263,73,28.9,118.5,0,2018,5,17,21,14,33.706,-0.7099,-0.0375,0.5651,-0.4185
-0.241,0.329,-0.218,83,6.3,120.6,0,2018,5,17,21,14,33.706,-0.7104,-0.0576,0.5727,-0.4049
-0.277,0.208,-0.114,88.6,-12,119.4,0,2018,5,17,21,14,33.726,-0.71,-0.0754,0.5823,-0.3886
-0.271,0.13,-0.034,90.3,-22.6,115.6,0,2018,5,17,21,14,33.763,-0.7088,-0.0911,0.5929,-0.3709
-0.287,0.058,0.036,93.2,-27.4,114.5,0,2018,5,17,21,14,33.786,-0.7069,-0.1062,0.604,-0.3521
-0.295,-0.019,0.104,92.9,-22.4,116.4,0,2018,5,17,21,14,33.788,-0.7045,-0.1217,0.6147,-0.3329
-0.281,-0.143,0.135,88.8,-8.3,118.7,0,2018,5,17,21,14,33.825,-0.7018,-0.1379,0.6238,-0.3148
-0.209,-0.185,0.168,82.1,5.5,118,0,2018,5,17,21,14,33.846,-0.6988,-0.1554,0.6309,-0.2988
-0.158,-0.224,0.164,77,14.3,117.6,0,2018,5,17,21,14,33.851,-0.6956,-0.174,0.6367,-0.2833
-0.103,-0.254,0.213,71.1,17.4,115.6,0,2018,5,17,21,14,33.887,-0.6924,-0.1928,0.6411,-0.2687
-0.078,-0.314,0.301,63.5,12.9,114,0,2018,5,17,21,14,33.91,-0.6894,-0.2109,0.6445,-0.2543
-0.037,-0.365,0.344,53.8,1.3,111.8,0,2018,5,17,21,14,33.913,-0.6873,-0.2272,0.6469,-0.2394
0.04,-0.375,0.333,45.8,-16.4,107.9,0,2018,5,17,21,14,33.929,-0.6864,-0.2409,0.6486,-0.2234
0.043,-0.453,0.4,36.1,-39.2,102.3,0,2018,5,17,21,14,33.966,-0.6868,-0.2513,0.65,-0.2059
0.049,-0.517,0.434,26.6,-70.8,91.1,0,2018,5,17,21,14,33.987,-0.689,-0.2571,0.6513,-0.1868
0.059,-0.569,0.436,19.5,-103.7,75.8,0,2018,5,17,21,14,33.991,-0.6928,-0.2571,0.6529,-0.1658
0.091,-0.627,0.411,14.5,-131,56.7,0,2018,5,17,21,14,34.027,-0.6979,-0.2509,0.6552,-0.1435
0.124,-0.698,0.408,12,-142.8,35,0,2018,5,17,21,14,34.047,-0.7034,-0.2394,0.658,-0.1215
0.131,-0.737,0.433,10.5,-132.4,13.7,1023,2018,5,17,21,14,34.053,-0.7082,-0.2252,0.6612,-0.1021
0.124,-0.724,0.436,7.5,-108.2,-6.6,1023,2018,5,17,21,14,34.089,-0.7118,-0.2108,0.6642,-0.0874
0.086,-0.792,0.437,3.6,-70.8,-26.2,1023,2018,5,17,21,14,34.111,-0.7141,-0.1979,0.6667,-0.0789
0,-0.804,0.432,-1.4,-25,-44.4,1023,2018,5,17,21,14,34.114,-0.715,-0.1882,0.6687,-0.078
-0.153,-0.79,0.439,-7.8,14.4,-57.7,1023,2018,5,17,21,14,34.15,-0.7149,-0.1818,0.6698,-0.0841
-0.337,-0.813,0.474,-17.6,53,-68,1023,2018,5,17,21,14,34.172,-0.7143,-0.1786,0.6697,-0.0965
-0.467,-0.778,0.473,-32.6,91,-78.1,1023,2018,5,17,21,14,34.175,-0.7136,-0.1786,0.6674,-0.115
-0.469,-0.653,0.382,-48.1,110.7,-90.9,1023,2018,5,17,21,14,34.189,-0.7133,-0.1805,0.6627,-0.1388
-0.359,-0.494,0.271,-60.7,108.3,-104.5,1023,2018,5,17,21,14,34.228,-0.7135,-0.1816,0.656,-0.1656
-0.269,-0.41,0.186,-70.2,97.9,-118.7,1023,2018,5,17,21,14,34.25,-0.7143,-0.1796,0.6481,-0.1933
-0.379,-0.393,0.148,-80.4,99.6,-132,0,2018,5,17,21,14,34.253,-0.7152,-0.1748,0.6391,-0.2222
-0.5,-0.269,0.129,-93.8,110,-135.9,0,2018,5,17,21,14,34.291,-0.7161,-0.1696,0.6277,-0.2534
-0.6,-0.27,0.057,-104.7,99.9,-136,0,2018,5,17,21,14,34.311,-0.7171,-0.1624,0.6146,-0.2853
-0.639,-0.219,-0.051,-114.2,95.5,-135.4,0,2018,5,17,21,14,34.314,-0.7188,-0.1543,0.5997,-0.3159
-0.564,-0.147,-0.183,-119.8,84.1,-135.4,0,2018,5,17,21,14,34.348,-0.7207,-0.1449,0.5833,-0.3453
-0.473,-0.066,-0.266,-120.9,70.2,-137.4,0,2018,5,17,21,14,34.371,-0.7224,-0.1333,0.5666,-0.3731
-0.441,0.019,-0.327,-120.3,59.9,-139.5,0,2018,5,17,21,14,34.376,-0.7234,-0.1198,0.55,-0.3996
-0.415,0.075,-0.381,-117.3,46.3,-142,0,2018,5,17,21,14,34.412,-0.7234,-0.1046,0.534,-0.4247
-0.39,0.117,-0.434,-113.4,36.2,-144.9,0,2018,5,17,21,14,34.432,-0.7224,-0.0877,0.5188,-0.4485
-0.372,0.162,-0.488,-107.8,29.4,-146,0,2018,5,17,21,14,34.435,-0.7201,-0.0699,0.5043,-0.4713
-0.372,0.204,-0.532,-101.8,23.9,-145.7,0,2018,5,17,21,14,34.47,-0.7166,-0.0518,0.4905,-0.493
-0.394,0.251,-0.577,-96,17.8,-144.3,0,2018,5,17,21,14,34.492,-0.712,-0.0334,0.4774,-0.5137
-0.411,0.288,-0.653,-89.7,12.5,-141,0,2018,5,17,21,14,34.495,-0.7065,-0.015,0.4652,-0.533
-0.42,0.312,-0.728,-81.1,12.4,-135.6,0,2018,5,17,21,14,34.53,-0.7003,0.0026,0.4537,-0.551
-0.408,0.354,-0.775,-70.8,15.6,-129.6,0,2018,5,17,21,14,34.553,-0.6933,0.0186,0.4429,-0.5681
-0.413,0.405,-0.837,-59,16.9,-122.1,0,2018,5,17,21,14,34.555,-0.6856,0.0328,0.4328,-0.5842
-0.424,0.457,-0.922,-45.3,14,-111.8,0,2018,5,17,21,14,34.591,-0.6775,0.045,0.4242,-0.599
-0.418,0.501,-1.033,-24.4,3.7,-101.9,0,2018,5,17,21,14,34.612,-0.669,0.0554,0.4182,-0.6119
-0.393,0.539,-1.054,4.5,-5.7,-92.4,0,2018,5,17,21,14,34.617,-0.6592,0.0638,0.4163,-0.6229
-0.4,0.563,-0.985,31,-12.4,-80.2,1023,2018,5,17,21,14,34.633,-0.6483,0.0691,0.4184,-0.6323
-0.375,0.593,-0.916,58.4,-13.6,-64.9,1023,2018,5,17,21,14,34.655,-0.6367,0.071,0.4242,-0.64
-0.238,0.625,-0.871,87.6,-0.6,-44.5,1023,2018,5,17,21,14,34.692,-0.6249,0.0677,0.4325,-0.6463
-0.154,0.616,-0.757,118.9,27.5,-22.6,1023,2018,5,17,21,14,34.714,-0.6134,0.057,0.4419,-0.652
-0.221,0.595,-0.595,147.9,68.5,-0.6,1023,2018,5,17,21,14,34.716,-0.602,0.0374,0.4505,-0.658
-0.379,0.645,-0.419,168.6,108.7,19.7,1023,2018,5,17,21,14,34.753,-0.5909,0.0088,0.4568,-0.6648
-0.423,0.663,-0.367,182,134,41.1,1023,2018,5,17,21,14,34.775,-0.5802,-0.0267,0.4603,-0.6713
-0.506,0.524,-0.347,197,151.9,56.5,1023,2018,5,17,21,14,34.779,-0.5696,-0.0674,0.4621,-0.6762
-0.651,0.434,-0.158,204.3,169.2,69.9,1023,2018,5,17,21,14,34.816,-0.5583,-0.1123,0.4618,-0.6799
-0.664,0.401,-0.009,204.4,185.7,77.8,1023,2018,5,17,21,14,34.816,-0.5465,-0.1598,0.4586,-0.6821
-0.572,0.388,0.065,204.5,196,77.5,0,2018,5,17,21,14,34.836,-0.5333,-0.2086,0.4525,-0.6835
-0.515,0.232,0.399,192.9,210.4,58.7,0,2018,5,17,21,14,34.875,-0.5005,-0.3033,0.4354,-0.684
-0.39,0.198,0.576,169.5,231.2,49.3,0,2018,5,17,21,14,34.897,-0.4806,-0.348,0.4212,-0.6858
-0.295,0.224,0.589,152.4,219.9,44.3,0,2018,5,17,21,14,34.9,-0.4599,-0.3893,0.404,-0.6882
-0.311,0.189,0.614,140.9,180.2,42.9,0,2018,5,17,21,14,34.916,-0.4408,-0.4256,0.3883,-0.6882
-0.24,0.104,0.645,128.9,141.3,43.6,0,2018,5,17,21,14,34.938,-0.4247,-0.4567,0.3761,-0.6852
-0.153,0.007,0.662,113.5,112.6,41.1,0,2018,5,17,21,14,34.958,-0.4116,-0.4831,0.3664,-0.6803
-0.088,-0.109,0.632,97,96.2,35.6,0,2018,5,17,21,14,34.977,-0.4007,-0.5052,0.3584,-0.675
-0.05,-0.208,0.554,81.2,99.6,24.7,0,2018,5,17,21,14,34.999,-0.3901,-0.5241,0.3505,-0.6709
0.014,-0.244,0.469,66.8,116.8,13.4,0,2018,5,17,21,14,35.036,-0.3778,-0.541,0.3411,-0.6693
0.078,-0.26,0.423,55.5,140.7,6.1,0,2018,5,17,21,14,35.059,-0.3629,-0.557,0.3291,-0.6705
0.128,-0.258,0.393,46.2,162.4,1,0,2018,5,17,21,14,35.064,-0.3454,-0.5726,0.314,-0.6739
0.132,-0.246,0.353,36.3,179,-0.4,0,2018,5,17,21,14,35.078,-0.3258,-0.5875,0.2961,-0.6788
0.12,-0.234,0.279,26.5,182.3,1.6,0,2018,5,17,21,14,35.102,-0.3054,-0.6012,0.2761,-0.6847
0.052,-0.241,0.245,15.6,175.1,4.1,0,2018,5,17,21,14,35.119,-0.2857,-0.6132,0.2554,-0.6906
0.01,-0.22,0.192,-3.3,157.9,8.1,0,2018,5,17,21,14,35.14,-0.2681,-0.6223,0.2348,-0.6968
-0.025,-0.254,0.031,-20.4,133.7,14.4,0,2018,5,17,21,14,35.158,-0.2541,-0.6278,0.2152,-0.7034
-0.096,-0.326,-0.146,-30.4,114.5,25.9,1023,2018,5,17,21,14,35.176,-0.2441,-0.6306,0.1967,-0.7098
-0.115,-0.409,-0.258,-33.6,111.9,33.2,1023,2018,5,17,21,14,35.199,-0.2365,-0.6323,0.178,-0.7158
-0.091,-0.459,-0.274,-30.6,104.6,26.8,1023,2018,5,17,21,14,35.218,-0.2294,-0.6336,0.1595,-0.7213
-0.042,-0.426,-0.139,-26.6,86.6,7.8,1023,2018,5,17,21,14,35.24,-0.2217,-0.6342,0.1443,-0.7264
0.015,-0.421,0.042,-26.2,63,-16.5,1023,2018,5,17,21,14,35.258,-0.2135,-0.6336,0.1344,-0.7312
-0.01,-0.451,0.084,-28.4,51.9,-40.5,1023,2018,5,17,21,14,35.281,-0.2043,-0.6314,0.1296,-0.7366
-0.202,-0.636,0.051,-34,68.4,-60.6,1023,2018,5,17,21,14,35.319,-0.1919,-0.6284,0.1266,-0.7431
-0.381,-0.738,-0.073,-42.1,91.9,-81.9,1023,2018,5,17,21,14,35.341,-0.1745,-0.6245,0.1225,-0.7513
-0.358,-0.7,-0.115,-52,98.8,-102.6,1023,2018,5,17,21,14,35.346,-0.1525,-0.6191,0.1184,-0.7611
-0.311,-0.67,-0.148,-63.2,91.3,-118.5,0,2018,5,17,21,14,35.362,-0.1287,-0.6114,0.1163,-0.772
-0.272,-0.693,-0.223,-71,95.8,-132.6,0,2018,5,17,21,14,35.385,-0.1032,-0.6015,0.1157,-0.7836
-0.296,-0.662,-0.26,-78.2,114,-145.4,0,2018,5,17,21,14,35.4,-0.0745,-0.59,0.1145,-0.7956
-0.3,-0.538,-0.291,-85,119.8,-156.3,0,2018,5,17,21,14,35.419,-0.0429,-0.5768,0.1125,-0.8079
-0.311,-0.433,-0.333,-88.6,110.7,-165.9,0,2018,5,17,21,14,35.439,-0.01,-0.5618,0.1116,-0.8196
-0.384,-0.41,-0.446,-87.6,96.9,-172.1,0,2018,5,17,21,14,35.477,0.0224,-0.5456,0.1133,-0.83
-0.442,-0.348,-0.497,-85.1,92.1,-177.4,0,2018,5,17,21,14,35.5,0.055,-0.5289,0.1166,-0.8388
-0.445,-0.213,-0.481,-86.9,86.7,-181.9,0,2018,5,17,21,14,35.505,0.0879,-0.5114,0.1208,-0.8462
-0.387,-0.102,-0.558,-89.3,73.3,-182.5,0,2018,5,17,21,14,35.521,0.1201,-0.4929,0.1265,-0.8523
-0.449,-0.063,-0.732,-84.3,64.1,-177.4,0,2018,5,17,21,14,35.543,0.1507,-0.4742,0.1337,-0.857
-0.423,0.043,-0.777,-75.4,49.1,-174.1,0,2018,5,17,21,14,35.58,0.1797,-0.4563,0.1417,-0.8598
-0.383,0.133,-0.747,-63.9,30.3,-169.2,0,2018,5,17,21,14,35.58,0.2068,-0.4402,0.1516,-0.8604
-0.338,0.191,-0.733,-53.5,15.7,-161.2,0,2018,5,17,21,14,35.603,0.2317,-0.426,0.163,-0.8591
-0.358,0.256,-0.773,-41.4,8.1,-150.9,0,2018,5,17,21,14,35.621,0.2545,-0.4138,0.1747,-0.8563
-0.302,0.356,-0.777,-27.9,2.2,-138.5,0,2018,5,17,21,14,35.644,0.2753,-0.4039,0.1859,-0.8523
-0.226,0.424,-0.776,-12.8,-1.2,-123.4,0,2018,5,17,21,14,35.66,0.2941,-0.3965,0.196,-0.8472
-0.162,0.463,-0.752,2.5,-0.3,-107.3,0,2018,5,17,21,14,35.683,0.3108,-0.3919,0.2044,-0.8414
-0.104,0.501,-0.741,16.7,4,-88.3,0,2018,5,17,21,14,35.702,0.3255,-0.3897,0.2102,-0.8353
-0.117,0.538,-0.745,32,10.8,-64.3,0,2018,5,17,21,14,35.724,0.338,-0.39,0.2129,-0.8295
-0.129,0.555,-0.723,47.8,17.6,-40.2,1023,2018,5,17,21,14,35.742,0.3479,-0.393,0.2119,-0.8242
-0.173,0.56,-0.681,65.6,27.9,-14.1,1023,2018,5,17,21,14,35.765,0.3554,-0.3988,0.207,-0.8195
-0.242,0.525,-0.608,82.3,45.1,17.2,1023,2018,5,17,21,14,35.784,0.3603,-0.4072,0.197,-0.8157
-0.338,0.501,-0.575,97.9,57.6,48.6,1023,2018,5,17,21,14,35.805,0.3623,-0.4179,0.1814,-0.813
-0.391,0.43,-0.556,116.3,58.5,77.5,1023,2018,5,17,21,14,35.842,0.3608,-0.4313,0.1616,-0.8109
-0.435,0.375,-0.485,137.5,62.9,100.9,1023,2018,5,17,21,14,35.865,0.356,-0.4478,0.1381,-0.8084
-0.469,0.343,-0.339,156,69.4,118.3,1023,2018,5,17,21,14,35.869,0.3489,-0.467,0.1109,-0.8048
-0.483,0.247,-0.152,162.1,85.9,128.7,1023,2018,5,17,21,14,35.884,0.3405,-0.4869,0.0801,-0.8003
-0.474,0.231,-0.021,160.1,107.4,130,1023,2018,5,17,21,14,35.921,0.3326,-0.505,0.0457,-0.795
-0.532,0.239,-0.011,153.8,112.9,126.7,1023,2018,5,17,21,14,35.943,0.3256,-0.5208,0.0097,-0.7889
-0.551,0.205,-0.054,147.2,97.8,120.3,0,2018,5,17,21,14,35.945,0.3183,-0.5352,-0.0246,-0.782
-0.527,0.124,-0.045,143.7,71.4,112.7,0,2018,5,17,21,14,35.964,0.3094,-0.5495,-0.0551,-0.774
-0.463,0.084,0.047,139.3,46.3,104.5,0,2018,5,17,21,14,36.001,0.2988,-0.5641,-0.081,-0.7654
-0.391,0.064,0.14,132,20,96.8,0,2018,5,17,21,14,36.024,0.2861,-0.5788,-0.1028,-0.7566
-0.329,0,0.155,125.4,4.9,91.7,0,2018,5,17,21,14,36.029,0.2721,-0.5929,-0.1205,-0.7482
-0.288,-0.047,0.154,121.5,6.2,89.8,0,2018,5,17,21,14,36.045,0.2581,-0.6063,-0.1362,-0.7397
-0.251,-0.125,0.268,113.7,15.8,86.2,0,2018,5,17,21,14,36.066,0.2454,-0.6182,-0.1517,-0.7311
-0.161,-0.134,0.382,98.4,17.9,83.1,0,2018,5,17,21,14,36.104,0.2337,-0.6285,-0.1677,-0.7225
-0.051,-0.16,0.401,85,4.3,81.8,0,2018,5,17,21,14,36.128,0.2219,-0.6369,-0.1819,-0.7154
0.03,-0.221,0.419,73,-10.8,80.9,0,2018,5,17,21,14,36.133,0.2087,-0.6442,-0.1935,-0.7098
0.065,-0.288,0.443,60.5,-22,77.4,0,2018,5,17,21,14,36.147,0.1947,-0.6502,-0.2027,-0.7057
0.08,-0.359,0.454,47.3,-26.6,71.4,0,2018,5,17,21,14,36.164,0.1808,-0.655,-0.2099,-0.7029
0.082,-0.442,0.474,34.4,-21.6,63.7,0,2018,5,17,21,14,36.187,0.1681,-0.6582,-0.2158,-0.7013
0.053,-0.504,0.508,21.2,-6.2,55.5,0,2018,5,17,21,14,36.206,0.1582,-0.6597,-0.2217,-0.7004
0.038,-0.532,0.509,7.6,14.3,46.5,0,2018,5,17,21,14,36.244,0.1519,-0.6593,-0.2285,-0.6999
0.043,-0.537,0.505,-4.2,31.3,36.7,0,2018,5,17,21,14,36.266,0.1495,-0.6571,-0.2362,-0.6999
0.06,-0.522,0.476,-14.4,36.2,24.2,0,2018,5,17,21,14,36.271,0.1502,-0.6537,-0.2437,-0.7003
0.035,-0.513,0.459,-24.2,27,10.5,0,2018,5,17,21,14,36.289,0.1526,-0.6497,-0.2491,-0.7016
0.018,-0.523,0.429,-33.3,16,-3.7,1023,2018,5,17,21,14,36.312,0.1559,-0.6455,-0.2513,-0.7041
-0.012,-0.543,0.397,-42.1,14.3,-16.3,1023,2018,5,17,21,14,36.329,0.1604,-0.6409,-0.2508,-0.7074
-0.077,-0.564,0.355,-51.4,20.1,-27.3,1023,2018,5,17,21,14,36.35,0.1672,-0.6355,-0.2491,-0.7113
-0.216,-0.596,0.303,-59,27.9,-36,1023,2018,5,17,21,14,36.369,0.1762,-0.6293,-0.2469,-0.7154
-0.419,-0.658,0.282,-67.1,44.1,-43.5,1023,2018,5,17,21,14,36.387,0.1878,-0.622,-0.245,-0.7195
-0.55,-0.645,0.239,-78.2,65.8,-52.6,1023,2018,5,17,21,14,36.407,0.203,-0.613,-0.2443,-0.7233
-0.524,-0.605,0.167,-88.2,76.9,-64.2,1023,2018,5,17,21,14,36.43,0.2217,-0.6021,-0.2443,-0.7269
-0.362,-0.519,0.048,-94,68.5,-79.1,1023,2018,5,17,21,14,36.447,0.2424,-0.5905,-0.2425,-0.7305
-0.187,-0.484,-0.04,-95.1,51.8,-98.1,0,2018,5,17,21,14,36.468,0.2638,-0.5795,-0.237,-0.7337
-0.087,-0.448,-0.113,-93.9,34.2,-118,0,2018,5,17,21,14,36.487,0.2858,-0.5697,-0.2269,-0.7363
-0.218,-0.496,-0.158,-92,32.4,-134.5,0,2018,5,17,21,14,36.509,0.3089,-0.561,-0.2136,-0.7376
-0.391,-0.512,-0.211,-93.9,44.8,-144.5,0,2018,5,17,21,14,36.547,0.334,-0.5519,-0.1997,-0.7374
-0.47,-0.501,-0.287,-97.6,59.3,-148.7,0,2018,5,17,21,14,36.57,0.3611,-0.5414,-0.1866,-0.7359
-0.485,-0.51,-0.374,-100.3,73.4,-150.9,0,2018,5,17,21,14,36.575,0.3897,-0.529,-0.1747,-0.7332
-0.483,-0.534,-0.47,-100,89,-154.3,0,2018,5,17,21,14,36.594,0.4195,-0.5149,-0.1641,-0.7292
-0.503,-0.455,-0.586,-99.4,96,-161.2,0,2018,5,17,21,14,36.608,0.4506,-0.4995,-0.1544,-0.7234
-0.502,-0.345,-0.67,-94.6,95,-168.4,0,2018,5,17,21,14,36.626,0.4821,-0.4838,-0.1444,-0.7159
-0.525,-0.257,-0.71,-88.2,89.8,-175.3,0,2018,5,17,21,14,36.649,0.5134,-0.4686,-0.1337,-0.7063
-0.501,-0.15,-0.739,-82.6,75.6,-181.1,0,2018,5,17,21,14,36.667,0.5438,-0.4545,-0.1216,-0.6948
-0.477,-0.093,-0.831,-73.8,58.3,-185.4,0,2018,5,17,21,14,36.69,0.5726,-0.4422,-0.1076,-0.6818
-0.429,0.004,-0.894,-61.2,35.5,-190.1,0,2018,5,17,21,14,36.71,0.5995,-0.4327,-0.0919,-0.6669
-0.378,0.091,-0.893,-46.1,7.8,-193.3,0,2018,5,17,21,14,36.733,0.6239,-0.4271,-0.0742,-0.6501
-0.39,0.146,-0.891,-30.2,-14.8,-194.6,0,2018,5,17,21,14,36.751,0.6457,-0.4256,-0.0551,-0.6315
-0.393,0.237,-0.903,-11.1,-24.8,-194.8,0,2018,5,17,21,14,36.774,0.6654,-0.4274,-0.036,-0.6109
-0.354,0.443,-0.919,7.3,-21.6,-178.8,0,2018,5,17,21,14,36.791,0.6831,-0.4309,-0.0193,-0.5891
-0.298,0.534,-0.868,24.3,-3.7,-160.8,0,2018,5,17,21,14,36.815,0.6992,-0.4345,-0.0072,-0.5675
-0.295,0.602,-0.822,38.6,14,-141.2,0,2018,5,17,21,14,36.831,0.7143,-0.4369,-0.0002,-0.5465
-0.288,0.565,-0.811,55.5,35.7,-118.8,0,2018,5,17,21,14,36.849,0.7283,-0.4383,0.0014,-0.5266
-0.331,0.633,-0.77,71.3,72.6,-89,0,2018,5,17,21,14,36.869,0.7419,-0.4371,-0.0037,-0.5083
-0.365,0.718,-0.719,85.1,106.6,-53.5,0,2018,5,17,21,14,36.893,0.7549,-0.4321,-0.0166,-0.4929
-0.363,0.779,-0.663,99.6,123.9,-15.4,1023,2018,5,17,21,14,36.909,0.7661,-0.4245,-0.0363,-0.481
-0.325,0.705,-0.604,116.8,127.5,17.2,1023,2018,5,17,21,14,36.933,0.7742,-0.4165,-0.0616,-0.4723
-0.24,0.704,-0.534,133.2,115.3,40.6,1023,2018,5,17,21,14,36.969,0.779,-0.4096,-0.0909,-0.4658
-0.213,0.74,-0.47,151.8,70.4,60.3,1023,2018,5,17,21,14,36.969,0.7789,-0.4074,-0.1215,-0.4609
-0.398,0.617,-0.361,171.8,19.4,84.3,1023,2018,5,17,21,14,36.992,0.7722,-0.413,-0.1521,-0.4581
-0.639,0.332,-0.149,181.6,3,106.7,1023,2018,5,17,21,14,37.028,0.7597,-0.4235,-0.1836,-0.4578
-0.728,0.155,-0.02,182.6,28.7,120.4,1023,2018,5,17,21,14,37.05,0.7452,-0.4322,-0.2173,-0.4588
-0.686,0.096,0.088,181,62.2,124.5,1023,2018,5,17,21,14,37.053,0.7314,-0.4356,-0.2539,-0.459
-0.589,0.008,0.268,175.7,84.6,120.8,1023,2018,5,17,21,14,37.09,0.7187,-0.4347,-0.2918,-0.4574
-0.509,-0.089,0.406,157.1,101.5,113.2,1023,2018,5,17,21,14,37.09,0.7074,-0.429,-0.3292,-0.4549
-0.387,-0.112,0.388,134.8,103.5,103.1,0,2018,5,17,21,14,37.111,0.6984,-0.4202,-0.3628,-0.4515
-0.259,-0.143,0.347,117.4,88,93.7,0,2018,5,17,21,14,37.149,0.6899,-0.4114,-0.392,-0.4483
-0.117,-0.176,0.405,107.4,67.9,85.4,0,2018,5,17,21,14,37.171,0.6806,-0.4045,-0.4177,-0.4455
-0.096,-0.224,0.503,97.1,50.8,81.5,0,2018,5,17,21,14,37.175,0.6706,-0.3992,-0.4402,-0.4438
-0.044,-0.293,0.512,86,34.1,75.9,0,2018,5,17,21,14,37.21,0.6602,-0.3952,-0.4595,-0.4433
0.008,-0.452,0.405,66.2,30.7,60.3,0,2018,5,17,21,14,37.231,0.6407,-0.3895,-0.4903,-0.4441
0.044,-0.528,0.395,55.2,54.3,52,0,2018,5,17,21,14,37.234,0.634,-0.3847,-0.504,-0.4426
0.036,-0.545,0.46,42.3,86.7,43.5,0,2018,5,17,21,14,37.27,0.6307,-0.3763,-0.5181,-0.4382
0.045,-0.501,0.432,25.9,106,34.8,0,2018,5,17,21,14,37.29,0.631,-0.3645,-0.5318,-0.4313
0.091,-0.459,0.359,12.8,106.5,26,0,2018,5,17,21,14,37.295,0.6337,-0.3511,-0.5438,-0.4233
0.153,-0.433,0.293,3.1,91.5,16.7,0,2018,5,17,21,14,37.312,0.6375,-0.3386,-0.5532,-0.4157
0.18,-0.441,0.243,-2.8,72.9,7.8,0,2018,5,17,21,14,37.333,0.6413,-0.3283,-0.5597,-0.4091
0.167,-0.467,0.203,-7.1,62.9,-0.2,0,2018,5,17,21,14,37.37,0.6454,-0.3201,-0.5641,-0.4033
0.151,-0.468,0.152,-10.6,58.8,-7.5,0,2018,5,17,21,14,37.391,0.6499,-0.3131,-0.567,-0.3973
0.138,-0.492,0.106,-13.2,56.6,-13.7,0,2018,5,17,21,14,37.393,0.655,-0.3068,-0.569,-0.391
0.049,-0.596,0.033,-13.4,65.4,-18.5,0,2018,5,17,21,14,37.429,0.6605,-0.3007,-0.5706,-0.384
-0.051,-0.684,-0.008,-15.8,96.2,-24.3,1023,2018,5,17,21,14,37.451,0.6676,-0.2926,-0.5732,-0.3742
-0.154,-0.707,-0.064,-20.4,128.1,-28.7,1023,2018,5,17,21,14,37.454,0.6768,-0.2808,-0.577,-0.3605
-0.214,-0.733,-0.12,-25.2,142.4,-36.9,1023,2018,5,17,21,14,37.49,0.6877,-0.2663,-0.5811,-0.3439
-0.169,-0.76,-0.157,-30.2,136.2,-51.8,1023,2018,5,17,21,14,37.512,0.6995,-0.2522,-0.5839,-0.3255
-0.125,-0.778,-0.207,-34.6,124.7,-72.4,1023,2018,5,17,21,14,37.526,0.7118,-0.2408,-0.5844,-0.306
-0.183,-0.796,-0.298,-37.9,116.4,-94.5,1023,2018,5,17,21,14,37.558,0.7248,-0.2324,-0.5825,-0.2848
-0.272,-0.735,-0.342,-39.7,112.5,-118.7,1023,2018,5,17,21,14,37.561,0.7385,-0.2268,-0.5787,-0.2611
-0.385,-0.703,-0.33,-40.3,107.3,-140.9,0,2018,5,17,21,14,37.576,0.7524,-0.224,-0.5731,-0.2347
-0.51,-0.73,-0.377,-41.8,105.7,-163.2,0,2018,5,17,21,14,37.612,0.7665,-0.2235,-0.5658,-0.2056
-0.579,-0.706,-0.505,-41.1,109.2,-185.7,0,2018,5,17,21,14,37.612,0.7806,-0.2247,-0.5569,-0.173
-0.483,-0.566,-0.586,-36.2,90.6,-209.5,0,2018,5,17,21,14,37.637,0.7937,-0.2288,-0.5464,-0.1375
-0.42,-0.406,-0.582,-27.9,57.2,-231.5,0,2018,5,17,21,14,37.674,0.8043,-0.2387,-0.5345,-0.101
-0.423,-0.435,-0.507,-19.2,27.6,-249.6,0,2018,5,17,21,14,37.674,0.8117,-0.2549,-0.5215,-0.0642
-0.523,-0.436,-0.528,-14.2,10.2,-268.1,0,2018,5,17,21,14,37.697,0.816,-0.2754,-0.5073,-0.0264
-0.331,-0.118,-0.554,8.6,-30.1,-282,0,2018,5,17,21,14,37.735,0.8139,-0.3271,-0.4774,0.0501
-0.254,-0.023,-0.527,20,-20.8,-274.3,0,2018,5,17,21,14,37.758,0.8077,-0.3535,-0.4633,0.0882
-0.211,0.105,-0.509,28.4,3.9,-259.3,0,2018,5,17,21,14,37.762,0.8002,-0.3755,-0.4499,0.1266
-0.169,0.216,-0.487,34.3,38.3,-236.3,0,2018,5,17,21,14,37.776,0.7929,-0.391,-0.4372,0.1648
-0.182,0.294,-0.478,36.5,75.7,-209.2,0,2018,5,17,21,14,37.794,0.7871,-0.3985,-0.4249,0.2023
-0.252,0.358,-0.488,37.7,103.7,-181,0,2018,5,17,21,14,37.817,0.7833,-0.3988,-0.4129,0.2383
-0.285,0.434,-0.493,39.9,117.3,-152.3,0,2018,5,17,21,14,37.835,0.7809,-0.3936,-0.4017,0.2716
-0.269,0.528,-0.506,46,117.4,-121.5,0,2018,5,17,21,14,37.857,0.7791,-0.3847,-0.3924,0.3013
-0.235,0.611,-0.502,55.1,110.8,-90.5,0,2018,5,17,21,14,37.876,0.7775,-0.3736,-0.386,0.3267
-0.204,0.692,-0.493,65.2,99.2,-60.5,0,2018,5,17,21,14,37.898,0.7758,-0.3607,-0.3832,0.3478
-0.206,0.76,-0.472,76.2,82.4,-30.2,0,2018,5,17,21,14,37.916,0.7739,-0.347,-0.3844,0.3643
-0.187,0.762,-0.465,87.6,65.8,-2,0,2018,5,17,21,14,37.939,0.7717,-0.3328,-0.3898,0.3762
-0.196,0.734,-0.454,98.6,55.6,24.9,0,2018,5,17,21,14,37.976,0.7695,-0.3177,-0.3991,0.384
-0.199,0.695,-0.446,108.7,51.1,52.2,1023,2018,5,17,21,14,37.999,0.7677,-0.3008,-0.4116,0.3881
-0.226,0.646,-0.427,119,55.2,79.6,1023,2018,5,17,21,14,38.003,0.7665,-0.2812,-0.4267,0.3888
-0.263,0.628,-0.405,131.5,63,104.3,1023,2018,5,17,21,14,38.02,0.7661,-0.2577,-0.4438,0.3868
-0.318,0.585,-0.359,143.1,74.6,127.3,1023,2018,5,17,21,14,38.038,0.7659,-0.23,-0.4626,0.3826
-0.425,0.475,-0.26,149.9,91.7,146.1,1023,2018,5,17,21,14,38.056,0.766,-0.1977,-0.4819,0.3766
-0.595,0.333,-0.059,153.1,99.6,158.8,1023,2018,5,17,21,14,38.079,0.7649,-0.1243,-0.5185,0.3612
-0.674,0.321,-0.025,153.7,83.8,159.6,1023,2018,5,17,21,14,38.097,0.7623,-0.0878,-0.5362,0.3513
-0.731,0.264,0.014,154.2,62.9,159.8,1023,2018,5,17,21,14,38.119,0.7582,-0.0536,-0.5543,0.3389
-0.731,0.132,0.151,150.9,38.7,152.4,1023,2018,5,17,21,14,38.138,0.7526,-0.0226,-0.5726,0.3243
-0.648,0.071,0.278,146,7.6,140,0,2018,5,17,21,14,38.161,0.7456,0.0032,-0.591,0.3077
-0.545,0.022,0.405,136.4,-17.6,128,0,2018,5,17,21,14,38.178,0.7377,0.0237,-0.6094,0.2893
-0.43,-0.072,0.476,121,-26.1,115.1,0,2018,5,17,21,14,38.201,0.7299,0.0402,-0.6263,0.2706
-0.289,-0.087,0.462,107.7,-41.8,101.5,0,2018,5,17,21,14,38.24,0.7225,0.0531,-0.6413,0.2524
-0.192,-0.201,0.459,97.3,-55.6,90.3,0,2018,5,17,21,14,38.263,0.7155,0.0619,-0.6554,0.2336
-0.109,-0.352,0.52,86,-51.7,81.2,0,2018,5,17,21,14,38.267,0.7089,0.0683,-0.668,0.2154
-0.02,-0.31,0.584,73.1,-29.6,73.4,0,2018,5,17,21,14,38.281,0.7029,0.0755,-0.6782,0.2004
0.048,-0.369,0.562,59.1,-11.7,63.8,0,2018,5,17,21,14,38.298,0.6976,0.0832,-0.6861,0.1887
0.105,-0.373,0.519,49.2,-0.2,53.9,0,2018,5,17,21,14,38.318,0.6931,0.0913,-0.6919,0.1801
0.163,-0.363,0.484,39.8,11.5,47.6,0,2018,5,17,21,14,38.356,0.6892,0.0995,-0.6962,0.174
0.162,-0.385,0.497,31.7,19.6,42.6,0,2018,5,17,21,14,38.38,0.6859,0.108,-0.6992,0.1699
0.144,-0.359,0.511,20.7,23.5,37.8,0,2018,5,17,21,14,38.385,0.6834,0.1164,-0.7009,0.1674
0.169,-0.348,0.512,10.3,10.1,32.3,0,2018,5,17,21,14,38.401,0.6822,0.1232,-0.7015,0.165
0.199,-0.355,0.479,1.2,-5.9,27.3,0,2018,5,17,21,14,38.423,0.6823,0.1272,-0.7014,0.1616
0.185,-0.381,0.462,-5.6,-26.1,22.1,0,2018,5,17,21,14,38.441,0.6837,0.1282,-0.701,0.1567
0.168,-0.458,0.43,-11.2,-34.5,16.1,0,2018,5,17,21,14,38.464,0.686,0.1265,-0.7004,0.1507
0.122,-0.508,0.411,-16.9,-27.2,7.7,0,2018,5,17,21,14,38.482,0.6887,0.1238,-0.6992,0.1457
0.035,-0.527,0.393,-22.3,-15.8,-2.2,0,2018,5,17,21,14,38.5,0.6917,0.121,-0.6973,0.1432
-0.122,-0.552,0.386,-27.3,-3.9,-11.9,0,2018,5,17,21,14,38.523,0.6947,0.1184,-0.6947,0.1435
-0.336,-0.607,0.391,-35.2,10.4,-20.8,1023,2018,5,17,21,14,38.541,0.698,0.1159,-0.6911,0.1465
-0.497,-0.656,0.372,-46.2,31.9,-32.5,1023,2018,5,17,21,14,38.564,0.7018,0.1141,-0.6861,0.1531
-0.473,-0.616,0.303,-59.1,49.9,-48.9,1023,2018,5,17,21,14,38.583,0.7062,0.1132,-0.6792,0.1643
-0.255,-0.493,0.158,-67.5,50.4,-70.4,1023,2018,5,17,21,14,38.601,0.711,0.1105,-0.6709,0.179
-0.101,-0.424,0.095,-68.9,37.6,-93.4,1023,2018,5,17,21,14,38.624,0.7154,0.1042,-0.6625,0.1957
-0.16,-0.358,0.083,-69.2,16,-118.7,1023,2018,5,17,21,14,38.644,0.719,0.0928,-0.6547,0.2134
-0.264,-0.359,0.072,-71,4.6,-137.8,1023,2018,5,17,21,14,38.667,0.7218,0.0765,-0.6476,0.2316
-0.329,-0.29,0.01,-74.5,3.7,-152.4,1023,2018,5,17,21,14,38.685,0.7238,0.0576,-0.6399,0.2513
-0.365,-0.272,-0.073,-75.2,5.4,-162.4,0,2018,5,17,21,14,38.721,0.7248,0.0373,-0.6316,0.2724
-0.365,-0.236,-0.167,-74.5,9.9,-170.1,0,2018,5,17,21,14,38.744,0.7248,0.016,-0.6225,0.2947
-0.331,-0.158,-0.243,-71.4,16,-175.8,0,2018,5,17,21,14,38.749,0.7234,-0.005,-0.6127,0.318
-0.314,-0.074,-0.304,-66.5,25.4,-179.6,0,2018,5,17,21,14,38.765,0.7205,-0.0253,-0.6023,0.3425
-0.311,0.027,-0.339,-61.7,38.2,-182.3,0,2018,5,17,21,14,38.783,0.7161,-0.0441,-0.5912,0.3682
